IPosition2,IPosition3,IPosition1,IPosition6,IPosition4,IPosition5,TrialsF1.thisRepN,TrialsF1.thisTrialN,TrialsF1.thisN,TrialsF1.thisIndex,TrialsM1.thisRepN,TrialsM1.thisTrialN,TrialsM1.thisN,TrialsM1.thisIndex,TrialsF2.thisRepN,TrialsF2.thisTrialN,TrialsF2.thisN,TrialsF2.thisIndex,TrialsM2.thisRepN,TrialsM2.thisTrialN,TrialsM2.thisN,TrialsM2.thisIndex,TrialsF3.thisRepN,TrialsF3.thisTrialN,TrialsF3.thisN,TrialsF3.thisIndex,TrialsM3.thisRepN,TrialsM3.thisTrialN,TrialsM3.thisN,TrialsM3.thisIndex,InstrKey_resp.keys,InstrKey_resp.rt,Image0 _Position,Image1 _Position,Image2 _Position,Image3 _Position,Center_image,condition,code,correct_answer,accuracy,Key_Resp.keys,Key_Resp.rt,BreakKey_resp.keys,BreakKey_resp.rt,date,frameRate,expName,session,participant,
,,,,,,,,,,,,,,,,,,,,,,,,,,,,,,space,15.9658871749,,,,,,,,,,,,,,2018_Mar_01_1703,60.0014432867,FEMA4ImagesEEG,001,103213,
AMNE23.JPG,AMNE24.JPG,AMNE22.JPG,AMSA24.JPG,AMSA22.JPG,AMSA23.JPG,0,0,0,9,,,,,,,,,,,,,,,,,,,,,,,AFNE09.jpg,AFSA01.jpg,AFSA16.jpg,AFNE19.jpg,AFNE19.jpg,FN,3,num_4,32,num_6,1.16671750369,,,2018_Mar_01_1703,60.0014432867,FEMA4ImagesEEG,001,103213,
AMSA21.JPG,AMNE22.JPG,AMNE21.JPG,AMSA23.JPG,AMSA22.JPG,AMNE23.JPG,0,1,1,1,,,,,,,,,,,,,,,,,,,,,,,AFNE19.jpg,AFNE10.jpg,AFSA10.jpg,AFSA07.jpg,AFNE19.jpg,FN,3,num_8,16,num_8,0.650116540259,,,2018_Mar_01_1703,60.0014432867,FEMA4ImagesEEG,001,103213,
AFNE23.JPG,AFNE24.JPG,AFNE22.JPG,AFSA24.JPG,AFSA22.JPG,AFSA23.JPG,0,2,2,8,,,,,,,,,,,,,,,,,,,,,,,AFNE18.jpg,AFSA07.jpg,AFSA14.jpg,AFNE02.jpg,AFSA07.jpg,FS,4,num_6,32,num_4,0.900106838206,,,2018_Mar_01_1703,60.0014432867,FEMA4ImagesEEG,001,103213,
AFSA25.JPG,AFNE24.JPG,AFSA24.JPG,AFNE21.JPG,AFSA21.JPG,AFNE25.JPG,0,3,3,2,,,,,,,,,,,,,,,,,,,,,,,AFSA20.jpg,AFNE19.jpg,AFSA03.jpg,AFNE08.jpg,AFSA03.jpg,FS,4,num_2,16,num_2,1.46672702977,,,2018_Mar_01_1703,60.0014432867,FEMA4ImagesEEG,001,103213,
AFSA21.JPG,AFNE23.JPG,AFNE21.JPG,AFSA25.JPG,AFNE25.JPG,AFSA23.JPG,0,4,4,4,,,,,,,,,,,,,,,,,,,,,,,AFSA12.jpg,AFNE20.jpg,AFSA17.jpg,AFNE02.jpg,AFNE02.jpg,FN,3,num_4,32,num_6,0.80012835958,,,2018_Mar_01_1703,60.0014432867,FEMA4ImagesEEG,001,103213,
AFNE22.JPG,AFSA24.JPG,AFSA22.JPG,AFNE25.JPG,AFNE24.JPG,AFSA25.JPG,0,5,5,6,,,,,,,,,,,,,,,,,,,,,,,AFSA14.jpg,AFNE01.jpg,AFSA12.jpg,AFNE15.jpg,AFSA12.jpg,FS,4,num_2,16,num_2,1.13344052411,,,2018_Mar_01_1703,60.0014432867,FEMA4ImagesEEG,001,103213,
AMNE22.JPG,AMSA24.JPG,AMSA22.JPG,AMNE25.JPG,AMNE24.JPG,AMSA25.JPG,0,6,6,7,,,,,,,,,,,,,,,,,,,,,,,AFSA05.jpg,AFNE01.jpg,AFNE05.jpg,AFSA06.jpg,AFNE01.jpg,FN,3,num_6,32,num_8,1.13315763255,,,2018_Mar_01_1703,60.0014432867,FEMA4ImagesEEG,001,103213,
AMSA21.JPG,AMNE23.JPG,AMNE21.JPG,AMSA25.JPG,AMNE25.JPG,AMSA23.JPG,0,7,7,5,,,,,,,,,,,,,,,,,,,,,,,AFNE15.jpg,AFSA18.jpg,AFNE17.jpg,AFSA01.jpg,AFSA18.jpg,FS,4,num_6,16,num_6,0.783496765653,,,2018_Mar_01_1703,60.0014432867,FEMA4ImagesEEG,001,103213,
AFSA21.JPG,AFNE22.JPG,AFNE21.JPG,AFSA23.JPG,AFSA22.JPG,AFNE23.JPG,0,8,8,0,,,,,,,,,,,,,,,,,,,,,,,AFSA12.jpg,AFNE11.jpg,AFSA06.jpg,AFNE18.jpg,AFNE18.jpg,FN,3,num_4,32,num_2,2.05000222917,,,2018_Mar_01_1703,60.0014432867,FEMA4ImagesEEG,001,103213,
AMSA25.JPG,AMNE24.JPG,AMSA24.JPG,AMNE26.JPG,AMSA21.JPG,AMNE25.JPG,0,9,9,3,,,,,,,,,,,,,,,,,,,,,,,AFSA15.jpg,AFNE17.jpg,AFNE05.jpg,AFSA01.jpg,AFNE17.jpg,FN,3,num_6,16,num_6,1.20013881568,,,2018_Mar_01_1703,60.0014432867,FEMA4ImagesEEG,001,103213,
AFNE22.JPG,AFSA24.JPG,AFSA22.JPG,AFNE25.JPG,AFNE24.JPG,AFSA25.JPG,,,,,0,0,0,6,,,,,,,,,,,,,,,,,,,AMNE19.jpg,AMSA17.jpg,AMSA10.jpg,AMNE04.jpg,AMSA10.jpg,MS,2,num_2,16,num_2,0.966905520763,,,2018_Mar_01_1703,60.0014432867,FEMA4ImagesEEG,001,103213,
AMSA21.JPG,AMNE23.JPG,AMNE21.JPG,AMSA25.JPG,AMNE25.JPG,AMSA23.JPG,,,,,0,1,1,5,,,,,,,,,,,,,,,,,,,AMNE15.jpg,AMNE02.jpg,AMSA06.jpg,AMSA18.jpg,AMSA18.jpg,MS,2,num_4,16,num_4,1.26673767832,,,2018_Mar_01_1703,60.0014432867,FEMA4ImagesEEG,001,103213,
AFNE23.JPG,AFNE24.JPG,AFNE22.JPG,AFSA24.JPG,AFSA22.JPG,AFSA23.JPG,,,,,0,2,2,8,,,,,,,,,,,,,,,,,,,AMSA18.jpg,AMSA17.jpg,AMNE01.jpg,AMNE16.jpg,AMNE16.jpg,MN,1,num_4,32,num_2,1.01673551323,,,2018_Mar_01_1703,60.0014432867,FEMA4ImagesEEG,001,103213,
AMNE23.JPG,AMNE24.JPG,AMNE22.JPG,AMSA24.JPG,AMSA22.JPG,AMSA23.JPG,,,,,0,3,3,9,,,,,,,,,,,,,,,,,,,AMNE02.jpg,AMNE07.jpg,AMSA16.jpg,AMSA08.jpg,AMNE07.jpg,MN,1,num_6,16,num_6,0.900020559318,,,2018_Mar_01_1703,60.0014432867,FEMA4ImagesEEG,001,103213,
AMNE22.JPG,AMSA24.JPG,AMSA22.JPG,AMNE25.JPG,AMNE24.JPG,AMSA25.JPG,,,,,0,4,4,7,,,,,,,,,,,,,,,,,,,AMNE15.jpg,AMNE11.jpg,AMSA06.jpg,AMSA04.jpg,AMNE11.jpg,MN,1,num_6,16,num_6,0.900130893569,,,2018_Mar_01_1703,60.0014432867,FEMA4ImagesEEG,001,103213,
AMSA21.JPG,AMNE22.JPG,AMNE21.JPG,AMSA23.JPG,AMSA22.JPG,AMNE23.JPG,,,,,0,5,5,1,,,,,,,,,,,,,,,,,,,AMSA11.jpg,AMSA15.jpg,AMNE04.jpg,AMNE15.jpg,AMNE15.jpg,MN,1,num_4,16,num_4,1.15006345813,,,2018_Mar_01_1703,60.0014432867,FEMA4ImagesEEG,001,103213,
AMSA25.JPG,AMNE24.JPG,AMSA24.JPG,AMNE26.JPG,AMSA21.JPG,AMNE25.JPG,,,,,0,6,6,3,,,,,,,,,,,,,,,,,,,AMSA20.jpg,AMNE11.jpg,AMSA11.jpg,AMNE17.jpg,AMNE17.jpg,MN,1,num_4,32,num_8,0.983460778836,,,2018_Mar_01_1703,60.0014432867,FEMA4ImagesEEG,001,103213,
AFSA21.JPG,AFNE23.JPG,AFNE21.JPG,AFSA25.JPG,AFNE25.JPG,AFSA23.JPG,,,,,0,7,7,4,,,,,,,,,,,,,,,,,,,AMNE09.jpg,AMNE10.jpg,AMSA03.jpg,AMSA05.jpg,AMNE09.jpg,MN,1,num_8,32,num_6,1.36686016829,,,2018_Mar_01_1703,60.0014432867,FEMA4ImagesEEG,001,103213,
AFSA25.JPG,AFNE24.JPG,AFSA24.JPG,AFNE21.JPG,AFSA21.JPG,AFNE25.JPG,,,,,0,8,8,2,,,,,,,,,,,,,,,,,,,AMSA12.jpg,AMSA19.jpg,AMNE10.jpg,AMNE05.jpg,AMNE05.jpg,MN,1,num_4,16,num_4,1.61673564161,,,2018_Mar_01_1703,60.0014432867,FEMA4ImagesEEG,001,103213,
AFSA21.JPG,AFNE22.JPG,AFNE21.JPG,AFSA23.JPG,AFSA22.JPG,AFNE23.JPG,,,,,0,9,9,0,,,,,,,,,,,,,,,,,,,AMSA19.jpg,AMSA07.jpg,AMNE17.jpg,AMNE04.jpg,AMSA19.jpg,MS,2,num_8,32,num_2,1.06681953091,,,2018_Mar_01_1703,60.0014432867,FEMA4ImagesEEG,001,103213,
AFNE22.JPG,AFSA24.JPG,AFSA22.JPG,AFNE25.JPG,AFNE24.JPG,AFSA25.JPG,,,,,,,,,0,0,0,6,,,,,,,,,,,,,,,AFNE01.jpg,AFSA03.jpg,AFSA12.jpg,AFNE12.jpg,AFSA03.jpg,FS,4,num_6,16,num_6,1.20011796779,,,2018_Mar_01_1703,60.0014432867,FEMA4ImagesEEG,001,103213,
AMSA25.JPG,AMNE24.JPG,AMSA24.JPG,AMNE26.JPG,AMSA21.JPG,AMNE25.JPG,,,,,,,,,0,1,1,3,,,,,,,,,,,,,,,AFNE14.jpg,AFSA14.jpg,AFNE19.jpg,AFSA19.jpg,AFNE14.jpg,FN,3,num_8,16,num_8,1.91666434123,,,2018_Mar_01_1703,60.0014432867,FEMA4ImagesEEG,001,103213,
AMNE22.JPG,AMSA24.JPG,AMSA22.JPG,AMNE25.JPG,AMNE24.JPG,AMSA25.JPG,,,,,,,,,0,2,2,7,,,,,,,,,,,,,,,AFNE01.jpg,AFNE10.jpg,AFSA15.jpg,AFSA06.jpg,AFSA06.jpg,FS,4,num_4,32,num_8,0.600137404399,,,2018_Mar_01_1703,60.0014432867,FEMA4ImagesEEG,001,103213,
AFSA21.JPG,AFNE22.JPG,AFNE21.JPG,AFSA23.JPG,AFSA22.JPG,AFNE23.JPG,,,,,,,,,0,3,3,0,,,,,,,,,,,,,,,AFNE01.jpg,AFSA06.jpg,AFSA05.jpg,AFNE09.jpg,AFNE01.jpg,FN,3,num_8,32,num_6,1.38342023757,,,2018_Mar_01_1703,60.0014432867,FEMA4ImagesEEG,001,103213,
AFSA25.JPG,AFNE24.JPG,AFSA24.JPG,AFNE21.JPG,AFSA21.JPG,AFNE25.JPG,,,,,,,,,0,4,4,2,,,,,,,,,,,,,,,AFSA04.jpg,AFNE05.jpg,AFSA12.jpg,AFNE17.jpg,AFSA12.jpg,FS,4,num_2,16,num_2,1.4499116526,,,2018_Mar_01_1703,60.0014432867,FEMA4ImagesEEG,001,103213,
AFNE23.JPG,AFNE24.JPG,AFNE22.JPG,AFSA24.JPG,AFSA22.JPG,AFSA23.JPG,,,,,,,,,0,5,5,8,,,,,,,,,,,,,,,AFNE02.jpg,AFNE10.jpg,AFSA11.jpg,AFSA16.jpg,AFSA11.jpg,FS,4,num_2,32,num_4,1.28353669774,,,2018_Mar_01_1703,60.0014432867,FEMA4ImagesEEG,001,103213,
AMSA21.JPG,AMNE23.JPG,AMNE21.JPG,AMSA25.JPG,AMNE25.JPG,AMSA23.JPG,,,,,,,,,0,6,6,5,,,,,,,,,,,,,,,AFSA05.jpg,AFSA19.jpg,AFNE12.jpg,AFNE09.jpg,AFNE09.jpg,FN,3,num_4,32,num_2,1.05008754553,,,2018_Mar_01_1703,60.0014432867,FEMA4ImagesEEG,001,103213,
AMNE23.JPG,AMNE24.JPG,AMNE22.JPG,AMSA24.JPG,AMSA22.JPG,AMSA23.JPG,,,,,,,,,0,7,7,9,,,,,,,,,,,,,,,AFNE07.jpg,AFSA07.jpg,AFSA09.jpg,AFNE03.jpg,AFNE03.jpg,FN,3,num_4,16,num_4,1.23320763558,,,2018_Mar_01_1703,60.0014432867,FEMA4ImagesEEG,001,103213,
AMSA21.JPG,AMNE22.JPG,AMNE21.JPG,AMSA23.JPG,AMSA22.JPG,AMNE23.JPG,,,,,,,,,0,8,8,1,,,,,,,,,,,,,,,AFNE14.jpg,AFNE10.jpg,AFSA19.jpg,AFSA15.jpg,AFSA15.jpg,FS,4,num_4,16,num_4,0.90022454923,,,2018_Mar_01_1703,60.0014432867,FEMA4ImagesEEG,001,103213,
AFSA21.JPG,AFNE23.JPG,AFNE21.JPG,AFSA25.JPG,AFNE25.JPG,AFSA23.JPG,,,,,,,,,0,9,9,4,,,,,,,,,,,,,,,AFSA18.jpg,AFSA15.jpg,AFNE20.jpg,AFNE01.jpg,AFNE20.jpg,FN,3,num_2,16,num_2,0.833458261099,,,2018_Mar_01_1703,60.0014432867,FEMA4ImagesEEG,001,103213,
AMSA25.JPG,AMNE24.JPG,AMSA24.JPG,AMNE26.JPG,AMSA21.JPG,AMNE25.JPG,,,,,,,,,,,,,0,0,0,3,,,,,,,,,,,AMSA14.jpg,AMNE07.jpg,AMNE03.jpg,AMSA13.jpg,AMNE03.jpg,MN,1,num_2,32,num_6,0.883452471811,,,2018_Mar_01_1703,60.0014432867,FEMA4ImagesEEG,001,103213,
AMSA21.JPG,AMNE23.JPG,AMNE21.JPG,AMSA25.JPG,AMNE25.JPG,AMSA23.JPG,,,,,,,,,,,,,0,1,1,5,,,,,,,,,,,AMSA19.jpg,AMSA18.jpg,AMNE13.jpg,AMNE01.jpg,AMSA18.jpg,MS,2,num_6,16,num_6,0.750095018884,,,2018_Mar_01_1703,60.0014432867,FEMA4ImagesEEG,001,103213,
AFSA21.JPG,AFNE23.JPG,AFNE21.JPG,AFSA25.JPG,AFNE25.JPG,AFSA23.JPG,,,,,,,,,,,,,0,2,2,4,,,,,,,,,,,AMNE01.jpg,AMSA09.jpg,AMSA13.jpg,AMNE17.jpg,AMSA13.jpg,MS,2,num_2,32,num_4,1.01676053088,,,2018_Mar_01_1703,60.0014432867,FEMA4ImagesEEG,001,103213,
AFSA25.JPG,AFNE24.JPG,AFSA24.JPG,AFNE21.JPG,AFSA21.JPG,AFNE25.JPG,,,,,,,,,,,,,0,3,3,2,,,,,,,,,,,AMNE11.jpg,AMSA12.jpg,AMNE13.jpg,AMSA05.jpg,AMNE11.jpg,MN,1,num_8,32,num_6,0.76675483794,,,2018_Mar_01_1703,60.0014432867,FEMA4ImagesEEG,001,103213,
AFNE23.JPG,AFNE24.JPG,AFNE22.JPG,AFSA24.JPG,AFSA22.JPG,AFSA23.JPG,,,,,,,,,,,,,0,4,4,8,,,,,,,,,,,AMSA20.jpg,AMSA18.jpg,AMNE12.jpg,AMNE03.jpg,AMSA18.jpg,MS,2,num_6,16,num_6,0.683543946594,,,2018_Mar_01_1703,60.0014432867,FEMA4ImagesEEG,001,103213,
AMNE23.JPG,AMNE24.JPG,AMNE22.JPG,AMSA24.JPG,AMSA22.JPG,AMSA23.JPG,,,,,,,,,,,,,0,5,5,9,,,,,,,,,,,AMSA20.jpg,AMNE05.jpg,AMNE01.jpg,AMSA17.jpg,AMSA20.jpg,MS,2,num_8,32,num_4,0.83357853815,,,2018_Mar_01_1703,60.0014432867,FEMA4ImagesEEG,001,103213,
AMSA21.JPG,AMNE22.JPG,AMNE21.JPG,AMSA23.JPG,AMSA22.JPG,AMNE23.JPG,,,,,,,,,,,,,0,6,6,1,,,,,,,,,,,AMNE13.jpg,AMSA10.jpg,AMNE20.jpg,AMSA08.jpg,AMSA10.jpg,MS,2,num_6,32,num_8,0.950100086629,,,2018_Mar_01_1703,60.0014432867,FEMA4ImagesEEG,001,103213,
AMNE22.JPG,AMSA24.JPG,AMSA22.JPG,AMNE25.JPG,AMNE24.JPG,AMSA25.JPG,,,,,,,,,,,,,0,7,7,7,,,,,,,,,,,AMNE19.jpg,AMNE16.jpg,AMSA19.jpg,AMSA05.jpg,AMNE19.jpg,MN,1,num_8,32,num_2,1.13341871393,,,2018_Mar_01_1703,60.0014432867,FEMA4ImagesEEG,001,103213,
AFNE22.JPG,AFSA24.JPG,AFSA22.JPG,AFNE25.JPG,AFNE24.JPG,AFSA25.JPG,,,,,,,,,,,,,0,8,8,6,,,,,,,,,,,AMSA08.jpg,AMNE12.jpg,AMNE19.jpg,AMSA10.jpg,AMSA08.jpg,MS,2,num_8,16,num_8,0.983501191949,,,2018_Mar_01_1703,60.0014432867,FEMA4ImagesEEG,001,103213,
AFSA21.JPG,AFNE22.JPG,AFNE21.JPG,AFSA23.JPG,AFSA22.JPG,AFNE23.JPG,,,,,,,,,,,,,0,9,9,0,,,,,,,,,,,AMSA02.jpg,AMNE14.jpg,AMNE12.jpg,AMSA19.jpg,AMNE14.jpg,MN,1,num_6,16,num_6,0.633485267404,,,2018_Mar_01_1703,60.0014432867,FEMA4ImagesEEG,001,103213,
AFSA21.JPG,AFNE23.JPG,AFNE21.JPG,AFSA25.JPG,AFNE25.JPG,AFSA23.JPG,,,,,,,,,,,,,,,,,0,0,0,4,,,,,,,AFNE15.jpg,AFSA06.jpg,AFNE03.jpg,AFSA07.jpg,AFNE15.jpg,FN,3,num_8,32,num_2,0.916883726837,,,2018_Mar_01_1703,60.0014432867,FEMA4ImagesEEG,001,103213,
AFNE22.JPG,AFSA24.JPG,AFSA22.JPG,AFNE25.JPG,AFNE24.JPG,AFSA25.JPG,,,,,,,,,,,,,,,,,0,1,1,6,,,,,,,AFSA03.jpg,AFNE16.jpg,AFSA07.jpg,AFNE03.jpg,AFNE16.jpg,FN,3,num_6,16,num_6,1.01677111513,,,2018_Mar_01_1703,60.0014432867,FEMA4ImagesEEG,001,103213,
AMSA21.JPG,AMNE22.JPG,AMNE21.JPG,AMSA23.JPG,AMSA22.JPG,AMNE23.JPG,,,,,,,,,,,,,,,,,0,2,2,1,,,,,,,AFSA07.jpg,AFSA20.jpg,AFNE16.jpg,AFNE05.jpg,AFSA07.jpg,FS,4,num_8,32,num_4,1.05012443056,,,2018_Mar_01_1703,60.0014432867,FEMA4ImagesEEG,001,103213,
AFSA25.JPG,AFNE24.JPG,AFSA24.JPG,AFNE21.JPG,AFSA21.JPG,AFNE25.JPG,,,,,,,,,,,,,,,,,0,3,3,2,,,,,,,AFNE10.jpg,AFSA03.jpg,AFSA08.jpg,AFNE09.jpg,AFSA08.jpg,FS,4,num_2,16,num_2,0.883443811908,,,2018_Mar_01_1703,60.0014432867,FEMA4ImagesEEG,001,103213,
AMNE23.JPG,AMNE24.JPG,AMNE22.JPG,AMSA24.JPG,AMSA22.JPG,AMSA23.JPG,,,,,,,,,,,,,,,,,0,4,4,9,,,,,,,AFNE06.jpg,AFSA01.jpg,AFSA09.jpg,AFNE02.jpg,AFNE02.jpg,FN,3,num_4,32,num_8,0.750147620216,,,2018_Mar_01_1703,60.0014432867,FEMA4ImagesEEG,001,103213,
AMNE22.JPG,AMSA24.JPG,AMSA22.JPG,AMNE25.JPG,AMNE24.JPG,AMSA25.JPG,,,,,,,,,,,,,,,,,0,5,5,7,,,,,,,AFSA06.jpg,AFNE14.jpg,AFNE09.jpg,AFSA04.jpg,AFSA04.jpg,FS,4,num_4,16,num_4,0.516906306613,,,2018_Mar_01_1703,60.0014432867,FEMA4ImagesEEG,001,103213,
AFNE23.JPG,AFNE24.JPG,AFNE22.JPG,AFSA24.JPG,AFSA22.JPG,AFSA23.JPG,,,,,,,,,,,,,,,,,0,6,6,8,,,,,,,AFSA08.jpg,AFNE19.jpg,AFSA10.jpg,AFNE16.jpg,AFNE19.jpg,FN,3,num_6,16,num_6,0.883430340793,,,2018_Mar_01_1703,60.0014432867,FEMA4ImagesEEG,001,103213,
AMSA21.JPG,AMNE23.JPG,AMNE21.JPG,AMSA25.JPG,AMNE25.JPG,AMSA23.JPG,,,,,,,,,,,,,,,,,0,7,7,5,,,,,,,AFNE06.jpg,AFNE16.jpg,AFSA10.jpg,AFSA03.jpg,AFNE16.jpg,FN,3,num_6,16,num_6,0.983506965218,,,2018_Mar_01_1703,60.0014432867,FEMA4ImagesEEG,001,103213,
AMSA25.JPG,AMNE24.JPG,AMSA24.JPG,AMNE26.JPG,AMSA21.JPG,AMNE25.JPG,,,,,,,,,,,,,,,,,0,8,8,3,,,,,,,AFNE15.jpg,AFSA04.jpg,AFSA09.jpg,AFNE01.jpg,AFNE01.jpg,FN,3,num_4,32,num_8,0.966824373929,,,2018_Mar_01_1703,60.0014432867,FEMA4ImagesEEG,001,103213,
AFSA21.JPG,AFNE22.JPG,AFNE21.JPG,AFSA23.JPG,AFSA22.JPG,AFNE23.JPG,,,,,,,,,,,,,,,,,0,9,9,0,,,,,,,AFSA03.jpg,AFNE11.jpg,AFSA11.jpg,AFNE15.jpg,AFSA11.jpg,FS,4,num_2,32,num_4,0.850148550235,,,2018_Mar_01_1703,60.0014432867,FEMA4ImagesEEG,001,103213,
AMSA21.JPG,AMNE22.JPG,AMNE21.JPG,AMSA23.JPG,AMSA22.JPG,AMNE23.JPG,,,,,,,,,,,,,,,,,,,,,0,0,0,1,,,AMSA16.jpg,AMNE17.jpg,AMNE12.jpg,AMSA18.jpg,AMNE17.jpg,MN,1,num_6,32,num_8,0.916779165622,,,2018_Mar_01_1703,60.0014432867,FEMA4ImagesEEG,001,103213,
AFNE22.JPG,AFSA24.JPG,AFSA22.JPG,AFNE25.JPG,AFNE24.JPG,AFSA25.JPG,,,,,,,,,,,,,,,,,,,,,0,1,1,6,,,AMSA20.jpg,AMSA07.jpg,AMNE14.jpg,AMNE18.jpg,AMNE18.jpg,MN,1,num_4,32,num_8,0.950114840409,,,2018_Mar_01_1703,60.0014432867,FEMA4ImagesEEG,001,103213,
AMSA25.JPG,AMNE24.JPG,AMSA24.JPG,AMNE26.JPG,AMSA21.JPG,AMNE25.JPG,,,,,,,,,,,,,,,,,,,,,0,2,2,3,,,AMNE05.jpg,AMSA19.jpg,AMSA09.jpg,AMNE09.jpg,AMNE05.jpg,MN,1,num_8,16,num_8,0.733465028927,,,2018_Mar_01_1703,60.0014432867,FEMA4ImagesEEG,001,103213,
AFSA21.JPG,AFNE23.JPG,AFNE21.JPG,AFSA25.JPG,AFNE25.JPG,AFSA23.JPG,,,,,,,,,,,,,,,,,,,,,0,3,3,4,,,AMSA10.jpg,AMNE20.jpg,AMNE16.jpg,AMSA18.jpg,AMNE20.jpg,MN,1,num_6,32,num_2,2.11665818305,,,2018_Mar_01_1703,60.0014432867,FEMA4ImagesEEG,001,103213,
AMNE23.JPG,AMNE24.JPG,AMNE22.JPG,AMSA24.JPG,AMSA22.JPG,AMSA23.JPG,,,,,,,,,,,,,,,,,,,,,0,4,4,9,,,AMSA01.jpg,AMNE11.jpg,AMSA20.jpg,AMNE15.jpg,AMNE11.jpg,MN,1,num_6,32,num_2,0.816805819282,,,2018_Mar_01_1703,60.0014432867,FEMA4ImagesEEG,001,103213,
AFSA21.JPG,AFNE22.JPG,AFNE21.JPG,AFSA23.JPG,AFSA22.JPG,AFNE23.JPG,,,,,,,,,,,,,,,,,,,,,0,5,5,0,,,AMSA18.jpg,AMNE05.jpg,AMSA06.jpg,AMNE01.jpg,AMNE01.jpg,MN,1,num_4,16,num_4,0.516762936488,,,2018_Mar_01_1703,60.0014432867,FEMA4ImagesEEG,001,103213,
AFNE23.JPG,AFNE24.JPG,AFNE22.JPG,AFSA24.JPG,AFSA22.JPG,AFSA23.JPG,,,,,,,,,,,,,,,,,,,,,0,6,6,8,,,AMNE20.jpg,AMNE12.jpg,AMSA14.jpg,AMSA17.jpg,AMNE12.jpg,MN,1,num_6,32,num_8,0.999957662309,,,2018_Mar_01_1703,60.0014432867,FEMA4ImagesEEG,001,103213,
AMSA21.JPG,AMNE23.JPG,AMNE21.JPG,AMSA25.JPG,AMNE25.JPG,AMSA23.JPG,,,,,,,,,,,,,,,,,,,,,0,7,7,5,,,AMNE12.jpg,AMSA13.jpg,AMNE14.jpg,AMSA14.jpg,AMNE14.jpg,MN,1,num_2,16,num_2,0.700112675549,,,2018_Mar_01_1703,60.0014432867,FEMA4ImagesEEG,001,103213,
AFSA25.JPG,AFNE24.JPG,AFSA24.JPG,AFNE21.JPG,AFSA21.JPG,AFNE25.JPG,,,,,,,,,,,,,,,,,,,,,0,8,8,2,,,AMSA04.jpg,AMNE04.jpg,AMNE05.jpg,AMSA19.jpg,AMNE05.jpg,MN,1,num_2,32,num_6,0.716802644078,,,2018_Mar_01_1703,60.0014432867,FEMA4ImagesEEG,001,103213,
AMNE22.JPG,AMSA24.JPG,AMSA22.JPG,AMNE25.JPG,AMNE24.JPG,AMSA25.JPG,,,,,,,,,,,,,,,,,,,,,0,9,9,7,,,AMSA09.jpg,AMSA01.jpg,AMNE05.jpg,AMNE13.jpg,AMNE13.jpg,MN,1,num_4,16,num_4,0.700197992148,,,2018_Mar_01_1703,60.0014432867,FEMA4ImagesEEG,001,103213,
,,,,,,,,,,,,,,,,,,,,,,,,,,,,,,,,,,,,,,,,,,,space,21.2315131724,2018_Mar_01_1703,60.0014432867,FEMA4ImagesEEG,001,103213,
AFNE01.JPG,AFNE01.JPG,AFNE01.JPG,AFNE01.JPG,AFNE01.JPG,AFNE01.JPG,0,0,0,4,,,,,,,,,,,,,,,,,,,,,,,AFNE17.jpg,AFNE09.jpg,AFSA09.jpg,AFSA20.jpg,AFSA20.jpg,FS,4,num_4,32,num_6,0.900176117662,,,2018_Mar_01_1703,60.0014432867,FEMA4ImagesEEG,001,103213,
AFNE01.JPG,AFNE01.JPG,AFNE01.JPG,AFNE01.JPG,AFNE01.JPG,AFNE01.JPG,0,1,1,2,,,,,,,,,,,,,,,,,,,,,,,AFNE20.jpg,AFSA15.jpg,AFNE19.jpg,AFSA16.jpg,AFNE20.jpg,FN,3,num_8,32,num_4,0.750152752036,,,2018_Mar_01_1703,60.0014432867,FEMA4ImagesEEG,001,103213,
AFNE01.JPG,AFNE01.JPG,AFNE01.JPG,AFNE01.JPG,AFNE01.JPG,AFNE01.JPG,0,2,2,7,,,,,,,,,,,,,,,,,,,,,,,AFSA16.jpg,AFSA13.jpg,AFNE12.jpg,AFNE16.jpg,AFSA13.jpg,FS,4,num_6,16,num_6,0.850214622449,,,2018_Mar_01_1703,60.0014432867,FEMA4ImagesEEG,001,103213,
AFNE01.JPG,AFNE01.JPG,AFNE01.JPG,AFNE01.JPG,AFNE01.JPG,AFNE01.JPG,0,3,3,8,,,,,,,,,,,,,,,,,,,,,,,AFNE14.jpg,AFSA10.jpg,AFSA13.jpg,AFNE16.jpg,AFNE16.jpg,FN,3,num_4,16,num_4,0.600157290231,,,2018_Mar_01_1703,60.0014432867,FEMA4ImagesEEG,001,103213,
AFNE01.JPG,AFNE01.JPG,AFNE01.JPG,AFNE01.JPG,AFNE01.JPG,AFNE01.JPG,0,4,4,5,,,,,,,,,,,,,,,,,,,,,,,AFSA08.jpg,AFNE18.jpg,AFSA07.jpg,AFNE08.jpg,AFNE18.jpg,FN,3,num_6,16,num_6,0.633418874349,,,2018_Mar_01_1703,60.0014432867,FEMA4ImagesEEG,001,103213,
AFNE01.JPG,AFNE01.JPG,AFNE01.JPG,AFNE01.JPG,AFNE01.JPG,AFNE01.JPG,0,5,5,0,,,,,,,,,,,,,,,,,,,,,,,AFNE02.jpg,AFSA15.jpg,AFSA08.jpg,AFNE08.jpg,AFSA08.jpg,FS,4,num_2,16,num_2,1.50009574043,,,2018_Mar_01_1703,60.0014432867,FEMA4ImagesEEG,001,103213,
AFNE01.JPG,AFNE01.JPG,AFNE01.JPG,AFNE01.JPG,AFNE01.JPG,AFNE01.JPG,0,6,6,1,,,,,,,,,,,,,,,,,,,,,,,AFSA16.jpg,AFSA09.jpg,AFNE19.jpg,AFNE12.jpg,AFNE12.jpg,FN,3,num_4,16,num_4,0.783487464534,,,2018_Mar_01_1703,60.0014432867,FEMA4ImagesEEG,001,103213,
AFNE01.JPG,AFNE01.JPG,AFNE01.JPG,AFNE01.JPG,AFNE01.JPG,AFNE01.JPG,0,7,7,3,,,,,,,,,,,,,,,,,,,,,,,AFNE10.jpg,AFSA14.jpg,AFNE02.jpg,AFSA18.jpg,AFSA18.jpg,FS,4,num_4,16,num_4,0.833452808671,,,2018_Mar_01_1703,60.0014432867,FEMA4ImagesEEG,001,103213,
AFNE01.JPG,AFNE01.JPG,AFNE01.JPG,AFNE01.JPG,AFNE01.JPG,AFNE01.JPG,0,8,8,9,,,,,,,,,,,,,,,,,,,,,,,AFSA18.jpg,AFNE07.jpg,AFNE05.jpg,AFSA01.jpg,AFNE05.jpg,FN,3,num_2,16,num_2,1.05017190007,,,2018_Mar_01_1703,60.0014432867,FEMA4ImagesEEG,001,103213,
AFNE01.JPG,AFNE01.JPG,AFNE01.JPG,AFNE01.JPG,AFNE01.JPG,AFNE01.JPG,0,9,9,6,,,,,,,,,,,,,,,,,,,,,,,AFNE01.jpg,AFSA10.jpg,AFNE19.jpg,AFSA13.jpg,AFSA10.jpg,FS,4,num_6,16,num_6,0.933458229061,,,2018_Mar_01_1703,60.0014432867,FEMA4ImagesEEG,001,103213,
AFNE01.JPG,AFNE01.JPG,AFNE01.JPG,AFNE01.JPG,AFNE01.JPG,AFNE01.JPG,1,0,10,7,,,,,,,,,,,,,,,,,,,,,,,AFNE15.jpg,AFSA12.jpg,AFNE16.jpg,AFSA11.jpg,AFSA11.jpg,FS,4,num_4,16,num_4,0.633487512358,,,2018_Mar_01_1703,60.0014432867,FEMA4ImagesEEG,001,103213,
AFNE01.JPG,AFNE01.JPG,AFNE01.JPG,AFNE01.JPG,AFNE01.JPG,AFNE01.JPG,1,1,11,0,,,,,,,,,,,,,,,,,,,,,,,AFSA20.jpg,AFSA13.jpg,AFNE01.jpg,AFNE20.jpg,AFNE01.jpg,FN,3,num_2,32,num_4,1.16679640557,,,2018_Mar_01_1703,60.0014432867,FEMA4ImagesEEG,001,103213,
AFNE01.JPG,AFNE01.JPG,AFNE01.JPG,AFNE01.JPG,AFNE01.JPG,AFNE01.JPG,1,2,12,1,,,,,,,,,,,,,,,,,,,,,,,AFSA20.jpg,AFSA19.jpg,AFNE05.jpg,AFNE07.jpg,AFSA19.jpg,FS,4,num_6,16,num_6,1.3833888052,,,2018_Mar_01_1703,60.0014432867,FEMA4ImagesEEG,001,103213,
AFNE01.JPG,AFNE01.JPG,AFNE01.JPG,AFNE01.JPG,AFNE01.JPG,AFNE01.JPG,1,3,13,9,,,,,,,,,,,,,,,,,,,,,,,AFSA17.jpg,AFSA14.jpg,AFNE07.jpg,AFNE04.jpg,AFSA17.jpg,FS,4,num_8,32,num_4,0.716757419752,,,2018_Mar_01_1703,60.0014432867,FEMA4ImagesEEG,001,103213,
AFNE01.JPG,AFNE01.JPG,AFNE01.JPG,AFNE01.JPG,AFNE01.JPG,AFNE01.JPG,1,4,14,2,,,,,,,,,,,,,,,,,,,,,,,AFSA01.jpg,AFNE08.jpg,AFNE06.jpg,AFSA08.jpg,AFSA08.jpg,FS,4,num_4,16,num_4,0.466812987812,,,2018_Mar_01_1703,60.0014432867,FEMA4ImagesEEG,001,103213,
AFNE01.JPG,AFNE01.JPG,AFNE01.JPG,AFNE01.JPG,AFNE01.JPG,AFNE01.JPG,1,5,15,8,,,,,,,,,,,,,,,,,,,,,,,AFNE20.jpg,AFNE05.jpg,AFSA10.jpg,AFSA04.jpg,AFNE20.jpg,FN,3,num_8,16,num_8,1.00011642813,,,2018_Mar_01_1703,60.0014432867,FEMA4ImagesEEG,001,103213,
AFNE01.JPG,AFNE01.JPG,AFNE01.JPG,AFNE01.JPG,AFNE01.JPG,AFNE01.JPG,1,6,16,6,,,,,,,,,,,,,,,,,,,,,,,AFNE04.jpg,AFNE15.jpg,AFSA11.jpg,AFSA03.jpg,AFSA03.jpg,FS,4,num_4,32,num_2,0.833465638105,,,2018_Mar_01_1703,60.0014432867,FEMA4ImagesEEG,001,103213,
AFNE01.JPG,AFNE01.JPG,AFNE01.JPG,AFNE01.JPG,AFNE01.JPG,AFNE01.JPG,1,7,17,5,,,,,,,,,,,,,,,,,,,,,,,AFSA04.jpg,AFNE13.jpg,AFSA09.jpg,AFNE12.jpg,AFNE13.jpg,FN,3,num_6,16,num_6,0.616776696173,,,2018_Mar_01_1703,60.0014432867,FEMA4ImagesEEG,001,103213,
AFNE01.JPG,AFNE01.JPG,AFNE01.JPG,AFNE01.JPG,AFNE01.JPG,AFNE01.JPG,1,8,18,3,,,,,,,,,,,,,,,,,,,,,,,AFNE14.jpg,AFSA13.jpg,AFNE11.jpg,AFSA07.jpg,AFNE11.jpg,FN,3,num_2,16,num_2,0.866874762112,,,2018_Mar_01_1703,60.0014432867,FEMA4ImagesEEG,001,103213,
AFNE01.JPG,AFNE01.JPG,AFNE01.JPG,AFNE01.JPG,AFNE01.JPG,AFNE01.JPG,1,9,19,4,,,,,,,,,,,,,,,,,,,,,,,AFSA13.jpg,AFSA07.jpg,AFNE01.jpg,AFNE14.jpg,AFNE14.jpg,FN,3,num_4,16,num_4,0.749843238853,,,2018_Mar_01_1703,60.0014432867,FEMA4ImagesEEG,001,103213,
AFNE01.JPG,AFNE01.JPG,AFNE01.JPG,AFNE01.JPG,AFNE01.JPG,AFNE01.JPG,2,0,20,7,,,,,,,,,,,,,,,,,,,,,,,AFNE13.jpg,AFSA11.jpg,AFSA17.jpg,AFNE02.jpg,AFNE02.jpg,FN,3,num_4,16,num_4,0.616834108485,,,2018_Mar_01_1703,60.0014432867,FEMA4ImagesEEG,001,103213,
AFNE01.JPG,AFNE01.JPG,AFNE01.JPG,AFNE01.JPG,AFNE01.JPG,AFNE01.JPG,2,1,21,9,,,,,,,,,,,,,,,,,,,,,,,AFNE20.jpg,AFNE12.jpg,AFSA17.jpg,AFSA08.jpg,AFSA17.jpg,FS,4,num_2,16,num_2,0.650154387578,,,2018_Mar_01_1703,60.0014432867,FEMA4ImagesEEG,001,103213,
AFNE01.JPG,AFNE01.JPG,AFNE01.JPG,AFNE01.JPG,AFNE01.JPG,AFNE01.JPG,2,2,22,4,,,,,,,,,,,,,,,,,,,,,,,AFSA05.jpg,AFNE11.jpg,AFSA06.jpg,AFNE16.jpg,AFNE16.jpg,FN,3,num_4,16,num_4,0.783454428194,,,2018_Mar_01_1703,60.0014432867,FEMA4ImagesEEG,001,103213,
AFNE01.JPG,AFNE01.JPG,AFNE01.JPG,AFNE01.JPG,AFNE01.JPG,AFNE01.JPG,2,3,23,6,,,,,,,,,,,,,,,,,,,,,,,AFNE09.jpg,AFNE11.jpg,AFSA07.jpg,AFSA19.jpg,AFNE09.jpg,FN,3,num_8,32,num_2,1.15009072097,,,2018_Mar_01_1703,60.0014432867,FEMA4ImagesEEG,001,103213,
AFNE01.JPG,AFNE01.JPG,AFNE01.JPG,AFNE01.JPG,AFNE01.JPG,AFNE01.JPG,2,4,24,8,,,,,,,,,,,,,,,,,,,,,,,AFNE03.jpg,AFNE13.jpg,AFSA16.jpg,AFSA02.jpg,AFNE13.jpg,FN,3,num_6,32,num_4,0.833589764079,,,2018_Mar_01_1703,60.0014432867,FEMA4ImagesEEG,001,103213,
AFNE01.JPG,AFNE01.JPG,AFNE01.JPG,AFNE01.JPG,AFNE01.JPG,AFNE01.JPG,2,5,25,3,,,,,,,,,,,,,,,,,,,,,,,AFNE02.jpg,AFSA15.jpg,AFSA04.jpg,AFNE16.jpg,AFSA15.jpg,FS,4,num_6,32,num_2,0.88344188733,,,2018_Mar_01_1703,60.0014432867,FEMA4ImagesEEG,001,103213,
AFNE01.JPG,AFNE01.JPG,AFNE01.JPG,AFNE01.JPG,AFNE01.JPG,AFNE01.JPG,2,6,26,2,,,,,,,,,,,,,,,,,,,,,,,AFSA01.jpg,AFSA17.jpg,AFNE17.jpg,AFNE02.jpg,AFSA01.jpg,FS,4,num_8,16,num_8,0.716761589283,,,2018_Mar_01_1703,60.0014432867,FEMA4ImagesEEG,001,103213,
AFNE01.JPG,AFNE01.JPG,AFNE01.JPG,AFNE01.JPG,AFNE01.JPG,AFNE01.JPG,2,7,27,0,,,,,,,,,,,,,,,,,,,,,,,AFNE06.jpg,AFNE04.jpg,AFSA10.jpg,AFSA03.jpg,AFNE04.jpg,FN,3,num_6,16,num_6,0.500138078118,,,2018_Mar_01_1703,60.0014432867,FEMA4ImagesEEG,001,103213,
AFNE01.JPG,AFNE01.JPG,AFNE01.JPG,AFNE01.JPG,AFNE01.JPG,AFNE01.JPG,2,8,28,5,,,,,,,,,,,,,,,,,,,,,,,AFNE11.jpg,AFSA08.jpg,AFNE04.jpg,AFSA16.jpg,AFSA08.jpg,FS,4,num_6,32,num_4,1.10011190572,,,2018_Mar_01_1703,60.0014432867,FEMA4ImagesEEG,001,103213,
AFNE01.JPG,AFNE01.JPG,AFNE01.JPG,AFNE01.JPG,AFNE01.JPG,AFNE01.JPG,2,9,29,1,,,,,,,,,,,,,,,,,,,,,,,AFNE02.jpg,AFSA09.jpg,AFNE20.jpg,AFSA11.jpg,AFSA09.jpg,FS,4,num_6,32,num_4,1.16670724005,,,2018_Mar_01_1703,60.0014432867,FEMA4ImagesEEG,001,103213,
AFNE01.JPG,AFNE01.JPG,AFNE01.JPG,AFNE01.JPG,AFNE01.JPG,AFNE01.JPG,3,0,30,4,,,,,,,,,,,,,,,,,,,,,,,AFNE03.jpg,AFSA10.jpg,AFNE02.jpg,AFSA15.jpg,AFSA10.jpg,FS,4,num_6,32,num_8,1.06674223277,,,2018_Mar_01_1703,60.0014432867,FEMA4ImagesEEG,001,103213,
AFNE01.JPG,AFNE01.JPG,AFNE01.JPG,AFNE01.JPG,AFNE01.JPG,AFNE01.JPG,3,1,31,2,,,,,,,,,,,,,,,,,,,,,,,AFSA10.jpg,AFSA07.jpg,AFNE04.jpg,AFNE15.jpg,AFSA10.jpg,FS,4,num_8,32,num_6,0.683503533481,,,2018_Mar_01_1703,60.0014432867,FEMA4ImagesEEG,001,103213,
AFNE01.JPG,AFNE01.JPG,AFNE01.JPG,AFNE01.JPG,AFNE01.JPG,AFNE01.JPG,3,2,32,5,,,,,,,,,,,,,,,,,,,,,,,AFSA14.jpg,AFNE14.jpg,AFNE02.jpg,AFSA01.jpg,AFSA14.jpg,FS,4,num_8,32,num_6,0.81675418024,,,2018_Mar_01_1703,60.0014432867,FEMA4ImagesEEG,001,103213,
AFNE01.JPG,AFNE01.JPG,AFNE01.JPG,AFNE01.JPG,AFNE01.JPG,AFNE01.JPG,3,3,33,1,,,,,,,,,,,,,,,,,,,,,,,AFNE17.jpg,AFNE02.jpg,AFSA09.jpg,AFSA20.jpg,AFSA09.jpg,FS,4,num_2,16,num_2,0.516772237839,,,2018_Mar_01_1703,60.0014432867,FEMA4ImagesEEG,001,103213,
AFNE01.JPG,AFNE01.JPG,AFNE01.JPG,AFNE01.JPG,AFNE01.JPG,AFNE01.JPG,3,4,34,6,,,,,,,,,,,,,,,,,,,,,,,AFSA12.jpg,AFNE14.jpg,AFNE12.jpg,AFSA17.jpg,AFSA12.jpg,FS,4,num_8,16,num_8,0.433487576665,,,2018_Mar_01_1703,60.0014432867,FEMA4ImagesEEG,001,103213,
AFNE01.JPG,AFNE01.JPG,AFNE01.JPG,AFNE01.JPG,AFNE01.JPG,AFNE01.JPG,3,5,35,9,,,,,,,,,,,,,,,,,,,,,,,AFSA14.jpg,AFNE20.jpg,AFSA07.jpg,AFNE17.jpg,AFNE17.jpg,FN,3,num_4,32,num_6,0.816761878086,,,2018_Mar_01_1703,60.0014432867,FEMA4ImagesEEG,001,103213,
AFNE01.JPG,AFNE01.JPG,AFNE01.JPG,AFNE01.JPG,AFNE01.JPG,AFNE01.JPG,3,6,36,3,,,,,,,,,,,,,,,,,,,,,,,AFSA17.jpg,AFNE17.jpg,AFSA01.jpg,AFNE06.jpg,AFNE17.jpg,FN,3,num_6,32,num_8,0.833470128477,,,2018_Mar_01_1703,60.0014432867,FEMA4ImagesEEG,001,103213,
AFNE01.JPG,AFNE01.JPG,AFNE01.JPG,AFNE01.JPG,AFNE01.JPG,AFNE01.JPG,3,7,37,7,,,,,,,,,,,,,,,,,,,,,,,AFSA08.jpg,AFSA13.jpg,AFNE01.jpg,AFNE18.jpg,AFNE01.jpg,FN,3,num_2,32,num_6,1.16674316302,,,2018_Mar_01_1703,60.0014432867,FEMA4ImagesEEG,001,103213,
AFNE01.JPG,AFNE01.JPG,AFNE01.JPG,AFNE01.JPG,AFNE01.JPG,AFNE01.JPG,3,8,38,8,,,,,,,,,,,,,,,,,,,,,,,AFSA18.jpg,AFSA03.jpg,AFNE15.jpg,AFNE13.jpg,AFSA18.jpg,FS,4,num_8,32,num_6,0.766815136652,,,2018_Mar_01_1703,60.0014432867,FEMA4ImagesEEG,001,103213,
AFNE01.JPG,AFNE01.JPG,AFNE01.JPG,AFNE01.JPG,AFNE01.JPG,AFNE01.JPG,3,9,39,0,,,,,,,,,,,,,,,,,,,,,,,AFSA07.jpg,AFSA06.jpg,AFNE12.jpg,AFNE16.jpg,AFSA07.jpg,FS,4,num_8,16,num_8,0.516613472253,,,2018_Mar_01_1703,60.0014432867,FEMA4ImagesEEG,001,103213,
AFNE01.JPG,AFNE01.JPG,AFNE01.JPG,AFNE01.JPG,AFNE01.JPG,AFNE01.JPG,4,0,40,6,,,,,,,,,,,,,,,,,,,,,,,AFSA06.jpg,AFNE01.jpg,AFNE05.jpg,AFSA05.jpg,AFSA05.jpg,FS,4,num_4,16,num_4,0.900144043844,,,2018_Mar_01_1703,60.0014432867,FEMA4ImagesEEG,001,103213,
AFNE01.JPG,AFNE01.JPG,AFNE01.JPG,AFNE01.JPG,AFNE01.JPG,AFNE01.JPG,4,1,41,0,,,,,,,,,,,,,,,,,,,,,,,AFNE14.jpg,AFSA11.jpg,AFNE03.jpg,AFSA08.jpg,AFNE03.jpg,FN,3,num_2,32,num_4,0.883491281187,,,2018_Mar_01_1703,60.0014432867,FEMA4ImagesEEG,001,103213,
AFNE01.JPG,AFNE01.JPG,AFNE01.JPG,AFNE01.JPG,AFNE01.JPG,AFNE01.JPG,4,2,42,9,,,,,,,,,,,,,,,,,,,,,,,AFNE04.jpg,AFSA06.jpg,AFNE13.jpg,AFSA18.jpg,AFNE13.jpg,FN,3,num_2,32,num_6,0.683171568671,,,2018_Mar_01_1703,60.0014432867,FEMA4ImagesEEG,001,103213,
AFNE01.JPG,AFNE01.JPG,AFNE01.JPG,AFNE01.JPG,AFNE01.JPG,AFNE01.JPG,4,3,43,1,,,,,,,,,,,,,,,,,,,,,,,AFSA02.jpg,AFNE14.jpg,AFSA16.jpg,AFNE10.jpg,AFNE14.jpg,FN,3,num_6,16,num_6,0.733484273078,,,2018_Mar_01_1703,60.0014432867,FEMA4ImagesEEG,001,103213,
AFNE01.JPG,AFNE01.JPG,AFNE01.JPG,AFNE01.JPG,AFNE01.JPG,AFNE01.JPG,4,4,44,7,,,,,,,,,,,,,,,,,,,,,,,AFNE19.jpg,AFSA01.jpg,AFNE11.jpg,AFSA04.jpg,AFNE19.jpg,FN,3,num_8,16,num_8,0.883427133551,,,2018_Mar_01_1703,60.0014432867,FEMA4ImagesEEG,001,103213,
AFNE01.JPG,AFNE01.JPG,AFNE01.JPG,AFNE01.JPG,AFNE01.JPG,AFNE01.JPG,4,5,45,2,,,,,,,,,,,,,,,,,,,,,,,AFSA19.jpg,AFNE08.jpg,AFSA05.jpg,AFNE05.jpg,AFSA05.jpg,FS,4,num_2,16,num_2,1.30004031677,,,2018_Mar_01_1703,60.0014432867,FEMA4ImagesEEG,001,103213,
AFNE01.JPG,AFNE01.JPG,AFNE01.JPG,AFNE01.JPG,AFNE01.JPG,AFNE01.JPG,4,6,46,4,,,,,,,,,,,,,,,,,,,,,,,AFSA18.jpg,AFSA15.jpg,AFNE19.jpg,AFNE16.jpg,AFNE16.jpg,FN,3,num_4,32,num_6,1.18346071476,,,2018_Mar_01_1703,60.0014432867,FEMA4ImagesEEG,001,103213,
AFNE01.JPG,AFNE01.JPG,AFNE01.JPG,AFNE01.JPG,AFNE01.JPG,AFNE01.JPG,4,7,47,3,,,,,,,,,,,,,,,,,,,,,,,AFSA04.jpg,AFSA20.jpg,AFNE06.jpg,AFNE13.jpg,AFSA04.jpg,FS,4,num_8,32,num_4,1.26680727862,,,2018_Mar_01_1703,60.0014432867,FEMA4ImagesEEG,001,103213,
AFNE01.JPG,AFNE01.JPG,AFNE01.JPG,AFNE01.JPG,AFNE01.JPG,AFNE01.JPG,4,8,48,5,,,,,,,,,,,,,,,,,,,,,,,AFSA08.jpg,AFNE19.jpg,AFNE06.jpg,AFSA06.jpg,AFSA08.jpg,FS,4,num_8,16,num_8,0.950159423286,,,2018_Mar_01_1703,60.0014432867,FEMA4ImagesEEG,001,103213,
AFNE01.JPG,AFNE01.JPG,AFNE01.JPG,AFNE01.JPG,AFNE01.JPG,AFNE01.JPG,4,9,49,8,,,,,,,,,,,,,,,,,,,,,,,AFNE01.jpg,AFSA02.jpg,AFSA20.jpg,AFNE06.jpg,AFNE06.jpg,FN,3,num_4,16,num_4,1.18335647462,,,2018_Mar_01_1703,60.0014432867,FEMA4ImagesEEG,001,103213,
AFNE01.JPG,AFNE01.JPG,AFNE01.JPG,AFNE01.JPG,AFNE01.JPG,AFNE01.JPG,5,0,50,5,,,,,,,,,,,,,,,,,,,,,,,AFSA01.jpg,AFNE20.jpg,AFNE04.jpg,AFSA08.jpg,AFNE20.jpg,FN,3,num_6,16,num_6,1.26678931713,,,2018_Mar_01_1703,60.0014432867,FEMA4ImagesEEG,001,103213,
AFNE01.JPG,AFNE01.JPG,AFNE01.JPG,AFNE01.JPG,AFNE01.JPG,AFNE01.JPG,5,1,51,9,,,,,,,,,,,,,,,,,,,,,,,AFNE04.jpg,AFSA08.jpg,AFNE05.jpg,AFSA15.jpg,AFNE04.jpg,FN,3,num_8,32,num_4,1.28343791026,,,2018_Mar_01_1703,60.0014432867,FEMA4ImagesEEG,001,103213,
AFNE01.JPG,AFNE01.JPG,AFNE01.JPG,AFNE01.JPG,AFNE01.JPG,AFNE01.JPG,5,2,52,3,,,,,,,,,,,,,,,,,,,,,,,AFSA10.jpg,AFNE01.jpg,AFNE09.jpg,AFSA06.jpg,AFSA06.jpg,FS,4,num_4,32,num_6,1.16672552237,,,2018_Mar_01_1703,60.0014432867,FEMA4ImagesEEG,001,103213,
AFNE01.JPG,AFNE01.JPG,AFNE01.JPG,AFNE01.JPG,AFNE01.JPG,AFNE01.JPG,5,3,53,8,,,,,,,,,,,,,,,,,,,,,,,AFNE01.jpg,AFSA05.jpg,AFNE13.jpg,AFSA12.jpg,AFNE01.jpg,FN,3,num_8,32,num_6,1.06669893302,,,2018_Mar_01_1703,60.0014432867,FEMA4ImagesEEG,001,103213,
AFNE01.JPG,AFNE01.JPG,AFNE01.JPG,AFNE01.JPG,AFNE01.JPG,AFNE01.JPG,5,4,54,1,,,,,,,,,,,,,,,,,,,,,,,AFSA01.jpg,AFSA13.jpg,AFNE04.jpg,AFNE02.jpg,AFNE04.jpg,FN,3,num_2,32,num_8,1.28341321344,,,2018_Mar_01_1703,60.0014432867,FEMA4ImagesEEG,001,103213,
AFNE01.JPG,AFNE01.JPG,AFNE01.JPG,AFNE01.JPG,AFNE01.JPG,AFNE01.JPG,5,5,55,4,,,,,,,,,,,,,,,,,,,,,,,AFNE16.jpg,AFSA11.jpg,AFNE03.jpg,AFSA20.jpg,AFNE16.jpg,FN,3,num_8,32,num_2,1.3667552867,,,2018_Mar_01_1703,60.0014432867,FEMA4ImagesEEG,001,103213,
AFNE01.JPG,AFNE01.JPG,AFNE01.JPG,AFNE01.JPG,AFNE01.JPG,AFNE01.JPG,5,6,56,2,,,,,,,,,,,,,,,,,,,,,,,AFNE04.jpg,AFSA15.jpg,AFNE14.jpg,AFSA17.jpg,AFNE04.jpg,FN,3,num_8,16,num_8,1.31674568076,,,2018_Mar_01_1703,60.0014432867,FEMA4ImagesEEG,001,103213,
AFNE01.JPG,AFNE01.JPG,AFNE01.JPG,AFNE01.JPG,AFNE01.JPG,AFNE01.JPG,5,7,57,7,,,,,,,,,,,,,,,,,,,,,,,AFSA07.jpg,AFSA05.jpg,AFNE04.jpg,AFNE13.jpg,AFSA05.jpg,FS,4,num_6,16,num_6,1.18360376428,,,2018_Mar_01_1703,60.0014432867,FEMA4ImagesEEG,001,103213,
AFNE01.JPG,AFNE01.JPG,AFNE01.JPG,AFNE01.JPG,AFNE01.JPG,AFNE01.JPG,5,8,58,0,,,,,,,,,,,,,,,,,,,,,,,AFSA03.jpg,AFNE13.jpg,AFSA13.jpg,AFNE03.jpg,AFSA13.jpg,FS,4,num_2,16,num_2,2.78331939736,,,2018_Mar_01_1703,60.0014432867,FEMA4ImagesEEG,001,103213,
AFNE01.JPG,AFNE01.JPG,AFNE01.JPG,AFNE01.JPG,AFNE01.JPG,AFNE01.JPG,5,9,59,6,,,,,,,,,,,,,,,,,,,,,,,AFSA13.jpg,AFNE05.jpg,AFSA16.jpg,AFNE12.jpg,AFNE05.jpg,FN,3,num_6,32,num_2,1.36673636339,,,2018_Mar_01_1703,60.0014432867,FEMA4ImagesEEG,001,103213,
,,,,,,,,,,,,,,,,,,,,,,,,,,,,,,,,,,,,,,,,,,,space,23.7646520736,2018_Mar_01_1703,60.0014432867,FEMA4ImagesEEG,001,103213,
AFNE01.JPG,AFNE01.JPG,AFNE01.JPG,AFNE01.JPG,AFNE01.JPG,AFNE01.JPG,,,,,0,0,0,5,,,,,,,,,,,,,,,,,,,AMSA11.jpg,AMNE16.jpg,AMSA13.jpg,AMNE14.jpg,AMNE16.jpg,MN,1,num_6,32,num_2,0.916835295269,,,2018_Mar_01_1703,60.0014432867,FEMA4ImagesEEG,001,103213,
AFNE01.JPG,AFNE01.JPG,AFNE01.JPG,AFNE01.JPG,AFNE01.JPG,AFNE01.JPG,,,,,0,1,1,2,,,,,,,,,,,,,,,,,,,AMNE18.jpg,AMSA19.jpg,AMNE09.jpg,AMSA07.jpg,AMSA19.jpg,MS,2,num_6,16,num_6,0.883425208973,,,2018_Mar_01_1703,60.0014432867,FEMA4ImagesEEG,001,103213,
AFNE01.JPG,AFNE01.JPG,AFNE01.JPG,AFNE01.JPG,AFNE01.JPG,AFNE01.JPG,,,,,0,2,2,9,,,,,,,,,,,,,,,,,,,AMNE16.jpg,AMSA11.jpg,AMSA01.jpg,AMNE04.jpg,AMNE04.jpg,MN,1,num_4,16,num_4,0.816788499476,,,2018_Mar_01_1703,60.0014432867,FEMA4ImagesEEG,001,103213,
AFNE01.JPG,AFNE01.JPG,AFNE01.JPG,AFNE01.JPG,AFNE01.JPG,AFNE01.JPG,,,,,0,3,3,4,,,,,,,,,,,,,,,,,,,AMSA17.jpg,AMSA07.jpg,AMNE04.jpg,AMNE09.jpg,AMNE04.jpg,MN,1,num_2,16,num_2,1.21674539219,,,2018_Mar_01_1703,60.0014432867,FEMA4ImagesEEG,001,103213,
AFNE01.JPG,AFNE01.JPG,AFNE01.JPG,AFNE01.JPG,AFNE01.JPG,AFNE01.JPG,,,,,0,4,4,7,,,,,,,,,,,,,,,,,,,AMSA05.jpg,AMNE06.jpg,AMSA09.jpg,AMNE08.jpg,AMSA09.jpg,MS,2,num_2,16,num_2,1.15018501808,,,2018_Mar_01_1703,60.0014432867,FEMA4ImagesEEG,001,103213,
AFNE01.JPG,AFNE01.JPG,AFNE01.JPG,AFNE01.JPG,AFNE01.JPG,AFNE01.JPG,,,,,0,5,5,3,,,,,,,,,,,,,,,,,,,AMNE10.jpg,AMNE03.jpg,AMSA03.jpg,AMSA16.jpg,AMSA16.jpg,MS,2,num_4,32,num_2,1.16674637026,,,2018_Mar_01_1703,60.0014432867,FEMA4ImagesEEG,001,103213,
AFNE01.JPG,AFNE01.JPG,AFNE01.JPG,AFNE01.JPG,AFNE01.JPG,AFNE01.JPG,,,,,0,6,6,1,,,,,,,,,,,,,,,,,,,AMSA18.jpg,AMNE16.jpg,AMNE10.jpg,AMSA20.jpg,AMNE10.jpg,MN,1,num_2,32,num_4,0.850198264699,,,2018_Mar_01_1703,60.0014432867,FEMA4ImagesEEG,001,103213,
AFNE01.JPG,AFNE01.JPG,AFNE01.JPG,AFNE01.JPG,AFNE01.JPG,AFNE01.JPG,,,,,0,7,7,6,,,,,,,,,,,,,,,,,,,AMSA10.jpg,AMSA13.jpg,AMNE16.jpg,AMNE06.jpg,AMSA10.jpg,MS,2,num_8,32,num_4,1.33342378167,,,2018_Mar_01_1703,60.0014432867,FEMA4ImagesEEG,001,103213,
AFNE01.JPG,AFNE01.JPG,AFNE01.JPG,AFNE01.JPG,AFNE01.JPG,AFNE01.JPG,,,,,0,8,8,0,,,,,,,,,,,,,,,,,,,AMNE19.jpg,AMNE09.jpg,AMSA18.jpg,AMSA13.jpg,AMSA18.jpg,MS,2,num_2,32,num_8,1.1834453193,,,2018_Mar_01_1703,60.0014432867,FEMA4ImagesEEG,001,103213,
AFNE01.JPG,AFNE01.JPG,AFNE01.JPG,AFNE01.JPG,AFNE01.JPG,AFNE01.JPG,,,,,0,9,9,8,,,,,,,,,,,,,,,,,,,AMNE04.jpg,AMSA14.jpg,AMSA09.jpg,AMNE11.jpg,AMSA09.jpg,MS,2,num_2,16,num_2,0.833464034367,,,2018_Mar_01_1703,60.0014432867,FEMA4ImagesEEG,001,103213,
AFNE01.JPG,AFNE01.JPG,AFNE01.JPG,AFNE01.JPG,AFNE01.JPG,AFNE01.JPG,,,,,1,0,10,9,,,,,,,,,,,,,,,,,,,AMNE01.jpg,AMSA10.jpg,AMSA14.jpg,AMNE18.jpg,AMNE18.jpg,MN,1,num_4,16,num_4,0.933444437338,,,2018_Mar_01_1703,60.0014432867,FEMA4ImagesEEG,001,103213,
AFNE01.JPG,AFNE01.JPG,AFNE01.JPG,AFNE01.JPG,AFNE01.JPG,AFNE01.JPG,,,,,1,1,11,1,,,,,,,,,,,,,,,,,,,AMNE02.jpg,AMSA13.jpg,AMSA06.jpg,AMNE05.jpg,AMSA06.jpg,MS,2,num_2,32,num_8,1.38340837019,,,2018_Mar_01_1703,60.0014432867,FEMA4ImagesEEG,001,103213,
AFNE01.JPG,AFNE01.JPG,AFNE01.JPG,AFNE01.JPG,AFNE01.JPG,AFNE01.JPG,,,,,1,2,12,8,,,,,,,,,,,,,,,,,,,AMNE10.jpg,AMSA20.jpg,AMNE03.jpg,AMSA05.jpg,AMSA20.jpg,MS,2,num_6,32,num_2,1.31699168729,,,2018_Mar_01_1703,60.0014432867,FEMA4ImagesEEG,001,103213,
AFNE01.JPG,AFNE01.JPG,AFNE01.JPG,AFNE01.JPG,AFNE01.JPG,AFNE01.JPG,,,,,1,3,13,2,,,,,,,,,,,,,,,,,,,AMSA13.jpg,AMNE03.jpg,AMNE18.jpg,AMSA05.jpg,AMNE18.jpg,MN,1,num_2,32,num_6,1.30005410872,,,2018_Mar_01_1703,60.0014432867,FEMA4ImagesEEG,001,103213,
AFNE01.JPG,AFNE01.JPG,AFNE01.JPG,AFNE01.JPG,AFNE01.JPG,AFNE01.JPG,,,,,1,4,14,5,,,,,,,,,,,,,,,,,,,AMNE03.jpg,AMSA07.jpg,AMNE05.jpg,AMSA20.jpg,AMNE05.jpg,MN,1,num_2,16,num_2,1.18328110082,,,2018_Mar_01_1703,60.0014432867,FEMA4ImagesEEG,001,103213,
AFNE01.JPG,AFNE01.JPG,AFNE01.JPG,AFNE01.JPG,AFNE01.JPG,AFNE01.JPG,,,,,1,5,15,7,,,,,,,,,,,,,,,,,,,AMSA03.jpg,AMNE04.jpg,AMNE20.jpg,AMSA07.jpg,AMSA03.jpg,MS,2,num_8,16,num_8,0.933497359278,,,2018_Mar_01_1703,60.0014432867,FEMA4ImagesEEG,001,103213,
AFNE01.JPG,AFNE01.JPG,AFNE01.JPG,AFNE01.JPG,AFNE01.JPG,AFNE01.JPG,,,,,1,6,16,3,,,,,,,,,,,,,,,,,,,AMNE20.jpg,AMNE03.jpg,AMSA14.jpg,AMSA15.jpg,AMNE20.jpg,MN,1,num_8,32,num_6,1.10010067979,,,2018_Mar_01_1703,60.0014432867,FEMA4ImagesEEG,001,103213,
AFNE01.JPG,AFNE01.JPG,AFNE01.JPG,AFNE01.JPG,AFNE01.JPG,AFNE01.JPG,,,,,1,7,17,0,,,,,,,,,,,,,,,,,,,AMNE13.jpg,AMSA19.jpg,AMNE14.jpg,AMSA09.jpg,AMSA09.jpg,MS,2,num_4,32,num_2,1.08355183667,,,2018_Mar_01_1703,60.0014432867,FEMA4ImagesEEG,001,103213,
AFNE01.JPG,AFNE01.JPG,AFNE01.JPG,AFNE01.JPG,AFNE01.JPG,AFNE01.JPG,,,,,1,8,18,4,,,,,,,,,,,,,,,,,,,AMNE18.jpg,AMSA02.jpg,AMNE07.jpg,AMSA01.jpg,AMSA02.jpg,MS,2,num_6,32,num_4,1.03344055638,,,2018_Mar_01_1703,60.0014432867,FEMA4ImagesEEG,001,103213,
AFNE01.JPG,AFNE01.JPG,AFNE01.JPG,AFNE01.JPG,AFNE01.JPG,AFNE01.JPG,,,,,1,9,19,6,,,,,,,,,,,,,,,,,,,AMSA13.jpg,AMNE14.jpg,AMNE11.jpg,AMSA14.jpg,AMNE11.jpg,MN,1,num_2,16,num_2,1.35006563924,,,2018_Mar_01_1703,60.0014432867,FEMA4ImagesEEG,001,103213,
AFNE01.JPG,AFNE01.JPG,AFNE01.JPG,AFNE01.JPG,AFNE01.JPG,AFNE01.JPG,,,,,2,0,20,2,,,,,,,,,,,,,,,,,,,AMSA10.jpg,AMNE19.jpg,AMSA08.jpg,AMNE10.jpg,AMSA10.jpg,MS,2,num_8,16,num_8,1.16678485903,,,2018_Mar_01_1703,60.0014432867,FEMA4ImagesEEG,001,103213,
AFNE01.JPG,AFNE01.JPG,AFNE01.JPG,AFNE01.JPG,AFNE01.JPG,AFNE01.JPG,,,,,2,1,21,8,,,,,,,,,,,,,,,,,,,AMNE16.jpg,AMSA16.jpg,AMSA05.jpg,AMNE12.jpg,AMNE12.jpg,MN,1,num_4,16,num_4,1.18347065779,,,2018_Mar_01_1703,60.0014432867,FEMA4ImagesEEG,001,103213,
AFNE01.JPG,AFNE01.JPG,AFNE01.JPG,AFNE01.JPG,AFNE01.JPG,AFNE01.JPG,,,,,2,2,22,3,,,,,,,,,,,,,,,,,,,AMNE20.jpg,AMSA09.jpg,AMSA01.jpg,AMNE15.jpg,AMNE15.jpg,MN,1,num_4,16,num_4,1.08371797926,,,2018_Mar_01_1703,60.0014432867,FEMA4ImagesEEG,001,103213,
AFNE01.JPG,AFNE01.JPG,AFNE01.JPG,AFNE01.JPG,AFNE01.JPG,AFNE01.JPG,,,,,2,3,23,5,,,,,,,,,,,,,,,,,,,AMSA02.jpg,AMNE05.jpg,AMNE15.jpg,AMSA15.jpg,AMSA02.jpg,MS,2,num_8,32,num_4,1.36676009791,,,2018_Mar_01_1703,60.0014432867,FEMA4ImagesEEG,001,103213,
AFNE01.JPG,AFNE01.JPG,AFNE01.JPG,AFNE01.JPG,AFNE01.JPG,AFNE01.JPG,,,,,2,4,24,4,,,,,,,,,,,,,,,,,,,AMSA07.jpg,AMSA15.jpg,AMNE07.jpg,AMNE19.jpg,AMSA07.jpg,MS,2,num_8,32,num_6,1.50014000246,,,2018_Mar_01_1703,60.0014432867,FEMA4ImagesEEG,001,103213,
AFNE01.JPG,AFNE01.JPG,AFNE01.JPG,AFNE01.JPG,AFNE01.JPG,AFNE01.JPG,,,,,2,5,25,1,,,,,,,,,,,,,,,,,,,AMNE04.jpg,AMSA14.jpg,AMSA17.jpg,AMNE18.jpg,AMSA17.jpg,MS,2,num_2,32,num_8,1.40010379115,,,2018_Mar_01_1703,60.0014432867,FEMA4ImagesEEG,001,103213,
AFNE01.JPG,AFNE01.JPG,AFNE01.JPG,AFNE01.JPG,AFNE01.JPG,AFNE01.JPG,,,,,2,6,26,6,,,,,,,,,,,,,,,,,,,AMNE04.jpg,AMNE01.jpg,AMSA10.jpg,AMSA12.jpg,AMNE04.jpg,MN,1,num_8,32,num_2,1.5167379186,,,2018_Mar_01_1703,60.0014432867,FEMA4ImagesEEG,001,103213,
AFNE01.JPG,AFNE01.JPG,AFNE01.JPG,AFNE01.JPG,AFNE01.JPG,AFNE01.JPG,,,,,2,7,27,9,,,,,,,,,,,,,,,,,,,AMNE09.jpg,AMSA01.jpg,AMNE17.jpg,AMSA05.jpg,AMNE17.jpg,MN,1,num_2,16,num_2,1.46671676612,,,2018_Mar_01_1703,60.0014432867,FEMA4ImagesEEG,001,103213,
AFNE01.JPG,AFNE01.JPG,AFNE01.JPG,AFNE01.JPG,AFNE01.JPG,AFNE01.JPG,,,,,2,8,28,7,,,,,,,,,,,,,,,,,,,AMNE17.jpg,AMNE08.jpg,AMSA07.jpg,AMSA05.jpg,AMSA07.jpg,MS,2,num_2,16,num_2,2.03345947992,,,2018_Mar_01_1703,60.0014432867,FEMA4ImagesEEG,001,103213,
AFNE01.JPG,AFNE01.JPG,AFNE01.JPG,AFNE01.JPG,AFNE01.JPG,AFNE01.JPG,,,,,2,9,29,0,,,,,,,,,,,,,,,,,,,AMNE13.jpg,AMNE06.jpg,AMSA07.jpg,AMSA11.jpg,AMNE13.jpg,MN,1,num_8,32,num_6,1.08347389707,,,2018_Mar_01_1703,60.0014432867,FEMA4ImagesEEG,001,103213,
AFNE01.JPG,AFNE01.JPG,AFNE01.JPG,AFNE01.JPG,AFNE01.JPG,AFNE01.JPG,,,,,3,0,30,6,,,,,,,,,,,,,,,,,,,AMSA16.jpg,AMNE20.jpg,AMSA02.jpg,AMNE17.jpg,AMSA16.jpg,MS,2,num_8,32,num_6,1.3335046079,,,2018_Mar_01_1703,60.0014432867,FEMA4ImagesEEG,001,103213,
AFNE01.JPG,AFNE01.JPG,AFNE01.JPG,AFNE01.JPG,AFNE01.JPG,AFNE01.JPG,,,,,3,1,31,1,,,,,,,,,,,,,,,,,,,AMNE01.jpg,AMNE08.jpg,AMSA17.jpg,AMSA18.jpg,AMSA17.jpg,MS,2,num_2,16,num_2,1.03344408446,,,2018_Mar_01_1703,60.0014432867,FEMA4ImagesEEG,001,103213,
AFNE01.JPG,AFNE01.JPG,AFNE01.JPG,AFNE01.JPG,AFNE01.JPG,AFNE01.JPG,,,,,3,2,32,2,,,,,,,,,,,,,,,,,,,AMNE07.jpg,AMSA06.jpg,AMNE06.jpg,AMSA09.jpg,AMNE07.jpg,MN,1,num_8,16,num_8,1.15010804101,,,2018_Mar_01_1703,60.0014432867,FEMA4ImagesEEG,001,103213,
AFNE01.JPG,AFNE01.JPG,AFNE01.JPG,AFNE01.JPG,AFNE01.JPG,AFNE01.JPG,,,,,3,3,33,0,,,,,,,,,,,,,,,,,,,AMSA16.jpg,AMSA10.jpg,AMNE08.jpg,AMNE01.jpg,AMSA10.jpg,MS,2,num_6,32,num_8,1.41665712488,,,2018_Mar_01_1703,60.0014432867,FEMA4ImagesEEG,001,103213,
AFNE01.JPG,AFNE01.JPG,AFNE01.JPG,AFNE01.JPG,AFNE01.JPG,AFNE01.JPG,,,,,3,4,34,8,,,,,,,,,,,,,,,,,,,AMSA01.jpg,AMSA07.jpg,AMNE02.jpg,AMNE20.jpg,AMNE20.jpg,MN,1,num_4,16,num_4,0.500112739624,,,2018_Mar_01_1703,60.0014432867,FEMA4ImagesEEG,001,103213,
AFNE01.JPG,AFNE01.JPG,AFNE01.JPG,AFNE01.JPG,AFNE01.JPG,AFNE01.JPG,,,,,3,5,35,9,,,,,,,,,,,,,,,,,,,AMSA17.jpg,AMNE05.jpg,AMSA02.jpg,AMNE04.jpg,AMSA02.jpg,MS,2,num_2,32,num_4,0.916756393388,,,2018_Mar_01_1703,60.0014432867,FEMA4ImagesEEG,001,103213,
AFNE01.JPG,AFNE01.JPG,AFNE01.JPG,AFNE01.JPG,AFNE01.JPG,AFNE01.JPG,,,,,3,6,36,3,,,,,,,,,,,,,,,,,,,AMSA06.jpg,AMSA15.jpg,AMNE09.jpg,AMNE16.jpg,AMSA06.jpg,MS,2,num_8,16,num_8,1.43342631566,,,2018_Mar_01_1703,60.0014432867,FEMA4ImagesEEG,001,103213,
AFNE01.JPG,AFNE01.JPG,AFNE01.JPG,AFNE01.JPG,AFNE01.JPG,AFNE01.JPG,,,,,3,7,37,4,,,,,,,,,,,,,,,,,,,AMSA11.jpg,AMNE10.jpg,AMNE07.jpg,AMSA16.jpg,AMNE07.jpg,MN,1,num_2,16,num_2,0.800163961714,,,2018_Mar_01_1703,60.0014432867,FEMA4ImagesEEG,001,103213,
AFNE01.JPG,AFNE01.JPG,AFNE01.JPG,AFNE01.JPG,AFNE01.JPG,AFNE01.JPG,,,,,3,8,38,7,,,,,,,,,,,,,,,,,,,AMSA09.jpg,AMNE01.jpg,AMNE19.jpg,AMSA15.jpg,AMNE19.jpg,MN,1,num_2,32,num_8,0.983526209602,,,2018_Mar_01_1703,60.0014432867,FEMA4ImagesEEG,001,103213,
AFNE01.JPG,AFNE01.JPG,AFNE01.JPG,AFNE01.JPG,AFNE01.JPG,AFNE01.JPG,,,,,3,9,39,5,,,,,,,,,,,,,,,,,,,AMSA07.jpg,AMSA01.jpg,AMNE20.jpg,AMNE10.jpg,AMSA01.jpg,MS,2,num_6,16,num_6,1.2167688061,,,2018_Mar_01_1703,60.0014432867,FEMA4ImagesEEG,001,103213,
AFNE01.JPG,AFNE01.JPG,AFNE01.JPG,AFNE01.JPG,AFNE01.JPG,AFNE01.JPG,,,,,4,0,40,7,,,,,,,,,,,,,,,,,,,AMSA10.jpg,AMNE19.jpg,AMNE11.jpg,AMSA06.jpg,AMNE11.jpg,MN,1,num_2,16,num_2,1.00010648533,,,2018_Mar_01_1703,60.0014432867,FEMA4ImagesEEG,001,103213,
AFNE01.JPG,AFNE01.JPG,AFNE01.JPG,AFNE01.JPG,AFNE01.JPG,AFNE01.JPG,,,,,4,1,41,0,,,,,,,,,,,,,,,,,,,AMSA09.jpg,AMSA14.jpg,AMNE08.jpg,AMNE01.jpg,AMNE08.jpg,MN,1,num_2,32,num_8,1.28345523006,,,2018_Mar_01_1703,60.0014432867,FEMA4ImagesEEG,001,103213,
AFNE01.JPG,AFNE01.JPG,AFNE01.JPG,AFNE01.JPG,AFNE01.JPG,AFNE01.JPG,,,,,4,2,42,8,,,,,,,,,,,,,,,,,,,AMNE07.jpg,AMSA01.jpg,AMSA10.jpg,AMNE01.jpg,AMSA10.jpg,MS,2,num_2,32,num_8,1.38342857664,,,2018_Mar_01_1703,60.0014432867,FEMA4ImagesEEG,001,103213,
AFNE01.JPG,AFNE01.JPG,AFNE01.JPG,AFNE01.JPG,AFNE01.JPG,AFNE01.JPG,,,,,4,3,43,6,,,,,,,,,,,,,,,,,,,AMSA12.jpg,AMNE09.jpg,AMNE19.jpg,AMSA10.jpg,AMSA12.jpg,MS,2,num_8,32,num_6,1.50030422071,,,2018_Mar_01_1703,60.0014432867,FEMA4ImagesEEG,001,103213,
AFNE01.JPG,AFNE01.JPG,AFNE01.JPG,AFNE01.JPG,AFNE01.JPG,AFNE01.JPG,,,,,4,4,44,2,,,,,,,,,,,,,,,,,,,AMNE16.jpg,AMNE01.jpg,AMSA06.jpg,AMSA19.jpg,AMNE01.jpg,MN,1,num_6,32,num_2,1.30023500556,,,2018_Mar_01_1703,60.0014432867,FEMA4ImagesEEG,001,103213,
AFNE01.JPG,AFNE01.JPG,AFNE01.JPG,AFNE01.JPG,AFNE01.JPG,AFNE01.JPG,,,,,4,5,45,9,,,,,,,,,,,,,,,,,,,AMSA09.jpg,AMNE06.jpg,AMSA05.jpg,AMNE03.jpg,AMSA09.jpg,MS,2,num_8,32,num_2,1.4833772264,,,2018_Mar_01_1703,60.0014432867,FEMA4ImagesEEG,001,103213,
AFNE01.JPG,AFNE01.JPG,AFNE01.JPG,AFNE01.JPG,AFNE01.JPG,AFNE01.JPG,,,,,4,6,46,3,,,,,,,,,,,,,,,,,,,AMSA04.jpg,AMNE04.jpg,AMSA12.jpg,AMNE17.jpg,AMSA12.jpg,MS,2,num_2,16,num_2,1.25007497263,,,2018_Mar_01_1703,60.0014432867,FEMA4ImagesEEG,001,103213,
AFNE01.JPG,AFNE01.JPG,AFNE01.JPG,AFNE01.JPG,AFNE01.JPG,AFNE01.JPG,,,,,4,7,47,5,,,,,,,,,,,,,,,,,,,AMSA11.jpg,AMNE16.jpg,AMNE06.jpg,AMSA19.jpg,AMNE06.jpg,MN,1,num_2,32,num_6,1.10013050865,,,2018_Mar_01_1703,60.0014432867,FEMA4ImagesEEG,001,103213,
AFNE01.JPG,AFNE01.JPG,AFNE01.JPG,AFNE01.JPG,AFNE01.JPG,AFNE01.JPG,,,,,4,8,48,1,,,,,,,,,,,,,,,,,,,AMSA20.jpg,AMSA04.jpg,AMNE20.jpg,AMNE01.jpg,AMNE20.jpg,MN,1,num_2,16,num_2,0.900136987446,,,2018_Mar_01_1703,60.0014432867,FEMA4ImagesEEG,001,103213,
AFNE01.JPG,AFNE01.JPG,AFNE01.JPG,AFNE01.JPG,AFNE01.JPG,AFNE01.JPG,,,,,4,9,49,4,,,,,,,,,,,,,,,,,,,AMSA20.jpg,AMNE06.jpg,AMNE07.jpg,AMSA12.jpg,AMNE07.jpg,MN,1,num_2,16,num_2,0.966575801373,,,2018_Mar_01_1703,60.0014432867,FEMA4ImagesEEG,001,103213,
AFNE01.JPG,AFNE01.JPG,AFNE01.JPG,AFNE01.JPG,AFNE01.JPG,AFNE01.JPG,,,,,5,0,50,6,,,,,,,,,,,,,,,,,,,AMSA08.jpg,AMSA01.jpg,AMNE12.jpg,AMNE11.jpg,AMNE11.jpg,MN,1,num_4,16,num_4,1.06673710095,,,2018_Mar_01_1703,60.0014432867,FEMA4ImagesEEG,001,103213,
AFNE01.JPG,AFNE01.JPG,AFNE01.JPG,AFNE01.JPG,AFNE01.JPG,AFNE01.JPG,,,,,5,1,51,0,,,,,,,,,,,,,,,,,,,AMSA16.jpg,AMNE18.jpg,AMSA08.jpg,AMNE14.jpg,AMNE18.jpg,MN,1,num_6,32,num_2,1.13321729004,,,2018_Mar_01_1703,60.0014432867,FEMA4ImagesEEG,001,103213,
AFNE01.JPG,AFNE01.JPG,AFNE01.JPG,AFNE01.JPG,AFNE01.JPG,AFNE01.JPG,,,,,5,2,52,3,,,,,,,,,,,,,,,,,,,AMSA11.jpg,AMNE15.jpg,AMSA20.jpg,AMNE09.jpg,AMNE15.jpg,MN,1,num_6,32,num_4,1.21682076575,,,2018_Mar_01_1703,60.0014432867,FEMA4ImagesEEG,001,103213,
AFNE01.JPG,AFNE01.JPG,AFNE01.JPG,AFNE01.JPG,AFNE01.JPG,AFNE01.JPG,,,,,5,3,53,4,,,,,,,,,,,,,,,,,,,AMSA07.jpg,AMSA15.jpg,AMNE11.jpg,AMNE14.jpg,AMSA15.jpg,MS,2,num_6,16,num_6,0.900134101044,,,2018_Mar_01_1703,60.0014432867,FEMA4ImagesEEG,001,103213,
AFNE01.JPG,AFNE01.JPG,AFNE01.JPG,AFNE01.JPG,AFNE01.JPG,AFNE01.JPG,,,,,5,4,54,2,,,,,,,,,,,,,,,,,,,AMSA14.jpg,AMNE05.jpg,AMNE15.jpg,AMSA18.jpg,AMNE15.jpg,MN,1,num_2,16,num_2,1.08344759652,,,2018_Mar_01_1703,60.0014432867,FEMA4ImagesEEG,001,103213,
AFNE01.JPG,AFNE01.JPG,AFNE01.JPG,AFNE01.JPG,AFNE01.JPG,AFNE01.JPG,,,,,5,5,55,7,,,,,,,,,,,,,,,,,,,AMSA10.jpg,AMNE05.jpg,AMSA09.jpg,AMNE13.jpg,AMNE13.jpg,MN,1,num_4,32,num_2,1.38342536939,,,2018_Mar_01_1703,60.0014432867,FEMA4ImagesEEG,001,103213,
AFNE01.JPG,AFNE01.JPG,AFNE01.JPG,AFNE01.JPG,AFNE01.JPG,AFNE01.JPG,,,,,5,6,56,8,,,,,,,,,,,,,,,,,,,AMSA10.jpg,AMSA07.jpg,AMNE16.jpg,AMNE20.jpg,AMNE20.jpg,MN,1,num_4,16,num_4,0.933369704988,,,2018_Mar_01_1703,60.0014432867,FEMA4ImagesEEG,001,103213,
AFNE01.JPG,AFNE01.JPG,AFNE01.JPG,AFNE01.JPG,AFNE01.JPG,AFNE01.JPG,,,,,5,7,57,1,,,,,,,,,,,,,,,,,,,AMSA03.jpg,AMNE07.jpg,AMNE12.jpg,AMSA10.jpg,AMNE12.jpg,MN,1,num_2,16,num_2,1.0501090351,,,2018_Mar_01_1703,60.0014432867,FEMA4ImagesEEG,001,103213,
AFNE01.JPG,AFNE01.JPG,AFNE01.JPG,AFNE01.JPG,AFNE01.JPG,AFNE01.JPG,,,,,5,8,58,9,,,,,,,,,,,,,,,,,,,AMSA18.jpg,AMSA17.jpg,AMNE04.jpg,AMNE07.jpg,AMSA18.jpg,MS,2,num_8,16,num_8,1.03342291573,,,2018_Mar_01_1703,60.0014432867,FEMA4ImagesEEG,001,103213,
AFNE01.JPG,AFNE01.JPG,AFNE01.JPG,AFNE01.JPG,AFNE01.JPG,AFNE01.JPG,,,,,5,9,59,5,,,,,,,,,,,,,,,,,,,AMNE13.jpg,AMNE16.jpg,AMSA08.jpg,AMSA03.jpg,AMNE16.jpg,MN,1,num_6,32,num_2,0.933509226423,,,2018_Mar_01_1703,60.0014432867,FEMA4ImagesEEG,001,103213,
,,,,,,,,,,,,,,,,,,,,,,,,,,,,,,,,,,,,,,,,,,,space,35.0638203016,2018_Mar_01_1703,60.0014432867,FEMA4ImagesEEG,001,103213,
AFNE01.JPG,AFNE01.JPG,AFNE01.JPG,AFNE01.JPG,AFNE01.JPG,AFNE01.JPG,,,,,,,,,0,0,0,5,,,,,,,,,,,,,,,AFNE12.jpg,AFSA10.jpg,AFNE15.jpg,AFSA07.jpg,AFSA10.jpg,FS,4,num_6,32,num_4,0.533508392749,,,2018_Mar_01_1703,60.0014432867,FEMA4ImagesEEG,001,103213,
AFNE01.JPG,AFNE01.JPG,AFNE01.JPG,AFNE01.JPG,AFNE01.JPG,AFNE01.JPG,,,,,,,,,0,1,1,0,,,,,,,,,,,,,,,AFNE16.jpg,AFNE01.jpg,AFSA04.jpg,AFSA17.jpg,AFNE16.jpg,FN,3,num_8,32,num_2,1.01673390972,,,2018_Mar_01_1703,60.0014432867,FEMA4ImagesEEG,001,103213,
AFNE01.JPG,AFNE01.JPG,AFNE01.JPG,AFNE01.JPG,AFNE01.JPG,AFNE01.JPG,,,,,,,,,0,2,2,6,,,,,,,,,,,,,,,AFSA18.jpg,AFNE16.jpg,AFSA10.jpg,AFNE03.jpg,AFNE16.jpg,FN,3,num_6,16,num_6,1.11670918064,,,2018_Mar_01_1703,60.0014432867,FEMA4ImagesEEG,001,103213,
AFNE01.JPG,AFNE01.JPG,AFNE01.JPG,AFNE01.JPG,AFNE01.JPG,AFNE01.JPG,,,,,,,,,0,3,3,1,,,,,,,,,,,,,,,AFNE05.jpg,AFSA13.jpg,AFNE02.jpg,AFSA12.jpg,AFSA12.jpg,FS,4,num_4,16,num_4,1.03332220367,,,2018_Mar_01_1703,60.0014432867,FEMA4ImagesEEG,001,103213,
AFNE01.JPG,AFNE01.JPG,AFNE01.JPG,AFNE01.JPG,AFNE01.JPG,AFNE01.JPG,,,,,,,,,0,4,4,9,,,,,,,,,,,,,,,AFNE12.jpg,AFSA19.jpg,AFNE18.jpg,AFSA09.jpg,AFSA19.jpg,FS,4,num_6,32,num_2,1.01687214803,,,2018_Mar_01_1703,60.0014432867,FEMA4ImagesEEG,001,103213,
AFNE01.JPG,AFNE01.JPG,AFNE01.JPG,AFNE01.JPG,AFNE01.JPG,AFNE01.JPG,,,,,,,,,0,5,5,2,,,,,,,,,,,,,,,AFSA04.jpg,AFNE18.jpg,AFNE13.jpg,AFSA14.jpg,AFSA04.jpg,FS,4,num_8,32,num_6,1.18349856208,,,2018_Mar_01_1703,60.0014432867,FEMA4ImagesEEG,001,103213,
AFNE01.JPG,AFNE01.JPG,AFNE01.JPG,AFNE01.JPG,AFNE01.JPG,AFNE01.JPG,,,,,,,,,0,6,6,7,,,,,,,,,,,,,,,AFSA20.jpg,AFNE14.jpg,AFNE11.jpg,AFSA05.jpg,AFNE14.jpg,FN,3,num_6,16,num_6,1.18347707251,,,2018_Mar_01_1703,60.0014432867,FEMA4ImagesEEG,001,103213,
AFNE01.JPG,AFNE01.JPG,AFNE01.JPG,AFNE01.JPG,AFNE01.JPG,AFNE01.JPG,,,,,,,,,0,7,7,3,,,,,,,,,,,,,,,AFNE19.jpg,AFSA06.jpg,AFNE14.jpg,AFSA16.jpg,AFSA06.jpg,FS,4,num_6,32,num_8,1.56674816646,,,2018_Mar_01_1703,60.0014432867,FEMA4ImagesEEG,001,103213,
AFNE01.JPG,AFNE01.JPG,AFNE01.JPG,AFNE01.JPG,AFNE01.JPG,AFNE01.JPG,,,,,,,,,0,8,8,4,,,,,,,,,,,,,,,AFNE17.jpg,AFSA12.jpg,AFSA18.jpg,AFNE11.jpg,AFNE11.jpg,FN,3,num_4,16,num_4,1.05012571346,,,2018_Mar_01_1703,60.0014432867,FEMA4ImagesEEG,001,103213,
AFNE01.JPG,AFNE01.JPG,AFNE01.JPG,AFNE01.JPG,AFNE01.JPG,AFNE01.JPG,,,,,,,,,0,9,9,8,,,,,,,,,,,,,,,AFNE05.jpg,AFNE15.jpg,AFSA09.jpg,AFSA13.jpg,AFNE05.jpg,FN,3,num_8,32,num_2,0.883510204731,,,2018_Mar_01_1703,60.0014432867,FEMA4ImagesEEG,001,103213,
AFNE01.JPG,AFNE01.JPG,AFNE01.JPG,AFNE01.JPG,AFNE01.JPG,AFNE01.JPG,,,,,,,,,1,0,10,8,,,,,,,,,,,,,,,AFNE08.jpg,AFNE04.jpg,AFSA08.jpg,AFSA03.jpg,AFSA03.jpg,FS,4,num_4,32,num_2,1.03333888226,,,2018_Mar_01_1703,60.0014432867,FEMA4ImagesEEG,001,103213,
AFNE01.JPG,AFNE01.JPG,AFNE01.JPG,AFNE01.JPG,AFNE01.JPG,AFNE01.JPG,,,,,,,,,1,1,11,7,,,,,,,,,,,,,,,AFNE13.jpg,AFSA15.jpg,AFNE09.jpg,AFSA14.jpg,AFNE13.jpg,FN,3,num_8,32,num_4,1.06675987341,,,2018_Mar_01_1703,60.0014432867,FEMA4ImagesEEG,001,103213,
AFNE01.JPG,AFNE01.JPG,AFNE01.JPG,AFNE01.JPG,AFNE01.JPG,AFNE01.JPG,,,,,,,,,1,2,12,2,,,,,,,,,,,,,,,AFNE09.jpg,AFSA03.jpg,AFSA20.jpg,AFNE13.jpg,AFNE13.jpg,FN,3,num_4,32,num_6,1.2001025721,,,2018_Mar_01_1703,60.0014432867,FEMA4ImagesEEG,001,103213,
AFNE01.JPG,AFNE01.JPG,AFNE01.JPG,AFNE01.JPG,AFNE01.JPG,AFNE01.JPG,,,,,,,,,1,3,13,0,,,,,,,,,,,,,,,AFNE14.jpg,AFSA13.jpg,AFSA16.jpg,AFNE10.jpg,AFNE10.jpg,FN,3,num_4,16,num_4,1.43340835418,,,2018_Mar_01_1703,60.0014432867,FEMA4ImagesEEG,001,103213,
AFNE01.JPG,AFNE01.JPG,AFNE01.JPG,AFNE01.JPG,AFNE01.JPG,AFNE01.JPG,,,,,,,,,1,4,14,9,,,,,,,,,,,,,,,AFSA09.jpg,AFNE08.jpg,AFSA18.jpg,AFNE14.jpg,AFNE08.jpg,FN,3,num_6,16,num_6,0.93344379589,,,2018_Mar_01_1703,60.0014432867,FEMA4ImagesEEG,001,103213,
AFNE01.JPG,AFNE01.JPG,AFNE01.JPG,AFNE01.JPG,AFNE01.JPG,AFNE01.JPG,,,,,,,,,1,5,15,4,,,,,,,,,,,,,,,AFNE10.jpg,AFSA19.jpg,AFNE08.jpg,AFSA01.jpg,AFNE10.jpg,FN,3,num_8,16,num_8,1.11677268706,,,2018_Mar_01_1703,60.0014432867,FEMA4ImagesEEG,001,103213,
AFNE01.JPG,AFNE01.JPG,AFNE01.JPG,AFNE01.JPG,AFNE01.JPG,AFNE01.JPG,,,,,,,,,1,6,16,6,,,,,,,,,,,,,,,AFNE15.jpg,AFSA03.jpg,AFNE19.jpg,AFSA12.jpg,AFSA12.jpg,FS,4,num_4,16,num_4,1.03312366642,,,2018_Mar_01_1703,60.0014432867,FEMA4ImagesEEG,001,103213,
AFNE01.JPG,AFNE01.JPG,AFNE01.JPG,AFNE01.JPG,AFNE01.JPG,AFNE01.JPG,,,,,,,,,1,7,17,1,,,,,,,,,,,,,,,AFSA19.jpg,AFNE01.jpg,AFSA09.jpg,AFNE06.jpg,AFSA09.jpg,FS,4,num_2,16,num_2,1.13342320453,,,2018_Mar_01_1703,60.0014432867,FEMA4ImagesEEG,001,103213,
AFNE01.JPG,AFNE01.JPG,AFNE01.JPG,AFNE01.JPG,AFNE01.JPG,AFNE01.JPG,,,,,,,,,1,8,18,5,,,,,,,,,,,,,,,AFSA20.jpg,AFSA14.jpg,AFNE16.jpg,AFNE02.jpg,AFSA14.jpg,FS,4,num_6,16,num_6,1.08343572915,,,2018_Mar_01_1703,60.0014432867,FEMA4ImagesEEG,001,103213,
AFNE01.JPG,AFNE01.JPG,AFNE01.JPG,AFNE01.JPG,AFNE01.JPG,AFNE01.JPG,,,,,,,,,1,9,19,3,,,,,,,,,,,,,,,AFNE13.jpg,AFSA03.jpg,AFNE20.jpg,AFSA08.jpg,AFSA08.jpg,FS,4,num_4,16,num_4,1.18341420777,,,2018_Mar_01_1703,60.0014432867,FEMA4ImagesEEG,001,103213,
AFNE01.JPG,AFNE01.JPG,AFNE01.JPG,AFNE01.JPG,AFNE01.JPG,AFNE01.JPG,,,,,,,,,2,0,20,8,,,,,,,,,,,,,,,AFNE12.jpg,AFSA17.jpg,AFNE10.jpg,AFSA02.jpg,AFNE12.jpg,FN,3,num_8,16,num_8,1.85010589194,,,2018_Mar_01_1703,60.0014432867,FEMA4ImagesEEG,001,103213,
AFNE01.JPG,AFNE01.JPG,AFNE01.JPG,AFNE01.JPG,AFNE01.JPG,AFNE01.JPG,,,,,,,,,2,1,21,1,,,,,,,,,,,,,,,AFNE11.jpg,AFSA19.jpg,AFSA18.jpg,AFNE18.jpg,AFSA19.jpg,FS,4,num_6,32,num_4,1.00019533001,,,2018_Mar_01_1703,60.0014432867,FEMA4ImagesEEG,001,103213,
AFNE01.JPG,AFNE01.JPG,AFNE01.JPG,AFNE01.JPG,AFNE01.JPG,AFNE01.JPG,,,,,,,,,2,2,22,7,,,,,,,,,,,,,,,AFNE11.jpg,AFSA01.jpg,AFNE16.jpg,AFSA11.jpg,AFSA11.jpg,FS,4,num_4,32,num_2,1.38344236859,,,2018_Mar_01_1703,60.0014432867,FEMA4ImagesEEG,001,103213,
AFNE01.JPG,AFNE01.JPG,AFNE01.JPG,AFNE01.JPG,AFNE01.JPG,AFNE01.JPG,,,,,,,,,2,3,23,5,,,,,,,,,,,,,,,AFNE16.jpg,AFSA18.jpg,AFSA07.jpg,AFNE19.jpg,AFSA18.jpg,FS,4,num_6,16,num_6,0.783457635669,,,2018_Mar_01_1703,60.0014432867,FEMA4ImagesEEG,001,103213,
AFNE01.JPG,AFNE01.JPG,AFNE01.JPG,AFNE01.JPG,AFNE01.JPG,AFNE01.JPG,,,,,,,,,2,4,24,9,,,,,,,,,,,,,,,AFSA16.jpg,AFNE19.jpg,AFNE04.jpg,AFSA10.jpg,AFSA16.jpg,FS,4,num_8,32,num_2,0.866847499274,,,2018_Mar_01_1703,60.0014432867,FEMA4ImagesEEG,001,103213,
AFNE01.JPG,AFNE01.JPG,AFNE01.JPG,AFNE01.JPG,AFNE01.JPG,AFNE01.JPG,,,,,,,,,2,5,25,2,,,,,,,,,,,,,,,AFSA02.jpg,AFSA09.jpg,AFNE15.jpg,AFNE12.jpg,AFNE12.jpg,FN,3,num_4,32,num_8,1.15012536081,,,2018_Mar_01_1703,60.0014432867,FEMA4ImagesEEG,001,103213,
AFNE01.JPG,AFNE01.JPG,AFNE01.JPG,AFNE01.JPG,AFNE01.JPG,AFNE01.JPG,,,,,,,,,2,6,26,3,,,,,,,,,,,,,,,AFNE05.jpg,AFNE10.jpg,AFSA15.jpg,AFSA03.jpg,AFNE05.jpg,FN,3,num_8,16,num_8,0.516769992653,,,2018_Mar_01_1703,60.0014432867,FEMA4ImagesEEG,001,103213,
AFNE01.JPG,AFNE01.JPG,AFNE01.JPG,AFNE01.JPG,AFNE01.JPG,AFNE01.JPG,,,,,,,,,2,7,27,6,,,,,,,,,,,,,,,AFNE17.jpg,AFSA15.jpg,AFSA01.jpg,AFNE14.jpg,AFSA01.jpg,FS,4,num_2,16,num_2,1.58339579729,,,2018_Mar_01_1703,60.0014432867,FEMA4ImagesEEG,001,103213,
AFNE01.JPG,AFNE01.JPG,AFNE01.JPG,AFNE01.JPG,AFNE01.JPG,AFNE01.JPG,,,,,,,,,2,8,28,4,,,,,,,,,,,,,,,AFSA09.jpg,AFSA15.jpg,AFNE02.jpg,AFNE09.jpg,AFSA15.jpg,FS,4,num_6,16,num_6,0.849941673689,,,2018_Mar_01_1703,60.0014432867,FEMA4ImagesEEG,001,103213,
AFNE01.JPG,AFNE01.JPG,AFNE01.JPG,AFNE01.JPG,AFNE01.JPG,AFNE01.JPG,,,,,,,,,2,9,29,0,,,,,,,,,,,,,,,AFNE03.jpg,AFNE19.jpg,AFSA03.jpg,AFSA14.jpg,AFNE03.jpg,FN,3,num_8,32,num_2,1.00012925779,,,2018_Mar_01_1703,60.0014432867,FEMA4ImagesEEG,001,103213,
AFNE01.JPG,AFNE01.JPG,AFNE01.JPG,AFNE01.JPG,AFNE01.JPG,AFNE01.JPG,,,,,,,,,3,0,30,9,,,,,,,,,,,,,,,AFSA04.jpg,AFNE09.jpg,AFSA14.jpg,AFNE04.jpg,AFSA04.jpg,FS,4,num_8,16,num_8,1.15006826934,,,2018_Mar_01_1703,60.0014432867,FEMA4ImagesEEG,001,103213,
AFNE01.JPG,AFNE01.JPG,AFNE01.JPG,AFNE01.JPG,AFNE01.JPG,AFNE01.JPG,,,,,,,,,3,1,31,6,,,,,,,,,,,,,,,AFNE02.jpg,AFSA16.jpg,AFSA08.jpg,AFNE15.jpg,AFNE15.jpg,FN,3,num_4,16,num_4,1.00012893695,,,2018_Mar_01_1703,60.0014432867,FEMA4ImagesEEG,001,103213,
AFNE01.JPG,AFNE01.JPG,AFNE01.JPG,AFNE01.JPG,AFNE01.JPG,AFNE01.JPG,,,,,,,,,3,2,32,1,,,,,,,,,,,,,,,AFSA11.jpg,AFSA19.jpg,AFNE07.jpg,AFNE04.jpg,AFNE04.jpg,FN,3,num_4,32,num_6,1.08347165189,,,2018_Mar_01_1703,60.0014432867,FEMA4ImagesEEG,001,103213,
AFNE01.JPG,AFNE01.JPG,AFNE01.JPG,AFNE01.JPG,AFNE01.JPG,AFNE01.JPG,,,,,,,,,3,3,33,0,,,,,,,,,,,,,,,AFSA02.jpg,AFNE11.jpg,AFNE07.jpg,AFSA13.jpg,AFSA02.jpg,FS,4,num_8,16,num_8,1.10008335998,,,2018_Mar_01_1703,60.0014432867,FEMA4ImagesEEG,001,103213,
AFNE01.JPG,AFNE01.JPG,AFNE01.JPG,AFNE01.JPG,AFNE01.JPG,AFNE01.JPG,,,,,,,,,3,4,34,5,,,,,,,,,,,,,,,AFSA11.jpg,AFNE13.jpg,AFSA01.jpg,AFNE04.jpg,AFSA11.jpg,FS,4,num_8,32,num_2,0.800116492203,,,2018_Mar_01_1703,60.0014432867,FEMA4ImagesEEG,001,103213,
AFNE01.JPG,AFNE01.JPG,AFNE01.JPG,AFNE01.JPG,AFNE01.JPG,AFNE01.JPG,,,,,,,,,3,5,35,2,,,,,,,,,,,,,,,AFSA14.jpg,AFNE04.jpg,AFSA16.jpg,AFNE13.jpg,AFSA16.jpg,FS,4,num_2,32,num_8,1.23344594473,,,2018_Mar_01_1703,60.0014432867,FEMA4ImagesEEG,001,103213,
AFNE01.JPG,AFNE01.JPG,AFNE01.JPG,AFNE01.JPG,AFNE01.JPG,AFNE01.JPG,,,,,,,,,3,6,36,4,,,,,,,,,,,,,,,AFSA01.jpg,AFNE07.jpg,AFNE19.jpg,AFSA13.jpg,AFNE07.jpg,FN,3,num_6,32,num_2,1.55010727094,,,2018_Mar_01_1703,60.0014432867,FEMA4ImagesEEG,001,103213,
AFNE01.JPG,AFNE01.JPG,AFNE01.JPG,AFNE01.JPG,AFNE01.JPG,AFNE01.JPG,,,,,,,,,3,7,37,8,,,,,,,,,,,,,,,AFSA16.jpg,AFNE15.jpg,AFNE13.jpg,AFSA07.jpg,AFSA16.jpg,FS,4,num_8,16,num_8,1.21676463634,,,2018_Mar_01_1703,60.0014432867,FEMA4ImagesEEG,001,103213,
AFNE01.JPG,AFNE01.JPG,AFNE01.JPG,AFNE01.JPG,AFNE01.JPG,AFNE01.JPG,,,,,,,,,3,8,38,7,,,,,,,,,,,,,,,AFNE15.jpg,AFSA06.jpg,AFSA04.jpg,AFNE08.jpg,AFSA06.jpg,FS,4,num_6,32,num_4,0.933478114894,,,2018_Mar_01_1703,60.0014432867,FEMA4ImagesEEG,001,103213,
AFNE01.JPG,AFNE01.JPG,AFNE01.JPG,AFNE01.JPG,AFNE01.JPG,AFNE01.JPG,,,,,,,,,3,9,39,3,,,,,,,,,,,,,,,AFSA08.jpg,AFNE15.jpg,AFNE19.jpg,AFSA19.jpg,AFSA19.jpg,FS,4,num_4,32,num_2,1.13344854279,,,2018_Mar_01_1703,60.0014432867,FEMA4ImagesEEG,001,103213,
AFNE01.JPG,AFNE01.JPG,AFNE01.JPG,AFNE01.JPG,AFNE01.JPG,AFNE01.JPG,,,,,,,,,4,0,40,3,,,,,,,,,,,,,,,AFNE03.jpg,AFSA18.jpg,AFSA04.jpg,AFNE14.jpg,AFSA18.jpg,FS,4,num_6,32,num_4,1.23345460487,,,2018_Mar_01_1703,60.0014432867,FEMA4ImagesEEG,001,103213,
AFNE01.JPG,AFNE01.JPG,AFNE01.JPG,AFNE01.JPG,AFNE01.JPG,AFNE01.JPG,,,,,,,,,4,1,41,8,,,,,,,,,,,,,,,AFSA02.jpg,AFNE13.jpg,AFSA14.jpg,AFNE16.jpg,AFNE13.jpg,FN,3,num_6,32,num_8,1.0001039193,,,2018_Mar_01_1703,60.0014432867,FEMA4ImagesEEG,001,103213,
AFNE01.JPG,AFNE01.JPG,AFNE01.JPG,AFNE01.JPG,AFNE01.JPG,AFNE01.JPG,,,,,,,,,4,2,42,7,,,,,,,,,,,,,,,AFNE06.jpg,AFSA06.jpg,AFNE05.jpg,AFSA10.jpg,AFSA10.jpg,FS,4,num_4,16,num_4,0.816806781339,,,2018_Mar_01_1703,60.0014432867,FEMA4ImagesEEG,001,103213,
AFNE01.JPG,AFNE01.JPG,AFNE01.JPG,AFNE01.JPG,AFNE01.JPG,AFNE01.JPG,,,,,,,,,4,3,43,6,,,,,,,,,,,,,,,AFSA02.jpg,AFNE10.jpg,AFNE20.jpg,AFSA13.jpg,AFNE20.jpg,FN,3,num_2,32,num_8,0.933472983073,,,2018_Mar_01_1703,60.0014432867,FEMA4ImagesEEG,001,103213,
AFNE01.JPG,AFNE01.JPG,AFNE01.JPG,AFNE01.JPG,AFNE01.JPG,AFNE01.JPG,,,,,,,,,4,4,44,9,,,,,,,,,,,,,,,AFSA11.jpg,AFNE08.jpg,AFSA14.jpg,AFNE11.jpg,AFNE11.jpg,FN,3,num_4,16,num_4,1.13342095912,,,2018_Mar_01_1703,60.0014432867,FEMA4ImagesEEG,001,103213,
AFNE01.JPG,AFNE01.JPG,AFNE01.JPG,AFNE01.JPG,AFNE01.JPG,AFNE01.JPG,,,,,,,,,4,5,45,2,,,,,,,,,,,,,,,AFSA11.jpg,AFNE19.jpg,AFNE16.jpg,AFSA07.jpg,AFSA07.jpg,FS,4,num_4,32,num_2,0.883428416215,,,2018_Mar_01_1703,60.0014432867,FEMA4ImagesEEG,001,103213,
AFNE01.JPG,AFNE01.JPG,AFNE01.JPG,AFNE01.JPG,AFNE01.JPG,AFNE01.JPG,,,,,,,,,4,6,46,4,,,,,,,,,,,,,,,AFNE14.jpg,AFSA06.jpg,AFNE13.jpg,AFSA16.jpg,AFNE13.jpg,FN,3,num_2,32,num_8,0.949966017855,,,2018_Mar_01_1703,60.0014432867,FEMA4ImagesEEG,001,103213,
AFNE01.JPG,AFNE01.JPG,AFNE01.JPG,AFNE01.JPG,AFNE01.JPG,AFNE01.JPG,,,,,,,,,4,7,47,1,,,,,,,,,,,,,,,AFSA18.jpg,AFSA20.jpg,AFNE19.jpg,AFNE10.jpg,AFSA20.jpg,FS,4,num_6,16,num_6,1.16683489433,,,2018_Mar_01_1703,60.0014432867,FEMA4ImagesEEG,001,103213,
AFNE01.JPG,AFNE01.JPG,AFNE01.JPG,AFNE01.JPG,AFNE01.JPG,AFNE01.JPG,,,,,,,,,4,8,48,5,,,,,,,,,,,,,,,AFNE09.jpg,AFNE06.jpg,AFSA06.jpg,AFSA17.jpg,AFNE09.jpg,FN,3,num_8,16,num_8,1.28345330572,,,2018_Mar_01_1703,60.0014432867,FEMA4ImagesEEG,001,103213,
AFNE01.JPG,AFNE01.JPG,AFNE01.JPG,AFNE01.JPG,AFNE01.JPG,AFNE01.JPG,,,,,,,,,4,9,49,0,,,,,,,,,,,,,,,AFSA11.jpg,AFSA02.jpg,AFNE11.jpg,AFNE07.jpg,AFSA02.jpg,FS,4,num_6,32,num_2,0.966637062375,,,2018_Mar_01_1703,60.0014432867,FEMA4ImagesEEG,001,103213,
AFNE01.JPG,AFNE01.JPG,AFNE01.JPG,AFNE01.JPG,AFNE01.JPG,AFNE01.JPG,,,,,,,,,5,0,50,6,,,,,,,,,,,,,,,AFSA07.jpg,AFSA02.jpg,AFNE10.jpg,AFNE05.jpg,AFNE05.jpg,FN,3,num_4,32,num_8,1.21681787912,,,2018_Mar_01_1703,60.0014432867,FEMA4ImagesEEG,001,103213,
AFNE01.JPG,AFNE01.JPG,AFNE01.JPG,AFNE01.JPG,AFNE01.JPG,AFNE01.JPG,,,,,,,,,5,1,51,0,,,,,,,,,,,,,,,AFNE13.jpg,AFNE20.jpg,AFSA11.jpg,AFSA02.jpg,AFNE20.jpg,FN,3,num_6,32,num_2,1.14995857654,,,2018_Mar_01_1703,60.0014432867,FEMA4ImagesEEG,001,103213,
AFNE01.JPG,AFNE01.JPG,AFNE01.JPG,AFNE01.JPG,AFNE01.JPG,AFNE01.JPG,,,,,,,,,5,2,52,7,,,,,,,,,,,,,,,AFNE14.jpg,AFNE09.jpg,AFSA13.jpg,AFSA06.jpg,AFNE09.jpg,FN,3,num_6,32,num_8,2.10002338188,,,2018_Mar_01_1703,60.0014432867,FEMA4ImagesEEG,001,103213,
AFNE01.JPG,AFNE01.JPG,AFNE01.JPG,AFNE01.JPG,AFNE01.JPG,AFNE01.JPG,,,,,,,,,5,3,53,4,,,,,,,,,,,,,,,AFSA08.jpg,AFNE16.jpg,AFSA20.jpg,AFNE14.jpg,AFSA20.jpg,FS,4,num_2,16,num_2,1.96677305573,,,2018_Mar_01_1703,60.0014432867,FEMA4ImagesEEG,001,103213,
AFNE01.JPG,AFNE01.JPG,AFNE01.JPG,AFNE01.JPG,AFNE01.JPG,AFNE01.JPG,,,,,,,,,5,4,54,8,,,,,,,,,,,,,,,AFSA04.jpg,AFSA17.jpg,AFNE14.jpg,AFNE08.jpg,AFSA17.jpg,FS,4,num_6,16,num_6,1.41672383831,,,2018_Mar_01_1703,60.0014432867,FEMA4ImagesEEG,001,103213,
AFNE01.JPG,AFNE01.JPG,AFNE01.JPG,AFNE01.JPG,AFNE01.JPG,AFNE01.JPG,,,,,,,,,5,5,55,3,,,,,,,,,,,,,,,AFSA16.jpg,AFSA12.jpg,AFNE03.jpg,AFNE16.jpg,AFSA12.jpg,FS,4,num_6,16,num_6,1.00009493856,,,2018_Mar_01_1703,60.0014432867,FEMA4ImagesEEG,001,103213,
AFNE01.JPG,AFNE01.JPG,AFNE01.JPG,AFNE01.JPG,AFNE01.JPG,AFNE01.JPG,,,,,,,,,5,6,56,2,,,,,,,,,,,,,,,AFSA03.jpg,AFNE04.jpg,AFSA17.jpg,AFNE15.jpg,AFSA17.jpg,FS,4,num_2,32,num_4,1.28343758965,,,2018_Mar_01_1703,60.0014432867,FEMA4ImagesEEG,001,103213,
AFNE01.JPG,AFNE01.JPG,AFNE01.JPG,AFNE01.JPG,AFNE01.JPG,AFNE01.JPG,,,,,,,,,5,7,57,1,,,,,,,,,,,,,,,AFNE20.jpg,AFNE02.jpg,AFSA15.jpg,AFSA18.jpg,AFSA18.jpg,FS,4,num_4,16,num_4,1.06671593222,,,2018_Mar_01_1703,60.0014432867,FEMA4ImagesEEG,001,103213,
AFNE01.JPG,AFNE01.JPG,AFNE01.JPG,AFNE01.JPG,AFNE01.JPG,AFNE01.JPG,,,,,,,,,5,8,58,9,,,,,,,,,,,,,,,AFSA15.jpg,AFSA14.jpg,AFNE13.jpg,AFNE03.jpg,AFSA15.jpg,FS,4,num_8,16,num_8,1.31675049174,,,2018_Mar_01_1703,60.0014432867,FEMA4ImagesEEG,001,103213,
AFNE01.JPG,AFNE01.JPG,AFNE01.JPG,AFNE01.JPG,AFNE01.JPG,AFNE01.JPG,,,,,,,,,5,9,59,5,,,,,,,,,,,,,,,AFNE13.jpg,AFNE03.jpg,AFSA13.jpg,AFSA20.jpg,AFNE13.jpg,FN,3,num_8,32,num_4,1.03342516068,,,2018_Mar_01_1703,60.0014432867,FEMA4ImagesEEG,001,103213,
,,,,,,,,,,,,,,,,,,,,,,,,,,,,,,,,,,,,,,,,,,,space,34.0810686764,2018_Mar_01_1703,60.0014432867,FEMA4ImagesEEG,001,103213,
AFNE01.JPG,AFNE01.JPG,AFNE01.JPG,AFNE01.JPG,AFNE01.JPG,AFNE01.JPG,,,,,,,,,,,,,0,0,0,2,,,,,,,,,,,AMNE19.jpg,AMSA02.jpg,AMNE02.jpg,AMSA01.jpg,AMSA01.jpg,MS,2,num_4,16,num_4,0.600128103048,,,2018_Mar_01_1703,60.0014432867,FEMA4ImagesEEG,001,103213,
AFNE01.JPG,AFNE01.JPG,AFNE01.JPG,AFNE01.JPG,AFNE01.JPG,AFNE01.JPG,,,,,,,,,,,,,0,1,1,4,,,,,,,,,,,AMSA10.jpg,AMNE04.jpg,AMNE02.jpg,AMSA13.jpg,AMNE04.jpg,MN,1,num_6,32,num_2,1.15010547498,,,2018_Mar_01_1703,60.0014432867,FEMA4ImagesEEG,001,103213,
AFNE01.JPG,AFNE01.JPG,AFNE01.JPG,AFNE01.JPG,AFNE01.JPG,AFNE01.JPG,,,,,,,,,,,,,0,2,2,8,,,,,,,,,,,AMSA13.jpg,AMSA20.jpg,AMNE15.jpg,AMNE14.jpg,AMNE15.jpg,MN,1,num_2,32,num_8,1.10011286801,,,2018_Mar_01_1703,60.0014432867,FEMA4ImagesEEG,001,103213,
AFNE01.JPG,AFNE01.JPG,AFNE01.JPG,AFNE01.JPG,AFNE01.JPG,AFNE01.JPG,,,,,,,,,,,,,0,3,3,1,,,,,,,,,,,AMSA16.jpg,AMNE19.jpg,AMNE03.jpg,AMSA13.jpg,AMNE19.jpg,MN,1,num_6,16,num_6,0.950106501346,,,2018_Mar_01_1703,60.0014432867,FEMA4ImagesEEG,001,103213,
AFNE01.JPG,AFNE01.JPG,AFNE01.JPG,AFNE01.JPG,AFNE01.JPG,AFNE01.JPG,,,,,,,,,,,,,0,4,4,5,,,,,,,,,,,AMSA11.jpg,AMNE01.jpg,AMSA16.jpg,AMNE04.jpg,AMSA11.jpg,MS,2,num_8,32,num_2,1.1666369983,,,2018_Mar_01_1703,60.0014432867,FEMA4ImagesEEG,001,103213,
AFNE01.JPG,AFNE01.JPG,AFNE01.JPG,AFNE01.JPG,AFNE01.JPG,AFNE01.JPG,,,,,,,,,,,,,0,5,5,6,,,,,,,,,,,AMSA10.jpg,AMNE20.jpg,AMSA03.jpg,AMNE06.jpg,AMNE20.jpg,MN,1,num_6,32,num_2,1.35011888179,,,2018_Mar_01_1703,60.0014432867,FEMA4ImagesEEG,001,103213,
AFNE01.JPG,AFNE01.JPG,AFNE01.JPG,AFNE01.JPG,AFNE01.JPG,AFNE01.JPG,,,,,,,,,,,,,0,6,6,7,,,,,,,,,,,AMNE04.jpg,AMSA14.jpg,AMNE07.jpg,AMSA17.jpg,AMNE07.jpg,MN,1,num_2,32,num_8,0.983342426131,,,2018_Mar_01_1703,60.0014432867,FEMA4ImagesEEG,001,103213,
AFNE01.JPG,AFNE01.JPG,AFNE01.JPG,AFNE01.JPG,AFNE01.JPG,AFNE01.JPG,,,,,,,,,,,,,0,7,7,0,,,,,,,,,,,AMSA11.jpg,AMSA15.jpg,AMNE14.jpg,AMNE05.jpg,AMNE05.jpg,MN,1,num_4,16,num_4,1.21673160023,,,2018_Mar_01_1703,60.0014432867,FEMA4ImagesEEG,001,103213,
AFNE01.JPG,AFNE01.JPG,AFNE01.JPG,AFNE01.JPG,AFNE01.JPG,AFNE01.JPG,,,,,,,,,,,,,0,8,8,3,,,,,,,,,,,AMNE07.jpg,AMSA14.jpg,AMNE12.jpg,AMSA11.jpg,AMSA11.jpg,MS,2,num_4,32,num_2,1.10007951129,,,2018_Mar_01_1703,60.0014432867,FEMA4ImagesEEG,001,103213,
AFNE01.JPG,AFNE01.JPG,AFNE01.JPG,AFNE01.JPG,AFNE01.JPG,AFNE01.JPG,,,,,,,,,,,,,0,9,9,9,,,,,,,,,,,AMSA10.jpg,AMNE08.jpg,AMSA14.jpg,AMNE13.jpg,AMNE13.jpg,MN,1,num_4,32,num_2,1.11659211107,,,2018_Mar_01_1703,60.0014432867,FEMA4ImagesEEG,001,103213,
AFNE01.JPG,AFNE01.JPG,AFNE01.JPG,AFNE01.JPG,AFNE01.JPG,AFNE01.JPG,,,,,,,,,,,,,1,0,10,2,,,,,,,,,,,AMSA05.jpg,AMNE18.jpg,AMSA03.jpg,AMNE03.jpg,AMNE03.jpg,MN,1,num_4,32,num_6,1.08340108953,,,2018_Mar_01_1703,60.0014432867,FEMA4ImagesEEG,001,103213,
AFNE01.JPG,AFNE01.JPG,AFNE01.JPG,AFNE01.JPG,AFNE01.JPG,AFNE01.JPG,,,,,,,,,,,,,1,1,11,4,,,,,,,,,,,AMNE02.jpg,AMNE14.jpg,AMSA13.jpg,AMSA09.jpg,AMSA09.jpg,MS,2,num_4,16,num_4,1.00010359869,,,2018_Mar_01_1703,60.0014432867,FEMA4ImagesEEG,001,103213,
AFNE01.JPG,AFNE01.JPG,AFNE01.JPG,AFNE01.JPG,AFNE01.JPG,AFNE01.JPG,,,,,,,,,,,,,1,2,12,7,,,,,,,,,,,AMNE12.jpg,AMSA09.jpg,AMSA12.jpg,AMNE07.jpg,AMSA09.jpg,MS,2,num_6,16,num_6,2.05005579256,,,2018_Mar_01_1703,60.0014432867,FEMA4ImagesEEG,001,103213,
AFNE01.JPG,AFNE01.JPG,AFNE01.JPG,AFNE01.JPG,AFNE01.JPG,AFNE01.JPG,,,,,,,,,,,,,1,3,13,9,,,,,,,,,,,AMSA10.jpg,AMSA12.jpg,AMNE14.jpg,AMNE19.jpg,AMSA12.jpg,MS,2,num_6,32,num_2,0.883437076351,,,2018_Mar_01_1703,60.0014432867,FEMA4ImagesEEG,001,103213,
AFNE01.JPG,AFNE01.JPG,AFNE01.JPG,AFNE01.JPG,AFNE01.JPG,AFNE01.JPG,,,,,,,,,,,,,1,4,14,3,,,,,,,,,,,AMSA06.jpg,AMNE02.jpg,AMNE14.jpg,AMSA08.jpg,AMNE02.jpg,MN,1,num_6,32,num_2,1.26677744999,,,2018_Mar_01_1703,60.0014432867,FEMA4ImagesEEG,001,103213,
AFNE01.JPG,AFNE01.JPG,AFNE01.JPG,AFNE01.JPG,AFNE01.JPG,AFNE01.JPG,,,,,,,,,,,,,1,5,15,8,,,,,,,,,,,AMSA03.jpg,AMNE03.jpg,AMNE16.jpg,AMSA05.jpg,AMSA05.jpg,MS,2,num_4,16,num_4,0.800137340557,,,2018_Mar_01_1703,60.0014432867,FEMA4ImagesEEG,001,103213,
AFNE01.JPG,AFNE01.JPG,AFNE01.JPG,AFNE01.JPG,AFNE01.JPG,AFNE01.JPG,,,,,,,,,,,,,1,6,16,1,,,,,,,,,,,AMSA17.jpg,AMNE04.jpg,AMNE08.jpg,AMSA18.jpg,AMNE04.jpg,MN,1,num_6,32,num_2,1.30024109944,,,2018_Mar_01_1703,60.0014432867,FEMA4ImagesEEG,001,103213,
AFNE01.JPG,AFNE01.JPG,AFNE01.JPG,AFNE01.JPG,AFNE01.JPG,AFNE01.JPG,,,,,,,,,,,,,1,7,17,6,,,,,,,,,,,AMNE19.jpg,AMSA18.jpg,AMSA06.jpg,AMNE07.jpg,AMNE19.jpg,MN,1,num_8,32,num_4,1.13346490054,,,2018_Mar_01_1703,60.0014432867,FEMA4ImagesEEG,001,103213,
AFNE01.JPG,AFNE01.JPG,AFNE01.JPG,AFNE01.JPG,AFNE01.JPG,AFNE01.JPG,,,,,,,,,,,,,1,8,18,0,,,,,,,,,,,AMNE16.jpg,AMSA08.jpg,AMNE03.jpg,AMSA16.jpg,AMNE16.jpg,MN,1,num_8,16,num_8,0.800223619211,,,2018_Mar_01_1703,60.0014432867,FEMA4ImagesEEG,001,103213,
AFNE01.JPG,AFNE01.JPG,AFNE01.JPG,AFNE01.JPG,AFNE01.JPG,AFNE01.JPG,,,,,,,,,,,,,1,9,19,5,,,,,,,,,,,AMNE13.jpg,AMSA03.jpg,AMSA09.jpg,AMNE08.jpg,AMSA03.jpg,MS,2,num_6,32,num_2,0.816753538791,,,2018_Mar_01_1703,60.0014432867,FEMA4ImagesEEG,001,103213,
AFNE01.JPG,AFNE01.JPG,AFNE01.JPG,AFNE01.JPG,AFNE01.JPG,AFNE01.JPG,,,,,,,,,,,,,2,0,20,9,,,,,,,,,,,AMSA06.jpg,AMNE03.jpg,AMSA17.jpg,AMNE18.jpg,AMSA17.jpg,MS,2,num_2,32,num_8,1.0167582857,,,2018_Mar_01_1703,60.0014432867,FEMA4ImagesEEG,001,103213,
AFNE01.JPG,AFNE01.JPG,AFNE01.JPG,AFNE01.JPG,AFNE01.JPG,AFNE01.JPG,,,,,,,,,,,,,2,1,21,7,,,,,,,,,,,AMSA15.jpg,AMNE01.jpg,AMNE10.jpg,AMSA17.jpg,AMSA17.jpg,MS,2,num_4,16,num_4,0.833464996656,,,2018_Mar_01_1703,60.0014432867,FEMA4ImagesEEG,001,103213,
AFNE01.JPG,AFNE01.JPG,AFNE01.JPG,AFNE01.JPG,AFNE01.JPG,AFNE01.JPG,,,,,,,,,,,,,2,2,22,0,,,,,,,,,,,AMNE10.jpg,AMSA04.jpg,AMSA06.jpg,AMNE15.jpg,AMSA06.jpg,MS,2,num_2,16,num_2,0.966733284062,,,2018_Mar_01_1703,60.0014432867,FEMA4ImagesEEG,001,103213,
AFNE01.JPG,AFNE01.JPG,AFNE01.JPG,AFNE01.JPG,AFNE01.JPG,AFNE01.JPG,,,,,,,,,,,,,2,3,23,5,,,,,,,,,,,AMSA16.jpg,AMSA03.jpg,AMNE01.jpg,AMNE15.jpg,AMNE15.jpg,MN,1,num_4,16,num_4,0.766746177804,,,2018_Mar_01_1703,60.0014432867,FEMA4ImagesEEG,001,103213,
AFNE01.JPG,AFNE01.JPG,AFNE01.JPG,AFNE01.JPG,AFNE01.JPG,AFNE01.JPG,,,,,,,,,,,,,2,4,24,8,,,,,,,,,,,AMNE15.jpg,AMSA05.jpg,AMSA17.jpg,AMNE12.jpg,AMSA05.jpg,MS,2,num_6,32,num_4,1.58310616994,,,2018_Mar_01_1703,60.0014432867,FEMA4ImagesEEG,001,103213,
AFNE01.JPG,AFNE01.JPG,AFNE01.JPG,AFNE01.JPG,AFNE01.JPG,AFNE01.JPG,,,,,,,,,,,,,2,5,25,2,,,,,,,,,,,AMNE20.jpg,AMSA11.jpg,AMSA10.jpg,AMNE13.jpg,AMNE20.jpg,MN,1,num_8,32,num_4,1.73337201448,,,2018_Mar_01_1703,60.0014432867,FEMA4ImagesEEG,001,103213,
AFNE01.JPG,AFNE01.JPG,AFNE01.JPG,AFNE01.JPG,AFNE01.JPG,AFNE01.JPG,,,,,,,,,,,,,2,6,26,4,,,,,,,,,,,AMNE07.jpg,AMNE15.jpg,AMSA07.jpg,AMSA11.jpg,AMNE07.jpg,MN,1,num_8,32,num_2,0.550163079519,,,2018_Mar_01_1703,60.0014432867,FEMA4ImagesEEG,001,103213,
AFNE01.JPG,AFNE01.JPG,AFNE01.JPG,AFNE01.JPG,AFNE01.JPG,AFNE01.JPG,,,,,,,,,,,,,2,7,27,1,,,,,,,,,,,AMNE14.jpg,AMNE17.jpg,AMSA07.jpg,AMSA18.jpg,AMSA07.jpg,MS,2,num_2,32,num_6,1.00011225883,,,2018_Mar_01_1703,60.0014432867,FEMA4ImagesEEG,001,103213,
AFNE01.JPG,AFNE01.JPG,AFNE01.JPG,AFNE01.JPG,AFNE01.JPG,AFNE01.JPG,,,,,,,,,,,,,2,8,28,3,,,,,,,,,,,AMNE06.jpg,AMSA20.jpg,AMSA11.jpg,AMNE15.jpg,AMNE15.jpg,MN,1,num_4,32,num_8,1.30005924054,,,2018_Mar_01_1703,60.0014432867,FEMA4ImagesEEG,001,103213,
AFNE01.JPG,AFNE01.JPG,AFNE01.JPG,AFNE01.JPG,AFNE01.JPG,AFNE01.JPG,,,,,,,,,,,,,2,9,29,6,,,,,,,,,,,AMSA20.jpg,AMSA18.jpg,AMNE07.jpg,AMNE14.jpg,AMNE07.jpg,MN,1,num_2,16,num_2,1.01674513542,,,2018_Mar_01_1703,60.0014432867,FEMA4ImagesEEG,001,103213,
AFNE01.JPG,AFNE01.JPG,AFNE01.JPG,AFNE01.JPG,AFNE01.JPG,AFNE01.JPG,,,,,,,,,,,,,3,0,30,5,,,,,,,,,,,AMNE17.jpg,AMSA10.jpg,AMSA03.jpg,AMNE18.jpg,AMNE17.jpg,MN,1,num_8,16,num_8,1.03352458985,,,2018_Mar_01_1703,60.0014432867,FEMA4ImagesEEG,001,103213,
AFNE01.JPG,AFNE01.JPG,AFNE01.JPG,AFNE01.JPG,AFNE01.JPG,AFNE01.JPG,,,,,,,,,,,,,3,1,31,6,,,,,,,,,,,AMSA09.jpg,AMNE10.jpg,AMNE07.jpg,AMSA02.jpg,AMNE07.jpg,MN,1,num_2,16,num_2,1.05011095945,,,2018_Mar_01_1703,60.0014432867,FEMA4ImagesEEG,001,103213,
AFNE01.JPG,AFNE01.JPG,AFNE01.JPG,AFNE01.JPG,AFNE01.JPG,AFNE01.JPG,,,,,,,,,,,,,3,2,32,7,,,,,,,,,,,AMNE12.jpg,AMNE07.jpg,AMSA11.jpg,AMSA02.jpg,AMSA02.jpg,MS,2,num_4,32,num_6,0.666791434167,,,2018_Mar_01_1703,60.0014432867,FEMA4ImagesEEG,001,103213,
AFNE01.JPG,AFNE01.JPG,AFNE01.JPG,AFNE01.JPG,AFNE01.JPG,AFNE01.JPG,,,,,,,,,,,,,3,3,33,2,,,,,,,,,,,AMNE09.jpg,AMSA16.jpg,AMSA04.jpg,AMNE13.jpg,AMSA16.jpg,MS,2,num_6,32,num_8,1.25017311866,,,2018_Mar_01_1703,60.0014432867,FEMA4ImagesEEG,001,103213,
AFNE01.JPG,AFNE01.JPG,AFNE01.JPG,AFNE01.JPG,AFNE01.JPG,AFNE01.JPG,,,,,,,,,,,,,3,4,34,3,,,,,,,,,,,AMNE19.jpg,AMSA06.jpg,AMSA18.jpg,AMNE09.jpg,AMSA06.jpg,MS,2,num_6,16,num_6,1.61668624799,,,2018_Mar_01_1703,60.0014432867,FEMA4ImagesEEG,001,103213,
AFNE01.JPG,AFNE01.JPG,AFNE01.JPG,AFNE01.JPG,AFNE01.JPG,AFNE01.JPG,,,,,,,,,,,,,3,5,35,4,,,,,,,,,,,AMNE09.jpg,AMSA11.jpg,AMSA12.jpg,AMNE11.jpg,AMNE09.jpg,MN,1,num_8,16,num_8,1.38338559773,,,2018_Mar_01_1703,60.0014432867,FEMA4ImagesEEG,001,103213,
AFNE01.JPG,AFNE01.JPG,AFNE01.JPG,AFNE01.JPG,AFNE01.JPG,AFNE01.JPG,,,,,,,,,,,,,3,6,36,8,,,,,,,,,,,AMNE15.jpg,AMSA05.jpg,AMSA18.jpg,AMNE08.jpg,AMNE08.jpg,MN,1,num_4,16,num_4,1.23341547442,,,2018_Mar_01_1703,60.0014432867,FEMA4ImagesEEG,001,103213,
AFNE01.JPG,AFNE01.JPG,AFNE01.JPG,AFNE01.JPG,AFNE01.JPG,AFNE01.JPG,,,,,,,,,,,,,3,7,37,9,,,,,,,,,,,AMNE04.jpg,AMNE06.jpg,AMSA10.jpg,AMSA11.jpg,AMNE04.jpg,MN,1,num_8,32,num_4,1.10021486296,,,2018_Mar_01_1703,60.0014432867,FEMA4ImagesEEG,001,103213,
AFNE01.JPG,AFNE01.JPG,AFNE01.JPG,AFNE01.JPG,AFNE01.JPG,AFNE01.JPG,,,,,,,,,,,,,3,8,38,0,,,,,,,,,,,AMNE01.jpg,AMNE13.jpg,AMSA14.jpg,AMSA20.jpg,AMSA20.jpg,MS,2,num_4,32,num_2,1.03353645722,,,2018_Mar_01_1703,60.0014432867,FEMA4ImagesEEG,001,103213,
AFNE01.JPG,AFNE01.JPG,AFNE01.JPG,AFNE01.JPG,AFNE01.JPG,AFNE01.JPG,,,,,,,,,,,,,3,9,39,1,,,,,,,,,,,AMNE03.jpg,AMSA01.jpg,AMNE02.jpg,AMSA12.jpg,AMNE02.jpg,MN,1,num_2,16,num_2,1.61668624775,,,2018_Mar_01_1703,60.0014432867,FEMA4ImagesEEG,001,103213,
AFNE01.JPG,AFNE01.JPG,AFNE01.JPG,AFNE01.JPG,AFNE01.JPG,AFNE01.JPG,,,,,,,,,,,,,4,0,40,7,,,,,,,,,,,AMNE16.jpg,AMNE17.jpg,AMSA11.jpg,AMSA19.jpg,AMNE16.jpg,MN,1,num_8,32,num_6,0.783474314027,,,2018_Mar_01_1703,60.0014432867,FEMA4ImagesEEG,001,103213,
AFNE01.JPG,AFNE01.JPG,AFNE01.JPG,AFNE01.JPG,AFNE01.JPG,AFNE01.JPG,,,,,,,,,,,,,4,1,41,6,,,,,,,,,,,AMSA03.jpg,AMNE09.jpg,AMNE11.jpg,AMSA12.jpg,AMSA03.jpg,MS,2,num_8,16,num_8,1.00010456098,,,2018_Mar_01_1703,60.0014432867,FEMA4ImagesEEG,001,103213,
AFNE01.JPG,AFNE01.JPG,AFNE01.JPG,AFNE01.JPG,AFNE01.JPG,AFNE01.JPG,,,,,,,,,,,,,4,2,42,2,,,,,,,,,,,AMNE16.jpg,AMNE01.jpg,AMSA04.jpg,AMSA19.jpg,AMSA04.jpg,MS,2,num_2,16,num_2,1.11671206728,,,2018_Mar_01_1703,60.0014432867,FEMA4ImagesEEG,001,103213,
AFNE01.JPG,AFNE01.JPG,AFNE01.JPG,AFNE01.JPG,AFNE01.JPG,AFNE01.JPG,,,,,,,,,,,,,4,3,43,0,,,,,,,,,,,AMNE20.jpg,AMSA10.jpg,AMNE12.jpg,AMSA15.jpg,AMSA10.jpg,MS,2,num_6,32,num_4,1.30014134967,,,2018_Mar_01_1703,60.0014432867,FEMA4ImagesEEG,001,103213,
AFNE01.JPG,AFNE01.JPG,AFNE01.JPG,AFNE01.JPG,AFNE01.JPG,AFNE01.JPG,,,,,,,,,,,,,4,4,44,5,,,,,,,,,,,AMSA15.jpg,AMNE04.jpg,AMSA03.jpg,AMNE18.jpg,AMSA03.jpg,MS,2,num_2,32,num_6,1.26674665883,,,2018_Mar_01_1703,60.0014432867,FEMA4ImagesEEG,001,103213,
AFNE01.JPG,AFNE01.JPG,AFNE01.JPG,AFNE01.JPG,AFNE01.JPG,AFNE01.JPG,,,,,,,,,,,,,4,5,45,4,,,,,,,,,,,AMNE01.jpg,AMNE10.jpg,AMSA01.jpg,AMSA16.jpg,AMSA16.jpg,MS,2,num_4,32,num_6,1.00014978508,,,2018_Mar_01_1703,60.0014432867,FEMA4ImagesEEG,001,103213,
AFNE01.JPG,AFNE01.JPG,AFNE01.JPG,AFNE01.JPG,AFNE01.JPG,AFNE01.JPG,,,,,,,,,,,,,4,6,46,1,,,,,,,,,,,AMSA20.jpg,AMNE19.jpg,AMNE09.jpg,AMSA09.jpg,AMNE19.jpg,MN,1,num_6,32,num_8,1.16677523684,,,2018_Mar_01_1703,60.0014432867,FEMA4ImagesEEG,001,103213,
AFNE01.JPG,AFNE01.JPG,AFNE01.JPG,AFNE01.JPG,AFNE01.JPG,AFNE01.JPG,,,,,,,,,,,,,4,7,47,9,,,,,,,,,,,AMSA20.jpg,AMNE13.jpg,AMSA03.jpg,AMNE12.jpg,AMNE12.jpg,MN,1,num_4,32,num_6,0.966802884359,,,2018_Mar_01_1703,60.0014432867,FEMA4ImagesEEG,001,103213,
AFNE01.JPG,AFNE01.JPG,AFNE01.JPG,AFNE01.JPG,AFNE01.JPG,AFNE01.JPG,,,,,,,,,,,,,4,8,48,8,,,,,,,,,,,AMSA14.jpg,AMSA20.jpg,AMNE10.jpg,AMNE20.jpg,AMNE10.jpg,MN,1,num_2,16,num_2,0.600159214577,,,2018_Mar_01_1703,60.0014432867,FEMA4ImagesEEG,001,103213,
AFNE01.JPG,AFNE01.JPG,AFNE01.JPG,AFNE01.JPG,AFNE01.JPG,AFNE01.JPG,,,,,,,,,,,,,4,9,49,3,,,,,,,,,,,AMNE17.jpg,AMSA04.jpg,AMSA03.jpg,AMNE02.jpg,AMNE02.jpg,MN,1,num_4,32,num_8,1.10010164208,,,2018_Mar_01_1703,60.0014432867,FEMA4ImagesEEG,001,103213,
AFNE01.JPG,AFNE01.JPG,AFNE01.JPG,AFNE01.JPG,AFNE01.JPG,AFNE01.JPG,,,,,,,,,,,,,5,0,50,3,,,,,,,,,,,AMSA05.jpg,AMSA15.jpg,AMNE11.jpg,AMNE07.jpg,AMNE11.jpg,MN,1,num_2,16,num_2,0.933456625324,,,2018_Mar_01_1703,60.0014432867,FEMA4ImagesEEG,001,103213,
AFNE01.JPG,AFNE01.JPG,AFNE01.JPG,AFNE01.JPG,AFNE01.JPG,AFNE01.JPG,,,,,,,,,,,,,5,1,51,2,,,,,,,,,,,AMNE18.jpg,AMNE09.jpg,AMSA14.jpg,AMSA04.jpg,AMNE18.jpg,MN,1,num_8,32,num_6,1.60005529551,,,2018_Mar_01_1703,60.0014432867,FEMA4ImagesEEG,001,103213,
AFNE01.JPG,AFNE01.JPG,AFNE01.JPG,AFNE01.JPG,AFNE01.JPG,AFNE01.JPG,,,,,,,,,,,,,5,2,52,9,,,,,,,,,,,AMNE20.jpg,AMSA03.jpg,AMNE11.jpg,AMSA06.jpg,AMSA06.jpg,MS,2,num_4,32,num_8,1.40010186681,,,2018_Mar_01_1703,60.0014432867,FEMA4ImagesEEG,001,103213,
AFNE01.JPG,AFNE01.JPG,AFNE01.JPG,AFNE01.JPG,AFNE01.JPG,AFNE01.JPG,,,,,,,,,,,,,5,3,53,8,,,,,,,,,,,AMSA07.jpg,AMNE13.jpg,AMNE11.jpg,AMSA10.jpg,AMNE11.jpg,MN,1,num_2,32,num_6,0.983524926705,,,2018_Mar_01_1703,60.0014432867,FEMA4ImagesEEG,001,103213,
AFNE01.JPG,AFNE01.JPG,AFNE01.JPG,AFNE01.JPG,AFNE01.JPG,AFNE01.JPG,,,,,,,,,,,,,5,4,54,7,,,,,,,,,,,AMNE19.jpg,AMNE11.jpg,AMSA19.jpg,AMSA10.jpg,AMNE19.jpg,MN,1,num_8,16,num_8,1.25017568469,,,2018_Mar_01_1703,60.0014432867,FEMA4ImagesEEG,001,103213,
AFNE01.JPG,AFNE01.JPG,AFNE01.JPG,AFNE01.JPG,AFNE01.JPG,AFNE01.JPG,,,,,,,,,,,,,5,5,55,6,,,,,,,,,,,AMSA08.jpg,AMSA07.jpg,AMNE19.jpg,AMNE17.jpg,AMSA07.jpg,MS,2,num_6,16,num_6,0.750112980139,,,2018_Mar_01_1703,60.0014432867,FEMA4ImagesEEG,001,103213,
AFNE01.JPG,AFNE01.JPG,AFNE01.JPG,AFNE01.JPG,AFNE01.JPG,AFNE01.JPG,,,,,,,,,,,,,5,6,56,0,,,,,,,,,,,AMSA08.jpg,AMSA06.jpg,AMNE05.jpg,AMNE13.jpg,AMNE05.jpg,MN,1,num_2,32,num_4,1.04982229462,,,2018_Mar_01_1703,60.0014432867,FEMA4ImagesEEG,001,103213,
AFNE01.JPG,AFNE01.JPG,AFNE01.JPG,AFNE01.JPG,AFNE01.JPG,AFNE01.JPG,,,,,,,,,,,,,5,7,57,1,,,,,,,,,,,AMSA05.jpg,AMNE19.jpg,AMNE10.jpg,AMSA12.jpg,AMNE10.jpg,MN,1,num_2,16,num_2,1.60009635007,,,2018_Mar_01_1703,60.0014432867,FEMA4ImagesEEG,001,103213,
AFNE01.JPG,AFNE01.JPG,AFNE01.JPG,AFNE01.JPG,AFNE01.JPG,AFNE01.JPG,,,,,,,,,,,,,5,8,58,4,,,,,,,,,,,AMNE16.jpg,AMSA10.jpg,AMSA16.jpg,AMNE07.jpg,AMNE07.jpg,MN,1,num_4,32,num_2,0.916940176627,,,2018_Mar_01_1703,60.0014432867,FEMA4ImagesEEG,001,103213,
AFNE01.JPG,AFNE01.JPG,AFNE01.JPG,AFNE01.JPG,AFNE01.JPG,AFNE01.JPG,,,,,,,,,,,,,5,9,59,5,,,,,,,,,,,AMNE09.jpg,AMSA04.jpg,AMSA14.jpg,AMNE05.jpg,AMSA14.jpg,MS,2,num_2,16,num_2,1.00041696033,,,2018_Mar_01_1703,60.0014432867,FEMA4ImagesEEG,001,103213,
,,,,,,,,,,,,,,,,,,,,,,,,,,,,,,,,,,,,,,,,,,,space,15.7322882379,2018_Mar_01_1703,60.0014432867,FEMA4ImagesEEG,001,103213,
AFNE01.JPG,AFNE01.JPG,AFNE01.JPG,AFNE01.JPG,AFNE01.JPG,AFNE01.JPG,,,,,,,,,,,,,,,,,0,0,0,0,,,,,,,AFSA11.jpg,AFNE14.jpg,AFSA06.jpg,AFNE12.jpg,AFNE14.jpg,FN,3,num_6,16,num_6,0.766899490962,,,2018_Mar_01_1703,60.0014432867,FEMA4ImagesEEG,001,103213,
AFNE01.JPG,AFNE01.JPG,AFNE01.JPG,AFNE01.JPG,AFNE01.JPG,AFNE01.JPG,,,,,,,,,,,,,,,,,0,1,1,3,,,,,,,AFSA15.jpg,AFSA16.jpg,AFNE15.jpg,AFNE14.jpg,AFSA15.jpg,FS,4,num_8,32,num_2,0.500136153772,,,2018_Mar_01_1703,60.0014432867,FEMA4ImagesEEG,001,103213,
AFNE01.JPG,AFNE01.JPG,AFNE01.JPG,AFNE01.JPG,AFNE01.JPG,AFNE01.JPG,,,,,,,,,,,,,,,,,0,2,2,2,,,,,,,AFNE17.jpg,AFSA15.jpg,AFSA07.jpg,AFNE09.jpg,AFNE17.jpg,FN,3,num_8,16,num_8,0.883427133318,,,2018_Mar_01_1703,60.0014432867,FEMA4ImagesEEG,001,103213,
AFNE01.JPG,AFNE01.JPG,AFNE01.JPG,AFNE01.JPG,AFNE01.JPG,AFNE01.JPG,,,,,,,,,,,,,,,,,0,3,3,8,,,,,,,AFNE13.jpg,AFSA08.jpg,AFSA02.jpg,AFNE08.jpg,AFNE13.jpg,FN,3,num_8,32,num_2,1.1167171991,,,2018_Mar_01_1703,60.0014432867,FEMA4ImagesEEG,001,103213,
AFNE01.JPG,AFNE01.JPG,AFNE01.JPG,AFNE01.JPG,AFNE01.JPG,AFNE01.JPG,,,,,,,,,,,,,,,,,0,4,4,6,,,,,,,AFSA18.jpg,AFNE14.jpg,AFSA02.jpg,AFNE19.jpg,AFSA18.jpg,FS,4,num_8,16,num_8,1.01676502125,,,2018_Mar_01_1703,60.0014432867,FEMA4ImagesEEG,001,103213,
AFNE01.JPG,AFNE01.JPG,AFNE01.JPG,AFNE01.JPG,AFNE01.JPG,AFNE01.JPG,,,,,,,,,,,,,,,,,0,5,5,9,,,,,,,AFSA01.jpg,AFNE07.jpg,AFNE19.jpg,AFSA11.jpg,AFSA11.jpg,FS,4,num_4,32,num_2,1.26674152701,,,2018_Mar_01_1703,60.0014432867,FEMA4ImagesEEG,001,103213,
AFNE01.JPG,AFNE01.JPG,AFNE01.JPG,AFNE01.JPG,AFNE01.JPG,AFNE01.JPG,,,,,,,,,,,,,,,,,0,6,6,4,,,,,,,AFNE15.jpg,AFNE05.jpg,AFSA12.jpg,AFSA16.jpg,AFNE15.jpg,FN,3,num_8,32,num_6,1.11673965072,,,2018_Mar_01_1703,60.0014432867,FEMA4ImagesEEG,001,103213,
AFNE01.JPG,AFNE01.JPG,AFNE01.JPG,AFNE01.JPG,AFNE01.JPG,AFNE01.JPG,,,,,,,,,,,,,,,,,0,7,7,1,,,,,,,AFSA14.jpg,AFNE10.jpg,AFNE11.jpg,AFSA20.jpg,AFNE11.jpg,FN,3,num_2,32,num_8,0.766774723539,,,2018_Mar_01_1703,60.0014432867,FEMA4ImagesEEG,001,103213,
AFNE01.JPG,AFNE01.JPG,AFNE01.JPG,AFNE01.JPG,AFNE01.JPG,AFNE01.JPG,,,,,,,,,,,,,,,,,0,8,8,5,,,,,,,AFSA08.jpg,AFNE06.jpg,AFSA14.jpg,AFNE13.jpg,AFSA08.jpg,FS,4,num_8,32,num_2,1.58340157056,,,2018_Mar_01_1703,60.0014432867,FEMA4ImagesEEG,001,103213,
AFNE01.JPG,AFNE01.JPG,AFNE01.JPG,AFNE01.JPG,AFNE01.JPG,AFNE01.JPG,,,,,,,,,,,,,,,,,0,9,9,7,,,,,,,AFNE20.jpg,AFNE19.jpg,AFSA11.jpg,AFSA09.jpg,AFNE20.jpg,FN,3,num_8,16,num_8,0.916866727406,,,2018_Mar_01_1703,60.0014432867,FEMA4ImagesEEG,001,103213,
AFNE01.JPG,AFNE01.JPG,AFNE01.JPG,AFNE01.JPG,AFNE01.JPG,AFNE01.JPG,,,,,,,,,,,,,,,,,1,0,10,0,,,,,,,AFSA16.jpg,AFNE07.jpg,AFSA07.jpg,AFNE19.jpg,AFNE19.jpg,FN,3,num_4,16,num_4,0.93343224912,,,2018_Mar_01_1703,60.0014432867,FEMA4ImagesEEG,001,103213,
AFNE01.JPG,AFNE01.JPG,AFNE01.JPG,AFNE01.JPG,AFNE01.JPG,AFNE01.JPG,,,,,,,,,,,,,,,,,1,1,11,7,,,,,,,AFNE18.jpg,AFSA11.jpg,AFNE19.jpg,AFSA20.jpg,AFSA11.jpg,FS,4,num_6,16,num_6,1.40007107588,,,2018_Mar_01_1703,60.0014432867,FEMA4ImagesEEG,001,103213,
AFNE01.JPG,AFNE01.JPG,AFNE01.JPG,AFNE01.JPG,AFNE01.JPG,AFNE01.JPG,,,,,,,,,,,,,,,,,1,2,12,5,,,,,,,AFSA08.jpg,AFNE18.jpg,AFNE10.jpg,AFSA19.jpg,AFNE10.jpg,FN,3,num_2,16,num_2,1.21675148606,,,2018_Mar_01_1703,60.0014432867,FEMA4ImagesEEG,001,103213,
AFNE01.JPG,AFNE01.JPG,AFNE01.JPG,AFNE01.JPG,AFNE01.JPG,AFNE01.JPG,,,,,,,,,,,,,,,,,1,3,13,1,,,,,,,AFSA13.jpg,AFNE05.jpg,AFSA20.jpg,AFNE19.jpg,AFSA20.jpg,FS,4,num_2,32,num_4,1.20003874507,,,2018_Mar_01_1703,60.0014432867,FEMA4ImagesEEG,001,103213,
AFNE01.JPG,AFNE01.JPG,AFNE01.JPG,AFNE01.JPG,AFNE01.JPG,AFNE01.JPG,,,,,,,,,,,,,,,,,1,4,14,2,,,,,,,AFSA09.jpg,AFSA05.jpg,AFNE15.jpg,AFNE14.jpg,AFSA05.jpg,FS,4,num_6,16,num_6,1.86666114978,,,2018_Mar_01_1703,60.0014432867,FEMA4ImagesEEG,001,103213,
AFNE01.JPG,AFNE01.JPG,AFNE01.JPG,AFNE01.JPG,AFNE01.JPG,AFNE01.JPG,,,,,,,,,,,,,,,,,1,5,15,4,,,,,,,AFSA03.jpg,AFSA14.jpg,AFNE08.jpg,AFNE02.jpg,AFNE02.jpg,FN,3,num_4,32,num_8,0.900149817113,,,2018_Mar_01_1703,60.0014432867,FEMA4ImagesEEG,001,103213,
AFNE01.JPG,AFNE01.JPG,AFNE01.JPG,AFNE01.JPG,AFNE01.JPG,AFNE01.JPG,,,,,,,,,,,,,,,,,1,6,16,9,,,,,,,AFSA17.jpg,AFNE13.jpg,AFNE04.jpg,AFSA07.jpg,AFNE13.jpg,FN,3,num_6,32,num_4,1.51673022099,,,2018_Mar_01_1703,60.0014432867,FEMA4ImagesEEG,001,103213,
AFNE01.JPG,AFNE01.JPG,AFNE01.JPG,AFNE01.JPG,AFNE01.JPG,AFNE01.JPG,,,,,,,,,,,,,,,,,1,7,17,8,,,,,,,AFSA18.jpg,AFSA04.jpg,AFNE17.jpg,AFNE15.jpg,AFNE17.jpg,FN,3,num_2,32,num_6,0.866821198724,,,2018_Mar_01_1703,60.0014432867,FEMA4ImagesEEG,001,103213,
AFNE01.JPG,AFNE01.JPG,AFNE01.JPG,AFNE01.JPG,AFNE01.JPG,AFNE01.JPG,,,,,,,,,,,,,,,,,1,8,18,6,,,,,,,AFSA08.jpg,AFSA06.jpg,AFNE05.jpg,AFNE14.jpg,AFSA06.jpg,FS,4,num_6,32,num_4,1.31681367732,,,2018_Mar_01_1703,60.0014432867,FEMA4ImagesEEG,001,103213,
AFNE01.JPG,AFNE01.JPG,AFNE01.JPG,AFNE01.JPG,AFNE01.JPG,AFNE01.JPG,,,,,,,,,,,,,,,,,1,9,19,3,,,,,,,AFSA06.jpg,AFSA15.jpg,AFNE09.jpg,AFNE16.jpg,AFSA15.jpg,FS,4,num_6,32,num_2,0.833505088929,,,2018_Mar_01_1703,60.0014432867,FEMA4ImagesEEG,001,103213,
AFNE01.JPG,AFNE01.JPG,AFNE01.JPG,AFNE01.JPG,AFNE01.JPG,AFNE01.JPG,,,,,,,,,,,,,,,,,2,0,20,2,,,,,,,AFNE09.jpg,AFSA12.jpg,AFSA05.jpg,AFNE17.jpg,AFNE17.jpg,FN,3,num_4,16,num_4,0.616935141152,,,2018_Mar_01_1703,60.0014432867,FEMA4ImagesEEG,001,103213,
AFNE01.JPG,AFNE01.JPG,AFNE01.JPG,AFNE01.JPG,AFNE01.JPG,AFNE01.JPG,,,,,,,,,,,,,,,,,2,1,21,1,,,,,,,AFSA14.jpg,AFNE08.jpg,AFNE06.jpg,AFSA07.jpg,AFSA14.jpg,FS,4,num_8,32,num_6,1.01677624718,,,2018_Mar_01_1703,60.0014432867,FEMA4ImagesEEG,001,103213,
AFNE01.JPG,AFNE01.JPG,AFNE01.JPG,AFNE01.JPG,AFNE01.JPG,AFNE01.JPG,,,,,,,,,,,,,,,,,2,2,22,8,,,,,,,AFSA13.jpg,AFSA19.jpg,AFNE09.jpg,AFNE03.jpg,AFSA13.jpg,FS,4,num_8,16,num_8,1.05008658348,,,2018_Mar_01_1703,60.0014432867,FEMA4ImagesEEG,001,103213,
AFNE01.JPG,AFNE01.JPG,AFNE01.JPG,AFNE01.JPG,AFNE01.JPG,AFNE01.JPG,,,,,,,,,,,,,,,,,2,3,23,6,,,,,,,AFSA13.jpg,AFNE17.jpg,AFSA17.jpg,AFNE06.jpg,AFNE06.jpg,FN,3,num_4,16,num_4,0.866755447118,,,2018_Mar_01_1703,60.0014432867,FEMA4ImagesEEG,001,103213,
AFNE01.JPG,AFNE01.JPG,AFNE01.JPG,AFNE01.JPG,AFNE01.JPG,AFNE01.JPG,,,,,,,,,,,,,,,,,2,4,24,0,,,,,,,AFSA07.jpg,AFNE13.jpg,AFNE16.jpg,AFSA15.jpg,AFNE13.jpg,FN,3,num_6,32,num_2,0.933442833601,,,2018_Mar_01_1703,60.0014432867,FEMA4ImagesEEG,001,103213,
AFNE01.JPG,AFNE01.JPG,AFNE01.JPG,AFNE01.JPG,AFNE01.JPG,AFNE01.JPG,,,,,,,,,,,,,,,,,2,5,25,3,,,,,,,AFNE04.jpg,AFSA15.jpg,AFNE08.jpg,AFSA17.jpg,AFSA15.jpg,FS,4,num_6,16,num_6,0.416850209469,,,2018_Mar_01_1703,60.0014432867,FEMA4ImagesEEG,001,103213,
AFNE01.JPG,AFNE01.JPG,AFNE01.JPG,AFNE01.JPG,AFNE01.JPG,AFNE01.JPG,,,,,,,,,,,,,,,,,2,6,26,5,,,,,,,AFSA11.jpg,AFNE18.jpg,AFSA18.jpg,AFNE08.jpg,AFNE08.jpg,FN,3,num_4,16,num_4,1.61684276816,,,2018_Mar_01_1703,60.0014432867,FEMA4ImagesEEG,001,103213,
AFNE01.JPG,AFNE01.JPG,AFNE01.JPG,AFNE01.JPG,AFNE01.JPG,AFNE01.JPG,,,,,,,,,,,,,,,,,2,7,27,4,,,,,,,AFNE02.jpg,AFNE08.jpg,AFSA17.jpg,AFSA10.jpg,AFSA17.jpg,FS,4,num_2,16,num_2,1.56674078945,,,2018_Mar_01_1703,60.0014432867,FEMA4ImagesEEG,001,103213,
AFNE01.JPG,AFNE01.JPG,AFNE01.JPG,AFNE01.JPG,AFNE01.JPG,AFNE01.JPG,,,,,,,,,,,,,,,,,2,8,28,7,,,,,,,AFNE02.jpg,AFSA03.jpg,AFSA20.jpg,AFNE10.jpg,AFNE10.jpg,FN,3,num_4,32,num_6,1.06675506243,,,2018_Mar_01_1703,60.0014432867,FEMA4ImagesEEG,001,103213,
AFNE01.JPG,AFNE01.JPG,AFNE01.JPG,AFNE01.JPG,AFNE01.JPG,AFNE01.JPG,,,,,,,,,,,,,,,,,2,9,29,9,,,,,,,AFNE07.jpg,AFSA07.jpg,AFNE06.jpg,AFSA11.jpg,AFNE07.jpg,FN,3,num_8,32,num_6,1.03344248096,,,2018_Mar_01_1703,60.0014432867,FEMA4ImagesEEG,001,103213,
AFNE01.JPG,AFNE01.JPG,AFNE01.JPG,AFNE01.JPG,AFNE01.JPG,AFNE01.JPG,,,,,,,,,,,,,,,,,3,0,30,4,,,,,,,AFSA06.jpg,AFNE16.jpg,AFSA15.jpg,AFNE20.jpg,AFNE20.jpg,FN,3,num_4,16,num_4,1.0834010893,,,2018_Mar_01_1703,60.0014432867,FEMA4ImagesEEG,001,103213,
AFNE01.JPG,AFNE01.JPG,AFNE01.JPG,AFNE01.JPG,AFNE01.JPG,AFNE01.JPG,,,,,,,,,,,,,,,,,3,1,31,8,,,,,,,AFSA15.jpg,AFNE01.jpg,AFSA18.jpg,AFNE20.jpg,AFSA15.jpg,FS,4,num_8,32,num_2,1.58348528342,,,2018_Mar_01_1703,60.0014432867,FEMA4ImagesEEG,001,103213,
AFNE01.JPG,AFNE01.JPG,AFNE01.JPG,AFNE01.JPG,AFNE01.JPG,AFNE01.JPG,,,,,,,,,,,,,,,,,3,2,32,5,,,,,,,AFNE06.jpg,AFNE01.jpg,AFSA11.jpg,AFSA06.jpg,AFSA06.jpg,FS,4,num_4,16,num_4,1.00019629207,,,2018_Mar_01_1703,60.0014432867,FEMA4ImagesEEG,001,103213,
AFNE01.JPG,AFNE01.JPG,AFNE01.JPG,AFNE01.JPG,AFNE01.JPG,AFNE01.JPG,,,,,,,,,,,,,,,,,3,3,33,2,,,,,,,AFSA07.jpg,AFSA03.jpg,AFNE09.jpg,AFNE05.jpg,AFSA07.jpg,FS,4,num_8,32,num_6,1.25008363277,,,2018_Mar_01_1703,60.0014432867,FEMA4ImagesEEG,001,103213,
AFNE01.JPG,AFNE01.JPG,AFNE01.JPG,AFNE01.JPG,AFNE01.JPG,AFNE01.JPG,,,,,,,,,,,,,,,,,3,4,34,1,,,,,,,AFSA19.jpg,AFSA03.jpg,AFNE15.jpg,AFNE16.jpg,AFNE16.jpg,FN,3,num_4,32,num_2,0.950108105084,,,2018_Mar_01_1703,60.0014432867,FEMA4ImagesEEG,001,103213,
AFNE01.JPG,AFNE01.JPG,AFNE01.JPG,AFNE01.JPG,AFNE01.JPG,AFNE01.JPG,,,,,,,,,,,,,,,,,3,5,35,6,,,,,,,AFSA10.jpg,AFNE15.jpg,AFNE13.jpg,AFSA03.jpg,AFNE13.jpg,FN,3,num_2,32,num_6,1.38338848436,,,2018_Mar_01_1703,60.0014432867,FEMA4ImagesEEG,001,103213,
AFNE01.JPG,AFNE01.JPG,AFNE01.JPG,AFNE01.JPG,AFNE01.JPG,AFNE01.JPG,,,,,,,,,,,,,,,,,3,6,36,0,,,,,,,AFSA09.jpg,AFNE20.jpg,AFSA10.jpg,AFNE08.jpg,AFSA09.jpg,FS,4,num_8,16,num_8,1.03349732701,,,2018_Mar_01_1703,60.0014432867,FEMA4ImagesEEG,001,103213,
AFNE01.JPG,AFNE01.JPG,AFNE01.JPG,AFNE01.JPG,AFNE01.JPG,AFNE01.JPG,,,,,,,,,,,,,,,,,3,7,37,9,,,,,,,AFNE17.jpg,AFSA10.jpg,AFNE08.jpg,AFSA07.jpg,AFSA07.jpg,FS,4,num_4,16,num_4,1.20005253702,,,2018_Mar_01_1703,60.0014432867,FEMA4ImagesEEG,001,103213,
AFNE01.JPG,AFNE01.JPG,AFNE01.JPG,AFNE01.JPG,AFNE01.JPG,AFNE01.JPG,,,,,,,,,,,,,,,,,3,8,38,3,,,,,,,AFSA08.jpg,AFSA06.jpg,AFNE15.jpg,AFNE16.jpg,AFNE16.jpg,FN,3,num_4,32,num_2,0.916777241277,,,2018_Mar_01_1703,60.0014432867,FEMA4ImagesEEG,001,103213,
AFNE01.JPG,AFNE01.JPG,AFNE01.JPG,AFNE01.JPG,AFNE01.JPG,AFNE01.JPG,,,,,,,,,,,,,,,,,3,9,39,7,,,,,,,AFSA06.jpg,AFSA02.jpg,AFNE19.jpg,AFNE10.jpg,AFNE10.jpg,FN,3,num_4,16,num_4,0.817081654677,,,2018_Mar_01_1703,60.0014432867,FEMA4ImagesEEG,001,103213,
AFNE01.JPG,AFNE01.JPG,AFNE01.JPG,AFNE01.JPG,AFNE01.JPG,AFNE01.JPG,,,,,,,,,,,,,,,,,4,0,40,6,,,,,,,AFNE04.jpg,AFSA04.jpg,AFSA01.jpg,AFNE11.jpg,AFNE04.jpg,FN,3,num_8,16,num_8,0.966721416684,,,2018_Mar_01_1703,60.0014432867,FEMA4ImagesEEG,001,103213,
AFNE01.JPG,AFNE01.JPG,AFNE01.JPG,AFNE01.JPG,AFNE01.JPG,AFNE01.JPG,,,,,,,,,,,,,,,,,4,1,41,3,,,,,,,AFNE06.jpg,AFSA17.jpg,AFSA20.jpg,AFNE02.jpg,AFSA17.jpg,FS,4,num_6,32,num_2,1.11673291516,,,2018_Mar_01_1703,60.0014432867,FEMA4ImagesEEG,001,103213,
AFNE01.JPG,AFNE01.JPG,AFNE01.JPG,AFNE01.JPG,AFNE01.JPG,AFNE01.JPG,,,,,,,,,,,,,,,,,4,2,42,0,,,,,,,AFNE06.jpg,AFSA19.jpg,AFNE07.jpg,AFSA13.jpg,AFNE06.jpg,FN,3,num_8,16,num_8,0.816877985606,,,2018_Mar_01_1703,60.0014432867,FEMA4ImagesEEG,001,103213,
AFNE01.JPG,AFNE01.JPG,AFNE01.JPG,AFNE01.JPG,AFNE01.JPG,AFNE01.JPG,,,,,,,,,,,,,,,,,4,3,43,9,,,,,,,AFSA12.jpg,AFSA15.jpg,AFNE19.jpg,AFNE11.jpg,AFSA15.jpg,FS,4,num_6,32,num_4,1.21661036112,,,2018_Mar_01_1703,60.0014432867,FEMA4ImagesEEG,001,103213,
AFNE01.JPG,AFNE01.JPG,AFNE01.JPG,AFNE01.JPG,AFNE01.JPG,AFNE01.JPG,,,,,,,,,,,,,,,,,4,4,44,1,,,,,,,AFNE19.jpg,AFSA14.jpg,AFNE17.jpg,AFSA13.jpg,AFNE17.jpg,FN,3,num_2,16,num_2,0.850121608004,,,2018_Mar_01_1703,60.0014432867,FEMA4ImagesEEG,001,103213,
AFNE01.JPG,AFNE01.JPG,AFNE01.JPG,AFNE01.JPG,AFNE01.JPG,AFNE01.JPG,,,,,,,,,,,,,,,,,4,5,45,5,,,,,,,AFSA06.jpg,AFNE12.jpg,AFSA02.jpg,AFNE15.jpg,AFSA06.jpg,FS,4,num_8,32,num_2,1.68340699119,,,2018_Mar_01_1703,60.0014432867,FEMA4ImagesEEG,001,103213,
AFNE01.JPG,AFNE01.JPG,AFNE01.JPG,AFNE01.JPG,AFNE01.JPG,AFNE01.JPG,,,,,,,,,,,,,,,,,4,6,46,7,,,,,,,AFNE16.jpg,AFSA07.jpg,AFNE12.jpg,AFSA20.jpg,AFNE12.jpg,FN,3,num_2,32,num_8,0.850260808831,,,2018_Mar_01_1703,60.0014432867,FEMA4ImagesEEG,001,103213,
AFNE01.JPG,AFNE01.JPG,AFNE01.JPG,AFNE01.JPG,AFNE01.JPG,AFNE01.JPG,,,,,,,,,,,,,,,,,4,7,47,8,,,,,,,AFSA06.jpg,AFNE15.jpg,AFNE07.jpg,AFSA04.jpg,AFSA04.jpg,FS,4,num_4,16,num_4,1.0334726302,,,2018_Mar_01_1703,60.0014432867,FEMA4ImagesEEG,001,103213,
AFNE01.JPG,AFNE01.JPG,AFNE01.JPG,AFNE01.JPG,AFNE01.JPG,AFNE01.JPG,,,,,,,,,,,,,,,,,4,8,48,4,,,,,,,AFSA08.jpg,AFSA02.jpg,AFNE13.jpg,AFNE05.jpg,AFSA02.jpg,FS,4,num_6,16,num_6,1.50006847782,,,2018_Mar_01_1703,60.0014432867,FEMA4ImagesEEG,001,103213,
AFNE01.JPG,AFNE01.JPG,AFNE01.JPG,AFNE01.JPG,AFNE01.JPG,AFNE01.JPG,,,,,,,,,,,,,,,,,4,9,49,2,,,,,,,AFNE18.jpg,AFSA09.jpg,AFSA02.jpg,AFNE20.jpg,AFNE20.jpg,FN,3,num_4,16,num_4,1.21677393792,,,2018_Mar_01_1703,60.0014432867,FEMA4ImagesEEG,001,103213,
AFNE01.JPG,AFNE01.JPG,AFNE01.JPG,AFNE01.JPG,AFNE01.JPG,AFNE01.JPG,,,,,,,,,,,,,,,,,5,0,50,9,,,,,,,AFNE19.jpg,AFSA11.jpg,AFNE03.jpg,AFSA17.jpg,AFNE03.jpg,FN,3,num_2,16,num_2,0.900103630731,,,2018_Mar_01_1703,60.0014432867,FEMA4ImagesEEG,001,103213,
AFNE01.JPG,AFNE01.JPG,AFNE01.JPG,AFNE01.JPG,AFNE01.JPG,AFNE01.JPG,,,,,,,,,,,,,,,,,5,1,51,6,,,,,,,AFNE14.jpg,AFNE07.jpg,AFSA04.jpg,AFSA13.jpg,AFSA13.jpg,FS,4,num_4,16,num_4,0.966628723312,,,2018_Mar_01_1703,60.0014432867,FEMA4ImagesEEG,001,103213,
AFNE01.JPG,AFNE01.JPG,AFNE01.JPG,AFNE01.JPG,AFNE01.JPG,AFNE01.JPG,,,,,,,,,,,,,,,,,5,2,52,5,,,,,,,AFSA02.jpg,AFNE13.jpg,AFNE01.jpg,AFSA14.jpg,AFSA14.jpg,FS,4,num_4,32,num_6,0.850120325107,,,2018_Mar_01_1703,60.0014432867,FEMA4ImagesEEG,001,103213,
AFNE01.JPG,AFNE01.JPG,AFNE01.JPG,AFNE01.JPG,AFNE01.JPG,AFNE01.JPG,,,,,,,,,,,,,,,,,5,3,53,3,,,,,,,AFNE03.jpg,AFSA08.jpg,AFNE10.jpg,AFSA06.jpg,AFSA08.jpg,FS,4,num_6,16,num_6,1.06673806324,,,2018_Mar_01_1703,60.0014432867,FEMA4ImagesEEG,001,103213,
AFNE01.JPG,AFNE01.JPG,AFNE01.JPG,AFNE01.JPG,AFNE01.JPG,AFNE01.JPG,,,,,,,,,,,,,,,,,5,4,54,1,,,,,,,AFNE08.jpg,AFSA17.jpg,AFNE04.jpg,AFSA13.jpg,AFNE08.jpg,FN,3,num_8,16,num_8,1.16674669087,,,2018_Mar_01_1703,60.0014432867,FEMA4ImagesEEG,001,103213,
AFNE01.JPG,AFNE01.JPG,AFNE01.JPG,AFNE01.JPG,AFNE01.JPG,AFNE01.JPG,,,,,,,,,,,,,,,,,5,5,55,7,,,,,,,AFSA13.jpg,AFSA17.jpg,AFNE13.jpg,AFNE01.jpg,AFNE13.jpg,FN,3,num_2,16,num_2,1.08341359813,,,2018_Mar_01_1703,60.0014432867,FEMA4ImagesEEG,001,103213,
AFNE01.JPG,AFNE01.JPG,AFNE01.JPG,AFNE01.JPG,AFNE01.JPG,AFNE01.JPG,,,,,,,,,,,,,,,,,5,6,56,2,,,,,,,AFSA20.jpg,AFSA05.jpg,AFNE08.jpg,AFNE20.jpg,AFSA20.jpg,FS,4,num_8,32,num_4,1.01680222689,,,2018_Mar_01_1703,60.0014432867,FEMA4ImagesEEG,001,103213,
AFNE01.JPG,AFNE01.JPG,AFNE01.JPG,AFNE01.JPG,AFNE01.JPG,AFNE01.JPG,,,,,,,,,,,,,,,,,5,7,57,4,,,,,,,AFNE09.jpg,AFSA06.jpg,AFSA15.jpg,AFNE17.jpg,AFNE09.jpg,FN,3,num_8,32,num_6,1.13339305483,,,2018_Mar_01_1703,60.0014432867,FEMA4ImagesEEG,001,103213,
AFNE01.JPG,AFNE01.JPG,AFNE01.JPG,AFNE01.JPG,AFNE01.JPG,AFNE01.JPG,,,,,,,,,,,,,,,,,5,8,58,0,,,,,,,AFSA01.jpg,AFSA16.jpg,AFNE13.jpg,AFNE16.jpg,AFSA16.jpg,FS,4,num_6,32,num_2,0.883449264569,,,2018_Mar_01_1703,60.0014432867,FEMA4ImagesEEG,001,103213,
AFNE01.JPG,AFNE01.JPG,AFNE01.JPG,AFNE01.JPG,AFNE01.JPG,AFNE01.JPG,,,,,,,,,,,,,,,,,5,9,59,8,,,,,,,AFSA13.jpg,AFNE01.jpg,AFSA11.jpg,AFNE11.jpg,AFNE11.jpg,FN,3,num_4,16,num_4,0.850111665204,,,2018_Mar_01_1703,60.0014432867,FEMA4ImagesEEG,001,103213,
,,,,,,,,,,,,,,,,,,,,,,,,,,,,,,,,,,,,,,,,,,,space,31.3980189883,2018_Mar_01_1703,60.0014432867,FEMA4ImagesEEG,001,103213,
AFNE01.JPG,AFNE01.JPG,AFNE01.JPG,AFNE01.JPG,AFNE01.JPG,AFNE01.JPG,,,,,,,,,,,,,,,,,,,,,0,0,0,3,,,AMSA10.jpg,AMNE07.jpg,AMSA09.jpg,AMNE09.jpg,AMNE07.jpg,MN,1,num_6,16,num_6,0.433528951835,,,2018_Mar_01_1703,60.0014432867,FEMA4ImagesEEG,001,103213,
AFNE01.JPG,AFNE01.JPG,AFNE01.JPG,AFNE01.JPG,AFNE01.JPG,AFNE01.JPG,,,,,,,,,,,,,,,,,,,,,0,1,1,1,,,AMNE20.jpg,AMSA03.jpg,AMNE01.jpg,AMSA15.jpg,AMSA15.jpg,MS,2,num_4,32,num_6,0.616975875106,,,2018_Mar_01_1703,60.0014432867,FEMA4ImagesEEG,001,103213,
AFNE01.JPG,AFNE01.JPG,AFNE01.JPG,AFNE01.JPG,AFNE01.JPG,AFNE01.JPG,,,,,,,,,,,,,,,,,,,,,0,2,2,4,,,AMNE04.jpg,AMNE06.jpg,AMSA20.jpg,AMSA17.jpg,AMNE06.jpg,MN,1,num_6,32,num_4,0.599988581613,,,2018_Mar_01_1703,60.0014432867,FEMA4ImagesEEG,001,103213,
AFNE01.JPG,AFNE01.JPG,AFNE01.JPG,AFNE01.JPG,AFNE01.JPG,AFNE01.JPG,,,,,,,,,,,,,,,,,,,,,0,3,3,8,,,AMNE19.jpg,AMNE06.jpg,AMSA17.jpg,AMSA05.jpg,AMSA17.jpg,MS,2,num_2,32,num_6,0.650107880589,,,2018_Mar_01_1703,60.0014432867,FEMA4ImagesEEG,001,103213,
AFNE01.JPG,AFNE01.JPG,AFNE01.JPG,AFNE01.JPG,AFNE01.JPG,AFNE01.JPG,,,,,,,,,,,,,,,,,,,,,0,4,4,5,,,AMNE10.jpg,AMSA05.jpg,AMNE15.jpg,AMSA02.jpg,AMNE10.jpg,MN,1,num_8,32,num_6,0.566787617514,,,2018_Mar_01_1703,60.0014432867,FEMA4ImagesEEG,001,103213,
AFNE01.JPG,AFNE01.JPG,AFNE01.JPG,AFNE01.JPG,AFNE01.JPG,AFNE01.JPG,,,,,,,,,,,,,,,,,,,,,0,5,5,7,,,AMSA14.jpg,AMSA18.jpg,AMNE18.jpg,AMNE03.jpg,AMNE03.jpg,MN,1,num_4,32,num_2,1.36658914411,,,2018_Mar_01_1703,60.0014432867,FEMA4ImagesEEG,001,103213,
AFNE01.JPG,AFNE01.JPG,AFNE01.JPG,AFNE01.JPG,AFNE01.JPG,AFNE01.JPG,,,,,,,,,,,,,,,,,,,,,0,6,6,0,,,AMNE18.jpg,AMNE06.jpg,AMSA20.jpg,AMSA02.jpg,AMSA20.jpg,MS,2,num_2,32,num_8,1.13349312544,,,2018_Mar_01_1703,60.0014432867,FEMA4ImagesEEG,001,103213,
AFNE01.JPG,AFNE01.JPG,AFNE01.JPG,AFNE01.JPG,AFNE01.JPG,AFNE01.JPG,,,,,,,,,,,,,,,,,,,,,0,7,7,9,,,AMSA18.jpg,AMSA09.jpg,AMNE17.jpg,AMNE11.jpg,AMSA18.jpg,MS,2,num_8,32,num_6,1.21677105105,,,2018_Mar_01_1703,60.0014432867,FEMA4ImagesEEG,001,103213,
AFNE01.JPG,AFNE01.JPG,AFNE01.JPG,AFNE01.JPG,AFNE01.JPG,AFNE01.JPG,,,,,,,,,,,,,,,,,,,,,0,8,8,6,,,AMNE07.jpg,AMNE18.jpg,AMSA19.jpg,AMSA04.jpg,AMSA04.jpg,MS,2,num_4,16,num_4,1.01675636112,,,2018_Mar_01_1703,60.0014432867,FEMA4ImagesEEG,001,103213,
AFNE01.JPG,AFNE01.JPG,AFNE01.JPG,AFNE01.JPG,AFNE01.JPG,AFNE01.JPG,,,,,,,,,,,,,,,,,,,,,0,9,9,2,,,AMSA02.jpg,AMNE18.jpg,AMSA12.jpg,AMNE02.jpg,AMSA02.jpg,MS,2,num_8,32,num_2,1.86679810542,,,2018_Mar_01_1703,60.0014432867,FEMA4ImagesEEG,001,103213,
AFNE01.JPG,AFNE01.JPG,AFNE01.JPG,AFNE01.JPG,AFNE01.JPG,AFNE01.JPG,,,,,,,,,,,,,,,,,,,,,1,0,10,1,,,AMSA18.jpg,AMNE09.jpg,AMSA04.jpg,AMNE14.jpg,AMNE14.jpg,MN,1,num_4,32,num_8,1.36661191657,,,2018_Mar_01_1703,60.0014432867,FEMA4ImagesEEG,001,103213,
AFNE01.JPG,AFNE01.JPG,AFNE01.JPG,AFNE01.JPG,AFNE01.JPG,AFNE01.JPG,,,,,,,,,,,,,,,,,,,,,1,1,11,7,,,AMNE09.jpg,AMSA09.jpg,AMSA02.jpg,AMNE18.jpg,AMNE09.jpg,MN,1,num_8,32,num_2,1.00019148109,,,2018_Mar_01_1703,60.0014432867,FEMA4ImagesEEG,001,103213,
AFNE01.JPG,AFNE01.JPG,AFNE01.JPG,AFNE01.JPG,AFNE01.JPG,AFNE01.JPG,,,,,,,,,,,,,,,,,,,,,1,2,12,0,,,AMSA09.jpg,AMNE19.jpg,AMNE13.jpg,AMSA07.jpg,AMSA07.jpg,MS,2,num_4,16,num_4,0.900102668675,,,2018_Mar_01_1703,60.0014432867,FEMA4ImagesEEG,001,103213,
AFNE01.JPG,AFNE01.JPG,AFNE01.JPG,AFNE01.JPG,AFNE01.JPG,AFNE01.JPG,,,,,,,,,,,,,,,,,,,,,1,3,13,2,,,AMNE14.jpg,AMSA02.jpg,AMNE17.jpg,AMSA19.jpg,AMNE14.jpg,MN,1,num_8,32,num_6,1.26669758582,,,2018_Mar_01_1703,60.0014432867,FEMA4ImagesEEG,001,103213,
AFNE01.JPG,AFNE01.JPG,AFNE01.JPG,AFNE01.JPG,AFNE01.JPG,AFNE01.JPG,,,,,,,,,,,,,,,,,,,,,1,4,14,6,,,AMNE04.jpg,AMNE20.jpg,AMSA19.jpg,AMSA18.jpg,AMNE04.jpg,MN,1,num_8,16,num_8,1.06675474159,,,2018_Mar_01_1703,60.0014432867,FEMA4ImagesEEG,001,103213,
AFNE01.JPG,AFNE01.JPG,AFNE01.JPG,AFNE01.JPG,AFNE01.JPG,AFNE01.JPG,,,,,,,,,,,,,,,,,,,,,1,5,15,9,,,AMNE15.jpg,AMSA05.jpg,AMNE18.jpg,AMSA14.jpg,AMNE18.jpg,MN,1,num_2,32,num_6,1.03345146147,,,2018_Mar_01_1703,60.0014432867,FEMA4ImagesEEG,001,103213,
AFNE01.JPG,AFNE01.JPG,AFNE01.JPG,AFNE01.JPG,AFNE01.JPG,AFNE01.JPG,,,,,,,,,,,,,,,,,,,,,1,6,16,8,,,AMNE02.jpg,AMSA17.jpg,AMNE05.jpg,AMSA04.jpg,AMSA04.jpg,MS,2,num_4,16,num_4,1.05036241887,,,2018_Mar_01_1703,60.0014432867,FEMA4ImagesEEG,001,103213,
AFNE01.JPG,AFNE01.JPG,AFNE01.JPG,AFNE01.JPG,AFNE01.JPG,AFNE01.JPG,,,,,,,,,,,,,,,,,,,,,1,7,17,3,,,AMSA17.jpg,AMSA15.jpg,AMNE07.jpg,AMNE15.jpg,AMNE07.jpg,MN,1,num_2,32,num_4,1.20012181648,,,2018_Mar_01_1703,60.0014432867,FEMA4ImagesEEG,001,103213,
AFNE01.JPG,AFNE01.JPG,AFNE01.JPG,AFNE01.JPG,AFNE01.JPG,AFNE01.JPG,,,,,,,,,,,,,,,,,,,,,1,8,18,5,,,AMSA04.jpg,AMNE11.jpg,AMNE14.jpg,AMSA14.jpg,AMSA04.jpg,MS,2,num_8,16,num_8,1.48326272285,,,2018_Mar_01_1703,60.0014432867,FEMA4ImagesEEG,001,103213,
AFNE01.JPG,AFNE01.JPG,AFNE01.JPG,AFNE01.JPG,AFNE01.JPG,AFNE01.JPG,,,,,,,,,,,,,,,,,,,,,1,9,19,4,,,AMSA06.jpg,AMNE13.jpg,AMSA11.jpg,AMNE06.jpg,AMNE13.jpg,MN,1,num_6,32,num_2,1.70008316753,,,2018_Mar_01_1703,60.0014432867,FEMA4ImagesEEG,001,103213,
AFNE01.JPG,AFNE01.JPG,AFNE01.JPG,AFNE01.JPG,AFNE01.JPG,AFNE01.JPG,,,,,,,,,,,,,,,,,,,,,2,0,20,9,,,AMNE13.jpg,AMNE03.jpg,AMSA15.jpg,AMSA17.jpg,AMNE03.jpg,MN,1,num_6,32,num_8,1.75003760681,,,2018_Mar_01_1703,60.0014432867,FEMA4ImagesEEG,001,103213,
AFNE01.JPG,AFNE01.JPG,AFNE01.JPG,AFNE01.JPG,AFNE01.JPG,AFNE01.JPG,,,,,,,,,,,,,,,,,,,,,2,1,21,6,,,AMSA18.jpg,AMNE11.jpg,AMSA19.jpg,AMNE10.jpg,AMSA19.jpg,MS,2,num_2,16,num_2,1.18347226153,,,2018_Mar_01_1703,60.0014432867,FEMA4ImagesEEG,001,103213,
AFNE01.JPG,AFNE01.JPG,AFNE01.JPG,AFNE01.JPG,AFNE01.JPG,AFNE01.JPG,,,,,,,,,,,,,,,,,,,,,2,2,22,1,,,AMNE19.jpg,AMNE16.jpg,AMSA10.jpg,AMSA19.jpg,AMSA10.jpg,MS,2,num_2,32,num_8,0.883489998057,,,2018_Mar_01_1703,60.0014432867,FEMA4ImagesEEG,001,103213,
AFNE01.JPG,AFNE01.JPG,AFNE01.JPG,AFNE01.JPG,AFNE01.JPG,AFNE01.JPG,,,,,,,,,,,,,,,,,,,,,2,3,23,2,,,AMNE06.jpg,AMSA14.jpg,AMNE16.jpg,AMSA18.jpg,AMNE16.jpg,MN,1,num_2,16,num_2,1.45008196472,,,2018_Mar_01_1703,60.0014432867,FEMA4ImagesEEG,001,103213,
AFNE01.JPG,AFNE01.JPG,AFNE01.JPG,AFNE01.JPG,AFNE01.JPG,AFNE01.JPG,,,,,,,,,,,,,,,,,,,,,2,4,24,7,,,AMNE02.jpg,AMSA08.jpg,AMNE08.jpg,AMSA14.jpg,AMNE02.jpg,MN,1,num_8,16,num_8,1.25009485846,,,2018_Mar_01_1703,60.0014432867,FEMA4ImagesEEG,001,103213,
AFNE01.JPG,AFNE01.JPG,AFNE01.JPG,AFNE01.JPG,AFNE01.JPG,AFNE01.JPG,,,,,,,,,,,,,,,,,,,,,2,5,25,5,,,AMNE15.jpg,AMSA08.jpg,AMSA07.jpg,AMNE13.jpg,AMSA08.jpg,MS,2,num_6,16,num_6,1.33342249878,,,2018_Mar_01_1703,60.0014432867,FEMA4ImagesEEG,001,103213,
AFNE01.JPG,AFNE01.JPG,AFNE01.JPG,AFNE01.JPG,AFNE01.JPG,AFNE01.JPG,,,,,,,,,,,,,,,,,,,,,2,6,26,3,,,AMNE18.jpg,AMSA03.jpg,AMSA17.jpg,AMNE16.jpg,AMNE16.jpg,MN,1,num_4,16,num_4,1.26683261711,,,2018_Mar_01_1703,60.0014432867,FEMA4ImagesEEG,001,103213,
AFNE01.JPG,AFNE01.JPG,AFNE01.JPG,AFNE01.JPG,AFNE01.JPG,AFNE01.JPG,,,,,,,,,,,,,,,,,,,,,2,7,27,4,,,AMSA17.jpg,AMNE10.jpg,AMSA07.jpg,AMNE09.jpg,AMSA07.jpg,MS,2,num_2,16,num_2,1.30008361652,,,2018_Mar_01_1703,60.0014432867,FEMA4ImagesEEG,001,103213,
AFNE01.JPG,AFNE01.JPG,AFNE01.JPG,AFNE01.JPG,AFNE01.JPG,AFNE01.JPG,,,,,,,,,,,,,,,,,,,,,2,8,28,0,,,AMSA03.jpg,AMNE11.jpg,AMSA17.jpg,AMNE15.jpg,AMSA03.jpg,MS,2,num_8,16,num_8,0.583496830193,,,2018_Mar_01_1703,60.0014432867,FEMA4ImagesEEG,001,103213,
AFNE01.JPG,AFNE01.JPG,AFNE01.JPG,AFNE01.JPG,AFNE01.JPG,AFNE01.JPG,,,,,,,,,,,,,,,,,,,,,2,9,29,8,,,AMNE15.jpg,AMSA09.jpg,AMSA15.jpg,AMNE07.jpg,AMNE07.jpg,MN,1,num_4,32,num_2,1.23344402038,,,2018_Mar_01_1703,60.0014432867,FEMA4ImagesEEG,001,103213,
AFNE01.JPG,AFNE01.JPG,AFNE01.JPG,AFNE01.JPG,AFNE01.JPG,AFNE01.JPG,,,,,,,,,,,,,,,,,,,,,3,0,30,9,,,AMSA08.jpg,AMSA10.jpg,AMNE10.jpg,AMNE16.jpg,AMNE10.jpg,MN,1,num_2,32,num_6,1.48339422559,,,2018_Mar_01_1703,60.0014432867,FEMA4ImagesEEG,001,103213,
AFNE01.JPG,AFNE01.JPG,AFNE01.JPG,AFNE01.JPG,AFNE01.JPG,AFNE01.JPG,,,,,,,,,,,,,,,,,,,,,3,1,31,1,,,AMNE12.jpg,AMSA20.jpg,AMNE19.jpg,AMSA14.jpg,AMSA14.jpg,MS,2,num_4,32,num_6,1.46670650248,,,2018_Mar_01_1703,60.0014432867,FEMA4ImagesEEG,001,103213,
AFNE01.JPG,AFNE01.JPG,AFNE01.JPG,AFNE01.JPG,AFNE01.JPG,AFNE01.JPG,,,,,,,,,,,,,,,,,,,,,3,2,32,7,,,AMNE08.jpg,AMSA03.jpg,AMSA11.jpg,AMNE03.jpg,AMSA03.jpg,MS,2,num_6,16,num_6,0.883460810874,,,2018_Mar_01_1703,60.0014432867,FEMA4ImagesEEG,001,103213,
AFNE01.JPG,AFNE01.JPG,AFNE01.JPG,AFNE01.JPG,AFNE01.JPG,AFNE01.JPG,,,,,,,,,,,,,,,,,,,,,3,3,33,5,,,AMNE16.jpg,AMSA15.jpg,AMSA03.jpg,AMNE09.jpg,AMSA03.jpg,MS,2,num_2,32,num_6,1.10009618942,,,2018_Mar_01_1703,60.0014432867,FEMA4ImagesEEG,001,103213,
AFNE01.JPG,AFNE01.JPG,AFNE01.JPG,AFNE01.JPG,AFNE01.JPG,AFNE01.JPG,,,,,,,,,,,,,,,,,,,,,3,4,34,4,,,AMNE20.jpg,AMSA10.jpg,AMSA14.jpg,AMNE07.jpg,AMSA10.jpg,MS,2,num_6,32,num_8,0.833503806032,,,2018_Mar_01_1703,60.0014432867,FEMA4ImagesEEG,001,103213,
AFNE01.JPG,AFNE01.JPG,AFNE01.JPG,AFNE01.JPG,AFNE01.JPG,AFNE01.JPG,,,,,,,,,,,,,,,,,,,,,3,5,35,6,,,AMSA06.jpg,AMNE06.jpg,AMNE13.jpg,AMSA09.jpg,AMSA09.jpg,MS,2,num_4,32,num_6,1.2000913464,,,2018_Mar_01_1703,60.0014432867,FEMA4ImagesEEG,001,103213,
AFNE01.JPG,AFNE01.JPG,AFNE01.JPG,AFNE01.JPG,AFNE01.JPG,AFNE01.JPG,,,,,,,,,,,,,,,,,,,,,3,6,36,8,,,AMSA04.jpg,AMNE09.jpg,AMNE12.jpg,AMSA01.jpg,AMNE09.jpg,MN,1,num_6,32,num_2,1.10010228376,,,2018_Mar_01_1703,60.0014432867,FEMA4ImagesEEG,001,103213,
AFNE01.JPG,AFNE01.JPG,AFNE01.JPG,AFNE01.JPG,AFNE01.JPG,AFNE01.JPG,,,,,,,,,,,,,,,,,,,,,3,7,37,2,,,AMSA20.jpg,AMNE06.jpg,AMSA16.jpg,AMNE15.jpg,AMSA16.jpg,MS,2,num_2,32,num_8,0.983767084545,,,2018_Mar_01_1703,60.0014432867,FEMA4ImagesEEG,001,103213,
AFNE01.JPG,AFNE01.JPG,AFNE01.JPG,AFNE01.JPG,AFNE01.JPG,AFNE01.JPG,,,,,,,,,,,,,,,,,,,,,3,8,38,0,,,AMNE16.jpg,AMSA12.jpg,AMSA11.jpg,AMNE01.jpg,AMNE01.jpg,MN,1,num_4,16,num_4,1.53340415237,,,2018_Mar_01_1703,60.0014432867,FEMA4ImagesEEG,001,103213,
