IPosition2,IPosition3,IPosition1,IPosition6,IPosition4,IPosition5,TrialsF1.thisRepN,TrialsF1.thisTrialN,TrialsF1.thisN,TrialsF1.thisIndex,TrialsM1.thisRepN,TrialsM1.thisTrialN,TrialsM1.thisN,TrialsM1.thisIndex,TrialsF2.thisRepN,TrialsF2.thisTrialN,TrialsF2.thisN,TrialsF2.thisIndex,TrialsM2.thisRepN,TrialsM2.thisTrialN,TrialsM2.thisN,TrialsM2.thisIndex,TrialsF3.thisRepN,TrialsF3.thisTrialN,TrialsF3.thisN,TrialsF3.thisIndex,TrialsM3.thisRepN,TrialsM3.thisTrialN,TrialsM3.thisN,TrialsM3.thisIndex,InstrKey_resp.keys,InstrKey_resp.rt,Image0 _Position,Image1 _Position,Image2 _Position,Image3 _Position,Center_image,condition,code,correct_answer,accuracy,Key_Resp.keys,Key_Resp.rt,BreakKey_resp.keys,BreakKey_resp.rt,date,frameRate,expName,session,participant,
,,,,,,,,,,,,,,,,,,,,,,,,,,,,,,space,9.79956129333,,,,,,,,,,,,,,2018_Mar_21_1151,59.9972866213,FEMA4ImagesEEG,001,103292,
AMSA21.JPG,AMNE22.JPG,AMNE21.JPG,AMSA23.JPG,AMSA22.JPG,AMNE23.JPG,0,0,0,1,,,,,,,,,,,,,,,,,,,,,,,AFSA11.jpg,AFNE05.jpg,AFSA17.jpg,AFNE10.jpg,AFSA11.jpg,FS,4,num_8,16,num_8,1.03347776225,,,2018_Mar_21_1151,59.9972866213,FEMA4ImagesEEG,001,103292,
AMSA21.JPG,AMNE23.JPG,AMNE21.JPG,AMSA25.JPG,AMNE25.JPG,AMSA23.JPG,0,1,1,5,,,,,,,,,,,,,,,,,,,,,,,AFNE12.jpg,AFSA12.jpg,AFSA20.jpg,AFNE20.jpg,AFSA20.jpg,FS,4,num_2,32,num_4,1.95004748506,,,2018_Mar_21_1151,59.9972866213,FEMA4ImagesEEG,001,103292,
AFSA21.JPG,AFNE22.JPG,AFNE21.JPG,AFSA23.JPG,AFSA22.JPG,AFNE23.JPG,0,2,2,0,,,,,,,,,,,,,,,,,,,,,,,AFNE10.jpg,AFSA12.jpg,AFNE20.jpg,AFSA05.jpg,AFNE20.jpg,FN,3,num_2,16,num_2,1.33332499396,,,2018_Mar_21_1151,59.9972866213,FEMA4ImagesEEG,001,103292,
AFSA21.JPG,AFNE23.JPG,AFNE21.JPG,AFSA25.JPG,AFNE25.JPG,AFSA23.JPG,0,3,3,4,,,,,,,,,,,,,,,,,,,,,,,AFSA11.jpg,AFSA13.jpg,AFNE05.jpg,AFNE06.jpg,AFNE05.jpg,FN,3,num_2,32,num_8,1.05015041074,,,2018_Mar_21_1151,59.9972866213,FEMA4ImagesEEG,001,103292,
AMSA25.JPG,AMNE24.JPG,AMSA24.JPG,AMNE26.JPG,AMSA21.JPG,AMNE25.JPG,0,4,4,3,,,,,,,,,,,,,,,,,,,,,,,AFSA12.jpg,AFSA13.jpg,AFNE20.jpg,AFNE18.jpg,AFSA13.jpg,FS,4,num_6,32,num_4,2.03344761254,,,2018_Mar_21_1151,59.9972866213,FEMA4ImagesEEG,001,103292,
AFSA25.JPG,AFNE24.JPG,AFSA24.JPG,AFNE21.JPG,AFSA21.JPG,AFNE25.JPG,0,5,5,2,,,,,,,,,,,,,,,,,,,,,,,AFSA11.jpg,AFSA15.jpg,AFNE05.jpg,AFNE02.jpg,AFSA11.jpg,FS,4,num_8,16,num_8,0.950095275417,,,2018_Mar_21_1151,59.9972866213,FEMA4ImagesEEG,001,103292,
AMNE23.JPG,AMNE24.JPG,AMNE22.JPG,AMSA24.JPG,AMSA22.JPG,AMSA23.JPG,0,6,6,9,,,,,,,,,,,,,,,,,,,,,,,AFNE07.jpg,AFSA01.jpg,AFNE11.jpg,AFSA08.jpg,AFSA08.jpg,FS,4,num_4,32,num_2,3.06646415219,,,2018_Mar_21_1151,59.9972866213,FEMA4ImagesEEG,001,103292,
AFNE22.JPG,AFSA24.JPG,AFSA22.JPG,AFNE25.JPG,AFNE24.JPG,AFSA25.JPG,0,7,7,6,,,,,,,,,,,,,,,,,,,,,,,AFSA12.jpg,AFSA15.jpg,AFNE02.jpg,AFNE06.jpg,AFNE06.jpg,FN,3,num_4,32,num_8,1.85007510101,,,2018_Mar_21_1151,59.9972866213,FEMA4ImagesEEG,001,103292,
AMNE22.JPG,AMSA24.JPG,AMSA22.JPG,AMNE25.JPG,AMNE24.JPG,AMSA25.JPG,0,8,8,7,,,,,,,,,,,,,,,,,,,,,,,AFNE10.jpg,AFSA09.jpg,AFNE02.jpg,AFSA06.jpg,AFNE02.jpg,FN,3,num_2,32,num_8,0.983443779871,,,2018_Mar_21_1151,59.9972866213,FEMA4ImagesEEG,001,103292,
AFNE23.JPG,AFNE24.JPG,AFNE22.JPG,AFSA24.JPG,AFSA22.JPG,AFSA23.JPG,0,9,9,8,,,,,,,,,,,,,,,,,,,,,,,AFNE09.jpg,AFSA09.jpg,AFNE13.jpg,AFSA11.jpg,AFNE13.jpg,FN,3,num_2,16,num_2,1.79989742767,,,2018_Mar_21_1151,59.9972866213,FEMA4ImagesEEG,001,103292,
AFNE23.JPG,AFNE24.JPG,AFNE22.JPG,AFSA24.JPG,AFSA22.JPG,AFSA23.JPG,,,,,0,0,0,8,,,,,,,,,,,,,,,,,,,AMNE03.jpg,AMSA15.jpg,AMNE16.jpg,AMSA19.jpg,AMNE03.jpg,MN,1,num_8,16,num_8,1.10017092153,,,2018_Mar_21_1151,59.9972866213,FEMA4ImagesEEG,001,103292,
AMNE23.JPG,AMNE24.JPG,AMNE22.JPG,AMSA24.JPG,AMSA22.JPG,AMSA23.JPG,,,,,0,1,1,9,,,,,,,,,,,,,,,,,,,AMSA10.jpg,AMNE02.jpg,AMNE19.jpg,AMSA06.jpg,AMNE19.jpg,MN,1,num_2,32,num_8,0.849944239482,,,2018_Mar_21_1151,59.9972866213,FEMA4ImagesEEG,001,103292,
AFSA21.JPG,AFNE22.JPG,AFNE21.JPG,AFSA23.JPG,AFSA22.JPG,AFNE23.JPG,,,,,0,2,2,0,,,,,,,,,,,,,,,,,,,AMSA20.jpg,AMNE18.jpg,AMNE09.jpg,AMSA14.jpg,AMSA20.jpg,MS,2,num_8,32,num_6,1.61669202102,,,2018_Mar_21_1151,59.9972866213,FEMA4ImagesEEG,001,103292,
AMNE22.JPG,AMSA24.JPG,AMSA22.JPG,AMNE25.JPG,AMNE24.JPG,AMSA25.JPG,,,,,0,3,3,7,,,,,,,,,,,,,,,,,,,AMNE20.jpg,AMSA03.jpg,AMSA18.jpg,AMNE10.jpg,AMSA03.jpg,MS,2,num_6,32,num_2,2.36670364812,,,2018_Mar_21_1151,59.9972866213,FEMA4ImagesEEG,001,103292,
AFSA21.JPG,AFNE23.JPG,AFNE21.JPG,AFSA25.JPG,AFNE25.JPG,AFSA23.JPG,,,,,0,4,4,4,,,,,,,,,,,,,,,,,,,AMSA05.jpg,AMNE06.jpg,AMNE05.jpg,AMSA19.jpg,AMNE06.jpg,MN,1,num_6,32,num_8,1.13343058154,,,2018_Mar_21_1151,59.9972866213,FEMA4ImagesEEG,001,103292,
AMSA21.JPG,AMNE22.JPG,AMNE21.JPG,AMSA23.JPG,AMSA22.JPG,AMNE23.JPG,,,,,0,5,5,1,,,,,,,,,,,,,,,,,,,AMNE10.jpg,AMNE07.jpg,AMSA11.jpg,AMSA04.jpg,AMSA11.jpg,MS,2,num_2,32,num_4,0.933494472411,,,2018_Mar_21_1151,59.9972866213,FEMA4ImagesEEG,001,103292,
AFNE22.JPG,AFSA24.JPG,AFSA22.JPG,AFNE25.JPG,AFNE24.JPG,AFSA25.JPG,,,,,0,6,6,6,,,,,,,,,,,,,,,,,,,AMSA06.jpg,AMNE14.jpg,AMSA08.jpg,AMNE02.jpg,AMSA06.jpg,MS,2,num_8,16,num_8,0.883438359015,,,2018_Mar_21_1151,59.9972866213,FEMA4ImagesEEG,001,103292,
AMSA25.JPG,AMNE24.JPG,AMSA24.JPG,AMNE26.JPG,AMSA21.JPG,AMNE25.JPG,,,,,0,7,7,3,,,,,,,,,,,,,,,,,,,AMNE19.jpg,AMSA11.jpg,AMNE20.jpg,AMSA20.jpg,AMNE20.jpg,MN,1,num_2,32,num_8,0.883464338724,,,2018_Mar_21_1151,59.9972866213,FEMA4ImagesEEG,001,103292,
AFSA25.JPG,AFNE24.JPG,AFSA24.JPG,AFNE21.JPG,AFSA21.JPG,AFNE25.JPG,,,,,0,8,8,2,,,,,,,,,,,,,,,,,,,AMNE13.jpg,AMSA02.jpg,AMSA15.jpg,AMNE19.jpg,AMNE13.jpg,MN,1,num_8,16,num_8,0.933458549902,,,2018_Mar_21_1151,59.9972866213,FEMA4ImagesEEG,001,103292,
AMSA21.JPG,AMNE23.JPG,AMNE21.JPG,AMSA25.JPG,AMNE25.JPG,AMSA23.JPG,,,,,0,9,9,5,,,,,,,,,,,,,,,,,,,AMSA12.jpg,AMNE13.jpg,AMNE20.jpg,AMSA04.jpg,AMSA04.jpg,MS,2,num_4,16,num_4,0.900139873847,,,2018_Mar_21_1151,59.9972866213,FEMA4ImagesEEG,001,103292,
AMSA21.JPG,AMNE23.JPG,AMNE21.JPG,AMSA25.JPG,AMNE25.JPG,AMSA23.JPG,,,,,,,,,0,0,0,5,,,,,,,,,,,,,,,AFSA18.jpg,AFSA17.jpg,AFNE07.jpg,AFNE14.jpg,AFNE07.jpg,FN,3,num_2,32,num_4,0.966804488096,,,2018_Mar_21_1151,59.9972866213,FEMA4ImagesEEG,001,103292,
AMNE23.JPG,AMNE24.JPG,AMNE22.JPG,AMSA24.JPG,AMSA22.JPG,AMSA23.JPG,,,,,,,,,0,1,1,9,,,,,,,,,,,,,,,AFNE14.jpg,AFNE17.jpg,AFSA02.jpg,AFSA15.jpg,AFNE14.jpg,FN,3,num_8,16,num_8,0.666781811975,,,2018_Mar_21_1151,59.9972866213,FEMA4ImagesEEG,001,103292,
AFSA21.JPG,AFNE23.JPG,AFNE21.JPG,AFSA25.JPG,AFNE25.JPG,AFSA23.JPG,,,,,,,,,0,2,2,4,,,,,,,,,,,,,,,AFNE12.jpg,AFNE16.jpg,AFSA12.jpg,AFSA13.jpg,AFNE12.jpg,FN,3,num_8,16,num_8,1.20008332795,,,2018_Mar_21_1151,59.9972866213,FEMA4ImagesEEG,001,103292,
AFNE22.JPG,AFSA24.JPG,AFSA22.JPG,AFNE25.JPG,AFNE24.JPG,AFSA25.JPG,,,,,,,,,0,3,3,6,,,,,,,,,,,,,,,AFNE20.jpg,AFSA13.jpg,AFNE15.jpg,AFSA09.jpg,AFSA13.jpg,FS,4,num_6,32,num_2,1.5333797764,,,2018_Mar_21_1151,59.9972866213,FEMA4ImagesEEG,001,103292,
AMSA25.JPG,AMNE24.JPG,AMSA24.JPG,AMNE26.JPG,AMSA21.JPG,AMNE25.JPG,,,,,,,,,0,4,4,3,,,,,,,,,,,,,,,AFSA15.jpg,AFNE11.jpg,AFSA03.jpg,AFNE20.jpg,AFNE11.jpg,FN,3,num_6,32,num_8,1.08344887942,,,2018_Mar_21_1151,59.9972866213,FEMA4ImagesEEG,001,103292,
AFSA21.JPG,AFNE22.JPG,AFNE21.JPG,AFSA23.JPG,AFSA22.JPG,AFNE23.JPG,,,,,,,,,0,5,5,0,,,,,,,,,,,,,,,AFSA19.jpg,AFNE04.jpg,AFSA17.jpg,AFNE14.jpg,AFNE14.jpg,FN,3,num_4,32,num_8,1.03345082002,,,2018_Mar_21_1151,59.9972866213,FEMA4ImagesEEG,001,103292,
AMSA21.JPG,AMNE22.JPG,AMNE21.JPG,AMSA23.JPG,AMSA22.JPG,AMNE23.JPG,,,,,,,,,0,6,6,1,,,,,,,,,,,,,,,AFNE14.jpg,AFSA14.jpg,AFSA18.jpg,AFNE08.jpg,AFSA18.jpg,FS,4,num_2,16,num_2,1.21687753638,,,2018_Mar_21_1151,59.9972866213,FEMA4ImagesEEG,001,103292,
AFNE23.JPG,AFNE24.JPG,AFNE22.JPG,AFSA24.JPG,AFSA22.JPG,AFSA23.JPG,,,,,,,,,0,7,7,8,,,,,,,,,,,,,,,AFSA04.jpg,AFSA14.jpg,AFNE18.jpg,AFNE08.jpg,AFSA14.jpg,FS,4,num_6,32,num_8,1.10008015251,,,2018_Mar_21_1151,59.9972866213,FEMA4ImagesEEG,001,103292,
AFSA25.JPG,AFNE24.JPG,AFSA24.JPG,AFNE21.JPG,AFSA21.JPG,AFNE25.JPG,,,,,,,,,0,8,8,2,,,,,,,,,,,,,,,AFNE18.jpg,AFNE12.jpg,AFSA04.jpg,AFSA19.jpg,AFNE18.jpg,FN,3,num_8,16,num_8,1.01685995981,,,2018_Mar_21_1151,59.9972866213,FEMA4ImagesEEG,001,103292,
AMNE22.JPG,AMSA24.JPG,AMSA22.JPG,AMNE25.JPG,AMNE24.JPG,AMSA25.JPG,,,,,,,,,0,9,9,7,,,,,,,,,,,,,,,AFNE15.jpg,AFSA05.jpg,AFNE12.jpg,AFSA03.jpg,AFNE12.jpg,FN,3,num_2,32,num_8,0.983426139224,,,2018_Mar_21_1151,59.9972866213,FEMA4ImagesEEG,001,103292,
AMSA25.JPG,AMNE24.JPG,AMSA24.JPG,AMNE26.JPG,AMSA21.JPG,AMNE25.JPG,,,,,,,,,,,,,0,0,0,3,,,,,,,,,,,AMSA17.jpg,AMNE04.jpg,AMSA18.jpg,AMNE13.jpg,AMNE13.jpg,MN,1,num_4,32,num_6,0.650132257026,,,2018_Mar_21_1151,59.9972866213,FEMA4ImagesEEG,001,103292,
AMSA21.JPG,AMNE22.JPG,AMNE21.JPG,AMSA23.JPG,AMSA22.JPG,AMNE23.JPG,,,,,,,,,,,,,0,1,1,1,,,,,,,,,,,AMSA03.jpg,AMNE04.jpg,AMSA16.jpg,AMNE02.jpg,AMNE02.jpg,MN,1,num_4,32,num_6,1.01658284152,,,2018_Mar_21_1151,59.9972866213,FEMA4ImagesEEG,001,103292,
AFNE23.JPG,AFNE24.JPG,AFNE22.JPG,AFSA24.JPG,AFSA22.JPG,AFSA23.JPG,,,,,,,,,,,,,0,2,2,8,,,,,,,,,,,AMNE07.jpg,AMNE03.jpg,AMSA02.jpg,AMSA06.jpg,AMNE07.jpg,MN,1,num_8,32,num_4,1.90003435081,,,2018_Mar_21_1151,59.9972866213,FEMA4ImagesEEG,001,103292,
AFSA21.JPG,AFNE22.JPG,AFNE21.JPG,AFSA23.JPG,AFSA22.JPG,AFNE23.JPG,,,,,,,,,,,,,0,3,3,0,,,,,,,,,,,AMNE10.jpg,AMSA03.jpg,AMNE09.jpg,AMSA06.jpg,AMSA03.jpg,MS,2,num_6,16,num_6,1.6166766258,,,2018_Mar_21_1151,59.9972866213,FEMA4ImagesEEG,001,103292,
AMSA21.JPG,AMNE23.JPG,AMNE21.JPG,AMSA25.JPG,AMNE25.JPG,AMSA23.JPG,,,,,,,,,,,,,0,4,4,5,,,,,,,,,,,AMSA20.jpg,AMSA04.jpg,AMNE20.jpg,AMNE06.jpg,AMSA04.jpg,MS,2,num_6,16,num_6,0.766759007704,,,2018_Mar_21_1151,59.9972866213,FEMA4ImagesEEG,001,103292,
AMNE23.JPG,AMNE24.JPG,AMNE22.JPG,AMSA24.JPG,AMSA22.JPG,AMSA23.JPG,,,,,,,,,,,,,0,5,5,9,,,,,,,,,,,AMNE04.jpg,AMSA10.jpg,AMNE02.jpg,AMSA06.jpg,AMSA10.jpg,MS,2,num_6,32,num_8,0.799916351214,,,2018_Mar_21_1151,59.9972866213,FEMA4ImagesEEG,001,103292,
AFNE22.JPG,AFSA24.JPG,AFSA22.JPG,AFNE25.JPG,AFNE24.JPG,AFSA25.JPG,,,,,,,,,,,,,0,6,6,6,,,,,,,,,,,AMSA03.jpg,AMSA16.jpg,AMNE18.jpg,AMNE11.jpg,AMNE11.jpg,MN,1,num_4,32,num_8,0.850137644913,,,2018_Mar_21_1151,59.9972866213,FEMA4ImagesEEG,001,103292,
AFSA21.JPG,AFNE23.JPG,AFNE21.JPG,AFSA25.JPG,AFNE25.JPG,AFSA23.JPG,,,,,,,,,,,,,0,7,7,4,,,,,,,,,,,AMSA03.jpg,AMNE08.jpg,AMSA15.jpg,AMNE05.jpg,AMSA03.jpg,MS,2,num_8,32,num_2,1.03341297247,,,2018_Mar_21_1151,59.9972866213,FEMA4ImagesEEG,001,103292,
AFSA25.JPG,AFNE24.JPG,AFSA24.JPG,AFNE21.JPG,AFSA21.JPG,AFNE25.JPG,,,,,,,,,,,,,0,8,8,2,,,,,,,,,,,AMNE14.jpg,AMSA10.jpg,AMNE02.jpg,AMSA07.jpg,AMSA07.jpg,MS,2,num_4,32,num_8,0.683477233164,,,2018_Mar_21_1151,59.9972866213,FEMA4ImagesEEG,001,103292,
AMNE22.JPG,AMSA24.JPG,AMSA22.JPG,AMNE25.JPG,AMNE24.JPG,AMSA25.JPG,,,,,,,,,,,,,0,9,9,7,,,,,,,,,,,AMNE03.jpg,AMSA02.jpg,AMNE17.jpg,AMSA20.jpg,AMNE17.jpg,MN,1,num_2,32,num_8,1.21672518551,,,2018_Mar_21_1151,59.9972866213,FEMA4ImagesEEG,001,103292,
AMSA25.JPG,AMNE24.JPG,AMSA24.JPG,AMNE26.JPG,AMSA21.JPG,AMNE25.JPG,,,,,,,,,,,,,,,,,0,0,0,3,,,,,,,AFSA11.jpg,AFSA17.jpg,AFNE11.jpg,AFNE17.jpg,AFSA17.jpg,FS,4,num_6,32,num_4,0.983590678312,,,2018_Mar_21_1151,59.9972866213,FEMA4ImagesEEG,001,103292,
AFSA21.JPG,AFNE23.JPG,AFNE21.JPG,AFSA25.JPG,AFNE25.JPG,AFSA23.JPG,,,,,,,,,,,,,,,,,0,1,1,4,,,,,,,AFNE01.jpg,AFSA13.jpg,AFNE11.jpg,AFSA17.jpg,AFNE01.jpg,FN,3,num_8,16,num_8,1.03371575009,,,2018_Mar_21_1151,59.9972866213,FEMA4ImagesEEG,001,103292,
AMNE22.JPG,AMSA24.JPG,AMSA22.JPG,AMNE25.JPG,AMNE24.JPG,AMSA25.JPG,,,,,,,,,,,,,,,,,0,2,2,7,,,,,,,AFNE06.jpg,AFSA04.jpg,AFNE17.jpg,AFSA18.jpg,AFNE17.jpg,FN,3,num_2,32,num_8,0.800150811207,,,2018_Mar_21_1151,59.9972866213,FEMA4ImagesEEG,001,103292,
AFSA21.JPG,AFNE22.JPG,AFNE21.JPG,AFSA23.JPG,AFSA22.JPG,AFNE23.JPG,,,,,,,,,,,,,,,,,0,3,3,0,,,,,,,AFSA06.jpg,AFNE08.jpg,AFNE17.jpg,AFSA20.jpg,AFNE17.jpg,FN,3,num_2,32,num_6,1.90002280474,,,2018_Mar_21_1151,59.9972866213,FEMA4ImagesEEG,001,103292,
AMSA21.JPG,AMNE22.JPG,AMNE21.JPG,AMSA23.JPG,AMSA22.JPG,AMNE23.JPG,,,,,,,,,,,,,,,,,0,4,4,1,,,,,,,AFSA12.jpg,AFNE17.jpg,AFNE15.jpg,AFSA17.jpg,AFSA12.jpg,FS,4,num_8,16,num_8,1.18339271797,,,2018_Mar_21_1151,59.9972866213,FEMA4ImagesEEG,001,103292,
AFNE22.JPG,AFSA24.JPG,AFSA22.JPG,AFNE25.JPG,AFNE24.JPG,AFSA25.JPG,,,,,,,,,,,,,,,,,0,5,5,6,,,,,,,AFNE14.jpg,AFSA17.jpg,AFSA06.jpg,AFNE15.jpg,AFSA06.jpg,FS,4,num_2,32,num_6,2.78329213476,,,2018_Mar_21_1151,59.9972866213,FEMA4ImagesEEG,001,103292,
AFSA25.JPG,AFNE24.JPG,AFSA24.JPG,AFNE21.JPG,AFSA21.JPG,AFNE25.JPG,,,,,,,,,,,,,,,,,0,6,6,2,,,,,,,AFNE15.jpg,AFSA20.jpg,AFNE06.jpg,AFSA16.jpg,AFNE15.jpg,FN,3,num_8,16,num_8,0.550184889697,,,2018_Mar_21_1151,59.9972866213,FEMA4ImagesEEG,001,103292,
AMNE23.JPG,AMNE24.JPG,AMNE22.JPG,AMSA24.JPG,AMSA22.JPG,AMSA23.JPG,,,,,,,,,,,,,,,,,0,7,7,9,,,,,,,AFSA11.jpg,AFNE20.jpg,AFNE01.jpg,AFSA13.jpg,AFSA13.jpg,FS,4,num_4,16,num_4,1.21673192084,,,2018_Mar_21_1151,59.9972866213,FEMA4ImagesEEG,001,103292,
AFNE23.JPG,AFNE24.JPG,AFNE22.JPG,AFSA24.JPG,AFSA22.JPG,AFSA23.JPG,,,,,,,,,,,,,,,,,0,8,8,8,,,,,,,AFSA14.jpg,AFNE17.jpg,AFNE10.jpg,AFSA15.jpg,AFNE17.jpg,FN,3,num_6,32,num_8,1.31668762723,,,2018_Mar_21_1151,59.9972866213,FEMA4ImagesEEG,001,103292,
AMSA21.JPG,AMNE23.JPG,AMNE21.JPG,AMSA25.JPG,AMNE25.JPG,AMSA23.JPG,,,,,,,,,,,,,,,,,0,9,9,5,,,,,,,AFSA01.jpg,AFNE02.jpg,AFSA08.jpg,AFNE04.jpg,AFSA01.jpg,FS,4,num_8,16,num_8,1.23328717891,,,2018_Mar_21_1151,59.9972866213,FEMA4ImagesEEG,001,103292,
AMSA21.JPG,AMNE22.JPG,AMNE21.JPG,AMSA23.JPG,AMSA22.JPG,AMNE23.JPG,,,,,,,,,,,,,,,,,,,,,0,0,0,1,,,AMNE19.jpg,AMNE09.jpg,AMSA19.jpg,AMSA12.jpg,AMNE09.jpg,MN,1,num_6,16,num_6,1.05008594226,,,2018_Mar_21_1151,59.9972866213,FEMA4ImagesEEG,001,103292,
AMNE23.JPG,AMNE24.JPG,AMNE22.JPG,AMSA24.JPG,AMSA22.JPG,AMSA23.JPG,,,,,,,,,,,,,,,,,,,,,0,1,1,9,,,AMSA06.jpg,AMSA20.jpg,AMNE04.jpg,AMNE01.jpg,AMSA06.jpg,MS,2,num_8,32,num_4,1.70004371693,,,2018_Mar_21_1151,59.9972866213,FEMA4ImagesEEG,001,103292,
AFSA21.JPG,AFNE23.JPG,AFNE21.JPG,AFSA25.JPG,AFNE25.JPG,AFSA23.JPG,,,,,,,,,,,,,,,,,,,,,0,2,2,4,,,AMSA06.jpg,AMNE20.jpg,AMSA09.jpg,AMNE02.jpg,AMSA06.jpg,MS,2,num_8,16,num_8,0.600134838838,,,2018_Mar_21_1151,59.9972866213,FEMA4ImagesEEG,001,103292,
AMSA21.JPG,AMNE23.JPG,AMNE21.JPG,AMSA25.JPG,AMNE25.JPG,AMSA23.JPG,,,,,,,,,,,,,,,,,,,,,0,3,3,5,,,AMSA06.jpg,AMSA01.jpg,AMNE16.jpg,AMNE14.jpg,AMSA06.jpg,MS,2,num_8,16,num_8,1.23332278104,,,2018_Mar_21_1151,59.9972866213,FEMA4ImagesEEG,001,103292,
AFNE22.JPG,AFSA24.JPG,AFSA22.JPG,AFNE25.JPG,AFNE24.JPG,AFSA25.JPG,,,,,,,,,,,,,,,,,,,,,0,4,4,6,,,AMSA02.jpg,AMNE01.jpg,AMSA04.jpg,AMNE13.jpg,AMSA04.jpg,MS,2,num_2,32,num_6,0.866613680497,,,2018_Mar_21_1151,59.9972866213,FEMA4ImagesEEG,001,103292,
AMSA25.JPG,AMNE24.JPG,AMSA24.JPG,AMNE26.JPG,AMSA21.JPG,AMNE25.JPG,,,,,,,,,,,,,,,,,,,,,0,5,5,3,,,AMSA13.jpg,AMNE09.jpg,AMNE12.jpg,AMSA07.jpg,AMNE12.jpg,MN,1,num_2,32,num_8,1.1167075769,,,2018_Mar_21_1151,59.9972866213,FEMA4ImagesEEG,001,103292,
AFNE23.JPG,AFNE24.JPG,AFNE22.JPG,AFSA24.JPG,AFSA22.JPG,AFSA23.JPG,,,,,,,,,,,,,,,,,,,,,0,6,6,8,,,AMSA07.jpg,AMNE06.jpg,AMSA13.jpg,AMNE13.jpg,AMSA13.jpg,MS,2,num_2,16,num_2,1.13285613805,,,2018_Mar_21_1151,59.9972866213,FEMA4ImagesEEG,001,103292,
AFSA21.JPG,AFNE22.JPG,AFNE21.JPG,AFSA23.JPG,AFSA22.JPG,AFNE23.JPG,,,,,,,,,,,,,,,,,,,,,0,7,7,0,,,AMSA19.jpg,AMSA05.jpg,AMNE11.jpg,AMNE15.jpg,AMSA05.jpg,MS,2,num_6,32,num_8,0.966906483285,,,2018_Mar_21_1151,59.9972866213,FEMA4ImagesEEG,001,103292,
AMNE22.JPG,AMSA24.JPG,AMSA22.JPG,AMNE25.JPG,AMNE24.JPG,AMSA25.JPG,,,,,,,,,,,,,,,,,,,,,0,8,8,7,,,AMSA09.jpg,AMNE15.jpg,AMSA14.jpg,AMNE10.jpg,AMNE10.jpg,MN,1,num_4,32,num_8,0.800162999425,,,2018_Mar_21_1151,59.9972866213,FEMA4ImagesEEG,001,103292,
AFSA25.JPG,AFNE24.JPG,AFSA24.JPG,AFNE21.JPG,AFSA21.JPG,AFNE25.JPG,,,,,,,,,,,,,,,,,,,,,0,9,9,2,,,AMSA08.jpg,AMSA10.jpg,AMNE16.jpg,AMNE14.jpg,AMSA10.jpg,MS,2,num_6,32,num_8,0.633591431659,,,2018_Mar_21_1151,59.9972866213,FEMA4ImagesEEG,001,103292,
,,,,,,,,,,,,,,,,,,,,,,,,,,,,,,,,,,,,,,,,,,,space,15.0655814786,2018_Mar_21_1151,59.9972866213,FEMA4ImagesEEG,001,103292,
AFNE01.JPG,AFNE01.JPG,AFNE01.JPG,AFNE01.JPG,AFNE01.JPG,AFNE01.JPG,0,0,0,5,,,,,,,,,,,,,,,,,,,,,,,AFNE02.jpg,AFNE18.jpg,AFSA17.jpg,AFSA18.jpg,AFSA18.jpg,FS,4,num_4,16,num_4,0.766629749443,,,2018_Mar_21_1151,59.9972866213,FEMA4ImagesEEG,001,103292,
AFNE01.JPG,AFNE01.JPG,AFNE01.JPG,AFNE01.JPG,AFNE01.JPG,AFNE01.JPG,0,1,1,2,,,,,,,,,,,,,,,,,,,,,,,AFSA10.jpg,AFSA12.jpg,AFNE16.jpg,AFNE09.jpg,AFSA12.jpg,FS,4,num_6,32,num_8,0.850124494638,,,2018_Mar_21_1151,59.9972866213,FEMA4ImagesEEG,001,103292,
AFNE01.JPG,AFNE01.JPG,AFNE01.JPG,AFNE01.JPG,AFNE01.JPG,AFNE01.JPG,0,2,2,8,,,,,,,,,,,,,,,,,,,,,,,AFNE03.jpg,AFSA12.jpg,AFSA07.jpg,AFNE18.jpg,AFSA12.jpg,FS,4,num_6,16,num_6,0.900841971859,,,2018_Mar_21_1151,59.9972866213,FEMA4ImagesEEG,001,103292,
AFNE01.JPG,AFNE01.JPG,AFNE01.JPG,AFNE01.JPG,AFNE01.JPG,AFNE01.JPG,0,3,3,6,,,,,,,,,,,,,,,,,,,,,,,AFNE04.jpg,AFSA03.jpg,AFNE10.jpg,AFSA10.jpg,AFSA03.jpg,FS,4,num_6,32,num_8,0.700149881653,,,2018_Mar_21_1151,59.9972866213,FEMA4ImagesEEG,001,103292,
AFNE01.JPG,AFNE01.JPG,AFNE01.JPG,AFNE01.JPG,AFNE01.JPG,AFNE01.JPG,0,4,4,9,,,,,,,,,,,,,,,,,,,,,,,AFNE12.jpg,AFNE08.jpg,AFSA15.jpg,AFSA13.jpg,AFNE08.jpg,FN,3,num_6,16,num_6,1.01675475761,,,2018_Mar_21_1151,59.9972866213,FEMA4ImagesEEG,001,103292,
AFNE01.JPG,AFNE01.JPG,AFNE01.JPG,AFNE01.JPG,AFNE01.JPG,AFNE01.JPG,0,5,5,0,,,,,,,,,,,,,,,,,,,,,,,AFNE06.jpg,AFSA01.jpg,AFSA05.jpg,AFNE05.jpg,AFSA01.jpg,FS,4,num_6,32,num_2,1.55008064955,,,2018_Mar_21_1151,59.9972866213,FEMA4ImagesEEG,001,103292,
AFNE01.JPG,AFNE01.JPG,AFNE01.JPG,AFNE01.JPG,AFNE01.JPG,AFNE01.JPG,0,6,6,4,,,,,,,,,,,,,,,,,,,,,,,AFSA10.jpg,AFNE13.jpg,AFNE07.jpg,AFSA16.jpg,AFSA10.jpg,FS,4,num_8,32,num_4,1.70034104167,,,2018_Mar_21_1151,59.9972866213,FEMA4ImagesEEG,001,103292,
AFNE01.JPG,AFNE01.JPG,AFNE01.JPG,AFNE01.JPG,AFNE01.JPG,AFNE01.JPG,0,7,7,7,,,,,,,,,,,,,,,,,,,,,,,AFNE08.jpg,AFSA16.jpg,AFSA17.jpg,AFNE13.jpg,AFNE13.jpg,FN,3,num_4,32,num_8,0.983518511988,,,2018_Mar_21_1151,59.9972866213,FEMA4ImagesEEG,001,103292,
AFNE01.JPG,AFNE01.JPG,AFNE01.JPG,AFNE01.JPG,AFNE01.JPG,AFNE01.JPG,0,8,8,1,,,,,,,,,,,,,,,,,,,,,,,AFNE17.jpg,AFSA04.jpg,AFSA10.jpg,AFNE13.jpg,AFNE17.jpg,FN,3,num_8,16,num_8,0.866927042138,,,2018_Mar_21_1151,59.9972866213,FEMA4ImagesEEG,001,103292,
AFNE01.JPG,AFNE01.JPG,AFNE01.JPG,AFNE01.JPG,AFNE01.JPG,AFNE01.JPG,0,9,9,3,,,,,,,,,,,,,,,,,,,,,,,AFNE01.jpg,AFNE02.jpg,AFSA09.jpg,AFSA10.jpg,AFSA10.jpg,FS,4,num_4,16,num_4,1.40015927935,,,2018_Mar_21_1151,59.9972866213,FEMA4ImagesEEG,001,103292,
AFNE01.JPG,AFNE01.JPG,AFNE01.JPG,AFNE01.JPG,AFNE01.JPG,AFNE01.JPG,1,0,10,9,,,,,,,,,,,,,,,,,,,,,,,AFSA01.jpg,AFSA07.jpg,AFNE07.jpg,AFNE19.jpg,AFNE19.jpg,FN,3,num_4,32,num_8,1.01681633946,,,2018_Mar_21_1151,59.9972866213,FEMA4ImagesEEG,001,103292,
AFNE01.JPG,AFNE01.JPG,AFNE01.JPG,AFNE01.JPG,AFNE01.JPG,AFNE01.JPG,1,1,11,1,,,,,,,,,,,,,,,,,,,,,,,AFNE13.jpg,AFSA06.jpg,AFNE15.jpg,AFSA01.jpg,AFSA01.jpg,FS,4,num_4,32,num_8,1.08345721895,,,2018_Mar_21_1151,59.9972866213,FEMA4ImagesEEG,001,103292,
AFNE01.JPG,AFNE01.JPG,AFNE01.JPG,AFNE01.JPG,AFNE01.JPG,AFNE01.JPG,1,2,12,6,,,,,,,,,,,,,,,,,,,,,,,AFSA06.jpg,AFNE07.jpg,AFSA03.jpg,AFNE03.jpg,AFSA03.jpg,FS,4,num_2,32,num_8,0.950178026222,,,2018_Mar_21_1151,59.9972866213,FEMA4ImagesEEG,001,103292,
AFNE01.JPG,AFNE01.JPG,AFNE01.JPG,AFNE01.JPG,AFNE01.JPG,AFNE01.JPG,1,3,13,0,,,,,,,,,,,,,,,,,,,,,,,AFNE07.jpg,AFNE13.jpg,AFSA17.jpg,AFSA07.jpg,AFNE13.jpg,FN,3,num_6,32,num_8,0.766767987981,,,2018_Mar_21_1151,59.9972866213,FEMA4ImagesEEG,001,103292,
AFNE01.JPG,AFNE01.JPG,AFNE01.JPG,AFNE01.JPG,AFNE01.JPG,AFNE01.JPG,1,4,14,5,,,,,,,,,,,,,,,,,,,,,,,AFNE09.jpg,AFSA07.jpg,AFSA16.jpg,AFNE08.jpg,AFSA07.jpg,FS,4,num_6,16,num_6,1.13344212761,,,2018_Mar_21_1151,59.9972866213,FEMA4ImagesEEG,001,103292,
AFNE01.JPG,AFNE01.JPG,AFNE01.JPG,AFNE01.JPG,AFNE01.JPG,AFNE01.JPG,1,5,15,2,,,,,,,,,,,,,,,,,,,,,,,AFNE11.jpg,AFSA05.jpg,AFNE06.jpg,AFSA04.jpg,AFSA04.jpg,FS,4,num_4,16,num_4,1.66670451406,,,2018_Mar_21_1151,59.9972866213,FEMA4ImagesEEG,001,103292,
AFNE01.JPG,AFNE01.JPG,AFNE01.JPG,AFNE01.JPG,AFNE01.JPG,AFNE01.JPG,1,6,16,7,,,,,,,,,,,,,,,,,,,,,,,AFSA17.jpg,AFNE03.jpg,AFSA18.jpg,AFNE06.jpg,AFSA17.jpg,FS,4,num_8,32,num_2,0.950128311757,,,2018_Mar_21_1151,59.9972866213,FEMA4ImagesEEG,001,103292,
AFNE01.JPG,AFNE01.JPG,AFNE01.JPG,AFNE01.JPG,AFNE01.JPG,AFNE01.JPG,1,7,17,8,,,,,,,,,,,,,,,,,,,,,,,AFNE20.jpg,AFSA05.jpg,AFSA10.jpg,AFNE13.jpg,AFSA10.jpg,FS,4,num_2,16,num_2,0.583582787775,,,2018_Mar_21_1151,59.9972866213,FEMA4ImagesEEG,001,103292,
AFNE01.JPG,AFNE01.JPG,AFNE01.JPG,AFNE01.JPG,AFNE01.JPG,AFNE01.JPG,1,8,18,4,,,,,,,,,,,,,,,,,,,,,,,AFSA06.jpg,AFNE19.jpg,AFNE08.jpg,AFSA04.jpg,AFSA06.jpg,FS,4,num_8,16,num_8,1.48341058334,,,2018_Mar_21_1151,59.9972866213,FEMA4ImagesEEG,001,103292,
AFNE01.JPG,AFNE01.JPG,AFNE01.JPG,AFNE01.JPG,AFNE01.JPG,AFNE01.JPG,1,9,19,3,,,,,,,,,,,,,,,,,,,,,,,AFNE05.jpg,AFNE16.jpg,AFSA10.jpg,AFSA02.jpg,AFNE16.jpg,FN,3,num_6,32,num_8,1.0001606904,,,2018_Mar_21_1151,59.9972866213,FEMA4ImagesEEG,001,103292,
AFNE01.JPG,AFNE01.JPG,AFNE01.JPG,AFNE01.JPG,AFNE01.JPG,AFNE01.JPG,2,0,20,3,,,,,,,,,,,,,,,,,,,,,,,AFNE06.jpg,AFNE05.jpg,AFSA07.jpg,AFSA20.jpg,AFNE05.jpg,FN,3,num_6,16,num_6,0.850106212776,,,2018_Mar_21_1151,59.9972866213,FEMA4ImagesEEG,001,103292,
AFNE01.JPG,AFNE01.JPG,AFNE01.JPG,AFNE01.JPG,AFNE01.JPG,AFNE01.JPG,2,1,21,1,,,,,,,,,,,,,,,,,,,,,,,AFSA05.jpg,AFNE19.jpg,AFNE09.jpg,AFSA19.jpg,AFSA05.jpg,FS,4,num_8,32,num_2,1.0667579486,,,2018_Mar_21_1151,59.9972866213,FEMA4ImagesEEG,001,103292,
AFNE01.JPG,AFNE01.JPG,AFNE01.JPG,AFNE01.JPG,AFNE01.JPG,AFNE01.JPG,2,2,22,7,,,,,,,,,,,,,,,,,,,,,,,AFNE09.jpg,AFSA08.jpg,AFSA04.jpg,AFNE05.jpg,AFSA08.jpg,FS,4,num_6,32,num_8,1.65011974797,,,2018_Mar_21_1151,59.9972866213,FEMA4ImagesEEG,001,103292,
AFNE01.JPG,AFNE01.JPG,AFNE01.JPG,AFNE01.JPG,AFNE01.JPG,AFNE01.JPG,2,3,23,4,,,,,,,,,,,,,,,,,,,,,,,AFSA06.jpg,AFNE04.jpg,AFNE17.jpg,AFSA03.jpg,AFNE17.jpg,FN,3,num_2,32,num_8,0.900159759913,,,2018_Mar_21_1151,59.9972866213,FEMA4ImagesEEG,001,103292,
AFNE01.JPG,AFNE01.JPG,AFNE01.JPG,AFNE01.JPG,AFNE01.JPG,AFNE01.JPG,2,4,24,8,,,,,,,,,,,,,,,,,,,,,,,AFSA12.jpg,AFNE19.jpg,AFNE02.jpg,AFSA10.jpg,AFSA12.jpg,FS,4,num_8,16,num_8,0.583516074345,,,2018_Mar_21_1151,59.9972866213,FEMA4ImagesEEG,001,103292,
AFNE01.JPG,AFNE01.JPG,AFNE01.JPG,AFNE01.JPG,AFNE01.JPG,AFNE01.JPG,2,5,25,9,,,,,,,,,,,,,,,,,,,,,,,AFSA14.jpg,AFNE12.jpg,AFSA09.jpg,AFNE10.jpg,AFSA14.jpg,FS,4,num_8,32,num_6,1.15014011506,,,2018_Mar_21_1151,59.9972866213,FEMA4ImagesEEG,001,103292,
AFNE01.JPG,AFNE01.JPG,AFNE01.JPG,AFNE01.JPG,AFNE01.JPG,AFNE01.JPG,2,6,26,6,,,,,,,,,,,,,,,,,,,,,,,AFNE08.jpg,AFSA20.jpg,AFSA17.jpg,AFNE20.jpg,AFNE08.jpg,FN,3,num_8,16,num_8,1.21674058121,,,2018_Mar_21_1151,59.9972866213,FEMA4ImagesEEG,001,103292,
AFNE01.JPG,AFNE01.JPG,AFNE01.JPG,AFNE01.JPG,AFNE01.JPG,AFNE01.JPG,2,7,27,5,,,,,,,,,,,,,,,,,,,,,,,AFNE13.jpg,AFSA16.jpg,AFSA03.jpg,AFNE02.jpg,AFNE02.jpg,FN,3,num_4,32,num_8,0.833423621487,,,2018_Mar_21_1151,59.9972866213,FEMA4ImagesEEG,001,103292,
AFNE01.JPG,AFNE01.JPG,AFNE01.JPG,AFNE01.JPG,AFNE01.JPG,AFNE01.JPG,2,8,28,0,,,,,,,,,,,,,,,,,,,,,,,AFSA01.jpg,AFNE03.jpg,AFSA15.jpg,AFNE02.jpg,AFSA15.jpg,FS,4,num_2,16,num_2,1.13340748847,,,2018_Mar_21_1151,59.9972866213,FEMA4ImagesEEG,001,103292,
AFNE01.JPG,AFNE01.JPG,AFNE01.JPG,AFNE01.JPG,AFNE01.JPG,AFNE01.JPG,2,9,29,2,,,,,,,,,,,,,,,,,,,,,,,AFSA11.jpg,AFNE09.jpg,AFNE01.jpg,AFSA20.jpg,AFNE09.jpg,FN,3,num_6,16,num_6,0.816790423822,,,2018_Mar_21_1151,59.9972866213,FEMA4ImagesEEG,001,103292,
AFNE01.JPG,AFNE01.JPG,AFNE01.JPG,AFNE01.JPG,AFNE01.JPG,AFNE01.JPG,3,0,30,8,,,,,,,,,,,,,,,,,,,,,,,AFSA05.jpg,AFSA17.jpg,AFNE13.jpg,AFNE08.jpg,AFNE08.jpg,FN,3,num_4,16,num_4,0.783515368588,,,2018_Mar_21_1151,59.9972866213,FEMA4ImagesEEG,001,103292,
AFNE01.JPG,AFNE01.JPG,AFNE01.JPG,AFNE01.JPG,AFNE01.JPG,AFNE01.JPG,3,1,31,2,,,,,,,,,,,,,,,,,,,,,,,AFNE12.jpg,AFSA01.jpg,AFNE19.jpg,AFSA04.jpg,AFNE12.jpg,FN,3,num_8,16,num_8,0.466813950334,,,2018_Mar_21_1151,59.9972866213,FEMA4ImagesEEG,001,103292,
AFNE01.JPG,AFNE01.JPG,AFNE01.JPG,AFNE01.JPG,AFNE01.JPG,AFNE01.JPG,3,2,32,3,,,,,,,,,,,,,,,,,,,,,,,AFSA12.jpg,AFNE11.jpg,AFSA13.jpg,AFNE03.jpg,AFNE03.jpg,FN,3,num_4,32,num_8,0.750290990341,,,2018_Mar_21_1151,59.9972866213,FEMA4ImagesEEG,001,103292,
AFNE01.JPG,AFNE01.JPG,AFNE01.JPG,AFNE01.JPG,AFNE01.JPG,AFNE01.JPG,3,3,33,6,,,,,,,,,,,,,,,,,,,,,,,AFSA12.jpg,AFSA14.jpg,AFNE07.jpg,AFNE16.jpg,AFNE07.jpg,FN,3,num_2,16,num_2,1.05009011179,,,2018_Mar_21_1151,59.9972866213,FEMA4ImagesEEG,001,103292,
AFNE01.JPG,AFNE01.JPG,AFNE01.JPG,AFNE01.JPG,AFNE01.JPG,AFNE01.JPG,3,4,34,0,,,,,,,,,,,,,,,,,,,,,,,AFSA09.jpg,AFSA02.jpg,AFNE01.jpg,AFNE09.jpg,AFNE01.jpg,FN,3,num_2,32,num_8,1.03351657139,,,2018_Mar_21_1151,59.9972866213,FEMA4ImagesEEG,001,103292,
AFNE01.JPG,AFNE01.JPG,AFNE01.JPG,AFNE01.JPG,AFNE01.JPG,AFNE01.JPG,3,5,35,7,,,,,,,,,,,,,,,,,,,,,,,AFSA16.jpg,AFNE10.jpg,AFSA04.jpg,AFNE16.jpg,AFNE16.jpg,FN,3,num_4,32,num_8,0.566934836097,,,2018_Mar_21_1151,59.9972866213,FEMA4ImagesEEG,001,103292,
AFNE01.JPG,AFNE01.JPG,AFNE01.JPG,AFNE01.JPG,AFNE01.JPG,AFNE01.JPG,3,6,36,4,,,,,,,,,,,,,,,,,,,,,,,AFSA16.jpg,AFNE16.jpg,AFNE20.jpg,AFSA13.jpg,AFSA16.jpg,FS,4,num_8,32,num_6,0.866752239875,,,2018_Mar_21_1151,59.9972866213,FEMA4ImagesEEG,001,103292,
AFNE01.JPG,AFNE01.JPG,AFNE01.JPG,AFNE01.JPG,AFNE01.JPG,AFNE01.JPG,3,7,37,9,,,,,,,,,,,,,,,,,,,,,,,AFNE18.jpg,AFNE16.jpg,AFSA19.jpg,AFSA13.jpg,AFSA13.jpg,FS,4,num_4,32,num_8,0.866833707783,,,2018_Mar_21_1151,59.9972866213,FEMA4ImagesEEG,001,103292,
AFNE01.JPG,AFNE01.JPG,AFNE01.JPG,AFNE01.JPG,AFNE01.JPG,AFNE01.JPG,3,8,38,5,,,,,,,,,,,,,,,,,,,,,,,AFSA11.jpg,AFNE13.jpg,AFNE04.jpg,AFSA15.jpg,AFNE04.jpg,FN,3,num_2,16,num_2,0.650068108924,,,2018_Mar_21_1151,59.9972866213,FEMA4ImagesEEG,001,103292,
AFNE01.JPG,AFNE01.JPG,AFNE01.JPG,AFNE01.JPG,AFNE01.JPG,AFNE01.JPG,3,9,39,1,,,,,,,,,,,,,,,,,,,,,,,AFSA19.jpg,AFNE13.jpg,AFSA12.jpg,AFNE06.jpg,AFSA19.jpg,FS,4,num_8,16,num_8,0.750167184975,,,2018_Mar_21_1151,59.9972866213,FEMA4ImagesEEG,001,103292,
AFNE01.JPG,AFNE01.JPG,AFNE01.JPG,AFNE01.JPG,AFNE01.JPG,AFNE01.JPG,4,0,40,5,,,,,,,,,,,,,,,,,,,,,,,AFSA20.jpg,AFSA12.jpg,AFNE02.jpg,AFNE05.jpg,AFNE05.jpg,FN,3,num_4,32,num_6,0.916771467775,,,2018_Mar_21_1151,59.9972866213,FEMA4ImagesEEG,001,103292,
AFNE01.JPG,AFNE01.JPG,AFNE01.JPG,AFNE01.JPG,AFNE01.JPG,AFNE01.JPG,4,1,41,4,,,,,,,,,,,,,,,,,,,,,,,AFNE20.jpg,AFSA14.jpg,AFSA18.jpg,AFNE18.jpg,AFNE20.jpg,FN,3,num_8,16,num_8,0.916991495062,,,2018_Mar_21_1151,59.9972866213,FEMA4ImagesEEG,001,103292,
AFNE01.JPG,AFNE01.JPG,AFNE01.JPG,AFNE01.JPG,AFNE01.JPG,AFNE01.JPG,4,2,42,9,,,,,,,,,,,,,,,,,,,,,,,AFSA13.jpg,AFSA16.jpg,AFNE15.jpg,AFNE07.jpg,AFSA16.jpg,FS,4,num_6,32,num_4,1.03344183927,,,2018_Mar_21_1151,59.9972866213,FEMA4ImagesEEG,001,103292,
AFNE01.JPG,AFNE01.JPG,AFNE01.JPG,AFNE01.JPG,AFNE01.JPG,AFNE01.JPG,4,3,43,7,,,,,,,,,,,,,,,,,,,,,,,AFSA08.jpg,AFNE18.jpg,AFNE13.jpg,AFSA11.jpg,AFNE18.jpg,FN,3,num_6,16,num_6,1.35011824034,,,2018_Mar_21_1151,59.9972866213,FEMA4ImagesEEG,001,103292,
AFNE01.JPG,AFNE01.JPG,AFNE01.JPG,AFNE01.JPG,AFNE01.JPG,AFNE01.JPG,4,4,44,2,,,,,,,,,,,,,,,,,,,,,,,AFNE10.jpg,AFSA04.jpg,AFNE06.jpg,AFSA01.jpg,AFNE10.jpg,FN,3,num_8,32,num_4,3.18327821465,,,2018_Mar_21_1151,59.9972866213,FEMA4ImagesEEG,001,103292,
AFNE01.JPG,AFNE01.JPG,AFNE01.JPG,AFNE01.JPG,AFNE01.JPG,AFNE01.JPG,4,5,45,1,,,,,,,,,,,,,,,,,,,,,,,AFNE06.jpg,AFSA09.jpg,AFNE17.jpg,AFSA08.jpg,AFNE17.jpg,FN,3,num_2,32,num_4,1.60008159606,,,2018_Mar_21_1151,59.9972866213,FEMA4ImagesEEG,001,103292,
AFNE01.JPG,AFNE01.JPG,AFNE01.JPG,AFNE01.JPG,AFNE01.JPG,AFNE01.JPG,4,6,46,3,,,,,,,,,,,,,,,,,,,,,,,AFSA08.jpg,AFNE15.jpg,AFNE06.jpg,AFSA14.jpg,AFSA08.jpg,FS,4,num_8,32,num_2,1.08341744682,,,2018_Mar_21_1151,59.9972866213,FEMA4ImagesEEG,001,103292,
AFNE01.JPG,AFNE01.JPG,AFNE01.JPG,AFNE01.JPG,AFNE01.JPG,AFNE01.JPG,4,7,47,0,,,,,,,,,,,,,,,,,,,,,,,AFNE09.jpg,AFSA02.jpg,AFSA15.jpg,AFNE19.jpg,AFNE09.jpg,FN,3,num_8,16,num_8,0.583532111254,,,2018_Mar_21_1151,59.9972866213,FEMA4ImagesEEG,001,103292,
AFNE01.JPG,AFNE01.JPG,AFNE01.JPG,AFNE01.JPG,AFNE01.JPG,AFNE01.JPG,4,8,48,6,,,,,,,,,,,,,,,,,,,,,,,AFSA10.jpg,AFNE03.jpg,AFNE06.jpg,AFSA03.jpg,AFNE06.jpg,FN,3,num_2,16,num_2,0.950102972798,,,2018_Mar_21_1151,59.9972866213,FEMA4ImagesEEG,001,103292,
AFNE01.JPG,AFNE01.JPG,AFNE01.JPG,AFNE01.JPG,AFNE01.JPG,AFNE01.JPG,4,9,49,8,,,,,,,,,,,,,,,,,,,,,,,AFSA15.jpg,AFSA05.jpg,AFNE15.jpg,AFNE19.jpg,AFNE19.jpg,FN,3,num_4,16,num_4,0.983408177737,,,2018_Mar_21_1151,59.9972866213,FEMA4ImagesEEG,001,103292,
AFNE01.JPG,AFNE01.JPG,AFNE01.JPG,AFNE01.JPG,AFNE01.JPG,AFNE01.JPG,5,0,50,3,,,,,,,,,,,,,,,,,,,,,,,AFNE11.jpg,AFSA18.jpg,AFNE08.jpg,AFSA07.jpg,AFNE08.jpg,FN,3,num_2,16,num_2,0.800157546997,,,2018_Mar_21_1151,59.9972866213,FEMA4ImagesEEG,001,103292,
AFNE01.JPG,AFNE01.JPG,AFNE01.JPG,AFNE01.JPG,AFNE01.JPG,AFNE01.JPG,5,1,51,7,,,,,,,,,,,,,,,,,,,,,,,AFSA16.jpg,AFSA01.jpg,AFNE18.jpg,AFNE06.jpg,AFSA01.jpg,FS,4,num_6,16,num_6,0.966746434104,,,2018_Mar_21_1151,59.9972866213,FEMA4ImagesEEG,001,103292,
AFNE01.JPG,AFNE01.JPG,AFNE01.JPG,AFNE01.JPG,AFNE01.JPG,AFNE01.JPG,5,2,52,9,,,,,,,,,,,,,,,,,,,,,,,AFNE18.jpg,AFSA01.jpg,AFNE06.jpg,AFSA18.jpg,AFNE18.jpg,FN,3,num_8,16,num_8,0.866763786413,,,2018_Mar_21_1151,59.9972866213,FEMA4ImagesEEG,001,103292,
AFNE01.JPG,AFNE01.JPG,AFNE01.JPG,AFNE01.JPG,AFNE01.JPG,AFNE01.JPG,5,3,53,6,,,,,,,,,,,,,,,,,,,,,,,AFNE10.jpg,AFSA05.jpg,AFSA08.jpg,AFNE13.jpg,AFNE10.jpg,FN,3,num_8,16,num_8,0.55018392764,,,2018_Mar_21_1151,59.9972866213,FEMA4ImagesEEG,001,103292,
AFNE01.JPG,AFNE01.JPG,AFNE01.JPG,AFNE01.JPG,AFNE01.JPG,AFNE01.JPG,5,4,54,0,,,,,,,,,,,,,,,,,,,,,,,AFNE07.jpg,AFSA04.jpg,AFSA16.jpg,AFNE14.jpg,AFNE14.jpg,FN,3,num_4,32,num_2,0.933455663268,,,2018_Mar_21_1151,59.9972866213,FEMA4ImagesEEG,001,103292,
AFNE01.JPG,AFNE01.JPG,AFNE01.JPG,AFNE01.JPG,AFNE01.JPG,AFNE01.JPG,5,5,55,2,,,,,,,,,,,,,,,,,,,,,,,AFSA12.jpg,AFSA14.jpg,AFNE20.jpg,AFNE14.jpg,AFNE14.jpg,FN,3,num_4,32,num_6,0.583520243876,,,2018_Mar_21_1151,59.9972866213,FEMA4ImagesEEG,001,103292,
AFNE01.JPG,AFNE01.JPG,AFNE01.JPG,AFNE01.JPG,AFNE01.JPG,AFNE01.JPG,5,6,56,5,,,,,,,,,,,,,,,,,,,,,,,AFSA18.jpg,AFNE03.jpg,AFSA12.jpg,AFNE15.jpg,AFSA12.jpg,FS,4,num_2,32,num_8,0.916611098684,,,2018_Mar_21_1151,59.9972866213,FEMA4ImagesEEG,001,103292,
AFNE01.JPG,AFNE01.JPG,AFNE01.JPG,AFNE01.JPG,AFNE01.JPG,AFNE01.JPG,5,7,57,1,,,,,,,,,,,,,,,,,,,,,,,AFNE10.jpg,AFNE16.jpg,AFSA10.jpg,AFSA20.jpg,AFSA20.jpg,FS,4,num_4,32,num_6,1.08347133128,,,2018_Mar_21_1151,59.9972866213,FEMA4ImagesEEG,001,103292,
AFNE01.JPG,AFNE01.JPG,AFNE01.JPG,AFNE01.JPG,AFNE01.JPG,AFNE01.JPG,5,8,58,4,,,,,,,,,,,,,,,,,,,,,,,AFSA02.jpg,AFNE02.jpg,AFSA05.jpg,AFNE12.jpg,AFNE12.jpg,FN,3,num_4,32,num_8,0.883483583573,,,2018_Mar_21_1151,59.9972866213,FEMA4ImagesEEG,001,103292,
AFNE01.JPG,AFNE01.JPG,AFNE01.JPG,AFNE01.JPG,AFNE01.JPG,AFNE01.JPG,5,9,59,8,,,,,,,,,,,,,,,,,,,,,,,AFNE15.jpg,AFSA09.jpg,AFNE02.jpg,AFSA04.jpg,AFNE02.jpg,FN,3,num_2,16,num_2,1.45010441635,,,2018_Mar_21_1151,59.9972866213,FEMA4ImagesEEG,001,103292,
,,,,,,,,,,,,,,,,,,,,,,,,,,,,,,,,,,,,,,,,,,,space,21.6148339808,2018_Mar_21_1151,59.9972866213,FEMA4ImagesEEG,001,103292,
AFNE01.JPG,AFNE01.JPG,AFNE01.JPG,AFNE01.JPG,AFNE01.JPG,AFNE01.JPG,,,,,0,0,0,6,,,,,,,,,,,,,,,,,,,AMSA02.jpg,AMNE03.jpg,AMNE13.jpg,AMSA10.jpg,AMNE03.jpg,MN,1,num_6,16,num_6,1.10012120754,,,2018_Mar_21_1151,59.9972866213,FEMA4ImagesEEG,001,103292,
AFNE01.JPG,AFNE01.JPG,AFNE01.JPG,AFNE01.JPG,AFNE01.JPG,AFNE01.JPG,,,,,0,1,1,2,,,,,,,,,,,,,,,,,,,AMNE11.jpg,AMSA01.jpg,AMSA20.jpg,AMNE08.jpg,AMSA01.jpg,MS,2,num_6,32,num_2,1.1500522322,,,2018_Mar_21_1151,59.9972866213,FEMA4ImagesEEG,001,103292,
AFNE01.JPG,AFNE01.JPG,AFNE01.JPG,AFNE01.JPG,AFNE01.JPG,AFNE01.JPG,,,,,0,2,2,3,,,,,,,,,,,,,,,,,,,AMSA09.jpg,AMNE15.jpg,AMSA06.jpg,AMNE04.jpg,AMNE04.jpg,MN,1,num_4,32,num_2,1.73340472998,,,2018_Mar_21_1151,59.9972866213,FEMA4ImagesEEG,001,103292,
AFNE01.JPG,AFNE01.JPG,AFNE01.JPG,AFNE01.JPG,AFNE01.JPG,AFNE01.JPG,,,,,0,3,3,8,,,,,,,,,,,,,,,,,,,AMSA14.jpg,AMNE17.jpg,AMNE09.jpg,AMSA08.jpg,AMSA14.jpg,MS,2,num_8,16,num_8,0.800138302613,,,2018_Mar_21_1151,59.9972866213,FEMA4ImagesEEG,001,103292,
AFNE01.JPG,AFNE01.JPG,AFNE01.JPG,AFNE01.JPG,AFNE01.JPG,AFNE01.JPG,,,,,0,4,4,4,,,,,,,,,,,,,,,,,,,AMNE14.jpg,AMNE11.jpg,AMSA04.jpg,AMSA02.jpg,AMNE14.jpg,MN,1,num_8,32,num_2,0.750104320236,,,2018_Mar_21_1151,59.9972866213,FEMA4ImagesEEG,001,103292,
AFNE01.JPG,AFNE01.JPG,AFNE01.JPG,AFNE01.JPG,AFNE01.JPG,AFNE01.JPG,,,,,0,5,5,7,,,,,,,,,,,,,,,,,,,AMNE03.jpg,AMSA11.jpg,AMNE10.jpg,AMSA04.jpg,AMSA04.jpg,MS,2,num_4,16,num_4,0.900133780204,,,2018_Mar_21_1151,59.9972866213,FEMA4ImagesEEG,001,103292,
AFNE01.JPG,AFNE01.JPG,AFNE01.JPG,AFNE01.JPG,AFNE01.JPG,AFNE01.JPG,,,,,0,6,6,5,,,,,,,,,,,,,,,,,,,AMNE14.jpg,AMSA11.jpg,AMNE06.jpg,AMSA08.jpg,AMNE06.jpg,MN,1,num_2,16,num_2,0.916611740366,,,2018_Mar_21_1151,59.9972866213,FEMA4ImagesEEG,001,103292,
AFNE01.JPG,AFNE01.JPG,AFNE01.JPG,AFNE01.JPG,AFNE01.JPG,AFNE01.JPG,,,,,0,7,7,1,,,,,,,,,,,,,,,,,,,AMSA16.jpg,AMNE14.jpg,AMNE17.jpg,AMSA18.jpg,AMSA18.jpg,MS,2,num_4,16,num_4,0.833477185108,,,2018_Mar_21_1151,59.9972866213,FEMA4ImagesEEG,001,103292,
AFNE01.JPG,AFNE01.JPG,AFNE01.JPG,AFNE01.JPG,AFNE01.JPG,AFNE01.JPG,,,,,0,8,8,9,,,,,,,,,,,,,,,,,,,AMSA16.jpg,AMNE08.jpg,AMSA06.jpg,AMNE19.jpg,AMSA06.jpg,MS,2,num_2,32,num_4,1.33328490192,,,2018_Mar_21_1151,59.9972866213,FEMA4ImagesEEG,001,103292,
AFNE01.JPG,AFNE01.JPG,AFNE01.JPG,AFNE01.JPG,AFNE01.JPG,AFNE01.JPG,,,,,0,9,9,0,,,,,,,,,,,,,,,,,,,AMSA04.jpg,AMNE05.jpg,AMNE09.jpg,AMSA05.jpg,AMNE05.jpg,MN,1,num_6,16,num_6,0.683466007002,,,2018_Mar_21_1151,59.9972866213,FEMA4ImagesEEG,001,103292,
AFNE01.JPG,AFNE01.JPG,AFNE01.JPG,AFNE01.JPG,AFNE01.JPG,AFNE01.JPG,,,,,1,0,10,6,,,,,,,,,,,,,,,,,,,AMNE10.jpg,AMSA12.jpg,AMSA11.jpg,AMNE11.jpg,AMNE10.jpg,MN,1,num_8,32,num_2,0.816799725406,,,2018_Mar_21_1151,59.9972866213,FEMA4ImagesEEG,001,103292,
AFNE01.JPG,AFNE01.JPG,AFNE01.JPG,AFNE01.JPG,AFNE01.JPG,AFNE01.JPG,,,,,1,1,11,2,,,,,,,,,,,,,,,,,,,AMNE17.jpg,AMSA13.jpg,AMNE07.jpg,AMSA15.jpg,AMSA13.jpg,MS,2,num_6,32,num_2,0.800323689356,,,2018_Mar_21_1151,59.9972866213,FEMA4ImagesEEG,001,103292,
AFNE01.JPG,AFNE01.JPG,AFNE01.JPG,AFNE01.JPG,AFNE01.JPG,AFNE01.JPG,,,,,1,2,12,3,,,,,,,,,,,,,,,,,,,AMNE18.jpg,AMSA02.jpg,AMSA13.jpg,AMNE14.jpg,AMNE14.jpg,MN,1,num_4,32,num_8,0.733466311358,,,2018_Mar_21_1151,59.9972866213,FEMA4ImagesEEG,001,103292,
AFNE01.JPG,AFNE01.JPG,AFNE01.JPG,AFNE01.JPG,AFNE01.JPG,AFNE01.JPG,,,,,1,3,13,4,,,,,,,,,,,,,,,,,,,AMNE01.jpg,AMSA02.jpg,AMNE04.jpg,AMSA07.jpg,AMSA07.jpg,MS,2,num_4,16,num_4,0.716902073007,,,2018_Mar_21_1151,59.9972866213,FEMA4ImagesEEG,001,103292,
AFNE01.JPG,AFNE01.JPG,AFNE01.JPG,AFNE01.JPG,AFNE01.JPG,AFNE01.JPG,,,,,1,4,14,8,,,,,,,,,,,,,,,,,,,AMSA20.jpg,AMNE17.jpg,AMNE12.jpg,AMSA07.jpg,AMNE17.jpg,MN,1,num_6,32,num_8,1.25006182259,,,2018_Mar_21_1151,59.9972866213,FEMA4ImagesEEG,001,103292,
AFNE01.JPG,AFNE01.JPG,AFNE01.JPG,AFNE01.JPG,AFNE01.JPG,AFNE01.JPG,,,,,1,5,15,5,,,,,,,,,,,,,,,,,,,AMSA06.jpg,AMNE08.jpg,AMSA12.jpg,AMNE09.jpg,AMSA06.jpg,MS,2,num_8,32,num_2,0.900134101044,,,2018_Mar_21_1151,59.9972866213,FEMA4ImagesEEG,001,103292,
AFNE01.JPG,AFNE01.JPG,AFNE01.JPG,AFNE01.JPG,AFNE01.JPG,AFNE01.JPG,,,,,1,6,16,1,,,,,,,,,,,,,,,,,,,AMSA04.jpg,AMNE03.jpg,AMSA20.jpg,AMNE06.jpg,AMNE06.jpg,MN,1,num_4,16,num_4,1.08345369063,,,2018_Mar_21_1151,59.9972866213,FEMA4ImagesEEG,001,103292,
AFNE01.JPG,AFNE01.JPG,AFNE01.JPG,AFNE01.JPG,AFNE01.JPG,AFNE01.JPG,,,,,1,7,17,7,,,,,,,,,,,,,,,,,,,AMNE13.jpg,AMSA15.jpg,AMSA19.jpg,AMNE12.jpg,AMNE12.jpg,MN,1,num_4,32,num_6,0.933438022621,,,2018_Mar_21_1151,59.9972866213,FEMA4ImagesEEG,001,103292,
AFNE01.JPG,AFNE01.JPG,AFNE01.JPG,AFNE01.JPG,AFNE01.JPG,AFNE01.JPG,,,,,1,8,18,9,,,,,,,,,,,,,,,,,,,AMSA11.jpg,AMNE12.jpg,AMNE11.jpg,AMSA06.jpg,AMSA06.jpg,MS,2,num_4,32,num_8,1.20009262953,,,2018_Mar_21_1151,59.9972866213,FEMA4ImagesEEG,001,103292,
AFNE01.JPG,AFNE01.JPG,AFNE01.JPG,AFNE01.JPG,AFNE01.JPG,AFNE01.JPG,,,,,1,9,19,0,,,,,,,,,,,,,,,,,,,AMNE15.jpg,AMSA05.jpg,AMNE16.jpg,AMSA14.jpg,AMNE15.jpg,MN,1,num_8,32,num_2,0.699988870416,,,2018_Mar_21_1151,59.9972866213,FEMA4ImagesEEG,001,103292,
AFNE01.JPG,AFNE01.JPG,AFNE01.JPG,AFNE01.JPG,AFNE01.JPG,AFNE01.JPG,,,,,2,0,20,6,,,,,,,,,,,,,,,,,,,AMSA20.jpg,AMNE08.jpg,AMSA03.jpg,AMNE20.jpg,AMSA20.jpg,MS,2,num_8,32,num_6,0.549848755822,,,2018_Mar_21_1151,59.9972866213,FEMA4ImagesEEG,001,103292,
AFNE01.JPG,AFNE01.JPG,AFNE01.JPG,AFNE01.JPG,AFNE01.JPG,AFNE01.JPG,,,,,2,1,21,8,,,,,,,,,,,,,,,,,,,AMSA19.jpg,AMNE12.jpg,AMSA05.jpg,AMNE18.jpg,AMSA05.jpg,MS,2,num_2,32,num_4,1.10022384347,,,2018_Mar_21_1151,59.9972866213,FEMA4ImagesEEG,001,103292,
AFNE01.JPG,AFNE01.JPG,AFNE01.JPG,AFNE01.JPG,AFNE01.JPG,AFNE01.JPG,,,,,2,2,22,9,,,,,,,,,,,,,,,,,,,AMNE14.jpg,AMNE06.jpg,AMSA17.jpg,AMSA13.jpg,AMNE06.jpg,MN,1,num_6,32,num_8,2.23331572488,,,2018_Mar_21_1151,59.9972866213,FEMA4ImagesEEG,001,103292,
AFNE01.JPG,AFNE01.JPG,AFNE01.JPG,AFNE01.JPG,AFNE01.JPG,AFNE01.JPG,,,,,2,3,23,1,,,,,,,,,,,,,,,,,,,AMNE05.jpg,AMNE12.jpg,AMSA08.jpg,AMSA05.jpg,AMSA05.jpg,MS,2,num_4,16,num_4,0.950083408039,,,2018_Mar_21_1151,59.9972866213,FEMA4ImagesEEG,001,103292,
AFNE01.JPG,AFNE01.JPG,AFNE01.JPG,AFNE01.JPG,AFNE01.JPG,AFNE01.JPG,,,,,2,4,24,0,,,,,,,,,,,,,,,,,,,AMNE09.jpg,AMNE08.jpg,AMSA05.jpg,AMSA15.jpg,AMSA15.jpg,MS,2,num_4,16,num_4,0.750163336284,,,2018_Mar_21_1151,59.9972866213,FEMA4ImagesEEG,001,103292,
AFNE01.JPG,AFNE01.JPG,AFNE01.JPG,AFNE01.JPG,AFNE01.JPG,AFNE01.JPG,,,,,2,5,25,3,,,,,,,,,,,,,,,,,,,AMSA01.jpg,AMSA07.jpg,AMNE03.jpg,AMNE19.jpg,AMSA01.jpg,MS,2,num_8,32,num_2,0.8167994041,,,2018_Mar_21_1151,59.9972866213,FEMA4ImagesEEG,001,103292,
AFNE01.JPG,AFNE01.JPG,AFNE01.JPG,AFNE01.JPG,AFNE01.JPG,AFNE01.JPG,,,,,2,6,26,7,,,,,,,,,,,,,,,,,,,AMNE16.jpg,AMSA17.jpg,AMSA08.jpg,AMNE06.jpg,AMNE16.jpg,MN,1,num_8,16,num_8,0.750127092469,,,2018_Mar_21_1151,59.9972866213,FEMA4ImagesEEG,001,103292,
AFNE01.JPG,AFNE01.JPG,AFNE01.JPG,AFNE01.JPG,AFNE01.JPG,AFNE01.JPG,,,,,2,7,27,5,,,,,,,,,,,,,,,,,,,AMSA04.jpg,AMNE03.jpg,AMSA08.jpg,AMNE06.jpg,AMSA04.jpg,MS,2,num_8,32,num_4,0.666671156883,,,2018_Mar_21_1151,59.9972866213,FEMA4ImagesEEG,001,103292,
AFNE01.JPG,AFNE01.JPG,AFNE01.JPG,AFNE01.JPG,AFNE01.JPG,AFNE01.JPG,,,,,2,8,28,4,,,,,,,,,,,,,,,,,,,AMSA03.jpg,AMSA01.jpg,AMNE08.jpg,AMNE16.jpg,AMSA03.jpg,MS,2,num_8,32,num_4,0.583567072172,,,2018_Mar_21_1151,59.9972866213,FEMA4ImagesEEG,001,103292,
AFNE01.JPG,AFNE01.JPG,AFNE01.JPG,AFNE01.JPG,AFNE01.JPG,AFNE01.JPG,,,,,2,9,29,2,,,,,,,,,,,,,,,,,,,AMSA16.jpg,AMNE11.jpg,AMSA19.jpg,AMNE06.jpg,AMNE06.jpg,MN,1,num_4,32,num_2,0.566869084723,,,2018_Mar_21_1151,59.9972866213,FEMA4ImagesEEG,001,103292,
AFNE01.JPG,AFNE01.JPG,AFNE01.JPG,AFNE01.JPG,AFNE01.JPG,AFNE01.JPG,,,,,3,0,30,3,,,,,,,,,,,,,,,,,,,AMNE14.jpg,AMNE16.jpg,AMSA19.jpg,AMSA20.jpg,AMNE16.jpg,MN,1,num_6,16,num_6,2.13335681148,,,2018_Mar_21_1151,59.9972866213,FEMA4ImagesEEG,001,103292,
AFNE01.JPG,AFNE01.JPG,AFNE01.JPG,AFNE01.JPG,AFNE01.JPG,AFNE01.JPG,,,,,3,1,31,9,,,,,,,,,,,,,,,,,,,AMNE04.jpg,AMSA20.jpg,AMNE12.jpg,AMSA02.jpg,AMNE04.jpg,MN,1,num_8,16,num_8,1.18316884246,,,2018_Mar_21_1151,59.9972866213,FEMA4ImagesEEG,001,103292,
AFNE01.JPG,AFNE01.JPG,AFNE01.JPG,AFNE01.JPG,AFNE01.JPG,AFNE01.JPG,,,,,3,2,32,7,,,,,,,,,,,,,,,,,,,AMNE07.jpg,AMSA17.jpg,AMNE17.jpg,AMSA03.jpg,AMSA03.jpg,MS,2,num_4,16,num_4,1.50021858374,,,2018_Mar_21_1151,59.9972866213,FEMA4ImagesEEG,001,103292,
AFNE01.JPG,AFNE01.JPG,AFNE01.JPG,AFNE01.JPG,AFNE01.JPG,AFNE01.JPG,,,,,3,3,33,0,,,,,,,,,,,,,,,,,,,AMSA10.jpg,AMNE04.jpg,AMSA06.jpg,AMNE14.jpg,AMNE04.jpg,MN,1,num_6,32,num_4,1.40007043397,,,2018_Mar_21_1151,59.9972866213,FEMA4ImagesEEG,001,103292,
AFNE01.JPG,AFNE01.JPG,AFNE01.JPG,AFNE01.JPG,AFNE01.JPG,AFNE01.JPG,,,,,3,4,34,1,,,,,,,,,,,,,,,,,,,AMSA12.jpg,AMNE10.jpg,AMNE14.jpg,AMSA14.jpg,AMSA12.jpg,MS,2,num_8,32,num_6,3.26662926842,,,2018_Mar_21_1151,59.9972866213,FEMA4ImagesEEG,001,103292,
AFNE01.JPG,AFNE01.JPG,AFNE01.JPG,AFNE01.JPG,AFNE01.JPG,AFNE01.JPG,,,,,3,5,35,2,,,,,,,,,,,,,,,,,,,AMSA15.jpg,AMNE02.jpg,AMSA13.jpg,AMNE09.jpg,AMNE02.jpg,MN,1,num_6,16,num_6,0.816825063433,,,2018_Mar_21_1151,59.9972866213,FEMA4ImagesEEG,001,103292,
AFNE01.JPG,AFNE01.JPG,AFNE01.JPG,AFNE01.JPG,AFNE01.JPG,AFNE01.JPG,,,,,3,6,36,5,,,,,,,,,,,,,,,,,,,AMNE02.jpg,AMNE14.jpg,AMSA08.jpg,AMSA04.jpg,AMSA04.jpg,MS,2,num_4,16,num_4,0.916752544232,,,2018_Mar_21_1151,59.9972866213,FEMA4ImagesEEG,001,103292,
AFNE01.JPG,AFNE01.JPG,AFNE01.JPG,AFNE01.JPG,AFNE01.JPG,AFNE01.JPG,,,,,3,7,37,6,,,,,,,,,,,,,,,,,,,AMSA04.jpg,AMSA12.jpg,AMNE07.jpg,AMNE05.jpg,AMNE05.jpg,MN,1,num_4,32,num_2,0.883443491068,,,2018_Mar_21_1151,59.9972866213,FEMA4ImagesEEG,001,103292,
AFNE01.JPG,AFNE01.JPG,AFNE01.JPG,AFNE01.JPG,AFNE01.JPG,AFNE01.JPG,,,,,3,8,38,8,,,,,,,,,,,,,,,,,,,AMNE18.jpg,AMSA11.jpg,AMNE14.jpg,AMSA14.jpg,AMSA14.jpg,MS,2,num_4,32,num_2,1.816685542,,,2018_Mar_21_1151,59.9972866213,FEMA4ImagesEEG,001,103292,
AFNE01.JPG,AFNE01.JPG,AFNE01.JPG,AFNE01.JPG,AFNE01.JPG,AFNE01.JPG,,,,,3,9,39,4,,,,,,,,,,,,,,,,,,,AMSA05.jpg,AMSA12.jpg,AMNE03.jpg,AMNE19.jpg,AMSA05.jpg,MS,2,num_8,16,num_8,1.03342548199,,,2018_Mar_21_1151,59.9972866213,FEMA4ImagesEEG,001,103292,
AFNE01.JPG,AFNE01.JPG,AFNE01.JPG,AFNE01.JPG,AFNE01.JPG,AFNE01.JPG,,,,,4,0,40,9,,,,,,,,,,,,,,,,,,,AMNE01.jpg,AMNE09.jpg,AMSA05.jpg,AMSA11.jpg,AMNE01.jpg,MN,1,num_8,16,num_8,0.866623944137,,,2018_Mar_21_1151,59.9972866213,FEMA4ImagesEEG,001,103292,
AFNE01.JPG,AFNE01.JPG,AFNE01.JPG,AFNE01.JPG,AFNE01.JPG,AFNE01.JPG,,,,,4,1,41,5,,,,,,,,,,,,,,,,,,,AMSA17.jpg,AMNE11.jpg,AMNE05.jpg,AMSA03.jpg,AMNE05.jpg,MN,1,num_2,32,num_8,0.81678593345,,,2018_Mar_21_1151,59.9972866213,FEMA4ImagesEEG,001,103292,
AFNE01.JPG,AFNE01.JPG,AFNE01.JPG,AFNE01.JPG,AFNE01.JPG,AFNE01.JPG,,,,,4,2,42,3,,,,,,,,,,,,,,,,,,,AMNE19.jpg,AMSA05.jpg,AMSA09.jpg,AMNE04.jpg,AMNE19.jpg,MN,1,num_8,32,num_4,1.96657965006,,,2018_Mar_21_1151,59.9972866213,FEMA4ImagesEEG,001,103292,
AFNE01.JPG,AFNE01.JPG,AFNE01.JPG,AFNE01.JPG,AFNE01.JPG,AFNE01.JPG,,,,,4,3,43,7,,,,,,,,,,,,,,,,,,,AMSA14.jpg,AMSA02.jpg,AMNE15.jpg,AMNE20.jpg,AMNE15.jpg,MN,1,num_2,32,num_8,0.683477553539,,,2018_Mar_21_1151,59.9972866213,FEMA4ImagesEEG,001,103292,
AFNE01.JPG,AFNE01.JPG,AFNE01.JPG,AFNE01.JPG,AFNE01.JPG,AFNE01.JPG,,,,,4,4,44,4,,,,,,,,,,,,,,,,,,,AMSA14.jpg,AMNE10.jpg,AMNE08.jpg,AMSA01.jpg,AMSA01.jpg,MS,2,num_4,32,num_2,0.783464050386,,,2018_Mar_21_1151,59.9972866213,FEMA4ImagesEEG,001,103292,
AFNE01.JPG,AFNE01.JPG,AFNE01.JPG,AFNE01.JPG,AFNE01.JPG,AFNE01.JPG,,,,,4,5,45,8,,,,,,,,,,,,,,,,,,,AMNE13.jpg,AMSA03.jpg,AMSA20.jpg,AMNE06.jpg,AMNE13.jpg,MN,1,num_8,16,num_8,0.633472758811,,,2018_Mar_21_1151,59.9972866213,FEMA4ImagesEEG,001,103292,
AFNE01.JPG,AFNE01.JPG,AFNE01.JPG,AFNE01.JPG,AFNE01.JPG,AFNE01.JPG,,,,,4,6,46,2,,,,,,,,,,,,,,,,,,,AMSA03.jpg,AMNE18.jpg,AMSA14.jpg,AMNE08.jpg,AMNE18.jpg,MN,1,num_6,16,num_6,0.950187006965,,,2018_Mar_21_1151,59.9972866213,FEMA4ImagesEEG,001,103292,
AFNE01.JPG,AFNE01.JPG,AFNE01.JPG,AFNE01.JPG,AFNE01.JPG,AFNE01.JPG,,,,,4,7,47,6,,,,,,,,,,,,,,,,,,,AMSA20.jpg,AMSA08.jpg,AMNE03.jpg,AMNE04.jpg,AMSA08.jpg,MS,2,num_6,32,num_8,0.70012807101,,,2018_Mar_21_1151,59.9972866213,FEMA4ImagesEEG,001,103292,
AFNE01.JPG,AFNE01.JPG,AFNE01.JPG,AFNE01.JPG,AFNE01.JPG,AFNE01.JPG,,,,,4,8,48,0,,,,,,,,,,,,,,,,,,,AMSA15.jpg,AMNE01.jpg,AMSA08.jpg,AMNE17.jpg,AMNE01.jpg,MN,1,num_6,16,num_6,1.33345296886,,,2018_Mar_21_1151,59.9972866213,FEMA4ImagesEEG,001,103292,
AFNE01.JPG,AFNE01.JPG,AFNE01.JPG,AFNE01.JPG,AFNE01.JPG,AFNE01.JPG,,,,,4,9,49,1,,,,,,,,,,,,,,,,,,,AMSA01.jpg,AMNE06.jpg,AMNE13.jpg,AMSA07.jpg,AMNE06.jpg,MN,1,num_6,32,num_8,0.666879637633,,,2018_Mar_21_1151,59.9972866213,FEMA4ImagesEEG,001,103292,
AFNE01.JPG,AFNE01.JPG,AFNE01.JPG,AFNE01.JPG,AFNE01.JPG,AFNE01.JPG,,,,,5,0,50,5,,,,,,,,,,,,,,,,,,,AMNE03.jpg,AMNE19.jpg,AMSA05.jpg,AMSA08.jpg,AMSA05.jpg,MS,2,num_2,16,num_2,1.1000881712,,,2018_Mar_21_1151,59.9972866213,FEMA4ImagesEEG,001,103292,
AFNE01.JPG,AFNE01.JPG,AFNE01.JPG,AFNE01.JPG,AFNE01.JPG,AFNE01.JPG,,,,,5,1,51,4,,,,,,,,,,,,,,,,,,,AMNE15.jpg,AMSA01.jpg,AMNE05.jpg,AMSA13.jpg,AMSA13.jpg,MS,2,num_4,32,num_2,0.833438375499,,,2018_Mar_21_1151,59.9972866213,FEMA4ImagesEEG,001,103292,
AFNE01.JPG,AFNE01.JPG,AFNE01.JPG,AFNE01.JPG,AFNE01.JPG,AFNE01.JPG,,,,,5,2,52,0,,,,,,,,,,,,,,,,,,,AMNE15.jpg,AMSA19.jpg,AMNE11.jpg,AMSA15.jpg,AMNE15.jpg,MN,1,num_8,16,num_8,0.716913298704,,,2018_Mar_21_1151,59.9972866213,FEMA4ImagesEEG,001,103292,
AFNE01.JPG,AFNE01.JPG,AFNE01.JPG,AFNE01.JPG,AFNE01.JPG,AFNE01.JPG,,,,,5,3,53,7,,,,,,,,,,,,,,,,,,,AMNE20.jpg,AMSA15.jpg,AMSA16.jpg,AMNE08.jpg,AMNE20.jpg,MN,1,num_8,32,num_4,0.750159487594,,,2018_Mar_21_1151,59.9972866213,FEMA4ImagesEEG,001,103292,
AFNE01.JPG,AFNE01.JPG,AFNE01.JPG,AFNE01.JPG,AFNE01.JPG,AFNE01.JPG,,,,,5,4,54,3,,,,,,,,,,,,,,,,,,,AMSA06.jpg,AMNE05.jpg,AMNE08.jpg,AMSA12.jpg,AMSA12.jpg,MS,2,num_4,32,num_2,1.68336593639,,,2018_Mar_21_1151,59.9972866213,FEMA4ImagesEEG,001,103292,
AFNE01.JPG,AFNE01.JPG,AFNE01.JPG,AFNE01.JPG,AFNE01.JPG,AFNE01.JPG,,,,,5,5,55,6,,,,,,,,,,,,,,,,,,,AMNE02.jpg,AMSA19.jpg,AMSA15.jpg,AMNE18.jpg,AMSA15.jpg,MS,2,num_2,32,num_6,0.98348258948,,,2018_Mar_21_1151,59.9972866213,FEMA4ImagesEEG,001,103292,
AFNE01.JPG,AFNE01.JPG,AFNE01.JPG,AFNE01.JPG,AFNE01.JPG,AFNE01.JPG,,,,,5,6,56,1,,,,,,,,,,,,,,,,,,,AMNE04.jpg,AMNE20.jpg,AMSA14.jpg,AMSA11.jpg,AMSA11.jpg,MS,2,num_4,32,num_8,0.666862958577,,,2018_Mar_21_1151,59.9972866213,FEMA4ImagesEEG,001,103292,
AFNE01.JPG,AFNE01.JPG,AFNE01.JPG,AFNE01.JPG,AFNE01.JPG,AFNE01.JPG,,,,,5,7,57,2,,,,,,,,,,,,,,,,,,,AMNE18.jpg,AMSA12.jpg,AMNE11.jpg,AMSA20.jpg,AMSA20.jpg,MS,2,num_4,32,num_8,0.683478515595,,,2018_Mar_21_1151,59.9972866213,FEMA4ImagesEEG,001,103292,
AFNE01.JPG,AFNE01.JPG,AFNE01.JPG,AFNE01.JPG,AFNE01.JPG,AFNE01.JPG,,,,,5,8,58,9,,,,,,,,,,,,,,,,,,,AMSA16.jpg,AMNE15.jpg,AMSA17.jpg,AMNE05.jpg,AMNE15.jpg,MN,1,num_6,32,num_4,1.80002989294,,,2018_Mar_21_1151,59.9972866213,FEMA4ImagesEEG,001,103292,
AFNE01.JPG,AFNE01.JPG,AFNE01.JPG,AFNE01.JPG,AFNE01.JPG,AFNE01.JPG,,,,,5,9,59,8,,,,,,,,,,,,,,,,,,,AMNE01.jpg,AMSA02.jpg,AMSA16.jpg,AMNE10.jpg,AMSA16.jpg,MS,2,num_2,32,num_4,1.06683011539,,,2018_Mar_21_1151,59.9972866213,FEMA4ImagesEEG,001,103292,
,,,,,,,,,,,,,,,,,,,,,,,,,,,,,,,,,,,,,,,,,,,space,15.4156265906,2018_Mar_21_1151,59.9972866213,FEMA4ImagesEEG,001,103292,
AFNE01.JPG,AFNE01.JPG,AFNE01.JPG,AFNE01.JPG,AFNE01.JPG,AFNE01.JPG,,,,,,,,,0,0,0,8,,,,,,,,,,,,,,,AFSA04.jpg,AFNE15.jpg,AFNE09.jpg,AFSA17.jpg,AFSA17.jpg,FS,4,num_4,32,num_6,0.650083504152,,,2018_Mar_21_1151,59.9972866213,FEMA4ImagesEEG,001,103292,
AFNE01.JPG,AFNE01.JPG,AFNE01.JPG,AFNE01.JPG,AFNE01.JPG,AFNE01.JPG,,,,,,,,,0,1,1,2,,,,,,,,,,,,,,,AFSA15.jpg,AFSA19.jpg,AFNE20.jpg,AFNE12.jpg,AFSA15.jpg,FS,4,num_8,16,num_8,0.900122554507,,,2018_Mar_21_1151,59.9972866213,FEMA4ImagesEEG,001,103292,
AFNE01.JPG,AFNE01.JPG,AFNE01.JPG,AFNE01.JPG,AFNE01.JPG,AFNE01.JPG,,,,,,,,,0,2,2,4,,,,,,,,,,,,,,,AFNE12.jpg,AFSA01.jpg,AFSA08.jpg,AFNE17.jpg,AFSA01.jpg,FS,4,num_6,32,num_4,0.566811672878,,,2018_Mar_21_1151,59.9972866213,FEMA4ImagesEEG,001,103292,
AFNE01.JPG,AFNE01.JPG,AFNE01.JPG,AFNE01.JPG,AFNE01.JPG,AFNE01.JPG,,,,,,,,,0,3,3,1,,,,,,,,,,,,,,,AFNE14.jpg,AFNE08.jpg,AFSA18.jpg,AFSA11.jpg,AFNE14.jpg,FN,3,num_8,32,num_6,0.933469455224,,,2018_Mar_21_1151,59.9972866213,FEMA4ImagesEEG,001,103292,
AFNE01.JPG,AFNE01.JPG,AFNE01.JPG,AFNE01.JPG,AFNE01.JPG,AFNE01.JPG,,,,,,,,,0,4,4,0,,,,,,,,,,,,,,,AFSA10.jpg,AFNE04.jpg,AFNE08.jpg,AFSA01.jpg,AFSA10.jpg,FS,4,num_8,32,num_2,1.80002636509,,,2018_Mar_21_1151,59.9972866213,FEMA4ImagesEEG,001,103292,
AFNE01.JPG,AFNE01.JPG,AFNE01.JPG,AFNE01.JPG,AFNE01.JPG,AFNE01.JPG,,,,,,,,,0,5,5,6,,,,,,,,,,,,,,,AFSA16.jpg,AFNE17.jpg,AFSA09.jpg,AFNE04.jpg,AFNE17.jpg,FN,3,num_6,16,num_6,0.700173615944,,,2018_Mar_21_1151,59.9972866213,FEMA4ImagesEEG,001,103292,
AFNE01.JPG,AFNE01.JPG,AFNE01.JPG,AFNE01.JPG,AFNE01.JPG,AFNE01.JPG,,,,,,,,,0,6,6,9,,,,,,,,,,,,,,,AFSA04.jpg,AFNE15.jpg,AFSA09.jpg,AFNE14.jpg,AFNE15.jpg,FN,3,num_6,16,num_6,0.583591127302,,,2018_Mar_21_1151,59.9972866213,FEMA4ImagesEEG,001,103292,
AFNE01.JPG,AFNE01.JPG,AFNE01.JPG,AFNE01.JPG,AFNE01.JPG,AFNE01.JPG,,,,,,,,,0,7,7,7,,,,,,,,,,,,,,,AFNE08.jpg,AFNE09.jpg,AFSA06.jpg,AFSA10.jpg,AFSA06.jpg,FS,4,num_2,32,num_8,0.650146048516,,,2018_Mar_21_1151,59.9972866213,FEMA4ImagesEEG,001,103292,
AFNE01.JPG,AFNE01.JPG,AFNE01.JPG,AFNE01.JPG,AFNE01.JPG,AFNE01.JPG,,,,,,,,,0,8,8,3,,,,,,,,,,,,,,,AFSA05.jpg,AFNE07.jpg,AFSA04.jpg,AFNE16.jpg,AFNE16.jpg,FN,3,num_4,16,num_4,0.650300965179,,,2018_Mar_21_1151,59.9972866213,FEMA4ImagesEEG,001,103292,
AFNE01.JPG,AFNE01.JPG,AFNE01.JPG,AFNE01.JPG,AFNE01.JPG,AFNE01.JPG,,,,,,,,,0,9,9,5,,,,,,,,,,,,,,,AFSA11.jpg,AFNE09.jpg,AFNE11.jpg,AFSA18.jpg,AFNE11.jpg,FN,3,num_2,16,num_2,1.03345466917,,,2018_Mar_21_1151,59.9972866213,FEMA4ImagesEEG,001,103292,
AFNE01.JPG,AFNE01.JPG,AFNE01.JPG,AFNE01.JPG,AFNE01.JPG,AFNE01.JPG,,,,,,,,,1,0,10,1,,,,,,,,,,,,,,,AFSA02.jpg,AFNE15.jpg,AFNE20.jpg,AFSA04.jpg,AFSA04.jpg,FS,4,num_4,16,num_4,1.2167489198,,,2018_Mar_21_1151,59.9972866213,FEMA4ImagesEEG,001,103292,
AFNE01.JPG,AFNE01.JPG,AFNE01.JPG,AFNE01.JPG,AFNE01.JPG,AFNE01.JPG,,,,,,,,,1,1,11,2,,,,,,,,,,,,,,,AFNE03.jpg,AFNE09.jpg,AFSA08.jpg,AFSA16.jpg,AFNE09.jpg,FN,3,num_6,32,num_8,0.850196340121,,,2018_Mar_21_1151,59.9972866213,FEMA4ImagesEEG,001,103292,
AFNE01.JPG,AFNE01.JPG,AFNE01.JPG,AFNE01.JPG,AFNE01.JPG,AFNE01.JPG,,,,,,,,,1,2,12,3,,,,,,,,,,,,,,,AFNE19.jpg,AFNE20.jpg,AFSA09.jpg,AFSA01.jpg,AFSA01.jpg,FS,4,num_4,32,num_8,0.833488089498,,,2018_Mar_21_1151,59.9972866213,FEMA4ImagesEEG,001,103292,
AFNE01.JPG,AFNE01.JPG,AFNE01.JPG,AFNE01.JPG,AFNE01.JPG,AFNE01.JPG,,,,,,,,,1,3,13,8,,,,,,,,,,,,,,,AFSA18.jpg,AFNE15.jpg,AFNE16.jpg,AFSA12.jpg,AFNE15.jpg,FN,3,num_6,16,num_6,0.516812009737,,,2018_Mar_21_1151,59.9972866213,FEMA4ImagesEEG,001,103292,
AFNE01.JPG,AFNE01.JPG,AFNE01.JPG,AFNE01.JPG,AFNE01.JPG,AFNE01.JPG,,,,,,,,,1,4,14,6,,,,,,,,,,,,,,,AFNE09.jpg,AFNE11.jpg,AFSA10.jpg,AFSA08.jpg,AFSA08.jpg,FS,4,num_4,16,num_4,0.716772494372,,,2018_Mar_21_1151,59.9972866213,FEMA4ImagesEEG,001,103292,
AFNE01.JPG,AFNE01.JPG,AFNE01.JPG,AFNE01.JPG,AFNE01.JPG,AFNE01.JPG,,,,,,,,,1,5,15,0,,,,,,,,,,,,,,,AFSA17.jpg,AFNE20.jpg,AFSA04.jpg,AFNE13.jpg,AFSA17.jpg,FS,4,num_8,32,num_4,0.816877344158,,,2018_Mar_21_1151,59.9972866213,FEMA4ImagesEEG,001,103292,
AFNE01.JPG,AFNE01.JPG,AFNE01.JPG,AFNE01.JPG,AFNE01.JPG,AFNE01.JPG,,,,,,,,,1,6,16,7,,,,,,,,,,,,,,,AFSA05.jpg,AFSA06.jpg,AFNE03.jpg,AFNE11.jpg,AFNE11.jpg,FN,3,num_4,32,num_8,1.05014816532,,,2018_Mar_21_1151,59.9972866213,FEMA4ImagesEEG,001,103292,
AFNE01.JPG,AFNE01.JPG,AFNE01.JPG,AFNE01.JPG,AFNE01.JPG,AFNE01.JPG,,,,,,,,,1,7,17,4,,,,,,,,,,,,,,,AFNE17.jpg,AFSA11.jpg,AFNE02.jpg,AFSA17.jpg,AFNE02.jpg,FN,3,num_2,32,num_8,0.86675544735,,,2018_Mar_21_1151,59.9972866213,FEMA4ImagesEEG,001,103292,
AFNE01.JPG,AFNE01.JPG,AFNE01.JPG,AFNE01.JPG,AFNE01.JPG,AFNE01.JPG,,,,,,,,,1,8,18,9,,,,,,,,,,,,,,,AFNE12.jpg,AFSA09.jpg,AFNE07.jpg,AFSA07.jpg,AFNE07.jpg,FN,3,num_2,32,num_8,0.683532720432,,,2018_Mar_21_1151,59.9972866213,FEMA4ImagesEEG,001,103292,
AFNE01.JPG,AFNE01.JPG,AFNE01.JPG,AFNE01.JPG,AFNE01.JPG,AFNE01.JPG,,,,,,,,,1,9,19,5,,,,,,,,,,,,,,,AFNE08.jpg,AFSA16.jpg,AFSA03.jpg,AFNE18.jpg,AFNE08.jpg,FN,3,num_8,16,num_8,0.783463409171,,,2018_Mar_21_1151,59.9972866213,FEMA4ImagesEEG,001,103292,
AFNE01.JPG,AFNE01.JPG,AFNE01.JPG,AFNE01.JPG,AFNE01.JPG,AFNE01.JPG,,,,,,,,,2,0,20,7,,,,,,,,,,,,,,,AFNE05.jpg,AFSA18.jpg,AFSA11.jpg,AFNE02.jpg,AFSA11.jpg,FS,4,num_2,16,num_2,0.800110719167,,,2018_Mar_21_1151,59.9972866213,FEMA4ImagesEEG,001,103292,
AFNE01.JPG,AFNE01.JPG,AFNE01.JPG,AFNE01.JPG,AFNE01.JPG,AFNE01.JPG,,,,,,,,,2,1,21,6,,,,,,,,,,,,,,,AFNE20.jpg,AFSA11.jpg,AFNE14.jpg,AFSA12.jpg,AFNE14.jpg,FN,3,num_2,32,num_8,1.10013082903,,,2018_Mar_21_1151,59.9972866213,FEMA4ImagesEEG,001,103292,
AFNE01.JPG,AFNE01.JPG,AFNE01.JPG,AFNE01.JPG,AFNE01.JPG,AFNE01.JPG,,,,,,,,,2,2,22,3,,,,,,,,,,,,,,,AFNE10.jpg,AFSA07.jpg,AFSA06.jpg,AFNE17.jpg,AFNE17.jpg,FN,3,num_4,16,num_4,1.16670724005,,,2018_Mar_21_1151,59.9972866213,FEMA4ImagesEEG,001,103292,
AFNE01.JPG,AFNE01.JPG,AFNE01.JPG,AFNE01.JPG,AFNE01.JPG,AFNE01.JPG,,,,,,,,,2,3,23,4,,,,,,,,,,,,,,,AFNE03.jpg,AFSA15.jpg,AFNE14.jpg,AFSA09.jpg,AFSA09.jpg,FS,4,num_4,16,num_4,1.1167428582,,,2018_Mar_21_1151,59.9972866213,FEMA4ImagesEEG,001,103292,
AFNE01.JPG,AFNE01.JPG,AFNE01.JPG,AFNE01.JPG,AFNE01.JPG,AFNE01.JPG,,,,,,,,,2,4,24,0,,,,,,,,,,,,,,,AFSA12.jpg,AFNE16.jpg,AFNE10.jpg,AFSA08.jpg,AFSA08.jpg,FS,4,num_4,16,num_4,0.816858420614,,,2018_Mar_21_1151,59.9972866213,FEMA4ImagesEEG,001,103292,
AFNE01.JPG,AFNE01.JPG,AFNE01.JPG,AFNE01.JPG,AFNE01.JPG,AFNE01.JPG,,,,,,,,,2,5,25,5,,,,,,,,,,,,,,,AFNE13.jpg,AFNE17.jpg,AFSA17.jpg,AFSA14.jpg,AFNE17.jpg,FN,3,num_6,32,num_8,0.616773168091,,,2018_Mar_21_1151,59.9972866213,FEMA4ImagesEEG,001,103292,
AFNE01.JPG,AFNE01.JPG,AFNE01.JPG,AFNE01.JPG,AFNE01.JPG,AFNE01.JPG,,,,,,,,,2,6,26,8,,,,,,,,,,,,,,,AFSA12.jpg,AFNE06.jpg,AFSA18.jpg,AFNE12.jpg,AFSA12.jpg,FS,4,num_8,32,num_4,0.550193549599,,,2018_Mar_21_1151,59.9972866213,FEMA4ImagesEEG,001,103292,
AFNE01.JPG,AFNE01.JPG,AFNE01.JPG,AFNE01.JPG,AFNE01.JPG,AFNE01.JPG,,,,,,,,,2,7,27,9,,,,,,,,,,,,,,,AFNE13.jpg,AFSA10.jpg,AFNE15.jpg,AFSA04.jpg,AFSA10.jpg,FS,4,num_6,32,num_4,0.783453466371,,,2018_Mar_21_1151,59.9972866213,FEMA4ImagesEEG,001,103292,
AFNE01.JPG,AFNE01.JPG,AFNE01.JPG,AFNE01.JPG,AFNE01.JPG,AFNE01.JPG,,,,,,,,,2,8,28,1,,,,,,,,,,,,,,,AFSA03.jpg,AFNE09.jpg,AFNE20.jpg,AFSA16.jpg,AFSA03.jpg,FS,4,num_8,32,num_4,0.766765743028,,,2018_Mar_21_1151,59.9972866213,FEMA4ImagesEEG,001,103292,
AFNE01.JPG,AFNE01.JPG,AFNE01.JPG,AFNE01.JPG,AFNE01.JPG,AFNE01.JPG,,,,,,,,,2,9,29,2,,,,,,,,,,,,,,,AFSA16.jpg,AFSA03.jpg,AFNE07.jpg,AFNE11.jpg,AFNE07.jpg,FN,3,num_2,16,num_2,0.533490431029,,,2018_Mar_21_1151,59.9972866213,FEMA4ImagesEEG,001,103292,
AFNE01.JPG,AFNE01.JPG,AFNE01.JPG,AFNE01.JPG,AFNE01.JPG,AFNE01.JPG,,,,,,,,,3,0,30,7,,,,,,,,,,,,,,,AFNE15.jpg,AFNE08.jpg,AFSA03.jpg,AFSA07.jpg,AFNE15.jpg,FN,3,num_8,16,num_8,0.450206732377,,,2018_Mar_21_1151,59.9972866213,FEMA4ImagesEEG,001,103292,
AFNE01.JPG,AFNE01.JPG,AFNE01.JPG,AFNE01.JPG,AFNE01.JPG,AFNE01.JPG,,,,,,,,,3,1,31,4,,,,,,,,,,,,,,,AFNE16.jpg,AFSA14.jpg,AFSA01.jpg,AFNE18.jpg,AFNE16.jpg,FN,3,num_8,32,num_4,1.00011482462,,,2018_Mar_21_1151,59.9972866213,FEMA4ImagesEEG,001,103292,
AFNE01.JPG,AFNE01.JPG,AFNE01.JPG,AFNE01.JPG,AFNE01.JPG,AFNE01.JPG,,,,,,,,,3,2,32,6,,,,,,,,,,,,,,,AFNE14.jpg,AFNE09.jpg,AFSA19.jpg,AFSA02.jpg,AFSA19.jpg,FS,4,num_2,16,num_2,0.483526049182,,,2018_Mar_21_1151,59.9972866213,FEMA4ImagesEEG,001,103292,
AFNE01.JPG,AFNE01.JPG,AFNE01.JPG,AFNE01.JPG,AFNE01.JPG,AFNE01.JPG,,,,,,,,,3,3,33,0,,,,,,,,,,,,,,,AFSA14.jpg,AFSA09.jpg,AFNE17.jpg,AFNE08.jpg,AFNE08.jpg,FN,3,num_4,32,num_8,0.783452824689,,,2018_Mar_21_1151,59.9972866213,FEMA4ImagesEEG,001,103292,
AFNE01.JPG,AFNE01.JPG,AFNE01.JPG,AFNE01.JPG,AFNE01.JPG,AFNE01.JPG,,,,,,,,,3,4,34,1,,,,,,,,,,,,,,,AFNE12.jpg,AFNE02.jpg,AFSA11.jpg,AFSA07.jpg,AFNE12.jpg,FN,3,num_8,16,num_8,0.466912737582,,,2018_Mar_21_1151,59.9972866213,FEMA4ImagesEEG,001,103292,
AFNE01.JPG,AFNE01.JPG,AFNE01.JPG,AFNE01.JPG,AFNE01.JPG,AFNE01.JPG,,,,,,,,,3,5,35,9,,,,,,,,,,,,,,,AFNE19.jpg,AFSA08.jpg,AFSA05.jpg,AFNE17.jpg,AFNE19.jpg,FN,3,num_8,16,num_8,0.966780753341,,,2018_Mar_21_1151,59.9972866213,FEMA4ImagesEEG,001,103292,
AFNE01.JPG,AFNE01.JPG,AFNE01.JPG,AFNE01.JPG,AFNE01.JPG,AFNE01.JPG,,,,,,,,,3,6,36,2,,,,,,,,,,,,,,,AFNE07.jpg,AFSA13.jpg,AFSA04.jpg,AFNE08.jpg,AFSA13.jpg,FS,4,num_6,16,num_6,1.10012281127,,,2018_Mar_21_1151,59.9972866213,FEMA4ImagesEEG,001,103292,
AFNE01.JPG,AFNE01.JPG,AFNE01.JPG,AFNE01.JPG,AFNE01.JPG,AFNE01.JPG,,,,,,,,,3,7,37,5,,,,,,,,,,,,,,,AFSA13.jpg,AFNE01.jpg,AFNE13.jpg,AFSA19.jpg,AFSA19.jpg,FS,4,num_4,32,num_2,0.566874858458,,,2018_Mar_21_1151,59.9972866213,FEMA4ImagesEEG,001,103292,
AFNE01.JPG,AFNE01.JPG,AFNE01.JPG,AFNE01.JPG,AFNE01.JPG,AFNE01.JPG,,,,,,,,,3,8,38,3,,,,,,,,,,,,,,,AFSA06.jpg,AFNE05.jpg,AFSA04.jpg,AFNE19.jpg,AFSA04.jpg,FS,4,num_2,32,num_8,0.933573695365,,,2018_Mar_21_1151,59.9972866213,FEMA4ImagesEEG,001,103292,
AFNE01.JPG,AFNE01.JPG,AFNE01.JPG,AFNE01.JPG,AFNE01.JPG,AFNE01.JPG,,,,,,,,,3,9,39,8,,,,,,,,,,,,,,,AFSA03.jpg,AFNE03.jpg,AFNE16.jpg,AFSA13.jpg,AFNE16.jpg,FN,3,num_2,16,num_2,0.883426492102,,,2018_Mar_21_1151,59.9972866213,FEMA4ImagesEEG,001,103292,
AFNE01.JPG,AFNE01.JPG,AFNE01.JPG,AFNE01.JPG,AFNE01.JPG,AFNE01.JPG,,,,,,,,,4,0,40,8,,,,,,,,,,,,,,,AFSA04.jpg,AFNE14.jpg,AFSA17.jpg,AFNE12.jpg,AFNE12.jpg,FN,3,num_4,32,num_8,0.6667885473,,,2018_Mar_21_1151,59.9972866213,FEMA4ImagesEEG,001,103292,
AFNE01.JPG,AFNE01.JPG,AFNE01.JPG,AFNE01.JPG,AFNE01.JPG,AFNE01.JPG,,,,,,,,,4,1,41,2,,,,,,,,,,,,,,,AFSA12.jpg,AFNE19.jpg,AFNE18.jpg,AFSA13.jpg,AFNE18.jpg,FN,3,num_2,16,num_2,0.816816403531,,,2018_Mar_21_1151,59.9972866213,FEMA4ImagesEEG,001,103292,
AFNE01.JPG,AFNE01.JPG,AFNE01.JPG,AFNE01.JPG,AFNE01.JPG,AFNE01.JPG,,,,,,,,,4,2,42,0,,,,,,,,,,,,,,,AFNE17.jpg,AFNE14.jpg,AFSA12.jpg,AFSA01.jpg,AFSA01.jpg,FS,4,num_4,16,num_4,0.633485588245,,,2018_Mar_21_1151,59.9972866213,FEMA4ImagesEEG,001,103292,
AFNE01.JPG,AFNE01.JPG,AFNE01.JPG,AFNE01.JPG,AFNE01.JPG,AFNE01.JPG,,,,,,,,,4,3,43,1,,,,,,,,,,,,,,,AFSA20.jpg,AFSA04.jpg,AFNE15.jpg,AFNE17.jpg,AFNE15.jpg,FN,3,num_2,16,num_2,0.633466343861,,,2018_Mar_21_1151,59.9972866213,FEMA4ImagesEEG,001,103292,
AFNE01.JPG,AFNE01.JPG,AFNE01.JPG,AFNE01.JPG,AFNE01.JPG,AFNE01.JPG,,,,,,,,,4,4,44,7,,,,,,,,,,,,,,,AFSA02.jpg,AFNE01.jpg,AFNE08.jpg,AFSA10.jpg,AFSA02.jpg,FS,4,num_8,16,num_8,0.966812506784,,,2018_Mar_21_1151,59.9972866213,FEMA4ImagesEEG,001,103292,
AFNE01.JPG,AFNE01.JPG,AFNE01.JPG,AFNE01.JPG,AFNE01.JPG,AFNE01.JPG,,,,,,,,,4,5,45,6,,,,,,,,,,,,,,,AFNE08.jpg,AFNE16.jpg,AFSA14.jpg,AFSA16.jpg,AFSA16.jpg,FS,4,num_4,16,num_4,1.4333682619,,,2018_Mar_21_1151,59.9972866213,FEMA4ImagesEEG,001,103292,
AFNE01.JPG,AFNE01.JPG,AFNE01.JPG,AFNE01.JPG,AFNE01.JPG,AFNE01.JPG,,,,,,,,,4,6,46,3,,,,,,,,,,,,,,,AFSA05.jpg,AFNE10.jpg,AFNE03.jpg,AFSA19.jpg,AFNE10.jpg,FN,3,num_6,32,num_8,1.13346169284,,,2018_Mar_21_1151,59.9972866213,FEMA4ImagesEEG,001,103292,
AFNE01.JPG,AFNE01.JPG,AFNE01.JPG,AFNE01.JPG,AFNE01.JPG,AFNE01.JPG,,,,,,,,,4,7,47,5,,,,,,,,,,,,,,,AFSA13.jpg,AFNE11.jpg,AFNE17.jpg,AFSA01.jpg,AFNE11.jpg,FN,3,num_6,32,num_8,0.933474586811,,,2018_Mar_21_1151,59.9972866213,FEMA4ImagesEEG,001,103292,
AFNE01.JPG,AFNE01.JPG,AFNE01.JPG,AFNE01.JPG,AFNE01.JPG,AFNE01.JPG,,,,,,,,,4,8,48,4,,,,,,,,,,,,,,,AFNE11.jpg,AFSA10.jpg,AFNE02.jpg,AFSA17.jpg,AFSA10.jpg,FS,4,num_6,32,num_8,0.766809684224,,,2018_Mar_21_1151,59.9972866213,FEMA4ImagesEEG,001,103292,
AFNE01.JPG,AFNE01.JPG,AFNE01.JPG,AFNE01.JPG,AFNE01.JPG,AFNE01.JPG,,,,,,,,,4,9,49,9,,,,,,,,,,,,,,,AFSA13.jpg,AFNE19.jpg,AFSA02.jpg,AFNE03.jpg,AFNE03.jpg,FN,3,num_4,16,num_4,0.716785644647,,,2018_Mar_21_1151,59.9972866213,FEMA4ImagesEEG,001,103292,
AFNE01.JPG,AFNE01.JPG,AFNE01.JPG,AFNE01.JPG,AFNE01.JPG,AFNE01.JPG,,,,,,,,,5,0,50,5,,,,,,,,,,,,,,,AFSA17.jpg,AFNE19.jpg,AFNE12.jpg,AFSA20.jpg,AFNE12.jpg,FN,3,num_2,16,num_2,1.26674441388,,,2018_Mar_21_1151,59.9972866213,FEMA4ImagesEEG,001,103292,
AFNE01.JPG,AFNE01.JPG,AFNE01.JPG,AFNE01.JPG,AFNE01.JPG,AFNE01.JPG,,,,,,,,,5,1,51,2,,,,,,,,,,,,,,,AFNE10.jpg,AFNE18.jpg,AFSA19.jpg,AFSA06.jpg,AFSA19.jpg,FS,4,num_2,32,num_4,1.01679805713,,,2018_Mar_21_1151,59.9972866213,FEMA4ImagesEEG,001,103292,
AFNE01.JPG,AFNE01.JPG,AFNE01.JPG,AFNE01.JPG,AFNE01.JPG,AFNE01.JPG,,,,,,,,,5,2,52,0,,,,,,,,,,,,,,,AFNE15.jpg,AFSA12.jpg,AFSA07.jpg,AFNE13.jpg,AFSA07.jpg,FS,4,num_2,16,num_2,1.3167844899,,,2018_Mar_21_1151,59.9972866213,FEMA4ImagesEEG,001,103292,
AFNE01.JPG,AFNE01.JPG,AFNE01.JPG,AFNE01.JPG,AFNE01.JPG,AFNE01.JPG,,,,,,,,,5,3,53,6,,,,,,,,,,,,,,,AFSA13.jpg,AFSA04.jpg,AFNE14.jpg,AFNE13.jpg,AFSA13.jpg,FS,4,num_8,32,num_2,1.05011416692,,,2018_Mar_21_1151,59.9972866213,FEMA4ImagesEEG,001,103292,
AFNE01.JPG,AFNE01.JPG,AFNE01.JPG,AFNE01.JPG,AFNE01.JPG,AFNE01.JPG,,,,,,,,,5,4,54,8,,,,,,,,,,,,,,,AFNE14.jpg,AFSA09.jpg,AFSA05.jpg,AFNE11.jpg,AFNE14.jpg,FN,3,num_8,16,num_8,0.80014311336,,,2018_Mar_21_1151,59.9972866213,FEMA4ImagesEEG,001,103292,
AFNE01.JPG,AFNE01.JPG,AFNE01.JPG,AFNE01.JPG,AFNE01.JPG,AFNE01.JPG,,,,,,,,,5,5,55,1,,,,,,,,,,,,,,,AFNE12.jpg,AFSA05.jpg,AFNE15.jpg,AFSA07.jpg,AFNE15.jpg,FN,3,num_2,16,num_2,1.30006693816,,,2018_Mar_21_1151,59.9972866213,FEMA4ImagesEEG,001,103292,
AFNE01.JPG,AFNE01.JPG,AFNE01.JPG,AFNE01.JPG,AFNE01.JPG,AFNE01.JPG,,,,,,,,,5,6,56,4,,,,,,,,,,,,,,,AFSA15.jpg,AFSA10.jpg,AFNE04.jpg,AFNE05.jpg,AFNE05.jpg,FN,3,num_4,32,num_6,3.58323350316,,,2018_Mar_21_1151,59.9972866213,FEMA4ImagesEEG,001,103292,
AFNE01.JPG,AFNE01.JPG,AFNE01.JPG,AFNE01.JPG,AFNE01.JPG,AFNE01.JPG,,,,,,,,,5,7,57,7,,,,,,,,,,,,,,,AFNE03.jpg,AFNE13.jpg,AFSA01.jpg,AFSA12.jpg,AFNE13.jpg,FN,3,num_6,32,num_8,0.766737838741,,,2018_Mar_21_1151,59.9972866213,FEMA4ImagesEEG,001,103292,
AFNE01.JPG,AFNE01.JPG,AFNE01.JPG,AFNE01.JPG,AFNE01.JPG,AFNE01.JPG,,,,,,,,,5,8,58,3,,,,,,,,,,,,,,,AFSA11.jpg,AFNE20.jpg,AFSA20.jpg,AFNE14.jpg,AFNE20.jpg,FN,3,num_6,32,num_2,0.750151148532,,,2018_Mar_21_1151,59.9972866213,FEMA4ImagesEEG,001,103292,
AFNE01.JPG,AFNE01.JPG,AFNE01.JPG,AFNE01.JPG,AFNE01.JPG,AFNE01.JPG,,,,,,,,,5,9,59,9,,,,,,,,,,,,,,,AFSA09.jpg,AFSA04.jpg,AFNE07.jpg,AFNE05.jpg,AFNE07.jpg,FN,3,num_2,32,num_8,0.683385180775,,,2018_Mar_21_1151,59.9972866213,FEMA4ImagesEEG,001,103292,
,,,,,,,,,,,,,,,,,,,,,,,,,,,,,,,,,,,,,,,,,,,space,20.9151559067,2018_Mar_21_1151,59.9972866213,FEMA4ImagesEEG,001,103292,
AFNE01.JPG,AFNE01.JPG,AFNE01.JPG,AFNE01.JPG,AFNE01.JPG,AFNE01.JPG,,,,,,,,,,,,,0,0,0,8,,,,,,,,,,,AMSA19.jpg,AMSA03.jpg,AMNE06.jpg,AMNE02.jpg,AMNE06.jpg,MN,1,num_2,32,num_8,0.733464387245,,,2018_Mar_21_1151,59.9972866213,FEMA4ImagesEEG,001,103292,
AFNE01.JPG,AFNE01.JPG,AFNE01.JPG,AFNE01.JPG,AFNE01.JPG,AFNE01.JPG,,,,,,,,,,,,,0,1,1,5,,,,,,,,,,,AMNE02.jpg,AMSA16.jpg,AMNE05.jpg,AMSA08.jpg,AMSA08.jpg,MS,2,num_4,32,num_8,0.783457315061,,,2018_Mar_21_1151,59.9972866213,FEMA4ImagesEEG,001,103292,
AFNE01.JPG,AFNE01.JPG,AFNE01.JPG,AFNE01.JPG,AFNE01.JPG,AFNE01.JPG,,,,,,,,,,,,,0,2,2,7,,,,,,,,,,,AMSA10.jpg,AMNE20.jpg,AMNE12.jpg,AMSA04.jpg,AMSA10.jpg,MS,2,num_8,32,num_2,0.633568017744,,,2018_Mar_21_1151,59.9972866213,FEMA4ImagesEEG,001,103292,
AFNE01.JPG,AFNE01.JPG,AFNE01.JPG,AFNE01.JPG,AFNE01.JPG,AFNE01.JPG,,,,,,,,,,,,,0,3,3,4,,,,,,,,,,,AMSA07.jpg,AMNE10.jpg,AMNE19.jpg,AMSA01.jpg,AMSA07.jpg,MS,2,num_8,16,num_8,0.733222870622,,,2018_Mar_21_1151,59.9972866213,FEMA4ImagesEEG,001,103292,
AFNE01.JPG,AFNE01.JPG,AFNE01.JPG,AFNE01.JPG,AFNE01.JPG,AFNE01.JPG,,,,,,,,,,,,,0,4,4,2,,,,,,,,,,,AMNE02.jpg,AMSA04.jpg,AMNE07.jpg,AMSA12.jpg,AMNE07.jpg,MN,1,num_2,32,num_8,0.91676441161,,,2018_Mar_21_1151,59.9972866213,FEMA4ImagesEEG,001,103292,
AFNE01.JPG,AFNE01.JPG,AFNE01.JPG,AFNE01.JPG,AFNE01.JPG,AFNE01.JPG,,,,,,,,,,,,,0,5,5,0,,,,,,,,,,,AMNE14.jpg,AMNE19.jpg,AMSA12.jpg,AMSA03.jpg,AMNE14.jpg,MN,1,num_8,16,num_8,0.750006815884,,,2018_Mar_21_1151,59.9972866213,FEMA4ImagesEEG,001,103292,
AFNE01.JPG,AFNE01.JPG,AFNE01.JPG,AFNE01.JPG,AFNE01.JPG,AFNE01.JPG,,,,,,,,,,,,,0,6,6,9,,,,,,,,,,,AMNE03.jpg,AMNE20.jpg,AMSA17.jpg,AMSA15.jpg,AMSA15.jpg,MS,2,num_4,16,num_4,0.483474089764,,,2018_Mar_21_1151,59.9972866213,FEMA4ImagesEEG,001,103292,
AFNE01.JPG,AFNE01.JPG,AFNE01.JPG,AFNE01.JPG,AFNE01.JPG,AFNE01.JPG,,,,,,,,,,,,,0,7,7,6,,,,,,,,,,,AMNE13.jpg,AMSA14.jpg,AMSA13.jpg,AMNE09.jpg,AMSA14.jpg,MS,2,num_6,32,num_2,0.96682726033,,,2018_Mar_21_1151,59.9972866213,FEMA4ImagesEEG,001,103292,
AFNE01.JPG,AFNE01.JPG,AFNE01.JPG,AFNE01.JPG,AFNE01.JPG,AFNE01.JPG,,,,,,,,,,,,,0,8,8,3,,,,,,,,,,,AMNE09.jpg,AMSA02.jpg,AMNE06.jpg,AMSA20.jpg,AMNE09.jpg,MN,1,num_8,16,num_8,0.616821920499,,,2018_Mar_21_1151,59.9972866213,FEMA4ImagesEEG,001,103292,
AFNE01.JPG,AFNE01.JPG,AFNE01.JPG,AFNE01.JPG,AFNE01.JPG,AFNE01.JPG,,,,,,,,,,,,,0,9,9,1,,,,,,,,,,,AMNE14.jpg,AMSA18.jpg,AMNE05.jpg,AMSA16.jpg,AMNE14.jpg,MN,1,num_8,16,num_8,0.683565115556,,,2018_Mar_21_1151,59.9972866213,FEMA4ImagesEEG,001,103292,
AFNE01.JPG,AFNE01.JPG,AFNE01.JPG,AFNE01.JPG,AFNE01.JPG,AFNE01.JPG,,,,,,,,,,,,,1,0,10,7,,,,,,,,,,,AMSA19.jpg,AMSA08.jpg,AMNE02.jpg,AMNE16.jpg,AMNE16.jpg,MN,1,num_4,16,num_4,0.583483679686,,,2018_Mar_21_1151,59.9972866213,FEMA4ImagesEEG,001,103292,
AFNE01.JPG,AFNE01.JPG,AFNE01.JPG,AFNE01.JPG,AFNE01.JPG,AFNE01.JPG,,,,,,,,,,,,,1,1,11,6,,,,,,,,,,,AMSA14.jpg,AMSA12.jpg,AMNE06.jpg,AMNE08.jpg,AMNE06.jpg,MN,1,num_2,32,num_8,0.933433211409,,,2018_Mar_21_1151,59.9972866213,FEMA4ImagesEEG,001,103292,
AFNE01.JPG,AFNE01.JPG,AFNE01.JPG,AFNE01.JPG,AFNE01.JPG,AFNE01.JPG,,,,,,,,,,,,,1,2,12,5,,,,,,,,,,,AMNE06.jpg,AMSA13.jpg,AMNE20.jpg,AMSA15.jpg,AMNE20.jpg,MN,1,num_2,16,num_2,0.633508360479,,,2018_Mar_21_1151,59.9972866213,FEMA4ImagesEEG,001,103292,
AFNE01.JPG,AFNE01.JPG,AFNE01.JPG,AFNE01.JPG,AFNE01.JPG,AFNE01.JPG,,,,,,,,,,,,,1,3,13,0,,,,,,,,,,,AMNE07.jpg,AMNE18.jpg,AMSA10.jpg,AMSA13.jpg,AMSA10.jpg,MS,2,num_2,32,num_6,0.900226473808,,,2018_Mar_21_1151,59.9972866213,FEMA4ImagesEEG,001,103292,
AFNE01.JPG,AFNE01.JPG,AFNE01.JPG,AFNE01.JPG,AFNE01.JPG,AFNE01.JPG,,,,,,,,,,,,,1,4,14,1,,,,,,,,,,,AMSA12.jpg,AMNE17.jpg,AMNE08.jpg,AMSA04.jpg,AMSA04.jpg,MS,2,num_4,32,num_2,1.31684190268,,,2018_Mar_21_1151,59.9972866213,FEMA4ImagesEEG,001,103292,
AFNE01.JPG,AFNE01.JPG,AFNE01.JPG,AFNE01.JPG,AFNE01.JPG,AFNE01.JPG,,,,,,,,,,,,,1,5,15,3,,,,,,,,,,,AMSA09.jpg,AMNE09.jpg,AMSA12.jpg,AMNE16.jpg,AMSA09.jpg,MS,2,num_8,32,num_6,0.716744590551,,,2018_Mar_21_1151,59.9972866213,FEMA4ImagesEEG,001,103292,
AFNE01.JPG,AFNE01.JPG,AFNE01.JPG,AFNE01.JPG,AFNE01.JPG,AFNE01.JPG,,,,,,,,,,,,,1,6,16,9,,,,,,,,,,,AMNE05.jpg,AMSA15.jpg,AMNE14.jpg,AMSA05.jpg,AMSA15.jpg,MS,2,num_6,32,num_8,0.716850754805,,,2018_Mar_21_1151,59.9972866213,FEMA4ImagesEEG,001,103292,
AFNE01.JPG,AFNE01.JPG,AFNE01.JPG,AFNE01.JPG,AFNE01.JPG,AFNE01.JPG,,,,,,,,,,,,,1,7,17,8,,,,,,,,,,,AMNE20.jpg,AMSA07.jpg,AMNE02.jpg,AMSA15.jpg,AMNE02.jpg,MN,1,num_2,16,num_2,0.916783335153,,,2018_Mar_21_1151,59.9972866213,FEMA4ImagesEEG,001,103292,
AFNE01.JPG,AFNE01.JPG,AFNE01.JPG,AFNE01.JPG,AFNE01.JPG,AFNE01.JPG,,,,,,,,,,,,,1,8,18,2,,,,,,,,,,,AMSA11.jpg,AMNE15.jpg,AMNE14.jpg,AMSA15.jpg,AMNE14.jpg,MN,1,num_2,16,num_2,1.06675313786,,,2018_Mar_21_1151,59.9972866213,FEMA4ImagesEEG,001,103292,
AFNE01.JPG,AFNE01.JPG,AFNE01.JPG,AFNE01.JPG,AFNE01.JPG,AFNE01.JPG,,,,,,,,,,,,,1,9,19,4,,,,,,,,,,,AMSA06.jpg,AMNE07.jpg,AMSA02.jpg,AMNE10.jpg,AMSA06.jpg,MS,2,num_8,32,num_4,1.91672367789,,,2018_Mar_21_1151,59.9972866213,FEMA4ImagesEEG,001,103292,
AFNE01.JPG,AFNE01.JPG,AFNE01.JPG,AFNE01.JPG,AFNE01.JPG,AFNE01.JPG,,,,,,,,,,,,,2,0,20,6,,,,,,,,,,,AMNE10.jpg,AMSA20.jpg,AMSA05.jpg,AMNE14.jpg,AMSA20.jpg,MS,2,num_6,32,num_4,0.583487207536,,,2018_Mar_21_1151,59.9972866213,FEMA4ImagesEEG,001,103292,
AFNE01.JPG,AFNE01.JPG,AFNE01.JPG,AFNE01.JPG,AFNE01.JPG,AFNE01.JPG,,,,,,,,,,,,,2,1,21,1,,,,,,,,,,,AMSA19.jpg,AMSA01.jpg,AMNE19.jpg,AMNE06.jpg,AMSA01.jpg,MS,2,num_6,16,num_6,0.466789253056,,,2018_Mar_21_1151,59.9972866213,FEMA4ImagesEEG,001,103292,
AFNE01.JPG,AFNE01.JPG,AFNE01.JPG,AFNE01.JPG,AFNE01.JPG,AFNE01.JPG,,,,,,,,,,,,,2,2,22,3,,,,,,,,,,,AMNE17.jpg,AMNE01.jpg,AMSA03.jpg,AMSA09.jpg,AMSA09.jpg,MS,2,num_4,32,num_2,0.883508601226,,,2018_Mar_21_1151,59.9972866213,FEMA4ImagesEEG,001,103292,
AFNE01.JPG,AFNE01.JPG,AFNE01.JPG,AFNE01.JPG,AFNE01.JPG,AFNE01.JPG,,,,,,,,,,,,,2,3,23,2,,,,,,,,,,,AMSA15.jpg,AMNE01.jpg,AMNE14.jpg,AMSA07.jpg,AMSA07.jpg,MS,2,num_4,32,num_6,1.6167151141,,,2018_Mar_21_1151,59.9972866213,FEMA4ImagesEEG,001,103292,
AFNE01.JPG,AFNE01.JPG,AFNE01.JPG,AFNE01.JPG,AFNE01.JPG,AFNE01.JPG,,,,,,,,,,,,,2,4,24,8,,,,,,,,,,,AMSA13.jpg,AMNE19.jpg,AMSA03.jpg,AMNE18.jpg,AMNE18.jpg,MN,1,num_4,16,num_4,0.650171707384,,,2018_Mar_21_1151,59.9972866213,FEMA4ImagesEEG,001,103292,
AFNE01.JPG,AFNE01.JPG,AFNE01.JPG,AFNE01.JPG,AFNE01.JPG,AFNE01.JPG,,,,,,,,,,,,,2,5,25,4,,,,,,,,,,,AMNE08.jpg,AMNE02.jpg,AMSA18.jpg,AMSA17.jpg,AMNE08.jpg,MN,1,num_8,16,num_8,0.750148582272,,,2018_Mar_21_1151,59.9972866213,FEMA4ImagesEEG,001,103292,
AFNE01.JPG,AFNE01.JPG,AFNE01.JPG,AFNE01.JPG,AFNE01.JPG,AFNE01.JPG,,,,,,,,,,,,,2,6,26,7,,,,,,,,,,,AMNE03.jpg,AMNE10.jpg,AMSA13.jpg,AMSA18.jpg,AMNE10.jpg,MN,1,num_6,32,num_4,0.766790760215,,,2018_Mar_21_1151,59.9972866213,FEMA4ImagesEEG,001,103292,
AFNE01.JPG,AFNE01.JPG,AFNE01.JPG,AFNE01.JPG,AFNE01.JPG,AFNE01.JPG,,,,,,,,,,,,,2,7,27,0,,,,,,,,,,,AMSA17.jpg,AMSA07.jpg,AMNE08.jpg,AMNE19.jpg,AMNE08.jpg,MN,1,num_2,16,num_2,1.50009926874,,,2018_Mar_21_1151,59.9972866213,FEMA4ImagesEEG,001,103292,
AFNE01.JPG,AFNE01.JPG,AFNE01.JPG,AFNE01.JPG,AFNE01.JPG,AFNE01.JPG,,,,,,,,,,,,,2,8,28,5,,,,,,,,,,,AMNE04.jpg,AMNE06.jpg,AMSA09.jpg,AMSA20.jpg,AMNE04.jpg,MN,1,num_8,16,num_8,1.38345968863,,,2018_Mar_21_1151,59.9972866213,FEMA4ImagesEEG,001,103292,
AFNE01.JPG,AFNE01.JPG,AFNE01.JPG,AFNE01.JPG,AFNE01.JPG,AFNE01.JPG,,,,,,,,,,,,,2,9,29,9,,,,,,,,,,,AMSA16.jpg,AMSA07.jpg,AMNE14.jpg,AMNE05.jpg,AMSA07.jpg,MS,2,num_6,16,num_6,0.950181233231,,,2018_Mar_21_1151,59.9972866213,FEMA4ImagesEEG,001,103292,
AFNE01.JPG,AFNE01.JPG,AFNE01.JPG,AFNE01.JPG,AFNE01.JPG,AFNE01.JPG,,,,,,,,,,,,,3,0,30,6,,,,,,,,,,,AMNE19.jpg,AMSA12.jpg,AMSA20.jpg,AMNE12.jpg,AMNE19.jpg,MN,1,num_8,32,num_4,1.08332571574,,,2018_Mar_21_1151,59.9972866213,FEMA4ImagesEEG,001,103292,
AFNE01.JPG,AFNE01.JPG,AFNE01.JPG,AFNE01.JPG,AFNE01.JPG,AFNE01.JPG,,,,,,,,,,,,,3,1,31,1,,,,,,,,,,,AMSA11.jpg,AMNE15.jpg,AMNE18.jpg,AMSA14.jpg,AMSA11.jpg,MS,2,num_8,16,num_8,1.25010416005,,,2018_Mar_21_1151,59.9972866213,FEMA4ImagesEEG,001,103292,
AFNE01.JPG,AFNE01.JPG,AFNE01.JPG,AFNE01.JPG,AFNE01.JPG,AFNE01.JPG,,,,,,,,,,,,,3,2,32,3,,,,,,,,,,,AMSA11.jpg,AMSA07.jpg,AMNE02.jpg,AMNE09.jpg,AMSA07.jpg,MS,2,num_6,32,num_4,1.20010962849,,,2018_Mar_21_1151,59.9972866213,FEMA4ImagesEEG,001,103292,
AFNE01.JPG,AFNE01.JPG,AFNE01.JPG,AFNE01.JPG,AFNE01.JPG,AFNE01.JPG,,,,,,,,,,,,,3,3,33,8,,,,,,,,,,,AMSA18.jpg,AMNE06.jpg,AMNE13.jpg,AMSA13.jpg,AMNE06.jpg,MN,1,num_6,32,num_8,1.16657541646,,,2018_Mar_21_1151,59.9972866213,FEMA4ImagesEEG,001,103292,
AFNE01.JPG,AFNE01.JPG,AFNE01.JPG,AFNE01.JPG,AFNE01.JPG,AFNE01.JPG,,,,,,,,,,,,,3,4,34,0,,,,,,,,,,,AMNE15.jpg,AMSA12.jpg,AMSA14.jpg,AMNE01.jpg,AMSA12.jpg,MS,2,num_6,16,num_6,0.666831205599,,,2018_Mar_21_1151,59.9972866213,FEMA4ImagesEEG,001,103292,
AFNE01.JPG,AFNE01.JPG,AFNE01.JPG,AFNE01.JPG,AFNE01.JPG,AFNE01.JPG,,,,,,,,,,,,,3,5,35,7,,,,,,,,,,,AMNE20.jpg,AMSA14.jpg,AMSA12.jpg,AMNE08.jpg,AMNE20.jpg,MN,1,num_8,32,num_4,0.733552910853,,,2018_Mar_21_1151,59.9972866213,FEMA4ImagesEEG,001,103292,
AFNE01.JPG,AFNE01.JPG,AFNE01.JPG,AFNE01.JPG,AFNE01.JPG,AFNE01.JPG,,,,,,,,,,,,,3,6,36,4,,,,,,,,,,,AMSA02.jpg,AMNE12.jpg,AMNE19.jpg,AMSA05.jpg,AMNE12.jpg,MN,1,num_6,32,num_8,0.700159823988,,,2018_Mar_21_1151,59.9972866213,FEMA4ImagesEEG,001,103292,
AFNE01.JPG,AFNE01.JPG,AFNE01.JPG,AFNE01.JPG,AFNE01.JPG,AFNE01.JPG,,,,,,,,,,,,,3,7,37,5,,,,,,,,,,,AMSA13.jpg,AMSA07.jpg,AMNE04.jpg,AMNE01.jpg,AMNE04.jpg,MN,1,num_2,16,num_2,0.816648656968,,,2018_Mar_21_1151,59.9972866213,FEMA4ImagesEEG,001,103292,
AFNE01.JPG,AFNE01.JPG,AFNE01.JPG,AFNE01.JPG,AFNE01.JPG,AFNE01.JPG,,,,,,,,,,,,,3,8,38,9,,,,,,,,,,,AMSA05.jpg,AMNE11.jpg,AMNE01.jpg,AMSA13.jpg,AMNE01.jpg,MN,1,num_2,32,num_4,0.933442833368,,,2018_Mar_21_1151,59.9972866213,FEMA4ImagesEEG,001,103292,
AFNE01.JPG,AFNE01.JPG,AFNE01.JPG,AFNE01.JPG,AFNE01.JPG,AFNE01.JPG,,,,,,,,,,,,,3,9,39,2,,,,,,,,,,,AMNE19.jpg,AMSA04.jpg,AMNE11.jpg,AMSA17.jpg,AMNE11.jpg,MN,1,num_2,32,num_4,2.1503781029,,,2018_Mar_21_1151,59.9972866213,FEMA4ImagesEEG,001,103292,
AFNE01.JPG,AFNE01.JPG,AFNE01.JPG,AFNE01.JPG,AFNE01.JPG,AFNE01.JPG,,,,,,,,,,,,,4,0,40,8,,,,,,,,,,,AMSA07.jpg,AMNE02.jpg,AMSA10.jpg,AMNE13.jpg,AMSA10.jpg,MS,2,num_2,32,num_8,0.866774370894,,,2018_Mar_21_1151,59.9972866213,FEMA4ImagesEEG,001,103292,
AFNE01.JPG,AFNE01.JPG,AFNE01.JPG,AFNE01.JPG,AFNE01.JPG,AFNE01.JPG,,,,,,,,,,,,,4,1,41,4,,,,,,,,,,,AMSA19.jpg,AMSA09.jpg,AMNE20.jpg,AMNE12.jpg,AMNE20.jpg,MN,1,num_2,32,num_8,0.800182885025,,,2018_Mar_21_1151,59.9972866213,FEMA4ImagesEEG,001,103292,
AFNE01.JPG,AFNE01.JPG,AFNE01.JPG,AFNE01.JPG,AFNE01.JPG,AFNE01.JPG,,,,,,,,,,,,,4,2,42,0,,,,,,,,,,,AMSA04.jpg,AMSA10.jpg,AMNE05.jpg,AMNE16.jpg,AMSA10.jpg,MS,2,num_6,16,num_6,2.08341969224,,,2018_Mar_21_1151,59.9972866213,FEMA4ImagesEEG,001,103292,
AFNE01.JPG,AFNE01.JPG,AFNE01.JPG,AFNE01.JPG,AFNE01.JPG,AFNE01.JPG,,,,,,,,,,,,,4,3,43,2,,,,,,,,,,,AMSA06.jpg,AMNE04.jpg,AMNE19.jpg,AMSA19.jpg,AMNE04.jpg,MN,1,num_6,16,num_6,0.716804247815,,,2018_Mar_21_1151,59.9972866213,FEMA4ImagesEEG,001,103292,
AFNE01.JPG,AFNE01.JPG,AFNE01.JPG,AFNE01.JPG,AFNE01.JPG,AFNE01.JPG,,,,,,,,,,,,,4,4,44,3,,,,,,,,,,,AMSA06.jpg,AMNE06.jpg,AMSA13.jpg,AMNE02.jpg,AMNE02.jpg,MN,1,num_4,16,num_4,0.566764203366,,,2018_Mar_21_1151,59.9972866213,FEMA4ImagesEEG,001,103292,
AFNE01.JPG,AFNE01.JPG,AFNE01.JPG,AFNE01.JPG,AFNE01.JPG,AFNE01.JPG,,,,,,,,,,,,,4,5,45,1,,,,,,,,,,,AMNE19.jpg,AMSA09.jpg,AMSA02.jpg,AMNE16.jpg,AMNE19.jpg,MN,1,num_8,16,num_8,0.833470770158,,,2018_Mar_21_1151,59.9972866213,FEMA4ImagesEEG,001,103292,
AFNE01.JPG,AFNE01.JPG,AFNE01.JPG,AFNE01.JPG,AFNE01.JPG,AFNE01.JPG,,,,,,,,,,,,,4,6,46,6,,,,,,,,,,,AMNE11.jpg,AMSA13.jpg,AMSA10.jpg,AMNE16.jpg,AMNE11.jpg,MN,1,num_8,16,num_8,0.466823251452,,,2018_Mar_21_1151,59.9972866213,FEMA4ImagesEEG,001,103292,
AFNE01.JPG,AFNE01.JPG,AFNE01.JPG,AFNE01.JPG,AFNE01.JPG,AFNE01.JPG,,,,,,,,,,,,,4,7,47,9,,,,,,,,,,,AMNE01.jpg,AMNE09.jpg,AMSA14.jpg,AMSA02.jpg,AMNE01.jpg,MN,1,num_8,32,num_4,0.900117743295,,,2018_Mar_21_1151,59.9972866213,FEMA4ImagesEEG,001,103292,
AFNE01.JPG,AFNE01.JPG,AFNE01.JPG,AFNE01.JPG,AFNE01.JPG,AFNE01.JPG,,,,,,,,,,,,,4,8,48,5,,,,,,,,,,,AMNE03.jpg,AMNE10.jpg,AMSA17.jpg,AMSA16.jpg,AMNE10.jpg,MN,1,num_6,16,num_6,0.550181682687,,,2018_Mar_21_1151,59.9972866213,FEMA4ImagesEEG,001,103292,
AFNE01.JPG,AFNE01.JPG,AFNE01.JPG,AFNE01.JPG,AFNE01.JPG,AFNE01.JPG,,,,,,,,,,,,,4,9,49,7,,,,,,,,,,,AMSA06.jpg,AMNE14.jpg,AMSA16.jpg,AMNE20.jpg,AMSA06.jpg,MS,2,num_8,16,num_8,0.750140563585,,,2018_Mar_21_1151,59.9972866213,FEMA4ImagesEEG,001,103292,
AFNE01.JPG,AFNE01.JPG,AFNE01.JPG,AFNE01.JPG,AFNE01.JPG,AFNE01.JPG,,,,,,,,,,,,,5,0,50,9,,,,,,,,,,,AMSA06.jpg,AMNE15.jpg,AMNE05.jpg,AMSA08.jpg,AMNE15.jpg,MN,1,num_6,32,num_2,0.900152382907,,,2018_Mar_21_1151,59.9972866213,FEMA4ImagesEEG,001,103292,
AFNE01.JPG,AFNE01.JPG,AFNE01.JPG,AFNE01.JPG,AFNE01.JPG,AFNE01.JPG,,,,,,,,,,,,,5,1,51,6,,,,,,,,,,,AMSA02.jpg,AMSA14.jpg,AMNE17.jpg,AMNE14.jpg,AMNE17.jpg,MN,1,num_2,32,num_4,1.00037366059,,,2018_Mar_21_1151,59.9972866213,FEMA4ImagesEEG,001,103292,
AFNE01.JPG,AFNE01.JPG,AFNE01.JPG,AFNE01.JPG,AFNE01.JPG,AFNE01.JPG,,,,,,,,,,,,,5,2,52,8,,,,,,,,,,,AMSA11.jpg,AMSA19.jpg,AMNE08.jpg,AMNE06.jpg,AMNE08.jpg,MN,1,num_2,32,num_8,0.783497407101,,,2018_Mar_21_1151,59.9972866213,FEMA4ImagesEEG,001,103292,
AFNE01.JPG,AFNE01.JPG,AFNE01.JPG,AFNE01.JPG,AFNE01.JPG,AFNE01.JPG,,,,,,,,,,,,,5,3,53,3,,,,,,,,,,,AMSA17.jpg,AMNE13.jpg,AMSA09.jpg,AMNE05.jpg,AMNE13.jpg,MN,1,num_6,32,num_8,0.500161492266,,,2018_Mar_21_1151,59.9972866213,FEMA4ImagesEEG,001,103292,
AFNE01.JPG,AFNE01.JPG,AFNE01.JPG,AFNE01.JPG,AFNE01.JPG,AFNE01.JPG,,,,,,,,,,,,,5,4,54,0,,,,,,,,,,,AMSA07.jpg,AMSA14.jpg,AMNE17.jpg,AMNE04.jpg,AMSA14.jpg,MS,2,num_6,16,num_6,0.533482091967,,,2018_Mar_21_1151,59.9972866213,FEMA4ImagesEEG,001,103292,
AFNE01.JPG,AFNE01.JPG,AFNE01.JPG,AFNE01.JPG,AFNE01.JPG,AFNE01.JPG,,,,,,,,,,,,,5,5,55,5,,,,,,,,,,,AMSA09.jpg,AMSA06.jpg,AMNE13.jpg,AMNE17.jpg,AMSA09.jpg,MS,2,num_8,32,num_4,2.99998203851,,,2018_Mar_21_1151,59.9972866213,FEMA4ImagesEEG,001,103292,
AFNE01.JPG,AFNE01.JPG,AFNE01.JPG,AFNE01.JPG,AFNE01.JPG,AFNE01.JPG,,,,,,,,,,,,,5,6,56,4,,,,,,,,,,,AMSA14.jpg,AMSA12.jpg,AMNE07.jpg,AMNE15.jpg,AMNE07.jpg,MN,1,num_2,32,num_6,0.733465028461,,,2018_Mar_21_1151,59.9972866213,FEMA4ImagesEEG,001,103292,
AFNE01.JPG,AFNE01.JPG,AFNE01.JPG,AFNE01.JPG,AFNE01.JPG,AFNE01.JPG,,,,,,,,,,,,,5,7,57,2,,,,,,,,,,,AMNE05.jpg,AMNE01.jpg,AMSA01.jpg,AMSA11.jpg,AMNE01.jpg,MN,1,num_6,32,num_2,0.916786863934,,,2018_Mar_21_1151,59.9972866213,FEMA4ImagesEEG,001,103292,
AFNE01.JPG,AFNE01.JPG,AFNE01.JPG,AFNE01.JPG,AFNE01.JPG,AFNE01.JPG,,,,,,,,,,,,,5,8,58,1,,,,,,,,,,,AMNE10.jpg,AMSA15.jpg,AMNE18.jpg,AMSA06.jpg,AMNE10.jpg,MN,1,num_8,16,num_8,0.666813885793,,,2018_Mar_21_1151,59.9972866213,FEMA4ImagesEEG,001,103292,
AFNE01.JPG,AFNE01.JPG,AFNE01.JPG,AFNE01.JPG,AFNE01.JPG,AFNE01.JPG,,,,,,,,,,,,,5,9,59,7,,,,,,,,,,,AMSA10.jpg,AMNE18.jpg,AMNE09.jpg,AMSA14.jpg,AMNE18.jpg,MN,1,num_6,32,num_4,0.700180030894,,,2018_Mar_21_1151,59.9972866213,FEMA4ImagesEEG,001,103292,
,,,,,,,,,,,,,,,,,,,,,,,,,,,,,,,,,,,,,,,,,,,space,13.1661908505,2018_Mar_21_1151,59.9972866213,FEMA4ImagesEEG,001,103292,
AFNE01.JPG,AFNE01.JPG,AFNE01.JPG,AFNE01.JPG,AFNE01.JPG,AFNE01.JPG,,,,,,,,,,,,,,,,,0,0,0,7,,,,,,,AFNE10.jpg,AFSA12.jpg,AFNE19.jpg,AFSA14.jpg,AFNE10.jpg,FN,3,num_8,16,num_8,0.716768324841,,,2018_Mar_21_1151,59.9972866213,FEMA4ImagesEEG,001,103292,
AFNE01.JPG,AFNE01.JPG,AFNE01.JPG,AFNE01.JPG,AFNE01.JPG,AFNE01.JPG,,,,,,,,,,,,,,,,,0,1,1,0,,,,,,,AFNE20.jpg,AFSA13.jpg,AFSA03.jpg,AFNE05.jpg,AFSA03.jpg,FS,4,num_2,32,num_4,0.983487400226,,,2018_Mar_21_1151,59.9972866213,FEMA4ImagesEEG,001,103292,
AFNE01.JPG,AFNE01.JPG,AFNE01.JPG,AFNE01.JPG,AFNE01.JPG,AFNE01.JPG,,,,,,,,,,,,,,,,,0,2,2,8,,,,,,,AFSA10.jpg,AFNE06.jpg,AFSA18.jpg,AFNE20.jpg,AFSA18.jpg,FS,4,num_2,32,num_6,0.883491602261,,,2018_Mar_21_1151,59.9972866213,FEMA4ImagesEEG,001,103292,
AFNE01.JPG,AFNE01.JPG,AFNE01.JPG,AFNE01.JPG,AFNE01.JPG,AFNE01.JPG,,,,,,,,,,,,,,,,,0,3,3,9,,,,,,,AFNE08.jpg,AFNE20.jpg,AFSA01.jpg,AFSA09.jpg,AFSA01.jpg,FS,4,num_2,16,num_2,0.849987538997,,,2018_Mar_21_1151,59.9972866213,FEMA4ImagesEEG,001,103292,
AFNE01.JPG,AFNE01.JPG,AFNE01.JPG,AFNE01.JPG,AFNE01.JPG,AFNE01.JPG,,,,,,,,,,,,,,,,,0,4,4,4,,,,,,,AFNE10.jpg,AFNE01.jpg,AFSA07.jpg,AFSA05.jpg,AFNE10.jpg,FN,3,num_8,16,num_8,0.616762263235,,,2018_Mar_21_1151,59.9972866213,FEMA4ImagesEEG,001,103292,
AFNE01.JPG,AFNE01.JPG,AFNE01.JPG,AFNE01.JPG,AFNE01.JPG,AFNE01.JPG,,,,,,,,,,,,,,,,,0,5,5,5,,,,,,,AFSA15.jpg,AFSA13.jpg,AFNE14.jpg,AFNE03.jpg,AFSA15.jpg,FS,4,num_8,32,num_2,0.866792652756,,,2018_Mar_21_1151,59.9972866213,FEMA4ImagesEEG,001,103292,
AFNE01.JPG,AFNE01.JPG,AFNE01.JPG,AFNE01.JPG,AFNE01.JPG,AFNE01.JPG,,,,,,,,,,,,,,,,,0,6,6,6,,,,,,,AFSA07.jpg,AFSA10.jpg,AFNE08.jpg,AFNE11.jpg,AFNE08.jpg,FN,3,num_2,32,num_4,1.0167412865,,,2018_Mar_21_1151,59.9972866213,FEMA4ImagesEEG,001,103292,
AFNE01.JPG,AFNE01.JPG,AFNE01.JPG,AFNE01.JPG,AFNE01.JPG,AFNE01.JPG,,,,,,,,,,,,,,,,,0,7,7,2,,,,,,,AFNE12.jpg,AFSA05.jpg,AFSA04.jpg,AFNE13.jpg,AFSA05.jpg,FS,4,num_6,32,num_8,0.833473977167,,,2018_Mar_21_1151,59.9972866213,FEMA4ImagesEEG,001,103292,
AFNE01.JPG,AFNE01.JPG,AFNE01.JPG,AFNE01.JPG,AFNE01.JPG,AFNE01.JPG,,,,,,,,,,,,,,,,,0,8,8,3,,,,,,,AFNE11.jpg,AFSA08.jpg,AFNE04.jpg,AFSA11.jpg,AFSA08.jpg,FS,4,num_6,32,num_4,0.500177208334,,,2018_Mar_21_1151,59.9972866213,FEMA4ImagesEEG,001,103292,
AFNE01.JPG,AFNE01.JPG,AFNE01.JPG,AFNE01.JPG,AFNE01.JPG,AFNE01.JPG,,,,,,,,,,,,,,,,,0,9,9,1,,,,,,,AFNE10.jpg,AFSA09.jpg,AFNE02.jpg,AFSA01.jpg,AFNE10.jpg,FN,3,num_8,16,num_8,0.666765775066,,,2018_Mar_21_1151,59.9972866213,FEMA4ImagesEEG,001,103292,
AFNE01.JPG,AFNE01.JPG,AFNE01.JPG,AFNE01.JPG,AFNE01.JPG,AFNE01.JPG,,,,,,,,,,,,,,,,,1,0,10,6,,,,,,,AFNE09.jpg,AFNE02.jpg,AFSA18.jpg,AFSA06.jpg,AFNE02.jpg,FN,3,num_6,16,num_6,0.700198954437,,,2018_Mar_21_1151,59.9972866213,FEMA4ImagesEEG,001,103292,
AFNE01.JPG,AFNE01.JPG,AFNE01.JPG,AFNE01.JPG,AFNE01.JPG,AFNE01.JPG,,,,,,,,,,,,,,,,,1,1,11,5,,,,,,,AFNE11.jpg,AFNE19.jpg,AFSA09.jpg,AFSA05.jpg,AFSA09.jpg,FS,4,num_2,16,num_2,2.01665115869,,,2018_Mar_21_1151,59.9972866213,FEMA4ImagesEEG,001,103292,
AFNE01.JPG,AFNE01.JPG,AFNE01.JPG,AFNE01.JPG,AFNE01.JPG,AFNE01.JPG,,,,,,,,,,,,,,,,,1,2,12,4,,,,,,,AFSA16.jpg,AFNE04.jpg,AFSA03.jpg,AFNE03.jpg,AFNE04.jpg,FN,3,num_6,16,num_6,0.85021494329,,,2018_Mar_21_1151,59.9972866213,FEMA4ImagesEEG,001,103292,
AFNE01.JPG,AFNE01.JPG,AFNE01.JPG,AFNE01.JPG,AFNE01.JPG,AFNE01.JPG,,,,,,,,,,,,,,,,,1,3,13,0,,,,,,,AFNE03.jpg,AFSA01.jpg,AFNE17.jpg,AFSA10.jpg,AFNE17.jpg,FN,3,num_2,32,num_6,0.766816098709,,,2018_Mar_21_1151,59.9972866213,FEMA4ImagesEEG,001,103292,
AFNE01.JPG,AFNE01.JPG,AFNE01.JPG,AFNE01.JPG,AFNE01.JPG,AFNE01.JPG,,,,,,,,,,,,,,,,,1,4,14,9,,,,,,,AFSA04.jpg,AFNE17.jpg,AFNE06.jpg,AFSA14.jpg,AFSA04.jpg,FS,4,num_8,32,num_2,0.833483920433,,,2018_Mar_21_1151,59.9972866213,FEMA4ImagesEEG,001,103292,
AFNE01.JPG,AFNE01.JPG,AFNE01.JPG,AFNE01.JPG,AFNE01.JPG,AFNE01.JPG,,,,,,,,,,,,,,,,,1,5,15,2,,,,,,,AFNE12.jpg,AFNE15.jpg,AFSA06.jpg,AFSA05.jpg,AFSA05.jpg,FS,4,num_4,32,num_8,0.883514374495,,,2018_Mar_21_1151,59.9972866213,FEMA4ImagesEEG,001,103292,
AFNE01.JPG,AFNE01.JPG,AFNE01.JPG,AFNE01.JPG,AFNE01.JPG,AFNE01.JPG,,,,,,,,,,,,,,,,,1,6,16,1,,,,,,,AFNE02.jpg,AFSA19.jpg,AFSA05.jpg,AFNE09.jpg,AFNE02.jpg,FN,3,num_8,16,num_8,0.850181586109,,,2018_Mar_21_1151,59.9972866213,FEMA4ImagesEEG,001,103292,
AFNE01.JPG,AFNE01.JPG,AFNE01.JPG,AFNE01.JPG,AFNE01.JPG,AFNE01.JPG,,,,,,,,,,,,,,,,,1,7,17,3,,,,,,,AFSA12.jpg,AFSA11.jpg,AFNE15.jpg,AFNE19.jpg,AFSA11.jpg,FS,4,num_6,32,num_8,1.46686751349,,,2018_Mar_21_1151,59.9972866213,FEMA4ImagesEEG,001,103292,
AFNE01.JPG,AFNE01.JPG,AFNE01.JPG,AFNE01.JPG,AFNE01.JPG,AFNE01.JPG,,,,,,,,,,,,,,,,,1,8,18,8,,,,,,,AFSA20.jpg,AFNE12.jpg,AFSA04.jpg,AFNE16.jpg,AFSA04.jpg,FS,4,num_2,32,num_8,1.4001541473,,,2018_Mar_21_1151,59.9972866213,FEMA4ImagesEEG,001,103292,
AFNE01.JPG,AFNE01.JPG,AFNE01.JPG,AFNE01.JPG,AFNE01.JPG,AFNE01.JPG,,,,,,,,,,,,,,,,,1,9,19,7,,,,,,,AFSA08.jpg,AFNE13.jpg,AFNE14.jpg,AFSA07.jpg,AFNE14.jpg,FN,3,num_2,16,num_2,0.58347373642,,,2018_Mar_21_1151,59.9972866213,FEMA4ImagesEEG,001,103292,
AFNE01.JPG,AFNE01.JPG,AFNE01.JPG,AFNE01.JPG,AFNE01.JPG,AFNE01.JPG,,,,,,,,,,,,,,,,,2,0,20,4,,,,,,,AFNE19.jpg,AFSA07.jpg,AFNE01.jpg,AFSA02.jpg,AFNE19.jpg,FN,3,num_8,32,num_6,0.833521125838,,,2018_Mar_21_1151,59.9972866213,FEMA4ImagesEEG,001,103292,
AFNE01.JPG,AFNE01.JPG,AFNE01.JPG,AFNE01.JPG,AFNE01.JPG,AFNE01.JPG,,,,,,,,,,,,,,,,,2,1,21,6,,,,,,,AFSA02.jpg,AFNE10.jpg,AFNE11.jpg,AFSA17.jpg,AFSA02.jpg,FS,4,num_8,16,num_8,0.750480547082,,,2018_Mar_21_1151,59.9972866213,FEMA4ImagesEEG,001,103292,
AFNE01.JPG,AFNE01.JPG,AFNE01.JPG,AFNE01.JPG,AFNE01.JPG,AFNE01.JPG,,,,,,,,,,,,,,,,,2,2,22,9,,,,,,,AFSA17.jpg,AFNE09.jpg,AFSA19.jpg,AFNE07.jpg,AFNE09.jpg,FN,3,num_6,32,num_8,3.98331195582,,,2018_Mar_21_1151,59.9972866213,FEMA4ImagesEEG,001,103292,
AFNE01.JPG,AFNE01.JPG,AFNE01.JPG,AFNE01.JPG,AFNE01.JPG,AFNE01.JPG,,,,,,,,,,,,,,,,,2,3,23,2,,,,,,,AFNE13.jpg,AFSA15.jpg,AFSA13.jpg,AFNE01.jpg,AFNE01.jpg,FN,3,num_4,32,num_8,0.833477184642,,,2018_Mar_21_1151,59.9972866213,FEMA4ImagesEEG,001,103292,
AFNE01.JPG,AFNE01.JPG,AFNE01.JPG,AFNE01.JPG,AFNE01.JPG,AFNE01.JPG,,,,,,,,,,,,,,,,,2,4,24,3,,,,,,,AFSA12.jpg,AFNE09.jpg,AFSA02.jpg,AFNE16.jpg,AFNE16.jpg,FN,3,num_4,32,num_8,0.700124864001,,,2018_Mar_21_1151,59.9972866213,FEMA4ImagesEEG,001,103292,
AFNE01.JPG,AFNE01.JPG,AFNE01.JPG,AFNE01.JPG,AFNE01.JPG,AFNE01.JPG,,,,,,,,,,,,,,,,,2,5,25,5,,,,,,,AFSA05.jpg,AFNE06.jpg,AFSA15.jpg,AFNE19.jpg,AFNE06.jpg,FN,3,num_6,32,num_2,0.883549334947,,,2018_Mar_21_1151,59.9972866213,FEMA4ImagesEEG,001,103292,
AFNE01.JPG,AFNE01.JPG,AFNE01.JPG,AFNE01.JPG,AFNE01.JPG,AFNE01.JPG,,,,,,,,,,,,,,,,,2,6,26,0,,,,,,,AFSA07.jpg,AFSA09.jpg,AFNE16.jpg,AFNE20.jpg,AFSA09.jpg,FS,4,num_6,32,num_2,0.850087609608,,,2018_Mar_21_1151,59.9972866213,FEMA4ImagesEEG,001,103292,
AFNE01.JPG,AFNE01.JPG,AFNE01.JPG,AFNE01.JPG,AFNE01.JPG,AFNE01.JPG,,,,,,,,,,,,,,,,,2,7,27,1,,,,,,,AFNE11.jpg,AFSA03.jpg,AFSA08.jpg,AFNE20.jpg,AFNE11.jpg,FN,3,num_8,16,num_8,0.516643942334,,,2018_Mar_21_1151,59.9972866213,FEMA4ImagesEEG,001,103292,
AFNE01.JPG,AFNE01.JPG,AFNE01.JPG,AFNE01.JPG,AFNE01.JPG,AFNE01.JPG,,,,,,,,,,,,,,,,,2,8,28,8,,,,,,,AFNE19.jpg,AFNE14.jpg,AFSA09.jpg,AFSA08.jpg,AFSA09.jpg,FS,4,num_2,16,num_2,1.01676373836,,,2018_Mar_21_1151,59.9972866213,FEMA4ImagesEEG,001,103292,
AFNE01.JPG,AFNE01.JPG,AFNE01.JPG,AFNE01.JPG,AFNE01.JPG,AFNE01.JPG,,,,,,,,,,,,,,,,,2,9,29,7,,,,,,,AFSA13.jpg,AFNE10.jpg,AFSA14.jpg,AFNE02.jpg,AFSA14.jpg,FS,4,num_2,32,num_4,1.49982247129,,,2018_Mar_21_1151,59.9972866213,FEMA4ImagesEEG,001,103292,
AFNE01.JPG,AFNE01.JPG,AFNE01.JPG,AFNE01.JPG,AFNE01.JPG,AFNE01.JPG,,,,,,,,,,,,,,,,,3,0,30,8,,,,,,,AFNE16.jpg,AFNE06.jpg,AFSA02.jpg,AFSA18.jpg,AFNE06.jpg,FN,3,num_6,16,num_6,1.80005202396,,,2018_Mar_21_1151,59.9972866213,FEMA4ImagesEEG,001,103292,
AFNE01.JPG,AFNE01.JPG,AFNE01.JPG,AFNE01.JPG,AFNE01.JPG,AFNE01.JPG,,,,,,,,,,,,,,,,,3,1,31,9,,,,,,,AFSA12.jpg,AFNE01.jpg,AFSA14.jpg,AFNE16.jpg,AFNE01.jpg,FN,3,num_6,32,num_8,0.816816724371,,,2018_Mar_21_1151,59.9972866213,FEMA4ImagesEEG,001,103292,
AFNE01.JPG,AFNE01.JPG,AFNE01.JPG,AFNE01.JPG,AFNE01.JPG,AFNE01.JPG,,,,,,,,,,,,,,,,,3,2,32,0,,,,,,,AFNE17.jpg,AFSA05.jpg,AFNE03.jpg,AFSA04.jpg,AFSA04.jpg,FS,4,num_4,16,num_4,0.650639665779,,,2018_Mar_21_1151,59.9972866213,FEMA4ImagesEEG,001,103292,
AFNE01.JPG,AFNE01.JPG,AFNE01.JPG,AFNE01.JPG,AFNE01.JPG,AFNE01.JPG,,,,,,,,,,,,,,,,,3,3,33,7,,,,,,,AFNE15.jpg,AFNE04.jpg,AFSA13.jpg,AFSA02.jpg,AFSA13.jpg,FS,4,num_2,16,num_2,0.966802563984,,,2018_Mar_21_1151,59.9972866213,FEMA4ImagesEEG,001,103292,
AFNE01.JPG,AFNE01.JPG,AFNE01.JPG,AFNE01.JPG,AFNE01.JPG,AFNE01.JPG,,,,,,,,,,,,,,,,,3,4,34,6,,,,,,,AFNE08.jpg,AFSA09.jpg,AFNE17.jpg,AFSA14.jpg,AFNE08.jpg,FN,3,num_8,16,num_8,0.61674269801,,,2018_Mar_21_1151,59.9972866213,FEMA4ImagesEEG,001,103292,
AFNE01.JPG,AFNE01.JPG,AFNE01.JPG,AFNE01.JPG,AFNE01.JPG,AFNE01.JPG,,,,,,,,,,,,,,,,,3,5,35,1,,,,,,,AFNE20.jpg,AFSA04.jpg,AFNE19.jpg,AFSA01.jpg,AFNE20.jpg,FN,3,num_8,32,num_4,0.650150538888,,,2018_Mar_21_1151,59.9972866213,FEMA4ImagesEEG,001,103292,
AFNE01.JPG,AFNE01.JPG,AFNE01.JPG,AFNE01.JPG,AFNE01.JPG,AFNE01.JPG,,,,,,,,,,,,,,,,,3,6,36,4,,,,,,,AFSA10.jpg,AFSA03.jpg,AFNE19.jpg,AFNE15.jpg,AFNE15.jpg,FN,3,num_4,16,num_4,0.850134437438,,,2018_Mar_21_1151,59.9972866213,FEMA4ImagesEEG,001,103292,
AFNE01.JPG,AFNE01.JPG,AFNE01.JPG,AFNE01.JPG,AFNE01.JPG,AFNE01.JPG,,,,,,,,,,,,,,,,,3,7,37,3,,,,,,,AFSA04.jpg,AFSA19.jpg,AFNE11.jpg,AFNE01.jpg,AFNE11.jpg,FN,3,num_2,32,num_8,0.70016110735,,,2018_Mar_21_1151,59.9972866213,FEMA4ImagesEEG,001,103292,
AFNE01.JPG,AFNE01.JPG,AFNE01.JPG,AFNE01.JPG,AFNE01.JPG,AFNE01.JPG,,,,,,,,,,,,,,,,,3,8,38,2,,,,,,,AFSA20.jpg,AFNE12.jpg,AFSA01.jpg,AFNE08.jpg,AFNE12.jpg,FN,3,num_6,16,num_6,0.400194239803,,,2018_Mar_21_1151,59.9972866213,FEMA4ImagesEEG,001,103292,
AFNE01.JPG,AFNE01.JPG,AFNE01.JPG,AFNE01.JPG,AFNE01.JPG,AFNE01.JPG,,,,,,,,,,,,,,,,,3,9,39,5,,,,,,,AFNE03.jpg,AFSA17.jpg,AFSA02.jpg,AFNE12.jpg,AFNE12.jpg,FN,3,num_4,16,num_4,0.633551980834,,,2018_Mar_21_1151,59.9972866213,FEMA4ImagesEEG,001,103292,
AFNE01.JPG,AFNE01.JPG,AFNE01.JPG,AFNE01.JPG,AFNE01.JPG,AFNE01.JPG,,,,,,,,,,,,,,,,,4,0,40,4,,,,,,,AFSA20.jpg,AFSA04.jpg,AFNE17.jpg,AFNE04.jpg,AFSA20.jpg,FS,4,num_8,16,num_8,1.00009910855,,,2018_Mar_21_1151,59.9972866213,FEMA4ImagesEEG,001,103292,
AFNE01.JPG,AFNE01.JPG,AFNE01.JPG,AFNE01.JPG,AFNE01.JPG,AFNE01.JPG,,,,,,,,,,,,,,,,,4,1,41,8,,,,,,,AFSA05.jpg,AFNE02.jpg,AFSA13.jpg,AFNE19.jpg,AFNE19.jpg,FN,3,num_4,16,num_4,0.633447099477,,,2018_Mar_21_1151,59.9972866213,FEMA4ImagesEEG,001,103292,
AFNE01.JPG,AFNE01.JPG,AFNE01.JPG,AFNE01.JPG,AFNE01.JPG,AFNE01.JPG,,,,,,,,,,,,,,,,,4,2,42,0,,,,,,,AFNE18.jpg,AFSA13.jpg,AFNE10.jpg,AFSA03.jpg,AFSA13.jpg,FS,4,num_6,32,num_8,0.65010852227,,,2018_Mar_21_1151,59.9972866213,FEMA4ImagesEEG,001,103292,
AFNE01.JPG,AFNE01.JPG,AFNE01.JPG,AFNE01.JPG,AFNE01.JPG,AFNE01.JPG,,,,,,,,,,,,,,,,,4,3,43,1,,,,,,,AFSA04.jpg,AFNE01.jpg,AFNE03.jpg,AFSA12.jpg,AFSA12.jpg,FS,4,num_4,16,num_4,0.716818680521,,,2018_Mar_21_1151,59.9972866213,FEMA4ImagesEEG,001,103292,
AFNE01.JPG,AFNE01.JPG,AFNE01.JPG,AFNE01.JPG,AFNE01.JPG,AFNE01.JPG,,,,,,,,,,,,,,,,,4,4,44,5,,,,,,,AFSA01.jpg,AFNE11.jpg,AFNE20.jpg,AFSA18.jpg,AFSA18.jpg,FS,4,num_4,16,num_4,0.783635645639,,,2018_Mar_21_1151,59.9972866213,FEMA4ImagesEEG,001,103292,
AFNE01.JPG,AFNE01.JPG,AFNE01.JPG,AFNE01.JPG,AFNE01.JPG,AFNE01.JPG,,,,,,,,,,,,,,,,,4,5,45,7,,,,,,,AFSA03.jpg,AFNE01.jpg,AFNE03.jpg,AFSA10.jpg,AFNE01.jpg,FN,3,num_6,32,num_8,0.633424968459,,,2018_Mar_21_1151,59.9972866213,FEMA4ImagesEEG,001,103292,
AFNE01.JPG,AFNE01.JPG,AFNE01.JPG,AFNE01.JPG,AFNE01.JPG,AFNE01.JPG,,,,,,,,,,,,,,,,,4,6,46,6,,,,,,,AFSA01.jpg,AFSA07.jpg,AFNE11.jpg,AFNE06.jpg,AFNE06.jpg,FN,3,num_4,32,num_8,0.633484305348,,,2018_Mar_21_1151,59.9972866213,FEMA4ImagesEEG,001,103292,
AFNE01.JPG,AFNE01.JPG,AFNE01.JPG,AFNE01.JPG,AFNE01.JPG,AFNE01.JPG,,,,,,,,,,,,,,,,,4,7,47,3,,,,,,,AFNE19.jpg,AFSA20.jpg,AFSA05.jpg,AFNE07.jpg,AFSA20.jpg,FS,4,num_6,16,num_6,0.483492051251,,,2018_Mar_21_1151,59.9972866213,FEMA4ImagesEEG,001,103292,
AFNE01.JPG,AFNE01.JPG,AFNE01.JPG,AFNE01.JPG,AFNE01.JPG,AFNE01.JPG,,,,,,,,,,,,,,,,,4,8,48,9,,,,,,,AFNE18.jpg,AFNE20.jpg,AFSA20.jpg,AFSA04.jpg,AFSA20.jpg,FS,4,num_2,16,num_2,0.800130604766,,,2018_Mar_21_1151,59.9972866213,FEMA4ImagesEEG,001,103292,
AFNE01.JPG,AFNE01.JPG,AFNE01.JPG,AFNE01.JPG,AFNE01.JPG,AFNE01.JPG,,,,,,,,,,,,,,,,,4,9,49,2,,,,,,,AFSA07.jpg,AFSA13.jpg,AFNE02.jpg,AFNE10.jpg,AFSA13.jpg,FS,4,num_6,32,num_8,0.600194816943,,,2018_Mar_21_1151,59.9972866213,FEMA4ImagesEEG,001,103292,
AFNE01.JPG,AFNE01.JPG,AFNE01.JPG,AFNE01.JPG,AFNE01.JPG,AFNE01.JPG,,,,,,,,,,,,,,,,,5,0,50,8,,,,,,,AFNE05.jpg,AFNE17.jpg,AFSA12.jpg,AFSA09.jpg,AFSA09.jpg,FS,4,num_4,48,None,,,,2018_Mar_21_1151,59.9972866213,FEMA4ImagesEEG,001,103292,
AFNE01.JPG,AFNE01.JPG,AFNE01.JPG,AFNE01.JPG,AFNE01.JPG,AFNE01.JPG,,,,,,,,,,,,,,,,,5,1,51,5,,,,,,,AFNE17.jpg,AFNE16.jpg,AFSA13.jpg,AFSA16.jpg,AFSA13.jpg,FS,4,num_2,32,num_8,2.24974493263,,,2018_Mar_21_1151,59.9972866213,FEMA4ImagesEEG,001,103292,
AFNE01.JPG,AFNE01.JPG,AFNE01.JPG,AFNE01.JPG,AFNE01.JPG,AFNE01.JPG,,,,,,,,,,,,,,,,,5,2,52,9,,,,,,,AFSA12.jpg,AFNE15.jpg,AFNE03.jpg,AFSA07.jpg,AFNE15.jpg,FN,3,num_6,16,num_6,0.700169446412,,,2018_Mar_21_1151,59.9972866213,FEMA4ImagesEEG,001,103292,
AFNE01.JPG,AFNE01.JPG,AFNE01.JPG,AFNE01.JPG,AFNE01.JPG,AFNE01.JPG,,,,,,,,,,,,,,,,,5,3,53,4,,,,,,,AFNE03.jpg,AFSA01.jpg,AFNE20.jpg,AFSA06.jpg,AFSA01.jpg,FS,4,num_6,32,num_8,0.666889579967,,,2018_Mar_21_1151,59.9972866213,FEMA4ImagesEEG,001,103292,
AFNE01.JPG,AFNE01.JPG,AFNE01.JPG,AFNE01.JPG,AFNE01.JPG,AFNE01.JPG,,,,,,,,,,,,,,,,,5,4,54,7,,,,,,,AFSA12.jpg,AFSA18.jpg,AFNE06.jpg,AFNE01.jpg,AFSA18.jpg,FS,4,num_6,32,num_8,0.666804263368,,,2018_Mar_21_1151,59.9972866213,FEMA4ImagesEEG,001,103292,
AFNE01.JPG,AFNE01.JPG,AFNE01.JPG,AFNE01.JPG,AFNE01.JPG,AFNE01.JPG,,,,,,,,,,,,,,,,,5,5,55,0,,,,,,,AFSA10.jpg,AFSA04.jpg,AFNE19.jpg,AFNE09.jpg,AFNE19.jpg,FN,3,num_2,32,num_4,0.516944474541,,,2018_Mar_21_1151,59.9972866213,FEMA4ImagesEEG,001,103292,
AFNE01.JPG,AFNE01.JPG,AFNE01.JPG,AFNE01.JPG,AFNE01.JPG,AFNE01.JPG,,,,,,,,,,,,,,,,,5,6,56,2,,,,,,,AFNE18.jpg,AFNE01.jpg,AFSA19.jpg,AFSA11.jpg,AFNE18.jpg,FN,3,num_8,32,num_6,0.46678572474,,,2018_Mar_21_1151,59.9972866213,FEMA4ImagesEEG,001,103292,
AFNE01.JPG,AFNE01.JPG,AFNE01.JPG,AFNE01.JPG,AFNE01.JPG,AFNE01.JPG,,,,,,,,,,,,,,,,,5,7,57,6,,,,,,,AFSA20.jpg,AFNE17.jpg,AFNE19.jpg,AFSA03.jpg,AFSA03.jpg,FS,4,num_4,32,num_8,0.483492692467,,,2018_Mar_21_1151,59.9972866213,FEMA4ImagesEEG,001,103292,
AFNE01.JPG,AFNE01.JPG,AFNE01.JPG,AFNE01.JPG,AFNE01.JPG,AFNE01.JPG,,,,,,,,,,,,,,,,,5,8,58,3,,,,,,,AFNE20.jpg,AFNE06.jpg,AFSA12.jpg,AFSA09.jpg,AFNE06.jpg,FN,3,num_6,32,num_8,0.600185515359,,,2018_Mar_21_1151,59.9972866213,FEMA4ImagesEEG,001,103292,
AFNE01.JPG,AFNE01.JPG,AFNE01.JPG,AFNE01.JPG,AFNE01.JPG,AFNE01.JPG,,,,,,,,,,,,,,,,,5,9,59,1,,,,,,,AFSA04.jpg,AFSA12.jpg,AFNE03.jpg,AFNE20.jpg,AFSA04.jpg,FS,4,num_8,16,num_8,0.583458982874,,,2018_Mar_21_1151,59.9972866213,FEMA4ImagesEEG,001,103292,
,,,,,,,,,,,,,,,,,,,,,,,,,,,,,,,,,,,,,,,,,,,space,41.296890982,2018_Mar_21_1151,59.9972866213,FEMA4ImagesEEG,001,103292,
AFNE01.JPG,AFNE01.JPG,AFNE01.JPG,AFNE01.JPG,AFNE01.JPG,AFNE01.JPG,,,,,,,,,,,,,,,,,,,,,0,0,0,9,,,AMNE20.jpg,AMNE09.jpg,AMSA06.jpg,AMSA07.jpg,AMNE09.jpg,MN,1,num_6,32,num_4,0.550185211003,,,2018_Mar_21_1151,59.9972866213,FEMA4ImagesEEG,001,103292,
AFNE01.JPG,AFNE01.JPG,AFNE01.JPG,AFNE01.JPG,AFNE01.JPG,AFNE01.JPG,,,,,,,,,,,,,,,,,,,,,0,1,1,6,,,AMNE15.jpg,AMSA07.jpg,AMNE13.jpg,AMSA12.jpg,AMNE15.jpg,MN,1,num_8,32,num_4,0.783461484592,,,2018_Mar_21_1151,59.9972866213,FEMA4ImagesEEG,001,103292,
AFNE01.JPG,AFNE01.JPG,AFNE01.JPG,AFNE01.JPG,AFNE01.JPG,AFNE01.JPG,,,,,,,,,,,,,,,,,,,,,0,2,2,5,,,AMSA08.jpg,AMNE05.jpg,AMSA18.jpg,AMNE20.jpg,AMNE20.jpg,MN,1,num_4,32,num_6,0.6001431779,,,2018_Mar_21_1151,59.9972866213,FEMA4ImagesEEG,001,103292,
AFNE01.JPG,AFNE01.JPG,AFNE01.JPG,AFNE01.JPG,AFNE01.JPG,AFNE01.JPG,,,,,,,,,,,,,,,,,,,,,0,3,3,8,,,AMSA11.jpg,AMSA13.jpg,AMNE12.jpg,AMNE03.jpg,AMNE12.jpg,MN,1,num_2,32,num_8,0.666807471309,,,2018_Mar_21_1151,59.9972866213,FEMA4ImagesEEG,001,103292,
AFNE01.JPG,AFNE01.JPG,AFNE01.JPG,AFNE01.JPG,AFNE01.JPG,AFNE01.JPG,,,,,,,,,,,,,,,,,,,,,0,4,4,1,,,AMSA02.jpg,AMNE07.jpg,AMNE05.jpg,AMSA19.jpg,AMNE07.jpg,MN,1,num_6,32,num_8,0.683456705417,,,2018_Mar_21_1151,59.9972866213,FEMA4ImagesEEG,001,103292,
AFNE01.JPG,AFNE01.JPG,AFNE01.JPG,AFNE01.JPG,AFNE01.JPG,AFNE01.JPG,,,,,,,,,,,,,,,,,,,,,0,5,5,0,,,AMSA08.jpg,AMNE19.jpg,AMNE12.jpg,AMSA11.jpg,AMNE19.jpg,MN,1,num_6,32,num_8,0.750195410103,,,2018_Mar_21_1151,59.9972866213,FEMA4ImagesEEG,001,103292,
AFNE01.JPG,AFNE01.JPG,AFNE01.JPG,AFNE01.JPG,AFNE01.JPG,AFNE01.JPG,,,,,,,,,,,,,,,,,,,,,0,6,6,2,,,AMNE13.jpg,AMNE10.jpg,AMSA15.jpg,AMSA02.jpg,AMSA02.jpg,MS,2,num_4,16,num_4,0.566822257359,,,2018_Mar_21_1151,59.9972866213,FEMA4ImagesEEG,001,103292,
AFNE01.JPG,AFNE01.JPG,AFNE01.JPG,AFNE01.JPG,AFNE01.JPG,AFNE01.JPG,,,,,,,,,,,,,,,,,,,,,0,7,7,3,,,AMSA12.jpg,AMNE15.jpg,AMSA07.jpg,AMNE19.jpg,AMNE15.jpg,MN,1,num_6,32,num_8,0.800151453353,,,2018_Mar_21_1151,59.9972866213,FEMA4ImagesEEG,001,103292,
AFNE01.JPG,AFNE01.JPG,AFNE01.JPG,AFNE01.JPG,AFNE01.JPG,AFNE01.JPG,,,,,,,,,,,,,,,,,,,,,0,8,8,7,,,AMSA17.jpg,AMNE12.jpg,AMNE05.jpg,AMSA15.jpg,AMNE05.jpg,MN,1,num_2,32,num_6,0.683486213442,,,2018_Mar_21_1151,59.9972866213,FEMA4ImagesEEG,001,103292,
AFNE01.JPG,AFNE01.JPG,AFNE01.JPG,AFNE01.JPG,AFNE01.JPG,AFNE01.JPG,,,,,,,,,,,,,,,,,,,,,0,9,9,4,,,AMSA20.jpg,AMNE09.jpg,AMSA02.jpg,AMNE01.jpg,AMNE09.jpg,MN,1,num_6,32,num_8,0.983522360679,,,2018_Mar_21_1151,59.9972866213,FEMA4ImagesEEG,001,103292,
AFNE01.JPG,AFNE01.JPG,AFNE01.JPG,AFNE01.JPG,AFNE01.JPG,AFNE01.JPG,,,,,,,,,,,,,,,,,,,,,1,0,10,3,,,AMSA02.jpg,AMNE05.jpg,AMSA18.jpg,AMNE13.jpg,AMNE13.jpg,MN,1,num_4,32,num_6,1.00010071183,,,2018_Mar_21_1151,59.9972866213,FEMA4ImagesEEG,001,103292,
AFNE01.JPG,AFNE01.JPG,AFNE01.JPG,AFNE01.JPG,AFNE01.JPG,AFNE01.JPG,,,,,,,,,,,,,,,,,,,,,1,1,11,8,,,AMNE15.jpg,AMSA18.jpg,AMNE12.jpg,AMSA02.jpg,AMNE15.jpg,MN,1,num_8,16,num_8,0.433528952301,,,2018_Mar_21_1151,59.9972866213,FEMA4ImagesEEG,001,103292,
AFNE01.JPG,AFNE01.JPG,AFNE01.JPG,AFNE01.JPG,AFNE01.JPG,AFNE01.JPG,,,,,,,,,,,,,,,,,,,,,1,2,12,7,,,AMNE01.jpg,AMNE04.jpg,AMSA19.jpg,AMSA18.jpg,AMSA19.jpg,MS,2,num_2,16,num_2,0.800206299406,,,2018_Mar_21_1151,59.9972866213,FEMA4ImagesEEG,001,103292,
AFNE01.JPG,AFNE01.JPG,AFNE01.JPG,AFNE01.JPG,AFNE01.JPG,AFNE01.JPG,,,,,,,,,,,,,,,,,,,,,1,3,13,1,,,AMSA07.jpg,AMSA04.jpg,AMNE06.jpg,AMNE07.jpg,AMNE07.jpg,MN,1,num_4,16,num_4,3.2831293596,,,2018_Mar_21_1151,59.9972866213,FEMA4ImagesEEG,001,103292,
AFNE01.JPG,AFNE01.JPG,AFNE01.JPG,AFNE01.JPG,AFNE01.JPG,AFNE01.JPG,,,,,,,,,,,,,,,,,,,,,1,4,14,2,,,AMSA10.jpg,AMNE08.jpg,AMSA19.jpg,AMNE19.jpg,AMNE19.jpg,MN,1,num_4,16,num_4,0.800103983842,,,2018_Mar_21_1151,59.9972866213,FEMA4ImagesEEG,001,103292,
AFNE01.JPG,AFNE01.JPG,AFNE01.JPG,AFNE01.JPG,AFNE01.JPG,AFNE01.JPG,,,,,,,,,,,,,,,,,,,,,1,5,15,6,,,AMSA02.jpg,AMNE01.jpg,AMNE10.jpg,AMSA18.jpg,AMNE10.jpg,MN,1,num_2,32,num_4,1.53339485079,,,2018_Mar_21_1151,59.9972866213,FEMA4ImagesEEG,001,103292,
AFNE01.JPG,AFNE01.JPG,AFNE01.JPG,AFNE01.JPG,AFNE01.JPG,AFNE01.JPG,,,,,,,,,,,,,,,,,,,,,1,6,16,4,,,AMSA10.jpg,AMNE02.jpg,AMNE09.jpg,AMSA18.jpg,AMNE09.jpg,MN,1,num_2,32,num_8,0.716509488877,,,2018_Mar_21_1151,59.9972866213,FEMA4ImagesEEG,001,103292,
AFNE01.JPG,AFNE01.JPG,AFNE01.JPG,AFNE01.JPG,AFNE01.JPG,AFNE01.JPG,,,,,,,,,,,,,,,,,,,,,1,7,17,0,,,AMSA14.jpg,AMNE17.jpg,AMSA07.jpg,AMNE07.jpg,AMSA14.jpg,MS,2,num_8,32,num_6,1.83340822579,,,2018_Mar_21_1151,59.9972866213,FEMA4ImagesEEG,001,103292,
AFNE01.JPG,AFNE01.JPG,AFNE01.JPG,AFNE01.JPG,AFNE01.JPG,AFNE01.JPG,,,,,,,,,,,,,,,,,,,,,1,8,18,9,,,AMNE09.jpg,AMSA20.jpg,AMNE06.jpg,AMSA06.jpg,AMNE06.jpg,MN,1,num_2,32,num_8,0.699967060238,,,2018_Mar_21_1151,59.9972866213,FEMA4ImagesEEG,001,103292,
AFNE01.JPG,AFNE01.JPG,AFNE01.JPG,AFNE01.JPG,AFNE01.JPG,AFNE01.JPG,,,,,,,,,,,,,,,,,,,,,1,9,19,5,,,AMSA07.jpg,AMSA05.jpg,AMNE10.jpg,AMNE03.jpg,AMNE03.jpg,MN,1,num_4,16,num_4,0.73347112257,,,2018_Mar_21_1151,59.9972866213,FEMA4ImagesEEG,001,103292,
AFNE01.JPG,AFNE01.JPG,AFNE01.JPG,AFNE01.JPG,AFNE01.JPG,AFNE01.JPG,,,,,,,,,,,,,,,,,,,,,2,0,20,8,,,AMNE03.jpg,AMNE19.jpg,AMSA03.jpg,AMSA13.jpg,AMNE03.jpg,MN,1,num_8,16,num_8,0.550143193919,,,2018_Mar_21_1151,59.9972866213,FEMA4ImagesEEG,001,103292,
AFNE01.JPG,AFNE01.JPG,AFNE01.JPG,AFNE01.JPG,AFNE01.JPG,AFNE01.JPG,,,,,,,,,,,,,,,,,,,,,2,1,21,0,,,AMNE19.jpg,AMSA13.jpg,AMSA11.jpg,AMNE07.jpg,AMSA11.jpg,MS,2,num_2,32,num_4,1.2334857164,,,2018_Mar_21_1151,59.9972866213,FEMA4ImagesEEG,001,103292,
AFNE01.JPG,AFNE01.JPG,AFNE01.JPG,AFNE01.JPG,AFNE01.JPG,AFNE01.JPG,,,,,,,,,,,,,,,,,,,,,2,2,22,6,,,AMSA16.jpg,AMNE16.jpg,AMSA04.jpg,AMNE01.jpg,AMNE01.jpg,MN,1,num_4,16,num_4,0.766897566617,,,2018_Mar_21_1151,59.9972866213,FEMA4ImagesEEG,001,103292,
AFNE01.JPG,AFNE01.JPG,AFNE01.JPG,AFNE01.JPG,AFNE01.JPG,AFNE01.JPG,,,,,,,,,,,,,,,,,,,,,2,3,23,7,,,AMSA05.jpg,AMNE05.jpg,AMSA06.jpg,AMNE19.jpg,AMSA05.jpg,MS,2,num_8,16,num_8,0.783481691033,,,2018_Mar_21_1151,59.9972866213,FEMA4ImagesEEG,001,103292,
AFNE01.JPG,AFNE01.JPG,AFNE01.JPG,AFNE01.JPG,AFNE01.JPG,AFNE01.JPG,,,,,,,,,,,,,,,,,,,,,2,4,24,4,,,AMNE19.jpg,AMNE17.jpg,AMSA10.jpg,AMSA07.jpg,AMNE19.jpg,MN,1,num_8,16,num_8,0.466753971763,,,2018_Mar_21_1151,59.9972866213,FEMA4ImagesEEG,001,103292,
AFNE01.JPG,AFNE01.JPG,AFNE01.JPG,AFNE01.JPG,AFNE01.JPG,AFNE01.JPG,,,,,,,,,,,,,,,,,,,,,2,5,25,2,,,AMSA19.jpg,AMNE16.jpg,AMNE10.jpg,AMSA04.jpg,AMNE16.jpg,MN,1,num_6,16,num_6,1.0168224331,,,2018_Mar_21_1151,59.9972866213,FEMA4ImagesEEG,001,103292,
AFNE01.JPG,AFNE01.JPG,AFNE01.JPG,AFNE01.JPG,AFNE01.JPG,AFNE01.JPG,,,,,,,,,,,,,,,,,,,,,2,6,26,5,,,AMSA20.jpg,AMSA01.jpg,AMNE14.jpg,AMNE20.jpg,AMNE14.jpg,MN,1,num_2,16,num_2,0.650086070411,,,2018_Mar_21_1151,59.9972866213,FEMA4ImagesEEG,001,103292,
AFNE01.JPG,AFNE01.JPG,AFNE01.JPG,AFNE01.JPG,AFNE01.JPG,AFNE01.JPG,,,,,,,,,,,,,,,,,,,,,2,7,27,1,,,AMSA19.jpg,AMNE03.jpg,AMSA03.jpg,AMNE15.jpg,AMSA03.jpg,MS,2,num_2,16,num_2,1.41683898354,,,2018_Mar_21_1151,59.9972866213,FEMA4ImagesEEG,001,103292,
AFNE01.JPG,AFNE01.JPG,AFNE01.JPG,AFNE01.JPG,AFNE01.JPG,AFNE01.JPG,,,,,,,,,,,,,,,,,,,,,2,8,28,3,,,AMSA19.jpg,AMSA05.jpg,AMNE15.jpg,AMNE05.jpg,AMSA19.jpg,MS,2,num_8,32,num_6,0.783500614576,,,2018_Mar_21_1151,59.9972866213,FEMA4ImagesEEG,001,103292,
AFNE01.JPG,AFNE01.JPG,AFNE01.JPG,AFNE01.JPG,AFNE01.JPG,AFNE01.JPG,,,,,,,,,,,,,,,,,,,,,2,9,29,9,,,AMNE03.jpg,AMNE05.jpg,AMSA17.jpg,AMSA07.jpg,AMSA17.jpg,MS,2,num_2,32,num_8,0.766784345731,,,2018_Mar_21_1151,59.9972866213,FEMA4ImagesEEG,001,103292,
AFNE01.JPG,AFNE01.JPG,AFNE01.JPG,AFNE01.JPG,AFNE01.JPG,AFNE01.JPG,,,,,,,,,,,,,,,,,,,,,3,0,30,9,,,AMNE04.jpg,AMSA06.jpg,AMSA03.jpg,AMNE19.jpg,AMNE19.jpg,MN,1,num_4,16,num_4,1.08346780296,,,2018_Mar_21_1151,59.9972866213,FEMA4ImagesEEG,001,103292,
AFNE01.JPG,AFNE01.JPG,AFNE01.JPG,AFNE01.JPG,AFNE01.JPG,AFNE01.JPG,,,,,,,,,,,,,,,,,,,,,3,1,31,2,,,AMSA05.jpg,AMSA12.jpg,AMNE09.jpg,AMNE05.jpg,AMSA05.jpg,MS,2,num_8,16,num_8,0.616809090599,,,2018_Mar_21_1151,59.9972866213,FEMA4ImagesEEG,001,103292,
AFNE01.JPG,AFNE01.JPG,AFNE01.JPG,AFNE01.JPG,AFNE01.JPG,AFNE01.JPG,,,,,,,,,,,,,,,,,,,,,3,2,32,7,,,AMSA11.jpg,AMNE03.jpg,AMSA02.jpg,AMNE18.jpg,AMNE03.jpg,MN,1,num_6,16,num_6,0.566792428028,,,2018_Mar_21_1151,59.9972866213,FEMA4ImagesEEG,001,103292,
AFNE01.JPG,AFNE01.JPG,AFNE01.JPG,AFNE01.JPG,AFNE01.JPG,AFNE01.JPG,,,,,,,,,,,,,,,,,,,,,3,3,33,3,,,AMNE13.jpg,AMSA18.jpg,AMNE02.jpg,AMSA08.jpg,AMSA18.jpg,MS,2,num_6,32,num_4,1.16681949887,,,2018_Mar_21_1151,59.9972866213,FEMA4ImagesEEG,001,103292,
AFNE01.JPG,AFNE01.JPG,AFNE01.JPG,AFNE01.JPG,AFNE01.JPG,AFNE01.JPG,,,,,,,,,,,,,,,,,,,,,3,4,34,8,,,AMSA07.jpg,AMNE11.jpg,AMSA10.jpg,AMNE12.jpg,AMSA10.jpg,MS,2,num_2,32,num_8,0.550157627091,,,2018_Mar_21_1151,59.9972866213,FEMA4ImagesEEG,001,103292,
AFNE01.JPG,AFNE01.JPG,AFNE01.JPG,AFNE01.JPG,AFNE01.JPG,AFNE01.JPG,,,,,,,,,,,,,,,,,,,,,3,5,35,0,,,AMNE04.jpg,AMSA02.jpg,AMNE15.jpg,AMSA15.jpg,AMSA02.jpg,MS,2,num_6,32,num_8,0.583564505912,,,2018_Mar_21_1151,59.9972866213,FEMA4ImagesEEG,001,103292,
AFNE01.JPG,AFNE01.JPG,AFNE01.JPG,AFNE01.JPG,AFNE01.JPG,AFNE01.JPG,,,,,,,,,,,,,,,,,,,,,3,6,36,1,,,AMSA15.jpg,AMNE10.jpg,AMSA18.jpg,AMNE11.jpg,AMSA18.jpg,MS,2,num_2,32,num_4,1.1335014645,,,2018_Mar_21_1151,59.9972866213,FEMA4ImagesEEG,001,103292,
AFNE01.JPG,AFNE01.JPG,AFNE01.JPG,AFNE01.JPG,AFNE01.JPG,AFNE01.JPG,,,,,,,,,,,,,,,,,,,,,3,7,37,5,,,AMSA01.jpg,AMSA20.jpg,AMNE02.jpg,AMNE09.jpg,AMSA20.jpg,MS,2,num_6,32,num_4,0.766769591719,,,2018_Mar_21_1151,59.9972866213,FEMA4ImagesEEG,001,103292,
AFNE01.JPG,AFNE01.JPG,AFNE01.JPG,AFNE01.JPG,AFNE01.JPG,AFNE01.JPG,,,,,,,,,,,,,,,,,,,,,3,8,38,6,,,AMNE02.jpg,AMSA08.jpg,AMNE03.jpg,AMSA17.jpg,AMNE02.jpg,MN,1,num_8,32,num_4,0.633500663098,,,2018_Mar_21_1151,59.9972866213,FEMA4ImagesEEG,001,103292,
