IPosition2,IPosition3,IPosition1,IPosition6,IPosition4,IPosition5,TrialsM1.thisRepN,TrialsM1.thisTrialN,TrialsM1.thisN,TrialsM1.thisIndex,TrialsF1.thisRepN,TrialsF1.thisTrialN,TrialsF1.thisN,TrialsF1.thisIndex,TrialsM2.thisRepN,TrialsM2.thisTrialN,TrialsM2.thisN,TrialsM2.thisIndex,TrialsF2.thisRepN,TrialsF2.thisTrialN,TrialsF2.thisN,TrialsF2.thisIndex,TrialsM3.thisRepN,TrialsM3.thisTrialN,TrialsM3.thisN,TrialsM3.thisIndex,TrialsF3.thisRepN,TrialsF3.thisTrialN,TrialsF3.thisN,TrialsF3.thisIndex,InstrKey_resp.keys,InstrKey_resp.rt,Image0 _Position,Image1 _Position,Image2 _Position,Image3 _Position,Center_image,condition,code,correct_answer,accuracy,Key_Resp.keys,Key_Resp.rt,BreakKey_resp.keys,BreakKey_resp.rt,date,frameRate,expName,session,participant,
,,,,,,,,,,,,,,,,,,,,,,,,,,,,,,space,20.2656025182,,,,,,,,,,,,,,2018_Mar_28_1644,60.018480257,MAFE4ImagesEEG,001,103371,
AMNE23.JPG,AMNE24.JPG,AMNE22.JPG,AMSA24.JPG,AMSA22.JPG,AMSA23.JPG,0,0,0,9,,,,,,,,,,,,,,,,,,,,,,,AMNE15.jpg,AMNE03.jpg,AMSA02.jpg,AMSA14.jpg,AMSA02.jpg,MS,2,num_2,32,num_8,0.983431896486,,,2018_Mar_28_1644,60.018480257,MAFE4ImagesEEG,001,103371,
AFSA25.JPG,AFNE24.JPG,AFSA24.JPG,AFNE21.JPG,AFSA21.JPG,AFNE25.JPG,0,1,1,2,,,,,,,,,,,,,,,,,,,,,,,AMSA14.jpg,AMNE04.jpg,AMNE16.jpg,AMSA12.jpg,AMSA14.jpg,MS,2,num_8,32,num_2,1.43341229932,,,2018_Mar_28_1644,60.018480257,MAFE4ImagesEEG,001,103371,
AFSA21.JPG,AFNE23.JPG,AFNE21.JPG,AFSA25.JPG,AFNE25.JPG,AFSA23.JPG,0,2,2,4,,,,,,,,,,,,,,,,,,,,,,,AMNE08.jpg,AMSA10.jpg,AMSA11.jpg,AMNE09.jpg,AMSA10.jpg,MS,2,num_6,32,num_4,1.11674264976,,,2018_Mar_28_1644,60.018480257,MAFE4ImagesEEG,001,103371,
AFSA21.JPG,AFNE22.JPG,AFNE21.JPG,AFSA23.JPG,AFSA22.JPG,AFNE23.JPG,0,3,3,0,,,,,,,,,,,,,,,,,,,,,,,AMSA07.jpg,AMSA04.jpg,AMNE03.jpg,AMNE16.jpg,AMSA07.jpg,MS,2,num_8,16,num_8,1.36665396538,,,2018_Mar_28_1644,60.018480257,MAFE4ImagesEEG,001,103371,
AMSA21.JPG,AMNE22.JPG,AMNE21.JPG,AMSA23.JPG,AMSA22.JPG,AMNE23.JPG,0,4,4,1,,,,,,,,,,,,,,,,,,,,,,,AMNE09.jpg,AMSA16.jpg,AMSA12.jpg,AMNE03.jpg,AMNE09.jpg,MN,1,num_8,32,num_2,1.98338827596,,,2018_Mar_28_1644,60.018480257,MAFE4ImagesEEG,001,103371,
AMSA25.JPG,AMNE24.JPG,AMSA24.JPG,AMNE26.JPG,AMSA21.JPG,AMNE25.JPG,0,5,5,3,,,,,,,,,,,,,,,,,,,,,,,AMSA05.jpg,AMSA16.jpg,AMNE02.jpg,AMNE20.jpg,AMSA05.jpg,MS,2,num_8,16,num_8,1.48313521274,,,2018_Mar_28_1644,60.018480257,MAFE4ImagesEEG,001,103371,
AFNE23.JPG,AFNE24.JPG,AFNE22.JPG,AFSA24.JPG,AFSA22.JPG,AFSA23.JPG,0,6,6,8,,,,,,,,,,,,,,,,,,,,,,,AMSA12.jpg,AMSA03.jpg,AMNE11.jpg,AMNE20.jpg,AMNE11.jpg,MN,1,num_2,16,num_2,2.36670335924,,,2018_Mar_28_1644,60.018480257,MAFE4ImagesEEG,001,103371,
AMNE22.JPG,AMSA24.JPG,AMSA22.JPG,AMNE25.JPG,AMNE24.JPG,AMSA25.JPG,0,7,7,7,,,,,,,,,,,,,,,,,,,,,,,AMSA15.jpg,AMNE14.jpg,AMNE05.jpg,AMSA18.jpg,AMNE14.jpg,MN,1,num_6,32,num_4,1.75034559646,,,2018_Mar_28_1644,60.018480257,MAFE4ImagesEEG,001,103371,
AMSA21.JPG,AMNE23.JPG,AMNE21.JPG,AMSA25.JPG,AMNE25.JPG,AMSA23.JPG,0,8,8,5,,,,,,,,,,,,,,,,,,,,,,,AMNE16.jpg,AMSA20.jpg,AMNE18.jpg,AMSA12.jpg,AMNE18.jpg,MN,1,num_2,32,num_4,1.75006591191,,,2018_Mar_28_1644,60.018480257,MAFE4ImagesEEG,001,103371,
AFNE22.JPG,AFSA24.JPG,AFSA22.JPG,AFNE25.JPG,AFNE24.JPG,AFSA25.JPG,0,9,9,6,,,,,,,,,,,,,,,,,,,,,,,AMNE03.jpg,AMNE16.jpg,AMSA16.jpg,AMSA03.jpg,AMNE03.jpg,MN,1,num_8,16,num_8,2.23334449506,,,2018_Mar_28_1644,60.018480257,MAFE4ImagesEEG,001,103371,
AFNE23.JPG,AFNE24.JPG,AFNE22.JPG,AFSA24.JPG,AFSA22.JPG,AFSA23.JPG,,,,,0,0,0,8,,,,,,,,,,,,,,,,,,,AFSA16.jpg,AFNE18.jpg,AFNE05.jpg,AFSA12.jpg,AFNE18.jpg,FN,3,num_6,32,num_4,3.16660059436,,,2018_Mar_28_1644,60.018480257,MAFE4ImagesEEG,001,103371,
AFNE22.JPG,AFSA24.JPG,AFSA22.JPG,AFNE25.JPG,AFNE24.JPG,AFSA25.JPG,,,,,0,1,1,6,,,,,,,,,,,,,,,,,,,AFNE07.jpg,AFNE17.jpg,AFSA01.jpg,AFSA12.jpg,AFSA12.jpg,FS,4,num_4,32,num_6,1.7834275986,,,2018_Mar_28_1644,60.018480257,MAFE4ImagesEEG,001,103371,
AMNE23.JPG,AMNE24.JPG,AMNE22.JPG,AMSA24.JPG,AMSA22.JPG,AMSA23.JPG,,,,,0,2,2,9,,,,,,,,,,,,,,,,,,,AFSA17.jpg,AFSA07.jpg,AFNE06.jpg,AFNE01.jpg,AFNE01.jpg,FN,3,num_4,32,num_8,1.14993338246,,,2018_Mar_28_1644,60.018480257,MAFE4ImagesEEG,001,103371,
AMSA25.JPG,AMNE24.JPG,AMSA24.JPG,AMNE26.JPG,AMSA21.JPG,AMNE25.JPG,,,,,0,3,3,3,,,,,,,,,,,,,,,,,,,AFNE06.jpg,AFSA04.jpg,AFNE04.jpg,AFSA03.jpg,AFSA03.jpg,FS,4,num_4,32,num_2,1.66675936029,,,2018_Mar_28_1644,60.018480257,MAFE4ImagesEEG,001,103371,
AMSA21.JPG,AMNE22.JPG,AMNE21.JPG,AMSA23.JPG,AMSA22.JPG,AMNE23.JPG,,,,,0,4,4,1,,,,,,,,,,,,,,,,,,,AFSA06.jpg,AFNE16.jpg,AFSA18.jpg,AFNE13.jpg,AFSA18.jpg,FS,4,num_2,16,num_2,1.06644657539,,,2018_Mar_28_1644,60.018480257,MAFE4ImagesEEG,001,103371,
AFSA21.JPG,AFNE23.JPG,AFNE21.JPG,AFSA25.JPG,AFNE25.JPG,AFSA23.JPG,,,,,0,5,5,4,,,,,,,,,,,,,,,,,,,AFSA07.jpg,AFNE07.jpg,AFSA12.jpg,AFNE19.jpg,AFSA07.jpg,FS,4,num_8,32,num_4,1.31666355551,,,2018_Mar_28_1644,60.018480257,MAFE4ImagesEEG,001,103371,
AFSA21.JPG,AFNE22.JPG,AFNE21.JPG,AFSA23.JPG,AFSA22.JPG,AFNE23.JPG,,,,,0,6,6,0,,,,,,,,,,,,,,,,,,,AFNE07.jpg,AFSA14.jpg,AFSA08.jpg,AFNE04.jpg,AFSA14.jpg,FS,4,num_6,16,num_6,1.8500650138,,,2018_Mar_28_1644,60.018480257,MAFE4ImagesEEG,001,103371,
AMNE22.JPG,AMSA24.JPG,AMSA22.JPG,AMNE25.JPG,AMNE24.JPG,AMSA25.JPG,,,,,0,7,7,7,,,,,,,,,,,,,,,,,,,AFNE10.jpg,AFSA10.jpg,AFNE13.jpg,AFSA02.jpg,AFSA10.jpg,FS,4,num_6,32,num_8,1.60031246411,,,2018_Mar_28_1644,60.018480257,MAFE4ImagesEEG,001,103371,
AMSA21.JPG,AMNE23.JPG,AMNE21.JPG,AMSA25.JPG,AMNE25.JPG,AMSA23.JPG,,,,,0,8,8,5,,,,,,,,,,,,,,,,,,,AFSA14.jpg,AFSA06.jpg,AFNE20.jpg,AFNE02.jpg,AFNE02.jpg,FN,3,num_4,16,num_4,0.983408803295,,,2018_Mar_28_1644,60.018480257,MAFE4ImagesEEG,001,103371,
AFSA25.JPG,AFNE24.JPG,AFSA24.JPG,AFNE21.JPG,AFSA21.JPG,AFNE25.JPG,,,,,0,9,9,2,,,,,,,,,,,,,,,,,,,AFNE16.jpg,AFSA07.jpg,AFNE06.jpg,AFSA18.jpg,AFNE16.jpg,FN,3,num_8,16,num_8,0.866780336655,,,2018_Mar_28_1644,60.018480257,MAFE4ImagesEEG,001,103371,
AMNE23.JPG,AMNE24.JPG,AMNE22.JPG,AMSA24.JPG,AMSA22.JPG,AMSA23.JPG,,,,,,,,,0,0,0,9,,,,,,,,,,,,,,,AMNE08.jpg,AMSA06.jpg,AMSA03.jpg,AMNE09.jpg,AMSA06.jpg,MS,2,num_6,32,num_4,1.30008550908,,,2018_Mar_28_1644,60.018480257,MAFE4ImagesEEG,001,103371,
AMSA21.JPG,AMNE23.JPG,AMNE21.JPG,AMSA25.JPG,AMNE25.JPG,AMSA23.JPG,,,,,,,,,0,1,1,5,,,,,,,,,,,,,,,AMNE14.jpg,AMNE13.jpg,AMSA12.jpg,AMSA07.jpg,AMSA12.jpg,MS,2,num_2,32,num_8,1.00009974989,,,2018_Mar_28_1644,60.018480257,MAFE4ImagesEEG,001,103371,
AMSA25.JPG,AMNE24.JPG,AMSA24.JPG,AMNE26.JPG,AMSA21.JPG,AMNE25.JPG,,,,,,,,,0,2,2,3,,,,,,,,,,,,,,,AMSA06.jpg,AMNE17.jpg,AMNE11.jpg,AMSA10.jpg,AMNE17.jpg,MN,1,num_6,16,num_6,0.833444950578,,,2018_Mar_28_1644,60.018480257,MAFE4ImagesEEG,001,103371,
AFNE23.JPG,AFNE24.JPG,AFNE22.JPG,AFSA24.JPG,AFSA22.JPG,AFSA23.JPG,,,,,,,,,0,3,3,8,,,,,,,,,,,,,,,AMNE17.jpg,AMSA18.jpg,AMSA14.jpg,AMNE07.jpg,AMNE17.jpg,MN,1,num_8,16,num_8,0.766831270012,,,2018_Mar_28_1644,60.018480257,MAFE4ImagesEEG,001,103371,
AFNE22.JPG,AFSA24.JPG,AFSA22.JPG,AFNE25.JPG,AFNE24.JPG,AFSA25.JPG,,,,,,,,,0,4,4,6,,,,,,,,,,,,,,,AMSA09.jpg,AMNE20.jpg,AMNE08.jpg,AMSA02.jpg,AMNE08.jpg,MN,1,num_2,16,num_2,1.68324407167,,,2018_Mar_28_1644,60.018480257,MAFE4ImagesEEG,001,103371,
AMSA21.JPG,AMNE22.JPG,AMNE21.JPG,AMSA23.JPG,AMSA22.JPG,AMNE23.JPG,,,,,,,,,0,5,5,1,,,,,,,,,,,,,,,AMNE04.jpg,AMSA16.jpg,AMNE05.jpg,AMSA19.jpg,AMNE05.jpg,MN,1,num_2,32,num_4,1.76671708684,,,2018_Mar_28_1644,60.018480257,MAFE4ImagesEEG,001,103371,
AFSA25.JPG,AFNE24.JPG,AFSA24.JPG,AFNE21.JPG,AFSA21.JPG,AFNE25.JPG,,,,,,,,,0,6,6,2,,,,,,,,,,,,,,,AMNE15.jpg,AMSA13.jpg,AMSA14.jpg,AMNE02.jpg,AMSA14.jpg,MS,2,num_2,32,num_8,1.55008566944,,,2018_Mar_28_1644,60.018480257,MAFE4ImagesEEG,001,103371,
AFSA21.JPG,AFNE22.JPG,AFNE21.JPG,AFSA23.JPG,AFSA22.JPG,AFNE23.JPG,,,,,,,,,0,7,7,0,,,,,,,,,,,,,,,AMNE04.jpg,AMSA16.jpg,AMSA08.jpg,AMNE17.jpg,AMSA08.jpg,MS,2,num_2,32,num_4,1.10024575033,,,2018_Mar_28_1644,60.018480257,MAFE4ImagesEEG,001,103371,
AFSA21.JPG,AFNE23.JPG,AFNE21.JPG,AFSA25.JPG,AFNE25.JPG,AFSA23.JPG,,,,,,,,,0,8,8,4,,,,,,,,,,,,,,,AMNE11.jpg,AMNE05.jpg,AMSA03.jpg,AMSA10.jpg,AMSA03.jpg,MS,2,num_2,32,num_6,1.11675227195,,,2018_Mar_28_1644,60.018480257,MAFE4ImagesEEG,001,103371,
AMNE22.JPG,AMSA24.JPG,AMSA22.JPG,AMNE25.JPG,AMNE24.JPG,AMSA25.JPG,,,,,,,,,0,9,9,7,,,,,,,,,,,,,,,AMSA13.jpg,AMNE10.jpg,AMSA16.jpg,AMNE03.jpg,AMNE10.jpg,MN,1,num_6,16,num_6,1.20012521656,,,2018_Mar_28_1644,60.018480257,MAFE4ImagesEEG,001,103371,
AMSA21.JPG,AMNE23.JPG,AMNE21.JPG,AMSA25.JPG,AMNE25.JPG,AMSA23.JPG,,,,,,,,,,,,,0,0,0,5,,,,,,,,,,,AFSA04.jpg,AFNE14.jpg,AFSA13.jpg,AFNE07.jpg,AFNE14.jpg,FN,3,num_6,32,num_8,1.31659138919,,,2018_Mar_28_1644,60.018480257,MAFE4ImagesEEG,001,103371,
AFNE23.JPG,AFNE24.JPG,AFNE22.JPG,AFSA24.JPG,AFSA22.JPG,AFSA23.JPG,,,,,,,,,,,,,0,1,1,8,,,,,,,,,,,AFNE01.jpg,AFSA07.jpg,AFNE03.jpg,AFSA20.jpg,AFSA20.jpg,FS,4,num_4,32,num_2,1.70004727691,,,2018_Mar_28_1644,60.018480257,MAFE4ImagesEEG,001,103371,
AFSA21.JPG,AFNE23.JPG,AFNE21.JPG,AFSA25.JPG,AFNE25.JPG,AFSA23.JPG,,,,,,,,,,,,,0,2,2,4,,,,,,,,,,,AFSA05.jpg,AFSA10.jpg,AFNE07.jpg,AFNE15.jpg,AFNE15.jpg,FN,3,num_4,32,num_6,1.10009115411,,,2018_Mar_28_1644,60.018480257,MAFE4ImagesEEG,001,103371,
AFSA25.JPG,AFNE24.JPG,AFSA24.JPG,AFNE21.JPG,AFSA21.JPG,AFNE25.JPG,,,,,,,,,,,,,0,3,3,2,,,,,,,,,,,AFSA18.jpg,AFNE14.jpg,AFSA17.jpg,AFNE04.jpg,AFSA17.jpg,FS,4,num_2,16,num_2,1.31674951356,,,2018_Mar_28_1644,60.018480257,MAFE4ImagesEEG,001,103371,
AMNE23.JPG,AMNE24.JPG,AMNE22.JPG,AMSA24.JPG,AMSA22.JPG,AMSA23.JPG,,,,,,,,,,,,,0,4,4,9,,,,,,,,,,,AFNE15.jpg,AFSA09.jpg,AFSA01.jpg,AFNE19.jpg,AFSA09.jpg,FS,4,num_6,16,num_6,0.916753426602,,,2018_Mar_28_1644,60.018480257,MAFE4ImagesEEG,001,103371,
AMNE22.JPG,AMSA24.JPG,AMSA22.JPG,AMNE25.JPG,AMNE24.JPG,AMSA25.JPG,,,,,,,,,,,,,0,5,5,7,,,,,,,,,,,AFSA04.jpg,AFNE14.jpg,AFSA16.jpg,AFNE15.jpg,AFSA04.jpg,FS,4,num_8,16,num_8,0.916436215572,,,2018_Mar_28_1644,60.018480257,MAFE4ImagesEEG,001,103371,
AFNE22.JPG,AFSA24.JPG,AFSA22.JPG,AFNE25.JPG,AFNE24.JPG,AFSA25.JPG,,,,,,,,,,,,,0,6,6,6,,,,,,,,,,,AFNE06.jpg,AFSA12.jpg,AFNE09.jpg,AFSA16.jpg,AFNE09.jpg,FN,3,num_2,32,num_6,0.850131086132,,,2018_Mar_28_1644,60.018480257,MAFE4ImagesEEG,001,103371,
AFSA21.JPG,AFNE22.JPG,AFNE21.JPG,AFSA23.JPG,AFSA22.JPG,AFNE23.JPG,,,,,,,,,,,,,0,7,7,0,,,,,,,,,,,AFNE02.jpg,AFSA12.jpg,AFNE14.jpg,AFSA14.jpg,AFNE02.jpg,FN,3,num_8,16,num_8,0.483492836938,,,2018_Mar_28_1644,60.018480257,MAFE4ImagesEEG,001,103371,
AMSA25.JPG,AMNE24.JPG,AMSA24.JPG,AMNE26.JPG,AMSA21.JPG,AMNE25.JPG,,,,,,,,,,,,,0,8,8,3,,,,,,,,,,,AFSA01.jpg,AFSA13.jpg,AFNE12.jpg,AFNE15.jpg,AFSA13.jpg,FS,4,num_6,16,num_6,0.900131118135,,,2018_Mar_28_1644,60.018480257,MAFE4ImagesEEG,001,103371,
AMSA21.JPG,AMNE22.JPG,AMNE21.JPG,AMSA23.JPG,AMSA22.JPG,AMNE23.JPG,,,,,,,,,,,,,0,9,9,1,,,,,,,,,,,AFSA08.jpg,AFNE12.jpg,AFNE11.jpg,AFSA14.jpg,AFSA08.jpg,FS,4,num_8,16,num_8,1.10012258653,,,2018_Mar_28_1644,60.018480257,MAFE4ImagesEEG,001,103371,
AFSA21.JPG,AFNE22.JPG,AFNE21.JPG,AFSA23.JPG,AFSA22.JPG,AFNE23.JPG,,,,,,,,,,,,,,,,,0,0,0,0,,,,,,,AMNE03.jpg,AMSA03.jpg,AMNE05.jpg,AMSA06.jpg,AMSA03.jpg,MS,2,num_6,16,num_6,1.25008066592,,,2018_Mar_28_1644,60.018480257,MAFE4ImagesEEG,001,103371,
AMSA21.JPG,AMNE22.JPG,AMNE21.JPG,AMSA23.JPG,AMSA22.JPG,AMNE23.JPG,,,,,,,,,,,,,,,,,0,1,1,1,,,,,,,AMSA02.jpg,AMNE15.jpg,AMNE02.jpg,AMSA10.jpg,AMSA10.jpg,MS,2,num_4,32,num_6,0.950092340761,,,2018_Mar_28_1644,60.018480257,MAFE4ImagesEEG,001,103371,
AMSA25.JPG,AMNE24.JPG,AMSA24.JPG,AMNE26.JPG,AMSA21.JPG,AMNE25.JPG,,,,,,,,,,,,,,,,,0,2,2,3,,,,,,,AMSA12.jpg,AMSA20.jpg,AMNE18.jpg,AMNE06.jpg,AMSA12.jpg,MS,2,num_8,32,num_4,0.833454893494,,,2018_Mar_28_1644,60.018480257,MAFE4ImagesEEG,001,103371,
AMNE23.JPG,AMNE24.JPG,AMNE22.JPG,AMSA24.JPG,AMSA22.JPG,AMSA23.JPG,,,,,,,,,,,,,,,,,0,3,3,9,,,,,,,AMNE06.jpg,AMSA18.jpg,AMSA08.jpg,AMNE08.jpg,AMNE06.jpg,MN,1,num_8,16,num_8,0.783461917657,,,2018_Mar_28_1644,60.018480257,MAFE4ImagesEEG,001,103371,
AMSA21.JPG,AMNE23.JPG,AMNE21.JPG,AMSA25.JPG,AMNE25.JPG,AMSA23.JPG,,,,,,,,,,,,,,,,,0,4,4,5,,,,,,,AMNE13.jpg,AMSA16.jpg,AMSA03.jpg,AMNE06.jpg,AMSA16.jpg,MS,2,num_6,32,num_8,0.883411625749,,,2018_Mar_28_1644,60.018480257,MAFE4ImagesEEG,001,103371,
AMNE22.JPG,AMSA24.JPG,AMSA22.JPG,AMNE25.JPG,AMNE24.JPG,AMSA25.JPG,,,,,,,,,,,,,,,,,0,5,5,7,,,,,,,AMSA08.jpg,AMNE20.jpg,AMSA16.jpg,AMNE12.jpg,AMNE20.jpg,MN,1,num_6,16,num_6,1.55013089365,,,2018_Mar_28_1644,60.018480257,MAFE4ImagesEEG,001,103371,
AFNE23.JPG,AFNE24.JPG,AFNE22.JPG,AFSA24.JPG,AFSA22.JPG,AFSA23.JPG,,,,,,,,,,,,,,,,,0,6,6,8,,,,,,,AMNE15.jpg,AMSA15.jpg,AMNE05.jpg,AMSA11.jpg,AMNE05.jpg,MN,1,num_2,16,num_2,1.23317963514,,,2018_Mar_28_1644,60.018480257,MAFE4ImagesEEG,001,103371,
AFNE22.JPG,AFSA24.JPG,AFSA22.JPG,AFNE25.JPG,AFNE24.JPG,AFSA25.JPG,,,,,,,,,,,,,,,,,0,7,7,6,,,,,,,AMSA04.jpg,AMNE08.jpg,AMSA16.jpg,AMNE03.jpg,AMNE08.jpg,MN,1,num_6,16,num_6,1.11671827361,,,2018_Mar_28_1644,60.018480257,MAFE4ImagesEEG,001,103371,
AFSA25.JPG,AFNE24.JPG,AFSA24.JPG,AFNE21.JPG,AFSA21.JPG,AFNE25.JPG,,,,,,,,,,,,,,,,,0,8,8,2,,,,,,,AMNE19.jpg,AMNE02.jpg,AMSA03.jpg,AMSA04.jpg,AMNE19.jpg,MN,1,num_8,32,num_2,0.783459672472,,,2018_Mar_28_1644,60.018480257,MAFE4ImagesEEG,001,103371,
AFSA21.JPG,AFNE23.JPG,AFNE21.JPG,AFSA25.JPG,AFNE25.JPG,AFSA23.JPG,,,,,,,,,,,,,,,,,0,9,9,4,,,,,,,AMNE05.jpg,AMSA05.jpg,AMNE02.jpg,AMSA02.jpg,AMSA05.jpg,MS,2,num_6,32,num_4,0.966605918657,,,2018_Mar_28_1644,60.018480257,MAFE4ImagesEEG,001,103371,
AMNE23.JPG,AMNE24.JPG,AMNE22.JPG,AMSA24.JPG,AMSA22.JPG,AMSA23.JPG,,,,,,,,,,,,,,,,,,,,,0,0,0,9,,,AFSA06.jpg,AFNE16.jpg,AFNE03.jpg,AFSA08.jpg,AFNE03.jpg,FN,3,num_2,32,num_8,2.73330761003,,,2018_Mar_28_1644,60.018480257,MAFE4ImagesEEG,001,103371,
AFNE22.JPG,AFSA24.JPG,AFSA22.JPG,AFNE25.JPG,AFNE24.JPG,AFSA25.JPG,,,,,,,,,,,,,,,,,,,,,0,1,1,6,,,AFNE06.jpg,AFSA18.jpg,AFNE04.jpg,AFSA01.jpg,AFNE06.jpg,FN,3,num_8,32,num_2,0.95014365908,,,2018_Mar_28_1644,60.018480257,MAFE4ImagesEEG,001,103371,
AFSA25.JPG,AFNE24.JPG,AFSA24.JPG,AFNE21.JPG,AFSA21.JPG,AFNE25.JPG,,,,,,,,,,,,,,,,,,,,,0,2,2,2,,,AFSA07.jpg,AFNE09.jpg,AFSA08.jpg,AFNE12.jpg,AFNE12.jpg,FN,3,num_4,32,num_6,0.800228237989,,,2018_Mar_28_1644,60.018480257,MAFE4ImagesEEG,001,103371,
AMSA21.JPG,AMNE22.JPG,AMNE21.JPG,AMSA23.JPG,AMSA22.JPG,AMNE23.JPG,,,,,,,,,,,,,,,,,,,,,0,3,3,1,,,AFSA12.jpg,AFNE02.jpg,AFSA06.jpg,AFNE05.jpg,AFSA12.jpg,FS,4,num_8,32,num_6,0.966769174905,,,2018_Mar_28_1644,60.018480257,MAFE4ImagesEEG,001,103371,
AFNE23.JPG,AFNE24.JPG,AFNE22.JPG,AFSA24.JPG,AFSA22.JPG,AFSA23.JPG,,,,,,,,,,,,,,,,,,,,,0,4,4,8,,,AFNE15.jpg,AFSA10.jpg,AFSA11.jpg,AFNE09.jpg,AFNE09.jpg,FN,3,num_4,16,num_4,1.23342179321,,,2018_Mar_28_1644,60.018480257,MAFE4ImagesEEG,001,103371,
AMNE22.JPG,AMSA24.JPG,AMSA22.JPG,AMNE25.JPG,AMNE24.JPG,AMSA25.JPG,,,,,,,,,,,,,,,,,,,,,0,5,5,7,,,AFNE16.jpg,AFSA04.jpg,AFSA12.jpg,AFNE18.jpg,AFSA12.jpg,FS,4,num_2,32,num_8,0.966817285807,,,2018_Mar_28_1644,60.018480257,MAFE4ImagesEEG,001,103371,
AMSA21.JPG,AMNE23.JPG,AMNE21.JPG,AMSA25.JPG,AMNE25.JPG,AMSA23.JPG,,,,,,,,,,,,,,,,,,,,,0,6,6,5,,,AFNE20.jpg,AFNE02.jpg,AFSA04.jpg,AFSA13.jpg,AFSA04.jpg,FS,4,num_2,16,num_2,1.10012034135,,,2018_Mar_28_1644,60.018480257,MAFE4ImagesEEG,001,103371,
AFSA21.JPG,AFNE23.JPG,AFNE21.JPG,AFSA25.JPG,AFNE25.JPG,AFSA23.JPG,,,,,,,,,,,,,,,,,,,,,0,7,7,4,,,AFSA19.jpg,AFNE09.jpg,AFSA07.jpg,AFNE06.jpg,AFNE09.jpg,FN,3,num_6,32,num_4,0.383508809726,,,2018_Mar_28_1644,60.018480257,MAFE4ImagesEEG,001,103371,
AFSA21.JPG,AFNE22.JPG,AFNE21.JPG,AFSA23.JPG,AFSA22.JPG,AFNE23.JPG,,,,,,,,,,,,,,,,,,,,,0,8,8,0,,,AFNE19.jpg,AFSA04.jpg,AFSA05.jpg,AFNE10.jpg,AFSA05.jpg,FS,4,num_2,32,num_6,1.00009622175,,,2018_Mar_28_1644,60.018480257,MAFE4ImagesEEG,001,103371,
AMSA25.JPG,AMNE24.JPG,AMSA24.JPG,AMNE26.JPG,AMSA21.JPG,AMNE25.JPG,,,,,,,,,,,,,,,,,,,,,0,9,9,3,,,AFNE08.jpg,AFNE09.jpg,AFSA18.jpg,AFSA14.jpg,AFNE09.jpg,FN,3,num_6,32,num_2,1.86671811319,,,2018_Mar_28_1644,60.018480257,MAFE4ImagesEEG,001,103371,
,,,,,,,,,,,,,,,,,,,,,,,,,,,,,,,,,,,,,,,,,,,space,14.0326874929,2018_Mar_28_1644,60.018480257,MAFE4ImagesEEG,001,103371,
AFNE01.JPG,AFNE01.JPG,AFNE01.JPG,AFNE01.JPG,AFNE01.JPG,AFNE01.JPG,0,0,0,7,,,,,,,,,,,,,,,,,,,,,,,AMNE06.jpg,AMNE15.jpg,AMSA08.jpg,AMSA19.jpg,AMNE06.jpg,MN,1,num_8,16,num_8,1.2167484872,,,2018_Mar_28_1644,60.018480257,MAFE4ImagesEEG,001,103371,
AFNE01.JPG,AFNE01.JPG,AFNE01.JPG,AFNE01.JPG,AFNE01.JPG,AFNE01.JPG,0,1,1,2,,,,,,,,,,,,,,,,,,,,,,,AMSA10.jpg,AMSA07.jpg,AMNE16.jpg,AMNE14.jpg,AMNE16.jpg,MN,1,num_2,32,num_8,1.25006783637,,,2018_Mar_28_1644,60.018480257,MAFE4ImagesEEG,001,103371,
AFNE01.JPG,AFNE01.JPG,AFNE01.JPG,AFNE01.JPG,AFNE01.JPG,AFNE01.JPG,0,2,2,5,,,,,,,,,,,,,,,,,,,,,,,AMNE18.jpg,AMSA07.jpg,AMSA12.jpg,AMNE09.jpg,AMNE18.jpg,MN,1,num_8,32,num_6,0.600146000448,,,2018_Mar_28_1644,60.018480257,MAFE4ImagesEEG,001,103371,
AFNE01.JPG,AFNE01.JPG,AFNE01.JPG,AFNE01.JPG,AFNE01.JPG,AFNE01.JPG,0,3,3,0,,,,,,,,,,,,,,,,,,,,,,,AMNE11.jpg,AMSA14.jpg,AMNE04.jpg,AMSA19.jpg,AMNE04.jpg,MN,1,num_2,16,num_2,1.30006850988,,,2018_Mar_28_1644,60.018480257,MAFE4ImagesEEG,001,103371,
AFNE01.JPG,AFNE01.JPG,AFNE01.JPG,AFNE01.JPG,AFNE01.JPG,AFNE01.JPG,0,4,4,6,,,,,,,,,,,,,,,,,,,,,,,AMSA19.jpg,AMNE17.jpg,AMSA09.jpg,AMNE16.jpg,AMNE16.jpg,MN,1,num_4,16,num_4,0.900172814261,,,2018_Mar_28_1644,60.018480257,MAFE4ImagesEEG,001,103371,
AFNE01.JPG,AFNE01.JPG,AFNE01.JPG,AFNE01.JPG,AFNE01.JPG,AFNE01.JPG,0,5,5,1,,,,,,,,,,,,,,,,,,,,,,,AMNE15.jpg,AMSA04.jpg,AMNE18.jpg,AMSA09.jpg,AMSA09.jpg,MS,2,num_4,16,num_4,0.616796213202,,,2018_Mar_28_1644,60.018480257,MAFE4ImagesEEG,001,103371,
AFNE01.JPG,AFNE01.JPG,AFNE01.JPG,AFNE01.JPG,AFNE01.JPG,AFNE01.JPG,0,6,6,9,,,,,,,,,,,,,,,,,,,,,,,AMNE19.jpg,AMNE07.jpg,AMSA19.jpg,AMSA13.jpg,AMNE19.jpg,MN,1,num_8,32,num_6,2.75005372381,,,2018_Mar_28_1644,60.018480257,MAFE4ImagesEEG,001,103371,
AFNE01.JPG,AFNE01.JPG,AFNE01.JPG,AFNE01.JPG,AFNE01.JPG,AFNE01.JPG,0,7,7,8,,,,,,,,,,,,,,,,,,,,,,,AMNE10.jpg,AMNE11.jpg,AMSA09.jpg,AMSA16.jpg,AMSA16.jpg,MS,2,num_4,16,num_4,1.11677600665,,,2018_Mar_28_1644,60.018480257,MAFE4ImagesEEG,001,103371,
AFNE01.JPG,AFNE01.JPG,AFNE01.JPG,AFNE01.JPG,AFNE01.JPG,AFNE01.JPG,0,8,8,4,,,,,,,,,,,,,,,,,,,,,,,AMSA12.jpg,AMNE14.jpg,AMSA04.jpg,AMNE03.jpg,AMNE14.jpg,MN,1,num_6,32,num_8,0.900134646334,,,2018_Mar_28_1644,60.018480257,MAFE4ImagesEEG,001,103371,
AFNE01.JPG,AFNE01.JPG,AFNE01.JPG,AFNE01.JPG,AFNE01.JPG,AFNE01.JPG,0,9,9,3,,,,,,,,,,,,,,,,,,,,,,,AMSA08.jpg,AMNE15.jpg,AMNE02.jpg,AMSA19.jpg,AMNE15.jpg,MN,1,num_6,16,num_6,2.01678492321,,,2018_Mar_28_1644,60.018480257,MAFE4ImagesEEG,001,103371,
AFNE01.JPG,AFNE01.JPG,AFNE01.JPG,AFNE01.JPG,AFNE01.JPG,AFNE01.JPG,1,0,10,2,,,,,,,,,,,,,,,,,,,,,,,AMNE10.jpg,AMNE05.jpg,AMSA18.jpg,AMSA19.jpg,AMNE05.jpg,MN,1,num_6,16,num_6,1.18341181817,,,2018_Mar_28_1644,60.018480257,MAFE4ImagesEEG,001,103371,
AFNE01.JPG,AFNE01.JPG,AFNE01.JPG,AFNE01.JPG,AFNE01.JPG,AFNE01.JPG,1,1,11,4,,,,,,,,,,,,,,,,,,,,,,,AMNE06.jpg,AMNE02.jpg,AMSA17.jpg,AMSA20.jpg,AMNE02.jpg,MN,1,num_6,32,num_4,2.41662962129,,,2018_Mar_28_1644,60.018480257,MAFE4ImagesEEG,001,103371,
AFNE01.JPG,AFNE01.JPG,AFNE01.JPG,AFNE01.JPG,AFNE01.JPG,AFNE01.JPG,1,2,12,7,,,,,,,,,,,,,,,,,,,,,,,AMSA05.jpg,AMNE17.jpg,AMNE06.jpg,AMSA14.jpg,AMNE17.jpg,MN,1,num_6,32,num_2,1.73348529957,,,2018_Mar_28_1644,60.018480257,MAFE4ImagesEEG,001,103371,
AFNE01.JPG,AFNE01.JPG,AFNE01.JPG,AFNE01.JPG,AFNE01.JPG,AFNE01.JPG,1,3,13,6,,,,,,,,,,,,,,,,,,,,,,,AMSA15.jpg,AMNE01.jpg,AMSA01.jpg,AMNE13.jpg,AMNE01.jpg,MN,1,num_6,16,num_6,1.56676763541,,,2018_Mar_28_1644,60.018480257,MAFE4ImagesEEG,001,103371,
AFNE01.JPG,AFNE01.JPG,AFNE01.JPG,AFNE01.JPG,AFNE01.JPG,AFNE01.JPG,1,4,14,5,,,,,,,,,,,,,,,,,,,,,,,AMSA11.jpg,AMSA18.jpg,AMNE01.jpg,AMNE18.jpg,AMNE01.jpg,MN,1,num_2,32,num_4,1.23340351105,,,2018_Mar_28_1644,60.018480257,MAFE4ImagesEEG,001,103371,
AFNE01.JPG,AFNE01.JPG,AFNE01.JPG,AFNE01.JPG,AFNE01.JPG,AFNE01.JPG,1,5,15,9,,,,,,,,,,,,,,,,,,,,,,,AMSA09.jpg,AMNE06.jpg,AMSA19.jpg,AMNE05.jpg,AMSA09.jpg,MS,2,num_8,16,num_8,1.6500988839,,,2018_Mar_28_1644,60.018480257,MAFE4ImagesEEG,001,103371,
AFNE01.JPG,AFNE01.JPG,AFNE01.JPG,AFNE01.JPG,AFNE01.JPG,AFNE01.JPG,1,6,16,8,,,,,,,,,,,,,,,,,,,,,,,AMNE02.jpg,AMSA06.jpg,AMNE03.jpg,AMSA10.jpg,AMNE02.jpg,MN,1,num_8,32,num_6,2.24999855668,,,2018_Mar_28_1644,60.018480257,MAFE4ImagesEEG,001,103371,
AFNE01.JPG,AFNE01.JPG,AFNE01.JPG,AFNE01.JPG,AFNE01.JPG,AFNE01.JPG,1,7,17,0,,,,,,,,,,,,,,,,,,,,,,,AMNE11.jpg,AMNE03.jpg,AMSA14.jpg,AMSA12.jpg,AMSA14.jpg,MS,2,num_2,16,num_2,1.80032702564,,,2018_Mar_28_1644,60.018480257,MAFE4ImagesEEG,001,103371,
AFNE01.JPG,AFNE01.JPG,AFNE01.JPG,AFNE01.JPG,AFNE01.JPG,AFNE01.JPG,1,8,18,3,,,,,,,,,,,,,,,,,,,,,,,AMNE10.jpg,AMSA12.jpg,AMSA20.jpg,AMNE07.jpg,AMNE10.jpg,MN,1,num_8,32,num_6,1.03348292614,,,2018_Mar_28_1644,60.018480257,MAFE4ImagesEEG,001,103371,
AFNE01.JPG,AFNE01.JPG,AFNE01.JPG,AFNE01.JPG,AFNE01.JPG,AFNE01.JPG,1,9,19,1,,,,,,,,,,,,,,,,,,,,,,,AMNE01.jpg,AMSA08.jpg,AMSA05.jpg,AMNE07.jpg,AMNE07.jpg,MN,1,num_4,32,num_8,0.733529882331,,,2018_Mar_28_1644,60.018480257,MAFE4ImagesEEG,001,103371,
AFNE01.JPG,AFNE01.JPG,AFNE01.JPG,AFNE01.JPG,AFNE01.JPG,AFNE01.JPG,2,0,20,9,,,,,,,,,,,,,,,,,,,,,,,AMNE09.jpg,AMSA15.jpg,AMSA02.jpg,AMNE14.jpg,AMSA15.jpg,MS,2,num_6,16,num_6,0.816795379331,,,2018_Mar_28_1644,60.018480257,MAFE4ImagesEEG,001,103371,
AFNE01.JPG,AFNE01.JPG,AFNE01.JPG,AFNE01.JPG,AFNE01.JPG,AFNE01.JPG,2,1,21,0,,,,,,,,,,,,,,,,,,,,,,,AMNE07.jpg,AMNE19.jpg,AMSA20.jpg,AMSA16.jpg,AMNE19.jpg,MN,1,num_6,16,num_6,0.600149849372,,,2018_Mar_28_1644,60.018480257,MAFE4ImagesEEG,001,103371,
AFNE01.JPG,AFNE01.JPG,AFNE01.JPG,AFNE01.JPG,AFNE01.JPG,AFNE01.JPG,2,2,22,6,,,,,,,,,,,,,,,,,,,,,,,AMNE11.jpg,AMNE03.jpg,AMSA18.jpg,AMSA17.jpg,AMNE03.jpg,MN,1,num_6,32,num_8,0.783485652413,,,2018_Mar_28_1644,60.018480257,MAFE4ImagesEEG,001,103371,
AFNE01.JPG,AFNE01.JPG,AFNE01.JPG,AFNE01.JPG,AFNE01.JPG,AFNE01.JPG,2,3,23,8,,,,,,,,,,,,,,,,,,,,,,,AMSA12.jpg,AMSA16.jpg,AMNE18.jpg,AMNE19.jpg,AMNE18.jpg,MN,1,num_2,32,num_8,1.50006543082,,,2018_Mar_28_1644,60.018480257,MAFE4ImagesEEG,001,103371,
AFNE01.JPG,AFNE01.JPG,AFNE01.JPG,AFNE01.JPG,AFNE01.JPG,AFNE01.JPG,2,4,24,2,,,,,,,,,,,,,,,,,,,,,,,AMSA13.jpg,AMNE13.jpg,AMNE14.jpg,AMSA01.jpg,AMNE14.jpg,MN,1,num_2,16,num_2,1.41672071122,,,2018_Mar_28_1644,60.018480257,MAFE4ImagesEEG,001,103371,
AFNE01.JPG,AFNE01.JPG,AFNE01.JPG,AFNE01.JPG,AFNE01.JPG,AFNE01.JPG,2,5,25,4,,,,,,,,,,,,,,,,,,,,,,,AMNE10.jpg,AMNE11.jpg,AMSA13.jpg,AMSA09.jpg,AMSA13.jpg,MS,2,num_2,32,num_8,1.20010885887,,,2018_Mar_28_1644,60.018480257,MAFE4ImagesEEG,001,103371,
AFNE01.JPG,AFNE01.JPG,AFNE01.JPG,AFNE01.JPG,AFNE01.JPG,AFNE01.JPG,2,6,26,5,,,,,,,,,,,,,,,,,,,,,,,AMSA16.jpg,AMNE09.jpg,AMNE02.jpg,AMSA07.jpg,AMNE02.jpg,MN,1,num_2,32,num_4,2.73332493001,,,2018_Mar_28_1644,60.018480257,MAFE4ImagesEEG,001,103371,
AFNE01.JPG,AFNE01.JPG,AFNE01.JPG,AFNE01.JPG,AFNE01.JPG,AFNE01.JPG,2,7,27,7,,,,,,,,,,,,,,,,,,,,,,,AMNE11.jpg,AMNE17.jpg,AMSA07.jpg,AMSA15.jpg,AMSA15.jpg,MS,2,num_4,32,num_6,1.08375302056,,,2018_Mar_28_1644,60.018480257,MAFE4ImagesEEG,001,103371,
AFNE01.JPG,AFNE01.JPG,AFNE01.JPG,AFNE01.JPG,AFNE01.JPG,AFNE01.JPG,2,8,28,3,,,,,,,,,,,,,,,,,,,,,,,AMSA08.jpg,AMSA03.jpg,AMNE14.jpg,AMNE08.jpg,AMNE14.jpg,MN,1,num_2,32,num_6,1.48343478312,,,2018_Mar_28_1644,60.018480257,MAFE4ImagesEEG,001,103371,
AFNE01.JPG,AFNE01.JPG,AFNE01.JPG,AFNE01.JPG,AFNE01.JPG,AFNE01.JPG,2,9,29,1,,,,,,,,,,,,,,,,,,,,,,,AMNE18.jpg,AMNE11.jpg,AMSA08.jpg,AMSA06.jpg,AMNE18.jpg,MN,1,num_8,16,num_8,1.3667566019,,,2018_Mar_28_1644,60.018480257,MAFE4ImagesEEG,001,103371,
AFNE01.JPG,AFNE01.JPG,AFNE01.JPG,AFNE01.JPG,AFNE01.JPG,AFNE01.JPG,3,0,30,4,,,,,,,,,,,,,,,,,,,,,,,AMNE12.jpg,AMSA20.jpg,AMNE01.jpg,AMSA02.jpg,AMNE12.jpg,MN,1,num_8,32,num_6,0.783483407169,,,2018_Mar_28_1644,60.018480257,MAFE4ImagesEEG,001,103371,
AFNE01.JPG,AFNE01.JPG,AFNE01.JPG,AFNE01.JPG,AFNE01.JPG,AFNE01.JPG,3,1,31,5,,,,,,,,,,,,,,,,,,,,,,,AMNE05.jpg,AMSA08.jpg,AMNE18.jpg,AMSA10.jpg,AMNE18.jpg,MN,1,num_2,32,num_8,1.66672953154,,,2018_Mar_28_1644,60.018480257,MAFE4ImagesEEG,001,103371,
AFNE01.JPG,AFNE01.JPG,AFNE01.JPG,AFNE01.JPG,AFNE01.JPG,AFNE01.JPG,3,2,32,1,,,,,,,,,,,,,,,,,,,,,,,AMNE11.jpg,AMSA18.jpg,AMNE08.jpg,AMSA09.jpg,AMSA09.jpg,MS,2,num_4,32,num_2,1.63337233523,,,2018_Mar_28_1644,60.018480257,MAFE4ImagesEEG,001,103371,
AFNE01.JPG,AFNE01.JPG,AFNE01.JPG,AFNE01.JPG,AFNE01.JPG,AFNE01.JPG,3,3,33,2,,,,,,,,,,,,,,,,,,,,,,,AMSA20.jpg,AMSA18.jpg,AMNE17.jpg,AMNE18.jpg,AMSA18.jpg,MS,2,num_6,32,num_8,1.28338782693,,,2018_Mar_28_1644,60.018480257,MAFE4ImagesEEG,001,103371,
AFNE01.JPG,AFNE01.JPG,AFNE01.JPG,AFNE01.JPG,AFNE01.JPG,AFNE01.JPG,3,4,34,9,,,,,,,,,,,,,,,,,,,,,,,AMNE12.jpg,AMNE15.jpg,AMSA12.jpg,AMSA05.jpg,AMSA12.jpg,MS,2,num_2,32,num_6,0.666843393934,,,2018_Mar_28_1644,60.018480257,MAFE4ImagesEEG,001,103371,
AFNE01.JPG,AFNE01.JPG,AFNE01.JPG,AFNE01.JPG,AFNE01.JPG,AFNE01.JPG,3,5,35,8,,,,,,,,,,,,,,,,,,,,,,,AMNE02.jpg,AMSA10.jpg,AMSA11.jpg,AMNE18.jpg,AMSA10.jpg,MS,2,num_6,16,num_6,1.26648743759,,,2018_Mar_28_1644,60.018480257,MAFE4ImagesEEG,001,103371,
AFNE01.JPG,AFNE01.JPG,AFNE01.JPG,AFNE01.JPG,AFNE01.JPG,AFNE01.JPG,3,6,36,3,,,,,,,,,,,,,,,,,,,,,,,AMNE03.jpg,AMSA07.jpg,AMSA09.jpg,AMNE04.jpg,AMSA09.jpg,MS,2,num_2,32,num_6,0.850138783862,,,2018_Mar_28_1644,60.018480257,MAFE4ImagesEEG,001,103371,
AFNE01.JPG,AFNE01.JPG,AFNE01.JPG,AFNE01.JPG,AFNE01.JPG,AFNE01.JPG,3,7,37,6,,,,,,,,,,,,,,,,,,,,,,,AMNE03.jpg,AMNE17.jpg,AMSA07.jpg,AMSA01.jpg,AMNE03.jpg,MN,1,num_8,16,num_8,1.25016181293,,,2018_Mar_28_1644,60.018480257,MAFE4ImagesEEG,001,103371,
AFNE01.JPG,AFNE01.JPG,AFNE01.JPG,AFNE01.JPG,AFNE01.JPG,AFNE01.JPG,3,8,38,0,,,,,,,,,,,,,,,,,,,,,,,AMSA15.jpg,AMNE10.jpg,AMSA11.jpg,AMNE03.jpg,AMSA11.jpg,MS,2,num_2,32,num_6,0.900130797469,,,2018_Mar_28_1644,60.018480257,MAFE4ImagesEEG,001,103371,
AFNE01.JPG,AFNE01.JPG,AFNE01.JPG,AFNE01.JPG,AFNE01.JPG,AFNE01.JPG,3,9,39,7,,,,,,,,,,,,,,,,,,,,,,,AMNE07.jpg,AMSA05.jpg,AMSA04.jpg,AMNE04.jpg,AMNE04.jpg,MN,1,num_4,32,num_8,1.60011200211,,,2018_Mar_28_1644,60.018480257,MAFE4ImagesEEG,001,103371,
AFNE01.JPG,AFNE01.JPG,AFNE01.JPG,AFNE01.JPG,AFNE01.JPG,AFNE01.JPG,4,0,40,7,,,,,,,,,,,,,,,,,,,,,,,AMNE19.jpg,AMSA14.jpg,AMNE04.jpg,AMSA12.jpg,AMSA12.jpg,MS,2,num_4,16,num_4,0.600146962679,,,2018_Mar_28_1644,60.018480257,MAFE4ImagesEEG,001,103371,
AFNE01.JPG,AFNE01.JPG,AFNE01.JPG,AFNE01.JPG,AFNE01.JPG,AFNE01.JPG,4,1,41,2,,,,,,,,,,,,,,,,,,,,,,,AMNE20.jpg,AMSA06.jpg,AMNE10.jpg,AMSA08.jpg,AMSA06.jpg,MS,2,num_6,16,num_6,1.01676503738,,,2018_Mar_28_1644,60.018480257,MAFE4ImagesEEG,001,103371,
AFNE01.JPG,AFNE01.JPG,AFNE01.JPG,AFNE01.JPG,AFNE01.JPG,AFNE01.JPG,4,2,42,8,,,,,,,,,,,,,,,,,,,,,,,AMNE03.jpg,AMNE12.jpg,AMSA19.jpg,AMSA13.jpg,AMSA19.jpg,MS,2,num_2,16,num_2,1.86674088571,,,2018_Mar_28_1644,60.018480257,MAFE4ImagesEEG,001,103371,
AFNE01.JPG,AFNE01.JPG,AFNE01.JPG,AFNE01.JPG,AFNE01.JPG,AFNE01.JPG,4,3,43,0,,,,,,,,,,,,,,,,,,,,,,,AMNE05.jpg,AMSA14.jpg,AMSA16.jpg,AMNE18.jpg,AMNE05.jpg,MN,1,num_8,32,num_6,0.766781234706,,,2018_Mar_28_1644,60.018480257,MAFE4ImagesEEG,001,103371,
AFNE01.JPG,AFNE01.JPG,AFNE01.JPG,AFNE01.JPG,AFNE01.JPG,AFNE01.JPG,4,4,44,1,,,,,,,,,,,,,,,,,,,,,,,AMSA12.jpg,AMNE11.jpg,AMNE04.jpg,AMSA11.jpg,AMNE04.jpg,MN,1,num_2,32,num_8,0.583500278066,,,2018_Mar_28_1644,60.018480257,MAFE4ImagesEEG,001,103371,
AFNE01.JPG,AFNE01.JPG,AFNE01.JPG,AFNE01.JPG,AFNE01.JPG,AFNE01.JPG,4,5,45,6,,,,,,,,,,,,,,,,,,,,,,,AMSA11.jpg,AMSA05.jpg,AMNE09.jpg,AMNE12.jpg,AMNE09.jpg,MN,1,num_2,32,num_4,1.11675066827,,,2018_Mar_28_1644,60.018480257,MAFE4ImagesEEG,001,103371,
AFNE01.JPG,AFNE01.JPG,AFNE01.JPG,AFNE01.JPG,AFNE01.JPG,AFNE01.JPG,4,6,46,3,,,,,,,,,,,,,,,,,,,,,,,AMSA06.jpg,AMNE17.jpg,AMSA16.jpg,AMNE18.jpg,AMNE18.jpg,MN,1,num_4,16,num_4,2.0500632177,,,2018_Mar_28_1644,60.018480257,MAFE4ImagesEEG,001,103371,
AFNE01.JPG,AFNE01.JPG,AFNE01.JPG,AFNE01.JPG,AFNE01.JPG,AFNE01.JPG,4,7,47,9,,,,,,,,,,,,,,,,,,,,,,,AMNE19.jpg,AMSA02.jpg,AMSA20.jpg,AMNE17.jpg,AMSA02.jpg,MS,2,num_6,48,None,,,,2018_Mar_28_1644,60.018480257,MAFE4ImagesEEG,001,103371,
AFNE01.JPG,AFNE01.JPG,AFNE01.JPG,AFNE01.JPG,AFNE01.JPG,AFNE01.JPG,4,8,48,5,,,,,,,,,,,,,,,,,,,,,,,AMSA18.jpg,AMNE05.jpg,AMSA06.jpg,AMNE07.jpg,AMSA18.jpg,MS,2,num_8,16,num_8,2.99998973636,,,2018_Mar_28_1644,60.018480257,MAFE4ImagesEEG,001,103371,
AFNE01.JPG,AFNE01.JPG,AFNE01.JPG,AFNE01.JPG,AFNE01.JPG,AFNE01.JPG,4,9,49,4,,,,,,,,,,,,,,,,,,,,,,,AMNE15.jpg,AMSA02.jpg,AMNE20.jpg,AMSA07.jpg,AMNE15.jpg,MN,1,num_8,32,num_6,3.58314105019,,,2018_Mar_28_1644,60.018480257,MAFE4ImagesEEG,001,103371,
AFNE01.JPG,AFNE01.JPG,AFNE01.JPG,AFNE01.JPG,AFNE01.JPG,AFNE01.JPG,5,0,50,2,,,,,,,,,,,,,,,,,,,,,,,AMNE14.jpg,AMSA04.jpg,AMNE10.jpg,AMSA20.jpg,AMNE14.jpg,MN,1,num_8,32,num_4,1.01680641272,,,2018_Mar_28_1644,60.018480257,MAFE4ImagesEEG,001,103371,
AFNE01.JPG,AFNE01.JPG,AFNE01.JPG,AFNE01.JPG,AFNE01.JPG,AFNE01.JPG,5,1,51,0,,,,,,,,,,,,,,,,,,,,,,,AMSA14.jpg,AMNE10.jpg,AMSA17.jpg,AMNE19.jpg,AMNE10.jpg,MN,1,num_6,32,num_2,1.75008002442,,,2018_Mar_28_1644,60.018480257,MAFE4ImagesEEG,001,103371,
AFNE01.JPG,AFNE01.JPG,AFNE01.JPG,AFNE01.JPG,AFNE01.JPG,AFNE01.JPG,5,2,52,1,,,,,,,,,,,,,,,,,,,,,,,AMSA20.jpg,AMNE20.jpg,AMNE12.jpg,AMSA19.jpg,AMNE12.jpg,MN,1,num_2,32,num_6,0.983478724433,,,2018_Mar_28_1644,60.018480257,MAFE4ImagesEEG,001,103371,
AFNE01.JPG,AFNE01.JPG,AFNE01.JPG,AFNE01.JPG,AFNE01.JPG,AFNE01.JPG,5,3,53,4,,,,,,,,,,,,,,,,,,,,,,,AMNE15.jpg,AMSA10.jpg,AMNE11.jpg,AMSA04.jpg,AMSA10.jpg,MS,2,num_6,32,num_4,2.94979950594,,,2018_Mar_28_1644,60.018480257,MAFE4ImagesEEG,001,103371,
AFNE01.JPG,AFNE01.JPG,AFNE01.JPG,AFNE01.JPG,AFNE01.JPG,AFNE01.JPG,5,4,54,3,,,,,,,,,,,,,,,,,,,,,,,AMSA07.jpg,AMNE17.jpg,AMSA15.jpg,AMNE14.jpg,AMNE14.jpg,MN,1,num_4,32,num_8,2.44971001969,,,2018_Mar_28_1644,60.018480257,MAFE4ImagesEEG,001,103371,
AFNE01.JPG,AFNE01.JPG,AFNE01.JPG,AFNE01.JPG,AFNE01.JPG,AFNE01.JPG,5,5,55,6,,,,,,,,,,,,,,,,,,,,,,,AMNE06.jpg,AMNE08.jpg,AMSA14.jpg,AMSA13.jpg,AMNE08.jpg,MN,1,num_6,16,num_6,0.61680551467,,,2018_Mar_28_1644,60.018480257,MAFE4ImagesEEG,001,103371,
AFNE01.JPG,AFNE01.JPG,AFNE01.JPG,AFNE01.JPG,AFNE01.JPG,AFNE01.JPG,5,6,56,9,,,,,,,,,,,,,,,,,,,,,,,AMSA06.jpg,AMNE02.jpg,AMNE06.jpg,AMSA03.jpg,AMSA03.jpg,MS,2,num_4,32,num_2,4.94980592077,,,2018_Mar_28_1644,60.018480257,MAFE4ImagesEEG,001,103371,
AFNE01.JPG,AFNE01.JPG,AFNE01.JPG,AFNE01.JPG,AFNE01.JPG,AFNE01.JPG,5,7,57,7,,,,,,,,,,,,,,,,,,,,,,,AMNE02.jpg,AMNE01.jpg,AMSA06.jpg,AMSA20.jpg,AMNE02.jpg,MN,1,num_8,16,num_8,0.816776455671,,,2018_Mar_28_1644,60.018480257,MAFE4ImagesEEG,001,103371,
AFNE01.JPG,AFNE01.JPG,AFNE01.JPG,AFNE01.JPG,AFNE01.JPG,AFNE01.JPG,5,8,58,8,,,,,,,,,,,,,,,,,,,,,,,AMSA12.jpg,AMNE20.jpg,AMSA14.jpg,AMNE19.jpg,AMNE19.jpg,MN,1,num_4,16,num_4,1.05011036631,,,2018_Mar_28_1644,60.018480257,MAFE4ImagesEEG,001,103371,
AFNE01.JPG,AFNE01.JPG,AFNE01.JPG,AFNE01.JPG,AFNE01.JPG,AFNE01.JPG,5,9,59,5,,,,,,,,,,,,,,,,,,,,,,,AMNE12.jpg,AMNE06.jpg,AMSA20.jpg,AMSA07.jpg,AMNE12.jpg,MN,1,num_8,16,num_8,0.86678322329,,,2018_Mar_28_1644,60.018480257,MAFE4ImagesEEG,001,103371,
,,,,,,,,,,,,,,,,,,,,,,,,,,,,,,,,,,,,,,,,,,,space,22.0150968729,2018_Mar_28_1644,60.018480257,MAFE4ImagesEEG,001,103371,
AFNE01.JPG,AFNE01.JPG,AFNE01.JPG,AFNE01.JPG,AFNE01.JPG,AFNE01.JPG,,,,,0,0,0,2,,,,,,,,,,,,,,,,,,,AFNE03.jpg,AFSA19.jpg,AFNE16.jpg,AFSA06.jpg,AFSA06.jpg,FS,4,num_4,16,num_4,2.19987119111,,,2018_Mar_28_1644,60.018480257,MAFE4ImagesEEG,001,103371,
AFNE01.JPG,AFNE01.JPG,AFNE01.JPG,AFNE01.JPG,AFNE01.JPG,AFNE01.JPG,,,,,0,1,1,1,,,,,,,,,,,,,,,,,,,AFSA01.jpg,AFNE14.jpg,AFSA14.jpg,AFNE11.jpg,AFSA14.jpg,FS,4,num_2,32,num_4,1.11675772449,,,2018_Mar_28_1644,60.018480257,MAFE4ImagesEEG,001,103371,
AFNE01.JPG,AFNE01.JPG,AFNE01.JPG,AFNE01.JPG,AFNE01.JPG,AFNE01.JPG,,,,,0,2,2,0,,,,,,,,,,,,,,,,,,,AFSA03.jpg,AFNE08.jpg,AFSA13.jpg,AFNE20.jpg,AFSA03.jpg,FS,4,num_8,16,num_8,0.650138014113,,,2018_Mar_28_1644,60.018480257,MAFE4ImagesEEG,001,103371,
AFNE01.JPG,AFNE01.JPG,AFNE01.JPG,AFNE01.JPG,AFNE01.JPG,AFNE01.JPG,,,,,0,3,3,6,,,,,,,,,,,,,,,,,,,AFSA13.jpg,AFNE02.jpg,AFNE18.jpg,AFSA07.jpg,AFSA07.jpg,FS,4,num_4,16,num_4,1.08343228133,,,2018_Mar_28_1644,60.018480257,MAFE4ImagesEEG,001,103371,
AFNE01.JPG,AFNE01.JPG,AFNE01.JPG,AFNE01.JPG,AFNE01.JPG,AFNE01.JPG,,,,,0,4,4,3,,,,,,,,,,,,,,,,,,,AFSA13.jpg,AFSA07.jpg,AFNE13.jpg,AFNE03.jpg,AFNE13.jpg,FN,3,num_2,16,num_2,1.21676324122,,,2018_Mar_28_1644,60.018480257,MAFE4ImagesEEG,001,103371,
AFNE01.JPG,AFNE01.JPG,AFNE01.JPG,AFNE01.JPG,AFNE01.JPG,AFNE01.JPG,,,,,0,5,5,9,,,,,,,,,,,,,,,,,,,AFSA15.jpg,AFNE07.jpg,AFSA13.jpg,AFNE17.jpg,AFSA13.jpg,FS,4,num_2,32,num_8,1.3834488315,,,2018_Mar_28_1644,60.018480257,MAFE4ImagesEEG,001,103371,
AFNE01.JPG,AFNE01.JPG,AFNE01.JPG,AFNE01.JPG,AFNE01.JPG,AFNE01.JPG,,,,,0,6,6,8,,,,,,,,,,,,,,,,,,,AFNE11.jpg,AFSA17.jpg,AFSA13.jpg,AFNE05.jpg,AFSA17.jpg,FS,4,num_6,32,num_4,0.916796726407,,,2018_Mar_28_1644,60.018480257,MAFE4ImagesEEG,001,103371,
AFNE01.JPG,AFNE01.JPG,AFNE01.JPG,AFNE01.JPG,AFNE01.JPG,AFNE01.JPG,,,,,0,7,7,7,,,,,,,,,,,,,,,,,,,AFSA07.jpg,AFNE02.jpg,AFNE08.jpg,AFSA06.jpg,AFNE02.jpg,FN,3,num_6,16,num_6,1.01679775276,,,2018_Mar_28_1644,60.018480257,MAFE4ImagesEEG,001,103371,
AFNE01.JPG,AFNE01.JPG,AFNE01.JPG,AFNE01.JPG,AFNE01.JPG,AFNE01.JPG,,,,,0,8,8,4,,,,,,,,,,,,,,,,,,,AFSA20.jpg,AFNE18.jpg,AFNE07.jpg,AFSA08.jpg,AFSA08.jpg,FS,4,num_4,16,num_4,0.800029700447,,,2018_Mar_28_1644,60.018480257,MAFE4ImagesEEG,001,103371,
AFNE01.JPG,AFNE01.JPG,AFNE01.JPG,AFNE01.JPG,AFNE01.JPG,AFNE01.JPG,,,,,0,9,9,5,,,,,,,,,,,,,,,,,,,AFSA04.jpg,AFNE13.jpg,AFSA11.jpg,AFNE18.jpg,AFNE18.jpg,FN,3,num_4,16,num_4,0.90012053377,,,2018_Mar_28_1644,60.018480257,MAFE4ImagesEEG,001,103371,
AFNE01.JPG,AFNE01.JPG,AFNE01.JPG,AFNE01.JPG,AFNE01.JPG,AFNE01.JPG,,,,,1,0,10,4,,,,,,,,,,,,,,,,,,,AFSA02.jpg,AFNE09.jpg,AFNE05.jpg,AFSA19.jpg,AFSA19.jpg,FS,4,num_4,32,num_8,1.18309524865,,,2018_Mar_28_1644,60.018480257,MAFE4ImagesEEG,001,103371,
AFNE01.JPG,AFNE01.JPG,AFNE01.JPG,AFNE01.JPG,AFNE01.JPG,AFNE01.JPG,,,,,1,1,11,7,,,,,,,,,,,,,,,,,,,AFNE02.jpg,AFSA02.jpg,AFNE20.jpg,AFSA08.jpg,AFNE02.jpg,FN,3,num_8,32,num_6,1.03349800082,,,2018_Mar_28_1644,60.018480257,MAFE4ImagesEEG,001,103371,
AFNE01.JPG,AFNE01.JPG,AFNE01.JPG,AFNE01.JPG,AFNE01.JPG,AFNE01.JPG,,,,,1,2,12,9,,,,,,,,,,,,,,,,,,,AFSA18.jpg,AFSA20.jpg,AFNE07.jpg,AFNE14.jpg,AFNE14.jpg,FN,3,num_4,16,num_4,1.01673777454,,,2018_Mar_28_1644,60.018480257,MAFE4ImagesEEG,001,103371,
AFNE01.JPG,AFNE01.JPG,AFNE01.JPG,AFNE01.JPG,AFNE01.JPG,AFNE01.JPG,,,,,1,3,13,2,,,,,,,,,,,,,,,,,,,AFNE07.jpg,AFSA17.jpg,AFNE19.jpg,AFSA03.jpg,AFSA03.jpg,FS,4,num_4,32,num_8,1.53372540494,,,2018_Mar_28_1644,60.018480257,MAFE4ImagesEEG,001,103371,
AFNE01.JPG,AFNE01.JPG,AFNE01.JPG,AFNE01.JPG,AFNE01.JPG,AFNE01.JPG,,,,,1,4,14,8,,,,,,,,,,,,,,,,,,,AFSA09.jpg,AFSA17.jpg,AFNE08.jpg,AFNE19.jpg,AFNE08.jpg,FN,3,num_2,16,num_2,1.28346929472,,,2018_Mar_28_1644,60.018480257,MAFE4ImagesEEG,001,103371,
AFNE01.JPG,AFNE01.JPG,AFNE01.JPG,AFNE01.JPG,AFNE01.JPG,AFNE01.JPG,,,,,1,5,15,5,,,,,,,,,,,,,,,,,,,AFSA16.jpg,AFSA08.jpg,AFNE06.jpg,AFNE17.jpg,AFSA08.jpg,FS,4,num_6,32,num_4,1.2168251439,,,2018_Mar_28_1644,60.018480257,MAFE4ImagesEEG,001,103371,
AFNE01.JPG,AFNE01.JPG,AFNE01.JPG,AFNE01.JPG,AFNE01.JPG,AFNE01.JPG,,,,,1,6,16,1,,,,,,,,,,,,,,,,,,,AFNE16.jpg,AFNE06.jpg,AFSA10.jpg,AFSA05.jpg,AFNE06.jpg,FN,3,num_6,16,num_6,0.683500983752,,,2018_Mar_28_1644,60.018480257,MAFE4ImagesEEG,001,103371,
AFNE01.JPG,AFNE01.JPG,AFNE01.JPG,AFNE01.JPG,AFNE01.JPG,AFNE01.JPG,,,,,1,7,17,6,,,,,,,,,,,,,,,,,,,AFSA09.jpg,AFNE16.jpg,AFSA12.jpg,AFNE19.jpg,AFNE16.jpg,FN,3,num_6,32,num_4,1.15008477133,,,2018_Mar_28_1644,60.018480257,MAFE4ImagesEEG,001,103371,
AFNE01.JPG,AFNE01.JPG,AFNE01.JPG,AFNE01.JPG,AFNE01.JPG,AFNE01.JPG,,,,,1,8,18,0,,,,,,,,,,,,,,,,,,,AFSA01.jpg,AFSA15.jpg,AFNE11.jpg,AFNE08.jpg,AFNE08.jpg,FN,3,num_4,32,num_6,1.5001449741,,,2018_Mar_28_1644,60.018480257,MAFE4ImagesEEG,001,103371,
AFNE01.JPG,AFNE01.JPG,AFNE01.JPG,AFNE01.JPG,AFNE01.JPG,AFNE01.JPG,,,,,1,9,19,3,,,,,,,,,,,,,,,,,,,AFNE05.jpg,AFNE03.jpg,AFSA08.jpg,AFSA19.jpg,AFSA19.jpg,FS,4,num_4,16,num_4,0.850164122239,,,2018_Mar_28_1644,60.018480257,MAFE4ImagesEEG,001,103371,
AFNE01.JPG,AFNE01.JPG,AFNE01.JPG,AFNE01.JPG,AFNE01.JPG,AFNE01.JPG,,,,,2,0,20,8,,,,,,,,,,,,,,,,,,,AFNE04.jpg,AFNE17.jpg,AFSA10.jpg,AFSA09.jpg,AFSA10.jpg,FS,4,num_2,16,num_2,1.31681751029,,,2018_Mar_28_1644,60.018480257,MAFE4ImagesEEG,001,103371,
AFNE01.JPG,AFNE01.JPG,AFNE01.JPG,AFNE01.JPG,AFNE01.JPG,AFNE01.JPG,,,,,2,1,21,5,,,,,,,,,,,,,,,,,,,AFNE12.jpg,AFSA14.jpg,AFNE02.jpg,AFSA12.jpg,AFSA14.jpg,FS,4,num_6,16,num_6,1.61674008385,,,2018_Mar_28_1644,60.018480257,MAFE4ImagesEEG,001,103371,
AFNE01.JPG,AFNE01.JPG,AFNE01.JPG,AFNE01.JPG,AFNE01.JPG,AFNE01.JPG,,,,,2,2,22,7,,,,,,,,,,,,,,,,,,,AFSA18.jpg,AFSA15.jpg,AFNE05.jpg,AFNE10.jpg,AFSA18.jpg,FS,4,num_8,48,None,,,,2018_Mar_28_1644,60.018480257,MAFE4ImagesEEG,001,103371,
AFNE01.JPG,AFNE01.JPG,AFNE01.JPG,AFNE01.JPG,AFNE01.JPG,AFNE01.JPG,,,,,2,3,23,3,,,,,,,,,,,,,,,,,,,AFNE19.jpg,AFNE01.jpg,AFSA06.jpg,AFSA14.jpg,AFSA14.jpg,FS,4,num_4,32,num_2,3.88324099249,,,2018_Mar_28_1644,60.018480257,MAFE4ImagesEEG,001,103371,
AFNE01.JPG,AFNE01.JPG,AFNE01.JPG,AFNE01.JPG,AFNE01.JPG,AFNE01.JPG,,,,,2,4,24,9,,,,,,,,,,,,,,,,,,,AFSA16.jpg,AFNE08.jpg,AFNE07.jpg,AFSA14.jpg,AFNE07.jpg,FN,3,num_2,32,num_8,3.69990647247,,,2018_Mar_28_1644,60.018480257,MAFE4ImagesEEG,001,103371,
AFNE01.JPG,AFNE01.JPG,AFNE01.JPG,AFNE01.JPG,AFNE01.JPG,AFNE01.JPG,,,,,2,5,25,0,,,,,,,,,,,,,,,,,,,AFSA19.jpg,AFNE09.jpg,AFSA04.jpg,AFNE02.jpg,AFNE02.jpg,FN,3,num_4,32,num_6,0.983457234863,,,2018_Mar_28_1644,60.018480257,MAFE4ImagesEEG,001,103371,
AFNE01.JPG,AFNE01.JPG,AFNE01.JPG,AFNE01.JPG,AFNE01.JPG,AFNE01.JPG,,,,,2,6,26,4,,,,,,,,,,,,,,,,,,,AFSA04.jpg,AFSA19.jpg,AFNE11.jpg,AFNE07.jpg,AFSA04.jpg,FS,4,num_8,32,num_6,0.800143883622,,,2018_Mar_28_1644,60.018480257,MAFE4ImagesEEG,001,103371,
AFNE01.JPG,AFNE01.JPG,AFNE01.JPG,AFNE01.JPG,AFNE01.JPG,AFNE01.JPG,,,,,2,7,27,2,,,,,,,,,,,,,,,,,,,AFSA08.jpg,AFNE06.jpg,AFSA13.jpg,AFNE14.jpg,AFSA13.jpg,FS,4,num_2,32,num_4,1.83338497236,,,2018_Mar_28_1644,60.018480257,MAFE4ImagesEEG,001,103371,
AFNE01.JPG,AFNE01.JPG,AFNE01.JPG,AFNE01.JPG,AFNE01.JPG,AFNE01.JPG,,,,,2,8,28,6,,,,,,,,,,,,,,,,,,,AFSA09.jpg,AFNE20.jpg,AFNE01.jpg,AFSA03.jpg,AFNE20.jpg,FN,3,num_6,16,num_6,0.833506853261,,,2018_Mar_28_1644,60.018480257,MAFE4ImagesEEG,001,103371,
AFNE01.JPG,AFNE01.JPG,AFNE01.JPG,AFNE01.JPG,AFNE01.JPG,AFNE01.JPG,,,,,2,9,29,1,,,,,,,,,,,,,,,,,,,AFSA16.jpg,AFNE06.jpg,AFSA07.jpg,AFNE10.jpg,AFSA07.jpg,FS,4,num_2,32,num_4,1.11674232903,,,2018_Mar_28_1644,60.018480257,MAFE4ImagesEEG,001,103371,
AFNE01.JPG,AFNE01.JPG,AFNE01.JPG,AFNE01.JPG,AFNE01.JPG,AFNE01.JPG,,,,,3,0,30,6,,,,,,,,,,,,,,,,,,,AFNE13.jpg,AFSA19.jpg,AFNE10.jpg,AFSA01.jpg,AFNE13.jpg,FN,3,num_8,16,num_8,0.916768822121,,,2018_Mar_28_1644,60.018480257,MAFE4ImagesEEG,001,103371,
AFNE01.JPG,AFNE01.JPG,AFNE01.JPG,AFNE01.JPG,AFNE01.JPG,AFNE01.JPG,,,,,3,1,31,4,,,,,,,,,,,,,,,,,,,AFSA14.jpg,AFNE10.jpg,AFSA15.jpg,AFNE12.jpg,AFNE10.jpg,FN,3,num_6,32,num_2,1.56674903253,,,2018_Mar_28_1644,60.018480257,MAFE4ImagesEEG,001,103371,
AFNE01.JPG,AFNE01.JPG,AFNE01.JPG,AFNE01.JPG,AFNE01.JPG,AFNE01.JPG,,,,,3,2,32,2,,,,,,,,,,,,,,,,,,,AFNE17.jpg,AFNE01.jpg,AFSA19.jpg,AFSA15.jpg,AFSA19.jpg,FS,4,num_2,32,num_6,4.36654074449,,,2018_Mar_28_1644,60.018480257,MAFE4ImagesEEG,001,103371,
AFNE01.JPG,AFNE01.JPG,AFNE01.JPG,AFNE01.JPG,AFNE01.JPG,AFNE01.JPG,,,,,3,3,33,5,,,,,,,,,,,,,,,,,,,AFSA07.jpg,AFSA02.jpg,AFNE05.jpg,AFNE11.jpg,AFSA07.jpg,FS,4,num_8,32,num_4,1.56668745057,,,2018_Mar_28_1644,60.018480257,MAFE4ImagesEEG,001,103371,
AFNE01.JPG,AFNE01.JPG,AFNE01.JPG,AFNE01.JPG,AFNE01.JPG,AFNE01.JPG,,,,,3,4,34,7,,,,,,,,,,,,,,,,,,,AFNE07.jpg,AFNE05.jpg,AFSA01.jpg,AFSA15.jpg,AFNE07.jpg,FN,3,num_8,16,num_8,1.16675743589,,,2018_Mar_28_1644,60.018480257,MAFE4ImagesEEG,001,103371,
AFNE01.JPG,AFNE01.JPG,AFNE01.JPG,AFNE01.JPG,AFNE01.JPG,AFNE01.JPG,,,,,3,5,35,9,,,,,,,,,,,,,,,,,,,AFSA19.jpg,AFSA15.jpg,AFNE16.jpg,AFNE01.jpg,AFSA15.jpg,FS,4,num_6,32,num_4,1.25010760804,,,2018_Mar_28_1644,60.018480257,MAFE4ImagesEEG,001,103371,
AFNE01.JPG,AFNE01.JPG,AFNE01.JPG,AFNE01.JPG,AFNE01.JPG,AFNE01.JPG,,,,,3,6,36,0,,,,,,,,,,,,,,,,,,,AFNE10.jpg,AFSA07.jpg,AFNE13.jpg,AFSA08.jpg,AFNE10.jpg,FN,3,num_8,32,num_6,0.683476607548,,,2018_Mar_28_1644,60.018480257,MAFE4ImagesEEG,001,103371,
AFNE01.JPG,AFNE01.JPG,AFNE01.JPG,AFNE01.JPG,AFNE01.JPG,AFNE01.JPG,,,,,3,7,37,1,,,,,,,,,,,,,,,,,,,AFNE04.jpg,AFSA06.jpg,AFSA05.jpg,AFNE11.jpg,AFNE11.jpg,FN,3,num_4,32,num_2,1.86668219045,,,2018_Mar_28_1644,60.018480257,MAFE4ImagesEEG,001,103371,
AFNE01.JPG,AFNE01.JPG,AFNE01.JPG,AFNE01.JPG,AFNE01.JPG,AFNE01.JPG,,,,,3,8,38,3,,,,,,,,,,,,,,,,,,,AFNE20.jpg,AFNE18.jpg,AFSA08.jpg,AFSA04.jpg,AFNE20.jpg,FN,3,num_8,16,num_8,0.850148726779,,,2018_Mar_28_1644,60.018480257,MAFE4ImagesEEG,001,103371,
AFNE01.JPG,AFNE01.JPG,AFNE01.JPG,AFNE01.JPG,AFNE01.JPG,AFNE01.JPG,,,,,3,9,39,8,,,,,,,,,,,,,,,,,,,AFSA19.jpg,AFSA05.jpg,AFNE06.jpg,AFNE17.jpg,AFSA05.jpg,FS,4,num_6,48,None,,,,2018_Mar_28_1644,60.018480257,MAFE4ImagesEEG,001,103371,
AFNE01.JPG,AFNE01.JPG,AFNE01.JPG,AFNE01.JPG,AFNE01.JPG,AFNE01.JPG,,,,,4,0,40,2,,,,,,,,,,,,,,,,,,,AFSA16.jpg,AFSA07.jpg,AFNE19.jpg,AFNE03.jpg,AFSA16.jpg,FS,4,num_8,16,num_8,0.666819017788,,,2018_Mar_28_1644,60.018480257,MAFE4ImagesEEG,001,103371,
AFNE01.JPG,AFNE01.JPG,AFNE01.JPG,AFNE01.JPG,AFNE01.JPG,AFNE01.JPG,,,,,4,1,41,8,,,,,,,,,,,,,,,,,,,AFSA16.jpg,AFNE08.jpg,AFSA13.jpg,AFNE07.jpg,AFSA16.jpg,FS,4,num_8,32,num_6,0.416959020426,,,2018_Mar_28_1644,60.018480257,MAFE4ImagesEEG,001,103371,
AFNE01.JPG,AFNE01.JPG,AFNE01.JPG,AFNE01.JPG,AFNE01.JPG,AFNE01.JPG,,,,,4,2,42,9,,,,,,,,,,,,,,,,,,,AFNE01.jpg,AFNE17.jpg,AFSA17.jpg,AFSA01.jpg,AFNE17.jpg,FN,3,num_6,32,num_4,0.33357260481,,,2018_Mar_28_1644,60.018480257,MAFE4ImagesEEG,001,103371,
AFNE01.JPG,AFNE01.JPG,AFNE01.JPG,AFNE01.JPG,AFNE01.JPG,AFNE01.JPG,,,,,4,3,43,5,,,,,,,,,,,,,,,,,,,AFNE03.jpg,AFNE16.jpg,AFSA17.jpg,AFSA19.jpg,AFNE03.jpg,FN,3,num_8,32,num_2,0.666836979159,,,2018_Mar_28_1644,60.018480257,MAFE4ImagesEEG,001,103371,
AFNE01.JPG,AFNE01.JPG,AFNE01.JPG,AFNE01.JPG,AFNE01.JPG,AFNE01.JPG,,,,,4,4,44,4,,,,,,,,,,,,,,,,,,,AFSA01.jpg,AFNE05.jpg,AFSA11.jpg,AFNE17.jpg,AFSA11.jpg,FS,4,num_2,32,num_8,1.98341168993,,,2018_Mar_28_1644,60.018480257,MAFE4ImagesEEG,001,103371,
AFNE01.JPG,AFNE01.JPG,AFNE01.JPG,AFNE01.JPG,AFNE01.JPG,AFNE01.JPG,,,,,4,5,45,0,,,,,,,,,,,,,,,,,,,AFSA20.jpg,AFNE08.jpg,AFSA13.jpg,AFNE07.jpg,AFNE07.jpg,FN,3,num_4,32,num_8,0.86678418552,,,2018_Mar_28_1644,60.018480257,MAFE4ImagesEEG,001,103371,
AFNE01.JPG,AFNE01.JPG,AFNE01.JPG,AFNE01.JPG,AFNE01.JPG,AFNE01.JPG,,,,,4,6,46,1,,,,,,,,,,,,,,,,,,,AFNE05.jpg,AFSA14.jpg,AFSA11.jpg,AFNE19.jpg,AFNE05.jpg,FN,3,num_8,16,num_8,0.866755639727,,,2018_Mar_28_1644,60.018480257,MAFE4ImagesEEG,001,103371,
AFNE01.JPG,AFNE01.JPG,AFNE01.JPG,AFNE01.JPG,AFNE01.JPG,AFNE01.JPG,,,,,4,7,47,7,,,,,,,,,,,,,,,,,,,AFSA08.jpg,AFSA19.jpg,AFNE04.jpg,AFNE17.jpg,AFSA08.jpg,FS,4,num_8,32,num_6,0.733470224834,,,2018_Mar_28_1644,60.018480257,MAFE4ImagesEEG,001,103371,
AFNE01.JPG,AFNE01.JPG,AFNE01.JPG,AFNE01.JPG,AFNE01.JPG,AFNE01.JPG,,,,,4,8,48,3,,,,,,,,,,,,,,,,,,,AFNE09.jpg,AFNE07.jpg,AFSA18.jpg,AFSA12.jpg,AFSA12.jpg,FS,4,num_4,16,num_4,1.03344347514,,,2018_Mar_28_1644,60.018480257,MAFE4ImagesEEG,001,103371,
AFNE01.JPG,AFNE01.JPG,AFNE01.JPG,AFNE01.JPG,AFNE01.JPG,AFNE01.JPG,,,,,4,9,49,6,,,,,,,,,,,,,,,,,,,AFSA20.jpg,AFNE06.jpg,AFNE11.jpg,AFSA03.jpg,AFSA20.jpg,FS,4,num_8,16,num_8,1.40009647835,,,2018_Mar_28_1644,60.018480257,MAFE4ImagesEEG,001,103371,
AFNE01.JPG,AFNE01.JPG,AFNE01.JPG,AFNE01.JPG,AFNE01.JPG,AFNE01.JPG,,,,,5,0,50,1,,,,,,,,,,,,,,,,,,,AFSA11.jpg,AFNE14.jpg,AFSA02.jpg,AFNE09.jpg,AFSA02.jpg,FS,4,num_2,16,num_2,2.13341755944,,,2018_Mar_28_1644,60.018480257,MAFE4ImagesEEG,001,103371,
AFNE01.JPG,AFNE01.JPG,AFNE01.JPG,AFNE01.JPG,AFNE01.JPG,AFNE01.JPG,,,,,5,1,51,8,,,,,,,,,,,,,,,,,,,AFSA19.jpg,AFNE01.jpg,AFNE19.jpg,AFSA18.jpg,AFNE19.jpg,FN,3,num_2,32,num_4,1.58332002268,,,2018_Mar_28_1644,60.018480257,MAFE4ImagesEEG,001,103371,
AFNE01.JPG,AFNE01.JPG,AFNE01.JPG,AFNE01.JPG,AFNE01.JPG,AFNE01.JPG,,,,,5,2,52,9,,,,,,,,,,,,,,,,,,,AFSA11.jpg,AFNE04.jpg,AFSA02.jpg,AFNE01.jpg,AFNE04.jpg,FN,3,num_6,16,num_6,0.849972640921,,,2018_Mar_28_1644,60.018480257,MAFE4ImagesEEG,001,103371,
AFNE01.JPG,AFNE01.JPG,AFNE01.JPG,AFNE01.JPG,AFNE01.JPG,AFNE01.JPG,,,,,5,3,53,4,,,,,,,,,,,,,,,,,,,AFNE15.jpg,AFNE12.jpg,AFSA08.jpg,AFSA10.jpg,AFSA08.jpg,FS,4,num_2,16,num_2,1.15010048758,,,2018_Mar_28_1644,60.018480257,MAFE4ImagesEEG,001,103371,
AFNE01.JPG,AFNE01.JPG,AFNE01.JPG,AFNE01.JPG,AFNE01.JPG,AFNE01.JPG,,,,,5,4,54,5,,,,,,,,,,,,,,,,,,,AFSA11.jpg,AFNE04.jpg,AFNE19.jpg,AFSA16.jpg,AFSA11.jpg,FS,4,num_8,32,num_4,0.78344588069,,,2018_Mar_28_1644,60.018480257,MAFE4ImagesEEG,001,103371,
AFNE01.JPG,AFNE01.JPG,AFNE01.JPG,AFNE01.JPG,AFNE01.JPG,AFNE01.JPG,,,,,5,5,55,3,,,,,,,,,,,,,,,,,,,AFSA03.jpg,AFNE14.jpg,AFSA19.jpg,AFNE06.jpg,AFNE14.jpg,FN,3,num_6,16,num_6,1.05015815649,,,2018_Mar_28_1644,60.018480257,MAFE4ImagesEEG,001,103371,
AFNE01.JPG,AFNE01.JPG,AFNE01.JPG,AFNE01.JPG,AFNE01.JPG,AFNE01.JPG,,,,,5,6,56,0,,,,,,,,,,,,,,,,,,,AFNE11.jpg,AFSA19.jpg,AFNE12.jpg,AFSA06.jpg,AFNE12.jpg,FN,3,num_2,32,num_6,1.1500995254,,,2018_Mar_28_1644,60.018480257,MAFE4ImagesEEG,001,103371,
AFNE01.JPG,AFNE01.JPG,AFNE01.JPG,AFNE01.JPG,AFNE01.JPG,AFNE01.JPG,,,,,5,7,57,6,,,,,,,,,,,,,,,,,,,AFSA18.jpg,AFNE13.jpg,AFNE03.jpg,AFSA04.jpg,AFSA18.jpg,FS,4,num_8,32,num_2,1.91662641388,,,2018_Mar_28_1644,60.018480257,MAFE4ImagesEEG,001,103371,
AFNE01.JPG,AFNE01.JPG,AFNE01.JPG,AFNE01.JPG,AFNE01.JPG,AFNE01.JPG,,,,,5,8,58,7,,,,,,,,,,,,,,,,,,,AFSA06.jpg,AFNE13.jpg,AFNE15.jpg,AFSA03.jpg,AFNE15.jpg,FN,3,num_2,32,num_6,0.950186638162,,,2018_Mar_28_1644,60.018480257,MAFE4ImagesEEG,001,103371,
AFNE01.JPG,AFNE01.JPG,AFNE01.JPG,AFNE01.JPG,AFNE01.JPG,AFNE01.JPG,,,,,5,9,59,2,,,,,,,,,,,,,,,,,,,AFNE03.jpg,AFNE04.jpg,AFSA14.jpg,AFSA10.jpg,AFSA14.jpg,FS,4,num_2,32,num_8,1.20011431142,,,2018_Mar_28_1644,60.018480257,MAFE4ImagesEEG,001,103371,
,,,,,,,,,,,,,,,,,,,,,,,,,,,,,,,,,,,,,,,,,,,space,11.2823162373,2018_Mar_28_1644,60.018480257,MAFE4ImagesEEG,001,103371,
AFNE01.JPG,AFNE01.JPG,AFNE01.JPG,AFNE01.JPG,AFNE01.JPG,AFNE01.JPG,,,,,,,,,0,0,0,0,,,,,,,,,,,,,,,AMNE13.jpg,AMNE19.jpg,AMSA16.jpg,AMSA03.jpg,AMNE13.jpg,MN,1,num_8,16,num_8,0.900194624555,,,2018_Mar_28_1644,60.018480257,MAFE4ImagesEEG,001,103371,
AFNE01.JPG,AFNE01.JPG,AFNE01.JPG,AFNE01.JPG,AFNE01.JPG,AFNE01.JPG,,,,,,,,,0,1,1,3,,,,,,,,,,,,,,,AMNE18.jpg,AMSA19.jpg,AMSA01.jpg,AMNE07.jpg,AMNE18.jpg,MN,1,num_8,32,num_4,0.983398218872,,,2018_Mar_28_1644,60.018480257,MAFE4ImagesEEG,001,103371,
AFNE01.JPG,AFNE01.JPG,AFNE01.JPG,AFNE01.JPG,AFNE01.JPG,AFNE01.JPG,,,,,,,,,0,2,2,2,,,,,,,,,,,,,,,AMSA13.jpg,AMSA12.jpg,AMNE10.jpg,AMNE14.jpg,AMNE10.jpg,MN,1,num_2,32,num_8,0.766835439659,,,2018_Mar_28_1644,60.018480257,MAFE4ImagesEEG,001,103371,
AFNE01.JPG,AFNE01.JPG,AFNE01.JPG,AFNE01.JPG,AFNE01.JPG,AFNE01.JPG,,,,,,,,,0,3,3,4,,,,,,,,,,,,,,,AMSA03.jpg,AMNE05.jpg,AMSA19.jpg,AMNE10.jpg,AMNE05.jpg,MN,1,num_6,32,num_8,1.03344283369,,,2018_Mar_28_1644,60.018480257,MAFE4ImagesEEG,001,103371,
AFNE01.JPG,AFNE01.JPG,AFNE01.JPG,AFNE01.JPG,AFNE01.JPG,AFNE01.JPG,,,,,,,,,0,4,4,7,,,,,,,,,,,,,,,AMNE02.jpg,AMSA08.jpg,AMSA16.jpg,AMNE01.jpg,AMNE02.jpg,MN,1,num_8,32,num_4,0.900138815923,,,2018_Mar_28_1644,60.018480257,MAFE4ImagesEEG,001,103371,
AFNE01.JPG,AFNE01.JPG,AFNE01.JPG,AFNE01.JPG,AFNE01.JPG,AFNE01.JPG,,,,,,,,,0,5,5,5,,,,,,,,,,,,,,,AMSA14.jpg,AMNE03.jpg,AMSA01.jpg,AMNE05.jpg,AMNE03.jpg,MN,1,num_6,32,num_8,0.833476383006,,,2018_Mar_28_1644,60.018480257,MAFE4ImagesEEG,001,103371,
AFNE01.JPG,AFNE01.JPG,AFNE01.JPG,AFNE01.JPG,AFNE01.JPG,AFNE01.JPG,,,,,,,,,0,6,6,6,,,,,,,,,,,,,,,AMSA03.jpg,AMSA09.jpg,AMNE07.jpg,AMNE11.jpg,AMSA03.jpg,MS,2,num_8,32,num_6,0.616804552439,,,2018_Mar_28_1644,60.018480257,MAFE4ImagesEEG,001,103371,
AFNE01.JPG,AFNE01.JPG,AFNE01.JPG,AFNE01.JPG,AFNE01.JPG,AFNE01.JPG,,,,,,,,,0,7,7,1,,,,,,,,,,,,,,,AMNE13.jpg,AMNE18.jpg,AMSA09.jpg,AMSA16.jpg,AMNE18.jpg,MN,1,num_6,32,num_2,1.11679076066,,,2018_Mar_28_1644,60.018480257,MAFE4ImagesEEG,001,103371,
AFNE01.JPG,AFNE01.JPG,AFNE01.JPG,AFNE01.JPG,AFNE01.JPG,AFNE01.JPG,,,,,,,,,0,8,8,9,,,,,,,,,,,,,,,AMNE15.jpg,AMNE03.jpg,AMSA01.jpg,AMSA15.jpg,AMSA15.jpg,MS,2,num_4,16,num_4,1.21677190124,,,2018_Mar_28_1644,60.018480257,MAFE4ImagesEEG,001,103371,
AFNE01.JPG,AFNE01.JPG,AFNE01.JPG,AFNE01.JPG,AFNE01.JPG,AFNE01.JPG,,,,,,,,,0,9,9,8,,,,,,,,,,,,,,,AMSA05.jpg,AMNE08.jpg,AMNE11.jpg,AMSA04.jpg,AMSA05.jpg,MS,2,num_8,16,num_8,1.20011046261,,,2018_Mar_28_1644,60.018480257,MAFE4ImagesEEG,001,103371,
AFNE01.JPG,AFNE01.JPG,AFNE01.JPG,AFNE01.JPG,AFNE01.JPG,AFNE01.JPG,,,,,,,,,1,0,10,1,,,,,,,,,,,,,,,AMNE19.jpg,AMSA09.jpg,AMSA08.jpg,AMNE14.jpg,AMNE19.jpg,MN,1,num_8,16,num_8,0.866802146891,,,2018_Mar_28_1644,60.018480257,MAFE4ImagesEEG,001,103371,
AFNE01.JPG,AFNE01.JPG,AFNE01.JPG,AFNE01.JPG,AFNE01.JPG,AFNE01.JPG,,,,,,,,,1,1,11,5,,,,,,,,,,,,,,,AMNE10.jpg,AMNE08.jpg,AMSA12.jpg,AMSA19.jpg,AMNE10.jpg,MN,1,num_8,32,num_6,0.783449088107,,,2018_Mar_28_1644,60.018480257,MAFE4ImagesEEG,001,103371,
AFNE01.JPG,AFNE01.JPG,AFNE01.JPG,AFNE01.JPG,AFNE01.JPG,AFNE01.JPG,,,,,,,,,1,2,12,3,,,,,,,,,,,,,,,AMNE20.jpg,AMSA19.jpg,AMSA20.jpg,AMNE03.jpg,AMNE20.jpg,MN,1,num_8,32,num_4,0.950128905126,,,2018_Mar_28_1644,60.018480257,MAFE4ImagesEEG,001,103371,
AFNE01.JPG,AFNE01.JPG,AFNE01.JPG,AFNE01.JPG,AFNE01.JPG,AFNE01.JPG,,,,,,,,,1,3,13,0,,,,,,,,,,,,,,,AMNE20.jpg,AMNE04.jpg,AMSA01.jpg,AMSA16.jpg,AMNE20.jpg,MN,1,num_8,16,num_8,0.933423845971,,,2018_Mar_28_1644,60.018480257,MAFE4ImagesEEG,001,103371,
AFNE01.JPG,AFNE01.JPG,AFNE01.JPG,AFNE01.JPG,AFNE01.JPG,AFNE01.JPG,,,,,,,,,1,4,14,2,,,,,,,,,,,,,,,AMNE12.jpg,AMSA19.jpg,AMSA15.jpg,AMNE10.jpg,AMNE12.jpg,MN,1,num_8,16,num_8,1.5667140719,,,2018_Mar_28_1644,60.018480257,MAFE4ImagesEEG,001,103371,
AFNE01.JPG,AFNE01.JPG,AFNE01.JPG,AFNE01.JPG,AFNE01.JPG,AFNE01.JPG,,,,,,,,,1,5,15,4,,,,,,,,,,,,,,,AMNE01.jpg,AMNE18.jpg,AMSA15.jpg,AMSA19.jpg,AMSA19.jpg,MS,2,num_4,16,num_4,0.800153826538,,,2018_Mar_28_1644,60.018480257,MAFE4ImagesEEG,001,103371,
AFNE01.JPG,AFNE01.JPG,AFNE01.JPG,AFNE01.JPG,AFNE01.JPG,AFNE01.JPG,,,,,,,,,1,6,16,7,,,,,,,,,,,,,,,AMNE14.jpg,AMSA15.jpg,AMSA13.jpg,AMNE20.jpg,AMSA13.jpg,MS,2,num_2,32,num_6,1.08342105552,,,2018_Mar_28_1644,60.018480257,MAFE4ImagesEEG,001,103371,
AFNE01.JPG,AFNE01.JPG,AFNE01.JPG,AFNE01.JPG,AFNE01.JPG,AFNE01.JPG,,,,,,,,,1,7,17,6,,,,,,,,,,,,,,,AMNE12.jpg,AMSA18.jpg,AMNE18.jpg,AMSA08.jpg,AMNE18.jpg,MN,1,num_2,48,None,,,,2018_Mar_28_1644,60.018480257,MAFE4ImagesEEG,001,103371,
AFNE01.JPG,AFNE01.JPG,AFNE01.JPG,AFNE01.JPG,AFNE01.JPG,AFNE01.JPG,,,,,,,,,1,8,18,9,,,,,,,,,,,,,,,AMSA05.jpg,AMNE18.jpg,AMSA02.jpg,AMNE09.jpg,AMNE18.jpg,MN,1,num_6,16,num_6,2.23341281252,,,2018_Mar_28_1644,60.018480257,MAFE4ImagesEEG,001,103371,
AFNE01.JPG,AFNE01.JPG,AFNE01.JPG,AFNE01.JPG,AFNE01.JPG,AFNE01.JPG,,,,,,,,,1,9,19,8,,,,,,,,,,,,,,,AMSA04.jpg,AMSA17.jpg,AMNE13.jpg,AMNE03.jpg,AMNE13.jpg,MN,1,num_2,32,num_4,1.01673745381,,,2018_Mar_28_1644,60.018480257,MAFE4ImagesEEG,001,103371,
AFNE01.JPG,AFNE01.JPG,AFNE01.JPG,AFNE01.JPG,AFNE01.JPG,AFNE01.JPG,,,,,,,,,2,0,20,1,,,,,,,,,,,,,,,AMSA18.jpg,AMNE06.jpg,AMNE17.jpg,AMSA05.jpg,AMNE06.jpg,MN,1,num_6,32,num_4,0.750144813734,,,2018_Mar_28_1644,60.018480257,MAFE4ImagesEEG,001,103371,
AFNE01.JPG,AFNE01.JPG,AFNE01.JPG,AFNE01.JPG,AFNE01.JPG,AFNE01.JPG,,,,,,,,,2,1,21,6,,,,,,,,,,,,,,,AMNE09.jpg,AMNE13.jpg,AMSA13.jpg,AMSA18.jpg,AMNE09.jpg,MN,1,num_8,16,num_8,0.566864177876,,,2018_Mar_28_1644,60.018480257,MAFE4ImagesEEG,001,103371,
AFNE01.JPG,AFNE01.JPG,AFNE01.JPG,AFNE01.JPG,AFNE01.JPG,AFNE01.JPG,,,,,,,,,2,2,22,2,,,,,,,,,,,,,,,AMNE09.jpg,AMSA04.jpg,AMSA20.jpg,AMNE16.jpg,AMNE09.jpg,MN,1,num_8,32,num_6,1.15012165642,,,2018_Mar_28_1644,60.018480257,MAFE4ImagesEEG,001,103371,
AFNE01.JPG,AFNE01.JPG,AFNE01.JPG,AFNE01.JPG,AFNE01.JPG,AFNE01.JPG,,,,,,,,,2,3,23,8,,,,,,,,,,,,,,,AMNE01.jpg,AMNE08.jpg,AMSA13.jpg,AMSA08.jpg,AMNE01.jpg,MN,1,num_8,32,num_6,4.03319169488,,,2018_Mar_28_1644,60.018480257,MAFE4ImagesEEG,001,103371,
AFNE01.JPG,AFNE01.JPG,AFNE01.JPG,AFNE01.JPG,AFNE01.JPG,AFNE01.JPG,,,,,,,,,2,4,24,9,,,,,,,,,,,,,,,AMSA14.jpg,AMNE16.jpg,AMNE09.jpg,AMSA03.jpg,AMSA14.jpg,MS,2,num_8,16,num_8,0.783493350144,,,2018_Mar_28_1644,60.018480257,MAFE4ImagesEEG,001,103371,
AFNE01.JPG,AFNE01.JPG,AFNE01.JPG,AFNE01.JPG,AFNE01.JPG,AFNE01.JPG,,,,,,,,,2,5,25,7,,,,,,,,,,,,,,,AMSA04.jpg,AMNE17.jpg,AMSA08.jpg,AMNE06.jpg,AMSA04.jpg,MS,2,num_8,16,num_8,0.900149079564,,,2018_Mar_28_1644,60.018480257,MAFE4ImagesEEG,001,103371,
AFNE01.JPG,AFNE01.JPG,AFNE01.JPG,AFNE01.JPG,AFNE01.JPG,AFNE01.JPG,,,,,,,,,2,6,26,0,,,,,,,,,,,,,,,AMSA04.jpg,AMNE04.jpg,AMNE09.jpg,AMSA01.jpg,AMNE04.jpg,MN,1,num_6,32,num_4,2.88333432761,,,2018_Mar_28_1644,60.018480257,MAFE4ImagesEEG,001,103371,
AFNE01.JPG,AFNE01.JPG,AFNE01.JPG,AFNE01.JPG,AFNE01.JPG,AFNE01.JPG,,,,,,,,,2,7,27,4,,,,,,,,,,,,,,,AMSA10.jpg,AMNE06.jpg,AMNE03.jpg,AMSA15.jpg,AMNE06.jpg,MN,1,num_6,16,num_6,0.783439145191,,,2018_Mar_28_1644,60.018480257,MAFE4ImagesEEG,001,103371,
AFNE01.JPG,AFNE01.JPG,AFNE01.JPG,AFNE01.JPG,AFNE01.JPG,AFNE01.JPG,,,,,,,,,2,8,28,3,,,,,,,,,,,,,,,AMNE20.jpg,AMSA12.jpg,AMSA18.jpg,AMNE13.jpg,AMSA18.jpg,MS,2,num_2,32,num_8,0.750140644144,,,2018_Mar_28_1644,60.018480257,MAFE4ImagesEEG,001,103371,
AFNE01.JPG,AFNE01.JPG,AFNE01.JPG,AFNE01.JPG,AFNE01.JPG,AFNE01.JPG,,,,,,,,,2,9,29,5,,,,,,,,,,,,,,,AMSA19.jpg,AMNE08.jpg,AMSA10.jpg,AMNE14.jpg,AMNE08.jpg,MN,1,num_6,16,num_6,0.883481226163,,,2018_Mar_28_1644,60.018480257,MAFE4ImagesEEG,001,103371,
AFNE01.JPG,AFNE01.JPG,AFNE01.JPG,AFNE01.JPG,AFNE01.JPG,AFNE01.JPG,,,,,,,,,3,0,30,5,,,,,,,,,,,,,,,AMSA20.jpg,AMSA07.jpg,AMNE19.jpg,AMNE15.jpg,AMNE15.jpg,MN,1,num_4,16,num_4,1.46672779956,,,2018_Mar_28_1644,60.018480257,MAFE4ImagesEEG,001,103371,
AFNE01.JPG,AFNE01.JPG,AFNE01.JPG,AFNE01.JPG,AFNE01.JPG,AFNE01.JPG,,,,,,,,,3,1,31,2,,,,,,,,,,,,,,,AMSA07.jpg,AMNE15.jpg,AMNE09.jpg,AMSA13.jpg,AMNE09.jpg,MN,1,num_2,16,num_2,2.41692662577,,,2018_Mar_28_1644,60.018480257,MAFE4ImagesEEG,001,103371,
AFNE01.JPG,AFNE01.JPG,AFNE01.JPG,AFNE01.JPG,AFNE01.JPG,AFNE01.JPG,,,,,,,,,3,2,32,4,,,,,,,,,,,,,,,AMSA05.jpg,AMNE13.jpg,AMNE03.jpg,AMSA17.jpg,AMSA17.jpg,MS,2,num_4,16,num_4,0.816759456473,,,2018_Mar_28_1644,60.018480257,MAFE4ImagesEEG,001,103371,
AFNE01.JPG,AFNE01.JPG,AFNE01.JPG,AFNE01.JPG,AFNE01.JPG,AFNE01.JPG,,,,,,,,,3,3,33,8,,,,,,,,,,,,,,,AMSA05.jpg,AMNE11.jpg,AMNE10.jpg,AMSA13.jpg,AMSA05.jpg,MS,2,num_8,32,num_6,1.0001029573,,,2018_Mar_28_1644,60.018480257,MAFE4ImagesEEG,001,103371,
AFNE01.JPG,AFNE01.JPG,AFNE01.JPG,AFNE01.JPG,AFNE01.JPG,AFNE01.JPG,,,,,,,,,3,4,34,3,,,,,,,,,,,,,,,AMSA06.jpg,AMNE03.jpg,AMSA08.jpg,AMNE09.jpg,AMSA08.jpg,MS,2,num_2,32,num_8,1.25015219074,,,2018_Mar_28_1644,60.018480257,MAFE4ImagesEEG,001,103371,
AFNE01.JPG,AFNE01.JPG,AFNE01.JPG,AFNE01.JPG,AFNE01.JPG,AFNE01.JPG,,,,,,,,,3,5,35,9,,,,,,,,,,,,,,,AMSA01.jpg,AMNE14.jpg,AMNE01.jpg,AMSA20.jpg,AMNE01.jpg,MN,1,num_2,16,num_2,1.16677218984,,,2018_Mar_28_1644,60.018480257,MAFE4ImagesEEG,001,103371,
AFNE01.JPG,AFNE01.JPG,AFNE01.JPG,AFNE01.JPG,AFNE01.JPG,AFNE01.JPG,,,,,,,,,3,6,36,7,,,,,,,,,,,,,,,AMNE09.jpg,AMNE11.jpg,AMSA07.jpg,AMSA08.jpg,AMNE11.jpg,MN,1,num_6,32,num_8,1.03343834338,,,2018_Mar_28_1644,60.018480257,MAFE4ImagesEEG,001,103371,
AFNE01.JPG,AFNE01.JPG,AFNE01.JPG,AFNE01.JPG,AFNE01.JPG,AFNE01.JPG,,,,,,,,,3,7,37,6,,,,,,,,,,,,,,,AMNE03.jpg,AMSA02.jpg,AMSA15.jpg,AMNE04.jpg,AMSA15.jpg,MS,2,num_2,16,num_2,0.933482220455,,,2018_Mar_28_1644,60.018480257,MAFE4ImagesEEG,001,103371,
AFNE01.JPG,AFNE01.JPG,AFNE01.JPG,AFNE01.JPG,AFNE01.JPG,AFNE01.JPG,,,,,,,,,3,8,38,0,,,,,,,,,,,,,,,AMSA09.jpg,AMSA13.jpg,AMNE02.jpg,AMNE15.jpg,AMNE15.jpg,MN,1,num_4,16,num_4,0.700109821104,,,2018_Mar_28_1644,60.018480257,MAFE4ImagesEEG,001,103371,
AFNE01.JPG,AFNE01.JPG,AFNE01.JPG,AFNE01.JPG,AFNE01.JPG,AFNE01.JPG,,,,,,,,,3,9,39,1,,,,,,,,,,,,,,,AMSA03.jpg,AMNE02.jpg,AMSA01.jpg,AMNE12.jpg,AMSA01.jpg,MS,2,num_2,16,num_2,1.41675631324,,,2018_Mar_28_1644,60.018480257,MAFE4ImagesEEG,001,103371,
AFNE01.JPG,AFNE01.JPG,AFNE01.JPG,AFNE01.JPG,AFNE01.JPG,AFNE01.JPG,,,,,,,,,4,0,40,0,,,,,,,,,,,,,,,AMSA12.jpg,AMSA13.jpg,AMNE03.jpg,AMNE02.jpg,AMSA13.jpg,MS,2,num_6,16,num_6,1.11675900751,,,2018_Mar_28_1644,60.018480257,MAFE4ImagesEEG,001,103371,
AFNE01.JPG,AFNE01.JPG,AFNE01.JPG,AFNE01.JPG,AFNE01.JPG,AFNE01.JPG,,,,,,,,,4,1,41,6,,,,,,,,,,,,,,,AMNE10.jpg,AMSA18.jpg,AMNE05.jpg,AMSA12.jpg,AMNE05.jpg,MN,1,num_2,16,num_2,2.36665653129,,,2018_Mar_28_1644,60.018480257,MAFE4ImagesEEG,001,103371,
AFNE01.JPG,AFNE01.JPG,AFNE01.JPG,AFNE01.JPG,AFNE01.JPG,AFNE01.JPG,,,,,,,,,4,2,42,3,,,,,,,,,,,,,,,AMSA13.jpg,AMSA08.jpg,AMNE15.jpg,AMNE03.jpg,AMNE03.jpg,MN,1,num_4,16,num_4,0.883453321818,,,2018_Mar_28_1644,60.018480257,MAFE4ImagesEEG,001,103371,
AFNE01.JPG,AFNE01.JPG,AFNE01.JPG,AFNE01.JPG,AFNE01.JPG,AFNE01.JPG,,,,,,,,,4,3,43,8,,,,,,,,,,,,,,,AMNE09.jpg,AMSA20.jpg,AMSA18.jpg,AMNE04.jpg,AMNE04.jpg,MN,1,num_4,16,num_4,0.800092886086,,,2018_Mar_28_1644,60.018480257,MAFE4ImagesEEG,001,103371,
AFNE01.JPG,AFNE01.JPG,AFNE01.JPG,AFNE01.JPG,AFNE01.JPG,AFNE01.JPG,,,,,,,,,4,4,44,9,,,,,,,,,,,,,,,AMSA09.jpg,AMNE03.jpg,AMSA18.jpg,AMNE06.jpg,AMNE06.jpg,MN,1,num_4,32,num_6,1.10014664201,,,2018_Mar_28_1644,60.018480257,MAFE4ImagesEEG,001,103371,
AFNE01.JPG,AFNE01.JPG,AFNE01.JPG,AFNE01.JPG,AFNE01.JPG,AFNE01.JPG,,,,,,,,,4,5,45,7,,,,,,,,,,,,,,,AMNE14.jpg,AMSA14.jpg,AMSA15.jpg,AMNE16.jpg,AMNE14.jpg,MN,1,num_8,32,num_2,1.83347606228,,,2018_Mar_28_1644,60.018480257,MAFE4ImagesEEG,001,103371,
AFNE01.JPG,AFNE01.JPG,AFNE01.JPG,AFNE01.JPG,AFNE01.JPG,AFNE01.JPG,,,,,,,,,4,6,46,4,,,,,,,,,,,,,,,AMSA10.jpg,AMNE12.jpg,AMSA15.jpg,AMNE01.jpg,AMSA15.jpg,MS,2,num_2,32,num_6,1.45003653219,,,2018_Mar_28_1644,60.018480257,MAFE4ImagesEEG,001,103371,
AFNE01.JPG,AFNE01.JPG,AFNE01.JPG,AFNE01.JPG,AFNE01.JPG,AFNE01.JPG,,,,,,,,,4,7,47,1,,,,,,,,,,,,,,,AMNE19.jpg,AMSA03.jpg,AMSA06.jpg,AMNE07.jpg,AMNE07.jpg,MN,1,num_4,32,num_6,1.33347349631,,,2018_Mar_28_1644,60.018480257,MAFE4ImagesEEG,001,103371,
AFNE01.JPG,AFNE01.JPG,AFNE01.JPG,AFNE01.JPG,AFNE01.JPG,AFNE01.JPG,,,,,,,,,4,8,48,5,,,,,,,,,,,,,,,AMSA03.jpg,AMNE03.jpg,AMSA06.jpg,AMNE09.jpg,AMNE09.jpg,MN,1,num_4,16,num_4,0.733471187064,,,2018_Mar_28_1644,60.018480257,MAFE4ImagesEEG,001,103371,
AFNE01.JPG,AFNE01.JPG,AFNE01.JPG,AFNE01.JPG,AFNE01.JPG,AFNE01.JPG,,,,,,,,,4,9,49,2,,,,,,,,,,,,,,,AMNE03.jpg,AMSA08.jpg,AMSA07.jpg,AMNE04.jpg,AMSA07.jpg,MS,2,num_2,16,num_2,1.03346271953,,,2018_Mar_28_1644,60.018480257,MAFE4ImagesEEG,001,103371,
AFNE01.JPG,AFNE01.JPG,AFNE01.JPG,AFNE01.JPG,AFNE01.JPG,AFNE01.JPG,,,,,,,,,5,0,50,3,,,,,,,,,,,,,,,AMSA19.jpg,AMNE03.jpg,AMSA15.jpg,AMNE20.jpg,AMSA19.jpg,MS,2,num_8,32,num_6,0.88348186767,,,2018_Mar_28_1644,60.018480257,MAFE4ImagesEEG,001,103371,
AFNE01.JPG,AFNE01.JPG,AFNE01.JPG,AFNE01.JPG,AFNE01.JPG,AFNE01.JPG,,,,,,,,,5,1,51,1,,,,,,,,,,,,,,,AMNE11.jpg,AMNE02.jpg,AMSA17.jpg,AMSA12.jpg,AMNE02.jpg,MN,1,num_6,32,num_8,0.983482252574,,,2018_Mar_28_1644,60.018480257,MAFE4ImagesEEG,001,103371,
AFNE01.JPG,AFNE01.JPG,AFNE01.JPG,AFNE01.JPG,AFNE01.JPG,AFNE01.JPG,,,,,,,,,5,2,52,6,,,,,,,,,,,,,,,AMNE11.jpg,AMNE16.jpg,AMSA01.jpg,AMSA10.jpg,AMNE16.jpg,MN,1,num_6,16,num_6,0.866748904169,,,2018_Mar_28_1644,60.018480257,MAFE4ImagesEEG,001,103371,
AFNE01.JPG,AFNE01.JPG,AFNE01.JPG,AFNE01.JPG,AFNE01.JPG,AFNE01.JPG,,,,,,,,,5,3,53,2,,,,,,,,,,,,,,,AMNE01.jpg,AMSA20.jpg,AMNE13.jpg,AMSA15.jpg,AMNE13.jpg,MN,1,num_2,32,num_4,1.10011777544,,,2018_Mar_28_1644,60.018480257,MAFE4ImagesEEG,001,103371,
AFNE01.JPG,AFNE01.JPG,AFNE01.JPG,AFNE01.JPG,AFNE01.JPG,AFNE01.JPG,,,,,,,,,5,4,54,4,,,,,,,,,,,,,,,AMNE05.jpg,AMNE20.jpg,AMSA04.jpg,AMSA18.jpg,AMNE20.jpg,MN,1,num_6,16,num_6,1.0167445101,,,2018_Mar_28_1644,60.018480257,MAFE4ImagesEEG,001,103371,
AFNE01.JPG,AFNE01.JPG,AFNE01.JPG,AFNE01.JPG,AFNE01.JPG,AFNE01.JPG,,,,,,,,,5,5,55,0,,,,,,,,,,,,,,,AMNE07.jpg,AMSA10.jpg,AMSA01.jpg,AMNE05.jpg,AMNE07.jpg,MN,1,num_8,32,num_2,1.91673322004,,,2018_Mar_28_1644,60.018480257,MAFE4ImagesEEG,001,103371,
AFNE01.JPG,AFNE01.JPG,AFNE01.JPG,AFNE01.JPG,AFNE01.JPG,AFNE01.JPG,,,,,,,,,5,6,56,7,,,,,,,,,,,,,,,AMSA02.jpg,AMNE15.jpg,AMSA19.jpg,AMNE06.jpg,AMNE06.jpg,MN,1,num_4,32,num_8,1.2834776339,,,2018_Mar_28_1644,60.018480257,MAFE4ImagesEEG,001,103371,
AFNE01.JPG,AFNE01.JPG,AFNE01.JPG,AFNE01.JPG,AFNE01.JPG,AFNE01.JPG,,,,,,,,,5,7,57,5,,,,,,,,,,,,,,,AMSA04.jpg,AMNE10.jpg,AMSA07.jpg,AMNE05.jpg,AMNE05.jpg,MN,1,num_4,32,num_6,0.916757916973,,,2018_Mar_28_1644,60.018480257,MAFE4ImagesEEG,001,103371,
AFNE01.JPG,AFNE01.JPG,AFNE01.JPG,AFNE01.JPG,AFNE01.JPG,AFNE01.JPG,,,,,,,,,5,8,58,9,,,,,,,,,,,,,,,AMSA11.jpg,AMSA14.jpg,AMNE11.jpg,AMNE10.jpg,AMNE11.jpg,MN,1,num_2,16,num_2,0.883430228627,,,2018_Mar_28_1644,60.018480257,MAFE4ImagesEEG,001,103371,
AFNE01.JPG,AFNE01.JPG,AFNE01.JPG,AFNE01.JPG,AFNE01.JPG,AFNE01.JPG,,,,,,,,,5,9,59,8,,,,,,,,,,,,,,,AMSA19.jpg,AMSA12.jpg,AMNE15.jpg,AMNE13.jpg,AMNE15.jpg,MN,1,num_2,16,num_2,0.550174514181,,,2018_Mar_28_1644,60.018480257,MAFE4ImagesEEG,001,103371,
,,,,,,,,,,,,,,,,,,,,,,,,,,,,,,,,,,,,,,,,,,,space,21.1316653613,2018_Mar_28_1644,60.018480257,MAFE4ImagesEEG,001,103371,
AFNE01.JPG,AFNE01.JPG,AFNE01.JPG,AFNE01.JPG,AFNE01.JPG,AFNE01.JPG,,,,,,,,,,,,,0,0,0,3,,,,,,,,,,,AFNE20.jpg,AFNE03.jpg,AFSA15.jpg,AFSA06.jpg,AFNE20.jpg,FN,3,num_8,16,num_8,1.00006607227,,,2018_Mar_28_1644,60.018480257,MAFE4ImagesEEG,001,103371,
AFNE01.JPG,AFNE01.JPG,AFNE01.JPG,AFNE01.JPG,AFNE01.JPG,AFNE01.JPG,,,,,,,,,,,,,0,1,1,9,,,,,,,,,,,AFSA07.jpg,AFNE06.jpg,AFSA01.jpg,AFNE17.jpg,AFSA07.jpg,FS,4,num_8,16,num_8,0.88345877442,,,2018_Mar_28_1644,60.018480257,MAFE4ImagesEEG,001,103371,
AFNE01.JPG,AFNE01.JPG,AFNE01.JPG,AFNE01.JPG,AFNE01.JPG,AFNE01.JPG,,,,,,,,,,,,,0,2,2,7,,,,,,,,,,,AFNE15.jpg,AFNE03.jpg,AFSA10.jpg,AFSA06.jpg,AFNE03.jpg,FN,3,num_6,32,num_4,0.800180768594,,,2018_Mar_28_1644,60.018480257,MAFE4ImagesEEG,001,103371,
AFNE01.JPG,AFNE01.JPG,AFNE01.JPG,AFNE01.JPG,AFNE01.JPG,AFNE01.JPG,,,,,,,,,,,,,0,3,3,0,,,,,,,,,,,AFNE06.jpg,AFSA02.jpg,AFNE08.jpg,AFSA06.jpg,AFNE06.jpg,FN,3,num_8,32,num_4,0.666789509763,,,2018_Mar_28_1644,60.018480257,MAFE4ImagesEEG,001,103371,
AFNE01.JPG,AFNE01.JPG,AFNE01.JPG,AFNE01.JPG,AFNE01.JPG,AFNE01.JPG,,,,,,,,,,,,,0,4,4,8,,,,,,,,,,,AFNE14.jpg,AFSA03.jpg,AFNE16.jpg,AFSA08.jpg,AFNE14.jpg,FN,3,num_8,16,num_8,0.833474779327,,,2018_Mar_28_1644,60.018480257,MAFE4ImagesEEG,001,103371,
AFNE01.JPG,AFNE01.JPG,AFNE01.JPG,AFNE01.JPG,AFNE01.JPG,AFNE01.JPG,,,,,,,,,,,,,0,5,5,4,,,,,,,,,,,AFSA14.jpg,AFNE13.jpg,AFSA12.jpg,AFNE18.jpg,AFNE13.jpg,FN,3,num_6,32,num_2,1.21674495906,,,2018_Mar_28_1644,60.018480257,MAFE4ImagesEEG,001,103371,
AFNE01.JPG,AFNE01.JPG,AFNE01.JPG,AFNE01.JPG,AFNE01.JPG,AFNE01.JPG,,,,,,,,,,,,,0,6,6,6,,,,,,,,,,,AFSA04.jpg,AFNE14.jpg,AFSA06.jpg,AFNE11.jpg,AFSA06.jpg,FS,4,num_2,32,num_6,0.966777514142,,,2018_Mar_28_1644,60.018480257,MAFE4ImagesEEG,001,103371,
AFNE01.JPG,AFNE01.JPG,AFNE01.JPG,AFNE01.JPG,AFNE01.JPG,AFNE01.JPG,,,,,,,,,,,,,0,7,7,2,,,,,,,,,,,AFSA13.jpg,AFNE18.jpg,AFNE09.jpg,AFSA10.jpg,AFSA10.jpg,FS,4,num_4,32,num_6,2.04978032573,,,2018_Mar_28_1644,60.018480257,MAFE4ImagesEEG,001,103371,
AFNE01.JPG,AFNE01.JPG,AFNE01.JPG,AFNE01.JPG,AFNE01.JPG,AFNE01.JPG,,,,,,,,,,,,,0,8,8,1,,,,,,,,,,,AFSA02.jpg,AFNE12.jpg,AFNE01.jpg,AFSA09.jpg,AFNE12.jpg,FN,3,num_6,16,num_6,1.86674858344,,,2018_Mar_28_1644,60.018480257,MAFE4ImagesEEG,001,103371,
AFNE01.JPG,AFNE01.JPG,AFNE01.JPG,AFNE01.JPG,AFNE01.JPG,AFNE01.JPG,,,,,,,,,,,,,0,9,9,5,,,,,,,,,,,AFNE03.jpg,AFNE14.jpg,AFSA20.jpg,AFSA08.jpg,AFSA08.jpg,FS,4,num_4,16,num_4,0.716854651924,,,2018_Mar_28_1644,60.018480257,MAFE4ImagesEEG,001,103371,
AFNE01.JPG,AFNE01.JPG,AFNE01.JPG,AFNE01.JPG,AFNE01.JPG,AFNE01.JPG,,,,,,,,,,,,,1,0,10,8,,,,,,,,,,,AFSA20.jpg,AFNE02.jpg,AFSA10.jpg,AFNE08.jpg,AFSA10.jpg,FS,4,num_2,32,num_6,1.06677725754,,,2018_Mar_28_1644,60.018480257,MAFE4ImagesEEG,001,103371,
AFNE01.JPG,AFNE01.JPG,AFNE01.JPG,AFNE01.JPG,AFNE01.JPG,AFNE01.JPG,,,,,,,,,,,,,1,1,11,5,,,,,,,,,,,AFSA08.jpg,AFNE15.jpg,AFNE13.jpg,AFSA14.jpg,AFSA14.jpg,FS,4,num_4,16,num_4,0.799999550974,,,2018_Mar_28_1644,60.018480257,MAFE4ImagesEEG,001,103371,
AFNE01.JPG,AFNE01.JPG,AFNE01.JPG,AFNE01.JPG,AFNE01.JPG,AFNE01.JPG,,,,,,,,,,,,,1,2,12,0,,,,,,,,,,,AFNE04.jpg,AFSA19.jpg,AFSA05.jpg,AFNE10.jpg,AFNE04.jpg,FN,3,num_8,32,num_4,1.33355143602,,,2018_Mar_28_1644,60.018480257,MAFE4ImagesEEG,001,103371,
AFNE01.JPG,AFNE01.JPG,AFNE01.JPG,AFNE01.JPG,AFNE01.JPG,AFNE01.JPG,,,,,,,,,,,,,1,3,13,4,,,,,,,,,,,AFSA13.jpg,AFSA08.jpg,AFNE20.jpg,AFNE13.jpg,AFSA08.jpg,FS,4,num_6,32,num_4,1.43337284843,,,2018_Mar_28_1644,60.018480257,MAFE4ImagesEEG,001,103371,
AFNE01.JPG,AFNE01.JPG,AFNE01.JPG,AFNE01.JPG,AFNE01.JPG,AFNE01.JPG,,,,,,,,,,,,,1,4,14,3,,,,,,,,,,,AFNE05.jpg,AFSA01.jpg,AFNE03.jpg,AFSA06.jpg,AFSA01.jpg,FS,4,num_6,16,num_6,1.15013256151,,,2018_Mar_28_1644,60.018480257,MAFE4ImagesEEG,001,103371,
AFNE01.JPG,AFNE01.JPG,AFNE01.JPG,AFNE01.JPG,AFNE01.JPG,AFNE01.JPG,,,,,,,,,,,,,1,5,15,9,,,,,,,,,,,AFNE13.jpg,AFSA17.jpg,AFNE15.jpg,AFSA15.jpg,AFNE15.jpg,FN,3,num_2,16,num_2,1.13355419436,,,2018_Mar_28_1644,60.018480257,MAFE4ImagesEEG,001,103371,
AFNE01.JPG,AFNE01.JPG,AFNE01.JPG,AFNE01.JPG,AFNE01.JPG,AFNE01.JPG,,,,,,,,,,,,,1,6,16,6,,,,,,,,,,,AFNE17.jpg,AFSA01.jpg,AFSA03.jpg,AFNE15.jpg,AFSA03.jpg,FS,4,num_2,32,num_4,0.950125056203,,,2018_Mar_28_1644,60.018480257,MAFE4ImagesEEG,001,103371,
AFNE01.JPG,AFNE01.JPG,AFNE01.JPG,AFNE01.JPG,AFNE01.JPG,AFNE01.JPG,,,,,,,,,,,,,1,7,17,2,,,,,,,,,,,AFSA18.jpg,AFNE01.jpg,AFNE14.jpg,AFSA14.jpg,AFSA18.jpg,FS,4,num_8,16,num_8,0.61676702596,,,2018_Mar_28_1644,60.018480257,MAFE4ImagesEEG,001,103371,
AFNE01.JPG,AFNE01.JPG,AFNE01.JPG,AFNE01.JPG,AFNE01.JPG,AFNE01.JPG,,,,,,,,,,,,,1,8,18,7,,,,,,,,,,,AFNE11.jpg,AFSA02.jpg,AFSA07.jpg,AFNE03.jpg,AFSA02.jpg,FS,4,num_6,32,num_8,0.616814174573,,,2018_Mar_28_1644,60.018480257,MAFE4ImagesEEG,001,103371,
AFNE01.JPG,AFNE01.JPG,AFNE01.JPG,AFNE01.JPG,AFNE01.JPG,AFNE01.JPG,,,,,,,,,,,,,1,9,19,1,,,,,,,,,,,AFNE13.jpg,AFSA14.jpg,AFSA06.jpg,AFNE17.jpg,AFSA14.jpg,FS,4,num_6,16,num_6,1.65004050935,,,2018_Mar_28_1644,60.018480257,MAFE4ImagesEEG,001,103371,
AFNE01.JPG,AFNE01.JPG,AFNE01.JPG,AFNE01.JPG,AFNE01.JPG,AFNE01.JPG,,,,,,,,,,,,,2,0,20,6,,,,,,,,,,,AFSA11.jpg,AFSA15.jpg,AFNE19.jpg,AFNE10.jpg,AFSA15.jpg,FS,4,num_6,32,num_8,1.01680031867,,,2018_Mar_28_1644,60.018480257,MAFE4ImagesEEG,001,103371,
AFNE01.JPG,AFNE01.JPG,AFNE01.JPG,AFNE01.JPG,AFNE01.JPG,AFNE01.JPG,,,,,,,,,,,,,2,1,21,3,,,,,,,,,,,AFNE02.jpg,AFNE15.jpg,AFSA08.jpg,AFSA05.jpg,AFNE15.jpg,FN,3,num_6,32,num_8,1.28370086837,,,2018_Mar_28_1644,60.018480257,MAFE4ImagesEEG,001,103371,
AFNE01.JPG,AFNE01.JPG,AFNE01.JPG,AFNE01.JPG,AFNE01.JPG,AFNE01.JPG,,,,,,,,,,,,,2,2,22,8,,,,,,,,,,,AFNE10.jpg,AFSA05.jpg,AFNE12.jpg,AFSA10.jpg,AFSA10.jpg,FS,4,num_4,32,num_8,0.900188530504,,,2018_Mar_28_1644,60.018480257,MAFE4ImagesEEG,001,103371,
AFNE01.JPG,AFNE01.JPG,AFNE01.JPG,AFNE01.JPG,AFNE01.JPG,AFNE01.JPG,,,,,,,,,,,,,2,3,23,1,,,,,,,,,,,AFNE09.jpg,AFSA15.jpg,AFNE15.jpg,AFSA14.jpg,AFSA15.jpg,FS,4,num_6,16,num_6,3.48326607433,,,2018_Mar_28_1644,60.018480257,MAFE4ImagesEEG,001,103371,
AFNE01.JPG,AFNE01.JPG,AFNE01.JPG,AFNE01.JPG,AFNE01.JPG,AFNE01.JPG,,,,,,,,,,,,,2,4,24,7,,,,,,,,,,,AFSA10.jpg,AFSA17.jpg,AFNE15.jpg,AFNE20.jpg,AFNE15.jpg,FN,3,num_2,16,num_2,0.666767378745,,,2018_Mar_28_1644,60.018480257,MAFE4ImagesEEG,001,103371,
AFNE01.JPG,AFNE01.JPG,AFNE01.JPG,AFNE01.JPG,AFNE01.JPG,AFNE01.JPG,,,,,,,,,,,,,2,5,25,2,,,,,,,,,,,AFNE03.jpg,AFSA08.jpg,AFNE02.jpg,AFSA15.jpg,AFNE02.jpg,FN,3,num_2,32,num_6,0.900155815121,,,2018_Mar_28_1644,60.018480257,MAFE4ImagesEEG,001,103371,
AFNE01.JPG,AFNE01.JPG,AFNE01.JPG,AFNE01.JPG,AFNE01.JPG,AFNE01.JPG,,,,,,,,,,,,,2,6,26,9,,,,,,,,,,,AFNE02.jpg,AFSA16.jpg,AFSA03.jpg,AFNE13.jpg,AFSA03.jpg,FS,4,num_2,32,num_4,0.966808305122,,,2018_Mar_28_1644,60.018480257,MAFE4ImagesEEG,001,103371,
AFNE01.JPG,AFNE01.JPG,AFNE01.JPG,AFNE01.JPG,AFNE01.JPG,AFNE01.JPG,,,,,,,,,,,,,2,7,27,0,,,,,,,,,,,AFNE19.jpg,AFSA01.jpg,AFSA04.jpg,AFNE07.jpg,AFNE07.jpg,FN,3,num_4,32,num_6,0.733462206321,,,2018_Mar_28_1644,60.018480257,MAFE4ImagesEEG,001,103371,
AFNE01.JPG,AFNE01.JPG,AFNE01.JPG,AFNE01.JPG,AFNE01.JPG,AFNE01.JPG,,,,,,,,,,,,,2,8,28,4,,,,,,,,,,,AFNE08.jpg,AFSA13.jpg,AFSA16.jpg,AFNE07.jpg,AFSA16.jpg,FS,4,num_2,32,num_6,0.933469711628,,,2018_Mar_28_1644,60.018480257,MAFE4ImagesEEG,001,103371,
AFNE01.JPG,AFNE01.JPG,AFNE01.JPG,AFNE01.JPG,AFNE01.JPG,AFNE01.JPG,,,,,,,,,,,,,2,9,29,5,,,,,,,,,,,AFSA09.jpg,AFNE12.jpg,AFSA05.jpg,AFNE09.jpg,AFNE12.jpg,FN,3,num_6,16,num_6,3.16664485645,,,2018_Mar_28_1644,60.018480257,MAFE4ImagesEEG,001,103371,
AFNE01.JPG,AFNE01.JPG,AFNE01.JPG,AFNE01.JPG,AFNE01.JPG,AFNE01.JPG,,,,,,,,,,,,,3,0,30,9,,,,,,,,,,,AFSA18.jpg,AFSA19.jpg,AFNE15.jpg,AFNE13.jpg,AFNE15.jpg,FN,3,num_2,32,num_6,0.61683277745,,,2018_Mar_28_1644,60.018480257,MAFE4ImagesEEG,001,103371,
AFNE01.JPG,AFNE01.JPG,AFNE01.JPG,AFNE01.JPG,AFNE01.JPG,AFNE01.JPG,,,,,,,,,,,,,3,1,31,1,,,,,,,,,,,AFSA09.jpg,AFNE17.jpg,AFSA06.jpg,AFNE03.jpg,AFSA09.jpg,FS,4,num_8,32,num_6,0.683471796452,,,2018_Mar_28_1644,60.018480257,MAFE4ImagesEEG,001,103371,
AFNE01.JPG,AFNE01.JPG,AFNE01.JPG,AFNE01.JPG,AFNE01.JPG,AFNE01.JPG,,,,,,,,,,,,,3,2,32,2,,,,,,,,,,,AFNE17.jpg,AFNE10.jpg,AFSA09.jpg,AFSA01.jpg,AFNE17.jpg,FN,3,num_8,32,num_6,0.616886661679,,,2018_Mar_28_1644,60.018480257,MAFE4ImagesEEG,001,103371,
AFNE01.JPG,AFNE01.JPG,AFNE01.JPG,AFNE01.JPG,AFNE01.JPG,AFNE01.JPG,,,,,,,,,,,,,3,3,33,4,,,,,,,,,,,AFNE11.jpg,AFNE14.jpg,AFSA09.jpg,AFSA07.jpg,AFNE14.jpg,FN,3,num_6,16,num_6,1.13352500706,,,2018_Mar_28_1644,60.018480257,MAFE4ImagesEEG,001,103371,
AFNE01.JPG,AFNE01.JPG,AFNE01.JPG,AFNE01.JPG,AFNE01.JPG,AFNE01.JPG,,,,,,,,,,,,,3,4,34,8,,,,,,,,,,,AFSA10.jpg,AFNE11.jpg,AFNE03.jpg,AFSA15.jpg,AFNE03.jpg,FN,3,num_2,16,num_2,1.36672484875,,,2018_Mar_28_1644,60.018480257,MAFE4ImagesEEG,001,103371,
AFNE01.JPG,AFNE01.JPG,AFNE01.JPG,AFNE01.JPG,AFNE01.JPG,AFNE01.JPG,,,,,,,,,,,,,3,5,35,0,,,,,,,,,,,AFSA02.jpg,AFSA20.jpg,AFNE15.jpg,AFNE08.jpg,AFNE08.jpg,FN,3,num_4,32,num_8,1.35019395099,,,2018_Mar_28_1644,60.018480257,MAFE4ImagesEEG,001,103371,
AFNE01.JPG,AFNE01.JPG,AFNE01.JPG,AFNE01.JPG,AFNE01.JPG,AFNE01.JPG,,,,,,,,,,,,,3,6,36,5,,,,,,,,,,,AFSA05.jpg,AFNE14.jpg,AFNE01.jpg,AFSA19.jpg,AFNE14.jpg,FN,3,num_6,16,num_6,0.583481995913,,,2018_Mar_28_1644,60.018480257,MAFE4ImagesEEG,001,103371,
AFNE01.JPG,AFNE01.JPG,AFNE01.JPG,AFNE01.JPG,AFNE01.JPG,AFNE01.JPG,,,,,,,,,,,,,3,7,37,7,,,,,,,,,,,AFSA16.jpg,AFSA01.jpg,AFNE19.jpg,AFNE05.jpg,AFSA01.jpg,FS,4,num_6,48,None,,,,2018_Mar_28_1644,60.018480257,MAFE4ImagesEEG,001,103371,
AFNE01.JPG,AFNE01.JPG,AFNE01.JPG,AFNE01.JPG,AFNE01.JPG,AFNE01.JPG,,,,,,,,,,,,,3,8,38,6,,,,,,,,,,,AFNE09.jpg,AFSA18.jpg,AFSA02.jpg,AFNE04.jpg,AFNE09.jpg,FN,3,num_8,32,num_4,0.750205433462,,,2018_Mar_28_1644,60.018480257,MAFE4ImagesEEG,001,103371,
AFNE01.JPG,AFNE01.JPG,AFNE01.JPG,AFNE01.JPG,AFNE01.JPG,AFNE01.JPG,,,,,,,,,,,,,3,9,39,3,,,,,,,,,,,AFNE01.jpg,AFNE09.jpg,AFSA16.jpg,AFSA14.jpg,AFNE09.jpg,FN,3,num_6,16,num_6,0.383480905439,,,2018_Mar_28_1644,60.018480257,MAFE4ImagesEEG,001,103371,
AFNE01.JPG,AFNE01.JPG,AFNE01.JPG,AFNE01.JPG,AFNE01.JPG,AFNE01.JPG,,,,,,,,,,,,,4,0,40,1,,,,,,,,,,,AFNE09.jpg,AFSA07.jpg,AFSA10.jpg,AFNE07.jpg,AFNE07.jpg,FN,3,num_4,32,num_6,1.93336290546,,,2018_Mar_28_1644,60.018480257,MAFE4ImagesEEG,001,103371,
AFNE01.JPG,AFNE01.JPG,AFNE01.JPG,AFNE01.JPG,AFNE01.JPG,AFNE01.JPG,,,,,,,,,,,,,4,1,41,0,,,,,,,,,,,AFNE16.jpg,AFNE05.jpg,AFSA09.jpg,AFSA17.jpg,AFNE16.jpg,FN,3,num_8,16,num_8,0.566800030065,,,2018_Mar_28_1644,60.018480257,MAFE4ImagesEEG,001,103371,
AFNE01.JPG,AFNE01.JPG,AFNE01.JPG,AFNE01.JPG,AFNE01.JPG,AFNE01.JPG,,,,,,,,,,,,,4,2,42,9,,,,,,,,,,,AFNE10.jpg,AFSA20.jpg,AFNE15.jpg,AFSA04.jpg,AFSA04.jpg,FS,4,num_4,16,num_4,0.533449248469,,,2018_Mar_28_1644,60.018480257,MAFE4ImagesEEG,001,103371,
AFNE01.JPG,AFNE01.JPG,AFNE01.JPG,AFNE01.JPG,AFNE01.JPG,AFNE01.JPG,,,,,,,,,,,,,4,3,43,4,,,,,,,,,,,AFNE03.jpg,AFSA10.jpg,AFNE20.jpg,AFSA08.jpg,AFSA10.jpg,FS,4,num_6,32,num_4,2.70002322155,,,2018_Mar_28_1644,60.018480257,MAFE4ImagesEEG,001,103371,
AFNE01.JPG,AFNE01.JPG,AFNE01.JPG,AFNE01.JPG,AFNE01.JPG,AFNE01.JPG,,,,,,,,,,,,,4,4,44,8,,,,,,,,,,,AFSA14.jpg,AFNE14.jpg,AFNE06.jpg,AFSA20.jpg,AFSA14.jpg,FS,4,num_8,16,num_8,1.03345405956,,,2018_Mar_28_1644,60.018480257,MAFE4ImagesEEG,001,103371,
AFNE01.JPG,AFNE01.JPG,AFNE01.JPG,AFNE01.JPG,AFNE01.JPG,AFNE01.JPG,,,,,,,,,,,,,4,5,45,2,,,,,,,,,,,AFSA19.jpg,AFSA16.jpg,AFNE15.jpg,AFNE07.jpg,AFNE15.jpg,FN,3,num_2,32,num_6,0.816635651165,,,2018_Mar_28_1644,60.018480257,MAFE4ImagesEEG,001,103371,
AFNE01.JPG,AFNE01.JPG,AFNE01.JPG,AFNE01.JPG,AFNE01.JPG,AFNE01.JPG,,,,,,,,,,,,,4,6,46,7,,,,,,,,,,,AFNE13.jpg,AFSA01.jpg,AFNE17.jpg,AFSA14.jpg,AFNE13.jpg,FN,3,num_8,32,num_4,0.91678742494,,,2018_Mar_28_1644,60.018480257,MAFE4ImagesEEG,001,103371,
AFNE01.JPG,AFNE01.JPG,AFNE01.JPG,AFNE01.JPG,AFNE01.JPG,AFNE01.JPG,,,,,,,,,,,,,4,7,47,5,,,,,,,,,,,AFSA13.jpg,AFSA16.jpg,AFNE14.jpg,AFNE10.jpg,AFSA13.jpg,FS,4,num_8,32,num_6,0.966817927256,,,2018_Mar_28_1644,60.018480257,MAFE4ImagesEEG,001,103371,
AFNE01.JPG,AFNE01.JPG,AFNE01.JPG,AFNE01.JPG,AFNE01.JPG,AFNE01.JPG,,,,,,,,,,,,,4,8,48,3,,,,,,,,,,,AFNE05.jpg,AFSA13.jpg,AFNE08.jpg,AFSA16.jpg,AFNE05.jpg,FN,3,num_8,16,num_8,0.666817734833,,,2018_Mar_28_1644,60.018480257,MAFE4ImagesEEG,001,103371,
AFNE01.JPG,AFNE01.JPG,AFNE01.JPG,AFNE01.JPG,AFNE01.JPG,AFNE01.JPG,,,,,,,,,,,,,4,9,49,6,,,,,,,,,,,AFSA01.jpg,AFNE08.jpg,AFSA07.jpg,AFNE16.jpg,AFSA01.jpg,FS,4,num_8,16,num_8,0.733349947608,,,2018_Mar_28_1644,60.018480257,MAFE4ImagesEEG,001,103371,
AFNE01.JPG,AFNE01.JPG,AFNE01.JPG,AFNE01.JPG,AFNE01.JPG,AFNE01.JPG,,,,,,,,,,,,,5,0,50,5,,,,,,,,,,,AFNE11.jpg,AFSA10.jpg,AFNE08.jpg,AFSA07.jpg,AFSA07.jpg,FS,4,num_4,32,num_2,1.68346890982,,,2018_Mar_28_1644,60.018480257,MAFE4ImagesEEG,001,103371,
AFNE01.JPG,AFNE01.JPG,AFNE01.JPG,AFNE01.JPG,AFNE01.JPG,AFNE01.JPG,,,,,,,,,,,,,5,1,51,6,,,,,,,,,,,AFSA02.jpg,AFSA03.jpg,AFNE07.jpg,AFNE11.jpg,AFNE11.jpg,FN,3,num_4,16,num_4,0.833455855667,,,2018_Mar_28_1644,60.018480257,MAFE4ImagesEEG,001,103371,
AFNE01.JPG,AFNE01.JPG,AFNE01.JPG,AFNE01.JPG,AFNE01.JPG,AFNE01.JPG,,,,,,,,,,,,,5,2,52,0,,,,,,,,,,,AFSA03.jpg,AFSA04.jpg,AFNE13.jpg,AFNE01.jpg,AFNE13.jpg,FN,3,num_2,16,num_2,4.08348424116,,,2018_Mar_28_1644,60.018480257,MAFE4ImagesEEG,001,103371,
AFNE01.JPG,AFNE01.JPG,AFNE01.JPG,AFNE01.JPG,AFNE01.JPG,AFNE01.JPG,,,,,,,,,,,,,5,3,53,4,,,,,,,,,,,AFSA16.jpg,AFSA09.jpg,AFNE17.jpg,AFNE19.jpg,AFNE19.jpg,FN,3,num_4,32,num_6,0.916584397026,,,2018_Mar_28_1644,60.018480257,MAFE4ImagesEEG,001,103371,
AFNE01.JPG,AFNE01.JPG,AFNE01.JPG,AFNE01.JPG,AFNE01.JPG,AFNE01.JPG,,,,,,,,,,,,,5,4,54,8,,,,,,,,,,,AFNE07.jpg,AFSA11.jpg,AFNE03.jpg,AFSA17.jpg,AFNE07.jpg,FN,3,num_8,16,num_8,1.21677254268,,,2018_Mar_28_1644,60.018480257,MAFE4ImagesEEG,001,103371,
AFNE01.JPG,AFNE01.JPG,AFNE01.JPG,AFNE01.JPG,AFNE01.JPG,AFNE01.JPG,,,,,,,,,,,,,5,5,55,9,,,,,,,,,,,AFSA12.jpg,AFSA08.jpg,AFNE09.jpg,AFNE14.jpg,AFSA12.jpg,FS,4,num_8,16,num_8,0.616792043613,,,2018_Mar_28_1644,60.018480257,MAFE4ImagesEEG,001,103371,
AFNE01.JPG,AFNE01.JPG,AFNE01.JPG,AFNE01.JPG,AFNE01.JPG,AFNE01.JPG,,,,,,,,,,,,,5,6,56,1,,,,,,,,,,,AFNE16.jpg,AFSA06.jpg,AFNE14.jpg,AFSA18.jpg,AFSA06.jpg,FS,4,num_6,32,num_4,0.850095484057,,,2018_Mar_28_1644,60.018480257,MAFE4ImagesEEG,001,103371,
AFNE01.JPG,AFNE01.JPG,AFNE01.JPG,AFNE01.JPG,AFNE01.JPG,AFNE01.JPG,,,,,,,,,,,,,5,7,57,3,,,,,,,,,,,AFNE09.jpg,AFSA10.jpg,AFNE15.jpg,AFSA12.jpg,AFSA12.jpg,FS,4,num_4,32,num_6,2.25003640389,,,2018_Mar_28_1644,60.018480257,MAFE4ImagesEEG,001,103371,
AFNE01.JPG,AFNE01.JPG,AFNE01.JPG,AFNE01.JPG,AFNE01.JPG,AFNE01.JPG,,,,,,,,,,,,,5,8,58,7,,,,,,,,,,,AFSA04.jpg,AFNE03.jpg,AFNE15.jpg,AFSA03.jpg,AFNE03.jpg,FN,3,num_6,16,num_6,0.600181281799,,,2018_Mar_28_1644,60.018480257,MAFE4ImagesEEG,001,103371,
AFNE01.JPG,AFNE01.JPG,AFNE01.JPG,AFNE01.JPG,AFNE01.JPG,AFNE01.JPG,,,,,,,,,,,,,5,9,59,2,,,,,,,,,,,AFNE01.jpg,AFSA03.jpg,AFSA13.jpg,AFNE10.jpg,AFNE01.jpg,FN,3,num_8,32,num_4,2.86631141591,,,2018_Mar_28_1644,60.018480257,MAFE4ImagesEEG,001,103371,
,,,,,,,,,,,,,,,,,,,,,,,,,,,,,,,,,,,,,,,,,,,space,13.4991577389,2018_Mar_28_1644,60.018480257,MAFE4ImagesEEG,001,103371,
AFNE01.JPG,AFNE01.JPG,AFNE01.JPG,AFNE01.JPG,AFNE01.JPG,AFNE01.JPG,,,,,,,,,,,,,,,,,0,0,0,6,,,,,,,AMNE08.jpg,AMSA19.jpg,AMNE13.jpg,AMSA15.jpg,AMNE13.jpg,MN,1,num_2,32,num_6,1.03345085215,,,2018_Mar_28_1644,60.018480257,MAFE4ImagesEEG,001,103371,
AFNE01.JPG,AFNE01.JPG,AFNE01.JPG,AFNE01.JPG,AFNE01.JPG,AFNE01.JPG,,,,,,,,,,,,,,,,,0,1,1,7,,,,,,,AMSA08.jpg,AMNE02.jpg,AMNE15.jpg,AMSA04.jpg,AMNE02.jpg,MN,1,num_6,32,num_4,0.816767154203,,,2018_Mar_28_1644,60.018480257,MAFE4ImagesEEG,001,103371,
AFNE01.JPG,AFNE01.JPG,AFNE01.JPG,AFNE01.JPG,AFNE01.JPG,AFNE01.JPG,,,,,,,,,,,,,,,,,0,2,2,2,,,,,,,AMNE03.jpg,AMSA01.jpg,AMNE07.jpg,AMSA20.jpg,AMNE03.jpg,MN,1,num_8,16,num_8,0.883469679509,,,2018_Mar_28_1644,60.018480257,MAFE4ImagesEEG,001,103371,
AFNE01.JPG,AFNE01.JPG,AFNE01.JPG,AFNE01.JPG,AFNE01.JPG,AFNE01.JPG,,,,,,,,,,,,,,,,,0,3,3,0,,,,,,,AMNE08.jpg,AMSA02.jpg,AMSA11.jpg,AMNE05.jpg,AMSA02.jpg,MS,2,num_6,16,num_6,1.30005151068,,,2018_Mar_28_1644,60.018480257,MAFE4ImagesEEG,001,103371,
AFNE01.JPG,AFNE01.JPG,AFNE01.JPG,AFNE01.JPG,AFNE01.JPG,AFNE01.JPG,,,,,,,,,,,,,,,,,0,4,4,9,,,,,,,AMNE05.jpg,AMSA19.jpg,AMSA11.jpg,AMNE12.jpg,AMSA11.jpg,MS,2,num_2,32,num_6,1.35011376621,,,2018_Mar_28_1644,60.018480257,MAFE4ImagesEEG,001,103371,
AFNE01.JPG,AFNE01.JPG,AFNE01.JPG,AFNE01.JPG,AFNE01.JPG,AFNE01.JPG,,,,,,,,,,,,,,,,,0,5,5,8,,,,,,,AMNE09.jpg,AMSA07.jpg,AMSA11.jpg,AMNE18.jpg,AMNE09.jpg,MN,1,num_8,32,num_4,1.63345444447,,,2018_Mar_28_1644,60.018480257,MAFE4ImagesEEG,001,103371,
AFNE01.JPG,AFNE01.JPG,AFNE01.JPG,AFNE01.JPG,AFNE01.JPG,AFNE01.JPG,,,,,,,,,,,,,,,,,0,6,6,1,,,,,,,AMSA16.jpg,AMNE01.jpg,AMSA11.jpg,AMNE04.jpg,AMSA16.jpg,MS,2,num_8,16,num_8,4.54954426171,,,2018_Mar_28_1644,60.018480257,MAFE4ImagesEEG,001,103371,
AFNE01.JPG,AFNE01.JPG,AFNE01.JPG,AFNE01.JPG,AFNE01.JPG,AFNE01.JPG,,,,,,,,,,,,,,,,,0,7,7,4,,,,,,,AMNE02.jpg,AMSA15.jpg,AMNE05.jpg,AMSA03.jpg,AMNE05.jpg,MN,1,num_2,32,num_6,1.50006767595,,,2018_Mar_28_1644,60.018480257,MAFE4ImagesEEG,001,103371,
AFNE01.JPG,AFNE01.JPG,AFNE01.JPG,AFNE01.JPG,AFNE01.JPG,AFNE01.JPG,,,,,,,,,,,,,,,,,0,8,8,3,,,,,,,AMSA20.jpg,AMNE13.jpg,AMSA01.jpg,AMNE17.jpg,AMSA20.jpg,MS,2,num_8,16,num_8,0.800102508219,,,2018_Mar_28_1644,60.018480257,MAFE4ImagesEEG,001,103371,
AFNE01.JPG,AFNE01.JPG,AFNE01.JPG,AFNE01.JPG,AFNE01.JPG,AFNE01.JPG,,,,,,,,,,,,,,,,,0,9,9,5,,,,,,,AMNE20.jpg,AMNE17.jpg,AMSA19.jpg,AMSA16.jpg,AMSA16.jpg,MS,2,num_4,32,num_2,1.06682344398,,,2018_Mar_28_1644,60.018480257,MAFE4ImagesEEG,001,103371,
AFNE01.JPG,AFNE01.JPG,AFNE01.JPG,AFNE01.JPG,AFNE01.JPG,AFNE01.JPG,,,,,,,,,,,,,,,,,1,0,10,0,,,,,,,AMSA18.jpg,AMNE16.jpg,AMNE08.jpg,AMSA09.jpg,AMNE16.jpg,MN,1,num_6,16,num_6,0.666809074872,,,2018_Mar_28_1644,60.018480257,MAFE4ImagesEEG,001,103371,
AFNE01.JPG,AFNE01.JPG,AFNE01.JPG,AFNE01.JPG,AFNE01.JPG,AFNE01.JPG,,,,,,,,,,,,,,,,,1,1,11,9,,,,,,,AMSA13.jpg,AMSA06.jpg,AMNE01.jpg,AMNE12.jpg,AMNE01.jpg,MN,1,num_2,32,num_4,0.450162261957,,,2018_Mar_28_1644,60.018480257,MAFE4ImagesEEG,001,103371,
AFNE01.JPG,AFNE01.JPG,AFNE01.JPG,AFNE01.JPG,AFNE01.JPG,AFNE01.JPG,,,,,,,,,,,,,,,,,1,2,12,1,,,,,,,AMNE11.jpg,AMSA11.jpg,AMSA14.jpg,AMNE15.jpg,AMNE15.jpg,MN,1,num_4,32,num_8,0.616799420561,,,2018_Mar_28_1644,60.018480257,MAFE4ImagesEEG,001,103371,
AFNE01.JPG,AFNE01.JPG,AFNE01.JPG,AFNE01.JPG,AFNE01.JPG,AFNE01.JPG,,,,,,,,,,,,,,,,,1,3,13,8,,,,,,,AMSA11.jpg,AMNE16.jpg,AMNE14.jpg,AMSA17.jpg,AMNE14.jpg,MN,1,num_2,32,num_6,3.68325561821,,,2018_Mar_28_1644,60.018480257,MAFE4ImagesEEG,001,103371,
AFNE01.JPG,AFNE01.JPG,AFNE01.JPG,AFNE01.JPG,AFNE01.JPG,AFNE01.JPG,,,,,,,,,,,,,,,,,1,4,14,6,,,,,,,AMSA16.jpg,AMNE11.jpg,AMSA07.jpg,AMNE06.jpg,AMNE11.jpg,MN,1,num_6,16,num_6,4.33320343401,,,2018_Mar_28_1644,60.018480257,MAFE4ImagesEEG,001,103371,
AFNE01.JPG,AFNE01.JPG,AFNE01.JPG,AFNE01.JPG,AFNE01.JPG,AFNE01.JPG,,,,,,,,,,,,,,,,,1,5,15,7,,,,,,,AMNE09.jpg,AMSA09.jpg,AMSA16.jpg,AMNE10.jpg,AMSA16.jpg,MS,2,num_2,32,num_8,0.816823283618,,,2018_Mar_28_1644,60.018480257,MAFE4ImagesEEG,001,103371,
AFNE01.JPG,AFNE01.JPG,AFNE01.JPG,AFNE01.JPG,AFNE01.JPG,AFNE01.JPG,,,,,,,,,,,,,,,,,1,6,16,2,,,,,,,AMNE17.jpg,AMSA20.jpg,AMSA16.jpg,AMNE16.jpg,AMSA16.jpg,MS,2,num_2,32,num_6,1.43318553671,,,2018_Mar_28_1644,60.018480257,MAFE4ImagesEEG,001,103371,
AFNE01.JPG,AFNE01.JPG,AFNE01.JPG,AFNE01.JPG,AFNE01.JPG,AFNE01.JPG,,,,,,,,,,,,,,,,,1,7,17,5,,,,,,,AMSA12.jpg,AMNE17.jpg,AMNE18.jpg,AMSA04.jpg,AMNE18.jpg,MN,1,num_2,32,num_6,3.38326280279,,,2018_Mar_28_1644,60.018480257,MAFE4ImagesEEG,001,103371,
AFNE01.JPG,AFNE01.JPG,AFNE01.JPG,AFNE01.JPG,AFNE01.JPG,AFNE01.JPG,,,,,,,,,,,,,,,,,1,8,18,3,,,,,,,AMNE01.jpg,AMSA11.jpg,AMNE17.jpg,AMSA16.jpg,AMSA11.jpg,MS,2,num_6,32,num_4,0.900125665648,,,2018_Mar_28_1644,60.018480257,MAFE4ImagesEEG,001,103371,
AFNE01.JPG,AFNE01.JPG,AFNE01.JPG,AFNE01.JPG,AFNE01.JPG,AFNE01.JPG,,,,,,,,,,,,,,,,,1,9,19,4,,,,,,,AMSA08.jpg,AMNE10.jpg,AMNE07.jpg,AMSA19.jpg,AMSA08.jpg,MS,2,num_8,16,num_8,2.08340662223,,,2018_Mar_28_1644,60.018480257,MAFE4ImagesEEG,001,103371,
AFNE01.JPG,AFNE01.JPG,AFNE01.JPG,AFNE01.JPG,AFNE01.JPG,AFNE01.JPG,,,,,,,,,,,,,,,,,2,0,20,6,,,,,,,AMSA16.jpg,AMNE08.jpg,AMNE14.jpg,AMSA05.jpg,AMSA05.jpg,MS,2,num_4,32,num_8,3.24992061703,,,2018_Mar_28_1644,60.018480257,MAFE4ImagesEEG,001,103371,
AFNE01.JPG,AFNE01.JPG,AFNE01.JPG,AFNE01.JPG,AFNE01.JPG,AFNE01.JPG,,,,,,,,,,,,,,,,,2,1,21,5,,,,,,,AMNE04.jpg,AMSA06.jpg,AMSA02.jpg,AMNE10.jpg,AMSA02.jpg,MS,2,num_2,32,num_8,2.64997668227,,,2018_Mar_28_1644,60.018480257,MAFE4ImagesEEG,001,103371,
AFNE01.JPG,AFNE01.JPG,AFNE01.JPG,AFNE01.JPG,AFNE01.JPG,AFNE01.JPG,,,,,,,,,,,,,,,,,2,2,22,4,,,,,,,AMNE01.jpg,AMSA07.jpg,AMNE09.jpg,AMSA03.jpg,AMSA03.jpg,MS,2,num_4,32,num_2,3.33325346926,,,2018_Mar_28_1644,60.018480257,MAFE4ImagesEEG,001,103371,
AFNE01.JPG,AFNE01.JPG,AFNE01.JPG,AFNE01.JPG,AFNE01.JPG,AFNE01.JPG,,,,,,,,,,,,,,,,,2,3,23,7,,,,,,,AMNE12.jpg,AMSA11.jpg,AMSA19.jpg,AMNE14.jpg,AMSA19.jpg,MS,2,num_2,16,num_2,0.583482958202,,,2018_Mar_28_1644,60.018480257,MAFE4ImagesEEG,001,103371,
AFNE01.JPG,AFNE01.JPG,AFNE01.JPG,AFNE01.JPG,AFNE01.JPG,AFNE01.JPG,,,,,,,,,,,,,,,,,2,4,24,8,,,,,,,AMNE12.jpg,AMNE06.jpg,AMSA06.jpg,AMSA03.jpg,AMNE12.jpg,MN,1,num_8,32,num_6,0.966817606532,,,2018_Mar_28_1644,60.018480257,MAFE4ImagesEEG,001,103371,
AFNE01.JPG,AFNE01.JPG,AFNE01.JPG,AFNE01.JPG,AFNE01.JPG,AFNE01.JPG,,,,,,,,,,,,,,,,,2,5,25,3,,,,,,,AMNE02.jpg,AMNE06.jpg,AMSA04.jpg,AMSA06.jpg,AMSA04.jpg,MS,2,num_2,32,num_8,1.44977737492,,,2018_Mar_28_1644,60.018480257,MAFE4ImagesEEG,001,103371,
AFNE01.JPG,AFNE01.JPG,AFNE01.JPG,AFNE01.JPG,AFNE01.JPG,AFNE01.JPG,,,,,,,,,,,,,,,,,2,6,26,9,,,,,,,AMNE10.jpg,AMSA12.jpg,AMNE07.jpg,AMSA15.jpg,AMSA12.jpg,MS,2,num_6,16,num_6,1.20010148187,,,2018_Mar_28_1644,60.018480257,MAFE4ImagesEEG,001,103371,
AFNE01.JPG,AFNE01.JPG,AFNE01.JPG,AFNE01.JPG,AFNE01.JPG,AFNE01.JPG,,,,,,,,,,,,,,,,,2,7,27,0,,,,,,,AMSA18.jpg,AMSA03.jpg,AMNE09.jpg,AMNE14.jpg,AMSA03.jpg,MS,2,num_6,32,num_4,1.23339549254,,,2018_Mar_28_1644,60.018480257,MAFE4ImagesEEG,001,103371,
AFNE01.JPG,AFNE01.JPG,AFNE01.JPG,AFNE01.JPG,AFNE01.JPG,AFNE01.JPG,,,,,,,,,,,,,,,,,2,8,28,1,,,,,,,AMNE07.jpg,AMSA03.jpg,AMNE15.jpg,AMSA15.jpg,AMSA15.jpg,MS,2,num_4,32,num_2,1.28341508971,,,2018_Mar_28_1644,60.018480257,MAFE4ImagesEEG,001,103371,
AFNE01.JPG,AFNE01.JPG,AFNE01.JPG,AFNE01.JPG,AFNE01.JPG,AFNE01.JPG,,,,,,,,,,,,,,,,,2,9,29,2,,,,,,,AMNE14.jpg,AMSA07.jpg,AMSA05.jpg,AMNE11.jpg,AMNE14.jpg,MN,1,num_8,16,num_8,2.06669001648,,,2018_Mar_28_1644,60.018480257,MAFE4ImagesEEG,001,103371,
AFNE01.JPG,AFNE01.JPG,AFNE01.JPG,AFNE01.JPG,AFNE01.JPG,AFNE01.JPG,,,,,,,,,,,,,,,,,3,0,30,3,,,,,,,AMSA06.jpg,AMSA02.jpg,AMNE16.jpg,AMNE20.jpg,AMNE20.jpg,MN,1,num_4,16,num_4,2.61665348429,,,2018_Mar_28_1644,60.018480257,MAFE4ImagesEEG,001,103371,
AFNE01.JPG,AFNE01.JPG,AFNE01.JPG,AFNE01.JPG,AFNE01.JPG,AFNE01.JPG,,,,,,,,,,,,,,,,,3,1,31,9,,,,,,,AMNE12.jpg,AMSA11.jpg,AMSA12.jpg,AMNE18.jpg,AMNE18.jpg,MN,1,num_4,32,num_8,1.21676709008,,,2018_Mar_28_1644,60.018480257,MAFE4ImagesEEG,001,103371,
AFNE01.JPG,AFNE01.JPG,AFNE01.JPG,AFNE01.JPG,AFNE01.JPG,AFNE01.JPG,,,,,,,,,,,,,,,,,3,2,32,0,,,,,,,AMNE16.jpg,AMNE12.jpg,AMSA05.jpg,AMSA15.jpg,AMNE12.jpg,MN,1,num_6,16,num_6,1.36671811319,,,2018_Mar_28_1644,60.018480257,MAFE4ImagesEEG,001,103371,
AFNE01.JPG,AFNE01.JPG,AFNE01.JPG,AFNE01.JPG,AFNE01.JPG,AFNE01.JPG,,,,,,,,,,,,,,,,,3,3,33,8,,,,,,,AMNE19.jpg,AMSA16.jpg,AMSA13.jpg,AMNE16.jpg,AMNE16.jpg,MN,1,num_4,16,num_4,1.00017351989,,,2018_Mar_28_1644,60.018480257,MAFE4ImagesEEG,001,103371,
AFNE01.JPG,AFNE01.JPG,AFNE01.JPG,AFNE01.JPG,AFNE01.JPG,AFNE01.JPG,,,,,,,,,,,,,,,,,3,4,34,4,,,,,,,AMSA13.jpg,AMNE14.jpg,AMSA12.jpg,AMNE08.jpg,AMNE14.jpg,MN,1,num_6,48,None,,,,2018_Mar_28_1644,60.018480257,MAFE4ImagesEEG,001,103371,
AFNE01.JPG,AFNE01.JPG,AFNE01.JPG,AFNE01.JPG,AFNE01.JPG,AFNE01.JPG,,,,,,,,,,,,,,,,,3,5,35,2,,,,,,,AMNE12.jpg,AMSA07.jpg,AMNE09.jpg,AMSA06.jpg,AMSA06.jpg,MS,2,num_4,32,num_6,1.03339504357,,,2018_Mar_28_1644,60.018480257,MAFE4ImagesEEG,001,103371,
AFNE01.JPG,AFNE01.JPG,AFNE01.JPG,AFNE01.JPG,AFNE01.JPG,AFNE01.JPG,,,,,,,,,,,,,,,,,3,6,36,7,,,,,,,AMSA02.jpg,AMNE07.jpg,AMSA18.jpg,AMNE05.jpg,AMNE07.jpg,MN,1,num_6,16,num_6,0.866821711941,,,2018_Mar_28_1644,60.018480257,MAFE4ImagesEEG,001,103371,
AFNE01.JPG,AFNE01.JPG,AFNE01.JPG,AFNE01.JPG,AFNE01.JPG,AFNE01.JPG,,,,,,,,,,,,,,,,,3,7,37,1,,,,,,,AMSA10.jpg,AMSA11.jpg,AMNE08.jpg,AMNE06.jpg,AMSA11.jpg,MS,2,num_6,32,num_4,1.1501056194,,,2018_Mar_28_1644,60.018480257,MAFE4ImagesEEG,001,103371,
AFNE01.JPG,AFNE01.JPG,AFNE01.JPG,AFNE01.JPG,AFNE01.JPG,AFNE01.JPG,,,,,,,,,,,,,,,,,3,8,38,5,,,,,,,AMSA16.jpg,AMNE16.jpg,AMSA02.jpg,AMNE01.jpg,AMNE01.jpg,MN,1,num_4,32,num_6,1.10016396188,,,2018_Mar_28_1644,60.018480257,MAFE4ImagesEEG,001,103371,
AFNE01.JPG,AFNE01.JPG,AFNE01.JPG,AFNE01.JPG,AFNE01.JPG,AFNE01.JPG,,,,,,,,,,,,,,,,,3,9,39,6,,,,,,,AMSA04.jpg,AMSA13.jpg,AMNE19.jpg,AMNE09.jpg,AMNE09.jpg,MN,1,num_4,32,num_2,1.0167512456,,,2018_Mar_28_1644,60.018480257,MAFE4ImagesEEG,001,103371,
AFNE01.JPG,AFNE01.JPG,AFNE01.JPG,AFNE01.JPG,AFNE01.JPG,AFNE01.JPG,,,,,,,,,,,,,,,,,4,0,40,3,,,,,,,AMNE14.jpg,AMSA01.jpg,AMNE10.jpg,AMSA13.jpg,AMNE10.jpg,MN,1,num_2,16,num_2,0.950212617987,,,2018_Mar_28_1644,60.018480257,MAFE4ImagesEEG,001,103371,
AFNE01.JPG,AFNE01.JPG,AFNE01.JPG,AFNE01.JPG,AFNE01.JPG,AFNE01.JPG,,,,,,,,,,,,,,,,,4,1,41,2,,,,,,,AMSA07.jpg,AMSA06.jpg,AMNE11.jpg,AMNE01.jpg,AMNE11.jpg,MN,1,num_2,32,num_6,0.750193886866,,,2018_Mar_28_1644,60.018480257,MAFE4ImagesEEG,001,103371,
AFNE01.JPG,AFNE01.JPG,AFNE01.JPG,AFNE01.JPG,AFNE01.JPG,AFNE01.JPG,,,,,,,,,,,,,,,,,4,2,42,0,,,,,,,AMNE20.jpg,AMSA18.jpg,AMSA13.jpg,AMNE13.jpg,AMSA18.jpg,MS,2,num_6,32,num_8,1.03346785135,,,2018_Mar_28_1644,60.018480257,MAFE4ImagesEEG,001,103371,
AFNE01.JPG,AFNE01.JPG,AFNE01.JPG,AFNE01.JPG,AFNE01.JPG,AFNE01.JPG,,,,,,,,,,,,,,,,,4,3,43,1,,,,,,,AMSA18.jpg,AMSA07.jpg,AMNE11.jpg,AMNE03.jpg,AMSA18.jpg,MS,2,num_8,16,num_8,0.700149913493,,,2018_Mar_28_1644,60.018480257,MAFE4ImagesEEG,001,103371,
AFNE01.JPG,AFNE01.JPG,AFNE01.JPG,AFNE01.JPG,AFNE01.JPG,AFNE01.JPG,,,,,,,,,,,,,,,,,4,4,44,4,,,,,,,AMSA20.jpg,AMNE04.jpg,AMSA18.jpg,AMNE02.jpg,AMSA20.jpg,MS,2,num_8,32,num_2,1.96671144187,,,2018_Mar_28_1644,60.018480257,MAFE4ImagesEEG,001,103371,
AFNE01.JPG,AFNE01.JPG,AFNE01.JPG,AFNE01.JPG,AFNE01.JPG,AFNE01.JPG,,,,,,,,,,,,,,,,,4,5,45,8,,,,,,,AMNE15.jpg,AMNE19.jpg,AMSA09.jpg,AMSA11.jpg,AMSA09.jpg,MS,2,num_2,16,num_2,0.883202824567,,,2018_Mar_28_1644,60.018480257,MAFE4ImagesEEG,001,103371,
AFNE01.JPG,AFNE01.JPG,AFNE01.JPG,AFNE01.JPG,AFNE01.JPG,AFNE01.JPG,,,,,,,,,,,,,,,,,4,6,46,5,,,,,,,AMSA17.jpg,AMNE20.jpg,AMSA07.jpg,AMNE05.jpg,AMNE05.jpg,MN,1,num_4,16,num_4,0.950136923522,,,2018_Mar_28_1644,60.018480257,MAFE4ImagesEEG,001,103371,
AFNE01.JPG,AFNE01.JPG,AFNE01.JPG,AFNE01.JPG,AFNE01.JPG,AFNE01.JPG,,,,,,,,,,,,,,,,,4,7,47,9,,,,,,,AMNE12.jpg,AMNE03.jpg,AMSA10.jpg,AMSA01.jpg,AMNE03.jpg,MN,1,num_6,16,num_6,4.14996706013,,,2018_Mar_28_1644,60.018480257,MAFE4ImagesEEG,001,103371,
AFNE01.JPG,AFNE01.JPG,AFNE01.JPG,AFNE01.JPG,AFNE01.JPG,AFNE01.JPG,,,,,,,,,,,,,,,,,4,8,48,6,,,,,,,AMSA11.jpg,AMNE03.jpg,AMNE19.jpg,AMSA12.jpg,AMSA11.jpg,MS,2,num_8,16,num_8,1.36673158425,,,2018_Mar_28_1644,60.018480257,MAFE4ImagesEEG,001,103371,
AFNE01.JPG,AFNE01.JPG,AFNE01.JPG,AFNE01.JPG,AFNE01.JPG,AFNE01.JPG,,,,,,,,,,,,,,,,,4,9,49,7,,,,,,,AMSA18.jpg,AMNE04.jpg,AMNE08.jpg,AMSA09.jpg,AMSA09.jpg,MS,2,num_4,32,num_6,1.86671779247,,,2018_Mar_28_1644,60.018480257,MAFE4ImagesEEG,001,103371,
AFNE01.JPG,AFNE01.JPG,AFNE01.JPG,AFNE01.JPG,AFNE01.JPG,AFNE01.JPG,,,,,,,,,,,,,,,,,5,0,50,0,,,,,,,AMSA12.jpg,AMSA01.jpg,AMNE11.jpg,AMNE01.jpg,AMSA01.jpg,MS,2,num_6,32,num_8,0.883452680369,,,2018_Mar_28_1644,60.018480257,MAFE4ImagesEEG,001,103371,
AFNE01.JPG,AFNE01.JPG,AFNE01.JPG,AFNE01.JPG,AFNE01.JPG,AFNE01.JPG,,,,,,,,,,,,,,,,,5,1,51,3,,,,,,,AMSA20.jpg,AMNE02.jpg,AMNE17.jpg,AMSA05.jpg,AMNE02.jpg,MN,1,num_6,32,num_4,0.666692967294,,,2018_Mar_28_1644,60.018480257,MAFE4ImagesEEG,001,103371,
AFNE01.JPG,AFNE01.JPG,AFNE01.JPG,AFNE01.JPG,AFNE01.JPG,AFNE01.JPG,,,,,,,,,,,,,,,,,5,2,52,4,,,,,,,AMSA19.jpg,AMSA12.jpg,AMNE19.jpg,AMNE20.jpg,AMNE20.jpg,MN,1,num_4,32,num_8,1.36656544136,,,2018_Mar_28_1644,60.018480257,MAFE4ImagesEEG,001,103371,
AFNE01.JPG,AFNE01.JPG,AFNE01.JPG,AFNE01.JPG,AFNE01.JPG,AFNE01.JPG,,,,,,,,,,,,,,,,,5,3,53,1,,,,,,,AMNE16.jpg,AMNE13.jpg,AMSA04.jpg,AMSA02.jpg,AMNE16.jpg,MN,1,num_8,16,num_8,1.21678954188,,,2018_Mar_28_1644,60.018480257,MAFE4ImagesEEG,001,103371,
AFNE01.JPG,AFNE01.JPG,AFNE01.JPG,AFNE01.JPG,AFNE01.JPG,AFNE01.JPG,,,,,,,,,,,,,,,,,5,4,54,2,,,,,,,AMSA02.jpg,AMSA11.jpg,AMNE10.jpg,AMNE13.jpg,AMSA02.jpg,MS,2,num_8,32,num_6,1.10010719107,,,2018_Mar_28_1644,60.018480257,MAFE4ImagesEEG,001,103371,
AFNE01.JPG,AFNE01.JPG,AFNE01.JPG,AFNE01.JPG,AFNE01.JPG,AFNE01.JPG,,,,,,,,,,,,,,,,,5,5,55,7,,,,,,,AMSA13.jpg,AMNE08.jpg,AMSA10.jpg,AMNE05.jpg,AMSA13.jpg,MS,2,num_8,16,num_8,0.866501614277,,,2018_Mar_28_1644,60.018480257,MAFE4ImagesEEG,001,103371,
AFNE01.JPG,AFNE01.JPG,AFNE01.JPG,AFNE01.JPG,AFNE01.JPG,AFNE01.JPG,,,,,,,,,,,,,,,,,5,6,56,5,,,,,,,AMNE08.jpg,AMSA14.jpg,AMNE16.jpg,AMSA17.jpg,AMNE16.jpg,MN,1,num_2,32,num_4,0.850124671299,,,2018_Mar_28_1644,60.018480257,MAFE4ImagesEEG,001,103371,
AFNE01.JPG,AFNE01.JPG,AFNE01.JPG,AFNE01.JPG,AFNE01.JPG,AFNE01.JPG,,,,,,,,,,,,,,,,,5,7,57,8,,,,,,,AMSA10.jpg,AMSA17.jpg,AMNE01.jpg,AMNE02.jpg,AMNE01.jpg,MN,1,num_2,32,num_6,0.816772606864,,,2018_Mar_28_1644,60.018480257,MAFE4ImagesEEG,001,103371,
AFNE01.JPG,AFNE01.JPG,AFNE01.JPG,AFNE01.JPG,AFNE01.JPG,AFNE01.JPG,,,,,,,,,,,,,,,,,5,8,58,9,,,,,,,AMSA09.jpg,AMSA07.jpg,AMNE18.jpg,AMNE09.jpg,AMNE09.jpg,MN,1,num_4,32,num_8,0.850133010536,,,2018_Mar_28_1644,60.018480257,MAFE4ImagesEEG,001,103371,
AFNE01.JPG,AFNE01.JPG,AFNE01.JPG,AFNE01.JPG,AFNE01.JPG,AFNE01.JPG,,,,,,,,,,,,,,,,,5,9,59,6,,,,,,,AMSA17.jpg,AMNE19.jpg,AMNE12.jpg,AMSA06.jpg,AMSA17.jpg,MS,2,num_8,32,num_4,0.450173487829,,,2018_Mar_28_1644,60.018480257,MAFE4ImagesEEG,001,103371,
,,,,,,,,,,,,,,,,,,,,,,,,,,,,,,,,,,,,,,,,,,,space,36.0304997309,2018_Mar_28_1644,60.018480257,MAFE4ImagesEEG,001,103371,
AFNE01.JPG,AFNE01.JPG,AFNE01.JPG,AFNE01.JPG,AFNE01.JPG,AFNE01.JPG,,,,,,,,,,,,,,,,,,,,,0,0,0,7,,,AFSA13.jpg,AFNE19.jpg,AFNE08.jpg,AFSA06.jpg,AFSA06.jpg,FS,4,num_4,16,num_4,0.950136602856,,,2018_Mar_28_1644,60.018480257,MAFE4ImagesEEG,001,103371,
AFNE01.JPG,AFNE01.JPG,AFNE01.JPG,AFNE01.JPG,AFNE01.JPG,AFNE01.JPG,,,,,,,,,,,,,,,,,,,,,0,1,1,6,,,AFNE09.jpg,AFNE11.jpg,AFSA01.jpg,AFSA03.jpg,AFNE11.jpg,FN,3,num_6,32,num_8,0.650163993938,,,2018_Mar_28_1644,60.018480257,MAFE4ImagesEEG,001,103371,
AFNE01.JPG,AFNE01.JPG,AFNE01.JPG,AFNE01.JPG,AFNE01.JPG,AFNE01.JPG,,,,,,,,,,,,,,,,,,,,,0,2,2,0,,,AFSA06.jpg,AFNE13.jpg,AFSA12.jpg,AFNE15.jpg,AFNE13.jpg,FN,3,num_6,16,num_6,0.63351089455,,,2018_Mar_28_1644,60.018480257,MAFE4ImagesEEG,001,103371,
AFNE01.JPG,AFNE01.JPG,AFNE01.JPG,AFNE01.JPG,AFNE01.JPG,AFNE01.JPG,,,,,,,,,,,,,,,,,,,,,0,3,3,3,,,AFSA05.jpg,AFNE09.jpg,AFSA04.jpg,AFNE06.jpg,AFNE09.jpg,FN,3,num_6,32,num_8,2.59995099105,,,2018_Mar_28_1644,60.018480257,MAFE4ImagesEEG,001,103371,
AFNE01.JPG,AFNE01.JPG,AFNE01.JPG,AFNE01.JPG,AFNE01.JPG,AFNE01.JPG,,,,,,,,,,,,,,,,,,,,,0,4,4,8,,,AFSA02.jpg,AFNE03.jpg,AFNE01.jpg,AFSA15.jpg,AFNE01.jpg,FN,3,num_2,32,num_6,2.46661457868,,,2018_Mar_28_1644,60.018480257,MAFE4ImagesEEG,001,103371,
AFNE01.JPG,AFNE01.JPG,AFNE01.JPG,AFNE01.JPG,AFNE01.JPG,AFNE01.JPG,,,,,,,,,,,,,,,,,,,,,0,5,5,2,,,AFSA13.jpg,AFNE12.jpg,AFSA03.jpg,AFNE04.jpg,AFSA13.jpg,FS,4,num_8,16,num_8,0.833476383064,,,2018_Mar_28_1644,60.018480257,MAFE4ImagesEEG,001,103371,
AFNE01.JPG,AFNE01.JPG,AFNE01.JPG,AFNE01.JPG,AFNE01.JPG,AFNE01.JPG,,,,,,,,,,,,,,,,,,,,,0,6,6,1,,,AFNE16.jpg,AFNE05.jpg,AFSA18.jpg,AFSA01.jpg,AFNE05.jpg,FN,3,num_6,32,num_8,1.90011315676,,,2018_Mar_28_1644,60.018480257,MAFE4ImagesEEG,001,103371,
AFNE01.JPG,AFNE01.JPG,AFNE01.JPG,AFNE01.JPG,AFNE01.JPG,AFNE01.JPG,,,,,,,,,,,,,,,,,,,,,0,7,7,4,,,AFNE17.jpg,AFSA15.jpg,AFNE09.jpg,AFSA19.jpg,AFNE09.jpg,FN,3,num_2,32,num_8,0.850241420383,,,2018_Mar_28_1644,60.018480257,MAFE4ImagesEEG,001,103371,
AFNE01.JPG,AFNE01.JPG,AFNE01.JPG,AFNE01.JPG,AFNE01.JPG,AFNE01.JPG,,,,,,,,,,,,,,,,,,,,,0,8,8,5,,,AFSA03.jpg,AFNE01.jpg,AFSA18.jpg,AFNE20.jpg,AFNE01.jpg,FN,3,num_6,32,num_4,1.00012508826,,,2018_Mar_28_1644,60.018480257,MAFE4ImagesEEG,001,103371,
AFNE01.JPG,AFNE01.JPG,AFNE01.JPG,AFNE01.JPG,AFNE01.JPG,AFNE01.JPG,,,,,,,,,,,,,,,,,,,,,0,9,9,9,,,AFSA04.jpg,AFSA13.jpg,AFNE04.jpg,AFNE20.jpg,AFNE20.jpg,FN,3,num_4,16,num_4,0.633574080188,,,2018_Mar_28_1644,60.018480257,MAFE4ImagesEEG,001,103371,
AFNE01.JPG,AFNE01.JPG,AFNE01.JPG,AFNE01.JPG,AFNE01.JPG,AFNE01.JPG,,,,,,,,,,,,,,,,,,,,,1,0,10,4,,,AFSA02.jpg,AFNE06.jpg,AFSA01.jpg,AFNE08.jpg,AFNE08.jpg,FN,3,num_4,16,num_4,0.650117166049,,,2018_Mar_28_1644,60.018480257,MAFE4ImagesEEG,001,103371,
AFNE01.JPG,AFNE01.JPG,AFNE01.JPG,AFNE01.JPG,AFNE01.JPG,AFNE01.JPG,,,,,,,,,,,,,,,,,,,,,1,1,11,6,,,AFSA10.jpg,AFSA08.jpg,AFNE18.jpg,AFNE04.jpg,AFNE04.jpg,FN,3,num_4,16,num_4,0.683549415378,,,2018_Mar_28_1644,60.018480257,MAFE4ImagesEEG,001,103371,
AFNE01.JPG,AFNE01.JPG,AFNE01.JPG,AFNE01.JPG,AFNE01.JPG,AFNE01.JPG,,,,,,,,,,,,,,,,,,,,,1,2,12,7,,,AFSA01.jpg,AFSA19.jpg,AFNE17.jpg,AFNE09.jpg,AFNE17.jpg,FN,3,num_2,32,num_8,0.750158926297,,,2018_Mar_28_1644,60.018480257,MAFE4ImagesEEG,001,103371,
AFNE01.JPG,AFNE01.JPG,AFNE01.JPG,AFNE01.JPG,AFNE01.JPG,AFNE01.JPG,,,,,,,,,,,,,,,,,,,,,1,3,13,9,,,AFNE03.jpg,AFSA08.jpg,AFNE02.jpg,AFSA01.jpg,AFSA08.jpg,FS,4,num_6,32,num_8,1.15019959596,,,2018_Mar_28_1644,60.018480257,MAFE4ImagesEEG,001,103371,
AFNE01.JPG,AFNE01.JPG,AFNE01.JPG,AFNE01.JPG,AFNE01.JPG,AFNE01.JPG,,,,,,,,,,,,,,,,,,,,,1,4,14,2,,,AFSA14.jpg,AFNE16.jpg,AFSA06.jpg,AFNE01.jpg,AFSA14.jpg,FS,4,num_8,16,num_8,0.983403992141,,,2018_Mar_28_1644,60.018480257,MAFE4ImagesEEG,001,103371,
AFNE01.JPG,AFNE01.JPG,AFNE01.JPG,AFNE01.JPG,AFNE01.JPG,AFNE01.JPG,,,,,,,,,,,,,,,,,,,,,1,5,15,0,,,AFNE14.jpg,AFSA03.jpg,AFSA20.jpg,AFNE04.jpg,AFNE04.jpg,FN,3,num_4,32,num_6,1.48351528868,,,2018_Mar_28_1644,60.018480257,MAFE4ImagesEEG,001,103371,
AFNE01.JPG,AFNE01.JPG,AFNE01.JPG,AFNE01.JPG,AFNE01.JPG,AFNE01.JPG,,,,,,,,,,,,,,,,,,,,,1,6,16,1,,,AFNE12.jpg,AFNE01.jpg,AFSA18.jpg,AFSA03.jpg,AFNE01.jpg,FN,3,num_6,16,num_6,1.38348860317,,,2018_Mar_28_1644,60.018480257,MAFE4ImagesEEG,001,103371,
AFNE01.JPG,AFNE01.JPG,AFNE01.JPG,AFNE01.JPG,AFNE01.JPG,AFNE01.JPG,,,,,,,,,,,,,,,,,,,,,1,7,17,5,,,AFSA13.jpg,AFNE17.jpg,AFSA04.jpg,AFNE19.jpg,AFSA04.jpg,FS,4,num_2,32,num_6,1.13342044613,,,2018_Mar_28_1644,60.018480257,MAFE4ImagesEEG,001,103371,
AFNE01.JPG,AFNE01.JPG,AFNE01.JPG,AFNE01.JPG,AFNE01.JPG,AFNE01.JPG,,,,,,,,,,,,,,,,,,,,,1,8,18,8,,,AFNE12.jpg,AFSA02.jpg,AFSA01.jpg,AFNE10.jpg,AFSA01.jpg,FS,4,num_2,32,num_4,1.06676731462,,,2018_Mar_28_1644,60.018480257,MAFE4ImagesEEG,001,103371,
AFNE01.JPG,AFNE01.JPG,AFNE01.JPG,AFNE01.JPG,AFNE01.JPG,AFNE01.JPG,,,,,,,,,,,,,,,,,,,,,1,9,19,3,,,AFSA01.jpg,AFSA14.jpg,AFNE05.jpg,AFNE17.jpg,AFSA01.jpg,FS,4,num_8,16,num_8,0.533472020936,,,2018_Mar_28_1644,60.018480257,MAFE4ImagesEEG,001,103371,
AFNE01.JPG,AFNE01.JPG,AFNE01.JPG,AFNE01.JPG,AFNE01.JPG,AFNE01.JPG,,,,,,,,,,,,,,,,,,,,,2,0,20,1,,,AFSA05.jpg,AFNE03.jpg,AFSA13.jpg,AFNE13.jpg,AFSA13.jpg,FS,4,num_2,32,num_6,1.11653994262,,,2018_Mar_28_1644,60.018480257,MAFE4ImagesEEG,001,103371,
AFNE01.JPG,AFNE01.JPG,AFNE01.JPG,AFNE01.JPG,AFNE01.JPG,AFNE01.JPG,,,,,,,,,,,,,,,,,,,,,2,1,21,9,,,AFNE04.jpg,AFNE09.jpg,AFSA18.jpg,AFSA12.jpg,AFNE09.jpg,FN,3,num_6,32,num_4,2.4333542455,,,2018_Mar_28_1644,60.018480257,MAFE4ImagesEEG,001,103371,
AFNE01.JPG,AFNE01.JPG,AFNE01.JPG,AFNE01.JPG,AFNE01.JPG,AFNE01.JPG,,,,,,,,,,,,,,,,,,,,,2,2,22,8,,,AFSA05.jpg,AFNE07.jpg,AFSA07.jpg,AFNE18.jpg,AFSA07.jpg,FS,4,num_2,32,num_6,1.08350637212,,,2018_Mar_28_1644,60.018480257,MAFE4ImagesEEG,001,103371,
AFNE01.JPG,AFNE01.JPG,AFNE01.JPG,AFNE01.JPG,AFNE01.JPG,AFNE01.JPG,,,,,,,,,,,,,,,,,,,,,2,3,23,5,,,AFSA09.jpg,AFNE16.jpg,AFNE10.jpg,AFSA13.jpg,AFNE16.jpg,FN,3,num_6,32,num_8,1.45010709477,,,2018_Mar_28_1644,60.018480257,MAFE4ImagesEEG,001,103371,
AFNE01.JPG,AFNE01.JPG,AFNE01.JPG,AFNE01.JPG,AFNE01.JPG,AFNE01.JPG,,,,,,,,,,,,,,,,,,,,,2,4,24,7,,,AFNE07.jpg,AFNE17.jpg,AFSA01.jpg,AFSA12.jpg,AFNE17.jpg,FN,3,num_6,16,num_6,1.5667378066,,,2018_Mar_28_1644,60.018480257,MAFE4ImagesEEG,001,103371,
AFNE01.JPG,AFNE01.JPG,AFNE01.JPG,AFNE01.JPG,AFNE01.JPG,AFNE01.JPG,,,,,,,,,,,,,,,,,,,,,2,5,25,2,,,AFSA16.jpg,AFSA20.jpg,AFNE08.jpg,AFNE02.jpg,AFNE02.jpg,FN,3,num_4,32,num_6,1.00014914374,,,2018_Mar_28_1644,60.018480257,MAFE4ImagesEEG,001,103371,
AFNE01.JPG,AFNE01.JPG,AFNE01.JPG,AFNE01.JPG,AFNE01.JPG,AFNE01.JPG,,,,,,,,,,,,,,,,,,,,,2,6,26,0,,,AFNE17.jpg,AFNE10.jpg,AFSA19.jpg,AFSA09.jpg,AFSA09.jpg,FS,4,num_4,32,num_6,0.716894744313,,,2018_Mar_28_1644,60.018480257,MAFE4ImagesEEG,001,103371,
AFNE01.JPG,AFNE01.JPG,AFNE01.JPG,AFNE01.JPG,AFNE01.JPG,AFNE01.JPG,,,,,,,,,,,,,,,,,,,,,2,7,27,3,,,AFNE17.jpg,AFNE10.jpg,AFSA05.jpg,AFSA13.jpg,AFSA13.jpg,FS,4,num_4,32,num_2,1.61672821653,,,2018_Mar_28_1644,60.018480257,MAFE4ImagesEEG,001,103371,
AFNE01.JPG,AFNE01.JPG,AFNE01.JPG,AFNE01.JPG,AFNE01.JPG,AFNE01.JPG,,,,,,,,,,,,,,,,,,,,,2,8,28,4,,,AFSA10.jpg,AFNE11.jpg,AFNE16.jpg,AFSA19.jpg,AFNE16.jpg,FN,3,num_2,16,num_2,0.516835920687,,,2018_Mar_28_1644,60.018480257,MAFE4ImagesEEG,001,103371,
AFNE01.JPG,AFNE01.JPG,AFNE01.JPG,AFNE01.JPG,AFNE01.JPG,AFNE01.JPG,,,,,,,,,,,,,,,,,,,,,2,9,29,6,,,AFSA03.jpg,AFNE07.jpg,AFSA07.jpg,AFNE03.jpg,AFSA03.jpg,FS,4,num_8,32,num_6,0.983445367543,,,2018_Mar_28_1644,60.018480257,MAFE4ImagesEEG,001,103371,
AFNE01.JPG,AFNE01.JPG,AFNE01.JPG,AFNE01.JPG,AFNE01.JPG,AFNE01.JPG,,,,,,,,,,,,,,,,,,,,,3,0,30,5,,,AFNE12.jpg,AFSA18.jpg,AFNE03.jpg,AFSA04.jpg,AFNE03.jpg,FN,3,num_2,32,num_4,1.35015097191,,,2018_Mar_28_1644,60.018480257,MAFE4ImagesEEG,001,103371,
AFNE01.JPG,AFNE01.JPG,AFNE01.JPG,AFNE01.JPG,AFNE01.JPG,AFNE01.JPG,,,,,,,,,,,,,,,,,,,,,3,1,31,8,,,AFNE12.jpg,AFSA13.jpg,AFSA02.jpg,AFNE17.jpg,AFSA13.jpg,FS,4,num_6,32,num_2,1.10010526661,,,2018_Mar_28_1644,60.018480257,MAFE4ImagesEEG,001,103371,
AFNE01.JPG,AFNE01.JPG,AFNE01.JPG,AFNE01.JPG,AFNE01.JPG,AFNE01.JPG,,,,,,,,,,,,,,,,,,,,,3,2,32,9,,,AFSA10.jpg,AFNE18.jpg,AFSA13.jpg,AFNE13.jpg,AFSA13.jpg,FS,4,num_2,16,num_2,1.16678277426,,,2018_Mar_28_1644,60.018480257,MAFE4ImagesEEG,001,103371,
AFNE01.JPG,AFNE01.JPG,AFNE01.JPG,AFNE01.JPG,AFNE01.JPG,AFNE01.JPG,,,,,,,,,,,,,,,,,,,,,3,3,33,0,,,AFNE18.jpg,AFSA09.jpg,AFSA08.jpg,AFNE05.jpg,AFSA09.jpg,FS,4,num_6,32,num_2,2.83332499414,,,2018_Mar_28_1644,60.018480257,MAFE4ImagesEEG,001,103371,
AFNE01.JPG,AFNE01.JPG,AFNE01.JPG,AFNE01.JPG,AFNE01.JPG,AFNE01.JPG,,,,,,,,,,,,,,,,,,,,,3,4,34,6,,,AFNE02.jpg,AFSA19.jpg,AFSA03.jpg,AFNE05.jpg,AFNE05.jpg,FN,3,num_4,32,num_8,1.20013580093,,,2018_Mar_28_1644,60.018480257,MAFE4ImagesEEG,001,103371,
AFNE01.JPG,AFNE01.JPG,AFNE01.JPG,AFNE01.JPG,AFNE01.JPG,AFNE01.JPG,,,,,,,,,,,,,,,,,,,,,3,5,35,2,,,AFNE03.jpg,AFNE10.jpg,AFSA15.jpg,AFSA12.jpg,AFSA12.jpg,FS,4,num_4,32,num_6,1.03347554908,,,2018_Mar_28_1644,60.018480257,MAFE4ImagesEEG,001,103371,
AFNE01.JPG,AFNE01.JPG,AFNE01.JPG,AFNE01.JPG,AFNE01.JPG,AFNE01.JPG,,,,,,,,,,,,,,,,,,,,,3,6,36,3,,,AFNE19.jpg,AFNE10.jpg,AFSA19.jpg,AFSA18.jpg,AFNE10.jpg,FN,3,num_6,32,num_8,0.85003422288,,,2018_Mar_28_1644,60.018480257,MAFE4ImagesEEG,001,103371,
AFNE01.JPG,AFNE01.JPG,AFNE01.JPG,AFNE01.JPG,AFNE01.JPG,AFNE01.JPG,,,,,,,,,,,,,,,,,,,,,3,7,37,4,,,AFNE03.jpg,AFSA01.jpg,AFNE02.jpg,AFSA04.jpg,AFNE03.jpg,FN,3,num_8,16,num_8,0.816781266767,,,2018_Mar_28_1644,60.018480257,MAFE4ImagesEEG,001,103371,
AFNE01.JPG,AFNE01.JPG,AFNE01.JPG,AFNE01.JPG,AFNE01.JPG,AFNE01.JPG,,,,,,,,,,,,,,,,,,,,,3,8,38,7,,,AFNE03.jpg,AFSA17.jpg,AFNE12.jpg,AFSA15.jpg,AFSA17.jpg,FS,4,num_6,16,num_6,4.68316003797,,,2018_Mar_28_1644,60.018480257,MAFE4ImagesEEG,001,103371,
AFNE01.JPG,AFNE01.JPG,AFNE01.JPG,AFNE01.JPG,AFNE01.JPG,AFNE01.JPG,,,,,,,,,,,,,,,,,,,,,3,9,39,1,,,AFSA15.jpg,AFSA14.jpg,AFNE01.jpg,AFNE20.jpg,AFNE20.jpg,FN,3,num_4,16,num_4,1.48345114081,,,2018_Mar_28_1644,60.018480257,MAFE4ImagesEEG,001,103371,
AFNE01.JPG,AFNE01.JPG,AFNE01.JPG,AFNE01.JPG,AFNE01.JPG,AFNE01.JPG,,,,,,,,,,,,,,,,,,,,,4,0,40,7,,,AFSA17.jpg,AFSA14.jpg,AFNE18.jpg,AFNE06.jpg,AFNE06.jpg,FN,3,num_4,32,num_2,1.26650924789,,,2018_Mar_28_1644,60.018480257,MAFE4ImagesEEG,001,103371,
