IPosition2,IPosition3,IPosition1,IPosition6,IPosition4,IPosition5,TrialsM1.thisRepN,TrialsM1.thisTrialN,TrialsM1.thisN,TrialsM1.thisIndex,TrialsF1.thisRepN,TrialsF1.thisTrialN,TrialsF1.thisN,TrialsF1.thisIndex,TrialsM2.thisRepN,TrialsM2.thisTrialN,TrialsM2.thisN,TrialsM2.thisIndex,TrialsF2.thisRepN,TrialsF2.thisTrialN,TrialsF2.thisN,TrialsF2.thisIndex,TrialsM3.thisRepN,TrialsM3.thisTrialN,TrialsM3.thisN,TrialsM3.thisIndex,TrialsF3.thisRepN,TrialsF3.thisTrialN,TrialsF3.thisN,TrialsF3.thisIndex,InstrKey_resp.keys,InstrKey_resp.rt,Image0 _Position,Image1 _Position,Image2 _Position,Image3 _Position,Center_image,condition,code,correct_answer,accuracy,Key_Resp.keys,Key_Resp.rt,BreakKey_resp.keys,BreakKey_resp.rt,date,frameRate,expName,session,participant,
,,,,,,,,,,,,,,,,,,,,,,,,,,,,,,space,17.315783785,,,,,,,,,,,,,,2018_Mar_06_1843,60.0099894269,MAFE4ImagesEEG,001,103329,
AFSA25.JPG,AFNE24.JPG,AFSA24.JPG,AFNE21.JPG,AFSA21.JPG,AFNE25.JPG,0,0,0,2,,,,,,,,,,,,,,,,,,,,,,,AMSA17.jpg,AMSA01.jpg,AMNE11.jpg,AMNE18.jpg,AMSA17.jpg,MS,2,num_8,16,num_8,1.20014811726,,,2018_Mar_06_1843,60.0099894269,MAFE4ImagesEEG,001,103329,
AMSA21.JPG,AMNE23.JPG,AMNE21.JPG,AMSA25.JPG,AMNE25.JPG,AMSA23.JPG,0,1,1,5,,,,,,,,,,,,,,,,,,,,,,,AMNE16.jpg,AMSA06.jpg,AMSA15.jpg,AMNE11.jpg,AMSA06.jpg,MS,2,num_6,16,num_6,1.1667322577,,,2018_Mar_06_1843,60.0099894269,MAFE4ImagesEEG,001,103329,
AMNE23.JPG,AMNE24.JPG,AMNE22.JPG,AMSA24.JPG,AMSA22.JPG,AMSA23.JPG,0,2,2,9,,,,,,,,,,,,,,,,,,,,,,,AMSA18.jpg,AMSA07.jpg,AMNE03.jpg,AMNE09.jpg,AMNE03.jpg,MN,1,num_2,32,num_4,0.916761204368,,,2018_Mar_06_1843,60.0099894269,MAFE4ImagesEEG,001,103329,
AMSA25.JPG,AMNE24.JPG,AMSA24.JPG,AMNE26.JPG,AMSA21.JPG,AMNE25.JPG,0,3,3,3,,,,,,,,,,,,,,,,,,,,,,,AMSA17.jpg,AMNE10.jpg,AMNE07.jpg,AMSA14.jpg,AMSA14.jpg,MS,2,num_4,16,num_4,0.933361045085,,,2018_Mar_06_1843,60.0099894269,MAFE4ImagesEEG,001,103329,
AFSA21.JPG,AFNE22.JPG,AFNE21.JPG,AFSA23.JPG,AFSA22.JPG,AFNE23.JPG,0,4,4,0,,,,,,,,,,,,,,,,,,,,,,,AMSA12.jpg,AMSA08.jpg,AMNE14.jpg,AMNE20.jpg,AMNE14.jpg,MN,1,num_2,32,num_6,0.933478435501,,,2018_Mar_06_1843,60.0099894269,MAFE4ImagesEEG,001,103329,
AFNE22.JPG,AFSA24.JPG,AFSA22.JPG,AFNE25.JPG,AFNE24.JPG,AFSA25.JPG,0,5,5,6,,,,,,,,,,,,,,,,,,,,,,,AMNE18.jpg,AMSA20.jpg,AMSA08.jpg,AMNE14.jpg,AMSA20.jpg,MS,2,num_6,16,num_6,1.00010456075,,,2018_Mar_06_1843,60.0099894269,MAFE4ImagesEEG,001,103329,
AMSA21.JPG,AMNE22.JPG,AMNE21.JPG,AMSA23.JPG,AMSA22.JPG,AMNE23.JPG,0,6,6,1,,,,,,,,,,,,,,,,,,,,,,,AMNE11.jpg,AMSA10.jpg,AMNE18.jpg,AMSA04.jpg,AMNE11.jpg,MN,1,num_8,32,num_2,1.63342208159,,,2018_Mar_06_1843,60.0099894269,MAFE4ImagesEEG,001,103329,
AFNE23.JPG,AFNE24.JPG,AFNE22.JPG,AFSA24.JPG,AFSA22.JPG,AFSA23.JPG,0,7,7,8,,,,,,,,,,,,,,,,,,,,,,,AMNE20.jpg,AMNE02.jpg,AMSA10.jpg,AMSA16.jpg,AMSA10.jpg,MS,2,num_2,16,num_2,1.63336434867,,,2018_Mar_06_1843,60.0099894269,MAFE4ImagesEEG,001,103329,
AMNE22.JPG,AMSA24.JPG,AMSA22.JPG,AMNE25.JPG,AMNE24.JPG,AMSA25.JPG,0,8,8,7,,,,,,,,,,,,,,,,,,,,,,,AMNE05.jpg,AMSA01.jpg,AMNE10.jpg,AMSA15.jpg,AMSA15.jpg,MS,2,num_4,32,num_2,1.53350839252,,,2018_Mar_06_1843,60.0099894269,MAFE4ImagesEEG,001,103329,
AFSA21.JPG,AFNE23.JPG,AFNE21.JPG,AFSA25.JPG,AFNE25.JPG,AFSA23.JPG,0,9,9,4,,,,,,,,,,,,,,,,,,,,,,,AMSA03.jpg,AMSA02.jpg,AMNE11.jpg,AMNE01.jpg,AMSA02.jpg,MS,2,num_6,16,num_6,1.43344171089,,,2018_Mar_06_1843,60.0099894269,MAFE4ImagesEEG,001,103329,
AMSA21.JPG,AMNE22.JPG,AMNE21.JPG,AMSA23.JPG,AMSA22.JPG,AMNE23.JPG,,,,,0,0,0,1,,,,,,,,,,,,,,,,,,,AFNE07.jpg,AFSA10.jpg,AFNE17.jpg,AFSA19.jpg,AFSA19.jpg,FS,4,num_4,32,num_2,1.50005532755,,,2018_Mar_06_1843,60.0099894269,MAFE4ImagesEEG,001,103329,
AMSA21.JPG,AMNE23.JPG,AMNE21.JPG,AMSA25.JPG,AMNE25.JPG,AMSA23.JPG,,,,,0,1,1,5,,,,,,,,,,,,,,,,,,,AFSA20.jpg,AFSA03.jpg,AFNE08.jpg,AFNE05.jpg,AFSA20.jpg,FS,4,num_8,16,num_8,1.48342373362,,,2018_Mar_06_1843,60.0099894269,MAFE4ImagesEEG,001,103329,
AMSA25.JPG,AMNE24.JPG,AMSA24.JPG,AMNE26.JPG,AMSA21.JPG,AMNE25.JPG,,,,,0,2,2,3,,,,,,,,,,,,,,,,,,,AFSA19.jpg,AFNE03.jpg,AFNE05.jpg,AFSA18.jpg,AFSA19.jpg,FS,4,num_8,32,num_6,1.00012572971,,,2018_Mar_06_1843,60.0099894269,MAFE4ImagesEEG,001,103329,
AFSA25.JPG,AFNE24.JPG,AFSA24.JPG,AFNE21.JPG,AFSA21.JPG,AFNE25.JPG,,,,,0,3,3,2,,,,,,,,,,,,,,,,,,,AFSA02.jpg,AFNE18.jpg,AFNE05.jpg,AFSA08.jpg,AFNE18.jpg,FN,3,num_6,16,num_6,0.20022413251,,,2018_Mar_06_1843,60.0099894269,MAFE4ImagesEEG,001,103329,
AFNE23.JPG,AFNE24.JPG,AFNE22.JPG,AFSA24.JPG,AFSA22.JPG,AFSA23.JPG,,,,,0,4,4,8,,,,,,,,,,,,,,,,,,,AFSA16.jpg,AFNE05.jpg,AFSA07.jpg,AFNE12.jpg,AFNE12.jpg,FN,3,num_4,32,num_8,1.16675470932,,,2018_Mar_06_1843,60.0099894269,MAFE4ImagesEEG,001,103329,
AFSA21.JPG,AFNE23.JPG,AFNE21.JPG,AFSA25.JPG,AFNE25.JPG,AFSA23.JPG,,,,,0,5,5,4,,,,,,,,,,,,,,,,,,,AFNE14.jpg,AFSA12.jpg,AFNE07.jpg,AFSA15.jpg,AFSA12.jpg,FS,4,num_6,16,num_6,0.650162726874,,,2018_Mar_06_1843,60.0099894269,MAFE4ImagesEEG,001,103329,
AMNE22.JPG,AMSA24.JPG,AMSA22.JPG,AMNE25.JPG,AMNE24.JPG,AMSA25.JPG,,,,,0,6,6,7,,,,,,,,,,,,,,,,,,,AFNE13.jpg,AFSA13.jpg,AFNE02.jpg,AFSA05.jpg,AFNE13.jpg,FN,3,num_8,16,num_8,1.46682132687,,,2018_Mar_06_1843,60.0099894269,MAFE4ImagesEEG,001,103329,
AFNE22.JPG,AFSA24.JPG,AFSA22.JPG,AFNE25.JPG,AFNE24.JPG,AFSA25.JPG,,,,,0,7,7,6,,,,,,,,,,,,,,,,,,,AFNE20.jpg,AFSA06.jpg,AFSA08.jpg,AFNE03.jpg,AFSA06.jpg,FS,4,num_6,16,num_6,0.916814126307,,,2018_Mar_06_1843,60.0099894269,MAFE4ImagesEEG,001,103329,
AMNE23.JPG,AMNE24.JPG,AMNE22.JPG,AMSA24.JPG,AMSA22.JPG,AMSA23.JPG,,,,,0,8,8,9,,,,,,,,,,,,,,,,,,,AFSA20.jpg,AFNE15.jpg,AFNE17.jpg,AFSA16.jpg,AFSA20.jpg,FS,4,num_8,16,num_8,1.2334530009,,,2018_Mar_06_1843,60.0099894269,MAFE4ImagesEEG,001,103329,
AFSA21.JPG,AFNE22.JPG,AFNE21.JPG,AFSA23.JPG,AFSA22.JPG,AFNE23.JPG,,,,,0,9,9,0,,,,,,,,,,,,,,,,,,,AFNE20.jpg,AFNE18.jpg,AFSA18.jpg,AFSA15.jpg,AFNE18.jpg,FN,3,num_6,16,num_6,1.01662197174,,,2018_Mar_06_1843,60.0099894269,MAFE4ImagesEEG,001,103329,
AFNE22.JPG,AFSA24.JPG,AFSA22.JPG,AFNE25.JPG,AFNE24.JPG,AFSA25.JPG,,,,,,,,,0,0,0,6,,,,,,,,,,,,,,,AMSA13.jpg,AMNE08.jpg,AMNE07.jpg,AMSA20.jpg,AMSA13.jpg,MS,2,num_8,16,num_8,1.23344241665,,,2018_Mar_06_1843,60.0099894269,MAFE4ImagesEEG,001,103329,
AFSA21.JPG,AFNE22.JPG,AFNE21.JPG,AFSA23.JPG,AFSA22.JPG,AFNE23.JPG,,,,,,,,,0,1,1,0,,,,,,,,,,,,,,,AMSA11.jpg,AMNE20.jpg,AMSA13.jpg,AMNE13.jpg,AMNE20.jpg,MN,1,num_6,16,num_6,0.683477874147,,,2018_Mar_06_1843,60.0099894269,MAFE4ImagesEEG,001,103329,
AMSA21.JPG,AMNE23.JPG,AMNE21.JPG,AMSA25.JPG,AMNE25.JPG,AMSA23.JPG,,,,,,,,,0,2,2,5,,,,,,,,,,,,,,,AMNE10.jpg,AMSA11.jpg,AMSA06.jpg,AMNE15.jpg,AMNE15.jpg,MN,1,num_4,16,num_4,0.916790391551,,,2018_Mar_06_1843,60.0099894269,MAFE4ImagesEEG,001,103329,
AMSA21.JPG,AMNE22.JPG,AMNE21.JPG,AMSA23.JPG,AMSA22.JPG,AMNE23.JPG,,,,,,,,,0,3,3,1,,,,,,,,,,,,,,,AMSA08.jpg,AMNE09.jpg,AMNE02.jpg,AMSA15.jpg,AMNE02.jpg,MN,1,num_2,16,num_2,1.35007782723,,,2018_Mar_06_1843,60.0099894269,MAFE4ImagesEEG,001,103329,
AFSA25.JPG,AFNE24.JPG,AFSA24.JPG,AFNE21.JPG,AFSA21.JPG,AFNE25.JPG,,,,,,,,,0,4,4,2,,,,,,,,,,,,,,,AMSA16.jpg,AMNE08.jpg,AMNE11.jpg,AMSA06.jpg,AMSA06.jpg,MS,2,num_4,16,num_4,2.58317673253,,,2018_Mar_06_1843,60.0099894269,MAFE4ImagesEEG,001,103329,
AMNE23.JPG,AMNE24.JPG,AMNE22.JPG,AMSA24.JPG,AMSA22.JPG,AMSA23.JPG,,,,,,,,,0,5,5,9,,,,,,,,,,,,,,,AMNE02.jpg,AMNE04.jpg,AMSA11.jpg,AMSA01.jpg,AMSA01.jpg,MS,2,num_4,16,num_4,0.583468925674,,,2018_Mar_06_1843,60.0099894269,MAFE4ImagesEEG,001,103329,
AMNE22.JPG,AMSA24.JPG,AMSA22.JPG,AMNE25.JPG,AMNE24.JPG,AMSA25.JPG,,,,,,,,,0,6,6,7,,,,,,,,,,,,,,,AMNE19.jpg,AMSA11.jpg,AMSA17.jpg,AMNE03.jpg,AMSA17.jpg,MS,2,num_2,32,num_8,0.933502811706,,,2018_Mar_06_1843,60.0099894269,MAFE4ImagesEEG,001,103329,
AFNE23.JPG,AFNE24.JPG,AFNE22.JPG,AFSA24.JPG,AFSA22.JPG,AFSA23.JPG,,,,,,,,,0,7,7,8,,,,,,,,,,,,,,,AMSA06.jpg,AMSA14.jpg,AMNE15.jpg,AMNE13.jpg,AMNE13.jpg,MN,1,num_4,32,num_2,1.51661026455,,,2018_Mar_06_1843,60.0099894269,MAFE4ImagesEEG,001,103329,
AFSA21.JPG,AFNE23.JPG,AFNE21.JPG,AFSA25.JPG,AFNE25.JPG,AFSA23.JPG,,,,,,,,,0,8,8,4,,,,,,,,,,,,,,,AMNE07.jpg,AMSA19.jpg,AMSA14.jpg,AMNE01.jpg,AMSA14.jpg,MS,2,num_2,32,num_4,1.4667398592,,,2018_Mar_06_1843,60.0099894269,MAFE4ImagesEEG,001,103329,
AMSA25.JPG,AMNE24.JPG,AMSA24.JPG,AMNE26.JPG,AMSA21.JPG,AMNE25.JPG,,,,,,,,,0,9,9,3,,,,,,,,,,,,,,,AMSA14.jpg,AMSA03.jpg,AMNE17.jpg,AMNE08.jpg,AMNE17.jpg,MN,1,num_2,16,num_2,0.933498000726,,,2018_Mar_06_1843,60.0099894269,MAFE4ImagesEEG,001,103329,
AFSA21.JPG,AFNE22.JPG,AFNE21.JPG,AFSA23.JPG,AFSA22.JPG,AFNE23.JPG,,,,,,,,,,,,,0,0,0,0,,,,,,,,,,,AFNE02.jpg,AFNE01.jpg,AFSA05.jpg,AFSA12.jpg,AFNE02.jpg,FN,3,num_8,16,num_8,0.967005912215,,,2018_Mar_06_1843,60.0099894269,MAFE4ImagesEEG,001,103329,
AFSA25.JPG,AFNE24.JPG,AFSA24.JPG,AFNE21.JPG,AFSA21.JPG,AFNE25.JPG,,,,,,,,,,,,,0,1,1,2,,,,,,,,,,,AFNE03.jpg,AFSA08.jpg,AFNE15.jpg,AFSA12.jpg,AFNE03.jpg,FN,3,num_8,32,num_2,1.1001141509,,,2018_Mar_06_1843,60.0099894269,MAFE4ImagesEEG,001,103329,
AFNE22.JPG,AFSA24.JPG,AFSA22.JPG,AFNE25.JPG,AFNE24.JPG,AFSA25.JPG,,,,,,,,,,,,,0,2,2,6,,,,,,,,,,,AFNE16.jpg,AFSA15.jpg,AFNE07.jpg,AFSA19.jpg,AFSA19.jpg,FS,4,num_4,16,num_4,1.0668390959,,,2018_Mar_06_1843,60.0099894269,MAFE4ImagesEEG,001,103329,
AMNE22.JPG,AMSA24.JPG,AMSA22.JPG,AMNE25.JPG,AMNE24.JPG,AMSA25.JPG,,,,,,,,,,,,,0,3,3,7,,,,,,,,,,,AFSA10.jpg,AFNE17.jpg,AFNE15.jpg,AFSA05.jpg,AFNE15.jpg,FN,3,num_2,32,num_8,0.783480408136,,,2018_Mar_06_1843,60.0099894269,MAFE4ImagesEEG,001,103329,
AFSA21.JPG,AFNE23.JPG,AFNE21.JPG,AFSA25.JPG,AFNE25.JPG,AFSA23.JPG,,,,,,,,,,,,,0,4,4,4,,,,,,,,,,,AFNE08.jpg,AFSA07.jpg,AFNE15.jpg,AFSA12.jpg,AFNE15.jpg,FN,3,num_2,16,num_2,0.666795924539,,,2018_Mar_06_1843,60.0099894269,MAFE4ImagesEEG,001,103329,
AMSA21.JPG,AMNE23.JPG,AMNE21.JPG,AMSA25.JPG,AMNE25.JPG,AMSA23.JPG,,,,,,,,,,,,,0,5,5,5,,,,,,,,,,,AFSA03.jpg,AFSA12.jpg,AFNE03.jpg,AFNE02.jpg,AFNE03.jpg,FN,3,num_2,32,num_8,0.433543705847,,,2018_Mar_06_1843,60.0099894269,MAFE4ImagesEEG,001,103329,
AMNE23.JPG,AMNE24.JPG,AMNE22.JPG,AMSA24.JPG,AMSA22.JPG,AMSA23.JPG,,,,,,,,,,,,,0,6,6,9,,,,,,,,,,,AFSA19.jpg,AFNE12.jpg,AFNE04.jpg,AFSA10.jpg,AFNE12.jpg,FN,3,num_6,16,num_6,0.85014181491,,,2018_Mar_06_1843,60.0099894269,MAFE4ImagesEEG,001,103329,
AFNE23.JPG,AFNE24.JPG,AFNE22.JPG,AFSA24.JPG,AFSA22.JPG,AFSA23.JPG,,,,,,,,,,,,,0,7,7,8,,,,,,,,,,,AFNE15.jpg,AFSA17.jpg,AFNE19.jpg,AFSA13.jpg,AFSA17.jpg,FS,4,num_6,16,num_6,0.733474009437,,,2018_Mar_06_1843,60.0099894269,MAFE4ImagesEEG,001,103329,
AMSA25.JPG,AMNE24.JPG,AMSA24.JPG,AMNE26.JPG,AMSA21.JPG,AMNE25.JPG,,,,,,,,,,,,,0,8,8,3,,,,,,,,,,,AFNE09.jpg,AFSA14.jpg,AFNE11.jpg,AFSA16.jpg,AFSA14.jpg,FS,4,num_6,32,num_4,1.09979758156,,,2018_Mar_06_1843,60.0099894269,MAFE4ImagesEEG,001,103329,
AMSA21.JPG,AMNE22.JPG,AMNE21.JPG,AMSA23.JPG,AMSA22.JPG,AMNE23.JPG,,,,,,,,,,,,,0,9,9,1,,,,,,,,,,,AFNE19.jpg,AFSA03.jpg,AFNE14.jpg,AFSA13.jpg,AFSA13.jpg,FS,4,num_4,32,num_6,0.35015704995,,,2018_Mar_06_1843,60.0099894269,MAFE4ImagesEEG,001,103329,
AMSA25.JPG,AMNE24.JPG,AMSA24.JPG,AMNE26.JPG,AMSA21.JPG,AMNE25.JPG,,,,,,,,,,,,,,,,,0,0,0,3,,,,,,,AMSA20.jpg,AMSA12.jpg,AMNE17.jpg,AMNE03.jpg,AMSA12.jpg,MS,2,num_6,32,num_2,0.800096927444,,,2018_Mar_06_1843,60.0099894269,MAFE4ImagesEEG,001,103329,
AFNE22.JPG,AFSA24.JPG,AFSA22.JPG,AFNE25.JPG,AFNE24.JPG,AFSA25.JPG,,,,,,,,,,,,,,,,,0,1,1,6,,,,,,,AMNE14.jpg,AMNE02.jpg,AMSA17.jpg,AMSA06.jpg,AMSA06.jpg,MS,2,num_4,32,num_8,0.916806107853,,,2018_Mar_06_1843,60.0099894269,MAFE4ImagesEEG,001,103329,
AMNE22.JPG,AMSA24.JPG,AMSA22.JPG,AMNE25.JPG,AMNE24.JPG,AMSA25.JPG,,,,,,,,,,,,,,,,,0,2,2,7,,,,,,,AMSA18.jpg,AMSA19.jpg,AMNE10.jpg,AMNE03.jpg,AMSA18.jpg,MS,2,num_8,16,num_8,0.583497471409,,,2018_Mar_06_1843,60.0099894269,MAFE4ImagesEEG,001,103329,
AFSA21.JPG,AFNE22.JPG,AFNE21.JPG,AFSA23.JPG,AFSA22.JPG,AFNE23.JPG,,,,,,,,,,,,,,,,,0,3,3,0,,,,,,,AMNE08.jpg,AMSA02.jpg,AMNE11.jpg,AMSA10.jpg,AMSA10.jpg,MS,2,num_4,32,num_6,4.13319772482,,,2018_Mar_06_1843,60.0099894269,MAFE4ImagesEEG,001,103329,
AMSA21.JPG,AMNE23.JPG,AMNE21.JPG,AMSA25.JPG,AMNE25.JPG,AMSA23.JPG,,,,,,,,,,,,,,,,,0,4,4,5,,,,,,,AMNE17.jpg,AMSA12.jpg,AMSA19.jpg,AMNE08.jpg,AMSA19.jpg,MS,2,num_2,16,num_2,0.633473399794,,,2018_Mar_06_1843,60.0099894269,MAFE4ImagesEEG,001,103329,
AMSA21.JPG,AMNE22.JPG,AMNE21.JPG,AMSA23.JPG,AMSA22.JPG,AMNE23.JPG,,,,,,,,,,,,,,,,,0,5,5,1,,,,,,,AMNE19.jpg,AMSA14.jpg,AMNE13.jpg,AMSA07.jpg,AMNE19.jpg,MN,1,num_8,16,num_8,0.966761509189,,,2018_Mar_06_1843,60.0099894269,MAFE4ImagesEEG,001,103329,
AFNE23.JPG,AFNE24.JPG,AFNE22.JPG,AFSA24.JPG,AFSA22.JPG,AFSA23.JPG,,,,,,,,,,,,,,,,,0,6,6,8,,,,,,,AMNE20.jpg,AMSA18.jpg,AMNE09.jpg,AMSA04.jpg,AMSA04.jpg,MS,2,num_4,16,num_4,2.06672555441,,,2018_Mar_06_1843,60.0099894269,MAFE4ImagesEEG,001,103329,
AMNE23.JPG,AMNE24.JPG,AMNE22.JPG,AMSA24.JPG,AMSA22.JPG,AMSA23.JPG,,,,,,,,,,,,,,,,,0,7,7,9,,,,,,,AMSA18.jpg,AMNE09.jpg,AMSA13.jpg,AMNE08.jpg,AMNE08.jpg,MN,1,num_4,16,num_4,1.43337050686,,,2018_Mar_06_1843,60.0099894269,MAFE4ImagesEEG,001,103329,
AFSA25.JPG,AFNE24.JPG,AFSA24.JPG,AFNE21.JPG,AFSA21.JPG,AFNE25.JPG,,,,,,,,,,,,,,,,,0,8,8,2,,,,,,,AMSA04.jpg,AMNE04.jpg,AMNE06.jpg,AMSA03.jpg,AMNE06.jpg,MN,1,num_2,16,num_2,1.30011472828,,,2018_Mar_06_1843,60.0099894269,MAFE4ImagesEEG,001,103329,
AFSA21.JPG,AFNE23.JPG,AFNE21.JPG,AFSA25.JPG,AFNE25.JPG,AFSA23.JPG,,,,,,,,,,,,,,,,,0,9,9,4,,,,,,,AMNE04.jpg,AMNE11.jpg,AMSA06.jpg,AMSA02.jpg,AMSA06.jpg,MS,2,num_2,16,num_2,0.716783720301,,,2018_Mar_06_1843,60.0099894269,MAFE4ImagesEEG,001,103329,
AFSA21.JPG,AFNE22.JPG,AFNE21.JPG,AFSA23.JPG,AFSA22.JPG,AFNE23.JPG,,,,,,,,,,,,,,,,,,,,,0,0,0,0,,,AFSA01.jpg,AFSA08.jpg,AFNE19.jpg,AFNE11.jpg,AFSA08.jpg,FS,4,num_6,16,num_6,0.866772766924,,,2018_Mar_06_1843,60.0099894269,MAFE4ImagesEEG,001,103329,
AMNE23.JPG,AMNE24.JPG,AMNE22.JPG,AMSA24.JPG,AMSA22.JPG,AMSA23.JPG,,,,,,,,,,,,,,,,,,,,,0,1,1,9,,,AFNE09.jpg,AFSA03.jpg,AFNE13.jpg,AFSA01.jpg,AFNE09.jpg,FN,3,num_8,16,num_8,1.2337265911,,,2018_Mar_06_1843,60.0099894269,MAFE4ImagesEEG,001,103329,
AFNE23.JPG,AFNE24.JPG,AFNE22.JPG,AFSA24.JPG,AFSA22.JPG,AFSA23.JPG,,,,,,,,,,,,,,,,,,,,,0,2,2,8,,,AFSA17.jpg,AFNE19.jpg,AFSA04.jpg,AFNE18.jpg,AFSA17.jpg,FS,4,num_8,32,num_4,0.916724319337,,,2018_Mar_06_1843,60.0099894269,MAFE4ImagesEEG,001,103329,
AFNE22.JPG,AFSA24.JPG,AFSA22.JPG,AFNE25.JPG,AFNE24.JPG,AFSA25.JPG,,,,,,,,,,,,,,,,,,,,,0,3,3,6,,,AFNE14.jpg,AFNE07.jpg,AFSA05.jpg,AFSA09.jpg,AFNE14.jpg,FN,3,num_8,32,num_6,0.700129674748,,,2018_Mar_06_1843,60.0099894269,MAFE4ImagesEEG,001,103329,
AFSA25.JPG,AFNE24.JPG,AFSA24.JPG,AFNE21.JPG,AFSA21.JPG,AFNE25.JPG,,,,,,,,,,,,,,,,,,,,,0,4,4,2,,,AFSA17.jpg,AFSA08.jpg,AFNE14.jpg,AFNE01.jpg,AFSA17.jpg,FS,4,num_8,16,num_8,0.950135688763,,,2018_Mar_06_1843,60.0099894269,MAFE4ImagesEEG,001,103329,
AMNE22.JPG,AMSA24.JPG,AMSA22.JPG,AMNE25.JPG,AMNE24.JPG,AMSA25.JPG,,,,,,,,,,,,,,,,,,,,,0,5,5,7,,,AFNE16.jpg,AFNE12.jpg,AFSA16.jpg,AFSA02.jpg,AFNE16.jpg,FN,3,num_8,16,num_8,0.950109708821,,,2018_Mar_06_1843,60.0099894269,MAFE4ImagesEEG,001,103329,
AMSA21.JPG,AMNE23.JPG,AMNE21.JPG,AMSA25.JPG,AMNE25.JPG,AMSA23.JPG,,,,,,,,,,,,,,,,,,,,,0,6,6,5,,,AFNE18.jpg,AFSA01.jpg,AFSA08.jpg,AFNE01.jpg,AFSA01.jpg,FS,4,num_6,32,num_4,1.00012412597,,,2018_Mar_06_1843,60.0099894269,MAFE4ImagesEEG,001,103329,
AMSA21.JPG,AMNE22.JPG,AMNE21.JPG,AMSA23.JPG,AMSA22.JPG,AMNE23.JPG,,,,,,,,,,,,,,,,,,,,,0,7,7,1,,,AFSA12.jpg,AFNE01.jpg,AFSA09.jpg,AFNE17.jpg,AFNE17.jpg,FN,3,num_4,32,num_6,1.20012662769,,,2018_Mar_06_1843,60.0099894269,MAFE4ImagesEEG,001,103329,
AFSA21.JPG,AFNE23.JPG,AFNE21.JPG,AFSA25.JPG,AFNE25.JPG,AFSA23.JPG,,,,,,,,,,,,,,,,,,,,,0,8,8,4,,,AFSA20.jpg,AFNE12.jpg,AFSA14.jpg,AFNE17.jpg,AFNE17.jpg,FN,3,num_4,32,num_8,1.28345106053,,,2018_Mar_06_1843,60.0099894269,MAFE4ImagesEEG,001,103329,
AMSA25.JPG,AMNE24.JPG,AMSA24.JPG,AMNE26.JPG,AMSA21.JPG,AMNE25.JPG,,,,,,,,,,,,,,,,,,,,,0,9,9,3,,,AFNE04.jpg,AFSA02.jpg,AFNE02.jpg,AFSA16.jpg,AFSA02.jpg,FS,4,num_6,16,num_6,1.55021985038,,,2018_Mar_06_1843,60.0099894269,MAFE4ImagesEEG,001,103329,
,,,,,,,,,,,,,,,,,,,,,,,,,,,,,,,,,,,,,,,,,,,space,25.6147393628,2018_Mar_06_1843,60.0099894269,MAFE4ImagesEEG,001,103329,
AFNE01.JPG,AFNE01.JPG,AFNE01.JPG,AFNE01.JPG,AFNE01.JPG,AFNE01.JPG,0,0,0,2,,,,,,,,,,,,,,,,,,,,,,,AMSA14.jpg,AMNE18.jpg,AMNE16.jpg,AMSA06.jpg,AMNE18.jpg,MN,1,num_6,16,num_6,1.03349379916,,,2018_Mar_06_1843,60.0099894269,MAFE4ImagesEEG,001,103329,
AFNE01.JPG,AFNE01.JPG,AFNE01.JPG,AFNE01.JPG,AFNE01.JPG,AFNE01.JPG,0,1,1,6,,,,,,,,,,,,,,,,,,,,,,,AMNE03.jpg,AMSA12.jpg,AMSA14.jpg,AMNE12.jpg,AMNE03.jpg,MN,1,num_8,16,num_8,1.30014327425,,,2018_Mar_06_1843,60.0099894269,MAFE4ImagesEEG,001,103329,
AFNE01.JPG,AFNE01.JPG,AFNE01.JPG,AFNE01.JPG,AFNE01.JPG,AFNE01.JPG,0,2,2,5,,,,,,,,,,,,,,,,,,,,,,,AMNE12.jpg,AMNE10.jpg,AMSA01.jpg,AMSA05.jpg,AMSA05.jpg,MS,2,num_4,16,num_4,1.18344852654,,,2018_Mar_06_1843,60.0099894269,MAFE4ImagesEEG,001,103329,
AFNE01.JPG,AFNE01.JPG,AFNE01.JPG,AFNE01.JPG,AFNE01.JPG,AFNE01.JPG,0,3,3,1,,,,,,,,,,,,,,,,,,,,,,,AMSA01.jpg,AMNE15.jpg,AMNE17.jpg,AMSA15.jpg,AMSA01.jpg,MS,2,num_8,16,num_8,1.26673318772,,,2018_Mar_06_1843,60.0099894269,MAFE4ImagesEEG,001,103329,
AFNE01.JPG,AFNE01.JPG,AFNE01.JPG,AFNE01.JPG,AFNE01.JPG,AFNE01.JPG,0,4,4,7,,,,,,,,,,,,,,,,,,,,,,,AMNE01.jpg,AMNE02.jpg,AMSA18.jpg,AMSA01.jpg,AMSA18.jpg,MS,2,num_2,32,num_6,1.3666940257,,,2018_Mar_06_1843,60.0099894269,MAFE4ImagesEEG,001,103329,
AFNE01.JPG,AFNE01.JPG,AFNE01.JPG,AFNE01.JPG,AFNE01.JPG,AFNE01.JPG,0,5,5,9,,,,,,,,,,,,,,,,,,,,,,,AMNE15.jpg,AMNE06.jpg,AMSA10.jpg,AMSA15.jpg,AMSA10.jpg,MS,2,num_2,32,num_4,0.883444132749,,,2018_Mar_06_1843,60.0099894269,MAFE4ImagesEEG,001,103329,
AFNE01.JPG,AFNE01.JPG,AFNE01.JPG,AFNE01.JPG,AFNE01.JPG,AFNE01.JPG,0,6,6,8,,,,,,,,,,,,,,,,,,,,,,,AMNE01.jpg,AMSA08.jpg,AMNE07.jpg,AMSA18.jpg,AMNE07.jpg,MN,1,num_2,16,num_2,0.633527925704,,,2018_Mar_06_1843,60.0099894269,MAFE4ImagesEEG,001,103329,
AFNE01.JPG,AFNE01.JPG,AFNE01.JPG,AFNE01.JPG,AFNE01.JPG,AFNE01.JPG,0,7,7,4,,,,,,,,,,,,,,,,,,,,,,,AMSA18.jpg,AMSA01.jpg,AMNE05.jpg,AMNE12.jpg,AMSA18.jpg,MS,2,num_8,32,num_6,1.11705557862,,,2018_Mar_06_1843,60.0099894269,MAFE4ImagesEEG,001,103329,
AFNE01.JPG,AFNE01.JPG,AFNE01.JPG,AFNE01.JPG,AFNE01.JPG,AFNE01.JPG,0,8,8,3,,,,,,,,,,,,,,,,,,,,,,,AMNE18.jpg,AMSA03.jpg,AMNE06.jpg,AMSA10.jpg,AMNE06.jpg,MN,1,num_2,16,num_2,0.733474009437,,,2018_Mar_06_1843,60.0099894269,MAFE4ImagesEEG,001,103329,
AFNE01.JPG,AFNE01.JPG,AFNE01.JPG,AFNE01.JPG,AFNE01.JPG,AFNE01.JPG,0,9,9,0,,,,,,,,,,,,,,,,,,,,,,,AMSA03.jpg,AMNE05.jpg,AMNE06.jpg,AMSA05.jpg,AMNE06.jpg,MN,1,num_2,32,num_8,1.00014144578,,,2018_Mar_06_1843,60.0099894269,MAFE4ImagesEEG,001,103329,
AFNE01.JPG,AFNE01.JPG,AFNE01.JPG,AFNE01.JPG,AFNE01.JPG,AFNE01.JPG,1,0,10,2,,,,,,,,,,,,,,,,,,,,,,,AMSA17.jpg,AMSA03.jpg,AMNE17.jpg,AMNE08.jpg,AMNE17.jpg,MN,1,num_2,32,num_8,1.5167205988,,,2018_Mar_06_1843,60.0099894269,MAFE4ImagesEEG,001,103329,
AFNE01.JPG,AFNE01.JPG,AFNE01.JPG,AFNE01.JPG,AFNE01.JPG,AFNE01.JPG,1,1,11,0,,,,,,,,,,,,,,,,,,,,,,,AMNE07.jpg,AMSA15.jpg,AMSA20.jpg,AMNE09.jpg,AMNE09.jpg,MN,1,num_4,32,num_2,0.583459624089,,,2018_Mar_06_1843,60.0099894269,MAFE4ImagesEEG,001,103329,
AFNE01.JPG,AFNE01.JPG,AFNE01.JPG,AFNE01.JPG,AFNE01.JPG,AFNE01.JPG,1,2,12,1,,,,,,,,,,,,,,,,,,,,,,,AMSA02.jpg,AMNE04.jpg,AMSA19.jpg,AMNE20.jpg,AMNE04.jpg,MN,1,num_6,16,num_6,0.483589234762,,,2018_Mar_06_1843,60.0099894269,MAFE4ImagesEEG,001,103329,
AFNE01.JPG,AFNE01.JPG,AFNE01.JPG,AFNE01.JPG,AFNE01.JPG,AFNE01.JPG,1,3,13,3,,,,,,,,,,,,,,,,,,,,,,,AMNE03.jpg,AMSA01.jpg,AMSA05.jpg,AMNE17.jpg,AMNE17.jpg,MN,1,num_4,16,num_4,0.700141221285,,,2018_Mar_06_1843,60.0099894269,MAFE4ImagesEEG,001,103329,
AFNE01.JPG,AFNE01.JPG,AFNE01.JPG,AFNE01.JPG,AFNE01.JPG,AFNE01.JPG,1,4,14,6,,,,,,,,,,,,,,,,,,,,,,,AMNE16.jpg,AMSA01.jpg,AMNE12.jpg,AMSA14.jpg,AMSA14.jpg,MS,2,num_4,32,num_8,0.70016591833,,,2018_Mar_06_1843,60.0099894269,MAFE4ImagesEEG,001,103329,
AFNE01.JPG,AFNE01.JPG,AFNE01.JPG,AFNE01.JPG,AFNE01.JPG,AFNE01.JPG,1,5,15,4,,,,,,,,,,,,,,,,,,,,,,,AMNE20.jpg,AMNE13.jpg,AMSA03.jpg,AMSA16.jpg,AMSA03.jpg,MS,2,num_2,16,num_2,0.833476543194,,,2018_Mar_06_1843,60.0099894269,MAFE4ImagesEEG,001,103329,
AFNE01.JPG,AFNE01.JPG,AFNE01.JPG,AFNE01.JPG,AFNE01.JPG,AFNE01.JPG,1,6,16,8,,,,,,,,,,,,,,,,,,,,,,,AMNE03.jpg,AMSA04.jpg,AMSA06.jpg,AMNE06.jpg,AMNE03.jpg,MN,1,num_8,16,num_8,0.950106501346,,,2018_Mar_06_1843,60.0099894269,MAFE4ImagesEEG,001,103329,
AFNE01.JPG,AFNE01.JPG,AFNE01.JPG,AFNE01.JPG,AFNE01.JPG,AFNE01.JPG,1,7,17,5,,,,,,,,,,,,,,,,,,,,,,,AMSA15.jpg,AMNE03.jpg,AMNE10.jpg,AMSA08.jpg,AMNE03.jpg,MN,1,num_6,16,num_6,0.583464756142,,,2018_Mar_06_1843,60.0099894269,MAFE4ImagesEEG,001,103329,
AFNE01.JPG,AFNE01.JPG,AFNE01.JPG,AFNE01.JPG,AFNE01.JPG,AFNE01.JPG,1,8,18,9,,,,,,,,,,,,,,,,,,,,,,,AMSA07.jpg,AMNE04.jpg,AMSA01.jpg,AMNE11.jpg,AMSA07.jpg,MS,2,num_8,16,num_8,0.783470144495,,,2018_Mar_06_1843,60.0099894269,MAFE4ImagesEEG,001,103329,
AFNE01.JPG,AFNE01.JPG,AFNE01.JPG,AFNE01.JPG,AFNE01.JPG,AFNE01.JPG,1,9,19,7,,,,,,,,,,,,,,,,,,,,,,,AMSA07.jpg,AMSA03.jpg,AMNE07.jpg,AMNE19.jpg,AMNE07.jpg,MN,1,num_2,16,num_2,0.70015950338,,,2018_Mar_06_1843,60.0099894269,MAFE4ImagesEEG,001,103329,
AFNE01.JPG,AFNE01.JPG,AFNE01.JPG,AFNE01.JPG,AFNE01.JPG,AFNE01.JPG,2,0,20,0,,,,,,,,,,,,,,,,,,,,,,,AMSA16.jpg,AMNE01.jpg,AMNE05.jpg,AMSA13.jpg,AMNE05.jpg,MN,1,num_2,16,num_2,1.00016646343,,,2018_Mar_06_1843,60.0099894269,MAFE4ImagesEEG,001,103329,
AFNE01.JPG,AFNE01.JPG,AFNE01.JPG,AFNE01.JPG,AFNE01.JPG,AFNE01.JPG,2,1,21,5,,,,,,,,,,,,,,,,,,,,,,,AMSA01.jpg,AMNE09.jpg,AMSA03.jpg,AMNE03.jpg,AMNE03.jpg,MN,1,num_4,16,num_4,1.10016097873,,,2018_Mar_06_1843,60.0099894269,MAFE4ImagesEEG,001,103329,
AFNE01.JPG,AFNE01.JPG,AFNE01.JPG,AFNE01.JPG,AFNE01.JPG,AFNE01.JPG,2,2,22,7,,,,,,,,,,,,,,,,,,,,,,,AMNE12.jpg,AMSA06.jpg,AMNE07.jpg,AMSA02.jpg,AMSA06.jpg,MS,2,num_6,16,num_6,0.883457603632,,,2018_Mar_06_1843,60.0099894269,MAFE4ImagesEEG,001,103329,
AFNE01.JPG,AFNE01.JPG,AFNE01.JPG,AFNE01.JPG,AFNE01.JPG,AFNE01.JPG,2,3,23,8,,,,,,,,,,,,,,,,,,,,,,,AMNE04.jpg,AMSA19.jpg,AMNE01.jpg,AMSA12.jpg,AMNE01.jpg,MN,1,num_2,32,num_8,1.25016830768,,,2018_Mar_06_1843,60.0099894269,MAFE4ImagesEEG,001,103329,
AFNE01.JPG,AFNE01.JPG,AFNE01.JPG,AFNE01.JPG,AFNE01.JPG,AFNE01.JPG,2,4,24,3,,,,,,,,,,,,,,,,,,,,,,,AMSA01.jpg,AMSA05.jpg,AMNE06.jpg,AMNE13.jpg,AMNE06.jpg,MN,1,num_2,32,num_8,1.05012282706,,,2018_Mar_06_1843,60.0099894269,MAFE4ImagesEEG,001,103329,
AFNE01.JPG,AFNE01.JPG,AFNE01.JPG,AFNE01.JPG,AFNE01.JPG,AFNE01.JPG,2,5,25,4,,,,,,,,,,,,,,,,,,,,,,,AMNE15.jpg,AMNE01.jpg,AMSA14.jpg,AMSA03.jpg,AMNE01.jpg,MN,1,num_6,16,num_6,1.6166868892,,,2018_Mar_06_1843,60.0099894269,MAFE4ImagesEEG,001,103329,
AFNE01.JPG,AFNE01.JPG,AFNE01.JPG,AFNE01.JPG,AFNE01.JPG,AFNE01.JPG,2,6,26,6,,,,,,,,,,,,,,,,,,,,,,,AMNE17.jpg,AMSA16.jpg,AMNE09.jpg,AMSA17.jpg,AMNE17.jpg,MN,1,num_8,16,num_8,0.666759360116,,,2018_Mar_06_1843,60.0099894269,MAFE4ImagesEEG,001,103329,
AFNE01.JPG,AFNE01.JPG,AFNE01.JPG,AFNE01.JPG,AFNE01.JPG,AFNE01.JPG,2,7,27,1,,,,,,,,,,,,,,,,,,,,,,,AMSA11.jpg,AMNE10.jpg,AMNE20.jpg,AMSA05.jpg,AMNE20.jpg,MN,1,num_2,16,num_2,0.550412293756,,,2018_Mar_06_1843,60.0099894269,MAFE4ImagesEEG,001,103329,
AFNE01.JPG,AFNE01.JPG,AFNE01.JPG,AFNE01.JPG,AFNE01.JPG,AFNE01.JPG,2,8,28,2,,,,,,,,,,,,,,,,,,,,,,,AMNE14.jpg,AMNE12.jpg,AMSA20.jpg,AMSA15.jpg,AMSA20.jpg,MS,2,num_2,32,num_6,1.55019515357,,,2018_Mar_06_1843,60.0099894269,MAFE4ImagesEEG,001,103329,
AFNE01.JPG,AFNE01.JPG,AFNE01.JPG,AFNE01.JPG,AFNE01.JPG,AFNE01.JPG,2,9,29,9,,,,,,,,,,,,,,,,,,,,,,,AMSA19.jpg,AMNE20.jpg,AMSA09.jpg,AMNE16.jpg,AMNE16.jpg,MN,1,num_4,32,num_6,0.800273654284,,,2018_Mar_06_1843,60.0099894269,MAFE4ImagesEEG,001,103329,
AFNE01.JPG,AFNE01.JPG,AFNE01.JPG,AFNE01.JPG,AFNE01.JPG,AFNE01.JPG,3,0,30,2,,,,,,,,,,,,,,,,,,,,,,,AMSA17.jpg,AMSA18.jpg,AMNE11.jpg,AMNE02.jpg,AMSA17.jpg,MS,2,num_8,16,num_8,0.950191497337,,,2018_Mar_06_1843,60.0099894269,MAFE4ImagesEEG,001,103329,
AFNE01.JPG,AFNE01.JPG,AFNE01.JPG,AFNE01.JPG,AFNE01.JPG,AFNE01.JPG,3,1,31,6,,,,,,,,,,,,,,,,,,,,,,,AMNE18.jpg,AMSA02.jpg,AMNE05.jpg,AMSA13.jpg,AMSA13.jpg,MS,2,num_4,16,num_4,0.966776583809,,,2018_Mar_06_1843,60.0099894269,MAFE4ImagesEEG,001,103329,
AFNE01.JPG,AFNE01.JPG,AFNE01.JPG,AFNE01.JPG,AFNE01.JPG,AFNE01.JPG,3,2,32,7,,,,,,,,,,,,,,,,,,,,,,,AMNE09.jpg,AMSA11.jpg,AMSA18.jpg,AMNE19.jpg,AMNE09.jpg,MN,1,num_8,16,num_8,0.683703033021,,,2018_Mar_06_1843,60.0099894269,MAFE4ImagesEEG,001,103329,
AFNE01.JPG,AFNE01.JPG,AFNE01.JPG,AFNE01.JPG,AFNE01.JPG,AFNE01.JPG,3,3,33,0,,,,,,,,,,,,,,,,,,,,,,,AMSA15.jpg,AMNE17.jpg,AMSA07.jpg,AMNE14.jpg,AMSA15.jpg,MS,2,num_8,16,num_8,0.750249294331,,,2018_Mar_06_1843,60.0099894269,MAFE4ImagesEEG,001,103329,
AFNE01.JPG,AFNE01.JPG,AFNE01.JPG,AFNE01.JPG,AFNE01.JPG,AFNE01.JPG,3,4,34,9,,,,,,,,,,,,,,,,,,,,,,,AMNE01.jpg,AMSA13.jpg,AMSA15.jpg,AMNE06.jpg,AMSA15.jpg,MS,2,num_2,16,num_2,1.11679385556,,,2018_Mar_06_1843,60.0099894269,MAFE4ImagesEEG,001,103329,
AFNE01.JPG,AFNE01.JPG,AFNE01.JPG,AFNE01.JPG,AFNE01.JPG,AFNE01.JPG,3,5,35,8,,,,,,,,,,,,,,,,,,,,,,,AMSA15.jpg,AMNE15.jpg,AMSA01.jpg,AMNE12.jpg,AMSA01.jpg,MS,2,num_2,16,num_2,0.933436098043,,,2018_Mar_06_1843,60.0099894269,MAFE4ImagesEEG,001,103329,
AFNE01.JPG,AFNE01.JPG,AFNE01.JPG,AFNE01.JPG,AFNE01.JPG,AFNE01.JPG,3,6,36,3,,,,,,,,,,,,,,,,,,,,,,,AMSA03.jpg,AMSA04.jpg,AMNE14.jpg,AMNE12.jpg,AMSA03.jpg,MS,2,num_8,32,num_6,0.850205000257,,,2018_Mar_06_1843,60.0099894269,MAFE4ImagesEEG,001,103329,
AFNE01.JPG,AFNE01.JPG,AFNE01.JPG,AFNE01.JPG,AFNE01.JPG,AFNE01.JPG,3,7,37,1,,,,,,,,,,,,,,,,,,,,,,,AMSA19.jpg,AMNE07.jpg,AMNE01.jpg,AMSA01.jpg,AMSA01.jpg,MS,2,num_4,16,num_4,0.68349840166,,,2018_Mar_06_1843,60.0099894269,MAFE4ImagesEEG,001,103329,
AFNE01.JPG,AFNE01.JPG,AFNE01.JPG,AFNE01.JPG,AFNE01.JPG,AFNE01.JPG,3,8,38,4,,,,,,,,,,,,,,,,,,,,,,,AMSA17.jpg,AMSA08.jpg,AMNE02.jpg,AMNE11.jpg,AMSA08.jpg,MS,2,num_6,16,num_6,0.81679619709,,,2018_Mar_06_1843,60.0099894269,MAFE4ImagesEEG,001,103329,
AFNE01.JPG,AFNE01.JPG,AFNE01.JPG,AFNE01.JPG,AFNE01.JPG,AFNE01.JPG,3,9,39,5,,,,,,,,,,,,,,,,,,,,,,,AMNE01.jpg,AMSA20.jpg,AMNE14.jpg,AMSA09.jpg,AMNE01.jpg,MN,1,num_8,32,num_6,1.08341905079,,,2018_Mar_06_1843,60.0099894269,MAFE4ImagesEEG,001,103329,
AFNE01.JPG,AFNE01.JPG,AFNE01.JPG,AFNE01.JPG,AFNE01.JPG,AFNE01.JPG,4,0,40,6,,,,,,,,,,,,,,,,,,,,,,,AMSA13.jpg,AMNE04.jpg,AMNE17.jpg,AMSA11.jpg,AMSA13.jpg,MS,2,num_8,16,num_8,0.800130604766,,,2018_Mar_06_1843,60.0099894269,MAFE4ImagesEEG,001,103329,
AFNE01.JPG,AFNE01.JPG,AFNE01.JPG,AFNE01.JPG,AFNE01.JPG,AFNE01.JPG,4,1,41,0,,,,,,,,,,,,,,,,,,,,,,,AMSA16.jpg,AMSA18.jpg,AMNE20.jpg,AMNE13.jpg,AMNE20.jpg,MN,1,num_2,16,num_2,0.750146657694,,,2018_Mar_06_1843,60.0099894269,MAFE4ImagesEEG,001,103329,
AFNE01.JPG,AFNE01.JPG,AFNE01.JPG,AFNE01.JPG,AFNE01.JPG,AFNE01.JPG,4,2,42,3,,,,,,,,,,,,,,,,,,,,,,,AMSA20.jpg,AMNE02.jpg,AMNE20.jpg,AMSA14.jpg,AMNE02.jpg,MN,1,num_6,16,num_6,1.06680830498,,,2018_Mar_06_1843,60.0099894269,MAFE4ImagesEEG,001,103329,
AFNE01.JPG,AFNE01.JPG,AFNE01.JPG,AFNE01.JPG,AFNE01.JPG,AFNE01.JPG,4,3,43,5,,,,,,,,,,,,,,,,,,,,,,,AMNE17.jpg,AMSA10.jpg,AMSA04.jpg,AMNE07.jpg,AMSA10.jpg,MS,2,num_6,16,num_6,0.883487432497,,,2018_Mar_06_1843,60.0099894269,MAFE4ImagesEEG,001,103329,
AFNE01.JPG,AFNE01.JPG,AFNE01.JPG,AFNE01.JPG,AFNE01.JPG,AFNE01.JPG,4,4,44,1,,,,,,,,,,,,,,,,,,,,,,,AMNE01.jpg,AMNE20.jpg,AMSA20.jpg,AMSA06.jpg,AMNE20.jpg,MN,1,num_6,32,num_4,1.60007133218,,,2018_Mar_06_1843,60.0099894269,MAFE4ImagesEEG,001,103329,
AFNE01.JPG,AFNE01.JPG,AFNE01.JPG,AFNE01.JPG,AFNE01.JPG,AFNE01.JPG,4,5,45,9,,,,,,,,,,,,,,,,,,,,,,,AMSA07.jpg,AMNE20.jpg,AMNE16.jpg,AMSA09.jpg,AMNE20.jpg,MN,1,num_6,16,num_6,0.716825736919,,,2018_Mar_06_1843,60.0099894269,MAFE4ImagesEEG,001,103329,
AFNE01.JPG,AFNE01.JPG,AFNE01.JPG,AFNE01.JPG,AFNE01.JPG,AFNE01.JPG,4,6,46,7,,,,,,,,,,,,,,,,,,,,,,,AMSA18.jpg,AMSA10.jpg,AMNE06.jpg,AMNE10.jpg,AMNE06.jpg,MN,1,num_2,16,num_2,2.13335039653,,,2018_Mar_06_1843,60.0099894269,MAFE4ImagesEEG,001,103329,
AFNE01.JPG,AFNE01.JPG,AFNE01.JPG,AFNE01.JPG,AFNE01.JPG,AFNE01.JPG,4,7,47,4,,,,,,,,,,,,,,,,,,,,,,,AMNE09.jpg,AMSA14.jpg,AMNE20.jpg,AMSA10.jpg,AMSA10.jpg,MS,2,num_4,16,num_4,0.900164571125,,,2018_Mar_06_1843,60.0099894269,MAFE4ImagesEEG,001,103329,
AFNE01.JPG,AFNE01.JPG,AFNE01.JPG,AFNE01.JPG,AFNE01.JPG,AFNE01.JPG,4,8,48,8,,,,,,,,,,,,,,,,,,,,,,,AMNE08.jpg,AMSA18.jpg,AMSA02.jpg,AMNE12.jpg,AMSA18.jpg,MS,2,num_6,32,num_4,1.06674704375,,,2018_Mar_06_1843,60.0099894269,MAFE4ImagesEEG,001,103329,
AFNE01.JPG,AFNE01.JPG,AFNE01.JPG,AFNE01.JPG,AFNE01.JPG,AFNE01.JPG,4,9,49,2,,,,,,,,,,,,,,,,,,,,,,,AMSA10.jpg,AMSA15.jpg,AMNE04.jpg,AMNE16.jpg,AMNE16.jpg,MN,1,num_4,32,num_8,0.916327244602,,,2018_Mar_06_1843,60.0099894269,MAFE4ImagesEEG,001,103329,
AFNE01.JPG,AFNE01.JPG,AFNE01.JPG,AFNE01.JPG,AFNE01.JPG,AFNE01.JPG,5,0,50,0,,,,,,,,,,,,,,,,,,,,,,,AMNE02.jpg,AMNE05.jpg,AMSA04.jpg,AMSA20.jpg,AMSA20.jpg,MS,2,num_4,32,num_6,1.95003690105,,,2018_Mar_06_1843,60.0099894269,MAFE4ImagesEEG,001,103329,
AFNE01.JPG,AFNE01.JPG,AFNE01.JPG,AFNE01.JPG,AFNE01.JPG,AFNE01.JPG,5,1,51,5,,,,,,,,,,,,,,,,,,,,,,,AMSA07.jpg,AMNE04.jpg,AMSA06.jpg,AMNE03.jpg,AMSA07.jpg,MS,2,num_8,16,num_8,1.2667338294,,,2018_Mar_06_1843,60.0099894269,MAFE4ImagesEEG,001,103329,
AFNE01.JPG,AFNE01.JPG,AFNE01.JPG,AFNE01.JPG,AFNE01.JPG,AFNE01.JPG,5,2,52,6,,,,,,,,,,,,,,,,,,,,,,,AMSA17.jpg,AMNE14.jpg,AMNE10.jpg,AMSA20.jpg,AMNE14.jpg,MN,1,num_6,16,num_6,0.683409556979,,,2018_Mar_06_1843,60.0099894269,MAFE4ImagesEEG,001,103329,
AFNE01.JPG,AFNE01.JPG,AFNE01.JPG,AFNE01.JPG,AFNE01.JPG,AFNE01.JPG,5,3,53,1,,,,,,,,,,,,,,,,,,,,,,,AMNE13.jpg,AMNE08.jpg,AMSA03.jpg,AMSA08.jpg,AMNE08.jpg,MN,1,num_6,32,num_4,1.03345498955,,,2018_Mar_06_1843,60.0099894269,MAFE4ImagesEEG,001,103329,
AFNE01.JPG,AFNE01.JPG,AFNE01.JPG,AFNE01.JPG,AFNE01.JPG,AFNE01.JPG,5,4,54,2,,,,,,,,,,,,,,,,,,,,,,,AMNE17.jpg,AMNE09.jpg,AMSA16.jpg,AMSA15.jpg,AMSA16.jpg,MS,2,num_2,16,num_2,0.816757708555,,,2018_Mar_06_1843,60.0099894269,MAFE4ImagesEEG,001,103329,
AFNE01.JPG,AFNE01.JPG,AFNE01.JPG,AFNE01.JPG,AFNE01.JPG,AFNE01.JPG,5,5,55,9,,,,,,,,,,,,,,,,,,,,,,,AMSA13.jpg,AMSA19.jpg,AMNE20.jpg,AMNE17.jpg,AMSA19.jpg,MS,2,num_6,16,num_6,0.76677376125,,,2018_Mar_06_1843,60.0099894269,MAFE4ImagesEEG,001,103329,
AFNE01.JPG,AFNE01.JPG,AFNE01.JPG,AFNE01.JPG,AFNE01.JPG,AFNE01.JPG,5,6,56,7,,,,,,,,,,,,,,,,,,,,,,,AMNE19.jpg,AMSA06.jpg,AMNE05.jpg,AMSA08.jpg,AMNE05.jpg,MN,1,num_2,16,num_2,1.10010998137,,,2018_Mar_06_1843,60.0099894269,MAFE4ImagesEEG,001,103329,
AFNE01.JPG,AFNE01.JPG,AFNE01.JPG,AFNE01.JPG,AFNE01.JPG,AFNE01.JPG,5,7,57,4,,,,,,,,,,,,,,,,,,,,,,,AMNE20.jpg,AMNE09.jpg,AMSA05.jpg,AMSA02.jpg,AMNE09.jpg,MN,1,num_6,16,num_6,1.0001023158,,,2018_Mar_06_1843,60.0099894269,MAFE4ImagesEEG,001,103329,
AFNE01.JPG,AFNE01.JPG,AFNE01.JPG,AFNE01.JPG,AFNE01.JPG,AFNE01.JPG,5,8,58,3,,,,,,,,,,,,,,,,,,,,,,,AMNE05.jpg,AMSA05.jpg,AMNE19.jpg,AMSA14.jpg,AMNE05.jpg,MN,1,num_8,32,num_6,1.24991845223,,,2018_Mar_06_1843,60.0099894269,MAFE4ImagesEEG,001,103329,
AFNE01.JPG,AFNE01.JPG,AFNE01.JPG,AFNE01.JPG,AFNE01.JPG,AFNE01.JPG,5,9,59,8,,,,,,,,,,,,,,,,,,,,,,,AMNE20.jpg,AMSA09.jpg,AMNE15.jpg,AMSA15.jpg,AMNE15.jpg,MN,1,num_2,32,num_4,1.06672683731,,,2018_Mar_06_1843,60.0099894269,MAFE4ImagesEEG,001,103329,
,,,,,,,,,,,,,,,,,,,,,,,,,,,,,,,,,,,,,,,,,,,space,17.5318145708,2018_Mar_06_1843,60.0099894269,MAFE4ImagesEEG,001,103329,
AFNE01.JPG,AFNE01.JPG,AFNE01.JPG,AFNE01.JPG,AFNE01.JPG,AFNE01.JPG,,,,,0,0,0,6,,,,,,,,,,,,,,,,,,,AFNE06.jpg,AFNE17.jpg,AFSA06.jpg,AFSA02.jpg,AFNE06.jpg,FN,3,num_8,32,num_2,1.36671551527,,,2018_Mar_06_1843,60.0099894269,MAFE4ImagesEEG,001,103329,
AFNE01.JPG,AFNE01.JPG,AFNE01.JPG,AFNE01.JPG,AFNE01.JPG,AFNE01.JPG,,,,,0,1,1,9,,,,,,,,,,,,,,,,,,,AFNE20.jpg,AFSA20.jpg,AFNE04.jpg,AFSA07.jpg,AFSA20.jpg,FS,4,num_6,16,num_6,1.01677688863,,,2018_Mar_06_1843,60.0099894269,MAFE4ImagesEEG,001,103329,
AFNE01.JPG,AFNE01.JPG,AFNE01.JPG,AFNE01.JPG,AFNE01.JPG,AFNE01.JPG,,,,,0,2,2,5,,,,,,,,,,,,,,,,,,,AFNE08.jpg,AFSA14.jpg,AFNE18.jpg,AFSA13.jpg,AFSA13.jpg,FS,4,num_4,16,num_4,1.26674473449,,,2018_Mar_06_1843,60.0099894269,MAFE4ImagesEEG,001,103329,
AFNE01.JPG,AFNE01.JPG,AFNE01.JPG,AFNE01.JPG,AFNE01.JPG,AFNE01.JPG,,,,,0,3,3,0,,,,,,,,,,,,,,,,,,,AFSA12.jpg,AFNE10.jpg,AFSA15.jpg,AFNE14.jpg,AFSA12.jpg,FS,4,num_8,32,num_2,0.86674518371,,,2018_Mar_06_1843,60.0099894269,MAFE4ImagesEEG,001,103329,
AFNE01.JPG,AFNE01.JPG,AFNE01.JPG,AFNE01.JPG,AFNE01.JPG,AFNE01.JPG,,,,,0,4,4,1,,,,,,,,,,,,,,,,,,,AFSA16.jpg,AFNE17.jpg,AFNE05.jpg,AFSA05.jpg,AFSA05.jpg,FS,4,num_4,16,num_4,0.466790536186,,,2018_Mar_06_1843,60.0099894269,MAFE4ImagesEEG,001,103329,
AFNE01.JPG,AFNE01.JPG,AFNE01.JPG,AFNE01.JPG,AFNE01.JPG,AFNE01.JPG,,,,,0,5,5,8,,,,,,,,,,,,,,,,,,,AFNE18.jpg,AFNE14.jpg,AFSA15.jpg,AFSA20.jpg,AFNE18.jpg,FN,3,num_8,16,num_8,1.20018179482,,,2018_Mar_06_1843,60.0099894269,MAFE4ImagesEEG,001,103329,
AFNE01.JPG,AFNE01.JPG,AFNE01.JPG,AFNE01.JPG,AFNE01.JPG,AFNE01.JPG,,,,,0,6,6,4,,,,,,,,,,,,,,,,,,,AFNE04.jpg,AFSA05.jpg,AFSA13.jpg,AFNE17.jpg,AFSA13.jpg,FS,4,num_2,32,num_4,1.13343378878,,,2018_Mar_06_1843,60.0099894269,MAFE4ImagesEEG,001,103329,
AFNE01.JPG,AFNE01.JPG,AFNE01.JPG,AFNE01.JPG,AFNE01.JPG,AFNE01.JPG,,,,,0,7,7,7,,,,,,,,,,,,,,,,,,,AFNE15.jpg,AFSA19.jpg,AFSA04.jpg,AFNE12.jpg,AFNE12.jpg,FN,3,num_4,16,num_4,0.899871415924,,,2018_Mar_06_1843,60.0099894269,MAFE4ImagesEEG,001,103329,
AFNE01.JPG,AFNE01.JPG,AFNE01.JPG,AFNE01.JPG,AFNE01.JPG,AFNE01.JPG,,,,,0,8,8,2,,,,,,,,,,,,,,,,,,,AFNE11.jpg,AFSA19.jpg,AFNE01.jpg,AFSA17.jpg,AFNE11.jpg,FN,3,num_8,32,num_4,0.90017804224,,,2018_Mar_06_1843,60.0099894269,MAFE4ImagesEEG,001,103329,
AFNE01.JPG,AFNE01.JPG,AFNE01.JPG,AFNE01.JPG,AFNE01.JPG,AFNE01.JPG,,,,,0,9,9,3,,,,,,,,,,,,,,,,,,,AFNE10.jpg,AFSA12.jpg,AFSA01.jpg,AFNE05.jpg,AFSA01.jpg,FS,4,num_2,16,num_2,0.733443859965,,,2018_Mar_06_1843,60.0099894269,MAFE4ImagesEEG,001,103329,
AFNE01.JPG,AFNE01.JPG,AFNE01.JPG,AFNE01.JPG,AFNE01.JPG,AFNE01.JPG,,,,,1,0,10,9,,,,,,,,,,,,,,,,,,,AFSA19.jpg,AFNE06.jpg,AFSA09.jpg,AFNE20.jpg,AFSA09.jpg,FS,4,num_2,32,num_6,0.733461500611,,,2018_Mar_06_1843,60.0099894269,MAFE4ImagesEEG,001,103329,
AFNE01.JPG,AFNE01.JPG,AFNE01.JPG,AFNE01.JPG,AFNE01.JPG,AFNE01.JPG,,,,,1,1,11,5,,,,,,,,,,,,,,,,,,,AFNE11.jpg,AFSA14.jpg,AFSA17.jpg,AFNE05.jpg,AFNE05.jpg,FN,3,num_4,32,num_2,0.833474298008,,,2018_Mar_06_1843,60.0099894269,MAFE4ImagesEEG,001,103329,
AFNE01.JPG,AFNE01.JPG,AFNE01.JPG,AFNE01.JPG,AFNE01.JPG,AFNE01.JPG,,,,,1,2,12,7,,,,,,,,,,,,,,,,,,,AFNE08.jpg,AFSA20.jpg,AFNE01.jpg,AFSA05.jpg,AFNE08.jpg,FN,3,num_8,16,num_8,1.36675592815,,,2018_Mar_06_1843,60.0099894269,MAFE4ImagesEEG,001,103329,
AFNE01.JPG,AFNE01.JPG,AFNE01.JPG,AFNE01.JPG,AFNE01.JPG,AFNE01.JPG,,,,,1,3,13,2,,,,,,,,,,,,,,,,,,,AFNE15.jpg,AFNE09.jpg,AFSA12.jpg,AFSA03.jpg,AFSA03.jpg,FS,4,num_4,32,num_2,0.833490014309,,,2018_Mar_06_1843,60.0099894269,MAFE4ImagesEEG,001,103329,
AFNE01.JPG,AFNE01.JPG,AFNE01.JPG,AFNE01.JPG,AFNE01.JPG,AFNE01.JPG,,,,,1,4,14,6,,,,,,,,,,,,,,,,,,,AFNE19.jpg,AFSA08.jpg,AFSA14.jpg,AFNE11.jpg,AFSA14.jpg,FS,4,num_2,32,num_6,1.21675565583,,,2018_Mar_06_1843,60.0099894269,MAFE4ImagesEEG,001,103329,
AFNE01.JPG,AFNE01.JPG,AFNE01.JPG,AFNE01.JPG,AFNE01.JPG,AFNE01.JPG,,,,,1,5,15,8,,,,,,,,,,,,,,,,,,,AFNE07.jpg,AFNE11.jpg,AFSA09.jpg,AFSA12.jpg,AFNE07.jpg,FN,3,num_8,16,num_8,0.78346693702,,,2018_Mar_06_1843,60.0099894269,MAFE4ImagesEEG,001,103329,
AFNE01.JPG,AFNE01.JPG,AFNE01.JPG,AFNE01.JPG,AFNE01.JPG,AFNE01.JPG,,,,,1,6,16,0,,,,,,,,,,,,,,,,,,,AFNE16.jpg,AFNE18.jpg,AFSA01.jpg,AFSA03.jpg,AFSA01.jpg,FS,4,num_2,16,num_2,0.95015204628,,,2018_Mar_06_1843,60.0099894269,MAFE4ImagesEEG,001,103329,
AFNE01.JPG,AFNE01.JPG,AFNE01.JPG,AFNE01.JPG,AFNE01.JPG,AFNE01.JPG,,,,,1,7,17,1,,,,,,,,,,,,,,,,,,,AFNE09.jpg,AFSA15.jpg,AFNE11.jpg,AFSA03.jpg,AFNE11.jpg,FN,3,num_2,16,num_2,0.916743563954,,,2018_Mar_06_1843,60.0099894269,MAFE4ImagesEEG,001,103329,
AFNE01.JPG,AFNE01.JPG,AFNE01.JPG,AFNE01.JPG,AFNE01.JPG,AFNE01.JPG,,,,,1,8,18,4,,,,,,,,,,,,,,,,,,,AFNE01.jpg,AFSA17.jpg,AFNE09.jpg,AFSA20.jpg,AFSA20.jpg,FS,4,num_4,32,num_2,1.43341701408,,,2018_Mar_06_1843,60.0099894269,MAFE4ImagesEEG,001,103329,
AFNE01.JPG,AFNE01.JPG,AFNE01.JPG,AFNE01.JPG,AFNE01.JPG,AFNE01.JPG,,,,,1,9,19,3,,,,,,,,,,,,,,,,,,,AFNE15.jpg,AFSA13.jpg,AFNE01.jpg,AFSA07.jpg,AFSA13.jpg,FS,4,num_6,32,num_2,2.53337400313,,,2018_Mar_06_1843,60.0099894269,MAFE4ImagesEEG,001,103329,
AFNE01.JPG,AFNE01.JPG,AFNE01.JPG,AFNE01.JPG,AFNE01.JPG,AFNE01.JPG,,,,,2,0,20,8,,,,,,,,,,,,,,,,,,,AFNE18.jpg,AFSA20.jpg,AFNE13.jpg,AFSA16.jpg,AFSA16.jpg,FS,4,num_4,16,num_4,1.23350560223,,,2018_Mar_06_1843,60.0099894269,MAFE4ImagesEEG,001,103329,
AFNE01.JPG,AFNE01.JPG,AFNE01.JPG,AFNE01.JPG,AFNE01.JPG,AFNE01.JPG,,,,,2,1,21,6,,,,,,,,,,,,,,,,,,,AFNE18.jpg,AFNE20.jpg,AFSA01.jpg,AFSA11.jpg,AFSA11.jpg,FS,4,num_4,32,num_2,0.817050542915,,,2018_Mar_06_1843,60.0099894269,MAFE4ImagesEEG,001,103329,
AFNE01.JPG,AFNE01.JPG,AFNE01.JPG,AFNE01.JPG,AFNE01.JPG,AFNE01.JPG,,,,,2,2,22,4,,,,,,,,,,,,,,,,,,,AFNE11.jpg,AFSA09.jpg,AFSA13.jpg,AFNE04.jpg,AFSA13.jpg,FS,4,num_2,32,num_6,1.31672868133,,,2018_Mar_06_1843,60.0099894269,MAFE4ImagesEEG,001,103329,
AFNE01.JPG,AFNE01.JPG,AFNE01.JPG,AFNE01.JPG,AFNE01.JPG,AFNE01.JPG,,,,,2,3,23,2,,,,,,,,,,,,,,,,,,,AFSA14.jpg,AFNE19.jpg,AFSA12.jpg,AFNE01.jpg,AFNE01.jpg,FN,3,num_4,32,num_8,0.95014178264,,,2018_Mar_06_1843,60.0099894269,MAFE4ImagesEEG,001,103329,
AFNE01.JPG,AFNE01.JPG,AFNE01.JPG,AFNE01.JPG,AFNE01.JPG,AFNE01.JPG,,,,,2,4,24,9,,,,,,,,,,,,,,,,,,,AFNE15.jpg,AFSA01.jpg,AFSA06.jpg,AFNE07.jpg,AFSA01.jpg,FS,4,num_6,16,num_6,0.850173247047,,,2018_Mar_06_1843,60.0099894269,MAFE4ImagesEEG,001,103329,
AFNE01.JPG,AFNE01.JPG,AFNE01.JPG,AFNE01.JPG,AFNE01.JPG,AFNE01.JPG,,,,,2,5,25,0,,,,,,,,,,,,,,,,,,,AFSA13.jpg,AFNE19.jpg,AFSA08.jpg,AFNE07.jpg,AFSA13.jpg,FS,4,num_8,32,num_6,3.73328220751,,,2018_Mar_06_1843,60.0099894269,MAFE4ImagesEEG,001,103329,
AFNE01.JPG,AFNE01.JPG,AFNE01.JPG,AFNE01.JPG,AFNE01.JPG,AFNE01.JPG,,,,,2,6,26,1,,,,,,,,,,,,,,,,,,,AFSA05.jpg,AFSA01.jpg,AFNE11.jpg,AFNE14.jpg,AFNE14.jpg,FN,3,num_4,16,num_4,0.650123596657,,,2018_Mar_06_1843,60.0099894269,MAFE4ImagesEEG,001,103329,
AFNE01.JPG,AFNE01.JPG,AFNE01.JPG,AFNE01.JPG,AFNE01.JPG,AFNE01.JPG,,,,,2,7,27,5,,,,,,,,,,,,,,,,,,,AFSA03.jpg,AFNE09.jpg,AFSA16.jpg,AFNE18.jpg,AFSA16.jpg,FS,4,num_2,32,num_4,1.75002638064,,,2018_Mar_06_1843,60.0099894269,MAFE4ImagesEEG,001,103329,
AFNE01.JPG,AFNE01.JPG,AFNE01.JPG,AFNE01.JPG,AFNE01.JPG,AFNE01.JPG,,,,,2,8,28,7,,,,,,,,,,,,,,,,,,,AFNE13.jpg,AFNE11.jpg,AFSA11.jpg,AFSA06.jpg,AFSA11.jpg,FS,4,num_2,16,num_2,0.850121608237,,,2018_Mar_06_1843,60.0099894269,MAFE4ImagesEEG,001,103329,
AFNE01.JPG,AFNE01.JPG,AFNE01.JPG,AFNE01.JPG,AFNE01.JPG,AFNE01.JPG,,,,,2,9,29,3,,,,,,,,,,,,,,,,,,,AFNE16.jpg,AFSA15.jpg,AFNE19.jpg,AFSA07.jpg,AFSA07.jpg,FS,4,num_4,32,num_6,1.01680767955,,,2018_Mar_06_1843,60.0099894269,MAFE4ImagesEEG,001,103329,
AFNE01.JPG,AFNE01.JPG,AFNE01.JPG,AFNE01.JPG,AFNE01.JPG,AFNE01.JPG,,,,,3,0,30,7,,,,,,,,,,,,,,,,,,,AFNE20.jpg,AFSA10.jpg,AFNE08.jpg,AFSA19.jpg,AFSA10.jpg,FS,4,num_6,32,num_4,0.883450547233,,,2018_Mar_06_1843,60.0099894269,MAFE4ImagesEEG,001,103329,
AFNE01.JPG,AFNE01.JPG,AFNE01.JPG,AFNE01.JPG,AFNE01.JPG,AFNE01.JPG,,,,,3,1,31,9,,,,,,,,,,,,,,,,,,,AFNE09.jpg,AFNE01.jpg,AFSA04.jpg,AFSA18.jpg,AFSA18.jpg,FS,4,num_4,32,num_6,1.58345994493,,,2018_Mar_06_1843,60.0099894269,MAFE4ImagesEEG,001,103329,
AFNE01.JPG,AFNE01.JPG,AFNE01.JPG,AFNE01.JPG,AFNE01.JPG,AFNE01.JPG,,,,,3,2,32,3,,,,,,,,,,,,,,,,,,,AFNE15.jpg,AFSA10.jpg,AFNE03.jpg,AFSA16.jpg,AFNE15.jpg,FN,3,num_8,16,num_8,0.683449328644,,,2018_Mar_06_1843,60.0099894269,MAFE4ImagesEEG,001,103329,
AFNE01.JPG,AFNE01.JPG,AFNE01.JPG,AFNE01.JPG,AFNE01.JPG,AFNE01.JPG,,,,,3,3,33,1,,,,,,,,,,,,,,,,,,,AFSA08.jpg,AFNE04.jpg,AFSA12.jpg,AFNE05.jpg,AFNE05.jpg,FN,3,num_4,32,num_6,1.299940567,,,2018_Mar_06_1843,60.0099894269,MAFE4ImagesEEG,001,103329,
AFNE01.JPG,AFNE01.JPG,AFNE01.JPG,AFNE01.JPG,AFNE01.JPG,AFNE01.JPG,,,,,3,4,34,0,,,,,,,,,,,,,,,,,,,AFNE16.jpg,AFNE04.jpg,AFSA06.jpg,AFSA10.jpg,AFNE16.jpg,FN,3,num_8,16,num_8,1.26676045079,,,2018_Mar_06_1843,60.0099894269,MAFE4ImagesEEG,001,103329,
AFNE01.JPG,AFNE01.JPG,AFNE01.JPG,AFNE01.JPG,AFNE01.JPG,AFNE01.JPG,,,,,3,5,35,6,,,,,,,,,,,,,,,,,,,AFNE01.jpg,AFSA03.jpg,AFSA08.jpg,AFNE12.jpg,AFNE01.jpg,FN,3,num_8,16,num_8,1.88325650035,,,2018_Mar_06_1843,60.0099894269,MAFE4ImagesEEG,001,103329,
AFNE01.JPG,AFNE01.JPG,AFNE01.JPG,AFNE01.JPG,AFNE01.JPG,AFNE01.JPG,,,,,3,6,36,2,,,,,,,,,,,,,,,,,,,AFNE06.jpg,AFSA11.jpg,AFSA19.jpg,AFNE16.jpg,AFNE06.jpg,FN,3,num_8,16,num_8,0.866813821718,,,2018_Mar_06_1843,60.0099894269,MAFE4ImagesEEG,001,103329,
AFNE01.JPG,AFNE01.JPG,AFNE01.JPG,AFNE01.JPG,AFNE01.JPG,AFNE01.JPG,,,,,3,7,37,5,,,,,,,,,,,,,,,,,,,AFSA15.jpg,AFSA08.jpg,AFNE18.jpg,AFNE15.jpg,AFSA08.jpg,FS,4,num_6,32,num_8,0.916788146598,,,2018_Mar_06_1843,60.0099894269,MAFE4ImagesEEG,001,103329,
AFNE01.JPG,AFNE01.JPG,AFNE01.JPG,AFNE01.JPG,AFNE01.JPG,AFNE01.JPG,,,,,3,8,38,4,,,,,,,,,,,,,,,,,,,AFNE11.jpg,AFNE13.jpg,AFSA11.jpg,AFSA03.jpg,AFSA03.jpg,FS,4,num_4,16,num_4,0.783589780098,,,2018_Mar_06_1843,60.0099894269,MAFE4ImagesEEG,001,103329,
AFNE01.JPG,AFNE01.JPG,AFNE01.JPG,AFNE01.JPG,AFNE01.JPG,AFNE01.JPG,,,,,3,9,39,8,,,,,,,,,,,,,,,,,,,AFNE12.jpg,AFNE07.jpg,AFSA11.jpg,AFSA08.jpg,AFNE12.jpg,FN,3,num_8,16,num_8,1.26648782264,,,2018_Mar_06_1843,60.0099894269,MAFE4ImagesEEG,001,103329,
AFNE01.JPG,AFNE01.JPG,AFNE01.JPG,AFNE01.JPG,AFNE01.JPG,AFNE01.JPG,,,,,4,0,40,5,,,,,,,,,,,,,,,,,,,AFSA13.jpg,AFNE17.jpg,AFNE05.jpg,AFSA19.jpg,AFSA19.jpg,FS,4,num_4,16,num_4,0.683511551935,,,2018_Mar_06_1843,60.0099894269,MAFE4ImagesEEG,001,103329,
AFNE01.JPG,AFNE01.JPG,AFNE01.JPG,AFNE01.JPG,AFNE01.JPG,AFNE01.JPG,,,,,4,1,41,3,,,,,,,,,,,,,,,,,,,AFSA05.jpg,AFSA03.jpg,AFNE19.jpg,AFNE14.jpg,AFNE14.jpg,FN,3,num_4,16,num_4,1.01678490709,,,2018_Mar_06_1843,60.0099894269,MAFE4ImagesEEG,001,103329,
AFNE01.JPG,AFNE01.JPG,AFNE01.JPG,AFNE01.JPG,AFNE01.JPG,AFNE01.JPG,,,,,4,2,42,1,,,,,,,,,,,,,,,,,,,AFSA17.jpg,AFNE11.jpg,AFSA09.jpg,AFNE12.jpg,AFNE12.jpg,FN,3,num_4,16,num_4,1.06698439061,,,2018_Mar_06_1843,60.0099894269,MAFE4ImagesEEG,001,103329,
AFNE01.JPG,AFNE01.JPG,AFNE01.JPG,AFNE01.JPG,AFNE01.JPG,AFNE01.JPG,,,,,4,3,43,6,,,,,,,,,,,,,,,,,,,AFNE13.jpg,AFSA13.jpg,AFNE18.jpg,AFSA05.jpg,AFSA05.jpg,FS,4,num_4,32,num_6,1.08343412564,,,2018_Mar_06_1843,60.0099894269,MAFE4ImagesEEG,001,103329,
AFNE01.JPG,AFNE01.JPG,AFNE01.JPG,AFNE01.JPG,AFNE01.JPG,AFNE01.JPG,,,,,4,4,44,9,,,,,,,,,,,,,,,,,,,AFNE20.jpg,AFSA01.jpg,AFSA12.jpg,AFNE09.jpg,AFSA01.jpg,FS,4,num_6,16,num_6,1.2167373735,,,2018_Mar_06_1843,60.0099894269,MAFE4ImagesEEG,001,103329,
AFNE01.JPG,AFNE01.JPG,AFNE01.JPG,AFNE01.JPG,AFNE01.JPG,AFNE01.JPG,,,,,4,5,45,7,,,,,,,,,,,,,,,,,,,AFNE14.jpg,AFNE17.jpg,AFSA04.jpg,AFSA01.jpg,AFSA04.jpg,FS,4,num_2,16,num_2,0.849994274788,,,2018_Mar_06_1843,60.0099894269,MAFE4ImagesEEG,001,103329,
AFNE01.JPG,AFNE01.JPG,AFNE01.JPG,AFNE01.JPG,AFNE01.JPG,AFNE01.JPG,,,,,4,6,46,2,,,,,,,,,,,,,,,,,,,AFSA09.jpg,AFSA15.jpg,AFNE03.jpg,AFNE18.jpg,AFSA15.jpg,FS,4,num_6,32,num_8,2.25005348329,,,2018_Mar_06_1843,60.0099894269,MAFE4ImagesEEG,001,103329,
AFNE01.JPG,AFNE01.JPG,AFNE01.JPG,AFNE01.JPG,AFNE01.JPG,AFNE01.JPG,,,,,4,7,47,8,,,,,,,,,,,,,,,,,,,AFNE01.jpg,AFNE11.jpg,AFSA12.jpg,AFSA10.jpg,AFSA12.jpg,FS,4,num_2,32,num_4,0.933504415676,,,2018_Mar_06_1843,60.0099894269,MAFE4ImagesEEG,001,103329,
AFNE01.JPG,AFNE01.JPG,AFNE01.JPG,AFNE01.JPG,AFNE01.JPG,AFNE01.JPG,,,,,4,8,48,0,,,,,,,,,,,,,,,,,,,AFSA20.jpg,AFNE12.jpg,AFNE14.jpg,AFSA18.jpg,AFSA20.jpg,FS,4,num_8,16,num_8,0.616770281456,,,2018_Mar_06_1843,60.0099894269,MAFE4ImagesEEG,001,103329,
AFNE01.JPG,AFNE01.JPG,AFNE01.JPG,AFNE01.JPG,AFNE01.JPG,AFNE01.JPG,,,,,4,9,49,4,,,,,,,,,,,,,,,,,,,AFSA19.jpg,AFNE16.jpg,AFNE07.jpg,AFSA06.jpg,AFNE07.jpg,FN,3,num_2,32,num_8,1.06676596752,,,2018_Mar_06_1843,60.0099894269,MAFE4ImagesEEG,001,103329,
AFNE01.JPG,AFNE01.JPG,AFNE01.JPG,AFNE01.JPG,AFNE01.JPG,AFNE01.JPG,,,,,5,0,50,1,,,,,,,,,,,,,,,,,,,AFNE04.jpg,AFSA19.jpg,AFNE13.jpg,AFSA02.jpg,AFSA02.jpg,FS,4,num_4,16,num_4,1.95010361471,,,2018_Mar_06_1843,60.0099894269,MAFE4ImagesEEG,001,103329,
AFNE01.JPG,AFNE01.JPG,AFNE01.JPG,AFNE01.JPG,AFNE01.JPG,AFNE01.JPG,,,,,5,1,51,0,,,,,,,,,,,,,,,,,,,AFNE09.jpg,AFSA15.jpg,AFNE07.jpg,AFSA11.jpg,AFSA15.jpg,FS,4,num_6,32,num_8,0.866795219015,,,2018_Mar_06_1843,60.0099894269,MAFE4ImagesEEG,001,103329,
AFNE01.JPG,AFNE01.JPG,AFNE01.JPG,AFNE01.JPG,AFNE01.JPG,AFNE01.JPG,,,,,5,2,52,5,,,,,,,,,,,,,,,,,,,AFSA15.jpg,AFNE07.jpg,AFNE20.jpg,AFSA09.jpg,AFSA09.jpg,FS,4,num_4,32,num_2,0.950115161249,,,2018_Mar_06_1843,60.0099894269,MAFE4ImagesEEG,001,103329,
AFNE01.JPG,AFNE01.JPG,AFNE01.JPG,AFNE01.JPG,AFNE01.JPG,AFNE01.JPG,,,,,5,3,53,8,,,,,,,,,,,,,,,,,,,AFSA07.jpg,AFNE04.jpg,AFSA11.jpg,AFNE13.jpg,AFSA11.jpg,FS,4,num_2,16,num_2,0.583475981839,,,2018_Mar_06_1843,60.0099894269,MAFE4ImagesEEG,001,103329,
AFNE01.JPG,AFNE01.JPG,AFNE01.JPG,AFNE01.JPG,AFNE01.JPG,AFNE01.JPG,,,,,5,4,54,3,,,,,,,,,,,,,,,,,,,AFNE05.jpg,AFNE03.jpg,AFSA11.jpg,AFSA19.jpg,AFNE05.jpg,FN,3,num_8,32,num_2,1.01678779372,,,2018_Mar_06_1843,60.0099894269,MAFE4ImagesEEG,001,103329,
AFNE01.JPG,AFNE01.JPG,AFNE01.JPG,AFNE01.JPG,AFNE01.JPG,AFNE01.JPG,,,,,5,5,55,9,,,,,,,,,,,,,,,,,,,AFNE02.jpg,AFSA16.jpg,AFNE20.jpg,AFSA10.jpg,AFNE02.jpg,FN,3,num_8,16,num_8,0.983452439774,,,2018_Mar_06_1843,60.0099894269,MAFE4ImagesEEG,001,103329,
AFNE01.JPG,AFNE01.JPG,AFNE01.JPG,AFNE01.JPG,AFNE01.JPG,AFNE01.JPG,,,,,5,6,56,7,,,,,,,,,,,,,,,,,,,AFSA13.jpg,AFSA02.jpg,AFNE18.jpg,AFNE19.jpg,AFNE18.jpg,FN,3,num_2,16,num_2,1.08342450345,,,2018_Mar_06_1843,60.0099894269,MAFE4ImagesEEG,001,103329,
AFNE01.JPG,AFNE01.JPG,AFNE01.JPG,AFNE01.JPG,AFNE01.JPG,AFNE01.JPG,,,,,5,7,57,6,,,,,,,,,,,,,,,,,,,AFNE08.jpg,AFSA12.jpg,AFNE07.jpg,AFSA10.jpg,AFSA10.jpg,FS,4,num_4,16,num_4,1.01674353192,,,2018_Mar_06_1843,60.0099894269,MAFE4ImagesEEG,001,103329,
AFNE01.JPG,AFNE01.JPG,AFNE01.JPG,AFNE01.JPG,AFNE01.JPG,AFNE01.JPG,,,,,5,8,58,2,,,,,,,,,,,,,,,,,,,AFNE16.jpg,AFNE09.jpg,AFSA14.jpg,AFSA08.jpg,AFSA14.jpg,FS,4,num_2,32,num_8,1.06662259717,,,2018_Mar_06_1843,60.0099894269,MAFE4ImagesEEG,001,103329,
AFNE01.JPG,AFNE01.JPG,AFNE01.JPG,AFNE01.JPG,AFNE01.JPG,AFNE01.JPG,,,,,5,9,59,4,,,,,,,,,,,,,,,,,,,AFNE20.jpg,AFNE15.jpg,AFSA15.jpg,AFSA17.jpg,AFSA17.jpg,FS,4,num_4,16,num_4,1.1834796383,,,2018_Mar_06_1843,60.0099894269,MAFE4ImagesEEG,001,103329,
,,,,,,,,,,,,,,,,,,,,,,,,,,,,,,,,,,,,,,,,,,,space,20.0317018309,2018_Mar_06_1843,60.0099894269,MAFE4ImagesEEG,001,103329,
AFNE01.JPG,AFNE01.JPG,AFNE01.JPG,AFNE01.JPG,AFNE01.JPG,AFNE01.JPG,,,,,,,,,0,0,0,1,,,,,,,,,,,,,,,AMSA14.jpg,AMNE06.jpg,AMNE13.jpg,AMSA04.jpg,AMNE13.jpg,MN,1,num_2,32,num_6,0.933475869708,,,2018_Mar_06_1843,60.0099894269,MAFE4ImagesEEG,001,103329,
AFNE01.JPG,AFNE01.JPG,AFNE01.JPG,AFNE01.JPG,AFNE01.JPG,AFNE01.JPG,,,,,,,,,0,1,1,2,,,,,,,,,,,,,,,AMNE09.jpg,AMSA11.jpg,AMNE01.jpg,AMSA01.jpg,AMNE01.jpg,MN,1,num_2,16,num_2,0.616777337622,,,2018_Mar_06_1843,60.0099894269,MAFE4ImagesEEG,001,103329,
AFNE01.JPG,AFNE01.JPG,AFNE01.JPG,AFNE01.JPG,AFNE01.JPG,AFNE01.JPG,,,,,,,,,0,2,2,5,,,,,,,,,,,,,,,AMSA07.jpg,AMNE10.jpg,AMNE05.jpg,AMSA01.jpg,AMSA07.jpg,MS,2,num_8,16,num_8,0.78348970972,,,2018_Mar_06_1843,60.0099894269,MAFE4ImagesEEG,001,103329,
AFNE01.JPG,AFNE01.JPG,AFNE01.JPG,AFNE01.JPG,AFNE01.JPG,AFNE01.JPG,,,,,,,,,0,3,3,0,,,,,,,,,,,,,,,AMSA08.jpg,AMSA03.jpg,AMNE20.jpg,AMNE15.jpg,AMNE20.jpg,MN,1,num_2,16,num_2,0.733480424155,,,2018_Mar_06_1843,60.0099894269,MAFE4ImagesEEG,001,103329,
AFNE01.JPG,AFNE01.JPG,AFNE01.JPG,AFNE01.JPG,AFNE01.JPG,AFNE01.JPG,,,,,,,,,0,4,4,6,,,,,,,,,,,,,,,AMSA14.jpg,AMSA15.jpg,AMNE13.jpg,AMNE07.jpg,AMSA15.jpg,MS,2,num_6,16,num_6,1.13344341097,,,2018_Mar_06_1843,60.0099894269,MAFE4ImagesEEG,001,103329,
AFNE01.JPG,AFNE01.JPG,AFNE01.JPG,AFNE01.JPG,AFNE01.JPG,AFNE01.JPG,,,,,,,,,0,5,5,3,,,,,,,,,,,,,,,AMSA10.jpg,AMNE05.jpg,AMSA18.jpg,AMNE08.jpg,AMNE08.jpg,MN,1,num_4,16,num_4,1.45015124441,,,2018_Mar_06_1843,60.0099894269,MAFE4ImagesEEG,001,103329,
AFNE01.JPG,AFNE01.JPG,AFNE01.JPG,AFNE01.JPG,AFNE01.JPG,AFNE01.JPG,,,,,,,,,0,6,6,8,,,,,,,,,,,,,,,AMSA09.jpg,AMNE02.jpg,AMNE06.jpg,AMSA19.jpg,AMNE06.jpg,MN,1,num_2,32,num_6,1.21689517703,,,2018_Mar_06_1843,60.0099894269,MAFE4ImagesEEG,001,103329,
AFNE01.JPG,AFNE01.JPG,AFNE01.JPG,AFNE01.JPG,AFNE01.JPG,AFNE01.JPG,,,,,,,,,0,7,7,7,,,,,,,,,,,,,,,AMSA03.jpg,AMNE18.jpg,AMSA05.jpg,AMNE09.jpg,AMSA03.jpg,MS,2,num_8,16,num_8,0.566822257126,,,2018_Mar_06_1843,60.0099894269,MAFE4ImagesEEG,001,103329,
AFNE01.JPG,AFNE01.JPG,AFNE01.JPG,AFNE01.JPG,AFNE01.JPG,AFNE01.JPG,,,,,,,,,0,8,8,9,,,,,,,,,,,,,,,AMNE10.jpg,AMSA07.jpg,AMNE15.jpg,AMSA12.jpg,AMNE10.jpg,MN,1,num_8,32,num_2,0.8334739774,,,2018_Mar_06_1843,60.0099894269,MAFE4ImagesEEG,001,103329,
AFNE01.JPG,AFNE01.JPG,AFNE01.JPG,AFNE01.JPG,AFNE01.JPG,AFNE01.JPG,,,,,,,,,0,9,9,4,,,,,,,,,,,,,,,AMSA13.jpg,AMNE08.jpg,AMNE19.jpg,AMSA06.jpg,AMSA13.jpg,MS,2,num_8,16,num_8,0.750118432799,,,2018_Mar_06_1843,60.0099894269,MAFE4ImagesEEG,001,103329,
AFNE01.JPG,AFNE01.JPG,AFNE01.JPG,AFNE01.JPG,AFNE01.JPG,AFNE01.JPG,,,,,,,,,1,0,10,0,,,,,,,,,,,,,,,AMNE05.jpg,AMSA06.jpg,AMNE19.jpg,AMSA08.jpg,AMSA06.jpg,MS,2,num_6,32,num_8,1.40017307084,,,2018_Mar_06_1843,60.0099894269,MAFE4ImagesEEG,001,103329,
AFNE01.JPG,AFNE01.JPG,AFNE01.JPG,AFNE01.JPG,AFNE01.JPG,AFNE01.JPG,,,,,,,,,1,1,11,4,,,,,,,,,,,,,,,AMNE03.jpg,AMSA08.jpg,AMSA17.jpg,AMNE04.jpg,AMSA17.jpg,MS,2,num_2,16,num_2,0.833452167222,,,2018_Mar_06_1843,60.0099894269,MAFE4ImagesEEG,001,103329,
AFNE01.JPG,AFNE01.JPG,AFNE01.JPG,AFNE01.JPG,AFNE01.JPG,AFNE01.JPG,,,,,,,,,1,2,12,7,,,,,,,,,,,,,,,AMNE18.jpg,AMSA18.jpg,AMSA10.jpg,AMNE13.jpg,AMSA18.jpg,MS,2,num_6,16,num_6,0.683526626555,,,2018_Mar_06_1843,60.0099894269,MAFE4ImagesEEG,001,103329,
AFNE01.JPG,AFNE01.JPG,AFNE01.JPG,AFNE01.JPG,AFNE01.JPG,AFNE01.JPG,,,,,,,,,1,3,13,6,,,,,,,,,,,,,,,AMNE14.jpg,AMNE17.jpg,AMSA11.jpg,AMSA12.jpg,AMSA11.jpg,MS,2,num_2,32,num_6,0.75016044965,,,2018_Mar_06_1843,60.0099894269,MAFE4ImagesEEG,001,103329,
AFNE01.JPG,AFNE01.JPG,AFNE01.JPG,AFNE01.JPG,AFNE01.JPG,AFNE01.JPG,,,,,,,,,1,4,14,3,,,,,,,,,,,,,,,AMNE07.jpg,AMNE06.jpg,AMSA04.jpg,AMSA20.jpg,AMSA20.jpg,MS,2,num_4,16,num_4,1.15013017179,,,2018_Mar_06_1843,60.0099894269,MAFE4ImagesEEG,001,103329,
AFNE01.JPG,AFNE01.JPG,AFNE01.JPG,AFNE01.JPG,AFNE01.JPG,AFNE01.JPG,,,,,,,,,1,5,15,2,,,,,,,,,,,,,,,AMNE04.jpg,AMSA14.jpg,AMSA09.jpg,AMNE12.jpg,AMNE04.jpg,MN,1,num_8,32,num_6,2.93324750359,,,2018_Mar_06_1843,60.0099894269,MAFE4ImagesEEG,001,103329,
AFNE01.JPG,AFNE01.JPG,AFNE01.JPG,AFNE01.JPG,AFNE01.JPG,AFNE01.JPG,,,,,,,,,1,6,16,9,,,,,,,,,,,,,,,AMNE03.jpg,AMNE17.jpg,AMSA06.jpg,AMSA17.jpg,AMSA17.jpg,MS,2,num_4,32,num_8,0.85011391039,,,2018_Mar_06_1843,60.0099894269,MAFE4ImagesEEG,001,103329,
AFNE01.JPG,AFNE01.JPG,AFNE01.JPG,AFNE01.JPG,AFNE01.JPG,AFNE01.JPG,,,,,,,,,1,7,17,1,,,,,,,,,,,,,,,AMNE09.jpg,AMNE14.jpg,AMSA11.jpg,AMSA16.jpg,AMSA11.jpg,MS,2,num_2,32,num_6,0.633478531847,,,2018_Mar_06_1843,60.0099894269,MAFE4ImagesEEG,001,103329,
AFNE01.JPG,AFNE01.JPG,AFNE01.JPG,AFNE01.JPG,AFNE01.JPG,AFNE01.JPG,,,,,,,,,1,8,18,5,,,,,,,,,,,,,,,AMSA12.jpg,AMNE04.jpg,AMSA19.jpg,AMNE14.jpg,AMSA12.jpg,MS,2,num_8,16,num_8,0.83343741321,,,2018_Mar_06_1843,60.0099894269,MAFE4ImagesEEG,001,103329,
AFNE01.JPG,AFNE01.JPG,AFNE01.JPG,AFNE01.JPG,AFNE01.JPG,AFNE01.JPG,,,,,,,,,1,9,19,8,,,,,,,,,,,,,,,AMSA03.jpg,AMSA12.jpg,AMNE01.jpg,AMNE06.jpg,AMSA12.jpg,MS,2,num_6,16,num_6,0.733436803799,,,2018_Mar_06_1843,60.0099894269,MAFE4ImagesEEG,001,103329,
AFNE01.JPG,AFNE01.JPG,AFNE01.JPG,AFNE01.JPG,AFNE01.JPG,AFNE01.JPG,,,,,,,,,2,0,20,1,,,,,,,,,,,,,,,AMSA07.jpg,AMNE11.jpg,AMNE03.jpg,AMSA12.jpg,AMNE03.jpg,MN,1,num_2,32,num_6,1.53341024648,,,2018_Mar_06_1843,60.0099894269,MAFE4ImagesEEG,001,103329,
AFNE01.JPG,AFNE01.JPG,AFNE01.JPG,AFNE01.JPG,AFNE01.JPG,AFNE01.JPG,,,,,,,,,2,1,21,6,,,,,,,,,,,,,,,AMSA01.jpg,AMNE11.jpg,AMSA03.jpg,AMNE15.jpg,AMNE11.jpg,MN,1,num_6,16,num_6,0.633539472241,,,2018_Mar_06_1843,60.0099894269,MAFE4ImagesEEG,001,103329,
AFNE01.JPG,AFNE01.JPG,AFNE01.JPG,AFNE01.JPG,AFNE01.JPG,AFNE01.JPG,,,,,,,,,2,2,22,8,,,,,,,,,,,,,,,AMNE15.jpg,AMSA13.jpg,AMSA17.jpg,AMNE17.jpg,AMSA17.jpg,MS,2,num_2,32,num_6,0.983908530325,,,2018_Mar_06_1843,60.0099894269,MAFE4ImagesEEG,001,103329,
AFNE01.JPG,AFNE01.JPG,AFNE01.JPG,AFNE01.JPG,AFNE01.JPG,AFNE01.JPG,,,,,,,,,2,3,23,9,,,,,,,,,,,,,,,AMSA09.jpg,AMSA04.jpg,AMNE10.jpg,AMNE17.jpg,AMSA09.jpg,MS,2,num_8,32,num_4,0.983456288697,,,2018_Mar_06_1843,60.0099894269,MAFE4ImagesEEG,001,103329,
AFNE01.JPG,AFNE01.JPG,AFNE01.JPG,AFNE01.JPG,AFNE01.JPG,AFNE01.JPG,,,,,,,,,2,4,24,7,,,,,,,,,,,,,,,AMNE14.jpg,AMNE20.jpg,AMSA09.jpg,AMSA05.jpg,AMNE14.jpg,MN,1,num_8,16,num_8,0.566835728241,,,2018_Mar_06_1843,60.0099894269,MAFE4ImagesEEG,001,103329,
AFNE01.JPG,AFNE01.JPG,AFNE01.JPG,AFNE01.JPG,AFNE01.JPG,AFNE01.JPG,,,,,,,,,2,5,25,5,,,,,,,,,,,,,,,AMNE11.jpg,AMNE02.jpg,AMSA10.jpg,AMSA11.jpg,AMNE02.jpg,MN,1,num_6,32,num_4,0.950063522207,,,2018_Mar_06_1843,60.0099894269,MAFE4ImagesEEG,001,103329,
AFNE01.JPG,AFNE01.JPG,AFNE01.JPG,AFNE01.JPG,AFNE01.JPG,AFNE01.JPG,,,,,,,,,2,6,26,2,,,,,,,,,,,,,,,AMNE02.jpg,AMNE10.jpg,AMSA04.jpg,AMSA15.jpg,AMNE10.jpg,MN,1,num_6,16,num_6,1.08344599279,,,2018_Mar_06_1843,60.0099894269,MAFE4ImagesEEG,001,103329,
AFNE01.JPG,AFNE01.JPG,AFNE01.JPG,AFNE01.JPG,AFNE01.JPG,AFNE01.JPG,,,,,,,,,2,7,27,3,,,,,,,,,,,,,,,AMNE14.jpg,AMSA03.jpg,AMSA04.jpg,AMNE13.jpg,AMNE14.jpg,MN,1,num_8,32,num_6,2.01669542096,,,2018_Mar_06_1843,60.0099894269,MAFE4ImagesEEG,001,103329,
AFNE01.JPG,AFNE01.JPG,AFNE01.JPG,AFNE01.JPG,AFNE01.JPG,AFNE01.JPG,,,,,,,,,2,8,28,4,,,,,,,,,,,,,,,AMNE12.jpg,AMSA16.jpg,AMNE17.jpg,AMSA12.jpg,AMSA16.jpg,MS,2,num_6,16,num_6,1.00011033402,,,2018_Mar_06_1843,60.0099894269,MAFE4ImagesEEG,001,103329,
AFNE01.JPG,AFNE01.JPG,AFNE01.JPG,AFNE01.JPG,AFNE01.JPG,AFNE01.JPG,,,,,,,,,2,9,29,0,,,,,,,,,,,,,,,AMSA02.jpg,AMSA19.jpg,AMNE05.jpg,AMNE14.jpg,AMNE05.jpg,MN,1,num_2,32,num_8,0.816776952706,,,2018_Mar_06_1843,60.0099894269,MAFE4ImagesEEG,001,103329,
AFNE01.JPG,AFNE01.JPG,AFNE01.JPG,AFNE01.JPG,AFNE01.JPG,AFNE01.JPG,,,,,,,,,3,0,30,3,,,,,,,,,,,,,,,AMSA11.jpg,AMNE10.jpg,AMSA09.jpg,AMNE04.jpg,AMNE10.jpg,MN,1,num_6,32,num_4,0.90010844171,,,2018_Mar_06_1843,60.0099894269,MAFE4ImagesEEG,001,103329,
AFNE01.JPG,AFNE01.JPG,AFNE01.JPG,AFNE01.JPG,AFNE01.JPG,AFNE01.JPG,,,,,,,,,3,1,31,8,,,,,,,,,,,,,,,AMNE16.jpg,AMSA03.jpg,AMSA09.jpg,AMNE13.jpg,AMNE16.jpg,MN,1,num_8,16,num_8,0.666820621351,,,2018_Mar_06_1843,60.0099894269,MAFE4ImagesEEG,001,103329,
AFNE01.JPG,AFNE01.JPG,AFNE01.JPG,AFNE01.JPG,AFNE01.JPG,AFNE01.JPG,,,,,,,,,3,2,32,6,,,,,,,,,,,,,,,AMSA12.jpg,AMSA05.jpg,AMNE17.jpg,AMNE19.jpg,AMNE19.jpg,MN,1,num_4,32,num_2,1.96668100357,,,2018_Mar_06_1843,60.0099894269,MAFE4ImagesEEG,001,103329,
AFNE01.JPG,AFNE01.JPG,AFNE01.JPG,AFNE01.JPG,AFNE01.JPG,AFNE01.JPG,,,,,,,,,3,3,33,2,,,,,,,,,,,,,,,AMNE07.jpg,AMNE18.jpg,AMSA19.jpg,AMSA17.jpg,AMNE07.jpg,MN,1,num_8,16,num_8,0.533344174502,,,2018_Mar_06_1843,60.0099894269,MAFE4ImagesEEG,001,103329,
AFNE01.JPG,AFNE01.JPG,AFNE01.JPG,AFNE01.JPG,AFNE01.JPG,AFNE01.JPG,,,,,,,,,3,4,34,9,,,,,,,,,,,,,,,AMNE16.jpg,AMSA19.jpg,AMSA18.jpg,AMNE02.jpg,AMNE16.jpg,MN,1,num_8,16,num_8,0.750138639472,,,2018_Mar_06_1843,60.0099894269,MAFE4ImagesEEG,001,103329,
AFNE01.JPG,AFNE01.JPG,AFNE01.JPG,AFNE01.JPG,AFNE01.JPG,AFNE01.JPG,,,,,,,,,3,5,35,1,,,,,,,,,,,,,,,AMNE03.jpg,AMNE12.jpg,AMSA01.jpg,AMSA10.jpg,AMSA10.jpg,MS,2,num_4,32,num_6,1.11674670712,,,2018_Mar_06_1843,60.0099894269,MAFE4ImagesEEG,001,103329,
AFNE01.JPG,AFNE01.JPG,AFNE01.JPG,AFNE01.JPG,AFNE01.JPG,AFNE01.JPG,,,,,,,,,3,6,36,7,,,,,,,,,,,,,,,AMSA06.jpg,AMSA15.jpg,AMNE20.jpg,AMNE10.jpg,AMNE20.jpg,MN,1,num_2,16,num_2,0.616809732048,,,2018_Mar_06_1843,60.0099894269,MAFE4ImagesEEG,001,103329,
AFNE01.JPG,AFNE01.JPG,AFNE01.JPG,AFNE01.JPG,AFNE01.JPG,AFNE01.JPG,,,,,,,,,3,7,37,5,,,,,,,,,,,,,,,AMSA14.jpg,AMNE16.jpg,AMNE12.jpg,AMSA15.jpg,AMNE16.jpg,MN,1,num_6,16,num_6,1.08346395427,,,2018_Mar_06_1843,60.0099894269,MAFE4ImagesEEG,001,103329,
AFNE01.JPG,AFNE01.JPG,AFNE01.JPG,AFNE01.JPG,AFNE01.JPG,AFNE01.JPG,,,,,,,,,3,8,38,0,,,,,,,,,,,,,,,AMNE08.jpg,AMNE10.jpg,AMSA16.jpg,AMSA19.jpg,AMSA16.jpg,MS,2,num_2,16,num_2,0.966827260796,,,2018_Mar_06_1843,60.0099894269,MAFE4ImagesEEG,001,103329,
AFNE01.JPG,AFNE01.JPG,AFNE01.JPG,AFNE01.JPG,AFNE01.JPG,AFNE01.JPG,,,,,,,,,3,9,39,4,,,,,,,,,,,,,,,AMSA07.jpg,AMNE10.jpg,AMNE11.jpg,AMSA06.jpg,AMNE11.jpg,MN,1,num_2,32,num_6,0.933424230665,,,2018_Mar_06_1843,60.0099894269,MAFE4ImagesEEG,001,103329,
AFNE01.JPG,AFNE01.JPG,AFNE01.JPG,AFNE01.JPG,AFNE01.JPG,AFNE01.JPG,,,,,,,,,4,0,40,5,,,,,,,,,,,,,,,AMSA18.jpg,AMNE09.jpg,AMNE10.jpg,AMSA16.jpg,AMNE09.jpg,MN,1,num_6,16,num_6,0.583511583973,,,2018_Mar_06_1843,60.0099894269,MAFE4ImagesEEG,001,103329,
AFNE01.JPG,AFNE01.JPG,AFNE01.JPG,AFNE01.JPG,AFNE01.JPG,AFNE01.JPG,,,,,,,,,4,1,41,7,,,,,,,,,,,,,,,AMSA05.jpg,AMSA18.jpg,AMNE01.jpg,AMNE20.jpg,AMNE20.jpg,MN,1,num_4,32,num_6,2.55001810566,,,2018_Mar_06_1843,60.0099894269,MAFE4ImagesEEG,001,103329,
AFNE01.JPG,AFNE01.JPG,AFNE01.JPG,AFNE01.JPG,AFNE01.JPG,AFNE01.JPG,,,,,,,,,4,2,42,6,,,,,,,,,,,,,,,AMNE18.jpg,AMSA16.jpg,AMSA17.jpg,AMNE14.jpg,AMSA17.jpg,MS,2,num_2,32,num_4,0.850203075912,,,2018_Mar_06_1843,60.0099894269,MAFE4ImagesEEG,001,103329,
AFNE01.JPG,AFNE01.JPG,AFNE01.JPG,AFNE01.JPG,AFNE01.JPG,AFNE01.JPG,,,,,,,,,4,3,43,4,,,,,,,,,,,,,,,AMNE10.jpg,AMNE06.jpg,AMSA05.jpg,AMSA04.jpg,AMSA05.jpg,MS,2,num_2,32,num_8,0.51686749747,,,2018_Mar_06_1843,60.0099894269,MAFE4ImagesEEG,001,103329,
AFNE01.JPG,AFNE01.JPG,AFNE01.JPG,AFNE01.JPG,AFNE01.JPG,AFNE01.JPG,,,,,,,,,4,4,44,1,,,,,,,,,,,,,,,AMNE12.jpg,AMNE13.jpg,AMSA10.jpg,AMSA07.jpg,AMSA07.jpg,MS,2,num_4,32,num_6,1.50007264735,,,2018_Mar_06_1843,60.0099894269,MAFE4ImagesEEG,001,103329,
AFNE01.JPG,AFNE01.JPG,AFNE01.JPG,AFNE01.JPG,AFNE01.JPG,AFNE01.JPG,,,,,,,,,4,5,45,0,,,,,,,,,,,,,,,AMNE08.jpg,AMSA04.jpg,AMNE01.jpg,AMSA18.jpg,AMSA18.jpg,MS,2,num_4,32,num_6,3.34998898255,,,2018_Mar_06_1843,60.0099894269,MAFE4ImagesEEG,001,103329,
AFNE01.JPG,AFNE01.JPG,AFNE01.JPG,AFNE01.JPG,AFNE01.JPG,AFNE01.JPG,,,,,,,,,4,6,46,2,,,,,,,,,,,,,,,AMSA19.jpg,AMSA02.jpg,AMNE14.jpg,AMNE02.jpg,AMSA02.jpg,MS,2,num_6,16,num_6,0.616835070774,,,2018_Mar_06_1843,60.0099894269,MAFE4ImagesEEG,001,103329,
AFNE01.JPG,AFNE01.JPG,AFNE01.JPG,AFNE01.JPG,AFNE01.JPG,AFNE01.JPG,,,,,,,,,4,7,47,8,,,,,,,,,,,,,,,AMNE01.jpg,AMSA05.jpg,AMSA06.jpg,AMNE09.jpg,AMNE09.jpg,MN,1,num_4,16,num_4,0.816758349771,,,2018_Mar_06_1843,60.0099894269,MAFE4ImagesEEG,001,103329,
AFNE01.JPG,AFNE01.JPG,AFNE01.JPG,AFNE01.JPG,AFNE01.JPG,AFNE01.JPG,,,,,,,,,4,8,48,9,,,,,,,,,,,,,,,AMNE05.jpg,AMNE02.jpg,AMSA16.jpg,AMSA08.jpg,AMNE02.jpg,MN,1,num_6,16,num_6,3.88320421986,,,2018_Mar_06_1843,60.0099894269,MAFE4ImagesEEG,001,103329,
AFNE01.JPG,AFNE01.JPG,AFNE01.JPG,AFNE01.JPG,AFNE01.JPG,AFNE01.JPG,,,,,,,,,4,9,49,3,,,,,,,,,,,,,,,AMSA19.jpg,AMNE06.jpg,AMNE16.jpg,AMSA16.jpg,AMSA16.jpg,MS,2,num_4,16,num_4,0.900136666838,,,2018_Mar_06_1843,60.0099894269,MAFE4ImagesEEG,001,103329,
AFNE01.JPG,AFNE01.JPG,AFNE01.JPG,AFNE01.JPG,AFNE01.JPG,AFNE01.JPG,,,,,,,,,5,0,50,6,,,,,,,,,,,,,,,AMNE10.jpg,AMNE05.jpg,AMSA08.jpg,AMSA17.jpg,AMNE10.jpg,MN,1,num_8,32,num_6,3.84959463426,,,2018_Mar_06_1843,60.0099894269,MAFE4ImagesEEG,001,103329,
AFNE01.JPG,AFNE01.JPG,AFNE01.JPG,AFNE01.JPG,AFNE01.JPG,AFNE01.JPG,,,,,,,,,5,1,51,1,,,,,,,,,,,,,,,AMSA20.jpg,AMSA06.jpg,AMNE03.jpg,AMNE02.jpg,AMSA20.jpg,MS,2,num_8,32,num_6,0.666835695971,,,2018_Mar_06_1843,60.0099894269,MAFE4ImagesEEG,001,103329,
AFNE01.JPG,AFNE01.JPG,AFNE01.JPG,AFNE01.JPG,AFNE01.JPG,AFNE01.JPG,,,,,,,,,5,2,52,9,,,,,,,,,,,,,,,AMNE12.jpg,AMSA07.jpg,AMSA02.jpg,AMNE15.jpg,AMSA07.jpg,MS,2,num_6,16,num_6,0.500178491231,,,2018_Mar_06_1843,60.0099894269,MAFE4ImagesEEG,001,103329,
AFNE01.JPG,AFNE01.JPG,AFNE01.JPG,AFNE01.JPG,AFNE01.JPG,AFNE01.JPG,,,,,,,,,5,3,53,2,,,,,,,,,,,,,,,AMSA17.jpg,AMNE17.jpg,AMNE04.jpg,AMSA16.jpg,AMSA16.jpg,MS,2,num_4,32,num_8,0.933452134952,,,2018_Mar_06_1843,60.0099894269,MAFE4ImagesEEG,001,103329,
AFNE01.JPG,AFNE01.JPG,AFNE01.JPG,AFNE01.JPG,AFNE01.JPG,AFNE01.JPG,,,,,,,,,5,4,54,7,,,,,,,,,,,,,,,AMNE10.jpg,AMSA02.jpg,AMSA06.jpg,AMNE09.jpg,AMSA06.jpg,MS,2,num_2,32,num_8,0.933444757946,,,2018_Mar_06_1843,60.0099894269,MAFE4ImagesEEG,001,103329,
AFNE01.JPG,AFNE01.JPG,AFNE01.JPG,AFNE01.JPG,AFNE01.JPG,AFNE01.JPG,,,,,,,,,5,5,55,0,,,,,,,,,,,,,,,AMNE05.jpg,AMSA15.jpg,AMNE04.jpg,AMSA09.jpg,AMNE04.jpg,MN,1,num_2,32,num_6,0.650136746932,,,2018_Mar_06_1843,60.0099894269,MAFE4ImagesEEG,001,103329,
AFNE01.JPG,AFNE01.JPG,AFNE01.JPG,AFNE01.JPG,AFNE01.JPG,AFNE01.JPG,,,,,,,,,5,6,56,5,,,,,,,,,,,,,,,AMSA07.jpg,AMNE05.jpg,AMSA14.jpg,AMNE19.jpg,AMNE05.jpg,MN,1,num_6,16,num_6,1.10008785035,,,2018_Mar_06_1843,60.0099894269,MAFE4ImagesEEG,001,103329,
AFNE01.JPG,AFNE01.JPG,AFNE01.JPG,AFNE01.JPG,AFNE01.JPG,AFNE01.JPG,,,,,,,,,5,7,57,4,,,,,,,,,,,,,,,AMNE09.jpg,AMSA07.jpg,AMNE19.jpg,AMSA05.jpg,AMSA05.jpg,MS,2,num_4,32,num_6,3.08331384859,,,2018_Mar_06_1843,60.0099894269,MAFE4ImagesEEG,001,103329,
AFNE01.JPG,AFNE01.JPG,AFNE01.JPG,AFNE01.JPG,AFNE01.JPG,AFNE01.JPG,,,,,,,,,5,8,58,8,,,,,,,,,,,,,,,AMSA14.jpg,AMNE08.jpg,AMNE12.jpg,AMSA20.jpg,AMSA20.jpg,MS,2,num_4,16,num_4,0.783550008433,,,2018_Mar_06_1843,60.0099894269,MAFE4ImagesEEG,001,103329,
AFNE01.JPG,AFNE01.JPG,AFNE01.JPG,AFNE01.JPG,AFNE01.JPG,AFNE01.JPG,,,,,,,,,5,9,59,3,,,,,,,,,,,,,,,AMNE05.jpg,AMSA03.jpg,AMSA12.jpg,AMNE19.jpg,AMSA03.jpg,MS,2,num_6,16,num_6,0.733497423353,,,2018_Mar_06_1843,60.0099894269,MAFE4ImagesEEG,001,103329,
,,,,,,,,,,,,,,,,,,,,,,,,,,,,,,,,,,,,,,,,,,,space,23.4816375389,2018_Mar_06_1843,60.0099894269,MAFE4ImagesEEG,001,103329,
AFNE01.JPG,AFNE01.JPG,AFNE01.JPG,AFNE01.JPG,AFNE01.JPG,AFNE01.JPG,,,,,,,,,,,,,0,0,0,8,,,,,,,,,,,AFNE06.jpg,AFSA06.jpg,AFNE05.jpg,AFSA04.jpg,AFNE06.jpg,FN,3,num_8,32,num_2,1.01672749477,,,2018_Mar_06_1843,60.0099894269,MAFE4ImagesEEG,001,103329,
AFNE01.JPG,AFNE01.JPG,AFNE01.JPG,AFNE01.JPG,AFNE01.JPG,AFNE01.JPG,,,,,,,,,,,,,0,1,1,6,,,,,,,,,,,AFSA06.jpg,AFSA18.jpg,AFNE04.jpg,AFNE15.jpg,AFSA06.jpg,FS,4,num_8,16,num_8,0.833440299844,,,2018_Mar_06_1843,60.0099894269,MAFE4ImagesEEG,001,103329,
AFNE01.JPG,AFNE01.JPG,AFNE01.JPG,AFNE01.JPG,AFNE01.JPG,AFNE01.JPG,,,,,,,,,,,,,0,2,2,9,,,,,,,,,,,AFNE06.jpg,AFNE14.jpg,AFSA06.jpg,AFSA17.jpg,AFNE06.jpg,FN,3,num_8,16,num_8,0.600174931111,,,2018_Mar_06_1843,60.0099894269,MAFE4ImagesEEG,001,103329,
AFNE01.JPG,AFNE01.JPG,AFNE01.JPG,AFNE01.JPG,AFNE01.JPG,AFNE01.JPG,,,,,,,,,,,,,0,3,3,3,,,,,,,,,,,AFNE12.jpg,AFSA13.jpg,AFSA06.jpg,AFNE08.jpg,AFSA06.jpg,FS,4,num_2,16,num_2,0.650235534646,,,2018_Mar_06_1843,60.0099894269,MAFE4ImagesEEG,001,103329,
AFNE01.JPG,AFNE01.JPG,AFNE01.JPG,AFNE01.JPG,AFNE01.JPG,AFNE01.JPG,,,,,,,,,,,,,0,4,4,7,,,,,,,,,,,AFNE05.jpg,AFSA07.jpg,AFSA02.jpg,AFNE17.jpg,AFNE05.jpg,FN,3,num_8,16,num_8,1.10008496372,,,2018_Mar_06_1843,60.0099894269,MAFE4ImagesEEG,001,103329,
AFNE01.JPG,AFNE01.JPG,AFNE01.JPG,AFNE01.JPG,AFNE01.JPG,AFNE01.JPG,,,,,,,,,,,,,0,5,5,5,,,,,,,,,,,AFNE05.jpg,AFSA03.jpg,AFSA04.jpg,AFNE02.jpg,AFNE05.jpg,FN,3,num_8,16,num_8,0.666807470843,,,2018_Mar_06_1843,60.0099894269,MAFE4ImagesEEG,001,103329,
AFNE01.JPG,AFNE01.JPG,AFNE01.JPG,AFNE01.JPG,AFNE01.JPG,AFNE01.JPG,,,,,,,,,,,,,0,6,6,4,,,,,,,,,,,AFSA20.jpg,AFNE12.jpg,AFSA04.jpg,AFNE13.jpg,AFNE12.jpg,FN,3,num_6,16,num_6,0.866788803833,,,2018_Mar_06_1843,60.0099894269,MAFE4ImagesEEG,001,103329,
AFNE01.JPG,AFNE01.JPG,AFNE01.JPG,AFNE01.JPG,AFNE01.JPG,AFNE01.JPG,,,,,,,,,,,,,0,7,7,2,,,,,,,,,,,AFSA18.jpg,AFSA12.jpg,AFNE04.jpg,AFNE01.jpg,AFSA12.jpg,FS,4,num_6,16,num_6,2.43335671513,,,2018_Mar_06_1843,60.0099894269,MAFE4ImagesEEG,001,103329,
AFNE01.JPG,AFNE01.JPG,AFNE01.JPG,AFNE01.JPG,AFNE01.JPG,AFNE01.JPG,,,,,,,,,,,,,0,8,8,0,,,,,,,,,,,AFNE11.jpg,AFSA09.jpg,AFNE09.jpg,AFSA02.jpg,AFSA02.jpg,FS,4,num_4,16,num_4,2.30005699513,,,2018_Mar_06_1843,60.0099894269,MAFE4ImagesEEG,001,103329,
AFNE01.JPG,AFNE01.JPG,AFNE01.JPG,AFNE01.JPG,AFNE01.JPG,AFNE01.JPG,,,,,,,,,,,,,0,9,9,1,,,,,,,,,,,AFSA16.jpg,AFNE01.jpg,AFNE12.jpg,AFSA15.jpg,AFSA15.jpg,FS,4,num_4,32,num_8,1.00033837953,,,2018_Mar_06_1843,60.0099894269,MAFE4ImagesEEG,001,103329,
AFNE01.JPG,AFNE01.JPG,AFNE01.JPG,AFNE01.JPG,AFNE01.JPG,AFNE01.JPG,,,,,,,,,,,,,1,0,10,1,,,,,,,,,,,AFNE04.jpg,AFNE14.jpg,AFSA13.jpg,AFSA18.jpg,AFNE14.jpg,FN,3,num_6,16,num_6,1.63342336472,,,2018_Mar_06_1843,60.0099894269,MAFE4ImagesEEG,001,103329,
AFNE01.JPG,AFNE01.JPG,AFNE01.JPG,AFNE01.JPG,AFNE01.JPG,AFNE01.JPG,,,,,,,,,,,,,1,1,11,6,,,,,,,,,,,AFSA08.jpg,AFNE12.jpg,AFSA19.jpg,AFNE11.jpg,AFSA08.jpg,FS,4,num_8,32,num_2,1.76670319866,,,2018_Mar_06_1843,60.0099894269,MAFE4ImagesEEG,001,103329,
AFNE01.JPG,AFNE01.JPG,AFNE01.JPG,AFNE01.JPG,AFNE01.JPG,AFNE01.JPG,,,,,,,,,,,,,1,2,12,3,,,,,,,,,,,AFNE04.jpg,AFSA18.jpg,AFSA03.jpg,AFNE09.jpg,AFSA03.jpg,FS,4,num_2,32,num_8,1.41675302549,,,2018_Mar_06_1843,60.0099894269,MAFE4ImagesEEG,001,103329,
AFNE01.JPG,AFNE01.JPG,AFNE01.JPG,AFNE01.JPG,AFNE01.JPG,AFNE01.JPG,,,,,,,,,,,,,1,3,13,0,,,,,,,,,,,AFSA09.jpg,AFSA05.jpg,AFNE05.jpg,AFNE15.jpg,AFNE05.jpg,FN,3,num_2,16,num_2,1.11677012104,,,2018_Mar_06_1843,60.0099894269,MAFE4ImagesEEG,001,103329,
AFNE01.JPG,AFNE01.JPG,AFNE01.JPG,AFNE01.JPG,AFNE01.JPG,AFNE01.JPG,,,,,,,,,,,,,1,4,14,4,,,,,,,,,,,AFNE19.jpg,AFSA12.jpg,AFNE14.jpg,AFSA16.jpg,AFSA16.jpg,FS,4,num_4,32,num_2,1.11673548119,,,2018_Mar_06_1843,60.0099894269,MAFE4ImagesEEG,001,103329,
AFNE01.JPG,AFNE01.JPG,AFNE01.JPG,AFNE01.JPG,AFNE01.JPG,AFNE01.JPG,,,,,,,,,,,,,1,5,15,2,,,,,,,,,,,AFNE03.jpg,AFSA05.jpg,AFNE12.jpg,AFSA15.jpg,AFNE03.jpg,FN,3,num_8,32,num_6,0.75014024321,,,2018_Mar_06_1843,60.0099894269,MAFE4ImagesEEG,001,103329,
AFNE01.JPG,AFNE01.JPG,AFNE01.JPG,AFNE01.JPG,AFNE01.JPG,AFNE01.JPG,,,,,,,,,,,,,1,6,16,7,,,,,,,,,,,AFNE03.jpg,AFNE14.jpg,AFSA04.jpg,AFSA20.jpg,AFSA20.jpg,FS,4,num_4,32,num_6,2.39993476169,,,2018_Mar_06_1843,60.0099894269,MAFE4ImagesEEG,001,103329,
AFNE01.JPG,AFNE01.JPG,AFNE01.JPG,AFNE01.JPG,AFNE01.JPG,AFNE01.JPG,,,,,,,,,,,,,1,7,17,9,,,,,,,,,,,AFNE12.jpg,AFSA11.jpg,AFNE04.jpg,AFSA07.jpg,AFNE12.jpg,FN,3,num_8,16,num_8,0.683480761014,,,2018_Mar_06_1843,60.0099894269,MAFE4ImagesEEG,001,103329,
AFNE01.JPG,AFNE01.JPG,AFNE01.JPG,AFNE01.JPG,AFNE01.JPG,AFNE01.JPG,,,,,,,,,,,,,1,8,18,8,,,,,,,,,,,AFSA19.jpg,AFSA16.jpg,AFNE02.jpg,AFNE05.jpg,AFSA16.jpg,FS,4,num_6,32,num_8,0.833482958144,,,2018_Mar_06_1843,60.0099894269,MAFE4ImagesEEG,001,103329,
AFNE01.JPG,AFNE01.JPG,AFNE01.JPG,AFNE01.JPG,AFNE01.JPG,AFNE01.JPG,,,,,,,,,,,,,1,9,19,5,,,,,,,,,,,AFNE13.jpg,AFSA03.jpg,AFSA06.jpg,AFNE08.jpg,AFSA06.jpg,FS,4,num_2,16,num_2,0.750421210425,,,2018_Mar_06_1843,60.0099894269,MAFE4ImagesEEG,001,103329,
AFNE01.JPG,AFNE01.JPG,AFNE01.JPG,AFNE01.JPG,AFNE01.JPG,AFNE01.JPG,,,,,,,,,,,,,2,0,20,9,,,,,,,,,,,AFSA16.jpg,AFNE20.jpg,AFNE06.jpg,AFSA03.jpg,AFNE20.jpg,FN,3,num_6,32,num_8,0.666808433365,,,2018_Mar_06_1843,60.0099894269,MAFE4ImagesEEG,001,103329,
AFNE01.JPG,AFNE01.JPG,AFNE01.JPG,AFNE01.JPG,AFNE01.JPG,AFNE01.JPG,,,,,,,,,,,,,2,1,21,8,,,,,,,,,,,AFSA20.jpg,AFNE14.jpg,AFNE03.jpg,AFSA06.jpg,AFSA06.jpg,FS,4,num_4,16,num_4,0.600143819349,,,2018_Mar_06_1843,60.0099894269,MAFE4ImagesEEG,001,103329,
AFNE01.JPG,AFNE01.JPG,AFNE01.JPG,AFNE01.JPG,AFNE01.JPG,AFNE01.JPG,,,,,,,,,,,,,2,2,22,6,,,,,,,,,,,AFSA02.jpg,AFNE01.jpg,AFSA14.jpg,AFNE03.jpg,AFSA14.jpg,FS,4,num_2,16,num_2,1.10008496372,,,2018_Mar_06_1843,60.0099894269,MAFE4ImagesEEG,001,103329,
AFNE01.JPG,AFNE01.JPG,AFNE01.JPG,AFNE01.JPG,AFNE01.JPG,AFNE01.JPG,,,,,,,,,,,,,2,3,23,7,,,,,,,,,,,AFNE13.jpg,AFSA08.jpg,AFNE14.jpg,AFSA01.jpg,AFNE13.jpg,FN,3,num_8,32,num_4,2.03339853976,,,2018_Mar_06_1843,60.0099894269,MAFE4ImagesEEG,001,103329,
AFNE01.JPG,AFNE01.JPG,AFNE01.JPG,AFNE01.JPG,AFNE01.JPG,AFNE01.JPG,,,,,,,,,,,,,2,4,24,1,,,,,,,,,,,AFNE11.jpg,AFSA08.jpg,AFNE02.jpg,AFSA19.jpg,AFSA19.jpg,FS,4,num_4,16,num_4,2.06667776429,,,2018_Mar_06_1843,60.0099894269,MAFE4ImagesEEG,001,103329,
AFNE01.JPG,AFNE01.JPG,AFNE01.JPG,AFNE01.JPG,AFNE01.JPG,AFNE01.JPG,,,,,,,,,,,,,2,5,25,4,,,,,,,,,,,AFNE17.jpg,AFNE03.jpg,AFSA03.jpg,AFSA02.jpg,AFNE03.jpg,FN,3,num_6,32,num_8,1.08346716175,,,2018_Mar_06_1843,60.0099894269,MAFE4ImagesEEG,001,103329,
AFNE01.JPG,AFNE01.JPG,AFNE01.JPG,AFNE01.JPG,AFNE01.JPG,AFNE01.JPG,,,,,,,,,,,,,2,6,26,3,,,,,,,,,,,AFNE06.jpg,AFSA11.jpg,AFSA17.jpg,AFNE17.jpg,AFNE17.jpg,FN,3,num_4,32,num_6,0.866793294437,,,2018_Mar_06_1843,60.0099894269,MAFE4ImagesEEG,001,103329,
AFNE01.JPG,AFNE01.JPG,AFNE01.JPG,AFNE01.JPG,AFNE01.JPG,AFNE01.JPG,,,,,,,,,,,,,2,7,27,2,,,,,,,,,,,AFNE05.jpg,AFSA20.jpg,AFNE09.jpg,AFSA19.jpg,AFSA19.jpg,FS,4,num_4,32,num_8,0.716787569225,,,2018_Mar_06_1843,60.0099894269,MAFE4ImagesEEG,001,103329,
AFNE01.JPG,AFNE01.JPG,AFNE01.JPG,AFNE01.JPG,AFNE01.JPG,AFNE01.JPG,,,,,,,,,,,,,2,8,28,0,,,,,,,,,,,AFNE08.jpg,AFSA14.jpg,AFNE17.jpg,AFSA04.jpg,AFNE17.jpg,FN,3,num_2,32,num_6,2.36666997033,,,2018_Mar_06_1843,60.0099894269,MAFE4ImagesEEG,001,103329,
AFNE01.JPG,AFNE01.JPG,AFNE01.JPG,AFNE01.JPG,AFNE01.JPG,AFNE01.JPG,,,,,,,,,,,,,2,9,29,5,,,,,,,,,,,AFSA12.jpg,AFSA01.jpg,AFNE14.jpg,AFNE07.jpg,AFSA12.jpg,FS,4,num_8,16,num_8,0.383514855523,,,2018_Mar_06_1843,60.0099894269,MAFE4ImagesEEG,001,103329,
AFNE01.JPG,AFNE01.JPG,AFNE01.JPG,AFNE01.JPG,AFNE01.JPG,AFNE01.JPG,,,,,,,,,,,,,3,0,30,6,,,,,,,,,,,AFNE04.jpg,AFNE18.jpg,AFSA03.jpg,AFSA04.jpg,AFNE04.jpg,FN,3,num_8,16,num_8,0.816758991219,,,2018_Mar_06_1843,60.0099894269,MAFE4ImagesEEG,001,103329,
AFNE01.JPG,AFNE01.JPG,AFNE01.JPG,AFNE01.JPG,AFNE01.JPG,AFNE01.JPG,,,,,,,,,,,,,3,1,31,1,,,,,,,,,,,AFNE19.jpg,AFSA08.jpg,AFSA12.jpg,AFNE15.jpg,AFNE15.jpg,FN,3,num_4,32,num_8,0.716817077016,,,2018_Mar_06_1843,60.0099894269,MAFE4ImagesEEG,001,103329,
AFNE01.JPG,AFNE01.JPG,AFNE01.JPG,AFNE01.JPG,AFNE01.JPG,AFNE01.JPG,,,,,,,,,,,,,3,2,32,8,,,,,,,,,,,AFSA10.jpg,AFSA04.jpg,AFNE19.jpg,AFNE18.jpg,AFSA10.jpg,FS,4,num_8,16,num_8,0.783467578702,,,2018_Mar_06_1843,60.0099894269,MAFE4ImagesEEG,001,103329,
AFNE01.JPG,AFNE01.JPG,AFNE01.JPG,AFNE01.JPG,AFNE01.JPG,AFNE01.JPG,,,,,,,,,,,,,3,3,33,7,,,,,,,,,,,AFSA17.jpg,AFNE04.jpg,AFSA13.jpg,AFNE12.jpg,AFNE04.jpg,FN,3,num_6,32,num_8,0.900125761516,,,2018_Mar_06_1843,60.0099894269,MAFE4ImagesEEG,001,103329,
AFNE01.JPG,AFNE01.JPG,AFNE01.JPG,AFNE01.JPG,AFNE01.JPG,AFNE01.JPG,,,,,,,,,,,,,3,4,34,2,,,,,,,,,,,AFSA03.jpg,AFNE06.jpg,AFSA19.jpg,AFNE02.jpg,AFSA03.jpg,FS,4,num_8,32,num_2,0.766770874849,,,2018_Mar_06_1843,60.0099894269,MAFE4ImagesEEG,001,103329,
AFNE01.JPG,AFNE01.JPG,AFNE01.JPG,AFNE01.JPG,AFNE01.JPG,AFNE01.JPG,,,,,,,,,,,,,3,5,35,3,,,,,,,,,,,AFSA13.jpg,AFNE01.jpg,AFSA12.jpg,AFNE12.jpg,AFNE12.jpg,FN,3,num_4,32,num_8,0.633438760182,,,2018_Mar_06_1843,60.0099894269,MAFE4ImagesEEG,001,103329,
AFNE01.JPG,AFNE01.JPG,AFNE01.JPG,AFNE01.JPG,AFNE01.JPG,AFNE01.JPG,,,,,,,,,,,,,3,6,36,5,,,,,,,,,,,AFSA20.jpg,AFNE07.jpg,AFSA14.jpg,AFNE05.jpg,AFNE07.jpg,FN,3,num_6,16,num_6,0.666791113559,,,2018_Mar_06_1843,60.0099894269,MAFE4ImagesEEG,001,103329,
AFNE01.JPG,AFNE01.JPG,AFNE01.JPG,AFNE01.JPG,AFNE01.JPG,AFNE01.JPG,,,,,,,,,,,,,3,7,37,9,,,,,,,,,,,AFNE03.jpg,AFNE14.jpg,AFSA06.jpg,AFSA11.jpg,AFSA06.jpg,FS,4,num_2,16,num_2,0.933444116497,,,2018_Mar_06_1843,60.0099894269,MAFE4ImagesEEG,001,103329,
AFNE01.JPG,AFNE01.JPG,AFNE01.JPG,AFNE01.JPG,AFNE01.JPG,AFNE01.JPG,,,,,,,,,,,,,3,8,38,0,,,,,,,,,,,AFNE01.jpg,AFSA08.jpg,AFNE08.jpg,AFSA20.jpg,AFSA08.jpg,FS,4,num_6,32,num_4,0.966744509991,,,2018_Mar_06_1843,60.0099894269,MAFE4ImagesEEG,001,103329,
AFNE01.JPG,AFNE01.JPG,AFNE01.JPG,AFNE01.JPG,AFNE01.JPG,AFNE01.JPG,,,,,,,,,,,,,3,9,39,4,,,,,,,,,,,AFSA11.jpg,AFNE20.jpg,AFNE10.jpg,AFSA19.jpg,AFNE10.jpg,FN,3,num_2,16,num_2,1.46671003057,,,2018_Mar_06_1843,60.0099894269,MAFE4ImagesEEG,001,103329,
AFNE01.JPG,AFNE01.JPG,AFNE01.JPG,AFNE01.JPG,AFNE01.JPG,AFNE01.JPG,,,,,,,,,,,,,4,0,40,8,,,,,,,,,,,AFSA17.jpg,AFSA10.jpg,AFNE20.jpg,AFNE19.jpg,AFNE19.jpg,FN,3,num_4,16,num_4,0.700156296138,,,2018_Mar_06_1843,60.0099894269,MAFE4ImagesEEG,001,103329,
AFNE01.JPG,AFNE01.JPG,AFNE01.JPG,AFNE01.JPG,AFNE01.JPG,AFNE01.JPG,,,,,,,,,,,,,4,1,41,9,,,,,,,,,,,AFNE13.jpg,AFNE14.jpg,AFSA03.jpg,AFSA19.jpg,AFNE14.jpg,FN,3,num_6,16,num_6,4.76674746093,,,2018_Mar_06_1843,60.0099894269,MAFE4ImagesEEG,001,103329,
AFNE01.JPG,AFNE01.JPG,AFNE01.JPG,AFNE01.JPG,AFNE01.JPG,AFNE01.JPG,,,,,,,,,,,,,4,2,42,4,,,,,,,,,,,AFSA18.jpg,AFNE06.jpg,AFNE04.jpg,AFSA09.jpg,AFNE06.jpg,FN,3,num_6,32,num_2,1.58345962432,,,2018_Mar_06_1843,60.0099894269,MAFE4ImagesEEG,001,103329,
AFNE01.JPG,AFNE01.JPG,AFNE01.JPG,AFNE01.JPG,AFNE01.JPG,AFNE01.JPG,,,,,,,,,,,,,4,3,43,5,,,,,,,,,,,AFNE13.jpg,AFSA10.jpg,AFNE18.jpg,AFSA19.jpg,AFSA19.jpg,FS,4,num_4,16,num_4,0.60012265062,,,2018_Mar_06_1843,60.0099894269,MAFE4ImagesEEG,001,103329,
AFNE01.JPG,AFNE01.JPG,AFNE01.JPG,AFNE01.JPG,AFNE01.JPG,AFNE01.JPG,,,,,,,,,,,,,4,4,44,7,,,,,,,,,,,AFSA14.jpg,AFNE08.jpg,AFSA03.jpg,AFNE14.jpg,AFSA14.jpg,FS,4,num_8,32,num_2,0.900109083159,,,2018_Mar_06_1843,60.0099894269,MAFE4ImagesEEG,001,103329,
AFNE01.JPG,AFNE01.JPG,AFNE01.JPG,AFNE01.JPG,AFNE01.JPG,AFNE01.JPG,,,,,,,,,,,,,4,5,45,2,,,,,,,,,,,AFSA16.jpg,AFNE15.jpg,AFNE08.jpg,AFSA06.jpg,AFNE15.jpg,FN,3,num_6,16,num_6,0.666785340058,,,2018_Mar_06_1843,60.0099894269,MAFE4ImagesEEG,001,103329,
AFNE01.JPG,AFNE01.JPG,AFNE01.JPG,AFNE01.JPG,AFNE01.JPG,AFNE01.JPG,,,,,,,,,,,,,4,6,46,1,,,,,,,,,,,AFNE02.jpg,AFNE04.jpg,AFSA03.jpg,AFSA14.jpg,AFNE04.jpg,FN,3,num_6,32,num_8,1.01676887018,,,2018_Mar_06_1843,60.0099894269,MAFE4ImagesEEG,001,103329,
AFNE01.JPG,AFNE01.JPG,AFNE01.JPG,AFNE01.JPG,AFNE01.JPG,AFNE01.JPG,,,,,,,,,,,,,4,7,47,6,,,,,,,,,,,AFSA10.jpg,AFNE17.jpg,AFSA01.jpg,AFNE07.jpg,AFSA10.jpg,FS,4,num_8,32,num_4,0.950137613108,,,2018_Mar_06_1843,60.0099894269,MAFE4ImagesEEG,001,103329,
AFNE01.JPG,AFNE01.JPG,AFNE01.JPG,AFNE01.JPG,AFNE01.JPG,AFNE01.JPG,,,,,,,,,,,,,4,8,48,3,,,,,,,,,,,AFNE18.jpg,AFSA07.jpg,AFSA13.jpg,AFNE03.jpg,AFNE18.jpg,FN,3,num_8,16,num_8,0.933486774797,,,2018_Mar_06_1843,60.0099894269,MAFE4ImagesEEG,001,103329,
AFNE01.JPG,AFNE01.JPG,AFNE01.JPG,AFNE01.JPG,AFNE01.JPG,AFNE01.JPG,,,,,,,,,,,,,4,9,49,0,,,,,,,,,,,AFNE13.jpg,AFNE17.jpg,AFSA16.jpg,AFSA19.jpg,AFNE13.jpg,FN,3,num_8,32,num_6,2.60001199576,,,2018_Mar_06_1843,60.0099894269,MAFE4ImagesEEG,001,103329,
AFNE01.JPG,AFNE01.JPG,AFNE01.JPG,AFNE01.JPG,AFNE01.JPG,AFNE01.JPG,,,,,,,,,,,,,5,0,50,4,,,,,,,,,,,AFNE13.jpg,AFNE03.jpg,AFSA10.jpg,AFSA07.jpg,AFNE03.jpg,FN,3,num_6,32,num_8,0.950136971427,,,2018_Mar_06_1843,60.0099894269,MAFE4ImagesEEG,001,103329,
AFNE01.JPG,AFNE01.JPG,AFNE01.JPG,AFNE01.JPG,AFNE01.JPG,AFNE01.JPG,,,,,,,,,,,,,5,1,51,0,,,,,,,,,,,AFSA11.jpg,AFNE05.jpg,AFSA14.jpg,AFNE14.jpg,AFSA14.jpg,FS,4,num_2,32,num_6,0.950156216044,,,2018_Mar_06_1843,60.0099894269,MAFE4ImagesEEG,001,103329,
AFNE01.JPG,AFNE01.JPG,AFNE01.JPG,AFNE01.JPG,AFNE01.JPG,AFNE01.JPG,,,,,,,,,,,,,5,2,52,2,,,,,,,,,,,AFNE05.jpg,AFNE20.jpg,AFSA03.jpg,AFSA19.jpg,AFSA03.jpg,FS,4,num_2,16,num_2,1.13342705322,,,2018_Mar_06_1843,60.0099894269,MAFE4ImagesEEG,001,103329,
AFNE01.JPG,AFNE01.JPG,AFNE01.JPG,AFNE01.JPG,AFNE01.JPG,AFNE01.JPG,,,,,,,,,,,,,5,3,53,7,,,,,,,,,,,AFNE06.jpg,AFSA09.jpg,AFSA15.jpg,AFNE20.jpg,AFSA09.jpg,FS,4,num_6,16,num_6,0.750153393252,,,2018_Mar_06_1843,60.0099894269,MAFE4ImagesEEG,001,103329,
AFNE01.JPG,AFNE01.JPG,AFNE01.JPG,AFNE01.JPG,AFNE01.JPG,AFNE01.JPG,,,,,,,,,,,,,5,4,54,9,,,,,,,,,,,AFSA19.jpg,AFSA18.jpg,AFNE05.jpg,AFNE08.jpg,AFNE08.jpg,FN,3,num_4,32,num_6,1.46670586104,,,2018_Mar_06_1843,60.0099894269,MAFE4ImagesEEG,001,103329,
AFNE01.JPG,AFNE01.JPG,AFNE01.JPG,AFNE01.JPG,AFNE01.JPG,AFNE01.JPG,,,,,,,,,,,,,5,5,55,8,,,,,,,,,,,AFNE05.jpg,AFSA17.jpg,AFNE06.jpg,AFSA20.jpg,AFNE06.jpg,FN,3,num_2,32,num_8,0.850109420018,,,2018_Mar_06_1843,60.0099894269,MAFE4ImagesEEG,001,103329,
AFNE01.JPG,AFNE01.JPG,AFNE01.JPG,AFNE01.JPG,AFNE01.JPG,AFNE01.JPG,,,,,,,,,,,,,5,6,56,5,,,,,,,,,,,AFNE17.jpg,AFSA06.jpg,AFSA05.jpg,AFNE15.jpg,AFSA05.jpg,FS,4,num_2,16,num_2,0.433544347296,,,2018_Mar_06_1843,60.0099894269,MAFE4ImagesEEG,001,103329,
AFNE01.JPG,AFNE01.JPG,AFNE01.JPG,AFNE01.JPG,AFNE01.JPG,AFNE01.JPG,,,,,,,,,,,,,5,7,57,6,,,,,,,,,,,AFNE12.jpg,AFSA12.jpg,AFSA07.jpg,AFNE14.jpg,AFSA07.jpg,FS,4,num_2,32,num_6,0.783487785142,,,2018_Mar_06_1843,60.0099894269,MAFE4ImagesEEG,001,103329,
AFNE01.JPG,AFNE01.JPG,AFNE01.JPG,AFNE01.JPG,AFNE01.JPG,AFNE01.JPG,,,,,,,,,,,,,5,8,58,3,,,,,,,,,,,AFNE16.jpg,AFSA02.jpg,AFNE01.jpg,AFSA04.jpg,AFNE16.jpg,FN,3,num_8,32,num_6,0.866815425223,,,2018_Mar_06_1843,60.0099894269,MAFE4ImagesEEG,001,103329,
AFNE01.JPG,AFNE01.JPG,AFNE01.JPG,AFNE01.JPG,AFNE01.JPG,AFNE01.JPG,,,,,,,,,,,,,5,9,59,1,,,,,,,,,,,AFSA03.jpg,AFNE09.jpg,AFSA14.jpg,AFNE14.jpg,AFNE09.jpg,FN,3,num_6,16,num_6,0.750143129611,,,2018_Mar_06_1843,60.0099894269,MAFE4ImagesEEG,001,103329,
,,,,,,,,,,,,,,,,,,,,,,,,,,,,,,,,,,,,,,,,,,,space,29.8477891951,2018_Mar_06_1843,60.0099894269,MAFE4ImagesEEG,001,103329,
AFNE01.JPG,AFNE01.JPG,AFNE01.JPG,AFNE01.JPG,AFNE01.JPG,AFNE01.JPG,,,,,,,,,,,,,,,,,0,0,0,5,,,,,,,AMSA17.jpg,AMSA20.jpg,AMNE03.jpg,AMNE19.jpg,AMSA20.jpg,MS,2,num_6,16,num_6,0.53349075187,,,2018_Mar_06_1843,60.0099894269,MAFE4ImagesEEG,001,103329,
AFNE01.JPG,AFNE01.JPG,AFNE01.JPG,AFNE01.JPG,AFNE01.JPG,AFNE01.JPG,,,,,,,,,,,,,,,,,0,1,1,2,,,,,,,AMSA08.jpg,AMSA02.jpg,AMNE07.jpg,AMNE02.jpg,AMNE02.jpg,MN,1,num_4,32,num_6,0.733502555173,,,2018_Mar_06_1843,60.0099894269,MAFE4ImagesEEG,001,103329,
AFNE01.JPG,AFNE01.JPG,AFNE01.JPG,AFNE01.JPG,AFNE01.JPG,AFNE01.JPG,,,,,,,,,,,,,,,,,0,2,2,6,,,,,,,AMNE11.jpg,AMSA13.jpg,AMNE18.jpg,AMSA05.jpg,AMSA13.jpg,MS,2,num_6,32,num_8,0.48351642699,,,2018_Mar_06_1843,60.0099894269,MAFE4ImagesEEG,001,103329,
AFNE01.JPG,AFNE01.JPG,AFNE01.JPG,AFNE01.JPG,AFNE01.JPG,AFNE01.JPG,,,,,,,,,,,,,,,,,0,3,3,9,,,,,,,AMSA13.jpg,AMNE04.jpg,AMNE06.jpg,AMSA12.jpg,AMSA13.jpg,MS,2,num_8,16,num_8,0.666798169492,,,2018_Mar_06_1843,60.0099894269,MAFE4ImagesEEG,001,103329,
AFNE01.JPG,AFNE01.JPG,AFNE01.JPG,AFNE01.JPG,AFNE01.JPG,AFNE01.JPG,,,,,,,,,,,,,,,,,0,4,4,7,,,,,,,AMNE02.jpg,AMSA01.jpg,AMSA15.jpg,AMNE06.jpg,AMNE02.jpg,MN,1,num_8,16,num_8,1.11681374139,,,2018_Mar_06_1843,60.0099894269,MAFE4ImagesEEG,001,103329,
AFNE01.JPG,AFNE01.JPG,AFNE01.JPG,AFNE01.JPG,AFNE01.JPG,AFNE01.JPG,,,,,,,,,,,,,,,,,0,5,5,4,,,,,,,AMSA10.jpg,AMNE13.jpg,AMNE01.jpg,AMSA11.jpg,AMSA11.jpg,MS,2,num_4,16,num_4,1.03345851763,,,2018_Mar_06_1843,60.0099894269,MAFE4ImagesEEG,001,103329,
AFNE01.JPG,AFNE01.JPG,AFNE01.JPG,AFNE01.JPG,AFNE01.JPG,AFNE01.JPG,,,,,,,,,,,,,,,,,0,6,6,0,,,,,,,AMNE04.jpg,AMNE15.jpg,AMSA14.jpg,AMSA02.jpg,AMSA14.jpg,MS,2,num_2,16,num_2,0.566854330944,,,2018_Mar_06_1843,60.0099894269,MAFE4ImagesEEG,001,103329,
AFNE01.JPG,AFNE01.JPG,AFNE01.JPG,AFNE01.JPG,AFNE01.JPG,AFNE01.JPG,,,,,,,,,,,,,,,,,0,7,7,3,,,,,,,AMSA15.jpg,AMNE17.jpg,AMSA03.jpg,AMNE10.jpg,AMSA03.jpg,MS,2,num_2,16,num_2,0.666796565987,,,2018_Mar_06_1843,60.0099894269,MAFE4ImagesEEG,001,103329,
AFNE01.JPG,AFNE01.JPG,AFNE01.JPG,AFNE01.JPG,AFNE01.JPG,AFNE01.JPG,,,,,,,,,,,,,,,,,0,8,8,1,,,,,,,AMSA01.jpg,AMNE01.jpg,AMSA19.jpg,AMNE07.jpg,AMSA19.jpg,MS,2,num_2,16,num_2,1.06673966674,,,2018_Mar_06_1843,60.0099894269,MAFE4ImagesEEG,001,103329,
AFNE01.JPG,AFNE01.JPG,AFNE01.JPG,AFNE01.JPG,AFNE01.JPG,AFNE01.JPG,,,,,,,,,,,,,,,,,0,9,9,8,,,,,,,AMSA12.jpg,AMSA17.jpg,AMNE12.jpg,AMNE18.jpg,AMNE18.jpg,MN,1,num_4,32,num_8,0.966744189151,,,2018_Mar_06_1843,60.0099894269,MAFE4ImagesEEG,001,103329,
AFNE01.JPG,AFNE01.JPG,AFNE01.JPG,AFNE01.JPG,AFNE01.JPG,AFNE01.JPG,,,,,,,,,,,,,,,,,1,0,10,9,,,,,,,AMNE05.jpg,AMSA11.jpg,AMNE10.jpg,AMSA03.jpg,AMSA03.jpg,MS,2,num_4,16,num_4,1.11678166781,,,2018_Mar_06_1843,60.0099894269,MAFE4ImagesEEG,001,103329,
AFNE01.JPG,AFNE01.JPG,AFNE01.JPG,AFNE01.JPG,AFNE01.JPG,AFNE01.JPG,,,,,,,,,,,,,,,,,1,1,11,2,,,,,,,AMSA10.jpg,AMNE03.jpg,AMNE18.jpg,AMSA18.jpg,AMSA10.jpg,MS,2,num_8,16,num_8,0.916763128713,,,2018_Mar_06_1843,60.0099894269,MAFE4ImagesEEG,001,103329,
AFNE01.JPG,AFNE01.JPG,AFNE01.JPG,AFNE01.JPG,AFNE01.JPG,AFNE01.JPG,,,,,,,,,,,,,,,,,1,2,12,5,,,,,,,AMSA16.jpg,AMNE06.jpg,AMSA10.jpg,AMNE13.jpg,AMNE13.jpg,MN,1,num_4,32,num_8,0.950105859898,,,2018_Mar_06_1843,60.0099894269,MAFE4ImagesEEG,001,103329,
AFNE01.JPG,AFNE01.JPG,AFNE01.JPG,AFNE01.JPG,AFNE01.JPG,AFNE01.JPG,,,,,,,,,,,,,,,,,1,3,13,7,,,,,,,AMSA19.jpg,AMNE14.jpg,AMSA09.jpg,AMNE09.jpg,AMNE14.jpg,MN,1,num_6,32,num_2,0.950106180506,,,2018_Mar_06_1843,60.0099894269,MAFE4ImagesEEG,001,103329,
AFNE01.JPG,AFNE01.JPG,AFNE01.JPG,AFNE01.JPG,AFNE01.JPG,AFNE01.JPG,,,,,,,,,,,,,,,,,1,4,14,1,,,,,,,AMSA04.jpg,AMNE16.jpg,AMSA06.jpg,AMNE01.jpg,AMSA06.jpg,MS,2,num_2,16,num_2,0.4834798628,,,2018_Mar_06_1843,60.0099894269,MAFE4ImagesEEG,001,103329,
AFNE01.JPG,AFNE01.JPG,AFNE01.JPG,AFNE01.JPG,AFNE01.JPG,AFNE01.JPG,,,,,,,,,,,,,,,,,1,5,15,3,,,,,,,AMSA12.jpg,AMNE07.jpg,AMNE11.jpg,AMSA05.jpg,AMSA05.jpg,MS,2,num_4,32,num_6,1.13343988266,,,2018_Mar_06_1843,60.0099894269,MAFE4ImagesEEG,001,103329,
AFNE01.JPG,AFNE01.JPG,AFNE01.JPG,AFNE01.JPG,AFNE01.JPG,AFNE01.JPG,,,,,,,,,,,,,,,,,1,6,16,8,,,,,,,AMSA06.jpg,AMNE11.jpg,AMNE17.jpg,AMSA11.jpg,AMNE17.jpg,MN,1,num_2,32,num_6,3.14996916102,,,2018_Mar_06_1843,60.0099894269,MAFE4ImagesEEG,001,103329,
AFNE01.JPG,AFNE01.JPG,AFNE01.JPG,AFNE01.JPG,AFNE01.JPG,AFNE01.JPG,,,,,,,,,,,,,,,,,1,7,17,4,,,,,,,AMNE02.jpg,AMSA18.jpg,AMNE11.jpg,AMSA14.jpg,AMSA14.jpg,MS,2,num_4,16,num_4,1.08346363343,,,2018_Mar_06_1843,60.0099894269,MAFE4ImagesEEG,001,103329,
AFNE01.JPG,AFNE01.JPG,AFNE01.JPG,AFNE01.JPG,AFNE01.JPG,AFNE01.JPG,,,,,,,,,,,,,,,,,1,8,18,6,,,,,,,AMSA16.jpg,AMNE18.jpg,AMNE09.jpg,AMSA10.jpg,AMNE18.jpg,MN,1,num_6,32,num_2,1.10009618965,,,2018_Mar_06_1843,60.0099894269,MAFE4ImagesEEG,001,103329,
AFNE01.JPG,AFNE01.JPG,AFNE01.JPG,AFNE01.JPG,AFNE01.JPG,AFNE01.JPG,,,,,,,,,,,,,,,,,1,9,19,0,,,,,,,AMSA07.jpg,AMNE17.jpg,AMNE01.jpg,AMSA17.jpg,AMNE17.jpg,MN,1,num_6,32,num_4,1.00010295724,,,2018_Mar_06_1843,60.0099894269,MAFE4ImagesEEG,001,103329,
AFNE01.JPG,AFNE01.JPG,AFNE01.JPG,AFNE01.JPG,AFNE01.JPG,AFNE01.JPG,,,,,,,,,,,,,,,,,2,0,20,5,,,,,,,AMSA05.jpg,AMSA02.jpg,AMNE10.jpg,AMNE01.jpg,AMSA05.jpg,MS,2,num_8,32,num_2,0.950156215811,,,2018_Mar_06_1843,60.0099894269,MAFE4ImagesEEG,001,103329,
AFNE01.JPG,AFNE01.JPG,AFNE01.JPG,AFNE01.JPG,AFNE01.JPG,AFNE01.JPG,,,,,,,,,,,,,,,,,2,1,21,3,,,,,,,AMNE09.jpg,AMSA07.jpg,AMSA19.jpg,AMNE10.jpg,AMSA19.jpg,MS,2,num_2,16,num_2,0.833439016948,,,2018_Mar_06_1843,60.0099894269,MAFE4ImagesEEG,001,103329,
AFNE01.JPG,AFNE01.JPG,AFNE01.JPG,AFNE01.JPG,AFNE01.JPG,AFNE01.JPG,,,,,,,,,,,,,,,,,2,2,22,6,,,,,,,AMSA12.jpg,AMNE04.jpg,AMSA16.jpg,AMNE07.jpg,AMSA16.jpg,MS,2,num_2,32,num_4,0.950144027825,,,2018_Mar_06_1843,60.0099894269,MAFE4ImagesEEG,001,103329,
AFNE01.JPG,AFNE01.JPG,AFNE01.JPG,AFNE01.JPG,AFNE01.JPG,AFNE01.JPG,,,,,,,,,,,,,,,,,2,3,23,4,,,,,,,AMNE12.jpg,AMSA11.jpg,AMNE06.jpg,AMSA09.jpg,AMSA11.jpg,MS,2,num_6,16,num_6,0.633451910457,,,2018_Mar_06_1843,60.0099894269,MAFE4ImagesEEG,001,103329,
AFNE01.JPG,AFNE01.JPG,AFNE01.JPG,AFNE01.JPG,AFNE01.JPG,AFNE01.JPG,,,,,,,,,,,,,,,,,2,4,24,0,,,,,,,AMSA08.jpg,AMNE08.jpg,AMNE19.jpg,AMSA12.jpg,AMSA12.jpg,MS,2,num_4,16,num_4,0.850230659358,,,2018_Mar_06_1843,60.0099894269,MAFE4ImagesEEG,001,103329,
AFNE01.JPG,AFNE01.JPG,AFNE01.JPG,AFNE01.JPG,AFNE01.JPG,AFNE01.JPG,,,,,,,,,,,,,,,,,2,5,25,1,,,,,,,AMNE18.jpg,AMNE08.jpg,AMSA04.jpg,AMSA17.jpg,AMSA04.jpg,MS,2,num_2,16,num_2,0.550173022784,,,2018_Mar_06_1843,60.0099894269,MAFE4ImagesEEG,001,103329,
AFNE01.JPG,AFNE01.JPG,AFNE01.JPG,AFNE01.JPG,AFNE01.JPG,AFNE01.JPG,,,,,,,,,,,,,,,,,2,6,26,9,,,,,,,AMSA16.jpg,AMSA06.jpg,AMNE03.jpg,AMNE14.jpg,AMSA06.jpg,MS,2,num_6,16,num_6,0.950112274615,,,2018_Mar_06_1843,60.0099894269,MAFE4ImagesEEG,001,103329,
AFNE01.JPG,AFNE01.JPG,AFNE01.JPG,AFNE01.JPG,AFNE01.JPG,AFNE01.JPG,,,,,,,,,,,,,,,,,2,7,27,2,,,,,,,AMNE18.jpg,AMSA18.jpg,AMSA17.jpg,AMNE05.jpg,AMNE05.jpg,MN,1,num_4,16,num_4,0.750168788945,,,2018_Mar_06_1843,60.0099894269,MAFE4ImagesEEG,001,103329,
AFNE01.JPG,AFNE01.JPG,AFNE01.JPG,AFNE01.JPG,AFNE01.JPG,AFNE01.JPG,,,,,,,,,,,,,,,,,2,8,28,7,,,,,,,AMSA18.jpg,AMNE10.jpg,AMSA05.jpg,AMNE18.jpg,AMSA05.jpg,MS,2,num_2,16,num_2,0.950217477046,,,2018_Mar_06_1843,60.0099894269,MAFE4ImagesEEG,001,103329,
AFNE01.JPG,AFNE01.JPG,AFNE01.JPG,AFNE01.JPG,AFNE01.JPG,AFNE01.JPG,,,,,,,,,,,,,,,,,2,9,29,8,,,,,,,AMSA09.jpg,AMNE04.jpg,AMNE10.jpg,AMSA02.jpg,AMNE10.jpg,MN,1,num_2,16,num_2,0.866754805669,,,2018_Mar_06_1843,60.0099894269,MAFE4ImagesEEG,001,103329,
AFNE01.JPG,AFNE01.JPG,AFNE01.JPG,AFNE01.JPG,AFNE01.JPG,AFNE01.JPG,,,,,,,,,,,,,,,,,3,0,30,6,,,,,,,AMSA16.jpg,AMNE04.jpg,AMSA17.jpg,AMNE09.jpg,AMNE04.jpg,MN,1,num_6,16,num_6,0.783465333283,,,2018_Mar_06_1843,60.0099894269,MAFE4ImagesEEG,001,103329,
AFNE01.JPG,AFNE01.JPG,AFNE01.JPG,AFNE01.JPG,AFNE01.JPG,AFNE01.JPG,,,,,,,,,,,,,,,,,3,1,31,7,,,,,,,AMNE13.jpg,AMNE06.jpg,AMSA01.jpg,AMSA05.jpg,AMNE13.jpg,MN,1,num_8,16,num_8,4.66648160038,,,2018_Mar_06_1843,60.0099894269,MAFE4ImagesEEG,001,103329,
AFNE01.JPG,AFNE01.JPG,AFNE01.JPG,AFNE01.JPG,AFNE01.JPG,AFNE01.JPG,,,,,,,,,,,,,,,,,3,2,32,5,,,,,,,AMNE03.jpg,AMNE15.jpg,AMSA07.jpg,AMSA15.jpg,AMSA07.jpg,MS,2,num_2,16,num_2,0.666787264403,,,2018_Mar_06_1843,60.0099894269,MAFE4ImagesEEG,001,103329,
AFNE01.JPG,AFNE01.JPG,AFNE01.JPG,AFNE01.JPG,AFNE01.JPG,AFNE01.JPG,,,,,,,,,,,,,,,,,3,3,33,4,,,,,,,AMNE18.jpg,AMSA02.jpg,AMNE06.jpg,AMSA20.jpg,AMNE18.jpg,MN,1,num_8,16,num_8,0.950184761779,,,2018_Mar_06_1843,60.0099894269,MAFE4ImagesEEG,001,103329,
AFNE01.JPG,AFNE01.JPG,AFNE01.JPG,AFNE01.JPG,AFNE01.JPG,AFNE01.JPG,,,,,,,,,,,,,,,,,3,4,34,0,,,,,,,AMSA10.jpg,AMSA20.jpg,AMNE17.jpg,AMNE16.jpg,AMSA10.jpg,MS,2,num_8,16,num_8,0.850178058259,,,2018_Mar_06_1843,60.0099894269,MAFE4ImagesEEG,001,103329,
AFNE01.JPG,AFNE01.JPG,AFNE01.JPG,AFNE01.JPG,AFNE01.JPG,AFNE01.JPG,,,,,,,,,,,,,,,,,3,5,35,3,,,,,,,AMSA13.jpg,AMNE17.jpg,AMSA15.jpg,AMNE02.jpg,AMSA13.jpg,MS,2,num_8,16,num_8,1.28339653485,,,2018_Mar_06_1843,60.0099894269,MAFE4ImagesEEG,001,103329,
AFNE01.JPG,AFNE01.JPG,AFNE01.JPG,AFNE01.JPG,AFNE01.JPG,AFNE01.JPG,,,,,,,,,,,,,,,,,3,6,36,8,,,,,,,AMNE05.jpg,AMSA11.jpg,AMNE20.jpg,AMSA12.jpg,AMSA12.jpg,MS,2,num_4,32,num_2,0.650124238105,,,2018_Mar_06_1843,60.0099894269,MAFE4ImagesEEG,001,103329,
AFNE01.JPG,AFNE01.JPG,AFNE01.JPG,AFNE01.JPG,AFNE01.JPG,AFNE01.JPG,,,,,,,,,,,,,,,,,3,7,37,1,,,,,,,AMNE13.jpg,AMNE11.jpg,AMSA14.jpg,AMSA13.jpg,AMNE13.jpg,MN,1,num_8,16,num_8,1.18313933443,,,2018_Mar_06_1843,60.0099894269,MAFE4ImagesEEG,001,103329,
AFNE01.JPG,AFNE01.JPG,AFNE01.JPG,AFNE01.JPG,AFNE01.JPG,AFNE01.JPG,,,,,,,,,,,,,,,,,3,8,38,9,,,,,,,AMSA19.jpg,AMNE19.jpg,AMSA18.jpg,AMNE08.jpg,AMNE19.jpg,MN,1,num_6,16,num_6,0.800114567857,,,2018_Mar_06_1843,60.0099894269,MAFE4ImagesEEG,001,103329,
AFNE01.JPG,AFNE01.JPG,AFNE01.JPG,AFNE01.JPG,AFNE01.JPG,AFNE01.JPG,,,,,,,,,,,,,,,,,3,9,39,2,,,,,,,AMNE04.jpg,AMSA11.jpg,AMNE03.jpg,AMSA12.jpg,AMNE04.jpg,MN,1,num_8,16,num_8,0.450164073845,,,2018_Mar_06_1843,60.0099894269,MAFE4ImagesEEG,001,103329,
AFNE01.JPG,AFNE01.JPG,AFNE01.JPG,AFNE01.JPG,AFNE01.JPG,AFNE01.JPG,,,,,,,,,,,,,,,,,4,0,40,3,,,,,,,AMSA01.jpg,AMNE14.jpg,AMSA05.jpg,AMNE16.jpg,AMNE14.jpg,MN,1,num_6,16,num_6,0.650160160847,,,2018_Mar_06_1843,60.0099894269,MAFE4ImagesEEG,001,103329,
AFNE01.JPG,AFNE01.JPG,AFNE01.JPG,AFNE01.JPG,AFNE01.JPG,AFNE01.JPG,,,,,,,,,,,,,,,,,4,1,41,9,,,,,,,AMSA18.jpg,AMNE04.jpg,AMNE14.jpg,AMSA17.jpg,AMNE04.jpg,MN,1,num_6,16,num_6,0.916786863701,,,2018_Mar_06_1843,60.0099894269,MAFE4ImagesEEG,001,103329,
AFNE01.JPG,AFNE01.JPG,AFNE01.JPG,AFNE01.JPG,AFNE01.JPG,AFNE01.JPG,,,,,,,,,,,,,,,,,4,2,42,7,,,,,,,AMSA15.jpg,AMNE10.jpg,AMNE14.jpg,AMSA09.jpg,AMSA09.jpg,MS,2,num_4,32,num_8,2.29999156459,,,2018_Mar_06_1843,60.0099894269,MAFE4ImagesEEG,001,103329,
AFNE01.JPG,AFNE01.JPG,AFNE01.JPG,AFNE01.JPG,AFNE01.JPG,AFNE01.JPG,,,,,,,,,,,,,,,,,4,3,43,0,,,,,,,AMSA05.jpg,AMNE07.jpg,AMNE04.jpg,AMSA06.jpg,AMNE04.jpg,MN,1,num_2,16,num_2,0.433501047548,,,2018_Mar_06_1843,60.0099894269,MAFE4ImagesEEG,001,103329,
AFNE01.JPG,AFNE01.JPG,AFNE01.JPG,AFNE01.JPG,AFNE01.JPG,AFNE01.JPG,,,,,,,,,,,,,,,,,4,4,44,4,,,,,,,AMSA12.jpg,AMNE20.jpg,AMSA01.jpg,AMNE17.jpg,AMNE17.jpg,MN,1,num_4,16,num_4,0.55014704261,,,2018_Mar_06_1843,60.0099894269,MAFE4ImagesEEG,001,103329,
AFNE01.JPG,AFNE01.JPG,AFNE01.JPG,AFNE01.JPG,AFNE01.JPG,AFNE01.JPG,,,,,,,,,,,,,,,,,4,5,45,2,,,,,,,AMSA12.jpg,AMNE05.jpg,AMNE03.jpg,AMSA02.jpg,AMNE05.jpg,MN,1,num_6,16,num_6,1.03343702829,,,2018_Mar_06_1843,60.0099894269,MAFE4ImagesEEG,001,103329,
AFNE01.JPG,AFNE01.JPG,AFNE01.JPG,AFNE01.JPG,AFNE01.JPG,AFNE01.JPG,,,,,,,,,,,,,,,,,4,6,46,8,,,,,,,AMNE11.jpg,AMNE18.jpg,AMSA12.jpg,AMSA02.jpg,AMSA12.jpg,MS,2,num_2,32,num_8,0.716782437405,,,2018_Mar_06_1843,60.0099894269,MAFE4ImagesEEG,001,103329,
AFNE01.JPG,AFNE01.JPG,AFNE01.JPG,AFNE01.JPG,AFNE01.JPG,AFNE01.JPG,,,,,,,,,,,,,,,,,4,7,47,6,,,,,,,AMNE13.jpg,AMNE01.jpg,AMSA16.jpg,AMSA20.jpg,AMSA16.jpg,MS,2,num_2,32,num_4,2.05002468103,,,2018_Mar_06_1843,60.0099894269,MAFE4ImagesEEG,001,103329,
AFNE01.JPG,AFNE01.JPG,AFNE01.JPG,AFNE01.JPG,AFNE01.JPG,AFNE01.JPG,,,,,,,,,,,,,,,,,4,8,48,1,,,,,,,AMSA07.jpg,AMNE16.jpg,AMNE06.jpg,AMSA03.jpg,AMNE16.jpg,MN,1,num_6,32,num_2,1.11653918913,,,2018_Mar_06_1843,60.0099894269,MAFE4ImagesEEG,001,103329,
AFNE01.JPG,AFNE01.JPG,AFNE01.JPG,AFNE01.JPG,AFNE01.JPG,AFNE01.JPG,,,,,,,,,,,,,,,,,4,9,49,5,,,,,,,AMNE18.jpg,AMSA11.jpg,AMNE15.jpg,AMSA07.jpg,AMNE15.jpg,MN,1,num_2,16,num_2,0.916768902214,,,2018_Mar_06_1843,60.0099894269,MAFE4ImagesEEG,001,103329,
AFNE01.JPG,AFNE01.JPG,AFNE01.JPG,AFNE01.JPG,AFNE01.JPG,AFNE01.JPG,,,,,,,,,,,,,,,,,5,0,50,7,,,,,,,AMSA01.jpg,AMSA07.jpg,AMNE20.jpg,AMNE19.jpg,AMSA07.jpg,MS,2,num_6,16,num_6,1.00010712678,,,2018_Mar_06_1843,60.0099894269,MAFE4ImagesEEG,001,103329,
AFNE01.JPG,AFNE01.JPG,AFNE01.JPG,AFNE01.JPG,AFNE01.JPG,AFNE01.JPG,,,,,,,,,,,,,,,,,5,1,51,0,,,,,,,AMSA17.jpg,AMNE16.jpg,AMSA13.jpg,AMNE07.jpg,AMNE07.jpg,MN,1,num_4,32,num_8,0.733526610537,,,2018_Mar_06_1843,60.0099894269,MAFE4ImagesEEG,001,103329,
AFNE01.JPG,AFNE01.JPG,AFNE01.JPG,AFNE01.JPG,AFNE01.JPG,AFNE01.JPG,,,,,,,,,,,,,,,,,5,2,52,5,,,,,,,AMSA12.jpg,AMNE03.jpg,AMSA17.jpg,AMNE10.jpg,AMNE10.jpg,MN,1,num_4,16,num_4,0.783490351168,,,2018_Mar_06_1843,60.0099894269,MAFE4ImagesEEG,001,103329,
AFNE01.JPG,AFNE01.JPG,AFNE01.JPG,AFNE01.JPG,AFNE01.JPG,AFNE01.JPG,,,,,,,,,,,,,,,,,5,3,53,6,,,,,,,AMSA14.jpg,AMNE10.jpg,AMSA12.jpg,AMNE16.jpg,AMSA12.jpg,MS,2,num_2,16,num_2,1.00010808883,,,2018_Mar_06_1843,60.0099894269,MAFE4ImagesEEG,001,103329,
AFNE01.JPG,AFNE01.JPG,AFNE01.JPG,AFNE01.JPG,AFNE01.JPG,AFNE01.JPG,,,,,,,,,,,,,,,,,5,4,54,3,,,,,,,AMNE14.jpg,AMNE01.jpg,AMSA03.jpg,AMSA15.jpg,AMNE14.jpg,MN,1,num_8,16,num_8,0.783354999032,,,2018_Mar_06_1843,60.0099894269,MAFE4ImagesEEG,001,103329,
AFNE01.JPG,AFNE01.JPG,AFNE01.JPG,AFNE01.JPG,AFNE01.JPG,AFNE01.JPG,,,,,,,,,,,,,,,,,5,5,55,9,,,,,,,AMSA13.jpg,AMNE05.jpg,AMNE12.jpg,AMSA15.jpg,AMSA13.jpg,MS,2,num_8,16,num_8,0.75013896008,,,2018_Mar_06_1843,60.0099894269,MAFE4ImagesEEG,001,103329,
AFNE01.JPG,AFNE01.JPG,AFNE01.JPG,AFNE01.JPG,AFNE01.JPG,AFNE01.JPG,,,,,,,,,,,,,,,,,5,6,56,2,,,,,,,AMSA17.jpg,AMNE04.jpg,AMNE06.jpg,AMSA11.jpg,AMSA17.jpg,MS,2,num_8,32,num_6,3.01657931344,,,2018_Mar_06_1843,60.0099894269,MAFE4ImagesEEG,001,103329,
AFNE01.JPG,AFNE01.JPG,AFNE01.JPG,AFNE01.JPG,AFNE01.JPG,AFNE01.JPG,,,,,,,,,,,,,,,,,5,7,57,4,,,,,,,AMNE09.jpg,AMNE17.jpg,AMSA07.jpg,AMSA10.jpg,AMNE09.jpg,MN,1,num_8,16,num_8,0.650188065134,,,2018_Mar_06_1843,60.0099894269,MAFE4ImagesEEG,001,103329,
AFNE01.JPG,AFNE01.JPG,AFNE01.JPG,AFNE01.JPG,AFNE01.JPG,AFNE01.JPG,,,,,,,,,,,,,,,,,5,8,58,8,,,,,,,AMNE16.jpg,AMSA10.jpg,AMSA05.jpg,AMNE07.jpg,AMSA10.jpg,MS,2,num_6,32,num_4,0.833485203329,,,2018_Mar_06_1843,60.0099894269,MAFE4ImagesEEG,001,103329,
AFNE01.JPG,AFNE01.JPG,AFNE01.JPG,AFNE01.JPG,AFNE01.JPG,AFNE01.JPG,,,,,,,,,,,,,,,,,5,9,59,1,,,,,,,AMSA02.jpg,AMNE14.jpg,AMNE12.jpg,AMSA07.jpg,AMNE14.jpg,MN,1,num_6,16,num_6,1.06653535622,,,2018_Mar_06_1843,60.0099894269,MAFE4ImagesEEG,001,103329,
,,,,,,,,,,,,,,,,,,,,,,,,,,,,,,,,,,,,,,,,,,,space,19.9655080617,2018_Mar_06_1843,60.0099894269,MAFE4ImagesEEG,001,103329,
AFNE01.JPG,AFNE01.JPG,AFNE01.JPG,AFNE01.JPG,AFNE01.JPG,AFNE01.JPG,,,,,,,,,,,,,,,,,,,,,0,0,0,1,,,AFSA12.jpg,AFSA03.jpg,AFNE20.jpg,AFNE13.jpg,AFNE20.jpg,FN,3,num_2,32,num_8,0.733452840708,,,2018_Mar_06_1843,60.0099894269,MAFE4ImagesEEG,001,103329,
AFNE01.JPG,AFNE01.JPG,AFNE01.JPG,AFNE01.JPG,AFNE01.JPG,AFNE01.JPG,,,,,,,,,,,,,,,,,,,,,0,1,1,0,,,AFNE07.jpg,AFSA04.jpg,AFNE18.jpg,AFSA12.jpg,AFSA12.jpg,FS,4,num_4,16,num_4,0.433530555805,,,2018_Mar_06_1843,60.0099894269,MAFE4ImagesEEG,001,103329,
AFNE01.JPG,AFNE01.JPG,AFNE01.JPG,AFNE01.JPG,AFNE01.JPG,AFNE01.JPG,,,,,,,,,,,,,,,,,,,,,0,2,2,8,,,AFNE02.jpg,AFSA14.jpg,AFNE15.jpg,AFSA05.jpg,AFNE02.jpg,FN,3,num_8,16,num_8,0.650266646408,,,2018_Mar_06_1843,60.0099894269,MAFE4ImagesEEG,001,103329,
AFNE01.JPG,AFNE01.JPG,AFNE01.JPG,AFNE01.JPG,AFNE01.JPG,AFNE01.JPG,,,,,,,,,,,,,,,,,,,,,0,3,3,4,,,AFNE18.jpg,AFNE01.jpg,AFSA18.jpg,AFSA02.jpg,AFNE18.jpg,FN,3,num_8,16,num_8,0.583593372256,,,2018_Mar_06_1843,60.0099894269,MAFE4ImagesEEG,001,103329,
AFNE01.JPG,AFNE01.JPG,AFNE01.JPG,AFNE01.JPG,AFNE01.JPG,AFNE01.JPG,,,,,,,,,,,,,,,,,,,,,0,4,4,6,,,AFSA06.jpg,AFNE15.jpg,AFSA13.jpg,AFNE18.jpg,AFNE15.jpg,FN,3,num_6,16,num_6,0.500298768282,,,2018_Mar_06_1843,60.0099894269,MAFE4ImagesEEG,001,103329,
AFNE01.JPG,AFNE01.JPG,AFNE01.JPG,AFNE01.JPG,AFNE01.JPG,AFNE01.JPG,,,,,,,,,,,,,,,,,,,,,0,5,5,5,,,AFNE11.jpg,AFSA04.jpg,AFNE04.jpg,AFSA19.jpg,AFSA04.jpg,FS,4,num_6,16,num_6,0.616819033632,,,2018_Mar_06_1843,60.0099894269,MAFE4ImagesEEG,001,103329,
AFNE01.JPG,AFNE01.JPG,AFNE01.JPG,AFNE01.JPG,AFNE01.JPG,AFNE01.JPG,,,,,,,,,,,,,,,,,,,,,0,6,6,9,,,AFNE11.jpg,AFNE05.jpg,AFSA19.jpg,AFSA15.jpg,AFSA15.jpg,FS,4,num_4,32,num_8,1.26658211998,,,2018_Mar_06_1843,60.0099894269,MAFE4ImagesEEG,001,103329,
AFNE01.JPG,AFNE01.JPG,AFNE01.JPG,AFNE01.JPG,AFNE01.JPG,AFNE01.JPG,,,,,,,,,,,,,,,,,,,,,0,7,7,2,,,AFNE07.jpg,AFNE14.jpg,AFSA07.jpg,AFSA09.jpg,AFSA07.jpg,FS,4,num_2,32,num_6,1.63343908102,,,2018_Mar_06_1843,60.0099894269,MAFE4ImagesEEG,001,103329,
AFNE01.JPG,AFNE01.JPG,AFNE01.JPG,AFNE01.JPG,AFNE01.JPG,AFNE01.JPG,,,,,,,,,,,,,,,,,,,,,0,8,8,3,,,AFSA19.jpg,AFNE05.jpg,AFSA09.jpg,AFNE20.jpg,AFNE20.jpg,FN,3,num_4,32,num_6,0.700118769659,,,2018_Mar_06_1843,60.0099894269,MAFE4ImagesEEG,001,103329,
AFNE01.JPG,AFNE01.JPG,AFNE01.JPG,AFNE01.JPG,AFNE01.JPG,AFNE01.JPG,,,,,,,,,,,,,,,,,,,,,0,9,9,7,,,AFSA06.jpg,AFSA09.jpg,AFNE05.jpg,AFNE04.jpg,AFSA06.jpg,FS,4,num_8,32,num_6,0.666661534924,,,2018_Mar_06_1843,60.0099894269,MAFE4ImagesEEG,001,103329,
AFNE01.JPG,AFNE01.JPG,AFNE01.JPG,AFNE01.JPG,AFNE01.JPG,AFNE01.JPG,,,,,,,,,,,,,,,,,,,,,1,0,10,7,,,AFSA16.jpg,AFSA14.jpg,AFNE15.jpg,AFNE06.jpg,AFNE06.jpg,FN,3,num_4,32,num_6,1.30007367372,,,2018_Mar_06_1843,60.0099894269,MAFE4ImagesEEG,001,103329,
AFNE01.JPG,AFNE01.JPG,AFNE01.JPG,AFNE01.JPG,AFNE01.JPG,AFNE01.JPG,,,,,,,,,,,,,,,,,,,,,1,1,11,9,,,AFSA13.jpg,AFNE16.jpg,AFSA03.jpg,AFNE01.jpg,AFSA03.jpg,FS,4,num_2,32,num_6,0.750176807167,,,2018_Mar_06_1843,60.0099894269,MAFE4ImagesEEG,001,103329,
AFNE01.JPG,AFNE01.JPG,AFNE01.JPG,AFNE01.JPG,AFNE01.JPG,AFNE01.JPG,,,,,,,,,,,,,,,,,,,,,1,2,12,2,,,AFSA18.jpg,AFNE08.jpg,AFNE02.jpg,AFSA16.jpg,AFSA18.jpg,FS,4,num_8,32,num_4,0.73352532764,,,2018_Mar_06_1843,60.0099894269,MAFE4ImagesEEG,001,103329,
AFNE01.JPG,AFNE01.JPG,AFNE01.JPG,AFNE01.JPG,AFNE01.JPG,AFNE01.JPG,,,,,,,,,,,,,,,,,,,,,1,3,13,8,,,AFNE05.jpg,AFSA15.jpg,AFSA08.jpg,AFNE19.jpg,AFSA15.jpg,FS,4,num_6,32,num_8,0.516802066471,,,2018_Mar_06_1843,60.0099894269,MAFE4ImagesEEG,001,103329,
AFNE01.JPG,AFNE01.JPG,AFNE01.JPG,AFNE01.JPG,AFNE01.JPG,AFNE01.JPG,,,,,,,,,,,,,,,,,,,,,1,4,14,1,,,AFSA03.jpg,AFSA14.jpg,AFNE04.jpg,AFNE18.jpg,AFSA03.jpg,FS,4,num_8,16,num_8,0.800173904747,,,2018_Mar_06_1843,60.0099894269,MAFE4ImagesEEG,001,103329,
AFNE01.JPG,AFNE01.JPG,AFNE01.JPG,AFNE01.JPG,AFNE01.JPG,AFNE01.JPG,,,,,,,,,,,,,,,,,,,,,1,5,15,5,,,AFNE08.jpg,AFSA04.jpg,AFNE07.jpg,AFSA18.jpg,AFNE08.jpg,FN,3,num_8,32,num_2,1.03345723473,,,2018_Mar_06_1843,60.0099894269,MAFE4ImagesEEG,001,103329,
AFNE01.JPG,AFNE01.JPG,AFNE01.JPG,AFNE01.JPG,AFNE01.JPG,AFNE01.JPG,,,,,,,,,,,,,,,,,,,,,1,6,16,6,,,AFNE05.jpg,AFSA18.jpg,AFNE19.jpg,AFSA02.jpg,AFSA02.jpg,FS,4,num_4,32,num_8,1.05009396048,,,2018_Mar_06_1843,60.0099894269,MAFE4ImagesEEG,001,103329,
AFNE01.JPG,AFNE01.JPG,AFNE01.JPG,AFNE01.JPG,AFNE01.JPG,AFNE01.JPG,,,,,,,,,,,,,,,,,,,,,1,7,17,3,,,AFSA08.jpg,AFNE09.jpg,AFNE18.jpg,AFSA15.jpg,AFSA15.jpg,FS,4,num_4,16,num_4,0.916803862667,,,2018_Mar_06_1843,60.0099894269,MAFE4ImagesEEG,001,103329,
AFNE01.JPG,AFNE01.JPG,AFNE01.JPG,AFNE01.JPG,AFNE01.JPG,AFNE01.JPG,,,,,,,,,,,,,,,,,,,,,1,8,18,4,,,AFSA03.jpg,AFSA14.jpg,AFNE08.jpg,AFNE02.jpg,AFSA03.jpg,FS,4,num_8,32,num_6,3.44996072561,,,2018_Mar_06_1843,60.0099894269,MAFE4ImagesEEG,001,103329,
AFNE01.JPG,AFNE01.JPG,AFNE01.JPG,AFNE01.JPG,AFNE01.JPG,AFNE01.JPG,,,,,,,,,,,,,,,,,,,,,1,9,19,0,,,AFNE05.jpg,AFSA07.jpg,AFSA12.jpg,AFNE06.jpg,AFNE06.jpg,FN,3,num_4,32,num_8,1.10006956826,,,2018_Mar_06_1843,60.0099894269,MAFE4ImagesEEG,001,103329,
AFNE01.JPG,AFNE01.JPG,AFNE01.JPG,AFNE01.JPG,AFNE01.JPG,AFNE01.JPG,,,,,,,,,,,,,,,,,,,,,2,0,20,7,,,AFSA07.jpg,AFSA06.jpg,AFNE19.jpg,AFNE14.jpg,AFSA07.jpg,FS,4,num_8,16,num_8,0.883450226625,,,2018_Mar_06_1843,60.0099894269,MAFE4ImagesEEG,001,103329,
AFNE01.JPG,AFNE01.JPG,AFNE01.JPG,AFNE01.JPG,AFNE01.JPG,AFNE01.JPG,,,,,,,,,,,,,,,,,,,,,2,1,21,0,,,AFNE12.jpg,AFNE16.jpg,AFSA17.jpg,AFSA04.jpg,AFNE16.jpg,FN,3,num_6,16,num_6,2.69999496453,,,2018_Mar_06_1843,60.0099894269,MAFE4ImagesEEG,001,103329,
AFNE01.JPG,AFNE01.JPG,AFNE01.JPG,AFNE01.JPG,AFNE01.JPG,AFNE01.JPG,,,,,,,,,,,,,,,,,,,,,2,2,22,4,,,AFSA16.jpg,AFSA02.jpg,AFNE06.jpg,AFNE07.jpg,AFSA16.jpg,FS,4,num_8,32,num_6,0.949960244354,,,2018_Mar_06_1843,60.0099894269,MAFE4ImagesEEG,001,103329,
AFNE01.JPG,AFNE01.JPG,AFNE01.JPG,AFNE01.JPG,AFNE01.JPG,AFNE01.JPG,,,,,,,,,,,,,,,,,,,,,2,3,23,5,,,AFNE12.jpg,AFSA14.jpg,AFNE08.jpg,AFSA20.jpg,AFNE08.jpg,FN,3,num_2,32,num_6,0.866798746865,,,2018_Mar_06_1843,60.0099894269,MAFE4ImagesEEG,001,103329,
AFNE01.JPG,AFNE01.JPG,AFNE01.JPG,AFNE01.JPG,AFNE01.JPG,AFNE01.JPG,,,,,,,,,,,,,,,,,,,,,2,4,24,3,,,AFSA05.jpg,AFNE18.jpg,AFNE06.jpg,AFSA17.jpg,AFNE18.jpg,FN,3,num_6,16,num_6,0.400292064995,,,2018_Mar_06_1843,60.0099894269,MAFE4ImagesEEG,001,103329,
AFNE01.JPG,AFNE01.JPG,AFNE01.JPG,AFNE01.JPG,AFNE01.JPG,AFNE01.JPG,,,,,,,,,,,,,,,,,,,,,2,5,25,6,,,AFSA02.jpg,AFNE16.jpg,AFSA11.jpg,AFNE15.jpg,AFNE16.jpg,FN,3,num_6,16,num_6,1.05017542816,,,2018_Mar_06_1843,60.0099894269,MAFE4ImagesEEG,001,103329,
AFNE01.JPG,AFNE01.JPG,AFNE01.JPG,AFNE01.JPG,AFNE01.JPG,AFNE01.JPG,,,,,,,,,,,,,,,,,,,,,2,6,26,1,,,AFSA02.jpg,AFSA12.jpg,AFNE07.jpg,AFNE19.jpg,AFSA02.jpg,FS,4,num_8,16,num_8,0.533509996487,,,2018_Mar_06_1843,60.0099894269,MAFE4ImagesEEG,001,103329,
AFNE01.JPG,AFNE01.JPG,AFNE01.JPG,AFNE01.JPG,AFNE01.JPG,AFNE01.JPG,,,,,,,,,,,,,,,,,,,,,2,7,27,9,,,AFSA02.jpg,AFNE18.jpg,AFSA13.jpg,AFNE02.jpg,AFSA02.jpg,FS,4,num_8,16,num_8,0.800170376431,,,2018_Mar_06_1843,60.0099894269,MAFE4ImagesEEG,001,103329,
AFNE01.JPG,AFNE01.JPG,AFNE01.JPG,AFNE01.JPG,AFNE01.JPG,AFNE01.JPG,,,,,,,,,,,,,,,,,,,,,2,8,28,8,,,AFNE04.jpg,AFSA20.jpg,AFSA15.jpg,AFNE02.jpg,AFNE04.jpg,FN,3,num_8,16,num_8,0.600160176866,,,2018_Mar_06_1843,60.0099894269,MAFE4ImagesEEG,001,103329,
AFNE01.JPG,AFNE01.JPG,AFNE01.JPG,AFNE01.JPG,AFNE01.JPG,AFNE01.JPG,,,,,,,,,,,,,,,,,,,,,2,9,29,2,,,AFSA04.jpg,AFNE12.jpg,AFSA14.jpg,AFNE15.jpg,AFNE15.jpg,FN,3,num_4,48,None,,,,2018_Mar_06_1843,60.0099894269,MAFE4ImagesEEG,001,103329,
AFNE01.JPG,AFNE01.JPG,AFNE01.JPG,AFNE01.JPG,AFNE01.JPG,AFNE01.JPG,,,,,,,,,,,,,,,,,,,,,3,0,30,3,,,AFSA05.jpg,AFSA14.jpg,AFNE08.jpg,AFNE11.jpg,AFSA05.jpg,FS,4,num_8,32,num_6,1.08341167378,,,2018_Mar_06_1843,60.0099894269,MAFE4ImagesEEG,001,103329,
AFNE01.JPG,AFNE01.JPG,AFNE01.JPG,AFNE01.JPG,AFNE01.JPG,AFNE01.JPG,,,,,,,,,,,,,,,,,,,,,3,1,31,4,,,AFSA05.jpg,AFNE01.jpg,AFNE11.jpg,AFSA19.jpg,AFSA19.jpg,FS,4,num_4,16,num_4,0.616859125905,,,2018_Mar_06_1843,60.0099894269,MAFE4ImagesEEG,001,103329,
AFNE01.JPG,AFNE01.JPG,AFNE01.JPG,AFNE01.JPG,AFNE01.JPG,AFNE01.JPG,,,,,,,,,,,,,,,,,,,,,3,2,32,9,,,AFNE08.jpg,AFSA10.jpg,AFNE04.jpg,AFSA01.jpg,AFNE08.jpg,FN,3,num_8,32,num_6,0.783498690231,,,2018_Mar_06_1843,60.0099894269,MAFE4ImagesEEG,001,103329,
AFNE01.JPG,AFNE01.JPG,AFNE01.JPG,AFNE01.JPG,AFNE01.JPG,AFNE01.JPG,,,,,,,,,,,,,,,,,,,,,3,3,33,8,,,AFSA10.jpg,AFSA19.jpg,AFNE07.jpg,AFNE20.jpg,AFSA19.jpg,FS,4,num_6,32,num_8,1.0001125792,,,2018_Mar_06_1843,60.0099894269,MAFE4ImagesEEG,001,103329,
AFNE01.JPG,AFNE01.JPG,AFNE01.JPG,AFNE01.JPG,AFNE01.JPG,AFNE01.JPG,,,,,,,,,,,,,,,,,,,,,3,4,34,0,,,AFSA20.jpg,AFSA15.jpg,AFNE02.jpg,AFNE06.jpg,AFSA20.jpg,FS,4,num_8,32,num_2,1.10010613245,,,2018_Mar_06_1843,60.0099894269,MAFE4ImagesEEG,001,103329,
AFNE01.JPG,AFNE01.JPG,AFNE01.JPG,AFNE01.JPG,AFNE01.JPG,AFNE01.JPG,,,,,,,,,,,,,,,,,,,,,3,5,35,1,,,AFSA18.jpg,AFNE03.jpg,AFNE08.jpg,AFSA01.jpg,AFSA18.jpg,FS,4,num_8,16,num_8,0.966744830599,,,2018_Mar_06_1843,60.0099894269,MAFE4ImagesEEG,001,103329,
AFNE01.JPG,AFNE01.JPG,AFNE01.JPG,AFNE01.JPG,AFNE01.JPG,AFNE01.JPG,,,,,,,,,,,,,,,,,,,,,3,6,36,7,,,AFNE18.jpg,AFNE14.jpg,AFSA02.jpg,AFSA19.jpg,AFSA19.jpg,FS,4,num_4,16,num_4,0.666790792719,,,2018_Mar_06_1843,60.0099894269,MAFE4ImagesEEG,001,103329,
AFNE01.JPG,AFNE01.JPG,AFNE01.JPG,AFNE01.JPG,AFNE01.JPG,AFNE01.JPG,,,,,,,,,,,,,,,,,,,,,3,7,37,5,,,AFNE04.jpg,AFNE18.jpg,AFSA10.jpg,AFSA14.jpg,AFSA14.jpg,FS,4,num_4,16,num_4,1.01675604051,,,2018_Mar_06_1843,60.0099894269,MAFE4ImagesEEG,001,103329,
AFNE01.JPG,AFNE01.JPG,AFNE01.JPG,AFNE01.JPG,AFNE01.JPG,AFNE01.JPG,,,,,,,,,,,,,,,,,,,,,3,8,38,6,,,AFSA08.jpg,AFSA07.jpg,AFNE09.jpg,AFNE04.jpg,AFNE09.jpg,FN,3,num_2,16,num_2,1.13319227239,,,2018_Mar_06_1843,60.0099894269,MAFE4ImagesEEG,001,103329,
