IPosition2,IPosition3,IPosition1,IPosition6,IPosition4,IPosition5,TrialsF1.thisRepN,TrialsF1.thisTrialN,TrialsF1.thisN,TrialsF1.thisIndex,TrialsM1.thisRepN,TrialsM1.thisTrialN,TrialsM1.thisN,TrialsM1.thisIndex,TrialsF2.thisRepN,TrialsF2.thisTrialN,TrialsF2.thisN,TrialsF2.thisIndex,TrialsM2.thisRepN,TrialsM2.thisTrialN,TrialsM2.thisN,TrialsM2.thisIndex,TrialsF3.thisRepN,TrialsF3.thisTrialN,TrialsF3.thisN,TrialsF3.thisIndex,TrialsM3.thisRepN,TrialsM3.thisTrialN,TrialsM3.thisN,TrialsM3.thisIndex,InstrKey_resp.keys,InstrKey_resp.rt,Image0 _Position,Image1 _Position,Image2 _Position,Image3 _Position,Center_image,condition,code,correct_answer,accuracy,Key_Resp.keys,Key_Resp.rt,BreakKey_resp.keys,BreakKey_resp.rt,date,frameRate,expName,session,participant,
,,,,,,,,,,,,,,,,,,,,,,,,,,,,,,space,15.9158875118,,,,,,,,,,,,,,2018_Mar_09_1255,59.99844123,FEMA4ImagesEEG,001,103346,
AMSA21.JPG,AMNE23.JPG,AMNE21.JPG,AMSA25.JPG,AMNE25.JPG,AMSA23.JPG,0,0,0,5,,,,,,,,,,,,,,,,,,,,,,,AFNE02.jpg,AFNE09.jpg,AFSA02.jpg,AFSA08.jpg,AFNE09.jpg,FN,3,num_6,16,num_6,1.13342256285,,,2018_Mar_09_1255,59.99844123,FEMA4ImagesEEG,001,103346,
AMSA25.JPG,AMNE24.JPG,AMSA24.JPG,AMNE26.JPG,AMSA21.JPG,AMNE25.JPG,0,1,1,3,,,,,,,,,,,,,,,,,,,,,,,AFNE20.jpg,AFSA10.jpg,AFSA15.jpg,AFNE19.jpg,AFSA10.jpg,FS,4,num_6,32,num_2,1.15007692925,,,2018_Mar_09_1255,59.99844123,FEMA4ImagesEEG,001,103346,
AFSA25.JPG,AFNE24.JPG,AFSA24.JPG,AFNE21.JPG,AFSA21.JPG,AFNE25.JPG,0,2,2,2,,,,,,,,,,,,,,,,,,,,,,,AFNE07.jpg,AFNE15.jpg,AFSA04.jpg,AFSA16.jpg,AFSA04.jpg,FS,4,num_2,16,num_2,0.833565067267,,,2018_Mar_09_1255,59.99844123,FEMA4ImagesEEG,001,103346,
AMNE22.JPG,AMSA24.JPG,AMSA22.JPG,AMNE25.JPG,AMNE24.JPG,AMSA25.JPG,0,3,3,7,,,,,,,,,,,,,,,,,,,,,,,AFNE05.jpg,AFSA15.jpg,AFNE20.jpg,AFSA13.jpg,AFSA15.jpg,FS,4,num_6,16,num_6,0.933580751298,,,2018_Mar_09_1255,59.99844123,FEMA4ImagesEEG,001,103346,
AFSA21.JPG,AFNE23.JPG,AFNE21.JPG,AFSA25.JPG,AFNE25.JPG,AFSA23.JPG,0,4,4,4,,,,,,,,,,,,,,,,,,,,,,,AFNE13.jpg,AFNE05.jpg,AFSA11.jpg,AFSA15.jpg,AFNE13.jpg,FN,3,num_8,16,num_8,0.95010393532,,,2018_Mar_09_1255,59.99844123,FEMA4ImagesEEG,001,103346,
AFSA21.JPG,AFNE22.JPG,AFNE21.JPG,AFSA23.JPG,AFSA22.JPG,AFNE23.JPG,0,5,5,0,,,,,,,,,,,,,,,,,,,,,,,AFSA15.jpg,AFNE10.jpg,AFSA10.jpg,AFNE08.jpg,AFSA15.jpg,FS,4,num_8,16,num_8,1.45008068183,,,2018_Mar_09_1255,59.99844123,FEMA4ImagesEEG,001,103346,
AMNE23.JPG,AMNE24.JPG,AMNE22.JPG,AMSA24.JPG,AMSA22.JPG,AMSA23.JPG,0,6,6,9,,,,,,,,,,,,,,,,,,,,,,,AFNE13.jpg,AFSA16.jpg,AFSA08.jpg,AFNE06.jpg,AFNE13.jpg,FN,3,num_8,32,num_6,1.31673220964,,,2018_Mar_09_1255,59.99844123,FEMA4ImagesEEG,001,103346,
AFNE22.JPG,AFSA24.JPG,AFSA22.JPG,AFNE25.JPG,AFNE24.JPG,AFSA25.JPG,0,7,7,6,,,,,,,,,,,,,,,,,,,,,,,AFNE13.jpg,AFSA16.jpg,AFSA12.jpg,AFNE14.jpg,AFSA12.jpg,FS,4,num_2,16,num_2,0.883466904983,,,2018_Mar_09_1255,59.99844123,FEMA4ImagesEEG,001,103346,
AFNE23.JPG,AFNE24.JPG,AFNE22.JPG,AFSA24.JPG,AFSA22.JPG,AFSA23.JPG,0,8,8,8,,,,,,,,,,,,,,,,,,,,,,,AFNE19.jpg,AFSA02.jpg,AFSA03.jpg,AFNE10.jpg,AFNE19.jpg,FN,3,num_8,32,num_6,0.733504800359,,,2018_Mar_09_1255,59.99844123,FEMA4ImagesEEG,001,103346,
AMSA21.JPG,AMNE22.JPG,AMNE21.JPG,AMSA23.JPG,AMSA22.JPG,AMNE23.JPG,0,9,9,1,,,,,,,,,,,,,,,,,,,,,,,AFNE20.jpg,AFNE13.jpg,AFSA01.jpg,AFSA03.jpg,AFNE13.jpg,FN,3,num_6,32,num_8,0.766835984774,,,2018_Mar_09_1255,59.99844123,FEMA4ImagesEEG,001,103346,
AFSA25.JPG,AFNE24.JPG,AFSA24.JPG,AFNE21.JPG,AFSA21.JPG,AFNE25.JPG,,,,,0,0,0,2,,,,,,,,,,,,,,,,,,,AMNE12.jpg,AMSA14.jpg,AMSA04.jpg,AMNE07.jpg,AMNE12.jpg,MN,1,num_8,16,num_8,1.00014016288,,,2018_Mar_09_1255,59.99844123,FEMA4ImagesEEG,001,103346,
AMSA21.JPG,AMNE23.JPG,AMNE21.JPG,AMSA25.JPG,AMNE25.JPG,AMSA23.JPG,,,,,0,1,1,5,,,,,,,,,,,,,,,,,,,AMSA15.jpg,AMSA17.jpg,AMNE06.jpg,AMNE16.jpg,AMNE06.jpg,MN,1,num_2,32,num_8,0.80013445369,,,2018_Mar_09_1255,59.99844123,FEMA4ImagesEEG,001,103346,
AMSA25.JPG,AMNE24.JPG,AMSA24.JPG,AMNE26.JPG,AMSA21.JPG,AMNE25.JPG,,,,,0,2,2,3,,,,,,,,,,,,,,,,,,,AMSA10.jpg,AMNE06.jpg,AMNE11.jpg,AMSA03.jpg,AMNE06.jpg,MN,1,num_6,16,num_6,0.850068365457,,,2018_Mar_09_1255,59.99844123,FEMA4ImagesEEG,001,103346,
AFSA21.JPG,AFNE22.JPG,AFNE21.JPG,AFSA23.JPG,AFSA22.JPG,AFNE23.JPG,,,,,0,3,3,0,,,,,,,,,,,,,,,,,,,AMNE16.jpg,AMSA11.jpg,AMNE10.jpg,AMSA15.jpg,AMSA15.jpg,MS,2,num_4,32,num_8,1.43348789751,,,2018_Mar_09_1255,59.99844123,FEMA4ImagesEEG,001,103346,
AFNE22.JPG,AFSA24.JPG,AFSA22.JPG,AFNE25.JPG,AFNE24.JPG,AFSA25.JPG,,,,,0,4,4,6,,,,,,,,,,,,,,,,,,,AMNE15.jpg,AMNE18.jpg,AMSA03.jpg,AMSA02.jpg,AMNE18.jpg,MN,1,num_6,16,num_6,0.950101369526,,,2018_Mar_09_1255,59.99844123,FEMA4ImagesEEG,001,103346,
AMSA21.JPG,AMNE22.JPG,AMNE21.JPG,AMSA23.JPG,AMSA22.JPG,AMNE23.JPG,,,,,0,5,5,1,,,,,,,,,,,,,,,,,,,AMSA16.jpg,AMNE02.jpg,AMSA01.jpg,AMNE16.jpg,AMSA16.jpg,MS,2,num_8,16,num_8,0.899993296713,,,2018_Mar_09_1255,59.99844123,FEMA4ImagesEEG,001,103346,
AMNE22.JPG,AMSA24.JPG,AMSA22.JPG,AMNE25.JPG,AMNE24.JPG,AMSA25.JPG,,,,,0,6,6,7,,,,,,,,,,,,,,,,,,,AMNE14.jpg,AMSA01.jpg,AMSA16.jpg,AMNE15.jpg,AMSA16.jpg,MS,2,num_2,32,num_4,1.01673326804,,,2018_Mar_09_1255,59.99844123,FEMA4ImagesEEG,001,103346,
AFSA21.JPG,AFNE23.JPG,AFNE21.JPG,AFSA25.JPG,AFNE25.JPG,AFSA23.JPG,,,,,0,7,7,4,,,,,,,,,,,,,,,,,,,AMNE18.jpg,AMSA11.jpg,AMNE05.jpg,AMSA01.jpg,AMNE18.jpg,MN,1,num_8,32,num_6,1.11675664992,,,2018_Mar_09_1255,59.99844123,FEMA4ImagesEEG,001,103346,
AFNE23.JPG,AFNE24.JPG,AFNE22.JPG,AFSA24.JPG,AFSA22.JPG,AFSA23.JPG,,,,,0,8,8,8,,,,,,,,,,,,,,,,,,,AMNE06.jpg,AMSA15.jpg,AMSA03.jpg,AMNE20.jpg,AMNE06.jpg,MN,1,num_8,16,num_8,1.95004427806,,,2018_Mar_09_1255,59.99844123,FEMA4ImagesEEG,001,103346,
AMNE23.JPG,AMNE24.JPG,AMNE22.JPG,AMSA24.JPG,AMSA22.JPG,AMSA23.JPG,,,,,0,9,9,9,,,,,,,,,,,,,,,,,,,AMNE07.jpg,AMNE04.jpg,AMSA06.jpg,AMSA12.jpg,AMSA06.jpg,MS,2,num_2,32,num_4,1.16678902856,,,2018_Mar_09_1255,59.99844123,FEMA4ImagesEEG,001,103346,
AFNE23.JPG,AFNE24.JPG,AFNE22.JPG,AFSA24.JPG,AFSA22.JPG,AFSA23.JPG,,,,,,,,,0,0,0,8,,,,,,,,,,,,,,,AFNE17.jpg,AFNE15.jpg,AFSA07.jpg,AFSA05.jpg,AFSA05.jpg,FS,4,num_4,32,num_6,0.816792989615,,,2018_Mar_09_1255,59.99844123,FEMA4ImagesEEG,001,103346,
AFNE22.JPG,AFSA24.JPG,AFSA22.JPG,AFNE25.JPG,AFNE24.JPG,AFSA25.JPG,,,,,,,,,0,1,1,6,,,,,,,,,,,,,,,AFSA16.jpg,AFSA05.jpg,AFNE08.jpg,AFNE03.jpg,AFNE08.jpg,FN,3,num_2,32,num_8,0.966413828079,,,2018_Mar_09_1255,59.99844123,FEMA4ImagesEEG,001,103346,
AMNE22.JPG,AMSA24.JPG,AMSA22.JPG,AMNE25.JPG,AMNE24.JPG,AMSA25.JPG,,,,,,,,,0,2,2,7,,,,,,,,,,,,,,,AFNE20.jpg,AFSA03.jpg,AFNE11.jpg,AFSA15.jpg,AFSA03.jpg,FS,4,num_6,16,num_6,1.00013406877,,,2018_Mar_09_1255,59.99844123,FEMA4ImagesEEG,001,103346,
AFSA21.JPG,AFNE23.JPG,AFNE21.JPG,AFSA25.JPG,AFNE25.JPG,AFSA23.JPG,,,,,,,,,0,3,3,4,,,,,,,,,,,,,,,AFSA07.jpg,AFSA04.jpg,AFNE16.jpg,AFNE11.jpg,AFNE16.jpg,FN,3,num_2,32,num_6,0.883443811908,,,2018_Mar_09_1255,59.99844123,FEMA4ImagesEEG,001,103346,
AMNE23.JPG,AMNE24.JPG,AMNE22.JPG,AMSA24.JPG,AMSA22.JPG,AMSA23.JPG,,,,,,,,,0,4,4,9,,,,,,,,,,,,,,,AFSA18.jpg,AFNE04.jpg,AFNE20.jpg,AFSA19.jpg,AFSA18.jpg,FS,4,num_8,16,num_8,1.01677239826,,,2018_Mar_09_1255,59.99844123,FEMA4ImagesEEG,001,103346,
AFSA25.JPG,AFNE24.JPG,AFSA24.JPG,AFNE21.JPG,AFSA21.JPG,AFNE25.JPG,,,,,,,,,0,5,5,2,,,,,,,,,,,,,,,AFNE04.jpg,AFSA17.jpg,AFNE10.jpg,AFSA05.jpg,AFSA05.jpg,FS,4,num_4,16,num_4,0.500145134516,,,2018_Mar_09_1255,59.99844123,FEMA4ImagesEEG,001,103346,
AMSA21.JPG,AMNE23.JPG,AMNE21.JPG,AMSA25.JPG,AMNE25.JPG,AMSA23.JPG,,,,,,,,,0,6,6,5,,,,,,,,,,,,,,,AFSA18.jpg,AFNE02.jpg,AFNE20.jpg,AFSA17.jpg,AFSA18.jpg,FS,4,num_8,16,num_8,1.11674895231,,,2018_Mar_09_1255,59.99844123,FEMA4ImagesEEG,001,103346,
AMSA25.JPG,AMNE24.JPG,AMSA24.JPG,AMNE26.JPG,AMSA21.JPG,AMNE25.JPG,,,,,,,,,0,7,7,3,,,,,,,,,,,,,,,AFSA20.jpg,AFNE06.jpg,AFNE05.jpg,AFSA10.jpg,AFNE05.jpg,FN,3,num_2,32,num_6,1.16674348363,,,2018_Mar_09_1255,59.99844123,FEMA4ImagesEEG,001,103346,
AMSA21.JPG,AMNE22.JPG,AMNE21.JPG,AMSA23.JPG,AMSA22.JPG,AMNE23.JPG,,,,,,,,,0,8,8,1,,,,,,,,,,,,,,,AFSA13.jpg,AFSA18.jpg,AFNE15.jpg,AFNE14.jpg,AFNE14.jpg,FN,3,num_4,16,num_4,0.866854555672,,,2018_Mar_09_1255,59.99844123,FEMA4ImagesEEG,001,103346,
AFSA21.JPG,AFNE22.JPG,AFNE21.JPG,AFSA23.JPG,AFSA22.JPG,AFNE23.JPG,,,,,,,,,0,9,9,0,,,,,,,,,,,,,,,AFNE06.jpg,AFSA17.jpg,AFNE18.jpg,AFSA06.jpg,AFSA17.jpg,FS,4,num_6,16,num_6,1.36674245726,,,2018_Mar_09_1255,59.99844123,FEMA4ImagesEEG,001,103346,
AMNE22.JPG,AMSA24.JPG,AMSA22.JPG,AMNE25.JPG,AMNE24.JPG,AMSA25.JPG,,,,,,,,,,,,,0,0,0,7,,,,,,,,,,,AMNE03.jpg,AMSA05.jpg,AMNE20.jpg,AMSA15.jpg,AMSA05.jpg,MS,2,num_6,32,num_2,1.3833134314,,,2018_Mar_09_1255,59.99844123,FEMA4ImagesEEG,001,103346,
AFNE23.JPG,AFNE24.JPG,AFNE22.JPG,AFSA24.JPG,AFSA22.JPG,AFSA23.JPG,,,,,,,,,,,,,0,1,1,8,,,,,,,,,,,AMSA17.jpg,AMSA10.jpg,AMNE10.jpg,AMNE04.jpg,AMNE10.jpg,MN,1,num_2,32,num_8,0.866851027356,,,2018_Mar_09_1255,59.99844123,FEMA4ImagesEEG,001,103346,
AMSA21.JPG,AMNE22.JPG,AMNE21.JPG,AMSA23.JPG,AMSA22.JPG,AMNE23.JPG,,,,,,,,,,,,,0,2,2,1,,,,,,,,,,,AMNE12.jpg,AMSA01.jpg,AMSA19.jpg,AMNE03.jpg,AMNE12.jpg,MN,1,num_8,32,num_2,0.933490623487,,,2018_Mar_09_1255,59.99844123,FEMA4ImagesEEG,001,103346,
AFSA21.JPG,AFNE22.JPG,AFNE21.JPG,AFSA23.JPG,AFSA22.JPG,AFNE23.JPG,,,,,,,,,,,,,0,3,3,0,,,,,,,,,,,AMSA06.jpg,AMNE10.jpg,AMSA03.jpg,AMNE07.jpg,AMNE07.jpg,MN,1,num_4,16,num_4,0.916775958613,,,2018_Mar_09_1255,59.99844123,FEMA4ImagesEEG,001,103346,
AMNE23.JPG,AMNE24.JPG,AMNE22.JPG,AMSA24.JPG,AMSA22.JPG,AMSA23.JPG,,,,,,,,,,,,,0,4,4,9,,,,,,,,,,,AMSA12.jpg,AMNE15.jpg,AMNE08.jpg,AMSA10.jpg,AMNE15.jpg,MN,1,num_6,16,num_6,0.800227147294,,,2018_Mar_09_1255,59.99844123,FEMA4ImagesEEG,001,103346,
AFSA25.JPG,AFNE24.JPG,AFSA24.JPG,AFNE21.JPG,AFSA21.JPG,AFNE25.JPG,,,,,,,,,,,,,0,5,5,2,,,,,,,,,,,AMSA20.jpg,AMNE02.jpg,AMNE09.jpg,AMSA04.jpg,AMNE02.jpg,MN,1,num_6,32,num_4,1.9000911219,,,2018_Mar_09_1255,59.99844123,FEMA4ImagesEEG,001,103346,
AFSA21.JPG,AFNE23.JPG,AFNE21.JPG,AFSA25.JPG,AFNE25.JPG,AFSA23.JPG,,,,,,,,,,,,,0,6,6,4,,,,,,,,,,,AMSA06.jpg,AMNE17.jpg,AMSA02.jpg,AMNE15.jpg,AMNE17.jpg,MN,1,num_6,16,num_6,1.41655096016,,,2018_Mar_09_1255,59.99844123,FEMA4ImagesEEG,001,103346,
AMSA25.JPG,AMNE24.JPG,AMSA24.JPG,AMNE26.JPG,AMSA21.JPG,AMNE25.JPG,,,,,,,,,,,,,0,7,7,3,,,,,,,,,,,AMSA13.jpg,AMSA20.jpg,AMNE13.jpg,AMNE19.jpg,AMSA13.jpg,MS,2,num_8,32,num_4,1.55009251717,,,2018_Mar_09_1255,59.99844123,FEMA4ImagesEEG,001,103346,
AMSA21.JPG,AMNE23.JPG,AMNE21.JPG,AMSA25.JPG,AMNE25.JPG,AMSA23.JPG,,,,,,,,,,,,,0,8,8,5,,,,,,,,,,,AMSA17.jpg,AMNE10.jpg,AMSA08.jpg,AMNE05.jpg,AMNE10.jpg,MN,1,num_6,32,num_8,1.06675281725,,,2018_Mar_09_1255,59.99844123,FEMA4ImagesEEG,001,103346,
AFNE22.JPG,AFSA24.JPG,AFSA22.JPG,AFNE25.JPG,AFNE24.JPG,AFSA25.JPG,,,,,,,,,,,,,0,9,9,6,,,,,,,,,,,AMNE01.jpg,AMNE18.jpg,AMSA05.jpg,AMSA02.jpg,AMNE01.jpg,MN,1,num_8,32,num_2,2.23327178345,,,2018_Mar_09_1255,59.99844123,FEMA4ImagesEEG,001,103346,
AFSA21.JPG,AFNE23.JPG,AFNE21.JPG,AFSA25.JPG,AFNE25.JPG,AFSA23.JPG,,,,,,,,,,,,,,,,,0,0,0,4,,,,,,,AFSA10.jpg,AFNE18.jpg,AFNE15.jpg,AFSA15.jpg,AFSA10.jpg,FS,4,num_8,32,num_2,0.850173567655,,,2018_Mar_09_1255,59.99844123,FEMA4ImagesEEG,001,103346,
AMSA21.JPG,AMNE22.JPG,AMNE21.JPG,AMSA23.JPG,AMSA22.JPG,AMNE23.JPG,,,,,,,,,,,,,,,,,0,1,1,1,,,,,,,AFNE13.jpg,AFNE15.jpg,AFSA08.jpg,AFSA19.jpg,AFNE15.jpg,FN,3,num_6,16,num_6,0.600177176297,,,2018_Mar_09_1255,59.99844123,FEMA4ImagesEEG,001,103346,
AMNE22.JPG,AMSA24.JPG,AMSA22.JPG,AMNE25.JPG,AMNE24.JPG,AMSA25.JPG,,,,,,,,,,,,,,,,,0,2,2,7,,,,,,,AFSA01.jpg,AFSA08.jpg,AFNE03.jpg,AFNE17.jpg,AFSA08.jpg,FS,4,num_6,32,num_4,1.66670707986,,,2018_Mar_09_1255,59.99844123,FEMA4ImagesEEG,001,103346,
AFNE22.JPG,AFSA24.JPG,AFSA22.JPG,AFNE25.JPG,AFNE24.JPG,AFSA25.JPG,,,,,,,,,,,,,,,,,0,3,3,6,,,,,,,AFSA04.jpg,AFNE16.jpg,AFSA16.jpg,AFNE08.jpg,AFSA04.jpg,FS,4,num_8,32,num_4,1.3334093485,,,2018_Mar_09_1255,59.99844123,FEMA4ImagesEEG,001,103346,
AMSA21.JPG,AMNE23.JPG,AMNE21.JPG,AMSA25.JPG,AMNE25.JPG,AMSA23.JPG,,,,,,,,,,,,,,,,,0,4,4,5,,,,,,,AFSA08.jpg,AFSA02.jpg,AFNE05.jpg,AFNE17.jpg,AFNE17.jpg,FN,3,num_4,32,num_8,0.966775621753,,,2018_Mar_09_1255,59.99844123,FEMA4ImagesEEG,001,103346,
AFNE23.JPG,AFNE24.JPG,AFNE22.JPG,AFSA24.JPG,AFSA22.JPG,AFSA23.JPG,,,,,,,,,,,,,,,,,0,5,5,8,,,,,,,AFSA14.jpg,AFSA08.jpg,AFNE20.jpg,AFNE02.jpg,AFSA14.jpg,FS,4,num_8,32,num_2,0.700190615142,,,2018_Mar_09_1255,59.99844123,FEMA4ImagesEEG,001,103346,
AMSA25.JPG,AMNE24.JPG,AMSA24.JPG,AMNE26.JPG,AMSA21.JPG,AMNE25.JPG,,,,,,,,,,,,,,,,,0,6,6,3,,,,,,,AFSA13.jpg,AFNE16.jpg,AFNE10.jpg,AFSA07.jpg,AFNE16.jpg,FN,3,num_6,32,num_4,1.00010263664,,,2018_Mar_09_1255,59.99844123,FEMA4ImagesEEG,001,103346,
AFSA21.JPG,AFNE22.JPG,AFNE21.JPG,AFSA23.JPG,AFSA22.JPG,AFNE23.JPG,,,,,,,,,,,,,,,,,0,7,7,0,,,,,,,AFNE11.jpg,AFSA11.jpg,AFNE13.jpg,AFSA16.jpg,AFNE11.jpg,FN,3,num_8,32,num_2,1.0001308613,,,2018_Mar_09_1255,59.99844123,FEMA4ImagesEEG,001,103346,
AMNE23.JPG,AMNE24.JPG,AMNE22.JPG,AMSA24.JPG,AMSA22.JPG,AMSA23.JPG,,,,,,,,,,,,,,,,,0,8,8,9,,,,,,,AFNE10.jpg,AFSA15.jpg,AFSA09.jpg,AFNE06.jpg,AFNE10.jpg,FN,3,num_8,16,num_8,1.30020132777,,,2018_Mar_09_1255,59.99844123,FEMA4ImagesEEG,001,103346,
AFSA25.JPG,AFNE24.JPG,AFSA24.JPG,AFNE21.JPG,AFSA21.JPG,AFNE25.JPG,,,,,,,,,,,,,,,,,0,9,9,2,,,,,,,AFNE14.jpg,AFSA13.jpg,AFSA09.jpg,AFNE04.jpg,AFSA13.jpg,FS,4,num_6,32,num_4,0.866478970274,,,2018_Mar_09_1255,59.99844123,FEMA4ImagesEEG,001,103346,
AMSA21.JPG,AMNE22.JPG,AMNE21.JPG,AMSA23.JPG,AMSA22.JPG,AMNE23.JPG,,,,,,,,,,,,,,,,,,,,,0,0,0,1,,,AMNE04.jpg,AMNE14.jpg,AMSA13.jpg,AMSA19.jpg,AMNE04.jpg,MN,1,num_8,16,num_8,1.1834453193,,,2018_Mar_09_1255,59.99844123,FEMA4ImagesEEG,001,103346,
AMSA25.JPG,AMNE24.JPG,AMSA24.JPG,AMNE26.JPG,AMSA21.JPG,AMNE25.JPG,,,,,,,,,,,,,,,,,,,,,0,1,1,3,,,AMNE01.jpg,AMSA04.jpg,AMSA20.jpg,AMNE05.jpg,AMNE05.jpg,MN,1,num_4,16,num_4,1.21676399489,,,2018_Mar_09_1255,59.99844123,FEMA4ImagesEEG,001,103346,
AFNE22.JPG,AFSA24.JPG,AFSA22.JPG,AFNE25.JPG,AFNE24.JPG,AFSA25.JPG,,,,,,,,,,,,,,,,,,,,,0,2,2,6,,,AMNE08.jpg,AMSA02.jpg,AMSA09.jpg,AMNE20.jpg,AMSA09.jpg,MS,2,num_2,32,num_4,2.70022365125,,,2018_Mar_09_1255,59.99844123,FEMA4ImagesEEG,001,103346,
AMSA21.JPG,AMNE23.JPG,AMNE21.JPG,AMSA25.JPG,AMNE25.JPG,AMSA23.JPG,,,,,,,,,,,,,,,,,,,,,0,3,3,5,,,AMSA04.jpg,AMSA03.jpg,AMNE09.jpg,AMNE16.jpg,AMSA03.jpg,MS,2,num_6,32,num_2,0.916857746895,,,2018_Mar_09_1255,59.99844123,FEMA4ImagesEEG,001,103346,
AFSA21.JPG,AFNE22.JPG,AFNE21.JPG,AFSA23.JPG,AFSA22.JPG,AFNE23.JPG,,,,,,,,,,,,,,,,,,,,,0,4,4,0,,,AMSA09.jpg,AMNE08.jpg,AMNE05.jpg,AMSA02.jpg,AMSA09.jpg,MS,2,num_8,32,num_6,0.583483679686,,,2018_Mar_09_1255,59.99844123,FEMA4ImagesEEG,001,103346,
AMNE22.JPG,AMSA24.JPG,AMSA22.JPG,AMNE25.JPG,AMNE24.JPG,AMSA25.JPG,,,,,,,,,,,,,,,,,,,,,0,5,5,7,,,AMSA01.jpg,AMNE10.jpg,AMNE13.jpg,AMSA19.jpg,AMNE13.jpg,MN,1,num_2,16,num_2,0.833441903582,,,2018_Mar_09_1255,59.99844123,FEMA4ImagesEEG,001,103346,
AFSA25.JPG,AFNE24.JPG,AFSA24.JPG,AFNE21.JPG,AFSA21.JPG,AFNE25.JPG,,,,,,,,,,,,,,,,,,,,,0,6,6,2,,,AMSA17.jpg,AMSA06.jpg,AMNE03.jpg,AMNE05.jpg,AMNE03.jpg,MN,1,num_2,32,num_8,0.983458213042,,,2018_Mar_09_1255,59.99844123,FEMA4ImagesEEG,001,103346,
AFSA21.JPG,AFNE23.JPG,AFNE21.JPG,AFSA25.JPG,AFNE25.JPG,AFSA23.JPG,,,,,,,,,,,,,,,,,,,,,0,7,7,4,,,AMNE18.jpg,AMSA06.jpg,AMNE07.jpg,AMSA13.jpg,AMSA06.jpg,MS,2,num_6,32,num_2,1.15011285199,,,2018_Mar_09_1255,59.99844123,FEMA4ImagesEEG,001,103346,
AMNE23.JPG,AMNE24.JPG,AMNE22.JPG,AMSA24.JPG,AMSA22.JPG,AMSA23.JPG,,,,,,,,,,,,,,,,,,,,,0,8,8,9,,,AMNE11.jpg,AMSA15.jpg,AMSA01.jpg,AMNE17.jpg,AMNE17.jpg,MN,1,num_4,32,num_8,1.1001481493,,,2018_Mar_09_1255,59.99844123,FEMA4ImagesEEG,001,103346,
AFNE23.JPG,AFNE24.JPG,AFNE22.JPG,AFSA24.JPG,AFSA22.JPG,AFSA23.JPG,,,,,,,,,,,,,,,,,,,,,0,9,9,8,,,AMSA17.jpg,AMNE17.jpg,AMNE03.jpg,AMSA01.jpg,AMNE17.jpg,MN,1,num_6,16,num_6,0.616835070541,,,2018_Mar_09_1255,59.99844123,FEMA4ImagesEEG,001,103346,
,,,,,,,,,,,,,,,,,,,,,,,,,,,,,,,,,,,,,,,,,,,space,16.6319421926,2018_Mar_09_1255,59.99844123,FEMA4ImagesEEG,001,103346,
AFNE01.JPG,AFNE01.JPG,AFNE01.JPG,AFNE01.JPG,AFNE01.JPG,AFNE01.JPG,0,0,0,8,,,,,,,,,,,,,,,,,,,,,,,AFSA04.jpg,AFNE01.jpg,AFNE05.jpg,AFSA06.jpg,AFSA04.jpg,FS,4,num_8,16,num_8,0.916800334584,,,2018_Mar_09_1255,59.99844123,FEMA4ImagesEEG,001,103346,
AFNE01.JPG,AFNE01.JPG,AFNE01.JPG,AFNE01.JPG,AFNE01.JPG,AFNE01.JPG,0,1,1,0,,,,,,,,,,,,,,,,,,,,,,,AFSA09.jpg,AFNE01.jpg,AFNE10.jpg,AFSA06.jpg,AFNE01.jpg,FN,3,num_6,32,num_8,0.78348810575,,,2018_Mar_09_1255,59.99844123,FEMA4ImagesEEG,001,103346,
AFNE01.JPG,AFNE01.JPG,AFNE01.JPG,AFNE01.JPG,AFNE01.JPG,AFNE01.JPG,0,2,2,4,,,,,,,,,,,,,,,,,,,,,,,AFSA04.jpg,AFNE12.jpg,AFSA06.jpg,AFNE10.jpg,AFSA04.jpg,FS,4,num_8,16,num_8,1.25010095257,,,2018_Mar_09_1255,59.99844123,FEMA4ImagesEEG,001,103346,
AFNE01.JPG,AFNE01.JPG,AFNE01.JPG,AFNE01.JPG,AFNE01.JPG,AFNE01.JPG,0,3,3,3,,,,,,,,,,,,,,,,,,,,,,,AFNE03.jpg,AFSA04.jpg,AFSA03.jpg,AFNE09.jpg,AFSA04.jpg,FS,4,num_6,32,num_4,1.05013052467,,,2018_Mar_09_1255,59.99844123,FEMA4ImagesEEG,001,103346,
AFNE01.JPG,AFNE01.JPG,AFNE01.JPG,AFNE01.JPG,AFNE01.JPG,AFNE01.JPG,0,4,4,7,,,,,,,,,,,,,,,,,,,,,,,AFSA16.jpg,AFSA15.jpg,AFNE13.jpg,AFNE17.jpg,AFNE13.jpg,FN,3,num_2,16,num_2,0.950099445181,,,2018_Mar_09_1255,59.99844123,FEMA4ImagesEEG,001,103346,
AFNE01.JPG,AFNE01.JPG,AFNE01.JPG,AFNE01.JPG,AFNE01.JPG,AFNE01.JPG,0,5,5,9,,,,,,,,,,,,,,,,,,,,,,,AFSA08.jpg,AFSA01.jpg,AFNE18.jpg,AFNE06.jpg,AFNE06.jpg,FN,3,num_4,32,num_8,1.4834016026,,,2018_Mar_09_1255,59.99844123,FEMA4ImagesEEG,001,103346,
AFNE01.JPG,AFNE01.JPG,AFNE01.JPG,AFNE01.JPG,AFNE01.JPG,AFNE01.JPG,0,6,6,5,,,,,,,,,,,,,,,,,,,,,,,AFSA06.jpg,AFNE11.jpg,AFSA14.jpg,AFNE19.jpg,AFNE19.jpg,FN,3,num_4,16,num_4,0.63349232357,,,2018_Mar_09_1255,59.99844123,FEMA4ImagesEEG,001,103346,
AFNE01.JPG,AFNE01.JPG,AFNE01.JPG,AFNE01.JPG,AFNE01.JPG,AFNE01.JPG,0,7,7,6,,,,,,,,,,,,,,,,,,,,,,,AFSA12.jpg,AFSA11.jpg,AFNE10.jpg,AFNE19.jpg,AFSA11.jpg,FS,4,num_6,16,num_6,1.01679837797,,,2018_Mar_09_1255,59.99844123,FEMA4ImagesEEG,001,103346,
AFNE01.JPG,AFNE01.JPG,AFNE01.JPG,AFNE01.JPG,AFNE01.JPG,AFNE01.JPG,0,8,8,2,,,,,,,,,,,,,,,,,,,,,,,AFNE16.jpg,AFNE07.jpg,AFSA08.jpg,AFSA14.jpg,AFNE07.jpg,FN,3,num_6,16,num_6,1.09996564896,,,2018_Mar_09_1255,59.99844123,FEMA4ImagesEEG,001,103346,
AFNE01.JPG,AFNE01.JPG,AFNE01.JPG,AFNE01.JPG,AFNE01.JPG,AFNE01.JPG,0,9,9,1,,,,,,,,,,,,,,,,,,,,,,,AFNE13.jpg,AFSA12.jpg,AFSA02.jpg,AFNE07.jpg,AFNE07.jpg,FN,3,num_4,32,num_8,0.900221983436,,,2018_Mar_09_1255,59.99844123,FEMA4ImagesEEG,001,103346,
AFNE01.JPG,AFNE01.JPG,AFNE01.JPG,AFNE01.JPG,AFNE01.JPG,AFNE01.JPG,1,0,10,1,,,,,,,,,,,,,,,,,,,,,,,AFNE02.jpg,AFNE10.jpg,AFSA14.jpg,AFSA12.jpg,AFNE02.jpg,FN,3,num_8,32,num_6,0.750118112192,,,2018_Mar_09_1255,59.99844123,FEMA4ImagesEEG,001,103346,
AFNE01.JPG,AFNE01.JPG,AFNE01.JPG,AFNE01.JPG,AFNE01.JPG,AFNE01.JPG,1,1,11,0,,,,,,,,,,,,,,,,,,,,,,,AFSA19.jpg,AFSA04.jpg,AFNE15.jpg,AFNE11.jpg,AFSA19.jpg,FS,4,num_8,16,num_8,0.783354999265,,,2018_Mar_09_1255,59.99844123,FEMA4ImagesEEG,001,103346,
AFNE01.JPG,AFNE01.JPG,AFNE01.JPG,AFNE01.JPG,AFNE01.JPG,AFNE01.JPG,1,2,12,4,,,,,,,,,,,,,,,,,,,,,,,AFNE13.jpg,AFSA20.jpg,AFSA13.jpg,AFNE04.jpg,AFNE13.jpg,FN,3,num_8,16,num_8,0.983455647016,,,2018_Mar_09_1255,59.99844123,FEMA4ImagesEEG,001,103346,
AFNE01.JPG,AFNE01.JPG,AFNE01.JPG,AFNE01.JPG,AFNE01.JPG,AFNE01.JPG,1,3,13,7,,,,,,,,,,,,,,,,,,,,,,,AFNE18.jpg,AFSA06.jpg,AFNE05.jpg,AFSA12.jpg,AFSA12.jpg,FS,4,num_4,16,num_4,0.51678250148,,,2018_Mar_09_1255,59.99844123,FEMA4ImagesEEG,001,103346,
AFNE01.JPG,AFNE01.JPG,AFNE01.JPG,AFNE01.JPG,AFNE01.JPG,AFNE01.JPG,1,4,14,2,,,,,,,,,,,,,,,,,,,,,,,AFNE05.jpg,AFSA07.jpg,AFNE19.jpg,AFSA11.jpg,AFNE19.jpg,FN,3,num_2,32,num_8,0.833461147733,,,2018_Mar_09_1255,59.99844123,FEMA4ImagesEEG,001,103346,
AFNE01.JPG,AFNE01.JPG,AFNE01.JPG,AFNE01.JPG,AFNE01.JPG,AFNE01.JPG,1,5,15,8,,,,,,,,,,,,,,,,,,,,,,,AFNE17.jpg,AFSA03.jpg,AFSA15.jpg,AFNE20.jpg,AFSA15.jpg,FS,4,num_2,32,num_4,0.800186092732,,,2018_Mar_09_1255,59.99844123,FEMA4ImagesEEG,001,103346,
AFNE01.JPG,AFNE01.JPG,AFNE01.JPG,AFNE01.JPG,AFNE01.JPG,AFNE01.JPG,1,6,16,3,,,,,,,,,,,,,,,,,,,,,,,AFNE11.jpg,AFSA04.jpg,AFSA03.jpg,AFNE07.jpg,AFSA04.jpg,FS,4,num_6,32,num_4,0.900289659156,,,2018_Mar_09_1255,59.99844123,FEMA4ImagesEEG,001,103346,
AFNE01.JPG,AFNE01.JPG,AFNE01.JPG,AFNE01.JPG,AFNE01.JPG,AFNE01.JPG,1,7,17,6,,,,,,,,,,,,,,,,,,,,,,,AFSA14.jpg,AFNE18.jpg,AFNE02.jpg,AFSA05.jpg,AFNE02.jpg,FN,3,num_2,32,num_4,2.13340716739,,,2018_Mar_09_1255,59.99844123,FEMA4ImagesEEG,001,103346,
AFNE01.JPG,AFNE01.JPG,AFNE01.JPG,AFNE01.JPG,AFNE01.JPG,AFNE01.JPG,1,8,18,5,,,,,,,,,,,,,,,,,,,,,,,AFNE17.jpg,AFSA04.jpg,AFSA08.jpg,AFNE06.jpg,AFNE17.jpg,FN,3,num_8,32,num_6,0.866797463968,,,2018_Mar_09_1255,59.99844123,FEMA4ImagesEEG,001,103346,
AFNE01.JPG,AFNE01.JPG,AFNE01.JPG,AFNE01.JPG,AFNE01.JPG,AFNE01.JPG,1,9,19,9,,,,,,,,,,,,,,,,,,,,,,,AFSA05.jpg,AFSA17.jpg,AFNE12.jpg,AFNE13.jpg,AFSA05.jpg,FS,4,num_8,16,num_8,1.08348095347,,,2018_Mar_09_1255,59.99844123,FEMA4ImagesEEG,001,103346,
AFNE01.JPG,AFNE01.JPG,AFNE01.JPG,AFNE01.JPG,AFNE01.JPG,AFNE01.JPG,2,0,20,4,,,,,,,,,,,,,,,,,,,,,,,AFNE02.jpg,AFSA05.jpg,AFSA07.jpg,AFNE20.jpg,AFNE20.jpg,FN,3,num_4,32,num_8,0.916777241509,,,2018_Mar_09_1255,59.99844123,FEMA4ImagesEEG,001,103346,
AFNE01.JPG,AFNE01.JPG,AFNE01.JPG,AFNE01.JPG,AFNE01.JPG,AFNE01.JPG,2,1,21,5,,,,,,,,,,,,,,,,,,,,,,,AFSA15.jpg,AFSA17.jpg,AFNE01.jpg,AFNE18.jpg,AFNE18.jpg,FN,3,num_4,16,num_4,0.733447067207,,,2018_Mar_09_1255,59.99844123,FEMA4ImagesEEG,001,103346,
AFNE01.JPG,AFNE01.JPG,AFNE01.JPG,AFNE01.JPG,AFNE01.JPG,AFNE01.JPG,2,2,22,3,,,,,,,,,,,,,,,,,,,,,,,AFNE09.jpg,AFSA14.jpg,AFNE11.jpg,AFSA11.jpg,AFNE09.jpg,FN,3,num_8,32,num_6,0.883603218943,,,2018_Mar_09_1255,59.99844123,FEMA4ImagesEEG,001,103346,
AFNE01.JPG,AFNE01.JPG,AFNE01.JPG,AFNE01.JPG,AFNE01.JPG,AFNE01.JPG,2,3,23,8,,,,,,,,,,,,,,,,,,,,,,,AFSA20.jpg,AFNE07.jpg,AFSA07.jpg,AFNE13.jpg,AFNE07.jpg,FN,3,num_6,16,num_6,0.833468524739,,,2018_Mar_09_1255,59.99844123,FEMA4ImagesEEG,001,103346,
AFNE01.JPG,AFNE01.JPG,AFNE01.JPG,AFNE01.JPG,AFNE01.JPG,AFNE01.JPG,2,4,24,2,,,,,,,,,,,,,,,,,,,,,,,AFNE15.jpg,AFNE16.jpg,AFSA18.jpg,AFSA16.jpg,AFSA16.jpg,FS,4,num_4,16,num_4,0.616789846448,,,2018_Mar_09_1255,59.99844123,FEMA4ImagesEEG,001,103346,
AFNE01.JPG,AFNE01.JPG,AFNE01.JPG,AFNE01.JPG,AFNE01.JPG,AFNE01.JPG,2,5,25,1,,,,,,,,,,,,,,,,,,,,,,,AFNE15.jpg,AFSA18.jpg,AFSA01.jpg,AFNE07.jpg,AFNE07.jpg,FN,3,num_4,16,num_4,0.650089277653,,,2018_Mar_09_1255,59.99844123,FEMA4ImagesEEG,001,103346,
AFNE01.JPG,AFNE01.JPG,AFNE01.JPG,AFNE01.JPG,AFNE01.JPG,AFNE01.JPG,2,6,26,0,,,,,,,,,,,,,,,,,,,,,,,AFSA16.jpg,AFNE12.jpg,AFSA17.jpg,AFNE06.jpg,AFNE06.jpg,FN,3,num_4,16,num_4,0.550167890731,,,2018_Mar_09_1255,59.99844123,FEMA4ImagesEEG,001,103346,
AFNE01.JPG,AFNE01.JPG,AFNE01.JPG,AFNE01.JPG,AFNE01.JPG,AFNE01.JPG,2,7,27,7,,,,,,,,,,,,,,,,,,,,,,,AFSA08.jpg,AFNE04.jpg,AFSA19.jpg,AFNE05.jpg,AFNE04.jpg,FN,3,num_6,16,num_6,0.533546881285,,,2018_Mar_09_1255,59.99844123,FEMA4ImagesEEG,001,103346,
AFNE01.JPG,AFNE01.JPG,AFNE01.JPG,AFNE01.JPG,AFNE01.JPG,AFNE01.JPG,2,8,28,6,,,,,,,,,,,,,,,,,,,,,,,AFNE11.jpg,AFSA06.jpg,AFNE08.jpg,AFSA17.jpg,AFSA06.jpg,FS,4,num_6,32,num_4,1.23325735028,,,2018_Mar_09_1255,59.99844123,FEMA4ImagesEEG,001,103346,
AFNE01.JPG,AFNE01.JPG,AFNE01.JPG,AFNE01.JPG,AFNE01.JPG,AFNE01.JPG,2,9,29,9,,,,,,,,,,,,,,,,,,,,,,,AFNE11.jpg,AFNE15.jpg,AFSA09.jpg,AFSA04.jpg,AFSA09.jpg,FS,4,num_2,32,num_6,1.00010488159,,,2018_Mar_09_1255,59.99844123,FEMA4ImagesEEG,001,103346,
AFNE01.JPG,AFNE01.JPG,AFNE01.JPG,AFNE01.JPG,AFNE01.JPG,AFNE01.JPG,3,0,30,9,,,,,,,,,,,,,,,,,,,,,,,AFSA01.jpg,AFNE11.jpg,AFSA12.jpg,AFNE18.jpg,AFNE11.jpg,FN,3,num_6,16,num_6,0.866816066904,,,2018_Mar_09_1255,59.99844123,FEMA4ImagesEEG,001,103346,
AFNE01.JPG,AFNE01.JPG,AFNE01.JPG,AFNE01.JPG,AFNE01.JPG,AFNE01.JPG,3,1,31,8,,,,,,,,,,,,,,,,,,,,,,,AFSA14.jpg,AFNE01.jpg,AFSA15.jpg,AFNE04.jpg,AFSA14.jpg,FS,4,num_8,32,num_4,1.31679122569,,,2018_Mar_09_1255,59.99844123,FEMA4ImagesEEG,001,103346,
AFNE01.JPG,AFNE01.JPG,AFNE01.JPG,AFNE01.JPG,AFNE01.JPG,AFNE01.JPG,3,2,32,5,,,,,,,,,,,,,,,,,,,,,,,AFSA18.jpg,AFNE19.jpg,AFSA03.jpg,AFNE17.jpg,AFNE17.jpg,FN,3,num_4,16,num_4,1.08360411716,,,2018_Mar_09_1255,59.99844123,FEMA4ImagesEEG,001,103346,
AFNE01.JPG,AFNE01.JPG,AFNE01.JPG,AFNE01.JPG,AFNE01.JPG,AFNE01.JPG,3,3,33,0,,,,,,,,,,,,,,,,,,,,,,,AFSA19.jpg,AFNE19.jpg,AFSA18.jpg,AFNE18.jpg,AFNE18.jpg,FN,3,num_4,16,num_4,0.983446987113,,,2018_Mar_09_1255,59.99844123,FEMA4ImagesEEG,001,103346,
AFNE01.JPG,AFNE01.JPG,AFNE01.JPG,AFNE01.JPG,AFNE01.JPG,AFNE01.JPG,3,4,34,6,,,,,,,,,,,,,,,,,,,,,,,AFNE08.jpg,AFNE01.jpg,AFSA10.jpg,AFSA14.jpg,AFSA14.jpg,FS,4,num_4,32,num_6,0.78351601027,,,2018_Mar_09_1255,59.99844123,FEMA4ImagesEEG,001,103346,
AFNE01.JPG,AFNE01.JPG,AFNE01.JPG,AFNE01.JPG,AFNE01.JPG,AFNE01.JPG,3,5,35,7,,,,,,,,,,,,,,,,,,,,,,,AFSA20.jpg,AFNE01.jpg,AFNE18.jpg,AFSA01.jpg,AFNE18.jpg,FN,3,num_2,32,num_4,0.983536794083,,,2018_Mar_09_1255,59.99844123,FEMA4ImagesEEG,001,103346,
AFNE01.JPG,AFNE01.JPG,AFNE01.JPG,AFNE01.JPG,AFNE01.JPG,AFNE01.JPG,3,6,36,1,,,,,,,,,,,,,,,,,,,,,,,AFNE08.jpg,AFSA01.jpg,AFSA11.jpg,AFNE09.jpg,AFNE09.jpg,FN,3,num_4,32,num_8,0.766771516064,,,2018_Mar_09_1255,59.99844123,FEMA4ImagesEEG,001,103346,
AFNE01.JPG,AFNE01.JPG,AFNE01.JPG,AFNE01.JPG,AFNE01.JPG,AFNE01.JPG,3,7,37,4,,,,,,,,,,,,,,,,,,,,,,,AFSA01.jpg,AFNE05.jpg,AFNE20.jpg,AFSA04.jpg,AFSA04.jpg,FS,4,num_4,16,num_4,0.916836257325,,,2018_Mar_09_1255,59.99844123,FEMA4ImagesEEG,001,103346,
AFNE01.JPG,AFNE01.JPG,AFNE01.JPG,AFNE01.JPG,AFNE01.JPG,AFNE01.JPG,3,8,38,2,,,,,,,,,,,,,,,,,,,,,,,AFSA05.jpg,AFNE01.jpg,AFNE13.jpg,AFSA08.jpg,AFNE01.jpg,FN,3,num_6,32,num_2,0.583536922233,,,2018_Mar_09_1255,59.99844123,FEMA4ImagesEEG,001,103346,
AFNE01.JPG,AFNE01.JPG,AFNE01.JPG,AFNE01.JPG,AFNE01.JPG,AFNE01.JPG,3,9,39,3,,,,,,,,,,,,,,,,,,,,,,,AFSA14.jpg,AFNE13.jpg,AFNE17.jpg,AFSA18.jpg,AFSA14.jpg,FS,4,num_8,32,num_6,0.783484256826,,,2018_Mar_09_1255,59.99844123,FEMA4ImagesEEG,001,103346,
AFNE01.JPG,AFNE01.JPG,AFNE01.JPG,AFNE01.JPG,AFNE01.JPG,AFNE01.JPG,4,0,40,5,,,,,,,,,,,,,,,,,,,,,,,AFSA02.jpg,AFSA07.jpg,AFNE18.jpg,AFNE05.jpg,AFNE05.jpg,FN,3,num_4,32,num_8,0.966783960816,,,2018_Mar_09_1255,59.99844123,FEMA4ImagesEEG,001,103346,
AFNE01.JPG,AFNE01.JPG,AFNE01.JPG,AFNE01.JPG,AFNE01.JPG,AFNE01.JPG,4,1,41,4,,,,,,,,,,,,,,,,,,,,,,,AFNE09.jpg,AFSA20.jpg,AFNE18.jpg,AFSA05.jpg,AFNE09.jpg,FN,3,num_8,32,num_6,1.06649847119,,,2018_Mar_09_1255,59.99844123,FEMA4ImagesEEG,001,103346,
AFNE01.JPG,AFNE01.JPG,AFNE01.JPG,AFNE01.JPG,AFNE01.JPG,AFNE01.JPG,4,2,42,6,,,,,,,,,,,,,,,,,,,,,,,AFSA20.jpg,AFNE07.jpg,AFSA02.jpg,AFNE13.jpg,AFSA02.jpg,FS,4,num_2,16,num_2,0.633491040673,,,2018_Mar_09_1255,59.99844123,FEMA4ImagesEEG,001,103346,
AFNE01.JPG,AFNE01.JPG,AFNE01.JPG,AFNE01.JPG,AFNE01.JPG,AFNE01.JPG,4,3,43,7,,,,,,,,,,,,,,,,,,,,,,,AFSA09.jpg,AFSA19.jpg,AFNE03.jpg,AFNE13.jpg,AFSA19.jpg,FS,4,num_6,16,num_6,0.633497776231,,,2018_Mar_09_1255,59.99844123,FEMA4ImagesEEG,001,103346,
AFNE01.JPG,AFNE01.JPG,AFNE01.JPG,AFNE01.JPG,AFNE01.JPG,AFNE01.JPG,4,4,44,2,,,,,,,,,,,,,,,,,,,,,,,AFSA11.jpg,AFSA13.jpg,AFNE15.jpg,AFNE02.jpg,AFNE15.jpg,FN,3,num_2,32,num_6,1.08343604999,,,2018_Mar_09_1255,59.99844123,FEMA4ImagesEEG,001,103346,
AFNE01.JPG,AFNE01.JPG,AFNE01.JPG,AFNE01.JPG,AFNE01.JPG,AFNE01.JPG,4,5,45,0,,,,,,,,,,,,,,,,,,,,,,,AFNE09.jpg,AFSA06.jpg,AFNE05.jpg,AFSA14.jpg,AFSA06.jpg,FS,4,num_6,32,num_4,1.20020071836,,,2018_Mar_09_1255,59.99844123,FEMA4ImagesEEG,001,103346,
AFNE01.JPG,AFNE01.JPG,AFNE01.JPG,AFNE01.JPG,AFNE01.JPG,AFNE01.JPG,4,6,46,9,,,,,,,,,,,,,,,,,,,,,,,AFNE16.jpg,AFNE18.jpg,AFSA02.jpg,AFSA20.jpg,AFNE18.jpg,FN,3,num_6,32,num_8,0.850106854225,,,2018_Mar_09_1255,59.99844123,FEMA4ImagesEEG,001,103346,
AFNE01.JPG,AFNE01.JPG,AFNE01.JPG,AFNE01.JPG,AFNE01.JPG,AFNE01.JPG,4,7,47,3,,,,,,,,,,,,,,,,,,,,,,,AFSA15.jpg,AFNE02.jpg,AFSA06.jpg,AFNE19.jpg,AFNE19.jpg,FN,3,num_4,16,num_4,1.26673799893,,,2018_Mar_09_1255,59.99844123,FEMA4ImagesEEG,001,103346,
AFNE01.JPG,AFNE01.JPG,AFNE01.JPG,AFNE01.JPG,AFNE01.JPG,AFNE01.JPG,4,8,48,8,,,,,,,,,,,,,,,,,,,,,,,AFSA11.jpg,AFNE06.jpg,AFSA04.jpg,AFNE16.jpg,AFSA04.jpg,FS,4,num_2,16,num_2,0.533482733648,,,2018_Mar_09_1255,59.99844123,FEMA4ImagesEEG,001,103346,
AFNE01.JPG,AFNE01.JPG,AFNE01.JPG,AFNE01.JPG,AFNE01.JPG,AFNE01.JPG,4,9,49,1,,,,,,,,,,,,,,,,,,,,,,,AFSA01.jpg,AFNE10.jpg,AFSA11.jpg,AFNE17.jpg,AFSA11.jpg,FS,4,num_2,32,num_8,0.800177753437,,,2018_Mar_09_1255,59.99844123,FEMA4ImagesEEG,001,103346,
AFNE01.JPG,AFNE01.JPG,AFNE01.JPG,AFNE01.JPG,AFNE01.JPG,AFNE01.JPG,5,0,50,4,,,,,,,,,,,,,,,,,,,,,,,AFSA13.jpg,AFNE13.jpg,AFNE08.jpg,AFSA01.jpg,AFNE13.jpg,FN,3,num_6,32,num_2,0.833404697711,,,2018_Mar_09_1255,59.99844123,FEMA4ImagesEEG,001,103346,
AFNE01.JPG,AFNE01.JPG,AFNE01.JPG,AFNE01.JPG,AFNE01.JPG,AFNE01.JPG,5,1,51,1,,,,,,,,,,,,,,,,,,,,,,,AFNE03.jpg,AFNE10.jpg,AFSA05.jpg,AFSA01.jpg,AFNE03.jpg,FN,3,num_8,32,num_6,0.766799099743,,,2018_Mar_09_1255,59.99844123,FEMA4ImagesEEG,001,103346,
AFNE01.JPG,AFNE01.JPG,AFNE01.JPG,AFNE01.JPG,AFNE01.JPG,AFNE01.JPG,5,2,52,0,,,,,,,,,,,,,,,,,,,,,,,AFNE10.jpg,AFNE09.jpg,AFSA04.jpg,AFSA20.jpg,AFNE09.jpg,FN,3,num_6,16,num_6,0.783484898508,,,2018_Mar_09_1255,59.99844123,FEMA4ImagesEEG,001,103346,
AFNE01.JPG,AFNE01.JPG,AFNE01.JPG,AFNE01.JPG,AFNE01.JPG,AFNE01.JPG,5,3,53,6,,,,,,,,,,,,,,,,,,,,,,,AFSA20.jpg,AFNE09.jpg,AFNE15.jpg,AFSA08.jpg,AFNE09.jpg,FN,3,num_6,32,num_8,0.983496380737,,,2018_Mar_09_1255,59.99844123,FEMA4ImagesEEG,001,103346,
AFNE01.JPG,AFNE01.JPG,AFNE01.JPG,AFNE01.JPG,AFNE01.JPG,AFNE01.JPG,5,4,54,3,,,,,,,,,,,,,,,,,,,,,,,AFNE08.jpg,AFNE05.jpg,AFSA13.jpg,AFSA09.jpg,AFNE08.jpg,FN,3,num_8,16,num_8,0.916805466404,,,2018_Mar_09_1255,59.99844123,FEMA4ImagesEEG,001,103346,
AFNE01.JPG,AFNE01.JPG,AFNE01.JPG,AFNE01.JPG,AFNE01.JPG,AFNE01.JPG,5,5,55,5,,,,,,,,,,,,,,,,,,,,,,,AFSA11.jpg,AFNE12.jpg,AFSA04.jpg,AFNE11.jpg,AFNE11.jpg,FN,3,num_4,16,num_4,1.00041086646,,,2018_Mar_09_1255,59.99844123,FEMA4ImagesEEG,001,103346,
AFNE01.JPG,AFNE01.JPG,AFNE01.JPG,AFNE01.JPG,AFNE01.JPG,AFNE01.JPG,5,6,56,8,,,,,,,,,,,,,,,,,,,,,,,AFSA04.jpg,AFNE20.jpg,AFNE06.jpg,AFSA05.jpg,AFSA04.jpg,FS,4,num_8,32,num_4,0.783491954673,,,2018_Mar_09_1255,59.99844123,FEMA4ImagesEEG,001,103346,
AFNE01.JPG,AFNE01.JPG,AFNE01.JPG,AFNE01.JPG,AFNE01.JPG,AFNE01.JPG,5,7,57,7,,,,,,,,,,,,,,,,,,,,,,,AFSA15.jpg,AFNE12.jpg,AFSA04.jpg,AFNE04.jpg,AFNE12.jpg,FN,3,num_6,32,num_4,0.916743563721,,,2018_Mar_09_1255,59.99844123,FEMA4ImagesEEG,001,103346,
AFNE01.JPG,AFNE01.JPG,AFNE01.JPG,AFNE01.JPG,AFNE01.JPG,AFNE01.JPG,5,8,58,2,,,,,,,,,,,,,,,,,,,,,,,AFSA18.jpg,AFSA06.jpg,AFNE16.jpg,AFNE03.jpg,AFSA18.jpg,FS,4,num_8,32,num_6,0.766781779937,,,2018_Mar_09_1255,59.99844123,FEMA4ImagesEEG,001,103346,
AFNE01.JPG,AFNE01.JPG,AFNE01.JPG,AFNE01.JPG,AFNE01.JPG,AFNE01.JPG,5,9,59,9,,,,,,,,,,,,,,,,,,,,,,,AFSA20.jpg,AFSA10.jpg,AFNE17.jpg,AFNE16.jpg,AFSA20.jpg,FS,4,num_8,32,num_2,1.08329203841,,,2018_Mar_09_1255,59.99844123,FEMA4ImagesEEG,001,103346,
,,,,,,,,,,,,,,,,,,,,,,,,,,,,,,,,,,,,,,,,,,,space,22.5481206146,2018_Mar_09_1255,59.99844123,FEMA4ImagesEEG,001,103346,
AFNE01.JPG,AFNE01.JPG,AFNE01.JPG,AFNE01.JPG,AFNE01.JPG,AFNE01.JPG,,,,,0,0,0,1,,,,,,,,,,,,,,,,,,,AMNE13.jpg,AMSA06.jpg,AMNE03.jpg,AMSA20.jpg,AMSA06.jpg,MS,2,num_6,16,num_6,1.36688262015,,,2018_Mar_09_1255,59.99844123,FEMA4ImagesEEG,001,103346,
AFNE01.JPG,AFNE01.JPG,AFNE01.JPG,AFNE01.JPG,AFNE01.JPG,AFNE01.JPG,,,,,0,1,1,7,,,,,,,,,,,,,,,,,,,AMNE08.jpg,AMSA01.jpg,AMNE10.jpg,AMSA17.jpg,AMSA17.jpg,MS,2,num_4,16,num_4,0.650152142625,,,2018_Mar_09_1255,59.99844123,FEMA4ImagesEEG,001,103346,
AFNE01.JPG,AFNE01.JPG,AFNE01.JPG,AFNE01.JPG,AFNE01.JPG,AFNE01.JPG,,,,,0,2,2,6,,,,,,,,,,,,,,,,,,,AMSA10.jpg,AMNE15.jpg,AMNE12.jpg,AMSA06.jpg,AMSA06.jpg,MS,2,num_4,32,num_2,1.45004283474,,,2018_Mar_09_1255,59.99844123,FEMA4ImagesEEG,001,103346,
AFNE01.JPG,AFNE01.JPG,AFNE01.JPG,AFNE01.JPG,AFNE01.JPG,AFNE01.JPG,,,,,0,3,3,8,,,,,,,,,,,,,,,,,,,AMNE05.jpg,AMSA03.jpg,AMNE20.jpg,AMSA10.jpg,AMSA10.jpg,MS,2,num_4,16,num_4,0.566811031196,,,2018_Mar_09_1255,59.99844123,FEMA4ImagesEEG,001,103346,
AFNE01.JPG,AFNE01.JPG,AFNE01.JPG,AFNE01.JPG,AFNE01.JPG,AFNE01.JPG,,,,,0,4,4,4,,,,,,,,,,,,,,,,,,,AMNE13.jpg,AMSA08.jpg,AMNE16.jpg,AMSA13.jpg,AMNE16.jpg,MN,1,num_2,32,num_8,0.666788226692,,,2018_Mar_09_1255,59.99844123,FEMA4ImagesEEG,001,103346,
AFNE01.JPG,AFNE01.JPG,AFNE01.JPG,AFNE01.JPG,AFNE01.JPG,AFNE01.JPG,,,,,0,5,5,9,,,,,,,,,,,,,,,,,,,AMSA13.jpg,AMNE08.jpg,AMNE17.jpg,AMSA01.jpg,AMSA01.jpg,MS,2,num_4,16,num_4,0.783517934615,,,2018_Mar_09_1255,59.99844123,FEMA4ImagesEEG,001,103346,
AFNE01.JPG,AFNE01.JPG,AFNE01.JPG,AFNE01.JPG,AFNE01.JPG,AFNE01.JPG,,,,,0,6,6,2,,,,,,,,,,,,,,,,,,,AMSA15.jpg,AMSA19.jpg,AMNE12.jpg,AMNE05.jpg,AMNE05.jpg,MN,1,num_4,16,num_4,0.633460249752,,,2018_Mar_09_1255,59.99844123,FEMA4ImagesEEG,001,103346,
AFNE01.JPG,AFNE01.JPG,AFNE01.JPG,AFNE01.JPG,AFNE01.JPG,AFNE01.JPG,,,,,0,7,7,0,,,,,,,,,,,,,,,,,,,AMNE04.jpg,AMSA17.jpg,AMSA15.jpg,AMNE16.jpg,AMNE04.jpg,MN,1,num_8,32,num_2,0.94997275318,,,2018_Mar_09_1255,59.99844123,FEMA4ImagesEEG,001,103346,
AFNE01.JPG,AFNE01.JPG,AFNE01.JPG,AFNE01.JPG,AFNE01.JPG,AFNE01.JPG,,,,,0,8,8,5,,,,,,,,,,,,,,,,,,,AMSA13.jpg,AMSA02.jpg,AMNE01.jpg,AMNE09.jpg,AMNE01.jpg,MN,1,num_2,16,num_2,0.483511295402,,,2018_Mar_09_1255,59.99844123,FEMA4ImagesEEG,001,103346,
AFNE01.JPG,AFNE01.JPG,AFNE01.JPG,AFNE01.JPG,AFNE01.JPG,AFNE01.JPG,,,,,0,9,9,3,,,,,,,,,,,,,,,,,,,AMNE13.jpg,AMSA18.jpg,AMSA12.jpg,AMNE17.jpg,AMSA18.jpg,MS,2,num_6,16,num_6,0.73347753752,,,2018_Mar_09_1255,59.99844123,FEMA4ImagesEEG,001,103346,
AFNE01.JPG,AFNE01.JPG,AFNE01.JPG,AFNE01.JPG,AFNE01.JPG,AFNE01.JPG,,,,,1,0,10,1,,,,,,,,,,,,,,,,,,,AMSA10.jpg,AMSA18.jpg,AMNE18.jpg,AMNE05.jpg,AMSA10.jpg,MS,2,num_8,32,num_6,0.666525220964,,,2018_Mar_09_1255,59.99844123,FEMA4ImagesEEG,001,103346,
AFNE01.JPG,AFNE01.JPG,AFNE01.JPG,AFNE01.JPG,AFNE01.JPG,AFNE01.JPG,,,,,1,1,11,9,,,,,,,,,,,,,,,,,,,AMSA02.jpg,AMNE13.jpg,AMSA13.jpg,AMNE15.jpg,AMSA02.jpg,MS,2,num_8,16,num_8,0.833482957911,,,2018_Mar_09_1255,59.99844123,FEMA4ImagesEEG,001,103346,
AFNE01.JPG,AFNE01.JPG,AFNE01.JPG,AFNE01.JPG,AFNE01.JPG,AFNE01.JPG,,,,,1,2,12,7,,,,,,,,,,,,,,,,,,,AMSA06.jpg,AMNE16.jpg,AMNE02.jpg,AMSA20.jpg,AMSA20.jpg,MS,2,num_4,16,num_4,1.13343475107,,,2018_Mar_09_1255,59.99844123,FEMA4ImagesEEG,001,103346,
AFNE01.JPG,AFNE01.JPG,AFNE01.JPG,AFNE01.JPG,AFNE01.JPG,AFNE01.JPG,,,,,1,3,13,0,,,,,,,,,,,,,,,,,,,AMNE15.jpg,AMSA04.jpg,AMSA05.jpg,AMNE12.jpg,AMSA05.jpg,MS,2,num_2,32,num_8,0.866833066102,,,2018_Mar_09_1255,59.99844123,FEMA4ImagesEEG,001,103346,
AFNE01.JPG,AFNE01.JPG,AFNE01.JPG,AFNE01.JPG,AFNE01.JPG,AFNE01.JPG,,,,,1,4,14,4,,,,,,,,,,,,,,,,,,,AMNE10.jpg,AMNE20.jpg,AMSA10.jpg,AMSA13.jpg,AMNE10.jpg,MN,1,num_8,16,num_8,0.916743243113,,,2018_Mar_09_1255,59.99844123,FEMA4ImagesEEG,001,103346,
AFNE01.JPG,AFNE01.JPG,AFNE01.JPG,AFNE01.JPG,AFNE01.JPG,AFNE01.JPG,,,,,1,5,15,5,,,,,,,,,,,,,,,,,,,AMNE18.jpg,AMSA06.jpg,AMNE06.jpg,AMSA14.jpg,AMNE18.jpg,MN,1,num_8,32,num_6,0.816782726208,,,2018_Mar_09_1255,59.99844123,FEMA4ImagesEEG,001,103346,
AFNE01.JPG,AFNE01.JPG,AFNE01.JPG,AFNE01.JPG,AFNE01.JPG,AFNE01.JPG,,,,,1,6,16,8,,,,,,,,,,,,,,,,,,,AMNE04.jpg,AMNE09.jpg,AMSA05.jpg,AMSA13.jpg,AMSA13.jpg,MS,2,num_4,32,num_8,0.733485876815,,,2018_Mar_09_1255,59.99844123,FEMA4ImagesEEG,001,103346,
AFNE01.JPG,AFNE01.JPG,AFNE01.JPG,AFNE01.JPG,AFNE01.JPG,AFNE01.JPG,,,,,1,7,17,3,,,,,,,,,,,,,,,,,,,AMNE08.jpg,AMNE02.jpg,AMSA01.jpg,AMSA17.jpg,AMNE08.jpg,MN,1,num_8,32,num_4,0.966611403273,,,2018_Mar_09_1255,59.99844123,FEMA4ImagesEEG,001,103346,
AFNE01.JPG,AFNE01.JPG,AFNE01.JPG,AFNE01.JPG,AFNE01.JPG,AFNE01.JPG,,,,,1,8,18,2,,,,,,,,,,,,,,,,,,,AMNE18.jpg,AMSA12.jpg,AMSA04.jpg,AMNE20.jpg,AMNE20.jpg,MN,1,num_4,32,num_6,1.30009099352,,,2018_Mar_09_1255,59.99844123,FEMA4ImagesEEG,001,103346,
AFNE01.JPG,AFNE01.JPG,AFNE01.JPG,AFNE01.JPG,AFNE01.JPG,AFNE01.JPG,,,,,1,9,19,6,,,,,,,,,,,,,,,,,,,AMNE19.jpg,AMNE15.jpg,AMSA14.jpg,AMSA20.jpg,AMSA20.jpg,MS,2,num_4,32,num_8,0.716751967091,,,2018_Mar_09_1255,59.99844123,FEMA4ImagesEEG,001,103346,
AFNE01.JPG,AFNE01.JPG,AFNE01.JPG,AFNE01.JPG,AFNE01.JPG,AFNE01.JPG,,,,,2,0,20,9,,,,,,,,,,,,,,,,,,,AMSA18.jpg,AMNE03.jpg,AMNE14.jpg,AMSA11.jpg,AMNE03.jpg,MN,1,num_6,16,num_6,0.966745472047,,,2018_Mar_09_1255,59.99844123,FEMA4ImagesEEG,001,103346,
AFNE01.JPG,AFNE01.JPG,AFNE01.JPG,AFNE01.JPG,AFNE01.JPG,AFNE01.JPG,,,,,2,1,21,3,,,,,,,,,,,,,,,,,,,AMSA18.jpg,AMNE15.jpg,AMSA20.jpg,AMNE19.jpg,AMNE19.jpg,MN,1,num_4,16,num_4,0.816824101377,,,2018_Mar_09_1255,59.99844123,FEMA4ImagesEEG,001,103346,
AFNE01.JPG,AFNE01.JPG,AFNE01.JPG,AFNE01.JPG,AFNE01.JPG,AFNE01.JPG,,,,,2,2,22,6,,,,,,,,,,,,,,,,,,,AMSA13.jpg,AMNE08.jpg,AMNE09.jpg,AMSA20.jpg,AMNE09.jpg,MN,1,num_2,16,num_2,1.21675148606,,,2018_Mar_09_1255,59.99844123,FEMA4ImagesEEG,001,103346,
AFNE01.JPG,AFNE01.JPG,AFNE01.JPG,AFNE01.JPG,AFNE01.JPG,AFNE01.JPG,,,,,2,3,23,7,,,,,,,,,,,,,,,,,,,AMSA04.jpg,AMNE14.jpg,AMNE18.jpg,AMSA11.jpg,AMNE14.jpg,MN,1,num_6,16,num_6,0.883473640541,,,2018_Mar_09_1255,59.99844123,FEMA4ImagesEEG,001,103346,
AFNE01.JPG,AFNE01.JPG,AFNE01.JPG,AFNE01.JPG,AFNE01.JPG,AFNE01.JPG,,,,,2,4,24,8,,,,,,,,,,,,,,,,,,,AMNE19.jpg,AMNE18.jpg,AMSA05.jpg,AMSA17.jpg,AMNE18.jpg,MN,1,num_6,32,num_8,1.13342705322,,,2018_Mar_09_1255,59.99844123,FEMA4ImagesEEG,001,103346,
AFNE01.JPG,AFNE01.JPG,AFNE01.JPG,AFNE01.JPG,AFNE01.JPG,AFNE01.JPG,,,,,2,5,25,4,,,,,,,,,,,,,,,,,,,AMSA17.jpg,AMSA01.jpg,AMNE20.jpg,AMNE04.jpg,AMNE20.jpg,MN,1,num_2,32,num_4,1.98336006701,,,2018_Mar_09_1255,59.99844123,FEMA4ImagesEEG,001,103346,
AFNE01.JPG,AFNE01.JPG,AFNE01.JPG,AFNE01.JPG,AFNE01.JPG,AFNE01.JPG,,,,,2,6,26,2,,,,,,,,,,,,,,,,,,,AMNE04.jpg,AMSA14.jpg,AMSA01.jpg,AMNE14.jpg,AMNE04.jpg,MN,1,num_8,32,num_6,1.13347259816,,,2018_Mar_09_1255,59.99844123,FEMA4ImagesEEG,001,103346,
AFNE01.JPG,AFNE01.JPG,AFNE01.JPG,AFNE01.JPG,AFNE01.JPG,AFNE01.JPG,,,,,2,7,27,5,,,,,,,,,,,,,,,,,,,AMNE12.jpg,AMSA14.jpg,AMSA03.jpg,AMNE20.jpg,AMSA03.jpg,MS,2,num_2,16,num_2,0.866764748702,,,2018_Mar_09_1255,59.99844123,FEMA4ImagesEEG,001,103346,
AFNE01.JPG,AFNE01.JPG,AFNE01.JPG,AFNE01.JPG,AFNE01.JPG,AFNE01.JPG,,,,,2,8,28,0,,,,,,,,,,,,,,,,,,,AMNE16.jpg,AMSA15.jpg,AMNE06.jpg,AMSA18.jpg,AMNE16.jpg,MN,1,num_8,32,num_2,0.816743275151,,,2018_Mar_09_1255,59.99844123,FEMA4ImagesEEG,001,103346,
AFNE01.JPG,AFNE01.JPG,AFNE01.JPG,AFNE01.JPG,AFNE01.JPG,AFNE01.JPG,,,,,2,9,29,1,,,,,,,,,,,,,,,,,,,AMNE10.jpg,AMSA10.jpg,AMNE05.jpg,AMSA03.jpg,AMSA03.jpg,MS,2,num_4,16,num_4,0.566794031998,,,2018_Mar_09_1255,59.99844123,FEMA4ImagesEEG,001,103346,
AFNE01.JPG,AFNE01.JPG,AFNE01.JPG,AFNE01.JPG,AFNE01.JPG,AFNE01.JPG,,,,,3,0,30,6,,,,,,,,,,,,,,,,,,,AMSA18.jpg,AMNE19.jpg,AMSA03.jpg,AMNE04.jpg,AMNE19.jpg,MN,1,num_6,16,num_6,0.466781234602,,,2018_Mar_09_1255,59.99844123,FEMA4ImagesEEG,001,103346,
AFNE01.JPG,AFNE01.JPG,AFNE01.JPG,AFNE01.JPG,AFNE01.JPG,AFNE01.JPG,,,,,3,1,31,5,,,,,,,,,,,,,,,,,,,AMNE04.jpg,AMSA20.jpg,AMNE06.jpg,AMSA01.jpg,AMSA01.jpg,MS,2,num_4,16,num_4,1.5167363151,,,2018_Mar_09_1255,59.99844123,FEMA4ImagesEEG,001,103346,
AFNE01.JPG,AFNE01.JPG,AFNE01.JPG,AFNE01.JPG,AFNE01.JPG,AFNE01.JPG,,,,,3,2,32,8,,,,,,,,,,,,,,,,,,,AMNE08.jpg,AMSA02.jpg,AMSA16.jpg,AMNE20.jpg,AMNE20.jpg,MN,1,num_4,32,num_2,0.783520500641,,,2018_Mar_09_1255,59.99844123,FEMA4ImagesEEG,001,103346,
AFNE01.JPG,AFNE01.JPG,AFNE01.JPG,AFNE01.JPG,AFNE01.JPG,AFNE01.JPG,,,,,3,3,33,7,,,,,,,,,,,,,,,,,,,AMNE06.jpg,AMSA18.jpg,AMSA13.jpg,AMNE16.jpg,AMSA18.jpg,MS,2,num_6,32,num_2,0.683490062365,,,2018_Mar_09_1255,59.99844123,FEMA4ImagesEEG,001,103346,
AFNE01.JPG,AFNE01.JPG,AFNE01.JPG,AFNE01.JPG,AFNE01.JPG,AFNE01.JPG,,,,,3,4,34,4,,,,,,,,,,,,,,,,,,,AMNE17.jpg,AMNE14.jpg,AMSA08.jpg,AMSA02.jpg,AMSA02.jpg,MS,2,num_4,16,num_4,0.700135768857,,,2018_Mar_09_1255,59.99844123,FEMA4ImagesEEG,001,103346,
AFNE01.JPG,AFNE01.JPG,AFNE01.JPG,AFNE01.JPG,AFNE01.JPG,AFNE01.JPG,,,,,3,5,35,1,,,,,,,,,,,,,,,,,,,AMNE18.jpg,AMSA10.jpg,AMSA01.jpg,AMNE02.jpg,AMNE18.jpg,MN,1,num_8,32,num_6,0.600499198074,,,2018_Mar_09_1255,59.99844123,FEMA4ImagesEEG,001,103346,
AFNE01.JPG,AFNE01.JPG,AFNE01.JPG,AFNE01.JPG,AFNE01.JPG,AFNE01.JPG,,,,,3,6,36,0,,,,,,,,,,,,,,,,,,,AMSA05.jpg,AMSA07.jpg,AMNE06.jpg,AMNE12.jpg,AMNE12.jpg,MN,1,num_4,32,num_8,0.916764411842,,,2018_Mar_09_1255,59.99844123,FEMA4ImagesEEG,001,103346,
AFNE01.JPG,AFNE01.JPG,AFNE01.JPG,AFNE01.JPG,AFNE01.JPG,AFNE01.JPG,,,,,3,7,37,2,,,,,,,,,,,,,,,,,,,AMNE09.jpg,AMNE07.jpg,AMSA16.jpg,AMSA09.jpg,AMSA09.jpg,MS,2,num_4,32,num_6,0.833475901978,,,2018_Mar_09_1255,59.99844123,FEMA4ImagesEEG,001,103346,
AFNE01.JPG,AFNE01.JPG,AFNE01.JPG,AFNE01.JPG,AFNE01.JPG,AFNE01.JPG,,,,,3,8,38,3,,,,,,,,,,,,,,,,,,,AMSA06.jpg,AMNE20.jpg,AMNE18.jpg,AMSA11.jpg,AMSA06.jpg,MS,2,num_8,16,num_8,0.716771211475,,,2018_Mar_09_1255,59.99844123,FEMA4ImagesEEG,001,103346,
AFNE01.JPG,AFNE01.JPG,AFNE01.JPG,AFNE01.JPG,AFNE01.JPG,AFNE01.JPG,,,,,3,9,39,9,,,,,,,,,,,,,,,,,,,AMNE20.jpg,AMSA17.jpg,AMSA01.jpg,AMNE12.jpg,AMNE12.jpg,MN,1,num_4,16,num_4,0.716763834469,,,2018_Mar_09_1255,59.99844123,FEMA4ImagesEEG,001,103346,
AFNE01.JPG,AFNE01.JPG,AFNE01.JPG,AFNE01.JPG,AFNE01.JPG,AFNE01.JPG,,,,,4,0,40,6,,,,,,,,,,,,,,,,,,,AMSA11.jpg,AMSA10.jpg,AMNE14.jpg,AMNE04.jpg,AMSA11.jpg,MS,2,num_8,16,num_8,0.616762263002,,,2018_Mar_09_1255,59.99844123,FEMA4ImagesEEG,001,103346,
AFNE01.JPG,AFNE01.JPG,AFNE01.JPG,AFNE01.JPG,AFNE01.JPG,AFNE01.JPG,,,,,4,1,41,0,,,,,,,,,,,,,,,,,,,AMSA12.jpg,AMNE12.jpg,AMSA03.jpg,AMNE04.jpg,AMNE04.jpg,MN,1,num_4,16,num_4,0.583472132916,,,2018_Mar_09_1255,59.99844123,FEMA4ImagesEEG,001,103346,
AFNE01.JPG,AFNE01.JPG,AFNE01.JPG,AFNE01.JPG,AFNE01.JPG,AFNE01.JPG,,,,,4,2,42,1,,,,,,,,,,,,,,,,,,,AMSA15.jpg,AMSA01.jpg,AMNE20.jpg,AMNE03.jpg,AMSA15.jpg,MS,2,num_8,32,num_4,0.850103646982,,,2018_Mar_09_1255,59.99844123,FEMA4ImagesEEG,001,103346,
AFNE01.JPG,AFNE01.JPG,AFNE01.JPG,AFNE01.JPG,AFNE01.JPG,AFNE01.JPG,,,,,4,3,43,3,,,,,,,,,,,,,,,,,,,AMSA12.jpg,AMNE10.jpg,AMNE19.jpg,AMSA17.jpg,AMSA17.jpg,MS,2,num_4,32,num_8,0.80012483173,,,2018_Mar_09_1255,59.99844123,FEMA4ImagesEEG,001,103346,
AFNE01.JPG,AFNE01.JPG,AFNE01.JPG,AFNE01.JPG,AFNE01.JPG,AFNE01.JPG,,,,,4,4,44,4,,,,,,,,,,,,,,,,,,,AMNE12.jpg,AMSA04.jpg,AMSA01.jpg,AMNE13.jpg,AMSA01.jpg,MS,2,num_2,32,num_8,0.933426796691,,,2018_Mar_09_1255,59.99844123,FEMA4ImagesEEG,001,103346,
AFNE01.JPG,AFNE01.JPG,AFNE01.JPG,AFNE01.JPG,AFNE01.JPG,AFNE01.JPG,,,,,4,5,45,8,,,,,,,,,,,,,,,,,,,AMSA02.jpg,AMSA08.jpg,AMNE09.jpg,AMNE03.jpg,AMSA08.jpg,MS,2,num_6,16,num_6,0.600139328977,,,2018_Mar_09_1255,59.99844123,FEMA4ImagesEEG,001,103346,
AFNE01.JPG,AFNE01.JPG,AFNE01.JPG,AFNE01.JPG,AFNE01.JPG,AFNE01.JPG,,,,,4,6,46,2,,,,,,,,,,,,,,,,,,,AMSA15.jpg,AMNE16.jpg,AMSA12.jpg,AMNE04.jpg,AMNE04.jpg,MN,1,num_4,32,num_6,1.2667495457,,,2018_Mar_09_1255,59.99844123,FEMA4ImagesEEG,001,103346,
AFNE01.JPG,AFNE01.JPG,AFNE01.JPG,AFNE01.JPG,AFNE01.JPG,AFNE01.JPG,,,,,4,7,47,7,,,,,,,,,,,,,,,,,,,AMNE11.jpg,AMSA15.jpg,AMNE12.jpg,AMSA13.jpg,AMSA15.jpg,MS,2,num_6,32,num_4,0.63349713455,,,2018_Mar_09_1255,59.99844123,FEMA4ImagesEEG,001,103346,
AFNE01.JPG,AFNE01.JPG,AFNE01.JPG,AFNE01.JPG,AFNE01.JPG,AFNE01.JPG,,,,,4,8,48,9,,,,,,,,,,,,,,,,,,,AMSA09.jpg,AMNE06.jpg,AMNE02.jpg,AMSA13.jpg,AMNE02.jpg,MN,1,num_2,16,num_2,0.699985983782,,,2018_Mar_09_1255,59.99844123,FEMA4ImagesEEG,001,103346,
AFNE01.JPG,AFNE01.JPG,AFNE01.JPG,AFNE01.JPG,AFNE01.JPG,AFNE01.JPG,,,,,4,9,49,5,,,,,,,,,,,,,,,,,,,AMNE06.jpg,AMNE16.jpg,AMSA03.jpg,AMSA08.jpg,AMSA08.jpg,MS,2,num_4,16,num_4,0.616808128543,,,2018_Mar_09_1255,59.99844123,FEMA4ImagesEEG,001,103346,
AFNE01.JPG,AFNE01.JPG,AFNE01.JPG,AFNE01.JPG,AFNE01.JPG,AFNE01.JPG,,,,,5,0,50,9,,,,,,,,,,,,,,,,,,,AMNE01.jpg,AMNE09.jpg,AMSA10.jpg,AMSA14.jpg,AMNE09.jpg,MN,1,num_6,16,num_6,1.05015650461,,,2018_Mar_09_1255,59.99844123,FEMA4ImagesEEG,001,103346,
AFNE01.JPG,AFNE01.JPG,AFNE01.JPG,AFNE01.JPG,AFNE01.JPG,AFNE01.JPG,,,,,5,1,51,7,,,,,,,,,,,,,,,,,,,AMSA04.jpg,AMNE08.jpg,AMSA19.jpg,AMNE10.jpg,AMNE10.jpg,MN,1,num_4,16,num_4,0.616816146998,,,2018_Mar_09_1255,59.99844123,FEMA4ImagesEEG,001,103346,
AFNE01.JPG,AFNE01.JPG,AFNE01.JPG,AFNE01.JPG,AFNE01.JPG,AFNE01.JPG,,,,,5,2,52,2,,,,,,,,,,,,,,,,,,,AMSA05.jpg,AMNE07.jpg,AMSA16.jpg,AMNE06.jpg,AMNE07.jpg,MN,1,num_6,32,num_4,0.850127702113,,,2018_Mar_09_1255,59.99844123,FEMA4ImagesEEG,001,103346,
AFNE01.JPG,AFNE01.JPG,AFNE01.JPG,AFNE01.JPG,AFNE01.JPG,AFNE01.JPG,,,,,5,3,53,3,,,,,,,,,,,,,,,,,,,AMNE06.jpg,AMSA12.jpg,AMNE01.jpg,AMSA16.jpg,AMNE06.jpg,MN,1,num_8,16,num_8,0.816774066072,,,2018_Mar_09_1255,59.99844123,FEMA4ImagesEEG,001,103346,
AFNE01.JPG,AFNE01.JPG,AFNE01.JPG,AFNE01.JPG,AFNE01.JPG,AFNE01.JPG,,,,,5,4,54,5,,,,,,,,,,,,,,,,,,,AMSA13.jpg,AMNE13.jpg,AMSA07.jpg,AMNE08.jpg,AMSA07.jpg,MS,2,num_2,16,num_2,0.916831125505,,,2018_Mar_09_1255,59.99844123,FEMA4ImagesEEG,001,103346,
AFNE01.JPG,AFNE01.JPG,AFNE01.JPG,AFNE01.JPG,AFNE01.JPG,AFNE01.JPG,,,,,5,5,55,4,,,,,,,,,,,,,,,,,,,AMNE01.jpg,AMSA16.jpg,AMNE20.jpg,AMSA15.jpg,AMSA15.jpg,MS,2,num_4,16,num_4,0.583486886928,,,2018_Mar_09_1255,59.99844123,FEMA4ImagesEEG,001,103346,
AFNE01.JPG,AFNE01.JPG,AFNE01.JPG,AFNE01.JPG,AFNE01.JPG,AFNE01.JPG,,,,,5,6,56,8,,,,,,,,,,,,,,,,,,,AMNE11.jpg,AMSA07.jpg,AMNE10.jpg,AMSA05.jpg,AMNE10.jpg,MN,1,num_2,32,num_8,0.950033372967,,,2018_Mar_09_1255,59.99844123,FEMA4ImagesEEG,001,103346,
AFNE01.JPG,AFNE01.JPG,AFNE01.JPG,AFNE01.JPG,AFNE01.JPG,AFNE01.JPG,,,,,5,7,57,0,,,,,,,,,,,,,,,,,,,AMSA02.jpg,AMSA16.jpg,AMNE04.jpg,AMNE10.jpg,AMNE04.jpg,MN,1,num_2,16,num_2,1.0503223266,,,2018_Mar_09_1255,59.99844123,FEMA4ImagesEEG,001,103346,
AFNE01.JPG,AFNE01.JPG,AFNE01.JPG,AFNE01.JPG,AFNE01.JPG,AFNE01.JPG,,,,,5,8,58,6,,,,,,,,,,,,,,,,,,,AMNE03.jpg,AMSA11.jpg,AMSA18.jpg,AMNE17.jpg,AMSA18.jpg,MS,2,num_2,16,num_2,0.450197751401,,,2018_Mar_09_1255,59.99844123,FEMA4ImagesEEG,001,103346,
AFNE01.JPG,AFNE01.JPG,AFNE01.JPG,AFNE01.JPG,AFNE01.JPG,AFNE01.JPG,,,,,5,9,59,1,,,,,,,,,,,,,,,,,,,AMSA18.jpg,AMNE20.jpg,AMSA15.jpg,AMNE09.jpg,AMNE09.jpg,MN,1,num_4,16,num_4,0.733344751643,,,2018_Mar_09_1255,59.99844123,FEMA4ImagesEEG,001,103346,
,,,,,,,,,,,,,,,,,,,,,,,,,,,,,,,,,,,,,,,,,,,space,17.4821420612,2018_Mar_09_1255,59.99844123,FEMA4ImagesEEG,001,103346,
AFNE01.JPG,AFNE01.JPG,AFNE01.JPG,AFNE01.JPG,AFNE01.JPG,AFNE01.JPG,,,,,,,,,0,0,0,6,,,,,,,,,,,,,,,AFNE04.jpg,AFNE02.jpg,AFSA09.jpg,AFSA08.jpg,AFNE04.jpg,FN,3,num_8,16,num_8,0.866847819882,,,2018_Mar_09_1255,59.99844123,FEMA4ImagesEEG,001,103346,
AFNE01.JPG,AFNE01.JPG,AFNE01.JPG,AFNE01.JPG,AFNE01.JPG,AFNE01.JPG,,,,,,,,,0,1,1,0,,,,,,,,,,,,,,,AFSA18.jpg,AFNE17.jpg,AFSA14.jpg,AFNE19.jpg,AFNE19.jpg,FN,3,num_4,16,num_4,0.666814206401,,,2018_Mar_09_1255,59.99844123,FEMA4ImagesEEG,001,103346,
AFNE01.JPG,AFNE01.JPG,AFNE01.JPG,AFNE01.JPG,AFNE01.JPG,AFNE01.JPG,,,,,,,,,0,2,2,9,,,,,,,,,,,,,,,AFSA02.jpg,AFSA04.jpg,AFNE05.jpg,AFNE07.jpg,AFSA02.jpg,FS,4,num_8,32,num_6,0.616652249359,,,2018_Mar_09_1255,59.99844123,FEMA4ImagesEEG,001,103346,
AFNE01.JPG,AFNE01.JPG,AFNE01.JPG,AFNE01.JPG,AFNE01.JPG,AFNE01.JPG,,,,,,,,,0,3,3,5,,,,,,,,,,,,,,,AFSA09.jpg,AFNE12.jpg,AFNE09.jpg,AFSA18.jpg,AFSA18.jpg,FS,4,num_4,16,num_4,0.549823096488,,,2018_Mar_09_1255,59.99844123,FEMA4ImagesEEG,001,103346,
AFNE01.JPG,AFNE01.JPG,AFNE01.JPG,AFNE01.JPG,AFNE01.JPG,AFNE01.JPG,,,,,,,,,0,4,4,7,,,,,,,,,,,,,,,AFNE17.jpg,AFSA10.jpg,AFNE12.jpg,AFSA05.jpg,AFNE12.jpg,FN,3,num_2,32,num_6,0.666801697807,,,2018_Mar_09_1255,59.99844123,FEMA4ImagesEEG,001,103346,
AFNE01.JPG,AFNE01.JPG,AFNE01.JPG,AFNE01.JPG,AFNE01.JPG,AFNE01.JPG,,,,,,,,,0,5,5,1,,,,,,,,,,,,,,,AFSA18.jpg,AFSA07.jpg,AFNE12.jpg,AFNE03.jpg,AFNE12.jpg,FN,3,num_2,32,num_6,0.650266325567,,,2018_Mar_09_1255,59.99844123,FEMA4ImagesEEG,001,103346,
AFNE01.JPG,AFNE01.JPG,AFNE01.JPG,AFNE01.JPG,AFNE01.JPG,AFNE01.JPG,,,,,,,,,0,6,6,2,,,,,,,,,,,,,,,AFSA14.jpg,AFSA06.jpg,AFNE13.jpg,AFNE03.jpg,AFSA06.jpg,FS,4,num_6,32,num_4,0.733486197423,,,2018_Mar_09_1255,59.99844123,FEMA4ImagesEEG,001,103346,
AFNE01.JPG,AFNE01.JPG,AFNE01.JPG,AFNE01.JPG,AFNE01.JPG,AFNE01.JPG,,,,,,,,,0,7,7,8,,,,,,,,,,,,,,,AFNE13.jpg,AFSA10.jpg,AFSA14.jpg,AFNE11.jpg,AFSA10.jpg,FS,4,num_6,16,num_6,0.733520195587,,,2018_Mar_09_1255,59.99844123,FEMA4ImagesEEG,001,103346,
AFNE01.JPG,AFNE01.JPG,AFNE01.JPG,AFNE01.JPG,AFNE01.JPG,AFNE01.JPG,,,,,,,,,0,8,8,4,,,,,,,,,,,,,,,AFNE17.jpg,AFNE19.jpg,AFSA12.jpg,AFSA13.jpg,AFSA12.jpg,FS,4,num_2,32,num_6,0.83345248783,,,2018_Mar_09_1255,59.99844123,FEMA4ImagesEEG,001,103346,
AFNE01.JPG,AFNE01.JPG,AFNE01.JPG,AFNE01.JPG,AFNE01.JPG,AFNE01.JPG,,,,,,,,,0,9,9,3,,,,,,,,,,,,,,,AFNE15.jpg,AFSA18.jpg,AFNE10.jpg,AFSA16.jpg,AFNE10.jpg,FN,3,num_2,16,num_2,1.00013182382,,,2018_Mar_09_1255,59.99844123,FEMA4ImagesEEG,001,103346,
AFNE01.JPG,AFNE01.JPG,AFNE01.JPG,AFNE01.JPG,AFNE01.JPG,AFNE01.JPG,,,,,,,,,1,0,10,3,,,,,,,,,,,,,,,AFSA05.jpg,AFNE15.jpg,AFNE02.jpg,AFSA10.jpg,AFNE02.jpg,FN,3,num_2,32,num_8,1.18345013028,,,2018_Mar_09_1255,59.99844123,FEMA4ImagesEEG,001,103346,
AFNE01.JPG,AFNE01.JPG,AFNE01.JPG,AFNE01.JPG,AFNE01.JPG,AFNE01.JPG,,,,,,,,,1,1,11,8,,,,,,,,,,,,,,,AFSA17.jpg,AFSA09.jpg,AFNE20.jpg,AFNE01.jpg,AFNE20.jpg,FN,3,num_2,16,num_2,0.616953102406,,,2018_Mar_09_1255,59.99844123,FEMA4ImagesEEG,001,103346,
AFNE01.JPG,AFNE01.JPG,AFNE01.JPG,AFNE01.JPG,AFNE01.JPG,AFNE01.JPG,,,,,,,,,1,2,12,7,,,,,,,,,,,,,,,AFSA11.jpg,AFNE07.jpg,AFSA16.jpg,AFNE09.jpg,AFNE09.jpg,FN,3,num_4,16,num_4,0.550173343159,,,2018_Mar_09_1255,59.99844123,FEMA4ImagesEEG,001,103346,
AFNE01.JPG,AFNE01.JPG,AFNE01.JPG,AFNE01.JPG,AFNE01.JPG,AFNE01.JPG,,,,,,,,,1,3,13,6,,,,,,,,,,,,,,,AFNE16.jpg,AFSA18.jpg,AFSA20.jpg,AFNE08.jpg,AFSA20.jpg,FS,4,num_2,32,num_8,1.76668555802,,,2018_Mar_09_1255,59.99844123,FEMA4ImagesEEG,001,103346,
AFNE01.JPG,AFNE01.JPG,AFNE01.JPG,AFNE01.JPG,AFNE01.JPG,AFNE01.JPG,,,,,,,,,1,4,14,4,,,,,,,,,,,,,,,AFNE10.jpg,AFNE13.jpg,AFSA08.jpg,AFSA10.jpg,AFNE10.jpg,FN,3,num_8,32,num_4,0.500169510487,,,2018_Mar_09_1255,59.99844123,FEMA4ImagesEEG,001,103346,
AFNE01.JPG,AFNE01.JPG,AFNE01.JPG,AFNE01.JPG,AFNE01.JPG,AFNE01.JPG,,,,,,,,,1,5,15,0,,,,,,,,,,,,,,,AFSA20.jpg,AFSA13.jpg,AFNE17.jpg,AFNE13.jpg,AFNE17.jpg,FN,3,num_2,32,num_8,0.81681095087,,,2018_Mar_09_1255,59.99844123,FEMA4ImagesEEG,001,103346,
AFNE01.JPG,AFNE01.JPG,AFNE01.JPG,AFNE01.JPG,AFNE01.JPG,AFNE01.JPG,,,,,,,,,1,6,16,5,,,,,,,,,,,,,,,AFNE17.jpg,AFNE14.jpg,AFSA04.jpg,AFSA10.jpg,AFSA10.jpg,FS,4,num_4,32,num_8,2.58339226921,,,2018_Mar_09_1255,59.99844123,FEMA4ImagesEEG,001,103346,
AFNE01.JPG,AFNE01.JPG,AFNE01.JPG,AFNE01.JPG,AFNE01.JPG,AFNE01.JPG,,,,,,,,,1,7,17,1,,,,,,,,,,,,,,,AFNE03.jpg,AFSA10.jpg,AFNE18.jpg,AFSA13.jpg,AFSA10.jpg,FS,4,num_6,16,num_6,1.08345304918,,,2018_Mar_09_1255,59.99844123,FEMA4ImagesEEG,001,103346,
AFNE01.JPG,AFNE01.JPG,AFNE01.JPG,AFNE01.JPG,AFNE01.JPG,AFNE01.JPG,,,,,,,,,1,8,18,2,,,,,,,,,,,,,,,AFNE20.jpg,AFNE15.jpg,AFSA13.jpg,AFSA10.jpg,AFSA10.jpg,FS,4,num_4,16,num_4,0.483507446246,,,2018_Mar_09_1255,59.99844123,FEMA4ImagesEEG,001,103346,
AFNE01.JPG,AFNE01.JPG,AFNE01.JPG,AFNE01.JPG,AFNE01.JPG,AFNE01.JPG,,,,,,,,,1,9,19,9,,,,,,,,,,,,,,,AFSA18.jpg,AFNE02.jpg,AFSA07.jpg,AFNE05.jpg,AFNE02.jpg,FN,3,num_6,16,num_6,0.950162951369,,,2018_Mar_09_1255,59.99844123,FEMA4ImagesEEG,001,103346,
AFNE01.JPG,AFNE01.JPG,AFNE01.JPG,AFNE01.JPG,AFNE01.JPG,AFNE01.JPG,,,,,,,,,2,0,20,5,,,,,,,,,,,,,,,AFSA04.jpg,AFSA18.jpg,AFNE03.jpg,AFNE12.jpg,AFSA04.jpg,FS,4,num_8,32,num_6,1.00019565085,,,2018_Mar_09_1255,59.99844123,FEMA4ImagesEEG,001,103346,
AFNE01.JPG,AFNE01.JPG,AFNE01.JPG,AFNE01.JPG,AFNE01.JPG,AFNE01.JPG,,,,,,,,,2,1,21,6,,,,,,,,,,,,,,,AFNE19.jpg,AFNE01.jpg,AFSA02.jpg,AFSA10.jpg,AFNE01.jpg,FN,3,num_6,16,num_6,1.08356562839,,,2018_Mar_09_1255,59.99844123,FEMA4ImagesEEG,001,103346,
AFNE01.JPG,AFNE01.JPG,AFNE01.JPG,AFNE01.JPG,AFNE01.JPG,AFNE01.JPG,,,,,,,,,2,2,22,1,,,,,,,,,,,,,,,AFNE12.jpg,AFSA12.jpg,AFNE04.jpg,AFSA07.jpg,AFSA12.jpg,FS,4,num_6,16,num_6,1.06683685072,,,2018_Mar_09_1255,59.99844123,FEMA4ImagesEEG,001,103346,
AFNE01.JPG,AFNE01.JPG,AFNE01.JPG,AFNE01.JPG,AFNE01.JPG,AFNE01.JPG,,,,,,,,,2,3,23,8,,,,,,,,,,,,,,,AFNE04.jpg,AFNE20.jpg,AFSA12.jpg,AFSA17.jpg,AFNE20.jpg,FN,3,num_6,16,num_6,0.850165870273,,,2018_Mar_09_1255,59.99844123,FEMA4ImagesEEG,001,103346,
AFNE01.JPG,AFNE01.JPG,AFNE01.JPG,AFNE01.JPG,AFNE01.JPG,AFNE01.JPG,,,,,,,,,2,4,24,3,,,,,,,,,,,,,,,AFSA04.jpg,AFNE20.jpg,AFSA18.jpg,AFNE18.jpg,AFNE18.jpg,FN,3,num_4,32,num_6,0.616798185511,,,2018_Mar_09_1255,59.99844123,FEMA4ImagesEEG,001,103346,
AFNE01.JPG,AFNE01.JPG,AFNE01.JPG,AFNE01.JPG,AFNE01.JPG,AFNE01.JPG,,,,,,,,,2,5,25,0,,,,,,,,,,,,,,,AFSA15.jpg,AFNE08.jpg,AFNE04.jpg,AFSA10.jpg,AFSA15.jpg,FS,4,num_8,32,num_4,0.683468573028,,,2018_Mar_09_1255,59.99844123,FEMA4ImagesEEG,001,103346,
AFNE01.JPG,AFNE01.JPG,AFNE01.JPG,AFNE01.JPG,AFNE01.JPG,AFNE01.JPG,,,,,,,,,2,6,26,4,,,,,,,,,,,,,,,AFNE03.jpg,AFSA20.jpg,AFNE06.jpg,AFSA10.jpg,AFSA20.jpg,FS,4,num_6,16,num_6,2.2500865194,,,2018_Mar_09_1255,59.99844123,FEMA4ImagesEEG,001,103346,
AFNE01.JPG,AFNE01.JPG,AFNE01.JPG,AFNE01.JPG,AFNE01.JPG,AFNE01.JPG,,,,,,,,,2,7,27,7,,,,,,,,,,,,,,,AFNE03.jpg,AFSA07.jpg,AFSA01.jpg,AFNE10.jpg,AFSA01.jpg,FS,4,num_2,16,num_2,1.88338864478,,,2018_Mar_09_1255,59.99844123,FEMA4ImagesEEG,001,103346,
AFNE01.JPG,AFNE01.JPG,AFNE01.JPG,AFNE01.JPG,AFNE01.JPG,AFNE01.JPG,,,,,,,,,2,8,28,9,,,,,,,,,,,,,,,AFSA02.jpg,AFNE02.jpg,AFNE07.jpg,AFSA10.jpg,AFNE07.jpg,FN,3,num_2,32,num_4,0.933444116497,,,2018_Mar_09_1255,59.99844123,FEMA4ImagesEEG,001,103346,
AFNE01.JPG,AFNE01.JPG,AFNE01.JPG,AFNE01.JPG,AFNE01.JPG,AFNE01.JPG,,,,,,,,,2,9,29,2,,,,,,,,,,,,,,,AFSA12.jpg,AFNE06.jpg,AFNE18.jpg,AFSA07.jpg,AFSA12.jpg,FS,4,num_8,16,num_8,0.566769014345,,,2018_Mar_09_1255,59.99844123,FEMA4ImagesEEG,001,103346,
AFNE01.JPG,AFNE01.JPG,AFNE01.JPG,AFNE01.JPG,AFNE01.JPG,AFNE01.JPG,,,,,,,,,3,0,30,6,,,,,,,,,,,,,,,AFNE16.jpg,AFSA09.jpg,AFNE05.jpg,AFSA03.jpg,AFSA03.jpg,FS,4,num_4,32,num_6,0.650154066738,,,2018_Mar_09_1255,59.99844123,FEMA4ImagesEEG,001,103346,
AFNE01.JPG,AFNE01.JPG,AFNE01.JPG,AFNE01.JPG,AFNE01.JPG,AFNE01.JPG,,,,,,,,,3,1,31,4,,,,,,,,,,,,,,,AFSA04.jpg,AFNE20.jpg,AFSA10.jpg,AFNE06.jpg,AFSA10.jpg,FS,4,num_2,32,num_8,0.650155029027,,,2018_Mar_09_1255,59.99844123,FEMA4ImagesEEG,001,103346,
AFNE01.JPG,AFNE01.JPG,AFNE01.JPG,AFNE01.JPG,AFNE01.JPG,AFNE01.JPG,,,,,,,,,3,2,32,9,,,,,,,,,,,,,,,AFSA17.jpg,AFNE05.jpg,AFSA09.jpg,AFNE06.jpg,AFSA09.jpg,FS,4,num_2,32,num_4,0.816791706719,,,2018_Mar_09_1255,59.99844123,FEMA4ImagesEEG,001,103346,
AFNE01.JPG,AFNE01.JPG,AFNE01.JPG,AFNE01.JPG,AFNE01.JPG,AFNE01.JPG,,,,,,,,,3,3,33,0,,,,,,,,,,,,,,,AFSA11.jpg,AFNE17.jpg,AFSA16.jpg,AFNE05.jpg,AFNE17.jpg,FN,3,num_6,32,num_2,0.583306311164,,,2018_Mar_09_1255,59.99844123,FEMA4ImagesEEG,001,103346,
AFNE01.JPG,AFNE01.JPG,AFNE01.JPG,AFNE01.JPG,AFNE01.JPG,AFNE01.JPG,,,,,,,,,3,4,34,5,,,,,,,,,,,,,,,AFSA18.jpg,AFNE14.jpg,AFNE07.jpg,AFSA06.jpg,AFSA06.jpg,FS,4,num_4,16,num_4,0.800158829894,,,2018_Mar_09_1255,59.99844123,FEMA4ImagesEEG,001,103346,
AFNE01.JPG,AFNE01.JPG,AFNE01.JPG,AFNE01.JPG,AFNE01.JPG,AFNE01.JPG,,,,,,,,,3,5,35,7,,,,,,,,,,,,,,,AFSA16.jpg,AFNE02.jpg,AFNE09.jpg,AFSA07.jpg,AFNE09.jpg,FN,3,num_2,32,num_6,0.666824149434,,,2018_Mar_09_1255,59.99844123,FEMA4ImagesEEG,001,103346,
AFNE01.JPG,AFNE01.JPG,AFNE01.JPG,AFNE01.JPG,AFNE01.JPG,AFNE01.JPG,,,,,,,,,3,6,36,3,,,,,,,,,,,,,,,AFSA06.jpg,AFNE20.jpg,AFNE17.jpg,AFSA17.jpg,AFNE20.jpg,FN,3,num_6,16,num_6,0.966611403273,,,2018_Mar_09_1255,59.99844123,FEMA4ImagesEEG,001,103346,
AFNE01.JPG,AFNE01.JPG,AFNE01.JPG,AFNE01.JPG,AFNE01.JPG,AFNE01.JPG,,,,,,,,,3,7,37,8,,,,,,,,,,,,,,,AFNE01.jpg,AFSA07.jpg,AFNE20.jpg,AFSA03.jpg,AFSA07.jpg,FS,4,num_6,16,num_6,0.500132946298,,,2018_Mar_09_1255,59.99844123,FEMA4ImagesEEG,001,103346,
AFNE01.JPG,AFNE01.JPG,AFNE01.JPG,AFNE01.JPG,AFNE01.JPG,AFNE01.JPG,,,,,,,,,3,8,38,1,,,,,,,,,,,,,,,AFNE07.jpg,AFNE10.jpg,AFSA04.jpg,AFSA10.jpg,AFSA04.jpg,FS,4,num_2,16,num_2,0.466840892099,,,2018_Mar_09_1255,59.99844123,FEMA4ImagesEEG,001,103346,
AFNE01.JPG,AFNE01.JPG,AFNE01.JPG,AFNE01.JPG,AFNE01.JPG,AFNE01.JPG,,,,,,,,,3,9,39,2,,,,,,,,,,,,,,,AFSA04.jpg,AFNE08.jpg,AFSA10.jpg,AFNE09.jpg,AFSA04.jpg,FS,4,num_8,32,num_2,0.466906643473,,,2018_Mar_09_1255,59.99844123,FEMA4ImagesEEG,001,103346,
AFNE01.JPG,AFNE01.JPG,AFNE01.JPG,AFNE01.JPG,AFNE01.JPG,AFNE01.JPG,,,,,,,,,4,0,40,2,,,,,,,,,,,,,,,AFSA08.jpg,AFNE18.jpg,AFNE01.jpg,AFSA02.jpg,AFNE01.jpg,FN,3,num_2,32,num_6,0.950128953205,,,2018_Mar_09_1255,59.99844123,FEMA4ImagesEEG,001,103346,
AFNE01.JPG,AFNE01.JPG,AFNE01.JPG,AFNE01.JPG,AFNE01.JPG,AFNE01.JPG,,,,,,,,,4,1,41,4,,,,,,,,,,,,,,,AFSA17.jpg,AFSA18.jpg,AFNE11.jpg,AFNE08.jpg,AFSA18.jpg,FS,4,num_6,16,num_6,0.483489484992,,,2018_Mar_09_1255,59.99844123,FEMA4ImagesEEG,001,103346,
AFNE01.JPG,AFNE01.JPG,AFNE01.JPG,AFNE01.JPG,AFNE01.JPG,AFNE01.JPG,,,,,,,,,4,2,42,9,,,,,,,,,,,,,,,AFSA19.jpg,AFNE03.jpg,AFNE07.jpg,AFSA09.jpg,AFSA19.jpg,FS,4,num_8,16,num_8,1.90006097243,,,2018_Mar_09_1255,59.99844123,FEMA4ImagesEEG,001,103346,
AFNE01.JPG,AFNE01.JPG,AFNE01.JPG,AFNE01.JPG,AFNE01.JPG,AFNE01.JPG,,,,,,,,,4,3,43,6,,,,,,,,,,,,,,,AFNE20.jpg,AFNE08.jpg,AFSA04.jpg,AFSA20.jpg,AFSA04.jpg,FS,4,num_2,32,num_6,1.16689070291,,,2018_Mar_09_1255,59.99844123,FEMA4ImagesEEG,001,103346,
AFNE01.JPG,AFNE01.JPG,AFNE01.JPG,AFNE01.JPG,AFNE01.JPG,AFNE01.JPG,,,,,,,,,4,4,44,8,,,,,,,,,,,,,,,AFNE06.jpg,AFSA10.jpg,AFNE16.jpg,AFSA09.jpg,AFNE16.jpg,FN,3,num_2,32,num_6,0.733502875781,,,2018_Mar_09_1255,59.99844123,FEMA4ImagesEEG,001,103346,
AFNE01.JPG,AFNE01.JPG,AFNE01.JPG,AFNE01.JPG,AFNE01.JPG,AFNE01.JPG,,,,,,,,,4,5,45,1,,,,,,,,,,,,,,,AFNE02.jpg,AFSA13.jpg,AFSA10.jpg,AFNE06.jpg,AFSA10.jpg,FS,4,num_2,32,num_4,0.800138944061,,,2018_Mar_09_1255,59.99844123,FEMA4ImagesEEG,001,103346,
AFNE01.JPG,AFNE01.JPG,AFNE01.JPG,AFNE01.JPG,AFNE01.JPG,AFNE01.JPG,,,,,,,,,4,6,46,3,,,,,,,,,,,,,,,AFSA07.jpg,AFNE17.jpg,AFSA19.jpg,AFNE09.jpg,AFNE17.jpg,FN,3,num_6,16,num_6,0.666809395654,,,2018_Mar_09_1255,59.99844123,FEMA4ImagesEEG,001,103346,
AFNE01.JPG,AFNE01.JPG,AFNE01.JPG,AFNE01.JPG,AFNE01.JPG,AFNE01.JPG,,,,,,,,,4,7,47,7,,,,,,,,,,,,,,,AFSA19.jpg,AFSA02.jpg,AFNE18.jpg,AFNE09.jpg,AFSA19.jpg,FS,4,num_8,32,num_6,0.550138703547,,,2018_Mar_09_1255,59.99844123,FEMA4ImagesEEG,001,103346,
AFNE01.JPG,AFNE01.JPG,AFNE01.JPG,AFNE01.JPG,AFNE01.JPG,AFNE01.JPG,,,,,,,,,4,8,48,5,,,,,,,,,,,,,,,AFSA10.jpg,AFNE18.jpg,AFSA13.jpg,AFNE07.jpg,AFSA13.jpg,FS,4,num_2,16,num_2,0.583488811506,,,2018_Mar_09_1255,59.99844123,FEMA4ImagesEEG,001,103346,
AFNE01.JPG,AFNE01.JPG,AFNE01.JPG,AFNE01.JPG,AFNE01.JPG,AFNE01.JPG,,,,,,,,,4,9,49,0,,,,,,,,,,,,,,,AFNE17.jpg,AFSA07.jpg,AFNE08.jpg,AFSA11.jpg,AFSA11.jpg,FS,4,num_4,16,num_4,0.6167792622,,,2018_Mar_09_1255,59.99844123,FEMA4ImagesEEG,001,103346,
AFNE01.JPG,AFNE01.JPG,AFNE01.JPG,AFNE01.JPG,AFNE01.JPG,AFNE01.JPG,,,,,,,,,5,0,50,8,,,,,,,,,,,,,,,AFNE17.jpg,AFNE13.jpg,AFSA12.jpg,AFSA13.jpg,AFNE13.jpg,FN,3,num_6,32,num_8,0.933439946733,,,2018_Mar_09_1255,59.99844123,FEMA4ImagesEEG,001,103346,
AFNE01.JPG,AFNE01.JPG,AFNE01.JPG,AFNE01.JPG,AFNE01.JPG,AFNE01.JPG,,,,,,,,,5,1,51,9,,,,,,,,,,,,,,,AFNE12.jpg,AFSA15.jpg,AFSA20.jpg,AFNE01.jpg,AFSA20.jpg,FS,4,num_2,32,num_6,1.30012370879,,,2018_Mar_09_1255,59.99844123,FEMA4ImagesEEG,001,103346,
AFNE01.JPG,AFNE01.JPG,AFNE01.JPG,AFNE01.JPG,AFNE01.JPG,AFNE01.JPG,,,,,,,,,5,2,52,6,,,,,,,,,,,,,,,AFSA19.jpg,AFSA16.jpg,AFNE20.jpg,AFNE10.jpg,AFNE20.jpg,FN,3,num_2,16,num_2,1.08342257887,,,2018_Mar_09_1255,59.99844123,FEMA4ImagesEEG,001,103346,
AFNE01.JPG,AFNE01.JPG,AFNE01.JPG,AFNE01.JPG,AFNE01.JPG,AFNE01.JPG,,,,,,,,,5,3,53,7,,,,,,,,,,,,,,,AFSA03.jpg,AFSA04.jpg,AFNE11.jpg,AFNE13.jpg,AFNE11.jpg,FN,3,num_2,16,num_2,1.50009189174,,,2018_Mar_09_1255,59.99844123,FEMA4ImagesEEG,001,103346,
AFNE01.JPG,AFNE01.JPG,AFNE01.JPG,AFNE01.JPG,AFNE01.JPG,AFNE01.JPG,,,,,,,,,5,4,54,0,,,,,,,,,,,,,,,AFSA01.jpg,AFNE02.jpg,AFNE09.jpg,AFSA12.jpg,AFNE09.jpg,FN,3,num_2,32,num_6,0.833314570133,,,2018_Mar_09_1255,59.99844123,FEMA4ImagesEEG,001,103346,
AFNE01.JPG,AFNE01.JPG,AFNE01.JPG,AFNE01.JPG,AFNE01.JPG,AFNE01.JPG,,,,,,,,,5,5,55,1,,,,,,,,,,,,,,,AFNE02.jpg,AFSA18.jpg,AFNE08.jpg,AFSA01.jpg,AFNE02.jpg,FN,3,num_8,32,num_2,1.15007436345,,,2018_Mar_09_1255,59.99844123,FEMA4ImagesEEG,001,103346,
AFNE01.JPG,AFNE01.JPG,AFNE01.JPG,AFNE01.JPG,AFNE01.JPG,AFNE01.JPG,,,,,,,,,5,6,56,5,,,,,,,,,,,,,,,AFSA19.jpg,AFNE02.jpg,AFSA08.jpg,AFNE09.jpg,AFNE09.jpg,FN,3,num_4,32,num_8,1.31677390565,,,2018_Mar_09_1255,59.99844123,FEMA4ImagesEEG,001,103346,
AFNE01.JPG,AFNE01.JPG,AFNE01.JPG,AFNE01.JPG,AFNE01.JPG,AFNE01.JPG,,,,,,,,,5,7,57,3,,,,,,,,,,,,,,,AFSA13.jpg,AFNE12.jpg,AFNE01.jpg,AFSA06.jpg,AFNE12.jpg,FN,3,num_6,16,num_6,0.650210837834,,,2018_Mar_09_1255,59.99844123,FEMA4ImagesEEG,001,103346,
AFNE01.JPG,AFNE01.JPG,AFNE01.JPG,AFNE01.JPG,AFNE01.JPG,AFNE01.JPG,,,,,,,,,5,8,58,4,,,,,,,,,,,,,,,AFSA19.jpg,AFNE05.jpg,AFNE19.jpg,AFSA08.jpg,AFNE05.jpg,FN,3,num_6,16,num_6,0.600157611072,,,2018_Mar_09_1255,59.99844123,FEMA4ImagesEEG,001,103346,
AFNE01.JPG,AFNE01.JPG,AFNE01.JPG,AFNE01.JPG,AFNE01.JPG,AFNE01.JPG,,,,,,,,,5,9,59,2,,,,,,,,,,,,,,,AFSA03.jpg,AFNE11.jpg,AFNE07.jpg,AFSA10.jpg,AFNE07.jpg,FN,3,num_2,16,num_2,0.666672760621,,,2018_Mar_09_1255,59.99844123,FEMA4ImagesEEG,001,103346,
,,,,,,,,,,,,,,,,,,,,,,,,,,,,,,,,,,,,,,,,,,,space,14.9323510383,2018_Mar_09_1255,59.99844123,FEMA4ImagesEEG,001,103346,
AFNE01.JPG,AFNE01.JPG,AFNE01.JPG,AFNE01.JPG,AFNE01.JPG,AFNE01.JPG,,,,,,,,,,,,,0,0,0,5,,,,,,,,,,,AMNE16.jpg,AMSA18.jpg,AMSA13.jpg,AMNE05.jpg,AMSA13.jpg,MS,2,num_2,32,num_6,1.00011322089,,,2018_Mar_09_1255,59.99844123,FEMA4ImagesEEG,001,103346,
AFNE01.JPG,AFNE01.JPG,AFNE01.JPG,AFNE01.JPG,AFNE01.JPG,AFNE01.JPG,,,,,,,,,,,,,0,1,1,8,,,,,,,,,,,AMNE18.jpg,AMSA14.jpg,AMSA06.jpg,AMNE08.jpg,AMSA14.jpg,MS,2,num_6,16,num_6,0.783491954906,,,2018_Mar_09_1255,59.99844123,FEMA4ImagesEEG,001,103346,
AFNE01.JPG,AFNE01.JPG,AFNE01.JPG,AFNE01.JPG,AFNE01.JPG,AFNE01.JPG,,,,,,,,,,,,,0,2,2,6,,,,,,,,,,,AMNE14.jpg,AMNE18.jpg,AMSA15.jpg,AMSA10.jpg,AMNE18.jpg,MN,1,num_6,32,num_8,0.666802980704,,,2018_Mar_09_1255,59.99844123,FEMA4ImagesEEG,001,103346,
AFNE01.JPG,AFNE01.JPG,AFNE01.JPG,AFNE01.JPG,AFNE01.JPG,AFNE01.JPG,,,,,,,,,,,,,0,3,3,3,,,,,,,,,,,AMSA18.jpg,AMSA10.jpg,AMNE20.jpg,AMNE03.jpg,AMNE03.jpg,MN,1,num_4,16,num_4,0.6335391514,,,2018_Mar_09_1255,59.99844123,FEMA4ImagesEEG,001,103346,
AFNE01.JPG,AFNE01.JPG,AFNE01.JPG,AFNE01.JPG,AFNE01.JPG,AFNE01.JPG,,,,,,,,,,,,,0,4,4,0,,,,,,,,,,,AMSA16.jpg,AMNE19.jpg,AMSA15.jpg,AMNE06.jpg,AMSA16.jpg,MS,2,num_8,16,num_8,0.500295240199,,,2018_Mar_09_1255,59.99844123,FEMA4ImagesEEG,001,103346,
AFNE01.JPG,AFNE01.JPG,AFNE01.JPG,AFNE01.JPG,AFNE01.JPG,AFNE01.JPG,,,,,,,,,,,,,0,5,5,9,,,,,,,,,,,AMNE18.jpg,AMNE06.jpg,AMSA09.jpg,AMSA17.jpg,AMNE06.jpg,MN,1,num_6,16,num_6,0.666776359314,,,2018_Mar_09_1255,59.99844123,FEMA4ImagesEEG,001,103346,
AFNE01.JPG,AFNE01.JPG,AFNE01.JPG,AFNE01.JPG,AFNE01.JPG,AFNE01.JPG,,,,,,,,,,,,,0,6,6,2,,,,,,,,,,,AMNE07.jpg,AMNE03.jpg,AMSA11.jpg,AMSA08.jpg,AMNE07.jpg,MN,1,num_8,16,num_8,1.21677393769,,,2018_Mar_09_1255,59.99844123,FEMA4ImagesEEG,001,103346,
AFNE01.JPG,AFNE01.JPG,AFNE01.JPG,AFNE01.JPG,AFNE01.JPG,AFNE01.JPG,,,,,,,,,,,,,0,7,7,4,,,,,,,,,,,AMSA09.jpg,AMSA02.jpg,AMNE07.jpg,AMNE06.jpg,AMNE06.jpg,MN,1,num_4,16,num_4,0.750221069437,,,2018_Mar_09_1255,59.99844123,FEMA4ImagesEEG,001,103346,
AFNE01.JPG,AFNE01.JPG,AFNE01.JPG,AFNE01.JPG,AFNE01.JPG,AFNE01.JPG,,,,,,,,,,,,,0,8,8,7,,,,,,,,,,,AMSA03.jpg,AMNE11.jpg,AMSA10.jpg,AMNE16.jpg,AMNE16.jpg,MN,1,num_4,32,num_6,0.883456962183,,,2018_Mar_09_1255,59.99844123,FEMA4ImagesEEG,001,103346,
AFNE01.JPG,AFNE01.JPG,AFNE01.JPG,AFNE01.JPG,AFNE01.JPG,AFNE01.JPG,,,,,,,,,,,,,0,9,9,1,,,,,,,,,,,AMNE11.jpg,AMSA07.jpg,AMSA20.jpg,AMNE10.jpg,AMNE10.jpg,MN,1,num_4,16,num_4,0.800125152338,,,2018_Mar_09_1255,59.99844123,FEMA4ImagesEEG,001,103346,
AFNE01.JPG,AFNE01.JPG,AFNE01.JPG,AFNE01.JPG,AFNE01.JPG,AFNE01.JPG,,,,,,,,,,,,,1,0,10,8,,,,,,,,,,,AMSA02.jpg,AMSA18.jpg,AMNE04.jpg,AMNE19.jpg,AMNE19.jpg,MN,1,num_4,16,num_4,0.900119346799,,,2018_Mar_09_1255,59.99844123,FEMA4ImagesEEG,001,103346,
AFNE01.JPG,AFNE01.JPG,AFNE01.JPG,AFNE01.JPG,AFNE01.JPG,AFNE01.JPG,,,,,,,,,,,,,1,1,11,0,,,,,,,,,,,AMNE09.jpg,AMNE11.jpg,AMSA03.jpg,AMSA20.jpg,AMNE09.jpg,MN,1,num_8,32,num_6,0.816784329712,,,2018_Mar_09_1255,59.99844123,FEMA4ImagesEEG,001,103346,
AFNE01.JPG,AFNE01.JPG,AFNE01.JPG,AFNE01.JPG,AFNE01.JPG,AFNE01.JPG,,,,,,,,,,,,,1,2,12,3,,,,,,,,,,,AMNE13.jpg,AMSA05.jpg,AMNE12.jpg,AMSA14.jpg,AMNE13.jpg,MN,1,num_8,32,num_4,1.53343911306,,,2018_Mar_09_1255,59.99844123,FEMA4ImagesEEG,001,103346,
AFNE01.JPG,AFNE01.JPG,AFNE01.JPG,AFNE01.JPG,AFNE01.JPG,AFNE01.JPG,,,,,,,,,,,,,1,3,13,9,,,,,,,,,,,AMNE13.jpg,AMSA20.jpg,AMSA12.jpg,AMNE02.jpg,AMSA12.jpg,MS,2,num_2,32,num_6,0.616779903416,,,2018_Mar_09_1255,59.99844123,FEMA4ImagesEEG,001,103346,
AFNE01.JPG,AFNE01.JPG,AFNE01.JPG,AFNE01.JPG,AFNE01.JPG,AFNE01.JPG,,,,,,,,,,,,,1,4,14,4,,,,,,,,,,,AMSA10.jpg,AMNE12.jpg,AMSA08.jpg,AMNE02.jpg,AMNE12.jpg,MN,1,num_6,16,num_6,0.733491329476,,,2018_Mar_09_1255,59.99844123,FEMA4ImagesEEG,001,103346,
AFNE01.JPG,AFNE01.JPG,AFNE01.JPG,AFNE01.JPG,AFNE01.JPG,AFNE01.JPG,,,,,,,,,,,,,1,5,15,7,,,,,,,,,,,AMSA03.jpg,AMNE12.jpg,AMSA09.jpg,AMNE17.jpg,AMNE12.jpg,MN,1,num_6,16,num_6,0.800173583906,,,2018_Mar_09_1255,59.99844123,FEMA4ImagesEEG,001,103346,
AFNE01.JPG,AFNE01.JPG,AFNE01.JPG,AFNE01.JPG,AFNE01.JPG,AFNE01.JPG,,,,,,,,,,,,,1,6,16,1,,,,,,,,,,,AMSA16.jpg,AMNE01.jpg,AMSA13.jpg,AMNE04.jpg,AMSA13.jpg,MS,2,num_2,32,num_8,1.63328320184,,,2018_Mar_09_1255,59.99844123,FEMA4ImagesEEG,001,103346,
AFNE01.JPG,AFNE01.JPG,AFNE01.JPG,AFNE01.JPG,AFNE01.JPG,AFNE01.JPG,,,,,,,,,,,,,1,7,17,5,,,,,,,,,,,AMNE13.jpg,AMSA13.jpg,AMSA15.jpg,AMNE19.jpg,AMNE19.jpg,MN,1,num_4,16,num_4,0.883438679855,,,2018_Mar_09_1255,59.99844123,FEMA4ImagesEEG,001,103346,
AFNE01.JPG,AFNE01.JPG,AFNE01.JPG,AFNE01.JPG,AFNE01.JPG,AFNE01.JPG,,,,,,,,,,,,,1,8,18,6,,,,,,,,,,,AMNE16.jpg,AMSA18.jpg,AMSA06.jpg,AMNE14.jpg,AMSA06.jpg,MS,2,num_2,16,num_2,0.583605239633,,,2018_Mar_09_1255,59.99844123,FEMA4ImagesEEG,001,103346,
AFNE01.JPG,AFNE01.JPG,AFNE01.JPG,AFNE01.JPG,AFNE01.JPG,AFNE01.JPG,,,,,,,,,,,,,1,9,19,2,,,,,,,,,,,AMNE12.jpg,AMSA17.jpg,AMSA18.jpg,AMNE16.jpg,AMNE16.jpg,MN,1,num_4,32,num_8,1.46673376509,,,2018_Mar_09_1255,59.99844123,FEMA4ImagesEEG,001,103346,
AFNE01.JPG,AFNE01.JPG,AFNE01.JPG,AFNE01.JPG,AFNE01.JPG,AFNE01.JPG,,,,,,,,,,,,,2,0,20,7,,,,,,,,,,,AMNE08.jpg,AMNE13.jpg,AMSA14.jpg,AMSA19.jpg,AMNE08.jpg,MN,1,num_8,32,num_6,0.950165196555,,,2018_Mar_09_1255,59.99844123,FEMA4ImagesEEG,001,103346,
AFNE01.JPG,AFNE01.JPG,AFNE01.JPG,AFNE01.JPG,AFNE01.JPG,AFNE01.JPG,,,,,,,,,,,,,2,1,21,2,,,,,,,,,,,AMNE15.jpg,AMSA17.jpg,AMSA05.jpg,AMNE14.jpg,AMSA05.jpg,MS,2,num_2,16,num_2,1.30023885425,,,2018_Mar_09_1255,59.99844123,FEMA4ImagesEEG,001,103346,
AFNE01.JPG,AFNE01.JPG,AFNE01.JPG,AFNE01.JPG,AFNE01.JPG,AFNE01.JPG,,,,,,,,,,,,,2,2,22,9,,,,,,,,,,,AMNE09.jpg,AMNE13.jpg,AMSA15.jpg,AMSA04.jpg,AMNE09.jpg,MN,1,num_8,16,num_8,0.866871233797,,,2018_Mar_09_1255,59.99844123,FEMA4ImagesEEG,001,103346,
AFNE01.JPG,AFNE01.JPG,AFNE01.JPG,AFNE01.JPG,AFNE01.JPG,AFNE01.JPG,,,,,,,,,,,,,2,3,23,5,,,,,,,,,,,AMSA11.jpg,AMNE16.jpg,AMSA01.jpg,AMNE17.jpg,AMNE17.jpg,MN,1,num_4,16,num_4,0.866760899778,,,2018_Mar_09_1255,59.99844123,FEMA4ImagesEEG,001,103346,
AFNE01.JPG,AFNE01.JPG,AFNE01.JPG,AFNE01.JPG,AFNE01.JPG,AFNE01.JPG,,,,,,,,,,,,,2,4,24,3,,,,,,,,,,,AMSA01.jpg,AMSA13.jpg,AMNE11.jpg,AMNE17.jpg,AMSA13.jpg,MS,2,num_6,32,num_4,0.783441919601,,,2018_Mar_09_1255,59.99844123,FEMA4ImagesEEG,001,103346,
AFNE01.JPG,AFNE01.JPG,AFNE01.JPG,AFNE01.JPG,AFNE01.JPG,AFNE01.JPG,,,,,,,,,,,,,2,5,25,6,,,,,,,,,,,AMNE11.jpg,AMSA13.jpg,AMSA11.jpg,AMNE05.jpg,AMNE05.jpg,MN,1,num_4,32,num_8,1.08344310615,,,2018_Mar_09_1255,59.99844123,FEMA4ImagesEEG,001,103346,
AFNE01.JPG,AFNE01.JPG,AFNE01.JPG,AFNE01.JPG,AFNE01.JPG,AFNE01.JPG,,,,,,,,,,,,,2,6,26,8,,,,,,,,,,,AMSA02.jpg,AMNE12.jpg,AMNE02.jpg,AMSA12.jpg,AMNE12.jpg,MN,1,num_6,32,num_4,0.816788499476,,,2018_Mar_09_1255,59.99844123,FEMA4ImagesEEG,001,103346,
AFNE01.JPG,AFNE01.JPG,AFNE01.JPG,AFNE01.JPG,AFNE01.JPG,AFNE01.JPG,,,,,,,,,,,,,2,7,27,4,,,,,,,,,,,AMSA12.jpg,AMSA17.jpg,AMNE12.jpg,AMNE08.jpg,AMSA12.jpg,MS,2,num_8,32,num_2,0.950119651621,,,2018_Mar_09_1255,59.99844123,FEMA4ImagesEEG,001,103346,
AFNE01.JPG,AFNE01.JPG,AFNE01.JPG,AFNE01.JPG,AFNE01.JPG,AFNE01.JPG,,,,,,,,,,,,,2,8,28,1,,,,,,,,,,,AMSA06.jpg,AMNE09.jpg,AMSA08.jpg,AMNE04.jpg,AMSA08.jpg,MS,2,num_2,32,num_4,0.933519810904,,,2018_Mar_09_1255,59.99844123,FEMA4ImagesEEG,001,103346,
AFNE01.JPG,AFNE01.JPG,AFNE01.JPG,AFNE01.JPG,AFNE01.JPG,AFNE01.JPG,,,,,,,,,,,,,2,9,29,0,,,,,,,,,,,AMNE19.jpg,AMNE12.jpg,AMSA10.jpg,AMSA02.jpg,AMNE19.jpg,MN,1,num_8,16,num_8,0.716781795956,,,2018_Mar_09_1255,59.99844123,FEMA4ImagesEEG,001,103346,
AFNE01.JPG,AFNE01.JPG,AFNE01.JPG,AFNE01.JPG,AFNE01.JPG,AFNE01.JPG,,,,,,,,,,,,,3,0,30,5,,,,,,,,,,,AMSA18.jpg,AMSA07.jpg,AMNE16.jpg,AMNE12.jpg,AMSA07.jpg,MS,2,num_6,16,num_6,0.683484930545,,,2018_Mar_09_1255,59.99844123,FEMA4ImagesEEG,001,103346,
AFNE01.JPG,AFNE01.JPG,AFNE01.JPG,AFNE01.JPG,AFNE01.JPG,AFNE01.JPG,,,,,,,,,,,,,3,1,31,1,,,,,,,,,,,AMSA14.jpg,AMNE05.jpg,AMNE09.jpg,AMSA11.jpg,AMSA14.jpg,MS,2,num_8,16,num_8,0.66663715872,,,2018_Mar_09_1255,59.99844123,FEMA4ImagesEEG,001,103346,
AFNE01.JPG,AFNE01.JPG,AFNE01.JPG,AFNE01.JPG,AFNE01.JPG,AFNE01.JPG,,,,,,,,,,,,,3,2,32,6,,,,,,,,,,,AMNE11.jpg,AMSA16.jpg,AMNE01.jpg,AMSA01.jpg,AMNE01.jpg,MN,1,num_2,16,num_2,0.700210180134,,,2018_Mar_09_1255,59.99844123,FEMA4ImagesEEG,001,103346,
AFNE01.JPG,AFNE01.JPG,AFNE01.JPG,AFNE01.JPG,AFNE01.JPG,AFNE01.JPG,,,,,,,,,,,,,3,3,33,0,,,,,,,,,,,AMNE18.jpg,AMNE12.jpg,AMSA06.jpg,AMSA11.jpg,AMNE18.jpg,MN,1,num_8,32,num_6,0.85019345372,,,2018_Mar_09_1255,59.99844123,FEMA4ImagesEEG,001,103346,
AFNE01.JPG,AFNE01.JPG,AFNE01.JPG,AFNE01.JPG,AFNE01.JPG,AFNE01.JPG,,,,,,,,,,,,,3,4,34,7,,,,,,,,,,,AMSA15.jpg,AMNE15.jpg,AMNE05.jpg,AMSA11.jpg,AMSA11.jpg,MS,2,num_4,16,num_4,0.600155686494,,,2018_Mar_09_1255,59.99844123,FEMA4ImagesEEG,001,103346,
AFNE01.JPG,AFNE01.JPG,AFNE01.JPG,AFNE01.JPG,AFNE01.JPG,AFNE01.JPG,,,,,,,,,,,,,3,5,35,8,,,,,,,,,,,AMSA02.jpg,AMSA01.jpg,AMNE12.jpg,AMNE02.jpg,AMSA01.jpg,MS,2,num_6,32,num_4,0.50018811319,,,2018_Mar_09_1255,59.99844123,FEMA4ImagesEEG,001,103346,
AFNE01.JPG,AFNE01.JPG,AFNE01.JPG,AFNE01.JPG,AFNE01.JPG,AFNE01.JPG,,,,,,,,,,,,,3,6,36,2,,,,,,,,,,,AMSA06.jpg,AMSA04.jpg,AMNE05.jpg,AMNE07.jpg,AMSA06.jpg,MS,2,num_8,16,num_8,0.716665688436,,,2018_Mar_09_1255,59.99844123,FEMA4ImagesEEG,001,103346,
AFNE01.JPG,AFNE01.JPG,AFNE01.JPG,AFNE01.JPG,AFNE01.JPG,AFNE01.JPG,,,,,,,,,,,,,3,7,37,4,,,,,,,,,,,AMSA19.jpg,AMNE15.jpg,AMNE08.jpg,AMSA04.jpg,AMSA04.jpg,MS,2,num_4,16,num_4,0.816790744429,,,2018_Mar_09_1255,59.99844123,FEMA4ImagesEEG,001,103346,
AFNE01.JPG,AFNE01.JPG,AFNE01.JPG,AFNE01.JPG,AFNE01.JPG,AFNE01.JPG,,,,,,,,,,,,,3,8,38,9,,,,,,,,,,,AMNE14.jpg,AMNE12.jpg,AMSA05.jpg,AMSA06.jpg,AMSA06.jpg,MS,2,num_4,16,num_4,0.900135063101,,,2018_Mar_09_1255,59.99844123,FEMA4ImagesEEG,001,103346,
AFNE01.JPG,AFNE01.JPG,AFNE01.JPG,AFNE01.JPG,AFNE01.JPG,AFNE01.JPG,,,,,,,,,,,,,3,9,39,3,,,,,,,,,,,AMSA14.jpg,AMNE06.jpg,AMSA04.jpg,AMNE02.jpg,AMNE06.jpg,MN,1,num_6,16,num_6,0.533518335549,,,2018_Mar_09_1255,59.99844123,FEMA4ImagesEEG,001,103346,
AFNE01.JPG,AFNE01.JPG,AFNE01.JPG,AFNE01.JPG,AFNE01.JPG,AFNE01.JPG,,,,,,,,,,,,,4,0,40,7,,,,,,,,,,,AMNE16.jpg,AMSA18.jpg,AMSA02.jpg,AMNE19.jpg,AMNE19.jpg,MN,1,num_4,32,num_8,1.01691705151,,,2018_Mar_09_1255,59.99844123,FEMA4ImagesEEG,001,103346,
AFNE01.JPG,AFNE01.JPG,AFNE01.JPG,AFNE01.JPG,AFNE01.JPG,AFNE01.JPG,,,,,,,,,,,,,4,1,41,5,,,,,,,,,,,AMNE10.jpg,AMNE16.jpg,AMSA08.jpg,AMSA09.jpg,AMSA09.jpg,MS,2,num_4,32,num_6,0.616951498901,,,2018_Mar_09_1255,59.99844123,FEMA4ImagesEEG,001,103346,
AFNE01.JPG,AFNE01.JPG,AFNE01.JPG,AFNE01.JPG,AFNE01.JPG,AFNE01.JPG,,,,,,,,,,,,,4,2,42,1,,,,,,,,,,,AMNE11.jpg,AMSA04.jpg,AMSA06.jpg,AMNE17.jpg,AMSA06.jpg,MS,2,num_2,16,num_2,0.750058775535,,,2018_Mar_09_1255,59.99844123,FEMA4ImagesEEG,001,103346,
AFNE01.JPG,AFNE01.JPG,AFNE01.JPG,AFNE01.JPG,AFNE01.JPG,AFNE01.JPG,,,,,,,,,,,,,4,3,43,9,,,,,,,,,,,AMSA19.jpg,AMNE01.jpg,AMNE04.jpg,AMSA13.jpg,AMSA19.jpg,MS,2,num_8,16,num_8,0.850105250487,,,2018_Mar_09_1255,59.99844123,FEMA4ImagesEEG,001,103346,
AFNE01.JPG,AFNE01.JPG,AFNE01.JPG,AFNE01.JPG,AFNE01.JPG,AFNE01.JPG,,,,,,,,,,,,,4,4,44,0,,,,,,,,,,,AMSA18.jpg,AMSA16.jpg,AMNE15.jpg,AMNE11.jpg,AMNE15.jpg,MN,1,num_2,16,num_2,0.550165645545,,,2018_Mar_09_1255,59.99844123,FEMA4ImagesEEG,001,103346,
AFNE01.JPG,AFNE01.JPG,AFNE01.JPG,AFNE01.JPG,AFNE01.JPG,AFNE01.JPG,,,,,,,,,,,,,4,5,45,8,,,,,,,,,,,AMSA01.jpg,AMNE15.jpg,AMSA09.jpg,AMNE12.jpg,AMNE12.jpg,MN,1,num_4,32,num_2,0.68382395152,,,2018_Mar_09_1255,59.99844123,FEMA4ImagesEEG,001,103346,
AFNE01.JPG,AFNE01.JPG,AFNE01.JPG,AFNE01.JPG,AFNE01.JPG,AFNE01.JPG,,,,,,,,,,,,,4,6,46,3,,,,,,,,,,,AMNE17.jpg,AMNE14.jpg,AMSA05.jpg,AMSA19.jpg,AMNE14.jpg,MN,1,num_6,16,num_6,0.883514695335,,,2018_Mar_09_1255,59.99844123,FEMA4ImagesEEG,001,103346,
AFNE01.JPG,AFNE01.JPG,AFNE01.JPG,AFNE01.JPG,AFNE01.JPG,AFNE01.JPG,,,,,,,,,,,,,4,7,47,2,,,,,,,,,,,AMNE02.jpg,AMNE08.jpg,AMSA13.jpg,AMSA04.jpg,AMSA13.jpg,MS,2,num_2,32,num_4,0.683491986711,,,2018_Mar_09_1255,59.99844123,FEMA4ImagesEEG,001,103346,
AFNE01.JPG,AFNE01.JPG,AFNE01.JPG,AFNE01.JPG,AFNE01.JPG,AFNE01.JPG,,,,,,,,,,,,,4,8,48,4,,,,,,,,,,,AMSA20.jpg,AMSA13.jpg,AMNE19.jpg,AMNE14.jpg,AMSA20.jpg,MS,2,num_8,16,num_8,0.533538541989,,,2018_Mar_09_1255,59.99844123,FEMA4ImagesEEG,001,103346,
AFNE01.JPG,AFNE01.JPG,AFNE01.JPG,AFNE01.JPG,AFNE01.JPG,AFNE01.JPG,,,,,,,,,,,,,4,9,49,6,,,,,,,,,,,AMNE09.jpg,AMSA07.jpg,AMSA14.jpg,AMNE04.jpg,AMNE04.jpg,MN,1,num_4,32,num_6,0.666788226692,,,2018_Mar_09_1255,59.99844123,FEMA4ImagesEEG,001,103346,
AFNE01.JPG,AFNE01.JPG,AFNE01.JPG,AFNE01.JPG,AFNE01.JPG,AFNE01.JPG,,,,,,,,,,,,,5,0,50,6,,,,,,,,,,,AMNE02.jpg,AMSA01.jpg,AMSA02.jpg,AMNE17.jpg,AMSA02.jpg,MS,2,num_2,32,num_6,1.65006233566,,,2018_Mar_09_1255,59.99844123,FEMA4ImagesEEG,001,103346,
AFNE01.JPG,AFNE01.JPG,AFNE01.JPG,AFNE01.JPG,AFNE01.JPG,AFNE01.JPG,,,,,,,,,,,,,5,1,51,3,,,,,,,,,,,AMSA19.jpg,AMNE09.jpg,AMNE07.jpg,AMSA20.jpg,AMNE09.jpg,MN,1,num_6,16,num_6,0.716790455859,,,2018_Mar_09_1255,59.99844123,FEMA4ImagesEEG,001,103346,
AFNE01.JPG,AFNE01.JPG,AFNE01.JPG,AFNE01.JPG,AFNE01.JPG,AFNE01.JPG,,,,,,,,,,,,,5,2,52,4,,,,,,,,,,,AMSA02.jpg,AMNE07.jpg,AMSA05.jpg,AMNE14.jpg,AMSA05.jpg,MS,2,num_2,32,num_6,0.650123276049,,,2018_Mar_09_1255,59.99844123,FEMA4ImagesEEG,001,103346,
AFNE01.JPG,AFNE01.JPG,AFNE01.JPG,AFNE01.JPG,AFNE01.JPG,AFNE01.JPG,,,,,,,,,,,,,5,3,53,1,,,,,,,,,,,AMSA13.jpg,AMNE03.jpg,AMNE16.jpg,AMSA05.jpg,AMSA05.jpg,MS,2,num_4,16,num_4,0.466836401727,,,2018_Mar_09_1255,59.99844123,FEMA4ImagesEEG,001,103346,
AFNE01.JPG,AFNE01.JPG,AFNE01.JPG,AFNE01.JPG,AFNE01.JPG,AFNE01.JPG,,,,,,,,,,,,,5,4,54,2,,,,,,,,,,,AMNE11.jpg,AMSA07.jpg,AMSA17.jpg,AMNE10.jpg,AMNE11.jpg,MN,1,num_8,32,num_6,0.86680195434,,,2018_Mar_09_1255,59.99844123,FEMA4ImagesEEG,001,103346,
AFNE01.JPG,AFNE01.JPG,AFNE01.JPG,AFNE01.JPG,AFNE01.JPG,AFNE01.JPG,,,,,,,,,,,,,5,5,55,5,,,,,,,,,,,AMNE20.jpg,AMNE04.jpg,AMSA08.jpg,AMSA16.jpg,AMSA08.jpg,MS,2,num_2,16,num_2,0.750154034933,,,2018_Mar_09_1255,59.99844123,FEMA4ImagesEEG,001,103346,
AFNE01.JPG,AFNE01.JPG,AFNE01.JPG,AFNE01.JPG,AFNE01.JPG,AFNE01.JPG,,,,,,,,,,,,,5,6,56,7,,,,,,,,,,,AMNE15.jpg,AMNE16.jpg,AMSA20.jpg,AMSA05.jpg,AMNE15.jpg,MN,1,num_8,32,num_6,0.66681035771,,,2018_Mar_09_1255,59.99844123,FEMA4ImagesEEG,001,103346,
AFNE01.JPG,AFNE01.JPG,AFNE01.JPG,AFNE01.JPG,AFNE01.JPG,AFNE01.JPG,,,,,,,,,,,,,5,7,57,9,,,,,,,,,,,AMSA06.jpg,AMNE07.jpg,AMSA01.jpg,AMNE05.jpg,AMSA06.jpg,MS,2,num_8,16,num_8,0.483538878849,,,2018_Mar_09_1255,59.99844123,FEMA4ImagesEEG,001,103346,
AFNE01.JPG,AFNE01.JPG,AFNE01.JPG,AFNE01.JPG,AFNE01.JPG,AFNE01.JPG,,,,,,,,,,,,,5,8,58,0,,,,,,,,,,,AMSA04.jpg,AMSA02.jpg,AMNE09.jpg,AMNE11.jpg,AMSA04.jpg,MS,2,num_8,16,num_8,0.61680941144,,,2018_Mar_09_1255,59.99844123,FEMA4ImagesEEG,001,103346,
AFNE01.JPG,AFNE01.JPG,AFNE01.JPG,AFNE01.JPG,AFNE01.JPG,AFNE01.JPG,,,,,,,,,,,,,5,9,59,8,,,,,,,,,,,AMNE04.jpg,AMSA20.jpg,AMNE05.jpg,AMSA18.jpg,AMSA18.jpg,MS,2,num_4,32,num_8,0.716955636162,,,2018_Mar_09_1255,59.99844123,FEMA4ImagesEEG,001,103346,
,,,,,,,,,,,,,,,,,,,,,,,,,,,,,,,,,,,,,,,,,,,space,17.6487017614,2018_Mar_09_1255,59.99844123,FEMA4ImagesEEG,001,103346,
AFNE01.JPG,AFNE01.JPG,AFNE01.JPG,AFNE01.JPG,AFNE01.JPG,AFNE01.JPG,,,,,,,,,,,,,,,,,0,0,0,7,,,,,,,AFSA09.jpg,AFNE02.jpg,AFSA13.jpg,AFNE12.jpg,AFSA09.jpg,FS,4,num_8,32,num_6,0.616923594614,,,2018_Mar_09_1255,59.99844123,FEMA4ImagesEEG,001,103346,
AFNE01.JPG,AFNE01.JPG,AFNE01.JPG,AFNE01.JPG,AFNE01.JPG,AFNE01.JPG,,,,,,,,,,,,,,,,,0,1,1,4,,,,,,,AFNE09.jpg,AFSA16.jpg,AFNE01.jpg,AFSA02.jpg,AFSA02.jpg,FS,4,num_4,16,num_4,0.800128680421,,,2018_Mar_09_1255,59.99844123,FEMA4ImagesEEG,001,103346,
AFNE01.JPG,AFNE01.JPG,AFNE01.JPG,AFNE01.JPG,AFNE01.JPG,AFNE01.JPG,,,,,,,,,,,,,,,,,0,2,2,5,,,,,,,AFSA04.jpg,AFNE18.jpg,AFNE16.jpg,AFSA12.jpg,AFNE18.jpg,FN,3,num_6,32,num_8,0.583472453989,,,2018_Mar_09_1255,59.99844123,FEMA4ImagesEEG,001,103346,
AFNE01.JPG,AFNE01.JPG,AFNE01.JPG,AFNE01.JPG,AFNE01.JPG,AFNE01.JPG,,,,,,,,,,,,,,,,,0,3,3,9,,,,,,,AFNE13.jpg,AFSA05.jpg,AFNE03.jpg,AFSA20.jpg,AFNE13.jpg,FN,3,num_8,16,num_8,0.833518239437,,,2018_Mar_09_1255,59.99844123,FEMA4ImagesEEG,001,103346,
AFNE01.JPG,AFNE01.JPG,AFNE01.JPG,AFNE01.JPG,AFNE01.JPG,AFNE01.JPG,,,,,,,,,,,,,,,,,0,4,4,0,,,,,,,AFSA02.jpg,AFNE16.jpg,AFNE20.jpg,AFSA20.jpg,AFSA02.jpg,FS,4,num_8,16,num_8,0.600163705181,,,2018_Mar_09_1255,59.99844123,FEMA4ImagesEEG,001,103346,
AFNE01.JPG,AFNE01.JPG,AFNE01.JPG,AFNE01.JPG,AFNE01.JPG,AFNE01.JPG,,,,,,,,,,,,,,,,,0,5,5,2,,,,,,,AFNE10.jpg,AFNE17.jpg,AFSA03.jpg,AFSA08.jpg,AFSA08.jpg,FS,4,num_4,16,num_4,0.883438680088,,,2018_Mar_09_1255,59.99844123,FEMA4ImagesEEG,001,103346,
AFNE01.JPG,AFNE01.JPG,AFNE01.JPG,AFNE01.JPG,AFNE01.JPG,AFNE01.JPG,,,,,,,,,,,,,,,,,0,6,6,3,,,,,,,AFNE09.jpg,AFSA12.jpg,AFNE05.jpg,AFSA07.jpg,AFSA07.jpg,FS,4,num_4,16,num_4,0.916784939123,,,2018_Mar_09_1255,59.99844123,FEMA4ImagesEEG,001,103346,
AFNE01.JPG,AFNE01.JPG,AFNE01.JPG,AFNE01.JPG,AFNE01.JPG,AFNE01.JPG,,,,,,,,,,,,,,,,,0,7,7,6,,,,,,,AFNE19.jpg,AFSA10.jpg,AFNE20.jpg,AFSA11.jpg,AFNE19.jpg,FN,3,num_8,16,num_8,0.866750956979,,,2018_Mar_09_1255,59.99844123,FEMA4ImagesEEG,001,103346,
AFNE01.JPG,AFNE01.JPG,AFNE01.JPG,AFNE01.JPG,AFNE01.JPG,AFNE01.JPG,,,,,,,,,,,,,,,,,0,8,8,8,,,,,,,AFNE12.jpg,AFSA03.jpg,AFNE02.jpg,AFSA20.jpg,AFNE02.jpg,FN,3,num_2,32,num_4,0.850105571095,,,2018_Mar_09_1255,59.99844123,FEMA4ImagesEEG,001,103346,
AFNE01.JPG,AFNE01.JPG,AFNE01.JPG,AFNE01.JPG,AFNE01.JPG,AFNE01.JPG,,,,,,,,,,,,,,,,,0,9,9,1,,,,,,,AFSA01.jpg,AFSA05.jpg,AFNE20.jpg,AFNE01.jpg,AFSA05.jpg,FS,4,num_6,16,num_6,0.516806236003,,,2018_Mar_09_1255,59.99844123,FEMA4ImagesEEG,001,103346,
AFNE01.JPG,AFNE01.JPG,AFNE01.JPG,AFNE01.JPG,AFNE01.JPG,AFNE01.JPG,,,,,,,,,,,,,,,,,1,0,10,7,,,,,,,AFNE07.jpg,AFSA13.jpg,AFNE05.jpg,AFSA01.jpg,AFNE05.jpg,FN,3,num_2,32,num_4,0.700310250744,,,2018_Mar_09_1255,59.99844123,FEMA4ImagesEEG,001,103346,
AFNE01.JPG,AFNE01.JPG,AFNE01.JPG,AFNE01.JPG,AFNE01.JPG,AFNE01.JPG,,,,,,,,,,,,,,,,,1,1,11,5,,,,,,,AFNE04.jpg,AFSA15.jpg,AFSA11.jpg,AFNE12.jpg,AFSA11.jpg,FS,4,num_2,16,num_2,0.550201889127,,,2018_Mar_09_1255,59.99844123,FEMA4ImagesEEG,001,103346,
AFNE01.JPG,AFNE01.JPG,AFNE01.JPG,AFNE01.JPG,AFNE01.JPG,AFNE01.JPG,,,,,,,,,,,,,,,,,1,2,12,0,,,,,,,AFSA09.jpg,AFSA03.jpg,AFNE01.jpg,AFNE05.jpg,AFSA09.jpg,FS,4,num_8,16,num_8,0.666651912499,,,2018_Mar_09_1255,59.99844123,FEMA4ImagesEEG,001,103346,
AFNE01.JPG,AFNE01.JPG,AFNE01.JPG,AFNE01.JPG,AFNE01.JPG,AFNE01.JPG,,,,,,,,,,,,,,,,,1,3,13,9,,,,,,,AFSA16.jpg,AFNE08.jpg,AFSA02.jpg,AFNE09.jpg,AFNE09.jpg,FN,3,num_4,32,num_6,0.833528503077,,,2018_Mar_09_1255,59.99844123,FEMA4ImagesEEG,001,103346,
AFNE01.JPG,AFNE01.JPG,AFNE01.JPG,AFNE01.JPG,AFNE01.JPG,AFNE01.JPG,,,,,,,,,,,,,,,,,1,4,14,6,,,,,,,AFNE18.jpg,AFSA20.jpg,AFSA11.jpg,AFNE17.jpg,AFNE17.jpg,FN,3,num_4,32,num_6,1.00012925779,,,2018_Mar_09_1255,59.99844123,FEMA4ImagesEEG,001,103346,
AFNE01.JPG,AFNE01.JPG,AFNE01.JPG,AFNE01.JPG,AFNE01.JPG,AFNE01.JPG,,,,,,,,,,,,,,,,,1,5,15,2,,,,,,,AFSA14.jpg,AFNE04.jpg,AFSA05.jpg,AFNE03.jpg,AFNE04.jpg,FN,3,num_6,32,num_8,0.933463681722,,,2018_Mar_09_1255,59.99844123,FEMA4ImagesEEG,001,103346,
AFNE01.JPG,AFNE01.JPG,AFNE01.JPG,AFNE01.JPG,AFNE01.JPG,AFNE01.JPG,,,,,,,,,,,,,,,,,1,6,16,8,,,,,,,AFNE12.jpg,AFNE13.jpg,AFSA12.jpg,AFSA16.jpg,AFSA16.jpg,FS,4,num_4,16,num_4,0.816751935054,,,2018_Mar_09_1255,59.99844123,FEMA4ImagesEEG,001,103346,
AFNE01.JPG,AFNE01.JPG,AFNE01.JPG,AFNE01.JPG,AFNE01.JPG,AFNE01.JPG,,,,,,,,,,,,,,,,,1,7,17,1,,,,,,,AFSA01.jpg,AFNE07.jpg,AFSA16.jpg,AFNE16.jpg,AFSA01.jpg,FS,4,num_8,32,num_6,0.666785660898,,,2018_Mar_09_1255,59.99844123,FEMA4ImagesEEG,001,103346,
AFNE01.JPG,AFNE01.JPG,AFNE01.JPG,AFNE01.JPG,AFNE01.JPG,AFNE01.JPG,,,,,,,,,,,,,,,,,1,8,18,4,,,,,,,AFNE05.jpg,AFSA18.jpg,AFSA14.jpg,AFNE19.jpg,AFSA18.jpg,FS,4,num_6,32,num_8,0.583427871112,,,2018_Mar_09_1255,59.99844123,FEMA4ImagesEEG,001,103346,
AFNE01.JPG,AFNE01.JPG,AFNE01.JPG,AFNE01.JPG,AFNE01.JPG,AFNE01.JPG,,,,,,,,,,,,,,,,,1,9,19,3,,,,,,,AFSA17.jpg,AFNE12.jpg,AFSA09.jpg,AFNE04.jpg,AFSA17.jpg,FS,4,num_8,32,num_4,0.616809732281,,,2018_Mar_09_1255,59.99844123,FEMA4ImagesEEG,001,103346,
AFNE01.JPG,AFNE01.JPG,AFNE01.JPG,AFNE01.JPG,AFNE01.JPG,AFNE01.JPG,,,,,,,,,,,,,,,,,2,0,20,2,,,,,,,AFNE19.jpg,AFNE15.jpg,AFSA16.jpg,AFSA07.jpg,AFNE19.jpg,FN,3,num_8,32,num_6,0.550014898414,,,2018_Mar_09_1255,59.99844123,FEMA4ImagesEEG,001,103346,
AFNE01.JPG,AFNE01.JPG,AFNE01.JPG,AFNE01.JPG,AFNE01.JPG,AFNE01.JPG,,,,,,,,,,,,,,,,,2,1,21,1,,,,,,,AFSA07.jpg,AFNE11.jpg,AFNE06.jpg,AFSA17.jpg,AFSA07.jpg,FS,4,num_8,16,num_8,0.566790503915,,,2018_Mar_09_1255,59.99844123,FEMA4ImagesEEG,001,103346,
AFNE01.JPG,AFNE01.JPG,AFNE01.JPG,AFNE01.JPG,AFNE01.JPG,AFNE01.JPG,,,,,,,,,,,,,,,,,2,2,22,5,,,,,,,AFNE19.jpg,AFSA17.jpg,AFNE07.jpg,AFSA13.jpg,AFSA13.jpg,FS,4,num_4,16,num_4,0.550172701944,,,2018_Mar_09_1255,59.99844123,FEMA4ImagesEEG,001,103346,
AFNE01.JPG,AFNE01.JPG,AFNE01.JPG,AFNE01.JPG,AFNE01.JPG,AFNE01.JPG,,,,,,,,,,,,,,,,,2,3,23,8,,,,,,,AFNE17.jpg,AFSA11.jpg,AFNE13.jpg,AFSA01.jpg,AFNE17.jpg,FN,3,num_8,16,num_8,0.516769351205,,,2018_Mar_09_1255,59.99844123,FEMA4ImagesEEG,001,103346,
AFNE01.JPG,AFNE01.JPG,AFNE01.JPG,AFNE01.JPG,AFNE01.JPG,AFNE01.JPG,,,,,,,,,,,,,,,,,2,4,24,6,,,,,,,AFNE07.jpg,AFSA03.jpg,AFSA10.jpg,AFNE06.jpg,AFSA10.jpg,FS,4,num_2,32,num_8,0.516796934884,,,2018_Mar_09_1255,59.99844123,FEMA4ImagesEEG,001,103346,
AFNE01.JPG,AFNE01.JPG,AFNE01.JPG,AFNE01.JPG,AFNE01.JPG,AFNE01.JPG,,,,,,,,,,,,,,,,,2,5,25,0,,,,,,,AFSA19.jpg,AFNE14.jpg,AFSA17.jpg,AFNE06.jpg,AFSA19.jpg,FS,4,num_8,32,num_4,0.616655136226,,,2018_Mar_09_1255,59.99844123,FEMA4ImagesEEG,001,103346,
AFNE01.JPG,AFNE01.JPG,AFNE01.JPG,AFNE01.JPG,AFNE01.JPG,AFNE01.JPG,,,,,,,,,,,,,,,,,2,6,26,4,,,,,,,AFSA01.jpg,AFSA11.jpg,AFNE03.jpg,AFNE12.jpg,AFNE12.jpg,FN,3,num_4,32,num_6,0.533505505882,,,2018_Mar_09_1255,59.99844123,FEMA4ImagesEEG,001,103346,
AFNE01.JPG,AFNE01.JPG,AFNE01.JPG,AFNE01.JPG,AFNE01.JPG,AFNE01.JPG,,,,,,,,,,,,,,,,,2,7,27,7,,,,,,,AFSA06.jpg,AFNE07.jpg,AFNE04.jpg,AFSA19.jpg,AFSA19.jpg,FS,4,num_4,32,num_8,0.566821936518,,,2018_Mar_09_1255,59.99844123,FEMA4ImagesEEG,001,103346,
AFNE01.JPG,AFNE01.JPG,AFNE01.JPG,AFNE01.JPG,AFNE01.JPG,AFNE01.JPG,,,,,,,,,,,,,,,,,2,8,28,3,,,,,,,AFNE13.jpg,AFSA17.jpg,AFNE18.jpg,AFSA16.jpg,AFNE13.jpg,FN,3,num_8,16,num_8,0.400448264554,,,2018_Mar_09_1255,59.99844123,FEMA4ImagesEEG,001,103346,
AFNE01.JPG,AFNE01.JPG,AFNE01.JPG,AFNE01.JPG,AFNE01.JPG,AFNE01.JPG,,,,,,,,,,,,,,,,,2,9,29,9,,,,,,,AFNE13.jpg,AFSA14.jpg,AFSA01.jpg,AFNE20.jpg,AFNE13.jpg,FN,3,num_8,32,num_6,0.883553183638,,,2018_Mar_09_1255,59.99844123,FEMA4ImagesEEG,001,103346,
AFNE01.JPG,AFNE01.JPG,AFNE01.JPG,AFNE01.JPG,AFNE01.JPG,AFNE01.JPG,,,,,,,,,,,,,,,,,3,0,30,8,,,,,,,AFSA03.jpg,AFNE19.jpg,AFSA11.jpg,AFNE03.jpg,AFSA03.jpg,FS,4,num_8,32,num_6,0.683473063167,,,2018_Mar_09_1255,59.99844123,FEMA4ImagesEEG,001,103346,
AFNE01.JPG,AFNE01.JPG,AFNE01.JPG,AFNE01.JPG,AFNE01.JPG,AFNE01.JPG,,,,,,,,,,,,,,,,,3,1,31,2,,,,,,,AFSA07.jpg,AFNE10.jpg,AFSA18.jpg,AFNE08.jpg,AFSA07.jpg,FS,4,num_8,32,num_4,1.18328847783,,,2018_Mar_09_1255,59.99844123,FEMA4ImagesEEG,001,103346,
AFNE01.JPG,AFNE01.JPG,AFNE01.JPG,AFNE01.JPG,AFNE01.JPG,AFNE01.JPG,,,,,,,,,,,,,,,,,3,2,32,3,,,,,,,AFNE01.jpg,AFNE16.jpg,AFSA11.jpg,AFSA10.jpg,AFSA10.jpg,FS,4,num_4,32,num_6,0.866619453998,,,2018_Mar_09_1255,59.99844123,FEMA4ImagesEEG,001,103346,
AFNE01.JPG,AFNE01.JPG,AFNE01.JPG,AFNE01.JPG,AFNE01.JPG,AFNE01.JPG,,,,,,,,,,,,,,,,,3,3,33,4,,,,,,,AFNE19.jpg,AFSA20.jpg,AFNE20.jpg,AFSA15.jpg,AFNE20.jpg,FN,3,num_2,32,num_6,0.883430340793,,,2018_Mar_09_1255,59.99844123,FEMA4ImagesEEG,001,103346,
AFNE01.JPG,AFNE01.JPG,AFNE01.JPG,AFNE01.JPG,AFNE01.JPG,AFNE01.JPG,,,,,,,,,,,,,,,,,3,4,34,9,,,,,,,AFNE06.jpg,AFSA17.jpg,AFNE14.jpg,AFSA08.jpg,AFSA08.jpg,FS,4,num_4,16,num_4,0.900105555309,,,2018_Mar_09_1255,59.99844123,FEMA4ImagesEEG,001,103346,
AFNE01.JPG,AFNE01.JPG,AFNE01.JPG,AFNE01.JPG,AFNE01.JPG,AFNE01.JPG,,,,,,,,,,,,,,,,,3,5,35,5,,,,,,,AFSA09.jpg,AFNE11.jpg,AFNE13.jpg,AFSA15.jpg,AFNE13.jpg,FN,3,num_2,32,num_6,0.766849135049,,,2018_Mar_09_1255,59.99844123,FEMA4ImagesEEG,001,103346,
AFNE01.JPG,AFNE01.JPG,AFNE01.JPG,AFNE01.JPG,AFNE01.JPG,AFNE01.JPG,,,,,,,,,,,,,,,,,3,6,36,7,,,,,,,AFSA18.jpg,AFSA04.jpg,AFNE17.jpg,AFNE08.jpg,AFSA18.jpg,FS,4,num_8,32,num_6,1.96627334459,,,2018_Mar_09_1255,59.99844123,FEMA4ImagesEEG,001,103346,
AFNE01.JPG,AFNE01.JPG,AFNE01.JPG,AFNE01.JPG,AFNE01.JPG,AFNE01.JPG,,,,,,,,,,,,,,,,,3,7,37,1,,,,,,,AFNE05.jpg,AFSA01.jpg,AFSA06.jpg,AFNE04.jpg,AFSA01.jpg,FS,4,num_6,16,num_6,0.833566029323,,,2018_Mar_09_1255,59.99844123,FEMA4ImagesEEG,001,103346,
AFNE01.JPG,AFNE01.JPG,AFNE01.JPG,AFNE01.JPG,AFNE01.JPG,AFNE01.JPG,,,,,,,,,,,,,,,,,3,8,38,6,,,,,,,AFSA11.jpg,AFSA08.jpg,AFNE07.jpg,AFNE05.jpg,AFNE07.jpg,FN,3,num_2,32,num_6,0.583696329501,,,2018_Mar_09_1255,59.99844123,FEMA4ImagesEEG,001,103346,
AFNE01.JPG,AFNE01.JPG,AFNE01.JPG,AFNE01.JPG,AFNE01.JPG,AFNE01.JPG,,,,,,,,,,,,,,,,,3,9,39,0,,,,,,,AFNE07.jpg,AFSA17.jpg,AFSA03.jpg,AFNE16.jpg,AFNE16.jpg,FN,3,num_4,16,num_4,0.816810309654,,,2018_Mar_09_1255,59.99844123,FEMA4ImagesEEG,001,103346,
AFNE01.JPG,AFNE01.JPG,AFNE01.JPG,AFNE01.JPG,AFNE01.JPG,AFNE01.JPG,,,,,,,,,,,,,,,,,4,0,40,2,,,,,,,AFSA04.jpg,AFNE15.jpg,AFSA17.jpg,AFNE18.jpg,AFNE18.jpg,FN,3,num_4,32,num_6,0.683508023852,,,2018_Mar_09_1255,59.99844123,FEMA4ImagesEEG,001,103346,
AFNE01.JPG,AFNE01.JPG,AFNE01.JPG,AFNE01.JPG,AFNE01.JPG,AFNE01.JPG,,,,,,,,,,,,,,,,,4,1,41,5,,,,,,,AFSA09.jpg,AFNE20.jpg,AFNE10.jpg,AFSA19.jpg,AFSA09.jpg,FS,4,num_8,16,num_8,0.75013511139,,,2018_Mar_09_1255,59.99844123,FEMA4ImagesEEG,001,103346,
AFNE01.JPG,AFNE01.JPG,AFNE01.JPG,AFNE01.JPG,AFNE01.JPG,AFNE01.JPG,,,,,,,,,,,,,,,,,4,2,42,4,,,,,,,AFSA17.jpg,AFNE07.jpg,AFSA15.jpg,AFNE12.jpg,AFNE07.jpg,FN,3,num_6,32,num_2,0.783478804398,,,2018_Mar_09_1255,59.99844123,FEMA4ImagesEEG,001,103346,
AFNE01.JPG,AFNE01.JPG,AFNE01.JPG,AFNE01.JPG,AFNE01.JPG,AFNE01.JPG,,,,,,,,,,,,,,,,,4,3,43,1,,,,,,,AFNE19.jpg,AFSA20.jpg,AFNE18.jpg,AFSA07.jpg,AFSA07.jpg,FS,4,num_4,32,num_6,0.766751630465,,,2018_Mar_09_1255,59.99844123,FEMA4ImagesEEG,001,103346,
AFNE01.JPG,AFNE01.JPG,AFNE01.JPG,AFNE01.JPG,AFNE01.JPG,AFNE01.JPG,,,,,,,,,,,,,,,,,4,4,44,8,,,,,,,AFSA09.jpg,AFNE05.jpg,AFNE08.jpg,AFSA16.jpg,AFSA16.jpg,FS,4,num_4,16,num_4,0.633491361514,,,2018_Mar_09_1255,59.99844123,FEMA4ImagesEEG,001,103346,
AFNE01.JPG,AFNE01.JPG,AFNE01.JPG,AFNE01.JPG,AFNE01.JPG,AFNE01.JPG,,,,,,,,,,,,,,,,,4,5,45,3,,,,,,,AFNE12.jpg,AFSA11.jpg,AFSA19.jpg,AFNE05.jpg,AFSA19.jpg,FS,4,num_2,32,num_4,0.983506965451,,,2018_Mar_09_1255,59.99844123,FEMA4ImagesEEG,001,103346,
AFNE01.JPG,AFNE01.JPG,AFNE01.JPG,AFNE01.JPG,AFNE01.JPG,AFNE01.JPG,,,,,,,,,,,,,,,,,4,6,46,9,,,,,,,AFNE01.jpg,AFSA13.jpg,AFSA09.jpg,AFNE13.jpg,AFSA13.jpg,FS,4,num_6,32,num_4,0.716789172729,,,2018_Mar_09_1255,59.99844123,FEMA4ImagesEEG,001,103346,
AFNE01.JPG,AFNE01.JPG,AFNE01.JPG,AFNE01.JPG,AFNE01.JPG,AFNE01.JPG,,,,,,,,,,,,,,,,,4,7,47,7,,,,,,,AFSA13.jpg,AFSA19.jpg,AFNE06.jpg,AFNE13.jpg,AFNE13.jpg,FN,3,num_4,32,num_6,0.716828623554,,,2018_Mar_09_1255,59.99844123,FEMA4ImagesEEG,001,103346,
AFNE01.JPG,AFNE01.JPG,AFNE01.JPG,AFNE01.JPG,AFNE01.JPG,AFNE01.JPG,,,,,,,,,,,,,,,,,4,8,48,6,,,,,,,AFSA07.jpg,AFNE15.jpg,AFSA03.jpg,AFNE13.jpg,AFSA07.jpg,FS,4,num_8,32,num_2,0.96678716829,,,2018_Mar_09_1255,59.99844123,FEMA4ImagesEEG,001,103346,
AFNE01.JPG,AFNE01.JPG,AFNE01.JPG,AFNE01.JPG,AFNE01.JPG,AFNE01.JPG,,,,,,,,,,,,,,,,,4,9,49,0,,,,,,,AFSA13.jpg,AFNE10.jpg,AFSA09.jpg,AFNE19.jpg,AFNE19.jpg,FN,3,num_4,32,num_8,0.816750010708,,,2018_Mar_09_1255,59.99844123,FEMA4ImagesEEG,001,103346,
AFNE01.JPG,AFNE01.JPG,AFNE01.JPG,AFNE01.JPG,AFNE01.JPG,AFNE01.JPG,,,,,,,,,,,,,,,,,5,0,50,9,,,,,,,AFNE08.jpg,AFNE06.jpg,AFSA06.jpg,AFSA07.jpg,AFSA07.jpg,FS,4,num_4,32,num_2,0.800255051581,,,2018_Mar_09_1255,59.99844123,FEMA4ImagesEEG,001,103346,
AFNE01.JPG,AFNE01.JPG,AFNE01.JPG,AFNE01.JPG,AFNE01.JPG,AFNE01.JPG,,,,,,,,,,,,,,,,,5,1,51,3,,,,,,,AFSA05.jpg,AFNE15.jpg,AFNE14.jpg,AFSA16.jpg,AFNE15.jpg,FN,3,num_6,32,num_8,0.733454444446,,,2018_Mar_09_1255,59.99844123,FEMA4ImagesEEG,001,103346,
AFNE01.JPG,AFNE01.JPG,AFNE01.JPG,AFNE01.JPG,AFNE01.JPG,AFNE01.JPG,,,,,,,,,,,,,,,,,5,2,52,0,,,,,,,AFNE15.jpg,AFNE03.jpg,AFSA11.jpg,AFSA16.jpg,AFNE03.jpg,FN,3,num_6,32,num_4,1.01662068884,,,2018_Mar_09_1255,59.99844123,FEMA4ImagesEEG,001,103346,
AFNE01.JPG,AFNE01.JPG,AFNE01.JPG,AFNE01.JPG,AFNE01.JPG,AFNE01.JPG,,,,,,,,,,,,,,,,,5,3,53,2,,,,,,,AFSA08.jpg,AFSA05.jpg,AFNE01.jpg,AFNE09.jpg,AFNE01.jpg,FN,3,num_2,32,num_8,0.666791113326,,,2018_Mar_09_1255,59.99844123,FEMA4ImagesEEG,001,103346,
AFNE01.JPG,AFNE01.JPG,AFNE01.JPG,AFNE01.JPG,AFNE01.JPG,AFNE01.JPG,,,,,,,,,,,,,,,,,5,4,54,1,,,,,,,AFSA10.jpg,AFSA07.jpg,AFNE07.jpg,AFNE05.jpg,AFSA07.jpg,FS,4,num_6,16,num_6,0.633481739089,,,2018_Mar_09_1255,59.99844123,FEMA4ImagesEEG,001,103346,
AFNE01.JPG,AFNE01.JPG,AFNE01.JPG,AFNE01.JPG,AFNE01.JPG,AFNE01.JPG,,,,,,,,,,,,,,,,,5,5,55,6,,,,,,,AFNE01.jpg,AFSA16.jpg,AFNE17.jpg,AFSA01.jpg,AFSA16.jpg,FS,4,num_6,16,num_6,0.683574095834,,,2018_Mar_09_1255,59.99844123,FEMA4ImagesEEG,001,103346,
AFNE01.JPG,AFNE01.JPG,AFNE01.JPG,AFNE01.JPG,AFNE01.JPG,AFNE01.JPG,,,,,,,,,,,,,,,,,5,6,56,5,,,,,,,AFSA12.jpg,AFNE04.jpg,AFSA15.jpg,AFNE03.jpg,AFNE03.jpg,FN,3,num_4,32,num_6,0.75013382826,,,2018_Mar_09_1255,59.99844123,FEMA4ImagesEEG,001,103346,
AFNE01.JPG,AFNE01.JPG,AFNE01.JPG,AFNE01.JPG,AFNE01.JPG,AFNE01.JPG,,,,,,,,,,,,,,,,,5,7,57,8,,,,,,,AFNE15.jpg,AFNE18.jpg,AFSA12.jpg,AFSA19.jpg,AFSA19.jpg,FS,4,num_4,32,num_6,0.650298399385,,,2018_Mar_09_1255,59.99844123,FEMA4ImagesEEG,001,103346,
AFNE01.JPG,AFNE01.JPG,AFNE01.JPG,AFNE01.JPG,AFNE01.JPG,AFNE01.JPG,,,,,,,,,,,,,,,,,5,8,58,7,,,,,,,AFNE06.jpg,AFSA02.jpg,AFSA08.jpg,AFNE01.jpg,AFNE01.jpg,FN,3,num_4,32,num_2,1.00009012758,,,2018_Mar_09_1255,59.99844123,FEMA4ImagesEEG,001,103346,
AFNE01.JPG,AFNE01.JPG,AFNE01.JPG,AFNE01.JPG,AFNE01.JPG,AFNE01.JPG,,,,,,,,,,,,,,,,,5,9,59,4,,,,,,,AFSA13.jpg,AFNE09.jpg,AFSA16.jpg,AFNE10.jpg,AFSA13.jpg,FS,4,num_8,16,num_8,0.89983677608,,,2018_Mar_09_1255,59.99844123,FEMA4ImagesEEG,001,103346,
,,,,,,,,,,,,,,,,,,,,,,,,,,,,,,,,,,,,,,,,,,,space,20.8321615139,2018_Mar_09_1255,59.99844123,FEMA4ImagesEEG,001,103346,
AFNE01.JPG,AFNE01.JPG,AFNE01.JPG,AFNE01.JPG,AFNE01.JPG,AFNE01.JPG,,,,,,,,,,,,,,,,,,,,,0,0,0,1,,,AMSA09.jpg,AMNE18.jpg,AMSA17.jpg,AMNE20.jpg,AMSA17.jpg,MS,2,num_2,32,num_4,0.76680551446,,,2018_Mar_09_1255,59.99844123,FEMA4ImagesEEG,001,103346,
AFNE01.JPG,AFNE01.JPG,AFNE01.JPG,AFNE01.JPG,AFNE01.JPG,AFNE01.JPG,,,,,,,,,,,,,,,,,,,,,0,1,1,8,,,AMSA20.jpg,AMNE14.jpg,AMSA06.jpg,AMNE18.jpg,AMSA20.jpg,MS,2,num_8,16,num_8,0.783521783305,,,2018_Mar_09_1255,59.99844123,FEMA4ImagesEEG,001,103346,
AFNE01.JPG,AFNE01.JPG,AFNE01.JPG,AFNE01.JPG,AFNE01.JPG,AFNE01.JPG,,,,,,,,,,,,,,,,,,,,,0,2,2,4,,,AMNE06.jpg,AMSA15.jpg,AMNE20.jpg,AMSA13.jpg,AMSA13.jpg,MS,2,num_4,16,num_4,0.600197382737,,,2018_Mar_09_1255,59.99844123,FEMA4ImagesEEG,001,103346,
AFNE01.JPG,AFNE01.JPG,AFNE01.JPG,AFNE01.JPG,AFNE01.JPG,AFNE01.JPG,,,,,,,,,,,,,,,,,,,,,0,3,3,0,,,AMNE12.jpg,AMSA17.jpg,AMNE06.jpg,AMSA01.jpg,AMNE12.jpg,MN,1,num_8,32,num_6,0.566921044607,,,2018_Mar_09_1255,59.99844123,FEMA4ImagesEEG,001,103346,
AFNE01.JPG,AFNE01.JPG,AFNE01.JPG,AFNE01.JPG,AFNE01.JPG,AFNE01.JPG,,,,,,,,,,,,,,,,,,,,,0,4,4,6,,,AMNE13.jpg,AMNE03.jpg,AMSA17.jpg,AMSA19.jpg,AMSA19.jpg,MS,2,num_4,16,num_4,0.933419098845,,,2018_Mar_09_1255,59.99844123,FEMA4ImagesEEG,001,103346,
AFNE01.JPG,AFNE01.JPG,AFNE01.JPG,AFNE01.JPG,AFNE01.JPG,AFNE01.JPG,,,,,,,,,,,,,,,,,,,,,0,5,5,3,,,AMSA10.jpg,AMSA04.jpg,AMNE11.jpg,AMNE10.jpg,AMSA10.jpg,MS,2,num_8,32,num_6,1.21662126598,,,2018_Mar_09_1255,59.99844123,FEMA4ImagesEEG,001,103346,
AFNE01.JPG,AFNE01.JPG,AFNE01.JPG,AFNE01.JPG,AFNE01.JPG,AFNE01.JPG,,,,,,,,,,,,,,,,,,,,,0,6,6,9,,,AMSA18.jpg,AMNE20.jpg,AMSA11.jpg,AMNE12.jpg,AMSA18.jpg,MS,2,num_8,32,num_2,0.783549687825,,,2018_Mar_09_1255,59.99844123,FEMA4ImagesEEG,001,103346,
AFNE01.JPG,AFNE01.JPG,AFNE01.JPG,AFNE01.JPG,AFNE01.JPG,AFNE01.JPG,,,,,,,,,,,,,,,,,,,,,0,7,7,5,,,AMSA19.jpg,AMNE12.jpg,AMSA18.jpg,AMNE06.jpg,AMNE12.jpg,MN,1,num_6,32,num_4,1.08364966209,,,2018_Mar_09_1255,59.99844123,FEMA4ImagesEEG,001,103346,
AFNE01.JPG,AFNE01.JPG,AFNE01.JPG,AFNE01.JPG,AFNE01.JPG,AFNE01.JPG,,,,,,,,,,,,,,,,,,,,,0,8,8,7,,,AMNE11.jpg,AMNE05.jpg,AMSA16.jpg,AMSA01.jpg,AMSA01.jpg,MS,2,num_4,16,num_4,0.516814896138,,,2018_Mar_09_1255,59.99844123,FEMA4ImagesEEG,001,103346,
AFNE01.JPG,AFNE01.JPG,AFNE01.JPG,AFNE01.JPG,AFNE01.JPG,AFNE01.JPG,,,,,,,,,,,,,,,,,,,,,0,9,9,2,,,AMSA14.jpg,AMNE12.jpg,AMNE10.jpg,AMSA17.jpg,AMNE10.jpg,MN,1,num_2,32,num_6,0.733460217714,,,2018_Mar_09_1255,59.99844123,FEMA4ImagesEEG,001,103346,
AFNE01.JPG,AFNE01.JPG,AFNE01.JPG,AFNE01.JPG,AFNE01.JPG,AFNE01.JPG,,,,,,,,,,,,,,,,,,,,,1,0,10,3,,,AMSA16.jpg,AMSA10.jpg,AMNE13.jpg,AMNE20.jpg,AMSA10.jpg,MS,2,num_6,16,num_6,1.01682596165,,,2018_Mar_09_1255,59.99844123,FEMA4ImagesEEG,001,103346,
AFNE01.JPG,AFNE01.JPG,AFNE01.JPG,AFNE01.JPG,AFNE01.JPG,AFNE01.JPG,,,,,,,,,,,,,,,,,,,,,1,1,11,6,,,AMNE19.jpg,AMNE20.jpg,AMSA14.jpg,AMSA10.jpg,AMNE20.jpg,MN,1,num_6,32,num_8,0.716860056156,,,2018_Mar_09_1255,59.99844123,FEMA4ImagesEEG,001,103346,
AFNE01.JPG,AFNE01.JPG,AFNE01.JPG,AFNE01.JPG,AFNE01.JPG,AFNE01.JPG,,,,,,,,,,,,,,,,,,,,,1,2,12,1,,,AMSA11.jpg,AMNE01.jpg,AMNE15.jpg,AMSA12.jpg,AMSA12.jpg,MS,2,num_4,16,num_4,0.616810053121,,,2018_Mar_09_1255,59.99844123,FEMA4ImagesEEG,001,103346,
AFNE01.JPG,AFNE01.JPG,AFNE01.JPG,AFNE01.JPG,AFNE01.JPG,AFNE01.JPG,,,,,,,,,,,,,,,,,,,,,1,3,13,8,,,AMSA01.jpg,AMNE14.jpg,AMSA17.jpg,AMNE19.jpg,AMSA17.jpg,MS,2,num_2,16,num_2,0.766840795754,,,2018_Mar_09_1255,59.99844123,FEMA4ImagesEEG,001,103346,
AFNE01.JPG,AFNE01.JPG,AFNE01.JPG,AFNE01.JPG,AFNE01.JPG,AFNE01.JPG,,,,,,,,,,,,,,,,,,,,,1,4,14,0,,,AMSA10.jpg,AMNE09.jpg,AMSA05.jpg,AMNE17.jpg,AMNE17.jpg,MN,1,num_4,32,num_2,0.783547763247,,,2018_Mar_09_1255,59.99844123,FEMA4ImagesEEG,001,103346,
AFNE01.JPG,AFNE01.JPG,AFNE01.JPG,AFNE01.JPG,AFNE01.JPG,AFNE01.JPG,,,,,,,,,,,,,,,,,,,,,1,5,15,7,,,AMSA19.jpg,AMNE11.jpg,AMNE09.jpg,AMSA10.jpg,AMNE09.jpg,MN,1,num_2,32,num_6,0.800226185238,,,2018_Mar_09_1255,59.99844123,FEMA4ImagesEEG,001,103346,
AFNE01.JPG,AFNE01.JPG,AFNE01.JPG,AFNE01.JPG,AFNE01.JPG,AFNE01.JPG,,,,,,,,,,,,,,,,,,,,,1,6,16,9,,,AMNE04.jpg,AMSA05.jpg,AMNE10.jpg,AMSA14.jpg,AMNE10.jpg,MN,1,num_2,32,num_6,0.716788852355,,,2018_Mar_09_1255,59.99844123,FEMA4ImagesEEG,001,103346,
AFNE01.JPG,AFNE01.JPG,AFNE01.JPG,AFNE01.JPG,AFNE01.JPG,AFNE01.JPG,,,,,,,,,,,,,,,,,,,,,1,7,17,2,,,AMSA19.jpg,AMNE13.jpg,AMSA10.jpg,AMNE19.jpg,AMSA19.jpg,MS,2,num_8,32,num_2,0.583464756142,,,2018_Mar_09_1255,59.99844123,FEMA4ImagesEEG,001,103346,
AFNE01.JPG,AFNE01.JPG,AFNE01.JPG,AFNE01.JPG,AFNE01.JPG,AFNE01.JPG,,,,,,,,,,,,,,,,,,,,,1,8,18,5,,,AMNE12.jpg,AMSA04.jpg,AMSA13.jpg,AMNE11.jpg,AMSA04.jpg,MS,2,num_6,16,num_6,0.483552670572,,,2018_Mar_09_1255,59.99844123,FEMA4ImagesEEG,001,103346,
AFNE01.JPG,AFNE01.JPG,AFNE01.JPG,AFNE01.JPG,AFNE01.JPG,AFNE01.JPG,,,,,,,,,,,,,,,,,,,,,1,9,19,4,,,AMSA10.jpg,AMSA05.jpg,AMNE03.jpg,AMNE08.jpg,AMSA10.jpg,MS,2,num_8,16,num_8,0.700113637839,,,2018_Mar_09_1255,59.99844123,FEMA4ImagesEEG,001,103346,
AFNE01.JPG,AFNE01.JPG,AFNE01.JPG,AFNE01.JPG,AFNE01.JPG,AFNE01.JPG,,,,,,,,,,,,,,,,,,,,,2,0,20,2,,,AMNE04.jpg,AMNE08.jpg,AMSA03.jpg,AMSA14.jpg,AMSA14.jpg,MS,2,num_4,32,num_2,0.550177833764,,,2018_Mar_09_1255,59.99844123,FEMA4ImagesEEG,001,103346,
AFNE01.JPG,AFNE01.JPG,AFNE01.JPG,AFNE01.JPG,AFNE01.JPG,AFNE01.JPG,,,,,,,,,,,,,,,,,,,,,2,1,21,6,,,AMNE11.jpg,AMSA11.jpg,AMSA08.jpg,AMNE09.jpg,AMNE11.jpg,MN,1,num_8,32,num_6,0.650141878985,,,2018_Mar_09_1255,59.99844123,FEMA4ImagesEEG,001,103346,
AFNE01.JPG,AFNE01.JPG,AFNE01.JPG,AFNE01.JPG,AFNE01.JPG,AFNE01.JPG,,,,,,,,,,,,,,,,,,,,,2,2,22,0,,,AMNE06.jpg,AMSA10.jpg,AMSA13.jpg,AMNE01.jpg,AMSA10.jpg,MS,2,num_6,32,num_4,0.700121976901,,,2018_Mar_09_1255,59.99844123,FEMA4ImagesEEG,001,103346,
AFNE01.JPG,AFNE01.JPG,AFNE01.JPG,AFNE01.JPG,AFNE01.JPG,AFNE01.JPG,,,,,,,,,,,,,,,,,,,,,2,3,23,1,,,AMSA10.jpg,AMSA14.jpg,AMNE12.jpg,AMNE02.jpg,AMSA14.jpg,MS,2,num_6,16,num_6,0.566879348597,,,2018_Mar_09_1255,59.99844123,FEMA4ImagesEEG,001,103346,
AFNE01.JPG,AFNE01.JPG,AFNE01.JPG,AFNE01.JPG,AFNE01.JPG,AFNE01.JPG,,,,,,,,,,,,,,,,,,,,,2,4,24,9,,,AMSA05.jpg,AMNE04.jpg,AMSA08.jpg,AMNE19.jpg,AMSA05.jpg,MS,2,num_8,32,num_2,0.650116861099,,,2018_Mar_09_1255,59.99844123,FEMA4ImagesEEG,001,103346,
AFNE01.JPG,AFNE01.JPG,AFNE01.JPG,AFNE01.JPG,AFNE01.JPG,AFNE01.JPG,,,,,,,,,,,,,,,,,,,,,2,5,25,3,,,AMNE13.jpg,AMSA14.jpg,AMNE08.jpg,AMSA16.jpg,AMSA14.jpg,MS,2,num_6,16,num_6,0.566850802861,,,2018_Mar_09_1255,59.99844123,FEMA4ImagesEEG,001,103346,
AFNE01.JPG,AFNE01.JPG,AFNE01.JPG,AFNE01.JPG,AFNE01.JPG,AFNE01.JPG,,,,,,,,,,,,,,,,,,,,,2,6,26,4,,,AMNE17.jpg,AMSA03.jpg,AMNE04.jpg,AMSA12.jpg,AMNE17.jpg,MN,1,num_8,32,num_6,0.650187744526,,,2018_Mar_09_1255,59.99844123,FEMA4ImagesEEG,001,103346,
AFNE01.JPG,AFNE01.JPG,AFNE01.JPG,AFNE01.JPG,AFNE01.JPG,AFNE01.JPG,,,,,,,,,,,,,,,,,,,,,2,7,27,7,,,AMSA06.jpg,AMNE13.jpg,AMSA10.jpg,AMNE11.jpg,AMSA10.jpg,MS,2,num_2,32,num_4,0.900149817113,,,2018_Mar_09_1255,59.99844123,FEMA4ImagesEEG,001,103346,
AFNE01.JPG,AFNE01.JPG,AFNE01.JPG,AFNE01.JPG,AFNE01.JPG,AFNE01.JPG,,,,,,,,,,,,,,,,,,,,,2,8,28,5,,,AMNE20.jpg,AMSA04.jpg,AMSA01.jpg,AMNE13.jpg,AMSA01.jpg,MS,2,num_2,32,num_6,0.683506740956,,,2018_Mar_09_1255,59.99844123,FEMA4ImagesEEG,001,103346,
AFNE01.JPG,AFNE01.JPG,AFNE01.JPG,AFNE01.JPG,AFNE01.JPG,AFNE01.JPG,,,,,,,,,,,,,,,,,,,,,2,9,29,8,,,AMSA05.jpg,AMSA15.jpg,AMNE02.jpg,AMNE20.jpg,AMSA15.jpg,MS,2,num_6,16,num_6,0.666802018415,,,2018_Mar_09_1255,59.99844123,FEMA4ImagesEEG,001,103346,
AFNE01.JPG,AFNE01.JPG,AFNE01.JPG,AFNE01.JPG,AFNE01.JPG,AFNE01.JPG,,,,,,,,,,,,,,,,,,,,,3,0,30,1,,,AMNE11.jpg,AMNE01.jpg,AMSA10.jpg,AMSA07.jpg,AMSA10.jpg,MS,2,num_2,32,num_8,1.71671508229,,,2018_Mar_09_1255,59.99844123,FEMA4ImagesEEG,001,103346,
AFNE01.JPG,AFNE01.JPG,AFNE01.JPG,AFNE01.JPG,AFNE01.JPG,AFNE01.JPG,,,,,,,,,,,,,,,,,,,,,3,1,31,7,,,AMSA01.jpg,AMNE14.jpg,AMSA20.jpg,AMNE15.jpg,AMSA20.jpg,MS,2,num_2,16,num_2,0.733469839673,,,2018_Mar_09_1255,59.99844123,FEMA4ImagesEEG,001,103346,
AFNE01.JPG,AFNE01.JPG,AFNE01.JPG,AFNE01.JPG,AFNE01.JPG,AFNE01.JPG,,,,,,,,,,,,,,,,,,,,,3,2,32,0,,,AMNE05.jpg,AMSA09.jpg,AMNE08.jpg,AMSA06.jpg,AMNE08.jpg,MN,1,num_2,32,num_8,0.900110045681,,,2018_Mar_09_1255,59.99844123,FEMA4ImagesEEG,001,103346,
AFNE01.JPG,AFNE01.JPG,AFNE01.JPG,AFNE01.JPG,AFNE01.JPG,AFNE01.JPG,,,,,,,,,,,,,,,,,,,,,3,3,33,5,,,AMNE09.jpg,AMSA19.jpg,AMNE04.jpg,AMSA20.jpg,AMNE09.jpg,MN,1,num_8,16,num_8,0.716776022455,,,2018_Mar_09_1255,59.99844123,FEMA4ImagesEEG,001,103346,
AFNE01.JPG,AFNE01.JPG,AFNE01.JPG,AFNE01.JPG,AFNE01.JPG,AFNE01.JPG,,,,,,,,,,,,,,,,,,,,,3,4,34,9,,,AMSA17.jpg,AMSA05.jpg,AMNE13.jpg,AMNE06.jpg,AMSA05.jpg,MS,2,num_6,32,num_8,1.68341244361,,,2018_Mar_09_1255,59.99844123,FEMA4ImagesEEG,001,103346,
AFNE01.JPG,AFNE01.JPG,AFNE01.JPG,AFNE01.JPG,AFNE01.JPG,AFNE01.JPG,,,,,,,,,,,,,,,,,,,,,3,5,35,8,,,AMNE20.jpg,AMSA03.jpg,AMSA18.jpg,AMNE04.jpg,AMSA03.jpg,MS,2,num_6,32,num_2,0.533548805863,,,2018_Mar_09_1255,59.99844123,FEMA4ImagesEEG,001,103346,
AFNE01.JPG,AFNE01.JPG,AFNE01.JPG,AFNE01.JPG,AFNE01.JPG,AFNE01.JPG,,,,,,,,,,,,,,,,,,,,,3,6,36,2,,,AMNE16.jpg,AMSA09.jpg,AMSA04.jpg,AMNE06.jpg,AMNE16.jpg,MN,1,num_8,32,num_4,1.0500747161,,,2018_Mar_09_1255,59.99844123,FEMA4ImagesEEG,001,103346,
AFNE01.JPG,AFNE01.JPG,AFNE01.JPG,AFNE01.JPG,AFNE01.JPG,AFNE01.JPG,,,,,,,,,,,,,,,,,,,,,3,7,37,3,,,AMNE18.jpg,AMNE08.jpg,AMSA15.jpg,AMSA09.jpg,AMSA09.jpg,MS,2,num_4,16,num_4,0.516879685223,,,2018_Mar_09_1255,59.99844123,FEMA4ImagesEEG,001,103346,
AFNE01.JPG,AFNE01.JPG,AFNE01.JPG,AFNE01.JPG,AFNE01.JPG,AFNE01.JPG,,,,,,,,,,,,,,,,,,,,,3,8,38,4,,,AMSA04.jpg,AMSA16.jpg,AMNE02.jpg,AMNE20.jpg,AMNE02.jpg,MN,1,num_2,16,num_2,0.78347816295,,,2018_Mar_09_1255,59.99844123,FEMA4ImagesEEG,001,103346,
AFNE01.JPG,AFNE01.JPG,AFNE01.JPG,AFNE01.JPG,AFNE01.JPG,AFNE01.JPG,,,,,,,,,,,,,,,,,,,,,3,9,39,6,,,AMSA19.jpg,AMSA05.jpg,AMNE07.jpg,AMNE04.jpg,AMNE04.jpg,MN,1,num_4,32,num_2,0.933501207968,,,2018_Mar_09_1255,59.99844123,FEMA4ImagesEEG,001,103346,
AFNE01.JPG,AFNE01.JPG,AFNE01.JPG,AFNE01.JPG,AFNE01.JPG,AFNE01.JPG,,,,,,,,,,,,,,,,,,,,,4,0,40,3,,,AMNE05.jpg,AMSA13.jpg,AMSA09.jpg,AMNE07.jpg,AMNE05.jpg,MN,1,num_8,32,num_4,1.33340614126,,,2018_Mar_09_1255,59.99844123,FEMA4ImagesEEG,001,103346,
AFNE01.JPG,AFNE01.JPG,AFNE01.JPG,AFNE01.JPG,AFNE01.JPG,AFNE01.JPG,,,,,,,,,,,,,,,,,,,,,4,1,41,6,,,AMNE07.jpg,AMSA11.jpg,AMSA20.jpg,AMNE14.jpg,AMSA20.jpg,MS,2,num_2,16,num_2,0.483502956107,,,2018_Mar_09_1255,59.99844123,FEMA4ImagesEEG,001,103346,
