IPosition2,IPosition3,IPosition1,IPosition6,IPosition4,IPosition5,TrialsM1.thisRepN,TrialsM1.thisTrialN,TrialsM1.thisN,TrialsM1.thisIndex,TrialsF1.thisRepN,TrialsF1.thisTrialN,TrialsF1.thisN,TrialsF1.thisIndex,TrialsM2.thisRepN,TrialsM2.thisTrialN,TrialsM2.thisN,TrialsM2.thisIndex,TrialsF2.thisRepN,TrialsF2.thisTrialN,TrialsF2.thisN,TrialsF2.thisIndex,TrialsM3.thisRepN,TrialsM3.thisTrialN,TrialsM3.thisN,TrialsM3.thisIndex,TrialsF3.thisRepN,TrialsF3.thisTrialN,TrialsF3.thisN,TrialsF3.thisIndex,InstrKey_resp.keys,InstrKey_resp.rt,Image0 _Position,Image1 _Position,Image2 _Position,Image3 _Position,Center_image,condition,code,correct_answer,accuracy,Key_Resp.keys,Key_Resp.rt,BreakKey_resp.keys,BreakKey_resp.rt,date,frameRate,expName,session,participant,
,,,,,,,,,,,,,,,,,,,,,,,,,,,,,,space,12.5995671947,,,,,,,,,,,,,,2017_May_04_1939,60.0131853396,MAFE4ImagesEEG,001,200028,
AMSA21.JPG,AMNE22.JPG,AMNE21.JPG,AMSA23.JPG,AMSA22.JPG,AMNE23.JPG,0,0,0,1,,,,,,,,,,,,,,,,,,,,,,,AMSA03.jpg,AMNE17.jpg,AMSA11.jpg,AMNE01.jpg,AMSA11.jpg,MS,2,num_2,16,num_2,1.03351210267,,,2017_May_04_1939,60.0131853396,MAFE4ImagesEEG,001,200028,
AFNE23.JPG,AFNE24.JPG,AFNE22.JPG,AFSA24.JPG,AFSA22.JPG,AFSA23.JPG,0,1,1,8,,,,,,,,,,,,,,,,,,,,,,,AMNE12.jpg,AMSA19.jpg,AMNE07.jpg,AMSA03.jpg,AMSA19.jpg,MS,2,num_6,16,num_6,0.933090298669,,,2017_May_04_1939,60.0131853396,MAFE4ImagesEEG,001,200028,
AMSA21.JPG,AMNE23.JPG,AMNE21.JPG,AMSA25.JPG,AMNE25.JPG,AMSA23.JPG,0,2,2,5,,,,,,,,,,,,,,,,,,,,,,,AMSA05.jpg,AMNE17.jpg,AMSA13.jpg,AMNE10.jpg,AMNE10.jpg,MN,1,num_4,16,num_4,0.800181474304,,,2017_May_04_1939,60.0131853396,MAFE4ImagesEEG,001,200028,
AFSA21.JPG,AFNE22.JPG,AFNE21.JPG,AFSA23.JPG,AFSA22.JPG,AFNE23.JPG,0,3,3,0,,,,,,,,,,,,,,,,,,,,,,,AMNE19.jpg,AMSA16.jpg,AMNE01.jpg,AMSA06.jpg,AMNE19.jpg,MN,1,num_8,16,num_8,0.966663341736,,,2017_May_04_1939,60.0131853396,MAFE4ImagesEEG,001,200028,
AMNE23.JPG,AMNE24.JPG,AMNE22.JPG,AMSA24.JPG,AMSA22.JPG,AMSA23.JPG,0,4,4,9,,,,,,,,,,,,,,,,,,,,,,,AMSA16.jpg,AMNE15.jpg,AMNE16.jpg,AMSA10.jpg,AMNE16.jpg,MN,1,num_2,32,num_8,1.21669485443,,,2017_May_04_1939,60.0131853396,MAFE4ImagesEEG,001,200028,
AFSA25.JPG,AFNE24.JPG,AFSA24.JPG,AFNE21.JPG,AFSA21.JPG,AFNE25.JPG,0,5,5,2,,,,,,,,,,,,,,,,,,,,,,,AMSA13.jpg,AMSA06.jpg,AMNE05.jpg,AMNE09.jpg,AMSA13.jpg,MS,2,num_8,32,num_2,1.75004257797,,,2017_May_04_1939,60.0131853396,MAFE4ImagesEEG,001,200028,
AMSA25.JPG,AMNE24.JPG,AMSA24.JPG,AMNE26.JPG,AMSA21.JPG,AMNE25.JPG,0,6,6,3,,,,,,,,,,,,,,,,,,,,,,,AMNE13.jpg,AMSA07.jpg,AMNE04.jpg,AMSA01.jpg,AMNE13.jpg,MN,1,num_8,32,num_6,0.666930100415,,,2017_May_04_1939,60.0131853396,MAFE4ImagesEEG,001,200028,
AFNE22.JPG,AFSA24.JPG,AFSA22.JPG,AFNE25.JPG,AFNE24.JPG,AFSA25.JPG,0,7,7,6,,,,,,,,,,,,,,,,,,,,,,,AMSA16.jpg,AMSA08.jpg,AMNE09.jpg,AMNE14.jpg,AMNE09.jpg,MN,1,num_2,32,num_4,1.10010363068,,,2017_May_04_1939,60.0131853396,MAFE4ImagesEEG,001,200028,
AMNE22.JPG,AMSA24.JPG,AMSA22.JPG,AMNE25.JPG,AMNE24.JPG,AMSA25.JPG,0,8,8,7,,,,,,,,,,,,,,,,,,,,,,,AMNE19.jpg,AMNE06.jpg,AMSA13.jpg,AMSA04.jpg,AMSA13.jpg,MS,2,num_2,32,num_6,0.950131807709,,,2017_May_04_1939,60.0131853396,MAFE4ImagesEEG,001,200028,
AFSA21.JPG,AFNE23.JPG,AFNE21.JPG,AFSA25.JPG,AFNE25.JPG,AFSA23.JPG,0,9,9,4,,,,,,,,,,,,,,,,,,,,,,,AMNE05.jpg,AMNE18.jpg,AMSA17.jpg,AMSA14.jpg,AMSA17.jpg,MS,2,num_2,32,num_6,0.766751159914,,,2017_May_04_1939,60.0131853396,MAFE4ImagesEEG,001,200028,
AMSA21.JPG,AMNE23.JPG,AMNE21.JPG,AMSA25.JPG,AMNE25.JPG,AMSA23.JPG,,,,,0,0,0,5,,,,,,,,,,,,,,,,,,,AFSA06.jpg,AFNE19.jpg,AFSA05.jpg,AFNE01.jpg,AFNE01.jpg,FN,3,num_4,32,num_6,1.06672976678,,,2017_May_04_1939,60.0131853396,MAFE4ImagesEEG,001,200028,
AFSA21.JPG,AFNE22.JPG,AFNE21.JPG,AFSA23.JPG,AFSA22.JPG,AFNE23.JPG,,,,,0,1,1,0,,,,,,,,,,,,,,,,,,,AFNE09.jpg,AFNE07.jpg,AFSA16.jpg,AFSA01.jpg,AFSA01.jpg,FS,4,num_4,16,num_4,0.800140098669,,,2017_May_04_1939,60.0131853396,MAFE4ImagesEEG,001,200028,
AMNE23.JPG,AMNE24.JPG,AMNE22.JPG,AMSA24.JPG,AMSA22.JPG,AMSA23.JPG,,,,,0,2,2,9,,,,,,,,,,,,,,,,,,,AFNE06.jpg,AFSA07.jpg,AFSA03.jpg,AFNE18.jpg,AFNE18.jpg,FN,3,num_4,16,num_4,0.900143017527,,,2017_May_04_1939,60.0131853396,MAFE4ImagesEEG,001,200028,
AFSA25.JPG,AFNE24.JPG,AFSA24.JPG,AFNE21.JPG,AFSA21.JPG,AFNE25.JPG,,,,,0,3,3,2,,,,,,,,,,,,,,,,,,,AFNE17.jpg,AFNE15.jpg,AFSA14.jpg,AFSA16.jpg,AFSA14.jpg,FS,4,num_2,32,num_8,0.983422921039,,,2017_May_04_1939,60.0131853396,MAFE4ImagesEEG,001,200028,
AFNE23.JPG,AFNE24.JPG,AFNE22.JPG,AFSA24.JPG,AFSA22.JPG,AFSA23.JPG,,,,,0,4,4,8,,,,,,,,,,,,,,,,,,,AFNE10.jpg,AFSA06.jpg,AFSA03.jpg,AFNE14.jpg,AFNE10.jpg,FN,3,num_8,32,num_6,1.26673720777,,,2017_May_04_1939,60.0131853396,MAFE4ImagesEEG,001,200028,
AMSA21.JPG,AMNE22.JPG,AMNE21.JPG,AMSA23.JPG,AMSA22.JPG,AMNE23.JPG,,,,,0,5,5,1,,,,,,,,,,,,,,,,,,,AFSA17.jpg,AFNE12.jpg,AFSA02.jpg,AFNE06.jpg,AFSA17.jpg,FS,4,num_8,32,num_2,1.85015262384,,,2017_May_04_1939,60.0131853396,MAFE4ImagesEEG,001,200028,
AMNE22.JPG,AMSA24.JPG,AMSA22.JPG,AMNE25.JPG,AMNE24.JPG,AMSA25.JPG,,,,,0,6,6,7,,,,,,,,,,,,,,,,,,,AFNE04.jpg,AFSA14.jpg,AFNE14.jpg,AFSA03.jpg,AFNE04.jpg,FN,3,num_8,16,num_8,0.850109965308,,,2017_May_04_1939,60.0131853396,MAFE4ImagesEEG,001,200028,
AFNE22.JPG,AFSA24.JPG,AFSA22.JPG,AFNE25.JPG,AFNE24.JPG,AFSA25.JPG,,,,,0,7,7,6,,,,,,,,,,,,,,,,,,,AFSA02.jpg,AFNE03.jpg,AFNE10.jpg,AFSA20.jpg,AFSA20.jpg,FS,4,num_4,16,num_4,0.900031721219,,,2017_May_04_1939,60.0131853396,MAFE4ImagesEEG,001,200028,
AFSA21.JPG,AFNE23.JPG,AFNE21.JPG,AFSA25.JPG,AFNE25.JPG,AFSA23.JPG,,,,,0,8,8,4,,,,,,,,,,,,,,,,,,,AFNE11.jpg,AFSA20.jpg,AFNE15.jpg,AFSA06.jpg,AFNE11.jpg,FN,3,num_8,32,num_6,0.91674511414,,,2017_May_04_1939,60.0131853396,MAFE4ImagesEEG,001,200028,
AMSA25.JPG,AMNE24.JPG,AMSA24.JPG,AMNE26.JPG,AMSA21.JPG,AMNE25.JPG,,,,,0,9,9,3,,,,,,,,,,,,,,,,,,,AFSA15.jpg,AFSA12.jpg,AFNE08.jpg,AFNE14.jpg,AFNE08.jpg,FN,3,num_2,16,num_2,1.450130685,,,2017_May_04_1939,60.0131853396,MAFE4ImagesEEG,001,200028,
AMNE22.JPG,AMSA24.JPG,AMSA22.JPG,AMNE25.JPG,AMNE24.JPG,AMSA25.JPG,,,,,,,,,0,0,0,7,,,,,,,,,,,,,,,AMNE15.jpg,AMSA12.jpg,AMNE01.jpg,AMSA10.jpg,AMNE15.jpg,MN,1,num_8,16,num_8,0.900401212508,,,2017_May_04_1939,60.0131853396,MAFE4ImagesEEG,001,200028,
AMSA25.JPG,AMNE24.JPG,AMSA24.JPG,AMNE26.JPG,AMSA21.JPG,AMNE25.JPG,,,,,,,,,0,1,1,3,,,,,,,,,,,,,,,AMSA17.jpg,AMNE08.jpg,AMSA19.jpg,AMNE04.jpg,AMNE08.jpg,MN,1,num_6,16,num_6,0.783460062696,,,2017_May_04_1939,60.0131853396,MAFE4ImagesEEG,001,200028,
AMSA21.JPG,AMNE23.JPG,AMNE21.JPG,AMSA25.JPG,AMNE25.JPG,AMSA23.JPG,,,,,,,,,0,2,2,5,,,,,,,,,,,,,,,AMSA12.jpg,AMNE13.jpg,AMNE16.jpg,AMSA16.jpg,AMNE16.jpg,MN,1,num_2,32,num_6,0.983494766755,,,2017_May_04_1939,60.0131853396,MAFE4ImagesEEG,001,200028,
AFSA21.JPG,AFNE23.JPG,AFNE21.JPG,AFSA25.JPG,AFNE25.JPG,AFSA23.JPG,,,,,,,,,0,3,3,4,,,,,,,,,,,,,,,AMNE08.jpg,AMSA20.jpg,AMSA01.jpg,AMNE15.jpg,AMNE08.jpg,MN,1,num_8,16,num_8,0.816609088564,,,2017_May_04_1939,60.0131853396,MAFE4ImagesEEG,001,200028,
AFNE22.JPG,AFSA24.JPG,AFSA22.JPG,AFNE25.JPG,AFNE24.JPG,AFSA25.JPG,,,,,,,,,0,4,4,6,,,,,,,,,,,,,,,AMSA07.jpg,AMNE20.jpg,AMSA17.jpg,AMNE02.jpg,AMNE02.jpg,MN,1,num_4,16,num_4,0.85014107707,,,2017_May_04_1939,60.0131853396,MAFE4ImagesEEG,001,200028,
AFSA21.JPG,AFNE22.JPG,AFNE21.JPG,AFSA23.JPG,AFSA22.JPG,AFNE23.JPG,,,,,,,,,0,5,5,0,,,,,,,,,,,,,,,AMNE16.jpg,AMNE08.jpg,AMSA15.jpg,AMSA06.jpg,AMSA15.jpg,MS,2,num_2,16,num_2,0.566774509847,,,2017_May_04_1939,60.0131853396,MAFE4ImagesEEG,001,200028,
AMNE23.JPG,AMNE24.JPG,AMNE22.JPG,AMSA24.JPG,AMSA22.JPG,AMSA23.JPG,,,,,,,,,0,6,6,9,,,,,,,,,,,,,,,AMSA05.jpg,AMSA03.jpg,AMNE08.jpg,AMNE05.jpg,AMNE08.jpg,MN,1,num_2,16,num_2,0.916899710195,,,2017_May_04_1939,60.0131853396,MAFE4ImagesEEG,001,200028,
AMSA21.JPG,AMNE22.JPG,AMNE21.JPG,AMSA23.JPG,AMSA22.JPG,AMNE23.JPG,,,,,,,,,0,7,7,1,,,,,,,,,,,,,,,AMNE07.jpg,AMSA14.jpg,AMSA07.jpg,AMNE01.jpg,AMSA14.jpg,MS,2,num_6,16,num_6,1.20007255115,,,2017_May_04_1939,60.0131853396,MAFE4ImagesEEG,001,200028,
AFSA25.JPG,AFNE24.JPG,AFSA24.JPG,AFNE21.JPG,AFSA21.JPG,AFNE25.JPG,,,,,,,,,0,8,8,2,,,,,,,,,,,,,,,AMSA09.jpg,AMNE08.jpg,AMNE10.jpg,AMSA14.jpg,AMSA09.jpg,MS,2,num_8,16,num_8,0.800081724534,,,2017_May_04_1939,60.0131853396,MAFE4ImagesEEG,001,200028,
AFNE23.JPG,AFNE24.JPG,AFNE22.JPG,AFSA24.JPG,AFSA22.JPG,AFSA23.JPG,,,,,,,,,0,9,9,8,,,,,,,,,,,,,,,AMSA11.jpg,AMSA20.jpg,AMNE05.jpg,AMNE03.jpg,AMNE03.jpg,MN,1,num_4,32,num_2,0.999988132622,,,2017_May_04_1939,60.0131853396,MAFE4ImagesEEG,001,200028,
AFSA21.JPG,AFNE23.JPG,AFNE21.JPG,AFSA25.JPG,AFNE25.JPG,AFSA23.JPG,,,,,,,,,,,,,0,0,0,4,,,,,,,,,,,AFNE12.jpg,AFNE15.jpg,AFSA11.jpg,AFSA04.jpg,AFSA11.jpg,FS,4,num_2,32,num_8,0.866770115681,,,2017_May_04_1939,60.0131853396,MAFE4ImagesEEG,001,200028,
AMNE22.JPG,AMSA24.JPG,AMSA22.JPG,AMNE25.JPG,AMNE24.JPG,AMSA25.JPG,,,,,,,,,,,,,0,1,1,7,,,,,,,,,,,AFSA10.jpg,AFNE04.jpg,AFSA16.jpg,AFNE14.jpg,AFSA16.jpg,FS,4,num_2,32,num_6,0.833496322157,,,2017_May_04_1939,60.0131853396,MAFE4ImagesEEG,001,200028,
AMSA25.JPG,AMNE24.JPG,AMSA24.JPG,AMNE26.JPG,AMSA21.JPG,AMNE25.JPG,,,,,,,,,,,,,0,2,2,3,,,,,,,,,,,AFSA11.jpg,AFSA12.jpg,AFNE06.jpg,AFNE08.jpg,AFSA12.jpg,FS,4,num_6,16,num_6,0.933454658138,,,2017_May_04_1939,60.0131853396,MAFE4ImagesEEG,001,200028,
AMSA21.JPG,AMNE23.JPG,AMNE21.JPG,AMSA25.JPG,AMNE25.JPG,AMSA23.JPG,,,,,,,,,,,,,0,3,3,5,,,,,,,,,,,AFNE02.jpg,AFSA19.jpg,AFNE19.jpg,AFSA06.jpg,AFNE02.jpg,FN,3,num_8,32,num_6,0.783467118861,,,2017_May_04_1939,60.0131853396,MAFE4ImagesEEG,001,200028,
AMNE23.JPG,AMNE24.JPG,AMNE22.JPG,AMSA24.JPG,AMSA22.JPG,AMSA23.JPG,,,,,,,,,,,,,0,4,4,9,,,,,,,,,,,AFSA06.jpg,AFSA20.jpg,AFNE11.jpg,AFNE04.jpg,AFSA06.jpg,FS,4,num_8,16,num_8,0.600237218663,,,2017_May_04_1939,60.0131853396,MAFE4ImagesEEG,001,200028,
AFSA21.JPG,AFNE22.JPG,AFNE21.JPG,AFSA23.JPG,AFSA22.JPG,AFNE23.JPG,,,,,,,,,,,,,0,5,5,0,,,,,,,,,,,AFSA09.jpg,AFSA16.jpg,AFNE17.jpg,AFNE19.jpg,AFSA09.jpg,FS,4,num_8,32,num_6,0.716845441144,,,2017_May_04_1939,60.0131853396,MAFE4ImagesEEG,001,200028,
AFNE22.JPG,AFSA24.JPG,AFSA22.JPG,AFNE25.JPG,AFNE24.JPG,AFSA25.JPG,,,,,,,,,,,,,0,6,6,6,,,,,,,,,,,AFSA04.jpg,AFNE02.jpg,AFNE14.jpg,AFSA08.jpg,AFSA04.jpg,FS,4,num_8,32,num_4,0.733405841747,,,2017_May_04_1939,60.0131853396,MAFE4ImagesEEG,001,200028,
AFNE23.JPG,AFNE24.JPG,AFNE22.JPG,AFSA24.JPG,AFSA22.JPG,AFSA23.JPG,,,,,,,,,,,,,0,7,7,8,,,,,,,,,,,AFNE05.jpg,AFSA20.jpg,AFNE13.jpg,AFSA07.jpg,AFNE05.jpg,FN,3,num_8,32,num_2,1.1501424564,,,2017_May_04_1939,60.0131853396,MAFE4ImagesEEG,001,200028,
AFSA25.JPG,AFNE24.JPG,AFSA24.JPG,AFNE21.JPG,AFSA21.JPG,AFNE25.JPG,,,,,,,,,,,,,0,8,8,2,,,,,,,,,,,AFSA08.jpg,AFSA04.jpg,AFNE12.jpg,AFNE19.jpg,AFNE19.jpg,FN,3,num_4,16,num_4,0.91677141469,,,2017_May_04_1939,60.0131853396,MAFE4ImagesEEG,001,200028,
AMSA21.JPG,AMNE22.JPG,AMNE21.JPG,AMSA23.JPG,AMSA22.JPG,AMNE23.JPG,,,,,,,,,,,,,0,9,9,1,,,,,,,,,,,AFSA04.jpg,AFNE01.jpg,AFNE04.jpg,AFSA07.jpg,AFNE01.jpg,FN,3,num_6,16,num_6,0.733524194453,,,2017_May_04_1939,60.0131853396,MAFE4ImagesEEG,001,200028,
AFSA25.JPG,AFNE24.JPG,AFSA24.JPG,AFNE21.JPG,AFSA21.JPG,AFNE25.JPG,,,,,,,,,,,,,,,,,0,0,0,2,,,,,,,AMSA02.jpg,AMSA18.jpg,AMNE10.jpg,AMNE06.jpg,AMNE06.jpg,MN,1,num_4,16,num_4,0.950118978042,,,2017_May_04_1939,60.0131853396,MAFE4ImagesEEG,001,200028,
AMNE22.JPG,AMSA24.JPG,AMSA22.JPG,AMNE25.JPG,AMNE24.JPG,AMSA25.JPG,,,,,,,,,,,,,,,,,0,1,1,7,,,,,,,AMNE03.jpg,AMSA05.jpg,AMNE12.jpg,AMSA03.jpg,AMNE03.jpg,MN,1,num_8,32,num_4,0.65012786258,,,2017_May_04_1939,60.0131853396,MAFE4ImagesEEG,001,200028,
AFNE23.JPG,AFNE24.JPG,AFNE22.JPG,AFSA24.JPG,AFSA22.JPG,AFSA23.JPG,,,,,,,,,,,,,,,,,0,2,2,8,,,,,,,AMNE20.jpg,AMSA14.jpg,AMNE09.jpg,AMSA15.jpg,AMSA14.jpg,MS,2,num_6,32,num_4,1.11674998933,,,2017_May_04_1939,60.0131853396,MAFE4ImagesEEG,001,200028,
AFSA21.JPG,AFNE23.JPG,AFNE21.JPG,AFSA25.JPG,AFNE25.JPG,AFSA23.JPG,,,,,,,,,,,,,,,,,0,3,3,4,,,,,,,AMSA16.jpg,AMNE19.jpg,AMNE14.jpg,AMSA02.jpg,AMNE14.jpg,MN,1,num_2,32,num_6,0.783528700937,,,2017_May_04_1939,60.0131853396,MAFE4ImagesEEG,001,200028,
AMNE23.JPG,AMNE24.JPG,AMNE22.JPG,AMSA24.JPG,AMSA22.JPG,AMSA23.JPG,,,,,,,,,,,,,,,,,0,4,4,9,,,,,,,AMNE18.jpg,AMSA05.jpg,AMNE09.jpg,AMSA04.jpg,AMNE18.jpg,MN,1,num_8,32,num_2,1.18342619273,,,2017_May_04_1939,60.0131853396,MAFE4ImagesEEG,001,200028,
AFNE22.JPG,AFSA24.JPG,AFSA22.JPG,AFNE25.JPG,AFNE24.JPG,AFSA25.JPG,,,,,,,,,,,,,,,,,0,5,5,6,,,,,,,AMNE17.jpg,AMSA08.jpg,AMNE14.jpg,AMSA14.jpg,AMSA08.jpg,MS,2,num_6,16,num_6,0.700102861039,,,2017_May_04_1939,60.0131853396,MAFE4ImagesEEG,001,200028,
AMSA21.JPG,AMNE23.JPG,AMNE21.JPG,AMSA25.JPG,AMNE25.JPG,AMSA23.JPG,,,,,,,,,,,,,,,,,0,6,6,5,,,,,,,AMSA17.jpg,AMSA02.jpg,AMNE18.jpg,AMNE12.jpg,AMSA02.jpg,MS,2,num_6,16,num_6,0.916765320813,,,2017_May_04_1939,60.0131853396,MAFE4ImagesEEG,001,200028,
AMSA21.JPG,AMNE22.JPG,AMNE21.JPG,AMSA23.JPG,AMSA22.JPG,AMNE23.JPG,,,,,,,,,,,,,,,,,0,7,7,1,,,,,,,AMNE18.jpg,AMSA04.jpg,AMNE05.jpg,AMSA12.jpg,AMSA04.jpg,MS,2,num_6,16,num_6,0.500163737219,,,2017_May_04_1939,60.0131853396,MAFE4ImagesEEG,001,200028,
AMSA25.JPG,AMNE24.JPG,AMSA24.JPG,AMNE26.JPG,AMSA21.JPG,AMNE25.JPG,,,,,,,,,,,,,,,,,0,8,8,3,,,,,,,AMSA08.jpg,AMNE19.jpg,AMSA01.jpg,AMNE17.jpg,AMNE17.jpg,MN,1,num_4,32,num_6,0.883251935011,,,2017_May_04_1939,60.0131853396,MAFE4ImagesEEG,001,200028,
AFSA21.JPG,AFNE22.JPG,AFNE21.JPG,AFSA23.JPG,AFSA22.JPG,AFNE23.JPG,,,,,,,,,,,,,,,,,0,9,9,0,,,,,,,AMSA03.jpg,AMNE18.jpg,AMNE05.jpg,AMSA01.jpg,AMSA03.jpg,MS,2,num_8,16,num_8,0.500138078118,,,2017_May_04_1939,60.0131853396,MAFE4ImagesEEG,001,200028,
AFSA25.JPG,AFNE24.JPG,AFSA24.JPG,AFNE21.JPG,AFSA21.JPG,AFNE25.JPG,,,,,,,,,,,,,,,,,,,,,0,0,0,2,,,AFNE05.jpg,AFSA05.jpg,AFNE17.jpg,AFSA03.jpg,AFNE17.jpg,FN,3,num_2,32,num_8,0.816755024949,,,2017_May_04_1939,60.0131853396,MAFE4ImagesEEG,001,200028,
AMSA21.JPG,AMNE22.JPG,AMNE21.JPG,AMSA23.JPG,AMSA22.JPG,AMNE23.JPG,,,,,,,,,,,,,,,,,,,,,0,1,1,1,,,AFSA04.jpg,AFSA06.jpg,AFNE12.jpg,AFNE13.jpg,AFNE13.jpg,FN,3,num_4,16,num_4,0.85010483372,,,2017_May_04_1939,60.0131853396,MAFE4ImagesEEG,001,200028,
AMSA25.JPG,AMNE24.JPG,AMSA24.JPG,AMNE26.JPG,AMSA21.JPG,AMNE25.JPG,,,,,,,,,,,,,,,,,,,,,0,2,2,3,,,AFNE03.jpg,AFNE05.jpg,AFSA03.jpg,AFSA04.jpg,AFSA03.jpg,FS,4,num_2,16,num_2,1.40008544479,,,2017_May_04_1939,60.0131853396,MAFE4ImagesEEG,001,200028,
AFNE22.JPG,AFSA24.JPG,AFSA22.JPG,AFNE25.JPG,AFNE24.JPG,AFSA25.JPG,,,,,,,,,,,,,,,,,,,,,0,3,3,6,,,AFNE13.jpg,AFSA17.jpg,AFNE16.jpg,AFSA19.jpg,AFNE13.jpg,FN,3,num_8,16,num_8,0.966738394694,,,2017_May_04_1939,60.0131853396,MAFE4ImagesEEG,001,200028,
AFSA21.JPG,AFNE23.JPG,AFNE21.JPG,AFSA25.JPG,AFNE25.JPG,AFSA23.JPG,,,,,,,,,,,,,,,,,,,,,0,4,4,4,,,AFSA10.jpg,AFNE16.jpg,AFNE11.jpg,AFSA05.jpg,AFSA10.jpg,FS,4,num_8,16,num_8,0.71681272611,,,2017_May_04_1939,60.0131853396,MAFE4ImagesEEG,001,200028,
AMSA21.JPG,AMNE23.JPG,AMNE21.JPG,AMSA25.JPG,AMNE25.JPG,AMSA23.JPG,,,,,,,,,,,,,,,,,,,,,0,5,5,5,,,AFNE09.jpg,AFNE15.jpg,AFSA01.jpg,AFSA18.jpg,AFSA01.jpg,FS,4,num_2,16,num_2,0.90013660281,,,2017_May_04_1939,60.0131853396,MAFE4ImagesEEG,001,200028,
AMNE22.JPG,AMSA24.JPG,AMSA22.JPG,AMNE25.JPG,AMNE24.JPG,AMSA25.JPG,,,,,,,,,,,,,,,,,,,,,0,6,6,7,,,AFNE13.jpg,AFNE03.jpg,AFSA06.jpg,AFSA04.jpg,AFSA06.jpg,FS,4,num_2,32,num_4,0.56677322695,,,2017_May_04_1939,60.0131853396,MAFE4ImagesEEG,001,200028,
AMNE23.JPG,AMNE24.JPG,AMNE22.JPG,AMSA24.JPG,AMSA22.JPG,AMSA23.JPG,,,,,,,,,,,,,,,,,,,,,0,7,7,9,,,AFSA19.jpg,AFSA09.jpg,AFNE02.jpg,AFNE13.jpg,AFNE13.jpg,FN,3,num_4,16,num_4,0.850102588534,,,2017_May_04_1939,60.0131853396,MAFE4ImagesEEG,001,200028,
AFNE23.JPG,AFNE24.JPG,AFNE22.JPG,AFSA24.JPG,AFSA22.JPG,AFSA23.JPG,,,,,,,,,,,,,,,,,,,,,0,8,8,8,,,AFSA15.jpg,AFNE13.jpg,AFSA05.jpg,AFNE10.jpg,AFNE10.jpg,FN,3,num_4,32,num_6,0.8334369855,,,2017_May_04_1939,60.0131853396,MAFE4ImagesEEG,001,200028,
AFSA21.JPG,AFNE22.JPG,AFNE21.JPG,AFSA23.JPG,AFSA22.JPG,AFNE23.JPG,,,,,,,,,,,,,,,,,,,,,0,9,9,0,,,AFSA02.jpg,AFNE11.jpg,AFNE06.jpg,AFSA15.jpg,AFSA15.jpg,FS,4,num_4,16,num_4,0.500168869272,,,2017_May_04_1939,60.0131853396,MAFE4ImagesEEG,001,200028,
,,,,,,,,,,,,,,,,,,,,,,,,,,,,,,,,,,,,,,,,,,,space,10.4327010817,2017_May_04_1939,60.0131853396,MAFE4ImagesEEG,001,200028,
AFNE01.JPG,AFNE01.JPG,AFNE01.JPG,AFNE01.JPG,AFNE01.JPG,AFNE01.JPG,0,0,0,2,,,,,,,,,,,,,,,,,,,,,,,AMSA07.jpg,AMNE16.jpg,AMSA11.jpg,AMNE15.jpg,AMNE16.jpg,MN,1,num_6,32,num_8,0.950208785245,,,2017_May_04_1939,60.0131853396,MAFE4ImagesEEG,001,200028,
AFNE01.JPG,AFNE01.JPG,AFNE01.JPG,AFNE01.JPG,AFNE01.JPG,AFNE01.JPG,0,1,1,9,,,,,,,,,,,,,,,,,,,,,,,AMNE14.jpg,AMSA12.jpg,AMNE15.jpg,AMSA17.jpg,AMSA17.jpg,MS,2,num_4,32,num_8,1.08351147734,,,2017_May_04_1939,60.0131853396,MAFE4ImagesEEG,001,200028,
AFNE01.JPG,AFNE01.JPG,AFNE01.JPG,AFNE01.JPG,AFNE01.JPG,AFNE01.JPG,0,2,2,3,,,,,,,,,,,,,,,,,,,,,,,AMSA15.jpg,AMNE08.jpg,AMNE09.jpg,AMSA10.jpg,AMSA10.jpg,MS,2,num_4,32,num_8,0.766796063632,,,2017_May_04_1939,60.0131853396,MAFE4ImagesEEG,001,200028,
AFNE01.JPG,AFNE01.JPG,AFNE01.JPG,AFNE01.JPG,AFNE01.JPG,AFNE01.JPG,0,3,3,5,,,,,,,,,,,,,,,,,,,,,,,AMSA03.jpg,AMNE06.jpg,AMSA19.jpg,AMNE11.jpg,AMNE11.jpg,MN,1,num_4,32,num_6,1.10011196998,,,2017_May_04_1939,60.0131853396,MAFE4ImagesEEG,001,200028,
AFNE01.JPG,AFNE01.JPG,AFNE01.JPG,AFNE01.JPG,AFNE01.JPG,AFNE01.JPG,0,4,4,4,,,,,,,,,,,,,,,,,,,,,,,AMNE16.jpg,AMSA01.jpg,AMNE03.jpg,AMSA20.jpg,AMNE16.jpg,MN,1,num_8,16,num_8,1.00027262815,,,2017_May_04_1939,60.0131853396,MAFE4ImagesEEG,001,200028,
AFNE01.JPG,AFNE01.JPG,AFNE01.JPG,AFNE01.JPG,AFNE01.JPG,AFNE01.JPG,0,5,5,0,,,,,,,,,,,,,,,,,,,,,,,AMNE04.jpg,AMNE06.jpg,AMSA03.jpg,AMSA19.jpg,AMNE06.jpg,MN,1,num_6,16,num_6,0.983531330945,,,2017_May_04_1939,60.0131853396,MAFE4ImagesEEG,001,200028,
AFNE01.JPG,AFNE01.JPG,AFNE01.JPG,AFNE01.JPG,AFNE01.JPG,AFNE01.JPG,0,6,6,8,,,,,,,,,,,,,,,,,,,,,,,AMNE08.jpg,AMSA15.jpg,AMNE14.jpg,AMSA13.jpg,AMNE08.jpg,MN,1,num_8,32,num_6,0.966752827866,,,2017_May_04_1939,60.0131853396,MAFE4ImagesEEG,001,200028,
AFNE01.JPG,AFNE01.JPG,AFNE01.JPG,AFNE01.JPG,AFNE01.JPG,AFNE01.JPG,0,7,7,1,,,,,,,,,,,,,,,,,,,,,,,AMSA09.jpg,AMSA11.jpg,AMNE18.jpg,AMNE05.jpg,AMSA11.jpg,MS,2,num_6,32,num_8,1.06673457776,,,2017_May_04_1939,60.0131853396,MAFE4ImagesEEG,001,200028,
AFNE01.JPG,AFNE01.JPG,AFNE01.JPG,AFNE01.JPG,AFNE01.JPG,AFNE01.JPG,0,8,8,6,,,,,,,,,,,,,,,,,,,,,,,AMSA17.jpg,AMNE04.jpg,AMNE10.jpg,AMSA05.jpg,AMSA05.jpg,MS,2,num_4,32,num_6,0.666779994266,,,2017_May_04_1939,60.0131853396,MAFE4ImagesEEG,001,200028,
AFNE01.JPG,AFNE01.JPG,AFNE01.JPG,AFNE01.JPG,AFNE01.JPG,AFNE01.JPG,0,9,9,7,,,,,,,,,,,,,,,,,,,,,,,AMNE10.jpg,AMSA05.jpg,AMNE01.jpg,AMSA16.jpg,AMSA16.jpg,MS,2,num_4,16,num_4,0.416766122449,,,2017_May_04_1939,60.0131853396,MAFE4ImagesEEG,001,200028,
AFNE01.JPG,AFNE01.JPG,AFNE01.JPG,AFNE01.JPG,AFNE01.JPG,AFNE01.JPG,1,0,10,2,,,,,,,,,,,,,,,,,,,,,,,AMSA04.jpg,AMSA03.jpg,AMNE14.jpg,AMNE09.jpg,AMSA03.jpg,MS,2,num_6,32,num_8,0.700134934857,,,2017_May_04_1939,60.0131853396,MAFE4ImagesEEG,001,200028,
AFNE01.JPG,AFNE01.JPG,AFNE01.JPG,AFNE01.JPG,AFNE01.JPG,AFNE01.JPG,1,1,11,0,,,,,,,,,,,,,,,,,,,,,,,AMNE16.jpg,AMNE14.jpg,AMSA02.jpg,AMSA10.jpg,AMNE16.jpg,MN,1,num_8,16,num_8,0.883477093885,,,2017_May_04_1939,60.0131853396,MAFE4ImagesEEG,001,200028,
AFNE01.JPG,AFNE01.JPG,AFNE01.JPG,AFNE01.JPG,AFNE01.JPG,AFNE01.JPG,1,2,12,7,,,,,,,,,,,,,,,,,,,,,,,AMSA14.jpg,AMNE07.jpg,AMSA10.jpg,AMNE15.jpg,AMSA14.jpg,MS,2,num_8,16,num_8,0.516770645045,,,2017_May_04_1939,60.0131853396,MAFE4ImagesEEG,001,200028,
AFNE01.JPG,AFNE01.JPG,AFNE01.JPG,AFNE01.JPG,AFNE01.JPG,AFNE01.JPG,1,3,13,8,,,,,,,,,,,,,,,,,,,,,,,AMNE15.jpg,AMNE04.jpg,AMSA20.jpg,AMSA14.jpg,AMNE15.jpg,MN,1,num_8,16,num_8,0.916756660677,,,2017_May_04_1939,60.0131853396,MAFE4ImagesEEG,001,200028,
AFNE01.JPG,AFNE01.JPG,AFNE01.JPG,AFNE01.JPG,AFNE01.JPG,AFNE01.JPG,1,4,14,4,,,,,,,,,,,,,,,,,,,,,,,AMSA14.jpg,AMNE01.jpg,AMSA08.jpg,AMNE14.jpg,AMSA14.jpg,MS,2,num_8,16,num_8,0.700138783781,,,2017_May_04_1939,60.0131853396,MAFE4ImagesEEG,001,200028,
AFNE01.JPG,AFNE01.JPG,AFNE01.JPG,AFNE01.JPG,AFNE01.JPG,AFNE01.JPG,1,5,15,6,,,,,,,,,,,,,,,,,,,,,,,AMSA16.jpg,AMSA17.jpg,AMNE04.jpg,AMNE13.jpg,AMSA16.jpg,MS,2,num_8,16,num_8,1.33369277488,,,2017_May_04_1939,60.0131853396,MAFE4ImagesEEG,001,200028,
AFNE01.JPG,AFNE01.JPG,AFNE01.JPG,AFNE01.JPG,AFNE01.JPG,AFNE01.JPG,1,6,16,3,,,,,,,,,,,,,,,,,,,,,,,AMSA09.jpg,AMSA18.jpg,AMNE19.jpg,AMNE10.jpg,AMSA18.jpg,MS,2,num_6,32,num_8,0.800169606693,,,2017_May_04_1939,60.0131853396,MAFE4ImagesEEG,001,200028,
AFNE01.JPG,AFNE01.JPG,AFNE01.JPG,AFNE01.JPG,AFNE01.JPG,AFNE01.JPG,1,7,17,1,,,,,,,,,,,,,,,,,,,,,,,AMSA04.jpg,AMNE02.jpg,AMNE05.jpg,AMSA08.jpg,AMNE05.jpg,MN,1,num_2,32,num_6,0.816734818276,,,2017_May_04_1939,60.0131853396,MAFE4ImagesEEG,001,200028,
AFNE01.JPG,AFNE01.JPG,AFNE01.JPG,AFNE01.JPG,AFNE01.JPG,AFNE01.JPG,1,8,18,5,,,,,,,,,,,,,,,,,,,,,,,AMSA13.jpg,AMNE08.jpg,AMSA06.jpg,AMNE05.jpg,AMSA13.jpg,MS,2,num_8,16,num_8,0.767081521451,,,2017_May_04_1939,60.0131853396,MAFE4ImagesEEG,001,200028,
AFNE01.JPG,AFNE01.JPG,AFNE01.JPG,AFNE01.JPG,AFNE01.JPG,AFNE01.JPG,1,9,19,9,,,,,,,,,,,,,,,,,,,,,,,AMNE16.jpg,AMSA15.jpg,AMSA18.jpg,AMNE15.jpg,AMSA18.jpg,MS,2,num_2,32,num_6,0.66681046458,,,2017_May_04_1939,60.0131853396,MAFE4ImagesEEG,001,200028,
AFNE01.JPG,AFNE01.JPG,AFNE01.JPG,AFNE01.JPG,AFNE01.JPG,AFNE01.JPG,2,0,20,1,,,,,,,,,,,,,,,,,,,,,,,AMNE10.jpg,AMSA20.jpg,AMSA12.jpg,AMNE05.jpg,AMSA12.jpg,MS,2,num_2,16,num_2,1.90006604022,,,2017_May_04_1939,60.0131853396,MAFE4ImagesEEG,001,200028,
AFNE01.JPG,AFNE01.JPG,AFNE01.JPG,AFNE01.JPG,AFNE01.JPG,AFNE01.JPG,2,1,21,8,,,,,,,,,,,,,,,,,,,,,,,AMNE06.jpg,AMSA10.jpg,AMNE15.jpg,AMSA07.jpg,AMNE06.jpg,MN,1,num_8,32,num_6,0.733452669578,,,2017_May_04_1939,60.0131853396,MAFE4ImagesEEG,001,200028,
AFNE01.JPG,AFNE01.JPG,AFNE01.JPG,AFNE01.JPG,AFNE01.JPG,AFNE01.JPG,2,2,22,4,,,,,,,,,,,,,,,,,,,,,,,AMNE14.jpg,AMSA13.jpg,AMSA05.jpg,AMNE05.jpg,AMNE05.jpg,MN,1,num_4,16,num_4,0.600125280675,,,2017_May_04_1939,60.0131853396,MAFE4ImagesEEG,001,200028,
AFNE01.JPG,AFNE01.JPG,AFNE01.JPG,AFNE01.JPG,AFNE01.JPG,AFNE01.JPG,2,3,23,7,,,,,,,,,,,,,,,,,,,,,,,AMNE02.jpg,AMSA09.jpg,AMSA17.jpg,AMNE11.jpg,AMSA17.jpg,MS,2,num_2,32,num_8,0.783528380096,,,2017_May_04_1939,60.0131853396,MAFE4ImagesEEG,001,200028,
AFNE01.JPG,AFNE01.JPG,AFNE01.JPG,AFNE01.JPG,AFNE01.JPG,AFNE01.JPG,2,4,24,0,,,,,,,,,,,,,,,,,,,,,,,AMNE10.jpg,AMSA04.jpg,AMNE19.jpg,AMSA11.jpg,AMNE19.jpg,MN,1,num_2,32,num_8,0.683500764426,,,2017_May_04_1939,60.0131853396,MAFE4ImagesEEG,001,200028,
AFNE01.JPG,AFNE01.JPG,AFNE01.JPG,AFNE01.JPG,AFNE01.JPG,AFNE01.JPG,2,5,25,9,,,,,,,,,,,,,,,,,,,,,,,AMSA20.jpg,AMSA09.jpg,AMNE05.jpg,AMNE12.jpg,AMNE05.jpg,MN,1,num_2,32,num_8,0.70012467145,,,2017_May_04_1939,60.0131853396,MAFE4ImagesEEG,001,200028,
AFNE01.JPG,AFNE01.JPG,AFNE01.JPG,AFNE01.JPG,AFNE01.JPG,AFNE01.JPG,2,6,26,2,,,,,,,,,,,,,,,,,,,,,,,AMSA03.jpg,AMNE07.jpg,AMNE05.jpg,AMSA15.jpg,AMNE07.jpg,MN,1,num_6,16,num_6,0.733426369028,,,2017_May_04_1939,60.0131853396,MAFE4ImagesEEG,001,200028,
AFNE01.JPG,AFNE01.JPG,AFNE01.JPG,AFNE01.JPG,AFNE01.JPG,AFNE01.JPG,2,7,27,6,,,,,,,,,,,,,,,,,,,,,,,AMNE02.jpg,AMSA20.jpg,AMNE17.jpg,AMSA13.jpg,AMSA20.jpg,MS,2,num_6,16,num_6,0.883779230062,,,2017_May_04_1939,60.0131853396,MAFE4ImagesEEG,001,200028,
AFNE01.JPG,AFNE01.JPG,AFNE01.JPG,AFNE01.JPG,AFNE01.JPG,AFNE01.JPG,2,8,28,3,,,,,,,,,,,,,,,,,,,,,,,AMSA13.jpg,AMNE03.jpg,AMNE10.jpg,AMSA15.jpg,AMSA15.jpg,MS,2,num_4,16,num_4,0.600140355527,,,2017_May_04_1939,60.0131853396,MAFE4ImagesEEG,001,200028,
AFNE01.JPG,AFNE01.JPG,AFNE01.JPG,AFNE01.JPG,AFNE01.JPG,AFNE01.JPG,2,9,29,5,,,,,,,,,,,,,,,,,,,,,,,AMSA16.jpg,AMNE09.jpg,AMSA15.jpg,AMNE18.jpg,AMSA15.jpg,MS,2,num_2,16,num_2,1.01679935097,,,2017_May_04_1939,60.0131853396,MAFE4ImagesEEG,001,200028,
AFNE01.JPG,AFNE01.JPG,AFNE01.JPG,AFNE01.JPG,AFNE01.JPG,AFNE01.JPG,3,0,30,3,,,,,,,,,,,,,,,,,,,,,,,AMSA10.jpg,AMNE09.jpg,AMSA18.jpg,AMNE12.jpg,AMSA10.jpg,MS,2,num_8,16,num_8,0.750112499343,,,2017_May_04_1939,60.0131853396,MAFE4ImagesEEG,001,200028,
AFNE01.JPG,AFNE01.JPG,AFNE01.JPG,AFNE01.JPG,AFNE01.JPG,AFNE01.JPG,3,1,31,7,,,,,,,,,,,,,,,,,,,,,,,AMNE09.jpg,AMNE08.jpg,AMSA16.jpg,AMSA10.jpg,AMNE08.jpg,MN,1,num_6,16,num_6,0.96677207225,,,2017_May_04_1939,60.0131853396,MAFE4ImagesEEG,001,200028,
AFNE01.JPG,AFNE01.JPG,AFNE01.JPG,AFNE01.JPG,AFNE01.JPG,AFNE01.JPG,3,2,32,1,,,,,,,,,,,,,,,,,,,,,,,AMNE18.jpg,AMNE01.jpg,AMSA08.jpg,AMSA01.jpg,AMSA01.jpg,MS,2,num_4,16,num_4,0.766775856959,,,2017_May_04_1939,60.0131853396,MAFE4ImagesEEG,001,200028,
AFNE01.JPG,AFNE01.JPG,AFNE01.JPG,AFNE01.JPG,AFNE01.JPG,AFNE01.JPG,3,3,33,6,,,,,,,,,,,,,,,,,,,,,,,AMSA20.jpg,AMNE12.jpg,AMNE11.jpg,AMSA10.jpg,AMNE11.jpg,MN,1,num_2,32,num_6,0.800007313024,,,2017_May_04_1939,60.0131853396,MAFE4ImagesEEG,001,200028,
AFNE01.JPG,AFNE01.JPG,AFNE01.JPG,AFNE01.JPG,AFNE01.JPG,AFNE01.JPG,3,4,34,5,,,,,,,,,,,,,,,,,,,,,,,AMNE04.jpg,AMNE13.jpg,AMSA19.jpg,AMSA12.jpg,AMSA19.jpg,MS,2,num_2,16,num_2,0.8001927,,,2017_May_04_1939,60.0131853396,MAFE4ImagesEEG,001,200028,
AFNE01.JPG,AFNE01.JPG,AFNE01.JPG,AFNE01.JPG,AFNE01.JPG,AFNE01.JPG,3,5,35,2,,,,,,,,,,,,,,,,,,,,,,,AMNE04.jpg,AMNE05.jpg,AMSA15.jpg,AMSA18.jpg,AMNE04.jpg,MN,1,num_8,16,num_8,0.800093271071,,,2017_May_04_1939,60.0131853396,MAFE4ImagesEEG,001,200028,
AFNE01.JPG,AFNE01.JPG,AFNE01.JPG,AFNE01.JPG,AFNE01.JPG,AFNE01.JPG,3,6,36,8,,,,,,,,,,,,,,,,,,,,,,,AMNE12.jpg,AMSA09.jpg,AMSA10.jpg,AMNE02.jpg,AMNE12.jpg,MN,1,num_8,16,num_8,0.650115995202,,,2017_May_04_1939,60.0131853396,MAFE4ImagesEEG,001,200028,
AFNE01.JPG,AFNE01.JPG,AFNE01.JPG,AFNE01.JPG,AFNE01.JPG,AFNE01.JPG,3,7,37,4,,,,,,,,,,,,,,,,,,,,,,,AMNE09.jpg,AMNE12.jpg,AMSA05.jpg,AMSA16.jpg,AMSA05.jpg,MS,2,num_2,16,num_2,0.700111841783,,,2017_May_04_1939,60.0131853396,MAFE4ImagesEEG,001,200028,
AFNE01.JPG,AFNE01.JPG,AFNE01.JPG,AFNE01.JPG,AFNE01.JPG,AFNE01.JPG,3,8,38,9,,,,,,,,,,,,,,,,,,,,,,,AMNE02.jpg,AMNE04.jpg,AMSA11.jpg,AMSA09.jpg,AMNE02.jpg,MN,1,num_8,32,num_6,0.733749353094,,,2017_May_04_1939,60.0131853396,MAFE4ImagesEEG,001,200028,
AFNE01.JPG,AFNE01.JPG,AFNE01.JPG,AFNE01.JPG,AFNE01.JPG,AFNE01.JPG,3,9,39,0,,,,,,,,,,,,,,,,,,,,,,,AMNE07.jpg,AMNE18.jpg,AMSA09.jpg,AMSA05.jpg,AMSA09.jpg,MS,2,num_2,32,num_4,0.566829035291,,,2017_May_04_1939,60.0131853396,MAFE4ImagesEEG,001,200028,
AFNE01.JPG,AFNE01.JPG,AFNE01.JPG,AFNE01.JPG,AFNE01.JPG,AFNE01.JPG,4,0,40,7,,,,,,,,,,,,,,,,,,,,,,,AMNE01.jpg,AMSA08.jpg,AMNE17.jpg,AMSA15.jpg,AMNE17.jpg,MN,1,num_2,32,num_8,0.866736438125,,,2017_May_04_1939,60.0131853396,MAFE4ImagesEEG,001,200028,
AFNE01.JPG,AFNE01.JPG,AFNE01.JPG,AFNE01.JPG,AFNE01.JPG,AFNE01.JPG,4,1,41,9,,,,,,,,,,,,,,,,,,,,,,,AMSA07.jpg,AMNE01.jpg,AMSA18.jpg,AMNE09.jpg,AMNE01.jpg,MN,1,num_6,16,num_6,1.05010201107,,,2017_May_04_1939,60.0131853396,MAFE4ImagesEEG,001,200028,
AFNE01.JPG,AFNE01.JPG,AFNE01.JPG,AFNE01.JPG,AFNE01.JPG,AFNE01.JPG,4,2,42,3,,,,,,,,,,,,,,,,,,,,,,,AMSA17.jpg,AMNE17.jpg,AMNE18.jpg,AMSA08.jpg,AMSA17.jpg,MS,2,num_8,16,num_8,0.766763668973,,,2017_May_04_1939,60.0131853396,MAFE4ImagesEEG,001,200028,
AFNE01.JPG,AFNE01.JPG,AFNE01.JPG,AFNE01.JPG,AFNE01.JPG,AFNE01.JPG,4,3,43,4,,,,,,,,,,,,,,,,,,,,,,,AMNE18.jpg,AMSA12.jpg,AMSA13.jpg,AMNE15.jpg,AMSA13.jpg,MS,2,num_2,32,num_6,0.566944180755,,,2017_May_04_1939,60.0131853396,MAFE4ImagesEEG,001,200028,
AFNE01.JPG,AFNE01.JPG,AFNE01.JPG,AFNE01.JPG,AFNE01.JPG,AFNE01.JPG,4,4,44,0,,,,,,,,,,,,,,,,,,,,,,,AMNE02.jpg,AMNE06.jpg,AMSA01.jpg,AMSA17.jpg,AMSA01.jpg,MS,2,num_2,16,num_2,0.433499080595,,,2017_May_04_1939,60.0131853396,MAFE4ImagesEEG,001,200028,
AFNE01.JPG,AFNE01.JPG,AFNE01.JPG,AFNE01.JPG,AFNE01.JPG,AFNE01.JPG,4,5,45,5,,,,,,,,,,,,,,,,,,,,,,,AMSA15.jpg,AMNE19.jpg,AMNE01.jpg,AMSA19.jpg,AMSA15.jpg,MS,2,num_8,16,num_8,0.4501207422,,,2017_May_04_1939,60.0131853396,MAFE4ImagesEEG,001,200028,
AFNE01.JPG,AFNE01.JPG,AFNE01.JPG,AFNE01.JPG,AFNE01.JPG,AFNE01.JPG,4,6,46,1,,,,,,,,,,,,,,,,,,,,,,,AMSA14.jpg,AMSA06.jpg,AMNE07.jpg,AMNE20.jpg,AMNE07.jpg,MN,1,num_2,16,num_2,1.11679200619,,,2017_May_04_1939,60.0131853396,MAFE4ImagesEEG,001,200028,
AFNE01.JPG,AFNE01.JPG,AFNE01.JPG,AFNE01.JPG,AFNE01.JPG,AFNE01.JPG,4,7,47,8,,,,,,,,,,,,,,,,,,,,,,,AMSA03.jpg,AMNE10.jpg,AMSA13.jpg,AMNE04.jpg,AMSA13.jpg,MS,2,num_2,16,num_2,1.10009689513,,,2017_May_04_1939,60.0131853396,MAFE4ImagesEEG,001,200028,
AFNE01.JPG,AFNE01.JPG,AFNE01.JPG,AFNE01.JPG,AFNE01.JPG,AFNE01.JPG,4,8,48,6,,,,,,,,,,,,,,,,,,,,,,,AMSA06.jpg,AMSA20.jpg,AMNE09.jpg,AMNE02.jpg,AMNE02.jpg,MN,1,num_4,16,num_4,0.733463574899,,,2017_May_04_1939,60.0131853396,MAFE4ImagesEEG,001,200028,
AFNE01.JPG,AFNE01.JPG,AFNE01.JPG,AFNE01.JPG,AFNE01.JPG,AFNE01.JPG,4,9,49,2,,,,,,,,,,,,,,,,,,,,,,,AMSA12.jpg,AMSA05.jpg,AMNE05.jpg,AMNE08.jpg,AMSA12.jpg,MS,2,num_8,32,num_2,1.21675707772,,,2017_May_04_1939,60.0131853396,MAFE4ImagesEEG,001,200028,
AFNE01.JPG,AFNE01.JPG,AFNE01.JPG,AFNE01.JPG,AFNE01.JPG,AFNE01.JPG,5,0,50,4,,,,,,,,,,,,,,,,,,,,,,,AMNE18.jpg,AMNE10.jpg,AMSA20.jpg,AMSA07.jpg,AMSA07.jpg,MS,2,num_4,16,num_4,0.800151645439,,,2017_May_04_1939,60.0131853396,MAFE4ImagesEEG,001,200028,
AFNE01.JPG,AFNE01.JPG,AFNE01.JPG,AFNE01.JPG,AFNE01.JPG,AFNE01.JPG,5,1,51,6,,,,,,,,,,,,,,,,,,,,,,,AMNE09.jpg,AMNE19.jpg,AMSA14.jpg,AMSA03.jpg,AMSA03.jpg,MS,2,num_4,16,num_4,0.666784484871,,,2017_May_04_1939,60.0131853396,MAFE4ImagesEEG,001,200028,
AFNE01.JPG,AFNE01.JPG,AFNE01.JPG,AFNE01.JPG,AFNE01.JPG,AFNE01.JPG,5,2,52,3,,,,,,,,,,,,,,,,,,,,,,,AMNE10.jpg,AMSA10.jpg,AMNE13.jpg,AMSA16.jpg,AMNE13.jpg,MN,1,num_2,32,num_8,0.850148133468,,,2017_May_04_1939,60.0131853396,MAFE4ImagesEEG,001,200028,
AFNE01.JPG,AFNE01.JPG,AFNE01.JPG,AFNE01.JPG,AFNE01.JPG,AFNE01.JPG,5,3,53,0,,,,,,,,,,,,,,,,,,,,,,,AMNE07.jpg,AMNE13.jpg,AMSA07.jpg,AMSA15.jpg,AMSA07.jpg,MS,2,num_2,32,num_4,0.783624280943,,,2017_May_04_1939,60.0131853396,MAFE4ImagesEEG,001,200028,
AFNE01.JPG,AFNE01.JPG,AFNE01.JPG,AFNE01.JPG,AFNE01.JPG,AFNE01.JPG,5,4,54,1,,,,,,,,,,,,,,,,,,,,,,,AMSA04.jpg,AMNE14.jpg,AMNE18.jpg,AMSA06.jpg,AMNE18.jpg,MN,1,num_2,32,num_6,0.816769458121,,,2017_May_04_1939,60.0131853396,MAFE4ImagesEEG,001,200028,
AFNE01.JPG,AFNE01.JPG,AFNE01.JPG,AFNE01.JPG,AFNE01.JPG,AFNE01.JPG,5,5,55,7,,,,,,,,,,,,,,,,,,,,,,,AMNE05.jpg,AMNE15.jpg,AMSA06.jpg,AMSA20.jpg,AMNE15.jpg,MN,1,num_6,16,num_6,0.916770452634,,,2017_May_04_1939,60.0131853396,MAFE4ImagesEEG,001,200028,
AFNE01.JPG,AFNE01.JPG,AFNE01.JPG,AFNE01.JPG,AFNE01.JPG,AFNE01.JPG,5,6,56,2,,,,,,,,,,,,,,,,,,,,,,,AMNE01.jpg,AMSA07.jpg,AMNE06.jpg,AMSA10.jpg,AMSA10.jpg,MS,2,num_4,32,num_6,0.816952279536,,,2017_May_04_1939,60.0131853396,MAFE4ImagesEEG,001,200028,
AFNE01.JPG,AFNE01.JPG,AFNE01.JPG,AFNE01.JPG,AFNE01.JPG,AFNE01.JPG,5,7,57,9,,,,,,,,,,,,,,,,,,,,,,,AMSA04.jpg,AMNE05.jpg,AMNE20.jpg,AMSA18.jpg,AMSA18.jpg,MS,2,num_4,16,num_4,0.58342920756,,,2017_May_04_1939,60.0131853396,MAFE4ImagesEEG,001,200028,
AFNE01.JPG,AFNE01.JPG,AFNE01.JPG,AFNE01.JPG,AFNE01.JPG,AFNE01.JPG,5,8,58,5,,,,,,,,,,,,,,,,,,,,,,,AMNE04.jpg,AMNE15.jpg,AMSA05.jpg,AMSA15.jpg,AMNE15.jpg,MN,1,num_6,16,num_6,1.10013185581,,,2017_May_04_1939,60.0131853396,MAFE4ImagesEEG,001,200028,
AFNE01.JPG,AFNE01.JPG,AFNE01.JPG,AFNE01.JPG,AFNE01.JPG,AFNE01.JPG,5,9,59,8,,,,,,,,,,,,,,,,,,,,,,,AMSA06.jpg,AMSA09.jpg,AMNE13.jpg,AMNE12.jpg,AMNE12.jpg,MN,1,num_4,32,num_8,0.833448532037,,,2017_May_04_1939,60.0131853396,MAFE4ImagesEEG,001,200028,
,,,,,,,,,,,,,,,,,,,,,,,,,,,,,,,,,,,,,,,,,,,space,9.44971051696,2017_May_04_1939,60.0131853396,MAFE4ImagesEEG,001,200028,
AFNE01.JPG,AFNE01.JPG,AFNE01.JPG,AFNE01.JPG,AFNE01.JPG,AFNE01.JPG,,,,,0,0,0,9,,,,,,,,,,,,,,,,,,,AFSA05.jpg,AFNE17.jpg,AFSA20.jpg,AFNE04.jpg,AFSA20.jpg,FS,4,num_2,16,num_2,0.516770003596,,,2017_May_04_1939,60.0131853396,MAFE4ImagesEEG,001,200028,
AFNE01.JPG,AFNE01.JPG,AFNE01.JPG,AFNE01.JPG,AFNE01.JPG,AFNE01.JPG,,,,,0,1,1,3,,,,,,,,,,,,,,,,,,,AFNE18.jpg,AFSA14.jpg,AFSA19.jpg,AFNE11.jpg,AFNE18.jpg,FN,3,num_8,32,num_4,1.08345534769,,,2017_May_04_1939,60.0131853396,MAFE4ImagesEEG,001,200028,
AFNE01.JPG,AFNE01.JPG,AFNE01.JPG,AFNE01.JPG,AFNE01.JPG,AFNE01.JPG,,,,,0,2,2,8,,,,,,,,,,,,,,,,,,,AFSA19.jpg,AFNE18.jpg,AFNE13.jpg,AFSA08.jpg,AFSA08.jpg,FS,4,num_4,16,num_4,0.950094922679,,,2017_May_04_1939,60.0131853396,MAFE4ImagesEEG,001,200028,
AFNE01.JPG,AFNE01.JPG,AFNE01.JPG,AFNE01.JPG,AFNE01.JPG,AFNE01.JPG,,,,,0,3,3,0,,,,,,,,,,,,,,,,,,,AFNE08.jpg,AFSA01.jpg,AFSA10.jpg,AFNE18.jpg,AFNE18.jpg,FN,3,num_4,32,num_8,0.733482177835,,,2017_May_04_1939,60.0131853396,MAFE4ImagesEEG,001,200028,
AFNE01.JPG,AFNE01.JPG,AFNE01.JPG,AFNE01.JPG,AFNE01.JPG,AFNE01.JPG,,,,,0,4,4,1,,,,,,,,,,,,,,,,,,,AFSA16.jpg,AFSA11.jpg,AFNE07.jpg,AFNE18.jpg,AFSA11.jpg,FS,4,num_6,16,num_6,0.700016582385,,,2017_May_04_1939,60.0131853396,MAFE4ImagesEEG,001,200028,
AFNE01.JPG,AFNE01.JPG,AFNE01.JPG,AFNE01.JPG,AFNE01.JPG,AFNE01.JPG,,,,,0,5,5,6,,,,,,,,,,,,,,,,,,,AFSA09.jpg,AFNE01.jpg,AFSA11.jpg,AFNE03.jpg,AFNE01.jpg,FN,3,num_6,32,num_4,0.733493082924,,,2017_May_04_1939,60.0131853396,MAFE4ImagesEEG,001,200028,
AFNE01.JPG,AFNE01.JPG,AFNE01.JPG,AFNE01.JPG,AFNE01.JPG,AFNE01.JPG,,,,,0,6,6,2,,,,,,,,,,,,,,,,,,,AFNE12.jpg,AFSA13.jpg,AFSA03.jpg,AFNE19.jpg,AFSA03.jpg,FS,4,num_2,16,num_2,1.16675481643,,,2017_May_04_1939,60.0131853396,MAFE4ImagesEEG,001,200028,
AFNE01.JPG,AFNE01.JPG,AFNE01.JPG,AFNE01.JPG,AFNE01.JPG,AFNE01.JPG,,,,,0,7,7,4,,,,,,,,,,,,,,,,,,,AFNE08.jpg,AFNE17.jpg,AFSA17.jpg,AFSA09.jpg,AFSA17.jpg,FS,4,num_2,16,num_2,1.00011482462,,,2017_May_04_1939,60.0131853396,MAFE4ImagesEEG,001,200028,
AFNE01.JPG,AFNE01.JPG,AFNE01.JPG,AFNE01.JPG,AFNE01.JPG,AFNE01.JPG,,,,,0,8,8,7,,,,,,,,,,,,,,,,,,,AFSA11.jpg,AFSA04.jpg,AFNE19.jpg,AFNE12.jpg,AFSA04.jpg,FS,4,num_6,32,num_4,0.783498230856,,,2017_May_04_1939,60.0131853396,MAFE4ImagesEEG,001,200028,
AFNE01.JPG,AFNE01.JPG,AFNE01.JPG,AFNE01.JPG,AFNE01.JPG,AFNE01.JPG,,,,,0,9,9,5,,,,,,,,,,,,,,,,,,,AFNE01.jpg,AFNE20.jpg,AFSA11.jpg,AFSA18.jpg,AFSA11.jpg,FS,4,num_2,32,num_4,0.733450745232,,,2017_May_04_1939,60.0131853396,MAFE4ImagesEEG,001,200028,
AFNE01.JPG,AFNE01.JPG,AFNE01.JPG,AFNE01.JPG,AFNE01.JPG,AFNE01.JPG,,,,,1,0,10,9,,,,,,,,,,,,,,,,,,,AFSA12.jpg,AFNE18.jpg,AFSA10.jpg,AFNE04.jpg,AFSA12.jpg,FS,4,num_8,16,num_8,0.750147138955,,,2017_May_04_1939,60.0131853396,MAFE4ImagesEEG,001,200028,
AFNE01.JPG,AFNE01.JPG,AFNE01.JPG,AFNE01.JPG,AFNE01.JPG,AFNE01.JPG,,,,,1,1,11,2,,,,,,,,,,,,,,,,,,,AFSA12.jpg,AFNE04.jpg,AFSA18.jpg,AFNE15.jpg,AFNE15.jpg,FN,3,num_4,16,num_4,0.616801788798,,,2017_May_04_1939,60.0131853396,MAFE4ImagesEEG,001,200028,
AFNE01.JPG,AFNE01.JPG,AFNE01.JPG,AFNE01.JPG,AFNE01.JPG,AFNE01.JPG,,,,,1,2,12,7,,,,,,,,,,,,,,,,,,,AFSA01.jpg,AFNE05.jpg,AFSA11.jpg,AFNE03.jpg,AFNE05.jpg,FN,3,num_6,16,num_6,0.733633566415,,,2017_May_04_1939,60.0131853396,MAFE4ImagesEEG,001,200028,
AFNE01.JPG,AFNE01.JPG,AFNE01.JPG,AFNE01.JPG,AFNE01.JPG,AFNE01.JPG,,,,,1,3,13,1,,,,,,,,,,,,,,,,,,,AFNE07.jpg,AFNE18.jpg,AFSA10.jpg,AFSA13.jpg,AFSA13.jpg,FS,4,num_4,16,num_4,0.816768495832,,,2017_May_04_1939,60.0131853396,MAFE4ImagesEEG,001,200028,
AFNE01.JPG,AFNE01.JPG,AFNE01.JPG,AFNE01.JPG,AFNE01.JPG,AFNE01.JPG,,,,,1,4,14,0,,,,,,,,,,,,,,,,,,,AFSA07.jpg,AFNE15.jpg,AFSA05.jpg,AFNE16.jpg,AFSA05.jpg,FS,4,num_2,32,num_4,0.733494365821,,,2017_May_04_1939,60.0131853396,MAFE4ImagesEEG,001,200028,
AFNE01.JPG,AFNE01.JPG,AFNE01.JPG,AFNE01.JPG,AFNE01.JPG,AFNE01.JPG,,,,,1,5,15,8,,,,,,,,,,,,,,,,,,,AFSA17.jpg,AFNE17.jpg,AFNE20.jpg,AFSA02.jpg,AFNE17.jpg,FN,3,num_6,16,num_6,0.733583210502,,,2017_May_04_1939,60.0131853396,MAFE4ImagesEEG,001,200028,
AFNE01.JPG,AFNE01.JPG,AFNE01.JPG,AFNE01.JPG,AFNE01.JPG,AFNE01.JPG,,,,,1,6,16,3,,,,,,,,,,,,,,,,,,,AFSA19.jpg,AFSA20.jpg,AFNE12.jpg,AFNE11.jpg,AFSA20.jpg,FS,4,num_6,32,num_2,0.716737352079,,,2017_May_04_1939,60.0131853396,MAFE4ImagesEEG,001,200028,
AFNE01.JPG,AFNE01.JPG,AFNE01.JPG,AFNE01.JPG,AFNE01.JPG,AFNE01.JPG,,,,,1,7,17,4,,,,,,,,,,,,,,,,,,,AFNE13.jpg,AFSA15.jpg,AFNE03.jpg,AFSA10.jpg,AFSA10.jpg,FS,4,num_4,32,num_6,0.650135239586,,,2017_May_04_1939,60.0131853396,MAFE4ImagesEEG,001,200028,
AFNE01.JPG,AFNE01.JPG,AFNE01.JPG,AFNE01.JPG,AFNE01.JPG,AFNE01.JPG,,,,,1,8,18,5,,,,,,,,,,,,,,,,,,,AFSA12.jpg,AFNE15.jpg,AFSA08.jpg,AFNE18.jpg,AFSA08.jpg,FS,4,num_2,16,num_2,0.866740928264,,,2017_May_04_1939,60.0131853396,MAFE4ImagesEEG,001,200028,
AFNE01.JPG,AFNE01.JPG,AFNE01.JPG,AFNE01.JPG,AFNE01.JPG,AFNE01.JPG,,,,,1,9,19,6,,,,,,,,,,,,,,,,,,,AFSA08.jpg,AFNE04.jpg,AFNE05.jpg,AFSA14.jpg,AFNE05.jpg,FN,3,num_2,32,num_4,0.6501329944,,,2017_May_04_1939,60.0131853396,MAFE4ImagesEEG,001,200028,
AFNE01.JPG,AFNE01.JPG,AFNE01.JPG,AFNE01.JPG,AFNE01.JPG,AFNE01.JPG,,,,,2,0,20,9,,,,,,,,,,,,,,,,,,,AFSA08.jpg,AFSA20.jpg,AFNE09.jpg,AFNE16.jpg,AFSA20.jpg,FS,4,num_6,16,num_6,0.516773210838,,,2017_May_04_1939,60.0131853396,MAFE4ImagesEEG,001,200028,
AFNE01.JPG,AFNE01.JPG,AFNE01.JPG,AFNE01.JPG,AFNE01.JPG,AFNE01.JPG,,,,,2,1,21,5,,,,,,,,,,,,,,,,,,,AFNE09.jpg,AFSA02.jpg,AFSA07.jpg,AFNE13.jpg,AFSA02.jpg,FS,4,num_6,32,num_4,0.933440224966,,,2017_May_04_1939,60.0131853396,MAFE4ImagesEEG,001,200028,
AFNE01.JPG,AFNE01.JPG,AFNE01.JPG,AFNE01.JPG,AFNE01.JPG,AFNE01.JPG,,,,,2,2,22,1,,,,,,,,,,,,,,,,,,,AFSA18.jpg,AFSA06.jpg,AFNE07.jpg,AFNE17.jpg,AFSA18.jpg,FS,4,num_8,16,num_8,0.733744862955,,,2017_May_04_1939,60.0131853396,MAFE4ImagesEEG,001,200028,
AFNE01.JPG,AFNE01.JPG,AFNE01.JPG,AFNE01.JPG,AFNE01.JPG,AFNE01.JPG,,,,,2,3,23,6,,,,,,,,,,,,,,,,,,,AFSA04.jpg,AFNE01.jpg,AFNE06.jpg,AFSA18.jpg,AFSA04.jpg,FS,4,num_8,16,num_8,0.433619357878,,,2017_May_04_1939,60.0131853396,MAFE4ImagesEEG,001,200028,
AFNE01.JPG,AFNE01.JPG,AFNE01.JPG,AFNE01.JPG,AFNE01.JPG,AFNE01.JPG,,,,,2,4,24,4,,,,,,,,,,,,,,,,,,,AFSA04.jpg,AFNE14.jpg,AFNE01.jpg,AFSA17.jpg,AFNE14.jpg,FN,3,num_6,16,num_6,0.650117278332,,,2017_May_04_1939,60.0131853396,MAFE4ImagesEEG,001,200028,
AFNE01.JPG,AFNE01.JPG,AFNE01.JPG,AFNE01.JPG,AFNE01.JPG,AFNE01.JPG,,,,,2,5,25,7,,,,,,,,,,,,,,,,,,,AFNE03.jpg,AFSA10.jpg,AFSA20.jpg,AFNE16.jpg,AFNE03.jpg,FN,3,num_8,32,num_4,0.799958560383,,,2017_May_04_1939,60.0131853396,MAFE4ImagesEEG,001,200028,
AFNE01.JPG,AFNE01.JPG,AFNE01.JPG,AFNE01.JPG,AFNE01.JPG,AFNE01.JPG,,,,,2,6,26,0,,,,,,,,,,,,,,,,,,,AFNE06.jpg,AFSA03.jpg,AFSA15.jpg,AFNE09.jpg,AFNE09.jpg,FN,3,num_4,32,num_8,0.783472250681,,,2017_May_04_1939,60.0131853396,MAFE4ImagesEEG,001,200028,
AFNE01.JPG,AFNE01.JPG,AFNE01.JPG,AFNE01.JPG,AFNE01.JPG,AFNE01.JPG,,,,,2,7,27,2,,,,,,,,,,,,,,,,,,,AFNE17.jpg,AFSA02.jpg,AFSA16.jpg,AFNE18.jpg,AFNE17.jpg,FN,3,num_8,16,num_8,0.366786633851,,,2017_May_04_1939,60.0131853396,MAFE4ImagesEEG,001,200028,
AFNE01.JPG,AFNE01.JPG,AFNE01.JPG,AFNE01.JPG,AFNE01.JPG,AFNE01.JPG,,,,,2,8,28,3,,,,,,,,,,,,,,,,,,,AFSA18.jpg,AFSA02.jpg,AFNE17.jpg,AFNE18.jpg,AFSA18.jpg,FS,4,num_8,32,num_6,0.716891948367,,,2017_May_04_1939,60.0131853396,MAFE4ImagesEEG,001,200028,
AFNE01.JPG,AFNE01.JPG,AFNE01.JPG,AFNE01.JPG,AFNE01.JPG,AFNE01.JPG,,,,,2,9,29,8,,,,,,,,,,,,,,,,,,,AFSA11.jpg,AFNE13.jpg,AFSA16.jpg,AFNE16.jpg,AFSA16.jpg,FS,4,num_2,32,num_4,1.00010937196,,,2017_May_04_1939,60.0131853396,MAFE4ImagesEEG,001,200028,
AFNE01.JPG,AFNE01.JPG,AFNE01.JPG,AFNE01.JPG,AFNE01.JPG,AFNE01.JPG,,,,,3,0,30,4,,,,,,,,,,,,,,,,,,,AFNE19.jpg,AFSA15.jpg,AFNE18.jpg,AFSA08.jpg,AFSA08.jpg,FS,4,num_4,16,num_4,0.733492120635,,,2017_May_04_1939,60.0131853396,MAFE4ImagesEEG,001,200028,
AFNE01.JPG,AFNE01.JPG,AFNE01.JPG,AFNE01.JPG,AFNE01.JPG,AFNE01.JPG,,,,,3,1,31,6,,,,,,,,,,,,,,,,,,,AFNE05.jpg,AFSA09.jpg,AFSA08.jpg,AFNE19.jpg,AFSA09.jpg,FS,4,num_6,16,num_6,0.600013022078,,,2017_May_04_1939,60.0131853396,MAFE4ImagesEEG,001,200028,
AFNE01.JPG,AFNE01.JPG,AFNE01.JPG,AFNE01.JPG,AFNE01.JPG,AFNE01.JPG,,,,,3,2,32,0,,,,,,,,,,,,,,,,,,,AFNE13.jpg,AFNE03.jpg,AFSA03.jpg,AFSA16.jpg,AFSA03.jpg,FS,4,num_2,32,num_4,0.516818755772,,,2017_May_04_1939,60.0131853396,MAFE4ImagesEEG,001,200028,
AFNE01.JPG,AFNE01.JPG,AFNE01.JPG,AFNE01.JPG,AFNE01.JPG,AFNE01.JPG,,,,,3,3,33,3,,,,,,,,,,,,,,,,,,,AFSA11.jpg,AFNE20.jpg,AFSA12.jpg,AFNE01.jpg,AFNE01.jpg,FN,3,num_4,32,num_2,0.716759162489,,,2017_May_04_1939,60.0131853396,MAFE4ImagesEEG,001,200028,
AFNE01.JPG,AFNE01.JPG,AFNE01.JPG,AFNE01.JPG,AFNE01.JPG,AFNE01.JPG,,,,,3,4,34,9,,,,,,,,,,,,,,,,,,,AFSA06.jpg,AFNE15.jpg,AFSA12.jpg,AFNE12.jpg,AFNE15.jpg,FN,3,num_6,16,num_6,0.716778086033,,,2017_May_04_1939,60.0131853396,MAFE4ImagesEEG,001,200028,
AFNE01.JPG,AFNE01.JPG,AFNE01.JPG,AFNE01.JPG,AFNE01.JPG,AFNE01.JPG,,,,,3,5,35,2,,,,,,,,,,,,,,,,,,,AFNE15.jpg,AFSA14.jpg,AFNE14.jpg,AFSA19.jpg,AFNE15.jpg,FN,3,num_8,32,num_4,0.850128888851,,,2017_May_04_1939,60.0131853396,MAFE4ImagesEEG,001,200028,
AFNE01.JPG,AFNE01.JPG,AFNE01.JPG,AFNE01.JPG,AFNE01.JPG,AFNE01.JPG,,,,,3,6,36,8,,,,,,,,,,,,,,,,,,,AFNE02.jpg,AFNE18.jpg,AFSA17.jpg,AFSA10.jpg,AFNE02.jpg,FN,3,num_8,16,num_8,0.600197126158,,,2017_May_04_1939,60.0131853396,MAFE4ImagesEEG,001,200028,
AFNE01.JPG,AFNE01.JPG,AFNE01.JPG,AFNE01.JPG,AFNE01.JPG,AFNE01.JPG,,,,,3,7,37,7,,,,,,,,,,,,,,,,,,,AFSA17.jpg,AFSA13.jpg,AFNE04.jpg,AFNE15.jpg,AFNE04.jpg,FN,3,num_2,32,num_4,0.533467038767,,,2017_May_04_1939,60.0131853396,MAFE4ImagesEEG,001,200028,
AFNE01.JPG,AFNE01.JPG,AFNE01.JPG,AFNE01.JPG,AFNE01.JPG,AFNE01.JPG,,,,,3,8,38,1,,,,,,,,,,,,,,,,,,,AFNE19.jpg,AFSA16.jpg,AFSA18.jpg,AFNE14.jpg,AFSA18.jpg,FS,4,num_2,16,num_2,1.03334435588,,,2017_May_04_1939,60.0131853396,MAFE4ImagesEEG,001,200028,
AFNE01.JPG,AFNE01.JPG,AFNE01.JPG,AFNE01.JPG,AFNE01.JPG,AFNE01.JPG,,,,,3,9,39,5,,,,,,,,,,,,,,,,,,,AFNE02.jpg,AFSA02.jpg,AFSA16.jpg,AFNE05.jpg,AFSA02.jpg,FS,4,num_6,32,num_8,0.766767838504,,,2017_May_04_1939,60.0131853396,MAFE4ImagesEEG,001,200028,
AFNE01.JPG,AFNE01.JPG,AFNE01.JPG,AFNE01.JPG,AFNE01.JPG,AFNE01.JPG,,,,,4,0,40,2,,,,,,,,,,,,,,,,,,,AFNE14.jpg,AFSA13.jpg,AFNE15.jpg,AFSA04.jpg,AFNE15.jpg,FN,3,num_2,16,num_2,0.883453038521,,,2017_May_04_1939,60.0131853396,MAFE4ImagesEEG,001,200028,
AFNE01.JPG,AFNE01.JPG,AFNE01.JPG,AFNE01.JPG,AFNE01.JPG,AFNE01.JPG,,,,,4,1,41,3,,,,,,,,,,,,,,,,,,,AFNE06.jpg,AFSA15.jpg,AFSA16.jpg,AFNE11.jpg,AFNE06.jpg,FN,3,num_8,16,num_8,0.700105747674,,,2017_May_04_1939,60.0131853396,MAFE4ImagesEEG,001,200028,
AFNE01.JPG,AFNE01.JPG,AFNE01.JPG,AFNE01.JPG,AFNE01.JPG,AFNE01.JPG,,,,,4,2,42,5,,,,,,,,,,,,,,,,,,,AFNE16.jpg,AFSA01.jpg,AFNE05.jpg,AFSA15.jpg,AFNE16.jpg,FN,3,num_8,32,num_2,0.850100984797,,,2017_May_04_1939,60.0131853396,MAFE4ImagesEEG,001,200028,
AFNE01.JPG,AFNE01.JPG,AFNE01.JPG,AFNE01.JPG,AFNE01.JPG,AFNE01.JPG,,,,,4,3,43,1,,,,,,,,,,,,,,,,,,,AFNE09.jpg,AFSA18.jpg,AFSA01.jpg,AFNE20.jpg,AFSA01.jpg,FS,4,num_2,16,num_2,0.700178555446,,,2017_May_04_1939,60.0131853396,MAFE4ImagesEEG,001,200028,
AFNE01.JPG,AFNE01.JPG,AFNE01.JPG,AFNE01.JPG,AFNE01.JPG,AFNE01.JPG,,,,,4,4,44,6,,,,,,,,,,,,,,,,,,,AFNE08.jpg,AFNE20.jpg,AFSA04.jpg,AFSA05.jpg,AFSA05.jpg,FS,4,num_4,16,num_4,0.96676212945,,,2017_May_04_1939,60.0131853396,MAFE4ImagesEEG,001,200028,
AFNE01.JPG,AFNE01.JPG,AFNE01.JPG,AFNE01.JPG,AFNE01.JPG,AFNE01.JPG,,,,,4,5,45,0,,,,,,,,,,,,,,,,,,,AFSA13.jpg,AFNE17.jpg,AFSA04.jpg,AFNE08.jpg,AFNE08.jpg,FN,3,num_4,32,num_2,0.800159343285,,,2017_May_04_1939,60.0131853396,MAFE4ImagesEEG,001,200028,
AFNE01.JPG,AFNE01.JPG,AFNE01.JPG,AFNE01.JPG,AFNE01.JPG,AFNE01.JPG,,,,,4,6,46,4,,,,,,,,,,,,,,,,,,,AFSA06.jpg,AFNE02.jpg,AFNE17.jpg,AFSA13.jpg,AFNE17.jpg,FN,3,num_2,32,num_6,0.716768784681,,,2017_May_04_1939,60.0131853396,MAFE4ImagesEEG,001,200028,
AFNE01.JPG,AFNE01.JPG,AFNE01.JPG,AFNE01.JPG,AFNE01.JPG,AFNE01.JPG,,,,,4,7,47,7,,,,,,,,,,,,,,,,,,,AFNE11.jpg,AFSA16.jpg,AFNE17.jpg,AFSA06.jpg,AFSA16.jpg,FS,4,num_6,16,num_6,0.966766619589,,,2017_May_04_1939,60.0131853396,MAFE4ImagesEEG,001,200028,
AFNE01.JPG,AFNE01.JPG,AFNE01.JPG,AFNE01.JPG,AFNE01.JPG,AFNE01.JPG,,,,,4,8,48,9,,,,,,,,,,,,,,,,,,,AFNE20.jpg,AFNE16.jpg,AFSA19.jpg,AFSA05.jpg,AFNE16.jpg,FN,3,num_6,32,num_8,0.800155815203,,,2017_May_04_1939,60.0131853396,MAFE4ImagesEEG,001,200028,
AFNE01.JPG,AFNE01.JPG,AFNE01.JPG,AFNE01.JPG,AFNE01.JPG,AFNE01.JPG,,,,,4,9,49,8,,,,,,,,,,,,,,,,,,,AFSA14.jpg,AFNE04.jpg,AFNE10.jpg,AFSA03.jpg,AFNE10.jpg,FN,3,num_2,32,num_6,0.683484085836,,,2017_May_04_1939,60.0131853396,MAFE4ImagesEEG,001,200028,
AFNE01.JPG,AFNE01.JPG,AFNE01.JPG,AFNE01.JPG,AFNE01.JPG,AFNE01.JPG,,,,,5,0,50,6,,,,,,,,,,,,,,,,,,,AFSA18.jpg,AFSA20.jpg,AFNE18.jpg,AFNE01.jpg,AFNE18.jpg,FN,3,num_2,32,num_8,0.566798244603,,,2017_May_04_1939,60.0131853396,MAFE4ImagesEEG,001,200028,
AFNE01.JPG,AFNE01.JPG,AFNE01.JPG,AFNE01.JPG,AFNE01.JPG,AFNE01.JPG,,,,,5,1,51,2,,,,,,,,,,,,,,,,,,,AFNE15.jpg,AFSA15.jpg,AFNE07.jpg,AFSA03.jpg,AFSA03.jpg,FS,4,num_4,16,num_4,1.00011739042,,,2017_May_04_1939,60.0131853396,MAFE4ImagesEEG,001,200028,
AFNE01.JPG,AFNE01.JPG,AFNE01.JPG,AFNE01.JPG,AFNE01.JPG,AFNE01.JPG,,,,,5,2,52,8,,,,,,,,,,,,,,,,,,,AFNE11.jpg,AFSA20.jpg,AFSA06.jpg,AFNE16.jpg,AFNE16.jpg,FN,3,num_4,32,num_2,0.683487614151,,,2017_May_04_1939,60.0131853396,MAFE4ImagesEEG,001,200028,
AFNE01.JPG,AFNE01.JPG,AFNE01.JPG,AFNE01.JPG,AFNE01.JPG,AFNE01.JPG,,,,,5,3,53,7,,,,,,,,,,,,,,,,,,,AFNE12.jpg,AFNE05.jpg,AFSA19.jpg,AFSA06.jpg,AFSA19.jpg,FS,4,num_2,32,num_6,0.916750887409,,,2017_May_04_1939,60.0131853396,MAFE4ImagesEEG,001,200028,
AFNE01.JPG,AFNE01.JPG,AFNE01.JPG,AFNE01.JPG,AFNE01.JPG,AFNE01.JPG,,,,,5,4,54,9,,,,,,,,,,,,,,,,,,,AFSA15.jpg,AFNE12.jpg,AFSA12.jpg,AFNE06.jpg,AFSA12.jpg,FS,4,num_2,16,num_2,0.600047020474,,,2017_May_04_1939,60.0131853396,MAFE4ImagesEEG,001,200028,
AFNE01.JPG,AFNE01.JPG,AFNE01.JPG,AFNE01.JPG,AFNE01.JPG,AFNE01.JPG,,,,,5,5,55,4,,,,,,,,,,,,,,,,,,,AFNE01.jpg,AFSA06.jpg,AFSA05.jpg,AFNE10.jpg,AFNE01.jpg,FN,3,num_8,32,num_4,0.916923445184,,,2017_May_04_1939,60.0131853396,MAFE4ImagesEEG,001,200028,
AFNE01.JPG,AFNE01.JPG,AFNE01.JPG,AFNE01.JPG,AFNE01.JPG,AFNE01.JPG,,,,,5,6,56,5,,,,,,,,,,,,,,,,,,,AFSA08.jpg,AFNE10.jpg,AFSA14.jpg,AFNE15.jpg,AFNE15.jpg,FN,3,num_4,32,num_6,0.600180768641,,,2017_May_04_1939,60.0131853396,MAFE4ImagesEEG,001,200028,
AFNE01.JPG,AFNE01.JPG,AFNE01.JPG,AFNE01.JPG,AFNE01.JPG,AFNE01.JPG,,,,,5,7,57,0,,,,,,,,,,,,,,,,,,,AFNE20.jpg,AFNE11.jpg,AFSA12.jpg,AFSA17.jpg,AFNE20.jpg,FN,3,num_8,32,num_2,0.683453295147,,,2017_May_04_1939,60.0131853396,MAFE4ImagesEEG,001,200028,
AFNE01.JPG,AFNE01.JPG,AFNE01.JPG,AFNE01.JPG,AFNE01.JPG,AFNE01.JPG,,,,,5,8,58,1,,,,,,,,,,,,,,,,,,,AFNE13.jpg,AFNE07.jpg,AFSA09.jpg,AFSA11.jpg,AFSA09.jpg,FS,4,num_2,32,num_4,1.00013984204,,,2017_May_04_1939,60.0131853396,MAFE4ImagesEEG,001,200028,
AFNE01.JPG,AFNE01.JPG,AFNE01.JPG,AFNE01.JPG,AFNE01.JPG,AFNE01.JPG,,,,,5,9,59,3,,,,,,,,,,,,,,,,,,,AFNE20.jpg,AFSA11.jpg,AFNE08.jpg,AFSA06.jpg,AFSA11.jpg,FS,4,num_6,32,num_4,0.883470358327,,,2017_May_04_1939,60.0131853396,MAFE4ImagesEEG,001,200028,
,,,,,,,,,,,,,,,,,,,,,,,,,,,,,,,,,,,,,,,,,,,space,5.09984575654,2017_May_04_1939,60.0131853396,MAFE4ImagesEEG,001,200028,
AFNE01.JPG,AFNE01.JPG,AFNE01.JPG,AFNE01.JPG,AFNE01.JPG,AFNE01.JPG,,,,,,,,,0,0,0,8,,,,,,,,,,,,,,,AMNE03.jpg,AMSA11.jpg,AMNE20.jpg,AMSA09.jpg,AMSA09.jpg,MS,2,num_4,16,num_4,0.916729397839,,,2017_May_04_1939,60.0131853396,MAFE4ImagesEEG,001,200028,
AFNE01.JPG,AFNE01.JPG,AFNE01.JPG,AFNE01.JPG,AFNE01.JPG,AFNE01.JPG,,,,,,,,,0,1,1,3,,,,,,,,,,,,,,,AMNE05.jpg,AMNE01.jpg,AMSA03.jpg,AMSA05.jpg,AMSA05.jpg,MS,2,num_4,32,num_2,0.583477639128,,,2017_May_04_1939,60.0131853396,MAFE4ImagesEEG,001,200028,
AFNE01.JPG,AFNE01.JPG,AFNE01.JPG,AFNE01.JPG,AFNE01.JPG,AFNE01.JPG,,,,,,,,,0,2,2,7,,,,,,,,,,,,,,,AMSA19.jpg,AMSA01.jpg,AMNE12.jpg,AMNE04.jpg,AMSA19.jpg,MS,2,num_8,16,num_8,0.566782849142,,,2017_May_04_1939,60.0131853396,MAFE4ImagesEEG,001,200028,
AFNE01.JPG,AFNE01.JPG,AFNE01.JPG,AFNE01.JPG,AFNE01.JPG,AFNE01.JPG,,,,,,,,,0,3,3,2,,,,,,,,,,,,,,,AMSA15.jpg,AMNE13.jpg,AMSA02.jpg,AMNE05.jpg,AMNE05.jpg,MN,1,num_4,32,num_6,0.583458715584,,,2017_May_04_1939,60.0131853396,MAFE4ImagesEEG,001,200028,
AFNE01.JPG,AFNE01.JPG,AFNE01.JPG,AFNE01.JPG,AFNE01.JPG,AFNE01.JPG,,,,,,,,,0,4,4,6,,,,,,,,,,,,,,,AMNE10.jpg,AMNE09.jpg,AMSA14.jpg,AMSA01.jpg,AMNE10.jpg,MN,1,num_8,32,num_6,0.783500475809,,,2017_May_04_1939,60.0131853396,MAFE4ImagesEEG,001,200028,
AFNE01.JPG,AFNE01.JPG,AFNE01.JPG,AFNE01.JPG,AFNE01.JPG,AFNE01.JPG,,,,,,,,,0,5,5,4,,,,,,,,,,,,,,,AMNE09.jpg,AMSA17.jpg,AMSA01.jpg,AMNE16.jpg,AMNE09.jpg,MN,1,num_8,16,num_8,1.2000619669,,,2017_May_04_1939,60.0131853396,MAFE4ImagesEEG,001,200028,
AFNE01.JPG,AFNE01.JPG,AFNE01.JPG,AFNE01.JPG,AFNE01.JPG,AFNE01.JPG,,,,,,,,,0,6,6,1,,,,,,,,,,,,,,,AMSA06.jpg,AMNE08.jpg,AMNE11.jpg,AMSA07.jpg,AMNE08.jpg,MN,1,num_6,16,num_6,0.733442085329,,,2017_May_04_1939,60.0131853396,MAFE4ImagesEEG,001,200028,
AFNE01.JPG,AFNE01.JPG,AFNE01.JPG,AFNE01.JPG,AFNE01.JPG,AFNE01.JPG,,,,,,,,,0,7,7,0,,,,,,,,,,,,,,,AMNE02.jpg,AMSA08.jpg,AMSA12.jpg,AMNE13.jpg,AMSA08.jpg,MS,2,num_6,32,num_2,0.650183350546,,,2017_May_04_1939,60.0131853396,MAFE4ImagesEEG,001,200028,
AFNE01.JPG,AFNE01.JPG,AFNE01.JPG,AFNE01.JPG,AFNE01.JPG,AFNE01.JPG,,,,,,,,,0,8,8,9,,,,,,,,,,,,,,,AMSA06.jpg,AMNE01.jpg,AMNE02.jpg,AMSA03.jpg,AMNE01.jpg,MN,1,num_6,16,num_6,1.08349159127,,,2017_May_04_1939,60.0131853396,MAFE4ImagesEEG,001,200028,
AFNE01.JPG,AFNE01.JPG,AFNE01.JPG,AFNE01.JPG,AFNE01.JPG,AFNE01.JPG,,,,,,,,,0,9,9,5,,,,,,,,,,,,,,,AMSA16.jpg,AMSA13.jpg,AMNE05.jpg,AMNE15.jpg,AMNE05.jpg,MN,1,num_2,32,num_4,1.08349351585,,,2017_May_04_1939,60.0131853396,MAFE4ImagesEEG,001,200028,
AFNE01.JPG,AFNE01.JPG,AFNE01.JPG,AFNE01.JPG,AFNE01.JPG,AFNE01.JPG,,,,,,,,,1,0,10,4,,,,,,,,,,,,,,,AMNE11.jpg,AMSA11.jpg,AMNE08.jpg,AMSA04.jpg,AMNE11.jpg,MN,1,num_8,16,num_8,0.900135319913,,,2017_May_04_1939,60.0131853396,MAFE4ImagesEEG,001,200028,
AFNE01.JPG,AFNE01.JPG,AFNE01.JPG,AFNE01.JPG,AFNE01.JPG,AFNE01.JPG,,,,,,,,,1,1,11,8,,,,,,,,,,,,,,,AMSA09.jpg,AMNE06.jpg,AMNE18.jpg,AMSA08.jpg,AMNE06.jpg,MN,1,num_6,16,num_6,0.650130107766,,,2017_May_04_1939,60.0131853396,MAFE4ImagesEEG,001,200028,
AFNE01.JPG,AFNE01.JPG,AFNE01.JPG,AFNE01.JPG,AFNE01.JPG,AFNE01.JPG,,,,,,,,,1,2,12,0,,,,,,,,,,,,,,,AMNE08.jpg,AMSA12.jpg,AMNE01.jpg,AMSA13.jpg,AMSA12.jpg,MS,2,num_6,16,num_6,0.683441106929,,,2017_May_04_1939,60.0131853396,MAFE4ImagesEEG,001,200028,
AFNE01.JPG,AFNE01.JPG,AFNE01.JPG,AFNE01.JPG,AFNE01.JPG,AFNE01.JPG,,,,,,,,,1,3,13,2,,,,,,,,,,,,,,,AMSA08.jpg,AMNE15.jpg,AMSA07.jpg,AMNE09.jpg,AMSA08.jpg,MS,2,num_8,32,num_2,0.650169879431,,,2017_May_04_1939,60.0131853396,MAFE4ImagesEEG,001,200028,
AFNE01.JPG,AFNE01.JPG,AFNE01.JPG,AFNE01.JPG,AFNE01.JPG,AFNE01.JPG,,,,,,,,,1,4,14,1,,,,,,,,,,,,,,,AMNE16.jpg,AMSA19.jpg,AMNE08.jpg,AMSA11.jpg,AMSA19.jpg,MS,2,num_6,16,num_6,0.883454000577,,,2017_May_04_1939,60.0131853396,MAFE4ImagesEEG,001,200028,
AFNE01.JPG,AFNE01.JPG,AFNE01.JPG,AFNE01.JPG,AFNE01.JPG,AFNE01.JPG,,,,,,,,,1,5,15,5,,,,,,,,,,,,,,,AMSA19.jpg,AMSA05.jpg,AMNE05.jpg,AMNE08.jpg,AMNE05.jpg,MN,1,num_2,32,num_4,0.850100022508,,,2017_May_04_1939,60.0131853396,MAFE4ImagesEEG,001,200028,
AFNE01.JPG,AFNE01.JPG,AFNE01.JPG,AFNE01.JPG,AFNE01.JPG,AFNE01.JPG,,,,,,,,,1,6,16,7,,,,,,,,,,,,,,,AMSA01.jpg,AMSA04.jpg,AMNE18.jpg,AMNE05.jpg,AMSA01.jpg,MS,2,num_8,16,num_8,0.416831232375,,,2017_May_04_1939,60.0131853396,MAFE4ImagesEEG,001,200028,
AFNE01.JPG,AFNE01.JPG,AFNE01.JPG,AFNE01.JPG,AFNE01.JPG,AFNE01.JPG,,,,,,,,,1,7,17,9,,,,,,,,,,,,,,,AMNE03.jpg,AMNE20.jpg,AMSA06.jpg,AMSA05.jpg,AMSA06.jpg,MS,2,num_2,16,num_2,0.666779994499,,,2017_May_04_1939,60.0131853396,MAFE4ImagesEEG,001,200028,
AFNE01.JPG,AFNE01.JPG,AFNE01.JPG,AFNE01.JPG,AFNE01.JPG,AFNE01.JPG,,,,,,,,,1,8,18,3,,,,,,,,,,,,,,,AMNE19.jpg,AMSA18.jpg,AMNE14.jpg,AMSA19.jpg,AMSA19.jpg,MS,2,num_4,16,num_4,0.800281865522,,,2017_May_04_1939,60.0131853396,MAFE4ImagesEEG,001,200028,
AFNE01.JPG,AFNE01.JPG,AFNE01.JPG,AFNE01.JPG,AFNE01.JPG,AFNE01.JPG,,,,,,,,,1,9,19,6,,,,,,,,,,,,,,,AMSA19.jpg,AMNE17.jpg,AMSA20.jpg,AMNE04.jpg,AMNE04.jpg,MN,1,num_4,16,num_4,0.86696672882,,,2017_May_04_1939,60.0131853396,MAFE4ImagesEEG,001,200028,
AFNE01.JPG,AFNE01.JPG,AFNE01.JPG,AFNE01.JPG,AFNE01.JPG,AFNE01.JPG,,,,,,,,,2,0,20,5,,,,,,,,,,,,,,,AMNE11.jpg,AMNE03.jpg,AMSA06.jpg,AMSA02.jpg,AMSA06.jpg,MS,2,num_2,16,num_2,1.65008584596,,,2017_May_04_1939,60.0131853396,MAFE4ImagesEEG,001,200028,
AFNE01.JPG,AFNE01.JPG,AFNE01.JPG,AFNE01.JPG,AFNE01.JPG,AFNE01.JPG,,,,,,,,,2,1,21,6,,,,,,,,,,,,,,,AMNE18.jpg,AMNE06.jpg,AMSA18.jpg,AMSA09.jpg,AMSA18.jpg,MS,2,num_2,32,num_4,0.566782528302,,,2017_May_04_1939,60.0131853396,MAFE4ImagesEEG,001,200028,
AFNE01.JPG,AFNE01.JPG,AFNE01.JPG,AFNE01.JPG,AFNE01.JPG,AFNE01.JPG,,,,,,,,,2,2,22,9,,,,,,,,,,,,,,,AMSA12.jpg,AMSA09.jpg,AMNE05.jpg,AMNE08.jpg,AMSA09.jpg,MS,2,num_6,32,num_8,0.750150667038,,,2017_May_04_1939,60.0131853396,MAFE4ImagesEEG,001,200028,
AFNE01.JPG,AFNE01.JPG,AFNE01.JPG,AFNE01.JPG,AFNE01.JPG,AFNE01.JPG,,,,,,,,,2,3,23,3,,,,,,,,,,,,,,,AMSA09.jpg,AMSA15.jpg,AMNE10.jpg,AMNE17.jpg,AMSA09.jpg,MS,2,num_8,32,num_6,0.700119218556,,,2017_May_04_1939,60.0131853396,MAFE4ImagesEEG,001,200028,
AFNE01.JPG,AFNE01.JPG,AFNE01.JPG,AFNE01.JPG,AFNE01.JPG,AFNE01.JPG,,,,,,,,,2,4,24,0,,,,,,,,,,,,,,,AMSA19.jpg,AMSA05.jpg,AMNE10.jpg,AMNE13.jpg,AMSA05.jpg,MS,2,num_6,16,num_6,0.633493692148,,,2017_May_04_1939,60.0131853396,MAFE4ImagesEEG,001,200028,
AFNE01.JPG,AFNE01.JPG,AFNE01.JPG,AFNE01.JPG,AFNE01.JPG,AFNE01.JPG,,,,,,,,,2,5,25,8,,,,,,,,,,,,,,,AMSA02.jpg,AMNE19.jpg,AMNE04.jpg,AMSA01.jpg,AMSA01.jpg,MS,2,num_4,16,num_4,0.650186878629,,,2017_May_04_1939,60.0131853396,MAFE4ImagesEEG,001,200028,
AFNE01.JPG,AFNE01.JPG,AFNE01.JPG,AFNE01.JPG,AFNE01.JPG,AFNE01.JPG,,,,,,,,,2,6,26,4,,,,,,,,,,,,,,,AMNE14.jpg,AMSA13.jpg,AMSA16.jpg,AMNE20.jpg,AMNE14.jpg,MN,1,num_8,16,num_8,0.566830318421,,,2017_May_04_1939,60.0131853396,MAFE4ImagesEEG,001,200028,
AFNE01.JPG,AFNE01.JPG,AFNE01.JPG,AFNE01.JPG,AFNE01.JPG,AFNE01.JPG,,,,,,,,,2,7,27,2,,,,,,,,,,,,,,,AMSA11.jpg,AMSA05.jpg,AMNE05.jpg,AMNE01.jpg,AMSA11.jpg,MS,2,num_8,16,num_8,0.666790899588,,,2017_May_04_1939,60.0131853396,MAFE4ImagesEEG,001,200028,
AFNE01.JPG,AFNE01.JPG,AFNE01.JPG,AFNE01.JPG,AFNE01.JPG,AFNE01.JPG,,,,,,,,,2,8,28,1,,,,,,,,,,,,,,,AMSA18.jpg,AMNE11.jpg,AMSA15.jpg,AMNE04.jpg,AMSA18.jpg,MS,2,num_8,32,num_2,0.816772344755,,,2017_May_04_1939,60.0131853396,MAFE4ImagesEEG,001,200028,
AFNE01.JPG,AFNE01.JPG,AFNE01.JPG,AFNE01.JPG,AFNE01.JPG,AFNE01.JPG,,,,,,,,,2,9,29,7,,,,,,,,,,,,,,,AMNE07.jpg,AMNE18.jpg,AMSA18.jpg,AMSA09.jpg,AMSA09.jpg,MS,2,num_4,16,num_4,0.650159295183,,,2017_May_04_1939,60.0131853396,MAFE4ImagesEEG,001,200028,
AFNE01.JPG,AFNE01.JPG,AFNE01.JPG,AFNE01.JPG,AFNE01.JPG,AFNE01.JPG,,,,,,,,,3,0,30,7,,,,,,,,,,,,,,,AMSA13.jpg,AMNE01.jpg,AMNE02.jpg,AMSA15.jpg,AMSA15.jpg,MS,2,num_4,16,num_4,0.483494927175,,,2017_May_04_1939,60.0131853396,MAFE4ImagesEEG,001,200028,
AFNE01.JPG,AFNE01.JPG,AFNE01.JPG,AFNE01.JPG,AFNE01.JPG,AFNE01.JPG,,,,,,,,,3,1,31,5,,,,,,,,,,,,,,,AMNE11.jpg,AMSA01.jpg,AMSA10.jpg,AMNE07.jpg,AMNE07.jpg,MN,1,num_4,32,num_2,0.583583162399,,,2017_May_04_1939,60.0131853396,MAFE4ImagesEEG,001,200028,
AFNE01.JPG,AFNE01.JPG,AFNE01.JPG,AFNE01.JPG,AFNE01.JPG,AFNE01.JPG,,,,,,,,,3,2,32,3,,,,,,,,,,,,,,,AMSA06.jpg,AMSA07.jpg,AMNE16.jpg,AMNE01.jpg,AMSA06.jpg,MS,2,num_8,32,num_6,0.416847269516,,,2017_May_04_1939,60.0131853396,MAFE4ImagesEEG,001,200028,
AFNE01.JPG,AFNE01.JPG,AFNE01.JPG,AFNE01.JPG,AFNE01.JPG,AFNE01.JPG,,,,,,,,,3,3,33,6,,,,,,,,,,,,,,,AMSA20.jpg,AMNE08.jpg,AMNE05.jpg,AMSA09.jpg,AMNE08.jpg,MN,1,num_6,16,num_6,0.933447601972,,,2017_May_04_1939,60.0131853396,MAFE4ImagesEEG,001,200028,
AFNE01.JPG,AFNE01.JPG,AFNE01.JPG,AFNE01.JPG,AFNE01.JPG,AFNE01.JPG,,,,,,,,,3,4,34,9,,,,,,,,,,,,,,,AMSA18.jpg,AMNE20.jpg,AMSA13.jpg,AMNE02.jpg,AMNE20.jpg,MN,1,num_6,16,num_6,0.833476757165,,,2017_May_04_1939,60.0131853396,MAFE4ImagesEEG,001,200028,
AFNE01.JPG,AFNE01.JPG,AFNE01.JPG,AFNE01.JPG,AFNE01.JPG,AFNE01.JPG,,,,,,,,,3,5,35,8,,,,,,,,,,,,,,,AMSA18.jpg,AMNE12.jpg,AMSA16.jpg,AMNE17.jpg,AMNE17.jpg,MN,1,num_4,16,num_4,0.733467102982,,,2017_May_04_1939,60.0131853396,MAFE4ImagesEEG,001,200028,
AFNE01.JPG,AFNE01.JPG,AFNE01.JPG,AFNE01.JPG,AFNE01.JPG,AFNE01.JPG,,,,,,,,,3,6,36,4,,,,,,,,,,,,,,,AMNE18.jpg,AMSA10.jpg,AMSA09.jpg,AMNE20.jpg,AMSA09.jpg,MS,2,num_2,32,num_6,0.866879808484,,,2017_May_04_1939,60.0131853396,MAFE4ImagesEEG,001,200028,
AFNE01.JPG,AFNE01.JPG,AFNE01.JPG,AFNE01.JPG,AFNE01.JPG,AFNE01.JPG,,,,,,,,,3,7,37,1,,,,,,,,,,,,,,,AMNE18.jpg,AMSA01.jpg,AMSA09.jpg,AMNE16.jpg,AMNE16.jpg,MN,1,num_4,16,num_4,0.816776514286,,,2017_May_04_1939,60.0131853396,MAFE4ImagesEEG,001,200028,
AFNE01.JPG,AFNE01.JPG,AFNE01.JPG,AFNE01.JPG,AFNE01.JPG,AFNE01.JPG,,,,,,,,,3,8,38,2,,,,,,,,,,,,,,,AMNE15.jpg,AMSA04.jpg,AMSA07.jpg,AMNE06.jpg,AMNE06.jpg,MN,1,num_4,16,num_4,0.866863450734,,,2017_May_04_1939,60.0131853396,MAFE4ImagesEEG,001,200028,
AFNE01.JPG,AFNE01.JPG,AFNE01.JPG,AFNE01.JPG,AFNE01.JPG,AFNE01.JPG,,,,,,,,,3,9,39,0,,,,,,,,,,,,,,,AMSA20.jpg,AMSA13.jpg,AMNE03.jpg,AMNE04.jpg,AMSA13.jpg,MS,2,num_6,32,num_8,0.700139425462,,,2017_May_04_1939,60.0131853396,MAFE4ImagesEEG,001,200028,
AFNE01.JPG,AFNE01.JPG,AFNE01.JPG,AFNE01.JPG,AFNE01.JPG,AFNE01.JPG,,,,,,,,,4,0,40,4,,,,,,,,,,,,,,,AMNE17.jpg,AMSA10.jpg,AMSA07.jpg,AMNE03.jpg,AMSA10.jpg,MS,2,num_6,16,num_6,0.483488191618,,,2017_May_04_1939,60.0131853396,MAFE4ImagesEEG,001,200028,
AFNE01.JPG,AFNE01.JPG,AFNE01.JPG,AFNE01.JPG,AFNE01.JPG,AFNE01.JPG,,,,,,,,,4,1,41,8,,,,,,,,,,,,,,,AMNE17.jpg,AMSA02.jpg,AMNE12.jpg,AMSA05.jpg,AMNE17.jpg,MN,1,num_8,16,num_8,0.833454626147,,,2017_May_04_1939,60.0131853396,MAFE4ImagesEEG,001,200028,
AFNE01.JPG,AFNE01.JPG,AFNE01.JPG,AFNE01.JPG,AFNE01.JPG,AFNE01.JPG,,,,,,,,,4,2,42,2,,,,,,,,,,,,,,,AMNE07.jpg,AMNE20.jpg,AMSA20.jpg,AMSA17.jpg,AMSA20.jpg,MS,2,num_2,16,num_2,0.616771639325,,,2017_May_04_1939,60.0131853396,MAFE4ImagesEEG,001,200028,
AFNE01.JPG,AFNE01.JPG,AFNE01.JPG,AFNE01.JPG,AFNE01.JPG,AFNE01.JPG,,,,,,,,,4,3,43,0,,,,,,,,,,,,,,,AMSA15.jpg,AMSA09.jpg,AMNE17.jpg,AMNE06.jpg,AMNE06.jpg,MN,1,num_4,16,num_4,0.733578078682,,,2017_May_04_1939,60.0131853396,MAFE4ImagesEEG,001,200028,
AFNE01.JPG,AFNE01.JPG,AFNE01.JPG,AFNE01.JPG,AFNE01.JPG,AFNE01.JPG,,,,,,,,,4,4,44,5,,,,,,,,,,,,,,,AMNE13.jpg,AMSA10.jpg,AMNE12.jpg,AMSA04.jpg,AMNE13.jpg,MN,1,num_8,16,num_8,0.883420323022,,,2017_May_04_1939,60.0131853396,MAFE4ImagesEEG,001,200028,
AFNE01.JPG,AFNE01.JPG,AFNE01.JPG,AFNE01.JPG,AFNE01.JPG,AFNE01.JPG,,,,,,,,,4,5,45,7,,,,,,,,,,,,,,,AMNE13.jpg,AMSA15.jpg,AMSA20.jpg,AMNE02.jpg,AMNE02.jpg,MN,1,num_4,16,num_4,0.783487325534,,,2017_May_04_1939,60.0131853396,MAFE4ImagesEEG,001,200028,
AFNE01.JPG,AFNE01.JPG,AFNE01.JPG,AFNE01.JPG,AFNE01.JPG,AFNE01.JPG,,,,,,,,,4,6,46,1,,,,,,,,,,,,,,,AMNE03.jpg,AMSA16.jpg,AMSA20.jpg,AMNE10.jpg,AMSA16.jpg,MS,2,num_6,32,num_2,0.883468754822,,,2017_May_04_1939,60.0131853396,MAFE4ImagesEEG,001,200028,
AFNE01.JPG,AFNE01.JPG,AFNE01.JPG,AFNE01.JPG,AFNE01.JPG,AFNE01.JPG,,,,,,,,,4,7,47,6,,,,,,,,,,,,,,,AMNE07.jpg,AMSA13.jpg,AMNE02.jpg,AMSA05.jpg,AMSA05.jpg,MS,2,num_4,32,num_6,0.866730664857,,,2017_May_04_1939,60.0131853396,MAFE4ImagesEEG,001,200028,
AFNE01.JPG,AFNE01.JPG,AFNE01.JPG,AFNE01.JPG,AFNE01.JPG,AFNE01.JPG,,,,,,,,,4,8,48,3,,,,,,,,,,,,,,,AMSA12.jpg,AMSA17.jpg,AMNE06.jpg,AMNE17.jpg,AMSA17.jpg,MS,2,num_6,32,num_8,0.866736758966,,,2017_May_04_1939,60.0131853396,MAFE4ImagesEEG,001,200028,
AFNE01.JPG,AFNE01.JPG,AFNE01.JPG,AFNE01.JPG,AFNE01.JPG,AFNE01.JPG,,,,,,,,,4,9,49,9,,,,,,,,,,,,,,,AMSA07.jpg,AMNE19.jpg,AMNE11.jpg,AMSA02.jpg,AMNE19.jpg,MN,1,num_6,16,num_6,0.82304247329,,,2017_May_04_1939,60.0131853396,MAFE4ImagesEEG,001,200028,
AFNE01.JPG,AFNE01.JPG,AFNE01.JPG,AFNE01.JPG,AFNE01.JPG,AFNE01.JPG,,,,,,,,,5,0,50,4,,,,,,,,,,,,,,,AMNE02.jpg,AMNE06.jpg,AMSA04.jpg,AMSA10.jpg,AMNE02.jpg,MN,1,num_8,16,num_8,0.700151613448,,,2017_May_04_1939,60.0131853396,MAFE4ImagesEEG,001,200028,
AFNE01.JPG,AFNE01.JPG,AFNE01.JPG,AFNE01.JPG,AFNE01.JPG,AFNE01.JPG,,,,,,,,,5,1,51,7,,,,,,,,,,,,,,,AMSA12.jpg,AMSA16.jpg,AMNE11.jpg,AMNE08.jpg,AMSA12.jpg,MS,2,num_8,32,num_6,0.800116364146,,,2017_May_04_1939,60.0131853396,MAFE4ImagesEEG,001,200028,
AFNE01.JPG,AFNE01.JPG,AFNE01.JPG,AFNE01.JPG,AFNE01.JPG,AFNE01.JPG,,,,,,,,,5,2,52,5,,,,,,,,,,,,,,,AMSA10.jpg,AMSA06.jpg,AMNE03.jpg,AMNE08.jpg,AMNE03.jpg,MN,1,num_2,16,num_2,1.05012414209,,,2017_May_04_1939,60.0131853396,MAFE4ImagesEEG,001,200028,
AFNE01.JPG,AFNE01.JPG,AFNE01.JPG,AFNE01.JPG,AFNE01.JPG,AFNE01.JPG,,,,,,,,,5,3,53,2,,,,,,,,,,,,,,,AMSA06.jpg,AMNE04.jpg,AMNE10.jpg,AMSA03.jpg,AMSA06.jpg,MS,2,num_8,32,num_4,0.98343350552,,,2017_May_04_1939,60.0131853396,MAFE4ImagesEEG,001,200028,
AFNE01.JPG,AFNE01.JPG,AFNE01.JPG,AFNE01.JPG,AFNE01.JPG,AFNE01.JPG,,,,,,,,,5,4,54,0,,,,,,,,,,,,,,,AMNE10.jpg,AMSA17.jpg,AMNE02.jpg,AMSA09.jpg,AMSA09.jpg,MS,2,num_4,16,num_4,0.483530529076,,,2017_May_04_1939,60.0131853396,MAFE4ImagesEEG,001,200028,
AFNE01.JPG,AFNE01.JPG,AFNE01.JPG,AFNE01.JPG,AFNE01.JPG,AFNE01.JPG,,,,,,,,,5,5,55,6,,,,,,,,,,,,,,,AMSA04.jpg,AMSA13.jpg,AMNE18.jpg,AMNE03.jpg,AMNE18.jpg,MN,1,num_2,32,num_6,0.76678130962,,,2017_May_04_1939,60.0131853396,MAFE4ImagesEEG,001,200028,
AFNE01.JPG,AFNE01.JPG,AFNE01.JPG,AFNE01.JPG,AFNE01.JPG,AFNE01.JPG,,,,,,,,,5,6,56,9,,,,,,,,,,,,,,,AMSA07.jpg,AMNE05.jpg,AMSA08.jpg,AMNE19.jpg,AMSA07.jpg,MS,2,num_8,16,num_8,0.716777123744,,,2017_May_04_1939,60.0131853396,MAFE4ImagesEEG,001,200028,
AFNE01.JPG,AFNE01.JPG,AFNE01.JPG,AFNE01.JPG,AFNE01.JPG,AFNE01.JPG,,,,,,,,,5,7,57,1,,,,,,,,,,,,,,,AMNE11.jpg,AMNE09.jpg,AMSA20.jpg,AMSA08.jpg,AMSA20.jpg,MS,2,num_2,32,num_4,0.966721074656,,,2017_May_04_1939,60.0131853396,MAFE4ImagesEEG,001,200028,
AFNE01.JPG,AFNE01.JPG,AFNE01.JPG,AFNE01.JPG,AFNE01.JPG,AFNE01.JPG,,,,,,,,,5,8,58,8,,,,,,,,,,,,,,,AMNE04.jpg,AMSA12.jpg,AMNE09.jpg,AMSA19.jpg,AMSA12.jpg,MS,2,num_6,32,num_4,0.583428245503,,,2017_May_04_1939,60.0131853396,MAFE4ImagesEEG,001,200028,
AFNE01.JPG,AFNE01.JPG,AFNE01.JPG,AFNE01.JPG,AFNE01.JPG,AFNE01.JPG,,,,,,,,,5,9,59,3,,,,,,,,,,,,,,,AMNE17.jpg,AMNE16.jpg,AMSA11.jpg,AMSA07.jpg,AMSA07.jpg,MS,2,num_4,16,num_4,0.550184601452,,,2017_May_04_1939,60.0131853396,MAFE4ImagesEEG,001,200028,
,,,,,,,,,,,,,,,,,,,,,,,,,,,,,,,,,,,,,,,,,,,space,11.5325324051,2017_May_04_1939,60.0131853396,MAFE4ImagesEEG,001,200028,
AFNE01.JPG,AFNE01.JPG,AFNE01.JPG,AFNE01.JPG,AFNE01.JPG,AFNE01.JPG,,,,,,,,,,,,,0,0,0,0,,,,,,,,,,,AFSA01.jpg,AFNE14.jpg,AFSA14.jpg,AFNE07.jpg,AFNE14.jpg,FN,3,num_6,16,num_6,0.783458458958,,,2017_May_04_1939,60.0131853396,MAFE4ImagesEEG,001,200028,
AFNE01.JPG,AFNE01.JPG,AFNE01.JPG,AFNE01.JPG,AFNE01.JPG,AFNE01.JPG,,,,,,,,,,,,,0,1,1,1,,,,,,,,,,,AFSA05.jpg,AFSA19.jpg,AFNE19.jpg,AFNE06.jpg,AFSA05.jpg,FS,4,num_8,16,num_8,0.366913325852,,,2017_May_04_1939,60.0131853396,MAFE4ImagesEEG,001,200028,
AFNE01.JPG,AFNE01.JPG,AFNE01.JPG,AFNE01.JPG,AFNE01.JPG,AFNE01.JPG,,,,,,,,,,,,,0,2,2,8,,,,,,,,,,,AFSA02.jpg,AFNE03.jpg,AFNE08.jpg,AFSA06.jpg,AFSA02.jpg,FS,4,num_8,16,num_8,1.06671340903,,,2017_May_04_1939,60.0131853396,MAFE4ImagesEEG,001,200028,
AFNE01.JPG,AFNE01.JPG,AFNE01.JPG,AFNE01.JPG,AFNE01.JPG,AFNE01.JPG,,,,,,,,,,,,,0,3,3,6,,,,,,,,,,,AFNE06.jpg,AFNE01.jpg,AFSA08.jpg,AFSA19.jpg,AFNE06.jpg,FN,3,num_8,32,num_6,0.6837159805,,,2017_May_04_1939,60.0131853396,MAFE4ImagesEEG,001,200028,
AFNE01.JPG,AFNE01.JPG,AFNE01.JPG,AFNE01.JPG,AFNE01.JPG,AFNE01.JPG,,,,,,,,,,,,,0,4,4,9,,,,,,,,,,,AFNE01.jpg,AFNE19.jpg,AFSA10.jpg,AFSA05.jpg,AFSA10.jpg,FS,4,num_2,16,num_2,1.21673141862,,,2017_May_04_1939,60.0131853396,MAFE4ImagesEEG,001,200028,
AFNE01.JPG,AFNE01.JPG,AFNE01.JPG,AFNE01.JPG,AFNE01.JPG,AFNE01.JPG,,,,,,,,,,,,,0,5,5,2,,,,,,,,,,,AFSA01.jpg,AFNE08.jpg,AFNE07.jpg,AFSA19.jpg,AFSA01.jpg,FS,4,num_8,32,num_4,0.60010699858,,,2017_May_04_1939,60.0131853396,MAFE4ImagesEEG,001,200028,
AFNE01.JPG,AFNE01.JPG,AFNE01.JPG,AFNE01.JPG,AFNE01.JPG,AFNE01.JPG,,,,,,,,,,,,,0,6,6,4,,,,,,,,,,,AFNE03.jpg,AFSA14.jpg,AFNE10.jpg,AFSA09.jpg,AFSA09.jpg,FS,4,num_4,16,num_4,0.916766924318,,,2017_May_04_1939,60.0131853396,MAFE4ImagesEEG,001,200028,
AFNE01.JPG,AFNE01.JPG,AFNE01.JPG,AFNE01.JPG,AFNE01.JPG,AFNE01.JPG,,,,,,,,,,,,,0,7,7,5,,,,,,,,,,,AFNE20.jpg,AFSA19.jpg,AFNE08.jpg,AFSA13.jpg,AFSA19.jpg,FS,4,num_6,32,num_4,0.750146818347,,,2017_May_04_1939,60.0131853396,MAFE4ImagesEEG,001,200028,
AFNE01.JPG,AFNE01.JPG,AFNE01.JPG,AFNE01.JPG,AFNE01.JPG,AFNE01.JPG,,,,,,,,,,,,,0,8,8,3,,,,,,,,,,,AFNE14.jpg,AFSA04.jpg,AFNE10.jpg,AFSA02.jpg,AFNE14.jpg,FN,3,num_8,16,num_8,0.800136570819,,,2017_May_04_1939,60.0131853396,MAFE4ImagesEEG,001,200028,
AFNE01.JPG,AFNE01.JPG,AFNE01.JPG,AFNE01.JPG,AFNE01.JPG,AFNE01.JPG,,,,,,,,,,,,,0,9,9,7,,,,,,,,,,,AFSA01.jpg,AFNE16.jpg,AFNE05.jpg,AFSA13.jpg,AFNE05.jpg,FN,3,num_2,32,num_6,0.966806711862,,,2017_May_04_1939,60.0131853396,MAFE4ImagesEEG,001,200028,
AFNE01.JPG,AFNE01.JPG,AFNE01.JPG,AFNE01.JPG,AFNE01.JPG,AFNE01.JPG,,,,,,,,,,,,,1,0,10,8,,,,,,,,,,,AFNE08.jpg,AFSA14.jpg,AFNE11.jpg,AFSA01.jpg,AFNE08.jpg,FN,3,num_8,16,num_8,0.600130412495,,,2017_May_04_1939,60.0131853396,MAFE4ImagesEEG,001,200028,
AFNE01.JPG,AFNE01.JPG,AFNE01.JPG,AFNE01.JPG,AFNE01.JPG,AFNE01.JPG,,,,,,,,,,,,,1,1,11,6,,,,,,,,,,,AFSA10.jpg,AFSA15.jpg,AFNE17.jpg,AFNE09.jpg,AFNE09.jpg,FN,3,num_4,16,num_4,0.866890392965,,,2017_May_04_1939,60.0131853396,MAFE4ImagesEEG,001,200028,
AFNE01.JPG,AFNE01.JPG,AFNE01.JPG,AFNE01.JPG,AFNE01.JPG,AFNE01.JPG,,,,,,,,,,,,,1,2,12,3,,,,,,,,,,,AFNE04.jpg,AFSA07.jpg,AFNE07.jpg,AFSA15.jpg,AFSA15.jpg,FS,4,num_4,16,num_4,0.600132657681,,,2017_May_04_1939,60.0131853396,MAFE4ImagesEEG,001,200028,
AFNE01.JPG,AFNE01.JPG,AFNE01.JPG,AFNE01.JPG,AFNE01.JPG,AFNE01.JPG,,,,,,,,,,,,,1,3,13,9,,,,,,,,,,,AFSA12.jpg,AFSA03.jpg,AFNE06.jpg,AFNE02.jpg,AFNE02.jpg,FN,3,num_4,16,num_4,1.08344187681,,,2017_May_04_1939,60.0131853396,MAFE4ImagesEEG,001,200028,
AFNE01.JPG,AFNE01.JPG,AFNE01.JPG,AFNE01.JPG,AFNE01.JPG,AFNE01.JPG,,,,,,,,,,,,,1,4,14,4,,,,,,,,,,,AFNE16.jpg,AFNE20.jpg,AFSA19.jpg,AFSA10.jpg,AFNE20.jpg,FN,3,num_6,16,num_6,0.950111921877,,,2017_May_04_1939,60.0131853396,MAFE4ImagesEEG,001,200028,
AFNE01.JPG,AFNE01.JPG,AFNE01.JPG,AFNE01.JPG,AFNE01.JPG,AFNE01.JPG,,,,,,,,,,,,,1,5,15,0,,,,,,,,,,,AFNE11.jpg,AFSA10.jpg,AFSA04.jpg,AFNE15.jpg,AFSA10.jpg,FS,4,num_6,32,num_2,1.00037141587,,,2017_May_04_1939,60.0131853396,MAFE4ImagesEEG,001,200028,
AFNE01.JPG,AFNE01.JPG,AFNE01.JPG,AFNE01.JPG,AFNE01.JPG,AFNE01.JPG,,,,,,,,,,,,,1,6,16,7,,,,,,,,,,,AFSA03.jpg,AFSA09.jpg,AFNE14.jpg,AFNE09.jpg,AFNE09.jpg,FN,3,num_4,16,num_4,0.816773948492,,,2017_May_04_1939,60.0131853396,MAFE4ImagesEEG,001,200028,
AFNE01.JPG,AFNE01.JPG,AFNE01.JPG,AFNE01.JPG,AFNE01.JPG,AFNE01.JPG,,,,,,,,,,,,,1,7,17,2,,,,,,,,,,,AFSA07.jpg,AFNE19.jpg,AFNE05.jpg,AFSA03.jpg,AFSA07.jpg,FS,4,num_8,16,num_8,0.583463526564,,,2017_May_04_1939,60.0131853396,MAFE4ImagesEEG,001,200028,
AFNE01.JPG,AFNE01.JPG,AFNE01.JPG,AFNE01.JPG,AFNE01.JPG,AFNE01.JPG,,,,,,,,,,,,,1,8,18,5,,,,,,,,,,,AFNE20.jpg,AFNE12.jpg,AFSA17.jpg,AFSA19.jpg,AFSA19.jpg,FS,4,num_4,16,num_4,0.63346161833,,,2017_May_04_1939,60.0131853396,MAFE4ImagesEEG,001,200028,
AFNE01.JPG,AFNE01.JPG,AFNE01.JPG,AFNE01.JPG,AFNE01.JPG,AFNE01.JPG,,,,,,,,,,,,,1,9,19,1,,,,,,,,,,,AFNE01.jpg,AFNE17.jpg,AFSA06.jpg,AFSA02.jpg,AFSA06.jpg,FS,4,num_2,32,num_8,0.700168933254,,,2017_May_04_1939,60.0131853396,MAFE4ImagesEEG,001,200028,
AFNE01.JPG,AFNE01.JPG,AFNE01.JPG,AFNE01.JPG,AFNE01.JPG,AFNE01.JPG,,,,,,,,,,,,,2,0,20,9,,,,,,,,,,,AFSA01.jpg,AFSA13.jpg,AFNE18.jpg,AFNE07.jpg,AFNE07.jpg,FN,3,num_4,16,num_4,0.68345169141,,,2017_May_04_1939,60.0131853396,MAFE4ImagesEEG,001,200028,
AFNE01.JPG,AFNE01.JPG,AFNE01.JPG,AFNE01.JPG,AFNE01.JPG,AFNE01.JPG,,,,,,,,,,,,,2,1,21,2,,,,,,,,,,,AFSA09.jpg,AFNE10.jpg,AFNE16.jpg,AFSA13.jpg,AFSA13.jpg,FS,4,num_4,32,num_8,1.03348965105,,,2017_May_04_1939,60.0131853396,MAFE4ImagesEEG,001,200028,
AFNE01.JPG,AFNE01.JPG,AFNE01.JPG,AFNE01.JPG,AFNE01.JPG,AFNE01.JPG,,,,,,,,,,,,,2,2,22,3,,,,,,,,,,,AFNE02.jpg,AFSA17.jpg,AFNE04.jpg,AFSA14.jpg,AFSA17.jpg,FS,4,num_6,16,num_6,0.816738987807,,,2017_May_04_1939,60.0131853396,MAFE4ImagesEEG,001,200028,
AFNE01.JPG,AFNE01.JPG,AFNE01.JPG,AFNE01.JPG,AFNE01.JPG,AFNE01.JPG,,,,,,,,,,,,,2,3,23,8,,,,,,,,,,,AFSA03.jpg,AFNE04.jpg,AFNE13.jpg,AFSA16.jpg,AFSA16.jpg,FS,4,num_4,32,num_8,0.650136201642,,,2017_May_04_1939,60.0131853396,MAFE4ImagesEEG,001,200028,
AFNE01.JPG,AFNE01.JPG,AFNE01.JPG,AFNE01.JPG,AFNE01.JPG,AFNE01.JPG,,,,,,,,,,,,,2,4,24,0,,,,,,,,,,,AFSA13.jpg,AFSA10.jpg,AFNE11.jpg,AFNE17.jpg,AFNE17.jpg,FN,3,num_4,32,num_2,0.883446623804,,,2017_May_04_1939,60.0131853396,MAFE4ImagesEEG,001,200028,
AFNE01.JPG,AFNE01.JPG,AFNE01.JPG,AFNE01.JPG,AFNE01.JPG,AFNE01.JPG,,,,,,,,,,,,,2,5,25,1,,,,,,,,,,,AFNE13.jpg,AFSA15.jpg,AFNE05.jpg,AFSA11.jpg,AFSA11.jpg,FS,4,num_4,16,num_4,0.350163368508,,,2017_May_04_1939,60.0131853396,MAFE4ImagesEEG,001,200028,
AFNE01.JPG,AFNE01.JPG,AFNE01.JPG,AFNE01.JPG,AFNE01.JPG,AFNE01.JPG,,,,,,,,,,,,,2,6,26,6,,,,,,,,,,,AFSA07.jpg,AFNE06.jpg,AFNE11.jpg,AFSA04.jpg,AFSA07.jpg,FS,4,num_8,32,num_6,0.766640184214,,,2017_May_04_1939,60.0131853396,MAFE4ImagesEEG,001,200028,
AFNE01.JPG,AFNE01.JPG,AFNE01.JPG,AFNE01.JPG,AFNE01.JPG,AFNE01.JPG,,,,,,,,,,,,,2,7,27,5,,,,,,,,,,,AFSA19.jpg,AFNE17.jpg,AFNE08.jpg,AFSA09.jpg,AFSA19.jpg,FS,4,num_8,16,num_8,0.516737929545,,,2017_May_04_1939,60.0131853396,MAFE4ImagesEEG,001,200028,
AFNE01.JPG,AFNE01.JPG,AFNE01.JPG,AFNE01.JPG,AFNE01.JPG,AFNE01.JPG,,,,,,,,,,,,,2,8,28,4,,,,,,,,,,,AFNE20.jpg,AFSA01.jpg,AFNE06.jpg,AFSA06.jpg,AFNE06.jpg,FN,3,num_2,16,num_2,0.80713541829,,,2017_May_04_1939,60.0131853396,MAFE4ImagesEEG,001,200028,
AFNE01.JPG,AFNE01.JPG,AFNE01.JPG,AFNE01.JPG,AFNE01.JPG,AFNE01.JPG,,,,,,,,,,,,,2,9,29,7,,,,,,,,,,,AFSA14.jpg,AFNE20.jpg,AFNE03.jpg,AFSA03.jpg,AFSA14.jpg,FS,4,num_8,32,num_4,0.383506120881,,,2017_May_04_1939,60.0131853396,MAFE4ImagesEEG,001,200028,
AFNE01.JPG,AFNE01.JPG,AFNE01.JPG,AFNE01.JPG,AFNE01.JPG,AFNE01.JPG,,,,,,,,,,,,,3,0,30,6,,,,,,,,,,,AFNE09.jpg,AFNE07.jpg,AFSA07.jpg,AFSA10.jpg,AFSA07.jpg,FS,4,num_2,16,num_2,0.583443320123,,,2017_May_04_1939,60.0131853396,MAFE4ImagesEEG,001,200028,
AFNE01.JPG,AFNE01.JPG,AFNE01.JPG,AFNE01.JPG,AFNE01.JPG,AFNE01.JPG,,,,,,,,,,,,,3,1,31,2,,,,,,,,,,,AFSA02.jpg,AFNE16.jpg,AFNE15.jpg,AFSA15.jpg,AFSA02.jpg,FS,4,num_8,16,num_8,0.366846611956,,,2017_May_04_1939,60.0131853396,MAFE4ImagesEEG,001,200028,
AFNE01.JPG,AFNE01.JPG,AFNE01.JPG,AFNE01.JPG,AFNE01.JPG,AFNE01.JPG,,,,,,,,,,,,,3,2,32,7,,,,,,,,,,,AFNE10.jpg,AFSA08.jpg,AFSA19.jpg,AFNE20.jpg,AFNE10.jpg,FN,3,num_8,32,num_4,0.883430907503,,,2017_May_04_1939,60.0131853396,MAFE4ImagesEEG,001,200028,
AFNE01.JPG,AFNE01.JPG,AFNE01.JPG,AFNE01.JPG,AFNE01.JPG,AFNE01.JPG,,,,,,,,,,,,,3,3,33,8,,,,,,,,,,,AFNE11.jpg,AFSA16.jpg,AFSA12.jpg,AFNE06.jpg,AFNE06.jpg,FN,3,num_4,32,num_6,1.06673169113,,,2017_May_04_1939,60.0131853396,MAFE4ImagesEEG,001,200028,
AFNE01.JPG,AFNE01.JPG,AFNE01.JPG,AFNE01.JPG,AFNE01.JPG,AFNE01.JPG,,,,,,,,,,,,,3,4,34,1,,,,,,,,,,,AFSA14.jpg,AFSA18.jpg,AFNE20.jpg,AFNE12.jpg,AFSA18.jpg,FS,4,num_6,32,num_8,0.533450681018,,,2017_May_04_1939,60.0131853396,MAFE4ImagesEEG,001,200028,
AFNE01.JPG,AFNE01.JPG,AFNE01.JPG,AFNE01.JPG,AFNE01.JPG,AFNE01.JPG,,,,,,,,,,,,,3,5,35,3,,,,,,,,,,,AFNE15.jpg,AFNE17.jpg,AFSA08.jpg,AFSA05.jpg,AFNE15.jpg,FN,3,num_8,16,num_8,0.766776819248,,,2017_May_04_1939,60.0131853396,MAFE4ImagesEEG,001,200028,
AFNE01.JPG,AFNE01.JPG,AFNE01.JPG,AFNE01.JPG,AFNE01.JPG,AFNE01.JPG,,,,,,,,,,,,,3,6,36,9,,,,,,,,,,,AFSA16.jpg,AFNE01.jpg,AFSA07.jpg,AFNE14.jpg,AFSA16.jpg,FS,4,num_8,32,num_6,0.433473421494,,,2017_May_04_1939,60.0131853396,MAFE4ImagesEEG,001,200028,
AFNE01.JPG,AFNE01.JPG,AFNE01.JPG,AFNE01.JPG,AFNE01.JPG,AFNE01.JPG,,,,,,,,,,,,,3,7,37,4,,,,,,,,,,,AFSA10.jpg,AFSA11.jpg,AFNE08.jpg,AFNE02.jpg,AFSA10.jpg,FS,4,num_8,16,num_8,1.41672314354,,,2017_May_04_1939,60.0131853396,MAFE4ImagesEEG,001,200028,
AFNE01.JPG,AFNE01.JPG,AFNE01.JPG,AFNE01.JPG,AFNE01.JPG,AFNE01.JPG,,,,,,,,,,,,,3,8,38,5,,,,,,,,,,,AFSA06.jpg,AFNE16.jpg,AFNE13.jpg,AFSA13.jpg,AFSA06.jpg,FS,4,num_8,32,num_6,0.700178876054,,,2017_May_04_1939,60.0131853396,MAFE4ImagesEEG,001,200028,
AFNE01.JPG,AFNE01.JPG,AFNE01.JPG,AFNE01.JPG,AFNE01.JPG,AFNE01.JPG,,,,,,,,,,,,,3,9,39,0,,,,,,,,,,,AFNE04.jpg,AFSA17.jpg,AFSA18.jpg,AFNE15.jpg,AFSA18.jpg,FS,4,num_2,16,num_2,0.783457496669,,,2017_May_04_1939,60.0131853396,MAFE4ImagesEEG,001,200028,
AFNE01.JPG,AFNE01.JPG,AFNE01.JPG,AFNE01.JPG,AFNE01.JPG,AFNE01.JPG,,,,,,,,,,,,,4,0,40,0,,,,,,,,,,,AFNE11.jpg,AFSA15.jpg,AFNE07.jpg,AFSA08.jpg,AFSA08.jpg,FS,4,num_4,16,num_4,0.816770099569,,,2017_May_04_1939,60.0131853396,MAFE4ImagesEEG,001,200028,
AFNE01.JPG,AFNE01.JPG,AFNE01.JPG,AFNE01.JPG,AFNE01.JPG,AFNE01.JPG,,,,,,,,,,,,,4,1,41,5,,,,,,,,,,,AFSA08.jpg,AFSA13.jpg,AFNE10.jpg,AFNE12.jpg,AFNE12.jpg,FN,3,num_4,32,num_2,0.783433762146,,,2017_May_04_1939,60.0131853396,MAFE4ImagesEEG,001,200028,
AFNE01.JPG,AFNE01.JPG,AFNE01.JPG,AFNE01.JPG,AFNE01.JPG,AFNE01.JPG,,,,,,,,,,,,,4,2,42,7,,,,,,,,,,,AFSA10.jpg,AFNE12.jpg,AFNE11.jpg,AFSA17.jpg,AFNE12.jpg,FN,3,num_6,32,num_2,0.966763412347,,,2017_May_04_1939,60.0131853396,MAFE4ImagesEEG,001,200028,
AFNE01.JPG,AFNE01.JPG,AFNE01.JPG,AFNE01.JPG,AFNE01.JPG,AFNE01.JPG,,,,,,,,,,,,,4,3,43,3,,,,,,,,,,,AFSA19.jpg,AFSA10.jpg,AFNE14.jpg,AFNE11.jpg,AFSA19.jpg,FS,4,num_8,16,num_8,0.500131342793,,,2017_May_04_1939,60.0131853396,MAFE4ImagesEEG,001,200028,
AFNE01.JPG,AFNE01.JPG,AFNE01.JPG,AFNE01.JPG,AFNE01.JPG,AFNE01.JPG,,,,,,,,,,,,,4,4,44,8,,,,,,,,,,,AFSA01.jpg,AFNE11.jpg,AFSA14.jpg,AFNE07.jpg,AFSA14.jpg,FS,4,num_2,16,num_2,0.816623842809,,,2017_May_04_1939,60.0131853396,MAFE4ImagesEEG,001,200028,
AFNE01.JPG,AFNE01.JPG,AFNE01.JPG,AFNE01.JPG,AFNE01.JPG,AFNE01.JPG,,,,,,,,,,,,,4,5,45,9,,,,,,,,,,,AFSA12.jpg,AFNE13.jpg,AFNE03.jpg,AFSA02.jpg,AFSA12.jpg,FS,4,num_8,16,num_8,0.833449814934,,,2017_May_04_1939,60.0131853396,MAFE4ImagesEEG,001,200028,
AFNE01.JPG,AFNE01.JPG,AFNE01.JPG,AFNE01.JPG,AFNE01.JPG,AFNE01.JPG,,,,,,,,,,,,,4,6,46,2,,,,,,,,,,,AFNE16.jpg,AFSA19.jpg,AFNE07.jpg,AFSA12.jpg,AFSA12.jpg,FS,4,num_4,16,num_4,0.616799222771,,,2017_May_04_1939,60.0131853396,MAFE4ImagesEEG,001,200028,
AFNE01.JPG,AFNE01.JPG,AFNE01.JPG,AFNE01.JPG,AFNE01.JPG,AFNE01.JPG,,,,,,,,,,,,,4,7,47,6,,,,,,,,,,,AFSA01.jpg,AFNE16.jpg,AFNE06.jpg,AFSA15.jpg,AFSA15.jpg,FS,4,num_4,16,num_4,1.20012162416,,,2017_May_04_1939,60.0131853396,MAFE4ImagesEEG,001,200028,
AFNE01.JPG,AFNE01.JPG,AFNE01.JPG,AFNE01.JPG,AFNE01.JPG,AFNE01.JPG,,,,,,,,,,,,,4,8,48,4,,,,,,,,,,,AFNE08.jpg,AFNE06.jpg,AFSA09.jpg,AFSA05.jpg,AFSA05.jpg,FS,4,num_4,16,num_4,0.650040300796,,,2017_May_04_1939,60.0131853396,MAFE4ImagesEEG,001,200028,
AFNE01.JPG,AFNE01.JPG,AFNE01.JPG,AFNE01.JPG,AFNE01.JPG,AFNE01.JPG,,,,,,,,,,,,,4,9,49,1,,,,,,,,,,,AFSA01.jpg,AFSA07.jpg,AFNE06.jpg,AFNE20.jpg,AFSA07.jpg,FS,4,num_6,16,num_6,0.7834844389,,,2017_May_04_1939,60.0131853396,MAFE4ImagesEEG,001,200028,
AFNE01.JPG,AFNE01.JPG,AFNE01.JPG,AFNE01.JPG,AFNE01.JPG,AFNE01.JPG,,,,,,,,,,,,,5,0,50,8,,,,,,,,,,,AFNE18.jpg,AFSA04.jpg,AFNE17.jpg,AFSA17.jpg,AFSA17.jpg,FS,4,num_4,16,num_4,0.766796063399,,,2017_May_04_1939,60.0131853396,MAFE4ImagesEEG,001,200028,
AFNE01.JPG,AFNE01.JPG,AFNE01.JPG,AFNE01.JPG,AFNE01.JPG,AFNE01.JPG,,,,,,,,,,,,,5,1,51,5,,,,,,,,,,,AFNE07.jpg,AFSA17.jpg,AFNE02.jpg,AFSA16.jpg,AFSA16.jpg,FS,4,num_4,32,num_6,0.850094890688,,,2017_May_04_1939,60.0131853396,MAFE4ImagesEEG,001,200028,
AFNE01.JPG,AFNE01.JPG,AFNE01.JPG,AFNE01.JPG,AFNE01.JPG,AFNE01.JPG,,,,,,,,,,,,,5,2,52,2,,,,,,,,,,,AFSA09.jpg,AFNE04.jpg,AFSA17.jpg,AFNE10.jpg,AFSA17.jpg,FS,4,num_2,32,num_8,0.666777107632,,,2017_May_04_1939,60.0131853396,MAFE4ImagesEEG,001,200028,
AFNE01.JPG,AFNE01.JPG,AFNE01.JPG,AFNE01.JPG,AFNE01.JPG,AFNE01.JPG,,,,,,,,,,,,,5,3,53,6,,,,,,,,,,,AFNE13.jpg,AFNE14.jpg,AFSA20.jpg,AFSA15.jpg,AFSA20.jpg,FS,4,num_2,16,num_2,0.566821979126,,,2017_May_04_1939,60.0131853396,MAFE4ImagesEEG,001,200028,
AFNE01.JPG,AFNE01.JPG,AFNE01.JPG,AFNE01.JPG,AFNE01.JPG,AFNE01.JPG,,,,,,,,,,,,,5,4,54,3,,,,,,,,,,,AFNE03.jpg,AFSA17.jpg,AFSA03.jpg,AFNE04.jpg,AFNE04.jpg,FN,3,num_4,16,num_4,0.466823230265,,,2017_May_04_1939,60.0131853396,MAFE4ImagesEEG,001,200028,
AFNE01.JPG,AFNE01.JPG,AFNE01.JPG,AFNE01.JPG,AFNE01.JPG,AFNE01.JPG,,,,,,,,,,,,,5,5,55,9,,,,,,,,,,,AFNE08.jpg,AFSA19.jpg,AFNE19.jpg,AFSA01.jpg,AFSA01.jpg,FS,4,num_4,32,num_2,1.01663224585,,,2017_May_04_1939,60.0131853396,MAFE4ImagesEEG,001,200028,
AFNE01.JPG,AFNE01.JPG,AFNE01.JPG,AFNE01.JPG,AFNE01.JPG,AFNE01.JPG,,,,,,,,,,,,,5,6,56,0,,,,,,,,,,,AFSA13.jpg,AFNE12.jpg,AFNE14.jpg,AFSA11.jpg,AFSA11.jpg,FS,4,num_4,16,num_4,0.600194881205,,,2017_May_04_1939,60.0131853396,MAFE4ImagesEEG,001,200028,
AFNE01.JPG,AFNE01.JPG,AFNE01.JPG,AFNE01.JPG,AFNE01.JPG,AFNE01.JPG,,,,,,,,,,,,,5,7,57,1,,,,,,,,,,,AFNE20.jpg,AFSA04.jpg,AFNE10.jpg,AFSA19.jpg,AFSA19.jpg,FS,4,num_4,16,num_4,0.566827752627,,,2017_May_04_1939,60.0131853396,MAFE4ImagesEEG,001,200028,
AFNE01.JPG,AFNE01.JPG,AFNE01.JPG,AFNE01.JPG,AFNE01.JPG,AFNE01.JPG,,,,,,,,,,,,,5,8,58,4,,,,,,,,,,,AFNE16.jpg,AFSA11.jpg,AFSA15.jpg,AFNE14.jpg,AFSA15.jpg,FS,4,num_2,32,num_8,0.550237202551,,,2017_May_04_1939,60.0131853396,MAFE4ImagesEEG,001,200028,
AFNE01.JPG,AFNE01.JPG,AFNE01.JPG,AFNE01.JPG,AFNE01.JPG,AFNE01.JPG,,,,,,,,,,,,,5,9,59,7,,,,,,,,,,,AFSA12.jpg,AFSA11.jpg,AFNE02.jpg,AFNE18.jpg,AFSA12.jpg,FS,4,num_8,16,num_8,0.550145471236,,,2017_May_04_1939,60.0131853396,MAFE4ImagesEEG,001,200028,
,,,,,,,,,,,,,,,,,,,,,,,,,,,,,,,,,,,,,,,,,,,space,7.94956057123,2017_May_04_1939,60.0131853396,MAFE4ImagesEEG,001,200028,
AFNE01.JPG,AFNE01.JPG,AFNE01.JPG,AFNE01.JPG,AFNE01.JPG,AFNE01.JPG,,,,,,,,,,,,,,,,,0,0,0,8,,,,,,,AMSA05.jpg,AMNE08.jpg,AMSA08.jpg,AMNE03.jpg,AMNE08.jpg,MN,1,num_6,32,num_4,0.933441507863,,,2017_May_04_1939,60.0131853396,MAFE4ImagesEEG,001,200028,
AFNE01.JPG,AFNE01.JPG,AFNE01.JPG,AFNE01.JPG,AFNE01.JPG,AFNE01.JPG,,,,,,,,,,,,,,,,,0,1,1,0,,,,,,,AMSA06.jpg,AMNE18.jpg,AMSA11.jpg,AMNE10.jpg,AMSA06.jpg,MS,2,num_8,32,num_6,1.03346880293,,,2017_May_04_1939,60.0131853396,MAFE4ImagesEEG,001,200028,
AFNE01.JPG,AFNE01.JPG,AFNE01.JPG,AFNE01.JPG,AFNE01.JPG,AFNE01.JPG,,,,,,,,,,,,,,,,,0,2,2,9,,,,,,,AMNE18.jpg,AMSA17.jpg,AMSA14.jpg,AMNE14.jpg,AMSA14.jpg,MS,2,num_2,32,num_4,0.766804723535,,,2017_May_04_1939,60.0131853396,MAFE4ImagesEEG,001,200028,
AFNE01.JPG,AFNE01.JPG,AFNE01.JPG,AFNE01.JPG,AFNE01.JPG,AFNE01.JPG,,,,,,,,,,,,,,,,,0,3,3,7,,,,,,,AMSA07.jpg,AMNE14.jpg,AMSA16.jpg,AMNE15.jpg,AMSA07.jpg,MS,2,num_8,16,num_8,1.10011421517,,,2017_May_04_1939,60.0131853396,MAFE4ImagesEEG,001,200028,
AFNE01.JPG,AFNE01.JPG,AFNE01.JPG,AFNE01.JPG,AFNE01.JPG,AFNE01.JPG,,,,,,,,,,,,,,,,,0,4,4,6,,,,,,,AMSA13.jpg,AMNE16.jpg,AMNE12.jpg,AMSA02.jpg,AMSA02.jpg,MS,2,num_4,16,num_4,0.716743766796,,,2017_May_04_1939,60.0131853396,MAFE4ImagesEEG,001,200028,
AFNE01.JPG,AFNE01.JPG,AFNE01.JPG,AFNE01.JPG,AFNE01.JPG,AFNE01.JPG,,,,,,,,,,,,,,,,,0,5,5,4,,,,,,,AMSA14.jpg,AMNE11.jpg,AMSA15.jpg,AMNE04.jpg,AMNE04.jpg,MN,1,num_4,16,num_4,0.716823951807,,,2017_May_04_1939,60.0131853396,MAFE4ImagesEEG,001,200028,
AFNE01.JPG,AFNE01.JPG,AFNE01.JPG,AFNE01.JPG,AFNE01.JPG,AFNE01.JPG,,,,,,,,,,,,,,,,,0,6,6,3,,,,,,,AMSA08.jpg,AMNE18.jpg,AMSA07.jpg,AMNE12.jpg,AMSA07.jpg,MS,2,num_2,32,num_6,0.98352812347,,,2017_May_04_1939,60.0131853396,MAFE4ImagesEEG,001,200028,
AFNE01.JPG,AFNE01.JPG,AFNE01.JPG,AFNE01.JPG,AFNE01.JPG,AFNE01.JPG,,,,,,,,,,,,,,,,,0,7,7,2,,,,,,,AMSA08.jpg,AMNE18.jpg,AMNE17.jpg,AMSA09.jpg,AMNE17.jpg,MN,1,num_2,32,num_6,0.649987378856,,,2017_May_04_1939,60.0131853396,MAFE4ImagesEEG,001,200028,
AFNE01.JPG,AFNE01.JPG,AFNE01.JPG,AFNE01.JPG,AFNE01.JPG,AFNE01.JPG,,,,,,,,,,,,,,,,,0,8,8,1,,,,,,,AMSA09.jpg,AMSA10.jpg,AMNE14.jpg,AMNE16.jpg,AMNE16.jpg,MN,1,num_4,16,num_4,0.750115065137,,,2017_May_04_1939,60.0131853396,MAFE4ImagesEEG,001,200028,
AFNE01.JPG,AFNE01.JPG,AFNE01.JPG,AFNE01.JPG,AFNE01.JPG,AFNE01.JPG,,,,,,,,,,,,,,,,,0,9,9,5,,,,,,,AMSA14.jpg,AMNE07.jpg,AMNE02.jpg,AMSA09.jpg,AMNE02.jpg,MN,1,num_2,32,num_6,1.19996285834,,,2017_May_04_1939,60.0131853396,MAFE4ImagesEEG,001,200028,
AFNE01.JPG,AFNE01.JPG,AFNE01.JPG,AFNE01.JPG,AFNE01.JPG,AFNE01.JPG,,,,,,,,,,,,,,,,,1,0,10,6,,,,,,,AMNE17.jpg,AMSA18.jpg,AMSA13.jpg,AMNE16.jpg,AMSA13.jpg,MS,2,num_2,16,num_2,0.983434467576,,,2017_May_04_1939,60.0131853396,MAFE4ImagesEEG,001,200028,
AFNE01.JPG,AFNE01.JPG,AFNE01.JPG,AFNE01.JPG,AFNE01.JPG,AFNE01.JPG,,,,,,,,,,,,,,,,,1,1,11,8,,,,,,,AMSA15.jpg,AMNE04.jpg,AMSA18.jpg,AMNE02.jpg,AMNE04.jpg,MN,1,num_6,16,num_6,0.450167890871,,,2017_May_04_1939,60.0131853396,MAFE4ImagesEEG,001,200028,
AFNE01.JPG,AFNE01.JPG,AFNE01.JPG,AFNE01.JPG,AFNE01.JPG,AFNE01.JPG,,,,,,,,,,,,,,,,,1,2,12,4,,,,,,,AMSA11.jpg,AMNE07.jpg,AMSA08.jpg,AMNE17.jpg,AMNE17.jpg,MN,1,num_4,16,num_4,1.01674290095,,,2017_May_04_1939,60.0131853396,MAFE4ImagesEEG,001,200028,
AFNE01.JPG,AFNE01.JPG,AFNE01.JPG,AFNE01.JPG,AFNE01.JPG,AFNE01.JPG,,,,,,,,,,,,,,,,,1,3,13,2,,,,,,,AMNE05.jpg,AMNE19.jpg,AMSA18.jpg,AMSA05.jpg,AMSA18.jpg,MS,2,num_2,16,num_2,0.916729397839,,,2017_May_04_1939,60.0131853396,MAFE4ImagesEEG,001,200028,
AFNE01.JPG,AFNE01.JPG,AFNE01.JPG,AFNE01.JPG,AFNE01.JPG,AFNE01.JPG,,,,,,,,,,,,,,,,,1,4,14,7,,,,,,,AMSA18.jpg,AMSA04.jpg,AMNE07.jpg,AMNE14.jpg,AMSA04.jpg,MS,2,num_6,16,num_6,0.450177192222,,,2017_May_04_1939,60.0131853396,MAFE4ImagesEEG,001,200028,
AFNE01.JPG,AFNE01.JPG,AFNE01.JPG,AFNE01.JPG,AFNE01.JPG,AFNE01.JPG,,,,,,,,,,,,,,,,,1,5,15,0,,,,,,,AMNE02.jpg,AMNE06.jpg,AMSA08.jpg,AMSA10.jpg,AMNE06.jpg,MN,1,num_6,16,num_6,0.816854453878,,,2017_May_04_1939,60.0131853396,MAFE4ImagesEEG,001,200028,
AFNE01.JPG,AFNE01.JPG,AFNE01.JPG,AFNE01.JPG,AFNE01.JPG,AFNE01.JPG,,,,,,,,,,,,,,,,,1,6,16,9,,,,,,,AMNE11.jpg,AMSA15.jpg,AMSA19.jpg,AMNE17.jpg,AMNE11.jpg,MN,1,num_8,16,num_8,1.0832808658,,,2017_May_04_1939,60.0131853396,MAFE4ImagesEEG,001,200028,
AFNE01.JPG,AFNE01.JPG,AFNE01.JPG,AFNE01.JPG,AFNE01.JPG,AFNE01.JPG,,,,,,,,,,,,,,,,,1,7,17,3,,,,,,,AMNE13.jpg,AMSA01.jpg,AMSA05.jpg,AMNE01.jpg,AMNE13.jpg,MN,1,num_8,16,num_8,0.866680308711,,,2017_May_04_1939,60.0131853396,MAFE4ImagesEEG,001,200028,
AFNE01.JPG,AFNE01.JPG,AFNE01.JPG,AFNE01.JPG,AFNE01.JPG,AFNE01.JPG,,,,,,,,,,,,,,,,,1,8,18,1,,,,,,,AMNE08.jpg,AMSA10.jpg,AMNE07.jpg,AMSA15.jpg,AMNE07.jpg,MN,1,num_2,32,num_8,0.783622035757,,,2017_May_04_1939,60.0131853396,MAFE4ImagesEEG,001,200028,
AFNE01.JPG,AFNE01.JPG,AFNE01.JPG,AFNE01.JPG,AFNE01.JPG,AFNE01.JPG,,,,,,,,,,,,,,,,,1,9,19,5,,,,,,,AMSA17.jpg,AMNE11.jpg,AMSA06.jpg,AMNE13.jpg,AMNE11.jpg,MN,1,num_6,32,num_4,0.866780058714,,,2017_May_04_1939,60.0131853396,MAFE4ImagesEEG,001,200028,
AFNE01.JPG,AFNE01.JPG,AFNE01.JPG,AFNE01.JPG,AFNE01.JPG,AFNE01.JPG,,,,,,,,,,,,,,,,,2,0,20,5,,,,,,,AMNE08.jpg,AMSA18.jpg,AMSA07.jpg,AMNE09.jpg,AMNE09.jpg,MN,1,num_4,32,num_8,1.13346145791,,,2017_May_04_1939,60.0131853396,MAFE4ImagesEEG,001,200028,
AFNE01.JPG,AFNE01.JPG,AFNE01.JPG,AFNE01.JPG,AFNE01.JPG,AFNE01.JPG,,,,,,,,,,,,,,,,,2,1,21,7,,,,,,,AMSA08.jpg,AMNE15.jpg,AMNE03.jpg,AMSA13.jpg,AMSA08.jpg,MS,2,num_8,32,num_4,0.766794780502,,,2017_May_04_1939,60.0131853396,MAFE4ImagesEEG,001,200028,
AFNE01.JPG,AFNE01.JPG,AFNE01.JPG,AFNE01.JPG,AFNE01.JPG,AFNE01.JPG,,,,,,,,,,,,,,,,,2,2,22,4,,,,,,,AMSA08.jpg,AMNE05.jpg,AMNE12.jpg,AMSA11.jpg,AMNE12.jpg,MN,1,num_2,32,num_6,0.550142263761,,,2017_May_04_1939,60.0131853396,MAFE4ImagesEEG,001,200028,
AFNE01.JPG,AFNE01.JPG,AFNE01.JPG,AFNE01.JPG,AFNE01.JPG,AFNE01.JPG,,,,,,,,,,,,,,,,,2,3,23,9,,,,,,,AMSA15.jpg,AMSA09.jpg,AMNE08.jpg,AMNE02.jpg,AMNE08.jpg,MN,1,num_2,32,num_6,0.683713414473,,,2017_May_04_1939,60.0131853396,MAFE4ImagesEEG,001,200028,
AFNE01.JPG,AFNE01.JPG,AFNE01.JPG,AFNE01.JPG,AFNE01.JPG,AFNE01.JPG,,,,,,,,,,,,,,,,,2,4,24,3,,,,,,,AMNE07.jpg,AMNE10.jpg,AMSA19.jpg,AMSA18.jpg,AMNE07.jpg,MN,1,num_8,16,num_8,1.28339767898,,,2017_May_04_1939,60.0131853396,MAFE4ImagesEEG,001,200028,
AFNE01.JPG,AFNE01.JPG,AFNE01.JPG,AFNE01.JPG,AFNE01.JPG,AFNE01.JPG,,,,,,,,,,,,,,,,,2,5,25,2,,,,,,,AMSA04.jpg,AMNE18.jpg,AMSA18.jpg,AMNE16.jpg,AMNE18.jpg,MN,1,num_6,32,num_4,0.900165789993,,,2017_May_04_1939,60.0131853396,MAFE4ImagesEEG,001,200028,
AFNE01.JPG,AFNE01.JPG,AFNE01.JPG,AFNE01.JPG,AFNE01.JPG,AFNE01.JPG,,,,,,,,,,,,,,,,,2,6,26,8,,,,,,,AMSA06.jpg,AMNE02.jpg,AMNE11.jpg,AMSA19.jpg,AMNE11.jpg,MN,1,num_2,16,num_2,0.750277679879,,,2017_May_04_1939,60.0131853396,MAFE4ImagesEEG,001,200028,
AFNE01.JPG,AFNE01.JPG,AFNE01.JPG,AFNE01.JPG,AFNE01.JPG,AFNE01.JPG,,,,,,,,,,,,,,,,,2,7,27,1,,,,,,,AMSA12.jpg,AMNE05.jpg,AMSA17.jpg,AMNE16.jpg,AMNE05.jpg,MN,1,num_6,16,num_6,0.816746685654,,,2017_May_04_1939,60.0131853396,MAFE4ImagesEEG,001,200028,
AFNE01.JPG,AFNE01.JPG,AFNE01.JPG,AFNE01.JPG,AFNE01.JPG,AFNE01.JPG,,,,,,,,,,,,,,,,,2,8,28,0,,,,,,,AMSA04.jpg,AMSA09.jpg,AMNE03.jpg,AMNE06.jpg,AMSA09.jpg,MS,2,num_6,16,num_6,0.650135881035,,,2017_May_04_1939,60.0131853396,MAFE4ImagesEEG,001,200028,
AFNE01.JPG,AFNE01.JPG,AFNE01.JPG,AFNE01.JPG,AFNE01.JPG,AFNE01.JPG,,,,,,,,,,,,,,,,,2,9,29,6,,,,,,,AMNE01.jpg,AMSA12.jpg,AMSA06.jpg,AMNE19.jpg,AMSA06.jpg,MS,2,num_2,32,num_4,1.14989452483,,,2017_May_04_1939,60.0131853396,MAFE4ImagesEEG,001,200028,
AFNE01.JPG,AFNE01.JPG,AFNE01.JPG,AFNE01.JPG,AFNE01.JPG,AFNE01.JPG,,,,,,,,,,,,,,,,,3,0,30,6,,,,,,,AMSA01.jpg,AMNE11.jpg,AMSA03.jpg,AMNE07.jpg,AMSA03.jpg,MS,2,num_2,16,num_2,0.816783570684,,,2017_May_04_1939,60.0131853396,MAFE4ImagesEEG,001,200028,
AFNE01.JPG,AFNE01.JPG,AFNE01.JPG,AFNE01.JPG,AFNE01.JPG,AFNE01.JPG,,,,,,,,,,,,,,,,,3,1,31,8,,,,,,,AMSA16.jpg,AMNE04.jpg,AMNE08.jpg,AMSA03.jpg,AMNE08.jpg,MN,1,num_2,16,num_2,0.916460297769,,,2017_May_04_1939,60.0131853396,MAFE4ImagesEEG,001,200028,
AFNE01.JPG,AFNE01.JPG,AFNE01.JPG,AFNE01.JPG,AFNE01.JPG,AFNE01.JPG,,,,,,,,,,,,,,,,,3,2,32,5,,,,,,,AMSA11.jpg,AMNE19.jpg,AMSA02.jpg,AMNE06.jpg,AMSA11.jpg,MS,2,num_8,32,num_6,1.08328150725,,,2017_May_04_1939,60.0131853396,MAFE4ImagesEEG,001,200028,
AFNE01.JPG,AFNE01.JPG,AFNE01.JPG,AFNE01.JPG,AFNE01.JPG,AFNE01.JPG,,,,,,,,,,,,,,,,,3,3,33,1,,,,,,,AMSA15.jpg,AMNE13.jpg,AMSA10.jpg,AMNE18.jpg,AMNE13.jpg,MN,1,num_6,32,num_4,1.03348291526,,,2017_May_04_1939,60.0131853396,MAFE4ImagesEEG,001,200028,
AFNE01.JPG,AFNE01.JPG,AFNE01.JPG,AFNE01.JPG,AFNE01.JPG,AFNE01.JPG,,,,,,,,,,,,,,,,,3,4,34,2,,,,,,,AMNE05.jpg,AMSA03.jpg,AMNE04.jpg,AMSA08.jpg,AMSA03.jpg,MS,2,num_6,16,num_6,0.616783506703,,,2017_May_04_1939,60.0131853396,MAFE4ImagesEEG,001,200028,
AFNE01.JPG,AFNE01.JPG,AFNE01.JPG,AFNE01.JPG,AFNE01.JPG,AFNE01.JPG,,,,,,,,,,,,,,,,,3,5,35,9,,,,,,,AMSA11.jpg,AMSA14.jpg,AMNE12.jpg,AMNE04.jpg,AMNE12.jpg,MN,1,num_2,16,num_2,0.733568777097,,,2017_May_04_1939,60.0131853396,MAFE4ImagesEEG,001,200028,
AFNE01.JPG,AFNE01.JPG,AFNE01.JPG,AFNE01.JPG,AFNE01.JPG,AFNE01.JPG,,,,,,,,,,,,,,,,,3,6,36,0,,,,,,,AMNE15.jpg,AMSA10.jpg,AMSA14.jpg,AMNE19.jpg,AMSA10.jpg,MS,2,num_6,16,num_6,0.666768127121,,,2017_May_04_1939,60.0131853396,MAFE4ImagesEEG,001,200028,
AFNE01.JPG,AFNE01.JPG,AFNE01.JPG,AFNE01.JPG,AFNE01.JPG,AFNE01.JPG,,,,,,,,,,,,,,,,,3,7,37,7,,,,,,,AMNE20.jpg,AMSA02.jpg,AMSA05.jpg,AMNE14.jpg,AMSA02.jpg,MS,2,num_6,32,num_2,0.7001281993,,,2017_May_04_1939,60.0131853396,MAFE4ImagesEEG,001,200028,
AFNE01.JPG,AFNE01.JPG,AFNE01.JPG,AFNE01.JPG,AFNE01.JPG,AFNE01.JPG,,,,,,,,,,,,,,,,,3,8,38,3,,,,,,,AMSA12.jpg,AMNE05.jpg,AMSA19.jpg,AMNE16.jpg,AMSA19.jpg,MS,2,num_2,16,num_2,0.816811154364,,,2017_May_04_1939,60.0131853396,MAFE4ImagesEEG,001,200028,
AFNE01.JPG,AFNE01.JPG,AFNE01.JPG,AFNE01.JPG,AFNE01.JPG,AFNE01.JPG,,,,,,,,,,,,,,,,,3,9,39,4,,,,,,,AMSA19.jpg,AMNE01.jpg,AMNE08.jpg,AMSA18.jpg,AMNE08.jpg,MN,1,num_2,32,num_6,0.850106757833,,,2017_May_04_1939,60.0131853396,MAFE4ImagesEEG,001,200028,
AFNE01.JPG,AFNE01.JPG,AFNE01.JPG,AFNE01.JPG,AFNE01.JPG,AFNE01.JPG,,,,,,,,,,,,,,,,,4,0,40,4,,,,,,,AMNE03.jpg,AMSA19.jpg,AMNE10.jpg,AMSA01.jpg,AMNE10.jpg,MN,1,num_2,16,num_2,0.650142937433,,,2017_May_04_1939,60.0131853396,MAFE4ImagesEEG,001,200028,
AFNE01.JPG,AFNE01.JPG,AFNE01.JPG,AFNE01.JPG,AFNE01.JPG,AFNE01.JPG,,,,,,,,,,,,,,,,,4,1,41,9,,,,,,,AMNE10.jpg,AMNE03.jpg,AMSA10.jpg,AMSA07.jpg,AMSA07.jpg,MS,2,num_4,16,num_4,0.866762738675,,,2017_May_04_1939,60.0131853396,MAFE4ImagesEEG,001,200028,
AFNE01.JPG,AFNE01.JPG,AFNE01.JPG,AFNE01.JPG,AFNE01.JPG,AFNE01.JPG,,,,,,,,,,,,,,,,,4,2,42,6,,,,,,,AMNE06.jpg,AMNE09.jpg,AMSA04.jpg,AMSA20.jpg,AMNE09.jpg,MN,1,num_6,32,num_8,0.816766571486,,,2017_May_04_1939,60.0131853396,MAFE4ImagesEEG,001,200028,
AFNE01.JPG,AFNE01.JPG,AFNE01.JPG,AFNE01.JPG,AFNE01.JPG,AFNE01.JPG,,,,,,,,,,,,,,,,,4,3,43,2,,,,,,,AMSA20.jpg,AMNE18.jpg,AMSA04.jpg,AMNE17.jpg,AMSA04.jpg,MS,2,num_2,16,num_2,0.466813287232,,,2017_May_04_1939,60.0131853396,MAFE4ImagesEEG,001,200028,
AFNE01.JPG,AFNE01.JPG,AFNE01.JPG,AFNE01.JPG,AFNE01.JPG,AFNE01.JPG,,,,,,,,,,,,,,,,,4,4,44,7,,,,,,,AMNE19.jpg,AMSA13.jpg,AMNE02.jpg,AMSA10.jpg,AMSA13.jpg,MS,2,num_6,16,num_6,1.70004544873,,,2017_May_04_1939,60.0131853396,MAFE4ImagesEEG,001,200028,
AFNE01.JPG,AFNE01.JPG,AFNE01.JPG,AFNE01.JPG,AFNE01.JPG,AFNE01.JPG,,,,,,,,,,,,,,,,,4,5,45,8,,,,,,,AMSA11.jpg,AMNE10.jpg,AMNE02.jpg,AMSA08.jpg,AMSA08.jpg,MS,2,num_4,16,num_4,0.733489554608,,,2017_May_04_1939,60.0131853396,MAFE4ImagesEEG,001,200028,
AFNE01.JPG,AFNE01.JPG,AFNE01.JPG,AFNE01.JPG,AFNE01.JPG,AFNE01.JPG,,,,,,,,,,,,,,,,,4,6,46,3,,,,,,,AMNE02.jpg,AMNE19.jpg,AMSA07.jpg,AMSA14.jpg,AMNE02.jpg,MN,1,num_8,16,num_8,0.700114728417,,,2017_May_04_1939,60.0131853396,MAFE4ImagesEEG,001,200028,
AFNE01.JPG,AFNE01.JPG,AFNE01.JPG,AFNE01.JPG,AFNE01.JPG,AFNE01.JPG,,,,,,,,,,,,,,,,,4,7,47,5,,,,,,,AMSA04.jpg,AMNE13.jpg,AMNE17.jpg,AMSA07.jpg,AMNE13.jpg,MN,1,num_6,16,num_6,0.833474511979,,,2017_May_04_1939,60.0131853396,MAFE4ImagesEEG,001,200028,
AFNE01.JPG,AFNE01.JPG,AFNE01.JPG,AFNE01.JPG,AFNE01.JPG,AFNE01.JPG,,,,,,,,,,,,,,,,,4,8,48,1,,,,,,,AMSA01.jpg,AMSA17.jpg,AMNE05.jpg,AMNE18.jpg,AMNE18.jpg,MN,1,num_4,32,num_2,1.01672269451,,,2017_May_04_1939,60.0131853396,MAFE4ImagesEEG,001,200028,
AFNE01.JPG,AFNE01.JPG,AFNE01.JPG,AFNE01.JPG,AFNE01.JPG,AFNE01.JPG,,,,,,,,,,,,,,,,,4,9,49,0,,,,,,,AMSA04.jpg,AMNE01.jpg,AMSA19.jpg,AMNE08.jpg,AMSA04.jpg,MS,2,num_8,16,num_8,1.01676952234,,,2017_May_04_1939,60.0131853396,MAFE4ImagesEEG,001,200028,
AFNE01.JPG,AFNE01.JPG,AFNE01.JPG,AFNE01.JPG,AFNE01.JPG,AFNE01.JPG,,,,,,,,,,,,,,,,,5,0,50,3,,,,,,,AMNE17.jpg,AMNE16.jpg,AMSA05.jpg,AMSA17.jpg,AMSA05.jpg,MS,2,num_2,16,num_2,0.800113156671,,,2017_May_04_1939,60.0131853396,MAFE4ImagesEEG,001,200028,
AFNE01.JPG,AFNE01.JPG,AFNE01.JPG,AFNE01.JPG,AFNE01.JPG,AFNE01.JPG,,,,,,,,,,,,,,,,,5,1,51,8,,,,,,,AMNE13.jpg,AMSA07.jpg,AMSA03.jpg,AMNE03.jpg,AMSA03.jpg,MS,2,num_2,16,num_2,1.53342309757,,,2017_May_04_1939,60.0131853396,MAFE4ImagesEEG,001,200028,
AFNE01.JPG,AFNE01.JPG,AFNE01.JPG,AFNE01.JPG,AFNE01.JPG,AFNE01.JPG,,,,,,,,,,,,,,,,,5,2,52,5,,,,,,,AMNE19.jpg,AMSA06.jpg,AMSA14.jpg,AMNE01.jpg,AMNE19.jpg,MN,1,num_8,32,num_4,0.883456245996,,,2017_May_04_1939,60.0131853396,MAFE4ImagesEEG,001,200028,
AFNE01.JPG,AFNE01.JPG,AFNE01.JPG,AFNE01.JPG,AFNE01.JPG,AFNE01.JPG,,,,,,,,,,,,,,,,,5,3,53,0,,,,,,,AMNE04.jpg,AMNE13.jpg,AMSA07.jpg,AMSA03.jpg,AMNE13.jpg,MN,1,num_6,16,num_6,0.750132064335,,,2017_May_04_1939,60.0131853396,MAFE4ImagesEEG,001,200028,
AFNE01.JPG,AFNE01.JPG,AFNE01.JPG,AFNE01.JPG,AFNE01.JPG,AFNE01.JPG,,,,,,,,,,,,,,,,,5,4,54,1,,,,,,,AMNE19.jpg,AMNE20.jpg,AMSA07.jpg,AMSA18.jpg,AMNE20.jpg,MN,1,num_6,32,num_8,0.750144573161,,,2017_May_04_1939,60.0131853396,MAFE4ImagesEEG,001,200028,
AFNE01.JPG,AFNE01.JPG,AFNE01.JPG,AFNE01.JPG,AFNE01.JPG,AFNE01.JPG,,,,,,,,,,,,,,,,,5,5,55,9,,,,,,,AMSA14.jpg,AMSA11.jpg,AMNE04.jpg,AMNE08.jpg,AMNE04.jpg,MN,1,num_2,32,num_4,0.916985026794,,,2017_May_04_1939,60.0131853396,MAFE4ImagesEEG,001,200028,
AFNE01.JPG,AFNE01.JPG,AFNE01.JPG,AFNE01.JPG,AFNE01.JPG,AFNE01.JPG,,,,,,,,,,,,,,,,,5,6,56,4,,,,,,,AMSA06.jpg,AMSA16.jpg,AMNE05.jpg,AMNE20.jpg,AMNE05.jpg,MN,1,num_2,32,num_8,1.13330269209,,,2017_May_04_1939,60.0131853396,MAFE4ImagesEEG,001,200028,
AFNE01.JPG,AFNE01.JPG,AFNE01.JPG,AFNE01.JPG,AFNE01.JPG,AFNE01.JPG,,,,,,,,,,,,,,,,,5,7,57,7,,,,,,,AMNE03.jpg,AMSA11.jpg,AMNE11.jpg,AMSA14.jpg,AMNE03.jpg,MN,1,num_8,32,num_2,0.816767212935,,,2017_May_04_1939,60.0131853396,MAFE4ImagesEEG,001,200028,
AFNE01.JPG,AFNE01.JPG,AFNE01.JPG,AFNE01.JPG,AFNE01.JPG,AFNE01.JPG,,,,,,,,,,,,,,,,,5,8,58,2,,,,,,,AMNE08.jpg,AMSA15.jpg,AMSA14.jpg,AMNE15.jpg,AMNE15.jpg,MN,1,num_4,16,num_4,1.03343993635,,,2017_May_04_1939,60.0131853396,MAFE4ImagesEEG,001,200028,
AFNE01.JPG,AFNE01.JPG,AFNE01.JPG,AFNE01.JPG,AFNE01.JPG,AFNE01.JPG,,,,,,,,,,,,,,,,,5,9,59,6,,,,,,,AMNE06.jpg,AMSA03.jpg,AMNE09.jpg,AMSA17.jpg,AMNE06.jpg,MN,1,num_8,16,num_8,0.466762931319,,,2017_May_04_1939,60.0131853396,MAFE4ImagesEEG,001,200028,
,,,,,,,,,,,,,,,,,,,,,,,,,,,,,,,,,,,,,,,,,,,space,15.2823094111,2017_May_04_1939,60.0131853396,MAFE4ImagesEEG,001,200028,
AFNE01.JPG,AFNE01.JPG,AFNE01.JPG,AFNE01.JPG,AFNE01.JPG,AFNE01.JPG,,,,,,,,,,,,,,,,,,,,,0,0,0,4,,,AFSA17.jpg,AFNE11.jpg,AFSA05.jpg,AFNE12.jpg,AFNE11.jpg,FN,3,num_6,16,num_6,0.883415191201,,,2017_May_04_1939,60.0131853396,MAFE4ImagesEEG,001,200028,
AFNE01.JPG,AFNE01.JPG,AFNE01.JPG,AFNE01.JPG,AFNE01.JPG,AFNE01.JPG,,,,,,,,,,,,,,,,,,,,,0,1,1,9,,,AFNE16.jpg,AFSA03.jpg,AFSA01.jpg,AFNE04.jpg,AFSA03.jpg,FS,4,num_6,32,num_2,0.46682387148,,,2017_May_04_1939,60.0131853396,MAFE4ImagesEEG,001,200028,
AFNE01.JPG,AFNE01.JPG,AFNE01.JPG,AFNE01.JPG,AFNE01.JPG,AFNE01.JPG,,,,,,,,,,,,,,,,,,,,,0,2,2,1,,,AFNE13.jpg,AFNE16.jpg,AFSA07.jpg,AFSA13.jpg,AFNE16.jpg,FN,3,num_6,32,num_4,0.700124029769,,,2017_May_04_1939,60.0131853396,MAFE4ImagesEEG,001,200028,
AFNE01.JPG,AFNE01.JPG,AFNE01.JPG,AFNE01.JPG,AFNE01.JPG,AFNE01.JPG,,,,,,,,,,,,,,,,,,,,,0,3,3,3,,,AFNE09.jpg,AFSA02.jpg,AFNE19.jpg,AFSA12.jpg,AFSA12.jpg,FS,4,num_4,16,num_4,0.716803745134,,,2017_May_04_1939,60.0131853396,MAFE4ImagesEEG,001,200028,
AFNE01.JPG,AFNE01.JPG,AFNE01.JPG,AFNE01.JPG,AFNE01.JPG,AFNE01.JPG,,,,,,,,,,,,,,,,,,,,,0,4,4,0,,,AFSA19.jpg,AFSA12.jpg,AFNE19.jpg,AFNE04.jpg,AFSA19.jpg,FS,4,num_8,16,num_8,0.416787291411,,,2017_May_04_1939,60.0131853396,MAFE4ImagesEEG,001,200028,
AFNE01.JPG,AFNE01.JPG,AFNE01.JPG,AFNE01.JPG,AFNE01.JPG,AFNE01.JPG,,,,,,,,,,,,,,,,,,,,,0,5,5,2,,,AFSA14.jpg,AFNE20.jpg,AFSA19.jpg,AFNE06.jpg,AFSA14.jpg,FS,4,num_8,16,num_8,0.56680465932,,,2017_May_04_1939,60.0131853396,MAFE4ImagesEEG,001,200028,
AFNE01.JPG,AFNE01.JPG,AFNE01.JPG,AFNE01.JPG,AFNE01.JPG,AFNE01.JPG,,,,,,,,,,,,,,,,,,,,,0,6,6,5,,,AFNE16.jpg,AFSA18.jpg,AFNE18.jpg,AFSA05.jpg,AFNE16.jpg,FN,3,num_8,16,num_8,0.416650656378,,,2017_May_04_1939,60.0131853396,MAFE4ImagesEEG,001,200028,
AFNE01.JPG,AFNE01.JPG,AFNE01.JPG,AFNE01.JPG,AFNE01.JPG,AFNE01.JPG,,,,,,,,,,,,,,,,,,,,,0,7,7,6,,,AFNE11.jpg,AFSA10.jpg,AFNE16.jpg,AFSA02.jpg,AFNE11.jpg,FN,3,num_8,16,num_8,0.566825828049,,,2017_May_04_1939,60.0131853396,MAFE4ImagesEEG,001,200028,
AFNE01.JPG,AFNE01.JPG,AFNE01.JPG,AFNE01.JPG,AFNE01.JPG,AFNE01.JPG,,,,,,,,,,,,,,,,,,,,,0,8,8,7,,,AFSA19.jpg,AFNE14.jpg,AFSA11.jpg,AFNE02.jpg,AFSA11.jpg,FS,4,num_2,32,num_4,0.766763989581,,,2017_May_04_1939,60.0131853396,MAFE4ImagesEEG,001,200028,
AFNE01.JPG,AFNE01.JPG,AFNE01.JPG,AFNE01.JPG,AFNE01.JPG,AFNE01.JPG,,,,,,,,,,,,,,,,,,,,,0,9,9,8,,,AFSA18.jpg,AFNE02.jpg,AFNE04.jpg,AFSA07.jpg,AFSA18.jpg,FS,4,num_8,32,num_2,1.36670516594,,,2017_May_04_1939,60.0131853396,MAFE4ImagesEEG,001,200028,
AFNE01.JPG,AFNE01.JPG,AFNE01.JPG,AFNE01.JPG,AFNE01.JPG,AFNE01.JPG,,,,,,,,,,,,,,,,,,,,,1,0,10,2,,,AFNE04.jpg,AFSA18.jpg,AFNE09.jpg,AFSA08.jpg,AFSA18.jpg,FS,4,num_6,16,num_6,0.450196757447,,,2017_May_04_1939,60.0131853396,MAFE4ImagesEEG,001,200028,
AFNE01.JPG,AFNE01.JPG,AFNE01.JPG,AFNE01.JPG,AFNE01.JPG,AFNE01.JPG,,,,,,,,,,,,,,,,,,,,,1,1,11,7,,,AFNE20.jpg,AFNE10.jpg,AFSA05.jpg,AFSA14.jpg,AFNE10.jpg,FN,3,num_6,32,num_8,0.766744424356,,,2017_May_04_1939,60.0131853396,MAFE4ImagesEEG,001,200028,
AFNE01.JPG,AFNE01.JPG,AFNE01.JPG,AFNE01.JPG,AFNE01.JPG,AFNE01.JPG,,,,,,,,,,,,,,,,,,,,,1,2,12,0,,,AFNE01.jpg,AFSA18.jpg,AFNE16.jpg,AFSA14.jpg,AFSA14.jpg,FS,4,num_4,16,num_4,0.966746092308,,,2017_May_04_1939,60.0131853396,MAFE4ImagesEEG,001,200028,
AFNE01.JPG,AFNE01.JPG,AFNE01.JPG,AFNE01.JPG,AFNE01.JPG,AFNE01.JPG,,,,,,,,,,,,,,,,,,,,,1,3,13,9,,,AFSA11.jpg,AFSA20.jpg,AFNE08.jpg,AFNE01.jpg,AFNE08.jpg,FN,3,num_2,16,num_2,1.03340273071,,,2017_May_04_1939,60.0131853396,MAFE4ImagesEEG,001,200028,
AFNE01.JPG,AFNE01.JPG,AFNE01.JPG,AFNE01.JPG,AFNE01.JPG,AFNE01.JPG,,,,,,,,,,,,,,,,,,,,,1,4,14,3,,,AFSA15.jpg,AFNE08.jpg,AFSA12.jpg,AFNE12.jpg,AFNE12.jpg,FN,3,num_4,32,num_2,0.900096189696,,,2017_May_04_1939,60.0131853396,MAFE4ImagesEEG,001,200028,
AFNE01.JPG,AFNE01.JPG,AFNE01.JPG,AFNE01.JPG,AFNE01.JPG,AFNE01.JPG,,,,,,,,,,,,,,,,,,,,,1,5,15,4,,,AFSA13.jpg,AFSA15.jpg,AFNE18.jpg,AFNE10.jpg,AFSA15.jpg,FS,4,num_6,16,num_6,0.683453295147,,,2017_May_04_1939,60.0131853396,MAFE4ImagesEEG,001,200028,
AFNE01.JPG,AFNE01.JPG,AFNE01.JPG,AFNE01.JPG,AFNE01.JPG,AFNE01.JPG,,,,,,,,,,,,,,,,,,,,,1,6,16,1,,,AFNE01.jpg,AFNE03.jpg,AFSA06.jpg,AFSA07.jpg,AFSA07.jpg,FS,4,num_4,16,num_4,0.466826116666,,,2017_May_04_1939,60.0131853396,MAFE4ImagesEEG,001,200028,
AFNE01.JPG,AFNE01.JPG,AFNE01.JPG,AFNE01.JPG,AFNE01.JPG,AFNE01.JPG,,,,,,,,,,,,,,,,,,,,,1,7,17,8,,,AFSA06.jpg,AFNE19.jpg,AFNE17.jpg,AFSA17.jpg,AFSA17.jpg,FS,4,num_4,32,num_8,0.850151020102,,,2017_May_04_1939,60.0131853396,MAFE4ImagesEEG,001,200028,
AFNE01.JPG,AFNE01.JPG,AFNE01.JPG,AFNE01.JPG,AFNE01.JPG,AFNE01.JPG,,,,,,,,,,,,,,,,,,,,,1,8,18,6,,,AFNE07.jpg,AFSA02.jpg,AFSA13.jpg,AFNE18.jpg,AFNE18.jpg,FN,3,num_4,16,num_4,0.683457785519,,,2017_May_04_1939,60.0131853396,MAFE4ImagesEEG,001,200028,
AFNE01.JPG,AFNE01.JPG,AFNE01.JPG,AFNE01.JPG,AFNE01.JPG,AFNE01.JPG,,,,,,,,,,,,,,,,,,,,,1,9,19,5,,,AFNE01.jpg,AFSA03.jpg,AFSA12.jpg,AFNE09.jpg,AFNE01.jpg,FN,3,num_8,16,num_8,0.800098723499,,,2017_May_04_1939,60.0131853396,MAFE4ImagesEEG,001,200028,
AFNE01.JPG,AFNE01.JPG,AFNE01.JPG,AFNE01.JPG,AFNE01.JPG,AFNE01.JPG,,,,,,,,,,,,,,,,,,,,,2,0,20,2,,,AFSA15.jpg,AFNE11.jpg,AFNE09.jpg,AFSA20.jpg,AFNE09.jpg,FN,3,num_2,16,num_2,1.20012771827,,,2017_May_04_1939,60.0131853396,MAFE4ImagesEEG,001,200028,
AFNE01.JPG,AFNE01.JPG,AFNE01.JPG,AFNE01.JPG,AFNE01.JPG,AFNE01.JPG,,,,,,,,,,,,,,,,,,,,,2,1,21,0,,,AFSA17.jpg,AFNE13.jpg,AFNE02.jpg,AFSA18.jpg,AFNE13.jpg,FN,3,num_6,32,num_8,0.966750262072,,,2017_May_04_1939,60.0131853396,MAFE4ImagesEEG,001,200028,
AFNE01.JPG,AFNE01.JPG,AFNE01.JPG,AFNE01.JPG,AFNE01.JPG,AFNE01.JPG,,,,,,,,,,,,,,,,,,,,,2,2,22,9,,,AFSA18.jpg,AFNE02.jpg,AFNE15.jpg,AFSA16.jpg,AFSA16.jpg,FS,4,num_4,32,num_8,0.616771639325,,,2017_May_04_1939,60.0131853396,MAFE4ImagesEEG,001,200028,
AFNE01.JPG,AFNE01.JPG,AFNE01.JPG,AFNE01.JPG,AFNE01.JPG,AFNE01.JPG,,,,,,,,,,,,,,,,,,,,,2,3,23,1,,,AFSA01.jpg,AFNE14.jpg,AFSA20.jpg,AFNE10.jpg,AFSA20.jpg,FS,4,num_2,16,num_2,0.550285954727,,,2017_May_04_1939,60.0131853396,MAFE4ImagesEEG,001,200028,
AFNE01.JPG,AFNE01.JPG,AFNE01.JPG,AFNE01.JPG,AFNE01.JPG,AFNE01.JPG,,,,,,,,,,,,,,,,,,,,,2,4,24,4,,,AFSA07.jpg,AFSA12.jpg,AFNE15.jpg,AFNE12.jpg,AFNE15.jpg,FN,3,num_2,16,num_2,0.550123981666,,,2017_May_04_1939,60.0131853396,MAFE4ImagesEEG,001,200028,
AFNE01.JPG,AFNE01.JPG,AFNE01.JPG,AFNE01.JPG,AFNE01.JPG,AFNE01.JPG,,,,,,,,,,,,,,,,,,,,,2,5,25,8,,,AFNE03.jpg,AFSA05.jpg,AFNE19.jpg,AFSA04.jpg,AFSA05.jpg,FS,4,num_6,16,num_6,0.966479879105,,,2017_May_04_1939,60.0131853396,MAFE4ImagesEEG,001,200028,
AFNE01.JPG,AFNE01.JPG,AFNE01.JPG,AFNE01.JPG,AFNE01.JPG,AFNE01.JPG,,,,,,,,,,,,,,,,,,,,,2,6,26,5,,,AFNE15.jpg,AFNE19.jpg,AFSA08.jpg,AFSA18.jpg,AFSA18.jpg,FS,4,num_4,16,num_4,0.766778422985,,,2017_May_04_1939,60.0131853396,MAFE4ImagesEEG,001,200028,
AFNE01.JPG,AFNE01.JPG,AFNE01.JPG,AFNE01.JPG,AFNE01.JPG,AFNE01.JPG,,,,,,,,,,,,,,,,,,,,,2,7,27,3,,,AFSA02.jpg,AFSA18.jpg,AFNE13.jpg,AFNE12.jpg,AFSA02.jpg,FS,4,num_8,16,num_8,0.433501646621,,,2017_May_04_1939,60.0131853396,MAFE4ImagesEEG,001,200028,
AFNE01.JPG,AFNE01.JPG,AFNE01.JPG,AFNE01.JPG,AFNE01.JPG,AFNE01.JPG,,,,,,,,,,,,,,,,,,,,,2,8,28,7,,,AFSA06.jpg,AFNE01.jpg,AFSA03.jpg,AFNE14.jpg,AFNE01.jpg,FN,3,num_6,32,num_2,0.800100647844,,,2017_May_04_1939,60.0131853396,MAFE4ImagesEEG,001,200028,
AFNE01.JPG,AFNE01.JPG,AFNE01.JPG,AFNE01.JPG,AFNE01.JPG,AFNE01.JPG,,,,,,,,,,,,,,,,,,,,,2,9,29,6,,,AFSA15.jpg,AFNE16.jpg,AFNE13.jpg,AFSA19.jpg,AFNE13.jpg,FN,3,num_2,32,num_8,0.716878477251,,,2017_May_04_1939,60.0131853396,MAFE4ImagesEEG,001,200028,
AFNE01.JPG,AFNE01.JPG,AFNE01.JPG,AFNE01.JPG,AFNE01.JPG,AFNE01.JPG,,,,,,,,,,,,,,,,,,,,,3,0,30,6,,,AFSA06.jpg,AFNE19.jpg,AFSA18.jpg,AFNE10.jpg,AFNE19.jpg,FN,3,num_6,32,num_8,1.43340157601,,,2017_May_04_1939,60.0131853396,MAFE4ImagesEEG,001,200028,
AFNE01.JPG,AFNE01.JPG,AFNE01.JPG,AFNE01.JPG,AFNE01.JPG,AFNE01.JPG,,,,,,,,,,,,,,,,,,,,,3,1,31,7,,,AFSA11.jpg,AFNE18.jpg,AFNE06.jpg,AFSA15.jpg,AFNE18.jpg,FN,3,num_6,16,num_6,0.766762385843,,,2017_May_04_1939,60.0131853396,MAFE4ImagesEEG,001,200028,
AFNE01.JPG,AFNE01.JPG,AFNE01.JPG,AFNE01.JPG,AFNE01.JPG,AFNE01.JPG,,,,,,,,,,,,,,,,,,,,,3,2,32,8,,,AFSA19.jpg,AFSA01.jpg,AFNE05.jpg,AFNE12.jpg,AFSA01.jpg,FS,4,num_6,32,num_8,0.566781245405,,,2017_May_04_1939,60.0131853396,MAFE4ImagesEEG,001,200028,
AFNE01.JPG,AFNE01.JPG,AFNE01.JPG,AFNE01.JPG,AFNE01.JPG,AFNE01.JPG,,,,,,,,,,,,,,,,,,,,,3,3,33,4,,,AFSA17.jpg,AFSA08.jpg,AFNE07.jpg,AFNE05.jpg,AFSA17.jpg,FS,4,num_8,32,num_4,0.683422824834,,,2017_May_04_1939,60.0131853396,MAFE4ImagesEEG,001,200028,
AFNE01.JPG,AFNE01.JPG,AFNE01.JPG,AFNE01.JPG,AFNE01.JPG,AFNE01.JPG,,,,,,,,,,,,,,,,,,,,,3,4,34,2,,,AFSA16.jpg,AFSA10.jpg,AFNE05.jpg,AFNE17.jpg,AFNE05.jpg,FN,3,num_2,32,num_6,0.766901907511,,,2017_May_04_1939,60.0131853396,MAFE4ImagesEEG,001,200028,
AFNE01.JPG,AFNE01.JPG,AFNE01.JPG,AFNE01.JPG,AFNE01.JPG,AFNE01.JPG,,,,,,,,,,,,,,,,,,,,,3,5,35,3,,,AFSA11.jpg,AFNE19.jpg,AFSA06.jpg,AFNE05.jpg,AFSA11.jpg,FS,4,num_8,32,num_4,1.03343287995,,,2017_May_04_1939,60.0131853396,MAFE4ImagesEEG,001,200028,
AFNE01.JPG,AFNE01.JPG,AFNE01.JPG,AFNE01.JPG,AFNE01.JPG,AFNE01.JPG,,,,,,,,,,,,,,,,,,,,,3,6,36,5,,,AFNE10.jpg,AFSA20.jpg,AFNE15.jpg,AFSA10.jpg,AFSA10.jpg,FS,4,num_4,16,num_4,0.533584429184,,,2017_May_04_1939,60.0131853396,MAFE4ImagesEEG,001,200028,
AFNE01.JPG,AFNE01.JPG,AFNE01.JPG,AFNE01.JPG,AFNE01.JPG,AFNE01.JPG,,,,,,,,,,,,,,,,,,,,,3,7,37,9,,,AFNE13.jpg,AFNE01.jpg,AFSA20.jpg,AFSA10.jpg,AFSA20.jpg,FS,4,num_2,16,num_2,1.01676599425,,,2017_May_04_1939,60.0131853396,MAFE4ImagesEEG,001,200028,
AFNE01.JPG,AFNE01.JPG,AFNE01.JPG,AFNE01.JPG,AFNE01.JPG,AFNE01.JPG,,,,,,,,,,,,,,,,,,,,,3,8,38,0,,,AFNE09.jpg,AFSA11.jpg,AFNE20.jpg,AFSA02.jpg,AFSA11.jpg,FS,4,num_6,16,num_6,0.983646155335,,,2017_May_04_1939,60.0131853396,MAFE4ImagesEEG,001,200028,
