IPosition2,IPosition3,IPosition1,IPosition6,IPosition4,IPosition5,TrialsM1.thisRepN,TrialsM1.thisTrialN,TrialsM1.thisN,TrialsM1.thisIndex,TrialsF1.thisRepN,TrialsF1.thisTrialN,TrialsF1.thisN,TrialsF1.thisIndex,TrialsM2.thisRepN,TrialsM2.thisTrialN,TrialsM2.thisN,TrialsM2.thisIndex,TrialsF2.thisRepN,TrialsF2.thisTrialN,TrialsF2.thisN,TrialsF2.thisIndex,TrialsM3.thisRepN,TrialsM3.thisTrialN,TrialsM3.thisN,TrialsM3.thisIndex,TrialsF3.thisRepN,TrialsF3.thisTrialN,TrialsF3.thisN,TrialsF3.thisIndex,InstrKey_resp.keys,InstrKey_resp.rt,Image0 _Position,Image1 _Position,Image2 _Position,Image3 _Position,Center_image,condition,code,correct_answer,accuracy,Key_Resp.keys,Key_Resp.rt,BreakKey_resp.keys,BreakKey_resp.rt,date,frameRate,expName,session,participant,
,,,,,,,,,,,,,,,,,,,,,,,,,,,,,,space,1.83340314776,,,,,,,,,,,,,,2017_Mar_14_1218,60.008391745,MAFE4ImagesEEG,001,200043,
AFSA21.JPG,AFNE22.JPG,AFNE21.JPG,AFSA23.JPG,AFSA22.JPG,AFNE23.JPG,0,0,0,0,,,,,,,,,,,,,,,,,,,,,,,AMSA17.jpg,AMNE04.jpg,AMSA19.jpg,AMNE10.jpg,AMNE10.jpg,MN,1,num_4,32,num_8,1.3000747324,,,2017_Mar_14_1218,60.008391745,MAFE4ImagesEEG,001,200043,
AFSA21.JPG,AFNE23.JPG,AFNE21.JPG,AFSA25.JPG,AFNE25.JPG,AFSA23.JPG,0,1,1,4,,,,,,,,,,,,,,,,,,,,,,,AMSA06.jpg,AMNE17.jpg,AMNE15.jpg,AMSA14.jpg,AMSA06.jpg,MS,2,num_8,32,num_6,1.05010087276,,,2017_Mar_14_1218,60.008391745,MAFE4ImagesEEG,001,200043,
AFSA25.JPG,AFNE24.JPG,AFSA24.JPG,AFNE21.JPG,AFSA21.JPG,AFNE25.JPG,0,2,2,2,,,,,,,,,,,,,,,,,,,,,,,AMSA14.jpg,AMNE15.jpg,AMSA17.jpg,AMNE16.jpg,AMSA14.jpg,MS,2,num_8,16,num_8,1.36676716519,,,2017_Mar_14_1218,60.008391745,MAFE4ImagesEEG,001,200043,
AMSA21.JPG,AMNE22.JPG,AMNE21.JPG,AMSA23.JPG,AMSA22.JPG,AMNE23.JPG,0,3,3,1,,,,,,,,,,,,,,,,,,,,,,,AMSA14.jpg,AMSA09.jpg,AMNE04.jpg,AMNE17.jpg,AMSA09.jpg,MS,2,num_6,32,num_2,1.90013342781,,,2017_Mar_14_1218,60.008391745,MAFE4ImagesEEG,001,200043,
AMNE22.JPG,AMSA24.JPG,AMSA22.JPG,AMNE25.JPG,AMNE24.JPG,AMSA25.JPG,0,4,4,7,,,,,,,,,,,,,,,,,,,,,,,AMSA19.jpg,AMSA05.jpg,AMNE10.jpg,AMNE02.jpg,AMNE02.jpg,MN,1,num_4,16,num_4,0.850146417855,,,2017_Mar_14_1218,60.008391745,MAFE4ImagesEEG,001,200043,
AFNE23.JPG,AFNE24.JPG,AFNE22.JPG,AFSA24.JPG,AFSA22.JPG,AFSA23.JPG,0,5,5,8,,,,,,,,,,,,,,,,,,,,,,,AMNE19.jpg,AMSA02.jpg,AMSA16.jpg,AMNE14.jpg,AMSA16.jpg,MS,2,num_2,16,num_2,1.16674022307,,,2017_Mar_14_1218,60.008391745,MAFE4ImagesEEG,001,200043,
AMNE23.JPG,AMNE24.JPG,AMNE22.JPG,AMSA24.JPG,AMSA22.JPG,AMSA23.JPG,0,6,6,9,,,,,,,,,,,,,,,,,,,,,,,AMNE06.jpg,AMSA07.jpg,AMNE10.jpg,AMSA11.jpg,AMSA11.jpg,MS,2,num_4,16,num_4,1.40012573008,,,2017_Mar_14_1218,60.008391745,MAFE4ImagesEEG,001,200043,
AMSA21.JPG,AMNE23.JPG,AMNE21.JPG,AMSA25.JPG,AMNE25.JPG,AMSA23.JPG,0,7,7,5,,,,,,,,,,,,,,,,,,,,,,,AMSA20.jpg,AMSA04.jpg,AMNE13.jpg,AMNE08.jpg,AMSA04.jpg,MS,2,num_6,16,num_6,1.96669371572,,,2017_Mar_14_1218,60.008391745,MAFE4ImagesEEG,001,200043,
AFNE22.JPG,AFSA24.JPG,AFSA22.JPG,AFNE25.JPG,AFNE24.JPG,AFSA25.JPG,0,8,8,6,,,,,,,,,,,,,,,,,,,,,,,AMNE01.jpg,AMSA05.jpg,AMSA06.jpg,AMNE08.jpg,AMNE01.jpg,MN,1,num_8,16,num_8,1.10011290049,,,2017_Mar_14_1218,60.008391745,MAFE4ImagesEEG,001,200043,
AMSA25.JPG,AMNE24.JPG,AMSA24.JPG,AMNE26.JPG,AMSA21.JPG,AMNE25.JPG,0,9,9,3,,,,,,,,,,,,,,,,,,,,,,,AMSA07.jpg,AMNE14.jpg,AMSA08.jpg,AMNE05.jpg,AMNE14.jpg,MN,1,num_6,32,num_4,2.50001731992,,,2017_Mar_14_1218,60.008391745,MAFE4ImagesEEG,001,200043,
AMSA21.JPG,AMNE23.JPG,AMNE21.JPG,AMSA25.JPG,AMNE25.JPG,AMSA23.JPG,,,,,0,0,0,5,,,,,,,,,,,,,,,,,,,AFNE11.jpg,AFNE02.jpg,AFSA13.jpg,AFSA07.jpg,AFSA07.jpg,FS,4,num_4,32,num_6,0.316882150539,,,2017_Mar_14_1218,60.008391745,MAFE4ImagesEEG,001,200043,
AMSA21.JPG,AMNE22.JPG,AMNE21.JPG,AMSA23.JPG,AMSA22.JPG,AMNE23.JPG,,,,,0,1,1,1,,,,,,,,,,,,,,,,,,,AFNE11.jpg,AFSA10.jpg,AFSA17.jpg,AFNE07.jpg,AFNE11.jpg,FN,3,num_8,16,num_8,1.06675786379,,,2017_Mar_14_1218,60.008391745,MAFE4ImagesEEG,001,200043,
AMNE23.JPG,AMNE24.JPG,AMNE22.JPG,AMSA24.JPG,AMSA22.JPG,AMSA23.JPG,,,,,0,2,2,9,,,,,,,,,,,,,,,,,,,AFNE09.jpg,AFSA05.jpg,AFSA16.jpg,AFNE04.jpg,AFNE09.jpg,FN,3,num_8,32,num_4,1.76668601797,,,2017_Mar_14_1218,60.008391745,MAFE4ImagesEEG,001,200043,
AFSA21.JPG,AFNE22.JPG,AFNE21.JPG,AFSA23.JPG,AFSA22.JPG,AFNE23.JPG,,,,,0,3,3,0,,,,,,,,,,,,,,,,,,,AFSA11.jpg,AFSA01.jpg,AFNE16.jpg,AFNE07.jpg,AFSA11.jpg,FS,4,num_8,32,num_2,1.56671231869,,,2017_Mar_14_1218,60.008391745,MAFE4ImagesEEG,001,200043,
AFSA25.JPG,AFNE24.JPG,AFSA24.JPG,AFNE21.JPG,AFSA21.JPG,AFNE25.JPG,,,,,0,4,4,2,,,,,,,,,,,,,,,,,,,AFSA15.jpg,AFSA17.jpg,AFNE18.jpg,AFNE07.jpg,AFNE18.jpg,FN,3,num_2,16,num_2,1.15008419426,,,2017_Mar_14_1218,60.008391745,MAFE4ImagesEEG,001,200043,
AFNE23.JPG,AFNE24.JPG,AFNE22.JPG,AFSA24.JPG,AFSA22.JPG,AFSA23.JPG,,,,,0,5,5,8,,,,,,,,,,,,,,,,,,,AFSA01.jpg,AFSA13.jpg,AFNE02.jpg,AFNE09.jpg,AFSA01.jpg,FS,4,num_8,16,num_8,0.850246167975,,,2017_Mar_14_1218,60.008391745,MAFE4ImagesEEG,001,200043,
AMNE22.JPG,AMSA24.JPG,AMSA22.JPG,AMNE25.JPG,AMNE24.JPG,AMSA25.JPG,,,,,0,6,6,7,,,,,,,,,,,,,,,,,,,AFSA20.jpg,AFSA08.jpg,AFNE01.jpg,AFNE14.jpg,AFSA20.jpg,FS,4,num_8,32,num_6,1.20008403389,,,2017_Mar_14_1218,60.008391745,MAFE4ImagesEEG,001,200043,
AFSA21.JPG,AFNE23.JPG,AFNE21.JPG,AFSA25.JPG,AFNE25.JPG,AFSA23.JPG,,,,,0,7,7,4,,,,,,,,,,,,,,,,,,,AFSA10.jpg,AFNE05.jpg,AFNE15.jpg,AFSA04.jpg,AFNE15.jpg,FN,3,num_2,16,num_2,1.05015764374,,,2017_Mar_14_1218,60.008391745,MAFE4ImagesEEG,001,200043,
AFNE22.JPG,AFSA24.JPG,AFSA22.JPG,AFNE25.JPG,AFNE24.JPG,AFSA25.JPG,,,,,0,8,8,6,,,,,,,,,,,,,,,,,,,AFNE05.jpg,AFSA19.jpg,AFSA05.jpg,AFNE18.jpg,AFSA05.jpg,FS,4,num_2,16,num_2,1.15016854886,,,2017_Mar_14_1218,60.008391745,MAFE4ImagesEEG,001,200043,
AMSA25.JPG,AMNE24.JPG,AMSA24.JPG,AMNE26.JPG,AMSA21.JPG,AMNE25.JPG,,,,,0,9,9,3,,,,,,,,,,,,,,,,,,,AFSA20.jpg,AFNE14.jpg,AFSA13.jpg,AFNE16.jpg,AFNE16.jpg,FN,3,num_4,32,num_8,1.08350305824,,,2017_Mar_14_1218,60.008391745,MAFE4ImagesEEG,001,200043,
AFNE23.JPG,AFNE24.JPG,AFNE22.JPG,AFSA24.JPG,AFSA22.JPG,AFSA23.JPG,,,,,,,,,0,0,0,8,,,,,,,,,,,,,,,AMSA14.jpg,AMNE07.jpg,AMSA17.jpg,AMNE01.jpg,AMSA17.jpg,MS,2,num_2,32,num_8,1.28365316463,,,2017_Mar_14_1218,60.008391745,MAFE4ImagesEEG,001,200043,
AMSA21.JPG,AMNE23.JPG,AMNE21.JPG,AMSA25.JPG,AMNE25.JPG,AMSA23.JPG,,,,,,,,,0,1,1,5,,,,,,,,,,,,,,,AMNE12.jpg,AMSA06.jpg,AMNE16.jpg,AMSA03.jpg,AMNE16.jpg,MN,1,num_2,32,num_8,0.949976425618,,,2017_Mar_14_1218,60.008391745,MAFE4ImagesEEG,001,200043,
AFNE22.JPG,AFSA24.JPG,AFSA22.JPG,AFNE25.JPG,AFNE24.JPG,AFSA25.JPG,,,,,,,,,0,2,2,6,,,,,,,,,,,,,,,AMSA18.jpg,AMNE10.jpg,AMNE18.jpg,AMSA08.jpg,AMNE18.jpg,MN,1,num_2,16,num_2,1.55013679562,,,2017_Mar_14_1218,60.008391745,MAFE4ImagesEEG,001,200043,
AFSA25.JPG,AFNE24.JPG,AFSA24.JPG,AFNE21.JPG,AFSA21.JPG,AFNE25.JPG,,,,,,,,,0,3,3,2,,,,,,,,,,,,,,,AMNE14.jpg,AMSA20.jpg,AMNE09.jpg,AMSA16.jpg,AMSA16.jpg,MS,2,num_4,32,num_6,0.716853283928,,,2017_Mar_14_1218,60.008391745,MAFE4ImagesEEG,001,200043,
AMNE22.JPG,AMSA24.JPG,AMSA22.JPG,AMNE25.JPG,AMNE24.JPG,AMSA25.JPG,,,,,,,,,0,4,4,7,,,,,,,,,,,,,,,AMSA10.jpg,AMNE06.jpg,AMSA07.jpg,AMNE20.jpg,AMNE06.jpg,MN,1,num_6,32,num_4,0.816787211457,,,2017_Mar_14_1218,60.008391745,MAFE4ImagesEEG,001,200043,
AFSA21.JPG,AFNE22.JPG,AFNE21.JPG,AFSA23.JPG,AFSA22.JPG,AFNE23.JPG,,,,,,,,,0,5,5,0,,,,,,,,,,,,,,,AMNE09.jpg,AMSA17.jpg,AMSA18.jpg,AMNE12.jpg,AMSA17.jpg,MS,2,num_6,32,num_8,0.850106004567,,,2017_Mar_14_1218,60.008391745,MAFE4ImagesEEG,001,200043,
AFSA21.JPG,AFNE23.JPG,AFNE21.JPG,AFSA25.JPG,AFNE25.JPG,AFSA23.JPG,,,,,,,,,0,6,6,4,,,,,,,,,,,,,,,AMNE08.jpg,AMNE07.jpg,AMSA02.jpg,AMSA01.jpg,AMNE08.jpg,MN,1,num_8,32,num_6,0.583511076751,,,2017_Mar_14_1218,60.008391745,MAFE4ImagesEEG,001,200043,
AMSA21.JPG,AMNE22.JPG,AMNE21.JPG,AMSA23.JPG,AMSA22.JPG,AMNE23.JPG,,,,,,,,,0,7,7,1,,,,,,,,,,,,,,,AMSA09.jpg,AMSA01.jpg,AMNE13.jpg,AMNE14.jpg,AMNE13.jpg,MN,1,num_2,32,num_8,0.750159247371,,,2017_Mar_14_1218,60.008391745,MAFE4ImagesEEG,001,200043,
AMNE23.JPG,AMNE24.JPG,AMNE22.JPG,AMSA24.JPG,AMSA22.JPG,AMSA23.JPG,,,,,,,,,0,8,8,9,,,,,,,,,,,,,,,AMSA19.jpg,AMNE05.jpg,AMSA20.jpg,AMNE02.jpg,AMSA20.jpg,MS,2,num_2,32,num_4,0.933456390572,,,2017_Mar_14_1218,60.008391745,MAFE4ImagesEEG,001,200043,
AMSA25.JPG,AMNE24.JPG,AMSA24.JPG,AMNE26.JPG,AMSA21.JPG,AMNE25.JPG,,,,,,,,,0,9,9,3,,,,,,,,,,,,,,,AMNE12.jpg,AMSA13.jpg,AMSA18.jpg,AMNE13.jpg,AMNE13.jpg,MN,1,num_4,32,num_8,1.15015507775,,,2017_Mar_14_1218,60.008391745,MAFE4ImagesEEG,001,200043,
AFNE23.JPG,AFNE24.JPG,AFNE22.JPG,AFSA24.JPG,AFSA22.JPG,AFSA23.JPG,,,,,,,,,,,,,0,0,0,8,,,,,,,,,,,AFNE13.jpg,AFSA17.jpg,AFNE20.jpg,AFSA11.jpg,AFSA17.jpg,FS,4,num_6,32,num_4,1.51655403344,,,2017_Mar_14_1218,60.008391745,MAFE4ImagesEEG,001,200043,
AMNE22.JPG,AMSA24.JPG,AMSA22.JPG,AMNE25.JPG,AMNE24.JPG,AMSA25.JPG,,,,,,,,,,,,,0,1,1,7,,,,,,,,,,,AFSA09.jpg,AFNE02.jpg,AFNE18.jpg,AFSA17.jpg,AFNE02.jpg,FN,3,num_6,16,num_6,2.16665362322,,,2017_Mar_14_1218,60.008391745,MAFE4ImagesEEG,001,200043,
AFNE22.JPG,AFSA24.JPG,AFSA22.JPG,AFNE25.JPG,AFNE24.JPG,AFSA25.JPG,,,,,,,,,,,,,0,2,2,6,,,,,,,,,,,AFSA06.jpg,AFNE08.jpg,AFSA10.jpg,AFNE18.jpg,AFNE18.jpg,FN,3,num_4,32,num_6,1.13345671131,,,2017_Mar_14_1218,60.008391745,MAFE4ImagesEEG,001,200043,
AMSA21.JPG,AMNE23.JPG,AMNE21.JPG,AMSA25.JPG,AMNE25.JPG,AMSA23.JPG,,,,,,,,,,,,,0,3,3,5,,,,,,,,,,,AFNE11.jpg,AFNE04.jpg,AFSA06.jpg,AFSA11.jpg,AFNE04.jpg,FN,3,num_6,16,num_6,1.050478063,,,2017_Mar_14_1218,60.008391745,MAFE4ImagesEEG,001,200043,
AFSA21.JPG,AFNE22.JPG,AFNE21.JPG,AFSA23.JPG,AFSA22.JPG,AFNE23.JPG,,,,,,,,,,,,,0,4,4,0,,,,,,,,,,,AFNE20.jpg,AFSA03.jpg,AFSA16.jpg,AFNE02.jpg,AFNE02.jpg,FN,3,num_4,16,num_4,1.23347980459,,,2017_Mar_14_1218,60.008391745,MAFE4ImagesEEG,001,200043,
AMSA25.JPG,AMNE24.JPG,AMSA24.JPG,AMNE26.JPG,AMSA21.JPG,AMNE25.JPG,,,,,,,,,,,,,0,5,5,3,,,,,,,,,,,AFSA02.jpg,AFNE14.jpg,AFNE11.jpg,AFSA17.jpg,AFNE14.jpg,FN,3,num_6,32,num_8,2.1500258196,,,2017_Mar_14_1218,60.008391745,MAFE4ImagesEEG,001,200043,
AFSA25.JPG,AFNE24.JPG,AFSA24.JPG,AFNE21.JPG,AFSA21.JPG,AFNE25.JPG,,,,,,,,,,,,,0,6,6,2,,,,,,,,,,,AFNE12.jpg,AFNE04.jpg,AFSA16.jpg,AFSA09.jpg,AFSA16.jpg,FS,4,num_2,32,num_4,1.48342575988,,,2017_Mar_14_1218,60.008391745,MAFE4ImagesEEG,001,200043,
AMSA21.JPG,AMNE22.JPG,AMNE21.JPG,AMSA23.JPG,AMSA22.JPG,AMNE23.JPG,,,,,,,,,,,,,0,7,7,1,,,,,,,,,,,AFSA20.jpg,AFSA17.jpg,AFNE07.jpg,AFNE01.jpg,AFNE01.jpg,FN,3,num_4,32,num_8,2.35001908406,,,2017_Mar_14_1218,60.008391745,MAFE4ImagesEEG,001,200043,
AMNE23.JPG,AMNE24.JPG,AMNE22.JPG,AMSA24.JPG,AMSA22.JPG,AMSA23.JPG,,,,,,,,,,,,,0,8,8,9,,,,,,,,,,,AFSA16.jpg,AFNE17.jpg,AFNE15.jpg,AFSA08.jpg,AFNE15.jpg,FN,3,num_2,32,num_4,2.05001683882,,,2017_Mar_14_1218,60.008391745,MAFE4ImagesEEG,001,200043,
AFSA21.JPG,AFNE23.JPG,AFNE21.JPG,AFSA25.JPG,AFNE25.JPG,AFSA23.JPG,,,,,,,,,,,,,0,9,9,4,,,,,,,,,,,AFSA05.jpg,AFNE02.jpg,AFSA10.jpg,AFNE05.jpg,AFNE02.jpg,FN,3,num_6,16,num_6,1.5000673554,,,2017_Mar_14_1218,60.008391745,MAFE4ImagesEEG,001,200043,
AMNE23.JPG,AMNE24.JPG,AMNE22.JPG,AMSA24.JPG,AMSA22.JPG,AMSA23.JPG,,,,,,,,,,,,,,,,,0,0,0,9,,,,,,,AMNE06.jpg,AMNE01.jpg,AMSA07.jpg,AMSA05.jpg,AMSA05.jpg,MS,2,num_4,32,num_2,1.63342463732,,,2017_Mar_14_1218,60.008391745,MAFE4ImagesEEG,001,200043,
AMSA21.JPG,AMNE23.JPG,AMNE21.JPG,AMSA25.JPG,AMNE25.JPG,AMSA23.JPG,,,,,,,,,,,,,,,,,0,1,1,5,,,,,,,AMNE03.jpg,AMSA06.jpg,AMNE10.jpg,AMSA15.jpg,AMSA06.jpg,MS,2,num_6,32,num_4,3.01661016297,,,2017_Mar_14_1218,60.008391745,MAFE4ImagesEEG,001,200043,
AMNE22.JPG,AMSA24.JPG,AMSA22.JPG,AMNE25.JPG,AMNE24.JPG,AMSA25.JPG,,,,,,,,,,,,,,,,,0,2,2,7,,,,,,,AMSA17.jpg,AMSA08.jpg,AMNE07.jpg,AMNE06.jpg,AMSA17.jpg,MS,2,num_8,16,num_8,1.03343874984,,,2017_Mar_14_1218,60.008391745,MAFE4ImagesEEG,001,200043,
AFSA25.JPG,AFNE24.JPG,AFSA24.JPG,AFNE21.JPG,AFSA21.JPG,AFNE25.JPG,,,,,,,,,,,,,,,,,0,3,3,2,,,,,,,AMSA06.jpg,AMNE18.jpg,AMNE08.jpg,AMSA11.jpg,AMNE08.jpg,MN,1,num_2,32,num_6,1.01677598554,,,2017_Mar_14_1218,60.008391745,MAFE4ImagesEEG,001,200043,
AFSA21.JPG,AFNE23.JPG,AFNE21.JPG,AFSA25.JPG,AFNE25.JPG,AFSA23.JPG,,,,,,,,,,,,,,,,,0,4,4,4,,,,,,,AMSA14.jpg,AMSA01.jpg,AMNE16.jpg,AMNE17.jpg,AMSA14.jpg,MS,2,num_8,16,num_8,0.683468739095,,,2017_Mar_14_1218,60.008391745,MAFE4ImagesEEG,001,200043,
AFSA21.JPG,AFNE22.JPG,AFNE21.JPG,AFSA23.JPG,AFSA22.JPG,AFNE23.JPG,,,,,,,,,,,,,,,,,0,5,5,0,,,,,,,AMNE11.jpg,AMSA11.jpg,AMNE12.jpg,AMSA07.jpg,AMNE11.jpg,MN,1,num_8,32,num_2,1.38335840456,,,2017_Mar_14_1218,60.008391745,MAFE4ImagesEEG,001,200043,
AMSA21.JPG,AMNE22.JPG,AMNE21.JPG,AMSA23.JPG,AMSA22.JPG,AMNE23.JPG,,,,,,,,,,,,,,,,,0,6,6,1,,,,,,,AMSA04.jpg,AMNE07.jpg,AMSA20.jpg,AMNE08.jpg,AMNE08.jpg,MN,1,num_4,32,num_8,1.08342832589,,,2017_Mar_14_1218,60.008391745,MAFE4ImagesEEG,001,200043,
AFNE23.JPG,AFNE24.JPG,AFNE22.JPG,AFSA24.JPG,AFSA22.JPG,AFSA23.JPG,,,,,,,,,,,,,,,,,0,7,7,8,,,,,,,AMSA17.jpg,AMNE06.jpg,AMSA20.jpg,AMNE02.jpg,AMNE06.jpg,MN,1,num_6,32,num_4,0.750133267429,,,2017_Mar_14_1218,60.008391745,MAFE4ImagesEEG,001,200043,
AFNE22.JPG,AFSA24.JPG,AFSA22.JPG,AFNE25.JPG,AFNE24.JPG,AFSA25.JPG,,,,,,,,,,,,,,,,,0,8,8,6,,,,,,,AMSA06.jpg,AMNE08.jpg,AMSA12.jpg,AMNE12.jpg,AMNE08.jpg,MN,1,num_6,32,num_2,1.7000696006,,,2017_Mar_14_1218,60.008391745,MAFE4ImagesEEG,001,200043,
AMSA25.JPG,AMNE24.JPG,AMSA24.JPG,AMNE26.JPG,AMSA21.JPG,AMNE25.JPG,,,,,,,,,,,,,,,,,0,9,9,3,,,,,,,AMSA10.jpg,AMSA20.jpg,AMNE17.jpg,AMNE14.jpg,AMNE17.jpg,MN,1,num_2,32,num_8,1.11672242201,,,2017_Mar_14_1218,60.008391745,MAFE4ImagesEEG,001,200043,
AMSA21.JPG,AMNE22.JPG,AMNE21.JPG,AMSA23.JPG,AMSA22.JPG,AMNE23.JPG,,,,,,,,,,,,,,,,,,,,,0,0,0,1,,,AFNE18.jpg,AFSA16.jpg,AFSA08.jpg,AFNE07.jpg,AFNE07.jpg,FN,3,num_4,32,num_8,0.999794405652,,,2017_Mar_14_1218,60.008391745,MAFE4ImagesEEG,001,200043,
AFSA25.JPG,AFNE24.JPG,AFSA24.JPG,AFNE21.JPG,AFSA21.JPG,AFNE25.JPG,,,,,,,,,,,,,,,,,,,,,0,1,1,2,,,AFSA20.jpg,AFNE15.jpg,AFNE19.jpg,AFSA04.jpg,AFNE19.jpg,FN,3,num_2,32,num_6,1.91673621378,,,2017_Mar_14_1218,60.008391745,MAFE4ImagesEEG,001,200043,
AMSA21.JPG,AMNE23.JPG,AMNE21.JPG,AMSA25.JPG,AMNE25.JPG,AMSA23.JPG,,,,,,,,,,,,,,,,,,,,,0,2,2,5,,,AFNE04.jpg,AFSA07.jpg,AFNE13.jpg,AFSA16.jpg,AFNE13.jpg,FN,3,num_2,16,num_2,1.95002004626,,,2017_Mar_14_1218,60.008391745,MAFE4ImagesEEG,001,200043,
AFSA21.JPG,AFNE23.JPG,AFNE21.JPG,AFSA25.JPG,AFNE25.JPG,AFSA23.JPG,,,,,,,,,,,,,,,,,,,,,0,3,3,4,,,AFSA02.jpg,AFNE08.jpg,AFSA04.jpg,AFNE15.jpg,AFNE15.jpg,FN,3,num_4,32,num_8,1.01680068253,,,2017_Mar_14_1218,60.008391745,MAFE4ImagesEEG,001,200043,
AFSA21.JPG,AFNE22.JPG,AFNE21.JPG,AFSA23.JPG,AFSA22.JPG,AFNE23.JPG,,,,,,,,,,,,,,,,,,,,,0,4,4,0,,,AFNE11.jpg,AFSA19.jpg,AFSA08.jpg,AFNE18.jpg,AFSA08.jpg,FS,4,num_2,16,num_2,1.00012476789,,,2017_Mar_14_1218,60.008391745,MAFE4ImagesEEG,001,200043,
AMSA25.JPG,AMNE24.JPG,AMSA24.JPG,AMNE26.JPG,AMSA21.JPG,AMNE25.JPG,,,,,,,,,,,,,,,,,,,,,0,5,5,3,,,AFNE03.jpg,AFSA08.jpg,AFNE16.jpg,AFSA19.jpg,AFSA08.jpg,FS,4,num_6,16,num_6,1.68337283778,,,2017_Mar_14_1218,60.008391745,MAFE4ImagesEEG,001,200043,
AMNE22.JPG,AMSA24.JPG,AMSA22.JPG,AMNE25.JPG,AMNE24.JPG,AMSA25.JPG,,,,,,,,,,,,,,,,,,,,,0,6,6,7,,,AFSA20.jpg,AFSA14.jpg,AFNE01.jpg,AFNE02.jpg,AFNE01.jpg,FN,3,num_2,16,num_2,2.05002164992,,,2017_Mar_14_1218,60.008391745,MAFE4ImagesEEG,001,200043,
AFNE22.JPG,AFSA24.JPG,AFSA22.JPG,AFNE25.JPG,AFNE24.JPG,AFSA25.JPG,,,,,,,,,,,,,,,,,,,,,0,7,7,6,,,AFSA14.jpg,AFNE19.jpg,AFSA17.jpg,AFNE04.jpg,AFSA14.jpg,FS,4,num_8,16,num_8,1.46675818448,,,2017_Mar_14_1218,60.008391745,MAFE4ImagesEEG,001,200043,
AFNE23.JPG,AFNE24.JPG,AFNE22.JPG,AFSA24.JPG,AFSA22.JPG,AFSA23.JPG,,,,,,,,,,,,,,,,,,,,,0,8,8,8,,,AFSA05.jpg,AFNE01.jpg,AFSA01.jpg,AFNE04.jpg,AFSA05.jpg,FS,4,num_8,16,num_8,1.33343361807,,,2017_Mar_14_1218,60.008391745,MAFE4ImagesEEG,001,200043,
AMNE23.JPG,AMNE24.JPG,AMNE22.JPG,AMSA24.JPG,AMSA22.JPG,AMSA23.JPG,,,,,,,,,,,,,,,,,,,,,0,9,9,9,,,AFSA16.jpg,AFSA09.jpg,AFNE11.jpg,AFNE02.jpg,AFSA09.jpg,FS,4,num_6,32,num_4,0.866629888478,,,2017_Mar_14_1218,60.008391745,MAFE4ImagesEEG,001,200043,
,,,,,,,,,,,,,,,,,,,,,,,,,,,,,,,,,,,,,,,,,,,space,9.66580077558,2017_Mar_14_1218,60.008391745,MAFE4ImagesEEG,001,200043,
AFNE01.JPG,AFNE01.JPG,AFNE01.JPG,AFNE01.JPG,AFNE01.JPG,AFNE01.JPG,0,0,0,2,,,,,,,,,,,,,,,,,,,,,,,AMNE03.jpg,AMSA10.jpg,AMNE15.jpg,AMSA11.jpg,AMSA11.jpg,MS,2,num_4,32,num_2,1.46671360161,,,2017_Mar_14_1218,60.008391745,MAFE4ImagesEEG,001,200043,
AFNE01.JPG,AFNE01.JPG,AFNE01.JPG,AFNE01.JPG,AFNE01.JPG,AFNE01.JPG,0,1,1,3,,,,,,,,,,,,,,,,,,,,,,,AMNE10.jpg,AMSA06.jpg,AMNE20.jpg,AMSA07.jpg,AMNE20.jpg,MN,1,num_2,32,num_4,1.13371715223,,,2017_Mar_14_1218,60.008391745,MAFE4ImagesEEG,001,200043,
AFNE01.JPG,AFNE01.JPG,AFNE01.JPG,AFNE01.JPG,AFNE01.JPG,AFNE01.JPG,0,2,2,5,,,,,,,,,,,,,,,,,,,,,,,AMSA05.jpg,AMNE05.jpg,AMSA03.jpg,AMNE10.jpg,AMSA05.jpg,MS,2,num_8,32,num_6,1.43344837212,,,2017_Mar_14_1218,60.008391745,MAFE4ImagesEEG,001,200043,
AFNE01.JPG,AFNE01.JPG,AFNE01.JPG,AFNE01.JPG,AFNE01.JPG,AFNE01.JPG,0,3,3,9,,,,,,,,,,,,,,,,,,,,,,,AMNE15.jpg,AMSA05.jpg,AMNE12.jpg,AMSA03.jpg,AMSA05.jpg,MS,2,num_6,32,num_4,2.31665153842,,,2017_Mar_14_1218,60.008391745,MAFE4ImagesEEG,001,200043,
AFNE01.JPG,AFNE01.JPG,AFNE01.JPG,AFNE01.JPG,AFNE01.JPG,AFNE01.JPG,0,4,4,0,,,,,,,,,,,,,,,,,,,,,,,AMNE05.jpg,AMNE13.jpg,AMSA03.jpg,AMSA14.jpg,AMSA03.jpg,MS,2,num_2,16,num_2,1.21674166637,,,2017_Mar_14_1218,60.008391745,MAFE4ImagesEEG,001,200043,
AFNE01.JPG,AFNE01.JPG,AFNE01.JPG,AFNE01.JPG,AFNE01.JPG,AFNE01.JPG,0,5,5,1,,,,,,,,,,,,,,,,,,,,,,,AMSA05.jpg,AMNE13.jpg,AMNE09.jpg,AMSA17.jpg,AMSA05.jpg,MS,2,num_8,32,num_2,1.26673156302,,,2017_Mar_14_1218,60.008391745,MAFE4ImagesEEG,001,200043,
AFNE01.JPG,AFNE01.JPG,AFNE01.JPG,AFNE01.JPG,AFNE01.JPG,AFNE01.JPG,0,6,6,4,,,,,,,,,,,,,,,,,,,,,,,AMNE04.jpg,AMSA10.jpg,AMNE19.jpg,AMSA20.jpg,AMNE19.jpg,MN,1,num_2,32,num_8,1.80006895913,,,2017_Mar_14_1218,60.008391745,MAFE4ImagesEEG,001,200043,
AFNE01.JPG,AFNE01.JPG,AFNE01.JPG,AFNE01.JPG,AFNE01.JPG,AFNE01.JPG,0,7,7,8,,,,,,,,,,,,,,,,,,,,,,,AMNE01.jpg,AMSA08.jpg,AMSA09.jpg,AMNE17.jpg,AMSA09.jpg,MS,2,num_2,32,num_4,0.950092854211,,,2017_Mar_14_1218,60.008391745,MAFE4ImagesEEG,001,200043,
AFNE01.JPG,AFNE01.JPG,AFNE01.JPG,AFNE01.JPG,AFNE01.JPG,AFNE01.JPG,0,8,8,7,,,,,,,,,,,,,,,,,,,,,,,AMSA15.jpg,AMNE07.jpg,AMNE06.jpg,AMSA16.jpg,AMSA16.jpg,MS,2,num_4,32,num_2,1.21658578672,,,2017_Mar_14_1218,60.008391745,MAFE4ImagesEEG,001,200043,
AFNE01.JPG,AFNE01.JPG,AFNE01.JPG,AFNE01.JPG,AFNE01.JPG,AFNE01.JPG,0,9,9,6,,,,,,,,,,,,,,,,,,,,,,,AMNE18.jpg,AMNE10.jpg,AMSA06.jpg,AMSA05.jpg,AMSA05.jpg,MS,2,num_4,32,num_6,1.40011257975,,,2017_Mar_14_1218,60.008391745,MAFE4ImagesEEG,001,200043,
AFNE01.JPG,AFNE01.JPG,AFNE01.JPG,AFNE01.JPG,AFNE01.JPG,AFNE01.JPG,1,0,10,3,,,,,,,,,,,,,,,,,,,,,,,AMSA10.jpg,AMNE07.jpg,AMSA18.jpg,AMNE10.jpg,AMSA18.jpg,MS,2,num_2,16,num_2,1.70006350649,,,2017_Mar_14_1218,60.008391745,MAFE4ImagesEEG,001,200043,
AFNE01.JPG,AFNE01.JPG,AFNE01.JPG,AFNE01.JPG,AFNE01.JPG,AFNE01.JPG,1,1,11,9,,,,,,,,,,,,,,,,,,,,,,,AMSA11.jpg,AMSA07.jpg,AMNE14.jpg,AMNE15.jpg,AMSA07.jpg,MS,2,num_6,32,num_8,1.21694822295,,,2017_Mar_14_1218,60.008391745,MAFE4ImagesEEG,001,200043,
AFNE01.JPG,AFNE01.JPG,AFNE01.JPG,AFNE01.JPG,AFNE01.JPG,AFNE01.JPG,1,2,12,1,,,,,,,,,,,,,,,,,,,,,,,AMNE18.jpg,AMSA11.jpg,AMSA08.jpg,AMNE07.jpg,AMNE18.jpg,MN,1,num_8,32,num_4,1.48344724945,,,2017_Mar_14_1218,60.008391745,MAFE4ImagesEEG,001,200043,
AFNE01.JPG,AFNE01.JPG,AFNE01.JPG,AFNE01.JPG,AFNE01.JPG,AFNE01.JPG,1,3,13,7,,,,,,,,,,,,,,,,,,,,,,,AMNE14.jpg,AMSA16.jpg,AMNE07.jpg,AMSA14.jpg,AMSA16.jpg,MS,2,num_6,32,num_2,2.19999615109,,,2017_Mar_14_1218,60.008391745,MAFE4ImagesEEG,001,200043,
AFNE01.JPG,AFNE01.JPG,AFNE01.JPG,AFNE01.JPG,AFNE01.JPG,AFNE01.JPG,1,4,14,0,,,,,,,,,,,,,,,,,,,,,,,AMNE18.jpg,AMSA19.jpg,AMNE13.jpg,AMSA14.jpg,AMNE13.jpg,MN,1,num_2,32,num_8,1.00011001382,,,2017_Mar_14_1218,60.008391745,MAFE4ImagesEEG,001,200043,
AFNE01.JPG,AFNE01.JPG,AFNE01.JPG,AFNE01.JPG,AFNE01.JPG,AFNE01.JPG,1,5,15,8,,,,,,,,,,,,,,,,,,,,,,,AMSA08.jpg,AMSA13.jpg,AMNE17.jpg,AMNE02.jpg,AMNE17.jpg,MN,1,num_2,16,num_2,1.61670798867,,,2017_Mar_14_1218,60.008391745,MAFE4ImagesEEG,001,200043,
AFNE01.JPG,AFNE01.JPG,AFNE01.JPG,AFNE01.JPG,AFNE01.JPG,AFNE01.JPG,1,6,16,2,,,,,,,,,,,,,,,,,,,,,,,AMNE06.jpg,AMSA19.jpg,AMNE15.jpg,AMSA15.jpg,AMNE06.jpg,MN,1,num_8,16,num_8,1.61670157389,,,2017_Mar_14_1218,60.008391745,MAFE4ImagesEEG,001,200043,
AFNE01.JPG,AFNE01.JPG,AFNE01.JPG,AFNE01.JPG,AFNE01.JPG,AFNE01.JPG,1,7,17,4,,,,,,,,,,,,,,,,,,,,,,,AMNE01.jpg,AMSA18.jpg,AMNE04.jpg,AMSA09.jpg,AMNE01.jpg,MN,1,num_8,32,num_4,1.00015876628,,,2017_Mar_14_1218,60.008391745,MAFE4ImagesEEG,001,200043,
AFNE01.JPG,AFNE01.JPG,AFNE01.JPG,AFNE01.JPG,AFNE01.JPG,AFNE01.JPG,1,8,18,6,,,,,,,,,,,,,,,,,,,,,,,AMNE14.jpg,AMSA13.jpg,AMSA14.jpg,AMNE15.jpg,AMNE14.jpg,MN,1,num_8,16,num_8,1.03354202816,,,2017_Mar_14_1218,60.008391745,MAFE4ImagesEEG,001,200043,
AFNE01.JPG,AFNE01.JPG,AFNE01.JPG,AFNE01.JPG,AFNE01.JPG,AFNE01.JPG,1,9,19,5,,,,,,,,,,,,,,,,,,,,,,,AMSA10.jpg,AMNE10.jpg,AMSA18.jpg,AMNE05.jpg,AMNE05.jpg,MN,1,num_4,32,num_2,1.18326089956,,,2017_Mar_14_1218,60.008391745,MAFE4ImagesEEG,001,200043,
AFNE01.JPG,AFNE01.JPG,AFNE01.JPG,AFNE01.JPG,AFNE01.JPG,AFNE01.JPG,2,0,20,9,,,,,,,,,,,,,,,,,,,,,,,AMSA09.jpg,AMNE20.jpg,AMNE13.jpg,AMSA03.jpg,AMNE20.jpg,MN,1,num_6,32,num_4,0.800137276761,,,2017_Mar_14_1218,60.008391745,MAFE4ImagesEEG,001,200043,
AFNE01.JPG,AFNE01.JPG,AFNE01.JPG,AFNE01.JPG,AFNE01.JPG,AFNE01.JPG,2,1,21,5,,,,,,,,,,,,,,,,,,,,,,,AMSA10.jpg,AMNE06.jpg,AMNE11.jpg,AMSA02.jpg,AMNE06.jpg,MN,1,num_6,16,num_6,1.01676700485,,,2017_Mar_14_1218,60.008391745,MAFE4ImagesEEG,001,200043,
AFNE01.JPG,AFNE01.JPG,AFNE01.JPG,AFNE01.JPG,AFNE01.JPG,AFNE01.JPG,2,2,22,4,,,,,,,,,,,,,,,,,,,,,,,AMSA08.jpg,AMNE14.jpg,AMSA06.jpg,AMNE05.jpg,AMSA06.jpg,MS,2,num_2,16,num_2,1.01679715439,,,2017_Mar_14_1218,60.008391745,MAFE4ImagesEEG,001,200043,
AFNE01.JPG,AFNE01.JPG,AFNE01.JPG,AFNE01.JPG,AFNE01.JPG,AFNE01.JPG,2,3,23,1,,,,,,,,,,,,,,,,,,,,,,,AMNE05.jpg,AMSA07.jpg,AMSA05.jpg,AMNE06.jpg,AMSA07.jpg,MS,2,num_6,32,num_8,1.68338406371,,,2017_Mar_14_1218,60.008391745,MAFE4ImagesEEG,001,200043,
AFNE01.JPG,AFNE01.JPG,AFNE01.JPG,AFNE01.JPG,AFNE01.JPG,AFNE01.JPG,2,4,24,8,,,,,,,,,,,,,,,,,,,,,,,AMSA08.jpg,AMNE04.jpg,AMNE11.jpg,AMSA13.jpg,AMNE11.jpg,MN,1,num_2,32,num_4,1.1167314027,,,2017_Mar_14_1218,60.008391745,MAFE4ImagesEEG,001,200043,
AFNE01.JPG,AFNE01.JPG,AFNE01.JPG,AFNE01.JPG,AFNE01.JPG,AFNE01.JPG,2,5,25,7,,,,,,,,,,,,,,,,,,,,,,,AMSA15.jpg,AMNE07.jpg,AMSA19.jpg,AMNE06.jpg,AMSA15.jpg,MS,2,num_8,16,num_8,2.35005596909,,,2017_Mar_14_1218,60.008391745,MAFE4ImagesEEG,001,200043,
AFNE01.JPG,AFNE01.JPG,AFNE01.JPG,AFNE01.JPG,AFNE01.JPG,AFNE01.JPG,2,6,26,6,,,,,,,,,,,,,,,,,,,,,,,AMNE04.jpg,AMNE12.jpg,AMSA01.jpg,AMSA13.jpg,AMSA01.jpg,MS,2,num_2,16,num_2,1.00015491748,,,2017_Mar_14_1218,60.008391745,MAFE4ImagesEEG,001,200043,
AFNE01.JPG,AFNE01.JPG,AFNE01.JPG,AFNE01.JPG,AFNE01.JPG,AFNE01.JPG,2,7,27,0,,,,,,,,,,,,,,,,,,,,,,,AMSA20.jpg,AMSA09.jpg,AMNE17.jpg,AMNE15.jpg,AMSA09.jpg,MS,2,num_6,16,num_6,1.20010039158,,,2017_Mar_14_1218,60.008391745,MAFE4ImagesEEG,001,200043,
AFNE01.JPG,AFNE01.JPG,AFNE01.JPG,AFNE01.JPG,AFNE01.JPG,AFNE01.JPG,2,8,28,3,,,,,,,,,,,,,,,,,,,,,,,AMSA03.jpg,AMSA12.jpg,AMNE10.jpg,AMNE14.jpg,AMSA03.jpg,MS,2,num_8,32,num_2,2.2334749935,,,2017_Mar_14_1218,60.008391745,MAFE4ImagesEEG,001,200043,
AFNE01.JPG,AFNE01.JPG,AFNE01.JPG,AFNE01.JPG,AFNE01.JPG,AFNE01.JPG,2,9,29,2,,,,,,,,,,,,,,,,,,,,,,,AMSA14.jpg,AMNE17.jpg,AMNE04.jpg,AMSA18.jpg,AMSA14.jpg,MS,2,num_8,32,num_4,0.866754977091,,,2017_Mar_14_1218,60.008391745,MAFE4ImagesEEG,001,200043,
AFNE01.JPG,AFNE01.JPG,AFNE01.JPG,AFNE01.JPG,AFNE01.JPG,AFNE01.JPG,3,0,30,0,,,,,,,,,,,,,,,,,,,,,,,AMNE14.jpg,AMNE20.jpg,AMSA10.jpg,AMSA14.jpg,AMNE20.jpg,MN,1,num_6,32,num_2,1.46669660241,,,2017_Mar_14_1218,60.008391745,MAFE4ImagesEEG,001,200043,
AFNE01.JPG,AFNE01.JPG,AFNE01.JPG,AFNE01.JPG,AFNE01.JPG,AFNE01.JPG,3,1,31,4,,,,,,,,,,,,,,,,,,,,,,,AMNE06.jpg,AMSA20.jpg,AMSA14.jpg,AMNE07.jpg,AMNE06.jpg,MN,1,num_8,16,num_8,2.36673188384,,,2017_Mar_14_1218,60.008391745,MAFE4ImagesEEG,001,200043,
AFNE01.JPG,AFNE01.JPG,AFNE01.JPG,AFNE01.JPG,AFNE01.JPG,AFNE01.JPG,3,2,32,9,,,,,,,,,,,,,,,,,,,,,,,AMNE07.jpg,AMSA10.jpg,AMSA14.jpg,AMNE20.jpg,AMSA10.jpg,MS,2,num_6,32,num_2,1.36672322382,,,2017_Mar_14_1218,60.008391745,MAFE4ImagesEEG,001,200043,
AFNE01.JPG,AFNE01.JPG,AFNE01.JPG,AFNE01.JPG,AFNE01.JPG,AFNE01.JPG,3,3,33,8,,,,,,,,,,,,,,,,,,,,,,,AMSA09.jpg,AMNE06.jpg,AMSA04.jpg,AMNE13.jpg,AMSA04.jpg,MS,2,num_2,32,num_8,0.63352406671,,,2017_Mar_14_1218,60.008391745,MAFE4ImagesEEG,001,200043,
AFNE01.JPG,AFNE01.JPG,AFNE01.JPG,AFNE01.JPG,AFNE01.JPG,AFNE01.JPG,3,4,34,1,,,,,,,,,,,,,,,,,,,,,,,AMSA08.jpg,AMNE10.jpg,AMSA19.jpg,AMNE01.jpg,AMNE10.jpg,MN,1,num_6,16,num_6,1.31671536568,,,2017_Mar_14_1218,60.008391745,MAFE4ImagesEEG,001,200043,
AFNE01.JPG,AFNE01.JPG,AFNE01.JPG,AFNE01.JPG,AFNE01.JPG,AFNE01.JPG,3,5,35,5,,,,,,,,,,,,,,,,,,,,,,,AMNE11.jpg,AMNE10.jpg,AMSA16.jpg,AMSA05.jpg,AMSA16.jpg,MS,2,num_2,16,num_2,1.56671648828,,,2017_Mar_14_1218,60.008391745,MAFE4ImagesEEG,001,200043,
AFNE01.JPG,AFNE01.JPG,AFNE01.JPG,AFNE01.JPG,AFNE01.JPG,AFNE01.JPG,3,6,36,6,,,,,,,,,,,,,,,,,,,,,,,AMSA12.jpg,AMSA02.jpg,AMNE05.jpg,AMNE06.jpg,AMSA12.jpg,MS,2,num_8,32,num_4,0.983442759141,,,2017_Mar_14_1218,60.008391745,MAFE4ImagesEEG,001,200043,
AFNE01.JPG,AFNE01.JPG,AFNE01.JPG,AFNE01.JPG,AFNE01.JPG,AFNE01.JPG,3,7,37,2,,,,,,,,,,,,,,,,,,,,,,,AMSA02.jpg,AMSA09.jpg,AMNE18.jpg,AMNE16.jpg,AMSA09.jpg,MS,2,num_6,32,num_8,1.61672434642,,,2017_Mar_14_1218,60.008391745,MAFE4ImagesEEG,001,200043,
AFNE01.JPG,AFNE01.JPG,AFNE01.JPG,AFNE01.JPG,AFNE01.JPG,AFNE01.JPG,3,8,38,3,,,,,,,,,,,,,,,,,,,,,,,AMSA05.jpg,AMNE10.jpg,AMNE15.jpg,AMSA06.jpg,AMSA06.jpg,MS,2,num_4,32,num_2,2.21698061773,,,2017_Mar_14_1218,60.008391745,MAFE4ImagesEEG,001,200043,
AFNE01.JPG,AFNE01.JPG,AFNE01.JPG,AFNE01.JPG,AFNE01.JPG,AFNE01.JPG,3,9,39,7,,,,,,,,,,,,,,,,,,,,,,,AMSA01.jpg,AMNE11.jpg,AMSA16.jpg,AMNE20.jpg,AMNE11.jpg,MN,1,num_6,32,num_8,1.91668617836,,,2017_Mar_14_1218,60.008391745,MAFE4ImagesEEG,001,200043,
AFNE01.JPG,AFNE01.JPG,AFNE01.JPG,AFNE01.JPG,AFNE01.JPG,AFNE01.JPG,4,0,40,6,,,,,,,,,,,,,,,,,,,,,,,AMNE11.jpg,AMNE07.jpg,AMSA18.jpg,AMSA17.jpg,AMNE07.jpg,MN,1,num_6,32,num_4,1.35009413719,,,2017_Mar_14_1218,60.008391745,MAFE4ImagesEEG,001,200043,
AFNE01.JPG,AFNE01.JPG,AFNE01.JPG,AFNE01.JPG,AFNE01.JPG,AFNE01.JPG,4,1,41,3,,,,,,,,,,,,,,,,,,,,,,,AMNE19.jpg,AMNE07.jpg,AMSA16.jpg,AMSA15.jpg,AMSA15.jpg,MS,2,num_4,32,num_6,1.20043588569,,,2017_Mar_14_1218,60.008391745,MAFE4ImagesEEG,001,200043,
AFNE01.JPG,AFNE01.JPG,AFNE01.JPG,AFNE01.JPG,AFNE01.JPG,AFNE01.JPG,4,2,42,1,,,,,,,,,,,,,,,,,,,,,,,AMNE02.jpg,AMSA12.jpg,AMNE09.jpg,AMSA19.jpg,AMSA12.jpg,MS,2,num_6,32,num_8,0.966755939357,,,2017_Mar_14_1218,60.008391745,MAFE4ImagesEEG,001,200043,
AFNE01.JPG,AFNE01.JPG,AFNE01.JPG,AFNE01.JPG,AFNE01.JPG,AFNE01.JPG,4,3,43,7,,,,,,,,,,,,,,,,,,,,,,,AMNE04.jpg,AMNE14.jpg,AMSA18.jpg,AMSA07.jpg,AMSA18.jpg,MS,2,num_2,16,num_2,1.21674198715,,,2017_Mar_14_1218,60.008391745,MAFE4ImagesEEG,001,200043,
AFNE01.JPG,AFNE01.JPG,AFNE01.JPG,AFNE01.JPG,AFNE01.JPG,AFNE01.JPG,4,4,44,5,,,,,,,,,,,,,,,,,,,,,,,AMSA01.jpg,AMNE01.jpg,AMSA16.jpg,AMNE06.jpg,AMNE06.jpg,MN,1,num_4,16,num_4,2.21667495242,,,2017_Mar_14_1218,60.008391745,MAFE4ImagesEEG,001,200043,
AFNE01.JPG,AFNE01.JPG,AFNE01.JPG,AFNE01.JPG,AFNE01.JPG,AFNE01.JPG,4,5,45,4,,,,,,,,,,,,,,,,,,,,,,,AMSA13.jpg,AMNE17.jpg,AMSA15.jpg,AMNE08.jpg,AMSA13.jpg,MS,2,num_8,16,num_8,1.0168070973,,,2017_Mar_14_1218,60.008391745,MAFE4ImagesEEG,001,200043,
AFNE01.JPG,AFNE01.JPG,AFNE01.JPG,AFNE01.JPG,AFNE01.JPG,AFNE01.JPG,4,6,46,2,,,,,,,,,,,,,,,,,,,,,,,AMSA03.jpg,AMNE03.jpg,AMSA19.jpg,AMNE17.jpg,AMNE17.jpg,MN,1,num_4,32,num_6,0.9834100437,,,2017_Mar_14_1218,60.008391745,MAFE4ImagesEEG,001,200043,
AFNE01.JPG,AFNE01.JPG,AFNE01.JPG,AFNE01.JPG,AFNE01.JPG,AFNE01.JPG,4,7,47,0,,,,,,,,,,,,,,,,,,,,,,,AMSA01.jpg,AMSA03.jpg,AMNE01.jpg,AMNE10.jpg,AMNE01.jpg,MN,1,num_2,16,num_2,1.0667440719,,,2017_Mar_14_1218,60.008391745,MAFE4ImagesEEG,001,200043,
AFNE01.JPG,AFNE01.JPG,AFNE01.JPG,AFNE01.JPG,AFNE01.JPG,AFNE01.JPG,4,8,48,8,,,,,,,,,,,,,,,,,,,,,,,AMSA02.jpg,AMNE09.jpg,AMSA10.jpg,AMNE12.jpg,AMSA10.jpg,MS,2,num_2,16,num_2,2.66661449295,,,2017_Mar_14_1218,60.008391745,MAFE4ImagesEEG,001,200043,
AFNE01.JPG,AFNE01.JPG,AFNE01.JPG,AFNE01.JPG,AFNE01.JPG,AFNE01.JPG,4,9,49,9,,,,,,,,,,,,,,,,,,,,,,,AMNE19.jpg,AMSA03.jpg,AMNE20.jpg,AMSA02.jpg,AMNE20.jpg,MN,1,num_2,32,num_8,4.2998787603,,,2017_Mar_14_1218,60.008391745,MAFE4ImagesEEG,001,200043,
AFNE01.JPG,AFNE01.JPG,AFNE01.JPG,AFNE01.JPG,AFNE01.JPG,AFNE01.JPG,5,0,50,6,,,,,,,,,,,,,,,,,,,,,,,AMSA11.jpg,AMNE17.jpg,AMNE09.jpg,AMSA19.jpg,AMNE09.jpg,MN,1,num_2,32,num_8,1.43343073141,,,2017_Mar_14_1218,60.008391745,MAFE4ImagesEEG,001,200043,
AFNE01.JPG,AFNE01.JPG,AFNE01.JPG,AFNE01.JPG,AFNE01.JPG,AFNE01.JPG,5,1,51,8,,,,,,,,,,,,,,,,,,,,,,,AMNE14.jpg,AMSA19.jpg,AMSA10.jpg,AMNE05.jpg,AMNE14.jpg,MN,1,num_8,16,num_8,1.31696105259,,,2017_Mar_14_1218,60.008391745,MAFE4ImagesEEG,001,200043,
AFNE01.JPG,AFNE01.JPG,AFNE01.JPG,AFNE01.JPG,AFNE01.JPG,AFNE01.JPG,5,2,52,3,,,,,,,,,,,,,,,,,,,,,,,AMSA18.jpg,AMSA09.jpg,AMNE18.jpg,AMNE10.jpg,AMSA09.jpg,MS,2,num_6,16,num_6,1.45006013877,,,2017_Mar_14_1218,60.008391745,MAFE4ImagesEEG,001,200043,
AFNE01.JPG,AFNE01.JPG,AFNE01.JPG,AFNE01.JPG,AFNE01.JPG,AFNE01.JPG,5,3,53,7,,,,,,,,,,,,,,,,,,,,,,,AMNE09.jpg,AMSA18.jpg,AMSA07.jpg,AMNE06.jpg,AMNE06.jpg,MN,1,num_4,16,num_4,1.18341164739,,,2017_Mar_14_1218,60.008391745,MAFE4ImagesEEG,001,200043,
AFNE01.JPG,AFNE01.JPG,AFNE01.JPG,AFNE01.JPG,AFNE01.JPG,AFNE01.JPG,5,4,54,1,,,,,,,,,,,,,,,,,,,,,,,AMSA15.jpg,AMNE14.jpg,AMSA08.jpg,AMNE04.jpg,AMNE04.jpg,MN,1,num_4,16,num_4,1.00011803233,,,2017_Mar_14_1218,60.008391745,MAFE4ImagesEEG,001,200043,
AFNE01.JPG,AFNE01.JPG,AFNE01.JPG,AFNE01.JPG,AFNE01.JPG,AFNE01.JPG,5,5,55,0,,,,,,,,,,,,,,,,,,,,,,,AMSA18.jpg,AMSA10.jpg,AMNE19.jpg,AMNE07.jpg,AMSA10.jpg,MS,2,num_6,32,num_2,1.70003014954,,,2017_Mar_14_1218,60.008391745,MAFE4ImagesEEG,001,200043,
AFNE01.JPG,AFNE01.JPG,AFNE01.JPG,AFNE01.JPG,AFNE01.JPG,AFNE01.JPG,5,6,56,9,,,,,,,,,,,,,,,,,,,,,,,AMSA03.jpg,AMNE04.jpg,AMNE15.jpg,AMSA14.jpg,AMNE15.jpg,MN,1,num_2,32,num_8,1.41662748298,,,2017_Mar_14_1218,60.008391745,MAFE4ImagesEEG,001,200043,
AFNE01.JPG,AFNE01.JPG,AFNE01.JPG,AFNE01.JPG,AFNE01.JPG,AFNE01.JPG,5,7,57,2,,,,,,,,,,,,,,,,,,,,,,,AMSA19.jpg,AMNE09.jpg,AMSA12.jpg,AMNE13.jpg,AMSA19.jpg,MS,2,num_8,32,num_4,1.46669916832,,,2017_Mar_14_1218,60.008391745,MAFE4ImagesEEG,001,200043,
AFNE01.JPG,AFNE01.JPG,AFNE01.JPG,AFNE01.JPG,AFNE01.JPG,AFNE01.JPG,5,8,58,5,,,,,,,,,,,,,,,,,,,,,,,AMSA20.jpg,AMNE14.jpg,AMSA11.jpg,AMNE19.jpg,AMNE19.jpg,MN,1,num_4,32,num_2,2.14976441645,,,2017_Mar_14_1218,60.008391745,MAFE4ImagesEEG,001,200043,
AFNE01.JPG,AFNE01.JPG,AFNE01.JPG,AFNE01.JPG,AFNE01.JPG,AFNE01.JPG,5,9,59,4,,,,,,,,,,,,,,,,,,,,,,,AMNE14.jpg,AMNE02.jpg,AMSA04.jpg,AMSA02.jpg,AMSA04.jpg,MS,2,num_2,32,num_6,2.25004281878,,,2017_Mar_14_1218,60.008391745,MAFE4ImagesEEG,001,200043,
,,,,,,,,,,,,,,,,,,,,,,,,,,,,,,,,,,,,,,,,,,,space,6.8832631447,2017_Mar_14_1218,60.008391745,MAFE4ImagesEEG,001,200043,
AFNE01.JPG,AFNE01.JPG,AFNE01.JPG,AFNE01.JPG,AFNE01.JPG,AFNE01.JPG,,,,,0,0,0,9,,,,,,,,,,,,,,,,,,,AFSA18.jpg,AFNE05.jpg,AFSA03.jpg,AFNE09.jpg,AFNE05.jpg,FN,3,num_6,32,num_4,1.35010857048,,,2017_Mar_14_1218,60.008391745,MAFE4ImagesEEG,001,200043,
AFNE01.JPG,AFNE01.JPG,AFNE01.JPG,AFNE01.JPG,AFNE01.JPG,AFNE01.JPG,,,,,0,1,1,3,,,,,,,,,,,,,,,,,,,AFNE13.jpg,AFSA05.jpg,AFNE18.jpg,AFSA09.jpg,AFSA09.jpg,FS,4,num_4,32,num_2,1.4001234849,,,2017_Mar_14_1218,60.008391745,MAFE4ImagesEEG,001,200043,
AFNE01.JPG,AFNE01.JPG,AFNE01.JPG,AFNE01.JPG,AFNE01.JPG,AFNE01.JPG,,,,,0,2,2,4,,,,,,,,,,,,,,,,,,,AFSA18.jpg,AFSA02.jpg,AFNE09.jpg,AFNE02.jpg,AFNE02.jpg,FN,3,num_4,32,num_6,1.70005452581,,,2017_Mar_14_1218,60.008391745,MAFE4ImagesEEG,001,200043,
AFNE01.JPG,AFNE01.JPG,AFNE01.JPG,AFNE01.JPG,AFNE01.JPG,AFNE01.JPG,,,,,0,3,3,7,,,,,,,,,,,,,,,,,,,AFNE08.jpg,AFNE13.jpg,AFSA11.jpg,AFSA05.jpg,AFNE08.jpg,FN,3,num_8,32,num_2,1.15011851338,,,2017_Mar_14_1218,60.008391745,MAFE4ImagesEEG,001,200043,
AFNE01.JPG,AFNE01.JPG,AFNE01.JPG,AFNE01.JPG,AFNE01.JPG,AFNE01.JPG,,,,,0,4,4,2,,,,,,,,,,,,,,,,,,,AFSA15.jpg,AFNE11.jpg,AFSA13.jpg,AFNE08.jpg,AFNE11.jpg,FN,3,num_6,16,num_6,1.50010039163,,,2017_Mar_14_1218,60.008391745,MAFE4ImagesEEG,001,200043,
AFNE01.JPG,AFNE01.JPG,AFNE01.JPG,AFNE01.JPG,AFNE01.JPG,AFNE01.JPG,,,,,0,5,5,6,,,,,,,,,,,,,,,,,,,AFSA15.jpg,AFSA17.jpg,AFNE07.jpg,AFNE13.jpg,AFNE07.jpg,FN,3,num_2,32,num_8,1.40006286505,,,2017_Mar_14_1218,60.008391745,MAFE4ImagesEEG,001,200043,
AFNE01.JPG,AFNE01.JPG,AFNE01.JPG,AFNE01.JPG,AFNE01.JPG,AFNE01.JPG,,,,,0,6,6,5,,,,,,,,,,,,,,,,,,,AFNE10.jpg,AFNE18.jpg,AFSA11.jpg,AFSA03.jpg,AFNE18.jpg,FN,3,num_6,32,num_2,1.78343313694,,,2017_Mar_14_1218,60.008391745,MAFE4ImagesEEG,001,200043,
AFNE01.JPG,AFNE01.JPG,AFNE01.JPG,AFNE01.JPG,AFNE01.JPG,AFNE01.JPG,,,,,0,7,7,0,,,,,,,,,,,,,,,,,,,AFSA07.jpg,AFSA17.jpg,AFNE14.jpg,AFNE05.jpg,AFNE14.jpg,FN,3,num_2,32,num_8,2.08338630892,,,2017_Mar_14_1218,60.008391745,MAFE4ImagesEEG,001,200043,
AFNE01.JPG,AFNE01.JPG,AFNE01.JPG,AFNE01.JPG,AFNE01.JPG,AFNE01.JPG,,,,,0,8,8,1,,,,,,,,,,,,,,,,,,,AFSA12.jpg,AFSA06.jpg,AFNE13.jpg,AFNE17.jpg,AFSA12.jpg,FS,4,num_8,32,num_4,1.81672434643,,,2017_Mar_14_1218,60.008391745,MAFE4ImagesEEG,001,200043,
AFNE01.JPG,AFNE01.JPG,AFNE01.JPG,AFNE01.JPG,AFNE01.JPG,AFNE01.JPG,,,,,0,9,9,8,,,,,,,,,,,,,,,,,,,AFNE04.jpg,AFSA07.jpg,AFSA14.jpg,AFNE12.jpg,AFSA07.jpg,FS,4,num_6,32,num_8,0.633441957296,,,2017_Mar_14_1218,60.008391745,MAFE4ImagesEEG,001,200043,
AFNE01.JPG,AFNE01.JPG,AFNE01.JPG,AFNE01.JPG,AFNE01.JPG,AFNE01.JPG,,,,,1,0,10,3,,,,,,,,,,,,,,,,,,,AFSA11.jpg,AFNE03.jpg,AFNE04.jpg,AFSA06.jpg,AFSA06.jpg,FS,4,num_4,32,num_2,1.35011049494,,,2017_Mar_14_1218,60.008391745,MAFE4ImagesEEG,001,200043,
AFNE01.JPG,AFNE01.JPG,AFNE01.JPG,AFNE01.JPG,AFNE01.JPG,AFNE01.JPG,,,,,1,1,11,9,,,,,,,,,,,,,,,,,,,AFNE16.jpg,AFNE13.jpg,AFSA05.jpg,AFSA03.jpg,AFSA05.jpg,FS,4,num_2,16,num_2,1.13347274828,,,2017_Mar_14_1218,60.008391745,MAFE4ImagesEEG,001,200043,
AFNE01.JPG,AFNE01.JPG,AFNE01.JPG,AFNE01.JPG,AFNE01.JPG,AFNE01.JPG,,,,,1,2,12,8,,,,,,,,,,,,,,,,,,,AFSA14.jpg,AFSA06.jpg,AFNE01.jpg,AFNE14.jpg,AFSA06.jpg,FS,4,num_6,32,num_8,1.56676042965,,,2017_Mar_14_1218,60.008391745,MAFE4ImagesEEG,001,200043,
AFNE01.JPG,AFNE01.JPG,AFNE01.JPG,AFNE01.JPG,AFNE01.JPG,AFNE01.JPG,,,,,1,3,13,5,,,,,,,,,,,,,,,,,,,AFNE09.jpg,AFSA17.jpg,AFSA20.jpg,AFNE01.jpg,AFSA20.jpg,FS,4,num_2,32,num_8,1.36685825535,,,2017_Mar_14_1218,60.008391745,MAFE4ImagesEEG,001,200043,
AFNE01.JPG,AFNE01.JPG,AFNE01.JPG,AFNE01.JPG,AFNE01.JPG,AFNE01.JPG,,,,,1,4,14,0,,,,,,,,,,,,,,,,,,,AFNE19.jpg,AFNE06.jpg,AFSA01.jpg,AFSA12.jpg,AFSA01.jpg,FS,4,num_2,32,num_8,1.06674375123,,,2017_Mar_14_1218,60.008391745,MAFE4ImagesEEG,001,200043,
AFNE01.JPG,AFNE01.JPG,AFNE01.JPG,AFNE01.JPG,AFNE01.JPG,AFNE01.JPG,,,,,1,5,15,4,,,,,,,,,,,,,,,,,,,AFSA08.jpg,AFNE01.jpg,AFSA04.jpg,AFNE11.jpg,AFNE01.jpg,FN,3,num_6,32,num_8,1.16674118524,,,2017_Mar_14_1218,60.008391745,MAFE4ImagesEEG,001,200043,
AFNE01.JPG,AFNE01.JPG,AFNE01.JPG,AFNE01.JPG,AFNE01.JPG,AFNE01.JPG,,,,,1,6,16,7,,,,,,,,,,,,,,,,,,,AFNE01.jpg,AFSA10.jpg,AFNE11.jpg,AFSA13.jpg,AFSA13.jpg,FS,4,num_4,16,num_4,1.03345190024,,,2017_Mar_14_1218,60.008391745,MAFE4ImagesEEG,001,200043,
AFNE01.JPG,AFNE01.JPG,AFNE01.JPG,AFNE01.JPG,AFNE01.JPG,AFNE01.JPG,,,,,1,7,17,1,,,,,,,,,,,,,,,,,,,AFNE17.jpg,AFNE03.jpg,AFSA13.jpg,AFSA16.jpg,AFNE03.jpg,FN,3,num_6,16,num_6,0.766473688127,,,2017_Mar_14_1218,60.008391745,MAFE4ImagesEEG,001,200043,
AFNE01.JPG,AFNE01.JPG,AFNE01.JPG,AFNE01.JPG,AFNE01.JPG,AFNE01.JPG,,,,,1,8,18,6,,,,,,,,,,,,,,,,,,,AFSA02.jpg,AFNE02.jpg,AFNE08.jpg,AFSA07.jpg,AFNE02.jpg,FN,3,num_6,32,num_2,1.55009509943,,,2017_Mar_14_1218,60.008391745,MAFE4ImagesEEG,001,200043,
AFNE01.JPG,AFNE01.JPG,AFNE01.JPG,AFNE01.JPG,AFNE01.JPG,AFNE01.JPG,,,,,1,9,19,2,,,,,,,,,,,,,,,,,,,AFNE10.jpg,AFSA08.jpg,AFSA06.jpg,AFNE11.jpg,AFNE10.jpg,FN,3,num_8,16,num_8,0.683484134614,,,2017_Mar_14_1218,60.008391745,MAFE4ImagesEEG,001,200043,
AFNE01.JPG,AFNE01.JPG,AFNE01.JPG,AFNE01.JPG,AFNE01.JPG,AFNE01.JPG,,,,,2,0,20,6,,,,,,,,,,,,,,,,,,,AFSA15.jpg,AFNE14.jpg,AFNE05.jpg,AFSA05.jpg,AFNE05.jpg,FN,3,num_2,16,num_2,2.13331398199,,,2017_Mar_14_1218,60.008391745,MAFE4ImagesEEG,001,200043,
AFNE01.JPG,AFNE01.JPG,AFNE01.JPG,AFNE01.JPG,AFNE01.JPG,AFNE01.JPG,,,,,2,1,21,8,,,,,,,,,,,,,,,,,,,AFSA03.jpg,AFNE05.jpg,AFSA16.jpg,AFNE04.jpg,AFNE05.jpg,FN,3,num_6,16,num_6,0.833423675096,,,2017_Mar_14_1218,60.008391745,MAFE4ImagesEEG,001,200043,
AFNE01.JPG,AFNE01.JPG,AFNE01.JPG,AFNE01.JPG,AFNE01.JPG,AFNE01.JPG,,,,,2,2,22,0,,,,,,,,,,,,,,,,,,,AFNE10.jpg,AFSA12.jpg,AFNE01.jpg,AFSA18.jpg,AFNE10.jpg,FN,3,num_8,16,num_8,0.816855208366,,,2017_Mar_14_1218,60.008391745,MAFE4ImagesEEG,001,200043,
AFNE01.JPG,AFNE01.JPG,AFNE01.JPG,AFNE01.JPG,AFNE01.JPG,AFNE01.JPG,,,,,2,3,23,3,,,,,,,,,,,,,,,,,,,AFNE08.jpg,AFSA05.jpg,AFSA20.jpg,AFNE20.jpg,AFSA20.jpg,FS,4,num_2,16,num_2,2.13335535751,,,2017_Mar_14_1218,60.008391745,MAFE4ImagesEEG,001,200043,
AFNE01.JPG,AFNE01.JPG,AFNE01.JPG,AFNE01.JPG,AFNE01.JPG,AFNE01.JPG,,,,,2,4,24,9,,,,,,,,,,,,,,,,,,,AFNE02.jpg,AFSA16.jpg,AFNE01.jpg,AFSA17.jpg,AFNE01.jpg,FN,3,num_2,32,num_4,1.11675225082,,,2017_Mar_14_1218,60.008391745,MAFE4ImagesEEG,001,200043,
AFNE01.JPG,AFNE01.JPG,AFNE01.JPG,AFNE01.JPG,AFNE01.JPG,AFNE01.JPG,,,,,2,5,25,5,,,,,,,,,,,,,,,,,,,AFSA07.jpg,AFSA02.jpg,AFNE01.jpg,AFNE02.jpg,AFNE02.jpg,FN,3,num_4,16,num_4,0.766753373435,,,2017_Mar_14_1218,60.008391745,MAFE4ImagesEEG,001,200043,
AFNE01.JPG,AFNE01.JPG,AFNE01.JPG,AFNE01.JPG,AFNE01.JPG,AFNE01.JPG,,,,,2,6,26,7,,,,,,,,,,,,,,,,,,,AFNE09.jpg,AFSA18.jpg,AFNE18.jpg,AFSA02.jpg,AFNE09.jpg,FN,3,num_8,16,num_8,0.950111457147,,,2017_Mar_14_1218,60.008391745,MAFE4ImagesEEG,001,200043,
AFNE01.JPG,AFNE01.JPG,AFNE01.JPG,AFNE01.JPG,AFNE01.JPG,AFNE01.JPG,,,,,2,7,27,1,,,,,,,,,,,,,,,,,,,AFNE19.jpg,AFNE11.jpg,AFSA03.jpg,AFSA17.jpg,AFSA17.jpg,FS,4,num_4,32,num_2,1.43349616235,,,2017_Mar_14_1218,60.008391745,MAFE4ImagesEEG,001,200043,
AFNE01.JPG,AFNE01.JPG,AFNE01.JPG,AFNE01.JPG,AFNE01.JPG,AFNE01.JPG,,,,,2,8,28,2,,,,,,,,,,,,,,,,,,,AFSA13.jpg,AFNE04.jpg,AFNE08.jpg,AFSA18.jpg,AFNE08.jpg,FN,3,num_2,32,num_8,1.38325608848,,,2017_Mar_14_1218,60.008391745,MAFE4ImagesEEG,001,200043,
AFNE01.JPG,AFNE01.JPG,AFNE01.JPG,AFNE01.JPG,AFNE01.JPG,AFNE01.JPG,,,,,2,9,29,4,,,,,,,,,,,,,,,,,,,AFSA09.jpg,AFNE13.jpg,AFNE06.jpg,AFSA13.jpg,AFNE13.jpg,FN,3,num_6,32,num_2,2.08323748555,,,2017_Mar_14_1218,60.008391745,MAFE4ImagesEEG,001,200043,
AFNE01.JPG,AFNE01.JPG,AFNE01.JPG,AFNE01.JPG,AFNE01.JPG,AFNE01.JPG,,,,,3,0,30,2,,,,,,,,,,,,,,,,,,,AFSA18.jpg,AFSA10.jpg,AFNE12.jpg,AFNE18.jpg,AFNE12.jpg,FN,3,num_2,32,num_4,2.33372260479,,,2017_Mar_14_1218,60.008391745,MAFE4ImagesEEG,001,200043,
AFNE01.JPG,AFNE01.JPG,AFNE01.JPG,AFNE01.JPG,AFNE01.JPG,AFNE01.JPG,,,,,3,1,31,8,,,,,,,,,,,,,,,,,,,AFSA07.jpg,AFNE03.jpg,AFSA12.jpg,AFNE14.jpg,AFNE03.jpg,FN,3,num_6,32,num_2,2.19998268003,,,2017_Mar_14_1218,60.008391745,MAFE4ImagesEEG,001,200043,
AFNE01.JPG,AFNE01.JPG,AFNE01.JPG,AFNE01.JPG,AFNE01.JPG,AFNE01.JPG,,,,,3,2,32,4,,,,,,,,,,,,,,,,,,,AFSA17.jpg,AFNE14.jpg,AFSA05.jpg,AFNE12.jpg,AFSA17.jpg,FS,4,num_8,16,num_8,2.59999069857,,,2017_Mar_14_1218,60.008391745,MAFE4ImagesEEG,001,200043,
AFNE01.JPG,AFNE01.JPG,AFNE01.JPG,AFNE01.JPG,AFNE01.JPG,AFNE01.JPG,,,,,3,3,33,6,,,,,,,,,,,,,,,,,,,AFNE14.jpg,AFNE06.jpg,AFSA19.jpg,AFSA01.jpg,AFSA19.jpg,FS,4,num_2,16,num_2,1.90002918732,,,2017_Mar_14_1218,60.008391745,MAFE4ImagesEEG,001,200043,
AFNE01.JPG,AFNE01.JPG,AFNE01.JPG,AFNE01.JPG,AFNE01.JPG,AFNE01.JPG,,,,,3,4,34,7,,,,,,,,,,,,,,,,,,,AFNE17.jpg,AFSA16.jpg,AFSA18.jpg,AFNE14.jpg,AFNE14.jpg,FN,3,num_4,32,num_6,2.05000561295,,,2017_Mar_14_1218,60.008391745,MAFE4ImagesEEG,001,200043,
AFNE01.JPG,AFNE01.JPG,AFNE01.JPG,AFNE01.JPG,AFNE01.JPG,AFNE01.JPG,,,,,3,5,35,5,,,,,,,,,,,,,,,,,,,AFSA02.jpg,AFSA09.jpg,AFNE16.jpg,AFNE17.jpg,AFSA09.jpg,FS,4,num_6,32,num_8,1.70006639318,,,2017_Mar_14_1218,60.008391745,MAFE4ImagesEEG,001,200043,
AFNE01.JPG,AFNE01.JPG,AFNE01.JPG,AFNE01.JPG,AFNE01.JPG,AFNE01.JPG,,,,,3,6,36,0,,,,,,,,,,,,,,,,,,,AFNE15.jpg,AFSA11.jpg,AFNE10.jpg,AFSA20.jpg,AFNE10.jpg,FN,3,num_2,16,num_2,1.21675642038,,,2017_Mar_14_1218,60.008391745,MAFE4ImagesEEG,001,200043,
AFNE01.JPG,AFNE01.JPG,AFNE01.JPG,AFNE01.JPG,AFNE01.JPG,AFNE01.JPG,,,,,3,7,37,9,,,,,,,,,,,,,,,,,,,AFNE12.jpg,AFSA05.jpg,AFSA19.jpg,AFNE01.jpg,AFNE12.jpg,FN,3,num_8,32,num_6,0.950105363096,,,2017_Mar_14_1218,60.008391745,MAFE4ImagesEEG,001,200043,
AFNE01.JPG,AFNE01.JPG,AFNE01.JPG,AFNE01.JPG,AFNE01.JPG,AFNE01.JPG,,,,,3,8,38,3,,,,,,,,,,,,,,,,,,,AFSA17.jpg,AFNE04.jpg,AFSA18.jpg,AFNE18.jpg,AFSA18.jpg,FS,4,num_2,32,num_8,0.700155238155,,,2017_Mar_14_1218,60.008391745,MAFE4ImagesEEG,001,200043,
AFNE01.JPG,AFNE01.JPG,AFNE01.JPG,AFNE01.JPG,AFNE01.JPG,AFNE01.JPG,,,,,3,9,39,1,,,,,,,,,,,,,,,,,,,AFNE12.jpg,AFSA02.jpg,AFNE09.jpg,AFSA03.jpg,AFSA03.jpg,FS,4,num_4,16,num_4,1.03345254168,,,2017_Mar_14_1218,60.008391745,MAFE4ImagesEEG,001,200043,
AFNE01.JPG,AFNE01.JPG,AFNE01.JPG,AFNE01.JPG,AFNE01.JPG,AFNE01.JPG,,,,,4,0,40,1,,,,,,,,,,,,,,,,,,,AFSA07.jpg,AFNE01.jpg,AFSA02.jpg,AFNE07.jpg,AFSA02.jpg,FS,4,num_2,16,num_2,1.21675353375,,,2017_Mar_14_1218,60.008391745,MAFE4ImagesEEG,001,200043,
AFNE01.JPG,AFNE01.JPG,AFNE01.JPG,AFNE01.JPG,AFNE01.JPG,AFNE01.JPG,,,,,4,1,41,9,,,,,,,,,,,,,,,,,,,AFNE07.jpg,AFSA05.jpg,AFSA09.jpg,AFNE13.jpg,AFNE13.jpg,FN,3,num_4,32,num_8,1.00009525975,,,2017_Mar_14_1218,60.008391745,MAFE4ImagesEEG,001,200043,
AFNE01.JPG,AFNE01.JPG,AFNE01.JPG,AFNE01.JPG,AFNE01.JPG,AFNE01.JPG,,,,,4,2,42,7,,,,,,,,,,,,,,,,,,,AFNE16.jpg,AFNE04.jpg,AFSA09.jpg,AFSA15.jpg,AFSA15.jpg,FS,4,num_4,16,num_4,1.36674984527,,,2017_Mar_14_1218,60.008391745,MAFE4ImagesEEG,001,200043,
AFNE01.JPG,AFNE01.JPG,AFNE01.JPG,AFNE01.JPG,AFNE01.JPG,AFNE01.JPG,,,,,4,3,43,4,,,,,,,,,,,,,,,,,,,AFSA06.jpg,AFNE15.jpg,AFNE10.jpg,AFSA12.jpg,AFNE10.jpg,FN,3,num_2,16,num_2,1.0501784918,,,2017_Mar_14_1218,60.008391745,MAFE4ImagesEEG,001,200043,
AFNE01.JPG,AFNE01.JPG,AFNE01.JPG,AFNE01.JPG,AFNE01.JPG,AFNE01.JPG,,,,,4,4,44,5,,,,,,,,,,,,,,,,,,,AFNE16.jpg,AFSA14.jpg,AFNE10.jpg,AFSA11.jpg,AFSA14.jpg,FS,4,num_6,16,num_6,1.85002966848,,,2017_Mar_14_1218,60.008391745,MAFE4ImagesEEG,001,200043,
AFNE01.JPG,AFNE01.JPG,AFNE01.JPG,AFNE01.JPG,AFNE01.JPG,AFNE01.JPG,,,,,4,5,45,3,,,,,,,,,,,,,,,,,,,AFSA08.jpg,AFSA19.jpg,AFNE04.jpg,AFNE18.jpg,AFNE04.jpg,FN,3,num_2,32,num_4,0.983473550179,,,2017_Mar_14_1218,60.008391745,MAFE4ImagesEEG,001,200043,
AFNE01.JPG,AFNE01.JPG,AFNE01.JPG,AFNE01.JPG,AFNE01.JPG,AFNE01.JPG,,,,,4,6,46,8,,,,,,,,,,,,,,,,,,,AFNE12.jpg,AFSA12.jpg,AFSA06.jpg,AFNE11.jpg,AFSA06.jpg,FS,4,num_2,32,num_4,1.18346424872,,,2017_Mar_14_1218,60.008391745,MAFE4ImagesEEG,001,200043,
AFNE01.JPG,AFNE01.JPG,AFNE01.JPG,AFNE01.JPG,AFNE01.JPG,AFNE01.JPG,,,,,4,7,47,2,,,,,,,,,,,,,,,,,,,AFNE18.jpg,AFSA04.jpg,AFNE04.jpg,AFSA16.jpg,AFNE18.jpg,FN,3,num_8,16,num_8,2.91632342141,,,2017_Mar_14_1218,60.008391745,MAFE4ImagesEEG,001,200043,
AFNE01.JPG,AFNE01.JPG,AFNE01.JPG,AFNE01.JPG,AFNE01.JPG,AFNE01.JPG,,,,,4,8,48,0,,,,,,,,,,,,,,,,,,,AFSA18.jpg,AFNE04.jpg,AFNE09.jpg,AFSA01.jpg,AFNE09.jpg,FN,3,num_2,32,num_8,1.40007665684,,,2017_Mar_14_1218,60.008391745,MAFE4ImagesEEG,001,200043,
AFNE01.JPG,AFNE01.JPG,AFNE01.JPG,AFNE01.JPG,AFNE01.JPG,AFNE01.JPG,,,,,4,9,49,6,,,,,,,,,,,,,,,,,,,AFNE18.jpg,AFSA19.jpg,AFSA13.jpg,AFNE08.jpg,AFNE18.jpg,FN,3,num_8,32,num_4,1.16696313734,,,2017_Mar_14_1218,60.008391745,MAFE4ImagesEEG,001,200043,
AFNE01.JPG,AFNE01.JPG,AFNE01.JPG,AFNE01.JPG,AFNE01.JPG,AFNE01.JPG,,,,,5,0,50,4,,,,,,,,,,,,,,,,,,,AFNE05.jpg,AFSA04.jpg,AFNE02.jpg,AFSA02.jpg,AFNE05.jpg,FN,3,num_8,16,num_8,1.29977740644,,,2017_Mar_14_1218,60.008391745,MAFE4ImagesEEG,001,200043,
AFNE01.JPG,AFNE01.JPG,AFNE01.JPG,AFNE01.JPG,AFNE01.JPG,AFNE01.JPG,,,,,5,1,51,5,,,,,,,,,,,,,,,,,,,AFSA09.jpg,AFNE07.jpg,AFSA13.jpg,AFNE09.jpg,AFNE09.jpg,FN,3,num_4,32,num_6,1.63337492262,,,2017_Mar_14_1218,60.008391745,MAFE4ImagesEEG,001,200043,
AFNE01.JPG,AFNE01.JPG,AFNE01.JPG,AFNE01.JPG,AFNE01.JPG,AFNE01.JPG,,,,,5,2,52,8,,,,,,,,,,,,,,,,,,,AFNE13.jpg,AFSA02.jpg,AFSA12.jpg,AFNE01.jpg,AFSA02.jpg,FS,4,num_6,16,num_6,2.38334749936,,,2017_Mar_14_1218,60.008391745,MAFE4ImagesEEG,001,200043,
AFNE01.JPG,AFNE01.JPG,AFNE01.JPG,AFNE01.JPG,AFNE01.JPG,AFNE01.JPG,,,,,5,3,53,3,,,,,,,,,,,,,,,,,,,AFSA20.jpg,AFNE03.jpg,AFSA15.jpg,AFNE12.jpg,AFSA15.jpg,FS,4,num_2,16,num_2,2.96664079366,,,2017_Mar_14_1218,60.008391745,MAFE4ImagesEEG,001,200043,
AFNE01.JPG,AFNE01.JPG,AFNE01.JPG,AFNE01.JPG,AFNE01.JPG,AFNE01.JPG,,,,,5,4,54,1,,,,,,,,,,,,,,,,,,,AFSA10.jpg,AFNE19.jpg,AFSA18.jpg,AFNE10.jpg,AFSA10.jpg,FS,4,num_8,32,num_4,1.68337572447,,,2017_Mar_14_1218,60.008391745,MAFE4ImagesEEG,001,200043,
AFNE01.JPG,AFNE01.JPG,AFNE01.JPG,AFNE01.JPG,AFNE01.JPG,AFNE01.JPG,,,,,5,5,55,2,,,,,,,,,,,,,,,,,,,AFNE08.jpg,AFNE09.jpg,AFSA19.jpg,AFSA15.jpg,AFSA19.jpg,FS,4,num_2,32,num_8,0.966785126599,,,2017_Mar_14_1218,60.008391745,MAFE4ImagesEEG,001,200043,
AFNE01.JPG,AFNE01.JPG,AFNE01.JPG,AFNE01.JPG,AFNE01.JPG,AFNE01.JPG,,,,,5,6,56,7,,,,,,,,,,,,,,,,,,,AFNE16.jpg,AFNE09.jpg,AFSA11.jpg,AFSA13.jpg,AFNE09.jpg,FN,3,num_6,32,num_4,1.11672434642,,,2017_Mar_14_1218,60.008391745,MAFE4ImagesEEG,001,200043,
AFNE01.JPG,AFNE01.JPG,AFNE01.JPG,AFNE01.JPG,AFNE01.JPG,AFNE01.JPG,,,,,5,7,57,0,,,,,,,,,,,,,,,,,,,AFNE11.jpg,AFSA01.jpg,AFNE04.jpg,AFSA11.jpg,AFNE11.jpg,FN,3,num_8,16,num_8,1.30004843173,,,2017_Mar_14_1218,60.008391745,MAFE4ImagesEEG,001,200043,
AFNE01.JPG,AFNE01.JPG,AFNE01.JPG,AFNE01.JPG,AFNE01.JPG,AFNE01.JPG,,,,,5,8,58,9,,,,,,,,,,,,,,,,,,,AFSA12.jpg,AFNE07.jpg,AFSA15.jpg,AFNE11.jpg,AFNE11.jpg,FN,3,num_4,16,num_4,0.733471786079,,,2017_Mar_14_1218,60.008391745,MAFE4ImagesEEG,001,200043,
AFNE01.JPG,AFNE01.JPG,AFNE01.JPG,AFNE01.JPG,AFNE01.JPG,AFNE01.JPG,,,,,5,9,59,6,,,,,,,,,,,,,,,,,,,AFNE20.jpg,AFSA18.jpg,AFSA05.jpg,AFNE03.jpg,AFNE03.jpg,FN,3,num_4,16,num_4,1.03342495806,,,2017_Mar_14_1218,60.008391745,MAFE4ImagesEEG,001,200043,
,,,,,,,,,,,,,,,,,,,,,,,,,,,,,,,,,,,,,,,,,,,space,10.4496624211,2017_Mar_14_1218,60.008391745,MAFE4ImagesEEG,001,200043,
AFNE01.JPG,AFNE01.JPG,AFNE01.JPG,AFNE01.JPG,AFNE01.JPG,AFNE01.JPG,,,,,,,,,0,0,0,8,,,,,,,,,,,,,,,AMNE20.jpg,AMNE05.jpg,AMSA08.jpg,AMSA05.jpg,AMNE05.jpg,MN,1,num_6,32,num_2,1.01679426775,,,2017_Mar_14_1218,60.008391745,MAFE4ImagesEEG,001,200043,
AFNE01.JPG,AFNE01.JPG,AFNE01.JPG,AFNE01.JPG,AFNE01.JPG,AFNE01.JPG,,,,,,,,,0,1,1,0,,,,,,,,,,,,,,,AMSA18.jpg,AMNE03.jpg,AMNE18.jpg,AMSA02.jpg,AMSA02.jpg,MS,2,num_4,16,num_4,0.966801484348,,,2017_Mar_14_1218,60.008391745,MAFE4ImagesEEG,001,200043,
AFNE01.JPG,AFNE01.JPG,AFNE01.JPG,AFNE01.JPG,AFNE01.JPG,AFNE01.JPG,,,,,,,,,0,2,2,5,,,,,,,,,,,,,,,AMSA02.jpg,AMSA14.jpg,AMNE16.jpg,AMNE09.jpg,AMSA02.jpg,MS,2,num_8,16,num_8,0.81676411815,,,2017_Mar_14_1218,60.008391745,MAFE4ImagesEEG,001,200043,
AFNE01.JPG,AFNE01.JPG,AFNE01.JPG,AFNE01.JPG,AFNE01.JPG,AFNE01.JPG,,,,,,,,,0,3,3,2,,,,,,,,,,,,,,,AMSA13.jpg,AMSA09.jpg,AMNE20.jpg,AMNE15.jpg,AMNE20.jpg,MN,1,num_2,16,num_2,1.40007024206,,,2017_Mar_14_1218,60.008391745,MAFE4ImagesEEG,001,200043,
AFNE01.JPG,AFNE01.JPG,AFNE01.JPG,AFNE01.JPG,AFNE01.JPG,AFNE01.JPG,,,,,,,,,0,4,4,1,,,,,,,,,,,,,,,AMSA05.jpg,AMSA15.jpg,AMNE04.jpg,AMNE19.jpg,AMNE04.jpg,MN,1,num_2,32,num_4,0.766773259267,,,2017_Mar_14_1218,60.008391745,MAFE4ImagesEEG,001,200043,
AFNE01.JPG,AFNE01.JPG,AFNE01.JPG,AFNE01.JPG,AFNE01.JPG,AFNE01.JPG,,,,,,,,,0,5,5,3,,,,,,,,,,,,,,,AMNE15.jpg,AMSA12.jpg,AMNE17.jpg,AMSA18.jpg,AMSA18.jpg,MS,2,num_4,32,num_8,2.21664961404,,,2017_Mar_14_1218,60.008391745,MAFE4ImagesEEG,001,200043,
AFNE01.JPG,AFNE01.JPG,AFNE01.JPG,AFNE01.JPG,AFNE01.JPG,AFNE01.JPG,,,,,,,,,0,6,6,4,,,,,,,,,,,,,,,AMSA01.jpg,AMSA18.jpg,AMNE16.jpg,AMNE01.jpg,AMSA01.jpg,MS,2,num_8,32,num_4,1.35010087275,,,2017_Mar_14_1218,60.008391745,MAFE4ImagesEEG,001,200043,
AFNE01.JPG,AFNE01.JPG,AFNE01.JPG,AFNE01.JPG,AFNE01.JPG,AFNE01.JPG,,,,,,,,,0,7,7,7,,,,,,,,,,,,,,,AMSA02.jpg,AMNE15.jpg,AMNE14.jpg,AMSA16.jpg,AMSA16.jpg,MS,2,num_4,32,num_6,1.26672001643,,,2017_Mar_14_1218,60.008391745,MAFE4ImagesEEG,001,200043,
AFNE01.JPG,AFNE01.JPG,AFNE01.JPG,AFNE01.JPG,AFNE01.JPG,AFNE01.JPG,,,,,,,,,0,8,8,6,,,,,,,,,,,,,,,AMSA01.jpg,AMNE01.jpg,AMSA14.jpg,AMNE15.jpg,AMNE15.jpg,MN,1,num_4,16,num_4,1.56670301722,,,2017_Mar_14_1218,60.008391745,MAFE4ImagesEEG,001,200043,
AFNE01.JPG,AFNE01.JPG,AFNE01.JPG,AFNE01.JPG,AFNE01.JPG,AFNE01.JPG,,,,,,,,,0,9,9,9,,,,,,,,,,,,,,,AMNE15.jpg,AMSA03.jpg,AMSA14.jpg,AMNE04.jpg,AMNE15.jpg,MN,1,num_8,16,num_8,0.950126531883,,,2017_Mar_14_1218,60.008391745,MAFE4ImagesEEG,001,200043,
AFNE01.JPG,AFNE01.JPG,AFNE01.JPG,AFNE01.JPG,AFNE01.JPG,AFNE01.JPG,,,,,,,,,1,0,10,8,,,,,,,,,,,,,,,AMNE19.jpg,AMNE15.jpg,AMSA20.jpg,AMSA12.jpg,AMSA20.jpg,MS,2,num_2,32,num_6,2.61648764031,,,2017_Mar_14_1218,60.008391745,MAFE4ImagesEEG,001,200043,
AFNE01.JPG,AFNE01.JPG,AFNE01.JPG,AFNE01.JPG,AFNE01.JPG,AFNE01.JPG,,,,,,,,,1,1,11,3,,,,,,,,,,,,,,,AMSA20.jpg,AMNE20.jpg,AMSA01.jpg,AMNE16.jpg,AMNE20.jpg,MN,1,num_6,16,num_6,1.48342511844,,,2017_Mar_14_1218,60.008391745,MAFE4ImagesEEG,001,200043,
AFNE01.JPG,AFNE01.JPG,AFNE01.JPG,AFNE01.JPG,AFNE01.JPG,AFNE01.JPG,,,,,,,,,1,2,12,9,,,,,,,,,,,,,,,AMSA01.jpg,AMSA06.jpg,AMNE18.jpg,AMNE17.jpg,AMSA01.jpg,MS,2,num_8,16,num_8,1.35010375938,,,2017_Mar_14_1218,60.008391745,MAFE4ImagesEEG,001,200043,
AFNE01.JPG,AFNE01.JPG,AFNE01.JPG,AFNE01.JPG,AFNE01.JPG,AFNE01.JPG,,,,,,,,,1,3,13,2,,,,,,,,,,,,,,,AMSA12.jpg,AMNE19.jpg,AMSA07.jpg,AMNE16.jpg,AMSA07.jpg,MS,2,num_2,16,num_2,1.58336321561,,,2017_Mar_14_1218,60.008391745,MAFE4ImagesEEG,001,200043,
AFNE01.JPG,AFNE01.JPG,AFNE01.JPG,AFNE01.JPG,AFNE01.JPG,AFNE01.JPG,,,,,,,,,1,4,14,0,,,,,,,,,,,,,,,AMSA03.jpg,AMNE03.jpg,AMSA10.jpg,AMNE11.jpg,AMNE03.jpg,MN,1,num_6,32,num_8,1.00638304697,,,2017_Mar_14_1218,60.008391745,MAFE4ImagesEEG,001,200043,
AFNE01.JPG,AFNE01.JPG,AFNE01.JPG,AFNE01.JPG,AFNE01.JPG,AFNE01.JPG,,,,,,,,,1,5,15,1,,,,,,,,,,,,,,,AMNE06.jpg,AMSA20.jpg,AMSA12.jpg,AMNE05.jpg,AMSA12.jpg,MS,2,num_2,32,num_4,1.10011001385,,,2017_Mar_14_1218,60.008391745,MAFE4ImagesEEG,001,200043,
AFNE01.JPG,AFNE01.JPG,AFNE01.JPG,AFNE01.JPG,AFNE01.JPG,AFNE01.JPG,,,,,,,,,1,6,16,5,,,,,,,,,,,,,,,AMNE11.jpg,AMSA16.jpg,AMNE07.jpg,AMSA04.jpg,AMNE07.jpg,MN,1,num_2,16,num_2,2.03339544998,,,2017_Mar_14_1218,60.008391745,MAFE4ImagesEEG,001,200043,
AFNE01.JPG,AFNE01.JPG,AFNE01.JPG,AFNE01.JPG,AFNE01.JPG,AFNE01.JPG,,,,,,,,,1,7,17,4,,,,,,,,,,,,,,,AMSA17.jpg,AMNE06.jpg,AMSA03.jpg,AMNE16.jpg,AMNE16.jpg,MN,1,num_4,32,num_8,0.833446768404,,,2017_Mar_14_1218,60.008391745,MAFE4ImagesEEG,001,200043,
AFNE01.JPG,AFNE01.JPG,AFNE01.JPG,AFNE01.JPG,AFNE01.JPG,AFNE01.JPG,,,,,,,,,1,8,18,6,,,,,,,,,,,,,,,AMSA06.jpg,AMNE08.jpg,AMNE18.jpg,AMSA12.jpg,AMNE08.jpg,MN,1,num_6,16,num_6,0.650095740915,,,2017_Mar_14_1218,60.008391745,MAFE4ImagesEEG,001,200043,
AFNE01.JPG,AFNE01.JPG,AFNE01.JPG,AFNE01.JPG,AFNE01.JPG,AFNE01.JPG,,,,,,,,,1,9,19,7,,,,,,,,,,,,,,,AMSA07.jpg,AMSA14.jpg,AMNE06.jpg,AMNE18.jpg,AMNE18.jpg,MN,1,num_4,32,num_6,0.91679202253,,,2017_Mar_14_1218,60.008391745,MAFE4ImagesEEG,001,200043,
AFNE01.JPG,AFNE01.JPG,AFNE01.JPG,AFNE01.JPG,AFNE01.JPG,AFNE01.JPG,,,,,,,,,2,0,20,2,,,,,,,,,,,,,,,AMNE13.jpg,AMSA15.jpg,AMSA14.jpg,AMNE20.jpg,AMNE13.jpg,MN,1,num_8,16,num_8,0.666768768919,,,2017_Mar_14_1218,60.008391745,MAFE4ImagesEEG,001,200043,
AFNE01.JPG,AFNE01.JPG,AFNE01.JPG,AFNE01.JPG,AFNE01.JPG,AFNE01.JPG,,,,,,,,,2,1,21,8,,,,,,,,,,,,,,,AMNE15.jpg,AMSA14.jpg,AMSA19.jpg,AMNE19.jpg,AMNE19.jpg,MN,1,num_4,16,num_4,1.15014994593,,,2017_Mar_14_1218,60.008391745,MAFE4ImagesEEG,001,200043,
AFNE01.JPG,AFNE01.JPG,AFNE01.JPG,AFNE01.JPG,AFNE01.JPG,AFNE01.JPG,,,,,,,,,2,2,22,9,,,,,,,,,,,,,,,AMSA14.jpg,AMNE04.jpg,AMSA10.jpg,AMNE09.jpg,AMNE09.jpg,MN,1,num_4,32,num_2,1.13346408831,,,2017_Mar_14_1218,60.008391745,MAFE4ImagesEEG,001,200043,
AFNE01.JPG,AFNE01.JPG,AFNE01.JPG,AFNE01.JPG,AFNE01.JPG,AFNE01.JPG,,,,,,,,,2,3,23,5,,,,,,,,,,,,,,,AMSA18.jpg,AMNE16.jpg,AMNE19.jpg,AMSA13.jpg,AMSA13.jpg,MS,2,num_4,32,num_6,1.00009109016,,,2017_Mar_14_1218,60.008391745,MAFE4ImagesEEG,001,200043,
AFNE01.JPG,AFNE01.JPG,AFNE01.JPG,AFNE01.JPG,AFNE01.JPG,AFNE01.JPG,,,,,,,,,2,4,24,4,,,,,,,,,,,,,,,AMNE04.jpg,AMNE11.jpg,AMSA17.jpg,AMSA13.jpg,AMSA13.jpg,MS,2,num_4,16,num_4,1.35006591206,,,2017_Mar_14_1218,60.008391745,MAFE4ImagesEEG,001,200043,
AFNE01.JPG,AFNE01.JPG,AFNE01.JPG,AFNE01.JPG,AFNE01.JPG,AFNE01.JPG,,,,,,,,,2,5,25,0,,,,,,,,,,,,,,,AMNE01.jpg,AMSA11.jpg,AMSA20.jpg,AMNE10.jpg,AMNE01.jpg,MN,1,num_8,16,num_8,0.966724827536,,,2017_Mar_14_1218,60.008391745,MAFE4ImagesEEG,001,200043,
AFNE01.JPG,AFNE01.JPG,AFNE01.JPG,AFNE01.JPG,AFNE01.JPG,AFNE01.JPG,,,,,,,,,2,6,26,3,,,,,,,,,,,,,,,AMNE09.jpg,AMNE06.jpg,AMSA05.jpg,AMSA09.jpg,AMNE09.jpg,MN,1,num_8,32,num_4,1.00011674932,,,2017_Mar_14_1218,60.008391745,MAFE4ImagesEEG,001,200043,
AFNE01.JPG,AFNE01.JPG,AFNE01.JPG,AFNE01.JPG,AFNE01.JPG,AFNE01.JPG,,,,,,,,,2,7,27,7,,,,,,,,,,,,,,,AMNE19.jpg,AMSA20.jpg,AMSA18.jpg,AMNE12.jpg,AMNE19.jpg,MN,1,num_8,16,num_8,0.750176567351,,,2017_Mar_14_1218,60.008391745,MAFE4ImagesEEG,001,200043,
AFNE01.JPG,AFNE01.JPG,AFNE01.JPG,AFNE01.JPG,AFNE01.JPG,AFNE01.JPG,,,,,,,,,2,8,28,6,,,,,,,,,,,,,,,AMSA17.jpg,AMNE13.jpg,AMNE08.jpg,AMSA07.jpg,AMSA07.jpg,MS,2,num_4,16,num_4,0.766813031049,,,2017_Mar_14_1218,60.008391745,MAFE4ImagesEEG,001,200043,
AFNE01.JPG,AFNE01.JPG,AFNE01.JPG,AFNE01.JPG,AFNE01.JPG,AFNE01.JPG,,,,,,,,,2,9,29,1,,,,,,,,,,,,,,,AMSA04.jpg,AMNE07.jpg,AMNE05.jpg,AMSA08.jpg,AMNE07.jpg,MN,1,num_6,32,num_2,1.58334589563,,,2017_Mar_14_1218,60.008391745,MAFE4ImagesEEG,001,200043,
AFNE01.JPG,AFNE01.JPG,AFNE01.JPG,AFNE01.JPG,AFNE01.JPG,AFNE01.JPG,,,,,,,,,3,0,30,4,,,,,,,,,,,,,,,AMNE03.jpg,AMSA16.jpg,AMSA05.jpg,AMNE05.jpg,AMSA05.jpg,MS,2,num_2,16,num_2,2.23333579232,,,2017_Mar_14_1218,60.008391745,MAFE4ImagesEEG,001,200043,
AFNE01.JPG,AFNE01.JPG,AFNE01.JPG,AFNE01.JPG,AFNE01.JPG,AFNE01.JPG,,,,,,,,,3,1,31,3,,,,,,,,,,,,,,,AMSA03.jpg,AMSA06.jpg,AMNE12.jpg,AMNE09.jpg,AMSA06.jpg,MS,2,num_6,16,num_6,2.19998300081,,,2017_Mar_14_1218,60.008391745,MAFE4ImagesEEG,001,200043,
AFNE01.JPG,AFNE01.JPG,AFNE01.JPG,AFNE01.JPG,AFNE01.JPG,AFNE01.JPG,,,,,,,,,3,2,32,0,,,,,,,,,,,,,,,AMSA06.jpg,AMNE17.jpg,AMSA09.jpg,AMNE05.jpg,AMNE17.jpg,MN,1,num_6,32,num_4,0.88347066351,,,2017_Mar_14_1218,60.008391745,MAFE4ImagesEEG,001,200043,
AFNE01.JPG,AFNE01.JPG,AFNE01.JPG,AFNE01.JPG,AFNE01.JPG,AFNE01.JPG,,,,,,,,,3,3,33,5,,,,,,,,,,,,,,,AMSA13.jpg,AMNE08.jpg,AMSA10.jpg,AMNE07.jpg,AMNE08.jpg,MN,1,num_6,32,num_2,1.16675016598,,,2017_Mar_14_1218,60.008391745,MAFE4ImagesEEG,001,200043,
AFNE01.JPG,AFNE01.JPG,AFNE01.JPG,AFNE01.JPG,AFNE01.JPG,AFNE01.JPG,,,,,,,,,3,4,34,7,,,,,,,,,,,,,,,AMSA20.jpg,AMNE08.jpg,AMNE19.jpg,AMSA04.jpg,AMNE08.jpg,MN,1,num_6,32,num_8,1.41672787454,,,2017_Mar_14_1218,60.008391745,MAFE4ImagesEEG,001,200043,
AFNE01.JPG,AFNE01.JPG,AFNE01.JPG,AFNE01.JPG,AFNE01.JPG,AFNE01.JPG,,,,,,,,,3,5,35,9,,,,,,,,,,,,,,,AMSA09.jpg,AMNE05.jpg,AMSA13.jpg,AMNE09.jpg,AMNE05.jpg,MN,1,num_6,32,num_4,0.783431853983,,,2017_Mar_14_1218,60.008391745,MAFE4ImagesEEG,001,200043,
AFNE01.JPG,AFNE01.JPG,AFNE01.JPG,AFNE01.JPG,AFNE01.JPG,AFNE01.JPG,,,,,,,,,3,6,36,1,,,,,,,,,,,,,,,AMSA08.jpg,AMSA17.jpg,AMNE06.jpg,AMNE14.jpg,AMSA08.jpg,MS,2,num_8,32,num_4,1.20007344946,,,2017_Mar_14_1218,60.008391745,MAFE4ImagesEEG,001,200043,
AFNE01.JPG,AFNE01.JPG,AFNE01.JPG,AFNE01.JPG,AFNE01.JPG,AFNE01.JPG,,,,,,,,,3,7,37,2,,,,,,,,,,,,,,,AMSA03.jpg,AMSA17.jpg,AMNE14.jpg,AMNE17.jpg,AMSA17.jpg,MS,2,num_6,32,num_8,0.833482049813,,,2017_Mar_14_1218,60.008391745,MAFE4ImagesEEG,001,200043,
AFNE01.JPG,AFNE01.JPG,AFNE01.JPG,AFNE01.JPG,AFNE01.JPG,AFNE01.JPG,,,,,,,,,3,8,38,8,,,,,,,,,,,,,,,AMSA14.jpg,AMNE07.jpg,AMNE18.jpg,AMSA06.jpg,AMSA06.jpg,MS,2,num_4,32,num_8,1.05018715182,,,2017_Mar_14_1218,60.008391745,MAFE4ImagesEEG,001,200043,
AFNE01.JPG,AFNE01.JPG,AFNE01.JPG,AFNE01.JPG,AFNE01.JPG,AFNE01.JPG,,,,,,,,,3,9,39,6,,,,,,,,,,,,,,,AMSA12.jpg,AMNE15.jpg,AMSA07.jpg,AMNE02.jpg,AMSA12.jpg,MS,2,num_8,32,num_2,2.09993488982,,,2017_Mar_14_1218,60.008391745,MAFE4ImagesEEG,001,200043,
AFNE01.JPG,AFNE01.JPG,AFNE01.JPG,AFNE01.JPG,AFNE01.JPG,AFNE01.JPG,,,,,,,,,4,0,40,9,,,,,,,,,,,,,,,AMSA14.jpg,AMNE20.jpg,AMSA12.jpg,AMNE03.jpg,AMSA12.jpg,MS,2,num_2,32,num_8,1.6500550069,,,2017_Mar_14_1218,60.008391745,MAFE4ImagesEEG,001,200043,
AFNE01.JPG,AFNE01.JPG,AFNE01.JPG,AFNE01.JPG,AFNE01.JPG,AFNE01.JPG,,,,,,,,,4,1,41,3,,,,,,,,,,,,,,,AMNE09.jpg,AMSA01.jpg,AMSA12.jpg,AMNE08.jpg,AMNE09.jpg,MN,1,num_8,32,num_6,1.61674551526,,,2017_Mar_14_1218,60.008391745,MAFE4ImagesEEG,001,200043,
AFNE01.JPG,AFNE01.JPG,AFNE01.JPG,AFNE01.JPG,AFNE01.JPG,AFNE01.JPG,,,,,,,,,4,2,42,1,,,,,,,,,,,,,,,AMSA02.jpg,AMSA07.jpg,AMNE03.jpg,AMNE19.jpg,AMSA02.jpg,MS,2,num_8,16,num_8,1.11677534407,,,2017_Mar_14_1218,60.008391745,MAFE4ImagesEEG,001,200043,
AFNE01.JPG,AFNE01.JPG,AFNE01.JPG,AFNE01.JPG,AFNE01.JPG,AFNE01.JPG,,,,,,,,,4,3,43,0,,,,,,,,,,,,,,,AMNE09.jpg,AMSA16.jpg,AMSA01.jpg,AMNE04.jpg,AMSA16.jpg,MS,2,num_6,32,num_2,2.00006863836,,,2017_Mar_14_1218,60.008391745,MAFE4ImagesEEG,001,200043,
AFNE01.JPG,AFNE01.JPG,AFNE01.JPG,AFNE01.JPG,AFNE01.JPG,AFNE01.JPG,,,,,,,,,4,4,44,5,,,,,,,,,,,,,,,AMSA16.jpg,AMNE12.jpg,AMNE11.jpg,AMSA20.jpg,AMSA16.jpg,MS,2,num_8,16,num_8,1.80007922277,,,2017_Mar_14_1218,60.008391745,MAFE4ImagesEEG,001,200043,
AFNE01.JPG,AFNE01.JPG,AFNE01.JPG,AFNE01.JPG,AFNE01.JPG,AFNE01.JPG,,,,,,,,,4,5,45,8,,,,,,,,,,,,,,,AMNE16.jpg,AMSA14.jpg,AMNE12.jpg,AMSA07.jpg,AMNE16.jpg,MN,1,num_8,16,num_8,1.36675305263,,,2017_Mar_14_1218,60.008391745,MAFE4ImagesEEG,001,200043,
AFNE01.JPG,AFNE01.JPG,AFNE01.JPG,AFNE01.JPG,AFNE01.JPG,AFNE01.JPG,,,,,,,,,4,6,46,6,,,,,,,,,,,,,,,AMNE06.jpg,AMNE03.jpg,AMSA09.jpg,AMSA19.jpg,AMSA19.jpg,MS,2,num_4,16,num_4,0.983298746869,,,2017_Mar_14_1218,60.008391745,MAFE4ImagesEEG,001,200043,
AFNE01.JPG,AFNE01.JPG,AFNE01.JPG,AFNE01.JPG,AFNE01.JPG,AFNE01.JPG,,,,,,,,,4,7,47,4,,,,,,,,,,,,,,,AMNE14.jpg,AMSA14.jpg,AMNE01.jpg,AMSA13.jpg,AMSA13.jpg,MS,2,num_4,32,num_2,1.08347515389,,,2017_Mar_14_1218,60.008391745,MAFE4ImagesEEG,001,200043,
AFNE01.JPG,AFNE01.JPG,AFNE01.JPG,AFNE01.JPG,AFNE01.JPG,AFNE01.JPG,,,,,,,,,4,8,48,7,,,,,,,,,,,,,,,AMNE01.jpg,AMNE17.jpg,AMSA06.jpg,AMSA05.jpg,AMNE17.jpg,MN,1,num_6,16,num_6,0.950137437088,,,2017_Mar_14_1218,60.008391745,MAFE4ImagesEEG,001,200043,
AFNE01.JPG,AFNE01.JPG,AFNE01.JPG,AFNE01.JPG,AFNE01.JPG,AFNE01.JPG,,,,,,,,,4,9,49,2,,,,,,,,,,,,,,,AMSA12.jpg,AMNE09.jpg,AMNE19.jpg,AMSA17.jpg,AMNE09.jpg,MN,1,num_6,32,num_4,0.700116107881,,,2017_Mar_14_1218,60.008391745,MAFE4ImagesEEG,001,200043,
AFNE01.JPG,AFNE01.JPG,AFNE01.JPG,AFNE01.JPG,AFNE01.JPG,AFNE01.JPG,,,,,,,,,5,0,50,6,,,,,,,,,,,,,,,AMSA02.jpg,AMSA07.jpg,AMNE20.jpg,AMNE16.jpg,AMNE20.jpg,MN,1,num_2,16,num_2,1.35007296834,,,2017_Mar_14_1218,60.008391745,MAFE4ImagesEEG,001,200043,
AFNE01.JPG,AFNE01.JPG,AFNE01.JPG,AFNE01.JPG,AFNE01.JPG,AFNE01.JPG,,,,,,,,,5,1,51,0,,,,,,,,,,,,,,,AMNE07.jpg,AMSA14.jpg,AMNE02.jpg,AMSA09.jpg,AMNE02.jpg,MN,1,num_2,16,num_2,1.01678432483,,,2017_Mar_14_1218,60.008391745,MAFE4ImagesEEG,001,200043,
AFNE01.JPG,AFNE01.JPG,AFNE01.JPG,AFNE01.JPG,AFNE01.JPG,AFNE01.JPG,,,,,,,,,5,2,52,9,,,,,,,,,,,,,,,AMNE10.jpg,AMSA13.jpg,AMNE06.jpg,AMSA20.jpg,AMSA20.jpg,MS,2,num_4,32,num_2,2.78329104913,,,2017_Mar_14_1218,60.008391745,MAFE4ImagesEEG,001,200043,
AFNE01.JPG,AFNE01.JPG,AFNE01.JPG,AFNE01.JPG,AFNE01.JPG,AFNE01.JPG,,,,,,,,,5,3,53,1,,,,,,,,,,,,,,,AMNE02.jpg,AMNE11.jpg,AMSA05.jpg,AMSA20.jpg,AMNE02.jpg,MN,1,num_8,16,num_8,1.03341661883,,,2017_Mar_14_1218,60.008391745,MAFE4ImagesEEG,001,200043,
AFNE01.JPG,AFNE01.JPG,AFNE01.JPG,AFNE01.JPG,AFNE01.JPG,AFNE01.JPG,,,,,,,,,5,4,54,5,,,,,,,,,,,,,,,AMSA15.jpg,AMSA08.jpg,AMNE01.jpg,AMNE04.jpg,AMNE04.jpg,MN,1,num_4,32,num_6,0.900107127149,,,2017_Mar_14_1218,60.008391745,MAFE4ImagesEEG,001,200043,
AFNE01.JPG,AFNE01.JPG,AFNE01.JPG,AFNE01.JPG,AFNE01.JPG,AFNE01.JPG,,,,,,,,,5,5,55,3,,,,,,,,,,,,,,,AMSA13.jpg,AMNE04.jpg,AMNE05.jpg,AMSA17.jpg,AMSA13.jpg,MS,2,num_8,16,num_8,1.06662924704,,,2017_Mar_14_1218,60.008391745,MAFE4ImagesEEG,001,200043,
AFNE01.JPG,AFNE01.JPG,AFNE01.JPG,AFNE01.JPG,AFNE01.JPG,AFNE01.JPG,,,,,,,,,5,6,56,2,,,,,,,,,,,,,,,AMNE02.jpg,AMSA04.jpg,AMSA07.jpg,AMNE13.jpg,AMNE13.jpg,MN,1,num_4,16,num_4,1.88338919554,,,2017_Mar_14_1218,60.008391745,MAFE4ImagesEEG,001,200043,
AFNE01.JPG,AFNE01.JPG,AFNE01.JPG,AFNE01.JPG,AFNE01.JPG,AFNE01.JPG,,,,,,,,,5,7,57,7,,,,,,,,,,,,,,,AMSA07.jpg,AMSA13.jpg,AMNE01.jpg,AMNE20.jpg,AMSA13.jpg,MS,2,num_6,32,num_8,0.466384522384,,,2017_Mar_14_1218,60.008391745,MAFE4ImagesEEG,001,200043,
AFNE01.JPG,AFNE01.JPG,AFNE01.JPG,AFNE01.JPG,AFNE01.JPG,AFNE01.JPG,,,,,,,,,5,8,58,4,,,,,,,,,,,,,,,AMNE13.jpg,AMNE19.jpg,AMSA15.jpg,AMSA07.jpg,AMNE13.jpg,MN,1,num_8,32,num_2,1.9667212994,,,2017_Mar_14_1218,60.008391745,MAFE4ImagesEEG,001,200043,
AFNE01.JPG,AFNE01.JPG,AFNE01.JPG,AFNE01.JPG,AFNE01.JPG,AFNE01.JPG,,,,,,,,,5,9,59,8,,,,,,,,,,,,,,,AMNE19.jpg,AMSA01.jpg,AMNE13.jpg,AMSA13.jpg,AMSA01.jpg,MS,2,num_6,32,num_8,0.666788334085,,,2017_Mar_14_1218,60.008391745,MAFE4ImagesEEG,001,200043,
,,,,,,,,,,,,,,,,,,,,,,,,,,,,,,,,,,,,,,,,,,,space,11.9161989743,2017_Mar_14_1218,60.008391745,MAFE4ImagesEEG,001,200043,
AFNE01.JPG,AFNE01.JPG,AFNE01.JPG,AFNE01.JPG,AFNE01.JPG,AFNE01.JPG,,,,,,,,,,,,,0,0,0,1,,,,,,,,,,,AFSA05.jpg,AFSA04.jpg,AFNE18.jpg,AFNE04.jpg,AFNE18.jpg,FN,3,num_2,16,num_2,0.850102797151,,,2017_Mar_14_1218,60.008391745,MAFE4ImagesEEG,001,200043,
AFNE01.JPG,AFNE01.JPG,AFNE01.JPG,AFNE01.JPG,AFNE01.JPG,AFNE01.JPG,,,,,,,,,,,,,0,1,1,4,,,,,,,,,,,AFNE07.jpg,AFSA04.jpg,AFNE13.jpg,AFSA11.jpg,AFSA11.jpg,FS,4,num_4,16,num_4,0.58349022863,,,2017_Mar_14_1218,60.008391745,MAFE4ImagesEEG,001,200043,
AFNE01.JPG,AFNE01.JPG,AFNE01.JPG,AFNE01.JPG,AFNE01.JPG,AFNE01.JPG,,,,,,,,,,,,,0,2,2,0,,,,,,,,,,,AFNE01.jpg,AFSA09.jpg,AFNE04.jpg,AFSA03.jpg,AFNE04.jpg,FN,3,num_2,32,num_6,0.983457192429,,,2017_Mar_14_1218,60.008391745,MAFE4ImagesEEG,001,200043,
AFNE01.JPG,AFNE01.JPG,AFNE01.JPG,AFNE01.JPG,AFNE01.JPG,AFNE01.JPG,,,,,,,,,,,,,0,3,3,6,,,,,,,,,,,AFSA02.jpg,AFSA08.jpg,AFNE04.jpg,AFNE15.jpg,AFNE15.jpg,FN,3,num_4,32,num_8,0.916751288576,,,2017_Mar_14_1218,60.008391745,MAFE4ImagesEEG,001,200043,
AFNE01.JPG,AFNE01.JPG,AFNE01.JPG,AFNE01.JPG,AFNE01.JPG,AFNE01.JPG,,,,,,,,,,,,,0,4,4,7,,,,,,,,,,,AFNE06.jpg,AFSA14.jpg,AFNE15.jpg,AFSA06.jpg,AFNE15.jpg,FN,3,num_2,32,num_8,0.850113060849,,,2017_Mar_14_1218,60.008391745,MAFE4ImagesEEG,001,200043,
AFNE01.JPG,AFNE01.JPG,AFNE01.JPG,AFNE01.JPG,AFNE01.JPG,AFNE01.JPG,,,,,,,,,,,,,0,5,5,3,,,,,,,,,,,AFSA13.jpg,AFNE09.jpg,AFSA10.jpg,AFNE14.jpg,AFNE14.jpg,FN,3,num_4,32,num_8,2.0832599373,,,2017_Mar_14_1218,60.008391745,MAFE4ImagesEEG,001,200043,
AFNE01.JPG,AFNE01.JPG,AFNE01.JPG,AFNE01.JPG,AFNE01.JPG,AFNE01.JPG,,,,,,,,,,,,,0,6,6,8,,,,,,,,,,,AFNE03.jpg,AFNE10.jpg,AFSA11.jpg,AFSA01.jpg,AFSA01.jpg,FS,4,num_4,32,num_2,1.73340314772,,,2017_Mar_14_1218,60.008391745,MAFE4ImagesEEG,001,200043,
AFNE01.JPG,AFNE01.JPG,AFNE01.JPG,AFNE01.JPG,AFNE01.JPG,AFNE01.JPG,,,,,,,,,,,,,0,7,7,2,,,,,,,,,,,AFSA11.jpg,AFNE05.jpg,AFNE20.jpg,AFSA16.jpg,AFNE05.jpg,FN,3,num_6,32,num_4,0.633524387493,,,2017_Mar_14_1218,60.008391745,MAFE4ImagesEEG,001,200043,
AFNE01.JPG,AFNE01.JPG,AFNE01.JPG,AFNE01.JPG,AFNE01.JPG,AFNE01.JPG,,,,,,,,,,,,,0,8,8,5,,,,,,,,,,,AFNE17.jpg,AFSA11.jpg,AFNE15.jpg,AFSA15.jpg,AFNE17.jpg,FN,3,num_8,16,num_8,1.18341966585,,,2017_Mar_14_1218,60.008391745,MAFE4ImagesEEG,001,200043,
AFNE01.JPG,AFNE01.JPG,AFNE01.JPG,AFNE01.JPG,AFNE01.JPG,AFNE01.JPG,,,,,,,,,,,,,0,9,9,9,,,,,,,,,,,AFSA11.jpg,AFSA10.jpg,AFNE15.jpg,AFNE05.jpg,AFSA11.jpg,FS,4,num_8,32,num_4,0.0502182635828,,,2017_Mar_14_1218,60.008391745,MAFE4ImagesEEG,001,200043,
AFNE01.JPG,AFNE01.JPG,AFNE01.JPG,AFNE01.JPG,AFNE01.JPG,AFNE01.JPG,,,,,,,,,,,,,1,0,10,1,,,,,,,,,,,AFSA19.jpg,AFSA12.jpg,AFNE18.jpg,AFNE19.jpg,AFSA19.jpg,FS,4,num_8,16,num_8,2.13337588485,,,2017_Mar_14_1218,60.008391745,MAFE4ImagesEEG,001,200043,
AFNE01.JPG,AFNE01.JPG,AFNE01.JPG,AFNE01.JPG,AFNE01.JPG,AFNE01.JPG,,,,,,,,,,,,,1,1,11,7,,,,,,,,,,,AFSA07.jpg,AFSA17.jpg,AFNE17.jpg,AFNE08.jpg,AFNE17.jpg,FN,3,num_2,16,num_2,1.68342960876,,,2017_Mar_14_1218,60.008391745,MAFE4ImagesEEG,001,200043,
AFNE01.JPG,AFNE01.JPG,AFNE01.JPG,AFNE01.JPG,AFNE01.JPG,AFNE01.JPG,,,,,,,,,,,,,1,2,12,8,,,,,,,,,,,AFSA12.jpg,AFNE18.jpg,AFNE03.jpg,AFSA11.jpg,AFNE03.jpg,FN,3,num_2,32,num_8,1.96666003799,,,2017_Mar_14_1218,60.008391745,MAFE4ImagesEEG,001,200043,
AFNE01.JPG,AFNE01.JPG,AFNE01.JPG,AFNE01.JPG,AFNE01.JPG,AFNE01.JPG,,,,,,,,,,,,,1,3,13,4,,,,,,,,,,,AFSA19.jpg,AFSA09.jpg,AFNE03.jpg,AFNE09.jpg,AFSA09.jpg,FS,4,num_6,16,num_6,2.68331157649,,,2017_Mar_14_1218,60.008391745,MAFE4ImagesEEG,001,200043,
AFNE01.JPG,AFNE01.JPG,AFNE01.JPG,AFNE01.JPG,AFNE01.JPG,AFNE01.JPG,,,,,,,,,,,,,1,4,14,9,,,,,,,,,,,AFNE10.jpg,AFSA07.jpg,AFSA17.jpg,AFNE12.jpg,AFNE12.jpg,FN,3,num_4,16,num_4,1.30009397678,,,2017_Mar_14_1218,60.008391745,MAFE4ImagesEEG,001,200043,
AFNE01.JPG,AFNE01.JPG,AFNE01.JPG,AFNE01.JPG,AFNE01.JPG,AFNE01.JPG,,,,,,,,,,,,,1,5,15,6,,,,,,,,,,,AFSA16.jpg,AFNE16.jpg,AFNE18.jpg,AFSA07.jpg,AFSA07.jpg,FS,4,num_4,16,num_4,0.733428165491,,,2017_Mar_14_1218,60.008391745,MAFE4ImagesEEG,001,200043,
AFNE01.JPG,AFNE01.JPG,AFNE01.JPG,AFNE01.JPG,AFNE01.JPG,AFNE01.JPG,,,,,,,,,,,,,1,6,16,5,,,,,,,,,,,AFNE05.jpg,AFSA09.jpg,AFNE13.jpg,AFSA12.jpg,AFSA09.jpg,FS,4,num_6,32,num_8,1.98334910307,,,2017_Mar_14_1218,60.008391745,MAFE4ImagesEEG,001,200043,
AFNE01.JPG,AFNE01.JPG,AFNE01.JPG,AFNE01.JPG,AFNE01.JPG,AFNE01.JPG,,,,,,,,,,,,,1,7,17,3,,,,,,,,,,,AFNE08.jpg,AFNE16.jpg,AFSA13.jpg,AFSA10.jpg,AFSA10.jpg,FS,4,num_4,32,num_8,1.45009157126,,,2017_Mar_14_1218,60.008391745,MAFE4ImagesEEG,001,200043,
AFNE01.JPG,AFNE01.JPG,AFNE01.JPG,AFNE01.JPG,AFNE01.JPG,AFNE01.JPG,,,,,,,,,,,,,1,8,18,0,,,,,,,,,,,AFNE09.jpg,AFSA20.jpg,AFNE07.jpg,AFSA03.jpg,AFSA20.jpg,FS,4,num_6,32,num_2,1.56700194691,,,2017_Mar_14_1218,60.008391745,MAFE4ImagesEEG,001,200043,
AFNE01.JPG,AFNE01.JPG,AFNE01.JPG,AFNE01.JPG,AFNE01.JPG,AFNE01.JPG,,,,,,,,,,,,,1,9,19,2,,,,,,,,,,,AFNE13.jpg,AFSA03.jpg,AFSA15.jpg,AFNE17.jpg,AFNE17.jpg,FN,3,num_4,32,num_8,1.6666927535,,,2017_Mar_14_1218,60.008391745,MAFE4ImagesEEG,001,200043,
AFNE01.JPG,AFNE01.JPG,AFNE01.JPG,AFNE01.JPG,AFNE01.JPG,AFNE01.JPG,,,,,,,,,,,,,2,0,20,9,,,,,,,,,,,AFSA16.jpg,AFNE13.jpg,AFSA20.jpg,AFNE10.jpg,AFSA20.jpg,FS,4,num_2,32,num_4,1.01673332712,,,2017_Mar_14_1218,60.008391745,MAFE4ImagesEEG,001,200043,
AFNE01.JPG,AFNE01.JPG,AFNE01.JPG,AFNE01.JPG,AFNE01.JPG,AFNE01.JPG,,,,,,,,,,,,,2,1,21,2,,,,,,,,,,,AFSA07.jpg,AFSA03.jpg,AFNE07.jpg,AFNE02.jpg,AFNE02.jpg,FN,3,num_4,16,num_4,3.23328383244,,,2017_Mar_14_1218,60.008391745,MAFE4ImagesEEG,001,200043,
AFNE01.JPG,AFNE01.JPG,AFNE01.JPG,AFNE01.JPG,AFNE01.JPG,AFNE01.JPG,,,,,,,,,,,,,2,2,22,3,,,,,,,,,,,AFSA20.jpg,AFNE20.jpg,AFSA17.jpg,AFNE01.jpg,AFSA17.jpg,FS,4,num_2,16,num_2,1.25007072318,,,2017_Mar_14_1218,60.008391745,MAFE4ImagesEEG,001,200043,
AFNE01.JPG,AFNE01.JPG,AFNE01.JPG,AFNE01.JPG,AFNE01.JPG,AFNE01.JPG,,,,,,,,,,,,,2,3,23,7,,,,,,,,,,,AFNE03.jpg,AFNE14.jpg,AFSA06.jpg,AFSA10.jpg,AFNE14.jpg,FN,3,num_6,32,num_8,1.06675561855,,,2017_Mar_14_1218,60.008391745,MAFE4ImagesEEG,001,200043,
AFNE01.JPG,AFNE01.JPG,AFNE01.JPG,AFNE01.JPG,AFNE01.JPG,AFNE01.JPG,,,,,,,,,,,,,2,4,24,1,,,,,,,,,,,AFSA11.jpg,AFSA18.jpg,AFNE13.jpg,AFNE07.jpg,AFSA18.jpg,FS,4,num_6,32,num_8,0.833438749833,,,2017_Mar_14_1218,60.008391745,MAFE4ImagesEEG,001,200043,
AFNE01.JPG,AFNE01.JPG,AFNE01.JPG,AFNE01.JPG,AFNE01.JPG,AFNE01.JPG,,,,,,,,,,,,,2,5,25,0,,,,,,,,,,,AFNE12.jpg,AFSA16.jpg,AFSA08.jpg,AFNE07.jpg,AFNE07.jpg,FN,3,num_4,16,num_4,1.56669628166,,,2017_Mar_14_1218,60.008391745,MAFE4ImagesEEG,001,200043,
AFNE01.JPG,AFNE01.JPG,AFNE01.JPG,AFNE01.JPG,AFNE01.JPG,AFNE01.JPG,,,,,,,,,,,,,2,6,26,5,,,,,,,,,,,AFNE06.jpg,AFNE14.jpg,AFSA01.jpg,AFSA19.jpg,AFSA19.jpg,FS,4,num_4,32,num_2,2.76665362326,,,2017_Mar_14_1218,60.008391745,MAFE4ImagesEEG,001,200043,
AFNE01.JPG,AFNE01.JPG,AFNE01.JPG,AFNE01.JPG,AFNE01.JPG,AFNE01.JPG,,,,,,,,,,,,,2,7,27,8,,,,,,,,,,,AFSA06.jpg,AFNE14.jpg,AFSA08.jpg,AFNE11.jpg,AFNE14.jpg,FN,3,num_6,32,num_8,0.833332905662,,,2017_Mar_14_1218,60.008391745,MAFE4ImagesEEG,001,200043,
AFNE01.JPG,AFNE01.JPG,AFNE01.JPG,AFNE01.JPG,AFNE01.JPG,AFNE01.JPG,,,,,,,,,,,,,2,8,28,6,,,,,,,,,,,AFSA02.jpg,AFNE01.jpg,AFNE15.jpg,AFSA16.jpg,AFSA02.jpg,FS,4,num_8,16,num_8,1.58333851869,,,2017_Mar_14_1218,60.008391745,MAFE4ImagesEEG,001,200043,
AFNE01.JPG,AFNE01.JPG,AFNE01.JPG,AFNE01.JPG,AFNE01.JPG,AFNE01.JPG,,,,,,,,,,,,,2,9,29,4,,,,,,,,,,,AFNE07.jpg,AFSA06.jpg,AFSA11.jpg,AFNE04.jpg,AFSA06.jpg,FS,4,num_6,32,num_2,2.51666404726,,,2017_Mar_14_1218,60.008391745,MAFE4ImagesEEG,001,200043,
AFNE01.JPG,AFNE01.JPG,AFNE01.JPG,AFNE01.JPG,AFNE01.JPG,AFNE01.JPG,,,,,,,,,,,,,3,0,30,3,,,,,,,,,,,AFNE04.jpg,AFSA14.jpg,AFNE03.jpg,AFSA20.jpg,AFNE04.jpg,FN,3,num_8,16,num_8,1.68340074219,,,2017_Mar_14_1218,60.008391745,MAFE4ImagesEEG,001,200043,
AFNE01.JPG,AFNE01.JPG,AFNE01.JPG,AFNE01.JPG,AFNE01.JPG,AFNE01.JPG,,,,,,,,,,,,,3,1,31,8,,,,,,,,,,,AFSA07.jpg,AFNE02.jpg,AFSA14.jpg,AFNE11.jpg,AFNE02.jpg,FN,3,num_6,32,num_4,1.24996744492,,,2017_Mar_14_1218,60.008391745,MAFE4ImagesEEG,001,200043,
AFNE01.JPG,AFNE01.JPG,AFNE01.JPG,AFNE01.JPG,AFNE01.JPG,AFNE01.JPG,,,,,,,,,,,,,3,2,32,5,,,,,,,,,,,AFSA09.jpg,AFSA03.jpg,AFNE16.jpg,AFNE14.jpg,AFSA09.jpg,FS,4,num_8,32,num_6,1.26668537647,,,2017_Mar_14_1218,60.008391745,MAFE4ImagesEEG,001,200043,
AFNE01.JPG,AFNE01.JPG,AFNE01.JPG,AFNE01.JPG,AFNE01.JPG,AFNE01.JPG,,,,,,,,,,,,,3,3,33,0,,,,,,,,,,,AFSA04.jpg,AFNE08.jpg,AFNE16.jpg,AFSA12.jpg,AFSA04.jpg,FS,4,num_8,32,num_6,2.6166768769,,,2017_Mar_14_1218,60.008391745,MAFE4ImagesEEG,001,200043,
AFNE01.JPG,AFNE01.JPG,AFNE01.JPG,AFNE01.JPG,AFNE01.JPG,AFNE01.JPG,,,,,,,,,,,,,3,4,34,6,,,,,,,,,,,AFSA18.jpg,AFNE14.jpg,AFSA15.jpg,AFNE16.jpg,AFNE14.jpg,FN,3,num_6,32,num_4,1.0167711745,,,2017_Mar_14_1218,60.008391745,MAFE4ImagesEEG,001,200043,
AFNE01.JPG,AFNE01.JPG,AFNE01.JPG,AFNE01.JPG,AFNE01.JPG,AFNE01.JPG,,,,,,,,,,,,,3,5,35,2,,,,,,,,,,,AFSA10.jpg,AFNE13.jpg,AFNE20.jpg,AFSA09.jpg,AFNE13.jpg,FN,3,num_6,16,num_6,1.73338294111,,,2017_Mar_14_1218,60.008391745,MAFE4ImagesEEG,001,200043,
AFNE01.JPG,AFNE01.JPG,AFNE01.JPG,AFNE01.JPG,AFNE01.JPG,AFNE01.JPG,,,,,,,,,,,,,3,6,36,1,,,,,,,,,,,AFSA05.jpg,AFNE16.jpg,AFSA10.jpg,AFNE01.jpg,AFSA10.jpg,FS,4,num_2,16,num_2,1.70013374859,,,2017_Mar_14_1218,60.008391745,MAFE4ImagesEEG,001,200043,
AFNE01.JPG,AFNE01.JPG,AFNE01.JPG,AFNE01.JPG,AFNE01.JPG,AFNE01.JPG,,,,,,,,,,,,,3,7,37,7,,,,,,,,,,,AFNE01.jpg,AFSA01.jpg,AFNE13.jpg,AFSA15.jpg,AFSA15.jpg,FS,4,num_4,16,num_4,0.80018442549,,,2017_Mar_14_1218,60.008391745,MAFE4ImagesEEG,001,200043,
AFNE01.JPG,AFNE01.JPG,AFNE01.JPG,AFNE01.JPG,AFNE01.JPG,AFNE01.JPG,,,,,,,,,,,,,3,8,38,9,,,,,,,,,,,AFSA01.jpg,AFSA10.jpg,AFNE16.jpg,AFNE09.jpg,AFNE16.jpg,FN,3,num_2,32,num_8,2.79984668625,,,2017_Mar_14_1218,60.008391745,MAFE4ImagesEEG,001,200043,
AFNE01.JPG,AFNE01.JPG,AFNE01.JPG,AFNE01.JPG,AFNE01.JPG,AFNE01.JPG,,,,,,,,,,,,,3,9,39,4,,,,,,,,,,,AFNE09.jpg,AFSA09.jpg,AFNE17.jpg,AFSA19.jpg,AFSA19.jpg,FS,4,num_4,16,num_4,1.06675818446,,,2017_Mar_14_1218,60.008391745,MAFE4ImagesEEG,001,200043,
AFNE01.JPG,AFNE01.JPG,AFNE01.JPG,AFNE01.JPG,AFNE01.JPG,AFNE01.JPG,,,,,,,,,,,,,4,0,40,6,,,,,,,,,,,AFNE19.jpg,AFSA14.jpg,AFNE11.jpg,AFSA16.jpg,AFSA16.jpg,FS,4,num_4,16,num_4,1.41674519452,,,2017_Mar_14_1218,60.008391745,MAFE4ImagesEEG,001,200043,
AFNE01.JPG,AFNE01.JPG,AFNE01.JPG,AFNE01.JPG,AFNE01.JPG,AFNE01.JPG,,,,,,,,,,,,,4,1,41,9,,,,,,,,,,,AFSA05.jpg,AFNE14.jpg,AFNE20.jpg,AFSA04.jpg,AFSA05.jpg,FS,4,num_8,16,num_8,0.76676748594,,,2017_Mar_14_1218,60.008391745,MAFE4ImagesEEG,001,200043,
AFNE01.JPG,AFNE01.JPG,AFNE01.JPG,AFNE01.JPG,AFNE01.JPG,AFNE01.JPG,,,,,,,,,,,,,4,2,42,4,,,,,,,,,,,AFNE19.jpg,AFSA10.jpg,AFNE11.jpg,AFSA09.jpg,AFNE19.jpg,FN,3,num_8,16,num_8,1.13346056023,,,2017_Mar_14_1218,60.008391745,MAFE4ImagesEEG,001,200043,
AFNE01.JPG,AFNE01.JPG,AFNE01.JPG,AFNE01.JPG,AFNE01.JPG,AFNE01.JPG,,,,,,,,,,,,,4,3,43,3,,,,,,,,,,,AFSA04.jpg,AFNE11.jpg,AFNE18.jpg,AFSA06.jpg,AFNE18.jpg,FN,3,num_2,16,num_2,1.3834013837,,,2017_Mar_14_1218,60.008391745,MAFE4ImagesEEG,001,200043,
AFNE01.JPG,AFNE01.JPG,AFNE01.JPG,AFNE01.JPG,AFNE01.JPG,AFNE01.JPG,,,,,,,,,,,,,4,4,44,7,,,,,,,,,,,AFNE01.jpg,AFSA10.jpg,AFSA13.jpg,AFNE07.jpg,AFSA10.jpg,FS,4,num_6,32,num_8,1.06676075037,,,2017_Mar_14_1218,60.008391745,MAFE4ImagesEEG,001,200043,
AFNE01.JPG,AFNE01.JPG,AFNE01.JPG,AFNE01.JPG,AFNE01.JPG,AFNE01.JPG,,,,,,,,,,,,,4,5,45,5,,,,,,,,,,,AFSA06.jpg,AFNE02.jpg,AFSA17.jpg,AFNE19.jpg,AFSA06.jpg,FS,4,num_8,32,num_4,2.4497336254,,,2017_Mar_14_1218,60.008391745,MAFE4ImagesEEG,001,200043,
AFNE01.JPG,AFNE01.JPG,AFNE01.JPG,AFNE01.JPG,AFNE01.JPG,AFNE01.JPG,,,,,,,,,,,,,4,6,46,8,,,,,,,,,,,AFSA10.jpg,AFNE03.jpg,AFSA01.jpg,AFNE12.jpg,AFNE12.jpg,FN,3,num_4,32,num_8,1.4667764667,,,2017_Mar_14_1218,60.008391745,MAFE4ImagesEEG,001,200043,
AFNE01.JPG,AFNE01.JPG,AFNE01.JPG,AFNE01.JPG,AFNE01.JPG,AFNE01.JPG,,,,,,,,,,,,,4,7,47,2,,,,,,,,,,,AFSA01.jpg,AFNE15.jpg,AFSA19.jpg,AFNE10.jpg,AFSA01.jpg,FS,4,num_8,32,num_2,1.86697211809,,,2017_Mar_14_1218,60.008391745,MAFE4ImagesEEG,001,200043,
AFNE01.JPG,AFNE01.JPG,AFNE01.JPG,AFNE01.JPG,AFNE01.JPG,AFNE01.JPG,,,,,,,,,,,,,4,8,48,1,,,,,,,,,,,AFSA13.jpg,AFSA07.jpg,AFNE17.jpg,AFNE20.jpg,AFNE17.jpg,FN,3,num_2,32,num_8,0.86674631713,,,2017_Mar_14_1218,60.008391745,MAFE4ImagesEEG,001,200043,
AFNE01.JPG,AFNE01.JPG,AFNE01.JPG,AFNE01.JPG,AFNE01.JPG,AFNE01.JPG,,,,,,,,,,,,,4,9,49,0,,,,,,,,,,,AFSA10.jpg,AFNE01.jpg,AFNE03.jpg,AFSA14.jpg,AFNE03.jpg,FN,3,num_2,32,num_8,0.966729638632,,,2017_Mar_14_1218,60.008391745,MAFE4ImagesEEG,001,200043,
AFNE01.JPG,AFNE01.JPG,AFNE01.JPG,AFNE01.JPG,AFNE01.JPG,AFNE01.JPG,,,,,,,,,,,,,5,0,50,5,,,,,,,,,,,AFNE18.jpg,AFSA07.jpg,AFNE14.jpg,AFSA13.jpg,AFNE14.jpg,FN,3,num_2,32,num_4,1.08343057102,,,2017_Mar_14_1218,60.008391745,MAFE4ImagesEEG,001,200043,
AFNE01.JPG,AFNE01.JPG,AFNE01.JPG,AFNE01.JPG,AFNE01.JPG,AFNE01.JPG,,,,,,,,,,,,,5,1,51,1,,,,,,,,,,,AFNE07.jpg,AFNE03.jpg,AFSA04.jpg,AFSA18.jpg,AFSA18.jpg,FS,4,num_4,32,num_2,1.40009718417,,,2017_Mar_14_1218,60.008391745,MAFE4ImagesEEG,001,200043,
AFNE01.JPG,AFNE01.JPG,AFNE01.JPG,AFNE01.JPG,AFNE01.JPG,AFNE01.JPG,,,,,,,,,,,,,5,2,52,7,,,,,,,,,,,AFSA18.jpg,AFNE13.jpg,AFNE11.jpg,AFSA01.jpg,AFSA18.jpg,FS,4,num_8,16,num_8,0.666791220719,,,2017_Mar_14_1218,60.008391745,MAFE4ImagesEEG,001,200043,
AFNE01.JPG,AFNE01.JPG,AFNE01.JPG,AFNE01.JPG,AFNE01.JPG,AFNE01.JPG,,,,,,,,,,,,,5,3,53,9,,,,,,,,,,,AFNE06.jpg,AFSA08.jpg,AFSA09.jpg,AFNE02.jpg,AFSA08.jpg,FS,4,num_6,16,num_6,1.38338598813,,,2017_Mar_14_1218,60.008391745,MAFE4ImagesEEG,001,200043,
AFNE01.JPG,AFNE01.JPG,AFNE01.JPG,AFNE01.JPG,AFNE01.JPG,AFNE01.JPG,,,,,,,,,,,,,5,4,54,2,,,,,,,,,,,AFNE15.jpg,AFNE13.jpg,AFSA15.jpg,AFSA06.jpg,AFSA15.jpg,FS,4,num_2,16,num_2,1.1500925335,,,2017_Mar_14_1218,60.008391745,MAFE4ImagesEEG,001,200043,
AFNE01.JPG,AFNE01.JPG,AFNE01.JPG,AFNE01.JPG,AFNE01.JPG,AFNE01.JPG,,,,,,,,,,,,,5,5,55,8,,,,,,,,,,,AFSA16.jpg,AFNE14.jpg,AFNE15.jpg,AFSA18.jpg,AFSA18.jpg,FS,4,num_4,32,num_8,1.03343554249,,,2017_Mar_14_1218,60.008391745,MAFE4ImagesEEG,001,200043,
AFNE01.JPG,AFNE01.JPG,AFNE01.JPG,AFNE01.JPG,AFNE01.JPG,AFNE01.JPG,,,,,,,,,,,,,5,6,56,4,,,,,,,,,,,AFSA13.jpg,AFNE09.jpg,AFNE03.jpg,AFSA19.jpg,AFSA13.jpg,FS,4,num_8,32,num_4,0.700125088624,,,2017_Mar_14_1218,60.008391745,MAFE4ImagesEEG,001,200043,
AFNE01.JPG,AFNE01.JPG,AFNE01.JPG,AFNE01.JPG,AFNE01.JPG,AFNE01.JPG,,,,,,,,,,,,,5,7,57,6,,,,,,,,,,,AFSA19.jpg,AFNE13.jpg,AFNE10.jpg,AFSA16.jpg,AFSA16.jpg,FS,4,num_4,32,num_6,2.1666709432,,,2017_Mar_14_1218,60.008391745,MAFE4ImagesEEG,001,200043,
AFNE01.JPG,AFNE01.JPG,AFNE01.JPG,AFNE01.JPG,AFNE01.JPG,AFNE01.JPG,,,,,,,,,,,,,5,8,58,0,,,,,,,,,,,AFNE13.jpg,AFSA20.jpg,AFNE03.jpg,AFSA01.jpg,AFSA20.jpg,FS,4,num_6,32,num_8,0.899997754779,,,2017_Mar_14_1218,60.008391745,MAFE4ImagesEEG,001,200043,
AFNE01.JPG,AFNE01.JPG,AFNE01.JPG,AFNE01.JPG,AFNE01.JPG,AFNE01.JPG,,,,,,,,,,,,,5,9,59,3,,,,,,,,,,,AFNE18.jpg,AFSA12.jpg,AFSA02.jpg,AFNE01.jpg,AFNE01.jpg,FN,3,num_4,32,num_2,1.16687749978,,,2017_Mar_14_1218,60.008391745,MAFE4ImagesEEG,001,200043,
,,,,,,,,,,,,,,,,,,,,,,,,,,,,,,,,,,,,,,,,,,,space,7.0163455524,2017_Mar_14_1218,60.008391745,MAFE4ImagesEEG,001,200043,
AFNE01.JPG,AFNE01.JPG,AFNE01.JPG,AFNE01.JPG,AFNE01.JPG,AFNE01.JPG,,,,,,,,,,,,,,,,,0,0,0,9,,,,,,,AMSA05.jpg,AMSA12.jpg,AMNE19.jpg,AMNE08.jpg,AMNE08.jpg,MN,1,num_4,32,num_8,0.916829549125,,,2017_Mar_14_1218,60.008391745,MAFE4ImagesEEG,001,200043,
AFNE01.JPG,AFNE01.JPG,AFNE01.JPG,AFNE01.JPG,AFNE01.JPG,AFNE01.JPG,,,,,,,,,,,,,,,,,0,1,1,4,,,,,,,AMNE16.jpg,AMSA19.jpg,AMSA10.jpg,AMNE12.jpg,AMSA10.jpg,MS,2,num_2,16,num_2,1.45007681724,,,2017_Mar_14_1218,60.008391745,MAFE4ImagesEEG,001,200043,
AFNE01.JPG,AFNE01.JPG,AFNE01.JPG,AFNE01.JPG,AFNE01.JPG,AFNE01.JPG,,,,,,,,,,,,,,,,,0,2,2,6,,,,,,,AMSA06.jpg,AMNE19.jpg,AMNE18.jpg,AMSA15.jpg,AMNE19.jpg,MN,1,num_6,16,num_6,1.01671247906,,,2017_Mar_14_1218,60.008391745,MAFE4ImagesEEG,001,200043,
AFNE01.JPG,AFNE01.JPG,AFNE01.JPG,AFNE01.JPG,AFNE01.JPG,AFNE01.JPG,,,,,,,,,,,,,,,,,0,3,3,1,,,,,,,AMNE05.jpg,AMSA11.jpg,AMNE01.jpg,AMSA09.jpg,AMSA09.jpg,MS,2,num_4,32,num_2,1.16676139191,,,2017_Mar_14_1218,60.008391745,MAFE4ImagesEEG,001,200043,
AFNE01.JPG,AFNE01.JPG,AFNE01.JPG,AFNE01.JPG,AFNE01.JPG,AFNE01.JPG,,,,,,,,,,,,,,,,,0,4,4,5,,,,,,,AMSA16.jpg,AMSA13.jpg,AMNE19.jpg,AMNE08.jpg,AMNE19.jpg,MN,1,num_2,32,num_8,1.08345430577,,,2017_Mar_14_1218,60.008391745,MAFE4ImagesEEG,001,200043,
AFNE01.JPG,AFNE01.JPG,AFNE01.JPG,AFNE01.JPG,AFNE01.JPG,AFNE01.JPG,,,,,,,,,,,,,,,,,0,5,5,7,,,,,,,AMNE13.jpg,AMSA08.jpg,AMSA18.jpg,AMNE10.jpg,AMSA08.jpg,MS,2,num_6,32,num_4,0.900060299144,,,2017_Mar_14_1218,60.008391745,MAFE4ImagesEEG,001,200043,
AFNE01.JPG,AFNE01.JPG,AFNE01.JPG,AFNE01.JPG,AFNE01.JPG,AFNE01.JPG,,,,,,,,,,,,,,,,,0,6,6,8,,,,,,,AMNE08.jpg,AMSA18.jpg,AMSA20.jpg,AMNE11.jpg,AMSA20.jpg,MS,2,num_2,32,num_4,0.783502096019,,,2017_Mar_14_1218,60.008391745,MAFE4ImagesEEG,001,200043,
AFNE01.JPG,AFNE01.JPG,AFNE01.JPG,AFNE01.JPG,AFNE01.JPG,AFNE01.JPG,,,,,,,,,,,,,,,,,0,7,7,0,,,,,,,AMSA05.jpg,AMSA17.jpg,AMNE06.jpg,AMNE04.jpg,AMSA05.jpg,MS,2,num_8,32,num_4,1.56675850519,,,2017_Mar_14_1218,60.008391745,MAFE4ImagesEEG,001,200043,
AFNE01.JPG,AFNE01.JPG,AFNE01.JPG,AFNE01.JPG,AFNE01.JPG,AFNE01.JPG,,,,,,,,,,,,,,,,,0,8,8,3,,,,,,,AMNE09.jpg,AMSA18.jpg,AMNE16.jpg,AMSA01.jpg,AMSA18.jpg,MS,2,num_6,16,num_6,0.850130701554,,,2017_Mar_14_1218,60.008391745,MAFE4ImagesEEG,001,200043,
AFNE01.JPG,AFNE01.JPG,AFNE01.JPG,AFNE01.JPG,AFNE01.JPG,AFNE01.JPG,,,,,,,,,,,,,,,,,0,9,9,2,,,,,,,AMSA17.jpg,AMNE18.jpg,AMSA15.jpg,AMNE05.jpg,AMNE05.jpg,MN,1,num_4,32,num_8,1.09994194604,,,2017_Mar_14_1218,60.008391745,MAFE4ImagesEEG,001,200043,
AFNE01.JPG,AFNE01.JPG,AFNE01.JPG,AFNE01.JPG,AFNE01.JPG,AFNE01.JPG,,,,,,,,,,,,,,,,,1,0,10,6,,,,,,,AMNE17.jpg,AMSA09.jpg,AMSA01.jpg,AMNE16.jpg,AMNE17.jpg,MN,1,num_8,16,num_8,0.700143370777,,,2017_Mar_14_1218,60.008391745,MAFE4ImagesEEG,001,200043,
AFNE01.JPG,AFNE01.JPG,AFNE01.JPG,AFNE01.JPG,AFNE01.JPG,AFNE01.JPG,,,,,,,,,,,,,,,,,1,1,11,7,,,,,,,AMNE03.jpg,AMSA15.jpg,AMSA05.jpg,AMNE02.jpg,AMSA15.jpg,MS,2,num_6,16,num_6,1.13342944841,,,2017_Mar_14_1218,60.008391745,MAFE4ImagesEEG,001,200043,
AFNE01.JPG,AFNE01.JPG,AFNE01.JPG,AFNE01.JPG,AFNE01.JPG,AFNE01.JPG,,,,,,,,,,,,,,,,,1,2,12,1,,,,,,,AMNE17.jpg,AMSA19.jpg,AMSA18.jpg,AMNE12.jpg,AMNE12.jpg,MN,1,num_4,32,num_8,0.716798116569,,,2017_Mar_14_1218,60.008391745,MAFE4ImagesEEG,001,200043,
AFNE01.JPG,AFNE01.JPG,AFNE01.JPG,AFNE01.JPG,AFNE01.JPG,AFNE01.JPG,,,,,,,,,,,,,,,,,1,3,13,8,,,,,,,AMSA09.jpg,AMNE09.jpg,AMNE04.jpg,AMSA08.jpg,AMNE09.jpg,MN,1,num_6,32,num_8,2.08337508299,,,2017_Mar_14_1218,60.008391745,MAFE4ImagesEEG,001,200043,
AFNE01.JPG,AFNE01.JPG,AFNE01.JPG,AFNE01.JPG,AFNE01.JPG,AFNE01.JPG,,,,,,,,,,,,,,,,,1,4,14,4,,,,,,,AMSA15.jpg,AMNE17.jpg,AMSA13.jpg,AMNE08.jpg,AMSA13.jpg,MS,2,num_2,32,num_6,0.983452060609,,,2017_Mar_14_1218,60.008391745,MAFE4ImagesEEG,001,200043,
AFNE01.JPG,AFNE01.JPG,AFNE01.JPG,AFNE01.JPG,AFNE01.JPG,AFNE01.JPG,,,,,,,,,,,,,,,,,1,5,15,0,,,,,,,AMSA19.jpg,AMNE09.jpg,AMSA14.jpg,AMNE19.jpg,AMNE09.jpg,MN,1,num_6,32,num_8,1.15019837773,,,2017_Mar_14_1218,60.008391745,MAFE4ImagesEEG,001,200043,
AFNE01.JPG,AFNE01.JPG,AFNE01.JPG,AFNE01.JPG,AFNE01.JPG,AFNE01.JPG,,,,,,,,,,,,,,,,,1,6,16,3,,,,,,,AMSA10.jpg,AMSA16.jpg,AMNE08.jpg,AMNE13.jpg,AMNE08.jpg,MN,1,num_2,32,num_4,0.850127173413,,,2017_Mar_14_1218,60.008391745,MAFE4ImagesEEG,001,200043,
AFNE01.JPG,AFNE01.JPG,AFNE01.JPG,AFNE01.JPG,AFNE01.JPG,AFNE01.JPG,,,,,,,,,,,,,,,,,1,7,17,9,,,,,,,AMSA14.jpg,AMNE15.jpg,AMSA08.jpg,AMNE01.jpg,AMNE01.jpg,MN,1,num_4,32,num_8,1.43339833664,,,2017_Mar_14_1218,60.008391745,MAFE4ImagesEEG,001,200043,
AFNE01.JPG,AFNE01.JPG,AFNE01.JPG,AFNE01.JPG,AFNE01.JPG,AFNE01.JPG,,,,,,,,,,,,,,,,,1,8,18,5,,,,,,,AMNE08.jpg,AMSA13.jpg,AMNE20.jpg,AMSA18.jpg,AMNE20.jpg,MN,1,num_2,16,num_2,1.4167965129,,,2017_Mar_14_1218,60.008391745,MAFE4ImagesEEG,001,200043,
AFNE01.JPG,AFNE01.JPG,AFNE01.JPG,AFNE01.JPG,AFNE01.JPG,AFNE01.JPG,,,,,,,,,,,,,,,,,1,9,19,2,,,,,,,AMNE02.jpg,AMSA01.jpg,AMSA19.jpg,AMNE15.jpg,AMNE02.jpg,MN,1,num_8,16,num_8,0.450156681472,,,2017_Mar_14_1218,60.008391745,MAFE4ImagesEEG,001,200043,
AFNE01.JPG,AFNE01.JPG,AFNE01.JPG,AFNE01.JPG,AFNE01.JPG,AFNE01.JPG,,,,,,,,,,,,,,,,,2,0,20,1,,,,,,,AMSA12.jpg,AMSA14.jpg,AMNE02.jpg,AMNE06.jpg,AMSA14.jpg,MS,2,num_6,32,num_4,0.766738940089,,,2017_Mar_14_1218,60.008391745,MAFE4ImagesEEG,001,200043,
AFNE01.JPG,AFNE01.JPG,AFNE01.JPG,AFNE01.JPG,AFNE01.JPG,AFNE01.JPG,,,,,,,,,,,,,,,,,2,1,21,8,,,,,,,AMSA16.jpg,AMSA11.jpg,AMNE03.jpg,AMNE13.jpg,AMNE13.jpg,MN,1,num_4,32,num_6,0.883518133021,,,2017_Mar_14_1218,60.008391745,MAFE4ImagesEEG,001,200043,
AFNE01.JPG,AFNE01.JPG,AFNE01.JPG,AFNE01.JPG,AFNE01.JPG,AFNE01.JPG,,,,,,,,,,,,,,,,,2,2,22,2,,,,,,,AMSA15.jpg,AMNE17.jpg,AMNE10.jpg,AMSA02.jpg,AMSA15.jpg,MS,2,num_8,16,num_8,0.750137757801,,,2017_Mar_14_1218,60.008391745,MAFE4ImagesEEG,001,200043,
AFNE01.JPG,AFNE01.JPG,AFNE01.JPG,AFNE01.JPG,AFNE01.JPG,AFNE01.JPG,,,,,,,,,,,,,,,,,2,3,23,6,,,,,,,AMNE19.jpg,AMSA16.jpg,AMSA08.jpg,AMNE04.jpg,AMSA08.jpg,MS,2,num_2,16,num_2,1.45007970388,,,2017_Mar_14_1218,60.008391745,MAFE4ImagesEEG,001,200043,
AFNE01.JPG,AFNE01.JPG,AFNE01.JPG,AFNE01.JPG,AFNE01.JPG,AFNE01.JPG,,,,,,,,,,,,,,,,,2,4,24,9,,,,,,,AMSA09.jpg,AMNE05.jpg,AMNE01.jpg,AMSA10.jpg,AMSA10.jpg,MS,2,num_4,32,num_8,0.866774221533,,,2017_Mar_14_1218,60.008391745,MAFE4ImagesEEG,001,200043,
AFNE01.JPG,AFNE01.JPG,AFNE01.JPG,AFNE01.JPG,AFNE01.JPG,AFNE01.JPG,,,,,,,,,,,,,,,,,2,5,25,4,,,,,,,AMNE05.jpg,AMNE03.jpg,AMSA02.jpg,AMSA10.jpg,AMSA10.jpg,MS,2,num_4,16,num_4,0.766788975568,,,2017_Mar_14_1218,60.008391745,MAFE4ImagesEEG,001,200043,
AFNE01.JPG,AFNE01.JPG,AFNE01.JPG,AFNE01.JPG,AFNE01.JPG,AFNE01.JPG,,,,,,,,,,,,,,,,,2,6,26,7,,,,,,,AMNE09.jpg,AMSA05.jpg,AMNE13.jpg,AMSA17.jpg,AMNE09.jpg,MN,1,num_8,32,num_6,0.550099589804,,,2017_Mar_14_1218,60.008391745,MAFE4ImagesEEG,001,200043,
AFNE01.JPG,AFNE01.JPG,AFNE01.JPG,AFNE01.JPG,AFNE01.JPG,AFNE01.JPG,,,,,,,,,,,,,,,,,2,7,27,3,,,,,,,AMNE14.jpg,AMSA14.jpg,AMNE05.jpg,AMSA19.jpg,AMSA14.jpg,MS,2,num_6,32,num_8,1.19997530297,,,2017_Mar_14_1218,60.008391745,MAFE4ImagesEEG,001,200043,
AFNE01.JPG,AFNE01.JPG,AFNE01.JPG,AFNE01.JPG,AFNE01.JPG,AFNE01.JPG,,,,,,,,,,,,,,,,,2,8,28,0,,,,,,,AMNE15.jpg,AMNE20.jpg,AMSA04.jpg,AMSA17.jpg,AMSA04.jpg,MS,2,num_2,16,num_2,1.48324422108,,,2017_Mar_14_1218,60.008391745,MAFE4ImagesEEG,001,200043,
AFNE01.JPG,AFNE01.JPG,AFNE01.JPG,AFNE01.JPG,AFNE01.JPG,AFNE01.JPG,,,,,,,,,,,,,,,,,2,9,29,5,,,,,,,AMNE13.jpg,AMNE18.jpg,AMSA10.jpg,AMSA13.jpg,AMSA10.jpg,MS,2,num_2,32,num_4,0.666807257745,,,2017_Mar_14_1218,60.008391745,MAFE4ImagesEEG,001,200043,
AFNE01.JPG,AFNE01.JPG,AFNE01.JPG,AFNE01.JPG,AFNE01.JPG,AFNE01.JPG,,,,,,,,,,,,,,,,,3,0,30,8,,,,,,,AMNE13.jpg,AMSA13.jpg,AMNE10.jpg,AMSA19.jpg,AMSA19.jpg,MS,2,num_4,16,num_4,0.633467616513,,,2017_Mar_14_1218,60.008391745,MAFE4ImagesEEG,001,200043,
AFNE01.JPG,AFNE01.JPG,AFNE01.JPG,AFNE01.JPG,AFNE01.JPG,AFNE01.JPG,,,,,,,,,,,,,,,,,3,1,31,0,,,,,,,AMNE19.jpg,AMSA12.jpg,AMSA15.jpg,AMNE13.jpg,AMSA12.jpg,MS,2,num_6,16,num_6,2.05009060906,,,2017_Mar_14_1218,60.008391745,MAFE4ImagesEEG,001,200043,
AFNE01.JPG,AFNE01.JPG,AFNE01.JPG,AFNE01.JPG,AFNE01.JPG,AFNE01.JPG,,,,,,,,,,,,,,,,,3,2,32,9,,,,,,,AMSA20.jpg,AMSA06.jpg,AMNE18.jpg,AMNE14.jpg,AMSA06.jpg,MS,2,num_6,32,num_2,3.75006078026,,,2017_Mar_14_1218,60.008391745,MAFE4ImagesEEG,001,200043,
AFNE01.JPG,AFNE01.JPG,AFNE01.JPG,AFNE01.JPG,AFNE01.JPG,AFNE01.JPG,,,,,,,,,,,,,,,,,3,3,33,3,,,,,,,AMSA02.jpg,AMSA09.jpg,AMNE13.jpg,AMNE11.jpg,AMSA02.jpg,MS,2,num_8,16,num_8,0.700120598252,,,2017_Mar_14_1218,60.008391745,MAFE4ImagesEEG,001,200043,
AFNE01.JPG,AFNE01.JPG,AFNE01.JPG,AFNE01.JPG,AFNE01.JPG,AFNE01.JPG,,,,,,,,,,,,,,,,,3,4,34,1,,,,,,,AMNE09.jpg,AMSA01.jpg,AMSA20.jpg,AMNE18.jpg,AMNE18.jpg,MN,1,num_4,16,num_4,0.866781277757,,,2017_Mar_14_1218,60.008391745,MAFE4ImagesEEG,001,200043,
AFNE01.JPG,AFNE01.JPG,AFNE01.JPG,AFNE01.JPG,AFNE01.JPG,AFNE01.JPG,,,,,,,,,,,,,,,,,3,5,35,7,,,,,,,AMNE17.jpg,AMNE14.jpg,AMSA02.jpg,AMSA14.jpg,AMSA02.jpg,MS,2,num_2,32,num_8,2.46668698016,,,2017_Mar_14_1218,60.008391745,MAFE4ImagesEEG,001,200043,
AFNE01.JPG,AFNE01.JPG,AFNE01.JPG,AFNE01.JPG,AFNE01.JPG,AFNE01.JPG,,,,,,,,,,,,,,,,,3,6,36,6,,,,,,,AMNE01.jpg,AMNE02.jpg,AMSA14.jpg,AMSA19.jpg,AMSA19.jpg,MS,2,num_4,32,num_2,1.20013823896,,,2017_Mar_14_1218,60.008391745,MAFE4ImagesEEG,001,200043,
AFNE01.JPG,AFNE01.JPG,AFNE01.JPG,AFNE01.JPG,AFNE01.JPG,AFNE01.JPG,,,,,,,,,,,,,,,,,3,7,37,2,,,,,,,AMSA07.jpg,AMSA03.jpg,AMNE19.jpg,AMNE04.jpg,AMNE19.jpg,MN,1,num_2,32,num_4,0.633498086769,,,2017_Mar_14_1218,60.008391745,MAFE4ImagesEEG,001,200043,
AFNE01.JPG,AFNE01.JPG,AFNE01.JPG,AFNE01.JPG,AFNE01.JPG,AFNE01.JPG,,,,,,,,,,,,,,,,,3,8,38,5,,,,,,,AMNE11.jpg,AMSA13.jpg,AMSA07.jpg,AMNE03.jpg,AMNE11.jpg,MN,1,num_8,32,num_6,0.616734930838,,,2017_Mar_14_1218,60.008391745,MAFE4ImagesEEG,001,200043,
AFNE01.JPG,AFNE01.JPG,AFNE01.JPG,AFNE01.JPG,AFNE01.JPG,AFNE01.JPG,,,,,,,,,,,,,,,,,3,9,39,4,,,,,,,AMSA04.jpg,AMNE01.jpg,AMNE05.jpg,AMSA06.jpg,AMNE05.jpg,MN,1,num_2,32,num_4,0.833771357255,,,2017_Mar_14_1218,60.008391745,MAFE4ImagesEEG,001,200043,
AFNE01.JPG,AFNE01.JPG,AFNE01.JPG,AFNE01.JPG,AFNE01.JPG,AFNE01.JPG,,,,,,,,,,,,,,,,,4,0,40,0,,,,,,,AMSA16.jpg,AMNE04.jpg,AMSA20.jpg,AMNE12.jpg,AMSA20.jpg,MS,2,num_2,16,num_2,2.1166605191,,,2017_Mar_14_1218,60.008391745,MAFE4ImagesEEG,001,200043,
AFNE01.JPG,AFNE01.JPG,AFNE01.JPG,AFNE01.JPG,AFNE01.JPG,AFNE01.JPG,,,,,,,,,,,,,,,,,4,1,41,1,,,,,,,AMNE02.jpg,AMSA13.jpg,AMSA14.jpg,AMNE08.jpg,AMNE08.jpg,MN,1,num_4,32,num_8,0.750108249718,,,2017_Mar_14_1218,60.008391745,MAFE4ImagesEEG,001,200043,
AFNE01.JPG,AFNE01.JPG,AFNE01.JPG,AFNE01.JPG,AFNE01.JPG,AFNE01.JPG,,,,,,,,,,,,,,,,,4,2,42,7,,,,,,,AMNE09.jpg,AMSA20.jpg,AMSA14.jpg,AMNE19.jpg,AMNE09.jpg,MN,1,num_8,32,num_4,0.850156039989,,,2017_Mar_14_1218,60.008391745,MAFE4ImagesEEG,001,200043,
AFNE01.JPG,AFNE01.JPG,AFNE01.JPG,AFNE01.JPG,AFNE01.JPG,AFNE01.JPG,,,,,,,,,,,,,,,,,4,3,43,8,,,,,,,AMNE11.jpg,AMSA01.jpg,AMNE17.jpg,AMSA17.jpg,AMSA01.jpg,MS,2,num_6,32,num_8,0.883471625741,,,2017_Mar_14_1218,60.008391745,MAFE4ImagesEEG,001,200043,
AFNE01.JPG,AFNE01.JPG,AFNE01.JPG,AFNE01.JPG,AFNE01.JPG,AFNE01.JPG,,,,,,,,,,,,,,,,,4,4,44,4,,,,,,,AMSA15.jpg,AMNE14.jpg,AMSA04.jpg,AMNE04.jpg,AMSA04.jpg,MS,2,num_2,32,num_6,0.716802286275,,,2017_Mar_14_1218,60.008391745,MAFE4ImagesEEG,001,200043,
AFNE01.JPG,AFNE01.JPG,AFNE01.JPG,AFNE01.JPG,AFNE01.JPG,AFNE01.JPG,,,,,,,,,,,,,,,,,4,5,45,9,,,,,,,AMSA20.jpg,AMNE14.jpg,AMSA01.jpg,AMNE11.jpg,AMSA01.jpg,MS,2,num_2,16,num_2,1.11673749675,,,2017_Mar_14_1218,60.008391745,MAFE4ImagesEEG,001,200043,
AFNE01.JPG,AFNE01.JPG,AFNE01.JPG,AFNE01.JPG,AFNE01.JPG,AFNE01.JPG,,,,,,,,,,,,,,,,,4,6,46,2,,,,,,,AMSA02.jpg,AMNE11.jpg,AMNE09.jpg,AMSA13.jpg,AMSA13.jpg,MS,2,num_4,32,num_8,0.616781758901,,,2017_Mar_14_1218,60.008391745,MAFE4ImagesEEG,001,200043,
AFNE01.JPG,AFNE01.JPG,AFNE01.JPG,AFNE01.JPG,AFNE01.JPG,AFNE01.JPG,,,,,,,,,,,,,,,,,4,7,47,3,,,,,,,AMSA09.jpg,AMSA03.jpg,AMNE20.jpg,AMNE07.jpg,AMNE20.jpg,MN,1,num_2,32,num_8,1.58345366427,,,2017_Mar_14_1218,60.008391745,MAFE4ImagesEEG,001,200043,
AFNE01.JPG,AFNE01.JPG,AFNE01.JPG,AFNE01.JPG,AFNE01.JPG,AFNE01.JPG,,,,,,,,,,,,,,,,,4,8,48,5,,,,,,,AMNE20.jpg,AMSA13.jpg,AMNE06.jpg,AMSA02.jpg,AMNE06.jpg,MN,1,num_2,32,num_8,0.866647208401,,,2017_Mar_14_1218,60.008391745,MAFE4ImagesEEG,001,200043,
AFNE01.JPG,AFNE01.JPG,AFNE01.JPG,AFNE01.JPG,AFNE01.JPG,AFNE01.JPG,,,,,,,,,,,,,,,,,4,9,49,6,,,,,,,AMSA15.jpg,AMNE01.jpg,AMSA05.jpg,AMNE16.jpg,AMSA05.jpg,MS,2,num_2,32,num_6,0.866587230063,,,2017_Mar_14_1218,60.008391745,MAFE4ImagesEEG,001,200043,
AFNE01.JPG,AFNE01.JPG,AFNE01.JPG,AFNE01.JPG,AFNE01.JPG,AFNE01.JPG,,,,,,,,,,,,,,,,,5,0,50,9,,,,,,,AMNE10.jpg,AMSA16.jpg,AMSA08.jpg,AMNE14.jpg,AMSA16.jpg,MS,2,num_6,32,num_8,1.25005693134,,,2017_Mar_14_1218,60.008391745,MAFE4ImagesEEG,001,200043,
AFNE01.JPG,AFNE01.JPG,AFNE01.JPG,AFNE01.JPG,AFNE01.JPG,AFNE01.JPG,,,,,,,,,,,,,,,,,5,1,51,0,,,,,,,AMSA09.jpg,AMSA13.jpg,AMNE11.jpg,AMNE16.jpg,AMSA13.jpg,MS,2,num_6,32,num_8,1.11674230784,,,2017_Mar_14_1218,60.008391745,MAFE4ImagesEEG,001,200043,
AFNE01.JPG,AFNE01.JPG,AFNE01.JPG,AFNE01.JPG,AFNE01.JPG,AFNE01.JPG,,,,,,,,,,,,,,,,,5,2,52,7,,,,,,,AMNE17.jpg,AMNE02.jpg,AMSA12.jpg,AMSA08.jpg,AMNE02.jpg,MN,1,num_6,16,num_6,0.567084056325,,,2017_Mar_14_1218,60.008391745,MAFE4ImagesEEG,001,200043,
AFNE01.JPG,AFNE01.JPG,AFNE01.JPG,AFNE01.JPG,AFNE01.JPG,AFNE01.JPG,,,,,,,,,,,,,,,,,5,3,53,8,,,,,,,AMNE11.jpg,AMNE02.jpg,AMSA20.jpg,AMSA14.jpg,AMNE11.jpg,MN,1,num_8,32,num_6,2.74990233465,,,2017_Mar_14_1218,60.008391745,MAFE4ImagesEEG,001,200043,
AFNE01.JPG,AFNE01.JPG,AFNE01.JPG,AFNE01.JPG,AFNE01.JPG,AFNE01.JPG,,,,,,,,,,,,,,,,,5,4,54,3,,,,,,,AMSA11.jpg,AMSA15.jpg,AMNE09.jpg,AMNE15.jpg,AMNE15.jpg,MN,1,num_4,16,num_4,0.750154115551,,,2017_Mar_14_1218,60.008391745,MAFE4ImagesEEG,001,200043,
AFNE01.JPG,AFNE01.JPG,AFNE01.JPG,AFNE01.JPG,AFNE01.JPG,AFNE01.JPG,,,,,,,,,,,,,,,,,5,5,55,4,,,,,,,AMSA08.jpg,AMNE12.jpg,AMNE16.jpg,AMSA16.jpg,AMSA16.jpg,MS,2,num_4,32,num_8,0.850099589792,,,2017_Mar_14_1218,60.008391745,MAFE4ImagesEEG,001,200043,
AFNE01.JPG,AFNE01.JPG,AFNE01.JPG,AFNE01.JPG,AFNE01.JPG,AFNE01.JPG,,,,,,,,,,,,,,,,,5,6,56,2,,,,,,,AMNE18.jpg,AMNE20.jpg,AMSA02.jpg,AMSA19.jpg,AMNE18.jpg,MN,1,num_8,16,num_8,1.30008146795,,,2017_Mar_14_1218,60.008391745,MAFE4ImagesEEG,001,200043,
AFNE01.JPG,AFNE01.JPG,AFNE01.JPG,AFNE01.JPG,AFNE01.JPG,AFNE01.JPG,,,,,,,,,,,,,,,,,5,7,57,6,,,,,,,AMNE14.jpg,AMNE09.jpg,AMSA18.jpg,AMSA02.jpg,AMSA18.jpg,MS,2,num_2,16,num_2,1.53337588481,,,2017_Mar_14_1218,60.008391745,MAFE4ImagesEEG,001,200043,
AFNE01.JPG,AFNE01.JPG,AFNE01.JPG,AFNE01.JPG,AFNE01.JPG,AFNE01.JPG,,,,,,,,,,,,,,,,,5,8,58,5,,,,,,,AMNE13.jpg,AMSA14.jpg,AMSA11.jpg,AMNE11.jpg,AMNE11.jpg,MN,1,num_4,32,num_8,0.58346713538,,,2017_Mar_14_1218,60.008391745,MAFE4ImagesEEG,001,200043,
AFNE01.JPG,AFNE01.JPG,AFNE01.JPG,AFNE01.JPG,AFNE01.JPG,AFNE01.JPG,,,,,,,,,,,,,,,,,5,9,59,1,,,,,,,AMSA16.jpg,AMNE14.jpg,AMNE07.jpg,AMSA06.jpg,AMSA16.jpg,MS,2,num_8,32,num_4,1.33343169361,,,2017_Mar_14_1218,60.008391745,MAFE4ImagesEEG,001,200043,
,,,,,,,,,,,,,,,,,,,,,,,,,,,,,,,,,,,,,,,,,,,space,8.13315521571,2017_Mar_14_1218,60.008391745,MAFE4ImagesEEG,001,200043,
AFNE01.JPG,AFNE01.JPG,AFNE01.JPG,AFNE01.JPG,AFNE01.JPG,AFNE01.JPG,,,,,,,,,,,,,,,,,,,,,0,0,0,4,,,AFSA14.jpg,AFSA13.jpg,AFNE17.jpg,AFNE12.jpg,AFNE17.jpg,FN,3,num_2,32,num_4,0.900174803275,,,2017_Mar_14_1218,60.008391745,MAFE4ImagesEEG,001,200043,
AFNE01.JPG,AFNE01.JPG,AFNE01.JPG,AFNE01.JPG,AFNE01.JPG,AFNE01.JPG,,,,,,,,,,,,,,,,,,,,,0,1,1,5,,,AFSA14.jpg,AFSA10.jpg,AFNE13.jpg,AFNE17.jpg,AFSA14.jpg,FS,4,num_8,16,num_8,0.616767646279,,,2017_Mar_14_1218,60.008391745,MAFE4ImagesEEG,001,200043,
AFNE01.JPG,AFNE01.JPG,AFNE01.JPG,AFNE01.JPG,AFNE01.JPG,AFNE01.JPG,,,,,,,,,,,,,,,,,,,,,0,2,2,2,,,AFSA06.jpg,AFNE20.jpg,AFNE04.jpg,AFSA12.jpg,AFSA12.jpg,FS,4,num_4,32,num_2,1.18343377841,,,2017_Mar_14_1218,60.008391745,MAFE4ImagesEEG,001,200043,
AFNE01.JPG,AFNE01.JPG,AFNE01.JPG,AFNE01.JPG,AFNE01.JPG,AFNE01.JPG,,,,,,,,,,,,,,,,,,,,,0,3,3,3,,,AFSA08.jpg,AFNE08.jpg,AFNE01.jpg,AFSA05.jpg,AFSA05.jpg,FS,4,num_4,32,num_8,0.683470984281,,,2017_Mar_14_1218,60.008391745,MAFE4ImagesEEG,001,200043,
AFNE01.JPG,AFNE01.JPG,AFNE01.JPG,AFNE01.JPG,AFNE01.JPG,AFNE01.JPG,,,,,,,,,,,,,,,,,,,,,0,4,4,0,,,AFNE09.jpg,AFNE14.jpg,AFSA12.jpg,AFSA17.jpg,AFSA17.jpg,FS,4,num_4,32,num_6,2.15000817884,,,2017_Mar_14_1218,60.008391745,MAFE4ImagesEEG,001,200043,
AFNE01.JPG,AFNE01.JPG,AFNE01.JPG,AFNE01.JPG,AFNE01.JPG,AFNE01.JPG,,,,,,,,,,,,,,,,,,,,,0,5,5,9,,,AFNE18.jpg,AFSA01.jpg,AFSA05.jpg,AFNE20.jpg,AFSA01.jpg,FS,4,num_6,32,num_4,1.0167439116,,,2017_Mar_14_1218,60.008391745,MAFE4ImagesEEG,001,200043,
AFNE01.JPG,AFNE01.JPG,AFNE01.JPG,AFNE01.JPG,AFNE01.JPG,AFNE01.JPG,,,,,,,,,,,,,,,,,,,,,0,6,6,6,,,AFNE19.jpg,AFNE03.jpg,AFSA07.jpg,AFSA19.jpg,AFSA07.jpg,FS,4,num_2,16,num_2,1.30005548801,,,2017_Mar_14_1218,60.008391745,MAFE4ImagesEEG,001,200043,
AFNE01.JPG,AFNE01.JPG,AFNE01.JPG,AFNE01.JPG,AFNE01.JPG,AFNE01.JPG,,,,,,,,,,,,,,,,,,,,,0,7,7,7,,,AFNE14.jpg,AFNE19.jpg,AFSA20.jpg,AFSA07.jpg,AFNE14.jpg,FN,3,num_8,32,num_2,1.29979600938,,,2017_Mar_14_1218,60.008391745,MAFE4ImagesEEG,001,200043,
AFNE01.JPG,AFNE01.JPG,AFNE01.JPG,AFNE01.JPG,AFNE01.JPG,AFNE01.JPG,,,,,,,,,,,,,,,,,,,,,0,8,8,1,,,AFSA20.jpg,AFSA16.jpg,AFNE09.jpg,AFNE10.jpg,AFSA16.jpg,FS,4,num_6,16,num_6,1.28340587404,,,2017_Mar_14_1218,60.008391745,MAFE4ImagesEEG,001,200043,
AFNE01.JPG,AFNE01.JPG,AFNE01.JPG,AFNE01.JPG,AFNE01.JPG,AFNE01.JPG,,,,,,,,,,,,,,,,,,,,,0,9,9,8,,,AFSA10.jpg,AFNE17.jpg,AFSA05.jpg,AFNE03.jpg,AFNE03.jpg,FN,3,num_4,32,num_6,1.0334454854,,,2017_Mar_14_1218,60.008391745,MAFE4ImagesEEG,001,200043,
AFNE01.JPG,AFNE01.JPG,AFNE01.JPG,AFNE01.JPG,AFNE01.JPG,AFNE01.JPG,,,,,,,,,,,,,,,,,,,,,1,0,10,9,,,AFSA03.jpg,AFNE10.jpg,AFSA11.jpg,AFNE09.jpg,AFSA11.jpg,FS,4,num_2,16,num_2,1.23368026712,,,2017_Mar_14_1218,60.008391745,MAFE4ImagesEEG,001,200043,
AFNE01.JPG,AFNE01.JPG,AFNE01.JPG,AFNE01.JPG,AFNE01.JPG,AFNE01.JPG,,,,,,,,,,,,,,,,,,,,,1,1,11,7,,,AFSA15.jpg,AFNE03.jpg,AFSA09.jpg,AFNE08.jpg,AFSA15.jpg,FS,4,num_8,32,num_4,1.56672739342,,,2017_Mar_14_1218,60.008391745,MAFE4ImagesEEG,001,200043,
AFNE01.JPG,AFNE01.JPG,AFNE01.JPG,AFNE01.JPG,AFNE01.JPG,AFNE01.JPG,,,,,,,,,,,,,,,,,,,,,1,2,12,8,,,AFSA19.jpg,AFNE12.jpg,AFSA10.jpg,AFNE16.jpg,AFNE16.jpg,FN,3,num_4,32,num_8,1.16674471344,,,2017_Mar_14_1218,60.008391745,MAFE4ImagesEEG,001,200043,
AFNE01.JPG,AFNE01.JPG,AFNE01.JPG,AFNE01.JPG,AFNE01.JPG,AFNE01.JPG,,,,,,,,,,,,,,,,,,,,,1,3,13,3,,,AFSA19.jpg,AFNE16.jpg,AFSA08.jpg,AFNE18.jpg,AFSA19.jpg,FS,4,num_8,16,num_8,1.26673380827,,,2017_Mar_14_1218,60.008391745,MAFE4ImagesEEG,001,200043,
AFNE01.JPG,AFNE01.JPG,AFNE01.JPG,AFNE01.JPG,AFNE01.JPG,AFNE01.JPG,,,,,,,,,,,,,,,,,,,,,1,4,14,1,,,AFSA12.jpg,AFNE20.jpg,AFSA14.jpg,AFNE12.jpg,AFNE12.jpg,FN,3,num_4,16,num_4,0.83347659721,,,2017_Mar_14_1218,60.008391745,MAFE4ImagesEEG,001,200043,
AFNE01.JPG,AFNE01.JPG,AFNE01.JPG,AFNE01.JPG,AFNE01.JPG,AFNE01.JPG,,,,,,,,,,,,,,,,,,,,,1,5,15,2,,,AFNE11.jpg,AFNE18.jpg,AFSA19.jpg,AFSA05.jpg,AFNE18.jpg,FN,3,num_6,16,num_6,1.05017015256,,,2017_Mar_14_1218,60.008391745,MAFE4ImagesEEG,001,200043,
AFNE01.JPG,AFNE01.JPG,AFNE01.JPG,AFNE01.JPG,AFNE01.JPG,AFNE01.JPG,,,,,,,,,,,,,,,,,,,,,1,6,16,5,,,AFNE09.jpg,AFSA15.jpg,AFNE18.jpg,AFSA14.jpg,AFSA15.jpg,FS,4,num_6,32,num_8,0.750121400109,,,2017_Mar_14_1218,60.008391745,MAFE4ImagesEEG,001,200043,
AFNE01.JPG,AFNE01.JPG,AFNE01.JPG,AFNE01.JPG,AFNE01.JPG,AFNE01.JPG,,,,,,,,,,,,,,,,,,,,,1,7,17,4,,,AFNE16.jpg,AFNE02.jpg,AFSA05.jpg,AFSA08.jpg,AFSA08.jpg,FS,4,num_4,16,num_4,0.916768929281,,,2017_Mar_14_1218,60.008391745,MAFE4ImagesEEG,001,200043,
AFNE01.JPG,AFNE01.JPG,AFNE01.JPG,AFNE01.JPG,AFNE01.JPG,AFNE01.JPG,,,,,,,,,,,,,,,,,,,,,1,8,18,6,,,AFNE12.jpg,AFSA03.jpg,AFNE17.jpg,AFSA19.jpg,AFNE12.jpg,FN,3,num_8,16,num_8,0.783145433175,,,2017_Mar_14_1218,60.008391745,MAFE4ImagesEEG,001,200043,
AFNE01.JPG,AFNE01.JPG,AFNE01.JPG,AFNE01.JPG,AFNE01.JPG,AFNE01.JPG,,,,,,,,,,,,,,,,,,,,,1,9,19,0,,,AFSA18.jpg,AFNE13.jpg,AFSA04.jpg,AFNE03.jpg,AFSA18.jpg,FS,4,num_8,16,num_8,1.56672418601,,,2017_Mar_14_1218,60.008391745,MAFE4ImagesEEG,001,200043,
AFNE01.JPG,AFNE01.JPG,AFNE01.JPG,AFNE01.JPG,AFNE01.JPG,AFNE01.JPG,,,,,,,,,,,,,,,,,,,,,2,0,20,9,,,AFNE08.jpg,AFNE13.jpg,AFSA06.jpg,AFSA13.jpg,AFSA13.jpg,FS,4,num_4,16,num_4,2.16697500471,,,2017_Mar_14_1218,60.008391745,MAFE4ImagesEEG,001,200043,
AFNE01.JPG,AFNE01.JPG,AFNE01.JPG,AFNE01.JPG,AFNE01.JPG,AFNE01.JPG,,,,,,,,,,,,,,,,,,,,,2,1,21,0,,,AFSA20.jpg,AFNE03.jpg,AFSA06.jpg,AFNE18.jpg,AFSA06.jpg,FS,4,num_2,32,num_6,1.81675353379,,,2017_Mar_14_1218,60.008391745,MAFE4ImagesEEG,001,200043,
AFNE01.JPG,AFNE01.JPG,AFNE01.JPG,AFNE01.JPG,AFNE01.JPG,AFNE01.JPG,,,,,,,,,,,,,,,,,,,,,2,2,22,7,,,AFSA17.jpg,AFNE20.jpg,AFSA16.jpg,AFNE08.jpg,AFSA17.jpg,FS,4,num_8,16,num_8,1.21678721148,,,2017_Mar_14_1218,60.008391745,MAFE4ImagesEEG,001,200043,
AFNE01.JPG,AFNE01.JPG,AFNE01.JPG,AFNE01.JPG,AFNE01.JPG,AFNE01.JPG,,,,,,,,,,,,,,,,,,,,,2,3,23,4,,,AFSA11.jpg,AFSA15.jpg,AFNE11.jpg,AFNE06.jpg,AFSA11.jpg,FS,4,num_8,16,num_8,0.933428165445,,,2017_Mar_14_1218,60.008391745,MAFE4ImagesEEG,001,200043,
AFNE01.JPG,AFNE01.JPG,AFNE01.JPG,AFNE01.JPG,AFNE01.JPG,AFNE01.JPG,,,,,,,,,,,,,,,,,,,,,2,4,24,3,,,AFSA12.jpg,AFNE17.jpg,AFSA01.jpg,AFNE13.jpg,AFNE13.jpg,FN,3,num_4,32,num_2,2.24998219893,,,2017_Mar_14_1218,60.008391745,MAFE4ImagesEEG,001,200043,
AFNE01.JPG,AFNE01.JPG,AFNE01.JPG,AFNE01.JPG,AFNE01.JPG,AFNE01.JPG,,,,,,,,,,,,,,,,,,,,,2,5,25,8,,,AFNE13.jpg,AFNE06.jpg,AFSA10.jpg,AFSA12.jpg,AFNE06.jpg,FN,3,num_6,32,num_8,1.13344644767,,,2017_Mar_14_1218,60.008391745,MAFE4ImagesEEG,001,200043,
AFNE01.JPG,AFNE01.JPG,AFNE01.JPG,AFNE01.JPG,AFNE01.JPG,AFNE01.JPG,,,,,,,,,,,,,,,,,,,,,2,6,26,1,,,AFSA10.jpg,AFNE05.jpg,AFNE18.jpg,AFSA14.jpg,AFSA10.jpg,FS,4,num_8,16,num_8,0.883441476151,,,2017_Mar_14_1218,60.008391745,MAFE4ImagesEEG,001,200043,
AFNE01.JPG,AFNE01.JPG,AFNE01.JPG,AFNE01.JPG,AFNE01.JPG,AFNE01.JPG,,,,,,,,,,,,,,,,,,,,,2,7,27,2,,,AFSA10.jpg,AFSA02.jpg,AFNE03.jpg,AFNE04.jpg,AFNE03.jpg,FN,3,num_2,32,num_6,1.40012059826,,,2017_Mar_14_1218,60.008391745,MAFE4ImagesEEG,001,200043,
AFNE01.JPG,AFNE01.JPG,AFNE01.JPG,AFNE01.JPG,AFNE01.JPG,AFNE01.JPG,,,,,,,,,,,,,,,,,,,,,2,8,28,6,,,AFNE02.jpg,AFSA09.jpg,AFSA13.jpg,AFNE16.jpg,AFNE02.jpg,FN,3,num_8,32,num_4,1.88310405769,,,2017_Mar_14_1218,60.008391745,MAFE4ImagesEEG,001,200043,
AFNE01.JPG,AFNE01.JPG,AFNE01.JPG,AFNE01.JPG,AFNE01.JPG,AFNE01.JPG,,,,,,,,,,,,,,,,,,,,,2,9,29,5,,,AFSA14.jpg,AFNE07.jpg,AFNE01.jpg,AFSA05.jpg,AFSA14.jpg,FS,4,num_8,32,num_2,1.76673829858,,,2017_Mar_14_1218,60.008391745,MAFE4ImagesEEG,001,200043,
AFNE01.JPG,AFNE01.JPG,AFNE01.JPG,AFNE01.JPG,AFNE01.JPG,AFNE01.JPG,,,,,,,,,,,,,,,,,,,,,3,0,30,3,,,AFSA01.jpg,AFNE03.jpg,AFSA12.jpg,AFNE09.jpg,AFNE03.jpg,FN,3,num_6,32,num_8,1.58338695037,,,2017_Mar_14_1218,60.008391745,MAFE4ImagesEEG,001,200043,
AFNE01.JPG,AFNE01.JPG,AFNE01.JPG,AFNE01.JPG,AFNE01.JPG,AFNE01.JPG,,,,,,,,,,,,,,,,,,,,,3,1,31,7,,,AFNE01.jpg,AFSA16.jpg,AFNE14.jpg,AFSA13.jpg,AFSA13.jpg,FS,4,num_4,16,num_4,0.966638869199,,,2017_Mar_14_1218,60.008391745,MAFE4ImagesEEG,001,200043,
AFNE01.JPG,AFNE01.JPG,AFNE01.JPG,AFNE01.JPG,AFNE01.JPG,AFNE01.JPG,,,,,,,,,,,,,,,,,,,,,3,2,32,2,,,AFNE15.jpg,AFNE12.jpg,AFSA17.jpg,AFSA11.jpg,AFSA11.jpg,FS,4,num_4,16,num_4,0.700129258214,,,2017_Mar_14_1218,60.008391745,MAFE4ImagesEEG,001,200043,
AFNE01.JPG,AFNE01.JPG,AFNE01.JPG,AFNE01.JPG,AFNE01.JPG,AFNE01.JPG,,,,,,,,,,,,,,,,,,,,,3,3,33,1,,,AFNE19.jpg,AFNE05.jpg,AFSA07.jpg,AFSA04.jpg,AFSA04.jpg,FS,4,num_4,32,num_8,3.4666109648,,,2017_Mar_14_1218,60.008391745,MAFE4ImagesEEG,001,200043,
AFNE01.JPG,AFNE01.JPG,AFNE01.JPG,AFNE01.JPG,AFNE01.JPG,AFNE01.JPG,,,,,,,,,,,,,,,,,,,,,3,4,34,4,,,AFSA04.jpg,AFSA02.jpg,AFNE14.jpg,AFNE07.jpg,AFNE14.jpg,FN,3,num_2,16,num_2,1.23340988328,,,2017_Mar_14_1218,60.008391745,MAFE4ImagesEEG,001,200043,
AFNE01.JPG,AFNE01.JPG,AFNE01.JPG,AFNE01.JPG,AFNE01.JPG,AFNE01.JPG,,,,,,,,,,,,,,,,,,,,,3,5,35,8,,,AFNE06.jpg,AFSA18.jpg,AFNE13.jpg,AFSA03.jpg,AFSA03.jpg,FS,4,num_4,32,num_8,3.14994242718,,,2017_Mar_14_1218,60.008391745,MAFE4ImagesEEG,001,200043,
AFNE01.JPG,AFNE01.JPG,AFNE01.JPG,AFNE01.JPG,AFNE01.JPG,AFNE01.JPG,,,,,,,,,,,,,,,,,,,,,3,6,36,6,,,AFSA04.jpg,AFNE09.jpg,AFSA17.jpg,AFNE04.jpg,AFNE09.jpg,FN,3,num_6,32,num_4,1.70013054117,,,2017_Mar_14_1218,60.008391745,MAFE4ImagesEEG,001,200043,
AFNE01.JPG,AFNE01.JPG,AFNE01.JPG,AFNE01.JPG,AFNE01.JPG,AFNE01.JPG,,,,,,,,,,,,,,,,,,,,,3,7,37,5,,,AFSA03.jpg,AFSA09.jpg,AFNE14.jpg,AFNE02.jpg,AFSA09.jpg,FS,4,num_6,32,num_2,1.21674102487,,,2017_Mar_14_1218,60.008391745,MAFE4ImagesEEG,001,200043,
AFNE01.JPG,AFNE01.JPG,AFNE01.JPG,AFNE01.JPG,AFNE01.JPG,AFNE01.JPG,,,,,,,,,,,,,,,,,,,,,3,8,38,9,,,AFSA14.jpg,AFNE13.jpg,AFSA02.jpg,AFNE20.jpg,AFNE20.jpg,FN,3,num_4,32,num_8,0.766771976312,,,2017_Mar_14_1218,60.008391745,MAFE4ImagesEEG,001,200043,
AFNE01.JPG,AFNE01.JPG,AFNE01.JPG,AFNE01.JPG,AFNE01.JPG,AFNE01.JPG,,,,,,,,,,,,,,,,,,,,,3,9,39,0,,,AFSA16.jpg,AFSA18.jpg,AFNE09.jpg,AFNE16.jpg,AFNE16.jpg,FN,3,num_4,32,num_6,0.700108730816,,,2017_Mar_14_1218,60.008391745,MAFE4ImagesEEG,001,200043,
AFNE01.JPG,AFNE01.JPG,AFNE01.JPG,AFNE01.JPG,AFNE01.JPG,AFNE01.JPG,,,,,,,,,,,,,,,,,,,,,4,0,40,8,,,AFNE08.jpg,AFSA08.jpg,AFSA19.jpg,AFNE10.jpg,AFSA19.jpg,FS,4,num_2,16,num_2,1.33370528481,,,2017_Mar_14_1218,60.008391745,MAFE4ImagesEEG,001,200043,
