IPosition2,IPosition3,IPosition1,IPosition6,IPosition4,IPosition5,TrialsM1.thisRepN,TrialsM1.thisTrialN,TrialsM1.thisN,TrialsM1.thisIndex,TrialsF1.thisRepN,TrialsF1.thisTrialN,TrialsF1.thisN,TrialsF1.thisIndex,TrialsM2.thisRepN,TrialsM2.thisTrialN,TrialsM2.thisN,TrialsM2.thisIndex,TrialsF2.thisRepN,TrialsF2.thisTrialN,TrialsF2.thisN,TrialsF2.thisIndex,TrialsM3.thisRepN,TrialsM3.thisTrialN,TrialsM3.thisN,TrialsM3.thisIndex,TrialsF3.thisRepN,TrialsF3.thisTrialN,TrialsF3.thisN,TrialsF3.thisIndex,InstrKey_resp.keys,InstrKey_resp.rt,Image0 _Position,Image1 _Position,Image2 _Position,Image3 _Position,Center_image,condition,code,correct_answer,accuracy,Key_Resp.keys,BreakKey_resp.keys,BreakKey_resp.rt,Key_Resp.rt,date,frameRate,expName,session,participant,
,,,,,,,,,,,,,,,,,,,,,,,,,,,,,,space,8.96621327987,,,,,,,,,,,,,,2017_Apr_03_1448,60.0053311685,MAFE4ImagesEEG,001,200032,
AMSA25.JPG,AMNE24.JPG,AMSA24.JPG,AMNE26.JPG,AMSA21.JPG,AMNE25.JPG,0,0,0,3,,,,,,,,,,,,,,,,,,,,,,,AMNE02.jpg,AMNE11.jpg,AMSA13.jpg,AMSA14.jpg,AMSA13.jpg,MS,2,num_2,48,None,,,,2017_Apr_03_1448,60.0053311685,MAFE4ImagesEEG,001,200032,
AFSA21.JPG,AFNE23.JPG,AFNE21.JPG,AFSA25.JPG,AFNE25.JPG,AFSA23.JPG,0,1,1,4,,,,,,,,,,,,,,,,,,,,,,,AMSA09.jpg,AMNE03.jpg,AMSA02.jpg,AMNE13.jpg,AMNE13.jpg,MN,1,num_4,48,None,,,,2017_Apr_03_1448,60.0053311685,MAFE4ImagesEEG,001,200032,
AFNE23.JPG,AFNE24.JPG,AFNE22.JPG,AFSA24.JPG,AFSA22.JPG,AFSA23.JPG,0,2,2,8,,,,,,,,,,,,,,,,,,,,,,,AMNE02.jpg,AMSA03.jpg,AMNE14.jpg,AMSA16.jpg,AMNE02.jpg,MN,1,num_8,48,None,,,,2017_Apr_03_1448,60.0053311685,MAFE4ImagesEEG,001,200032,
AMNE22.JPG,AMSA24.JPG,AMSA22.JPG,AMNE25.JPG,AMNE24.JPG,AMSA25.JPG,0,3,3,7,,,,,,,,,,,,,,,,,,,,,,,AMNE11.jpg,AMSA10.jpg,AMSA01.jpg,AMNE06.jpg,AMSA01.jpg,MS,2,num_2,48,None,,,,2017_Apr_03_1448,60.0053311685,MAFE4ImagesEEG,001,200032,
AMSA21.JPG,AMNE23.JPG,AMNE21.JPG,AMSA25.JPG,AMNE25.JPG,AMSA23.JPG,0,4,4,5,,,,,,,,,,,,,,,,,,,,,,,AMSA11.jpg,AMNE03.jpg,AMSA05.jpg,AMNE13.jpg,AMNE13.jpg,MN,1,num_4,48,None,,,,2017_Apr_03_1448,60.0053311685,MAFE4ImagesEEG,001,200032,
AFSA21.JPG,AFNE22.JPG,AFNE21.JPG,AFSA23.JPG,AFSA22.JPG,AFNE23.JPG,0,5,5,0,,,,,,,,,,,,,,,,,,,,,,,AMSA08.jpg,AMNE07.jpg,AMSA14.jpg,AMNE18.jpg,AMSA08.jpg,MS,2,num_8,48,None,,,,2017_Apr_03_1448,60.0053311685,MAFE4ImagesEEG,001,200032,
AMNE23.JPG,AMNE24.JPG,AMNE22.JPG,AMSA24.JPG,AMSA22.JPG,AMSA23.JPG,0,6,6,9,,,,,,,,,,,,,,,,,,,,,,,AMSA07.jpg,AMSA06.jpg,AMNE12.jpg,AMNE19.jpg,AMNE12.jpg,MN,1,num_2,48,None,,,,2017_Apr_03_1448,60.0053311685,MAFE4ImagesEEG,001,200032,
AFSA25.JPG,AFNE24.JPG,AFSA24.JPG,AFNE21.JPG,AFSA21.JPG,AFNE25.JPG,0,7,7,2,,,,,,,,,,,,,,,,,,,,,,,AMNE18.jpg,AMNE15.jpg,AMSA04.jpg,AMSA11.jpg,AMSA11.jpg,MS,2,num_4,48,None,,,,2017_Apr_03_1448,60.0053311685,MAFE4ImagesEEG,001,200032,
AFNE22.JPG,AFSA24.JPG,AFSA22.JPG,AFNE25.JPG,AFNE24.JPG,AFSA25.JPG,0,8,8,6,,,,,,,,,,,,,,,,,,,,,,,AMSA17.jpg,AMSA07.jpg,AMNE09.jpg,AMNE11.jpg,AMNE11.jpg,MN,1,num_4,48,None,,,,2017_Apr_03_1448,60.0053311685,MAFE4ImagesEEG,001,200032,
AMSA21.JPG,AMNE22.JPG,AMNE21.JPG,AMSA23.JPG,AMSA22.JPG,AMNE23.JPG,0,9,9,1,,,,,,,,,,,,,,,,,,,,,,,AMNE06.jpg,AMSA05.jpg,AMNE01.jpg,AMSA08.jpg,AMNE01.jpg,MN,1,num_2,48,None,,,,2017_Apr_03_1448,60.0053311685,MAFE4ImagesEEG,001,200032,
AFSA21.JPG,AFNE23.JPG,AFNE21.JPG,AFSA25.JPG,AFNE25.JPG,AFSA23.JPG,,,,,0,0,0,4,,,,,,,,,,,,,,,,,,,AFNE03.jpg,AFSA17.jpg,AFSA11.jpg,AFNE11.jpg,AFNE11.jpg,FN,3,num_4,48,None,,,,2017_Apr_03_1448,60.0053311685,MAFE4ImagesEEG,001,200032,
AMNE23.JPG,AMNE24.JPG,AMNE22.JPG,AMSA24.JPG,AMSA22.JPG,AMSA23.JPG,,,,,0,1,1,9,,,,,,,,,,,,,,,,,,,AFSA12.jpg,AFNE09.jpg,AFSA16.jpg,AFNE18.jpg,AFNE18.jpg,FN,3,num_4,48,None,,,,2017_Apr_03_1448,60.0053311685,MAFE4ImagesEEG,001,200032,
AMSA21.JPG,AMNE22.JPG,AMNE21.JPG,AMSA23.JPG,AMSA22.JPG,AMNE23.JPG,,,,,0,2,2,1,,,,,,,,,,,,,,,,,,,AFSA13.jpg,AFSA10.jpg,AFNE03.jpg,AFNE19.jpg,AFNE03.jpg,FN,3,num_2,48,None,,,,2017_Apr_03_1448,60.0053311685,MAFE4ImagesEEG,001,200032,
AMSA21.JPG,AMNE23.JPG,AMNE21.JPG,AMSA25.JPG,AMNE25.JPG,AMSA23.JPG,,,,,0,3,3,5,,,,,,,,,,,,,,,,,,,AFNE12.jpg,AFSA14.jpg,AFNE02.jpg,AFSA04.jpg,AFNE12.jpg,FN,3,num_8,48,None,,,,2017_Apr_03_1448,60.0053311685,MAFE4ImagesEEG,001,200032,
AMSA25.JPG,AMNE24.JPG,AMSA24.JPG,AMNE26.JPG,AMSA21.JPG,AMNE25.JPG,,,,,0,4,4,3,,,,,,,,,,,,,,,,,,,AFNE20.jpg,AFNE10.jpg,AFSA18.jpg,AFSA03.jpg,AFSA03.jpg,FS,4,num_4,48,None,,,,2017_Apr_03_1448,60.0053311685,MAFE4ImagesEEG,001,200032,
AFNE23.JPG,AFNE24.JPG,AFNE22.JPG,AFSA24.JPG,AFSA22.JPG,AFSA23.JPG,,,,,0,5,5,8,,,,,,,,,,,,,,,,,,,AFNE14.jpg,AFNE10.jpg,AFSA10.jpg,AFSA04.jpg,AFSA04.jpg,FS,4,num_4,48,None,,,,2017_Apr_03_1448,60.0053311685,MAFE4ImagesEEG,001,200032,
AFSA25.JPG,AFNE24.JPG,AFSA24.JPG,AFNE21.JPG,AFSA21.JPG,AFNE25.JPG,,,,,0,6,6,2,,,,,,,,,,,,,,,,,,,AFSA09.jpg,AFNE13.jpg,AFSA02.jpg,AFNE10.jpg,AFNE13.jpg,FN,3,num_6,48,None,,,,2017_Apr_03_1448,60.0053311685,MAFE4ImagesEEG,001,200032,
AMNE22.JPG,AMSA24.JPG,AMSA22.JPG,AMNE25.JPG,AMNE24.JPG,AMSA25.JPG,,,,,0,7,7,7,,,,,,,,,,,,,,,,,,,AFSA15.jpg,AFNE06.jpg,AFSA14.jpg,AFNE15.jpg,AFSA15.jpg,FS,4,num_8,48,None,,,,2017_Apr_03_1448,60.0053311685,MAFE4ImagesEEG,001,200032,
AFNE22.JPG,AFSA24.JPG,AFSA22.JPG,AFNE25.JPG,AFNE24.JPG,AFSA25.JPG,,,,,0,8,8,6,,,,,,,,,,,,,,,,,,,AFNE11.jpg,AFNE07.jpg,AFSA13.jpg,AFSA02.jpg,AFSA02.jpg,FS,4,num_4,48,None,,,,2017_Apr_03_1448,60.0053311685,MAFE4ImagesEEG,001,200032,
AFSA21.JPG,AFNE22.JPG,AFNE21.JPG,AFSA23.JPG,AFSA22.JPG,AFNE23.JPG,,,,,0,9,9,0,,,,,,,,,,,,,,,,,,,AFSA06.jpg,AFSA16.jpg,AFNE10.jpg,AFNE07.jpg,AFSA16.jpg,FS,4,num_6,48,None,,,,2017_Apr_03_1448,60.0053311685,MAFE4ImagesEEG,001,200032,
AMNE22.JPG,AMSA24.JPG,AMSA22.JPG,AMNE25.JPG,AMNE24.JPG,AMSA25.JPG,,,,,,,,,0,0,0,7,,,,,,,,,,,,,,,AMSA10.jpg,AMNE18.jpg,AMSA14.jpg,AMNE11.jpg,AMSA14.jpg,MS,2,num_2,48,None,,,,2017_Apr_03_1448,60.0053311685,MAFE4ImagesEEG,001,200032,
AFNE22.JPG,AFSA24.JPG,AFSA22.JPG,AFNE25.JPG,AFNE24.JPG,AFSA25.JPG,,,,,,,,,0,1,1,6,,,,,,,,,,,,,,,AMNE13.jpg,AMSA01.jpg,AMSA14.jpg,AMNE20.jpg,AMNE13.jpg,MN,1,num_8,48,None,,,,2017_Apr_03_1448,60.0053311685,MAFE4ImagesEEG,001,200032,
AFSA25.JPG,AFNE24.JPG,AFSA24.JPG,AFNE21.JPG,AFSA21.JPG,AFNE25.JPG,,,,,,,,,0,2,2,2,,,,,,,,,,,,,,,AMNE02.jpg,AMNE14.jpg,AMSA18.jpg,AMSA17.jpg,AMNE02.jpg,MN,1,num_8,48,None,,,,2017_Apr_03_1448,60.0053311685,MAFE4ImagesEEG,001,200032,
AFSA21.JPG,AFNE23.JPG,AFNE21.JPG,AFSA25.JPG,AFNE25.JPG,AFSA23.JPG,,,,,,,,,0,3,3,4,,,,,,,,,,,,,,,AMSA01.jpg,AMSA13.jpg,AMNE16.jpg,AMNE14.jpg,AMNE16.jpg,MN,1,num_2,48,None,,,,2017_Apr_03_1448,60.0053311685,MAFE4ImagesEEG,001,200032,
AMSA21.JPG,AMNE22.JPG,AMNE21.JPG,AMSA23.JPG,AMSA22.JPG,AMNE23.JPG,,,,,,,,,0,4,4,1,,,,,,,,,,,,,,,AMSA13.jpg,AMNE15.jpg,AMSA15.jpg,AMNE04.jpg,AMNE04.jpg,MN,1,num_4,48,None,,,,2017_Apr_03_1448,60.0053311685,MAFE4ImagesEEG,001,200032,
AMSA21.JPG,AMNE23.JPG,AMNE21.JPG,AMSA25.JPG,AMNE25.JPG,AMSA23.JPG,,,,,,,,,0,5,5,5,,,,,,,,,,,,,,,AMSA04.jpg,AMSA09.jpg,AMNE19.jpg,AMNE16.jpg,AMNE16.jpg,MN,1,num_4,48,None,,,,2017_Apr_03_1448,60.0053311685,MAFE4ImagesEEG,001,200032,
AFNE23.JPG,AFNE24.JPG,AFNE22.JPG,AFSA24.JPG,AFSA22.JPG,AFSA23.JPG,,,,,,,,,0,6,6,8,,,,,,,,,,,,,,,AMNE16.jpg,AMNE08.jpg,AMSA04.jpg,AMSA01.jpg,AMSA01.jpg,MS,2,num_4,48,None,,,,2017_Apr_03_1448,60.0053311685,MAFE4ImagesEEG,001,200032,
AFSA21.JPG,AFNE22.JPG,AFNE21.JPG,AFSA23.JPG,AFSA22.JPG,AFNE23.JPG,,,,,,,,,0,7,7,0,,,,,,,,,,,,,,,AMNE08.jpg,AMNE10.jpg,AMSA19.jpg,AMSA20.jpg,AMNE08.jpg,MN,1,num_8,48,None,,,,2017_Apr_03_1448,60.0053311685,MAFE4ImagesEEG,001,200032,
AMNE23.JPG,AMNE24.JPG,AMNE22.JPG,AMSA24.JPG,AMSA22.JPG,AMSA23.JPG,,,,,,,,,0,8,8,9,,,,,,,,,,,,,,,AMSA20.jpg,AMSA07.jpg,AMNE10.jpg,AMNE03.jpg,AMNE10.jpg,MN,1,num_2,48,None,,,,2017_Apr_03_1448,60.0053311685,MAFE4ImagesEEG,001,200032,
AMSA25.JPG,AMNE24.JPG,AMSA24.JPG,AMNE26.JPG,AMSA21.JPG,AMNE25.JPG,,,,,,,,,0,9,9,3,,,,,,,,,,,,,,,AMSA13.jpg,AMSA01.jpg,AMNE07.jpg,AMNE18.jpg,AMNE18.jpg,MN,1,num_4,48,None,,,,2017_Apr_03_1448,60.0053311685,MAFE4ImagesEEG,001,200032,
AMSA21.JPG,AMNE23.JPG,AMNE21.JPG,AMSA25.JPG,AMNE25.JPG,AMSA23.JPG,,,,,,,,,,,,,0,0,0,5,,,,,,,,,,,AFSA20.jpg,AFNE12.jpg,AFNE15.jpg,AFSA01.jpg,AFNE15.jpg,FN,3,num_2,48,None,,,,2017_Apr_03_1448,60.0053311685,MAFE4ImagesEEG,001,200032,
AFNE23.JPG,AFNE24.JPG,AFNE22.JPG,AFSA24.JPG,AFSA22.JPG,AFSA23.JPG,,,,,,,,,,,,,0,1,1,8,,,,,,,,,,,AFSA13.jpg,AFSA08.jpg,AFNE08.jpg,AFNE09.jpg,AFNE08.jpg,FN,3,num_2,48,None,,,,2017_Apr_03_1448,60.0053311685,MAFE4ImagesEEG,001,200032,
AMNE23.JPG,AMNE24.JPG,AMNE22.JPG,AMSA24.JPG,AMSA22.JPG,AMSA23.JPG,,,,,,,,,,,,,0,2,2,9,,,,,,,,,,,AFSA04.jpg,AFNE05.jpg,AFNE19.jpg,AFSA01.jpg,AFNE19.jpg,FN,3,num_2,48,None,,,,2017_Apr_03_1448,60.0053311685,MAFE4ImagesEEG,001,200032,
AMNE22.JPG,AMSA24.JPG,AMSA22.JPG,AMNE25.JPG,AMNE24.JPG,AMSA25.JPG,,,,,,,,,,,,,0,3,3,7,,,,,,,,,,,AFNE10.jpg,AFSA09.jpg,AFSA14.jpg,AFNE11.jpg,AFSA09.jpg,FS,4,num_6,48,None,,,,2017_Apr_03_1448,60.0053311685,MAFE4ImagesEEG,001,200032,
AFSA21.JPG,AFNE22.JPG,AFNE21.JPG,AFSA23.JPG,AFSA22.JPG,AFNE23.JPG,,,,,,,,,,,,,0,4,4,0,,,,,,,,,,,AFNE20.jpg,AFSA08.jpg,AFSA09.jpg,AFNE05.jpg,AFNE20.jpg,FN,3,num_8,48,None,,,,2017_Apr_03_1448,60.0053311685,MAFE4ImagesEEG,001,200032,
AMSA21.JPG,AMNE22.JPG,AMNE21.JPG,AMSA23.JPG,AMSA22.JPG,AMNE23.JPG,,,,,,,,,,,,,0,5,5,1,,,,,,,,,,,AFNE05.jpg,AFSA03.jpg,AFSA02.jpg,AFNE02.jpg,AFSA02.jpg,FS,4,num_2,48,None,,,,2017_Apr_03_1448,60.0053311685,MAFE4ImagesEEG,001,200032,
AFSA25.JPG,AFNE24.JPG,AFSA24.JPG,AFNE21.JPG,AFSA21.JPG,AFNE25.JPG,,,,,,,,,,,,,0,6,6,2,,,,,,,,,,,AFNE01.jpg,AFNE02.jpg,AFSA07.jpg,AFSA14.jpg,AFNE01.jpg,FN,3,num_8,48,None,,,,2017_Apr_03_1448,60.0053311685,MAFE4ImagesEEG,001,200032,
AMSA25.JPG,AMNE24.JPG,AMSA24.JPG,AMNE26.JPG,AMSA21.JPG,AMNE25.JPG,,,,,,,,,,,,,0,7,7,3,,,,,,,,,,,AFNE14.jpg,AFSA06.jpg,AFNE02.jpg,AFSA17.jpg,AFSA17.jpg,FS,4,num_4,48,None,,,,2017_Apr_03_1448,60.0053311685,MAFE4ImagesEEG,001,200032,
AFNE22.JPG,AFSA24.JPG,AFSA22.JPG,AFNE25.JPG,AFNE24.JPG,AFSA25.JPG,,,,,,,,,,,,,0,8,8,6,,,,,,,,,,,AFSA10.jpg,AFNE17.jpg,AFNE01.jpg,AFSA13.jpg,AFSA13.jpg,FS,4,num_4,48,None,,,,2017_Apr_03_1448,60.0053311685,MAFE4ImagesEEG,001,200032,
AFSA21.JPG,AFNE23.JPG,AFNE21.JPG,AFSA25.JPG,AFNE25.JPG,AFSA23.JPG,,,,,,,,,,,,,0,9,9,4,,,,,,,,,,,AFSA11.jpg,AFNE01.jpg,AFNE19.jpg,AFSA09.jpg,AFSA11.jpg,FS,4,num_8,48,None,,,,2017_Apr_03_1448,60.0053311685,MAFE4ImagesEEG,001,200032,
AFSA21.JPG,AFNE22.JPG,AFNE21.JPG,AFSA23.JPG,AFSA22.JPG,AFNE23.JPG,,,,,,,,,,,,,,,,,0,0,0,0,,,,,,,AMSA10.jpg,AMSA16.jpg,AMNE01.jpg,AMNE11.jpg,AMNE01.jpg,MN,1,num_2,48,None,,,,2017_Apr_03_1448,60.0053311685,MAFE4ImagesEEG,001,200032,
AFSA21.JPG,AFNE23.JPG,AFNE21.JPG,AFSA25.JPG,AFNE25.JPG,AFSA23.JPG,,,,,,,,,,,,,,,,,0,1,1,4,,,,,,,AMNE20.jpg,AMSA13.jpg,AMSA19.jpg,AMNE15.jpg,AMSA13.jpg,MS,2,num_6,48,None,,,,2017_Apr_03_1448,60.0053311685,MAFE4ImagesEEG,001,200032,
AFNE22.JPG,AFSA24.JPG,AFSA22.JPG,AFNE25.JPG,AFNE24.JPG,AFSA25.JPG,,,,,,,,,,,,,,,,,0,2,2,6,,,,,,,AMNE15.jpg,AMNE17.jpg,AMSA02.jpg,AMSA12.jpg,AMSA12.jpg,MS,2,num_4,48,None,,,,2017_Apr_03_1448,60.0053311685,MAFE4ImagesEEG,001,200032,
AMSA25.JPG,AMNE24.JPG,AMSA24.JPG,AMNE26.JPG,AMSA21.JPG,AMNE25.JPG,,,,,,,,,,,,,,,,,0,3,3,3,,,,,,,AMSA16.jpg,AMNE20.jpg,AMNE04.jpg,AMSA01.jpg,AMSA16.jpg,MS,2,num_8,48,None,,,,2017_Apr_03_1448,60.0053311685,MAFE4ImagesEEG,001,200032,
AMNE23.JPG,AMNE24.JPG,AMNE22.JPG,AMSA24.JPG,AMSA22.JPG,AMSA23.JPG,,,,,,,,,,,,,,,,,0,4,4,9,,,,,,,AMNE07.jpg,AMSA20.jpg,AMNE13.jpg,AMSA19.jpg,AMSA20.jpg,MS,2,num_6,48,None,,,,2017_Apr_03_1448,60.0053311685,MAFE4ImagesEEG,001,200032,
AMNE22.JPG,AMSA24.JPG,AMSA22.JPG,AMNE25.JPG,AMNE24.JPG,AMSA25.JPG,,,,,,,,,,,,,,,,,0,5,5,7,,,,,,,AMSA16.jpg,AMNE17.jpg,AMSA15.jpg,AMNE07.jpg,AMNE17.jpg,MN,1,num_6,48,None,,,,2017_Apr_03_1448,60.0053311685,MAFE4ImagesEEG,001,200032,
AMSA21.JPG,AMNE23.JPG,AMNE21.JPG,AMSA25.JPG,AMNE25.JPG,AMSA23.JPG,,,,,,,,,,,,,,,,,0,6,6,5,,,,,,,AMSA13.jpg,AMNE02.jpg,AMNE03.jpg,AMSA20.jpg,AMNE02.jpg,MN,1,num_6,48,None,,,,2017_Apr_03_1448,60.0053311685,MAFE4ImagesEEG,001,200032,
AMSA21.JPG,AMNE22.JPG,AMNE21.JPG,AMSA23.JPG,AMSA22.JPG,AMNE23.JPG,,,,,,,,,,,,,,,,,0,7,7,1,,,,,,,AMSA17.jpg,AMNE17.jpg,AMSA01.jpg,AMNE06.jpg,AMSA01.jpg,MS,2,num_2,48,None,,,,2017_Apr_03_1448,60.0053311685,MAFE4ImagesEEG,001,200032,
AFNE23.JPG,AFNE24.JPG,AFNE22.JPG,AFSA24.JPG,AFSA22.JPG,AFSA23.JPG,,,,,,,,,,,,,,,,,0,8,8,8,,,,,,,AMNE02.jpg,AMNE08.jpg,AMSA17.jpg,AMSA01.jpg,AMSA01.jpg,MS,2,num_4,48,None,,,,2017_Apr_03_1448,60.0053311685,MAFE4ImagesEEG,001,200032,
AFSA25.JPG,AFNE24.JPG,AFSA24.JPG,AFNE21.JPG,AFSA21.JPG,AFNE25.JPG,,,,,,,,,,,,,,,,,0,9,9,2,,,,,,,AMSA15.jpg,AMSA16.jpg,AMNE19.jpg,AMNE20.jpg,AMSA16.jpg,MS,2,num_6,48,None,,,,2017_Apr_03_1448,60.0053311685,MAFE4ImagesEEG,001,200032,
AMSA21.JPG,AMNE22.JPG,AMNE21.JPG,AMSA23.JPG,AMSA22.JPG,AMNE23.JPG,,,,,,,,,,,,,,,,,,,,,0,0,0,1,,,AFSA16.jpg,AFSA19.jpg,AFNE02.jpg,AFNE01.jpg,AFNE02.jpg,FN,3,num_2,48,None,,,,2017_Apr_03_1448,60.0053311685,MAFE4ImagesEEG,001,200032,
AFNE23.JPG,AFNE24.JPG,AFNE22.JPG,AFSA24.JPG,AFSA22.JPG,AFSA23.JPG,,,,,,,,,,,,,,,,,,,,,0,1,1,8,,,AFNE06.jpg,AFNE10.jpg,AFSA03.jpg,AFSA11.jpg,AFNE10.jpg,FN,3,num_6,48,None,,,,2017_Apr_03_1448,60.0053311685,MAFE4ImagesEEG,001,200032,
AMSA25.JPG,AMNE24.JPG,AMSA24.JPG,AMNE26.JPG,AMSA21.JPG,AMNE25.JPG,,,,,,,,,,,,,,,,,,,,,0,2,2,3,,,AFNE04.jpg,AFSA16.jpg,AFNE18.jpg,AFSA09.jpg,AFNE18.jpg,FN,3,num_2,48,None,,,,2017_Apr_03_1448,60.0053311685,MAFE4ImagesEEG,001,200032,
AMSA21.JPG,AMNE23.JPG,AMNE21.JPG,AMSA25.JPG,AMNE25.JPG,AMSA23.JPG,,,,,,,,,,,,,,,,,,,,,0,3,3,5,,,AFSA06.jpg,AFNE04.jpg,AFNE11.jpg,AFSA02.jpg,AFNE04.jpg,FN,3,num_6,48,None,,,,2017_Apr_03_1448,60.0053311685,MAFE4ImagesEEG,001,200032,
AFSA21.JPG,AFNE22.JPG,AFNE21.JPG,AFSA23.JPG,AFSA22.JPG,AFNE23.JPG,,,,,,,,,,,,,,,,,,,,,0,4,4,0,,,AFNE14.jpg,AFNE03.jpg,AFSA09.jpg,AFSA03.jpg,AFNE14.jpg,FN,3,num_8,48,None,,,,2017_Apr_03_1448,60.0053311685,MAFE4ImagesEEG,001,200032,
AFSA25.JPG,AFNE24.JPG,AFSA24.JPG,AFNE21.JPG,AFSA21.JPG,AFNE25.JPG,,,,,,,,,,,,,,,,,,,,,0,5,5,2,,,AFSA12.jpg,AFSA01.jpg,AFNE16.jpg,AFNE05.jpg,AFSA01.jpg,FS,4,num_6,48,None,,,,2017_Apr_03_1448,60.0053311685,MAFE4ImagesEEG,001,200032,
AMNE23.JPG,AMNE24.JPG,AMNE22.JPG,AMSA24.JPG,AMSA22.JPG,AMSA23.JPG,,,,,,,,,,,,,,,,,,,,,0,6,6,9,,,AFSA13.jpg,AFSA16.jpg,AFNE01.jpg,AFNE19.jpg,AFNE19.jpg,FN,3,num_4,48,None,,,,2017_Apr_03_1448,60.0053311685,MAFE4ImagesEEG,001,200032,
AFNE22.JPG,AFSA24.JPG,AFSA22.JPG,AFNE25.JPG,AFNE24.JPG,AFSA25.JPG,,,,,,,,,,,,,,,,,,,,,0,7,7,6,,,AFNE14.jpg,AFNE10.jpg,AFSA07.jpg,AFSA02.jpg,AFNE14.jpg,FN,3,num_8,48,None,,,,2017_Apr_03_1448,60.0053311685,MAFE4ImagesEEG,001,200032,
AFSA21.JPG,AFNE23.JPG,AFNE21.JPG,AFSA25.JPG,AFNE25.JPG,AFSA23.JPG,,,,,,,,,,,,,,,,,,,,,0,8,8,4,,,AFSA18.jpg,AFNE05.jpg,AFSA08.jpg,AFNE18.jpg,AFSA18.jpg,FS,4,num_8,48,None,,,,2017_Apr_03_1448,60.0053311685,MAFE4ImagesEEG,001,200032,
AMNE22.JPG,AMSA24.JPG,AMSA22.JPG,AMNE25.JPG,AMNE24.JPG,AMSA25.JPG,,,,,,,,,,,,,,,,,,,,,0,9,9,7,,,AFSA19.jpg,AFSA09.jpg,AFNE11.jpg,AFNE10.jpg,AFSA19.jpg,FS,4,num_8,48,None,,,,2017_Apr_03_1448,60.0053311685,MAFE4ImagesEEG,001,200032,
,,,,,,,,,,,,,,,,,,,,,,,,,,,,,,,,,,,,,,,,,,space,50.5962143734,,2017_Apr_03_1448,60.0053311685,MAFE4ImagesEEG,001,200032,
AFNE01.JPG,AFNE01.JPG,AFNE01.JPG,AFNE01.JPG,AFNE01.JPG,AFNE01.JPG,0,0,0,5,,,,,,,,,,,,,,,,,,,,,,,AMSA06.jpg,AMNE16.jpg,AMSA04.jpg,AMNE01.jpg,AMSA06.jpg,MS,2,num_8,48,None,,,,2017_Apr_03_1448,60.0053311685,MAFE4ImagesEEG,001,200032,
AFNE01.JPG,AFNE01.JPG,AFNE01.JPG,AFNE01.JPG,AFNE01.JPG,AFNE01.JPG,0,1,1,1,,,,,,,,,,,,,,,,,,,,,,,AMNE03.jpg,AMSA18.jpg,AMNE04.jpg,AMSA04.jpg,AMSA18.jpg,MS,2,num_6,32,num_4,,,1.03343839687,2017_Apr_03_1448,60.0053311685,MAFE4ImagesEEG,001,200032,
AFNE01.JPG,AFNE01.JPG,AFNE01.JPG,AFNE01.JPG,AFNE01.JPG,AFNE01.JPG,0,2,2,0,,,,,,,,,,,,,,,,,,,,,,,AMNE04.jpg,AMSA11.jpg,AMNE16.jpg,AMSA03.jpg,AMSA11.jpg,MS,2,num_6,48,None,,,,2017_Apr_03_1448,60.0053311685,MAFE4ImagesEEG,001,200032,
AFNE01.JPG,AFNE01.JPG,AFNE01.JPG,AFNE01.JPG,AFNE01.JPG,AFNE01.JPG,0,3,3,8,,,,,,,,,,,,,,,,,,,,,,,AMSA19.jpg,AMNE09.jpg,AMSA07.jpg,AMNE10.jpg,AMSA19.jpg,MS,2,num_8,32,num_6,,,1.76676738961,2017_Apr_03_1448,60.0053311685,MAFE4ImagesEEG,001,200032,
AFNE01.JPG,AFNE01.JPG,AFNE01.JPG,AFNE01.JPG,AFNE01.JPG,AFNE01.JPG,0,4,4,4,,,,,,,,,,,,,,,,,,,,,,,AMNE06.jpg,AMNE10.jpg,AMSA03.jpg,AMSA09.jpg,AMSA03.jpg,MS,2,num_2,16,num_2,,,2.6666420768,2017_Apr_03_1448,60.0053311685,MAFE4ImagesEEG,001,200032,
AFNE01.JPG,AFNE01.JPG,AFNE01.JPG,AFNE01.JPG,AFNE01.JPG,AFNE01.JPG,0,5,5,7,,,,,,,,,,,,,,,,,,,,,,,AMNE10.jpg,AMNE18.jpg,AMSA09.jpg,AMSA11.jpg,AMSA09.jpg,MS,2,num_2,16,num_2,,,1.15012991545,2017_Apr_03_1448,60.0053311685,MAFE4ImagesEEG,001,200032,
AFNE01.JPG,AFNE01.JPG,AFNE01.JPG,AFNE01.JPG,AFNE01.JPG,AFNE01.JPG,0,6,6,2,,,,,,,,,,,,,,,,,,,,,,,AMNE12.jpg,AMSA04.jpg,AMNE20.jpg,AMSA17.jpg,AMSA04.jpg,MS,2,num_6,32,num_4,,,1.06672444264,2017_Apr_03_1448,60.0053311685,MAFE4ImagesEEG,001,200032,
AFNE01.JPG,AFNE01.JPG,AFNE01.JPG,AFNE01.JPG,AFNE01.JPG,AFNE01.JPG,0,7,7,6,,,,,,,,,,,,,,,,,,,,,,,AMNE11.jpg,AMNE08.jpg,AMSA07.jpg,AMSA12.jpg,AMSA12.jpg,MS,2,num_4,32,num_6,,,1.06674753572,2017_Apr_03_1448,60.0053311685,MAFE4ImagesEEG,001,200032,
AFNE01.JPG,AFNE01.JPG,AFNE01.JPG,AFNE01.JPG,AFNE01.JPG,AFNE01.JPG,0,8,8,9,,,,,,,,,,,,,,,,,,,,,,,AMNE18.jpg,AMSA05.jpg,AMSA18.jpg,AMNE12.jpg,AMSA18.jpg,MS,2,num_2,32,num_8,,,2.16663004877,2017_Apr_03_1448,60.0053311685,MAFE4ImagesEEG,001,200032,
AFNE01.JPG,AFNE01.JPG,AFNE01.JPG,AFNE01.JPG,AFNE01.JPG,AFNE01.JPG,0,9,9,3,,,,,,,,,,,,,,,,,,,,,,,AMNE09.jpg,AMNE12.jpg,AMSA16.jpg,AMSA09.jpg,AMSA09.jpg,MS,2,num_4,16,num_4,,,1.08344139578,2017_Apr_03_1448,60.0053311685,MAFE4ImagesEEG,001,200032,
AFNE01.JPG,AFNE01.JPG,AFNE01.JPG,AFNE01.JPG,AFNE01.JPG,AFNE01.JPG,1,0,10,2,,,,,,,,,,,,,,,,,,,,,,,AMSA16.jpg,AMNE06.jpg,AMSA09.jpg,AMNE09.jpg,AMNE06.jpg,MN,1,num_6,32,num_2,,,2.01667493652,2017_Apr_03_1448,60.0053311685,MAFE4ImagesEEG,001,200032,
AFNE01.JPG,AFNE01.JPG,AFNE01.JPG,AFNE01.JPG,AFNE01.JPG,AFNE01.JPG,1,1,11,0,,,,,,,,,,,,,,,,,,,,,,,AMSA10.jpg,AMNE10.jpg,AMNE01.jpg,AMSA19.jpg,AMNE10.jpg,MN,1,num_6,32,num_8,,,0.933470888063,2017_Apr_03_1448,60.0053311685,MAFE4ImagesEEG,001,200032,
AFNE01.JPG,AFNE01.JPG,AFNE01.JPG,AFNE01.JPG,AFNE01.JPG,AFNE01.JPG,1,2,12,6,,,,,,,,,,,,,,,,,,,,,,,AMNE03.jpg,AMSA09.jpg,AMNE04.jpg,AMSA04.jpg,AMSA04.jpg,MS,2,num_4,16,num_4,,,0.883420419646,2017_Apr_03_1448,60.0053311685,MAFE4ImagesEEG,001,200032,
AFNE01.JPG,AFNE01.JPG,AFNE01.JPG,AFNE01.JPG,AFNE01.JPG,AFNE01.JPG,1,3,13,7,,,,,,,,,,,,,,,,,,,,,,,AMSA05.jpg,AMNE20.jpg,AMNE09.jpg,AMSA02.jpg,AMNE20.jpg,MN,1,num_6,16,num_6,,,0.866738426965,2017_Apr_03_1448,60.0053311685,MAFE4ImagesEEG,001,200032,
AFNE01.JPG,AFNE01.JPG,AFNE01.JPG,AFNE01.JPG,AFNE01.JPG,AFNE01.JPG,1,4,14,9,,,,,,,,,,,,,,,,,,,,,,,AMSA16.jpg,AMSA05.jpg,AMNE13.jpg,AMNE12.jpg,AMNE13.jpg,MN,1,num_2,32,num_4,,,0.983469717205,2017_Apr_03_1448,60.0053311685,MAFE4ImagesEEG,001,200032,
AFNE01.JPG,AFNE01.JPG,AFNE01.JPG,AFNE01.JPG,AFNE01.JPG,AFNE01.JPG,1,5,15,5,,,,,,,,,,,,,,,,,,,,,,,AMNE07.jpg,AMSA20.jpg,AMNE20.jpg,AMSA11.jpg,AMSA11.jpg,MS,2,num_4,48,None,,,,2017_Apr_03_1448,60.0053311685,MAFE4ImagesEEG,001,200032,
AFNE01.JPG,AFNE01.JPG,AFNE01.JPG,AFNE01.JPG,AFNE01.JPG,AFNE01.JPG,1,6,16,3,,,,,,,,,,,,,,,,,,,,,,,AMNE11.jpg,AMSA09.jpg,AMSA19.jpg,AMNE04.jpg,AMNE04.jpg,MN,1,num_4,16,num_4,,,0.800135223893,2017_Apr_03_1448,60.0053311685,MAFE4ImagesEEG,001,200032,
AFNE01.JPG,AFNE01.JPG,AFNE01.JPG,AFNE01.JPG,AFNE01.JPG,AFNE01.JPG,1,7,17,4,,,,,,,,,,,,,,,,,,,,,,,AMSA05.jpg,AMNE20.jpg,AMNE13.jpg,AMSA10.jpg,AMSA05.jpg,MS,2,num_8,16,num_8,,,2.65000017639,2017_Apr_03_1448,60.0053311685,MAFE4ImagesEEG,001,200032,
AFNE01.JPG,AFNE01.JPG,AFNE01.JPG,AFNE01.JPG,AFNE01.JPG,AFNE01.JPG,1,8,18,8,,,,,,,,,,,,,,,,,,,,,,,AMSA03.jpg,AMSA04.jpg,AMNE04.jpg,AMNE19.jpg,AMSA03.jpg,MS,2,num_8,32,num_6,,,2.58335431525,2017_Apr_03_1448,60.0053311685,MAFE4ImagesEEG,001,200032,
AFNE01.JPG,AFNE01.JPG,AFNE01.JPG,AFNE01.JPG,AFNE01.JPG,AFNE01.JPG,1,9,19,1,,,,,,,,,,,,,,,,,,,,,,,AMNE08.jpg,AMNE05.jpg,AMSA05.jpg,AMSA10.jpg,AMNE08.jpg,MN,1,num_8,32,num_4,,,2.23334935983,2017_Apr_03_1448,60.0053311685,MAFE4ImagesEEG,001,200032,
AFNE01.JPG,AFNE01.JPG,AFNE01.JPG,AFNE01.JPG,AFNE01.JPG,AFNE01.JPG,2,0,20,9,,,,,,,,,,,,,,,,,,,,,,,AMSA08.jpg,AMNE12.jpg,AMNE15.jpg,AMSA19.jpg,AMSA19.jpg,MS,2,num_4,32,num_2,,,2.30001991801,2017_Apr_03_1448,60.0053311685,MAFE4ImagesEEG,001,200032,
AFNE01.JPG,AFNE01.JPG,AFNE01.JPG,AFNE01.JPG,AFNE01.JPG,AFNE01.JPG,2,1,21,4,,,,,,,,,,,,,,,,,,,,,,,AMNE05.jpg,AMSA06.jpg,AMSA12.jpg,AMNE01.jpg,AMSA06.jpg,MS,2,num_6,32,num_8,,,1.78340864833,2017_Apr_03_1448,60.0053311685,MAFE4ImagesEEG,001,200032,
AFNE01.JPG,AFNE01.JPG,AFNE01.JPG,AFNE01.JPG,AFNE01.JPG,AFNE01.JPG,2,2,22,8,,,,,,,,,,,,,,,,,,,,,,,AMSA02.jpg,AMNE06.jpg,AMNE17.jpg,AMSA16.jpg,AMNE17.jpg,MN,1,num_2,32,num_4,,,4.4162838906,2017_Apr_03_1448,60.0053311685,MAFE4ImagesEEG,001,200032,
AFNE01.JPG,AFNE01.JPG,AFNE01.JPG,AFNE01.JPG,AFNE01.JPG,AFNE01.JPG,2,3,23,2,,,,,,,,,,,,,,,,,,,,,,,AMSA16.jpg,AMSA04.jpg,AMNE02.jpg,AMNE20.jpg,AMSA04.jpg,MS,2,num_6,16,num_6,,,1.83351973654,2017_Apr_03_1448,60.0053311685,MAFE4ImagesEEG,001,200032,
AFNE01.JPG,AFNE01.JPG,AFNE01.JPG,AFNE01.JPG,AFNE01.JPG,AFNE01.JPG,2,4,24,0,,,,,,,,,,,,,,,,,,,,,,,AMNE03.jpg,AMNE10.jpg,AMSA07.jpg,AMSA17.jpg,AMNE03.jpg,MN,1,num_8,32,num_6,,,1.38372560334,2017_Apr_03_1448,60.0053311685,MAFE4ImagesEEG,001,200032,
AFNE01.JPG,AFNE01.JPG,AFNE01.JPG,AFNE01.JPG,AFNE01.JPG,AFNE01.JPG,2,5,25,5,,,,,,,,,,,,,,,,,,,,,,,AMSA13.jpg,AMNE10.jpg,AMSA20.jpg,AMNE14.jpg,AMNE14.jpg,MN,1,num_4,32,num_2,,,1.83337636595,2017_Apr_03_1448,60.0053311685,MAFE4ImagesEEG,001,200032,
AFNE01.JPG,AFNE01.JPG,AFNE01.JPG,AFNE01.JPG,AFNE01.JPG,AFNE01.JPG,2,6,26,6,,,,,,,,,,,,,,,,,,,,,,,AMSA03.jpg,AMSA12.jpg,AMNE12.jpg,AMNE06.jpg,AMNE12.jpg,MN,1,num_2,16,num_2,,,1.1834377714,2017_Apr_03_1448,60.0053311685,MAFE4ImagesEEG,001,200032,
AFNE01.JPG,AFNE01.JPG,AFNE01.JPG,AFNE01.JPG,AFNE01.JPG,AFNE01.JPG,2,7,27,1,,,,,,,,,,,,,,,,,,,,,,,AMSA08.jpg,AMNE15.jpg,AMSA02.jpg,AMNE06.jpg,AMNE15.jpg,MN,1,num_6,16,num_6,,,1.38343276805,2017_Apr_03_1448,60.0053311685,MAFE4ImagesEEG,001,200032,
AFNE01.JPG,AFNE01.JPG,AFNE01.JPG,AFNE01.JPG,AFNE01.JPG,AFNE01.JPG,2,8,28,3,,,,,,,,,,,,,,,,,,,,,,,AMNE05.jpg,AMNE20.jpg,AMSA12.jpg,AMSA02.jpg,AMSA12.jpg,MS,2,num_2,32,num_8,,,2.11666810466,2017_Apr_03_1448,60.0053311685,MAFE4ImagesEEG,001,200032,
AFNE01.JPG,AFNE01.JPG,AFNE01.JPG,AFNE01.JPG,AFNE01.JPG,AFNE01.JPG,2,9,29,7,,,,,,,,,,,,,,,,,,,,,,,AMNE16.jpg,AMSA09.jpg,AMSA06.jpg,AMNE12.jpg,AMNE12.jpg,MN,1,num_4,16,num_4,,,1.98335232656,2017_Apr_03_1448,60.0053311685,MAFE4ImagesEEG,001,200032,
AFNE01.JPG,AFNE01.JPG,AFNE01.JPG,AFNE01.JPG,AFNE01.JPG,AFNE01.JPG,3,0,30,9,,,,,,,,,,,,,,,,,,,,,,,AMSA02.jpg,AMSA19.jpg,AMNE18.jpg,AMNE02.jpg,AMSA19.jpg,MS,2,num_6,48,None,,,,2017_Apr_03_1448,60.0053311685,MAFE4ImagesEEG,001,200032,
AFNE01.JPG,AFNE01.JPG,AFNE01.JPG,AFNE01.JPG,AFNE01.JPG,AFNE01.JPG,3,1,31,6,,,,,,,,,,,,,,,,,,,,,,,AMSA15.jpg,AMSA04.jpg,AMNE16.jpg,AMNE18.jpg,AMNE18.jpg,MN,1,num_4,16,num_4,,,1.7833987053,2017_Apr_03_1448,60.0053311685,MAFE4ImagesEEG,001,200032,
AFNE01.JPG,AFNE01.JPG,AFNE01.JPG,AFNE01.JPG,AFNE01.JPG,AFNE01.JPG,3,2,32,8,,,,,,,,,,,,,,,,,,,,,,,AMSA01.jpg,AMNE04.jpg,AMSA10.jpg,AMNE13.jpg,AMNE04.jpg,MN,1,num_6,16,num_6,,,1.35010278085,2017_Apr_03_1448,60.0053311685,MAFE4ImagesEEG,001,200032,
AFNE01.JPG,AFNE01.JPG,AFNE01.JPG,AFNE01.JPG,AFNE01.JPG,AFNE01.JPG,3,3,33,4,,,,,,,,,,,,,,,,,,,,,,,AMNE03.jpg,AMSA01.jpg,AMNE17.jpg,AMSA10.jpg,AMNE03.jpg,MN,1,num_8,32,num_4,,,0.966735443799,2017_Apr_03_1448,60.0053311685,MAFE4ImagesEEG,001,200032,
AFNE01.JPG,AFNE01.JPG,AFNE01.JPG,AFNE01.JPG,AFNE01.JPG,AFNE01.JPG,3,4,34,1,,,,,,,,,,,,,,,,,,,,,,,AMNE10.jpg,AMSA06.jpg,AMSA04.jpg,AMNE17.jpg,AMNE17.jpg,MN,1,num_4,16,num_4,,,1.11677491106,2017_Apr_03_1448,60.0053311685,MAFE4ImagesEEG,001,200032,
AFNE01.JPG,AFNE01.JPG,AFNE01.JPG,AFNE01.JPG,AFNE01.JPG,AFNE01.JPG,3,5,35,3,,,,,,,,,,,,,,,,,,,,,,,AMSA20.jpg,AMSA04.jpg,AMNE01.jpg,AMNE04.jpg,AMSA20.jpg,MS,2,num_8,16,num_8,,,1.01660405309,2017_Apr_03_1448,60.0053311685,MAFE4ImagesEEG,001,200032,
AFNE01.JPG,AFNE01.JPG,AFNE01.JPG,AFNE01.JPG,AFNE01.JPG,AFNE01.JPG,3,6,36,2,,,,,,,,,,,,,,,,,,,,,,,AMSA15.jpg,AMNE05.jpg,AMNE18.jpg,AMSA05.jpg,AMSA05.jpg,MS,2,num_4,16,num_4,,,1.70005802182,2017_Apr_03_1448,60.0053311685,MAFE4ImagesEEG,001,200032,
AFNE01.JPG,AFNE01.JPG,AFNE01.JPG,AFNE01.JPG,AFNE01.JPG,AFNE01.JPG,3,7,37,7,,,,,,,,,,,,,,,,,,,,,,,AMNE03.jpg,AMSA02.jpg,AMNE13.jpg,AMSA06.jpg,AMNE03.jpg,MN,1,num_8,32,num_6,,,1.10014359513,2017_Apr_03_1448,60.0053311685,MAFE4ImagesEEG,001,200032,
AFNE01.JPG,AFNE01.JPG,AFNE01.JPG,AFNE01.JPG,AFNE01.JPG,AFNE01.JPG,3,8,38,0,,,,,,,,,,,,,,,,,,,,,,,AMNE06.jpg,AMNE11.jpg,AMSA17.jpg,AMSA02.jpg,AMSA17.jpg,MS,2,num_2,32,num_4,,,1.16676924983,2017_Apr_03_1448,60.0053311685,MAFE4ImagesEEG,001,200032,
AFNE01.JPG,AFNE01.JPG,AFNE01.JPG,AFNE01.JPG,AFNE01.JPG,AFNE01.JPG,3,9,39,5,,,,,,,,,,,,,,,,,,,,,,,AMNE18.jpg,AMSA18.jpg,AMNE09.jpg,AMSA06.jpg,AMNE18.jpg,MN,1,num_8,32,num_4,,,1.10010446492,2017_Apr_03_1448,60.0053311685,MAFE4ImagesEEG,001,200032,
AFNE01.JPG,AFNE01.JPG,AFNE01.JPG,AFNE01.JPG,AFNE01.JPG,AFNE01.JPG,4,0,40,2,,,,,,,,,,,,,,,,,,,,,,,AMNE02.jpg,AMNE11.jpg,AMSA08.jpg,AMSA20.jpg,AMNE11.jpg,MN,1,num_6,16,num_6,,,0.766762578627,2017_Apr_03_1448,60.0053311685,MAFE4ImagesEEG,001,200032,
AFNE01.JPG,AFNE01.JPG,AFNE01.JPG,AFNE01.JPG,AFNE01.JPG,AFNE01.JPG,4,1,41,0,,,,,,,,,,,,,,,,,,,,,,,AMSA01.jpg,AMNE20.jpg,AMSA07.jpg,AMNE06.jpg,AMSA01.jpg,MS,2,num_8,16,num_8,,,1.25012597046,2017_Apr_03_1448,60.0053311685,MAFE4ImagesEEG,001,200032,
AFNE01.JPG,AFNE01.JPG,AFNE01.JPG,AFNE01.JPG,AFNE01.JPG,AFNE01.JPG,4,2,42,1,,,,,,,,,,,,,,,,,,,,,,,AMNE01.jpg,AMSA13.jpg,AMSA19.jpg,AMNE06.jpg,AMSA19.jpg,MS,2,num_2,32,num_4,,,1.38340999559,2017_Apr_03_1448,60.0053311685,MAFE4ImagesEEG,001,200032,
AFNE01.JPG,AFNE01.JPG,AFNE01.JPG,AFNE01.JPG,AFNE01.JPG,AFNE01.JPG,4,3,43,4,,,,,,,,,,,,,,,,,,,,,,,AMNE11.jpg,AMSA14.jpg,AMNE09.jpg,AMSA16.jpg,AMNE11.jpg,MN,1,num_8,16,num_8,,,1.33346088091,2017_Apr_03_1448,60.0053311685,MAFE4ImagesEEG,001,200032,
AFNE01.JPG,AFNE01.JPG,AFNE01.JPG,AFNE01.JPG,AFNE01.JPG,AFNE01.JPG,4,4,44,5,,,,,,,,,,,,,,,,,,,,,,,AMSA07.jpg,AMSA05.jpg,AMNE03.jpg,AMNE11.jpg,AMNE03.jpg,MN,1,num_2,32,num_4,,,1.89995551342,2017_Apr_03_1448,60.0053311685,MAFE4ImagesEEG,001,200032,
AFNE01.JPG,AFNE01.JPG,AFNE01.JPG,AFNE01.JPG,AFNE01.JPG,AFNE01.JPG,4,5,45,3,,,,,,,,,,,,,,,,,,,,,,,AMNE18.jpg,AMSA13.jpg,AMNE03.jpg,AMSA20.jpg,AMSA20.jpg,MS,2,num_4,32,num_8,,,1.98336964636,2017_Apr_03_1448,60.0053311685,MAFE4ImagesEEG,001,200032,
AFNE01.JPG,AFNE01.JPG,AFNE01.JPG,AFNE01.JPG,AFNE01.JPG,AFNE01.JPG,4,6,46,7,,,,,,,,,,,,,,,,,,,,,,,AMSA15.jpg,AMSA09.jpg,AMNE02.jpg,AMNE08.jpg,AMSA09.jpg,MS,2,num_6,32,num_4,,,1.06681200466,2017_Apr_03_1448,60.0053311685,MAFE4ImagesEEG,001,200032,
AFNE01.JPG,AFNE01.JPG,AFNE01.JPG,AFNE01.JPG,AFNE01.JPG,AFNE01.JPG,4,7,47,9,,,,,,,,,,,,,,,,,,,,,,,AMNE04.jpg,AMNE14.jpg,AMSA15.jpg,AMSA20.jpg,AMSA15.jpg,MS,2,num_2,32,num_6,,,1.48345512338,2017_Apr_03_1448,60.0053311685,MAFE4ImagesEEG,001,200032,
AFNE01.JPG,AFNE01.JPG,AFNE01.JPG,AFNE01.JPG,AFNE01.JPG,AFNE01.JPG,4,8,48,8,,,,,,,,,,,,,,,,,,,,,,,AMSA01.jpg,AMNE05.jpg,AMSA07.jpg,AMNE13.jpg,AMSA01.jpg,MS,2,num_8,32,num_4,,,1.23374386923,2017_Apr_03_1448,60.0053311685,MAFE4ImagesEEG,001,200032,
AFNE01.JPG,AFNE01.JPG,AFNE01.JPG,AFNE01.JPG,AFNE01.JPG,AFNE01.JPG,4,9,49,6,,,,,,,,,,,,,,,,,,,,,,,AMNE09.jpg,AMNE03.jpg,AMSA12.jpg,AMSA06.jpg,AMNE03.jpg,MN,1,num_6,32,num_2,,,1.16668842337,2017_Apr_03_1448,60.0053311685,MAFE4ImagesEEG,001,200032,
AFNE01.JPG,AFNE01.JPG,AFNE01.JPG,AFNE01.JPG,AFNE01.JPG,AFNE01.JPG,5,0,50,8,,,,,,,,,,,,,,,,,,,,,,,AMSA09.jpg,AMSA16.jpg,AMNE01.jpg,AMNE05.jpg,AMSA16.jpg,MS,2,num_6,32,num_8,,,1.45006195083,2017_Apr_03_1448,60.0053311685,MAFE4ImagesEEG,001,200032,
AFNE01.JPG,AFNE01.JPG,AFNE01.JPG,AFNE01.JPG,AFNE01.JPG,AFNE01.JPG,5,1,51,5,,,,,,,,,,,,,,,,,,,,,,,AMNE12.jpg,AMSA06.jpg,AMSA04.jpg,AMNE11.jpg,AMSA04.jpg,MS,2,num_2,32,num_4,,,1.30008983915,2017_Apr_03_1448,60.0053311685,MAFE4ImagesEEG,001,200032,
AFNE01.JPG,AFNE01.JPG,AFNE01.JPG,AFNE01.JPG,AFNE01.JPG,AFNE01.JPG,5,2,52,2,,,,,,,,,,,,,,,,,,,,,,,AMSA11.jpg,AMSA04.jpg,AMNE20.jpg,AMNE03.jpg,AMNE20.jpg,MN,1,num_2,16,num_2,,,3.28328789002,2017_Apr_03_1448,60.0053311685,MAFE4ImagesEEG,001,200032,
AFNE01.JPG,AFNE01.JPG,AFNE01.JPG,AFNE01.JPG,AFNE01.JPG,AFNE01.JPG,5,3,53,4,,,,,,,,,,,,,,,,,,,,,,,AMNE12.jpg,AMSA06.jpg,AMSA14.jpg,AMNE16.jpg,AMNE12.jpg,MN,1,num_8,16,num_8,,,3.44996059733,2017_Apr_03_1448,60.0053311685,MAFE4ImagesEEG,001,200032,
AFNE01.JPG,AFNE01.JPG,AFNE01.JPG,AFNE01.JPG,AFNE01.JPG,AFNE01.JPG,5,4,54,9,,,,,,,,,,,,,,,,,,,,,,,AMSA20.jpg,AMSA17.jpg,AMNE09.jpg,AMNE10.jpg,AMNE09.jpg,MN,1,num_2,32,num_4,,,0.516799543751,2017_Apr_03_1448,60.0053311685,MAFE4ImagesEEG,001,200032,
AFNE01.JPG,AFNE01.JPG,AFNE01.JPG,AFNE01.JPG,AFNE01.JPG,AFNE01.JPG,5,5,55,1,,,,,,,,,,,,,,,,,,,,,,,AMNE14.jpg,AMNE19.jpg,AMSA10.jpg,AMSA03.jpg,AMNE19.jpg,MN,1,num_6,32,num_2,,,1.10013140715,2017_Apr_03_1448,60.0053311685,MAFE4ImagesEEG,001,200032,
AFNE01.JPG,AFNE01.JPG,AFNE01.JPG,AFNE01.JPG,AFNE01.JPG,AFNE01.JPG,5,6,56,3,,,,,,,,,,,,,,,,,,,,,,,AMSA01.jpg,AMSA15.jpg,AMNE11.jpg,AMNE14.jpg,AMSA15.jpg,MS,2,num_6,16,num_6,,,1.9834283418,2017_Apr_03_1448,60.0053311685,MAFE4ImagesEEG,001,200032,
AFNE01.JPG,AFNE01.JPG,AFNE01.JPG,AFNE01.JPG,AFNE01.JPG,AFNE01.JPG,5,7,57,6,,,,,,,,,,,,,,,,,,,,,,,AMNE05.jpg,AMSA08.jpg,AMNE03.jpg,AMSA03.jpg,AMNE05.jpg,MN,1,num_8,32,num_6,,,1.16658386239,2017_Apr_03_1448,60.0053311685,MAFE4ImagesEEG,001,200032,
AFNE01.JPG,AFNE01.JPG,AFNE01.JPG,AFNE01.JPG,AFNE01.JPG,AFNE01.JPG,5,8,58,7,,,,,,,,,,,,,,,,,,,,,,,AMNE10.jpg,AMNE13.jpg,AMSA07.jpg,AMSA12.jpg,AMSA07.jpg,MS,2,num_2,32,num_8,,,0.833440513816,2017_Apr_03_1448,60.0053311685,MAFE4ImagesEEG,001,200032,
AFNE01.JPG,AFNE01.JPG,AFNE01.JPG,AFNE01.JPG,AFNE01.JPG,AFNE01.JPG,5,9,59,0,,,,,,,,,,,,,,,,,,,,,,,AMNE17.jpg,AMSA07.jpg,AMSA17.jpg,AMNE19.jpg,AMSA07.jpg,MS,2,num_6,32,num_2,,,0.58352174121,2017_Apr_03_1448,60.0053311685,MAFE4ImagesEEG,001,200032,
,,,,,,,,,,,,,,,,,,,,,,,,,,,,,,,,,,,,,,,,,,space,27.3813409037,,2017_Apr_03_1448,60.0053311685,MAFE4ImagesEEG,001,200032,
AFNE01.JPG,AFNE01.JPG,AFNE01.JPG,AFNE01.JPG,AFNE01.JPG,AFNE01.JPG,,,,,0,0,0,6,,,,,,,,,,,,,,,,,,,AFSA05.jpg,AFNE17.jpg,AFSA09.jpg,AFNE15.jpg,AFNE17.jpg,FN,3,num_6,32,num_8,,,1.08344845218,2017_Apr_03_1448,60.0053311685,MAFE4ImagesEEG,001,200032,
AFNE01.JPG,AFNE01.JPG,AFNE01.JPG,AFNE01.JPG,AFNE01.JPG,AFNE01.JPG,,,,,0,1,1,8,,,,,,,,,,,,,,,,,,,AFNE06.jpg,AFSA04.jpg,AFSA18.jpg,AFNE03.jpg,AFSA18.jpg,FS,4,num_2,32,num_4,,,1.46670513391,2017_Apr_03_1448,60.0053311685,MAFE4ImagesEEG,001,200032,
AFNE01.JPG,AFNE01.JPG,AFNE01.JPG,AFNE01.JPG,AFNE01.JPG,AFNE01.JPG,,,,,0,2,2,3,,,,,,,,,,,,,,,,,,,AFSA18.jpg,AFNE15.jpg,AFSA20.jpg,AFNE02.jpg,AFNE15.jpg,FN,3,num_6,32,num_2,,,2.25000408944,2017_Apr_03_1448,60.0053311685,MAFE4ImagesEEG,001,200032,
AFNE01.JPG,AFNE01.JPG,AFNE01.JPG,AFNE01.JPG,AFNE01.JPG,AFNE01.JPG,,,,,0,3,3,5,,,,,,,,,,,,,,,,,,,AFSA17.jpg,AFNE13.jpg,AFSA12.jpg,AFNE15.jpg,AFNE15.jpg,FN,3,num_4,16,num_4,,,0.733492249157,2017_Apr_03_1448,60.0053311685,MAFE4ImagesEEG,001,200032,
AFNE01.JPG,AFNE01.JPG,AFNE01.JPG,AFNE01.JPG,AFNE01.JPG,AFNE01.JPG,,,,,0,4,4,4,,,,,,,,,,,,,,,,,,,AFSA19.jpg,AFNE10.jpg,AFNE20.jpg,AFSA04.jpg,AFSA04.jpg,FS,4,num_4,32,num_6,,,0.600104945945,2017_Apr_03_1448,60.0053311685,MAFE4ImagesEEG,001,200032,
AFNE01.JPG,AFNE01.JPG,AFNE01.JPG,AFNE01.JPG,AFNE01.JPG,AFNE01.JPG,,,,,0,5,5,9,,,,,,,,,,,,,,,,,,,AFSA15.jpg,AFSA07.jpg,AFNE13.jpg,AFNE04.jpg,AFNE13.jpg,FN,3,num_2,32,num_4,,,0.516841239994,2017_Apr_03_1448,60.0053311685,MAFE4ImagesEEG,001,200032,
AFNE01.JPG,AFNE01.JPG,AFNE01.JPG,AFNE01.JPG,AFNE01.JPG,AFNE01.JPG,,,,,0,6,6,0,,,,,,,,,,,,,,,,,,,AFNE15.jpg,AFNE13.jpg,AFSA02.jpg,AFSA06.jpg,AFSA02.jpg,FS,4,num_2,32,num_8,,,0.766789841466,2017_Apr_03_1448,60.0053311685,MAFE4ImagesEEG,001,200032,
AFNE01.JPG,AFNE01.JPG,AFNE01.JPG,AFNE01.JPG,AFNE01.JPG,AFNE01.JPG,,,,,0,7,7,1,,,,,,,,,,,,,,,,,,,AFSA07.jpg,AFNE16.jpg,AFNE15.jpg,AFSA10.jpg,AFSA07.jpg,FS,4,num_8,32,num_4,,,0.600373084424,2017_Apr_03_1448,60.0053311685,MAFE4ImagesEEG,001,200032,
AFNE01.JPG,AFNE01.JPG,AFNE01.JPG,AFNE01.JPG,AFNE01.JPG,AFNE01.JPG,,,,,0,8,8,2,,,,,,,,,,,,,,,,,,,AFSA16.jpg,AFNE13.jpg,AFNE12.jpg,AFSA05.jpg,AFSA05.jpg,FS,4,num_4,32,num_8,,,1.58337131422,2017_Apr_03_1448,60.0053311685,MAFE4ImagesEEG,001,200032,
AFNE01.JPG,AFNE01.JPG,AFNE01.JPG,AFNE01.JPG,AFNE01.JPG,AFNE01.JPG,,,,,0,9,9,7,,,,,,,,,,,,,,,,,,,AFNE20.jpg,AFNE13.jpg,AFSA05.jpg,AFSA09.jpg,AFSA05.jpg,FS,4,num_2,32,num_4,,,0.93345068139,2017_Apr_03_1448,60.0053311685,MAFE4ImagesEEG,001,200032,
AFNE01.JPG,AFNE01.JPG,AFNE01.JPG,AFNE01.JPG,AFNE01.JPG,AFNE01.JPG,,,,,1,0,10,9,,,,,,,,,,,,,,,,,,,AFSA14.jpg,AFNE17.jpg,AFNE05.jpg,AFSA06.jpg,AFNE05.jpg,FN,3,num_2,32,num_8,,,1.51671615127,2017_Apr_03_1448,60.0053311685,MAFE4ImagesEEG,001,200032,
AFNE01.JPG,AFNE01.JPG,AFNE01.JPG,AFNE01.JPG,AFNE01.JPG,AFNE01.JPG,,,,,1,1,11,1,,,,,,,,,,,,,,,,,,,AFNE11.jpg,AFSA17.jpg,AFNE15.jpg,AFSA12.jpg,AFSA17.jpg,FS,4,num_6,32,num_4,,,1.5500490251,2017_Apr_03_1448,60.0053311685,MAFE4ImagesEEG,001,200032,
AFNE01.JPG,AFNE01.JPG,AFNE01.JPG,AFNE01.JPG,AFNE01.JPG,AFNE01.JPG,,,,,1,2,12,3,,,,,,,,,,,,,,,,,,,AFNE13.jpg,AFSA09.jpg,AFSA19.jpg,AFNE11.jpg,AFSA19.jpg,FS,4,num_2,32,num_8,,,1.6000347042,2017_Apr_03_1448,60.0053311685,MAFE4ImagesEEG,001,200032,
AFNE01.JPG,AFNE01.JPG,AFNE01.JPG,AFNE01.JPG,AFNE01.JPG,AFNE01.JPG,,,,,1,3,13,6,,,,,,,,,,,,,,,,,,,AFNE19.jpg,AFSA15.jpg,AFSA09.jpg,AFNE18.jpg,AFSA09.jpg,FS,4,num_2,32,num_4,,,1.41672170023,2017_Apr_03_1448,60.0053311685,MAFE4ImagesEEG,001,200032,
AFNE01.JPG,AFNE01.JPG,AFNE01.JPG,AFNE01.JPG,AFNE01.JPG,AFNE01.JPG,,,,,1,4,14,2,,,,,,,,,,,,,,,,,,,AFSA06.jpg,AFNE12.jpg,AFNE05.jpg,AFSA16.jpg,AFNE05.jpg,FN,3,num_2,32,num_4,,,1.00010488182,2017_Apr_03_1448,60.0053311685,MAFE4ImagesEEG,001,200032,
AFNE01.JPG,AFNE01.JPG,AFNE01.JPG,AFNE01.JPG,AFNE01.JPG,AFNE01.JPG,,,,,1,5,15,4,,,,,,,,,,,,,,,,,,,AFNE10.jpg,AFSA18.jpg,AFSA09.jpg,AFNE19.jpg,AFNE19.jpg,FN,3,num_4,32,num_8,,,1.80007781135,2017_Apr_03_1448,60.0053311685,MAFE4ImagesEEG,001,200032,
AFNE01.JPG,AFNE01.JPG,AFNE01.JPG,AFNE01.JPG,AFNE01.JPG,AFNE01.JPG,,,,,1,6,16,7,,,,,,,,,,,,,,,,,,,AFNE15.jpg,AFSA16.jpg,AFNE13.jpg,AFSA02.jpg,AFSA16.jpg,FS,4,num_6,32,num_4,,,1.36672928557,2017_Apr_03_1448,60.0053311685,MAFE4ImagesEEG,001,200032,
AFNE01.JPG,AFNE01.JPG,AFNE01.JPG,AFNE01.JPG,AFNE01.JPG,AFNE01.JPG,,,,,1,7,17,0,,,,,,,,,,,,,,,,,,,AFNE05.jpg,AFSA10.jpg,AFNE09.jpg,AFSA14.jpg,AFNE09.jpg,FN,3,num_2,16,num_2,,,1.43344442686,2017_Apr_03_1448,60.0053311685,MAFE4ImagesEEG,001,200032,
AFNE01.JPG,AFNE01.JPG,AFNE01.JPG,AFNE01.JPG,AFNE01.JPG,AFNE01.JPG,,,,,1,8,18,8,,,,,,,,,,,,,,,,,,,AFNE10.jpg,AFSA08.jpg,AFNE01.jpg,AFSA12.jpg,AFSA12.jpg,FS,4,num_4,32,num_6,,,1.53340552119,2017_Apr_03_1448,60.0053311685,MAFE4ImagesEEG,001,200032,
AFNE01.JPG,AFNE01.JPG,AFNE01.JPG,AFNE01.JPG,AFNE01.JPG,AFNE01.JPG,,,,,1,9,19,5,,,,,,,,,,,,,,,,,,,AFSA13.jpg,AFNE07.jpg,AFSA11.jpg,AFNE02.jpg,AFSA13.jpg,FS,4,num_8,32,num_4,,,1.60034582159,2017_Apr_03_1448,60.0053311685,MAFE4ImagesEEG,001,200032,
AFNE01.JPG,AFNE01.JPG,AFNE01.JPG,AFNE01.JPG,AFNE01.JPG,AFNE01.JPG,,,,,2,0,20,2,,,,,,,,,,,,,,,,,,,AFSA04.jpg,AFNE20.jpg,AFNE18.jpg,AFSA01.jpg,AFSA01.jpg,FS,4,num_4,16,num_4,,,1.0166345234,2017_Apr_03_1448,60.0053311685,MAFE4ImagesEEG,001,200032,
AFNE01.JPG,AFNE01.JPG,AFNE01.JPG,AFNE01.JPG,AFNE01.JPG,AFNE01.JPG,,,,,2,1,21,3,,,,,,,,,,,,,,,,,,,AFNE20.jpg,AFSA17.jpg,AFNE13.jpg,AFSA01.jpg,AFNE13.jpg,FN,3,num_2,16,num_2,,,1.7833730462,2017_Apr_03_1448,60.0053311685,MAFE4ImagesEEG,001,200032,
AFNE01.JPG,AFNE01.JPG,AFNE01.JPG,AFNE01.JPG,AFNE01.JPG,AFNE01.JPG,,,,,2,2,22,6,,,,,,,,,,,,,,,,,,,AFNE06.jpg,AFNE08.jpg,AFSA13.jpg,AFSA18.jpg,AFNE08.jpg,FN,3,num_6,32,num_8,,,1.41670470103,2017_Apr_03_1448,60.0053311685,MAFE4ImagesEEG,001,200032,
AFNE01.JPG,AFNE01.JPG,AFNE01.JPG,AFNE01.JPG,AFNE01.JPG,AFNE01.JPG,,,,,2,3,23,5,,,,,,,,,,,,,,,,,,,AFSA20.jpg,AFSA14.jpg,AFNE13.jpg,AFNE12.jpg,AFSA20.jpg,FS,4,num_8,32,num_4,,,1.3000609728,2017_Apr_03_1448,60.0053311685,MAFE4ImagesEEG,001,200032,
AFNE01.JPG,AFNE01.JPG,AFNE01.JPG,AFNE01.JPG,AFNE01.JPG,AFNE01.JPG,,,,,2,4,24,1,,,,,,,,,,,,,,,,,,,AFSA15.jpg,AFSA17.jpg,AFNE06.jpg,AFNE10.jpg,AFNE10.jpg,FN,3,num_4,32,num_6,,,2.28331258683,2017_Apr_03_1448,60.0053311685,MAFE4ImagesEEG,001,200032,
AFNE01.JPG,AFNE01.JPG,AFNE01.JPG,AFNE01.JPG,AFNE01.JPG,AFNE01.JPG,,,,,2,5,25,9,,,,,,,,,,,,,,,,,,,AFNE19.jpg,AFSA09.jpg,AFSA14.jpg,AFNE02.jpg,AFNE19.jpg,FN,3,num_8,16,num_8,,,1.59990095557,2017_Apr_03_1448,60.0053311685,MAFE4ImagesEEG,001,200032,
AFNE01.JPG,AFNE01.JPG,AFNE01.JPG,AFNE01.JPG,AFNE01.JPG,AFNE01.JPG,,,,,2,6,26,4,,,,,,,,,,,,,,,,,,,AFSA04.jpg,AFNE19.jpg,AFSA01.jpg,AFNE03.jpg,AFNE19.jpg,FN,3,num_6,32,num_4,,,3.53296354203,2017_Apr_03_1448,60.0053311685,MAFE4ImagesEEG,001,200032,
AFNE01.JPG,AFNE01.JPG,AFNE01.JPG,AFNE01.JPG,AFNE01.JPG,AFNE01.JPG,,,,,2,7,27,0,,,,,,,,,,,,,,,,,,,AFSA17.jpg,AFNE07.jpg,AFNE05.jpg,AFSA13.jpg,AFNE05.jpg,FN,3,num_2,32,num_6,,,1.53338242811,2017_Apr_03_1448,60.0053311685,MAFE4ImagesEEG,001,200032,
AFNE01.JPG,AFNE01.JPG,AFNE01.JPG,AFNE01.JPG,AFNE01.JPG,AFNE01.JPG,,,,,2,8,28,7,,,,,,,,,,,,,,,,,,,AFSA05.jpg,AFNE02.jpg,AFNE12.jpg,AFSA06.jpg,AFNE12.jpg,FN,3,num_2,32,num_8,,,2.01671374589,2017_Apr_03_1448,60.0053311685,MAFE4ImagesEEG,001,200032,
AFNE01.JPG,AFNE01.JPG,AFNE01.JPG,AFNE01.JPG,AFNE01.JPG,AFNE01.JPG,,,,,2,9,29,8,,,,,,,,,,,,,,,,,,,AFNE18.jpg,AFSA12.jpg,AFNE06.jpg,AFSA05.jpg,AFSA12.jpg,FS,4,num_6,16,num_6,,,0.75009373622,2017_Apr_03_1448,60.0053311685,MAFE4ImagesEEG,001,200032,
AFNE01.JPG,AFNE01.JPG,AFNE01.JPG,AFNE01.JPG,AFNE01.JPG,AFNE01.JPG,,,,,3,0,30,5,,,,,,,,,,,,,,,,,,,AFSA15.jpg,AFNE12.jpg,AFNE04.jpg,AFSA02.jpg,AFSA15.jpg,FS,4,num_8,16,num_8,,,1.68339206628,2017_Apr_03_1448,60.0053311685,MAFE4ImagesEEG,001,200032,
AFNE01.JPG,AFNE01.JPG,AFNE01.JPG,AFNE01.JPG,AFNE01.JPG,AFNE01.JPG,,,,,3,1,31,3,,,,,,,,,,,,,,,,,,,AFSA02.jpg,AFNE05.jpg,AFNE14.jpg,AFSA05.jpg,AFNE05.jpg,FN,3,num_6,32,num_4,,,3.89987340383,2017_Apr_03_1448,60.0053311685,MAFE4ImagesEEG,001,200032,
AFNE01.JPG,AFNE01.JPG,AFNE01.JPG,AFNE01.JPG,AFNE01.JPG,AFNE01.JPG,,,,,3,2,32,6,,,,,,,,,,,,,,,,,,,AFNE09.jpg,AFNE03.jpg,AFSA07.jpg,AFSA20.jpg,AFSA20.jpg,FS,4,num_4,32,num_2,,,3.21659167251,2017_Apr_03_1448,60.0053311685,MAFE4ImagesEEG,001,200032,
AFNE01.JPG,AFNE01.JPG,AFNE01.JPG,AFNE01.JPG,AFNE01.JPG,AFNE01.JPG,,,,,3,3,33,4,,,,,,,,,,,,,,,,,,,AFNE17.jpg,AFSA15.jpg,AFSA04.jpg,AFNE12.jpg,AFSA04.jpg,FS,4,num_2,16,num_2,,,1.31673879572,2017_Apr_03_1448,60.0053311685,MAFE4ImagesEEG,001,200032,
AFNE01.JPG,AFNE01.JPG,AFNE01.JPG,AFNE01.JPG,AFNE01.JPG,AFNE01.JPG,,,,,3,4,34,1,,,,,,,,,,,,,,,,,,,AFNE16.jpg,AFSA07.jpg,AFNE02.jpg,AFSA16.jpg,AFSA07.jpg,FS,4,num_6,32,num_4,,,0.816768464167,2017_Apr_03_1448,60.0053311685,MAFE4ImagesEEG,001,200032,
AFNE01.JPG,AFNE01.JPG,AFNE01.JPG,AFNE01.JPG,AFNE01.JPG,AFNE01.JPG,,,,,3,5,35,9,,,,,,,,,,,,,,,,,,,AFSA19.jpg,AFNE20.jpg,AFNE16.jpg,AFSA16.jpg,AFSA16.jpg,FS,4,num_4,16,num_4,,,0.750130621251,2017_Apr_03_1448,60.0053311685,MAFE4ImagesEEG,001,200032,
AFNE01.JPG,AFNE01.JPG,AFNE01.JPG,AFNE01.JPG,AFNE01.JPG,AFNE01.JPG,,,,,3,6,36,0,,,,,,,,,,,,,,,,,,,AFNE05.jpg,AFSA15.jpg,AFNE18.jpg,AFSA08.jpg,AFNE18.jpg,FN,3,num_2,32,num_4,,,0.750135753071,2017_Apr_03_1448,60.0053311685,MAFE4ImagesEEG,001,200032,
AFNE01.JPG,AFNE01.JPG,AFNE01.JPG,AFNE01.JPG,AFNE01.JPG,AFNE01.JPG,,,,,3,7,37,8,,,,,,,,,,,,,,,,,,,AFSA07.jpg,AFSA06.jpg,AFNE19.jpg,AFNE10.jpg,AFNE19.jpg,FN,3,num_2,32,num_4,,,0.5501401152,2017_Apr_03_1448,60.0053311685,MAFE4ImagesEEG,001,200032,
AFNE01.JPG,AFNE01.JPG,AFNE01.JPG,AFNE01.JPG,AFNE01.JPG,AFNE01.JPG,,,,,3,8,38,2,,,,,,,,,,,,,,,,,,,AFNE07.jpg,AFSA02.jpg,AFNE20.jpg,AFSA03.jpg,AFNE07.jpg,FN,3,num_8,32,num_4,,,0.600158188725,2017_Apr_03_1448,60.0053311685,MAFE4ImagesEEG,001,200032,
AFNE01.JPG,AFNE01.JPG,AFNE01.JPG,AFNE01.JPG,AFNE01.JPG,AFNE01.JPG,,,,,3,9,39,7,,,,,,,,,,,,,,,,,,,AFNE08.jpg,AFSA11.jpg,AFSA01.jpg,AFNE19.jpg,AFNE19.jpg,FN,3,num_4,32,num_8,,,1.05034619034,2017_Apr_03_1448,60.0053311685,MAFE4ImagesEEG,001,200032,
AFNE01.JPG,AFNE01.JPG,AFNE01.JPG,AFNE01.JPG,AFNE01.JPG,AFNE01.JPG,,,,,4,0,40,2,,,,,,,,,,,,,,,,,,,AFSA07.jpg,AFSA05.jpg,AFNE19.jpg,AFNE08.jpg,AFSA07.jpg,FS,4,num_8,32,num_4,,,0.900109789334,2017_Apr_03_1448,60.0053311685,MAFE4ImagesEEG,001,200032,
AFNE01.JPG,AFNE01.JPG,AFNE01.JPG,AFNE01.JPG,AFNE01.JPG,AFNE01.JPG,,,,,4,1,41,7,,,,,,,,,,,,,,,,,,,AFNE03.jpg,AFSA11.jpg,AFNE01.jpg,AFSA19.jpg,AFSA19.jpg,FS,4,num_4,32,num_8,,,0.816769426223,2017_Apr_03_1448,60.0053311685,MAFE4ImagesEEG,001,200032,
AFNE01.JPG,AFNE01.JPG,AFNE01.JPG,AFNE01.JPG,AFNE01.JPG,AFNE01.JPG,,,,,4,2,42,3,,,,,,,,,,,,,,,,,,,AFNE03.jpg,AFSA07.jpg,AFSA12.jpg,AFNE11.jpg,AFNE11.jpg,FN,3,num_4,32,num_6,,,1.53343406692,2017_Apr_03_1448,60.0053311685,MAFE4ImagesEEG,001,200032,
AFNE01.JPG,AFNE01.JPG,AFNE01.JPG,AFNE01.JPG,AFNE01.JPG,AFNE01.JPG,,,,,4,3,43,0,,,,,,,,,,,,,,,,,,,AFNE14.jpg,AFNE15.jpg,AFSA11.jpg,AFSA17.jpg,AFSA11.jpg,FS,4,num_2,32,num_4,,,0.73352753045,2017_Apr_03_1448,60.0053311685,MAFE4ImagesEEG,001,200032,
AFNE01.JPG,AFNE01.JPG,AFNE01.JPG,AFNE01.JPG,AFNE01.JPG,AFNE01.JPG,,,,,4,4,44,5,,,,,,,,,,,,,,,,,,,AFSA04.jpg,AFNE03.jpg,AFNE19.jpg,AFSA03.jpg,AFSA03.jpg,FS,4,num_4,32,num_6,,,0.900166880805,2017_Apr_03_1448,60.0053311685,MAFE4ImagesEEG,001,200032,
AFNE01.JPG,AFNE01.JPG,AFNE01.JPG,AFNE01.JPG,AFNE01.JPG,AFNE01.JPG,,,,,4,5,45,1,,,,,,,,,,,,,,,,,,,AFNE04.jpg,AFNE10.jpg,AFSA02.jpg,AFSA04.jpg,AFNE10.jpg,FN,3,num_6,32,num_2,,,1.45004880056,2017_Apr_03_1448,60.0053311685,MAFE4ImagesEEG,001,200032,
AFNE01.JPG,AFNE01.JPG,AFNE01.JPG,AFNE01.JPG,AFNE01.JPG,AFNE01.JPG,,,,,4,6,46,4,,,,,,,,,,,,,,,,,,,AFNE14.jpg,AFSA03.jpg,AFNE13.jpg,AFSA13.jpg,AFSA03.jpg,FS,4,num_6,32,num_4,,,0.683471930213,2017_Apr_03_1448,60.0053311685,MAFE4ImagesEEG,001,200032,
AFNE01.JPG,AFNE01.JPG,AFNE01.JPG,AFNE01.JPG,AFNE01.JPG,AFNE01.JPG,,,,,4,7,47,9,,,,,,,,,,,,,,,,,,,AFSA20.jpg,AFSA10.jpg,AFNE03.jpg,AFNE14.jpg,AFNE03.jpg,FN,3,num_2,32,num_4,,,0.533475763164,2017_Apr_03_1448,60.0053311685,MAFE4ImagesEEG,001,200032,
AFNE01.JPG,AFNE01.JPG,AFNE01.JPG,AFNE01.JPG,AFNE01.JPG,AFNE01.JPG,,,,,4,8,48,8,,,,,,,,,,,,,,,,,,,AFNE17.jpg,AFSA01.jpg,AFNE02.jpg,AFSA06.jpg,AFSA01.jpg,FS,4,num_6,16,num_6,,,1.60002411949,2017_Apr_03_1448,60.0053311685,MAFE4ImagesEEG,001,200032,
AFNE01.JPG,AFNE01.JPG,AFNE01.JPG,AFNE01.JPG,AFNE01.JPG,AFNE01.JPG,,,,,4,9,49,6,,,,,,,,,,,,,,,,,,,AFSA20.jpg,AFSA14.jpg,AFNE07.jpg,AFNE06.jpg,AFSA14.jpg,FS,4,num_6,32,num_4,,,1.61660283408,2017_Apr_03_1448,60.0053311685,MAFE4ImagesEEG,001,200032,
AFNE01.JPG,AFNE01.JPG,AFNE01.JPG,AFNE01.JPG,AFNE01.JPG,AFNE01.JPG,,,,,5,0,50,4,,,,,,,,,,,,,,,,,,,AFNE02.jpg,AFSA11.jpg,AFNE03.jpg,AFSA16.jpg,AFSA11.jpg,FS,4,num_6,32,num_2,,,1.78341153497,2017_Apr_03_1448,60.0053311685,MAFE4ImagesEEG,001,200032,
AFNE01.JPG,AFNE01.JPG,AFNE01.JPG,AFNE01.JPG,AFNE01.JPG,AFNE01.JPG,,,,,5,1,51,3,,,,,,,,,,,,,,,,,,,AFNE06.jpg,AFNE04.jpg,AFSA12.jpg,AFSA03.jpg,AFSA03.jpg,FS,4,num_4,48,None,,,,2017_Apr_03_1448,60.0053311685,MAFE4ImagesEEG,001,200032,
AFNE01.JPG,AFNE01.JPG,AFNE01.JPG,AFNE01.JPG,AFNE01.JPG,AFNE01.JPG,,,,,5,2,52,5,,,,,,,,,,,,,,,,,,,AFSA07.jpg,AFSA20.jpg,AFNE19.jpg,AFNE11.jpg,AFSA07.jpg,FS,4,num_8,32,num_6,,,1.56670086831,2017_Apr_03_1448,60.0053311685,MAFE4ImagesEEG,001,200032,
AFNE01.JPG,AFNE01.JPG,AFNE01.JPG,AFNE01.JPG,AFNE01.JPG,AFNE01.JPG,,,,,5,3,53,7,,,,,,,,,,,,,,,,,,,AFSA19.jpg,AFSA17.jpg,AFNE07.jpg,AFNE19.jpg,AFNE19.jpg,FN,3,num_4,32,num_6,,,1.06676228973,2017_Apr_03_1448,60.0053311685,MAFE4ImagesEEG,001,200032,
AFNE01.JPG,AFNE01.JPG,AFNE01.JPG,AFNE01.JPG,AFNE01.JPG,AFNE01.JPG,,,,,5,4,54,1,,,,,,,,,,,,,,,,,,,AFSA20.jpg,AFNE13.jpg,AFNE06.jpg,AFSA06.jpg,AFSA06.jpg,FS,4,num_4,16,num_4,,,4.53319351212,2017_Apr_03_1448,60.0053311685,MAFE4ImagesEEG,001,200032,
AFNE01.JPG,AFNE01.JPG,AFNE01.JPG,AFNE01.JPG,AFNE01.JPG,AFNE01.JPG,,,,,5,5,55,2,,,,,,,,,,,,,,,,,,,AFNE19.jpg,AFSA15.jpg,AFNE20.jpg,AFSA04.jpg,AFSA04.jpg,FS,4,num_4,16,num_4,,,0.566815692931,2017_Apr_03_1448,60.0053311685,MAFE4ImagesEEG,001,200032,
AFNE01.JPG,AFNE01.JPG,AFNE01.JPG,AFNE01.JPG,AFNE01.JPG,AFNE01.JPG,,,,,5,6,56,0,,,,,,,,,,,,,,,,,,,AFNE20.jpg,AFNE01.jpg,AFSA14.jpg,AFSA19.jpg,AFSA19.jpg,FS,4,num_4,16,num_4,,,0.533533816924,2017_Apr_03_1448,60.0053311685,MAFE4ImagesEEG,001,200032,
AFNE01.JPG,AFNE01.JPG,AFNE01.JPG,AFNE01.JPG,AFNE01.JPG,AFNE01.JPG,,,,,5,7,57,8,,,,,,,,,,,,,,,,,,,AFSA16.jpg,AFNE07.jpg,AFNE13.jpg,AFSA19.jpg,AFSA16.jpg,FS,4,num_8,16,num_8,,,2.28338892292,2017_Apr_03_1448,60.0053311685,MAFE4ImagesEEG,001,200032,
AFNE01.JPG,AFNE01.JPG,AFNE01.JPG,AFNE01.JPG,AFNE01.JPG,AFNE01.JPG,,,,,5,8,58,6,,,,,,,,,,,,,,,,,,,AFSA20.jpg,AFNE03.jpg,AFSA17.jpg,AFNE16.jpg,AFNE03.jpg,FN,3,num_6,32,num_2,,,1.60035255714,2017_Apr_03_1448,60.0053311685,MAFE4ImagesEEG,001,200032,
AFNE01.JPG,AFNE01.JPG,AFNE01.JPG,AFNE01.JPG,AFNE01.JPG,AFNE01.JPG,,,,,5,9,59,9,,,,,,,,,,,,,,,,,,,AFNE13.jpg,AFNE19.jpg,AFSA13.jpg,AFSA02.jpg,AFNE13.jpg,FN,3,num_8,32,num_2,,,4.21649545059,2017_Apr_03_1448,60.0053311685,MAFE4ImagesEEG,001,200032,
,,,,,,,,,,,,,,,,,,,,,,,,,,,,,,,,,,,,,,,,,,space,21.7651928784,,2017_Apr_03_1448,60.0053311685,MAFE4ImagesEEG,001,200032,
AFNE01.JPG,AFNE01.JPG,AFNE01.JPG,AFNE01.JPG,AFNE01.JPG,AFNE01.JPG,,,,,,,,,0,0,0,1,,,,,,,,,,,,,,,AMSA16.jpg,AMNE15.jpg,AMNE14.jpg,AMSA03.jpg,AMNE14.jpg,MN,1,num_2,32,num_8,,,3.34977562656,2017_Apr_03_1448,60.0053311685,MAFE4ImagesEEG,001,200032,
AFNE01.JPG,AFNE01.JPG,AFNE01.JPG,AFNE01.JPG,AFNE01.JPG,AFNE01.JPG,,,,,,,,,0,1,1,4,,,,,,,,,,,,,,,AMSA10.jpg,AMSA01.jpg,AMNE04.jpg,AMNE10.jpg,AMNE04.jpg,MN,1,num_2,32,num_4,,,1.16678336263,2017_Apr_03_1448,60.0053311685,MAFE4ImagesEEG,001,200032,
AFNE01.JPG,AFNE01.JPG,AFNE01.JPG,AFNE01.JPG,AFNE01.JPG,AFNE01.JPG,,,,,,,,,0,2,2,9,,,,,,,,,,,,,,,AMSA17.jpg,AMSA13.jpg,AMNE17.jpg,AMNE09.jpg,AMSA13.jpg,MS,2,num_6,16,num_6,,,0.783312747255,2017_Apr_03_1448,60.0053311685,MAFE4ImagesEEG,001,200032,
AFNE01.JPG,AFNE01.JPG,AFNE01.JPG,AFNE01.JPG,AFNE01.JPG,AFNE01.JPG,,,,,,,,,0,3,3,8,,,,,,,,,,,,,,,AMNE04.jpg,AMSA12.jpg,AMSA03.jpg,AMNE17.jpg,AMNE17.jpg,MN,1,num_4,16,num_4,,,0.616842105985,2017_Apr_03_1448,60.0053311685,MAFE4ImagesEEG,001,200032,
AFNE01.JPG,AFNE01.JPG,AFNE01.JPG,AFNE01.JPG,AFNE01.JPG,AFNE01.JPG,,,,,,,,,0,4,4,7,,,,,,,,,,,,,,,AMNE15.jpg,AMNE13.jpg,AMSA12.jpg,AMSA19.jpg,AMSA12.jpg,MS,2,num_2,32,num_8,,,0.916821289808,2017_Apr_03_1448,60.0053311685,MAFE4ImagesEEG,001,200032,
AFNE01.JPG,AFNE01.JPG,AFNE01.JPG,AFNE01.JPG,AFNE01.JPG,AFNE01.JPG,,,,,,,,,0,5,5,0,,,,,,,,,,,,,,,AMSA12.jpg,AMNE09.jpg,AMNE13.jpg,AMSA10.jpg,AMSA12.jpg,MS,2,num_8,32,num_6,,,0.683280769503,2017_Apr_03_1448,60.0053311685,MAFE4ImagesEEG,001,200032,
AFNE01.JPG,AFNE01.JPG,AFNE01.JPG,AFNE01.JPG,AFNE01.JPG,AFNE01.JPG,,,,,,,,,0,6,6,2,,,,,,,,,,,,,,,AMSA10.jpg,AMNE17.jpg,AMSA05.jpg,AMNE13.jpg,AMSA05.jpg,MS,2,num_2,32,num_8,,,0.566817938117,2017_Apr_03_1448,60.0053311685,MAFE4ImagesEEG,001,200032,
AFNE01.JPG,AFNE01.JPG,AFNE01.JPG,AFNE01.JPG,AFNE01.JPG,AFNE01.JPG,,,,,,,,,0,7,7,5,,,,,,,,,,,,,,,AMSA15.jpg,AMNE13.jpg,AMNE01.jpg,AMSA10.jpg,AMSA15.jpg,MS,2,num_8,32,num_4,,,0.733489683364,2017_Apr_03_1448,60.0053311685,MAFE4ImagesEEG,001,200032,
AFNE01.JPG,AFNE01.JPG,AFNE01.JPG,AFNE01.JPG,AFNE01.JPG,AFNE01.JPG,,,,,,,,,0,8,8,3,,,,,,,,,,,,,,,AMSA10.jpg,AMNE04.jpg,AMNE19.jpg,AMSA19.jpg,AMSA19.jpg,MS,2,num_4,32,num_2,,,0.88343421137,2017_Apr_03_1448,60.0053311685,MAFE4ImagesEEG,001,200032,
AFNE01.JPG,AFNE01.JPG,AFNE01.JPG,AFNE01.JPG,AFNE01.JPG,AFNE01.JPG,,,,,,,,,0,9,9,6,,,,,,,,,,,,,,,AMSA05.jpg,AMNE19.jpg,AMSA18.jpg,AMNE07.jpg,AMNE07.jpg,MN,1,num_4,32,num_6,,,0.533582890173,2017_Apr_03_1448,60.0053311685,MAFE4ImagesEEG,001,200032,
AFNE01.JPG,AFNE01.JPG,AFNE01.JPG,AFNE01.JPG,AFNE01.JPG,AFNE01.JPG,,,,,,,,,1,0,10,6,,,,,,,,,,,,,,,AMNE16.jpg,AMSA09.jpg,AMNE19.jpg,AMSA17.jpg,AMSA09.jpg,MS,2,num_6,32,num_4,,,0.766776049742,2017_Apr_03_1448,60.0053311685,MAFE4ImagesEEG,001,200032,
AFNE01.JPG,AFNE01.JPG,AFNE01.JPG,AFNE01.JPG,AFNE01.JPG,AFNE01.JPG,,,,,,,,,1,1,11,3,,,,,,,,,,,,,,,AMSA03.jpg,AMSA19.jpg,AMNE16.jpg,AMNE02.jpg,AMSA03.jpg,MS,2,num_8,32,num_6,,,1.45008793077,2017_Apr_03_1448,60.0053311685,MAFE4ImagesEEG,001,200032,
AFNE01.JPG,AFNE01.JPG,AFNE01.JPG,AFNE01.JPG,AFNE01.JPG,AFNE01.JPG,,,,,,,,,1,2,12,5,,,,,,,,,,,,,,,AMNE02.jpg,AMSA06.jpg,AMNE03.jpg,AMSA03.jpg,AMNE03.jpg,MN,1,num_2,32,num_8,,,1.15016487613,2017_Apr_03_1448,60.0053311685,MAFE4ImagesEEG,001,200032,
AFNE01.JPG,AFNE01.JPG,AFNE01.JPG,AFNE01.JPG,AFNE01.JPG,AFNE01.JPG,,,,,,,,,1,3,13,8,,,,,,,,,,,,,,,AMSA20.jpg,AMSA10.jpg,AMNE18.jpg,AMNE20.jpg,AMSA10.jpg,MS,2,num_6,32,num_2,,,0.866771463072,2017_Apr_03_1448,60.0053311685,MAFE4ImagesEEG,001,200032,
AFNE01.JPG,AFNE01.JPG,AFNE01.JPG,AFNE01.JPG,AFNE01.JPG,AFNE01.JPG,,,,,,,,,1,4,14,0,,,,,,,,,,,,,,,AMNE12.jpg,AMSA20.jpg,AMNE01.jpg,AMSA03.jpg,AMNE01.jpg,MN,1,num_2,32,num_6,,,0.683510739822,2017_Apr_03_1448,60.0053311685,MAFE4ImagesEEG,001,200032,
AFNE01.JPG,AFNE01.JPG,AFNE01.JPG,AFNE01.JPG,AFNE01.JPG,AFNE01.JPG,,,,,,,,,1,5,15,4,,,,,,,,,,,,,,,AMNE11.jpg,AMSA06.jpg,AMNE20.jpg,AMSA05.jpg,AMNE20.jpg,MN,1,num_2,32,num_4,,,0.6001514534,2017_Apr_03_1448,60.0053311685,MAFE4ImagesEEG,001,200032,
AFNE01.JPG,AFNE01.JPG,AFNE01.JPG,AFNE01.JPG,AFNE01.JPG,AFNE01.JPG,,,,,,,,,1,6,16,1,,,,,,,,,,,,,,,AMSA17.jpg,AMNE15.jpg,AMNE16.jpg,AMSA13.jpg,AMSA17.jpg,MS,2,num_8,32,num_6,,,1.08342343429,2017_Apr_03_1448,60.0053311685,MAFE4ImagesEEG,001,200032,
AFNE01.JPG,AFNE01.JPG,AFNE01.JPG,AFNE01.JPG,AFNE01.JPG,AFNE01.JPG,,,,,,,,,1,7,17,9,,,,,,,,,,,,,,,AMNE01.jpg,AMSA19.jpg,AMSA05.jpg,AMNE14.jpg,AMSA05.jpg,MS,2,num_2,32,num_4,,,0.750139281154,2017_Apr_03_1448,60.0053311685,MAFE4ImagesEEG,001,200032,
AFNE01.JPG,AFNE01.JPG,AFNE01.JPG,AFNE01.JPG,AFNE01.JPG,AFNE01.JPG,,,,,,,,,1,8,18,2,,,,,,,,,,,,,,,AMNE02.jpg,AMSA17.jpg,AMNE03.jpg,AMSA01.jpg,AMSA01.jpg,MS,2,num_4,32,num_6,,,0.900129354326,2017_Apr_03_1448,60.0053311685,MAFE4ImagesEEG,001,200032,
AFNE01.JPG,AFNE01.JPG,AFNE01.JPG,AFNE01.JPG,AFNE01.JPG,AFNE01.JPG,,,,,,,,,1,9,19,7,,,,,,,,,,,,,,,AMSA01.jpg,AMSA02.jpg,AMNE01.jpg,AMNE12.jpg,AMNE01.jpg,MN,1,num_2,32,num_4,,,0.50011145696,2017_Apr_03_1448,60.0053311685,MAFE4ImagesEEG,001,200032,
AFNE01.JPG,AFNE01.JPG,AFNE01.JPG,AFNE01.JPG,AFNE01.JPG,AFNE01.JPG,,,,,,,,,2,0,20,3,,,,,,,,,,,,,,,AMNE03.jpg,AMSA15.jpg,AMNE09.jpg,AMSA18.jpg,AMNE09.jpg,MN,1,num_2,16,num_2,,,0.7167714471,2017_Apr_03_1448,60.0053311685,MAFE4ImagesEEG,001,200032,
AFNE01.JPG,AFNE01.JPG,AFNE01.JPG,AFNE01.JPG,AFNE01.JPG,AFNE01.JPG,,,,,,,,,2,1,21,1,,,,,,,,,,,,,,,AMSA12.jpg,AMSA15.jpg,AMNE13.jpg,AMNE02.jpg,AMSA15.jpg,MS,2,num_6,32,num_8,,,1.05011686147,2017_Apr_03_1448,60.0053311685,MAFE4ImagesEEG,001,200032,
AFNE01.JPG,AFNE01.JPG,AFNE01.JPG,AFNE01.JPG,AFNE01.JPG,AFNE01.JPG,,,,,,,,,2,2,22,7,,,,,,,,,,,,,,,AMSA10.jpg,AMNE16.jpg,AMNE06.jpg,AMSA20.jpg,AMNE06.jpg,MN,1,num_2,32,num_6,,,1.10008682427,2017_Apr_03_1448,60.0053311685,MAFE4ImagesEEG,001,200032,
AFNE01.JPG,AFNE01.JPG,AFNE01.JPG,AFNE01.JPG,AFNE01.JPG,AFNE01.JPG,,,,,,,,,2,3,23,9,,,,,,,,,,,,,,,AMNE12.jpg,AMSA06.jpg,AMNE20.jpg,AMSA08.jpg,AMNE12.jpg,MN,1,num_8,32,num_2,,,0.616640681401,2017_Apr_03_1448,60.0053311685,MAFE4ImagesEEG,001,200032,
AFNE01.JPG,AFNE01.JPG,AFNE01.JPG,AFNE01.JPG,AFNE01.JPG,AFNE01.JPG,,,,,,,,,2,4,24,2,,,,,,,,,,,,,,,AMSA06.jpg,AMNE09.jpg,AMNE01.jpg,AMSA08.jpg,AMNE01.jpg,MN,1,num_2,32,num_4,,,1.51692880201,2017_Apr_03_1448,60.0053311685,MAFE4ImagesEEG,001,200032,
AFNE01.JPG,AFNE01.JPG,AFNE01.JPG,AFNE01.JPG,AFNE01.JPG,AFNE01.JPG,,,,,,,,,2,5,25,5,,,,,,,,,,,,,,,AMSA01.jpg,AMNE15.jpg,AMNE11.jpg,AMSA12.jpg,AMNE15.jpg,MN,1,num_6,16,num_6,,,0.916714162799,2017_Apr_03_1448,60.0053311685,MAFE4ImagesEEG,001,200032,
AFNE01.JPG,AFNE01.JPG,AFNE01.JPG,AFNE01.JPG,AFNE01.JPG,AFNE01.JPG,,,,,,,,,2,6,26,0,,,,,,,,,,,,,,,AMSA11.jpg,AMNE15.jpg,AMSA12.jpg,AMNE07.jpg,AMSA12.jpg,MS,2,num_2,32,num_8,,,1.08344909362,2017_Apr_03_1448,60.0053311685,MAFE4ImagesEEG,001,200032,
AFNE01.JPG,AFNE01.JPG,AFNE01.JPG,AFNE01.JPG,AFNE01.JPG,AFNE01.JPG,,,,,,,,,2,7,27,8,,,,,,,,,,,,,,,AMSA13.jpg,AMSA07.jpg,AMNE17.jpg,AMNE15.jpg,AMNE17.jpg,MN,1,num_2,32,num_4,,,0.566634795861,2017_Apr_03_1448,60.0053311685,MAFE4ImagesEEG,001,200032,
AFNE01.JPG,AFNE01.JPG,AFNE01.JPG,AFNE01.JPG,AFNE01.JPG,AFNE01.JPG,,,,,,,,,2,8,28,6,,,,,,,,,,,,,,,AMNE04.jpg,AMSA02.jpg,AMNE15.jpg,AMSA11.jpg,AMNE04.jpg,MN,1,num_8,32,num_4,,,0.766813255381,2017_Apr_03_1448,60.0053311685,MAFE4ImagesEEG,001,200032,
AFNE01.JPG,AFNE01.JPG,AFNE01.JPG,AFNE01.JPG,AFNE01.JPG,AFNE01.JPG,,,,,,,,,2,9,29,4,,,,,,,,,,,,,,,AMNE14.jpg,AMNE06.jpg,AMSA20.jpg,AMSA09.jpg,AMSA09.jpg,MS,2,num_4,32,num_6,,,0.483318167739,2017_Apr_03_1448,60.0053311685,MAFE4ImagesEEG,001,200032,
AFNE01.JPG,AFNE01.JPG,AFNE01.JPG,AFNE01.JPG,AFNE01.JPG,AFNE01.JPG,,,,,,,,,3,0,30,2,,,,,,,,,,,,,,,AMSA04.jpg,AMSA03.jpg,AMNE07.jpg,AMNE03.jpg,AMNE03.jpg,MN,1,num_4,32,num_2,,,1.4167104743,2017_Apr_03_1448,60.0053311685,MAFE4ImagesEEG,001,200032,
AFNE01.JPG,AFNE01.JPG,AFNE01.JPG,AFNE01.JPG,AFNE01.JPG,AFNE01.JPG,,,,,,,,,3,1,31,0,,,,,,,,,,,,,,,AMNE17.jpg,AMNE14.jpg,AMSA12.jpg,AMSA08.jpg,AMSA12.jpg,MS,2,num_2,32,num_4,,,1.06675908249,2017_Apr_03_1448,60.0053311685,MAFE4ImagesEEG,001,200032,
AFNE01.JPG,AFNE01.JPG,AFNE01.JPG,AFNE01.JPG,AFNE01.JPG,AFNE01.JPG,,,,,,,,,3,2,32,5,,,,,,,,,,,,,,,AMNE20.jpg,AMNE16.jpg,AMSA16.jpg,AMSA19.jpg,AMSA19.jpg,MS,2,num_4,32,num_8,,,1.96666873014,2017_Apr_03_1448,60.0053311685,MAFE4ImagesEEG,001,200032,
AFNE01.JPG,AFNE01.JPG,AFNE01.JPG,AFNE01.JPG,AFNE01.JPG,AFNE01.JPG,,,,,,,,,3,3,33,4,,,,,,,,,,,,,,,AMSA15.jpg,AMNE01.jpg,AMSA01.jpg,AMNE15.jpg,AMNE01.jpg,MN,1,num_6,32,num_4,,,1.61671156483,2017_Apr_03_1448,60.0053311685,MAFE4ImagesEEG,001,200032,
AFNE01.JPG,AFNE01.JPG,AFNE01.JPG,AFNE01.JPG,AFNE01.JPG,AFNE01.JPG,,,,,,,,,3,4,34,8,,,,,,,,,,,,,,,AMSA11.jpg,AMNE10.jpg,AMNE13.jpg,AMSA19.jpg,AMNE13.jpg,MN,1,num_2,32,num_6,,,2.54970070161,2017_Apr_03_1448,60.0053311685,MAFE4ImagesEEG,001,200032,
AFNE01.JPG,AFNE01.JPG,AFNE01.JPG,AFNE01.JPG,AFNE01.JPG,AFNE01.JPG,,,,,,,,,3,5,35,3,,,,,,,,,,,,,,,AMSA14.jpg,AMNE02.jpg,AMNE14.jpg,AMSA13.jpg,AMSA14.jpg,MS,2,num_8,32,num_2,,,0.650124944048,2017_Apr_03_1448,60.0053311685,MAFE4ImagesEEG,001,200032,
AFNE01.JPG,AFNE01.JPG,AFNE01.JPG,AFNE01.JPG,AFNE01.JPG,AFNE01.JPG,,,,,,,,,3,6,36,1,,,,,,,,,,,,,,,AMSA16.jpg,AMNE19.jpg,AMSA01.jpg,AMNE06.jpg,AMSA16.jpg,MS,2,num_8,32,num_4,,,1.21674145805,2017_Apr_03_1448,60.0053311685,MAFE4ImagesEEG,001,200032,
AFNE01.JPG,AFNE01.JPG,AFNE01.JPG,AFNE01.JPG,AFNE01.JPG,AFNE01.JPG,,,,,,,,,3,7,37,6,,,,,,,,,,,,,,,AMSA12.jpg,AMSA14.jpg,AMNE12.jpg,AMNE10.jpg,AMNE10.jpg,MN,1,num_4,32,num_8,,,0.7337260684,2017_Apr_03_1448,60.0053311685,MAFE4ImagesEEG,001,200032,
AFNE01.JPG,AFNE01.JPG,AFNE01.JPG,AFNE01.JPG,AFNE01.JPG,AFNE01.JPG,,,,,,,,,3,8,38,9,,,,,,,,,,,,,,,AMNE04.jpg,AMSA02.jpg,AMNE09.jpg,AMSA16.jpg,AMNE04.jpg,MN,1,num_8,32,num_4,,,0.983460095013,2017_Apr_03_1448,60.0053311685,MAFE4ImagesEEG,001,200032,
AFNE01.JPG,AFNE01.JPG,AFNE01.JPG,AFNE01.JPG,AFNE01.JPG,AFNE01.JPG,,,,,,,,,3,9,39,7,,,,,,,,,,,,,,,AMSA10.jpg,AMNE11.jpg,AMSA11.jpg,AMNE04.jpg,AMNE04.jpg,MN,1,num_4,32,num_6,,,0.800138110528,2017_Apr_03_1448,60.0053311685,MAFE4ImagesEEG,001,200032,
AFNE01.JPG,AFNE01.JPG,AFNE01.JPG,AFNE01.JPG,AFNE01.JPG,AFNE01.JPG,,,,,,,,,4,0,40,1,,,,,,,,,,,,,,,AMSA20.jpg,AMNE12.jpg,AMSA13.jpg,AMNE14.jpg,AMSA13.jpg,MS,2,num_2,32,num_8,,,0.783497493248,2017_Apr_03_1448,60.0053311685,MAFE4ImagesEEG,001,200032,
AFNE01.JPG,AFNE01.JPG,AFNE01.JPG,AFNE01.JPG,AFNE01.JPG,AFNE01.JPG,,,,,,,,,4,1,41,2,,,,,,,,,,,,,,,AMSA05.jpg,AMNE14.jpg,AMSA14.jpg,AMNE11.jpg,AMSA05.jpg,MS,2,num_8,16,num_8,,,1.23348439112,2017_Apr_03_1448,60.0053311685,MAFE4ImagesEEG,001,200032,
AFNE01.JPG,AFNE01.JPG,AFNE01.JPG,AFNE01.JPG,AFNE01.JPG,AFNE01.JPG,,,,,,,,,4,2,42,8,,,,,,,,,,,,,,,AMSA13.jpg,AMNE07.jpg,AMSA06.jpg,AMNE19.jpg,AMSA13.jpg,MS,2,num_8,16,num_8,,,1.81666486501,2017_Apr_03_1448,60.0053311685,MAFE4ImagesEEG,001,200032,
AFNE01.JPG,AFNE01.JPG,AFNE01.JPG,AFNE01.JPG,AFNE01.JPG,AFNE01.JPG,,,,,,,,,4,3,43,0,,,,,,,,,,,,,,,AMSA15.jpg,AMSA16.jpg,AMNE01.jpg,AMNE17.jpg,AMNE17.jpg,MN,1,num_4,16,num_4,,,0.633513193345,2017_Apr_03_1448,60.0053311685,MAFE4ImagesEEG,001,200032,
AFNE01.JPG,AFNE01.JPG,AFNE01.JPG,AFNE01.JPG,AFNE01.JPG,AFNE01.JPG,,,,,,,,,4,4,44,9,,,,,,,,,,,,,,,AMSA17.jpg,AMSA01.jpg,AMNE16.jpg,AMNE01.jpg,AMNE01.jpg,MN,1,num_4,32,num_2,,,1.31670704251,2017_Apr_03_1448,60.0053311685,MAFE4ImagesEEG,001,200032,
AFNE01.JPG,AFNE01.JPG,AFNE01.JPG,AFNE01.JPG,AFNE01.JPG,AFNE01.JPG,,,,,,,,,4,5,45,3,,,,,,,,,,,,,,,AMNE11.jpg,AMNE02.jpg,AMSA16.jpg,AMSA13.jpg,AMSA16.jpg,MS,2,num_2,32,num_6,,,0.850130204111,2017_Apr_03_1448,60.0053311685,MAFE4ImagesEEG,001,200032,
AFNE01.JPG,AFNE01.JPG,AFNE01.JPG,AFNE01.JPG,AFNE01.JPG,AFNE01.JPG,,,,,,,,,4,6,46,6,,,,,,,,,,,,,,,AMNE04.jpg,AMSA10.jpg,AMNE05.jpg,AMSA18.jpg,AMSA18.jpg,MS,2,num_4,16,num_4,,,1.3667135695,2017_Apr_03_1448,60.0053311685,MAFE4ImagesEEG,001,200032,
AFNE01.JPG,AFNE01.JPG,AFNE01.JPG,AFNE01.JPG,AFNE01.JPG,AFNE01.JPG,,,,,,,,,4,7,47,5,,,,,,,,,,,,,,,AMSA03.jpg,AMSA16.jpg,AMNE04.jpg,AMNE05.jpg,AMSA16.jpg,MS,2,num_6,32,num_8,,,0.63343172567,2017_Apr_03_1448,60.0053311685,MAFE4ImagesEEG,001,200032,
AFNE01.JPG,AFNE01.JPG,AFNE01.JPG,AFNE01.JPG,AFNE01.JPG,AFNE01.JPG,,,,,,,,,4,8,48,4,,,,,,,,,,,,,,,AMNE06.jpg,AMNE02.jpg,AMSA04.jpg,AMSA15.jpg,AMSA04.jpg,MS,2,num_2,32,num_6,,,1.30009817844,2017_Apr_03_1448,60.0053311685,MAFE4ImagesEEG,001,200032,
AFNE01.JPG,AFNE01.JPG,AFNE01.JPG,AFNE01.JPG,AFNE01.JPG,AFNE01.JPG,,,,,,,,,4,9,49,7,,,,,,,,,,,,,,,AMNE19.jpg,AMNE08.jpg,AMSA09.jpg,AMSA16.jpg,AMNE19.jpg,MN,1,num_8,32,num_4,,,0.76678246446,2017_Apr_03_1448,60.0053311685,MAFE4ImagesEEG,001,200032,
AFNE01.JPG,AFNE01.JPG,AFNE01.JPG,AFNE01.JPG,AFNE01.JPG,AFNE01.JPG,,,,,,,,,5,0,50,4,,,,,,,,,,,,,,,AMSA07.jpg,AMNE19.jpg,AMSA01.jpg,AMNE01.jpg,AMSA07.jpg,MS,2,num_8,16,num_8,,,2.49997193529,2017_Apr_03_1448,60.0053311685,MAFE4ImagesEEG,001,200032,
AFNE01.JPG,AFNE01.JPG,AFNE01.JPG,AFNE01.JPG,AFNE01.JPG,AFNE01.JPG,,,,,,,,,5,1,51,8,,,,,,,,,,,,,,,AMNE07.jpg,AMNE09.jpg,AMSA04.jpg,AMSA13.jpg,AMNE09.jpg,MN,1,num_6,32,num_4,,,1.01677051676,2017_Apr_03_1448,60.0053311685,MAFE4ImagesEEG,001,200032,
AFNE01.JPG,AFNE01.JPG,AFNE01.JPG,AFNE01.JPG,AFNE01.JPG,AFNE01.JPG,,,,,,,,,5,2,52,1,,,,,,,,,,,,,,,AMNE10.jpg,AMSA17.jpg,AMNE15.jpg,AMSA02.jpg,AMNE15.jpg,MN,1,num_2,32,num_6,,,1.73338832962,2017_Apr_03_1448,60.0053311685,MAFE4ImagesEEG,001,200032,
AFNE01.JPG,AFNE01.JPG,AFNE01.JPG,AFNE01.JPG,AFNE01.JPG,AFNE01.JPG,,,,,,,,,5,3,53,7,,,,,,,,,,,,,,,AMSA09.jpg,AMSA02.jpg,AMNE02.jpg,AMNE10.jpg,AMNE02.jpg,MN,1,num_2,32,num_4,,,0.566648587584,2017_Apr_03_1448,60.0053311685,MAFE4ImagesEEG,001,200032,
AFNE01.JPG,AFNE01.JPG,AFNE01.JPG,AFNE01.JPG,AFNE01.JPG,AFNE01.JPG,,,,,,,,,5,4,54,6,,,,,,,,,,,,,,,AMSA15.jpg,AMNE09.jpg,AMNE04.jpg,AMSA11.jpg,AMNE04.jpg,MN,1,num_2,16,num_2,,,0.700182789471,2017_Apr_03_1448,60.0053311685,MAFE4ImagesEEG,001,200032,
AFNE01.JPG,AFNE01.JPG,AFNE01.JPG,AFNE01.JPG,AFNE01.JPG,AFNE01.JPG,,,,,,,,,5,5,55,5,,,,,,,,,,,,,,,AMNE18.jpg,AMNE20.jpg,AMSA08.jpg,AMSA13.jpg,AMNE20.jpg,MN,1,num_6,32,num_4,,,0.683470647316,2017_Apr_03_1448,60.0053311685,MAFE4ImagesEEG,001,200032,
AFNE01.JPG,AFNE01.JPG,AFNE01.JPG,AFNE01.JPG,AFNE01.JPG,AFNE01.JPG,,,,,,,,,5,6,56,3,,,,,,,,,,,,,,,AMNE07.jpg,AMNE18.jpg,AMSA05.jpg,AMSA20.jpg,AMNE07.jpg,MN,1,num_8,32,num_6,,,0.700160337845,2017_Apr_03_1448,60.0053311685,MAFE4ImagesEEG,001,200032,
AFNE01.JPG,AFNE01.JPG,AFNE01.JPG,AFNE01.JPG,AFNE01.JPG,AFNE01.JPG,,,,,,,,,5,7,57,2,,,,,,,,,,,,,,,AMNE07.jpg,AMNE06.jpg,AMSA04.jpg,AMSA08.jpg,AMSA08.jpg,MS,2,num_4,16,num_4,,,0.583453102969,2017_Apr_03_1448,60.0053311685,MAFE4ImagesEEG,001,200032,
AFNE01.JPG,AFNE01.JPG,AFNE01.JPG,AFNE01.JPG,AFNE01.JPG,AFNE01.JPG,,,,,,,,,5,8,58,9,,,,,,,,,,,,,,,AMNE12.jpg,AMSA13.jpg,AMNE10.jpg,AMSA14.jpg,AMSA13.jpg,MS,2,num_6,32,num_2,,,1.88343741884,2017_Apr_03_1448,60.0053311685,MAFE4ImagesEEG,001,200032,
AFNE01.JPG,AFNE01.JPG,AFNE01.JPG,AFNE01.JPG,AFNE01.JPG,AFNE01.JPG,,,,,,,,,5,9,59,0,,,,,,,,,,,,,,,AMSA11.jpg,AMNE03.jpg,AMNE14.jpg,AMSA18.jpg,AMSA18.jpg,MS,2,num_4,16,num_4,,,0.516855994007,2017_Apr_03_1448,60.0053311685,MAFE4ImagesEEG,001,200032,
,,,,,,,,,,,,,,,,,,,,,,,,,,,,,,,,,,,,,,,,,,space,34.5138760014,,2017_Apr_03_1448,60.0053311685,MAFE4ImagesEEG,001,200032,
AFNE01.JPG,AFNE01.JPG,AFNE01.JPG,AFNE01.JPG,AFNE01.JPG,AFNE01.JPG,,,,,,,,,,,,,0,0,0,3,,,,,,,,,,,AFSA18.jpg,AFNE16.jpg,AFSA17.jpg,AFNE03.jpg,AFNE16.jpg,FN,3,num_6,32,num_8,,,0.716783955693,2017_Apr_03_1448,60.0053311685,MAFE4ImagesEEG,001,200032,
AFNE01.JPG,AFNE01.JPG,AFNE01.JPG,AFNE01.JPG,AFNE01.JPG,AFNE01.JPG,,,,,,,,,,,,,0,1,1,4,,,,,,,,,,,AFNE19.jpg,AFNE12.jpg,AFSA17.jpg,AFSA13.jpg,AFNE19.jpg,FN,3,num_8,32,num_4,,,0.866721106693,2017_Apr_03_1448,60.0053311685,MAFE4ImagesEEG,001,200032,
AFNE01.JPG,AFNE01.JPG,AFNE01.JPG,AFNE01.JPG,AFNE01.JPG,AFNE01.JPG,,,,,,,,,,,,,0,2,2,1,,,,,,,,,,,AFSA03.jpg,AFNE05.jpg,AFSA19.jpg,AFNE10.jpg,AFSA03.jpg,FS,4,num_8,32,num_2,,,1.68344562966,2017_Apr_03_1448,60.0053311685,MAFE4ImagesEEG,001,200032,
AFNE01.JPG,AFNE01.JPG,AFNE01.JPG,AFNE01.JPG,AFNE01.JPG,AFNE01.JPG,,,,,,,,,,,,,0,3,3,8,,,,,,,,,,,AFSA13.jpg,AFNE07.jpg,AFSA17.jpg,AFNE10.jpg,AFNE10.jpg,FN,3,num_4,16,num_4,,,0.9001267883,2017_Apr_03_1448,60.0053311685,MAFE4ImagesEEG,001,200032,
AFNE01.JPG,AFNE01.JPG,AFNE01.JPG,AFNE01.JPG,AFNE01.JPG,AFNE01.JPG,,,,,,,,,,,,,0,4,4,6,,,,,,,,,,,AFSA07.jpg,AFNE07.jpg,AFNE02.jpg,AFSA01.jpg,AFSA07.jpg,FS,4,num_8,16,num_8,,,0.650130717317,2017_Apr_03_1448,60.0053311685,MAFE4ImagesEEG,001,200032,
AFNE01.JPG,AFNE01.JPG,AFNE01.JPG,AFNE01.JPG,AFNE01.JPG,AFNE01.JPG,,,,,,,,,,,,,0,5,5,0,,,,,,,,,,,AFSA09.jpg,AFNE18.jpg,AFNE20.jpg,AFSA08.jpg,AFSA09.jpg,FS,4,num_8,32,num_4,,,3.46654829243,2017_Apr_03_1448,60.0053311685,MAFE4ImagesEEG,001,200032,
AFNE01.JPG,AFNE01.JPG,AFNE01.JPG,AFNE01.JPG,AFNE01.JPG,AFNE01.JPG,,,,,,,,,,,,,0,6,6,2,,,,,,,,,,,AFSA19.jpg,AFNE13.jpg,AFSA11.jpg,AFNE17.jpg,AFSA19.jpg,FS,4,num_8,32,num_4,,,0.966620619176,2017_Apr_03_1448,60.0053311685,MAFE4ImagesEEG,001,200032,
AFNE01.JPG,AFNE01.JPG,AFNE01.JPG,AFNE01.JPG,AFNE01.JPG,AFNE01.JPG,,,,,,,,,,,,,0,7,7,5,,,,,,,,,,,AFNE12.jpg,AFSA17.jpg,AFSA12.jpg,AFNE13.jpg,AFSA17.jpg,FS,4,num_6,32,num_2,,,2.36664493103,2017_Apr_03_1448,60.0053311685,MAFE4ImagesEEG,001,200032,
AFNE01.JPG,AFNE01.JPG,AFNE01.JPG,AFNE01.JPG,AFNE01.JPG,AFNE01.JPG,,,,,,,,,,,,,0,8,8,7,,,,,,,,,,,AFNE19.jpg,AFNE04.jpg,AFSA11.jpg,AFSA16.jpg,AFSA11.jpg,FS,4,num_2,32,num_4,,,0.600155943772,2017_Apr_03_1448,60.0053311685,MAFE4ImagesEEG,001,200032,
AFNE01.JPG,AFNE01.JPG,AFNE01.JPG,AFNE01.JPG,AFNE01.JPG,AFNE01.JPG,,,,,,,,,,,,,0,9,9,9,,,,,,,,,,,AFSA02.jpg,AFNE11.jpg,AFNE03.jpg,AFSA16.jpg,AFSA16.jpg,FS,4,num_4,32,num_8,,,1.00013727671,2017_Apr_03_1448,60.0053311685,MAFE4ImagesEEG,001,200032,
AFNE01.JPG,AFNE01.JPG,AFNE01.JPG,AFNE01.JPG,AFNE01.JPG,AFNE01.JPG,,,,,,,,,,,,,1,0,10,0,,,,,,,,,,,AFNE14.jpg,AFSA09.jpg,AFSA04.jpg,AFNE12.jpg,AFNE12.jpg,FN,3,num_4,16,num_4,,,0.583544513676,2017_Apr_03_1448,60.0053311685,MAFE4ImagesEEG,001,200032,
AFNE01.JPG,AFNE01.JPG,AFNE01.JPG,AFNE01.JPG,AFNE01.JPG,AFNE01.JPG,,,,,,,,,,,,,1,1,11,3,,,,,,,,,,,AFSA03.jpg,AFSA07.jpg,AFNE17.jpg,AFNE06.jpg,AFNE17.jpg,FN,3,num_2,32,num_6,,,0.733589112526,2017_Apr_03_1448,60.0053311685,MAFE4ImagesEEG,001,200032,
AFNE01.JPG,AFNE01.JPG,AFNE01.JPG,AFNE01.JPG,AFNE01.JPG,AFNE01.JPG,,,,,,,,,,,,,1,2,12,2,,,,,,,,,,,AFNE04.jpg,AFSA07.jpg,AFNE06.jpg,AFSA15.jpg,AFSA07.jpg,FS,4,num_6,32,num_8,,,0.516972422367,2017_Apr_03_1448,60.0053311685,MAFE4ImagesEEG,001,200032,
AFNE01.JPG,AFNE01.JPG,AFNE01.JPG,AFNE01.JPG,AFNE01.JPG,AFNE01.JPG,,,,,,,,,,,,,1,3,13,6,,,,,,,,,,,AFNE02.jpg,AFSA12.jpg,AFNE04.jpg,AFSA08.jpg,AFSA08.jpg,FS,4,num_4,16,num_4,,,0.566772072576,2017_Apr_03_1448,60.0053311685,MAFE4ImagesEEG,001,200032,
AFNE01.JPG,AFNE01.JPG,AFNE01.JPG,AFNE01.JPG,AFNE01.JPG,AFNE01.JPG,,,,,,,,,,,,,1,4,14,5,,,,,,,,,,,AFSA09.jpg,AFNE17.jpg,AFNE02.jpg,AFSA04.jpg,AFNE02.jpg,FN,3,num_2,16,num_2,,,1.70004872023,2017_Apr_03_1448,60.0053311685,MAFE4ImagesEEG,001,200032,
AFNE01.JPG,AFNE01.JPG,AFNE01.JPG,AFNE01.JPG,AFNE01.JPG,AFNE01.JPG,,,,,,,,,,,,,1,5,15,7,,,,,,,,,,,AFSA17.jpg,AFNE07.jpg,AFNE06.jpg,AFSA14.jpg,AFNE06.jpg,FN,3,num_2,32,num_4,,,0.650108265691,2017_Apr_03_1448,60.0053311685,MAFE4ImagesEEG,001,200032,
AFNE01.JPG,AFNE01.JPG,AFNE01.JPG,AFNE01.JPG,AFNE01.JPG,AFNE01.JPG,,,,,,,,,,,,,1,6,16,9,,,,,,,,,,,AFNE01.jpg,AFSA11.jpg,AFSA09.jpg,AFNE19.jpg,AFSA09.jpg,FS,4,num_2,32,num_6,,,0.633344805101,2017_Apr_03_1448,60.0053311685,MAFE4ImagesEEG,001,200032,
AFNE01.JPG,AFNE01.JPG,AFNE01.JPG,AFNE01.JPG,AFNE01.JPG,AFNE01.JPG,,,,,,,,,,,,,1,7,17,8,,,,,,,,,,,AFSA08.jpg,AFSA01.jpg,AFNE18.jpg,AFNE07.jpg,AFNE07.jpg,FN,3,num_4,16,num_4,,,0.683465194888,2017_Apr_03_1448,60.0053311685,MAFE4ImagesEEG,001,200032,
AFNE01.JPG,AFNE01.JPG,AFNE01.JPG,AFNE01.JPG,AFNE01.JPG,AFNE01.JPG,,,,,,,,,,,,,1,8,18,4,,,,,,,,,,,AFNE11.jpg,AFSA18.jpg,AFSA10.jpg,AFNE20.jpg,AFNE20.jpg,FN,3,num_4,32,num_8,,,2.03337521129,2017_Apr_03_1448,60.0053311685,MAFE4ImagesEEG,001,200032,
AFNE01.JPG,AFNE01.JPG,AFNE01.JPG,AFNE01.JPG,AFNE01.JPG,AFNE01.JPG,,,,,,,,,,,,,1,9,19,1,,,,,,,,,,,AFSA17.jpg,AFNE07.jpg,AFNE12.jpg,AFSA10.jpg,AFNE12.jpg,FN,3,num_2,32,num_4,,,2.43335526134,2017_Apr_03_1448,60.0053311685,MAFE4ImagesEEG,001,200032,
AFNE01.JPG,AFNE01.JPG,AFNE01.JPG,AFNE01.JPG,AFNE01.JPG,AFNE01.JPG,,,,,,,,,,,,,2,0,20,4,,,,,,,,,,,AFNE15.jpg,AFNE19.jpg,AFSA12.jpg,AFSA02.jpg,AFNE19.jpg,FN,3,num_6,32,num_4,,,0.816756917397,2017_Apr_03_1448,60.0053311685,MAFE4ImagesEEG,001,200032,
AFNE01.JPG,AFNE01.JPG,AFNE01.JPG,AFNE01.JPG,AFNE01.JPG,AFNE01.JPG,,,,,,,,,,,,,2,1,21,2,,,,,,,,,,,AFSA11.jpg,AFNE05.jpg,AFNE14.jpg,AFSA06.jpg,AFSA11.jpg,FS,4,num_8,16,num_8,,,0.616615342908,2017_Apr_03_1448,60.0053311685,MAFE4ImagesEEG,001,200032,
AFNE01.JPG,AFNE01.JPG,AFNE01.JPG,AFNE01.JPG,AFNE01.JPG,AFNE01.JPG,,,,,,,,,,,,,2,2,22,5,,,,,,,,,,,AFSA11.jpg,AFNE13.jpg,AFSA20.jpg,AFNE08.jpg,AFNE13.jpg,FN,3,num_6,32,num_2,,,1.56671016966,2017_Apr_03_1448,60.0053311685,MAFE4ImagesEEG,001,200032,
AFNE01.JPG,AFNE01.JPG,AFNE01.JPG,AFNE01.JPG,AFNE01.JPG,AFNE01.JPG,,,,,,,,,,,,,2,3,23,8,,,,,,,,,,,AFSA19.jpg,AFNE18.jpg,AFSA04.jpg,AFNE11.jpg,AFSA04.jpg,FS,4,num_2,32,num_4,,,0.533486026805,2017_Apr_03_1448,60.0053311685,MAFE4ImagesEEG,001,200032,
AFNE01.JPG,AFNE01.JPG,AFNE01.JPG,AFNE01.JPG,AFNE01.JPG,AFNE01.JPG,,,,,,,,,,,,,2,4,24,3,,,,,,,,,,,AFSA13.jpg,AFNE09.jpg,AFNE07.jpg,AFSA01.jpg,AFSA13.jpg,FS,4,num_8,32,num_6,,,0.666779353051,2017_Apr_03_1448,60.0053311685,MAFE4ImagesEEG,001,200032,
AFNE01.JPG,AFNE01.JPG,AFNE01.JPG,AFNE01.JPG,AFNE01.JPG,AFNE01.JPG,,,,,,,,,,,,,2,5,25,7,,,,,,,,,,,AFSA07.jpg,AFNE17.jpg,AFNE11.jpg,AFSA14.jpg,AFNE11.jpg,FN,3,num_2,32,num_4,,,0.550134662539,2017_Apr_03_1448,60.0053311685,MAFE4ImagesEEG,001,200032,
AFNE01.JPG,AFNE01.JPG,AFNE01.JPG,AFNE01.JPG,AFNE01.JPG,AFNE01.JPG,,,,,,,,,,,,,2,6,26,1,,,,,,,,,,,AFNE10.jpg,AFSA17.jpg,AFNE14.jpg,AFSA03.jpg,AFSA17.jpg,FS,4,num_6,32,num_8,,,0.650210902328,2017_Apr_03_1448,60.0053311685,MAFE4ImagesEEG,001,200032,
AFNE01.JPG,AFNE01.JPG,AFNE01.JPG,AFNE01.JPG,AFNE01.JPG,AFNE01.JPG,,,,,,,,,,,,,2,7,27,9,,,,,,,,,,,AFNE10.jpg,AFNE03.jpg,AFSA06.jpg,AFSA19.jpg,AFNE10.jpg,FN,3,num_8,32,num_4,,,1.01674838574,2017_Apr_03_1448,60.0053311685,MAFE4ImagesEEG,001,200032,
AFNE01.JPG,AFNE01.JPG,AFNE01.JPG,AFNE01.JPG,AFNE01.JPG,AFNE01.JPG,,,,,,,,,,,,,2,8,28,6,,,,,,,,,,,AFNE04.jpg,AFSA17.jpg,AFNE10.jpg,AFSA18.jpg,AFNE04.jpg,FN,3,num_8,16,num_8,,,0.533360617701,2017_Apr_03_1448,60.0053311685,MAFE4ImagesEEG,001,200032,
AFNE01.JPG,AFNE01.JPG,AFNE01.JPG,AFNE01.JPG,AFNE01.JPG,AFNE01.JPG,,,,,,,,,,,,,2,9,29,0,,,,,,,,,,,AFSA15.jpg,AFNE17.jpg,AFNE13.jpg,AFSA18.jpg,AFNE17.jpg,FN,3,num_6,16,num_6,,,0.500161171658,2017_Apr_03_1448,60.0053311685,MAFE4ImagesEEG,001,200032,
AFNE01.JPG,AFNE01.JPG,AFNE01.JPG,AFNE01.JPG,AFNE01.JPG,AFNE01.JPG,,,,,,,,,,,,,3,0,30,9,,,,,,,,,,,AFSA02.jpg,AFSA05.jpg,AFNE10.jpg,AFNE18.jpg,AFNE18.jpg,FN,3,num_4,32,num_2,,,0.883500925265,2017_Apr_03_1448,60.0053311685,MAFE4ImagesEEG,001,200032,
AFNE01.JPG,AFNE01.JPG,AFNE01.JPG,AFNE01.JPG,AFNE01.JPG,AFNE01.JPG,,,,,,,,,,,,,3,1,31,1,,,,,,,,,,,AFSA11.jpg,AFNE05.jpg,AFSA14.jpg,AFNE08.jpg,AFSA11.jpg,FS,4,num_8,32,num_4,,,0.800140676321,2017_Apr_03_1448,60.0053311685,MAFE4ImagesEEG,001,200032,
AFNE01.JPG,AFNE01.JPG,AFNE01.JPG,AFNE01.JPG,AFNE01.JPG,AFNE01.JPG,,,,,,,,,,,,,3,2,32,3,,,,,,,,,,,AFNE19.jpg,AFSA04.jpg,AFNE09.jpg,AFSA03.jpg,AFNE09.jpg,FN,3,num_2,32,num_4,,,0.766525231302,2017_Apr_03_1448,60.0053311685,MAFE4ImagesEEG,001,200032,
AFNE01.JPG,AFNE01.JPG,AFNE01.JPG,AFNE01.JPG,AFNE01.JPG,AFNE01.JPG,,,,,,,,,,,,,3,3,33,2,,,,,,,,,,,AFSA19.jpg,AFNE17.jpg,AFNE08.jpg,AFSA13.jpg,AFNE17.jpg,FN,3,num_6,16,num_6,,,0.700198185164,2017_Apr_03_1448,60.0053311685,MAFE4ImagesEEG,001,200032,
AFNE01.JPG,AFNE01.JPG,AFNE01.JPG,AFNE01.JPG,AFNE01.JPG,AFNE01.JPG,,,,,,,,,,,,,3,4,34,4,,,,,,,,,,,AFNE08.jpg,AFSA10.jpg,AFNE09.jpg,AFSA09.jpg,AFNE08.jpg,FN,3,num_8,16,num_8,,,0.883444154402,2017_Apr_03_1448,60.0053311685,MAFE4ImagesEEG,001,200032,
AFNE01.JPG,AFNE01.JPG,AFNE01.JPG,AFNE01.JPG,AFNE01.JPG,AFNE01.JPG,,,,,,,,,,,,,3,5,35,0,,,,,,,,,,,AFNE02.jpg,AFSA01.jpg,AFNE19.jpg,AFSA10.jpg,AFNE19.jpg,FN,3,num_2,32,num_4,,,1.80029463163,2017_Apr_03_1448,60.0053311685,MAFE4ImagesEEG,001,200032,
AFNE01.JPG,AFNE01.JPG,AFNE01.JPG,AFNE01.JPG,AFNE01.JPG,AFNE01.JPG,,,,,,,,,,,,,3,6,36,5,,,,,,,,,,,AFSA05.jpg,AFNE04.jpg,AFNE05.jpg,AFSA14.jpg,AFSA05.jpg,FS,4,num_8,16,num_8,,,1.23340613046,2017_Apr_03_1448,60.0053311685,MAFE4ImagesEEG,001,200032,
AFNE01.JPG,AFNE01.JPG,AFNE01.JPG,AFNE01.JPG,AFNE01.JPG,AFNE01.JPG,,,,,,,,,,,,,3,7,37,8,,,,,,,,,,,AFNE09.jpg,AFSA05.jpg,AFNE14.jpg,AFSA18.jpg,AFSA18.jpg,FS,4,num_4,16,num_4,,,1.41671977565,2017_Apr_03_1448,60.0053311685,MAFE4ImagesEEG,001,200032,
AFNE01.JPG,AFNE01.JPG,AFNE01.JPG,AFNE01.JPG,AFNE01.JPG,AFNE01.JPG,,,,,,,,,,,,,3,8,38,7,,,,,,,,,,,AFNE04.jpg,AFNE05.jpg,AFSA13.jpg,AFSA09.jpg,AFSA13.jpg,FS,4,num_2,32,num_6,,,0.366668345174,2017_Apr_03_1448,60.0053311685,MAFE4ImagesEEG,001,200032,
AFNE01.JPG,AFNE01.JPG,AFNE01.JPG,AFNE01.JPG,AFNE01.JPG,AFNE01.JPG,,,,,,,,,,,,,3,9,39,6,,,,,,,,,,,AFSA03.jpg,AFNE09.jpg,AFSA10.jpg,AFNE12.jpg,AFSA03.jpg,FS,4,num_8,32,num_2,,,1.3501091958,2017_Apr_03_1448,60.0053311685,MAFE4ImagesEEG,001,200032,
AFNE01.JPG,AFNE01.JPG,AFNE01.JPG,AFNE01.JPG,AFNE01.JPG,AFNE01.JPG,,,,,,,,,,,,,4,0,40,8,,,,,,,,,,,AFNE10.jpg,AFSA07.jpg,AFNE12.jpg,AFSA02.jpg,AFNE10.jpg,FN,3,num_8,32,num_4,,,0.550189188449,2017_Apr_03_1448,60.0053311685,MAFE4ImagesEEG,001,200032,
AFNE01.JPG,AFNE01.JPG,AFNE01.JPG,AFNE01.JPG,AFNE01.JPG,AFNE01.JPG,,,,,,,,,,,,,4,1,41,5,,,,,,,,,,,AFNE13.jpg,AFSA18.jpg,AFSA14.jpg,AFNE07.jpg,AFSA18.jpg,FS,4,num_6,32,num_8,,,0.633433970623,2017_Apr_03_1448,60.0053311685,MAFE4ImagesEEG,001,200032,
AFNE01.JPG,AFNE01.JPG,AFNE01.JPG,AFNE01.JPG,AFNE01.JPG,AFNE01.JPG,,,,,,,,,,,,,4,2,42,3,,,,,,,,,,,AFSA06.jpg,AFSA20.jpg,AFNE09.jpg,AFNE14.jpg,AFNE14.jpg,FN,3,num_4,16,num_4,,,1.01677853544,2017_Apr_03_1448,60.0053311685,MAFE4ImagesEEG,001,200032,
AFNE01.JPG,AFNE01.JPG,AFNE01.JPG,AFNE01.JPG,AFNE01.JPG,AFNE01.JPG,,,,,,,,,,,,,4,3,43,4,,,,,,,,,,,AFNE02.jpg,AFNE17.jpg,AFSA05.jpg,AFSA11.jpg,AFSA05.jpg,FS,4,num_2,16,num_2,,,1.58308713883,2017_Apr_03_1448,60.0053311685,MAFE4ImagesEEG,001,200032,
AFNE01.JPG,AFNE01.JPG,AFNE01.JPG,AFNE01.JPG,AFNE01.JPG,AFNE01.JPG,,,,,,,,,,,,,4,4,44,2,,,,,,,,,,,AFNE17.jpg,AFNE19.jpg,AFSA16.jpg,AFSA14.jpg,AFSA14.jpg,FS,4,num_4,32,num_6,,,0.466815147782,2017_Apr_03_1448,60.0053311685,MAFE4ImagesEEG,001,200032,
AFNE01.JPG,AFNE01.JPG,AFNE01.JPG,AFNE01.JPG,AFNE01.JPG,AFNE01.JPG,,,,,,,,,,,,,4,5,45,6,,,,,,,,,,,AFNE03.jpg,AFSA03.jpg,AFNE10.jpg,AFSA13.jpg,AFNE03.jpg,FN,3,num_8,32,num_4,,,0.583473309409,2017_Apr_03_1448,60.0053311685,MAFE4ImagesEEG,001,200032,
AFNE01.JPG,AFNE01.JPG,AFNE01.JPG,AFNE01.JPG,AFNE01.JPG,AFNE01.JPG,,,,,,,,,,,,,4,6,46,0,,,,,,,,,,,AFSA07.jpg,AFSA12.jpg,AFNE16.jpg,AFNE13.jpg,AFNE13.jpg,FN,3,num_4,32,num_6,,,0.750191882486,2017_Apr_03_1448,60.0053311685,MAFE4ImagesEEG,001,200032,
AFNE01.JPG,AFNE01.JPG,AFNE01.JPG,AFNE01.JPG,AFNE01.JPG,AFNE01.JPG,,,,,,,,,,,,,4,7,47,1,,,,,,,,,,,AFSA10.jpg,AFNE15.jpg,AFSA18.jpg,AFNE10.jpg,AFNE10.jpg,FN,3,num_4,32,num_8,,,0.550134983379,2017_Apr_03_1448,60.0053311685,MAFE4ImagesEEG,001,200032,
AFNE01.JPG,AFNE01.JPG,AFNE01.JPG,AFNE01.JPG,AFNE01.JPG,AFNE01.JPG,,,,,,,,,,,,,4,8,48,9,,,,,,,,,,,AFNE10.jpg,AFNE18.jpg,AFSA17.jpg,AFSA03.jpg,AFSA03.jpg,FS,4,num_4,32,num_2,,,0.566773034632,2017_Apr_03_1448,60.0053311685,MAFE4ImagesEEG,001,200032,
AFNE01.JPG,AFNE01.JPG,AFNE01.JPG,AFNE01.JPG,AFNE01.JPG,AFNE01.JPG,,,,,,,,,,,,,4,9,49,7,,,,,,,,,,,AFNE03.jpg,AFNE02.jpg,AFSA08.jpg,AFSA02.jpg,AFSA02.jpg,FS,4,num_4,16,num_4,,,0.633465403225,2017_Apr_03_1448,60.0053311685,MAFE4ImagesEEG,001,200032,
AFNE01.JPG,AFNE01.JPG,AFNE01.JPG,AFNE01.JPG,AFNE01.JPG,AFNE01.JPG,,,,,,,,,,,,,5,0,50,5,,,,,,,,,,,AFSA08.jpg,AFSA12.jpg,AFNE09.jpg,AFNE10.jpg,AFNE10.jpg,FN,3,num_4,32,num_6,,,0.883734744275,2017_Apr_03_1448,60.0053311685,MAFE4ImagesEEG,001,200032,
AFNE01.JPG,AFNE01.JPG,AFNE01.JPG,AFNE01.JPG,AFNE01.JPG,AFNE01.JPG,,,,,,,,,,,,,5,1,51,4,,,,,,,,,,,AFSA11.jpg,AFSA15.jpg,AFNE04.jpg,AFNE07.jpg,AFNE07.jpg,FN,3,num_4,16,num_4,,,0.766838914482,2017_Apr_03_1448,60.0053311685,MAFE4ImagesEEG,001,200032,
AFNE01.JPG,AFNE01.JPG,AFNE01.JPG,AFNE01.JPG,AFNE01.JPG,AFNE01.JPG,,,,,,,,,,,,,5,2,52,6,,,,,,,,,,,AFSA11.jpg,AFNE03.jpg,AFSA07.jpg,AFNE19.jpg,AFNE19.jpg,FN,3,num_4,16,num_4,,,0.7667827853,2017_Apr_03_1448,60.0053311685,MAFE4ImagesEEG,001,200032,
AFNE01.JPG,AFNE01.JPG,AFNE01.JPG,AFNE01.JPG,AFNE01.JPG,AFNE01.JPG,,,,,,,,,,,,,5,3,53,9,,,,,,,,,,,AFSA20.jpg,AFNE05.jpg,AFSA01.jpg,AFNE16.jpg,AFSA01.jpg,FS,4,num_2,32,num_8,,,1.38340871269,2017_Apr_03_1448,60.0053311685,MAFE4ImagesEEG,001,200032,
AFNE01.JPG,AFNE01.JPG,AFNE01.JPG,AFNE01.JPG,AFNE01.JPG,AFNE01.JPG,,,,,,,,,,,,,5,4,54,3,,,,,,,,,,,AFSA11.jpg,AFNE13.jpg,AFSA01.jpg,AFNE14.jpg,AFNE13.jpg,FN,3,num_6,16,num_6,,,0.583504100563,2017_Apr_03_1448,60.0053311685,MAFE4ImagesEEG,001,200032,
AFNE01.JPG,AFNE01.JPG,AFNE01.JPG,AFNE01.JPG,AFNE01.JPG,AFNE01.JPG,,,,,,,,,,,,,5,5,55,1,,,,,,,,,,,AFNE20.jpg,AFSA11.jpg,AFSA04.jpg,AFNE18.jpg,AFNE20.jpg,FN,3,num_8,32,num_6,,,0.900139938807,2017_Apr_03_1448,60.0053311685,MAFE4ImagesEEG,001,200032,
AFNE01.JPG,AFNE01.JPG,AFNE01.JPG,AFNE01.JPG,AFNE01.JPG,AFNE01.JPG,,,,,,,,,,,,,5,6,56,7,,,,,,,,,,,AFSA20.jpg,AFNE08.jpg,AFNE01.jpg,AFSA19.jpg,AFSA19.jpg,FS,4,num_4,16,num_4,,,0.73350700317,2017_Apr_03_1448,60.0053311685,MAFE4ImagesEEG,001,200032,
AFNE01.JPG,AFNE01.JPG,AFNE01.JPG,AFNE01.JPG,AFNE01.JPG,AFNE01.JPG,,,,,,,,,,,,,5,7,57,0,,,,,,,,,,,AFNE13.jpg,AFSA03.jpg,AFSA07.jpg,AFNE02.jpg,AFSA03.jpg,FS,4,num_6,16,num_6,,,0.716854839353,2017_Apr_03_1448,60.0053311685,MAFE4ImagesEEG,001,200032,
AFNE01.JPG,AFNE01.JPG,AFNE01.JPG,AFNE01.JPG,AFNE01.JPG,AFNE01.JPG,,,,,,,,,,,,,5,8,58,2,,,,,,,,,,,AFNE05.jpg,AFSA20.jpg,AFSA12.jpg,AFNE06.jpg,AFSA12.jpg,FS,4,num_2,32,num_4,,,0.833491190569,2017_Apr_03_1448,60.0053311685,MAFE4ImagesEEG,001,200032,
AFNE01.JPG,AFNE01.JPG,AFNE01.JPG,AFNE01.JPG,AFNE01.JPG,AFNE01.JPG,,,,,,,,,,,,,5,9,59,8,,,,,,,,,,,AFNE02.jpg,AFSA06.jpg,AFSA07.jpg,AFNE06.jpg,AFNE06.jpg,FN,3,num_4,32,num_6,,,0.56680125976,2017_Apr_03_1448,60.0053311685,MAFE4ImagesEEG,001,200032,
,,,,,,,,,,,,,,,,,,,,,,,,,,,,,,,,,,,,,,,,,,space,39.6134852443,,2017_Apr_03_1448,60.0053311685,MAFE4ImagesEEG,001,200032,
AFNE01.JPG,AFNE01.JPG,AFNE01.JPG,AFNE01.JPG,AFNE01.JPG,AFNE01.JPG,,,,,,,,,,,,,,,,,0,0,0,2,,,,,,,AMSA06.jpg,AMNE13.jpg,AMSA08.jpg,AMNE18.jpg,AMNE18.jpg,MN,1,num_4,16,num_4,,,1.98362303083,2017_Apr_03_1448,60.0053311685,MAFE4ImagesEEG,001,200032,
AFNE01.JPG,AFNE01.JPG,AFNE01.JPG,AFNE01.JPG,AFNE01.JPG,AFNE01.JPG,,,,,,,,,,,,,,,,,0,1,1,9,,,,,,,AMNE08.jpg,AMNE12.jpg,AMSA04.jpg,AMSA08.jpg,AMSA08.jpg,MS,2,num_4,16,num_4,,,0.733464986319,2017_Apr_03_1448,60.0053311685,MAFE4ImagesEEG,001,200032,
AFNE01.JPG,AFNE01.JPG,AFNE01.JPG,AFNE01.JPG,AFNE01.JPG,AFNE01.JPG,,,,,,,,,,,,,,,,,0,2,2,3,,,,,,,AMSA09.jpg,AMNE09.jpg,AMSA07.jpg,AMNE08.jpg,AMNE09.jpg,MN,1,num_6,32,num_8,,,0.483487197431,2017_Apr_03_1448,60.0053311685,MAFE4ImagesEEG,001,200032,
AFNE01.JPG,AFNE01.JPG,AFNE01.JPG,AFNE01.JPG,AFNE01.JPG,AFNE01.JPG,,,,,,,,,,,,,,,,,0,3,3,7,,,,,,,AMSA08.jpg,AMNE14.jpg,AMNE15.jpg,AMSA03.jpg,AMNE14.jpg,MN,1,num_6,32,num_4,,,0.700010231696,2017_Apr_03_1448,60.0053311685,MAFE4ImagesEEG,001,200032,
AFNE01.JPG,AFNE01.JPG,AFNE01.JPG,AFNE01.JPG,AFNE01.JPG,AFNE01.JPG,,,,,,,,,,,,,,,,,0,4,4,1,,,,,,,AMSA14.jpg,AMSA05.jpg,AMNE14.jpg,AMNE07.jpg,AMNE14.jpg,MN,1,num_2,32,num_6,,,0.566763733048,2017_Apr_03_1448,60.0053311685,MAFE4ImagesEEG,001,200032,
AFNE01.JPG,AFNE01.JPG,AFNE01.JPG,AFNE01.JPG,AFNE01.JPG,AFNE01.JPG,,,,,,,,,,,,,,,,,0,5,5,4,,,,,,,AMNE02.jpg,AMSA07.jpg,AMSA10.jpg,AMNE20.jpg,AMSA10.jpg,MS,2,num_2,32,num_4,,,0.566653398564,2017_Apr_03_1448,60.0053311685,MAFE4ImagesEEG,001,200032,
AFNE01.JPG,AFNE01.JPG,AFNE01.JPG,AFNE01.JPG,AFNE01.JPG,AFNE01.JPG,,,,,,,,,,,,,,,,,0,6,6,0,,,,,,,AMNE03.jpg,AMSA18.jpg,AMNE20.jpg,AMSA17.jpg,AMNE03.jpg,MN,1,num_8,32,num_6,,,0.583485176787,2017_Apr_03_1448,60.0053311685,MAFE4ImagesEEG,001,200032,
AFNE01.JPG,AFNE01.JPG,AFNE01.JPG,AFNE01.JPG,AFNE01.JPG,AFNE01.JPG,,,,,,,,,,,,,,,,,0,7,7,5,,,,,,,AMNE12.jpg,AMNE19.jpg,AMSA14.jpg,AMSA07.jpg,AMNE12.jpg,MN,1,num_8,32,num_4,,,0.600165245123,2017_Apr_03_1448,60.0053311685,MAFE4ImagesEEG,001,200032,
AFNE01.JPG,AFNE01.JPG,AFNE01.JPG,AFNE01.JPG,AFNE01.JPG,AFNE01.JPG,,,,,,,,,,,,,,,,,0,8,8,6,,,,,,,AMSA03.jpg,AMSA13.jpg,AMNE01.jpg,AMNE08.jpg,AMSA13.jpg,MS,2,num_6,32,num_8,,,0.849959570682,2017_Apr_03_1448,60.0053311685,MAFE4ImagesEEG,001,200032,
AFNE01.JPG,AFNE01.JPG,AFNE01.JPG,AFNE01.JPG,AFNE01.JPG,AFNE01.JPG,,,,,,,,,,,,,,,,,0,9,9,8,,,,,,,AMSA09.jpg,AMSA05.jpg,AMNE20.jpg,AMNE19.jpg,AMNE19.jpg,MN,1,num_4,16,num_4,,,0.633503250545,2017_Apr_03_1448,60.0053311685,MAFE4ImagesEEG,001,200032,
AFNE01.JPG,AFNE01.JPG,AFNE01.JPG,AFNE01.JPG,AFNE01.JPG,AFNE01.JPG,,,,,,,,,,,,,,,,,1,0,10,6,,,,,,,AMNE13.jpg,AMNE11.jpg,AMSA01.jpg,AMSA02.jpg,AMSA02.jpg,MS,2,num_4,32,num_2,,,1.74998981645,2017_Apr_03_1448,60.0053311685,MAFE4ImagesEEG,001,200032,
AFNE01.JPG,AFNE01.JPG,AFNE01.JPG,AFNE01.JPG,AFNE01.JPG,AFNE01.JPG,,,,,,,,,,,,,,,,,1,1,11,3,,,,,,,AMSA17.jpg,AMNE07.jpg,AMSA15.jpg,AMNE10.jpg,AMNE07.jpg,MN,1,num_6,32,num_4,,,0.466809695354,2017_Apr_03_1448,60.0053311685,MAFE4ImagesEEG,001,200032,
AFNE01.JPG,AFNE01.JPG,AFNE01.JPG,AFNE01.JPG,AFNE01.JPG,AFNE01.JPG,,,,,,,,,,,,,,,,,1,2,12,0,,,,,,,AMNE17.jpg,AMSA10.jpg,AMSA19.jpg,AMNE04.jpg,AMSA10.jpg,MS,2,num_6,16,num_6,,,0.550113172969,2017_Apr_03_1448,60.0053311685,MAFE4ImagesEEG,001,200032,
AFNE01.JPG,AFNE01.JPG,AFNE01.JPG,AFNE01.JPG,AFNE01.JPG,AFNE01.JPG,,,,,,,,,,,,,,,,,1,3,13,4,,,,,,,AMSA09.jpg,AMSA19.jpg,AMNE19.jpg,AMNE01.jpg,AMNE19.jpg,MN,1,num_2,32,num_4,,,0.700089133577,2017_Apr_03_1448,60.0053311685,MAFE4ImagesEEG,001,200032,
AFNE01.JPG,AFNE01.JPG,AFNE01.JPG,AFNE01.JPG,AFNE01.JPG,AFNE01.JPG,,,,,,,,,,,,,,,,,1,4,14,9,,,,,,,AMSA18.jpg,AMNE07.jpg,AMNE13.jpg,AMSA19.jpg,AMNE07.jpg,MN,1,num_6,32,num_4,,,0.400199115276,2017_Apr_03_1448,60.0053311685,MAFE4ImagesEEG,001,200032,
AFNE01.JPG,AFNE01.JPG,AFNE01.JPG,AFNE01.JPG,AFNE01.JPG,AFNE01.JPG,,,,,,,,,,,,,,,,,1,5,15,5,,,,,,,AMNE10.jpg,AMSA14.jpg,AMSA18.jpg,AMNE03.jpg,AMNE03.jpg,MN,1,num_4,32,num_6,,,0.600137982285,2017_Apr_03_1448,60.0053311685,MAFE4ImagesEEG,001,200032,
AFNE01.JPG,AFNE01.JPG,AFNE01.JPG,AFNE01.JPG,AFNE01.JPG,AFNE01.JPG,,,,,,,,,,,,,,,,,1,6,16,7,,,,,,,AMNE15.jpg,AMSA18.jpg,AMSA16.jpg,AMNE11.jpg,AMSA18.jpg,MS,2,num_6,32,num_8,,,0.783434949117,2017_Apr_03_1448,60.0053311685,MAFE4ImagesEEG,001,200032,
AFNE01.JPG,AFNE01.JPG,AFNE01.JPG,AFNE01.JPG,AFNE01.JPG,AFNE01.JPG,,,,,,,,,,,,,,,,,1,7,17,8,,,,,,,AMNE05.jpg,AMSA09.jpg,AMSA18.jpg,AMNE19.jpg,AMNE19.jpg,MN,1,num_4,32,num_2,,,1.1334238674,2017_Apr_03_1448,60.0053311685,MAFE4ImagesEEG,001,200032,
AFNE01.JPG,AFNE01.JPG,AFNE01.JPG,AFNE01.JPG,AFNE01.JPG,AFNE01.JPG,,,,,,,,,,,,,,,,,1,8,18,1,,,,,,,AMNE15.jpg,AMNE08.jpg,AMSA13.jpg,AMSA06.jpg,AMSA13.jpg,MS,2,num_2,32,num_4,,,0.600154340034,2017_Apr_03_1448,60.0053311685,MAFE4ImagesEEG,001,200032,
AFNE01.JPG,AFNE01.JPG,AFNE01.JPG,AFNE01.JPG,AFNE01.JPG,AFNE01.JPG,,,,,,,,,,,,,,,,,1,9,19,2,,,,,,,AMNE08.jpg,AMSA19.jpg,AMNE15.jpg,AMSA11.jpg,AMNE15.jpg,MN,1,num_2,32,num_6,,,0.450137645472,2017_Apr_03_1448,60.0053311685,MAFE4ImagesEEG,001,200032,
AFNE01.JPG,AFNE01.JPG,AFNE01.JPG,AFNE01.JPG,AFNE01.JPG,AFNE01.JPG,,,,,,,,,,,,,,,,,2,0,20,4,,,,,,,AMSA15.jpg,AMNE03.jpg,AMNE16.jpg,AMSA01.jpg,AMSA01.jpg,MS,2,num_4,32,num_2,,,0.0668447201606,2017_Apr_03_1448,60.0053311685,MAFE4ImagesEEG,001,200032,
AFNE01.JPG,AFNE01.JPG,AFNE01.JPG,AFNE01.JPG,AFNE01.JPG,AFNE01.JPG,,,,,,,,,,,,,,,,,2,1,21,3,,,,,,,AMSA10.jpg,AMNE13.jpg,AMSA18.jpg,AMNE20.jpg,AMNE13.jpg,MN,1,num_6,32,num_4,,,1.45009723213,2017_Apr_03_1448,60.0053311685,MAFE4ImagesEEG,001,200032,
AFNE01.JPG,AFNE01.JPG,AFNE01.JPG,AFNE01.JPG,AFNE01.JPG,AFNE01.JPG,,,,,,,,,,,,,,,,,2,2,22,7,,,,,,,AMSA17.jpg,AMNE01.jpg,AMSA12.jpg,AMNE08.jpg,AMNE08.jpg,MN,1,num_4,32,num_6,,,0.416793225333,2017_Apr_03_1448,60.0053311685,MAFE4ImagesEEG,001,200032,
AFNE01.JPG,AFNE01.JPG,AFNE01.JPG,AFNE01.JPG,AFNE01.JPG,AFNE01.JPG,,,,,,,,,,,,,,,,,2,3,23,1,,,,,,,AMSA16.jpg,AMSA11.jpg,AMNE13.jpg,AMNE18.jpg,AMSA16.jpg,MS,2,num_8,32,num_4,,,0.916781197535,2017_Apr_03_1448,60.0053311685,MAFE4ImagesEEG,001,200032,
AFNE01.JPG,AFNE01.JPG,AFNE01.JPG,AFNE01.JPG,AFNE01.JPG,AFNE01.JPG,,,,,,,,,,,,,,,,,2,4,24,0,,,,,,,AMSA10.jpg,AMNE12.jpg,AMSA04.jpg,AMNE14.jpg,AMSA04.jpg,MS,2,num_2,16,num_2,,,1.45010108105,2017_Apr_03_1448,60.0053311685,MAFE4ImagesEEG,001,200032,
AFNE01.JPG,AFNE01.JPG,AFNE01.JPG,AFNE01.JPG,AFNE01.JPG,AFNE01.JPG,,,,,,,,,,,,,,,,,2,5,25,9,,,,,,,AMNE03.jpg,AMSA13.jpg,AMNE09.jpg,AMSA06.jpg,AMNE09.jpg,MN,1,num_2,32,num_8,,,0.966769442428,2017_Apr_03_1448,60.0053311685,MAFE4ImagesEEG,001,200032,
AFNE01.JPG,AFNE01.JPG,AFNE01.JPG,AFNE01.JPG,AFNE01.JPG,AFNE01.JPG,,,,,,,,,,,,,,,,,2,6,26,8,,,,,,,AMSA15.jpg,AMNE05.jpg,AMSA13.jpg,AMNE03.jpg,AMSA15.jpg,MS,2,num_8,16,num_8,,,0.533513931092,2017_Apr_03_1448,60.0053311685,MAFE4ImagesEEG,001,200032,
AFNE01.JPG,AFNE01.JPG,AFNE01.JPG,AFNE01.JPG,AFNE01.JPG,AFNE01.JPG,,,,,,,,,,,,,,,,,2,7,27,6,,,,,,,AMNE04.jpg,AMSA13.jpg,AMSA09.jpg,AMNE08.jpg,AMSA09.jpg,MS,2,num_2,32,num_8,,,0.716768560233,2017_Apr_03_1448,60.0053311685,MAFE4ImagesEEG,001,200032,
AFNE01.JPG,AFNE01.JPG,AFNE01.JPG,AFNE01.JPG,AFNE01.JPG,AFNE01.JPG,,,,,,,,,,,,,,,,,2,8,28,5,,,,,,,AMNE17.jpg,AMNE07.jpg,AMSA08.jpg,AMSA03.jpg,AMSA08.jpg,MS,2,num_2,16,num_2,,,1.8834454373,2017_Apr_03_1448,60.0053311685,MAFE4ImagesEEG,001,200032,
AFNE01.JPG,AFNE01.JPG,AFNE01.JPG,AFNE01.JPG,AFNE01.JPG,AFNE01.JPG,,,,,,,,,,,,,,,,,2,9,29,2,,,,,,,AMNE20.jpg,AMSA18.jpg,AMSA13.jpg,AMNE14.jpg,AMNE14.jpg,MN,1,num_4,16,num_4,,,0.550100664143,2017_Apr_03_1448,60.0053311685,MAFE4ImagesEEG,001,200032,
AFNE01.JPG,AFNE01.JPG,AFNE01.JPG,AFNE01.JPG,AFNE01.JPG,AFNE01.JPG,,,,,,,,,,,,,,,,,3,0,30,6,,,,,,,AMSA15.jpg,AMNE20.jpg,AMNE03.jpg,AMSA08.jpg,AMNE20.jpg,MN,1,num_6,32,num_4,,,0.866752218688,2017_Apr_03_1448,60.0053311685,MAFE4ImagesEEG,001,200032,
AFNE01.JPG,AFNE01.JPG,AFNE01.JPG,AFNE01.JPG,AFNE01.JPG,AFNE01.JPG,,,,,,,,,,,,,,,,,3,1,31,7,,,,,,,AMSA03.jpg,AMNE05.jpg,AMSA02.jpg,AMNE12.jpg,AMSA03.jpg,MS,2,num_8,16,num_8,,,0.850120582152,2017_Apr_03_1448,60.0053311685,MAFE4ImagesEEG,001,200032,
AFNE01.JPG,AFNE01.JPG,AFNE01.JPG,AFNE01.JPG,AFNE01.JPG,AFNE01.JPG,,,,,,,,,,,,,,,,,3,2,32,2,,,,,,,AMSA10.jpg,AMNE15.jpg,AMNE19.jpg,AMSA01.jpg,AMSA01.jpg,MS,2,num_4,16,num_4,,,0.533541514771,2017_Apr_03_1448,60.0053311685,MAFE4ImagesEEG,001,200032,
AFNE01.JPG,AFNE01.JPG,AFNE01.JPG,AFNE01.JPG,AFNE01.JPG,AFNE01.JPG,,,,,,,,,,,,,,,,,3,3,33,3,,,,,,,AMNE17.jpg,AMSA04.jpg,AMSA20.jpg,AMNE05.jpg,AMNE05.jpg,MN,1,num_4,16,num_4,,,1.05032919138,2017_Apr_03_1448,60.0053311685,MAFE4ImagesEEG,001,200032,
AFNE01.JPG,AFNE01.JPG,AFNE01.JPG,AFNE01.JPG,AFNE01.JPG,AFNE01.JPG,,,,,,,,,,,,,,,,,3,4,34,9,,,,,,,AMNE08.jpg,AMNE19.jpg,AMSA17.jpg,AMSA13.jpg,AMNE08.jpg,MN,1,num_8,16,num_8,,,1.11678838218,2017_Apr_03_1448,60.0053311685,MAFE4ImagesEEG,001,200032,
AFNE01.JPG,AFNE01.JPG,AFNE01.JPG,AFNE01.JPG,AFNE01.JPG,AFNE01.JPG,,,,,,,,,,,,,,,,,3,5,35,8,,,,,,,AMNE18.jpg,AMNE09.jpg,AMSA07.jpg,AMSA15.jpg,AMSA15.jpg,MS,2,num_4,16,num_4,,,1.19992796192,2017_Apr_03_1448,60.0053311685,MAFE4ImagesEEG,001,200032,
AFNE01.JPG,AFNE01.JPG,AFNE01.JPG,AFNE01.JPG,AFNE01.JPG,AFNE01.JPG,,,,,,,,,,,,,,,,,3,6,36,5,,,,,,,AMNE06.jpg,AMSA01.jpg,AMNE05.jpg,AMSA03.jpg,AMSA01.jpg,MS,2,num_6,16,num_6,,,1.25005765283,2017_Apr_03_1448,60.0053311685,MAFE4ImagesEEG,001,200032,
AFNE01.JPG,AFNE01.JPG,AFNE01.JPG,AFNE01.JPG,AFNE01.JPG,AFNE01.JPG,,,,,,,,,,,,,,,,,3,7,37,1,,,,,,,AMSA17.jpg,AMNE09.jpg,AMNE04.jpg,AMSA16.jpg,AMNE09.jpg,MN,1,num_6,32,num_4,,,1.15009880392,2017_Apr_03_1448,60.0053311685,MAFE4ImagesEEG,001,200032,
AFNE01.JPG,AFNE01.JPG,AFNE01.JPG,AFNE01.JPG,AFNE01.JPG,AFNE01.JPG,,,,,,,,,,,,,,,,,3,8,38,0,,,,,,,AMNE03.jpg,AMSA08.jpg,AMNE02.jpg,AMSA04.jpg,AMNE03.jpg,MN,1,num_8,32,num_2,,,0.816615791991,2017_Apr_03_1448,60.0053311685,MAFE4ImagesEEG,001,200032,
AFNE01.JPG,AFNE01.JPG,AFNE01.JPG,AFNE01.JPG,AFNE01.JPG,AFNE01.JPG,,,,,,,,,,,,,,,,,3,9,39,4,,,,,,,AMNE08.jpg,AMSA01.jpg,AMNE13.jpg,AMSA03.jpg,AMNE08.jpg,MN,1,num_8,32,num_6,,,0.466812261147,2017_Apr_03_1448,60.0053311685,MAFE4ImagesEEG,001,200032,
AFNE01.JPG,AFNE01.JPG,AFNE01.JPG,AFNE01.JPG,AFNE01.JPG,AFNE01.JPG,,,,,,,,,,,,,,,,,4,0,40,0,,,,,,,AMSA15.jpg,AMNE09.jpg,AMNE17.jpg,AMSA14.jpg,AMNE09.jpg,MN,1,num_6,32,num_4,,,0.550168660935,2017_Apr_03_1448,60.0053311685,MAFE4ImagesEEG,001,200032,
AFNE01.JPG,AFNE01.JPG,AFNE01.JPG,AFNE01.JPG,AFNE01.JPG,AFNE01.JPG,,,,,,,,,,,,,,,,,4,1,41,5,,,,,,,AMNE17.jpg,AMSA05.jpg,AMSA20.jpg,AMNE08.jpg,AMSA05.jpg,MS,2,num_6,16,num_6,,,0.483499385417,2017_Apr_03_1448,60.0053311685,MAFE4ImagesEEG,001,200032,
AFNE01.JPG,AFNE01.JPG,AFNE01.JPG,AFNE01.JPG,AFNE01.JPG,AFNE01.JPG,,,,,,,,,,,,,,,,,4,2,42,8,,,,,,,AMSA11.jpg,AMNE18.jpg,AMSA03.jpg,AMNE16.jpg,AMNE16.jpg,MN,1,num_4,16,num_4,,,1.20006331406,2017_Apr_03_1448,60.0053311685,MAFE4ImagesEEG,001,200032,
AFNE01.JPG,AFNE01.JPG,AFNE01.JPG,AFNE01.JPG,AFNE01.JPG,AFNE01.JPG,,,,,,,,,,,,,,,,,4,3,43,4,,,,,,,AMNE02.jpg,AMSA17.jpg,AMNE13.jpg,AMSA08.jpg,AMSA17.jpg,MS,2,num_6,32,num_8,,,0.716501063434,2017_Apr_03_1448,60.0053311685,MAFE4ImagesEEG,001,200032,
AFNE01.JPG,AFNE01.JPG,AFNE01.JPG,AFNE01.JPG,AFNE01.JPG,AFNE01.JPG,,,,,,,,,,,,,,,,,4,4,44,9,,,,,,,AMNE13.jpg,AMNE17.jpg,AMSA19.jpg,AMSA11.jpg,AMSA11.jpg,MS,2,num_4,16,num_4,,,0.55016160477,2017_Apr_03_1448,60.0053311685,MAFE4ImagesEEG,001,200032,
AFNE01.JPG,AFNE01.JPG,AFNE01.JPG,AFNE01.JPG,AFNE01.JPG,AFNE01.JPG,,,,,,,,,,,,,,,,,4,5,45,6,,,,,,,AMSA13.jpg,AMNE11.jpg,AMSA20.jpg,AMNE10.jpg,AMSA13.jpg,MS,2,num_8,16,num_8,,,0.85022835061,2017_Apr_03_1448,60.0053311685,MAFE4ImagesEEG,001,200032,
AFNE01.JPG,AFNE01.JPG,AFNE01.JPG,AFNE01.JPG,AFNE01.JPG,AFNE01.JPG,,,,,,,,,,,,,,,,,4,6,46,2,,,,,,,AMNE17.jpg,AMNE02.jpg,AMSA17.jpg,AMSA19.jpg,AMNE17.jpg,MN,1,num_8,16,num_8,,,1.15002086433,2017_Apr_03_1448,60.0053311685,MAFE4ImagesEEG,001,200032,
AFNE01.JPG,AFNE01.JPG,AFNE01.JPG,AFNE01.JPG,AFNE01.JPG,AFNE01.JPG,,,,,,,,,,,,,,,,,4,7,47,3,,,,,,,AMNE06.jpg,AMNE19.jpg,AMSA02.jpg,AMSA10.jpg,AMSA02.jpg,MS,2,num_2,32,num_4,,,0.63344680029,2017_Apr_03_1448,60.0053311685,MAFE4ImagesEEG,001,200032,
AFNE01.JPG,AFNE01.JPG,AFNE01.JPG,AFNE01.JPG,AFNE01.JPG,AFNE01.JPG,,,,,,,,,,,,,,,,,4,8,48,1,,,,,,,AMNE12.jpg,AMNE07.jpg,AMSA11.jpg,AMSA17.jpg,AMNE12.jpg,MN,1,num_8,32,num_6,,,0.483476613183,2017_Apr_03_1448,60.0053311685,MAFE4ImagesEEG,001,200032,
AFNE01.JPG,AFNE01.JPG,AFNE01.JPG,AFNE01.JPG,AFNE01.JPG,AFNE01.JPG,,,,,,,,,,,,,,,,,4,9,49,7,,,,,,,AMSA16.jpg,AMSA12.jpg,AMNE13.jpg,AMNE02.jpg,AMNE13.jpg,MN,1,num_2,16,num_2,,,1.9166801644,2017_Apr_03_1448,60.0053311685,MAFE4ImagesEEG,001,200032,
AFNE01.JPG,AFNE01.JPG,AFNE01.JPG,AFNE01.JPG,AFNE01.JPG,AFNE01.JPG,,,,,,,,,,,,,,,,,5,0,50,8,,,,,,,AMSA11.jpg,AMSA14.jpg,AMNE02.jpg,AMNE20.jpg,AMSA14.jpg,MS,2,num_6,32,num_4,,,0.550146850757,2017_Apr_03_1448,60.0053311685,MAFE4ImagesEEG,001,200032,
AFNE01.JPG,AFNE01.JPG,AFNE01.JPG,AFNE01.JPG,AFNE01.JPG,AFNE01.JPG,,,,,,,,,,,,,,,,,5,1,51,3,,,,,,,AMNE18.jpg,AMSA03.jpg,AMSA04.jpg,AMNE03.jpg,AMSA04.jpg,MS,2,num_2,32,num_6,,,0.416790979914,2017_Apr_03_1448,60.0053311685,MAFE4ImagesEEG,001,200032,
AFNE01.JPG,AFNE01.JPG,AFNE01.JPG,AFNE01.JPG,AFNE01.JPG,AFNE01.JPG,,,,,,,,,,,,,,,,,5,2,52,0,,,,,,,AMSA02.jpg,AMNE09.jpg,AMNE02.jpg,AMSA15.jpg,AMNE02.jpg,MN,1,num_2,16,num_2,,,1.60006966465,2017_Apr_03_1448,60.0053311685,MAFE4ImagesEEG,001,200032,
AFNE01.JPG,AFNE01.JPG,AFNE01.JPG,AFNE01.JPG,AFNE01.JPG,AFNE01.JPG,,,,,,,,,,,,,,,,,5,3,53,6,,,,,,,AMNE07.jpg,AMSA06.jpg,AMSA05.jpg,AMNE17.jpg,AMNE17.jpg,MN,1,num_4,32,num_6,,,0.949993472779,2017_Apr_03_1448,60.0053311685,MAFE4ImagesEEG,001,200032,
AFNE01.JPG,AFNE01.JPG,AFNE01.JPG,AFNE01.JPG,AFNE01.JPG,AFNE01.JPG,,,,,,,,,,,,,,,,,5,4,54,5,,,,,,,AMSA04.jpg,AMSA08.jpg,AMNE10.jpg,AMNE20.jpg,AMSA04.jpg,MS,2,num_8,32,num_6,,,1.46646650368,2017_Apr_03_1448,60.0053311685,MAFE4ImagesEEG,001,200032,
AFNE01.JPG,AFNE01.JPG,AFNE01.JPG,AFNE01.JPG,AFNE01.JPG,AFNE01.JPG,,,,,,,,,,,,,,,,,5,5,55,7,,,,,,,AMSA06.jpg,AMNE10.jpg,AMNE03.jpg,AMSA09.jpg,AMNE03.jpg,MN,1,num_2,16,num_2,,,1.2668717904,2017_Apr_03_1448,60.0053311685,MAFE4ImagesEEG,001,200032,
AFNE01.JPG,AFNE01.JPG,AFNE01.JPG,AFNE01.JPG,AFNE01.JPG,AFNE01.JPG,,,,,,,,,,,,,,,,,5,6,56,1,,,,,,,AMSA18.jpg,AMNE14.jpg,AMSA11.jpg,AMNE18.jpg,AMSA18.jpg,MS,2,num_8,32,num_4,,,0.616794636473,2017_Apr_03_1448,60.0053311685,MAFE4ImagesEEG,001,200032,
AFNE01.JPG,AFNE01.JPG,AFNE01.JPG,AFNE01.JPG,AFNE01.JPG,AFNE01.JPG,,,,,,,,,,,,,,,,,5,7,57,4,,,,,,,AMNE16.jpg,AMSA02.jpg,AMSA10.jpg,AMNE02.jpg,AMNE16.jpg,MN,1,num_8,16,num_8,,,0.750123564852,2017_Apr_03_1448,60.0053311685,MAFE4ImagesEEG,001,200032,
AFNE01.JPG,AFNE01.JPG,AFNE01.JPG,AFNE01.JPG,AFNE01.JPG,AFNE01.JPG,,,,,,,,,,,,,,,,,5,8,58,2,,,,,,,AMNE07.jpg,AMSA13.jpg,AMSA17.jpg,AMNE14.jpg,AMNE14.jpg,MN,1,num_4,16,num_4,,,0.650101850973,2017_Apr_03_1448,60.0053311685,MAFE4ImagesEEG,001,200032,
AFNE01.JPG,AFNE01.JPG,AFNE01.JPG,AFNE01.JPG,AFNE01.JPG,AFNE01.JPG,,,,,,,,,,,,,,,,,5,9,59,9,,,,,,,AMNE01.jpg,AMNE07.jpg,AMSA13.jpg,AMSA06.jpg,AMNE07.jpg,MN,1,num_6,32,num_2,,,1.41672971891,2017_Apr_03_1448,60.0053311685,MAFE4ImagesEEG,001,200032,
,,,,,,,,,,,,,,,,,,,,,,,,,,,,,,,,,,,,,,,,,,space,19.9153333784,,2017_Apr_03_1448,60.0053311685,MAFE4ImagesEEG,001,200032,
AFNE01.JPG,AFNE01.JPG,AFNE01.JPG,AFNE01.JPG,AFNE01.JPG,AFNE01.JPG,,,,,,,,,,,,,,,,,,,,,0,0,0,1,,,AFNE01.jpg,AFSA19.jpg,AFSA12.jpg,AFNE07.jpg,AFNE07.jpg,FN,3,num_4,32,num_8,,,1.78340768605,2017_Apr_03_1448,60.0053311685,MAFE4ImagesEEG,001,200032,
AFNE01.JPG,AFNE01.JPG,AFNE01.JPG,AFNE01.JPG,AFNE01.JPG,AFNE01.JPG,,,,,,,,,,,,,,,,,,,,,0,1,1,8,,,AFSA15.jpg,AFNE04.jpg,AFNE20.jpg,AFSA05.jpg,AFSA05.jpg,FS,4,num_4,32,num_2,,,1.43343320093,2017_Apr_03_1448,60.0053311685,MAFE4ImagesEEG,001,200032,
AFNE01.JPG,AFNE01.JPG,AFNE01.JPG,AFNE01.JPG,AFNE01.JPG,AFNE01.JPG,,,,,,,,,,,,,,,,,,,,,0,2,2,6,,,AFNE08.jpg,AFNE02.jpg,AFSA04.jpg,AFSA11.jpg,AFSA11.jpg,FS,4,num_4,16,num_4,,,2.10001080902,2017_Apr_03_1448,60.0053311685,MAFE4ImagesEEG,001,200032,
AFNE01.JPG,AFNE01.JPG,AFNE01.JPG,AFNE01.JPG,AFNE01.JPG,AFNE01.JPG,,,,,,,,,,,,,,,,,,,,,0,3,3,0,,,AFSA20.jpg,AFNE19.jpg,AFNE03.jpg,AFSA09.jpg,AFNE19.jpg,FN,3,num_6,32,num_4,,,0.750061341561,2017_Apr_03_1448,60.0053311685,MAFE4ImagesEEG,001,200032,
AFNE01.JPG,AFNE01.JPG,AFNE01.JPG,AFNE01.JPG,AFNE01.JPG,AFNE01.JPG,,,,,,,,,,,,,,,,,,,,,0,4,4,7,,,AFNE03.jpg,AFSA10.jpg,AFSA17.jpg,AFNE01.jpg,AFNE03.jpg,FN,3,num_8,32,num_4,,,1.80003002123,2017_Apr_03_1448,60.0053311685,MAFE4ImagesEEG,001,200032,
AFNE01.JPG,AFNE01.JPG,AFNE01.JPG,AFNE01.JPG,AFNE01.JPG,AFNE01.JPG,,,,,,,,,,,,,,,,,,,,,0,5,5,5,,,AFSA04.jpg,AFSA17.jpg,AFNE03.jpg,AFNE09.jpg,AFSA17.jpg,FS,4,num_6,16,num_6,,,0.450163304573,2017_Apr_03_1448,60.0053311685,MAFE4ImagesEEG,001,200032,
AFNE01.JPG,AFNE01.JPG,AFNE01.JPG,AFNE01.JPG,AFNE01.JPG,AFNE01.JPG,,,,,,,,,,,,,,,,,,,,,0,6,6,3,,,AFSA05.jpg,AFSA07.jpg,AFNE07.jpg,AFNE17.jpg,AFNE07.jpg,FN,3,num_2,16,num_2,,,1.68342702673,2017_Apr_03_1448,60.0053311685,MAFE4ImagesEEG,001,200032,
AFNE01.JPG,AFNE01.JPG,AFNE01.JPG,AFNE01.JPG,AFNE01.JPG,AFNE01.JPG,,,,,,,,,,,,,,,,,,,,,0,7,7,2,,,AFNE20.jpg,AFSA09.jpg,AFSA16.jpg,AFNE02.jpg,AFNE02.jpg,FN,3,num_4,32,num_8,,,0.400103534805,2017_Apr_03_1448,60.0053311685,MAFE4ImagesEEG,001,200032,
AFNE01.JPG,AFNE01.JPG,AFNE01.JPG,AFNE01.JPG,AFNE01.JPG,AFNE01.JPG,,,,,,,,,,,,,,,,,,,,,0,8,8,4,,,AFNE05.jpg,AFSA16.jpg,AFNE08.jpg,AFSA13.jpg,AFNE05.jpg,FN,3,num_8,32,num_4,,,0.583489346318,2017_Apr_03_1448,60.0053311685,MAFE4ImagesEEG,001,200032,
AFNE01.JPG,AFNE01.JPG,AFNE01.JPG,AFNE01.JPG,AFNE01.JPG,AFNE01.JPG,,,,,,,,,,,,,,,,,,,,,0,9,9,9,,,AFNE20.jpg,AFSA06.jpg,AFSA02.jpg,AFNE17.jpg,AFSA02.jpg,FS,4,num_2,32,num_6,,,0.500180095201,2017_Apr_03_1448,60.0053311685,MAFE4ImagesEEG,001,200032,
AFNE01.JPG,AFNE01.JPG,AFNE01.JPG,AFNE01.JPG,AFNE01.JPG,AFNE01.JPG,,,,,,,,,,,,,,,,,,,,,1,0,10,4,,,AFNE06.jpg,AFSA02.jpg,AFNE19.jpg,AFSA11.jpg,AFNE06.jpg,FN,3,num_8,16,num_8,,,0.633437498938,2017_Apr_03_1448,60.0053311685,MAFE4ImagesEEG,001,200032,
AFNE01.JPG,AFNE01.JPG,AFNE01.JPG,AFNE01.JPG,AFNE01.JPG,AFNE01.JPG,,,,,,,,,,,,,,,,,,,,,1,1,11,9,,,AFNE14.jpg,AFSA01.jpg,AFSA05.jpg,AFNE19.jpg,AFSA05.jpg,FS,4,num_2,32,num_4,,,0.533651207807,2017_Apr_03_1448,60.0053311685,MAFE4ImagesEEG,001,200032,
AFNE01.JPG,AFNE01.JPG,AFNE01.JPG,AFNE01.JPG,AFNE01.JPG,AFNE01.JPG,,,,,,,,,,,,,,,,,,,,,1,2,12,6,,,AFSA07.jpg,AFNE08.jpg,AFSA10.jpg,AFNE14.jpg,AFSA10.jpg,FS,4,num_2,32,num_6,,,0.650142905768,2017_Apr_03_1448,60.0053311685,MAFE4ImagesEEG,001,200032,
AFNE01.JPG,AFNE01.JPG,AFNE01.JPG,AFNE01.JPG,AFNE01.JPG,AFNE01.JPG,,,,,,,,,,,,,,,,,,,,,1,3,13,1,,,AFNE19.jpg,AFNE03.jpg,AFSA13.jpg,AFSA02.jpg,AFNE19.jpg,FN,3,num_8,32,num_4,,,0.600223940564,2017_Apr_03_1448,60.0053311685,MAFE4ImagesEEG,001,200032,
AFNE01.JPG,AFNE01.JPG,AFNE01.JPG,AFNE01.JPG,AFNE01.JPG,AFNE01.JPG,,,,,,,,,,,,,,,,,,,,,1,4,14,7,,,AFNE01.jpg,AFNE07.jpg,AFSA03.jpg,AFSA18.jpg,AFSA18.jpg,FS,4,num_4,32,num_8,,,0.666766844224,2017_Apr_03_1448,60.0053311685,MAFE4ImagesEEG,001,200032,
AFNE01.JPG,AFNE01.JPG,AFNE01.JPG,AFNE01.JPG,AFNE01.JPG,AFNE01.JPG,,,,,,,,,,,,,,,,,,,,,1,5,15,3,,,AFSA08.jpg,AFSA05.jpg,AFNE05.jpg,AFNE15.jpg,AFNE15.jpg,FN,3,num_4,32,num_6,,,0.650440872647,2017_Apr_03_1448,60.0053311685,MAFE4ImagesEEG,001,200032,
AFNE01.JPG,AFNE01.JPG,AFNE01.JPG,AFNE01.JPG,AFNE01.JPG,AFNE01.JPG,,,,,,,,,,,,,,,,,,,,,1,6,16,2,,,AFNE10.jpg,AFSA15.jpg,AFNE18.jpg,AFSA10.jpg,AFNE10.jpg,FN,3,num_8,32,num_4,,,0.616787900915,2017_Apr_03_1448,60.0053311685,MAFE4ImagesEEG,001,200032,
AFNE01.JPG,AFNE01.JPG,AFNE01.JPG,AFNE01.JPG,AFNE01.JPG,AFNE01.JPG,,,,,,,,,,,,,,,,,,,,,1,7,17,0,,,AFNE07.jpg,AFSA13.jpg,AFSA12.jpg,AFNE18.jpg,AFSA13.jpg,FS,4,num_6,32,num_2,,,0.950128825149,2017_Apr_03_1448,60.0053311685,MAFE4ImagesEEG,001,200032,
AFNE01.JPG,AFNE01.JPG,AFNE01.JPG,AFNE01.JPG,AFNE01.JPG,AFNE01.JPG,,,,,,,,,,,,,,,,,,,,,1,8,18,8,,,AFSA06.jpg,AFNE15.jpg,AFSA08.jpg,AFNE04.jpg,AFSA06.jpg,FS,4,num_8,32,num_4,,,0.383523537312,2017_Apr_03_1448,60.0053311685,MAFE4ImagesEEG,001,200032,
AFNE01.JPG,AFNE01.JPG,AFNE01.JPG,AFNE01.JPG,AFNE01.JPG,AFNE01.JPG,,,,,,,,,,,,,,,,,,,,,1,9,19,5,,,AFNE15.jpg,AFSA20.jpg,AFSA01.jpg,AFNE08.jpg,AFSA20.jpg,FS,4,num_6,32,num_8,,,0.666789937764,2017_Apr_03_1448,60.0053311685,MAFE4ImagesEEG,001,200032,
AFNE01.JPG,AFNE01.JPG,AFNE01.JPG,AFNE01.JPG,AFNE01.JPG,AFNE01.JPG,,,,,,,,,,,,,,,,,,,,,2,0,20,6,,,AFSA02.jpg,AFNE01.jpg,AFSA16.jpg,AFNE20.jpg,AFNE20.jpg,FN,3,num_4,32,num_6,,,0.516788318055,2017_Apr_03_1448,60.0053311685,MAFE4ImagesEEG,001,200032,
AFNE01.JPG,AFNE01.JPG,AFNE01.JPG,AFNE01.JPG,AFNE01.JPG,AFNE01.JPG,,,,,,,,,,,,,,,,,,,,,2,1,21,3,,,AFSA04.jpg,AFNE02.jpg,AFSA12.jpg,AFNE19.jpg,AFNE19.jpg,FN,3,num_4,16,num_4,,,0.716731675435,2017_Apr_03_1448,60.0053311685,MAFE4ImagesEEG,001,200032,
AFNE01.JPG,AFNE01.JPG,AFNE01.JPG,AFNE01.JPG,AFNE01.JPG,AFNE01.JPG,,,,,,,,,,,,,,,,,,,,,2,2,22,7,,,AFSA13.jpg,AFNE19.jpg,AFNE13.jpg,AFSA09.jpg,AFSA09.jpg,FS,4,num_4,16,num_4,,,0.633192774374,2017_Apr_03_1448,60.0053311685,MAFE4ImagesEEG,001,200032,
AFNE01.JPG,AFNE01.JPG,AFNE01.JPG,AFNE01.JPG,AFNE01.JPG,AFNE01.JPG,,,,,,,,,,,,,,,,,,,,,2,3,23,0,,,AFNE15.jpg,AFSA04.jpg,AFSA15.jpg,AFNE18.jpg,AFNE18.jpg,FN,3,num_4,32,num_8,,,1.01673395257,2017_Apr_03_1448,60.0053311685,MAFE4ImagesEEG,001,200032,
AFNE01.JPG,AFNE01.JPG,AFNE01.JPG,AFNE01.JPG,AFNE01.JPG,AFNE01.JPG,,,,,,,,,,,,,,,,,,,,,2,4,24,1,,,AFNE20.jpg,AFNE06.jpg,AFSA17.jpg,AFSA07.jpg,AFSA07.jpg,FS,4,num_4,32,num_2,,,1.76669682702,2017_Apr_03_1448,60.0053311685,MAFE4ImagesEEG,001,200032,
AFNE01.JPG,AFNE01.JPG,AFNE01.JPG,AFNE01.JPG,AFNE01.JPG,AFNE01.JPG,,,,,,,,,,,,,,,,,,,,,2,5,25,8,,,AFSA07.jpg,AFSA04.jpg,AFNE06.jpg,AFNE15.jpg,AFSA07.jpg,FS,4,num_8,32,num_4,,,0.716774012893,2017_Apr_03_1448,60.0053311685,MAFE4ImagesEEG,001,200032,
AFNE01.JPG,AFNE01.JPG,AFNE01.JPG,AFNE01.JPG,AFNE01.JPG,AFNE01.JPG,,,,,,,,,,,,,,,,,,,,,2,6,26,4,,,AFSA01.jpg,AFSA14.jpg,AFNE09.jpg,AFNE14.jpg,AFSA14.jpg,FS,4,num_6,16,num_6,,,0.450167794945,2017_Apr_03_1448,60.0053311685,MAFE4ImagesEEG,001,200032,
AFNE01.JPG,AFNE01.JPG,AFNE01.JPG,AFNE01.JPG,AFNE01.JPG,AFNE01.JPG,,,,,,,,,,,,,,,,,,,,,2,7,27,2,,,AFSA13.jpg,AFNE06.jpg,AFNE20.jpg,AFSA05.jpg,AFNE06.jpg,FN,3,num_6,32,num_4,,,0.63344712113,2017_Apr_03_1448,60.0053311685,MAFE4ImagesEEG,001,200032,
AFNE01.JPG,AFNE01.JPG,AFNE01.JPG,AFNE01.JPG,AFNE01.JPG,AFNE01.JPG,,,,,,,,,,,,,,,,,,,,,2,8,28,5,,,AFNE15.jpg,AFNE04.jpg,AFSA05.jpg,AFSA20.jpg,AFSA20.jpg,FS,4,num_4,32,num_8,,,0.600069664652,2017_Apr_03_1448,60.0053311685,MAFE4ImagesEEG,001,200032,
AFNE01.JPG,AFNE01.JPG,AFNE01.JPG,AFNE01.JPG,AFNE01.JPG,AFNE01.JPG,,,,,,,,,,,,,,,,,,,,,2,9,29,9,,,AFSA18.jpg,AFNE14.jpg,AFSA09.jpg,AFNE13.jpg,AFNE13.jpg,FN,3,num_4,32,num_2,,,0.316843677545,2017_Apr_03_1448,60.0053311685,MAFE4ImagesEEG,001,200032,
AFNE01.JPG,AFNE01.JPG,AFNE01.JPG,AFNE01.JPG,AFNE01.JPG,AFNE01.JPG,,,,,,,,,,,,,,,,,,,,,3,0,30,6,,,AFSA14.jpg,AFSA06.jpg,AFNE04.jpg,AFNE10.jpg,AFNE04.jpg,FN,3,num_2,32,num_4,,,1.21672060969,2017_Apr_03_1448,60.0053311685,MAFE4ImagesEEG,001,200032,
AFNE01.JPG,AFNE01.JPG,AFNE01.JPG,AFNE01.JPG,AFNE01.JPG,AFNE01.JPG,,,,,,,,,,,,,,,,,,,,,3,1,31,2,,,AFSA07.jpg,AFNE17.jpg,AFNE16.jpg,AFSA20.jpg,AFNE17.jpg,FN,3,num_6,16,num_6,,,0.416783602908,2017_Apr_03_1448,60.0053311685,MAFE4ImagesEEG,001,200032,
AFNE01.JPG,AFNE01.JPG,AFNE01.JPG,AFNE01.JPG,AFNE01.JPG,AFNE01.JPG,,,,,,,,,,,,,,,,,,,,,3,2,32,8,,,AFSA11.jpg,AFNE12.jpg,AFSA14.jpg,AFNE20.jpg,AFNE20.jpg,FN,3,num_4,32,num_8,,,0.566733583808,2017_Apr_03_1448,60.0053311685,MAFE4ImagesEEG,001,200032,
AFNE01.JPG,AFNE01.JPG,AFNE01.JPG,AFNE01.JPG,AFNE01.JPG,AFNE01.JPG,,,,,,,,,,,,,,,,,,,,,3,3,33,5,,,AFNE09.jpg,AFSA05.jpg,AFSA01.jpg,AFNE14.jpg,AFSA01.jpg,FS,4,num_2,16,num_2,,,1.90003890567,2017_Apr_03_1448,60.0053311685,MAFE4ImagesEEG,001,200032,
AFNE01.JPG,AFNE01.JPG,AFNE01.JPG,AFNE01.JPG,AFNE01.JPG,AFNE01.JPG,,,,,,,,,,,,,,,,,,,,,3,4,34,1,,,AFNE14.jpg,AFSA10.jpg,AFNE06.jpg,AFSA14.jpg,AFSA14.jpg,FS,4,num_4,32,num_8,,,1.03344032145,2017_Apr_03_1448,60.0053311685,MAFE4ImagesEEG,001,200032,
AFNE01.JPG,AFNE01.JPG,AFNE01.JPG,AFNE01.JPG,AFNE01.JPG,AFNE01.JPG,,,,,,,,,,,,,,,,,,,,,3,5,35,9,,,AFNE20.jpg,AFNE10.jpg,AFSA19.jpg,AFSA13.jpg,AFSA19.jpg,FS,4,num_2,32,num_4,,,0.849889970385,2017_Apr_03_1448,60.0053311685,MAFE4ImagesEEG,001,200032,
AFNE01.JPG,AFNE01.JPG,AFNE01.JPG,AFNE01.JPG,AFNE01.JPG,AFNE01.JPG,,,,,,,,,,,,,,,,,,,,,3,6,36,0,,,AFNE02.jpg,AFSA02.jpg,AFNE04.jpg,AFSA07.jpg,AFSA02.jpg,FS,4,num_6,32,num_8,,,0.833475474501,2017_Apr_03_1448,60.0053311685,MAFE4ImagesEEG,001,200032,
AFNE01.JPG,AFNE01.JPG,AFNE01.JPG,AFNE01.JPG,AFNE01.JPG,AFNE01.JPG,,,,,,,,,,,,,,,,,,,,,3,7,37,4,,,AFNE16.jpg,AFNE17.jpg,AFSA19.jpg,AFSA10.jpg,AFSA19.jpg,FS,4,num_2,16,num_2,,,0.833385988139,2017_Apr_03_1448,60.0053311685,MAFE4ImagesEEG,001,200032,
AFNE01.JPG,AFNE01.JPG,AFNE01.JPG,AFNE01.JPG,AFNE01.JPG,AFNE01.JPG,,,,,,,,,,,,,,,,,,,,,3,8,38,3,,,AFSA09.jpg,AFSA14.jpg,AFNE01.jpg,AFNE18.jpg,AFSA14.jpg,FS,4,num_6,32,num_2,,,1.35018424899,2017_Apr_03_1448,60.0053311685,MAFE4ImagesEEG,001,200032,
AFNE01.JPG,AFNE01.JPG,AFNE01.JPG,AFNE01.JPG,AFNE01.JPG,AFNE01.JPG,,,,,,,,,,,,,,,,,,,,,3,9,39,7,,,AFNE08.jpg,AFSA02.jpg,AFNE14.jpg,AFSA19.jpg,AFNE14.jpg,FN,3,num_2,16,num_2,,,1.46674554725,2017_Apr_03_1448,60.0053311685,MAFE4ImagesEEG,001,200032,
AFNE01.JPG,AFNE01.JPG,AFNE01.JPG,AFNE01.JPG,AFNE01.JPG,AFNE01.JPG,,,,,,,,,,,,,,,,,,,,,4,0,40,4,,,AFNE08.jpg,AFSA02.jpg,AFSA06.jpg,AFNE12.jpg,AFSA02.jpg,FS,4,num_6,32,num_4,,,0.50017207698,2017_Apr_03_1448,60.0053311685,MAFE4ImagesEEG,001,200032,
AFNE01.JPG,AFNE01.JPG,AFNE01.JPG,AFNE01.JPG,AFNE01.JPG,AFNE01.JPG,,,,,,,,,,,,,,,,,,,,,4,1,41,0,,,AFNE19.jpg,AFNE11.jpg,AFSA07.jpg,AFSA13.jpg,AFSA07.jpg,FS,4,num_2,32,num_6,,,1.18344450719,2017_Apr_03_1448,60.0053311685,MAFE4ImagesEEG,001,200032,
AFNE01.JPG,AFNE01.JPG,AFNE01.JPG,AFNE01.JPG,AFNE01.JPG,AFNE01.JPG,,,,,,,,,,,,,,,,,,,,,4,2,42,1,,,AFNE20.jpg,AFSA02.jpg,AFSA05.jpg,AFNE12.jpg,AFSA02.jpg,FS,4,num_6,32,num_4,,,0.95009995834,2017_Apr_03_1448,60.0053311685,MAFE4ImagesEEG,001,200032,
