IPosition2,IPosition3,IPosition1,IPosition6,IPosition4,IPosition5,TrialsF1.thisRepN,TrialsF1.thisTrialN,TrialsF1.thisN,TrialsF1.thisIndex,TrialsM1.thisRepN,TrialsM1.thisTrialN,TrialsM1.thisN,TrialsM1.thisIndex,TrialsF2.thisRepN,TrialsF2.thisTrialN,TrialsF2.thisN,TrialsF2.thisIndex,TrialsM2.thisRepN,TrialsM2.thisTrialN,TrialsM2.thisN,TrialsM2.thisIndex,TrialsF3.thisRepN,TrialsF3.thisTrialN,TrialsF3.thisN,TrialsF3.thisIndex,TrialsM3.thisRepN,TrialsM3.thisTrialN,TrialsM3.thisN,TrialsM3.thisIndex,InstrKey_resp.keys,InstrKey_resp.rt,Image0 _Position,Image1 _Position,Image2 _Position,Image3 _Position,Center_image,condition,code,correct_answer,accuracy,Key_Resp.keys,Key_Resp.rt,BreakKey_resp.keys,BreakKey_resp.rt,date,frameRate,expName,session,participant,
,,,,,,,,,,,,,,,,,,,,,,,,,,,,,,space,3.71680838027,,,,,,,,,,,,,,2017_Mar_13_1926,59.9790693868,FEMA4ImagesEEG,001,200048,
AFSA21.JPG,AFNE23.JPG,AFNE21.JPG,AFSA25.JPG,AFNE25.JPG,AFSA23.JPG,0,0,0,4,,,,,,,,,,,,,,,,,,,,,,,AFSA15.jpg,AFNE15.jpg,AFSA11.jpg,AFNE12.jpg,AFSA11.jpg,FS,4,num_2,32,num_8,1.21681287064,,,2017_Mar_13_1926,59.9790693868,FEMA4ImagesEEG,001,200048,
AFNE23.JPG,AFNE24.JPG,AFNE22.JPG,AFSA24.JPG,AFSA22.JPG,AFSA23.JPG,0,1,1,8,,,,,,,,,,,,,,,,,,,,,,,AFSA07.jpg,AFNE10.jpg,AFSA01.jpg,AFNE13.jpg,AFSA07.jpg,FS,4,num_8,32,num_2,1.71673685522,,,2017_Mar_13_1926,59.9790693868,FEMA4ImagesEEG,001,200048,
AFNE22.JPG,AFSA24.JPG,AFSA22.JPG,AFNE25.JPG,AFNE24.JPG,AFSA25.JPG,0,2,2,6,,,,,,,,,,,,,,,,,,,,,,,AFNE18.jpg,AFNE12.jpg,AFSA04.jpg,AFSA17.jpg,AFSA17.jpg,FS,4,num_4,32,num_8,0.816743270028,,,2017_Mar_13_1926,59.9790693868,FEMA4ImagesEEG,001,200048,
AMSA21.JPG,AMNE23.JPG,AMNE21.JPG,AMSA25.JPG,AMNE25.JPG,AMSA23.JPG,0,3,3,5,,,,,,,,,,,,,,,,,,,,,,,AFNE20.jpg,AFSA19.jpg,AFNE12.jpg,AFSA20.jpg,AFSA20.jpg,FS,4,num_4,16,num_4,1.08347162575,,,2017_Mar_13_1926,59.9790693868,FEMA4ImagesEEG,001,200048,
AFSA25.JPG,AFNE24.JPG,AFSA24.JPG,AFNE21.JPG,AFSA21.JPG,AFNE25.JPG,0,4,4,2,,,,,,,,,,,,,,,,,,,,,,,AFSA07.jpg,AFNE08.jpg,AFSA03.jpg,AFNE13.jpg,AFNE13.jpg,FN,3,num_4,32,num_8,0.600217782485,,,2017_Mar_13_1926,59.9790693868,FEMA4ImagesEEG,001,200048,
AMNE22.JPG,AMSA24.JPG,AMSA22.JPG,AMNE25.JPG,AMNE24.JPG,AMSA25.JPG,0,5,5,7,,,,,,,,,,,,,,,,,,,,,,,AFNE08.jpg,AFSA20.jpg,AFNE16.jpg,AFSA16.jpg,AFNE16.jpg,FN,3,num_2,32,num_6,0.716816078057,,,2017_Mar_13_1926,59.9790693868,FEMA4ImagesEEG,001,200048,
AFSA21.JPG,AFNE22.JPG,AFNE21.JPG,AFSA23.JPG,AFSA22.JPG,AFNE23.JPG,0,6,6,0,,,,,,,,,,,,,,,,,,,,,,,AFSA17.jpg,AFSA10.jpg,AFNE06.jpg,AFNE16.jpg,AFSA10.jpg,FS,4,num_6,32,num_8,0.516839812801,,,2017_Mar_13_1926,59.9790693868,FEMA4ImagesEEG,001,200048,
AMSA21.JPG,AMNE22.JPG,AMNE21.JPG,AMSA23.JPG,AMSA22.JPG,AMNE23.JPG,0,7,7,1,,,,,,,,,,,,,,,,,,,,,,,AFSA02.jpg,AFSA14.jpg,AFNE01.jpg,AFNE06.jpg,AFNE01.jpg,FN,3,num_2,16,num_2,1.78338695038,,,2017_Mar_13_1926,59.9790693868,FEMA4ImagesEEG,001,200048,
AMSA25.JPG,AMNE24.JPG,AMSA24.JPG,AMNE26.JPG,AMSA21.JPG,AMNE25.JPG,0,8,8,3,,,,,,,,,,,,,,,,,,,,,,,AFNE04.jpg,AFSA17.jpg,AFNE17.jpg,AFSA01.jpg,AFSA01.jpg,FS,4,num_4,16,num_4,0.866773900751,,,2017_Mar_13_1926,59.9790693868,FEMA4ImagesEEG,001,200048,
AMNE23.JPG,AMNE24.JPG,AMNE22.JPG,AMSA24.JPG,AMSA22.JPG,AMSA23.JPG,0,9,9,9,,,,,,,,,,,,,,,,,,,,,,,AFSA20.jpg,AFSA05.jpg,AFNE17.jpg,AFNE14.jpg,AFNE17.jpg,FN,3,num_2,32,num_4,1.1334765972,,,2017_Mar_13_1926,59.9790693868,FEMA4ImagesEEG,001,200048,
AMNE23.JPG,AMNE24.JPG,AMNE22.JPG,AMSA24.JPG,AMSA22.JPG,AMSA23.JPG,,,,,0,0,0,9,,,,,,,,,,,,,,,,,,,AMNE17.jpg,AMSA15.jpg,AMNE10.jpg,AMSA18.jpg,AMSA15.jpg,MS,2,num_6,16,num_6,1.11677887221,,,2017_Mar_13_1926,59.9790693868,FEMA4ImagesEEG,001,200048,
AFNE23.JPG,AFNE24.JPG,AFNE22.JPG,AFSA24.JPG,AFSA22.JPG,AFSA23.JPG,,,,,0,1,1,8,,,,,,,,,,,,,,,,,,,AMSA17.jpg,AMNE08.jpg,AMNE05.jpg,AMSA09.jpg,AMSA09.jpg,MS,2,num_4,16,num_4,1.1667485623,,,2017_Mar_13_1926,59.9790693868,FEMA4ImagesEEG,001,200048,
AMSA21.JPG,AMNE22.JPG,AMNE21.JPG,AMSA23.JPG,AMSA22.JPG,AMNE23.JPG,,,,,0,2,2,1,,,,,,,,,,,,,,,,,,,AMSA20.jpg,AMNE18.jpg,AMSA03.jpg,AMNE04.jpg,AMNE04.jpg,MN,1,num_4,32,num_6,1.66664047289,,,2017_Mar_13_1926,59.9790693868,FEMA4ImagesEEG,001,200048,
AMSA25.JPG,AMNE24.JPG,AMSA24.JPG,AMNE26.JPG,AMSA21.JPG,AMNE25.JPG,,,,,0,3,3,3,,,,,,,,,,,,,,,,,,,AMSA02.jpg,AMNE03.jpg,AMNE14.jpg,AMSA03.jpg,AMNE14.jpg,MN,1,num_2,16,num_2,0.816775664804,,,2017_Mar_13_1926,59.9790693868,FEMA4ImagesEEG,001,200048,
AMSA21.JPG,AMNE23.JPG,AMNE21.JPG,AMSA25.JPG,AMNE25.JPG,AMSA23.JPG,,,,,0,4,4,5,,,,,,,,,,,,,,,,,,,AMSA01.jpg,AMNE20.jpg,AMNE07.jpg,AMSA03.jpg,AMSA01.jpg,MS,2,num_8,16,num_8,0.933487502392,,,2017_Mar_13_1926,59.9790693868,FEMA4ImagesEEG,001,200048,
AFNE22.JPG,AFSA24.JPG,AFSA22.JPG,AFNE25.JPG,AFNE24.JPG,AFSA25.JPG,,,,,0,5,5,6,,,,,,,,,,,,,,,,,,,AMSA16.jpg,AMSA03.jpg,AMNE04.jpg,AMNE05.jpg,AMNE04.jpg,MN,1,num_2,32,num_4,0.716771174455,,,2017_Mar_13_1926,59.9790693868,FEMA4ImagesEEG,001,200048,
AFSA25.JPG,AFNE24.JPG,AFSA24.JPG,AFNE21.JPG,AFSA21.JPG,AFNE25.JPG,,,,,0,6,6,2,,,,,,,,,,,,,,,,,,,AMSA12.jpg,AMNE02.jpg,AMNE19.jpg,AMSA01.jpg,AMSA12.jpg,MS,2,num_8,16,num_8,0.766777108132,,,2017_Mar_13_1926,59.9790693868,FEMA4ImagesEEG,001,200048,
AMNE22.JPG,AMSA24.JPG,AMSA22.JPG,AMNE25.JPG,AMNE24.JPG,AMSA25.JPG,,,,,0,7,7,7,,,,,,,,,,,,,,,,,,,AMSA08.jpg,AMNE05.jpg,AMSA17.jpg,AMNE03.jpg,AMSA08.jpg,MS,2,num_8,32,num_4,1.00014689891,,,2017_Mar_13_1926,59.9790693868,FEMA4ImagesEEG,001,200048,
AFSA21.JPG,AFNE23.JPG,AFNE21.JPG,AFSA25.JPG,AFNE25.JPG,AFSA23.JPG,,,,,0,8,8,4,,,,,,,,,,,,,,,,,,,AMSA10.jpg,AMSA01.jpg,AMNE05.jpg,AMNE13.jpg,AMSA10.jpg,MS,2,num_8,32,num_6,0.900152672257,,,2017_Mar_13_1926,59.9790693868,FEMA4ImagesEEG,001,200048,
AFSA21.JPG,AFNE22.JPG,AFNE21.JPG,AFSA23.JPG,AFSA22.JPG,AFNE23.JPG,,,,,0,9,9,0,,,,,,,,,,,,,,,,,,,AMNE09.jpg,AMSA03.jpg,AMSA11.jpg,AMNE13.jpg,AMNE09.jpg,MN,1,num_8,16,num_8,0.933478842373,,,2017_Mar_13_1926,59.9790693868,FEMA4ImagesEEG,001,200048,
AFSA21.JPG,AFNE22.JPG,AFNE21.JPG,AFSA23.JPG,AFSA22.JPG,AFNE23.JPG,,,,,,,,,0,0,0,0,,,,,,,,,,,,,,,AFNE19.jpg,AFSA07.jpg,AFSA16.jpg,AFNE10.jpg,AFSA16.jpg,FS,4,num_2,16,num_2,0.883460079087,,,2017_Mar_13_1926,59.9790693868,FEMA4ImagesEEG,001,200048,
AFSA21.JPG,AFNE23.JPG,AFNE21.JPG,AFSA25.JPG,AFNE25.JPG,AFSA23.JPG,,,,,,,,,0,1,1,4,,,,,,,,,,,,,,,AFNE04.jpg,AFSA20.jpg,AFSA07.jpg,AFNE20.jpg,AFSA07.jpg,FS,4,num_2,16,num_2,0.900127654546,,,2017_Mar_13_1926,59.9790693868,FEMA4ImagesEEG,001,200048,
AFSA25.JPG,AFNE24.JPG,AFSA24.JPG,AFNE21.JPG,AFSA21.JPG,AFNE25.JPG,,,,,,,,,0,2,2,2,,,,,,,,,,,,,,,AFNE12.jpg,AFSA04.jpg,AFSA19.jpg,AFNE13.jpg,AFNE13.jpg,FN,3,num_4,32,num_8,0.650131022267,,,2017_Mar_13_1926,59.9790693868,FEMA4ImagesEEG,001,200048,
AMNE22.JPG,AMSA24.JPG,AMSA22.JPG,AMNE25.JPG,AMNE24.JPG,AMSA25.JPG,,,,,,,,,0,3,3,7,,,,,,,,,,,,,,,AFNE01.jpg,AFSA10.jpg,AFNE20.jpg,AFSA04.jpg,AFSA10.jpg,FS,4,num_6,16,num_6,1.11707138707,,,2017_Mar_13_1926,59.9790693868,FEMA4ImagesEEG,001,200048,
AFNE23.JPG,AFNE24.JPG,AFNE22.JPG,AFSA24.JPG,AFSA22.JPG,AFSA23.JPG,,,,,,,,,0,4,4,8,,,,,,,,,,,,,,,AFSA20.jpg,AFSA07.jpg,AFNE16.jpg,AFNE05.jpg,AFSA20.jpg,FS,4,num_8,32,num_6,1.83352021786,,,2017_Mar_13_1926,59.9790693868,FEMA4ImagesEEG,001,200048,
AMSA21.JPG,AMNE22.JPG,AMNE21.JPG,AMSA23.JPG,AMSA22.JPG,AMNE23.JPG,,,,,,,,,0,5,5,1,,,,,,,,,,,,,,,AFNE07.jpg,AFSA14.jpg,AFNE02.jpg,AFSA11.jpg,AFNE02.jpg,FN,3,num_2,32,num_8,0.733483012009,,,2017_Mar_13_1926,59.9790693868,FEMA4ImagesEEG,001,200048,
AMSA25.JPG,AMNE24.JPG,AMSA24.JPG,AMNE26.JPG,AMSA21.JPG,AMNE25.JPG,,,,,,,,,0,6,6,3,,,,,,,,,,,,,,,AFNE05.jpg,AFSA18.jpg,AFNE08.jpg,AFSA12.jpg,AFSA12.jpg,FS,4,num_4,16,num_4,0.600232536497,,,2017_Mar_13_1926,59.9790693868,FEMA4ImagesEEG,001,200048,
AFNE22.JPG,AFSA24.JPG,AFSA22.JPG,AFNE25.JPG,AFNE24.JPG,AFSA25.JPG,,,,,,,,,0,7,7,6,,,,,,,,,,,,,,,AFNE11.jpg,AFSA19.jpg,AFSA01.jpg,AFNE19.jpg,AFSA01.jpg,FS,4,num_2,16,num_2,0.900141446386,,,2017_Mar_13_1926,59.9790693868,FEMA4ImagesEEG,001,200048,
AMSA21.JPG,AMNE23.JPG,AMNE21.JPG,AMSA25.JPG,AMNE25.JPG,AMSA23.JPG,,,,,,,,,0,8,8,5,,,,,,,,,,,,,,,AFSA18.jpg,AFNE14.jpg,AFSA01.jpg,AFNE09.jpg,AFSA01.jpg,FS,4,num_2,32,num_8,0.716784324788,,,2017_Mar_13_1926,59.9790693868,FEMA4ImagesEEG,001,200048,
AMNE23.JPG,AMNE24.JPG,AMNE22.JPG,AMSA24.JPG,AMSA22.JPG,AMSA23.JPG,,,,,,,,,0,9,9,9,,,,,,,,,,,,,,,AFSA03.jpg,AFSA13.jpg,AFNE08.jpg,AFNE04.jpg,AFNE08.jpg,FN,3,num_2,32,num_4,0.883438910241,,,2017_Mar_13_1926,59.9790693868,FEMA4ImagesEEG,001,200048,
AMSA25.JPG,AMNE24.JPG,AMSA24.JPG,AMNE26.JPG,AMSA21.JPG,AMNE25.JPG,,,,,,,,,,,,,0,0,0,3,,,,,,,,,,,AMSA16.jpg,AMNE04.jpg,AMNE10.jpg,AMSA17.jpg,AMSA17.jpg,MS,2,num_4,16,num_4,0.683479323518,,,2017_Mar_13_1926,59.9790693868,FEMA4ImagesEEG,001,200048,
AFNE22.JPG,AFSA24.JPG,AFSA22.JPG,AFNE25.JPG,AFNE24.JPG,AFSA25.JPG,,,,,,,,,,,,,0,1,1,6,,,,,,,,,,,AMSA06.jpg,AMSA07.jpg,AMNE04.jpg,AMNE07.jpg,AMNE04.jpg,MN,1,num_2,32,num_4,0.799902815779,,,2017_Mar_13_1926,59.9790693868,FEMA4ImagesEEG,001,200048,
AFSA21.JPG,AFNE22.JPG,AFNE21.JPG,AFSA23.JPG,AFSA22.JPG,AFNE23.JPG,,,,,,,,,,,,,0,2,2,0,,,,,,,,,,,AMSA06.jpg,AMSA10.jpg,AMNE10.jpg,AMNE04.jpg,AMNE04.jpg,MN,1,num_4,16,num_4,0.650224999117,,,2017_Mar_13_1926,59.9790693868,FEMA4ImagesEEG,001,200048,
AFNE23.JPG,AFNE24.JPG,AFNE22.JPG,AFSA24.JPG,AFSA22.JPG,AFSA23.JPG,,,,,,,,,,,,,0,3,3,8,,,,,,,,,,,AMNE12.jpg,AMSA09.jpg,AMNE05.jpg,AMSA15.jpg,AMSA09.jpg,MS,2,num_6,16,num_6,0.900160049263,,,2017_Mar_13_1926,59.9790693868,FEMA4ImagesEEG,001,200048,
AMSA21.JPG,AMNE22.JPG,AMNE21.JPG,AMSA23.JPG,AMSA22.JPG,AMNE23.JPG,,,,,,,,,,,,,0,4,4,1,,,,,,,,,,,AMNE19.jpg,AMSA01.jpg,AMSA11.jpg,AMNE03.jpg,AMSA01.jpg,MS,2,num_6,16,num_6,1.13341212843,,,2017_Mar_13_1926,59.9790693868,FEMA4ImagesEEG,001,200048,
AMNE23.JPG,AMNE24.JPG,AMNE22.JPG,AMSA24.JPG,AMSA22.JPG,AMSA23.JPG,,,,,,,,,,,,,0,5,5,9,,,,,,,,,,,AMSA11.jpg,AMNE01.jpg,AMNE08.jpg,AMSA19.jpg,AMSA19.jpg,MS,2,num_4,32,num_8,1.233402827,,,2017_Mar_13_1926,59.9790693868,FEMA4ImagesEEG,001,200048,
AMSA21.JPG,AMNE23.JPG,AMNE21.JPG,AMSA25.JPG,AMNE25.JPG,AMSA23.JPG,,,,,,,,,,,,,0,6,6,5,,,,,,,,,,,AMSA09.jpg,AMSA12.jpg,AMNE06.jpg,AMNE12.jpg,AMNE06.jpg,MN,1,num_2,32,num_4,0.583487341995,,,2017_Mar_13_1926,59.9790693868,FEMA4ImagesEEG,001,200048,
AMNE22.JPG,AMSA24.JPG,AMSA22.JPG,AMNE25.JPG,AMNE24.JPG,AMSA25.JPG,,,,,,,,,,,,,0,7,7,7,,,,,,,,,,,AMNE08.jpg,AMSA07.jpg,AMNE07.jpg,AMSA18.jpg,AMNE08.jpg,MN,1,num_8,16,num_8,0.500209443271,,,2017_Mar_13_1926,59.9790693868,FEMA4ImagesEEG,001,200048,
AFSA21.JPG,AFNE23.JPG,AFNE21.JPG,AFSA25.JPG,AFNE25.JPG,AFSA23.JPG,,,,,,,,,,,,,0,8,8,4,,,,,,,,,,,AMSA01.jpg,AMNE01.jpg,AMNE06.jpg,AMSA07.jpg,AMSA07.jpg,MS,2,num_4,32,num_8,0.666796031815,,,2017_Mar_13_1926,59.9790693868,FEMA4ImagesEEG,001,200048,
AFSA25.JPG,AFNE24.JPG,AFSA24.JPG,AFNE21.JPG,AFSA21.JPG,AFNE25.JPG,,,,,,,,,,,,,0,9,9,2,,,,,,,,,,,AMNE17.jpg,AMSA12.jpg,AMNE19.jpg,AMSA11.jpg,AMNE17.jpg,MN,1,num_8,16,num_8,0.533585328027,,,2017_Mar_13_1926,59.9790693868,FEMA4ImagesEEG,001,200048,
AFNE22.JPG,AFSA24.JPG,AFSA22.JPG,AFNE25.JPG,AFNE24.JPG,AFSA25.JPG,,,,,,,,,,,,,,,,,0,0,0,6,,,,,,,AFNE13.jpg,AFSA05.jpg,AFNE04.jpg,AFSA18.jpg,AFNE13.jpg,FN,3,num_8,16,num_8,0.533529519278,,,2017_Mar_13_1926,59.9790693868,FEMA4ImagesEEG,001,200048,
AMSA21.JPG,AMNE23.JPG,AMNE21.JPG,AMSA25.JPG,AMNE25.JPG,AMSA23.JPG,,,,,,,,,,,,,,,,,0,1,1,5,,,,,,,AFNE12.jpg,AFNE19.jpg,AFSA14.jpg,AFSA18.jpg,AFSA18.jpg,FS,4,num_4,16,num_4,0.916755458224,,,2017_Mar_13_1926,59.9790693868,FEMA4ImagesEEG,001,200048,
AFNE23.JPG,AFNE24.JPG,AFNE22.JPG,AFSA24.JPG,AFSA22.JPG,AFSA23.JPG,,,,,,,,,,,,,,,,,0,2,2,8,,,,,,,AFNE20.jpg,AFNE01.jpg,AFSA18.jpg,AFSA12.jpg,AFSA18.jpg,FS,4,num_2,32,num_4,0.550146097085,,,2017_Mar_13_1926,59.9790693868,FEMA4ImagesEEG,001,200048,
AMNE22.JPG,AMSA24.JPG,AMSA22.JPG,AMNE25.JPG,AMNE24.JPG,AMSA25.JPG,,,,,,,,,,,,,,,,,0,3,3,7,,,,,,,AFSA13.jpg,AFNE12.jpg,AFNE20.jpg,AFSA08.jpg,AFSA08.jpg,FS,4,num_4,32,num_8,0.799963435682,,,2017_Mar_13_1926,59.9790693868,FEMA4ImagesEEG,001,200048,
AMSA25.JPG,AMNE24.JPG,AMSA24.JPG,AMNE26.JPG,AMSA21.JPG,AMNE25.JPG,,,,,,,,,,,,,,,,,0,4,4,3,,,,,,,AFNE03.jpg,AFSA18.jpg,AFSA15.jpg,AFNE13.jpg,AFSA18.jpg,FS,4,num_6,16,num_6,0.683364177821,,,2017_Mar_13_1926,59.9790693868,FEMA4ImagesEEG,001,200048,
AFSA21.JPG,AFNE23.JPG,AFNE21.JPG,AFSA25.JPG,AFNE25.JPG,AFSA23.JPG,,,,,,,,,,,,,,,,,0,5,5,4,,,,,,,AFNE16.jpg,AFNE06.jpg,AFSA20.jpg,AFSA18.jpg,AFNE06.jpg,FN,3,num_6,16,num_6,0.816819606174,,,2017_Mar_13_1926,59.9790693868,FEMA4ImagesEEG,001,200048,
AMNE23.JPG,AMNE24.JPG,AMNE22.JPG,AMSA24.JPG,AMSA22.JPG,AMSA23.JPG,,,,,,,,,,,,,,,,,0,6,6,9,,,,,,,AFNE12.jpg,AFSA08.jpg,AFNE20.jpg,AFSA15.jpg,AFSA08.jpg,FS,4,num_6,32,num_4,0.883715708915,,,2017_Mar_13_1926,59.9790693868,FEMA4ImagesEEG,001,200048,
AMSA21.JPG,AMNE22.JPG,AMNE21.JPG,AMSA23.JPG,AMSA22.JPG,AMNE23.JPG,,,,,,,,,,,,,,,,,0,7,7,1,,,,,,,AFSA12.jpg,AFNE16.jpg,AFNE09.jpg,AFSA13.jpg,AFNE09.jpg,FN,3,num_2,32,num_6,1.03345478687,,,2017_Mar_13_1926,59.9790693868,FEMA4ImagesEEG,001,200048,
AFSA25.JPG,AFNE24.JPG,AFSA24.JPG,AFNE21.JPG,AFSA21.JPG,AFNE25.JPG,,,,,,,,,,,,,,,,,0,8,8,2,,,,,,,AFSA03.jpg,AFNE19.jpg,AFSA01.jpg,AFNE18.jpg,AFNE18.jpg,FN,3,num_4,32,num_6,0.600127654558,,,2017_Mar_13_1926,59.9790693868,FEMA4ImagesEEG,001,200048,
AFSA21.JPG,AFNE22.JPG,AFNE21.JPG,AFSA23.JPG,AFSA22.JPG,AFNE23.JPG,,,,,,,,,,,,,,,,,0,9,9,0,,,,,,,AFSA06.jpg,AFNE20.jpg,AFSA14.jpg,AFNE12.jpg,AFNE20.jpg,FN,3,num_6,16,num_6,0.600149464852,,,2017_Mar_13_1926,59.9790693868,FEMA4ImagesEEG,001,200048,
AMSA21.JPG,AMNE22.JPG,AMNE21.JPG,AMSA23.JPG,AMSA22.JPG,AMNE23.JPG,,,,,,,,,,,,,,,,,,,,,0,0,0,1,,,AMNE12.jpg,AMSA19.jpg,AMSA13.jpg,AMNE19.jpg,AMSA19.jpg,MS,2,num_6,16,num_6,0.750176246627,,,2017_Mar_13_1926,59.9790693868,FEMA4ImagesEEG,001,200048,
AFSA21.JPG,AFNE22.JPG,AFNE21.JPG,AFSA23.JPG,AFSA22.JPG,AFNE23.JPG,,,,,,,,,,,,,,,,,,,,,0,1,1,0,,,AMNE12.jpg,AMSA12.jpg,AMSA20.jpg,AMNE06.jpg,AMSA12.jpg,MS,2,num_6,16,num_6,0.733488143829,,,2017_Mar_13_1926,59.9790693868,FEMA4ImagesEEG,001,200048,
AFNE23.JPG,AFNE24.JPG,AFNE22.JPG,AFSA24.JPG,AFSA22.JPG,AFSA23.JPG,,,,,,,,,,,,,,,,,,,,,0,2,2,8,,,AMSA06.jpg,AMNE02.jpg,AMSA15.jpg,AMNE20.jpg,AMSA06.jpg,MS,2,num_8,32,num_2,1.11675000563,,,2017_Mar_13_1926,59.9790693868,FEMA4ImagesEEG,001,200048,
AMSA21.JPG,AMNE23.JPG,AMNE21.JPG,AMSA25.JPG,AMNE25.JPG,AMSA23.JPG,,,,,,,,,,,,,,,,,,,,,0,3,3,5,,,AMSA06.jpg,AMNE15.jpg,AMNE11.jpg,AMSA12.jpg,AMNE11.jpg,MN,1,num_2,16,num_2,0.683440834691,,,2017_Mar_13_1926,59.9790693868,FEMA4ImagesEEG,001,200048,
AMSA25.JPG,AMNE24.JPG,AMSA24.JPG,AMNE26.JPG,AMSA21.JPG,AMNE25.JPG,,,,,,,,,,,,,,,,,,,,,0,4,4,3,,,AMSA19.jpg,AMNE18.jpg,AMSA12.jpg,AMNE12.jpg,AMSA19.jpg,MS,2,num_8,16,num_8,0.91661978513,,,2017_Mar_13_1926,59.9790693868,FEMA4ImagesEEG,001,200048,
AFSA21.JPG,AFNE23.JPG,AFNE21.JPG,AFSA25.JPG,AFNE25.JPG,AFSA23.JPG,,,,,,,,,,,,,,,,,,,,,0,5,5,4,,,AMSA10.jpg,AMSA12.jpg,AMNE12.jpg,AMNE03.jpg,AMNE03.jpg,MN,1,num_4,16,num_4,0.800157483318,,,2017_Mar_13_1926,59.9790693868,FEMA4ImagesEEG,001,200048,
AFSA25.JPG,AFNE24.JPG,AFSA24.JPG,AFNE21.JPG,AFSA21.JPG,AFNE25.JPG,,,,,,,,,,,,,,,,,,,,,0,6,6,2,,,AMNE01.jpg,AMNE03.jpg,AMSA08.jpg,AMSA16.jpg,AMSA08.jpg,MS,2,num_2,32,num_8,0.783435382124,,,2017_Mar_13_1926,59.9790693868,FEMA4ImagesEEG,001,200048,
AMNE22.JPG,AMSA24.JPG,AMSA22.JPG,AMNE25.JPG,AMNE24.JPG,AMSA25.JPG,,,,,,,,,,,,,,,,,,,,,0,7,7,7,,,AMSA01.jpg,AMNE01.jpg,AMSA05.jpg,AMNE04.jpg,AMNE01.jpg,MN,1,num_6,16,num_6,0.666800201405,,,2017_Mar_13_1926,59.9790693868,FEMA4ImagesEEG,001,200048,
AFNE22.JPG,AFSA24.JPG,AFSA22.JPG,AFNE25.JPG,AFNE24.JPG,AFSA25.JPG,,,,,,,,,,,,,,,,,,,,,0,8,8,6,,,AMNE14.jpg,AMSA04.jpg,AMSA19.jpg,AMNE09.jpg,AMNE14.jpg,MN,1,num_8,16,num_8,0.700226763205,,,2017_Mar_13_1926,59.9790693868,FEMA4ImagesEEG,001,200048,
AMNE23.JPG,AMNE24.JPG,AMNE22.JPG,AMSA24.JPG,AMSA22.JPG,AMSA23.JPG,,,,,,,,,,,,,,,,,,,,,0,9,9,9,,,AMSA07.jpg,AMNE17.jpg,AMNE19.jpg,AMSA02.jpg,AMSA07.jpg,MS,2,num_8,32,num_6,2.41668489535,,,2017_Mar_13_1926,59.9790693868,FEMA4ImagesEEG,001,200048,
,,,,,,,,,,,,,,,,,,,,,,,,,,,,,,,,,,,,,,,,,,,space,6.48304215487,2017_Mar_13_1926,59.9790693868,FEMA4ImagesEEG,001,200048,
AFNE01.JPG,AFNE01.JPG,AFNE01.JPG,AFNE01.JPG,AFNE01.JPG,AFNE01.JPG,0,0,0,3,,,,,,,,,,,,,,,,,,,,,,,AFSA06.jpg,AFNE11.jpg,AFNE07.jpg,AFSA16.jpg,AFNE11.jpg,FN,3,num_6,16,num_6,0.816744232317,,,2017_Mar_13_1926,59.9790693868,FEMA4ImagesEEG,001,200048,
AFNE01.JPG,AFNE01.JPG,AFNE01.JPG,AFNE01.JPG,AFNE01.JPG,AFNE01.JPG,0,1,1,6,,,,,,,,,,,,,,,,,,,,,,,AFSA01.jpg,AFNE15.jpg,AFNE06.jpg,AFSA15.jpg,AFSA01.jpg,FS,4,num_8,16,num_8,0.550135833386,,,2017_Mar_13_1926,59.9790693868,FEMA4ImagesEEG,001,200048,
AFNE01.JPG,AFNE01.JPG,AFNE01.JPG,AFNE01.JPG,AFNE01.JPG,AFNE01.JPG,0,2,2,0,,,,,,,,,,,,,,,,,,,,,,,AFSA15.jpg,AFSA14.jpg,AFNE02.jpg,AFNE13.jpg,AFSA14.jpg,FS,4,num_6,32,num_8,0.66681367252,,,2017_Mar_13_1926,59.9790693868,FEMA4ImagesEEG,001,200048,
AFNE01.JPG,AFNE01.JPG,AFNE01.JPG,AFNE01.JPG,AFNE01.JPG,AFNE01.JPG,0,3,3,5,,,,,,,,,,,,,,,,,,,,,,,AFSA16.jpg,AFNE16.jpg,AFSA12.jpg,AFNE11.jpg,AFSA12.jpg,FS,4,num_2,16,num_2,0.833462163922,,,2017_Mar_13_1926,59.9790693868,FEMA4ImagesEEG,001,200048,
AFNE01.JPG,AFNE01.JPG,AFNE01.JPG,AFNE01.JPG,AFNE01.JPG,AFNE01.JPG,0,4,4,2,,,,,,,,,,,,,,,,,,,,,,,AFSA09.jpg,AFNE10.jpg,AFNE06.jpg,AFSA12.jpg,AFNE06.jpg,FN,3,num_2,32,num_6,0.816523242451,,,2017_Mar_13_1926,59.9790693868,FEMA4ImagesEEG,001,200048,
AFNE01.JPG,AFNE01.JPG,AFNE01.JPG,AFNE01.JPG,AFNE01.JPG,AFNE01.JPG,0,5,5,4,,,,,,,,,,,,,,,,,,,,,,,AFNE14.jpg,AFSA03.jpg,AFNE06.jpg,AFSA06.jpg,AFNE14.jpg,FN,3,num_8,16,num_8,0.733528877841,,,2017_Mar_13_1926,59.9790693868,FEMA4ImagesEEG,001,200048,
AFNE01.JPG,AFNE01.JPG,AFNE01.JPG,AFNE01.JPG,AFNE01.JPG,AFNE01.JPG,0,6,6,1,,,,,,,,,,,,,,,,,,,,,,,AFNE19.jpg,AFNE14.jpg,AFSA09.jpg,AFSA02.jpg,AFSA09.jpg,FS,4,num_2,16,num_2,0.666801484418,,,2017_Mar_13_1926,59.9790693868,FEMA4ImagesEEG,001,200048,
AFNE01.JPG,AFNE01.JPG,AFNE01.JPG,AFNE01.JPG,AFNE01.JPG,AFNE01.JPG,0,7,7,7,,,,,,,,,,,,,,,,,,,,,,,AFNE13.jpg,AFNE18.jpg,AFSA03.jpg,AFSA12.jpg,AFNE18.jpg,FN,3,num_6,16,num_6,0.683499850857,,,2017_Mar_13_1926,59.9790693868,FEMA4ImagesEEG,001,200048,
AFNE01.JPG,AFNE01.JPG,AFNE01.JPG,AFNE01.JPG,AFNE01.JPG,AFNE01.JPG,0,8,8,8,,,,,,,,,,,,,,,,,,,,,,,AFNE07.jpg,AFNE13.jpg,AFSA06.jpg,AFSA08.jpg,AFSA06.jpg,FS,4,num_2,32,num_4,0.61682634172,,,2017_Mar_13_1926,59.9790693868,FEMA4ImagesEEG,001,200048,
AFNE01.JPG,AFNE01.JPG,AFNE01.JPG,AFNE01.JPG,AFNE01.JPG,AFNE01.JPG,0,9,9,9,,,,,,,,,,,,,,,,,,,,,,,AFSA03.jpg,AFNE12.jpg,AFNE13.jpg,AFSA02.jpg,AFSA02.jpg,FS,4,num_4,32,num_8,0.583515246341,,,2017_Mar_13_1926,59.9790693868,FEMA4ImagesEEG,001,200048,
AFNE01.JPG,AFNE01.JPG,AFNE01.JPG,AFNE01.JPG,AFNE01.JPG,AFNE01.JPG,1,0,10,4,,,,,,,,,,,,,,,,,,,,,,,AFNE11.jpg,AFSA01.jpg,AFSA08.jpg,AFNE10.jpg,AFNE11.jpg,FN,3,num_8,16,num_8,0.650287222699,,,2017_Mar_13_1926,59.9790693868,FEMA4ImagesEEG,001,200048,
AFNE01.JPG,AFNE01.JPG,AFNE01.JPG,AFNE01.JPG,AFNE01.JPG,AFNE01.JPG,1,1,11,6,,,,,,,,,,,,,,,,,,,,,,,AFSA03.jpg,AFSA20.jpg,AFNE16.jpg,AFNE10.jpg,AFNE10.jpg,FN,3,num_4,32,num_8,1.08343506133,,,2017_Mar_13_1926,59.9790693868,FEMA4ImagesEEG,001,200048,
AFNE01.JPG,AFNE01.JPG,AFNE01.JPG,AFNE01.JPG,AFNE01.JPG,AFNE01.JPG,1,2,12,9,,,,,,,,,,,,,,,,,,,,,,,AFNE15.jpg,AFSA15.jpg,AFSA17.jpg,AFNE04.jpg,AFNE04.jpg,FN,3,num_4,32,num_8,0.950210565818,,,2017_Mar_13_1926,59.9790693868,FEMA4ImagesEEG,001,200048,
AFNE01.JPG,AFNE01.JPG,AFNE01.JPG,AFNE01.JPG,AFNE01.JPG,AFNE01.JPG,1,3,13,0,,,,,,,,,,,,,,,,,,,,,,,AFSA04.jpg,AFSA13.jpg,AFNE14.jpg,AFNE06.jpg,AFSA13.jpg,FS,4,num_6,32,num_8,0.416842699458,,,2017_Mar_13_1926,59.9790693868,FEMA4ImagesEEG,001,200048,
AFNE01.JPG,AFNE01.JPG,AFNE01.JPG,AFNE01.JPG,AFNE01.JPG,AFNE01.JPG,1,4,14,5,,,,,,,,,,,,,,,,,,,,,,,AFNE07.jpg,AFNE17.jpg,AFSA18.jpg,AFSA17.jpg,AFNE07.jpg,FN,3,num_8,16,num_8,0.683453343576,,,2017_Mar_13_1926,59.9790693868,FEMA4ImagesEEG,001,200048,
AFNE01.JPG,AFNE01.JPG,AFNE01.JPG,AFNE01.JPG,AFNE01.JPG,AFNE01.JPG,1,5,15,8,,,,,,,,,,,,,,,,,,,,,,,AFSA10.jpg,AFNE07.jpg,AFSA03.jpg,AFNE13.jpg,AFNE13.jpg,FN,3,num_4,16,num_4,1.10007890203,,,2017_Mar_13_1926,59.9790693868,FEMA4ImagesEEG,001,200048,
AFNE01.JPG,AFNE01.JPG,AFNE01.JPG,AFNE01.JPG,AFNE01.JPG,AFNE01.JPG,1,6,16,2,,,,,,,,,,,,,,,,,,,,,,,AFSA03.jpg,AFSA11.jpg,AFNE02.jpg,AFNE17.jpg,AFNE02.jpg,FN,3,num_2,16,num_2,0.750171756255,,,2017_Mar_13_1926,59.9790693868,FEMA4ImagesEEG,001,200048,
AFNE01.JPG,AFNE01.JPG,AFNE01.JPG,AFNE01.JPG,AFNE01.JPG,AFNE01.JPG,1,7,17,1,,,,,,,,,,,,,,,,,,,,,,,AFNE07.jpg,AFSA11.jpg,AFSA01.jpg,AFNE18.jpg,AFSA11.jpg,FS,4,num_6,16,num_6,0.7501480215,,,2017_Mar_13_1926,59.9790693868,FEMA4ImagesEEG,001,200048,
AFNE01.JPG,AFNE01.JPG,AFNE01.JPG,AFNE01.JPG,AFNE01.JPG,AFNE01.JPG,1,8,18,3,,,,,,,,,,,,,,,,,,,,,,,AFSA10.jpg,AFSA02.jpg,AFNE13.jpg,AFNE15.jpg,AFSA10.jpg,FS,4,num_8,16,num_8,0.883478361298,,,2017_Mar_13_1926,59.9790693868,FEMA4ImagesEEG,001,200048,
AFNE01.JPG,AFNE01.JPG,AFNE01.JPG,AFNE01.JPG,AFNE01.JPG,AFNE01.JPG,1,9,19,7,,,,,,,,,,,,,,,,,,,,,,,AFNE02.jpg,AFSA14.jpg,AFNE05.jpg,AFSA05.jpg,AFNE02.jpg,FN,3,num_8,16,num_8,0.583500492328,,,2017_Mar_13_1926,59.9790693868,FEMA4ImagesEEG,001,200048,
AFNE01.JPG,AFNE01.JPG,AFNE01.JPG,AFNE01.JPG,AFNE01.JPG,AFNE01.JPG,2,0,20,4,,,,,,,,,,,,,,,,,,,,,,,AFNE18.jpg,AFSA10.jpg,AFNE04.jpg,AFSA16.jpg,AFNE18.jpg,FN,3,num_8,32,num_2,0.550127814931,,,2017_Mar_13_1926,59.9790693868,FEMA4ImagesEEG,001,200048,
AFNE01.JPG,AFNE01.JPG,AFNE01.JPG,AFNE01.JPG,AFNE01.JPG,AFNE01.JPG,2,1,21,7,,,,,,,,,,,,,,,,,,,,,,,AFNE04.jpg,AFNE13.jpg,AFSA15.jpg,AFSA02.jpg,AFNE13.jpg,FN,3,num_6,32,num_8,0.666845425731,,,2017_Mar_13_1926,59.9790693868,FEMA4ImagesEEG,001,200048,
AFNE01.JPG,AFNE01.JPG,AFNE01.JPG,AFNE01.JPG,AFNE01.JPG,AFNE01.JPG,2,2,22,6,,,,,,,,,,,,,,,,,,,,,,,AFNE03.jpg,AFNE06.jpg,AFSA12.jpg,AFSA20.jpg,AFNE03.jpg,FN,3,num_8,16,num_8,0.63360489317,,,2017_Mar_13_1926,59.9790693868,FEMA4ImagesEEG,001,200048,
AFNE01.JPG,AFNE01.JPG,AFNE01.JPG,AFNE01.JPG,AFNE01.JPG,AFNE01.JPG,2,3,23,2,,,,,,,,,,,,,,,,,,,,,,,AFSA20.jpg,AFNE15.jpg,AFSA07.jpg,AFNE11.jpg,AFSA20.jpg,FS,4,num_8,32,num_2,1.71670510201,,,2017_Mar_13_1926,59.9790693868,FEMA4ImagesEEG,001,200048,
AFNE01.JPG,AFNE01.JPG,AFNE01.JPG,AFNE01.JPG,AFNE01.JPG,AFNE01.JPG,2,4,24,5,,,,,,,,,,,,,,,,,,,,,,,AFNE12.jpg,AFSA20.jpg,AFSA03.jpg,AFNE03.jpg,AFSA20.jpg,FS,4,num_6,32,num_2,0.733517331188,,,2017_Mar_13_1926,59.9790693868,FEMA4ImagesEEG,001,200048,
AFNE01.JPG,AFNE01.JPG,AFNE01.JPG,AFNE01.JPG,AFNE01.JPG,AFNE01.JPG,2,5,25,9,,,,,,,,,,,,,,,,,,,,,,,AFNE02.jpg,AFSA20.jpg,AFNE11.jpg,AFSA07.jpg,AFNE11.jpg,FN,3,num_2,32,num_8,0.616767646279,,,2017_Mar_13_1926,59.9790693868,FEMA4ImagesEEG,001,200048,
AFNE01.JPG,AFNE01.JPG,AFNE01.JPG,AFNE01.JPG,AFNE01.JPG,AFNE01.JPG,2,6,26,1,,,,,,,,,,,,,,,,,,,,,,,AFSA12.jpg,AFNE16.jpg,AFSA09.jpg,AFNE02.jpg,AFSA09.jpg,FS,4,num_2,32,num_8,0.61675674119,,,2017_Mar_13_1926,59.9790693868,FEMA4ImagesEEG,001,200048,
AFNE01.JPG,AFNE01.JPG,AFNE01.JPG,AFNE01.JPG,AFNE01.JPG,AFNE01.JPG,2,7,27,8,,,,,,,,,,,,,,,,,,,,,,,AFNE15.jpg,AFNE13.jpg,AFSA18.jpg,AFSA13.jpg,AFSA13.jpg,FS,4,num_4,16,num_4,0.766816559131,,,2017_Mar_13_1926,59.9790693868,FEMA4ImagesEEG,001,200048,
AFNE01.JPG,AFNE01.JPG,AFNE01.JPG,AFNE01.JPG,AFNE01.JPG,AFNE01.JPG,2,8,28,3,,,,,,,,,,,,,,,,,,,,,,,AFNE18.jpg,AFNE19.jpg,AFSA06.jpg,AFSA03.jpg,AFNE18.jpg,FN,3,num_8,16,num_8,0.716786890698,,,2017_Mar_13_1926,59.9790693868,FEMA4ImagesEEG,001,200048,
AFNE01.JPG,AFNE01.JPG,AFNE01.JPG,AFNE01.JPG,AFNE01.JPG,AFNE01.JPG,2,9,29,0,,,,,,,,,,,,,,,,,,,,,,,AFNE05.jpg,AFNE03.jpg,AFSA10.jpg,AFSA15.jpg,AFNE05.jpg,FN,3,num_8,16,num_8,0.800097184198,,,2017_Mar_13_1926,59.9790693868,FEMA4ImagesEEG,001,200048,
AFNE01.JPG,AFNE01.JPG,AFNE01.JPG,AFNE01.JPG,AFNE01.JPG,AFNE01.JPG,3,0,30,2,,,,,,,,,,,,,,,,,,,,,,,AFSA19.jpg,AFNE12.jpg,AFSA12.jpg,AFNE20.jpg,AFNE12.jpg,FN,3,num_6,16,num_6,0.550170152565,,,2017_Mar_13_1926,59.9790693868,FEMA4ImagesEEG,001,200048,
AFNE01.JPG,AFNE01.JPG,AFNE01.JPG,AFNE01.JPG,AFNE01.JPG,AFNE01.JPG,3,1,31,4,,,,,,,,,,,,,,,,,,,,,,,AFNE04.jpg,AFSA03.jpg,AFNE18.jpg,AFSA18.jpg,AFSA03.jpg,FS,4,num_6,32,num_4,0.400191161025,,,2017_Mar_13_1926,59.9790693868,FEMA4ImagesEEG,001,200048,
AFNE01.JPG,AFNE01.JPG,AFNE01.JPG,AFNE01.JPG,AFNE01.JPG,AFNE01.JPG,3,2,32,6,,,,,,,,,,,,,,,,,,,,,,,AFSA04.jpg,AFSA13.jpg,AFNE15.jpg,AFNE14.jpg,AFSA13.jpg,FS,4,num_6,16,num_6,0.766786088876,,,2017_Mar_13_1926,59.9790693868,FEMA4ImagesEEG,001,200048,
AFNE01.JPG,AFNE01.JPG,AFNE01.JPG,AFNE01.JPG,AFNE01.JPG,AFNE01.JPG,3,3,33,7,,,,,,,,,,,,,,,,,,,,,,,AFNE05.jpg,AFSA11.jpg,AFNE17.jpg,AFSA07.jpg,AFSA07.jpg,FS,4,num_4,16,num_4,0.466781277792,,,2017_Mar_13_1926,59.9790693868,FEMA4ImagesEEG,001,200048,
AFNE01.JPG,AFNE01.JPG,AFNE01.JPG,AFNE01.JPG,AFNE01.JPG,AFNE01.JPG,3,4,34,0,,,,,,,,,,,,,,,,,,,,,,,AFNE12.jpg,AFNE07.jpg,AFSA09.jpg,AFSA17.jpg,AFSA09.jpg,FS,4,num_2,16,num_2,0.400157483353,,,2017_Mar_13_1926,59.9790693868,FEMA4ImagesEEG,001,200048,
AFNE01.JPG,AFNE01.JPG,AFNE01.JPG,AFNE01.JPG,AFNE01.JPG,AFNE01.JPG,3,5,35,5,,,,,,,,,,,,,,,,,,,,,,,AFNE08.jpg,AFSA05.jpg,AFNE16.jpg,AFSA08.jpg,AFNE08.jpg,FN,3,num_8,16,num_8,0.599992302246,,,2017_Mar_13_1926,59.9790693868,FEMA4ImagesEEG,001,200048,
AFNE01.JPG,AFNE01.JPG,AFNE01.JPG,AFNE01.JPG,AFNE01.JPG,AFNE01.JPG,3,6,36,8,,,,,,,,,,,,,,,,,,,,,,,AFNE17.jpg,AFSA11.jpg,AFSA04.jpg,AFNE16.jpg,AFNE17.jpg,FN,3,num_8,16,num_8,0.816791060322,,,2017_Mar_13_1926,59.9790693868,FEMA4ImagesEEG,001,200048,
AFNE01.JPG,AFNE01.JPG,AFNE01.JPG,AFNE01.JPG,AFNE01.JPG,AFNE01.JPG,3,7,37,3,,,,,,,,,,,,,,,,,,,,,,,AFNE03.jpg,AFSA10.jpg,AFNE13.jpg,AFSA09.jpg,AFNE03.jpg,FN,3,num_8,32,num_4,0.983446928789,,,2017_Mar_13_1926,59.9790693868,FEMA4ImagesEEG,001,200048,
AFNE01.JPG,AFNE01.JPG,AFNE01.JPG,AFNE01.JPG,AFNE01.JPG,AFNE01.JPG,3,8,38,1,,,,,,,,,,,,,,,,,,,,,,,AFSA18.jpg,AFSA17.jpg,AFNE10.jpg,AFNE15.jpg,AFNE15.jpg,FN,3,num_4,32,num_2,0.750166303711,,,2017_Mar_13_1926,59.9790693868,FEMA4ImagesEEG,001,200048,
AFNE01.JPG,AFNE01.JPG,AFNE01.JPG,AFNE01.JPG,AFNE01.JPG,AFNE01.JPG,3,9,39,9,,,,,,,,,,,,,,,,,,,,,,,AFNE08.jpg,AFSA02.jpg,AFNE06.jpg,AFSA13.jpg,AFNE08.jpg,FN,3,num_8,32,num_2,0.666771014046,,,2017_Mar_13_1926,59.9790693868,FEMA4ImagesEEG,001,200048,
AFNE01.JPG,AFNE01.JPG,AFNE01.JPG,AFNE01.JPG,AFNE01.JPG,AFNE01.JPG,4,0,40,3,,,,,,,,,,,,,,,,,,,,,,,AFNE02.jpg,AFSA10.jpg,AFNE12.jpg,AFSA13.jpg,AFNE02.jpg,FN,3,num_8,16,num_8,0.566914384835,,,2017_Mar_13_1926,59.9790693868,FEMA4ImagesEEG,001,200048,
AFNE01.JPG,AFNE01.JPG,AFNE01.JPG,AFNE01.JPG,AFNE01.JPG,AFNE01.JPG,4,1,41,5,,,,,,,,,,,,,,,,,,,,,,,AFNE20.jpg,AFSA04.jpg,AFNE05.jpg,AFSA18.jpg,AFNE20.jpg,FN,3,num_8,16,num_8,0.566792824422,,,2017_Mar_13_1926,59.9790693868,FEMA4ImagesEEG,001,200048,
AFNE01.JPG,AFNE01.JPG,AFNE01.JPG,AFNE01.JPG,AFNE01.JPG,AFNE01.JPG,4,2,42,2,,,,,,,,,,,,,,,,,,,,,,,AFSA09.jpg,AFNE06.jpg,AFSA01.jpg,AFNE04.jpg,AFNE06.jpg,FN,3,num_6,16,num_6,0.867074113397,,,2017_Mar_13_1926,59.9790693868,FEMA4ImagesEEG,001,200048,
AFNE01.JPG,AFNE01.JPG,AFNE01.JPG,AFNE01.JPG,AFNE01.JPG,AFNE01.JPG,4,3,43,6,,,,,,,,,,,,,,,,,,,,,,,AFSA10.jpg,AFNE20.jpg,AFSA11.jpg,AFNE14.jpg,AFSA11.jpg,FS,4,num_2,16,num_2,0.650153474126,,,2017_Mar_13_1926,59.9790693868,FEMA4ImagesEEG,001,200048,
AFNE01.JPG,AFNE01.JPG,AFNE01.JPG,AFNE01.JPG,AFNE01.JPG,AFNE01.JPG,4,4,44,9,,,,,,,,,,,,,,,,,,,,,,,AFSA11.jpg,AFNE19.jpg,AFSA17.jpg,AFNE02.jpg,AFNE02.jpg,FN,3,num_4,16,num_4,0.63346120168,,,2017_Mar_13_1926,59.9790693868,FEMA4ImagesEEG,001,200048,
AFNE01.JPG,AFNE01.JPG,AFNE01.JPG,AFNE01.JPG,AFNE01.JPG,AFNE01.JPG,4,5,45,1,,,,,,,,,,,,,,,,,,,,,,,AFSA08.jpg,AFNE08.jpg,AFNE14.jpg,AFSA19.jpg,AFNE14.jpg,FN,3,num_2,16,num_2,0.750140965218,,,2017_Mar_13_1926,59.9790693868,FEMA4ImagesEEG,001,200048,
AFNE01.JPG,AFNE01.JPG,AFNE01.JPG,AFNE01.JPG,AFNE01.JPG,AFNE01.JPG,4,6,46,7,,,,,,,,,,,,,,,,,,,,,,,AFNE03.jpg,AFSA08.jpg,AFSA03.jpg,AFNE17.jpg,AFSA03.jpg,FS,4,num_2,32,num_8,0.616791381035,,,2017_Mar_13_1926,59.9790693868,FEMA4ImagesEEG,001,200048,
AFNE01.JPG,AFNE01.JPG,AFNE01.JPG,AFNE01.JPG,AFNE01.JPG,AFNE01.JPG,4,7,47,4,,,,,,,,,,,,,,,,,,,,,,,AFSA10.jpg,AFNE03.jpg,AFSA20.jpg,AFNE10.jpg,AFNE10.jpg,FN,3,num_4,16,num_4,0.833459597954,,,2017_Mar_13_1926,59.9790693868,FEMA4ImagesEEG,001,200048,
AFNE01.JPG,AFNE01.JPG,AFNE01.JPG,AFNE01.JPG,AFNE01.JPG,AFNE01.JPG,4,8,48,0,,,,,,,,,,,,,,,,,,,,,,,AFSA01.jpg,AFNE15.jpg,AFSA20.jpg,AFNE16.jpg,AFSA20.jpg,FS,4,num_2,16,num_2,1.83332488715,,,2017_Mar_13_1926,59.9790693868,FEMA4ImagesEEG,001,200048,
AFNE01.JPG,AFNE01.JPG,AFNE01.JPG,AFNE01.JPG,AFNE01.JPG,AFNE01.JPG,4,9,49,8,,,,,,,,,,,,,,,,,,,,,,,AFSA18.jpg,AFNE16.jpg,AFSA17.jpg,AFNE17.jpg,AFSA18.jpg,FS,4,num_8,32,num_2,0.616790418804,,,2017_Mar_13_1926,59.9790693868,FEMA4ImagesEEG,001,200048,
AFNE01.JPG,AFNE01.JPG,AFNE01.JPG,AFNE01.JPG,AFNE01.JPG,AFNE01.JPG,5,0,50,2,,,,,,,,,,,,,,,,,,,,,,,AFSA17.jpg,AFNE18.jpg,AFSA15.jpg,AFNE11.jpg,AFSA17.jpg,FS,4,num_8,16,num_8,0.733434900991,,,2017_Mar_13_1926,59.9790693868,FEMA4ImagesEEG,001,200048,
AFNE01.JPG,AFNE01.JPG,AFNE01.JPG,AFNE01.JPG,AFNE01.JPG,AFNE01.JPG,5,1,51,3,,,,,,,,,,,,,,,,,,,,,,,AFNE15.jpg,AFSA06.jpg,AFSA05.jpg,AFNE17.jpg,AFSA06.jpg,FS,4,num_6,32,num_8,0.899994547421,,,2017_Mar_13_1926,59.9790693868,FEMA4ImagesEEG,001,200048,
AFNE01.JPG,AFNE01.JPG,AFNE01.JPG,AFNE01.JPG,AFNE01.JPG,AFNE01.JPG,5,2,52,5,,,,,,,,,,,,,,,,,,,,,,,AFSA07.jpg,AFNE02.jpg,AFSA04.jpg,AFNE18.jpg,AFSA04.jpg,FS,4,num_2,32,num_8,1.31679907884,,,2017_Mar_13_1926,59.9790693868,FEMA4ImagesEEG,001,200048,
AFNE01.JPG,AFNE01.JPG,AFNE01.JPG,AFNE01.JPG,AFNE01.JPG,AFNE01.JPG,5,3,53,7,,,,,,,,,,,,,,,,,,,,,,,AFNE16.jpg,AFSA07.jpg,AFSA19.jpg,AFNE02.jpg,AFSA19.jpg,FS,4,num_2,16,num_2,0.966775825189,,,2017_Mar_13_1926,59.9790693868,FEMA4ImagesEEG,001,200048,
AFNE01.JPG,AFNE01.JPG,AFNE01.JPG,AFNE01.JPG,AFNE01.JPG,AFNE01.JPG,5,4,54,6,,,,,,,,,,,,,,,,,,,,,,,AFSA15.jpg,AFNE11.jpg,AFSA01.jpg,AFNE15.jpg,AFNE11.jpg,FN,3,num_6,16,num_6,0.816823455039,,,2017_Mar_13_1926,59.9790693868,FEMA4ImagesEEG,001,200048,
AFNE01.JPG,AFNE01.JPG,AFNE01.JPG,AFNE01.JPG,AFNE01.JPG,AFNE01.JPG,5,5,55,1,,,,,,,,,,,,,,,,,,,,,,,AFNE19.jpg,AFSA19.jpg,AFNE20.jpg,AFSA11.jpg,AFNE19.jpg,FN,3,num_8,32,num_6,0.783480927232,,,2017_Mar_13_1926,59.9790693868,FEMA4ImagesEEG,001,200048,
AFNE01.JPG,AFNE01.JPG,AFNE01.JPG,AFNE01.JPG,AFNE01.JPG,AFNE01.JPG,5,6,56,8,,,,,,,,,,,,,,,,,,,,,,,AFNE12.jpg,AFSA16.jpg,AFNE10.jpg,AFSA08.jpg,AFNE12.jpg,FN,3,num_8,32,num_6,0.633489106083,,,2017_Mar_13_1926,59.9790693868,FEMA4ImagesEEG,001,200048,
AFNE01.JPG,AFNE01.JPG,AFNE01.JPG,AFNE01.JPG,AFNE01.JPG,AFNE01.JPG,5,7,57,4,,,,,,,,,,,,,,,,,,,,,,,AFNE12.jpg,AFNE16.jpg,AFSA19.jpg,AFSA15.jpg,AFNE12.jpg,FN,3,num_8,16,num_8,1.03346280538,,,2017_Mar_13_1926,59.9790693868,FEMA4ImagesEEG,001,200048,
AFNE01.JPG,AFNE01.JPG,AFNE01.JPG,AFNE01.JPG,AFNE01.JPG,AFNE01.JPG,5,8,58,9,,,,,,,,,,,,,,,,,,,,,,,AFNE12.jpg,AFSA17.jpg,AFSA06.jpg,AFNE09.jpg,AFSA17.jpg,FS,4,num_6,32,num_2,0.700172878918,,,2017_Mar_13_1926,59.9790693868,FEMA4ImagesEEG,001,200048,
AFNE01.JPG,AFNE01.JPG,AFNE01.JPG,AFNE01.JPG,AFNE01.JPG,AFNE01.JPG,5,9,59,0,,,,,,,,,,,,,,,,,,,,,,,AFSA14.jpg,AFNE11.jpg,AFNE02.jpg,AFSA03.jpg,AFSA03.jpg,FS,4,num_4,32,num_2,0.700128295983,,,2017_Mar_13_1926,59.9790693868,FEMA4ImagesEEG,001,200048,
,,,,,,,,,,,,,,,,,,,,,,,,,,,,,,,,,,,,,,,,,,,space,2.94996135082,2017_Mar_13_1926,59.9790693868,FEMA4ImagesEEG,001,200048,
AFNE01.JPG,AFNE01.JPG,AFNE01.JPG,AFNE01.JPG,AFNE01.JPG,AFNE01.JPG,,,,,0,0,0,2,,,,,,,,,,,,,,,,,,,AMNE05.jpg,AMSA05.jpg,AMSA03.jpg,AMNE09.jpg,AMNE09.jpg,MN,1,num_4,32,num_8,0.866773259302,,,2017_Mar_13_1926,59.9790693868,FEMA4ImagesEEG,001,200048,
AFNE01.JPG,AFNE01.JPG,AFNE01.JPG,AFNE01.JPG,AFNE01.JPG,AFNE01.JPG,,,,,0,1,1,4,,,,,,,,,,,,,,,,,,,AMSA17.jpg,AMNE19.jpg,AMSA11.jpg,AMNE03.jpg,AMNE19.jpg,MN,1,num_6,16,num_6,0.5667755045,,,2017_Mar_13_1926,59.9790693868,FEMA4ImagesEEG,001,200048,
AFNE01.JPG,AFNE01.JPG,AFNE01.JPG,AFNE01.JPG,AFNE01.JPG,AFNE01.JPG,,,,,0,2,2,1,,,,,,,,,,,,,,,,,,,AMNE17.jpg,AMSA18.jpg,AMSA15.jpg,AMNE02.jpg,AMNE02.jpg,MN,1,num_4,16,num_4,0.733488143829,,,2017_Mar_13_1926,59.9790693868,FEMA4ImagesEEG,001,200048,
AFNE01.JPG,AFNE01.JPG,AFNE01.JPG,AFNE01.JPG,AFNE01.JPG,AFNE01.JPG,,,,,0,3,3,5,,,,,,,,,,,,,,,,,,,AMNE02.jpg,AMNE12.jpg,AMSA07.jpg,AMSA01.jpg,AMSA07.jpg,MS,2,num_2,16,num_2,1.03330885019,,,2017_Mar_13_1926,59.9790693868,FEMA4ImagesEEG,001,200048,
AFNE01.JPG,AFNE01.JPG,AFNE01.JPG,AFNE01.JPG,AFNE01.JPG,AFNE01.JPG,,,,,0,4,4,3,,,,,,,,,,,,,,,,,,,AMNE12.jpg,AMSA14.jpg,AMNE11.jpg,AMSA19.jpg,AMNE12.jpg,MN,1,num_8,32,num_6,0.766805012536,,,2017_Mar_13_1926,59.9790693868,FEMA4ImagesEEG,001,200048,
AFNE01.JPG,AFNE01.JPG,AFNE01.JPG,AFNE01.JPG,AFNE01.JPG,AFNE01.JPG,,,,,0,5,5,7,,,,,,,,,,,,,,,,,,,AMNE07.jpg,AMSA05.jpg,AMSA03.jpg,AMNE20.jpg,AMNE20.jpg,MN,1,num_4,32,num_8,0.683472908684,,,2017_Mar_13_1926,59.9790693868,FEMA4ImagesEEG,001,200048,
AFNE01.JPG,AFNE01.JPG,AFNE01.JPG,AFNE01.JPG,AFNE01.JPG,AFNE01.JPG,,,,,0,6,6,9,,,,,,,,,,,,,,,,,,,AMSA17.jpg,AMNE07.jpg,AMNE09.jpg,AMSA07.jpg,AMSA07.jpg,MS,2,num_4,32,num_2,0.750150266744,,,2017_Mar_13_1926,59.9790693868,FEMA4ImagesEEG,001,200048,
AFNE01.JPG,AFNE01.JPG,AFNE01.JPG,AFNE01.JPG,AFNE01.JPG,AFNE01.JPG,,,,,0,7,7,8,,,,,,,,,,,,,,,,,,,AMSA08.jpg,AMSA18.jpg,AMNE14.jpg,AMNE01.jpg,AMSA18.jpg,MS,2,num_6,16,num_6,0.900099108694,,,2017_Mar_13_1926,59.9790693868,FEMA4ImagesEEG,001,200048,
AFNE01.JPG,AFNE01.JPG,AFNE01.JPG,AFNE01.JPG,AFNE01.JPG,AFNE01.JPG,,,,,0,8,8,0,,,,,,,,,,,,,,,,,,,AMNE06.jpg,AMNE04.jpg,AMSA03.jpg,AMSA15.jpg,AMNE06.jpg,MN,1,num_8,16,num_8,0.833466333512,,,2017_Mar_13_1926,59.9790693868,FEMA4ImagesEEG,001,200048,
AFNE01.JPG,AFNE01.JPG,AFNE01.JPG,AFNE01.JPG,AFNE01.JPG,AFNE01.JPG,,,,,0,9,9,6,,,,,,,,,,,,,,,,,,,AMSA04.jpg,AMNE09.jpg,AMSA05.jpg,AMNE19.jpg,AMSA05.jpg,MS,2,num_2,16,num_2,0.666769089643,,,2017_Mar_13_1926,59.9790693868,FEMA4ImagesEEG,001,200048,
AFNE01.JPG,AFNE01.JPG,AFNE01.JPG,AFNE01.JPG,AFNE01.JPG,AFNE01.JPG,,,,,1,0,10,7,,,,,,,,,,,,,,,,,,,AMNE09.jpg,AMSA19.jpg,AMSA05.jpg,AMNE08.jpg,AMNE08.jpg,MN,1,num_4,16,num_4,0.716638388112,,,2017_Mar_13_1926,59.9790693868,FEMA4ImagesEEG,001,200048,
AFNE01.JPG,AFNE01.JPG,AFNE01.JPG,AFNE01.JPG,AFNE01.JPG,AFNE01.JPG,,,,,1,1,11,4,,,,,,,,,,,,,,,,,,,AMSA04.jpg,AMSA11.jpg,AMNE11.jpg,AMNE19.jpg,AMSA11.jpg,MS,2,num_6,32,num_8,1.03345510759,,,2017_Mar_13_1926,59.9790693868,FEMA4ImagesEEG,001,200048,
AFNE01.JPG,AFNE01.JPG,AFNE01.JPG,AFNE01.JPG,AFNE01.JPG,AFNE01.JPG,,,,,1,2,12,2,,,,,,,,,,,,,,,,,,,AMSA06.jpg,AMNE15.jpg,AMNE19.jpg,AMSA03.jpg,AMNE19.jpg,MN,1,num_2,32,num_8,1.90005933691,,,2017_Mar_13_1926,59.9790693868,FEMA4ImagesEEG,001,200048,
AFNE01.JPG,AFNE01.JPG,AFNE01.JPG,AFNE01.JPG,AFNE01.JPG,AFNE01.JPG,,,,,1,3,13,8,,,,,,,,,,,,,,,,,,,AMNE15.jpg,AMSA16.jpg,AMNE10.jpg,AMSA08.jpg,AMNE15.jpg,MN,1,num_8,32,num_4,0.899968888203,,,2017_Mar_13_1926,59.9790693868,FEMA4ImagesEEG,001,200048,
AFNE01.JPG,AFNE01.JPG,AFNE01.JPG,AFNE01.JPG,AFNE01.JPG,AFNE01.JPG,,,,,1,4,14,5,,,,,,,,,,,,,,,,,,,AMSA20.jpg,AMSA08.jpg,AMNE16.jpg,AMNE20.jpg,AMNE16.jpg,MN,1,num_2,16,num_2,0.583407156984,,,2017_Mar_13_1926,59.9790693868,FEMA4ImagesEEG,001,200048,
AFNE01.JPG,AFNE01.JPG,AFNE01.JPG,AFNE01.JPG,AFNE01.JPG,AFNE01.JPG,,,,,1,5,15,9,,,,,,,,,,,,,,,,,,,AMSA11.jpg,AMSA16.jpg,AMNE04.jpg,AMNE07.jpg,AMSA11.jpg,MS,2,num_8,16,num_8,0.833480766858,,,2017_Mar_13_1926,59.9790693868,FEMA4ImagesEEG,001,200048,
AFNE01.JPG,AFNE01.JPG,AFNE01.JPG,AFNE01.JPG,AFNE01.JPG,AFNE01.JPG,,,,,1,6,16,0,,,,,,,,,,,,,,,,,,,AMNE13.jpg,AMSA17.jpg,AMSA18.jpg,AMNE01.jpg,AMNE01.jpg,MN,1,num_4,16,num_4,0.933744735899,,,2017_Mar_13_1926,59.9790693868,FEMA4ImagesEEG,001,200048,
AFNE01.JPG,AFNE01.JPG,AFNE01.JPG,AFNE01.JPG,AFNE01.JPG,AFNE01.JPG,,,,,1,7,17,1,,,,,,,,,,,,,,,,,,,AMNE20.jpg,AMSA08.jpg,AMNE19.jpg,AMSA15.jpg,AMNE19.jpg,MN,1,num_2,16,num_2,1.34997610486,,,2017_Mar_13_1926,59.9790693868,FEMA4ImagesEEG,001,200048,
AFNE01.JPG,AFNE01.JPG,AFNE01.JPG,AFNE01.JPG,AFNE01.JPG,AFNE01.JPG,,,,,1,8,18,3,,,,,,,,,,,,,,,,,,,AMNE05.jpg,AMSA03.jpg,AMNE01.jpg,AMSA11.jpg,AMNE01.jpg,MN,1,num_2,32,num_8,0.783559829229,,,2017_Mar_13_1926,59.9790693868,FEMA4ImagesEEG,001,200048,
AFNE01.JPG,AFNE01.JPG,AFNE01.JPG,AFNE01.JPG,AFNE01.JPG,AFNE01.JPG,,,,,1,9,19,6,,,,,,,,,,,,,,,,,,,AMSA06.jpg,AMNE02.jpg,AMNE01.jpg,AMSA12.jpg,AMSA12.jpg,MS,2,num_4,32,num_8,1.2497791705,,,2017_Mar_13_1926,59.9790693868,FEMA4ImagesEEG,001,200048,
AFNE01.JPG,AFNE01.JPG,AFNE01.JPG,AFNE01.JPG,AFNE01.JPG,AFNE01.JPG,,,,,2,0,20,0,,,,,,,,,,,,,,,,,,,AMSA11.jpg,AMNE13.jpg,AMNE17.jpg,AMSA05.jpg,AMNE17.jpg,MN,1,num_2,16,num_2,0.53352278372,,,2017_Mar_13_1926,59.9790693868,FEMA4ImagesEEG,001,200048,
AFNE01.JPG,AFNE01.JPG,AFNE01.JPG,AFNE01.JPG,AFNE01.JPG,AFNE01.JPG,,,,,2,1,21,6,,,,,,,,,,,,,,,,,,,AMSA08.jpg,AMSA17.jpg,AMNE14.jpg,AMNE09.jpg,AMNE09.jpg,MN,1,num_4,32,num_8,0.850091892004,,,2017_Mar_13_1926,59.9790693868,FEMA4ImagesEEG,001,200048,
AFNE01.JPG,AFNE01.JPG,AFNE01.JPG,AFNE01.JPG,AFNE01.JPG,AFNE01.JPG,,,,,2,2,22,9,,,,,,,,,,,,,,,,,,,AMSA20.jpg,AMNE09.jpg,AMSA10.jpg,AMNE18.jpg,AMNE18.jpg,MN,1,num_4,32,num_8,0.683498888626,,,2017_Mar_13_1926,59.9790693868,FEMA4ImagesEEG,001,200048,
AFNE01.JPG,AFNE01.JPG,AFNE01.JPG,AFNE01.JPG,AFNE01.JPG,AFNE01.JPG,,,,,2,3,23,5,,,,,,,,,,,,,,,,,,,AMSA18.jpg,AMNE17.jpg,AMNE03.jpg,AMSA08.jpg,AMNE17.jpg,MN,1,num_6,16,num_6,0.533562555502,,,2017_Mar_13_1926,59.9790693868,FEMA4ImagesEEG,001,200048,
AFNE01.JPG,AFNE01.JPG,AFNE01.JPG,AFNE01.JPG,AFNE01.JPG,AFNE01.JPG,,,,,2,4,24,3,,,,,,,,,,,,,,,,,,,AMSA19.jpg,AMNE11.jpg,AMNE08.jpg,AMSA03.jpg,AMNE11.jpg,MN,1,num_6,32,num_8,1.28331093502,,,2017_Mar_13_1926,59.9790693868,FEMA4ImagesEEG,001,200048,
AFNE01.JPG,AFNE01.JPG,AFNE01.JPG,AFNE01.JPG,AFNE01.JPG,AFNE01.JPG,,,,,2,5,25,7,,,,,,,,,,,,,,,,,,,AMNE15.jpg,AMSA04.jpg,AMSA08.jpg,AMNE14.jpg,AMNE14.jpg,MN,1,num_4,16,num_4,0.600163577416,,,2017_Mar_13_1926,59.9790693868,FEMA4ImagesEEG,001,200048,
AFNE01.JPG,AFNE01.JPG,AFNE01.JPG,AFNE01.JPG,AFNE01.JPG,AFNE01.JPG,,,,,2,6,26,1,,,,,,,,,,,,,,,,,,,AMNE08.jpg,AMNE03.jpg,AMSA01.jpg,AMSA14.jpg,AMSA01.jpg,MS,2,num_2,16,num_2,0.916792343312,,,2017_Mar_13_1926,59.9790693868,FEMA4ImagesEEG,001,200048,
AFNE01.JPG,AFNE01.JPG,AFNE01.JPG,AFNE01.JPG,AFNE01.JPG,AFNE01.JPG,,,,,2,7,27,8,,,,,,,,,,,,,,,,,,,AMNE20.jpg,AMSA19.jpg,AMNE01.jpg,AMSA08.jpg,AMNE01.jpg,MN,1,num_2,16,num_2,1.38345558872,,,2017_Mar_13_1926,59.9790693868,FEMA4ImagesEEG,001,200048,
AFNE01.JPG,AFNE01.JPG,AFNE01.JPG,AFNE01.JPG,AFNE01.JPG,AFNE01.JPG,,,,,2,8,28,2,,,,,,,,,,,,,,,,,,,AMNE16.jpg,AMSA03.jpg,AMNE15.jpg,AMSA20.jpg,AMSA20.jpg,MS,2,num_4,32,num_6,0.750132305257,,,2017_Mar_13_1926,59.9790693868,FEMA4ImagesEEG,001,200048,
AFNE01.JPG,AFNE01.JPG,AFNE01.JPG,AFNE01.JPG,AFNE01.JPG,AFNE01.JPG,,,,,2,9,29,4,,,,,,,,,,,,,,,,,,,AMSA15.jpg,AMNE01.jpg,AMNE10.jpg,AMSA07.jpg,AMSA07.jpg,MS,2,num_4,16,num_4,1.00016036996,,,2017_Mar_13_1926,59.9790693868,FEMA4ImagesEEG,001,200048,
AFNE01.JPG,AFNE01.JPG,AFNE01.JPG,AFNE01.JPG,AFNE01.JPG,AFNE01.JPG,,,,,3,0,30,1,,,,,,,,,,,,,,,,,,,AMNE01.jpg,AMSA17.jpg,AMNE16.jpg,AMSA13.jpg,AMNE01.jpg,MN,1,num_8,16,num_8,0.66677742888,,,2017_Mar_13_1926,59.9790693868,FEMA4ImagesEEG,001,200048,
AFNE01.JPG,AFNE01.JPG,AFNE01.JPG,AFNE01.JPG,AFNE01.JPG,AFNE01.JPG,,,,,3,1,31,9,,,,,,,,,,,,,,,,,,,AMNE17.jpg,AMSA01.jpg,AMSA07.jpg,AMNE14.jpg,AMSA07.jpg,MS,2,num_2,32,num_6,0.900135031552,,,2017_Mar_13_1926,59.9790693868,FEMA4ImagesEEG,001,200048,
AFNE01.JPG,AFNE01.JPG,AFNE01.JPG,AFNE01.JPG,AFNE01.JPG,AFNE01.JPG,,,,,3,2,32,6,,,,,,,,,,,,,,,,,,,AMSA03.jpg,AMSA18.jpg,AMNE12.jpg,AMNE13.jpg,AMSA03.jpg,MS,2,num_8,16,num_8,1.23343361804,,,2017_Mar_13_1926,59.9790693868,FEMA4ImagesEEG,001,200048,
AFNE01.JPG,AFNE01.JPG,AFNE01.JPG,AFNE01.JPG,AFNE01.JPG,AFNE01.JPG,,,,,3,3,33,4,,,,,,,,,,,,,,,,,,,AMNE10.jpg,AMSA17.jpg,AMNE14.jpg,AMSA16.jpg,AMSA17.jpg,MS,2,num_6,16,num_6,0.483475474641,,,2017_Mar_13_1926,59.9790693868,FEMA4ImagesEEG,001,200048,
AFNE01.JPG,AFNE01.JPG,AFNE01.JPG,AFNE01.JPG,AFNE01.JPG,AFNE01.JPG,,,,,3,4,34,2,,,,,,,,,,,,,,,,,,,AMSA19.jpg,AMNE02.jpg,AMNE19.jpg,AMSA08.jpg,AMSA19.jpg,MS,2,num_8,32,num_2,0.900141446327,,,2017_Mar_13_1926,59.9790693868,FEMA4ImagesEEG,001,200048,
AFNE01.JPG,AFNE01.JPG,AFNE01.JPG,AFNE01.JPG,AFNE01.JPG,AFNE01.JPG,,,,,3,5,35,5,,,,,,,,,,,,,,,,,,,AMNE16.jpg,AMSA12.jpg,AMSA10.jpg,AMNE12.jpg,AMNE12.jpg,MN,1,num_4,32,num_2,0.616772457433,,,2017_Mar_13_1926,59.9790693868,FEMA4ImagesEEG,001,200048,
AFNE01.JPG,AFNE01.JPG,AFNE01.JPG,AFNE01.JPG,AFNE01.JPG,AFNE01.JPG,,,,,3,6,36,3,,,,,,,,,,,,,,,,,,,AMSA11.jpg,AMNE16.jpg,AMNE03.jpg,AMSA12.jpg,AMSA11.jpg,MS,2,num_8,16,num_8,0.650129418587,,,2017_Mar_13_1926,59.9790693868,FEMA4ImagesEEG,001,200048,
AFNE01.JPG,AFNE01.JPG,AFNE01.JPG,AFNE01.JPG,AFNE01.JPG,AFNE01.JPG,,,,,3,7,37,7,,,,,,,,,,,,,,,,,,,AMNE04.jpg,AMSA07.jpg,AMSA13.jpg,AMNE08.jpg,AMSA07.jpg,MS,2,num_6,16,num_6,1.40020559437,,,2017_Mar_13_1926,59.9790693868,FEMA4ImagesEEG,001,200048,
AFNE01.JPG,AFNE01.JPG,AFNE01.JPG,AFNE01.JPG,AFNE01.JPG,AFNE01.JPG,,,,,3,8,38,8,,,,,,,,,,,,,,,,,,,AMNE06.jpg,AMNE18.jpg,AMSA02.jpg,AMSA11.jpg,AMNE18.jpg,MN,1,num_6,32,num_8,0.566805654031,,,2017_Mar_13_1926,59.9790693868,FEMA4ImagesEEG,001,200048,
AFNE01.JPG,AFNE01.JPG,AFNE01.JPG,AFNE01.JPG,AFNE01.JPG,AFNE01.JPG,,,,,3,9,39,0,,,,,,,,,,,,,,,,,,,AMNE10.jpg,AMSA07.jpg,AMSA02.jpg,AMNE11.jpg,AMNE10.jpg,MN,1,num_8,32,num_2,0.750187472557,,,2017_Mar_13_1926,59.9790693868,FEMA4ImagesEEG,001,200048,
AFNE01.JPG,AFNE01.JPG,AFNE01.JPG,AFNE01.JPG,AFNE01.JPG,AFNE01.JPG,,,,,4,0,40,5,,,,,,,,,,,,,,,,,,,AMSA06.jpg,AMNE02.jpg,AMSA13.jpg,AMNE08.jpg,AMNE08.jpg,MN,1,num_4,32,num_2,0.783463927975,,,2017_Mar_13_1926,59.9790693868,FEMA4ImagesEEG,001,200048,
AFNE01.JPG,AFNE01.JPG,AFNE01.JPG,AFNE01.JPG,AFNE01.JPG,AFNE01.JPG,,,,,4,1,41,8,,,,,,,,,,,,,,,,,,,AMNE16.jpg,AMNE17.jpg,AMSA18.jpg,AMSA04.jpg,AMSA18.jpg,MS,2,num_2,16,num_2,0.583461362054,,,2017_Mar_13_1926,59.9790693868,FEMA4ImagesEEG,001,200048,
AFNE01.JPG,AFNE01.JPG,AFNE01.JPG,AFNE01.JPG,AFNE01.JPG,AFNE01.JPG,,,,,4,2,42,7,,,,,,,,,,,,,,,,,,,AMSA16.jpg,AMNE16.jpg,AMNE15.jpg,AMSA09.jpg,AMSA16.jpg,MS,2,num_8,16,num_8,0.983437948045,,,2017_Mar_13_1926,59.9790693868,FEMA4ImagesEEG,001,200048,
AFNE01.JPG,AFNE01.JPG,AFNE01.JPG,AFNE01.JPG,AFNE01.JPG,AFNE01.JPG,,,,,4,3,43,2,,,,,,,,,,,,,,,,,,,AMSA09.jpg,AMNE04.jpg,AMNE13.jpg,AMSA08.jpg,AMNE13.jpg,MN,1,num_2,16,num_2,0.550112419354,,,2017_Mar_13_1926,59.9790693868,FEMA4ImagesEEG,001,200048,
AFNE01.JPG,AFNE01.JPG,AFNE01.JPG,AFNE01.JPG,AFNE01.JPG,AFNE01.JPG,,,,,4,4,44,1,,,,,,,,,,,,,,,,,,,AMNE02.jpg,AMSA08.jpg,AMNE03.jpg,AMSA19.jpg,AMNE03.jpg,MN,1,num_2,16,num_2,0.933552291885,,,2017_Mar_13_1926,59.9790693868,FEMA4ImagesEEG,001,200048,
AFNE01.JPG,AFNE01.JPG,AFNE01.JPG,AFNE01.JPG,AFNE01.JPG,AFNE01.JPG,,,,,4,5,45,0,,,,,,,,,,,,,,,,,,,AMNE04.jpg,AMSA07.jpg,AMNE05.jpg,AMSA12.jpg,AMNE05.jpg,MN,1,num_2,16,num_2,1.13347563497,,,2017_Mar_13_1926,59.9790693868,FEMA4ImagesEEG,001,200048,
AFNE01.JPG,AFNE01.JPG,AFNE01.JPG,AFNE01.JPG,AFNE01.JPG,AFNE01.JPG,,,,,4,6,46,3,,,,,,,,,,,,,,,,,,,AMNE14.jpg,AMSA03.jpg,AMSA08.jpg,AMNE16.jpg,AMSA03.jpg,MS,2,num_6,16,num_6,0.766828747233,,,2017_Mar_13_1926,59.9790693868,FEMA4ImagesEEG,001,200048,
AFNE01.JPG,AFNE01.JPG,AFNE01.JPG,AFNE01.JPG,AFNE01.JPG,AFNE01.JPG,,,,,4,7,47,4,,,,,,,,,,,,,,,,,,,AMNE12.jpg,AMSA14.jpg,AMNE04.jpg,AMSA20.jpg,AMNE12.jpg,MN,1,num_8,16,num_8,0.699824555195,,,2017_Mar_13_1926,59.9790693868,FEMA4ImagesEEG,001,200048,
AFNE01.JPG,AFNE01.JPG,AFNE01.JPG,AFNE01.JPG,AFNE01.JPG,AFNE01.JPG,,,,,4,8,48,9,,,,,,,,,,,,,,,,,,,AMSA18.jpg,AMNE20.jpg,AMSA07.jpg,AMNE18.jpg,AMSA18.jpg,MS,2,num_8,32,num_2,0.733475955669,,,2017_Mar_13_1926,59.9790693868,FEMA4ImagesEEG,001,200048,
AFNE01.JPG,AFNE01.JPG,AFNE01.JPG,AFNE01.JPG,AFNE01.JPG,AFNE01.JPG,,,,,4,9,49,6,,,,,,,,,,,,,,,,,,,AMNE08.jpg,AMSA18.jpg,AMSA07.jpg,AMNE19.jpg,AMSA07.jpg,MS,2,num_2,16,num_2,0.716826662479,,,2017_Mar_13_1926,59.9790693868,FEMA4ImagesEEG,001,200048,
AFNE01.JPG,AFNE01.JPG,AFNE01.JPG,AFNE01.JPG,AFNE01.JPG,AFNE01.JPG,,,,,5,0,50,4,,,,,,,,,,,,,,,,,,,AMSA14.jpg,AMNE12.jpg,AMSA02.jpg,AMNE09.jpg,AMSA14.jpg,MS,2,num_8,16,num_8,0.700214254321,,,2017_Mar_13_1926,59.9790693868,FEMA4ImagesEEG,001,200048,
AFNE01.JPG,AFNE01.JPG,AFNE01.JPG,AFNE01.JPG,AFNE01.JPG,AFNE01.JPG,,,,,5,1,51,6,,,,,,,,,,,,,,,,,,,AMNE17.jpg,AMSA15.jpg,AMSA10.jpg,AMNE04.jpg,AMNE04.jpg,MN,1,num_4,32,num_2,0.933406675875,,,2017_Mar_13_1926,59.9790693868,FEMA4ImagesEEG,001,200048,
AFNE01.JPG,AFNE01.JPG,AFNE01.JPG,AFNE01.JPG,AFNE01.JPG,AFNE01.JPG,,,,,5,2,52,5,,,,,,,,,,,,,,,,,,,AMSA05.jpg,AMSA09.jpg,AMNE14.jpg,AMNE05.jpg,AMNE14.jpg,MN,1,num_2,32,num_8,0.28357714921,,,2017_Mar_13_1926,59.9790693868,FEMA4ImagesEEG,001,200048,
AFNE01.JPG,AFNE01.JPG,AFNE01.JPG,AFNE01.JPG,AFNE01.JPG,AFNE01.JPG,,,,,5,3,53,0,,,,,,,,,,,,,,,,,,,AMSA16.jpg,AMSA11.jpg,AMNE17.jpg,AMNE11.jpg,AMNE17.jpg,MN,1,num_2,32,num_8,1.0168677172,,,2017_Mar_13_1926,59.9790693868,FEMA4ImagesEEG,001,200048,
AFNE01.JPG,AFNE01.JPG,AFNE01.JPG,AFNE01.JPG,AFNE01.JPG,AFNE01.JPG,,,,,5,4,54,2,,,,,,,,,,,,,,,,,,,AMNE03.jpg,AMNE04.jpg,AMSA16.jpg,AMSA13.jpg,AMSA16.jpg,MS,2,num_2,16,num_2,0.48346328648,,,2017_Mar_13_1926,59.9790693868,FEMA4ImagesEEG,001,200048,
AFNE01.JPG,AFNE01.JPG,AFNE01.JPG,AFNE01.JPG,AFNE01.JPG,AFNE01.JPG,,,,,5,5,55,3,,,,,,,,,,,,,,,,,,,AMSA05.jpg,AMNE01.jpg,AMNE14.jpg,AMSA17.jpg,AMSA05.jpg,MS,2,num_8,16,num_8,0.683472908684,,,2017_Mar_13_1926,59.9790693868,FEMA4ImagesEEG,001,200048,
AFNE01.JPG,AFNE01.JPG,AFNE01.JPG,AFNE01.JPG,AFNE01.JPG,AFNE01.JPG,,,,,5,6,56,7,,,,,,,,,,,,,,,,,,,AMSA17.jpg,AMSA14.jpg,AMNE16.jpg,AMNE18.jpg,AMNE18.jpg,MN,1,num_4,16,num_4,1.11678528704,,,2017_Mar_13_1926,59.9790693868,FEMA4ImagesEEG,001,200048,
AFNE01.JPG,AFNE01.JPG,AFNE01.JPG,AFNE01.JPG,AFNE01.JPG,AFNE01.JPG,,,,,5,7,57,9,,,,,,,,,,,,,,,,,,,AMNE15.jpg,AMSA11.jpg,AMSA14.jpg,AMNE14.jpg,AMSA11.jpg,MS,2,num_6,32,num_8,0.700150747842,,,2017_Mar_13_1926,59.9790693868,FEMA4ImagesEEG,001,200048,
AFNE01.JPG,AFNE01.JPG,AFNE01.JPG,AFNE01.JPG,AFNE01.JPG,AFNE01.JPG,,,,,5,8,58,8,,,,,,,,,,,,,,,,,,,AMNE19.jpg,AMSA07.jpg,AMSA10.jpg,AMNE17.jpg,AMSA07.jpg,MS,2,num_6,32,num_8,1.03350514307,,,2017_Mar_13_1926,59.9790693868,FEMA4ImagesEEG,001,200048,
AFNE01.JPG,AFNE01.JPG,AFNE01.JPG,AFNE01.JPG,AFNE01.JPG,AFNE01.JPG,,,,,5,9,59,1,,,,,,,,,,,,,,,,,,,AMNE01.jpg,AMSA15.jpg,AMNE02.jpg,AMSA06.jpg,AMNE02.jpg,MN,1,num_2,32,num_4,0.866772297013,,,2017_Mar_13_1926,59.9790693868,FEMA4ImagesEEG,001,200048,
,,,,,,,,,,,,,,,,,,,,,,,,,,,,,,,,,,,,,,,,,,,space,5.26647240511,2017_Mar_13_1926,59.9790693868,FEMA4ImagesEEG,001,200048,
AFNE01.JPG,AFNE01.JPG,AFNE01.JPG,AFNE01.JPG,AFNE01.JPG,AFNE01.JPG,,,,,,,,,0,0,0,0,,,,,,,,,,,,,,,AFSA17.jpg,AFSA04.jpg,AFNE01.jpg,AFNE18.jpg,AFSA17.jpg,FS,4,num_8,32,num_4,0.76707828301,,,2017_Mar_13_1926,59.9790693868,FEMA4ImagesEEG,001,200048,
AFNE01.JPG,AFNE01.JPG,AFNE01.JPG,AFNE01.JPG,AFNE01.JPG,AFNE01.JPG,,,,,,,,,0,1,1,1,,,,,,,,,,,,,,,AFSA08.jpg,AFNE05.jpg,AFSA02.jpg,AFNE03.jpg,AFNE05.jpg,FN,3,num_6,32,num_4,0.616741024889,,,2017_Mar_13_1926,59.9790693868,FEMA4ImagesEEG,001,200048,
AFNE01.JPG,AFNE01.JPG,AFNE01.JPG,AFNE01.JPG,AFNE01.JPG,AFNE01.JPG,,,,,,,,,0,2,2,3,,,,,,,,,,,,,,,AFNE18.jpg,AFNE02.jpg,AFSA19.jpg,AFSA11.jpg,AFNE18.jpg,FN,3,num_8,16,num_8,0.5501268527,,,2017_Mar_13_1926,59.9790693868,FEMA4ImagesEEG,001,200048,
AFNE01.JPG,AFNE01.JPG,AFNE01.JPG,AFNE01.JPG,AFNE01.JPG,AFNE01.JPG,,,,,,,,,0,3,3,8,,,,,,,,,,,,,,,AFNE02.jpg,AFSA20.jpg,AFNE07.jpg,AFSA09.jpg,AFNE07.jpg,FN,3,num_2,16,num_2,0.4667941074,,,2017_Mar_13_1926,59.9790693868,FEMA4ImagesEEG,001,200048,
AFNE01.JPG,AFNE01.JPG,AFNE01.JPG,AFNE01.JPG,AFNE01.JPG,AFNE01.JPG,,,,,,,,,0,4,4,6,,,,,,,,,,,,,,,AFSA11.jpg,AFNE10.jpg,AFSA01.jpg,AFNE08.jpg,AFNE08.jpg,FN,3,num_4,16,num_4,0.683373800013,,,2017_Mar_13_1926,59.9790693868,FEMA4ImagesEEG,001,200048,
AFNE01.JPG,AFNE01.JPG,AFNE01.JPG,AFNE01.JPG,AFNE01.JPG,AFNE01.JPG,,,,,,,,,0,5,5,4,,,,,,,,,,,,,,,AFSA02.jpg,AFNE08.jpg,AFSA10.jpg,AFNE05.jpg,AFNE08.jpg,FN,3,num_6,16,num_6,0.583351348236,,,2017_Mar_13_1926,59.9790693868,FEMA4ImagesEEG,001,200048,
AFNE01.JPG,AFNE01.JPG,AFNE01.JPG,AFNE01.JPG,AFNE01.JPG,AFNE01.JPG,,,,,,,,,0,6,6,9,,,,,,,,,,,,,,,AFNE05.jpg,AFNE13.jpg,AFSA07.jpg,AFSA13.jpg,AFSA13.jpg,FS,4,num_4,16,num_4,0.883332745347,,,2017_Mar_13_1926,59.9790693868,FEMA4ImagesEEG,001,200048,
AFNE01.JPG,AFNE01.JPG,AFNE01.JPG,AFNE01.JPG,AFNE01.JPG,AFNE01.JPG,,,,,,,,,0,7,7,7,,,,,,,,,,,,,,,AFNE02.jpg,AFSA19.jpg,AFSA18.jpg,AFNE12.jpg,AFNE02.jpg,FN,3,num_8,16,num_8,0.583453343541,,,2017_Mar_13_1926,59.9790693868,FEMA4ImagesEEG,001,200048,
AFNE01.JPG,AFNE01.JPG,AFNE01.JPG,AFNE01.JPG,AFNE01.JPG,AFNE01.JPG,,,,,,,,,0,8,8,5,,,,,,,,,,,,,,,AFNE12.jpg,AFSA01.jpg,AFSA13.jpg,AFNE20.jpg,AFNE12.jpg,FN,3,num_8,16,num_8,0.633474672795,,,2017_Mar_13_1926,59.9790693868,FEMA4ImagesEEG,001,200048,
AFNE01.JPG,AFNE01.JPG,AFNE01.JPG,AFNE01.JPG,AFNE01.JPG,AFNE01.JPG,,,,,,,,,0,9,9,2,,,,,,,,,,,,,,,AFSA13.jpg,AFNE18.jpg,AFNE17.jpg,AFSA06.jpg,AFNE17.jpg,FN,3,num_2,32,num_8,0.566799239197,,,2017_Mar_13_1926,59.9790693868,FEMA4ImagesEEG,001,200048,
AFNE01.JPG,AFNE01.JPG,AFNE01.JPG,AFNE01.JPG,AFNE01.JPG,AFNE01.JPG,,,,,,,,,1,0,10,4,,,,,,,,,,,,,,,AFNE07.jpg,AFNE08.jpg,AFSA05.jpg,AFSA09.jpg,AFNE08.jpg,FN,3,num_6,16,num_6,0.800136635196,,,2017_Mar_13_1926,59.9790693868,FEMA4ImagesEEG,001,200048,
AFNE01.JPG,AFNE01.JPG,AFNE01.JPG,AFNE01.JPG,AFNE01.JPG,AFNE01.JPG,,,,,,,,,1,1,11,1,,,,,,,,,,,,,,,AFSA09.jpg,AFSA19.jpg,AFNE10.jpg,AFNE17.jpg,AFNE10.jpg,FN,3,num_2,16,num_2,0.633479804615,,,2017_Mar_13_1926,59.9790693868,FEMA4ImagesEEG,001,200048,
AFNE01.JPG,AFNE01.JPG,AFNE01.JPG,AFNE01.JPG,AFNE01.JPG,AFNE01.JPG,,,,,,,,,1,2,12,6,,,,,,,,,,,,,,,AFSA05.jpg,AFSA15.jpg,AFNE09.jpg,AFNE13.jpg,AFNE09.jpg,FN,3,num_2,32,num_8,0.733513161598,,,2017_Mar_13_1926,59.9790693868,FEMA4ImagesEEG,001,200048,
AFNE01.JPG,AFNE01.JPG,AFNE01.JPG,AFNE01.JPG,AFNE01.JPG,AFNE01.JPG,,,,,,,,,1,3,13,9,,,,,,,,,,,,,,,AFNE10.jpg,AFSA07.jpg,AFSA08.jpg,AFNE13.jpg,AFNE10.jpg,FN,3,num_8,32,num_4,0.733464729798,,,2017_Mar_13_1926,59.9790693868,FEMA4ImagesEEG,001,200048,
AFNE01.JPG,AFNE01.JPG,AFNE01.JPG,AFNE01.JPG,AFNE01.JPG,AFNE01.JPG,,,,,,,,,1,4,14,7,,,,,,,,,,,,,,,AFSA15.jpg,AFNE07.jpg,AFNE03.jpg,AFSA12.jpg,AFSA15.jpg,FS,4,num_8,16,num_8,0.966767806676,,,2017_Mar_13_1926,59.9790693868,FEMA4ImagesEEG,001,200048,
AFNE01.JPG,AFNE01.JPG,AFNE01.JPG,AFNE01.JPG,AFNE01.JPG,AFNE01.JPG,,,,,,,,,1,5,15,2,,,,,,,,,,,,,,,AFSA13.jpg,AFNE03.jpg,AFNE16.jpg,AFSA12.jpg,AFSA12.jpg,FS,4,num_4,32,num_8,0.88348092715,,,2017_Mar_13_1926,59.9790693868,FEMA4ImagesEEG,001,200048,
AFNE01.JPG,AFNE01.JPG,AFNE01.JPG,AFNE01.JPG,AFNE01.JPG,AFNE01.JPG,,,,,,,,,1,6,16,0,,,,,,,,,,,,,,,AFSA12.jpg,AFNE08.jpg,AFNE05.jpg,AFSA03.jpg,AFNE08.jpg,FN,3,num_6,16,num_6,0.600052601367,,,2017_Mar_13_1926,59.9790693868,FEMA4ImagesEEG,001,200048,
AFNE01.JPG,AFNE01.JPG,AFNE01.JPG,AFNE01.JPG,AFNE01.JPG,AFNE01.JPG,,,,,,,,,1,7,17,5,,,,,,,,,,,,,,,AFNE05.jpg,AFSA04.jpg,AFNE13.jpg,AFSA11.jpg,AFSA04.jpg,FS,4,num_6,32,num_4,0.583462324284,,,2017_Mar_13_1926,59.9790693868,FEMA4ImagesEEG,001,200048,
AFNE01.JPG,AFNE01.JPG,AFNE01.JPG,AFNE01.JPG,AFNE01.JPG,AFNE01.JPG,,,,,,,,,1,8,18,8,,,,,,,,,,,,,,,AFNE19.jpg,AFSA07.jpg,AFNE18.jpg,AFSA01.jpg,AFSA01.jpg,FS,4,num_4,32,num_6,0.733508671168,,,2017_Mar_13_1926,59.9790693868,FEMA4ImagesEEG,001,200048,
AFNE01.JPG,AFNE01.JPG,AFNE01.JPG,AFNE01.JPG,AFNE01.JPG,AFNE01.JPG,,,,,,,,,1,9,19,3,,,,,,,,,,,,,,,AFNE11.jpg,AFNE10.jpg,AFSA03.jpg,AFSA16.jpg,AFNE11.jpg,FN,3,num_8,16,num_8,0.433448051335,,,2017_Mar_13_1926,59.9790693868,FEMA4ImagesEEG,001,200048,
AFNE01.JPG,AFNE01.JPG,AFNE01.JPG,AFNE01.JPG,AFNE01.JPG,AFNE01.JPG,,,,,,,,,2,0,20,3,,,,,,,,,,,,,,,AFSA03.jpg,AFNE20.jpg,AFSA09.jpg,AFNE19.jpg,AFNE20.jpg,FN,3,num_6,32,num_2,0.783575866255,,,2017_Mar_13_1926,59.9790693868,FEMA4ImagesEEG,001,200048,
AFNE01.JPG,AFNE01.JPG,AFNE01.JPG,AFNE01.JPG,AFNE01.JPG,AFNE01.JPG,,,,,,,,,2,1,21,7,,,,,,,,,,,,,,,AFSA10.jpg,AFSA19.jpg,AFNE20.jpg,AFNE01.jpg,AFNE20.jpg,FN,3,num_2,16,num_2,0.616784645536,,,2017_Mar_13_1926,59.9790693868,FEMA4ImagesEEG,001,200048,
AFNE01.JPG,AFNE01.JPG,AFNE01.JPG,AFNE01.JPG,AFNE01.JPG,AFNE01.JPG,,,,,,,,,2,2,22,8,,,,,,,,,,,,,,,AFNE10.jpg,AFNE17.jpg,AFSA14.jpg,AFSA17.jpg,AFSA14.jpg,FS,4,num_2,32,num_8,0.700133427861,,,2017_Mar_13_1926,59.9790693868,FEMA4ImagesEEG,001,200048,
AFNE01.JPG,AFNE01.JPG,AFNE01.JPG,AFNE01.JPG,AFNE01.JPG,AFNE01.JPG,,,,,,,,,2,3,23,9,,,,,,,,,,,,,,,AFSA03.jpg,AFNE13.jpg,AFNE09.jpg,AFSA04.jpg,AFSA03.jpg,FS,4,num_8,32,num_6,0.766819445824,,,2017_Mar_13_1926,59.9790693868,FEMA4ImagesEEG,001,200048,
AFNE01.JPG,AFNE01.JPG,AFNE01.JPG,AFNE01.JPG,AFNE01.JPG,AFNE01.JPG,,,,,,,,,2,4,24,5,,,,,,,,,,,,,,,AFNE06.jpg,AFSA18.jpg,AFNE16.jpg,AFSA03.jpg,AFSA18.jpg,FS,4,num_6,16,num_6,0.716800682538,,,2017_Mar_13_1926,59.9790693868,FEMA4ImagesEEG,001,200048,
AFNE01.JPG,AFNE01.JPG,AFNE01.JPG,AFNE01.JPG,AFNE01.JPG,AFNE01.JPG,,,,,,,,,2,5,25,6,,,,,,,,,,,,,,,AFSA01.jpg,AFNE15.jpg,AFSA09.jpg,AFNE03.jpg,AFSA01.jpg,FS,4,num_8,32,num_6,0.749981236702,,,2017_Mar_13_1926,59.9790693868,FEMA4ImagesEEG,001,200048,
AFNE01.JPG,AFNE01.JPG,AFNE01.JPG,AFNE01.JPG,AFNE01.JPG,AFNE01.JPG,,,,,,,,,2,6,26,4,,,,,,,,,,,,,,,AFSA13.jpg,AFNE07.jpg,AFSA10.jpg,AFNE01.jpg,AFNE07.jpg,FN,3,num_6,16,num_6,0.983494718967,,,2017_Mar_13_1926,59.9790693868,FEMA4ImagesEEG,001,200048,
AFNE01.JPG,AFNE01.JPG,AFNE01.JPG,AFNE01.JPG,AFNE01.JPG,AFNE01.JPG,,,,,,,,,2,7,27,2,,,,,,,,,,,,,,,AFSA09.jpg,AFNE14.jpg,AFNE09.jpg,AFSA11.jpg,AFNE09.jpg,FN,3,num_2,16,num_2,0.783499530109,,,2017_Mar_13_1926,59.9790693868,FEMA4ImagesEEG,001,200048,
AFNE01.JPG,AFNE01.JPG,AFNE01.JPG,AFNE01.JPG,AFNE01.JPG,AFNE01.JPG,,,,,,,,,2,8,28,0,,,,,,,,,,,,,,,AFSA17.jpg,AFNE06.jpg,AFNE01.jpg,AFSA08.jpg,AFSA17.jpg,FS,4,num_8,16,num_8,0.650117230485,,,2017_Mar_13_1926,59.9790693868,FEMA4ImagesEEG,001,200048,
AFNE01.JPG,AFNE01.JPG,AFNE01.JPG,AFNE01.JPG,AFNE01.JPG,AFNE01.JPG,,,,,,,,,2,9,29,1,,,,,,,,,,,,,,,AFNE14.jpg,AFNE09.jpg,AFSA08.jpg,AFSA05.jpg,AFSA05.jpg,FS,4,num_4,16,num_4,0.766750807466,,,2017_Mar_13_1926,59.9790693868,FEMA4ImagesEEG,001,200048,
AFNE01.JPG,AFNE01.JPG,AFNE01.JPG,AFNE01.JPG,AFNE01.JPG,AFNE01.JPG,,,,,,,,,3,0,30,5,,,,,,,,,,,,,,,AFNE09.jpg,AFSA02.jpg,AFNE12.jpg,AFSA05.jpg,AFNE12.jpg,FN,3,num_2,32,num_8,0.783492473885,,,2017_Mar_13_1926,59.9790693868,FEMA4ImagesEEG,001,200048,
AFNE01.JPG,AFNE01.JPG,AFNE01.JPG,AFNE01.JPG,AFNE01.JPG,AFNE01.JPG,,,,,,,,,3,1,31,4,,,,,,,,,,,,,,,AFSA14.jpg,AFNE10.jpg,AFSA05.jpg,AFNE07.jpg,AFNE10.jpg,FN,3,num_6,32,num_8,0.90013054118,,,2017_Mar_13_1926,59.9790693868,FEMA4ImagesEEG,001,200048,
AFNE01.JPG,AFNE01.JPG,AFNE01.JPG,AFNE01.JPG,AFNE01.JPG,AFNE01.JPG,,,,,,,,,3,2,32,2,,,,,,,,,,,,,,,AFSA14.jpg,AFSA11.jpg,AFNE12.jpg,AFNE19.jpg,AFSA14.jpg,FS,4,num_8,16,num_8,0.633473389782,,,2017_Mar_13_1926,59.9790693868,FEMA4ImagesEEG,001,200048,
AFNE01.JPG,AFNE01.JPG,AFNE01.JPG,AFNE01.JPG,AFNE01.JPG,AFNE01.JPG,,,,,,,,,3,3,33,0,,,,,,,,,,,,,,,AFNE15.jpg,AFSA20.jpg,AFNE11.jpg,AFSA10.jpg,AFNE15.jpg,FN,3,num_8,32,num_4,0.783476757584,,,2017_Mar_13_1926,59.9790693868,FEMA4ImagesEEG,001,200048,
AFNE01.JPG,AFNE01.JPG,AFNE01.JPG,AFNE01.JPG,AFNE01.JPG,AFNE01.JPG,,,,,,,,,3,4,34,1,,,,,,,,,,,,,,,AFSA13.jpg,AFNE11.jpg,AFSA05.jpg,AFNE08.jpg,AFSA13.jpg,FS,4,num_8,16,num_8,0.966774542176,,,2017_Mar_13_1926,59.9790693868,FEMA4ImagesEEG,001,200048,
AFNE01.JPG,AFNE01.JPG,AFNE01.JPG,AFNE01.JPG,AFNE01.JPG,AFNE01.JPG,,,,,,,,,3,5,35,7,,,,,,,,,,,,,,,AFNE06.jpg,AFSA08.jpg,AFSA09.jpg,AFNE18.jpg,AFSA09.jpg,FS,4,num_2,32,num_6,1.01677534403,,,2017_Mar_13_1926,59.9790693868,FEMA4ImagesEEG,001,200048,
AFNE01.JPG,AFNE01.JPG,AFNE01.JPG,AFNE01.JPG,AFNE01.JPG,AFNE01.JPG,,,,,,,,,3,6,36,8,,,,,,,,,,,,,,,AFSA14.jpg,AFNE17.jpg,AFNE07.jpg,AFSA04.jpg,AFSA14.jpg,FS,4,num_8,32,num_4,0.716782721109,,,2017_Mar_13_1926,59.9790693868,FEMA4ImagesEEG,001,200048,
AFNE01.JPG,AFNE01.JPG,AFNE01.JPG,AFNE01.JPG,AFNE01.JPG,AFNE01.JPG,,,,,,,,,3,7,37,9,,,,,,,,,,,,,,,AFNE10.jpg,AFNE11.jpg,AFSA13.jpg,AFSA15.jpg,AFSA15.jpg,FS,4,num_4,32,num_6,0.666771334829,,,2017_Mar_13_1926,59.9790693868,FEMA4ImagesEEG,001,200048,
AFNE01.JPG,AFNE01.JPG,AFNE01.JPG,AFNE01.JPG,AFNE01.JPG,AFNE01.JPG,,,,,,,,,3,8,38,6,,,,,,,,,,,,,,,AFNE04.jpg,AFNE10.jpg,AFSA15.jpg,AFSA01.jpg,AFSA15.jpg,FS,4,num_2,16,num_2,0.766819766606,,,2017_Mar_13_1926,59.9790693868,FEMA4ImagesEEG,001,200048,
AFNE01.JPG,AFNE01.JPG,AFNE01.JPG,AFNE01.JPG,AFNE01.JPG,AFNE01.JPG,,,,,,,,,3,9,39,3,,,,,,,,,,,,,,,AFNE17.jpg,AFSA14.jpg,AFSA09.jpg,AFNE09.jpg,AFNE17.jpg,FN,3,num_8,16,num_8,0.633464409038,,,2017_Mar_13_1926,59.9790693868,FEMA4ImagesEEG,001,200048,
AFNE01.JPG,AFNE01.JPG,AFNE01.JPG,AFNE01.JPG,AFNE01.JPG,AFNE01.JPG,,,,,,,,,4,0,40,8,,,,,,,,,,,,,,,AFNE11.jpg,AFNE13.jpg,AFSA02.jpg,AFSA16.jpg,AFSA02.jpg,FS,4,num_2,32,num_4,0.700138238957,,,2017_Mar_13_1926,59.9790693868,FEMA4ImagesEEG,001,200048,
AFNE01.JPG,AFNE01.JPG,AFNE01.JPG,AFNE01.JPG,AFNE01.JPG,AFNE01.JPG,,,,,,,,,4,1,41,3,,,,,,,,,,,,,,,AFSA17.jpg,AFNE17.jpg,AFNE20.jpg,AFSA06.jpg,AFSA17.jpg,FS,4,num_8,32,num_4,0.516796512878,,,2017_Mar_13_1926,59.9790693868,FEMA4ImagesEEG,001,200048,
AFNE01.JPG,AFNE01.JPG,AFNE01.JPG,AFNE01.JPG,AFNE01.JPG,AFNE01.JPG,,,,,,,,,4,2,42,6,,,,,,,,,,,,,,,AFSA20.jpg,AFSA04.jpg,AFNE17.jpg,AFNE02.jpg,AFSA04.jpg,FS,4,num_6,16,num_6,0.650159247394,,,2017_Mar_13_1926,59.9790693868,FEMA4ImagesEEG,001,200048,
AFNE01.JPG,AFNE01.JPG,AFNE01.JPG,AFNE01.JPG,AFNE01.JPG,AFNE01.JPG,,,,,,,,,4,3,43,5,,,,,,,,,,,,,,,AFNE04.jpg,AFSA08.jpg,AFNE03.jpg,AFSA09.jpg,AFNE03.jpg,FN,3,num_2,16,num_2,0.683509793831,,,2017_Mar_13_1926,59.9790693868,FEMA4ImagesEEG,001,200048,
AFNE01.JPG,AFNE01.JPG,AFNE01.JPG,AFNE01.JPG,AFNE01.JPG,AFNE01.JPG,,,,,,,,,4,4,44,0,,,,,,,,,,,,,,,AFNE17.jpg,AFNE10.jpg,AFSA14.jpg,AFSA06.jpg,AFNE10.jpg,FN,3,num_6,16,num_6,0.816592201532,,,2017_Mar_13_1926,59.9790693868,FEMA4ImagesEEG,001,200048,
AFNE01.JPG,AFNE01.JPG,AFNE01.JPG,AFNE01.JPG,AFNE01.JPG,AFNE01.JPG,,,,,,,,,4,5,45,4,,,,,,,,,,,,,,,AFSA20.jpg,AFNE02.jpg,AFSA10.jpg,AFNE16.jpg,AFNE16.jpg,FN,3,num_4,32,num_8,0.550162134052,,,2017_Mar_13_1926,59.9790693868,FEMA4ImagesEEG,001,200048,
AFNE01.JPG,AFNE01.JPG,AFNE01.JPG,AFNE01.JPG,AFNE01.JPG,AFNE01.JPG,,,,,,,,,4,6,46,7,,,,,,,,,,,,,,,AFNE02.jpg,AFSA01.jpg,AFSA02.jpg,AFNE03.jpg,AFSA01.jpg,FS,4,num_6,32,num_8,0.683521661209,,,2017_Mar_13_1926,59.9790693868,FEMA4ImagesEEG,001,200048,
AFNE01.JPG,AFNE01.JPG,AFNE01.JPG,AFNE01.JPG,AFNE01.JPG,AFNE01.JPG,,,,,,,,,4,7,47,2,,,,,,,,,,,,,,,AFNE07.jpg,AFSA18.jpg,AFNE10.jpg,AFSA14.jpg,AFSA18.jpg,FS,4,num_6,16,num_6,0.566774221486,,,2017_Mar_13_1926,59.9790693868,FEMA4ImagesEEG,001,200048,
AFNE01.JPG,AFNE01.JPG,AFNE01.JPG,AFNE01.JPG,AFNE01.JPG,AFNE01.JPG,,,,,,,,,4,8,48,1,,,,,,,,,,,,,,,AFNE16.jpg,AFSA07.jpg,AFSA03.jpg,AFNE14.jpg,AFNE14.jpg,FN,3,num_4,16,num_4,0.666829388763,,,2017_Mar_13_1926,59.9790693868,FEMA4ImagesEEG,001,200048,
AFNE01.JPG,AFNE01.JPG,AFNE01.JPG,AFNE01.JPG,AFNE01.JPG,AFNE01.JPG,,,,,,,,,4,9,49,9,,,,,,,,,,,,,,,AFNE08.jpg,AFSA13.jpg,AFNE13.jpg,AFSA20.jpg,AFSA20.jpg,FS,4,num_4,32,num_8,0.883485096856,,,2017_Mar_13_1926,59.9790693868,FEMA4ImagesEEG,001,200048,
AFNE01.JPG,AFNE01.JPG,AFNE01.JPG,AFNE01.JPG,AFNE01.JPG,AFNE01.JPG,,,,,,,,,5,0,50,8,,,,,,,,,,,,,,,AFNE11.jpg,AFSA02.jpg,AFNE05.jpg,AFSA14.jpg,AFSA02.jpg,FS,4,num_6,32,num_8,1.28342736361,,,2017_Mar_13_1926,59.9790693868,FEMA4ImagesEEG,001,200048,
AFNE01.JPG,AFNE01.JPG,AFNE01.JPG,AFNE01.JPG,AFNE01.JPG,AFNE01.JPG,,,,,,,,,5,1,51,6,,,,,,,,,,,,,,,AFNE10.jpg,AFSA09.jpg,AFSA16.jpg,AFNE09.jpg,AFNE10.jpg,FN,3,num_8,16,num_8,0.53351252008,,,2017_Mar_13_1926,59.9790693868,FEMA4ImagesEEG,001,200048,
AFNE01.JPG,AFNE01.JPG,AFNE01.JPG,AFNE01.JPG,AFNE01.JPG,AFNE01.JPG,,,,,,,,,5,2,52,0,,,,,,,,,,,,,,,AFNE04.jpg,AFSA05.jpg,AFNE09.jpg,AFSA07.jpg,AFNE09.jpg,FN,3,num_2,32,num_8,0.566780957044,,,2017_Mar_13_1926,59.9790693868,FEMA4ImagesEEG,001,200048,
AFNE01.JPG,AFNE01.JPG,AFNE01.JPG,AFNE01.JPG,AFNE01.JPG,AFNE01.JPG,,,,,,,,,5,3,53,3,,,,,,,,,,,,,,,AFSA10.jpg,AFNE15.jpg,AFSA11.jpg,AFNE13.jpg,AFNE13.jpg,FN,3,num_4,32,num_8,0.666762033361,,,2017_Mar_13_1926,59.9790693868,FEMA4ImagesEEG,001,200048,
AFNE01.JPG,AFNE01.JPG,AFNE01.JPG,AFNE01.JPG,AFNE01.JPG,AFNE01.JPG,,,,,,,,,5,4,54,9,,,,,,,,,,,,,,,AFNE12.jpg,AFSA02.jpg,AFNE05.jpg,AFSA09.jpg,AFNE12.jpg,FN,3,num_8,16,num_8,0.583507869334,,,2017_Mar_13_1926,59.9790693868,FEMA4ImagesEEG,001,200048,
AFNE01.JPG,AFNE01.JPG,AFNE01.JPG,AFNE01.JPG,AFNE01.JPG,AFNE01.JPG,,,,,,,,,5,5,55,1,,,,,,,,,,,,,,,AFSA13.jpg,AFNE03.jpg,AFSA16.jpg,AFNE10.jpg,AFSA16.jpg,FS,4,num_2,16,num_2,0.650104721601,,,2017_Mar_13_1926,59.9790693868,FEMA4ImagesEEG,001,200048,
AFNE01.JPG,AFNE01.JPG,AFNE01.JPG,AFNE01.JPG,AFNE01.JPG,AFNE01.JPG,,,,,,,,,5,6,56,4,,,,,,,,,,,,,,,AFSA19.jpg,AFSA04.jpg,AFNE01.jpg,AFNE03.jpg,AFSA04.jpg,FS,4,num_6,32,num_2,0.750164058525,,,2017_Mar_13_1926,59.9790693868,FEMA4ImagesEEG,001,200048,
AFNE01.JPG,AFNE01.JPG,AFNE01.JPG,AFNE01.JPG,AFNE01.JPG,AFNE01.JPG,,,,,,,,,5,7,57,5,,,,,,,,,,,,,,,AFNE01.jpg,AFNE04.jpg,AFSA14.jpg,AFSA08.jpg,AFNE04.jpg,FN,3,num_6,16,num_6,0.63360232726,,,2017_Mar_13_1926,59.9790693868,FEMA4ImagesEEG,001,200048,
AFNE01.JPG,AFNE01.JPG,AFNE01.JPG,AFNE01.JPG,AFNE01.JPG,AFNE01.JPG,,,,,,,,,5,8,58,7,,,,,,,,,,,,,,,AFNE02.jpg,AFNE15.jpg,AFSA09.jpg,AFSA06.jpg,AFNE02.jpg,FN,3,num_8,32,num_2,0.950102797186,,,2017_Mar_13_1926,59.9790693868,FEMA4ImagesEEG,001,200048,
AFNE01.JPG,AFNE01.JPG,AFNE01.JPG,AFNE01.JPG,AFNE01.JPG,AFNE01.JPG,,,,,,,,,5,9,59,2,,,,,,,,,,,,,,,AFSA08.jpg,AFNE03.jpg,AFSA13.jpg,AFNE08.jpg,AFNE03.jpg,FN,3,num_6,16,num_6,0.683492794575,,,2017_Mar_13_1926,59.9790693868,FEMA4ImagesEEG,001,200048,
,,,,,,,,,,,,,,,,,,,,,,,,,,,,,,,,,,,,,,,,,,,space,1.96695415664,2017_Mar_13_1926,59.9790693868,FEMA4ImagesEEG,001,200048,
AFNE01.JPG,AFNE01.JPG,AFNE01.JPG,AFNE01.JPG,AFNE01.JPG,AFNE01.JPG,,,,,,,,,,,,,0,0,0,1,,,,,,,,,,,AMNE03.jpg,AMSA02.jpg,AMSA01.jpg,AMNE13.jpg,AMSA02.jpg,MS,2,num_6,32,num_2,0.733507388271,,,2017_Mar_13_1926,59.9790693868,FEMA4ImagesEEG,001,200048,
AFNE01.JPG,AFNE01.JPG,AFNE01.JPG,AFNE01.JPG,AFNE01.JPG,AFNE01.JPG,,,,,,,,,,,,,0,1,1,2,,,,,,,,,,,AMSA10.jpg,AMNE08.jpg,AMSA06.jpg,AMNE05.jpg,AMNE05.jpg,MN,1,num_4,16,num_4,0.66676973115,,,2017_Mar_13_1926,59.9790693868,FEMA4ImagesEEG,001,200048,
AFNE01.JPG,AFNE01.JPG,AFNE01.JPG,AFNE01.JPG,AFNE01.JPG,AFNE01.JPG,,,,,,,,,,,,,0,2,2,8,,,,,,,,,,,AMNE05.jpg,AMSA06.jpg,AMSA12.jpg,AMNE01.jpg,AMNE01.jpg,MN,1,num_4,32,num_8,1.29995766236,,,2017_Mar_13_1926,59.9790693868,FEMA4ImagesEEG,001,200048,
AFNE01.JPG,AFNE01.JPG,AFNE01.JPG,AFNE01.JPG,AFNE01.JPG,AFNE01.JPG,,,,,,,,,,,,,0,3,3,5,,,,,,,,,,,AMSA12.jpg,AMNE16.jpg,AMSA11.jpg,AMNE20.jpg,AMNE20.jpg,MN,1,num_4,32,num_8,0.650116909703,,,2017_Mar_13_1926,59.9790693868,FEMA4ImagesEEG,001,200048,
AFNE01.JPG,AFNE01.JPG,AFNE01.JPG,AFNE01.JPG,AFNE01.JPG,AFNE01.JPG,,,,,,,,,,,,,0,4,4,9,,,,,,,,,,,AMNE01.jpg,AMNE16.jpg,AMSA13.jpg,AMSA03.jpg,AMSA13.jpg,MS,2,num_2,16,num_2,0.950077779475,,,2017_Mar_13_1926,59.9790693868,FEMA4ImagesEEG,001,200048,
AFNE01.JPG,AFNE01.JPG,AFNE01.JPG,AFNE01.JPG,AFNE01.JPG,AFNE01.JPG,,,,,,,,,,,,,0,5,5,7,,,,,,,,,,,AMNE02.jpg,AMSA14.jpg,AMNE11.jpg,AMSA07.jpg,AMSA07.jpg,MS,2,num_4,32,num_8,0.733529840072,,,2017_Mar_13_1926,59.9790693868,FEMA4ImagesEEG,001,200048,
AFNE01.JPG,AFNE01.JPG,AFNE01.JPG,AFNE01.JPG,AFNE01.JPG,AFNE01.JPG,,,,,,,,,,,,,0,6,6,3,,,,,,,,,,,AMNE08.jpg,AMSA01.jpg,AMNE14.jpg,AMSA07.jpg,AMNE08.jpg,MN,1,num_8,32,num_4,0.883465210907,,,2017_Mar_13_1926,59.9790693868,FEMA4ImagesEEG,001,200048,
AFNE01.JPG,AFNE01.JPG,AFNE01.JPG,AFNE01.JPG,AFNE01.JPG,AFNE01.JPG,,,,,,,,,,,,,0,7,7,0,,,,,,,,,,,AMNE14.jpg,AMNE09.jpg,AMSA15.jpg,AMSA14.jpg,AMSA14.jpg,MS,2,num_4,16,num_4,0.566801163601,,,2017_Mar_13_1926,59.9790693868,FEMA4ImagesEEG,001,200048,
AFNE01.JPG,AFNE01.JPG,AFNE01.JPG,AFNE01.JPG,AFNE01.JPG,AFNE01.JPG,,,,,,,,,,,,,0,8,8,4,,,,,,,,,,,AMNE08.jpg,AMNE02.jpg,AMSA06.jpg,AMSA03.jpg,AMSA03.jpg,MS,2,num_4,32,num_2,0.883439551748,,,2017_Mar_13_1926,59.9790693868,FEMA4ImagesEEG,001,200048,
AFNE01.JPG,AFNE01.JPG,AFNE01.JPG,AFNE01.JPG,AFNE01.JPG,AFNE01.JPG,,,,,,,,,,,,,0,9,9,6,,,,,,,,,,,AMNE20.jpg,AMSA04.jpg,AMNE18.jpg,AMSA11.jpg,AMNE20.jpg,MN,1,num_8,16,num_8,0.666707507567,,,2017_Mar_13_1926,59.9790693868,FEMA4ImagesEEG,001,200048,
AFNE01.JPG,AFNE01.JPG,AFNE01.JPG,AFNE01.JPG,AFNE01.JPG,AFNE01.JPG,,,,,,,,,,,,,1,0,10,6,,,,,,,,,,,AMNE05.jpg,AMSA02.jpg,AMNE19.jpg,AMSA04.jpg,AMSA04.jpg,MS,2,num_4,16,num_4,0.683761254011,,,2017_Mar_13_1926,59.9790693868,FEMA4ImagesEEG,001,200048,
AFNE01.JPG,AFNE01.JPG,AFNE01.JPG,AFNE01.JPG,AFNE01.JPG,AFNE01.JPG,,,,,,,,,,,,,1,1,11,9,,,,,,,,,,,AMNE16.jpg,AMNE01.jpg,AMSA06.jpg,AMSA19.jpg,AMNE16.jpg,MN,1,num_8,16,num_8,0.666758184496,,,2017_Mar_13_1926,59.9790693868,FEMA4ImagesEEG,001,200048,
AFNE01.JPG,AFNE01.JPG,AFNE01.JPG,AFNE01.JPG,AFNE01.JPG,AFNE01.JPG,,,,,,,,,,,,,1,2,12,7,,,,,,,,,,,AMSA11.jpg,AMNE18.jpg,AMSA13.jpg,AMNE05.jpg,AMNE18.jpg,MN,1,num_6,32,num_8,0.600162615185,,,2017_Mar_13_1926,59.9790693868,FEMA4ImagesEEG,001,200048,
AFNE01.JPG,AFNE01.JPG,AFNE01.JPG,AFNE01.JPG,AFNE01.JPG,AFNE01.JPG,,,,,,,,,,,,,1,3,13,4,,,,,,,,,,,AMSA12.jpg,AMNE05.jpg,AMSA07.jpg,AMNE19.jpg,AMSA12.jpg,MS,2,num_8,32,num_6,0.766773259267,,,2017_Mar_13_1926,59.9790693868,FEMA4ImagesEEG,001,200048,
AFNE01.JPG,AFNE01.JPG,AFNE01.JPG,AFNE01.JPG,AFNE01.JPG,AFNE01.JPG,,,,,,,,,,,,,1,4,14,3,,,,,,,,,,,AMSA20.jpg,AMNE02.jpg,AMNE19.jpg,AMSA15.jpg,AMSA20.jpg,MS,2,num_8,16,num_8,0.86679282441,,,2017_Mar_13_1926,59.9790693868,FEMA4ImagesEEG,001,200048,
AFNE01.JPG,AFNE01.JPG,AFNE01.JPG,AFNE01.JPG,AFNE01.JPG,AFNE01.JPG,,,,,,,,,,,,,1,5,15,8,,,,,,,,,,,AMNE03.jpg,AMSA03.jpg,AMNE05.jpg,AMSA16.jpg,AMSA16.jpg,MS,2,num_4,16,num_4,0.716802927724,,,2017_Mar_13_1926,59.9790693868,FEMA4ImagesEEG,001,200048,
AFNE01.JPG,AFNE01.JPG,AFNE01.JPG,AFNE01.JPG,AFNE01.JPG,AFNE01.JPG,,,,,,,,,,,,,1,6,16,5,,,,,,,,,,,AMSA15.jpg,AMNE13.jpg,AMSA18.jpg,AMNE11.jpg,AMSA15.jpg,MS,2,num_8,16,num_8,1.18344724952,,,2017_Mar_13_1926,59.9790693868,FEMA4ImagesEEG,001,200048,
AFNE01.JPG,AFNE01.JPG,AFNE01.JPG,AFNE01.JPG,AFNE01.JPG,AFNE01.JPG,,,,,,,,,,,,,1,7,17,0,,,,,,,,,,,AMSA08.jpg,AMSA07.jpg,AMNE05.jpg,AMNE17.jpg,AMSA07.jpg,MS,2,num_6,32,num_8,1.33344291948,,,2017_Mar_13_1926,59.9790693868,FEMA4ImagesEEG,001,200048,
AFNE01.JPG,AFNE01.JPG,AFNE01.JPG,AFNE01.JPG,AFNE01.JPG,AFNE01.JPG,,,,,,,,,,,,,1,8,18,1,,,,,,,,,,,AMNE12.jpg,AMSA17.jpg,AMSA09.jpg,AMNE01.jpg,AMSA17.jpg,MS,2,num_6,16,num_6,0.566816238395,,,2017_Mar_13_1926,59.9790693868,FEMA4ImagesEEG,001,200048,
AFNE01.JPG,AFNE01.JPG,AFNE01.JPG,AFNE01.JPG,AFNE01.JPG,AFNE01.JPG,,,,,,,,,,,,,1,9,19,2,,,,,,,,,,,AMSA18.jpg,AMSA04.jpg,AMNE18.jpg,AMNE15.jpg,AMSA04.jpg,MS,2,num_6,32,num_2,1.13341597735,,,2017_Mar_13_1926,59.9790693868,FEMA4ImagesEEG,001,200048,
AFNE01.JPG,AFNE01.JPG,AFNE01.JPG,AFNE01.JPG,AFNE01.JPG,AFNE01.JPG,,,,,,,,,,,,,2,0,20,8,,,,,,,,,,,AMSA15.jpg,AMSA16.jpg,AMNE13.jpg,AMNE19.jpg,AMSA15.jpg,MS,2,num_8,16,num_8,0.800161011517,,,2017_Mar_13_1926,59.9790693868,FEMA4ImagesEEG,001,200048,
AFNE01.JPG,AFNE01.JPG,AFNE01.JPG,AFNE01.JPG,AFNE01.JPG,AFNE01.JPG,,,,,,,,,,,,,2,1,21,6,,,,,,,,,,,AMNE14.jpg,AMNE19.jpg,AMSA19.jpg,AMSA20.jpg,AMNE19.jpg,MN,1,num_6,16,num_6,0.816801644745,,,2017_Mar_13_1926,59.9790693868,FEMA4ImagesEEG,001,200048,
AFNE01.JPG,AFNE01.JPG,AFNE01.JPG,AFNE01.JPG,AFNE01.JPG,AFNE01.JPG,,,,,,,,,,,,,2,2,22,3,,,,,,,,,,,AMNE06.jpg,AMNE18.jpg,AMSA01.jpg,AMSA12.jpg,AMNE06.jpg,MN,1,num_8,16,num_8,0.717060802737,,,2017_Mar_13_1926,59.9790693868,FEMA4ImagesEEG,001,200048,
AFNE01.JPG,AFNE01.JPG,AFNE01.JPG,AFNE01.JPG,AFNE01.JPG,AFNE01.JPG,,,,,,,,,,,,,2,3,23,2,,,,,,,,,,,AMSA19.jpg,AMNE11.jpg,AMNE16.jpg,AMSA15.jpg,AMSA15.jpg,MS,2,num_4,16,num_4,0.866749524488,,,2017_Mar_13_1926,59.9790693868,FEMA4ImagesEEG,001,200048,
AFNE01.JPG,AFNE01.JPG,AFNE01.JPG,AFNE01.JPG,AFNE01.JPG,AFNE01.JPG,,,,,,,,,,,,,2,4,24,1,,,,,,,,,,,AMSA04.jpg,AMNE14.jpg,AMSA13.jpg,AMNE09.jpg,AMNE14.jpg,MN,1,num_6,16,num_6,1.11674455303,,,2017_Mar_13_1926,59.9790693868,FEMA4ImagesEEG,001,200048,
AFNE01.JPG,AFNE01.JPG,AFNE01.JPG,AFNE01.JPG,AFNE01.JPG,AFNE01.JPG,,,,,,,,,,,,,2,5,25,0,,,,,,,,,,,AMSA02.jpg,AMNE16.jpg,AMSA01.jpg,AMNE17.jpg,AMSA02.jpg,MS,2,num_8,16,num_8,1.41674679826,,,2017_Mar_13_1926,59.9790693868,FEMA4ImagesEEG,001,200048,
AFNE01.JPG,AFNE01.JPG,AFNE01.JPG,AFNE01.JPG,AFNE01.JPG,AFNE01.JPG,,,,,,,,,,,,,2,6,26,7,,,,,,,,,,,AMSA14.jpg,AMNE13.jpg,AMSA01.jpg,AMNE20.jpg,AMSA01.jpg,MS,2,num_2,32,num_4,0.700157483341,,,2017_Mar_13_1926,59.9790693868,FEMA4ImagesEEG,001,200048,
AFNE01.JPG,AFNE01.JPG,AFNE01.JPG,AFNE01.JPG,AFNE01.JPG,AFNE01.JPG,,,,,,,,,,,,,2,7,27,9,,,,,,,,,,,AMSA08.jpg,AMNE06.jpg,AMNE01.jpg,AMSA01.jpg,AMSA08.jpg,MS,2,num_8,16,num_8,0.78349536052,,,2017_Mar_13_1926,59.9790693868,FEMA4ImagesEEG,001,200048,
AFNE01.JPG,AFNE01.JPG,AFNE01.JPG,AFNE01.JPG,AFNE01.JPG,AFNE01.JPG,,,,,,,,,,,,,2,8,28,5,,,,,,,,,,,AMSA01.jpg,AMSA16.jpg,AMNE07.jpg,AMNE10.jpg,AMNE10.jpg,MN,1,num_4,16,num_4,0.883390799281,,,2017_Mar_13_1926,59.9790693868,FEMA4ImagesEEG,001,200048,
AFNE01.JPG,AFNE01.JPG,AFNE01.JPG,AFNE01.JPG,AFNE01.JPG,AFNE01.JPG,,,,,,,,,,,,,2,9,29,4,,,,,,,,,,,AMNE05.jpg,AMSA11.jpg,AMNE14.jpg,AMSA08.jpg,AMNE05.jpg,MN,1,num_8,32,num_6,0.650138399273,,,2017_Mar_13_1926,59.9790693868,FEMA4ImagesEEG,001,200048,
AFNE01.JPG,AFNE01.JPG,AFNE01.JPG,AFNE01.JPG,AFNE01.JPG,AFNE01.JPG,,,,,,,,,,,,,3,0,30,1,,,,,,,,,,,AMSA19.jpg,AMNE17.jpg,AMNE01.jpg,AMSA14.jpg,AMSA19.jpg,MS,2,num_8,16,num_8,0.733504180855,,,2017_Mar_13_1926,59.9790693868,FEMA4ImagesEEG,001,200048,
AFNE01.JPG,AFNE01.JPG,AFNE01.JPG,AFNE01.JPG,AFNE01.JPG,AFNE01.JPG,,,,,,,,,,,,,3,1,31,8,,,,,,,,,,,AMSA06.jpg,AMNE07.jpg,AMSA07.jpg,AMNE05.jpg,AMNE07.jpg,MN,1,num_6,32,num_2,0.700123484887,,,2017_Mar_13_1926,59.9790693868,FEMA4ImagesEEG,001,200048,
AFNE01.JPG,AFNE01.JPG,AFNE01.JPG,AFNE01.JPG,AFNE01.JPG,AFNE01.JPG,,,,,,,,,,,,,3,2,32,9,,,,,,,,,,,AMNE09.jpg,AMNE15.jpg,AMSA08.jpg,AMSA17.jpg,AMNE09.jpg,MN,1,num_8,32,num_2,0.783492794551,,,2017_Mar_13_1926,59.9790693868,FEMA4ImagesEEG,001,200048,
AFNE01.JPG,AFNE01.JPG,AFNE01.JPG,AFNE01.JPG,AFNE01.JPG,AFNE01.JPG,,,,,,,,,,,,,3,3,33,3,,,,,,,,,,,AMSA18.jpg,AMNE01.jpg,AMSA08.jpg,AMNE05.jpg,AMSA18.jpg,MS,2,num_8,16,num_8,0.683491190895,,,2017_Mar_13_1926,59.9790693868,FEMA4ImagesEEG,001,200048,
AFNE01.JPG,AFNE01.JPG,AFNE01.JPG,AFNE01.JPG,AFNE01.JPG,AFNE01.JPG,,,,,,,,,,,,,3,4,34,2,,,,,,,,,,,AMNE03.jpg,AMNE19.jpg,AMSA19.jpg,AMSA01.jpg,AMNE19.jpg,MN,1,num_6,16,num_6,0.533455107594,,,2017_Mar_13_1926,59.9790693868,FEMA4ImagesEEG,001,200048,
AFNE01.JPG,AFNE01.JPG,AFNE01.JPG,AFNE01.JPG,AFNE01.JPG,AFNE01.JPG,,,,,,,,,,,,,3,5,35,5,,,,,,,,,,,AMNE17.jpg,AMSA10.jpg,AMNE11.jpg,AMSA07.jpg,AMSA10.jpg,MS,2,num_6,32,num_2,0.850195170322,,,2017_Mar_13_1926,59.9790693868,FEMA4ImagesEEG,001,200048,
AFNE01.JPG,AFNE01.JPG,AFNE01.JPG,AFNE01.JPG,AFNE01.JPG,AFNE01.JPG,,,,,,,,,,,,,3,6,36,0,,,,,,,,,,,AMNE08.jpg,AMSA18.jpg,AMNE20.jpg,AMSA08.jpg,AMSA08.jpg,MS,2,num_4,32,num_8,0.566816879902,,,2017_Mar_13_1926,59.9790693868,FEMA4ImagesEEG,001,200048,
AFNE01.JPG,AFNE01.JPG,AFNE01.JPG,AFNE01.JPG,AFNE01.JPG,AFNE01.JPG,,,,,,,,,,,,,3,7,37,6,,,,,,,,,,,AMSA05.jpg,AMNE03.jpg,AMSA12.jpg,AMNE18.jpg,AMNE03.jpg,MN,1,num_6,16,num_6,0.733521180111,,,2017_Mar_13_1926,59.9790693868,FEMA4ImagesEEG,001,200048,
AFNE01.JPG,AFNE01.JPG,AFNE01.JPG,AFNE01.JPG,AFNE01.JPG,AFNE01.JPG,,,,,,,,,,,,,3,8,38,7,,,,,,,,,,,AMSA05.jpg,AMNE07.jpg,AMSA20.jpg,AMNE17.jpg,AMSA20.jpg,MS,2,num_2,16,num_2,0.650142248196,,,2017_Mar_13_1926,59.9790693868,FEMA4ImagesEEG,001,200048,
AFNE01.JPG,AFNE01.JPG,AFNE01.JPG,AFNE01.JPG,AFNE01.JPG,AFNE01.JPG,,,,,,,,,,,,,3,9,39,4,,,,,,,,,,,AMSA08.jpg,AMNE20.jpg,AMNE10.jpg,AMSA18.jpg,AMNE20.jpg,MN,1,num_6,32,num_4,2.94995974714,,,2017_Mar_13_1926,59.9790693868,FEMA4ImagesEEG,001,200048,
AFNE01.JPG,AFNE01.JPG,AFNE01.JPG,AFNE01.JPG,AFNE01.JPG,AFNE01.JPG,,,,,,,,,,,,,4,0,40,2,,,,,,,,,,,AMNE08.jpg,AMSA02.jpg,AMSA12.jpg,AMNE01.jpg,AMNE01.jpg,MN,1,num_4,32,num_8,0.883442438382,,,2017_Mar_13_1926,59.9790693868,FEMA4ImagesEEG,001,200048,
AFNE01.JPG,AFNE01.JPG,AFNE01.JPG,AFNE01.JPG,AFNE01.JPG,AFNE01.JPG,,,,,,,,,,,,,4,1,41,3,,,,,,,,,,,AMNE15.jpg,AMSA19.jpg,AMSA18.jpg,AMNE13.jpg,AMNE13.jpg,MN,1,num_4,32,num_8,0.666775504476,,,2017_Mar_13_1926,59.9790693868,FEMA4ImagesEEG,001,200048,
AFNE01.JPG,AFNE01.JPG,AFNE01.JPG,AFNE01.JPG,AFNE01.JPG,AFNE01.JPG,,,,,,,,,,,,,4,2,42,0,,,,,,,,,,,AMSA13.jpg,AMSA17.jpg,AMNE16.jpg,AMNE06.jpg,AMSA17.jpg,MS,2,num_6,16,num_6,0.50015844556,,,2017_Mar_13_1926,59.9790693868,FEMA4ImagesEEG,001,200048,
AFNE01.JPG,AFNE01.JPG,AFNE01.JPG,AFNE01.JPG,AFNE01.JPG,AFNE01.JPG,,,,,,,,,,,,,4,3,43,4,,,,,,,,,,,AMSA09.jpg,AMNE09.jpg,AMSA14.jpg,AMNE17.jpg,AMNE17.jpg,MN,1,num_4,32,num_8,1.43340443075,,,2017_Mar_13_1926,59.9790693868,FEMA4ImagesEEG,001,200048,
AFNE01.JPG,AFNE01.JPG,AFNE01.JPG,AFNE01.JPG,AFNE01.JPG,AFNE01.JPG,,,,,,,,,,,,,4,4,44,5,,,,,,,,,,,AMSA11.jpg,AMNE07.jpg,AMSA18.jpg,AMNE02.jpg,AMNE02.jpg,MN,1,num_4,16,num_4,0.70005067694,,,2017_Mar_13_1926,59.9790693868,FEMA4ImagesEEG,001,200048,
AFNE01.JPG,AFNE01.JPG,AFNE01.JPG,AFNE01.JPG,AFNE01.JPG,AFNE01.JPG,,,,,,,,,,,,,4,5,45,1,,,,,,,,,,,AMSA15.jpg,AMNE12.jpg,AMSA11.jpg,AMNE17.jpg,AMSA15.jpg,MS,2,num_8,16,num_8,0.650137116376,,,2017_Mar_13_1926,59.9790693868,FEMA4ImagesEEG,001,200048,
AFNE01.JPG,AFNE01.JPG,AFNE01.JPG,AFNE01.JPG,AFNE01.JPG,AFNE01.JPG,,,,,,,,,,,,,4,6,46,9,,,,,,,,,,,AMSA17.jpg,AMNE19.jpg,AMSA05.jpg,AMNE04.jpg,AMNE19.jpg,MN,1,num_6,16,num_6,0.833470182377,,,2017_Mar_13_1926,59.9790693868,FEMA4ImagesEEG,001,200048,
AFNE01.JPG,AFNE01.JPG,AFNE01.JPG,AFNE01.JPG,AFNE01.JPG,AFNE01.JPG,,,,,,,,,,,,,4,7,47,6,,,,,,,,,,,AMSA01.jpg,AMSA16.jpg,AMNE05.jpg,AMNE15.jpg,AMSA16.jpg,MS,2,num_6,32,num_2,1.05010119348,,,2017_Mar_13_1926,59.9790693868,FEMA4ImagesEEG,001,200048,
AFNE01.JPG,AFNE01.JPG,AFNE01.JPG,AFNE01.JPG,AFNE01.JPG,AFNE01.JPG,,,,,,,,,,,,,4,8,48,7,,,,,,,,,,,AMSA02.jpg,AMNE07.jpg,AMSA13.jpg,AMNE13.jpg,AMNE13.jpg,MN,1,num_4,16,num_4,0.933461843117,,,2017_Mar_13_1926,59.9790693868,FEMA4ImagesEEG,001,200048,
AFNE01.JPG,AFNE01.JPG,AFNE01.JPG,AFNE01.JPG,AFNE01.JPG,AFNE01.JPG,,,,,,,,,,,,,4,9,49,8,,,,,,,,,,,AMSA11.jpg,AMNE03.jpg,AMNE18.jpg,AMSA08.jpg,AMSA11.jpg,MS,2,num_8,16,num_8,0.63348269125,,,2017_Mar_13_1926,59.9790693868,FEMA4ImagesEEG,001,200048,
AFNE01.JPG,AFNE01.JPG,AFNE01.JPG,AFNE01.JPG,AFNE01.JPG,AFNE01.JPG,,,,,,,,,,,,,5,0,50,4,,,,,,,,,,,AMNE13.jpg,AMSA04.jpg,AMSA06.jpg,AMNE01.jpg,AMSA06.jpg,MS,2,num_2,16,num_2,0.85014930449,,,2017_Mar_13_1926,59.9790693868,FEMA4ImagesEEG,001,200048,
AFNE01.JPG,AFNE01.JPG,AFNE01.JPG,AFNE01.JPG,AFNE01.JPG,AFNE01.JPG,,,,,,,,,,,,,5,1,51,6,,,,,,,,,,,AMSA04.jpg,AMSA15.jpg,AMNE12.jpg,AMNE11.jpg,AMSA04.jpg,MS,2,num_8,16,num_8,1.01684430317,,,2017_Mar_13_1926,59.9790693868,FEMA4ImagesEEG,001,200048,
AFNE01.JPG,AFNE01.JPG,AFNE01.JPG,AFNE01.JPG,AFNE01.JPG,AFNE01.JPG,,,,,,,,,,,,,5,2,52,3,,,,,,,,,,,AMNE01.jpg,AMNE02.jpg,AMSA17.jpg,AMSA19.jpg,AMNE02.jpg,MN,1,num_6,32,num_4,2.78334268823,,,2017_Mar_13_1926,59.9790693868,FEMA4ImagesEEG,001,200048,
AFNE01.JPG,AFNE01.JPG,AFNE01.JPG,AFNE01.JPG,AFNE01.JPG,AFNE01.JPG,,,,,,,,,,,,,5,3,53,0,,,,,,,,,,,AMSA04.jpg,AMSA06.jpg,AMNE06.jpg,AMNE03.jpg,AMSA06.jpg,MS,2,num_6,32,num_8,0.916657953232,,,2017_Mar_13_1926,59.9790693868,FEMA4ImagesEEG,001,200048,
AFNE01.JPG,AFNE01.JPG,AFNE01.JPG,AFNE01.JPG,AFNE01.JPG,AFNE01.JPG,,,,,,,,,,,,,5,4,54,8,,,,,,,,,,,AMSA10.jpg,AMNE15.jpg,AMSA05.jpg,AMNE13.jpg,AMSA05.jpg,MS,2,num_2,32,num_8,0.833508350479,,,2017_Mar_13_1926,59.9790693868,FEMA4ImagesEEG,001,200048,
AFNE01.JPG,AFNE01.JPG,AFNE01.JPG,AFNE01.JPG,AFNE01.JPG,AFNE01.JPG,,,,,,,,,,,,,5,5,55,7,,,,,,,,,,,AMSA09.jpg,AMSA07.jpg,AMNE12.jpg,AMNE02.jpg,AMSA09.jpg,MS,2,num_8,16,num_8,0.850159247406,,,2017_Mar_13_1926,59.9790693868,FEMA4ImagesEEG,001,200048,
AFNE01.JPG,AFNE01.JPG,AFNE01.JPG,AFNE01.JPG,AFNE01.JPG,AFNE01.JPG,,,,,,,,,,,,,5,6,56,2,,,,,,,,,,,AMSA14.jpg,AMNE17.jpg,AMNE06.jpg,AMSA16.jpg,AMNE06.jpg,MN,1,num_2,32,num_4,1.14998893446,,,2017_Mar_13_1926,59.9790693868,FEMA4ImagesEEG,001,200048,
AFNE01.JPG,AFNE01.JPG,AFNE01.JPG,AFNE01.JPG,AFNE01.JPG,AFNE01.JPG,,,,,,,,,,,,,5,7,57,9,,,,,,,,,,,AMSA10.jpg,AMNE14.jpg,AMSA12.jpg,AMNE15.jpg,AMSA12.jpg,MS,2,num_2,32,num_8,0.816812229168,,,2017_Mar_13_1926,59.9790693868,FEMA4ImagesEEG,001,200048,
AFNE01.JPG,AFNE01.JPG,AFNE01.JPG,AFNE01.JPG,AFNE01.JPG,AFNE01.JPG,,,,,,,,,,,,,5,8,58,1,,,,,,,,,,,AMSA16.jpg,AMNE03.jpg,AMSA15.jpg,AMNE05.jpg,AMNE03.jpg,MN,1,num_6,16,num_6,0.733469220169,,,2017_Mar_13_1926,59.9790693868,FEMA4ImagesEEG,001,200048,
AFNE01.JPG,AFNE01.JPG,AFNE01.JPG,AFNE01.JPG,AFNE01.JPG,AFNE01.JPG,,,,,,,,,,,,,5,9,59,5,,,,,,,,,,,AMSA20.jpg,AMSA05.jpg,AMNE14.jpg,AMNE04.jpg,AMNE04.jpg,MN,1,num_4,32,num_8,0.866818162904,,,2017_Mar_13_1926,59.9790693868,FEMA4ImagesEEG,001,200048,
,,,,,,,,,,,,,,,,,,,,,,,,,,,,,,,,,,,,,,,,,,,space,2.13332520792,2017_Mar_13_1926,59.9790693868,FEMA4ImagesEEG,001,200048,
AFNE01.JPG,AFNE01.JPG,AFNE01.JPG,AFNE01.JPG,AFNE01.JPG,AFNE01.JPG,,,,,,,,,,,,,,,,,0,0,0,2,,,,,,,AFSA18.jpg,AFNE07.jpg,AFSA16.jpg,AFNE01.jpg,AFNE07.jpg,FN,3,num_6,16,num_6,0.583445645811,,,2017_Mar_13_1926,59.9790693868,FEMA4ImagesEEG,001,200048,
AFNE01.JPG,AFNE01.JPG,AFNE01.JPG,AFNE01.JPG,AFNE01.JPG,AFNE01.JPG,,,,,,,,,,,,,,,,,0,1,1,3,,,,,,,AFNE06.jpg,AFSA05.jpg,AFSA17.jpg,AFNE19.jpg,AFSA17.jpg,FS,4,num_2,16,num_2,1.38339144073,,,2017_Mar_13_1926,59.9790693868,FEMA4ImagesEEG,001,200048,
AFNE01.JPG,AFNE01.JPG,AFNE01.JPG,AFNE01.JPG,AFNE01.JPG,AFNE01.JPG,,,,,,,,,,,,,,,,,0,2,2,9,,,,,,,AFSA19.jpg,AFNE09.jpg,AFSA06.jpg,AFNE03.jpg,AFSA06.jpg,FS,4,num_2,16,num_2,0.899994868145,,,2017_Mar_13_1926,59.9790693868,FEMA4ImagesEEG,001,200048,
AFNE01.JPG,AFNE01.JPG,AFNE01.JPG,AFNE01.JPG,AFNE01.JPG,AFNE01.JPG,,,,,,,,,,,,,,,,,0,3,3,0,,,,,,,AFNE14.jpg,AFNE19.jpg,AFSA14.jpg,AFSA06.jpg,AFNE14.jpg,FN,3,num_8,16,num_8,0.516796833603,,,2017_Mar_13_1926,59.9790693868,FEMA4ImagesEEG,001,200048,
AFNE01.JPG,AFNE01.JPG,AFNE01.JPG,AFNE01.JPG,AFNE01.JPG,AFNE01.JPG,,,,,,,,,,,,,,,,,0,4,4,6,,,,,,,AFNE07.jpg,AFNE08.jpg,AFSA02.jpg,AFSA07.jpg,AFNE07.jpg,FN,3,num_8,16,num_8,1.23351668968,,,2017_Mar_13_1926,59.9790693868,FEMA4ImagesEEG,001,200048,
AFNE01.JPG,AFNE01.JPG,AFNE01.JPG,AFNE01.JPG,AFNE01.JPG,AFNE01.JPG,,,,,,,,,,,,,,,,,0,5,5,5,,,,,,,AFSA16.jpg,AFNE04.jpg,AFSA07.jpg,AFNE02.jpg,AFNE02.jpg,FN,3,num_4,32,num_8,2.99999262299,,,2017_Mar_13_1926,59.9790693868,FEMA4ImagesEEG,001,200048,
AFNE01.JPG,AFNE01.JPG,AFNE01.JPG,AFNE01.JPG,AFNE01.JPG,AFNE01.JPG,,,,,,,,,,,,,,,,,0,6,6,1,,,,,,,AFSA12.jpg,AFNE16.jpg,AFNE08.jpg,AFSA02.jpg,AFNE08.jpg,FN,3,num_2,16,num_2,1.01674230787,,,2017_Mar_13_1926,59.9790693868,FEMA4ImagesEEG,001,200048,
AFNE01.JPG,AFNE01.JPG,AFNE01.JPG,AFNE01.JPG,AFNE01.JPG,AFNE01.JPG,,,,,,,,,,,,,,,,,0,7,7,8,,,,,,,AFSA01.jpg,AFNE15.jpg,AFNE10.jpg,AFSA02.jpg,AFSA01.jpg,FS,4,num_8,32,num_4,0.850125890458,,,2017_Mar_13_1926,59.9790693868,FEMA4ImagesEEG,001,200048,
AFNE01.JPG,AFNE01.JPG,AFNE01.JPG,AFNE01.JPG,AFNE01.JPG,AFNE01.JPG,,,,,,,,,,,,,,,,,0,8,8,7,,,,,,,AFNE10.jpg,AFNE13.jpg,AFSA13.jpg,AFSA12.jpg,AFSA13.jpg,FS,4,num_2,16,num_2,0.733451579465,,,2017_Mar_13_1926,59.9790693868,FEMA4ImagesEEG,001,200048,
AFNE01.JPG,AFNE01.JPG,AFNE01.JPG,AFNE01.JPG,AFNE01.JPG,AFNE01.JPG,,,,,,,,,,,,,,,,,0,9,9,4,,,,,,,AFSA09.jpg,AFNE15.jpg,AFSA05.jpg,AFNE16.jpg,AFSA05.jpg,FS,4,num_2,16,num_2,0.766785768152,,,2017_Mar_13_1926,59.9790693868,FEMA4ImagesEEG,001,200048,
AFNE01.JPG,AFNE01.JPG,AFNE01.JPG,AFNE01.JPG,AFNE01.JPG,AFNE01.JPG,,,,,,,,,,,,,,,,,1,0,10,8,,,,,,,AFSA18.jpg,AFNE10.jpg,AFSA06.jpg,AFNE11.jpg,AFNE10.jpg,FN,3,num_6,32,num_8,0.700132786355,,,2017_Mar_13_1926,59.9790693868,FEMA4ImagesEEG,001,200048,
AFNE01.JPG,AFNE01.JPG,AFNE01.JPG,AFNE01.JPG,AFNE01.JPG,AFNE01.JPG,,,,,,,,,,,,,,,,,1,1,11,4,,,,,,,AFSA19.jpg,AFNE19.jpg,AFSA01.jpg,AFNE04.jpg,AFSA01.jpg,FS,4,num_2,16,num_2,0.450282411533,,,2017_Mar_13_1926,59.9790693868,FEMA4ImagesEEG,001,200048,
AFNE01.JPG,AFNE01.JPG,AFNE01.JPG,AFNE01.JPG,AFNE01.JPG,AFNE01.JPG,,,,,,,,,,,,,,,,,1,2,12,9,,,,,,,AFSA11.jpg,AFNE01.jpg,AFNE06.jpg,AFSA20.jpg,AFSA20.jpg,FS,4,num_4,32,num_2,0.583456871682,,,2017_Mar_13_1926,59.9790693868,FEMA4ImagesEEG,001,200048,
AFNE01.JPG,AFNE01.JPG,AFNE01.JPG,AFNE01.JPG,AFNE01.JPG,AFNE01.JPG,,,,,,,,,,,,,,,,,1,3,13,3,,,,,,,AFSA08.jpg,AFNE14.jpg,AFSA09.jpg,AFNE13.jpg,AFNE14.jpg,FN,3,num_6,16,num_6,0.666780636297,,,2017_Mar_13_1926,59.9790693868,FEMA4ImagesEEG,001,200048,
AFNE01.JPG,AFNE01.JPG,AFNE01.JPG,AFNE01.JPG,AFNE01.JPG,AFNE01.JPG,,,,,,,,,,,,,,,,,1,4,14,2,,,,,,,AFSA07.jpg,AFNE16.jpg,AFNE20.jpg,AFSA11.jpg,AFNE20.jpg,FN,3,num_2,32,num_8,0.683478682069,,,2017_Mar_13_1926,59.9790693868,FEMA4ImagesEEG,001,200048,
AFNE01.JPG,AFNE01.JPG,AFNE01.JPG,AFNE01.JPG,AFNE01.JPG,AFNE01.JPG,,,,,,,,,,,,,,,,,1,5,15,5,,,,,,,AFSA09.jpg,AFNE17.jpg,AFSA02.jpg,AFNE03.jpg,AFNE03.jpg,FN,3,num_4,16,num_4,0.616805814381,,,2017_Mar_13_1926,59.9790693868,FEMA4ImagesEEG,001,200048,
AFNE01.JPG,AFNE01.JPG,AFNE01.JPG,AFNE01.JPG,AFNE01.JPG,AFNE01.JPG,,,,,,,,,,,,,,,,,1,6,16,6,,,,,,,AFSA07.jpg,AFNE14.jpg,AFNE08.jpg,AFSA05.jpg,AFNE08.jpg,FN,3,num_2,16,num_2,0.816604389693,,,2017_Mar_13_1926,59.9790693868,FEMA4ImagesEEG,001,200048,
AFNE01.JPG,AFNE01.JPG,AFNE01.JPG,AFNE01.JPG,AFNE01.JPG,AFNE01.JPG,,,,,,,,,,,,,,,,,1,7,17,0,,,,,,,AFNE15.jpg,AFNE11.jpg,AFSA16.jpg,AFSA01.jpg,AFSA16.jpg,FS,4,num_2,16,num_2,0.516838529904,,,2017_Mar_13_1926,59.9790693868,FEMA4ImagesEEG,001,200048,
AFNE01.JPG,AFNE01.JPG,AFNE01.JPG,AFNE01.JPG,AFNE01.JPG,AFNE01.JPG,,,,,,,,,,,,,,,,,1,8,18,7,,,,,,,AFSA13.jpg,AFSA14.jpg,AFNE13.jpg,AFNE16.jpg,AFSA13.jpg,FS,4,num_8,16,num_8,0.68348894571,,,2017_Mar_13_1926,59.9790693868,FEMA4ImagesEEG,001,200048,
AFNE01.JPG,AFNE01.JPG,AFNE01.JPG,AFNE01.JPG,AFNE01.JPG,AFNE01.JPG,,,,,,,,,,,,,,,,,1,9,19,1,,,,,,,AFSA07.jpg,AFNE01.jpg,AFNE03.jpg,AFSA06.jpg,AFNE03.jpg,FN,3,num_2,16,num_2,0.600179614441,,,2017_Mar_13_1926,59.9790693868,FEMA4ImagesEEG,001,200048,
AFNE01.JPG,AFNE01.JPG,AFNE01.JPG,AFNE01.JPG,AFNE01.JPG,AFNE01.JPG,,,,,,,,,,,,,,,,,2,0,20,4,,,,,,,AFSA13.jpg,AFSA09.jpg,AFNE09.jpg,AFNE13.jpg,AFSA13.jpg,FS,4,num_8,32,num_6,0.783567206236,,,2017_Mar_13_1926,59.9790693868,FEMA4ImagesEEG,001,200048,
AFNE01.JPG,AFNE01.JPG,AFNE01.JPG,AFNE01.JPG,AFNE01.JPG,AFNE01.JPG,,,,,,,,,,,,,,,,,2,1,21,9,,,,,,,AFNE10.jpg,AFSA10.jpg,AFSA17.jpg,AFNE07.jpg,AFNE10.jpg,FN,3,num_8,16,num_8,0.783556942537,,,2017_Mar_13_1926,59.9790693868,FEMA4ImagesEEG,001,200048,
AFNE01.JPG,AFNE01.JPG,AFNE01.JPG,AFNE01.JPG,AFNE01.JPG,AFNE01.JPG,,,,,,,,,,,,,,,,,2,2,22,8,,,,,,,AFNE09.jpg,AFSA07.jpg,AFSA18.jpg,AFNE08.jpg,AFSA07.jpg,FS,4,num_6,32,num_8,0.583506265655,,,2017_Mar_13_1926,59.9790693868,FEMA4ImagesEEG,001,200048,
AFNE01.JPG,AFNE01.JPG,AFNE01.JPG,AFNE01.JPG,AFNE01.JPG,AFNE01.JPG,,,,,,,,,,,,,,,,,2,3,23,6,,,,,,,AFSA10.jpg,AFSA13.jpg,AFNE10.jpg,AFNE08.jpg,AFNE08.jpg,FN,3,num_4,16,num_4,0.450369011378,,,2017_Mar_13_1926,59.9790693868,FEMA4ImagesEEG,001,200048,
AFNE01.JPG,AFNE01.JPG,AFNE01.JPG,AFNE01.JPG,AFNE01.JPG,AFNE01.JPG,,,,,,,,,,,,,,,,,2,4,24,5,,,,,,,AFNE17.jpg,AFNE12.jpg,AFSA11.jpg,AFSA04.jpg,AFSA11.jpg,FS,4,num_2,32,num_8,0.733435863222,,,2017_Mar_13_1926,59.9790693868,FEMA4ImagesEEG,001,200048,
AFNE01.JPG,AFNE01.JPG,AFNE01.JPG,AFNE01.JPG,AFNE01.JPG,AFNE01.JPG,,,,,,,,,,,,,,,,,2,5,25,2,,,,,,,AFNE10.jpg,AFNE17.jpg,AFSA14.jpg,AFSA13.jpg,AFNE17.jpg,FN,3,num_6,32,num_8,0.616863226867,,,2017_Mar_13_1926,59.9790693868,FEMA4ImagesEEG,001,200048,
AFNE01.JPG,AFNE01.JPG,AFNE01.JPG,AFNE01.JPG,AFNE01.JPG,AFNE01.JPG,,,,,,,,,,,,,,,,,2,6,26,3,,,,,,,AFNE04.jpg,AFSA07.jpg,AFSA10.jpg,AFNE03.jpg,AFSA07.jpg,FS,4,num_6,16,num_6,0.750152191147,,,2017_Mar_13_1926,59.9790693868,FEMA4ImagesEEG,001,200048,
AFNE01.JPG,AFNE01.JPG,AFNE01.JPG,AFNE01.JPG,AFNE01.JPG,AFNE01.JPG,,,,,,,,,,,,,,,,,2,7,27,1,,,,,,,AFSA06.jpg,AFNE06.jpg,AFSA16.jpg,AFNE19.jpg,AFSA16.jpg,FS,4,num_2,16,num_2,0.800132465607,,,2017_Mar_13_1926,59.9790693868,FEMA4ImagesEEG,001,200048,
AFNE01.JPG,AFNE01.JPG,AFNE01.JPG,AFNE01.JPG,AFNE01.JPG,AFNE01.JPG,,,,,,,,,,,,,,,,,2,8,28,7,,,,,,,AFNE04.jpg,AFSA15.jpg,AFSA04.jpg,AFNE17.jpg,AFNE04.jpg,FN,3,num_8,16,num_8,0.650174642913,,,2017_Mar_13_1926,59.9790693868,FEMA4ImagesEEG,001,200048,
AFNE01.JPG,AFNE01.JPG,AFNE01.JPG,AFNE01.JPG,AFNE01.JPG,AFNE01.JPG,,,,,,,,,,,,,,,,,2,9,29,0,,,,,,,AFSA09.jpg,AFNE14.jpg,AFSA06.jpg,AFNE03.jpg,AFSA06.jpg,FS,4,num_2,16,num_2,0.916797795915,,,2017_Mar_13_1926,59.9790693868,FEMA4ImagesEEG,001,200048,
AFNE01.JPG,AFNE01.JPG,AFNE01.JPG,AFNE01.JPG,AFNE01.JPG,AFNE01.JPG,,,,,,,,,,,,,,,,,3,0,30,1,,,,,,,AFNE17.jpg,AFSA14.jpg,AFNE13.jpg,AFSA07.jpg,AFSA07.jpg,FS,4,num_4,32,num_6,0.700253384595,,,2017_Mar_13_1926,59.9790693868,FEMA4ImagesEEG,001,200048,
AFNE01.JPG,AFNE01.JPG,AFNE01.JPG,AFNE01.JPG,AFNE01.JPG,AFNE01.JPG,,,,,,,,,,,,,,,,,3,1,31,5,,,,,,,AFNE02.jpg,AFSA02.jpg,AFNE03.jpg,AFSA13.jpg,AFNE03.jpg,FN,3,num_2,16,num_2,0.666765882284,,,2017_Mar_13_1926,59.9790693868,FEMA4ImagesEEG,001,200048,
AFNE01.JPG,AFNE01.JPG,AFNE01.JPG,AFNE01.JPG,AFNE01.JPG,AFNE01.JPG,,,,,,,,,,,,,,,,,3,2,32,7,,,,,,,AFNE10.jpg,AFSA19.jpg,AFNE13.jpg,AFSA08.jpg,AFSA08.jpg,FS,4,num_4,16,num_4,0.583343971171,,,2017_Mar_13_1926,59.9790693868,FEMA4ImagesEEG,001,200048,
AFNE01.JPG,AFNE01.JPG,AFNE01.JPG,AFNE01.JPG,AFNE01.JPG,AFNE01.JPG,,,,,,,,,,,,,,,,,3,3,33,3,,,,,,,AFNE01.jpg,AFSA16.jpg,AFNE20.jpg,AFSA15.jpg,AFSA16.jpg,FS,4,num_6,32,num_2,1.03344227804,,,2017_Mar_13_1926,59.9790693868,FEMA4ImagesEEG,001,200048,
AFNE01.JPG,AFNE01.JPG,AFNE01.JPG,AFNE01.JPG,AFNE01.JPG,AFNE01.JPG,,,,,,,,,,,,,,,,,3,4,34,0,,,,,,,AFNE11.jpg,AFSA04.jpg,AFSA02.jpg,AFNE15.jpg,AFNE11.jpg,FN,3,num_8,32,num_2,0.716822172108,,,2017_Mar_13_1926,59.9790693868,FEMA4ImagesEEG,001,200048,
AFNE01.JPG,AFNE01.JPG,AFNE01.JPG,AFNE01.JPG,AFNE01.JPG,AFNE01.JPG,,,,,,,,,,,,,,,,,3,5,35,9,,,,,,,AFNE15.jpg,AFSA19.jpg,AFNE12.jpg,AFSA01.jpg,AFSA01.jpg,FS,4,num_4,32,num_8,0.800153634453,,,2017_Mar_13_1926,59.9790693868,FEMA4ImagesEEG,001,200048,
AFNE01.JPG,AFNE01.JPG,AFNE01.JPG,AFNE01.JPG,AFNE01.JPG,AFNE01.JPG,,,,,,,,,,,,,,,,,3,6,36,4,,,,,,,AFNE06.jpg,AFNE08.jpg,AFSA10.jpg,AFSA05.jpg,AFSA05.jpg,FS,4,num_4,32,num_2,0.766821049503,,,2017_Mar_13_1926,59.9790693868,FEMA4ImagesEEG,001,200048,
AFNE01.JPG,AFNE01.JPG,AFNE01.JPG,AFNE01.JPG,AFNE01.JPG,AFNE01.JPG,,,,,,,,,,,,,,,,,3,7,37,2,,,,,,,AFNE12.jpg,AFSA02.jpg,AFSA15.jpg,AFNE06.jpg,AFNE12.jpg,FN,3,num_8,32,num_6,0.666820087354,,,2017_Mar_13_1926,59.9790693868,FEMA4ImagesEEG,001,200048,
AFNE01.JPG,AFNE01.JPG,AFNE01.JPG,AFNE01.JPG,AFNE01.JPG,AFNE01.JPG,,,,,,,,,,,,,,,,,3,8,38,6,,,,,,,AFNE18.jpg,AFSA19.jpg,AFSA18.jpg,AFNE20.jpg,AFSA18.jpg,FS,4,num_2,32,num_4,0.69988357136,,,2017_Mar_13_1926,59.9790693868,FEMA4ImagesEEG,001,200048,
AFNE01.JPG,AFNE01.JPG,AFNE01.JPG,AFNE01.JPG,AFNE01.JPG,AFNE01.JPG,,,,,,,,,,,,,,,,,3,9,39,8,,,,,,,AFNE03.jpg,AFSA20.jpg,AFNE04.jpg,AFSA06.jpg,AFNE03.jpg,FN,3,num_8,16,num_8,0.766850878368,,,2017_Mar_13_1926,59.9790693868,FEMA4ImagesEEG,001,200048,
AFNE01.JPG,AFNE01.JPG,AFNE01.JPG,AFNE01.JPG,AFNE01.JPG,AFNE01.JPG,,,,,,,,,,,,,,,,,4,0,40,4,,,,,,,AFNE16.jpg,AFSA18.jpg,AFSA12.jpg,AFNE06.jpg,AFSA18.jpg,FS,4,num_6,16,num_6,0.733429448446,,,2017_Mar_13_1926,59.9790693868,FEMA4ImagesEEG,001,200048,
AFNE01.JPG,AFNE01.JPG,AFNE01.JPG,AFNE01.JPG,AFNE01.JPG,AFNE01.JPG,,,,,,,,,,,,,,,,,4,1,41,7,,,,,,,AFNE12.jpg,AFSA14.jpg,AFNE05.jpg,AFSA01.jpg,AFSA01.jpg,FS,4,num_4,32,num_2,0.70017801068,,,2017_Mar_13_1926,59.9790693868,FEMA4ImagesEEG,001,200048,
AFNE01.JPG,AFNE01.JPG,AFNE01.JPG,AFNE01.JPG,AFNE01.JPG,AFNE01.JPG,,,,,,,,,,,,,,,,,4,2,42,8,,,,,,,AFNE13.jpg,AFNE15.jpg,AFSA04.jpg,AFSA11.jpg,AFNE13.jpg,FN,3,num_8,32,num_6,0.533646589436,,,2017_Mar_13_1926,59.9790693868,FEMA4ImagesEEG,001,200048,
AFNE01.JPG,AFNE01.JPG,AFNE01.JPG,AFNE01.JPG,AFNE01.JPG,AFNE01.JPG,,,,,,,,,,,,,,,,,4,3,43,1,,,,,,,AFSA11.jpg,AFSA15.jpg,AFNE12.jpg,AFNE14.jpg,AFNE12.jpg,FN,3,num_2,32,num_8,0.716885999369,,,2017_Mar_13_1926,59.9790693868,FEMA4ImagesEEG,001,200048,
AFNE01.JPG,AFNE01.JPG,AFNE01.JPG,AFNE01.JPG,AFNE01.JPG,AFNE01.JPG,,,,,,,,,,,,,,,,,4,4,44,0,,,,,,,AFNE10.jpg,AFSA13.jpg,AFSA15.jpg,AFNE09.jpg,AFNE09.jpg,FN,3,num_4,16,num_4,0.700127013028,,,2017_Mar_13_1926,59.9790693868,FEMA4ImagesEEG,001,200048,
AFNE01.JPG,AFNE01.JPG,AFNE01.JPG,AFNE01.JPG,AFNE01.JPG,AFNE01.JPG,,,,,,,,,,,,,,,,,4,5,45,9,,,,,,,AFSA18.jpg,AFSA04.jpg,AFNE02.jpg,AFNE14.jpg,AFNE14.jpg,FN,3,num_4,16,num_4,1.08347066352,,,2017_Mar_13_1926,59.9790693868,FEMA4ImagesEEG,001,200048,
AFNE01.JPG,AFNE01.JPG,AFNE01.JPG,AFNE01.JPG,AFNE01.JPG,AFNE01.JPG,,,,,,,,,,,,,,,,,4,6,46,2,,,,,,,AFSA14.jpg,AFNE04.jpg,AFSA11.jpg,AFNE20.jpg,AFSA11.jpg,FS,4,num_2,32,num_8,0.700192444026,,,2017_Mar_13_1926,59.9790693868,FEMA4ImagesEEG,001,200048,
AFNE01.JPG,AFNE01.JPG,AFNE01.JPG,AFNE01.JPG,AFNE01.JPG,AFNE01.JPG,,,,,,,,,,,,,,,,,4,7,47,6,,,,,,,AFSA19.jpg,AFNE06.jpg,AFNE12.jpg,AFSA03.jpg,AFNE12.jpg,FN,3,num_2,32,num_8,0.966785126599,,,2017_Mar_13_1926,59.9790693868,FEMA4ImagesEEG,001,200048,
AFNE01.JPG,AFNE01.JPG,AFNE01.JPG,AFNE01.JPG,AFNE01.JPG,AFNE01.JPG,,,,,,,,,,,,,,,,,4,8,48,5,,,,,,,AFNE03.jpg,AFNE12.jpg,AFSA13.jpg,AFSA02.jpg,AFSA13.jpg,FS,4,num_2,16,num_2,1.56672963861,,,2017_Mar_13_1926,59.9790693868,FEMA4ImagesEEG,001,200048,
AFNE01.JPG,AFNE01.JPG,AFNE01.JPG,AFNE01.JPG,AFNE01.JPG,AFNE01.JPG,,,,,,,,,,,,,,,,,4,9,49,3,,,,,,,AFNE15.jpg,AFSA19.jpg,AFSA15.jpg,AFNE03.jpg,AFSA19.jpg,FS,4,num_6,32,num_8,0.683502737549,,,2017_Mar_13_1926,59.9790693868,FEMA4ImagesEEG,001,200048,
AFNE01.JPG,AFNE01.JPG,AFNE01.JPG,AFNE01.JPG,AFNE01.JPG,AFNE01.JPG,,,,,,,,,,,,,,,,,5,0,50,3,,,,,,,AFNE10.jpg,AFSA20.jpg,AFSA03.jpg,AFNE20.jpg,AFNE10.jpg,FN,3,num_8,16,num_8,0.733468899445,,,2017_Mar_13_1926,59.9790693868,FEMA4ImagesEEG,001,200048,
AFNE01.JPG,AFNE01.JPG,AFNE01.JPG,AFNE01.JPG,AFNE01.JPG,AFNE01.JPG,,,,,,,,,,,,,,,,,5,1,51,5,,,,,,,AFSA17.jpg,AFNE08.jpg,AFSA08.jpg,AFNE18.jpg,AFSA08.jpg,FS,4,num_2,16,num_2,0.500161973701,,,2017_Mar_13_1926,59.9790693868,FEMA4ImagesEEG,001,200048,
AFNE01.JPG,AFNE01.JPG,AFNE01.JPG,AFNE01.JPG,AFNE01.JPG,AFNE01.JPG,,,,,,,,,,,,,,,,,5,2,52,8,,,,,,,AFSA08.jpg,AFNE12.jpg,AFSA07.jpg,AFNE17.jpg,AFSA08.jpg,FS,4,num_8,16,num_8,0.750179774826,,,2017_Mar_13_1926,59.9790693868,FEMA4ImagesEEG,001,200048,
AFNE01.JPG,AFNE01.JPG,AFNE01.JPG,AFNE01.JPG,AFNE01.JPG,AFNE01.JPG,,,,,,,,,,,,,,,,,5,3,53,6,,,,,,,AFSA17.jpg,AFNE12.jpg,AFSA03.jpg,AFNE15.jpg,AFNE15.jpg,FN,3,num_4,32,num_8,0.150061421678,,,2017_Mar_13_1926,59.9790693868,FEMA4ImagesEEG,001,200048,
AFNE01.JPG,AFNE01.JPG,AFNE01.JPG,AFNE01.JPG,AFNE01.JPG,AFNE01.JPG,,,,,,,,,,,,,,,,,5,4,54,1,,,,,,,AFSA17.jpg,AFSA08.jpg,AFNE07.jpg,AFNE12.jpg,AFSA17.jpg,FS,4,num_8,16,num_8,0.600117070135,,,2017_Mar_13_1926,59.9790693868,FEMA4ImagesEEG,001,200048,
AFNE01.JPG,AFNE01.JPG,AFNE01.JPG,AFNE01.JPG,AFNE01.JPG,AFNE01.JPG,,,,,,,,,,,,,,,,,5,5,55,9,,,,,,,AFSA12.jpg,AFNE13.jpg,AFSA10.jpg,AFNE03.jpg,AFSA12.jpg,FS,4,num_8,16,num_8,0.900090769399,,,2017_Mar_13_1926,59.9790693868,FEMA4ImagesEEG,001,200048,
AFNE01.JPG,AFNE01.JPG,AFNE01.JPG,AFNE01.JPG,AFNE01.JPG,AFNE01.JPG,,,,,,,,,,,,,,,,,5,6,56,7,,,,,,,AFNE17.jpg,AFSA07.jpg,AFNE06.jpg,AFSA13.jpg,AFSA13.jpg,FS,4,num_4,16,num_4,0.700169992226,,,2017_Mar_13_1926,59.9790693868,FEMA4ImagesEEG,001,200048,
AFNE01.JPG,AFNE01.JPG,AFNE01.JPG,AFNE01.JPG,AFNE01.JPG,AFNE01.JPG,,,,,,,,,,,,,,,,,5,7,57,2,,,,,,,AFNE11.jpg,AFNE12.jpg,AFSA16.jpg,AFSA06.jpg,AFNE12.jpg,FN,3,num_6,16,num_6,0.616773740388,,,2017_Mar_13_1926,59.9790693868,FEMA4ImagesEEG,001,200048,
AFNE01.JPG,AFNE01.JPG,AFNE01.JPG,AFNE01.JPG,AFNE01.JPG,AFNE01.JPG,,,,,,,,,,,,,,,,,5,8,58,4,,,,,,,AFSA10.jpg,AFNE09.jpg,AFSA09.jpg,AFNE14.jpg,AFSA10.jpg,FS,4,num_8,16,num_8,0.600142729294,,,2017_Mar_13_1926,59.9790693868,FEMA4ImagesEEG,001,200048,
AFNE01.JPG,AFNE01.JPG,AFNE01.JPG,AFNE01.JPG,AFNE01.JPG,AFNE01.JPG,,,,,,,,,,,,,,,,,5,9,59,0,,,,,,,AFSA20.jpg,AFNE17.jpg,AFSA19.jpg,AFNE03.jpg,AFSA20.jpg,FS,4,num_8,16,num_8,1.11674808117,,,2017_Mar_13_1926,59.9790693868,FEMA4ImagesEEG,001,200048,
,,,,,,,,,,,,,,,,,,,,,,,,,,,,,,,,,,,,,,,,,,,space,6.21637473977,2017_Mar_13_1926,59.9790693868,FEMA4ImagesEEG,001,200048,
AFNE01.JPG,AFNE01.JPG,AFNE01.JPG,AFNE01.JPG,AFNE01.JPG,AFNE01.JPG,,,,,,,,,,,,,,,,,,,,,0,0,0,9,,,AMSA14.jpg,AMNE18.jpg,AMSA20.jpg,AMNE11.jpg,AMSA14.jpg,MS,2,num_8,16,num_8,0.633471465379,,,2017_Mar_13_1926,59.9790693868,FEMA4ImagesEEG,001,200048,
AFNE01.JPG,AFNE01.JPG,AFNE01.JPG,AFNE01.JPG,AFNE01.JPG,AFNE01.JPG,,,,,,,,,,,,,,,,,,,,,0,1,1,8,,,AMSA02.jpg,AMNE17.jpg,AMSA15.jpg,AMNE13.jpg,AMSA02.jpg,MS,2,num_8,32,num_4,0.866843180615,,,2017_Mar_13_1926,59.9790693868,FEMA4ImagesEEG,001,200048,
AFNE01.JPG,AFNE01.JPG,AFNE01.JPG,AFNE01.JPG,AFNE01.JPG,AFNE01.JPG,,,,,,,,,,,,,,,,,,,,,0,2,2,2,,,AMSA20.jpg,AMSA17.jpg,AMNE08.jpg,AMNE13.jpg,AMSA20.jpg,MS,2,num_8,16,num_8,0.816784004041,,,2017_Mar_13_1926,59.9790693868,FEMA4ImagesEEG,001,200048,
AFNE01.JPG,AFNE01.JPG,AFNE01.JPG,AFNE01.JPG,AFNE01.JPG,AFNE01.JPG,,,,,,,,,,,,,,,,,,,,,0,3,3,1,,,AMNE08.jpg,AMSA12.jpg,AMNE10.jpg,AMSA10.jpg,AMSA10.jpg,MS,2,num_4,16,num_4,0.683450456883,,,2017_Mar_13_1926,59.9790693868,FEMA4ImagesEEG,001,200048,
AFNE01.JPG,AFNE01.JPG,AFNE01.JPG,AFNE01.JPG,AFNE01.JPG,AFNE01.JPG,,,,,,,,,,,,,,,,,,,,,0,4,4,3,,,AMSA01.jpg,AMNE15.jpg,AMSA12.jpg,AMNE19.jpg,AMSA12.jpg,MS,2,num_2,16,num_2,1.1167708537,,,2017_Mar_13_1926,59.9790693868,FEMA4ImagesEEG,001,200048,
AFNE01.JPG,AFNE01.JPG,AFNE01.JPG,AFNE01.JPG,AFNE01.JPG,AFNE01.JPG,,,,,,,,,,,,,,,,,,,,,0,5,5,0,,,AMSA19.jpg,AMNE04.jpg,AMNE08.jpg,AMSA18.jpg,AMNE04.jpg,MN,1,num_6,16,num_6,1.25010664604,,,2017_Mar_13_1926,59.9790693868,FEMA4ImagesEEG,001,200048,
AFNE01.JPG,AFNE01.JPG,AFNE01.JPG,AFNE01.JPG,AFNE01.JPG,AFNE01.JPG,,,,,,,,,,,,,,,,,,,,,0,6,6,7,,,AMSA01.jpg,AMSA08.jpg,AMNE09.jpg,AMNE19.jpg,AMSA01.jpg,MS,2,num_8,16,num_8,0.566857613856,,,2017_Mar_13_1926,59.9790693868,FEMA4ImagesEEG,001,200048,
AFNE01.JPG,AFNE01.JPG,AFNE01.JPG,AFNE01.JPG,AFNE01.JPG,AFNE01.JPG,,,,,,,,,,,,,,,,,,,,,0,7,7,5,,,AMNE14.jpg,AMNE17.jpg,AMSA19.jpg,AMSA14.jpg,AMNE17.jpg,MN,1,num_6,16,num_6,0.650216339156,,,2017_Mar_13_1926,59.9790693868,FEMA4ImagesEEG,001,200048,
AFNE01.JPG,AFNE01.JPG,AFNE01.JPG,AFNE01.JPG,AFNE01.JPG,AFNE01.JPG,,,,,,,,,,,,,,,,,,,,,0,8,8,4,,,AMNE09.jpg,AMSA03.jpg,AMSA20.jpg,AMNE13.jpg,AMNE13.jpg,MN,1,num_4,16,num_4,1.23343971214,,,2017_Mar_13_1926,59.9790693868,FEMA4ImagesEEG,001,200048,
AFNE01.JPG,AFNE01.JPG,AFNE01.JPG,AFNE01.JPG,AFNE01.JPG,AFNE01.JPG,,,,,,,,,,,,,,,,,,,,,0,9,9,6,,,AMSA06.jpg,AMNE18.jpg,AMSA04.jpg,AMNE19.jpg,AMSA04.jpg,MS,2,num_2,32,num_8,1.10019725515,,,2017_Mar_13_1926,59.9790693868,FEMA4ImagesEEG,001,200048,
AFNE01.JPG,AFNE01.JPG,AFNE01.JPG,AFNE01.JPG,AFNE01.JPG,AFNE01.JPG,,,,,,,,,,,,,,,,,,,,,1,0,10,4,,,AMSA04.jpg,AMNE17.jpg,AMSA20.jpg,AMNE02.jpg,AMSA04.jpg,MS,2,num_8,32,num_4,0.766445142275,,,2017_Mar_13_1926,59.9790693868,FEMA4ImagesEEG,001,200048,
AFNE01.JPG,AFNE01.JPG,AFNE01.JPG,AFNE01.JPG,AFNE01.JPG,AFNE01.JPG,,,,,,,,,,,,,,,,,,,,,1,1,11,7,,,AMNE12.jpg,AMSA09.jpg,AMNE13.jpg,AMSA11.jpg,AMSA09.jpg,MS,2,num_6,32,num_4,0.616820889118,,,2017_Mar_13_1926,59.9790693868,FEMA4ImagesEEG,001,200048,
AFNE01.JPG,AFNE01.JPG,AFNE01.JPG,AFNE01.JPG,AFNE01.JPG,AFNE01.JPG,,,,,,,,,,,,,,,,,,,,,1,2,12,8,,,AMSA15.jpg,AMNE07.jpg,AMNE10.jpg,AMSA13.jpg,AMSA15.jpg,MS,2,num_8,16,num_8,0.383360008243,,,2017_Mar_13_1926,59.9790693868,FEMA4ImagesEEG,001,200048,
AFNE01.JPG,AFNE01.JPG,AFNE01.JPG,AFNE01.JPG,AFNE01.JPG,AFNE01.JPG,,,,,,,,,,,,,,,,,,,,,1,3,13,0,,,AMSA06.jpg,AMNE03.jpg,AMSA17.jpg,AMNE17.jpg,AMSA06.jpg,MS,2,num_8,32,num_6,0.733488143829,,,2017_Mar_13_1926,59.9790693868,FEMA4ImagesEEG,001,200048,
AFNE01.JPG,AFNE01.JPG,AFNE01.JPG,AFNE01.JPG,AFNE01.JPG,AFNE01.JPG,,,,,,,,,,,,,,,,,,,,,1,4,14,1,,,AMSA13.jpg,AMSA08.jpg,AMNE20.jpg,AMNE16.jpg,AMNE16.jpg,MN,1,num_4,16,num_4,0.65040268912,,,2017_Mar_13_1926,59.9790693868,FEMA4ImagesEEG,001,200048,
AFNE01.JPG,AFNE01.JPG,AFNE01.JPG,AFNE01.JPG,AFNE01.JPG,AFNE01.JPG,,,,,,,,,,,,,,,,,,,,,1,5,15,9,,,AMNE18.jpg,AMSA20.jpg,AMNE03.jpg,AMSA17.jpg,AMNE03.jpg,MN,1,num_2,32,num_8,0.866758825956,,,2017_Mar_13_1926,59.9790693868,FEMA4ImagesEEG,001,200048,
AFNE01.JPG,AFNE01.JPG,AFNE01.JPG,AFNE01.JPG,AFNE01.JPG,AFNE01.JPG,,,,,,,,,,,,,,,,,,,,,1,6,16,3,,,AMSA07.jpg,AMNE12.jpg,AMNE19.jpg,AMSA02.jpg,AMSA02.jpg,MS,2,num_4,32,num_8,1.75007360982,,,2017_Mar_13_1926,59.9790693868,FEMA4ImagesEEG,001,200048,
AFNE01.JPG,AFNE01.JPG,AFNE01.JPG,AFNE01.JPG,AFNE01.JPG,AFNE01.JPG,,,,,,,,,,,,,,,,,,,,,1,7,17,5,,,AMSA09.jpg,AMNE11.jpg,AMNE20.jpg,AMSA04.jpg,AMNE20.jpg,MN,1,num_2,16,num_2,0.883475153882,,,2017_Mar_13_1926,59.9790693868,FEMA4ImagesEEG,001,200048,
AFNE01.JPG,AFNE01.JPG,AFNE01.JPG,AFNE01.JPG,AFNE01.JPG,AFNE01.JPG,,,,,,,,,,,,,,,,,,,,,1,8,18,2,,,AMSA14.jpg,AMNE16.jpg,AMNE09.jpg,AMSA19.jpg,AMSA19.jpg,MS,2,num_4,16,num_4,1.71672049753,,,2017_Mar_13_1926,59.9790693868,FEMA4ImagesEEG,001,200048,
AFNE01.JPG,AFNE01.JPG,AFNE01.JPG,AFNE01.JPG,AFNE01.JPG,AFNE01.JPG,,,,,,,,,,,,,,,,,,,,,1,9,19,6,,,AMSA09.jpg,AMNE04.jpg,AMNE15.jpg,AMSA14.jpg,AMNE04.jpg,MN,1,num_6,16,num_6,0.666810144379,,,2017_Mar_13_1926,59.9790693868,FEMA4ImagesEEG,001,200048,
AFNE01.JPG,AFNE01.JPG,AFNE01.JPG,AFNE01.JPG,AFNE01.JPG,AFNE01.JPG,,,,,,,,,,,,,,,,,,,,,2,0,20,7,,,AMSA06.jpg,AMNE12.jpg,AMNE17.jpg,AMSA15.jpg,AMNE17.jpg,MN,1,num_2,16,num_2,0.616801003227,,,2017_Mar_13_1926,59.9790693868,FEMA4ImagesEEG,001,200048,
AFNE01.JPG,AFNE01.JPG,AFNE01.JPG,AFNE01.JPG,AFNE01.JPG,AFNE01.JPG,,,,,,,,,,,,,,,,,,,,,2,1,21,2,,,AMNE04.jpg,AMNE03.jpg,AMSA07.jpg,AMSA08.jpg,AMNE04.jpg,MN,1,num_8,32,num_6,0.800174161792,,,2017_Mar_13_1926,59.9790693868,FEMA4ImagesEEG,001,200048,
AFNE01.JPG,AFNE01.JPG,AFNE01.JPG,AFNE01.JPG,AFNE01.JPG,AFNE01.JPG,,,,,,,,,,,,,,,,,,,,,2,2,22,6,,,AMNE11.jpg,AMSA12.jpg,AMNE10.jpg,AMSA06.jpg,AMSA06.jpg,MS,2,num_4,32,num_8,0.583496643463,,,2017_Mar_13_1926,59.9790693868,FEMA4ImagesEEG,001,200048,
AFNE01.JPG,AFNE01.JPG,AFNE01.JPG,AFNE01.JPG,AFNE01.JPG,AFNE01.JPG,,,,,,,,,,,,,,,,,,,,,2,3,23,0,,,AMSA18.jpg,AMNE06.jpg,AMNE15.jpg,AMSA06.jpg,AMNE15.jpg,MN,1,num_2,32,num_8,0.633553574793,,,2017_Mar_13_1926,59.9790693868,FEMA4ImagesEEG,001,200048,
AFNE01.JPG,AFNE01.JPG,AFNE01.JPG,AFNE01.JPG,AFNE01.JPG,AFNE01.JPG,,,,,,,,,,,,,,,,,,,,,2,4,24,8,,,AMNE15.jpg,AMSA14.jpg,AMNE10.jpg,AMSA07.jpg,AMSA14.jpg,MS,2,num_6,16,num_6,0.56682361546,,,2017_Mar_13_1926,59.9790693868,FEMA4ImagesEEG,001,200048,
AFNE01.JPG,AFNE01.JPG,AFNE01.JPG,AFNE01.JPG,AFNE01.JPG,AFNE01.JPG,,,,,,,,,,,,,,,,,,,,,2,5,25,5,,,AMNE11.jpg,AMSA10.jpg,AMSA20.jpg,AMNE16.jpg,AMSA20.jpg,MS,2,num_2,32,num_4,0.73348910606,,,2017_Mar_13_1926,59.9790693868,FEMA4ImagesEEG,001,200048,
AFNE01.JPG,AFNE01.JPG,AFNE01.JPG,AFNE01.JPG,AFNE01.JPG,AFNE01.JPG,,,,,,,,,,,,,,,,,,,,,2,6,26,9,,,AMSA18.jpg,AMNE08.jpg,AMNE13.jpg,AMSA15.jpg,AMSA15.jpg,MS,2,num_4,32,num_2,0.583496643405,,,2017_Mar_13_1926,59.9790693868,FEMA4ImagesEEG,001,200048,
AFNE01.JPG,AFNE01.JPG,AFNE01.JPG,AFNE01.JPG,AFNE01.JPG,AFNE01.JPG,,,,,,,,,,,,,,,,,,,,,2,7,27,3,,,AMSA07.jpg,AMNE18.jpg,AMSA11.jpg,AMNE20.jpg,AMSA07.jpg,MS,2,num_8,16,num_8,0.70017801068,,,2017_Mar_13_1926,59.9790693868,FEMA4ImagesEEG,001,200048,
AFNE01.JPG,AFNE01.JPG,AFNE01.JPG,AFNE01.JPG,AFNE01.JPG,AFNE01.JPG,,,,,,,,,,,,,,,,,,,,,2,8,28,4,,,AMNE03.jpg,AMSA06.jpg,AMSA10.jpg,AMNE17.jpg,AMSA06.jpg,MS,2,num_6,16,num_6,0.600155879627,,,2017_Mar_13_1926,59.9790693868,FEMA4ImagesEEG,001,200048,
AFNE01.JPG,AFNE01.JPG,AFNE01.JPG,AFNE01.JPG,AFNE01.JPG,AFNE01.JPG,,,,,,,,,,,,,,,,,,,,,2,9,29,1,,,AMSA18.jpg,AMNE10.jpg,AMSA14.jpg,AMNE16.jpg,AMNE10.jpg,MN,1,num_6,16,num_6,0.783468739071,,,2017_Mar_13_1926,59.9790693868,FEMA4ImagesEEG,001,200048,
AFNE01.JPG,AFNE01.JPG,AFNE01.JPG,AFNE01.JPG,AFNE01.JPG,AFNE01.JPG,,,,,,,,,,,,,,,,,,,,,3,0,30,9,,,AMSA08.jpg,AMNE07.jpg,AMSA12.jpg,AMNE20.jpg,AMNE20.jpg,MN,1,num_4,16,num_4,0.716818002518,,,2017_Mar_13_1926,59.9790693868,FEMA4ImagesEEG,001,200048,
AFNE01.JPG,AFNE01.JPG,AFNE01.JPG,AFNE01.JPG,AFNE01.JPG,AFNE01.JPG,,,,,,,,,,,,,,,,,,,,,3,1,31,0,,,AMNE10.jpg,AMSA19.jpg,AMSA09.jpg,AMNE02.jpg,AMSA19.jpg,MS,2,num_6,16,num_6,0.766901876021,,,2017_Mar_13_1926,59.9790693868,FEMA4ImagesEEG,001,200048,
AFNE01.JPG,AFNE01.JPG,AFNE01.JPG,AFNE01.JPG,AFNE01.JPG,AFNE01.JPG,,,,,,,,,,,,,,,,,,,,,3,2,32,2,,,AMSA18.jpg,AMSA07.jpg,AMNE07.jpg,AMNE13.jpg,AMNE07.jpg,MN,1,num_2,16,num_2,0.633482049801,,,2017_Mar_13_1926,59.9790693868,FEMA4ImagesEEG,001,200048,
AFNE01.JPG,AFNE01.JPG,AFNE01.JPG,AFNE01.JPG,AFNE01.JPG,AFNE01.JPG,,,,,,,,,,,,,,,,,,,,,3,3,33,1,,,AMNE19.jpg,AMNE03.jpg,AMSA17.jpg,AMSA11.jpg,AMNE03.jpg,MN,1,num_6,32,num_4,1.20010937238,,,2017_Mar_13_1926,59.9790693868,FEMA4ImagesEEG,001,200048,
AFNE01.JPG,AFNE01.JPG,AFNE01.JPG,AFNE01.JPG,AFNE01.JPG,AFNE01.JPG,,,,,,,,,,,,,,,,,,,,,3,4,34,7,,,AMSA13.jpg,AMNE06.jpg,AMSA04.jpg,AMNE07.jpg,AMNE06.jpg,MN,1,num_6,32,num_4,0.783467776841,,,2017_Mar_13_1926,59.9790693868,FEMA4ImagesEEG,001,200048,
AFNE01.JPG,AFNE01.JPG,AFNE01.JPG,AFNE01.JPG,AFNE01.JPG,AFNE01.JPG,,,,,,,,,,,,,,,,,,,,,3,5,35,4,,,AMNE19.jpg,AMSA15.jpg,AMSA04.jpg,AMNE07.jpg,AMNE07.jpg,MN,1,num_4,16,num_4,0.783525830833,,,2017_Mar_13_1926,59.9790693868,FEMA4ImagesEEG,001,200048,
AFNE01.JPG,AFNE01.JPG,AFNE01.JPG,AFNE01.JPG,AFNE01.JPG,AFNE01.JPG,,,,,,,,,,,,,,,,,,,,,3,6,36,3,,,AMNE05.jpg,AMSA19.jpg,AMSA01.jpg,AMNE01.jpg,AMSA19.jpg,MS,2,num_6,16,num_6,0.966799559945,,,2017_Mar_13_1926,59.9790693868,FEMA4ImagesEEG,001,200048,
AFNE01.JPG,AFNE01.JPG,AFNE01.JPG,AFNE01.JPG,AFNE01.JPG,AFNE01.JPG,,,,,,,,,,,,,,,,,,,,,3,7,37,5,,,AMSA04.jpg,AMNE09.jpg,AMNE13.jpg,AMSA08.jpg,AMNE09.jpg,MN,1,num_6,16,num_6,0.65046812006,,,2017_Mar_13_1926,59.9790693868,FEMA4ImagesEEG,001,200048,
AFNE01.JPG,AFNE01.JPG,AFNE01.JPG,AFNE01.JPG,AFNE01.JPG,AFNE01.JPG,,,,,,,,,,,,,,,,,,,,,3,8,38,6,,,AMNE05.jpg,AMSA04.jpg,AMNE10.jpg,AMSA15.jpg,AMSA15.jpg,MS,2,num_4,16,num_4,0.866766844469,,,2017_Mar_13_1926,59.9790693868,FEMA4ImagesEEG,001,200048,
