IPosition2,IPosition3,IPosition1,IPosition6,IPosition4,IPosition5,TrialsF1.thisRepN,TrialsF1.thisTrialN,TrialsF1.thisN,TrialsF1.thisIndex,TrialsM1.thisRepN,TrialsM1.thisTrialN,TrialsM1.thisN,TrialsM1.thisIndex,TrialsF2.thisRepN,TrialsF2.thisTrialN,TrialsF2.thisN,TrialsF2.thisIndex,TrialsM2.thisRepN,TrialsM2.thisTrialN,TrialsM2.thisN,TrialsM2.thisIndex,TrialsF3.thisRepN,TrialsF3.thisTrialN,TrialsF3.thisN,TrialsF3.thisIndex,TrialsM3.thisRepN,TrialsM3.thisTrialN,TrialsM3.thisN,TrialsM3.thisIndex,InstrKey_resp.keys,InstrKey_resp.rt,Image0 _Position,Image1 _Position,Image2 _Position,Image3 _Position,Center_image,condition,code,correct_answer,accuracy,Key_Resp.keys,Key_Resp.rt,BreakKey_resp.keys,BreakKey_resp.rt,date,frameRate,expName,session,participant,
,,,,,,,,,,,,,,,,,,,,,,,,,,,,,,space,17.0825478151,,,,,,,,,,,,,,2017_Mar_21_1055,60.0224280996,FEMA4ImagesEEG,001,200076,
AFSA21.JPG,AFNE22.JPG,AFNE21.JPG,AFSA23.JPG,AFSA22.JPG,AFNE23.JPG,0,0,0,0,,,,,,,,,,,,,,,,,,,,,,,AFSA06.jpg,AFNE15.jpg,AFNE14.jpg,AFSA10.jpg,AFSA10.jpg,FS,4,num_4,32,num_8,0.833415175381,,,2017_Mar_21_1055,60.0224280996,FEMA4ImagesEEG,001,200076,
AMSA21.JPG,AMNE23.JPG,AMNE21.JPG,AMSA25.JPG,AMNE25.JPG,AMSA23.JPG,0,1,1,5,,,,,,,,,,,,,,,,,,,,,,,AFNE08.jpg,AFSA20.jpg,AFSA19.jpg,AFNE11.jpg,AFNE11.jpg,FN,3,num_4,32,num_6,1.05042509234,,,2017_Mar_21_1055,60.0224280996,FEMA4ImagesEEG,001,200076,
AFNE23.JPG,AFNE24.JPG,AFNE22.JPG,AFSA24.JPG,AFSA22.JPG,AFSA23.JPG,0,2,2,8,,,,,,,,,,,,,,,,,,,,,,,AFSA01.jpg,AFNE13.jpg,AFNE03.jpg,AFSA07.jpg,AFNE03.jpg,FN,3,num_2,32,num_8,0.933447153191,,,2017_Mar_21_1055,60.0224280996,FEMA4ImagesEEG,001,200076,
AFSA25.JPG,AFNE24.JPG,AFSA24.JPG,AFNE21.JPG,AFSA21.JPG,AFNE25.JPG,0,3,3,2,,,,,,,,,,,,,,,,,,,,,,,AFNE07.jpg,AFSA07.jpg,AFSA05.jpg,AFNE11.jpg,AFSA07.jpg,FS,4,num_6,32,num_2,1.0334069645,,,2017_Mar_21_1055,60.0224280996,FEMA4ImagesEEG,001,200076,
AFNE22.JPG,AFSA24.JPG,AFSA22.JPG,AFNE25.JPG,AFNE24.JPG,AFSA25.JPG,0,4,4,6,,,,,,,,,,,,,,,,,,,,,,,AFSA18.jpg,AFNE15.jpg,AFSA05.jpg,AFNE06.jpg,AFSA05.jpg,FS,4,num_2,32,num_4,1.05010114529,,,2017_Mar_21_1055,60.0224280996,FEMA4ImagesEEG,001,200076,
AMSA25.JPG,AMNE24.JPG,AMSA24.JPG,AMNE26.JPG,AMSA21.JPG,AMNE25.JPG,0,5,5,3,,,,,,,,,,,,,,,,,,,,,,,AFSA01.jpg,AFNE08.jpg,AFSA11.jpg,AFNE05.jpg,AFSA11.jpg,FS,4,num_2,32,num_8,0.883445116458,,,2017_Mar_21_1055,60.0224280996,FEMA4ImagesEEG,001,200076,
AFSA21.JPG,AFNE23.JPG,AFNE21.JPG,AFSA25.JPG,AFNE25.JPG,AFSA23.JPG,0,6,6,4,,,,,,,,,,,,,,,,,,,,,,,AFSA01.jpg,AFSA17.jpg,AFNE08.jpg,AFNE15.jpg,AFNE15.jpg,FN,3,num_4,16,num_4,0.916835723212,,,2017_Mar_21_1055,60.0224280996,FEMA4ImagesEEG,001,200076,
AMSA21.JPG,AMNE22.JPG,AMNE21.JPG,AMSA23.JPG,AMSA22.JPG,AMNE23.JPG,0,7,7,1,,,,,,,,,,,,,,,,,,,,,,,AFSA07.jpg,AFNE13.jpg,AFNE01.jpg,AFSA02.jpg,AFNE13.jpg,FN,3,num_6,32,num_8,1.01680034562,,,2017_Mar_21_1055,60.0224280996,FEMA4ImagesEEG,001,200076,
AMNE22.JPG,AMSA24.JPG,AMSA22.JPG,AMNE25.JPG,AMNE24.JPG,AMSA25.JPG,0,8,8,7,,,,,,,,,,,,,,,,,,,,,,,AFSA17.jpg,AFNE10.jpg,AFSA05.jpg,AFNE05.jpg,AFNE05.jpg,FN,3,num_4,32,num_6,1.58383478312,,,2017_Mar_21_1055,60.0224280996,FEMA4ImagesEEG,001,200076,
AMNE23.JPG,AMNE24.JPG,AMNE22.JPG,AMSA24.JPG,AMSA22.JPG,AMSA23.JPG,0,9,9,9,,,,,,,,,,,,,,,,,,,,,,,AFNE11.jpg,AFNE07.jpg,AFSA10.jpg,AFSA12.jpg,AFNE11.jpg,FN,3,num_8,16,num_8,1.0667629313,,,2017_Mar_21_1055,60.0224280996,FEMA4ImagesEEG,001,200076,
AFSA25.JPG,AFNE24.JPG,AFSA24.JPG,AFNE21.JPG,AFSA21.JPG,AFNE25.JPG,,,,,0,0,0,2,,,,,,,,,,,,,,,,,,,AMNE15.jpg,AMSA03.jpg,AMSA10.jpg,AMNE17.jpg,AMNE15.jpg,MN,1,num_8,32,num_2,3.91655251005,,,2017_Mar_21_1055,60.0224280996,FEMA4ImagesEEG,001,200076,
AMSA21.JPG,AMNE23.JPG,AMNE21.JPG,AMSA25.JPG,AMNE25.JPG,AMSA23.JPG,,,,,0,1,1,5,,,,,,,,,,,,,,,,,,,AMSA19.jpg,AMNE03.jpg,AMNE05.jpg,AMSA08.jpg,AMSA19.jpg,MS,2,num_8,16,num_8,1.00009141082,,,2017_Mar_21_1055,60.0224280996,FEMA4ImagesEEG,001,200076,
AFNE22.JPG,AFSA24.JPG,AFSA22.JPG,AFNE25.JPG,AFNE24.JPG,AFSA25.JPG,,,,,0,2,2,6,,,,,,,,,,,,,,,,,,,AMNE14.jpg,AMSA06.jpg,AMNE19.jpg,AMSA04.jpg,AMSA06.jpg,MS,2,num_6,16,num_6,0.816800217319,,,2017_Mar_21_1055,60.0224280996,FEMA4ImagesEEG,001,200076,
AMSA21.JPG,AMNE22.JPG,AMNE21.JPG,AMSA23.JPG,AMSA22.JPG,AMNE23.JPG,,,,,0,3,3,1,,,,,,,,,,,,,,,,,,,AMNE20.jpg,AMSA08.jpg,AMNE17.jpg,AMSA11.jpg,AMNE17.jpg,MN,1,num_2,32,num_6,0.850113846594,,,2017_Mar_21_1055,60.0224280996,FEMA4ImagesEEG,001,200076,
AMNE22.JPG,AMSA24.JPG,AMSA22.JPG,AMNE25.JPG,AMNE24.JPG,AMSA25.JPG,,,,,0,4,4,7,,,,,,,,,,,,,,,,,,,AMNE04.jpg,AMSA05.jpg,AMNE19.jpg,AMSA15.jpg,AMSA05.jpg,MS,2,num_6,32,num_8,1.03347720648,,,2017_Mar_21_1055,60.0224280996,FEMA4ImagesEEG,001,200076,
AMNE23.JPG,AMNE24.JPG,AMNE22.JPG,AMSA24.JPG,AMSA22.JPG,AMSA23.JPG,,,,,0,5,5,9,,,,,,,,,,,,,,,,,,,AMNE05.jpg,AMSA16.jpg,AMNE06.jpg,AMSA18.jpg,AMNE06.jpg,MN,1,num_2,16,num_2,1.01678206347,,,2017_Mar_21_1055,60.0224280996,FEMA4ImagesEEG,001,200076,
AFSA21.JPG,AFNE22.JPG,AFNE21.JPG,AFSA23.JPG,AFSA22.JPG,AFNE23.JPG,,,,,0,6,6,0,,,,,,,,,,,,,,,,,,,AMSA08.jpg,AMNE10.jpg,AMSA10.jpg,AMNE02.jpg,AMNE10.jpg,MN,1,num_6,16,num_6,0.933130262361,,,2017_Mar_21_1055,60.0224280996,FEMA4ImagesEEG,001,200076,
AFNE23.JPG,AFNE24.JPG,AFNE22.JPG,AFSA24.JPG,AFSA22.JPG,AFSA23.JPG,,,,,0,7,7,8,,,,,,,,,,,,,,,,,,,AMNE18.jpg,AMSA07.jpg,AMSA04.jpg,AMNE15.jpg,AMSA04.jpg,MS,2,num_2,16,num_2,1.4501155144,,,2017_Mar_21_1055,60.0224280996,FEMA4ImagesEEG,001,200076,
AMSA25.JPG,AMNE24.JPG,AMSA24.JPG,AMNE26.JPG,AMSA21.JPG,AMNE25.JPG,,,,,0,8,8,3,,,,,,,,,,,,,,,,,,,AMNE15.jpg,AMNE18.jpg,AMSA10.jpg,AMSA09.jpg,AMSA10.jpg,MS,2,num_2,16,num_2,1.3167641341,,,2017_Mar_21_1055,60.0224280996,FEMA4ImagesEEG,001,200076,
AFSA21.JPG,AFNE23.JPG,AFNE21.JPG,AFSA25.JPG,AFNE25.JPG,AFSA23.JPG,,,,,0,9,9,4,,,,,,,,,,,,,,,,,,,AMNE07.jpg,AMNE16.jpg,AMSA06.jpg,AMSA09.jpg,AMNE16.jpg,MN,1,num_6,32,num_8,1.48364115256,,,2017_Mar_21_1055,60.0224280996,FEMA4ImagesEEG,001,200076,
AFSA21.JPG,AFNE22.JPG,AFNE21.JPG,AFSA23.JPG,AFSA22.JPG,AFNE23.JPG,,,,,,,,,0,0,0,0,,,,,,,,,,,,,,,AFSA03.jpg,AFSA09.jpg,AFNE11.jpg,AFNE12.jpg,AFNE11.jpg,FN,3,num_2,32,num_6,0.783319482754,,,2017_Mar_21_1055,60.0224280996,FEMA4ImagesEEG,001,200076,
AMSA21.JPG,AMNE22.JPG,AMNE21.JPG,AMSA23.JPG,AMSA22.JPG,AMNE23.JPG,,,,,,,,,0,1,1,1,,,,,,,,,,,,,,,AFSA11.jpg,AFNE03.jpg,AFSA01.jpg,AFNE14.jpg,AFSA11.jpg,FS,4,num_8,32,num_2,0.950089053367,,,2017_Mar_21_1055,60.0224280996,FEMA4ImagesEEG,001,200076,
AMSA21.JPG,AMNE23.JPG,AMNE21.JPG,AMSA25.JPG,AMNE25.JPG,AMSA23.JPG,,,,,,,,,0,2,2,5,,,,,,,,,,,,,,,AFSA07.jpg,AFNE13.jpg,AFSA14.jpg,AFNE09.jpg,AFNE13.jpg,FN,3,num_6,32,num_8,1.51672801882,,,2017_Mar_21_1055,60.0224280996,FEMA4ImagesEEG,001,200076,
AFNE22.JPG,AFSA24.JPG,AFSA22.JPG,AFNE25.JPG,AFNE24.JPG,AFSA25.JPG,,,,,,,,,0,3,3,6,,,,,,,,,,,,,,,AFNE05.jpg,AFSA01.jpg,AFSA20.jpg,AFNE12.jpg,AFNE12.jpg,FN,3,num_4,16,num_4,1.1667480811,,,2017_Mar_21_1055,60.0224280996,FEMA4ImagesEEG,001,200076,
AFSA25.JPG,AFNE24.JPG,AFSA24.JPG,AFNE21.JPG,AFSA21.JPG,AFNE25.JPG,,,,,,,,,0,4,4,2,,,,,,,,,,,,,,,AFSA06.jpg,AFNE01.jpg,AFSA13.jpg,AFNE19.jpg,AFSA06.jpg,FS,4,num_8,16,num_8,1.68339848093,,,2017_Mar_21_1055,60.0224280996,FEMA4ImagesEEG,001,200076,
AMNE22.JPG,AMSA24.JPG,AMSA22.JPG,AMNE25.JPG,AMNE24.JPG,AMSA25.JPG,,,,,,,,,0,5,5,7,,,,,,,,,,,,,,,AFSA08.jpg,AFNE05.jpg,AFNE16.jpg,AFSA11.jpg,AFNE16.jpg,FN,3,num_2,16,num_2,0.883525942918,,,2017_Mar_21_1055,60.0224280996,FEMA4ImagesEEG,001,200076,
AMNE23.JPG,AMNE24.JPG,AMNE22.JPG,AMSA24.JPG,AMSA22.JPG,AMSA23.JPG,,,,,,,,,0,6,6,9,,,,,,,,,,,,,,,AFSA19.jpg,AFNE17.jpg,AFNE15.jpg,AFSA09.jpg,AFSA09.jpg,FS,4,num_4,32,num_8,1.38387987914,,,2017_Mar_21_1055,60.0224280996,FEMA4ImagesEEG,001,200076,
AFSA21.JPG,AFNE23.JPG,AFNE21.JPG,AFSA25.JPG,AFNE25.JPG,AFSA23.JPG,,,,,,,,,0,7,7,4,,,,,,,,,,,,,,,AFNE15.jpg,AFSA08.jpg,AFNE18.jpg,AFSA06.jpg,AFNE15.jpg,FN,3,num_8,32,num_4,0.949923230975,,,2017_Mar_21_1055,60.0224280996,FEMA4ImagesEEG,001,200076,
AMSA25.JPG,AMNE24.JPG,AMSA24.JPG,AMNE26.JPG,AMSA21.JPG,AMNE25.JPG,,,,,,,,,0,8,8,3,,,,,,,,,,,,,,,AFNE13.jpg,AFSA16.jpg,AFSA11.jpg,AFNE19.jpg,AFNE13.jpg,FN,3,num_8,16,num_8,0.883423306164,,,2017_Mar_21_1055,60.0224280996,FEMA4ImagesEEG,001,200076,
AFNE23.JPG,AFNE24.JPG,AFNE22.JPG,AFSA24.JPG,AFSA22.JPG,AFSA23.JPG,,,,,,,,,0,9,9,8,,,,,,,,,,,,,,,AFSA14.jpg,AFNE04.jpg,AFSA18.jpg,AFNE09.jpg,AFNE04.jpg,FN,3,num_6,32,num_4,1.16681447421,,,2017_Mar_21_1055,60.0224280996,FEMA4ImagesEEG,001,200076,
AMNE23.JPG,AMNE24.JPG,AMNE22.JPG,AMSA24.JPG,AMSA22.JPG,AMSA23.JPG,,,,,,,,,,,,,0,0,0,9,,,,,,,,,,,AMSA17.jpg,AMNE07.jpg,AMNE03.jpg,AMSA06.jpg,AMSA17.jpg,MS,2,num_8,32,num_2,1.01675640431,,,2017_Mar_21_1055,60.0224280996,FEMA4ImagesEEG,001,200076,
AFSA25.JPG,AFNE24.JPG,AFSA24.JPG,AFNE21.JPG,AFSA21.JPG,AFNE25.JPG,,,,,,,,,,,,,0,1,1,2,,,,,,,,,,,AMNE14.jpg,AMSA13.jpg,AMSA04.jpg,AMNE03.jpg,AMSA13.jpg,MS,2,num_6,32,num_2,1.00013150327,,,2017_Mar_21_1055,60.0224280996,FEMA4ImagesEEG,001,200076,
AMSA21.JPG,AMNE23.JPG,AMNE21.JPG,AMSA25.JPG,AMNE25.JPG,AMSA23.JPG,,,,,,,,,,,,,0,2,2,5,,,,,,,,,,,AMSA09.jpg,AMNE12.jpg,AMNE10.jpg,AMSA08.jpg,AMSA08.jpg,MS,2,num_4,32,num_8,1.40007178154,,,2017_Mar_21_1055,60.0224280996,FEMA4ImagesEEG,001,200076,
AMSA25.JPG,AMNE24.JPG,AMSA24.JPG,AMNE26.JPG,AMSA21.JPG,AMNE25.JPG,,,,,,,,,,,,,0,3,3,3,,,,,,,,,,,AMSA15.jpg,AMNE02.jpg,AMNE01.jpg,AMSA11.jpg,AMNE01.jpg,MN,1,num_2,32,num_6,0.850092677749,,,2017_Mar_21_1055,60.0224280996,FEMA4ImagesEEG,001,200076,
AFSA21.JPG,AFNE23.JPG,AFNE21.JPG,AFSA25.JPG,AFNE25.JPG,AFSA23.JPG,,,,,,,,,,,,,0,4,4,4,,,,,,,,,,,AMSA14.jpg,AMSA11.jpg,AMNE20.jpg,AMNE03.jpg,AMNE03.jpg,MN,1,num_4,32,num_8,0.950111184444,,,2017_Mar_21_1055,60.0224280996,FEMA4ImagesEEG,001,200076,
AMSA21.JPG,AMNE22.JPG,AMNE21.JPG,AMSA23.JPG,AMSA22.JPG,AMNE23.JPG,,,,,,,,,,,,,0,5,5,1,,,,,,,,,,,AMNE03.jpg,AMSA07.jpg,AMSA11.jpg,AMNE20.jpg,AMNE20.jpg,MN,1,num_4,16,num_4,1.20007710584,,,2017_Mar_21_1055,60.0224280996,FEMA4ImagesEEG,001,200076,
AFNE22.JPG,AFSA24.JPG,AFSA22.JPG,AFNE25.JPG,AFNE24.JPG,AFSA25.JPG,,,,,,,,,,,,,0,6,6,6,,,,,,,,,,,AMSA10.jpg,AMNE20.jpg,AMSA07.jpg,AMNE15.jpg,AMNE15.jpg,MN,1,num_4,16,num_4,1.45019666158,,,2017_Mar_21_1055,60.0224280996,FEMA4ImagesEEG,001,200076,
AFNE23.JPG,AFNE24.JPG,AFNE22.JPG,AFSA24.JPG,AFSA22.JPG,AFSA23.JPG,,,,,,,,,,,,,0,7,7,8,,,,,,,,,,,AMSA02.jpg,AMSA05.jpg,AMNE10.jpg,AMNE09.jpg,AMNE10.jpg,MN,1,num_2,32,num_8,1.01659860037,,,2017_Mar_21_1055,60.0224280996,FEMA4ImagesEEG,001,200076,
AFSA21.JPG,AFNE22.JPG,AFNE21.JPG,AFSA23.JPG,AFSA22.JPG,AFNE23.JPG,,,,,,,,,,,,,0,8,8,0,,,,,,,,,,,AMSA07.jpg,AMSA04.jpg,AMNE19.jpg,AMNE13.jpg,AMNE13.jpg,MN,1,num_4,32,num_8,1.51671775518,,,2017_Mar_21_1055,60.0224280996,FEMA4ImagesEEG,001,200076,
AMNE22.JPG,AMSA24.JPG,AMSA22.JPG,AMNE25.JPG,AMNE24.JPG,AMSA25.JPG,,,,,,,,,,,,,0,9,9,7,,,,,,,,,,,AMNE08.jpg,AMSA04.jpg,AMNE19.jpg,AMSA12.jpg,AMNE19.jpg,MN,1,num_2,16,num_2,1.11678260873,,,2017_Mar_21_1055,60.0224280996,FEMA4ImagesEEG,001,200076,
AFNE22.JPG,AFSA24.JPG,AFSA22.JPG,AFNE25.JPG,AFNE24.JPG,AFSA25.JPG,,,,,,,,,,,,,,,,,0,0,0,6,,,,,,,AFNE04.jpg,AFNE15.jpg,AFSA12.jpg,AFSA06.jpg,AFSA06.jpg,FS,4,num_4,32,num_2,1.20016017742,,,2017_Mar_21_1055,60.0224280996,FEMA4ImagesEEG,001,200076,
AMSA25.JPG,AMNE24.JPG,AMSA24.JPG,AMNE26.JPG,AMSA21.JPG,AMNE25.JPG,,,,,,,,,,,,,,,,,0,1,1,3,,,,,,,AFSA11.jpg,AFSA08.jpg,AFNE04.jpg,AFNE12.jpg,AFNE04.jpg,FN,3,num_2,32,num_6,0.833448853111,,,2017_Mar_21_1055,60.0224280996,FEMA4ImagesEEG,001,200076,
AMSA21.JPG,AMNE23.JPG,AMNE21.JPG,AMSA25.JPG,AMNE25.JPG,AMSA23.JPG,,,,,,,,,,,,,,,,,0,2,2,5,,,,,,,AFSA17.jpg,AFNE03.jpg,AFSA04.jpg,AFNE15.jpg,AFNE03.jpg,FN,3,num_6,32,num_8,0.966733198788,,,2017_Mar_21_1055,60.0224280996,FEMA4ImagesEEG,001,200076,
AMNE22.JPG,AMSA24.JPG,AMSA22.JPG,AMNE25.JPG,AMNE24.JPG,AMSA25.JPG,,,,,,,,,,,,,,,,,0,3,3,7,,,,,,,AFSA10.jpg,AFSA13.jpg,AFNE12.jpg,AFNE13.jpg,AFSA10.jpg,FS,4,num_8,16,num_8,1.75007160514,,,2017_Mar_21_1055,60.0224280996,FEMA4ImagesEEG,001,200076,
AFSA21.JPG,AFNE22.JPG,AFNE21.JPG,AFSA23.JPG,AFSA22.JPG,AFNE23.JPG,,,,,,,,,,,,,,,,,0,4,4,0,,,,,,,AFSA12.jpg,AFSA04.jpg,AFNE16.jpg,AFNE05.jpg,AFNE05.jpg,FN,3,num_4,32,num_6,0.850133732369,,,2017_Mar_21_1055,60.0224280996,FEMA4ImagesEEG,001,200076,
AMNE23.JPG,AMNE24.JPG,AMNE22.JPG,AMSA24.JPG,AMSA22.JPG,AMSA23.JPG,,,,,,,,,,,,,,,,,0,5,5,9,,,,,,,AFSA01.jpg,AFSA20.jpg,AFNE19.jpg,AFNE16.jpg,AFNE16.jpg,FN,3,num_4,32,num_2,1.70006539888,,,2017_Mar_21_1055,60.0224280996,FEMA4ImagesEEG,001,200076,
AFNE23.JPG,AFNE24.JPG,AFNE22.JPG,AFSA24.JPG,AFSA22.JPG,AFSA23.JPG,,,,,,,,,,,,,,,,,0,6,6,8,,,,,,,AFSA06.jpg,AFSA02.jpg,AFNE08.jpg,AFNE14.jpg,AFSA02.jpg,FS,4,num_6,16,num_6,1.08348565793,,,2017_Mar_21_1055,60.0224280996,FEMA4ImagesEEG,001,200076,
AMSA21.JPG,AMNE22.JPG,AMNE21.JPG,AMSA23.JPG,AMSA22.JPG,AMNE23.JPG,,,,,,,,,,,,,,,,,0,7,7,1,,,,,,,AFNE05.jpg,AFSA13.jpg,AFNE03.jpg,AFSA15.jpg,AFSA15.jpg,FS,4,num_4,32,num_8,1.63338746352,,,2017_Mar_21_1055,60.0224280996,FEMA4ImagesEEG,001,200076,
AFSA21.JPG,AFNE23.JPG,AFNE21.JPG,AFSA25.JPG,AFNE25.JPG,AFSA23.JPG,,,,,,,,,,,,,,,,,0,8,8,4,,,,,,,AFSA11.jpg,AFNE06.jpg,AFSA02.jpg,AFNE01.jpg,AFSA11.jpg,FS,4,num_8,16,num_8,1.15011259564,,,2017_Mar_21_1055,60.0224280996,FEMA4ImagesEEG,001,200076,
AFSA25.JPG,AFNE24.JPG,AFSA24.JPG,AFNE21.JPG,AFSA21.JPG,AFNE25.JPG,,,,,,,,,,,,,,,,,0,9,9,2,,,,,,,AFNE10.jpg,AFSA12.jpg,AFNE04.jpg,AFSA01.jpg,AFNE10.jpg,FN,3,num_8,32,num_2,0.966762706812,,,2017_Mar_21_1055,60.0224280996,FEMA4ImagesEEG,001,200076,
AFNE22.JPG,AFSA24.JPG,AFSA22.JPG,AFNE25.JPG,AFNE24.JPG,AFSA25.JPG,,,,,,,,,,,,,,,,,,,,,0,0,0,6,,,AMSA16.jpg,AMSA18.jpg,AMNE01.jpg,AMNE17.jpg,AMNE01.jpg,MN,1,num_2,32,num_6,0.916765481234,,,2017_Mar_21_1055,60.0224280996,FEMA4ImagesEEG,001,200076,
AFSA25.JPG,AFNE24.JPG,AFSA24.JPG,AFNE21.JPG,AFSA21.JPG,AFNE25.JPG,,,,,,,,,,,,,,,,,,,,,0,1,1,2,,,AMSA18.jpg,AMNE13.jpg,AMSA03.jpg,AMNE12.jpg,AMNE13.jpg,MN,1,num_6,32,num_4,1.16674711887,,,2017_Mar_21_1055,60.0224280996,FEMA4ImagesEEG,001,200076,
AMNE22.JPG,AMSA24.JPG,AMSA22.JPG,AMNE25.JPG,AMNE24.JPG,AMSA25.JPG,,,,,,,,,,,,,,,,,,,,,0,2,2,7,,,AMSA08.jpg,AMSA03.jpg,AMNE08.jpg,AMNE12.jpg,AMSA03.jpg,MS,2,num_6,32,num_2,1.98337253305,,,2017_Mar_21_1055,60.0224280996,FEMA4ImagesEEG,001,200076,
AFSA21.JPG,AFNE22.JPG,AFNE21.JPG,AFSA23.JPG,AFSA22.JPG,AFNE23.JPG,,,,,,,,,,,,,,,,,,,,,0,3,3,0,,,AMSA05.jpg,AMNE12.jpg,AMNE19.jpg,AMSA17.jpg,AMNE12.jpg,MN,1,num_6,32,num_2,1.40008268668,,,2017_Mar_21_1055,60.0224280996,FEMA4ImagesEEG,001,200076,
AMNE23.JPG,AMNE24.JPG,AMNE22.JPG,AMSA24.JPG,AMSA22.JPG,AMSA23.JPG,,,,,,,,,,,,,,,,,,,,,0,4,4,9,,,AMNE03.jpg,AMNE08.jpg,AMSA08.jpg,AMSA15.jpg,AMSA15.jpg,MS,2,num_4,32,num_2,1.31677022815,,,2017_Mar_21_1055,60.0224280996,FEMA4ImagesEEG,001,200076,
AMSA21.JPG,AMNE23.JPG,AMNE21.JPG,AMSA25.JPG,AMNE25.JPG,AMSA23.JPG,,,,,,,,,,,,,,,,,,,,,0,5,5,5,,,AMNE04.jpg,AMNE14.jpg,AMSA19.jpg,AMSA06.jpg,AMNE04.jpg,MN,1,num_8,16,num_8,1.20008287916,,,2017_Mar_21_1055,60.0224280996,FEMA4ImagesEEG,001,200076,
AFSA21.JPG,AFNE23.JPG,AFNE21.JPG,AFSA25.JPG,AFNE25.JPG,AFSA23.JPG,,,,,,,,,,,,,,,,,,,,,0,6,6,4,,,AMSA17.jpg,AMNE10.jpg,AMSA18.jpg,AMNE02.jpg,AMNE02.jpg,MN,1,num_4,32,num_8,1.18340505607,,,2017_Mar_21_1055,60.0224280996,FEMA4ImagesEEG,001,200076,
AMSA21.JPG,AMNE22.JPG,AMNE21.JPG,AMSA23.JPG,AMSA22.JPG,AMNE23.JPG,,,,,,,,,,,,,,,,,,,,,0,7,7,1,,,AMSA12.jpg,AMNE20.jpg,AMNE16.jpg,AMSA16.jpg,AMSA16.jpg,MS,2,num_4,16,num_4,0.850099092524,,,2017_Mar_21_1055,60.0224280996,FEMA4ImagesEEG,001,200076,
AMSA25.JPG,AMNE24.JPG,AMSA24.JPG,AMNE26.JPG,AMSA21.JPG,AMNE25.JPG,,,,,,,,,,,,,,,,,,,,,0,8,8,3,,,AMNE10.jpg,AMNE07.jpg,AMSA13.jpg,AMSA12.jpg,AMSA12.jpg,MS,2,num_4,32,num_8,1.35009732848,,,2017_Mar_21_1055,60.0224280996,FEMA4ImagesEEG,001,200076,
AFNE23.JPG,AFNE24.JPG,AFNE22.JPG,AFSA24.JPG,AFSA22.JPG,AFSA23.JPG,,,,,,,,,,,,,,,,,,,,,0,9,9,8,,,AMNE18.jpg,AMNE11.jpg,AMSA05.jpg,AMSA04.jpg,AMSA05.jpg,MS,2,num_2,32,num_8,1.31675098377,,,2017_Mar_21_1055,60.0224280996,FEMA4ImagesEEG,001,200076,
,,,,,,,,,,,,,,,,,,,,,,,,,,,,,,,,,,,,,,,,,,,space,19.4323013106,2017_Mar_21_1055,60.0224280996,FEMA4ImagesEEG,001,200076,
AFNE01.JPG,AFNE01.JPG,AFNE01.JPG,AFNE01.JPG,AFNE01.JPG,AFNE01.JPG,0,0,0,9,,,,,,,,,,,,,,,,,,,,,,,AFNE05.jpg,AFSA20.jpg,AFNE12.jpg,AFSA15.jpg,AFSA20.jpg,FS,4,num_6,32,num_4,0.933467039024,,,2017_Mar_21_1055,60.0224280996,FEMA4ImagesEEG,001,200076,
AFNE01.JPG,AFNE01.JPG,AFNE01.JPG,AFNE01.JPG,AFNE01.JPG,AFNE01.JPG,0,1,1,0,,,,,,,,,,,,,,,,,,,,,,,AFSA16.jpg,AFSA07.jpg,AFNE02.jpg,AFNE01.jpg,AFNE01.jpg,FN,3,num_4,32,num_8,0.916755217535,,,2017_Mar_21_1055,60.0224280996,FEMA4ImagesEEG,001,200076,
AFNE01.JPG,AFNE01.JPG,AFNE01.JPG,AFNE01.JPG,AFNE01.JPG,AFNE01.JPG,0,2,2,2,,,,,,,,,,,,,,,,,,,,,,,AFNE14.jpg,AFSA17.jpg,AFSA09.jpg,AFNE03.jpg,AFNE03.jpg,FN,3,num_4,32,num_6,0.933477302664,,,2017_Mar_21_1055,60.0224280996,FEMA4ImagesEEG,001,200076,
AFNE01.JPG,AFNE01.JPG,AFNE01.JPG,AFNE01.JPG,AFNE01.JPG,AFNE01.JPG,0,3,3,3,,,,,,,,,,,,,,,,,,,,,,,AFNE14.jpg,AFSA16.jpg,AFNE06.jpg,AFSA18.jpg,AFNE06.jpg,FN,3,num_2,32,num_4,1.38341384439,,,2017_Mar_21_1055,60.0224280996,FEMA4ImagesEEG,001,200076,
AFNE01.JPG,AFNE01.JPG,AFNE01.JPG,AFNE01.JPG,AFNE01.JPG,AFNE01.JPG,0,4,4,8,,,,,,,,,,,,,,,,,,,,,,,AFNE02.jpg,AFSA11.jpg,AFNE04.jpg,AFSA01.jpg,AFSA01.jpg,FS,4,num_4,32,num_8,0.950109901489,,,2017_Mar_21_1055,60.0224280996,FEMA4ImagesEEG,001,200076,
AFNE01.JPG,AFNE01.JPG,AFNE01.JPG,AFNE01.JPG,AFNE01.JPG,AFNE01.JPG,0,5,5,4,,,,,,,,,,,,,,,,,,,,,,,AFSA18.jpg,AFSA15.jpg,AFNE18.jpg,AFNE07.jpg,AFNE18.jpg,FN,3,num_2,32,num_8,0.783168735099,,,2017_Mar_21_1055,60.0224280996,FEMA4ImagesEEG,001,200076,
AFNE01.JPG,AFNE01.JPG,AFNE01.JPG,AFNE01.JPG,AFNE01.JPG,AFNE01.JPG,0,6,6,5,,,,,,,,,,,,,,,,,,,,,,,AFNE08.jpg,AFNE03.jpg,AFSA17.jpg,AFSA01.jpg,AFNE08.jpg,FN,3,num_8,16,num_8,2.33332167979,,,2017_Mar_21_1055,60.0224280996,FEMA4ImagesEEG,001,200076,
AFNE01.JPG,AFNE01.JPG,AFNE01.JPG,AFNE01.JPG,AFNE01.JPG,AFNE01.JPG,0,7,7,7,,,,,,,,,,,,,,,,,,,,,,,AFSA16.jpg,AFSA17.jpg,AFNE10.jpg,AFNE01.jpg,AFSA16.jpg,FS,4,num_8,32,num_2,1.41678809334,,,2017_Mar_21_1055,60.0224280996,FEMA4ImagesEEG,001,200076,
AFNE01.JPG,AFNE01.JPG,AFNE01.JPG,AFNE01.JPG,AFNE01.JPG,AFNE01.JPG,0,8,8,1,,,,,,,,,,,,,,,,,,,,,,,AFSA10.jpg,AFNE01.jpg,AFNE12.jpg,AFSA05.jpg,AFNE01.jpg,FN,3,num_6,16,num_6,0.550160001032,,,2017_Mar_21_1055,60.0224280996,FEMA4ImagesEEG,001,200076,
AFNE01.JPG,AFNE01.JPG,AFNE01.JPG,AFNE01.JPG,AFNE01.JPG,AFNE01.JPG,0,9,9,6,,,,,,,,,,,,,,,,,,,,,,,AFNE02.jpg,AFSA08.jpg,AFNE06.jpg,AFSA06.jpg,AFSA06.jpg,FS,4,num_4,16,num_4,2.13338377496,,,2017_Mar_21_1055,60.0224280996,FEMA4ImagesEEG,001,200076,
AFNE01.JPG,AFNE01.JPG,AFNE01.JPG,AFNE01.JPG,AFNE01.JPG,AFNE01.JPG,1,0,10,1,,,,,,,,,,,,,,,,,,,,,,,AFSA14.jpg,AFNE17.jpg,AFNE02.jpg,AFSA06.jpg,AFNE17.jpg,FN,3,num_6,16,num_6,0.900112996576,,,2017_Mar_21_1055,60.0224280996,FEMA4ImagesEEG,001,200076,
AFNE01.JPG,AFNE01.JPG,AFNE01.JPG,AFNE01.JPG,AFNE01.JPG,AFNE01.JPG,1,1,11,3,,,,,,,,,,,,,,,,,,,,,,,AFSA18.jpg,AFSA19.jpg,AFNE08.jpg,AFNE13.jpg,AFSA18.jpg,FS,4,num_8,32,num_4,1.10006052355,,,2017_Mar_21_1055,60.0224280996,FEMA4ImagesEEG,001,200076,
AFNE01.JPG,AFNE01.JPG,AFNE01.JPG,AFNE01.JPG,AFNE01.JPG,AFNE01.JPG,1,2,12,6,,,,,,,,,,,,,,,,,,,,,,,AFSA05.jpg,AFSA13.jpg,AFNE03.jpg,AFNE20.jpg,AFNE03.jpg,FN,3,num_2,32,num_8,0.650003383809,,,2017_Mar_21_1055,60.0224280996,FEMA4ImagesEEG,001,200076,
AFNE01.JPG,AFNE01.JPG,AFNE01.JPG,AFNE01.JPG,AFNE01.JPG,AFNE01.JPG,1,3,13,7,,,,,,,,,,,,,,,,,,,,,,,AFNE10.jpg,AFSA11.jpg,AFSA07.jpg,AFNE02.jpg,AFNE10.jpg,FN,3,num_8,32,num_2,1.15003465593,,,2017_Mar_21_1055,60.0224280996,FEMA4ImagesEEG,001,200076,
AFNE01.JPG,AFNE01.JPG,AFNE01.JPG,AFNE01.JPG,AFNE01.JPG,AFNE01.JPG,1,4,14,0,,,,,,,,,,,,,,,,,,,,,,,AFSA02.jpg,AFNE05.jpg,AFSA18.jpg,AFNE02.jpg,AFSA02.jpg,FS,4,num_8,16,num_8,1.01674678212,,,2017_Mar_21_1055,60.0224280996,FEMA4ImagesEEG,001,200076,
AFNE01.JPG,AFNE01.JPG,AFNE01.JPG,AFNE01.JPG,AFNE01.JPG,AFNE01.JPG,1,5,15,5,,,,,,,,,,,,,,,,,,,,,,,AFSA07.jpg,AFNE14.jpg,AFSA14.jpg,AFNE04.jpg,AFNE14.jpg,FN,3,num_6,32,num_2,0.750143771584,,,2017_Mar_21_1055,60.0224280996,FEMA4ImagesEEG,001,200076,
AFNE01.JPG,AFNE01.JPG,AFNE01.JPG,AFNE01.JPG,AFNE01.JPG,AFNE01.JPG,1,6,16,4,,,,,,,,,,,,,,,,,,,,,,,AFNE13.jpg,AFNE02.jpg,AFSA07.jpg,AFSA01.jpg,AFNE02.jpg,FN,3,num_6,32,num_2,1.16674679815,,,2017_Mar_21_1055,60.0224280996,FEMA4ImagesEEG,001,200076,
AFNE01.JPG,AFNE01.JPG,AFNE01.JPG,AFNE01.JPG,AFNE01.JPG,AFNE01.JPG,1,7,17,2,,,,,,,,,,,,,,,,,,,,,,,AFNE14.jpg,AFNE11.jpg,AFSA03.jpg,AFSA19.jpg,AFNE14.jpg,FN,3,num_8,32,num_2,1.43342806911,,,2017_Mar_21_1055,60.0224280996,FEMA4ImagesEEG,001,200076,
AFNE01.JPG,AFNE01.JPG,AFNE01.JPG,AFNE01.JPG,AFNE01.JPG,AFNE01.JPG,1,8,18,8,,,,,,,,,,,,,,,,,,,,,,,AFNE14.jpg,AFSA20.jpg,AFSA12.jpg,AFNE08.jpg,AFNE14.jpg,FN,3,num_8,16,num_8,0.950071091938,,,2017_Mar_21_1055,60.0224280996,FEMA4ImagesEEG,001,200076,
AFNE01.JPG,AFNE01.JPG,AFNE01.JPG,AFNE01.JPG,AFNE01.JPG,AFNE01.JPG,1,9,19,9,,,,,,,,,,,,,,,,,,,,,,,AFSA01.jpg,AFNE01.jpg,AFSA11.jpg,AFNE04.jpg,AFSA11.jpg,FS,4,num_2,16,num_2,0.833458475303,,,2017_Mar_21_1055,60.0224280996,FEMA4ImagesEEG,001,200076,
AFNE01.JPG,AFNE01.JPG,AFNE01.JPG,AFNE01.JPG,AFNE01.JPG,AFNE01.JPG,2,0,20,9,,,,,,,,,,,,,,,,,,,,,,,AFSA11.jpg,AFNE11.jpg,AFNE09.jpg,AFSA19.jpg,AFSA11.jpg,FS,4,num_8,32,num_6,0.500235262618,,,2017_Mar_21_1055,60.0224280996,FEMA4ImagesEEG,001,200076,
AFNE01.JPG,AFNE01.JPG,AFNE01.JPG,AFNE01.JPG,AFNE01.JPG,AFNE01.JPG,2,1,21,1,,,,,,,,,,,,,,,,,,,,,,,AFSA19.jpg,AFNE15.jpg,AFSA18.jpg,AFNE02.jpg,AFNE02.jpg,FN,3,num_4,32,num_2,1.25019653322,,,2017_Mar_21_1055,60.0224280996,FEMA4ImagesEEG,001,200076,
AFNE01.JPG,AFNE01.JPG,AFNE01.JPG,AFNE01.JPG,AFNE01.JPG,AFNE01.JPG,2,2,22,5,,,,,,,,,,,,,,,,,,,,,,,AFNE18.jpg,AFNE10.jpg,AFSA07.jpg,AFSA20.jpg,AFSA20.jpg,FS,4,num_4,32,num_8,1.11674572364,,,2017_Mar_21_1055,60.0224280996,FEMA4ImagesEEG,001,200076,
AFNE01.JPG,AFNE01.JPG,AFNE01.JPG,AFNE01.JPG,AFNE01.JPG,AFNE01.JPG,2,3,23,4,,,,,,,,,,,,,,,,,,,,,,,AFNE11.jpg,AFSA08.jpg,AFNE08.jpg,AFSA16.jpg,AFNE11.jpg,FN,3,num_8,32,num_6,0.550184056454,,,2017_Mar_21_1055,60.0224280996,FEMA4ImagesEEG,001,200076,
AFNE01.JPG,AFNE01.JPG,AFNE01.JPG,AFNE01.JPG,AFNE01.JPG,AFNE01.JPG,2,4,24,8,,,,,,,,,,,,,,,,,,,,,,,AFSA12.jpg,AFNE01.jpg,AFSA03.jpg,AFNE20.jpg,AFNE20.jpg,FN,3,num_4,32,num_6,0.950131391,,,2017_Mar_21_1055,60.0224280996,FEMA4ImagesEEG,001,200076,
AFNE01.JPG,AFNE01.JPG,AFNE01.JPG,AFNE01.JPG,AFNE01.JPG,AFNE01.JPG,2,5,25,2,,,,,,,,,,,,,,,,,,,,,,,AFNE11.jpg,AFSA14.jpg,AFNE06.jpg,AFSA07.jpg,AFNE06.jpg,FN,3,num_2,32,num_8,1.23346899555,,,2017_Mar_21_1055,60.0224280996,FEMA4ImagesEEG,001,200076,
AFNE01.JPG,AFNE01.JPG,AFNE01.JPG,AFNE01.JPG,AFNE01.JPG,AFNE01.JPG,2,6,26,0,,,,,,,,,,,,,,,,,,,,,,,AFSA02.jpg,AFSA03.jpg,AFNE10.jpg,AFNE04.jpg,AFSA03.jpg,FS,4,num_6,16,num_6,0.983420002507,,,2017_Mar_21_1055,60.0224280996,FEMA4ImagesEEG,001,200076,
AFNE01.JPG,AFNE01.JPG,AFNE01.JPG,AFNE01.JPG,AFNE01.JPG,AFNE01.JPG,2,7,27,6,,,,,,,,,,,,,,,,,,,,,,,AFSA14.jpg,AFNE13.jpg,AFNE18.jpg,AFSA11.jpg,AFNE13.jpg,FN,3,num_6,16,num_6,0.533462612773,,,2017_Mar_21_1055,60.0224280996,FEMA4ImagesEEG,001,200076,
AFNE01.JPG,AFNE01.JPG,AFNE01.JPG,AFNE01.JPG,AFNE01.JPG,AFNE01.JPG,2,8,28,3,,,,,,,,,,,,,,,,,,,,,,,AFNE18.jpg,AFSA12.jpg,AFNE02.jpg,AFSA02.jpg,AFNE02.jpg,FN,3,num_2,32,num_8,0.700153922953,,,2017_Mar_21_1055,60.0224280996,FEMA4ImagesEEG,001,200076,
AFNE01.JPG,AFNE01.JPG,AFNE01.JPG,AFNE01.JPG,AFNE01.JPG,AFNE01.JPG,2,9,29,7,,,,,,,,,,,,,,,,,,,,,,,AFSA01.jpg,AFNE14.jpg,AFSA05.jpg,AFNE12.jpg,AFNE14.jpg,FN,3,num_6,32,num_2,1.46676350868,,,2017_Mar_21_1055,60.0224280996,FEMA4ImagesEEG,001,200076,
AFNE01.JPG,AFNE01.JPG,AFNE01.JPG,AFNE01.JPG,AFNE01.JPG,AFNE01.JPG,3,0,30,8,,,,,,,,,,,,,,,,,,,,,,,AFNE15.jpg,AFSA15.jpg,AFNE19.jpg,AFSA02.jpg,AFSA02.jpg,FS,4,num_4,32,num_2,0.866783009667,,,2017_Mar_21_1055,60.0224280996,FEMA4ImagesEEG,001,200076,
AFNE01.JPG,AFNE01.JPG,AFNE01.JPG,AFNE01.JPG,AFNE01.JPG,AFNE01.JPG,3,1,31,5,,,,,,,,,,,,,,,,,,,,,,,AFSA06.jpg,AFNE11.jpg,AFSA13.jpg,AFNE18.jpg,AFSA06.jpg,FS,4,num_8,16,num_8,1.15008950239,,,2017_Mar_21_1055,60.0224280996,FEMA4ImagesEEG,001,200076,
AFNE01.JPG,AFNE01.JPG,AFNE01.JPG,AFNE01.JPG,AFNE01.JPG,AFNE01.JPG,3,2,32,0,,,,,,,,,,,,,,,,,,,,,,,AFSA14.jpg,AFNE11.jpg,AFNE16.jpg,AFSA19.jpg,AFNE11.jpg,FN,3,num_6,16,num_6,0.950165068673,,,2017_Mar_21_1055,60.0224280996,FEMA4ImagesEEG,001,200076,
AFNE01.JPG,AFNE01.JPG,AFNE01.JPG,AFNE01.JPG,AFNE01.JPG,AFNE01.JPG,3,3,33,4,,,,,,,,,,,,,,,,,,,,,,,AFSA05.jpg,AFSA20.jpg,AFNE04.jpg,AFNE15.jpg,AFNE04.jpg,FN,3,num_2,16,num_2,1.5167058878,,,2017_Mar_21_1055,60.0224280996,FEMA4ImagesEEG,001,200076,
AFNE01.JPG,AFNE01.JPG,AFNE01.JPG,AFNE01.JPG,AFNE01.JPG,AFNE01.JPG,3,4,34,3,,,,,,,,,,,,,,,,,,,,,,,AFSA01.jpg,AFSA07.jpg,AFNE18.jpg,AFNE16.jpg,AFNE18.jpg,FN,3,num_2,32,num_6,0.900137372839,,,2017_Mar_21_1055,60.0224280996,FEMA4ImagesEEG,001,200076,
AFNE01.JPG,AFNE01.JPG,AFNE01.JPG,AFNE01.JPG,AFNE01.JPG,AFNE01.JPG,3,5,35,7,,,,,,,,,,,,,,,,,,,,,,,AFNE11.jpg,AFNE08.jpg,AFSA15.jpg,AFSA01.jpg,AFSA01.jpg,FS,4,num_4,16,num_4,0.866747407534,,,2017_Mar_21_1055,60.0224280996,FEMA4ImagesEEG,001,200076,
AFNE01.JPG,AFNE01.JPG,AFNE01.JPG,AFNE01.JPG,AFNE01.JPG,AFNE01.JPG,3,6,36,1,,,,,,,,,,,,,,,,,,,,,,,AFSA14.jpg,AFSA03.jpg,AFNE10.jpg,AFNE01.jpg,AFSA03.jpg,FS,4,num_6,16,num_6,0.516814297764,,,2017_Mar_21_1055,60.0224280996,FEMA4ImagesEEG,001,200076,
AFNE01.JPG,AFNE01.JPG,AFNE01.JPG,AFNE01.JPG,AFNE01.JPG,AFNE01.JPG,3,7,37,2,,,,,,,,,,,,,,,,,,,,,,,AFNE04.jpg,AFNE17.jpg,AFSA06.jpg,AFSA07.jpg,AFSA07.jpg,FS,4,num_4,32,num_8,1.38342891913,,,2017_Mar_21_1055,60.0224280996,FEMA4ImagesEEG,001,200076,
AFNE01.JPG,AFNE01.JPG,AFNE01.JPG,AFNE01.JPG,AFNE01.JPG,AFNE01.JPG,3,8,38,6,,,,,,,,,,,,,,,,,,,,,,,AFNE18.jpg,AFSA14.jpg,AFSA07.jpg,AFNE11.jpg,AFSA14.jpg,FS,4,num_6,32,num_4,1.0667398381,,,2017_Mar_21_1055,60.0224280996,FEMA4ImagesEEG,001,200076,
AFNE01.JPG,AFNE01.JPG,AFNE01.JPG,AFNE01.JPG,AFNE01.JPG,AFNE01.JPG,3,9,39,9,,,,,,,,,,,,,,,,,,,,,,,AFNE16.jpg,AFSA03.jpg,AFNE14.jpg,AFSA07.jpg,AFNE14.jpg,FN,3,num_2,32,num_4,1.05006265646,,,2017_Mar_21_1055,60.0224280996,FEMA4ImagesEEG,001,200076,
AFNE01.JPG,AFNE01.JPG,AFNE01.JPG,AFNE01.JPG,AFNE01.JPG,AFNE01.JPG,4,0,40,0,,,,,,,,,,,,,,,,,,,,,,,AFNE08.jpg,AFNE05.jpg,AFSA03.jpg,AFSA04.jpg,AFSA04.jpg,FS,4,num_4,32,num_8,1.25026196416,,,2017_Mar_21_1055,60.0224280996,FEMA4ImagesEEG,001,200076,
AFNE01.JPG,AFNE01.JPG,AFNE01.JPG,AFNE01.JPG,AFNE01.JPG,AFNE01.JPG,4,1,41,8,,,,,,,,,,,,,,,,,,,,,,,AFNE14.jpg,AFNE20.jpg,AFSA14.jpg,AFSA13.jpg,AFNE14.jpg,FN,3,num_8,16,num_8,0.883460191253,,,2017_Mar_21_1055,60.0224280996,FEMA4ImagesEEG,001,200076,
AFNE01.JPG,AFNE01.JPG,AFNE01.JPG,AFNE01.JPG,AFNE01.JPG,AFNE01.JPG,4,2,42,3,,,,,,,,,,,,,,,,,,,,,,,AFNE11.jpg,AFNE13.jpg,AFSA18.jpg,AFSA15.jpg,AFNE11.jpg,FN,3,num_8,32,num_6,0.850111280626,,,2017_Mar_21_1055,60.0224280996,FEMA4ImagesEEG,001,200076,
AFNE01.JPG,AFNE01.JPG,AFNE01.JPG,AFNE01.JPG,AFNE01.JPG,AFNE01.JPG,4,3,43,7,,,,,,,,,,,,,,,,,,,,,,,AFNE18.jpg,AFSA04.jpg,AFNE04.jpg,AFSA07.jpg,AFNE18.jpg,FN,3,num_8,16,num_8,1.81670912728,,,2017_Mar_21_1055,60.0224280996,FEMA4ImagesEEG,001,200076,
AFNE01.JPG,AFNE01.JPG,AFNE01.JPG,AFNE01.JPG,AFNE01.JPG,AFNE01.JPG,4,4,44,6,,,,,,,,,,,,,,,,,,,,,,,AFSA19.jpg,AFNE15.jpg,AFNE20.jpg,AFSA08.jpg,AFNE15.jpg,FN,3,num_6,16,num_6,0.949950493872,,,2017_Mar_21_1055,60.0224280996,FEMA4ImagesEEG,001,200076,
AFNE01.JPG,AFNE01.JPG,AFNE01.JPG,AFNE01.JPG,AFNE01.JPG,AFNE01.JPG,4,5,45,2,,,,,,,,,,,,,,,,,,,,,,,AFNE11.jpg,AFNE15.jpg,AFSA11.jpg,AFSA06.jpg,AFSA11.jpg,FS,4,num_2,16,num_2,1.63341953751,,,2017_Mar_21_1055,60.0224280996,FEMA4ImagesEEG,001,200076,
AFNE01.JPG,AFNE01.JPG,AFNE01.JPG,AFNE01.JPG,AFNE01.JPG,AFNE01.JPG,4,6,46,5,,,,,,,,,,,,,,,,,,,,,,,AFSA15.jpg,AFSA03.jpg,AFNE14.jpg,AFNE16.jpg,AFNE16.jpg,FN,3,num_4,16,num_4,0.800116620958,,,2017_Mar_21_1055,60.0224280996,FEMA4ImagesEEG,001,200076,
AFNE01.JPG,AFNE01.JPG,AFNE01.JPG,AFNE01.JPG,AFNE01.JPG,AFNE01.JPG,4,7,47,1,,,,,,,,,,,,,,,,,,,,,,,AFNE14.jpg,AFNE04.jpg,AFSA08.jpg,AFSA04.jpg,AFSA08.jpg,FS,4,num_2,32,num_8,1.13344952662,,,2017_Mar_21_1055,60.0224280996,FEMA4ImagesEEG,001,200076,
AFNE01.JPG,AFNE01.JPG,AFNE01.JPG,AFNE01.JPG,AFNE01.JPG,AFNE01.JPG,4,8,48,9,,,,,,,,,,,,,,,,,,,,,,,AFSA07.jpg,AFNE07.jpg,AFSA11.jpg,AFNE12.jpg,AFSA07.jpg,FS,4,num_8,16,num_8,0.700138206768,,,2017_Mar_21_1055,60.0224280996,FEMA4ImagesEEG,001,200076,
AFNE01.JPG,AFNE01.JPG,AFNE01.JPG,AFNE01.JPG,AFNE01.JPG,AFNE01.JPG,4,9,49,4,,,,,,,,,,,,,,,,,,,,,,,AFSA18.jpg,AFNE04.jpg,AFNE10.jpg,AFSA13.jpg,AFSA18.jpg,FS,4,num_8,16,num_8,2.73331295565,,,2017_Mar_21_1055,60.0224280996,FEMA4ImagesEEG,001,200076,
AFNE01.JPG,AFNE01.JPG,AFNE01.JPG,AFNE01.JPG,AFNE01.JPG,AFNE01.JPG,5,0,50,6,,,,,,,,,,,,,,,,,,,,,,,AFSA19.jpg,AFNE04.jpg,AFSA15.jpg,AFNE14.jpg,AFNE14.jpg,FN,3,num_4,32,num_6,0.650157338881,,,2017_Mar_21_1055,60.0224280996,FEMA4ImagesEEG,001,200076,
AFNE01.JPG,AFNE01.JPG,AFNE01.JPG,AFNE01.JPG,AFNE01.JPG,AFNE01.JPG,5,1,51,4,,,,,,,,,,,,,,,,,,,,,,,AFSA06.jpg,AFSA19.jpg,AFNE12.jpg,AFNE13.jpg,AFSA19.jpg,FS,4,num_6,32,num_4,1.05011076748,,,2017_Mar_21_1055,60.0224280996,FEMA4ImagesEEG,001,200076,
AFNE01.JPG,AFNE01.JPG,AFNE01.JPG,AFNE01.JPG,AFNE01.JPG,AFNE01.JPG,5,2,52,9,,,,,,,,,,,,,,,,,,,,,,,AFSA10.jpg,AFSA11.jpg,AFNE17.jpg,AFNE16.jpg,AFNE16.jpg,FN,3,num_4,16,num_4,2.00004714873,,,2017_Mar_21_1055,60.0224280996,FEMA4ImagesEEG,001,200076,
AFNE01.JPG,AFNE01.JPG,AFNE01.JPG,AFNE01.JPG,AFNE01.JPG,AFNE01.JPG,5,3,53,5,,,,,,,,,,,,,,,,,,,,,,,AFNE14.jpg,AFSA11.jpg,AFNE01.jpg,AFSA16.jpg,AFNE01.jpg,FN,3,num_2,32,num_4,1.98335553386,,,2017_Mar_21_1055,60.0224280996,FEMA4ImagesEEG,001,200076,
AFNE01.JPG,AFNE01.JPG,AFNE01.JPG,AFNE01.JPG,AFNE01.JPG,AFNE01.JPG,5,4,54,1,,,,,,,,,,,,,,,,,,,,,,,AFSA02.jpg,AFSA03.jpg,AFNE09.jpg,AFNE05.jpg,AFSA03.jpg,FS,4,num_6,16,num_6,0.666754335514,,,2017_Mar_21_1055,60.0224280996,FEMA4ImagesEEG,001,200076,
AFNE01.JPG,AFNE01.JPG,AFNE01.JPG,AFNE01.JPG,AFNE01.JPG,AFNE01.JPG,5,5,55,7,,,,,,,,,,,,,,,,,,,,,,,AFNE04.jpg,AFNE10.jpg,AFSA01.jpg,AFSA20.jpg,AFSA20.jpg,FS,4,num_4,32,num_2,1.38344623911,,,2017_Mar_21_1055,60.0224280996,FEMA4ImagesEEG,001,200076,
AFNE01.JPG,AFNE01.JPG,AFNE01.JPG,AFNE01.JPG,AFNE01.JPG,AFNE01.JPG,5,6,56,0,,,,,,,,,,,,,,,,,,,,,,,AFSA18.jpg,AFSA03.jpg,AFNE01.jpg,AFNE06.jpg,AFNE01.jpg,FN,3,num_2,32,num_6,0.983278877102,,,2017_Mar_21_1055,60.0224280996,FEMA4ImagesEEG,001,200076,
AFNE01.JPG,AFNE01.JPG,AFNE01.JPG,AFNE01.JPG,AFNE01.JPG,AFNE01.JPG,5,7,57,8,,,,,,,,,,,,,,,,,,,,,,,AFSA11.jpg,AFSA06.jpg,AFNE07.jpg,AFNE11.jpg,AFSA06.jpg,FS,4,num_6,32,num_8,0.950151597615,,,2017_Mar_21_1055,60.0224280996,FEMA4ImagesEEG,001,200076,
AFNE01.JPG,AFNE01.JPG,AFNE01.JPG,AFNE01.JPG,AFNE01.JPG,AFNE01.JPG,5,8,58,2,,,,,,,,,,,,,,,,,,,,,,,AFSA14.jpg,AFNE01.jpg,AFSA10.jpg,AFNE09.jpg,AFSA14.jpg,FS,4,num_8,32,num_2,1.5667136978,,,2017_Mar_21_1055,60.0224280996,FEMA4ImagesEEG,001,200076,
AFNE01.JPG,AFNE01.JPG,AFNE01.JPG,AFNE01.JPG,AFNE01.JPG,AFNE01.JPG,5,9,59,3,,,,,,,,,,,,,,,,,,,,,,,AFSA20.jpg,AFNE16.jpg,AFNE11.jpg,AFSA01.jpg,AFNE16.jpg,FN,3,num_6,32,num_8,0.91653326567,,,2017_Mar_21_1055,60.0224280996,FEMA4ImagesEEG,001,200076,
,,,,,,,,,,,,,,,,,,,,,,,,,,,,,,,,,,,,,,,,,,,space,29.9981865377,2017_Mar_21_1055,60.0224280996,FEMA4ImagesEEG,001,200076,
AFNE01.JPG,AFNE01.JPG,AFNE01.JPG,AFNE01.JPG,AFNE01.JPG,AFNE01.JPG,,,,,0,0,0,4,,,,,,,,,,,,,,,,,,,AMSA11.jpg,AMNE15.jpg,AMSA05.jpg,AMNE07.jpg,AMNE15.jpg,MN,1,num_6,32,num_4,1.20008929394,,,2017_Mar_21_1055,60.0224280996,FEMA4ImagesEEG,001,200076,
AFNE01.JPG,AFNE01.JPG,AFNE01.JPG,AFNE01.JPG,AFNE01.JPG,AFNE01.JPG,,,,,0,1,1,0,,,,,,,,,,,,,,,,,,,AMSA02.jpg,AMSA12.jpg,AMNE10.jpg,AMNE08.jpg,AMSA02.jpg,MS,2,num_8,32,num_6,1.71668228135,,,2017_Mar_21_1055,60.0224280996,FEMA4ImagesEEG,001,200076,
AFNE01.JPG,AFNE01.JPG,AFNE01.JPG,AFNE01.JPG,AFNE01.JPG,AFNE01.JPG,,,,,0,2,2,1,,,,,,,,,,,,,,,,,,,AMNE16.jpg,AMNE03.jpg,AMSA09.jpg,AMSA05.jpg,AMSA05.jpg,MS,2,num_4,16,num_4,0.983493772685,,,2017_Mar_21_1055,60.0224280996,FEMA4ImagesEEG,001,200076,
AFNE01.JPG,AFNE01.JPG,AFNE01.JPG,AFNE01.JPG,AFNE01.JPG,AFNE01.JPG,,,,,0,3,3,3,,,,,,,,,,,,,,,,,,,AMNE07.jpg,AMSA01.jpg,AMSA08.jpg,AMNE06.jpg,AMSA01.jpg,MS,2,num_6,16,num_6,0.916771896067,,,2017_Mar_21_1055,60.0224280996,FEMA4ImagesEEG,001,200076,
AFNE01.JPG,AFNE01.JPG,AFNE01.JPG,AFNE01.JPG,AFNE01.JPG,AFNE01.JPG,,,,,0,4,4,8,,,,,,,,,,,,,,,,,,,AMSA20.jpg,AMNE18.jpg,AMSA16.jpg,AMNE15.jpg,AMSA16.jpg,MS,2,num_2,32,num_4,0.950108297751,,,2017_Mar_21_1055,60.0224280996,FEMA4ImagesEEG,001,200076,
AFNE01.JPG,AFNE01.JPG,AFNE01.JPG,AFNE01.JPG,AFNE01.JPG,AFNE01.JPG,,,,,0,5,5,6,,,,,,,,,,,,,,,,,,,AMSA04.jpg,AMSA10.jpg,AMNE13.jpg,AMNE15.jpg,AMNE13.jpg,MN,1,num_2,16,num_2,2.63333486224,,,2017_Mar_21_1055,60.0224280996,FEMA4ImagesEEG,001,200076,
AFNE01.JPG,AFNE01.JPG,AFNE01.JPG,AFNE01.JPG,AFNE01.JPG,AFNE01.JPG,,,,,0,6,6,9,,,,,,,,,,,,,,,,,,,AMNE14.jpg,AMSA08.jpg,AMSA14.jpg,AMNE03.jpg,AMSA08.jpg,MS,2,num_6,32,num_4,1.95004479133,,,2017_Mar_21_1055,60.0224280996,FEMA4ImagesEEG,001,200076,
AFNE01.JPG,AFNE01.JPG,AFNE01.JPG,AFNE01.JPG,AFNE01.JPG,AFNE01.JPG,,,,,0,7,7,2,,,,,,,,,,,,,,,,,,,AMSA02.jpg,AMNE12.jpg,AMNE20.jpg,AMSA01.jpg,AMSA01.jpg,MS,2,num_4,16,num_4,0.983440209122,,,2017_Mar_21_1055,60.0224280996,FEMA4ImagesEEG,001,200076,
AFNE01.JPG,AFNE01.JPG,AFNE01.JPG,AFNE01.JPG,AFNE01.JPG,AFNE01.JPG,,,,,0,8,8,7,,,,,,,,,,,,,,,,,,,AMNE16.jpg,AMNE15.jpg,AMSA11.jpg,AMSA18.jpg,AMNE15.jpg,MN,1,num_6,32,num_2,1.4501161559,,,2017_Mar_21_1055,60.0224280996,FEMA4ImagesEEG,001,200076,
AFNE01.JPG,AFNE01.JPG,AFNE01.JPG,AFNE01.JPG,AFNE01.JPG,AFNE01.JPG,,,,,0,9,9,5,,,,,,,,,,,,,,,,,,,AMNE19.jpg,AMSA07.jpg,AMSA15.jpg,AMNE01.jpg,AMNE19.jpg,MN,1,num_8,16,num_8,1.4500080666,,,2017_Mar_21_1055,60.0224280996,FEMA4ImagesEEG,001,200076,
AFNE01.JPG,AFNE01.JPG,AFNE01.JPG,AFNE01.JPG,AFNE01.JPG,AFNE01.JPG,,,,,1,0,10,1,,,,,,,,,,,,,,,,,,,AMNE16.jpg,AMNE09.jpg,AMSA17.jpg,AMSA06.jpg,AMNE09.jpg,MN,1,num_6,32,num_8,1.03342749178,,,2017_Mar_21_1055,60.0224280996,FEMA4ImagesEEG,001,200076,
AFNE01.JPG,AFNE01.JPG,AFNE01.JPG,AFNE01.JPG,AFNE01.JPG,AFNE01.JPG,,,,,1,1,11,0,,,,,,,,,,,,,,,,,,,AMSA06.jpg,AMNE11.jpg,AMNE03.jpg,AMSA04.jpg,AMSA06.jpg,MS,2,num_8,32,num_6,0.80010218767,,,2017_Mar_21_1055,60.0224280996,FEMA4ImagesEEG,001,200076,
AFNE01.JPG,AFNE01.JPG,AFNE01.JPG,AFNE01.JPG,AFNE01.JPG,AFNE01.JPG,,,,,1,2,12,4,,,,,,,,,,,,,,,,,,,AMSA11.jpg,AMNE12.jpg,AMNE10.jpg,AMSA15.jpg,AMNE10.jpg,MN,1,num_2,16,num_2,1.20011238719,,,2017_Mar_21_1055,60.0224280996,FEMA4ImagesEEG,001,200076,
AFNE01.JPG,AFNE01.JPG,AFNE01.JPG,AFNE01.JPG,AFNE01.JPG,AFNE01.JPG,,,,,1,3,13,5,,,,,,,,,,,,,,,,,,,AMNE04.jpg,AMNE07.jpg,AMSA17.jpg,AMSA15.jpg,AMNE04.jpg,MN,1,num_8,32,num_2,1.43295754399,,,2017_Mar_21_1055,60.0224280996,FEMA4ImagesEEG,001,200076,
AFNE01.JPG,AFNE01.JPG,AFNE01.JPG,AFNE01.JPG,AFNE01.JPG,AFNE01.JPG,,,,,1,4,14,6,,,,,,,,,,,,,,,,,,,AMNE20.jpg,AMSA20.jpg,AMNE08.jpg,AMSA07.jpg,AMNE08.jpg,MN,1,num_2,16,num_2,0.81677455816,,,2017_Mar_21_1055,60.0224280996,FEMA4ImagesEEG,001,200076,
AFNE01.JPG,AFNE01.JPG,AFNE01.JPG,AFNE01.JPG,AFNE01.JPG,AFNE01.JPG,,,,,1,5,15,7,,,,,,,,,,,,,,,,,,,AMNE19.jpg,AMNE11.jpg,AMSA17.jpg,AMSA15.jpg,AMNE11.jpg,MN,1,num_6,32,num_4,1.46670224739,,,2017_Mar_21_1055,60.0224280996,FEMA4ImagesEEG,001,200076,
AFNE01.JPG,AFNE01.JPG,AFNE01.JPG,AFNE01.JPG,AFNE01.JPG,AFNE01.JPG,,,,,1,6,16,9,,,,,,,,,,,,,,,,,,,AMNE11.jpg,AMSA12.jpg,AMNE16.jpg,AMSA02.jpg,AMSA12.jpg,MS,2,num_6,16,num_6,0.733328351169,,,2017_Mar_21_1055,60.0224280996,FEMA4ImagesEEG,001,200076,
AFNE01.JPG,AFNE01.JPG,AFNE01.JPG,AFNE01.JPG,AFNE01.JPG,AFNE01.JPG,,,,,1,7,17,2,,,,,,,,,,,,,,,,,,,AMSA15.jpg,AMNE11.jpg,AMNE05.jpg,AMSA08.jpg,AMSA08.jpg,MS,2,num_4,16,num_4,1.21675557038,,,2017_Mar_21_1055,60.0224280996,FEMA4ImagesEEG,001,200076,
AFNE01.JPG,AFNE01.JPG,AFNE01.JPG,AFNE01.JPG,AFNE01.JPG,AFNE01.JPG,,,,,1,8,18,8,,,,,,,,,,,,,,,,,,,AMSA19.jpg,AMNE17.jpg,AMNE03.jpg,AMSA05.jpg,AMNE17.jpg,MN,1,num_6,16,num_6,0.633433329233,,,2017_Mar_21_1055,60.0224280996,FEMA4ImagesEEG,001,200076,
AFNE01.JPG,AFNE01.JPG,AFNE01.JPG,AFNE01.JPG,AFNE01.JPG,AFNE01.JPG,,,,,1,9,19,3,,,,,,,,,,,,,,,,,,,AMSA20.jpg,AMNE12.jpg,AMSA08.jpg,AMNE05.jpg,AMNE05.jpg,MN,1,num_4,32,num_6,1.03344930214,,,2017_Mar_21_1055,60.0224280996,FEMA4ImagesEEG,001,200076,
AFNE01.JPG,AFNE01.JPG,AFNE01.JPG,AFNE01.JPG,AFNE01.JPG,AFNE01.JPG,,,,,2,0,20,9,,,,,,,,,,,,,,,,,,,AMNE09.jpg,AMNE04.jpg,AMSA09.jpg,AMSA03.jpg,AMSA09.jpg,MS,2,num_2,32,num_8,0.800115979509,,,2017_Mar_21_1055,60.0224280996,FEMA4ImagesEEG,001,200076,
AFNE01.JPG,AFNE01.JPG,AFNE01.JPG,AFNE01.JPG,AFNE01.JPG,AFNE01.JPG,,,,,2,1,21,6,,,,,,,,,,,,,,,,,,,AMSA17.jpg,AMNE09.jpg,AMNE14.jpg,AMSA02.jpg,AMNE14.jpg,MN,1,num_2,16,num_2,0.966788045247,,,2017_Mar_21_1055,60.0224280996,FEMA4ImagesEEG,001,200076,
AFNE01.JPG,AFNE01.JPG,AFNE01.JPG,AFNE01.JPG,AFNE01.JPG,AFNE01.JPG,,,,,2,2,22,0,,,,,,,,,,,,,,,,,,,AMNE17.jpg,AMSA10.jpg,AMSA16.jpg,AMNE15.jpg,AMSA10.jpg,MS,2,num_6,32,num_4,1.45001544361,,,2017_Mar_21_1055,60.0224280996,FEMA4ImagesEEG,001,200076,
AFNE01.JPG,AFNE01.JPG,AFNE01.JPG,AFNE01.JPG,AFNE01.JPG,AFNE01.JPG,,,,,2,3,23,2,,,,,,,,,,,,,,,,,,,AMSA17.jpg,AMNE08.jpg,AMNE01.jpg,AMSA18.jpg,AMSA18.jpg,MS,2,num_4,32,num_6,1.0334823383,,,2017_Mar_21_1055,60.0224280996,FEMA4ImagesEEG,001,200076,
AFNE01.JPG,AFNE01.JPG,AFNE01.JPG,AFNE01.JPG,AFNE01.JPG,AFNE01.JPG,,,,,2,4,24,5,,,,,,,,,,,,,,,,,,,AMNE07.jpg,AMNE03.jpg,AMSA06.jpg,AMSA16.jpg,AMSA16.jpg,MS,2,num_4,32,num_6,1.76638218126,,,2017_Mar_21_1055,60.0224280996,FEMA4ImagesEEG,001,200076,
AFNE01.JPG,AFNE01.JPG,AFNE01.JPG,AFNE01.JPG,AFNE01.JPG,AFNE01.JPG,,,,,2,5,25,4,,,,,,,,,,,,,,,,,,,AMNE13.jpg,AMNE06.jpg,AMSA17.jpg,AMSA12.jpg,AMSA17.jpg,MS,2,num_2,16,num_2,0.550180207647,,,2017_Mar_21_1055,60.0224280996,FEMA4ImagesEEG,001,200076,
AFNE01.JPG,AFNE01.JPG,AFNE01.JPG,AFNE01.JPG,AFNE01.JPG,AFNE01.JPG,,,,,2,6,26,8,,,,,,,,,,,,,,,,,,,AMNE15.jpg,AMSA14.jpg,AMNE09.jpg,AMSA16.jpg,AMSA14.jpg,MS,2,num_6,16,num_6,1.06675876171,,,2017_Mar_21_1055,60.0224280996,FEMA4ImagesEEG,001,200076,
AFNE01.JPG,AFNE01.JPG,AFNE01.JPG,AFNE01.JPG,AFNE01.JPG,AFNE01.JPG,,,,,2,7,27,3,,,,,,,,,,,,,,,,,,,AMSA20.jpg,AMSA06.jpg,AMNE01.jpg,AMNE09.jpg,AMNE01.jpg,MN,1,num_2,32,num_8,1.20033786719,,,2017_Mar_21_1055,60.0224280996,FEMA4ImagesEEG,001,200076,
AFNE01.JPG,AFNE01.JPG,AFNE01.JPG,AFNE01.JPG,AFNE01.JPG,AFNE01.JPG,,,,,2,8,28,1,,,,,,,,,,,,,,,,,,,AMNE01.jpg,AMSA20.jpg,AMNE19.jpg,AMSA15.jpg,AMNE19.jpg,MN,1,num_2,16,num_2,2.11664180399,,,2017_Mar_21_1055,60.0224280996,FEMA4ImagesEEG,001,200076,
AFNE01.JPG,AFNE01.JPG,AFNE01.JPG,AFNE01.JPG,AFNE01.JPG,AFNE01.JPG,,,,,2,9,29,7,,,,,,,,,,,,,,,,,,,AMNE03.jpg,AMSA12.jpg,AMSA16.jpg,AMNE14.jpg,AMNE14.jpg,MN,1,num_4,16,num_4,0.566793561971,,,2017_Mar_21_1055,60.0224280996,FEMA4ImagesEEG,001,200076,
AFNE01.JPG,AFNE01.JPG,AFNE01.JPG,AFNE01.JPG,AFNE01.JPG,AFNE01.JPG,,,,,3,0,30,3,,,,,,,,,,,,,,,,,,,AMNE20.jpg,AMSA09.jpg,AMSA03.jpg,AMNE04.jpg,AMNE04.jpg,MN,1,num_4,32,num_8,2.31672821124,,,2017_Mar_21_1055,60.0224280996,FEMA4ImagesEEG,001,200076,
AFNE01.JPG,AFNE01.JPG,AFNE01.JPG,AFNE01.JPG,AFNE01.JPG,AFNE01.JPG,,,,,3,1,31,5,,,,,,,,,,,,,,,,,,,AMSA12.jpg,AMNE11.jpg,AMNE12.jpg,AMSA15.jpg,AMSA12.jpg,MS,2,num_8,32,num_6,0.766845650098,,,2017_Mar_21_1055,60.0224280996,FEMA4ImagesEEG,001,200076,
AFNE01.JPG,AFNE01.JPG,AFNE01.JPG,AFNE01.JPG,AFNE01.JPG,AFNE01.JPG,,,,,3,2,32,1,,,,,,,,,,,,,,,,,,,AMNE05.jpg,AMSA05.jpg,AMSA06.jpg,AMNE12.jpg,AMSA05.jpg,MS,2,num_6,32,num_2,1.55010387156,,,2017_Mar_21_1055,60.0224280996,FEMA4ImagesEEG,001,200076,
AFNE01.JPG,AFNE01.JPG,AFNE01.JPG,AFNE01.JPG,AFNE01.JPG,AFNE01.JPG,,,,,3,3,33,0,,,,,,,,,,,,,,,,,,,AMSA04.jpg,AMNE04.jpg,AMNE05.jpg,AMSA16.jpg,AMNE05.jpg,MN,1,num_2,32,num_6,1.43353487545,,,2017_Mar_21_1055,60.0224280996,FEMA4ImagesEEG,001,200076,
AFNE01.JPG,AFNE01.JPG,AFNE01.JPG,AFNE01.JPG,AFNE01.JPG,AFNE01.JPG,,,,,3,4,34,6,,,,,,,,,,,,,,,,,,,AMNE19.jpg,AMSA05.jpg,AMSA02.jpg,AMNE05.jpg,AMNE05.jpg,MN,1,num_4,32,num_8,1.41683524213,,,2017_Mar_21_1055,60.0224280996,FEMA4ImagesEEG,001,200076,
AFNE01.JPG,AFNE01.JPG,AFNE01.JPG,AFNE01.JPG,AFNE01.JPG,AFNE01.JPG,,,,,3,5,35,2,,,,,,,,,,,,,,,,,,,AMNE09.jpg,AMSA11.jpg,AMNE08.jpg,AMSA18.jpg,AMSA18.jpg,MS,2,num_4,16,num_4,0.950016886927,,,2017_Mar_21_1055,60.0224280996,FEMA4ImagesEEG,001,200076,
AFNE01.JPG,AFNE01.JPG,AFNE01.JPG,AFNE01.JPG,AFNE01.JPG,AFNE01.JPG,,,,,3,6,36,7,,,,,,,,,,,,,,,,,,,AMNE01.jpg,AMSA15.jpg,AMNE06.jpg,AMSA19.jpg,AMSA19.jpg,MS,2,num_4,16,num_4,0.583495761268,,,2017_Mar_21_1055,60.0224280996,FEMA4ImagesEEG,001,200076,
AFNE01.JPG,AFNE01.JPG,AFNE01.JPG,AFNE01.JPG,AFNE01.JPG,AFNE01.JPG,,,,,3,7,37,4,,,,,,,,,,,,,,,,,,,AMNE14.jpg,AMSA06.jpg,AMNE16.jpg,AMSA14.jpg,AMNE16.jpg,MN,1,num_2,16,num_2,1.08341509523,,,2017_Mar_21_1055,60.0224280996,FEMA4ImagesEEG,001,200076,
AFNE01.JPG,AFNE01.JPG,AFNE01.JPG,AFNE01.JPG,AFNE01.JPG,AFNE01.JPG,,,,,3,8,38,9,,,,,,,,,,,,,,,,,,,AMNE19.jpg,AMSA02.jpg,AMSA16.jpg,AMNE14.jpg,AMSA16.jpg,MS,2,num_2,32,num_8,1.56673101778,,,2017_Mar_21_1055,60.0224280996,FEMA4ImagesEEG,001,200076,
AFNE01.JPG,AFNE01.JPG,AFNE01.JPG,AFNE01.JPG,AFNE01.JPG,AFNE01.JPG,,,,,3,9,39,8,,,,,,,,,,,,,,,,,,,AMNE12.jpg,AMSA01.jpg,AMSA05.jpg,AMNE11.jpg,AMSA01.jpg,MS,2,num_6,16,num_6,0.633526985301,,,2017_Mar_21_1055,60.0224280996,FEMA4ImagesEEG,001,200076,
AFNE01.JPG,AFNE01.JPG,AFNE01.JPG,AFNE01.JPG,AFNE01.JPG,AFNE01.JPG,,,,,4,0,40,8,,,,,,,,,,,,,,,,,,,AMSA07.jpg,AMNE07.jpg,AMNE20.jpg,AMSA08.jpg,AMNE07.jpg,MN,1,num_6,32,num_8,1.25010576396,,,2017_Mar_21_1055,60.0224280996,FEMA4ImagesEEG,001,200076,
AFNE01.JPG,AFNE01.JPG,AFNE01.JPG,AFNE01.JPG,AFNE01.JPG,AFNE01.JPG,,,,,4,1,41,1,,,,,,,,,,,,,,,,,,,AMSA07.jpg,AMNE15.jpg,AMSA11.jpg,AMNE14.jpg,AMSA11.jpg,MS,2,num_2,32,num_6,1.45011134481,,,2017_Mar_21_1055,60.0224280996,FEMA4ImagesEEG,001,200076,
AFNE01.JPG,AFNE01.JPG,AFNE01.JPG,AFNE01.JPG,AFNE01.JPG,AFNE01.JPG,,,,,4,2,42,9,,,,,,,,,,,,,,,,,,,AMSA17.jpg,AMSA19.jpg,AMNE02.jpg,AMNE18.jpg,AMNE02.jpg,MN,1,num_2,32,num_8,0.783419874264,,,2017_Mar_21_1055,60.0224280996,FEMA4ImagesEEG,001,200076,
AFNE01.JPG,AFNE01.JPG,AFNE01.JPG,AFNE01.JPG,AFNE01.JPG,AFNE01.JPG,,,,,4,3,43,4,,,,,,,,,,,,,,,,,,,AMSA09.jpg,AMNE16.jpg,AMNE12.jpg,AMSA03.jpg,AMSA03.jpg,MS,2,num_4,32,num_2,1.06672027294,,,2017_Mar_21_1055,60.0224280996,FEMA4ImagesEEG,001,200076,
AFNE01.JPG,AFNE01.JPG,AFNE01.JPG,AFNE01.JPG,AFNE01.JPG,AFNE01.JPG,,,,,4,4,44,7,,,,,,,,,,,,,,,,,,,AMSA19.jpg,AMNE15.jpg,AMNE20.jpg,AMSA17.jpg,AMNE20.jpg,MN,1,num_2,32,num_8,1.06679179793,,,2017_Mar_21_1055,60.0224280996,FEMA4ImagesEEG,001,200076,
AFNE01.JPG,AFNE01.JPG,AFNE01.JPG,AFNE01.JPG,AFNE01.JPG,AFNE01.JPG,,,,,4,5,45,6,,,,,,,,,,,,,,,,,,,AMNE08.jpg,AMSA10.jpg,AMNE05.jpg,AMSA01.jpg,AMSA01.jpg,MS,2,num_4,16,num_4,0.400140099111,,,2017_Mar_21_1055,60.0224280996,FEMA4ImagesEEG,001,200076,
AFNE01.JPG,AFNE01.JPG,AFNE01.JPG,AFNE01.JPG,AFNE01.JPG,AFNE01.JPG,,,,,4,6,46,0,,,,,,,,,,,,,,,,,,,AMNE08.jpg,AMSA19.jpg,AMSA01.jpg,AMNE15.jpg,AMNE08.jpg,MN,1,num_8,16,num_8,1.56676277099,,,2017_Mar_21_1055,60.0224280996,FEMA4ImagesEEG,001,200076,
AFNE01.JPG,AFNE01.JPG,AFNE01.JPG,AFNE01.JPG,AFNE01.JPG,AFNE01.JPG,,,,,4,7,47,3,,,,,,,,,,,,,,,,,,,AMSA20.jpg,AMSA04.jpg,AMNE13.jpg,AMNE04.jpg,AMNE13.jpg,MN,1,num_2,32,num_8,0.933466718241,,,2017_Mar_21_1055,60.0224280996,FEMA4ImagesEEG,001,200076,
AFNE01.JPG,AFNE01.JPG,AFNE01.JPG,AFNE01.JPG,AFNE01.JPG,AFNE01.JPG,,,,,4,8,48,5,,,,,,,,,,,,,,,,,,,AMSA02.jpg,AMNE13.jpg,AMNE05.jpg,AMSA12.jpg,AMSA02.jpg,MS,2,num_8,32,num_6,1.43339888181,,,2017_Mar_21_1055,60.0224280996,FEMA4ImagesEEG,001,200076,
AFNE01.JPG,AFNE01.JPG,AFNE01.JPG,AFNE01.JPG,AFNE01.JPG,AFNE01.JPG,,,,,4,9,49,2,,,,,,,,,,,,,,,,,,,AMSA19.jpg,AMNE13.jpg,AMNE09.jpg,AMSA13.jpg,AMNE09.jpg,MN,1,num_2,32,num_6,0.950129787321,,,2017_Mar_21_1055,60.0224280996,FEMA4ImagesEEG,001,200076,
AFNE01.JPG,AFNE01.JPG,AFNE01.JPG,AFNE01.JPG,AFNE01.JPG,AFNE01.JPG,,,,,5,0,50,8,,,,,,,,,,,,,,,,,,,AMSA12.jpg,AMNE14.jpg,AMNE13.jpg,AMSA13.jpg,AMSA12.jpg,MS,2,num_8,16,num_8,1.0167265755,,,2017_Mar_21_1055,60.0224280996,FEMA4ImagesEEG,001,200076,
AFNE01.JPG,AFNE01.JPG,AFNE01.JPG,AFNE01.JPG,AFNE01.JPG,AFNE01.JPG,,,,,5,1,51,9,,,,,,,,,,,,,,,,,,,AMNE15.jpg,AMNE01.jpg,AMSA17.jpg,AMSA13.jpg,AMNE01.jpg,MN,1,num_6,32,num_4,0.966782592703,,,2017_Mar_21_1055,60.0224280996,FEMA4ImagesEEG,001,200076,
AFNE01.JPG,AFNE01.JPG,AFNE01.JPG,AFNE01.JPG,AFNE01.JPG,AFNE01.JPG,,,,,5,2,52,1,,,,,,,,,,,,,,,,,,,AMNE08.jpg,AMSA02.jpg,AMNE01.jpg,AMSA01.jpg,AMSA01.jpg,MS,2,num_4,32,num_6,0.933462548652,,,2017_Mar_21_1055,60.0224280996,FEMA4ImagesEEG,001,200076,
AFNE01.JPG,AFNE01.JPG,AFNE01.JPG,AFNE01.JPG,AFNE01.JPG,AFNE01.JPG,,,,,5,3,53,3,,,,,,,,,,,,,,,,,,,AMNE12.jpg,AMSA10.jpg,AMNE03.jpg,AMSA05.jpg,AMSA10.jpg,MS,2,num_6,32,num_4,0.866625526454,,,2017_Mar_21_1055,60.0224280996,FEMA4ImagesEEG,001,200076,
AFNE01.JPG,AFNE01.JPG,AFNE01.JPG,AFNE01.JPG,AFNE01.JPG,AFNE01.JPG,,,,,5,4,54,0,,,,,,,,,,,,,,,,,,,AMSA20.jpg,AMNE03.jpg,AMSA07.jpg,AMNE20.jpg,AMNE20.jpg,MN,1,num_4,32,num_6,1.13344150817,,,2017_Mar_21_1055,60.0224280996,FEMA4ImagesEEG,001,200076,
AFNE01.JPG,AFNE01.JPG,AFNE01.JPG,AFNE01.JPG,AFNE01.JPG,AFNE01.JPG,,,,,5,5,55,2,,,,,,,,,,,,,,,,,,,AMNE01.jpg,AMSA02.jpg,AMNE10.jpg,AMSA18.jpg,AMSA18.jpg,MS,2,num_4,32,num_8,1.81659654761,,,2017_Mar_21_1055,60.0224280996,FEMA4ImagesEEG,001,200076,
AFNE01.JPG,AFNE01.JPG,AFNE01.JPG,AFNE01.JPG,AFNE01.JPG,AFNE01.JPG,,,,,5,6,56,7,,,,,,,,,,,,,,,,,,,AMSA20.jpg,AMNE01.jpg,AMNE11.jpg,AMSA13.jpg,AMSA20.jpg,MS,2,num_8,16,num_8,1.63313311688,,,2017_Mar_21_1055,60.0224280996,FEMA4ImagesEEG,001,200076,
AFNE01.JPG,AFNE01.JPG,AFNE01.JPG,AFNE01.JPG,AFNE01.JPG,AFNE01.JPG,,,,,5,7,57,5,,,,,,,,,,,,,,,,,,,AMNE05.jpg,AMNE16.jpg,AMSA17.jpg,AMSA03.jpg,AMSA03.jpg,MS,2,num_4,32,num_6,0.716886592563,,,2017_Mar_21_1055,60.0224280996,FEMA4ImagesEEG,001,200076,
AFNE01.JPG,AFNE01.JPG,AFNE01.JPG,AFNE01.JPG,AFNE01.JPG,AFNE01.JPG,,,,,5,8,58,6,,,,,,,,,,,,,,,,,,,AMSA07.jpg,AMSA17.jpg,AMNE11.jpg,AMNE10.jpg,AMNE11.jpg,MN,1,num_2,32,num_8,0.833464890078,,,2017_Mar_21_1055,60.0224280996,FEMA4ImagesEEG,001,200076,
AFNE01.JPG,AFNE01.JPG,AFNE01.JPG,AFNE01.JPG,AFNE01.JPG,AFNE01.JPG,,,,,5,9,59,4,,,,,,,,,,,,,,,,,,,AMSA10.jpg,AMNE16.jpg,AMSA02.jpg,AMNE07.jpg,AMNE16.jpg,MN,1,num_6,16,num_6,1.08348245057,,,2017_Mar_21_1055,60.0224280996,FEMA4ImagesEEG,001,200076,
,,,,,,,,,,,,,,,,,,,,,,,,,,,,,,,,,,,,,,,,,,,space,2.0666910857,2017_Mar_21_1055,60.0224280996,FEMA4ImagesEEG,001,200076,
AFNE01.JPG,AFNE01.JPG,AFNE01.JPG,AFNE01.JPG,AFNE01.JPG,AFNE01.JPG,,,,,,,,,0,0,0,0,,,,,,,,,,,,,,,AFNE04.jpg,AFSA03.jpg,AFNE01.jpg,AFSA05.jpg,AFSA03.jpg,FS,4,num_6,16,num_6,1.23372398358,,,2017_Mar_21_1055,60.0224280996,FEMA4ImagesEEG,001,200076,
AFNE01.JPG,AFNE01.JPG,AFNE01.JPG,AFNE01.JPG,AFNE01.JPG,AFNE01.JPG,,,,,,,,,0,1,1,7,,,,,,,,,,,,,,,AFNE01.jpg,AFNE08.jpg,AFSA09.jpg,AFSA01.jpg,AFNE01.jpg,FN,3,num_8,32,num_6,0.816818499472,,,2017_Mar_21_1055,60.0224280996,FEMA4ImagesEEG,001,200076,
AFNE01.JPG,AFNE01.JPG,AFNE01.JPG,AFNE01.JPG,AFNE01.JPG,AFNE01.JPG,,,,,,,,,0,2,2,2,,,,,,,,,,,,,,,AFNE01.jpg,AFSA09.jpg,AFSA19.jpg,AFNE09.jpg,AFNE09.jpg,FN,3,num_4,32,num_6,0.850195314444,,,2017_Mar_21_1055,60.0224280996,FEMA4ImagesEEG,001,200076,
AFNE01.JPG,AFNE01.JPG,AFNE01.JPG,AFNE01.JPG,AFNE01.JPG,AFNE01.JPG,,,,,,,,,0,3,3,5,,,,,,,,,,,,,,,AFSA08.jpg,AFNE05.jpg,AFNE12.jpg,AFSA09.jpg,AFSA09.jpg,FS,4,num_4,32,num_6,0.866777236341,,,2017_Mar_21_1055,60.0224280996,FEMA4ImagesEEG,001,200076,
AFNE01.JPG,AFNE01.JPG,AFNE01.JPG,AFNE01.JPG,AFNE01.JPG,AFNE01.JPG,,,,,,,,,0,4,4,1,,,,,,,,,,,,,,,AFNE13.jpg,AFNE18.jpg,AFSA08.jpg,AFSA05.jpg,AFNE18.jpg,FN,3,num_6,32,num_8,1.13339692535,,,2017_Mar_21_1055,60.0224280996,FEMA4ImagesEEG,001,200076,
AFNE01.JPG,AFNE01.JPG,AFNE01.JPG,AFNE01.JPG,AFNE01.JPG,AFNE01.JPG,,,,,,,,,0,5,5,8,,,,,,,,,,,,,,,AFNE10.jpg,AFSA15.jpg,AFSA12.jpg,AFNE12.jpg,AFNE10.jpg,FN,3,num_8,16,num_8,0.766764823697,,,2017_Mar_21_1055,60.0224280996,FEMA4ImagesEEG,001,200076,
AFNE01.JPG,AFNE01.JPG,AFNE01.JPG,AFNE01.JPG,AFNE01.JPG,AFNE01.JPG,,,,,,,,,0,6,6,6,,,,,,,,,,,,,,,AFNE18.jpg,AFNE13.jpg,AFSA01.jpg,AFSA17.jpg,AFNE18.jpg,FN,3,num_8,16,num_8,1.2165820502,,,2017_Mar_21_1055,60.0224280996,FEMA4ImagesEEG,001,200076,
AFNE01.JPG,AFNE01.JPG,AFNE01.JPG,AFNE01.JPG,AFNE01.JPG,AFNE01.JPG,,,,,,,,,0,7,7,3,,,,,,,,,,,,,,,AFNE07.jpg,AFSA10.jpg,AFSA06.jpg,AFNE15.jpg,AFNE15.jpg,FN,3,num_4,32,num_6,1.13341584895,,,2017_Mar_21_1055,60.0224280996,FEMA4ImagesEEG,001,200076,
AFNE01.JPG,AFNE01.JPG,AFNE01.JPG,AFNE01.JPG,AFNE01.JPG,AFNE01.JPG,,,,,,,,,0,8,8,9,,,,,,,,,,,,,,,AFSA20.jpg,AFNE05.jpg,AFNE19.jpg,AFSA05.jpg,AFNE05.jpg,FN,3,num_6,32,num_8,0.900099525519,,,2017_Mar_21_1055,60.0224280996,FEMA4ImagesEEG,001,200076,
AFNE01.JPG,AFNE01.JPG,AFNE01.JPG,AFNE01.JPG,AFNE01.JPG,AFNE01.JPG,,,,,,,,,0,9,9,4,,,,,,,,,,,,,,,AFNE06.jpg,AFSA08.jpg,AFSA04.jpg,AFNE04.jpg,AFSA08.jpg,FS,4,num_6,16,num_6,0.56684937072,,,2017_Mar_21_1055,60.0224280996,FEMA4ImagesEEG,001,200076,
AFNE01.JPG,AFNE01.JPG,AFNE01.JPG,AFNE01.JPG,AFNE01.JPG,AFNE01.JPG,,,,,,,,,1,0,10,8,,,,,,,,,,,,,,,AFNE20.jpg,AFSA11.jpg,AFSA13.jpg,AFNE13.jpg,AFNE13.jpg,FN,3,num_4,16,num_4,0.866794877045,,,2017_Mar_21_1055,60.0224280996,FEMA4ImagesEEG,001,200076,
AFNE01.JPG,AFNE01.JPG,AFNE01.JPG,AFNE01.JPG,AFNE01.JPG,AFNE01.JPG,,,,,,,,,1,1,11,6,,,,,,,,,,,,,,,AFNE14.jpg,AFNE17.jpg,AFSA06.jpg,AFSA03.jpg,AFSA03.jpg,FS,4,num_4,32,num_6,0.700119283109,,,2017_Mar_21_1055,60.0224280996,FEMA4ImagesEEG,001,200076,
AFNE01.JPG,AFNE01.JPG,AFNE01.JPG,AFNE01.JPG,AFNE01.JPG,AFNE01.JPG,,,,,,,,,1,2,12,1,,,,,,,,,,,,,,,AFNE05.jpg,AFNE15.jpg,AFSA11.jpg,AFSA20.jpg,AFNE05.jpg,FN,3,num_8,32,num_4,0.683382764691,,,2017_Mar_21_1055,60.0224280996,FEMA4ImagesEEG,001,200076,
AFNE01.JPG,AFNE01.JPG,AFNE01.JPG,AFNE01.JPG,AFNE01.JPG,AFNE01.JPG,,,,,,,,,1,3,13,5,,,,,,,,,,,,,,,AFSA04.jpg,AFNE01.jpg,AFSA14.jpg,AFNE07.jpg,AFSA14.jpg,FS,4,num_2,32,num_8,0.883487133367,,,2017_Mar_21_1055,60.0224280996,FEMA4ImagesEEG,001,200076,
AFNE01.JPG,AFNE01.JPG,AFNE01.JPG,AFNE01.JPG,AFNE01.JPG,AFNE01.JPG,,,,,,,,,1,4,14,7,,,,,,,,,,,,,,,AFNE07.jpg,AFSA03.jpg,AFNE11.jpg,AFSA19.jpg,AFNE11.jpg,FN,3,num_2,16,num_2,1.66655098653,,,2017_Mar_21_1055,60.0224280996,FEMA4ImagesEEG,001,200076,
AFNE01.JPG,AFNE01.JPG,AFNE01.JPG,AFNE01.JPG,AFNE01.JPG,AFNE01.JPG,,,,,,,,,1,5,15,0,,,,,,,,,,,,,,,AFNE16.jpg,AFSA13.jpg,AFSA11.jpg,AFNE19.jpg,AFNE16.jpg,FN,3,num_8,16,num_8,0.950134277693,,,2017_Mar_21_1055,60.0224280996,FEMA4ImagesEEG,001,200076,
AFNE01.JPG,AFNE01.JPG,AFNE01.JPG,AFNE01.JPG,AFNE01.JPG,AFNE01.JPG,,,,,,,,,1,6,16,2,,,,,,,,,,,,,,,AFNE15.jpg,AFSA16.jpg,AFSA03.jpg,AFNE07.jpg,AFNE15.jpg,FN,3,num_8,32,num_6,3.04996386869,,,2017_Mar_21_1055,60.0224280996,FEMA4ImagesEEG,001,200076,
AFNE01.JPG,AFNE01.JPG,AFNE01.JPG,AFNE01.JPG,AFNE01.JPG,AFNE01.JPG,,,,,,,,,1,7,17,3,,,,,,,,,,,,,,,AFNE03.jpg,AFSA16.jpg,AFSA05.jpg,AFNE09.jpg,AFNE03.jpg,FN,3,num_8,32,num_4,0.666543930303,,,2017_Mar_21_1055,60.0224280996,FEMA4ImagesEEG,001,200076,
AFNE01.JPG,AFNE01.JPG,AFNE01.JPG,AFNE01.JPG,AFNE01.JPG,AFNE01.JPG,,,,,,,,,1,8,18,9,,,,,,,,,,,,,,,AFSA06.jpg,AFNE04.jpg,AFSA11.jpg,AFNE08.jpg,AFSA11.jpg,FS,4,num_2,16,num_2,1.75002606009,,,2017_Mar_21_1055,60.0224280996,FEMA4ImagesEEG,001,200076,
AFNE01.JPG,AFNE01.JPG,AFNE01.JPG,AFNE01.JPG,AFNE01.JPG,AFNE01.JPG,,,,,,,,,1,9,19,4,,,,,,,,,,,,,,,AFNE02.jpg,AFNE10.jpg,AFSA03.jpg,AFSA05.jpg,AFSA05.jpg,FS,4,num_4,16,num_4,0.783322048606,,,2017_Mar_21_1055,60.0224280996,FEMA4ImagesEEG,001,200076,
AFNE01.JPG,AFNE01.JPG,AFNE01.JPG,AFNE01.JPG,AFNE01.JPG,AFNE01.JPG,,,,,,,,,2,0,20,3,,,,,,,,,,,,,,,AFSA11.jpg,AFSA14.jpg,AFNE01.jpg,AFNE15.jpg,AFSA14.jpg,FS,4,num_6,32,num_8,2.13360508537,,,2017_Mar_21_1055,60.0224280996,FEMA4ImagesEEG,001,200076,
AFNE01.JPG,AFNE01.JPG,AFNE01.JPG,AFNE01.JPG,AFNE01.JPG,AFNE01.JPG,,,,,,,,,2,1,21,5,,,,,,,,,,,,,,,AFSA10.jpg,AFNE11.jpg,AFSA17.jpg,AFNE09.jpg,AFSA17.jpg,FS,4,num_2,32,num_6,0.683465194772,,,2017_Mar_21_1055,60.0224280996,FEMA4ImagesEEG,001,200076,
AFNE01.JPG,AFNE01.JPG,AFNE01.JPG,AFNE01.JPG,AFNE01.JPG,AFNE01.JPG,,,,,,,,,2,2,22,7,,,,,,,,,,,,,,,AFNE07.jpg,AFSA02.jpg,AFSA14.jpg,AFNE06.jpg,AFNE06.jpg,FN,3,num_4,32,num_6,0.766810047964,,,2017_Mar_21_1055,60.0224280996,FEMA4ImagesEEG,001,200076,
AFNE01.JPG,AFNE01.JPG,AFNE01.JPG,AFNE01.JPG,AFNE01.JPG,AFNE01.JPG,,,,,,,,,2,3,23,0,,,,,,,,,,,,,,,AFNE12.jpg,AFSA10.jpg,AFSA14.jpg,AFNE03.jpg,AFNE03.jpg,FN,3,num_4,32,num_6,0.783502625127,,,2017_Mar_21_1055,60.0224280996,FEMA4ImagesEEG,001,200076,
AFNE01.JPG,AFNE01.JPG,AFNE01.JPG,AFNE01.JPG,AFNE01.JPG,AFNE01.JPG,,,,,,,,,2,4,24,8,,,,,,,,,,,,,,,AFNE06.jpg,AFSA10.jpg,AFSA16.jpg,AFNE14.jpg,AFNE06.jpg,FN,3,num_8,32,num_4,0.833456230117,,,2017_Mar_21_1055,60.0224280996,FEMA4ImagesEEG,001,200076,
AFNE01.JPG,AFNE01.JPG,AFNE01.JPG,AFNE01.JPG,AFNE01.JPG,AFNE01.JPG,,,,,,,,,2,5,25,6,,,,,,,,,,,,,,,AFNE12.jpg,AFSA17.jpg,AFSA20.jpg,AFNE04.jpg,AFSA17.jpg,FS,4,num_6,16,num_6,0.666777749546,,,2017_Mar_21_1055,60.0224280996,FEMA4ImagesEEG,001,200076,
AFNE01.JPG,AFNE01.JPG,AFNE01.JPG,AFNE01.JPG,AFNE01.JPG,AFNE01.JPG,,,,,,,,,2,6,26,4,,,,,,,,,,,,,,,AFSA11.jpg,AFNE10.jpg,AFNE14.jpg,AFSA13.jpg,AFSA11.jpg,FS,4,num_8,32,num_4,0.616785976512,,,2017_Mar_21_1055,60.0224280996,FEMA4ImagesEEG,001,200076,
AFNE01.JPG,AFNE01.JPG,AFNE01.JPG,AFNE01.JPG,AFNE01.JPG,AFNE01.JPG,,,,,,,,,2,7,27,9,,,,,,,,,,,,,,,AFSA05.jpg,AFNE16.jpg,AFNE18.jpg,AFSA14.jpg,AFNE18.jpg,FN,3,num_2,32,num_8,0.933434965031,,,2017_Mar_21_1055,60.0224280996,FEMA4ImagesEEG,001,200076,
AFNE01.JPG,AFNE01.JPG,AFNE01.JPG,AFNE01.JPG,AFNE01.JPG,AFNE01.JPG,,,,,,,,,2,8,28,1,,,,,,,,,,,,,,,AFNE08.jpg,AFNE06.jpg,AFSA13.jpg,AFSA19.jpg,AFNE08.jpg,FN,3,num_8,32,num_2,0.933416682878,,,2017_Mar_21_1055,60.0224280996,FEMA4ImagesEEG,001,200076,
AFNE01.JPG,AFNE01.JPG,AFNE01.JPG,AFNE01.JPG,AFNE01.JPG,AFNE01.JPG,,,,,,,,,2,9,29,2,,,,,,,,,,,,,,,AFSA06.jpg,AFNE14.jpg,AFSA13.jpg,AFNE03.jpg,AFNE14.jpg,FN,3,num_6,16,num_6,1.25012564973,,,2017_Mar_21_1055,60.0224280996,FEMA4ImagesEEG,001,200076,
AFNE01.JPG,AFNE01.JPG,AFNE01.JPG,AFNE01.JPG,AFNE01.JPG,AFNE01.JPG,,,,,,,,,3,0,30,2,,,,,,,,,,,,,,,AFSA13.jpg,AFSA02.jpg,AFNE09.jpg,AFNE01.jpg,AFNE01.jpg,FN,3,num_4,16,num_4,0.73346242035,,,2017_Mar_21_1055,60.0224280996,FEMA4ImagesEEG,001,200076,
AFNE01.JPG,AFNE01.JPG,AFNE01.JPG,AFNE01.JPG,AFNE01.JPG,AFNE01.JPG,,,,,,,,,3,1,31,6,,,,,,,,,,,,,,,AFSA06.jpg,AFNE06.jpg,AFNE11.jpg,AFSA18.jpg,AFSA06.jpg,FS,4,num_8,32,num_6,1.01678206347,,,2017_Mar_21_1055,60.0224280996,FEMA4ImagesEEG,001,200076,
AFNE01.JPG,AFNE01.JPG,AFNE01.JPG,AFNE01.JPG,AFNE01.JPG,AFNE01.JPG,,,,,,,,,3,2,32,8,,,,,,,,,,,,,,,AFSA12.jpg,AFNE13.jpg,AFSA20.jpg,AFNE08.jpg,AFNE13.jpg,FN,3,num_6,32,num_2,1.21685467893,,,2017_Mar_21_1055,60.0224280996,FEMA4ImagesEEG,001,200076,
AFNE01.JPG,AFNE01.JPG,AFNE01.JPG,AFNE01.JPG,AFNE01.JPG,AFNE01.JPG,,,,,,,,,3,3,33,4,,,,,,,,,,,,,,,AFNE13.jpg,AFSA02.jpg,AFNE16.jpg,AFSA03.jpg,AFNE16.jpg,FN,3,num_2,32,num_4,0.700121849019,,,2017_Mar_21_1055,60.0224280996,FEMA4ImagesEEG,001,200076,
AFNE01.JPG,AFNE01.JPG,AFNE01.JPG,AFNE01.JPG,AFNE01.JPG,AFNE01.JPG,,,,,,,,,3,4,34,7,,,,,,,,,,,,,,,AFNE20.jpg,AFNE19.jpg,AFSA13.jpg,AFSA05.jpg,AFNE19.jpg,FN,3,num_6,32,num_8,1.11674700666,,,2017_Mar_21_1055,60.0224280996,FEMA4ImagesEEG,001,200076,
AFNE01.JPG,AFNE01.JPG,AFNE01.JPG,AFNE01.JPG,AFNE01.JPG,AFNE01.JPG,,,,,,,,,3,5,35,3,,,,,,,,,,,,,,,AFNE14.jpg,AFNE19.jpg,AFSA05.jpg,AFSA02.jpg,AFNE19.jpg,FN,3,num_6,32,num_8,1.0000978256,,,2017_Mar_21_1055,60.0224280996,FEMA4ImagesEEG,001,200076,
AFNE01.JPG,AFNE01.JPG,AFNE01.JPG,AFNE01.JPG,AFNE01.JPG,AFNE01.JPG,,,,,,,,,3,6,36,0,,,,,,,,,,,,,,,AFSA01.jpg,AFNE05.jpg,AFNE06.jpg,AFSA13.jpg,AFNE06.jpg,FN,3,num_2,32,num_6,0.766814217612,,,2017_Mar_21_1055,60.0224280996,FEMA4ImagesEEG,001,200076,
AFNE01.JPG,AFNE01.JPG,AFNE01.JPG,AFNE01.JPG,AFNE01.JPG,AFNE01.JPG,,,,,,,,,3,7,37,5,,,,,,,,,,,,,,,AFSA18.jpg,AFSA02.jpg,AFNE10.jpg,AFNE13.jpg,AFSA18.jpg,FS,4,num_8,16,num_8,0.783565490041,,,2017_Mar_21_1055,60.0224280996,FEMA4ImagesEEG,001,200076,
AFNE01.JPG,AFNE01.JPG,AFNE01.JPG,AFNE01.JPG,AFNE01.JPG,AFNE01.JPG,,,,,,,,,3,8,38,1,,,,,,,,,,,,,,,AFNE10.jpg,AFNE19.jpg,AFSA11.jpg,AFSA15.jpg,AFNE10.jpg,FN,3,num_8,16,num_8,0.950129466597,,,2017_Mar_21_1055,60.0224280996,FEMA4ImagesEEG,001,200076,
AFNE01.JPG,AFNE01.JPG,AFNE01.JPG,AFNE01.JPG,AFNE01.JPG,AFNE01.JPG,,,,,,,,,3,9,39,9,,,,,,,,,,,,,,,AFSA07.jpg,AFNE19.jpg,AFSA17.jpg,AFNE08.jpg,AFNE08.jpg,FN,3,num_4,32,num_6,2.34999148437,,,2017_Mar_21_1055,60.0224280996,FEMA4ImagesEEG,001,200076,
AFNE01.JPG,AFNE01.JPG,AFNE01.JPG,AFNE01.JPG,AFNE01.JPG,AFNE01.JPG,,,,,,,,,4,0,40,3,,,,,,,,,,,,,,,AFSA09.jpg,AFNE12.jpg,AFSA13.jpg,AFNE02.jpg,AFSA09.jpg,FS,4,num_8,32,num_4,1.18343745079,,,2017_Mar_21_1055,60.0224280996,FEMA4ImagesEEG,001,200076,
AFNE01.JPG,AFNE01.JPG,AFNE01.JPG,AFNE01.JPG,AFNE01.JPG,AFNE01.JPG,,,,,,,,,4,1,41,1,,,,,,,,,,,,,,,AFNE10.jpg,AFNE01.jpg,AFSA07.jpg,AFSA16.jpg,AFSA07.jpg,FS,4,num_2,32,num_8,1.55006217537,,,2017_Mar_21_1055,60.0224280996,FEMA4ImagesEEG,001,200076,
AFNE01.JPG,AFNE01.JPG,AFNE01.JPG,AFNE01.JPG,AFNE01.JPG,AFNE01.JPG,,,,,,,,,4,2,42,6,,,,,,,,,,,,,,,AFSA19.jpg,AFNE14.jpg,AFNE04.jpg,AFSA04.jpg,AFNE14.jpg,FN,3,num_6,32,num_4,0.683544738218,,,2017_Mar_21_1055,60.0224280996,FEMA4ImagesEEG,001,200076,
AFNE01.JPG,AFNE01.JPG,AFNE01.JPG,AFNE01.JPG,AFNE01.JPG,AFNE01.JPG,,,,,,,,,4,3,43,7,,,,,,,,,,,,,,,AFSA02.jpg,AFSA01.jpg,AFNE13.jpg,AFNE17.jpg,AFSA01.jpg,FS,4,num_6,16,num_6,1.15009431349,,,2017_Mar_21_1055,60.0224280996,FEMA4ImagesEEG,001,200076,
AFNE01.JPG,AFNE01.JPG,AFNE01.JPG,AFNE01.JPG,AFNE01.JPG,AFNE01.JPG,,,,,,,,,4,4,44,9,,,,,,,,,,,,,,,AFNE03.jpg,AFSA04.jpg,AFSA16.jpg,AFNE06.jpg,AFSA04.jpg,FS,4,num_6,16,num_6,0.716824369039,,,2017_Mar_21_1055,60.0224280996,FEMA4ImagesEEG,001,200076,
AFNE01.JPG,AFNE01.JPG,AFNE01.JPG,AFNE01.JPG,AFNE01.JPG,AFNE01.JPG,,,,,,,,,4,5,45,2,,,,,,,,,,,,,,,AFSA17.jpg,AFNE18.jpg,AFNE06.jpg,AFSA14.jpg,AFNE18.jpg,FN,3,num_6,16,num_6,0.750157563365,,,2017_Mar_21_1055,60.0224280996,FEMA4ImagesEEG,001,200076,
AFNE01.JPG,AFNE01.JPG,AFNE01.JPG,AFNE01.JPG,AFNE01.JPG,AFNE01.JPG,,,,,,,,,4,6,46,5,,,,,,,,,,,,,,,AFSA10.jpg,AFNE13.jpg,AFSA05.jpg,AFNE04.jpg,AFNE13.jpg,FN,3,num_6,32,num_8,0.833445004188,,,2017_Mar_21_1055,60.0224280996,FEMA4ImagesEEG,001,200076,
AFNE01.JPG,AFNE01.JPG,AFNE01.JPG,AFNE01.JPG,AFNE01.JPG,AFNE01.JPG,,,,,,,,,4,7,47,4,,,,,,,,,,,,,,,AFSA17.jpg,AFNE11.jpg,AFNE19.jpg,AFSA10.jpg,AFSA10.jpg,FS,4,num_4,32,num_8,0.933411230275,,,2017_Mar_21_1055,60.0224280996,FEMA4ImagesEEG,001,200076,
AFNE01.JPG,AFNE01.JPG,AFNE01.JPG,AFNE01.JPG,AFNE01.JPG,AFNE01.JPG,,,,,,,,,4,8,48,0,,,,,,,,,,,,,,,AFSA15.jpg,AFSA12.jpg,AFNE04.jpg,AFNE09.jpg,AFNE04.jpg,FN,3,num_2,32,num_4,1.28341105394,,,2017_Mar_21_1055,60.0224280996,FEMA4ImagesEEG,001,200076,
AFNE01.JPG,AFNE01.JPG,AFNE01.JPG,AFNE01.JPG,AFNE01.JPG,AFNE01.JPG,,,,,,,,,4,9,49,8,,,,,,,,,,,,,,,AFSA14.jpg,AFNE03.jpg,AFNE19.jpg,AFSA13.jpg,AFNE03.jpg,FN,3,num_6,16,num_6,0.983456887596,,,2017_Mar_21_1055,60.0224280996,FEMA4ImagesEEG,001,200076,
AFNE01.JPG,AFNE01.JPG,AFNE01.JPG,AFNE01.JPG,AFNE01.JPG,AFNE01.JPG,,,,,,,,,5,0,50,8,,,,,,,,,,,,,,,AFSA08.jpg,AFNE02.jpg,AFNE09.jpg,AFSA17.jpg,AFSA08.jpg,FS,4,num_8,32,num_4,1.59962544014,,,2017_Mar_21_1055,60.0224280996,FEMA4ImagesEEG,001,200076,
AFNE01.JPG,AFNE01.JPG,AFNE01.JPG,AFNE01.JPG,AFNE01.JPG,AFNE01.JPG,,,,,,,,,5,1,51,9,,,,,,,,,,,,,,,AFNE17.jpg,AFSA16.jpg,AFSA13.jpg,AFNE06.jpg,AFSA16.jpg,FS,4,num_6,32,num_4,1.56677111017,,,2017_Mar_21_1055,60.0224280996,FEMA4ImagesEEG,001,200076,
AFNE01.JPG,AFNE01.JPG,AFNE01.JPG,AFNE01.JPG,AFNE01.JPG,AFNE01.JPG,,,,,,,,,5,2,52,2,,,,,,,,,,,,,,,AFNE16.jpg,AFNE07.jpg,AFSA12.jpg,AFSA17.jpg,AFSA17.jpg,FS,4,num_4,32,num_8,1.49997835007,,,2017_Mar_21_1055,60.0224280996,FEMA4ImagesEEG,001,200076,
AFNE01.JPG,AFNE01.JPG,AFNE01.JPG,AFNE01.JPG,AFNE01.JPG,AFNE01.JPG,,,,,,,,,5,3,53,1,,,,,,,,,,,,,,,AFSA18.jpg,AFNE13.jpg,AFNE15.jpg,AFSA13.jpg,AFNE13.jpg,FN,3,num_6,16,num_6,0.783425326808,,,2017_Mar_21_1055,60.0224280996,FEMA4ImagesEEG,001,200076,
AFNE01.JPG,AFNE01.JPG,AFNE01.JPG,AFNE01.JPG,AFNE01.JPG,AFNE01.JPG,,,,,,,,,5,4,54,6,,,,,,,,,,,,,,,AFNE16.jpg,AFSA13.jpg,AFSA16.jpg,AFNE15.jpg,AFNE15.jpg,FN,3,num_4,16,num_4,0.650135849311,,,2017_Mar_21_1055,60.0224280996,FEMA4ImagesEEG,001,200076,
AFNE01.JPG,AFNE01.JPG,AFNE01.JPG,AFNE01.JPG,AFNE01.JPG,AFNE01.JPG,,,,,,,,,5,5,55,5,,,,,,,,,,,,,,,AFSA01.jpg,AFSA20.jpg,AFNE10.jpg,AFNE19.jpg,AFNE19.jpg,FN,3,num_4,32,num_6,0.666804370878,,,2017_Mar_21_1055,60.0224280996,FEMA4ImagesEEG,001,200076,
AFNE01.JPG,AFNE01.JPG,AFNE01.JPG,AFNE01.JPG,AFNE01.JPG,AFNE01.JPG,,,,,,,,,5,6,56,7,,,,,,,,,,,,,,,AFNE17.jpg,AFNE08.jpg,AFSA04.jpg,AFSA03.jpg,AFNE17.jpg,FN,3,num_8,32,num_6,0.966724218044,,,2017_Mar_21_1055,60.0224280996,FEMA4ImagesEEG,001,200076,
AFNE01.JPG,AFNE01.JPG,AFNE01.JPG,AFNE01.JPG,AFNE01.JPG,AFNE01.JPG,,,,,,,,,5,7,57,3,,,,,,,,,,,,,,,AFNE20.jpg,AFNE13.jpg,AFSA04.jpg,AFSA08.jpg,AFSA04.jpg,FS,4,num_2,32,num_8,0.716786521778,,,2017_Mar_21_1055,60.0224280996,FEMA4ImagesEEG,001,200076,
AFNE01.JPG,AFNE01.JPG,AFNE01.JPG,AFNE01.JPG,AFNE01.JPG,AFNE01.JPG,,,,,,,,,5,8,58,4,,,,,,,,,,,,,,,AFSA20.jpg,AFNE19.jpg,AFSA08.jpg,AFNE13.jpg,AFNE19.jpg,FN,3,num_6,32,num_4,1.26667261106,,,2017_Mar_21_1055,60.0224280996,FEMA4ImagesEEG,001,200076,
AFNE01.JPG,AFNE01.JPG,AFNE01.JPG,AFNE01.JPG,AFNE01.JPG,AFNE01.JPG,,,,,,,,,5,9,59,0,,,,,,,,,,,,,,,AFNE13.jpg,AFSA17.jpg,AFNE15.jpg,AFSA02.jpg,AFSA17.jpg,FS,4,num_6,16,num_6,0.716778182483,,,2017_Mar_21_1055,60.0224280996,FEMA4ImagesEEG,001,200076,
,,,,,,,,,,,,,,,,,,,,,,,,,,,,,,,,,,,,,,,,,,,space,21.2315881779,2017_Mar_21_1055,60.0224280996,FEMA4ImagesEEG,001,200076,
AFNE01.JPG,AFNE01.JPG,AFNE01.JPG,AFNE01.JPG,AFNE01.JPG,AFNE01.JPG,,,,,,,,,,,,,0,0,0,6,,,,,,,,,,,AMNE08.jpg,AMNE02.jpg,AMSA02.jpg,AMSA18.jpg,AMNE02.jpg,MN,1,num_6,32,num_8,0.833452060469,,,2017_Mar_21_1055,60.0224280996,FEMA4ImagesEEG,001,200076,
AFNE01.JPG,AFNE01.JPG,AFNE01.JPG,AFNE01.JPG,AFNE01.JPG,AFNE01.JPG,,,,,,,,,,,,,0,1,1,9,,,,,,,,,,,AMNE19.jpg,AMSA20.jpg,AMNE15.jpg,AMSA12.jpg,AMNE15.jpg,MN,1,num_2,16,num_2,0.933420531801,,,2017_Mar_21_1055,60.0224280996,FEMA4ImagesEEG,001,200076,
AFNE01.JPG,AFNE01.JPG,AFNE01.JPG,AFNE01.JPG,AFNE01.JPG,AFNE01.JPG,,,,,,,,,,,,,0,2,2,7,,,,,,,,,,,AMNE12.jpg,AMSA07.jpg,AMSA04.jpg,AMNE03.jpg,AMNE03.jpg,MN,1,num_4,32,num_8,1.25010383944,,,2017_Mar_21_1055,60.0224280996,FEMA4ImagesEEG,001,200076,
AFNE01.JPG,AFNE01.JPG,AFNE01.JPG,AFNE01.JPG,AFNE01.JPG,AFNE01.JPG,,,,,,,,,,,,,0,3,3,1,,,,,,,,,,,AMNE19.jpg,AMSA20.jpg,AMSA09.jpg,AMNE01.jpg,AMNE19.jpg,MN,1,num_8,32,num_2,1.95006788458,,,2017_Mar_21_1055,60.0224280996,FEMA4ImagesEEG,001,200076,
AFNE01.JPG,AFNE01.JPG,AFNE01.JPG,AFNE01.JPG,AFNE01.JPG,AFNE01.JPG,,,,,,,,,,,,,0,4,4,2,,,,,,,,,,,AMSA03.jpg,AMSA09.jpg,AMNE02.jpg,AMNE20.jpg,AMSA09.jpg,MS,2,num_6,32,num_8,1.86649402318,,,2017_Mar_21_1055,60.0224280996,FEMA4ImagesEEG,001,200076,
AFNE01.JPG,AFNE01.JPG,AFNE01.JPG,AFNE01.JPG,AFNE01.JPG,AFNE01.JPG,,,,,,,,,,,,,0,5,5,8,,,,,,,,,,,AMNE12.jpg,AMNE13.jpg,AMSA16.jpg,AMSA14.jpg,AMNE13.jpg,MN,1,num_6,32,num_2,1.71665598068,,,2017_Mar_21_1055,60.0224280996,FEMA4ImagesEEG,001,200076,
AFNE01.JPG,AFNE01.JPG,AFNE01.JPG,AFNE01.JPG,AFNE01.JPG,AFNE01.JPG,,,,,,,,,,,,,0,6,6,0,,,,,,,,,,,AMNE18.jpg,AMNE10.jpg,AMSA20.jpg,AMSA05.jpg,AMNE10.jpg,MN,1,num_6,16,num_6,0.750108169508,,,2017_Mar_21_1055,60.0224280996,FEMA4ImagesEEG,001,200076,
AFNE01.JPG,AFNE01.JPG,AFNE01.JPG,AFNE01.JPG,AFNE01.JPG,AFNE01.JPG,,,,,,,,,,,,,0,7,7,5,,,,,,,,,,,AMSA06.jpg,AMSA12.jpg,AMNE11.jpg,AMNE09.jpg,AMNE09.jpg,MN,1,num_4,32,num_6,1.01647415332,,,2017_Mar_21_1055,60.0224280996,FEMA4ImagesEEG,001,200076,
AFNE01.JPG,AFNE01.JPG,AFNE01.JPG,AFNE01.JPG,AFNE01.JPG,AFNE01.JPG,,,,,,,,,,,,,0,8,8,4,,,,,,,,,,,AMNE02.jpg,AMSA14.jpg,AMNE06.jpg,AMSA16.jpg,AMNE06.jpg,MN,1,num_2,16,num_2,1.38362168369,,,2017_Mar_21_1055,60.0224280996,FEMA4ImagesEEG,001,200076,
AFNE01.JPG,AFNE01.JPG,AFNE01.JPG,AFNE01.JPG,AFNE01.JPG,AFNE01.JPG,,,,,,,,,,,,,0,9,9,3,,,,,,,,,,,AMSA09.jpg,AMSA04.jpg,AMNE07.jpg,AMNE11.jpg,AMNE11.jpg,MN,1,num_4,16,num_4,1.51659491187,,,2017_Mar_21_1055,60.0224280996,FEMA4ImagesEEG,001,200076,
AFNE01.JPG,AFNE01.JPG,AFNE01.JPG,AFNE01.JPG,AFNE01.JPG,AFNE01.JPG,,,,,,,,,,,,,1,0,10,5,,,,,,,,,,,AMSA07.jpg,AMNE15.jpg,AMNE08.jpg,AMSA17.jpg,AMNE08.jpg,MN,1,num_2,16,num_2,1.58341846301,,,2017_Mar_21_1055,60.0224280996,FEMA4ImagesEEG,001,200076,
AFNE01.JPG,AFNE01.JPG,AFNE01.JPG,AFNE01.JPG,AFNE01.JPG,AFNE01.JPG,,,,,,,,,,,,,1,1,11,0,,,,,,,,,,,AMSA10.jpg,AMNE01.jpg,AMSA06.jpg,AMNE04.jpg,AMSA10.jpg,MS,2,num_8,16,num_8,1.08345935732,,,2017_Mar_21_1055,60.0224280996,FEMA4ImagesEEG,001,200076,
AFNE01.JPG,AFNE01.JPG,AFNE01.JPG,AFNE01.JPG,AFNE01.JPG,AFNE01.JPG,,,,,,,,,,,,,1,2,12,6,,,,,,,,,,,AMSA07.jpg,AMSA15.jpg,AMNE04.jpg,AMNE15.jpg,AMNE15.jpg,MN,1,num_4,16,num_4,1.4000858941,,,2017_Mar_21_1055,60.0224280996,FEMA4ImagesEEG,001,200076,
AFNE01.JPG,AFNE01.JPG,AFNE01.JPG,AFNE01.JPG,AFNE01.JPG,AFNE01.JPG,,,,,,,,,,,,,1,3,13,4,,,,,,,,,,,AMNE16.jpg,AMSA05.jpg,AMSA14.jpg,AMNE15.jpg,AMSA14.jpg,MS,2,num_2,16,num_2,0.633479515847,,,2017_Mar_21_1055,60.0224280996,FEMA4ImagesEEG,001,200076,
AFNE01.JPG,AFNE01.JPG,AFNE01.JPG,AFNE01.JPG,AFNE01.JPG,AFNE01.JPG,,,,,,,,,,,,,1,4,14,1,,,,,,,,,,,AMSA05.jpg,AMNE18.jpg,AMSA02.jpg,AMNE06.jpg,AMSA05.jpg,MS,2,num_8,32,num_6,1.25010961277,,,2017_Mar_21_1055,60.0224280996,FEMA4ImagesEEG,001,200076,
AFNE01.JPG,AFNE01.JPG,AFNE01.JPG,AFNE01.JPG,AFNE01.JPG,AFNE01.JPG,,,,,,,,,,,,,1,5,15,8,,,,,,,,,,,AMNE11.jpg,AMNE19.jpg,AMSA07.jpg,AMSA06.jpg,AMSA06.jpg,MS,2,num_4,32,num_8,0.900135127653,,,2017_Mar_21_1055,60.0224280996,FEMA4ImagesEEG,001,200076,
AFNE01.JPG,AFNE01.JPG,AFNE01.JPG,AFNE01.JPG,AFNE01.JPG,AFNE01.JPG,,,,,,,,,,,,,1,6,16,3,,,,,,,,,,,AMNE13.jpg,AMSA16.jpg,AMSA09.jpg,AMNE10.jpg,AMNE13.jpg,MN,1,num_8,32,num_6,0.833449494559,,,2017_Mar_21_1055,60.0224280996,FEMA4ImagesEEG,001,200076,
AFNE01.JPG,AFNE01.JPG,AFNE01.JPG,AFNE01.JPG,AFNE01.JPG,AFNE01.JPG,,,,,,,,,,,,,1,7,17,2,,,,,,,,,,,AMNE15.jpg,AMSA17.jpg,AMSA01.jpg,AMNE12.jpg,AMSA01.jpg,MS,2,num_2,32,num_8,1.38340293925,,,2017_Mar_21_1055,60.0224280996,FEMA4ImagesEEG,001,200076,
AFNE01.JPG,AFNE01.JPG,AFNE01.JPG,AFNE01.JPG,AFNE01.JPG,AFNE01.JPG,,,,,,,,,,,,,1,8,18,9,,,,,,,,,,,AMSA05.jpg,AMNE04.jpg,AMSA14.jpg,AMNE20.jpg,AMSA05.jpg,MS,2,num_8,32,num_2,1.13347326138,,,2017_Mar_21_1055,60.0224280996,FEMA4ImagesEEG,001,200076,
AFNE01.JPG,AFNE01.JPG,AFNE01.JPG,AFNE01.JPG,AFNE01.JPG,AFNE01.JPG,,,,,,,,,,,,,1,9,19,7,,,,,,,,,,,AMNE01.jpg,AMNE08.jpg,AMSA04.jpg,AMSA03.jpg,AMNE08.jpg,MN,1,num_6,16,num_6,0.500225961092,,,2017_Mar_21_1055,60.0224280996,FEMA4ImagesEEG,001,200076,
AFNE01.JPG,AFNE01.JPG,AFNE01.JPG,AFNE01.JPG,AFNE01.JPG,AFNE01.JPG,,,,,,,,,,,,,2,0,20,7,,,,,,,,,,,AMNE15.jpg,AMSA14.jpg,AMSA13.jpg,AMNE08.jpg,AMSA14.jpg,MS,2,num_6,32,num_2,1.05023874261,,,2017_Mar_21_1055,60.0224280996,FEMA4ImagesEEG,001,200076,
AFNE01.JPG,AFNE01.JPG,AFNE01.JPG,AFNE01.JPG,AFNE01.JPG,AFNE01.JPG,,,,,,,,,,,,,2,1,21,9,,,,,,,,,,,AMSA05.jpg,AMNE17.jpg,AMNE12.jpg,AMSA14.jpg,AMSA14.jpg,MS,2,num_4,16,num_4,0.633477912052,,,2017_Mar_21_1055,60.0224280996,FEMA4ImagesEEG,001,200076,
AFNE01.JPG,AFNE01.JPG,AFNE01.JPG,AFNE01.JPG,AFNE01.JPG,AFNE01.JPG,,,,,,,,,,,,,2,2,22,2,,,,,,,,,,,AMNE07.jpg,AMSA15.jpg,AMNE04.jpg,AMSA08.jpg,AMNE07.jpg,MN,1,num_8,32,num_6,0.700165148883,,,2017_Mar_21_1055,60.0224280996,FEMA4ImagesEEG,001,200076,
AFNE01.JPG,AFNE01.JPG,AFNE01.JPG,AFNE01.JPG,AFNE01.JPG,AFNE01.JPG,,,,,,,,,,,,,2,3,23,6,,,,,,,,,,,AMSA15.jpg,AMNE13.jpg,AMNE19.jpg,AMSA14.jpg,AMSA15.jpg,MS,2,num_8,32,num_4,1.11677940132,,,2017_Mar_21_1055,60.0224280996,FEMA4ImagesEEG,001,200076,
AFNE01.JPG,AFNE01.JPG,AFNE01.JPG,AFNE01.JPG,AFNE01.JPG,AFNE01.JPG,,,,,,,,,,,,,2,4,24,4,,,,,,,,,,,AMSA06.jpg,AMNE15.jpg,AMSA03.jpg,AMNE11.jpg,AMSA03.jpg,MS,2,num_2,16,num_2,0.783466381487,,,2017_Mar_21_1055,60.0224280996,FEMA4ImagesEEG,001,200076,
AFNE01.JPG,AFNE01.JPG,AFNE01.JPG,AFNE01.JPG,AFNE01.JPG,AFNE01.JPG,,,,,,,,,,,,,2,5,25,5,,,,,,,,,,,AMNE05.jpg,AMNE10.jpg,AMSA03.jpg,AMSA20.jpg,AMNE05.jpg,MN,1,num_8,32,num_6,0.766744296358,,,2017_Mar_21_1055,60.0224280996,FEMA4ImagesEEG,001,200076,
AFNE01.JPG,AFNE01.JPG,AFNE01.JPG,AFNE01.JPG,AFNE01.JPG,AFNE01.JPG,,,,,,,,,,,,,2,6,26,3,,,,,,,,,,,AMNE13.jpg,AMSA06.jpg,AMSA14.jpg,AMNE07.jpg,AMSA14.jpg,MS,2,num_2,32,num_4,1.21676166437,,,2017_Mar_21_1055,60.0224280996,FEMA4ImagesEEG,001,200076,
AFNE01.JPG,AFNE01.JPG,AFNE01.JPG,AFNE01.JPG,AFNE01.JPG,AFNE01.JPG,,,,,,,,,,,,,2,7,27,8,,,,,,,,,,,AMSA10.jpg,AMNE11.jpg,AMNE06.jpg,AMSA03.jpg,AMNE06.jpg,MN,1,num_2,16,num_2,2.01664286241,,,2017_Mar_21_1055,60.0224280996,FEMA4ImagesEEG,001,200076,
AFNE01.JPG,AFNE01.JPG,AFNE01.JPG,AFNE01.JPG,AFNE01.JPG,AFNE01.JPG,,,,,,,,,,,,,2,8,28,1,,,,,,,,,,,AMNE12.jpg,AMSA10.jpg,AMSA03.jpg,AMNE19.jpg,AMNE19.jpg,MN,1,num_4,16,num_4,0.800098338746,,,2017_Mar_21_1055,60.0224280996,FEMA4ImagesEEG,001,200076,
AFNE01.JPG,AFNE01.JPG,AFNE01.JPG,AFNE01.JPG,AFNE01.JPG,AFNE01.JPG,,,,,,,,,,,,,2,9,29,0,,,,,,,,,,,AMNE20.jpg,AMNE10.jpg,AMSA02.jpg,AMSA20.jpg,AMNE10.jpg,MN,1,num_6,32,num_2,1.33343265572,,,2017_Mar_21_1055,60.0224280996,FEMA4ImagesEEG,001,200076,
AFNE01.JPG,AFNE01.JPG,AFNE01.JPG,AFNE01.JPG,AFNE01.JPG,AFNE01.JPG,,,,,,,,,,,,,3,0,30,7,,,,,,,,,,,AMNE08.jpg,AMSA14.jpg,AMSA17.jpg,AMNE06.jpg,AMSA14.jpg,MS,2,num_6,16,num_6,0.716782031406,,,2017_Mar_21_1055,60.0224280996,FEMA4ImagesEEG,001,200076,
AFNE01.JPG,AFNE01.JPG,AFNE01.JPG,AFNE01.JPG,AFNE01.JPG,AFNE01.JPG,,,,,,,,,,,,,3,1,31,5,,,,,,,,,,,AMSA10.jpg,AMNE20.jpg,AMSA04.jpg,AMNE18.jpg,AMNE18.jpg,MN,1,num_4,16,num_4,0.816816254344,,,2017_Mar_21_1055,60.0224280996,FEMA4ImagesEEG,001,200076,
AFNE01.JPG,AFNE01.JPG,AFNE01.JPG,AFNE01.JPG,AFNE01.JPG,AFNE01.JPG,,,,,,,,,,,,,3,2,32,1,,,,,,,,,,,AMNE02.jpg,AMSA13.jpg,AMSA09.jpg,AMNE03.jpg,AMSA09.jpg,MS,2,num_2,32,num_8,1.30012512056,,,2017_Mar_21_1055,60.0224280996,FEMA4ImagesEEG,001,200076,
AFNE01.JPG,AFNE01.JPG,AFNE01.JPG,AFNE01.JPG,AFNE01.JPG,AFNE01.JPG,,,,,,,,,,,,,3,3,33,8,,,,,,,,,,,AMSA04.jpg,AMSA13.jpg,AMNE14.jpg,AMNE04.jpg,AMSA13.jpg,MS,2,num_6,32,num_4,0.666779994674,,,2017_Mar_21_1055,60.0224280996,FEMA4ImagesEEG,001,200076,
AFNE01.JPG,AFNE01.JPG,AFNE01.JPG,AFNE01.JPG,AFNE01.JPG,AFNE01.JPG,,,,,,,,,,,,,3,4,34,9,,,,,,,,,,,AMNE06.jpg,AMSA01.jpg,AMSA15.jpg,AMNE11.jpg,AMSA01.jpg,MS,2,num_6,16,num_6,0.633121891005,,,2017_Mar_21_1055,60.0224280996,FEMA4ImagesEEG,001,200076,
AFNE01.JPG,AFNE01.JPG,AFNE01.JPG,AFNE01.JPG,AFNE01.JPG,AFNE01.JPG,,,,,,,,,,,,,3,5,35,4,,,,,,,,,,,AMNE20.jpg,AMSA05.jpg,AMSA11.jpg,AMNE08.jpg,AMNE20.jpg,MN,1,num_8,16,num_8,0.900094072975,,,2017_Mar_21_1055,60.0224280996,FEMA4ImagesEEG,001,200076,
AFNE01.JPG,AFNE01.JPG,AFNE01.JPG,AFNE01.JPG,AFNE01.JPG,AFNE01.JPG,,,,,,,,,,,,,3,6,36,2,,,,,,,,,,,AMSA16.jpg,AMSA15.jpg,AMNE11.jpg,AMNE09.jpg,AMSA15.jpg,MS,2,num_6,16,num_6,0.866747728316,,,2017_Mar_21_1055,60.0224280996,FEMA4ImagesEEG,001,200076,
AFNE01.JPG,AFNE01.JPG,AFNE01.JPG,AFNE01.JPG,AFNE01.JPG,AFNE01.JPG,,,,,,,,,,,,,3,7,37,3,,,,,,,,,,,AMSA04.jpg,AMSA08.jpg,AMNE16.jpg,AMNE05.jpg,AMSA04.jpg,MS,2,num_8,16,num_8,1.65007073915,,,2017_Mar_21_1055,60.0224280996,FEMA4ImagesEEG,001,200076,
AFNE01.JPG,AFNE01.JPG,AFNE01.JPG,AFNE01.JPG,AFNE01.JPG,AFNE01.JPG,,,,,,,,,,,,,3,8,38,6,,,,,,,,,,,AMNE16.jpg,AMSA07.jpg,AMSA20.jpg,AMNE12.jpg,AMSA07.jpg,MS,2,num_6,16,num_6,0.716857405263,,,2017_Mar_21_1055,60.0224280996,FEMA4ImagesEEG,001,200076,
AFNE01.JPG,AFNE01.JPG,AFNE01.JPG,AFNE01.JPG,AFNE01.JPG,AFNE01.JPG,,,,,,,,,,,,,3,9,39,0,,,,,,,,,,,AMSA02.jpg,AMSA11.jpg,AMNE07.jpg,AMNE13.jpg,AMNE13.jpg,MN,1,num_4,32,num_2,1.40012470359,,,2017_Mar_21_1055,60.0224280996,FEMA4ImagesEEG,001,200076,
AFNE01.JPG,AFNE01.JPG,AFNE01.JPG,AFNE01.JPG,AFNE01.JPG,AFNE01.JPG,,,,,,,,,,,,,4,0,40,2,,,,,,,,,,,AMSA16.jpg,AMNE12.jpg,AMNE17.jpg,AMSA19.jpg,AMSA19.jpg,MS,2,num_4,32,num_8,1.73339538579,,,2017_Mar_21_1055,60.0224280996,FEMA4ImagesEEG,001,200076,
AFNE01.JPG,AFNE01.JPG,AFNE01.JPG,AFNE01.JPG,AFNE01.JPG,AFNE01.JPG,,,,,,,,,,,,,4,1,41,9,,,,,,,,,,,AMSA17.jpg,AMNE14.jpg,AMSA06.jpg,AMNE15.jpg,AMSA06.jpg,MS,2,num_2,32,num_6,0.866753180861,,,2017_Mar_21_1055,60.0224280996,FEMA4ImagesEEG,001,200076,
AFNE01.JPG,AFNE01.JPG,AFNE01.JPG,AFNE01.JPG,AFNE01.JPG,AFNE01.JPG,,,,,,,,,,,,,4,2,42,0,,,,,,,,,,,AMSA07.jpg,AMNE18.jpg,AMSA13.jpg,AMNE05.jpg,AMNE18.jpg,MN,1,num_6,32,num_2,1.28343158128,,,2017_Mar_21_1055,60.0224280996,FEMA4ImagesEEG,001,200076,
AFNE01.JPG,AFNE01.JPG,AFNE01.JPG,AFNE01.JPG,AFNE01.JPG,AFNE01.JPG,,,,,,,,,,,,,4,3,43,6,,,,,,,,,,,AMNE18.jpg,AMSA04.jpg,AMNE14.jpg,AMSA18.jpg,AMNE18.jpg,MN,1,num_8,32,num_2,1.21672413789,,,2017_Mar_21_1055,60.0224280996,FEMA4ImagesEEG,001,200076,
AFNE01.JPG,AFNE01.JPG,AFNE01.JPG,AFNE01.JPG,AFNE01.JPG,AFNE01.JPG,,,,,,,,,,,,,4,4,44,4,,,,,,,,,,,AMNE20.jpg,AMNE17.jpg,AMSA06.jpg,AMSA02.jpg,AMNE17.jpg,MN,1,num_6,32,num_2,1.16675834474,,,2017_Mar_21_1055,60.0224280996,FEMA4ImagesEEG,001,200076,
AFNE01.JPG,AFNE01.JPG,AFNE01.JPG,AFNE01.JPG,AFNE01.JPG,AFNE01.JPG,,,,,,,,,,,,,4,5,45,3,,,,,,,,,,,AMNE11.jpg,AMNE14.jpg,AMSA11.jpg,AMSA05.jpg,AMNE11.jpg,MN,1,num_8,32,num_2,1.31677279412,,,2017_Mar_21_1055,60.0224280996,FEMA4ImagesEEG,001,200076,
AFNE01.JPG,AFNE01.JPG,AFNE01.JPG,AFNE01.JPG,AFNE01.JPG,AFNE01.JPG,,,,,,,,,,,,,4,6,46,5,,,,,,,,,,,AMSA06.jpg,AMNE07.jpg,AMNE14.jpg,AMSA16.jpg,AMSA06.jpg,MS,2,num_8,16,num_8,1.58336971054,,,2017_Mar_21_1055,60.0224280996,FEMA4ImagesEEG,001,200076,
AFNE01.JPG,AFNE01.JPG,AFNE01.JPG,AFNE01.JPG,AFNE01.JPG,AFNE01.JPG,,,,,,,,,,,,,4,7,47,1,,,,,,,,,,,AMSA09.jpg,AMNE11.jpg,AMNE04.jpg,AMSA19.jpg,AMSA19.jpg,MS,2,num_4,16,num_4,1.56664185214,,,2017_Mar_21_1055,60.0224280996,FEMA4ImagesEEG,001,200076,
AFNE01.JPG,AFNE01.JPG,AFNE01.JPG,AFNE01.JPG,AFNE01.JPG,AFNE01.JPG,,,,,,,,,,,,,4,8,48,8,,,,,,,,,,,AMNE08.jpg,AMSA19.jpg,AMNE14.jpg,AMSA17.jpg,AMNE08.jpg,MN,1,num_8,32,num_2,0.93344619096,,,2017_Mar_21_1055,60.0224280996,FEMA4ImagesEEG,001,200076,
AFNE01.JPG,AFNE01.JPG,AFNE01.JPG,AFNE01.JPG,AFNE01.JPG,AFNE01.JPG,,,,,,,,,,,,,4,9,49,7,,,,,,,,,,,AMNE17.jpg,AMNE15.jpg,AMSA18.jpg,AMSA05.jpg,AMSA05.jpg,MS,2,num_4,32,num_6,0.633466365456,,,2017_Mar_21_1055,60.0224280996,FEMA4ImagesEEG,001,200076,
AFNE01.JPG,AFNE01.JPG,AFNE01.JPG,AFNE01.JPG,AFNE01.JPG,AFNE01.JPG,,,,,,,,,,,,,5,0,50,9,,,,,,,,,,,AMNE02.jpg,AMSA19.jpg,AMSA02.jpg,AMNE08.jpg,AMNE02.jpg,MN,1,num_8,16,num_8,1.450081516,,,2017_Mar_21_1055,60.0224280996,FEMA4ImagesEEG,001,200076,
AFNE01.JPG,AFNE01.JPG,AFNE01.JPG,AFNE01.JPG,AFNE01.JPG,AFNE01.JPG,,,,,,,,,,,,,5,1,51,0,,,,,,,,,,,AMNE09.jpg,AMSA17.jpg,AMSA02.jpg,AMNE17.jpg,AMNE17.jpg,MN,1,num_4,32,num_6,0.700109340134,,,2017_Mar_21_1055,60.0224280996,FEMA4ImagesEEG,001,200076,
AFNE01.JPG,AFNE01.JPG,AFNE01.JPG,AFNE01.JPG,AFNE01.JPG,AFNE01.JPG,,,,,,,,,,,,,5,2,52,2,,,,,,,,,,,AMNE09.jpg,AMSA16.jpg,AMNE06.jpg,AMSA11.jpg,AMNE06.jpg,MN,1,num_2,16,num_2,0.766782785184,,,2017_Mar_21_1055,60.0224280996,FEMA4ImagesEEG,001,200076,
AFNE01.JPG,AFNE01.JPG,AFNE01.JPG,AFNE01.JPG,AFNE01.JPG,AFNE01.JPG,,,,,,,,,,,,,5,3,53,8,,,,,,,,,,,AMSA18.jpg,AMNE17.jpg,AMNE02.jpg,AMSA20.jpg,AMNE02.jpg,MN,1,num_2,32,num_8,0.817057129869,,,2017_Mar_21_1055,60.0224280996,FEMA4ImagesEEG,001,200076,
AFNE01.JPG,AFNE01.JPG,AFNE01.JPG,AFNE01.JPG,AFNE01.JPG,AFNE01.JPG,,,,,,,,,,,,,5,4,54,3,,,,,,,,,,,AMSA06.jpg,AMSA20.jpg,AMNE16.jpg,AMNE19.jpg,AMSA20.jpg,MS,2,num_6,16,num_6,0.800145808258,,,2017_Mar_21_1055,60.0224280996,FEMA4ImagesEEG,001,200076,
AFNE01.JPG,AFNE01.JPG,AFNE01.JPG,AFNE01.JPG,AFNE01.JPG,AFNE01.JPG,,,,,,,,,,,,,5,5,55,7,,,,,,,,,,,AMNE13.jpg,AMSA10.jpg,AMNE18.jpg,AMSA17.jpg,AMSA10.jpg,MS,2,num_6,16,num_6,0.88345217274,,,2017_Mar_21_1055,60.0224280996,FEMA4ImagesEEG,001,200076,
AFNE01.JPG,AFNE01.JPG,AFNE01.JPG,AFNE01.JPG,AFNE01.JPG,AFNE01.JPG,,,,,,,,,,,,,5,6,56,5,,,,,,,,,,,AMSA07.jpg,AMNE19.jpg,AMSA10.jpg,AMNE11.jpg,AMNE19.jpg,MN,1,num_6,32,num_4,0.550153906981,,,2017_Mar_21_1055,60.0224280996,FEMA4ImagesEEG,001,200076,
AFNE01.JPG,AFNE01.JPG,AFNE01.JPG,AFNE01.JPG,AFNE01.JPG,AFNE01.JPG,,,,,,,,,,,,,5,7,57,4,,,,,,,,,,,AMNE12.jpg,AMNE01.jpg,AMSA20.jpg,AMSA07.jpg,AMNE01.jpg,MN,1,num_6,32,num_8,0.850114167319,,,2017_Mar_21_1055,60.0224280996,FEMA4ImagesEEG,001,200076,
AFNE01.JPG,AFNE01.JPG,AFNE01.JPG,AFNE01.JPG,AFNE01.JPG,AFNE01.JPG,,,,,,,,,,,,,5,8,58,6,,,,,,,,,,,AMSA19.jpg,AMSA16.jpg,AMNE07.jpg,AMNE02.jpg,AMSA19.jpg,MS,2,num_8,32,num_4,0.900114921038,,,2017_Mar_21_1055,60.0224280996,FEMA4ImagesEEG,001,200076,
AFNE01.JPG,AFNE01.JPG,AFNE01.JPG,AFNE01.JPG,AFNE01.JPG,AFNE01.JPG,,,,,,,,,,,,,5,9,59,1,,,,,,,,,,,AMSA07.jpg,AMNE12.jpg,AMSA05.jpg,AMNE14.jpg,AMSA07.jpg,MS,2,num_8,16,num_8,0.933465435286,,,2017_Mar_21_1055,60.0224280996,FEMA4ImagesEEG,001,200076,
,,,,,,,,,,,,,,,,,,,,,,,,,,,,,,,,,,,,,,,,,,,space,20.248181005,2017_Mar_21_1055,60.0224280996,FEMA4ImagesEEG,001,200076,
AFNE01.JPG,AFNE01.JPG,AFNE01.JPG,AFNE01.JPG,AFNE01.JPG,AFNE01.JPG,,,,,,,,,,,,,,,,,0,0,0,4,,,,,,,AFSA06.jpg,AFSA05.jpg,AFNE03.jpg,AFNE17.jpg,AFSA05.jpg,FS,4,num_6,16,num_6,0.783483380743,,,2017_Mar_21_1055,60.0224280996,FEMA4ImagesEEG,001,200076,
AFNE01.JPG,AFNE01.JPG,AFNE01.JPG,AFNE01.JPG,AFNE01.JPG,AFNE01.JPG,,,,,,,,,,,,,,,,,0,1,1,7,,,,,,,AFSA08.jpg,AFSA18.jpg,AFNE10.jpg,AFNE12.jpg,AFNE12.jpg,FN,3,num_4,32,num_6,1.48344069021,,,2017_Mar_21_1055,60.0224280996,FEMA4ImagesEEG,001,200076,
AFNE01.JPG,AFNE01.JPG,AFNE01.JPG,AFNE01.JPG,AFNE01.JPG,AFNE01.JPG,,,,,,,,,,,,,,,,,0,2,2,5,,,,,,,AFSA11.jpg,AFSA14.jpg,AFNE04.jpg,AFNE13.jpg,AFNE04.jpg,FN,3,num_2,16,num_2,1.18355869042,,,2017_Mar_21_1055,60.0224280996,FEMA4ImagesEEG,001,200076,
AFNE01.JPG,AFNE01.JPG,AFNE01.JPG,AFNE01.JPG,AFNE01.JPG,AFNE01.JPG,,,,,,,,,,,,,,,,,0,3,3,2,,,,,,,AFNE18.jpg,AFSA05.jpg,AFSA09.jpg,AFNE07.jpg,AFNE18.jpg,FN,3,num_8,16,num_8,0.88347879413,,,2017_Mar_21_1055,60.0224280996,FEMA4ImagesEEG,001,200076,
AFNE01.JPG,AFNE01.JPG,AFNE01.JPG,AFNE01.JPG,AFNE01.JPG,AFNE01.JPG,,,,,,,,,,,,,,,,,0,4,4,9,,,,,,,AFNE16.jpg,AFSA20.jpg,AFNE05.jpg,AFSA11.jpg,AFSA20.jpg,FS,4,num_6,32,num_4,1.58335976768,,,2017_Mar_21_1055,60.0224280996,FEMA4ImagesEEG,001,200076,
AFNE01.JPG,AFNE01.JPG,AFNE01.JPG,AFNE01.JPG,AFNE01.JPG,AFNE01.JPG,,,,,,,,,,,,,,,,,0,5,5,1,,,,,,,AFNE05.jpg,AFSA17.jpg,AFSA08.jpg,AFNE02.jpg,AFNE02.jpg,FN,3,num_4,16,num_4,2.61664003995,,,2017_Mar_21_1055,60.0224280996,FEMA4ImagesEEG,001,200076,
AFNE01.JPG,AFNE01.JPG,AFNE01.JPG,AFNE01.JPG,AFNE01.JPG,AFNE01.JPG,,,,,,,,,,,,,,,,,0,6,6,0,,,,,,,AFNE08.jpg,AFSA02.jpg,AFNE14.jpg,AFSA20.jpg,AFNE08.jpg,FN,3,num_8,32,num_6,2.23335032188,,,2017_Mar_21_1055,60.0224280996,FEMA4ImagesEEG,001,200076,
AFNE01.JPG,AFNE01.JPG,AFNE01.JPG,AFNE01.JPG,AFNE01.JPG,AFNE01.JPG,,,,,,,,,,,,,,,,,0,7,7,8,,,,,,,AFSA16.jpg,AFNE07.jpg,AFSA11.jpg,AFNE09.jpg,AFNE09.jpg,FN,3,num_4,32,num_8,3.39961921779,,,2017_Mar_21_1055,60.0224280996,FEMA4ImagesEEG,001,200076,
AFNE01.JPG,AFNE01.JPG,AFNE01.JPG,AFNE01.JPG,AFNE01.JPG,AFNE01.JPG,,,,,,,,,,,,,,,,,0,8,8,3,,,,,,,AFNE07.jpg,AFNE05.jpg,AFSA12.jpg,AFSA17.jpg,AFNE05.jpg,FN,3,num_6,32,num_4,0.933430795441,,,2017_Mar_21_1055,60.0224280996,FEMA4ImagesEEG,001,200076,
AFNE01.JPG,AFNE01.JPG,AFNE01.JPG,AFNE01.JPG,AFNE01.JPG,AFNE01.JPG,,,,,,,,,,,,,,,,,0,9,9,6,,,,,,,AFSA17.jpg,AFNE06.jpg,AFNE09.jpg,AFSA12.jpg,AFNE09.jpg,FN,3,num_2,32,num_8,4.05018582055,,,2017_Mar_21_1055,60.0224280996,FEMA4ImagesEEG,001,200076,
AFNE01.JPG,AFNE01.JPG,AFNE01.JPG,AFNE01.JPG,AFNE01.JPG,AFNE01.JPG,,,,,,,,,,,,,,,,,1,0,10,8,,,,,,,AFSA01.jpg,AFNE13.jpg,AFSA14.jpg,AFNE07.jpg,AFNE13.jpg,FN,3,num_6,16,num_6,3.18327162834,,,2017_Mar_21_1055,60.0224280996,FEMA4ImagesEEG,001,200076,
AFNE01.JPG,AFNE01.JPG,AFNE01.JPG,AFNE01.JPG,AFNE01.JPG,AFNE01.JPG,,,,,,,,,,,,,,,,,1,1,11,4,,,,,,,AFNE04.jpg,AFSA10.jpg,AFNE06.jpg,AFSA03.jpg,AFSA03.jpg,FS,4,num_4,16,num_4,2.71661332232,,,2017_Mar_21_1055,60.0224280996,FEMA4ImagesEEG,001,200076,
AFNE01.JPG,AFNE01.JPG,AFNE01.JPG,AFNE01.JPG,AFNE01.JPG,AFNE01.JPG,,,,,,,,,,,,,,,,,1,2,12,9,,,,,,,AFNE07.jpg,AFNE12.jpg,AFSA17.jpg,AFSA12.jpg,AFNE07.jpg,FN,3,num_8,32,num_6,2.20003893779,,,2017_Mar_21_1055,60.0224280996,FEMA4ImagesEEG,001,200076,
AFNE01.JPG,AFNE01.JPG,AFNE01.JPG,AFNE01.JPG,AFNE01.JPG,AFNE01.JPG,,,,,,,,,,,,,,,,,1,3,13,0,,,,,,,AFNE01.jpg,AFSA04.jpg,AFNE17.jpg,AFSA15.jpg,AFSA04.jpg,FS,4,num_6,32,num_2,1.5500660243,,,2017_Mar_21_1055,60.0224280996,FEMA4ImagesEEG,001,200076,
AFNE01.JPG,AFNE01.JPG,AFNE01.JPG,AFNE01.JPG,AFNE01.JPG,AFNE01.JPG,,,,,,,,,,,,,,,,,1,4,14,3,,,,,,,AFSA11.jpg,AFSA06.jpg,AFNE13.jpg,AFNE05.jpg,AFSA11.jpg,FS,4,num_8,16,num_8,1.53348730982,,,2017_Mar_21_1055,60.0224280996,FEMA4ImagesEEG,001,200076,
AFNE01.JPG,AFNE01.JPG,AFNE01.JPG,AFNE01.JPG,AFNE01.JPG,AFNE01.JPG,,,,,,,,,,,,,,,,,1,5,15,5,,,,,,,AFSA05.jpg,AFNE06.jpg,AFSA19.jpg,AFNE17.jpg,AFNE17.jpg,FN,3,num_4,32,num_6,1.05018197169,,,2017_Mar_21_1055,60.0224280996,FEMA4ImagesEEG,001,200076,
AFNE01.JPG,AFNE01.JPG,AFNE01.JPG,AFNE01.JPG,AFNE01.JPG,AFNE01.JPG,,,,,,,,,,,,,,,,,1,6,16,7,,,,,,,AFNE05.jpg,AFSA09.jpg,AFSA14.jpg,AFNE02.jpg,AFSA14.jpg,FS,4,num_2,32,num_4,3.33326009777,,,2017_Mar_21_1055,60.0224280996,FEMA4ImagesEEG,001,200076,
AFNE01.JPG,AFNE01.JPG,AFNE01.JPG,AFNE01.JPG,AFNE01.JPG,AFNE01.JPG,,,,,,,,,,,,,,,,,1,7,17,2,,,,,,,AFNE06.jpg,AFNE01.jpg,AFSA04.jpg,AFSA18.jpg,AFNE06.jpg,FN,3,num_8,16,num_8,1.38346099306,,,2017_Mar_21_1055,60.0224280996,FEMA4ImagesEEG,001,200076,
AFNE01.JPG,AFNE01.JPG,AFNE01.JPG,AFNE01.JPG,AFNE01.JPG,AFNE01.JPG,,,,,,,,,,,,,,,,,1,8,18,1,,,,,,,AFNE12.jpg,AFSA20.jpg,AFNE09.jpg,AFSA08.jpg,AFSA20.jpg,FS,4,num_6,16,num_6,1.38339620369,,,2017_Mar_21_1055,60.0224280996,FEMA4ImagesEEG,001,200076,
AFNE01.JPG,AFNE01.JPG,AFNE01.JPG,AFNE01.JPG,AFNE01.JPG,AFNE01.JPG,,,,,,,,,,,,,,,,,1,9,19,6,,,,,,,AFNE13.jpg,AFSA11.jpg,AFNE11.jpg,AFSA01.jpg,AFNE13.jpg,FN,3,num_8,16,num_8,0.833473550039,,,2017_Mar_21_1055,60.0224280996,FEMA4ImagesEEG,001,200076,
AFNE01.JPG,AFNE01.JPG,AFNE01.JPG,AFNE01.JPG,AFNE01.JPG,AFNE01.JPG,,,,,,,,,,,,,,,,,2,0,20,6,,,,,,,AFSA05.jpg,AFNE18.jpg,AFSA11.jpg,AFNE11.jpg,AFNE11.jpg,FN,3,num_4,32,num_8,0.916720577632,,,2017_Mar_21_1055,60.0224280996,FEMA4ImagesEEG,001,200076,
AFNE01.JPG,AFNE01.JPG,AFNE01.JPG,AFNE01.JPG,AFNE01.JPG,AFNE01.JPG,,,,,,,,,,,,,,,,,2,1,21,7,,,,,,,AFNE07.jpg,AFSA19.jpg,AFSA13.jpg,AFNE14.jpg,AFNE14.jpg,FN,3,num_4,16,num_4,0.950177898281,,,2017_Mar_21_1055,60.0224280996,FEMA4ImagesEEG,001,200076,
AFNE01.JPG,AFNE01.JPG,AFNE01.JPG,AFNE01.JPG,AFNE01.JPG,AFNE01.JPG,,,,,,,,,,,,,,,,,2,2,22,8,,,,,,,AFSA15.jpg,AFSA08.jpg,AFNE08.jpg,AFNE10.jpg,AFSA08.jpg,FS,4,num_6,16,num_6,1.10012146411,,,2017_Mar_21_1055,60.0224280996,FEMA4ImagesEEG,001,200076,
AFNE01.JPG,AFNE01.JPG,AFNE01.JPG,AFNE01.JPG,AFNE01.JPG,AFNE01.JPG,,,,,,,,,,,,,,,,,2,3,23,9,,,,,,,AFNE02.jpg,AFSA15.jpg,AFNE11.jpg,AFSA17.jpg,AFSA17.jpg,FS,4,num_4,16,num_4,1.00011514558,,,2017_Mar_21_1055,60.0224280996,FEMA4ImagesEEG,001,200076,
AFNE01.JPG,AFNE01.JPG,AFNE01.JPG,AFNE01.JPG,AFNE01.JPG,AFNE01.JPG,,,,,,,,,,,,,,,,,2,4,24,1,,,,,,,AFNE19.jpg,AFNE14.jpg,AFSA20.jpg,AFSA19.jpg,AFNE19.jpg,FN,3,num_8,32,num_4,0.716766635887,,,2017_Mar_21_1055,60.0224280996,FEMA4ImagesEEG,001,200076,
AFNE01.JPG,AFNE01.JPG,AFNE01.JPG,AFNE01.JPG,AFNE01.JPG,AFNE01.JPG,,,,,,,,,,,,,,,,,2,5,25,3,,,,,,,AFNE09.jpg,AFSA08.jpg,AFNE06.jpg,AFSA14.jpg,AFNE09.jpg,FN,3,num_8,16,num_8,0.916747840587,,,2017_Mar_21_1055,60.0224280996,FEMA4ImagesEEG,001,200076,
AFNE01.JPG,AFNE01.JPG,AFNE01.JPG,AFNE01.JPG,AFNE01.JPG,AFNE01.JPG,,,,,,,,,,,,,,,,,2,6,26,0,,,,,,,AFSA03.jpg,AFNE11.jpg,AFNE10.jpg,AFSA01.jpg,AFSA03.jpg,FS,4,num_8,32,num_6,0.800099942484,,,2017_Mar_21_1055,60.0224280996,FEMA4ImagesEEG,001,200076,
AFNE01.JPG,AFNE01.JPG,AFNE01.JPG,AFNE01.JPG,AFNE01.JPG,AFNE01.JPG,,,,,,,,,,,,,,,,,2,7,27,4,,,,,,,AFNE04.jpg,AFSA18.jpg,AFNE19.jpg,AFSA17.jpg,AFNE19.jpg,FN,3,num_2,32,num_8,0.999964397924,,,2017_Mar_21_1055,60.0224280996,FEMA4ImagesEEG,001,200076,
AFNE01.JPG,AFNE01.JPG,AFNE01.JPG,AFNE01.JPG,AFNE01.JPG,AFNE01.JPG,,,,,,,,,,,,,,,,,2,8,28,2,,,,,,,AFNE12.jpg,AFSA15.jpg,AFSA19.jpg,AFNE01.jpg,AFNE12.jpg,FN,3,num_8,32,num_4,1.08351324155,,,2017_Mar_21_1055,60.0224280996,FEMA4ImagesEEG,001,200076,
AFNE01.JPG,AFNE01.JPG,AFNE01.JPG,AFNE01.JPG,AFNE01.JPG,AFNE01.JPG,,,,,,,,,,,,,,,,,2,9,29,5,,,,,,,AFNE06.jpg,AFNE02.jpg,AFSA16.jpg,AFSA08.jpg,AFNE06.jpg,FN,3,num_8,32,num_4,0.833759329107,,,2017_Mar_21_1055,60.0224280996,FEMA4ImagesEEG,001,200076,
AFNE01.JPG,AFNE01.JPG,AFNE01.JPG,AFNE01.JPG,AFNE01.JPG,AFNE01.JPG,,,,,,,,,,,,,,,,,3,0,30,2,,,,,,,AFSA05.jpg,AFSA08.jpg,AFNE01.jpg,AFNE06.jpg,AFNE01.jpg,FN,3,num_2,32,num_6,0.800233049435,,,2017_Mar_21_1055,60.0224280996,FEMA4ImagesEEG,001,200076,
AFNE01.JPG,AFNE01.JPG,AFNE01.JPG,AFNE01.JPG,AFNE01.JPG,AFNE01.JPG,,,,,,,,,,,,,,,,,3,1,31,0,,,,,,,AFSA12.jpg,AFSA07.jpg,AFNE14.jpg,AFNE18.jpg,AFNE14.jpg,FN,3,num_2,32,num_4,0.900105940353,,,2017_Mar_21_1055,60.0224280996,FEMA4ImagesEEG,001,200076,
AFNE01.JPG,AFNE01.JPG,AFNE01.JPG,AFNE01.JPG,AFNE01.JPG,AFNE01.JPG,,,,,,,,,,,,,,,,,3,2,32,9,,,,,,,AFSA17.jpg,AFSA13.jpg,AFNE11.jpg,AFNE13.jpg,AFNE13.jpg,FN,3,num_4,16,num_4,0.583432896296,,,2017_Mar_21_1055,60.0224280996,FEMA4ImagesEEG,001,200076,
AFNE01.JPG,AFNE01.JPG,AFNE01.JPG,AFNE01.JPG,AFNE01.JPG,AFNE01.JPG,,,,,,,,,,,,,,,,,3,3,33,6,,,,,,,AFSA11.jpg,AFNE11.jpg,AFSA14.jpg,AFNE10.jpg,AFNE11.jpg,FN,3,num_6,32,num_8,2.01667461568,,,2017_Mar_21_1055,60.0224280996,FEMA4ImagesEEG,001,200076,
AFNE01.JPG,AFNE01.JPG,AFNE01.JPG,AFNE01.JPG,AFNE01.JPG,AFNE01.JPG,,,,,,,,,,,,,,,,,3,4,34,7,,,,,,,AFNE04.jpg,AFNE09.jpg,AFSA08.jpg,AFSA10.jpg,AFSA08.jpg,FS,4,num_2,32,num_4,3.1665524299,,,2017_Mar_21_1055,60.0224280996,FEMA4ImagesEEG,001,200076,
AFNE01.JPG,AFNE01.JPG,AFNE01.JPG,AFNE01.JPG,AFNE01.JPG,AFNE01.JPG,,,,,,,,,,,,,,,,,3,5,35,3,,,,,,,AFSA16.jpg,AFNE02.jpg,AFNE06.jpg,AFSA03.jpg,AFNE06.jpg,FN,3,num_2,16,num_2,1.63342082046,,,2017_Mar_21_1055,60.0224280996,FEMA4ImagesEEG,001,200076,
AFNE01.JPG,AFNE01.JPG,AFNE01.JPG,AFNE01.JPG,AFNE01.JPG,AFNE01.JPG,,,,,,,,,,,,,,,,,3,6,36,8,,,,,,,AFSA15.jpg,AFNE01.jpg,AFNE14.jpg,AFSA06.jpg,AFSA06.jpg,FS,4,num_4,32,num_6,0.866765689745,,,2017_Mar_21_1055,60.0224280996,FEMA4ImagesEEG,001,200076,
AFNE01.JPG,AFNE01.JPG,AFNE01.JPG,AFNE01.JPG,AFNE01.JPG,AFNE01.JPG,,,,,,,,,,,,,,,,,3,7,37,4,,,,,,,AFNE13.jpg,AFSA17.jpg,AFSA16.jpg,AFNE12.jpg,AFNE13.jpg,FN,3,num_8,32,num_4,0.716822123853,,,2017_Mar_21_1055,60.0224280996,FEMA4ImagesEEG,001,200076,
AFNE01.JPG,AFNE01.JPG,AFNE01.JPG,AFNE01.JPG,AFNE01.JPG,AFNE01.JPG,,,,,,,,,,,,,,,,,3,8,38,1,,,,,,,AFSA04.jpg,AFNE07.jpg,AFSA16.jpg,AFNE12.jpg,AFNE12.jpg,FN,3,num_4,16,num_4,0.633544946671,,,2017_Mar_21_1055,60.0224280996,FEMA4ImagesEEG,001,200076,
AFNE01.JPG,AFNE01.JPG,AFNE01.JPG,AFNE01.JPG,AFNE01.JPG,AFNE01.JPG,,,,,,,,,,,,,,,,,3,9,39,5,,,,,,,AFNE03.jpg,AFNE13.jpg,AFSA01.jpg,AFSA18.jpg,AFSA18.jpg,FS,4,num_4,16,num_4,1.95004447061,,,2017_Mar_21_1055,60.0224280996,FEMA4ImagesEEG,001,200076,
AFNE01.JPG,AFNE01.JPG,AFNE01.JPG,AFNE01.JPG,AFNE01.JPG,AFNE01.JPG,,,,,,,,,,,,,,,,,4,0,40,4,,,,,,,AFNE17.jpg,AFSA03.jpg,AFNE06.jpg,AFSA16.jpg,AFSA16.jpg,FS,4,num_4,16,num_4,0.90040102083,,,2017_Mar_21_1055,60.0224280996,FEMA4ImagesEEG,001,200076,
AFNE01.JPG,AFNE01.JPG,AFNE01.JPG,AFNE01.JPG,AFNE01.JPG,AFNE01.JPG,,,,,,,,,,,,,,,,,4,1,41,2,,,,,,,AFNE20.jpg,AFNE03.jpg,AFSA08.jpg,AFSA15.jpg,AFNE03.jpg,FN,3,num_6,32,num_2,1.55004004436,,,2017_Mar_21_1055,60.0224280996,FEMA4ImagesEEG,001,200076,
AFNE01.JPG,AFNE01.JPG,AFNE01.JPG,AFNE01.JPG,AFNE01.JPG,AFNE01.JPG,,,,,,,,,,,,,,,,,4,2,42,8,,,,,,,AFNE20.jpg,AFNE18.jpg,AFSA06.jpg,AFSA14.jpg,AFNE20.jpg,FN,3,num_8,16,num_8,1.35009315884,,,2017_Mar_21_1055,60.0224280996,FEMA4ImagesEEG,001,200076,
AFNE01.JPG,AFNE01.JPG,AFNE01.JPG,AFNE01.JPG,AFNE01.JPG,AFNE01.JPG,,,,,,,,,,,,,,,,,4,3,43,9,,,,,,,AFSA19.jpg,AFNE10.jpg,AFSA03.jpg,AFNE11.jpg,AFNE10.jpg,FN,3,num_6,32,num_2,1.53340584185,,,2017_Mar_21_1055,60.0224280996,FEMA4ImagesEEG,001,200076,
AFNE01.JPG,AFNE01.JPG,AFNE01.JPG,AFNE01.JPG,AFNE01.JPG,AFNE01.JPG,,,,,,,,,,,,,,,,,4,4,44,7,,,,,,,AFNE16.jpg,AFSA03.jpg,AFSA06.jpg,AFNE17.jpg,AFNE16.jpg,FN,3,num_8,16,num_8,0.983456566872,,,2017_Mar_21_1055,60.0224280996,FEMA4ImagesEEG,001,200076,
AFNE01.JPG,AFNE01.JPG,AFNE01.JPG,AFNE01.JPG,AFNE01.JPG,AFNE01.JPG,,,,,,,,,,,,,,,,,4,5,45,3,,,,,,,AFNE02.jpg,AFSA17.jpg,AFNE06.jpg,AFSA12.jpg,AFNE02.jpg,FN,3,num_8,16,num_8,2.18334315333,,,2017_Mar_21_1055,60.0224280996,FEMA4ImagesEEG,001,200076,
AFNE01.JPG,AFNE01.JPG,AFNE01.JPG,AFNE01.JPG,AFNE01.JPG,AFNE01.JPG,,,,,,,,,,,,,,,,,4,6,46,0,,,,,,,AFNE20.jpg,AFSA07.jpg,AFSA19.jpg,AFNE11.jpg,AFNE11.jpg,FN,3,num_4,32,num_8,3.61652425287,,,2017_Mar_21_1055,60.0224280996,FEMA4ImagesEEG,001,200076,
AFNE01.JPG,AFNE01.JPG,AFNE01.JPG,AFNE01.JPG,AFNE01.JPG,AFNE01.JPG,,,,,,,,,,,,,,,,,4,7,47,1,,,,,,,AFNE01.jpg,AFNE15.jpg,AFSA05.jpg,AFSA18.jpg,AFSA18.jpg,FS,4,num_4,16,num_4,0.950109259982,,,2017_Mar_21_1055,60.0224280996,FEMA4ImagesEEG,001,200076,
AFNE01.JPG,AFNE01.JPG,AFNE01.JPG,AFNE01.JPG,AFNE01.JPG,AFNE01.JPG,,,,,,,,,,,,,,,,,4,8,48,6,,,,,,,AFSA13.jpg,AFNE16.jpg,AFSA16.jpg,AFNE18.jpg,AFNE18.jpg,FN,3,num_4,32,num_6,2.06667697307,,,2017_Mar_21_1055,60.0224280996,FEMA4ImagesEEG,001,200076,
AFNE01.JPG,AFNE01.JPG,AFNE01.JPG,AFNE01.JPG,AFNE01.JPG,AFNE01.JPG,,,,,,,,,,,,,,,,,4,9,49,5,,,,,,,AFNE14.jpg,AFNE12.jpg,AFSA01.jpg,AFSA15.jpg,AFNE14.jpg,FN,3,num_8,16,num_8,0.850505148992,,,2017_Mar_21_1055,60.0224280996,FEMA4ImagesEEG,001,200076,
AFNE01.JPG,AFNE01.JPG,AFNE01.JPG,AFNE01.JPG,AFNE01.JPG,AFNE01.JPG,,,,,,,,,,,,,,,,,5,0,50,5,,,,,,,AFSA01.jpg,AFSA17.jpg,AFNE11.jpg,AFNE12.jpg,AFNE11.jpg,FN,3,num_2,32,num_4,0.750165902602,,,2017_Mar_21_1055,60.0224280996,FEMA4ImagesEEG,001,200076,
AFNE01.JPG,AFNE01.JPG,AFNE01.JPG,AFNE01.JPG,AFNE01.JPG,AFNE01.JPG,,,,,,,,,,,,,,,,,5,1,51,0,,,,,,,AFSA19.jpg,AFSA17.jpg,AFNE18.jpg,AFNE13.jpg,AFNE13.jpg,FN,3,num_4,32,num_6,1.16673364775,,,2017_Mar_21_1055,60.0224280996,FEMA4ImagesEEG,001,200076,
AFNE01.JPG,AFNE01.JPG,AFNE01.JPG,AFNE01.JPG,AFNE01.JPG,AFNE01.JPG,,,,,,,,,,,,,,,,,5,2,52,8,,,,,,,AFNE01.jpg,AFSA19.jpg,AFNE18.jpg,AFSA04.jpg,AFSA19.jpg,FS,4,num_6,32,num_8,1.23340003652,,,2017_Mar_21_1055,60.0224280996,FEMA4ImagesEEG,001,200076,
AFNE01.JPG,AFNE01.JPG,AFNE01.JPG,AFNE01.JPG,AFNE01.JPG,AFNE01.JPG,,,,,,,,,,,,,,,,,5,3,53,4,,,,,,,AFSA17.jpg,AFNE08.jpg,AFSA02.jpg,AFNE09.jpg,AFNE09.jpg,FN,3,num_4,32,num_6,0.700140131172,,,2017_Mar_21_1055,60.0224280996,FEMA4ImagesEEG,001,200076,
AFNE01.JPG,AFNE01.JPG,AFNE01.JPG,AFNE01.JPG,AFNE01.JPG,AFNE01.JPG,,,,,,,,,,,,,,,,,5,4,54,2,,,,,,,AFSA19.jpg,AFNE16.jpg,AFSA13.jpg,AFNE02.jpg,AFNE16.jpg,FN,3,num_6,16,num_6,0.71676503215,,,2017_Mar_21_1055,60.0224280996,FEMA4ImagesEEG,001,200076,
AFNE01.JPG,AFNE01.JPG,AFNE01.JPG,AFNE01.JPG,AFNE01.JPG,AFNE01.JPG,,,,,,,,,,,,,,,,,5,5,55,3,,,,,,,AFNE12.jpg,AFNE13.jpg,AFSA20.jpg,AFSA07.jpg,AFSA07.jpg,FS,4,num_4,32,num_6,0.850107431761,,,2017_Mar_21_1055,60.0224280996,FEMA4ImagesEEG,001,200076,
AFNE01.JPG,AFNE01.JPG,AFNE01.JPG,AFNE01.JPG,AFNE01.JPG,AFNE01.JPG,,,,,,,,,,,,,,,,,5,6,56,9,,,,,,,AFNE11.jpg,AFNE07.jpg,AFSA14.jpg,AFSA07.jpg,AFSA14.jpg,FS,4,num_2,32,num_8,0.83345719229,,,2017_Mar_21_1055,60.0224280996,FEMA4ImagesEEG,001,200076,
AFNE01.JPG,AFNE01.JPG,AFNE01.JPG,AFNE01.JPG,AFNE01.JPG,AFNE01.JPG,,,,,,,,,,,,,,,,,5,7,57,7,,,,,,,AFSA05.jpg,AFSA10.jpg,AFNE18.jpg,AFNE04.jpg,AFNE04.jpg,FN,3,num_4,32,num_8,1.15008854016,,,2017_Mar_21_1055,60.0224280996,FEMA4ImagesEEG,001,200076,
AFNE01.JPG,AFNE01.JPG,AFNE01.JPG,AFNE01.JPG,AFNE01.JPG,AFNE01.JPG,,,,,,,,,,,,,,,,,5,8,58,6,,,,,,,AFSA17.jpg,AFNE19.jpg,AFNE11.jpg,AFSA01.jpg,AFSA01.jpg,FS,4,num_4,32,num_2,2.1166729157,,,2017_Mar_21_1055,60.0224280996,FEMA4ImagesEEG,001,200076,
AFNE01.JPG,AFNE01.JPG,AFNE01.JPG,AFNE01.JPG,AFNE01.JPG,AFNE01.JPG,,,,,,,,,,,,,,,,,5,9,59,1,,,,,,,AFSA18.jpg,AFNE02.jpg,AFSA17.jpg,AFNE19.jpg,AFNE19.jpg,FN,3,num_4,16,num_4,0.650153169234,,,2017_Mar_21_1055,60.0224280996,FEMA4ImagesEEG,001,200076,
,,,,,,,,,,,,,,,,,,,,,,,,,,,,,,,,,,,,,,,,,,,space,28.3816298901,2017_Mar_21_1055,60.0224280996,FEMA4ImagesEEG,001,200076,
AFNE01.JPG,AFNE01.JPG,AFNE01.JPG,AFNE01.JPG,AFNE01.JPG,AFNE01.JPG,,,,,,,,,,,,,,,,,,,,,0,0,0,5,,,AMSA08.jpg,AMSA19.jpg,AMNE04.jpg,AMNE02.jpg,AMNE02.jpg,MN,1,num_4,16,num_4,0.900102732936,,,2017_Mar_21_1055,60.0224280996,FEMA4ImagesEEG,001,200076,
AFNE01.JPG,AFNE01.JPG,AFNE01.JPG,AFNE01.JPG,AFNE01.JPG,AFNE01.JPG,,,,,,,,,,,,,,,,,,,,,0,1,1,2,,,AMNE10.jpg,AMSA15.jpg,AMNE01.jpg,AMSA16.jpg,AMNE10.jpg,MN,1,num_8,16,num_8,0.683448516298,,,2017_Mar_21_1055,60.0224280996,FEMA4ImagesEEG,001,200076,
AFNE01.JPG,AFNE01.JPG,AFNE01.JPG,AFNE01.JPG,AFNE01.JPG,AFNE01.JPG,,,,,,,,,,,,,,,,,,,,,0,2,2,4,,,AMNE12.jpg,AMSA15.jpg,AMNE13.jpg,AMSA02.jpg,AMSA02.jpg,MS,2,num_4,16,num_4,0.750125810155,,,2017_Mar_21_1055,60.0224280996,FEMA4ImagesEEG,001,200076,
AFNE01.JPG,AFNE01.JPG,AFNE01.JPG,AFNE01.JPG,AFNE01.JPG,AFNE01.JPG,,,,,,,,,,,,,,,,,,,,,0,3,3,9,,,AMSA15.jpg,AMSA11.jpg,AMNE06.jpg,AMNE03.jpg,AMNE03.jpg,MN,1,num_4,16,num_4,0.616814522306,,,2017_Mar_21_1055,60.0224280996,FEMA4ImagesEEG,001,200076,
AFNE01.JPG,AFNE01.JPG,AFNE01.JPG,AFNE01.JPG,AFNE01.JPG,AFNE01.JPG,,,,,,,,,,,,,,,,,,,,,0,4,4,1,,,AMNE03.jpg,AMNE08.jpg,AMSA10.jpg,AMSA15.jpg,AMNE03.jpg,MN,1,num_8,16,num_8,1.26687243185,,,2017_Mar_21_1055,60.0224280996,FEMA4ImagesEEG,001,200076,
AFNE01.JPG,AFNE01.JPG,AFNE01.JPG,AFNE01.JPG,AFNE01.JPG,AFNE01.JPG,,,,,,,,,,,,,,,,,,,,,0,5,5,6,,,AMSA06.jpg,AMNE08.jpg,AMSA20.jpg,AMNE16.jpg,AMNE16.jpg,MN,1,num_4,16,num_4,0.666841897473,,,2017_Mar_21_1055,60.0224280996,FEMA4ImagesEEG,001,200076,
AFNE01.JPG,AFNE01.JPG,AFNE01.JPG,AFNE01.JPG,AFNE01.JPG,AFNE01.JPG,,,,,,,,,,,,,,,,,,,,,0,6,6,7,,,AMNE19.jpg,AMNE08.jpg,AMSA06.jpg,AMSA08.jpg,AMNE19.jpg,MN,1,num_8,32,num_6,1.10006725916,,,2017_Mar_21_1055,60.0224280996,FEMA4ImagesEEG,001,200076,
AFNE01.JPG,AFNE01.JPG,AFNE01.JPG,AFNE01.JPG,AFNE01.JPG,AFNE01.JPG,,,,,,,,,,,,,,,,,,,,,0,7,7,3,,,AMSA16.jpg,AMSA04.jpg,AMNE08.jpg,AMNE06.jpg,AMNE08.jpg,MN,1,num_2,32,num_6,1.06672989513,,,2017_Mar_21_1055,60.0224280996,FEMA4ImagesEEG,001,200076,
AFNE01.JPG,AFNE01.JPG,AFNE01.JPG,AFNE01.JPG,AFNE01.JPG,AFNE01.JPG,,,,,,,,,,,,,,,,,,,,,0,8,8,8,,,AMNE06.jpg,AMNE09.jpg,AMSA11.jpg,AMSA02.jpg,AMSA11.jpg,MS,2,num_2,32,num_4,0.98361116345,,,2017_Mar_21_1055,60.0224280996,FEMA4ImagesEEG,001,200076,
AFNE01.JPG,AFNE01.JPG,AFNE01.JPG,AFNE01.JPG,AFNE01.JPG,AFNE01.JPG,,,,,,,,,,,,,,,,,,,,,0,9,9,0,,,AMSA11.jpg,AMNE18.jpg,AMSA19.jpg,AMNE09.jpg,AMSA11.jpg,MS,2,num_8,32,num_4,0.666794748686,,,2017_Mar_21_1055,60.0224280996,FEMA4ImagesEEG,001,200076,
AFNE01.JPG,AFNE01.JPG,AFNE01.JPG,AFNE01.JPG,AFNE01.JPG,AFNE01.JPG,,,,,,,,,,,,,,,,,,,,,1,0,10,2,,,AMNE08.jpg,AMNE09.jpg,AMSA07.jpg,AMSA16.jpg,AMNE09.jpg,MN,1,num_6,32,num_4,1.18341179163,,,2017_Mar_21_1055,60.0224280996,FEMA4ImagesEEG,001,200076,
AFNE01.JPG,AFNE01.JPG,AFNE01.JPG,AFNE01.JPG,AFNE01.JPG,AFNE01.JPG,,,,,,,,,,,,,,,,,,,,,1,1,11,0,,,AMSA10.jpg,AMNE14.jpg,AMNE17.jpg,AMSA07.jpg,AMNE14.jpg,MN,1,num_6,16,num_6,1.36660451797,,,2017_Mar_21_1055,60.0224280996,FEMA4ImagesEEG,001,200076,
AFNE01.JPG,AFNE01.JPG,AFNE01.JPG,AFNE01.JPG,AFNE01.JPG,AFNE01.JPG,,,,,,,,,,,,,,,,,,,,,1,2,12,4,,,AMSA12.jpg,AMNE02.jpg,AMSA04.jpg,AMNE11.jpg,AMSA04.jpg,MS,2,num_2,32,num_4,0.750134470116,,,2017_Mar_21_1055,60.0224280996,FEMA4ImagesEEG,001,200076,
AFNE01.JPG,AFNE01.JPG,AFNE01.JPG,AFNE01.JPG,AFNE01.JPG,AFNE01.JPG,,,,,,,,,,,,,,,,,,,,,1,3,13,7,,,AMNE18.jpg,AMNE12.jpg,AMSA07.jpg,AMSA05.jpg,AMSA07.jpg,MS,2,num_2,32,num_6,1.00017736905,,,2017_Mar_21_1055,60.0224280996,FEMA4ImagesEEG,001,200076,
AFNE01.JPG,AFNE01.JPG,AFNE01.JPG,AFNE01.JPG,AFNE01.JPG,AFNE01.JPG,,,,,,,,,,,,,,,,,,,,,1,4,14,6,,,AMNE04.jpg,AMSA08.jpg,AMSA11.jpg,AMNE17.jpg,AMSA08.jpg,MS,2,num_6,16,num_6,0.666659075825,,,2017_Mar_21_1055,60.0224280996,FEMA4ImagesEEG,001,200076,
AFNE01.JPG,AFNE01.JPG,AFNE01.JPG,AFNE01.JPG,AFNE01.JPG,AFNE01.JPG,,,,,,,,,,,,,,,,,,,,,1,5,15,3,,,AMSA09.jpg,AMNE09.jpg,AMSA17.jpg,AMNE15.jpg,AMSA17.jpg,MS,2,num_2,32,num_8,1.25005861517,,,2017_Mar_21_1055,60.0224280996,FEMA4ImagesEEG,001,200076,
AFNE01.JPG,AFNE01.JPG,AFNE01.JPG,AFNE01.JPG,AFNE01.JPG,AFNE01.JPG,,,,,,,,,,,,,,,,,,,,,1,6,16,1,,,AMSA04.jpg,AMNE14.jpg,AMNE17.jpg,AMSA01.jpg,AMSA04.jpg,MS,2,num_8,32,num_4,1.20017685584,,,2017_Mar_21_1055,60.0224280996,FEMA4ImagesEEG,001,200076,
AFNE01.JPG,AFNE01.JPG,AFNE01.JPG,AFNE01.JPG,AFNE01.JPG,AFNE01.JPG,,,,,,,,,,,,,,,,,,,,,1,7,17,5,,,AMSA03.jpg,AMSA01.jpg,AMNE07.jpg,AMNE09.jpg,AMSA03.jpg,MS,2,num_8,16,num_8,1.56666430389,,,2017_Mar_21_1055,60.0224280996,FEMA4ImagesEEG,001,200076,
AFNE01.JPG,AFNE01.JPG,AFNE01.JPG,AFNE01.JPG,AFNE01.JPG,AFNE01.JPG,,,,,,,,,,,,,,,,,,,,,1,8,18,9,,,AMSA17.jpg,AMNE06.jpg,AMNE01.jpg,AMSA15.jpg,AMSA15.jpg,MS,2,num_4,32,num_6,1.16673076112,,,2017_Mar_21_1055,60.0224280996,FEMA4ImagesEEG,001,200076,
AFNE01.JPG,AFNE01.JPG,AFNE01.JPG,AFNE01.JPG,AFNE01.JPG,AFNE01.JPG,,,,,,,,,,,,,,,,,,,,,1,9,19,8,,,AMSA09.jpg,AMSA16.jpg,AMNE08.jpg,AMNE02.jpg,AMNE08.jpg,MN,1,num_2,32,num_6,0.933437210275,,,2017_Mar_21_1055,60.0224280996,FEMA4ImagesEEG,001,200076,
AFNE01.JPG,AFNE01.JPG,AFNE01.JPG,AFNE01.JPG,AFNE01.JPG,AFNE01.JPG,,,,,,,,,,,,,,,,,,,,,2,0,20,9,,,AMNE10.jpg,AMSA13.jpg,AMNE12.jpg,AMSA08.jpg,AMSA08.jpg,MS,2,num_4,32,num_2,1.15009687946,,,2017_Mar_21_1055,60.0224280996,FEMA4ImagesEEG,001,200076,
AFNE01.JPG,AFNE01.JPG,AFNE01.JPG,AFNE01.JPG,AFNE01.JPG,AFNE01.JPG,,,,,,,,,,,,,,,,,,,,,2,1,21,3,,,AMNE19.jpg,AMNE14.jpg,AMSA08.jpg,AMSA02.jpg,AMSA08.jpg,MS,2,num_2,16,num_2,1.26675343746,,,2017_Mar_21_1055,60.0224280996,FEMA4ImagesEEG,001,200076,
AFNE01.JPG,AFNE01.JPG,AFNE01.JPG,AFNE01.JPG,AFNE01.JPG,AFNE01.JPG,,,,,,,,,,,,,,,,,,,,,2,2,22,5,,,AMNE02.jpg,AMSA11.jpg,AMSA20.jpg,AMNE10.jpg,AMSA11.jpg,MS,2,num_6,16,num_6,0.983430266264,,,2017_Mar_21_1055,60.0224280996,FEMA4ImagesEEG,001,200076,
AFNE01.JPG,AFNE01.JPG,AFNE01.JPG,AFNE01.JPG,AFNE01.JPG,AFNE01.JPG,,,,,,,,,,,,,,,,,,,,,2,3,23,2,,,AMSA19.jpg,AMNE12.jpg,AMNE16.jpg,AMSA07.jpg,AMNE16.jpg,MN,1,num_2,16,num_2,1.06673117809,,,2017_Mar_21_1055,60.0224280996,FEMA4ImagesEEG,001,200076,
AFNE01.JPG,AFNE01.JPG,AFNE01.JPG,AFNE01.JPG,AFNE01.JPG,AFNE01.JPG,,,,,,,,,,,,,,,,,,,,,2,4,24,8,,,AMNE18.jpg,AMSA01.jpg,AMNE05.jpg,AMSA06.jpg,AMSA01.jpg,MS,2,num_6,16,num_6,1.48314015713,,,2017_Mar_21_1055,60.0224280996,FEMA4ImagesEEG,001,200076,
AFNE01.JPG,AFNE01.JPG,AFNE01.JPG,AFNE01.JPG,AFNE01.JPG,AFNE01.JPG,,,,,,,,,,,,,,,,,,,,,2,5,25,0,,,AMSA14.jpg,AMSA06.jpg,AMNE15.jpg,AMNE18.jpg,AMSA06.jpg,MS,2,num_6,16,num_6,0.983411663328,,,2017_Mar_21_1055,60.0224280996,FEMA4ImagesEEG,001,200076,
AFNE01.JPG,AFNE01.JPG,AFNE01.JPG,AFNE01.JPG,AFNE01.JPG,AFNE01.JPG,,,,,,,,,,,,,,,,,,,,,2,6,26,7,,,AMSA11.jpg,AMSA04.jpg,AMNE05.jpg,AMNE07.jpg,AMSA04.jpg,MS,2,num_6,16,num_6,1.68340842385,,,2017_Mar_21_1055,60.0224280996,FEMA4ImagesEEG,001,200076,
AFNE01.JPG,AFNE01.JPG,AFNE01.JPG,AFNE01.JPG,AFNE01.JPG,AFNE01.JPG,,,,,,,,,,,,,,,,,,,,,2,7,27,6,,,AMNE20.jpg,AMSA15.jpg,AMNE15.jpg,AMSA01.jpg,AMNE20.jpg,MN,1,num_8,32,num_2,1.10012050188,,,2017_Mar_21_1055,60.0224280996,FEMA4ImagesEEG,001,200076,
AFNE01.JPG,AFNE01.JPG,AFNE01.JPG,AFNE01.JPG,AFNE01.JPG,AFNE01.JPG,,,,,,,,,,,,,,,,,,,,,2,8,28,4,,,AMSA05.jpg,AMSA15.jpg,AMNE13.jpg,AMNE12.jpg,AMNE13.jpg,MN,1,num_2,32,num_8,0.966754688299,,,2017_Mar_21_1055,60.0224280996,FEMA4ImagesEEG,001,200076,
AFNE01.JPG,AFNE01.JPG,AFNE01.JPG,AFNE01.JPG,AFNE01.JPG,AFNE01.JPG,,,,,,,,,,,,,,,,,,,,,2,9,29,1,,,AMSA06.jpg,AMNE19.jpg,AMSA15.jpg,AMNE13.jpg,AMNE19.jpg,MN,1,num_6,32,num_8,0.91675650049,,,2017_Mar_21_1055,60.0224280996,FEMA4ImagesEEG,001,200076,
AFNE01.JPG,AFNE01.JPG,AFNE01.JPG,AFNE01.JPG,AFNE01.JPG,AFNE01.JPG,,,,,,,,,,,,,,,,,,,,,3,0,30,5,,,AMNE09.jpg,AMSA01.jpg,AMSA04.jpg,AMNE16.jpg,AMSA01.jpg,MS,2,num_6,16,num_6,1.08343754697,,,2017_Mar_21_1055,60.0224280996,FEMA4ImagesEEG,001,200076,
AFNE01.JPG,AFNE01.JPG,AFNE01.JPG,AFNE01.JPG,AFNE01.JPG,AFNE01.JPG,,,,,,,,,,,,,,,,,,,,,3,1,31,3,,,AMSA14.jpg,AMNE19.jpg,AMNE12.jpg,AMSA12.jpg,AMNE12.jpg,MN,1,num_2,32,num_6,0.683484759938,,,2017_Mar_21_1055,60.0224280996,FEMA4ImagesEEG,001,200076,
AFNE01.JPG,AFNE01.JPG,AFNE01.JPG,AFNE01.JPG,AFNE01.JPG,AFNE01.JPG,,,,,,,,,,,,,,,,,,,,,3,2,32,0,,,AMSA14.jpg,AMNE16.jpg,AMNE17.jpg,AMSA20.jpg,AMSA14.jpg,MS,2,num_8,16,num_8,0.933462548652,,,2017_Mar_21_1055,60.0224280996,FEMA4ImagesEEG,001,200076,
AFNE01.JPG,AFNE01.JPG,AFNE01.JPG,AFNE01.JPG,AFNE01.JPG,AFNE01.JPG,,,,,,,,,,,,,,,,,,,,,3,3,33,2,,,AMSA05.jpg,AMSA16.jpg,AMNE10.jpg,AMNE04.jpg,AMSA16.jpg,MS,2,num_6,16,num_6,1.03340792668,,,2017_Mar_21_1055,60.0224280996,FEMA4ImagesEEG,001,200076,
AFNE01.JPG,AFNE01.JPG,AFNE01.JPG,AFNE01.JPG,AFNE01.JPG,AFNE01.JPG,,,,,,,,,,,,,,,,,,,,,3,4,34,8,,,AMSA04.jpg,AMSA13.jpg,AMNE09.jpg,AMNE08.jpg,AMNE08.jpg,MN,1,num_4,32,num_2,0.983450793545,,,2017_Mar_21_1055,60.0224280996,FEMA4ImagesEEG,001,200076,
AFNE01.JPG,AFNE01.JPG,AFNE01.JPG,AFNE01.JPG,AFNE01.JPG,AFNE01.JPG,,,,,,,,,,,,,,,,,,,,,3,5,35,9,,,AMNE19.jpg,AMSA10.jpg,AMNE03.jpg,AMSA05.jpg,AMNE19.jpg,MN,1,num_8,32,num_4,1.53313930717,,,2017_Mar_21_1055,60.0224280996,FEMA4ImagesEEG,001,200076,
AFNE01.JPG,AFNE01.JPG,AFNE01.JPG,AFNE01.JPG,AFNE01.JPG,AFNE01.JPG,,,,,,,,,,,,,,,,,,,,,3,6,36,1,,,AMSA06.jpg,AMNE10.jpg,AMSA11.jpg,AMNE03.jpg,AMNE03.jpg,MN,1,num_4,32,num_6,0.88347366231,,,2017_Mar_21_1055,60.0224280996,FEMA4ImagesEEG,001,200076,
AFNE01.JPG,AFNE01.JPG,AFNE01.JPG,AFNE01.JPG,AFNE01.JPG,AFNE01.JPG,,,,,,,,,,,,,,,,,,,,,3,7,37,7,,,AMSA09.jpg,AMSA15.jpg,AMNE11.jpg,AMNE09.jpg,AMSA15.jpg,MS,2,num_6,32,num_2,1.6833628788,,,2017_Mar_21_1055,60.0224280996,FEMA4ImagesEEG,001,200076,
AFNE01.JPG,AFNE01.JPG,AFNE01.JPG,AFNE01.JPG,AFNE01.JPG,AFNE01.JPG,,,,,,,,,,,,,,,,,,,,,3,8,38,6,,,AMNE16.jpg,AMSA01.jpg,AMNE03.jpg,AMSA16.jpg,AMNE03.jpg,MN,1,num_2,32,num_6,1.0669816758,,,2017_Mar_21_1055,60.0224280996,FEMA4ImagesEEG,001,200076,
