IPosition2,IPosition3,IPosition1,IPosition6,IPosition4,IPosition5,TrialsM1.thisRepN,TrialsM1.thisTrialN,TrialsM1.thisN,TrialsM1.thisIndex,TrialsF1.thisRepN,TrialsF1.thisTrialN,TrialsF1.thisN,TrialsF1.thisIndex,TrialsM2.thisRepN,TrialsM2.thisTrialN,TrialsM2.thisN,TrialsM2.thisIndex,TrialsF2.thisRepN,TrialsF2.thisTrialN,TrialsF2.thisN,TrialsF2.thisIndex,TrialsM3.thisRepN,TrialsM3.thisTrialN,TrialsM3.thisN,TrialsM3.thisIndex,TrialsF3.thisRepN,TrialsF3.thisTrialN,TrialsF3.thisN,TrialsF3.thisIndex,InstrKey_resp.keys,InstrKey_resp.rt,Image0 _Position,Image1 _Position,Image2 _Position,Image3 _Position,Center_image,condition,code,correct_answer,accuracy,Key_Resp.keys,Key_Resp.rt,BreakKey_resp.keys,BreakKey_resp.rt,date,frameRate,expName,session,participant,
,,,,,,,,,,,,,,,,,,,,,,,,,,,,,,space,11.2992911972,,,,,,,,,,,,,,2017_Mar_30_1040,60.0066016147,MAFE4ImagesEEG,001,200059,
AMSA21.JPG,AMNE23.JPG,AMNE21.JPG,AMSA25.JPG,AMNE25.JPG,AMSA23.JPG,0,0,0,5,,,,,,,,,,,,,,,,,,,,,,,AMNE12.jpg,AMNE14.jpg,AMSA20.jpg,AMSA03.jpg,AMNE12.jpg,MN,1,num_8,16,num_8,0.666820087237,,,2017_Mar_30_1040,60.0066016147,MAFE4ImagesEEG,001,200059,
AFNE23.JPG,AFNE24.JPG,AFNE22.JPG,AFSA24.JPG,AFSA22.JPG,AFSA23.JPG,0,1,1,8,,,,,,,,,,,,,,,,,,,,,,,AMSA06.jpg,AMSA20.jpg,AMNE16.jpg,AMNE12.jpg,AMSA06.jpg,MS,2,num_8,32,num_4,0.866744200233,,,2017_Mar_30_1040,60.0066016147,MAFE4ImagesEEG,001,200059,
AMNE23.JPG,AMNE24.JPG,AMNE22.JPG,AMSA24.JPG,AMSA22.JPG,AMSA23.JPG,0,2,2,9,,,,,,,,,,,,,,,,,,,,,,,AMNE13.jpg,AMNE17.jpg,AMSA03.jpg,AMSA07.jpg,AMSA07.jpg,MS,2,num_4,16,num_4,1.2391868222,,,2017_Mar_30_1040,60.0066016147,MAFE4ImagesEEG,001,200059,
AFSA21.JPG,AFNE23.JPG,AFNE21.JPG,AFSA25.JPG,AFNE25.JPG,AFSA23.JPG,0,3,3,4,,,,,,,,,,,,,,,,,,,,,,,AMSA04.jpg,AMNE02.jpg,AMSA14.jpg,AMNE16.jpg,AMSA04.jpg,MS,2,num_8,16,num_8,1.01672240603,,,2017_Mar_30_1040,60.0066016147,MAFE4ImagesEEG,001,200059,
AMSA25.JPG,AMNE24.JPG,AMSA24.JPG,AMNE26.JPG,AMSA21.JPG,AMNE25.JPG,0,4,4,3,,,,,,,,,,,,,,,,,,,,,,,AMNE14.jpg,AMSA11.jpg,AMSA20.jpg,AMNE11.jpg,AMSA11.jpg,MS,2,num_6,16,num_6,0.816786104813,,,2017_Mar_30_1040,60.0066016147,MAFE4ImagesEEG,001,200059,
AFNE22.JPG,AFSA24.JPG,AFSA22.JPG,AFNE25.JPG,AFNE24.JPG,AFSA25.JPG,0,5,5,6,,,,,,,,,,,,,,,,,,,,,,,AMSA17.jpg,AMNE19.jpg,AMNE20.jpg,AMSA09.jpg,AMSA17.jpg,MS,2,num_8,32,num_2,1.86672206898,,,2017_Mar_30_1040,60.0066016147,MAFE4ImagesEEG,001,200059,
AFSA21.JPG,AFNE22.JPG,AFNE21.JPG,AFSA23.JPG,AFSA22.JPG,AFNE23.JPG,0,6,6,0,,,,,,,,,,,,,,,,,,,,,,,AMSA18.jpg,AMSA03.jpg,AMNE12.jpg,AMNE07.jpg,AMSA18.jpg,MS,2,num_8,16,num_8,0.650127510075,,,2017_Mar_30_1040,60.0066016147,MAFE4ImagesEEG,001,200059,
AMNE22.JPG,AMSA24.JPG,AMSA22.JPG,AMNE25.JPG,AMNE24.JPG,AMSA25.JPG,0,7,7,7,,,,,,,,,,,,,,,,,,,,,,,AMNE12.jpg,AMNE06.jpg,AMSA03.jpg,AMSA14.jpg,AMNE06.jpg,MN,1,num_6,16,num_6,1.05009986227,,,2017_Mar_30_1040,60.0066016147,MAFE4ImagesEEG,001,200059,
AMSA21.JPG,AMNE22.JPG,AMNE21.JPG,AMSA23.JPG,AMSA22.JPG,AMNE23.JPG,0,8,8,1,,,,,,,,,,,,,,,,,,,,,,,AMNE01.jpg,AMNE04.jpg,AMSA20.jpg,AMSA01.jpg,AMNE04.jpg,MN,1,num_6,32,num_8,0.616819654126,,,2017_Mar_30_1040,60.0066016147,MAFE4ImagesEEG,001,200059,
AFSA25.JPG,AFNE24.JPG,AFSA24.JPG,AFNE21.JPG,AFSA21.JPG,AFNE25.JPG,0,9,9,2,,,,,,,,,,,,,,,,,,,,,,,AMSA12.jpg,AMNE20.jpg,AMSA02.jpg,AMNE10.jpg,AMSA12.jpg,MS,2,num_8,32,num_4,1.15009463415,,,2017_Mar_30_1040,60.0066016147,MAFE4ImagesEEG,001,200059,
AFNE22.JPG,AFSA24.JPG,AFSA22.JPG,AFNE25.JPG,AFNE24.JPG,AFSA25.JPG,,,,,0,0,0,6,,,,,,,,,,,,,,,,,,,AFNE11.jpg,AFSA19.jpg,AFNE15.jpg,AFSA05.jpg,AFSA19.jpg,FS,4,num_6,32,num_4,1.10037228256,,,2017_Mar_30_1040,60.0066016147,MAFE4ImagesEEG,001,200059,
AFSA21.JPG,AFNE22.JPG,AFNE21.JPG,AFSA23.JPG,AFSA22.JPG,AFNE23.JPG,,,,,0,1,1,0,,,,,,,,,,,,,,,,,,,AFSA10.jpg,AFNE05.jpg,AFSA06.jpg,AFNE09.jpg,AFSA06.jpg,FS,4,num_2,16,num_2,0.600143434945,,,2017_Mar_30_1040,60.0066016147,MAFE4ImagesEEG,001,200059,
AMSA21.JPG,AMNE23.JPG,AMNE21.JPG,AMSA25.JPG,AMNE25.JPG,AMSA23.JPG,,,,,0,2,2,5,,,,,,,,,,,,,,,,,,,AFSA12.jpg,AFSA11.jpg,AFNE12.jpg,AFNE15.jpg,AFSA11.jpg,FS,4,num_6,32,num_8,1.11674893112,,,2017_Mar_30_1040,60.0066016147,MAFE4ImagesEEG,001,200059,
AMNE23.JPG,AMNE24.JPG,AMNE22.JPG,AMSA24.JPG,AMSA22.JPG,AMSA23.JPG,,,,,0,3,3,9,,,,,,,,,,,,,,,,,,,AFNE04.jpg,AFNE16.jpg,AFSA16.jpg,AFSA06.jpg,AFSA16.jpg,FS,4,num_2,32,num_4,0.699828051496,,,2017_Mar_30_1040,60.0066016147,MAFE4ImagesEEG,001,200059,
AFSA21.JPG,AFNE23.JPG,AFNE21.JPG,AFSA25.JPG,AFNE25.JPG,AFSA23.JPG,,,,,0,4,4,4,,,,,,,,,,,,,,,,,,,AFSA11.jpg,AFNE05.jpg,AFSA12.jpg,AFNE18.jpg,AFSA12.jpg,FS,4,num_2,16,num_2,0.76677637035,,,2017_Mar_30_1040,60.0066016147,MAFE4ImagesEEG,001,200059,
AMSA21.JPG,AMNE22.JPG,AMNE21.JPG,AMSA23.JPG,AMSA22.JPG,AMNE23.JPG,,,,,0,5,5,1,,,,,,,,,,,,,,,,,,,AFSA03.jpg,AFSA12.jpg,AFNE07.jpg,AFNE02.jpg,AFSA03.jpg,FS,4,num_8,16,num_8,0.816745370859,,,2017_Mar_30_1040,60.0066016147,MAFE4ImagesEEG,001,200059,
AMNE22.JPG,AMSA24.JPG,AMSA22.JPG,AMNE25.JPG,AMNE24.JPG,AMSA25.JPG,,,,,0,6,6,7,,,,,,,,,,,,,,,,,,,AFNE20.jpg,AFSA06.jpg,AFSA17.jpg,AFNE01.jpg,AFNE20.jpg,FN,3,num_8,16,num_8,0.600152736297,,,2017_Mar_30_1040,60.0066016147,MAFE4ImagesEEG,001,200059,
AMSA25.JPG,AMNE24.JPG,AMSA24.JPG,AMNE26.JPG,AMSA21.JPG,AMNE25.JPG,,,,,0,7,7,3,,,,,,,,,,,,,,,,,,,AFNE14.jpg,AFSA13.jpg,AFNE10.jpg,AFSA03.jpg,AFNE10.jpg,FN,3,num_2,32,num_4,1.61670707446,,,2017_Mar_30_1040,60.0066016147,MAFE4ImagesEEG,001,200059,
AFNE23.JPG,AFNE24.JPG,AFNE22.JPG,AFSA24.JPG,AFSA22.JPG,AFSA23.JPG,,,,,0,8,8,8,,,,,,,,,,,,,,,,,,,AFNE06.jpg,AFNE01.jpg,AFSA16.jpg,AFSA10.jpg,AFSA16.jpg,FS,4,num_2,32,num_4,0.700126660056,,,2017_Mar_30_1040,60.0066016147,MAFE4ImagesEEG,001,200059,
AFSA25.JPG,AFNE24.JPG,AFSA24.JPG,AFNE21.JPG,AFSA21.JPG,AFNE25.JPG,,,,,0,9,9,2,,,,,,,,,,,,,,,,,,,AFSA10.jpg,AFNE03.jpg,AFNE19.jpg,AFSA07.jpg,AFNE19.jpg,FN,3,num_2,16,num_2,0.716816350585,,,2017_Mar_30_1040,60.0066016147,MAFE4ImagesEEG,001,200059,
AMNE23.JPG,AMNE24.JPG,AMNE22.JPG,AMSA24.JPG,AMSA22.JPG,AMSA23.JPG,,,,,,,,,0,0,0,9,,,,,,,,,,,,,,,AMSA16.jpg,AMSA07.jpg,AMNE18.jpg,AMNE10.jpg,AMSA16.jpg,MS,2,num_8,32,num_6,0.766768031055,,,2017_Mar_30_1040,60.0066016147,MAFE4ImagesEEG,001,200059,
AFSA21.JPG,AFNE23.JPG,AFNE21.JPG,AFSA25.JPG,AFNE25.JPG,AFSA23.JPG,,,,,,,,,0,1,1,4,,,,,,,,,,,,,,,AMNE04.jpg,AMSA10.jpg,AMNE12.jpg,AMSA14.jpg,AMSA10.jpg,MS,2,num_6,32,num_4,0.70017861994,,,2017_Mar_30_1040,60.0066016147,MAFE4ImagesEEG,001,200059,
AMNE22.JPG,AMSA24.JPG,AMSA22.JPG,AMNE25.JPG,AMNE24.JPG,AMSA25.JPG,,,,,,,,,0,2,2,7,,,,,,,,,,,,,,,AMSA10.jpg,AMNE03.jpg,AMNE10.jpg,AMSA20.jpg,AMSA20.jpg,MS,2,num_4,16,num_4,0.650133925024,,,2017_Mar_30_1040,60.0066016147,MAFE4ImagesEEG,001,200059,
AMSA21.JPG,AMNE23.JPG,AMNE21.JPG,AMSA25.JPG,AMNE25.JPG,AMSA23.JPG,,,,,,,,,0,3,3,5,,,,,,,,,,,,,,,AMNE13.jpg,AMNE14.jpg,AMSA06.jpg,AMSA10.jpg,AMSA10.jpg,MS,2,num_4,16,num_4,0.733491287101,,,2017_Mar_30_1040,60.0066016147,MAFE4ImagesEEG,001,200059,
AFNE22.JPG,AFSA24.JPG,AFSA22.JPG,AFNE25.JPG,AFNE24.JPG,AFSA25.JPG,,,,,,,,,0,4,4,6,,,,,,,,,,,,,,,AMNE08.jpg,AMNE12.jpg,AMSA04.jpg,AMSA18.jpg,AMSA18.jpg,MS,2,num_4,16,num_4,0.616758713732,,,2017_Mar_30_1040,60.0066016147,MAFE4ImagesEEG,001,200059,
AFSA25.JPG,AFNE24.JPG,AFSA24.JPG,AFNE21.JPG,AFSA21.JPG,AFNE25.JPG,,,,,,,,,0,5,5,2,,,,,,,,,,,,,,,AMSA14.jpg,AMNE07.jpg,AMSA17.jpg,AMNE09.jpg,AMNE09.jpg,MN,1,num_4,16,num_4,0.633479515789,,,2017_Mar_30_1040,60.0066016147,MAFE4ImagesEEG,001,200059,
AMSA21.JPG,AMNE22.JPG,AMNE21.JPG,AMSA23.JPG,AMSA22.JPG,AMNE23.JPG,,,,,,,,,0,6,6,1,,,,,,,,,,,,,,,AMNE11.jpg,AMSA20.jpg,AMNE06.jpg,AMSA01.jpg,AMNE11.jpg,MN,1,num_8,16,num_8,0.583495761268,,,2017_Mar_30_1040,60.0066016147,MAFE4ImagesEEG,001,200059,
AFSA21.JPG,AFNE22.JPG,AFNE21.JPG,AFSA23.JPG,AFSA22.JPG,AFNE23.JPG,,,,,,,,,0,7,7,0,,,,,,,,,,,,,,,AMSA08.jpg,AMNE11.jpg,AMSA16.jpg,AMNE10.jpg,AMNE11.jpg,MN,1,num_6,16,num_6,0.600132529624,,,2017_Mar_30_1040,60.0066016147,MAFE4ImagesEEG,001,200059,
AFNE23.JPG,AFNE24.JPG,AFNE22.JPG,AFSA24.JPG,AFSA22.JPG,AFSA23.JPG,,,,,,,,,0,8,8,8,,,,,,,,,,,,,,,AMNE08.jpg,AMSA07.jpg,AMSA09.jpg,AMNE12.jpg,AMSA09.jpg,MS,2,num_2,32,num_4,0.600179678295,,,2017_Mar_30_1040,60.0066016147,MAFE4ImagesEEG,001,200059,
AMSA25.JPG,AMNE24.JPG,AMSA24.JPG,AMNE26.JPG,AMSA21.JPG,AMNE25.JPG,,,,,,,,,0,9,9,3,,,,,,,,,,,,,,,AMNE08.jpg,AMSA12.jpg,AMSA14.jpg,AMNE17.jpg,AMNE08.jpg,MN,1,num_8,16,num_8,0.583466574084,,,2017_Mar_30_1040,60.0066016147,MAFE4ImagesEEG,001,200059,
AFNE22.JPG,AFSA24.JPG,AFSA22.JPG,AFNE25.JPG,AFNE24.JPG,AFSA25.JPG,,,,,,,,,,,,,0,0,0,6,,,,,,,,,,,AFSA20.jpg,AFNE16.jpg,AFNE10.jpg,AFSA08.jpg,AFSA08.jpg,FS,4,num_4,32,num_8,0.466771206353,,,2017_Mar_30_1040,60.0066016147,MAFE4ImagesEEG,001,200059,
AMNE22.JPG,AMSA24.JPG,AMSA22.JPG,AMNE25.JPG,AMNE24.JPG,AMSA25.JPG,,,,,,,,,,,,,0,1,1,7,,,,,,,,,,,AFSA10.jpg,AFNE04.jpg,AFNE05.jpg,AFSA18.jpg,AFNE04.jpg,FN,3,num_6,16,num_6,0.666829067748,,,2017_Mar_30_1040,60.0066016147,MAFE4ImagesEEG,001,200059,
AFSA21.JPG,AFNE22.JPG,AFNE21.JPG,AFSA23.JPG,AFSA22.JPG,AFNE23.JPG,,,,,,,,,,,,,0,2,2,0,,,,,,,,,,,AFSA01.jpg,AFNE02.jpg,AFSA08.jpg,AFNE16.jpg,AFNE16.jpg,FN,3,num_4,32,num_8,0.683505287161,,,2017_Mar_30_1040,60.0066016147,MAFE4ImagesEEG,001,200059,
AFSA21.JPG,AFNE23.JPG,AFNE21.JPG,AFSA25.JPG,AFNE25.JPG,AFSA23.JPG,,,,,,,,,,,,,0,3,3,4,,,,,,,,,,,AFSA17.jpg,AFSA20.jpg,AFNE12.jpg,AFNE15.jpg,AFSA20.jpg,FS,4,num_6,32,num_8,0.88344960683,,,2017_Mar_30_1040,60.0066016147,MAFE4ImagesEEG,001,200059,
AMSA21.JPG,AMNE23.JPG,AMNE21.JPG,AMSA25.JPG,AMNE25.JPG,AMSA23.JPG,,,,,,,,,,,,,0,4,4,5,,,,,,,,,,,AFSA05.jpg,AFSA01.jpg,AFNE18.jpg,AFNE20.jpg,AFNE20.jpg,FN,3,num_4,32,num_8,0.600135737099,,,2017_Mar_30_1040,60.0066016147,MAFE4ImagesEEG,001,200059,
AFNE23.JPG,AFNE24.JPG,AFNE22.JPG,AFSA24.JPG,AFSA22.JPG,AFSA23.JPG,,,,,,,,,,,,,0,5,5,8,,,,,,,,,,,AFNE17.jpg,AFSA17.jpg,AFNE07.jpg,AFSA01.jpg,AFNE07.jpg,FN,3,num_2,32,num_8,0.75015660096,,,2017_Mar_30_1040,60.0066016147,MAFE4ImagesEEG,001,200059,
AMNE23.JPG,AMNE24.JPG,AMNE22.JPG,AMSA24.JPG,AMSA22.JPG,AMSA23.JPG,,,,,,,,,,,,,0,6,6,9,,,,,,,,,,,AFNE04.jpg,AFSA05.jpg,AFNE12.jpg,AFSA13.jpg,AFNE04.jpg,FN,3,num_8,16,num_8,0.666842538863,,,2017_Mar_30_1040,60.0066016147,MAFE4ImagesEEG,001,200059,
AMSA25.JPG,AMNE24.JPG,AMSA24.JPG,AMNE26.JPG,AMSA21.JPG,AMNE25.JPG,,,,,,,,,,,,,0,7,7,3,,,,,,,,,,,AFNE03.jpg,AFNE19.jpg,AFSA19.jpg,AFSA01.jpg,AFNE19.jpg,FN,3,num_6,32,num_8,0.833490228513,,,2017_Mar_30_1040,60.0066016147,MAFE4ImagesEEG,001,200059,
AFSA25.JPG,AFNE24.JPG,AFSA24.JPG,AFNE21.JPG,AFSA21.JPG,AFNE25.JPG,,,,,,,,,,,,,0,8,8,2,,,,,,,,,,,AFSA20.jpg,AFNE16.jpg,AFNE06.jpg,AFSA02.jpg,AFNE06.jpg,FN,3,num_2,32,num_6,0.916760028573,,,2017_Mar_30_1040,60.0066016147,MAFE4ImagesEEG,001,200059,
AMSA21.JPG,AMNE22.JPG,AMNE21.JPG,AMSA23.JPG,AMSA22.JPG,AMNE23.JPG,,,,,,,,,,,,,0,9,9,1,,,,,,,,,,,AFSA20.jpg,AFNE01.jpg,AFNE13.jpg,AFSA11.jpg,AFSA20.jpg,FS,4,num_8,16,num_8,0.98335393006,,,2017_Mar_30_1040,60.0066016147,MAFE4ImagesEEG,001,200059,
AFSA21.JPG,AFNE22.JPG,AFNE21.JPG,AFSA23.JPG,AFSA22.JPG,AFNE23.JPG,,,,,,,,,,,,,,,,,0,0,0,0,,,,,,,AMSA02.jpg,AMSA17.jpg,AMNE08.jpg,AMNE07.jpg,AMSA17.jpg,MS,2,num_6,16,num_6,1.16682986962,,,2017_Mar_30_1040,60.0066016147,MAFE4ImagesEEG,001,200059,
AFNE22.JPG,AFSA24.JPG,AFSA22.JPG,AFNE25.JPG,AFNE24.JPG,AFSA25.JPG,,,,,,,,,,,,,,,,,0,1,1,6,,,,,,,AMSA04.jpg,AMNE14.jpg,AMNE06.jpg,AMSA01.jpg,AMNE14.jpg,MN,1,num_6,16,num_6,0.766752956435,,,2017_Mar_30_1040,60.0066016147,MAFE4ImagesEEG,001,200059,
AFSA25.JPG,AFNE24.JPG,AFSA24.JPG,AFNE21.JPG,AFSA21.JPG,AFNE25.JPG,,,,,,,,,,,,,,,,,0,2,2,2,,,,,,,AMNE02.jpg,AMNE07.jpg,AMSA01.jpg,AMSA04.jpg,AMSA01.jpg,MS,2,num_2,32,num_4,0.600217525614,,,2017_Mar_30_1040,60.0066016147,MAFE4ImagesEEG,001,200059,
AMSA21.JPG,AMNE23.JPG,AMNE21.JPG,AMSA25.JPG,AMNE25.JPG,AMSA23.JPG,,,,,,,,,,,,,,,,,0,3,3,5,,,,,,,AMSA07.jpg,AMNE04.jpg,AMNE10.jpg,AMSA18.jpg,AMNE10.jpg,MN,1,num_2,16,num_2,1.3333893558,,,2017_Mar_30_1040,60.0066016147,MAFE4ImagesEEG,001,200059,
AMNE22.JPG,AMSA24.JPG,AMSA22.JPG,AMNE25.JPG,AMNE24.JPG,AMSA25.JPG,,,,,,,,,,,,,,,,,0,4,4,7,,,,,,,AMNE16.jpg,AMSA10.jpg,AMSA20.jpg,AMNE12.jpg,AMSA20.jpg,MS,2,num_2,32,num_8,1.15011484083,,,2017_Mar_30_1040,60.0066016147,MAFE4ImagesEEG,001,200059,
AFNE23.JPG,AFNE24.JPG,AFNE22.JPG,AFSA24.JPG,AFSA22.JPG,AFSA23.JPG,,,,,,,,,,,,,,,,,0,5,5,8,,,,,,,AMSA07.jpg,AMNE03.jpg,AMSA11.jpg,AMNE04.jpg,AMNE03.jpg,MN,1,num_6,32,num_8,0.650120774517,,,2017_Mar_30_1040,60.0066016147,MAFE4ImagesEEG,001,200059,
AMSA21.JPG,AMNE22.JPG,AMNE21.JPG,AMSA23.JPG,AMSA22.JPG,AMNE23.JPG,,,,,,,,,,,,,,,,,0,6,6,1,,,,,,,AMSA18.jpg,AMSA15.jpg,AMNE12.jpg,AMNE03.jpg,AMSA18.jpg,MS,2,num_8,16,num_8,0.633509023814,,,2017_Mar_30_1040,60.0066016147,MAFE4ImagesEEG,001,200059,
AMNE23.JPG,AMNE24.JPG,AMNE22.JPG,AMSA24.JPG,AMSA22.JPG,AMSA23.JPG,,,,,,,,,,,,,,,,,0,7,7,9,,,,,,,AMNE06.jpg,AMSA01.jpg,AMSA17.jpg,AMNE04.jpg,AMSA01.jpg,MS,2,num_6,16,num_6,1.18342397967,,,2017_Mar_30_1040,60.0066016147,MAFE4ImagesEEG,001,200059,
AFSA21.JPG,AFNE23.JPG,AFNE21.JPG,AFSA25.JPG,AFNE25.JPG,AFSA23.JPG,,,,,,,,,,,,,,,,,0,8,8,4,,,,,,,AMNE03.jpg,AMNE05.jpg,AMSA12.jpg,AMSA16.jpg,AMSA12.jpg,MS,2,num_2,32,num_4,0.683502079686,,,2017_Mar_30_1040,60.0066016147,MAFE4ImagesEEG,001,200059,
AMSA25.JPG,AMNE24.JPG,AMSA24.JPG,AMNE26.JPG,AMSA21.JPG,AMNE25.JPG,,,,,,,,,,,,,,,,,0,9,9,3,,,,,,,AMSA12.jpg,AMNE20.jpg,AMNE18.jpg,AMSA17.jpg,AMNE20.jpg,MN,1,num_6,16,num_6,0.633451932343,,,2017_Mar_30_1040,60.0066016147,MAFE4ImagesEEG,001,200059,
AFNE23.JPG,AFNE24.JPG,AFNE22.JPG,AFSA24.JPG,AFSA22.JPG,AFSA23.JPG,,,,,,,,,,,,,,,,,,,,,0,0,0,8,,,AFNE01.jpg,AFNE03.jpg,AFSA01.jpg,AFSA09.jpg,AFSA09.jpg,FS,4,num_4,32,num_2,0.683455893304,,,2017_Mar_30_1040,60.0066016147,MAFE4ImagesEEG,001,200059,
AFSA25.JPG,AFNE24.JPG,AFSA24.JPG,AFNE21.JPG,AFSA21.JPG,AFNE25.JPG,,,,,,,,,,,,,,,,,,,,,0,1,1,2,,,AFSA15.jpg,AFSA14.jpg,AFNE06.jpg,AFNE07.jpg,AFNE07.jpg,FN,3,num_4,32,num_6,1.05008959863,,,2017_Mar_30_1040,60.0066016147,MAFE4ImagesEEG,001,200059,
AMNE23.JPG,AMNE24.JPG,AMNE22.JPG,AMSA24.JPG,AMSA22.JPG,AMSA23.JPG,,,,,,,,,,,,,,,,,,,,,0,2,2,9,,,AFSA03.jpg,AFNE13.jpg,AFNE07.jpg,AFSA02.jpg,AFSA03.jpg,FS,4,num_8,16,num_8,0.650126547785,,,2017_Mar_30_1040,60.0066016147,MAFE4ImagesEEG,001,200059,
AFNE22.JPG,AFSA24.JPG,AFSA22.JPG,AFNE25.JPG,AFNE24.JPG,AFSA25.JPG,,,,,,,,,,,,,,,,,,,,,0,3,3,6,,,AFSA04.jpg,AFNE03.jpg,AFNE08.jpg,AFSA18.jpg,AFNE03.jpg,FN,3,num_6,16,num_6,0.583540985594,,,2017_Mar_30_1040,60.0066016147,MAFE4ImagesEEG,001,200059,
AMSA21.JPG,AMNE23.JPG,AMNE21.JPG,AMSA25.JPG,AMNE25.JPG,AMSA23.JPG,,,,,,,,,,,,,,,,,,,,,0,4,4,5,,,AFSA05.jpg,AFSA13.jpg,AFNE01.jpg,AFNE04.jpg,AFNE04.jpg,FN,3,num_4,16,num_4,0.733524643816,,,2017_Mar_30_1040,60.0066016147,MAFE4ImagesEEG,001,200059,
AFSA21.JPG,AFNE23.JPG,AFNE21.JPG,AFSA25.JPG,AFNE25.JPG,AFSA23.JPG,,,,,,,,,,,,,,,,,,,,,0,5,5,4,,,AFNE18.jpg,AFSA17.jpg,AFSA05.jpg,AFNE13.jpg,AFSA17.jpg,FS,4,num_6,16,num_6,0.78335251892,,,2017_Mar_30_1040,60.0066016147,MAFE4ImagesEEG,001,200059,
AMSA21.JPG,AMNE22.JPG,AMNE21.JPG,AMSA23.JPG,AMSA22.JPG,AMNE23.JPG,,,,,,,,,,,,,,,,,,,,,0,6,6,1,,,AFNE15.jpg,AFSA11.jpg,AFSA20.jpg,AFNE04.jpg,AFNE04.jpg,FN,3,num_4,16,num_4,0.583450216334,,,2017_Mar_30_1040,60.0066016147,MAFE4ImagesEEG,001,200059,
AMSA25.JPG,AMNE24.JPG,AMSA24.JPG,AMNE26.JPG,AMSA21.JPG,AMNE25.JPG,,,,,,,,,,,,,,,,,,,,,0,7,7,3,,,AFSA12.jpg,AFNE09.jpg,AFNE18.jpg,AFSA17.jpg,AFNE09.jpg,FN,3,num_6,16,num_6,0.566787147196,,,2017_Mar_30_1040,60.0066016147,MAFE4ImagesEEG,001,200059,
AFSA21.JPG,AFNE22.JPG,AFNE21.JPG,AFSA23.JPG,AFSA22.JPG,AFNE23.JPG,,,,,,,,,,,,,,,,,,,,,0,8,8,0,,,AFNE11.jpg,AFSA09.jpg,AFNE04.jpg,AFSA04.jpg,AFNE04.jpg,FN,3,num_2,32,num_8,0.916763877729,,,2017_Mar_30_1040,60.0066016147,MAFE4ImagesEEG,001,200059,
AMNE22.JPG,AMSA24.JPG,AMSA22.JPG,AMNE25.JPG,AMNE24.JPG,AMSA25.JPG,,,,,,,,,,,,,,,,,,,,,0,9,9,7,,,AFSA13.jpg,AFNE10.jpg,AFNE07.jpg,AFSA05.jpg,AFSA13.jpg,FS,4,num_8,32,num_4,0.699987458996,,,2017_Mar_30_1040,60.0066016147,MAFE4ImagesEEG,001,200059,
,,,,,,,,,,,,,,,,,,,,,,,,,,,,,,,,,,,,,,,,,,,space,9.33279887424,2017_Mar_30_1040,60.0066016147,MAFE4ImagesEEG,001,200059,
AFNE01.JPG,AFNE01.JPG,AFNE01.JPG,AFNE01.JPG,AFNE01.JPG,AFNE01.JPG,0,0,0,0,,,,,,,,,,,,,,,,,,,,,,,AMSA10.jpg,AMSA12.jpg,AMNE17.jpg,AMNE08.jpg,AMNE08.jpg,MN,1,num_4,16,num_4,0.916733086575,,,2017_Mar_30_1040,60.0066016147,MAFE4ImagesEEG,001,200059,
AFNE01.JPG,AFNE01.JPG,AFNE01.JPG,AFNE01.JPG,AFNE01.JPG,AFNE01.JPG,0,1,1,5,,,,,,,,,,,,,,,,,,,,,,,AMSA18.jpg,AMSA11.jpg,AMNE06.jpg,AMNE18.jpg,AMNE18.jpg,MN,1,num_4,32,num_6,0.900126467692,,,2017_Mar_30_1040,60.0066016147,MAFE4ImagesEEG,001,200059,
AFNE01.JPG,AFNE01.JPG,AFNE01.JPG,AFNE01.JPG,AFNE01.JPG,AFNE01.JPG,0,2,2,9,,,,,,,,,,,,,,,,,,,,,,,AMSA18.jpg,AMSA05.jpg,AMNE06.jpg,AMNE09.jpg,AMNE09.jpg,MN,1,num_4,16,num_4,0.650171772111,,,2017_Mar_30_1040,60.0066016147,MAFE4ImagesEEG,001,200059,
AFNE01.JPG,AFNE01.JPG,AFNE01.JPG,AFNE01.JPG,AFNE01.JPG,AFNE01.JPG,0,3,3,1,,,,,,,,,,,,,,,,,,,,,,,AMSA05.jpg,AMNE19.jpg,AMSA14.jpg,AMNE09.jpg,AMNE09.jpg,MN,1,num_4,16,num_4,0.716810577316,,,2017_Mar_30_1040,60.0066016147,MAFE4ImagesEEG,001,200059,
AFNE01.JPG,AFNE01.JPG,AFNE01.JPG,AFNE01.JPG,AFNE01.JPG,AFNE01.JPG,0,4,4,8,,,,,,,,,,,,,,,,,,,,,,,AMSA19.jpg,AMNE20.jpg,AMSA10.jpg,AMNE14.jpg,AMNE14.jpg,MN,1,num_4,16,num_4,0.666789296083,,,2017_Mar_30_1040,60.0066016147,MAFE4ImagesEEG,001,200059,
AFNE01.JPG,AFNE01.JPG,AFNE01.JPG,AFNE01.JPG,AFNE01.JPG,AFNE01.JPG,0,5,5,3,,,,,,,,,,,,,,,,,,,,,,,AMSA15.jpg,AMSA08.jpg,AMNE01.jpg,AMNE17.jpg,AMNE01.jpg,MN,1,num_2,16,num_2,0.900120052975,,,2017_Mar_30_1040,60.0066016147,MAFE4ImagesEEG,001,200059,
AFNE01.JPG,AFNE01.JPG,AFNE01.JPG,AFNE01.JPG,AFNE01.JPG,AFNE01.JPG,0,6,6,6,,,,,,,,,,,,,,,,,,,,,,,AMNE12.jpg,AMNE16.jpg,AMSA10.jpg,AMSA02.jpg,AMSA10.jpg,MS,2,num_2,32,num_4,0.483171268832,,,2017_Mar_30_1040,60.0066016147,MAFE4ImagesEEG,001,200059,
AFNE01.JPG,AFNE01.JPG,AFNE01.JPG,AFNE01.JPG,AFNE01.JPG,AFNE01.JPG,0,7,7,4,,,,,,,,,,,,,,,,,,,,,,,AMSA15.jpg,AMNE17.jpg,AMSA18.jpg,AMNE06.jpg,AMSA15.jpg,MS,2,num_8,32,num_2,0.900091507006,,,2017_Mar_30_1040,60.0066016147,MAFE4ImagesEEG,001,200059,
AFNE01.JPG,AFNE01.JPG,AFNE01.JPG,AFNE01.JPG,AFNE01.JPG,AFNE01.JPG,0,8,8,2,,,,,,,,,,,,,,,,,,,,,,,AMNE20.jpg,AMNE07.jpg,AMSA09.jpg,AMSA07.jpg,AMSA09.jpg,MS,2,num_2,32,num_4,0.666799239116,,,2017_Mar_30_1040,60.0066016147,MAFE4ImagesEEG,001,200059,
AFNE01.JPG,AFNE01.JPG,AFNE01.JPG,AFNE01.JPG,AFNE01.JPG,AFNE01.JPG,0,9,9,7,,,,,,,,,,,,,,,,,,,,,,,AMNE02.jpg,AMSA09.jpg,AMNE15.jpg,AMSA07.jpg,AMSA07.jpg,MS,2,num_4,16,num_4,0.783505832544,,,2017_Mar_30_1040,60.0066016147,MAFE4ImagesEEG,001,200059,
AFNE01.JPG,AFNE01.JPG,AFNE01.JPG,AFNE01.JPG,AFNE01.JPG,AFNE01.JPG,1,0,10,7,,,,,,,,,,,,,,,,,,,,,,,AMSA07.jpg,AMSA12.jpg,AMNE14.jpg,AMNE12.jpg,AMSA07.jpg,MS,2,num_8,16,num_8,0.766774445772,,,2017_Mar_30_1040,60.0066016147,MAFE4ImagesEEG,001,200059,
AFNE01.JPG,AFNE01.JPG,AFNE01.JPG,AFNE01.JPG,AFNE01.JPG,AFNE01.JPG,1,1,11,3,,,,,,,,,,,,,,,,,,,,,,,AMNE04.jpg,AMSA20.jpg,AMNE10.jpg,AMSA18.jpg,AMSA18.jpg,MS,2,num_4,16,num_4,0.950125938514,,,2017_Mar_30_1040,60.0066016147,MAFE4ImagesEEG,001,200059,
AFNE01.JPG,AFNE01.JPG,AFNE01.JPG,AFNE01.JPG,AFNE01.JPG,AFNE01.JPG,1,2,12,0,,,,,,,,,,,,,,,,,,,,,,,AMSA16.jpg,AMNE06.jpg,AMSA03.jpg,AMNE02.jpg,AMSA16.jpg,MS,2,num_8,32,num_2,0.650126227178,,,2017_Mar_30_1040,60.0066016147,MAFE4ImagesEEG,001,200059,
AFNE01.JPG,AFNE01.JPG,AFNE01.JPG,AFNE01.JPG,AFNE01.JPG,AFNE01.JPG,1,3,13,8,,,,,,,,,,,,,,,,,,,,,,,AMNE02.jpg,AMSA15.jpg,AMSA20.jpg,AMNE20.jpg,AMNE02.jpg,MN,1,num_8,32,num_4,0.850130845793,,,2017_Mar_30_1040,60.0066016147,MAFE4ImagesEEG,001,200059,
AFNE01.JPG,AFNE01.JPG,AFNE01.JPG,AFNE01.JPG,AFNE01.JPG,AFNE01.JPG,1,4,14,9,,,,,,,,,,,,,,,,,,,,,,,AMSA04.jpg,AMNE17.jpg,AMNE09.jpg,AMSA07.jpg,AMSA04.jpg,MS,2,num_8,16,num_8,0.816776482621,,,2017_Mar_30_1040,60.0066016147,MAFE4ImagesEEG,001,200059,
AFNE01.JPG,AFNE01.JPG,AFNE01.JPG,AFNE01.JPG,AFNE01.JPG,AFNE01.JPG,1,5,15,6,,,,,,,,,,,,,,,,,,,,,,,AMNE11.jpg,AMSA13.jpg,AMNE07.jpg,AMSA03.jpg,AMSA13.jpg,MS,2,num_6,32,num_4,0.716780107003,,,2017_Mar_30_1040,60.0066016147,MAFE4ImagesEEG,001,200059,
AFNE01.JPG,AFNE01.JPG,AFNE01.JPG,AFNE01.JPG,AFNE01.JPG,AFNE01.JPG,1,6,16,4,,,,,,,,,,,,,,,,,,,,,,,AMSA09.jpg,AMNE15.jpg,AMSA11.jpg,AMNE12.jpg,AMSA09.jpg,MS,2,num_8,16,num_8,0.900109789101,,,2017_Mar_30_1040,60.0066016147,MAFE4ImagesEEG,001,200059,
AFNE01.JPG,AFNE01.JPG,AFNE01.JPG,AFNE01.JPG,AFNE01.JPG,AFNE01.JPG,1,7,17,2,,,,,,,,,,,,,,,,,,,,,,,AMNE09.jpg,AMNE02.jpg,AMSA01.jpg,AMSA07.jpg,AMNE09.jpg,MN,1,num_8,32,num_6,0.966813704465,,,2017_Mar_30_1040,60.0066016147,MAFE4ImagesEEG,001,200059,
AFNE01.JPG,AFNE01.JPG,AFNE01.JPG,AFNE01.JPG,AFNE01.JPG,AFNE01.JPG,1,8,18,1,,,,,,,,,,,,,,,,,,,,,,,AMSA12.jpg,AMNE13.jpg,AMSA05.jpg,AMNE06.jpg,AMNE06.jpg,MN,1,num_4,16,num_4,0.800102187786,,,2017_Mar_30_1040,60.0066016147,MAFE4ImagesEEG,001,200059,
AFNE01.JPG,AFNE01.JPG,AFNE01.JPG,AFNE01.JPG,AFNE01.JPG,AFNE01.JPG,1,9,19,5,,,,,,,,,,,,,,,,,,,,,,,AMSA08.jpg,AMSA17.jpg,AMNE11.jpg,AMNE02.jpg,AMNE11.jpg,MN,1,num_2,32,num_4,0.750131904148,,,2017_Mar_30_1040,60.0066016147,MAFE4ImagesEEG,001,200059,
AFNE01.JPG,AFNE01.JPG,AFNE01.JPG,AFNE01.JPG,AFNE01.JPG,AFNE01.JPG,2,0,20,8,,,,,,,,,,,,,,,,,,,,,,,AMSA15.jpg,AMSA01.jpg,AMNE12.jpg,AMNE08.jpg,AMNE08.jpg,MN,1,num_4,16,num_4,0.600202771602,,,2017_Mar_30_1040,60.0066016147,MAFE4ImagesEEG,001,200059,
AFNE01.JPG,AFNE01.JPG,AFNE01.JPG,AFNE01.JPG,AFNE01.JPG,AFNE01.JPG,2,1,21,1,,,,,,,,,,,,,,,,,,,,,,,AMSA02.jpg,AMNE19.jpg,AMSA06.jpg,AMNE07.jpg,AMSA06.jpg,MS,2,num_2,16,num_2,1.10011055903,,,2017_Mar_30_1040,60.0066016147,MAFE4ImagesEEG,001,200059,
AFNE01.JPG,AFNE01.JPG,AFNE01.JPG,AFNE01.JPG,AFNE01.JPG,AFNE01.JPG,2,2,22,7,,,,,,,,,,,,,,,,,,,,,,,AMNE06.jpg,AMNE16.jpg,AMSA16.jpg,AMSA03.jpg,AMSA03.jpg,MS,2,num_4,16,num_4,0.616796240211,,,2017_Mar_30_1040,60.0066016147,MAFE4ImagesEEG,001,200059,
AFNE01.JPG,AFNE01.JPG,AFNE01.JPG,AFNE01.JPG,AFNE01.JPG,AFNE01.JPG,2,3,23,2,,,,,,,,,,,,,,,,,,,,,,,AMNE18.jpg,AMSA05.jpg,AMSA13.jpg,AMNE14.jpg,AMNE14.jpg,MN,1,num_4,16,num_4,0.650121095357,,,2017_Mar_30_1040,60.0066016147,MAFE4ImagesEEG,001,200059,
AFNE01.JPG,AFNE01.JPG,AFNE01.JPG,AFNE01.JPG,AFNE01.JPG,AFNE01.JPG,2,4,24,4,,,,,,,,,,,,,,,,,,,,,,,AMSA12.jpg,AMNE04.jpg,AMNE12.jpg,AMSA10.jpg,AMNE12.jpg,MN,1,num_2,16,num_2,1.00008788262,,,2017_Mar_30_1040,60.0066016147,MAFE4ImagesEEG,001,200059,
AFNE01.JPG,AFNE01.JPG,AFNE01.JPG,AFNE01.JPG,AFNE01.JPG,AFNE01.JPG,2,5,25,0,,,,,,,,,,,,,,,,,,,,,,,AMSA06.jpg,AMNE03.jpg,AMNE19.jpg,AMSA09.jpg,AMNE03.jpg,MN,1,num_6,16,num_6,0.983437001938,,,2017_Mar_30_1040,60.0066016147,MAFE4ImagesEEG,001,200059,
AFNE01.JPG,AFNE01.JPG,AFNE01.JPG,AFNE01.JPG,AFNE01.JPG,AFNE01.JPG,2,6,26,6,,,,,,,,,,,,,,,,,,,,,,,AMSA10.jpg,AMNE11.jpg,AMSA12.jpg,AMNE04.jpg,AMSA10.jpg,MS,2,num_8,32,num_2,0.950100600021,,,2017_Mar_30_1040,60.0066016147,MAFE4ImagesEEG,001,200059,
AFNE01.JPG,AFNE01.JPG,AFNE01.JPG,AFNE01.JPG,AFNE01.JPG,AFNE01.JPG,2,7,27,9,,,,,,,,,,,,,,,,,,,,,,,AMNE14.jpg,AMSA20.jpg,AMSA10.jpg,AMNE05.jpg,AMSA10.jpg,MS,2,num_2,32,num_6,0.633467969252,,,2017_Mar_30_1040,60.0066016147,MAFE4ImagesEEG,001,200059,
AFNE01.JPG,AFNE01.JPG,AFNE01.JPG,AFNE01.JPG,AFNE01.JPG,AFNE01.JPG,2,8,28,3,,,,,,,,,,,,,,,,,,,,,,,AMNE13.jpg,AMSA05.jpg,AMNE02.jpg,AMSA08.jpg,AMNE13.jpg,MN,1,num_8,16,num_8,0.866786858533,,,2017_Mar_30_1040,60.0066016147,MAFE4ImagesEEG,001,200059,
AFNE01.JPG,AFNE01.JPG,AFNE01.JPG,AFNE01.JPG,AFNE01.JPG,AFNE01.JPG,2,9,29,5,,,,,,,,,,,,,,,,,,,,,,,AMNE14.jpg,AMSA15.jpg,AMSA12.jpg,AMNE05.jpg,AMSA15.jpg,MS,2,num_6,16,num_6,0.833152168896,,,2017_Mar_30_1040,60.0066016147,MAFE4ImagesEEG,001,200059,
AFNE01.JPG,AFNE01.JPG,AFNE01.JPG,AFNE01.JPG,AFNE01.JPG,AFNE01.JPG,3,0,30,6,,,,,,,,,,,,,,,,,,,,,,,AMSA06.jpg,AMNE13.jpg,AMSA10.jpg,AMNE10.jpg,AMSA06.jpg,MS,2,num_8,16,num_8,0.650266711134,,,2017_Mar_30_1040,60.0066016147,MAFE4ImagesEEG,001,200059,
AFNE01.JPG,AFNE01.JPG,AFNE01.JPG,AFNE01.JPG,AFNE01.JPG,AFNE01.JPG,3,1,31,8,,,,,,,,,,,,,,,,,,,,,,,AMNE17.jpg,AMSA10.jpg,AMSA14.jpg,AMNE18.jpg,AMNE18.jpg,MN,1,num_4,16,num_4,0.716916100588,,,2017_Mar_30_1040,60.0066016147,MAFE4ImagesEEG,001,200059,
AFNE01.JPG,AFNE01.JPG,AFNE01.JPG,AFNE01.JPG,AFNE01.JPG,AFNE01.JPG,3,2,32,4,,,,,,,,,,,,,,,,,,,,,,,AMSA13.jpg,AMSA06.jpg,AMNE17.jpg,AMNE07.jpg,AMSA06.jpg,MS,2,num_6,16,num_6,0.683469685027,,,2017_Mar_30_1040,60.0066016147,MAFE4ImagesEEG,001,200059,
AFNE01.JPG,AFNE01.JPG,AFNE01.JPG,AFNE01.JPG,AFNE01.JPG,AFNE01.JPG,3,3,33,0,,,,,,,,,,,,,,,,,,,,,,,AMSA05.jpg,AMSA02.jpg,AMNE14.jpg,AMNE01.jpg,AMNE14.jpg,MN,1,num_2,16,num_2,0.716873442056,,,2017_Mar_30_1040,60.0066016147,MAFE4ImagesEEG,001,200059,
AFNE01.JPG,AFNE01.JPG,AFNE01.JPG,AFNE01.JPG,AFNE01.JPG,AFNE01.JPG,3,4,34,1,,,,,,,,,,,,,,,,,,,,,,,AMNE11.jpg,AMNE01.jpg,AMSA13.jpg,AMSA14.jpg,AMSA13.jpg,MS,2,num_2,16,num_2,0.816759804031,,,2017_Mar_30_1040,60.0066016147,MAFE4ImagesEEG,001,200059,
AFNE01.JPG,AFNE01.JPG,AFNE01.JPG,AFNE01.JPG,AFNE01.JPG,AFNE01.JPG,3,5,35,3,,,,,,,,,,,,,,,,,,,,,,,AMNE16.jpg,AMSA12.jpg,AMSA13.jpg,AMNE05.jpg,AMSA13.jpg,MS,2,num_2,32,num_6,0.98343507736,,,2017_Mar_30_1040,60.0066016147,MAFE4ImagesEEG,001,200059,
AFNE01.JPG,AFNE01.JPG,AFNE01.JPG,AFNE01.JPG,AFNE01.JPG,AFNE01.JPG,3,6,36,9,,,,,,,,,,,,,,,,,,,,,,,AMNE06.jpg,AMSA20.jpg,AMSA15.jpg,AMNE03.jpg,AMSA15.jpg,MS,2,num_2,16,num_2,0.733503795695,,,2017_Mar_30_1040,60.0066016147,MAFE4ImagesEEG,001,200059,
AFNE01.JPG,AFNE01.JPG,AFNE01.JPG,AFNE01.JPG,AFNE01.JPG,AFNE01.JPG,3,7,37,7,,,,,,,,,,,,,,,,,,,,,,,AMNE11.jpg,AMNE03.jpg,AMSA16.jpg,AMSA05.jpg,AMNE03.jpg,MN,1,num_6,32,num_8,0.50018747244,,,2017_Mar_30_1040,60.0066016147,MAFE4ImagesEEG,001,200059,
AFNE01.JPG,AFNE01.JPG,AFNE01.JPG,AFNE01.JPG,AFNE01.JPG,AFNE01.JPG,3,8,38,2,,,,,,,,,,,,,,,,,,,,,,,AMNE13.jpg,AMSA09.jpg,AMNE10.jpg,AMSA18.jpg,AMNE13.jpg,MN,1,num_8,16,num_8,0.600130926119,,,2017_Mar_30_1040,60.0066016147,MAFE4ImagesEEG,001,200059,
AFNE01.JPG,AFNE01.JPG,AFNE01.JPG,AFNE01.JPG,AFNE01.JPG,AFNE01.JPG,3,9,39,5,,,,,,,,,,,,,,,,,,,,,,,AMSA08.jpg,AMNE15.jpg,AMNE06.jpg,AMSA03.jpg,AMNE15.jpg,MN,1,num_6,16,num_6,0.750154997455,,,2017_Mar_30_1040,60.0066016147,MAFE4ImagesEEG,001,200059,
AFNE01.JPG,AFNE01.JPG,AFNE01.JPG,AFNE01.JPG,AFNE01.JPG,AFNE01.JPG,4,0,40,7,,,,,,,,,,,,,,,,,,,,,,,AMNE20.jpg,AMSA08.jpg,AMNE12.jpg,AMSA19.jpg,AMSA08.jpg,MS,2,num_6,16,num_6,0.966817873996,,,2017_Mar_30_1040,60.0066016147,MAFE4ImagesEEG,001,200059,
AFNE01.JPG,AFNE01.JPG,AFNE01.JPG,AFNE01.JPG,AFNE01.JPG,AFNE01.JPG,4,1,41,5,,,,,,,,,,,,,,,,,,,,,,,AMSA01.jpg,AMNE01.jpg,AMNE10.jpg,AMSA07.jpg,AMNE10.jpg,MN,1,num_2,32,num_4,0.933467359748,,,2017_Mar_30_1040,60.0066016147,MAFE4ImagesEEG,001,200059,
AFNE01.JPG,AFNE01.JPG,AFNE01.JPG,AFNE01.JPG,AFNE01.JPG,AFNE01.JPG,4,2,42,0,,,,,,,,,,,,,,,,,,,,,,,AMNE09.jpg,AMSA15.jpg,AMNE17.jpg,AMSA14.jpg,AMNE17.jpg,MN,1,num_2,32,num_8,0.883449927671,,,2017_Mar_30_1040,60.0066016147,MAFE4ImagesEEG,001,200059,
AFNE01.JPG,AFNE01.JPG,AFNE01.JPG,AFNE01.JPG,AFNE01.JPG,AFNE01.JPG,4,3,43,8,,,,,,,,,,,,,,,,,,,,,,,AMNE06.jpg,AMSA15.jpg,AMSA12.jpg,AMNE09.jpg,AMSA15.jpg,MS,2,num_6,16,num_6,0.53345106612,,,2017_Mar_30_1040,60.0066016147,MAFE4ImagesEEG,001,200059,
AFNE01.JPG,AFNE01.JPG,AFNE01.JPG,AFNE01.JPG,AFNE01.JPG,AFNE01.JPG,4,4,44,6,,,,,,,,,,,,,,,,,,,,,,,AMSA20.jpg,AMNE09.jpg,AMNE03.jpg,AMSA16.jpg,AMNE03.jpg,MN,1,num_2,16,num_2,1.85002724687,,,2017_Mar_30_1040,60.0066016147,MAFE4ImagesEEG,001,200059,
AFNE01.JPG,AFNE01.JPG,AFNE01.JPG,AFNE01.JPG,AFNE01.JPG,AFNE01.JPG,4,5,45,2,,,,,,,,,,,,,,,,,,,,,,,AMSA03.jpg,AMNE17.jpg,AMNE08.jpg,AMSA18.jpg,AMSA18.jpg,MS,2,num_4,16,num_4,0.683448836906,,,2017_Mar_30_1040,60.0066016147,MAFE4ImagesEEG,001,200059,
AFNE01.JPG,AFNE01.JPG,AFNE01.JPG,AFNE01.JPG,AFNE01.JPG,AFNE01.JPG,4,6,46,4,,,,,,,,,,,,,,,,,,,,,,,AMSA04.jpg,AMNE20.jpg,AMNE01.jpg,AMSA01.jpg,AMNE20.jpg,MN,1,num_6,16,num_6,0.650138736004,,,2017_Mar_30_1040,60.0066016147,MAFE4ImagesEEG,001,200059,
AFNE01.JPG,AFNE01.JPG,AFNE01.JPG,AFNE01.JPG,AFNE01.JPG,AFNE01.JPG,4,7,47,1,,,,,,,,,,,,,,,,,,,,,,,AMSA11.jpg,AMNE14.jpg,AMSA16.jpg,AMNE11.jpg,AMNE14.jpg,MN,1,num_6,16,num_6,0.550131455064,,,2017_Mar_30_1040,60.0066016147,MAFE4ImagesEEG,001,200059,
AFNE01.JPG,AFNE01.JPG,AFNE01.JPG,AFNE01.JPG,AFNE01.JPG,AFNE01.JPG,4,8,48,9,,,,,,,,,,,,,,,,,,,,,,,AMNE17.jpg,AMSA10.jpg,AMSA13.jpg,AMNE02.jpg,AMSA10.jpg,MS,2,num_6,32,num_2,0.550152624026,,,2017_Mar_30_1040,60.0066016147,MAFE4ImagesEEG,001,200059,
AFNE01.JPG,AFNE01.JPG,AFNE01.JPG,AFNE01.JPG,AFNE01.JPG,AFNE01.JPG,4,9,49,3,,,,,,,,,,,,,,,,,,,,,,,AMSA09.jpg,AMSA20.jpg,AMNE10.jpg,AMNE07.jpg,AMNE10.jpg,MN,1,num_2,32,num_4,0.700161299901,,,2017_Mar_30_1040,60.0066016147,MAFE4ImagesEEG,001,200059,
AFNE01.JPG,AFNE01.JPG,AFNE01.JPG,AFNE01.JPG,AFNE01.JPG,AFNE01.JPG,5,0,50,1,,,,,,,,,,,,,,,,,,,,,,,AMSA13.jpg,AMSA17.jpg,AMNE03.jpg,AMNE09.jpg,AMSA17.jpg,MS,2,num_6,32,num_4,0.783435590565,,,2017_Mar_30_1040,60.0066016147,MAFE4ImagesEEG,001,200059,
AFNE01.JPG,AFNE01.JPG,AFNE01.JPG,AFNE01.JPG,AFNE01.JPG,AFNE01.JPG,5,1,51,6,,,,,,,,,,,,,,,,,,,,,,,AMSA13.jpg,AMSA05.jpg,AMNE01.jpg,AMNE18.jpg,AMSA05.jpg,MS,2,num_6,32,num_4,1.23343595932,,,2017_Mar_30_1040,60.0066016147,MAFE4ImagesEEG,001,200059,
AFNE01.JPG,AFNE01.JPG,AFNE01.JPG,AFNE01.JPG,AFNE01.JPG,AFNE01.JPG,5,2,52,4,,,,,,,,,,,,,,,,,,,,,,,AMNE15.jpg,AMNE20.jpg,AMSA02.jpg,AMSA09.jpg,AMSA02.jpg,MS,2,num_2,16,num_2,1.33367609722,,,2017_Mar_30_1040,60.0066016147,MAFE4ImagesEEG,001,200059,
AFNE01.JPG,AFNE01.JPG,AFNE01.JPG,AFNE01.JPG,AFNE01.JPG,AFNE01.JPG,5,3,53,3,,,,,,,,,,,,,,,,,,,,,,,AMSA01.jpg,AMNE17.jpg,AMNE07.jpg,AMSA05.jpg,AMSA05.jpg,MS,2,num_4,16,num_4,0.783476324519,,,2017_Mar_30_1040,60.0066016147,MAFE4ImagesEEG,001,200059,
AFNE01.JPG,AFNE01.JPG,AFNE01.JPG,AFNE01.JPG,AFNE01.JPG,AFNE01.JPG,5,4,54,8,,,,,,,,,,,,,,,,,,,,,,,AMNE14.jpg,AMSA15.jpg,AMSA11.jpg,AMNE07.jpg,AMSA11.jpg,MS,2,num_2,16,num_2,0.916756179882,,,2017_Mar_30_1040,60.0066016147,MAFE4ImagesEEG,001,200059,
AFNE01.JPG,AFNE01.JPG,AFNE01.JPG,AFNE01.JPG,AFNE01.JPG,AFNE01.JPG,5,5,55,2,,,,,,,,,,,,,,,,,,,,,,,AMSA06.jpg,AMNE04.jpg,AMNE12.jpg,AMSA04.jpg,AMNE12.jpg,MN,1,num_2,32,num_6,0.616813239409,,,2017_Mar_30_1040,60.0066016147,MAFE4ImagesEEG,001,200059,
AFNE01.JPG,AFNE01.JPG,AFNE01.JPG,AFNE01.JPG,AFNE01.JPG,AFNE01.JPG,5,6,56,9,,,,,,,,,,,,,,,,,,,,,,,AMSA06.jpg,AMSA19.jpg,AMNE09.jpg,AMNE18.jpg,AMSA19.jpg,MS,2,num_6,32,num_8,0.85011577094,,,2017_Mar_30_1040,60.0066016147,MAFE4ImagesEEG,001,200059,
AFNE01.JPG,AFNE01.JPG,AFNE01.JPG,AFNE01.JPG,AFNE01.JPG,AFNE01.JPG,5,7,57,5,,,,,,,,,,,,,,,,,,,,,,,AMSA14.jpg,AMNE03.jpg,AMSA02.jpg,AMNE01.jpg,AMSA14.jpg,MS,2,num_8,16,num_8,0.466635854216,,,2017_Mar_30_1040,60.0066016147,MAFE4ImagesEEG,001,200059,
AFNE01.JPG,AFNE01.JPG,AFNE01.JPG,AFNE01.JPG,AFNE01.JPG,AFNE01.JPG,5,8,58,7,,,,,,,,,,,,,,,,,,,,,,,AMNE11.jpg,AMNE09.jpg,AMSA18.jpg,AMSA12.jpg,AMNE09.jpg,MN,1,num_6,32,num_8,0.566776242107,,,2017_Mar_30_1040,60.0066016147,MAFE4ImagesEEG,001,200059,
AFNE01.JPG,AFNE01.JPG,AFNE01.JPG,AFNE01.JPG,AFNE01.JPG,AFNE01.JPG,5,9,59,0,,,,,,,,,,,,,,,,,,,,,,,AMNE14.jpg,AMSA05.jpg,AMSA12.jpg,AMNE02.jpg,AMNE02.jpg,MN,1,num_4,16,num_4,0.783334878273,,,2017_Mar_30_1040,60.0066016147,MAFE4ImagesEEG,001,200059,
,,,,,,,,,,,,,,,,,,,,,,,,,,,,,,,,,,,,,,,,,,,space,4.16648764047,2017_Mar_30_1040,60.0066016147,MAFE4ImagesEEG,001,200059,
AFNE01.JPG,AFNE01.JPG,AFNE01.JPG,AFNE01.JPG,AFNE01.JPG,AFNE01.JPG,,,,,0,0,0,4,,,,,,,,,,,,,,,,,,,AFSA19.jpg,AFSA09.jpg,AFNE06.jpg,AFNE11.jpg,AFNE11.jpg,FN,3,num_4,32,num_6,0.650128151523,,,2017_Mar_30_1040,60.0066016147,MAFE4ImagesEEG,001,200059,
AFNE01.JPG,AFNE01.JPG,AFNE01.JPG,AFNE01.JPG,AFNE01.JPG,AFNE01.JPG,,,,,0,1,1,8,,,,,,,,,,,,,,,,,,,AFSA13.jpg,AFNE18.jpg,AFNE08.jpg,AFSA04.jpg,AFSA13.jpg,FS,4,num_8,16,num_8,0.716816350352,,,2017_Mar_30_1040,60.0066016147,MAFE4ImagesEEG,001,200059,
AFNE01.JPG,AFNE01.JPG,AFNE01.JPG,AFNE01.JPG,AFNE01.JPG,AFNE01.JPG,,,,,0,2,2,7,,,,,,,,,,,,,,,,,,,AFSA03.jpg,AFSA17.jpg,AFNE17.jpg,AFNE02.jpg,AFNE17.jpg,FN,3,num_2,32,num_4,0.766775728902,,,2017_Mar_30_1040,60.0066016147,MAFE4ImagesEEG,001,200059,
AFNE01.JPG,AFNE01.JPG,AFNE01.JPG,AFNE01.JPG,AFNE01.JPG,AFNE01.JPG,,,,,0,3,3,2,,,,,,,,,,,,,,,,,,,AFSA11.jpg,AFNE19.jpg,AFSA09.jpg,AFNE13.jpg,AFSA11.jpg,FS,4,num_8,16,num_8,0.433519800659,,,2017_Mar_30_1040,60.0066016147,MAFE4ImagesEEG,001,200059,
AFNE01.JPG,AFNE01.JPG,AFNE01.JPG,AFNE01.JPG,AFNE01.JPG,AFNE01.JPG,,,,,0,4,4,9,,,,,,,,,,,,,,,,,,,AFSA13.jpg,AFNE01.jpg,AFSA16.jpg,AFNE08.jpg,AFNE01.jpg,FN,3,num_6,32,num_4,0.516803392675,,,2017_Mar_30_1040,60.0066016147,MAFE4ImagesEEG,001,200059,
AFNE01.JPG,AFNE01.JPG,AFNE01.JPG,AFNE01.JPG,AFNE01.JPG,AFNE01.JPG,,,,,0,5,5,6,,,,,,,,,,,,,,,,,,,AFNE13.jpg,AFNE20.jpg,AFSA07.jpg,AFSA12.jpg,AFNE13.jpg,FN,3,num_8,16,num_8,0.516768752597,,,2017_Mar_30_1040,60.0066016147,MAFE4ImagesEEG,001,200059,
AFNE01.JPG,AFNE01.JPG,AFNE01.JPG,AFNE01.JPG,AFNE01.JPG,AFNE01.JPG,,,,,0,6,6,1,,,,,,,,,,,,,,,,,,,AFNE18.jpg,AFNE19.jpg,AFSA08.jpg,AFSA19.jpg,AFSA08.jpg,FS,4,num_2,32,num_8,0.783442967571,,,2017_Mar_30_1040,60.0066016147,MAFE4ImagesEEG,001,200059,
AFNE01.JPG,AFNE01.JPG,AFNE01.JPG,AFNE01.JPG,AFNE01.JPG,AFNE01.JPG,,,,,0,7,7,5,,,,,,,,,,,,,,,,,,,AFNE11.jpg,AFSA01.jpg,AFSA15.jpg,AFNE13.jpg,AFNE13.jpg,FN,3,num_4,16,num_4,0.866817008238,,,2017_Mar_30_1040,60.0066016147,MAFE4ImagesEEG,001,200059,
AFNE01.JPG,AFNE01.JPG,AFNE01.JPG,AFNE01.JPG,AFNE01.JPG,AFNE01.JPG,,,,,0,8,8,3,,,,,,,,,,,,,,,,,,,AFSA16.jpg,AFNE01.jpg,AFNE17.jpg,AFSA17.jpg,AFNE17.jpg,FN,3,num_2,32,num_6,0.766854951624,,,2017_Mar_30_1040,60.0066016147,MAFE4ImagesEEG,001,200059,
AFNE01.JPG,AFNE01.JPG,AFNE01.JPG,AFNE01.JPG,AFNE01.JPG,AFNE01.JPG,,,,,0,9,9,0,,,,,,,,,,,,,,,,,,,AFNE11.jpg,AFSA15.jpg,AFSA19.jpg,AFNE09.jpg,AFSA15.jpg,FS,4,num_6,32,num_2,1.00011001388,,,2017_Mar_30_1040,60.0066016147,MAFE4ImagesEEG,001,200059,
AFNE01.JPG,AFNE01.JPG,AFNE01.JPG,AFNE01.JPG,AFNE01.JPG,AFNE01.JPG,,,,,1,0,10,9,,,,,,,,,,,,,,,,,,,AFSA03.jpg,AFSA15.jpg,AFNE03.jpg,AFNE06.jpg,AFSA03.jpg,FS,4,num_8,16,num_8,0.566808636766,,,2017_Mar_30_1040,60.0066016147,MAFE4ImagesEEG,001,200059,
AFNE01.JPG,AFNE01.JPG,AFNE01.JPG,AFNE01.JPG,AFNE01.JPG,AFNE01.JPG,,,,,1,1,11,2,,,,,,,,,,,,,,,,,,,AFSA20.jpg,AFNE10.jpg,AFNE09.jpg,AFSA03.jpg,AFNE10.jpg,FN,3,num_6,16,num_6,0.833447570214,,,2017_Mar_30_1040,60.0066016147,MAFE4ImagesEEG,001,200059,
AFNE01.JPG,AFNE01.JPG,AFNE01.JPG,AFNE01.JPG,AFNE01.JPG,AFNE01.JPG,,,,,1,2,12,6,,,,,,,,,,,,,,,,,,,AFSA04.jpg,AFSA17.jpg,AFNE06.jpg,AFNE20.jpg,AFNE20.jpg,FN,3,num_4,16,num_4,0.55013883207,,,2017_Mar_30_1040,60.0066016147,MAFE4ImagesEEG,001,200059,
AFNE01.JPG,AFNE01.JPG,AFNE01.JPG,AFNE01.JPG,AFNE01.JPG,AFNE01.JPG,,,,,1,3,13,0,,,,,,,,,,,,,,,,,,,AFNE14.jpg,AFSA01.jpg,AFNE19.jpg,AFSA03.jpg,AFSA01.jpg,FS,4,num_6,32,num_4,0.850134373875,,,2017_Mar_30_1040,60.0066016147,MAFE4ImagesEEG,001,200059,
AFNE01.JPG,AFNE01.JPG,AFNE01.JPG,AFNE01.JPG,AFNE01.JPG,AFNE01.JPG,,,,,1,4,14,4,,,,,,,,,,,,,,,,,,,AFNE01.jpg,AFSA03.jpg,AFSA18.jpg,AFNE08.jpg,AFNE08.jpg,FN,3,num_4,32,num_8,0.700181185966,,,2017_Mar_30_1040,60.0066016147,MAFE4ImagesEEG,001,200059,
AFNE01.JPG,AFNE01.JPG,AFNE01.JPG,AFNE01.JPG,AFNE01.JPG,AFNE01.JPG,,,,,1,5,15,1,,,,,,,,,,,,,,,,,,,AFNE06.jpg,AFSA01.jpg,AFSA09.jpg,AFNE01.jpg,AFSA01.jpg,FS,4,num_6,32,num_2,0.816757558845,,,2017_Mar_30_1040,60.0066016147,MAFE4ImagesEEG,001,200059,
AFNE01.JPG,AFNE01.JPG,AFNE01.JPG,AFNE01.JPG,AFNE01.JPG,AFNE01.JPG,,,,,1,6,16,8,,,,,,,,,,,,,,,,,,,AFNE07.jpg,AFSA07.jpg,AFNE14.jpg,AFSA09.jpg,AFSA07.jpg,FS,4,num_6,16,num_6,1.15009206813,,,2017_Mar_30_1040,60.0066016147,MAFE4ImagesEEG,001,200059,
AFNE01.JPG,AFNE01.JPG,AFNE01.JPG,AFNE01.JPG,AFNE01.JPG,AFNE01.JPG,,,,,1,7,17,7,,,,,,,,,,,,,,,,,,,AFSA16.jpg,AFSA04.jpg,AFNE10.jpg,AFNE05.jpg,AFNE05.jpg,FN,3,num_4,16,num_4,0.783485946478,,,2017_Mar_30_1040,60.0066016147,MAFE4ImagesEEG,001,200059,
AFNE01.JPG,AFNE01.JPG,AFNE01.JPG,AFNE01.JPG,AFNE01.JPG,AFNE01.JPG,,,,,1,8,18,3,,,,,,,,,,,,,,,,,,,AFNE11.jpg,AFNE12.jpg,AFSA09.jpg,AFSA02.jpg,AFNE11.jpg,FN,3,num_8,16,num_8,1.03344898135,,,2017_Mar_30_1040,60.0066016147,MAFE4ImagesEEG,001,200059,
AFNE01.JPG,AFNE01.JPG,AFNE01.JPG,AFNE01.JPG,AFNE01.JPG,AFNE01.JPG,,,,,1,9,19,5,,,,,,,,,,,,,,,,,,,AFSA11.jpg,AFSA01.jpg,AFNE03.jpg,AFNE16.jpg,AFNE16.jpg,FN,3,num_4,16,num_4,0.616861991817,,,2017_Mar_30_1040,60.0066016147,MAFE4ImagesEEG,001,200059,
AFNE01.JPG,AFNE01.JPG,AFNE01.JPG,AFNE01.JPG,AFNE01.JPG,AFNE01.JPG,,,,,2,0,20,7,,,,,,,,,,,,,,,,,,,AFNE05.jpg,AFSA02.jpg,AFSA18.jpg,AFNE07.jpg,AFNE05.jpg,FN,3,num_8,16,num_8,0.500132625923,,,2017_Mar_30_1040,60.0066016147,MAFE4ImagesEEG,001,200059,
AFNE01.JPG,AFNE01.JPG,AFNE01.JPG,AFNE01.JPG,AFNE01.JPG,AFNE01.JPG,,,,,2,1,21,6,,,,,,,,,,,,,,,,,,,AFSA05.jpg,AFSA09.jpg,AFNE13.jpg,AFNE04.jpg,AFNE13.jpg,FN,3,num_2,32,num_4,0.733463703422,,,2017_Mar_30_1040,60.0066016147,MAFE4ImagesEEG,001,200059,
AFNE01.JPG,AFNE01.JPG,AFNE01.JPG,AFNE01.JPG,AFNE01.JPG,AFNE01.JPG,,,,,2,2,22,4,,,,,,,,,,,,,,,,,,,AFSA16.jpg,AFNE07.jpg,AFSA08.jpg,AFNE09.jpg,AFSA08.jpg,FS,4,num_2,32,num_6,1.21671708161,,,2017_Mar_30_1040,60.0066016147,MAFE4ImagesEEG,001,200059,
AFNE01.JPG,AFNE01.JPG,AFNE01.JPG,AFNE01.JPG,AFNE01.JPG,AFNE01.JPG,,,,,2,3,23,2,,,,,,,,,,,,,,,,,,,AFSA05.jpg,AFSA14.jpg,AFNE05.jpg,AFNE19.jpg,AFSA05.jpg,FS,4,num_8,32,num_4,0.666798597667,,,2017_Mar_30_1040,60.0066016147,MAFE4ImagesEEG,001,200059,
AFNE01.JPG,AFNE01.JPG,AFNE01.JPG,AFNE01.JPG,AFNE01.JPG,AFNE01.JPG,,,,,2,4,24,5,,,,,,,,,,,,,,,,,,,AFSA16.jpg,AFSA11.jpg,AFNE18.jpg,AFNE03.jpg,AFNE03.jpg,FN,3,num_4,16,num_4,0.716777861817,,,2017_Mar_30_1040,60.0066016147,MAFE4ImagesEEG,001,200059,
AFNE01.JPG,AFNE01.JPG,AFNE01.JPG,AFNE01.JPG,AFNE01.JPG,AFNE01.JPG,,,,,2,5,25,3,,,,,,,,,,,,,,,,,,,AFNE04.jpg,AFSA04.jpg,AFNE20.jpg,AFSA18.jpg,AFNE20.jpg,FN,3,num_2,32,num_8,0.650149641093,,,2017_Mar_30_1040,60.0066016147,MAFE4ImagesEEG,001,200059,
AFNE01.JPG,AFNE01.JPG,AFNE01.JPG,AFNE01.JPG,AFNE01.JPG,AFNE01.JPG,,,,,2,6,26,1,,,,,,,,,,,,,,,,,,,AFNE02.jpg,AFNE13.jpg,AFSA09.jpg,AFSA01.jpg,AFSA01.jpg,FS,4,num_4,16,num_4,0.500156360446,,,2017_Mar_30_1040,60.0066016147,MAFE4ImagesEEG,001,200059,
AFNE01.JPG,AFNE01.JPG,AFNE01.JPG,AFNE01.JPG,AFNE01.JPG,AFNE01.JPG,,,,,2,7,27,0,,,,,,,,,,,,,,,,,,,AFNE12.jpg,AFSA12.jpg,AFNE15.jpg,AFSA19.jpg,AFNE12.jpg,FN,3,num_8,16,num_8,0.683486042777,,,2017_Mar_30_1040,60.0066016147,MAFE4ImagesEEG,001,200059,
AFNE01.JPG,AFNE01.JPG,AFNE01.JPG,AFNE01.JPG,AFNE01.JPG,AFNE01.JPG,,,,,2,8,28,8,,,,,,,,,,,,,,,,,,,AFNE13.jpg,AFSA03.jpg,AFNE15.jpg,AFSA10.jpg,AFSA10.jpg,FS,4,num_4,16,num_4,0.816767501878,,,2017_Mar_30_1040,60.0066016147,MAFE4ImagesEEG,001,200059,
AFNE01.JPG,AFNE01.JPG,AFNE01.JPG,AFNE01.JPG,AFNE01.JPG,AFNE01.JPG,,,,,2,9,29,9,,,,,,,,,,,,,,,,,,,AFNE19.jpg,AFSA16.jpg,AFNE01.jpg,AFSA09.jpg,AFNE01.jpg,FN,3,num_2,32,num_8,0.73345792992,,,2017_Mar_30_1040,60.0066016147,MAFE4ImagesEEG,001,200059,
AFNE01.JPG,AFNE01.JPG,AFNE01.JPG,AFNE01.JPG,AFNE01.JPG,AFNE01.JPG,,,,,3,0,30,3,,,,,,,,,,,,,,,,,,,AFNE01.jpg,AFNE07.jpg,AFSA11.jpg,AFSA15.jpg,AFNE01.jpg,FN,3,num_8,16,num_8,0.799948874163,,,2017_Mar_30_1040,60.0066016147,MAFE4ImagesEEG,001,200059,
AFNE01.JPG,AFNE01.JPG,AFNE01.JPG,AFNE01.JPG,AFNE01.JPG,AFNE01.JPG,,,,,3,1,31,5,,,,,,,,,,,,,,,,,,,AFSA18.jpg,AFSA05.jpg,AFNE20.jpg,AFNE01.jpg,AFNE01.jpg,FN,3,num_4,16,num_4,0.716783635085,,,2017_Mar_30_1040,60.0066016147,MAFE4ImagesEEG,001,200059,
AFNE01.JPG,AFNE01.JPG,AFNE01.JPG,AFNE01.JPG,AFNE01.JPG,AFNE01.JPG,,,,,3,2,32,8,,,,,,,,,,,,,,,,,,,AFNE17.jpg,AFSA19.jpg,AFNE13.jpg,AFSA09.jpg,AFSA19.jpg,FS,4,num_6,16,num_6,0.500128456159,,,2017_Mar_30_1040,60.0066016147,MAFE4ImagesEEG,001,200059,
AFNE01.JPG,AFNE01.JPG,AFNE01.JPG,AFNE01.JPG,AFNE01.JPG,AFNE01.JPG,,,,,3,3,33,0,,,,,,,,,,,,,,,,,,,AFSA19.jpg,AFNE14.jpg,AFSA16.jpg,AFNE05.jpg,AFSA16.jpg,FS,4,num_2,16,num_2,1.01680483599,,,2017_Mar_30_1040,60.0066016147,MAFE4ImagesEEG,001,200059,
AFNE01.JPG,AFNE01.JPG,AFNE01.JPG,AFNE01.JPG,AFNE01.JPG,AFNE01.JPG,,,,,3,4,34,1,,,,,,,,,,,,,,,,,,,AFSA04.jpg,AFSA18.jpg,AFNE18.jpg,AFNE07.jpg,AFNE18.jpg,FN,3,num_2,32,num_4,0.700117037864,,,2017_Mar_30_1040,60.0066016147,MAFE4ImagesEEG,001,200059,
AFNE01.JPG,AFNE01.JPG,AFNE01.JPG,AFNE01.JPG,AFNE01.JPG,AFNE01.JPG,,,,,3,5,35,4,,,,,,,,,,,,,,,,,,,AFNE16.jpg,AFSA14.jpg,AFSA13.jpg,AFNE03.jpg,AFSA14.jpg,FS,4,num_6,32,num_2,0.650231109001,,,2017_Mar_30_1040,60.0066016147,MAFE4ImagesEEG,001,200059,
AFNE01.JPG,AFNE01.JPG,AFNE01.JPG,AFNE01.JPG,AFNE01.JPG,AFNE01.JPG,,,,,3,6,36,6,,,,,,,,,,,,,,,,,,,AFSA05.jpg,AFNE10.jpg,AFSA12.jpg,AFNE17.jpg,AFNE10.jpg,FN,3,num_6,16,num_6,0.916768047027,,,2017_Mar_30_1040,60.0066016147,MAFE4ImagesEEG,001,200059,
AFNE01.JPG,AFNE01.JPG,AFNE01.JPG,AFNE01.JPG,AFNE01.JPG,AFNE01.JPG,,,,,3,7,37,9,,,,,,,,,,,,,,,,,,,AFSA14.jpg,AFNE06.jpg,AFSA02.jpg,AFNE17.jpg,AFNE06.jpg,FN,3,num_6,32,num_8,0.550146529917,,,2017_Mar_30_1040,60.0066016147,MAFE4ImagesEEG,001,200059,
AFNE01.JPG,AFNE01.JPG,AFNE01.JPG,AFNE01.JPG,AFNE01.JPG,AFNE01.JPG,,,,,3,8,38,2,,,,,,,,,,,,,,,,,,,AFSA01.jpg,AFNE01.jpg,AFNE11.jpg,AFSA11.jpg,AFNE11.jpg,FN,3,num_2,16,num_2,0.617051228182,,,2017_Mar_30_1040,60.0066016147,MAFE4ImagesEEG,001,200059,
AFNE01.JPG,AFNE01.JPG,AFNE01.JPG,AFNE01.JPG,AFNE01.JPG,AFNE01.JPG,,,,,3,9,39,7,,,,,,,,,,,,,,,,,,,AFSA09.jpg,AFSA08.jpg,AFNE19.jpg,AFNE05.jpg,AFSA09.jpg,FS,4,num_8,16,num_8,0.633400613908,,,2017_Mar_30_1040,60.0066016147,MAFE4ImagesEEG,001,200059,
AFNE01.JPG,AFNE01.JPG,AFNE01.JPG,AFNE01.JPG,AFNE01.JPG,AFNE01.JPG,,,,,4,0,40,2,,,,,,,,,,,,,,,,,,,AFNE06.jpg,AFSA14.jpg,AFSA04.jpg,AFNE16.jpg,AFNE16.jpg,FN,3,num_4,16,num_4,0.700144300703,,,2017_Mar_30_1040,60.0066016147,MAFE4ImagesEEG,001,200059,
AFNE01.JPG,AFNE01.JPG,AFNE01.JPG,AFNE01.JPG,AFNE01.JPG,AFNE01.JPG,,,,,4,1,41,7,,,,,,,,,,,,,,,,,,,AFNE12.jpg,AFNE02.jpg,AFSA03.jpg,AFSA17.jpg,AFSA03.jpg,FS,4,num_2,32,num_4,0.63351158984,,,2017_Mar_30_1040,60.0066016147,MAFE4ImagesEEG,001,200059,
AFNE01.JPG,AFNE01.JPG,AFNE01.JPG,AFNE01.JPG,AFNE01.JPG,AFNE01.JPG,,,,,4,2,42,9,,,,,,,,,,,,,,,,,,,AFNE04.jpg,AFSA14.jpg,AFSA02.jpg,AFNE01.jpg,AFNE01.jpg,FN,3,num_4,16,num_4,0.716764069861,,,2017_Mar_30_1040,60.0066016147,MAFE4ImagesEEG,001,200059,
AFNE01.JPG,AFNE01.JPG,AFNE01.JPG,AFNE01.JPG,AFNE01.JPG,AFNE01.JPG,,,,,4,3,43,8,,,,,,,,,,,,,,,,,,,AFNE15.jpg,AFSA01.jpg,AFSA20.jpg,AFNE04.jpg,AFSA20.jpg,FS,4,num_2,32,num_6,0.816759483423,,,2017_Mar_30_1040,60.0066016147,MAFE4ImagesEEG,001,200059,
AFNE01.JPG,AFNE01.JPG,AFNE01.JPG,AFNE01.JPG,AFNE01.JPG,AFNE01.JPG,,,,,4,4,44,3,,,,,,,,,,,,,,,,,,,AFNE15.jpg,AFSA04.jpg,AFNE05.jpg,AFSA17.jpg,AFSA04.jpg,FS,4,num_6,32,num_4,0.43345565279,,,2017_Mar_30_1040,60.0066016147,MAFE4ImagesEEG,001,200059,
AFNE01.JPG,AFNE01.JPG,AFNE01.JPG,AFNE01.JPG,AFNE01.JPG,AFNE01.JPG,,,,,4,5,45,0,,,,,,,,,,,,,,,,,,,AFNE03.jpg,AFNE04.jpg,AFSA15.jpg,AFSA14.jpg,AFNE03.jpg,FN,3,num_8,16,num_8,0.633486251114,,,2017_Mar_30_1040,60.0066016147,MAFE4ImagesEEG,001,200059,
AFNE01.JPG,AFNE01.JPG,AFNE01.JPG,AFNE01.JPG,AFNE01.JPG,AFNE01.JPG,,,,,4,6,46,5,,,,,,,,,,,,,,,,,,,AFNE05.jpg,AFSA08.jpg,AFNE07.jpg,AFSA16.jpg,AFSA08.jpg,FS,4,num_6,32,num_4,0.650130396709,,,2017_Mar_30_1040,60.0066016147,MAFE4ImagesEEG,001,200059,
AFNE01.JPG,AFNE01.JPG,AFNE01.JPG,AFNE01.JPG,AFNE01.JPG,AFNE01.JPG,,,,,4,7,47,4,,,,,,,,,,,,,,,,,,,AFNE11.jpg,AFSA15.jpg,AFNE14.jpg,AFSA10.jpg,AFSA10.jpg,FS,4,num_4,16,num_4,0.783487229375,,,2017_Mar_30_1040,60.0066016147,MAFE4ImagesEEG,001,200059,
AFNE01.JPG,AFNE01.JPG,AFNE01.JPG,AFNE01.JPG,AFNE01.JPG,AFNE01.JPG,,,,,4,8,48,1,,,,,,,,,,,,,,,,,,,AFSA03.jpg,AFNE18.jpg,AFNE17.jpg,AFSA18.jpg,AFNE17.jpg,FN,3,num_2,32,num_6,0.866638035281,,,2017_Mar_30_1040,60.0066016147,MAFE4ImagesEEG,001,200059,
AFNE01.JPG,AFNE01.JPG,AFNE01.JPG,AFNE01.JPG,AFNE01.JPG,AFNE01.JPG,,,,,4,9,49,6,,,,,,,,,,,,,,,,,,,AFNE19.jpg,AFSA03.jpg,AFSA01.jpg,AFNE20.jpg,AFSA01.jpg,FS,4,num_2,32,num_6,0.933458699845,,,2017_Mar_30_1040,60.0066016147,MAFE4ImagesEEG,001,200059,
AFNE01.JPG,AFNE01.JPG,AFNE01.JPG,AFNE01.JPG,AFNE01.JPG,AFNE01.JPG,,,,,5,0,50,5,,,,,,,,,,,,,,,,,,,AFNE07.jpg,AFSA12.jpg,AFNE13.jpg,AFSA11.jpg,AFNE07.jpg,FN,3,num_8,32,num_2,0.783388120821,,,2017_Mar_30_1040,60.0066016147,MAFE4ImagesEEG,001,200059,
AFNE01.JPG,AFNE01.JPG,AFNE01.JPG,AFNE01.JPG,AFNE01.JPG,AFNE01.JPG,,,,,5,1,51,0,,,,,,,,,,,,,,,,,,,AFSA15.jpg,AFSA16.jpg,AFNE09.jpg,AFNE16.jpg,AFSA15.jpg,FS,4,num_8,16,num_8,0.650149961933,,,2017_Mar_30_1040,60.0066016147,MAFE4ImagesEEG,001,200059,
AFNE01.JPG,AFNE01.JPG,AFNE01.JPG,AFNE01.JPG,AFNE01.JPG,AFNE01.JPG,,,,,5,2,52,7,,,,,,,,,,,,,,,,,,,AFSA03.jpg,AFNE14.jpg,AFSA04.jpg,AFNE11.jpg,AFNE11.jpg,FN,3,num_4,16,num_4,0.866811555577,,,2017_Mar_30_1040,60.0066016147,MAFE4ImagesEEG,001,200059,
AFNE01.JPG,AFNE01.JPG,AFNE01.JPG,AFNE01.JPG,AFNE01.JPG,AFNE01.JPG,,,,,5,3,53,8,,,,,,,,,,,,,,,,,,,AFSA14.jpg,AFNE06.jpg,AFSA13.jpg,AFNE15.jpg,AFSA13.jpg,FS,4,num_2,32,num_8,1.15012574592,,,2017_Mar_30_1040,60.0066016147,MAFE4ImagesEEG,001,200059,
AFNE01.JPG,AFNE01.JPG,AFNE01.JPG,AFNE01.JPG,AFNE01.JPG,AFNE01.JPG,,,,,5,4,54,3,,,,,,,,,,,,,,,,,,,AFSA17.jpg,AFNE18.jpg,AFNE01.jpg,AFSA01.jpg,AFSA01.jpg,FS,4,num_4,16,num_4,0.666851519607,,,2017_Mar_30_1040,60.0066016147,MAFE4ImagesEEG,001,200059,
AFNE01.JPG,AFNE01.JPG,AFNE01.JPG,AFNE01.JPG,AFNE01.JPG,AFNE01.JPG,,,,,5,5,55,1,,,,,,,,,,,,,,,,,,,AFNE19.jpg,AFSA20.jpg,AFSA09.jpg,AFNE14.jpg,AFNE19.jpg,FN,3,num_8,32,num_4,0.766792727867,,,2017_Mar_30_1040,60.0066016147,MAFE4ImagesEEG,001,200059,
AFNE01.JPG,AFNE01.JPG,AFNE01.JPG,AFNE01.JPG,AFNE01.JPG,AFNE01.JPG,,,,,5,6,56,2,,,,,,,,,,,,,,,,,,,AFNE04.jpg,AFSA10.jpg,AFSA11.jpg,AFNE03.jpg,AFNE03.jpg,FN,3,num_4,16,num_4,0.816770709353,,,2017_Mar_30_1040,60.0066016147,MAFE4ImagesEEG,001,200059,
AFNE01.JPG,AFNE01.JPG,AFNE01.JPG,AFNE01.JPG,AFNE01.JPG,AFNE01.JPG,,,,,5,7,57,9,,,,,,,,,,,,,,,,,,,AFSA07.jpg,AFSA20.jpg,AFNE08.jpg,AFNE09.jpg,AFNE09.jpg,FN,3,num_4,16,num_4,0.683481873246,,,2017_Mar_30_1040,60.0066016147,MAFE4ImagesEEG,001,200059,
AFNE01.JPG,AFNE01.JPG,AFNE01.JPG,AFNE01.JPG,AFNE01.JPG,AFNE01.JPG,,,,,5,8,58,6,,,,,,,,,,,,,,,,,,,AFSA11.jpg,AFNE15.jpg,AFNE08.jpg,AFSA06.jpg,AFNE08.jpg,FN,3,num_2,32,num_6,0.699847937329,,,2017_Mar_30_1040,60.0066016147,MAFE4ImagesEEG,001,200059,
AFNE01.JPG,AFNE01.JPG,AFNE01.JPG,AFNE01.JPG,AFNE01.JPG,AFNE01.JPG,,,,,5,9,59,4,,,,,,,,,,,,,,,,,,,AFSA08.jpg,AFNE09.jpg,AFNE05.jpg,AFSA10.jpg,AFNE05.jpg,FN,3,num_2,32,num_8,0.666788013186,,,2017_Mar_30_1040,60.0066016147,MAFE4ImagesEEG,001,200059,
,,,,,,,,,,,,,,,,,,,,,,,,,,,,,,,,,,,,,,,,,,,space,11.5828789789,2017_Mar_30_1040,60.0066016147,MAFE4ImagesEEG,001,200059,
AFNE01.JPG,AFNE01.JPG,AFNE01.JPG,AFNE01.JPG,AFNE01.JPG,AFNE01.JPG,,,,,,,,,0,0,0,0,,,,,,,,,,,,,,,AMSA01.jpg,AMSA06.jpg,AMNE19.jpg,AMNE17.jpg,AMSA06.jpg,MS,2,num_6,32,num_8,0.783463494852,,,2017_Mar_30_1040,60.0066016147,MAFE4ImagesEEG,001,200059,
AFNE01.JPG,AFNE01.JPG,AFNE01.JPG,AFNE01.JPG,AFNE01.JPG,AFNE01.JPG,,,,,,,,,0,1,1,5,,,,,,,,,,,,,,,AMNE16.jpg,AMSA12.jpg,AMNE05.jpg,AMSA15.jpg,AMSA12.jpg,MS,2,num_6,32,num_4,0.966778744012,,,2017_Mar_30_1040,60.0066016147,MAFE4ImagesEEG,001,200059,
AFNE01.JPG,AFNE01.JPG,AFNE01.JPG,AFNE01.JPG,AFNE01.JPG,AFNE01.JPG,,,,,,,,,0,2,2,9,,,,,,,,,,,,,,,AMSA02.jpg,AMNE04.jpg,AMNE17.jpg,AMSA13.jpg,AMSA13.jpg,MS,2,num_4,16,num_4,0.633452252951,,,2017_Mar_30_1040,60.0066016147,MAFE4ImagesEEG,001,200059,
AFNE01.JPG,AFNE01.JPG,AFNE01.JPG,AFNE01.JPG,AFNE01.JPG,AFNE01.JPG,,,,,,,,,0,3,3,8,,,,,,,,,,,,,,,AMSA17.jpg,AMNE17.jpg,AMNE12.jpg,AMSA05.jpg,AMSA05.jpg,MS,2,num_4,16,num_4,0.90011075139,,,2017_Mar_30_1040,60.0066016147,MAFE4ImagesEEG,001,200059,
AFNE01.JPG,AFNE01.JPG,AFNE01.JPG,AFNE01.JPG,AFNE01.JPG,AFNE01.JPG,,,,,,,,,0,4,4,3,,,,,,,,,,,,,,,AMSA17.jpg,AMNE13.jpg,AMSA14.jpg,AMNE18.jpg,AMNE13.jpg,MN,1,num_6,32,num_4,0.866765368963,,,2017_Mar_30_1040,60.0066016147,MAFE4ImagesEEG,001,200059,
AFNE01.JPG,AFNE01.JPG,AFNE01.JPG,AFNE01.JPG,AFNE01.JPG,AFNE01.JPG,,,,,,,,,0,5,5,6,,,,,,,,,,,,,,,AMSA13.jpg,AMNE15.jpg,AMNE13.jpg,AMSA12.jpg,AMSA13.jpg,MS,2,num_8,32,num_4,0.516803392675,,,2017_Mar_30_1040,60.0066016147,MAFE4ImagesEEG,001,200059,
AFNE01.JPG,AFNE01.JPG,AFNE01.JPG,AFNE01.JPG,AFNE01.JPG,AFNE01.JPG,,,,,,,,,0,6,6,4,,,,,,,,,,,,,,,AMNE07.jpg,AMSA13.jpg,AMSA07.jpg,AMNE06.jpg,AMSA07.jpg,MS,2,num_2,16,num_2,0.633449366083,,,2017_Mar_30_1040,60.0066016147,MAFE4ImagesEEG,001,200059,
AFNE01.JPG,AFNE01.JPG,AFNE01.JPG,AFNE01.JPG,AFNE01.JPG,AFNE01.JPG,,,,,,,,,0,7,7,2,,,,,,,,,,,,,,,AMSA07.jpg,AMNE03.jpg,AMSA12.jpg,AMNE12.jpg,AMSA12.jpg,MS,2,num_2,32,num_8,0.666483631358,,,2017_Mar_30_1040,60.0066016147,MAFE4ImagesEEG,001,200059,
AFNE01.JPG,AFNE01.JPG,AFNE01.JPG,AFNE01.JPG,AFNE01.JPG,AFNE01.JPG,,,,,,,,,0,8,8,1,,,,,,,,,,,,,,,AMNE07.jpg,AMSA04.jpg,AMNE20.jpg,AMSA19.jpg,AMNE20.jpg,MN,1,num_2,32,num_4,0.766773483716,,,2017_Mar_30_1040,60.0066016147,MAFE4ImagesEEG,001,200059,
AFNE01.JPG,AFNE01.JPG,AFNE01.JPG,AFNE01.JPG,AFNE01.JPG,AFNE01.JPG,,,,,,,,,0,9,9,7,,,,,,,,,,,,,,,AMNE12.jpg,AMSA06.jpg,AMSA03.jpg,AMNE04.jpg,AMSA03.jpg,MS,2,num_2,16,num_2,0.516840919154,,,2017_Mar_30_1040,60.0066016147,MAFE4ImagesEEG,001,200059,
AFNE01.JPG,AFNE01.JPG,AFNE01.JPG,AFNE01.JPG,AFNE01.JPG,AFNE01.JPG,,,,,,,,,1,0,10,4,,,,,,,,,,,,,,,AMSA03.jpg,AMSA12.jpg,AMNE12.jpg,AMNE02.jpg,AMSA03.jpg,MS,2,num_8,32,num_4,0.433484840207,,,2017_Mar_30_1040,60.0066016147,MAFE4ImagesEEG,001,200059,
AFNE01.JPG,AFNE01.JPG,AFNE01.JPG,AFNE01.JPG,AFNE01.JPG,AFNE01.JPG,,,,,,,,,1,1,11,3,,,,,,,,,,,,,,,AMSA12.jpg,AMNE20.jpg,AMSA02.jpg,AMNE06.jpg,AMSA12.jpg,MS,2,num_8,16,num_8,0.900111393072,,,2017_Mar_30_1040,60.0066016147,MAFE4ImagesEEG,001,200059,
AFNE01.JPG,AFNE01.JPG,AFNE01.JPG,AFNE01.JPG,AFNE01.JPG,AFNE01.JPG,,,,,,,,,1,2,12,2,,,,,,,,,,,,,,,AMSA17.jpg,AMNE12.jpg,AMNE07.jpg,AMSA20.jpg,AMNE07.jpg,MN,1,num_2,32,num_6,0.666755939135,,,2017_Mar_30_1040,60.0066016147,MAFE4ImagesEEG,001,200059,
AFNE01.JPG,AFNE01.JPG,AFNE01.JPG,AFNE01.JPG,AFNE01.JPG,AFNE01.JPG,,,,,,,,,1,3,13,1,,,,,,,,,,,,,,,AMNE18.jpg,AMSA17.jpg,AMSA20.jpg,AMNE12.jpg,AMSA20.jpg,MS,2,num_2,16,num_2,0.616754543968,,,2017_Mar_30_1040,60.0066016147,MAFE4ImagesEEG,001,200059,
AFNE01.JPG,AFNE01.JPG,AFNE01.JPG,AFNE01.JPG,AFNE01.JPG,AFNE01.JPG,,,,,,,,,1,4,14,6,,,,,,,,,,,,,,,AMNE19.jpg,AMSA12.jpg,AMSA03.jpg,AMNE02.jpg,AMSA03.jpg,MS,2,num_2,16,num_2,0.683477062033,,,2017_Mar_30_1040,60.0066016147,MAFE4ImagesEEG,001,200059,
AFNE01.JPG,AFNE01.JPG,AFNE01.JPG,AFNE01.JPG,AFNE01.JPG,AFNE01.JPG,,,,,,,,,1,5,15,5,,,,,,,,,,,,,,,AMNE01.jpg,AMNE16.jpg,AMSA15.jpg,AMSA02.jpg,AMNE01.jpg,MN,1,num_8,32,num_4,0.799984796904,,,2017_Mar_30_1040,60.0066016147,MAFE4ImagesEEG,001,200059,
AFNE01.JPG,AFNE01.JPG,AFNE01.JPG,AFNE01.JPG,AFNE01.JPG,AFNE01.JPG,,,,,,,,,1,6,16,8,,,,,,,,,,,,,,,AMNE03.jpg,AMSA09.jpg,AMNE15.jpg,AMSA02.jpg,AMNE15.jpg,MN,1,num_2,32,num_6,0.883278973168,,,2017_Mar_30_1040,60.0066016147,MAFE4ImagesEEG,001,200059,
AFNE01.JPG,AFNE01.JPG,AFNE01.JPG,AFNE01.JPG,AFNE01.JPG,AFNE01.JPG,,,,,,,,,1,7,17,9,,,,,,,,,,,,,,,AMSA13.jpg,AMNE01.jpg,AMNE17.jpg,AMSA17.jpg,AMNE01.jpg,MN,1,num_6,16,num_6,0.683451723773,,,2017_Mar_30_1040,60.0066016147,MAFE4ImagesEEG,001,200059,
AFNE01.JPG,AFNE01.JPG,AFNE01.JPG,AFNE01.JPG,AFNE01.JPG,AFNE01.JPG,,,,,,,,,1,8,18,7,,,,,,,,,,,,,,,AMSA03.jpg,AMSA14.jpg,AMNE19.jpg,AMNE04.jpg,AMNE04.jpg,MN,1,num_4,16,num_4,0.900128071196,,,2017_Mar_30_1040,60.0066016147,MAFE4ImagesEEG,001,200059,
AFNE01.JPG,AFNE01.JPG,AFNE01.JPG,AFNE01.JPG,AFNE01.JPG,AFNE01.JPG,,,,,,,,,1,9,19,0,,,,,,,,,,,,,,,AMSA19.jpg,AMSA03.jpg,AMNE08.jpg,AMNE04.jpg,AMNE08.jpg,MN,1,num_2,32,num_4,0.683485401329,,,2017_Mar_30_1040,60.0066016147,MAFE4ImagesEEG,001,200059,
AFNE01.JPG,AFNE01.JPG,AFNE01.JPG,AFNE01.JPG,AFNE01.JPG,AFNE01.JPG,,,,,,,,,2,0,20,9,,,,,,,,,,,,,,,AMSA04.jpg,AMNE11.jpg,AMSA08.jpg,AMNE20.jpg,AMSA08.jpg,MS,2,num_2,16,num_2,0.533608549275,,,2017_Mar_30_1040,60.0066016147,MAFE4ImagesEEG,001,200059,
AFNE01.JPG,AFNE01.JPG,AFNE01.JPG,AFNE01.JPG,AFNE01.JPG,AFNE01.JPG,,,,,,,,,2,1,21,5,,,,,,,,,,,,,,,AMSA04.jpg,AMNE10.jpg,AMNE07.jpg,AMSA11.jpg,AMSA11.jpg,MS,2,num_4,32,num_8,0.750192524167,,,2017_Mar_30_1040,60.0066016147,MAFE4ImagesEEG,001,200059,
AFNE01.JPG,AFNE01.JPG,AFNE01.JPG,AFNE01.JPG,AFNE01.JPG,AFNE01.JPG,,,,,,,,,2,2,22,1,,,,,,,,,,,,,,,AMNE02.jpg,AMSA14.jpg,AMNE03.jpg,AMSA11.jpg,AMSA11.jpg,MS,2,num_4,16,num_4,0.516828089487,,,2017_Mar_30_1040,60.0066016147,MAFE4ImagesEEG,001,200059,
AFNE01.JPG,AFNE01.JPG,AFNE01.JPG,AFNE01.JPG,AFNE01.JPG,AFNE01.JPG,,,,,,,,,2,3,23,2,,,,,,,,,,,,,,,AMSA04.jpg,AMSA06.jpg,AMNE03.jpg,AMNE08.jpg,AMNE03.jpg,MN,1,num_2,16,num_2,1.40006953641,,,2017_Mar_30_1040,60.0066016147,MAFE4ImagesEEG,001,200059,
AFNE01.JPG,AFNE01.JPG,AFNE01.JPG,AFNE01.JPG,AFNE01.JPG,AFNE01.JPG,,,,,,,,,2,4,24,4,,,,,,,,,,,,,,,AMSA15.jpg,AMNE13.jpg,AMNE17.jpg,AMSA11.jpg,AMNE13.jpg,MN,1,num_6,32,num_8,0.35020830459,,,2017_Mar_30_1040,60.0066016147,MAFE4ImagesEEG,001,200059,
AFNE01.JPG,AFNE01.JPG,AFNE01.JPG,AFNE01.JPG,AFNE01.JPG,AFNE01.JPG,,,,,,,,,2,5,25,3,,,,,,,,,,,,,,,AMSA10.jpg,AMNE20.jpg,AMSA05.jpg,AMNE09.jpg,AMNE20.jpg,MN,1,num_6,16,num_6,0.700283822604,,,2017_Mar_30_1040,60.0066016147,MAFE4ImagesEEG,001,200059,
AFNE01.JPG,AFNE01.JPG,AFNE01.JPG,AFNE01.JPG,AFNE01.JPG,AFNE01.JPG,,,,,,,,,2,6,26,0,,,,,,,,,,,,,,,AMNE07.jpg,AMSA02.jpg,AMNE01.jpg,AMSA11.jpg,AMNE01.jpg,MN,1,num_2,32,num_4,1.03349131905,,,2017_Mar_30_1040,60.0066016147,MAFE4ImagesEEG,001,200059,
AFNE01.JPG,AFNE01.JPG,AFNE01.JPG,AFNE01.JPG,AFNE01.JPG,AFNE01.JPG,,,,,,,,,2,7,27,8,,,,,,,,,,,,,,,AMSA14.jpg,AMSA01.jpg,AMNE19.jpg,AMNE07.jpg,AMSA14.jpg,MS,2,num_8,16,num_8,0.500129418448,,,2017_Mar_30_1040,60.0066016147,MAFE4ImagesEEG,001,200059,
AFNE01.JPG,AFNE01.JPG,AFNE01.JPG,AFNE01.JPG,AFNE01.JPG,AFNE01.JPG,,,,,,,,,2,8,28,6,,,,,,,,,,,,,,,AMSA06.jpg,AMSA03.jpg,AMNE08.jpg,AMNE03.jpg,AMNE08.jpg,MN,1,num_2,32,num_4,0.716766315047,,,2017_Mar_30_1040,60.0066016147,MAFE4ImagesEEG,001,200059,
AFNE01.JPG,AFNE01.JPG,AFNE01.JPG,AFNE01.JPG,AFNE01.JPG,AFNE01.JPG,,,,,,,,,2,9,29,7,,,,,,,,,,,,,,,AMSA18.jpg,AMNE06.jpg,AMSA04.jpg,AMNE04.jpg,AMNE06.jpg,MN,1,num_6,32,num_4,0.600152736064,,,2017_Mar_30_1040,60.0066016147,MAFE4ImagesEEG,001,200059,
AFNE01.JPG,AFNE01.JPG,AFNE01.JPG,AFNE01.JPG,AFNE01.JPG,AFNE01.JPG,,,,,,,,,3,0,30,5,,,,,,,,,,,,,,,AMSA10.jpg,AMNE15.jpg,AMNE18.jpg,AMSA16.jpg,AMNE18.jpg,MN,1,num_2,16,num_2,0.666772938333,,,2017_Mar_30_1040,60.0066016147,MAFE4ImagesEEG,001,200059,
AFNE01.JPG,AFNE01.JPG,AFNE01.JPG,AFNE01.JPG,AFNE01.JPG,AFNE01.JPG,,,,,,,,,3,1,31,6,,,,,,,,,,,,,,,AMSA15.jpg,AMSA10.jpg,AMNE17.jpg,AMNE08.jpg,AMNE08.jpg,MN,1,num_4,16,num_4,0.683458459331,,,2017_Mar_30_1040,60.0066016147,MAFE4ImagesEEG,001,200059,
AFNE01.JPG,AFNE01.JPG,AFNE01.JPG,AFNE01.JPG,AFNE01.JPG,AFNE01.JPG,,,,,,,,,3,2,32,8,,,,,,,,,,,,,,,AMNE13.jpg,AMSA10.jpg,AMSA18.jpg,AMNE19.jpg,AMSA10.jpg,MS,2,num_6,32,num_2,0.766767389607,,,2017_Mar_30_1040,60.0066016147,MAFE4ImagesEEG,001,200059,
AFNE01.JPG,AFNE01.JPG,AFNE01.JPG,AFNE01.JPG,AFNE01.JPG,AFNE01.JPG,,,,,,,,,3,3,33,9,,,,,,,,,,,,,,,AMNE08.jpg,AMSA16.jpg,AMSA09.jpg,AMNE16.jpg,AMNE16.jpg,MN,1,num_4,16,num_4,0.700106453383,,,2017_Mar_30_1040,60.0066016147,MAFE4ImagesEEG,001,200059,
AFNE01.JPG,AFNE01.JPG,AFNE01.JPG,AFNE01.JPG,AFNE01.JPG,AFNE01.JPG,,,,,,,,,3,4,34,4,,,,,,,,,,,,,,,AMNE08.jpg,AMSA05.jpg,AMNE02.jpg,AMSA18.jpg,AMSA05.jpg,MS,2,num_6,16,num_6,0.816763653187,,,2017_Mar_30_1040,60.0066016147,MAFE4ImagesEEG,001,200059,
AFNE01.JPG,AFNE01.JPG,AFNE01.JPG,AFNE01.JPG,AFNE01.JPG,AFNE01.JPG,,,,,,,,,3,5,35,3,,,,,,,,,,,,,,,AMSA06.jpg,AMSA05.jpg,AMNE18.jpg,AMNE13.jpg,AMNE13.jpg,MN,1,num_4,16,num_4,1.01672368869,,,2017_Mar_30_1040,60.0066016147,MAFE4ImagesEEG,001,200059,
AFNE01.JPG,AFNE01.JPG,AFNE01.JPG,AFNE01.JPG,AFNE01.JPG,AFNE01.JPG,,,,,,,,,3,6,36,7,,,,,,,,,,,,,,,AMNE19.jpg,AMSA11.jpg,AMNE13.jpg,AMSA15.jpg,AMNE13.jpg,MN,1,num_2,32,num_8,0.666632133536,,,2017_Mar_30_1040,60.0066016147,MAFE4ImagesEEG,001,200059,
AFNE01.JPG,AFNE01.JPG,AFNE01.JPG,AFNE01.JPG,AFNE01.JPG,AFNE01.JPG,,,,,,,,,3,7,37,0,,,,,,,,,,,,,,,AMSA13.jpg,AMNE13.jpg,AMNE12.jpg,AMSA14.jpg,AMNE13.jpg,MN,1,num_6,32,num_8,0.716794540174,,,2017_Mar_30_1040,60.0066016147,MAFE4ImagesEEG,001,200059,
AFNE01.JPG,AFNE01.JPG,AFNE01.JPG,AFNE01.JPG,AFNE01.JPG,AFNE01.JPG,,,,,,,,,3,8,38,2,,,,,,,,,,,,,,,AMSA17.jpg,AMNE10.jpg,AMSA10.jpg,AMNE05.jpg,AMNE10.jpg,MN,1,num_6,32,num_4,0.733557680156,,,2017_Mar_30_1040,60.0066016147,MAFE4ImagesEEG,001,200059,
AFNE01.JPG,AFNE01.JPG,AFNE01.JPG,AFNE01.JPG,AFNE01.JPG,AFNE01.JPG,,,,,,,,,3,9,39,1,,,,,,,,,,,,,,,AMNE04.jpg,AMSA07.jpg,AMNE13.jpg,AMSA13.jpg,AMSA13.jpg,MS,2,num_4,16,num_4,0.666448028991,,,2017_Mar_30_1040,60.0066016147,MAFE4ImagesEEG,001,200059,
AFNE01.JPG,AFNE01.JPG,AFNE01.JPG,AFNE01.JPG,AFNE01.JPG,AFNE01.JPG,,,,,,,,,4,0,40,0,,,,,,,,,,,,,,,AMNE15.jpg,AMSA17.jpg,AMNE07.jpg,AMSA13.jpg,AMSA13.jpg,MS,2,num_4,32,num_6,0.966735764872,,,2017_Mar_30_1040,60.0066016147,MAFE4ImagesEEG,001,200059,
AFNE01.JPG,AFNE01.JPG,AFNE01.JPG,AFNE01.JPG,AFNE01.JPG,AFNE01.JPG,,,,,,,,,4,1,41,3,,,,,,,,,,,,,,,AMSA02.jpg,AMNE08.jpg,AMSA07.jpg,AMNE04.jpg,AMSA07.jpg,MS,2,num_2,16,num_2,1.26676530484,,,2017_Mar_30_1040,60.0066016147,MAFE4ImagesEEG,001,200059,
AFNE01.JPG,AFNE01.JPG,AFNE01.JPG,AFNE01.JPG,AFNE01.JPG,AFNE01.JPG,,,,,,,,,4,2,42,4,,,,,,,,,,,,,,,AMNE13.jpg,AMSA15.jpg,AMNE16.jpg,AMSA12.jpg,AMSA15.jpg,MS,2,num_6,16,num_6,0.933158487314,,,2017_Mar_30_1040,60.0066016147,MAFE4ImagesEEG,001,200059,
AFNE01.JPG,AFNE01.JPG,AFNE01.JPG,AFNE01.JPG,AFNE01.JPG,AFNE01.JPG,,,,,,,,,4,3,43,5,,,,,,,,,,,,,,,AMSA20.jpg,AMNE06.jpg,AMNE01.jpg,AMSA18.jpg,AMSA18.jpg,MS,2,num_4,16,num_4,0.566757639172,,,2017_Mar_30_1040,60.0066016147,MAFE4ImagesEEG,001,200059,
AFNE01.JPG,AFNE01.JPG,AFNE01.JPG,AFNE01.JPG,AFNE01.JPG,AFNE01.JPG,,,,,,,,,4,4,44,1,,,,,,,,,,,,,,,AMNE12.jpg,AMNE01.jpg,AMSA03.jpg,AMSA15.jpg,AMNE01.jpg,MN,1,num_6,16,num_6,0.566815051716,,,2017_Mar_30_1040,60.0066016147,MAFE4ImagesEEG,001,200059,
AFNE01.JPG,AFNE01.JPG,AFNE01.JPG,AFNE01.JPG,AFNE01.JPG,AFNE01.JPG,,,,,,,,,4,5,45,9,,,,,,,,,,,,,,,AMNE05.jpg,AMSA17.jpg,AMNE15.jpg,AMSA19.jpg,AMNE15.jpg,MN,1,num_2,32,num_4,0.683494382072,,,2017_Mar_30_1040,60.0066016147,MAFE4ImagesEEG,001,200059,
AFNE01.JPG,AFNE01.JPG,AFNE01.JPG,AFNE01.JPG,AFNE01.JPG,AFNE01.JPG,,,,,,,,,4,6,46,7,,,,,,,,,,,,,,,AMNE20.jpg,AMSA12.jpg,AMSA01.jpg,AMNE19.jpg,AMSA01.jpg,MS,2,num_2,32,num_4,0.616789504653,,,2017_Mar_30_1040,60.0066016147,MAFE4ImagesEEG,001,200059,
AFNE01.JPG,AFNE01.JPG,AFNE01.JPG,AFNE01.JPG,AFNE01.JPG,AFNE01.JPG,,,,,,,,,4,7,47,8,,,,,,,,,,,,,,,AMNE05.jpg,AMSA03.jpg,AMSA19.jpg,AMNE12.jpg,AMNE05.jpg,MN,1,num_8,16,num_8,0.70008881297,,,2017_Mar_30_1040,60.0066016147,MAFE4ImagesEEG,001,200059,
AFNE01.JPG,AFNE01.JPG,AFNE01.JPG,AFNE01.JPG,AFNE01.JPG,AFNE01.JPG,,,,,,,,,4,8,48,2,,,,,,,,,,,,,,,AMNE13.jpg,AMNE06.jpg,AMSA11.jpg,AMSA01.jpg,AMSA01.jpg,MS,2,num_4,16,num_4,0.450132192811,,,2017_Mar_30_1040,60.0066016147,MAFE4ImagesEEG,001,200059,
AFNE01.JPG,AFNE01.JPG,AFNE01.JPG,AFNE01.JPG,AFNE01.JPG,AFNE01.JPG,,,,,,,,,4,9,49,6,,,,,,,,,,,,,,,AMSA07.jpg,AMNE14.jpg,AMSA17.jpg,AMNE18.jpg,AMSA17.jpg,MS,2,num_2,32,num_4,0.733450232306,,,2017_Mar_30_1040,60.0066016147,MAFE4ImagesEEG,001,200059,
AFNE01.JPG,AFNE01.JPG,AFNE01.JPG,AFNE01.JPG,AFNE01.JPG,AFNE01.JPG,,,,,,,,,5,0,50,3,,,,,,,,,,,,,,,AMSA19.jpg,AMNE19.jpg,AMSA13.jpg,AMNE16.jpg,AMNE16.jpg,MN,1,num_4,16,num_4,0.700107736513,,,2017_Mar_30_1040,60.0066016147,MAFE4ImagesEEG,001,200059,
AFNE01.JPG,AFNE01.JPG,AFNE01.JPG,AFNE01.JPG,AFNE01.JPG,AFNE01.JPG,,,,,,,,,5,1,51,4,,,,,,,,,,,,,,,AMNE08.jpg,AMSA01.jpg,AMSA04.jpg,AMNE05.jpg,AMSA01.jpg,MS,2,num_6,32,num_2,0.900064564776,,,2017_Mar_30_1040,60.0066016147,MAFE4ImagesEEG,001,200059,
AFNE01.JPG,AFNE01.JPG,AFNE01.JPG,AFNE01.JPG,AFNE01.JPG,AFNE01.JPG,,,,,,,,,5,2,52,5,,,,,,,,,,,,,,,AMNE17.jpg,AMSA15.jpg,AMNE07.jpg,AMSA03.jpg,AMSA03.jpg,MS,2,num_4,16,num_4,0.850116412388,,,2017_Mar_30_1040,60.0066016147,MAFE4ImagesEEG,001,200059,
AFNE01.JPG,AFNE01.JPG,AFNE01.JPG,AFNE01.JPG,AFNE01.JPG,AFNE01.JPG,,,,,,,,,5,3,53,2,,,,,,,,,,,,,,,AMNE09.jpg,AMSA08.jpg,AMNE07.jpg,AMSA18.jpg,AMSA08.jpg,MS,2,num_6,16,num_6,0.500158285024,,,2017_Mar_30_1040,60.0066016147,MAFE4ImagesEEG,001,200059,
AFNE01.JPG,AFNE01.JPG,AFNE01.JPG,AFNE01.JPG,AFNE01.JPG,AFNE01.JPG,,,,,,,,,5,4,54,8,,,,,,,,,,,,,,,AMNE05.jpg,AMSA09.jpg,AMSA01.jpg,AMNE07.jpg,AMSA09.jpg,MS,2,num_6,16,num_6,0.799691320164,,,2017_Mar_30_1040,60.0066016147,MAFE4ImagesEEG,001,200059,
AFNE01.JPG,AFNE01.JPG,AFNE01.JPG,AFNE01.JPG,AFNE01.JPG,AFNE01.JPG,,,,,,,,,5,5,55,6,,,,,,,,,,,,,,,AMNE15.jpg,AMSA17.jpg,AMNE06.jpg,AMSA07.jpg,AMNE06.jpg,MN,1,num_2,16,num_2,0.766743975691,,,2017_Mar_30_1040,60.0066016147,MAFE4ImagesEEG,001,200059,
AFNE01.JPG,AFNE01.JPG,AFNE01.JPG,AFNE01.JPG,AFNE01.JPG,AFNE01.JPG,,,,,,,,,5,6,56,0,,,,,,,,,,,,,,,AMSA01.jpg,AMSA18.jpg,AMNE17.jpg,AMNE15.jpg,AMSA18.jpg,MS,2,num_6,16,num_6,0.600011931732,,,2017_Mar_30_1040,60.0066016147,MAFE4ImagesEEG,001,200059,
AFNE01.JPG,AFNE01.JPG,AFNE01.JPG,AFNE01.JPG,AFNE01.JPG,AFNE01.JPG,,,,,,,,,5,7,57,9,,,,,,,,,,,,,,,AMSA19.jpg,AMSA14.jpg,AMNE15.jpg,AMNE06.jpg,AMSA14.jpg,MS,2,num_6,16,num_6,0.983443416655,,,2017_Mar_30_1040,60.0066016147,MAFE4ImagesEEG,001,200059,
AFNE01.JPG,AFNE01.JPG,AFNE01.JPG,AFNE01.JPG,AFNE01.JPG,AFNE01.JPG,,,,,,,,,5,8,58,7,,,,,,,,,,,,,,,AMNE11.jpg,AMSA16.jpg,AMNE18.jpg,AMSA01.jpg,AMSA16.jpg,MS,2,num_6,16,num_6,0.566800297471,,,2017_Mar_30_1040,60.0066016147,MAFE4ImagesEEG,001,200059,
AFNE01.JPG,AFNE01.JPG,AFNE01.JPG,AFNE01.JPG,AFNE01.JPG,AFNE01.JPG,,,,,,,,,5,9,59,1,,,,,,,,,,,,,,,AMNE16.jpg,AMSA06.jpg,AMNE03.jpg,AMSA19.jpg,AMNE03.jpg,MN,1,num_2,32,num_8,1.4167277941,,,2017_Mar_30_1040,60.0066016147,MAFE4ImagesEEG,001,200059,
,,,,,,,,,,,,,,,,,,,,,,,,,,,,,,,,,,,,,,,,,,,space,2.94991809921,2017_Mar_30_1040,60.0066016147,MAFE4ImagesEEG,001,200059,
AFNE01.JPG,AFNE01.JPG,AFNE01.JPG,AFNE01.JPG,AFNE01.JPG,AFNE01.JPG,,,,,,,,,,,,,0,0,0,9,,,,,,,,,,,AFNE05.jpg,AFSA15.jpg,AFSA03.jpg,AFNE08.jpg,AFNE05.jpg,FN,3,num_8,16,num_8,0.800152223092,,,2017_Mar_30_1040,60.0066016147,MAFE4ImagesEEG,001,200059,
AFNE01.JPG,AFNE01.JPG,AFNE01.JPG,AFNE01.JPG,AFNE01.JPG,AFNE01.JPG,,,,,,,,,,,,,0,1,1,8,,,,,,,,,,,AFNE06.jpg,AFSA10.jpg,AFNE12.jpg,AFSA06.jpg,AFNE12.jpg,FN,3,num_2,32,num_8,0.600122586591,,,2017_Mar_30_1040,60.0066016147,MAFE4ImagesEEG,001,200059,
AFNE01.JPG,AFNE01.JPG,AFNE01.JPG,AFNE01.JPG,AFNE01.JPG,AFNE01.JPG,,,,,,,,,,,,,0,2,2,6,,,,,,,,,,,AFSA13.jpg,AFNE04.jpg,AFNE06.jpg,AFSA19.jpg,AFNE04.jpg,FN,3,num_6,32,num_2,0.700113830389,,,2017_Mar_30_1040,60.0066016147,MAFE4ImagesEEG,001,200059,
AFNE01.JPG,AFNE01.JPG,AFNE01.JPG,AFNE01.JPG,AFNE01.JPG,AFNE01.JPG,,,,,,,,,,,,,0,3,3,2,,,,,,,,,,,AFNE10.jpg,AFSA03.jpg,AFSA05.jpg,AFNE01.jpg,AFNE10.jpg,FN,3,num_8,32,num_4,0.75013158354,,,2017_Mar_30_1040,60.0066016147,MAFE4ImagesEEG,001,200059,
AFNE01.JPG,AFNE01.JPG,AFNE01.JPG,AFNE01.JPG,AFNE01.JPG,AFNE01.JPG,,,,,,,,,,,,,0,4,4,7,,,,,,,,,,,AFSA08.jpg,AFSA10.jpg,AFNE13.jpg,AFNE04.jpg,AFNE04.jpg,FN,3,num_4,16,num_4,0.700152319157,,,2017_Mar_30_1040,60.0066016147,MAFE4ImagesEEG,001,200059,
AFNE01.JPG,AFNE01.JPG,AFNE01.JPG,AFNE01.JPG,AFNE01.JPG,AFNE01.JPG,,,,,,,,,,,,,0,5,5,4,,,,,,,,,,,AFSA13.jpg,AFSA12.jpg,AFNE01.jpg,AFNE17.jpg,AFSA12.jpg,FS,4,num_6,16,num_6,0.583466253243,,,2017_Mar_30_1040,60.0066016147,MAFE4ImagesEEG,001,200059,
AFNE01.JPG,AFNE01.JPG,AFNE01.JPG,AFNE01.JPG,AFNE01.JPG,AFNE01.JPG,,,,,,,,,,,,,0,6,6,5,,,,,,,,,,,AFSA02.jpg,AFNE20.jpg,AFSA08.jpg,AFNE14.jpg,AFNE14.jpg,FN,3,num_4,16,num_4,0.616830559215,,,2017_Mar_30_1040,60.0066016147,MAFE4ImagesEEG,001,200059,
AFNE01.JPG,AFNE01.JPG,AFNE01.JPG,AFNE01.JPG,AFNE01.JPG,AFNE01.JPG,,,,,,,,,,,,,0,7,7,0,,,,,,,,,,,AFNE16.jpg,AFSA20.jpg,AFSA18.jpg,AFNE06.jpg,AFNE06.jpg,FN,3,num_4,16,num_4,1.56674673385,,,2017_Mar_30_1040,60.0066016147,MAFE4ImagesEEG,001,200059,
AFNE01.JPG,AFNE01.JPG,AFNE01.JPG,AFNE01.JPG,AFNE01.JPG,AFNE01.JPG,,,,,,,,,,,,,0,8,8,1,,,,,,,,,,,AFSA01.jpg,AFNE16.jpg,AFNE11.jpg,AFSA08.jpg,AFNE11.jpg,FN,3,num_2,16,num_2,0.600377253955,,,2017_Mar_30_1040,60.0066016147,MAFE4ImagesEEG,001,200059,
AFNE01.JPG,AFNE01.JPG,AFNE01.JPG,AFNE01.JPG,AFNE01.JPG,AFNE01.JPG,,,,,,,,,,,,,0,9,9,3,,,,,,,,,,,AFSA02.jpg,AFSA20.jpg,AFNE14.jpg,AFNE08.jpg,AFSA20.jpg,FS,4,num_6,32,num_2,1.21672445862,,,2017_Mar_30_1040,60.0066016147,MAFE4ImagesEEG,001,200059,
AFNE01.JPG,AFNE01.JPG,AFNE01.JPG,AFNE01.JPG,AFNE01.JPG,AFNE01.JPG,,,,,,,,,,,,,1,0,10,1,,,,,,,,,,,AFSA11.jpg,AFNE01.jpg,AFSA20.jpg,AFNE12.jpg,AFNE12.jpg,FN,3,num_4,16,num_4,0.816774878884,,,2017_Mar_30_1040,60.0066016147,MAFE4ImagesEEG,001,200059,
AFNE01.JPG,AFNE01.JPG,AFNE01.JPG,AFNE01.JPG,AFNE01.JPG,AFNE01.JPG,,,,,,,,,,,,,1,1,11,7,,,,,,,,,,,AFSA06.jpg,AFNE18.jpg,AFNE14.jpg,AFSA19.jpg,AFNE18.jpg,FN,3,num_6,16,num_6,0.600099493517,,,2017_Mar_30_1040,60.0066016147,MAFE4ImagesEEG,001,200059,
AFNE01.JPG,AFNE01.JPG,AFNE01.JPG,AFNE01.JPG,AFNE01.JPG,AFNE01.JPG,,,,,,,,,,,,,1,2,12,6,,,,,,,,,,,AFNE02.jpg,AFNE01.jpg,AFSA18.jpg,AFSA10.jpg,AFSA10.jpg,FS,4,num_4,16,num_4,1.01677661086,,,2017_Mar_30_1040,60.0066016147,MAFE4ImagesEEG,001,200059,
AFNE01.JPG,AFNE01.JPG,AFNE01.JPG,AFNE01.JPG,AFNE01.JPG,AFNE01.JPG,,,,,,,,,,,,,1,3,13,4,,,,,,,,,,,AFSA03.jpg,AFNE07.jpg,AFNE01.jpg,AFSA07.jpg,AFNE01.jpg,FN,3,num_2,32,num_6,0.966759499395,,,2017_Mar_30_1040,60.0066016147,MAFE4ImagesEEG,001,200059,
AFNE01.JPG,AFNE01.JPG,AFNE01.JPG,AFNE01.JPG,AFNE01.JPG,AFNE01.JPG,,,,,,,,,,,,,1,4,14,5,,,,,,,,,,,AFNE07.jpg,AFNE19.jpg,AFSA03.jpg,AFSA02.jpg,AFSA03.jpg,FS,4,num_2,16,num_2,0.600144076394,,,2017_Mar_30_1040,60.0066016147,MAFE4ImagesEEG,001,200059,
AFNE01.JPG,AFNE01.JPG,AFNE01.JPG,AFNE01.JPG,AFNE01.JPG,AFNE01.JPG,,,,,,,,,,,,,1,5,15,2,,,,,,,,,,,AFNE10.jpg,AFNE02.jpg,AFSA05.jpg,AFSA14.jpg,AFSA05.jpg,FS,4,num_2,16,num_2,0.783444571076,,,2017_Mar_30_1040,60.0066016147,MAFE4ImagesEEG,001,200059,
AFNE01.JPG,AFNE01.JPG,AFNE01.JPG,AFNE01.JPG,AFNE01.JPG,AFNE01.JPG,,,,,,,,,,,,,1,6,16,0,,,,,,,,,,,AFNE09.jpg,AFSA08.jpg,AFSA17.jpg,AFNE18.jpg,AFNE09.jpg,FN,3,num_8,16,num_8,0.66674920381,,,2017_Mar_30_1040,60.0066016147,MAFE4ImagesEEG,001,200059,
AFNE01.JPG,AFNE01.JPG,AFNE01.JPG,AFNE01.JPG,AFNE01.JPG,AFNE01.JPG,,,,,,,,,,,,,1,7,17,8,,,,,,,,,,,AFSA04.jpg,AFSA06.jpg,AFNE04.jpg,AFNE07.jpg,AFSA06.jpg,FS,4,num_6,16,num_6,0.600119058508,,,2017_Mar_30_1040,60.0066016147,MAFE4ImagesEEG,001,200059,
AFNE01.JPG,AFNE01.JPG,AFNE01.JPG,AFNE01.JPG,AFNE01.JPG,AFNE01.JPG,,,,,,,,,,,,,1,8,18,9,,,,,,,,,,,AFNE10.jpg,AFNE06.jpg,AFSA13.jpg,AFSA19.jpg,AFNE10.jpg,FN,3,num_8,16,num_8,0.650144509273,,,2017_Mar_30_1040,60.0066016147,MAFE4ImagesEEG,001,200059,
AFNE01.JPG,AFNE01.JPG,AFNE01.JPG,AFNE01.JPG,AFNE01.JPG,AFNE01.JPG,,,,,,,,,,,,,1,9,19,3,,,,,,,,,,,AFSA08.jpg,AFSA18.jpg,AFNE03.jpg,AFNE06.jpg,AFSA08.jpg,FS,4,num_8,32,num_6,0.916799159022,,,2017_Mar_30_1040,60.0066016147,MAFE4ImagesEEG,001,200059,
AFNE01.JPG,AFNE01.JPG,AFNE01.JPG,AFNE01.JPG,AFNE01.JPG,AFNE01.JPG,,,,,,,,,,,,,2,0,20,5,,,,,,,,,,,AFNE13.jpg,AFNE07.jpg,AFSA06.jpg,AFSA09.jpg,AFNE07.jpg,FN,3,num_6,16,num_6,0.566803184338,,,2017_Mar_30_1040,60.0066016147,MAFE4ImagesEEG,001,200059,
AFNE01.JPG,AFNE01.JPG,AFNE01.JPG,AFNE01.JPG,AFNE01.JPG,AFNE01.JPG,,,,,,,,,,,,,2,1,21,0,,,,,,,,,,,AFSA19.jpg,AFNE17.jpg,AFNE01.jpg,AFSA06.jpg,AFNE01.jpg,FN,3,num_2,32,num_4,0.700127301505,,,2017_Mar_30_1040,60.0066016147,MAFE4ImagesEEG,001,200059,
AFNE01.JPG,AFNE01.JPG,AFNE01.JPG,AFNE01.JPG,AFNE01.JPG,AFNE01.JPG,,,,,,,,,,,,,2,2,22,7,,,,,,,,,,,AFNE11.jpg,AFNE13.jpg,AFSA16.jpg,AFSA11.jpg,AFSA11.jpg,FS,4,num_4,16,num_4,0.616794315632,,,2017_Mar_30_1040,60.0066016147,MAFE4ImagesEEG,001,200059,
AFNE01.JPG,AFNE01.JPG,AFNE01.JPG,AFNE01.JPG,AFNE01.JPG,AFNE01.JPG,,,,,,,,,,,,,2,3,23,9,,,,,,,,,,,AFSA18.jpg,AFNE15.jpg,AFSA19.jpg,AFNE06.jpg,AFSA18.jpg,FS,4,num_8,32,num_4,0.516780620208,,,2017_Mar_30_1040,60.0066016147,MAFE4ImagesEEG,001,200059,
AFNE01.JPG,AFNE01.JPG,AFNE01.JPG,AFNE01.JPG,AFNE01.JPG,AFNE01.JPG,,,,,,,,,,,,,2,4,24,1,,,,,,,,,,,AFNE10.jpg,AFSA13.jpg,AFNE06.jpg,AFSA17.jpg,AFNE06.jpg,FN,3,num_2,32,num_8,0.816735748667,,,2017_Mar_30_1040,60.0066016147,MAFE4ImagesEEG,001,200059,
AFNE01.JPG,AFNE01.JPG,AFNE01.JPG,AFNE01.JPG,AFNE01.JPG,AFNE01.JPG,,,,,,,,,,,,,2,5,25,4,,,,,,,,,,,AFSA14.jpg,AFNE08.jpg,AFSA12.jpg,AFNE17.jpg,AFNE17.jpg,FN,3,num_4,32,num_6,0.933754421771,,,2017_Mar_30_1040,60.0066016147,MAFE4ImagesEEG,001,200059,
AFNE01.JPG,AFNE01.JPG,AFNE01.JPG,AFNE01.JPG,AFNE01.JPG,AFNE01.JPG,,,,,,,,,,,,,2,6,26,2,,,,,,,,,,,AFSA09.jpg,AFNE10.jpg,AFNE06.jpg,AFSA03.jpg,AFNE10.jpg,FN,3,num_6,32,num_8,0.850206540432,,,2017_Mar_30_1040,60.0066016147,MAFE4ImagesEEG,001,200059,
AFNE01.JPG,AFNE01.JPG,AFNE01.JPG,AFNE01.JPG,AFNE01.JPG,AFNE01.JPG,,,,,,,,,,,,,2,7,27,8,,,,,,,,,,,AFNE09.jpg,AFNE15.jpg,AFSA19.jpg,AFSA13.jpg,AFSA19.jpg,FS,4,num_2,32,num_4,1.25013302686,,,2017_Mar_30_1040,60.0066016147,MAFE4ImagesEEG,001,200059,
AFNE01.JPG,AFNE01.JPG,AFNE01.JPG,AFNE01.JPG,AFNE01.JPG,AFNE01.JPG,,,,,,,,,,,,,2,8,28,6,,,,,,,,,,,AFNE06.jpg,AFSA09.jpg,AFNE01.jpg,AFSA14.jpg,AFSA14.jpg,FS,4,num_4,32,num_6,0.600151132559,,,2017_Mar_30_1040,60.0066016147,MAFE4ImagesEEG,001,200059,
AFNE01.JPG,AFNE01.JPG,AFNE01.JPG,AFNE01.JPG,AFNE01.JPG,AFNE01.JPG,,,,,,,,,,,,,2,9,29,3,,,,,,,,,,,AFSA08.jpg,AFNE14.jpg,AFSA01.jpg,AFNE06.jpg,AFSA08.jpg,FS,4,num_8,32,num_2,1.05011012591,,,2017_Mar_30_1040,60.0066016147,MAFE4ImagesEEG,001,200059,
AFNE01.JPG,AFNE01.JPG,AFNE01.JPG,AFNE01.JPG,AFNE01.JPG,AFNE01.JPG,,,,,,,,,,,,,3,0,30,2,,,,,,,,,,,AFSA20.jpg,AFSA13.jpg,AFNE03.jpg,AFNE14.jpg,AFNE14.jpg,FN,3,num_4,16,num_4,0.800125601701,,,2017_Mar_30_1040,60.0066016147,MAFE4ImagesEEG,001,200059,
AFNE01.JPG,AFNE01.JPG,AFNE01.JPG,AFNE01.JPG,AFNE01.JPG,AFNE01.JPG,,,,,,,,,,,,,3,1,31,0,,,,,,,,,,,AFNE17.jpg,AFSA19.jpg,AFSA07.jpg,AFNE16.jpg,AFSA19.jpg,FS,4,num_6,16,num_6,0.566780732246,,,2017_Mar_30_1040,60.0066016147,MAFE4ImagesEEG,001,200059,
AFNE01.JPG,AFNE01.JPG,AFNE01.JPG,AFNE01.JPG,AFNE01.JPG,AFNE01.JPG,,,,,,,,,,,,,3,2,32,1,,,,,,,,,,,AFNE02.jpg,AFSA08.jpg,AFNE05.jpg,AFSA01.jpg,AFNE05.jpg,FN,3,num_2,32,num_4,0.733444459038,,,2017_Mar_30_1040,60.0066016147,MAFE4ImagesEEG,001,200059,
AFNE01.JPG,AFNE01.JPG,AFNE01.JPG,AFNE01.JPG,AFNE01.JPG,AFNE01.JPG,,,,,,,,,,,,,3,3,33,9,,,,,,,,,,,AFNE16.jpg,AFSA01.jpg,AFSA17.jpg,AFNE05.jpg,AFNE16.jpg,FN,3,num_8,16,num_8,1.05008895718,,,2017_Mar_30_1040,60.0066016147,MAFE4ImagesEEG,001,200059,
AFNE01.JPG,AFNE01.JPG,AFNE01.JPG,AFNE01.JPG,AFNE01.JPG,AFNE01.JPG,,,,,,,,,,,,,3,4,34,6,,,,,,,,,,,AFNE08.jpg,AFSA02.jpg,AFSA07.jpg,AFNE11.jpg,AFSA07.jpg,FS,4,num_2,32,num_8,1.1501520467,,,2017_Mar_30_1040,60.0066016147,MAFE4ImagesEEG,001,200059,
AFNE01.JPG,AFNE01.JPG,AFNE01.JPG,AFNE01.JPG,AFNE01.JPG,AFNE01.JPG,,,,,,,,,,,,,3,5,35,8,,,,,,,,,,,AFSA01.jpg,AFNE13.jpg,AFSA05.jpg,AFNE01.jpg,AFSA01.jpg,FS,4,num_8,32,num_6,1.00020014169,,,2017_Mar_30_1040,60.0066016147,MAFE4ImagesEEG,001,200059,
AFNE01.JPG,AFNE01.JPG,AFNE01.JPG,AFNE01.JPG,AFNE01.JPG,AFNE01.JPG,,,,,,,,,,,,,3,6,36,7,,,,,,,,,,,AFNE07.jpg,AFSA04.jpg,AFSA03.jpg,AFNE12.jpg,AFSA04.jpg,FS,4,num_6,16,num_6,0.750087000662,,,2017_Mar_30_1040,60.0066016147,MAFE4ImagesEEG,001,200059,
AFNE01.JPG,AFNE01.JPG,AFNE01.JPG,AFNE01.JPG,AFNE01.JPG,AFNE01.JPG,,,,,,,,,,,,,3,7,37,4,,,,,,,,,,,AFSA18.jpg,AFNE04.jpg,AFSA15.jpg,AFNE13.jpg,AFNE13.jpg,FN,3,num_4,32,num_8,1.11671813997,,,2017_Mar_30_1040,60.0066016147,MAFE4ImagesEEG,001,200059,
AFNE01.JPG,AFNE01.JPG,AFNE01.JPG,AFNE01.JPG,AFNE01.JPG,AFNE01.JPG,,,,,,,,,,,,,3,8,38,5,,,,,,,,,,,AFNE03.jpg,AFNE08.jpg,AFSA18.jpg,AFSA13.jpg,AFSA13.jpg,FS,4,num_4,32,num_8,0.533499497687,,,2017_Mar_30_1040,60.0066016147,MAFE4ImagesEEG,001,200059,
AFNE01.JPG,AFNE01.JPG,AFNE01.JPG,AFNE01.JPG,AFNE01.JPG,AFNE01.JPG,,,,,,,,,,,,,3,9,39,3,,,,,,,,,,,AFSA10.jpg,AFNE18.jpg,AFNE12.jpg,AFSA01.jpg,AFNE18.jpg,FN,3,num_6,16,num_6,0.550131134456,,,2017_Mar_30_1040,60.0066016147,MAFE4ImagesEEG,001,200059,
AFNE01.JPG,AFNE01.JPG,AFNE01.JPG,AFNE01.JPG,AFNE01.JPG,AFNE01.JPG,,,,,,,,,,,,,4,0,40,5,,,,,,,,,,,AFNE01.jpg,AFSA04.jpg,AFSA19.jpg,AFNE04.jpg,AFNE01.jpg,FN,3,num_8,16,num_8,1.00010359893,,,2017_Mar_30_1040,60.0066016147,MAFE4ImagesEEG,001,200059,
AFNE01.JPG,AFNE01.JPG,AFNE01.JPG,AFNE01.JPG,AFNE01.JPG,AFNE01.JPG,,,,,,,,,,,,,4,1,41,7,,,,,,,,,,,AFSA17.jpg,AFSA09.jpg,AFNE19.jpg,AFNE07.jpg,AFSA09.jpg,FS,4,num_6,16,num_6,0.783453552052,,,2017_Mar_30_1040,60.0066016147,MAFE4ImagesEEG,001,200059,
AFNE01.JPG,AFNE01.JPG,AFNE01.JPG,AFNE01.JPG,AFNE01.JPG,AFNE01.JPG,,,,,,,,,,,,,4,2,42,4,,,,,,,,,,,AFNE08.jpg,AFNE12.jpg,AFSA06.jpg,AFSA10.jpg,AFSA10.jpg,FS,4,num_4,16,num_4,1.03335436317,,,2017_Mar_30_1040,60.0066016147,MAFE4ImagesEEG,001,200059,
AFNE01.JPG,AFNE01.JPG,AFNE01.JPG,AFNE01.JPG,AFNE01.JPG,AFNE01.JPG,,,,,,,,,,,,,4,3,43,6,,,,,,,,,,,AFSA16.jpg,AFNE13.jpg,AFNE10.jpg,AFSA07.jpg,AFSA07.jpg,FS,4,num_4,16,num_4,0.783584092977,,,2017_Mar_30_1040,60.0066016147,MAFE4ImagesEEG,001,200059,
AFNE01.JPG,AFNE01.JPG,AFNE01.JPG,AFNE01.JPG,AFNE01.JPG,AFNE01.JPG,,,,,,,,,,,,,4,4,44,3,,,,,,,,,,,AFSA09.jpg,AFNE18.jpg,AFNE03.jpg,AFSA04.jpg,AFSA04.jpg,FS,4,num_4,16,num_4,0.500148662832,,,2017_Mar_30_1040,60.0066016147,MAFE4ImagesEEG,001,200059,
AFNE01.JPG,AFNE01.JPG,AFNE01.JPG,AFNE01.JPG,AFNE01.JPG,AFNE01.JPG,,,,,,,,,,,,,4,5,45,0,,,,,,,,,,,AFSA11.jpg,AFSA20.jpg,AFNE18.jpg,AFNE04.jpg,AFNE04.jpg,FN,3,num_4,16,num_4,1.01676923386,,,2017_Mar_30_1040,60.0066016147,MAFE4ImagesEEG,001,200059,
AFNE01.JPG,AFNE01.JPG,AFNE01.JPG,AFNE01.JPG,AFNE01.JPG,AFNE01.JPG,,,,,,,,,,,,,4,6,46,8,,,,,,,,,,,AFSA06.jpg,AFNE14.jpg,AFNE18.jpg,AFSA17.jpg,AFNE14.jpg,FN,3,num_6,16,num_6,0.766781822778,,,2017_Mar_30_1040,60.0066016147,MAFE4ImagesEEG,001,200059,
AFNE01.JPG,AFNE01.JPG,AFNE01.JPG,AFNE01.JPG,AFNE01.JPG,AFNE01.JPG,,,,,,,,,,,,,4,7,47,9,,,,,,,,,,,AFNE07.jpg,AFNE03.jpg,AFSA01.jpg,AFSA15.jpg,AFSA01.jpg,FS,4,num_2,16,num_2,0.883450889727,,,2017_Mar_30_1040,60.0066016147,MAFE4ImagesEEG,001,200059,
AFNE01.JPG,AFNE01.JPG,AFNE01.JPG,AFNE01.JPG,AFNE01.JPG,AFNE01.JPG,,,,,,,,,,,,,4,8,48,2,,,,,,,,,,,AFNE19.jpg,AFSA10.jpg,AFNE01.jpg,AFSA18.jpg,AFSA18.jpg,FS,4,num_4,16,num_4,0.600139265181,,,2017_Mar_30_1040,60.0066016147,MAFE4ImagesEEG,001,200059,
AFNE01.JPG,AFNE01.JPG,AFNE01.JPG,AFNE01.JPG,AFNE01.JPG,AFNE01.JPG,,,,,,,,,,,,,4,9,49,1,,,,,,,,,,,AFSA17.jpg,AFNE04.jpg,AFSA04.jpg,AFNE01.jpg,AFNE04.jpg,FN,3,num_6,16,num_6,0.650151565671,,,2017_Mar_30_1040,60.0066016147,MAFE4ImagesEEG,001,200059,
AFNE01.JPG,AFNE01.JPG,AFNE01.JPG,AFNE01.JPG,AFNE01.JPG,AFNE01.JPG,,,,,,,,,,,,,5,0,50,7,,,,,,,,,,,AFSA10.jpg,AFNE06.jpg,AFNE18.jpg,AFSA12.jpg,AFSA12.jpg,FS,4,num_4,16,num_4,0.66676042974,,,2017_Mar_30_1040,60.0066016147,MAFE4ImagesEEG,001,200059,
AFNE01.JPG,AFNE01.JPG,AFNE01.JPG,AFNE01.JPG,AFNE01.JPG,AFNE01.JPG,,,,,,,,,,,,,5,1,51,9,,,,,,,,,,,AFSA06.jpg,AFNE18.jpg,AFSA20.jpg,AFNE15.jpg,AFSA20.jpg,FS,4,num_2,32,num_6,0.499851657776,,,2017_Mar_30_1040,60.0066016147,MAFE4ImagesEEG,001,200059,
AFNE01.JPG,AFNE01.JPG,AFNE01.JPG,AFNE01.JPG,AFNE01.JPG,AFNE01.JPG,,,,,,,,,,,,,5,2,52,4,,,,,,,,,,,AFSA02.jpg,AFSA09.jpg,AFNE12.jpg,AFNE15.jpg,AFSA02.jpg,FS,4,num_8,16,num_8,0.816778407199,,,2017_Mar_30_1040,60.0066016147,MAFE4ImagesEEG,001,200059,
AFNE01.JPG,AFNE01.JPG,AFNE01.JPG,AFNE01.JPG,AFNE01.JPG,AFNE01.JPG,,,,,,,,,,,,,5,3,53,0,,,,,,,,,,,AFSA07.jpg,AFNE13.jpg,AFNE12.jpg,AFSA08.jpg,AFSA08.jpg,FS,4,num_4,16,num_4,1.20008608652,,,2017_Mar_30_1040,60.0066016147,MAFE4ImagesEEG,001,200059,
AFNE01.JPG,AFNE01.JPG,AFNE01.JPG,AFNE01.JPG,AFNE01.JPG,AFNE01.JPG,,,,,,,,,,,,,5,4,54,8,,,,,,,,,,,AFNE02.jpg,AFNE16.jpg,AFSA15.jpg,AFSA03.jpg,AFSA03.jpg,FS,4,num_4,16,num_4,0.516787355766,,,2017_Mar_30_1040,60.0066016147,MAFE4ImagesEEG,001,200059,
AFNE01.JPG,AFNE01.JPG,AFNE01.JPG,AFNE01.JPG,AFNE01.JPG,AFNE01.JPG,,,,,,,,,,,,,5,5,55,3,,,,,,,,,,,AFSA03.jpg,AFSA19.jpg,AFNE18.jpg,AFNE03.jpg,AFSA03.jpg,FS,4,num_8,16,num_8,0.65015605581,,,2017_Mar_30_1040,60.0066016147,MAFE4ImagesEEG,001,200059,
AFNE01.JPG,AFNE01.JPG,AFNE01.JPG,AFNE01.JPG,AFNE01.JPG,AFNE01.JPG,,,,,,,,,,,,,5,6,56,1,,,,,,,,,,,AFSA18.jpg,AFNE05.jpg,AFNE17.jpg,AFSA17.jpg,AFSA18.jpg,FS,4,num_8,16,num_8,0.500072647585,,,2017_Mar_30_1040,60.0066016147,MAFE4ImagesEEG,001,200059,
AFNE01.JPG,AFNE01.JPG,AFNE01.JPG,AFNE01.JPG,AFNE01.JPG,AFNE01.JPG,,,,,,,,,,,,,5,7,57,2,,,,,,,,,,,AFSA17.jpg,AFSA16.jpg,AFNE10.jpg,AFNE20.jpg,AFNE20.jpg,FN,3,num_4,16,num_4,0.600116492715,,,2017_Mar_30_1040,60.0066016147,MAFE4ImagesEEG,001,200059,
AFNE01.JPG,AFNE01.JPG,AFNE01.JPG,AFNE01.JPG,AFNE01.JPG,AFNE01.JPG,,,,,,,,,,,,,5,8,58,5,,,,,,,,,,,AFSA09.jpg,AFNE12.jpg,AFSA01.jpg,AFNE06.jpg,AFNE06.jpg,FN,3,num_4,32,num_2,1.03343551024,,,2017_Mar_30_1040,60.0066016147,MAFE4ImagesEEG,001,200059,
AFNE01.JPG,AFNE01.JPG,AFNE01.JPG,AFNE01.JPG,AFNE01.JPG,AFNE01.JPG,,,,,,,,,,,,,5,9,59,6,,,,,,,,,,,AFSA07.jpg,AFSA08.jpg,AFNE13.jpg,AFNE01.jpg,AFNE13.jpg,FN,3,num_2,32,num_4,0.750146979,,,2017_Mar_30_1040,60.0066016147,MAFE4ImagesEEG,001,200059,
,,,,,,,,,,,,,,,,,,,,,,,,,,,,,,,,,,,,,,,,,,,space,10.0827165241,2017_Mar_30_1040,60.0066016147,MAFE4ImagesEEG,001,200059,
AFNE01.JPG,AFNE01.JPG,AFNE01.JPG,AFNE01.JPG,AFNE01.JPG,AFNE01.JPG,,,,,,,,,,,,,,,,,0,0,0,7,,,,,,,AMSA18.jpg,AMSA08.jpg,AMNE10.jpg,AMNE03.jpg,AMNE10.jpg,MN,1,num_2,32,num_4,0.683520041173,,,2017_Mar_30_1040,60.0066016147,MAFE4ImagesEEG,001,200059,
AFNE01.JPG,AFNE01.JPG,AFNE01.JPG,AFNE01.JPG,AFNE01.JPG,AFNE01.JPG,,,,,,,,,,,,,,,,,0,1,1,0,,,,,,,AMSA10.jpg,AMNE15.jpg,AMSA14.jpg,AMNE09.jpg,AMSA14.jpg,MS,2,num_2,32,num_8,0.716825972544,,,2017_Mar_30_1040,60.0066016147,MAFE4ImagesEEG,001,200059,
AFNE01.JPG,AFNE01.JPG,AFNE01.JPG,AFNE01.JPG,AFNE01.JPG,AFNE01.JPG,,,,,,,,,,,,,,,,,0,2,2,1,,,,,,,AMSA15.jpg,AMSA18.jpg,AMNE07.jpg,AMNE15.jpg,AMNE15.jpg,MN,1,num_4,16,num_4,0.633458988508,,,2017_Mar_30_1040,60.0066016147,MAFE4ImagesEEG,001,200059,
AFNE01.JPG,AFNE01.JPG,AFNE01.JPG,AFNE01.JPG,AFNE01.JPG,AFNE01.JPG,,,,,,,,,,,,,,,,,0,3,3,4,,,,,,,AMNE07.jpg,AMNE10.jpg,AMSA10.jpg,AMSA20.jpg,AMNE10.jpg,MN,1,num_6,16,num_6,0.666821370134,,,2017_Mar_30_1040,60.0066016147,MAFE4ImagesEEG,001,200059,
AFNE01.JPG,AFNE01.JPG,AFNE01.JPG,AFNE01.JPG,AFNE01.JPG,AFNE01.JPG,,,,,,,,,,,,,,,,,0,4,4,6,,,,,,,AMSA07.jpg,AMSA05.jpg,AMNE04.jpg,AMNE19.jpg,AMSA05.jpg,MS,2,num_6,32,num_8,0.700151036261,,,2017_Mar_30_1040,60.0066016147,MAFE4ImagesEEG,001,200059,
AFNE01.JPG,AFNE01.JPG,AFNE01.JPG,AFNE01.JPG,AFNE01.JPG,AFNE01.JPG,,,,,,,,,,,,,,,,,0,5,5,5,,,,,,,AMNE12.jpg,AMNE07.jpg,AMSA09.jpg,AMSA16.jpg,AMNE07.jpg,MN,1,num_6,32,num_4,1.10009291838,,,2017_Mar_30_1040,60.0066016147,MAFE4ImagesEEG,001,200059,
AFNE01.JPG,AFNE01.JPG,AFNE01.JPG,AFNE01.JPG,AFNE01.JPG,AFNE01.JPG,,,,,,,,,,,,,,,,,0,6,6,3,,,,,,,AMSA07.jpg,AMSA01.jpg,AMNE19.jpg,AMNE01.jpg,AMNE01.jpg,MN,1,num_4,16,num_4,0.616760317236,,,2017_Mar_30_1040,60.0066016147,MAFE4ImagesEEG,001,200059,
AFNE01.JPG,AFNE01.JPG,AFNE01.JPG,AFNE01.JPG,AFNE01.JPG,AFNE01.JPG,,,,,,,,,,,,,,,,,0,7,7,2,,,,,,,AMNE02.jpg,AMNE09.jpg,AMSA18.jpg,AMSA14.jpg,AMSA14.jpg,MS,2,num_4,16,num_4,0.533450745512,,,2017_Mar_30_1040,60.0066016147,MAFE4ImagesEEG,001,200059,
AFNE01.JPG,AFNE01.JPG,AFNE01.JPG,AFNE01.JPG,AFNE01.JPG,AFNE01.JPG,,,,,,,,,,,,,,,,,0,8,8,8,,,,,,,AMNE19.jpg,AMSA03.jpg,AMNE02.jpg,AMSA19.jpg,AMNE02.jpg,MN,1,num_2,16,num_2,1.06673951726,,,2017_Mar_30_1040,60.0066016147,MAFE4ImagesEEG,001,200059,
AFNE01.JPG,AFNE01.JPG,AFNE01.JPG,AFNE01.JPG,AFNE01.JPG,AFNE01.JPG,,,,,,,,,,,,,,,,,0,9,9,9,,,,,,,AMSA07.jpg,AMSA05.jpg,AMNE11.jpg,AMNE02.jpg,AMNE02.jpg,MN,1,num_4,32,num_8,1.18339607539,,,2017_Mar_30_1040,60.0066016147,MAFE4ImagesEEG,001,200059,
AFNE01.JPG,AFNE01.JPG,AFNE01.JPG,AFNE01.JPG,AFNE01.JPG,AFNE01.JPG,,,,,,,,,,,,,,,,,1,0,10,8,,,,,,,AMSA15.jpg,AMNE07.jpg,AMNE05.jpg,AMSA12.jpg,AMNE05.jpg,MN,1,num_2,32,num_4,0.816773275146,,,2017_Mar_30_1040,60.0066016147,MAFE4ImagesEEG,001,200059,
AFNE01.JPG,AFNE01.JPG,AFNE01.JPG,AFNE01.JPG,AFNE01.JPG,AFNE01.JPG,,,,,,,,,,,,,,,,,1,1,11,1,,,,,,,AMSA13.jpg,AMNE01.jpg,AMNE15.jpg,AMSA06.jpg,AMSA06.jpg,MS,2,num_4,16,num_4,0.816763652954,,,2017_Mar_30_1040,60.0066016147,MAFE4ImagesEEG,001,200059,
AFNE01.JPG,AFNE01.JPG,AFNE01.JPG,AFNE01.JPG,AFNE01.JPG,AFNE01.JPG,,,,,,,,,,,,,,,,,1,2,12,7,,,,,,,AMNE17.jpg,AMSA06.jpg,AMNE02.jpg,AMSA02.jpg,AMSA06.jpg,MS,2,num_6,32,num_4,0.700094586005,,,2017_Mar_30_1040,60.0066016147,MAFE4ImagesEEG,001,200059,
AFNE01.JPG,AFNE01.JPG,AFNE01.JPG,AFNE01.JPG,AFNE01.JPG,AFNE01.JPG,,,,,,,,,,,,,,,,,1,3,13,4,,,,,,,AMSA16.jpg,AMNE10.jpg,AMSA07.jpg,AMNE08.jpg,AMSA07.jpg,MS,2,num_2,16,num_2,0.950109901372,,,2017_Mar_30_1040,60.0066016147,MAFE4ImagesEEG,001,200059,
AFNE01.JPG,AFNE01.JPG,AFNE01.JPG,AFNE01.JPG,AFNE01.JPG,AFNE01.JPG,,,,,,,,,,,,,,,,,1,4,14,6,,,,,,,AMNE11.jpg,AMNE19.jpg,AMSA01.jpg,AMSA18.jpg,AMSA01.jpg,MS,2,num_2,32,num_4,0.683472892502,,,2017_Mar_30_1040,60.0066016147,MAFE4ImagesEEG,001,200059,
AFNE01.JPG,AFNE01.JPG,AFNE01.JPG,AFNE01.JPG,AFNE01.JPG,AFNE01.JPG,,,,,,,,,,,,,,,,,1,5,15,0,,,,,,,AMSA14.jpg,AMNE08.jpg,AMNE19.jpg,AMSA01.jpg,AMSA14.jpg,MS,2,num_8,32,num_2,0.850130204344,,,2017_Mar_30_1040,60.0066016147,MAFE4ImagesEEG,001,200059,
AFNE01.JPG,AFNE01.JPG,AFNE01.JPG,AFNE01.JPG,AFNE01.JPG,AFNE01.JPG,,,,,,,,,,,,,,,,,1,6,16,2,,,,,,,AMNE05.jpg,AMSA08.jpg,AMSA15.jpg,AMNE15.jpg,AMNE05.jpg,MN,1,num_8,32,num_4,0.91677799006,,,2017_Mar_30_1040,60.0066016147,MAFE4ImagesEEG,001,200059,
AFNE01.JPG,AFNE01.JPG,AFNE01.JPG,AFNE01.JPG,AFNE01.JPG,AFNE01.JPG,,,,,,,,,,,,,,,,,1,7,17,3,,,,,,,AMNE11.jpg,AMNE01.jpg,AMSA08.jpg,AMSA06.jpg,AMNE01.jpg,MN,1,num_6,32,num_4,0.750104961917,,,2017_Mar_30_1040,60.0066016147,MAFE4ImagesEEG,001,200059,
AFNE01.JPG,AFNE01.JPG,AFNE01.JPG,AFNE01.JPG,AFNE01.JPG,AFNE01.JPG,,,,,,,,,,,,,,,,,1,8,18,9,,,,,,,AMSA04.jpg,AMNE19.jpg,AMNE09.jpg,AMSA05.jpg,AMSA05.jpg,MS,2,num_4,32,num_6,1.083434019,,,2017_Mar_30_1040,60.0066016147,MAFE4ImagesEEG,001,200059,
AFNE01.JPG,AFNE01.JPG,AFNE01.JPG,AFNE01.JPG,AFNE01.JPG,AFNE01.JPG,,,,,,,,,,,,,,,,,1,9,19,5,,,,,,,AMNE16.jpg,AMSA17.jpg,AMNE09.jpg,AMSA05.jpg,AMNE16.jpg,MN,1,num_8,16,num_8,0.616792711895,,,2017_Mar_30_1040,60.0066016147,MAFE4ImagesEEG,001,200059,
AFNE01.JPG,AFNE01.JPG,AFNE01.JPG,AFNE01.JPG,AFNE01.JPG,AFNE01.JPG,,,,,,,,,,,,,,,,,2,0,20,1,,,,,,,AMNE16.jpg,AMSA07.jpg,AMNE13.jpg,AMSA01.jpg,AMSA07.jpg,MS,2,num_6,16,num_6,0.533540552715,,,2017_Mar_30_1040,60.0066016147,MAFE4ImagesEEG,001,200059,
AFNE01.JPG,AFNE01.JPG,AFNE01.JPG,AFNE01.JPG,AFNE01.JPG,AFNE01.JPG,,,,,,,,,,,,,,,,,2,1,21,4,,,,,,,AMSA09.jpg,AMNE08.jpg,AMNE07.jpg,AMSA15.jpg,AMSA09.jpg,MS,2,num_8,32,num_4,0.966760782292,,,2017_Mar_30_1040,60.0066016147,MAFE4ImagesEEG,001,200059,
AFNE01.JPG,AFNE01.JPG,AFNE01.JPG,AFNE01.JPG,AFNE01.JPG,AFNE01.JPG,,,,,,,,,,,,,,,,,2,2,22,0,,,,,,,AMNE03.jpg,AMNE19.jpg,AMSA19.jpg,AMSA18.jpg,AMSA18.jpg,MS,2,num_4,16,num_4,0.466803921852,,,2017_Mar_30_1040,60.0066016147,MAFE4ImagesEEG,001,200059,
AFNE01.JPG,AFNE01.JPG,AFNE01.JPG,AFNE01.JPG,AFNE01.JPG,AFNE01.JPG,,,,,,,,,,,,,,,,,2,3,23,3,,,,,,,AMSA19.jpg,AMNE10.jpg,AMNE08.jpg,AMSA17.jpg,AMNE10.jpg,MN,1,num_6,16,num_6,0.650142584695,,,2017_Mar_30_1040,60.0066016147,MAFE4ImagesEEG,001,200059,
AFNE01.JPG,AFNE01.JPG,AFNE01.JPG,AFNE01.JPG,AFNE01.JPG,AFNE01.JPG,,,,,,,,,,,,,,,,,2,4,24,5,,,,,,,AMSA06.jpg,AMSA17.jpg,AMNE09.jpg,AMNE13.jpg,AMSA17.jpg,MS,2,num_6,32,num_8,0.650119170779,,,2017_Mar_30_1040,60.0066016147,MAFE4ImagesEEG,001,200059,
AFNE01.JPG,AFNE01.JPG,AFNE01.JPG,AFNE01.JPG,AFNE01.JPG,AFNE01.JPG,,,,,,,,,,,,,,,,,2,5,25,6,,,,,,,AMSA16.jpg,AMNE12.jpg,AMNE17.jpg,AMSA04.jpg,AMSA16.jpg,MS,2,num_8,32,num_6,0.783479211153,,,2017_Mar_30_1040,60.0066016147,MAFE4ImagesEEG,001,200059,
AFNE01.JPG,AFNE01.JPG,AFNE01.JPG,AFNE01.JPG,AFNE01.JPG,AFNE01.JPG,,,,,,,,,,,,,,,,,2,6,26,7,,,,,,,AMNE15.jpg,AMNE04.jpg,AMSA17.jpg,AMSA15.jpg,AMNE04.jpg,MN,1,num_6,32,num_8,0.700199147221,,,2017_Mar_30_1040,60.0066016147,MAFE4ImagesEEG,001,200059,
AFNE01.JPG,AFNE01.JPG,AFNE01.JPG,AFNE01.JPG,AFNE01.JPG,AFNE01.JPG,,,,,,,,,,,,,,,,,2,7,27,8,,,,,,,AMSA15.jpg,AMSA01.jpg,AMNE15.jpg,AMNE18.jpg,AMSA15.jpg,MS,2,num_8,16,num_8,0.766760654049,,,2017_Mar_30_1040,60.0066016147,MAFE4ImagesEEG,001,200059,
AFNE01.JPG,AFNE01.JPG,AFNE01.JPG,AFNE01.JPG,AFNE01.JPG,AFNE01.JPG,,,,,,,,,,,,,,,,,2,8,28,9,,,,,,,AMNE18.jpg,AMSA15.jpg,AMNE02.jpg,AMSA07.jpg,AMSA15.jpg,MS,2,num_6,32,num_8,0.500195170054,,,2017_Mar_30_1040,60.0066016147,MAFE4ImagesEEG,001,200059,
AFNE01.JPG,AFNE01.JPG,AFNE01.JPG,AFNE01.JPG,AFNE01.JPG,AFNE01.JPG,,,,,,,,,,,,,,,,,2,9,29,2,,,,,,,AMNE19.jpg,AMNE02.jpg,AMSA01.jpg,AMSA05.jpg,AMSA01.jpg,MS,2,num_2,32,num_8,0.600136057939,,,2017_Mar_30_1040,60.0066016147,MAFE4ImagesEEG,001,200059,
AFNE01.JPG,AFNE01.JPG,AFNE01.JPG,AFNE01.JPG,AFNE01.JPG,AFNE01.JPG,,,,,,,,,,,,,,,,,3,0,30,1,,,,,,,AMNE12.jpg,AMSA06.jpg,AMSA05.jpg,AMNE15.jpg,AMSA06.jpg,MS,2,num_6,16,num_6,0.749973779544,,,2017_Mar_30_1040,60.0066016147,MAFE4ImagesEEG,001,200059,
AFNE01.JPG,AFNE01.JPG,AFNE01.JPG,AFNE01.JPG,AFNE01.JPG,AFNE01.JPG,,,,,,,,,,,,,,,,,3,1,31,0,,,,,,,AMNE13.jpg,AMSA09.jpg,AMNE09.jpg,AMSA16.jpg,AMNE13.jpg,MN,1,num_8,16,num_8,0.766753277043,,,2017_Mar_30_1040,60.0066016147,MAFE4ImagesEEG,001,200059,
AFNE01.JPG,AFNE01.JPG,AFNE01.JPG,AFNE01.JPG,AFNE01.JPG,AFNE01.JPG,,,,,,,,,,,,,,,,,3,2,32,9,,,,,,,AMNE02.jpg,AMSA16.jpg,AMNE15.jpg,AMSA08.jpg,AMSA16.jpg,MS,2,num_6,16,num_6,0.950124013936,,,2017_Mar_30_1040,60.0066016147,MAFE4ImagesEEG,001,200059,
AFNE01.JPG,AFNE01.JPG,AFNE01.JPG,AFNE01.JPG,AFNE01.JPG,AFNE01.JPG,,,,,,,,,,,,,,,,,3,3,33,3,,,,,,,AMSA08.jpg,AMNE18.jpg,AMNE14.jpg,AMSA18.jpg,AMNE18.jpg,MN,1,num_6,16,num_6,1.23343531787,,,2017_Mar_30_1040,60.0066016147,MAFE4ImagesEEG,001,200059,
AFNE01.JPG,AFNE01.JPG,AFNE01.JPG,AFNE01.JPG,AFNE01.JPG,AFNE01.JPG,,,,,,,,,,,,,,,,,3,4,34,7,,,,,,,AMNE12.jpg,AMSA20.jpg,AMNE04.jpg,AMSA01.jpg,AMSA20.jpg,MS,2,num_6,16,num_6,0.633490741719,,,2017_Mar_30_1040,60.0066016147,MAFE4ImagesEEG,001,200059,
AFNE01.JPG,AFNE01.JPG,AFNE01.JPG,AFNE01.JPG,AFNE01.JPG,AFNE01.JPG,,,,,,,,,,,,,,,,,3,5,35,6,,,,,,,AMNE19.jpg,AMNE10.jpg,AMSA20.jpg,AMSA19.jpg,AMSA19.jpg,MS,2,num_4,16,num_4,0.866755105322,,,2017_Mar_30_1040,60.0066016147,MAFE4ImagesEEG,001,200059,
AFNE01.JPG,AFNE01.JPG,AFNE01.JPG,AFNE01.JPG,AFNE01.JPG,AFNE01.JPG,,,,,,,,,,,,,,,,,3,6,36,8,,,,,,,AMNE11.jpg,AMSA01.jpg,AMNE09.jpg,AMSA16.jpg,AMSA01.jpg,MS,2,num_6,16,num_6,0.650126547785,,,2017_Mar_30_1040,60.0066016147,MAFE4ImagesEEG,001,200059,
AFNE01.JPG,AFNE01.JPG,AFNE01.JPG,AFNE01.JPG,AFNE01.JPG,AFNE01.JPG,,,,,,,,,,,,,,,,,3,7,37,2,,,,,,,AMSA08.jpg,AMNE10.jpg,AMNE13.jpg,AMSA11.jpg,AMSA08.jpg,MS,2,num_8,16,num_8,0.500141927274,,,2017_Mar_30_1040,60.0066016147,MAFE4ImagesEEG,001,200059,
AFNE01.JPG,AFNE01.JPG,AFNE01.JPG,AFNE01.JPG,AFNE01.JPG,AFNE01.JPG,,,,,,,,,,,,,,,,,3,8,38,5,,,,,,,AMSA04.jpg,AMSA01.jpg,AMNE02.jpg,AMNE04.jpg,AMSA01.jpg,MS,2,num_6,32,num_8,0.816765256692,,,2017_Mar_30_1040,60.0066016147,MAFE4ImagesEEG,001,200059,
AFNE01.JPG,AFNE01.JPG,AFNE01.JPG,AFNE01.JPG,AFNE01.JPG,AFNE01.JPG,,,,,,,,,,,,,,,,,3,9,39,4,,,,,,,AMSA06.jpg,AMSA16.jpg,AMNE16.jpg,AMNE03.jpg,AMSA06.jpg,MS,2,num_8,16,num_8,0.666783201974,,,2017_Mar_30_1040,60.0066016147,MAFE4ImagesEEG,001,200059,
AFNE01.JPG,AFNE01.JPG,AFNE01.JPG,AFNE01.JPG,AFNE01.JPG,AFNE01.JPG,,,,,,,,,,,,,,,,,4,0,40,5,,,,,,,AMSA17.jpg,AMSA15.jpg,AMNE03.jpg,AMNE16.jpg,AMNE16.jpg,MN,1,num_4,16,num_4,0.633455781033,,,2017_Mar_30_1040,60.0066016147,MAFE4ImagesEEG,001,200059,
AFNE01.JPG,AFNE01.JPG,AFNE01.JPG,AFNE01.JPG,AFNE01.JPG,AFNE01.JPG,,,,,,,,,,,,,,,,,4,1,41,8,,,,,,,AMSA12.jpg,AMNE13.jpg,AMNE02.jpg,AMSA09.jpg,AMNE13.jpg,MN,1,num_6,32,num_8,0.783494606614,,,2017_Mar_30_1040,60.0066016147,MAFE4ImagesEEG,001,200059,
AFNE01.JPG,AFNE01.JPG,AFNE01.JPG,AFNE01.JPG,AFNE01.JPG,AFNE01.JPG,,,,,,,,,,,,,,,,,4,2,42,2,,,,,,,AMSA08.jpg,AMNE11.jpg,AMNE12.jpg,AMSA19.jpg,AMSA19.jpg,MS,2,num_4,16,num_4,0.650126227178,,,2017_Mar_30_1040,60.0066016147,MAFE4ImagesEEG,001,200059,
AFNE01.JPG,AFNE01.JPG,AFNE01.JPG,AFNE01.JPG,AFNE01.JPG,AFNE01.JPG,,,,,,,,,,,,,,,,,4,3,43,3,,,,,,,AMSA06.jpg,AMNE18.jpg,AMNE15.jpg,AMSA15.jpg,AMSA06.jpg,MS,2,num_8,16,num_8,0.600181282032,,,2017_Mar_30_1040,60.0066016147,MAFE4ImagesEEG,001,200059,
AFNE01.JPG,AFNE01.JPG,AFNE01.JPG,AFNE01.JPG,AFNE01.JPG,AFNE01.JPG,,,,,,,,,,,,,,,,,4,4,44,4,,,,,,,AMNE13.jpg,AMNE19.jpg,AMSA19.jpg,AMSA02.jpg,AMSA19.jpg,MS,2,num_2,16,num_2,1.08347346983,,,2017_Mar_30_1040,60.0066016147,MAFE4ImagesEEG,001,200059,
AFNE01.JPG,AFNE01.JPG,AFNE01.JPG,AFNE01.JPG,AFNE01.JPG,AFNE01.JPG,,,,,,,,,,,,,,,,,4,5,45,9,,,,,,,AMSA19.jpg,AMSA03.jpg,AMNE18.jpg,AMNE08.jpg,AMNE08.jpg,MN,1,num_4,16,num_4,0.633461233694,,,2017_Mar_30_1040,60.0066016147,MAFE4ImagesEEG,001,200059,
AFNE01.JPG,AFNE01.JPG,AFNE01.JPG,AFNE01.JPG,AFNE01.JPG,AFNE01.JPG,,,,,,,,,,,,,,,,,4,6,46,0,,,,,,,AMNE02.jpg,AMSA14.jpg,AMNE04.jpg,AMSA07.jpg,AMSA07.jpg,MS,2,num_4,16,num_4,0.783472154755,,,2017_Mar_30_1040,60.0066016147,MAFE4ImagesEEG,001,200059,
AFNE01.JPG,AFNE01.JPG,AFNE01.JPG,AFNE01.JPG,AFNE01.JPG,AFNE01.JPG,,,,,,,,,,,,,,,,,4,7,47,6,,,,,,,AMNE20.jpg,AMSA14.jpg,AMNE05.jpg,AMSA07.jpg,AMSA14.jpg,MS,2,num_6,16,num_6,0.600137661444,,,2017_Mar_30_1040,60.0066016147,MAFE4ImagesEEG,001,200059,
AFNE01.JPG,AFNE01.JPG,AFNE01.JPG,AFNE01.JPG,AFNE01.JPG,AFNE01.JPG,,,,,,,,,,,,,,,,,4,8,48,7,,,,,,,AMSA14.jpg,AMNE15.jpg,AMNE05.jpg,AMSA03.jpg,AMNE05.jpg,MN,1,num_2,32,num_6,0.616855256259,,,2017_Mar_30_1040,60.0066016147,MAFE4ImagesEEG,001,200059,
AFNE01.JPG,AFNE01.JPG,AFNE01.JPG,AFNE01.JPG,AFNE01.JPG,AFNE01.JPG,,,,,,,,,,,,,,,,,4,9,49,1,,,,,,,AMNE10.jpg,AMNE18.jpg,AMSA13.jpg,AMSA09.jpg,AMSA13.jpg,MS,2,num_2,32,num_4,0.800097376574,,,2017_Mar_30_1040,60.0066016147,MAFE4ImagesEEG,001,200059,
AFNE01.JPG,AFNE01.JPG,AFNE01.JPG,AFNE01.JPG,AFNE01.JPG,AFNE01.JPG,,,,,,,,,,,,,,,,,5,0,50,2,,,,,,,AMNE05.jpg,AMSA04.jpg,AMSA09.jpg,AMNE02.jpg,AMNE02.jpg,MN,1,num_4,32,num_8,0.966763348319,,,2017_Mar_30_1040,60.0066016147,MAFE4ImagesEEG,001,200059,
AFNE01.JPG,AFNE01.JPG,AFNE01.JPG,AFNE01.JPG,AFNE01.JPG,AFNE01.JPG,,,,,,,,,,,,,,,,,5,1,51,4,,,,,,,AMSA03.jpg,AMNE16.jpg,AMSA05.jpg,AMNE18.jpg,AMNE16.jpg,MN,1,num_6,16,num_6,0.766961437184,,,2017_Mar_30_1040,60.0066016147,MAFE4ImagesEEG,001,200059,
AFNE01.JPG,AFNE01.JPG,AFNE01.JPG,AFNE01.JPG,AFNE01.JPG,AFNE01.JPG,,,,,,,,,,,,,,,,,5,2,52,0,,,,,,,AMNE07.jpg,AMNE06.jpg,AMSA14.jpg,AMSA18.jpg,AMSA14.jpg,MS,2,num_2,16,num_2,0.716831746046,,,2017_Mar_30_1040,60.0066016147,MAFE4ImagesEEG,001,200059,
AFNE01.JPG,AFNE01.JPG,AFNE01.JPG,AFNE01.JPG,AFNE01.JPG,AFNE01.JPG,,,,,,,,,,,,,,,,,5,3,53,3,,,,,,,AMSA05.jpg,AMNE17.jpg,AMSA04.jpg,AMNE05.jpg,AMSA05.jpg,MS,2,num_8,32,num_2,0.933500716696,,,2017_Mar_30_1040,60.0066016147,MAFE4ImagesEEG,001,200059,
AFNE01.JPG,AFNE01.JPG,AFNE01.JPG,AFNE01.JPG,AFNE01.JPG,AFNE01.JPG,,,,,,,,,,,,,,,,,5,4,54,1,,,,,,,AMSA12.jpg,AMNE17.jpg,AMSA01.jpg,AMNE19.jpg,AMNE19.jpg,MN,1,num_4,16,num_4,0.783494606614,,,2017_Mar_30_1040,60.0066016147,MAFE4ImagesEEG,001,200059,
AFNE01.JPG,AFNE01.JPG,AFNE01.JPG,AFNE01.JPG,AFNE01.JPG,AFNE01.JPG,,,,,,,,,,,,,,,,,5,5,55,8,,,,,,,AMNE03.jpg,AMSA13.jpg,AMSA01.jpg,AMNE06.jpg,AMSA01.jpg,MS,2,num_2,16,num_2,0.866861590883,,,2017_Mar_30_1040,60.0066016147,MAFE4ImagesEEG,001,200059,
AFNE01.JPG,AFNE01.JPG,AFNE01.JPG,AFNE01.JPG,AFNE01.JPG,AFNE01.JPG,,,,,,,,,,,,,,,,,5,6,56,7,,,,,,,AMNE06.jpg,AMSA14.jpg,AMNE07.jpg,AMSA10.jpg,AMSA10.jpg,MS,2,num_4,16,num_4,0.516897690017,,,2017_Mar_30_1040,60.0066016147,MAFE4ImagesEEG,001,200059,
AFNE01.JPG,AFNE01.JPG,AFNE01.JPG,AFNE01.JPG,AFNE01.JPG,AFNE01.JPG,,,,,,,,,,,,,,,,,5,7,57,6,,,,,,,AMNE10.jpg,AMNE15.jpg,AMSA06.jpg,AMSA04.jpg,AMNE15.jpg,MN,1,num_6,16,num_6,0.533498535631,,,2017_Mar_30_1040,60.0066016147,MAFE4ImagesEEG,001,200059,
AFNE01.JPG,AFNE01.JPG,AFNE01.JPG,AFNE01.JPG,AFNE01.JPG,AFNE01.JPG,,,,,,,,,,,,,,,,,5,8,58,5,,,,,,,AMNE13.jpg,AMSA16.jpg,AMSA11.jpg,AMNE12.jpg,AMSA11.jpg,MS,2,num_2,32,num_6,0.933507772861,,,2017_Mar_30_1040,60.0066016147,MAFE4ImagesEEG,001,200059,
AFNE01.JPG,AFNE01.JPG,AFNE01.JPG,AFNE01.JPG,AFNE01.JPG,AFNE01.JPG,,,,,,,,,,,,,,,,,5,9,59,9,,,,,,,AMSA14.jpg,AMSA13.jpg,AMNE12.jpg,AMNE19.jpg,AMSA14.jpg,MS,2,num_8,16,num_8,0.450177096529,,,2017_Mar_30_1040,60.0066016147,MAFE4ImagesEEG,001,200059,
,,,,,,,,,,,,,,,,,,,,,,,,,,,,,,,,,,,,,,,,,,,space,4.28319487534,2017_Mar_30_1040,60.0066016147,MAFE4ImagesEEG,001,200059,
AFNE01.JPG,AFNE01.JPG,AFNE01.JPG,AFNE01.JPG,AFNE01.JPG,AFNE01.JPG,,,,,,,,,,,,,,,,,,,,,0,0,0,9,,,AFNE05.jpg,AFSA13.jpg,AFNE12.jpg,AFSA20.jpg,AFSA20.jpg,FS,4,num_4,32,num_6,3.43357785465,,,2017_Mar_30_1040,60.0066016147,MAFE4ImagesEEG,001,200059,
AFNE01.JPG,AFNE01.JPG,AFNE01.JPG,AFNE01.JPG,AFNE01.JPG,AFNE01.JPG,,,,,,,,,,,,,,,,,,,,,0,1,1,6,,,AFNE05.jpg,AFNE11.jpg,AFSA08.jpg,AFSA11.jpg,AFNE11.jpg,FN,3,num_6,32,num_4,0.700203958433,,,2017_Mar_30_1040,60.0066016147,MAFE4ImagesEEG,001,200059,
AFNE01.JPG,AFNE01.JPG,AFNE01.JPG,AFNE01.JPG,AFNE01.JPG,AFNE01.JPG,,,,,,,,,,,,,,,,,,,,,0,2,2,5,,,AFSA20.jpg,AFNE11.jpg,AFNE09.jpg,AFSA08.jpg,AFSA08.jpg,FS,4,num_4,16,num_4,0.600236449391,,,2017_Mar_30_1040,60.0066016147,MAFE4ImagesEEG,001,200059,
AFNE01.JPG,AFNE01.JPG,AFNE01.JPG,AFNE01.JPG,AFNE01.JPG,AFNE01.JPG,,,,,,,,,,,,,,,,,,,,,0,3,3,3,,,AFSA10.jpg,AFNE15.jpg,AFSA02.jpg,AFNE01.jpg,AFSA10.jpg,FS,4,num_8,32,num_2,0.850130845793,,,2017_Mar_30_1040,60.0066016147,MAFE4ImagesEEG,001,200059,
AFNE01.JPG,AFNE01.JPG,AFNE01.JPG,AFNE01.JPG,AFNE01.JPG,AFNE01.JPG,,,,,,,,,,,,,,,,,,,,,0,4,4,4,,,AFSA17.jpg,AFNE11.jpg,AFNE04.jpg,AFSA07.jpg,AFNE04.jpg,FN,3,num_2,32,num_8,0.983462019358,,,2017_Mar_30_1040,60.0066016147,MAFE4ImagesEEG,001,200059,
AFNE01.JPG,AFNE01.JPG,AFNE01.JPG,AFNE01.JPG,AFNE01.JPG,AFNE01.JPG,,,,,,,,,,,,,,,,,,,,,0,5,5,2,,,AFSA06.jpg,AFNE02.jpg,AFNE19.jpg,AFSA20.jpg,AFNE19.jpg,FN,3,num_2,16,num_2,0.73343611951,,,2017_Mar_30_1040,60.0066016147,MAFE4ImagesEEG,001,200059,
AFNE01.JPG,AFNE01.JPG,AFNE01.JPG,AFNE01.JPG,AFNE01.JPG,AFNE01.JPG,,,,,,,,,,,,,,,,,,,,,0,6,6,7,,,AFNE09.jpg,AFSA03.jpg,AFSA15.jpg,AFNE10.jpg,AFSA15.jpg,FS,4,num_2,32,num_4,1.08344909362,,,2017_Mar_30_1040,60.0066016147,MAFE4ImagesEEG,001,200059,
AFNE01.JPG,AFNE01.JPG,AFNE01.JPG,AFNE01.JPG,AFNE01.JPG,AFNE01.JPG,,,,,,,,,,,,,,,,,,,,,0,7,7,8,,,AFSA08.jpg,AFNE02.jpg,AFNE11.jpg,AFSA01.jpg,AFSA01.jpg,FS,4,num_4,16,num_4,0.533478649799,,,2017_Mar_30_1040,60.0066016147,MAFE4ImagesEEG,001,200059,
AFNE01.JPG,AFNE01.JPG,AFNE01.JPG,AFNE01.JPG,AFNE01.JPG,AFNE01.JPG,,,,,,,,,,,,,,,,,,,,,0,8,8,1,,,AFSA01.jpg,AFNE04.jpg,AFSA06.jpg,AFNE10.jpg,AFNE10.jpg,FN,3,num_4,32,num_6,0.650130396709,,,2017_Mar_30_1040,60.0066016147,MAFE4ImagesEEG,001,200059,
AFNE01.JPG,AFNE01.JPG,AFNE01.JPG,AFNE01.JPG,AFNE01.JPG,AFNE01.JPG,,,,,,,,,,,,,,,,,,,,,0,9,9,0,,,AFNE14.jpg,AFSA05.jpg,AFSA03.jpg,AFNE03.jpg,AFSA05.jpg,FS,4,num_6,16,num_6,0.716803841526,,,2017_Mar_30_1040,60.0066016147,MAFE4ImagesEEG,001,200059,
AFNE01.JPG,AFNE01.JPG,AFNE01.JPG,AFNE01.JPG,AFNE01.JPG,AFNE01.JPG,,,,,,,,,,,,,,,,,,,,,1,0,10,3,,,AFNE16.jpg,AFSA15.jpg,AFSA06.jpg,AFNE18.jpg,AFNE18.jpg,FN,3,num_4,32,num_8,0.683437931817,,,2017_Mar_30_1040,60.0066016147,MAFE4ImagesEEG,001,200059,
AFNE01.JPG,AFNE01.JPG,AFNE01.JPG,AFNE01.JPG,AFNE01.JPG,AFNE01.JPG,,,,,,,,,,,,,,,,,,,,,1,1,11,8,,,AFNE11.jpg,AFSA07.jpg,AFNE04.jpg,AFSA09.jpg,AFNE11.jpg,FN,3,num_8,16,num_8,0.416813111166,,,2017_Mar_30_1040,60.0066016147,MAFE4ImagesEEG,001,200059,
AFNE01.JPG,AFNE01.JPG,AFNE01.JPG,AFNE01.JPG,AFNE01.JPG,AFNE01.JPG,,,,,,,,,,,,,,,,,,,,,1,2,12,2,,,AFSA14.jpg,AFNE10.jpg,AFNE05.jpg,AFSA16.jpg,AFNE05.jpg,FN,3,num_2,32,num_6,0.5834572725,,,2017_Mar_30_1040,60.0066016147,MAFE4ImagesEEG,001,200059,
AFNE01.JPG,AFNE01.JPG,AFNE01.JPG,AFNE01.JPG,AFNE01.JPG,AFNE01.JPG,,,,,,,,,,,,,,,,,,,,,1,3,13,6,,,AFSA04.jpg,AFNE07.jpg,AFNE02.jpg,AFSA05.jpg,AFNE02.jpg,FN,3,num_2,16,num_2,0.700149432756,,,2017_Mar_30_1040,60.0066016147,MAFE4ImagesEEG,001,200059,
AFNE01.JPG,AFNE01.JPG,AFNE01.JPG,AFNE01.JPG,AFNE01.JPG,AFNE01.JPG,,,,,,,,,,,,,,,,,,,,,1,4,14,7,,,AFNE13.jpg,AFSA17.jpg,AFSA06.jpg,AFNE08.jpg,AFSA17.jpg,FS,4,num_6,16,num_6,0.733439647825,,,2017_Mar_30_1040,60.0066016147,MAFE4ImagesEEG,001,200059,
AFNE01.JPG,AFNE01.JPG,AFNE01.JPG,AFNE01.JPG,AFNE01.JPG,AFNE01.JPG,,,,,,,,,,,,,,,,,,,,,1,5,15,1,,,AFSA19.jpg,AFNE12.jpg,AFNE08.jpg,AFSA05.jpg,AFNE12.jpg,FN,3,num_6,16,num_6,0.6001286807,,,2017_Mar_30_1040,60.0066016147,MAFE4ImagesEEG,001,200059,
AFNE01.JPG,AFNE01.JPG,AFNE01.JPG,AFNE01.JPG,AFNE01.JPG,AFNE01.JPG,,,,,,,,,,,,,,,,,,,,,1,6,16,5,,,AFSA19.jpg,AFSA16.jpg,AFNE20.jpg,AFNE16.jpg,AFSA16.jpg,FS,4,num_6,32,num_8,0.650128151756,,,2017_Mar_30_1040,60.0066016147,MAFE4ImagesEEG,001,200059,
AFNE01.JPG,AFNE01.JPG,AFNE01.JPG,AFNE01.JPG,AFNE01.JPG,AFNE01.JPG,,,,,,,,,,,,,,,,,,,,,1,7,17,4,,,AFSA08.jpg,AFSA16.jpg,AFNE16.jpg,AFNE19.jpg,AFNE16.jpg,FN,3,num_2,32,num_6,0.466803280404,,,2017_Mar_30_1040,60.0066016147,MAFE4ImagesEEG,001,200059,
AFNE01.JPG,AFNE01.JPG,AFNE01.JPG,AFNE01.JPG,AFNE01.JPG,AFNE01.JPG,,,,,,,,,,,,,,,,,,,,,1,8,18,0,,,AFSA10.jpg,AFNE17.jpg,AFSA03.jpg,AFNE12.jpg,AFSA03.jpg,FS,4,num_2,16,num_2,0.916444420815,,,2017_Mar_30_1040,60.0066016147,MAFE4ImagesEEG,001,200059,
AFNE01.JPG,AFNE01.JPG,AFNE01.JPG,AFNE01.JPG,AFNE01.JPG,AFNE01.JPG,,,,,,,,,,,,,,,,,,,,,1,9,19,9,,,AFSA02.jpg,AFNE19.jpg,AFNE10.jpg,AFSA15.jpg,AFSA15.jpg,FS,4,num_4,16,num_4,0.583469460718,,,2017_Mar_30_1040,60.0066016147,MAFE4ImagesEEG,001,200059,
AFNE01.JPG,AFNE01.JPG,AFNE01.JPG,AFNE01.JPG,AFNE01.JPG,AFNE01.JPG,,,,,,,,,,,,,,,,,,,,,2,0,20,8,,,AFSA14.jpg,AFNE11.jpg,AFSA06.jpg,AFNE18.jpg,AFSA14.jpg,FS,4,num_8,32,num_2,0.616770260269,,,2017_Mar_30_1040,60.0066016147,MAFE4ImagesEEG,001,200059,
AFNE01.JPG,AFNE01.JPG,AFNE01.JPG,AFNE01.JPG,AFNE01.JPG,AFNE01.JPG,,,,,,,,,,,,,,,,,,,,,2,1,21,1,,,AFNE12.jpg,AFSA03.jpg,AFSA05.jpg,AFNE08.jpg,AFNE12.jpg,FN,3,num_8,32,num_4,0.616804579506,,,2017_Mar_30_1040,60.0066016147,MAFE4ImagesEEG,001,200059,
AFNE01.JPG,AFNE01.JPG,AFNE01.JPG,AFNE01.JPG,AFNE01.JPG,AFNE01.JPG,,,,,,,,,,,,,,,,,,,,,2,2,22,2,,,AFSA06.jpg,AFNE05.jpg,AFNE13.jpg,AFSA20.jpg,AFNE05.jpg,FN,3,num_6,32,num_4,0.766829933971,,,2017_Mar_30_1040,60.0066016147,MAFE4ImagesEEG,001,200059,
AFNE01.JPG,AFNE01.JPG,AFNE01.JPG,AFNE01.JPG,AFNE01.JPG,AFNE01.JPG,,,,,,,,,,,,,,,,,,,,,2,3,23,3,,,AFSA16.jpg,AFNE13.jpg,AFSA20.jpg,AFNE04.jpg,AFNE13.jpg,FN,3,num_6,16,num_6,0.700119924499,,,2017_Mar_30_1040,60.0066016147,MAFE4ImagesEEG,001,200059,
AFNE01.JPG,AFNE01.JPG,AFNE01.JPG,AFNE01.JPG,AFNE01.JPG,AFNE01.JPG,,,,,,,,,,,,,,,,,,,,,2,4,24,9,,,AFNE14.jpg,AFSA05.jpg,AFNE12.jpg,AFSA16.jpg,AFSA05.jpg,FS,4,num_6,32,num_4,1.15010040742,,,2017_Mar_30_1040,60.0066016147,MAFE4ImagesEEG,001,200059,
AFNE01.JPG,AFNE01.JPG,AFNE01.JPG,AFNE01.JPG,AFNE01.JPG,AFNE01.JPG,,,,,,,,,,,,,,,,,,,,,2,5,25,7,,,AFNE18.jpg,AFSA03.jpg,AFSA19.jpg,AFNE04.jpg,AFNE18.jpg,FN,3,num_8,32,num_4,0.700120886788,,,2017_Mar_30_1040,60.0066016147,MAFE4ImagesEEG,001,200059,
AFNE01.JPG,AFNE01.JPG,AFNE01.JPG,AFNE01.JPG,AFNE01.JPG,AFNE01.JPG,,,,,,,,,,,,,,,,,,,,,2,6,26,6,,,AFSA07.jpg,AFNE02.jpg,AFSA08.jpg,AFNE18.jpg,AFNE18.jpg,FN,3,num_4,32,num_6,1.56669926457,,,2017_Mar_30_1040,60.0066016147,MAFE4ImagesEEG,001,200059,
AFNE01.JPG,AFNE01.JPG,AFNE01.JPG,AFNE01.JPG,AFNE01.JPG,AFNE01.JPG,,,,,,,,,,,,,,,,,,,,,2,7,27,5,,,AFNE18.jpg,AFNE16.jpg,AFSA10.jpg,AFSA16.jpg,AFSA16.jpg,FS,4,num_4,16,num_4,0.666789937764,,,2017_Mar_30_1040,60.0066016147,MAFE4ImagesEEG,001,200059,
AFNE01.JPG,AFNE01.JPG,AFNE01.JPG,AFNE01.JPG,AFNE01.JPG,AFNE01.JPG,,,,,,,,,,,,,,,,,,,,,2,8,28,0,,,AFNE18.jpg,AFNE09.jpg,AFSA05.jpg,AFSA12.jpg,AFSA05.jpg,FS,4,num_2,16,num_2,0.600131246727,,,2017_Mar_30_1040,60.0066016147,MAFE4ImagesEEG,001,200059,
AFNE01.JPG,AFNE01.JPG,AFNE01.JPG,AFNE01.JPG,AFNE01.JPG,AFNE01.JPG,,,,,,,,,,,,,,,,,,,,,2,9,29,4,,,AFNE13.jpg,AFNE01.jpg,AFSA13.jpg,AFSA01.jpg,AFSA13.jpg,FS,4,num_2,16,num_2,0.583529118216,,,2017_Mar_30_1040,60.0066016147,MAFE4ImagesEEG,001,200059,
AFNE01.JPG,AFNE01.JPG,AFNE01.JPG,AFNE01.JPG,AFNE01.JPG,AFNE01.JPG,,,,,,,,,,,,,,,,,,,,,3,0,30,5,,,AFSA05.jpg,AFNE07.jpg,AFSA19.jpg,AFNE12.jpg,AFSA05.jpg,FS,4,num_8,16,num_8,1.15010778466,,,2017_Mar_30_1040,60.0066016147,MAFE4ImagesEEG,001,200059,
AFNE01.JPG,AFNE01.JPG,AFNE01.JPG,AFNE01.JPG,AFNE01.JPG,AFNE01.JPG,,,,,,,,,,,,,,,,,,,,,3,1,31,9,,,AFSA06.jpg,AFSA07.jpg,AFNE09.jpg,AFNE10.jpg,AFSA06.jpg,FS,4,num_8,32,num_6,0.750120678218,,,2017_Mar_30_1040,60.0066016147,MAFE4ImagesEEG,001,200059,
AFNE01.JPG,AFNE01.JPG,AFNE01.JPG,AFNE01.JPG,AFNE01.JPG,AFNE01.JPG,,,,,,,,,,,,,,,,,,,,,3,2,32,1,,,AFSA10.jpg,AFSA03.jpg,AFNE02.jpg,AFNE20.jpg,AFNE02.jpg,FN,3,num_2,16,num_2,1.39982224605,,,2017_Mar_30_1040,60.0066016147,MAFE4ImagesEEG,001,200059,
AFNE01.JPG,AFNE01.JPG,AFNE01.JPG,AFNE01.JPG,AFNE01.JPG,AFNE01.JPG,,,,,,,,,,,,,,,,,,,,,3,3,33,6,,,AFNE08.jpg,AFSA06.jpg,AFSA09.jpg,AFNE18.jpg,AFSA06.jpg,FS,4,num_6,32,num_4,0.633463158039,,,2017_Mar_30_1040,60.0066016147,MAFE4ImagesEEG,001,200059,
AFNE01.JPG,AFNE01.JPG,AFNE01.JPG,AFNE01.JPG,AFNE01.JPG,AFNE01.JPG,,,,,,,,,,,,,,,,,,,,,3,4,34,2,,,AFNE05.jpg,AFNE18.jpg,AFSA13.jpg,AFSA20.jpg,AFNE05.jpg,FN,3,num_8,32,num_4,1.6667629953,,,2017_Mar_30_1040,60.0066016147,MAFE4ImagesEEG,001,200059,
AFNE01.JPG,AFNE01.JPG,AFNE01.JPG,AFNE01.JPG,AFNE01.JPG,AFNE01.JPG,,,,,,,,,,,,,,,,,,,,,3,5,35,0,,,AFSA16.jpg,AFNE07.jpg,AFNE09.jpg,AFSA19.jpg,AFSA19.jpg,FS,4,num_4,16,num_4,0.666915346868,,,2017_Mar_30_1040,60.0066016147,MAFE4ImagesEEG,001,200059,
AFNE01.JPG,AFNE01.JPG,AFNE01.JPG,AFNE01.JPG,AFNE01.JPG,AFNE01.JPG,,,,,,,,,,,,,,,,,,,,,3,6,36,8,,,AFNE18.jpg,AFSA18.jpg,AFSA05.jpg,AFNE11.jpg,AFSA18.jpg,FS,4,num_6,16,num_6,0.850087545812,,,2017_Mar_30_1040,60.0066016147,MAFE4ImagesEEG,001,200059,
AFNE01.JPG,AFNE01.JPG,AFNE01.JPG,AFNE01.JPG,AFNE01.JPG,AFNE01.JPG,,,,,,,,,,,,,,,,,,,,,3,7,37,7,,,AFSA03.jpg,AFNE12.jpg,AFNE08.jpg,AFSA13.jpg,AFNE12.jpg,FN,3,num_6,16,num_6,0.699989383575,,,2017_Mar_30_1040,60.0066016147,MAFE4ImagesEEG,001,200059,
AFNE01.JPG,AFNE01.JPG,AFNE01.JPG,AFNE01.JPG,AFNE01.JPG,AFNE01.JPG,,,,,,,,,,,,,,,,,,,,,3,8,38,4,,,AFSA07.jpg,AFNE05.jpg,AFNE12.jpg,AFSA11.jpg,AFNE12.jpg,FN,3,num_2,16,num_2,0.76676097489,,,2017_Mar_30_1040,60.0066016147,MAFE4ImagesEEG,001,200059,
