IPosition2,IPosition3,IPosition1,IPosition6,IPosition4,IPosition5,TrialsF1.thisRepN,TrialsF1.thisTrialN,TrialsF1.thisN,TrialsF1.thisIndex,TrialsM1.thisRepN,TrialsM1.thisTrialN,TrialsM1.thisN,TrialsM1.thisIndex,TrialsF2.thisRepN,TrialsF2.thisTrialN,TrialsF2.thisN,TrialsF2.thisIndex,TrialsM2.thisRepN,TrialsM2.thisTrialN,TrialsM2.thisN,TrialsM2.thisIndex,TrialsF3.thisRepN,TrialsF3.thisTrialN,TrialsF3.thisN,TrialsF3.thisIndex,TrialsM3.thisRepN,TrialsM3.thisTrialN,TrialsM3.thisN,TrialsM3.thisIndex,InstrKey_resp.keys,InstrKey_resp.rt,Image0 _Position,Image1 _Position,Image2 _Position,Image3 _Position,Center_image,condition,code,correct_answer,accuracy,Key_Resp.keys,Key_Resp.rt,BreakKey_resp.keys,BreakKey_resp.rt,date,frameRate,expName,session,participant,
,,,,,,,,,,,,,,,,,,,,,,,,,,,,,,space,26.865109069,,,,,,,,,,,,,,2017_Mar_29_1448,60.0182684843,FEMA4ImagesEEG,001,200098,
AFNE22.JPG,AFSA24.JPG,AFSA22.JPG,AFNE25.JPG,AFNE24.JPG,AFSA25.JPG,0,0,0,6,,,,,,,,,,,,,,,,,,,,,,,AFNE04.jpg,AFNE15.jpg,AFSA16.jpg,AFSA03.jpg,AFSA03.jpg,FS,4,num_4,16,num_4,0.850147524267,,,2017_Mar_29_1448,60.0182684843,FEMA4ImagesEEG,001,200098,
AMSA21.JPG,AMNE22.JPG,AMNE21.JPG,AMSA23.JPG,AMSA22.JPG,AMNE23.JPG,0,1,1,1,,,,,,,,,,,,,,,,,,,,,,,AFNE15.jpg,AFSA02.jpg,AFNE13.jpg,AFSA06.jpg,AFSA02.jpg,FS,4,num_6,16,num_6,0.966640184284,,,2017_Mar_29_1448,60.0182684843,FEMA4ImagesEEG,001,200098,
AMSA21.JPG,AMNE23.JPG,AMNE21.JPG,AMSA25.JPG,AMNE25.JPG,AMSA23.JPG,0,2,2,5,,,,,,,,,,,,,,,,,,,,,,,AFSA06.jpg,AFSA04.jpg,AFNE20.jpg,AFNE06.jpg,AFNE06.jpg,FN,3,num_4,16,num_4,1.00016036979,,,2017_Mar_29_1448,60.0182684843,FEMA4ImagesEEG,001,200098,
AFSA21.JPG,AFNE23.JPG,AFNE21.JPG,AFSA25.JPG,AFNE25.JPG,AFSA23.JPG,0,3,3,4,,,,,,,,,,,,,,,,,,,,,,,AFNE20.jpg,AFSA15.jpg,AFSA11.jpg,AFNE05.jpg,AFNE05.jpg,FN,3,num_4,16,num_4,1.05008927791,,,2017_Mar_29_1448,60.0182684843,FEMA4ImagesEEG,001,200098,
AFSA21.JPG,AFNE22.JPG,AFNE21.JPG,AFSA23.JPG,AFSA22.JPG,AFNE23.JPG,0,4,4,0,,,,,,,,,,,,,,,,,,,,,,,AFNE08.jpg,AFSA18.jpg,AFSA11.jpg,AFNE20.jpg,AFSA11.jpg,FS,4,num_2,16,num_2,1.18344578997,,,2017_Mar_29_1448,60.0182684843,FEMA4ImagesEEG,001,200098,
AFSA25.JPG,AFNE24.JPG,AFSA24.JPG,AFNE21.JPG,AFSA21.JPG,AFNE25.JPG,0,5,5,2,,,,,,,,,,,,,,,,,,,,,,,AFNE03.jpg,AFSA15.jpg,AFSA08.jpg,AFNE16.jpg,AFSA15.jpg,FS,4,num_6,16,num_6,0.683342351462,,,2017_Mar_29_1448,60.0182684843,FEMA4ImagesEEG,001,200098,
AMSA25.JPG,AMNE24.JPG,AMSA24.JPG,AMNE26.JPG,AMSA21.JPG,AMNE25.JPG,0,6,6,3,,,,,,,,,,,,,,,,,,,,,,,AFSA08.jpg,AFNE20.jpg,AFSA19.jpg,AFNE05.jpg,AFSA08.jpg,FS,4,num_8,16,num_8,1.06669589668,,,2017_Mar_29_1448,60.0182684843,FEMA4ImagesEEG,001,200098,
AMNE23.JPG,AMNE24.JPG,AMNE22.JPG,AMSA24.JPG,AMSA22.JPG,AMSA23.JPG,0,7,7,9,,,,,,,,,,,,,,,,,,,,,,,AFNE17.jpg,AFNE09.jpg,AFSA01.jpg,AFSA11.jpg,AFSA11.jpg,FS,4,num_4,16,num_4,0.65012975526,,,2017_Mar_29_1448,60.0182684843,FEMA4ImagesEEG,001,200098,
AMNE22.JPG,AMSA24.JPG,AMSA22.JPG,AMNE25.JPG,AMNE24.JPG,AMSA25.JPG,0,8,8,7,,,,,,,,,,,,,,,,,,,,,,,AFSA17.jpg,AFNE01.jpg,AFNE06.jpg,AFSA20.jpg,AFNE01.jpg,FN,3,num_6,16,num_6,0.716807049117,,,2017_Mar_29_1448,60.0182684843,FEMA4ImagesEEG,001,200098,
AFNE23.JPG,AFNE24.JPG,AFNE22.JPG,AFSA24.JPG,AFSA22.JPG,AFSA23.JPG,0,9,9,8,,,,,,,,,,,,,,,,,,,,,,,AFSA11.jpg,AFNE15.jpg,AFSA08.jpg,AFNE10.jpg,AFNE10.jpg,FN,3,num_4,32,num_8,1.16674968472,,,2017_Mar_29_1448,60.0182684843,FEMA4ImagesEEG,001,200098,
AMNE22.JPG,AMSA24.JPG,AMSA22.JPG,AMNE25.JPG,AMNE24.JPG,AMSA25.JPG,,,,,0,0,0,7,,,,,,,,,,,,,,,,,,,AMNE10.jpg,AMSA15.jpg,AMNE05.jpg,AMSA04.jpg,AMSA15.jpg,MS,2,num_6,16,num_6,0.816756596672,,,2017_Mar_29_1448,60.0182684843,FEMA4ImagesEEG,001,200098,
AMNE23.JPG,AMNE24.JPG,AMNE22.JPG,AMSA24.JPG,AMSA22.JPG,AMSA23.JPG,,,,,0,1,1,9,,,,,,,,,,,,,,,,,,,AMNE18.jpg,AMNE16.jpg,AMSA08.jpg,AMSA11.jpg,AMSA11.jpg,MS,2,num_4,16,num_4,0.866777877789,,,2017_Mar_29_1448,60.0182684843,FEMA4ImagesEEG,001,200098,
AFSA21.JPG,AFNE22.JPG,AFNE21.JPG,AFSA23.JPG,AFSA22.JPG,AFNE23.JPG,,,,,0,2,2,0,,,,,,,,,,,,,,,,,,,AMNE03.jpg,AMNE01.jpg,AMSA09.jpg,AMSA02.jpg,AMSA09.jpg,MS,2,num_2,16,num_2,0.766792407376,,,2017_Mar_29_1448,60.0182684843,FEMA4ImagesEEG,001,200098,
AMSA21.JPG,AMNE22.JPG,AMNE21.JPG,AMSA23.JPG,AMSA22.JPG,AMNE23.JPG,,,,,0,3,3,1,,,,,,,,,,,,,,,,,,,AMSA04.jpg,AMNE09.jpg,AMSA10.jpg,AMNE08.jpg,AMSA04.jpg,MS,2,num_8,16,num_8,0.800163448905,,,2017_Mar_29_1448,60.0182684843,FEMA4ImagesEEG,001,200098,
AMSA21.JPG,AMNE23.JPG,AMNE21.JPG,AMSA25.JPG,AMNE25.JPG,AMSA23.JPG,,,,,0,4,4,5,,,,,,,,,,,,,,,,,,,AMNE02.jpg,AMSA14.jpg,AMNE15.jpg,AMSA01.jpg,AMNE02.jpg,MN,1,num_8,16,num_8,0.783473758493,,,2017_Mar_29_1448,60.0182684843,FEMA4ImagesEEG,001,200098,
AMSA25.JPG,AMNE24.JPG,AMSA24.JPG,AMNE26.JPG,AMSA21.JPG,AMNE25.JPG,,,,,0,5,5,3,,,,,,,,,,,,,,,,,,,AMSA15.jpg,AMNE09.jpg,AMNE12.jpg,AMSA18.jpg,AMSA18.jpg,MS,2,num_4,32,num_8,0.550153907039,,,2017_Mar_29_1448,60.0182684843,FEMA4ImagesEEG,001,200098,
AFSA25.JPG,AFNE24.JPG,AFSA24.JPG,AFNE21.JPG,AFSA21.JPG,AFNE25.JPG,,,,,0,6,6,2,,,,,,,,,,,,,,,,,,,AMSA03.jpg,AMSA05.jpg,AMNE08.jpg,AMNE03.jpg,AMNE08.jpg,MN,1,num_2,16,num_2,0.966758537223,,,2017_Mar_29_1448,60.0182684843,FEMA4ImagesEEG,001,200098,
AFNE22.JPG,AFSA24.JPG,AFSA22.JPG,AFNE25.JPG,AFNE24.JPG,AFSA25.JPG,,,,,0,7,7,6,,,,,,,,,,,,,,,,,,,AMSA18.jpg,AMSA15.jpg,AMNE18.jpg,AMNE06.jpg,AMNE06.jpg,MN,1,num_4,32,num_8,0.883470134228,,,2017_Mar_29_1448,60.0182684843,FEMA4ImagesEEG,001,200098,
AFSA21.JPG,AFNE23.JPG,AFNE21.JPG,AFSA25.JPG,AFNE25.JPG,AFSA23.JPG,,,,,0,8,8,4,,,,,,,,,,,,,,,,,,,AMNE01.jpg,AMSA19.jpg,AMNE20.jpg,AMSA15.jpg,AMNE20.jpg,MN,1,num_2,32,num_8,1.90006488562,,,2017_Mar_29_1448,60.0182684843,FEMA4ImagesEEG,001,200098,
AFNE23.JPG,AFNE24.JPG,AFNE22.JPG,AFSA24.JPG,AFSA22.JPG,AFSA23.JPG,,,,,0,9,9,8,,,,,,,,,,,,,,,,,,,AMSA06.jpg,AMNE18.jpg,AMNE09.jpg,AMSA08.jpg,AMSA06.jpg,MS,2,num_8,16,num_8,0.750161733013,,,2017_Mar_29_1448,60.0182684843,FEMA4ImagesEEG,001,200098,
AFNE23.JPG,AFNE24.JPG,AFNE22.JPG,AFSA24.JPG,AFSA22.JPG,AFSA23.JPG,,,,,,,,,0,0,0,8,,,,,,,,,,,,,,,AFNE04.jpg,AFNE09.jpg,AFSA02.jpg,AFSA15.jpg,AFSA02.jpg,FS,4,num_2,16,num_2,0.950104448828,,,2017_Mar_29_1448,60.0182684843,FEMA4ImagesEEG,001,200098,
AFSA21.JPG,AFNE22.JPG,AFNE21.JPG,AFSA23.JPG,AFSA22.JPG,AFNE23.JPG,,,,,,,,,0,1,1,0,,,,,,,,,,,,,,,AFSA14.jpg,AFSA16.jpg,AFNE07.jpg,AFNE10.jpg,AFSA16.jpg,FS,4,num_6,32,num_8,2.03336815501,,,2017_Mar_29_1448,60.0182684843,FEMA4ImagesEEG,001,200098,
AFNE22.JPG,AFSA24.JPG,AFSA22.JPG,AFNE25.JPG,AFNE24.JPG,AFSA25.JPG,,,,,,,,,0,2,2,6,,,,,,,,,,,,,,,AFNE04.jpg,AFSA03.jpg,AFSA18.jpg,AFNE14.jpg,AFSA18.jpg,FS,4,num_2,16,num_2,1.06674593221,,,2017_Mar_29_1448,60.0182684843,FEMA4ImagesEEG,001,200098,
AMSA21.JPG,AMNE22.JPG,AMNE21.JPG,AMSA23.JPG,AMSA22.JPG,AMNE23.JPG,,,,,,,,,0,3,3,1,,,,,,,,,,,,,,,AFSA11.jpg,AFSA01.jpg,AFNE11.jpg,AFNE20.jpg,AFNE20.jpg,FN,3,num_4,16,num_4,1.01689464308,,,2017_Mar_29_1448,60.0182684843,FEMA4ImagesEEG,001,200098,
AFSA21.JPG,AFNE23.JPG,AFNE21.JPG,AFSA25.JPG,AFNE25.JPG,AFSA23.JPG,,,,,,,,,0,4,4,4,,,,,,,,,,,,,,,AFNE16.jpg,AFSA18.jpg,AFNE13.jpg,AFSA10.jpg,AFSA18.jpg,FS,4,num_6,16,num_6,0.850118016242,,,2017_Mar_29_1448,60.0182684843,FEMA4ImagesEEG,001,200098,
AMSA21.JPG,AMNE23.JPG,AMNE21.JPG,AMSA25.JPG,AMNE25.JPG,AMSA23.JPG,,,,,,,,,0,5,5,5,,,,,,,,,,,,,,,AFSA16.jpg,AFSA15.jpg,AFNE10.jpg,AFNE19.jpg,AFSA15.jpg,FS,4,num_6,16,num_6,0.633517362992,,,2017_Mar_29_1448,60.0182684843,FEMA4ImagesEEG,001,200098,
AMNE22.JPG,AMSA24.JPG,AMSA22.JPG,AMNE25.JPG,AMNE24.JPG,AMSA25.JPG,,,,,,,,,0,6,6,7,,,,,,,,,,,,,,,AFSA13.jpg,AFNE02.jpg,AFNE18.jpg,AFSA03.jpg,AFSA13.jpg,FS,4,num_8,32,num_4,0.733055722434,,,2017_Mar_29_1448,60.0182684843,FEMA4ImagesEEG,001,200098,
AMSA25.JPG,AMNE24.JPG,AMSA24.JPG,AMNE26.JPG,AMSA21.JPG,AMNE25.JPG,,,,,,,,,0,7,7,3,,,,,,,,,,,,,,,AFSA04.jpg,AFNE09.jpg,AFNE03.jpg,AFSA08.jpg,AFNE03.jpg,FN,3,num_2,32,num_8,1.01685294695,,,2017_Mar_29_1448,60.0182684843,FEMA4ImagesEEG,001,200098,
AFSA25.JPG,AFNE24.JPG,AFSA24.JPG,AFNE21.JPG,AFSA21.JPG,AFNE25.JPG,,,,,,,,,0,8,8,2,,,,,,,,,,,,,,,AFNE08.jpg,AFSA07.jpg,AFSA09.jpg,AFNE15.jpg,AFSA07.jpg,FS,4,num_6,16,num_6,0.983477415051,,,2017_Mar_29_1448,60.0182684843,FEMA4ImagesEEG,001,200098,
AMNE23.JPG,AMNE24.JPG,AMNE22.JPG,AMSA24.JPG,AMSA22.JPG,AMSA23.JPG,,,,,,,,,0,9,9,9,,,,,,,,,,,,,,,AFNE14.jpg,AFNE09.jpg,AFSA16.jpg,AFSA11.jpg,AFSA16.jpg,FS,4,num_2,32,num_6,1.40014394803,,,2017_Mar_29_1448,60.0182684843,FEMA4ImagesEEG,001,200098,
AFNE23.JPG,AFNE24.JPG,AFNE22.JPG,AFSA24.JPG,AFSA22.JPG,AFSA23.JPG,,,,,,,,,,,,,0,0,0,8,,,,,,,,,,,AMNE16.jpg,AMSA13.jpg,AMSA12.jpg,AMNE04.jpg,AMSA12.jpg,MS,2,num_2,32,num_6,0.80013650679,,,2017_Mar_29_1448,60.0182684843,FEMA4ImagesEEG,001,200098,
AMSA21.JPG,AMNE22.JPG,AMNE21.JPG,AMSA23.JPG,AMSA22.JPG,AMNE23.JPG,,,,,,,,,,,,,0,1,1,1,,,,,,,,,,,AMNE13.jpg,AMSA19.jpg,AMNE11.jpg,AMSA12.jpg,AMNE13.jpg,MN,1,num_8,16,num_8,1.00013278623,,,2017_Mar_29_1448,60.0182684843,FEMA4ImagesEEG,001,200098,
AMSA21.JPG,AMNE23.JPG,AMNE21.JPG,AMSA25.JPG,AMNE25.JPG,AMSA23.JPG,,,,,,,,,,,,,0,2,2,5,,,,,,,,,,,AMSA05.jpg,AMSA03.jpg,AMNE03.jpg,AMNE09.jpg,AMSA03.jpg,MS,2,num_6,16,num_6,0.966794460081,,,2017_Mar_29_1448,60.0182684843,FEMA4ImagesEEG,001,200098,
AFSA21.JPG,AFNE22.JPG,AFNE21.JPG,AFSA23.JPG,AFSA22.JPG,AFNE23.JPG,,,,,,,,,,,,,0,3,3,0,,,,,,,,,,,AMSA09.jpg,AMNE02.jpg,AMNE12.jpg,AMSA07.jpg,AMSA07.jpg,MS,2,num_4,32,num_8,0.966754688299,,,2017_Mar_29_1448,60.0182684843,FEMA4ImagesEEG,001,200098,
AMSA25.JPG,AMNE24.JPG,AMSA24.JPG,AMNE26.JPG,AMSA21.JPG,AMNE25.JPG,,,,,,,,,,,,,0,4,4,3,,,,,,,,,,,AMNE09.jpg,AMSA12.jpg,AMSA10.jpg,AMNE05.jpg,AMSA10.jpg,MS,2,num_2,16,num_2,1.28348867293,,,2017_Mar_29_1448,60.0182684843,FEMA4ImagesEEG,001,200098,
AMNE23.JPG,AMNE24.JPG,AMNE22.JPG,AMSA24.JPG,AMSA22.JPG,AMSA23.JPG,,,,,,,,,,,,,0,5,5,9,,,,,,,,,,,AMNE20.jpg,AMSA17.jpg,AMSA04.jpg,AMNE11.jpg,AMSA04.jpg,MS,2,num_2,32,num_4,1.53342059592,,,2017_Mar_29_1448,60.0182684843,FEMA4ImagesEEG,001,200098,
AMNE22.JPG,AMSA24.JPG,AMSA22.JPG,AMNE25.JPG,AMNE24.JPG,AMSA25.JPG,,,,,,,,,,,,,0,6,6,7,,,,,,,,,,,AMNE15.jpg,AMSA17.jpg,AMNE02.jpg,AMSA05.jpg,AMNE15.jpg,MN,1,num_8,16,num_8,1.75008956657,,,2017_Mar_29_1448,60.0182684843,FEMA4ImagesEEG,001,200098,
AFNE22.JPG,AFSA24.JPG,AFSA22.JPG,AFNE25.JPG,AFNE24.JPG,AFSA25.JPG,,,,,,,,,,,,,0,7,7,6,,,,,,,,,,,AMNE16.jpg,AMNE17.jpg,AMSA17.jpg,AMSA04.jpg,AMSA04.jpg,MS,2,num_4,32,num_8,0.666786409449,,,2017_Mar_29_1448,60.0182684843,FEMA4ImagesEEG,001,200098,
AFSA21.JPG,AFNE23.JPG,AFNE21.JPG,AFSA25.JPG,AFNE25.JPG,AFSA23.JPG,,,,,,,,,,,,,0,8,8,4,,,,,,,,,,,AMNE20.jpg,AMSA15.jpg,AMSA20.jpg,AMNE07.jpg,AMSA15.jpg,MS,2,num_6,16,num_6,0.933413475519,,,2017_Mar_29_1448,60.0182684843,FEMA4ImagesEEG,001,200098,
AFSA25.JPG,AFNE24.JPG,AFSA24.JPG,AFNE21.JPG,AFSA21.JPG,AFNE25.JPG,,,,,,,,,,,,,0,9,9,2,,,,,,,,,,,AMNE09.jpg,AMSA09.jpg,AMNE18.jpg,AMSA16.jpg,AMNE09.jpg,MN,1,num_8,16,num_8,0.666811747942,,,2017_Mar_29_1448,60.0182684843,FEMA4ImagesEEG,001,200098,
AFSA25.JPG,AFNE24.JPG,AFSA24.JPG,AFNE21.JPG,AFSA21.JPG,AFNE25.JPG,,,,,,,,,,,,,,,,,0,0,0,2,,,,,,,AFSA03.jpg,AFSA11.jpg,AFNE20.jpg,AFNE17.jpg,AFSA03.jpg,FS,4,num_8,32,num_4,0.833755159518,,,2017_Mar_29_1448,60.0182684843,FEMA4ImagesEEG,001,200098,
AMSA25.JPG,AMNE24.JPG,AMSA24.JPG,AMNE26.JPG,AMSA21.JPG,AMNE25.JPG,,,,,,,,,,,,,,,,,0,1,1,3,,,,,,,AFSA18.jpg,AFSA09.jpg,AFNE16.jpg,AFNE03.jpg,AFNE16.jpg,FN,3,num_2,16,num_2,0.950148390257,,,2017_Mar_29_1448,60.0182684843,FEMA4ImagesEEG,001,200098,
AFSA21.JPG,AFNE23.JPG,AFNE21.JPG,AFSA25.JPG,AFNE25.JPG,AFSA23.JPG,,,,,,,,,,,,,,,,,0,2,2,4,,,,,,,AFNE17.jpg,AFNE09.jpg,AFSA17.jpg,AFSA12.jpg,AFNE09.jpg,FN,3,num_6,16,num_6,0.816775520332,,,2017_Mar_29_1448,60.0182684843,FEMA4ImagesEEG,001,200098,
AMSA21.JPG,AMNE22.JPG,AMNE21.JPG,AMSA23.JPG,AMSA22.JPG,AMNE23.JPG,,,,,,,,,,,,,,,,,0,3,3,1,,,,,,,AFNE14.jpg,AFSA16.jpg,AFNE02.jpg,AFSA06.jpg,AFNE02.jpg,FN,3,num_2,16,num_2,0.983426096616,,,2017_Mar_29_1448,60.0182684843,FEMA4ImagesEEG,001,200098,
AMNE23.JPG,AMNE24.JPG,AMNE22.JPG,AMSA24.JPG,AMSA22.JPG,AMSA23.JPG,,,,,,,,,,,,,,,,,0,4,4,9,,,,,,,AFNE20.jpg,AFNE15.jpg,AFSA12.jpg,AFSA03.jpg,AFSA12.jpg,FS,4,num_2,16,num_2,0.766804595361,,,2017_Mar_29_1448,60.0182684843,FEMA4ImagesEEG,001,200098,
AFNE23.JPG,AFNE24.JPG,AFNE22.JPG,AFSA24.JPG,AFSA22.JPG,AFSA23.JPG,,,,,,,,,,,,,,,,,0,5,5,8,,,,,,,AFSA01.jpg,AFSA05.jpg,AFNE09.jpg,AFNE14.jpg,AFSA05.jpg,FS,4,num_6,16,num_6,0.666764599155,,,2017_Mar_29_1448,60.0182684843,FEMA4ImagesEEG,001,200098,
AMNE22.JPG,AMSA24.JPG,AMSA22.JPG,AMNE25.JPG,AMNE24.JPG,AMSA25.JPG,,,,,,,,,,,,,,,,,0,6,6,7,,,,,,,AFNE03.jpg,AFNE14.jpg,AFSA20.jpg,AFSA08.jpg,AFSA08.jpg,FS,4,num_4,16,num_4,1.95003773505,,,2017_Mar_29_1448,60.0182684843,FEMA4ImagesEEG,001,200098,
AMSA21.JPG,AMNE23.JPG,AMNE21.JPG,AMSA25.JPG,AMNE25.JPG,AMSA23.JPG,,,,,,,,,,,,,,,,,0,7,7,5,,,,,,,AFSA09.jpg,AFNE09.jpg,AFNE12.jpg,AFSA04.jpg,AFNE12.jpg,FN,3,num_2,16,num_2,0.84997432481,,,2017_Mar_29_1448,60.0182684843,FEMA4ImagesEEG,001,200098,
AFSA21.JPG,AFNE22.JPG,AFNE21.JPG,AFSA23.JPG,AFSA22.JPG,AFNE23.JPG,,,,,,,,,,,,,,,,,0,8,8,0,,,,,,,AFSA04.jpg,AFSA13.jpg,AFNE11.jpg,AFNE07.jpg,AFNE07.jpg,FN,3,num_4,16,num_4,0.833485096577,,,2017_Mar_29_1448,60.0182684843,FEMA4ImagesEEG,001,200098,
AFNE22.JPG,AFSA24.JPG,AFSA22.JPG,AFNE25.JPG,AFNE24.JPG,AFSA25.JPG,,,,,,,,,,,,,,,,,0,9,9,6,,,,,,,AFSA03.jpg,AFSA04.jpg,AFNE05.jpg,AFNE04.jpg,AFSA03.jpg,FS,4,num_8,16,num_8,1.9001046574,,,2017_Mar_29_1448,60.0182684843,FEMA4ImagesEEG,001,200098,
AMNE23.JPG,AMNE24.JPG,AMNE22.JPG,AMSA24.JPG,AMSA22.JPG,AMSA23.JPG,,,,,,,,,,,,,,,,,,,,,0,0,0,9,,,AMNE04.jpg,AMSA04.jpg,AMSA19.jpg,AMNE20.jpg,AMSA04.jpg,MS,2,num_6,32,num_8,0.783472475479,,,2017_Mar_29_1448,60.0182684843,FEMA4ImagesEEG,001,200098,
AFSA21.JPG,AFNE22.JPG,AFNE21.JPG,AFSA23.JPG,AFSA22.JPG,AFNE23.JPG,,,,,,,,,,,,,,,,,,,,,0,1,1,0,,,AMNE17.jpg,AMSA06.jpg,AMNE08.jpg,AMSA19.jpg,AMSA06.jpg,MS,2,num_6,16,num_6,0.800111809862,,,2017_Mar_29_1448,60.0182684843,FEMA4ImagesEEG,001,200098,
AFSA21.JPG,AFNE23.JPG,AFNE21.JPG,AFSA25.JPG,AFNE25.JPG,AFSA23.JPG,,,,,,,,,,,,,,,,,,,,,0,2,2,4,,,AMSA09.jpg,AMNE16.jpg,AMNE02.jpg,AMSA16.jpg,AMSA09.jpg,MS,2,num_8,16,num_8,0.517125735991,,,2017_Mar_29_1448,60.0182684843,FEMA4ImagesEEG,001,200098,
AMSA21.JPG,AMNE23.JPG,AMNE21.JPG,AMSA25.JPG,AMNE25.JPG,AMSA23.JPG,,,,,,,,,,,,,,,,,,,,,0,3,3,5,,,AMNE02.jpg,AMNE19.jpg,AMSA13.jpg,AMSA18.jpg,AMSA13.jpg,MS,2,num_2,32,num_6,0.666891612113,,,2017_Mar_29_1448,60.0182684843,FEMA4ImagesEEG,001,200098,
AMSA25.JPG,AMNE24.JPG,AMSA24.JPG,AMNE26.JPG,AMSA21.JPG,AMNE25.JPG,,,,,,,,,,,,,,,,,,,,,0,4,4,3,,,AMSA13.jpg,AMNE09.jpg,AMSA02.jpg,AMNE13.jpg,AMNE13.jpg,MN,1,num_4,16,num_4,0.766799784265,,,2017_Mar_29_1448,60.0182684843,FEMA4ImagesEEG,001,200098,
AFSA25.JPG,AFNE24.JPG,AFSA24.JPG,AFNE21.JPG,AFSA21.JPG,AFNE25.JPG,,,,,,,,,,,,,,,,,,,,,0,5,5,2,,,AMSA19.jpg,AMNE16.jpg,AMSA18.jpg,AMNE19.jpg,AMNE19.jpg,MN,1,num_4,16,num_4,0.833468097495,,,2017_Mar_29_1448,60.0182684843,FEMA4ImagesEEG,001,200098,
AMSA21.JPG,AMNE22.JPG,AMNE21.JPG,AMSA23.JPG,AMSA22.JPG,AMNE23.JPG,,,,,,,,,,,,,,,,,,,,,0,6,6,1,,,AMNE20.jpg,AMNE04.jpg,AMSA20.jpg,AMSA10.jpg,AMNE20.jpg,MN,1,num_8,32,num_2,1.13345209265,,,2017_Mar_29_1448,60.0182684843,FEMA4ImagesEEG,001,200098,
AFNE22.JPG,AFSA24.JPG,AFSA22.JPG,AFNE25.JPG,AFNE24.JPG,AFSA25.JPG,,,,,,,,,,,,,,,,,,,,,0,7,7,6,,,AMSA09.jpg,AMNE07.jpg,AMNE03.jpg,AMSA04.jpg,AMSA09.jpg,MS,2,num_8,16,num_8,0.516789280111,,,2017_Mar_29_1448,60.0182684843,FEMA4ImagesEEG,001,200098,
AMNE22.JPG,AMSA24.JPG,AMSA22.JPG,AMNE25.JPG,AMNE24.JPG,AMSA25.JPG,,,,,,,,,,,,,,,,,,,,,0,8,8,7,,,AMSA14.jpg,AMNE01.jpg,AMNE03.jpg,AMSA15.jpg,AMNE01.jpg,MN,1,num_6,16,num_6,0.433525574044,,,2017_Mar_29_1448,60.0182684843,FEMA4ImagesEEG,001,200098,
AFNE23.JPG,AFNE24.JPG,AFNE22.JPG,AFSA24.JPG,AFSA22.JPG,AFSA23.JPG,,,,,,,,,,,,,,,,,,,,,0,9,9,8,,,AMSA16.jpg,AMNE04.jpg,AMNE16.jpg,AMSA15.jpg,AMNE16.jpg,MN,1,num_2,16,num_2,0.683505287278,,,2017_Mar_29_1448,60.0182684843,FEMA4ImagesEEG,001,200098,
,,,,,,,,,,,,,,,,,,,,,,,,,,,,,,,,,,,,,,,,,,,space,8.94917622814,2017_Mar_29_1448,60.0182684843,FEMA4ImagesEEG,001,200098,
AFNE01.JPG,AFNE01.JPG,AFNE01.JPG,AFNE01.JPG,AFNE01.JPG,AFNE01.JPG,0,0,0,4,,,,,,,,,,,,,,,,,,,,,,,AFSA11.jpg,AFNE01.jpg,AFSA04.jpg,AFNE08.jpg,AFNE01.jpg,FN,3,num_6,16,num_6,1.70012056606,,,2017_Mar_29_1448,60.0182684843,FEMA4ImagesEEG,001,200098,
AFNE01.JPG,AFNE01.JPG,AFNE01.JPG,AFNE01.JPG,AFNE01.JPG,AFNE01.JPG,0,1,1,6,,,,,,,,,,,,,,,,,,,,,,,AFNE08.jpg,AFSA01.jpg,AFSA11.jpg,AFNE12.jpg,AFSA01.jpg,FS,4,num_6,16,num_6,0.900176182389,,,2017_Mar_29_1448,60.0182684843,FEMA4ImagesEEG,001,200098,
AFNE01.JPG,AFNE01.JPG,AFNE01.JPG,AFNE01.JPG,AFNE01.JPG,AFNE01.JPG,0,2,2,1,,,,,,,,,,,,,,,,,,,,,,,AFNE16.jpg,AFSA08.jpg,AFNE18.jpg,AFSA19.jpg,AFNE18.jpg,FN,3,num_2,16,num_2,0.833457513014,,,2017_Mar_29_1448,60.0182684843,FEMA4ImagesEEG,001,200098,
AFNE01.JPG,AFNE01.JPG,AFNE01.JPG,AFNE01.JPG,AFNE01.JPG,AFNE01.JPG,0,3,3,5,,,,,,,,,,,,,,,,,,,,,,,AFNE06.jpg,AFSA09.jpg,AFNE20.jpg,AFSA03.jpg,AFSA03.jpg,FS,4,num_4,16,num_4,0.516685681185,,,2017_Mar_29_1448,60.0182684843,FEMA4ImagesEEG,001,200098,
AFNE01.JPG,AFNE01.JPG,AFNE01.JPG,AFNE01.JPG,AFNE01.JPG,AFNE01.JPG,0,4,4,8,,,,,,,,,,,,,,,,,,,,,,,AFSA11.jpg,AFNE16.jpg,AFSA05.jpg,AFNE20.jpg,AFNE20.jpg,FN,3,num_4,16,num_4,1.0834657721,,,2017_Mar_29_1448,60.0182684843,FEMA4ImagesEEG,001,200098,
AFNE01.JPG,AFNE01.JPG,AFNE01.JPG,AFNE01.JPG,AFNE01.JPG,AFNE01.JPG,0,5,5,7,,,,,,,,,,,,,,,,,,,,,,,AFSA04.jpg,AFNE05.jpg,AFSA14.jpg,AFNE20.jpg,AFSA04.jpg,FS,4,num_8,16,num_8,0.850025322405,,,2017_Mar_29_1448,60.0182684843,FEMA4ImagesEEG,001,200098,
AFNE01.JPG,AFNE01.JPG,AFNE01.JPG,AFNE01.JPG,AFNE01.JPG,AFNE01.JPG,0,6,6,3,,,,,,,,,,,,,,,,,,,,,,,AFNE13.jpg,AFSA04.jpg,AFNE18.jpg,AFSA09.jpg,AFSA09.jpg,FS,4,num_4,16,num_4,0.883328687982,,,2017_Mar_29_1448,60.0182684843,FEMA4ImagesEEG,001,200098,
AFNE01.JPG,AFNE01.JPG,AFNE01.JPG,AFNE01.JPG,AFNE01.JPG,AFNE01.JPG,0,7,7,0,,,,,,,,,,,,,,,,,,,,,,,AFNE12.jpg,AFSA10.jpg,AFSA03.jpg,AFNE20.jpg,AFNE20.jpg,FN,3,num_4,16,num_4,0.983466189122,,,2017_Mar_29_1448,60.0182684843,FEMA4ImagesEEG,001,200098,
AFNE01.JPG,AFNE01.JPG,AFNE01.JPG,AFNE01.JPG,AFNE01.JPG,AFNE01.JPG,0,8,8,2,,,,,,,,,,,,,,,,,,,,,,,AFSA03.jpg,AFSA15.jpg,AFNE08.jpg,AFNE03.jpg,AFNE03.jpg,FN,3,num_4,32,num_8,0.916763556772,,,2017_Mar_29_1448,60.0182684843,FEMA4ImagesEEG,001,200098,
AFNE01.JPG,AFNE01.JPG,AFNE01.JPG,AFNE01.JPG,AFNE01.JPG,AFNE01.JPG,0,9,9,9,,,,,,,,,,,,,,,,,,,,,,,AFSA16.jpg,AFSA06.jpg,AFNE20.jpg,AFNE15.jpg,AFSA06.jpg,FS,4,num_6,16,num_6,0.916790178162,,,2017_Mar_29_1448,60.0182684843,FEMA4ImagesEEG,001,200098,
AFNE01.JPG,AFNE01.JPG,AFNE01.JPG,AFNE01.JPG,AFNE01.JPG,AFNE01.JPG,1,0,10,6,,,,,,,,,,,,,,,,,,,,,,,AFSA11.jpg,AFNE13.jpg,AFNE19.jpg,AFSA08.jpg,AFSA11.jpg,FS,4,num_8,16,num_8,0.733485192875,,,2017_Mar_29_1448,60.0182684843,FEMA4ImagesEEG,001,200098,
AFNE01.JPG,AFNE01.JPG,AFNE01.JPG,AFNE01.JPG,AFNE01.JPG,AFNE01.JPG,1,1,11,4,,,,,,,,,,,,,,,,,,,,,,,AFSA20.jpg,AFNE11.jpg,AFNE16.jpg,AFSA06.jpg,AFNE11.jpg,FN,3,num_6,16,num_6,0.783548811567,,,2017_Mar_29_1448,60.0182684843,FEMA4ImagesEEG,001,200098,
AFNE01.JPG,AFNE01.JPG,AFNE01.JPG,AFNE01.JPG,AFNE01.JPG,AFNE01.JPG,1,2,12,9,,,,,,,,,,,,,,,,,,,,,,,AFNE18.jpg,AFSA04.jpg,AFNE09.jpg,AFSA09.jpg,AFNE18.jpg,FN,3,num_8,16,num_8,0.699848899501,,,2017_Mar_29_1448,60.0182684843,FEMA4ImagesEEG,001,200098,
AFNE01.JPG,AFNE01.JPG,AFNE01.JPG,AFNE01.JPG,AFNE01.JPG,AFNE01.JPG,1,3,13,0,,,,,,,,,,,,,,,,,,,,,,,AFNE20.jpg,AFSA19.jpg,AFSA07.jpg,AFNE16.jpg,AFSA19.jpg,FS,4,num_6,16,num_6,0.500059817918,,,2017_Mar_29_1448,60.0182684843,FEMA4ImagesEEG,001,200098,
AFNE01.JPG,AFNE01.JPG,AFNE01.JPG,AFNE01.JPG,AFNE01.JPG,AFNE01.JPG,1,4,14,3,,,,,,,,,,,,,,,,,,,,,,,AFNE13.jpg,AFSA13.jpg,AFNE11.jpg,AFSA07.jpg,AFNE13.jpg,FN,3,num_8,16,num_8,0.750135753071,,,2017_Mar_29_1448,60.0182684843,FEMA4ImagesEEG,001,200098,
AFNE01.JPG,AFNE01.JPG,AFNE01.JPG,AFNE01.JPG,AFNE01.JPG,AFNE01.JPG,1,5,15,8,,,,,,,,,,,,,,,,,,,,,,,AFNE07.jpg,AFSA20.jpg,AFNE15.jpg,AFSA09.jpg,AFSA09.jpg,FS,4,num_4,32,num_6,0.750126130879,,,2017_Mar_29_1448,60.0182684843,FEMA4ImagesEEG,001,200098,
AFNE01.JPG,AFNE01.JPG,AFNE01.JPG,AFNE01.JPG,AFNE01.JPG,AFNE01.JPG,1,6,16,5,,,,,,,,,,,,,,,,,,,,,,,AFNE04.jpg,AFSA17.jpg,AFSA07.jpg,AFNE17.jpg,AFNE17.jpg,FN,3,num_4,32,num_8,0.850147844991,,,2017_Mar_29_1448,60.0182684843,FEMA4ImagesEEG,001,200098,
AFNE01.JPG,AFNE01.JPG,AFNE01.JPG,AFNE01.JPG,AFNE01.JPG,AFNE01.JPG,1,7,17,7,,,,,,,,,,,,,,,,,,,,,,,AFSA13.jpg,AFNE07.jpg,AFNE05.jpg,AFSA01.jpg,AFSA01.jpg,FS,4,num_4,16,num_4,0.850165806361,,,2017_Mar_29_1448,60.0182684843,FEMA4ImagesEEG,001,200098,
AFNE01.JPG,AFNE01.JPG,AFNE01.JPG,AFNE01.JPG,AFNE01.JPG,AFNE01.JPG,1,8,18,1,,,,,,,,,,,,,,,,,,,,,,,AFNE16.jpg,AFSA02.jpg,AFNE13.jpg,AFSA07.jpg,AFNE13.jpg,FN,3,num_2,16,num_2,1.73341206426,,,2017_Mar_29_1448,60.0182684843,FEMA4ImagesEEG,001,200098,
AFNE01.JPG,AFNE01.JPG,AFNE01.JPG,AFNE01.JPG,AFNE01.JPG,AFNE01.JPG,1,9,19,2,,,,,,,,,,,,,,,,,,,,,,,AFNE11.jpg,AFSA14.jpg,AFSA20.jpg,AFNE12.jpg,AFSA14.jpg,FS,4,num_6,16,num_6,0.800119507592,,,2017_Mar_29_1448,60.0182684843,FEMA4ImagesEEG,001,200098,
AFNE01.JPG,AFNE01.JPG,AFNE01.JPG,AFNE01.JPG,AFNE01.JPG,AFNE01.JPG,2,0,20,5,,,,,,,,,,,,,,,,,,,,,,,AFNE19.jpg,AFSA16.jpg,AFNE09.jpg,AFSA02.jpg,AFSA02.jpg,FS,4,num_4,32,num_8,0.866788782994,,,2017_Mar_29_1448,60.0182684843,FEMA4ImagesEEG,001,200098,
AFNE01.JPG,AFNE01.JPG,AFNE01.JPG,AFNE01.JPG,AFNE01.JPG,AFNE01.JPG,2,1,21,9,,,,,,,,,,,,,,,,,,,,,,,AFNE09.jpg,AFSA18.jpg,AFNE06.jpg,AFSA08.jpg,AFNE09.jpg,FN,3,num_8,16,num_8,0.633507099352,,,2017_Mar_29_1448,60.0182684843,FEMA4ImagesEEG,001,200098,
AFNE01.JPG,AFNE01.JPG,AFNE01.JPG,AFNE01.JPG,AFNE01.JPG,AFNE01.JPG,2,2,22,7,,,,,,,,,,,,,,,,,,,,,,,AFSA06.jpg,AFSA02.jpg,AFNE04.jpg,AFNE03.jpg,AFNE03.jpg,FN,3,num_4,16,num_4,0.933491735952,,,2017_Mar_29_1448,60.0182684843,FEMA4ImagesEEG,001,200098,
AFNE01.JPG,AFNE01.JPG,AFNE01.JPG,AFNE01.JPG,AFNE01.JPG,AFNE01.JPG,2,3,23,6,,,,,,,,,,,,,,,,,,,,,,,AFSA16.jpg,AFNE12.jpg,AFNE07.jpg,AFSA10.jpg,AFSA10.jpg,FS,4,num_4,16,num_4,0.90014346689,,,2017_Mar_29_1448,60.0182684843,FEMA4ImagesEEG,001,200098,
AFNE01.JPG,AFNE01.JPG,AFNE01.JPG,AFNE01.JPG,AFNE01.JPG,AFNE01.JPG,2,4,24,1,,,,,,,,,,,,,,,,,,,,,,,AFSA04.jpg,AFNE14.jpg,AFSA20.jpg,AFNE15.jpg,AFSA04.jpg,FS,4,num_8,16,num_8,0.833536094287,,,2017_Mar_29_1448,60.0182684843,FEMA4ImagesEEG,001,200098,
AFNE01.JPG,AFNE01.JPG,AFNE01.JPG,AFNE01.JPG,AFNE01.JPG,AFNE01.JPG,2,5,25,8,,,,,,,,,,,,,,,,,,,,,,,AFNE16.jpg,AFNE20.jpg,AFSA04.jpg,AFSA05.jpg,AFSA05.jpg,FS,4,num_4,16,num_4,0.566835899604,,,2017_Mar_29_1448,60.0182684843,FEMA4ImagesEEG,001,200098,
AFNE01.JPG,AFNE01.JPG,AFNE01.JPG,AFNE01.JPG,AFNE01.JPG,AFNE01.JPG,2,6,26,2,,,,,,,,,,,,,,,,,,,,,,,AFNE01.jpg,AFSA10.jpg,AFSA09.jpg,AFNE06.jpg,AFNE01.jpg,FN,3,num_8,16,num_8,0.850118978298,,,2017_Mar_29_1448,60.0182684843,FEMA4ImagesEEG,001,200098,
AFNE01.JPG,AFNE01.JPG,AFNE01.JPG,AFNE01.JPG,AFNE01.JPG,AFNE01.JPG,2,7,27,0,,,,,,,,,,,,,,,,,,,,,,,AFSA20.jpg,AFSA12.jpg,AFNE07.jpg,AFNE20.jpg,AFSA12.jpg,FS,4,num_6,16,num_6,0.716780107003,,,2017_Mar_29_1448,60.0182684843,FEMA4ImagesEEG,001,200098,
AFNE01.JPG,AFNE01.JPG,AFNE01.JPG,AFNE01.JPG,AFNE01.JPG,AFNE01.JPG,2,8,28,3,,,,,,,,,,,,,,,,,,,,,,,AFSA05.jpg,AFNE11.jpg,AFSA17.jpg,AFNE06.jpg,AFSA05.jpg,FS,4,num_8,16,num_8,0.583504421287,,,2017_Mar_29_1448,60.0182684843,FEMA4ImagesEEG,001,200098,
AFNE01.JPG,AFNE01.JPG,AFNE01.JPG,AFNE01.JPG,AFNE01.JPG,AFNE01.JPG,2,9,29,4,,,,,,,,,,,,,,,,,,,,,,,AFNE16.jpg,AFSA01.jpg,AFSA05.jpg,AFNE18.jpg,AFSA05.jpg,FS,4,num_2,16,num_2,1.60004689218,,,2017_Mar_29_1448,60.0182684843,FEMA4ImagesEEG,001,200098,
AFNE01.JPG,AFNE01.JPG,AFNE01.JPG,AFNE01.JPG,AFNE01.JPG,AFNE01.JPG,3,0,30,5,,,,,,,,,,,,,,,,,,,,,,,AFSA15.jpg,AFSA19.jpg,AFNE03.jpg,AFNE15.jpg,AFNE03.jpg,FN,3,num_2,32,num_6,1.28344890126,,,2017_Mar_29_1448,60.0182684843,FEMA4ImagesEEG,001,200098,
AFNE01.JPG,AFNE01.JPG,AFNE01.JPG,AFNE01.JPG,AFNE01.JPG,AFNE01.JPG,3,1,31,1,,,,,,,,,,,,,,,,,,,,,,,AFSA12.jpg,AFSA20.jpg,AFNE13.jpg,AFNE10.jpg,AFSA20.jpg,FS,4,num_6,16,num_6,0.533561721328,,,2017_Mar_29_1448,60.0182684843,FEMA4ImagesEEG,001,200098,
AFNE01.JPG,AFNE01.JPG,AFNE01.JPG,AFNE01.JPG,AFNE01.JPG,AFNE01.JPG,3,2,32,8,,,,,,,,,,,,,,,,,,,,,,,AFSA11.jpg,AFNE03.jpg,AFNE16.jpg,AFSA02.jpg,AFNE16.jpg,FN,3,num_2,16,num_2,2.20002707047,,,2017_Mar_29_1448,60.0182684843,FEMA4ImagesEEG,001,200098,
AFNE01.JPG,AFNE01.JPG,AFNE01.JPG,AFNE01.JPG,AFNE01.JPG,AFNE01.JPG,3,3,33,7,,,,,,,,,,,,,,,,,,,,,,,AFSA18.jpg,AFNE15.jpg,AFNE10.jpg,AFSA09.jpg,AFNE15.jpg,FN,3,num_6,16,num_6,0.683472892502,,,2017_Mar_29_1448,60.0182684843,FEMA4ImagesEEG,001,200098,
AFNE01.JPG,AFNE01.JPG,AFNE01.JPG,AFNE01.JPG,AFNE01.JPG,AFNE01.JPG,3,4,34,0,,,,,,,,,,,,,,,,,,,,,,,AFNE11.jpg,AFSA12.jpg,AFSA15.jpg,AFNE07.jpg,AFSA12.jpg,FS,4,num_6,16,num_6,0.400238245493,,,2017_Mar_29_1448,60.0182684843,FEMA4ImagesEEG,001,200098,
AFNE01.JPG,AFNE01.JPG,AFNE01.JPG,AFNE01.JPG,AFNE01.JPG,AFNE01.JPG,3,5,35,3,,,,,,,,,,,,,,,,,,,,,,,AFNE18.jpg,AFSA01.jpg,AFSA07.jpg,AFNE17.jpg,AFSA01.jpg,FS,4,num_6,32,num_8,0.883457304561,,,2017_Mar_29_1448,60.0182684843,FEMA4ImagesEEG,001,200098,
AFNE01.JPG,AFNE01.JPG,AFNE01.JPG,AFNE01.JPG,AFNE01.JPG,AFNE01.JPG,3,6,36,2,,,,,,,,,,,,,,,,,,,,,,,AFNE04.jpg,AFNE02.jpg,AFSA10.jpg,AFSA08.jpg,AFNE04.jpg,FN,3,num_8,16,num_8,0.5667823361,,,2017_Mar_29_1448,60.0182684843,FEMA4ImagesEEG,001,200098,
AFNE01.JPG,AFNE01.JPG,AFNE01.JPG,AFNE01.JPG,AFNE01.JPG,AFNE01.JPG,3,7,37,6,,,,,,,,,,,,,,,,,,,,,,,AFSA19.jpg,AFSA09.jpg,AFNE17.jpg,AFNE03.jpg,AFSA09.jpg,FS,4,num_6,16,num_6,0.766887025558,,,2017_Mar_29_1448,60.0182684843,FEMA4ImagesEEG,001,200098,
AFNE01.JPG,AFNE01.JPG,AFNE01.JPG,AFNE01.JPG,AFNE01.JPG,AFNE01.JPG,3,8,38,4,,,,,,,,,,,,,,,,,,,,,,,AFNE15.jpg,AFNE01.jpg,AFSA12.jpg,AFSA06.jpg,AFNE15.jpg,FN,3,num_8,16,num_8,0.683497910271,,,2017_Mar_29_1448,60.0182684843,FEMA4ImagesEEG,001,200098,
AFNE01.JPG,AFNE01.JPG,AFNE01.JPG,AFNE01.JPG,AFNE01.JPG,AFNE01.JPG,3,9,39,9,,,,,,,,,,,,,,,,,,,,,,,AFSA17.jpg,AFNE12.jpg,AFNE15.jpg,AFSA03.jpg,AFSA03.jpg,FS,4,num_4,16,num_4,0.816754030762,,,2017_Mar_29_1448,60.0182684843,FEMA4ImagesEEG,001,200098,
AFNE01.JPG,AFNE01.JPG,AFNE01.JPG,AFNE01.JPG,AFNE01.JPG,AFNE01.JPG,4,0,40,3,,,,,,,,,,,,,,,,,,,,,,,AFSA01.jpg,AFNE19.jpg,AFNE04.jpg,AFSA19.jpg,AFNE19.jpg,FN,3,num_6,16,num_6,0.400186285609,,,2017_Mar_29_1448,60.0182684843,FEMA4ImagesEEG,001,200098,
AFNE01.JPG,AFNE01.JPG,AFNE01.JPG,AFNE01.JPG,AFNE01.JPG,AFNE01.JPG,4,1,41,1,,,,,,,,,,,,,,,,,,,,,,,AFNE10.jpg,AFSA05.jpg,AFNE07.jpg,AFSA06.jpg,AFSA05.jpg,FS,4,num_6,16,num_6,0.849975286983,,,2017_Mar_29_1448,60.0182684843,FEMA4ImagesEEG,001,200098,
AFNE01.JPG,AFNE01.JPG,AFNE01.JPG,AFNE01.JPG,AFNE01.JPG,AFNE01.JPG,4,2,42,7,,,,,,,,,,,,,,,,,,,,,,,AFNE15.jpg,AFNE07.jpg,AFSA20.jpg,AFSA14.jpg,AFSA14.jpg,FS,4,num_4,16,num_4,1.1334322067,,,2017_Mar_29_1448,60.0182684843,FEMA4ImagesEEG,001,200098,
AFNE01.JPG,AFNE01.JPG,AFNE01.JPG,AFNE01.JPG,AFNE01.JPG,AFNE01.JPG,4,3,43,6,,,,,,,,,,,,,,,,,,,,,,,AFNE03.jpg,AFNE05.jpg,AFSA03.jpg,AFSA19.jpg,AFNE05.jpg,FN,3,num_6,32,num_4,1.11672134744,,,2017_Mar_29_1448,60.0182684843,FEMA4ImagesEEG,001,200098,
AFNE01.JPG,AFNE01.JPG,AFNE01.JPG,AFNE01.JPG,AFNE01.JPG,AFNE01.JPG,4,4,44,5,,,,,,,,,,,,,,,,,,,,,,,AFNE04.jpg,AFNE15.jpg,AFSA04.jpg,AFSA03.jpg,AFNE15.jpg,FN,3,num_6,16,num_6,0.683427989017,,,2017_Mar_29_1448,60.0182684843,FEMA4ImagesEEG,001,200098,
AFNE01.JPG,AFNE01.JPG,AFNE01.JPG,AFNE01.JPG,AFNE01.JPG,AFNE01.JPG,4,5,45,9,,,,,,,,,,,,,,,,,,,,,,,AFNE17.jpg,AFSA19.jpg,AFSA15.jpg,AFNE13.jpg,AFSA19.jpg,FS,4,num_6,16,num_6,0.78345387266,,,2017_Mar_29_1448,60.0182684843,FEMA4ImagesEEG,001,200098,
AFNE01.JPG,AFNE01.JPG,AFNE01.JPG,AFNE01.JPG,AFNE01.JPG,AFNE01.JPG,4,6,46,8,,,,,,,,,,,,,,,,,,,,,,,AFNE17.jpg,AFSA13.jpg,AFSA09.jpg,AFNE14.jpg,AFNE14.jpg,FN,3,num_4,16,num_4,0.63345834706,,,2017_Mar_29_1448,60.0182684843,FEMA4ImagesEEG,001,200098,
AFNE01.JPG,AFNE01.JPG,AFNE01.JPG,AFNE01.JPG,AFNE01.JPG,AFNE01.JPG,4,7,47,0,,,,,,,,,,,,,,,,,,,,,,,AFSA01.jpg,AFNE14.jpg,AFNE01.jpg,AFSA14.jpg,AFSA01.jpg,FS,4,num_8,32,num_2,1.05013995478,,,2017_Mar_29_1448,60.0182684843,FEMA4ImagesEEG,001,200098,
AFNE01.JPG,AFNE01.JPG,AFNE01.JPG,AFNE01.JPG,AFNE01.JPG,AFNE01.JPG,4,8,48,2,,,,,,,,,,,,,,,,,,,,,,,AFNE15.jpg,AFSA14.jpg,AFNE05.jpg,AFSA07.jpg,AFNE15.jpg,FN,3,num_8,16,num_8,0.60015017027,,,2017_Mar_29_1448,60.0182684843,FEMA4ImagesEEG,001,200098,
AFNE01.JPG,AFNE01.JPG,AFNE01.JPG,AFNE01.JPG,AFNE01.JPG,AFNE01.JPG,4,9,49,4,,,,,,,,,,,,,,,,,,,,,,,AFSA19.jpg,AFNE20.jpg,AFSA17.jpg,AFNE13.jpg,AFNE20.jpg,FN,3,num_6,16,num_6,1.16677758913,,,2017_Mar_29_1448,60.0182684843,FEMA4ImagesEEG,001,200098,
AFNE01.JPG,AFNE01.JPG,AFNE01.JPG,AFNE01.JPG,AFNE01.JPG,AFNE01.JPG,5,0,50,7,,,,,,,,,,,,,,,,,,,,,,,AFSA16.jpg,AFNE12.jpg,AFNE08.jpg,AFSA20.jpg,AFSA16.jpg,FS,4,num_8,32,num_4,0.866770180059,,,2017_Mar_29_1448,60.0182684843,FEMA4ImagesEEG,001,200098,
AFNE01.JPG,AFNE01.JPG,AFNE01.JPG,AFNE01.JPG,AFNE01.JPG,AFNE01.JPG,5,1,51,2,,,,,,,,,,,,,,,,,,,,,,,AFNE19.jpg,AFSA07.jpg,AFNE01.jpg,AFSA03.jpg,AFNE19.jpg,FN,3,num_8,16,num_8,0.550183094223,,,2017_Mar_29_1448,60.0182684843,FEMA4ImagesEEG,001,200098,
AFNE01.JPG,AFNE01.JPG,AFNE01.JPG,AFNE01.JPG,AFNE01.JPG,AFNE01.JPG,5,2,52,9,,,,,,,,,,,,,,,,,,,,,,,AFSA18.jpg,AFNE03.jpg,AFNE02.jpg,AFSA20.jpg,AFNE02.jpg,FN,3,num_2,16,num_2,1.70009811432,,,2017_Mar_29_1448,60.0182684843,FEMA4ImagesEEG,001,200098,
AFNE01.JPG,AFNE01.JPG,AFNE01.JPG,AFNE01.JPG,AFNE01.JPG,AFNE01.JPG,5,3,53,4,,,,,,,,,,,,,,,,,,,,,,,AFNE02.jpg,AFSA07.jpg,AFSA09.jpg,AFNE03.jpg,AFSA09.jpg,FS,4,num_2,16,num_2,0.700144942268,,,2017_Mar_29_1448,60.0182684843,FEMA4ImagesEEG,001,200098,
AFNE01.JPG,AFNE01.JPG,AFNE01.JPG,AFNE01.JPG,AFNE01.JPG,AFNE01.JPG,5,4,54,8,,,,,,,,,,,,,,,,,,,,,,,AFNE09.jpg,AFNE15.jpg,AFSA01.jpg,AFSA05.jpg,AFNE15.jpg,FN,3,num_6,16,num_6,0.699837994413,,,2017_Mar_29_1448,60.0182684843,FEMA4ImagesEEG,001,200098,
AFNE01.JPG,AFNE01.JPG,AFNE01.JPG,AFNE01.JPG,AFNE01.JPG,AFNE01.JPG,5,5,55,1,,,,,,,,,,,,,,,,,,,,,,,AFSA04.jpg,AFNE05.jpg,AFSA13.jpg,AFNE15.jpg,AFNE15.jpg,FN,3,num_4,16,num_4,0.650161508471,,,2017_Mar_29_1448,60.0182684843,FEMA4ImagesEEG,001,200098,
AFNE01.JPG,AFNE01.JPG,AFNE01.JPG,AFNE01.JPG,AFNE01.JPG,AFNE01.JPG,5,6,56,6,,,,,,,,,,,,,,,,,,,,,,,AFNE11.jpg,AFNE17.jpg,AFSA19.jpg,AFSA07.jpg,AFNE17.jpg,FN,3,num_6,32,num_4,1.21674402384,,,2017_Mar_29_1448,60.0182684843,FEMA4ImagesEEG,001,200098,
AFNE01.JPG,AFNE01.JPG,AFNE01.JPG,AFNE01.JPG,AFNE01.JPG,AFNE01.JPG,5,7,57,3,,,,,,,,,,,,,,,,,,,,,,,AFSA18.jpg,AFNE06.jpg,AFNE03.jpg,AFSA01.jpg,AFSA18.jpg,FS,4,num_8,16,num_8,0.86676440679,,,2017_Mar_29_1448,60.0182684843,FEMA4ImagesEEG,001,200098,
AFNE01.JPG,AFNE01.JPG,AFNE01.JPG,AFNE01.JPG,AFNE01.JPG,AFNE01.JPG,5,8,58,0,,,,,,,,,,,,,,,,,,,,,,,AFSA12.jpg,AFSA05.jpg,AFNE10.jpg,AFNE15.jpg,AFNE10.jpg,FN,3,num_2,32,num_6,0.800147091155,,,2017_Mar_29_1448,60.0182684843,FEMA4ImagesEEG,001,200098,
AFNE01.JPG,AFNE01.JPG,AFNE01.JPG,AFNE01.JPG,AFNE01.JPG,AFNE01.JPG,5,9,59,5,,,,,,,,,,,,,,,,,,,,,,,AFSA01.jpg,AFNE03.jpg,AFSA08.jpg,AFNE06.jpg,AFNE03.jpg,FN,3,num_6,16,num_6,0.616765769897,,,2017_Mar_29_1448,60.0182684843,FEMA4ImagesEEG,001,200098,
,,,,,,,,,,,,,,,,,,,,,,,,,,,,,,,,,,,,,,,,,,,space,3.36666160973,2017_Mar_29_1448,60.0182684843,FEMA4ImagesEEG,001,200098,
AFNE01.JPG,AFNE01.JPG,AFNE01.JPG,AFNE01.JPG,AFNE01.JPG,AFNE01.JPG,,,,,0,0,0,3,,,,,,,,,,,,,,,,,,,AMSA18.jpg,AMSA17.jpg,AMNE01.jpg,AMNE04.jpg,AMNE01.jpg,MN,1,num_2,32,num_6,0.650141943363,,,2017_Mar_29_1448,60.0182684843,FEMA4ImagesEEG,001,200098,
AFNE01.JPG,AFNE01.JPG,AFNE01.JPG,AFNE01.JPG,AFNE01.JPG,AFNE01.JPG,,,,,0,1,1,2,,,,,,,,,,,,,,,,,,,AMNE18.jpg,AMSA06.jpg,AMSA11.jpg,AMNE04.jpg,AMNE04.jpg,MN,1,num_4,16,num_4,0.7334463835,,,2017_Mar_29_1448,60.0182684843,FEMA4ImagesEEG,001,200098,
AFNE01.JPG,AFNE01.JPG,AFNE01.JPG,AFNE01.JPG,AFNE01.JPG,AFNE01.JPG,,,,,0,2,2,9,,,,,,,,,,,,,,,,,,,AMNE16.jpg,AMNE09.jpg,AMSA14.jpg,AMSA01.jpg,AMNE09.jpg,MN,1,num_6,16,num_6,0.383534442517,,,2017_Mar_29_1448,60.0182684843,FEMA4ImagesEEG,001,200098,
AFNE01.JPG,AFNE01.JPG,AFNE01.JPG,AFNE01.JPG,AFNE01.JPG,AFNE01.JPG,,,,,0,3,3,7,,,,,,,,,,,,,,,,,,,AMSA18.jpg,AMSA05.jpg,AMNE11.jpg,AMNE13.jpg,AMSA18.jpg,MS,2,num_8,16,num_8,0.483503876021,,,2017_Mar_29_1448,60.0182684843,FEMA4ImagesEEG,001,200098,
AFNE01.JPG,AFNE01.JPG,AFNE01.JPG,AFNE01.JPG,AFNE01.JPG,AFNE01.JPG,,,,,0,4,4,8,,,,,,,,,,,,,,,,,,,AMNE01.jpg,AMNE13.jpg,AMSA02.jpg,AMSA12.jpg,AMNE01.jpg,MN,1,num_8,32,num_4,1.03342428443,,,2017_Mar_29_1448,60.0182684843,FEMA4ImagesEEG,001,200098,
AFNE01.JPG,AFNE01.JPG,AFNE01.JPG,AFNE01.JPG,AFNE01.JPG,AFNE01.JPG,,,,,0,5,5,4,,,,,,,,,,,,,,,,,,,AMNE13.jpg,AMSA18.jpg,AMNE04.jpg,AMSA10.jpg,AMSA18.jpg,MS,2,num_6,16,num_6,0.416817922145,,,2017_Mar_29_1448,60.0182684843,FEMA4ImagesEEG,001,200098,
AFNE01.JPG,AFNE01.JPG,AFNE01.JPG,AFNE01.JPG,AFNE01.JPG,AFNE01.JPG,,,,,0,6,6,0,,,,,,,,,,,,,,,,,,,AMSA15.jpg,AMNE08.jpg,AMNE20.jpg,AMSA14.jpg,AMSA14.jpg,MS,2,num_4,16,num_4,0.866800650372,,,2017_Mar_29_1448,60.0182684843,FEMA4ImagesEEG,001,200098,
AFNE01.JPG,AFNE01.JPG,AFNE01.JPG,AFNE01.JPG,AFNE01.JPG,AFNE01.JPG,,,,,0,7,7,6,,,,,,,,,,,,,,,,,,,AMNE07.jpg,AMNE05.jpg,AMSA18.jpg,AMSA09.jpg,AMNE05.jpg,MN,1,num_6,32,num_8,1.13340077421,,,2017_Mar_29_1448,60.0182684843,FEMA4ImagesEEG,001,200098,
AFNE01.JPG,AFNE01.JPG,AFNE01.JPG,AFNE01.JPG,AFNE01.JPG,AFNE01.JPG,,,,,0,8,8,1,,,,,,,,,,,,,,,,,,,AMSA20.jpg,AMNE02.jpg,AMNE11.jpg,AMSA01.jpg,AMSA01.jpg,MS,2,num_4,16,num_4,0.833474833053,,,2017_Mar_29_1448,60.0182684843,FEMA4ImagesEEG,001,200098,
AFNE01.JPG,AFNE01.JPG,AFNE01.JPG,AFNE01.JPG,AFNE01.JPG,AFNE01.JPG,,,,,0,9,9,5,,,,,,,,,,,,,,,,,,,AMNE06.jpg,AMSA20.jpg,AMNE17.jpg,AMSA15.jpg,AMNE17.jpg,MN,1,num_2,16,num_2,0.933464152389,,,2017_Mar_29_1448,60.0182684843,FEMA4ImagesEEG,001,200098,
AFNE01.JPG,AFNE01.JPG,AFNE01.JPG,AFNE01.JPG,AFNE01.JPG,AFNE01.JPG,,,,,1,0,10,7,,,,,,,,,,,,,,,,,,,AMNE14.jpg,AMSA09.jpg,AMSA08.jpg,AMNE01.jpg,AMNE14.jpg,MN,1,num_8,16,num_8,0.899992398452,,,2017_Mar_29_1448,60.0182684843,FEMA4ImagesEEG,001,200098,
AFNE01.JPG,AFNE01.JPG,AFNE01.JPG,AFNE01.JPG,AFNE01.JPG,AFNE01.JPG,,,,,1,1,11,0,,,,,,,,,,,,,,,,,,,AMNE02.jpg,AMSA06.jpg,AMNE13.jpg,AMSA19.jpg,AMNE13.jpg,MN,1,num_2,32,num_8,0.983449510648,,,2017_Mar_29_1448,60.0182684843,FEMA4ImagesEEG,001,200098,
AFNE01.JPG,AFNE01.JPG,AFNE01.JPG,AFNE01.JPG,AFNE01.JPG,AFNE01.JPG,,,,,1,2,12,3,,,,,,,,,,,,,,,,,,,AMSA17.jpg,AMNE07.jpg,AMNE15.jpg,AMSA03.jpg,AMNE07.jpg,MN,1,num_6,32,num_4,0.783535019844,,,2017_Mar_29_1448,60.0182684843,FEMA4ImagesEEG,001,200098,
AFNE01.JPG,AFNE01.JPG,AFNE01.JPG,AFNE01.JPG,AFNE01.JPG,AFNE01.JPG,,,,,1,3,13,6,,,,,,,,,,,,,,,,,,,AMSA15.jpg,AMSA06.jpg,AMNE09.jpg,AMNE05.jpg,AMSA15.jpg,MS,2,num_8,16,num_8,0.516737961676,,,2017_Mar_29_1448,60.0182684843,FEMA4ImagesEEG,001,200098,
AFNE01.JPG,AFNE01.JPG,AFNE01.JPG,AFNE01.JPG,AFNE01.JPG,AFNE01.JPG,,,,,1,4,14,8,,,,,,,,,,,,,,,,,,,AMNE03.jpg,AMSA19.jpg,AMSA09.jpg,AMNE07.jpg,AMSA09.jpg,MS,2,num_2,16,num_2,0.533505591913,,,2017_Mar_29_1448,60.0182684843,FEMA4ImagesEEG,001,200098,
AFNE01.JPG,AFNE01.JPG,AFNE01.JPG,AFNE01.JPG,AFNE01.JPG,AFNE01.JPG,,,,,1,5,15,4,,,,,,,,,,,,,,,,,,,AMSA05.jpg,AMNE12.jpg,AMSA16.jpg,AMNE15.jpg,AMSA05.jpg,MS,2,num_8,32,num_2,1.61674812925,,,2017_Mar_29_1448,60.0182684843,FEMA4ImagesEEG,001,200098,
AFNE01.JPG,AFNE01.JPG,AFNE01.JPG,AFNE01.JPG,AFNE01.JPG,AFNE01.JPG,,,,,1,6,16,9,,,,,,,,,,,,,,,,,,,AMSA02.jpg,AMNE17.jpg,AMSA04.jpg,AMNE05.jpg,AMNE05.jpg,MN,1,num_4,16,num_4,1.71645487682,,,2017_Mar_29_1448,60.0182684843,FEMA4ImagesEEG,001,200098,
AFNE01.JPG,AFNE01.JPG,AFNE01.JPG,AFNE01.JPG,AFNE01.JPG,AFNE01.JPG,,,,,1,7,17,1,,,,,,,,,,,,,,,,,,,AMSA14.jpg,AMSA17.jpg,AMNE12.jpg,AMNE20.jpg,AMSA17.jpg,MS,2,num_6,16,num_6,0.916777669336,,,2017_Mar_29_1448,60.0182684843,FEMA4ImagesEEG,001,200098,
AFNE01.JPG,AFNE01.JPG,AFNE01.JPG,AFNE01.JPG,AFNE01.JPG,AFNE01.JPG,,,,,1,8,18,2,,,,,,,,,,,,,,,,,,,AMNE13.jpg,AMSA13.jpg,AMNE08.jpg,AMSA10.jpg,AMNE13.jpg,MN,1,num_8,16,num_8,0.750203429139,,,2017_Mar_29_1448,60.0182684843,FEMA4ImagesEEG,001,200098,
AFNE01.JPG,AFNE01.JPG,AFNE01.JPG,AFNE01.JPG,AFNE01.JPG,AFNE01.JPG,,,,,1,9,19,5,,,,,,,,,,,,,,,,,,,AMNE12.jpg,AMSA09.jpg,AMNE15.jpg,AMSA14.jpg,AMSA09.jpg,MS,2,num_6,16,num_6,0.516909878235,,,2017_Mar_29_1448,60.0182684843,FEMA4ImagesEEG,001,200098,
AFNE01.JPG,AFNE01.JPG,AFNE01.JPG,AFNE01.JPG,AFNE01.JPG,AFNE01.JPG,,,,,2,0,20,0,,,,,,,,,,,,,,,,,,,AMNE04.jpg,AMSA08.jpg,AMNE18.jpg,AMSA01.jpg,AMNE04.jpg,MN,1,num_8,16,num_8,1.8164810813,,,2017_Mar_29_1448,60.0182684843,FEMA4ImagesEEG,001,200098,
AFNE01.JPG,AFNE01.JPG,AFNE01.JPG,AFNE01.JPG,AFNE01.JPG,AFNE01.JPG,,,,,2,1,21,4,,,,,,,,,,,,,,,,,,,AMSA04.jpg,AMSA03.jpg,AMNE06.jpg,AMNE11.jpg,AMSA03.jpg,MS,2,num_6,16,num_6,0.750219466165,,,2017_Mar_29_1448,60.0182684843,FEMA4ImagesEEG,001,200098,
AFNE01.JPG,AFNE01.JPG,AFNE01.JPG,AFNE01.JPG,AFNE01.JPG,AFNE01.JPG,,,,,2,2,22,6,,,,,,,,,,,,,,,,,,,AMNE06.jpg,AMSA06.jpg,AMNE19.jpg,AMSA13.jpg,AMNE06.jpg,MN,1,num_8,16,num_8,0.733456326299,,,2017_Mar_29_1448,60.0182684843,FEMA4ImagesEEG,001,200098,
AFNE01.JPG,AFNE01.JPG,AFNE01.JPG,AFNE01.JPG,AFNE01.JPG,AFNE01.JPG,,,,,2,3,23,9,,,,,,,,,,,,,,,,,,,AMNE19.jpg,AMNE09.jpg,AMSA20.jpg,AMSA09.jpg,AMSA20.jpg,MS,2,num_2,16,num_2,1.20015793224,,,2017_Mar_29_1448,60.0182684843,FEMA4ImagesEEG,001,200098,
AFNE01.JPG,AFNE01.JPG,AFNE01.JPG,AFNE01.JPG,AFNE01.JPG,AFNE01.JPG,,,,,2,4,24,8,,,,,,,,,,,,,,,,,,,AMNE16.jpg,AMSA07.jpg,AMSA01.jpg,AMNE11.jpg,AMNE11.jpg,MN,1,num_4,32,num_2,1.15013440594,,,2017_Mar_29_1448,60.0182684843,FEMA4ImagesEEG,001,200098,
AFNE01.JPG,AFNE01.JPG,AFNE01.JPG,AFNE01.JPG,AFNE01.JPG,AFNE01.JPG,,,,,2,5,25,7,,,,,,,,,,,,,,,,,,,AMNE14.jpg,AMSA02.jpg,AMSA01.jpg,AMNE18.jpg,AMSA02.jpg,MS,2,num_6,16,num_6,1.36672287097,,,2017_Mar_29_1448,60.0182684843,FEMA4ImagesEEG,001,200098,
AFNE01.JPG,AFNE01.JPG,AFNE01.JPG,AFNE01.JPG,AFNE01.JPG,AFNE01.JPG,,,,,2,6,26,1,,,,,,,,,,,,,,,,,,,AMSA03.jpg,AMSA08.jpg,AMNE10.jpg,AMNE15.jpg,AMSA03.jpg,MS,2,num_8,16,num_8,0.633460912853,,,2017_Mar_29_1448,60.0182684843,FEMA4ImagesEEG,001,200098,
AFNE01.JPG,AFNE01.JPG,AFNE01.JPG,AFNE01.JPG,AFNE01.JPG,AFNE01.JPG,,,,,2,7,27,5,,,,,,,,,,,,,,,,,,,AMSA08.jpg,AMNE04.jpg,AMNE17.jpg,AMSA17.jpg,AMSA17.jpg,MS,2,num_4,16,num_4,0.533506233362,,,2017_Mar_29_1448,60.0182684843,FEMA4ImagesEEG,001,200098,
AFNE01.JPG,AFNE01.JPG,AFNE01.JPG,AFNE01.JPG,AFNE01.JPG,AFNE01.JPG,,,,,2,8,28,2,,,,,,,,,,,,,,,,,,,AMNE08.jpg,AMSA01.jpg,AMSA16.jpg,AMNE06.jpg,AMNE06.jpg,MN,1,num_4,16,num_4,0.90010048775,,,2017_Mar_29_1448,60.0182684843,FEMA4ImagesEEG,001,200098,
AFNE01.JPG,AFNE01.JPG,AFNE01.JPG,AFNE01.JPG,AFNE01.JPG,AFNE01.JPG,,,,,2,9,29,3,,,,,,,,,,,,,,,,,,,AMNE17.jpg,AMNE15.jpg,AMSA12.jpg,AMSA05.jpg,AMNE17.jpg,MN,1,num_8,16,num_8,0.866880514543,,,2017_Mar_29_1448,60.0182684843,FEMA4ImagesEEG,001,200098,
AFNE01.JPG,AFNE01.JPG,AFNE01.JPG,AFNE01.JPG,AFNE01.JPG,AFNE01.JPG,,,,,3,0,30,4,,,,,,,,,,,,,,,,,,,AMNE20.jpg,AMNE04.jpg,AMSA02.jpg,AMSA12.jpg,AMNE20.jpg,MN,1,num_8,32,num_4,0.733519191272,,,2017_Mar_29_1448,60.0182684843,FEMA4ImagesEEG,001,200098,
AFNE01.JPG,AFNE01.JPG,AFNE01.JPG,AFNE01.JPG,AFNE01.JPG,AFNE01.JPG,,,,,3,1,31,0,,,,,,,,,,,,,,,,,,,AMNE20.jpg,AMSA10.jpg,AMNE07.jpg,AMSA09.jpg,AMSA10.jpg,MS,2,num_6,32,num_4,0.500191000407,,,2017_Mar_29_1448,60.0182684843,FEMA4ImagesEEG,001,200098,
AFNE01.JPG,AFNE01.JPG,AFNE01.JPG,AFNE01.JPG,AFNE01.JPG,AFNE01.JPG,,,,,3,2,32,1,,,,,,,,,,,,,,,,,,,AMNE05.jpg,AMSA19.jpg,AMSA13.jpg,AMNE07.jpg,AMNE05.jpg,MN,1,num_8,32,num_4,0.766932249884,,,2017_Mar_29_1448,60.0182684843,FEMA4ImagesEEG,001,200098,
AFNE01.JPG,AFNE01.JPG,AFNE01.JPG,AFNE01.JPG,AFNE01.JPG,AFNE01.JPG,,,,,3,3,33,5,,,,,,,,,,,,,,,,,,,AMSA10.jpg,AMNE11.jpg,AMNE08.jpg,AMSA05.jpg,AMNE08.jpg,MN,1,num_2,32,num_8,0.566760525806,,,2017_Mar_29_1448,60.0182684843,FEMA4ImagesEEG,001,200098,
AFNE01.JPG,AFNE01.JPG,AFNE01.JPG,AFNE01.JPG,AFNE01.JPG,AFNE01.JPG,,,,,3,4,34,8,,,,,,,,,,,,,,,,,,,AMSA13.jpg,AMNE01.jpg,AMNE02.jpg,AMSA05.jpg,AMNE01.jpg,MN,1,num_6,16,num_6,0.366825828445,,,2017_Mar_29_1448,60.0182684843,FEMA4ImagesEEG,001,200098,
AFNE01.JPG,AFNE01.JPG,AFNE01.JPG,AFNE01.JPG,AFNE01.JPG,AFNE01.JPG,,,,,3,5,35,9,,,,,,,,,,,,,,,,,,,AMSA17.jpg,AMNE13.jpg,AMSA15.jpg,AMNE15.jpg,AMNE13.jpg,MN,1,num_6,32,num_8,1.03343518963,,,2017_Mar_29_1448,60.0182684843,FEMA4ImagesEEG,001,200098,
AFNE01.JPG,AFNE01.JPG,AFNE01.JPG,AFNE01.JPG,AFNE01.JPG,AFNE01.JPG,,,,,3,6,36,3,,,,,,,,,,,,,,,,,,,AMNE03.jpg,AMNE14.jpg,AMSA20.jpg,AMSA19.jpg,AMNE14.jpg,MN,1,num_6,16,num_6,0.700024023419,,,2017_Mar_29_1448,60.0182684843,FEMA4ImagesEEG,001,200098,
AFNE01.JPG,AFNE01.JPG,AFNE01.JPG,AFNE01.JPG,AFNE01.JPG,AFNE01.JPG,,,,,3,7,37,6,,,,,,,,,,,,,,,,,,,AMSA11.jpg,AMNE01.jpg,AMSA19.jpg,AMNE04.jpg,AMSA19.jpg,MS,2,num_2,32,num_6,0.566824032227,,,2017_Mar_29_1448,60.0182684843,FEMA4ImagesEEG,001,200098,
AFNE01.JPG,AFNE01.JPG,AFNE01.JPG,AFNE01.JPG,AFNE01.JPG,AFNE01.JPG,,,,,3,8,38,7,,,,,,,,,,,,,,,,,,,AMNE09.jpg,AMSA18.jpg,AMSA08.jpg,AMNE18.jpg,AMNE09.jpg,MN,1,num_8,16,num_8,0.516806920874,,,2017_Mar_29_1448,60.0182684843,FEMA4ImagesEEG,001,200098,
AFNE01.JPG,AFNE01.JPG,AFNE01.JPG,AFNE01.JPG,AFNE01.JPG,AFNE01.JPG,,,,,3,9,39,2,,,,,,,,,,,,,,,,,,,AMNE03.jpg,AMSA10.jpg,AMSA17.jpg,AMNE10.jpg,AMSA17.jpg,MS,2,num_2,16,num_2,1.14982104336,,,2017_Mar_29_1448,60.0182684843,FEMA4ImagesEEG,001,200098,
AFNE01.JPG,AFNE01.JPG,AFNE01.JPG,AFNE01.JPG,AFNE01.JPG,AFNE01.JPG,,,,,4,0,40,0,,,,,,,,,,,,,,,,,,,AMNE03.jpg,AMSA18.jpg,AMNE12.jpg,AMSA08.jpg,AMSA18.jpg,MS,2,num_6,16,num_6,0.849997738726,,,2017_Mar_29_1448,60.0182684843,FEMA4ImagesEEG,001,200098,
AFNE01.JPG,AFNE01.JPG,AFNE01.JPG,AFNE01.JPG,AFNE01.JPG,AFNE01.JPG,,,,,4,1,41,8,,,,,,,,,,,,,,,,,,,AMNE10.jpg,AMSA08.jpg,AMNE08.jpg,AMSA20.jpg,AMSA08.jpg,MS,2,num_6,32,num_2,1.28342420422,,,2017_Mar_29_1448,60.0182684843,FEMA4ImagesEEG,001,200098,
AFNE01.JPG,AFNE01.JPG,AFNE01.JPG,AFNE01.JPG,AFNE01.JPG,AFNE01.JPG,,,,,4,2,42,6,,,,,,,,,,,,,,,,,,,AMNE20.jpg,AMSA01.jpg,AMSA05.jpg,AMNE13.jpg,AMNE13.jpg,MN,1,num_4,16,num_4,1.08339841675,,,2017_Mar_29_1448,60.0182684843,FEMA4ImagesEEG,001,200098,
AFNE01.JPG,AFNE01.JPG,AFNE01.JPG,AFNE01.JPG,AFNE01.JPG,AFNE01.JPG,,,,,4,3,43,9,,,,,,,,,,,,,,,,,,,AMSA19.jpg,AMSA18.jpg,AMNE15.jpg,AMNE19.jpg,AMNE19.jpg,MN,1,num_4,16,num_4,0.816801500274,,,2017_Mar_29_1448,60.0182684843,FEMA4ImagesEEG,001,200098,
AFNE01.JPG,AFNE01.JPG,AFNE01.JPG,AFNE01.JPG,AFNE01.JPG,AFNE01.JPG,,,,,4,4,44,4,,,,,,,,,,,,,,,,,,,AMSA07.jpg,AMNE16.jpg,AMNE14.jpg,AMSA17.jpg,AMSA07.jpg,MS,2,num_8,16,num_8,0.75014184718,,,2017_Mar_29_1448,60.0182684843,FEMA4ImagesEEG,001,200098,
AFNE01.JPG,AFNE01.JPG,AFNE01.JPG,AFNE01.JPG,AFNE01.JPG,AFNE01.JPG,,,,,4,5,45,2,,,,,,,,,,,,,,,,,,,AMNE02.jpg,AMSA19.jpg,AMNE04.jpg,AMSA01.jpg,AMNE02.jpg,MN,1,num_8,32,num_4,1.05009376816,,,2017_Mar_29_1448,60.0182684843,FEMA4ImagesEEG,001,200098,
AFNE01.JPG,AFNE01.JPG,AFNE01.JPG,AFNE01.JPG,AFNE01.JPG,AFNE01.JPG,,,,,4,6,46,7,,,,,,,,,,,,,,,,,,,AMNE17.jpg,AMNE20.jpg,AMSA09.jpg,AMSA19.jpg,AMSA09.jpg,MS,2,num_2,16,num_2,0.833489907789,,,2017_Mar_29_1448,60.0182684843,FEMA4ImagesEEG,001,200098,
AFNE01.JPG,AFNE01.JPG,AFNE01.JPG,AFNE01.JPG,AFNE01.JPG,AFNE01.JPG,,,,,4,7,47,5,,,,,,,,,,,,,,,,,,,AMNE18.jpg,AMSA05.jpg,AMNE11.jpg,AMSA19.jpg,AMSA05.jpg,MS,2,num_6,32,num_4,1.11679158942,,,2017_Mar_29_1448,60.0182684843,FEMA4ImagesEEG,001,200098,
AFNE01.JPG,AFNE01.JPG,AFNE01.JPG,AFNE01.JPG,AFNE01.JPG,AFNE01.JPG,,,,,4,8,48,1,,,,,,,,,,,,,,,,,,,AMSA11.jpg,AMSA06.jpg,AMNE04.jpg,AMNE13.jpg,AMSA11.jpg,MS,2,num_8,16,num_8,0.616796560935,,,2017_Mar_29_1448,60.0182684843,FEMA4ImagesEEG,001,200098,
AFNE01.JPG,AFNE01.JPG,AFNE01.JPG,AFNE01.JPG,AFNE01.JPG,AFNE01.JPG,,,,,4,9,49,3,,,,,,,,,,,,,,,,,,,AMSA03.jpg,AMSA05.jpg,AMNE16.jpg,AMNE05.jpg,AMNE05.jpg,MN,1,num_4,32,num_6,1.33342848613,,,2017_Mar_29_1448,60.0182684843,FEMA4ImagesEEG,001,200098,
AFNE01.JPG,AFNE01.JPG,AFNE01.JPG,AFNE01.JPG,AFNE01.JPG,AFNE01.JPG,,,,,5,0,50,6,,,,,,,,,,,,,,,,,,,AMNE16.jpg,AMNE14.jpg,AMSA05.jpg,AMSA04.jpg,AMSA04.jpg,MS,2,num_4,16,num_4,0.666653943947,,,2017_Mar_29_1448,60.0182684843,FEMA4ImagesEEG,001,200098,
AFNE01.JPG,AFNE01.JPG,AFNE01.JPG,AFNE01.JPG,AFNE01.JPG,AFNE01.JPG,,,,,5,1,51,1,,,,,,,,,,,,,,,,,,,AMNE16.jpg,AMSA03.jpg,AMNE10.jpg,AMSA06.jpg,AMSA06.jpg,MS,2,num_4,32,num_8,0.900101449923,,,2017_Mar_29_1448,60.0182684843,FEMA4ImagesEEG,001,200098,
AFNE01.JPG,AFNE01.JPG,AFNE01.JPG,AFNE01.JPG,AFNE01.JPG,AFNE01.JPG,,,,,5,2,52,7,,,,,,,,,,,,,,,,,,,AMNE18.jpg,AMSA03.jpg,AMSA05.jpg,AMNE19.jpg,AMSA05.jpg,MS,2,num_2,16,num_2,0.916824497283,,,2017_Mar_29_1448,60.0182684843,FEMA4ImagesEEG,001,200098,
AFNE01.JPG,AFNE01.JPG,AFNE01.JPG,AFNE01.JPG,AFNE01.JPG,AFNE01.JPG,,,,,5,3,53,3,,,,,,,,,,,,,,,,,,,AMNE14.jpg,AMSA06.jpg,AMNE02.jpg,AMSA03.jpg,AMNE14.jpg,MN,1,num_8,16,num_8,0.716793578002,,,2017_Mar_29_1448,60.0182684843,FEMA4ImagesEEG,001,200098,
AFNE01.JPG,AFNE01.JPG,AFNE01.JPG,AFNE01.JPG,AFNE01.JPG,AFNE01.JPG,,,,,5,4,54,2,,,,,,,,,,,,,,,,,,,AMNE07.jpg,AMSA15.jpg,AMSA10.jpg,AMNE16.jpg,AMSA15.jpg,MS,2,num_6,16,num_6,0.616792070563,,,2017_Mar_29_1448,60.0182684843,FEMA4ImagesEEG,001,200098,
AFNE01.JPG,AFNE01.JPG,AFNE01.JPG,AFNE01.JPG,AFNE01.JPG,AFNE01.JPG,,,,,5,5,55,0,,,,,,,,,,,,,,,,,,,AMNE10.jpg,AMNE18.jpg,AMSA11.jpg,AMSA09.jpg,AMNE18.jpg,MN,1,num_6,16,num_6,0.833482209942,,,2017_Mar_29_1448,60.0182684843,FEMA4ImagesEEG,001,200098,
AFNE01.JPG,AFNE01.JPG,AFNE01.JPG,AFNE01.JPG,AFNE01.JPG,AFNE01.JPG,,,,,5,6,56,5,,,,,,,,,,,,,,,,,,,AMSA06.jpg,AMSA19.jpg,AMNE05.jpg,AMNE10.jpg,AMNE10.jpg,MN,1,num_4,16,num_4,0.766812613932,,,2017_Mar_29_1448,60.0182684843,FEMA4ImagesEEG,001,200098,
AFNE01.JPG,AFNE01.JPG,AFNE01.JPG,AFNE01.JPG,AFNE01.JPG,AFNE01.JPG,,,,,5,7,57,4,,,,,,,,,,,,,,,,,,,AMNE02.jpg,AMSA06.jpg,AMNE17.jpg,AMSA02.jpg,AMNE17.jpg,MN,1,num_2,16,num_2,1.18345797807,,,2017_Mar_29_1448,60.0182684843,FEMA4ImagesEEG,001,200098,
AFNE01.JPG,AFNE01.JPG,AFNE01.JPG,AFNE01.JPG,AFNE01.JPG,AFNE01.JPG,,,,,5,8,58,9,,,,,,,,,,,,,,,,,,,AMNE05.jpg,AMSA06.jpg,AMSA19.jpg,AMNE01.jpg,AMSA19.jpg,MS,2,num_2,16,num_2,0.733452798217,,,2017_Mar_29_1448,60.0182684843,FEMA4ImagesEEG,001,200098,
AFNE01.JPG,AFNE01.JPG,AFNE01.JPG,AFNE01.JPG,AFNE01.JPG,AFNE01.JPG,,,,,5,9,59,8,,,,,,,,,,,,,,,,,,,AMNE18.jpg,AMSA18.jpg,AMSA10.jpg,AMNE19.jpg,AMNE18.jpg,MN,1,num_8,16,num_8,0.750122602796,,,2017_Mar_29_1448,60.0182684843,FEMA4ImagesEEG,001,200098,
,,,,,,,,,,,,,,,,,,,,,,,,,,,,,,,,,,,,,,,,,,,space,21.6315589264,2017_Mar_29_1448,60.0182684843,FEMA4ImagesEEG,001,200098,
AFNE01.JPG,AFNE01.JPG,AFNE01.JPG,AFNE01.JPG,AFNE01.JPG,AFNE01.JPG,,,,,,,,,0,0,0,5,,,,,,,,,,,,,,,AFNE15.jpg,AFSA18.jpg,AFNE04.jpg,AFSA17.jpg,AFSA17.jpg,FS,4,num_4,32,num_6,0.767051564995,,,2017_Mar_29_1448,60.0182684843,FEMA4ImagesEEG,001,200098,
AFNE01.JPG,AFNE01.JPG,AFNE01.JPG,AFNE01.JPG,AFNE01.JPG,AFNE01.JPG,,,,,,,,,0,1,1,2,,,,,,,,,,,,,,,AFSA11.jpg,AFSA13.jpg,AFNE02.jpg,AFNE08.jpg,AFNE02.jpg,FN,3,num_2,16,num_2,0.566804146394,,,2017_Mar_29_1448,60.0182684843,FEMA4ImagesEEG,001,200098,
AFNE01.JPG,AFNE01.JPG,AFNE01.JPG,AFNE01.JPG,AFNE01.JPG,AFNE01.JPG,,,,,,,,,0,2,2,7,,,,,,,,,,,,,,,AFSA14.jpg,AFNE07.jpg,AFNE20.jpg,AFSA20.jpg,AFSA20.jpg,FS,4,num_4,32,num_6,0.666803408647,,,2017_Mar_29_1448,60.0182684843,FEMA4ImagesEEG,001,200098,
AFNE01.JPG,AFNE01.JPG,AFNE01.JPG,AFNE01.JPG,AFNE01.JPG,AFNE01.JPG,,,,,,,,,0,3,3,1,,,,,,,,,,,,,,,AFNE18.jpg,AFSA14.jpg,AFSA15.jpg,AFNE07.jpg,AFNE18.jpg,FN,3,num_8,16,num_8,0.816748899058,,,2017_Mar_29_1448,60.0182684843,FEMA4ImagesEEG,001,200098,
AFNE01.JPG,AFNE01.JPG,AFNE01.JPG,AFNE01.JPG,AFNE01.JPG,AFNE01.JPG,,,,,,,,,0,4,4,9,,,,,,,,,,,,,,,AFNE04.jpg,AFNE10.jpg,AFSA09.jpg,AFSA06.jpg,AFSA09.jpg,FS,4,num_2,32,num_8,0.683457176317,,,2017_Mar_29_1448,60.0182684843,FEMA4ImagesEEG,001,200098,
AFNE01.JPG,AFNE01.JPG,AFNE01.JPG,AFNE01.JPG,AFNE01.JPG,AFNE01.JPG,,,,,,,,,0,5,5,4,,,,,,,,,,,,,,,AFNE14.jpg,AFSA06.jpg,AFSA11.jpg,AFNE06.jpg,AFSA06.jpg,FS,4,num_6,32,num_4,0.716785559547,,,2017_Mar_29_1448,60.0182684843,FEMA4ImagesEEG,001,200098,
AFNE01.JPG,AFNE01.JPG,AFNE01.JPG,AFNE01.JPG,AFNE01.JPG,AFNE01.JPG,,,,,,,,,0,6,6,3,,,,,,,,,,,,,,,AFSA04.jpg,AFSA20.jpg,AFNE07.jpg,AFNE17.jpg,AFSA04.jpg,FS,4,num_8,16,num_8,0.750015475671,,,2017_Mar_29_1448,60.0182684843,FEMA4ImagesEEG,001,200098,
AFNE01.JPG,AFNE01.JPG,AFNE01.JPG,AFNE01.JPG,AFNE01.JPG,AFNE01.JPG,,,,,,,,,0,7,7,6,,,,,,,,,,,,,,,AFNE04.jpg,AFSA08.jpg,AFSA07.jpg,AFNE17.jpg,AFSA07.jpg,FS,4,num_2,16,num_2,1.06677191204,,,2017_Mar_29_1448,60.0182684843,FEMA4ImagesEEG,001,200098,
AFNE01.JPG,AFNE01.JPG,AFNE01.JPG,AFNE01.JPG,AFNE01.JPG,AFNE01.JPG,,,,,,,,,0,8,8,0,,,,,,,,,,,,,,,AFNE11.jpg,AFSA11.jpg,AFNE06.jpg,AFSA19.jpg,AFSA19.jpg,FS,4,num_4,16,num_4,0.716852914775,,,2017_Mar_29_1448,60.0182684843,FEMA4ImagesEEG,001,200098,
AFNE01.JPG,AFNE01.JPG,AFNE01.JPG,AFNE01.JPG,AFNE01.JPG,AFNE01.JPG,,,,,,,,,0,9,9,8,,,,,,,,,,,,,,,AFNE12.jpg,AFSA14.jpg,AFNE08.jpg,AFSA12.jpg,AFNE12.jpg,FN,3,num_8,16,num_8,0.533464216511,,,2017_Mar_29_1448,60.0182684843,FEMA4ImagesEEG,001,200098,
AFNE01.JPG,AFNE01.JPG,AFNE01.JPG,AFNE01.JPG,AFNE01.JPG,AFNE01.JPG,,,,,,,,,1,0,10,3,,,,,,,,,,,,,,,AFSA18.jpg,AFSA03.jpg,AFNE08.jpg,AFNE06.jpg,AFSA18.jpg,FS,4,num_8,16,num_8,0.81682266912,,,2017_Mar_29_1448,60.0182684843,FEMA4ImagesEEG,001,200098,
AFNE01.JPG,AFNE01.JPG,AFNE01.JPG,AFNE01.JPG,AFNE01.JPG,AFNE01.JPG,,,,,,,,,1,1,11,6,,,,,,,,,,,,,,,AFSA10.jpg,AFNE08.jpg,AFNE02.jpg,AFSA12.jpg,AFNE02.jpg,FN,3,num_2,16,num_2,0.850457038148,,,2017_Mar_29_1448,60.0182684843,FEMA4ImagesEEG,001,200098,
AFNE01.JPG,AFNE01.JPG,AFNE01.JPG,AFNE01.JPG,AFNE01.JPG,AFNE01.JPG,,,,,,,,,1,2,12,1,,,,,,,,,,,,,,,AFSA20.jpg,AFNE06.jpg,AFSA15.jpg,AFNE15.jpg,AFNE15.jpg,FN,3,num_4,32,num_2,0.450300581171,,,2017_Mar_29_1448,60.0182684843,FEMA4ImagesEEG,001,200098,
AFNE01.JPG,AFNE01.JPG,AFNE01.JPG,AFNE01.JPG,AFNE01.JPG,AFNE01.JPG,,,,,,,,,1,3,13,7,,,,,,,,,,,,,,,AFSA07.jpg,AFNE02.jpg,AFNE17.jpg,AFSA10.jpg,AFSA10.jpg,FS,4,num_4,16,num_4,0.916828346206,,,2017_Mar_29_1448,60.0182684843,FEMA4ImagesEEG,001,200098,
AFNE01.JPG,AFNE01.JPG,AFNE01.JPG,AFNE01.JPG,AFNE01.JPG,AFNE01.JPG,,,,,,,,,1,4,14,8,,,,,,,,,,,,,,,AFNE02.jpg,AFSA18.jpg,AFNE20.jpg,AFSA02.jpg,AFNE02.jpg,FN,3,num_8,16,num_8,0.850008964655,,,2017_Mar_29_1448,60.0182684843,FEMA4ImagesEEG,001,200098,
AFNE01.JPG,AFNE01.JPG,AFNE01.JPG,AFNE01.JPG,AFNE01.JPG,AFNE01.JPG,,,,,,,,,1,5,15,2,,,,,,,,,,,,,,,AFNE09.jpg,AFNE08.jpg,AFSA13.jpg,AFSA09.jpg,AFSA13.jpg,FS,4,num_2,16,num_2,1.3167349468,,,2017_Mar_29_1448,60.0182684843,FEMA4ImagesEEG,001,200098,
AFNE01.JPG,AFNE01.JPG,AFNE01.JPG,AFNE01.JPG,AFNE01.JPG,AFNE01.JPG,,,,,,,,,1,6,16,4,,,,,,,,,,,,,,,AFNE07.jpg,AFSA09.jpg,AFNE01.jpg,AFSA15.jpg,AFNE01.jpg,FN,3,num_2,16,num_2,0.750226522447,,,2017_Mar_29_1448,60.0182684843,FEMA4ImagesEEG,001,200098,
AFNE01.JPG,AFNE01.JPG,AFNE01.JPG,AFNE01.JPG,AFNE01.JPG,AFNE01.JPG,,,,,,,,,1,7,17,5,,,,,,,,,,,,,,,AFNE15.jpg,AFNE02.jpg,AFSA03.jpg,AFSA12.jpg,AFSA12.jpg,FS,4,num_4,16,num_4,0.650190695887,,,2017_Mar_29_1448,60.0182684843,FEMA4ImagesEEG,001,200098,
AFNE01.JPG,AFNE01.JPG,AFNE01.JPG,AFNE01.JPG,AFNE01.JPG,AFNE01.JPG,,,,,,,,,1,8,18,9,,,,,,,,,,,,,,,AFSA17.jpg,AFSA11.jpg,AFNE09.jpg,AFNE02.jpg,AFSA17.jpg,FS,4,num_8,16,num_8,0.850135336164,,,2017_Mar_29_1448,60.0182684843,FEMA4ImagesEEG,001,200098,
AFNE01.JPG,AFNE01.JPG,AFNE01.JPG,AFNE01.JPG,AFNE01.JPG,AFNE01.JPG,,,,,,,,,1,9,19,0,,,,,,,,,,,,,,,AFSA16.jpg,AFNE15.jpg,AFSA07.jpg,AFNE05.jpg,AFSA16.jpg,FS,4,num_8,16,num_8,0.900158862351,,,2017_Mar_29_1448,60.0182684843,FEMA4ImagesEEG,001,200098,
AFNE01.JPG,AFNE01.JPG,AFNE01.JPG,AFNE01.JPG,AFNE01.JPG,AFNE01.JPG,,,,,,,,,2,0,20,5,,,,,,,,,,,,,,,AFSA18.jpg,AFSA13.jpg,AFNE10.jpg,AFNE11.jpg,AFNE10.jpg,FN,3,num_2,16,num_2,0.733492890606,,,2017_Mar_29_1448,60.0182684843,FEMA4ImagesEEG,001,200098,
AFNE01.JPG,AFNE01.JPG,AFNE01.JPG,AFNE01.JPG,AFNE01.JPG,AFNE01.JPG,,,,,,,,,2,1,21,9,,,,,,,,,,,,,,,AFNE07.jpg,AFSA10.jpg,AFSA06.jpg,AFNE18.jpg,AFNE18.jpg,FN,3,num_4,16,num_4,0.716784918099,,,2017_Mar_29_1448,60.0182684843,FEMA4ImagesEEG,001,200098,
AFNE01.JPG,AFNE01.JPG,AFNE01.JPG,AFNE01.JPG,AFNE01.JPG,AFNE01.JPG,,,,,,,,,2,2,22,6,,,,,,,,,,,,,,,AFNE17.jpg,AFSA03.jpg,AFSA17.jpg,AFNE01.jpg,AFNE17.jpg,FN,3,num_8,32,num_6,0.816770388512,,,2017_Mar_29_1448,60.0182684843,FEMA4ImagesEEG,001,200098,
AFNE01.JPG,AFNE01.JPG,AFNE01.JPG,AFNE01.JPG,AFNE01.JPG,AFNE01.JPG,,,,,,,,,2,3,23,8,,,,,,,,,,,,,,,AFSA19.jpg,AFNE20.jpg,AFNE07.jpg,AFSA04.jpg,AFNE20.jpg,FN,3,num_6,16,num_6,0.850143033778,,,2017_Mar_29_1448,60.0182684843,FEMA4ImagesEEG,001,200098,
AFNE01.JPG,AFNE01.JPG,AFNE01.JPG,AFNE01.JPG,AFNE01.JPG,AFNE01.JPG,,,,,,,,,2,4,24,4,,,,,,,,,,,,,,,AFNE16.jpg,AFSA08.jpg,AFSA03.jpg,AFNE05.jpg,AFNE05.jpg,FN,3,num_4,16,num_4,0.833441476105,,,2017_Mar_29_1448,60.0182684843,FEMA4ImagesEEG,001,200098,
AFNE01.JPG,AFNE01.JPG,AFNE01.JPG,AFNE01.JPG,AFNE01.JPG,AFNE01.JPG,,,,,,,,,2,5,25,1,,,,,,,,,,,,,,,AFNE04.jpg,AFSA08.jpg,AFNE19.jpg,AFSA13.jpg,AFNE04.jpg,FN,3,num_8,32,num_6,0.66692496906,,,2017_Mar_29_1448,60.0182684843,FEMA4ImagesEEG,001,200098,
AFNE01.JPG,AFNE01.JPG,AFNE01.JPG,AFNE01.JPG,AFNE01.JPG,AFNE01.JPG,,,,,,,,,2,6,26,2,,,,,,,,,,,,,,,AFNE07.jpg,AFSA20.jpg,AFNE08.jpg,AFSA15.jpg,AFSA15.jpg,FS,4,num_4,16,num_4,0.43347714236,,,2017_Mar_29_1448,60.0182684843,FEMA4ImagesEEG,001,200098,
AFNE01.JPG,AFNE01.JPG,AFNE01.JPG,AFNE01.JPG,AFNE01.JPG,AFNE01.JPG,,,,,,,,,2,7,27,0,,,,,,,,,,,,,,,AFNE09.jpg,AFSA18.jpg,AFSA10.jpg,AFNE20.jpg,AFNE20.jpg,FN,3,num_4,32,num_8,1.06677960977,,,2017_Mar_29_1448,60.0182684843,FEMA4ImagesEEG,001,200098,
AFNE01.JPG,AFNE01.JPG,AFNE01.JPG,AFNE01.JPG,AFNE01.JPG,AFNE01.JPG,,,,,,,,,2,8,28,7,,,,,,,,,,,,,,,AFSA07.jpg,AFNE13.jpg,AFNE05.jpg,AFSA05.jpg,AFSA05.jpg,FS,4,num_4,16,num_4,0.566810881952,,,2017_Mar_29_1448,60.0182684843,FEMA4ImagesEEG,001,200098,
AFNE01.JPG,AFNE01.JPG,AFNE01.JPG,AFNE01.JPG,AFNE01.JPG,AFNE01.JPG,,,,,,,,,2,9,29,3,,,,,,,,,,,,,,,AFNE03.jpg,AFSA01.jpg,AFNE07.jpg,AFSA12.jpg,AFSA12.jpg,FS,4,num_4,16,num_4,0.466801676783,,,2017_Mar_29_1448,60.0182684843,FEMA4ImagesEEG,001,200098,
AFNE01.JPG,AFNE01.JPG,AFNE01.JPG,AFNE01.JPG,AFNE01.JPG,AFNE01.JPG,,,,,,,,,3,0,30,8,,,,,,,,,,,,,,,AFNE04.jpg,AFNE18.jpg,AFSA10.jpg,AFSA08.jpg,AFSA10.jpg,FS,4,num_2,32,num_6,0.600157868001,,,2017_Mar_29_1448,60.0182684843,FEMA4ImagesEEG,001,200098,
AFNE01.JPG,AFNE01.JPG,AFNE01.JPG,AFNE01.JPG,AFNE01.JPG,AFNE01.JPG,,,,,,,,,3,1,31,1,,,,,,,,,,,,,,,AFSA15.jpg,AFNE08.jpg,AFNE20.jpg,AFSA04.jpg,AFNE08.jpg,FN,3,num_6,16,num_6,0.916793706361,,,2017_Mar_29_1448,60.0182684843,FEMA4ImagesEEG,001,200098,
AFNE01.JPG,AFNE01.JPG,AFNE01.JPG,AFNE01.JPG,AFNE01.JPG,AFNE01.JPG,,,,,,,,,3,2,32,3,,,,,,,,,,,,,,,AFNE16.jpg,AFSA16.jpg,AFNE02.jpg,AFSA15.jpg,AFSA15.jpg,FS,4,num_4,16,num_4,0.633486892795,,,2017_Mar_29_1448,60.0182684843,FEMA4ImagesEEG,001,200098,
AFNE01.JPG,AFNE01.JPG,AFNE01.JPG,AFNE01.JPG,AFNE01.JPG,AFNE01.JPG,,,,,,,,,3,3,33,2,,,,,,,,,,,,,,,AFSA04.jpg,AFNE06.jpg,AFSA18.jpg,AFNE01.jpg,AFSA18.jpg,FS,4,num_2,32,num_6,0.833464890136,,,2017_Mar_29_1448,60.0182684843,FEMA4ImagesEEG,001,200098,
AFNE01.JPG,AFNE01.JPG,AFNE01.JPG,AFNE01.JPG,AFNE01.JPG,AFNE01.JPG,,,,,,,,,3,4,34,4,,,,,,,,,,,,,,,AFNE09.jpg,AFSA17.jpg,AFNE07.jpg,AFSA11.jpg,AFNE09.jpg,FN,3,num_8,16,num_8,0.783484663698,,,2017_Mar_29_1448,60.0182684843,FEMA4ImagesEEG,001,200098,
AFNE01.JPG,AFNE01.JPG,AFNE01.JPG,AFNE01.JPG,AFNE01.JPG,AFNE01.JPG,,,,,,,,,3,5,35,7,,,,,,,,,,,,,,,AFNE05.jpg,AFSA04.jpg,AFSA12.jpg,AFNE15.jpg,AFNE05.jpg,FN,3,num_8,16,num_8,0.966721972916,,,2017_Mar_29_1448,60.0182684843,FEMA4ImagesEEG,001,200098,
AFNE01.JPG,AFNE01.JPG,AFNE01.JPG,AFNE01.JPG,AFNE01.JPG,AFNE01.JPG,,,,,,,,,3,6,36,9,,,,,,,,,,,,,,,AFNE01.jpg,AFNE03.jpg,AFSA06.jpg,AFSA01.jpg,AFNE01.jpg,FN,3,num_8,32,num_4,0.850170617457,,,2017_Mar_29_1448,60.0182684843,FEMA4ImagesEEG,001,200098,
AFNE01.JPG,AFNE01.JPG,AFNE01.JPG,AFNE01.JPG,AFNE01.JPG,AFNE01.JPG,,,,,,,,,3,7,37,6,,,,,,,,,,,,,,,AFSA05.jpg,AFNE19.jpg,AFSA19.jpg,AFNE15.jpg,AFNE19.jpg,FN,3,num_6,16,num_6,0.700167714851,,,2017_Mar_29_1448,60.0182684843,FEMA4ImagesEEG,001,200098,
AFNE01.JPG,AFNE01.JPG,AFNE01.JPG,AFNE01.JPG,AFNE01.JPG,AFNE01.JPG,,,,,,,,,3,8,38,5,,,,,,,,,,,,,,,AFSA02.jpg,AFNE01.jpg,AFNE09.jpg,AFSA15.jpg,AFSA02.jpg,FS,4,num_8,16,num_8,0.683497268707,,,2017_Mar_29_1448,60.0182684843,FEMA4ImagesEEG,001,200098,
AFNE01.JPG,AFNE01.JPG,AFNE01.JPG,AFNE01.JPG,AFNE01.JPG,AFNE01.JPG,,,,,,,,,3,9,39,0,,,,,,,,,,,,,,,AFSA08.jpg,AFNE18.jpg,AFSA03.jpg,AFNE05.jpg,AFSA08.jpg,FS,4,num_8,16,num_8,0.816731579136,,,2017_Mar_29_1448,60.0182684843,FEMA4ImagesEEG,001,200098,
AFNE01.JPG,AFNE01.JPG,AFNE01.JPG,AFNE01.JPG,AFNE01.JPG,AFNE01.JPG,,,,,,,,,4,0,40,3,,,,,,,,,,,,,,,AFSA08.jpg,AFNE14.jpg,AFSA15.jpg,AFNE11.jpg,AFSA15.jpg,FS,4,num_2,16,num_2,1.01672080217,,,2017_Mar_29_1448,60.0182684843,FEMA4ImagesEEG,001,200098,
AFNE01.JPG,AFNE01.JPG,AFNE01.JPG,AFNE01.JPG,AFNE01.JPG,AFNE01.JPG,,,,,,,,,4,1,41,4,,,,,,,,,,,,,,,AFSA13.jpg,AFSA06.jpg,AFNE03.jpg,AFNE12.jpg,AFSA06.jpg,FS,4,num_6,16,num_6,0.98349313112,,,2017_Mar_29_1448,60.0182684843,FEMA4ImagesEEG,001,200098,
AFNE01.JPG,AFNE01.JPG,AFNE01.JPG,AFNE01.JPG,AFNE01.JPG,AFNE01.JPG,,,,,,,,,4,2,42,5,,,,,,,,,,,,,,,AFNE03.jpg,AFNE18.jpg,AFSA06.jpg,AFSA10.jpg,AFSA10.jpg,FS,4,num_4,32,num_8,0.783470871858,,,2017_Mar_29_1448,60.0182684843,FEMA4ImagesEEG,001,200098,
AFNE01.JPG,AFNE01.JPG,AFNE01.JPG,AFNE01.JPG,AFNE01.JPG,AFNE01.JPG,,,,,,,,,4,3,43,1,,,,,,,,,,,,,,,AFNE08.jpg,AFSA13.jpg,AFNE01.jpg,AFSA19.jpg,AFNE08.jpg,FN,3,num_8,32,num_2,0.783478890313,,,2017_Mar_29_1448,60.0182684843,FEMA4ImagesEEG,001,200098,
AFNE01.JPG,AFNE01.JPG,AFNE01.JPG,AFNE01.JPG,AFNE01.JPG,AFNE01.JPG,,,,,,,,,4,4,44,9,,,,,,,,,,,,,,,AFSA11.jpg,AFNE20.jpg,AFNE07.jpg,AFSA02.jpg,AFNE20.jpg,FN,3,num_6,16,num_6,0.6334686107,,,2017_Mar_29_1448,60.0182684843,FEMA4ImagesEEG,001,200098,
AFNE01.JPG,AFNE01.JPG,AFNE01.JPG,AFNE01.JPG,AFNE01.JPG,AFNE01.JPG,,,,,,,,,4,5,45,6,,,,,,,,,,,,,,,AFNE02.jpg,AFSA02.jpg,AFSA11.jpg,AFNE17.jpg,AFNE02.jpg,FN,3,num_8,16,num_8,0.616793353576,,,2017_Mar_29_1448,60.0182684843,FEMA4ImagesEEG,001,200098,
AFNE01.JPG,AFNE01.JPG,AFNE01.JPG,AFNE01.JPG,AFNE01.JPG,AFNE01.JPG,,,,,,,,,4,6,46,8,,,,,,,,,,,,,,,AFSA11.jpg,AFNE07.jpg,AFSA19.jpg,AFNE06.jpg,AFNE06.jpg,FN,3,num_4,32,num_8,0.600017384044,,,2017_Mar_29_1448,60.0182684843,FEMA4ImagesEEG,001,200098,
AFNE01.JPG,AFNE01.JPG,AFNE01.JPG,AFNE01.JPG,AFNE01.JPG,AFNE01.JPG,,,,,,,,,4,7,47,0,,,,,,,,,,,,,,,AFSA18.jpg,AFNE18.jpg,AFSA16.jpg,AFNE12.jpg,AFNE18.jpg,FN,3,num_6,16,num_6,0.683511702111,,,2017_Mar_29_1448,60.0182684843,FEMA4ImagesEEG,001,200098,
AFNE01.JPG,AFNE01.JPG,AFNE01.JPG,AFNE01.JPG,AFNE01.JPG,AFNE01.JPG,,,,,,,,,4,8,48,7,,,,,,,,,,,,,,,AFNE16.jpg,AFSA01.jpg,AFSA02.jpg,AFNE20.jpg,AFSA01.jpg,FS,4,num_6,16,num_6,0.550167378038,,,2017_Mar_29_1448,60.0182684843,FEMA4ImagesEEG,001,200098,
AFNE01.JPG,AFNE01.JPG,AFNE01.JPG,AFNE01.JPG,AFNE01.JPG,AFNE01.JPG,,,,,,,,,4,9,49,2,,,,,,,,,,,,,,,AFSA07.jpg,AFNE10.jpg,AFSA08.jpg,AFNE09.jpg,AFSA07.jpg,FS,4,num_8,16,num_8,0.500199660426,,,2017_Mar_29_1448,60.0182684843,FEMA4ImagesEEG,001,200098,
AFNE01.JPG,AFNE01.JPG,AFNE01.JPG,AFNE01.JPG,AFNE01.JPG,AFNE01.JPG,,,,,,,,,5,0,50,8,,,,,,,,,,,,,,,AFSA19.jpg,AFNE07.jpg,AFSA14.jpg,AFNE20.jpg,AFSA14.jpg,FS,4,num_2,16,num_2,0.850135015324,,,2017_Mar_29_1448,60.0182684843,FEMA4ImagesEEG,001,200098,
AFNE01.JPG,AFNE01.JPG,AFNE01.JPG,AFNE01.JPG,AFNE01.JPG,AFNE01.JPG,,,,,,,,,5,1,51,4,,,,,,,,,,,,,,,AFNE02.jpg,AFSA06.jpg,AFNE10.jpg,AFSA03.jpg,AFSA03.jpg,FS,4,num_4,32,num_6,1.13346877112,,,2017_Mar_29_1448,60.0182684843,FEMA4ImagesEEG,001,200098,
AFNE01.JPG,AFNE01.JPG,AFNE01.JPG,AFNE01.JPG,AFNE01.JPG,AFNE01.JPG,,,,,,,,,5,2,52,2,,,,,,,,,,,,,,,AFNE04.jpg,AFNE19.jpg,AFSA15.jpg,AFSA04.jpg,AFSA15.jpg,FS,4,num_2,16,num_2,0.900110751507,,,2017_Mar_29_1448,60.0182684843,FEMA4ImagesEEG,001,200098,
AFNE01.JPG,AFNE01.JPG,AFNE01.JPG,AFNE01.JPG,AFNE01.JPG,AFNE01.JPG,,,,,,,,,5,3,53,6,,,,,,,,,,,,,,,AFSA06.jpg,AFNE08.jpg,AFNE19.jpg,AFSA04.jpg,AFSA04.jpg,FS,4,num_4,16,num_4,0.650155414478,,,2017_Mar_29_1448,60.0182684843,FEMA4ImagesEEG,001,200098,
AFNE01.JPG,AFNE01.JPG,AFNE01.JPG,AFNE01.JPG,AFNE01.JPG,AFNE01.JPG,,,,,,,,,5,4,54,7,,,,,,,,,,,,,,,AFSA05.jpg,AFNE05.jpg,AFNE15.jpg,AFSA08.jpg,AFNE05.jpg,FN,3,num_6,16,num_6,0.68351394718,,,2017_Mar_29_1448,60.0182684843,FEMA4ImagesEEG,001,200098,
AFNE01.JPG,AFNE01.JPG,AFNE01.JPG,AFNE01.JPG,AFNE01.JPG,AFNE01.JPG,,,,,,,,,5,5,55,0,,,,,,,,,,,,,,,AFSA07.jpg,AFSA03.jpg,AFNE15.jpg,AFNE08.jpg,AFSA03.jpg,FS,4,num_6,16,num_6,0.566838465515,,,2017_Mar_29_1448,60.0182684843,FEMA4ImagesEEG,001,200098,
AFNE01.JPG,AFNE01.JPG,AFNE01.JPG,AFNE01.JPG,AFNE01.JPG,AFNE01.JPG,,,,,,,,,5,6,56,9,,,,,,,,,,,,,,,AFSA02.jpg,AFNE08.jpg,AFSA06.jpg,AFNE02.jpg,AFSA06.jpg,FS,4,num_2,32,num_6,0.850175107829,,,2017_Mar_29_1448,60.0182684843,FEMA4ImagesEEG,001,200098,
AFNE01.JPG,AFNE01.JPG,AFNE01.JPG,AFNE01.JPG,AFNE01.JPG,AFNE01.JPG,,,,,,,,,5,7,57,3,,,,,,,,,,,,,,,AFSA11.jpg,AFNE01.jpg,AFNE18.jpg,AFSA20.jpg,AFNE01.jpg,FN,3,num_6,16,num_6,0.86680995184,,,2017_Mar_29_1448,60.0182684843,FEMA4ImagesEEG,001,200098,
AFNE01.JPG,AFNE01.JPG,AFNE01.JPG,AFNE01.JPG,AFNE01.JPG,AFNE01.JPG,,,,,,,,,5,8,58,5,,,,,,,,,,,,,,,AFSA03.jpg,AFSA19.jpg,AFNE08.jpg,AFNE19.jpg,AFSA19.jpg,FS,4,num_6,16,num_6,1.11676721321,,,2017_Mar_29_1448,60.0182684843,FEMA4ImagesEEG,001,200098,
AFNE01.JPG,AFNE01.JPG,AFNE01.JPG,AFNE01.JPG,AFNE01.JPG,AFNE01.JPG,,,,,,,,,5,9,59,1,,,,,,,,,,,,,,,AFSA06.jpg,AFSA09.jpg,AFNE04.jpg,AFNE02.jpg,AFSA09.jpg,FS,4,num_6,16,num_6,0.250202947995,,,2017_Mar_29_1448,60.0182684843,FEMA4ImagesEEG,001,200098,
,,,,,,,,,,,,,,,,,,,,,,,,,,,,,,,,,,,,,,,,,,,space,11.1326765439,2017_Mar_29_1448,60.0182684843,FEMA4ImagesEEG,001,200098,
AFNE01.JPG,AFNE01.JPG,AFNE01.JPG,AFNE01.JPG,AFNE01.JPG,AFNE01.JPG,,,,,,,,,,,,,0,0,0,9,,,,,,,,,,,AMNE19.jpg,AMSA06.jpg,AMNE07.jpg,AMSA17.jpg,AMSA17.jpg,MS,2,num_4,32,num_8,0.633514476474,,,2017_Mar_29_1448,60.0182684843,FEMA4ImagesEEG,001,200098,
AFNE01.JPG,AFNE01.JPG,AFNE01.JPG,AFNE01.JPG,AFNE01.JPG,AFNE01.JPG,,,,,,,,,,,,,0,1,1,5,,,,,,,,,,,AMNE01.jpg,AMNE08.jpg,AMSA13.jpg,AMSA12.jpg,AMSA13.jpg,MS,2,num_2,32,num_8,0.833464569296,,,2017_Mar_29_1448,60.0182684843,FEMA4ImagesEEG,001,200098,
AFNE01.JPG,AFNE01.JPG,AFNE01.JPG,AFNE01.JPG,AFNE01.JPG,AFNE01.JPG,,,,,,,,,,,,,0,2,2,1,,,,,,,,,,,AMSA20.jpg,AMNE15.jpg,AMSA14.jpg,AMNE14.jpg,AMNE14.jpg,MN,1,num_4,16,num_4,0.833507548436,,,2017_Mar_29_1448,60.0182684843,FEMA4ImagesEEG,001,200098,
AFNE01.JPG,AFNE01.JPG,AFNE01.JPG,AFNE01.JPG,AFNE01.JPG,AFNE01.JPG,,,,,,,,,,,,,0,3,3,3,,,,,,,,,,,AMSA04.jpg,AMNE18.jpg,AMSA12.jpg,AMNE08.jpg,AMSA04.jpg,MS,2,num_8,16,num_8,0.833503058064,,,2017_Mar_29_1448,60.0182684843,FEMA4ImagesEEG,001,200098,
AFNE01.JPG,AFNE01.JPG,AFNE01.JPG,AFNE01.JPG,AFNE01.JPG,AFNE01.JPG,,,,,,,,,,,,,0,4,4,7,,,,,,,,,,,AMNE12.jpg,AMSA16.jpg,AMSA01.jpg,AMNE10.jpg,AMNE10.jpg,MN,1,num_4,16,num_4,0.733139114687,,,2017_Mar_29_1448,60.0182684843,FEMA4ImagesEEG,001,200098,
AFNE01.JPG,AFNE01.JPG,AFNE01.JPG,AFNE01.JPG,AFNE01.JPG,AFNE01.JPG,,,,,,,,,,,,,0,5,5,6,,,,,,,,,,,AMSA02.jpg,AMNE20.jpg,AMNE07.jpg,AMSA16.jpg,AMNE07.jpg,MN,1,num_2,16,num_2,0.58351051528,,,2017_Mar_29_1448,60.0182684843,FEMA4ImagesEEG,001,200098,
AFNE01.JPG,AFNE01.JPG,AFNE01.JPG,AFNE01.JPG,AFNE01.JPG,AFNE01.JPG,,,,,,,,,,,,,0,6,6,2,,,,,,,,,,,AMSA16.jpg,AMSA08.jpg,AMNE16.jpg,AMNE08.jpg,AMNE08.jpg,MN,1,num_4,32,num_6,0.616844351054,,,2017_Mar_29_1448,60.0182684843,FEMA4ImagesEEG,001,200098,
AFNE01.JPG,AFNE01.JPG,AFNE01.JPG,AFNE01.JPG,AFNE01.JPG,AFNE01.JPG,,,,,,,,,,,,,0,7,7,0,,,,,,,,,,,AMSA18.jpg,AMNE05.jpg,AMNE03.jpg,AMSA03.jpg,AMSA18.jpg,MS,2,num_8,16,num_8,0.500162133947,,,2017_Mar_29_1448,60.0182684843,FEMA4ImagesEEG,001,200098,
AFNE01.JPG,AFNE01.JPG,AFNE01.JPG,AFNE01.JPG,AFNE01.JPG,AFNE01.JPG,,,,,,,,,,,,,0,8,8,8,,,,,,,,,,,AMSA02.jpg,AMNE15.jpg,AMSA11.jpg,AMNE11.jpg,AMSA02.jpg,MS,2,num_8,16,num_8,0.866788141546,,,2017_Mar_29_1448,60.0182684843,FEMA4ImagesEEG,001,200098,
AFNE01.JPG,AFNE01.JPG,AFNE01.JPG,AFNE01.JPG,AFNE01.JPG,AFNE01.JPG,,,,,,,,,,,,,0,9,9,4,,,,,,,,,,,AMSA12.jpg,AMSA01.jpg,AMNE09.jpg,AMNE10.jpg,AMSA01.jpg,MS,2,num_6,16,num_6,0.866775311879,,,2017_Mar_29_1448,60.0182684843,FEMA4ImagesEEG,001,200098,
AFNE01.JPG,AFNE01.JPG,AFNE01.JPG,AFNE01.JPG,AFNE01.JPG,AFNE01.JPG,,,,,,,,,,,,,1,0,10,6,,,,,,,,,,,AMSA02.jpg,AMNE03.jpg,AMNE13.jpg,AMSA15.jpg,AMNE03.jpg,MN,1,num_6,32,num_8,1.11676304357,,,2017_Mar_29_1448,60.0182684843,FEMA4ImagesEEG,001,200098,
AFNE01.JPG,AFNE01.JPG,AFNE01.JPG,AFNE01.JPG,AFNE01.JPG,AFNE01.JPG,,,,,,,,,,,,,1,1,11,8,,,,,,,,,,,AMSA14.jpg,AMSA02.jpg,AMNE06.jpg,AMNE03.jpg,AMSA14.jpg,MS,2,num_8,16,num_8,0.600175829488,,,2017_Mar_29_1448,60.0182684843,FEMA4ImagesEEG,001,200098,
AFNE01.JPG,AFNE01.JPG,AFNE01.JPG,AFNE01.JPG,AFNE01.JPG,AFNE01.JPG,,,,,,,,,,,,,1,2,12,1,,,,,,,,,,,AMSA15.jpg,AMNE06.jpg,AMNE19.jpg,AMSA18.jpg,AMNE06.jpg,MN,1,num_6,16,num_6,0.716791974264,,,2017_Mar_29_1448,60.0182684843,FEMA4ImagesEEG,001,200098,
AFNE01.JPG,AFNE01.JPG,AFNE01.JPG,AFNE01.JPG,AFNE01.JPG,AFNE01.JPG,,,,,,,,,,,,,1,3,13,4,,,,,,,,,,,AMNE09.jpg,AMSA12.jpg,AMSA03.jpg,AMNE12.jpg,AMNE09.jpg,MN,1,num_8,16,num_8,0.733463061857,,,2017_Mar_29_1448,60.0182684843,FEMA4ImagesEEG,001,200098,
AFNE01.JPG,AFNE01.JPG,AFNE01.JPG,AFNE01.JPG,AFNE01.JPG,AFNE01.JPG,,,,,,,,,,,,,1,4,14,2,,,,,,,,,,,AMNE14.jpg,AMSA05.jpg,AMSA04.jpg,AMNE07.jpg,AMNE14.jpg,MN,1,num_8,16,num_8,1.00010937219,,,2017_Mar_29_1448,60.0182684843,FEMA4ImagesEEG,001,200098,
AFNE01.JPG,AFNE01.JPG,AFNE01.JPG,AFNE01.JPG,AFNE01.JPG,AFNE01.JPG,,,,,,,,,,,,,1,5,15,3,,,,,,,,,,,AMNE13.jpg,AMSA03.jpg,AMSA09.jpg,AMNE05.jpg,AMNE05.jpg,MN,1,num_4,32,num_8,1.35011079954,,,2017_Mar_29_1448,60.0182684843,FEMA4ImagesEEG,001,200098,
AFNE01.JPG,AFNE01.JPG,AFNE01.JPG,AFNE01.JPG,AFNE01.JPG,AFNE01.JPG,,,,,,,,,,,,,1,6,16,0,,,,,,,,,,,AMNE20.jpg,AMSA10.jpg,AMSA09.jpg,AMNE09.jpg,AMSA09.jpg,MS,2,num_2,16,num_2,0.616821578587,,,2017_Mar_29_1448,60.0182684843,FEMA4ImagesEEG,001,200098,
AFNE01.JPG,AFNE01.JPG,AFNE01.JPG,AFNE01.JPG,AFNE01.JPG,AFNE01.JPG,,,,,,,,,,,,,1,7,17,9,,,,,,,,,,,AMNE18.jpg,AMSA18.jpg,AMSA16.jpg,AMNE04.jpg,AMSA16.jpg,MS,2,num_2,16,num_2,1.00011001376,,,2017_Mar_29_1448,60.0182684843,FEMA4ImagesEEG,001,200098,
AFNE01.JPG,AFNE01.JPG,AFNE01.JPG,AFNE01.JPG,AFNE01.JPG,AFNE01.JPG,,,,,,,,,,,,,1,8,18,5,,,,,,,,,,,AMSA20.jpg,AMSA05.jpg,AMNE06.jpg,AMNE11.jpg,AMSA05.jpg,MS,2,num_6,16,num_6,0.95031517488,,,2017_Mar_29_1448,60.0182684843,FEMA4ImagesEEG,001,200098,
AFNE01.JPG,AFNE01.JPG,AFNE01.JPG,AFNE01.JPG,AFNE01.JPG,AFNE01.JPG,,,,,,,,,,,,,1,9,19,7,,,,,,,,,,,AMSA10.jpg,AMSA05.jpg,AMNE01.jpg,AMNE12.jpg,AMNE12.jpg,MN,1,num_4,32,num_6,0.916734048631,,,2017_Mar_29_1448,60.0182684843,FEMA4ImagesEEG,001,200098,
AFNE01.JPG,AFNE01.JPG,AFNE01.JPG,AFNE01.JPG,AFNE01.JPG,AFNE01.JPG,,,,,,,,,,,,,2,0,20,1,,,,,,,,,,,AMNE10.jpg,AMSA15.jpg,AMNE14.jpg,AMSA09.jpg,AMNE10.jpg,MN,1,num_8,16,num_8,0.533511686022,,,2017_Mar_29_1448,60.0182684843,FEMA4ImagesEEG,001,200098,
AFNE01.JPG,AFNE01.JPG,AFNE01.JPG,AFNE01.JPG,AFNE01.JPG,AFNE01.JPG,,,,,,,,,,,,,2,1,21,8,,,,,,,,,,,AMNE18.jpg,AMSA16.jpg,AMNE20.jpg,AMSA10.jpg,AMSA10.jpg,MS,2,num_4,16,num_4,1.21678058803,,,2017_Mar_29_1448,60.0182684843,FEMA4ImagesEEG,001,200098,
AFNE01.JPG,AFNE01.JPG,AFNE01.JPG,AFNE01.JPG,AFNE01.JPG,AFNE01.JPG,,,,,,,,,,,,,2,2,22,9,,,,,,,,,,,AMSA03.jpg,AMSA16.jpg,AMNE04.jpg,AMNE08.jpg,AMNE08.jpg,MN,1,num_4,32,num_6,1.15046733385,,,2017_Mar_29_1448,60.0182684843,FEMA4ImagesEEG,001,200098,
AFNE01.JPG,AFNE01.JPG,AFNE01.JPG,AFNE01.JPG,AFNE01.JPG,AFNE01.JPG,,,,,,,,,,,,,2,3,23,7,,,,,,,,,,,AMSA06.jpg,AMNE05.jpg,AMSA13.jpg,AMNE15.jpg,AMSA06.jpg,MS,2,num_8,16,num_8,0.516787355766,,,2017_Mar_29_1448,60.0182684843,FEMA4ImagesEEG,001,200098,
AFNE01.JPG,AFNE01.JPG,AFNE01.JPG,AFNE01.JPG,AFNE01.JPG,AFNE01.JPG,,,,,,,,,,,,,2,4,24,4,,,,,,,,,,,AMSA11.jpg,AMNE13.jpg,AMNE07.jpg,AMSA20.jpg,AMSA11.jpg,MS,2,num_8,32,num_4,0.716802238021,,,2017_Mar_29_1448,60.0182684843,FEMA4ImagesEEG,001,200098,
AFNE01.JPG,AFNE01.JPG,AFNE01.JPG,AFNE01.JPG,AFNE01.JPG,AFNE01.JPG,,,,,,,,,,,,,2,5,25,6,,,,,,,,,,,AMSA18.jpg,AMNE16.jpg,AMSA09.jpg,AMNE04.jpg,AMNE04.jpg,MN,1,num_4,16,num_4,1.03343230288,,,2017_Mar_29_1448,60.0182684843,FEMA4ImagesEEG,001,200098,
AFNE01.JPG,AFNE01.JPG,AFNE01.JPG,AFNE01.JPG,AFNE01.JPG,AFNE01.JPG,,,,,,,,,,,,,2,6,26,2,,,,,,,,,,,AMNE09.jpg,AMNE18.jpg,AMSA01.jpg,AMSA05.jpg,AMSA01.jpg,MS,2,num_2,16,num_2,1.71668997919,,,2017_Mar_29_1448,60.0182684843,FEMA4ImagesEEG,001,200098,
AFNE01.JPG,AFNE01.JPG,AFNE01.JPG,AFNE01.JPG,AFNE01.JPG,AFNE01.JPG,,,,,,,,,,,,,2,7,27,0,,,,,,,,,,,AMSA01.jpg,AMSA11.jpg,AMNE04.jpg,AMNE10.jpg,AMNE10.jpg,MN,1,num_4,16,num_4,0.750006494927,,,2017_Mar_29_1448,60.0182684843,FEMA4ImagesEEG,001,200098,
AFNE01.JPG,AFNE01.JPG,AFNE01.JPG,AFNE01.JPG,AFNE01.JPG,AFNE01.JPG,,,,,,,,,,,,,2,8,28,5,,,,,,,,,,,AMNE11.jpg,AMSA09.jpg,AMSA19.jpg,AMNE15.jpg,AMSA09.jpg,MS,2,num_6,16,num_6,0.683497268707,,,2017_Mar_29_1448,60.0182684843,FEMA4ImagesEEG,001,200098,
AFNE01.JPG,AFNE01.JPG,AFNE01.JPG,AFNE01.JPG,AFNE01.JPG,AFNE01.JPG,,,,,,,,,,,,,2,9,29,3,,,,,,,,,,,AMNE10.jpg,AMSA03.jpg,AMNE01.jpg,AMSA07.jpg,AMSA07.jpg,MS,2,num_4,16,num_4,0.483504196745,,,2017_Mar_29_1448,60.0182684843,FEMA4ImagesEEG,001,200098,
AFNE01.JPG,AFNE01.JPG,AFNE01.JPG,AFNE01.JPG,AFNE01.JPG,AFNE01.JPG,,,,,,,,,,,,,3,0,30,8,,,,,,,,,,,AMSA15.jpg,AMNE05.jpg,AMNE19.jpg,AMSA13.jpg,AMNE19.jpg,MN,1,num_2,32,num_6,1.23370762588,,,2017_Mar_29_1448,60.0182684843,FEMA4ImagesEEG,001,200098,
AFNE01.JPG,AFNE01.JPG,AFNE01.JPG,AFNE01.JPG,AFNE01.JPG,AFNE01.JPG,,,,,,,,,,,,,3,1,31,0,,,,,,,,,,,AMSA11.jpg,AMNE08.jpg,AMNE12.jpg,AMSA02.jpg,AMSA11.jpg,MS,2,num_8,16,num_8,0.933453888749,,,2017_Mar_29_1448,60.0182684843,FEMA4ImagesEEG,001,200098,
AFNE01.JPG,AFNE01.JPG,AFNE01.JPG,AFNE01.JPG,AFNE01.JPG,AFNE01.JPG,,,,,,,,,,,,,3,2,32,6,,,,,,,,,,,AMNE19.jpg,AMSA15.jpg,AMSA08.jpg,AMNE11.jpg,AMSA08.jpg,MS,2,num_2,32,num_4,0.666806936846,,,2017_Mar_29_1448,60.0182684843,FEMA4ImagesEEG,001,200098,
AFNE01.JPG,AFNE01.JPG,AFNE01.JPG,AFNE01.JPG,AFNE01.JPG,AFNE01.JPG,,,,,,,,,,,,,3,3,33,9,,,,,,,,,,,AMSA03.jpg,AMSA12.jpg,AMNE11.jpg,AMNE02.jpg,AMNE11.jpg,MN,1,num_2,16,num_2,1.10010029539,,,2017_Mar_29_1448,60.0182684843,FEMA4ImagesEEG,001,200098,
AFNE01.JPG,AFNE01.JPG,AFNE01.JPG,AFNE01.JPG,AFNE01.JPG,AFNE01.JPG,,,,,,,,,,,,,3,4,34,3,,,,,,,,,,,AMNE07.jpg,AMSA08.jpg,AMNE20.jpg,AMSA10.jpg,AMNE20.jpg,MN,1,num_2,16,num_2,1.21679887024,,,2017_Mar_29_1448,60.0182684843,FEMA4ImagesEEG,001,200098,
AFNE01.JPG,AFNE01.JPG,AFNE01.JPG,AFNE01.JPG,AFNE01.JPG,AFNE01.JPG,,,,,,,,,,,,,3,5,35,2,,,,,,,,,,,AMNE08.jpg,AMSA03.jpg,AMNE12.jpg,AMSA01.jpg,AMNE08.jpg,MN,1,num_8,16,num_8,0.683486684342,,,2017_Mar_29_1448,60.0182684843,FEMA4ImagesEEG,001,200098,
AFNE01.JPG,AFNE01.JPG,AFNE01.JPG,AFNE01.JPG,AFNE01.JPG,AFNE01.JPG,,,,,,,,,,,,,3,6,36,1,,,,,,,,,,,AMSA18.jpg,AMNE03.jpg,AMNE20.jpg,AMSA01.jpg,AMSA01.jpg,MS,2,num_4,16,num_4,0.583479403635,,,2017_Mar_29_1448,60.0182684843,FEMA4ImagesEEG,001,200098,
AFNE01.JPG,AFNE01.JPG,AFNE01.JPG,AFNE01.JPG,AFNE01.JPG,AFNE01.JPG,,,,,,,,,,,,,3,7,37,4,,,,,,,,,,,AMNE16.jpg,AMSA16.jpg,AMSA02.jpg,AMNE19.jpg,AMNE16.jpg,MN,1,num_8,16,num_8,0.80012367724,,,2017_Mar_29_1448,60.0182684843,FEMA4ImagesEEG,001,200098,
AFNE01.JPG,AFNE01.JPG,AFNE01.JPG,AFNE01.JPG,AFNE01.JPG,AFNE01.JPG,,,,,,,,,,,,,3,8,38,5,,,,,,,,,,,AMSA19.jpg,AMNE01.jpg,AMNE05.jpg,AMSA06.jpg,AMSA19.jpg,MS,2,num_8,32,num_4,0.833442117553,,,2017_Mar_29_1448,60.0182684843,FEMA4ImagesEEG,001,200098,
AFNE01.JPG,AFNE01.JPG,AFNE01.JPG,AFNE01.JPG,AFNE01.JPG,AFNE01.JPG,,,,,,,,,,,,,3,9,39,7,,,,,,,,,,,AMSA01.jpg,AMSA19.jpg,AMNE03.jpg,AMNE11.jpg,AMNE03.jpg,MN,1,num_2,32,num_8,1.21679085179,,,2017_Mar_29_1448,60.0182684843,FEMA4ImagesEEG,001,200098,
AFNE01.JPG,AFNE01.JPG,AFNE01.JPG,AFNE01.JPG,AFNE01.JPG,AFNE01.JPG,,,,,,,,,,,,,4,0,40,4,,,,,,,,,,,AMNE08.jpg,AMSA06.jpg,AMNE10.jpg,AMSA11.jpg,AMNE08.jpg,MN,1,num_8,16,num_8,0.766753277043,,,2017_Mar_29_1448,60.0182684843,FEMA4ImagesEEG,001,200098,
AFNE01.JPG,AFNE01.JPG,AFNE01.JPG,AFNE01.JPG,AFNE01.JPG,AFNE01.JPG,,,,,,,,,,,,,4,1,41,9,,,,,,,,,,,AMNE17.jpg,AMSA07.jpg,AMSA01.jpg,AMNE18.jpg,AMSA01.jpg,MS,2,num_2,16,num_2,1.11672712083,,,2017_Mar_29_1448,60.0182684843,FEMA4ImagesEEG,001,200098,
AFNE01.JPG,AFNE01.JPG,AFNE01.JPG,AFNE01.JPG,AFNE01.JPG,AFNE01.JPG,,,,,,,,,,,,,4,2,42,2,,,,,,,,,,,AMSA03.jpg,AMSA16.jpg,AMNE07.jpg,AMNE05.jpg,AMSA16.jpg,MS,2,num_6,16,num_6,0.8001426009,,,2017_Mar_29_1448,60.0182684843,FEMA4ImagesEEG,001,200098,
AFNE01.JPG,AFNE01.JPG,AFNE01.JPG,AFNE01.JPG,AFNE01.JPG,AFNE01.JPG,,,,,,,,,,,,,4,3,43,0,,,,,,,,,,,AMNE19.jpg,AMSA02.jpg,AMNE04.jpg,AMSA07.jpg,AMSA07.jpg,MS,2,num_4,16,num_4,0.516804354964,,,2017_Mar_29_1448,60.0182684843,FEMA4ImagesEEG,001,200098,
AFNE01.JPG,AFNE01.JPG,AFNE01.JPG,AFNE01.JPG,AFNE01.JPG,AFNE01.JPG,,,,,,,,,,,,,4,4,44,7,,,,,,,,,,,AMSA11.jpg,AMSA09.jpg,AMNE18.jpg,AMNE12.jpg,AMNE12.jpg,MN,1,num_4,16,num_4,1.00016069063,,,2017_Mar_29_1448,60.0182684843,FEMA4ImagesEEG,001,200098,
AFNE01.JPG,AFNE01.JPG,AFNE01.JPG,AFNE01.JPG,AFNE01.JPG,AFNE01.JPG,,,,,,,,,,,,,4,5,45,5,,,,,,,,,,,AMSA10.jpg,AMNE06.jpg,AMNE05.jpg,AMSA17.jpg,AMSA10.jpg,MS,2,num_8,16,num_8,0.767147786915,,,2017_Mar_29_1448,60.0182684843,FEMA4ImagesEEG,001,200098,
AFNE01.JPG,AFNE01.JPG,AFNE01.JPG,AFNE01.JPG,AFNE01.JPG,AFNE01.JPG,,,,,,,,,,,,,4,6,46,8,,,,,,,,,,,AMNE06.jpg,AMSA02.jpg,AMNE02.jpg,AMSA19.jpg,AMSA19.jpg,MS,2,num_4,16,num_4,0.700138206827,,,2017_Mar_29_1448,60.0182684843,FEMA4ImagesEEG,001,200098,
AFNE01.JPG,AFNE01.JPG,AFNE01.JPG,AFNE01.JPG,AFNE01.JPG,AFNE01.JPG,,,,,,,,,,,,,4,7,47,6,,,,,,,,,,,AMNE06.jpg,AMSA11.jpg,AMNE20.jpg,AMSA02.jpg,AMNE06.jpg,MN,1,num_8,32,num_6,0.816795406165,,,2017_Mar_29_1448,60.0182684843,FEMA4ImagesEEG,001,200098,
AFNE01.JPG,AFNE01.JPG,AFNE01.JPG,AFNE01.JPG,AFNE01.JPG,AFNE01.JPG,,,,,,,,,,,,,4,8,48,3,,,,,,,,,,,AMNE08.jpg,AMSA05.jpg,AMNE04.jpg,AMSA04.jpg,AMNE04.jpg,MN,1,num_2,32,num_4,0.783490436967,,,2017_Mar_29_1448,60.0182684843,FEMA4ImagesEEG,001,200098,
AFNE01.JPG,AFNE01.JPG,AFNE01.JPG,AFNE01.JPG,AFNE01.JPG,AFNE01.JPG,,,,,,,,,,,,,4,9,49,1,,,,,,,,,,,AMSA06.jpg,AMNE18.jpg,AMNE08.jpg,AMSA17.jpg,AMSA06.jpg,MS,2,num_8,16,num_8,0.666775504244,,,2017_Mar_29_1448,60.0182684843,FEMA4ImagesEEG,001,200098,
AFNE01.JPG,AFNE01.JPG,AFNE01.JPG,AFNE01.JPG,AFNE01.JPG,AFNE01.JPG,,,,,,,,,,,,,5,0,50,9,,,,,,,,,,,AMNE12.jpg,AMSA13.jpg,AMSA02.jpg,AMNE18.jpg,AMSA13.jpg,MS,2,num_6,32,num_4,1.23346129782,,,2017_Mar_29_1448,60.0182684843,FEMA4ImagesEEG,001,200098,
AFNE01.JPG,AFNE01.JPG,AFNE01.JPG,AFNE01.JPG,AFNE01.JPG,AFNE01.JPG,,,,,,,,,,,,,5,1,51,6,,,,,,,,,,,AMNE02.jpg,AMSA02.jpg,AMSA03.jpg,AMNE19.jpg,AMNE19.jpg,MN,1,num_4,16,num_4,0.966761744581,,,2017_Mar_29_1448,60.0182684843,FEMA4ImagesEEG,001,200098,
AFNE01.JPG,AFNE01.JPG,AFNE01.JPG,AFNE01.JPG,AFNE01.JPG,AFNE01.JPG,,,,,,,,,,,,,5,2,52,0,,,,,,,,,,,AMSA17.jpg,AMNE07.jpg,AMNE18.jpg,AMSA10.jpg,AMNE18.jpg,MN,1,num_2,16,num_2,0.666801163577,,,2017_Mar_29_1448,60.0182684843,FEMA4ImagesEEG,001,200098,
AFNE01.JPG,AFNE01.JPG,AFNE01.JPG,AFNE01.JPG,AFNE01.JPG,AFNE01.JPG,,,,,,,,,,,,,5,3,53,4,,,,,,,,,,,AMSA05.jpg,AMNE20.jpg,AMNE01.jpg,AMSA15.jpg,AMSA15.jpg,MS,2,num_4,16,num_4,0.500199660426,,,2017_Mar_29_1448,60.0182684843,FEMA4ImagesEEG,001,200098,
AFNE01.JPG,AFNE01.JPG,AFNE01.JPG,AFNE01.JPG,AFNE01.JPG,AFNE01.JPG,,,,,,,,,,,,,5,4,54,3,,,,,,,,,,,AMSA09.jpg,AMNE10.jpg,AMNE02.jpg,AMSA05.jpg,AMNE02.jpg,MN,1,num_2,16,num_2,1.20011623611,,,2017_Mar_29_1448,60.0182684843,FEMA4ImagesEEG,001,200098,
AFNE01.JPG,AFNE01.JPG,AFNE01.JPG,AFNE01.JPG,AFNE01.JPG,AFNE01.JPG,,,,,,,,,,,,,5,5,55,7,,,,,,,,,,,AMNE02.jpg,AMNE07.jpg,AMSA20.jpg,AMSA06.jpg,AMNE02.jpg,MN,1,num_8,16,num_8,0.533516497118,,,2017_Mar_29_1448,60.0182684843,FEMA4ImagesEEG,001,200098,
AFNE01.JPG,AFNE01.JPG,AFNE01.JPG,AFNE01.JPG,AFNE01.JPG,AFNE01.JPG,,,,,,,,,,,,,5,6,56,8,,,,,,,,,,,AMSA17.jpg,AMSA14.jpg,AMNE02.jpg,AMNE14.jpg,AMNE14.jpg,MN,1,num_4,16,num_4,0.633474704693,,,2017_Mar_29_1448,60.0182684843,FEMA4ImagesEEG,001,200098,
AFNE01.JPG,AFNE01.JPG,AFNE01.JPG,AFNE01.JPG,AFNE01.JPG,AFNE01.JPG,,,,,,,,,,,,,5,7,57,2,,,,,,,,,,,AMNE04.jpg,AMSA19.jpg,AMNE13.jpg,AMSA05.jpg,AMNE04.jpg,MN,1,num_8,16,num_8,0.883437098004,,,2017_Mar_29_1448,60.0182684843,FEMA4ImagesEEG,001,200098,
AFNE01.JPG,AFNE01.JPG,AFNE01.JPG,AFNE01.JPG,AFNE01.JPG,AFNE01.JPG,,,,,,,,,,,,,5,8,58,5,,,,,,,,,,,AMNE04.jpg,AMSA16.jpg,AMSA06.jpg,AMNE19.jpg,AMNE04.jpg,MN,1,num_8,32,num_2,0.800153505988,,,2017_Mar_29_1448,60.0182684843,FEMA4ImagesEEG,001,200098,
AFNE01.JPG,AFNE01.JPG,AFNE01.JPG,AFNE01.JPG,AFNE01.JPG,AFNE01.JPG,,,,,,,,,,,,,5,9,59,1,,,,,,,,,,,AMSA05.jpg,AMNE14.jpg,AMNE12.jpg,AMSA19.jpg,AMNE12.jpg,MN,1,num_2,16,num_2,0.966781309689,,,2017_Mar_29_1448,60.0182684843,FEMA4ImagesEEG,001,200098,
,,,,,,,,,,,,,,,,,,,,,,,,,,,,,,,,,,,,,,,,,,,space,6.13300433988,2017_Mar_29_1448,60.0182684843,FEMA4ImagesEEG,001,200098,
AFNE01.JPG,AFNE01.JPG,AFNE01.JPG,AFNE01.JPG,AFNE01.JPG,AFNE01.JPG,,,,,,,,,,,,,,,,,0,0,0,9,,,,,,,AFSA18.jpg,AFSA05.jpg,AFNE05.jpg,AFNE11.jpg,AFSA18.jpg,FS,4,num_8,32,num_6,0.766789520625,,,2017_Mar_29_1448,60.0182684843,FEMA4ImagesEEG,001,200098,
AFNE01.JPG,AFNE01.JPG,AFNE01.JPG,AFNE01.JPG,AFNE01.JPG,AFNE01.JPG,,,,,,,,,,,,,,,,,0,1,1,8,,,,,,,AFNE05.jpg,AFSA17.jpg,AFSA14.jpg,AFNE17.jpg,AFNE05.jpg,FN,3,num_8,16,num_8,0.650134245632,,,2017_Mar_29_1448,60.0182684843,FEMA4ImagesEEG,001,200098,
AFNE01.JPG,AFNE01.JPG,AFNE01.JPG,AFNE01.JPG,AFNE01.JPG,AFNE01.JPG,,,,,,,,,,,,,,,,,0,2,2,0,,,,,,,AFSA05.jpg,AFNE15.jpg,AFNE04.jpg,AFSA04.jpg,AFSA04.jpg,FS,4,num_4,16,num_4,0.933486283408,,,2017_Mar_29_1448,60.0182684843,FEMA4ImagesEEG,001,200098,
AFNE01.JPG,AFNE01.JPG,AFNE01.JPG,AFNE01.JPG,AFNE01.JPG,AFNE01.JPG,,,,,,,,,,,,,,,,,0,3,3,7,,,,,,,AFNE10.jpg,AFSA16.jpg,AFSA12.jpg,AFNE13.jpg,AFNE10.jpg,FN,3,num_8,16,num_8,0.983456246206,,,2017_Mar_29_1448,60.0182684843,FEMA4ImagesEEG,001,200098,
AFNE01.JPG,AFNE01.JPG,AFNE01.JPG,AFNE01.JPG,AFNE01.JPG,AFNE01.JPG,,,,,,,,,,,,,,,,,0,4,4,2,,,,,,,AFSA09.jpg,AFSA04.jpg,AFNE08.jpg,AFNE05.jpg,AFSA09.jpg,FS,4,num_8,16,num_8,0.866803216166,,,2017_Mar_29_1448,60.0182684843,FEMA4ImagesEEG,001,200098,
AFNE01.JPG,AFNE01.JPG,AFNE01.JPG,AFNE01.JPG,AFNE01.JPG,AFNE01.JPG,,,,,,,,,,,,,,,,,0,5,5,5,,,,,,,AFSA01.jpg,AFNE20.jpg,AFNE07.jpg,AFSA06.jpg,AFNE07.jpg,FN,3,num_2,16,num_2,0.683569114422,,,2017_Mar_29_1448,60.0182684843,FEMA4ImagesEEG,001,200098,
AFNE01.JPG,AFNE01.JPG,AFNE01.JPG,AFNE01.JPG,AFNE01.JPG,AFNE01.JPG,,,,,,,,,,,,,,,,,0,6,6,1,,,,,,,AFNE10.jpg,AFSA09.jpg,AFSA19.jpg,AFNE16.jpg,AFNE10.jpg,FN,3,num_8,32,num_6,0.80017692002,,,2017_Mar_29_1448,60.0182684843,FEMA4ImagesEEG,001,200098,
AFNE01.JPG,AFNE01.JPG,AFNE01.JPG,AFNE01.JPG,AFNE01.JPG,AFNE01.JPG,,,,,,,,,,,,,,,,,0,7,7,4,,,,,,,AFNE18.jpg,AFNE08.jpg,AFSA04.jpg,AFSA19.jpg,AFNE08.jpg,FN,3,num_6,16,num_6,2.05004020478,,,2017_Mar_29_1448,60.0182684843,FEMA4ImagesEEG,001,200098,
AFNE01.JPG,AFNE01.JPG,AFNE01.JPG,AFNE01.JPG,AFNE01.JPG,AFNE01.JPG,,,,,,,,,,,,,,,,,0,8,8,6,,,,,,,AFNE03.jpg,AFNE05.jpg,AFSA08.jpg,AFSA16.jpg,AFNE03.jpg,FN,3,num_8,32,num_6,0.700142055517,,,2017_Mar_29_1448,60.0182684843,FEMA4ImagesEEG,001,200098,
AFNE01.JPG,AFNE01.JPG,AFNE01.JPG,AFNE01.JPG,AFNE01.JPG,AFNE01.JPG,,,,,,,,,,,,,,,,,0,9,9,3,,,,,,,AFSA12.jpg,AFSA08.jpg,AFNE05.jpg,AFNE15.jpg,AFNE05.jpg,FN,3,num_2,32,num_6,0.74983169185,,,2017_Mar_29_1448,60.0182684843,FEMA4ImagesEEG,001,200098,
AFNE01.JPG,AFNE01.JPG,AFNE01.JPG,AFNE01.JPG,AFNE01.JPG,AFNE01.JPG,,,,,,,,,,,,,,,,,1,0,10,9,,,,,,,AFSA10.jpg,AFNE04.jpg,AFNE20.jpg,AFSA15.jpg,AFNE20.jpg,FN,3,num_2,32,num_8,0.800138110528,,,2017_Mar_29_1448,60.0182684843,FEMA4ImagesEEG,001,200098,
AFNE01.JPG,AFNE01.JPG,AFNE01.JPG,AFNE01.JPG,AFNE01.JPG,AFNE01.JPG,,,,,,,,,,,,,,,,,1,1,11,5,,,,,,,AFNE13.jpg,AFSA01.jpg,AFNE14.jpg,AFSA12.jpg,AFNE14.jpg,FN,3,num_2,16,num_2,0.933450681274,,,2017_Mar_29_1448,60.0182684843,FEMA4ImagesEEG,001,200098,
AFNE01.JPG,AFNE01.JPG,AFNE01.JPG,AFNE01.JPG,AFNE01.JPG,AFNE01.JPG,,,,,,,,,,,,,,,,,1,2,12,3,,,,,,,AFSA16.jpg,AFNE04.jpg,AFNE10.jpg,AFSA20.jpg,AFNE10.jpg,FN,3,num_2,16,num_2,1.03344673617,,,2017_Mar_29_1448,60.0182684843,FEMA4ImagesEEG,001,200098,
AFNE01.JPG,AFNE01.JPG,AFNE01.JPG,AFNE01.JPG,AFNE01.JPG,AFNE01.JPG,,,,,,,,,,,,,,,,,1,3,13,4,,,,,,,AFNE19.jpg,AFNE04.jpg,AFSA17.jpg,AFSA15.jpg,AFNE04.jpg,FN,3,num_6,16,num_6,0.983438284718,,,2017_Mar_29_1448,60.0182684843,FEMA4ImagesEEG,001,200098,
AFNE01.JPG,AFNE01.JPG,AFNE01.JPG,AFNE01.JPG,AFNE01.JPG,AFNE01.JPG,,,,,,,,,,,,,,,,,1,4,14,1,,,,,,,AFSA20.jpg,AFSA07.jpg,AFNE17.jpg,AFNE05.jpg,AFNE05.jpg,FN,3,num_4,32,num_2,0.533529005945,,,2017_Mar_29_1448,60.0182684843,FEMA4ImagesEEG,001,200098,
AFNE01.JPG,AFNE01.JPG,AFNE01.JPG,AFNE01.JPG,AFNE01.JPG,AFNE01.JPG,,,,,,,,,,,,,,,,,1,5,15,6,,,,,,,AFNE14.jpg,AFNE08.jpg,AFSA15.jpg,AFSA03.jpg,AFNE14.jpg,FN,3,num_8,16,num_8,0.833303557942,,,2017_Mar_29_1448,60.0182684843,FEMA4ImagesEEG,001,200098,
AFNE01.JPG,AFNE01.JPG,AFNE01.JPG,AFNE01.JPG,AFNE01.JPG,AFNE01.JPG,,,,,,,,,,,,,,,,,1,6,16,7,,,,,,,AFSA11.jpg,AFNE08.jpg,AFSA06.jpg,AFNE01.jpg,AFSA06.jpg,FS,4,num_2,16,num_2,1.08352061862,,,2017_Mar_29_1448,60.0182684843,FEMA4ImagesEEG,001,200098,
AFNE01.JPG,AFNE01.JPG,AFNE01.JPG,AFNE01.JPG,AFNE01.JPG,AFNE01.JPG,,,,,,,,,,,,,,,,,1,7,17,8,,,,,,,AFSA09.jpg,AFSA14.jpg,AFNE12.jpg,AFNE03.jpg,AFNE12.jpg,FN,3,num_2,16,num_2,0.416798036313,,,2017_Mar_29_1448,60.0182684843,FEMA4ImagesEEG,001,200098,
AFNE01.JPG,AFNE01.JPG,AFNE01.JPG,AFNE01.JPG,AFNE01.JPG,AFNE01.JPG,,,,,,,,,,,,,,,,,1,8,18,0,,,,,,,AFSA15.jpg,AFSA02.jpg,AFNE19.jpg,AFNE03.jpg,AFSA02.jpg,FS,4,num_6,16,num_6,0.883463719394,,,2017_Mar_29_1448,60.0182684843,FEMA4ImagesEEG,001,200098,
AFNE01.JPG,AFNE01.JPG,AFNE01.JPG,AFNE01.JPG,AFNE01.JPG,AFNE01.JPG,,,,,,,,,,,,,,,,,1,9,19,2,,,,,,,AFSA15.jpg,AFNE04.jpg,AFNE11.jpg,AFSA19.jpg,AFNE11.jpg,FN,3,num_2,16,num_2,0.983438605443,,,2017_Mar_29_1448,60.0182684843,FEMA4ImagesEEG,001,200098,
AFNE01.JPG,AFNE01.JPG,AFNE01.JPG,AFNE01.JPG,AFNE01.JPG,AFNE01.JPG,,,,,,,,,,,,,,,,,2,0,20,6,,,,,,,AFSA18.jpg,AFSA16.jpg,AFNE01.jpg,AFNE12.jpg,AFSA18.jpg,FS,4,num_8,16,num_8,0.850125713856,,,2017_Mar_29_1448,60.0182684843,FEMA4ImagesEEG,001,200098,
AFNE01.JPG,AFNE01.JPG,AFNE01.JPG,AFNE01.JPG,AFNE01.JPG,AFNE01.JPG,,,,,,,,,,,,,,,,,2,1,21,7,,,,,,,AFNE18.jpg,AFSA02.jpg,AFSA19.jpg,AFNE13.jpg,AFNE18.jpg,FN,3,num_8,32,num_4,1.00013759744,,,2017_Mar_29_1448,60.0182684843,FEMA4ImagesEEG,001,200098,
AFNE01.JPG,AFNE01.JPG,AFNE01.JPG,AFNE01.JPG,AFNE01.JPG,AFNE01.JPG,,,,,,,,,,,,,,,,,2,2,22,1,,,,,,,AFNE11.jpg,AFNE07.jpg,AFSA04.jpg,AFSA15.jpg,AFNE11.jpg,FN,3,num_8,16,num_8,0.683466477785,,,2017_Mar_29_1448,60.0182684843,FEMA4ImagesEEG,001,200098,
AFNE01.JPG,AFNE01.JPG,AFNE01.JPG,AFNE01.JPG,AFNE01.JPG,AFNE01.JPG,,,,,,,,,,,,,,,,,2,3,23,0,,,,,,,AFSA03.jpg,AFSA10.jpg,AFNE02.jpg,AFNE06.jpg,AFNE02.jpg,FN,3,num_2,32,num_4,0.866802895442,,,2017_Mar_29_1448,60.0182684843,FEMA4ImagesEEG,001,200098,
AFNE01.JPG,AFNE01.JPG,AFNE01.JPG,AFNE01.JPG,AFNE01.JPG,AFNE01.JPG,,,,,,,,,,,,,,,,,2,4,24,5,,,,,,,AFNE13.jpg,AFSA01.jpg,AFSA11.jpg,AFNE17.jpg,AFNE13.jpg,FN,3,num_8,16,num_8,0.633482402423,,,2017_Mar_29_1448,60.0182684843,FEMA4ImagesEEG,001,200098,
AFNE01.JPG,AFNE01.JPG,AFNE01.JPG,AFNE01.JPG,AFNE01.JPG,AFNE01.JPG,,,,,,,,,,,,,,,,,2,5,25,9,,,,,,,AFNE08.jpg,AFNE03.jpg,AFSA13.jpg,AFSA06.jpg,AFSA13.jpg,FS,4,num_2,16,num_2,1.00017031271,,,2017_Mar_29_1448,60.0182684843,FEMA4ImagesEEG,001,200098,
AFNE01.JPG,AFNE01.JPG,AFNE01.JPG,AFNE01.JPG,AFNE01.JPG,AFNE01.JPG,,,,,,,,,,,,,,,,,2,6,26,8,,,,,,,AFNE19.jpg,AFNE11.jpg,AFSA14.jpg,AFSA03.jpg,AFSA03.jpg,FS,4,num_4,16,num_4,0.600146000739,,,2017_Mar_29_1448,60.0182684843,FEMA4ImagesEEG,001,200098,
AFNE01.JPG,AFNE01.JPG,AFNE01.JPG,AFNE01.JPG,AFNE01.JPG,AFNE01.JPG,,,,,,,,,,,,,,,,,2,7,27,3,,,,,,,AFNE09.jpg,AFSA16.jpg,AFSA20.jpg,AFNE04.jpg,AFSA20.jpg,FS,4,num_2,32,num_8,0.783450986026,,,2017_Mar_29_1448,60.0182684843,FEMA4ImagesEEG,001,200098,
AFNE01.JPG,AFNE01.JPG,AFNE01.JPG,AFNE01.JPG,AFNE01.JPG,AFNE01.JPG,,,,,,,,,,,,,,,,,2,8,28,2,,,,,,,AFSA01.jpg,AFSA09.jpg,AFNE15.jpg,AFNE19.jpg,AFSA01.jpg,FS,4,num_8,32,num_6,1.43342967285,,,2017_Mar_29_1448,60.0182684843,FEMA4ImagesEEG,001,200098,
AFNE01.JPG,AFNE01.JPG,AFNE01.JPG,AFNE01.JPG,AFNE01.JPG,AFNE01.JPG,,,,,,,,,,,,,,,,,2,9,29,4,,,,,,,AFNE15.jpg,AFSA11.jpg,AFNE04.jpg,AFSA02.jpg,AFNE04.jpg,FN,3,num_2,16,num_2,0.916808781098,,,2017_Mar_29_1448,60.0182684843,FEMA4ImagesEEG,001,200098,
AFNE01.JPG,AFNE01.JPG,AFNE01.JPG,AFNE01.JPG,AFNE01.JPG,AFNE01.JPG,,,,,,,,,,,,,,,,,3,0,30,6,,,,,,,AFNE19.jpg,AFSA17.jpg,AFNE02.jpg,AFSA07.jpg,AFNE02.jpg,FN,3,num_2,32,num_6,0.816790915909,,,2017_Mar_29_1448,60.0182684843,FEMA4ImagesEEG,001,200098,
AFNE01.JPG,AFNE01.JPG,AFNE01.JPG,AFNE01.JPG,AFNE01.JPG,AFNE01.JPG,,,,,,,,,,,,,,,,,3,1,31,9,,,,,,,AFNE01.jpg,AFSA17.jpg,AFNE20.jpg,AFSA01.jpg,AFSA01.jpg,FS,4,num_4,16,num_4,0.716820199392,,,2017_Mar_29_1448,60.0182684843,FEMA4ImagesEEG,001,200098,
AFNE01.JPG,AFNE01.JPG,AFNE01.JPG,AFNE01.JPG,AFNE01.JPG,AFNE01.JPG,,,,,,,,,,,,,,,,,3,2,32,7,,,,,,,AFSA08.jpg,AFNE06.jpg,AFSA20.jpg,AFNE18.jpg,AFNE18.jpg,FN,3,num_4,32,num_2,1.13340141566,,,2017_Mar_29_1448,60.0182684843,FEMA4ImagesEEG,001,200098,
AFNE01.JPG,AFNE01.JPG,AFNE01.JPG,AFNE01.JPG,AFNE01.JPG,AFNE01.JPG,,,,,,,,,,,,,,,,,3,3,33,2,,,,,,,AFSA16.jpg,AFNE01.jpg,AFSA12.jpg,AFNE15.jpg,AFSA12.jpg,FS,4,num_2,16,num_2,0.749991740915,,,2017_Mar_29_1448,60.0182684843,FEMA4ImagesEEG,001,200098,
AFNE01.JPG,AFNE01.JPG,AFNE01.JPG,AFNE01.JPG,AFNE01.JPG,AFNE01.JPG,,,,,,,,,,,,,,,,,3,4,34,3,,,,,,,AFSA05.jpg,AFNE14.jpg,AFNE16.jpg,AFSA16.jpg,AFSA16.jpg,FS,4,num_4,16,num_4,0.750153072993,,,2017_Mar_29_1448,60.0182684843,FEMA4ImagesEEG,001,200098,
AFNE01.JPG,AFNE01.JPG,AFNE01.JPG,AFNE01.JPG,AFNE01.JPG,AFNE01.JPG,,,,,,,,,,,,,,,,,3,5,35,4,,,,,,,AFSA13.jpg,AFSA20.jpg,AFNE20.jpg,AFNE14.jpg,AFNE20.jpg,FN,3,num_2,32,num_6,0.850094281486,,,2017_Mar_29_1448,60.0182684843,FEMA4ImagesEEG,001,200098,
AFNE01.JPG,AFNE01.JPG,AFNE01.JPG,AFNE01.JPG,AFNE01.JPG,AFNE01.JPG,,,,,,,,,,,,,,,,,3,6,36,5,,,,,,,AFNE17.jpg,AFSA15.jpg,AFSA03.jpg,AFNE03.jpg,AFNE17.jpg,FN,3,num_8,16,num_8,0.816855705343,,,2017_Mar_29_1448,60.0182684843,FEMA4ImagesEEG,001,200098,
AFNE01.JPG,AFNE01.JPG,AFNE01.JPG,AFNE01.JPG,AFNE01.JPG,AFNE01.JPG,,,,,,,,,,,,,,,,,3,7,37,1,,,,,,,AFNE10.jpg,AFNE18.jpg,AFSA14.jpg,AFSA13.jpg,AFSA13.jpg,FS,4,num_4,32,num_2,0.883483605227,,,2017_Mar_29_1448,60.0182684843,FEMA4ImagesEEG,001,200098,
AFNE01.JPG,AFNE01.JPG,AFNE01.JPG,AFNE01.JPG,AFNE01.JPG,AFNE01.JPG,,,,,,,,,,,,,,,,,3,8,38,8,,,,,,,AFSA02.jpg,AFSA12.jpg,AFNE11.jpg,AFNE19.jpg,AFSA12.jpg,FS,4,num_6,16,num_6,0.450159455766,,,2017_Mar_29_1448,60.0182684843,FEMA4ImagesEEG,001,200098,
AFNE01.JPG,AFNE01.JPG,AFNE01.JPG,AFNE01.JPG,AFNE01.JPG,AFNE01.JPG,,,,,,,,,,,,,,,,,3,9,39,0,,,,,,,AFSA01.jpg,AFNE04.jpg,AFNE09.jpg,AFSA19.jpg,AFSA01.jpg,FS,4,num_8,16,num_8,0.733529775753,,,2017_Mar_29_1448,60.0182684843,FEMA4ImagesEEG,001,200098,
AFNE01.JPG,AFNE01.JPG,AFNE01.JPG,AFNE01.JPG,AFNE01.JPG,AFNE01.JPG,,,,,,,,,,,,,,,,,4,0,40,6,,,,,,,AFNE02.jpg,AFNE14.jpg,AFSA05.jpg,AFSA14.jpg,AFNE14.jpg,FN,3,num_6,16,num_6,0.916758424952,,,2017_Mar_29_1448,60.0182684843,FEMA4ImagesEEG,001,200098,
AFNE01.JPG,AFNE01.JPG,AFNE01.JPG,AFNE01.JPG,AFNE01.JPG,AFNE01.JPG,,,,,,,,,,,,,,,,,4,1,41,3,,,,,,,AFSA07.jpg,AFSA09.jpg,AFNE09.jpg,AFNE01.jpg,AFNE01.jpg,FN,3,num_4,32,num_2,0.716752523324,,,2017_Mar_29_1448,60.0182684843,FEMA4ImagesEEG,001,200098,
AFNE01.JPG,AFNE01.JPG,AFNE01.JPG,AFNE01.JPG,AFNE01.JPG,AFNE01.JPG,,,,,,,,,,,,,,,,,4,2,42,5,,,,,,,AFNE09.jpg,AFSA10.jpg,AFNE14.jpg,AFSA18.jpg,AFNE09.jpg,FN,3,num_8,16,num_8,1.1500112419,,,2017_Mar_29_1448,60.0182684843,FEMA4ImagesEEG,001,200098,
AFNE01.JPG,AFNE01.JPG,AFNE01.JPG,AFNE01.JPG,AFNE01.JPG,AFNE01.JPG,,,,,,,,,,,,,,,,,4,3,43,1,,,,,,,AFNE12.jpg,AFNE16.jpg,AFSA10.jpg,AFSA08.jpg,AFNE12.jpg,FN,3,num_8,16,num_8,1.266586332,,,2017_Mar_29_1448,60.0182684843,FEMA4ImagesEEG,001,200098,
AFNE01.JPG,AFNE01.JPG,AFNE01.JPG,AFNE01.JPG,AFNE01.JPG,AFNE01.JPG,,,,,,,,,,,,,,,,,4,4,44,9,,,,,,,AFNE18.jpg,AFNE13.jpg,AFSA06.jpg,AFSA13.jpg,AFSA06.jpg,FS,4,num_2,32,num_6,0.666635982576,,,2017_Mar_29_1448,60.0182684843,FEMA4ImagesEEG,001,200098,
AFNE01.JPG,AFNE01.JPG,AFNE01.JPG,AFNE01.JPG,AFNE01.JPG,AFNE01.JPG,,,,,,,,,,,,,,,,,4,5,45,8,,,,,,,AFSA17.jpg,AFSA09.jpg,AFNE09.jpg,AFNE15.jpg,AFSA17.jpg,FS,4,num_8,16,num_8,0.666514742887,,,2017_Mar_29_1448,60.0182684843,FEMA4ImagesEEG,001,200098,
AFNE01.JPG,AFNE01.JPG,AFNE01.JPG,AFNE01.JPG,AFNE01.JPG,AFNE01.JPG,,,,,,,,,,,,,,,,,4,6,46,0,,,,,,,AFSA07.jpg,AFSA19.jpg,AFNE05.jpg,AFNE13.jpg,AFSA19.jpg,FS,4,num_6,16,num_6,0.533500780817,,,2017_Mar_29_1448,60.0182684843,FEMA4ImagesEEG,001,200098,
AFNE01.JPG,AFNE01.JPG,AFNE01.JPG,AFNE01.JPG,AFNE01.JPG,AFNE01.JPG,,,,,,,,,,,,,,,,,4,7,47,7,,,,,,,AFSA07.jpg,AFNE07.jpg,AFNE02.jpg,AFSA14.jpg,AFNE07.jpg,FN,3,num_6,32,num_8,1.00009942928,,,2017_Mar_29_1448,60.0182684843,FEMA4ImagesEEG,001,200098,
AFNE01.JPG,AFNE01.JPG,AFNE01.JPG,AFNE01.JPG,AFNE01.JPG,AFNE01.JPG,,,,,,,,,,,,,,,,,4,8,48,4,,,,,,,AFNE08.jpg,AFNE10.jpg,AFSA07.jpg,AFSA12.jpg,AFSA12.jpg,FS,4,num_4,16,num_4,0.583487421973,,,2017_Mar_29_1448,60.0182684843,FEMA4ImagesEEG,001,200098,
AFNE01.JPG,AFNE01.JPG,AFNE01.JPG,AFNE01.JPG,AFNE01.JPG,AFNE01.JPG,,,,,,,,,,,,,,,,,4,9,49,2,,,,,,,AFSA02.jpg,AFNE20.jpg,AFSA08.jpg,AFNE16.jpg,AFSA02.jpg,FS,4,num_8,16,num_8,0.683494382072,,,2017_Mar_29_1448,60.0182684843,FEMA4ImagesEEG,001,200098,
AFNE01.JPG,AFNE01.JPG,AFNE01.JPG,AFNE01.JPG,AFNE01.JPG,AFNE01.JPG,,,,,,,,,,,,,,,,,5,0,50,5,,,,,,,AFSA16.jpg,AFNE12.jpg,AFNE06.jpg,AFSA08.jpg,AFNE06.jpg,FN,3,num_2,16,num_2,1.20012168866,,,2017_Mar_29_1448,60.0182684843,FEMA4ImagesEEG,001,200098,
AFNE01.JPG,AFNE01.JPG,AFNE01.JPG,AFNE01.JPG,AFNE01.JPG,AFNE01.JPG,,,,,,,,,,,,,,,,,5,1,51,3,,,,,,,AFNE15.jpg,AFSA02.jpg,AFNE12.jpg,AFSA20.jpg,AFNE15.jpg,FN,3,num_8,16,num_8,0.666793465731,,,2017_Mar_29_1448,60.0182684843,FEMA4ImagesEEG,001,200098,
AFNE01.JPG,AFNE01.JPG,AFNE01.JPG,AFNE01.JPG,AFNE01.JPG,AFNE01.JPG,,,,,,,,,,,,,,,,,5,2,52,6,,,,,,,AFSA19.jpg,AFNE20.jpg,AFNE11.jpg,AFSA13.jpg,AFSA13.jpg,FS,4,num_4,16,num_4,1.16674519447,,,2017_Mar_29_1448,60.0182684843,FEMA4ImagesEEG,001,200098,
AFNE01.JPG,AFNE01.JPG,AFNE01.JPG,AFNE01.JPG,AFNE01.JPG,AFNE01.JPG,,,,,,,,,,,,,,,,,5,3,53,4,,,,,,,AFNE12.jpg,AFNE02.jpg,AFSA11.jpg,AFSA10.jpg,AFNE02.jpg,FN,3,num_6,32,num_4,2.41664664715,,,2017_Mar_29_1448,60.0182684843,FEMA4ImagesEEG,001,200098,
AFNE01.JPG,AFNE01.JPG,AFNE01.JPG,AFNE01.JPG,AFNE01.JPG,AFNE01.JPG,,,,,,,,,,,,,,,,,5,4,54,0,,,,,,,AFSA02.jpg,AFSA20.jpg,AFNE09.jpg,AFNE06.jpg,AFNE06.jpg,FN,3,num_4,32,num_6,1.01681189227,,,2017_Mar_29_1448,60.0182684843,FEMA4ImagesEEG,001,200098,
AFNE01.JPG,AFNE01.JPG,AFNE01.JPG,AFNE01.JPG,AFNE01.JPG,AFNE01.JPG,,,,,,,,,,,,,,,,,5,5,55,2,,,,,,,AFNE02.jpg,AFSA16.jpg,AFSA13.jpg,AFNE03.jpg,AFSA16.jpg,FS,4,num_6,16,num_6,0.95009771327,,,2017_Mar_29_1448,60.0182684843,FEMA4ImagesEEG,001,200098,
AFNE01.JPG,AFNE01.JPG,AFNE01.JPG,AFNE01.JPG,AFNE01.JPG,AFNE01.JPG,,,,,,,,,,,,,,,,,5,6,56,7,,,,,,,AFSA12.jpg,AFSA10.jpg,AFNE19.jpg,AFNE14.jpg,AFNE19.jpg,FN,3,num_2,16,num_2,1.19971114176,,,2017_Mar_29_1448,60.0182684843,FEMA4ImagesEEG,001,200098,
AFNE01.JPG,AFNE01.JPG,AFNE01.JPG,AFNE01.JPG,AFNE01.JPG,AFNE01.JPG,,,,,,,,,,,,,,,,,5,7,57,8,,,,,,,AFNE10.jpg,AFSA13.jpg,AFSA09.jpg,AFNE12.jpg,AFNE10.jpg,FN,3,num_8,16,num_8,0.633450007765,,,2017_Mar_29_1448,60.0182684843,FEMA4ImagesEEG,001,200098,
AFNE01.JPG,AFNE01.JPG,AFNE01.JPG,AFNE01.JPG,AFNE01.JPG,AFNE01.JPG,,,,,,,,,,,,,,,,,5,8,58,1,,,,,,,AFSA05.jpg,AFNE02.jpg,AFNE19.jpg,AFSA14.jpg,AFNE19.jpg,FN,3,num_2,16,num_2,0.766654489213,,,2017_Mar_29_1448,60.0182684843,FEMA4ImagesEEG,001,200098,
AFNE01.JPG,AFNE01.JPG,AFNE01.JPG,AFNE01.JPG,AFNE01.JPG,AFNE01.JPG,,,,,,,,,,,,,,,,,5,9,59,9,,,,,,,AFNE09.jpg,AFSA12.jpg,AFNE08.jpg,AFSA11.jpg,AFNE09.jpg,FN,3,num_8,16,num_8,0.716855480801,,,2017_Mar_29_1448,60.0182684843,FEMA4ImagesEEG,001,200098,
,,,,,,,,,,,,,,,,,,,,,,,,,,,,,,,,,,,,,,,,,,,space,26.9980675433,2017_Mar_29_1448,60.0182684843,FEMA4ImagesEEG,001,200098,
AFNE01.JPG,AFNE01.JPG,AFNE01.JPG,AFNE01.JPG,AFNE01.JPG,AFNE01.JPG,,,,,,,,,,,,,,,,,,,,,0,0,0,2,,,AMSA07.jpg,AMNE07.jpg,AMSA11.jpg,AMNE13.jpg,AMNE13.jpg,MN,1,num_4,32,num_8,0.650163112208,,,2017_Mar_29_1448,60.0182684843,FEMA4ImagesEEG,001,200098,
AFNE01.JPG,AFNE01.JPG,AFNE01.JPG,AFNE01.JPG,AFNE01.JPG,AFNE01.JPG,,,,,,,,,,,,,,,,,,,,,0,1,1,6,,,AMSA20.jpg,AMSA11.jpg,AMNE10.jpg,AMNE03.jpg,AMNE10.jpg,MN,1,num_2,16,num_2,0.883466606028,,,2017_Mar_29_1448,60.0182684843,FEMA4ImagesEEG,001,200098,
AFNE01.JPG,AFNE01.JPG,AFNE01.JPG,AFNE01.JPG,AFNE01.JPG,AFNE01.JPG,,,,,,,,,,,,,,,,,,,,,0,2,2,9,,,AMNE06.jpg,AMSA20.jpg,AMNE16.jpg,AMSA16.jpg,AMSA20.jpg,MS,2,num_6,32,num_4,0.866658883286,,,2017_Mar_29_1448,60.0182684843,FEMA4ImagesEEG,001,200098,
AFNE01.JPG,AFNE01.JPG,AFNE01.JPG,AFNE01.JPG,AFNE01.JPG,AFNE01.JPG,,,,,,,,,,,,,,,,,,,,,0,3,3,4,,,AMNE02.jpg,AMSA07.jpg,AMNE19.jpg,AMSA15.jpg,AMNE02.jpg,MN,1,num_8,16,num_8,0.450184152694,,,2017_Mar_29_1448,60.0182684843,FEMA4ImagesEEG,001,200098,
AFNE01.JPG,AFNE01.JPG,AFNE01.JPG,AFNE01.JPG,AFNE01.JPG,AFNE01.JPG,,,,,,,,,,,,,,,,,,,,,0,4,4,3,,,AMSA01.jpg,AMNE02.jpg,AMNE13.jpg,AMSA08.jpg,AMSA08.jpg,MS,2,num_4,32,num_6,1.10001658218,,,2017_Mar_29_1448,60.0182684843,FEMA4ImagesEEG,001,200098,
AFNE01.JPG,AFNE01.JPG,AFNE01.JPG,AFNE01.JPG,AFNE01.JPG,AFNE01.JPG,,,,,,,,,,,,,,,,,,,,,0,5,5,7,,,AMNE03.jpg,AMSA02.jpg,AMNE13.jpg,AMSA06.jpg,AMSA02.jpg,MS,2,num_6,16,num_6,0.766786634107,,,2017_Mar_29_1448,60.0182684843,FEMA4ImagesEEG,001,200098,
AFNE01.JPG,AFNE01.JPG,AFNE01.JPG,AFNE01.JPG,AFNE01.JPG,AFNE01.JPG,,,,,,,,,,,,,,,,,,,,,0,6,6,0,,,AMSA03.jpg,AMNE13.jpg,AMSA02.jpg,AMNE03.jpg,AMSA02.jpg,MS,2,num_2,16,num_2,0.849798880168,,,2017_Mar_29_1448,60.0182684843,FEMA4ImagesEEG,001,200098,
AFNE01.JPG,AFNE01.JPG,AFNE01.JPG,AFNE01.JPG,AFNE01.JPG,AFNE01.JPG,,,,,,,,,,,,,,,,,,,,,0,7,7,5,,,AMSA14.jpg,AMNE04.jpg,AMSA10.jpg,AMNE15.jpg,AMNE04.jpg,MN,1,num_6,16,num_6,0.550187905435,,,2017_Mar_29_1448,60.0182684843,FEMA4ImagesEEG,001,200098,
AFNE01.JPG,AFNE01.JPG,AFNE01.JPG,AFNE01.JPG,AFNE01.JPG,AFNE01.JPG,,,,,,,,,,,,,,,,,,,,,0,8,8,8,,,AMNE04.jpg,AMSA13.jpg,AMSA18.jpg,AMNE03.jpg,AMSA18.jpg,MS,2,num_2,16,num_2,0.416826582048,,,2017_Mar_29_1448,60.0182684843,FEMA4ImagesEEG,001,200098,
AFNE01.JPG,AFNE01.JPG,AFNE01.JPG,AFNE01.JPG,AFNE01.JPG,AFNE01.JPG,,,,,,,,,,,,,,,,,,,,,0,9,9,1,,,AMNE13.jpg,AMNE06.jpg,AMSA07.jpg,AMSA03.jpg,AMNE13.jpg,MN,1,num_8,16,num_8,0.683505287161,,,2017_Mar_29_1448,60.0182684843,FEMA4ImagesEEG,001,200098,
AFNE01.JPG,AFNE01.JPG,AFNE01.JPG,AFNE01.JPG,AFNE01.JPG,AFNE01.JPG,,,,,,,,,,,,,,,,,,,,,1,0,10,2,,,AMSA16.jpg,AMNE14.jpg,AMNE19.jpg,AMSA09.jpg,AMSA09.jpg,MS,2,num_4,16,num_4,0.850087866653,,,2017_Mar_29_1448,60.0182684843,FEMA4ImagesEEG,001,200098,
AFNE01.JPG,AFNE01.JPG,AFNE01.JPG,AFNE01.JPG,AFNE01.JPG,AFNE01.JPG,,,,,,,,,,,,,,,,,,,,,1,1,11,9,,,AMNE07.jpg,AMSA07.jpg,AMSA16.jpg,AMNE04.jpg,AMNE07.jpg,MN,1,num_8,16,num_8,1.28343093977,,,2017_Mar_29_1448,60.0182684843,FEMA4ImagesEEG,001,200098,
AFNE01.JPG,AFNE01.JPG,AFNE01.JPG,AFNE01.JPG,AFNE01.JPG,AFNE01.JPG,,,,,,,,,,,,,,,,,,,,,1,2,12,1,,,AMNE01.jpg,AMSA06.jpg,AMSA19.jpg,AMNE20.jpg,AMSA06.jpg,MS,2,num_6,16,num_6,1.36674339825,,,2017_Mar_29_1448,60.0182684843,FEMA4ImagesEEG,001,200098,
AFNE01.JPG,AFNE01.JPG,AFNE01.JPG,AFNE01.JPG,AFNE01.JPG,AFNE01.JPG,,,,,,,,,,,,,,,,,,,,,1,3,13,0,,,AMNE09.jpg,AMSA18.jpg,AMNE08.jpg,AMSA15.jpg,AMSA18.jpg,MS,2,num_6,16,num_6,0.533482177998,,,2017_Mar_29_1448,60.0182684843,FEMA4ImagesEEG,001,200098,
AFNE01.JPG,AFNE01.JPG,AFNE01.JPG,AFNE01.JPG,AFNE01.JPG,AFNE01.JPG,,,,,,,,,,,,,,,,,,,,,1,4,14,5,,,AMNE02.jpg,AMSA10.jpg,AMSA19.jpg,AMNE06.jpg,AMSA10.jpg,MS,2,num_6,32,num_4,0.933438493172,,,2017_Mar_29_1448,60.0182684843,FEMA4ImagesEEG,001,200098,
AFNE01.JPG,AFNE01.JPG,AFNE01.JPG,AFNE01.JPG,AFNE01.JPG,AFNE01.JPG,,,,,,,,,,,,,,,,,,,,,1,5,15,3,,,AMSA20.jpg,AMNE15.jpg,AMNE12.jpg,AMSA12.jpg,AMSA20.jpg,MS,2,num_8,16,num_8,0.683557567885,,,2017_Mar_29_1448,60.0182684843,FEMA4ImagesEEG,001,200098,
AFNE01.JPG,AFNE01.JPG,AFNE01.JPG,AFNE01.JPG,AFNE01.JPG,AFNE01.JPG,,,,,,,,,,,,,,,,,,,,,1,6,16,8,,,AMSA15.jpg,AMNE18.jpg,AMSA06.jpg,AMNE16.jpg,AMSA15.jpg,MS,2,num_8,16,num_8,0.666801484302,,,2017_Mar_29_1448,60.0182684843,FEMA4ImagesEEG,001,200098,
AFNE01.JPG,AFNE01.JPG,AFNE01.JPG,AFNE01.JPG,AFNE01.JPG,AFNE01.JPG,,,,,,,,,,,,,,,,,,,,,1,7,17,6,,,AMSA15.jpg,AMNE14.jpg,AMSA09.jpg,AMNE06.jpg,AMSA15.jpg,MS,2,num_8,16,num_8,0.76680908585,,,2017_Mar_29_1448,60.0182684843,FEMA4ImagesEEG,001,200098,
AFNE01.JPG,AFNE01.JPG,AFNE01.JPG,AFNE01.JPG,AFNE01.JPG,AFNE01.JPG,,,,,,,,,,,,,,,,,,,,,1,8,18,4,,,AMNE06.jpg,AMSA18.jpg,AMNE11.jpg,AMSA09.jpg,AMNE06.jpg,MN,1,num_8,16,num_8,1.03344801918,,,2017_Mar_29_1448,60.0182684843,FEMA4ImagesEEG,001,200098,
AFNE01.JPG,AFNE01.JPG,AFNE01.JPG,AFNE01.JPG,AFNE01.JPG,AFNE01.JPG,,,,,,,,,,,,,,,,,,,,,1,9,19,7,,,AMSA09.jpg,AMNE09.jpg,AMSA11.jpg,AMNE01.jpg,AMSA11.jpg,MS,2,num_2,16,num_2,0.866826630197,,,2017_Mar_29_1448,60.0182684843,FEMA4ImagesEEG,001,200098,
AFNE01.JPG,AFNE01.JPG,AFNE01.JPG,AFNE01.JPG,AFNE01.JPG,AFNE01.JPG,,,,,,,,,,,,,,,,,,,,,2,0,20,0,,,AMSA08.jpg,AMSA05.jpg,AMNE11.jpg,AMNE10.jpg,AMSA05.jpg,MS,2,num_6,32,num_4,0.833493756712,,,2017_Mar_29_1448,60.0182684843,FEMA4ImagesEEG,001,200098,
AFNE01.JPG,AFNE01.JPG,AFNE01.JPG,AFNE01.JPG,AFNE01.JPG,AFNE01.JPG,,,,,,,,,,,,,,,,,,,,,2,1,21,1,,,AMSA09.jpg,AMSA05.jpg,AMNE02.jpg,AMNE15.jpg,AMSA09.jpg,MS,2,num_8,16,num_8,0.650147716631,,,2017_Mar_29_1448,60.0182684843,FEMA4ImagesEEG,001,200098,
AFNE01.JPG,AFNE01.JPG,AFNE01.JPG,AFNE01.JPG,AFNE01.JPG,AFNE01.JPG,,,,,,,,,,,,,,,,,,,,,2,2,22,4,,,AMNE01.jpg,AMSA01.jpg,AMSA19.jpg,AMNE12.jpg,AMNE01.jpg,MN,1,num_8,16,num_8,0.750177449314,,,2017_Mar_29_1448,60.0182684843,FEMA4ImagesEEG,001,200098,
AFNE01.JPG,AFNE01.JPG,AFNE01.JPG,AFNE01.JPG,AFNE01.JPG,AFNE01.JPG,,,,,,,,,,,,,,,,,,,,,2,3,23,3,,,AMSA15.jpg,AMNE18.jpg,AMNE11.jpg,AMSA14.jpg,AMSA15.jpg,MS,2,num_8,16,num_8,0.466784356744,,,2017_Mar_29_1448,60.0182684843,FEMA4ImagesEEG,001,200098,
AFNE01.JPG,AFNE01.JPG,AFNE01.JPG,AFNE01.JPG,AFNE01.JPG,AFNE01.JPG,,,,,,,,,,,,,,,,,,,,,2,4,24,6,,,AMNE02.jpg,AMSA19.jpg,AMNE06.jpg,AMSA16.jpg,AMSA16.jpg,MS,2,num_4,16,num_4,0.500143210287,,,2017_Mar_29_1448,60.0182684843,FEMA4ImagesEEG,001,200098,
AFNE01.JPG,AFNE01.JPG,AFNE01.JPG,AFNE01.JPG,AFNE01.JPG,AFNE01.JPG,,,,,,,,,,,,,,,,,,,,,2,5,25,9,,,AMNE18.jpg,AMNE09.jpg,AMSA10.jpg,AMSA13.jpg,AMSA13.jpg,MS,2,num_4,16,num_4,0.850173504208,,,2017_Mar_29_1448,60.0182684843,FEMA4ImagesEEG,001,200098,
AFNE01.JPG,AFNE01.JPG,AFNE01.JPG,AFNE01.JPG,AFNE01.JPG,AFNE01.JPG,,,,,,,,,,,,,,,,,,,,,2,6,26,7,,,AMSA18.jpg,AMSA04.jpg,AMNE20.jpg,AMNE18.jpg,AMNE20.jpg,MN,1,num_2,16,num_2,1.05011654075,,,2017_Mar_29_1448,60.0182684843,FEMA4ImagesEEG,001,200098,
AFNE01.JPG,AFNE01.JPG,AFNE01.JPG,AFNE01.JPG,AFNE01.JPG,AFNE01.JPG,,,,,,,,,,,,,,,,,,,,,2,7,27,2,,,AMSA07.jpg,AMSA10.jpg,AMNE14.jpg,AMNE09.jpg,AMNE14.jpg,MN,1,num_2,16,num_2,0.966649485636,,,2017_Mar_29_1448,60.0182684843,FEMA4ImagesEEG,001,200098,
AFNE01.JPG,AFNE01.JPG,AFNE01.JPG,AFNE01.JPG,AFNE01.JPG,AFNE01.JPG,,,,,,,,,,,,,,,,,,,,,2,8,28,8,,,AMSA15.jpg,AMSA13.jpg,AMNE20.jpg,AMNE14.jpg,AMSA13.jpg,MS,2,num_6,16,num_6,1.76668014843,,,2017_Mar_29_1448,60.0182684843,FEMA4ImagesEEG,001,200098,
AFNE01.JPG,AFNE01.JPG,AFNE01.JPG,AFNE01.JPG,AFNE01.JPG,AFNE01.JPG,,,,,,,,,,,,,,,,,,,,,2,9,29,5,,,AMSA13.jpg,AMNE01.jpg,AMSA09.jpg,AMNE05.jpg,AMNE05.jpg,MN,1,num_4,32,num_8,1.0501486148,,,2017_Mar_29_1448,60.0182684843,FEMA4ImagesEEG,001,200098,
AFNE01.JPG,AFNE01.JPG,AFNE01.JPG,AFNE01.JPG,AFNE01.JPG,AFNE01.JPG,,,,,,,,,,,,,,,,,,,,,3,0,30,3,,,AMNE17.jpg,AMSA12.jpg,AMSA04.jpg,AMNE04.jpg,AMNE04.jpg,MN,1,num_4,16,num_4,0.633522815653,,,2017_Mar_29_1448,60.0182684843,FEMA4ImagesEEG,001,200098,
AFNE01.JPG,AFNE01.JPG,AFNE01.JPG,AFNE01.JPG,AFNE01.JPG,AFNE01.JPG,,,,,,,,,,,,,,,,,,,,,3,1,31,0,,,AMNE13.jpg,AMNE01.jpg,AMSA09.jpg,AMSA08.jpg,AMNE13.jpg,MN,1,num_8,32,num_2,0.650019420777,,,2017_Mar_29_1448,60.0182684843,FEMA4ImagesEEG,001,200098,
AFNE01.JPG,AFNE01.JPG,AFNE01.JPG,AFNE01.JPG,AFNE01.JPG,AFNE01.JPG,,,,,,,,,,,,,,,,,,,,,3,2,32,5,,,AMSA15.jpg,AMNE18.jpg,AMSA13.jpg,AMNE19.jpg,AMSA15.jpg,MS,2,num_8,16,num_8,0.683322786354,,,2017_Mar_29_1448,60.0182684843,FEMA4ImagesEEG,001,200098,
AFNE01.JPG,AFNE01.JPG,AFNE01.JPG,AFNE01.JPG,AFNE01.JPG,AFNE01.JPG,,,,,,,,,,,,,,,,,,,,,3,3,33,4,,,AMNE13.jpg,AMSA13.jpg,AMNE07.jpg,AMSA16.jpg,AMNE13.jpg,MN,1,num_8,16,num_8,0.816787067102,,,2017_Mar_29_1448,60.0182684843,FEMA4ImagesEEG,001,200098,
AFNE01.JPG,AFNE01.JPG,AFNE01.JPG,AFNE01.JPG,AFNE01.JPG,AFNE01.JPG,,,,,,,,,,,,,,,,,,,,,3,4,34,9,,,AMNE03.jpg,AMSA19.jpg,AMNE09.jpg,AMSA14.jpg,AMNE03.jpg,MN,1,num_8,32,num_2,1.08340932196,,,2017_Mar_29_1448,60.0182684843,FEMA4ImagesEEG,001,200098,
AFNE01.JPG,AFNE01.JPG,AFNE01.JPG,AFNE01.JPG,AFNE01.JPG,AFNE01.JPG,,,,,,,,,,,,,,,,,,,,,3,5,35,1,,,AMNE20.jpg,AMSA14.jpg,AMSA13.jpg,AMNE18.jpg,AMSA13.jpg,MS,2,num_2,32,num_8,0.883477190393,,,2017_Mar_29_1448,60.0182684843,FEMA4ImagesEEG,001,200098,
AFNE01.JPG,AFNE01.JPG,AFNE01.JPG,AFNE01.JPG,AFNE01.JPG,AFNE01.JPG,,,,,,,,,,,,,,,,,,,,,3,6,36,2,,,AMSA01.jpg,AMNE20.jpg,AMNE12.jpg,AMSA19.jpg,AMSA19.jpg,MS,2,num_4,32,num_2,1.00010391977,,,2017_Mar_29_1448,60.0182684843,FEMA4ImagesEEG,001,200098,
AFNE01.JPG,AFNE01.JPG,AFNE01.JPG,AFNE01.JPG,AFNE01.JPG,AFNE01.JPG,,,,,,,,,,,,,,,,,,,,,3,7,37,6,,,AMSA18.jpg,AMNE04.jpg,AMSA10.jpg,AMNE14.jpg,AMSA18.jpg,MS,2,num_8,16,num_8,0.516798902303,,,2017_Mar_29_1448,60.0182684843,FEMA4ImagesEEG,001,200098,
AFNE01.JPG,AFNE01.JPG,AFNE01.JPG,AFNE01.JPG,AFNE01.JPG,AFNE01.JPG,,,,,,,,,,,,,,,,,,,,,3,8,38,7,,,AMSA19.jpg,AMNE08.jpg,AMSA01.jpg,AMNE18.jpg,AMSA19.jpg,MS,2,num_8,16,num_8,0.550154548488,,,2017_Mar_29_1448,60.0182684843,FEMA4ImagesEEG,001,200098,
