IPosition2,IPosition3,IPosition1,IPosition6,IPosition4,IPosition5,TrialsF1.thisRepN,TrialsF1.thisTrialN,TrialsF1.thisN,TrialsF1.thisIndex,TrialsM1.thisRepN,TrialsM1.thisTrialN,TrialsM1.thisN,TrialsM1.thisIndex,TrialsF2.thisRepN,TrialsF2.thisTrialN,TrialsF2.thisN,TrialsF2.thisIndex,TrialsM2.thisRepN,TrialsM2.thisTrialN,TrialsM2.thisN,TrialsM2.thisIndex,TrialsF3.thisRepN,TrialsF3.thisTrialN,TrialsF3.thisN,TrialsF3.thisIndex,TrialsM3.thisRepN,TrialsM3.thisTrialN,TrialsM3.thisN,TrialsM3.thisIndex,InstrKey_resp.keys,InstrKey_resp.rt,Image0 _Position,Image1 _Position,Image2 _Position,Image3 _Position,Center_image,condition,code,correct_answer,accuracy,Key_Resp.keys,Key_Resp.rt,BreakKey_resp.keys,BreakKey_resp.rt,date,frameRate,expName,session,participant,
,,,,,,,,,,,,,,,,,,,,,,,,,,,,,,space,26.4652050345,,,,,,,,,,,,,,2017_Mar_28_1847,60.0129542336,FEMA4ImagesEEG,001,200035,
AFNE22.JPG,AFSA24.JPG,AFSA22.JPG,AFNE25.JPG,AFNE24.JPG,AFSA25.JPG,0,0,0,6,,,,,,,,,,,,,,,,,,,,,,,AFSA17.jpg,AFSA06.jpg,AFNE01.jpg,AFNE08.jpg,AFNE08.jpg,FN,3,num_4,32,num_8,1.45015207876,,,2017_Mar_28_1847,60.0129542336,FEMA4ImagesEEG,001,200035,
AMSA21.JPG,AMNE22.JPG,AMNE21.JPG,AMSA23.JPG,AMSA22.JPG,AMNE23.JPG,0,1,1,1,,,,,,,,,,,,,,,,,,,,,,,AFSA04.jpg,AFNE09.jpg,AFSA12.jpg,AFNE03.jpg,AFSA04.jpg,FS,4,num_8,32,num_6,1.43345629424,,,2017_Mar_28_1847,60.0129542336,FEMA4ImagesEEG,001,200035,
AMNE22.JPG,AMSA24.JPG,AMSA22.JPG,AMNE25.JPG,AMNE24.JPG,AMSA25.JPG,0,2,2,7,,,,,,,,,,,,,,,,,,,,,,,AFNE04.jpg,AFNE17.jpg,AFSA17.jpg,AFSA02.jpg,AFNE17.jpg,FN,3,num_6,32,num_4,1.06682836229,,,2017_Mar_28_1847,60.0129542336,FEMA4ImagesEEG,001,200035,
AFSA25.JPG,AFNE24.JPG,AFSA24.JPG,AFNE21.JPG,AFSA21.JPG,AFNE25.JPG,0,3,3,2,,,,,,,,,,,,,,,,,,,,,,,AFSA13.jpg,AFNE08.jpg,AFNE19.jpg,AFSA10.jpg,AFNE19.jpg,FN,3,num_2,32,num_6,1.3334255995,,,2017_Mar_28_1847,60.0129542336,FEMA4ImagesEEG,001,200035,
AMSA21.JPG,AMNE23.JPG,AMNE21.JPG,AMSA25.JPG,AMNE25.JPG,AMSA23.JPG,0,4,4,5,,,,,,,,,,,,,,,,,,,,,,,AFNE18.jpg,AFNE17.jpg,AFSA06.jpg,AFSA16.jpg,AFSA06.jpg,FS,4,num_2,32,num_8,1.06679179787,,,2017_Mar_28_1847,60.0129542336,FEMA4ImagesEEG,001,200035,
AFSA21.JPG,AFNE22.JPG,AFNE21.JPG,AFSA23.JPG,AFSA22.JPG,AFNE23.JPG,0,5,5,0,,,,,,,,,,,,,,,,,,,,,,,AFSA04.jpg,AFNE12.jpg,AFNE15.jpg,AFSA20.jpg,AFSA04.jpg,FS,4,num_8,32,num_4,0.966752763838,,,2017_Mar_28_1847,60.0129542336,FEMA4ImagesEEG,001,200035,
AMNE23.JPG,AMNE24.JPG,AMNE22.JPG,AMSA24.JPG,AMSA22.JPG,AMSA23.JPG,0,6,6,9,,,,,,,,,,,,,,,,,,,,,,,AFSA07.jpg,AFSA06.jpg,AFNE13.jpg,AFNE06.jpg,AFSA06.jpg,FS,4,num_6,16,num_6,1.10016316036,,,2017_Mar_28_1847,60.0129542336,FEMA4ImagesEEG,001,200035,
AFNE23.JPG,AFNE24.JPG,AFNE22.JPG,AFSA24.JPG,AFSA22.JPG,AFSA23.JPG,0,7,7,8,,,,,,,,,,,,,,,,,,,,,,,AFNE11.jpg,AFSA08.jpg,AFNE03.jpg,AFSA04.jpg,AFSA04.jpg,FS,4,num_4,32,num_8,0.883448644541,,,2017_Mar_28_1847,60.0129542336,FEMA4ImagesEEG,001,200035,
AMSA25.JPG,AMNE24.JPG,AMSA24.JPG,AMNE26.JPG,AMSA21.JPG,AMNE25.JPG,0,8,8,3,,,,,,,,,,,,,,,,,,,,,,,AFNE20.jpg,AFSA02.jpg,AFSA16.jpg,AFNE18.jpg,AFSA02.jpg,FS,4,num_6,32,num_8,1.58336971048,,,2017_Mar_28_1847,60.0129542336,FEMA4ImagesEEG,001,200035,
AFSA21.JPG,AFNE23.JPG,AFNE21.JPG,AFSA25.JPG,AFNE25.JPG,AFSA23.JPG,0,9,9,4,,,,,,,,,,,,,,,,,,,,,,,AFNE18.jpg,AFNE10.jpg,AFSA08.jpg,AFSA12.jpg,AFSA12.jpg,FS,4,num_4,32,num_2,1.53342668992,,,2017_Mar_28_1847,60.0129542336,FEMA4ImagesEEG,001,200035,
AFNE23.JPG,AFNE24.JPG,AFNE22.JPG,AFSA24.JPG,AFSA22.JPG,AFSA23.JPG,,,,,0,0,0,8,,,,,,,,,,,,,,,,,,,AMNE14.jpg,AMNE04.jpg,AMSA10.jpg,AMSA15.jpg,AMNE14.jpg,MN,1,num_8,16,num_8,1.11663731362,,,2017_Mar_28_1847,60.0129542336,FEMA4ImagesEEG,001,200035,
AFSA25.JPG,AFNE24.JPG,AFSA24.JPG,AFNE21.JPG,AFSA21.JPG,AFNE25.JPG,,,,,0,1,1,2,,,,,,,,,,,,,,,,,,,AMSA12.jpg,AMSA02.jpg,AMNE05.jpg,AMNE04.jpg,AMNE04.jpg,MN,1,num_4,16,num_4,1.45007510122,,,2017_Mar_28_1847,60.0129542336,FEMA4ImagesEEG,001,200035,
AFSA21.JPG,AFNE22.JPG,AFNE21.JPG,AFSA23.JPG,AFSA22.JPG,AFNE23.JPG,,,,,0,2,2,0,,,,,,,,,,,,,,,,,,,AMNE14.jpg,AMSA11.jpg,AMSA17.jpg,AMNE09.jpg,AMNE14.jpg,MN,1,num_8,16,num_8,0.899977965164,,,2017_Mar_28_1847,60.0129542336,FEMA4ImagesEEG,001,200035,
AFNE22.JPG,AFSA24.JPG,AFSA22.JPG,AFNE25.JPG,AFNE24.JPG,AFSA25.JPG,,,,,0,3,3,6,,,,,,,,,,,,,,,,,,,AMSA08.jpg,AMSA01.jpg,AMNE19.jpg,AMNE20.jpg,AMNE19.jpg,MN,1,num_2,32,num_4,1.31673270161,,,2017_Mar_28_1847,60.0129542336,FEMA4ImagesEEG,001,200035,
AMNE23.JPG,AMNE24.JPG,AMNE22.JPG,AMSA24.JPG,AMSA22.JPG,AMSA23.JPG,,,,,0,4,4,9,,,,,,,,,,,,,,,,,,,AMNE19.jpg,AMSA19.jpg,AMNE05.jpg,AMSA20.jpg,AMSA19.jpg,MS,2,num_6,32,num_2,1.19982372143,,,2017_Mar_28_1847,60.0129542336,FEMA4ImagesEEG,001,200035,
AMSA21.JPG,AMNE23.JPG,AMNE21.JPG,AMSA25.JPG,AMNE25.JPG,AMSA23.JPG,,,,,0,5,5,5,,,,,,,,,,,,,,,,,,,AMNE05.jpg,AMSA05.jpg,AMSA07.jpg,AMNE15.jpg,AMSA05.jpg,MS,2,num_6,32,num_8,1.10013525595,,,2017_Mar_28_1847,60.0129542336,FEMA4ImagesEEG,001,200035,
AMSA21.JPG,AMNE22.JPG,AMNE21.JPG,AMSA23.JPG,AMSA22.JPG,AMNE23.JPG,,,,,0,6,6,1,,,,,,,,,,,,,,,,,,,AMSA11.jpg,AMNE08.jpg,AMSA10.jpg,AMNE06.jpg,AMNE06.jpg,MN,1,num_4,32,num_6,1.01677725243,,,2017_Mar_28_1847,60.0129542336,FEMA4ImagesEEG,001,200035,
AMNE22.JPG,AMSA24.JPG,AMSA22.JPG,AMNE25.JPG,AMNE24.JPG,AMSA25.JPG,,,,,0,7,7,7,,,,,,,,,,,,,,,,,,,AMSA05.jpg,AMNE11.jpg,AMNE20.jpg,AMSA01.jpg,AMNE11.jpg,MN,1,num_6,32,num_4,1.63364790415,,,2017_Mar_28_1847,60.0129542336,FEMA4ImagesEEG,001,200035,
AFSA21.JPG,AFNE23.JPG,AFNE21.JPG,AFSA25.JPG,AFNE25.JPG,AFSA23.JPG,,,,,0,8,8,4,,,,,,,,,,,,,,,,,,,AMNE01.jpg,AMNE14.jpg,AMSA02.jpg,AMSA09.jpg,AMNE01.jpg,MN,1,num_8,16,num_8,1.36678926414,,,2017_Mar_28_1847,60.0129542336,FEMA4ImagesEEG,001,200035,
AMSA25.JPG,AMNE24.JPG,AMSA24.JPG,AMNE26.JPG,AMSA21.JPG,AMNE25.JPG,,,,,0,9,9,3,,,,,,,,,,,,,,,,,,,AMNE12.jpg,AMNE03.jpg,AMSA10.jpg,AMSA12.jpg,AMSA12.jpg,MS,2,num_4,32,num_8,1.15011676529,,,2017_Mar_28_1847,60.0129542336,FEMA4ImagesEEG,001,200035,
AMNE23.JPG,AMNE24.JPG,AMNE22.JPG,AMSA24.JPG,AMSA22.JPG,AMSA23.JPG,,,,,,,,,0,0,0,9,,,,,,,,,,,,,,,AFNE05.jpg,AFSA17.jpg,AFNE06.jpg,AFSA07.jpg,AFSA07.jpg,FS,4,num_4,32,num_2,1.48345159541,,,2017_Mar_28_1847,60.0129542336,FEMA4ImagesEEG,001,200035,
AMSA25.JPG,AMNE24.JPG,AMSA24.JPG,AMNE26.JPG,AMSA21.JPG,AMNE25.JPG,,,,,,,,,0,1,1,3,,,,,,,,,,,,,,,AFNE03.jpg,AFSA02.jpg,AFSA08.jpg,AFNE16.jpg,AFNE03.jpg,FN,3,num_8,16,num_8,1.23343403498,,,2017_Mar_28_1847,60.0129542336,FEMA4ImagesEEG,001,200035,
AFSA25.JPG,AFNE24.JPG,AFSA24.JPG,AFNE21.JPG,AFSA21.JPG,AFNE25.JPG,,,,,,,,,0,2,2,2,,,,,,,,,,,,,,,AFSA10.jpg,AFNE09.jpg,AFNE16.jpg,AFSA08.jpg,AFNE16.jpg,FN,3,num_2,32,num_4,0.950112146675,,,2017_Mar_28_1847,60.0129542336,FEMA4ImagesEEG,001,200035,
AMSA21.JPG,AMNE22.JPG,AMNE21.JPG,AMSA23.JPG,AMSA22.JPG,AMNE23.JPG,,,,,,,,,0,3,3,1,,,,,,,,,,,,,,,AFSA15.jpg,AFSA14.jpg,AFNE07.jpg,AFNE16.jpg,AFSA15.jpg,FS,4,num_8,32,num_6,1.4833967489,,,2017_Mar_28_1847,60.0129542336,FEMA4ImagesEEG,001,200035,
AMSA21.JPG,AMNE23.JPG,AMNE21.JPG,AMSA25.JPG,AMNE25.JPG,AMSA23.JPG,,,,,,,,,0,4,4,5,,,,,,,,,,,,,,,AFNE01.jpg,AFSA04.jpg,AFSA17.jpg,AFNE09.jpg,AFNE09.jpg,FN,3,num_4,32,num_8,1.10012531304,,,2017_Mar_28_1847,60.0129542336,FEMA4ImagesEEG,001,200035,
AFNE23.JPG,AFNE24.JPG,AFNE22.JPG,AFSA24.JPG,AFSA22.JPG,AFSA23.JPG,,,,,,,,,0,5,5,8,,,,,,,,,,,,,,,AFNE10.jpg,AFSA06.jpg,AFSA02.jpg,AFNE08.jpg,AFNE10.jpg,FN,3,num_8,16,num_8,1.13342932006,,,2017_Mar_28_1847,60.0129542336,FEMA4ImagesEEG,001,200035,
AFSA21.JPG,AFNE23.JPG,AFNE21.JPG,AFSA25.JPG,AFNE25.JPG,AFSA23.JPG,,,,,,,,,0,6,6,4,,,,,,,,,,,,,,,AFNE09.jpg,AFSA16.jpg,AFNE10.jpg,AFSA12.jpg,AFNE09.jpg,FN,3,num_8,32,num_4,1.50005596911,,,2017_Mar_28_1847,60.0129542336,FEMA4ImagesEEG,001,200035,
AMNE22.JPG,AMSA24.JPG,AMSA22.JPG,AMNE25.JPG,AMNE24.JPG,AMSA25.JPG,,,,,,,,,0,7,7,7,,,,,,,,,,,,,,,AFNE16.jpg,AFSA17.jpg,AFNE17.jpg,AFSA08.jpg,AFNE17.jpg,FN,3,num_2,32,num_8,0.933390061487,,,2017_Mar_28_1847,60.0129542336,FEMA4ImagesEEG,001,200035,
AFNE22.JPG,AFSA24.JPG,AFSA22.JPG,AFNE25.JPG,AFNE24.JPG,AFSA25.JPG,,,,,,,,,0,8,8,6,,,,,,,,,,,,,,,AFNE06.jpg,AFSA01.jpg,AFNE02.jpg,AFSA07.jpg,AFSA01.jpg,FS,4,num_6,32,num_8,1.18342077232,,,2017_Mar_28_1847,60.0129542336,FEMA4ImagesEEG,001,200035,
AFSA21.JPG,AFNE22.JPG,AFNE21.JPG,AFSA23.JPG,AFSA22.JPG,AFNE23.JPG,,,,,,,,,0,9,9,0,,,,,,,,,,,,,,,AFSA10.jpg,AFSA02.jpg,AFNE02.jpg,AFNE11.jpg,AFNE02.jpg,FN,3,num_2,16,num_2,1.01678751607,,,2017_Mar_28_1847,60.0129542336,FEMA4ImagesEEG,001,200035,
AMSA25.JPG,AMNE24.JPG,AMSA24.JPG,AMNE26.JPG,AMSA21.JPG,AMNE25.JPG,,,,,,,,,,,,,0,0,0,3,,,,,,,,,,,AMNE10.jpg,AMSA11.jpg,AMNE17.jpg,AMSA10.jpg,AMSA10.jpg,MS,2,num_4,32,num_2,1.90012390178,,,2017_Mar_28_1847,60.0129542336,FEMA4ImagesEEG,001,200035,
AFNE22.JPG,AFSA24.JPG,AFSA22.JPG,AFNE25.JPG,AFNE24.JPG,AFSA25.JPG,,,,,,,,,,,,,0,1,1,6,,,,,,,,,,,AMNE12.jpg,AMSA06.jpg,AMSA13.jpg,AMNE16.jpg,AMNE12.jpg,MN,1,num_8,32,num_4,1.10006918351,,,2017_Mar_28_1847,60.0129542336,FEMA4ImagesEEG,001,200035,
AMNE23.JPG,AMNE24.JPG,AMNE22.JPG,AMSA24.JPG,AMSA22.JPG,AMSA23.JPG,,,,,,,,,,,,,0,2,2,9,,,,,,,,,,,AMNE01.jpg,AMNE18.jpg,AMSA12.jpg,AMSA15.jpg,AMNE01.jpg,MN,1,num_8,16,num_8,1.20012008492,,,2017_Mar_28_1847,60.0129542336,FEMA4ImagesEEG,001,200035,
AFSA25.JPG,AFNE24.JPG,AFSA24.JPG,AFNE21.JPG,AFSA21.JPG,AFNE25.JPG,,,,,,,,,,,,,0,3,3,2,,,,,,,,,,,AMSA03.jpg,AMNE04.jpg,AMSA09.jpg,AMNE12.jpg,AMSA03.jpg,MS,2,num_8,32,num_6,1.01674132957,,,2017_Mar_28_1847,60.0129542336,FEMA4ImagesEEG,001,200035,
AFSA21.JPG,AFNE22.JPG,AFNE21.JPG,AFSA23.JPG,AFSA22.JPG,AFNE23.JPG,,,,,,,,,,,,,0,4,4,0,,,,,,,,,,,AMSA05.jpg,AMNE20.jpg,AMNE12.jpg,AMSA08.jpg,AMNE12.jpg,MN,1,num_2,32,num_8,1.25010351872,,,2017_Mar_28_1847,60.0129542336,FEMA4ImagesEEG,001,200035,
AMNE22.JPG,AMSA24.JPG,AMSA22.JPG,AMNE25.JPG,AMNE24.JPG,AMSA25.JPG,,,,,,,,,,,,,0,5,5,7,,,,,,,,,,,AMNE19.jpg,AMSA01.jpg,AMNE08.jpg,AMSA07.jpg,AMNE19.jpg,MN,1,num_8,16,num_8,1.96664467466,,,2017_Mar_28_1847,60.0129542336,FEMA4ImagesEEG,001,200035,
AFSA21.JPG,AFNE23.JPG,AFNE21.JPG,AFSA25.JPG,AFNE25.JPG,AFSA23.JPG,,,,,,,,,,,,,0,6,6,4,,,,,,,,,,,AMSA15.jpg,AMNE20.jpg,AMSA04.jpg,AMNE07.jpg,AMNE07.jpg,MN,1,num_4,16,num_4,1.13345177181,,,2017_Mar_28_1847,60.0129542336,FEMA4ImagesEEG,001,200035,
AMSA21.JPG,AMNE23.JPG,AMNE21.JPG,AMSA25.JPG,AMNE25.JPG,AMSA23.JPG,,,,,,,,,,,,,0,7,7,5,,,,,,,,,,,AMSA04.jpg,AMNE17.jpg,AMNE20.jpg,AMSA15.jpg,AMNE17.jpg,MN,1,num_6,16,num_6,1.05016368942,,,2017_Mar_28_1847,60.0129542336,FEMA4ImagesEEG,001,200035,
AMSA21.JPG,AMNE22.JPG,AMNE21.JPG,AMSA23.JPG,AMSA22.JPG,AMNE23.JPG,,,,,,,,,,,,,0,8,8,1,,,,,,,,,,,AMNE02.jpg,AMSA08.jpg,AMNE07.jpg,AMSA13.jpg,AMSA13.jpg,MS,2,num_4,32,num_8,1.11672198889,,,2017_Mar_28_1847,60.0129542336,FEMA4ImagesEEG,001,200035,
AFNE23.JPG,AFNE24.JPG,AFNE22.JPG,AFSA24.JPG,AFSA22.JPG,AFSA23.JPG,,,,,,,,,,,,,0,9,9,8,,,,,,,,,,,AMNE04.jpg,AMSA18.jpg,AMSA08.jpg,AMNE11.jpg,AMNE11.jpg,MN,1,num_4,16,num_4,1.20012040576,,,2017_Mar_28_1847,60.0129542336,FEMA4ImagesEEG,001,200035,
AMSA25.JPG,AMNE24.JPG,AMSA24.JPG,AMNE26.JPG,AMSA21.JPG,AMNE25.JPG,,,,,,,,,,,,,,,,,0,0,0,3,,,,,,,AFNE09.jpg,AFSA02.jpg,AFNE06.jpg,AFSA13.jpg,AFSA02.jpg,FS,4,num_6,32,num_2,1.61666666134,,,2017_Mar_28_1847,60.0129542336,FEMA4ImagesEEG,001,200035,
AFSA21.JPG,AFNE22.JPG,AFNE21.JPG,AFSA23.JPG,AFSA22.JPG,AFNE23.JPG,,,,,,,,,,,,,,,,,0,1,1,0,,,,,,,AFSA20.jpg,AFSA04.jpg,AFNE19.jpg,AFNE01.jpg,AFSA20.jpg,FS,4,num_8,16,num_8,1.21677385247,,,2017_Mar_28_1847,60.0129542336,FEMA4ImagesEEG,001,200035,
AFNE23.JPG,AFNE24.JPG,AFNE22.JPG,AFSA24.JPG,AFSA22.JPG,AFSA23.JPG,,,,,,,,,,,,,,,,,0,2,2,8,,,,,,,AFNE03.jpg,AFSA11.jpg,AFNE04.jpg,AFSA10.jpg,AFNE04.jpg,FN,3,num_2,32,num_4,1.33342367504,,,2017_Mar_28_1847,60.0129542336,FEMA4ImagesEEG,001,200035,
AMNE23.JPG,AMNE24.JPG,AMNE22.JPG,AMSA24.JPG,AMSA22.JPG,AMSA23.JPG,,,,,,,,,,,,,,,,,0,3,3,9,,,,,,,AFSA17.jpg,AFNE12.jpg,AFNE14.jpg,AFSA19.jpg,AFSA17.jpg,FS,4,num_8,32,num_6,1.26676145603,,,2017_Mar_28_1847,60.0129542336,FEMA4ImagesEEG,001,200035,
AFSA25.JPG,AFNE24.JPG,AFSA24.JPG,AFNE21.JPG,AFSA21.JPG,AFNE25.JPG,,,,,,,,,,,,,,,,,0,4,4,2,,,,,,,AFNE15.jpg,AFNE05.jpg,AFSA18.jpg,AFSA06.jpg,AFSA18.jpg,FS,4,num_2,16,num_2,1.31675290817,,,2017_Mar_28_1847,60.0129542336,FEMA4ImagesEEG,001,200035,
AMSA21.JPG,AMNE23.JPG,AMNE21.JPG,AMSA25.JPG,AMNE25.JPG,AMSA23.JPG,,,,,,,,,,,,,,,,,0,5,5,5,,,,,,,AFNE16.jpg,AFSA14.jpg,AFSA15.jpg,AFNE11.jpg,AFSA15.jpg,FS,4,num_2,32,num_8,1.51641818427,,,2017_Mar_28_1847,60.0129542336,FEMA4ImagesEEG,001,200035,
AFNE22.JPG,AFSA24.JPG,AFSA22.JPG,AFNE25.JPG,AFNE24.JPG,AFSA25.JPG,,,,,,,,,,,,,,,,,0,6,6,6,,,,,,,AFNE06.jpg,AFSA17.jpg,AFNE14.jpg,AFSA15.jpg,AFSA17.jpg,FS,4,num_6,16,num_6,1.25009453809,,,2017_Mar_28_1847,60.0129542336,FEMA4ImagesEEG,001,200035,
AMSA21.JPG,AMNE22.JPG,AMNE21.JPG,AMSA23.JPG,AMSA22.JPG,AMNE23.JPG,,,,,,,,,,,,,,,,,0,7,7,1,,,,,,,AFNE12.jpg,AFSA07.jpg,AFSA09.jpg,AFNE02.jpg,AFSA07.jpg,FS,4,num_6,32,num_8,0.933465114562,,,2017_Mar_28_1847,60.0129542336,FEMA4ImagesEEG,001,200035,
AFSA21.JPG,AFNE23.JPG,AFNE21.JPG,AFSA25.JPG,AFNE25.JPG,AFSA23.JPG,,,,,,,,,,,,,,,,,0,8,8,4,,,,,,,AFNE06.jpg,AFNE12.jpg,AFSA12.jpg,AFSA10.jpg,AFSA12.jpg,FS,4,num_2,32,num_8,1.35012908175,,,2017_Mar_28_1847,60.0129542336,FEMA4ImagesEEG,001,200035,
AMNE22.JPG,AMSA24.JPG,AMSA22.JPG,AMNE25.JPG,AMNE24.JPG,AMSA25.JPG,,,,,,,,,,,,,,,,,0,9,9,7,,,,,,,AFNE19.jpg,AFSA08.jpg,AFSA01.jpg,AFNE13.jpg,AFSA01.jpg,FS,4,num_2,16,num_2,1.45006515819,,,2017_Mar_28_1847,60.0129542336,FEMA4ImagesEEG,001,200035,
AFSA25.JPG,AFNE24.JPG,AFSA24.JPG,AFNE21.JPG,AFSA21.JPG,AFNE25.JPG,,,,,,,,,,,,,,,,,,,,,0,0,0,2,,,AMSA15.jpg,AMNE20.jpg,AMSA01.jpg,AMNE12.jpg,AMNE20.jpg,MN,1,num_6,16,num_6,0.75012292352,,,2017_Mar_28_1847,60.0129542336,FEMA4ImagesEEG,001,200035,
AMSA25.JPG,AMNE24.JPG,AMSA24.JPG,AMNE26.JPG,AMSA21.JPG,AMNE25.JPG,,,,,,,,,,,,,,,,,,,,,0,1,1,3,,,AMSA04.jpg,AMSA17.jpg,AMNE16.jpg,AMNE15.jpg,AMSA04.jpg,MS,2,num_8,16,num_8,1.51672898105,,,2017_Mar_28_1847,60.0129542336,FEMA4ImagesEEG,001,200035,
AFSA21.JPG,AFNE22.JPG,AFNE21.JPG,AFSA23.JPG,AFSA22.JPG,AFNE23.JPG,,,,,,,,,,,,,,,,,,,,,0,2,2,0,,,AMSA02.jpg,AMSA10.jpg,AMNE08.jpg,AMNE07.jpg,AMSA10.jpg,MS,2,num_6,16,num_6,1.90005718789,,,2017_Mar_28_1847,60.0129542336,FEMA4ImagesEEG,001,200035,
AMSA21.JPG,AMNE22.JPG,AMNE21.JPG,AMSA23.JPG,AMSA22.JPG,AMNE23.JPG,,,,,,,,,,,,,,,,,,,,,0,3,3,1,,,AMNE14.jpg,AMSA13.jpg,AMNE15.jpg,AMSA08.jpg,AMSA13.jpg,MS,2,num_6,32,num_4,1.23338816909,,,2017_Mar_28_1847,60.0129542336,FEMA4ImagesEEG,001,200035,
AFNE23.JPG,AFNE24.JPG,AFNE22.JPG,AFSA24.JPG,AFSA22.JPG,AFSA23.JPG,,,,,,,,,,,,,,,,,,,,,0,4,4,8,,,AMSA05.jpg,AMNE14.jpg,AMNE20.jpg,AMSA01.jpg,AMSA01.jpg,MS,2,num_4,32,num_8,1.21677321114,,,2017_Mar_28_1847,60.0129542336,FEMA4ImagesEEG,001,200035,
AMNE23.JPG,AMNE24.JPG,AMNE22.JPG,AMSA24.JPG,AMSA22.JPG,AMSA23.JPG,,,,,,,,,,,,,,,,,,,,,0,5,5,9,,,AMNE10.jpg,AMSA01.jpg,AMSA10.jpg,AMNE06.jpg,AMSA01.jpg,MS,2,num_6,16,num_6,0.733506040997,,,2017_Mar_28_1847,60.0129542336,FEMA4ImagesEEG,001,200035,
AMNE22.JPG,AMSA24.JPG,AMSA22.JPG,AMNE25.JPG,AMNE24.JPG,AMSA25.JPG,,,,,,,,,,,,,,,,,,,,,0,6,6,7,,,AMSA09.jpg,AMSA03.jpg,AMNE06.jpg,AMNE15.jpg,AMNE15.jpg,MN,1,num_4,16,num_4,1.1168227013,,,2017_Mar_28_1847,60.0129542336,FEMA4ImagesEEG,001,200035,
AFNE22.JPG,AFSA24.JPG,AFSA22.JPG,AFNE25.JPG,AFNE24.JPG,AFSA25.JPG,,,,,,,,,,,,,,,,,,,,,0,7,7,6,,,AMSA18.jpg,AMNE13.jpg,AMSA15.jpg,AMNE03.jpg,AMSA18.jpg,MS,2,num_8,16,num_8,0.866739068297,,,2017_Mar_28_1847,60.0129542336,FEMA4ImagesEEG,001,200035,
AFSA21.JPG,AFNE23.JPG,AFNE21.JPG,AFSA25.JPG,AFNE25.JPG,AFSA23.JPG,,,,,,,,,,,,,,,,,,,,,0,8,8,4,,,AMNE14.jpg,AMSA12.jpg,AMNE05.jpg,AMSA14.jpg,AMSA12.jpg,MS,2,num_6,32,num_4,1.35013036465,,,2017_Mar_28_1847,60.0129542336,FEMA4ImagesEEG,001,200035,
AMSA21.JPG,AMNE23.JPG,AMNE21.JPG,AMSA25.JPG,AMNE25.JPG,AMSA23.JPG,,,,,,,,,,,,,,,,,,,,,0,9,9,5,,,AMSA20.jpg,AMNE11.jpg,AMSA09.jpg,AMNE19.jpg,AMNE11.jpg,MN,1,num_6,16,num_6,1.35010534688,,,2017_Mar_28_1847,60.0129542336,FEMA4ImagesEEG,001,200035,
,,,,,,,,,,,,,,,,,,,,,,,,,,,,,,,,,,,,,,,,,,,space,22.1484341648,2017_Mar_28_1847,60.0129542336,FEMA4ImagesEEG,001,200035,
AFNE01.JPG,AFNE01.JPG,AFNE01.JPG,AFNE01.JPG,AFNE01.JPG,AFNE01.JPG,0,0,0,4,,,,,,,,,,,,,,,,,,,,,,,AFSA16.jpg,AFNE08.jpg,AFSA11.jpg,AFNE16.jpg,AFNE08.jpg,FN,3,num_6,32,num_8,3.18324661069,,,2017_Mar_28_1847,60.0129542336,FEMA4ImagesEEG,001,200035,
AFNE01.JPG,AFNE01.JPG,AFNE01.JPG,AFNE01.JPG,AFNE01.JPG,AFNE01.JPG,0,1,1,6,,,,,,,,,,,,,,,,,,,,,,,AFSA06.jpg,AFNE15.jpg,AFNE11.jpg,AFSA16.jpg,AFNE15.jpg,FN,3,num_6,16,num_6,2.31634236139,,,2017_Mar_28_1847,60.0129542336,FEMA4ImagesEEG,001,200035,
AFNE01.JPG,AFNE01.JPG,AFNE01.JPG,AFNE01.JPG,AFNE01.JPG,AFNE01.JPG,0,2,2,5,,,,,,,,,,,,,,,,,,,,,,,AFSA05.jpg,AFNE08.jpg,AFSA16.jpg,AFNE15.jpg,AFSA05.jpg,FS,4,num_8,16,num_8,0.866781726712,,,2017_Mar_28_1847,60.0129542336,FEMA4ImagesEEG,001,200035,
AFNE01.JPG,AFNE01.JPG,AFNE01.JPG,AFNE01.JPG,AFNE01.JPG,AFNE01.JPG,0,3,3,9,,,,,,,,,,,,,,,,,,,,,,,AFSA08.jpg,AFNE14.jpg,AFNE18.jpg,AFSA06.jpg,AFSA06.jpg,FS,4,num_4,32,num_2,1.18330530601,,,2017_Mar_28_1847,60.0129542336,FEMA4ImagesEEG,001,200035,
AFNE01.JPG,AFNE01.JPG,AFNE01.JPG,AFNE01.JPG,AFNE01.JPG,AFNE01.JPG,0,4,4,0,,,,,,,,,,,,,,,,,,,,,,,AFSA18.jpg,AFNE16.jpg,AFSA12.jpg,AFNE11.jpg,AFSA18.jpg,FS,4,num_8,16,num_8,0.716778503265,,,2017_Mar_28_1847,60.0129542336,FEMA4ImagesEEG,001,200035,
AFNE01.JPG,AFNE01.JPG,AFNE01.JPG,AFNE01.JPG,AFNE01.JPG,AFNE01.JPG,0,5,5,8,,,,,,,,,,,,,,,,,,,,,,,AFNE08.jpg,AFSA07.jpg,AFNE02.jpg,AFSA10.jpg,AFSA10.jpg,FS,4,num_4,32,num_2,1.05032438005,,,2017_Mar_28_1847,60.0129542336,FEMA4ImagesEEG,001,200035,
AFNE01.JPG,AFNE01.JPG,AFNE01.JPG,AFNE01.JPG,AFNE01.JPG,AFNE01.JPG,0,6,6,7,,,,,,,,,,,,,,,,,,,,,,,AFSA12.jpg,AFSA16.jpg,AFNE14.jpg,AFNE03.jpg,AFSA16.jpg,FS,4,num_6,32,num_8,0.933470246498,,,2017_Mar_28_1847,60.0129542336,FEMA4ImagesEEG,001,200035,
AFNE01.JPG,AFNE01.JPG,AFNE01.JPG,AFNE01.JPG,AFNE01.JPG,AFNE01.JPG,0,7,7,1,,,,,,,,,,,,,,,,,,,,,,,AFNE19.jpg,AFSA14.jpg,AFNE17.jpg,AFSA17.jpg,AFNE19.jpg,FN,3,num_8,16,num_8,0.900085092289,,,2017_Mar_28_1847,60.0129542336,FEMA4ImagesEEG,001,200035,
AFNE01.JPG,AFNE01.JPG,AFNE01.JPG,AFNE01.JPG,AFNE01.JPG,AFNE01.JPG,0,8,8,3,,,,,,,,,,,,,,,,,,,,,,,AFSA16.jpg,AFNE13.jpg,AFSA05.jpg,AFNE20.jpg,AFSA05.jpg,FS,4,num_2,32,num_4,0.716763749137,,,2017_Mar_28_1847,60.0129542336,FEMA4ImagesEEG,001,200035,
AFNE01.JPG,AFNE01.JPG,AFNE01.JPG,AFNE01.JPG,AFNE01.JPG,AFNE01.JPG,0,9,9,2,,,,,,,,,,,,,,,,,,,,,,,AFSA17.jpg,AFNE13.jpg,AFNE02.jpg,AFSA15.jpg,AFSA17.jpg,FS,4,num_8,16,num_8,1.01679232717,,,2017_Mar_28_1847,60.0129542336,FEMA4ImagesEEG,001,200035,
AFNE01.JPG,AFNE01.JPG,AFNE01.JPG,AFNE01.JPG,AFNE01.JPG,AFNE01.JPG,1,0,10,7,,,,,,,,,,,,,,,,,,,,,,,AFSA14.jpg,AFNE17.jpg,AFSA15.jpg,AFNE20.jpg,AFNE20.jpg,FN,3,num_4,32,num_8,1.05012455932,,,2017_Mar_28_1847,60.0129542336,FEMA4ImagesEEG,001,200035,
AFNE01.JPG,AFNE01.JPG,AFNE01.JPG,AFNE01.JPG,AFNE01.JPG,AFNE01.JPG,1,1,11,1,,,,,,,,,,,,,,,,,,,,,,,AFSA05.jpg,AFNE09.jpg,AFSA07.jpg,AFNE20.jpg,AFSA07.jpg,FS,4,num_2,16,num_2,1.06677127059,,,2017_Mar_28_1847,60.0129542336,FEMA4ImagesEEG,001,200035,
AFNE01.JPG,AFNE01.JPG,AFNE01.JPG,AFNE01.JPG,AFNE01.JPG,AFNE01.JPG,1,2,12,5,,,,,,,,,,,,,,,,,,,,,,,AFSA06.jpg,AFSA08.jpg,AFNE05.jpg,AFNE07.jpg,AFNE07.jpg,FN,3,num_4,32,num_8,1.2664647717,,,2017_Mar_28_1847,60.0129542336,FEMA4ImagesEEG,001,200035,
AFNE01.JPG,AFNE01.JPG,AFNE01.JPG,AFNE01.JPG,AFNE01.JPG,AFNE01.JPG,1,3,13,4,,,,,,,,,,,,,,,,,,,,,,,AFNE15.jpg,AFSA04.jpg,AFNE02.jpg,AFSA17.jpg,AFNE02.jpg,FN,3,num_2,32,num_4,1.78337368777,,,2017_Mar_28_1847,60.0129542336,FEMA4ImagesEEG,001,200035,
AFNE01.JPG,AFNE01.JPG,AFNE01.JPG,AFNE01.JPG,AFNE01.JPG,AFNE01.JPG,1,4,14,6,,,,,,,,,,,,,,,,,,,,,,,AFNE11.jpg,AFSA09.jpg,AFNE13.jpg,AFSA19.jpg,AFNE11.jpg,FN,3,num_8,32,num_6,1.96672101063,,,2017_Mar_28_1847,60.0129542336,FEMA4ImagesEEG,001,200035,
AFNE01.JPG,AFNE01.JPG,AFNE01.JPG,AFNE01.JPG,AFNE01.JPG,AFNE01.JPG,1,5,15,8,,,,,,,,,,,,,,,,,,,,,,,AFSA17.jpg,AFNE06.jpg,AFNE02.jpg,AFSA13.jpg,AFSA17.jpg,FS,4,num_8,32,num_4,1.08345807437,,,2017_Mar_28_1847,60.0129542336,FEMA4ImagesEEG,001,200035,
AFNE01.JPG,AFNE01.JPG,AFNE01.JPG,AFNE01.JPG,AFNE01.JPG,AFNE01.JPG,1,6,16,0,,,,,,,,,,,,,,,,,,,,,,,AFSA07.jpg,AFSA20.jpg,AFNE16.jpg,AFNE06.jpg,AFSA20.jpg,FS,4,num_6,16,num_6,1.18343039451,,,2017_Mar_28_1847,60.0129542336,FEMA4ImagesEEG,001,200035,
AFNE01.JPG,AFNE01.JPG,AFNE01.JPG,AFNE01.JPG,AFNE01.JPG,AFNE01.JPG,1,7,17,9,,,,,,,,,,,,,,,,,,,,,,,AFNE19.jpg,AFSA14.jpg,AFNE02.jpg,AFSA15.jpg,AFNE19.jpg,FN,3,num_8,32,num_4,0.833476757398,,,2017_Mar_28_1847,60.0129542336,FEMA4ImagesEEG,001,200035,
AFNE01.JPG,AFNE01.JPG,AFNE01.JPG,AFNE01.JPG,AFNE01.JPG,AFNE01.JPG,1,8,18,3,,,,,,,,,,,,,,,,,,,,,,,AFSA05.jpg,AFNE08.jpg,AFSA19.jpg,AFNE11.jpg,AFNE08.jpg,FN,3,num_6,32,num_8,1.03343583108,,,2017_Mar_28_1847,60.0129542336,FEMA4ImagesEEG,001,200035,
AFNE01.JPG,AFNE01.JPG,AFNE01.JPG,AFNE01.JPG,AFNE01.JPG,AFNE01.JPG,1,9,19,2,,,,,,,,,,,,,,,,,,,,,,,AFSA05.jpg,AFNE20.jpg,AFSA03.jpg,AFNE02.jpg,AFNE02.jpg,FN,3,num_4,32,num_8,0.983460736461,,,2017_Mar_28_1847,60.0129542336,FEMA4ImagesEEG,001,200035,
AFNE01.JPG,AFNE01.JPG,AFNE01.JPG,AFNE01.JPG,AFNE01.JPG,AFNE01.JPG,2,0,20,2,,,,,,,,,,,,,,,,,,,,,,,AFNE14.jpg,AFSA12.jpg,AFSA13.jpg,AFNE07.jpg,AFSA12.jpg,FS,4,num_6,32,num_2,2.20003605122,,,2017_Mar_28_1847,60.0129542336,FEMA4ImagesEEG,001,200035,
AFNE01.JPG,AFNE01.JPG,AFNE01.JPG,AFNE01.JPG,AFNE01.JPG,AFNE01.JPG,2,1,21,9,,,,,,,,,,,,,,,,,,,,,,,AFNE13.jpg,AFSA16.jpg,AFSA12.jpg,AFNE04.jpg,AFNE04.jpg,FN,3,num_4,32,num_8,0.950221198145,,,2017_Mar_28_1847,60.0129542336,FEMA4ImagesEEG,001,200035,
AFNE01.JPG,AFNE01.JPG,AFNE01.JPG,AFNE01.JPG,AFNE01.JPG,AFNE01.JPG,2,2,22,1,,,,,,,,,,,,,,,,,,,,,,,AFNE03.jpg,AFSA03.jpg,AFNE04.jpg,AFSA15.jpg,AFSA03.jpg,FS,4,num_6,32,num_8,1.20012040564,,,2017_Mar_28_1847,60.0129542336,FEMA4ImagesEEG,001,200035,
AFNE01.JPG,AFNE01.JPG,AFNE01.JPG,AFNE01.JPG,AFNE01.JPG,AFNE01.JPG,2,3,23,4,,,,,,,,,,,,,,,,,,,,,,,AFNE07.jpg,AFSA15.jpg,AFSA03.jpg,AFNE09.jpg,AFNE07.jpg,FN,3,num_8,16,num_8,0.850172862643,,,2017_Mar_28_1847,60.0129542336,FEMA4ImagesEEG,001,200035,
AFNE01.JPG,AFNE01.JPG,AFNE01.JPG,AFNE01.JPG,AFNE01.JPG,AFNE01.JPG,2,4,24,8,,,,,,,,,,,,,,,,,,,,,,,AFNE01.jpg,AFNE11.jpg,AFSA18.jpg,AFSA01.jpg,AFSA18.jpg,FS,4,num_2,32,num_4,1.56676501618,,,2017_Mar_28_1847,60.0129542336,FEMA4ImagesEEG,001,200035,
AFNE01.JPG,AFNE01.JPG,AFNE01.JPG,AFNE01.JPG,AFNE01.JPG,AFNE01.JPG,2,5,25,0,,,,,,,,,,,,,,,,,,,,,,,AFNE14.jpg,AFNE01.jpg,AFSA19.jpg,AFSA08.jpg,AFSA08.jpg,FS,4,num_4,32,num_6,1.366780604,,,2017_Mar_28_1847,60.0129542336,FEMA4ImagesEEG,001,200035,
AFNE01.JPG,AFNE01.JPG,AFNE01.JPG,AFNE01.JPG,AFNE01.JPG,AFNE01.JPG,2,6,26,5,,,,,,,,,,,,,,,,,,,,,,,AFSA09.jpg,AFNE10.jpg,AFSA01.jpg,AFNE19.jpg,AFSA09.jpg,FS,4,num_8,16,num_8,0.85012346867,,,2017_Mar_28_1847,60.0129542336,FEMA4ImagesEEG,001,200035,
AFNE01.JPG,AFNE01.JPG,AFNE01.JPG,AFNE01.JPG,AFNE01.JPG,AFNE01.JPG,2,7,27,3,,,,,,,,,,,,,,,,,,,,,,,AFNE11.jpg,AFSA11.jpg,AFNE13.jpg,AFSA01.jpg,AFSA01.jpg,FS,4,num_4,32,num_8,0.966788045247,,,2017_Mar_28_1847,60.0129542336,FEMA4ImagesEEG,001,200035,
AFNE01.JPG,AFNE01.JPG,AFNE01.JPG,AFNE01.JPG,AFNE01.JPG,AFNE01.JPG,2,8,28,7,,,,,,,,,,,,,,,,,,,,,,,AFSA17.jpg,AFSA04.jpg,AFNE10.jpg,AFNE05.jpg,AFNE05.jpg,FN,3,num_4,16,num_4,1.28346237226,,,2017_Mar_28_1847,60.0129542336,FEMA4ImagesEEG,001,200035,
AFNE01.JPG,AFNE01.JPG,AFNE01.JPG,AFNE01.JPG,AFNE01.JPG,AFNE01.JPG,2,9,29,6,,,,,,,,,,,,,,,,,,,,,,,AFNE06.jpg,AFNE18.jpg,AFSA01.jpg,AFSA03.jpg,AFSA03.jpg,FS,4,num_4,32,num_6,1.10010061611,,,2017_Mar_28_1847,60.0129542336,FEMA4ImagesEEG,001,200035,
AFNE01.JPG,AFNE01.JPG,AFNE01.JPG,AFNE01.JPG,AFNE01.JPG,AFNE01.JPG,3,0,30,5,,,,,,,,,,,,,,,,,,,,,,,AFNE03.jpg,AFSA17.jpg,AFNE11.jpg,AFSA16.jpg,AFNE03.jpg,FN,3,num_8,32,num_4,1.56669926445,,,2017_Mar_28_1847,60.0129542336,FEMA4ImagesEEG,001,200035,
AFNE01.JPG,AFNE01.JPG,AFNE01.JPG,AFNE01.JPG,AFNE01.JPG,AFNE01.JPG,3,1,31,7,,,,,,,,,,,,,,,,,,,,,,,AFSA04.jpg,AFSA18.jpg,AFNE06.jpg,AFNE16.jpg,AFSA04.jpg,FS,4,num_8,16,num_8,1.31672019279,,,2017_Mar_28_1847,60.0129542336,FEMA4ImagesEEG,001,200035,
AFNE01.JPG,AFNE01.JPG,AFNE01.JPG,AFNE01.JPG,AFNE01.JPG,AFNE01.JPG,3,2,32,8,,,,,,,,,,,,,,,,,,,,,,,AFNE12.jpg,AFNE03.jpg,AFSA09.jpg,AFSA14.jpg,AFSA09.jpg,FS,4,num_2,32,num_4,1.46671058668,,,2017_Mar_28_1847,60.0129542336,FEMA4ImagesEEG,001,200035,
AFNE01.JPG,AFNE01.JPG,AFNE01.JPG,AFNE01.JPG,AFNE01.JPG,AFNE01.JPG,3,3,33,4,,,,,,,,,,,,,,,,,,,,,,,AFSA13.jpg,AFNE03.jpg,AFSA03.jpg,AFNE20.jpg,AFNE03.jpg,FN,3,num_6,16,num_6,1.20009474654,,,2017_Mar_28_1847,60.0129542336,FEMA4ImagesEEG,001,200035,
AFNE01.JPG,AFNE01.JPG,AFNE01.JPG,AFNE01.JPG,AFNE01.JPG,AFNE01.JPG,3,4,34,0,,,,,,,,,,,,,,,,,,,,,,,AFSA02.jpg,AFNE13.jpg,AFNE03.jpg,AFSA07.jpg,AFNE03.jpg,FN,3,num_2,32,num_4,1.05000845145,,,2017_Mar_28_1847,60.0129542336,FEMA4ImagesEEG,001,200035,
AFNE01.JPG,AFNE01.JPG,AFNE01.JPG,AFNE01.JPG,AFNE01.JPG,AFNE01.JPG,3,5,35,9,,,,,,,,,,,,,,,,,,,,,,,AFNE03.jpg,AFNE05.jpg,AFSA10.jpg,AFSA14.jpg,AFSA14.jpg,FS,4,num_4,32,num_2,1.3667305687,,,2017_Mar_28_1847,60.0129542336,FEMA4ImagesEEG,001,200035,
AFNE01.JPG,AFNE01.JPG,AFNE01.JPG,AFNE01.JPG,AFNE01.JPG,AFNE01.JPG,3,6,36,6,,,,,,,,,,,,,,,,,,,,,,,AFSA08.jpg,AFSA18.jpg,AFNE13.jpg,AFNE03.jpg,AFSA18.jpg,FS,4,num_6,32,num_8,1.41667230637,,,2017_Mar_28_1847,60.0129542336,FEMA4ImagesEEG,001,200035,
AFNE01.JPG,AFNE01.JPG,AFNE01.JPG,AFNE01.JPG,AFNE01.JPG,AFNE01.JPG,3,7,37,2,,,,,,,,,,,,,,,,,,,,,,,AFSA08.jpg,AFNE11.jpg,AFSA09.jpg,AFNE16.jpg,AFSA08.jpg,FS,4,num_8,32,num_6,1.11679223087,,,2017_Mar_28_1847,60.0129542336,FEMA4ImagesEEG,001,200035,
AFNE01.JPG,AFNE01.JPG,AFNE01.JPG,AFNE01.JPG,AFNE01.JPG,AFNE01.JPG,3,8,38,3,,,,,,,,,,,,,,,,,,,,,,,AFNE12.jpg,AFSA04.jpg,AFSA15.jpg,AFNE09.jpg,AFNE09.jpg,FN,3,num_4,16,num_4,1.21682452946,,,2017_Mar_28_1847,60.0129542336,FEMA4ImagesEEG,001,200035,
AFNE01.JPG,AFNE01.JPG,AFNE01.JPG,AFNE01.JPG,AFNE01.JPG,AFNE01.JPG,3,9,39,1,,,,,,,,,,,,,,,,,,,,,,,AFSA08.jpg,AFSA18.jpg,AFNE16.jpg,AFNE17.jpg,AFSA08.jpg,FS,4,num_8,32,num_6,1.38343308878,,,2017_Mar_28_1847,60.0129542336,FEMA4ImagesEEG,001,200035,
AFNE01.JPG,AFNE01.JPG,AFNE01.JPG,AFNE01.JPG,AFNE01.JPG,AFNE01.JPG,4,0,40,7,,,,,,,,,,,,,,,,,,,,,,,AFSA20.jpg,AFNE13.jpg,AFSA18.jpg,AFNE19.jpg,AFSA18.jpg,FS,4,num_2,16,num_2,1.86666561884,,,2017_Mar_28_1847,60.0129542336,FEMA4ImagesEEG,001,200035,
AFNE01.JPG,AFNE01.JPG,AFNE01.JPG,AFNE01.JPG,AFNE01.JPG,AFNE01.JPG,4,1,41,4,,,,,,,,,,,,,,,,,,,,,,,AFNE04.jpg,AFSA20.jpg,AFNE15.jpg,AFSA12.jpg,AFNE04.jpg,FN,3,num_8,32,num_4,1.63340991526,,,2017_Mar_28_1847,60.0129542336,FEMA4ImagesEEG,001,200035,
AFNE01.JPG,AFNE01.JPG,AFNE01.JPG,AFNE01.JPG,AFNE01.JPG,AFNE01.JPG,4,2,42,9,,,,,,,,,,,,,,,,,,,,,,,AFSA20.jpg,AFNE09.jpg,AFNE06.jpg,AFSA10.jpg,AFNE09.jpg,FN,3,num_6,32,num_8,0.816805028357,,,2017_Mar_28_1847,60.0129542336,FEMA4ImagesEEG,001,200035,
AFNE01.JPG,AFNE01.JPG,AFNE01.JPG,AFNE01.JPG,AFNE01.JPG,AFNE01.JPG,4,3,43,5,,,,,,,,,,,,,,,,,,,,,,,AFNE18.jpg,AFSA11.jpg,AFSA14.jpg,AFNE15.jpg,AFNE18.jpg,FN,3,num_8,16,num_8,1.4331313849,,,2017_Mar_28_1847,60.0129542336,FEMA4ImagesEEG,001,200035,
AFNE01.JPG,AFNE01.JPG,AFNE01.JPG,AFNE01.JPG,AFNE01.JPG,AFNE01.JPG,4,4,44,2,,,,,,,,,,,,,,,,,,,,,,,AFNE02.jpg,AFSA09.jpg,AFNE01.jpg,AFSA06.jpg,AFNE02.jpg,FN,3,num_8,32,num_4,1.21680368134,,,2017_Mar_28_1847,60.0129542336,FEMA4ImagesEEG,001,200035,
AFNE01.JPG,AFNE01.JPG,AFNE01.JPG,AFNE01.JPG,AFNE01.JPG,AFNE01.JPG,4,5,45,8,,,,,,,,,,,,,,,,,,,,,,,AFSA14.jpg,AFNE06.jpg,AFNE20.jpg,AFSA09.jpg,AFSA14.jpg,FS,4,num_8,32,num_6,1.11672712071,,,2017_Mar_28_1847,60.0129542336,FEMA4ImagesEEG,001,200035,
AFNE01.JPG,AFNE01.JPG,AFNE01.JPG,AFNE01.JPG,AFNE01.JPG,AFNE01.JPG,4,6,46,3,,,,,,,,,,,,,,,,,,,,,,,AFSA16.jpg,AFNE09.jpg,AFSA02.jpg,AFNE10.jpg,AFNE09.jpg,FN,3,num_6,32,num_8,0.850153618259,,,2017_Mar_28_1847,60.0129542336,FEMA4ImagesEEG,001,200035,
AFNE01.JPG,AFNE01.JPG,AFNE01.JPG,AFNE01.JPG,AFNE01.JPG,AFNE01.JPG,4,7,47,0,,,,,,,,,,,,,,,,,,,,,,,AFNE20.jpg,AFSA11.jpg,AFSA06.jpg,AFNE02.jpg,AFNE02.jpg,FN,3,num_4,32,num_8,1.35010727134,,,2017_Mar_28_1847,60.0129542336,FEMA4ImagesEEG,001,200035,
AFNE01.JPG,AFNE01.JPG,AFNE01.JPG,AFNE01.JPG,AFNE01.JPG,AFNE01.JPG,4,8,48,6,,,,,,,,,,,,,,,,,,,,,,,AFNE16.jpg,AFSA14.jpg,AFSA01.jpg,AFNE15.jpg,AFSA14.jpg,FS,4,num_6,32,num_4,2.13336420991,,,2017_Mar_28_1847,60.0129542336,FEMA4ImagesEEG,001,200035,
AFNE01.JPG,AFNE01.JPG,AFNE01.JPG,AFNE01.JPG,AFNE01.JPG,AFNE01.JPG,4,9,49,1,,,,,,,,,,,,,,,,,,,,,,,AFSA02.jpg,AFNE18.jpg,AFNE01.jpg,AFSA13.jpg,AFSA13.jpg,FS,4,num_4,32,num_6,1.50005212019,,,2017_Mar_28_1847,60.0129542336,FEMA4ImagesEEG,001,200035,
AFNE01.JPG,AFNE01.JPG,AFNE01.JPG,AFNE01.JPG,AFNE01.JPG,AFNE01.JPG,5,0,50,6,,,,,,,,,,,,,,,,,,,,,,,AFNE01.jpg,AFNE17.jpg,AFSA15.jpg,AFSA04.jpg,AFNE01.jpg,FN,3,num_8,16,num_8,1.03344288736,,,2017_Mar_28_1847,60.0129542336,FEMA4ImagesEEG,001,200035,
AFNE01.JPG,AFNE01.JPG,AFNE01.JPG,AFNE01.JPG,AFNE01.JPG,AFNE01.JPG,5,1,51,0,,,,,,,,,,,,,,,,,,,,,,,AFNE20.jpg,AFSA05.jpg,AFNE10.jpg,AFSA08.jpg,AFSA05.jpg,FS,4,num_6,16,num_6,0.783456759294,,,2017_Mar_28_1847,60.0129542336,FEMA4ImagesEEG,001,200035,
AFNE01.JPG,AFNE01.JPG,AFNE01.JPG,AFNE01.JPG,AFNE01.JPG,AFNE01.JPG,5,2,52,4,,,,,,,,,,,,,,,,,,,,,,,AFNE15.jpg,AFSA16.jpg,AFSA06.jpg,AFNE05.jpg,AFNE15.jpg,FN,3,num_8,16,num_8,1.21673343936,,,2017_Mar_28_1847,60.0129542336,FEMA4ImagesEEG,001,200035,
AFNE01.JPG,AFNE01.JPG,AFNE01.JPG,AFNE01.JPG,AFNE01.JPG,AFNE01.JPG,5,3,53,3,,,,,,,,,,,,,,,,,,,,,,,AFNE07.jpg,AFSA20.jpg,AFSA03.jpg,AFNE19.jpg,AFNE19.jpg,FN,3,num_4,32,num_2,1.20008640725,,,2017_Mar_28_1847,60.0129542336,FEMA4ImagesEEG,001,200035,
AFNE01.JPG,AFNE01.JPG,AFNE01.JPG,AFNE01.JPG,AFNE01.JPG,AFNE01.JPG,5,4,54,5,,,,,,,,,,,,,,,,,,,,,,,AFSA15.jpg,AFNE20.jpg,AFNE05.jpg,AFSA02.jpg,AFSA15.jpg,FS,4,num_8,16,num_8,1.31676637928,,,2017_Mar_28_1847,60.0129542336,FEMA4ImagesEEG,001,200035,
AFNE01.JPG,AFNE01.JPG,AFNE01.JPG,AFNE01.JPG,AFNE01.JPG,AFNE01.JPG,5,5,55,1,,,,,,,,,,,,,,,,,,,,,,,AFNE14.jpg,AFSA07.jpg,AFSA10.jpg,AFNE19.jpg,AFNE19.jpg,FN,3,num_4,32,num_8,1.1667201767,,,2017_Mar_28_1847,60.0129542336,FEMA4ImagesEEG,001,200035,
AFNE01.JPG,AFNE01.JPG,AFNE01.JPG,AFNE01.JPG,AFNE01.JPG,AFNE01.JPG,5,6,56,7,,,,,,,,,,,,,,,,,,,,,,,AFNE05.jpg,AFSA01.jpg,AFSA16.jpg,AFNE13.jpg,AFNE13.jpg,FN,3,num_4,16,num_4,1.13334945589,,,2017_Mar_28_1847,60.0129542336,FEMA4ImagesEEG,001,200035,
AFNE01.JPG,AFNE01.JPG,AFNE01.JPG,AFNE01.JPG,AFNE01.JPG,AFNE01.JPG,5,7,57,2,,,,,,,,,,,,,,,,,,,,,,,AFNE17.jpg,AFSA11.jpg,AFNE09.jpg,AFSA16.jpg,AFSA16.jpg,FS,4,num_4,32,num_8,1.00007665681,,,2017_Mar_28_1847,60.0129542336,FEMA4ImagesEEG,001,200035,
AFNE01.JPG,AFNE01.JPG,AFNE01.JPG,AFNE01.JPG,AFNE01.JPG,AFNE01.JPG,5,8,58,9,,,,,,,,,,,,,,,,,,,,,,,AFNE18.jpg,AFSA18.jpg,AFSA13.jpg,AFNE09.jpg,AFNE09.jpg,FN,3,num_4,16,num_4,0.800106357317,,,2017_Mar_28_1847,60.0129542336,FEMA4ImagesEEG,001,200035,
AFNE01.JPG,AFNE01.JPG,AFNE01.JPG,AFNE01.JPG,AFNE01.JPG,AFNE01.JPG,5,9,59,8,,,,,,,,,,,,,,,,,,,,,,,AFNE16.jpg,AFNE18.jpg,AFSA16.jpg,AFSA04.jpg,AFSA16.jpg,FS,4,num_2,16,num_2,1.16678432468,,,2017_Mar_28_1847,60.0129542336,FEMA4ImagesEEG,001,200035,
,,,,,,,,,,,,,,,,,,,,,,,,,,,,,,,,,,,,,,,,,,,space,23.6983757421,2017_Mar_28_1847,60.0129542336,FEMA4ImagesEEG,001,200035,
AFNE01.JPG,AFNE01.JPG,AFNE01.JPG,AFNE01.JPG,AFNE01.JPG,AFNE01.JPG,,,,,0,0,0,1,,,,,,,,,,,,,,,,,,,AMNE10.jpg,AMSA06.jpg,AMSA09.jpg,AMNE18.jpg,AMNE10.jpg,MN,1,num_8,16,num_8,0.816807915107,,,2017_Mar_28_1847,60.0129542336,FEMA4ImagesEEG,001,200035,
AFNE01.JPG,AFNE01.JPG,AFNE01.JPG,AFNE01.JPG,AFNE01.JPG,AFNE01.JPG,,,,,0,1,1,0,,,,,,,,,,,,,,,,,,,AMSA02.jpg,AMSA09.jpg,AMNE06.jpg,AMNE03.jpg,AMSA09.jpg,MS,2,num_6,32,num_8,0.916653222404,,,2017_Mar_28_1847,60.0129542336,FEMA4ImagesEEG,001,200035,
AFNE01.JPG,AFNE01.JPG,AFNE01.JPG,AFNE01.JPG,AFNE01.JPG,AFNE01.JPG,,,,,0,2,2,6,,,,,,,,,,,,,,,,,,,AMSA15.jpg,AMNE17.jpg,AMNE14.jpg,AMSA09.jpg,AMSA15.jpg,MS,2,num_8,16,num_8,1.31676541711,,,2017_Mar_28_1847,60.0129542336,FEMA4ImagesEEG,001,200035,
AFNE01.JPG,AFNE01.JPG,AFNE01.JPG,AFNE01.JPG,AFNE01.JPG,AFNE01.JPG,,,,,0,3,3,2,,,,,,,,,,,,,,,,,,,AMSA08.jpg,AMNE17.jpg,AMSA12.jpg,AMNE04.jpg,AMSA12.jpg,MS,2,num_2,32,num_6,0.950091298553,,,2017_Mar_28_1847,60.0129542336,FEMA4ImagesEEG,001,200035,
AFNE01.JPG,AFNE01.JPG,AFNE01.JPG,AFNE01.JPG,AFNE01.JPG,AFNE01.JPG,,,,,0,4,4,3,,,,,,,,,,,,,,,,,,,AMSA13.jpg,AMNE11.jpg,AMNE10.jpg,AMSA11.jpg,AMSA11.jpg,MS,2,num_4,16,num_4,0.833515246166,,,2017_Mar_28_1847,60.0129542336,FEMA4ImagesEEG,001,200035,
AFNE01.JPG,AFNE01.JPG,AFNE01.JPG,AFNE01.JPG,AFNE01.JPG,AFNE01.JPG,,,,,0,5,5,5,,,,,,,,,,,,,,,,,,,AMNE15.jpg,AMSA18.jpg,AMSA02.jpg,AMNE12.jpg,AMNE15.jpg,MN,1,num_8,32,num_2,1.55006153393,,,2017_Mar_28_1847,60.0129542336,FEMA4ImagesEEG,001,200035,
AFNE01.JPG,AFNE01.JPG,AFNE01.JPG,AFNE01.JPG,AFNE01.JPG,AFNE01.JPG,,,,,0,6,6,7,,,,,,,,,,,,,,,,,,,AMNE01.jpg,AMSA18.jpg,AMNE14.jpg,AMSA10.jpg,AMNE01.jpg,MN,1,num_8,16,num_8,1.50005725212,,,2017_Mar_28_1847,60.0129542336,FEMA4ImagesEEG,001,200035,
AFNE01.JPG,AFNE01.JPG,AFNE01.JPG,AFNE01.JPG,AFNE01.JPG,AFNE01.JPG,,,,,0,7,7,8,,,,,,,,,,,,,,,,,,,AMSA11.jpg,AMNE07.jpg,AMSA02.jpg,AMNE04.jpg,AMNE04.jpg,MN,1,num_4,32,num_6,1.00010007084,,,2017_Mar_28_1847,60.0129542336,FEMA4ImagesEEG,001,200035,
AFNE01.JPG,AFNE01.JPG,AFNE01.JPG,AFNE01.JPG,AFNE01.JPG,AFNE01.JPG,,,,,0,8,8,9,,,,,,,,,,,,,,,,,,,AMNE04.jpg,AMSA09.jpg,AMSA16.jpg,AMNE16.jpg,AMNE16.jpg,MN,1,num_4,16,num_4,0.783425968257,,,2017_Mar_28_1847,60.0129542336,FEMA4ImagesEEG,001,200035,
AFNE01.JPG,AFNE01.JPG,AFNE01.JPG,AFNE01.JPG,AFNE01.JPG,AFNE01.JPG,,,,,0,9,9,4,,,,,,,,,,,,,,,,,,,AMSA15.jpg,AMNE19.jpg,AMNE20.jpg,AMSA16.jpg,AMNE19.jpg,MN,1,num_6,32,num_8,0.933509376599,,,2017_Mar_28_1847,60.0129542336,FEMA4ImagesEEG,001,200035,
AFNE01.JPG,AFNE01.JPG,AFNE01.JPG,AFNE01.JPG,AFNE01.JPG,AFNE01.JPG,,,,,1,0,10,0,,,,,,,,,,,,,,,,,,,AMSA17.jpg,AMSA07.jpg,AMNE15.jpg,AMNE02.jpg,AMSA07.jpg,MS,2,num_6,32,num_2,1.26646573399,,,2017_Mar_28_1847,60.0129542336,FEMA4ImagesEEG,001,200035,
AFNE01.JPG,AFNE01.JPG,AFNE01.JPG,AFNE01.JPG,AFNE01.JPG,AFNE01.JPG,,,,,1,1,11,9,,,,,,,,,,,,,,,,,,,AMNE19.jpg,AMSA02.jpg,AMSA18.jpg,AMNE07.jpg,AMNE07.jpg,MN,1,num_4,16,num_4,0.933448115364,,,2017_Mar_28_1847,60.0129542336,FEMA4ImagesEEG,001,200035,
AFNE01.JPG,AFNE01.JPG,AFNE01.JPG,AFNE01.JPG,AFNE01.JPG,AFNE01.JPG,,,,,1,2,12,8,,,,,,,,,,,,,,,,,,,AMSA10.jpg,AMNE01.jpg,AMSA01.jpg,AMNE15.jpg,AMNE01.jpg,MN,1,num_6,32,num_8,1.13344599854,,,2017_Mar_28_1847,60.0129542336,FEMA4ImagesEEG,001,200035,
AFNE01.JPG,AFNE01.JPG,AFNE01.JPG,AFNE01.JPG,AFNE01.JPG,AFNE01.JPG,,,,,1,3,13,3,,,,,,,,,,,,,,,,,,,AMSA08.jpg,AMSA17.jpg,AMNE08.jpg,AMNE11.jpg,AMNE11.jpg,MN,1,num_4,32,num_6,0.783502304461,,,2017_Mar_28_1847,60.0129542336,FEMA4ImagesEEG,001,200035,
AFNE01.JPG,AFNE01.JPG,AFNE01.JPG,AFNE01.JPG,AFNE01.JPG,AFNE01.JPG,,,,,1,4,14,5,,,,,,,,,,,,,,,,,,,AMSA15.jpg,AMNE14.jpg,AMNE01.jpg,AMSA12.jpg,AMSA15.jpg,MS,2,num_8,16,num_8,0.650117567158,,,2017_Mar_28_1847,60.0129542336,FEMA4ImagesEEG,001,200035,
AFNE01.JPG,AFNE01.JPG,AFNE01.JPG,AFNE01.JPG,AFNE01.JPG,AFNE01.JPG,,,,,1,5,15,7,,,,,,,,,,,,,,,,,,,AMSA05.jpg,AMNE05.jpg,AMNE16.jpg,AMSA19.jpg,AMNE05.jpg,MN,1,num_6,32,num_4,1.20007806807,,,2017_Mar_28_1847,60.0129542336,FEMA4ImagesEEG,001,200035,
AFNE01.JPG,AFNE01.JPG,AFNE01.JPG,AFNE01.JPG,AFNE01.JPG,AFNE01.JPG,,,,,1,6,16,1,,,,,,,,,,,,,,,,,,,AMSA14.jpg,AMSA20.jpg,AMNE17.jpg,AMNE18.jpg,AMSA14.jpg,MS,2,num_8,32,num_6,1.16674006265,,,2017_Mar_28_1847,60.0129542336,FEMA4ImagesEEG,001,200035,
AFNE01.JPG,AFNE01.JPG,AFNE01.JPG,AFNE01.JPG,AFNE01.JPG,AFNE01.JPG,,,,,1,7,17,2,,,,,,,,,,,,,,,,,,,AMNE06.jpg,AMSA07.jpg,AMSA12.jpg,AMNE08.jpg,AMNE08.jpg,MN,1,num_4,16,num_4,0.800007569371,,,2017_Mar_28_1847,60.0129542336,FEMA4ImagesEEG,001,200035,
AFNE01.JPG,AFNE01.JPG,AFNE01.JPG,AFNE01.JPG,AFNE01.JPG,AFNE01.JPG,,,,,1,8,18,6,,,,,,,,,,,,,,,,,,,AMSA08.jpg,AMNE13.jpg,AMSA06.jpg,AMNE07.jpg,AMNE13.jpg,MN,1,num_6,32,num_8,0.916749765049,,,2017_Mar_28_1847,60.0129542336,FEMA4ImagesEEG,001,200035,
AFNE01.JPG,AFNE01.JPG,AFNE01.JPG,AFNE01.JPG,AFNE01.JPG,AFNE01.JPG,,,,,1,9,19,4,,,,,,,,,,,,,,,,,,,AMNE17.jpg,AMNE07.jpg,AMSA08.jpg,AMSA09.jpg,AMNE07.jpg,MN,1,num_6,32,num_4,1.36673570052,,,2017_Mar_28_1847,60.0129542336,FEMA4ImagesEEG,001,200035,
AFNE01.JPG,AFNE01.JPG,AFNE01.JPG,AFNE01.JPG,AFNE01.JPG,AFNE01.JPG,,,,,2,0,20,0,,,,,,,,,,,,,,,,,,,AMSA15.jpg,AMSA11.jpg,AMNE19.jpg,AMNE18.jpg,AMSA11.jpg,MS,2,num_6,16,num_6,0.783496210235,,,2017_Mar_28_1847,60.0129542336,FEMA4ImagesEEG,001,200035,
AFNE01.JPG,AFNE01.JPG,AFNE01.JPG,AFNE01.JPG,AFNE01.JPG,AFNE01.JPG,,,,,2,1,21,4,,,,,,,,,,,,,,,,,,,AMNE19.jpg,AMNE03.jpg,AMSA18.jpg,AMSA20.jpg,AMSA18.jpg,MS,2,num_2,32,num_8,1.0499507183,,,2017_Mar_28_1847,60.0129542336,FEMA4ImagesEEG,001,200035,
AFNE01.JPG,AFNE01.JPG,AFNE01.JPG,AFNE01.JPG,AFNE01.JPG,AFNE01.JPG,,,,,2,2,22,1,,,,,,,,,,,,,,,,,,,AMNE08.jpg,AMNE19.jpg,AMSA20.jpg,AMSA01.jpg,AMNE08.jpg,MN,1,num_8,16,num_8,0.983432511333,,,2017_Mar_28_1847,60.0129542336,FEMA4ImagesEEG,001,200035,
AFNE01.JPG,AFNE01.JPG,AFNE01.JPG,AFNE01.JPG,AFNE01.JPG,AFNE01.JPG,,,,,2,3,23,2,,,,,,,,,,,,,,,,,,,AMSA10.jpg,AMSA02.jpg,AMNE15.jpg,AMNE19.jpg,AMSA10.jpg,MS,2,num_8,16,num_8,1.41678937641,,,2017_Mar_28_1847,60.0129542336,FEMA4ImagesEEG,001,200035,
AFNE01.JPG,AFNE01.JPG,AFNE01.JPG,AFNE01.JPG,AFNE01.JPG,AFNE01.JPG,,,,,2,4,24,7,,,,,,,,,,,,,,,,,,,AMNE04.jpg,AMSA08.jpg,AMSA12.jpg,AMNE02.jpg,AMNE02.jpg,MN,1,num_4,16,num_4,1.16676796693,,,2017_Mar_28_1847,60.0129542336,FEMA4ImagesEEG,001,200035,
AFNE01.JPG,AFNE01.JPG,AFNE01.JPG,AFNE01.JPG,AFNE01.JPG,AFNE01.JPG,,,,,2,5,25,5,,,,,,,,,,,,,,,,,,,AMNE20.jpg,AMSA09.jpg,AMNE06.jpg,AMSA17.jpg,AMNE06.jpg,MN,1,num_2,32,num_8,0.650163112208,,,2017_Mar_28_1847,60.0129542336,FEMA4ImagesEEG,001,200035,
AFNE01.JPG,AFNE01.JPG,AFNE01.JPG,AFNE01.JPG,AFNE01.JPG,AFNE01.JPG,,,,,2,6,26,3,,,,,,,,,,,,,,,,,,,AMNE18.jpg,AMNE03.jpg,AMSA08.jpg,AMSA07.jpg,AMNE03.jpg,MN,1,num_6,16,num_6,0.983486074838,,,2017_Mar_28_1847,60.0129542336,FEMA4ImagesEEG,001,200035,
AFNE01.JPG,AFNE01.JPG,AFNE01.JPG,AFNE01.JPG,AFNE01.JPG,AFNE01.JPG,,,,,2,7,27,9,,,,,,,,,,,,,,,,,,,AMSA07.jpg,AMNE07.jpg,AMNE04.jpg,AMSA18.jpg,AMSA07.jpg,MS,2,num_8,32,num_6,1.08339713386,,,2017_Mar_28_1847,60.0129542336,FEMA4ImagesEEG,001,200035,
AFNE01.JPG,AFNE01.JPG,AFNE01.JPG,AFNE01.JPG,AFNE01.JPG,AFNE01.JPG,,,,,2,8,28,6,,,,,,,,,,,,,,,,,,,AMSA02.jpg,AMNE16.jpg,AMSA15.jpg,AMNE02.jpg,AMNE02.jpg,MN,1,num_4,32,num_8,0.883512151078,,,2017_Mar_28_1847,60.0129542336,FEMA4ImagesEEG,001,200035,
AFNE01.JPG,AFNE01.JPG,AFNE01.JPG,AFNE01.JPG,AFNE01.JPG,AFNE01.JPG,,,,,2,9,29,8,,,,,,,,,,,,,,,,,,,AMSA10.jpg,AMNE11.jpg,AMNE01.jpg,AMSA17.jpg,AMNE01.jpg,MN,1,num_2,32,num_8,0.816329050809,,,2017_Mar_28_1847,60.0129542336,FEMA4ImagesEEG,001,200035,
AFNE01.JPG,AFNE01.JPG,AFNE01.JPG,AFNE01.JPG,AFNE01.JPG,AFNE01.JPG,,,,,3,0,30,2,,,,,,,,,,,,,,,,,,,AMSA05.jpg,AMSA19.jpg,AMNE09.jpg,AMNE14.jpg,AMNE09.jpg,MN,1,num_2,32,num_8,1.00014882314,,,2017_Mar_28_1847,60.0129542336,FEMA4ImagesEEG,001,200035,
AFNE01.JPG,AFNE01.JPG,AFNE01.JPG,AFNE01.JPG,AFNE01.JPG,AFNE01.JPG,,,,,3,1,31,5,,,,,,,,,,,,,,,,,,,AMNE08.jpg,AMSA12.jpg,AMSA20.jpg,AMNE17.jpg,AMSA20.jpg,MS,2,num_2,16,num_2,1.20006267249,,,2017_Mar_28_1847,60.0129542336,FEMA4ImagesEEG,001,200035,
AFNE01.JPG,AFNE01.JPG,AFNE01.JPG,AFNE01.JPG,AFNE01.JPG,AFNE01.JPG,,,,,3,2,32,7,,,,,,,,,,,,,,,,,,,AMSA10.jpg,AMNE05.jpg,AMNE01.jpg,AMSA19.jpg,AMNE01.jpg,MN,1,num_2,32,num_8,1.28315093403,,,2017_Mar_28_1847,60.0129542336,FEMA4ImagesEEG,001,200035,
AFNE01.JPG,AFNE01.JPG,AFNE01.JPG,AFNE01.JPG,AFNE01.JPG,AFNE01.JPG,,,,,3,3,33,4,,,,,,,,,,,,,,,,,,,AMNE03.jpg,AMSA09.jpg,AMSA06.jpg,AMNE09.jpg,AMSA06.jpg,MS,2,num_2,32,num_6,1.45005842275,,,2017_Mar_28_1847,60.0129542336,FEMA4ImagesEEG,001,200035,
AFNE01.JPG,AFNE01.JPG,AFNE01.JPG,AFNE01.JPG,AFNE01.JPG,AFNE01.JPG,,,,,3,4,34,8,,,,,,,,,,,,,,,,,,,AMSA15.jpg,AMNE08.jpg,AMNE02.jpg,AMSA17.jpg,AMNE08.jpg,MN,1,num_6,32,num_8,1.26661776449,,,2017_Mar_28_1847,60.0129542336,FEMA4ImagesEEG,001,200035,
AFNE01.JPG,AFNE01.JPG,AFNE01.JPG,AFNE01.JPG,AFNE01.JPG,AFNE01.JPG,,,,,3,5,35,9,,,,,,,,,,,,,,,,,,,AMSA05.jpg,AMSA03.jpg,AMNE14.jpg,AMNE09.jpg,AMNE09.jpg,MN,1,num_4,16,num_4,1.03348779085,,,2017_Mar_28_1847,60.0129542336,FEMA4ImagesEEG,001,200035,
AFNE01.JPG,AFNE01.JPG,AFNE01.JPG,AFNE01.JPG,AFNE01.JPG,AFNE01.JPG,,,,,3,6,36,0,,,,,,,,,,,,,,,,,,,AMSA09.jpg,AMSA08.jpg,AMNE09.jpg,AMNE06.jpg,AMNE06.jpg,MN,1,num_4,32,num_8,0.88349002006,,,2017_Mar_28_1847,60.0129542336,FEMA4ImagesEEG,001,200035,
AFNE01.JPG,AFNE01.JPG,AFNE01.JPG,AFNE01.JPG,AFNE01.JPG,AFNE01.JPG,,,,,3,7,37,1,,,,,,,,,,,,,,,,,,,AMSA06.jpg,AMNE01.jpg,AMNE09.jpg,AMSA07.jpg,AMSA06.jpg,MS,2,num_8,32,num_6,0.583487421973,,,2017_Mar_28_1847,60.0129542336,FEMA4ImagesEEG,001,200035,
AFNE01.JPG,AFNE01.JPG,AFNE01.JPG,AFNE01.JPG,AFNE01.JPG,AFNE01.JPG,,,,,3,8,38,6,,,,,,,,,,,,,,,,,,,AMNE18.jpg,AMNE17.jpg,AMSA01.jpg,AMSA13.jpg,AMSA01.jpg,MS,2,num_2,32,num_8,0.516793449759,,,2017_Mar_28_1847,60.0129542336,FEMA4ImagesEEG,001,200035,
AFNE01.JPG,AFNE01.JPG,AFNE01.JPG,AFNE01.JPG,AFNE01.JPG,AFNE01.JPG,,,,,3,9,39,3,,,,,,,,,,,,,,,,,,,AMNE13.jpg,AMSA20.jpg,AMSA18.jpg,AMNE03.jpg,AMSA20.jpg,MS,2,num_6,32,num_4,0.566795807215,,,2017_Mar_28_1847,60.0129542336,FEMA4ImagesEEG,001,200035,
AFNE01.JPG,AFNE01.JPG,AFNE01.JPG,AFNE01.JPG,AFNE01.JPG,AFNE01.JPG,,,,,4,0,40,1,,,,,,,,,,,,,,,,,,,AMNE11.jpg,AMSA19.jpg,AMNE17.jpg,AMSA05.jpg,AMSA19.jpg,MS,2,num_6,32,num_4,0.733398272423,,,2017_Mar_28_1847,60.0129542336,FEMA4ImagesEEG,001,200035,
AFNE01.JPG,AFNE01.JPG,AFNE01.JPG,AFNE01.JPG,AFNE01.JPG,AFNE01.JPG,,,,,4,1,41,7,,,,,,,,,,,,,,,,,,,AMSA18.jpg,AMNE06.jpg,AMSA01.jpg,AMNE14.jpg,AMNE14.jpg,MN,1,num_4,16,num_4,0.883457304561,,,2017_Mar_28_1847,60.0129542336,FEMA4ImagesEEG,001,200035,
AFNE01.JPG,AFNE01.JPG,AFNE01.JPG,AFNE01.JPG,AFNE01.JPG,AFNE01.JPG,,,,,4,2,42,2,,,,,,,,,,,,,,,,,,,AMNE04.jpg,AMSA08.jpg,AMSA17.jpg,AMNE06.jpg,AMSA17.jpg,MS,2,num_2,32,num_8,2.01670701033,,,2017_Mar_28_1847,60.0129542336,FEMA4ImagesEEG,001,200035,
AFNE01.JPG,AFNE01.JPG,AFNE01.JPG,AFNE01.JPG,AFNE01.JPG,AFNE01.JPG,,,,,4,3,43,8,,,,,,,,,,,,,,,,,,,AMNE08.jpg,AMNE15.jpg,AMSA01.jpg,AMSA11.jpg,AMSA01.jpg,MS,2,num_2,16,num_2,1.01648826583,,,2017_Mar_28_1847,60.0129542336,FEMA4ImagesEEG,001,200035,
AFNE01.JPG,AFNE01.JPG,AFNE01.JPG,AFNE01.JPG,AFNE01.JPG,AFNE01.JPG,,,,,4,4,44,6,,,,,,,,,,,,,,,,,,,AMSA15.jpg,AMSA11.jpg,AMNE18.jpg,AMNE16.jpg,AMSA15.jpg,MS,2,num_8,16,num_8,1.31674328609,,,2017_Mar_28_1847,60.0129542336,FEMA4ImagesEEG,001,200035,
AFNE01.JPG,AFNE01.JPG,AFNE01.JPG,AFNE01.JPG,AFNE01.JPG,AFNE01.JPG,,,,,4,5,45,5,,,,,,,,,,,,,,,,,,,AMNE03.jpg,AMNE19.jpg,AMSA18.jpg,AMSA01.jpg,AMNE03.jpg,MN,1,num_8,32,num_6,1.00015203061,,,2017_Mar_28_1847,60.0129542336,FEMA4ImagesEEG,001,200035,
AFNE01.JPG,AFNE01.JPG,AFNE01.JPG,AFNE01.JPG,AFNE01.JPG,AFNE01.JPG,,,,,4,6,46,9,,,,,,,,,,,,,,,,,,,AMNE18.jpg,AMSA08.jpg,AMSA03.jpg,AMNE04.jpg,AMNE04.jpg,MN,1,num_4,32,num_8,0.833479002584,,,2017_Mar_28_1847,60.0129542336,FEMA4ImagesEEG,001,200035,
AFNE01.JPG,AFNE01.JPG,AFNE01.JPG,AFNE01.JPG,AFNE01.JPG,AFNE01.JPG,,,,,4,7,47,0,,,,,,,,,,,,,,,,,,,AMSA03.jpg,AMNE12.jpg,AMNE05.jpg,AMSA04.jpg,AMNE12.jpg,MN,1,num_6,32,num_4,1.1834021695,,,2017_Mar_28_1847,60.0129542336,FEMA4ImagesEEG,001,200035,
AFNE01.JPG,AFNE01.JPG,AFNE01.JPG,AFNE01.JPG,AFNE01.JPG,AFNE01.JPG,,,,,4,8,48,3,,,,,,,,,,,,,,,,,,,AMSA10.jpg,AMNE15.jpg,AMSA20.jpg,AMNE16.jpg,AMSA20.jpg,MS,2,num_2,32,num_4,1.26662706607,,,2017_Mar_28_1847,60.0129542336,FEMA4ImagesEEG,001,200035,
AFNE01.JPG,AFNE01.JPG,AFNE01.JPG,AFNE01.JPG,AFNE01.JPG,AFNE01.JPG,,,,,4,9,49,4,,,,,,,,,,,,,,,,,,,AMSA12.jpg,AMSA05.jpg,AMNE18.jpg,AMNE01.jpg,AMSA05.jpg,MS,2,num_6,32,num_8,0.73350090906,,,2017_Mar_28_1847,60.0129542336,FEMA4ImagesEEG,001,200035,
AFNE01.JPG,AFNE01.JPG,AFNE01.JPG,AFNE01.JPG,AFNE01.JPG,AFNE01.JPG,,,,,5,0,50,2,,,,,,,,,,,,,,,,,,,AMNE14.jpg,AMSA19.jpg,AMNE20.jpg,AMSA05.jpg,AMSA19.jpg,MS,2,num_6,16,num_6,1.31672211725,,,2017_Mar_28_1847,60.0129542336,FEMA4ImagesEEG,001,200035,
AFNE01.JPG,AFNE01.JPG,AFNE01.JPG,AFNE01.JPG,AFNE01.JPG,AFNE01.JPG,,,,,5,1,51,8,,,,,,,,,,,,,,,,,,,AMSA07.jpg,AMNE14.jpg,AMNE11.jpg,AMSA16.jpg,AMNE14.jpg,MN,1,num_6,16,num_6,0.766748145223,,,2017_Mar_28_1847,60.0129542336,FEMA4ImagesEEG,001,200035,
AFNE01.JPG,AFNE01.JPG,AFNE01.JPG,AFNE01.JPG,AFNE01.JPG,AFNE01.JPG,,,,,5,2,52,4,,,,,,,,,,,,,,,,,,,AMNE01.jpg,AMSA08.jpg,AMSA07.jpg,AMNE05.jpg,AMSA07.jpg,MS,2,num_2,32,num_4,1.21677481476,,,2017_Mar_28_1847,60.0129542336,FEMA4ImagesEEG,001,200035,
AFNE01.JPG,AFNE01.JPG,AFNE01.JPG,AFNE01.JPG,AFNE01.JPG,AFNE01.JPG,,,,,5,3,53,1,,,,,,,,,,,,,,,,,,,AMSA11.jpg,AMNE09.jpg,AMSA13.jpg,AMNE07.jpg,AMSA11.jpg,MS,2,num_8,16,num_8,0.983416795149,,,2017_Mar_28_1847,60.0129542336,FEMA4ImagesEEG,001,200035,
AFNE01.JPG,AFNE01.JPG,AFNE01.JPG,AFNE01.JPG,AFNE01.JPG,AFNE01.JPG,,,,,5,4,54,6,,,,,,,,,,,,,,,,,,,AMNE08.jpg,AMSA19.jpg,AMSA02.jpg,AMNE01.jpg,AMNE01.jpg,MN,1,num_4,32,num_8,1.0998164406,,,2017_Mar_28_1847,60.0129542336,FEMA4ImagesEEG,001,200035,
AFNE01.JPG,AFNE01.JPG,AFNE01.JPG,AFNE01.JPG,AFNE01.JPG,AFNE01.JPG,,,,,5,5,55,9,,,,,,,,,,,,,,,,,,,AMSA18.jpg,AMNE15.jpg,AMNE18.jpg,AMSA08.jpg,AMNE18.jpg,MN,1,num_2,32,num_8,0.767075941316,,,2017_Mar_28_1847,60.0129542336,FEMA4ImagesEEG,001,200035,
AFNE01.JPG,AFNE01.JPG,AFNE01.JPG,AFNE01.JPG,AFNE01.JPG,AFNE01.JPG,,,,,5,6,56,5,,,,,,,,,,,,,,,,,,,AMNE05.jpg,AMSA18.jpg,AMSA10.jpg,AMNE06.jpg,AMSA18.jpg,MS,2,num_6,16,num_6,0.933454850921,,,2017_Mar_28_1847,60.0129542336,FEMA4ImagesEEG,001,200035,
AFNE01.JPG,AFNE01.JPG,AFNE01.JPG,AFNE01.JPG,AFNE01.JPG,AFNE01.JPG,,,,,5,7,57,3,,,,,,,,,,,,,,,,,,,AMNE11.jpg,AMSA11.jpg,AMSA06.jpg,AMNE04.jpg,AMSA11.jpg,MS,2,num_6,16,num_6,1.08339809603,,,2017_Mar_28_1847,60.0129542336,FEMA4ImagesEEG,001,200035,
AFNE01.JPG,AFNE01.JPG,AFNE01.JPG,AFNE01.JPG,AFNE01.JPG,AFNE01.JPG,,,,,5,8,58,7,,,,,,,,,,,,,,,,,,,AMSA06.jpg,AMNE13.jpg,AMNE03.jpg,AMSA11.jpg,AMNE03.jpg,MN,1,num_2,32,num_4,1.60007640021,,,2017_Mar_28_1847,60.0129542336,FEMA4ImagesEEG,001,200035,
AFNE01.JPG,AFNE01.JPG,AFNE01.JPG,AFNE01.JPG,AFNE01.JPG,AFNE01.JPG,,,,,5,9,59,0,,,,,,,,,,,,,,,,,,,AMSA01.jpg,AMSA17.jpg,AMNE20.jpg,AMNE04.jpg,AMSA01.jpg,MS,2,num_8,16,num_8,1.25011955563,,,2017_Mar_28_1847,60.0129542336,FEMA4ImagesEEG,001,200035,
,,,,,,,,,,,,,,,,,,,,,,,,,,,,,,,,,,,,,,,,,,,space,41.396974719,2017_Mar_28_1847,60.0129542336,FEMA4ImagesEEG,001,200035,
AFNE01.JPG,AFNE01.JPG,AFNE01.JPG,AFNE01.JPG,AFNE01.JPG,AFNE01.JPG,,,,,,,,,0,0,0,5,,,,,,,,,,,,,,,AFNE12.jpg,AFNE04.jpg,AFSA10.jpg,AFSA03.jpg,AFNE04.jpg,FN,3,num_6,32,num_8,0.71683463268,,,2017_Mar_28_1847,60.0129542336,FEMA4ImagesEEG,001,200035,
AFNE01.JPG,AFNE01.JPG,AFNE01.JPG,AFNE01.JPG,AFNE01.JPG,AFNE01.JPG,,,,,,,,,0,1,1,6,,,,,,,,,,,,,,,AFNE10.jpg,AFSA04.jpg,AFNE04.jpg,AFSA11.jpg,AFSA11.jpg,FS,4,num_4,32,num_6,0.583455348038,,,2017_Mar_28_1847,60.0129542336,FEMA4ImagesEEG,001,200035,
AFNE01.JPG,AFNE01.JPG,AFNE01.JPG,AFNE01.JPG,AFNE01.JPG,AFNE01.JPG,,,,,,,,,0,2,2,4,,,,,,,,,,,,,,,AFNE02.jpg,AFSA11.jpg,AFSA15.jpg,AFNE17.jpg,AFSA11.jpg,FS,4,num_6,32,num_4,0.633471497335,,,2017_Mar_28_1847,60.0129542336,FEMA4ImagesEEG,001,200035,
AFNE01.JPG,AFNE01.JPG,AFNE01.JPG,AFNE01.JPG,AFNE01.JPG,AFNE01.JPG,,,,,,,,,0,3,3,8,,,,,,,,,,,,,,,AFNE04.jpg,AFSA18.jpg,AFSA19.jpg,AFNE13.jpg,AFSA19.jpg,FS,4,num_2,32,num_8,0.616800089017,,,2017_Mar_28_1847,60.0129542336,FEMA4ImagesEEG,001,200035,
AFNE01.JPG,AFNE01.JPG,AFNE01.JPG,AFNE01.JPG,AFNE01.JPG,AFNE01.JPG,,,,,,,,,0,4,4,3,,,,,,,,,,,,,,,AFNE04.jpg,AFSA15.jpg,AFNE05.jpg,AFSA20.jpg,AFNE04.jpg,FN,3,num_8,32,num_4,0.983409418142,,,2017_Mar_28_1847,60.0129542336,FEMA4ImagesEEG,001,200035,
AFNE01.JPG,AFNE01.JPG,AFNE01.JPG,AFNE01.JPG,AFNE01.JPG,AFNE01.JPG,,,,,,,,,0,5,5,9,,,,,,,,,,,,,,,AFNE18.jpg,AFSA12.jpg,AFNE20.jpg,AFSA09.jpg,AFSA09.jpg,FS,4,num_4,32,num_8,0.750116829411,,,2017_Mar_28_1847,60.0129542336,FEMA4ImagesEEG,001,200035,
AFNE01.JPG,AFNE01.JPG,AFNE01.JPG,AFNE01.JPG,AFNE01.JPG,AFNE01.JPG,,,,,,,,,0,6,6,0,,,,,,,,,,,,,,,AFSA10.jpg,AFNE11.jpg,AFNE09.jpg,AFSA04.jpg,AFNE09.jpg,FN,3,num_2,32,num_8,0.916780876811,,,2017_Mar_28_1847,60.0129542336,FEMA4ImagesEEG,001,200035,
AFNE01.JPG,AFNE01.JPG,AFNE01.JPG,AFNE01.JPG,AFNE01.JPG,AFNE01.JPG,,,,,,,,,0,7,7,2,,,,,,,,,,,,,,,AFSA18.jpg,AFNE20.jpg,AFNE07.jpg,AFSA16.jpg,AFNE07.jpg,FN,3,num_2,32,num_6,0.783463174012,,,2017_Mar_28_1847,60.0129542336,FEMA4ImagesEEG,001,200035,
AFNE01.JPG,AFNE01.JPG,AFNE01.JPG,AFNE01.JPG,AFNE01.JPG,AFNE01.JPG,,,,,,,,,0,8,8,1,,,,,,,,,,,,,,,AFSA03.jpg,AFNE17.jpg,AFNE04.jpg,AFSA07.jpg,AFSA03.jpg,FS,4,num_8,16,num_8,1.46674875473,,,2017_Mar_28_1847,60.0129542336,FEMA4ImagesEEG,001,200035,
AFNE01.JPG,AFNE01.JPG,AFNE01.JPG,AFNE01.JPG,AFNE01.JPG,AFNE01.JPG,,,,,,,,,0,9,9,7,,,,,,,,,,,,,,,AFSA05.jpg,AFNE10.jpg,AFNE13.jpg,AFSA10.jpg,AFSA10.jpg,FS,4,num_4,32,num_6,1.20011142502,,,2017_Mar_28_1847,60.0129542336,FEMA4ImagesEEG,001,200035,
AFNE01.JPG,AFNE01.JPG,AFNE01.JPG,AFNE01.JPG,AFNE01.JPG,AFNE01.JPG,,,,,,,,,1,0,10,8,,,,,,,,,,,,,,,AFSA04.jpg,AFSA02.jpg,AFNE20.jpg,AFNE03.jpg,AFNE03.jpg,FN,3,num_4,16,num_4,2.33337556408,,,2017_Mar_28_1847,60.0129542336,FEMA4ImagesEEG,001,200035,
AFNE01.JPG,AFNE01.JPG,AFNE01.JPG,AFNE01.JPG,AFNE01.JPG,AFNE01.JPG,,,,,,,,,1,1,11,2,,,,,,,,,,,,,,,AFSA05.jpg,AFNE20.jpg,AFSA12.jpg,AFNE04.jpg,AFSA12.jpg,FS,4,num_2,32,num_8,0.850139184971,,,2017_Mar_28_1847,60.0129542336,FEMA4ImagesEEG,001,200035,
AFNE01.JPG,AFNE01.JPG,AFNE01.JPG,AFNE01.JPG,AFNE01.JPG,AFNE01.JPG,,,,,,,,,1,2,12,9,,,,,,,,,,,,,,,AFNE18.jpg,AFSA10.jpg,AFNE05.jpg,AFSA16.jpg,AFSA10.jpg,FS,4,num_6,32,num_4,0.650153169292,,,2017_Mar_28_1847,60.0129542336,FEMA4ImagesEEG,001,200035,
AFNE01.JPG,AFNE01.JPG,AFNE01.JPG,AFNE01.JPG,AFNE01.JPG,AFNE01.JPG,,,,,,,,,1,3,13,3,,,,,,,,,,,,,,,AFSA13.jpg,AFNE15.jpg,AFNE16.jpg,AFSA14.jpg,AFSA13.jpg,FS,4,num_8,32,num_6,0.75010624493,,,2017_Mar_28_1847,60.0129542336,FEMA4ImagesEEG,001,200035,
AFNE01.JPG,AFNE01.JPG,AFNE01.JPG,AFNE01.JPG,AFNE01.JPG,AFNE01.JPG,,,,,,,,,1,4,14,5,,,,,,,,,,,,,,,AFNE07.jpg,AFSA05.jpg,AFNE09.jpg,AFSA15.jpg,AFSA05.jpg,FS,4,num_6,32,num_8,1.03336462681,,,2017_Mar_28_1847,60.0129542336,FEMA4ImagesEEG,001,200035,
AFNE01.JPG,AFNE01.JPG,AFNE01.JPG,AFNE01.JPG,AFNE01.JPG,AFNE01.JPG,,,,,,,,,1,5,15,0,,,,,,,,,,,,,,,AFSA17.jpg,AFSA15.jpg,AFNE08.jpg,AFNE02.jpg,AFSA17.jpg,FS,4,num_8,32,num_4,1.1001577077,,,2017_Mar_28_1847,60.0129542336,FEMA4ImagesEEG,001,200035,
AFNE01.JPG,AFNE01.JPG,AFNE01.JPG,AFNE01.JPG,AFNE01.JPG,AFNE01.JPG,,,,,,,,,1,6,16,1,,,,,,,,,,,,,,,AFNE14.jpg,AFSA14.jpg,AFNE11.jpg,AFSA10.jpg,AFNE14.jpg,FN,3,num_8,16,num_8,0.833501133719,,,2017_Mar_28_1847,60.0129542336,FEMA4ImagesEEG,001,200035,
AFNE01.JPG,AFNE01.JPG,AFNE01.JPG,AFNE01.JPG,AFNE01.JPG,AFNE01.JPG,,,,,,,,,1,7,17,6,,,,,,,,,,,,,,,AFSA19.jpg,AFSA07.jpg,AFNE11.jpg,AFNE16.jpg,AFNE11.jpg,FN,3,num_2,32,num_8,1.10014551959,,,2017_Mar_28_1847,60.0129542336,FEMA4ImagesEEG,001,200035,
AFNE01.JPG,AFNE01.JPG,AFNE01.JPG,AFNE01.JPG,AFNE01.JPG,AFNE01.JPG,,,,,,,,,1,8,18,7,,,,,,,,,,,,,,,AFNE19.jpg,AFNE09.jpg,AFSA11.jpg,AFSA09.jpg,AFNE19.jpg,FN,3,num_8,32,num_6,0.749900971539,,,2017_Mar_28_1847,60.0129542336,FEMA4ImagesEEG,001,200035,
AFNE01.JPG,AFNE01.JPG,AFNE01.JPG,AFNE01.JPG,AFNE01.JPG,AFNE01.JPG,,,,,,,,,1,9,19,4,,,,,,,,,,,,,,,AFNE03.jpg,AFSA13.jpg,AFNE12.jpg,AFSA09.jpg,AFSA13.jpg,FS,4,num_6,32,num_8,0.800155109726,,,2017_Mar_28_1847,60.0129542336,FEMA4ImagesEEG,001,200035,
AFNE01.JPG,AFNE01.JPG,AFNE01.JPG,AFNE01.JPG,AFNE01.JPG,AFNE01.JPG,,,,,,,,,2,0,20,3,,,,,,,,,,,,,,,AFSA08.jpg,AFSA09.jpg,AFNE05.jpg,AFNE13.jpg,AFSA09.jpg,FS,4,num_6,32,num_4,0.883346007788,,,2017_Mar_28_1847,60.0129542336,FEMA4ImagesEEG,001,200035,
AFNE01.JPG,AFNE01.JPG,AFNE01.JPG,AFNE01.JPG,AFNE01.JPG,AFNE01.JPG,,,,,,,,,2,1,21,5,,,,,,,,,,,,,,,AFNE04.jpg,AFSA14.jpg,AFNE18.jpg,AFSA05.jpg,AFNE18.jpg,FN,3,num_2,32,num_8,0.616819654126,,,2017_Mar_28_1847,60.0129542336,FEMA4ImagesEEG,001,200035,
AFNE01.JPG,AFNE01.JPG,AFNE01.JPG,AFNE01.JPG,AFNE01.JPG,AFNE01.JPG,,,,,,,,,2,2,22,9,,,,,,,,,,,,,,,AFNE12.jpg,AFSA04.jpg,AFNE19.jpg,AFSA11.jpg,AFNE12.jpg,FN,3,num_8,16,num_8,0.85018056049,,,2017_Mar_28_1847,60.0129542336,FEMA4ImagesEEG,001,200035,
AFNE01.JPG,AFNE01.JPG,AFNE01.JPG,AFNE01.JPG,AFNE01.JPG,AFNE01.JPG,,,,,,,,,2,3,23,0,,,,,,,,,,,,,,,AFNE20.jpg,AFSA11.jpg,AFNE02.jpg,AFSA13.jpg,AFSA11.jpg,FS,4,num_6,16,num_6,1.03348394204,,,2017_Mar_28_1847,60.0129542336,FEMA4ImagesEEG,001,200035,
AFNE01.JPG,AFNE01.JPG,AFNE01.JPG,AFNE01.JPG,AFNE01.JPG,AFNE01.JPG,,,,,,,,,2,4,24,7,,,,,,,,,,,,,,,AFNE15.jpg,AFNE02.jpg,AFSA10.jpg,AFSA06.jpg,AFSA06.jpg,FS,4,num_4,32,num_6,0.916767726419,,,2017_Mar_28_1847,60.0129542336,FEMA4ImagesEEG,001,200035,
AFNE01.JPG,AFNE01.JPG,AFNE01.JPG,AFNE01.JPG,AFNE01.JPG,AFNE01.JPG,,,,,,,,,2,5,25,1,,,,,,,,,,,,,,,AFNE13.jpg,AFNE04.jpg,AFSA11.jpg,AFSA04.jpg,AFSA04.jpg,FS,4,num_4,16,num_4,1.01677532797,,,2017_Mar_28_1847,60.0129542336,FEMA4ImagesEEG,001,200035,
AFNE01.JPG,AFNE01.JPG,AFNE01.JPG,AFNE01.JPG,AFNE01.JPG,AFNE01.JPG,,,,,,,,,2,6,26,2,,,,,,,,,,,,,,,AFSA15.jpg,AFNE07.jpg,AFSA13.jpg,AFNE08.jpg,AFSA13.jpg,FS,4,num_2,32,num_8,1.11671397043,,,2017_Mar_28_1847,60.0129542336,FEMA4ImagesEEG,001,200035,
AFNE01.JPG,AFNE01.JPG,AFNE01.JPG,AFNE01.JPG,AFNE01.JPG,AFNE01.JPG,,,,,,,,,2,7,27,6,,,,,,,,,,,,,,,AFSA18.jpg,AFSA13.jpg,AFNE06.jpg,AFNE05.jpg,AFNE06.jpg,FN,3,num_2,16,num_2,1.76655858813,,,2017_Mar_28_1847,60.0129542336,FEMA4ImagesEEG,001,200035,
AFNE01.JPG,AFNE01.JPG,AFNE01.JPG,AFNE01.JPG,AFNE01.JPG,AFNE01.JPG,,,,,,,,,2,8,28,4,,,,,,,,,,,,,,,AFSA10.jpg,AFNE11.jpg,AFSA01.jpg,AFNE05.jpg,AFNE05.jpg,FN,3,num_4,32,num_8,1.00013342779,,,2017_Mar_28_1847,60.0129542336,FEMA4ImagesEEG,001,200035,
AFNE01.JPG,AFNE01.JPG,AFNE01.JPG,AFNE01.JPG,AFNE01.JPG,AFNE01.JPG,,,,,,,,,2,9,29,8,,,,,,,,,,,,,,,AFNE16.jpg,AFSA16.jpg,AFSA08.jpg,AFNE12.jpg,AFNE12.jpg,FN,3,num_4,32,num_8,0.899861215963,,,2017_Mar_28_1847,60.0129542336,FEMA4ImagesEEG,001,200035,
AFNE01.JPG,AFNE01.JPG,AFNE01.JPG,AFNE01.JPG,AFNE01.JPG,AFNE01.JPG,,,,,,,,,3,0,30,7,,,,,,,,,,,,,,,AFSA15.jpg,AFNE14.jpg,AFSA11.jpg,AFNE07.jpg,AFSA15.jpg,FS,4,num_8,16,num_8,0.833512038807,,,2017_Mar_28_1847,60.0129542336,FEMA4ImagesEEG,001,200035,
AFNE01.JPG,AFNE01.JPG,AFNE01.JPG,AFNE01.JPG,AFNE01.JPG,AFNE01.JPG,,,,,,,,,3,1,31,5,,,,,,,,,,,,,,,AFSA02.jpg,AFSA17.jpg,AFNE01.jpg,AFNE04.jpg,AFNE04.jpg,FN,3,num_4,32,num_2,0.833453984931,,,2017_Mar_28_1847,60.0129542336,FEMA4ImagesEEG,001,200035,
AFNE01.JPG,AFNE01.JPG,AFNE01.JPG,AFNE01.JPG,AFNE01.JPG,AFNE01.JPG,,,,,,,,,3,2,32,4,,,,,,,,,,,,,,,AFSA20.jpg,AFNE12.jpg,AFSA11.jpg,AFNE17.jpg,AFSA20.jpg,FS,4,num_8,32,num_4,0.966812421568,,,2017_Mar_28_1847,60.0129542336,FEMA4ImagesEEG,001,200035,
AFNE01.JPG,AFNE01.JPG,AFNE01.JPG,AFNE01.JPG,AFNE01.JPG,AFNE01.JPG,,,,,,,,,3,3,33,1,,,,,,,,,,,,,,,AFNE17.jpg,AFSA02.jpg,AFNE12.jpg,AFSA15.jpg,AFNE12.jpg,FN,3,num_2,32,num_8,0.633436536649,,,2017_Mar_28_1847,60.0129542336,FEMA4ImagesEEG,001,200035,
AFNE01.JPG,AFNE01.JPG,AFNE01.JPG,AFNE01.JPG,AFNE01.JPG,AFNE01.JPG,,,,,,,,,3,4,34,9,,,,,,,,,,,,,,,AFSA03.jpg,AFNE13.jpg,AFSA12.jpg,AFNE10.jpg,AFNE13.jpg,FN,3,num_6,32,num_8,0.833500171429,,,2017_Mar_28_1847,60.0129542336,FEMA4ImagesEEG,001,200035,
AFNE01.JPG,AFNE01.JPG,AFNE01.JPG,AFNE01.JPG,AFNE01.JPG,AFNE01.JPG,,,,,,,,,3,5,35,2,,,,,,,,,,,,,,,AFNE19.jpg,AFSA12.jpg,AFNE01.jpg,AFSA17.jpg,AFSA12.jpg,FS,4,num_6,16,num_6,0.833449494676,,,2017_Mar_28_1847,60.0129542336,FEMA4ImagesEEG,001,200035,
AFNE01.JPG,AFNE01.JPG,AFNE01.JPG,AFNE01.JPG,AFNE01.JPG,AFNE01.JPG,,,,,,,,,3,6,36,0,,,,,,,,,,,,,,,AFNE09.jpg,AFNE17.jpg,AFSA10.jpg,AFSA01.jpg,AFSA01.jpg,FS,4,num_4,32,num_8,0.900124864071,,,2017_Mar_28_1847,60.0129542336,FEMA4ImagesEEG,001,200035,
AFNE01.JPG,AFNE01.JPG,AFNE01.JPG,AFNE01.JPG,AFNE01.JPG,AFNE01.JPG,,,,,,,,,3,7,37,3,,,,,,,,,,,,,,,AFNE04.jpg,AFSA13.jpg,AFSA05.jpg,AFNE13.jpg,AFNE04.jpg,FN,3,num_8,16,num_8,0.783460928942,,,2017_Mar_28_1847,60.0129542336,FEMA4ImagesEEG,001,200035,
AFNE01.JPG,AFNE01.JPG,AFNE01.JPG,AFNE01.JPG,AFNE01.JPG,AFNE01.JPG,,,,,,,,,3,8,38,6,,,,,,,,,,,,,,,AFNE17.jpg,AFSA12.jpg,AFNE11.jpg,AFSA15.jpg,AFNE11.jpg,FN,3,num_2,32,num_8,1.13343797997,,,2017_Mar_28_1847,60.0129542336,FEMA4ImagesEEG,001,200035,
AFNE01.JPG,AFNE01.JPG,AFNE01.JPG,AFNE01.JPG,AFNE01.JPG,AFNE01.JPG,,,,,,,,,3,9,39,8,,,,,,,,,,,,,,,AFSA11.jpg,AFSA06.jpg,AFNE14.jpg,AFNE01.jpg,AFNE14.jpg,FN,3,num_2,32,num_4,1.85011095996,,,2017_Mar_28_1847,60.0129542336,FEMA4ImagesEEG,001,200035,
AFNE01.JPG,AFNE01.JPG,AFNE01.JPG,AFNE01.JPG,AFNE01.JPG,AFNE01.JPG,,,,,,,,,4,0,40,7,,,,,,,,,,,,,,,AFNE06.jpg,AFSA10.jpg,AFNE09.jpg,AFSA07.jpg,AFSA10.jpg,FS,4,num_6,32,num_8,2.71634229727,,,2017_Mar_28_1847,60.0129542336,FEMA4ImagesEEG,001,200035,
AFNE01.JPG,AFNE01.JPG,AFNE01.JPG,AFNE01.JPG,AFNE01.JPG,AFNE01.JPG,,,,,,,,,4,1,41,4,,,,,,,,,,,,,,,AFNE17.jpg,AFSA07.jpg,AFNE09.jpg,AFSA06.jpg,AFSA07.jpg,FS,4,num_6,16,num_6,1.13342194294,,,2017_Mar_28_1847,60.0129542336,FEMA4ImagesEEG,001,200035,
AFNE01.JPG,AFNE01.JPG,AFNE01.JPG,AFNE01.JPG,AFNE01.JPG,AFNE01.JPG,,,,,,,,,4,2,42,2,,,,,,,,,,,,,,,AFSA18.jpg,AFNE12.jpg,AFNE13.jpg,AFSA08.jpg,AFSA18.jpg,FS,4,num_8,16,num_8,1.91674591601,,,2017_Mar_28_1847,60.0129542336,FEMA4ImagesEEG,001,200035,
AFNE01.JPG,AFNE01.JPG,AFNE01.JPG,AFNE01.JPG,AFNE01.JPG,AFNE01.JPG,,,,,,,,,4,3,43,6,,,,,,,,,,,,,,,AFSA07.jpg,AFSA03.jpg,AFNE11.jpg,AFNE05.jpg,AFSA07.jpg,FS,4,num_8,16,num_8,0.966780347517,,,2017_Mar_28_1847,60.0129542336,FEMA4ImagesEEG,001,200035,
AFNE01.JPG,AFNE01.JPG,AFNE01.JPG,AFNE01.JPG,AFNE01.JPG,AFNE01.JPG,,,,,,,,,4,4,44,1,,,,,,,,,,,,,,,AFSA04.jpg,AFNE05.jpg,AFNE10.jpg,AFSA06.jpg,AFSA06.jpg,FS,4,num_4,32,num_6,1.48340380518,,,2017_Mar_28_1847,60.0129542336,FEMA4ImagesEEG,001,200035,
AFNE01.JPG,AFNE01.JPG,AFNE01.JPG,AFNE01.JPG,AFNE01.JPG,AFNE01.JPG,,,,,,,,,4,5,45,0,,,,,,,,,,,,,,,AFSA20.jpg,AFNE11.jpg,AFSA17.jpg,AFNE15.jpg,AFSA20.jpg,FS,4,num_8,32,num_4,0.833319594967,,,2017_Mar_28_1847,60.0129542336,FEMA4ImagesEEG,001,200035,
AFNE01.JPG,AFNE01.JPG,AFNE01.JPG,AFNE01.JPG,AFNE01.JPG,AFNE01.JPG,,,,,,,,,4,6,46,5,,,,,,,,,,,,,,,AFSA12.jpg,AFNE18.jpg,AFSA05.jpg,AFNE04.jpg,AFSA05.jpg,FS,4,num_2,32,num_8,0.966772008338,,,2017_Mar_28_1847,60.0129542336,FEMA4ImagesEEG,001,200035,
AFNE01.JPG,AFNE01.JPG,AFNE01.JPG,AFNE01.JPG,AFNE01.JPG,AFNE01.JPG,,,,,,,,,4,7,47,9,,,,,,,,,,,,,,,AFSA08.jpg,AFNE19.jpg,AFSA20.jpg,AFNE17.jpg,AFNE17.jpg,FN,3,num_4,32,num_8,0.550167378038,,,2017_Mar_28_1847,60.0129542336,FEMA4ImagesEEG,001,200035,
AFNE01.JPG,AFNE01.JPG,AFNE01.JPG,AFNE01.JPG,AFNE01.JPG,AFNE01.JPG,,,,,,,,,4,8,48,3,,,,,,,,,,,,,,,AFSA20.jpg,AFNE09.jpg,AFSA04.jpg,AFNE16.jpg,AFSA20.jpg,FS,4,num_8,32,num_4,0.899984379997,,,2017_Mar_28_1847,60.0129542336,FEMA4ImagesEEG,001,200035,
AFNE01.JPG,AFNE01.JPG,AFNE01.JPG,AFNE01.JPG,AFNE01.JPG,AFNE01.JPG,,,,,,,,,4,9,49,8,,,,,,,,,,,,,,,AFSA02.jpg,AFNE06.jpg,AFSA06.jpg,AFNE20.jpg,AFNE20.jpg,FN,3,num_4,32,num_8,1.01674581994,,,2017_Mar_28_1847,60.0129542336,FEMA4ImagesEEG,001,200035,
AFNE01.JPG,AFNE01.JPG,AFNE01.JPG,AFNE01.JPG,AFNE01.JPG,AFNE01.JPG,,,,,,,,,5,0,50,3,,,,,,,,,,,,,,,AFNE19.jpg,AFSA03.jpg,AFSA14.jpg,AFNE04.jpg,AFSA03.jpg,FS,4,num_6,16,num_6,1.26672360871,,,2017_Mar_28_1847,60.0129542336,FEMA4ImagesEEG,001,200035,
AFNE01.JPG,AFNE01.JPG,AFNE01.JPG,AFNE01.JPG,AFNE01.JPG,AFNE01.JPG,,,,,,,,,5,1,51,7,,,,,,,,,,,,,,,AFSA04.jpg,AFNE04.jpg,AFNE08.jpg,AFSA18.jpg,AFSA18.jpg,FS,4,num_4,32,num_8,1.21674562746,,,2017_Mar_28_1847,60.0129542336,FEMA4ImagesEEG,001,200035,
AFNE01.JPG,AFNE01.JPG,AFNE01.JPG,AFNE01.JPG,AFNE01.JPG,AFNE01.JPG,,,,,,,,,5,2,52,9,,,,,,,,,,,,,,,AFSA11.jpg,AFNE10.jpg,AFNE20.jpg,AFSA14.jpg,AFNE20.jpg,FN,3,num_2,32,num_8,0.933449719101,,,2017_Mar_28_1847,60.0129542336,FEMA4ImagesEEG,001,200035,
AFNE01.JPG,AFNE01.JPG,AFNE01.JPG,AFNE01.JPG,AFNE01.JPG,AFNE01.JPG,,,,,,,,,5,3,53,4,,,,,,,,,,,,,,,AFNE14.jpg,AFSA03.jpg,AFSA05.jpg,AFNE01.jpg,AFSA03.jpg,FS,4,num_6,32,num_4,1.06705833261,,,2017_Mar_28_1847,60.0129542336,FEMA4ImagesEEG,001,200035,
AFNE01.JPG,AFNE01.JPG,AFNE01.JPG,AFNE01.JPG,AFNE01.JPG,AFNE01.JPG,,,,,,,,,5,4,54,2,,,,,,,,,,,,,,,AFNE09.jpg,AFNE10.jpg,AFSA10.jpg,AFSA07.jpg,AFSA10.jpg,FS,4,num_2,32,num_8,1.16665121762,,,2017_Mar_28_1847,60.0129542336,FEMA4ImagesEEG,001,200035,
AFNE01.JPG,AFNE01.JPG,AFNE01.JPG,AFNE01.JPG,AFNE01.JPG,AFNE01.JPG,,,,,,,,,5,5,55,6,,,,,,,,,,,,,,,AFSA10.jpg,AFSA05.jpg,AFNE10.jpg,AFNE18.jpg,AFNE18.jpg,FN,3,num_4,16,num_4,0.73353362456,,,2017_Mar_28_1847,60.0129542336,FEMA4ImagesEEG,001,200035,
AFNE01.JPG,AFNE01.JPG,AFNE01.JPG,AFNE01.JPG,AFNE01.JPG,AFNE01.JPG,,,,,,,,,5,6,56,1,,,,,,,,,,,,,,,AFSA06.jpg,AFNE07.jpg,AFSA02.jpg,AFNE08.jpg,AFNE07.jpg,FN,3,num_6,16,num_6,0.683521965751,,,2017_Mar_28_1847,60.0129542336,FEMA4ImagesEEG,001,200035,
AFNE01.JPG,AFNE01.JPG,AFNE01.JPG,AFNE01.JPG,AFNE01.JPG,AFNE01.JPG,,,,,,,,,5,7,57,8,,,,,,,,,,,,,,,AFNE19.jpg,AFNE16.jpg,AFSA19.jpg,AFSA08.jpg,AFSA08.jpg,FS,4,num_4,32,num_2,1.76668977062,,,2017_Mar_28_1847,60.0129542336,FEMA4ImagesEEG,001,200035,
AFNE01.JPG,AFNE01.JPG,AFNE01.JPG,AFNE01.JPG,AFNE01.JPG,AFNE01.JPG,,,,,,,,,5,8,58,5,,,,,,,,,,,,,,,AFNE07.jpg,AFSA05.jpg,AFSA15.jpg,AFNE20.jpg,AFNE07.jpg,FN,3,num_8,16,num_8,0.866780764423,,,2017_Mar_28_1847,60.0129542336,FEMA4ImagesEEG,001,200035,
AFNE01.JPG,AFNE01.JPG,AFNE01.JPG,AFNE01.JPG,AFNE01.JPG,AFNE01.JPG,,,,,,,,,5,9,59,0,,,,,,,,,,,,,,,AFSA10.jpg,AFNE15.jpg,AFSA02.jpg,AFNE11.jpg,AFNE15.jpg,FN,3,num_6,32,num_8,1.01677276206,,,2017_Mar_28_1847,60.0129542336,FEMA4ImagesEEG,001,200035,
,,,,,,,,,,,,,,,,,,,,,,,,,,,,,,,,,,,,,,,,,,,space,43.9800281802,2017_Mar_28_1847,60.0129542336,FEMA4ImagesEEG,001,200035,
AFNE01.JPG,AFNE01.JPG,AFNE01.JPG,AFNE01.JPG,AFNE01.JPG,AFNE01.JPG,,,,,,,,,,,,,0,0,0,2,,,,,,,,,,,AMSA17.jpg,AMNE11.jpg,AMNE20.jpg,AMSA05.jpg,AMSA05.jpg,MS,2,num_4,32,num_2,1.06668306713,,,2017_Mar_28_1847,60.0129542336,FEMA4ImagesEEG,001,200035,
AFNE01.JPG,AFNE01.JPG,AFNE01.JPG,AFNE01.JPG,AFNE01.JPG,AFNE01.JPG,,,,,,,,,,,,,0,1,1,7,,,,,,,,,,,AMNE20.jpg,AMSA11.jpg,AMNE11.jpg,AMSA06.jpg,AMSA06.jpg,MS,2,num_4,16,num_4,0.700183751876,,,2017_Mar_28_1847,60.0129542336,FEMA4ImagesEEG,001,200035,
AFNE01.JPG,AFNE01.JPG,AFNE01.JPG,AFNE01.JPG,AFNE01.JPG,AFNE01.JPG,,,,,,,,,,,,,0,2,2,1,,,,,,,,,,,AMNE08.jpg,AMSA09.jpg,AMSA01.jpg,AMNE09.jpg,AMNE09.jpg,MN,1,num_4,32,num_8,0.866758312681,,,2017_Mar_28_1847,60.0129542336,FEMA4ImagesEEG,001,200035,
AFNE01.JPG,AFNE01.JPG,AFNE01.JPG,AFNE01.JPG,AFNE01.JPG,AFNE01.JPG,,,,,,,,,,,,,0,3,3,9,,,,,,,,,,,AMNE17.jpg,AMSA08.jpg,AMSA10.jpg,AMNE08.jpg,AMNE08.jpg,MN,1,num_4,32,num_8,0.783184772008,,,2017_Mar_28_1847,60.0129542336,FEMA4ImagesEEG,001,200035,
AFNE01.JPG,AFNE01.JPG,AFNE01.JPG,AFNE01.JPG,AFNE01.JPG,AFNE01.JPG,,,,,,,,,,,,,0,4,4,6,,,,,,,,,,,AMNE11.jpg,AMSA17.jpg,AMNE02.jpg,AMSA19.jpg,AMSA19.jpg,MS,2,num_4,32,num_6,1.00011001364,,,2017_Mar_28_1847,60.0129542336,FEMA4ImagesEEG,001,200035,
AFNE01.JPG,AFNE01.JPG,AFNE01.JPG,AFNE01.JPG,AFNE01.JPG,AFNE01.JPG,,,,,,,,,,,,,0,5,5,0,,,,,,,,,,,AMNE20.jpg,AMNE18.jpg,AMSA09.jpg,AMSA01.jpg,AMNE20.jpg,MN,1,num_8,32,num_4,1.95004671579,,,2017_Mar_28_1847,60.0129542336,FEMA4ImagesEEG,001,200035,
AFNE01.JPG,AFNE01.JPG,AFNE01.JPG,AFNE01.JPG,AFNE01.JPG,AFNE01.JPG,,,,,,,,,,,,,0,6,6,3,,,,,,,,,,,AMNE13.jpg,AMSA02.jpg,AMNE06.jpg,AMSA05.jpg,AMNE13.jpg,MN,1,num_8,16,num_8,0.816809839453,,,2017_Mar_28_1847,60.0129542336,FEMA4ImagesEEG,001,200035,
AFNE01.JPG,AFNE01.JPG,AFNE01.JPG,AFNE01.JPG,AFNE01.JPG,AFNE01.JPG,,,,,,,,,,,,,0,7,7,4,,,,,,,,,,,AMSA18.jpg,AMNE01.jpg,AMNE03.jpg,AMSA08.jpg,AMNE03.jpg,MN,1,num_2,32,num_4,1.43338444852,,,2017_Mar_28_1847,60.0129542336,FEMA4ImagesEEG,001,200035,
AFNE01.JPG,AFNE01.JPG,AFNE01.JPG,AFNE01.JPG,AFNE01.JPG,AFNE01.JPG,,,,,,,,,,,,,0,8,8,5,,,,,,,,,,,AMSA02.jpg,AMSA15.jpg,AMNE09.jpg,AMNE02.jpg,AMNE09.jpg,MN,1,num_2,32,num_8,1.01675480057,,,2017_Mar_28_1847,60.0129542336,FEMA4ImagesEEG,001,200035,
AFNE01.JPG,AFNE01.JPG,AFNE01.JPG,AFNE01.JPG,AFNE01.JPG,AFNE01.JPG,,,,,,,,,,,,,0,9,9,8,,,,,,,,,,,AMSA10.jpg,AMSA07.jpg,AMNE17.jpg,AMNE02.jpg,AMSA10.jpg,MS,2,num_8,16,num_8,0.933487887145,,,2017_Mar_28_1847,60.0129542336,FEMA4ImagesEEG,001,200035,
AFNE01.JPG,AFNE01.JPG,AFNE01.JPG,AFNE01.JPG,AFNE01.JPG,AFNE01.JPG,,,,,,,,,,,,,1,0,10,8,,,,,,,,,,,AMSA05.jpg,AMSA13.jpg,AMNE19.jpg,AMNE02.jpg,AMSA13.jpg,MS,2,num_6,32,num_8,0.683471609489,,,2017_Mar_28_1847,60.0129542336,FEMA4ImagesEEG,001,200035,
AFNE01.JPG,AFNE01.JPG,AFNE01.JPG,AFNE01.JPG,AFNE01.JPG,AFNE01.JPG,,,,,,,,,,,,,1,1,11,5,,,,,,,,,,,AMSA18.jpg,AMNE06.jpg,AMNE08.jpg,AMSA09.jpg,AMSA09.jpg,MS,2,num_4,32,num_2,1.11673096963,,,2017_Mar_28_1847,60.0129542336,FEMA4ImagesEEG,001,200035,
AFNE01.JPG,AFNE01.JPG,AFNE01.JPG,AFNE01.JPG,AFNE01.JPG,AFNE01.JPG,,,,,,,,,,,,,1,2,12,9,,,,,,,,,,,AMNE07.jpg,AMNE12.jpg,AMSA04.jpg,AMSA08.jpg,AMSA08.jpg,MS,2,num_4,16,num_4,1.20010853838,,,2017_Mar_28_1847,60.0129542336,FEMA4ImagesEEG,001,200035,
AFNE01.JPG,AFNE01.JPG,AFNE01.JPG,AFNE01.JPG,AFNE01.JPG,AFNE01.JPG,,,,,,,,,,,,,1,3,13,0,,,,,,,,,,,AMSA19.jpg,AMSA14.jpg,AMNE04.jpg,AMNE08.jpg,AMNE04.jpg,MN,1,num_2,32,num_8,1.23344494007,,,2017_Mar_28_1847,60.0129542336,FEMA4ImagesEEG,001,200035,
AFNE01.JPG,AFNE01.JPG,AFNE01.JPG,AFNE01.JPG,AFNE01.JPG,AFNE01.JPG,,,,,,,,,,,,,1,4,14,3,,,,,,,,,,,AMNE19.jpg,AMSA12.jpg,AMNE17.jpg,AMSA06.jpg,AMSA06.jpg,MS,2,num_4,32,num_8,1.11679191014,,,2017_Mar_28_1847,60.0129542336,FEMA4ImagesEEG,001,200035,
AFNE01.JPG,AFNE01.JPG,AFNE01.JPG,AFNE01.JPG,AFNE01.JPG,AFNE01.JPG,,,,,,,,,,,,,1,5,15,2,,,,,,,,,,,AMNE12.jpg,AMSA15.jpg,AMSA02.jpg,AMNE01.jpg,AMSA15.jpg,MS,2,num_6,32,num_2,2.00002181029,,,2017_Mar_28_1847,60.0129542336,FEMA4ImagesEEG,001,200035,
AFNE01.JPG,AFNE01.JPG,AFNE01.JPG,AFNE01.JPG,AFNE01.JPG,AFNE01.JPG,,,,,,,,,,,,,1,6,16,1,,,,,,,,,,,AMSA01.jpg,AMSA14.jpg,AMNE08.jpg,AMNE01.jpg,AMSA14.jpg,MS,2,num_6,32,num_8,1.11682526709,,,2017_Mar_28_1847,60.0129542336,FEMA4ImagesEEG,001,200035,
AFNE01.JPG,AFNE01.JPG,AFNE01.JPG,AFNE01.JPG,AFNE01.JPG,AFNE01.JPG,,,,,,,,,,,,,1,7,17,7,,,,,,,,,,,AMSA20.jpg,AMNE12.jpg,AMNE07.jpg,AMSA01.jpg,AMSA01.jpg,MS,2,num_4,16,num_4,0.866755105322,,,2017_Mar_28_1847,60.0129542336,FEMA4ImagesEEG,001,200035,
AFNE01.JPG,AFNE01.JPG,AFNE01.JPG,AFNE01.JPG,AFNE01.JPG,AFNE01.JPG,,,,,,,,,,,,,1,8,18,4,,,,,,,,,,,AMSA12.jpg,AMSA20.jpg,AMNE05.jpg,AMNE20.jpg,AMSA12.jpg,MS,2,num_8,32,num_4,1.51660549629,,,2017_Mar_28_1847,60.0129542336,FEMA4ImagesEEG,001,200035,
AFNE01.JPG,AFNE01.JPG,AFNE01.JPG,AFNE01.JPG,AFNE01.JPG,AFNE01.JPG,,,,,,,,,,,,,1,9,19,6,,,,,,,,,,,AMSA15.jpg,AMNE06.jpg,AMNE20.jpg,AMSA16.jpg,AMSA16.jpg,MS,2,num_4,32,num_2,1.6333897087,,,2017_Mar_28_1847,60.0129542336,FEMA4ImagesEEG,001,200035,
AFNE01.JPG,AFNE01.JPG,AFNE01.JPG,AFNE01.JPG,AFNE01.JPG,AFNE01.JPG,,,,,,,,,,,,,2,0,20,2,,,,,,,,,,,AMSA06.jpg,AMNE18.jpg,AMSA01.jpg,AMNE12.jpg,AMNE18.jpg,MN,1,num_6,32,num_4,1.28343190206,,,2017_Mar_28_1847,60.0129542336,FEMA4ImagesEEG,001,200035,
AFNE01.JPG,AFNE01.JPG,AFNE01.JPG,AFNE01.JPG,AFNE01.JPG,AFNE01.JPG,,,,,,,,,,,,,2,1,21,8,,,,,,,,,,,AMSA17.jpg,AMSA11.jpg,AMNE09.jpg,AMNE05.jpg,AMNE05.jpg,MN,1,num_4,32,num_8,1.11661069223,,,2017_Mar_28_1847,60.0129542336,FEMA4ImagesEEG,001,200035,
AFNE01.JPG,AFNE01.JPG,AFNE01.JPG,AFNE01.JPG,AFNE01.JPG,AFNE01.JPG,,,,,,,,,,,,,2,2,22,1,,,,,,,,,,,AMNE04.jpg,AMSA08.jpg,AMSA18.jpg,AMNE16.jpg,AMNE04.jpg,MN,1,num_8,32,num_2,1.23351037095,,,2017_Mar_28_1847,60.0129542336,FEMA4ImagesEEG,001,200035,
AFNE01.JPG,AFNE01.JPG,AFNE01.JPG,AFNE01.JPG,AFNE01.JPG,AFNE01.JPG,,,,,,,,,,,,,2,3,23,5,,,,,,,,,,,AMNE03.jpg,AMNE04.jpg,AMSA01.jpg,AMSA19.jpg,AMNE03.jpg,MN,1,num_8,16,num_8,0.850131487241,,,2017_Mar_28_1847,60.0129542336,FEMA4ImagesEEG,001,200035,
AFNE01.JPG,AFNE01.JPG,AFNE01.JPG,AFNE01.JPG,AFNE01.JPG,AFNE01.JPG,,,,,,,,,,,,,2,4,24,7,,,,,,,,,,,AMSA03.jpg,AMNE08.jpg,AMNE01.jpg,AMSA18.jpg,AMSA18.jpg,MS,2,num_4,16,num_4,1.76637865312,,,2017_Mar_28_1847,60.0129542336,FEMA4ImagesEEG,001,200035,
AFNE01.JPG,AFNE01.JPG,AFNE01.JPG,AFNE01.JPG,AFNE01.JPG,AFNE01.JPG,,,,,,,,,,,,,2,5,25,3,,,,,,,,,,,AMSA01.jpg,AMNE02.jpg,AMSA09.jpg,AMNE17.jpg,AMNE17.jpg,MN,1,num_4,32,num_8,0.633430763264,,,2017_Mar_28_1847,60.0129542336,FEMA4ImagesEEG,001,200035,
AFNE01.JPG,AFNE01.JPG,AFNE01.JPG,AFNE01.JPG,AFNE01.JPG,AFNE01.JPG,,,,,,,,,,,,,2,6,26,4,,,,,,,,,,,AMSA05.jpg,AMNE05.jpg,AMNE10.jpg,AMSA09.jpg,AMSA09.jpg,MS,2,num_4,32,num_6,0.683493740624,,,2017_Mar_28_1847,60.0129542336,FEMA4ImagesEEG,001,200035,
AFNE01.JPG,AFNE01.JPG,AFNE01.JPG,AFNE01.JPG,AFNE01.JPG,AFNE01.JPG,,,,,,,,,,,,,2,7,27,0,,,,,,,,,,,AMSA12.jpg,AMSA08.jpg,AMNE11.jpg,AMNE16.jpg,AMSA12.jpg,MS,2,num_8,32,num_4,1.18344482791,,,2017_Mar_28_1847,60.0129542336,FEMA4ImagesEEG,001,200035,
AFNE01.JPG,AFNE01.JPG,AFNE01.JPG,AFNE01.JPG,AFNE01.JPG,AFNE01.JPG,,,,,,,,,,,,,2,8,28,9,,,,,,,,,,,AMSA16.jpg,AMNE04.jpg,AMNE14.jpg,AMSA07.jpg,AMNE04.jpg,MN,1,num_6,16,num_6,0.983440529904,,,2017_Mar_28_1847,60.0129542336,FEMA4ImagesEEG,001,200035,
AFNE01.JPG,AFNE01.JPG,AFNE01.JPG,AFNE01.JPG,AFNE01.JPG,AFNE01.JPG,,,,,,,,,,,,,2,9,29,6,,,,,,,,,,,AMNE20.jpg,AMNE10.jpg,AMSA06.jpg,AMSA13.jpg,AMNE20.jpg,MN,1,num_8,16,num_8,0.783493323601,,,2017_Mar_28_1847,60.0129542336,FEMA4ImagesEEG,001,200035,
AFNE01.JPG,AFNE01.JPG,AFNE01.JPG,AFNE01.JPG,AFNE01.JPG,AFNE01.JPG,,,,,,,,,,,,,3,0,30,2,,,,,,,,,,,AMSA04.jpg,AMSA19.jpg,AMNE20.jpg,AMNE11.jpg,AMNE11.jpg,MN,1,num_4,16,num_4,0.866774991155,,,2017_Mar_28_1847,60.0129542336,FEMA4ImagesEEG,001,200035,
AFNE01.JPG,AFNE01.JPG,AFNE01.JPG,AFNE01.JPG,AFNE01.JPG,AFNE01.JPG,,,,,,,,,,,,,3,1,31,3,,,,,,,,,,,AMNE06.jpg,AMNE03.jpg,AMSA07.jpg,AMSA12.jpg,AMSA07.jpg,MS,2,num_2,32,num_8,1.16674711881,,,2017_Mar_28_1847,60.0129542336,FEMA4ImagesEEG,001,200035,
AFNE01.JPG,AFNE01.JPG,AFNE01.JPG,AFNE01.JPG,AFNE01.JPG,AFNE01.JPG,,,,,,,,,,,,,3,2,32,8,,,,,,,,,,,AMSA19.jpg,AMNE18.jpg,AMSA09.jpg,AMNE12.jpg,AMSA19.jpg,MS,2,num_8,32,num_6,0.616791749839,,,2017_Mar_28_1847,60.0129542336,FEMA4ImagesEEG,001,200035,
AFNE01.JPG,AFNE01.JPG,AFNE01.JPG,AFNE01.JPG,AFNE01.JPG,AFNE01.JPG,,,,,,,,,,,,,3,3,33,6,,,,,,,,,,,AMSA16.jpg,AMNE13.jpg,AMNE04.jpg,AMSA07.jpg,AMSA16.jpg,MS,2,num_8,16,num_8,1.15007057879,,,2017_Mar_28_1847,60.0129542336,FEMA4ImagesEEG,001,200035,
AFNE01.JPG,AFNE01.JPG,AFNE01.JPG,AFNE01.JPG,AFNE01.JPG,AFNE01.JPG,,,,,,,,,,,,,3,4,34,1,,,,,,,,,,,AMNE08.jpg,AMSA14.jpg,AMSA20.jpg,AMNE05.jpg,AMNE05.jpg,MN,1,num_4,16,num_4,0.80015543045,,,2017_Mar_28_1847,60.0129542336,FEMA4ImagesEEG,001,200035,
AFNE01.JPG,AFNE01.JPG,AFNE01.JPG,AFNE01.JPG,AFNE01.JPG,AFNE01.JPG,,,,,,,,,,,,,3,5,35,9,,,,,,,,,,,AMNE15.jpg,AMSA15.jpg,AMNE13.jpg,AMSA09.jpg,AMSA15.jpg,MS,2,num_6,32,num_8,0.550146850641,,,2017_Mar_28_1847,60.0129542336,FEMA4ImagesEEG,001,200035,
AFNE01.JPG,AFNE01.JPG,AFNE01.JPG,AFNE01.JPG,AFNE01.JPG,AFNE01.JPG,,,,,,,,,,,,,3,6,36,0,,,,,,,,,,,AMSA16.jpg,AMNE07.jpg,AMSA04.jpg,AMNE05.jpg,AMSA16.jpg,MS,2,num_8,16,num_8,1.03341305861,,,2017_Mar_28_1847,60.0129542336,FEMA4ImagesEEG,001,200035,
AFNE01.JPG,AFNE01.JPG,AFNE01.JPG,AFNE01.JPG,AFNE01.JPG,AFNE01.JPG,,,,,,,,,,,,,3,7,37,4,,,,,,,,,,,AMNE04.jpg,AMNE01.jpg,AMSA19.jpg,AMSA12.jpg,AMNE01.jpg,MN,1,num_6,16,num_6,0.916692352621,,,2017_Mar_28_1847,60.0129542336,FEMA4ImagesEEG,001,200035,
AFNE01.JPG,AFNE01.JPG,AFNE01.JPG,AFNE01.JPG,AFNE01.JPG,AFNE01.JPG,,,,,,,,,,,,,3,8,38,7,,,,,,,,,,,AMSA06.jpg,AMNE14.jpg,AMSA13.jpg,AMNE08.jpg,AMSA13.jpg,MS,2,num_2,32,num_8,1.30009272578,,,2017_Mar_28_1847,60.0129542336,FEMA4ImagesEEG,001,200035,
AFNE01.JPG,AFNE01.JPG,AFNE01.JPG,AFNE01.JPG,AFNE01.JPG,AFNE01.JPG,,,,,,,,,,,,,3,9,39,5,,,,,,,,,,,AMNE16.jpg,AMSA03.jpg,AMNE01.jpg,AMSA10.jpg,AMNE01.jpg,MN,1,num_2,16,num_2,2.04994911456,,,2017_Mar_28_1847,60.0129542336,FEMA4ImagesEEG,001,200035,
AFNE01.JPG,AFNE01.JPG,AFNE01.JPG,AFNE01.JPG,AFNE01.JPG,AFNE01.JPG,,,,,,,,,,,,,4,0,40,4,,,,,,,,,,,AMNE17.jpg,AMSA08.jpg,AMNE15.jpg,AMSA12.jpg,AMNE15.jpg,MN,1,num_2,32,num_8,0.633493307629,,,2017_Mar_28_1847,60.0129542336,FEMA4ImagesEEG,001,200035,
AFNE01.JPG,AFNE01.JPG,AFNE01.JPG,AFNE01.JPG,AFNE01.JPG,AFNE01.JPG,,,,,,,,,,,,,4,1,41,5,,,,,,,,,,,AMNE14.jpg,AMNE11.jpg,AMSA15.jpg,AMSA19.jpg,AMNE11.jpg,MN,1,num_6,16,num_6,0.883496434893,,,2017_Mar_28_1847,60.0129542336,FEMA4ImagesEEG,001,200035,
AFNE01.JPG,AFNE01.JPG,AFNE01.JPG,AFNE01.JPG,AFNE01.JPG,AFNE01.JPG,,,,,,,,,,,,,4,2,42,0,,,,,,,,,,,AMSA09.jpg,AMNE09.jpg,AMSA15.jpg,AMNE05.jpg,AMNE09.jpg,MN,1,num_6,32,num_8,0.883419778082,,,2017_Mar_28_1847,60.0129542336,FEMA4ImagesEEG,001,200035,
AFNE01.JPG,AFNE01.JPG,AFNE01.JPG,AFNE01.JPG,AFNE01.JPG,AFNE01.JPG,,,,,,,,,,,,,4,3,43,9,,,,,,,,,,,AMSA02.jpg,AMSA06.jpg,AMNE08.jpg,AMNE15.jpg,AMSA02.jpg,MS,2,num_8,32,num_2,1.46671347332,,,2017_Mar_28_1847,60.0129542336,FEMA4ImagesEEG,001,200035,
AFNE01.JPG,AFNE01.JPG,AFNE01.JPG,AFNE01.JPG,AFNE01.JPG,AFNE01.JPG,,,,,,,,,,,,,4,4,44,1,,,,,,,,,,,AMNE01.jpg,AMSA14.jpg,AMSA03.jpg,AMNE09.jpg,AMSA03.jpg,MS,2,num_2,32,num_8,1.33345061715,,,2017_Mar_28_1847,60.0129542336,FEMA4ImagesEEG,001,200035,
AFNE01.JPG,AFNE01.JPG,AFNE01.JPG,AFNE01.JPG,AFNE01.JPG,AFNE01.JPG,,,,,,,,,,,,,4,5,45,2,,,,,,,,,,,AMSA06.jpg,AMNE11.jpg,AMNE14.jpg,AMSA12.jpg,AMNE14.jpg,MN,1,num_2,32,num_8,0.783488833229,,,2017_Mar_28_1847,60.0129542336,FEMA4ImagesEEG,001,200035,
AFNE01.JPG,AFNE01.JPG,AFNE01.JPG,AFNE01.JPG,AFNE01.JPG,AFNE01.JPG,,,,,,,,,,,,,4,6,46,7,,,,,,,,,,,AMSA17.jpg,AMNE20.jpg,AMSA10.jpg,AMNE05.jpg,AMSA10.jpg,MS,2,num_2,32,num_4,0.866819894756,,,2017_Mar_28_1847,60.0129542336,FEMA4ImagesEEG,001,200035,
AFNE01.JPG,AFNE01.JPG,AFNE01.JPG,AFNE01.JPG,AFNE01.JPG,AFNE01.JPG,,,,,,,,,,,,,4,7,47,8,,,,,,,,,,,AMSA18.jpg,AMNE06.jpg,AMNE05.jpg,AMSA08.jpg,AMSA08.jpg,MS,2,num_4,16,num_4,0.883481360041,,,2017_Mar_28_1847,60.0129542336,FEMA4ImagesEEG,001,200035,
AFNE01.JPG,AFNE01.JPG,AFNE01.JPG,AFNE01.JPG,AFNE01.JPG,AFNE01.JPG,,,,,,,,,,,,,4,8,48,6,,,,,,,,,,,AMSA17.jpg,AMNE01.jpg,AMSA06.jpg,AMNE18.jpg,AMNE18.jpg,MN,1,num_4,32,num_8,0.933440738358,,,2017_Mar_28_1847,60.0129542336,FEMA4ImagesEEG,001,200035,
AFNE01.JPG,AFNE01.JPG,AFNE01.JPG,AFNE01.JPG,AFNE01.JPG,AFNE01.JPG,,,,,,,,,,,,,4,9,49,3,,,,,,,,,,,AMNE17.jpg,AMSA17.jpg,AMNE05.jpg,AMSA12.jpg,AMNE17.jpg,MN,1,num_8,32,num_6,1.20012393384,,,2017_Mar_28_1847,60.0129542336,FEMA4ImagesEEG,001,200035,
AFNE01.JPG,AFNE01.JPG,AFNE01.JPG,AFNE01.JPG,AFNE01.JPG,AFNE01.JPG,,,,,,,,,,,,,5,0,50,4,,,,,,,,,,,AMSA17.jpg,AMNE17.jpg,AMSA19.jpg,AMNE10.jpg,AMNE17.jpg,MN,1,num_6,32,num_8,1.20015087596,,,2017_Mar_28_1847,60.0129542336,FEMA4ImagesEEG,001,200035,
AFNE01.JPG,AFNE01.JPG,AFNE01.JPG,AFNE01.JPG,AFNE01.JPG,AFNE01.JPG,,,,,,,,,,,,,5,1,51,5,,,,,,,,,,,AMSA01.jpg,AMSA20.jpg,AMNE14.jpg,AMNE11.jpg,AMSA01.jpg,MS,2,num_8,32,num_4,0.750124847866,,,2017_Mar_28_1847,60.0129542336,FEMA4ImagesEEG,001,200035,
AFNE01.JPG,AFNE01.JPG,AFNE01.JPG,AFNE01.JPG,AFNE01.JPG,AFNE01.JPG,,,,,,,,,,,,,5,2,52,0,,,,,,,,,,,AMSA04.jpg,AMNE01.jpg,AMSA10.jpg,AMNE09.jpg,AMNE09.jpg,MN,1,num_4,32,num_8,0.866752539412,,,2017_Mar_28_1847,60.0129542336,FEMA4ImagesEEG,001,200035,
AFNE01.JPG,AFNE01.JPG,AFNE01.JPG,AFNE01.JPG,AFNE01.JPG,AFNE01.JPG,,,,,,,,,,,,,5,3,53,1,,,,,,,,,,,AMNE12.jpg,AMSA09.jpg,AMNE04.jpg,AMSA20.jpg,AMSA09.jpg,MS,2,num_6,16,num_6,1.13340430229,,,2017_Mar_28_1847,60.0129542336,FEMA4ImagesEEG,001,200035,
AFNE01.JPG,AFNE01.JPG,AFNE01.JPG,AFNE01.JPG,AFNE01.JPG,AFNE01.JPG,,,,,,,,,,,,,5,4,54,6,,,,,,,,,,,AMSA04.jpg,AMSA10.jpg,AMNE13.jpg,AMNE08.jpg,AMNE13.jpg,MN,1,num_2,32,num_4,1.83336995111,,,2017_Mar_28_1847,60.0129542336,FEMA4ImagesEEG,001,200035,
AFNE01.JPG,AFNE01.JPG,AFNE01.JPG,AFNE01.JPG,AFNE01.JPG,AFNE01.JPG,,,,,,,,,,,,,5,5,55,2,,,,,,,,,,,AMNE20.jpg,AMNE19.jpg,AMSA04.jpg,AMSA10.jpg,AMNE20.jpg,MN,1,num_8,16,num_8,1.06672219734,,,2017_Mar_28_1847,60.0129542336,FEMA4ImagesEEG,001,200035,
AFNE01.JPG,AFNE01.JPG,AFNE01.JPG,AFNE01.JPG,AFNE01.JPG,AFNE01.JPG,,,,,,,,,,,,,5,6,56,9,,,,,,,,,,,AMSA02.jpg,AMNE03.jpg,AMNE13.jpg,AMSA06.jpg,AMNE13.jpg,MN,1,num_2,32,num_8,0.750111697591,,,2017_Mar_28_1847,60.0129542336,FEMA4ImagesEEG,001,200035,
AFNE01.JPG,AFNE01.JPG,AFNE01.JPG,AFNE01.JPG,AFNE01.JPG,AFNE01.JPG,,,,,,,,,,,,,5,7,57,8,,,,,,,,,,,AMSA06.jpg,AMNE03.jpg,AMSA20.jpg,AMNE02.jpg,AMSA20.jpg,MS,2,num_2,32,num_8,0.966487512109,,,2017_Mar_28_1847,60.0129542336,FEMA4ImagesEEG,001,200035,
AFNE01.JPG,AFNE01.JPG,AFNE01.JPG,AFNE01.JPG,AFNE01.JPG,AFNE01.JPG,,,,,,,,,,,,,5,8,58,3,,,,,,,,,,,AMNE01.jpg,AMSA13.jpg,AMNE16.jpg,AMSA09.jpg,AMNE01.jpg,MN,1,num_8,32,num_2,1.25008940615,,,2017_Mar_28_1847,60.0129542336,FEMA4ImagesEEG,001,200035,
AFNE01.JPG,AFNE01.JPG,AFNE01.JPG,AFNE01.JPG,AFNE01.JPG,AFNE01.JPG,,,,,,,,,,,,,5,9,59,7,,,,,,,,,,,AMSA08.jpg,AMNE17.jpg,AMSA10.jpg,AMNE19.jpg,AMNE17.jpg,MN,1,num_6,32,num_4,1.23346578807,,,2017_Mar_28_1847,60.0129542336,FEMA4ImagesEEG,001,200035,
,,,,,,,,,,,,,,,,,,,,,,,,,,,,,,,,,,,,,,,,,,,space,28.5315641545,2017_Mar_28_1847,60.0129542336,FEMA4ImagesEEG,001,200035,
AFNE01.JPG,AFNE01.JPG,AFNE01.JPG,AFNE01.JPG,AFNE01.JPG,AFNE01.JPG,,,,,,,,,,,,,,,,,0,0,0,7,,,,,,,AFNE11.jpg,AFNE05.jpg,AFSA08.jpg,AFSA11.jpg,AFSA11.jpg,FS,4,num_4,16,num_4,0.700111906161,,,2017_Mar_28_1847,60.0129542336,FEMA4ImagesEEG,001,200035,
AFNE01.JPG,AFNE01.JPG,AFNE01.JPG,AFNE01.JPG,AFNE01.JPG,AFNE01.JPG,,,,,,,,,,,,,,,,,0,1,1,2,,,,,,,AFSA01.jpg,AFNE04.jpg,AFSA08.jpg,AFNE01.jpg,AFSA01.jpg,FS,4,num_8,16,num_8,0.583516929997,,,2017_Mar_28_1847,60.0129542336,FEMA4ImagesEEG,001,200035,
AFNE01.JPG,AFNE01.JPG,AFNE01.JPG,AFNE01.JPG,AFNE01.JPG,AFNE01.JPG,,,,,,,,,,,,,,,,,0,2,2,1,,,,,,,AFNE12.jpg,AFSA06.jpg,AFNE09.jpg,AFSA18.jpg,AFNE09.jpg,FN,3,num_2,32,num_8,0.633490741602,,,2017_Mar_28_1847,60.0129542336,FEMA4ImagesEEG,001,200035,
AFNE01.JPG,AFNE01.JPG,AFNE01.JPG,AFNE01.JPG,AFNE01.JPG,AFNE01.JPG,,,,,,,,,,,,,,,,,0,3,3,0,,,,,,,AFSA15.jpg,AFSA03.jpg,AFNE16.jpg,AFNE05.jpg,AFSA15.jpg,FS,4,num_8,16,num_8,0.600139265181,,,2017_Mar_28_1847,60.0129542336,FEMA4ImagesEEG,001,200035,
AFNE01.JPG,AFNE01.JPG,AFNE01.JPG,AFNE01.JPG,AFNE01.JPG,AFNE01.JPG,,,,,,,,,,,,,,,,,0,4,4,4,,,,,,,AFSA15.jpg,AFSA12.jpg,AFNE09.jpg,AFNE02.jpg,AFNE09.jpg,FN,3,num_2,32,num_8,0.666779032443,,,2017_Mar_28_1847,60.0129542336,FEMA4ImagesEEG,001,200035,
AFNE01.JPG,AFNE01.JPG,AFNE01.JPG,AFNE01.JPG,AFNE01.JPG,AFNE01.JPG,,,,,,,,,,,,,,,,,0,5,5,5,,,,,,,AFNE13.jpg,AFSA14.jpg,AFNE15.jpg,AFSA10.jpg,AFNE15.jpg,FN,3,num_2,32,num_4,1.03349131893,,,2017_Mar_28_1847,60.0129542336,FEMA4ImagesEEG,001,200035,
AFNE01.JPG,AFNE01.JPG,AFNE01.JPG,AFNE01.JPG,AFNE01.JPG,AFNE01.JPG,,,,,,,,,,,,,,,,,0,6,6,9,,,,,,,AFNE07.jpg,AFNE02.jpg,AFSA07.jpg,AFSA04.jpg,AFSA07.jpg,FS,4,num_2,32,num_8,1.06677800615,,,2017_Mar_28_1847,60.0129542336,FEMA4ImagesEEG,001,200035,
AFNE01.JPG,AFNE01.JPG,AFNE01.JPG,AFNE01.JPG,AFNE01.JPG,AFNE01.JPG,,,,,,,,,,,,,,,,,0,7,7,8,,,,,,,AFSA10.jpg,AFSA08.jpg,AFNE07.jpg,AFNE03.jpg,AFNE07.jpg,FN,3,num_2,16,num_2,1.60011777573,,,2017_Mar_28_1847,60.0129542336,FEMA4ImagesEEG,001,200035,
AFNE01.JPG,AFNE01.JPG,AFNE01.JPG,AFNE01.JPG,AFNE01.JPG,AFNE01.JPG,,,,,,,,,,,,,,,,,0,8,8,3,,,,,,,AFNE20.jpg,AFSA05.jpg,AFNE04.jpg,AFSA07.jpg,AFSA07.jpg,FS,4,num_4,32,num_8,0.800458850223,,,2017_Mar_28_1847,60.0129542336,FEMA4ImagesEEG,001,200035,
AFNE01.JPG,AFNE01.JPG,AFNE01.JPG,AFNE01.JPG,AFNE01.JPG,AFNE01.JPG,,,,,,,,,,,,,,,,,0,9,9,6,,,,,,,AFSA04.jpg,AFSA07.jpg,AFNE10.jpg,AFNE18.jpg,AFSA07.jpg,FS,4,num_6,16,num_6,0.816789312172,,,2017_Mar_28_1847,60.0129542336,FEMA4ImagesEEG,001,200035,
AFNE01.JPG,AFNE01.JPG,AFNE01.JPG,AFNE01.JPG,AFNE01.JPG,AFNE01.JPG,,,,,,,,,,,,,,,,,1,0,10,9,,,,,,,AFNE18.jpg,AFSA15.jpg,AFSA14.jpg,AFNE04.jpg,AFSA14.jpg,FS,4,num_2,32,num_4,0.95012176875,,,2017_Mar_28_1847,60.0129542336,FEMA4ImagesEEG,001,200035,
AFNE01.JPG,AFNE01.JPG,AFNE01.JPG,AFNE01.JPG,AFNE01.JPG,AFNE01.JPG,,,,,,,,,,,,,,,,,1,1,11,5,,,,,,,AFSA20.jpg,AFNE11.jpg,AFNE12.jpg,AFSA03.jpg,AFNE11.jpg,FN,3,num_6,32,num_8,1.00009590108,,,2017_Mar_28_1847,60.0129542336,FEMA4ImagesEEG,001,200035,
AFNE01.JPG,AFNE01.JPG,AFNE01.JPG,AFNE01.JPG,AFNE01.JPG,AFNE01.JPG,,,,,,,,,,,,,,,,,1,2,12,0,,,,,,,AFNE12.jpg,AFNE10.jpg,AFSA11.jpg,AFSA01.jpg,AFSA01.jpg,FS,4,num_4,32,num_8,0.650152527727,,,2017_Mar_28_1847,60.0129542336,FEMA4ImagesEEG,001,200035,
AFNE01.JPG,AFNE01.JPG,AFNE01.JPG,AFNE01.JPG,AFNE01.JPG,AFNE01.JPG,,,,,,,,,,,,,,,,,1,3,13,3,,,,,,,AFSA07.jpg,AFNE08.jpg,AFNE13.jpg,AFSA10.jpg,AFSA10.jpg,FS,4,num_4,32,num_8,0.700109981583,,,2017_Mar_28_1847,60.0129542336,FEMA4ImagesEEG,001,200035,
AFNE01.JPG,AFNE01.JPG,AFNE01.JPG,AFNE01.JPG,AFNE01.JPG,AFNE01.JPG,,,,,,,,,,,,,,,,,1,4,14,4,,,,,,,AFNE19.jpg,AFSA20.jpg,AFNE16.jpg,AFSA04.jpg,AFSA04.jpg,FS,4,num_4,16,num_4,1.10009227681,,,2017_Mar_28_1847,60.0129542336,FEMA4ImagesEEG,001,200035,
AFNE01.JPG,AFNE01.JPG,AFNE01.JPG,AFNE01.JPG,AFNE01.JPG,AFNE01.JPG,,,,,,,,,,,,,,,,,1,5,15,1,,,,,,,AFSA12.jpg,AFNE20.jpg,AFSA13.jpg,AFNE05.jpg,AFSA12.jpg,FS,4,num_8,16,num_8,0.516809165943,,,2017_Mar_28_1847,60.0129542336,FEMA4ImagesEEG,001,200035,
AFNE01.JPG,AFNE01.JPG,AFNE01.JPG,AFNE01.JPG,AFNE01.JPG,AFNE01.JPG,,,,,,,,,,,,,,,,,1,6,16,7,,,,,,,AFSA02.jpg,AFNE19.jpg,AFNE08.jpg,AFSA11.jpg,AFSA02.jpg,FS,4,num_8,16,num_8,0.666779673891,,,2017_Mar_28_1847,60.0129542336,FEMA4ImagesEEG,001,200035,
AFNE01.JPG,AFNE01.JPG,AFNE01.JPG,AFNE01.JPG,AFNE01.JPG,AFNE01.JPG,,,,,,,,,,,,,,,,,1,7,17,8,,,,,,,AFNE16.jpg,AFSA13.jpg,AFNE15.jpg,AFSA16.jpg,AFSA16.jpg,FS,4,num_4,16,num_4,1.21675749472,,,2017_Mar_28_1847,60.0129542336,FEMA4ImagesEEG,001,200035,
AFNE01.JPG,AFNE01.JPG,AFNE01.JPG,AFNE01.JPG,AFNE01.JPG,AFNE01.JPG,,,,,,,,,,,,,,,,,1,8,18,6,,,,,,,AFNE01.jpg,AFNE13.jpg,AFSA03.jpg,AFSA09.jpg,AFSA03.jpg,FS,4,num_2,32,num_8,0.783450344577,,,2017_Mar_28_1847,60.0129542336,FEMA4ImagesEEG,001,200035,
AFNE01.JPG,AFNE01.JPG,AFNE01.JPG,AFNE01.JPG,AFNE01.JPG,AFNE01.JPG,,,,,,,,,,,,,,,,,1,9,19,2,,,,,,,AFNE06.jpg,AFNE04.jpg,AFSA05.jpg,AFSA14.jpg,AFNE04.jpg,FN,3,num_6,32,num_8,1.08347475273,,,2017_Mar_28_1847,60.0129542336,FEMA4ImagesEEG,001,200035,
AFNE01.JPG,AFNE01.JPG,AFNE01.JPG,AFNE01.JPG,AFNE01.JPG,AFNE01.JPG,,,,,,,,,,,,,,,,,2,0,20,5,,,,,,,AFNE13.jpg,AFSA20.jpg,AFSA06.jpg,AFNE12.jpg,AFNE12.jpg,FN,3,num_4,16,num_4,1.11680826789,,,2017_Mar_28_1847,60.0129542336,FEMA4ImagesEEG,001,200035,
AFNE01.JPG,AFNE01.JPG,AFNE01.JPG,AFNE01.JPG,AFNE01.JPG,AFNE01.JPG,,,,,,,,,,,,,,,,,2,1,21,6,,,,,,,AFNE05.jpg,AFNE06.jpg,AFSA06.jpg,AFSA01.jpg,AFSA01.jpg,FS,4,num_4,16,num_4,1.73337774514,,,2017_Mar_28_1847,60.0129542336,FEMA4ImagesEEG,001,200035,
AFNE01.JPG,AFNE01.JPG,AFNE01.JPG,AFNE01.JPG,AFNE01.JPG,AFNE01.JPG,,,,,,,,,,,,,,,,,2,2,22,8,,,,,,,AFNE13.jpg,AFSA20.jpg,AFNE16.jpg,AFSA09.jpg,AFNE13.jpg,FN,3,num_8,16,num_8,0.883503811783,,,2017_Mar_28_1847,60.0129542336,FEMA4ImagesEEG,001,200035,
AFNE01.JPG,AFNE01.JPG,AFNE01.JPG,AFNE01.JPG,AFNE01.JPG,AFNE01.JPG,,,,,,,,,,,,,,,,,2,3,23,4,,,,,,,AFSA12.jpg,AFNE04.jpg,AFSA09.jpg,AFNE11.jpg,AFNE04.jpg,FN,3,num_6,32,num_8,0.6667273934,,,2017_Mar_28_1847,60.0129542336,FEMA4ImagesEEG,001,200035,
AFNE01.JPG,AFNE01.JPG,AFNE01.JPG,AFNE01.JPG,AFNE01.JPG,AFNE01.JPG,,,,,,,,,,,,,,,,,2,4,24,0,,,,,,,AFSA20.jpg,AFSA15.jpg,AFNE16.jpg,AFNE01.jpg,AFSA15.jpg,FS,4,num_6,16,num_6,0.783479211037,,,2017_Mar_28_1847,60.0129542336,FEMA4ImagesEEG,001,200035,
AFNE01.JPG,AFNE01.JPG,AFNE01.JPG,AFNE01.JPG,AFNE01.JPG,AFNE01.JPG,,,,,,,,,,,,,,,,,2,5,25,3,,,,,,,AFNE05.jpg,AFSA13.jpg,AFSA16.jpg,AFNE11.jpg,AFSA16.jpg,FS,4,num_2,32,num_4,1.08348822384,,,2017_Mar_28_1847,60.0129542336,FEMA4ImagesEEG,001,200035,
AFNE01.JPG,AFNE01.JPG,AFNE01.JPG,AFNE01.JPG,AFNE01.JPG,AFNE01.JPG,,,,,,,,,,,,,,,,,2,6,26,7,,,,,,,AFNE20.jpg,AFSA07.jpg,AFNE17.jpg,AFSA15.jpg,AFNE20.jpg,FN,3,num_8,16,num_8,0.733447024832,,,2017_Mar_28_1847,60.0129542336,FEMA4ImagesEEG,001,200035,
AFNE01.JPG,AFNE01.JPG,AFNE01.JPG,AFNE01.JPG,AFNE01.JPG,AFNE01.JPG,,,,,,,,,,,,,,,,,2,7,27,1,,,,,,,AFSA08.jpg,AFNE13.jpg,AFNE16.jpg,AFSA13.jpg,AFNE13.jpg,FN,3,num_6,16,num_6,0.833515887614,,,2017_Mar_28_1847,60.0129542336,FEMA4ImagesEEG,001,200035,
AFNE01.JPG,AFNE01.JPG,AFNE01.JPG,AFNE01.JPG,AFNE01.JPG,AFNE01.JPG,,,,,,,,,,,,,,,,,2,8,28,2,,,,,,,AFSA17.jpg,AFSA10.jpg,AFNE08.jpg,AFNE14.jpg,AFNE08.jpg,FN,3,num_2,32,num_8,1.30010555545,,,2017_Mar_28_1847,60.0129542336,FEMA4ImagesEEG,001,200035,
AFNE01.JPG,AFNE01.JPG,AFNE01.JPG,AFNE01.JPG,AFNE01.JPG,AFNE01.JPG,,,,,,,,,,,,,,,,,2,9,29,9,,,,,,,AFSA05.jpg,AFNE03.jpg,AFNE17.jpg,AFSA19.jpg,AFNE17.jpg,FN,3,num_2,32,num_4,1.18346631736,,,2017_Mar_28_1847,60.0129542336,FEMA4ImagesEEG,001,200035,
AFNE01.JPG,AFNE01.JPG,AFNE01.JPG,AFNE01.JPG,AFNE01.JPG,AFNE01.JPG,,,,,,,,,,,,,,,,,3,0,30,7,,,,,,,AFSA17.jpg,AFNE09.jpg,AFSA02.jpg,AFNE04.jpg,AFSA02.jpg,FS,4,num_2,32,num_8,0.766782143619,,,2017_Mar_28_1847,60.0129542336,FEMA4ImagesEEG,001,200035,
AFNE01.JPG,AFNE01.JPG,AFNE01.JPG,AFNE01.JPG,AFNE01.JPG,AFNE01.JPG,,,,,,,,,,,,,,,,,3,1,31,6,,,,,,,AFNE04.jpg,AFSA09.jpg,AFNE12.jpg,AFSA05.jpg,AFNE04.jpg,FN,3,num_8,32,num_4,0.766711901641,,,2017_Mar_28_1847,60.0129542336,FEMA4ImagesEEG,001,200035,
AFNE01.JPG,AFNE01.JPG,AFNE01.JPG,AFNE01.JPG,AFNE01.JPG,AFNE01.JPG,,,,,,,,,,,,,,,,,3,2,32,4,,,,,,,AFSA17.jpg,AFNE03.jpg,AFNE10.jpg,AFSA07.jpg,AFSA17.jpg,FS,4,num_8,32,num_4,1.30013185611,,,2017_Mar_28_1847,60.0129542336,FEMA4ImagesEEG,001,200035,
AFNE01.JPG,AFNE01.JPG,AFNE01.JPG,AFNE01.JPG,AFNE01.JPG,AFNE01.JPG,,,,,,,,,,,,,,,,,3,3,33,3,,,,,,,AFSA07.jpg,AFSA05.jpg,AFNE17.jpg,AFNE07.jpg,AFNE17.jpg,FN,3,num_2,32,num_8,1.9667219728,,,2017_Mar_28_1847,60.0129542336,FEMA4ImagesEEG,001,200035,
AFNE01.JPG,AFNE01.JPG,AFNE01.JPG,AFNE01.JPG,AFNE01.JPG,AFNE01.JPG,,,,,,,,,,,,,,,,,3,4,34,1,,,,,,,AFSA03.jpg,AFNE12.jpg,AFNE01.jpg,AFSA12.jpg,AFSA03.jpg,FS,4,num_8,32,num_4,1.51669722784,,,2017_Mar_28_1847,60.0129542336,FEMA4ImagesEEG,001,200035,
AFNE01.JPG,AFNE01.JPG,AFNE01.JPG,AFNE01.JPG,AFNE01.JPG,AFNE01.JPG,,,,,,,,,,,,,,,,,3,5,35,0,,,,,,,AFNE20.jpg,AFSA14.jpg,AFNE14.jpg,AFSA16.jpg,AFNE14.jpg,FN,3,num_2,32,num_6,0.783173225471,,,2017_Mar_28_1847,60.0129542336,FEMA4ImagesEEG,001,200035,
AFNE01.JPG,AFNE01.JPG,AFNE01.JPG,AFNE01.JPG,AFNE01.JPG,AFNE01.JPG,,,,,,,,,,,,,,,,,3,6,36,9,,,,,,,AFSA12.jpg,AFNE16.jpg,AFSA18.jpg,AFNE02.jpg,AFSA12.jpg,FS,4,num_8,16,num_8,0.683302259073,,,2017_Mar_28_1847,60.0129542336,FEMA4ImagesEEG,001,200035,
AFNE01.JPG,AFNE01.JPG,AFNE01.JPG,AFNE01.JPG,AFNE01.JPG,AFNE01.JPG,,,,,,,,,,,,,,,,,3,7,37,2,,,,,,,AFNE09.jpg,AFSA10.jpg,AFNE17.jpg,AFSA03.jpg,AFNE17.jpg,FN,3,num_2,32,num_4,0.866769859334,,,2017_Mar_28_1847,60.0129542336,FEMA4ImagesEEG,001,200035,
AFNE01.JPG,AFNE01.JPG,AFNE01.JPG,AFNE01.JPG,AFNE01.JPG,AFNE01.JPG,,,,,,,,,,,,,,,,,3,8,38,5,,,,,,,AFSA19.jpg,AFNE01.jpg,AFSA16.jpg,AFNE05.jpg,AFSA16.jpg,FS,4,num_2,32,num_8,0.733494494343,,,2017_Mar_28_1847,60.0129542336,FEMA4ImagesEEG,001,200035,
AFNE01.JPG,AFNE01.JPG,AFNE01.JPG,AFNE01.JPG,AFNE01.JPG,AFNE01.JPG,,,,,,,,,,,,,,,,,3,9,39,8,,,,,,,AFSA10.jpg,AFSA06.jpg,AFNE11.jpg,AFNE20.jpg,AFNE11.jpg,FN,3,num_2,32,num_8,0.866728163091,,,2017_Mar_28_1847,60.0129542336,FEMA4ImagesEEG,001,200035,
AFNE01.JPG,AFNE01.JPG,AFNE01.JPG,AFNE01.JPG,AFNE01.JPG,AFNE01.JPG,,,,,,,,,,,,,,,,,4,0,40,6,,,,,,,AFNE15.jpg,AFNE14.jpg,AFSA20.jpg,AFSA12.jpg,AFNE15.jpg,FN,3,num_8,16,num_8,0.766823198297,,,2017_Mar_28_1847,60.0129542336,FEMA4ImagesEEG,001,200035,
AFNE01.JPG,AFNE01.JPG,AFNE01.JPG,AFNE01.JPG,AFNE01.JPG,AFNE01.JPG,,,,,,,,,,,,,,,,,4,1,41,9,,,,,,,AFNE10.jpg,AFSA02.jpg,AFSA20.jpg,AFNE03.jpg,AFSA20.jpg,FS,4,num_2,32,num_8,1.21670521423,,,2017_Mar_28_1847,60.0129542336,FEMA4ImagesEEG,001,200035,
AFNE01.JPG,AFNE01.JPG,AFNE01.JPG,AFNE01.JPG,AFNE01.JPG,AFNE01.JPG,,,,,,,,,,,,,,,,,4,2,42,1,,,,,,,AFNE18.jpg,AFSA13.jpg,AFSA01.jpg,AFNE05.jpg,AFNE18.jpg,FN,3,num_8,16,num_8,1.61669873528,,,2017_Mar_28_1847,60.0129542336,FEMA4ImagesEEG,001,200035,
AFNE01.JPG,AFNE01.JPG,AFNE01.JPG,AFNE01.JPG,AFNE01.JPG,AFNE01.JPG,,,,,,,,,,,,,,,,,4,3,43,0,,,,,,,AFSA16.jpg,AFNE12.jpg,AFNE03.jpg,AFSA09.jpg,AFSA16.jpg,FS,4,num_8,32,num_4,0.80012624315,,,2017_Mar_28_1847,60.0129542336,FEMA4ImagesEEG,001,200035,
AFNE01.JPG,AFNE01.JPG,AFNE01.JPG,AFNE01.JPG,AFNE01.JPG,AFNE01.JPG,,,,,,,,,,,,,,,,,4,4,44,8,,,,,,,AFNE15.jpg,AFSA05.jpg,AFNE02.jpg,AFSA07.jpg,AFSA05.jpg,FS,4,num_6,32,num_8,0.850112563581,,,2017_Mar_28_1847,60.0129542336,FEMA4ImagesEEG,001,200035,
AFNE01.JPG,AFNE01.JPG,AFNE01.JPG,AFNE01.JPG,AFNE01.JPG,AFNE01.JPG,,,,,,,,,,,,,,,,,4,5,45,4,,,,,,,AFNE16.jpg,AFNE14.jpg,AFSA07.jpg,AFSA14.jpg,AFNE14.jpg,FN,3,num_6,32,num_4,0.866782368161,,,2017_Mar_28_1847,60.0129542336,FEMA4ImagesEEG,001,200035,
AFNE01.JPG,AFNE01.JPG,AFNE01.JPG,AFNE01.JPG,AFNE01.JPG,AFNE01.JPG,,,,,,,,,,,,,,,,,4,6,46,7,,,,,,,AFNE08.jpg,AFNE13.jpg,AFSA16.jpg,AFSA02.jpg,AFNE13.jpg,FN,3,num_6,32,num_8,0.833426080528,,,2017_Mar_28_1847,60.0129542336,FEMA4ImagesEEG,001,200035,
AFNE01.JPG,AFNE01.JPG,AFNE01.JPG,AFNE01.JPG,AFNE01.JPG,AFNE01.JPG,,,,,,,,,,,,,,,,,4,7,47,3,,,,,,,AFNE06.jpg,AFSA13.jpg,AFNE02.jpg,AFSA12.jpg,AFSA12.jpg,FS,4,num_4,16,num_4,1.0001080893,,,2017_Mar_28_1847,60.0129542336,FEMA4ImagesEEG,001,200035,
AFNE01.JPG,AFNE01.JPG,AFNE01.JPG,AFNE01.JPG,AFNE01.JPG,AFNE01.JPG,,,,,,,,,,,,,,,,,4,8,48,5,,,,,,,AFNE02.jpg,AFSA12.jpg,AFSA03.jpg,AFNE15.jpg,AFNE15.jpg,FN,3,num_4,32,num_8,0.883501566714,,,2017_Mar_28_1847,60.0129542336,FEMA4ImagesEEG,001,200035,
AFNE01.JPG,AFNE01.JPG,AFNE01.JPG,AFNE01.JPG,AFNE01.JPG,AFNE01.JPG,,,,,,,,,,,,,,,,,4,9,49,2,,,,,,,AFNE17.jpg,AFSA03.jpg,AFNE12.jpg,AFSA11.jpg,AFNE17.jpg,FN,3,num_8,32,num_4,1.00012797513,,,2017_Mar_28_1847,60.0129542336,FEMA4ImagesEEG,001,200035,
AFNE01.JPG,AFNE01.JPG,AFNE01.JPG,AFNE01.JPG,AFNE01.JPG,AFNE01.JPG,,,,,,,,,,,,,,,,,5,0,50,4,,,,,,,AFNE11.jpg,AFNE01.jpg,AFSA17.jpg,AFSA20.jpg,AFSA17.jpg,FS,4,num_2,32,num_8,0.733444138197,,,2017_Mar_28_1847,60.0129542336,FEMA4ImagesEEG,001,200035,
AFNE01.JPG,AFNE01.JPG,AFNE01.JPG,AFNE01.JPG,AFNE01.JPG,AFNE01.JPG,,,,,,,,,,,,,,,,,5,1,51,2,,,,,,,AFSA13.jpg,AFSA11.jpg,AFNE04.jpg,AFNE15.jpg,AFSA11.jpg,FS,4,num_6,32,num_8,1.06660961779,,,2017_Mar_28_1847,60.0129542336,FEMA4ImagesEEG,001,200035,
AFNE01.JPG,AFNE01.JPG,AFNE01.JPG,AFNE01.JPG,AFNE01.JPG,AFNE01.JPG,,,,,,,,,,,,,,,,,5,2,52,0,,,,,,,AFNE18.jpg,AFNE09.jpg,AFSA07.jpg,AFSA12.jpg,AFSA12.jpg,FS,4,num_4,32,num_8,1.30014789314,,,2017_Mar_28_1847,60.0129542336,FEMA4ImagesEEG,001,200035,
AFNE01.JPG,AFNE01.JPG,AFNE01.JPG,AFNE01.JPG,AFNE01.JPG,AFNE01.JPG,,,,,,,,,,,,,,,,,5,3,53,6,,,,,,,AFNE14.jpg,AFSA08.jpg,AFSA18.jpg,AFNE20.jpg,AFNE20.jpg,FN,3,num_4,16,num_4,0.916770613054,,,2017_Mar_28_1847,60.0129542336,FEMA4ImagesEEG,001,200035,
AFNE01.JPG,AFNE01.JPG,AFNE01.JPG,AFNE01.JPG,AFNE01.JPG,AFNE01.JPG,,,,,,,,,,,,,,,,,5,4,54,9,,,,,,,AFSA10.jpg,AFNE11.jpg,AFSA07.jpg,AFNE16.jpg,AFNE11.jpg,FN,3,num_6,32,num_8,0.900131599396,,,2017_Mar_28_1847,60.0129542336,FEMA4ImagesEEG,001,200035,
AFNE01.JPG,AFNE01.JPG,AFNE01.JPG,AFNE01.JPG,AFNE01.JPG,AFNE01.JPG,,,,,,,,,,,,,,,,,5,5,55,8,,,,,,,AFSA13.jpg,AFSA16.jpg,AFNE17.jpg,AFNE08.jpg,AFSA16.jpg,FS,4,num_6,32,num_4,0.933432399179,,,2017_Mar_28_1847,60.0129542336,FEMA4ImagesEEG,001,200035,
AFNE01.JPG,AFNE01.JPG,AFNE01.JPG,AFNE01.JPG,AFNE01.JPG,AFNE01.JPG,,,,,,,,,,,,,,,,,5,6,56,1,,,,,,,AFSA18.jpg,AFNE17.jpg,AFSA10.jpg,AFNE02.jpg,AFNE17.jpg,FN,3,num_6,16,num_6,0.866825347301,,,2017_Mar_28_1847,60.0129542336,FEMA4ImagesEEG,001,200035,
AFNE01.JPG,AFNE01.JPG,AFNE01.JPG,AFNE01.JPG,AFNE01.JPG,AFNE01.JPG,,,,,,,,,,,,,,,,,5,7,57,3,,,,,,,AFSA04.jpg,AFSA17.jpg,AFNE06.jpg,AFNE08.jpg,AFNE06.jpg,FN,3,num_2,32,num_8,0.750181618845,,,2017_Mar_28_1847,60.0129542336,FEMA4ImagesEEG,001,200035,
AFNE01.JPG,AFNE01.JPG,AFNE01.JPG,AFNE01.JPG,AFNE01.JPG,AFNE01.JPG,,,,,,,,,,,,,,,,,5,8,58,7,,,,,,,AFNE09.jpg,AFSA01.jpg,AFSA18.jpg,AFNE13.jpg,AFSA01.jpg,FS,4,num_6,32,num_4,0.900163031998,,,2017_Mar_28_1847,60.0129542336,FEMA4ImagesEEG,001,200035,
AFNE01.JPG,AFNE01.JPG,AFNE01.JPG,AFNE01.JPG,AFNE01.JPG,AFNE01.JPG,,,,,,,,,,,,,,,,,5,9,59,5,,,,,,,AFSA14.jpg,AFNE05.jpg,AFNE18.jpg,AFSA03.jpg,AFNE18.jpg,FN,3,num_2,32,num_4,1.30008214153,,,2017_Mar_28_1847,60.0129542336,FEMA4ImagesEEG,001,200035,
,,,,,,,,,,,,,,,,,,,,,,,,,,,,,,,,,,,,,,,,,,,space,47.4632754644,2017_Mar_28_1847,60.0129542336,FEMA4ImagesEEG,001,200035,
AFNE01.JPG,AFNE01.JPG,AFNE01.JPG,AFNE01.JPG,AFNE01.JPG,AFNE01.JPG,,,,,,,,,,,,,,,,,,,,,0,0,0,6,,,AMSA09.jpg,AMNE17.jpg,AMNE06.jpg,AMSA20.jpg,AMSA20.jpg,MS,2,num_4,32,num_8,1.00007858127,,,2017_Mar_28_1847,60.0129542336,FEMA4ImagesEEG,001,200035,
AFNE01.JPG,AFNE01.JPG,AFNE01.JPG,AFNE01.JPG,AFNE01.JPG,AFNE01.JPG,,,,,,,,,,,,,,,,,,,,,0,1,1,0,,,AMSA13.jpg,AMSA09.jpg,AMNE05.jpg,AMNE20.jpg,AMNE20.jpg,MN,1,num_4,32,num_6,1.13344118744,,,2017_Mar_28_1847,60.0129542336,FEMA4ImagesEEG,001,200035,
AFNE01.JPG,AFNE01.JPG,AFNE01.JPG,AFNE01.JPG,AFNE01.JPG,AFNE01.JPG,,,,,,,,,,,,,,,,,,,,,0,2,2,7,,,AMNE08.jpg,AMNE20.jpg,AMSA11.jpg,AMSA10.jpg,AMSA10.jpg,MS,2,num_4,16,num_4,0.716786200996,,,2017_Mar_28_1847,60.0129542336,FEMA4ImagesEEG,001,200035,
AFNE01.JPG,AFNE01.JPG,AFNE01.JPG,AFNE01.JPG,AFNE01.JPG,AFNE01.JPG,,,,,,,,,,,,,,,,,,,,,0,3,3,4,,,AMNE04.jpg,AMSA10.jpg,AMNE05.jpg,AMSA11.jpg,AMSA11.jpg,MS,2,num_4,32,num_8,0.500131342909,,,2017_Mar_28_1847,60.0129542336,FEMA4ImagesEEG,001,200035,
AFNE01.JPG,AFNE01.JPG,AFNE01.JPG,AFNE01.JPG,AFNE01.JPG,AFNE01.JPG,,,,,,,,,,,,,,,,,,,,,0,4,4,9,,,AMSA07.jpg,AMNE04.jpg,AMSA08.jpg,AMNE06.jpg,AMNE06.jpg,MN,1,num_4,16,num_4,0.783488833229,,,2017_Mar_28_1847,60.0129542336,FEMA4ImagesEEG,001,200035,
AFNE01.JPG,AFNE01.JPG,AFNE01.JPG,AFNE01.JPG,AFNE01.JPG,AFNE01.JPG,,,,,,,,,,,,,,,,,,,,,0,5,5,1,,,AMSA12.jpg,AMNE13.jpg,AMNE19.jpg,AMSA10.jpg,AMNE13.jpg,MN,1,num_6,32,num_8,0.966796063702,,,2017_Mar_28_1847,60.0129542336,FEMA4ImagesEEG,001,200035,
AFNE01.JPG,AFNE01.JPG,AFNE01.JPG,AFNE01.JPG,AFNE01.JPG,AFNE01.JPG,,,,,,,,,,,,,,,,,,,,,0,6,6,8,,,AMSA17.jpg,AMNE05.jpg,AMSA15.jpg,AMNE04.jpg,AMSA17.jpg,MS,2,num_8,32,num_6,1.78338587587,,,2017_Mar_28_1847,60.0129542336,FEMA4ImagesEEG,001,200035,
AFNE01.JPG,AFNE01.JPG,AFNE01.JPG,AFNE01.JPG,AFNE01.JPG,AFNE01.JPG,,,,,,,,,,,,,,,,,,,,,0,7,7,2,,,AMNE05.jpg,AMNE09.jpg,AMSA13.jpg,AMSA09.jpg,AMSA09.jpg,MS,2,num_4,32,num_8,0.733447345672,,,2017_Mar_28_1847,60.0129542336,FEMA4ImagesEEG,001,200035,
AFNE01.JPG,AFNE01.JPG,AFNE01.JPG,AFNE01.JPG,AFNE01.JPG,AFNE01.JPG,,,,,,,,,,,,,,,,,,,,,0,8,8,3,,,AMSA10.jpg,AMNE13.jpg,AMSA12.jpg,AMNE06.jpg,AMNE06.jpg,MN,1,num_4,16,num_4,0.766822877689,,,2017_Mar_28_1847,60.0129542336,FEMA4ImagesEEG,001,200035,
AFNE01.JPG,AFNE01.JPG,AFNE01.JPG,AFNE01.JPG,AFNE01.JPG,AFNE01.JPG,,,,,,,,,,,,,,,,,,,,,0,9,9,5,,,AMSA02.jpg,AMNE18.jpg,AMSA11.jpg,AMNE03.jpg,AMSA11.jpg,MS,2,num_2,32,num_8,0.50016053021,,,2017_Mar_28_1847,60.0129542336,FEMA4ImagesEEG,001,200035,
AFNE01.JPG,AFNE01.JPG,AFNE01.JPG,AFNE01.JPG,AFNE01.JPG,AFNE01.JPG,,,,,,,,,,,,,,,,,,,,,1,0,10,1,,,AMNE12.jpg,AMSA11.jpg,AMNE02.jpg,AMSA10.jpg,AMNE02.jpg,MN,1,num_2,32,num_4,1.38347574708,,,2017_Mar_28_1847,60.0129542336,FEMA4ImagesEEG,001,200035,
AFNE01.JPG,AFNE01.JPG,AFNE01.JPG,AFNE01.JPG,AFNE01.JPG,AFNE01.JPG,,,,,,,,,,,,,,,,,,,,,1,1,11,8,,,AMSA18.jpg,AMNE09.jpg,AMSA19.jpg,AMNE19.jpg,AMSA18.jpg,MS,2,num_8,16,num_8,0.76674974896,,,2017_Mar_28_1847,60.0129542336,FEMA4ImagesEEG,001,200035,
AFNE01.JPG,AFNE01.JPG,AFNE01.JPG,AFNE01.JPG,AFNE01.JPG,AFNE01.JPG,,,,,,,,,,,,,,,,,,,,,1,2,12,7,,,AMSA10.jpg,AMNE10.jpg,AMNE17.jpg,AMSA19.jpg,AMNE17.jpg,MN,1,num_2,32,num_4,1.10023244005,,,2017_Mar_28_1847,60.0129542336,FEMA4ImagesEEG,001,200035,
AFNE01.JPG,AFNE01.JPG,AFNE01.JPG,AFNE01.JPG,AFNE01.JPG,AFNE01.JPG,,,,,,,,,,,,,,,,,,,,,1,3,13,4,,,AMSA14.jpg,AMSA08.jpg,AMNE02.jpg,AMNE09.jpg,AMNE09.jpg,MN,1,num_4,16,num_4,0.950107977027,,,2017_Mar_28_1847,60.0129542336,FEMA4ImagesEEG,001,200035,
AFNE01.JPG,AFNE01.JPG,AFNE01.JPG,AFNE01.JPG,AFNE01.JPG,AFNE01.JPG,,,,,,,,,,,,,,,,,,,,,1,4,14,5,,,AMSA07.jpg,AMNE12.jpg,AMNE08.jpg,AMSA12.jpg,AMNE12.jpg,MN,1,num_6,32,num_8,0.766802029568,,,2017_Mar_28_1847,60.0129542336,FEMA4ImagesEEG,001,200035,
AFNE01.JPG,AFNE01.JPG,AFNE01.JPG,AFNE01.JPG,AFNE01.JPG,AFNE01.JPG,,,,,,,,,,,,,,,,,,,,,1,5,15,0,,,AMNE11.jpg,AMNE02.jpg,AMSA20.jpg,AMSA17.jpg,AMSA20.jpg,MS,2,num_2,32,num_8,0.93347185012,,,2017_Mar_28_1847,60.0129542336,FEMA4ImagesEEG,001,200035,
AFNE01.JPG,AFNE01.JPG,AFNE01.JPG,AFNE01.JPG,AFNE01.JPG,AFNE01.JPG,,,,,,,,,,,,,,,,,,,,,1,6,16,2,,,AMSA11.jpg,AMNE20.jpg,AMNE09.jpg,AMSA16.jpg,AMSA16.jpg,MS,2,num_4,16,num_4,0.91673244501,,,2017_Mar_28_1847,60.0129542336,FEMA4ImagesEEG,001,200035,
AFNE01.JPG,AFNE01.JPG,AFNE01.JPG,AFNE01.JPG,AFNE01.JPG,AFNE01.JPG,,,,,,,,,,,,,,,,,,,,,1,7,17,3,,,AMSA19.jpg,AMNE06.jpg,AMNE15.jpg,AMSA02.jpg,AMSA02.jpg,MS,2,num_4,16,num_4,0.86682630959,,,2017_Mar_28_1847,60.0129542336,FEMA4ImagesEEG,001,200035,
AFNE01.JPG,AFNE01.JPG,AFNE01.JPG,AFNE01.JPG,AFNE01.JPG,AFNE01.JPG,,,,,,,,,,,,,,,,,,,,,1,8,18,9,,,AMNE03.jpg,AMNE18.jpg,AMSA10.jpg,AMSA15.jpg,AMSA15.jpg,MS,2,num_4,16,num_4,2.1166953675,,,2017_Mar_28_1847,60.0129542336,FEMA4ImagesEEG,001,200035,
AFNE01.JPG,AFNE01.JPG,AFNE01.JPG,AFNE01.JPG,AFNE01.JPG,AFNE01.JPG,,,,,,,,,,,,,,,,,,,,,1,9,19,6,,,AMNE16.jpg,AMNE14.jpg,AMSA17.jpg,AMSA04.jpg,AMSA04.jpg,MS,2,num_4,16,num_4,0.750199580216,,,2017_Mar_28_1847,60.0129542336,FEMA4ImagesEEG,001,200035,
AFNE01.JPG,AFNE01.JPG,AFNE01.JPG,AFNE01.JPG,AFNE01.JPG,AFNE01.JPG,,,,,,,,,,,,,,,,,,,,,2,0,20,7,,,AMNE11.jpg,AMSA06.jpg,AMSA15.jpg,AMNE14.jpg,AMNE14.jpg,MN,1,num_4,32,num_2,1.79978144797,,,2017_Mar_28_1847,60.0129542336,FEMA4ImagesEEG,001,200035,
AFNE01.JPG,AFNE01.JPG,AFNE01.JPG,AFNE01.JPG,AFNE01.JPG,AFNE01.JPG,,,,,,,,,,,,,,,,,,,,,2,1,21,9,,,AMNE18.jpg,AMSA20.jpg,AMNE06.jpg,AMSA11.jpg,AMSA20.jpg,MS,2,num_6,16,num_6,0.816779048531,,,2017_Mar_28_1847,60.0129542336,FEMA4ImagesEEG,001,200035,
AFNE01.JPG,AFNE01.JPG,AFNE01.JPG,AFNE01.JPG,AFNE01.JPG,AFNE01.JPG,,,,,,,,,,,,,,,,,,,,,2,2,22,6,,,AMNE19.jpg,AMSA09.jpg,AMSA17.jpg,AMNE20.jpg,AMNE20.jpg,MN,1,num_4,16,num_4,0.800160241546,,,2017_Mar_28_1847,60.0129542336,FEMA4ImagesEEG,001,200035,
AFNE01.JPG,AFNE01.JPG,AFNE01.JPG,AFNE01.JPG,AFNE01.JPG,AFNE01.JPG,,,,,,,,,,,,,,,,,,,,,2,3,23,5,,,AMNE10.jpg,AMSA18.jpg,AMSA09.jpg,AMNE13.jpg,AMSA18.jpg,MS,2,num_6,32,num_8,1.06675908249,,,2017_Mar_28_1847,60.0129542336,FEMA4ImagesEEG,001,200035,
AFNE01.JPG,AFNE01.JPG,AFNE01.JPG,AFNE01.JPG,AFNE01.JPG,AFNE01.JPG,,,,,,,,,,,,,,,,,,,,,2,4,24,8,,,AMNE02.jpg,AMNE17.jpg,AMSA10.jpg,AMSA08.jpg,AMNE17.jpg,MN,1,num_6,16,num_6,0.76645595138,,,2017_Mar_28_1847,60.0129542336,FEMA4ImagesEEG,001,200035,
AFNE01.JPG,AFNE01.JPG,AFNE01.JPG,AFNE01.JPG,AFNE01.JPG,AFNE01.JPG,,,,,,,,,,,,,,,,,,,,,2,5,25,1,,,AMNE11.jpg,AMNE15.jpg,AMSA02.jpg,AMSA09.jpg,AMSA09.jpg,MS,2,num_4,32,num_6,0.766765144421,,,2017_Mar_28_1847,60.0129542336,FEMA4ImagesEEG,001,200035,
AFNE01.JPG,AFNE01.JPG,AFNE01.JPG,AFNE01.JPG,AFNE01.JPG,AFNE01.JPG,,,,,,,,,,,,,,,,,,,,,2,6,26,4,,,AMSA20.jpg,AMSA05.jpg,AMNE18.jpg,AMNE02.jpg,AMNE02.jpg,MN,1,num_4,16,num_4,0.900143146166,,,2017_Mar_28_1847,60.0129542336,FEMA4ImagesEEG,001,200035,
AFNE01.JPG,AFNE01.JPG,AFNE01.JPG,AFNE01.JPG,AFNE01.JPG,AFNE01.JPG,,,,,,,,,,,,,,,,,,,,,2,7,27,3,,,AMNE07.jpg,AMSA03.jpg,AMSA13.jpg,AMNE20.jpg,AMNE20.jpg,MN,1,num_4,32,num_8,1.083460961,,,2017_Mar_28_1847,60.0129542336,FEMA4ImagesEEG,001,200035,
AFNE01.JPG,AFNE01.JPG,AFNE01.JPG,AFNE01.JPG,AFNE01.JPG,AFNE01.JPG,,,,,,,,,,,,,,,,,,,,,2,8,28,0,,,AMNE13.jpg,AMSA17.jpg,AMSA11.jpg,AMNE03.jpg,AMNE03.jpg,MN,1,num_4,32,num_2,1.45011198625,,,2017_Mar_28_1847,60.0129542336,FEMA4ImagesEEG,001,200035,
AFNE01.JPG,AFNE01.JPG,AFNE01.JPG,AFNE01.JPG,AFNE01.JPG,AFNE01.JPG,,,,,,,,,,,,,,,,,,,,,2,9,29,2,,,AMNE05.jpg,AMSA01.jpg,AMNE08.jpg,AMSA18.jpg,AMNE05.jpg,MN,1,num_8,32,num_4,1.05009056081,,,2017_Mar_28_1847,60.0129542336,FEMA4ImagesEEG,001,200035,
AFNE01.JPG,AFNE01.JPG,AFNE01.JPG,AFNE01.JPG,AFNE01.JPG,AFNE01.JPG,,,,,,,,,,,,,,,,,,,,,3,0,30,0,,,AMSA06.jpg,AMSA11.jpg,AMNE19.jpg,AMNE20.jpg,AMSA06.jpg,MS,2,num_8,16,num_8,0.750013871933,,,2017_Mar_28_1847,60.0129542336,FEMA4ImagesEEG,001,200035,
AFNE01.JPG,AFNE01.JPG,AFNE01.JPG,AFNE01.JPG,AFNE01.JPG,AFNE01.JPG,,,,,,,,,,,,,,,,,,,,,3,1,31,9,,,AMNE08.jpg,AMNE15.jpg,AMSA16.jpg,AMSA07.jpg,AMSA07.jpg,MS,2,num_4,16,num_4,0.866761520039,,,2017_Mar_28_1847,60.0129542336,FEMA4ImagesEEG,001,200035,
AFNE01.JPG,AFNE01.JPG,AFNE01.JPG,AFNE01.JPG,AFNE01.JPG,AFNE01.JPG,,,,,,,,,,,,,,,,,,,,,3,2,32,5,,,AMNE05.jpg,AMSA05.jpg,AMNE06.jpg,AMSA07.jpg,AMNE06.jpg,MN,1,num_2,32,num_6,1.28343446786,,,2017_Mar_28_1847,60.0129542336,FEMA4ImagesEEG,001,200035,
AFNE01.JPG,AFNE01.JPG,AFNE01.JPG,AFNE01.JPG,AFNE01.JPG,AFNE01.JPG,,,,,,,,,,,,,,,,,,,,,3,3,33,1,,,AMNE04.jpg,AMSA13.jpg,AMSA01.jpg,AMNE17.jpg,AMSA13.jpg,MS,2,num_6,32,num_2,2.28339309245,,,2017_Mar_28_1847,60.0129542336,FEMA4ImagesEEG,001,200035,
AFNE01.JPG,AFNE01.JPG,AFNE01.JPG,AFNE01.JPG,AFNE01.JPG,AFNE01.JPG,,,,,,,,,,,,,,,,,,,,,3,4,34,6,,,AMSA12.jpg,AMSA13.jpg,AMNE07.jpg,AMNE18.jpg,AMNE07.jpg,MN,1,num_2,16,num_2,1.53340263455,,,2017_Mar_28_1847,60.0129542336,FEMA4ImagesEEG,001,200035,
AFNE01.JPG,AFNE01.JPG,AFNE01.JPG,AFNE01.JPG,AFNE01.JPG,AFNE01.JPG,,,,,,,,,,,,,,,,,,,,,3,5,35,2,,,AMNE13.jpg,AMNE15.jpg,AMSA02.jpg,AMSA09.jpg,AMNE15.jpg,MN,1,num_6,16,num_6,0.966741538025,,,2017_Mar_28_1847,60.0129542336,FEMA4ImagesEEG,001,200035,
AFNE01.JPG,AFNE01.JPG,AFNE01.JPG,AFNE01.JPG,AFNE01.JPG,AFNE01.JPG,,,,,,,,,,,,,,,,,,,,,3,6,36,4,,,AMSA15.jpg,AMNE19.jpg,AMSA06.jpg,AMNE15.jpg,AMNE19.jpg,MN,1,num_6,32,num_8,0.9334959056,,,2017_Mar_28_1847,60.0129542336,FEMA4ImagesEEG,001,200035,
AFNE01.JPG,AFNE01.JPG,AFNE01.JPG,AFNE01.JPG,AFNE01.JPG,AFNE01.JPG,,,,,,,,,,,,,,,,,,,,,3,7,37,7,,,AMNE20.jpg,AMNE11.jpg,AMSA03.jpg,AMSA02.jpg,AMSA03.jpg,MS,2,num_2,32,num_8,0.866786858533,,,2017_Mar_28_1847,60.0129542336,FEMA4ImagesEEG,001,200035,
AFNE01.JPG,AFNE01.JPG,AFNE01.JPG,AFNE01.JPG,AFNE01.JPG,AFNE01.JPG,,,,,,,,,,,,,,,,,,,,,3,8,38,8,,,AMNE18.jpg,AMSA08.jpg,AMSA05.jpg,AMNE01.jpg,AMNE18.jpg,MN,1,num_8,16,num_8,1.31674007862,,,2017_Mar_28_1847,60.0129542336,FEMA4ImagesEEG,001,200035,
