IPosition2,IPosition3,IPosition1,IPosition6,IPosition4,IPosition5,TrialsM1.thisRepN,TrialsM1.thisTrialN,TrialsM1.thisN,TrialsM1.thisIndex,TrialsF1.thisRepN,TrialsF1.thisTrialN,TrialsF1.thisN,TrialsF1.thisIndex,TrialsM2.thisRepN,TrialsM2.thisTrialN,TrialsM2.thisN,TrialsM2.thisIndex,TrialsF2.thisRepN,TrialsF2.thisTrialN,TrialsF2.thisN,TrialsF2.thisIndex,TrialsM3.thisRepN,TrialsM3.thisTrialN,TrialsM3.thisN,TrialsM3.thisIndex,TrialsF3.thisRepN,TrialsF3.thisTrialN,TrialsF3.thisN,TrialsF3.thisIndex,InstrKey_resp.keys,InstrKey_resp.rt,Image0 _Position,Image1 _Position,Image2 _Position,Image3 _Position,Center_image,condition,code,correct_answer,accuracy,Key_Resp.keys,Key_Resp.rt,BreakKey_resp.keys,BreakKey_resp.rt,date,frameRate,expName,session,participant,
,,,,,,,,,,,,,,,,,,,,,,,,,,,,,,space,9.61618614465,,,,,,,,,,,,,,2017_Mar_16_1222,60.0036566744,MAFE4ImagesEEG,001,200049,
AMSA21.JPG,AMNE23.JPG,AMNE21.JPG,AMSA25.JPG,AMNE25.JPG,AMSA23.JPG,0,0,0,5,,,,,,,,,,,,,,,,,,,,,,,AMSA12.jpg,AMSA19.jpg,AMNE10.jpg,AMNE01.jpg,AMSA12.jpg,MS,2,num_8,32,num_4,0.83343778766,,,2017_Mar_16_1222,60.0036566744,MAFE4ImagesEEG,001,200049,
AMSA25.JPG,AMNE24.JPG,AMSA24.JPG,AMNE26.JPG,AMSA21.JPG,AMNE25.JPG,0,1,1,3,,,,,,,,,,,,,,,,,,,,,,,AMNE09.jpg,AMSA15.jpg,AMSA20.jpg,AMNE17.jpg,AMNE09.jpg,MN,1,num_8,16,num_8,1.08338246,,,2017_Mar_16_1222,60.0036566744,MAFE4ImagesEEG,001,200049,
AFNE23.JPG,AFNE24.JPG,AFNE22.JPG,AFSA24.JPG,AFSA22.JPG,AFSA23.JPG,0,2,2,8,,,,,,,,,,,,,,,,,,,,,,,AMNE08.jpg,AMSA12.jpg,AMSA17.jpg,AMNE19.jpg,AMSA17.jpg,MS,2,num_2,16,num_2,1.25014000305,,,2017_Mar_16_1222,60.0036566744,MAFE4ImagesEEG,001,200049,
AMSA21.JPG,AMNE22.JPG,AMNE21.JPG,AMSA23.JPG,AMSA22.JPG,AMNE23.JPG,0,3,3,1,,,,,,,,,,,,,,,,,,,,,,,AMNE15.jpg,AMNE08.jpg,AMSA19.jpg,AMSA16.jpg,AMSA16.jpg,MS,2,num_4,32,num_2,1.46675722231,,,2017_Mar_16_1222,60.0036566744,MAFE4ImagesEEG,001,200049,
AFSA21.JPG,AFNE23.JPG,AFNE21.JPG,AFSA25.JPG,AFNE25.JPG,AFSA23.JPG,0,4,4,4,,,,,,,,,,,,,,,,,,,,,,,AMNE20.jpg,AMNE15.jpg,AMSA20.jpg,AMSA04.jpg,AMSA20.jpg,MS,2,num_2,32,num_8,1.15016886964,,,2017_Mar_16_1222,60.0036566744,MAFE4ImagesEEG,001,200049,
AMNE23.JPG,AMNE24.JPG,AMNE22.JPG,AMSA24.JPG,AMSA22.JPG,AMSA23.JPG,0,5,5,9,,,,,,,,,,,,,,,,,,,,,,,AMNE15.jpg,AMNE19.jpg,AMSA18.jpg,AMSA10.jpg,AMSA18.jpg,MS,2,num_2,16,num_2,1.31674776046,,,2017_Mar_16_1222,60.0036566744,MAFE4ImagesEEG,001,200049,
AFSA21.JPG,AFNE22.JPG,AFNE21.JPG,AFSA23.JPG,AFSA22.JPG,AFNE23.JPG,0,6,6,0,,,,,,,,,,,,,,,,,,,,,,,AMSA11.jpg,AMNE11.jpg,AMSA02.jpg,AMNE16.jpg,AMNE11.jpg,MN,1,num_6,32,num_4,0.783345895645,,,2017_Mar_16_1222,60.0036566744,MAFE4ImagesEEG,001,200049,
AFNE22.JPG,AFSA24.JPG,AFSA22.JPG,AFNE25.JPG,AFNE24.JPG,AFSA25.JPG,0,7,7,6,,,,,,,,,,,,,,,,,,,,,,,AMNE14.jpg,AMSA14.jpg,AMNE03.jpg,AMSA19.jpg,AMSA19.jpg,MS,2,num_4,32,num_8,1.0500941372,,,2017_Mar_16_1222,60.0036566744,MAFE4ImagesEEG,001,200049,
AMNE22.JPG,AMSA24.JPG,AMSA22.JPG,AMNE25.JPG,AMNE24.JPG,AMSA25.JPG,0,8,8,7,,,,,,,,,,,,,,,,,,,,,,,AMSA09.jpg,AMNE06.jpg,AMSA15.jpg,AMNE15.jpg,AMSA15.jpg,MS,2,num_2,16,num_2,0.733662305633,,,2017_Mar_16_1222,60.0036566744,MAFE4ImagesEEG,001,200049,
AFSA25.JPG,AFNE24.JPG,AFSA24.JPG,AFNE21.JPG,AFSA21.JPG,AFNE25.JPG,0,9,9,2,,,,,,,,,,,,,,,,,,,,,,,AMSA10.jpg,AMNE06.jpg,AMSA07.jpg,AMNE04.jpg,AMNE06.jpg,MN,1,num_6,16,num_6,1.11672755383,,,2017_Mar_16_1222,60.0036566744,MAFE4ImagesEEG,001,200049,
AMSA21.JPG,AMNE22.JPG,AMNE21.JPG,AMSA23.JPG,AMSA22.JPG,AMNE23.JPG,,,,,0,0,0,1,,,,,,,,,,,,,,,,,,,AFNE18.jpg,AFSA07.jpg,AFSA05.jpg,AFNE02.jpg,AFSA07.jpg,FS,4,num_6,32,num_2,1.58342543914,,,2017_Mar_16_1222,60.0036566744,MAFE4ImagesEEG,001,200049,
AFSA21.JPG,AFNE22.JPG,AFNE21.JPG,AFSA23.JPG,AFSA22.JPG,AFNE23.JPG,,,,,0,1,1,0,,,,,,,,,,,,,,,,,,,AFSA17.jpg,AFSA14.jpg,AFNE03.jpg,AFNE18.jpg,AFNE03.jpg,FN,3,num_2,32,num_4,1.18344372133,,,2017_Mar_16_1222,60.0036566744,MAFE4ImagesEEG,001,200049,
AFSA21.JPG,AFNE23.JPG,AFNE21.JPG,AFSA25.JPG,AFNE25.JPG,AFSA23.JPG,,,,,0,2,2,4,,,,,,,,,,,,,,,,,,,AFNE13.jpg,AFSA01.jpg,AFSA05.jpg,AFNE02.jpg,AFSA01.jpg,FS,4,num_6,16,num_6,2.08337347931,,,2017_Mar_16_1222,60.0036566744,MAFE4ImagesEEG,001,200049,
AMNE23.JPG,AMNE24.JPG,AMNE22.JPG,AMSA24.JPG,AMSA22.JPG,AMSA23.JPG,,,,,0,3,3,9,,,,,,,,,,,,,,,,,,,AFSA06.jpg,AFSA18.jpg,AFNE02.jpg,AFNE19.jpg,AFNE19.jpg,FN,3,num_4,16,num_4,0.766740223044,,,2017_Mar_16_1222,60.0036566744,MAFE4ImagesEEG,001,200049,
AMSA21.JPG,AMNE23.JPG,AMNE21.JPG,AMSA25.JPG,AMNE25.JPG,AMSA23.JPG,,,,,0,4,4,5,,,,,,,,,,,,,,,,,,,AFNE13.jpg,AFSA03.jpg,AFSA09.jpg,AFNE03.jpg,AFNE03.jpg,FN,3,num_4,16,num_4,1.88340106292,,,2017_Mar_16_1222,60.0036566744,MAFE4ImagesEEG,001,200049,
AFSA25.JPG,AFNE24.JPG,AFSA24.JPG,AFNE21.JPG,AFSA21.JPG,AFNE25.JPG,,,,,0,5,5,2,,,,,,,,,,,,,,,,,,,AFSA04.jpg,AFNE04.jpg,AFSA17.jpg,AFNE16.jpg,AFNE04.jpg,FN,3,num_6,16,num_6,0.883454947267,,,2017_Mar_16_1222,60.0036566744,MAFE4ImagesEEG,001,200049,
AMNE22.JPG,AMSA24.JPG,AMSA22.JPG,AMNE25.JPG,AMNE24.JPG,AMSA25.JPG,,,,,0,6,6,7,,,,,,,,,,,,,,,,,,,AFSA04.jpg,AFNE19.jpg,AFSA13.jpg,AFNE20.jpg,AFNE20.jpg,FN,3,num_4,32,num_8,1.30016165297,,,2017_Mar_16_1222,60.0036566744,MAFE4ImagesEEG,001,200049,
AFNE23.JPG,AFNE24.JPG,AFNE22.JPG,AFSA24.JPG,AFSA22.JPG,AFSA23.JPG,,,,,0,7,7,8,,,,,,,,,,,,,,,,,,,AFSA20.jpg,AFNE16.jpg,AFSA15.jpg,AFNE20.jpg,AFNE16.jpg,FN,3,num_6,32,num_4,1.31675962784,,,2017_Mar_16_1222,60.0036566744,MAFE4ImagesEEG,001,200049,
AFNE22.JPG,AFSA24.JPG,AFSA22.JPG,AFNE25.JPG,AFNE24.JPG,AFSA25.JPG,,,,,0,8,8,6,,,,,,,,,,,,,,,,,,,AFSA13.jpg,AFNE10.jpg,AFNE04.jpg,AFSA16.jpg,AFNE04.jpg,FN,3,num_2,32,num_8,2.53329602059,,,2017_Mar_16_1222,60.0036566744,MAFE4ImagesEEG,001,200049,
AMSA25.JPG,AMNE24.JPG,AMSA24.JPG,AMNE26.JPG,AMSA21.JPG,AMNE25.JPG,,,,,0,9,9,3,,,,,,,,,,,,,,,,,,,AFNE11.jpg,AFSA11.jpg,AFSA17.jpg,AFNE01.jpg,AFNE11.jpg,FN,3,num_8,32,num_2,0.883467135369,,,2017_Mar_16_1222,60.0036566744,MAFE4ImagesEEG,001,200049,
AMNE22.JPG,AMSA24.JPG,AMSA22.JPG,AMNE25.JPG,AMNE24.JPG,AMSA25.JPG,,,,,,,,,0,0,0,7,,,,,,,,,,,,,,,AMNE03.jpg,AMNE02.jpg,AMSA01.jpg,AMSA06.jpg,AMSA01.jpg,MS,2,num_2,16,num_2,1.16710009333,,,2017_Mar_16_1222,60.0036566744,MAFE4ImagesEEG,001,200049,
AFSA21.JPG,AFNE23.JPG,AFNE21.JPG,AFSA25.JPG,AFNE25.JPG,AFSA23.JPG,,,,,,,,,0,1,1,4,,,,,,,,,,,,,,,AMSA12.jpg,AMNE08.jpg,AMSA18.jpg,AMNE14.jpg,AMSA12.jpg,MS,2,num_8,16,num_8,1.23350482236,,,2017_Mar_16_1222,60.0036566744,MAFE4ImagesEEG,001,200049,
AMSA21.JPG,AMNE22.JPG,AMNE21.JPG,AMSA23.JPG,AMSA22.JPG,AMNE23.JPG,,,,,,,,,0,2,2,1,,,,,,,,,,,,,,,AMNE05.jpg,AMNE11.jpg,AMSA03.jpg,AMSA16.jpg,AMNE11.jpg,MN,1,num_6,16,num_6,1.05010760832,,,2017_Mar_16_1222,60.0036566744,MAFE4ImagesEEG,001,200049,
AFSA25.JPG,AFNE24.JPG,AFSA24.JPG,AFNE21.JPG,AFSA21.JPG,AFNE25.JPG,,,,,,,,,0,3,3,2,,,,,,,,,,,,,,,AMNE09.jpg,AMSA10.jpg,AMNE02.jpg,AMSA19.jpg,AMSA10.jpg,MS,2,num_6,32,num_4,0.950119796384,,,2017_Mar_16_1222,60.0036566744,MAFE4ImagesEEG,001,200049,
AMNE23.JPG,AMNE24.JPG,AMNE22.JPG,AMSA24.JPG,AMSA22.JPG,AMSA23.JPG,,,,,,,,,0,4,4,9,,,,,,,,,,,,,,,AMSA06.jpg,AMNE01.jpg,AMSA08.jpg,AMNE09.jpg,AMSA06.jpg,MS,2,num_8,32,num_6,0.683485738293,,,2017_Mar_16_1222,60.0036566744,MAFE4ImagesEEG,001,200049,
AFNE23.JPG,AFNE24.JPG,AFNE22.JPG,AFSA24.JPG,AFSA22.JPG,AFSA23.JPG,,,,,,,,,0,5,5,8,,,,,,,,,,,,,,,AMNE20.jpg,AMSA12.jpg,AMSA03.jpg,AMNE13.jpg,AMSA12.jpg,MS,2,num_6,32,num_4,1.38337668666,,,2017_Mar_16_1222,60.0036566744,MAFE4ImagesEEG,001,200049,
AMSA25.JPG,AMNE24.JPG,AMSA24.JPG,AMNE26.JPG,AMSA21.JPG,AMNE25.JPG,,,,,,,,,0,6,6,3,,,,,,,,,,,,,,,AMNE13.jpg,AMSA18.jpg,AMSA19.jpg,AMNE05.jpg,AMSA19.jpg,MS,2,num_2,32,num_8,0.683436344378,,,2017_Mar_16_1222,60.0036566744,MAFE4ImagesEEG,001,200049,
AFSA21.JPG,AFNE22.JPG,AFNE21.JPG,AFSA23.JPG,AFSA22.JPG,AFNE23.JPG,,,,,,,,,0,7,7,0,,,,,,,,,,,,,,,AMNE10.jpg,AMSA14.jpg,AMNE01.jpg,AMSA11.jpg,AMNE10.jpg,MN,1,num_8,16,num_8,0.850141285977,,,2017_Mar_16_1222,60.0036566744,MAFE4ImagesEEG,001,200049,
AFNE22.JPG,AFSA24.JPG,AFSA22.JPG,AFNE25.JPG,AFNE24.JPG,AFSA25.JPG,,,,,,,,,0,8,8,6,,,,,,,,,,,,,,,AMNE11.jpg,AMSA10.jpg,AMSA04.jpg,AMNE17.jpg,AMSA04.jpg,MS,2,num_2,16,num_2,0.700154917431,,,2017_Mar_16_1222,60.0036566744,MAFE4ImagesEEG,001,200049,
AMSA21.JPG,AMNE23.JPG,AMNE21.JPG,AMSA25.JPG,AMNE25.JPG,AMSA23.JPG,,,,,,,,,0,9,9,5,,,,,,,,,,,,,,,AMSA10.jpg,AMNE11.jpg,AMNE14.jpg,AMSA17.jpg,AMNE14.jpg,MN,1,num_2,32,num_8,1.03340795886,,,2017_Mar_16_1222,60.0036566744,MAFE4ImagesEEG,001,200049,
AFSA25.JPG,AFNE24.JPG,AFSA24.JPG,AFNE21.JPG,AFSA21.JPG,AFNE25.JPG,,,,,,,,,,,,,0,0,0,2,,,,,,,,,,,AFNE08.jpg,AFNE07.jpg,AFSA06.jpg,AFSA01.jpg,AFSA06.jpg,FS,4,num_2,32,num_8,1.10015299299,,,2017_Mar_16_1222,60.0036566744,MAFE4ImagesEEG,001,200049,
AFSA21.JPG,AFNE22.JPG,AFNE21.JPG,AFSA23.JPG,AFSA22.JPG,AFNE23.JPG,,,,,,,,,,,,,0,1,1,0,,,,,,,,,,,AFSA19.jpg,AFNE17.jpg,AFNE19.jpg,AFSA16.jpg,AFNE17.jpg,FN,3,num_6,32,num_4,0.600151068531,,,2017_Mar_16_1222,60.0036566744,MAFE4ImagesEEG,001,200049,
AMSA21.JPG,AMNE23.JPG,AMNE21.JPG,AMSA25.JPG,AMNE25.JPG,AMSA23.JPG,,,,,,,,,,,,,0,2,2,5,,,,,,,,,,,AFSA06.jpg,AFNE03.jpg,AFSA08.jpg,AFNE01.jpg,AFSA08.jpg,FS,4,num_2,32,num_8,1.06675305264,,,2017_Mar_16_1222,60.0036566744,MAFE4ImagesEEG,001,200049,
AFNE22.JPG,AFSA24.JPG,AFSA22.JPG,AFNE25.JPG,AFNE24.JPG,AFSA25.JPG,,,,,,,,,,,,,0,3,3,6,,,,,,,,,,,AFNE19.jpg,AFSA14.jpg,AFNE15.jpg,AFSA13.jpg,AFSA13.jpg,FS,4,num_4,16,num_4,1.10011578712,,,2017_Mar_16_1222,60.0036566744,MAFE4ImagesEEG,001,200049,
AMSA25.JPG,AMNE24.JPG,AMSA24.JPG,AMNE26.JPG,AMSA21.JPG,AMNE25.JPG,,,,,,,,,,,,,0,4,4,3,,,,,,,,,,,AFNE06.jpg,AFNE05.jpg,AFSA10.jpg,AFSA18.jpg,AFNE06.jpg,FN,3,num_8,16,num_8,0.966765882215,,,2017_Mar_16_1222,60.0036566744,MAFE4ImagesEEG,001,200049,
AFSA21.JPG,AFNE23.JPG,AFNE21.JPG,AFSA25.JPG,AFNE25.JPG,AFSA23.JPG,,,,,,,,,,,,,0,5,5,4,,,,,,,,,,,AFSA06.jpg,AFSA10.jpg,AFNE14.jpg,AFNE10.jpg,AFNE14.jpg,FN,3,num_2,32,num_8,0.850115626818,,,2017_Mar_16_1222,60.0036566744,MAFE4ImagesEEG,001,200049,
AMNE23.JPG,AMNE24.JPG,AMNE22.JPG,AMSA24.JPG,AMSA22.JPG,AMSA23.JPG,,,,,,,,,,,,,0,6,6,9,,,,,,,,,,,AFNE08.jpg,AFSA06.jpg,AFNE05.jpg,AFSA19.jpg,AFSA19.jpg,FS,4,num_4,32,num_8,1.08341613773,,,2017_Mar_16_1222,60.0036566744,MAFE4ImagesEEG,001,200049,
AMSA21.JPG,AMNE22.JPG,AMNE21.JPG,AMSA23.JPG,AMSA22.JPG,AMNE23.JPG,,,,,,,,,,,,,0,7,7,1,,,,,,,,,,,AFNE10.jpg,AFNE09.jpg,AFSA12.jpg,AFSA01.jpg,AFSA12.jpg,FS,4,num_2,16,num_2,1.31673813827,,,2017_Mar_16_1222,60.0036566744,MAFE4ImagesEEG,001,200049,
AFNE23.JPG,AFNE24.JPG,AFNE22.JPG,AFSA24.JPG,AFSA22.JPG,AFSA23.JPG,,,,,,,,,,,,,0,8,8,8,,,,,,,,,,,AFSA09.jpg,AFNE06.jpg,AFSA08.jpg,AFNE14.jpg,AFSA08.jpg,FS,4,num_2,32,num_8,0.883458796132,,,2017_Mar_16_1222,60.0036566744,MAFE4ImagesEEG,001,200049,
AMNE22.JPG,AMSA24.JPG,AMSA22.JPG,AMNE25.JPG,AMNE24.JPG,AMSA25.JPG,,,,,,,,,,,,,0,9,9,7,,,,,,,,,,,AFSA02.jpg,AFSA17.jpg,AFNE01.jpg,AFNE07.jpg,AFNE07.jpg,FN,3,num_4,32,num_8,1.04998957593,,,2017_Mar_16_1222,60.0036566744,MAFE4ImagesEEG,001,200049,
AMNE22.JPG,AMSA24.JPG,AMSA22.JPG,AMNE25.JPG,AMNE24.JPG,AMSA25.JPG,,,,,,,,,,,,,,,,,0,0,0,7,,,,,,,AMNE17.jpg,AMSA01.jpg,AMSA09.jpg,AMNE11.jpg,AMSA01.jpg,MS,2,num_6,32,num_4,0.833487181633,,,2017_Mar_16_1222,60.0036566744,MAFE4ImagesEEG,001,200049,
AFNE23.JPG,AFNE24.JPG,AFNE22.JPG,AFSA24.JPG,AFSA22.JPG,AFSA23.JPG,,,,,,,,,,,,,,,,,0,1,1,8,,,,,,,AMNE10.jpg,AMSA12.jpg,AMSA20.jpg,AMNE12.jpg,AMSA20.jpg,MS,2,num_2,32,num_8,1.21677726851,,,2017_Mar_16_1222,60.0036566744,MAFE4ImagesEEG,001,200049,
AMSA21.JPG,AMNE23.JPG,AMNE21.JPG,AMSA25.JPG,AMNE25.JPG,AMSA23.JPG,,,,,,,,,,,,,,,,,0,2,2,5,,,,,,,AMSA11.jpg,AMNE12.jpg,AMNE13.jpg,AMSA09.jpg,AMNE12.jpg,MN,1,num_6,16,num_6,0.916792984761,,,2017_Mar_16_1222,60.0036566744,MAFE4ImagesEEG,001,200049,
AMSA25.JPG,AMNE24.JPG,AMSA24.JPG,AMNE26.JPG,AMSA21.JPG,AMNE25.JPG,,,,,,,,,,,,,,,,,0,3,3,3,,,,,,,AMSA06.jpg,AMNE01.jpg,AMSA10.jpg,AMNE11.jpg,AMNE11.jpg,MN,1,num_4,16,num_4,0.766766202927,,,2017_Mar_16_1222,60.0036566744,MAFE4ImagesEEG,001,200049,
AMNE23.JPG,AMNE24.JPG,AMNE22.JPG,AMSA24.JPG,AMSA22.JPG,AMSA23.JPG,,,,,,,,,,,,,,,,,0,4,4,9,,,,,,,AMSA06.jpg,AMNE07.jpg,AMSA15.jpg,AMNE20.jpg,AMNE20.jpg,MN,1,num_4,32,num_8,2.08332697203,,,2017_Mar_16_1222,60.0036566744,MAFE4ImagesEEG,001,200049,
AMSA21.JPG,AMNE22.JPG,AMNE21.JPG,AMSA23.JPG,AMSA22.JPG,AMNE23.JPG,,,,,,,,,,,,,,,,,0,5,5,1,,,,,,,AMSA01.jpg,AMSA17.jpg,AMNE08.jpg,AMNE05.jpg,AMNE05.jpg,MN,1,num_4,16,num_4,0.78349792643,,,2017_Mar_16_1222,60.0036566744,MAFE4ImagesEEG,001,200049,
AFSA25.JPG,AFNE24.JPG,AFSA24.JPG,AFNE21.JPG,AFSA21.JPG,AFNE25.JPG,,,,,,,,,,,,,,,,,0,6,6,2,,,,,,,AMNE11.jpg,AMSA18.jpg,AMSA01.jpg,AMNE18.jpg,AMNE18.jpg,MN,1,num_4,32,num_8,1.03344163654,,,2017_Mar_16_1222,60.0036566744,MAFE4ImagesEEG,001,200049,
AFNE22.JPG,AFSA24.JPG,AFSA22.JPG,AFNE25.JPG,AFNE24.JPG,AFSA25.JPG,,,,,,,,,,,,,,,,,0,7,7,6,,,,,,,AMSA07.jpg,AMNE18.jpg,AMSA01.jpg,AMNE08.jpg,AMSA07.jpg,MS,2,num_8,32,num_6,1.60007152503,,,2017_Mar_16_1222,60.0036566744,MAFE4ImagesEEG,001,200049,
AFSA21.JPG,AFNE23.JPG,AFNE21.JPG,AFSA25.JPG,AFNE25.JPG,AFSA23.JPG,,,,,,,,,,,,,,,,,0,8,8,4,,,,,,,AMNE14.jpg,AMNE04.jpg,AMSA06.jpg,AMSA20.jpg,AMNE14.jpg,MN,1,num_8,16,num_8,1.48353833967,,,2017_Mar_16_1222,60.0036566744,MAFE4ImagesEEG,001,200049,
AFSA21.JPG,AFNE22.JPG,AFNE21.JPG,AFSA23.JPG,AFSA22.JPG,AFNE23.JPG,,,,,,,,,,,,,,,,,0,9,9,0,,,,,,,AMSA15.jpg,AMNE03.jpg,AMNE11.jpg,AMSA12.jpg,AMNE11.jpg,MN,1,num_2,32,num_6,1.28344083467,,,2017_Mar_16_1222,60.0036566744,MAFE4ImagesEEG,001,200049,
AMSA21.JPG,AMNE23.JPG,AMNE21.JPG,AMSA25.JPG,AMNE25.JPG,AMSA23.JPG,,,,,,,,,,,,,,,,,,,,,0,0,0,5,,,AFSA14.jpg,AFSA07.jpg,AFNE02.jpg,AFNE20.jpg,AFNE02.jpg,FN,3,num_2,32,num_8,3.03301665606,,,2017_Mar_16_1222,60.0036566744,MAFE4ImagesEEG,001,200049,
AMNE23.JPG,AMNE24.JPG,AMNE22.JPG,AMSA24.JPG,AMSA22.JPG,AMSA23.JPG,,,,,,,,,,,,,,,,,,,,,0,1,1,9,,,AFNE11.jpg,AFSA19.jpg,AFNE02.jpg,AFSA18.jpg,AFNE11.jpg,FN,3,num_8,32,num_6,1.01677694777,,,2017_Mar_16_1222,60.0036566744,MAFE4ImagesEEG,001,200049,
AMNE22.JPG,AMSA24.JPG,AMSA22.JPG,AMNE25.JPG,AMNE24.JPG,AMSA25.JPG,,,,,,,,,,,,,,,,,,,,,0,2,2,7,,,AFNE20.jpg,AFNE03.jpg,AFSA01.jpg,AFSA09.jpg,AFNE20.jpg,FN,3,num_8,16,num_8,1.45010055194,,,2017_Mar_16_1222,60.0036566744,MAFE4ImagesEEG,001,200049,
AFNE22.JPG,AFSA24.JPG,AFSA22.JPG,AFNE25.JPG,AFNE24.JPG,AFSA25.JPG,,,,,,,,,,,,,,,,,,,,,0,3,3,6,,,AFSA17.jpg,AFNE11.jpg,AFNE09.jpg,AFSA11.jpg,AFNE09.jpg,FN,3,num_2,16,num_2,1.01677887223,,,2017_Mar_16_1222,60.0036566744,MAFE4ImagesEEG,001,200049,
AMSA21.JPG,AMNE22.JPG,AMNE21.JPG,AMSA23.JPG,AMSA22.JPG,AMNE23.JPG,,,,,,,,,,,,,,,,,,,,,0,4,4,1,,,AFSA14.jpg,AFSA20.jpg,AFNE19.jpg,AFNE05.jpg,AFSA20.jpg,FS,4,num_6,32,num_4,0.933525670436,,,2017_Mar_16_1222,60.0036566744,MAFE4ImagesEEG,001,200049,
AFSA25.JPG,AFNE24.JPG,AFSA24.JPG,AFNE21.JPG,AFSA21.JPG,AFNE25.JPG,,,,,,,,,,,,,,,,,,,,,0,5,5,2,,,AFNE04.jpg,AFNE17.jpg,AFSA02.jpg,AFSA19.jpg,AFNE17.jpg,FN,3,num_6,16,num_6,0.966656189179,,,2017_Mar_16_1222,60.0036566744,MAFE4ImagesEEG,001,200049,
AMSA25.JPG,AMNE24.JPG,AMSA24.JPG,AMNE26.JPG,AMSA21.JPG,AMNE25.JPG,,,,,,,,,,,,,,,,,,,,,0,6,6,3,,,AFSA20.jpg,AFNE17.jpg,AFNE10.jpg,AFSA04.jpg,AFSA20.jpg,FS,4,num_8,16,num_8,1.90005228063,,,2017_Mar_16_1222,60.0036566744,MAFE4ImagesEEG,001,200049,
AFNE23.JPG,AFNE24.JPG,AFNE22.JPG,AFSA24.JPG,AFSA22.JPG,AFSA23.JPG,,,,,,,,,,,,,,,,,,,,,0,7,7,8,,,AFNE07.jpg,AFSA19.jpg,AFSA07.jpg,AFNE13.jpg,AFNE13.jpg,FN,3,num_4,32,num_8,0.983527755248,,,2017_Mar_16_1222,60.0036566744,MAFE4ImagesEEG,001,200049,
AFSA21.JPG,AFNE22.JPG,AFNE21.JPG,AFSA23.JPG,AFSA22.JPG,AFNE23.JPG,,,,,,,,,,,,,,,,,,,,,0,8,8,0,,,AFSA09.jpg,AFSA10.jpg,AFNE20.jpg,AFNE01.jpg,AFSA09.jpg,FS,4,num_8,16,num_8,0.750026461028,,,2017_Mar_16_1222,60.0036566744,MAFE4ImagesEEG,001,200049,
AFSA21.JPG,AFNE23.JPG,AFNE21.JPG,AFSA25.JPG,AFNE25.JPG,AFSA23.JPG,,,,,,,,,,,,,,,,,,,,,0,9,9,4,,,AFNE02.jpg,AFSA09.jpg,AFNE11.jpg,AFSA17.jpg,AFNE11.jpg,FN,3,num_2,32,num_4,1.46661449294,,,2017_Mar_16_1222,60.0036566744,MAFE4ImagesEEG,001,200049,
,,,,,,,,,,,,,,,,,,,,,,,,,,,,,,,,,,,,,,,,,,,space,12.2156351134,2017_Mar_16_1222,60.0036566744,MAFE4ImagesEEG,001,200049,
AFNE01.JPG,AFNE01.JPG,AFNE01.JPG,AFNE01.JPG,AFNE01.JPG,AFNE01.JPG,0,0,0,7,,,,,,,,,,,,,,,,,,,,,,,AMNE12.jpg,AMSA13.jpg,AMSA02.jpg,AMNE13.jpg,AMSA13.jpg,MS,2,num_6,16,num_6,0.950240715407,,,2017_Mar_16_1222,60.0036566744,MAFE4ImagesEEG,001,200049,
AFNE01.JPG,AFNE01.JPG,AFNE01.JPG,AFNE01.JPG,AFNE01.JPG,AFNE01.JPG,0,1,1,8,,,,,,,,,,,,,,,,,,,,,,,AMNE06.jpg,AMSA10.jpg,AMNE19.jpg,AMSA18.jpg,AMNE06.jpg,MN,1,num_8,32,num_2,0.866794748872,,,2017_Mar_16_1222,60.0036566744,MAFE4ImagesEEG,001,200049,
AFNE01.JPG,AFNE01.JPG,AFNE01.JPG,AFNE01.JPG,AFNE01.JPG,AFNE01.JPG,0,2,2,1,,,,,,,,,,,,,,,,,,,,,,,AMSA09.jpg,AMNE13.jpg,AMSA13.jpg,AMNE03.jpg,AMSA13.jpg,MS,2,num_2,32,num_6,0.933450617304,,,2017_Mar_16_1222,60.0036566744,MAFE4ImagesEEG,001,200049,
AFNE01.JPG,AFNE01.JPG,AFNE01.JPG,AFNE01.JPG,AFNE01.JPG,AFNE01.JPG,0,3,3,3,,,,,,,,,,,,,,,,,,,,,,,AMSA19.jpg,AMNE11.jpg,AMSA02.jpg,AMNE17.jpg,AMSA19.jpg,MS,2,num_8,32,num_4,0.816749043355,,,2017_Mar_16_1222,60.0036566744,MAFE4ImagesEEG,001,200049,
AFNE01.JPG,AFNE01.JPG,AFNE01.JPG,AFNE01.JPG,AFNE01.JPG,AFNE01.JPG,0,4,4,2,,,,,,,,,,,,,,,,,,,,,,,AMNE04.jpg,AMSA03.jpg,AMNE06.jpg,AMSA09.jpg,AMNE04.jpg,MN,1,num_8,32,num_6,0.666789296258,,,2017_Mar_16_1222,60.0036566744,MAFE4ImagesEEG,001,200049,
AFNE01.JPG,AFNE01.JPG,AFNE01.JPG,AFNE01.JPG,AFNE01.JPG,AFNE01.JPG,0,5,5,9,,,,,,,,,,,,,,,,,,,,,,,AMSA18.jpg,AMNE12.jpg,AMNE17.jpg,AMSA01.jpg,AMSA18.jpg,MS,2,num_8,16,num_8,1.41677983449,,,2017_Mar_16_1222,60.0036566744,MAFE4ImagesEEG,001,200049,
AFNE01.JPG,AFNE01.JPG,AFNE01.JPG,AFNE01.JPG,AFNE01.JPG,AFNE01.JPG,0,6,6,4,,,,,,,,,,,,,,,,,,,,,,,AMSA06.jpg,AMSA18.jpg,AMNE16.jpg,AMNE02.jpg,AMSA18.jpg,MS,2,num_6,32,num_8,0.700174161815,,,2017_Mar_16_1222,60.0036566744,MAFE4ImagesEEG,001,200049,
AFNE01.JPG,AFNE01.JPG,AFNE01.JPG,AFNE01.JPG,AFNE01.JPG,AFNE01.JPG,0,7,7,6,,,,,,,,,,,,,,,,,,,,,,,AMNE02.jpg,AMSA08.jpg,AMNE13.jpg,AMSA04.jpg,AMNE13.jpg,MN,1,num_2,32,num_6,0.666759146727,,,2017_Mar_16_1222,60.0036566744,MAFE4ImagesEEG,001,200049,
AFNE01.JPG,AFNE01.JPG,AFNE01.JPG,AFNE01.JPG,AFNE01.JPG,AFNE01.JPG,0,8,8,0,,,,,,,,,,,,,,,,,,,,,,,AMSA13.jpg,AMNE14.jpg,AMNE02.jpg,AMSA19.jpg,AMSA13.jpg,MS,2,num_8,32,num_4,0.650020687724,,,2017_Mar_16_1222,60.0036566744,MAFE4ImagesEEG,001,200049,
AFNE01.JPG,AFNE01.JPG,AFNE01.JPG,AFNE01.JPG,AFNE01.JPG,AFNE01.JPG,0,9,9,5,,,,,,,,,,,,,,,,,,,,,,,AMSA14.jpg,AMNE16.jpg,AMNE04.jpg,AMSA18.jpg,AMSA18.jpg,MS,2,num_4,16,num_4,0.616550505336,,,2017_Mar_16_1222,60.0036566744,MAFE4ImagesEEG,001,200049,
AFNE01.JPG,AFNE01.JPG,AFNE01.JPG,AFNE01.JPG,AFNE01.JPG,AFNE01.JPG,1,0,10,8,,,,,,,,,,,,,,,,,,,,,,,AMSA05.jpg,AMNE09.jpg,AMSA20.jpg,AMNE10.jpg,AMSA20.jpg,MS,2,num_2,32,num_8,1.00012476789,,,2017_Mar_16_1222,60.0036566744,MAFE4ImagesEEG,001,200049,
AFNE01.JPG,AFNE01.JPG,AFNE01.JPG,AFNE01.JPG,AFNE01.JPG,AFNE01.JPG,1,1,11,5,,,,,,,,,,,,,,,,,,,,,,,AMSA19.jpg,AMNE03.jpg,AMNE18.jpg,AMSA20.jpg,AMSA20.jpg,MS,2,num_4,16,num_4,1.53347242757,,,2017_Mar_16_1222,60.0036566744,MAFE4ImagesEEG,001,200049,
AFNE01.JPG,AFNE01.JPG,AFNE01.JPG,AFNE01.JPG,AFNE01.JPG,AFNE01.JPG,1,2,12,7,,,,,,,,,,,,,,,,,,,,,,,AMSA02.jpg,AMNE03.jpg,AMNE05.jpg,AMSA01.jpg,AMNE05.jpg,MN,1,num_2,32,num_4,0.750182661403,,,2017_Mar_16_1222,60.0036566744,MAFE4ImagesEEG,001,200049,
AFNE01.JPG,AFNE01.JPG,AFNE01.JPG,AFNE01.JPG,AFNE01.JPG,AFNE01.JPG,1,3,13,3,,,,,,,,,,,,,,,,,,,,,,,AMNE19.jpg,AMNE17.jpg,AMSA04.jpg,AMSA17.jpg,AMSA04.jpg,MS,2,num_2,32,num_8,1.01683339803,,,2017_Mar_16_1222,60.0036566744,MAFE4ImagesEEG,001,200049,
AFNE01.JPG,AFNE01.JPG,AFNE01.JPG,AFNE01.JPG,AFNE01.JPG,AFNE01.JPG,1,4,14,0,,,,,,,,,,,,,,,,,,,,,,,AMSA17.jpg,AMNE09.jpg,AMSA16.jpg,AMNE18.jpg,AMSA16.jpg,MS,2,num_2,32,num_8,0.766801163671,,,2017_Mar_16_1222,60.0036566744,MAFE4ImagesEEG,001,200049,
AFNE01.JPG,AFNE01.JPG,AFNE01.JPG,AFNE01.JPG,AFNE01.JPG,AFNE01.JPG,1,5,15,2,,,,,,,,,,,,,,,,,,,,,,,AMNE01.jpg,AMSA02.jpg,AMSA11.jpg,AMNE10.jpg,AMNE01.jpg,MN,1,num_8,16,num_8,1.15021922579,,,2017_Mar_16_1222,60.0036566744,MAFE4ImagesEEG,001,200049,
AFNE01.JPG,AFNE01.JPG,AFNE01.JPG,AFNE01.JPG,AFNE01.JPG,AFNE01.JPG,1,6,16,4,,,,,,,,,,,,,,,,,,,,,,,AMSA20.jpg,AMNE20.jpg,AMNE04.jpg,AMSA15.jpg,AMNE20.jpg,MN,1,num_6,16,num_6,0.833554216311,,,2017_Mar_16_1222,60.0036566744,MAFE4ImagesEEG,001,200049,
AFNE01.JPG,AFNE01.JPG,AFNE01.JPG,AFNE01.JPG,AFNE01.JPG,AFNE01.JPG,1,7,17,9,,,,,,,,,,,,,,,,,,,,,,,AMNE06.jpg,AMSA05.jpg,AMNE13.jpg,AMSA17.jpg,AMSA05.jpg,MS,2,num_6,32,num_4,0.866782239988,,,2017_Mar_16_1222,60.0036566744,MAFE4ImagesEEG,001,200049,
AFNE01.JPG,AFNE01.JPG,AFNE01.JPG,AFNE01.JPG,AFNE01.JPG,AFNE01.JPG,1,8,18,6,,,,,,,,,,,,,,,,,,,,,,,AMNE19.jpg,AMNE05.jpg,AMSA13.jpg,AMSA07.jpg,AMSA07.jpg,MS,2,num_4,32,num_8,0.616770532972,,,2017_Mar_16_1222,60.0036566744,MAFE4ImagesEEG,001,200049,
AFNE01.JPG,AFNE01.JPG,AFNE01.JPG,AFNE01.JPG,AFNE01.JPG,AFNE01.JPG,1,9,19,1,,,,,,,,,,,,,,,,,,,,,,,AMSA02.jpg,AMNE13.jpg,AMSA18.jpg,AMNE11.jpg,AMSA18.jpg,MS,2,num_2,32,num_4,0.733390638838,,,2017_Mar_16_1222,60.0036566744,MAFE4ImagesEEG,001,200049,
AFNE01.JPG,AFNE01.JPG,AFNE01.JPG,AFNE01.JPG,AFNE01.JPG,AFNE01.JPG,2,0,20,6,,,,,,,,,,,,,,,,,,,,,,,AMNE17.jpg,AMNE18.jpg,AMSA15.jpg,AMSA18.jpg,AMSA15.jpg,MS,2,num_2,32,num_8,1.33355742367,,,2017_Mar_16_1222,60.0036566744,MAFE4ImagesEEG,001,200049,
AFNE01.JPG,AFNE01.JPG,AFNE01.JPG,AFNE01.JPG,AFNE01.JPG,AFNE01.JPG,2,1,21,7,,,,,,,,,,,,,,,,,,,,,,,AMSA13.jpg,AMNE13.jpg,AMSA10.jpg,AMNE08.jpg,AMNE08.jpg,MN,1,num_4,32,num_6,0.98348477605,,,2017_Mar_16_1222,60.0036566744,MAFE4ImagesEEG,001,200049,
AFNE01.JPG,AFNE01.JPG,AFNE01.JPG,AFNE01.JPG,AFNE01.JPG,AFNE01.JPG,2,2,22,0,,,,,,,,,,,,,,,,,,,,,,,AMSA15.jpg,AMNE07.jpg,AMSA02.jpg,AMNE09.jpg,AMSA02.jpg,MS,2,num_2,32,num_8,0.983646429027,,,2017_Mar_16_1222,60.0036566744,MAFE4ImagesEEG,001,200049,
AFNE01.JPG,AFNE01.JPG,AFNE01.JPG,AFNE01.JPG,AFNE01.JPG,AFNE01.JPG,2,3,23,4,,,,,,,,,,,,,,,,,,,,,,,AMSA09.jpg,AMNE07.jpg,AMSA15.jpg,AMNE06.jpg,AMSA09.jpg,MS,2,num_8,32,num_2,1.25009766535,,,2017_Mar_16_1222,60.0036566744,MAFE4ImagesEEG,001,200049,
AFNE01.JPG,AFNE01.JPG,AFNE01.JPG,AFNE01.JPG,AFNE01.JPG,AFNE01.JPG,2,4,24,2,,,,,,,,,,,,,,,,,,,,,,,AMSA09.jpg,AMNE06.jpg,AMNE03.jpg,AMSA20.jpg,AMNE03.jpg,MN,1,num_2,32,num_8,1.06675561861,,,2017_Mar_16_1222,60.0036566744,MAFE4ImagesEEG,001,200049,
AFNE01.JPG,AFNE01.JPG,AFNE01.JPG,AFNE01.JPG,AFNE01.JPG,AFNE01.JPG,2,5,25,5,,,,,,,,,,,,,,,,,,,,,,,AMSA17.jpg,AMNE02.jpg,AMNE05.jpg,AMSA01.jpg,AMSA01.jpg,MS,2,num_4,16,num_4,0.550164699962,,,2017_Mar_16_1222,60.0036566744,MAFE4ImagesEEG,001,200049,
AFNE01.JPG,AFNE01.JPG,AFNE01.JPG,AFNE01.JPG,AFNE01.JPG,AFNE01.JPG,2,6,26,1,,,,,,,,,,,,,,,,,,,,,,,AMSA18.jpg,AMNE17.jpg,AMNE10.jpg,AMSA06.jpg,AMSA06.jpg,MS,2,num_4,32,num_6,1.06677229708,,,2017_Mar_16_1222,60.0036566744,MAFE4ImagesEEG,001,200049,
AFNE01.JPG,AFNE01.JPG,AFNE01.JPG,AFNE01.JPG,AFNE01.JPG,AFNE01.JPG,2,7,27,9,,,,,,,,,,,,,,,,,,,,,,,AMNE01.jpg,AMSA15.jpg,AMNE13.jpg,AMSA05.jpg,AMSA15.jpg,MS,2,num_6,16,num_6,0.566799239197,,,2017_Mar_16_1222,60.0036566744,MAFE4ImagesEEG,001,200049,
AFNE01.JPG,AFNE01.JPG,AFNE01.JPG,AFNE01.JPG,AFNE01.JPG,AFNE01.JPG,2,8,28,3,,,,,,,,,,,,,,,,,,,,,,,AMNE15.jpg,AMSA06.jpg,AMSA02.jpg,AMNE04.jpg,AMNE15.jpg,MN,1,num_8,16,num_8,0.61681158765,,,2017_Mar_16_1222,60.0036566744,MAFE4ImagesEEG,001,200049,
AFNE01.JPG,AFNE01.JPG,AFNE01.JPG,AFNE01.JPG,AFNE01.JPG,AFNE01.JPG,2,9,29,8,,,,,,,,,,,,,,,,,,,,,,,AMSA07.jpg,AMNE17.jpg,AMSA15.jpg,AMNE05.jpg,AMSA07.jpg,MS,2,num_8,32,num_4,0.666788975534,,,2017_Mar_16_1222,60.0036566744,MAFE4ImagesEEG,001,200049,
AFNE01.JPG,AFNE01.JPG,AFNE01.JPG,AFNE01.JPG,AFNE01.JPG,AFNE01.JPG,3,0,30,8,,,,,,,,,,,,,,,,,,,,,,,AMSA15.jpg,AMNE07.jpg,AMSA05.jpg,AMNE03.jpg,AMSA05.jpg,MS,2,num_2,32,num_8,0.900188274391,,,2017_Mar_16_1222,60.0036566744,MAFE4ImagesEEG,001,200049,
AFNE01.JPG,AFNE01.JPG,AFNE01.JPG,AFNE01.JPG,AFNE01.JPG,AFNE01.JPG,3,1,31,3,,,,,,,,,,,,,,,,,,,,,,,AMNE18.jpg,AMSA08.jpg,AMNE10.jpg,AMSA13.jpg,AMNE10.jpg,MN,1,num_2,32,num_8,0.800128616742,,,2017_Mar_16_1222,60.0036566744,MAFE4ImagesEEG,001,200049,
AFNE01.JPG,AFNE01.JPG,AFNE01.JPG,AFNE01.JPG,AFNE01.JPG,AFNE01.JPG,3,2,32,1,,,,,,,,,,,,,,,,,,,,,,,AMSA02.jpg,AMNE04.jpg,AMSA13.jpg,AMNE03.jpg,AMSA02.jpg,MS,2,num_8,32,num_6,1.93337845075,,,2017_Mar_16_1222,60.0036566744,MAFE4ImagesEEG,001,200049,
AFNE01.JPG,AFNE01.JPG,AFNE01.JPG,AFNE01.JPG,AFNE01.JPG,AFNE01.JPG,3,3,33,5,,,,,,,,,,,,,,,,,,,,,,,AMSA19.jpg,AMNE17.jpg,AMSA17.jpg,AMNE07.jpg,AMSA19.jpg,MS,2,num_8,32,num_2,1.68328591727,,,2017_Mar_16_1222,60.0036566744,MAFE4ImagesEEG,001,200049,
AFNE01.JPG,AFNE01.JPG,AFNE01.JPG,AFNE01.JPG,AFNE01.JPG,AFNE01.JPG,3,4,34,6,,,,,,,,,,,,,,,,,,,,,,,AMNE11.jpg,AMSA04.jpg,AMSA03.jpg,AMNE17.jpg,AMNE17.jpg,MN,1,num_4,32,num_8,0.733487502381,,,2017_Mar_16_1222,60.0036566744,MAFE4ImagesEEG,001,200049,
AFNE01.JPG,AFNE01.JPG,AFNE01.JPG,AFNE01.JPG,AFNE01.JPG,AFNE01.JPG,3,5,35,0,,,,,,,,,,,,,,,,,,,,,,,AMSA01.jpg,AMNE15.jpg,AMNE20.jpg,AMSA04.jpg,AMSA04.jpg,MS,2,num_4,16,num_4,0.683496964222,,,2017_Mar_16_1222,60.0036566744,MAFE4ImagesEEG,001,200049,
AFNE01.JPG,AFNE01.JPG,AFNE01.JPG,AFNE01.JPG,AFNE01.JPG,AFNE01.JPG,3,6,36,7,,,,,,,,,,,,,,,,,,,,,,,AMSA08.jpg,AMSA16.jpg,AMNE01.jpg,AMNE12.jpg,AMSA16.jpg,MS,2,num_6,32,num_8,1.00014882337,,,2017_Mar_16_1222,60.0036566744,MAFE4ImagesEEG,001,200049,
AFNE01.JPG,AFNE01.JPG,AFNE01.JPG,AFNE01.JPG,AFNE01.JPG,AFNE01.JPG,3,7,37,9,,,,,,,,,,,,,,,,,,,,,,,AMSA07.jpg,AMSA17.jpg,AMNE10.jpg,AMNE05.jpg,AMNE05.jpg,MN,1,num_4,32,num_6,0.950102797186,,,2017_Mar_16_1222,60.0036566744,MAFE4ImagesEEG,001,200049,
AFNE01.JPG,AFNE01.JPG,AFNE01.JPG,AFNE01.JPG,AFNE01.JPG,AFNE01.JPG,3,8,38,2,,,,,,,,,,,,,,,,,,,,,,,AMNE17.jpg,AMSA14.jpg,AMNE03.jpg,AMSA19.jpg,AMNE17.jpg,MN,1,num_8,16,num_8,0.733453824709,,,2017_Mar_16_1222,60.0036566744,MAFE4ImagesEEG,001,200049,
AFNE01.JPG,AFNE01.JPG,AFNE01.JPG,AFNE01.JPG,AFNE01.JPG,AFNE01.JPG,3,9,39,4,,,,,,,,,,,,,,,,,,,,,,,AMNE09.jpg,AMNE17.jpg,AMSA16.jpg,AMSA08.jpg,AMNE09.jpg,MN,1,num_8,16,num_8,2.25004698843,,,2017_Mar_16_1222,60.0036566744,MAFE4ImagesEEG,001,200049,
AFNE01.JPG,AFNE01.JPG,AFNE01.JPG,AFNE01.JPG,AFNE01.JPG,AFNE01.JPG,4,0,40,5,,,,,,,,,,,,,,,,,,,,,,,AMSA18.jpg,AMNE13.jpg,AMSA17.jpg,AMNE20.jpg,AMNE20.jpg,MN,1,num_4,32,num_2,1.3001298997,,,2017_Mar_16_1222,60.0036566744,MAFE4ImagesEEG,001,200049,
AFNE01.JPG,AFNE01.JPG,AFNE01.JPG,AFNE01.JPG,AFNE01.JPG,AFNE01.JPG,4,1,41,4,,,,,,,,,,,,,,,,,,,,,,,AMSA10.jpg,AMSA03.jpg,AMNE14.jpg,AMNE10.jpg,AMNE14.jpg,MN,1,num_2,16,num_2,1.55010696681,,,2017_Mar_16_1222,60.0036566744,MAFE4ImagesEEG,001,200049,
AFNE01.JPG,AFNE01.JPG,AFNE01.JPG,AFNE01.JPG,AFNE01.JPG,AFNE01.JPG,4,2,42,2,,,,,,,,,,,,,,,,,,,,,,,AMNE14.jpg,AMNE20.jpg,AMSA10.jpg,AMSA04.jpg,AMSA04.jpg,MS,2,num_4,16,num_4,0.849890467303,,,2017_Mar_16_1222,60.0036566744,MAFE4ImagesEEG,001,200049,
AFNE01.JPG,AFNE01.JPG,AFNE01.JPG,AFNE01.JPG,AFNE01.JPG,AFNE01.JPG,4,3,43,8,,,,,,,,,,,,,,,,,,,,,,,AMNE16.jpg,AMNE15.jpg,AMSA04.jpg,AMSA02.jpg,AMNE16.jpg,MN,1,num_8,16,num_8,0.966805012547,,,2017_Mar_16_1222,60.0036566744,MAFE4ImagesEEG,001,200049,
AFNE01.JPG,AFNE01.JPG,AFNE01.JPG,AFNE01.JPG,AFNE01.JPG,AFNE01.JPG,4,4,44,7,,,,,,,,,,,,,,,,,,,,,,,AMNE18.jpg,AMSA16.jpg,AMSA01.jpg,AMNE20.jpg,AMSA01.jpg,MS,2,num_2,32,num_6,0.866810465115,,,2017_Mar_16_1222,60.0036566744,MAFE4ImagesEEG,001,200049,
AFNE01.JPG,AFNE01.JPG,AFNE01.JPG,AFNE01.JPG,AFNE01.JPG,AFNE01.JPG,4,5,45,6,,,,,,,,,,,,,,,,,,,,,,,AMNE11.jpg,AMNE13.jpg,AMSA09.jpg,AMSA15.jpg,AMSA15.jpg,MS,2,num_4,32,num_6,0.76675273187,,,2017_Mar_16_1222,60.0036566744,MAFE4ImagesEEG,001,200049,
AFNE01.JPG,AFNE01.JPG,AFNE01.JPG,AFNE01.JPG,AFNE01.JPG,AFNE01.JPG,4,6,46,1,,,,,,,,,,,,,,,,,,,,,,,AMSA18.jpg,AMSA10.jpg,AMNE15.jpg,AMNE16.jpg,AMSA18.jpg,MS,2,num_8,16,num_8,1.73344035359,,,2017_Mar_16_1222,60.0036566744,MAFE4ImagesEEG,001,200049,
AFNE01.JPG,AFNE01.JPG,AFNE01.JPG,AFNE01.JPG,AFNE01.JPG,AFNE01.JPG,4,7,47,0,,,,,,,,,,,,,,,,,,,,,,,AMNE03.jpg,AMSA14.jpg,AMNE20.jpg,AMSA18.jpg,AMSA14.jpg,MS,2,num_6,32,num_2,0.700145936687,,,2017_Mar_16_1222,60.0036566744,MAFE4ImagesEEG,001,200049,
AFNE01.JPG,AFNE01.JPG,AFNE01.JPG,AFNE01.JPG,AFNE01.JPG,AFNE01.JPG,4,8,48,9,,,,,,,,,,,,,,,,,,,,,,,AMNE06.jpg,AMNE18.jpg,AMSA15.jpg,AMSA10.jpg,AMNE06.jpg,MN,1,num_8,32,num_6,1.40010520269,,,2017_Mar_16_1222,60.0036566744,MAFE4ImagesEEG,001,200049,
AFNE01.JPG,AFNE01.JPG,AFNE01.JPG,AFNE01.JPG,AFNE01.JPG,AFNE01.JPG,4,9,49,3,,,,,,,,,,,,,,,,,,,,,,,AMSA14.jpg,AMNE10.jpg,AMSA08.jpg,AMNE11.jpg,AMNE11.jpg,MN,1,num_4,32,num_2,0.816768608522,,,2017_Mar_16_1222,60.0036566744,MAFE4ImagesEEG,001,200049,
AFNE01.JPG,AFNE01.JPG,AFNE01.JPG,AFNE01.JPG,AFNE01.JPG,AFNE01.JPG,5,0,50,0,,,,,,,,,,,,,,,,,,,,,,,AMNE10.jpg,AMSA12.jpg,AMSA20.jpg,AMNE14.jpg,AMSA20.jpg,MS,2,num_2,32,num_4,0.466786730336,,,2017_Mar_16_1222,60.0036566744,MAFE4ImagesEEG,001,200049,
AFNE01.JPG,AFNE01.JPG,AFNE01.JPG,AFNE01.JPG,AFNE01.JPG,AFNE01.JPG,5,1,51,2,,,,,,,,,,,,,,,,,,,,,,,AMSA11.jpg,AMNE19.jpg,AMNE18.jpg,AMSA02.jpg,AMNE19.jpg,MN,1,num_6,32,num_8,1.1668200873,,,2017_Mar_16_1222,60.0036566744,MAFE4ImagesEEG,001,200049,
AFNE01.JPG,AFNE01.JPG,AFNE01.JPG,AFNE01.JPG,AFNE01.JPG,AFNE01.JPG,5,2,52,7,,,,,,,,,,,,,,,,,,,,,,,AMSA18.jpg,AMNE10.jpg,AMNE20.jpg,AMSA13.jpg,AMNE10.jpg,MN,1,num_6,32,num_8,1.2003983591,,,2017_Mar_16_1222,60.0036566744,MAFE4ImagesEEG,001,200049,
AFNE01.JPG,AFNE01.JPG,AFNE01.JPG,AFNE01.JPG,AFNE01.JPG,AFNE01.JPG,5,3,53,3,,,,,,,,,,,,,,,,,,,,,,,AMNE17.jpg,AMSA10.jpg,AMSA05.jpg,AMNE10.jpg,AMNE17.jpg,MN,1,num_8,32,num_4,1.06644578371,,,2017_Mar_16_1222,60.0036566744,MAFE4ImagesEEG,001,200049,
AFNE01.JPG,AFNE01.JPG,AFNE01.JPG,AFNE01.JPG,AFNE01.JPG,AFNE01.JPG,5,4,54,1,,,,,,,,,,,,,,,,,,,,,,,AMSA11.jpg,AMSA12.jpg,AMNE08.jpg,AMNE07.jpg,AMNE07.jpg,MN,1,num_4,32,num_6,0.683466173126,,,2017_Mar_16_1222,60.0036566744,MAFE4ImagesEEG,001,200049,
AFNE01.JPG,AFNE01.JPG,AFNE01.JPG,AFNE01.JPG,AFNE01.JPG,AFNE01.JPG,5,5,55,9,,,,,,,,,,,,,,,,,,,,,,,AMSA10.jpg,AMNE11.jpg,AMSA19.jpg,AMNE15.jpg,AMNE15.jpg,MN,1,num_4,32,num_8,0.983489907871,,,2017_Mar_16_1222,60.0036566744,MAFE4ImagesEEG,001,200049,
AFNE01.JPG,AFNE01.JPG,AFNE01.JPG,AFNE01.JPG,AFNE01.JPG,AFNE01.JPG,5,6,56,4,,,,,,,,,,,,,,,,,,,,,,,AMSA12.jpg,AMSA19.jpg,AMNE14.jpg,AMNE12.jpg,AMNE12.jpg,MN,1,num_4,32,num_8,0.916779834428,,,2017_Mar_16_1222,60.0036566744,MAFE4ImagesEEG,001,200049,
AFNE01.JPG,AFNE01.JPG,AFNE01.JPG,AFNE01.JPG,AFNE01.JPG,AFNE01.JPG,5,7,57,6,,,,,,,,,,,,,,,,,,,,,,,AMSA17.jpg,AMSA08.jpg,AMNE04.jpg,AMNE03.jpg,AMSA08.jpg,MS,2,num_6,32,num_8,1.41677277815,,,2017_Mar_16_1222,60.0036566744,MAFE4ImagesEEG,001,200049,
AFNE01.JPG,AFNE01.JPG,AFNE01.JPG,AFNE01.JPG,AFNE01.JPG,AFNE01.JPG,5,8,58,8,,,,,,,,,,,,,,,,,,,,,,,AMNE01.jpg,AMSA18.jpg,AMSA10.jpg,AMNE05.jpg,AMSA10.jpg,MS,2,num_2,32,num_8,0.766776466626,,,2017_Mar_16_1222,60.0036566744,MAFE4ImagesEEG,001,200049,
AFNE01.JPG,AFNE01.JPG,AFNE01.JPG,AFNE01.JPG,AFNE01.JPG,AFNE01.JPG,5,9,59,5,,,,,,,,,,,,,,,,,,,,,,,AMSA10.jpg,AMNE20.jpg,AMSA14.jpg,AMNE17.jpg,AMNE20.jpg,MN,1,num_6,32,num_8,0.683492794575,,,2017_Mar_16_1222,60.0036566744,MAFE4ImagesEEG,001,200049,
,,,,,,,,,,,,,,,,,,,,,,,,,,,,,,,,,,,,,,,,,,,space,2.78332857572,2017_Mar_16_1222,60.0036566744,MAFE4ImagesEEG,001,200049,
AFNE01.JPG,AFNE01.JPG,AFNE01.JPG,AFNE01.JPG,AFNE01.JPG,AFNE01.JPG,,,,,0,0,0,4,,,,,,,,,,,,,,,,,,,AFNE13.jpg,AFNE16.jpg,AFSA16.jpg,AFSA08.jpg,AFNE13.jpg,FN,3,num_8,32,num_6,0.733469220228,,,2017_Mar_16_1222,60.0036566744,MAFE4ImagesEEG,001,200049,
AFNE01.JPG,AFNE01.JPG,AFNE01.JPG,AFNE01.JPG,AFNE01.JPG,AFNE01.JPG,,,,,0,1,1,5,,,,,,,,,,,,,,,,,,,AFSA05.jpg,AFNE04.jpg,AFSA14.jpg,AFNE01.jpg,AFSA05.jpg,FS,4,num_8,16,num_8,0.700158445572,,,2017_Mar_16_1222,60.0036566744,MAFE4ImagesEEG,001,200049,
AFNE01.JPG,AFNE01.JPG,AFNE01.JPG,AFNE01.JPG,AFNE01.JPG,AFNE01.JPG,,,,,0,2,2,6,,,,,,,,,,,,,,,,,,,AFSA15.jpg,AFNE10.jpg,AFSA02.jpg,AFNE06.jpg,AFNE10.jpg,FN,3,num_6,32,num_8,1.18346681463,,,2017_Mar_16_1222,60.0036566744,MAFE4ImagesEEG,001,200049,
AFNE01.JPG,AFNE01.JPG,AFNE01.JPG,AFNE01.JPG,AFNE01.JPG,AFNE01.JPG,,,,,0,3,3,2,,,,,,,,,,,,,,,,,,,AFSA02.jpg,AFNE09.jpg,AFSA05.jpg,AFNE11.jpg,AFNE09.jpg,FN,3,num_6,16,num_6,0.666778391111,,,2017_Mar_16_1222,60.0036566744,MAFE4ImagesEEG,001,200049,
AFNE01.JPG,AFNE01.JPG,AFNE01.JPG,AFNE01.JPG,AFNE01.JPG,AFNE01.JPG,,,,,0,4,4,9,,,,,,,,,,,,,,,,,,,AFNE03.jpg,AFSA11.jpg,AFSA10.jpg,AFNE15.jpg,AFSA11.jpg,FS,4,num_6,16,num_6,1.21674070414,,,2017_Mar_16_1222,60.0036566744,MAFE4ImagesEEG,001,200049,
AFNE01.JPG,AFNE01.JPG,AFNE01.JPG,AFNE01.JPG,AFNE01.JPG,AFNE01.JPG,,,,,0,5,5,0,,,,,,,,,,,,,,,,,,,AFNE07.jpg,AFNE05.jpg,AFSA01.jpg,AFSA09.jpg,AFNE05.jpg,FN,3,num_6,32,num_8,0.716845906922,,,2017_Mar_16_1222,60.0036566744,MAFE4ImagesEEG,001,200049,
AFNE01.JPG,AFNE01.JPG,AFNE01.JPG,AFNE01.JPG,AFNE01.JPG,AFNE01.JPG,,,,,0,6,6,1,,,,,,,,,,,,,,,,,,,AFNE05.jpg,AFSA19.jpg,AFSA05.jpg,AFNE07.jpg,AFSA19.jpg,FS,4,num_6,16,num_6,0.91678945662,,,2017_Mar_16_1222,60.0036566744,MAFE4ImagesEEG,001,200049,
AFNE01.JPG,AFNE01.JPG,AFNE01.JPG,AFNE01.JPG,AFNE01.JPG,AFNE01.JPG,,,,,0,7,7,3,,,,,,,,,,,,,,,,,,,AFNE09.jpg,AFNE10.jpg,AFSA05.jpg,AFSA09.jpg,AFNE10.jpg,FN,3,num_6,32,num_8,1.51677438186,,,2017_Mar_16_1222,60.0036566744,MAFE4ImagesEEG,001,200049,
AFNE01.JPG,AFNE01.JPG,AFNE01.JPG,AFNE01.JPG,AFNE01.JPG,AFNE01.JPG,,,,,0,8,8,7,,,,,,,,,,,,,,,,,,,AFNE05.jpg,AFSA03.jpg,AFNE15.jpg,AFSA02.jpg,AFNE05.jpg,FN,3,num_8,32,num_6,1.0501063253,,,2017_Mar_16_1222,60.0036566744,MAFE4ImagesEEG,001,200049,
AFNE01.JPG,AFNE01.JPG,AFNE01.JPG,AFNE01.JPG,AFNE01.JPG,AFNE01.JPG,,,,,0,9,9,8,,,,,,,,,,,,,,,,,,,AFNE08.jpg,AFSA06.jpg,AFSA07.jpg,AFNE11.jpg,AFSA07.jpg,FS,4,num_2,32,num_8,0.933483332745,,,2017_Mar_16_1222,60.0036566744,MAFE4ImagesEEG,001,200049,
AFNE01.JPG,AFNE01.JPG,AFNE01.JPG,AFNE01.JPG,AFNE01.JPG,AFNE01.JPG,,,,,1,0,10,6,,,,,,,,,,,,,,,,,,,AFSA02.jpg,AFNE01.jpg,AFNE02.jpg,AFSA18.jpg,AFNE01.jpg,FN,3,num_6,16,num_6,0.866761391866,,,2017_Mar_16_1222,60.0036566744,MAFE4ImagesEEG,001,200049,
AFNE01.JPG,AFNE01.JPG,AFNE01.JPG,AFNE01.JPG,AFNE01.JPG,AFNE01.JPG,,,,,1,1,11,3,,,,,,,,,,,,,,,,,,,AFSA13.jpg,AFNE12.jpg,AFNE11.jpg,AFSA15.jpg,AFNE12.jpg,FN,3,num_6,32,num_4,1.9666783202,,,2017_Mar_16_1222,60.0036566744,MAFE4ImagesEEG,001,200049,
AFNE01.JPG,AFNE01.JPG,AFNE01.JPG,AFNE01.JPG,AFNE01.JPG,AFNE01.JPG,,,,,1,2,12,5,,,,,,,,,,,,,,,,,,,AFSA03.jpg,AFSA09.jpg,AFNE08.jpg,AFNE15.jpg,AFSA03.jpg,FS,4,num_8,32,num_6,1.03344997577,,,2017_Mar_16_1222,60.0036566744,MAFE4ImagesEEG,001,200049,
AFNE01.JPG,AFNE01.JPG,AFNE01.JPG,AFNE01.JPG,AFNE01.JPG,AFNE01.JPG,,,,,1,3,13,4,,,,,,,,,,,,,,,,,,,AFSA16.jpg,AFNE07.jpg,AFSA14.jpg,AFNE03.jpg,AFNE03.jpg,FN,3,num_4,32,num_8,1.06671424309,,,2017_Mar_16_1222,60.0036566744,MAFE4ImagesEEG,001,200049,
AFNE01.JPG,AFNE01.JPG,AFNE01.JPG,AFNE01.JPG,AFNE01.JPG,AFNE01.JPG,,,,,1,4,14,2,,,,,,,,,,,,,,,,,,,AFSA03.jpg,AFNE05.jpg,AFSA01.jpg,AFNE13.jpg,AFSA01.jpg,FS,4,num_2,16,num_2,1.45010696683,,,2017_Mar_16_1222,60.0036566744,MAFE4ImagesEEG,001,200049,
AFNE01.JPG,AFNE01.JPG,AFNE01.JPG,AFNE01.JPG,AFNE01.JPG,AFNE01.JPG,,,,,1,5,15,0,,,,,,,,,,,,,,,,,,,AFSA17.jpg,AFSA18.jpg,AFNE13.jpg,AFNE20.jpg,AFSA17.jpg,FS,4,num_8,32,num_6,1.55009253346,,,2017_Mar_16_1222,60.0036566744,MAFE4ImagesEEG,001,200049,
AFNE01.JPG,AFNE01.JPG,AFNE01.JPG,AFNE01.JPG,AFNE01.JPG,AFNE01.JPG,,,,,1,6,16,9,,,,,,,,,,,,,,,,,,,AFSA19.jpg,AFSA16.jpg,AFNE14.jpg,AFNE05.jpg,AFSA19.jpg,FS,4,num_8,32,num_6,1.05011851346,,,2017_Mar_16_1222,60.0036566744,MAFE4ImagesEEG,001,200049,
AFNE01.JPG,AFNE01.JPG,AFNE01.JPG,AFNE01.JPG,AFNE01.JPG,AFNE01.JPG,,,,,1,7,17,8,,,,,,,,,,,,,,,,,,,AFNE16.jpg,AFSA12.jpg,AFNE14.jpg,AFSA04.jpg,AFSA12.jpg,FS,4,num_6,32,num_2,1.11673044047,,,2017_Mar_16_1222,60.0036566744,MAFE4ImagesEEG,001,200049,
AFNE01.JPG,AFNE01.JPG,AFNE01.JPG,AFNE01.JPG,AFNE01.JPG,AFNE01.JPG,,,,,1,8,18,1,,,,,,,,,,,,,,,,,,,AFNE05.jpg,AFNE13.jpg,AFSA13.jpg,AFSA05.jpg,AFSA13.jpg,FS,4,num_2,16,num_2,0.733498086804,,,2017_Mar_16_1222,60.0036566744,MAFE4ImagesEEG,001,200049,
AFNE01.JPG,AFNE01.JPG,AFNE01.JPG,AFNE01.JPG,AFNE01.JPG,AFNE01.JPG,,,,,1,9,19,7,,,,,,,,,,,,,,,,,,,AFSA07.jpg,AFNE03.jpg,AFNE07.jpg,AFSA14.jpg,AFSA07.jpg,FS,4,num_8,16,num_8,0.866781277757,,,2017_Mar_16_1222,60.0036566744,MAFE4ImagesEEG,001,200049,
AFNE01.JPG,AFNE01.JPG,AFNE01.JPG,AFNE01.JPG,AFNE01.JPG,AFNE01.JPG,,,,,2,0,20,8,,,,,,,,,,,,,,,,,,,AFSA09.jpg,AFNE02.jpg,AFNE14.jpg,AFSA05.jpg,AFNE02.jpg,FN,3,num_6,16,num_6,1.03347050311,,,2017_Mar_16_1222,60.0036566744,MAFE4ImagesEEG,001,200049,
AFNE01.JPG,AFNE01.JPG,AFNE01.JPG,AFNE01.JPG,AFNE01.JPG,AFNE01.JPG,,,,,2,1,21,9,,,,,,,,,,,,,,,,,,,AFNE11.jpg,AFSA18.jpg,AFNE18.jpg,AFSA01.jpg,AFNE11.jpg,FN,3,num_8,16,num_8,1.00009654276,,,2017_Mar_16_1222,60.0036566744,MAFE4ImagesEEG,001,200049,
AFNE01.JPG,AFNE01.JPG,AFNE01.JPG,AFNE01.JPG,AFNE01.JPG,AFNE01.JPG,,,,,2,2,22,6,,,,,,,,,,,,,,,,,,,AFNE09.jpg,AFSA04.jpg,AFNE08.jpg,AFSA16.jpg,AFSA16.jpg,FS,4,num_4,16,num_4,0.766791220696,,,2017_Mar_16_1222,60.0036566744,MAFE4ImagesEEG,001,200049,
AFNE01.JPG,AFNE01.JPG,AFNE01.JPG,AFNE01.JPG,AFNE01.JPG,AFNE01.JPG,,,,,2,3,23,0,,,,,,,,,,,,,,,,,,,AFSA06.jpg,AFSA03.jpg,AFNE14.jpg,AFNE07.jpg,AFSA06.jpg,FS,4,num_8,16,num_8,0.516749364149,,,2017_Mar_16_1222,60.0036566744,MAFE4ImagesEEG,001,200049,
AFNE01.JPG,AFNE01.JPG,AFNE01.JPG,AFNE01.JPG,AFNE01.JPG,AFNE01.JPG,,,,,2,4,24,3,,,,,,,,,,,,,,,,,,,AFNE19.jpg,AFNE17.jpg,AFSA07.jpg,AFSA01.jpg,AFSA01.jpg,FS,4,num_4,32,num_6,0.716822492832,,,2017_Mar_16_1222,60.0036566744,MAFE4ImagesEEG,001,200049,
AFNE01.JPG,AFNE01.JPG,AFNE01.JPG,AFNE01.JPG,AFNE01.JPG,AFNE01.JPG,,,,,2,5,25,5,,,,,,,,,,,,,,,,,,,AFSA18.jpg,AFNE06.jpg,AFNE10.jpg,AFSA12.jpg,AFNE10.jpg,FN,3,num_2,32,num_8,0.833494558639,,,2017_Mar_16_1222,60.0036566744,MAFE4ImagesEEG,001,200049,
AFNE01.JPG,AFNE01.JPG,AFNE01.JPG,AFNE01.JPG,AFNE01.JPG,AFNE01.JPG,,,,,2,6,26,1,,,,,,,,,,,,,,,,,,,AFSA18.jpg,AFNE12.jpg,AFSA01.jpg,AFNE07.jpg,AFSA01.jpg,FS,4,num_2,32,num_6,0.966795711021,,,2017_Mar_16_1222,60.0036566744,MAFE4ImagesEEG,001,200049,
AFNE01.JPG,AFNE01.JPG,AFNE01.JPG,AFNE01.JPG,AFNE01.JPG,AFNE01.JPG,,,,,2,7,27,7,,,,,,,,,,,,,,,,,,,AFSA20.jpg,AFSA08.jpg,AFNE11.jpg,AFNE16.jpg,AFSA20.jpg,FS,4,num_8,32,num_2,1.31687637721,,,2017_Mar_16_1222,60.0036566744,MAFE4ImagesEEG,001,200049,
AFNE01.JPG,AFNE01.JPG,AFNE01.JPG,AFNE01.JPG,AFNE01.JPG,AFNE01.JPG,,,,,2,8,28,4,,,,,,,,,,,,,,,,,,,AFSA05.jpg,AFNE11.jpg,AFNE13.jpg,AFSA12.jpg,AFNE11.jpg,FN,3,num_6,16,num_6,0.799976585957,,,2017_Mar_16_1222,60.0036566744,MAFE4ImagesEEG,001,200049,
AFNE01.JPG,AFNE01.JPG,AFNE01.JPG,AFNE01.JPG,AFNE01.JPG,AFNE01.JPG,,,,,2,9,29,2,,,,,,,,,,,,,,,,,,,AFSA09.jpg,AFNE10.jpg,AFNE04.jpg,AFSA15.jpg,AFSA15.jpg,FS,4,num_4,32,num_2,1.0334660128,,,2017_Mar_16_1222,60.0036566744,MAFE4ImagesEEG,001,200049,
AFNE01.JPG,AFNE01.JPG,AFNE01.JPG,AFNE01.JPG,AFNE01.JPG,AFNE01.JPG,,,,,3,0,30,0,,,,,,,,,,,,,,,,,,,AFNE14.jpg,AFNE08.jpg,AFSA07.jpg,AFSA13.jpg,AFSA07.jpg,FS,4,num_2,32,num_8,1.06672643125,,,2017_Mar_16_1222,60.0036566744,MAFE4ImagesEEG,001,200049,
AFNE01.JPG,AFNE01.JPG,AFNE01.JPG,AFNE01.JPG,AFNE01.JPG,AFNE01.JPG,,,,,3,1,31,3,,,,,,,,,,,,,,,,,,,AFNE15.jpg,AFSA08.jpg,AFNE07.jpg,AFSA07.jpg,AFNE07.jpg,FN,3,num_2,16,num_2,1.38343377836,,,2017_Mar_16_1222,60.0036566744,MAFE4ImagesEEG,001,200049,
AFNE01.JPG,AFNE01.JPG,AFNE01.JPG,AFNE01.JPG,AFNE01.JPG,AFNE01.JPG,,,,,3,2,32,1,,,,,,,,,,,,,,,,,,,AFNE10.jpg,AFSA20.jpg,AFNE08.jpg,AFSA08.jpg,AFNE10.jpg,FN,3,num_8,32,num_4,1.71669836645,,,2017_Mar_16_1222,60.0036566744,MAFE4ImagesEEG,001,200049,
AFNE01.JPG,AFNE01.JPG,AFNE01.JPG,AFNE01.JPG,AFNE01.JPG,AFNE01.JPG,,,,,3,3,33,6,,,,,,,,,,,,,,,,,,,AFSA02.jpg,AFNE14.jpg,AFSA19.jpg,AFNE17.jpg,AFSA02.jpg,FS,4,num_8,16,num_8,2.2666590758,,,2017_Mar_16_1222,60.0036566744,MAFE4ImagesEEG,001,200049,
AFNE01.JPG,AFNE01.JPG,AFNE01.JPG,AFNE01.JPG,AFNE01.JPG,AFNE01.JPG,,,,,3,4,34,8,,,,,,,,,,,,,,,,,,,AFSA13.jpg,AFSA08.jpg,AFNE03.jpg,AFNE02.jpg,AFSA13.jpg,FS,4,num_8,32,num_6,0.516828907654,,,2017_Mar_16_1222,60.0036566744,MAFE4ImagesEEG,001,200049,
AFNE01.JPG,AFNE01.JPG,AFNE01.JPG,AFNE01.JPG,AFNE01.JPG,AFNE01.JPG,,,,,3,5,35,4,,,,,,,,,,,,,,,,,,,AFNE06.jpg,AFNE20.jpg,AFSA06.jpg,AFSA15.jpg,AFNE20.jpg,FN,3,num_6,32,num_8,0.800135031517,,,2017_Mar_16_1222,60.0036566744,MAFE4ImagesEEG,001,200049,
AFNE01.JPG,AFNE01.JPG,AFNE01.JPG,AFNE01.JPG,AFNE01.JPG,AFNE01.JPG,,,,,3,6,36,7,,,,,,,,,,,,,,,,,,,AFNE03.jpg,AFSA20.jpg,AFSA16.jpg,AFNE06.jpg,AFNE06.jpg,FN,3,num_4,32,num_6,0.666816238372,,,2017_Mar_16_1222,60.0036566744,MAFE4ImagesEEG,001,200049,
AFNE01.JPG,AFNE01.JPG,AFNE01.JPG,AFNE01.JPG,AFNE01.JPG,AFNE01.JPG,,,,,3,7,37,2,,,,,,,,,,,,,,,,,,,AFNE18.jpg,AFNE13.jpg,AFSA03.jpg,AFSA02.jpg,AFNE18.jpg,FN,3,num_8,32,num_4,1.10009654274,,,2017_Mar_16_1222,60.0036566744,MAFE4ImagesEEG,001,200049,
AFNE01.JPG,AFNE01.JPG,AFNE01.JPG,AFNE01.JPG,AFNE01.JPG,AFNE01.JPG,,,,,3,8,38,9,,,,,,,,,,,,,,,,,,,AFNE15.jpg,AFSA13.jpg,AFSA03.jpg,AFNE18.jpg,AFSA13.jpg,FS,4,num_6,32,num_2,1.23342367512,,,2017_Mar_16_1222,60.0036566744,MAFE4ImagesEEG,001,200049,
AFNE01.JPG,AFNE01.JPG,AFNE01.JPG,AFNE01.JPG,AFNE01.JPG,AFNE01.JPG,,,,,3,9,39,5,,,,,,,,,,,,,,,,,,,AFSA12.jpg,AFNE13.jpg,AFSA04.jpg,AFNE20.jpg,AFSA04.jpg,FS,4,num_2,16,num_2,0.916799720319,,,2017_Mar_16_1222,60.0036566744,MAFE4ImagesEEG,001,200049,
AFNE01.JPG,AFNE01.JPG,AFNE01.JPG,AFNE01.JPG,AFNE01.JPG,AFNE01.JPG,,,,,4,0,40,2,,,,,,,,,,,,,,,,,,,AFSA10.jpg,AFNE09.jpg,AFNE07.jpg,AFSA17.jpg,AFSA10.jpg,FS,4,num_8,32,num_4,1.10012508859,,,2017_Mar_16_1222,60.0036566744,MAFE4ImagesEEG,001,200049,
AFNE01.JPG,AFNE01.JPG,AFNE01.JPG,AFNE01.JPG,AFNE01.JPG,AFNE01.JPG,,,,,4,1,41,3,,,,,,,,,,,,,,,,,,,AFSA04.jpg,AFNE20.jpg,AFSA09.jpg,AFNE09.jpg,AFNE09.jpg,FN,3,num_4,32,num_6,0.883502737503,,,2017_Mar_16_1222,60.0036566744,MAFE4ImagesEEG,001,200049,
AFNE01.JPG,AFNE01.JPG,AFNE01.JPG,AFNE01.JPG,AFNE01.JPG,AFNE01.JPG,,,,,4,2,42,5,,,,,,,,,,,,,,,,,,,AFNE10.jpg,AFNE18.jpg,AFSA10.jpg,AFSA18.jpg,AFNE10.jpg,FN,3,num_8,32,num_2,0.566627001797,,,2017_Mar_16_1222,60.0036566744,MAFE4ImagesEEG,001,200049,
AFNE01.JPG,AFNE01.JPG,AFNE01.JPG,AFNE01.JPG,AFNE01.JPG,AFNE01.JPG,,,,,4,3,43,6,,,,,,,,,,,,,,,,,,,AFSA02.jpg,AFNE12.jpg,AFNE18.jpg,AFSA06.jpg,AFSA02.jpg,FS,4,num_8,16,num_8,0.683334669739,,,2017_Mar_16_1222,60.0036566744,MAFE4ImagesEEG,001,200049,
AFNE01.JPG,AFNE01.JPG,AFNE01.JPG,AFNE01.JPG,AFNE01.JPG,AFNE01.JPG,,,,,4,4,44,8,,,,,,,,,,,,,,,,,,,AFNE12.jpg,AFNE09.jpg,AFSA20.jpg,AFSA01.jpg,AFNE09.jpg,FN,3,num_6,32,num_2,0.883320877911,,,2017_Mar_16_1222,60.0036566744,MAFE4ImagesEEG,001,200049,
AFNE01.JPG,AFNE01.JPG,AFNE01.JPG,AFNE01.JPG,AFNE01.JPG,AFNE01.JPG,,,,,4,5,45,4,,,,,,,,,,,,,,,,,,,AFSA05.jpg,AFNE13.jpg,AFNE10.jpg,AFSA16.jpg,AFNE13.jpg,FN,3,num_6,16,num_6,0.816810625489,,,2017_Mar_16_1222,60.0036566744,MAFE4ImagesEEG,001,200049,
AFNE01.JPG,AFNE01.JPG,AFNE01.JPG,AFNE01.JPG,AFNE01.JPG,AFNE01.JPG,,,,,4,6,46,0,,,,,,,,,,,,,,,,,,,AFNE14.jpg,AFNE20.jpg,AFSA02.jpg,AFSA14.jpg,AFSA14.jpg,FS,4,num_4,32,num_2,1.36672707269,,,2017_Mar_16_1222,60.0036566744,MAFE4ImagesEEG,001,200049,
AFNE01.JPG,AFNE01.JPG,AFNE01.JPG,AFNE01.JPG,AFNE01.JPG,AFNE01.JPG,,,,,4,7,47,1,,,,,,,,,,,,,,,,,,,AFNE18.jpg,AFSA07.jpg,AFNE08.jpg,AFSA01.jpg,AFSA01.jpg,FS,4,num_4,16,num_4,0.700117390836,,,2017_Mar_16_1222,60.0036566744,MAFE4ImagesEEG,001,200049,
AFNE01.JPG,AFNE01.JPG,AFNE01.JPG,AFNE01.JPG,AFNE01.JPG,AFNE01.JPG,,,,,4,8,48,9,,,,,,,,,,,,,,,,,,,AFSA19.jpg,AFSA07.jpg,AFNE20.jpg,AFNE12.jpg,AFSA19.jpg,FS,4,num_8,32,num_2,1.10011963604,,,2017_Mar_16_1222,60.0036566744,MAFE4ImagesEEG,001,200049,
AFNE01.JPG,AFNE01.JPG,AFNE01.JPG,AFNE01.JPG,AFNE01.JPG,AFNE01.JPG,,,,,4,9,49,7,,,,,,,,,,,,,,,,,,,AFSA20.jpg,AFNE19.jpg,AFNE18.jpg,AFSA04.jpg,AFSA20.jpg,FS,4,num_8,32,num_6,0.566822011722,,,2017_Mar_16_1222,60.0036566744,MAFE4ImagesEEG,001,200049,
AFNE01.JPG,AFNE01.JPG,AFNE01.JPG,AFNE01.JPG,AFNE01.JPG,AFNE01.JPG,,,,,5,0,50,9,,,,,,,,,,,,,,,,,,,AFNE09.jpg,AFNE11.jpg,AFSA18.jpg,AFSA19.jpg,AFNE11.jpg,FN,3,num_6,32,num_2,1.25012236228,,,2017_Mar_16_1222,60.0036566744,MAFE4ImagesEEG,001,200049,
AFNE01.JPG,AFNE01.JPG,AFNE01.JPG,AFNE01.JPG,AFNE01.JPG,AFNE01.JPG,,,,,5,1,51,6,,,,,,,,,,,,,,,,,,,AFSA11.jpg,AFSA15.jpg,AFNE04.jpg,AFNE02.jpg,AFSA11.jpg,FS,4,num_8,16,num_8,0.483484134602,,,2017_Mar_16_1222,60.0036566744,MAFE4ImagesEEG,001,200049,
AFNE01.JPG,AFNE01.JPG,AFNE01.JPG,AFNE01.JPG,AFNE01.JPG,AFNE01.JPG,,,,,5,2,52,8,,,,,,,,,,,,,,,,,,,AFSA10.jpg,AFNE01.jpg,AFSA05.jpg,AFNE11.jpg,AFSA05.jpg,FS,4,num_2,32,num_8,0.733449975785,,,2017_Mar_16_1222,60.0036566744,MAFE4ImagesEEG,001,200049,
AFNE01.JPG,AFNE01.JPG,AFNE01.JPG,AFNE01.JPG,AFNE01.JPG,AFNE01.JPG,,,,,5,3,53,0,,,,,,,,,,,,,,,,,,,AFSA18.jpg,AFSA14.jpg,AFNE04.jpg,AFNE02.jpg,AFSA14.jpg,FS,4,num_6,16,num_6,1.46674471343,,,2017_Mar_16_1222,60.0036566744,MAFE4ImagesEEG,001,200049,
AFNE01.JPG,AFNE01.JPG,AFNE01.JPG,AFNE01.JPG,AFNE01.JPG,AFNE01.JPG,,,,,5,4,54,7,,,,,,,,,,,,,,,,,,,AFSA19.jpg,AFNE16.jpg,AFNE18.jpg,AFSA10.jpg,AFSA19.jpg,FS,4,num_8,32,num_2,0.916768287774,,,2017_Mar_16_1222,60.0036566744,MAFE4ImagesEEG,001,200049,
AFNE01.JPG,AFNE01.JPG,AFNE01.JPG,AFNE01.JPG,AFNE01.JPG,AFNE01.JPG,,,,,5,5,55,4,,,,,,,,,,,,,,,,,,,AFNE09.jpg,AFSA17.jpg,AFNE11.jpg,AFSA01.jpg,AFSA01.jpg,FS,4,num_4,32,num_8,0.800154596684,,,2017_Mar_16_1222,60.0036566744,MAFE4ImagesEEG,001,200049,
AFNE01.JPG,AFNE01.JPG,AFNE01.JPG,AFNE01.JPG,AFNE01.JPG,AFNE01.JPG,,,,,5,6,56,1,,,,,,,,,,,,,,,,,,,AFSA01.jpg,AFSA09.jpg,AFNE14.jpg,AFNE16.jpg,AFSA09.jpg,FS,4,num_6,32,num_8,0.583525830822,,,2017_Mar_16_1222,60.0036566744,MAFE4ImagesEEG,001,200049,
AFNE01.JPG,AFNE01.JPG,AFNE01.JPG,AFNE01.JPG,AFNE01.JPG,AFNE01.JPG,,,,,5,7,57,5,,,,,,,,,,,,,,,,,,,AFSA15.jpg,AFNE15.jpg,AFNE09.jpg,AFSA12.jpg,AFNE09.jpg,FN,3,num_2,32,num_8,0.266799559933,,,2017_Mar_16_1222,60.0036566744,MAFE4ImagesEEG,001,200049,
AFNE01.JPG,AFNE01.JPG,AFNE01.JPG,AFNE01.JPG,AFNE01.JPG,AFNE01.JPG,,,,,5,8,58,2,,,,,,,,,,,,,,,,,,,AFSA19.jpg,AFSA16.jpg,AFNE14.jpg,AFNE05.jpg,AFSA16.jpg,FS,4,num_6,16,num_6,0.60016646405,,,2017_Mar_16_1222,60.0036566744,MAFE4ImagesEEG,001,200049,
AFNE01.JPG,AFNE01.JPG,AFNE01.JPG,AFNE01.JPG,AFNE01.JPG,AFNE01.JPG,,,,,5,9,59,3,,,,,,,,,,,,,,,,,,,AFSA04.jpg,AFNE16.jpg,AFSA03.jpg,AFNE14.jpg,AFNE16.jpg,FN,3,num_6,32,num_2,1.84980322595,,,2017_Mar_16_1222,60.0036566744,MAFE4ImagesEEG,001,200049,
,,,,,,,,,,,,,,,,,,,,,,,,,,,,,,,,,,,,,,,,,,,space,2.63332969829,2017_Mar_16_1222,60.0036566744,MAFE4ImagesEEG,001,200049,
AFNE01.JPG,AFNE01.JPG,AFNE01.JPG,AFNE01.JPG,AFNE01.JPG,AFNE01.JPG,,,,,,,,,0,0,0,1,,,,,,,,,,,,,,,AMNE05.jpg,AMSA12.jpg,AMNE07.jpg,AMSA16.jpg,AMSA12.jpg,MS,2,num_6,32,num_4,0.550187793269,,,2017_Mar_16_1222,60.0036566744,MAFE4ImagesEEG,001,200049,
AFNE01.JPG,AFNE01.JPG,AFNE01.JPG,AFNE01.JPG,AFNE01.JPG,AFNE01.JPG,,,,,,,,,0,1,1,6,,,,,,,,,,,,,,,AMSA18.jpg,AMNE02.jpg,AMNE10.jpg,AMSA01.jpg,AMSA01.jpg,MS,2,num_4,32,num_8,2.38323074998,,,2017_Mar_16_1222,60.0036566744,MAFE4ImagesEEG,001,200049,
AFNE01.JPG,AFNE01.JPG,AFNE01.JPG,AFNE01.JPG,AFNE01.JPG,AFNE01.JPG,,,,,,,,,0,2,2,2,,,,,,,,,,,,,,,AMSA10.jpg,AMNE01.jpg,AMNE17.jpg,AMSA18.jpg,AMNE17.jpg,MN,1,num_2,16,num_2,0.883428325818,,,2017_Mar_16_1222,60.0036566744,MAFE4ImagesEEG,001,200049,
AFNE01.JPG,AFNE01.JPG,AFNE01.JPG,AFNE01.JPG,AFNE01.JPG,AFNE01.JPG,,,,,,,,,0,3,3,9,,,,,,,,,,,,,,,AMNE19.jpg,AMSA08.jpg,AMSA10.jpg,AMNE05.jpg,AMNE05.jpg,MN,1,num_4,32,num_6,0.450161813293,,,2017_Mar_16_1222,60.0036566744,MAFE4ImagesEEG,001,200049,
AFNE01.JPG,AFNE01.JPG,AFNE01.JPG,AFNE01.JPG,AFNE01.JPG,AFNE01.JPG,,,,,,,,,0,4,4,7,,,,,,,,,,,,,,,AMSA14.jpg,AMSA13.jpg,AMNE06.jpg,AMNE01.jpg,AMNE01.jpg,MN,1,num_4,16,num_4,0.516810304718,,,2017_Mar_16_1222,60.0036566744,MAFE4ImagesEEG,001,200049,
AFNE01.JPG,AFNE01.JPG,AFNE01.JPG,AFNE01.JPG,AFNE01.JPG,AFNE01.JPG,,,,,,,,,0,5,5,5,,,,,,,,,,,,,,,AMNE14.jpg,AMNE17.jpg,AMSA02.jpg,AMSA15.jpg,AMSA02.jpg,MS,2,num_2,16,num_2,0.400255309069,,,2017_Mar_16_1222,60.0036566744,MAFE4ImagesEEG,001,200049,
AFNE01.JPG,AFNE01.JPG,AFNE01.JPG,AFNE01.JPG,AFNE01.JPG,AFNE01.JPG,,,,,,,,,0,6,6,0,,,,,,,,,,,,,,,AMSA06.jpg,AMNE06.jpg,AMSA01.jpg,AMNE18.jpg,AMNE06.jpg,MN,1,num_6,32,num_4,1.11660823849,,,2017_Mar_16_1222,60.0036566744,MAFE4ImagesEEG,001,200049,
AFNE01.JPG,AFNE01.JPG,AFNE01.JPG,AFNE01.JPG,AFNE01.JPG,AFNE01.JPG,,,,,,,,,0,7,7,3,,,,,,,,,,,,,,,AMSA01.jpg,AMNE10.jpg,AMNE17.jpg,AMSA15.jpg,AMNE10.jpg,MN,1,num_6,32,num_2,1.30025146017,,,2017_Mar_16_1222,60.0036566744,MAFE4ImagesEEG,001,200049,
AFNE01.JPG,AFNE01.JPG,AFNE01.JPG,AFNE01.JPG,AFNE01.JPG,AFNE01.JPG,,,,,,,,,0,8,8,4,,,,,,,,,,,,,,,AMSA08.jpg,AMSA04.jpg,AMNE09.jpg,AMNE19.jpg,AMNE09.jpg,MN,1,num_2,32,num_4,0.750204792479,,,2017_Mar_16_1222,60.0036566744,MAFE4ImagesEEG,001,200049,
AFNE01.JPG,AFNE01.JPG,AFNE01.JPG,AFNE01.JPG,AFNE01.JPG,AFNE01.JPG,,,,,,,,,0,9,9,8,,,,,,,,,,,,,,,AMNE03.jpg,AMSA20.jpg,AMSA02.jpg,AMNE05.jpg,AMNE03.jpg,MN,1,num_8,32,num_2,0.933485577931,,,2017_Mar_16_1222,60.0036566744,MAFE4ImagesEEG,001,200049,
AFNE01.JPG,AFNE01.JPG,AFNE01.JPG,AFNE01.JPG,AFNE01.JPG,AFNE01.JPG,,,,,,,,,1,0,10,7,,,,,,,,,,,,,,,AMNE20.jpg,AMSA16.jpg,AMNE02.jpg,AMSA20.jpg,AMSA20.jpg,MS,2,num_4,32,num_2,0.833457352768,,,2017_Mar_16_1222,60.0036566744,MAFE4ImagesEEG,001,200049,
AFNE01.JPG,AFNE01.JPG,AFNE01.JPG,AFNE01.JPG,AFNE01.JPG,AFNE01.JPG,,,,,,,,,1,1,11,3,,,,,,,,,,,,,,,AMNE11.jpg,AMNE05.jpg,AMSA16.jpg,AMSA10.jpg,AMNE11.jpg,MN,1,num_8,32,num_4,0.700278081582,,,2017_Mar_16_1222,60.0036566744,MAFE4ImagesEEG,001,200049,
AFNE01.JPG,AFNE01.JPG,AFNE01.JPG,AFNE01.JPG,AFNE01.JPG,AFNE01.JPG,,,,,,,,,1,2,12,5,,,,,,,,,,,,,,,AMNE09.jpg,AMNE01.jpg,AMSA04.jpg,AMSA01.jpg,AMNE09.jpg,MN,1,num_8,16,num_8,1.01681062544,,,2017_Mar_16_1222,60.0036566744,MAFE4ImagesEEG,001,200049,
AFNE01.JPG,AFNE01.JPG,AFNE01.JPG,AFNE01.JPG,AFNE01.JPG,AFNE01.JPG,,,,,,,,,1,3,13,1,,,,,,,,,,,,,,,AMNE07.jpg,AMSA12.jpg,AMSA11.jpg,AMNE19.jpg,AMNE19.jpg,MN,1,num_4,16,num_4,0.76675529778,,,2017_Mar_16_1222,60.0036566744,MAFE4ImagesEEG,001,200049,
AFNE01.JPG,AFNE01.JPG,AFNE01.JPG,AFNE01.JPG,AFNE01.JPG,AFNE01.JPG,,,,,,,,,1,4,14,4,,,,,,,,,,,,,,,AMSA03.jpg,AMNE18.jpg,AMNE07.jpg,AMSA04.jpg,AMSA03.jpg,MS,2,num_8,32,num_4,0.600119636045,,,2017_Mar_16_1222,60.0036566744,MAFE4ImagesEEG,001,200049,
AFNE01.JPG,AFNE01.JPG,AFNE01.JPG,AFNE01.JPG,AFNE01.JPG,AFNE01.JPG,,,,,,,,,1,5,15,6,,,,,,,,,,,,,,,AMSA01.jpg,AMSA20.jpg,AMNE20.jpg,AMNE10.jpg,AMSA20.jpg,MS,2,num_6,32,num_4,0.733500331989,,,2017_Mar_16_1222,60.0036566744,MAFE4ImagesEEG,001,200049,
AFNE01.JPG,AFNE01.JPG,AFNE01.JPG,AFNE01.JPG,AFNE01.JPG,AFNE01.JPG,,,,,,,,,1,6,16,9,,,,,,,,,,,,,,,AMNE20.jpg,AMSA07.jpg,AMSA16.jpg,AMNE15.jpg,AMNE15.jpg,MN,1,num_4,32,num_6,1.58341196808,,,2017_Mar_16_1222,60.0036566744,MAFE4ImagesEEG,001,200049,
AFNE01.JPG,AFNE01.JPG,AFNE01.JPG,AFNE01.JPG,AFNE01.JPG,AFNE01.JPG,,,,,,,,,1,7,17,0,,,,,,,,,,,,,,,AMSA06.jpg,AMNE11.jpg,AMSA09.jpg,AMNE02.jpg,AMNE02.jpg,MN,1,num_4,16,num_4,0.666860821308,,,2017_Mar_16_1222,60.0036566744,MAFE4ImagesEEG,001,200049,
AFNE01.JPG,AFNE01.JPG,AFNE01.JPG,AFNE01.JPG,AFNE01.JPG,AFNE01.JPG,,,,,,,,,1,8,18,8,,,,,,,,,,,,,,,AMNE03.jpg,AMSA14.jpg,AMSA03.jpg,AMNE20.jpg,AMSA14.jpg,MS,2,num_6,32,num_8,1.13341918477,,,2017_Mar_16_1222,60.0036566744,MAFE4ImagesEEG,001,200049,
AFNE01.JPG,AFNE01.JPG,AFNE01.JPG,AFNE01.JPG,AFNE01.JPG,AFNE01.JPG,,,,,,,,,1,9,19,2,,,,,,,,,,,,,,,AMSA04.jpg,AMNE09.jpg,AMSA05.jpg,AMNE17.jpg,AMSA05.jpg,MS,2,num_2,32,num_8,1.30011161754,,,2017_Mar_16_1222,60.0036566744,MAFE4ImagesEEG,001,200049,
AFNE01.JPG,AFNE01.JPG,AFNE01.JPG,AFNE01.JPG,AFNE01.JPG,AFNE01.JPG,,,,,,,,,2,0,20,9,,,,,,,,,,,,,,,AMNE17.jpg,AMNE02.jpg,AMSA05.jpg,AMSA20.jpg,AMNE02.jpg,MN,1,num_6,16,num_6,0.900178972923,,,2017_Mar_16_1222,60.0036566744,MAFE4ImagesEEG,001,200049,
AFNE01.JPG,AFNE01.JPG,AFNE01.JPG,AFNE01.JPG,AFNE01.JPG,AFNE01.JPG,,,,,,,,,2,1,21,3,,,,,,,,,,,,,,,AMSA11.jpg,AMNE19.jpg,AMNE10.jpg,AMSA09.jpg,AMNE10.jpg,MN,1,num_2,32,num_8,1.01674711896,,,2017_Mar_16_1222,60.0036566744,MAFE4ImagesEEG,001,200049,
AFNE01.JPG,AFNE01.JPG,AFNE01.JPG,AFNE01.JPG,AFNE01.JPG,AFNE01.JPG,,,,,,,,,2,2,22,7,,,,,,,,,,,,,,,AMSA09.jpg,AMSA13.jpg,AMNE01.jpg,AMNE15.jpg,AMSA09.jpg,MS,2,num_8,32,num_2,0.6668704435,,,2017_Mar_16_1222,60.0036566744,MAFE4ImagesEEG,001,200049,
AFNE01.JPG,AFNE01.JPG,AFNE01.JPG,AFNE01.JPG,AFNE01.JPG,AFNE01.JPG,,,,,,,,,2,3,23,2,,,,,,,,,,,,,,,AMSA05.jpg,AMNE19.jpg,AMSA15.jpg,AMNE09.jpg,AMNE09.jpg,MN,1,num_4,32,num_8,1.03349103051,,,2017_Mar_16_1222,60.0036566744,MAFE4ImagesEEG,001,200049,
AFNE01.JPG,AFNE01.JPG,AFNE01.JPG,AFNE01.JPG,AFNE01.JPG,AFNE01.JPG,,,,,,,,,2,4,24,0,,,,,,,,,,,,,,,AMNE10.jpg,AMNE03.jpg,AMSA13.jpg,AMSA06.jpg,AMSA06.jpg,MS,2,num_4,32,num_2,0.500096863485,,,2017_Mar_16_1222,60.0036566744,MAFE4ImagesEEG,001,200049,
AFNE01.JPG,AFNE01.JPG,AFNE01.JPG,AFNE01.JPG,AFNE01.JPG,AFNE01.JPG,,,,,,,,,2,5,25,8,,,,,,,,,,,,,,,AMNE02.jpg,AMNE15.jpg,AMSA14.jpg,AMSA03.jpg,AMNE02.jpg,MN,1,num_8,16,num_8,2.93331301981,,,2017_Mar_16_1222,60.0036566744,MAFE4ImagesEEG,001,200049,
AFNE01.JPG,AFNE01.JPG,AFNE01.JPG,AFNE01.JPG,AFNE01.JPG,AFNE01.JPG,,,,,,,,,2,6,26,5,,,,,,,,,,,,,,,AMSA15.jpg,AMNE15.jpg,AMSA18.jpg,AMNE20.jpg,AMSA18.jpg,MS,2,num_2,16,num_2,0.400139842648,,,2017_Mar_16_1222,60.0036566744,MAFE4ImagesEEG,001,200049,
AFNE01.JPG,AFNE01.JPG,AFNE01.JPG,AFNE01.JPG,AFNE01.JPG,AFNE01.JPG,,,,,,,,,2,7,27,4,,,,,,,,,,,,,,,AMNE09.jpg,AMSA04.jpg,AMNE12.jpg,AMSA08.jpg,AMSA04.jpg,MS,2,num_6,16,num_6,0.533485257183,,,2017_Mar_16_1222,60.0036566744,MAFE4ImagesEEG,001,200049,
AFNE01.JPG,AFNE01.JPG,AFNE01.JPG,AFNE01.JPG,AFNE01.JPG,AFNE01.JPG,,,,,,,,,2,8,28,6,,,,,,,,,,,,,,,AMNE11.jpg,AMSA10.jpg,AMNE12.jpg,AMSA17.jpg,AMNE11.jpg,MN,1,num_8,32,num_4,1.33346697502,,,2017_Mar_16_1222,60.0036566744,MAFE4ImagesEEG,001,200049,
AFNE01.JPG,AFNE01.JPG,AFNE01.JPG,AFNE01.JPG,AFNE01.JPG,AFNE01.JPG,,,,,,,,,2,9,29,1,,,,,,,,,,,,,,,AMNE08.jpg,AMSA01.jpg,AMSA15.jpg,AMNE12.jpg,AMNE08.jpg,MN,1,num_8,32,num_6,0.733500331931,,,2017_Mar_16_1222,60.0036566744,MAFE4ImagesEEG,001,200049,
AFNE01.JPG,AFNE01.JPG,AFNE01.JPG,AFNE01.JPG,AFNE01.JPG,AFNE01.JPG,,,,,,,,,3,0,30,6,,,,,,,,,,,,,,,AMNE07.jpg,AMSA10.jpg,AMSA07.jpg,AMNE11.jpg,AMSA07.jpg,MS,2,num_2,32,num_4,0.783477078308,,,2017_Mar_16_1222,60.0036566744,MAFE4ImagesEEG,001,200049,
AFNE01.JPG,AFNE01.JPG,AFNE01.JPG,AFNE01.JPG,AFNE01.JPG,AFNE01.JPG,,,,,,,,,3,1,31,9,,,,,,,,,,,,,,,AMNE03.jpg,AMSA17.jpg,AMSA04.jpg,AMNE13.jpg,AMNE13.jpg,MN,1,num_4,32,num_2,1.53338999744,,,2017_Mar_16_1222,60.0036566744,MAFE4ImagesEEG,001,200049,
AFNE01.JPG,AFNE01.JPG,AFNE01.JPG,AFNE01.JPG,AFNE01.JPG,AFNE01.JPG,,,,,,,,,3,2,32,4,,,,,,,,,,,,,,,AMNE11.jpg,AMSA13.jpg,AMSA19.jpg,AMNE07.jpg,AMSA19.jpg,MS,2,num_2,32,num_6,1.18343441992,,,2017_Mar_16_1222,60.0036566744,MAFE4ImagesEEG,001,200049,
AFNE01.JPG,AFNE01.JPG,AFNE01.JPG,AFNE01.JPG,AFNE01.JPG,AFNE01.JPG,,,,,,,,,3,3,33,3,,,,,,,,,,,,,,,AMNE15.jpg,AMSA18.jpg,AMNE12.jpg,AMSA01.jpg,AMSA18.jpg,MS,2,num_6,32,num_8,1.28321695817,,,2017_Mar_16_1222,60.0036566744,MAFE4ImagesEEG,001,200049,
AFNE01.JPG,AFNE01.JPG,AFNE01.JPG,AFNE01.JPG,AFNE01.JPG,AFNE01.JPG,,,,,,,,,3,4,34,8,,,,,,,,,,,,,,,AMNE12.jpg,AMSA06.jpg,AMNE05.jpg,AMSA18.jpg,AMSA06.jpg,MS,2,num_6,32,num_2,0.983495039749,,,2017_Mar_16_1222,60.0036566744,MAFE4ImagesEEG,001,200049,
AFNE01.JPG,AFNE01.JPG,AFNE01.JPG,AFNE01.JPG,AFNE01.JPG,AFNE01.JPG,,,,,,,,,3,5,35,5,,,,,,,,,,,,,,,AMNE12.jpg,AMNE05.jpg,AMSA13.jpg,AMSA15.jpg,AMSA13.jpg,MS,2,num_2,32,num_8,1.10010456125,,,2017_Mar_16_1222,60.0036566744,MAFE4ImagesEEG,001,200049,
AFNE01.JPG,AFNE01.JPG,AFNE01.JPG,AFNE01.JPG,AFNE01.JPG,AFNE01.JPG,,,,,,,,,3,6,36,7,,,,,,,,,,,,,,,AMNE07.jpg,AMNE13.jpg,AMSA01.jpg,AMSA16.jpg,AMSA16.jpg,MS,2,num_4,32,num_6,0.833488785313,,,2017_Mar_16_1222,60.0036566744,MAFE4ImagesEEG,001,200049,
AFNE01.JPG,AFNE01.JPG,AFNE01.JPG,AFNE01.JPG,AFNE01.JPG,AFNE01.JPG,,,,,,,,,3,7,37,1,,,,,,,,,,,,,,,AMNE01.jpg,AMSA15.jpg,AMSA08.jpg,AMNE06.jpg,AMSA15.jpg,MS,2,num_6,16,num_6,0.633496162365,,,2017_Mar_16_1222,60.0036566744,MAFE4ImagesEEG,001,200049,
AFNE01.JPG,AFNE01.JPG,AFNE01.JPG,AFNE01.JPG,AFNE01.JPG,AFNE01.JPG,,,,,,,,,3,8,38,0,,,,,,,,,,,,,,,AMNE09.jpg,AMNE08.jpg,AMSA19.jpg,AMSA03.jpg,AMSA19.jpg,MS,2,num_2,16,num_2,1.41674262856,,,2017_Mar_16_1222,60.0036566744,MAFE4ImagesEEG,001,200049,
AFNE01.JPG,AFNE01.JPG,AFNE01.JPG,AFNE01.JPG,AFNE01.JPG,AFNE01.JPG,,,,,,,,,3,9,39,2,,,,,,,,,,,,,,,AMNE03.jpg,AMNE12.jpg,AMSA07.jpg,AMSA13.jpg,AMNE03.jpg,MN,1,num_8,32,num_6,0.750157643692,,,2017_Mar_16_1222,60.0036566744,MAFE4ImagesEEG,001,200049,
AFNE01.JPG,AFNE01.JPG,AFNE01.JPG,AFNE01.JPG,AFNE01.JPG,AFNE01.JPG,,,,,,,,,4,0,40,8,,,,,,,,,,,,,,,AMNE19.jpg,AMNE06.jpg,AMSA17.jpg,AMSA20.jpg,AMNE06.jpg,MN,1,num_6,16,num_6,0.783585167665,,,2017_Mar_16_1222,60.0036566744,MAFE4ImagesEEG,001,200049,
AFNE01.JPG,AFNE01.JPG,AFNE01.JPG,AFNE01.JPG,AFNE01.JPG,AFNE01.JPG,,,,,,,,,4,1,41,7,,,,,,,,,,,,,,,AMNE10.jpg,AMSA08.jpg,AMSA13.jpg,AMNE04.jpg,AMNE04.jpg,MN,1,num_4,32,num_2,1.06672835565,,,2017_Mar_16_1222,60.0036566744,MAFE4ImagesEEG,001,200049,
AFNE01.JPG,AFNE01.JPG,AFNE01.JPG,AFNE01.JPG,AFNE01.JPG,AFNE01.JPG,,,,,,,,,4,2,42,4,,,,,,,,,,,,,,,AMNE13.jpg,AMSA17.jpg,AMSA10.jpg,AMNE17.jpg,AMNE13.jpg,MN,1,num_8,16,num_8,0.583344291954,,,2017_Mar_16_1222,60.0036566744,MAFE4ImagesEEG,001,200049,
AFNE01.JPG,AFNE01.JPG,AFNE01.JPG,AFNE01.JPG,AFNE01.JPG,AFNE01.JPG,,,,,,,,,4,3,43,3,,,,,,,,,,,,,,,AMSA02.jpg,AMNE16.jpg,AMSA07.jpg,AMNE17.jpg,AMSA02.jpg,MS,2,num_8,32,num_6,1.36672867642,,,2017_Mar_16_1222,60.0036566744,MAFE4ImagesEEG,001,200049,
AFNE01.JPG,AFNE01.JPG,AFNE01.JPG,AFNE01.JPG,AFNE01.JPG,AFNE01.JPG,,,,,,,,,4,4,44,1,,,,,,,,,,,,,,,AMNE06.jpg,AMSA08.jpg,AMNE07.jpg,AMSA19.jpg,AMNE07.jpg,MN,1,num_2,16,num_2,0.666811106552,,,2017_Mar_16_1222,60.0036566744,MAFE4ImagesEEG,001,200049,
AFNE01.JPG,AFNE01.JPG,AFNE01.JPG,AFNE01.JPG,AFNE01.JPG,AFNE01.JPG,,,,,,,,,4,5,45,5,,,,,,,,,,,,,,,AMNE20.jpg,AMNE08.jpg,AMSA07.jpg,AMSA20.jpg,AMNE08.jpg,MN,1,num_6,32,num_8,1.39999839629,,,2017_Mar_16_1222,60.0036566744,MAFE4ImagesEEG,001,200049,
AFNE01.JPG,AFNE01.JPG,AFNE01.JPG,AFNE01.JPG,AFNE01.JPG,AFNE01.JPG,,,,,,,,,4,6,46,9,,,,,,,,,,,,,,,AMNE17.jpg,AMNE10.jpg,AMSA19.jpg,AMSA09.jpg,AMNE10.jpg,MN,1,num_6,32,num_4,0.733484615746,,,2017_Mar_16_1222,60.0036566744,MAFE4ImagesEEG,001,200049,
AFNE01.JPG,AFNE01.JPG,AFNE01.JPG,AFNE01.JPG,AFNE01.JPG,AFNE01.JPG,,,,,,,,,4,7,47,2,,,,,,,,,,,,,,,AMSA06.jpg,AMNE10.jpg,AMNE19.jpg,AMSA07.jpg,AMSA06.jpg,MS,2,num_8,32,num_6,1.4667184127,,,2017_Mar_16_1222,60.0036566744,MAFE4ImagesEEG,001,200049,
AFNE01.JPG,AFNE01.JPG,AFNE01.JPG,AFNE01.JPG,AFNE01.JPG,AFNE01.JPG,,,,,,,,,4,8,48,0,,,,,,,,,,,,,,,AMNE02.jpg,AMSA03.jpg,AMSA07.jpg,AMNE09.jpg,AMNE02.jpg,MN,1,num_8,32,num_2,0.600034319214,,,2017_Mar_16_1222,60.0036566744,MAFE4ImagesEEG,001,200049,
AFNE01.JPG,AFNE01.JPG,AFNE01.JPG,AFNE01.JPG,AFNE01.JPG,AFNE01.JPG,,,,,,,,,4,9,49,6,,,,,,,,,,,,,,,AMNE09.jpg,AMNE20.jpg,AMSA10.jpg,AMSA11.jpg,AMNE09.jpg,MN,1,num_8,32,num_6,1.0334932757,,,2017_Mar_16_1222,60.0036566744,MAFE4ImagesEEG,001,200049,
AFNE01.JPG,AFNE01.JPG,AFNE01.JPG,AFNE01.JPG,AFNE01.JPG,AFNE01.JPG,,,,,,,,,5,0,50,1,,,,,,,,,,,,,,,AMSA05.jpg,AMNE19.jpg,AMNE16.jpg,AMSA06.jpg,AMNE16.jpg,MN,1,num_2,32,num_4,3.4499077872,,,2017_Mar_16_1222,60.0036566744,MAFE4ImagesEEG,001,200049,
AFNE01.JPG,AFNE01.JPG,AFNE01.JPG,AFNE01.JPG,AFNE01.JPG,AFNE01.JPG,,,,,,,,,5,1,51,9,,,,,,,,,,,,,,,AMSA05.jpg,AMNE20.jpg,AMSA04.jpg,AMNE05.jpg,AMSA04.jpg,MS,2,num_2,16,num_2,1.08350562415,,,2017_Mar_16_1222,60.0036566744,MAFE4ImagesEEG,001,200049,
AFNE01.JPG,AFNE01.JPG,AFNE01.JPG,AFNE01.JPG,AFNE01.JPG,AFNE01.JPG,,,,,,,,,5,2,52,7,,,,,,,,,,,,,,,AMSA09.jpg,AMNE01.jpg,AMNE13.jpg,AMSA19.jpg,AMNE13.jpg,MN,1,num_2,32,num_6,0.816794267739,,,2017_Mar_16_1222,60.0036566744,MAFE4ImagesEEG,001,200049,
AFNE01.JPG,AFNE01.JPG,AFNE01.JPG,AFNE01.JPG,AFNE01.JPG,AFNE01.JPG,,,,,,,,,5,3,53,8,,,,,,,,,,,,,,,AMNE02.jpg,AMSA01.jpg,AMNE18.jpg,AMSA02.jpg,AMSA02.jpg,MS,2,num_4,32,num_6,0.966474008863,,,2017_Mar_16_1222,60.0036566744,MAFE4ImagesEEG,001,200049,
AFNE01.JPG,AFNE01.JPG,AFNE01.JPG,AFNE01.JPG,AFNE01.JPG,AFNE01.JPG,,,,,,,,,5,4,54,2,,,,,,,,,,,,,,,AMNE19.jpg,AMNE04.jpg,AMSA12.jpg,AMSA10.jpg,AMNE04.jpg,MN,1,num_6,32,num_2,0.716690347937,,,2017_Mar_16_1222,60.0036566744,MAFE4ImagesEEG,001,200049,
AFNE01.JPG,AFNE01.JPG,AFNE01.JPG,AFNE01.JPG,AFNE01.JPG,AFNE01.JPG,,,,,,,,,5,5,55,0,,,,,,,,,,,,,,,AMNE01.jpg,AMSA07.jpg,AMSA09.jpg,AMNE10.jpg,AMSA07.jpg,MS,2,num_6,32,num_2,1.033443561,,,2017_Mar_16_1222,60.0036566744,MAFE4ImagesEEG,001,200049,
AFNE01.JPG,AFNE01.JPG,AFNE01.JPG,AFNE01.JPG,AFNE01.JPG,AFNE01.JPG,,,,,,,,,5,6,56,4,,,,,,,,,,,,,,,AMNE10.jpg,AMSA16.jpg,AMNE09.jpg,AMSA15.jpg,AMSA16.jpg,MS,2,num_6,32,num_2,0.950106004602,,,2017_Mar_16_1222,60.0036566744,MAFE4ImagesEEG,001,200049,
AFNE01.JPG,AFNE01.JPG,AFNE01.JPG,AFNE01.JPG,AFNE01.JPG,AFNE01.JPG,,,,,,,,,5,7,57,6,,,,,,,,,,,,,,,AMSA16.jpg,AMNE17.jpg,AMSA14.jpg,AMNE20.jpg,AMSA16.jpg,MS,2,num_8,32,num_6,1.1166666132,,,2017_Mar_16_1222,60.0036566744,MAFE4ImagesEEG,001,200049,
AFNE01.JPG,AFNE01.JPG,AFNE01.JPG,AFNE01.JPG,AFNE01.JPG,AFNE01.JPG,,,,,,,,,5,8,58,3,,,,,,,,,,,,,,,AMNE10.jpg,AMNE17.jpg,AMSA01.jpg,AMSA05.jpg,AMNE10.jpg,MN,1,num_8,32,num_2,1.31674230786,,,2017_Mar_16_1222,60.0036566744,MAFE4ImagesEEG,001,200049,
AFNE01.JPG,AFNE01.JPG,AFNE01.JPG,AFNE01.JPG,AFNE01.JPG,AFNE01.JPG,,,,,,,,,5,9,59,5,,,,,,,,,,,,,,,AMSA14.jpg,AMNE02.jpg,AMSA17.jpg,AMNE14.jpg,AMNE14.jpg,MN,1,num_4,32,num_8,2.93330949167,,,2017_Mar_16_1222,60.0036566744,MAFE4ImagesEEG,001,200049,
,,,,,,,,,,,,,,,,,,,,,,,,,,,,,,,,,,,,,,,,,,,space,3.28324614547,2017_Mar_16_1222,60.0036566744,MAFE4ImagesEEG,001,200049,
AFNE01.JPG,AFNE01.JPG,AFNE01.JPG,AFNE01.JPG,AFNE01.JPG,AFNE01.JPG,,,,,,,,,,,,,0,0,0,2,,,,,,,,,,,AFSA18.jpg,AFNE08.jpg,AFNE01.jpg,AFSA15.jpg,AFNE08.jpg,FN,3,num_6,16,num_6,0.900130220456,,,2017_Mar_16_1222,60.0036566744,MAFE4ImagesEEG,001,200049,
AFNE01.JPG,AFNE01.JPG,AFNE01.JPG,AFNE01.JPG,AFNE01.JPG,AFNE01.JPG,,,,,,,,,,,,,0,1,1,8,,,,,,,,,,,AFNE09.jpg,AFNE15.jpg,AFSA20.jpg,AFSA15.jpg,AFSA15.jpg,FS,4,num_4,16,num_4,0.583602166909,,,2017_Mar_16_1222,60.0036566744,MAFE4ImagesEEG,001,200049,
AFNE01.JPG,AFNE01.JPG,AFNE01.JPG,AFNE01.JPG,AFNE01.JPG,AFNE01.JPG,,,,,,,,,,,,,0,2,2,5,,,,,,,,,,,AFSA04.jpg,AFNE12.jpg,AFSA12.jpg,AFNE03.jpg,AFNE03.jpg,FN,3,num_4,32,num_6,0.883519095252,,,2017_Mar_16_1222,60.0036566744,MAFE4ImagesEEG,001,200049,
AFNE01.JPG,AFNE01.JPG,AFNE01.JPG,AFNE01.JPG,AFNE01.JPG,AFNE01.JPG,,,,,,,,,,,,,0,3,3,6,,,,,,,,,,,AFSA19.jpg,AFNE11.jpg,AFNE10.jpg,AFSA15.jpg,AFSA15.jpg,FS,4,num_4,16,num_4,0.933179912681,,,2017_Mar_16_1222,60.0036566744,MAFE4ImagesEEG,001,200049,
AFNE01.JPG,AFNE01.JPG,AFNE01.JPG,AFNE01.JPG,AFNE01.JPG,AFNE01.JPG,,,,,,,,,,,,,0,4,4,0,,,,,,,,,,,AFSA02.jpg,AFSA05.jpg,AFNE14.jpg,AFNE19.jpg,AFNE19.jpg,FN,3,num_4,32,num_8,0.883532245585,,,2017_Mar_16_1222,60.0036566744,MAFE4ImagesEEG,001,200049,
AFNE01.JPG,AFNE01.JPG,AFNE01.JPG,AFNE01.JPG,AFNE01.JPG,AFNE01.JPG,,,,,,,,,,,,,0,5,5,3,,,,,,,,,,,AFSA12.jpg,AFNE07.jpg,AFSA19.jpg,AFNE03.jpg,AFSA19.jpg,FS,4,num_2,32,num_4,1.0334782009,,,2017_Mar_16_1222,60.0036566744,MAFE4ImagesEEG,001,200049,
AFNE01.JPG,AFNE01.JPG,AFNE01.JPG,AFNE01.JPG,AFNE01.JPG,AFNE01.JPG,,,,,,,,,,,,,0,6,6,4,,,,,,,,,,,AFNE14.jpg,AFSA14.jpg,AFNE04.jpg,AFSA11.jpg,AFNE04.jpg,FN,3,num_2,32,num_8,0.900146898872,,,2017_Mar_16_1222,60.0036566744,MAFE4ImagesEEG,001,200049,
AFNE01.JPG,AFNE01.JPG,AFNE01.JPG,AFNE01.JPG,AFNE01.JPG,AFNE01.JPG,,,,,,,,,,,,,0,7,7,1,,,,,,,,,,,AFSA05.jpg,AFSA15.jpg,AFNE13.jpg,AFNE17.jpg,AFNE13.jpg,FN,3,num_2,32,num_8,1.03341854329,,,2017_Mar_16_1222,60.0036566744,MAFE4ImagesEEG,001,200049,
AFNE01.JPG,AFNE01.JPG,AFNE01.JPG,AFNE01.JPG,AFNE01.JPG,AFNE01.JPG,,,,,,,,,,,,,0,8,8,7,,,,,,,,,,,AFSA19.jpg,AFNE07.jpg,AFSA02.jpg,AFNE10.jpg,AFSA02.jpg,FS,4,num_2,32,num_8,0.833468578698,,,2017_Mar_16_1222,60.0036566744,MAFE4ImagesEEG,001,200049,
AFNE01.JPG,AFNE01.JPG,AFNE01.JPG,AFNE01.JPG,AFNE01.JPG,AFNE01.JPG,,,,,,,,,,,,,0,9,9,9,,,,,,,,,,,AFSA03.jpg,AFSA02.jpg,AFNE17.jpg,AFNE05.jpg,AFNE05.jpg,FN,3,num_4,32,num_2,1.23340731737,,,2017_Mar_16_1222,60.0036566744,MAFE4ImagesEEG,001,200049,
AFNE01.JPG,AFNE01.JPG,AFNE01.JPG,AFNE01.JPG,AFNE01.JPG,AFNE01.JPG,,,,,,,,,,,,,1,0,10,4,,,,,,,,,,,AFSA11.jpg,AFNE11.jpg,AFNE03.jpg,AFSA10.jpg,AFNE03.jpg,FN,3,num_2,16,num_2,2.80000160373,,,2017_Mar_16_1222,60.0036566744,MAFE4ImagesEEG,001,200049,
AFNE01.JPG,AFNE01.JPG,AFNE01.JPG,AFNE01.JPG,AFNE01.JPG,AFNE01.JPG,,,,,,,,,,,,,1,1,11,3,,,,,,,,,,,AFNE04.jpg,AFNE07.jpg,AFSA09.jpg,AFSA06.jpg,AFNE04.jpg,FN,3,num_8,16,num_8,1.31678432482,,,2017_Mar_16_1222,60.0036566744,MAFE4ImagesEEG,001,200049,
AFNE01.JPG,AFNE01.JPG,AFNE01.JPG,AFNE01.JPG,AFNE01.JPG,AFNE01.JPG,,,,,,,,,,,,,1,2,12,0,,,,,,,,,,,AFNE13.jpg,AFSA02.jpg,AFNE06.jpg,AFSA11.jpg,AFSA02.jpg,FS,4,num_6,32,num_4,0.750131343084,,,2017_Mar_16_1222,60.0036566744,MAFE4ImagesEEG,001,200049,
AFNE01.JPG,AFNE01.JPG,AFNE01.JPG,AFNE01.JPG,AFNE01.JPG,AFNE01.JPG,,,,,,,,,,,,,1,3,13,9,,,,,,,,,,,AFNE14.jpg,AFSA05.jpg,AFSA16.jpg,AFNE15.jpg,AFNE14.jpg,FN,3,num_8,16,num_8,0.633454786905,,,2017_Mar_16_1222,60.0036566744,MAFE4ImagesEEG,001,200049,
AFNE01.JPG,AFNE01.JPG,AFNE01.JPG,AFNE01.JPG,AFNE01.JPG,AFNE01.JPG,,,,,,,,,,,,,1,4,14,2,,,,,,,,,,,AFSA16.jpg,AFNE15.jpg,AFSA07.jpg,AFNE14.jpg,AFSA07.jpg,FS,4,num_2,32,num_8,0.966763316304,,,2017_Mar_16_1222,60.0036566744,MAFE4ImagesEEG,001,200049,
AFNE01.JPG,AFNE01.JPG,AFNE01.JPG,AFNE01.JPG,AFNE01.JPG,AFNE01.JPG,,,,,,,,,,,,,1,5,15,8,,,,,,,,,,,AFSA07.jpg,AFNE17.jpg,AFSA12.jpg,AFNE02.jpg,AFNE02.jpg,FN,3,num_4,32,num_6,0.800185066997,,,2017_Mar_16_1222,60.0036566744,MAFE4ImagesEEG,001,200049,
AFNE01.JPG,AFNE01.JPG,AFNE01.JPG,AFNE01.JPG,AFNE01.JPG,AFNE01.JPG,,,,,,,,,,,,,1,6,16,7,,,,,,,,,,,AFSA16.jpg,AFNE14.jpg,AFSA20.jpg,AFNE01.jpg,AFNE01.jpg,FN,3,num_4,32,num_8,0.700135673047,,,2017_Mar_16_1222,60.0036566744,MAFE4ImagesEEG,001,200049,
AFNE01.JPG,AFNE01.JPG,AFNE01.JPG,AFNE01.JPG,AFNE01.JPG,AFNE01.JPG,,,,,,,,,,,,,1,7,17,6,,,,,,,,,,,AFNE09.jpg,AFNE16.jpg,AFSA02.jpg,AFSA09.jpg,AFSA02.jpg,FS,4,num_2,32,num_4,0.666828747315,,,2017_Mar_16_1222,60.0036566744,MAFE4ImagesEEG,001,200049,
AFNE01.JPG,AFNE01.JPG,AFNE01.JPG,AFNE01.JPG,AFNE01.JPG,AFNE01.JPG,,,,,,,,,,,,,1,8,18,5,,,,,,,,,,,AFNE04.jpg,AFSA01.jpg,AFSA20.jpg,AFNE13.jpg,AFSA20.jpg,FS,4,num_2,32,num_8,0.766773259267,,,2017_Mar_16_1222,60.0036566744,MAFE4ImagesEEG,001,200049,
AFNE01.JPG,AFNE01.JPG,AFNE01.JPG,AFNE01.JPG,AFNE01.JPG,AFNE01.JPG,,,,,,,,,,,,,1,9,19,1,,,,,,,,,,,AFNE07.jpg,AFSA16.jpg,AFNE20.jpg,AFSA20.jpg,AFNE07.jpg,FN,3,num_8,32,num_6,0.916758665582,,,2017_Mar_16_1222,60.0036566744,MAFE4ImagesEEG,001,200049,
AFNE01.JPG,AFNE01.JPG,AFNE01.JPG,AFNE01.JPG,AFNE01.JPG,AFNE01.JPG,,,,,,,,,,,,,2,0,20,5,,,,,,,,,,,AFNE13.jpg,AFSA11.jpg,AFSA07.jpg,AFNE06.jpg,AFSA07.jpg,FS,4,num_2,32,num_4,0.750106966763,,,2017_Mar_16_1222,60.0036566744,MAFE4ImagesEEG,001,200049,
AFNE01.JPG,AFNE01.JPG,AFNE01.JPG,AFNE01.JPG,AFNE01.JPG,AFNE01.JPG,,,,,,,,,,,,,2,1,21,9,,,,,,,,,,,AFNE13.jpg,AFSA16.jpg,AFSA04.jpg,AFNE03.jpg,AFNE03.jpg,FN,3,num_4,32,num_8,0.633484294987,,,2017_Mar_16_1222,60.0036566744,MAFE4ImagesEEG,001,200049,
AFNE01.JPG,AFNE01.JPG,AFNE01.JPG,AFNE01.JPG,AFNE01.JPG,AFNE01.JPG,,,,,,,,,,,,,2,2,22,0,,,,,,,,,,,AFSA02.jpg,AFNE05.jpg,AFSA05.jpg,AFNE13.jpg,AFNE13.jpg,FN,3,num_4,16,num_4,0.716768287821,,,2017_Mar_16_1222,60.0036566744,MAFE4ImagesEEG,001,200049,
AFNE01.JPG,AFNE01.JPG,AFNE01.JPG,AFNE01.JPG,AFNE01.JPG,AFNE01.JPG,,,,,,,,,,,,,2,3,23,8,,,,,,,,,,,AFNE20.jpg,AFSA03.jpg,AFSA12.jpg,AFNE11.jpg,AFSA12.jpg,FS,4,num_2,32,num_8,0.433502897911,,,2017_Mar_16_1222,60.0036566744,MAFE4ImagesEEG,001,200049,
AFNE01.JPG,AFNE01.JPG,AFNE01.JPG,AFNE01.JPG,AFNE01.JPG,AFNE01.JPG,,,,,,,,,,,,,2,4,24,7,,,,,,,,,,,AFSA18.jpg,AFSA08.jpg,AFNE02.jpg,AFNE16.jpg,AFNE16.jpg,FN,3,num_4,16,num_4,0.733468899445,,,2017_Mar_16_1222,60.0036566744,MAFE4ImagesEEG,001,200049,
AFNE01.JPG,AFNE01.JPG,AFNE01.JPG,AFNE01.JPG,AFNE01.JPG,AFNE01.JPG,,,,,,,,,,,,,2,5,25,3,,,,,,,,,,,AFNE05.jpg,AFNE14.jpg,AFSA14.jpg,AFSA12.jpg,AFSA12.jpg,FS,4,num_4,32,num_8,1.45003576251,,,2017_Mar_16_1222,60.0036566744,MAFE4ImagesEEG,001,200049,
AFNE01.JPG,AFNE01.JPG,AFNE01.JPG,AFNE01.JPG,AFNE01.JPG,AFNE01.JPG,,,,,,,,,,,,,2,6,26,1,,,,,,,,,,,AFSA15.jpg,AFNE18.jpg,AFSA03.jpg,AFNE10.jpg,AFSA03.jpg,FS,4,num_2,32,num_6,0.466833558399,,,2017_Mar_16_1222,60.0036566744,MAFE4ImagesEEG,001,200049,
AFNE01.JPG,AFNE01.JPG,AFNE01.JPG,AFNE01.JPG,AFNE01.JPG,AFNE01.JPG,,,,,,,,,,,,,2,7,27,6,,,,,,,,,,,AFNE14.jpg,AFNE20.jpg,AFSA13.jpg,AFSA20.jpg,AFNE20.jpg,FN,3,num_6,32,num_8,0.483487021236,,,2017_Mar_16_1222,60.0036566744,MAFE4ImagesEEG,001,200049,
AFNE01.JPG,AFNE01.JPG,AFNE01.JPG,AFNE01.JPG,AFNE01.JPG,AFNE01.JPG,,,,,,,,,,,,,2,8,28,4,,,,,,,,,,,AFSA11.jpg,AFSA07.jpg,AFNE16.jpg,AFNE20.jpg,AFNE16.jpg,FN,3,num_2,32,num_8,0.383554055938,,,2017_Mar_16_1222,60.0036566744,MAFE4ImagesEEG,001,200049,
AFNE01.JPG,AFNE01.JPG,AFNE01.JPG,AFNE01.JPG,AFNE01.JPG,AFNE01.JPG,,,,,,,,,,,,,2,9,29,2,,,,,,,,,,,AFSA04.jpg,AFSA05.jpg,AFNE13.jpg,AFNE07.jpg,AFSA04.jpg,FS,4,num_8,16,num_8,0.616783041856,,,2017_Mar_16_1222,60.0036566744,MAFE4ImagesEEG,001,200049,
AFNE01.JPG,AFNE01.JPG,AFNE01.JPG,AFNE01.JPG,AFNE01.JPG,AFNE01.JPG,,,,,,,,,,,,,3,0,30,8,,,,,,,,,,,AFNE02.jpg,AFSA12.jpg,AFSA08.jpg,AFNE07.jpg,AFSA08.jpg,FS,4,num_2,32,num_6,1.13345286244,,,2017_Mar_16_1222,60.0036566744,MAFE4ImagesEEG,001,200049,
AFNE01.JPG,AFNE01.JPG,AFNE01.JPG,AFNE01.JPG,AFNE01.JPG,AFNE01.JPG,,,,,,,,,,,,,3,1,31,4,,,,,,,,,,,AFSA02.jpg,AFNE14.jpg,AFNE06.jpg,AFSA14.jpg,AFNE14.jpg,FN,3,num_6,32,num_4,0.733493596374,,,2017_Mar_16_1222,60.0036566744,MAFE4ImagesEEG,001,200049,
AFNE01.JPG,AFNE01.JPG,AFNE01.JPG,AFNE01.JPG,AFNE01.JPG,AFNE01.JPG,,,,,,,,,,,,,3,2,32,6,,,,,,,,,,,AFSA01.jpg,AFSA19.jpg,AFNE06.jpg,AFNE17.jpg,AFNE06.jpg,FN,3,num_2,16,num_2,0.650141606748,,,2017_Mar_16_1222,60.0036566744,MAFE4ImagesEEG,001,200049,
AFNE01.JPG,AFNE01.JPG,AFNE01.JPG,AFNE01.JPG,AFNE01.JPG,AFNE01.JPG,,,,,,,,,,,,,3,3,33,1,,,,,,,,,,,AFSA06.jpg,AFNE13.jpg,AFSA19.jpg,AFNE20.jpg,AFNE13.jpg,FN,3,num_6,32,num_8,2.83330051095,,,2017_Mar_16_1222,60.0036566744,MAFE4ImagesEEG,001,200049,
AFNE01.JPG,AFNE01.JPG,AFNE01.JPG,AFNE01.JPG,AFNE01.JPG,AFNE01.JPG,,,,,,,,,,,,,3,4,34,0,,,,,,,,,,,AFSA14.jpg,AFSA01.jpg,AFNE19.jpg,AFNE06.jpg,AFSA14.jpg,FS,4,num_8,32,num_6,0.533505143074,,,2017_Mar_16_1222,60.0036566744,MAFE4ImagesEEG,001,200049,
AFNE01.JPG,AFNE01.JPG,AFNE01.JPG,AFNE01.JPG,AFNE01.JPG,AFNE01.JPG,,,,,,,,,,,,,3,5,35,7,,,,,,,,,,,AFNE19.jpg,AFSA09.jpg,AFSA07.jpg,AFNE13.jpg,AFNE19.jpg,FN,3,num_8,32,num_6,0.550177208905,,,2017_Mar_16_1222,60.0036566744,MAFE4ImagesEEG,001,200049,
AFNE01.JPG,AFNE01.JPG,AFNE01.JPG,AFNE01.JPG,AFNE01.JPG,AFNE01.JPG,,,,,,,,,,,,,3,6,36,2,,,,,,,,,,,AFSA08.jpg,AFNE02.jpg,AFSA07.jpg,AFNE04.jpg,AFNE02.jpg,FN,3,num_6,32,num_4,0.850174001476,,,2017_Mar_16_1222,60.0036566744,MAFE4ImagesEEG,001,200049,
AFNE01.JPG,AFNE01.JPG,AFNE01.JPG,AFNE01.JPG,AFNE01.JPG,AFNE01.JPG,,,,,,,,,,,,,3,7,37,3,,,,,,,,,,,AFNE03.jpg,AFSA10.jpg,AFNE18.jpg,AFSA08.jpg,AFSA08.jpg,FS,4,num_4,32,num_8,0.78351781232,,,2017_Mar_16_1222,60.0036566744,MAFE4ImagesEEG,001,200049,
AFNE01.JPG,AFNE01.JPG,AFNE01.JPG,AFNE01.JPG,AFNE01.JPG,AFNE01.JPG,,,,,,,,,,,,,3,8,38,5,,,,,,,,,,,AFSA12.jpg,AFSA01.jpg,AFNE16.jpg,AFNE04.jpg,AFNE04.jpg,FN,3,num_4,32,num_2,1.35014770081,,,2017_Mar_16_1222,60.0036566744,MAFE4ImagesEEG,001,200049,
AFNE01.JPG,AFNE01.JPG,AFNE01.JPG,AFNE01.JPG,AFNE01.JPG,AFNE01.JPG,,,,,,,,,,,,,3,9,39,9,,,,,,,,,,,AFNE07.jpg,AFSA17.jpg,AFSA03.jpg,AFNE04.jpg,AFSA17.jpg,FS,4,num_6,32,num_8,0.933497124584,,,2017_Mar_16_1222,60.0036566744,MAFE4ImagesEEG,001,200049,
AFNE01.JPG,AFNE01.JPG,AFNE01.JPG,AFNE01.JPG,AFNE01.JPG,AFNE01.JPG,,,,,,,,,,,,,4,0,40,1,,,,,,,,,,,AFNE13.jpg,AFSA11.jpg,AFSA13.jpg,AFNE02.jpg,AFNE02.jpg,FN,3,num_4,32,num_2,0.683755159902,,,2017_Mar_16_1222,60.0036566744,MAFE4ImagesEEG,001,200049,
AFNE01.JPG,AFNE01.JPG,AFNE01.JPG,AFNE01.JPG,AFNE01.JPG,AFNE01.JPG,,,,,,,,,,,,,4,1,41,6,,,,,,,,,,,AFNE14.jpg,AFSA09.jpg,AFNE12.jpg,AFSA14.jpg,AFSA14.jpg,FS,4,num_4,32,num_6,0.550143531116,,,2017_Mar_16_1222,60.0036566744,MAFE4ImagesEEG,001,200049,
AFNE01.JPG,AFNE01.JPG,AFNE01.JPG,AFNE01.JPG,AFNE01.JPG,AFNE01.JPG,,,,,,,,,,,,,4,2,42,0,,,,,,,,,,,AFNE20.jpg,AFNE01.jpg,AFSA10.jpg,AFSA14.jpg,AFSA14.jpg,FS,4,num_4,32,num_2,0.516779834463,,,2017_Mar_16_1222,60.0036566744,MAFE4ImagesEEG,001,200049,
AFNE01.JPG,AFNE01.JPG,AFNE01.JPG,AFNE01.JPG,AFNE01.JPG,AFNE01.JPG,,,,,,,,,,,,,4,3,43,5,,,,,,,,,,,AFSA18.jpg,AFSA12.jpg,AFNE08.jpg,AFNE14.jpg,AFNE08.jpg,FN,3,num_2,32,num_8,0.400175765506,,,2017_Mar_16_1222,60.0036566744,MAFE4ImagesEEG,001,200049,
AFNE01.JPG,AFNE01.JPG,AFNE01.JPG,AFNE01.JPG,AFNE01.JPG,AFNE01.JPG,,,,,,,,,,,,,4,4,44,3,,,,,,,,,,,AFNE19.jpg,AFSA20.jpg,AFNE15.jpg,AFSA14.jpg,AFNE19.jpg,FN,3,num_8,16,num_8,0.683459758351,,,2017_Mar_16_1222,60.0036566744,MAFE4ImagesEEG,001,200049,
AFNE01.JPG,AFNE01.JPG,AFNE01.JPG,AFNE01.JPG,AFNE01.JPG,AFNE01.JPG,,,,,,,,,,,,,4,5,45,9,,,,,,,,,,,AFSA07.jpg,AFNE17.jpg,AFSA19.jpg,AFNE03.jpg,AFNE17.jpg,FN,3,num_6,32,num_2,0.750134871225,,,2017_Mar_16_1222,60.0036566744,MAFE4ImagesEEG,001,200049,
AFNE01.JPG,AFNE01.JPG,AFNE01.JPG,AFNE01.JPG,AFNE01.JPG,AFNE01.JPG,,,,,,,,,,,,,4,6,46,7,,,,,,,,,,,AFNE14.jpg,AFSA14.jpg,AFSA05.jpg,AFNE06.jpg,AFNE06.jpg,FN,3,num_4,32,num_2,0.533380375186,,,2017_Mar_16_1222,60.0036566744,MAFE4ImagesEEG,001,200049,
AFNE01.JPG,AFNE01.JPG,AFNE01.JPG,AFNE01.JPG,AFNE01.JPG,AFNE01.JPG,,,,,,,,,,,,,4,7,47,8,,,,,,,,,,,AFNE18.jpg,AFNE12.jpg,AFSA01.jpg,AFSA04.jpg,AFSA04.jpg,FS,4,num_4,32,num_8,0.283702237764,,,2017_Mar_16_1222,60.0036566744,MAFE4ImagesEEG,001,200049,
AFNE01.JPG,AFNE01.JPG,AFNE01.JPG,AFNE01.JPG,AFNE01.JPG,AFNE01.JPG,,,,,,,,,,,,,4,8,48,2,,,,,,,,,,,AFSA16.jpg,AFNE12.jpg,AFNE05.jpg,AFSA19.jpg,AFSA19.jpg,FS,4,num_4,16,num_4,0.383483813843,,,2017_Mar_16_1222,60.0036566744,MAFE4ImagesEEG,001,200049,
AFNE01.JPG,AFNE01.JPG,AFNE01.JPG,AFNE01.JPG,AFNE01.JPG,AFNE01.JPG,,,,,,,,,,,,,4,9,49,4,,,,,,,,,,,AFNE18.jpg,AFSA19.jpg,AFSA17.jpg,AFNE17.jpg,AFNE17.jpg,FN,3,num_4,32,num_2,0.966819445835,,,2017_Mar_16_1222,60.0036566744,MAFE4ImagesEEG,001,200049,
AFNE01.JPG,AFNE01.JPG,AFNE01.JPG,AFNE01.JPG,AFNE01.JPG,AFNE01.JPG,,,,,,,,,,,,,5,0,50,8,,,,,,,,,,,AFNE16.jpg,AFSA05.jpg,AFNE10.jpg,AFSA20.jpg,AFNE16.jpg,FN,3,num_8,32,num_6,0.716815115826,,,2017_Mar_16_1222,60.0036566744,MAFE4ImagesEEG,001,200049,
AFNE01.JPG,AFNE01.JPG,AFNE01.JPG,AFNE01.JPG,AFNE01.JPG,AFNE01.JPG,,,,,,,,,,,,,5,1,51,7,,,,,,,,,,,AFNE09.jpg,AFSA01.jpg,AFSA20.jpg,AFNE16.jpg,AFNE09.jpg,FN,3,num_8,16,num_8,0.850096382375,,,2017_Mar_16_1222,60.0036566744,MAFE4ImagesEEG,001,200049,
AFNE01.JPG,AFNE01.JPG,AFNE01.JPG,AFNE01.JPG,AFNE01.JPG,AFNE01.JPG,,,,,,,,,,,,,5,2,52,1,,,,,,,,,,,AFNE10.jpg,AFNE09.jpg,AFSA18.jpg,AFSA11.jpg,AFSA18.jpg,FS,4,num_2,16,num_2,1.40010295756,,,2017_Mar_16_1222,60.0036566744,MAFE4ImagesEEG,001,200049,
AFNE01.JPG,AFNE01.JPG,AFNE01.JPG,AFNE01.JPG,AFNE01.JPG,AFNE01.JPG,,,,,,,,,,,,,5,3,53,0,,,,,,,,,,,AFSA19.jpg,AFSA17.jpg,AFNE19.jpg,AFNE16.jpg,AFNE16.jpg,FN,3,num_4,32,num_6,0.483506586403,,,2017_Mar_16_1222,60.0036566744,MAFE4ImagesEEG,001,200049,
AFNE01.JPG,AFNE01.JPG,AFNE01.JPG,AFNE01.JPG,AFNE01.JPG,AFNE01.JPG,,,,,,,,,,,,,5,4,54,6,,,,,,,,,,,AFNE12.jpg,AFSA15.jpg,AFSA02.jpg,AFNE18.jpg,AFSA15.jpg,FS,4,num_6,32,num_2,0.767108753324,,,2017_Mar_16_1222,60.0036566744,MAFE4ImagesEEG,001,200049,
AFNE01.JPG,AFNE01.JPG,AFNE01.JPG,AFNE01.JPG,AFNE01.JPG,AFNE01.JPG,,,,,,,,,,,,,5,5,55,4,,,,,,,,,,,AFSA06.jpg,AFNE15.jpg,AFNE11.jpg,AFSA13.jpg,AFSA13.jpg,FS,4,num_4,32,num_2,0.633499369724,,,2017_Mar_16_1222,60.0036566744,MAFE4ImagesEEG,001,200049,
AFNE01.JPG,AFNE01.JPG,AFNE01.JPG,AFNE01.JPG,AFNE01.JPG,AFNE01.JPG,,,,,,,,,,,,,5,6,56,5,,,,,,,,,,,AFSA20.jpg,AFNE02.jpg,AFSA19.jpg,AFNE13.jpg,AFNE13.jpg,FN,3,num_4,32,num_2,0.650147380016,,,2017_Mar_16_1222,60.0036566744,MAFE4ImagesEEG,001,200049,
AFNE01.JPG,AFNE01.JPG,AFNE01.JPG,AFNE01.JPG,AFNE01.JPG,AFNE01.JPG,,,,,,,,,,,,,5,7,57,2,,,,,,,,,,,AFSA20.jpg,AFNE16.jpg,AFNE07.jpg,AFSA12.jpg,AFSA12.jpg,FS,4,num_4,32,num_8,0.783478682046,,,2017_Mar_16_1222,60.0036566744,MAFE4ImagesEEG,001,200049,
AFNE01.JPG,AFNE01.JPG,AFNE01.JPG,AFNE01.JPG,AFNE01.JPG,AFNE01.JPG,,,,,,,,,,,,,5,8,58,9,,,,,,,,,,,AFNE05.jpg,AFSA05.jpg,AFNE11.jpg,AFSA18.jpg,AFSA05.jpg,FS,4,num_6,32,num_8,0.683474191639,,,2017_Mar_16_1222,60.0036566744,MAFE4ImagesEEG,001,200049,
AFNE01.JPG,AFNE01.JPG,AFNE01.JPG,AFNE01.JPG,AFNE01.JPG,AFNE01.JPG,,,,,,,,,,,,,5,9,59,3,,,,,,,,,,,AFNE01.jpg,AFSA04.jpg,AFNE05.jpg,AFSA07.jpg,AFSA04.jpg,FS,4,num_6,32,num_8,0.650141927472,,,2017_Mar_16_1222,60.0036566744,MAFE4ImagesEEG,001,200049,
,,,,,,,,,,,,,,,,,,,,,,,,,,,,,,,,,,,,,,,,,,,space,3.13329185097,2017_Mar_16_1222,60.0036566744,MAFE4ImagesEEG,001,200049,
AFNE01.JPG,AFNE01.JPG,AFNE01.JPG,AFNE01.JPG,AFNE01.JPG,AFNE01.JPG,,,,,,,,,,,,,,,,,0,0,0,9,,,,,,,AMSA12.jpg,AMSA11.jpg,AMNE15.jpg,AMNE11.jpg,AMSA11.jpg,MS,2,num_6,16,num_6,0.683502096043,,,2017_Mar_16_1222,60.0036566744,MAFE4ImagesEEG,001,200049,
AFNE01.JPG,AFNE01.JPG,AFNE01.JPG,AFNE01.JPG,AFNE01.JPG,AFNE01.JPG,,,,,,,,,,,,,,,,,0,1,1,2,,,,,,,AMSA01.jpg,AMNE01.jpg,AMNE20.jpg,AMSA16.jpg,AMNE20.jpg,MN,1,num_2,16,num_2,1.5001068064,,,2017_Mar_16_1222,60.0036566744,MAFE4ImagesEEG,001,200049,
AFNE01.JPG,AFNE01.JPG,AFNE01.JPG,AFNE01.JPG,AFNE01.JPG,AFNE01.JPG,,,,,,,,,,,,,,,,,0,2,2,7,,,,,,,AMNE10.jpg,AMSA18.jpg,AMSA12.jpg,AMNE18.jpg,AMNE10.jpg,MN,1,num_8,16,num_8,0.800122201908,,,2017_Mar_16_1222,60.0036566744,MAFE4ImagesEEG,001,200049,
AFNE01.JPG,AFNE01.JPG,AFNE01.JPG,AFNE01.JPG,AFNE01.JPG,AFNE01.JPG,,,,,,,,,,,,,,,,,0,3,3,3,,,,,,,AMSA03.jpg,AMSA02.jpg,AMNE19.jpg,AMNE07.jpg,AMSA02.jpg,MS,2,num_6,32,num_2,1.06667062244,,,2017_Mar_16_1222,60.0036566744,MAFE4ImagesEEG,001,200049,
AFNE01.JPG,AFNE01.JPG,AFNE01.JPG,AFNE01.JPG,AFNE01.JPG,AFNE01.JPG,,,,,,,,,,,,,,,,,0,4,4,5,,,,,,,AMNE01.jpg,AMSA13.jpg,AMSA15.jpg,AMNE05.jpg,AMNE01.jpg,MN,1,num_8,16,num_8,0.850141927483,,,2017_Mar_16_1222,60.0036566744,MAFE4ImagesEEG,001,200049,
AFNE01.JPG,AFNE01.JPG,AFNE01.JPG,AFNE01.JPG,AFNE01.JPG,AFNE01.JPG,,,,,,,,,,,,,,,,,0,5,5,8,,,,,,,AMSA06.jpg,AMSA13.jpg,AMNE12.jpg,AMNE16.jpg,AMSA13.jpg,MS,2,num_6,16,num_6,1.20017223741,,,2017_Mar_16_1222,60.0036566744,MAFE4ImagesEEG,001,200049,
AFNE01.JPG,AFNE01.JPG,AFNE01.JPG,AFNE01.JPG,AFNE01.JPG,AFNE01.JPG,,,,,,,,,,,,,,,,,0,6,6,6,,,,,,,AMNE12.jpg,AMNE13.jpg,AMSA10.jpg,AMSA06.jpg,AMSA10.jpg,MS,2,num_2,32,num_6,1.383470022,,,2017_Mar_16_1222,60.0036566744,MAFE4ImagesEEG,001,200049,
AFNE01.JPG,AFNE01.JPG,AFNE01.JPG,AFNE01.JPG,AFNE01.JPG,AFNE01.JPG,,,,,,,,,,,,,,,,,0,7,7,0,,,,,,,AMNE11.jpg,AMSA16.jpg,AMSA01.jpg,AMNE14.jpg,AMNE11.jpg,MN,1,num_8,16,num_8,0.650162775535,,,2017_Mar_16_1222,60.0036566744,MAFE4ImagesEEG,001,200049,
AFNE01.JPG,AFNE01.JPG,AFNE01.JPG,AFNE01.JPG,AFNE01.JPG,AFNE01.JPG,,,,,,,,,,,,,,,,,0,8,8,1,,,,,,,AMNE06.jpg,AMSA14.jpg,AMNE01.jpg,AMSA16.jpg,AMNE01.jpg,MN,1,num_2,32,num_8,0.900023734721,,,2017_Mar_16_1222,60.0036566744,MAFE4ImagesEEG,001,200049,
AFNE01.JPG,AFNE01.JPG,AFNE01.JPG,AFNE01.JPG,AFNE01.JPG,AFNE01.JPG,,,,,,,,,,,,,,,,,0,9,9,4,,,,,,,AMSA13.jpg,AMSA04.jpg,AMNE04.jpg,AMNE14.jpg,AMSA04.jpg,MS,2,num_6,16,num_6,0.48351332196,,,2017_Mar_16_1222,60.0036566744,MAFE4ImagesEEG,001,200049,
AFNE01.JPG,AFNE01.JPG,AFNE01.JPG,AFNE01.JPG,AFNE01.JPG,AFNE01.JPG,,,,,,,,,,,,,,,,,1,0,10,2,,,,,,,AMSA20.jpg,AMNE16.jpg,AMNE03.jpg,AMSA10.jpg,AMNE16.jpg,MN,1,num_6,16,num_6,1.350084515,,,2017_Mar_16_1222,60.0036566744,MAFE4ImagesEEG,001,200049,
AFNE01.JPG,AFNE01.JPG,AFNE01.JPG,AFNE01.JPG,AFNE01.JPG,AFNE01.JPG,,,,,,,,,,,,,,,,,1,1,11,7,,,,,,,AMSA18.jpg,AMNE14.jpg,AMNE16.jpg,AMSA12.jpg,AMSA18.jpg,MS,2,num_8,32,num_6,0.916801965504,,,2017_Mar_16_1222,60.0036566744,MAFE4ImagesEEG,001,200049,
AFNE01.JPG,AFNE01.JPG,AFNE01.JPG,AFNE01.JPG,AFNE01.JPG,AFNE01.JPG,,,,,,,,,,,,,,,,,1,2,12,3,,,,,,,AMSA09.jpg,AMSA14.jpg,AMNE10.jpg,AMNE03.jpg,AMNE10.jpg,MN,1,num_2,32,num_8,0.666818483616,,,2017_Mar_16_1222,60.0036566744,MAFE4ImagesEEG,001,200049,
AFNE01.JPG,AFNE01.JPG,AFNE01.JPG,AFNE01.JPG,AFNE01.JPG,AFNE01.JPG,,,,,,,,,,,,,,,,,1,3,13,8,,,,,,,AMNE04.jpg,AMSA06.jpg,AMSA08.jpg,AMNE01.jpg,AMSA08.jpg,MS,2,num_2,16,num_2,0.566676716495,,,2017_Mar_16_1222,60.0036566744,MAFE4ImagesEEG,001,200049,
AFNE01.JPG,AFNE01.JPG,AFNE01.JPG,AFNE01.JPG,AFNE01.JPG,AFNE01.JPG,,,,,,,,,,,,,,,,,1,4,14,4,,,,,,,AMSA15.jpg,AMNE08.jpg,AMSA18.jpg,AMNE06.jpg,AMNE06.jpg,MN,1,num_4,16,num_4,0.833517331164,,,2017_Mar_16_1222,60.0036566744,MAFE4ImagesEEG,001,200049,
AFNE01.JPG,AFNE01.JPG,AFNE01.JPG,AFNE01.JPG,AFNE01.JPG,AFNE01.JPG,,,,,,,,,,,,,,,,,1,5,15,0,,,,,,,AMSA09.jpg,AMNE09.jpg,AMNE14.jpg,AMSA16.jpg,AMNE09.jpg,MN,1,num_6,32,num_8,2.55007072317,,,2017_Mar_16_1222,60.0036566744,MAFE4ImagesEEG,001,200049,
AFNE01.JPG,AFNE01.JPG,AFNE01.JPG,AFNE01.JPG,AFNE01.JPG,AFNE01.JPG,,,,,,,,,,,,,,,,,1,6,16,1,,,,,,,AMNE12.jpg,AMSA05.jpg,AMSA12.jpg,AMNE04.jpg,AMNE12.jpg,MN,1,num_8,16,num_8,0.633471786103,,,2017_Mar_16_1222,60.0036566744,MAFE4ImagesEEG,001,200049,
AFNE01.JPG,AFNE01.JPG,AFNE01.JPG,AFNE01.JPG,AFNE01.JPG,AFNE01.JPG,,,,,,,,,,,,,,,,,1,7,17,5,,,,,,,AMNE15.jpg,AMSA18.jpg,AMSA06.jpg,AMNE20.jpg,AMSA18.jpg,MS,2,num_6,32,num_8,0.800164218876,,,2017_Mar_16_1222,60.0036566744,MAFE4ImagesEEG,001,200049,
AFNE01.JPG,AFNE01.JPG,AFNE01.JPG,AFNE01.JPG,AFNE01.JPG,AFNE01.JPG,,,,,,,,,,,,,,,,,1,8,18,6,,,,,,,AMSA15.jpg,AMNE02.jpg,AMSA11.jpg,AMNE12.jpg,AMSA15.jpg,MS,2,num_8,16,num_8,0.400164860417,,,2017_Mar_16_1222,60.0036566744,MAFE4ImagesEEG,001,200049,
AFNE01.JPG,AFNE01.JPG,AFNE01.JPG,AFNE01.JPG,AFNE01.JPG,AFNE01.JPG,,,,,,,,,,,,,,,,,1,9,19,9,,,,,,,AMSA01.jpg,AMNE10.jpg,AMNE05.jpg,AMSA18.jpg,AMSA18.jpg,MS,2,num_4,32,num_8,0.566814313992,,,2017_Mar_16_1222,60.0036566744,MAFE4ImagesEEG,001,200049,
AFNE01.JPG,AFNE01.JPG,AFNE01.JPG,AFNE01.JPG,AFNE01.JPG,AFNE01.JPG,,,,,,,,,,,,,,,,,2,0,20,7,,,,,,,AMSA10.jpg,AMSA16.jpg,AMNE14.jpg,AMNE06.jpg,AMSA10.jpg,MS,2,num_8,32,num_6,1.14999182109,,,2017_Mar_16_1222,60.0036566744,MAFE4ImagesEEG,001,200049,
AFNE01.JPG,AFNE01.JPG,AFNE01.JPG,AFNE01.JPG,AFNE01.JPG,AFNE01.JPG,,,,,,,,,,,,,,,,,2,1,21,3,,,,,,,AMSA15.jpg,AMNE20.jpg,AMSA09.jpg,AMNE10.jpg,AMSA09.jpg,MS,2,num_2,32,num_8,1.53340346849,,,2017_Mar_16_1222,60.0036566744,MAFE4ImagesEEG,001,200049,
AFNE01.JPG,AFNE01.JPG,AFNE01.JPG,AFNE01.JPG,AFNE01.JPG,AFNE01.JPG,,,,,,,,,,,,,,,,,2,2,22,5,,,,,,,AMNE19.jpg,AMSA07.jpg,AMSA15.jpg,AMNE16.jpg,AMNE19.jpg,MN,1,num_8,32,num_6,0.383507227874,,,2017_Mar_16_1222,60.0036566744,MAFE4ImagesEEG,001,200049,
AFNE01.JPG,AFNE01.JPG,AFNE01.JPG,AFNE01.JPG,AFNE01.JPG,AFNE01.JPG,,,,,,,,,,,,,,,,,2,3,23,8,,,,,,,AMNE12.jpg,AMNE13.jpg,AMSA19.jpg,AMSA14.jpg,AMSA14.jpg,MS,2,num_4,32,num_8,0.66683259618,,,2017_Mar_16_1222,60.0036566744,MAFE4ImagesEEG,001,200049,
AFNE01.JPG,AFNE01.JPG,AFNE01.JPG,AFNE01.JPG,AFNE01.JPG,AFNE01.JPG,,,,,,,,,,,,,,,,,2,4,24,6,,,,,,,AMNE08.jpg,AMNE06.jpg,AMSA06.jpg,AMSA09.jpg,AMNE08.jpg,MN,1,num_8,16,num_8,0.666823615495,,,2017_Mar_16_1222,60.0036566744,MAFE4ImagesEEG,001,200049,
AFNE01.JPG,AFNE01.JPG,AFNE01.JPG,AFNE01.JPG,AFNE01.JPG,AFNE01.JPG,,,,,,,,,,,,,,,,,2,5,25,4,,,,,,,AMSA08.jpg,AMNE01.jpg,AMNE06.jpg,AMSA17.jpg,AMSA17.jpg,MS,2,num_4,32,num_6,0.516679442837,,,2017_Mar_16_1222,60.0036566744,MAFE4ImagesEEG,001,200049,
AFNE01.JPG,AFNE01.JPG,AFNE01.JPG,AFNE01.JPG,AFNE01.JPG,AFNE01.JPG,,,,,,,,,,,,,,,,,2,6,26,9,,,,,,,AMNE10.jpg,AMSA02.jpg,AMSA16.jpg,AMNE09.jpg,AMNE10.jpg,MN,1,num_8,32,num_6,0.350183623668,,,2017_Mar_16_1222,60.0036566744,MAFE4ImagesEEG,001,200049,
AFNE01.JPG,AFNE01.JPG,AFNE01.JPG,AFNE01.JPG,AFNE01.JPG,AFNE01.JPG,,,,,,,,,,,,,,,,,2,7,27,1,,,,,,,AMNE06.jpg,AMSA14.jpg,AMSA20.jpg,AMNE19.jpg,AMNE19.jpg,MN,1,num_4,32,num_8,0.683447890973,,,2017_Mar_16_1222,60.0036566744,MAFE4ImagesEEG,001,200049,
AFNE01.JPG,AFNE01.JPG,AFNE01.JPG,AFNE01.JPG,AFNE01.JPG,AFNE01.JPG,,,,,,,,,,,,,,,,,2,8,28,2,,,,,,,AMNE17.jpg,AMSA16.jpg,AMSA01.jpg,AMNE19.jpg,AMSA16.jpg,MS,2,num_6,16,num_6,0.733464088349,,,2017_Mar_16_1222,60.0036566744,MAFE4ImagesEEG,001,200049,
AFNE01.JPG,AFNE01.JPG,AFNE01.JPG,AFNE01.JPG,AFNE01.JPG,AFNE01.JPG,,,,,,,,,,,,,,,,,2,9,29,0,,,,,,,AMSA18.jpg,AMNE07.jpg,AMSA07.jpg,AMNE09.jpg,AMNE07.jpg,MN,1,num_6,32,num_8,0.866769410379,,,2017_Mar_16_1222,60.0036566744,MAFE4ImagesEEG,001,200049,
AFNE01.JPG,AFNE01.JPG,AFNE01.JPG,AFNE01.JPG,AFNE01.JPG,AFNE01.JPG,,,,,,,,,,,,,,,,,3,0,30,4,,,,,,,AMNE06.jpg,AMNE09.jpg,AMSA15.jpg,AMSA10.jpg,AMSA15.jpg,MS,2,num_2,32,num_4,1.23344580614,,,2017_Mar_16_1222,60.0036566744,MAFE4ImagesEEG,001,200049,
AFNE01.JPG,AFNE01.JPG,AFNE01.JPG,AFNE01.JPG,AFNE01.JPG,AFNE01.JPG,,,,,,,,,,,,,,,,,3,1,31,6,,,,,,,AMSA06.jpg,AMNE04.jpg,AMNE15.jpg,AMSA05.jpg,AMSA06.jpg,MS,2,num_8,16,num_8,0.700187953655,,,2017_Mar_16_1222,60.0036566744,MAFE4ImagesEEG,001,200049,
AFNE01.JPG,AFNE01.JPG,AFNE01.JPG,AFNE01.JPG,AFNE01.JPG,AFNE01.JPG,,,,,,,,,,,,,,,,,3,2,32,8,,,,,,,AMSA09.jpg,AMSA05.jpg,AMNE11.jpg,AMNE01.jpg,AMSA05.jpg,MS,2,num_6,32,num_8,0.783395289618,,,2017_Mar_16_1222,60.0036566744,MAFE4ImagesEEG,001,200049,
AFNE01.JPG,AFNE01.JPG,AFNE01.JPG,AFNE01.JPG,AFNE01.JPG,AFNE01.JPG,,,,,,,,,,,,,,,,,3,3,33,7,,,,,,,AMSA17.jpg,AMNE19.jpg,AMSA08.jpg,AMNE18.jpg,AMSA08.jpg,MS,2,num_2,32,num_4,0.866838048794,,,2017_Mar_16_1222,60.0036566744,MAFE4ImagesEEG,001,200049,
AFNE01.JPG,AFNE01.JPG,AFNE01.JPG,AFNE01.JPG,AFNE01.JPG,AFNE01.JPG,,,,,,,,,,,,,,,,,3,4,34,0,,,,,,,AMSA07.jpg,AMNE04.jpg,AMNE03.jpg,AMSA20.jpg,AMNE03.jpg,MN,1,num_2,32,num_8,0.466707507556,,,2017_Mar_16_1222,60.0036566744,MAFE4ImagesEEG,001,200049,
AFNE01.JPG,AFNE01.JPG,AFNE01.JPG,AFNE01.JPG,AFNE01.JPG,AFNE01.JPG,,,,,,,,,,,,,,,,,3,5,35,1,,,,,,,AMSA19.jpg,AMNE14.jpg,AMSA14.jpg,AMNE09.jpg,AMSA19.jpg,MS,2,num_8,32,num_4,0.68349151162,,,2017_Mar_16_1222,60.0036566744,MAFE4ImagesEEG,001,200049,
AFNE01.JPG,AFNE01.JPG,AFNE01.JPG,AFNE01.JPG,AFNE01.JPG,AFNE01.JPG,,,,,,,,,,,,,,,,,3,6,36,9,,,,,,,AMSA18.jpg,AMSA02.jpg,AMNE04.jpg,AMNE12.jpg,AMSA18.jpg,MS,2,num_8,16,num_8,1.06663213362,,,2017_Mar_16_1222,60.0036566744,MAFE4ImagesEEG,001,200049,
AFNE01.JPG,AFNE01.JPG,AFNE01.JPG,AFNE01.JPG,AFNE01.JPG,AFNE01.JPG,,,,,,,,,,,,,,,,,3,7,37,3,,,,,,,AMNE02.jpg,AMSA06.jpg,AMNE20.jpg,AMSA02.jpg,AMSA06.jpg,MS,2,num_6,16,num_6,0.733517972694,,,2017_Mar_16_1222,60.0036566744,MAFE4ImagesEEG,001,200049,
AFNE01.JPG,AFNE01.JPG,AFNE01.JPG,AFNE01.JPG,AFNE01.JPG,AFNE01.JPG,,,,,,,,,,,,,,,,,3,8,38,2,,,,,,,AMNE07.jpg,AMNE20.jpg,AMSA19.jpg,AMSA01.jpg,AMSA01.jpg,MS,2,num_4,32,num_8,0.450159888889,,,2017_Mar_16_1222,60.0036566744,MAFE4ImagesEEG,001,200049,
AFNE01.JPG,AFNE01.JPG,AFNE01.JPG,AFNE01.JPG,AFNE01.JPG,AFNE01.JPG,,,,,,,,,,,,,,,,,3,9,39,5,,,,,,,AMSA05.jpg,AMNE19.jpg,AMSA13.jpg,AMNE05.jpg,AMNE19.jpg,MN,1,num_6,32,num_2,0.600183463248,,,2017_Mar_16_1222,60.0036566744,MAFE4ImagesEEG,001,200049,
AFNE01.JPG,AFNE01.JPG,AFNE01.JPG,AFNE01.JPG,AFNE01.JPG,AFNE01.JPG,,,,,,,,,,,,,,,,,4,0,40,5,,,,,,,AMNE08.jpg,AMSA03.jpg,AMSA13.jpg,AMNE06.jpg,AMNE06.jpg,MN,1,num_4,32,num_8,0.7001539552,,,2017_Mar_16_1222,60.0036566744,MAFE4ImagesEEG,001,200049,
AFNE01.JPG,AFNE01.JPG,AFNE01.JPG,AFNE01.JPG,AFNE01.JPG,AFNE01.JPG,,,,,,,,,,,,,,,,,4,1,41,4,,,,,,,AMSA08.jpg,AMNE04.jpg,AMSA07.jpg,AMNE08.jpg,AMNE04.jpg,MN,1,num_6,32,num_8,0.750152832596,,,2017_Mar_16_1222,60.0036566744,MAFE4ImagesEEG,001,200049,
AFNE01.JPG,AFNE01.JPG,AFNE01.JPG,AFNE01.JPG,AFNE01.JPG,AFNE01.JPG,,,,,,,,,,,,,,,,,4,2,42,9,,,,,,,AMNE13.jpg,AMSA15.jpg,AMNE16.jpg,AMSA14.jpg,AMNE13.jpg,MN,1,num_8,16,num_8,0.850122362317,,,2017_Mar_16_1222,60.0036566744,MAFE4ImagesEEG,001,200049,
AFNE01.JPG,AFNE01.JPG,AFNE01.JPG,AFNE01.JPG,AFNE01.JPG,AFNE01.JPG,,,,,,,,,,,,,,,,,4,3,43,6,,,,,,,AMNE01.jpg,AMNE04.jpg,AMSA05.jpg,AMSA11.jpg,AMNE01.jpg,MN,1,num_8,16,num_8,0.750192604377,,,2017_Mar_16_1222,60.0036566744,MAFE4ImagesEEG,001,200049,
AFNE01.JPG,AFNE01.JPG,AFNE01.JPG,AFNE01.JPG,AFNE01.JPG,AFNE01.JPG,,,,,,,,,,,,,,,,,4,4,44,7,,,,,,,AMSA18.jpg,AMNE18.jpg,AMSA17.jpg,AMNE08.jpg,AMSA18.jpg,MS,2,num_8,16,num_8,0.633483012032,,,2017_Mar_16_1222,60.0036566744,MAFE4ImagesEEG,001,200049,
AFNE01.JPG,AFNE01.JPG,AFNE01.JPG,AFNE01.JPG,AFNE01.JPG,AFNE01.JPG,,,,,,,,,,,,,,,,,4,5,45,1,,,,,,,AMSA20.jpg,AMNE04.jpg,AMSA01.jpg,AMNE08.jpg,AMSA20.jpg,MS,2,num_8,16,num_8,0.650282090879,,,2017_Mar_16_1222,60.0036566744,MAFE4ImagesEEG,001,200049,
AFNE01.JPG,AFNE01.JPG,AFNE01.JPG,AFNE01.JPG,AFNE01.JPG,AFNE01.JPG,,,,,,,,,,,,,,,,,4,6,46,8,,,,,,,AMSA13.jpg,AMSA04.jpg,AMNE06.jpg,AMNE07.jpg,AMNE07.jpg,MN,1,num_4,32,num_2,0.633510595653,,,2017_Mar_16_1222,60.0036566744,MAFE4ImagesEEG,001,200049,
AFNE01.JPG,AFNE01.JPG,AFNE01.JPG,AFNE01.JPG,AFNE01.JPG,AFNE01.JPG,,,,,,,,,,,,,,,,,4,7,47,0,,,,,,,AMNE14.jpg,AMSA11.jpg,AMNE15.jpg,AMSA12.jpg,AMSA12.jpg,MS,2,num_4,32,num_2,1.11675321299,,,2017_Mar_16_1222,60.0036566744,MAFE4ImagesEEG,001,200049,
AFNE01.JPG,AFNE01.JPG,AFNE01.JPG,AFNE01.JPG,AFNE01.JPG,AFNE01.JPG,,,,,,,,,,,,,,,,,4,8,48,3,,,,,,,AMNE12.jpg,AMNE20.jpg,AMSA01.jpg,AMSA19.jpg,AMNE20.jpg,MN,1,num_6,32,num_4,1.31677983439,,,2017_Mar_16_1222,60.0036566744,MAFE4ImagesEEG,001,200049,
AFNE01.JPG,AFNE01.JPG,AFNE01.JPG,AFNE01.JPG,AFNE01.JPG,AFNE01.JPG,,,,,,,,,,,,,,,,,4,9,49,2,,,,,,,AMSA03.jpg,AMNE08.jpg,AMNE16.jpg,AMSA13.jpg,AMSA13.jpg,MS,2,num_4,32,num_2,1.11669483833,,,2017_Mar_16_1222,60.0036566744,MAFE4ImagesEEG,001,200049,
AFNE01.JPG,AFNE01.JPG,AFNE01.JPG,AFNE01.JPG,AFNE01.JPG,AFNE01.JPG,,,,,,,,,,,,,,,,,5,0,50,3,,,,,,,AMSA02.jpg,AMSA10.jpg,AMNE13.jpg,AMNE18.jpg,AMNE13.jpg,MN,1,num_2,16,num_2,0.766828105785,,,2017_Mar_16_1222,60.0036566744,MAFE4ImagesEEG,001,200049,
AFNE01.JPG,AFNE01.JPG,AFNE01.JPG,AFNE01.JPG,AFNE01.JPG,AFNE01.JPG,,,,,,,,,,,,,,,,,5,1,51,7,,,,,,,AMSA08.jpg,AMSA15.jpg,AMNE14.jpg,AMNE07.jpg,AMNE14.jpg,MN,1,num_2,32,num_6,0.750169190345,,,2017_Mar_16_1222,60.0036566744,MAFE4ImagesEEG,001,200049,
AFNE01.JPG,AFNE01.JPG,AFNE01.JPG,AFNE01.JPG,AFNE01.JPG,AFNE01.JPG,,,,,,,,,,,,,,,,,5,2,52,8,,,,,,,AMNE05.jpg,AMSA13.jpg,AMNE13.jpg,AMSA17.jpg,AMNE05.jpg,MN,1,num_8,32,num_4,0.800155879639,,,2017_Mar_16_1222,60.0036566744,MAFE4ImagesEEG,001,200049,
AFNE01.JPG,AFNE01.JPG,AFNE01.JPG,AFNE01.JPG,AFNE01.JPG,AFNE01.JPG,,,,,,,,,,,,,,,,,5,3,53,9,,,,,,,AMNE01.jpg,AMNE11.jpg,AMSA17.jpg,AMSA08.jpg,AMSA17.jpg,MS,2,num_2,16,num_2,0.98347964423,,,2017_Mar_16_1222,60.0036566744,MAFE4ImagesEEG,001,200049,
AFNE01.JPG,AFNE01.JPG,AFNE01.JPG,AFNE01.JPG,AFNE01.JPG,AFNE01.JPG,,,,,,,,,,,,,,,,,5,4,54,2,,,,,,,AMNE01.jpg,AMSA18.jpg,AMSA05.jpg,AMNE17.jpg,AMNE01.jpg,MN,1,num_8,16,num_8,0.550138399296,,,2017_Mar_16_1222,60.0036566744,MAFE4ImagesEEG,001,200049,
AFNE01.JPG,AFNE01.JPG,AFNE01.JPG,AFNE01.JPG,AFNE01.JPG,AFNE01.JPG,,,,,,,,,,,,,,,,,5,5,55,1,,,,,,,AMSA08.jpg,AMSA16.jpg,AMNE03.jpg,AMNE17.jpg,AMSA16.jpg,MS,2,num_6,32,num_8,2.64992735238,,,2017_Mar_16_1222,60.0036566744,MAFE4ImagesEEG,001,200049,
AFNE01.JPG,AFNE01.JPG,AFNE01.JPG,AFNE01.JPG,AFNE01.JPG,AFNE01.JPG,,,,,,,,,,,,,,,,,5,6,56,0,,,,,,,AMSA05.jpg,AMNE11.jpg,AMNE01.jpg,AMSA17.jpg,AMNE01.jpg,MN,1,num_2,16,num_2,1.00012348493,,,2017_Mar_16_1222,60.0036566744,MAFE4ImagesEEG,001,200049,
AFNE01.JPG,AFNE01.JPG,AFNE01.JPG,AFNE01.JPG,AFNE01.JPG,AFNE01.JPG,,,,,,,,,,,,,,,,,5,7,57,5,,,,,,,AMNE01.jpg,AMSA12.jpg,AMNE20.jpg,AMSA02.jpg,AMNE01.jpg,MN,1,num_8,32,num_6,0.600161973736,,,2017_Mar_16_1222,60.0036566744,MAFE4ImagesEEG,001,200049,
AFNE01.JPG,AFNE01.JPG,AFNE01.JPG,AFNE01.JPG,AFNE01.JPG,AFNE01.JPG,,,,,,,,,,,,,,,,,5,8,58,4,,,,,,,AMSA19.jpg,AMNE17.jpg,AMSA14.jpg,AMNE20.jpg,AMNE20.jpg,MN,1,num_4,32,num_8,0.950201585074,,,2017_Mar_16_1222,60.0036566744,MAFE4ImagesEEG,001,200049,
AFNE01.JPG,AFNE01.JPG,AFNE01.JPG,AFNE01.JPG,AFNE01.JPG,AFNE01.JPG,,,,,,,,,,,,,,,,,5,9,59,6,,,,,,,AMNE05.jpg,AMNE08.jpg,AMSA08.jpg,AMSA19.jpg,AMSA08.jpg,MS,2,num_2,32,num_8,0.866833879089,,,2017_Mar_16_1222,60.0036566744,MAFE4ImagesEEG,001,200049,
,,,,,,,,,,,,,,,,,,,,,,,,,,,,,,,,,,,,,,,,,,,space,10.1496691567,2017_Mar_16_1222,60.0036566744,MAFE4ImagesEEG,001,200049,
AFNE01.JPG,AFNE01.JPG,AFNE01.JPG,AFNE01.JPG,AFNE01.JPG,AFNE01.JPG,,,,,,,,,,,,,,,,,,,,,0,0,0,8,,,AFSA02.jpg,AFNE16.jpg,AFSA07.jpg,AFNE01.jpg,AFNE01.jpg,FN,3,num_4,32,num_8,0.916804531415,,,2017_Mar_16_1222,60.0036566744,MAFE4ImagesEEG,001,200049,
AFNE01.JPG,AFNE01.JPG,AFNE01.JPG,AFNE01.JPG,AFNE01.JPG,AFNE01.JPG,,,,,,,,,,,,,,,,,,,,,0,1,1,7,,,AFNE17.jpg,AFNE16.jpg,AFSA05.jpg,AFSA14.jpg,AFSA14.jpg,FS,4,num_4,32,num_8,0.616782079625,,,2017_Mar_16_1222,60.0036566744,MAFE4ImagesEEG,001,200049,
AFNE01.JPG,AFNE01.JPG,AFNE01.JPG,AFNE01.JPG,AFNE01.JPG,AFNE01.JPG,,,,,,,,,,,,,,,,,,,,,0,2,2,6,,,AFNE07.jpg,AFNE10.jpg,AFSA09.jpg,AFSA04.jpg,AFSA09.jpg,FS,4,num_2,32,num_8,0.966799880669,,,2017_Mar_16_1222,60.0036566744,MAFE4ImagesEEG,001,200049,
AFNE01.JPG,AFNE01.JPG,AFNE01.JPG,AFNE01.JPG,AFNE01.JPG,AFNE01.JPG,,,,,,,,,,,,,,,,,,,,,0,3,3,4,,,AFSA10.jpg,AFSA07.jpg,AFNE04.jpg,AFNE12.jpg,AFNE12.jpg,FN,3,num_4,32,num_2,1.11670798867,,,2017_Mar_16_1222,60.0036566744,MAFE4ImagesEEG,001,200049,
AFNE01.JPG,AFNE01.JPG,AFNE01.JPG,AFNE01.JPG,AFNE01.JPG,AFNE01.JPG,,,,,,,,,,,,,,,,,,,,,0,4,4,9,,,AFSA01.jpg,AFNE16.jpg,AFSA03.jpg,AFNE10.jpg,AFSA03.jpg,FS,4,num_2,32,num_6,0.716780155199,,,2017_Mar_16_1222,60.0036566744,MAFE4ImagesEEG,001,200049,
AFNE01.JPG,AFNE01.JPG,AFNE01.JPG,AFNE01.JPG,AFNE01.JPG,AFNE01.JPG,,,,,,,,,,,,,,,,,,,,,0,5,5,1,,,AFNE05.jpg,AFSA19.jpg,AFSA03.jpg,AFNE01.jpg,AFSA19.jpg,FS,4,num_6,32,num_8,0.733794450527,,,2017_Mar_16_1222,60.0036566744,MAFE4ImagesEEG,001,200049,
AFNE01.JPG,AFNE01.JPG,AFNE01.JPG,AFNE01.JPG,AFNE01.JPG,AFNE01.JPG,,,,,,,,,,,,,,,,,,,,,0,6,6,5,,,AFSA07.jpg,AFSA17.jpg,AFNE17.jpg,AFNE20.jpg,AFSA17.jpg,FS,4,num_6,32,num_8,0.500168388477,,,2017_Mar_16_1222,60.0036566744,MAFE4ImagesEEG,001,200049,
AFNE01.JPG,AFNE01.JPG,AFNE01.JPG,AFNE01.JPG,AFNE01.JPG,AFNE01.JPG,,,,,,,,,,,,,,,,,,,,,0,7,7,0,,,AFNE10.jpg,AFNE07.jpg,AFSA06.jpg,AFSA09.jpg,AFSA06.jpg,FS,4,num_2,32,num_4,1.0000898072,,,2017_Mar_16_1222,60.0036566744,MAFE4ImagesEEG,001,200049,
AFNE01.JPG,AFNE01.JPG,AFNE01.JPG,AFNE01.JPG,AFNE01.JPG,AFNE01.JPG,,,,,,,,,,,,,,,,,,,,,0,8,8,2,,,AFSA04.jpg,AFNE14.jpg,AFNE06.jpg,AFSA19.jpg,AFNE06.jpg,FN,3,num_2,32,num_8,0.450202226581,,,2017_Mar_16_1222,60.0036566744,MAFE4ImagesEEG,001,200049,
AFNE01.JPG,AFNE01.JPG,AFNE01.JPG,AFNE01.JPG,AFNE01.JPG,AFNE01.JPG,,,,,,,,,,,,,,,,,,,,,0,9,9,3,,,AFSA11.jpg,AFNE13.jpg,AFNE07.jpg,AFSA07.jpg,AFNE13.jpg,FN,3,num_6,16,num_6,0.533505143074,,,2017_Mar_16_1222,60.0036566744,MAFE4ImagesEEG,001,200049,
AFNE01.JPG,AFNE01.JPG,AFNE01.JPG,AFNE01.JPG,AFNE01.JPG,AFNE01.JPG,,,,,,,,,,,,,,,,,,,,,1,0,10,0,,,AFSA11.jpg,AFNE19.jpg,AFNE17.jpg,AFSA06.jpg,AFNE17.jpg,FN,3,num_2,32,num_8,0.566773900704,,,2017_Mar_16_1222,60.0036566744,MAFE4ImagesEEG,001,200049,
AFNE01.JPG,AFNE01.JPG,AFNE01.JPG,AFNE01.JPG,AFNE01.JPG,AFNE01.JPG,,,,,,,,,,,,,,,,,,,,,1,1,11,9,,,AFSA02.jpg,AFSA13.jpg,AFNE01.jpg,AFNE06.jpg,AFSA02.jpg,FS,4,num_8,32,num_4,2.20008050569,,,2017_Mar_16_1222,60.0036566744,MAFE4ImagesEEG,001,200049,
AFNE01.JPG,AFNE01.JPG,AFNE01.JPG,AFNE01.JPG,AFNE01.JPG,AFNE01.JPG,,,,,,,,,,,,,,,,,,,,,1,2,12,5,,,AFNE19.jpg,AFSA14.jpg,AFSA04.jpg,AFNE11.jpg,AFSA04.jpg,FS,4,num_2,32,num_6,0.633468899468,,,2017_Mar_16_1222,60.0036566744,MAFE4ImagesEEG,001,200049,
AFNE01.JPG,AFNE01.JPG,AFNE01.JPG,AFNE01.JPG,AFNE01.JPG,AFNE01.JPG,,,,,,,,,,,,,,,,,,,,,1,3,13,7,,,AFSA09.jpg,AFNE01.jpg,AFSA11.jpg,AFNE15.jpg,AFNE01.jpg,FN,3,num_6,32,num_8,0.816791060322,,,2017_Mar_16_1222,60.0036566744,MAFE4ImagesEEG,001,200049,
AFNE01.JPG,AFNE01.JPG,AFNE01.JPG,AFNE01.JPG,AFNE01.JPG,AFNE01.JPG,,,,,,,,,,,,,,,,,,,,,1,4,14,6,,,AFNE13.jpg,AFSA02.jpg,AFSA17.jpg,AFNE04.jpg,AFNE04.jpg,FN,3,num_4,16,num_4,0.666790258489,,,2017_Mar_16_1222,60.0036566744,MAFE4ImagesEEG,001,200049,
AFNE01.JPG,AFNE01.JPG,AFNE01.JPG,AFNE01.JPG,AFNE01.JPG,AFNE01.JPG,,,,,,,,,,,,,,,,,,,,,1,5,15,4,,,AFSA12.jpg,AFNE20.jpg,AFSA19.jpg,AFNE13.jpg,AFNE13.jpg,FN,3,num_4,32,num_6,0.80015267228,,,2017_Mar_16_1222,60.0036566744,MAFE4ImagesEEG,001,200049,
AFNE01.JPG,AFNE01.JPG,AFNE01.JPG,AFNE01.JPG,AFNE01.JPG,AFNE01.JPG,,,,,,,,,,,,,,,,,,,,,1,6,16,2,,,AFSA19.jpg,AFNE12.jpg,AFNE16.jpg,AFSA18.jpg,AFNE16.jpg,FN,3,num_2,32,num_8,0.783474512398,,,2017_Mar_16_1222,60.0036566744,MAFE4ImagesEEG,001,200049,
AFNE01.JPG,AFNE01.JPG,AFNE01.JPG,AFNE01.JPG,AFNE01.JPG,AFNE01.JPG,,,,,,,,,,,,,,,,,,,,,1,7,17,3,,,AFSA03.jpg,AFNE08.jpg,AFNE12.jpg,AFSA10.jpg,AFSA10.jpg,FS,4,num_4,32,num_8,0.866539760551,,,2017_Mar_16_1222,60.0036566744,MAFE4ImagesEEG,001,200049,
AFNE01.JPG,AFNE01.JPG,AFNE01.JPG,AFNE01.JPG,AFNE01.JPG,AFNE01.JPG,,,,,,,,,,,,,,,,,,,,,1,8,18,1,,,AFSA15.jpg,AFNE09.jpg,AFNE08.jpg,AFSA19.jpg,AFSA19.jpg,FS,4,num_4,32,num_8,0.800094297563,,,2017_Mar_16_1222,60.0036566744,MAFE4ImagesEEG,001,200049,
AFNE01.JPG,AFNE01.JPG,AFNE01.JPG,AFNE01.JPG,AFNE01.JPG,AFNE01.JPG,,,,,,,,,,,,,,,,,,,,,1,9,19,8,,,AFSA16.jpg,AFNE01.jpg,AFNE15.jpg,AFSA09.jpg,AFSA16.jpg,FS,4,num_8,16,num_8,0.750145776372,,,2017_Mar_16_1222,60.0036566744,MAFE4ImagesEEG,001,200049,
AFNE01.JPG,AFNE01.JPG,AFNE01.JPG,AFNE01.JPG,AFNE01.JPG,AFNE01.JPG,,,,,,,,,,,,,,,,,,,,,2,0,20,5,,,AFSA06.jpg,AFSA08.jpg,AFNE09.jpg,AFNE02.jpg,AFNE02.jpg,FN,3,num_4,32,num_8,0.650135191914,,,2017_Mar_16_1222,60.0036566744,MAFE4ImagesEEG,001,200049,
AFNE01.JPG,AFNE01.JPG,AFNE01.JPG,AFNE01.JPG,AFNE01.JPG,AFNE01.JPG,,,,,,,,,,,,,,,,,,,,,2,1,21,3,,,AFNE14.jpg,AFNE12.jpg,AFSA12.jpg,AFSA06.jpg,AFNE12.jpg,FN,3,num_6,32,num_2,0.616838850605,,,2017_Mar_16_1222,60.0036566744,MAFE4ImagesEEG,001,200049,
AFNE01.JPG,AFNE01.JPG,AFNE01.JPG,AFNE01.JPG,AFNE01.JPG,AFNE01.JPG,,,,,,,,,,,,,,,,,,,,,2,2,22,7,,,AFNE08.jpg,AFSA16.jpg,AFSA11.jpg,AFNE02.jpg,AFSA16.jpg,FS,4,num_6,32,num_8,0.633479804615,,,2017_Mar_16_1222,60.0036566744,MAFE4ImagesEEG,001,200049,
AFNE01.JPG,AFNE01.JPG,AFNE01.JPG,AFNE01.JPG,AFNE01.JPG,AFNE01.JPG,,,,,,,,,,,,,,,,,,,,,2,3,23,0,,,AFSA13.jpg,AFSA18.jpg,AFNE08.jpg,AFNE06.jpg,AFNE08.jpg,FN,3,num_2,32,num_4,0.650107929017,,,2017_Mar_16_1222,60.0036566744,MAFE4ImagesEEG,001,200049,
AFNE01.JPG,AFNE01.JPG,AFNE01.JPG,AFNE01.JPG,AFNE01.JPG,AFNE01.JPG,,,,,,,,,,,,,,,,,,,,,2,4,24,4,,,AFNE14.jpg,AFSA12.jpg,AFNE02.jpg,AFSA09.jpg,AFSA09.jpg,FS,4,num_4,32,num_8,0.966788654798,,,2017_Mar_16_1222,60.0036566744,MAFE4ImagesEEG,001,200049,
AFNE01.JPG,AFNE01.JPG,AFNE01.JPG,AFNE01.JPG,AFNE01.JPG,AFNE01.JPG,,,,,,,,,,,,,,,,,,,,,2,5,25,9,,,AFNE13.jpg,AFSA11.jpg,AFSA15.jpg,AFNE15.jpg,AFSA11.jpg,FS,4,num_6,16,num_6,0.950143851864,,,2017_Mar_16_1222,60.0036566744,MAFE4ImagesEEG,001,200049,
AFNE01.JPG,AFNE01.JPG,AFNE01.JPG,AFNE01.JPG,AFNE01.JPG,AFNE01.JPG,,,,,,,,,,,,,,,,,,,,,2,6,26,2,,,AFNE12.jpg,AFNE15.jpg,AFSA16.jpg,AFSA05.jpg,AFNE12.jpg,FN,3,num_8,32,num_2,0.933414373663,,,2017_Mar_16_1222,60.0036566744,MAFE4ImagesEEG,001,200049,
AFNE01.JPG,AFNE01.JPG,AFNE01.JPG,AFNE01.JPG,AFNE01.JPG,AFNE01.JPG,,,,,,,,,,,,,,,,,,,,,2,7,27,6,,,AFNE16.jpg,AFSA02.jpg,AFSA01.jpg,AFNE07.jpg,AFNE07.jpg,FN,3,num_4,16,num_4,0.550164058513,,,2017_Mar_16_1222,60.0036566744,MAFE4ImagesEEG,001,200049,
AFNE01.JPG,AFNE01.JPG,AFNE01.JPG,AFNE01.JPG,AFNE01.JPG,AFNE01.JPG,,,,,,,,,,,,,,,,,,,,,2,8,28,1,,,AFSA16.jpg,AFNE06.jpg,AFSA15.jpg,AFNE08.jpg,AFNE08.jpg,FN,3,num_4,16,num_4,0.666813031014,,,2017_Mar_16_1222,60.0036566744,MAFE4ImagesEEG,001,200049,
AFNE01.JPG,AFNE01.JPG,AFNE01.JPG,AFNE01.JPG,AFNE01.JPG,AFNE01.JPG,,,,,,,,,,,,,,,,,,,,,2,9,29,8,,,AFSA13.jpg,AFSA15.jpg,AFNE01.jpg,AFNE06.jpg,AFSA15.jpg,FS,4,num_6,32,num_8,0.350067515799,,,2017_Mar_16_1222,60.0036566744,MAFE4ImagesEEG,001,200049,
AFNE01.JPG,AFNE01.JPG,AFNE01.JPG,AFNE01.JPG,AFNE01.JPG,AFNE01.JPG,,,,,,,,,,,,,,,,,,,,,3,0,30,2,,,AFNE16.jpg,AFSA06.jpg,AFSA09.jpg,AFNE19.jpg,AFSA09.jpg,FS,4,num_2,32,num_8,0.916761872999,,,2017_Mar_16_1222,60.0036566744,MAFE4ImagesEEG,001,200049,
AFNE01.JPG,AFNE01.JPG,AFNE01.JPG,AFNE01.JPG,AFNE01.JPG,AFNE01.JPG,,,,,,,,,,,,,,,,,,,,,3,1,31,0,,,AFSA08.jpg,AFSA01.jpg,AFNE16.jpg,AFNE08.jpg,AFSA08.jpg,FS,4,num_8,32,num_4,0.91687381122,,,2017_Mar_16_1222,60.0036566744,MAFE4ImagesEEG,001,200049,
AFNE01.JPG,AFNE01.JPG,AFNE01.JPG,AFNE01.JPG,AFNE01.JPG,AFNE01.JPG,,,,,,,,,,,,,,,,,,,,,3,2,32,9,,,AFNE09.jpg,AFSA11.jpg,AFSA05.jpg,AFNE14.jpg,AFSA05.jpg,FS,4,num_2,32,num_6,0.900078260573,,,2017_Mar_16_1222,60.0036566744,MAFE4ImagesEEG,001,200049,
AFNE01.JPG,AFNE01.JPG,AFNE01.JPG,AFNE01.JPG,AFNE01.JPG,AFNE01.JPG,,,,,,,,,,,,,,,,,,,,,3,3,33,3,,,AFNE01.jpg,AFSA18.jpg,AFNE11.jpg,AFSA04.jpg,AFSA04.jpg,FS,4,num_4,32,num_6,1.66668698017,,,2017_Mar_16_1222,60.0036566744,MAFE4ImagesEEG,001,200049,
AFNE01.JPG,AFNE01.JPG,AFNE01.JPG,AFNE01.JPG,AFNE01.JPG,AFNE01.JPG,,,,,,,,,,,,,,,,,,,,,3,4,34,4,,,AFNE11.jpg,AFSA14.jpg,AFSA17.jpg,AFNE13.jpg,AFNE13.jpg,FN,3,num_4,32,num_8,1.31674487382,,,2017_Mar_16_1222,60.0036566744,MAFE4ImagesEEG,001,200049,
AFNE01.JPG,AFNE01.JPG,AFNE01.JPG,AFNE01.JPG,AFNE01.JPG,AFNE01.JPG,,,,,,,,,,,,,,,,,,,,,3,5,35,5,,,AFSA01.jpg,AFNE11.jpg,AFSA08.jpg,AFNE12.jpg,AFSA01.jpg,FS,4,num_8,32,num_2,0.450185868831,,,2017_Mar_16_1222,60.0036566744,MAFE4ImagesEEG,001,200049,
AFNE01.JPG,AFNE01.JPG,AFNE01.JPG,AFNE01.JPG,AFNE01.JPG,AFNE01.JPG,,,,,,,,,,,,,,,,,,,,,3,6,36,1,,,AFSA05.jpg,AFNE10.jpg,AFSA18.jpg,AFNE15.jpg,AFNE15.jpg,FN,3,num_4,32,num_8,1.18344468356,,,2017_Mar_16_1222,60.0036566744,MAFE4ImagesEEG,001,200049,
AFNE01.JPG,AFNE01.JPG,AFNE01.JPG,AFNE01.JPG,AFNE01.JPG,AFNE01.JPG,,,,,,,,,,,,,,,,,,,,,3,7,37,8,,,AFNE09.jpg,AFNE05.jpg,AFSA19.jpg,AFSA11.jpg,AFSA19.jpg,FS,4,num_2,32,num_8,0.933468578674,,,2017_Mar_16_1222,60.0036566744,MAFE4ImagesEEG,001,200049,
AFNE01.JPG,AFNE01.JPG,AFNE01.JPG,AFNE01.JPG,AFNE01.JPG,AFNE01.JPG,,,,,,,,,,,,,,,,,,,,,3,8,38,7,,,AFSA14.jpg,AFNE01.jpg,AFSA13.jpg,AFNE11.jpg,AFSA13.jpg,FS,4,num_2,32,num_6,0.400181538833,,,2017_Mar_16_1222,60.0036566744,MAFE4ImagesEEG,001,200049,
