IPosition2,IPosition3,IPosition1,IPosition6,IPosition4,IPosition5,TrialsM1.thisRepN,TrialsM1.thisTrialN,TrialsM1.thisN,TrialsM1.thisIndex,TrialsF1.thisRepN,TrialsF1.thisTrialN,TrialsF1.thisN,TrialsF1.thisIndex,TrialsM2.thisRepN,TrialsM2.thisTrialN,TrialsM2.thisN,TrialsM2.thisIndex,TrialsF2.thisRepN,TrialsF2.thisTrialN,TrialsF2.thisN,TrialsF2.thisIndex,TrialsM3.thisRepN,TrialsM3.thisTrialN,TrialsM3.thisN,TrialsM3.thisIndex,TrialsF3.thisRepN,TrialsF3.thisTrialN,TrialsF3.thisN,TrialsF3.thisIndex,InstrKey_resp.keys,InstrKey_resp.rt,Image0 _Position,Image1 _Position,Image2 _Position,Image3 _Position,Center_image,condition,code,correct_answer,accuracy,Key_Resp.keys,Key_Resp.rt,BreakKey_resp.keys,BreakKey_resp.rt,date,frameRate,expName,session,participant,
,,,,,,,,,,,,,,,,,,,,,,,,,,,,,,space,17.3492281238,,,,,,,,,,,,,,2017_Mar_23_1733,60.0146870472,MAFE4ImagesEEG,001,200072,
AFNE22.JPG,AFSA24.JPG,AFSA22.JPG,AFNE25.JPG,AFNE24.JPG,AFSA25.JPG,0,0,0,6,,,,,,,,,,,,,,,,,,,,,,,AMSA19.jpg,AMSA18.jpg,AMNE15.jpg,AMNE05.jpg,AMNE15.jpg,MN,1,num_2,32,num_4,1.35011015803,,,2017_Mar_23_1733,60.0146870472,MAFE4ImagesEEG,001,200072,
AMSA25.JPG,AMNE24.JPG,AMSA24.JPG,AMNE26.JPG,AMSA21.JPG,AMNE25.JPG,0,1,1,3,,,,,,,,,,,,,,,,,,,,,,,AMNE02.jpg,AMSA09.jpg,AMNE20.jpg,AMSA01.jpg,AMNE02.jpg,MN,1,num_8,16,num_8,1.98338375898,,,2017_Mar_23_1733,60.0146870472,MAFE4ImagesEEG,001,200072,
AMSA21.JPG,AMNE22.JPG,AMNE21.JPG,AMSA23.JPG,AMSA22.JPG,AMNE23.JPG,0,2,2,1,,,,,,,,,,,,,,,,,,,,,,,AMNE18.jpg,AMNE06.jpg,AMSA02.jpg,AMSA13.jpg,AMSA02.jpg,MS,2,num_2,16,num_2,0.916749764991,,,2017_Mar_23_1733,60.0146870472,MAFE4ImagesEEG,001,200072,
AMSA21.JPG,AMNE23.JPG,AMNE21.JPG,AMSA25.JPG,AMNE25.JPG,AMSA23.JPG,0,3,3,5,,,,,,,,,,,,,,,,,,,,,,,AMNE12.jpg,AMSA09.jpg,AMSA12.jpg,AMNE05.jpg,AMNE12.jpg,MN,1,num_8,32,num_4,1.80013329937,,,2017_Mar_23_1733,60.0146870472,MAFE4ImagesEEG,001,200072,
AMNE22.JPG,AMSA24.JPG,AMSA22.JPG,AMNE25.JPG,AMNE24.JPG,AMSA25.JPG,0,4,4,7,,,,,,,,,,,,,,,,,,,,,,,AMNE18.jpg,AMNE07.jpg,AMSA10.jpg,AMSA12.jpg,AMSA10.jpg,MS,2,num_2,32,num_4,1.38345137087,,,2017_Mar_23_1733,60.0146870472,MAFE4ImagesEEG,001,200072,
AFSA25.JPG,AFNE24.JPG,AFSA24.JPG,AFNE21.JPG,AFSA21.JPG,AFNE25.JPG,0,5,5,2,,,,,,,,,,,,,,,,,,,,,,,AMSA07.jpg,AMNE11.jpg,AMNE19.jpg,AMSA14.jpg,AMNE19.jpg,MN,1,num_2,32,num_6,2.01643021201,,,2017_Mar_23_1733,60.0146870472,MAFE4ImagesEEG,001,200072,
AFNE23.JPG,AFNE24.JPG,AFNE22.JPG,AFSA24.JPG,AFSA22.JPG,AFSA23.JPG,0,6,6,8,,,,,,,,,,,,,,,,,,,,,,,AMSA12.jpg,AMNE07.jpg,AMNE18.jpg,AMSA14.jpg,AMSA14.jpg,MS,2,num_4,16,num_4,1.05013514368,,,2017_Mar_23_1733,60.0146870472,MAFE4ImagesEEG,001,200072,
AMNE23.JPG,AMNE24.JPG,AMNE22.JPG,AMSA24.JPG,AMSA22.JPG,AMSA23.JPG,0,7,7,9,,,,,,,,,,,,,,,,,,,,,,,AMSA05.jpg,AMSA18.jpg,AMNE10.jpg,AMNE14.jpg,AMSA05.jpg,MS,2,num_8,16,num_8,1.75006166217,,,2017_Mar_23_1733,60.0146870472,MAFE4ImagesEEG,001,200072,
AFSA21.JPG,AFNE22.JPG,AFNE21.JPG,AFSA23.JPG,AFSA22.JPG,AFNE23.JPG,0,8,8,0,,,,,,,,,,,,,,,,,,,,,,,AMSA04.jpg,AMSA12.jpg,AMNE11.jpg,AMNE04.jpg,AMNE11.jpg,MN,1,num_2,16,num_2,1.41707226873,,,2017_Mar_23_1733,60.0146870472,MAFE4ImagesEEG,001,200072,
AFSA21.JPG,AFNE23.JPG,AFNE21.JPG,AFSA25.JPG,AFNE25.JPG,AFSA23.JPG,0,9,9,4,,,,,,,,,,,,,,,,,,,,,,,AMSA03.jpg,AMSA19.jpg,AMNE04.jpg,AMNE15.jpg,AMSA03.jpg,MS,2,num_8,16,num_8,0.916767726419,,,2017_Mar_23_1733,60.0146870472,MAFE4ImagesEEG,001,200072,
AFSA25.JPG,AFNE24.JPG,AFSA24.JPG,AFNE21.JPG,AFSA21.JPG,AFNE25.JPG,,,,,0,0,0,2,,,,,,,,,,,,,,,,,,,AFSA06.jpg,AFSA14.jpg,AFNE07.jpg,AFNE12.jpg,AFSA06.jpg,FS,4,num_8,16,num_8,1.13352137234,,,2017_Mar_23_1733,60.0146870472,MAFE4ImagesEEG,001,200072,
AFNE23.JPG,AFNE24.JPG,AFNE22.JPG,AFSA24.JPG,AFSA22.JPG,AFSA23.JPG,,,,,0,1,1,8,,,,,,,,,,,,,,,,,,,AFNE20.jpg,AFNE02.jpg,AFSA19.jpg,AFSA10.jpg,AFNE20.jpg,FN,3,num_8,16,num_8,1.46674009471,,,2017_Mar_23_1733,60.0146870472,MAFE4ImagesEEG,001,200072,
AFNE22.JPG,AFSA24.JPG,AFSA22.JPG,AFNE25.JPG,AFNE24.JPG,AFSA25.JPG,,,,,0,2,2,6,,,,,,,,,,,,,,,,,,,AFNE03.jpg,AFSA18.jpg,AFSA05.jpg,AFNE15.jpg,AFSA05.jpg,FS,4,num_2,16,num_2,0.950137164327,,,2017_Mar_23_1733,60.0146870472,MAFE4ImagesEEG,001,200072,
AMSA21.JPG,AMNE23.JPG,AMNE21.JPG,AMSA25.JPG,AMNE25.JPG,AMSA23.JPG,,,,,0,3,3,5,,,,,,,,,,,,,,,,,,,AFSA09.jpg,AFSA02.jpg,AFNE19.jpg,AFNE20.jpg,AFNE19.jpg,FN,3,num_2,32,num_4,1.55010419228,,,2017_Mar_23_1733,60.0146870472,MAFE4ImagesEEG,001,200072,
AMSA25.JPG,AMNE24.JPG,AMSA24.JPG,AMNE26.JPG,AMSA21.JPG,AMNE25.JPG,,,,,0,4,4,3,,,,,,,,,,,,,,,,,,,AFSA16.jpg,AFSA02.jpg,AFNE12.jpg,AFNE02.jpg,AFSA16.jpg,FS,4,num_8,16,num_8,1.60007640021,,,2017_Mar_23_1733,60.0146870472,MAFE4ImagesEEG,001,200072,
AMNE23.JPG,AMNE24.JPG,AMNE22.JPG,AMSA24.JPG,AMSA22.JPG,AMSA23.JPG,,,,,0,5,5,9,,,,,,,,,,,,,,,,,,,AFSA15.jpg,AFSA14.jpg,AFNE09.jpg,AFNE07.jpg,AFSA15.jpg,FS,4,num_8,16,num_8,0.66677293845,,,2017_Mar_23_1733,60.0146870472,MAFE4ImagesEEG,001,200072,
AFSA21.JPG,AFNE23.JPG,AFNE21.JPG,AFSA25.JPG,AFNE25.JPG,AFSA23.JPG,,,,,0,6,6,4,,,,,,,,,,,,,,,,,,,AFNE13.jpg,AFSA13.jpg,AFNE09.jpg,AFSA07.jpg,AFNE09.jpg,FN,3,num_2,32,num_4,2.18335694511,,,2017_Mar_23_1733,60.0146870472,MAFE4ImagesEEG,001,200072,
AMNE22.JPG,AMSA24.JPG,AMSA22.JPG,AMNE25.JPG,AMNE24.JPG,AMSA25.JPG,,,,,0,7,7,7,,,,,,,,,,,,,,,,,,,AFSA17.jpg,AFNE17.jpg,AFSA02.jpg,AFNE03.jpg,AFNE17.jpg,FN,3,num_6,32,num_8,1.45011198625,,,2017_Mar_23_1733,60.0146870472,MAFE4ImagesEEG,001,200072,
AMSA21.JPG,AMNE22.JPG,AMNE21.JPG,AMSA23.JPG,AMSA22.JPG,AMNE23.JPG,,,,,0,8,8,1,,,,,,,,,,,,,,,,,,,AFNE05.jpg,AFNE15.jpg,AFSA07.jpg,AFSA09.jpg,AFNE05.jpg,FN,3,num_8,32,num_4,1.61673786555,,,2017_Mar_23_1733,60.0146870472,MAFE4ImagesEEG,001,200072,
AFSA21.JPG,AFNE22.JPG,AFNE21.JPG,AFSA23.JPG,AFSA22.JPG,AFNE23.JPG,,,,,0,9,9,0,,,,,,,,,,,,,,,,,,,AFNE10.jpg,AFSA15.jpg,AFNE18.jpg,AFSA20.jpg,AFSA20.jpg,FS,4,num_4,32,num_8,1.2334683541,,,2017_Mar_23_1733,60.0146870472,MAFE4ImagesEEG,001,200072,
AMNE22.JPG,AMSA24.JPG,AMSA22.JPG,AMNE25.JPG,AMNE24.JPG,AMSA25.JPG,,,,,,,,,0,0,0,7,,,,,,,,,,,,,,,AMSA17.jpg,AMNE01.jpg,AMSA07.jpg,AMNE11.jpg,AMNE11.jpg,MN,1,num_4,32,num_8,1.94999283145,,,2017_Mar_23_1733,60.0146870472,MAFE4ImagesEEG,001,200072,
AFSA25.JPG,AFNE24.JPG,AFSA24.JPG,AFNE21.JPG,AFSA21.JPG,AFNE25.JPG,,,,,,,,,0,1,1,2,,,,,,,,,,,,,,,AMNE09.jpg,AMNE12.jpg,AMSA02.jpg,AMSA17.jpg,AMSA02.jpg,MS,2,num_2,16,num_2,1.01672946219,,,2017_Mar_23_1733,60.0146870472,MAFE4ImagesEEG,001,200072,
AFNE23.JPG,AFNE24.JPG,AFNE22.JPG,AFSA24.JPG,AFSA22.JPG,AFSA23.JPG,,,,,,,,,0,2,2,8,,,,,,,,,,,,,,,AMSA14.jpg,AMNE13.jpg,AMSA10.jpg,AMNE03.jpg,AMSA10.jpg,MS,2,num_2,32,num_4,1.98341358779,,,2017_Mar_23_1733,60.0146870472,MAFE4ImagesEEG,001,200072,
AMSA21.JPG,AMNE22.JPG,AMNE21.JPG,AMSA23.JPG,AMSA22.JPG,AMNE23.JPG,,,,,,,,,0,3,3,1,,,,,,,,,,,,,,,AMNE15.jpg,AMSA08.jpg,AMNE19.jpg,AMSA07.jpg,AMNE19.jpg,MN,1,num_2,32,num_6,1.06677608169,,,2017_Mar_23_1733,60.0146870472,MAFE4ImagesEEG,001,200072,
AFSA21.JPG,AFNE23.JPG,AFNE21.JPG,AFSA25.JPG,AFNE25.JPG,AFSA23.JPG,,,,,,,,,0,4,4,4,,,,,,,,,,,,,,,AMNE06.jpg,AMSA17.jpg,AMSA10.jpg,AMNE13.jpg,AMNE06.jpg,MN,1,num_8,16,num_8,0.750129979744,,,2017_Mar_23_1733,60.0146870472,MAFE4ImagesEEG,001,200072,
AFSA21.JPG,AFNE22.JPG,AFNE21.JPG,AFSA23.JPG,AFSA22.JPG,AFNE23.JPG,,,,,,,,,0,5,5,0,,,,,,,,,,,,,,,AMSA09.jpg,AMNE18.jpg,AMNE06.jpg,AMSA03.jpg,AMNE06.jpg,MN,1,num_2,32,num_4,1.20012168866,,,2017_Mar_23_1733,60.0146870472,MAFE4ImagesEEG,001,200072,
AMSA25.JPG,AMNE24.JPG,AMSA24.JPG,AMNE26.JPG,AMSA21.JPG,AMNE25.JPG,,,,,,,,,0,6,6,3,,,,,,,,,,,,,,,AMSA04.jpg,AMNE05.jpg,AMNE11.jpg,AMSA18.jpg,AMSA18.jpg,MS,2,num_4,32,num_8,1.58341493487,,,2017_Mar_23_1733,60.0146870472,MAFE4ImagesEEG,001,200072,
AMNE23.JPG,AMNE24.JPG,AMNE22.JPG,AMSA24.JPG,AMSA22.JPG,AMSA23.JPG,,,,,,,,,0,7,7,9,,,,,,,,,,,,,,,AMSA08.jpg,AMSA13.jpg,AMNE17.jpg,AMNE01.jpg,AMNE01.jpg,MN,1,num_4,16,num_4,1.56671337708,,,2017_Mar_23_1733,60.0146870472,MAFE4ImagesEEG,001,200072,
AFNE22.JPG,AFSA24.JPG,AFSA22.JPG,AFNE25.JPG,AFNE24.JPG,AFSA25.JPG,,,,,,,,,0,8,8,6,,,,,,,,,,,,,,,AMNE20.jpg,AMSA05.jpg,AMSA17.jpg,AMNE08.jpg,AMNE20.jpg,MN,1,num_8,32,num_4,1.8334475701,,,2017_Mar_23_1733,60.0146870472,MAFE4ImagesEEG,001,200072,
AMSA21.JPG,AMNE23.JPG,AMNE21.JPG,AMSA25.JPG,AMNE25.JPG,AMSA23.JPG,,,,,,,,,0,9,9,5,,,,,,,,,,,,,,,AMNE16.jpg,AMSA11.jpg,AMNE13.jpg,AMSA07.jpg,AMNE13.jpg,MN,1,num_2,32,num_8,0.916772537515,,,2017_Mar_23_1733,60.0146870472,MAFE4ImagesEEG,001,200072,
AFSA21.JPG,AFNE22.JPG,AFNE21.JPG,AFSA23.JPG,AFSA22.JPG,AFNE23.JPG,,,,,,,,,,,,,0,0,0,0,,,,,,,,,,,AFNE02.jpg,AFNE08.jpg,AFSA20.jpg,AFSA09.jpg,AFSA20.jpg,FS,4,num_2,16,num_2,1.95006756386,,,2017_Mar_23_1733,60.0146870472,MAFE4ImagesEEG,001,200072,
AFSA25.JPG,AFNE24.JPG,AFSA24.JPG,AFNE21.JPG,AFSA21.JPG,AFNE25.JPG,,,,,,,,,,,,,0,1,1,2,,,,,,,,,,,AFNE19.jpg,AFSA20.jpg,AFNE10.jpg,AFSA13.jpg,AFSA13.jpg,FS,4,num_4,32,num_8,1.63339067093,,,2017_Mar_23_1733,60.0146870472,MAFE4ImagesEEG,001,200072,
AFNE23.JPG,AFNE24.JPG,AFNE22.JPG,AFSA24.JPG,AFSA22.JPG,AFSA23.JPG,,,,,,,,,,,,,0,2,2,8,,,,,,,,,,,AFNE12.jpg,AFSA18.jpg,AFSA09.jpg,AFNE17.jpg,AFSA09.jpg,FS,4,num_2,16,num_2,0.9167882537,,,2017_Mar_23_1733,60.0146870472,MAFE4ImagesEEG,001,200072,
AMSA25.JPG,AMNE24.JPG,AMSA24.JPG,AMNE26.JPG,AMSA21.JPG,AMNE25.JPG,,,,,,,,,,,,,0,3,3,3,,,,,,,,,,,AFNE20.jpg,AFSA01.jpg,AFNE08.jpg,AFSA02.jpg,AFSA02.jpg,FS,4,num_4,16,num_4,0.9667771401,,,2017_Mar_23_1733,60.0146870472,MAFE4ImagesEEG,001,200072,
AMSA21.JPG,AMNE22.JPG,AMNE21.JPG,AMSA23.JPG,AMSA22.JPG,AMNE23.JPG,,,,,,,,,,,,,0,4,4,1,,,,,,,,,,,AFSA20.jpg,AFSA17.jpg,AFNE03.jpg,AFNE05.jpg,AFSA17.jpg,FS,4,num_6,32,num_4,0.866749973444,,,2017_Mar_23_1733,60.0146870472,MAFE4ImagesEEG,001,200072,
AFSA21.JPG,AFNE23.JPG,AFNE21.JPG,AFSA25.JPG,AFNE25.JPG,AFSA23.JPG,,,,,,,,,,,,,0,5,5,4,,,,,,,,,,,AFSA18.jpg,AFNE10.jpg,AFNE20.jpg,AFSA19.jpg,AFNE10.jpg,FN,3,num_6,16,num_6,1.11672455486,,,2017_Mar_23_1733,60.0146870472,MAFE4ImagesEEG,001,200072,
AMSA21.JPG,AMNE23.JPG,AMNE21.JPG,AMSA25.JPG,AMNE25.JPG,AMSA23.JPG,,,,,,,,,,,,,0,6,6,5,,,,,,,,,,,AFNE14.jpg,AFNE20.jpg,AFSA20.jpg,AFSA15.jpg,AFNE20.jpg,FN,3,num_6,16,num_6,1.66673092148,,,2017_Mar_23_1733,60.0146870472,MAFE4ImagesEEG,001,200072,
AFNE22.JPG,AFSA24.JPG,AFSA22.JPG,AFNE25.JPG,AFNE24.JPG,AFSA25.JPG,,,,,,,,,,,,,0,7,7,6,,,,,,,,,,,AFSA08.jpg,AFSA07.jpg,AFNE16.jpg,AFNE08.jpg,AFSA08.jpg,FS,4,num_8,16,num_8,2.76665545144,,,2017_Mar_23_1733,60.0146870472,MAFE4ImagesEEG,001,200072,
AMNE22.JPG,AMSA24.JPG,AMSA22.JPG,AMNE25.JPG,AMNE24.JPG,AMSA25.JPG,,,,,,,,,,,,,0,8,8,7,,,,,,,,,,,AFSA03.jpg,AFSA09.jpg,AFNE03.jpg,AFNE04.jpg,AFNE03.jpg,FN,3,num_2,32,num_8,1.40010257257,,,2017_Mar_23_1733,60.0146870472,MAFE4ImagesEEG,001,200072,
AMNE23.JPG,AMNE24.JPG,AMNE22.JPG,AMSA24.JPG,AMSA22.JPG,AMSA23.JPG,,,,,,,,,,,,,0,9,9,9,,,,,,,,,,,AFNE15.jpg,AFSA08.jpg,AFSA02.jpg,AFNE14.jpg,AFNE14.jpg,FN,3,num_4,16,num_4,0.900223651843,,,2017_Mar_23_1733,60.0146870472,MAFE4ImagesEEG,001,200072,
AMSA21.JPG,AMNE22.JPG,AMNE21.JPG,AMSA23.JPG,AMSA22.JPG,AMNE23.JPG,,,,,,,,,,,,,,,,,0,0,0,1,,,,,,,AMSA10.jpg,AMNE17.jpg,AMNE12.jpg,AMSA02.jpg,AMSA10.jpg,MS,2,num_8,16,num_8,0.783498776203,,,2017_Mar_23_1733,60.0146870472,MAFE4ImagesEEG,001,200072,
AFNE23.JPG,AFNE24.JPG,AFNE22.JPG,AFSA24.JPG,AFSA22.JPG,AFSA23.JPG,,,,,,,,,,,,,,,,,0,1,1,8,,,,,,,AMNE17.jpg,AMSA11.jpg,AMSA10.jpg,AMNE11.jpg,AMSA10.jpg,MS,2,num_2,16,num_2,0.716783314361,,,2017_Mar_23_1733,60.0146870472,MAFE4ImagesEEG,001,200072,
AMSA25.JPG,AMNE24.JPG,AMSA24.JPG,AMNE26.JPG,AMSA21.JPG,AMNE25.JPG,,,,,,,,,,,,,,,,,0,2,2,3,,,,,,,AMNE16.jpg,AMNE08.jpg,AMSA08.jpg,AMSA01.jpg,AMNE08.jpg,MN,1,num_6,32,num_2,0.71676086256,,,2017_Mar_23_1733,60.0146870472,MAFE4ImagesEEG,001,200072,
AFSA25.JPG,AFNE24.JPG,AFSA24.JPG,AFNE21.JPG,AFSA21.JPG,AFNE25.JPG,,,,,,,,,,,,,,,,,0,3,3,2,,,,,,,AMSA16.jpg,AMNE19.jpg,AMSA19.jpg,AMNE12.jpg,AMNE19.jpg,MN,1,num_6,32,num_4,1.05009184382,,,2017_Mar_23_1733,60.0146870472,MAFE4ImagesEEG,001,200072,
AMNE23.JPG,AMNE24.JPG,AMNE22.JPG,AMSA24.JPG,AMSA22.JPG,AMSA23.JPG,,,,,,,,,,,,,,,,,0,4,4,9,,,,,,,AMNE20.jpg,AMSA15.jpg,AMSA18.jpg,AMNE15.jpg,AMNE15.jpg,MN,1,num_4,16,num_4,1.06677159132,,,2017_Mar_23_1733,60.0146870472,MAFE4ImagesEEG,001,200072,
AMSA21.JPG,AMNE23.JPG,AMNE21.JPG,AMSA25.JPG,AMNE25.JPG,AMSA23.JPG,,,,,,,,,,,,,,,,,0,5,5,5,,,,,,,AMNE07.jpg,AMSA08.jpg,AMNE05.jpg,AMSA02.jpg,AMNE07.jpg,MN,1,num_8,16,num_8,1.16680870095,,,2017_Mar_23_1733,60.0146870472,MAFE4ImagesEEG,001,200072,
AFSA21.JPG,AFNE23.JPG,AFNE21.JPG,AFSA25.JPG,AFNE25.JPG,AFSA23.JPG,,,,,,,,,,,,,,,,,0,6,6,4,,,,,,,AMNE03.jpg,AMSA12.jpg,AMNE06.jpg,AMSA07.jpg,AMSA07.jpg,MS,2,num_4,32,num_8,1.15010586014,,,2017_Mar_23_1733,60.0146870472,MAFE4ImagesEEG,001,200072,
AFNE22.JPG,AFSA24.JPG,AFSA22.JPG,AFNE25.JPG,AFNE24.JPG,AFSA25.JPG,,,,,,,,,,,,,,,,,0,7,7,6,,,,,,,AMSA06.jpg,AMNE16.jpg,AMSA01.jpg,AMNE13.jpg,AMSA01.jpg,MS,2,num_2,32,num_4,1.33345895639,,,2017_Mar_23_1733,60.0146870472,MAFE4ImagesEEG,001,200072,
AFSA21.JPG,AFNE22.JPG,AFNE21.JPG,AFSA23.JPG,AFSA22.JPG,AFNE23.JPG,,,,,,,,,,,,,,,,,0,8,8,0,,,,,,,AMNE14.jpg,AMSA07.jpg,AMNE02.jpg,AMSA13.jpg,AMNE14.jpg,MN,1,num_8,16,num_8,1.40008332819,,,2017_Mar_23_1733,60.0146870472,MAFE4ImagesEEG,001,200072,
AMNE22.JPG,AMSA24.JPG,AMSA22.JPG,AMNE25.JPG,AMNE24.JPG,AMSA25.JPG,,,,,,,,,,,,,,,,,0,9,9,7,,,,,,,AMSA02.jpg,AMNE07.jpg,AMSA17.jpg,AMNE18.jpg,AMSA17.jpg,MS,2,num_2,32,num_4,1.60008666385,,,2017_Mar_23_1733,60.0146870472,MAFE4ImagesEEG,001,200072,
AMSA21.JPG,AMNE22.JPG,AMNE21.JPG,AMSA23.JPG,AMSA22.JPG,AMNE23.JPG,,,,,,,,,,,,,,,,,,,,,0,0,0,1,,,AFSA18.jpg,AFNE10.jpg,AFNE13.jpg,AFSA06.jpg,AFNE10.jpg,FN,3,num_6,16,num_6,0.766815500567,,,2017_Mar_23_1733,60.0146870472,MAFE4ImagesEEG,001,200072,
AFSA25.JPG,AFNE24.JPG,AFSA24.JPG,AFNE21.JPG,AFSA21.JPG,AFNE25.JPG,,,,,,,,,,,,,,,,,,,,,0,1,1,2,,,AFNE17.jpg,AFNE10.jpg,AFSA18.jpg,AFSA19.jpg,AFNE10.jpg,FN,3,num_6,16,num_6,1.08344748995,,,2017_Mar_23_1733,60.0146870472,MAFE4ImagesEEG,001,200072,
AMNE23.JPG,AMNE24.JPG,AMNE22.JPG,AMSA24.JPG,AMSA22.JPG,AMSA23.JPG,,,,,,,,,,,,,,,,,,,,,0,2,2,9,,,AFSA13.jpg,AFNE17.jpg,AFSA19.jpg,AFNE10.jpg,AFSA13.jpg,FS,4,num_8,16,num_8,1.56670696224,,,2017_Mar_23_1733,60.0146870472,MAFE4ImagesEEG,001,200072,
AMNE22.JPG,AMSA24.JPG,AMSA22.JPG,AMNE25.JPG,AMNE24.JPG,AMSA25.JPG,,,,,,,,,,,,,,,,,,,,,0,3,3,7,,,AFSA07.jpg,AFSA20.jpg,AFNE13.jpg,AFNE03.jpg,AFSA20.jpg,FS,4,num_6,16,num_6,0.749980835768,,,2017_Mar_23_1733,60.0146870472,MAFE4ImagesEEG,001,200072,
AFNE22.JPG,AFSA24.JPG,AFSA22.JPG,AFNE25.JPG,AFNE24.JPG,AFSA25.JPG,,,,,,,,,,,,,,,,,,,,,0,4,4,6,,,AFSA05.jpg,AFSA04.jpg,AFNE01.jpg,AFNE06.jpg,AFSA05.jpg,FS,4,num_8,16,num_8,1.03346309398,,,2017_Mar_23_1733,60.0146870472,MAFE4ImagesEEG,001,200072,
AMSA21.JPG,AMNE23.JPG,AMNE21.JPG,AMSA25.JPG,AMNE25.JPG,AMSA23.JPG,,,,,,,,,,,,,,,,,,,,,0,5,5,5,,,AFSA12.jpg,AFSA18.jpg,AFNE02.jpg,AFNE08.jpg,AFNE02.jpg,FN,3,num_2,16,num_2,1.28344601457,,,2017_Mar_23_1733,60.0146870472,MAFE4ImagesEEG,001,200072,
AFSA21.JPG,AFNE22.JPG,AFNE21.JPG,AFSA23.JPG,AFSA22.JPG,AFNE23.JPG,,,,,,,,,,,,,,,,,,,,,0,6,6,0,,,AFSA02.jpg,AFNE17.jpg,AFNE04.jpg,AFSA09.jpg,AFSA09.jpg,FS,4,num_4,32,num_8,0.866760878591,,,2017_Mar_23_1733,60.0146870472,MAFE4ImagesEEG,001,200072,
AFNE23.JPG,AFNE24.JPG,AFNE22.JPG,AFSA24.JPG,AFSA22.JPG,AFSA23.JPG,,,,,,,,,,,,,,,,,,,,,0,7,7,8,,,AFSA09.jpg,AFNE04.jpg,AFSA12.jpg,AFNE20.jpg,AFSA09.jpg,FS,4,num_8,16,num_8,0.716358654958,,,2017_Mar_23_1733,60.0146870472,MAFE4ImagesEEG,001,200072,
AMSA25.JPG,AMNE24.JPG,AMSA24.JPG,AMNE26.JPG,AMSA21.JPG,AMNE25.JPG,,,,,,,,,,,,,,,,,,,,,0,8,8,3,,,AFNE18.jpg,AFSA19.jpg,AFNE17.jpg,AFSA03.jpg,AFSA03.jpg,FS,4,num_4,32,num_2,0.750136073795,,,2017_Mar_23_1733,60.0146870472,MAFE4ImagesEEG,001,200072,
AFSA21.JPG,AFNE23.JPG,AFNE21.JPG,AFSA25.JPG,AFNE25.JPG,AFSA23.JPG,,,,,,,,,,,,,,,,,,,,,0,9,9,4,,,AFNE13.jpg,AFSA16.jpg,AFNE19.jpg,AFSA02.jpg,AFSA02.jpg,FS,4,num_4,16,num_4,0.933469604934,,,2017_Mar_23_1733,60.0146870472,MAFE4ImagesEEG,001,200072,
,,,,,,,,,,,,,,,,,,,,,,,,,,,,,,,,,,,,,,,,,,,space,4.13319165196,2017_Mar_23_1733,60.0146870472,MAFE4ImagesEEG,001,200072,
AFNE01.JPG,AFNE01.JPG,AFNE01.JPG,AFNE01.JPG,AFNE01.JPG,AFNE01.JPG,0,0,0,4,,,,,,,,,,,,,,,,,,,,,,,AMNE02.jpg,AMSA08.jpg,AMSA18.jpg,AMNE05.jpg,AMNE05.jpg,MN,1,num_4,32,num_8,1.30011421541,,,2017_Mar_23_1733,60.0146870472,MAFE4ImagesEEG,001,200072,
AFNE01.JPG,AFNE01.JPG,AFNE01.JPG,AFNE01.JPG,AFNE01.JPG,AFNE01.JPG,0,1,1,2,,,,,,,,,,,,,,,,,,,,,,,AMSA12.jpg,AMNE16.jpg,AMNE02.jpg,AMSA07.jpg,AMSA07.jpg,MS,2,num_4,32,num_8,1.3834523331,,,2017_Mar_23_1733,60.0146870472,MAFE4ImagesEEG,001,200072,
AFNE01.JPG,AFNE01.JPG,AFNE01.JPG,AFNE01.JPG,AFNE01.JPG,AFNE01.JPG,0,2,2,3,,,,,,,,,,,,,,,,,,,,,,,AMSA01.jpg,AMNE08.jpg,AMSA13.jpg,AMNE03.jpg,AMSA01.jpg,MS,2,num_8,16,num_8,0.650027760072,,,2017_Mar_23_1733,60.0146870472,MAFE4ImagesEEG,001,200072,
AFNE01.JPG,AFNE01.JPG,AFNE01.JPG,AFNE01.JPG,AFNE01.JPG,AFNE01.JPG,0,3,3,6,,,,,,,,,,,,,,,,,,,,,,,AMNE17.jpg,AMNE13.jpg,AMSA17.jpg,AMSA04.jpg,AMNE13.jpg,MN,1,num_6,32,num_4,0.75011073536,,,2017_Mar_23_1733,60.0146870472,MAFE4ImagesEEG,001,200072,
AFNE01.JPG,AFNE01.JPG,AFNE01.JPG,AFNE01.JPG,AFNE01.JPG,AFNE01.JPG,0,4,4,1,,,,,,,,,,,,,,,,,,,,,,,AMSA11.jpg,AMNE19.jpg,AMSA04.jpg,AMNE03.jpg,AMSA11.jpg,MS,2,num_8,16,num_8,1.05011333339,,,2017_Mar_23_1733,60.0146870472,MAFE4ImagesEEG,001,200072,
AFNE01.JPG,AFNE01.JPG,AFNE01.JPG,AFNE01.JPG,AFNE01.JPG,AFNE01.JPG,0,5,5,9,,,,,,,,,,,,,,,,,,,,,,,AMNE03.jpg,AMSA12.jpg,AMNE20.jpg,AMSA01.jpg,AMSA12.jpg,MS,2,num_6,32,num_8,2.06670680194,,,2017_Mar_23_1733,60.0146870472,MAFE4ImagesEEG,001,200072,
AFNE01.JPG,AFNE01.JPG,AFNE01.JPG,AFNE01.JPG,AFNE01.JPG,AFNE01.JPG,0,6,6,8,,,,,,,,,,,,,,,,,,,,,,,AMSA13.jpg,AMNE19.jpg,AMSA02.jpg,AMNE14.jpg,AMSA13.jpg,MS,2,num_8,16,num_8,2.0000291873,,,2017_Mar_23_1733,60.0146870472,MAFE4ImagesEEG,001,200072,
AFNE01.JPG,AFNE01.JPG,AFNE01.JPG,AFNE01.JPG,AFNE01.JPG,AFNE01.JPG,0,7,7,7,,,,,,,,,,,,,,,,,,,,,,,AMNE11.jpg,AMSA20.jpg,AMSA06.jpg,AMNE10.jpg,AMNE10.jpg,MN,1,num_4,16,num_4,1.30008599034,,,2017_Mar_23_1733,60.0146870472,MAFE4ImagesEEG,001,200072,
AFNE01.JPG,AFNE01.JPG,AFNE01.JPG,AFNE01.JPG,AFNE01.JPG,AFNE01.JPG,0,8,8,5,,,,,,,,,,,,,,,,,,,,,,,AMSA18.jpg,AMSA05.jpg,AMNE05.jpg,AMNE03.jpg,AMNE03.jpg,MN,1,num_4,32,num_8,1.90007290413,,,2017_Mar_23_1733,60.0146870472,MAFE4ImagesEEG,001,200072,
AFNE01.JPG,AFNE01.JPG,AFNE01.JPG,AFNE01.JPG,AFNE01.JPG,AFNE01.JPG,0,9,9,0,,,,,,,,,,,,,,,,,,,,,,,AMNE09.jpg,AMSA09.jpg,AMSA06.jpg,AMNE06.jpg,AMSA06.jpg,MS,2,num_2,32,num_4,1.35040299338,,,2017_Mar_23_1733,60.0146870472,MAFE4ImagesEEG,001,200072,
AFNE01.JPG,AFNE01.JPG,AFNE01.JPG,AFNE01.JPG,AFNE01.JPG,AFNE01.JPG,1,0,10,8,,,,,,,,,,,,,,,,,,,,,,,AMSA12.jpg,AMNE09.jpg,AMNE06.jpg,AMSA08.jpg,AMSA08.jpg,MS,2,num_4,16,num_4,1.216657424,,,2017_Mar_23_1733,60.0146870472,MAFE4ImagesEEG,001,200072,
AFNE01.JPG,AFNE01.JPG,AFNE01.JPG,AFNE01.JPG,AFNE01.JPG,AFNE01.JPG,1,1,11,6,,,,,,,,,,,,,,,,,,,,,,,AMNE18.jpg,AMSA16.jpg,AMNE17.jpg,AMSA02.jpg,AMSA02.jpg,MS,2,num_4,16,num_4,1.26676594629,,,2017_Mar_23_1733,60.0146870472,MAFE4ImagesEEG,001,200072,
AFNE01.JPG,AFNE01.JPG,AFNE01.JPG,AFNE01.JPG,AFNE01.JPG,AFNE01.JPG,1,2,12,4,,,,,,,,,,,,,,,,,,,,,,,AMSA18.jpg,AMNE07.jpg,AMNE16.jpg,AMSA06.jpg,AMSA06.jpg,MS,2,num_4,32,num_8,1.43342229584,,,2017_Mar_23_1733,60.0146870472,MAFE4ImagesEEG,001,200072,
AFNE01.JPG,AFNE01.JPG,AFNE01.JPG,AFNE01.JPG,AFNE01.JPG,AFNE01.JPG,1,3,13,1,,,,,,,,,,,,,,,,,,,,,,,AMSA09.jpg,AMNE10.jpg,AMSA06.jpg,AMNE18.jpg,AMNE10.jpg,MN,1,num_6,16,num_6,1.03347848938,,,2017_Mar_23_1733,60.0146870472,MAFE4ImagesEEG,001,200072,
AFNE01.JPG,AFNE01.JPG,AFNE01.JPG,AFNE01.JPG,AFNE01.JPG,AFNE01.JPG,1,4,14,3,,,,,,,,,,,,,,,,,,,,,,,AMSA10.jpg,AMNE14.jpg,AMNE04.jpg,AMSA03.jpg,AMNE14.jpg,MN,1,num_6,16,num_6,0.683496948041,,,2017_Mar_23_1733,60.0146870472,MAFE4ImagesEEG,001,200072,
AFNE01.JPG,AFNE01.JPG,AFNE01.JPG,AFNE01.JPG,AFNE01.JPG,AFNE01.JPG,1,5,15,9,,,,,,,,,,,,,,,,,,,,,,,AMNE18.jpg,AMSA07.jpg,AMNE20.jpg,AMSA15.jpg,AMNE18.jpg,MN,1,num_8,16,num_8,1.25010031136,,,2017_Mar_23_1733,60.0146870472,MAFE4ImagesEEG,001,200072,
AFNE01.JPG,AFNE01.JPG,AFNE01.JPG,AFNE01.JPG,AFNE01.JPG,AFNE01.JPG,1,6,16,7,,,,,,,,,,,,,,,,,,,,,,,AMNE08.jpg,AMSA06.jpg,AMNE19.jpg,AMSA13.jpg,AMSA06.jpg,MS,2,num_6,16,num_6,1.90014474979,,,2017_Mar_23_1733,60.0146870472,MAFE4ImagesEEG,001,200072,
AFNE01.JPG,AFNE01.JPG,AFNE01.JPG,AFNE01.JPG,AFNE01.JPG,AFNE01.JPG,1,7,17,2,,,,,,,,,,,,,,,,,,,,,,,AMSA17.jpg,AMNE08.jpg,AMNE16.jpg,AMSA01.jpg,AMSA17.jpg,MS,2,num_8,32,num_4,1.1331990289,,,2017_Mar_23_1733,60.0146870472,MAFE4ImagesEEG,001,200072,
AFNE01.JPG,AFNE01.JPG,AFNE01.JPG,AFNE01.JPG,AFNE01.JPG,AFNE01.JPG,1,8,18,0,,,,,,,,,,,,,,,,,,,,,,,AMSA10.jpg,AMSA16.jpg,AMNE16.jpg,AMNE05.jpg,AMSA16.jpg,MS,2,num_6,16,num_6,1.09995596245,,,2017_Mar_23_1733,60.0146870472,MAFE4ImagesEEG,001,200072,
AFNE01.JPG,AFNE01.JPG,AFNE01.JPG,AFNE01.JPG,AFNE01.JPG,AFNE01.JPG,1,9,19,5,,,,,,,,,,,,,,,,,,,,,,,AMSA17.jpg,AMSA12.jpg,AMNE03.jpg,AMNE20.jpg,AMSA17.jpg,MS,2,num_8,32,num_4,0.666843501152,,,2017_Mar_23_1733,60.0146870472,MAFE4ImagesEEG,001,200072,
AFNE01.JPG,AFNE01.JPG,AFNE01.JPG,AFNE01.JPG,AFNE01.JPG,AFNE01.JPG,2,0,20,2,,,,,,,,,,,,,,,,,,,,,,,AMNE08.jpg,AMSA20.jpg,AMNE06.jpg,AMSA15.jpg,AMSA15.jpg,MS,2,num_4,32,num_6,1.58336714463,,,2017_Mar_23_1733,60.0146870472,MAFE4ImagesEEG,001,200072,
AFNE01.JPG,AFNE01.JPG,AFNE01.JPG,AFNE01.JPG,AFNE01.JPG,AFNE01.JPG,2,1,21,5,,,,,,,,,,,,,,,,,,,,,,,AMSA03.jpg,AMNE14.jpg,AMNE06.jpg,AMSA05.jpg,AMSA03.jpg,MS,2,num_8,32,num_2,1.20007646439,,,2017_Mar_23_1733,60.0146870472,MAFE4ImagesEEG,001,200072,
AFNE01.JPG,AFNE01.JPG,AFNE01.JPG,AFNE01.JPG,AFNE01.JPG,AFNE01.JPG,2,2,22,3,,,,,,,,,,,,,,,,,,,,,,,AMSA18.jpg,AMSA15.jpg,AMNE10.jpg,AMNE16.jpg,AMSA15.jpg,MS,2,num_6,16,num_6,1.01676698867,,,2017_Mar_23_1733,60.0146870472,MAFE4ImagesEEG,001,200072,
AFNE01.JPG,AFNE01.JPG,AFNE01.JPG,AFNE01.JPG,AFNE01.JPG,AFNE01.JPG,2,3,23,0,,,,,,,,,,,,,,,,,,,,,,,AMNE20.jpg,AMNE16.jpg,AMSA01.jpg,AMSA03.jpg,AMSA03.jpg,MS,2,num_4,32,num_8,1.00015042687,,,2017_Mar_23_1733,60.0146870472,MAFE4ImagesEEG,001,200072,
AFNE01.JPG,AFNE01.JPG,AFNE01.JPG,AFNE01.JPG,AFNE01.JPG,AFNE01.JPG,2,4,24,1,,,,,,,,,,,,,,,,,,,,,,,AMNE03.jpg,AMSA14.jpg,AMSA11.jpg,AMNE20.jpg,AMNE03.jpg,MN,1,num_8,16,num_8,0.916787291528,,,2017_Mar_23_1733,60.0146870472,MAFE4ImagesEEG,001,200072,
AFNE01.JPG,AFNE01.JPG,AFNE01.JPG,AFNE01.JPG,AFNE01.JPG,AFNE01.JPG,2,5,25,6,,,,,,,,,,,,,,,,,,,,,,,AMSA13.jpg,AMNE10.jpg,AMSA05.jpg,AMNE14.jpg,AMNE14.jpg,MN,1,num_4,32,num_8,2.18337394437,,,2017_Mar_23_1733,60.0146870472,MAFE4ImagesEEG,001,200072,
AFNE01.JPG,AFNE01.JPG,AFNE01.JPG,AFNE01.JPG,AFNE01.JPG,AFNE01.JPG,2,6,26,4,,,,,,,,,,,,,,,,,,,,,,,AMNE14.jpg,AMNE19.jpg,AMSA19.jpg,AMSA08.jpg,AMNE19.jpg,MN,1,num_6,16,num_6,1.48343203031,,,2017_Mar_23_1733,60.0146870472,MAFE4ImagesEEG,001,200072,
AFNE01.JPG,AFNE01.JPG,AFNE01.JPG,AFNE01.JPG,AFNE01.JPG,AFNE01.JPG,2,7,27,8,,,,,,,,,,,,,,,,,,,,,,,AMSA08.jpg,AMNE16.jpg,AMNE07.jpg,AMSA12.jpg,AMSA08.jpg,MS,2,num_8,16,num_8,0.750182260352,,,2017_Mar_23_1733,60.0146870472,MAFE4ImagesEEG,001,200072,
AFNE01.JPG,AFNE01.JPG,AFNE01.JPG,AFNE01.JPG,AFNE01.JPG,AFNE01.JPG,2,8,28,9,,,,,,,,,,,,,,,,,,,,,,,AMNE04.jpg,AMSA03.jpg,AMSA18.jpg,AMNE07.jpg,AMSA03.jpg,MS,2,num_6,16,num_6,1.11674187478,,,2017_Mar_23_1733,60.0146870472,MAFE4ImagesEEG,001,200072,
AFNE01.JPG,AFNE01.JPG,AFNE01.JPG,AFNE01.JPG,AFNE01.JPG,AFNE01.JPG,2,9,29,7,,,,,,,,,,,,,,,,,,,,,,,AMNE15.jpg,AMNE13.jpg,AMSA12.jpg,AMSA15.jpg,AMSA12.jpg,MS,2,num_2,32,num_4,1.16682281345,,,2017_Mar_23_1733,60.0146870472,MAFE4ImagesEEG,001,200072,
AFNE01.JPG,AFNE01.JPG,AFNE01.JPG,AFNE01.JPG,AFNE01.JPG,AFNE01.JPG,3,0,30,6,,,,,,,,,,,,,,,,,,,,,,,AMSA18.jpg,AMNE17.jpg,AMSA16.jpg,AMNE05.jpg,AMNE17.jpg,MN,1,num_6,32,num_8,1.38319926948,,,2017_Mar_23_1733,60.0146870472,MAFE4ImagesEEG,001,200072,
AFNE01.JPG,AFNE01.JPG,AFNE01.JPG,AFNE01.JPG,AFNE01.JPG,AFNE01.JPG,3,1,31,9,,,,,,,,,,,,,,,,,,,,,,,AMSA04.jpg,AMSA10.jpg,AMNE04.jpg,AMNE06.jpg,AMNE04.jpg,MN,1,num_2,16,num_2,1.15011740674,,,2017_Mar_23_1733,60.0146870472,MAFE4ImagesEEG,001,200072,
AFNE01.JPG,AFNE01.JPG,AFNE01.JPG,AFNE01.JPG,AFNE01.JPG,AFNE01.JPG,3,2,32,4,,,,,,,,,,,,,,,,,,,,,,,AMNE15.jpg,AMNE02.jpg,AMSA10.jpg,AMSA04.jpg,AMSA10.jpg,MS,2,num_2,16,num_2,0.783145641792,,,2017_Mar_23_1733,60.0146870472,MAFE4ImagesEEG,001,200072,
AFNE01.JPG,AFNE01.JPG,AFNE01.JPG,AFNE01.JPG,AFNE01.JPG,AFNE01.JPG,3,3,33,2,,,,,,,,,,,,,,,,,,,,,,,AMSA05.jpg,AMSA18.jpg,AMNE07.jpg,AMNE14.jpg,AMSA05.jpg,MS,2,num_8,32,num_4,1.51660613774,,,2017_Mar_23_1733,60.0146870472,MAFE4ImagesEEG,001,200072,
AFNE01.JPG,AFNE01.JPG,AFNE01.JPG,AFNE01.JPG,AFNE01.JPG,AFNE01.JPG,3,4,34,3,,,,,,,,,,,,,,,,,,,,,,,AMNE15.jpg,AMSA11.jpg,AMNE10.jpg,AMSA03.jpg,AMNE10.jpg,MN,1,num_2,16,num_2,0.666643359582,,,2017_Mar_23_1733,60.0146870472,MAFE4ImagesEEG,001,200072,
AFNE01.JPG,AFNE01.JPG,AFNE01.JPG,AFNE01.JPG,AFNE01.JPG,AFNE01.JPG,3,5,35,5,,,,,,,,,,,,,,,,,,,,,,,AMSA01.jpg,AMNE12.jpg,AMNE10.jpg,AMSA08.jpg,AMNE10.jpg,MN,1,num_2,16,num_2,1.13347101619,,,2017_Mar_23_1733,60.0146870472,MAFE4ImagesEEG,001,200072,
AFNE01.JPG,AFNE01.JPG,AFNE01.JPG,AFNE01.JPG,AFNE01.JPG,AFNE01.JPG,3,6,36,8,,,,,,,,,,,,,,,,,,,,,,,AMSA12.jpg,AMNE08.jpg,AMSA16.jpg,AMNE20.jpg,AMNE20.jpg,MN,1,num_4,32,num_8,1.45011262776,,,2017_Mar_23_1733,60.0146870472,MAFE4ImagesEEG,001,200072,
AFNE01.JPG,AFNE01.JPG,AFNE01.JPG,AFNE01.JPG,AFNE01.JPG,AFNE01.JPG,3,7,37,1,,,,,,,,,,,,,,,,,,,,,,,AMNE13.jpg,AMSA15.jpg,AMNE20.jpg,AMSA20.jpg,AMNE13.jpg,MN,1,num_8,32,num_6,1.95005922462,,,2017_Mar_23_1733,60.0146870472,MAFE4ImagesEEG,001,200072,
AFNE01.JPG,AFNE01.JPG,AFNE01.JPG,AFNE01.JPG,AFNE01.JPG,AFNE01.JPG,3,8,38,0,,,,,,,,,,,,,,,,,,,,,,,AMNE17.jpg,AMNE20.jpg,AMSA17.jpg,AMSA05.jpg,AMSA05.jpg,MS,2,num_4,16,num_4,1.39979722834,,,2017_Mar_23_1733,60.0146870472,MAFE4ImagesEEG,001,200072,
AFNE01.JPG,AFNE01.JPG,AFNE01.JPG,AFNE01.JPG,AFNE01.JPG,AFNE01.JPG,3,9,39,7,,,,,,,,,,,,,,,,,,,,,,,AMSA11.jpg,AMNE07.jpg,AMNE04.jpg,AMSA05.jpg,AMSA11.jpg,MS,2,num_8,32,num_2,3.28325164632,,,2017_Mar_23_1733,60.0146870472,MAFE4ImagesEEG,001,200072,
AFNE01.JPG,AFNE01.JPG,AFNE01.JPG,AFNE01.JPG,AFNE01.JPG,AFNE01.JPG,4,0,40,0,,,,,,,,,,,,,,,,,,,,,,,AMSA14.jpg,AMNE06.jpg,AMSA16.jpg,AMNE16.jpg,AMNE06.jpg,MN,1,num_6,16,num_6,2.40003553795,,,2017_Mar_23_1733,60.0146870472,MAFE4ImagesEEG,001,200072,
AFNE01.JPG,AFNE01.JPG,AFNE01.JPG,AFNE01.JPG,AFNE01.JPG,AFNE01.JPG,4,1,41,4,,,,,,,,,,,,,,,,,,,,,,,AMNE10.jpg,AMSA03.jpg,AMSA12.jpg,AMNE09.jpg,AMSA12.jpg,MS,2,num_2,32,num_6,2.59998402715,,,2017_Mar_23_1733,60.0146870472,MAFE4ImagesEEG,001,200072,
AFNE01.JPG,AFNE01.JPG,AFNE01.JPG,AFNE01.JPG,AFNE01.JPG,AFNE01.JPG,4,2,42,3,,,,,,,,,,,,,,,,,,,,,,,AMNE05.jpg,AMNE20.jpg,AMSA20.jpg,AMSA14.jpg,AMNE05.jpg,MN,1,num_8,16,num_8,1.11676657177,,,2017_Mar_23_1733,60.0146870472,MAFE4ImagesEEG,001,200072,
AFNE01.JPG,AFNE01.JPG,AFNE01.JPG,AFNE01.JPG,AFNE01.JPG,AFNE01.JPG,4,3,43,9,,,,,,,,,,,,,,,,,,,,,,,AMSA05.jpg,AMSA01.jpg,AMNE16.jpg,AMNE11.jpg,AMSA05.jpg,MS,2,num_8,16,num_8,1.86672271055,,,2017_Mar_23_1733,60.0146870472,MAFE4ImagesEEG,001,200072,
AFNE01.JPG,AFNE01.JPG,AFNE01.JPG,AFNE01.JPG,AFNE01.JPG,AFNE01.JPG,4,4,44,2,,,,,,,,,,,,,,,,,,,,,,,AMSA06.jpg,AMNE18.jpg,AMNE13.jpg,AMSA16.jpg,AMNE13.jpg,MN,1,num_2,16,num_2,0.716777541034,,,2017_Mar_23_1733,60.0146870472,MAFE4ImagesEEG,001,200072,
AFNE01.JPG,AFNE01.JPG,AFNE01.JPG,AFNE01.JPG,AFNE01.JPG,AFNE01.JPG,4,5,45,6,,,,,,,,,,,,,,,,,,,,,,,AMSA06.jpg,AMNE06.jpg,AMNE05.jpg,AMSA05.jpg,AMSA06.jpg,MS,2,num_8,16,num_8,1.51677773352,,,2017_Mar_23_1733,60.0146870472,MAFE4ImagesEEG,001,200072,
AFNE01.JPG,AFNE01.JPG,AFNE01.JPG,AFNE01.JPG,AFNE01.JPG,AFNE01.JPG,4,6,46,1,,,,,,,,,,,,,,,,,,,,,,,AMSA16.jpg,AMNE08.jpg,AMNE19.jpg,AMSA04.jpg,AMNE19.jpg,MN,1,num_2,16,num_2,0.716825331212,,,2017_Mar_23_1733,60.0146870472,MAFE4ImagesEEG,001,200072,
AFNE01.JPG,AFNE01.JPG,AFNE01.JPG,AFNE01.JPG,AFNE01.JPG,AFNE01.JPG,4,7,47,8,,,,,,,,,,,,,,,,,,,,,,,AMNE12.jpg,AMNE14.jpg,AMSA08.jpg,AMSA15.jpg,AMNE14.jpg,MN,1,num_6,16,num_6,1.44993301353,,,2017_Mar_23_1733,60.0146870472,MAFE4ImagesEEG,001,200072,
AFNE01.JPG,AFNE01.JPG,AFNE01.JPG,AFNE01.JPG,AFNE01.JPG,AFNE01.JPG,4,8,48,7,,,,,,,,,,,,,,,,,,,,,,,AMSA05.jpg,AMNE17.jpg,AMSA12.jpg,AMNE15.jpg,AMNE15.jpg,MN,1,num_4,32,num_8,0.933453247184,,,2017_Mar_23_1733,60.0146870472,MAFE4ImagesEEG,001,200072,
AFNE01.JPG,AFNE01.JPG,AFNE01.JPG,AFNE01.JPG,AFNE01.JPG,AFNE01.JPG,4,9,49,5,,,,,,,,,,,,,,,,,,,,,,,AMSA20.jpg,AMNE13.jpg,AMNE02.jpg,AMSA16.jpg,AMSA20.jpg,MS,2,num_8,16,num_8,1.50012075849,,,2017_Mar_23_1733,60.0146870472,MAFE4ImagesEEG,001,200072,
AFNE01.JPG,AFNE01.JPG,AFNE01.JPG,AFNE01.JPG,AFNE01.JPG,AFNE01.JPG,5,0,50,8,,,,,,,,,,,,,,,,,,,,,,,AMNE12.jpg,AMSA13.jpg,AMNE13.jpg,AMSA02.jpg,AMSA02.jpg,MS,2,num_4,32,num_8,2.4668889179,,,2017_Mar_23_1733,60.0146870472,MAFE4ImagesEEG,001,200072,
AFNE01.JPG,AFNE01.JPG,AFNE01.JPG,AFNE01.JPG,AFNE01.JPG,AFNE01.JPG,5,1,51,1,,,,,,,,,,,,,,,,,,,,,,,AMNE15.jpg,AMSA08.jpg,AMNE01.jpg,AMSA07.jpg,AMNE01.jpg,MN,1,num_2,32,num_4,1.60013124667,,,2017_Mar_23_1733,60.0146870472,MAFE4ImagesEEG,001,200072,
AFNE01.JPG,AFNE01.JPG,AFNE01.JPG,AFNE01.JPG,AFNE01.JPG,AFNE01.JPG,5,2,52,6,,,,,,,,,,,,,,,,,,,,,,,AMNE15.jpg,AMSA11.jpg,AMNE17.jpg,AMSA13.jpg,AMNE15.jpg,MN,1,num_8,16,num_8,0.966785158555,,,2017_Mar_23_1733,60.0146870472,MAFE4ImagesEEG,001,200072,
AFNE01.JPG,AFNE01.JPG,AFNE01.JPG,AFNE01.JPG,AFNE01.JPG,AFNE01.JPG,5,3,53,5,,,,,,,,,,,,,,,,,,,,,,,AMSA13.jpg,AMNE18.jpg,AMNE16.jpg,AMSA10.jpg,AMSA10.jpg,MS,2,num_4,32,num_8,1.11671717779,,,2017_Mar_23_1733,60.0146870472,MAFE4ImagesEEG,001,200072,
AFNE01.JPG,AFNE01.JPG,AFNE01.JPG,AFNE01.JPG,AFNE01.JPG,AFNE01.JPG,5,4,54,7,,,,,,,,,,,,,,,,,,,,,,,AMNE06.jpg,AMSA13.jpg,AMSA15.jpg,AMNE09.jpg,AMNE09.jpg,MN,1,num_4,32,num_8,1.65008260653,,,2017_Mar_23_1733,60.0146870472,MAFE4ImagesEEG,001,200072,
AFNE01.JPG,AFNE01.JPG,AFNE01.JPG,AFNE01.JPG,AFNE01.JPG,AFNE01.JPG,5,5,55,2,,,,,,,,,,,,,,,,,,,,,,,AMNE17.jpg,AMSA07.jpg,AMSA16.jpg,AMNE08.jpg,AMNE08.jpg,MN,1,num_4,16,num_4,0.850173183426,,,2017_Mar_23_1733,60.0146870472,MAFE4ImagesEEG,001,200072,
AFNE01.JPG,AFNE01.JPG,AFNE01.JPG,AFNE01.JPG,AFNE01.JPG,AFNE01.JPG,5,6,56,0,,,,,,,,,,,,,,,,,,,,,,,AMNE03.jpg,AMSA19.jpg,AMNE18.jpg,AMSA14.jpg,AMSA14.jpg,MS,2,num_4,16,num_4,1.34979968204,,,2017_Mar_23_1733,60.0146870472,MAFE4ImagesEEG,001,200072,
AFNE01.JPG,AFNE01.JPG,AFNE01.JPG,AFNE01.JPG,AFNE01.JPG,AFNE01.JPG,5,7,57,4,,,,,,,,,,,,,,,,,,,,,,,AMSA11.jpg,AMNE06.jpg,AMNE20.jpg,AMSA12.jpg,AMSA11.jpg,MS,2,num_8,32,num_4,1.13342996151,,,2017_Mar_23_1733,60.0146870472,MAFE4ImagesEEG,001,200072,
AFNE01.JPG,AFNE01.JPG,AFNE01.JPG,AFNE01.JPG,AFNE01.JPG,AFNE01.JPG,5,8,58,3,,,,,,,,,,,,,,,,,,,,,,,AMSA16.jpg,AMNE05.jpg,AMSA09.jpg,AMNE17.jpg,AMNE17.jpg,MN,1,num_4,32,num_6,0.699818429246,,,2017_Mar_23_1733,60.0146870472,MAFE4ImagesEEG,001,200072,
AFNE01.JPG,AFNE01.JPG,AFNE01.JPG,AFNE01.JPG,AFNE01.JPG,AFNE01.JPG,5,9,59,9,,,,,,,,,,,,,,,,,,,,,,,AMSA12.jpg,AMNE19.jpg,AMSA10.jpg,AMNE02.jpg,AMNE19.jpg,MN,1,num_6,16,num_6,1.48339546594,,,2017_Mar_23_1733,60.0146870472,MAFE4ImagesEEG,001,200072,
,,,,,,,,,,,,,,,,,,,,,,,,,,,,,,,,,,,,,,,,,,,space,1.38339941105,2017_Mar_23_1733,60.0146870472,MAFE4ImagesEEG,001,200072,
AFNE01.JPG,AFNE01.JPG,AFNE01.JPG,AFNE01.JPG,AFNE01.JPG,AFNE01.JPG,,,,,0,0,0,6,,,,,,,,,,,,,,,,,,,AFNE02.jpg,AFSA08.jpg,AFNE05.jpg,AFSA06.jpg,AFNE05.jpg,FN,3,num_2,32,num_4,1.24999735394,,,2017_Mar_23_1733,60.0146870472,MAFE4ImagesEEG,001,200072,
AFNE01.JPG,AFNE01.JPG,AFNE01.JPG,AFNE01.JPG,AFNE01.JPG,AFNE01.JPG,,,,,0,1,1,9,,,,,,,,,,,,,,,,,,,AFSA11.jpg,AFNE13.jpg,AFSA19.jpg,AFNE12.jpg,AFNE12.jpg,FN,3,num_4,16,num_4,0.866838497634,,,2017_Mar_23_1733,60.0146870472,MAFE4ImagesEEG,001,200072,
AFNE01.JPG,AFNE01.JPG,AFNE01.JPG,AFNE01.JPG,AFNE01.JPG,AFNE01.JPG,,,,,0,2,2,0,,,,,,,,,,,,,,,,,,,AFNE17.jpg,AFSA15.jpg,AFSA16.jpg,AFNE11.jpg,AFSA15.jpg,FS,4,num_6,16,num_6,0.750155638962,,,2017_Mar_23_1733,60.0146870472,MAFE4ImagesEEG,001,200072,
AFNE01.JPG,AFNE01.JPG,AFNE01.JPG,AFNE01.JPG,AFNE01.JPG,AFNE01.JPG,,,,,0,3,3,2,,,,,,,,,,,,,,,,,,,AFNE06.jpg,AFSA03.jpg,AFNE14.jpg,AFSA05.jpg,AFNE06.jpg,FN,3,num_8,16,num_8,1.19997254468,,,2017_Mar_23_1733,60.0146870472,MAFE4ImagesEEG,001,200072,
AFNE01.JPG,AFNE01.JPG,AFNE01.JPG,AFNE01.JPG,AFNE01.JPG,AFNE01.JPG,,,,,0,4,4,7,,,,,,,,,,,,,,,,,,,AFSA04.jpg,AFSA03.jpg,AFNE13.jpg,AFNE07.jpg,AFSA04.jpg,FS,4,num_8,16,num_8,0.600150491053,,,2017_Mar_23_1733,60.0146870472,MAFE4ImagesEEG,001,200072,
AFNE01.JPG,AFNE01.JPG,AFNE01.JPG,AFNE01.JPG,AFNE01.JPG,AFNE01.JPG,,,,,0,5,5,8,,,,,,,,,,,,,,,,,,,AFNE02.jpg,AFSA15.jpg,AFNE16.jpg,AFSA08.jpg,AFNE16.jpg,FN,3,num_2,16,num_2,1.83341645834,,,2017_Mar_23_1733,60.0146870472,MAFE4ImagesEEG,001,200072,
AFNE01.JPG,AFNE01.JPG,AFNE01.JPG,AFNE01.JPG,AFNE01.JPG,AFNE01.JPG,,,,,0,6,6,5,,,,,,,,,,,,,,,,,,,AFSA16.jpg,AFNE04.jpg,AFSA13.jpg,AFNE09.jpg,AFNE04.jpg,FN,3,num_6,16,num_6,1.30011710204,,,2017_Mar_23_1733,60.0146870472,MAFE4ImagesEEG,001,200072,
AFNE01.JPG,AFNE01.JPG,AFNE01.JPG,AFNE01.JPG,AFNE01.JPG,AFNE01.JPG,,,,,0,7,7,3,,,,,,,,,,,,,,,,,,,AFSA05.jpg,AFNE02.jpg,AFNE16.jpg,AFSA14.jpg,AFSA05.jpg,FS,4,num_8,16,num_8,0.916758104169,,,2017_Mar_23_1733,60.0146870472,MAFE4ImagesEEG,001,200072,
AFNE01.JPG,AFNE01.JPG,AFNE01.JPG,AFNE01.JPG,AFNE01.JPG,AFNE01.JPG,,,,,0,8,8,4,,,,,,,,,,,,,,,,,,,AFSA09.jpg,AFNE15.jpg,AFNE12.jpg,AFSA04.jpg,AFSA04.jpg,FS,4,num_4,32,num_8,1.10006501398,,,2017_Mar_23_1733,60.0146870472,MAFE4ImagesEEG,001,200072,
AFNE01.JPG,AFNE01.JPG,AFNE01.JPG,AFNE01.JPG,AFNE01.JPG,AFNE01.JPG,,,,,0,9,9,1,,,,,,,,,,,,,,,,,,,AFSA10.jpg,AFSA11.jpg,AFNE19.jpg,AFNE10.jpg,AFSA10.jpg,FS,4,num_8,32,num_4,0.650111473107,,,2017_Mar_23_1733,60.0146870472,MAFE4ImagesEEG,001,200072,
AFNE01.JPG,AFNE01.JPG,AFNE01.JPG,AFNE01.JPG,AFNE01.JPG,AFNE01.JPG,,,,,1,0,10,7,,,,,,,,,,,,,,,,,,,AFNE10.jpg,AFSA08.jpg,AFSA14.jpg,AFNE03.jpg,AFNE10.jpg,FN,3,num_8,16,num_8,0.800210918416,,,2017_Mar_23_1733,60.0146870472,MAFE4ImagesEEG,001,200072,
AFNE01.JPG,AFNE01.JPG,AFNE01.JPG,AFNE01.JPG,AFNE01.JPG,AFNE01.JPG,,,,,1,1,11,3,,,,,,,,,,,,,,,,,,,AFSA01.jpg,AFNE06.jpg,AFNE19.jpg,AFSA04.jpg,AFNE19.jpg,FN,3,num_2,16,num_2,0.750138639763,,,2017_Mar_23_1733,60.0146870472,MAFE4ImagesEEG,001,200072,
AFNE01.JPG,AFNE01.JPG,AFNE01.JPG,AFNE01.JPG,AFNE01.JPG,AFNE01.JPG,,,,,1,2,12,1,,,,,,,,,,,,,,,,,,,AFNE06.jpg,AFSA15.jpg,AFNE19.jpg,AFSA08.jpg,AFSA08.jpg,FS,4,num_4,32,num_8,1.73337838659,,,2017_Mar_23_1733,60.0146870472,MAFE4ImagesEEG,001,200072,
AFNE01.JPG,AFNE01.JPG,AFNE01.JPG,AFNE01.JPG,AFNE01.JPG,AFNE01.JPG,,,,,1,3,13,2,,,,,,,,,,,,,,,,,,,AFSA13.jpg,AFNE13.jpg,AFNE02.jpg,AFSA18.jpg,AFSA13.jpg,FS,4,num_8,32,num_4,3.26643686736,,,2017_Mar_23_1733,60.0146870472,MAFE4ImagesEEG,001,200072,
AFNE01.JPG,AFNE01.JPG,AFNE01.JPG,AFNE01.JPG,AFNE01.JPG,AFNE01.JPG,,,,,1,4,14,9,,,,,,,,,,,,,,,,,,,AFNE12.jpg,AFNE02.jpg,AFSA13.jpg,AFSA10.jpg,AFNE12.jpg,FN,3,num_8,16,num_8,2.38332243351,,,2017_Mar_23_1733,60.0146870472,MAFE4ImagesEEG,001,200072,
AFNE01.JPG,AFNE01.JPG,AFNE01.JPG,AFNE01.JPG,AFNE01.JPG,AFNE01.JPG,,,,,1,5,15,8,,,,,,,,,,,,,,,,,,,AFNE16.jpg,AFSA04.jpg,AFSA17.jpg,AFNE05.jpg,AFNE16.jpg,FN,3,num_8,32,num_2,2.43333665835,,,2017_Mar_23_1733,60.0146870472,MAFE4ImagesEEG,001,200072,
AFNE01.JPG,AFNE01.JPG,AFNE01.JPG,AFNE01.JPG,AFNE01.JPG,AFNE01.JPG,,,,,1,6,16,6,,,,,,,,,,,,,,,,,,,AFSA09.jpg,AFNE03.jpg,AFSA03.jpg,AFNE14.jpg,AFSA09.jpg,FS,4,num_8,16,num_8,0.616851728118,,,2017_Mar_23_1733,60.0146870472,MAFE4ImagesEEG,001,200072,
AFNE01.JPG,AFNE01.JPG,AFNE01.JPG,AFNE01.JPG,AFNE01.JPG,AFNE01.JPG,,,,,1,7,17,4,,,,,,,,,,,,,,,,,,,AFNE14.jpg,AFNE12.jpg,AFSA02.jpg,AFSA10.jpg,AFSA10.jpg,FS,4,num_4,32,num_8,1.51675079134,,,2017_Mar_23_1733,60.0146870472,MAFE4ImagesEEG,001,200072,
AFNE01.JPG,AFNE01.JPG,AFNE01.JPG,AFNE01.JPG,AFNE01.JPG,AFNE01.JPG,,,,,1,8,18,0,,,,,,,,,,,,,,,,,,,AFSA02.jpg,AFSA01.jpg,AFNE03.jpg,AFNE17.jpg,AFSA01.jpg,FS,4,num_6,16,num_6,1.0667956468,,,2017_Mar_23_1733,60.0146870472,MAFE4ImagesEEG,001,200072,
AFNE01.JPG,AFNE01.JPG,AFNE01.JPG,AFNE01.JPG,AFNE01.JPG,AFNE01.JPG,,,,,1,9,19,5,,,,,,,,,,,,,,,,,,,AFNE16.jpg,AFSA06.jpg,AFSA04.jpg,AFNE17.jpg,AFSA06.jpg,FS,4,num_6,16,num_6,1.6668082198,,,2017_Mar_23_1733,60.0146870472,MAFE4ImagesEEG,001,200072,
AFNE01.JPG,AFNE01.JPG,AFNE01.JPG,AFNE01.JPG,AFNE01.JPG,AFNE01.JPG,,,,,2,0,20,7,,,,,,,,,,,,,,,,,,,AFSA06.jpg,AFNE15.jpg,AFNE10.jpg,AFSA04.jpg,AFSA06.jpg,FS,4,num_8,16,num_8,1.61675069516,,,2017_Mar_23_1733,60.0146870472,MAFE4ImagesEEG,001,200072,
AFNE01.JPG,AFNE01.JPG,AFNE01.JPG,AFNE01.JPG,AFNE01.JPG,AFNE01.JPG,,,,,2,1,21,2,,,,,,,,,,,,,,,,,,,AFSA06.jpg,AFNE03.jpg,AFSA02.jpg,AFNE14.jpg,AFSA02.jpg,FS,4,num_2,16,num_2,1.01676281908,,,2017_Mar_23_1733,60.0146870472,MAFE4ImagesEEG,001,200072,
AFNE01.JPG,AFNE01.JPG,AFNE01.JPG,AFNE01.JPG,AFNE01.JPG,AFNE01.JPG,,,,,2,2,22,5,,,,,,,,,,,,,,,,,,,AFSA01.jpg,AFSA08.jpg,AFNE01.jpg,AFNE08.jpg,AFNE08.jpg,FN,3,num_4,16,num_4,1.00013118255,,,2017_Mar_23_1733,60.0146870472,MAFE4ImagesEEG,001,200072,
AFNE01.JPG,AFNE01.JPG,AFNE01.JPG,AFNE01.JPG,AFNE01.JPG,AFNE01.JPG,,,,,2,3,23,1,,,,,,,,,,,,,,,,,,,AFSA01.jpg,AFSA06.jpg,AFNE12.jpg,AFNE10.jpg,AFNE10.jpg,FN,3,num_4,32,num_2,2.23334711441,,,2017_Mar_23_1733,60.0146870472,MAFE4ImagesEEG,001,200072,
AFNE01.JPG,AFNE01.JPG,AFNE01.JPG,AFNE01.JPG,AFNE01.JPG,AFNE01.JPG,,,,,2,4,24,9,,,,,,,,,,,,,,,,,,,AFSA03.jpg,AFNE18.jpg,AFNE08.jpg,AFSA05.jpg,AFSA03.jpg,FS,4,num_8,16,num_8,0.750241917907,,,2017_Mar_23_1733,60.0146870472,MAFE4ImagesEEG,001,200072,
AFNE01.JPG,AFNE01.JPG,AFNE01.JPG,AFNE01.JPG,AFNE01.JPG,AFNE01.JPG,,,,,2,5,25,8,,,,,,,,,,,,,,,,,,,AFNE06.jpg,AFNE07.jpg,AFSA05.jpg,AFSA04.jpg,AFNE07.jpg,FN,3,num_6,16,num_6,0.816779048531,,,2017_Mar_23_1733,60.0146870472,MAFE4ImagesEEG,001,200072,
AFNE01.JPG,AFNE01.JPG,AFNE01.JPG,AFNE01.JPG,AFNE01.JPG,AFNE01.JPG,,,,,2,6,26,0,,,,,,,,,,,,,,,,,,,AFNE11.jpg,AFSA16.jpg,AFSA13.jpg,AFNE07.jpg,AFNE07.jpg,FN,3,num_4,16,num_4,0.650229505321,,,2017_Mar_23_1733,60.0146870472,MAFE4ImagesEEG,001,200072,
AFNE01.JPG,AFNE01.JPG,AFNE01.JPG,AFNE01.JPG,AFNE01.JPG,AFNE01.JPG,,,,,2,7,27,6,,,,,,,,,,,,,,,,,,,AFNE11.jpg,AFSA05.jpg,AFNE07.jpg,AFSA11.jpg,AFSA11.jpg,FS,4,num_4,32,num_8,1.3834516916,,,2017_Mar_23_1733,60.0146870472,MAFE4ImagesEEG,001,200072,
AFNE01.JPG,AFNE01.JPG,AFNE01.JPG,AFNE01.JPG,AFNE01.JPG,AFNE01.JPG,,,,,2,8,28,4,,,,,,,,,,,,,,,,,,,AFSA18.jpg,AFSA19.jpg,AFNE09.jpg,AFNE10.jpg,AFSA19.jpg,FS,4,num_6,16,num_6,0.883483284502,,,2017_Mar_23_1733,60.0146870472,MAFE4ImagesEEG,001,200072,
AFNE01.JPG,AFNE01.JPG,AFNE01.JPG,AFNE01.JPG,AFNE01.JPG,AFNE01.JPG,,,,,2,9,29,3,,,,,,,,,,,,,,,,,,,AFNE02.jpg,AFNE14.jpg,AFSA14.jpg,AFSA06.jpg,AFNE02.jpg,FN,3,num_8,16,num_8,0.766496043827,,,2017_Mar_23_1733,60.0146870472,MAFE4ImagesEEG,001,200072,
AFNE01.JPG,AFNE01.JPG,AFNE01.JPG,AFNE01.JPG,AFNE01.JPG,AFNE01.JPG,,,,,3,0,30,9,,,,,,,,,,,,,,,,,,,AFNE10.jpg,AFNE05.jpg,AFSA07.jpg,AFSA13.jpg,AFSA07.jpg,FS,4,num_2,32,num_8,1.25010319799,,,2017_Mar_23_1733,60.0146870472,MAFE4ImagesEEG,001,200072,
AFNE01.JPG,AFNE01.JPG,AFNE01.JPG,AFNE01.JPG,AFNE01.JPG,AFNE01.JPG,,,,,3,1,31,7,,,,,,,,,,,,,,,,,,,AFSA03.jpg,AFNE02.jpg,AFSA05.jpg,AFNE06.jpg,AFNE02.jpg,FN,3,num_6,16,num_6,0.716821803129,,,2017_Mar_23_1733,60.0146870472,MAFE4ImagesEEG,001,200072,
AFNE01.JPG,AFNE01.JPG,AFNE01.JPG,AFNE01.JPG,AFNE01.JPG,AFNE01.JPG,,,,,3,2,32,2,,,,,,,,,,,,,,,,,,,AFSA06.jpg,AFNE18.jpg,AFSA03.jpg,AFNE08.jpg,AFSA06.jpg,FS,4,num_8,16,num_8,1.21676134365,,,2017_Mar_23_1733,60.0146870472,MAFE4ImagesEEG,001,200072,
AFNE01.JPG,AFNE01.JPG,AFNE01.JPG,AFNE01.JPG,AFNE01.JPG,AFNE01.JPG,,,,,3,3,33,5,,,,,,,,,,,,,,,,,,,AFSA02.jpg,AFNE08.jpg,AFSA01.jpg,AFNE01.jpg,AFSA02.jpg,FS,4,num_8,16,num_8,0.683504645771,,,2017_Mar_23_1733,60.0146870472,MAFE4ImagesEEG,001,200072,
AFNE01.JPG,AFNE01.JPG,AFNE01.JPG,AFNE01.JPG,AFNE01.JPG,AFNE01.JPG,,,,,3,4,34,4,,,,,,,,,,,,,,,,,,,AFSA09.jpg,AFNE11.jpg,AFSA02.jpg,AFNE16.jpg,AFSA09.jpg,FS,4,num_8,32,num_2,1.70009330317,,,2017_Mar_23_1733,60.0146870472,MAFE4ImagesEEG,001,200072,
AFNE01.JPG,AFNE01.JPG,AFNE01.JPG,AFNE01.JPG,AFNE01.JPG,AFNE01.JPG,,,,,3,5,35,0,,,,,,,,,,,,,,,,,,,AFSA04.jpg,AFSA15.jpg,AFNE17.jpg,AFNE12.jpg,AFNE17.jpg,FN,3,num_2,32,num_4,1.20009538799,,,2017_Mar_23_1733,60.0146870472,MAFE4ImagesEEG,001,200072,
AFNE01.JPG,AFNE01.JPG,AFNE01.JPG,AFNE01.JPG,AFNE01.JPG,AFNE01.JPG,,,,,3,6,36,1,,,,,,,,,,,,,,,,,,,AFNE01.jpg,AFSA14.jpg,AFSA12.jpg,AFNE08.jpg,AFNE08.jpg,FN,3,num_4,16,num_4,0.866771783796,,,2017_Mar_23_1733,60.0146870472,MAFE4ImagesEEG,001,200072,
AFNE01.JPG,AFNE01.JPG,AFNE01.JPG,AFNE01.JPG,AFNE01.JPG,AFNE01.JPG,,,,,3,7,37,3,,,,,,,,,,,,,,,,,,,AFNE17.jpg,AFSA19.jpg,AFSA09.jpg,AFNE08.jpg,AFNE17.jpg,FN,3,num_8,16,num_8,1.46707206027,,,2017_Mar_23_1733,60.0146870472,MAFE4ImagesEEG,001,200072,
AFNE01.JPG,AFNE01.JPG,AFNE01.JPG,AFNE01.JPG,AFNE01.JPG,AFNE01.JPG,,,,,3,8,38,8,,,,,,,,,,,,,,,,,,,AFNE06.jpg,AFSA19.jpg,AFSA06.jpg,AFNE14.jpg,AFNE14.jpg,FN,3,num_4,16,num_4,1.26706423418,,,2017_Mar_23_1733,60.0146870472,MAFE4ImagesEEG,001,200072,
AFNE01.JPG,AFNE01.JPG,AFNE01.JPG,AFNE01.JPG,AFNE01.JPG,AFNE01.JPG,,,,,3,9,39,6,,,,,,,,,,,,,,,,,,,AFSA07.jpg,AFNE08.jpg,AFNE05.jpg,AFSA17.jpg,AFNE05.jpg,FN,3,num_2,16,num_2,1.2501330268,,,2017_Mar_23_1733,60.0146870472,MAFE4ImagesEEG,001,200072,
AFNE01.JPG,AFNE01.JPG,AFNE01.JPG,AFNE01.JPG,AFNE01.JPG,AFNE01.JPG,,,,,4,0,40,2,,,,,,,,,,,,,,,,,,,AFNE08.jpg,AFSA12.jpg,AFNE09.jpg,AFSA18.jpg,AFSA18.jpg,FS,4,num_4,32,num_2,2.48334799649,,,2017_Mar_23_1733,60.0146870472,MAFE4ImagesEEG,001,200072,
AFNE01.JPG,AFNE01.JPG,AFNE01.JPG,AFNE01.JPG,AFNE01.JPG,AFNE01.JPG,,,,,4,1,41,5,,,,,,,,,,,,,,,,,,,AFSA09.jpg,AFSA07.jpg,AFNE03.jpg,AFNE02.jpg,AFSA09.jpg,FS,4,num_8,16,num_8,1.86669705145,,,2017_Mar_23_1733,60.0146870472,MAFE4ImagesEEG,001,200072,
AFNE01.JPG,AFNE01.JPG,AFNE01.JPG,AFNE01.JPG,AFNE01.JPG,AFNE01.JPG,,,,,4,2,42,8,,,,,,,,,,,,,,,,,,,AFSA02.jpg,AFNE05.jpg,AFNE01.jpg,AFSA19.jpg,AFSA02.jpg,FS,4,num_8,16,num_8,0.616849482991,,,2017_Mar_23_1733,60.0146870472,MAFE4ImagesEEG,001,200072,
AFNE01.JPG,AFNE01.JPG,AFNE01.JPG,AFNE01.JPG,AFNE01.JPG,AFNE01.JPG,,,,,4,3,43,9,,,,,,,,,,,,,,,,,,,AFSA19.jpg,AFNE20.jpg,AFSA02.jpg,AFNE06.jpg,AFSA02.jpg,FS,4,num_2,16,num_2,0.850159070862,,,2017_Mar_23_1733,60.0146870472,MAFE4ImagesEEG,001,200072,
AFNE01.JPG,AFNE01.JPG,AFNE01.JPG,AFNE01.JPG,AFNE01.JPG,AFNE01.JPG,,,,,4,4,44,1,,,,,,,,,,,,,,,,,,,AFNE17.jpg,AFSA03.jpg,AFNE11.jpg,AFSA19.jpg,AFSA03.jpg,FS,4,num_6,16,num_6,1.46674169839,,,2017_Mar_23_1733,60.0146870472,MAFE4ImagesEEG,001,200072,
AFNE01.JPG,AFNE01.JPG,AFNE01.JPG,AFNE01.JPG,AFNE01.JPG,AFNE01.JPG,,,,,4,5,45,6,,,,,,,,,,,,,,,,,,,AFSA09.jpg,AFNE14.jpg,AFSA19.jpg,AFNE07.jpg,AFSA19.jpg,FS,4,num_2,32,num_4,1.81673799385,,,2017_Mar_23_1733,60.0146870472,MAFE4ImagesEEG,001,200072,
AFNE01.JPG,AFNE01.JPG,AFNE01.JPG,AFNE01.JPG,AFNE01.JPG,AFNE01.JPG,,,,,4,6,46,3,,,,,,,,,,,,,,,,,,,AFNE02.jpg,AFSA19.jpg,AFNE13.jpg,AFSA18.jpg,AFNE13.jpg,FN,3,num_2,32,num_4,1.58329818561,,,2017_Mar_23_1733,60.0146870472,MAFE4ImagesEEG,001,200072,
AFNE01.JPG,AFNE01.JPG,AFNE01.JPG,AFNE01.JPG,AFNE01.JPG,AFNE01.JPG,,,,,4,7,47,0,,,,,,,,,,,,,,,,,,,AFNE14.jpg,AFSA06.jpg,AFNE09.jpg,AFSA17.jpg,AFSA06.jpg,FS,4,num_6,32,num_2,1.50009509927,,,2017_Mar_23_1733,60.0146870472,MAFE4ImagesEEG,001,200072,
AFNE01.JPG,AFNE01.JPG,AFNE01.JPG,AFNE01.JPG,AFNE01.JPG,AFNE01.JPG,,,,,4,8,48,4,,,,,,,,,,,,,,,,,,,AFSA20.jpg,AFNE09.jpg,AFSA15.jpg,AFNE16.jpg,AFSA20.jpg,FS,4,num_8,16,num_8,1.71669094136,,,2017_Mar_23_1733,60.0146870472,MAFE4ImagesEEG,001,200072,
AFNE01.JPG,AFNE01.JPG,AFNE01.JPG,AFNE01.JPG,AFNE01.JPG,AFNE01.JPG,,,,,4,9,49,7,,,,,,,,,,,,,,,,,,,AFSA15.jpg,AFNE18.jpg,AFNE07.jpg,AFSA14.jpg,AFSA14.jpg,FS,4,num_4,16,num_4,1.41674896312,,,2017_Mar_23_1733,60.0146870472,MAFE4ImagesEEG,001,200072,
AFNE01.JPG,AFNE01.JPG,AFNE01.JPG,AFNE01.JPG,AFNE01.JPG,AFNE01.JPG,,,,,5,0,50,6,,,,,,,,,,,,,,,,,,,AFNE08.jpg,AFSA12.jpg,AFSA18.jpg,AFNE15.jpg,AFNE08.jpg,FN,3,num_8,16,num_8,0.816788349941,,,2017_Mar_23_1733,60.0146870472,MAFE4ImagesEEG,001,200072,
AFNE01.JPG,AFNE01.JPG,AFNE01.JPG,AFNE01.JPG,AFNE01.JPG,AFNE01.JPG,,,,,5,1,51,8,,,,,,,,,,,,,,,,,,,AFNE15.jpg,AFNE18.jpg,AFSA20.jpg,AFSA13.jpg,AFSA20.jpg,FS,4,num_2,32,num_6,1.31678081257,,,2017_Mar_23_1733,60.0146870472,MAFE4ImagesEEG,001,200072,
AFNE01.JPG,AFNE01.JPG,AFNE01.JPG,AFNE01.JPG,AFNE01.JPG,AFNE01.JPG,,,,,5,2,52,1,,,,,,,,,,,,,,,,,,,AFSA04.jpg,AFSA06.jpg,AFNE09.jpg,AFNE19.jpg,AFSA04.jpg,FS,4,num_8,16,num_8,0.916840855032,,,2017_Mar_23_1733,60.0146870472,MAFE4ImagesEEG,001,200072,
AFNE01.JPG,AFNE01.JPG,AFNE01.JPG,AFNE01.JPG,AFNE01.JPG,AFNE01.JPG,,,,,5,3,53,2,,,,,,,,,,,,,,,,,,,AFNE15.jpg,AFSA02.jpg,AFNE01.jpg,AFSA09.jpg,AFNE01.jpg,FN,3,num_2,16,num_2,1.18342558341,,,2017_Mar_23_1733,60.0146870472,MAFE4ImagesEEG,001,200072,
AFNE01.JPG,AFNE01.JPG,AFNE01.JPG,AFNE01.JPG,AFNE01.JPG,AFNE01.JPG,,,,,5,4,54,9,,,,,,,,,,,,,,,,,,,AFNE02.jpg,AFSA10.jpg,AFNE10.jpg,AFSA06.jpg,AFSA10.jpg,FS,4,num_6,16,num_6,1.43345084164,,,2017_Mar_23_1733,60.0146870472,MAFE4ImagesEEG,001,200072,
AFNE01.JPG,AFNE01.JPG,AFNE01.JPG,AFNE01.JPG,AFNE01.JPG,AFNE01.JPG,,,,,5,5,55,5,,,,,,,,,,,,,,,,,,,AFNE07.jpg,AFSA07.jpg,AFNE13.jpg,AFSA02.jpg,AFSA07.jpg,FS,4,num_6,16,num_6,0.633489779488,,,2017_Mar_23_1733,60.0146870472,MAFE4ImagesEEG,001,200072,
AFNE01.JPG,AFNE01.JPG,AFNE01.JPG,AFNE01.JPG,AFNE01.JPG,AFNE01.JPG,,,,,5,6,56,3,,,,,,,,,,,,,,,,,,,AFSA12.jpg,AFSA11.jpg,AFNE14.jpg,AFNE15.jpg,AFNE15.jpg,FN,3,num_4,32,num_2,1.13341745269,,,2017_Mar_23_1733,60.0146870472,MAFE4ImagesEEG,001,200072,
AFNE01.JPG,AFNE01.JPG,AFNE01.JPG,AFNE01.JPG,AFNE01.JPG,AFNE01.JPG,,,,,5,7,57,0,,,,,,,,,,,,,,,,,,,AFNE05.jpg,AFSA19.jpg,AFSA17.jpg,AFNE09.jpg,AFSA17.jpg,FS,4,num_2,32,num_8,1.0501037112,,,2017_Mar_23_1733,60.0146870472,MAFE4ImagesEEG,001,200072,
AFNE01.JPG,AFNE01.JPG,AFNE01.JPG,AFNE01.JPG,AFNE01.JPG,AFNE01.JPG,,,,,5,8,58,4,,,,,,,,,,,,,,,,,,,AFSA09.jpg,AFNE09.jpg,AFNE15.jpg,AFSA20.jpg,AFNE15.jpg,FN,3,num_2,32,num_6,2.00005965761,,,2017_Mar_23_1733,60.0146870472,MAFE4ImagesEEG,001,200072,
AFNE01.JPG,AFNE01.JPG,AFNE01.JPG,AFNE01.JPG,AFNE01.JPG,AFNE01.JPG,,,,,5,9,59,7,,,,,,,,,,,,,,,,,,,AFSA03.jpg,AFNE20.jpg,AFSA20.jpg,AFNE03.jpg,AFNE20.jpg,FN,3,num_6,16,num_6,0.650182677316,,,2017_Mar_23_1733,60.0146870472,MAFE4ImagesEEG,001,200072,
,,,,,,,,,,,,,,,,,,,,,,,,,,,,,,,,,,,,,,,,,,,space,4.18317059532,2017_Mar_23_1733,60.0146870472,MAFE4ImagesEEG,001,200072,
AFNE01.JPG,AFNE01.JPG,AFNE01.JPG,AFNE01.JPG,AFNE01.JPG,AFNE01.JPG,,,,,,,,,0,0,0,1,,,,,,,,,,,,,,,AMNE02.jpg,AMSA09.jpg,AMSA20.jpg,AMNE20.jpg,AMSA09.jpg,MS,2,num_6,32,num_4,1.20010468946,,,2017_Mar_23_1733,60.0146870472,MAFE4ImagesEEG,001,200072,
AFNE01.JPG,AFNE01.JPG,AFNE01.JPG,AFNE01.JPG,AFNE01.JPG,AFNE01.JPG,,,,,,,,,0,1,1,0,,,,,,,,,,,,,,,AMSA19.jpg,AMSA17.jpg,AMNE10.jpg,AMNE14.jpg,AMNE10.jpg,MN,1,num_2,16,num_2,0.750148261897,,,2017_Mar_23_1733,60.0146870472,MAFE4ImagesEEG,001,200072,
AFNE01.JPG,AFNE01.JPG,AFNE01.JPG,AFNE01.JPG,AFNE01.JPG,AFNE01.JPG,,,,,,,,,0,2,2,2,,,,,,,,,,,,,,,AMSA12.jpg,AMNE13.jpg,AMNE01.jpg,AMSA11.jpg,AMNE13.jpg,MN,1,num_6,16,num_6,1.20012553746,,,2017_Mar_23_1733,60.0146870472,MAFE4ImagesEEG,001,200072,
AFNE01.JPG,AFNE01.JPG,AFNE01.JPG,AFNE01.JPG,AFNE01.JPG,AFNE01.JPG,,,,,,,,,0,3,3,4,,,,,,,,,,,,,,,AMNE12.jpg,AMNE06.jpg,AMSA16.jpg,AMSA19.jpg,AMNE06.jpg,MN,1,num_6,32,num_8,1.50009253342,,,2017_Mar_23_1733,60.0146870472,MAFE4ImagesEEG,001,200072,
AFNE01.JPG,AFNE01.JPG,AFNE01.JPG,AFNE01.JPG,AFNE01.JPG,AFNE01.JPG,,,,,,,,,0,4,4,6,,,,,,,,,,,,,,,AMSA17.jpg,AMNE14.jpg,AMNE17.jpg,AMSA07.jpg,AMSA17.jpg,MS,2,num_8,16,num_8,0.950157050218,,,2017_Mar_23_1733,60.0146870472,MAFE4ImagesEEG,001,200072,
AFNE01.JPG,AFNE01.JPG,AFNE01.JPG,AFNE01.JPG,AFNE01.JPG,AFNE01.JPG,,,,,,,,,0,5,5,9,,,,,,,,,,,,,,,AMSA17.jpg,AMSA15.jpg,AMNE14.jpg,AMNE12.jpg,AMSA17.jpg,MS,2,num_8,16,num_8,0.683498230996,,,2017_Mar_23_1733,60.0146870472,MAFE4ImagesEEG,001,200072,
AFNE01.JPG,AFNE01.JPG,AFNE01.JPG,AFNE01.JPG,AFNE01.JPG,AFNE01.JPG,,,,,,,,,0,6,6,3,,,,,,,,,,,,,,,AMSA19.jpg,AMNE18.jpg,AMSA07.jpg,AMNE10.jpg,AMNE10.jpg,MN,1,num_4,16,num_4,1.15013729263,,,2017_Mar_23_1733,60.0146870472,MAFE4ImagesEEG,001,200072,
AFNE01.JPG,AFNE01.JPG,AFNE01.JPG,AFNE01.JPG,AFNE01.JPG,AFNE01.JPG,,,,,,,,,0,7,7,7,,,,,,,,,,,,,,,AMNE06.jpg,AMNE02.jpg,AMSA17.jpg,AMSA10.jpg,AMNE06.jpg,MN,1,num_8,16,num_8,1.70004968258,,,2017_Mar_23_1733,60.0146870472,MAFE4ImagesEEG,001,200072,
AFNE01.JPG,AFNE01.JPG,AFNE01.JPG,AFNE01.JPG,AFNE01.JPG,AFNE01.JPG,,,,,,,,,0,8,8,5,,,,,,,,,,,,,,,AMSA04.jpg,AMSA14.jpg,AMNE15.jpg,AMNE20.jpg,AMSA04.jpg,MS,2,num_8,16,num_8,2.08341028413,,,2017_Mar_23_1733,60.0146870472,MAFE4ImagesEEG,001,200072,
AFNE01.JPG,AFNE01.JPG,AFNE01.JPG,AFNE01.JPG,AFNE01.JPG,AFNE01.JPG,,,,,,,,,0,9,9,8,,,,,,,,,,,,,,,AMSA02.jpg,AMNE16.jpg,AMSA18.jpg,AMNE09.jpg,AMNE09.jpg,MN,1,num_4,32,num_2,1.56672556518,,,2017_Mar_23_1733,60.0146870472,MAFE4ImagesEEG,001,200072,
AFNE01.JPG,AFNE01.JPG,AFNE01.JPG,AFNE01.JPG,AFNE01.JPG,AFNE01.JPG,,,,,,,,,1,0,10,2,,,,,,,,,,,,,,,AMNE14.jpg,AMSA05.jpg,AMSA04.jpg,AMNE03.jpg,AMNE14.jpg,MN,1,num_8,32,num_4,1.33347338968,,,2017_Mar_23_1733,60.0146870472,MAFE4ImagesEEG,001,200072,
AFNE01.JPG,AFNE01.JPG,AFNE01.JPG,AFNE01.JPG,AFNE01.JPG,AFNE01.JPG,,,,,,,,,1,1,11,3,,,,,,,,,,,,,,,AMNE13.jpg,AMSA18.jpg,AMSA09.jpg,AMNE06.jpg,AMSA18.jpg,MS,2,num_6,16,num_6,1.66673060082,,,2017_Mar_23_1733,60.0146870472,MAFE4ImagesEEG,001,200072,
AFNE01.JPG,AFNE01.JPG,AFNE01.JPG,AFNE01.JPG,AFNE01.JPG,AFNE01.JPG,,,,,,,,,1,2,12,7,,,,,,,,,,,,,,,AMSA19.jpg,AMNE09.jpg,AMNE07.jpg,AMSA06.jpg,AMSA06.jpg,MS,2,num_4,16,num_4,1.20041452401,,,2017_Mar_23_1733,60.0146870472,MAFE4ImagesEEG,001,200072,
AFNE01.JPG,AFNE01.JPG,AFNE01.JPG,AFNE01.JPG,AFNE01.JPG,AFNE01.JPG,,,,,,,,,1,3,13,8,,,,,,,,,,,,,,,AMSA07.jpg,AMSA18.jpg,AMNE13.jpg,AMNE07.jpg,AMSA18.jpg,MS,2,num_6,16,num_6,1.25009550026,,,2017_Mar_23_1733,60.0146870472,MAFE4ImagesEEG,001,200072,
AFNE01.JPG,AFNE01.JPG,AFNE01.JPG,AFNE01.JPG,AFNE01.JPG,AFNE01.JPG,,,,,,,,,1,4,14,0,,,,,,,,,,,,,,,AMNE05.jpg,AMSA06.jpg,AMNE02.jpg,AMSA07.jpg,AMSA06.jpg,MS,2,num_6,32,num_4,1.40006664972,,,2017_Mar_23_1733,60.0146870472,MAFE4ImagesEEG,001,200072,
AFNE01.JPG,AFNE01.JPG,AFNE01.JPG,AFNE01.JPG,AFNE01.JPG,AFNE01.JPG,,,,,,,,,1,5,15,4,,,,,,,,,,,,,,,AMNE02.jpg,AMNE20.jpg,AMSA18.jpg,AMSA17.jpg,AMNE02.jpg,MN,1,num_8,16,num_8,0.666809502756,,,2017_Mar_23_1733,60.0146870472,MAFE4ImagesEEG,001,200072,
AFNE01.JPG,AFNE01.JPG,AFNE01.JPG,AFNE01.JPG,AFNE01.JPG,AFNE01.JPG,,,,,,,,,1,6,16,1,,,,,,,,,,,,,,,AMSA08.jpg,AMNE11.jpg,AMNE09.jpg,AMSA05.jpg,AMNE11.jpg,MN,1,num_6,32,num_4,2.86660275393,,,2017_Mar_23_1733,60.0146870472,MAFE4ImagesEEG,001,200072,
AFNE01.JPG,AFNE01.JPG,AFNE01.JPG,AFNE01.JPG,AFNE01.JPG,AFNE01.JPG,,,,,,,,,1,7,17,9,,,,,,,,,,,,,,,AMNE13.jpg,AMSA18.jpg,AMSA15.jpg,AMNE05.jpg,AMNE05.jpg,MN,1,num_4,32,num_8,1.43345436978,,,2017_Mar_23_1733,60.0146870472,MAFE4ImagesEEG,001,200072,
AFNE01.JPG,AFNE01.JPG,AFNE01.JPG,AFNE01.JPG,AFNE01.JPG,AFNE01.JPG,,,,,,,,,1,8,18,5,,,,,,,,,,,,,,,AMNE16.jpg,AMSA20.jpg,AMNE09.jpg,AMSA11.jpg,AMSA20.jpg,MS,2,num_6,16,num_6,1.46687352238,,,2017_Mar_23_1733,60.0146870472,MAFE4ImagesEEG,001,200072,
AFNE01.JPG,AFNE01.JPG,AFNE01.JPG,AFNE01.JPG,AFNE01.JPG,AFNE01.JPG,,,,,,,,,1,9,19,6,,,,,,,,,,,,,,,AMSA13.jpg,AMNE12.jpg,AMSA06.jpg,AMNE17.jpg,AMNE12.jpg,MN,1,num_6,16,num_6,1.80017210892,,,2017_Mar_23_1733,60.0146870472,MAFE4ImagesEEG,001,200072,
AFNE01.JPG,AFNE01.JPG,AFNE01.JPG,AFNE01.JPG,AFNE01.JPG,AFNE01.JPG,,,,,,,,,2,0,20,7,,,,,,,,,,,,,,,AMSA01.jpg,AMSA10.jpg,AMNE13.jpg,AMNE16.jpg,AMSA10.jpg,MS,2,num_6,16,num_6,1.23340067797,,,2017_Mar_23_1733,60.0146870472,MAFE4ImagesEEG,001,200072,
AFNE01.JPG,AFNE01.JPG,AFNE01.JPG,AFNE01.JPG,AFNE01.JPG,AFNE01.JPG,,,,,,,,,2,1,21,1,,,,,,,,,,,,,,,AMSA10.jpg,AMNE18.jpg,AMSA12.jpg,AMNE01.jpg,AMSA10.jpg,MS,2,num_8,32,num_6,0.866830479121,,,2017_Mar_23_1733,60.0146870472,MAFE4ImagesEEG,001,200072,
AFNE01.JPG,AFNE01.JPG,AFNE01.JPG,AFNE01.JPG,AFNE01.JPG,AFNE01.JPG,,,,,,,,,2,2,22,6,,,,,,,,,,,,,,,AMSA04.jpg,AMNE20.jpg,AMSA16.jpg,AMNE10.jpg,AMSA04.jpg,MS,2,num_8,16,num_8,1.08344524476,,,2017_Mar_23_1733,60.0146870472,MAFE4ImagesEEG,001,200072,
AFNE01.JPG,AFNE01.JPG,AFNE01.JPG,AFNE01.JPG,AFNE01.JPG,AFNE01.JPG,,,,,,,,,2,3,23,5,,,,,,,,,,,,,,,AMSA13.jpg,AMSA07.jpg,AMNE06.jpg,AMNE05.jpg,AMSA13.jpg,MS,2,num_8,16,num_8,2.48333131801,,,2017_Mar_23_1733,60.0146870472,MAFE4ImagesEEG,001,200072,
AFNE01.JPG,AFNE01.JPG,AFNE01.JPG,AFNE01.JPG,AFNE01.JPG,AFNE01.JPG,,,,,,,,,2,4,24,9,,,,,,,,,,,,,,,AMNE12.jpg,AMSA01.jpg,AMSA20.jpg,AMNE17.jpg,AMNE17.jpg,MN,1,num_4,32,num_2,1.01677949756,,,2017_Mar_23_1733,60.0146870472,MAFE4ImagesEEG,001,200072,
AFNE01.JPG,AFNE01.JPG,AFNE01.JPG,AFNE01.JPG,AFNE01.JPG,AFNE01.JPG,,,,,,,,,2,5,25,2,,,,,,,,,,,,,,,AMNE09.jpg,AMSA12.jpg,AMSA02.jpg,AMNE05.jpg,AMNE05.jpg,MN,1,num_4,16,num_4,1.98338728707,,,2017_Mar_23_1733,60.0146870472,MAFE4ImagesEEG,001,200072,
AFNE01.JPG,AFNE01.JPG,AFNE01.JPG,AFNE01.JPG,AFNE01.JPG,AFNE01.JPG,,,,,,,,,2,6,26,0,,,,,,,,,,,,,,,AMNE14.jpg,AMNE13.jpg,AMSA10.jpg,AMSA09.jpg,AMSA10.jpg,MS,2,num_2,16,num_2,0.68348219397,,,2017_Mar_23_1733,60.0146870472,MAFE4ImagesEEG,001,200072,
AFNE01.JPG,AFNE01.JPG,AFNE01.JPG,AFNE01.JPG,AFNE01.JPG,AFNE01.JPG,,,,,,,,,2,7,27,8,,,,,,,,,,,,,,,AMSA07.jpg,AMNE03.jpg,AMSA12.jpg,AMNE07.jpg,AMNE03.jpg,MN,1,num_6,16,num_6,1.78344200528,,,2017_Mar_23_1733,60.0146870472,MAFE4ImagesEEG,001,200072,
AFNE01.JPG,AFNE01.JPG,AFNE01.JPG,AFNE01.JPG,AFNE01.JPG,AFNE01.JPG,,,,,,,,,2,8,28,3,,,,,,,,,,,,,,,AMNE10.jpg,AMSA19.jpg,AMNE06.jpg,AMSA13.jpg,AMNE06.jpg,MN,1,num_2,32,num_6,1.23345648672,,,2017_Mar_23_1733,60.0146870472,MAFE4ImagesEEG,001,200072,
AFNE01.JPG,AFNE01.JPG,AFNE01.JPG,AFNE01.JPG,AFNE01.JPG,AFNE01.JPG,,,,,,,,,2,9,29,4,,,,,,,,,,,,,,,AMSA11.jpg,AMSA18.jpg,AMNE07.jpg,AMNE11.jpg,AMNE11.jpg,MN,1,num_4,32,num_6,2.91662371426,,,2017_Mar_23_1733,60.0146870472,MAFE4ImagesEEG,001,200072,
AFNE01.JPG,AFNE01.JPG,AFNE01.JPG,AFNE01.JPG,AFNE01.JPG,AFNE01.JPG,,,,,,,,,3,0,30,5,,,,,,,,,,,,,,,AMNE14.jpg,AMSA06.jpg,AMNE18.jpg,AMSA01.jpg,AMNE14.jpg,MN,1,num_8,16,num_8,1.25009197206,,,2017_Mar_23_1733,60.0146870472,MAFE4ImagesEEG,001,200072,
AFNE01.JPG,AFNE01.JPG,AFNE01.JPG,AFNE01.JPG,AFNE01.JPG,AFNE01.JPG,,,,,,,,,3,1,31,4,,,,,,,,,,,,,,,AMSA11.jpg,AMSA06.jpg,AMNE11.jpg,AMNE17.jpg,AMNE17.jpg,MN,1,num_4,32,num_8,1.31675419118,,,2017_Mar_23_1733,60.0146870472,MAFE4ImagesEEG,001,200072,
AFNE01.JPG,AFNE01.JPG,AFNE01.JPG,AFNE01.JPG,AFNE01.JPG,AFNE01.JPG,,,,,,,,,3,2,32,3,,,,,,,,,,,,,,,AMSA08.jpg,AMNE10.jpg,AMSA01.jpg,AMNE11.jpg,AMSA08.jpg,MS,2,num_8,16,num_8,0.633513834968,,,2017_Mar_23_1733,60.0146870472,MAFE4ImagesEEG,001,200072,
AFNE01.JPG,AFNE01.JPG,AFNE01.JPG,AFNE01.JPG,AFNE01.JPG,AFNE01.JPG,,,,,,,,,3,3,33,1,,,,,,,,,,,,,,,AMSA01.jpg,AMNE11.jpg,AMNE13.jpg,AMSA04.jpg,AMNE13.jpg,MN,1,num_2,16,num_2,1.41675698163,,,2017_Mar_23_1733,60.0146870472,MAFE4ImagesEEG,001,200072,
AFNE01.JPG,AFNE01.JPG,AFNE01.JPG,AFNE01.JPG,AFNE01.JPG,AFNE01.JPG,,,,,,,,,3,4,34,7,,,,,,,,,,,,,,,AMSA16.jpg,AMNE13.jpg,AMNE05.jpg,AMSA19.jpg,AMNE13.jpg,MN,1,num_6,32,num_8,1.38337888377,,,2017_Mar_23_1733,60.0146870472,MAFE4ImagesEEG,001,200072,
AFNE01.JPG,AFNE01.JPG,AFNE01.JPG,AFNE01.JPG,AFNE01.JPG,AFNE01.JPG,,,,,,,,,3,5,35,2,,,,,,,,,,,,,,,AMNE09.jpg,AMSA08.jpg,AMSA07.jpg,AMNE20.jpg,AMNE20.jpg,MN,1,num_4,16,num_4,1.20014831005,,,2017_Mar_23_1733,60.0146870472,MAFE4ImagesEEG,001,200072,
AFNE01.JPG,AFNE01.JPG,AFNE01.JPG,AFNE01.JPG,AFNE01.JPG,AFNE01.JPG,,,,,,,,,3,6,36,8,,,,,,,,,,,,,,,AMSA05.jpg,AMSA09.jpg,AMNE16.jpg,AMNE11.jpg,AMNE11.jpg,MN,1,num_4,32,num_8,1.56671273557,,,2017_Mar_23_1733,60.0146870472,MAFE4ImagesEEG,001,200072,
AFNE01.JPG,AFNE01.JPG,AFNE01.JPG,AFNE01.JPG,AFNE01.JPG,AFNE01.JPG,,,,,,,,,3,7,37,9,,,,,,,,,,,,,,,AMNE04.jpg,AMSA09.jpg,AMNE10.jpg,AMSA18.jpg,AMNE04.jpg,MN,1,num_8,16,num_8,0.816789632896,,,2017_Mar_23_1733,60.0146870472,MAFE4ImagesEEG,001,200072,
AFNE01.JPG,AFNE01.JPG,AFNE01.JPG,AFNE01.JPG,AFNE01.JPG,AFNE01.JPG,,,,,,,,,3,8,38,6,,,,,,,,,,,,,,,AMNE06.jpg,AMNE20.jpg,AMSA17.jpg,AMSA04.jpg,AMNE20.jpg,MN,1,num_6,16,num_6,0.983425775834,,,2017_Mar_23_1733,60.0146870472,MAFE4ImagesEEG,001,200072,
AFNE01.JPG,AFNE01.JPG,AFNE01.JPG,AFNE01.JPG,AFNE01.JPG,AFNE01.JPG,,,,,,,,,3,9,39,0,,,,,,,,,,,,,,,AMSA01.jpg,AMSA10.jpg,AMNE11.jpg,AMNE08.jpg,AMSA01.jpg,MS,2,num_8,16,num_8,1.03350767674,,,2017_Mar_23_1733,60.0146870472,MAFE4ImagesEEG,001,200072,
AFNE01.JPG,AFNE01.JPG,AFNE01.JPG,AFNE01.JPG,AFNE01.JPG,AFNE01.JPG,,,,,,,,,4,0,40,8,,,,,,,,,,,,,,,AMSA17.jpg,AMNE09.jpg,AMSA04.jpg,AMNE02.jpg,AMNE02.jpg,MN,1,num_4,32,num_8,1.61639403255,,,2017_Mar_23_1733,60.0146870472,MAFE4ImagesEEG,001,200072,
AFNE01.JPG,AFNE01.JPG,AFNE01.JPG,AFNE01.JPG,AFNE01.JPG,AFNE01.JPG,,,,,,,,,4,1,41,9,,,,,,,,,,,,,,,AMSA17.jpg,AMNE19.jpg,AMSA09.jpg,AMNE10.jpg,AMSA17.jpg,MS,2,num_8,16,num_8,1.11678870278,,,2017_Mar_23_1733,60.0146870472,MAFE4ImagesEEG,001,200072,
AFNE01.JPG,AFNE01.JPG,AFNE01.JPG,AFNE01.JPG,AFNE01.JPG,AFNE01.JPG,,,,,,,,,4,2,42,5,,,,,,,,,,,,,,,AMSA07.jpg,AMNE05.jpg,AMNE13.jpg,AMSA10.jpg,AMNE13.jpg,MN,1,num_2,16,num_2,3.48355968465,,,2017_Mar_23_1733,60.0146870472,MAFE4ImagesEEG,001,200072,
AFNE01.JPG,AFNE01.JPG,AFNE01.JPG,AFNE01.JPG,AFNE01.JPG,AFNE01.JPG,,,,,,,,,4,3,43,7,,,,,,,,,,,,,,,AMSA12.jpg,AMNE10.jpg,AMSA04.jpg,AMNE11.jpg,AMNE11.jpg,MN,1,num_4,16,num_4,0.883433569863,,,2017_Mar_23_1733,60.0146870472,MAFE4ImagesEEG,001,200072,
AFNE01.JPG,AFNE01.JPG,AFNE01.JPG,AFNE01.JPG,AFNE01.JPG,AFNE01.JPG,,,,,,,,,4,4,44,4,,,,,,,,,,,,,,,AMSA15.jpg,AMNE07.jpg,AMNE15.jpg,AMSA05.jpg,AMNE07.jpg,MN,1,num_6,16,num_6,1.28348161664,,,2017_Mar_23_1733,60.0146870472,MAFE4ImagesEEG,001,200072,
AFNE01.JPG,AFNE01.JPG,AFNE01.JPG,AFNE01.JPG,AFNE01.JPG,AFNE01.JPG,,,,,,,,,4,5,45,3,,,,,,,,,,,,,,,AMNE01.jpg,AMSA07.jpg,AMNE14.jpg,AMSA16.jpg,AMSA16.jpg,MS,2,num_4,16,num_4,1.36671260727,,,2017_Mar_23_1733,60.0146870472,MAFE4ImagesEEG,001,200072,
AFNE01.JPG,AFNE01.JPG,AFNE01.JPG,AFNE01.JPG,AFNE01.JPG,AFNE01.JPG,,,,,,,,,4,6,46,2,,,,,,,,,,,,,,,AMSA09.jpg,AMSA06.jpg,AMNE13.jpg,AMNE07.jpg,AMSA09.jpg,MS,2,num_8,32,num_4,1.26670147758,,,2017_Mar_23_1733,60.0146870472,MAFE4ImagesEEG,001,200072,
AFNE01.JPG,AFNE01.JPG,AFNE01.JPG,AFNE01.JPG,AFNE01.JPG,AFNE01.JPG,,,,,,,,,4,7,47,6,,,,,,,,,,,,,,,AMSA06.jpg,AMSA20.jpg,AMNE03.jpg,AMNE01.jpg,AMNE03.jpg,MN,1,num_2,16,num_2,0.966781309689,,,2017_Mar_23_1733,60.0146870472,MAFE4ImagesEEG,001,200072,
AFNE01.JPG,AFNE01.JPG,AFNE01.JPG,AFNE01.JPG,AFNE01.JPG,AFNE01.JPG,,,,,,,,,4,8,48,1,,,,,,,,,,,,,,,AMNE04.jpg,AMNE19.jpg,AMSA06.jpg,AMSA20.jpg,AMSA06.jpg,MS,2,num_2,16,num_2,0.716816350527,,,2017_Mar_23_1733,60.0146870472,MAFE4ImagesEEG,001,200072,
AFNE01.JPG,AFNE01.JPG,AFNE01.JPG,AFNE01.JPG,AFNE01.JPG,AFNE01.JPG,,,,,,,,,4,9,49,0,,,,,,,,,,,,,,,AMNE02.jpg,AMSA03.jpg,AMSA11.jpg,AMNE07.jpg,AMNE02.jpg,MN,1,num_8,16,num_8,0.583469139878,,,2017_Mar_23_1733,60.0146870472,MAFE4ImagesEEG,001,200072,
AFNE01.JPG,AFNE01.JPG,AFNE01.JPG,AFNE01.JPG,AFNE01.JPG,AFNE01.JPG,,,,,,,,,5,0,50,1,,,,,,,,,,,,,,,AMSA15.jpg,AMNE12.jpg,AMSA13.jpg,AMNE13.jpg,AMSA15.jpg,MS,2,num_8,32,num_6,1.35016211786,,,2017_Mar_23_1733,60.0146870472,MAFE4ImagesEEG,001,200072,
AFNE01.JPG,AFNE01.JPG,AFNE01.JPG,AFNE01.JPG,AFNE01.JPG,AFNE01.JPG,,,,,,,,,5,1,51,6,,,,,,,,,,,,,,,AMNE19.jpg,AMSA12.jpg,AMSA19.jpg,AMNE09.jpg,AMNE19.jpg,MN,1,num_8,16,num_8,1.20013483899,,,2017_Mar_23_1733,60.0146870472,MAFE4ImagesEEG,001,200072,
AFNE01.JPG,AFNE01.JPG,AFNE01.JPG,AFNE01.JPG,AFNE01.JPG,AFNE01.JPG,,,,,,,,,5,2,52,0,,,,,,,,,,,,,,,AMNE13.jpg,AMSA15.jpg,AMNE11.jpg,AMSA09.jpg,AMNE13.jpg,MN,1,num_8,16,num_8,1.30010844208,,,2017_Mar_23_1733,60.0146870472,MAFE4ImagesEEG,001,200072,
AFNE01.JPG,AFNE01.JPG,AFNE01.JPG,AFNE01.JPG,AFNE01.JPG,AFNE01.JPG,,,,,,,,,5,3,53,3,,,,,,,,,,,,,,,AMSA03.jpg,AMNE03.jpg,AMNE14.jpg,AMSA05.jpg,AMSA05.jpg,MS,2,num_4,16,num_4,1.03377741884,,,2017_Mar_23_1733,60.0146870472,MAFE4ImagesEEG,001,200072,
AFNE01.JPG,AFNE01.JPG,AFNE01.JPG,AFNE01.JPG,AFNE01.JPG,AFNE01.JPG,,,,,,,,,5,4,54,5,,,,,,,,,,,,,,,AMSA07.jpg,AMNE01.jpg,AMSA19.jpg,AMNE18.jpg,AMNE01.jpg,MN,1,num_6,16,num_6,0.533512648253,,,2017_Mar_23_1733,60.0146870472,MAFE4ImagesEEG,001,200072,
AFNE01.JPG,AFNE01.JPG,AFNE01.JPG,AFNE01.JPG,AFNE01.JPG,AFNE01.JPG,,,,,,,,,5,5,55,7,,,,,,,,,,,,,,,AMSA02.jpg,AMNE04.jpg,AMNE13.jpg,AMSA07.jpg,AMSA07.jpg,MS,2,num_4,16,num_4,1.00011771143,,,2017_Mar_23_1733,60.0146870472,MAFE4ImagesEEG,001,200072,
AFNE01.JPG,AFNE01.JPG,AFNE01.JPG,AFNE01.JPG,AFNE01.JPG,AFNE01.JPG,,,,,,,,,5,6,56,9,,,,,,,,,,,,,,,AMNE10.jpg,AMSA03.jpg,AMSA15.jpg,AMNE08.jpg,AMNE08.jpg,MN,1,num_4,16,num_4,0.700043588527,,,2017_Mar_23_1733,60.0146870472,MAFE4ImagesEEG,001,200072,
AFNE01.JPG,AFNE01.JPG,AFNE01.JPG,AFNE01.JPG,AFNE01.JPG,AFNE01.JPG,,,,,,,,,5,7,57,8,,,,,,,,,,,,,,,AMSA12.jpg,AMNE07.jpg,AMSA19.jpg,AMNE05.jpg,AMNE07.jpg,MN,1,num_6,32,num_8,1.25011827273,,,2017_Mar_23_1733,60.0146870472,MAFE4ImagesEEG,001,200072,
AFNE01.JPG,AFNE01.JPG,AFNE01.JPG,AFNE01.JPG,AFNE01.JPG,AFNE01.JPG,,,,,,,,,5,8,58,2,,,,,,,,,,,,,,,AMNE20.jpg,AMNE16.jpg,AMSA07.jpg,AMSA19.jpg,AMSA19.jpg,MS,2,num_4,32,num_2,1.21674209932,,,2017_Mar_23_1733,60.0146870472,MAFE4ImagesEEG,001,200072,
AFNE01.JPG,AFNE01.JPG,AFNE01.JPG,AFNE01.JPG,AFNE01.JPG,AFNE01.JPG,,,,,,,,,5,9,59,4,,,,,,,,,,,,,,,AMSA12.jpg,AMSA04.jpg,AMNE11.jpg,AMNE06.jpg,AMSA04.jpg,MS,2,num_6,32,num_4,1.33342078835,,,2017_Mar_23_1733,60.0146870472,MAFE4ImagesEEG,001,200072,
,,,,,,,,,,,,,,,,,,,,,,,,,,,,,,,,,,,,,,,,,,,space,7.89960205823,2017_Mar_23_1733,60.0146870472,MAFE4ImagesEEG,001,200072,
AFNE01.JPG,AFNE01.JPG,AFNE01.JPG,AFNE01.JPG,AFNE01.JPG,AFNE01.JPG,,,,,,,,,,,,,0,0,0,5,,,,,,,,,,,AFSA03.jpg,AFNE18.jpg,AFNE20.jpg,AFSA16.jpg,AFSA16.jpg,FS,4,num_4,16,num_4,1.28344312788,,,2017_Mar_23_1733,60.0146870472,MAFE4ImagesEEG,001,200072,
AFNE01.JPG,AFNE01.JPG,AFNE01.JPG,AFNE01.JPG,AFNE01.JPG,AFNE01.JPG,,,,,,,,,,,,,0,1,1,3,,,,,,,,,,,AFNE11.jpg,AFSA04.jpg,AFSA03.jpg,AFNE13.jpg,AFNE13.jpg,FN,3,num_4,32,num_8,2.86663579009,,,2017_Mar_23_1733,60.0146870472,MAFE4ImagesEEG,001,200072,
AFNE01.JPG,AFNE01.JPG,AFNE01.JPG,AFNE01.JPG,AFNE01.JPG,AFNE01.JPG,,,,,,,,,,,,,0,2,2,8,,,,,,,,,,,AFNE09.jpg,AFSA20.jpg,AFSA11.jpg,AFNE16.jpg,AFSA20.jpg,FS,4,num_6,16,num_6,1.85007054667,,,2017_Mar_23_1733,60.0146870472,MAFE4ImagesEEG,001,200072,
AFNE01.JPG,AFNE01.JPG,AFNE01.JPG,AFNE01.JPG,AFNE01.JPG,AFNE01.JPG,,,,,,,,,,,,,0,3,3,7,,,,,,,,,,,AFSA17.jpg,AFNE07.jpg,AFSA09.jpg,AFNE17.jpg,AFNE17.jpg,FN,3,num_4,16,num_4,1.45009338338,,,2017_Mar_23_1733,60.0146870472,MAFE4ImagesEEG,001,200072,
AFNE01.JPG,AFNE01.JPG,AFNE01.JPG,AFNE01.JPG,AFNE01.JPG,AFNE01.JPG,,,,,,,,,,,,,0,4,4,9,,,,,,,,,,,AFSA02.jpg,AFNE20.jpg,AFSA14.jpg,AFNE12.jpg,AFSA02.jpg,FS,4,num_8,16,num_8,1.15013376449,,,2017_Mar_23_1733,60.0146870472,MAFE4ImagesEEG,001,200072,
AFNE01.JPG,AFNE01.JPG,AFNE01.JPG,AFNE01.JPG,AFNE01.JPG,AFNE01.JPG,,,,,,,,,,,,,0,5,5,6,,,,,,,,,,,AFSA01.jpg,AFNE09.jpg,AFSA18.jpg,AFNE10.jpg,AFNE09.jpg,FN,3,num_6,16,num_6,0.70019144949,,,2017_Mar_23_1733,60.0146870472,MAFE4ImagesEEG,001,200072,
AFNE01.JPG,AFNE01.JPG,AFNE01.JPG,AFNE01.JPG,AFNE01.JPG,AFNE01.JPG,,,,,,,,,,,,,0,6,6,1,,,,,,,,,,,AFNE16.jpg,AFSA06.jpg,AFNE14.jpg,AFSA02.jpg,AFNE14.jpg,FN,3,num_2,16,num_2,0.766773483716,,,2017_Mar_23_1733,60.0146870472,MAFE4ImagesEEG,001,200072,
AFNE01.JPG,AFNE01.JPG,AFNE01.JPG,AFNE01.JPG,AFNE01.JPG,AFNE01.JPG,,,,,,,,,,,,,0,7,7,0,,,,,,,,,,,AFSA14.jpg,AFNE10.jpg,AFNE02.jpg,AFSA07.jpg,AFNE02.jpg,FN,3,num_2,16,num_2,0.700148470409,,,2017_Mar_23_1733,60.0146870472,MAFE4ImagesEEG,001,200072,
AFNE01.JPG,AFNE01.JPG,AFNE01.JPG,AFNE01.JPG,AFNE01.JPG,AFNE01.JPG,,,,,,,,,,,,,0,8,8,2,,,,,,,,,,,AFNE11.jpg,AFNE05.jpg,AFSA20.jpg,AFSA03.jpg,AFNE11.jpg,FN,3,num_8,16,num_8,1.4000980822,,,2017_Mar_23_1733,60.0146870472,MAFE4ImagesEEG,001,200072,
AFNE01.JPG,AFNE01.JPG,AFNE01.JPG,AFNE01.JPG,AFNE01.JPG,AFNE01.JPG,,,,,,,,,,,,,0,9,9,4,,,,,,,,,,,AFSA05.jpg,AFNE14.jpg,AFNE09.jpg,AFSA02.jpg,AFNE14.jpg,FN,3,num_6,16,num_6,0.68347000581,,,2017_Mar_23_1733,60.0146870472,MAFE4ImagesEEG,001,200072,
AFNE01.JPG,AFNE01.JPG,AFNE01.JPG,AFNE01.JPG,AFNE01.JPG,AFNE01.JPG,,,,,,,,,,,,,1,0,10,8,,,,,,,,,,,AFNE08.jpg,AFNE02.jpg,AFSA06.jpg,AFSA08.jpg,AFSA08.jpg,FS,4,num_4,32,num_2,2.54970936169,,,2017_Mar_23_1733,60.0146870472,MAFE4ImagesEEG,001,200072,
AFNE01.JPG,AFNE01.JPG,AFNE01.JPG,AFNE01.JPG,AFNE01.JPG,AFNE01.JPG,,,,,,,,,,,,,1,1,11,2,,,,,,,,,,,AFSA04.jpg,AFNE16.jpg,AFNE10.jpg,AFSA07.jpg,AFNE16.jpg,FN,3,num_6,16,num_6,1.31675483269,,,2017_Mar_23_1733,60.0146870472,MAFE4ImagesEEG,001,200072,
AFNE01.JPG,AFNE01.JPG,AFNE01.JPG,AFNE01.JPG,AFNE01.JPG,AFNE01.JPG,,,,,,,,,,,,,1,2,12,3,,,,,,,,,,,AFNE14.jpg,AFSA13.jpg,AFNE03.jpg,AFSA02.jpg,AFNE14.jpg,FN,3,num_8,16,num_8,2.15004139143,,,2017_Mar_23_1733,60.0146870472,MAFE4ImagesEEG,001,200072,
AFNE01.JPG,AFNE01.JPG,AFNE01.JPG,AFNE01.JPG,AFNE01.JPG,AFNE01.JPG,,,,,,,,,,,,,1,3,13,0,,,,,,,,,,,AFNE03.jpg,AFNE15.jpg,AFSA04.jpg,AFSA15.jpg,AFSA04.jpg,FS,4,num_2,16,num_2,0.683470326592,,,2017_Mar_23_1733,60.0146870472,MAFE4ImagesEEG,001,200072,
AFNE01.JPG,AFNE01.JPG,AFNE01.JPG,AFNE01.JPG,AFNE01.JPG,AFNE01.JPG,,,,,,,,,,,,,1,4,14,7,,,,,,,,,,,AFNE06.jpg,AFSA11.jpg,AFNE03.jpg,AFSA17.jpg,AFSA11.jpg,FS,4,num_6,16,num_6,1.11674957251,,,2017_Mar_23_1733,60.0146870472,MAFE4ImagesEEG,001,200072,
AFNE01.JPG,AFNE01.JPG,AFNE01.JPG,AFNE01.JPG,AFNE01.JPG,AFNE01.JPG,,,,,,,,,,,,,1,5,15,6,,,,,,,,,,,AFSA14.jpg,AFSA01.jpg,AFNE18.jpg,AFNE09.jpg,AFNE18.jpg,FN,3,num_2,32,num_8,1.05012937036,,,2017_Mar_23_1733,60.0146870472,MAFE4ImagesEEG,001,200072,
AFNE01.JPG,AFNE01.JPG,AFNE01.JPG,AFNE01.JPG,AFNE01.JPG,AFNE01.JPG,,,,,,,,,,,,,1,6,16,4,,,,,,,,,,,AFNE20.jpg,AFSA14.jpg,AFSA12.jpg,AFNE08.jpg,AFSA12.jpg,FS,4,num_2,16,num_2,0.850157787907,,,2017_Mar_23_1733,60.0146870472,MAFE4ImagesEEG,001,200072,
AFNE01.JPG,AFNE01.JPG,AFNE01.JPG,AFNE01.JPG,AFNE01.JPG,AFNE01.JPG,,,,,,,,,,,,,1,7,17,5,,,,,,,,,,,AFNE05.jpg,AFSA13.jpg,AFNE03.jpg,AFSA09.jpg,AFNE05.jpg,FN,3,num_8,32,num_6,1.41674511426,,,2017_Mar_23_1733,60.0146870472,MAFE4ImagesEEG,001,200072,
AFNE01.JPG,AFNE01.JPG,AFNE01.JPG,AFNE01.JPG,AFNE01.JPG,AFNE01.JPG,,,,,,,,,,,,,1,8,18,9,,,,,,,,,,,AFNE14.jpg,AFNE08.jpg,AFSA12.jpg,AFSA14.jpg,AFNE08.jpg,FN,3,num_6,16,num_6,0.950141975423,,,2017_Mar_23_1733,60.0146870472,MAFE4ImagesEEG,001,200072,
AFNE01.JPG,AFNE01.JPG,AFNE01.JPG,AFNE01.JPG,AFNE01.JPG,AFNE01.JPG,,,,,,,,,,,,,1,9,19,1,,,,,,,,,,,AFNE11.jpg,AFSA12.jpg,AFSA04.jpg,AFNE17.jpg,AFSA04.jpg,FS,4,num_2,16,num_2,0.757775452046,,,2017_Mar_23_1733,60.0146870472,MAFE4ImagesEEG,001,200072,
AFNE01.JPG,AFNE01.JPG,AFNE01.JPG,AFNE01.JPG,AFNE01.JPG,AFNE01.JPG,,,,,,,,,,,,,2,0,20,1,,,,,,,,,,,AFNE05.jpg,AFSA20.jpg,AFNE14.jpg,AFSA04.jpg,AFSA20.jpg,FS,4,num_6,32,num_8,1.28344376932,,,2017_Mar_23_1733,60.0146870472,MAFE4ImagesEEG,001,200072,
AFNE01.JPG,AFNE01.JPG,AFNE01.JPG,AFNE01.JPG,AFNE01.JPG,AFNE01.JPG,,,,,,,,,,,,,2,1,21,4,,,,,,,,,,,AFSA19.jpg,AFNE12.jpg,AFNE11.jpg,AFSA11.jpg,AFSA11.jpg,FS,4,num_4,32,num_8,1.36673698353,,,2017_Mar_23_1733,60.0146870472,MAFE4ImagesEEG,001,200072,
AFNE01.JPG,AFNE01.JPG,AFNE01.JPG,AFNE01.JPG,AFNE01.JPG,AFNE01.JPG,,,,,,,,,,,,,2,2,22,3,,,,,,,,,,,AFNE09.jpg,AFSA11.jpg,AFNE16.jpg,AFSA16.jpg,AFNE16.jpg,FN,3,num_2,16,num_2,1.16676892916,,,2017_Mar_23_1733,60.0146870472,MAFE4ImagesEEG,001,200072,
AFNE01.JPG,AFNE01.JPG,AFNE01.JPG,AFNE01.JPG,AFNE01.JPG,AFNE01.JPG,,,,,,,,,,,,,2,3,23,5,,,,,,,,,,,AFSA15.jpg,AFNE02.jpg,AFSA13.jpg,AFNE07.jpg,AFNE02.jpg,FN,3,num_6,16,num_6,0.766776691074,,,2017_Mar_23_1733,60.0146870472,MAFE4ImagesEEG,001,200072,
AFNE01.JPG,AFNE01.JPG,AFNE01.JPG,AFNE01.JPG,AFNE01.JPG,AFNE01.JPG,,,,,,,,,,,,,2,4,24,9,,,,,,,,,,,AFNE02.jpg,AFNE11.jpg,AFSA03.jpg,AFSA04.jpg,AFSA03.jpg,FS,4,num_2,32,num_6,1.18346278922,,,2017_Mar_23_1733,60.0146870472,MAFE4ImagesEEG,001,200072,
AFNE01.JPG,AFNE01.JPG,AFNE01.JPG,AFNE01.JPG,AFNE01.JPG,AFNE01.JPG,,,,,,,,,,,,,2,5,25,0,,,,,,,,,,,AFSA19.jpg,AFSA15.jpg,AFNE07.jpg,AFNE15.jpg,AFSA15.jpg,FS,4,num_6,16,num_6,0.833362894831,,,2017_Mar_23_1733,60.0146870472,MAFE4ImagesEEG,001,200072,
AFNE01.JPG,AFNE01.JPG,AFNE01.JPG,AFNE01.JPG,AFNE01.JPG,AFNE01.JPG,,,,,,,,,,,,,2,6,26,2,,,,,,,,,,,AFSA17.jpg,AFSA12.jpg,AFNE15.jpg,AFNE03.jpg,AFNE15.jpg,FN,3,num_2,32,num_8,1.46675388649,,,2017_Mar_23_1733,60.0146870472,MAFE4ImagesEEG,001,200072,
AFNE01.JPG,AFNE01.JPG,AFNE01.JPG,AFNE01.JPG,AFNE01.JPG,AFNE01.JPG,,,,,,,,,,,,,2,7,27,8,,,,,,,,,,,AFNE16.jpg,AFNE11.jpg,AFSA18.jpg,AFSA15.jpg,AFNE16.jpg,FN,3,num_8,32,num_6,1.15017963032,,,2017_Mar_23_1733,60.0146870472,MAFE4ImagesEEG,001,200072,
AFNE01.JPG,AFNE01.JPG,AFNE01.JPG,AFNE01.JPG,AFNE01.JPG,AFNE01.JPG,,,,,,,,,,,,,2,8,28,7,,,,,,,,,,,AFNE19.jpg,AFNE04.jpg,AFSA19.jpg,AFSA13.jpg,AFSA13.jpg,FS,4,num_4,32,num_8,1.3000994614,,,2017_Mar_23_1733,60.0146870472,MAFE4ImagesEEG,001,200072,
AFNE01.JPG,AFNE01.JPG,AFNE01.JPG,AFNE01.JPG,AFNE01.JPG,AFNE01.JPG,,,,,,,,,,,,,2,9,29,6,,,,,,,,,,,AFSA02.jpg,AFSA15.jpg,AFNE11.jpg,AFNE13.jpg,AFNE11.jpg,FN,3,num_2,16,num_2,0.833526472095,,,2017_Mar_23_1733,60.0146870472,MAFE4ImagesEEG,001,200072,
AFNE01.JPG,AFNE01.JPG,AFNE01.JPG,AFNE01.JPG,AFNE01.JPG,AFNE01.JPG,,,,,,,,,,,,,3,0,30,3,,,,,,,,,,,AFNE02.jpg,AFSA04.jpg,AFSA06.jpg,AFNE06.jpg,AFSA06.jpg,FS,4,num_2,32,num_4,1.60010398383,,,2017_Mar_23_1733,60.0146870472,MAFE4ImagesEEG,001,200072,
AFNE01.JPG,AFNE01.JPG,AFNE01.JPG,AFNE01.JPG,AFNE01.JPG,AFNE01.JPG,,,,,,,,,,,,,3,1,31,8,,,,,,,,,,,AFNE17.jpg,AFSA04.jpg,AFNE02.jpg,AFSA16.jpg,AFNE17.jpg,FN,3,num_8,16,num_8,0.966490078077,,,2017_Mar_23_1733,60.0146870472,MAFE4ImagesEEG,001,200072,
AFNE01.JPG,AFNE01.JPG,AFNE01.JPG,AFNE01.JPG,AFNE01.JPG,AFNE01.JPG,,,,,,,,,,,,,3,2,32,6,,,,,,,,,,,AFSA13.jpg,AFSA05.jpg,AFNE15.jpg,AFNE07.jpg,AFNE07.jpg,FN,3,num_4,32,num_8,1.10012114339,,,2017_Mar_23_1733,60.0146870472,MAFE4ImagesEEG,001,200072,
AFNE01.JPG,AFNE01.JPG,AFNE01.JPG,AFNE01.JPG,AFNE01.JPG,AFNE01.JPG,,,,,,,,,,,,,3,3,33,2,,,,,,,,,,,AFNE04.jpg,AFNE07.jpg,AFSA11.jpg,AFSA05.jpg,AFNE07.jpg,FN,3,num_6,16,num_6,0.850134053151,,,2017_Mar_23_1733,60.0146870472,MAFE4ImagesEEG,001,200072,
AFNE01.JPG,AFNE01.JPG,AFNE01.JPG,AFNE01.JPG,AFNE01.JPG,AFNE01.JPG,,,,,,,,,,,,,3,4,34,5,,,,,,,,,,,AFNE16.jpg,AFSA10.jpg,AFNE04.jpg,AFSA07.jpg,AFSA10.jpg,FS,4,num_6,32,num_4,1.11674764805,,,2017_Mar_23_1733,60.0146870472,MAFE4ImagesEEG,001,200072,
AFNE01.JPG,AFNE01.JPG,AFNE01.JPG,AFNE01.JPG,AFNE01.JPG,AFNE01.JPG,,,,,,,,,,,,,3,5,35,0,,,,,,,,,,,AFNE13.jpg,AFNE03.jpg,AFSA12.jpg,AFSA06.jpg,AFSA06.jpg,FS,4,num_4,16,num_4,0.967086974648,,,2017_Mar_23_1733,60.0146870472,MAFE4ImagesEEG,001,200072,
AFNE01.JPG,AFNE01.JPG,AFNE01.JPG,AFNE01.JPG,AFNE01.JPG,AFNE01.JPG,,,,,,,,,,,,,3,6,36,9,,,,,,,,,,,AFNE08.jpg,AFSA02.jpg,AFNE11.jpg,AFSA14.jpg,AFNE11.jpg,FN,3,num_2,32,num_4,2.33334477304,,,2017_Mar_23_1733,60.0146870472,MAFE4ImagesEEG,001,200072,
AFNE01.JPG,AFNE01.JPG,AFNE01.JPG,AFNE01.JPG,AFNE01.JPG,AFNE01.JPG,,,,,,,,,,,,,3,7,37,4,,,,,,,,,,,AFNE03.jpg,AFSA06.jpg,AFSA12.jpg,AFNE13.jpg,AFSA06.jpg,FS,4,num_6,32,num_4,1.20009699173,,,2017_Mar_23_1733,60.0146870472,MAFE4ImagesEEG,001,200072,
AFNE01.JPG,AFNE01.JPG,AFNE01.JPG,AFNE01.JPG,AFNE01.JPG,AFNE01.JPG,,,,,,,,,,,,,3,8,38,1,,,,,,,,,,,AFNE06.jpg,AFSA02.jpg,AFNE08.jpg,AFSA17.jpg,AFSA02.jpg,FS,4,num_6,16,num_6,0.916743029491,,,2017_Mar_23_1733,60.0146870472,MAFE4ImagesEEG,001,200072,
AFNE01.JPG,AFNE01.JPG,AFNE01.JPG,AFNE01.JPG,AFNE01.JPG,AFNE01.JPG,,,,,,,,,,,,,3,9,39,7,,,,,,,,,,,AFNE03.jpg,AFSA12.jpg,AFNE16.jpg,AFSA15.jpg,AFSA15.jpg,FS,4,num_4,16,num_4,0.700146866671,,,2017_Mar_23_1733,60.0146870472,MAFE4ImagesEEG,001,200072,
AFNE01.JPG,AFNE01.JPG,AFNE01.JPG,AFNE01.JPG,AFNE01.JPG,AFNE01.JPG,,,,,,,,,,,,,4,0,40,2,,,,,,,,,,,AFNE15.jpg,AFSA15.jpg,AFNE17.jpg,AFSA14.jpg,AFNE17.jpg,FN,3,num_2,32,num_4,1.40011379845,,,2017_Mar_23_1733,60.0146870472,MAFE4ImagesEEG,001,200072,
AFNE01.JPG,AFNE01.JPG,AFNE01.JPG,AFNE01.JPG,AFNE01.JPG,AFNE01.JPG,,,,,,,,,,,,,4,1,41,0,,,,,,,,,,,AFNE17.jpg,AFSA08.jpg,AFSA11.jpg,AFNE01.jpg,AFSA08.jpg,FS,4,num_6,16,num_6,0.616790466825,,,2017_Mar_23_1733,60.0146870472,MAFE4ImagesEEG,001,200072,
AFNE01.JPG,AFNE01.JPG,AFNE01.JPG,AFNE01.JPG,AFNE01.JPG,AFNE01.JPG,,,,,,,,,,,,,4,2,42,6,,,,,,,,,,,AFSA14.jpg,AFNE13.jpg,AFNE20.jpg,AFSA06.jpg,AFNE13.jpg,FN,3,num_6,32,num_4,0.916811667732,,,2017_Mar_23_1733,60.0146870472,MAFE4ImagesEEG,001,200072,
AFNE01.JPG,AFNE01.JPG,AFNE01.JPG,AFNE01.JPG,AFNE01.JPG,AFNE01.JPG,,,,,,,,,,,,,4,3,43,3,,,,,,,,,,,AFSA10.jpg,AFNE08.jpg,AFNE02.jpg,AFSA06.jpg,AFNE08.jpg,FN,3,num_6,16,num_6,0.733493211388,,,2017_Mar_23_1733,60.0146870472,MAFE4ImagesEEG,001,200072,
AFNE01.JPG,AFNE01.JPG,AFNE01.JPG,AFNE01.JPG,AFNE01.JPG,AFNE01.JPG,,,,,,,,,,,,,4,4,44,7,,,,,,,,,,,AFNE15.jpg,AFNE12.jpg,AFSA16.jpg,AFSA06.jpg,AFSA06.jpg,FS,4,num_4,16,num_4,1.48338327784,,,2017_Mar_23_1733,60.0146870472,MAFE4ImagesEEG,001,200072,
AFNE01.JPG,AFNE01.JPG,AFNE01.JPG,AFNE01.JPG,AFNE01.JPG,AFNE01.JPG,,,,,,,,,,,,,4,5,45,9,,,,,,,,,,,AFNE01.jpg,AFSA12.jpg,AFSA06.jpg,AFNE14.jpg,AFSA12.jpg,FS,4,num_6,16,num_6,0.633483364654,,,2017_Mar_23_1733,60.0146870472,MAFE4ImagesEEG,001,200072,
AFNE01.JPG,AFNE01.JPG,AFNE01.JPG,AFNE01.JPG,AFNE01.JPG,AFNE01.JPG,,,,,,,,,,,,,4,6,46,5,,,,,,,,,,,AFSA10.jpg,AFNE12.jpg,AFNE19.jpg,AFSA19.jpg,AFNE19.jpg,FN,3,num_2,16,num_2,0.750161091506,,,2017_Mar_23_1733,60.0146870472,MAFE4ImagesEEG,001,200072,
AFNE01.JPG,AFNE01.JPG,AFNE01.JPG,AFNE01.JPG,AFNE01.JPG,AFNE01.JPG,,,,,,,,,,,,,4,7,47,1,,,,,,,,,,,AFSA01.jpg,AFNE01.jpg,AFNE17.jpg,AFSA19.jpg,AFNE17.jpg,FN,3,num_2,32,num_8,0.933468963485,,,2017_Mar_23_1733,60.0146870472,MAFE4ImagesEEG,001,200072,
AFNE01.JPG,AFNE01.JPG,AFNE01.JPG,AFNE01.JPG,AFNE01.JPG,AFNE01.JPG,,,,,,,,,,,,,4,8,48,8,,,,,,,,,,,AFSA17.jpg,AFSA10.jpg,AFNE06.jpg,AFNE03.jpg,AFNE06.jpg,FN,3,num_2,16,num_2,1.66669179127,,,2017_Mar_23_1733,60.0146870472,MAFE4ImagesEEG,001,200072,
AFNE01.JPG,AFNE01.JPG,AFNE01.JPG,AFNE01.JPG,AFNE01.JPG,AFNE01.JPG,,,,,,,,,,,,,4,9,49,4,,,,,,,,,,,AFSA05.jpg,AFNE15.jpg,AFSA19.jpg,AFNE11.jpg,AFSA19.jpg,FS,4,num_2,32,num_4,1.36667540146,,,2017_Mar_23_1733,60.0146870472,MAFE4ImagesEEG,001,200072,
AFNE01.JPG,AFNE01.JPG,AFNE01.JPG,AFNE01.JPG,AFNE01.JPG,AFNE01.JPG,,,,,,,,,,,,,5,0,50,7,,,,,,,,,,,AFNE20.jpg,AFNE18.jpg,AFSA11.jpg,AFSA17.jpg,AFNE18.jpg,FN,3,num_6,16,num_6,1.06674978102,,,2017_Mar_23_1733,60.0146870472,MAFE4ImagesEEG,001,200072,
AFNE01.JPG,AFNE01.JPG,AFNE01.JPG,AFNE01.JPG,AFNE01.JPG,AFNE01.JPG,,,,,,,,,,,,,5,1,51,0,,,,,,,,,,,AFSA17.jpg,AFNE03.jpg,AFSA11.jpg,AFNE04.jpg,AFNE03.jpg,FN,3,num_6,32,num_8,1.93341636215,,,2017_Mar_23_1733,60.0146870472,MAFE4ImagesEEG,001,200072,
AFNE01.JPG,AFNE01.JPG,AFNE01.JPG,AFNE01.JPG,AFNE01.JPG,AFNE01.JPG,,,,,,,,,,,,,5,2,52,1,,,,,,,,,,,AFSA15.jpg,AFNE08.jpg,AFSA02.jpg,AFNE10.jpg,AFSA15.jpg,FS,4,num_8,16,num_8,1.05023200711,,,2017_Mar_23_1733,60.0146870472,MAFE4ImagesEEG,001,200072,
AFNE01.JPG,AFNE01.JPG,AFNE01.JPG,AFNE01.JPG,AFNE01.JPG,AFNE01.JPG,,,,,,,,,,,,,5,3,53,4,,,,,,,,,,,AFNE16.jpg,AFSA14.jpg,AFSA10.jpg,AFNE18.jpg,AFSA14.jpg,FS,4,num_6,32,num_2,0.916815837321,,,2017_Mar_23_1733,60.0146870472,MAFE4ImagesEEG,001,200072,
AFNE01.JPG,AFNE01.JPG,AFNE01.JPG,AFNE01.JPG,AFNE01.JPG,AFNE01.JPG,,,,,,,,,,,,,5,4,54,3,,,,,,,,,,,AFNE20.jpg,AFSA13.jpg,AFNE06.jpg,AFSA14.jpg,AFSA14.jpg,FS,4,num_4,32,num_6,2.20004182443,,,2017_Mar_23_1733,60.0146870472,MAFE4ImagesEEG,001,200072,
AFNE01.JPG,AFNE01.JPG,AFNE01.JPG,AFNE01.JPG,AFNE01.JPG,AFNE01.JPG,,,,,,,,,,,,,5,5,55,9,,,,,,,,,,,AFSA02.jpg,AFNE19.jpg,AFSA06.jpg,AFNE08.jpg,AFSA02.jpg,FS,4,num_8,16,num_8,0.916741746478,,,2017_Mar_23_1733,60.0146870472,MAFE4ImagesEEG,001,200072,
AFNE01.JPG,AFNE01.JPG,AFNE01.JPG,AFNE01.JPG,AFNE01.JPG,AFNE01.JPG,,,,,,,,,,,,,5,6,56,2,,,,,,,,,,,AFNE12.jpg,AFSA07.jpg,AFNE18.jpg,AFSA14.jpg,AFNE18.jpg,FN,3,num_2,32,num_8,0.900301270827,,,2017_Mar_23_1733,60.0146870472,MAFE4ImagesEEG,001,200072,
AFNE01.JPG,AFNE01.JPG,AFNE01.JPG,AFNE01.JPG,AFNE01.JPG,AFNE01.JPG,,,,,,,,,,,,,5,7,57,6,,,,,,,,,,,AFSA20.jpg,AFNE14.jpg,AFSA08.jpg,AFNE11.jpg,AFNE14.jpg,FN,3,num_6,16,num_6,0.716862216301,,,2017_Mar_23_1733,60.0146870472,MAFE4ImagesEEG,001,200072,
AFNE01.JPG,AFNE01.JPG,AFNE01.JPG,AFNE01.JPG,AFNE01.JPG,AFNE01.JPG,,,,,,,,,,,,,5,8,58,5,,,,,,,,,,,AFNE19.jpg,AFSA10.jpg,AFNE07.jpg,AFSA17.jpg,AFSA10.jpg,FS,4,num_6,32,num_4,1.16676572181,,,2017_Mar_23_1733,60.0146870472,MAFE4ImagesEEG,001,200072,
AFNE01.JPG,AFNE01.JPG,AFNE01.JPG,AFNE01.JPG,AFNE01.JPG,AFNE01.JPG,,,,,,,,,,,,,5,9,59,8,,,,,,,,,,,AFNE15.jpg,AFSA14.jpg,AFSA04.jpg,AFNE17.jpg,AFNE17.jpg,FN,3,num_4,32,num_6,1.25009999063,,,2017_Mar_23_1733,60.0146870472,MAFE4ImagesEEG,001,200072,
,,,,,,,,,,,,,,,,,,,,,,,,,,,,,,,,,,,,,,,,,,,space,6.81632263592,2017_Mar_23_1733,60.0146870472,MAFE4ImagesEEG,001,200072,
AFNE01.JPG,AFNE01.JPG,AFNE01.JPG,AFNE01.JPG,AFNE01.JPG,AFNE01.JPG,,,,,,,,,,,,,,,,,0,0,0,0,,,,,,,AMSA10.jpg,AMNE04.jpg,AMSA02.jpg,AMNE12.jpg,AMNE12.jpg,MN,1,num_4,16,num_4,1.11675630807,,,2017_Mar_23_1733,60.0146870472,MAFE4ImagesEEG,001,200072,
AFNE01.JPG,AFNE01.JPG,AFNE01.JPG,AFNE01.JPG,AFNE01.JPG,AFNE01.JPG,,,,,,,,,,,,,,,,,0,1,1,3,,,,,,,AMNE03.jpg,AMNE05.jpg,AMSA17.jpg,AMSA02.jpg,AMNE05.jpg,MN,1,num_6,32,num_8,0.80021733325,,,2017_Mar_23_1733,60.0146870472,MAFE4ImagesEEG,001,200072,
AFNE01.JPG,AFNE01.JPG,AFNE01.JPG,AFNE01.JPG,AFNE01.JPG,AFNE01.JPG,,,,,,,,,,,,,,,,,0,2,2,9,,,,,,,AMNE18.jpg,AMSA11.jpg,AMSA04.jpg,AMNE08.jpg,AMSA11.jpg,MS,2,num_6,32,num_2,0.866797442897,,,2017_Mar_23_1733,60.0146870472,MAFE4ImagesEEG,001,200072,
AFNE01.JPG,AFNE01.JPG,AFNE01.JPG,AFNE01.JPG,AFNE01.JPG,AFNE01.JPG,,,,,,,,,,,,,,,,,0,3,3,8,,,,,,,AMNE13.jpg,AMNE08.jpg,AMSA01.jpg,AMSA15.jpg,AMSA01.jpg,MS,2,num_2,16,num_2,0.700141093344,,,2017_Mar_23_1733,60.0146870472,MAFE4ImagesEEG,001,200072,
AFNE01.JPG,AFNE01.JPG,AFNE01.JPG,AFNE01.JPG,AFNE01.JPG,AFNE01.JPG,,,,,,,,,,,,,,,,,0,4,4,1,,,,,,,AMSA19.jpg,AMSA14.jpg,AMNE10.jpg,AMNE02.jpg,AMSA19.jpg,MS,2,num_8,16,num_8,1.5834694606,,,2017_Mar_23_1733,60.0146870472,MAFE4ImagesEEG,001,200072,
AFNE01.JPG,AFNE01.JPG,AFNE01.JPG,AFNE01.JPG,AFNE01.JPG,AFNE01.JPG,,,,,,,,,,,,,,,,,0,5,5,5,,,,,,,AMSA11.jpg,AMNE12.jpg,AMSA02.jpg,AMNE20.jpg,AMNE12.jpg,MN,1,num_6,16,num_6,0.650157338823,,,2017_Mar_23_1733,60.0146870472,MAFE4ImagesEEG,001,200072,
AFNE01.JPG,AFNE01.JPG,AFNE01.JPG,AFNE01.JPG,AFNE01.JPG,AFNE01.JPG,,,,,,,,,,,,,,,,,0,6,6,7,,,,,,,AMSA11.jpg,AMSA13.jpg,AMNE07.jpg,AMNE19.jpg,AMSA13.jpg,MS,2,num_6,16,num_6,1.68339880166,,,2017_Mar_23_1733,60.0146870472,MAFE4ImagesEEG,001,200072,
AFNE01.JPG,AFNE01.JPG,AFNE01.JPG,AFNE01.JPG,AFNE01.JPG,AFNE01.JPG,,,,,,,,,,,,,,,,,0,7,7,2,,,,,,,AMNE01.jpg,AMSA14.jpg,AMNE17.jpg,AMSA03.jpg,AMSA03.jpg,MS,2,num_4,32,num_2,2.65000659117,,,2017_Mar_23_1733,60.0146870472,MAFE4ImagesEEG,001,200072,
AFNE01.JPG,AFNE01.JPG,AFNE01.JPG,AFNE01.JPG,AFNE01.JPG,AFNE01.JPG,,,,,,,,,,,,,,,,,0,8,8,6,,,,,,,AMSA10.jpg,AMNE05.jpg,AMSA02.jpg,AMNE18.jpg,AMNE18.jpg,MN,1,num_4,16,num_4,0.700168677024,,,2017_Mar_23_1733,60.0146870472,MAFE4ImagesEEG,001,200072,
AFNE01.JPG,AFNE01.JPG,AFNE01.JPG,AFNE01.JPG,AFNE01.JPG,AFNE01.JPG,,,,,,,,,,,,,,,,,0,9,9,4,,,,,,,AMSA07.jpg,AMNE15.jpg,AMNE19.jpg,AMSA18.jpg,AMNE19.jpg,MN,1,num_2,16,num_2,1.05015021848,,,2017_Mar_23_1733,60.0146870472,MAFE4ImagesEEG,001,200072,
AFNE01.JPG,AFNE01.JPG,AFNE01.JPG,AFNE01.JPG,AFNE01.JPG,AFNE01.JPG,,,,,,,,,,,,,,,,,1,0,10,5,,,,,,,AMNE06.jpg,AMNE11.jpg,AMSA03.jpg,AMSA20.jpg,AMNE11.jpg,MN,1,num_6,16,num_6,0.933477623446,,,2017_Mar_23_1733,60.0146870472,MAFE4ImagesEEG,001,200072,
AFNE01.JPG,AFNE01.JPG,AFNE01.JPG,AFNE01.JPG,AFNE01.JPG,AFNE01.JPG,,,,,,,,,,,,,,,,,1,1,11,7,,,,,,,AMSA17.jpg,AMNE01.jpg,AMNE06.jpg,AMSA01.jpg,AMSA01.jpg,MS,2,num_4,32,num_6,1.21671932674,,,2017_Mar_23_1733,60.0146870472,MAFE4ImagesEEG,001,200072,
AFNE01.JPG,AFNE01.JPG,AFNE01.JPG,AFNE01.JPG,AFNE01.JPG,AFNE01.JPG,,,,,,,,,,,,,,,,,1,2,12,8,,,,,,,AMSA15.jpg,AMNE17.jpg,AMSA09.jpg,AMNE15.jpg,AMSA15.jpg,MS,2,num_8,16,num_8,0.616814522306,,,2017_Mar_23_1733,60.0146870472,MAFE4ImagesEEG,001,200072,
AFNE01.JPG,AFNE01.JPG,AFNE01.JPG,AFNE01.JPG,AFNE01.JPG,AFNE01.JPG,,,,,,,,,,,,,,,,,1,3,13,6,,,,,,,AMNE03.jpg,AMNE20.jpg,AMSA10.jpg,AMSA20.jpg,AMSA10.jpg,MS,2,num_2,16,num_2,1.9333756282,,,2017_Mar_23_1733,60.0146870472,MAFE4ImagesEEG,001,200072,
AFNE01.JPG,AFNE01.JPG,AFNE01.JPG,AFNE01.JPG,AFNE01.JPG,AFNE01.JPG,,,,,,,,,,,,,,,,,1,4,14,9,,,,,,,AMNE06.jpg,AMNE01.jpg,AMSA04.jpg,AMSA02.jpg,AMSA02.jpg,MS,2,num_4,32,num_2,1.41670309735,,,2017_Mar_23_1733,60.0146870472,MAFE4ImagesEEG,001,200072,
AFNE01.JPG,AFNE01.JPG,AFNE01.JPG,AFNE01.JPG,AFNE01.JPG,AFNE01.JPG,,,,,,,,,,,,,,,,,1,5,15,3,,,,,,,AMNE20.jpg,AMNE05.jpg,AMSA07.jpg,AMSA18.jpg,AMSA07.jpg,MS,2,num_2,32,num_4,1.01675832871,,,2017_Mar_23_1733,60.0146870472,MAFE4ImagesEEG,001,200072,
AFNE01.JPG,AFNE01.JPG,AFNE01.JPG,AFNE01.JPG,AFNE01.JPG,AFNE01.JPG,,,,,,,,,,,,,,,,,1,6,16,4,,,,,,,AMSA03.jpg,AMNE06.jpg,AMNE11.jpg,AMSA19.jpg,AMSA03.jpg,MS,2,num_8,16,num_8,0.700116396416,,,2017_Mar_23_1733,60.0146870472,MAFE4ImagesEEG,001,200072,
AFNE01.JPG,AFNE01.JPG,AFNE01.JPG,AFNE01.JPG,AFNE01.JPG,AFNE01.JPG,,,,,,,,,,,,,,,,,1,7,17,2,,,,,,,AMNE07.jpg,AMNE12.jpg,AMSA03.jpg,AMSA04.jpg,AMNE12.jpg,MN,1,num_6,32,num_8,1.01672272664,,,2017_Mar_23_1733,60.0146870472,MAFE4ImagesEEG,001,200072,
AFNE01.JPG,AFNE01.JPG,AFNE01.JPG,AFNE01.JPG,AFNE01.JPG,AFNE01.JPG,,,,,,,,,,,,,,,,,1,8,18,1,,,,,,,AMSA10.jpg,AMNE04.jpg,AMNE06.jpg,AMSA03.jpg,AMNE06.jpg,MN,1,num_2,16,num_2,1.81668635475,,,2017_Mar_23_1733,60.0146870472,MAFE4ImagesEEG,001,200072,
AFNE01.JPG,AFNE01.JPG,AFNE01.JPG,AFNE01.JPG,AFNE01.JPG,AFNE01.JPG,,,,,,,,,,,,,,,,,1,9,19,0,,,,,,,AMNE14.jpg,AMNE18.jpg,AMSA03.jpg,AMSA11.jpg,AMSA11.jpg,MS,2,num_4,16,num_4,2.13344503631,,,2017_Mar_23_1733,60.0146870472,MAFE4ImagesEEG,001,200072,
AFNE01.JPG,AFNE01.JPG,AFNE01.JPG,AFNE01.JPG,AFNE01.JPG,AFNE01.JPG,,,,,,,,,,,,,,,,,2,0,20,4,,,,,,,AMSA06.jpg,AMNE18.jpg,AMNE09.jpg,AMSA02.jpg,AMSA06.jpg,MS,2,num_8,16,num_8,1.06677255355,,,2017_Mar_23_1733,60.0146870472,MAFE4ImagesEEG,001,200072,
AFNE01.JPG,AFNE01.JPG,AFNE01.JPG,AFNE01.JPG,AFNE01.JPG,AFNE01.JPG,,,,,,,,,,,,,,,,,2,1,21,6,,,,,,,AMSA11.jpg,AMNE11.jpg,AMSA07.jpg,AMNE02.jpg,AMNE11.jpg,MN,1,num_6,16,num_6,0.516787034925,,,2017_Mar_23_1733,60.0146870472,MAFE4ImagesEEG,001,200072,
AFNE01.JPG,AFNE01.JPG,AFNE01.JPG,AFNE01.JPG,AFNE01.JPG,AFNE01.JPG,,,,,,,,,,,,,,,,,2,2,22,7,,,,,,,AMSA12.jpg,AMNE13.jpg,AMNE06.jpg,AMSA08.jpg,AMNE06.jpg,MN,1,num_2,16,num_2,0.966773932741,,,2017_Mar_23_1733,60.0146870472,MAFE4ImagesEEG,001,200072,
AFNE01.JPG,AFNE01.JPG,AFNE01.JPG,AFNE01.JPG,AFNE01.JPG,AFNE01.JPG,,,,,,,,,,,,,,,,,2,3,23,8,,,,,,,AMSA08.jpg,AMNE19.jpg,AMNE20.jpg,AMSA09.jpg,AMNE20.jpg,MN,1,num_2,32,num_4,1.03308718698,,,2017_Mar_23_1733,60.0146870472,MAFE4ImagesEEG,001,200072,
AFNE01.JPG,AFNE01.JPG,AFNE01.JPG,AFNE01.JPG,AFNE01.JPG,AFNE01.JPG,,,,,,,,,,,,,,,,,2,4,24,3,,,,,,,AMSA16.jpg,AMNE06.jpg,AMNE18.jpg,AMSA08.jpg,AMSA16.jpg,MS,2,num_8,16,num_8,1.26679256774,,,2017_Mar_23_1733,60.0146870472,MAFE4ImagesEEG,001,200072,
AFNE01.JPG,AFNE01.JPG,AFNE01.JPG,AFNE01.JPG,AFNE01.JPG,AFNE01.JPG,,,,,,,,,,,,,,,,,2,5,25,9,,,,,,,AMNE04.jpg,AMNE20.jpg,AMSA05.jpg,AMSA12.jpg,AMNE04.jpg,MN,1,num_8,16,num_8,0.966781951196,,,2017_Mar_23_1733,60.0146870472,MAFE4ImagesEEG,001,200072,
AFNE01.JPG,AFNE01.JPG,AFNE01.JPG,AFNE01.JPG,AFNE01.JPG,AFNE01.JPG,,,,,,,,,,,,,,,,,2,6,26,1,,,,,,,AMNE09.jpg,AMSA04.jpg,AMSA09.jpg,AMNE11.jpg,AMNE11.jpg,MN,1,num_4,32,num_8,1.98339723004,,,2017_Mar_23_1733,60.0146870472,MAFE4ImagesEEG,001,200072,
AFNE01.JPG,AFNE01.JPG,AFNE01.JPG,AFNE01.JPG,AFNE01.JPG,AFNE01.JPG,,,,,,,,,,,,,,,,,2,7,27,5,,,,,,,AMSA03.jpg,AMSA02.jpg,AMNE13.jpg,AMNE20.jpg,AMSA02.jpg,MS,2,num_6,16,num_6,1.51674886688,,,2017_Mar_23_1733,60.0146870472,MAFE4ImagesEEG,001,200072,
AFNE01.JPG,AFNE01.JPG,AFNE01.JPG,AFNE01.JPG,AFNE01.JPG,AFNE01.JPG,,,,,,,,,,,,,,,,,2,8,28,0,,,,,,,AMSA05.jpg,AMNE19.jpg,AMNE03.jpg,AMSA03.jpg,AMNE03.jpg,MN,1,num_2,32,num_4,1.33362542029,,,2017_Mar_23_1733,60.0146870472,MAFE4ImagesEEG,001,200072,
AFNE01.JPG,AFNE01.JPG,AFNE01.JPG,AFNE01.JPG,AFNE01.JPG,AFNE01.JPG,,,,,,,,,,,,,,,,,2,9,29,2,,,,,,,AMNE08.jpg,AMSA08.jpg,AMNE01.jpg,AMSA02.jpg,AMSA02.jpg,MS,2,num_4,32,num_2,1.4500991567,,,2017_Mar_23_1733,60.0146870472,MAFE4ImagesEEG,001,200072,
AFNE01.JPG,AFNE01.JPG,AFNE01.JPG,AFNE01.JPG,AFNE01.JPG,AFNE01.JPG,,,,,,,,,,,,,,,,,3,0,30,7,,,,,,,AMSA05.jpg,AMNE18.jpg,AMSA10.jpg,AMNE09.jpg,AMNE09.jpg,MN,1,num_4,16,num_4,0.716802558687,,,2017_Mar_23_1733,60.0146870472,MAFE4ImagesEEG,001,200072,
AFNE01.JPG,AFNE01.JPG,AFNE01.JPG,AFNE01.JPG,AFNE01.JPG,AFNE01.JPG,,,,,,,,,,,,,,,,,3,1,31,8,,,,,,,AMSA10.jpg,AMNE20.jpg,AMSA05.jpg,AMNE09.jpg,AMSA10.jpg,MS,2,num_8,32,num_4,2.23335160478,,,2017_Mar_23_1733,60.0146870472,MAFE4ImagesEEG,001,200072,
AFNE01.JPG,AFNE01.JPG,AFNE01.JPG,AFNE01.JPG,AFNE01.JPG,AFNE01.JPG,,,,,,,,,,,,,,,,,3,2,32,2,,,,,,,AMNE04.jpg,AMSA07.jpg,AMNE11.jpg,AMSA06.jpg,AMSA06.jpg,MS,2,num_4,32,num_8,1.15024409897,,,2017_Mar_23_1733,60.0146870472,MAFE4ImagesEEG,001,200072,
AFNE01.JPG,AFNE01.JPG,AFNE01.JPG,AFNE01.JPG,AFNE01.JPG,AFNE01.JPG,,,,,,,,,,,,,,,,,3,3,33,1,,,,,,,AMSA20.jpg,AMNE13.jpg,AMNE04.jpg,AMSA16.jpg,AMSA20.jpg,MS,2,num_8,32,num_6,0.933452285011,,,2017_Mar_23_1733,60.0146870472,MAFE4ImagesEEG,001,200072,
AFNE01.JPG,AFNE01.JPG,AFNE01.JPG,AFNE01.JPG,AFNE01.JPG,AFNE01.JPG,,,,,,,,,,,,,,,,,3,4,34,0,,,,,,,AMSA16.jpg,AMNE05.jpg,AMSA01.jpg,AMNE10.jpg,AMNE10.jpg,MN,1,num_4,32,num_6,1.01677340351,,,2017_Mar_23_1733,60.0146870472,MAFE4ImagesEEG,001,200072,
AFNE01.JPG,AFNE01.JPG,AFNE01.JPG,AFNE01.JPG,AFNE01.JPG,AFNE01.JPG,,,,,,,,,,,,,,,,,3,5,35,5,,,,,,,AMSA15.jpg,AMSA11.jpg,AMNE02.jpg,AMNE03.jpg,AMNE03.jpg,MN,1,num_4,16,num_4,1.58326450794,,,2017_Mar_23_1733,60.0146870472,MAFE4ImagesEEG,001,200072,
AFNE01.JPG,AFNE01.JPG,AFNE01.JPG,AFNE01.JPG,AFNE01.JPG,AFNE01.JPG,,,,,,,,,,,,,,,,,3,6,36,3,,,,,,,AMSA17.jpg,AMNE05.jpg,AMSA03.jpg,AMNE04.jpg,AMSA17.jpg,MS,2,num_8,16,num_8,0.600145679957,,,2017_Mar_23_1733,60.0146870472,MAFE4ImagesEEG,001,200072,
AFNE01.JPG,AFNE01.JPG,AFNE01.JPG,AFNE01.JPG,AFNE01.JPG,AFNE01.JPG,,,,,,,,,,,,,,,,,3,7,37,9,,,,,,,AMSA15.jpg,AMNE08.jpg,AMSA19.jpg,AMNE16.jpg,AMSA19.jpg,MS,2,num_2,16,num_2,1.11677587318,,,2017_Mar_23_1733,60.0146870472,MAFE4ImagesEEG,001,200072,
AFNE01.JPG,AFNE01.JPG,AFNE01.JPG,AFNE01.JPG,AFNE01.JPG,AFNE01.JPG,,,,,,,,,,,,,,,,,3,8,38,4,,,,,,,AMNE08.jpg,AMNE02.jpg,AMSA09.jpg,AMSA03.jpg,AMNE02.jpg,MN,1,num_6,16,num_6,0.600215921993,,,2017_Mar_23_1733,60.0146870472,MAFE4ImagesEEG,001,200072,
AFNE01.JPG,AFNE01.JPG,AFNE01.JPG,AFNE01.JPG,AFNE01.JPG,AFNE01.JPG,,,,,,,,,,,,,,,,,3,9,39,6,,,,,,,AMSA02.jpg,AMNE02.jpg,AMSA03.jpg,AMNE17.jpg,AMNE02.jpg,MN,1,num_6,32,num_8,1.61672343226,,,2017_Mar_23_1733,60.0146870472,MAFE4ImagesEEG,001,200072,
AFNE01.JPG,AFNE01.JPG,AFNE01.JPG,AFNE01.JPG,AFNE01.JPG,AFNE01.JPG,,,,,,,,,,,,,,,,,4,0,40,9,,,,,,,AMSA12.jpg,AMNE13.jpg,AMSA16.jpg,AMNE04.jpg,AMSA12.jpg,MS,2,num_8,16,num_8,1.15014274517,,,2017_Mar_23_1733,60.0146870472,MAFE4ImagesEEG,001,200072,
AFNE01.JPG,AFNE01.JPG,AFNE01.JPG,AFNE01.JPG,AFNE01.JPG,AFNE01.JPG,,,,,,,,,,,,,,,,,4,1,41,3,,,,,,,AMNE14.jpg,AMSA19.jpg,AMSA09.jpg,AMNE08.jpg,AMSA19.jpg,MS,2,num_6,16,num_6,1.083453584,,,2017_Mar_23_1733,60.0146870472,MAFE4ImagesEEG,001,200072,
AFNE01.JPG,AFNE01.JPG,AFNE01.JPG,AFNE01.JPG,AFNE01.JPG,AFNE01.JPG,,,,,,,,,,,,,,,,,4,2,42,6,,,,,,,AMNE16.jpg,AMSA12.jpg,AMSA06.jpg,AMNE11.jpg,AMNE16.jpg,MN,1,num_8,16,num_8,0.800147732662,,,2017_Mar_23_1733,60.0146870472,MAFE4ImagesEEG,001,200072,
AFNE01.JPG,AFNE01.JPG,AFNE01.JPG,AFNE01.JPG,AFNE01.JPG,AFNE01.JPG,,,,,,,,,,,,,,,,,4,3,43,7,,,,,,,AMSA18.jpg,AMNE10.jpg,AMNE15.jpg,AMSA07.jpg,AMSA07.jpg,MS,2,num_4,32,num_6,0.900146353524,,,2017_Mar_23_1733,60.0146870472,MAFE4ImagesEEG,001,200072,
AFNE01.JPG,AFNE01.JPG,AFNE01.JPG,AFNE01.JPG,AFNE01.JPG,AFNE01.JPG,,,,,,,,,,,,,,,,,4,4,44,2,,,,,,,AMNE17.jpg,AMNE03.jpg,AMSA06.jpg,AMSA17.jpg,AMNE03.jpg,MN,1,num_6,16,num_6,1.24974621471,,,2017_Mar_23_1733,60.0146870472,MAFE4ImagesEEG,001,200072,
AFNE01.JPG,AFNE01.JPG,AFNE01.JPG,AFNE01.JPG,AFNE01.JPG,AFNE01.JPG,,,,,,,,,,,,,,,,,4,5,45,8,,,,,,,AMSA03.jpg,AMNE20.jpg,AMNE14.jpg,AMSA10.jpg,AMNE14.jpg,MN,1,num_2,16,num_2,0.666793145007,,,2017_Mar_23_1733,60.0146870472,MAFE4ImagesEEG,001,200072,
AFNE01.JPG,AFNE01.JPG,AFNE01.JPG,AFNE01.JPG,AFNE01.JPG,AFNE01.JPG,,,,,,,,,,,,,,,,,4,6,46,0,,,,,,,AMSA19.jpg,AMSA17.jpg,AMNE16.jpg,AMNE19.jpg,AMSA19.jpg,MS,2,num_8,32,num_6,1.10013750114,,,2017_Mar_23_1733,60.0146870472,MAFE4ImagesEEG,001,200072,
AFNE01.JPG,AFNE01.JPG,AFNE01.JPG,AFNE01.JPG,AFNE01.JPG,AFNE01.JPG,,,,,,,,,,,,,,,,,4,7,47,5,,,,,,,AMNE08.jpg,AMSA03.jpg,AMNE03.jpg,AMSA17.jpg,AMNE08.jpg,MN,1,num_8,16,num_8,0.600022195198,,,2017_Mar_23_1733,60.0146870472,MAFE4ImagesEEG,001,200072,
AFNE01.JPG,AFNE01.JPG,AFNE01.JPG,AFNE01.JPG,AFNE01.JPG,AFNE01.JPG,,,,,,,,,,,,,,,,,4,8,48,4,,,,,,,AMNE16.jpg,AMNE19.jpg,AMSA12.jpg,AMSA15.jpg,AMNE16.jpg,MN,1,num_8,16,num_8,0.633482081699,,,2017_Mar_23_1733,60.0146870472,MAFE4ImagesEEG,001,200072,
AFNE01.JPG,AFNE01.JPG,AFNE01.JPG,AFNE01.JPG,AFNE01.JPG,AFNE01.JPG,,,,,,,,,,,,,,,,,4,9,49,1,,,,,,,AMSA20.jpg,AMSA12.jpg,AMNE03.jpg,AMNE19.jpg,AMSA12.jpg,MS,2,num_6,32,num_8,2.31652293785,,,2017_Mar_23_1733,60.0146870472,MAFE4ImagesEEG,001,200072,
AFNE01.JPG,AFNE01.JPG,AFNE01.JPG,AFNE01.JPG,AFNE01.JPG,AFNE01.JPG,,,,,,,,,,,,,,,,,5,0,50,8,,,,,,,AMNE06.jpg,AMSA07.jpg,AMSA06.jpg,AMNE15.jpg,AMNE06.jpg,MN,1,num_8,32,num_2,1.25017087412,,,2017_Mar_23_1733,60.0146870472,MAFE4ImagesEEG,001,200072,
AFNE01.JPG,AFNE01.JPG,AFNE01.JPG,AFNE01.JPG,AFNE01.JPG,AFNE01.JPG,,,,,,,,,,,,,,,,,5,1,51,3,,,,,,,AMNE16.jpg,AMNE11.jpg,AMSA10.jpg,AMSA14.jpg,AMNE16.jpg,MN,1,num_8,16,num_8,0.916762915323,,,2017_Mar_23_1733,60.0146870472,MAFE4ImagesEEG,001,200072,
AFNE01.JPG,AFNE01.JPG,AFNE01.JPG,AFNE01.JPG,AFNE01.JPG,AFNE01.JPG,,,,,,,,,,,,,,,,,5,2,52,1,,,,,,,AMNE19.jpg,AMSA12.jpg,AMNE05.jpg,AMSA07.jpg,AMSA07.jpg,MS,2,num_4,32,num_8,0.966776498593,,,2017_Mar_23_1733,60.0146870472,MAFE4ImagesEEG,001,200072,
AFNE01.JPG,AFNE01.JPG,AFNE01.JPG,AFNE01.JPG,AFNE01.JPG,AFNE01.JPG,,,,,,,,,,,,,,,,,5,3,53,7,,,,,,,AMSA19.jpg,AMNE06.jpg,AMSA20.jpg,AMNE07.jpg,AMNE06.jpg,MN,1,num_6,32,num_4,1.15011131275,,,2017_Mar_23_1733,60.0146870472,MAFE4ImagesEEG,001,200072,
AFNE01.JPG,AFNE01.JPG,AFNE01.JPG,AFNE01.JPG,AFNE01.JPG,AFNE01.JPG,,,,,,,,,,,,,,,,,5,4,54,9,,,,,,,AMSA17.jpg,AMNE07.jpg,AMNE08.jpg,AMSA01.jpg,AMNE07.jpg,MN,1,num_6,32,num_8,1.35009123443,,,2017_Mar_23_1733,60.0146870472,MAFE4ImagesEEG,001,200072,
AFNE01.JPG,AFNE01.JPG,AFNE01.JPG,AFNE01.JPG,AFNE01.JPG,AFNE01.JPG,,,,,,,,,,,,,,,,,5,5,55,5,,,,,,,AMNE13.jpg,AMNE02.jpg,AMSA05.jpg,AMSA08.jpg,AMNE13.jpg,MN,1,num_8,16,num_8,1.45012064622,,,2017_Mar_23_1733,60.0146870472,MAFE4ImagesEEG,001,200072,
AFNE01.JPG,AFNE01.JPG,AFNE01.JPG,AFNE01.JPG,AFNE01.JPG,AFNE01.JPG,,,,,,,,,,,,,,,,,5,6,56,0,,,,,,,AMNE04.jpg,AMSA16.jpg,AMSA14.jpg,AMNE15.jpg,AMNE04.jpg,MN,1,num_8,16,num_8,1.06679404312,,,2017_Mar_23_1733,60.0146870472,MAFE4ImagesEEG,001,200072,
AFNE01.JPG,AFNE01.JPG,AFNE01.JPG,AFNE01.JPG,AFNE01.JPG,AFNE01.JPG,,,,,,,,,,,,,,,,,5,7,57,4,,,,,,,AMSA11.jpg,AMSA14.jpg,AMNE12.jpg,AMNE11.jpg,AMSA11.jpg,MS,2,num_8,16,num_8,2.36674788862,,,2017_Mar_23_1733,60.0146870472,MAFE4ImagesEEG,001,200072,
AFNE01.JPG,AFNE01.JPG,AFNE01.JPG,AFNE01.JPG,AFNE01.JPG,AFNE01.JPG,,,,,,,,,,,,,,,,,5,8,58,2,,,,,,,AMNE10.jpg,AMSA17.jpg,AMSA01.jpg,AMNE03.jpg,AMNE03.jpg,MN,1,num_4,16,num_4,1.1667304404,,,2017_Mar_23_1733,60.0146870472,MAFE4ImagesEEG,001,200072,
AFNE01.JPG,AFNE01.JPG,AFNE01.JPG,AFNE01.JPG,AFNE01.JPG,AFNE01.JPG,,,,,,,,,,,,,,,,,5,9,59,6,,,,,,,AMNE07.jpg,AMSA16.jpg,AMNE02.jpg,AMSA13.jpg,AMNE07.jpg,MN,1,num_8,16,num_8,1.91669908806,,,2017_Mar_23_1733,60.0146870472,MAFE4ImagesEEG,001,200072,
,,,,,,,,,,,,,,,,,,,,,,,,,,,,,,,,,,,,,,,,,,,space,4.83311047271,2017_Mar_23_1733,60.0146870472,MAFE4ImagesEEG,001,200072,
AFNE01.JPG,AFNE01.JPG,AFNE01.JPG,AFNE01.JPG,AFNE01.JPG,AFNE01.JPG,,,,,,,,,,,,,,,,,,,,,0,0,0,4,,,AFNE16.jpg,AFNE17.jpg,AFSA10.jpg,AFSA18.jpg,AFSA10.jpg,FS,4,num_2,16,num_2,1.15009784169,,,2017_Mar_23_1733,60.0146870472,MAFE4ImagesEEG,001,200072,
AFNE01.JPG,AFNE01.JPG,AFNE01.JPG,AFNE01.JPG,AFNE01.JPG,AFNE01.JPG,,,,,,,,,,,,,,,,,,,,,0,1,1,9,,,AFSA11.jpg,AFNE17.jpg,AFSA07.jpg,AFNE13.jpg,AFSA11.jpg,FS,4,num_8,16,num_8,0.65013649076,,,2017_Mar_23_1733,60.0146870472,MAFE4ImagesEEG,001,200072,
AFNE01.JPG,AFNE01.JPG,AFNE01.JPG,AFNE01.JPG,AFNE01.JPG,AFNE01.JPG,,,,,,,,,,,,,,,,,,,,,0,2,2,7,,,AFSA20.jpg,AFNE16.jpg,AFNE03.jpg,AFSA14.jpg,AFNE16.jpg,FN,3,num_6,32,num_4,1.2668153402,,,2017_Mar_23_1733,60.0146870472,MAFE4ImagesEEG,001,200072,
AFNE01.JPG,AFNE01.JPG,AFNE01.JPG,AFNE01.JPG,AFNE01.JPG,AFNE01.JPG,,,,,,,,,,,,,,,,,,,,,0,3,3,0,,,AFSA02.jpg,AFNE03.jpg,AFSA10.jpg,AFNE02.jpg,AFSA10.jpg,FS,4,num_2,32,num_6,1.38340101478,,,2017_Mar_23_1733,60.0146870472,MAFE4ImagesEEG,001,200072,
AFNE01.JPG,AFNE01.JPG,AFNE01.JPG,AFNE01.JPG,AFNE01.JPG,AFNE01.JPG,,,,,,,,,,,,,,,,,,,,,0,4,4,8,,,AFSA20.jpg,AFNE07.jpg,AFNE02.jpg,AFSA09.jpg,AFSA20.jpg,FS,4,num_8,16,num_8,1.53311493096,,,2017_Mar_23_1733,60.0146870472,MAFE4ImagesEEG,001,200072,
AFNE01.JPG,AFNE01.JPG,AFNE01.JPG,AFNE01.JPG,AFNE01.JPG,AFNE01.JPG,,,,,,,,,,,,,,,,,,,,,0,5,5,5,,,AFNE03.jpg,AFSA20.jpg,AFNE17.jpg,AFSA07.jpg,AFNE17.jpg,FN,3,num_2,32,num_8,1.39999929437,,,2017_Mar_23_1733,60.0146870472,MAFE4ImagesEEG,001,200072,
AFNE01.JPG,AFNE01.JPG,AFNE01.JPG,AFNE01.JPG,AFNE01.JPG,AFNE01.JPG,,,,,,,,,,,,,,,,,,,,,0,6,6,3,,,AFNE09.jpg,AFSA10.jpg,AFNE14.jpg,AFSA07.jpg,AFNE14.jpg,FN,3,num_2,32,num_6,2.21669334685,,,2017_Mar_23_1733,60.0146870472,MAFE4ImagesEEG,001,200072,
AFNE01.JPG,AFNE01.JPG,AFNE01.JPG,AFNE01.JPG,AFNE01.JPG,AFNE01.JPG,,,,,,,,,,,,,,,,,,,,,0,7,7,2,,,AFSA11.jpg,AFNE01.jpg,AFNE16.jpg,AFSA05.jpg,AFSA11.jpg,FS,4,num_8,16,num_8,1.10011023824,,,2017_Mar_23_1733,60.0146870472,MAFE4ImagesEEG,001,200072,
AFNE01.JPG,AFNE01.JPG,AFNE01.JPG,AFNE01.JPG,AFNE01.JPG,AFNE01.JPG,,,,,,,,,,,,,,,,,,,,,0,8,8,1,,,AFSA10.jpg,AFNE02.jpg,AFNE18.jpg,AFSA17.jpg,AFSA17.jpg,FS,4,num_4,32,num_8,1.21673760895,,,2017_Mar_23_1733,60.0146870472,MAFE4ImagesEEG,001,200072,
AFNE01.JPG,AFNE01.JPG,AFNE01.JPG,AFNE01.JPG,AFNE01.JPG,AFNE01.JPG,,,,,,,,,,,,,,,,,,,,,0,9,9,6,,,AFSA19.jpg,AFNE15.jpg,AFNE19.jpg,AFSA17.jpg,AFNE19.jpg,FN,3,num_2,16,num_2,0.583543872228,,,2017_Mar_23_1733,60.0146870472,MAFE4ImagesEEG,001,200072,
AFNE01.JPG,AFNE01.JPG,AFNE01.JPG,AFNE01.JPG,AFNE01.JPG,AFNE01.JPG,,,,,,,,,,,,,,,,,,,,,1,0,10,1,,,AFSA05.jpg,AFNE08.jpg,AFNE07.jpg,AFSA04.jpg,AFSA04.jpg,FS,4,num_4,32,num_8,1.41671175731,,,2017_Mar_23_1733,60.0146870472,MAFE4ImagesEEG,001,200072,
AFNE01.JPG,AFNE01.JPG,AFNE01.JPG,AFNE01.JPG,AFNE01.JPG,AFNE01.JPG,,,,,,,,,,,,,,,,,,,,,1,1,11,0,,,AFSA03.jpg,AFNE07.jpg,AFNE06.jpg,AFSA20.jpg,AFSA03.jpg,FS,4,num_8,32,num_4,0.800133620156,,,2017_Mar_23_1733,60.0146870472,MAFE4ImagesEEG,001,200072,
AFNE01.JPG,AFNE01.JPG,AFNE01.JPG,AFNE01.JPG,AFNE01.JPG,AFNE01.JPG,,,,,,,,,,,,,,,,,,,,,1,2,12,5,,,AFNE12.jpg,AFSA11.jpg,AFNE01.jpg,AFSA01.jpg,AFSA11.jpg,FS,4,num_6,16,num_6,1.81671393831,,,2017_Mar_23_1733,60.0146870472,MAFE4ImagesEEG,001,200072,
AFNE01.JPG,AFNE01.JPG,AFNE01.JPG,AFNE01.JPG,AFNE01.JPG,AFNE01.JPG,,,,,,,,,,,,,,,,,,,,,1,3,13,9,,,AFSA05.jpg,AFNE08.jpg,AFNE14.jpg,AFSA12.jpg,AFNE08.jpg,FN,3,num_6,16,num_6,0.916804290726,,,2017_Mar_23_1733,60.0146870472,MAFE4ImagesEEG,001,200072,
AFNE01.JPG,AFNE01.JPG,AFNE01.JPG,AFNE01.JPG,AFNE01.JPG,AFNE01.JPG,,,,,,,,,,,,,,,,,,,,,1,4,14,2,,,AFSA15.jpg,AFSA10.jpg,AFNE06.jpg,AFNE05.jpg,AFNE06.jpg,FN,3,num_2,32,num_6,1.55010258855,,,2017_Mar_23_1733,60.0146870472,MAFE4ImagesEEG,001,200072,
AFNE01.JPG,AFNE01.JPG,AFNE01.JPG,AFNE01.JPG,AFNE01.JPG,AFNE01.JPG,,,,,,,,,,,,,,,,,,,,,1,5,15,4,,,AFNE04.jpg,AFSA12.jpg,AFNE17.jpg,AFSA20.jpg,AFSA12.jpg,FS,4,num_6,16,num_6,0.483539157314,,,2017_Mar_23_1733,60.0146870472,MAFE4ImagesEEG,001,200072,
AFNE01.JPG,AFNE01.JPG,AFNE01.JPG,AFNE01.JPG,AFNE01.JPG,AFNE01.JPG,,,,,,,,,,,,,,,,,,,,,1,6,16,3,,,AFSA20.jpg,AFSA03.jpg,AFNE20.jpg,AFNE08.jpg,AFSA03.jpg,FS,4,num_6,32,num_8,1.06677319499,,,2017_Mar_23_1733,60.0146870472,MAFE4ImagesEEG,001,200072,
AFNE01.JPG,AFNE01.JPG,AFNE01.JPG,AFNE01.JPG,AFNE01.JPG,AFNE01.JPG,,,,,,,,,,,,,,,,,,,,,1,7,17,8,,,AFNE17.jpg,AFSA19.jpg,AFSA12.jpg,AFNE04.jpg,AFNE04.jpg,FN,3,num_4,32,num_8,1.96673512319,,,2017_Mar_23_1733,60.0146870472,MAFE4ImagesEEG,001,200072,
AFNE01.JPG,AFNE01.JPG,AFNE01.JPG,AFNE01.JPG,AFNE01.JPG,AFNE01.JPG,,,,,,,,,,,,,,,,,,,,,1,8,18,7,,,AFSA03.jpg,AFNE10.jpg,AFNE16.jpg,AFSA18.jpg,AFSA03.jpg,FS,4,num_8,16,num_8,1.15011965198,,,2017_Mar_23_1733,60.0146870472,MAFE4ImagesEEG,001,200072,
AFNE01.JPG,AFNE01.JPG,AFNE01.JPG,AFNE01.JPG,AFNE01.JPG,AFNE01.JPG,,,,,,,,,,,,,,,,,,,,,1,9,19,6,,,AFNE16.jpg,AFNE12.jpg,AFSA19.jpg,AFSA01.jpg,AFNE12.jpg,FN,3,num_6,16,num_6,1.65008805908,,,2017_Mar_23_1733,60.0146870472,MAFE4ImagesEEG,001,200072,
AFNE01.JPG,AFNE01.JPG,AFNE01.JPG,AFNE01.JPG,AFNE01.JPG,AFNE01.JPG,,,,,,,,,,,,,,,,,,,,,2,0,20,5,,,AFNE15.jpg,AFSA19.jpg,AFSA02.jpg,AFNE11.jpg,AFNE11.jpg,FN,3,num_4,16,num_4,1.15013504744,,,2017_Mar_23_1733,60.0146870472,MAFE4ImagesEEG,001,200072,
AFNE01.JPG,AFNE01.JPG,AFNE01.JPG,AFNE01.JPG,AFNE01.JPG,AFNE01.JPG,,,,,,,,,,,,,,,,,,,,,2,1,21,4,,,AFSA12.jpg,AFNE17.jpg,AFNE13.jpg,AFSA19.jpg,AFNE17.jpg,FN,3,num_6,16,num_6,1.10010895529,,,2017_Mar_23_1733,60.0146870472,MAFE4ImagesEEG,001,200072,
AFNE01.JPG,AFNE01.JPG,AFNE01.JPG,AFNE01.JPG,AFNE01.JPG,AFNE01.JPG,,,,,,,,,,,,,,,,,,,,,2,2,22,2,,,AFNE02.jpg,AFSA05.jpg,AFSA14.jpg,AFNE06.jpg,AFSA05.jpg,FS,4,num_6,16,num_6,0.666786409449,,,2017_Mar_23_1733,60.0146870472,MAFE4ImagesEEG,001,200072,
AFNE01.JPG,AFNE01.JPG,AFNE01.JPG,AFNE01.JPG,AFNE01.JPG,AFNE01.JPG,,,,,,,,,,,,,,,,,,,,,2,3,23,3,,,AFNE12.jpg,AFNE07.jpg,AFSA14.jpg,AFSA04.jpg,AFNE07.jpg,FN,3,num_6,16,num_6,0.716784597316,,,2017_Mar_23_1733,60.0146870472,MAFE4ImagesEEG,001,200072,
AFNE01.JPG,AFNE01.JPG,AFNE01.JPG,AFNE01.JPG,AFNE01.JPG,AFNE01.JPG,,,,,,,,,,,,,,,,,,,,,2,4,24,9,,,AFNE18.jpg,AFSA20.jpg,AFSA09.jpg,AFNE09.jpg,AFSA09.jpg,FS,4,num_2,16,num_2,0.666798597609,,,2017_Mar_23_1733,60.0146870472,MAFE4ImagesEEG,001,200072,
AFNE01.JPG,AFNE01.JPG,AFNE01.JPG,AFNE01.JPG,AFNE01.JPG,AFNE01.JPG,,,,,,,,,,,,,,,,,,,,,2,5,25,6,,,AFNE05.jpg,AFSA05.jpg,AFNE09.jpg,AFSA19.jpg,AFNE09.jpg,FN,3,num_2,16,num_2,0.733486475889,,,2017_Mar_23_1733,60.0146870472,MAFE4ImagesEEG,001,200072,
AFNE01.JPG,AFNE01.JPG,AFNE01.JPG,AFNE01.JPG,AFNE01.JPG,AFNE01.JPG,,,,,,,,,,,,,,,,,,,,,2,6,26,1,,,AFNE18.jpg,AFSA17.jpg,AFNE05.jpg,AFSA10.jpg,AFNE18.jpg,FN,3,num_8,16,num_8,1.11676047771,,,2017_Mar_23_1733,60.0146870472,MAFE4ImagesEEG,001,200072,
AFNE01.JPG,AFNE01.JPG,AFNE01.JPG,AFNE01.JPG,AFNE01.JPG,AFNE01.JPG,,,,,,,,,,,,,,,,,,,,,2,7,27,8,,,AFSA02.jpg,AFNE17.jpg,AFNE09.jpg,AFSA05.jpg,AFSA05.jpg,FS,4,num_4,32,num_8,1.36663081864,,,2017_Mar_23_1733,60.0146870472,MAFE4ImagesEEG,001,200072,
AFNE01.JPG,AFNE01.JPG,AFNE01.JPG,AFNE01.JPG,AFNE01.JPG,AFNE01.JPG,,,,,,,,,,,,,,,,,,,,,2,8,28,0,,,AFNE11.jpg,AFSA07.jpg,AFSA15.jpg,AFNE08.jpg,AFNE08.jpg,FN,3,num_4,16,num_4,0.650098643498,,,2017_Mar_23_1733,60.0146870472,MAFE4ImagesEEG,001,200072,
AFNE01.JPG,AFNE01.JPG,AFNE01.JPG,AFNE01.JPG,AFNE01.JPG,AFNE01.JPG,,,,,,,,,,,,,,,,,,,,,2,9,29,7,,,AFNE15.jpg,AFSA14.jpg,AFNE03.jpg,AFSA04.jpg,AFNE03.jpg,FN,3,num_2,32,num_6,1.23345552449,,,2017_Mar_23_1733,60.0146870472,MAFE4ImagesEEG,001,200072,
AFNE01.JPG,AFNE01.JPG,AFNE01.JPG,AFNE01.JPG,AFNE01.JPG,AFNE01.JPG,,,,,,,,,,,,,,,,,,,,,3,0,30,3,,,AFSA14.jpg,AFSA09.jpg,AFNE01.jpg,AFNE15.jpg,AFSA09.jpg,FS,4,num_6,16,num_6,0.550164170621,,,2017_Mar_23_1733,60.0146870472,MAFE4ImagesEEG,001,200072,
AFNE01.JPG,AFNE01.JPG,AFNE01.JPG,AFNE01.JPG,AFNE01.JPG,AFNE01.JPG,,,,,,,,,,,,,,,,,,,,,3,1,31,9,,,AFSA12.jpg,AFNE09.jpg,AFNE12.jpg,AFSA16.jpg,AFSA16.jpg,FS,4,num_4,16,num_4,1.93342566356,,,2017_Mar_23_1733,60.0146870472,MAFE4ImagesEEG,001,200072,
AFNE01.JPG,AFNE01.JPG,AFNE01.JPG,AFNE01.JPG,AFNE01.JPG,AFNE01.JPG,,,,,,,,,,,,,,,,,,,,,3,2,32,7,,,AFSA17.jpg,AFNE08.jpg,AFSA08.jpg,AFNE01.jpg,AFSA17.jpg,FS,4,num_8,16,num_8,0.950135560648,,,2017_Mar_23_1733,60.0146870472,MAFE4ImagesEEG,001,200072,
AFNE01.JPG,AFNE01.JPG,AFNE01.JPG,AFNE01.JPG,AFNE01.JPG,AFNE01.JPG,,,,,,,,,,,,,,,,,,,,,3,3,33,4,,,AFNE14.jpg,AFSA16.jpg,AFSA10.jpg,AFNE04.jpg,AFNE14.jpg,FN,3,num_8,16,num_8,1.36673826643,,,2017_Mar_23_1733,60.0146870472,MAFE4ImagesEEG,001,200072,
AFNE01.JPG,AFNE01.JPG,AFNE01.JPG,AFNE01.JPG,AFNE01.JPG,AFNE01.JPG,,,,,,,,,,,,,,,,,,,,,3,4,34,6,,,AFNE15.jpg,AFSA04.jpg,AFNE09.jpg,AFSA03.jpg,AFNE15.jpg,FN,3,num_8,32,num_2,2.64986450353,,,2017_Mar_23_1733,60.0146870472,MAFE4ImagesEEG,001,200072,
AFNE01.JPG,AFNE01.JPG,AFNE01.JPG,AFNE01.JPG,AFNE01.JPG,AFNE01.JPG,,,,,,,,,,,,,,,,,,,,,3,5,35,1,,,AFSA11.jpg,AFSA15.jpg,AFNE19.jpg,AFNE16.jpg,AFSA15.jpg,FS,4,num_6,16,num_6,0.966791573388,,,2017_Mar_23_1733,60.0146870472,MAFE4ImagesEEG,001,200072,
AFNE01.JPG,AFNE01.JPG,AFNE01.JPG,AFNE01.JPG,AFNE01.JPG,AFNE01.JPG,,,,,,,,,,,,,,,,,,,,,3,6,36,8,,,AFNE14.jpg,AFSA09.jpg,AFSA14.jpg,AFNE09.jpg,AFSA09.jpg,FS,4,num_6,16,num_6,0.550136266276,,,2017_Mar_23_1733,60.0146870472,MAFE4ImagesEEG,001,200072,
AFNE01.JPG,AFNE01.JPG,AFNE01.JPG,AFNE01.JPG,AFNE01.JPG,AFNE01.JPG,,,,,,,,,,,,,,,,,,,,,3,7,37,0,,,AFNE06.jpg,AFSA14.jpg,AFNE15.jpg,AFSA02.jpg,AFSA14.jpg,FS,4,num_6,16,num_6,1.29994903447,,,2017_Mar_23_1733,60.0146870472,MAFE4ImagesEEG,001,200072,
AFNE01.JPG,AFNE01.JPG,AFNE01.JPG,AFNE01.JPG,AFNE01.JPG,AFNE01.JPG,,,,,,,,,,,,,,,,,,,,,3,8,38,5,,,AFSA04.jpg,AFNE03.jpg,AFSA10.jpg,AFNE06.jpg,AFNE03.jpg,FN,3,num_6,16,num_6,1.4334546905,,,2017_Mar_23_1733,60.0146870472,MAFE4ImagesEEG,001,200072,
AFNE01.JPG,AFNE01.JPG,AFNE01.JPG,AFNE01.JPG,AFNE01.JPG,AFNE01.JPG,,,,,,,,,,,,,,,,,,,,,3,9,39,2,,,AFSA14.jpg,AFNE18.jpg,AFNE10.jpg,AFSA12.jpg,AFNE18.jpg,FN,3,num_6,16,num_6,1.10016668844,,,2017_Mar_23_1733,60.0146870472,MAFE4ImagesEEG,001,200072,
