IPosition2,IPosition3,IPosition1,IPosition6,IPosition4,IPosition5,TrialsF1.thisRepN,TrialsF1.thisTrialN,TrialsF1.thisN,TrialsF1.thisIndex,TrialsM1.thisRepN,TrialsM1.thisTrialN,TrialsM1.thisN,TrialsM1.thisIndex,TrialsF2.thisRepN,TrialsF2.thisTrialN,TrialsF2.thisN,TrialsF2.thisIndex,TrialsM2.thisRepN,TrialsM2.thisTrialN,TrialsM2.thisN,TrialsM2.thisIndex,TrialsF3.thisRepN,TrialsF3.thisTrialN,TrialsF3.thisN,TrialsF3.thisIndex,TrialsM3.thisRepN,TrialsM3.thisTrialN,TrialsM3.thisN,TrialsM3.thisIndex,InstrKey_resp.keys,InstrKey_resp.rt,Image0 _Position,Image1 _Position,Image2 _Position,Image3 _Position,Center_image,condition,code,correct_answer,accuracy,Key_Resp.keys,Key_Resp.rt,BreakKey_resp.keys,BreakKey_resp.rt,date,frameRate,expName,session,participant,
,,,,,,,,,,,,,,,,,,,,,,,,,,,,,,space,7.04972945579,,,,,,,,,,,,,,2017_Mar_15_1747,60.0000769809,FEMA4ImagesEEG,001,200029,
AFSA21.JPG,AFNE23.JPG,AFNE21.JPG,AFSA25.JPG,AFNE25.JPG,AFSA23.JPG,0,0,0,4,,,,,,,,,,,,,,,,,,,,,,,AFSA08.jpg,AFSA20.jpg,AFNE20.jpg,AFNE17.jpg,AFSA20.jpg,FS,4,num_6,32,num_4,1.633571857,,,2017_Mar_15_1747,60.0000769809,FEMA4ImagesEEG,001,200029,
AFNE23.JPG,AFNE24.JPG,AFNE22.JPG,AFSA24.JPG,AFSA22.JPG,AFSA23.JPG,0,1,1,8,,,,,,,,,,,,,,,,,,,,,,,AFNE02.jpg,AFSA19.jpg,AFNE14.jpg,AFSA15.jpg,AFSA19.jpg,FS,4,num_6,16,num_6,1.93340443075,,,2017_Mar_15_1747,60.0000769809,FEMA4ImagesEEG,001,200029,
AFSA25.JPG,AFNE24.JPG,AFSA24.JPG,AFNE21.JPG,AFSA21.JPG,AFNE25.JPG,0,2,2,2,,,,,,,,,,,,,,,,,,,,,,,AFSA07.jpg,AFNE11.jpg,AFSA20.jpg,AFNE06.jpg,AFNE06.jpg,FN,3,num_4,32,num_8,1.26679186214,,,2017_Mar_15_1747,60.0000769809,FEMA4ImagesEEG,001,200029,
AMSA25.JPG,AMNE24.JPG,AMSA24.JPG,AMNE26.JPG,AMSA21.JPG,AMNE25.JPG,0,3,3,3,,,,,,,,,,,,,,,,,,,,,,,AFSA19.jpg,AFSA05.jpg,AFNE04.jpg,AFNE06.jpg,AFNE04.jpg,FN,3,num_2,16,num_2,0.783493436058,,,2017_Mar_15_1747,60.0000769809,FEMA4ImagesEEG,001,200029,
AFSA21.JPG,AFNE22.JPG,AFNE21.JPG,AFSA23.JPG,AFSA22.JPG,AFNE23.JPG,0,4,4,0,,,,,,,,,,,,,,,,,,,,,,,AFSA20.jpg,AFNE15.jpg,AFSA13.jpg,AFNE20.jpg,AFNE15.jpg,FN,3,num_6,32,num_4,3.08333916008,,,2017_Mar_15_1747,60.0000769809,FEMA4ImagesEEG,001,200029,
AMSA21.JPG,AMNE23.JPG,AMNE21.JPG,AMSA25.JPG,AMNE25.JPG,AMSA23.JPG,0,5,5,5,,,,,,,,,,,,,,,,,,,,,,,AFNE10.jpg,AFSA01.jpg,AFNE04.jpg,AFSA17.jpg,AFSA17.jpg,FS,4,num_4,16,num_4,1.16673124232,,,2017_Mar_15_1747,60.0000769809,FEMA4ImagesEEG,001,200029,
AFNE22.JPG,AFSA24.JPG,AFSA22.JPG,AFNE25.JPG,AFNE24.JPG,AFSA25.JPG,0,6,6,6,,,,,,,,,,,,,,,,,,,,,,,AFNE04.jpg,AFSA12.jpg,AFNE07.jpg,AFSA14.jpg,AFSA12.jpg,FS,4,num_6,16,num_6,1.23341437365,,,2017_Mar_15_1747,60.0000769809,FEMA4ImagesEEG,001,200029,
AMNE23.JPG,AMNE24.JPG,AMNE22.JPG,AMSA24.JPG,AMSA22.JPG,AMSA23.JPG,0,7,7,9,,,,,,,,,,,,,,,,,,,,,,,AFNE07.jpg,AFSA09.jpg,AFNE18.jpg,AFSA20.jpg,AFNE18.jpg,FN,3,num_2,16,num_2,1.39982423448,,,2017_Mar_15_1747,60.0000769809,FEMA4ImagesEEG,001,200029,
AMSA21.JPG,AMNE22.JPG,AMNE21.JPG,AMSA23.JPG,AMSA22.JPG,AMNE23.JPG,0,8,8,1,,,,,,,,,,,,,,,,,,,,,,,AFNE15.jpg,AFNE09.jpg,AFSA09.jpg,AFSA16.jpg,AFSA09.jpg,FS,4,num_2,16,num_2,0.833515727485,,,2017_Mar_15_1747,60.0000769809,FEMA4ImagesEEG,001,200029,
AMNE22.JPG,AMSA24.JPG,AMSA22.JPG,AMNE25.JPG,AMNE24.JPG,AMSA25.JPG,0,9,9,7,,,,,,,,,,,,,,,,,,,,,,,AFSA05.jpg,AFNE09.jpg,AFSA01.jpg,AFNE11.jpg,AFSA01.jpg,FS,4,num_2,16,num_2,2.7666298885,,,2017_Mar_15_1747,60.0000769809,FEMA4ImagesEEG,001,200029,
AMSA21.JPG,AMNE22.JPG,AMNE21.JPG,AMSA23.JPG,AMSA22.JPG,AMNE23.JPG,,,,,0,0,0,1,,,,,,,,,,,,,,,,,,,AMNE06.jpg,AMSA07.jpg,AMNE10.jpg,AMSA04.jpg,AMSA07.jpg,MS,2,num_6,16,num_6,0.883398817736,,,2017_Mar_15_1747,60.0000769809,FEMA4ImagesEEG,001,200029,
AMSA21.JPG,AMNE23.JPG,AMNE21.JPG,AMSA25.JPG,AMNE25.JPG,AMSA23.JPG,,,,,0,1,1,5,,,,,,,,,,,,,,,,,,,AMNE14.jpg,AMSA06.jpg,AMNE12.jpg,AMSA13.jpg,AMNE14.jpg,MN,1,num_8,16,num_8,1.20017768996,,,2017_Mar_15_1747,60.0000769809,FEMA4ImagesEEG,001,200029,
AFSA25.JPG,AFNE24.JPG,AFSA24.JPG,AFNE21.JPG,AFSA21.JPG,AFNE25.JPG,,,,,0,2,2,2,,,,,,,,,,,,,,,,,,,AMSA09.jpg,AMSA03.jpg,AMNE10.jpg,AMNE04.jpg,AMSA09.jpg,MS,2,num_8,32,num_2,1.06673156307,,,2017_Mar_15_1747,60.0000769809,FEMA4ImagesEEG,001,200029,
AFNE23.JPG,AFNE24.JPG,AFNE22.JPG,AFSA24.JPG,AFSA22.JPG,AFSA23.JPG,,,,,0,3,3,8,,,,,,,,,,,,,,,,,,,AMSA19.jpg,AMNE03.jpg,AMSA18.jpg,AMNE17.jpg,AMNE03.jpg,MN,1,num_6,16,num_6,2.11702872865,,,2017_Mar_15_1747,60.0000769809,FEMA4ImagesEEG,001,200029,
AFSA21.JPG,AFNE22.JPG,AFNE21.JPG,AFSA23.JPG,AFSA22.JPG,AFNE23.JPG,,,,,0,4,4,0,,,,,,,,,,,,,,,,,,,AMNE19.jpg,AMSA12.jpg,AMSA11.jpg,AMNE09.jpg,AMSA11.jpg,MS,2,num_2,16,num_2,1.0501935666,,,2017_Mar_15_1747,60.0000769809,FEMA4ImagesEEG,001,200029,
AFNE22.JPG,AFSA24.JPG,AFSA22.JPG,AFNE25.JPG,AFNE24.JPG,AFSA25.JPG,,,,,0,5,5,6,,,,,,,,,,,,,,,,,,,AMSA05.jpg,AMNE11.jpg,AMSA04.jpg,AMNE09.jpg,AMNE09.jpg,MN,1,num_4,32,num_6,1.60009686346,,,2017_Mar_15_1747,60.0000769809,FEMA4ImagesEEG,001,200029,
AMSA25.JPG,AMNE24.JPG,AMSA24.JPG,AMNE26.JPG,AMSA21.JPG,AMNE25.JPG,,,,,0,6,6,3,,,,,,,,,,,,,,,,,,,AMSA02.jpg,AMSA09.jpg,AMNE18.jpg,AMNE05.jpg,AMSA09.jpg,MS,2,num_6,16,num_6,1.4334124492,,,2017_Mar_15_1747,60.0000769809,FEMA4ImagesEEG,001,200029,
AFSA21.JPG,AFNE23.JPG,AFNE21.JPG,AFSA25.JPG,AFNE25.JPG,AFSA23.JPG,,,,,0,7,7,4,,,,,,,,,,,,,,,,,,,AMNE20.jpg,AMSA16.jpg,AMSA08.jpg,AMNE18.jpg,AMNE20.jpg,MN,1,num_8,32,num_4,2.51635934424,,,2017_Mar_15_1747,60.0000769809,FEMA4ImagesEEG,001,200029,
AMNE23.JPG,AMNE24.JPG,AMNE22.JPG,AMSA24.JPG,AMSA22.JPG,AMSA23.JPG,,,,,0,8,8,9,,,,,,,,,,,,,,,,,,,AMSA04.jpg,AMNE08.jpg,AMSA03.jpg,AMNE17.jpg,AMNE08.jpg,MN,1,num_6,32,num_8,1.26674567565,,,2017_Mar_15_1747,60.0000769809,FEMA4ImagesEEG,001,200029,
AMNE22.JPG,AMSA24.JPG,AMSA22.JPG,AMNE25.JPG,AMNE24.JPG,AMSA25.JPG,,,,,0,9,9,7,,,,,,,,,,,,,,,,,,,AMSA16.jpg,AMNE12.jpg,AMSA13.jpg,AMNE15.jpg,AMSA16.jpg,MS,2,num_8,32,num_6,2.33360906283,,,2017_Mar_15_1747,60.0000769809,FEMA4ImagesEEG,001,200029,
AFSA25.JPG,AFNE24.JPG,AFSA24.JPG,AFNE21.JPG,AFSA21.JPG,AFNE25.JPG,,,,,,,,,0,0,0,2,,,,,,,,,,,,,,,AFSA16.jpg,AFNE05.jpg,AFSA18.jpg,AFNE10.jpg,AFSA16.jpg,FS,4,num_8,16,num_8,1.03354299039,,,2017_Mar_15_1747,60.0000769809,FEMA4ImagesEEG,001,200029,
AFSA21.JPG,AFNE22.JPG,AFNE21.JPG,AFSA23.JPG,AFSA22.JPG,AFNE23.JPG,,,,,,,,,0,1,1,0,,,,,,,,,,,,,,,AFNE01.jpg,AFNE11.jpg,AFSA18.jpg,AFSA08.jpg,AFNE01.jpg,FN,3,num_8,32,num_4,1.48339881771,,,2017_Mar_15_1747,60.0000769809,FEMA4ImagesEEG,001,200029,
AFNE23.JPG,AFNE24.JPG,AFNE22.JPG,AFSA24.JPG,AFSA22.JPG,AFSA23.JPG,,,,,,,,,0,2,2,8,,,,,,,,,,,,,,,AFSA07.jpg,AFSA04.jpg,AFNE08.jpg,AFNE01.jpg,AFSA07.jpg,FS,4,num_8,32,num_6,1.81675064709,,,2017_Mar_15_1747,60.0000769809,FEMA4ImagesEEG,001,200029,
AFNE22.JPG,AFSA24.JPG,AFSA22.JPG,AFNE25.JPG,AFNE24.JPG,AFSA25.JPG,,,,,,,,,0,3,3,6,,,,,,,,,,,,,,,AFNE03.jpg,AFSA02.jpg,AFNE05.jpg,AFSA08.jpg,AFNE03.jpg,FN,3,num_8,16,num_8,2.33336273453,,,2017_Mar_15_1747,60.0000769809,FEMA4ImagesEEG,001,200029,
AMSA21.JPG,AMNE23.JPG,AMNE21.JPG,AMSA25.JPG,AMNE25.JPG,AMSA23.JPG,,,,,,,,,0,4,4,5,,,,,,,,,,,,,,,AFNE20.jpg,AFSA20.jpg,AFNE10.jpg,AFSA13.jpg,AFNE10.jpg,FN,3,num_2,16,num_2,0.916889206739,,,2017_Mar_15_1747,60.0000769809,FEMA4ImagesEEG,001,200029,
AMSA25.JPG,AMNE24.JPG,AMSA24.JPG,AMNE26.JPG,AMSA21.JPG,AMNE25.JPG,,,,,,,,,0,5,5,3,,,,,,,,,,,,,,,AFSA06.jpg,AFSA05.jpg,AFNE06.jpg,AFNE07.jpg,AFNE06.jpg,FN,3,num_2,32,num_4,1.23339609144,,,2017_Mar_15_1747,60.0000769809,FEMA4ImagesEEG,001,200029,
AMNE23.JPG,AMNE24.JPG,AMNE22.JPG,AMSA24.JPG,AMSA22.JPG,AMSA23.JPG,,,,,,,,,0,6,6,9,,,,,,,,,,,,,,,AFNE01.jpg,AFNE18.jpg,AFSA15.jpg,AFSA07.jpg,AFSA07.jpg,FS,4,num_4,32,num_8,1.16678095708,,,2017_Mar_15_1747,60.0000769809,FEMA4ImagesEEG,001,200029,
AMSA21.JPG,AMNE22.JPG,AMNE21.JPG,AMSA23.JPG,AMSA22.JPG,AMNE23.JPG,,,,,,,,,0,7,7,1,,,,,,,,,,,,,,,AFSA05.jpg,AFNE11.jpg,AFNE03.jpg,AFSA07.jpg,AFSA05.jpg,FS,4,num_8,32,num_4,2.31639302202,,,2017_Mar_15_1747,60.0000769809,FEMA4ImagesEEG,001,200029,
AFSA21.JPG,AFNE23.JPG,AFNE21.JPG,AFSA25.JPG,AFNE25.JPG,AFSA23.JPG,,,,,,,,,0,8,8,4,,,,,,,,,,,,,,,AFNE06.jpg,AFSA08.jpg,AFSA11.jpg,AFNE17.jpg,AFNE06.jpg,FN,3,num_8,32,num_6,2.44997578417,,,2017_Mar_15_1747,60.0000769809,FEMA4ImagesEEG,001,200029,
AMNE22.JPG,AMSA24.JPG,AMSA22.JPG,AMNE25.JPG,AMNE24.JPG,AMSA25.JPG,,,,,,,,,0,9,9,7,,,,,,,,,,,,,,,AFSA14.jpg,AFSA10.jpg,AFNE17.jpg,AFNE08.jpg,AFSA10.jpg,FS,4,num_6,16,num_6,1.49995060603,,,2017_Mar_15_1747,60.0000769809,FEMA4ImagesEEG,001,200029,
AMSA25.JPG,AMNE24.JPG,AMSA24.JPG,AMNE26.JPG,AMSA21.JPG,AMNE25.JPG,,,,,,,,,,,,,0,0,0,3,,,,,,,,,,,AMSA17.jpg,AMNE06.jpg,AMSA04.jpg,AMNE16.jpg,AMNE06.jpg,MN,1,num_6,32,num_4,1.36668601795,,,2017_Mar_15_1747,60.0000769809,FEMA4ImagesEEG,001,200029,
AFNE23.JPG,AFNE24.JPG,AFNE22.JPG,AFSA24.JPG,AFSA22.JPG,AFSA23.JPG,,,,,,,,,,,,,0,1,1,8,,,,,,,,,,,AMSA17.jpg,AMSA12.jpg,AMNE09.jpg,AMNE20.jpg,AMSA17.jpg,MS,2,num_8,32,num_4,0.783303878678,,,2017_Mar_15_1747,60.0000769809,FEMA4ImagesEEG,001,200029,
AFSA21.JPG,AFNE22.JPG,AFNE21.JPG,AFSA23.JPG,AFSA22.JPG,AFNE23.JPG,,,,,,,,,,,,,0,2,2,0,,,,,,,,,,,AMNE17.jpg,AMSA20.jpg,AMSA05.jpg,AMNE10.jpg,AMNE17.jpg,MN,1,num_8,32,num_6,2.01666180207,,,2017_Mar_15_1747,60.0000769809,FEMA4ImagesEEG,001,200029,
AFNE22.JPG,AFSA24.JPG,AFSA22.JPG,AFNE25.JPG,AFNE24.JPG,AFSA25.JPG,,,,,,,,,,,,,0,3,3,6,,,,,,,,,,,AMSA08.jpg,AMSA20.jpg,AMNE17.jpg,AMNE18.jpg,AMNE18.jpg,MN,1,num_4,32,num_8,2.84998829296,,,2017_Mar_15_1747,60.0000769809,FEMA4ImagesEEG,001,200029,
AFSA25.JPG,AFNE24.JPG,AFSA24.JPG,AFNE21.JPG,AFSA21.JPG,AFNE25.JPG,,,,,,,,,,,,,0,4,4,2,,,,,,,,,,,AMSA10.jpg,AMSA11.jpg,AMNE02.jpg,AMNE17.jpg,AMSA10.jpg,MS,2,num_8,32,num_6,1.61669772497,,,2017_Mar_15_1747,60.0000769809,FEMA4ImagesEEG,001,200029,
AFSA21.JPG,AFNE23.JPG,AFNE21.JPG,AFSA25.JPG,AFNE25.JPG,AFSA23.JPG,,,,,,,,,,,,,0,5,5,4,,,,,,,,,,,AMNE05.jpg,AMNE18.jpg,AMSA20.jpg,AMSA15.jpg,AMSA20.jpg,MS,2,num_2,16,num_2,0.966804371041,,,2017_Mar_15_1747,60.0000769809,FEMA4ImagesEEG,001,200029,
AMSA21.JPG,AMNE22.JPG,AMNE21.JPG,AMSA23.JPG,AMSA22.JPG,AMNE23.JPG,,,,,,,,,,,,,0,6,6,1,,,,,,,,,,,AMSA18.jpg,AMSA12.jpg,AMNE16.jpg,AMNE06.jpg,AMSA18.jpg,MS,2,num_8,16,num_8,0.916805172863,,,2017_Mar_15_1747,60.0000769809,FEMA4ImagesEEG,001,200029,
AMNE22.JPG,AMSA24.JPG,AMSA22.JPG,AMNE25.JPG,AMNE24.JPG,AMSA25.JPG,,,,,,,,,,,,,0,7,7,7,,,,,,,,,,,AMSA14.jpg,AMNE07.jpg,AMSA11.jpg,AMNE09.jpg,AMNE09.jpg,MN,1,num_4,32,num_6,1.36673188378,,,2017_Mar_15_1747,60.0000769809,FEMA4ImagesEEG,001,200029,
AMNE23.JPG,AMNE24.JPG,AMNE22.JPG,AMSA24.JPG,AMSA22.JPG,AMSA23.JPG,,,,,,,,,,,,,0,8,8,9,,,,,,,,,,,AMNE09.jpg,AMSA07.jpg,AMSA16.jpg,AMNE04.jpg,AMNE09.jpg,MN,1,num_8,16,num_8,1.93338646926,,,2017_Mar_15_1747,60.0000769809,FEMA4ImagesEEG,001,200029,
AMSA21.JPG,AMNE23.JPG,AMNE21.JPG,AMSA25.JPG,AMNE25.JPG,AMSA23.JPG,,,,,,,,,,,,,0,9,9,5,,,,,,,,,,,AMNE04.jpg,AMSA16.jpg,AMSA06.jpg,AMNE10.jpg,AMNE10.jpg,MN,1,num_4,16,num_4,1.48364674981,,,2017_Mar_15_1747,60.0000769809,FEMA4ImagesEEG,001,200029,
AFNE22.JPG,AFSA24.JPG,AFSA22.JPG,AFNE25.JPG,AFNE24.JPG,AFSA25.JPG,,,,,,,,,,,,,,,,,0,0,0,6,,,,,,,AFSA14.jpg,AFNE20.jpg,AFSA07.jpg,AFNE04.jpg,AFNE20.jpg,FN,3,num_6,16,num_6,1.16677165561,,,2017_Mar_15_1747,60.0000769809,FEMA4ImagesEEG,001,200029,
AMNE23.JPG,AMNE24.JPG,AMNE22.JPG,AMSA24.JPG,AMSA22.JPG,AMSA23.JPG,,,,,,,,,,,,,,,,,0,1,1,9,,,,,,,AFNE10.jpg,AFSA02.jpg,AFNE01.jpg,AFSA09.jpg,AFNE01.jpg,FN,3,num_2,16,num_2,1.03332039679,,,2017_Mar_15_1747,60.0000769809,FEMA4ImagesEEG,001,200029,
AFSA21.JPG,AFNE22.JPG,AFNE21.JPG,AFSA23.JPG,AFSA22.JPG,AFNE23.JPG,,,,,,,,,,,,,,,,,0,2,2,0,,,,,,,AFSA20.jpg,AFNE02.jpg,AFNE17.jpg,AFSA18.jpg,AFNE02.jpg,FN,3,num_6,32,num_4,1.0832981054,,,2017_Mar_15_1747,60.0000769809,FEMA4ImagesEEG,001,200029,
AFSA21.JPG,AFNE23.JPG,AFNE21.JPG,AFSA25.JPG,AFNE25.JPG,AFSA23.JPG,,,,,,,,,,,,,,,,,0,3,3,4,,,,,,,AFSA02.jpg,AFNE03.jpg,AFNE19.jpg,AFSA17.jpg,AFNE03.jpg,FN,3,num_6,16,num_6,0.916826662491,,,2017_Mar_15_1747,60.0000769809,FEMA4ImagesEEG,001,200029,
AMNE22.JPG,AMSA24.JPG,AMSA22.JPG,AMNE25.JPG,AMNE24.JPG,AMSA25.JPG,,,,,,,,,,,,,,,,,0,4,4,7,,,,,,,AFNE14.jpg,AFNE03.jpg,AFSA15.jpg,AFSA10.jpg,AFNE14.jpg,FN,3,num_8,16,num_8,1.25005500688,,,2017_Mar_15_1747,60.0000769809,FEMA4ImagesEEG,001,200029,
AMSA25.JPG,AMNE24.JPG,AMSA24.JPG,AMNE26.JPG,AMSA21.JPG,AMNE25.JPG,,,,,,,,,,,,,,,,,0,5,5,3,,,,,,,AFNE06.jpg,AFSA06.jpg,AFNE11.jpg,AFSA19.jpg,AFSA06.jpg,FS,4,num_6,16,num_6,2.63331975532,,,2017_Mar_15_1747,60.0000769809,FEMA4ImagesEEG,001,200029,
AMSA21.JPG,AMNE23.JPG,AMNE21.JPG,AMSA25.JPG,AMNE25.JPG,AMSA23.JPG,,,,,,,,,,,,,,,,,0,6,6,5,,,,,,,AFNE11.jpg,AFNE15.jpg,AFSA17.jpg,AFSA19.jpg,AFSA17.jpg,FS,4,num_2,16,num_2,1.11686964164,,,2017_Mar_15_1747,60.0000769809,FEMA4ImagesEEG,001,200029,
AFSA25.JPG,AFNE24.JPG,AFSA24.JPG,AFNE21.JPG,AFSA21.JPG,AFNE25.JPG,,,,,,,,,,,,,,,,,0,7,7,2,,,,,,,AFSA14.jpg,AFSA12.jpg,AFNE02.jpg,AFNE16.jpg,AFNE02.jpg,FN,3,num_2,32,num_8,1.183437948,,,2017_Mar_15_1747,60.0000769809,FEMA4ImagesEEG,001,200029,
AMSA21.JPG,AMNE22.JPG,AMNE21.JPG,AMSA23.JPG,AMSA22.JPG,AMNE23.JPG,,,,,,,,,,,,,,,,,0,8,8,1,,,,,,,AFNE14.jpg,AFSA12.jpg,AFSA04.jpg,AFNE02.jpg,AFNE14.jpg,FN,3,num_8,32,num_6,2.51665763248,,,2017_Mar_15_1747,60.0000769809,FEMA4ImagesEEG,001,200029,
AFNE23.JPG,AFNE24.JPG,AFNE22.JPG,AFSA24.JPG,AFSA22.JPG,AFSA23.JPG,,,,,,,,,,,,,,,,,0,9,9,8,,,,,,,AFNE10.jpg,AFSA12.jpg,AFSA20.jpg,AFNE09.jpg,AFNE09.jpg,FN,3,num_4,32,num_6,0.983436023584,,,2017_Mar_15_1747,60.0000769809,FEMA4ImagesEEG,001,200029,
AFNE23.JPG,AFNE24.JPG,AFNE22.JPG,AFSA24.JPG,AFSA22.JPG,AFSA23.JPG,,,,,,,,,,,,,,,,,,,,,0,0,0,8,,,AMSA15.jpg,AMSA12.jpg,AMNE18.jpg,AMNE16.jpg,AMNE18.jpg,MN,1,num_2,16,num_2,0.916727233038,,,2017_Mar_15_1747,60.0000769809,FEMA4ImagesEEG,001,200029,
AFNE22.JPG,AFSA24.JPG,AFSA22.JPG,AFNE25.JPG,AFNE24.JPG,AFSA25.JPG,,,,,,,,,,,,,,,,,,,,,0,1,1,6,,,AMNE12.jpg,AMSA15.jpg,AMSA03.jpg,AMNE14.jpg,AMSA03.jpg,MS,2,num_2,16,num_2,0.966622832173,,,2017_Mar_15_1747,60.0000769809,FEMA4ImagesEEG,001,200029,
AMNE23.JPG,AMNE24.JPG,AMNE22.JPG,AMSA24.JPG,AMSA22.JPG,AMSA23.JPG,,,,,,,,,,,,,,,,,,,,,0,2,2,9,,,AMNE08.jpg,AMSA08.jpg,AMNE05.jpg,AMSA17.jpg,AMSA08.jpg,MS,2,num_6,16,num_6,1.16680405033,,,2017_Mar_15_1747,60.0000769809,FEMA4ImagesEEG,001,200029,
AMSA25.JPG,AMNE24.JPG,AMSA24.JPG,AMNE26.JPG,AMSA21.JPG,AMNE25.JPG,,,,,,,,,,,,,,,,,,,,,0,3,3,3,,,AMNE15.jpg,AMSA09.jpg,AMNE03.jpg,AMSA18.jpg,AMSA09.jpg,MS,2,num_6,16,num_6,0.916773098928,,,2017_Mar_15_1747,60.0000769809,FEMA4ImagesEEG,001,200029,
AMSA21.JPG,AMNE23.JPG,AMNE21.JPG,AMSA25.JPG,AMNE25.JPG,AMSA23.JPG,,,,,,,,,,,,,,,,,,,,,0,4,4,5,,,AMSA18.jpg,AMSA15.jpg,AMNE18.jpg,AMNE16.jpg,AMNE16.jpg,MN,1,num_4,16,num_4,0.883455267991,,,2017_Mar_15_1747,60.0000769809,FEMA4ImagesEEG,001,200029,
AFSA21.JPG,AFNE22.JPG,AFNE21.JPG,AFSA23.JPG,AFSA22.JPG,AFNE23.JPG,,,,,,,,,,,,,,,,,,,,,0,5,5,0,,,AMSA06.jpg,AMNE14.jpg,AMSA05.jpg,AMNE13.jpg,AMSA05.jpg,MS,2,num_2,16,num_2,2.49999775481,,,2017_Mar_15_1747,60.0000769809,FEMA4ImagesEEG,001,200029,
AFSA25.JPG,AFNE24.JPG,AFSA24.JPG,AFNE21.JPG,AFSA21.JPG,AFNE25.JPG,,,,,,,,,,,,,,,,,,,,,0,6,6,2,,,AMSA12.jpg,AMSA13.jpg,AMNE05.jpg,AMNE13.jpg,AMSA12.jpg,MS,2,num_8,16,num_8,2.01664095401,,,2017_Mar_15_1747,60.0000769809,FEMA4ImagesEEG,001,200029,
AFSA21.JPG,AFNE23.JPG,AFNE21.JPG,AFSA25.JPG,AFNE25.JPG,AFSA23.JPG,,,,,,,,,,,,,,,,,,,,,0,7,7,4,,,AMSA11.jpg,AMNE03.jpg,AMNE11.jpg,AMSA17.jpg,AMSA17.jpg,MS,2,num_4,16,num_4,0.983448532468,,,2017_Mar_15_1747,60.0000769809,FEMA4ImagesEEG,001,200029,
AMSA21.JPG,AMNE22.JPG,AMNE21.JPG,AMSA23.JPG,AMSA22.JPG,AMNE23.JPG,,,,,,,,,,,,,,,,,,,,,0,8,8,1,,,AMNE04.jpg,AMSA02.jpg,AMNE07.jpg,AMSA04.jpg,AMNE07.jpg,MN,1,num_2,16,num_2,3.1334195055,,,2017_Mar_15_1747,60.0000769809,FEMA4ImagesEEG,001,200029,
AMNE22.JPG,AMSA24.JPG,AMSA22.JPG,AMNE25.JPG,AMNE24.JPG,AMSA25.JPG,,,,,,,,,,,,,,,,,,,,,0,9,9,7,,,AMNE18.jpg,AMNE06.jpg,AMSA19.jpg,AMSA10.jpg,AMSA10.jpg,MS,2,num_4,16,num_4,1.23347050312,,,2017_Mar_15_1747,60.0000769809,FEMA4ImagesEEG,001,200029,
,,,,,,,,,,,,,,,,,,,,,,,,,,,,,,,,,,,,,,,,,,,space,38.5302554053,2017_Mar_15_1747,60.0000769809,FEMA4ImagesEEG,001,200029,
AFNE01.JPG,AFNE01.JPG,AFNE01.JPG,AFNE01.JPG,AFNE01.JPG,AFNE01.JPG,0,0,0,6,,,,,,,,,,,,,,,,,,,,,,,AFNE17.jpg,AFSA18.jpg,AFNE12.jpg,AFSA13.jpg,AFNE17.jpg,FN,3,num_8,32,num_4,1.05012845638,,,2017_Mar_15_1747,60.0000769809,FEMA4ImagesEEG,001,200029,
AFNE01.JPG,AFNE01.JPG,AFNE01.JPG,AFNE01.JPG,AFNE01.JPG,AFNE01.JPG,0,1,1,8,,,,,,,,,,,,,,,,,,,,,,,AFNE14.jpg,AFNE10.jpg,AFSA07.jpg,AFSA02.jpg,AFSA02.jpg,FS,4,num_4,32,num_2,0.983459116891,,,2017_Mar_15_1747,60.0000769809,FEMA4ImagesEEG,001,200029,
AFNE01.JPG,AFNE01.JPG,AFNE01.JPG,AFNE01.JPG,AFNE01.JPG,AFNE01.JPG,0,2,2,4,,,,,,,,,,,,,,,,,,,,,,,AFNE18.jpg,AFSA04.jpg,AFNE05.jpg,AFSA10.jpg,AFSA10.jpg,FS,4,num_4,16,num_4,0.78345238138,,,2017_Mar_15_1747,60.0000769809,FEMA4ImagesEEG,001,200029,
AFNE01.JPG,AFNE01.JPG,AFNE01.JPG,AFNE01.JPG,AFNE01.JPG,AFNE01.JPG,0,3,3,7,,,,,,,,,,,,,,,,,,,,,,,AFNE02.jpg,AFNE14.jpg,AFSA02.jpg,AFSA09.jpg,AFNE02.jpg,FN,3,num_8,32,num_6,1.36661545519,,,2017_Mar_15_1747,60.0000769809,FEMA4ImagesEEG,001,200029,
AFNE01.JPG,AFNE01.JPG,AFNE01.JPG,AFNE01.JPG,AFNE01.JPG,AFNE01.JPG,0,4,4,5,,,,,,,,,,,,,,,,,,,,,,,AFSA09.jpg,AFNE05.jpg,AFSA13.jpg,AFNE11.jpg,AFNE11.jpg,FN,3,num_4,16,num_4,1.83345510764,,,2017_Mar_15_1747,60.0000769809,FEMA4ImagesEEG,001,200029,
AFNE01.JPG,AFNE01.JPG,AFNE01.JPG,AFNE01.JPG,AFNE01.JPG,AFNE01.JPG,0,5,5,1,,,,,,,,,,,,,,,,,,,,,,,AFSA09.jpg,AFNE13.jpg,AFSA03.jpg,AFNE20.jpg,AFSA09.jpg,FS,4,num_8,32,num_4,2.38329810539,,,2017_Mar_15_1747,60.0000769809,FEMA4ImagesEEG,001,200029,
AFNE01.JPG,AFNE01.JPG,AFNE01.JPG,AFNE01.JPG,AFNE01.JPG,AFNE01.JPG,0,6,6,9,,,,,,,,,,,,,,,,,,,,,,,AFSA09.jpg,AFSA20.jpg,AFNE16.jpg,AFNE20.jpg,AFNE20.jpg,FN,3,num_4,16,num_4,1.53343650472,,,2017_Mar_15_1747,60.0000769809,FEMA4ImagesEEG,001,200029,
AFNE01.JPG,AFNE01.JPG,AFNE01.JPG,AFNE01.JPG,AFNE01.JPG,AFNE01.JPG,0,7,7,2,,,,,,,,,,,,,,,,,,,,,,,AFNE12.jpg,AFSA05.jpg,AFNE07.jpg,AFSA08.jpg,AFSA05.jpg,FS,4,num_6,16,num_6,0.733474672772,,,2017_Mar_15_1747,60.0000769809,FEMA4ImagesEEG,001,200029,
AFNE01.JPG,AFNE01.JPG,AFNE01.JPG,AFNE01.JPG,AFNE01.JPG,AFNE01.JPG,0,8,8,0,,,,,,,,,,,,,,,,,,,,,,,AFNE19.jpg,AFSA05.jpg,AFNE07.jpg,AFSA06.jpg,AFNE19.jpg,FN,3,num_8,16,num_8,2.58335391415,,,2017_Mar_15_1747,60.0000769809,FEMA4ImagesEEG,001,200029,
AFNE01.JPG,AFNE01.JPG,AFNE01.JPG,AFNE01.JPG,AFNE01.JPG,AFNE01.JPG,0,9,9,3,,,,,,,,,,,,,,,,,,,,,,,AFNE09.jpg,AFNE02.jpg,AFSA19.jpg,AFSA09.jpg,AFNE02.jpg,FN,3,num_6,32,num_8,1.11677021225,,,2017_Mar_15_1747,60.0000769809,FEMA4ImagesEEG,001,200029,
AFNE01.JPG,AFNE01.JPG,AFNE01.JPG,AFNE01.JPG,AFNE01.JPG,AFNE01.JPG,1,0,10,6,,,,,,,,,,,,,,,,,,,,,,,AFSA15.jpg,AFNE02.jpg,AFNE06.jpg,AFSA18.jpg,AFSA18.jpg,FS,4,num_4,16,num_4,1.11686739646,,,2017_Mar_15_1747,60.0000769809,FEMA4ImagesEEG,001,200029,
AFNE01.JPG,AFNE01.JPG,AFNE01.JPG,AFNE01.JPG,AFNE01.JPG,AFNE01.JPG,1,1,11,2,,,,,,,,,,,,,,,,,,,,,,,AFNE10.jpg,AFSA01.jpg,AFNE12.jpg,AFSA13.jpg,AFNE10.jpg,FN,3,num_8,32,num_2,1.13345895649,,,2017_Mar_15_1747,60.0000769809,FEMA4ImagesEEG,001,200029,
AFNE01.JPG,AFNE01.JPG,AFNE01.JPG,AFNE01.JPG,AFNE01.JPG,AFNE01.JPG,1,2,12,9,,,,,,,,,,,,,,,,,,,,,,,AFSA04.jpg,AFNE09.jpg,AFNE19.jpg,AFSA01.jpg,AFNE19.jpg,FN,3,num_2,32,num_6,1.16683195467,,,2017_Mar_15_1747,60.0000769809,FEMA4ImagesEEG,001,200029,
AFNE01.JPG,AFNE01.JPG,AFNE01.JPG,AFNE01.JPG,AFNE01.JPG,AFNE01.JPG,1,3,13,7,,,,,,,,,,,,,,,,,,,,,,,AFNE12.jpg,AFNE18.jpg,AFSA16.jpg,AFSA08.jpg,AFSA08.jpg,FS,4,num_4,16,num_4,1.83334733895,,,2017_Mar_15_1747,60.0000769809,FEMA4ImagesEEG,001,200029,
AFNE01.JPG,AFNE01.JPG,AFNE01.JPG,AFNE01.JPG,AFNE01.JPG,AFNE01.JPG,1,4,14,1,,,,,,,,,,,,,,,,,,,,,,,AFSA10.jpg,AFNE06.jpg,AFNE04.jpg,AFSA17.jpg,AFNE04.jpg,FN,3,num_2,32,num_6,1.00013631454,,,2017_Mar_15_1747,60.0000769809,FEMA4ImagesEEG,001,200029,
AFNE01.JPG,AFNE01.JPG,AFNE01.JPG,AFNE01.JPG,AFNE01.JPG,AFNE01.JPG,1,5,15,4,,,,,,,,,,,,,,,,,,,,,,,AFSA13.jpg,AFNE05.jpg,AFSA01.jpg,AFNE18.jpg,AFSA01.jpg,FS,4,num_2,32,num_8,1.45012043789,,,2017_Mar_15_1747,60.0000769809,FEMA4ImagesEEG,001,200029,
AFNE01.JPG,AFNE01.JPG,AFNE01.JPG,AFNE01.JPG,AFNE01.JPG,AFNE01.JPG,1,6,16,3,,,,,,,,,,,,,,,,,,,,,,,AFNE10.jpg,AFNE05.jpg,AFSA09.jpg,AFSA06.jpg,AFNE10.jpg,FN,3,num_8,16,num_8,0.883473870927,,,2017_Mar_15_1747,60.0000769809,FEMA4ImagesEEG,001,200029,
AFNE01.JPG,AFNE01.JPG,AFNE01.JPG,AFNE01.JPG,AFNE01.JPG,AFNE01.JPG,1,7,17,5,,,,,,,,,,,,,,,,,,,,,,,AFSA02.jpg,AFSA16.jpg,AFNE07.jpg,AFNE14.jpg,AFSA16.jpg,FS,4,num_6,16,num_6,1.95010440086,,,2017_Mar_15_1747,60.0000769809,FEMA4ImagesEEG,001,200029,
AFNE01.JPG,AFNE01.JPG,AFNE01.JPG,AFNE01.JPG,AFNE01.JPG,AFNE01.JPG,1,8,18,8,,,,,,,,,,,,,,,,,,,,,,,AFNE15.jpg,AFSA16.jpg,AFNE02.jpg,AFSA18.jpg,AFNE02.jpg,FN,3,num_2,16,num_2,1.58335295192,,,2017_Mar_15_1747,60.0000769809,FEMA4ImagesEEG,001,200029,
AFNE01.JPG,AFNE01.JPG,AFNE01.JPG,AFNE01.JPG,AFNE01.JPG,AFNE01.JPG,1,9,19,0,,,,,,,,,,,,,,,,,,,,,,,AFNE04.jpg,AFSA19.jpg,AFSA15.jpg,AFNE07.jpg,AFSA15.jpg,FS,4,num_2,16,num_2,0.783470342751,,,2017_Mar_15_1747,60.0000769809,FEMA4ImagesEEG,001,200029,
AFNE01.JPG,AFNE01.JPG,AFNE01.JPG,AFNE01.JPG,AFNE01.JPG,AFNE01.JPG,2,0,20,3,,,,,,,,,,,,,,,,,,,,,,,AFNE07.jpg,AFSA12.jpg,AFNE20.jpg,AFSA14.jpg,AFNE20.jpg,FN,3,num_2,32,num_8,2.98329586018,,,2017_Mar_15_1747,60.0000769809,FEMA4ImagesEEG,001,200029,
AFNE01.JPG,AFNE01.JPG,AFNE01.JPG,AFNE01.JPG,AFNE01.JPG,AFNE01.JPG,2,1,21,0,,,,,,,,,,,,,,,,,,,,,,,AFNE05.jpg,AFNE16.jpg,AFSA12.jpg,AFSA04.jpg,AFSA12.jpg,FS,4,num_2,32,num_4,2.65025899757,,,2017_Mar_15_1747,60.0000769809,FEMA4ImagesEEG,001,200029,
AFNE01.JPG,AFNE01.JPG,AFNE01.JPG,AFNE01.JPG,AFNE01.JPG,AFNE01.JPG,2,2,22,7,,,,,,,,,,,,,,,,,,,,,,,AFSA01.jpg,AFNE15.jpg,AFSA14.jpg,AFNE05.jpg,AFNE05.jpg,FN,3,num_4,32,num_8,1.05015668151,,,2017_Mar_15_1747,60.0000769809,FEMA4ImagesEEG,001,200029,
AFNE01.JPG,AFNE01.JPG,AFNE01.JPG,AFNE01.JPG,AFNE01.JPG,AFNE01.JPG,2,3,23,6,,,,,,,,,,,,,,,,,,,,,,,AFSA05.jpg,AFSA13.jpg,AFNE15.jpg,AFNE13.jpg,AFSA05.jpg,FS,4,num_8,32,num_6,1.16670526238,,,2017_Mar_15_1747,60.0000769809,FEMA4ImagesEEG,001,200029,
AFNE01.JPG,AFNE01.JPG,AFNE01.JPG,AFNE01.JPG,AFNE01.JPG,AFNE01.JPG,2,4,24,2,,,,,,,,,,,,,,,,,,,,,,,AFSA09.jpg,AFSA15.jpg,AFNE19.jpg,AFNE14.jpg,AFSA15.jpg,FS,4,num_6,16,num_6,0.983470984269,,,2017_Mar_15_1747,60.0000769809,FEMA4ImagesEEG,001,200029,
AFNE01.JPG,AFNE01.JPG,AFNE01.JPG,AFNE01.JPG,AFNE01.JPG,AFNE01.JPG,2,5,25,9,,,,,,,,,,,,,,,,,,,,,,,AFSA15.jpg,AFNE11.jpg,AFNE09.jpg,AFSA12.jpg,AFSA15.jpg,FS,4,num_8,16,num_8,1.15011755121,,,2017_Mar_15_1747,60.0000769809,FEMA4ImagesEEG,001,200029,
AFNE01.JPG,AFNE01.JPG,AFNE01.JPG,AFNE01.JPG,AFNE01.JPG,AFNE01.JPG,2,6,26,4,,,,,,,,,,,,,,,,,,,,,,,AFNE10.jpg,AFSA15.jpg,AFNE15.jpg,AFSA03.jpg,AFSA03.jpg,FS,4,num_4,16,num_4,2.35005789355,,,2017_Mar_15_1747,60.0000769809,FEMA4ImagesEEG,001,200029,
AFNE01.JPG,AFNE01.JPG,AFNE01.JPG,AFNE01.JPG,AFNE01.JPG,AFNE01.JPG,2,7,27,1,,,,,,,,,,,,,,,,,,,,,,,AFSA01.jpg,AFSA12.jpg,AFNE18.jpg,AFNE10.jpg,AFNE10.jpg,FN,3,num_4,32,num_2,2.25017785036,,,2017_Mar_15_1747,60.0000769809,FEMA4ImagesEEG,001,200029,
AFNE01.JPG,AFNE01.JPG,AFNE01.JPG,AFNE01.JPG,AFNE01.JPG,AFNE01.JPG,2,8,28,5,,,,,,,,,,,,,,,,,,,,,,,AFNE17.jpg,AFNE13.jpg,AFSA07.jpg,AFSA11.jpg,AFSA07.jpg,FS,4,num_2,16,num_2,0.950111457147,,,2017_Mar_15_1747,60.0000769809,FEMA4ImagesEEG,001,200029,
AFNE01.JPG,AFNE01.JPG,AFNE01.JPG,AFNE01.JPG,AFNE01.JPG,AFNE01.JPG,2,9,29,8,,,,,,,,,,,,,,,,,,,,,,,AFSA15.jpg,AFNE08.jpg,AFNE17.jpg,AFSA17.jpg,AFSA17.jpg,FS,4,num_4,16,num_4,1.91671440349,,,2017_Mar_15_1747,60.0000769809,FEMA4ImagesEEG,001,200029,
AFNE01.JPG,AFNE01.JPG,AFNE01.JPG,AFNE01.JPG,AFNE01.JPG,AFNE01.JPG,3,0,30,9,,,,,,,,,,,,,,,,,,,,,,,AFSA16.jpg,AFNE12.jpg,AFSA13.jpg,AFNE17.jpg,AFNE17.jpg,FN,3,num_4,16,num_4,1.38342255249,,,2017_Mar_15_1747,60.0000769809,FEMA4ImagesEEG,001,200029,
AFNE01.JPG,AFNE01.JPG,AFNE01.JPG,AFNE01.JPG,AFNE01.JPG,AFNE01.JPG,3,1,31,2,,,,,,,,,,,,,,,,,,,,,,,AFSA17.jpg,AFNE08.jpg,AFNE10.jpg,AFSA18.jpg,AFSA18.jpg,FS,4,num_4,16,num_4,2.06679635256,,,2017_Mar_15_1747,60.0000769809,FEMA4ImagesEEG,001,200029,
AFNE01.JPG,AFNE01.JPG,AFNE01.JPG,AFNE01.JPG,AFNE01.JPG,AFNE01.JPG,3,2,32,7,,,,,,,,,,,,,,,,,,,,,,,AFNE16.jpg,AFSA13.jpg,AFSA17.jpg,AFNE09.jpg,AFSA17.jpg,FS,4,num_2,16,num_2,1.26673060085,,,2017_Mar_15_1747,60.0000769809,FEMA4ImagesEEG,001,200029,
AFNE01.JPG,AFNE01.JPG,AFNE01.JPG,AFNE01.JPG,AFNE01.JPG,AFNE01.JPG,3,3,33,0,,,,,,,,,,,,,,,,,,,,,,,AFSA08.jpg,AFNE05.jpg,AFNE02.jpg,AFSA07.jpg,AFSA08.jpg,FS,4,num_8,16,num_8,0.95014192746,,,2017_Mar_15_1747,60.0000769809,FEMA4ImagesEEG,001,200029,
AFNE01.JPG,AFNE01.JPG,AFNE01.JPG,AFNE01.JPG,AFNE01.JPG,AFNE01.JPG,3,4,34,6,,,,,,,,,,,,,,,,,,,,,,,AFNE01.jpg,AFSA13.jpg,AFSA09.jpg,AFNE06.jpg,AFNE06.jpg,FN,3,num_4,32,num_8,2.2500466677,,,2017_Mar_15_1747,60.0000769809,FEMA4ImagesEEG,001,200029,
AFNE01.JPG,AFNE01.JPG,AFNE01.JPG,AFNE01.JPG,AFNE01.JPG,AFNE01.JPG,3,5,35,5,,,,,,,,,,,,,,,,,,,,,,,AFNE18.jpg,AFNE11.jpg,AFSA04.jpg,AFSA19.jpg,AFSA04.jpg,FS,4,num_2,16,num_2,3.31656429719,,,2017_Mar_15_1747,60.0000769809,FEMA4ImagesEEG,001,200029,
AFNE01.JPG,AFNE01.JPG,AFNE01.JPG,AFNE01.JPG,AFNE01.JPG,AFNE01.JPG,3,6,36,1,,,,,,,,,,,,,,,,,,,,,,,AFNE14.jpg,AFNE12.jpg,AFSA11.jpg,AFSA19.jpg,AFSA19.jpg,FS,4,num_4,16,num_4,1.18337636598,,,2017_Mar_15_1747,60.0000769809,FEMA4ImagesEEG,001,200029,
AFNE01.JPG,AFNE01.JPG,AFNE01.JPG,AFNE01.JPG,AFNE01.JPG,AFNE01.JPG,3,7,37,8,,,,,,,,,,,,,,,,,,,,,,,AFNE19.jpg,AFSA19.jpg,AFSA01.jpg,AFNE17.jpg,AFNE19.jpg,FN,3,num_8,16,num_8,1.08346136205,,,2017_Mar_15_1747,60.0000769809,FEMA4ImagesEEG,001,200029,
AFNE01.JPG,AFNE01.JPG,AFNE01.JPG,AFNE01.JPG,AFNE01.JPG,AFNE01.JPG,3,8,38,4,,,,,,,,,,,,,,,,,,,,,,,AFSA04.jpg,AFNE05.jpg,AFNE04.jpg,AFSA11.jpg,AFSA04.jpg,FS,4,num_8,32,num_6,3.26629535668,,,2017_Mar_15_1747,60.0000769809,FEMA4ImagesEEG,001,200029,
AFNE01.JPG,AFNE01.JPG,AFNE01.JPG,AFNE01.JPG,AFNE01.JPG,AFNE01.JPG,3,9,39,3,,,,,,,,,,,,,,,,,,,,,,,AFNE11.jpg,AFSA07.jpg,AFSA16.jpg,AFNE16.jpg,AFSA16.jpg,FS,4,num_2,16,num_2,2.35000561294,,,2017_Mar_15_1747,60.0000769809,FEMA4ImagesEEG,001,200029,
AFNE01.JPG,AFNE01.JPG,AFNE01.JPG,AFNE01.JPG,AFNE01.JPG,AFNE01.JPG,4,0,40,8,,,,,,,,,,,,,,,,,,,,,,,AFSA01.jpg,AFNE08.jpg,AFSA11.jpg,AFNE13.jpg,AFNE08.jpg,FN,3,num_6,16,num_6,0.716826341755,,,2017_Mar_15_1747,60.0000769809,FEMA4ImagesEEG,001,200029,
AFNE01.JPG,AFNE01.JPG,AFNE01.JPG,AFNE01.JPG,AFNE01.JPG,AFNE01.JPG,4,1,41,1,,,,,,,,,,,,,,,,,,,,,,,AFNE18.jpg,AFSA15.jpg,AFSA11.jpg,AFNE16.jpg,AFSA11.jpg,FS,4,num_2,16,num_2,0.666783202207,,,2017_Mar_15_1747,60.0000769809,FEMA4ImagesEEG,001,200029,
AFNE01.JPG,AFNE01.JPG,AFNE01.JPG,AFNE01.JPG,AFNE01.JPG,AFNE01.JPG,4,2,42,7,,,,,,,,,,,,,,,,,,,,,,,AFNE20.jpg,AFSA06.jpg,AFNE07.jpg,AFSA15.jpg,AFNE07.jpg,FN,3,num_2,32,num_8,2.33333290566,,,2017_Mar_15_1747,60.0000769809,FEMA4ImagesEEG,001,200029,
AFNE01.JPG,AFNE01.JPG,AFNE01.JPG,AFNE01.JPG,AFNE01.JPG,AFNE01.JPG,4,3,43,4,,,,,,,,,,,,,,,,,,,,,,,AFNE18.jpg,AFNE20.jpg,AFSA13.jpg,AFSA06.jpg,AFNE18.jpg,FN,3,num_8,32,num_6,1.20012252266,,,2017_Mar_15_1747,60.0000769809,FEMA4ImagesEEG,001,200029,
AFNE01.JPG,AFNE01.JPG,AFNE01.JPG,AFNE01.JPG,AFNE01.JPG,AFNE01.JPG,4,4,44,5,,,,,,,,,,,,,,,,,,,,,,,AFSA04.jpg,AFNE11.jpg,AFNE20.jpg,AFSA20.jpg,AFNE11.jpg,FN,3,num_6,16,num_6,1.36659300333,,,2017_Mar_15_1747,60.0000769809,FEMA4ImagesEEG,001,200029,
AFNE01.JPG,AFNE01.JPG,AFNE01.JPG,AFNE01.JPG,AFNE01.JPG,AFNE01.JPG,4,5,45,3,,,,,,,,,,,,,,,,,,,,,,,AFNE17.jpg,AFSA08.jpg,AFNE14.jpg,AFSA11.jpg,AFSA08.jpg,FS,4,num_6,16,num_6,1.85003223439,,,2017_Mar_15_1747,60.0000769809,FEMA4ImagesEEG,001,200029,
AFNE01.JPG,AFNE01.JPG,AFNE01.JPG,AFNE01.JPG,AFNE01.JPG,AFNE01.JPG,4,6,46,0,,,,,,,,,,,,,,,,,,,,,,,AFSA08.jpg,AFNE14.jpg,AFNE20.jpg,AFSA10.jpg,AFNE14.jpg,FN,3,num_6,16,num_6,1.21674134559,,,2017_Mar_15_1747,60.0000769809,FEMA4ImagesEEG,001,200029,
AFNE01.JPG,AFNE01.JPG,AFNE01.JPG,AFNE01.JPG,AFNE01.JPG,AFNE01.JPG,4,7,47,9,,,,,,,,,,,,,,,,,,,,,,,AFSA14.jpg,AFSA08.jpg,AFNE04.jpg,AFNE07.jpg,AFSA08.jpg,FS,4,num_6,32,num_8,1.08342672215,,,2017_Mar_15_1747,60.0000769809,FEMA4ImagesEEG,001,200029,
AFNE01.JPG,AFNE01.JPG,AFNE01.JPG,AFNE01.JPG,AFNE01.JPG,AFNE01.JPG,4,8,48,2,,,,,,,,,,,,,,,,,,,,,,,AFSA11.jpg,AFNE09.jpg,AFSA16.jpg,AFNE04.jpg,AFNE09.jpg,FN,3,num_6,32,num_4,2.09974340798,,,2017_Mar_15_1747,60.0000769809,FEMA4ImagesEEG,001,200029,
AFNE01.JPG,AFNE01.JPG,AFNE01.JPG,AFNE01.JPG,AFNE01.JPG,AFNE01.JPG,4,9,49,6,,,,,,,,,,,,,,,,,,,,,,,AFNE11.jpg,AFNE16.jpg,AFSA18.jpg,AFSA20.jpg,AFSA18.jpg,FS,4,num_2,32,num_4,2.08334749937,,,2017_Mar_15_1747,60.0000769809,FEMA4ImagesEEG,001,200029,
AFNE01.JPG,AFNE01.JPG,AFNE01.JPG,AFNE01.JPG,AFNE01.JPG,AFNE01.JPG,5,0,50,9,,,,,,,,,,,,,,,,,,,,,,,AFSA16.jpg,AFSA13.jpg,AFNE17.jpg,AFNE14.jpg,AFSA13.jpg,FS,4,num_6,32,num_8,1.48352262343,,,2017_Mar_15_1747,60.0000769809,FEMA4ImagesEEG,001,200029,
AFNE01.JPG,AFNE01.JPG,AFNE01.JPG,AFNE01.JPG,AFNE01.JPG,AFNE01.JPG,5,1,51,4,,,,,,,,,,,,,,,,,,,,,,,AFSA02.jpg,AFNE08.jpg,AFSA20.jpg,AFNE19.jpg,AFNE08.jpg,FN,3,num_6,16,num_6,1.08347258798,,,2017_Mar_15_1747,60.0000769809,FEMA4ImagesEEG,001,200029,
AFNE01.JPG,AFNE01.JPG,AFNE01.JPG,AFNE01.JPG,AFNE01.JPG,AFNE01.JPG,5,2,52,6,,,,,,,,,,,,,,,,,,,,,,,AFSA01.jpg,AFNE12.jpg,AFSA17.jpg,AFNE09.jpg,AFNE12.jpg,FN,3,num_6,16,num_6,0.816759307054,,,2017_Mar_15_1747,60.0000769809,FEMA4ImagesEEG,001,200029,
AFNE01.JPG,AFNE01.JPG,AFNE01.JPG,AFNE01.JPG,AFNE01.JPG,AFNE01.JPG,5,3,53,8,,,,,,,,,,,,,,,,,,,,,,,AFSA02.jpg,AFNE10.jpg,AFNE19.jpg,AFSA14.jpg,AFSA14.jpg,FS,4,num_4,32,num_2,1.56670269649,,,2017_Mar_15_1747,60.0000769809,FEMA4ImagesEEG,001,200029,
AFNE01.JPG,AFNE01.JPG,AFNE01.JPG,AFNE01.JPG,AFNE01.JPG,AFNE01.JPG,5,4,54,2,,,,,,,,,,,,,,,,,,,,,,,AFNE11.jpg,AFSA17.jpg,AFNE16.jpg,AFSA16.jpg,AFSA17.jpg,FS,4,num_6,32,num_8,2.84999502858,,,2017_Mar_15_1747,60.0000769809,FEMA4ImagesEEG,001,200029,
AFNE01.JPG,AFNE01.JPG,AFNE01.JPG,AFNE01.JPG,AFNE01.JPG,AFNE01.JPG,5,5,55,1,,,,,,,,,,,,,,,,,,,,,,,AFSA01.jpg,AFNE16.jpg,AFNE18.jpg,AFSA18.jpg,AFNE16.jpg,FN,3,num_6,32,num_4,3.31644337816,,,2017_Mar_15_1747,60.0000769809,FEMA4ImagesEEG,001,200029,
AFNE01.JPG,AFNE01.JPG,AFNE01.JPG,AFNE01.JPG,AFNE01.JPG,AFNE01.JPG,5,6,56,7,,,,,,,,,,,,,,,,,,,,,,,AFNE20.jpg,AFSA12.jpg,AFNE15.jpg,AFSA06.jpg,AFSA12.jpg,FS,4,num_6,16,num_6,1.15007200616,,,2017_Mar_15_1747,60.0000769809,FEMA4ImagesEEG,001,200029,
AFNE01.JPG,AFNE01.JPG,AFNE01.JPG,AFNE01.JPG,AFNE01.JPG,AFNE01.JPG,5,7,57,3,,,,,,,,,,,,,,,,,,,,,,,AFNE02.jpg,AFNE14.jpg,AFSA02.jpg,AFSA05.jpg,AFNE14.jpg,FN,3,num_6,16,num_6,0.733472106862,,,2017_Mar_15_1747,60.0000769809,FEMA4ImagesEEG,001,200029,
AFNE01.JPG,AFNE01.JPG,AFNE01.JPG,AFNE01.JPG,AFNE01.JPG,AFNE01.JPG,5,8,58,5,,,,,,,,,,,,,,,,,,,,,,,AFSA20.jpg,AFNE05.jpg,AFNE04.jpg,AFSA11.jpg,AFNE05.jpg,FN,3,num_6,32,num_8,2.03339480853,,,2017_Mar_15_1747,60.0000769809,FEMA4ImagesEEG,001,200029,
AFNE01.JPG,AFNE01.JPG,AFNE01.JPG,AFNE01.JPG,AFNE01.JPG,AFNE01.JPG,5,9,59,0,,,,,,,,,,,,,,,,,,,,,,,AFSA01.jpg,AFNE15.jpg,AFSA19.jpg,AFNE03.jpg,AFNE15.jpg,FN,3,num_6,16,num_6,1.25007264764,,,2017_Mar_15_1747,60.0000769809,FEMA4ImagesEEG,001,200029,
,,,,,,,,,,,,,,,,,,,,,,,,,,,,,,,,,,,,,,,,,,,space,2.3001202775,2017_Mar_15_1747,60.0000769809,FEMA4ImagesEEG,001,200029,
AFNE01.JPG,AFNE01.JPG,AFNE01.JPG,AFNE01.JPG,AFNE01.JPG,AFNE01.JPG,,,,,0,0,0,8,,,,,,,,,,,,,,,,,,,AMNE18.jpg,AMNE06.jpg,AMSA01.jpg,AMSA02.jpg,AMNE18.jpg,MN,1,num_8,32,num_6,1.68351652933,,,2017_Mar_15_1747,60.0000769809,FEMA4ImagesEEG,001,200029,
AFNE01.JPG,AFNE01.JPG,AFNE01.JPG,AFNE01.JPG,AFNE01.JPG,AFNE01.JPG,,,,,0,1,1,4,,,,,,,,,,,,,,,,,,,AMNE09.jpg,AMSA20.jpg,AMSA13.jpg,AMNE13.jpg,AMNE13.jpg,MN,1,num_4,16,num_4,1.05009734462,,,2017_Mar_15_1747,60.0000769809,FEMA4ImagesEEG,001,200029,
AFNE01.JPG,AFNE01.JPG,AFNE01.JPG,AFNE01.JPG,AFNE01.JPG,AFNE01.JPG,,,,,0,2,2,1,,,,,,,,,,,,,,,,,,,AMSA08.jpg,AMSA05.jpg,AMNE01.jpg,AMNE15.jpg,AMSA08.jpg,MS,2,num_8,16,num_8,1.33356640436,,,2017_Mar_15_1747,60.0000769809,FEMA4ImagesEEG,001,200029,
AFNE01.JPG,AFNE01.JPG,AFNE01.JPG,AFNE01.JPG,AFNE01.JPG,AFNE01.JPG,,,,,0,3,3,0,,,,,,,,,,,,,,,,,,,AMNE11.jpg,AMNE14.jpg,AMSA16.jpg,AMSA03.jpg,AMSA16.jpg,MS,2,num_2,32,num_4,1.35006013873,,,2017_Mar_15_1747,60.0000769809,FEMA4ImagesEEG,001,200029,
AFNE01.JPG,AFNE01.JPG,AFNE01.JPG,AFNE01.JPG,AFNE01.JPG,AFNE01.JPG,,,,,0,4,4,7,,,,,,,,,,,,,,,,,,,AMSA16.jpg,AMNE10.jpg,AMNE18.jpg,AMSA20.jpg,AMNE18.jpg,MN,1,num_2,16,num_2,1.11672627088,,,2017_Mar_15_1747,60.0000769809,FEMA4ImagesEEG,001,200029,
AFNE01.JPG,AFNE01.JPG,AFNE01.JPG,AFNE01.JPG,AFNE01.JPG,AFNE01.JPG,,,,,0,5,5,5,,,,,,,,,,,,,,,,,,,AMSA17.jpg,AMNE10.jpg,AMNE16.jpg,AMSA07.jpg,AMNE10.jpg,MN,1,num_6,32,num_8,2.29999807558,,,2017_Mar_15_1747,60.0000769809,FEMA4ImagesEEG,001,200029,
AFNE01.JPG,AFNE01.JPG,AFNE01.JPG,AFNE01.JPG,AFNE01.JPG,AFNE01.JPG,,,,,0,6,6,3,,,,,,,,,,,,,,,,,,,AMSA18.jpg,AMSA11.jpg,AMNE07.jpg,AMNE01.jpg,AMSA11.jpg,MS,2,num_6,16,num_6,3.54992959753,,,2017_Mar_15_1747,60.0000769809,FEMA4ImagesEEG,001,200029,
AFNE01.JPG,AFNE01.JPG,AFNE01.JPG,AFNE01.JPG,AFNE01.JPG,AFNE01.JPG,,,,,0,7,7,6,,,,,,,,,,,,,,,,,,,AMSA10.jpg,AMNE02.jpg,AMNE13.jpg,AMSA04.jpg,AMNE02.jpg,MN,1,num_6,32,num_4,1.11677758925,,,2017_Mar_15_1747,60.0000769809,FEMA4ImagesEEG,001,200029,
AFNE01.JPG,AFNE01.JPG,AFNE01.JPG,AFNE01.JPG,AFNE01.JPG,AFNE01.JPG,,,,,0,8,8,2,,,,,,,,,,,,,,,,,,,AMNE11.jpg,AMSA18.jpg,AMSA17.jpg,AMNE09.jpg,AMNE09.jpg,MN,1,num_4,32,num_8,1.25009574089,,,2017_Mar_15_1747,60.0000769809,FEMA4ImagesEEG,001,200029,
AFNE01.JPG,AFNE01.JPG,AFNE01.JPG,AFNE01.JPG,AFNE01.JPG,AFNE01.JPG,,,,,0,9,9,9,,,,,,,,,,,,,,,,,,,AMSA04.jpg,AMNE05.jpg,AMSA19.jpg,AMNE03.jpg,AMNE05.jpg,MN,1,num_6,32,num_4,1.10015780409,,,2017_Mar_15_1747,60.0000769809,FEMA4ImagesEEG,001,200029,
AFNE01.JPG,AFNE01.JPG,AFNE01.JPG,AFNE01.JPG,AFNE01.JPG,AFNE01.JPG,,,,,1,0,10,4,,,,,,,,,,,,,,,,,,,AMSA16.jpg,AMSA02.jpg,AMNE01.jpg,AMNE18.jpg,AMSA02.jpg,MS,2,num_6,16,num_6,1.15007810021,,,2017_Mar_15_1747,60.0000769809,FEMA4ImagesEEG,001,200029,
AFNE01.JPG,AFNE01.JPG,AFNE01.JPG,AFNE01.JPG,AFNE01.JPG,AFNE01.JPG,,,,,1,1,11,2,,,,,,,,,,,,,,,,,,,AMNE07.jpg,AMSA03.jpg,AMNE13.jpg,AMSA04.jpg,AMNE07.jpg,MN,1,num_8,16,num_8,2.08336546074,,,2017_Mar_15_1747,60.0000769809,FEMA4ImagesEEG,001,200029,
AFNE01.JPG,AFNE01.JPG,AFNE01.JPG,AFNE01.JPG,AFNE01.JPG,AFNE01.JPG,,,,,1,2,12,9,,,,,,,,,,,,,,,,,,,AMNE02.jpg,AMSA03.jpg,AMNE05.jpg,AMSA16.jpg,AMNE02.jpg,MN,1,num_8,32,num_4,3.94990169321,,,2017_Mar_15_1747,60.0000769809,FEMA4ImagesEEG,001,200029,
AFNE01.JPG,AFNE01.JPG,AFNE01.JPG,AFNE01.JPG,AFNE01.JPG,AFNE01.JPG,,,,,1,3,13,5,,,,,,,,,,,,,,,,,,,AMSA18.jpg,AMSA19.jpg,AMNE03.jpg,AMNE04.jpg,AMSA19.jpg,MS,2,num_6,32,num_2,2.33333675453,,,2017_Mar_15_1747,60.0000769809,FEMA4ImagesEEG,001,200029,
AFNE01.JPG,AFNE01.JPG,AFNE01.JPG,AFNE01.JPG,AFNE01.JPG,AFNE01.JPG,,,,,1,4,14,6,,,,,,,,,,,,,,,,,,,AMNE08.jpg,AMSA12.jpg,AMNE12.jpg,AMSA14.jpg,AMNE12.jpg,MN,1,num_2,16,num_2,2.78334332973,,,2017_Mar_15_1747,60.0000769809,FEMA4ImagesEEG,001,200029,
AFNE01.JPG,AFNE01.JPG,AFNE01.JPG,AFNE01.JPG,AFNE01.JPG,AFNE01.JPG,,,,,1,5,15,0,,,,,,,,,,,,,,,,,,,AMNE16.jpg,AMSA02.jpg,AMNE20.jpg,AMSA09.jpg,AMNE16.jpg,MN,1,num_8,16,num_8,0.950147700729,,,2017_Mar_15_1747,60.0000769809,FEMA4ImagesEEG,001,200029,
AFNE01.JPG,AFNE01.JPG,AFNE01.JPG,AFNE01.JPG,AFNE01.JPG,AFNE01.JPG,,,,,1,6,16,8,,,,,,,,,,,,,,,,,,,AMSA18.jpg,AMNE10.jpg,AMSA09.jpg,AMNE20.jpg,AMNE20.jpg,MN,1,num_4,16,num_4,0.86649325327,,,2017_Mar_15_1747,60.0000769809,FEMA4ImagesEEG,001,200029,
AFNE01.JPG,AFNE01.JPG,AFNE01.JPG,AFNE01.JPG,AFNE01.JPG,AFNE01.JPG,,,,,1,7,17,3,,,,,,,,,,,,,,,,,,,AMSA04.jpg,AMSA15.jpg,AMNE02.jpg,AMNE09.jpg,AMSA15.jpg,MS,2,num_6,16,num_6,0.650149304478,,,2017_Mar_15_1747,60.0000769809,FEMA4ImagesEEG,001,200029,
AFNE01.JPG,AFNE01.JPG,AFNE01.JPG,AFNE01.JPG,AFNE01.JPG,AFNE01.JPG,,,,,1,8,18,1,,,,,,,,,,,,,,,,,,,AMSA05.jpg,AMNE07.jpg,AMSA03.jpg,AMNE03.jpg,AMSA03.jpg,MS,2,num_2,16,num_2,0.900112900476,,,2017_Mar_15_1747,60.0000769809,FEMA4ImagesEEG,001,200029,
AFNE01.JPG,AFNE01.JPG,AFNE01.JPG,AFNE01.JPG,AFNE01.JPG,AFNE01.JPG,,,,,1,9,19,7,,,,,,,,,,,,,,,,,,,AMNE17.jpg,AMSA05.jpg,AMNE10.jpg,AMSA11.jpg,AMSA11.jpg,MS,2,num_4,32,num_2,2.54996391677,,,2017_Mar_15_1747,60.0000769809,FEMA4ImagesEEG,001,200029,
AFNE01.JPG,AFNE01.JPG,AFNE01.JPG,AFNE01.JPG,AFNE01.JPG,AFNE01.JPG,,,,,2,0,20,7,,,,,,,,,,,,,,,,,,,AMSA10.jpg,AMSA17.jpg,AMNE02.jpg,AMNE19.jpg,AMNE19.jpg,MN,1,num_4,16,num_4,0.90013054118,,,2017_Mar_15_1747,60.0000769809,FEMA4ImagesEEG,001,200029,
AFNE01.JPG,AFNE01.JPG,AFNE01.JPG,AFNE01.JPG,AFNE01.JPG,AFNE01.JPG,,,,,2,1,21,6,,,,,,,,,,,,,,,,,,,AMSA16.jpg,AMSA12.jpg,AMNE14.jpg,AMNE18.jpg,AMSA16.jpg,MS,2,num_8,16,num_8,4.09991660755,,,2017_Mar_15_1747,60.0000769809,FEMA4ImagesEEG,001,200029,
AFNE01.JPG,AFNE01.JPG,AFNE01.JPG,AFNE01.JPG,AFNE01.JPG,AFNE01.JPG,,,,,2,2,22,8,,,,,,,,,,,,,,,,,,,AMSA09.jpg,AMSA01.jpg,AMNE02.jpg,AMNE14.jpg,AMSA01.jpg,MS,2,num_6,32,num_2,1.68339753477,,,2017_Mar_15_1747,60.0000769809,FEMA4ImagesEEG,001,200029,
AFNE01.JPG,AFNE01.JPG,AFNE01.JPG,AFNE01.JPG,AFNE01.JPG,AFNE01.JPG,,,,,2,3,23,1,,,,,,,,,,,,,,,,,,,AMSA14.jpg,AMNE17.jpg,AMSA06.jpg,AMNE18.jpg,AMNE18.jpg,MN,1,num_4,16,num_4,0.983426401392,,,2017_Mar_15_1747,60.0000769809,FEMA4ImagesEEG,001,200029,
AFNE01.JPG,AFNE01.JPG,AFNE01.JPG,AFNE01.JPG,AFNE01.JPG,AFNE01.JPG,,,,,2,4,24,9,,,,,,,,,,,,,,,,,,,AMSA12.jpg,AMNE07.jpg,AMNE10.jpg,AMSA14.jpg,AMSA12.jpg,MS,2,num_8,32,num_6,1.0001327864,,,2017_Mar_15_1747,60.0000769809,FEMA4ImagesEEG,001,200029,
AFNE01.JPG,AFNE01.JPG,AFNE01.JPG,AFNE01.JPG,AFNE01.JPG,AFNE01.JPG,,,,,2,5,25,4,,,,,,,,,,,,,,,,,,,AMNE19.jpg,AMNE17.jpg,AMSA15.jpg,AMSA03.jpg,AMSA03.jpg,MS,2,num_4,16,num_4,0.916814474331,,,2017_Mar_15_1747,60.0000769809,FEMA4ImagesEEG,001,200029,
AFNE01.JPG,AFNE01.JPG,AFNE01.JPG,AFNE01.JPG,AFNE01.JPG,AFNE01.JPG,,,,,2,6,26,2,,,,,,,,,,,,,,,,,,,AMSA06.jpg,AMNE02.jpg,AMSA11.jpg,AMNE07.jpg,AMSA11.jpg,MS,2,num_2,16,num_2,1.33313757501,,,2017_Mar_15_1747,60.0000769809,FEMA4ImagesEEG,001,200029,
AFNE01.JPG,AFNE01.JPG,AFNE01.JPG,AFNE01.JPG,AFNE01.JPG,AFNE01.JPG,,,,,2,7,27,3,,,,,,,,,,,,,,,,,,,AMSA13.jpg,AMSA18.jpg,AMNE05.jpg,AMNE03.jpg,AMNE03.jpg,MN,1,num_4,16,num_4,2.78329746396,,,2017_Mar_15_1747,60.0000769809,FEMA4ImagesEEG,001,200029,
AFNE01.JPG,AFNE01.JPG,AFNE01.JPG,AFNE01.JPG,AFNE01.JPG,AFNE01.JPG,,,,,2,8,28,5,,,,,,,,,,,,,,,,,,,AMNE11.jpg,AMNE03.jpg,AMSA07.jpg,AMSA15.jpg,AMNE11.jpg,MN,1,num_8,16,num_8,0.833463126095,,,2017_Mar_15_1747,60.0000769809,FEMA4ImagesEEG,001,200029,
AFNE01.JPG,AFNE01.JPG,AFNE01.JPG,AFNE01.JPG,AFNE01.JPG,AFNE01.JPG,,,,,2,9,29,0,,,,,,,,,,,,,,,,,,,AMNE06.jpg,AMNE01.jpg,AMSA16.jpg,AMSA08.jpg,AMNE01.jpg,MN,1,num_6,16,num_6,0.750138399308,,,2017_Mar_15_1747,60.0000769809,FEMA4ImagesEEG,001,200029,
AFNE01.JPG,AFNE01.JPG,AFNE01.JPG,AFNE01.JPG,AFNE01.JPG,AFNE01.JPG,,,,,3,0,30,0,,,,,,,,,,,,,,,,,,,AMNE09.jpg,AMSA14.jpg,AMNE10.jpg,AMSA16.jpg,AMNE10.jpg,MN,1,num_2,16,num_2,0.933428165503,,,2017_Mar_15_1747,60.0000769809,FEMA4ImagesEEG,001,200029,
AFNE01.JPG,AFNE01.JPG,AFNE01.JPG,AFNE01.JPG,AFNE01.JPG,AFNE01.JPG,,,,,3,1,31,9,,,,,,,,,,,,,,,,,,,AMNE07.jpg,AMSA11.jpg,AMNE09.jpg,AMSA02.jpg,AMNE07.jpg,MN,1,num_8,32,num_2,1.05012973933,,,2017_Mar_15_1747,60.0000769809,FEMA4ImagesEEG,001,200029,
AFNE01.JPG,AFNE01.JPG,AFNE01.JPG,AFNE01.JPG,AFNE01.JPG,AFNE01.JPG,,,,,3,2,32,2,,,,,,,,,,,,,,,,,,,AMNE05.jpg,AMNE03.jpg,AMSA05.jpg,AMSA09.jpg,AMSA09.jpg,MS,2,num_4,16,num_4,1.38337251707,,,2017_Mar_15_1747,60.0000769809,FEMA4ImagesEEG,001,200029,
AFNE01.JPG,AFNE01.JPG,AFNE01.JPG,AFNE01.JPG,AFNE01.JPG,AFNE01.JPG,,,,,3,3,33,8,,,,,,,,,,,,,,,,,,,AMSA20.jpg,AMNE13.jpg,AMSA05.jpg,AMNE16.jpg,AMNE16.jpg,MN,1,num_4,32,num_6,1.16683676583,,,2017_Mar_15_1747,60.0000769809,FEMA4ImagesEEG,001,200029,
AFNE01.JPG,AFNE01.JPG,AFNE01.JPG,AFNE01.JPG,AFNE01.JPG,AFNE01.JPG,,,,,3,4,34,7,,,,,,,,,,,,,,,,,,,AMSA05.jpg,AMNE20.jpg,AMNE07.jpg,AMSA09.jpg,AMNE07.jpg,MN,1,num_2,16,num_2,0.983394648123,,,2017_Mar_15_1747,60.0000769809,FEMA4ImagesEEG,001,200029,
AFNE01.JPG,AFNE01.JPG,AFNE01.JPG,AFNE01.JPG,AFNE01.JPG,AFNE01.JPG,,,,,3,5,35,1,,,,,,,,,,,,,,,,,,,AMNE14.jpg,AMSA16.jpg,AMSA11.jpg,AMNE05.jpg,AMSA16.jpg,MS,2,num_6,16,num_6,2.55001940479,,,2017_Mar_15_1747,60.0000769809,FEMA4ImagesEEG,001,200029,
AFNE01.JPG,AFNE01.JPG,AFNE01.JPG,AFNE01.JPG,AFNE01.JPG,AFNE01.JPG,,,,,3,6,36,3,,,,,,,,,,,,,,,,,,,AMNE04.jpg,AMSA10.jpg,AMSA14.jpg,AMNE11.jpg,AMSA14.jpg,MS,2,num_2,16,num_2,3.93291049107,,,2017_Mar_15_1747,60.0000769809,FEMA4ImagesEEG,001,200029,
AFNE01.JPG,AFNE01.JPG,AFNE01.JPG,AFNE01.JPG,AFNE01.JPG,AFNE01.JPG,,,,,3,7,37,4,,,,,,,,,,,,,,,,,,,AMNE14.jpg,AMSA05.jpg,AMNE13.jpg,AMSA20.jpg,AMNE13.jpg,MN,1,num_2,32,num_6,1.01677534409,,,2017_Mar_15_1747,60.0000769809,FEMA4ImagesEEG,001,200029,
AFNE01.JPG,AFNE01.JPG,AFNE01.JPG,AFNE01.JPG,AFNE01.JPG,AFNE01.JPG,,,,,3,8,38,5,,,,,,,,,,,,,,,,,,,AMSA20.jpg,AMNE06.jpg,AMNE14.jpg,AMSA14.jpg,AMSA20.jpg,MS,2,num_8,32,num_4,3.03340988333,,,2017_Mar_15_1747,60.0000769809,FEMA4ImagesEEG,001,200029,
AFNE01.JPG,AFNE01.JPG,AFNE01.JPG,AFNE01.JPG,AFNE01.JPG,AFNE01.JPG,,,,,3,9,39,6,,,,,,,,,,,,,,,,,,,AMSA18.jpg,AMSA06.jpg,AMNE10.jpg,AMNE06.jpg,AMNE10.jpg,MN,1,num_2,16,num_2,0.950104721647,,,2017_Mar_15_1747,60.0000769809,FEMA4ImagesEEG,001,200029,
AFNE01.JPG,AFNE01.JPG,AFNE01.JPG,AFNE01.JPG,AFNE01.JPG,AFNE01.JPG,,,,,4,0,40,6,,,,,,,,,,,,,,,,,,,AMNE19.jpg,AMSA02.jpg,AMNE14.jpg,AMSA06.jpg,AMSA06.jpg,MS,2,num_4,16,num_4,3.23328543612,,,2017_Mar_15_1747,60.0000769809,FEMA4ImagesEEG,001,200029,
AFNE01.JPG,AFNE01.JPG,AFNE01.JPG,AFNE01.JPG,AFNE01.JPG,AFNE01.JPG,,,,,4,1,41,9,,,,,,,,,,,,,,,,,,,AMNE11.jpg,AMNE19.jpg,AMSA02.jpg,AMSA05.jpg,AMNE11.jpg,MN,1,num_8,16,num_8,1.10018025589,,,2017_Mar_15_1747,60.0000769809,FEMA4ImagesEEG,001,200029,
AFNE01.JPG,AFNE01.JPG,AFNE01.JPG,AFNE01.JPG,AFNE01.JPG,AFNE01.JPG,,,,,4,2,42,1,,,,,,,,,,,,,,,,,,,AMSA18.jpg,AMNE14.jpg,AMNE11.jpg,AMSA02.jpg,AMSA02.jpg,MS,2,num_4,32,num_2,1.78336000821,,,2017_Mar_15_1747,60.0000769809,FEMA4ImagesEEG,001,200029,
AFNE01.JPG,AFNE01.JPG,AFNE01.JPG,AFNE01.JPG,AFNE01.JPG,AFNE01.JPG,,,,,4,3,43,3,,,,,,,,,,,,,,,,,,,AMNE03.jpg,AMNE13.jpg,AMSA20.jpg,AMSA14.jpg,AMNE03.jpg,MN,1,num_8,16,num_8,1.86673380825,,,2017_Mar_15_1747,60.0000769809,FEMA4ImagesEEG,001,200029,
AFNE01.JPG,AFNE01.JPG,AFNE01.JPG,AFNE01.JPG,AFNE01.JPG,AFNE01.JPG,,,,,4,4,44,4,,,,,,,,,,,,,,,,,,,AMNE02.jpg,AMSA06.jpg,AMNE01.jpg,AMSA09.jpg,AMNE01.jpg,MN,1,num_2,16,num_2,0.850102797151,,,2017_Mar_15_1747,60.0000769809,FEMA4ImagesEEG,001,200029,
AFNE01.JPG,AFNE01.JPG,AFNE01.JPG,AFNE01.JPG,AFNE01.JPG,AFNE01.JPG,,,,,4,5,45,8,,,,,,,,,,,,,,,,,,,AMSA11.jpg,AMNE03.jpg,AMSA09.jpg,AMNE11.jpg,AMSA09.jpg,MS,2,num_2,32,num_4,2.78304119268,,,2017_Mar_15_1747,60.0000769809,FEMA4ImagesEEG,001,200029,
AFNE01.JPG,AFNE01.JPG,AFNE01.JPG,AFNE01.JPG,AFNE01.JPG,AFNE01.JPG,,,,,4,6,46,0,,,,,,,,,,,,,,,,,,,AMSA06.jpg,AMSA08.jpg,AMNE09.jpg,AMNE08.jpg,AMNE09.jpg,MN,1,num_2,16,num_2,3.53323572146,,,2017_Mar_15_1747,60.0000769809,FEMA4ImagesEEG,001,200029,
AFNE01.JPG,AFNE01.JPG,AFNE01.JPG,AFNE01.JPG,AFNE01.JPG,AFNE01.JPG,,,,,4,7,47,7,,,,,,,,,,,,,,,,,,,AMSA19.jpg,AMNE15.jpg,AMNE08.jpg,AMSA03.jpg,AMSA03.jpg,MS,2,num_4,32,num_8,0.783472587937,,,2017_Mar_15_1747,60.0000769809,FEMA4ImagesEEG,001,200029,
AFNE01.JPG,AFNE01.JPG,AFNE01.JPG,AFNE01.JPG,AFNE01.JPG,AFNE01.JPG,,,,,4,8,48,2,,,,,,,,,,,,,,,,,,,AMSA10.jpg,AMNE15.jpg,AMNE14.jpg,AMSA06.jpg,AMSA06.jpg,MS,2,num_4,16,num_4,0.950159888889,,,2017_Mar_15_1747,60.0000769809,FEMA4ImagesEEG,001,200029,
AFNE01.JPG,AFNE01.JPG,AFNE01.JPG,AFNE01.JPG,AFNE01.JPG,AFNE01.JPG,,,,,4,9,49,5,,,,,,,,,,,,,,,,,,,AMNE02.jpg,AMSA01.jpg,AMNE07.jpg,AMSA15.jpg,AMNE02.jpg,MN,1,num_8,32,num_6,1.28352037823,,,2017_Mar_15_1747,60.0000769809,FEMA4ImagesEEG,001,200029,
AFNE01.JPG,AFNE01.JPG,AFNE01.JPG,AFNE01.JPG,AFNE01.JPG,AFNE01.JPG,,,,,5,0,50,9,,,,,,,,,,,,,,,,,,,AMSA10.jpg,AMNE07.jpg,AMNE01.jpg,AMSA08.jpg,AMNE01.jpg,MN,1,num_2,16,num_2,0.683482530934,,,2017_Mar_15_1747,60.0000769809,FEMA4ImagesEEG,001,200029,
AFNE01.JPG,AFNE01.JPG,AFNE01.JPG,AFNE01.JPG,AFNE01.JPG,AFNE01.JPG,,,,,5,1,51,6,,,,,,,,,,,,,,,,,,,AMNE06.jpg,AMNE14.jpg,AMSA20.jpg,AMSA15.jpg,AMNE06.jpg,MN,1,num_8,16,num_8,1.76669243281,,,2017_Mar_15_1747,60.0000769809,FEMA4ImagesEEG,001,200029,
AFNE01.JPG,AFNE01.JPG,AFNE01.JPG,AFNE01.JPG,AFNE01.JPG,AFNE01.JPG,,,,,5,2,52,7,,,,,,,,,,,,,,,,,,,AMSA11.jpg,AMNE05.jpg,AMNE15.jpg,AMSA10.jpg,AMSA11.jpg,MS,2,num_8,32,num_6,0.883450136171,,,2017_Mar_15_1747,60.0000769809,FEMA4ImagesEEG,001,200029,
AFNE01.JPG,AFNE01.JPG,AFNE01.JPG,AFNE01.JPG,AFNE01.JPG,AFNE01.JPG,,,,,5,3,53,8,,,,,,,,,,,,,,,,,,,AMSA02.jpg,AMSA01.jpg,AMNE03.jpg,AMNE11.jpg,AMNE11.jpg,MN,1,num_4,32,num_8,1.68339111999,,,2017_Mar_15_1747,60.0000769809,FEMA4ImagesEEG,001,200029,
AFNE01.JPG,AFNE01.JPG,AFNE01.JPG,AFNE01.JPG,AFNE01.JPG,AFNE01.JPG,,,,,5,4,54,1,,,,,,,,,,,,,,,,,,,AMSA11.jpg,AMSA03.jpg,AMNE19.jpg,AMNE11.jpg,AMSA11.jpg,MS,2,num_8,32,num_6,1.2000865998,,,2017_Mar_15_1747,60.0000769809,FEMA4ImagesEEG,001,200029,
AFNE01.JPG,AFNE01.JPG,AFNE01.JPG,AFNE01.JPG,AFNE01.JPG,AFNE01.JPG,,,,,5,5,55,2,,,,,,,,,,,,,,,,,,,AMSA04.jpg,AMNE18.jpg,AMNE01.jpg,AMSA11.jpg,AMSA11.jpg,MS,2,num_4,32,num_8,2.73300703382,,,2017_Mar_15_1747,60.0000769809,FEMA4ImagesEEG,001,200029,
AFNE01.JPG,AFNE01.JPG,AFNE01.JPG,AFNE01.JPG,AFNE01.JPG,AFNE01.JPG,,,,,5,6,56,4,,,,,,,,,,,,,,,,,,,AMSA01.jpg,AMNE02.jpg,AMNE17.jpg,AMSA10.jpg,AMNE17.jpg,MN,1,num_2,16,num_2,0.916627803643,,,2017_Mar_15_1747,60.0000769809,FEMA4ImagesEEG,001,200029,
AFNE01.JPG,AFNE01.JPG,AFNE01.JPG,AFNE01.JPG,AFNE01.JPG,AFNE01.JPG,,,,,5,7,57,3,,,,,,,,,,,,,,,,,,,AMNE06.jpg,AMNE08.jpg,AMSA03.jpg,AMSA05.jpg,AMNE06.jpg,MN,1,num_8,16,num_8,0.866860179813,,,2017_Mar_15_1747,60.0000769809,FEMA4ImagesEEG,001,200029,
AFNE01.JPG,AFNE01.JPG,AFNE01.JPG,AFNE01.JPG,AFNE01.JPG,AFNE01.JPG,,,,,5,8,58,5,,,,,,,,,,,,,,,,,,,AMNE20.jpg,AMNE17.jpg,AMSA14.jpg,AMSA02.jpg,AMSA14.jpg,MS,2,num_2,16,num_2,0.733479804592,,,2017_Mar_15_1747,60.0000769809,FEMA4ImagesEEG,001,200029,
AFNE01.JPG,AFNE01.JPG,AFNE01.JPG,AFNE01.JPG,AFNE01.JPG,AFNE01.JPG,,,,,5,9,59,0,,,,,,,,,,,,,,,,,,,AMSA15.jpg,AMNE17.jpg,AMNE12.jpg,AMSA11.jpg,AMNE17.jpg,MN,1,num_6,16,num_6,0.933428165445,,,2017_Mar_15_1747,60.0000769809,FEMA4ImagesEEG,001,200029,
,,,,,,,,,,,,,,,,,,,,,,,,,,,,,,,,,,,,,,,,,,,space,29.4979597728,2017_Mar_15_1747,60.0000769809,FEMA4ImagesEEG,001,200029,
AFNE01.JPG,AFNE01.JPG,AFNE01.JPG,AFNE01.JPG,AFNE01.JPG,AFNE01.JPG,,,,,,,,,0,0,0,4,,,,,,,,,,,,,,,AFNE20.jpg,AFSA14.jpg,AFSA04.jpg,AFNE16.jpg,AFNE16.jpg,FN,3,num_4,16,num_4,1.08342351473,,,2017_Mar_15_1747,60.0000769809,FEMA4ImagesEEG,001,200029,
AFNE01.JPG,AFNE01.JPG,AFNE01.JPG,AFNE01.JPG,AFNE01.JPG,AFNE01.JPG,,,,,,,,,0,1,1,2,,,,,,,,,,,,,,,AFSA16.jpg,AFNE14.jpg,AFSA08.jpg,AFNE10.jpg,AFNE14.jpg,FN,3,num_6,16,num_6,0.933247268084,,,2017_Mar_15_1747,60.0000769809,FEMA4ImagesEEG,001,200029,
AFNE01.JPG,AFNE01.JPG,AFNE01.JPG,AFNE01.JPG,AFNE01.JPG,AFNE01.JPG,,,,,,,,,0,2,2,5,,,,,,,,,,,,,,,AFSA18.jpg,AFNE06.jpg,AFNE19.jpg,AFSA11.jpg,AFNE19.jpg,FN,3,num_2,16,num_2,0.916801965504,,,2017_Mar_15_1747,60.0000769809,FEMA4ImagesEEG,001,200029,
AFNE01.JPG,AFNE01.JPG,AFNE01.JPG,AFNE01.JPG,AFNE01.JPG,AFNE01.JPG,,,,,,,,,0,3,3,3,,,,,,,,,,,,,,,AFSA10.jpg,AFSA20.jpg,AFNE09.jpg,AFNE17.jpg,AFSA20.jpg,FS,4,num_6,16,num_6,1.48338117707,,,2017_Mar_15_1747,60.0000769809,FEMA4ImagesEEG,001,200029,
AFNE01.JPG,AFNE01.JPG,AFNE01.JPG,AFNE01.JPG,AFNE01.JPG,AFNE01.JPG,,,,,,,,,0,4,4,7,,,,,,,,,,,,,,,AFSA17.jpg,AFNE12.jpg,AFNE20.jpg,AFSA03.jpg,AFNE20.jpg,FN,3,num_2,32,num_6,1.23385699483,,,2017_Mar_15_1747,60.0000769809,FEMA4ImagesEEG,001,200029,
AFNE01.JPG,AFNE01.JPG,AFNE01.JPG,AFNE01.JPG,AFNE01.JPG,AFNE01.JPG,,,,,,,,,0,5,5,1,,,,,,,,,,,,,,,AFSA16.jpg,AFNE09.jpg,AFNE08.jpg,AFSA08.jpg,AFNE09.jpg,FN,3,num_6,32,num_2,1.01663133182,,,2017_Mar_15_1747,60.0000769809,FEMA4ImagesEEG,001,200029,
AFNE01.JPG,AFNE01.JPG,AFNE01.JPG,AFNE01.JPG,AFNE01.JPG,AFNE01.JPG,,,,,,,,,0,6,6,0,,,,,,,,,,,,,,,AFNE11.jpg,AFSA12.jpg,AFNE04.jpg,AFSA06.jpg,AFSA06.jpg,FS,4,num_4,16,num_4,3.11659508816,,,2017_Mar_15_1747,60.0000769809,FEMA4ImagesEEG,001,200029,
AFNE01.JPG,AFNE01.JPG,AFNE01.JPG,AFNE01.JPG,AFNE01.JPG,AFNE01.JPG,,,,,,,,,0,7,7,8,,,,,,,,,,,,,,,AFSA15.jpg,AFNE02.jpg,AFSA20.jpg,AFNE17.jpg,AFNE17.jpg,FN,3,num_4,32,num_2,1.33339609148,,,2017_Mar_15_1747,60.0000769809,FEMA4ImagesEEG,001,200029,
AFNE01.JPG,AFNE01.JPG,AFNE01.JPG,AFNE01.JPG,AFNE01.JPG,AFNE01.JPG,,,,,,,,,0,8,8,9,,,,,,,,,,,,,,,AFNE13.jpg,AFSA14.jpg,AFSA19.jpg,AFNE05.jpg,AFSA19.jpg,FS,4,num_2,32,num_6,1.15002357436,,,2017_Mar_15_1747,60.0000769809,FEMA4ImagesEEG,001,200029,
AFNE01.JPG,AFNE01.JPG,AFNE01.JPG,AFNE01.JPG,AFNE01.JPG,AFNE01.JPG,,,,,,,,,0,9,9,6,,,,,,,,,,,,,,,AFNE14.jpg,AFSA14.jpg,AFNE12.jpg,AFSA18.jpg,AFNE12.jpg,FN,3,num_2,16,num_2,0.866752731905,,,2017_Mar_15_1747,60.0000769809,FEMA4ImagesEEG,001,200029,
AFNE01.JPG,AFNE01.JPG,AFNE01.JPG,AFNE01.JPG,AFNE01.JPG,AFNE01.JPG,,,,,,,,,1,0,10,6,,,,,,,,,,,,,,,AFSA15.jpg,AFNE16.jpg,AFSA10.jpg,AFNE05.jpg,AFSA15.jpg,FS,4,num_8,16,num_8,1.81680260698,,,2017_Mar_15_1747,60.0000769809,FEMA4ImagesEEG,001,200029,
AFNE01.JPG,AFNE01.JPG,AFNE01.JPG,AFNE01.JPG,AFNE01.JPG,AFNE01.JPG,,,,,,,,,1,1,11,2,,,,,,,,,,,,,,,AFSA06.jpg,AFSA20.jpg,AFNE11.jpg,AFNE16.jpg,AFNE16.jpg,FN,3,num_4,16,num_4,2.69997530302,,,2017_Mar_15_1747,60.0000769809,FEMA4ImagesEEG,001,200029,
AFNE01.JPG,AFNE01.JPG,AFNE01.JPG,AFNE01.JPG,AFNE01.JPG,AFNE01.JPG,,,,,,,,,1,2,12,3,,,,,,,,,,,,,,,AFNE14.jpg,AFSA01.jpg,AFNE08.jpg,AFSA02.jpg,AFNE08.jpg,FN,3,num_2,32,num_8,1.16673444974,,,2017_Mar_15_1747,60.0000769809,FEMA4ImagesEEG,001,200029,
AFNE01.JPG,AFNE01.JPG,AFNE01.JPG,AFNE01.JPG,AFNE01.JPG,AFNE01.JPG,,,,,,,,,1,3,13,1,,,,,,,,,,,,,,,AFNE13.jpg,AFSA07.jpg,AFSA09.jpg,AFNE15.jpg,AFSA07.jpg,FS,4,num_6,16,num_6,1.81667334877,,,2017_Mar_15_1747,60.0000769809,FEMA4ImagesEEG,001,200029,
AFNE01.JPG,AFNE01.JPG,AFNE01.JPG,AFNE01.JPG,AFNE01.JPG,AFNE01.JPG,,,,,,,,,1,4,14,8,,,,,,,,,,,,,,,AFNE06.jpg,AFSA02.jpg,AFNE11.jpg,AFSA16.jpg,AFNE11.jpg,FN,3,num_2,16,num_2,0.850130701554,,,2017_Mar_15_1747,60.0000769809,FEMA4ImagesEEG,001,200029,
AFNE01.JPG,AFNE01.JPG,AFNE01.JPG,AFNE01.JPG,AFNE01.JPG,AFNE01.JPG,,,,,,,,,1,5,15,4,,,,,,,,,,,,,,,AFSA19.jpg,AFNE01.jpg,AFSA15.jpg,AFNE11.jpg,AFNE11.jpg,FN,3,num_4,16,num_4,0.766800522164,,,2017_Mar_15_1747,60.0000769809,FEMA4ImagesEEG,001,200029,
AFNE01.JPG,AFNE01.JPG,AFNE01.JPG,AFNE01.JPG,AFNE01.JPG,AFNE01.JPG,,,,,,,,,1,6,16,5,,,,,,,,,,,,,,,AFNE04.jpg,AFSA03.jpg,AFSA14.jpg,AFNE15.jpg,AFSA14.jpg,FS,4,num_2,16,num_2,0.950107608223,,,2017_Mar_15_1747,60.0000769809,FEMA4ImagesEEG,001,200029,
AFNE01.JPG,AFNE01.JPG,AFNE01.JPG,AFNE01.JPG,AFNE01.JPG,AFNE01.JPG,,,,,,,,,1,7,17,9,,,,,,,,,,,,,,,AFNE13.jpg,AFNE09.jpg,AFSA08.jpg,AFSA05.jpg,AFNE13.jpg,FN,3,num_8,16,num_8,1.38345206057,,,2017_Mar_15_1747,60.0000769809,FEMA4ImagesEEG,001,200029,
AFNE01.JPG,AFNE01.JPG,AFNE01.JPG,AFNE01.JPG,AFNE01.JPG,AFNE01.JPG,,,,,,,,,1,8,18,7,,,,,,,,,,,,,,,AFSA05.jpg,AFSA19.jpg,AFNE09.jpg,AFNE19.jpg,AFSA19.jpg,FS,4,num_6,16,num_6,0.933509954193,,,2017_Mar_15_1747,60.0000769809,FEMA4ImagesEEG,001,200029,
AFNE01.JPG,AFNE01.JPG,AFNE01.JPG,AFNE01.JPG,AFNE01.JPG,AFNE01.JPG,,,,,,,,,1,9,19,0,,,,,,,,,,,,,,,AFSA04.jpg,AFNE13.jpg,AFNE15.jpg,AFSA14.jpg,AFNE15.jpg,FN,3,num_2,16,num_2,2.06659043749,,,2017_Mar_15_1747,60.0000769809,FEMA4ImagesEEG,001,200029,
AFNE01.JPG,AFNE01.JPG,AFNE01.JPG,AFNE01.JPG,AFNE01.JPG,AFNE01.JPG,,,,,,,,,2,0,20,0,,,,,,,,,,,,,,,AFNE12.jpg,AFNE04.jpg,AFSA07.jpg,AFSA05.jpg,AFSA07.jpg,FS,4,num_2,16,num_2,0.966760750394,,,2017_Mar_15_1747,60.0000769809,FEMA4ImagesEEG,001,200029,
AFNE01.JPG,AFNE01.JPG,AFNE01.JPG,AFNE01.JPG,AFNE01.JPG,AFNE01.JPG,,,,,,,,,2,1,21,1,,,,,,,,,,,,,,,AFNE15.jpg,AFSA13.jpg,AFNE04.jpg,AFSA07.jpg,AFSA07.jpg,FS,4,num_4,16,num_4,1.75008002465,,,2017_Mar_15_1747,60.0000769809,FEMA4ImagesEEG,001,200029,
AFNE01.JPG,AFNE01.JPG,AFNE01.JPG,AFNE01.JPG,AFNE01.JPG,AFNE01.JPG,,,,,,,,,2,2,22,5,,,,,,,,,,,,,,,AFSA17.jpg,AFSA12.jpg,AFNE11.jpg,AFNE16.jpg,AFSA12.jpg,FS,4,num_6,16,num_6,0.966781277792,,,2017_Mar_15_1747,60.0000769809,FEMA4ImagesEEG,001,200029,
AFNE01.JPG,AFNE01.JPG,AFNE01.JPG,AFNE01.JPG,AFNE01.JPG,AFNE01.JPG,,,,,,,,,2,3,23,3,,,,,,,,,,,,,,,AFSA19.jpg,AFNE12.jpg,AFNE17.jpg,AFSA20.jpg,AFNE12.jpg,FN,3,num_6,16,num_6,0.883466814645,,,2017_Mar_15_1747,60.0000769809,FEMA4ImagesEEG,001,200029,
AFNE01.JPG,AFNE01.JPG,AFNE01.JPG,AFNE01.JPG,AFNE01.JPG,AFNE01.JPG,,,,,,,,,2,4,24,2,,,,,,,,,,,,,,,AFSA08.jpg,AFSA15.jpg,AFNE05.jpg,AFNE02.jpg,AFNE05.jpg,FN,3,num_2,32,num_8,1.96670109272,,,2017_Mar_15_1747,60.0000769809,FEMA4ImagesEEG,001,200029,
AFNE01.JPG,AFNE01.JPG,AFNE01.JPG,AFNE01.JPG,AFNE01.JPG,AFNE01.JPG,,,,,,,,,2,5,25,8,,,,,,,,,,,,,,,AFSA19.jpg,AFNE16.jpg,AFNE06.jpg,AFSA17.jpg,AFSA19.jpg,FS,4,num_8,32,num_4,1.58340170444,,,2017_Mar_15_1747,60.0000769809,FEMA4ImagesEEG,001,200029,
AFNE01.JPG,AFNE01.JPG,AFNE01.JPG,AFNE01.JPG,AFNE01.JPG,AFNE01.JPG,,,,,,,,,2,6,26,7,,,,,,,,,,,,,,,AFNE16.jpg,AFNE13.jpg,AFSA13.jpg,AFSA06.jpg,AFSA06.jpg,FS,4,num_4,32,num_2,2.75027727976,,,2017_Mar_15_1747,60.0000769809,FEMA4ImagesEEG,001,200029,
AFNE01.JPG,AFNE01.JPG,AFNE01.JPG,AFNE01.JPG,AFNE01.JPG,AFNE01.JPG,,,,,,,,,2,7,27,9,,,,,,,,,,,,,,,AFSA01.jpg,AFNE03.jpg,AFNE17.jpg,AFSA17.jpg,AFNE17.jpg,FN,3,num_2,32,num_4,1.53346986166,,,2017_Mar_15_1747,60.0000769809,FEMA4ImagesEEG,001,200029,
AFNE01.JPG,AFNE01.JPG,AFNE01.JPG,AFNE01.JPG,AFNE01.JPG,AFNE01.JPG,,,,,,,,,2,8,28,4,,,,,,,,,,,,,,,AFSA17.jpg,AFSA04.jpg,AFNE14.jpg,AFNE18.jpg,AFNE18.jpg,FN,3,num_4,32,num_6,1.40006286505,,,2017_Mar_15_1747,60.0000769809,FEMA4ImagesEEG,001,200029,
AFNE01.JPG,AFNE01.JPG,AFNE01.JPG,AFNE01.JPG,AFNE01.JPG,AFNE01.JPG,,,,,,,,,2,9,29,6,,,,,,,,,,,,,,,AFNE04.jpg,AFSA07.jpg,AFSA09.jpg,AFNE06.jpg,AFNE06.jpg,FN,3,num_4,32,num_8,1.70007280796,,,2017_Mar_15_1747,60.0000769809,FEMA4ImagesEEG,001,200029,
AFNE01.JPG,AFNE01.JPG,AFNE01.JPG,AFNE01.JPG,AFNE01.JPG,AFNE01.JPG,,,,,,,,,3,0,30,5,,,,,,,,,,,,,,,AFNE15.jpg,AFSA11.jpg,AFSA01.jpg,AFNE14.jpg,AFNE15.jpg,FN,3,num_8,16,num_8,1.55007521354,,,2017_Mar_15_1747,60.0000769809,FEMA4ImagesEEG,001,200029,
AFNE01.JPG,AFNE01.JPG,AFNE01.JPG,AFNE01.JPG,AFNE01.JPG,AFNE01.JPG,,,,,,,,,3,1,31,3,,,,,,,,,,,,,,,AFNE16.jpg,AFSA01.jpg,AFNE11.jpg,AFSA16.jpg,AFNE11.jpg,FN,3,num_2,16,num_2,0.616908130411,,,2017_Mar_15_1747,60.0000769809,FEMA4ImagesEEG,001,200029,
AFNE01.JPG,AFNE01.JPG,AFNE01.JPG,AFNE01.JPG,AFNE01.JPG,AFNE01.JPG,,,,,,,,,3,2,32,7,,,,,,,,,,,,,,,AFNE08.jpg,AFNE20.jpg,AFSA14.jpg,AFSA06.jpg,AFNE08.jpg,FN,3,num_8,16,num_8,0.900130861904,,,2017_Mar_15_1747,60.0000769809,FEMA4ImagesEEG,001,200029,
AFNE01.JPG,AFNE01.JPG,AFNE01.JPG,AFNE01.JPG,AFNE01.JPG,AFNE01.JPG,,,,,,,,,3,3,33,1,,,,,,,,,,,,,,,AFSA18.jpg,AFNE03.jpg,AFSA05.jpg,AFNE09.jpg,AFSA05.jpg,FS,4,num_2,16,num_2,0.683473870915,,,2017_Mar_15_1747,60.0000769809,FEMA4ImagesEEG,001,200029,
AFNE01.JPG,AFNE01.JPG,AFNE01.JPG,AFNE01.JPG,AFNE01.JPG,AFNE01.JPG,,,,,,,,,3,4,34,9,,,,,,,,,,,,,,,AFSA17.jpg,AFSA20.jpg,AFNE02.jpg,AFNE05.jpg,AFNE05.jpg,FN,3,num_4,16,num_4,1.00013984262,,,2017_Mar_15_1747,60.0000769809,FEMA4ImagesEEG,001,200029,
AFNE01.JPG,AFNE01.JPG,AFNE01.JPG,AFNE01.JPG,AFNE01.JPG,AFNE01.JPG,,,,,,,,,3,5,35,0,,,,,,,,,,,,,,,AFSA10.jpg,AFNE19.jpg,AFNE14.jpg,AFSA02.jpg,AFSA10.jpg,FS,4,num_8,16,num_8,1.15009028831,,,2017_Mar_15_1747,60.0000769809,FEMA4ImagesEEG,001,200029,
AFNE01.JPG,AFNE01.JPG,AFNE01.JPG,AFNE01.JPG,AFNE01.JPG,AFNE01.JPG,,,,,,,,,3,6,36,6,,,,,,,,,,,,,,,AFNE20.jpg,AFSA14.jpg,AFSA15.jpg,AFNE13.jpg,AFSA14.jpg,FS,4,num_6,16,num_6,1.76667382987,,,2017_Mar_15_1747,60.0000769809,FEMA4ImagesEEG,001,200029,
AFNE01.JPG,AFNE01.JPG,AFNE01.JPG,AFNE01.JPG,AFNE01.JPG,AFNE01.JPG,,,,,,,,,3,7,37,8,,,,,,,,,,,,,,,AFSA15.jpg,AFSA09.jpg,AFNE14.jpg,AFNE10.jpg,AFNE10.jpg,FN,3,num_4,32,num_2,1.1000827509,,,2017_Mar_15_1747,60.0000769809,FEMA4ImagesEEG,001,200029,
AFNE01.JPG,AFNE01.JPG,AFNE01.JPG,AFNE01.JPG,AFNE01.JPG,AFNE01.JPG,,,,,,,,,3,8,38,4,,,,,,,,,,,,,,,AFSA09.jpg,AFNE08.jpg,AFSA16.jpg,AFNE01.jpg,AFNE08.jpg,FN,3,num_6,16,num_6,1.15008868463,,,2017_Mar_15_1747,60.0000769809,FEMA4ImagesEEG,001,200029,
AFNE01.JPG,AFNE01.JPG,AFNE01.JPG,AFNE01.JPG,AFNE01.JPG,AFNE01.JPG,,,,,,,,,3,9,39,2,,,,,,,,,,,,,,,AFSA02.jpg,AFNE08.jpg,AFSA13.jpg,AFNE03.jpg,AFSA13.jpg,FS,4,num_2,16,num_2,1.23337845074,,,2017_Mar_15_1747,60.0000769809,FEMA4ImagesEEG,001,200029,
AFNE01.JPG,AFNE01.JPG,AFNE01.JPG,AFNE01.JPG,AFNE01.JPG,AFNE01.JPG,,,,,,,,,4,0,40,6,,,,,,,,,,,,,,,AFSA05.jpg,AFNE19.jpg,AFNE10.jpg,AFSA06.jpg,AFNE19.jpg,FN,3,num_6,16,num_6,1.10010648571,,,2017_Mar_15_1747,60.0000769809,FEMA4ImagesEEG,001,200029,
AFNE01.JPG,AFNE01.JPG,AFNE01.JPG,AFNE01.JPG,AFNE01.JPG,AFNE01.JPG,,,,,,,,,4,1,41,5,,,,,,,,,,,,,,,AFSA15.jpg,AFSA07.jpg,AFNE03.jpg,AFNE15.jpg,AFNE15.jpg,FN,3,num_4,16,num_4,1.15011755121,,,2017_Mar_15_1747,60.0000769809,FEMA4ImagesEEG,001,200029,
AFNE01.JPG,AFNE01.JPG,AFNE01.JPG,AFNE01.JPG,AFNE01.JPG,AFNE01.JPG,,,,,,,,,4,2,42,7,,,,,,,,,,,,,,,AFNE04.jpg,AFSA12.jpg,AFNE02.jpg,AFSA08.jpg,AFNE04.jpg,FN,3,num_8,16,num_8,1.11678079661,,,2017_Mar_15_1747,60.0000769809,FEMA4ImagesEEG,001,200029,
AFNE01.JPG,AFNE01.JPG,AFNE01.JPG,AFNE01.JPG,AFNE01.JPG,AFNE01.JPG,,,,,,,,,4,3,43,9,,,,,,,,,,,,,,,AFSA01.jpg,AFSA11.jpg,AFNE10.jpg,AFNE07.jpg,AFNE10.jpg,FN,3,num_2,48,None,,,,2017_Mar_15_1747,60.0000769809,FEMA4ImagesEEG,001,200029,
AFNE01.JPG,AFNE01.JPG,AFNE01.JPG,AFNE01.JPG,AFNE01.JPG,AFNE01.JPG,,,,,,,,,4,4,44,4,,,,,,,,,,,,,,,AFNE11.jpg,AFNE03.jpg,AFSA09.jpg,AFSA02.jpg,AFNE11.jpg,FN,3,num_8,32,num_4,1.41670830944,,,2017_Mar_15_1747,60.0000769809,FEMA4ImagesEEG,001,200029,
AFNE01.JPG,AFNE01.JPG,AFNE01.JPG,AFNE01.JPG,AFNE01.JPG,AFNE01.JPG,,,,,,,,,4,5,45,2,,,,,,,,,,,,,,,AFNE19.jpg,AFSA20.jpg,AFSA12.jpg,AFNE18.jpg,AFNE18.jpg,FN,3,num_4,32,num_8,0.916608559259,,,2017_Mar_15_1747,60.0000769809,FEMA4ImagesEEG,001,200029,
AFNE01.JPG,AFNE01.JPG,AFNE01.JPG,AFNE01.JPG,AFNE01.JPG,AFNE01.JPG,,,,,,,,,4,6,46,1,,,,,,,,,,,,,,,AFSA19.jpg,AFNE11.jpg,AFSA04.jpg,AFNE17.jpg,AFSA04.jpg,FS,4,num_2,16,num_2,0.716843340953,,,2017_Mar_15_1747,60.0000769809,FEMA4ImagesEEG,001,200029,
AFNE01.JPG,AFNE01.JPG,AFNE01.JPG,AFNE01.JPG,AFNE01.JPG,AFNE01.JPG,,,,,,,,,4,7,47,8,,,,,,,,,,,,,,,AFSA16.jpg,AFSA18.jpg,AFNE01.jpg,AFNE15.jpg,AFNE15.jpg,FN,3,num_4,16,num_4,1.0501063253,,,2017_Mar_15_1747,60.0000769809,FEMA4ImagesEEG,001,200029,
AFNE01.JPG,AFNE01.JPG,AFNE01.JPG,AFNE01.JPG,AFNE01.JPG,AFNE01.JPG,,,,,,,,,4,8,48,3,,,,,,,,,,,,,,,AFNE05.jpg,AFSA02.jpg,AFNE08.jpg,AFSA20.jpg,AFSA20.jpg,FS,4,num_4,32,num_6,1.53350321861,,,2017_Mar_15_1747,60.0000769809,FEMA4ImagesEEG,001,200029,
AFNE01.JPG,AFNE01.JPG,AFNE01.JPG,AFNE01.JPG,AFNE01.JPG,AFNE01.JPG,,,,,,,,,4,9,49,0,,,,,,,,,,,,,,,AFSA05.jpg,AFNE08.jpg,AFNE05.jpg,AFSA14.jpg,AFNE05.jpg,FN,3,num_2,32,num_4,1.43343618396,,,2017_Mar_15_1747,60.0000769809,FEMA4ImagesEEG,001,200029,
AFNE01.JPG,AFNE01.JPG,AFNE01.JPG,AFNE01.JPG,AFNE01.JPG,AFNE01.JPG,,,,,,,,,5,0,50,1,,,,,,,,,,,,,,,AFSA20.jpg,AFNE06.jpg,AFNE12.jpg,AFSA03.jpg,AFSA03.jpg,FS,4,num_4,32,num_8,1.03330756718,,,2017_Mar_15_1747,60.0000769809,FEMA4ImagesEEG,001,200029,
AFNE01.JPG,AFNE01.JPG,AFNE01.JPG,AFNE01.JPG,AFNE01.JPG,AFNE01.JPG,,,,,,,,,5,1,51,2,,,,,,,,,,,,,,,AFNE02.jpg,AFSA17.jpg,AFSA10.jpg,AFNE16.jpg,AFSA10.jpg,FS,4,num_2,16,num_2,0.850119796349,,,2017_Mar_15_1747,60.0000769809,FEMA4ImagesEEG,001,200029,
AFNE01.JPG,AFNE01.JPG,AFNE01.JPG,AFNE01.JPG,AFNE01.JPG,AFNE01.JPG,,,,,,,,,5,2,52,8,,,,,,,,,,,,,,,AFNE13.jpg,AFSA01.jpg,AFNE10.jpg,AFSA09.jpg,AFNE10.jpg,FN,3,num_2,32,num_8,1.31662844511,,,2017_Mar_15_1747,60.0000769809,FEMA4ImagesEEG,001,200029,
AFNE01.JPG,AFNE01.JPG,AFNE01.JPG,AFNE01.JPG,AFNE01.JPG,AFNE01.JPG,,,,,,,,,5,3,53,4,,,,,,,,,,,,,,,AFSA18.jpg,AFNE20.jpg,AFSA13.jpg,AFNE15.jpg,AFSA13.jpg,FS,4,num_2,32,num_8,1.73333996191,,,2017_Mar_15_1747,60.0000769809,FEMA4ImagesEEG,001,200029,
AFNE01.JPG,AFNE01.JPG,AFNE01.JPG,AFNE01.JPG,AFNE01.JPG,AFNE01.JPG,,,,,,,,,5,4,54,7,,,,,,,,,,,,,,,AFNE05.jpg,AFSA01.jpg,AFSA12.jpg,AFNE03.jpg,AFSA12.jpg,FS,4,num_2,16,num_2,0.999982680019,,,2017_Mar_15_1747,60.0000769809,FEMA4ImagesEEG,001,200029,
AFNE01.JPG,AFNE01.JPG,AFNE01.JPG,AFNE01.JPG,AFNE01.JPG,AFNE01.JPG,,,,,,,,,5,5,55,9,,,,,,,,,,,,,,,AFSA03.jpg,AFSA04.jpg,AFNE18.jpg,AFNE20.jpg,AFNE20.jpg,FN,3,num_4,32,num_2,2.43329056801,,,2017_Mar_15_1747,60.0000769809,FEMA4ImagesEEG,001,200029,
AFNE01.JPG,AFNE01.JPG,AFNE01.JPG,AFNE01.JPG,AFNE01.JPG,AFNE01.JPG,,,,,,,,,5,6,56,0,,,,,,,,,,,,,,,AFNE01.jpg,AFSA07.jpg,AFNE07.jpg,AFSA13.jpg,AFNE01.jpg,FN,3,num_8,32,num_4,1.86668537644,,,2017_Mar_15_1747,60.0000769809,FEMA4ImagesEEG,001,200029,
AFNE01.JPG,AFNE01.JPG,AFNE01.JPG,AFNE01.JPG,AFNE01.JPG,AFNE01.JPG,,,,,,,,,5,7,57,3,,,,,,,,,,,,,,,AFSA15.jpg,AFSA07.jpg,AFNE18.jpg,AFNE06.jpg,AFNE06.jpg,FN,3,num_4,32,num_6,1.10009493906,,,2017_Mar_15_1747,60.0000769809,FEMA4ImagesEEG,001,200029,
AFNE01.JPG,AFNE01.JPG,AFNE01.JPG,AFNE01.JPG,AFNE01.JPG,AFNE01.JPG,,,,,,,,,5,8,58,5,,,,,,,,,,,,,,,AFNE09.jpg,AFNE04.jpg,AFSA18.jpg,AFSA07.jpg,AFNE04.jpg,FN,3,num_6,32,num_4,1.11671151681,,,2017_Mar_15_1747,60.0000769809,FEMA4ImagesEEG,001,200029,
AFNE01.JPG,AFNE01.JPG,AFNE01.JPG,AFNE01.JPG,AFNE01.JPG,AFNE01.JPG,,,,,,,,,5,9,59,6,,,,,,,,,,,,,,,AFNE14.jpg,AFSA14.jpg,AFSA13.jpg,AFNE04.jpg,AFSA13.jpg,FS,4,num_2,16,num_2,0.633471786103,,,2017_Mar_15_1747,60.0000769809,FEMA4ImagesEEG,001,200029,
,,,,,,,,,,,,,,,,,,,,,,,,,,,,,,,,,,,,,,,,,,,space,9.73244862544,2017_Mar_15_1747,60.0000769809,FEMA4ImagesEEG,001,200029,
AFNE01.JPG,AFNE01.JPG,AFNE01.JPG,AFNE01.JPG,AFNE01.JPG,AFNE01.JPG,,,,,,,,,,,,,0,0,0,9,,,,,,,,,,,AMSA07.jpg,AMNE15.jpg,AMNE03.jpg,AMSA20.jpg,AMNE15.jpg,MN,1,num_6,16,num_6,0.883447570261,,,2017_Mar_15_1747,60.0000769809,FEMA4ImagesEEG,001,200029,
AFNE01.JPG,AFNE01.JPG,AFNE01.JPG,AFNE01.JPG,AFNE01.JPG,AFNE01.JPG,,,,,,,,,,,,,0,1,1,7,,,,,,,,,,,AMNE11.jpg,AMSA17.jpg,AMNE20.jpg,AMSA01.jpg,AMNE20.jpg,MN,1,num_2,32,num_6,0.967100734822,,,2017_Mar_15_1747,60.0000769809,FEMA4ImagesEEG,001,200029,
AFNE01.JPG,AFNE01.JPG,AFNE01.JPG,AFNE01.JPG,AFNE01.JPG,AFNE01.JPG,,,,,,,,,,,,,0,2,2,3,,,,,,,,,,,AMNE07.jpg,AMSA07.jpg,AMNE19.jpg,AMSA03.jpg,AMNE07.jpg,MN,1,num_8,16,num_8,1.0831762242,,,2017_Mar_15_1747,60.0000769809,FEMA4ImagesEEG,001,200029,
AFNE01.JPG,AFNE01.JPG,AFNE01.JPG,AFNE01.JPG,AFNE01.JPG,AFNE01.JPG,,,,,,,,,,,,,0,3,3,0,,,,,,,,,,,AMSA06.jpg,AMNE06.jpg,AMNE17.jpg,AMSA01.jpg,AMSA06.jpg,MS,2,num_8,32,num_6,1.73339192185,,,2017_Mar_15_1747,60.0000769809,FEMA4ImagesEEG,001,200029,
AFNE01.JPG,AFNE01.JPG,AFNE01.JPG,AFNE01.JPG,AFNE01.JPG,AFNE01.JPG,,,,,,,,,,,,,0,4,4,8,,,,,,,,,,,AMNE05.jpg,AMSA05.jpg,AMSA04.jpg,AMNE10.jpg,AMSA04.jpg,MS,2,num_2,16,num_2,0.716783362557,,,2017_Mar_15_1747,60.0000769809,FEMA4ImagesEEG,001,200029,
AFNE01.JPG,AFNE01.JPG,AFNE01.JPG,AFNE01.JPG,AFNE01.JPG,AFNE01.JPG,,,,,,,,,,,,,0,5,5,1,,,,,,,,,,,AMNE01.jpg,AMSA20.jpg,AMNE02.jpg,AMSA15.jpg,AMSA20.jpg,MS,2,num_6,16,num_6,2.01664416143,,,2017_Mar_15_1747,60.0000769809,FEMA4ImagesEEG,001,200029,
AFNE01.JPG,AFNE01.JPG,AFNE01.JPG,AFNE01.JPG,AFNE01.JPG,AFNE01.JPG,,,,,,,,,,,,,0,6,6,5,,,,,,,,,,,AMNE06.jpg,AMNE09.jpg,AMSA11.jpg,AMSA13.jpg,AMSA11.jpg,MS,2,num_2,16,num_2,0.850151228951,,,2017_Mar_15_1747,60.0000769809,FEMA4ImagesEEG,001,200029,
AFNE01.JPG,AFNE01.JPG,AFNE01.JPG,AFNE01.JPG,AFNE01.JPG,AFNE01.JPG,,,,,,,,,,,,,0,7,7,6,,,,,,,,,,,AMSA17.jpg,AMNE03.jpg,AMNE15.jpg,AMSA08.jpg,AMSA17.jpg,MS,2,num_8,32,num_4,1.9000410547,,,2017_Mar_15_1747,60.0000769809,FEMA4ImagesEEG,001,200029,
AFNE01.JPG,AFNE01.JPG,AFNE01.JPG,AFNE01.JPG,AFNE01.JPG,AFNE01.JPG,,,,,,,,,,,,,0,8,8,4,,,,,,,,,,,AMSA02.jpg,AMNE03.jpg,AMSA13.jpg,AMNE17.jpg,AMNE17.jpg,MN,1,num_4,16,num_4,0.916782400396,,,2017_Mar_15_1747,60.0000769809,FEMA4ImagesEEG,001,200029,
AFNE01.JPG,AFNE01.JPG,AFNE01.JPG,AFNE01.JPG,AFNE01.JPG,AFNE01.JPG,,,,,,,,,,,,,0,9,9,2,,,,,,,,,,,AMSA05.jpg,AMNE07.jpg,AMNE18.jpg,AMSA18.jpg,AMNE07.jpg,MN,1,num_6,32,num_8,1.73306123889,,,2017_Mar_15_1747,60.0000769809,FEMA4ImagesEEG,001,200029,
AFNE01.JPG,AFNE01.JPG,AFNE01.JPG,AFNE01.JPG,AFNE01.JPG,AFNE01.JPG,,,,,,,,,,,,,1,0,10,6,,,,,,,,,,,AMNE08.jpg,AMSA02.jpg,AMNE10.jpg,AMSA10.jpg,AMSA02.jpg,MS,2,num_6,16,num_6,1.11678560777,,,2017_Mar_15_1747,60.0000769809,FEMA4ImagesEEG,001,200029,
AFNE01.JPG,AFNE01.JPG,AFNE01.JPG,AFNE01.JPG,AFNE01.JPG,AFNE01.JPG,,,,,,,,,,,,,1,1,11,7,,,,,,,,,,,AMNE08.jpg,AMNE03.jpg,AMSA14.jpg,AMSA03.jpg,AMNE03.jpg,MN,1,num_6,16,num_6,0.83343778766,,,2017_Mar_15_1747,60.0000769809,FEMA4ImagesEEG,001,200029,
AFNE01.JPG,AFNE01.JPG,AFNE01.JPG,AFNE01.JPG,AFNE01.JPG,AFNE01.JPG,,,,,,,,,,,,,1,2,12,2,,,,,,,,,,,AMSA14.jpg,AMSA17.jpg,AMNE18.jpg,AMNE06.jpg,AMNE06.jpg,MN,1,num_4,16,num_4,2.40029315639,,,2017_Mar_15_1747,60.0000769809,FEMA4ImagesEEG,001,200029,
AFNE01.JPG,AFNE01.JPG,AFNE01.JPG,AFNE01.JPG,AFNE01.JPG,AFNE01.JPG,,,,,,,,,,,,,1,3,13,0,,,,,,,,,,,AMNE06.jpg,AMSA12.jpg,AMNE14.jpg,AMSA18.jpg,AMSA12.jpg,MS,2,num_6,32,num_8,1.66666516993,,,2017_Mar_15_1747,60.0000769809,FEMA4ImagesEEG,001,200029,
AFNE01.JPG,AFNE01.JPG,AFNE01.JPG,AFNE01.JPG,AFNE01.JPG,AFNE01.JPG,,,,,,,,,,,,,1,4,14,9,,,,,,,,,,,AMSA04.jpg,AMNE12.jpg,AMNE05.jpg,AMSA02.jpg,AMNE05.jpg,MN,1,num_2,16,num_2,1.20008916571,,,2017_Mar_15_1747,60.0000769809,FEMA4ImagesEEG,001,200029,
AFNE01.JPG,AFNE01.JPG,AFNE01.JPG,AFNE01.JPG,AFNE01.JPG,AFNE01.JPG,,,,,,,,,,,,,1,5,15,4,,,,,,,,,,,AMNE04.jpg,AMNE10.jpg,AMSA18.jpg,AMSA12.jpg,AMSA18.jpg,MS,2,num_2,16,num_2,0.833494237915,,,2017_Mar_15_1747,60.0000769809,FEMA4ImagesEEG,001,200029,
AFNE01.JPG,AFNE01.JPG,AFNE01.JPG,AFNE01.JPG,AFNE01.JPG,AFNE01.JPG,,,,,,,,,,,,,1,6,16,8,,,,,,,,,,,AMNE13.jpg,AMNE04.jpg,AMSA07.jpg,AMSA13.jpg,AMSA13.jpg,MS,2,num_4,32,num_8,1.0667216201,,,2017_Mar_15_1747,60.0000769809,FEMA4ImagesEEG,001,200029,
AFNE01.JPG,AFNE01.JPG,AFNE01.JPG,AFNE01.JPG,AFNE01.JPG,AFNE01.JPG,,,,,,,,,,,,,1,7,17,5,,,,,,,,,,,AMSA16.jpg,AMNE10.jpg,AMSA20.jpg,AMNE07.jpg,AMSA16.jpg,MS,2,num_8,32,num_4,1.90004490362,,,2017_Mar_15_1747,60.0000769809,FEMA4ImagesEEG,001,200029,
AFNE01.JPG,AFNE01.JPG,AFNE01.JPG,AFNE01.JPG,AFNE01.JPG,AFNE01.JPG,,,,,,,,,,,,,1,8,18,1,,,,,,,,,,,AMSA03.jpg,AMNE01.jpg,AMNE13.jpg,AMSA06.jpg,AMSA06.jpg,MS,2,num_4,16,num_4,2.86662251141,,,2017_Mar_15_1747,60.0000769809,FEMA4ImagesEEG,001,200029,
AFNE01.JPG,AFNE01.JPG,AFNE01.JPG,AFNE01.JPG,AFNE01.JPG,AFNE01.JPG,,,,,,,,,,,,,1,9,19,3,,,,,,,,,,,AMSA07.jpg,AMNE03.jpg,AMNE09.jpg,AMSA16.jpg,AMSA16.jpg,MS,2,num_4,16,num_4,2.41662331327,,,2017_Mar_15_1747,60.0000769809,FEMA4ImagesEEG,001,200029,
AFNE01.JPG,AFNE01.JPG,AFNE01.JPG,AFNE01.JPG,AFNE01.JPG,AFNE01.JPG,,,,,,,,,,,,,2,0,20,7,,,,,,,,,,,AMNE18.jpg,AMSA20.jpg,AMNE04.jpg,AMSA02.jpg,AMSA20.jpg,MS,2,num_6,16,num_6,0.833441636525,,,2017_Mar_15_1747,60.0000769809,FEMA4ImagesEEG,001,200029,
AFNE01.JPG,AFNE01.JPG,AFNE01.JPG,AFNE01.JPG,AFNE01.JPG,AFNE01.JPG,,,,,,,,,,,,,2,1,21,9,,,,,,,,,,,AMSA12.jpg,AMNE15.jpg,AMSA18.jpg,AMNE17.jpg,AMNE15.jpg,MN,1,num_6,32,num_8,2.05032956041,,,2017_Mar_15_1747,60.0000769809,FEMA4ImagesEEG,001,200029,
AFNE01.JPG,AFNE01.JPG,AFNE01.JPG,AFNE01.JPG,AFNE01.JPG,AFNE01.JPG,,,,,,,,,,,,,2,2,22,1,,,,,,,,,,,AMSA12.jpg,AMNE05.jpg,AMSA11.jpg,AMNE09.jpg,AMNE05.jpg,MN,1,num_6,16,num_6,1.11675834481,,,2017_Mar_15_1747,60.0000769809,FEMA4ImagesEEG,001,200029,
AFNE01.JPG,AFNE01.JPG,AFNE01.JPG,AFNE01.JPG,AFNE01.JPG,AFNE01.JPG,,,,,,,,,,,,,2,3,23,6,,,,,,,,,,,AMSA19.jpg,AMNE04.jpg,AMNE05.jpg,AMSA01.jpg,AMSA19.jpg,MS,2,num_8,16,num_8,1.55006559135,,,2017_Mar_15_1747,60.0000769809,FEMA4ImagesEEG,001,200029,
AFNE01.JPG,AFNE01.JPG,AFNE01.JPG,AFNE01.JPG,AFNE01.JPG,AFNE01.JPG,,,,,,,,,,,,,2,4,24,5,,,,,,,,,,,AMNE10.jpg,AMSA01.jpg,AMNE05.jpg,AMSA05.jpg,AMNE05.jpg,MN,1,num_2,16,num_2,1.95018490666,,,2017_Mar_15_1747,60.0000769809,FEMA4ImagesEEG,001,200029,
AFNE01.JPG,AFNE01.JPG,AFNE01.JPG,AFNE01.JPG,AFNE01.JPG,AFNE01.JPG,,,,,,,,,,,,,2,5,25,0,,,,,,,,,,,AMSA10.jpg,AMNE09.jpg,AMNE12.jpg,AMSA08.jpg,AMNE09.jpg,MN,1,num_6,32,num_2,0.800175124023,,,2017_Mar_15_1747,60.0000769809,FEMA4ImagesEEG,001,200029,
AFNE01.JPG,AFNE01.JPG,AFNE01.JPG,AFNE01.JPG,AFNE01.JPG,AFNE01.JPG,,,,,,,,,,,,,2,6,26,4,,,,,,,,,,,AMSA11.jpg,AMNE10.jpg,AMSA02.jpg,AMNE02.jpg,AMNE10.jpg,MN,1,num_6,16,num_6,2.21666565101,,,2017_Mar_15_1747,60.0000769809,FEMA4ImagesEEG,001,200029,
AFNE01.JPG,AFNE01.JPG,AFNE01.JPG,AFNE01.JPG,AFNE01.JPG,AFNE01.JPG,,,,,,,,,,,,,2,7,27,2,,,,,,,,,,,AMNE04.jpg,AMSA08.jpg,AMNE13.jpg,AMSA17.jpg,AMNE13.jpg,MN,1,num_2,32,num_8,1.85009798605,,,2017_Mar_15_1747,60.0000769809,FEMA4ImagesEEG,001,200029,
AFNE01.JPG,AFNE01.JPG,AFNE01.JPG,AFNE01.JPG,AFNE01.JPG,AFNE01.JPG,,,,,,,,,,,,,2,8,28,3,,,,,,,,,,,AMNE10.jpg,AMNE03.jpg,AMSA11.jpg,AMSA08.jpg,AMSA08.jpg,MS,2,num_4,32,num_6,1.13342784473,,,2017_Mar_15_1747,60.0000769809,FEMA4ImagesEEG,001,200029,
AFNE01.JPG,AFNE01.JPG,AFNE01.JPG,AFNE01.JPG,AFNE01.JPG,AFNE01.JPG,,,,,,,,,,,,,2,9,29,8,,,,,,,,,,,AMNE06.jpg,AMSA11.jpg,AMNE15.jpg,AMSA02.jpg,AMSA02.jpg,MS,2,num_4,16,num_4,1.80006607244,,,2017_Mar_15_1747,60.0000769809,FEMA4ImagesEEG,001,200029,
AFNE01.JPG,AFNE01.JPG,AFNE01.JPG,AFNE01.JPG,AFNE01.JPG,AFNE01.JPG,,,,,,,,,,,,,3,0,30,0,,,,,,,,,,,AMNE07.jpg,AMSA14.jpg,AMNE05.jpg,AMSA01.jpg,AMSA01.jpg,MS,2,num_4,16,num_4,0.716769249993,,,2017_Mar_15_1747,60.0000769809,FEMA4ImagesEEG,001,200029,
AFNE01.JPG,AFNE01.JPG,AFNE01.JPG,AFNE01.JPG,AFNE01.JPG,AFNE01.JPG,,,,,,,,,,,,,3,1,31,9,,,,,,,,,,,AMNE04.jpg,AMSA04.jpg,AMSA13.jpg,AMNE18.jpg,AMSA04.jpg,MS,2,num_6,16,num_6,0.816789135861,,,2017_Mar_15_1747,60.0000769809,FEMA4ImagesEEG,001,200029,
AFNE01.JPG,AFNE01.JPG,AFNE01.JPG,AFNE01.JPG,AFNE01.JPG,AFNE01.JPG,,,,,,,,,,,,,3,2,32,1,,,,,,,,,,,AMSA20.jpg,AMNE04.jpg,AMSA15.jpg,AMNE16.jpg,AMSA20.jpg,MS,2,num_8,16,num_8,0.883462324273,,,2017_Mar_15_1747,60.0000769809,FEMA4ImagesEEG,001,200029,
AFNE01.JPG,AFNE01.JPG,AFNE01.JPG,AFNE01.JPG,AFNE01.JPG,AFNE01.JPG,,,,,,,,,,,,,3,3,33,2,,,,,,,,,,,AMSA20.jpg,AMSA08.jpg,AMNE02.jpg,AMNE09.jpg,AMSA20.jpg,MS,2,num_8,16,num_8,0.983624618733,,,2017_Mar_15_1747,60.0000769809,FEMA4ImagesEEG,001,200029,
AFNE01.JPG,AFNE01.JPG,AFNE01.JPG,AFNE01.JPG,AFNE01.JPG,AFNE01.JPG,,,,,,,,,,,,,3,4,34,8,,,,,,,,,,,AMNE09.jpg,AMNE03.jpg,AMSA05.jpg,AMSA09.jpg,AMNE09.jpg,MN,1,num_8,32,num_4,0.816753854509,,,2017_Mar_15_1747,60.0000769809,FEMA4ImagesEEG,001,200029,
AFNE01.JPG,AFNE01.JPG,AFNE01.JPG,AFNE01.JPG,AFNE01.JPG,AFNE01.JPG,,,,,,,,,,,,,3,5,35,6,,,,,,,,,,,AMNE15.jpg,AMSA14.jpg,AMNE06.jpg,AMSA02.jpg,AMSA02.jpg,MS,2,num_4,16,num_4,1.9834344199,,,2017_Mar_15_1747,60.0000769809,FEMA4ImagesEEG,001,200029,
AFNE01.JPG,AFNE01.JPG,AFNE01.JPG,AFNE01.JPG,AFNE01.JPG,AFNE01.JPG,,,,,,,,,,,,,3,6,36,5,,,,,,,,,,,AMSA10.jpg,AMNE08.jpg,AMNE12.jpg,AMSA19.jpg,AMNE12.jpg,MN,1,num_2,32,num_6,1.15010055201,,,2017_Mar_15_1747,60.0000769809,FEMA4ImagesEEG,001,200029,
AFNE01.JPG,AFNE01.JPG,AFNE01.JPG,AFNE01.JPG,AFNE01.JPG,AFNE01.JPG,,,,,,,,,,,,,3,7,37,4,,,,,,,,,,,AMNE20.jpg,AMSA05.jpg,AMSA13.jpg,AMNE19.jpg,AMNE19.jpg,MN,1,num_4,16,num_4,1.45007425133,,,2017_Mar_15_1747,60.0000769809,FEMA4ImagesEEG,001,200029,
AFNE01.JPG,AFNE01.JPG,AFNE01.JPG,AFNE01.JPG,AFNE01.JPG,AFNE01.JPG,,,,,,,,,,,,,3,8,38,3,,,,,,,,,,,AMSA05.jpg,AMNE06.jpg,AMSA13.jpg,AMNE09.jpg,AMSA05.jpg,MS,2,num_8,16,num_8,1.10014786111,,,2017_Mar_15_1747,60.0000769809,FEMA4ImagesEEG,001,200029,
AFNE01.JPG,AFNE01.JPG,AFNE01.JPG,AFNE01.JPG,AFNE01.JPG,AFNE01.JPG,,,,,,,,,,,,,3,9,39,7,,,,,,,,,,,AMSA08.jpg,AMNE02.jpg,AMSA20.jpg,AMNE19.jpg,AMNE02.jpg,MN,1,num_6,16,num_6,0.733489426784,,,2017_Mar_15_1747,60.0000769809,FEMA4ImagesEEG,001,200029,
AFNE01.JPG,AFNE01.JPG,AFNE01.JPG,AFNE01.JPG,AFNE01.JPG,AFNE01.JPG,,,,,,,,,,,,,4,0,40,3,,,,,,,,,,,AMSA10.jpg,AMSA12.jpg,AMNE16.jpg,AMNE14.jpg,AMNE16.jpg,MN,1,num_2,16,num_2,1.2001212397,,,2017_Mar_15_1747,60.0000769809,FEMA4ImagesEEG,001,200029,
AFNE01.JPG,AFNE01.JPG,AFNE01.JPG,AFNE01.JPG,AFNE01.JPG,AFNE01.JPG,,,,,,,,,,,,,4,1,41,1,,,,,,,,,,,AMNE05.jpg,AMSA15.jpg,AMNE10.jpg,AMSA19.jpg,AMSA19.jpg,MS,2,num_4,16,num_4,0.883448211709,,,2017_Mar_15_1747,60.0000769809,FEMA4ImagesEEG,001,200029,
AFNE01.JPG,AFNE01.JPG,AFNE01.JPG,AFNE01.JPG,AFNE01.JPG,AFNE01.JPG,,,,,,,,,,,,,4,2,42,9,,,,,,,,,,,AMNE20.jpg,AMSA11.jpg,AMNE12.jpg,AMSA17.jpg,AMNE12.jpg,MN,1,num_2,16,num_2,0.86676171259,,,2017_Mar_15_1747,60.0000769809,FEMA4ImagesEEG,001,200029,
AFNE01.JPG,AFNE01.JPG,AFNE01.JPG,AFNE01.JPG,AFNE01.JPG,AFNE01.JPG,,,,,,,,,,,,,4,3,43,6,,,,,,,,,,,AMNE11.jpg,AMSA03.jpg,AMNE09.jpg,AMSA19.jpg,AMSA19.jpg,MS,2,num_4,32,num_2,3.74990393838,,,2017_Mar_15_1747,60.0000769809,FEMA4ImagesEEG,001,200029,
AFNE01.JPG,AFNE01.JPG,AFNE01.JPG,AFNE01.JPG,AFNE01.JPG,AFNE01.JPG,,,,,,,,,,,,,4,4,44,0,,,,,,,,,,,AMSA08.jpg,AMNE06.jpg,AMNE18.jpg,AMSA07.jpg,AMSA08.jpg,MS,2,num_8,32,num_4,2.43330820871,,,2017_Mar_15_1747,60.0000769809,FEMA4ImagesEEG,001,200029,
AFNE01.JPG,AFNE01.JPG,AFNE01.JPG,AFNE01.JPG,AFNE01.JPG,AFNE01.JPG,,,,,,,,,,,,,4,5,45,4,,,,,,,,,,,AMNE16.jpg,AMNE01.jpg,AMSA01.jpg,AMSA10.jpg,AMSA01.jpg,MS,2,num_2,16,num_2,1.00012316415,,,2017_Mar_15_1747,60.0000769809,FEMA4ImagesEEG,001,200029,
AFNE01.JPG,AFNE01.JPG,AFNE01.JPG,AFNE01.JPG,AFNE01.JPG,AFNE01.JPG,,,,,,,,,,,,,4,6,46,2,,,,,,,,,,,AMSA15.jpg,AMNE12.jpg,AMSA17.jpg,AMNE18.jpg,AMNE12.jpg,MN,1,num_6,16,num_6,0.933397374407,,,2017_Mar_15_1747,60.0000769809,FEMA4ImagesEEG,001,200029,
AFNE01.JPG,AFNE01.JPG,AFNE01.JPG,AFNE01.JPG,AFNE01.JPG,AFNE01.JPG,,,,,,,,,,,,,4,7,47,8,,,,,,,,,,,AMNE07.jpg,AMSA03.jpg,AMNE09.jpg,AMSA11.jpg,AMSA11.jpg,MS,2,num_4,32,num_6,1.11676764628,,,2017_Mar_15_1747,60.0000769809,FEMA4ImagesEEG,001,200029,
AFNE01.JPG,AFNE01.JPG,AFNE01.JPG,AFNE01.JPG,AFNE01.JPG,AFNE01.JPG,,,,,,,,,,,,,4,8,48,7,,,,,,,,,,,AMSA16.jpg,AMNE20.jpg,AMSA12.jpg,AMNE13.jpg,AMSA12.jpg,MS,2,num_2,32,num_8,1.66669275356,,,2017_Mar_15_1747,60.0000769809,FEMA4ImagesEEG,001,200029,
AFNE01.JPG,AFNE01.JPG,AFNE01.JPG,AFNE01.JPG,AFNE01.JPG,AFNE01.JPG,,,,,,,,,,,,,4,9,49,5,,,,,,,,,,,AMNE05.jpg,AMNE13.jpg,AMSA02.jpg,AMSA06.jpg,AMNE05.jpg,MN,1,num_8,32,num_6,0.916835643235,,,2017_Mar_15_1747,60.0000769809,FEMA4ImagesEEG,001,200029,
AFNE01.JPG,AFNE01.JPG,AFNE01.JPG,AFNE01.JPG,AFNE01.JPG,AFNE01.JPG,,,,,,,,,,,,,5,0,50,9,,,,,,,,,,,AMSA01.jpg,AMSA17.jpg,AMNE05.jpg,AMNE19.jpg,AMNE05.jpg,MN,1,num_2,32,num_4,1.05007745873,,,2017_Mar_15_1747,60.0000769809,FEMA4ImagesEEG,001,200029,
AFNE01.JPG,AFNE01.JPG,AFNE01.JPG,AFNE01.JPG,AFNE01.JPG,AFNE01.JPG,,,,,,,,,,,,,5,1,51,6,,,,,,,,,,,AMNE12.jpg,AMNE14.jpg,AMSA05.jpg,AMSA17.jpg,AMSA17.jpg,MS,2,num_4,32,num_2,1.15009894827,,,2017_Mar_15_1747,60.0000769809,FEMA4ImagesEEG,001,200029,
AFNE01.JPG,AFNE01.JPG,AFNE01.JPG,AFNE01.JPG,AFNE01.JPG,AFNE01.JPG,,,,,,,,,,,,,5,2,52,7,,,,,,,,,,,AMSA12.jpg,AMNE07.jpg,AMSA04.jpg,AMNE20.jpg,AMNE20.jpg,MN,1,num_4,16,num_4,1.05015154969,,,2017_Mar_15_1747,60.0000769809,FEMA4ImagesEEG,001,200029,
AFNE01.JPG,AFNE01.JPG,AFNE01.JPG,AFNE01.JPG,AFNE01.JPG,AFNE01.JPG,,,,,,,,,,,,,5,3,53,0,,,,,,,,,,,AMSA06.jpg,AMNE10.jpg,AMNE01.jpg,AMSA18.jpg,AMNE10.jpg,MN,1,num_6,16,num_6,1.36672963866,,,2017_Mar_15_1747,60.0000769809,FEMA4ImagesEEG,001,200029,
AFNE01.JPG,AFNE01.JPG,AFNE01.JPG,AFNE01.JPG,AFNE01.JPG,AFNE01.JPG,,,,,,,,,,,,,5,4,54,3,,,,,,,,,,,AMNE12.jpg,AMNE19.jpg,AMSA05.jpg,AMSA15.jpg,AMSA05.jpg,MS,2,num_2,16,num_2,1.40012123971,,,2017_Mar_15_1747,60.0000769809,FEMA4ImagesEEG,001,200029,
AFNE01.JPG,AFNE01.JPG,AFNE01.JPG,AFNE01.JPG,AFNE01.JPG,AFNE01.JPG,,,,,,,,,,,,,5,5,55,4,,,,,,,,,,,AMNE14.jpg,AMNE17.jpg,AMSA03.jpg,AMSA15.jpg,AMSA15.jpg,MS,2,num_4,16,num_4,0.800173841068,,,2017_Mar_15_1747,60.0000769809,FEMA4ImagesEEG,001,200029,
AFNE01.JPG,AFNE01.JPG,AFNE01.JPG,AFNE01.JPG,AFNE01.JPG,AFNE01.JPG,,,,,,,,,,,,,5,6,56,1,,,,,,,,,,,AMSA02.jpg,AMSA04.jpg,AMNE11.jpg,AMNE01.jpg,AMSA02.jpg,MS,2,num_8,32,num_4,2.89998235932,,,2017_Mar_15_1747,60.0000769809,FEMA4ImagesEEG,001,200029,
AFNE01.JPG,AFNE01.JPG,AFNE01.JPG,AFNE01.JPG,AFNE01.JPG,AFNE01.JPG,,,,,,,,,,,,,5,7,57,5,,,,,,,,,,,AMNE12.jpg,AMSA05.jpg,AMNE11.jpg,AMSA19.jpg,AMNE11.jpg,MN,1,num_2,32,num_8,0.916748081159,,,2017_Mar_15_1747,60.0000769809,FEMA4ImagesEEG,001,200029,
AFNE01.JPG,AFNE01.JPG,AFNE01.JPG,AFNE01.JPG,AFNE01.JPG,AFNE01.JPG,,,,,,,,,,,,,5,8,58,2,,,,,,,,,,,AMNE19.jpg,AMSA03.jpg,AMSA09.jpg,AMNE13.jpg,AMNE19.jpg,MN,1,num_8,32,num_4,1.13350225642,,,2017_Mar_15_1747,60.0000769809,FEMA4ImagesEEG,001,200029,
AFNE01.JPG,AFNE01.JPG,AFNE01.JPG,AFNE01.JPG,AFNE01.JPG,AFNE01.JPG,,,,,,,,,,,,,5,9,59,8,,,,,,,,,,,AMSA16.jpg,AMNE12.jpg,AMSA12.jpg,AMNE08.jpg,AMNE12.jpg,MN,1,num_6,32,num_2,2.4333627345,,,2017_Mar_15_1747,60.0000769809,FEMA4ImagesEEG,001,200029,
,,,,,,,,,,,,,,,,,,,,,,,,,,,,,,,,,,,,,,,,,,,space,31.3978026102,2017_Mar_15_1747,60.0000769809,FEMA4ImagesEEG,001,200029,
AFNE01.JPG,AFNE01.JPG,AFNE01.JPG,AFNE01.JPG,AFNE01.JPG,AFNE01.JPG,,,,,,,,,,,,,,,,,0,0,0,6,,,,,,,AFSA15.jpg,AFNE17.jpg,AFSA05.jpg,AFNE05.jpg,AFSA05.jpg,FS,4,num_2,32,num_4,1.10011001379,,,2017_Mar_15_1747,60.0000769809,FEMA4ImagesEEG,001,200029,
AFNE01.JPG,AFNE01.JPG,AFNE01.JPG,AFNE01.JPG,AFNE01.JPG,AFNE01.JPG,,,,,,,,,,,,,,,,,0,1,1,4,,,,,,,AFSA09.jpg,AFNE19.jpg,AFSA13.jpg,AFNE14.jpg,AFSA13.jpg,FS,4,num_2,16,num_2,0.866796673276,,,2017_Mar_15_1747,60.0000769809,FEMA4ImagesEEG,001,200029,
AFNE01.JPG,AFNE01.JPG,AFNE01.JPG,AFNE01.JPG,AFNE01.JPG,AFNE01.JPG,,,,,,,,,,,,,,,,,0,2,2,2,,,,,,,AFNE20.jpg,AFSA18.jpg,AFNE05.jpg,AFSA11.jpg,AFNE20.jpg,FN,3,num_8,16,num_8,0.800266855687,,,2017_Mar_15_1747,60.0000769809,FEMA4ImagesEEG,001,200029,
AFNE01.JPG,AFNE01.JPG,AFNE01.JPG,AFNE01.JPG,AFNE01.JPG,AFNE01.JPG,,,,,,,,,,,,,,,,,0,3,3,3,,,,,,,AFSA20.jpg,AFSA16.jpg,AFNE08.jpg,AFNE13.jpg,AFNE08.jpg,FN,3,num_2,16,num_2,1.11676668411,,,2017_Mar_15_1747,60.0000769809,FEMA4ImagesEEG,001,200029,
AFNE01.JPG,AFNE01.JPG,AFNE01.JPG,AFNE01.JPG,AFNE01.JPG,AFNE01.JPG,,,,,,,,,,,,,,,,,0,4,4,8,,,,,,,AFNE10.jpg,AFNE13.jpg,AFSA19.jpg,AFSA05.jpg,AFNE13.jpg,FN,3,num_6,32,num_8,1.11677534407,,,2017_Mar_15_1747,60.0000769809,FEMA4ImagesEEG,001,200029,
AFNE01.JPG,AFNE01.JPG,AFNE01.JPG,AFNE01.JPG,AFNE01.JPG,AFNE01.JPG,,,,,,,,,,,,,,,,,0,5,5,0,,,,,,,AFNE20.jpg,AFSA14.jpg,AFNE05.jpg,AFSA04.jpg,AFNE20.jpg,FN,3,num_8,16,num_8,0.666929459607,,,2017_Mar_15_1747,60.0000769809,FEMA4ImagesEEG,001,200029,
AFNE01.JPG,AFNE01.JPG,AFNE01.JPG,AFNE01.JPG,AFNE01.JPG,AFNE01.JPG,,,,,,,,,,,,,,,,,0,6,6,7,,,,,,,AFNE15.jpg,AFSA04.jpg,AFNE11.jpg,AFSA20.jpg,AFSA20.jpg,FS,4,num_4,32,num_6,1.96677422151,,,2017_Mar_15_1747,60.0000769809,FEMA4ImagesEEG,001,200029,
AFNE01.JPG,AFNE01.JPG,AFNE01.JPG,AFNE01.JPG,AFNE01.JPG,AFNE01.JPG,,,,,,,,,,,,,,,,,0,7,7,9,,,,,,,AFSA03.jpg,AFSA05.jpg,AFNE08.jpg,AFNE12.jpg,AFSA05.jpg,FS,4,num_6,16,num_6,0.65014000301,,,2017_Mar_15_1747,60.0000769809,FEMA4ImagesEEG,001,200029,
AFNE01.JPG,AFNE01.JPG,AFNE01.JPG,AFNE01.JPG,AFNE01.JPG,AFNE01.JPG,,,,,,,,,,,,,,,,,0,8,8,1,,,,,,,AFNE16.jpg,AFSA17.jpg,AFNE04.jpg,AFSA11.jpg,AFNE16.jpg,FN,3,num_8,16,num_8,1.29990024987,,,2017_Mar_15_1747,60.0000769809,FEMA4ImagesEEG,001,200029,
AFNE01.JPG,AFNE01.JPG,AFNE01.JPG,AFNE01.JPG,AFNE01.JPG,AFNE01.JPG,,,,,,,,,,,,,,,,,0,9,9,5,,,,,,,AFSA15.jpg,AFSA04.jpg,AFNE12.jpg,AFNE13.jpg,AFSA15.jpg,FS,4,num_8,16,num_8,0.866628284799,,,2017_Mar_15_1747,60.0000769809,FEMA4ImagesEEG,001,200029,
AFNE01.JPG,AFNE01.JPG,AFNE01.JPG,AFNE01.JPG,AFNE01.JPG,AFNE01.JPG,,,,,,,,,,,,,,,,,1,0,10,0,,,,,,,AFNE09.jpg,AFNE13.jpg,AFSA03.jpg,AFSA18.jpg,AFSA18.jpg,FS,4,num_4,16,num_4,0.883276615816,,,2017_Mar_15_1747,60.0000769809,FEMA4ImagesEEG,001,200029,
AFNE01.JPG,AFNE01.JPG,AFNE01.JPG,AFNE01.JPG,AFNE01.JPG,AFNE01.JPG,,,,,,,,,,,,,,,,,1,1,11,9,,,,,,,AFNE02.jpg,AFSA03.jpg,AFNE11.jpg,AFSA13.jpg,AFSA03.jpg,FS,4,num_6,16,num_6,2.33332809457,,,2017_Mar_15_1747,60.0000769809,FEMA4ImagesEEG,001,200029,
AFNE01.JPG,AFNE01.JPG,AFNE01.JPG,AFNE01.JPG,AFNE01.JPG,AFNE01.JPG,,,,,,,,,,,,,,,,,1,2,12,4,,,,,,,AFSA05.jpg,AFSA18.jpg,AFNE19.jpg,AFNE13.jpg,AFNE19.jpg,FN,3,num_2,32,num_8,1.20009525982,,,2017_Mar_15_1747,60.0000769809,FEMA4ImagesEEG,001,200029,
AFNE01.JPG,AFNE01.JPG,AFNE01.JPG,AFNE01.JPG,AFNE01.JPG,AFNE01.JPG,,,,,,,,,,,,,,,,,1,3,13,1,,,,,,,AFSA02.jpg,AFNE10.jpg,AFNE01.jpg,AFSA20.jpg,AFNE01.jpg,FN,3,num_2,16,num_2,0.91692801629,,,2017_Mar_15_1747,60.0000769809,FEMA4ImagesEEG,001,200029,
AFNE01.JPG,AFNE01.JPG,AFNE01.JPG,AFNE01.JPG,AFNE01.JPG,AFNE01.JPG,,,,,,,,,,,,,,,,,1,4,14,3,,,,,,,AFNE09.jpg,AFNE11.jpg,AFSA01.jpg,AFSA09.jpg,AFSA01.jpg,FS,4,num_2,32,num_6,1.01646935806,,,2017_Mar_15_1747,60.0000769809,FEMA4ImagesEEG,001,200029,
AFNE01.JPG,AFNE01.JPG,AFNE01.JPG,AFNE01.JPG,AFNE01.JPG,AFNE01.JPG,,,,,,,,,,,,,,,,,1,5,15,7,,,,,,,AFSA09.jpg,AFSA13.jpg,AFNE20.jpg,AFNE16.jpg,AFNE16.jpg,FN,3,num_4,16,num_4,1.30005997838,,,2017_Mar_15_1747,60.0000769809,FEMA4ImagesEEG,001,200029,
AFNE01.JPG,AFNE01.JPG,AFNE01.JPG,AFNE01.JPG,AFNE01.JPG,AFNE01.JPG,,,,,,,,,,,,,,,,,1,6,16,5,,,,,,,AFSA16.jpg,AFNE09.jpg,AFSA11.jpg,AFNE17.jpg,AFSA11.jpg,FS,4,num_2,16,num_2,0.800186991401,,,2017_Mar_15_1747,60.0000769809,FEMA4ImagesEEG,001,200029,
AFNE01.JPG,AFNE01.JPG,AFNE01.JPG,AFNE01.JPG,AFNE01.JPG,AFNE01.JPG,,,,,,,,,,,,,,,,,1,7,17,8,,,,,,,AFSA09.jpg,AFSA07.jpg,AFNE20.jpg,AFNE08.jpg,AFSA07.jpg,FS,4,num_6,32,num_4,1.36672899715,,,2017_Mar_15_1747,60.0000769809,FEMA4ImagesEEG,001,200029,
AFNE01.JPG,AFNE01.JPG,AFNE01.JPG,AFNE01.JPG,AFNE01.JPG,AFNE01.JPG,,,,,,,,,,,,,,,,,1,8,18,6,,,,,,,AFSA04.jpg,AFNE19.jpg,AFSA15.jpg,AFNE20.jpg,AFSA04.jpg,FS,4,num_8,16,num_8,1.10009942943,,,2017_Mar_15_1747,60.0000769809,FEMA4ImagesEEG,001,200029,
AFNE01.JPG,AFNE01.JPG,AFNE01.JPG,AFNE01.JPG,AFNE01.JPG,AFNE01.JPG,,,,,,,,,,,,,,,,,1,9,19,2,,,,,,,AFSA18.jpg,AFNE07.jpg,AFNE03.jpg,AFSA05.jpg,AFSA18.jpg,FS,4,num_8,32,num_4,1.1835136427,,,2017_Mar_15_1747,60.0000769809,FEMA4ImagesEEG,001,200029,
AFNE01.JPG,AFNE01.JPG,AFNE01.JPG,AFNE01.JPG,AFNE01.JPG,AFNE01.JPG,,,,,,,,,,,,,,,,,2,0,20,9,,,,,,,AFSA15.jpg,AFNE03.jpg,AFSA14.jpg,AFNE11.jpg,AFNE03.jpg,FN,3,num_6,16,num_6,1.13331045385,,,2017_Mar_15_1747,60.0000769809,FEMA4ImagesEEG,001,200029,
AFNE01.JPG,AFNE01.JPG,AFNE01.JPG,AFNE01.JPG,AFNE01.JPG,AFNE01.JPG,,,,,,,,,,,,,,,,,2,1,21,2,,,,,,,AFNE14.jpg,AFNE01.jpg,AFSA04.jpg,AFSA09.jpg,AFNE01.jpg,FN,3,num_6,32,num_8,1.36675593926,,,2017_Mar_15_1747,60.0000769809,FEMA4ImagesEEG,001,200029,
AFNE01.JPG,AFNE01.JPG,AFNE01.JPG,AFNE01.JPG,AFNE01.JPG,AFNE01.JPG,,,,,,,,,,,,,,,,,2,2,22,8,,,,,,,AFSA13.jpg,AFNE06.jpg,AFNE05.jpg,AFSA09.jpg,AFSA09.jpg,FS,4,num_4,16,num_4,1.03344773065,,,2017_Mar_15_1747,60.0000769809,FEMA4ImagesEEG,001,200029,
AFNE01.JPG,AFNE01.JPG,AFNE01.JPG,AFNE01.JPG,AFNE01.JPG,AFNE01.JPG,,,,,,,,,,,,,,,,,2,3,23,5,,,,,,,AFNE02.jpg,AFSA18.jpg,AFSA12.jpg,AFNE01.jpg,AFNE02.jpg,FN,3,num_8,16,num_8,1.3167477604,,,2017_Mar_15_1747,60.0000769809,FEMA4ImagesEEG,001,200029,
AFNE01.JPG,AFNE01.JPG,AFNE01.JPG,AFNE01.JPG,AFNE01.JPG,AFNE01.JPG,,,,,,,,,,,,,,,,,2,4,24,7,,,,,,,AFNE05.jpg,AFSA16.jpg,AFSA13.jpg,AFNE10.jpg,AFSA16.jpg,FS,4,num_6,16,num_6,0.783524868544,,,2017_Mar_15_1747,60.0000769809,FEMA4ImagesEEG,001,200029,
AFNE01.JPG,AFNE01.JPG,AFNE01.JPG,AFNE01.JPG,AFNE01.JPG,AFNE01.JPG,,,,,,,,,,,,,,,,,2,5,25,4,,,,,,,AFNE20.jpg,AFSA15.jpg,AFNE03.jpg,AFSA11.jpg,AFNE03.jpg,FN,3,num_2,16,num_2,0.93344676838,,,2017_Mar_15_1747,60.0000769809,FEMA4ImagesEEG,001,200029,
AFNE01.JPG,AFNE01.JPG,AFNE01.JPG,AFNE01.JPG,AFNE01.JPG,AFNE01.JPG,,,,,,,,,,,,,,,,,2,6,26,6,,,,,,,AFNE03.jpg,AFSA04.jpg,AFNE10.jpg,AFSA12.jpg,AFNE10.jpg,FN,3,num_2,16,num_2,0.916837567638,,,2017_Mar_15_1747,60.0000769809,FEMA4ImagesEEG,001,200029,
AFNE01.JPG,AFNE01.JPG,AFNE01.JPG,AFNE01.JPG,AFNE01.JPG,AFNE01.JPG,,,,,,,,,,,,,,,,,2,7,27,3,,,,,,,AFSA09.jpg,AFNE04.jpg,AFSA13.jpg,AFNE14.jpg,AFNE04.jpg,FN,3,num_6,32,num_4,1.7000750532,,,2017_Mar_15_1747,60.0000769809,FEMA4ImagesEEG,001,200029,
AFNE01.JPG,AFNE01.JPG,AFNE01.JPG,AFNE01.JPG,AFNE01.JPG,AFNE01.JPG,,,,,,,,,,,,,,,,,2,8,28,0,,,,,,,AFSA04.jpg,AFSA09.jpg,AFNE10.jpg,AFNE14.jpg,AFNE14.jpg,FN,3,num_4,16,num_4,1.40008467535,,,2017_Mar_15_1747,60.0000769809,FEMA4ImagesEEG,001,200029,
AFNE01.JPG,AFNE01.JPG,AFNE01.JPG,AFNE01.JPG,AFNE01.JPG,AFNE01.JPG,,,,,,,,,,,,,,,,,2,9,29,1,,,,,,,AFNE08.jpg,AFNE04.jpg,AFSA16.jpg,AFSA17.jpg,AFNE08.jpg,FN,3,num_8,16,num_8,0.966856972431,,,2017_Mar_15_1747,60.0000769809,FEMA4ImagesEEG,001,200029,
AFNE01.JPG,AFNE01.JPG,AFNE01.JPG,AFNE01.JPG,AFNE01.JPG,AFNE01.JPG,,,,,,,,,,,,,,,,,3,0,30,7,,,,,,,AFSA06.jpg,AFSA18.jpg,AFNE03.jpg,AFNE10.jpg,AFSA06.jpg,FS,4,num_8,32,num_6,1.1668322754,,,2017_Mar_15_1747,60.0000769809,FEMA4ImagesEEG,001,200029,
AFNE01.JPG,AFNE01.JPG,AFNE01.JPG,AFNE01.JPG,AFNE01.JPG,AFNE01.JPG,,,,,,,,,,,,,,,,,3,1,31,8,,,,,,,AFNE13.jpg,AFSA14.jpg,AFNE03.jpg,AFSA07.jpg,AFSA14.jpg,FS,4,num_6,32,num_8,1.83335664042,,,2017_Mar_15_1747,60.0000769809,FEMA4ImagesEEG,001,200029,
AFNE01.JPG,AFNE01.JPG,AFNE01.JPG,AFNE01.JPG,AFNE01.JPG,AFNE01.JPG,,,,,,,,,,,,,,,,,3,2,32,3,,,,,,,AFSA08.jpg,AFSA06.jpg,AFNE02.jpg,AFNE03.jpg,AFSA06.jpg,FS,4,num_6,32,num_2,1.13343201432,,,2017_Mar_15_1747,60.0000769809,FEMA4ImagesEEG,001,200029,
AFNE01.JPG,AFNE01.JPG,AFNE01.JPG,AFNE01.JPG,AFNE01.JPG,AFNE01.JPG,,,,,,,,,,,,,,,,,3,3,33,6,,,,,,,AFSA16.jpg,AFNE12.jpg,AFNE07.jpg,AFSA18.jpg,AFNE12.jpg,FN,3,num_6,16,num_6,0.883447890985,,,2017_Mar_15_1747,60.0000769809,FEMA4ImagesEEG,001,200029,
AFNE01.JPG,AFNE01.JPG,AFNE01.JPG,AFNE01.JPG,AFNE01.JPG,AFNE01.JPG,,,,,,,,,,,,,,,,,3,4,34,2,,,,,,,AFNE15.jpg,AFSA04.jpg,AFSA02.jpg,AFNE04.jpg,AFSA02.jpg,FS,4,num_2,32,num_6,2.41664448217,,,2017_Mar_15_1747,60.0000769809,FEMA4ImagesEEG,001,200029,
AFNE01.JPG,AFNE01.JPG,AFNE01.JPG,AFNE01.JPG,AFNE01.JPG,AFNE01.JPG,,,,,,,,,,,,,,,,,3,5,35,4,,,,,,,AFNE05.jpg,AFNE16.jpg,AFSA20.jpg,AFSA05.jpg,AFSA05.jpg,FS,4,num_4,16,num_4,1.93305642775,,,2017_Mar_15_1747,60.0000769809,FEMA4ImagesEEG,001,200029,
AFNE01.JPG,AFNE01.JPG,AFNE01.JPG,AFNE01.JPG,AFNE01.JPG,AFNE01.JPG,,,,,,,,,,,,,,,,,3,6,36,1,,,,,,,AFNE20.jpg,AFSA12.jpg,AFNE14.jpg,AFSA06.jpg,AFSA06.jpg,FS,4,num_4,32,num_8,2.43320108159,,,2017_Mar_15_1747,60.0000769809,FEMA4ImagesEEG,001,200029,
AFNE01.JPG,AFNE01.JPG,AFNE01.JPG,AFNE01.JPG,AFNE01.JPG,AFNE01.JPG,,,,,,,,,,,,,,,,,3,7,37,0,,,,,,,AFNE17.jpg,AFSA06.jpg,AFSA15.jpg,AFNE15.jpg,AFNE17.jpg,FN,3,num_8,32,num_6,1.31702038943,,,2017_Mar_15_1747,60.0000769809,FEMA4ImagesEEG,001,200029,
AFNE01.JPG,AFNE01.JPG,AFNE01.JPG,AFNE01.JPG,AFNE01.JPG,AFNE01.JPG,,,,,,,,,,,,,,,,,3,8,38,5,,,,,,,AFSA13.jpg,AFNE04.jpg,AFSA17.jpg,AFNE13.jpg,AFSA17.jpg,FS,4,num_2,32,num_8,1.18342960876,,,2017_Mar_15_1747,60.0000769809,FEMA4ImagesEEG,001,200029,
AFNE01.JPG,AFNE01.JPG,AFNE01.JPG,AFNE01.JPG,AFNE01.JPG,AFNE01.JPG,,,,,,,,,,,,,,,,,3,9,39,9,,,,,,,AFSA05.jpg,AFNE03.jpg,AFNE01.jpg,AFSA13.jpg,AFSA05.jpg,FS,4,num_8,16,num_8,0.733451900189,,,2017_Mar_15_1747,60.0000769809,FEMA4ImagesEEG,001,200029,
AFNE01.JPG,AFNE01.JPG,AFNE01.JPG,AFNE01.JPG,AFNE01.JPG,AFNE01.JPG,,,,,,,,,,,,,,,,,4,0,40,0,,,,,,,AFNE19.jpg,AFSA06.jpg,AFNE03.jpg,AFSA17.jpg,AFSA17.jpg,FS,4,num_4,32,num_6,1.56670879055,,,2017_Mar_15_1747,60.0000769809,FEMA4ImagesEEG,001,200029,
AFNE01.JPG,AFNE01.JPG,AFNE01.JPG,AFNE01.JPG,AFNE01.JPG,AFNE01.JPG,,,,,,,,,,,,,,,,,4,1,41,5,,,,,,,AFNE17.jpg,AFSA12.jpg,AFSA05.jpg,AFNE15.jpg,AFNE17.jpg,FN,3,num_8,16,num_8,1.11669483833,,,2017_Mar_15_1747,60.0000769809,FEMA4ImagesEEG,001,200029,
AFNE01.JPG,AFNE01.JPG,AFNE01.JPG,AFNE01.JPG,AFNE01.JPG,AFNE01.JPG,,,,,,,,,,,,,,,,,4,2,42,6,,,,,,,AFNE01.jpg,AFSA11.jpg,AFNE14.jpg,AFSA09.jpg,AFSA09.jpg,FS,4,num_4,16,num_4,1.45010311791,,,2017_Mar_15_1747,60.0000769809,FEMA4ImagesEEG,001,200029,
AFNE01.JPG,AFNE01.JPG,AFNE01.JPG,AFNE01.JPG,AFNE01.JPG,AFNE01.JPG,,,,,,,,,,,,,,,,,4,3,43,9,,,,,,,AFSA17.jpg,AFNE19.jpg,AFNE08.jpg,AFSA19.jpg,AFNE08.jpg,FN,3,num_2,16,num_2,0.95011338155,,,2017_Mar_15_1747,60.0000769809,FEMA4ImagesEEG,001,200029,
AFNE01.JPG,AFNE01.JPG,AFNE01.JPG,AFNE01.JPG,AFNE01.JPG,AFNE01.JPG,,,,,,,,,,,,,,,,,4,4,44,7,,,,,,,AFSA14.jpg,AFNE04.jpg,AFSA11.jpg,AFNE01.jpg,AFNE01.jpg,FN,3,num_4,16,num_4,2.13341886405,,,2017_Mar_15_1747,60.0000769809,FEMA4ImagesEEG,001,200029,
AFNE01.JPG,AFNE01.JPG,AFNE01.JPG,AFNE01.JPG,AFNE01.JPG,AFNE01.JPG,,,,,,,,,,,,,,,,,4,5,45,8,,,,,,,AFNE06.jpg,AFSA13.jpg,AFNE12.jpg,AFSA02.jpg,AFSA13.jpg,FS,4,num_6,32,num_2,1.13309972768,,,2017_Mar_15_1747,60.0000769809,FEMA4ImagesEEG,001,200029,
AFNE01.JPG,AFNE01.JPG,AFNE01.JPG,AFNE01.JPG,AFNE01.JPG,AFNE01.JPG,,,,,,,,,,,,,,,,,4,6,46,2,,,,,,,AFSA06.jpg,AFSA20.jpg,AFNE20.jpg,AFNE05.jpg,AFSA06.jpg,FS,4,num_8,16,num_8,1.10012540931,,,2017_Mar_15_1747,60.0000769809,FEMA4ImagesEEG,001,200029,
AFNE01.JPG,AFNE01.JPG,AFNE01.JPG,AFNE01.JPG,AFNE01.JPG,AFNE01.JPG,,,,,,,,,,,,,,,,,4,7,47,1,,,,,,,AFNE01.jpg,AFSA12.jpg,AFNE15.jpg,AFSA04.jpg,AFNE15.jpg,FN,3,num_2,16,num_2,1.05009413714,,,2017_Mar_15_1747,60.0000769809,FEMA4ImagesEEG,001,200029,
AFNE01.JPG,AFNE01.JPG,AFNE01.JPG,AFNE01.JPG,AFNE01.JPG,AFNE01.JPG,,,,,,,,,,,,,,,,,4,8,48,4,,,,,,,AFNE16.jpg,AFSA13.jpg,AFSA07.jpg,AFNE18.jpg,AFNE16.jpg,FN,3,num_8,16,num_8,1.91694469482,,,2017_Mar_15_1747,60.0000769809,FEMA4ImagesEEG,001,200029,
AFNE01.JPG,AFNE01.JPG,AFNE01.JPG,AFNE01.JPG,AFNE01.JPG,AFNE01.JPG,,,,,,,,,,,,,,,,,4,9,49,3,,,,,,,AFSA02.jpg,AFSA11.jpg,AFNE18.jpg,AFNE19.jpg,AFSA02.jpg,FS,4,num_8,16,num_8,2.1000705628,,,2017_Mar_15_1747,60.0000769809,FEMA4ImagesEEG,001,200029,
AFNE01.JPG,AFNE01.JPG,AFNE01.JPG,AFNE01.JPG,AFNE01.JPG,AFNE01.JPG,,,,,,,,,,,,,,,,,5,0,50,3,,,,,,,AFSA14.jpg,AFSA01.jpg,AFNE09.jpg,AFNE12.jpg,AFNE09.jpg,FN,3,num_2,16,num_2,1.05013198446,,,2017_Mar_15_1747,60.0000769809,FEMA4ImagesEEG,001,200029,
AFNE01.JPG,AFNE01.JPG,AFNE01.JPG,AFNE01.JPG,AFNE01.JPG,AFNE01.JPG,,,,,,,,,,,,,,,,,5,1,51,5,,,,,,,AFNE11.jpg,AFSA06.jpg,AFNE17.jpg,AFSA02.jpg,AFSA06.jpg,FS,4,num_6,32,num_4,2.78334685788,,,2017_Mar_15_1747,60.0000769809,FEMA4ImagesEEG,001,200029,
AFNE01.JPG,AFNE01.JPG,AFNE01.JPG,AFNE01.JPG,AFNE01.JPG,AFNE01.JPG,,,,,,,,,,,,,,,,,5,2,52,8,,,,,,,AFSA19.jpg,AFNE17.jpg,AFSA03.jpg,AFNE14.jpg,AFSA19.jpg,FS,4,num_8,32,num_6,1.73333835829,,,2017_Mar_15_1747,60.0000769809,FEMA4ImagesEEG,001,200029,
AFNE01.JPG,AFNE01.JPG,AFNE01.JPG,AFNE01.JPG,AFNE01.JPG,AFNE01.JPG,,,,,,,,,,,,,,,,,5,3,53,7,,,,,,,AFNE03.jpg,AFNE15.jpg,AFSA13.jpg,AFSA15.jpg,AFNE03.jpg,FN,3,num_8,16,num_8,1.28311817028,,,2017_Mar_15_1747,60.0000769809,FEMA4ImagesEEG,001,200029,
AFNE01.JPG,AFNE01.JPG,AFNE01.JPG,AFNE01.JPG,AFNE01.JPG,AFNE01.JPG,,,,,,,,,,,,,,,,,5,4,54,1,,,,,,,AFSA01.jpg,AFNE17.jpg,AFNE03.jpg,AFSA08.jpg,AFNE17.jpg,FN,3,num_6,16,num_6,1.13343105215,,,2017_Mar_15_1747,60.0000769809,FEMA4ImagesEEG,001,200029,
AFNE01.JPG,AFNE01.JPG,AFNE01.JPG,AFNE01.JPG,AFNE01.JPG,AFNE01.JPG,,,,,,,,,,,,,,,,,5,5,55,4,,,,,,,AFSA07.jpg,AFNE01.jpg,AFNE18.jpg,AFSA15.jpg,AFSA07.jpg,FS,4,num_8,16,num_8,2.41639141826,,,2017_Mar_15_1747,60.0000769809,FEMA4ImagesEEG,001,200029,
AFNE01.JPG,AFNE01.JPG,AFNE01.JPG,AFNE01.JPG,AFNE01.JPG,AFNE01.JPG,,,,,,,,,,,,,,,,,5,6,56,9,,,,,,,AFSA18.jpg,AFNE19.jpg,AFNE01.jpg,AFSA09.jpg,AFSA09.jpg,FS,4,num_4,32,num_6,2.45001459366,,,2017_Mar_15_1747,60.0000769809,FEMA4ImagesEEG,001,200029,
AFNE01.JPG,AFNE01.JPG,AFNE01.JPG,AFNE01.JPG,AFNE01.JPG,AFNE01.JPG,,,,,,,,,,,,,,,,,5,7,57,6,,,,,,,AFSA03.jpg,AFNE08.jpg,AFSA05.jpg,AFNE19.jpg,AFSA03.jpg,FS,4,num_8,16,num_8,0.850104721612,,,2017_Mar_15_1747,60.0000769809,FEMA4ImagesEEG,001,200029,
AFNE01.JPG,AFNE01.JPG,AFNE01.JPG,AFNE01.JPG,AFNE01.JPG,AFNE01.JPG,,,,,,,,,,,,,,,,,5,8,58,2,,,,,,,AFNE12.jpg,AFSA18.jpg,AFNE13.jpg,AFSA11.jpg,AFNE12.jpg,FN,3,num_8,16,num_8,1.00012444716,,,2017_Mar_15_1747,60.0000769809,FEMA4ImagesEEG,001,200029,
AFNE01.JPG,AFNE01.JPG,AFNE01.JPG,AFNE01.JPG,AFNE01.JPG,AFNE01.JPG,,,,,,,,,,,,,,,,,5,9,59,0,,,,,,,AFNE14.jpg,AFSA02.jpg,AFNE05.jpg,AFSA09.jpg,AFNE14.jpg,FN,3,num_8,16,num_8,1.06676492002,,,2017_Mar_15_1747,60.0000769809,FEMA4ImagesEEG,001,200029,
,,,,,,,,,,,,,,,,,,,,,,,,,,,,,,,,,,,,,,,,,,,space,21.098538067,2017_Mar_15_1747,60.0000769809,FEMA4ImagesEEG,001,200029,
AFNE01.JPG,AFNE01.JPG,AFNE01.JPG,AFNE01.JPG,AFNE01.JPG,AFNE01.JPG,,,,,,,,,,,,,,,,,,,,,0,0,0,2,,,AMSA10.jpg,AMNE12.jpg,AMSA04.jpg,AMNE13.jpg,AMNE12.jpg,MN,1,num_6,16,num_6,1.43340154405,,,2017_Mar_15_1747,60.0000769809,FEMA4ImagesEEG,001,200029,
AFNE01.JPG,AFNE01.JPG,AFNE01.JPG,AFNE01.JPG,AFNE01.JPG,AFNE01.JPG,,,,,,,,,,,,,,,,,,,,,0,1,1,1,,,AMNE17.jpg,AMSA13.jpg,AMNE12.jpg,AMSA20.jpg,AMNE17.jpg,MN,1,num_8,32,num_6,1.25011979643,,,2017_Mar_15_1747,60.0000769809,FEMA4ImagesEEG,001,200029,
AFNE01.JPG,AFNE01.JPG,AFNE01.JPG,AFNE01.JPG,AFNE01.JPG,AFNE01.JPG,,,,,,,,,,,,,,,,,,,,,0,2,2,5,,,AMSA07.jpg,AMNE16.jpg,AMSA19.jpg,AMNE09.jpg,AMSA19.jpg,MS,2,num_2,32,num_4,0.950117551198,,,2017_Mar_15_1747,60.0000769809,FEMA4ImagesEEG,001,200029,
AFNE01.JPG,AFNE01.JPG,AFNE01.JPG,AFNE01.JPG,AFNE01.JPG,AFNE01.JPG,,,,,,,,,,,,,,,,,,,,,0,3,3,9,,,AMSA16.jpg,AMNE08.jpg,AMNE10.jpg,AMSA09.jpg,AMNE10.jpg,MN,1,num_2,16,num_2,1.13357057405,,,2017_Mar_15_1747,60.0000769809,FEMA4ImagesEEG,001,200029,
AFNE01.JPG,AFNE01.JPG,AFNE01.JPG,AFNE01.JPG,AFNE01.JPG,AFNE01.JPG,,,,,,,,,,,,,,,,,,,,,0,4,4,0,,,AMNE13.jpg,AMSA06.jpg,AMNE05.jpg,AMSA16.jpg,AMNE05.jpg,MN,1,num_2,32,num_8,1.10010456125,,,2017_Mar_15_1747,60.0000769809,FEMA4ImagesEEG,001,200029,
AFNE01.JPG,AFNE01.JPG,AFNE01.JPG,AFNE01.JPG,AFNE01.JPG,AFNE01.JPG,,,,,,,,,,,,,,,,,,,,,0,5,5,7,,,AMSA20.jpg,AMSA15.jpg,AMNE19.jpg,AMNE06.jpg,AMNE19.jpg,MN,1,num_2,16,num_2,1.51674006268,,,2017_Mar_15_1747,60.0000769809,FEMA4ImagesEEG,001,200029,
AFNE01.JPG,AFNE01.JPG,AFNE01.JPG,AFNE01.JPG,AFNE01.JPG,AFNE01.JPG,,,,,,,,,,,,,,,,,,,,,0,6,6,8,,,AMSA20.jpg,AMNE13.jpg,AMNE03.jpg,AMSA11.jpg,AMNE03.jpg,MN,1,num_2,32,num_8,3.76655579754,,,2017_Mar_15_1747,60.0000769809,FEMA4ImagesEEG,001,200029,
AFNE01.JPG,AFNE01.JPG,AFNE01.JPG,AFNE01.JPG,AFNE01.JPG,AFNE01.JPG,,,,,,,,,,,,,,,,,,,,,0,7,7,3,,,AMSA02.jpg,AMNE01.jpg,AMSA11.jpg,AMNE02.jpg,AMSA02.jpg,MS,2,num_8,32,num_4,1.59994547418,,,2017_Mar_15_1747,60.0000769809,FEMA4ImagesEEG,001,200029,
AFNE01.JPG,AFNE01.JPG,AFNE01.JPG,AFNE01.JPG,AFNE01.JPG,AFNE01.JPG,,,,,,,,,,,,,,,,,,,,,0,8,8,6,,,AMNE08.jpg,AMNE11.jpg,AMSA16.jpg,AMSA10.jpg,AMSA10.jpg,MS,2,num_4,32,num_8,1.35005981801,,,2017_Mar_15_1747,60.0000769809,FEMA4ImagesEEG,001,200029,
AFNE01.JPG,AFNE01.JPG,AFNE01.JPG,AFNE01.JPG,AFNE01.JPG,AFNE01.JPG,,,,,,,,,,,,,,,,,,,,,0,9,9,4,,,AMNE13.jpg,AMSA08.jpg,AMNE04.jpg,AMSA13.jpg,AMSA08.jpg,MS,2,num_6,32,num_2,1.36674503412,,,2017_Mar_15_1747,60.0000769809,FEMA4ImagesEEG,001,200029,
AFNE01.JPG,AFNE01.JPG,AFNE01.JPG,AFNE01.JPG,AFNE01.JPG,AFNE01.JPG,,,,,,,,,,,,,,,,,,,,,1,0,10,9,,,AMSA20.jpg,AMNE06.jpg,AMNE05.jpg,AMSA10.jpg,AMSA10.jpg,MS,2,num_4,32,num_2,1.66672803491,,,2017_Mar_15_1747,60.0000769809,FEMA4ImagesEEG,001,200029,
AFNE01.JPG,AFNE01.JPG,AFNE01.JPG,AFNE01.JPG,AFNE01.JPG,AFNE01.JPG,,,,,,,,,,,,,,,,,,,,,1,1,11,2,,,AMNE16.jpg,AMSA01.jpg,AMNE11.jpg,AMSA08.jpg,AMNE11.jpg,MN,1,num_2,16,num_2,1.76672867639,,,2017_Mar_15_1747,60.0000769809,FEMA4ImagesEEG,001,200029,
AFNE01.JPG,AFNE01.JPG,AFNE01.JPG,AFNE01.JPG,AFNE01.JPG,AFNE01.JPG,,,,,,,,,,,,,,,,,,,,,1,2,12,6,,,AMNE09.jpg,AMSA01.jpg,AMNE17.jpg,AMSA16.jpg,AMNE09.jpg,MN,1,num_8,32,num_4,1.26671712979,,,2017_Mar_15_1747,60.0000769809,FEMA4ImagesEEG,001,200029,
AFNE01.JPG,AFNE01.JPG,AFNE01.JPG,AFNE01.JPG,AFNE01.JPG,AFNE01.JPG,,,,,,,,,,,,,,,,,,,,,1,3,13,5,,,AMSA01.jpg,AMNE04.jpg,AMSA05.jpg,AMNE10.jpg,AMSA01.jpg,MS,2,num_8,16,num_8,1.11681030475,,,2017_Mar_15_1747,60.0000769809,FEMA4ImagesEEG,001,200029,
AFNE01.JPG,AFNE01.JPG,AFNE01.JPG,AFNE01.JPG,AFNE01.JPG,AFNE01.JPG,,,,,,,,,,,,,,,,,,,,,1,4,14,4,,,AMSA17.jpg,AMSA01.jpg,AMNE20.jpg,AMNE18.jpg,AMSA01.jpg,MS,2,num_6,16,num_6,0.916771815915,,,2017_Mar_15_1747,60.0000769809,FEMA4ImagesEEG,001,200029,
AFNE01.JPG,AFNE01.JPG,AFNE01.JPG,AFNE01.JPG,AFNE01.JPG,AFNE01.JPG,,,,,,,,,,,,,,,,,,,,,1,5,15,7,,,AMNE20.jpg,AMSA07.jpg,AMNE14.jpg,AMSA04.jpg,AMNE14.jpg,MN,1,num_2,32,num_6,1.68336514005,,,2017_Mar_15_1747,60.0000769809,FEMA4ImagesEEG,001,200029,
AFNE01.JPG,AFNE01.JPG,AFNE01.JPG,AFNE01.JPG,AFNE01.JPG,AFNE01.JPG,,,,,,,,,,,,,,,,,,,,,1,6,16,3,,,AMSA01.jpg,AMNE13.jpg,AMSA04.jpg,AMNE04.jpg,AMSA01.jpg,MS,2,num_8,16,num_8,0.716762514494,,,2017_Mar_15_1747,60.0000769809,FEMA4ImagesEEG,001,200029,
AFNE01.JPG,AFNE01.JPG,AFNE01.JPG,AFNE01.JPG,AFNE01.JPG,AFNE01.JPG,,,,,,,,,,,,,,,,,,,,,1,7,17,8,,,AMNE20.jpg,AMNE12.jpg,AMSA10.jpg,AMSA11.jpg,AMSA10.jpg,MS,2,num_2,16,num_2,0.950096703134,,,2017_Mar_15_1747,60.0000769809,FEMA4ImagesEEG,001,200029,
AFNE01.JPG,AFNE01.JPG,AFNE01.JPG,AFNE01.JPG,AFNE01.JPG,AFNE01.JPG,,,,,,,,,,,,,,,,,,,,,1,8,18,1,,,AMSA15.jpg,AMNE02.jpg,AMSA16.jpg,AMNE17.jpg,AMSA15.jpg,MS,2,num_8,32,num_4,1.60007858131,,,2017_Mar_15_1747,60.0000769809,FEMA4ImagesEEG,001,200029,
AFNE01.JPG,AFNE01.JPG,AFNE01.JPG,AFNE01.JPG,AFNE01.JPG,AFNE01.JPG,,,,,,,,,,,,,,,,,,,,,1,9,19,0,,,AMNE11.jpg,AMSA08.jpg,AMSA17.jpg,AMNE06.jpg,AMNE11.jpg,MN,1,num_8,32,num_4,2.34998829302,,,2017_Mar_15_1747,60.0000769809,FEMA4ImagesEEG,001,200029,
AFNE01.JPG,AFNE01.JPG,AFNE01.JPG,AFNE01.JPG,AFNE01.JPG,AFNE01.JPG,,,,,,,,,,,,,,,,,,,,,2,0,20,5,,,AMSA14.jpg,AMNE20.jpg,AMSA05.jpg,AMNE13.jpg,AMSA05.jpg,MS,2,num_2,16,num_2,0.533509312663,,,2017_Mar_15_1747,60.0000769809,FEMA4ImagesEEG,001,200029,
AFNE01.JPG,AFNE01.JPG,AFNE01.JPG,AFNE01.JPG,AFNE01.JPG,AFNE01.JPG,,,,,,,,,,,,,,,,,,,,,2,1,21,8,,,AMSA02.jpg,AMNE06.jpg,AMSA15.jpg,AMNE04.jpg,AMNE06.jpg,MN,1,num_6,16,num_6,2.08335166896,,,2017_Mar_15_1747,60.0000769809,FEMA4ImagesEEG,001,200029,
AFNE01.JPG,AFNE01.JPG,AFNE01.JPG,AFNE01.JPG,AFNE01.JPG,AFNE01.JPG,,,,,,,,,,,,,,,,,,,,,2,2,22,4,,,AMSA12.jpg,AMSA02.jpg,AMNE06.jpg,AMNE04.jpg,AMNE04.jpg,MN,1,num_4,16,num_4,2.1500428188,,,2017_Mar_15_1747,60.0000769809,FEMA4ImagesEEG,001,200029,
AFNE01.JPG,AFNE01.JPG,AFNE01.JPG,AFNE01.JPG,AFNE01.JPG,AFNE01.JPG,,,,,,,,,,,,,,,,,,,,,2,3,23,9,,,AMNE08.jpg,AMNE17.jpg,AMSA17.jpg,AMSA06.jpg,AMNE17.jpg,MN,1,num_6,16,num_6,0.600152672268,,,2017_Mar_15_1747,60.0000769809,FEMA4ImagesEEG,001,200029,
AFNE01.JPG,AFNE01.JPG,AFNE01.JPG,AFNE01.JPG,AFNE01.JPG,AFNE01.JPG,,,,,,,,,,,,,,,,,,,,,2,4,24,6,,,AMSA10.jpg,AMNE15.jpg,AMNE02.jpg,AMSA18.jpg,AMSA18.jpg,MS,2,num_4,16,num_4,0.783474191674,,,2017_Mar_15_1747,60.0000769809,FEMA4ImagesEEG,001,200029,
AFNE01.JPG,AFNE01.JPG,AFNE01.JPG,AFNE01.JPG,AFNE01.JPG,AFNE01.JPG,,,,,,,,,,,,,,,,,,,,,2,5,25,7,,,AMSA08.jpg,AMSA13.jpg,AMNE01.jpg,AMNE05.jpg,AMSA13.jpg,MS,2,num_6,16,num_6,2.48332953791,,,2017_Mar_15_1747,60.0000769809,FEMA4ImagesEEG,001,200029,
AFNE01.JPG,AFNE01.JPG,AFNE01.JPG,AFNE01.JPG,AFNE01.JPG,AFNE01.JPG,,,,,,,,,,,,,,,,,,,,,2,6,26,1,,,AMNE01.jpg,AMSA09.jpg,AMNE16.jpg,AMSA01.jpg,AMSA01.jpg,MS,2,num_4,16,num_4,0.866743430437,,,2017_Mar_15_1747,60.0000769809,FEMA4ImagesEEG,001,200029,
AFNE01.JPG,AFNE01.JPG,AFNE01.JPG,AFNE01.JPG,AFNE01.JPG,AFNE01.JPG,,,,,,,,,,,,,,,,,,,,,2,7,27,2,,,AMNE01.jpg,AMSA08.jpg,AMNE06.jpg,AMSA04.jpg,AMNE01.jpg,MN,1,num_8,16,num_8,0.733467295766,,,2017_Mar_15_1747,60.0000769809,FEMA4ImagesEEG,001,200029,
AFNE01.JPG,AFNE01.JPG,AFNE01.JPG,AFNE01.JPG,AFNE01.JPG,AFNE01.JPG,,,,,,,,,,,,,,,,,,,,,2,8,28,3,,,AMNE01.jpg,AMNE11.jpg,AMSA19.jpg,AMSA08.jpg,AMNE11.jpg,MN,1,num_6,16,num_6,1.60008595831,,,2017_Mar_15_1747,60.0000769809,FEMA4ImagesEEG,001,200029,
AFNE01.JPG,AFNE01.JPG,AFNE01.JPG,AFNE01.JPG,AFNE01.JPG,AFNE01.JPG,,,,,,,,,,,,,,,,,,,,,2,9,29,0,,,AMSA05.jpg,AMSA20.jpg,AMNE13.jpg,AMNE10.jpg,AMNE13.jpg,MN,1,num_2,32,num_4,0.93342014699,,,2017_Mar_15_1747,60.0000769809,FEMA4ImagesEEG,001,200029,
AFNE01.JPG,AFNE01.JPG,AFNE01.JPG,AFNE01.JPG,AFNE01.JPG,AFNE01.JPG,,,,,,,,,,,,,,,,,,,,,3,0,30,2,,,AMNE11.jpg,AMNE09.jpg,AMSA12.jpg,AMSA08.jpg,AMSA12.jpg,MS,2,num_2,16,num_2,1.90017127519,,,2017_Mar_15_1747,60.0000769809,FEMA4ImagesEEG,001,200029,
AFNE01.JPG,AFNE01.JPG,AFNE01.JPG,AFNE01.JPG,AFNE01.JPG,AFNE01.JPG,,,,,,,,,,,,,,,,,,,,,3,1,31,6,,,AMSA15.jpg,AMNE06.jpg,AMNE01.jpg,AMSA12.jpg,AMNE06.jpg,MN,1,num_6,32,num_8,0.9835563011,,,2017_Mar_15_1747,60.0000769809,FEMA4ImagesEEG,001,200029,
AFNE01.JPG,AFNE01.JPG,AFNE01.JPG,AFNE01.JPG,AFNE01.JPG,AFNE01.JPG,,,,,,,,,,,,,,,,,,,,,3,2,32,9,,,AMSA03.jpg,AMSA01.jpg,AMNE04.jpg,AMNE19.jpg,AMNE04.jpg,MN,1,num_2,32,num_4,0.866901876056,,,2017_Mar_15_1747,60.0000769809,FEMA4ImagesEEG,001,200029,
AFNE01.JPG,AFNE01.JPG,AFNE01.JPG,AFNE01.JPG,AFNE01.JPG,AFNE01.JPG,,,,,,,,,,,,,,,,,,,,,3,3,33,4,,,AMNE16.jpg,AMNE06.jpg,AMSA07.jpg,AMSA03.jpg,AMNE16.jpg,MN,1,num_8,16,num_8,1.06664849137,,,2017_Mar_15_1747,60.0000769809,FEMA4ImagesEEG,001,200029,
AFNE01.JPG,AFNE01.JPG,AFNE01.JPG,AFNE01.JPG,AFNE01.JPG,AFNE01.JPG,,,,,,,,,,,,,,,,,,,,,3,4,34,1,,,AMSA13.jpg,AMNE05.jpg,AMNE17.jpg,AMSA15.jpg,AMSA15.jpg,MS,2,num_4,16,num_4,0.816685857601,,,2017_Mar_15_1747,60.0000769809,FEMA4ImagesEEG,001,200029,
AFNE01.JPG,AFNE01.JPG,AFNE01.JPG,AFNE01.JPG,AFNE01.JPG,AFNE01.JPG,,,,,,,,,,,,,,,,,,,,,3,5,35,7,,,AMNE20.jpg,AMSA09.jpg,AMNE09.jpg,AMSA01.jpg,AMSA01.jpg,MS,2,num_4,16,num_4,1.2502208295,,,2017_Mar_15_1747,60.0000769809,FEMA4ImagesEEG,001,200029,
AFNE01.JPG,AFNE01.JPG,AFNE01.JPG,AFNE01.JPG,AFNE01.JPG,AFNE01.JPG,,,,,,,,,,,,,,,,,,,,,3,6,36,0,,,AMNE03.jpg,AMSA05.jpg,AMNE10.jpg,AMSA15.jpg,AMSA05.jpg,MS,2,num_6,16,num_6,1.15009349573,,,2017_Mar_15_1747,60.0000769809,FEMA4ImagesEEG,001,200029,
AFNE01.JPG,AFNE01.JPG,AFNE01.JPG,AFNE01.JPG,AFNE01.JPG,AFNE01.JPG,,,,,,,,,,,,,,,,,,,,,3,7,37,8,,,AMSA17.jpg,AMNE07.jpg,AMSA14.jpg,AMNE04.jpg,AMNE04.jpg,MN,1,num_4,16,num_4,1.13331590651,,,2017_Mar_15_1747,60.0000769809,FEMA4ImagesEEG,001,200029,
AFNE01.JPG,AFNE01.JPG,AFNE01.JPG,AFNE01.JPG,AFNE01.JPG,AFNE01.JPG,,,,,,,,,,,,,,,,,,,,,3,8,38,3,,,AMSA05.jpg,AMSA06.jpg,AMNE08.jpg,AMNE14.jpg,AMSA06.jpg,MS,2,num_6,16,num_6,1.00231766736,,,2017_Mar_15_1747,60.0000769809,FEMA4ImagesEEG,001,200029,
AFNE01.JPG,AFNE01.JPG,AFNE01.JPG,AFNE01.JPG,AFNE01.JPG,AFNE01.JPG,,,,,,,,,,,,,,,,,,,,,3,9,39,5,,,AMNE12.jpg,AMSA13.jpg,AMSA12.jpg,AMNE03.jpg,AMNE12.jpg,MN,1,num_8,16,num_8,0.750007216644,,,2017_Mar_15_1747,60.0000769809,FEMA4ImagesEEG,001,200029,
