IPosition2,IPosition3,IPosition1,IPosition6,IPosition4,IPosition5,TrialsF1.thisRepN,TrialsF1.thisTrialN,TrialsF1.thisN,TrialsF1.thisIndex,TrialsM1.thisRepN,TrialsM1.thisTrialN,TrialsM1.thisN,TrialsM1.thisIndex,TrialsF2.thisRepN,TrialsF2.thisTrialN,TrialsF2.thisN,TrialsF2.thisIndex,TrialsM2.thisRepN,TrialsM2.thisTrialN,TrialsM2.thisN,TrialsM2.thisIndex,TrialsF3.thisRepN,TrialsF3.thisTrialN,TrialsF3.thisN,TrialsF3.thisIndex,TrialsM3.thisRepN,TrialsM3.thisTrialN,TrialsM3.thisN,TrialsM3.thisIndex,InstrKey_resp.keys,InstrKey_resp.rt,Image0 _Position,Image1 _Position,Image2 _Position,Image3 _Position,Center_image,condition,code,correct_answer,accuracy,Key_Resp.keys,Key_Resp.rt,BreakKey_resp.keys,BreakKey_resp.rt,date,frameRate,expName,session,participant,
,,,,,,,,,,,,,,,,,,,,,,,,,,,,,,space,8.08296782442,,,,,,,,,,,,,,2017_Apr_17_1435,60.0139939019,FEMA4ImagesEEG,001,200046,
AFNE23.JPG,AFNE24.JPG,AFNE22.JPG,AFSA24.JPG,AFSA22.JPG,AFSA23.JPG,0,0,0,8,,,,,,,,,,,,,,,,,,,,,,,AFSA10.jpg,AFSA14.jpg,AFNE19.jpg,AFNE01.jpg,AFSA14.jpg,FS,4,num_6,16,num_6,1.03345308662,,,2017_Apr_17_1435,60.0139939019,FEMA4ImagesEEG,001,200046,
AFSA21.JPG,AFNE23.JPG,AFNE21.JPG,AFSA25.JPG,AFNE25.JPG,AFSA23.JPG,0,1,1,4,,,,,,,,,,,,,,,,,,,,,,,AFNE20.jpg,AFSA06.jpg,AFNE10.jpg,AFSA13.jpg,AFNE10.jpg,FN,3,num_2,16,num_2,0.900193373594,,,2017_Apr_17_1435,60.0139939019,FEMA4ImagesEEG,001,200046,
AMNE23.JPG,AMNE24.JPG,AMNE22.JPG,AMSA24.JPG,AMSA22.JPG,AMSA23.JPG,0,2,2,9,,,,,,,,,,,,,,,,,,,,,,,AFSA05.jpg,AFSA20.jpg,AFNE06.jpg,AFNE13.jpg,AFSA20.jpg,FS,4,num_6,32,num_2,1.88341230464,,,2017_Apr_17_1435,60.0139939019,FEMA4ImagesEEG,001,200046,
AFNE22.JPG,AFSA24.JPG,AFSA22.JPG,AFNE25.JPG,AFNE24.JPG,AFSA25.JPG,0,3,3,6,,,,,,,,,,,,,,,,,,,,,,,AFSA03.jpg,AFNE11.jpg,AFSA18.jpg,AFNE10.jpg,AFNE10.jpg,FN,3,num_4,16,num_4,0.850156472563,,,2017_Apr_17_1435,60.0139939019,FEMA4ImagesEEG,001,200046,
AFSA25.JPG,AFNE24.JPG,AFSA24.JPG,AFNE21.JPG,AFSA21.JPG,AFNE25.JPG,0,4,4,2,,,,,,,,,,,,,,,,,,,,,,,AFNE01.jpg,AFSA18.jpg,AFNE11.jpg,AFSA20.jpg,AFNE01.jpg,FN,3,num_8,16,num_8,1.71669116579,,,2017_Apr_17_1435,60.0139939019,FEMA4ImagesEEG,001,200046,
AMNE22.JPG,AMSA24.JPG,AMSA22.JPG,AMNE25.JPG,AMNE24.JPG,AMSA25.JPG,0,5,5,7,,,,,,,,,,,,,,,,,,,,,,,AFSA15.jpg,AFNE18.jpg,AFSA17.jpg,AFNE20.jpg,AFSA15.jpg,FS,4,num_8,16,num_8,0.816777797414,,,2017_Apr_17_1435,60.0139939019,FEMA4ImagesEEG,001,200046,
AMSA21.JPG,AMNE22.JPG,AMNE21.JPG,AMSA23.JPG,AMSA22.JPG,AMNE23.JPG,0,6,6,1,,,,,,,,,,,,,,,,,,,,,,,AFSA15.jpg,AFSA13.jpg,AFNE08.jpg,AFNE07.jpg,AFSA13.jpg,FS,4,num_6,16,num_6,1.86666715847,,,2017_Apr_17_1435,60.0139939019,FEMA4ImagesEEG,001,200046,
AMSA25.JPG,AMNE24.JPG,AMSA24.JPG,AMNE26.JPG,AMSA21.JPG,AMNE25.JPG,0,7,7,3,,,,,,,,,,,,,,,,,,,,,,,AFNE12.jpg,AFNE01.jpg,AFSA14.jpg,AFSA17.jpg,AFSA17.jpg,FS,4,num_4,32,num_2,1.84972732367,,,2017_Apr_17_1435,60.0139939019,FEMA4ImagesEEG,001,200046,
AMSA21.JPG,AMNE23.JPG,AMNE21.JPG,AMSA25.JPG,AMNE25.JPG,AMSA23.JPG,0,8,8,5,,,,,,,,,,,,,,,,,,,,,,,AFSA14.jpg,AFNE05.jpg,AFSA15.jpg,AFNE07.jpg,AFNE05.jpg,FN,3,num_6,16,num_6,1.78330931532,,,2017_Apr_17_1435,60.0139939019,FEMA4ImagesEEG,001,200046,
AFSA21.JPG,AFNE22.JPG,AFNE21.JPG,AFSA23.JPG,AFSA22.JPG,AFNE23.JPG,0,9,9,0,,,,,,,,,,,,,,,,,,,,,,,AFSA19.jpg,AFSA10.jpg,AFNE13.jpg,AFNE01.jpg,AFSA10.jpg,FS,4,num_6,32,num_4,2.46664072957,,,2017_Apr_17_1435,60.0139939019,FEMA4ImagesEEG,001,200046,
AFSA21.JPG,AFNE22.JPG,AFNE21.JPG,AFSA23.JPG,AFSA22.JPG,AFNE23.JPG,,,,,0,0,0,0,,,,,,,,,,,,,,,,,,,AMNE03.jpg,AMSA08.jpg,AMNE02.jpg,AMSA17.jpg,AMSA17.jpg,MS,2,num_4,32,num_6,1.5833980959,,,2017_Apr_17_1435,60.0139939019,FEMA4ImagesEEG,001,200046,
AMSA21.JPG,AMNE22.JPG,AMNE21.JPG,AMSA23.JPG,AMSA22.JPG,AMNE23.JPG,,,,,0,1,1,1,,,,,,,,,,,,,,,,,,,AMNE16.jpg,AMSA16.jpg,AMNE13.jpg,AMSA10.jpg,AMSA16.jpg,MS,2,num_6,32,num_2,1.93335362543,,,2017_Apr_17_1435,60.0139939019,FEMA4ImagesEEG,001,200046,
AMSA25.JPG,AMNE24.JPG,AMSA24.JPG,AMNE26.JPG,AMSA21.JPG,AMNE25.JPG,,,,,0,2,2,3,,,,,,,,,,,,,,,,,,,AMNE17.jpg,AMNE07.jpg,AMSA06.jpg,AMSA03.jpg,AMSA06.jpg,MS,2,num_2,16,num_2,0.866792567449,,,2017_Apr_17_1435,60.0139939019,FEMA4ImagesEEG,001,200046,
AFNE22.JPG,AFSA24.JPG,AFSA22.JPG,AFNE25.JPG,AFNE24.JPG,AFSA25.JPG,,,,,0,3,3,6,,,,,,,,,,,,,,,,,,,AMNE05.jpg,AMNE07.jpg,AMSA12.jpg,AMSA11.jpg,AMSA12.jpg,MS,2,num_2,32,num_6,1.93338794451,,,2017_Apr_17_1435,60.0139939019,FEMA4ImagesEEG,001,200046,
AFSA25.JPG,AFNE24.JPG,AFSA24.JPG,AFNE21.JPG,AFSA21.JPG,AFNE25.JPG,,,,,0,4,4,2,,,,,,,,,,,,,,,,,,,AMSA01.jpg,AMNE03.jpg,AMSA05.jpg,AMNE10.jpg,AMSA05.jpg,MS,2,num_2,32,num_8,1.64992034445,,,2017_Apr_17_1435,60.0139939019,FEMA4ImagesEEG,001,200046,
AMSA21.JPG,AMNE23.JPG,AMNE21.JPG,AMSA25.JPG,AMNE25.JPG,AMSA23.JPG,,,,,0,5,5,5,,,,,,,,,,,,,,,,,,,AMSA13.jpg,AMNE07.jpg,AMSA06.jpg,AMNE04.jpg,AMNE04.jpg,MN,1,num_4,16,num_4,1.38343972784,,,2017_Apr_17_1435,60.0139939019,FEMA4ImagesEEG,001,200046,
AFNE23.JPG,AFNE24.JPG,AFNE22.JPG,AFSA24.JPG,AFSA22.JPG,AFSA23.JPG,,,,,0,6,6,8,,,,,,,,,,,,,,,,,,,AMSA10.jpg,AMNE09.jpg,AMSA07.jpg,AMNE06.jpg,AMSA10.jpg,MS,2,num_8,32,num_2,2.13336331175,,,2017_Apr_17_1435,60.0139939019,FEMA4ImagesEEG,001,200046,
AFSA21.JPG,AFNE23.JPG,AFNE21.JPG,AFSA25.JPG,AFNE25.JPG,AFSA23.JPG,,,,,0,7,7,4,,,,,,,,,,,,,,,,,,,AMNE01.jpg,AMSA04.jpg,AMNE17.jpg,AMSA06.jpg,AMNE01.jpg,MN,1,num_8,32,num_6,2.33334830116,,,2017_Apr_17_1435,60.0139939019,FEMA4ImagesEEG,001,200046,
AMNE22.JPG,AMSA24.JPG,AMSA22.JPG,AMNE25.JPG,AMNE24.JPG,AMSA25.JPG,,,,,0,8,8,7,,,,,,,,,,,,,,,,,,,AMNE20.jpg,AMSA13.jpg,AMSA17.jpg,AMNE13.jpg,AMNE13.jpg,MN,1,num_4,16,num_4,1.4000617102,,,2017_Apr_17_1435,60.0139939019,FEMA4ImagesEEG,001,200046,
AMNE23.JPG,AMNE24.JPG,AMNE22.JPG,AMSA24.JPG,AMSA22.JPG,AMSA23.JPG,,,,,0,9,9,9,,,,,,,,,,,,,,,,,,,AMSA14.jpg,AMNE11.jpg,AMSA19.jpg,AMNE10.jpg,AMSA19.jpg,MS,2,num_2,32,num_6,1.71669501466,,,2017_Apr_17_1435,60.0139939019,FEMA4ImagesEEG,001,200046,
AFSA21.JPG,AFNE23.JPG,AFNE21.JPG,AFSA25.JPG,AFNE25.JPG,AFSA23.JPG,,,,,,,,,0,0,0,4,,,,,,,,,,,,,,,AFSA09.jpg,AFNE14.jpg,AFNE11.jpg,AFSA03.jpg,AFSA09.jpg,FS,4,num_8,32,num_2,2.16666340582,,,2017_Apr_17_1435,60.0139939019,FEMA4ImagesEEG,001,200046,
AMNE23.JPG,AMNE24.JPG,AMNE22.JPG,AMSA24.JPG,AMSA22.JPG,AMSA23.JPG,,,,,,,,,0,1,1,9,,,,,,,,,,,,,,,AFNE12.jpg,AFNE02.jpg,AFSA01.jpg,AFSA06.jpg,AFNE12.jpg,FN,3,num_8,16,num_8,1.41671255908,,,2017_Apr_17_1435,60.0139939019,FEMA4ImagesEEG,001,200046,
AFSA25.JPG,AFNE24.JPG,AFSA24.JPG,AFNE21.JPG,AFSA21.JPG,AFNE25.JPG,,,,,,,,,0,2,2,2,,,,,,,,,,,,,,,AFSA20.jpg,AFNE12.jpg,AFNE13.jpg,AFSA01.jpg,AFNE13.jpg,FN,3,num_2,32,num_6,1.38338456071,,,2017_Apr_17_1435,60.0139939019,FEMA4ImagesEEG,001,200046,
AMSA21.JPG,AMNE22.JPG,AMNE21.JPG,AMSA23.JPG,AMSA22.JPG,AMNE23.JPG,,,,,,,,,0,3,3,1,,,,,,,,,,,,,,,AFNE20.jpg,AFNE17.jpg,AFSA02.jpg,AFSA13.jpg,AFNE17.jpg,FN,3,num_6,32,num_4,0.983534538307,,,2017_Apr_17_1435,60.0139939019,FEMA4ImagesEEG,001,200046,
AFNE22.JPG,AFSA24.JPG,AFSA22.JPG,AFNE25.JPG,AFNE24.JPG,AFSA25.JPG,,,,,,,,,0,4,4,6,,,,,,,,,,,,,,,AFSA13.jpg,AFNE04.jpg,AFNE20.jpg,AFSA05.jpg,AFSA13.jpg,FS,4,num_8,32,num_2,2.64981867016,,,2017_Apr_17_1435,60.0139939019,FEMA4ImagesEEG,001,200046,
AFNE23.JPG,AFNE24.JPG,AFNE22.JPG,AFSA24.JPG,AFSA22.JPG,AFSA23.JPG,,,,,,,,,0,5,5,8,,,,,,,,,,,,,,,AFSA08.jpg,AFNE20.jpg,AFNE19.jpg,AFSA05.jpg,AFNE20.jpg,FN,3,num_6,16,num_6,1.53350135785,,,2017_Apr_17_1435,60.0139939019,FEMA4ImagesEEG,001,200046,
AFSA21.JPG,AFNE22.JPG,AFNE21.JPG,AFSA23.JPG,AFSA22.JPG,AFNE23.JPG,,,,,,,,,0,6,6,0,,,,,,,,,,,,,,,AFSA19.jpg,AFNE06.jpg,AFSA09.jpg,AFNE14.jpg,AFSA19.jpg,FS,4,num_8,16,num_8,1.53319184463,,,2017_Apr_17_1435,60.0139939019,FEMA4ImagesEEG,001,200046,
AMSA21.JPG,AMNE23.JPG,AMNE21.JPG,AMSA25.JPG,AMNE25.JPG,AMSA23.JPG,,,,,,,,,0,7,7,5,,,,,,,,,,,,,,,AFNE17.jpg,AFNE14.jpg,AFSA05.jpg,AFSA04.jpg,AFNE17.jpg,FN,3,num_8,32,num_4,1.40006491759,,,2017_Apr_17_1435,60.0139939019,FEMA4ImagesEEG,001,200046,
AMNE22.JPG,AMSA24.JPG,AMSA22.JPG,AMNE25.JPG,AMNE24.JPG,AMSA25.JPG,,,,,,,,,0,8,8,7,,,,,,,,,,,,,,,AFNE01.jpg,AFNE13.jpg,AFSA18.jpg,AFSA16.jpg,AFNE01.jpg,FN,3,num_8,32,num_2,4.86649748749,,,2017_Apr_17_1435,60.0139939019,FEMA4ImagesEEG,001,200046,
AMSA25.JPG,AMNE24.JPG,AMSA24.JPG,AMNE26.JPG,AMSA21.JPG,AMNE25.JPG,,,,,,,,,0,9,9,3,,,,,,,,,,,,,,,AFNE16.jpg,AFNE08.jpg,AFSA02.jpg,AFSA15.jpg,AFNE16.jpg,FN,3,num_8,16,num_8,1.68339812797,,,2017_Apr_17_1435,60.0139939019,FEMA4ImagesEEG,001,200046,
AFSA21.JPG,AFNE22.JPG,AFNE21.JPG,AFSA23.JPG,AFSA22.JPG,AFNE23.JPG,,,,,,,,,,,,,0,0,0,0,,,,,,,,,,,AMNE18.jpg,AMSA18.jpg,AMNE15.jpg,AMSA08.jpg,AMNE18.jpg,MN,1,num_8,32,num_4,1.15006547889,,,2017_Apr_17_1435,60.0139939019,FEMA4ImagesEEG,001,200046,
AFSA25.JPG,AFNE24.JPG,AFSA24.JPG,AFNE21.JPG,AFSA21.JPG,AFNE25.JPG,,,,,,,,,,,,,0,1,1,2,,,,,,,,,,,AMSA05.jpg,AMSA08.jpg,AMNE02.jpg,AMNE14.jpg,AMSA05.jpg,MS,2,num_8,16,num_8,2.54990555838,,,2017_Apr_17_1435,60.0139939019,FEMA4ImagesEEG,001,200046,
AMNE23.JPG,AMNE24.JPG,AMNE22.JPG,AMSA24.JPG,AMSA22.JPG,AMSA23.JPG,,,,,,,,,,,,,0,2,2,9,,,,,,,,,,,AMSA10.jpg,AMNE10.jpg,AMSA02.jpg,AMNE01.jpg,AMNE01.jpg,MN,1,num_4,16,num_4,1.23342685016,,,2017_Apr_17_1435,60.0139939019,FEMA4ImagesEEG,001,200046,
AFNE22.JPG,AFSA24.JPG,AFSA22.JPG,AFNE25.JPG,AFNE24.JPG,AFSA25.JPG,,,,,,,,,,,,,0,3,3,6,,,,,,,,,,,AMNE11.jpg,AMSA05.jpg,AMSA20.jpg,AMNE05.jpg,AMSA05.jpg,MS,2,num_6,16,num_6,1.81669857486,,,2017_Apr_17_1435,60.0139939019,FEMA4ImagesEEG,001,200046,
AMNE22.JPG,AMSA24.JPG,AMSA22.JPG,AMNE25.JPG,AMNE24.JPG,AMSA25.JPG,,,,,,,,,,,,,0,4,4,7,,,,,,,,,,,AMSA09.jpg,AMSA04.jpg,AMNE07.jpg,AMNE03.jpg,AMSA09.jpg,MS,2,num_8,32,num_2,1.21687190226,,,2017_Apr_17_1435,60.0139939019,FEMA4ImagesEEG,001,200046,
AFSA21.JPG,AFNE23.JPG,AFNE21.JPG,AFSA25.JPG,AFNE25.JPG,AFSA23.JPG,,,,,,,,,,,,,0,5,5,4,,,,,,,,,,,AMNE19.jpg,AMNE17.jpg,AMSA18.jpg,AMSA11.jpg,AMNE19.jpg,MN,1,num_8,16,num_8,1.06674804886,,,2017_Apr_17_1435,60.0139939019,FEMA4ImagesEEG,001,200046,
AMSA21.JPG,AMNE22.JPG,AMNE21.JPG,AMSA23.JPG,AMSA22.JPG,AMNE23.JPG,,,,,,,,,,,,,0,6,6,1,,,,,,,,,,,AMNE18.jpg,AMNE16.jpg,AMSA19.jpg,AMSA01.jpg,AMNE16.jpg,MN,1,num_6,16,num_6,0.916799319006,,,2017_Apr_17_1435,60.0139939019,FEMA4ImagesEEG,001,200046,
AFNE23.JPG,AFNE24.JPG,AFNE22.JPG,AFSA24.JPG,AFSA22.JPG,AFSA23.JPG,,,,,,,,,,,,,0,7,7,8,,,,,,,,,,,AMNE09.jpg,AMSA02.jpg,AMSA18.jpg,AMNE11.jpg,AMSA02.jpg,MS,2,num_6,16,num_6,2.41668016444,,,2017_Apr_17_1435,60.0139939019,FEMA4ImagesEEG,001,200046,
AMSA21.JPG,AMNE23.JPG,AMNE21.JPG,AMSA25.JPG,AMNE25.JPG,AMSA23.JPG,,,,,,,,,,,,,0,8,8,5,,,,,,,,,,,AMNE18.jpg,AMSA15.jpg,AMSA09.jpg,AMNE15.jpg,AMNE18.jpg,MN,1,num_8,32,num_2,2.33358468586,,,2017_Apr_17_1435,60.0139939019,FEMA4ImagesEEG,001,200046,
AMSA25.JPG,AMNE24.JPG,AMSA24.JPG,AMNE26.JPG,AMSA21.JPG,AMNE25.JPG,,,,,,,,,,,,,0,9,9,3,,,,,,,,,,,AMSA10.jpg,AMSA07.jpg,AMNE01.jpg,AMNE08.jpg,AMSA10.jpg,MS,2,num_8,32,num_6,0.966762770788,,,2017_Apr_17_1435,60.0139939019,FEMA4ImagesEEG,001,200046,
AMNE23.JPG,AMNE24.JPG,AMNE22.JPG,AMSA24.JPG,AMSA22.JPG,AMSA23.JPG,,,,,,,,,,,,,,,,,0,0,0,9,,,,,,,AFNE17.jpg,AFNE13.jpg,AFSA08.jpg,AFSA10.jpg,AFSA10.jpg,FS,4,num_4,32,num_2,1.28342943211,,,2017_Apr_17_1435,60.0139939019,FEMA4ImagesEEG,001,200046,
AFSA21.JPG,AFNE23.JPG,AFNE21.JPG,AFSA25.JPG,AFNE25.JPG,AFSA23.JPG,,,,,,,,,,,,,,,,,0,1,1,4,,,,,,,AFNE20.jpg,AFSA04.jpg,AFSA08.jpg,AFNE15.jpg,AFNE15.jpg,FN,3,num_4,16,num_4,0.716820102898,,,2017_Apr_17_1435,60.0139939019,FEMA4ImagesEEG,001,200046,
AMNE22.JPG,AMSA24.JPG,AMSA22.JPG,AMNE25.JPG,AMNE24.JPG,AMSA25.JPG,,,,,,,,,,,,,,,,,0,2,2,7,,,,,,,AFSA19.jpg,AFNE08.jpg,AFNE14.jpg,AFSA12.jpg,AFNE14.jpg,FN,3,num_2,16,num_2,1.03344763405,,,2017_Apr_17_1435,60.0139939019,FEMA4ImagesEEG,001,200046,
AFNE22.JPG,AFSA24.JPG,AFSA22.JPG,AFNE25.JPG,AFNE24.JPG,AFSA25.JPG,,,,,,,,,,,,,,,,,0,3,3,6,,,,,,,AFNE05.jpg,AFNE01.jpg,AFSA07.jpg,AFSA06.jpg,AFSA06.jpg,FS,4,num_4,32,num_6,1.15008632692,,,2017_Apr_17_1435,60.0139939019,FEMA4ImagesEEG,001,200046,
AFSA25.JPG,AFNE24.JPG,AFSA24.JPG,AFNE21.JPG,AFSA21.JPG,AFNE25.JPG,,,,,,,,,,,,,,,,,0,4,4,2,,,,,,,AFSA11.jpg,AFSA04.jpg,AFNE10.jpg,AFNE02.jpg,AFNE02.jpg,FN,3,num_4,32,num_8,1.00010039133,,,2017_Apr_17_1435,60.0139939019,FEMA4ImagesEEG,001,200046,
AMSA25.JPG,AMNE24.JPG,AMSA24.JPG,AMNE26.JPG,AMSA21.JPG,AMNE25.JPG,,,,,,,,,,,,,,,,,0,5,5,3,,,,,,,AFNE17.jpg,AFSA06.jpg,AFSA10.jpg,AFNE07.jpg,AFNE07.jpg,FN,3,num_4,32,num_6,0.950090111644,,,2017_Apr_17_1435,60.0139939019,FEMA4ImagesEEG,001,200046,
AFNE23.JPG,AFNE24.JPG,AFNE22.JPG,AFSA24.JPG,AFSA22.JPG,AFSA23.JPG,,,,,,,,,,,,,,,,,0,6,6,8,,,,,,,AFSA13.jpg,AFNE15.jpg,AFNE05.jpg,AFSA04.jpg,AFSA04.jpg,FS,4,num_4,16,num_4,1.06675542586,,,2017_Apr_17_1435,60.0139939019,FEMA4ImagesEEG,001,200046,
AMSA21.JPG,AMNE23.JPG,AMNE21.JPG,AMSA25.JPG,AMNE25.JPG,AMSA23.JPG,,,,,,,,,,,,,,,,,0,7,7,5,,,,,,,AFSA10.jpg,AFSA20.jpg,AFNE08.jpg,AFNE15.jpg,AFSA20.jpg,FS,4,num_6,32,num_2,1.0667499733,,,2017_Apr_17_1435,60.0139939019,FEMA4ImagesEEG,001,200046,
AMSA21.JPG,AMNE22.JPG,AMNE21.JPG,AMSA23.JPG,AMSA22.JPG,AMNE23.JPG,,,,,,,,,,,,,,,,,0,8,8,1,,,,,,,AFNE09.jpg,AFNE17.jpg,AFSA10.jpg,AFSA19.jpg,AFSA10.jpg,FS,4,num_2,32,num_8,1.50006398745,,,2017_Apr_17_1435,60.0139939019,FEMA4ImagesEEG,001,200046,
AFSA21.JPG,AFNE22.JPG,AFNE21.JPG,AFSA23.JPG,AFSA22.JPG,AFNE23.JPG,,,,,,,,,,,,,,,,,0,9,9,0,,,,,,,AFSA03.jpg,AFSA13.jpg,AFNE13.jpg,AFNE14.jpg,AFNE13.jpg,FN,3,num_2,32,num_6,0.966766619656,,,2017_Apr_17_1435,60.0139939019,FEMA4ImagesEEG,001,200046,
AFNE22.JPG,AFSA24.JPG,AFSA22.JPG,AFNE25.JPG,AFNE24.JPG,AFSA25.JPG,,,,,,,,,,,,,,,,,,,,,0,0,0,6,,,AMSA17.jpg,AMSA15.jpg,AMNE05.jpg,AMNE07.jpg,AMNE05.jpg,MN,1,num_2,32,num_4,0.75010351854,,,2017_Apr_17_1435,60.0139939019,FEMA4ImagesEEG,001,200046,
AMNE22.JPG,AMSA24.JPG,AMSA22.JPG,AMNE25.JPG,AMNE24.JPG,AMSA25.JPG,,,,,,,,,,,,,,,,,,,,,0,1,1,7,,,AMSA16.jpg,AMSA12.jpg,AMNE11.jpg,AMNE13.jpg,AMSA16.jpg,MS,2,num_8,16,num_8,2.63340452672,,,2017_Apr_17_1435,60.0139939019,FEMA4ImagesEEG,001,200046,
AMNE23.JPG,AMNE24.JPG,AMNE22.JPG,AMSA24.JPG,AMSA22.JPG,AMSA23.JPG,,,,,,,,,,,,,,,,,,,,,0,2,2,9,,,AMSA18.jpg,AMSA08.jpg,AMNE16.jpg,AMNE12.jpg,AMSA08.jpg,MS,2,num_6,16,num_6,1.18358303406,,,2017_Apr_17_1435,60.0139939019,FEMA4ImagesEEG,001,200046,
AMSA25.JPG,AMNE24.JPG,AMSA24.JPG,AMNE26.JPG,AMSA21.JPG,AMNE25.JPG,,,,,,,,,,,,,,,,,,,,,0,3,3,3,,,AMSA11.jpg,AMNE03.jpg,AMNE15.jpg,AMSA19.jpg,AMNE15.jpg,MN,1,num_2,16,num_2,1.66670333784,,,2017_Apr_17_1435,60.0139939019,FEMA4ImagesEEG,001,200046,
AFSA21.JPG,AFNE22.JPG,AFNE21.JPG,AFSA23.JPG,AFSA22.JPG,AFNE23.JPG,,,,,,,,,,,,,,,,,,,,,0,4,4,0,,,AMNE18.jpg,AMSA12.jpg,AMNE05.jpg,AMSA13.jpg,AMNE18.jpg,MN,1,num_8,32,num_2,1.33340731715,,,2017_Apr_17_1435,60.0139939019,FEMA4ImagesEEG,001,200046,
AMSA21.JPG,AMNE22.JPG,AMNE21.JPG,AMSA23.JPG,AMSA22.JPG,AMNE23.JPG,,,,,,,,,,,,,,,,,,,,,0,5,5,1,,,AMNE11.jpg,AMNE19.jpg,AMSA07.jpg,AMSA10.jpg,AMSA10.jpg,MS,2,num_4,16,num_4,1.71670335387,,,2017_Apr_17_1435,60.0139939019,FEMA4ImagesEEG,001,200046,
AFNE23.JPG,AFNE24.JPG,AFNE22.JPG,AFSA24.JPG,AFSA22.JPG,AFSA23.JPG,,,,,,,,,,,,,,,,,,,,,0,6,6,8,,,AMSA17.jpg,AMNE01.jpg,AMNE13.jpg,AMSA11.jpg,AMSA11.jpg,MS,2,num_4,32,num_8,1.44976472184,,,2017_Apr_17_1435,60.0139939019,FEMA4ImagesEEG,001,200046,
AFSA25.JPG,AFNE24.JPG,AFSA24.JPG,AFNE21.JPG,AFSA21.JPG,AFNE25.JPG,,,,,,,,,,,,,,,,,,,,,0,7,7,2,,,AMSA15.jpg,AMSA13.jpg,AMNE07.jpg,AMNE13.jpg,AMSA15.jpg,MS,2,num_8,32,num_2,1.26675164114,,,2017_Apr_17_1435,60.0139939019,FEMA4ImagesEEG,001,200046,
AMSA21.JPG,AMNE23.JPG,AMNE21.JPG,AMSA25.JPG,AMNE25.JPG,AMSA23.JPG,,,,,,,,,,,,,,,,,,,,,0,8,8,5,,,AMSA07.jpg,AMSA14.jpg,AMNE16.jpg,AMNE20.jpg,AMNE20.jpg,MN,1,num_4,16,num_4,1.71674312552,,,2017_Apr_17_1435,60.0139939019,FEMA4ImagesEEG,001,200046,
AFSA21.JPG,AFNE23.JPG,AFNE21.JPG,AFSA25.JPG,AFNE25.JPG,AFSA23.JPG,,,,,,,,,,,,,,,,,,,,,0,9,9,4,,,AMSA08.jpg,AMSA02.jpg,AMNE19.jpg,AMNE09.jpg,AMSA08.jpg,MS,2,num_8,32,num_6,1.51676679606,,,2017_Apr_17_1435,60.0139939019,FEMA4ImagesEEG,001,200046,
,,,,,,,,,,,,,,,,,,,,,,,,,,,,,,,,,,,,,,,,,,,space,4.1831837139,2017_Apr_17_1435,60.0139939019,FEMA4ImagesEEG,001,200046,
AFNE01.JPG,AFNE01.JPG,AFNE01.JPG,AFNE01.JPG,AFNE01.JPG,AFNE01.JPG,0,0,0,6,,,,,,,,,,,,,,,,,,,,,,,AFSA10.jpg,AFNE05.jpg,AFSA20.jpg,AFNE15.jpg,AFSA20.jpg,FS,4,num_2,16,num_2,0.750174401877,,,2017_Apr_17_1435,60.0139939019,FEMA4ImagesEEG,001,200046,
AFNE01.JPG,AFNE01.JPG,AFNE01.JPG,AFNE01.JPG,AFNE01.JPG,AFNE01.JPG,0,1,1,0,,,,,,,,,,,,,,,,,,,,,,,AFNE02.jpg,AFSA19.jpg,AFNE03.jpg,AFSA06.jpg,AFSA06.jpg,FS,4,num_4,32,num_6,1.50003993202,,,2017_Apr_17_1435,60.0139939019,FEMA4ImagesEEG,001,200046,
AFNE01.JPG,AFNE01.JPG,AFNE01.JPG,AFNE01.JPG,AFNE01.JPG,AFNE01.JPG,0,2,2,7,,,,,,,,,,,,,,,,,,,,,,,AFSA13.jpg,AFSA19.jpg,AFNE05.jpg,AFNE01.jpg,AFNE05.jpg,FN,3,num_2,32,num_4,1.23343551011,,,2017_Apr_17_1435,60.0139939019,FEMA4ImagesEEG,001,200046,
AFNE01.JPG,AFNE01.JPG,AFNE01.JPG,AFNE01.JPG,AFNE01.JPG,AFNE01.JPG,0,3,3,4,,,,,,,,,,,,,,,,,,,,,,,AFNE09.jpg,AFNE14.jpg,AFSA13.jpg,AFSA11.jpg,AFSA13.jpg,FS,4,num_2,16,num_2,1.31671669662,,,2017_Apr_17_1435,60.0139939019,FEMA4ImagesEEG,001,200046,
AFNE01.JPG,AFNE01.JPG,AFNE01.JPG,AFNE01.JPG,AFNE01.JPG,AFNE01.JPG,0,4,4,9,,,,,,,,,,,,,,,,,,,,,,,AFNE09.jpg,AFNE14.jpg,AFSA12.jpg,AFSA03.jpg,AFSA12.jpg,FS,4,num_2,16,num_2,1.25007834052,,,2017_Apr_17_1435,60.0139939019,FEMA4ImagesEEG,001,200046,
AFNE01.JPG,AFNE01.JPG,AFNE01.JPG,AFNE01.JPG,AFNE01.JPG,AFNE01.JPG,0,5,5,1,,,,,,,,,,,,,,,,,,,,,,,AFNE10.jpg,AFNE20.jpg,AFSA06.jpg,AFSA04.jpg,AFSA06.jpg,FS,4,num_2,32,num_4,1.88335938269,,,2017_Apr_17_1435,60.0139939019,FEMA4ImagesEEG,001,200046,
AFNE01.JPG,AFNE01.JPG,AFNE01.JPG,AFNE01.JPG,AFNE01.JPG,AFNE01.JPG,0,6,6,2,,,,,,,,,,,,,,,,,,,,,,,AFNE12.jpg,AFSA07.jpg,AFSA11.jpg,AFNE05.jpg,AFNE05.jpg,FN,3,num_4,16,num_4,1.16673140251,,,2017_Apr_17_1435,60.0139939019,FEMA4ImagesEEG,001,200046,
AFNE01.JPG,AFNE01.JPG,AFNE01.JPG,AFNE01.JPG,AFNE01.JPG,AFNE01.JPG,0,7,7,3,,,,,,,,,,,,,,,,,,,,,,,AFNE02.jpg,AFNE08.jpg,AFSA02.jpg,AFSA06.jpg,AFSA02.jpg,FS,4,num_2,32,num_6,1.73327818759,,,2017_Apr_17_1435,60.0139939019,FEMA4ImagesEEG,001,200046,
AFNE01.JPG,AFNE01.JPG,AFNE01.JPG,AFNE01.JPG,AFNE01.JPG,AFNE01.JPG,0,8,8,5,,,,,,,,,,,,,,,,,,,,,,,AFNE05.jpg,AFNE13.jpg,AFSA18.jpg,AFSA17.jpg,AFNE05.jpg,FN,3,num_8,32,num_2,1.84991912564,,,2017_Apr_17_1435,60.0139939019,FEMA4ImagesEEG,001,200046,
AFNE01.JPG,AFNE01.JPG,AFNE01.JPG,AFNE01.JPG,AFNE01.JPG,AFNE01.JPG,0,9,9,8,,,,,,,,,,,,,,,,,,,,,,,AFNE01.jpg,AFSA09.jpg,AFNE17.jpg,AFSA18.jpg,AFSA18.jpg,FS,4,num_4,16,num_4,1.15009755279,,,2017_Apr_17_1435,60.0139939019,FEMA4ImagesEEG,001,200046,
AFNE01.JPG,AFNE01.JPG,AFNE01.JPG,AFNE01.JPG,AFNE01.JPG,AFNE01.JPG,1,0,10,6,,,,,,,,,,,,,,,,,,,,,,,AFSA01.jpg,AFNE03.jpg,AFSA09.jpg,AFNE05.jpg,AFSA09.jpg,FS,4,num_2,16,num_2,1.2334255672,,,2017_Apr_17_1435,60.0139939019,FEMA4ImagesEEG,001,200046,
AFNE01.JPG,AFNE01.JPG,AFNE01.JPG,AFNE01.JPG,AFNE01.JPG,AFNE01.JPG,1,1,11,9,,,,,,,,,,,,,,,,,,,,,,,AFSA10.jpg,AFNE18.jpg,AFSA11.jpg,AFNE15.jpg,AFNE18.jpg,FN,3,num_6,16,num_6,1.51671387411,,,2017_Apr_17_1435,60.0139939019,FEMA4ImagesEEG,001,200046,
AFNE01.JPG,AFNE01.JPG,AFNE01.JPG,AFNE01.JPG,AFNE01.JPG,AFNE01.JPG,1,2,12,4,,,,,,,,,,,,,,,,,,,,,,,AFNE18.jpg,AFSA09.jpg,AFSA11.jpg,AFNE15.jpg,AFSA09.jpg,FS,4,num_6,32,num_2,2.03335077085,,,2017_Apr_17_1435,60.0139939019,FEMA4ImagesEEG,001,200046,
AFNE01.JPG,AFNE01.JPG,AFNE01.JPG,AFNE01.JPG,AFNE01.JPG,AFNE01.JPG,1,3,13,8,,,,,,,,,,,,,,,,,,,,,,,AFSA09.jpg,AFSA04.jpg,AFNE01.jpg,AFNE07.jpg,AFNE07.jpg,FN,3,num_4,16,num_4,1.31676320379,,,2017_Apr_17_1435,60.0139939019,FEMA4ImagesEEG,001,200046,
AFNE01.JPG,AFNE01.JPG,AFNE01.JPG,AFNE01.JPG,AFNE01.JPG,AFNE01.JPG,1,4,14,0,,,,,,,,,,,,,,,,,,,,,,,AFNE07.jpg,AFSA03.jpg,AFNE15.jpg,AFSA11.jpg,AFNE07.jpg,FN,3,num_8,16,num_8,1.38354460951,,,2017_Apr_17_1435,60.0139939019,FEMA4ImagesEEG,001,200046,
AFNE01.JPG,AFNE01.JPG,AFNE01.JPG,AFNE01.JPG,AFNE01.JPG,AFNE01.JPG,1,5,15,3,,,,,,,,,,,,,,,,,,,,,,,AFSA08.jpg,AFNE10.jpg,AFSA20.jpg,AFNE05.jpg,AFSA20.jpg,FS,4,num_2,16,num_2,1.75009261341,,,2017_Apr_17_1435,60.0139939019,FEMA4ImagesEEG,001,200046,
AFNE01.JPG,AFNE01.JPG,AFNE01.JPG,AFNE01.JPG,AFNE01.JPG,AFNE01.JPG,1,6,16,1,,,,,,,,,,,,,,,,,,,,,,,AFSA07.jpg,AFNE09.jpg,AFSA12.jpg,AFNE07.jpg,AFNE07.jpg,FN,3,num_4,32,num_6,1.66675465609,,,2017_Apr_17_1435,60.0139939019,FEMA4ImagesEEG,001,200046,
AFNE01.JPG,AFNE01.JPG,AFNE01.JPG,AFNE01.JPG,AFNE01.JPG,AFNE01.JPG,1,7,17,2,,,,,,,,,,,,,,,,,,,,,,,AFSA08.jpg,AFSA09.jpg,AFNE17.jpg,AFNE03.jpg,AFSA09.jpg,FS,4,num_6,16,num_6,1.78337282166,,,2017_Apr_17_1435,60.0139939019,FEMA4ImagesEEG,001,200046,
AFNE01.JPG,AFNE01.JPG,AFNE01.JPG,AFNE01.JPG,AFNE01.JPG,AFNE01.JPG,1,8,18,5,,,,,,,,,,,,,,,,,,,,,,,AFNE05.jpg,AFSA11.jpg,AFSA19.jpg,AFNE19.jpg,AFNE05.jpg,FN,3,num_8,32,num_4,1.35032085134,,,2017_Apr_17_1435,60.0139939019,FEMA4ImagesEEG,001,200046,
AFNE01.JPG,AFNE01.JPG,AFNE01.JPG,AFNE01.JPG,AFNE01.JPG,AFNE01.JPG,1,9,19,7,,,,,,,,,,,,,,,,,,,,,,,AFSA17.jpg,AFSA01.jpg,AFNE04.jpg,AFNE17.jpg,AFSA17.jpg,FS,4,num_8,32,num_6,1.78336223727,,,2017_Apr_17_1435,60.0139939019,FEMA4ImagesEEG,001,200046,
AFNE01.JPG,AFNE01.JPG,AFNE01.JPG,AFNE01.JPG,AFNE01.JPG,AFNE01.JPG,2,0,20,6,,,,,,,,,,,,,,,,,,,,,,,AFNE03.jpg,AFSA19.jpg,AFNE08.jpg,AFSA16.jpg,AFSA19.jpg,FS,4,num_6,16,num_6,0.65015127659,,,2017_Apr_17_1435,60.0139939019,FEMA4ImagesEEG,001,200046,
AFNE01.JPG,AFNE01.JPG,AFNE01.JPG,AFNE01.JPG,AFNE01.JPG,AFNE01.JPG,2,1,21,5,,,,,,,,,,,,,,,,,,,,,,,AFSA03.jpg,AFSA13.jpg,AFNE02.jpg,AFNE05.jpg,AFNE02.jpg,FN,3,num_2,16,num_2,1.71666775183,,,2017_Apr_17_1435,60.0139939019,FEMA4ImagesEEG,001,200046,
AFNE01.JPG,AFNE01.JPG,AFNE01.JPG,AFNE01.JPG,AFNE01.JPG,AFNE01.JPG,2,2,22,0,,,,,,,,,,,,,,,,,,,,,,,AFSA17.jpg,AFNE02.jpg,AFSA08.jpg,AFNE03.jpg,AFSA08.jpg,FS,4,num_2,32,num_4,1.26672181241,,,2017_Apr_17_1435,60.0139939019,FEMA4ImagesEEG,001,200046,
AFNE01.JPG,AFNE01.JPG,AFNE01.JPG,AFNE01.JPG,AFNE01.JPG,AFNE01.JPG,2,3,23,3,,,,,,,,,,,,,,,,,,,,,,,AFSA10.jpg,AFSA04.jpg,AFNE11.jpg,AFNE08.jpg,AFNE11.jpg,FN,3,num_2,32,num_4,1.48341602522,,,2017_Apr_17_1435,60.0139939019,FEMA4ImagesEEG,001,200046,
AFNE01.JPG,AFNE01.JPG,AFNE01.JPG,AFNE01.JPG,AFNE01.JPG,AFNE01.JPG,2,4,24,1,,,,,,,,,,,,,,,,,,,,,,,AFSA16.jpg,AFNE01.jpg,AFSA04.jpg,AFNE11.jpg,AFSA16.jpg,FS,4,num_8,32,num_4,1.38338167406,,,2017_Apr_17_1435,60.0139939019,FEMA4ImagesEEG,001,200046,
AFNE01.JPG,AFNE01.JPG,AFNE01.JPG,AFNE01.JPG,AFNE01.JPG,AFNE01.JPG,2,5,25,7,,,,,,,,,,,,,,,,,,,,,,,AFSA11.jpg,AFSA18.jpg,AFNE10.jpg,AFNE18.jpg,AFNE10.jpg,FN,3,num_2,16,num_2,1.15018351087,,,2017_Apr_17_1435,60.0139939019,FEMA4ImagesEEG,001,200046,
AFNE01.JPG,AFNE01.JPG,AFNE01.JPG,AFNE01.JPG,AFNE01.JPG,AFNE01.JPG,2,6,26,9,,,,,,,,,,,,,,,,,,,,,,,AFSA19.jpg,AFNE20.jpg,AFNE04.jpg,AFSA01.jpg,AFSA19.jpg,FS,4,num_8,16,num_8,1.93340173629,,,2017_Apr_17_1435,60.0139939019,FEMA4ImagesEEG,001,200046,
AFNE01.JPG,AFNE01.JPG,AFNE01.JPG,AFNE01.JPG,AFNE01.JPG,AFNE01.JPG,2,7,27,4,,,,,,,,,,,,,,,,,,,,,,,AFNE04.jpg,AFSA18.jpg,AFNE16.jpg,AFSA16.jpg,AFSA16.jpg,FS,4,num_4,32,num_2,1.83341357156,,,2017_Apr_17_1435,60.0139939019,FEMA4ImagesEEG,001,200046,
AFNE01.JPG,AFNE01.JPG,AFNE01.JPG,AFNE01.JPG,AFNE01.JPG,AFNE01.JPG,2,8,28,2,,,,,,,,,,,,,,,,,,,,,,,AFNE20.jpg,AFSA07.jpg,AFNE15.jpg,AFSA13.jpg,AFSA07.jpg,FS,4,num_6,16,num_6,1.30010337421,,,2017_Apr_17_1435,60.0139939019,FEMA4ImagesEEG,001,200046,
AFNE01.JPG,AFNE01.JPG,AFNE01.JPG,AFNE01.JPG,AFNE01.JPG,AFNE01.JPG,2,9,29,8,,,,,,,,,,,,,,,,,,,,,,,AFNE15.jpg,AFSA13.jpg,AFSA07.jpg,AFNE06.jpg,AFNE15.jpg,FN,3,num_8,16,num_8,1.23344641524,,,2017_Apr_17_1435,60.0139939019,FEMA4ImagesEEG,001,200046,
AFNE01.JPG,AFNE01.JPG,AFNE01.JPG,AFNE01.JPG,AFNE01.JPG,AFNE01.JPG,3,0,30,8,,,,,,,,,,,,,,,,,,,,,,,AFSA01.jpg,AFSA16.jpg,AFNE13.jpg,AFNE20.jpg,AFNE20.jpg,FN,3,num_4,16,num_4,1.68339363763,,,2017_Apr_17_1435,60.0139939019,FEMA4ImagesEEG,001,200046,
AFNE01.JPG,AFNE01.JPG,AFNE01.JPG,AFNE01.JPG,AFNE01.JPG,AFNE01.JPG,3,1,31,4,,,,,,,,,,,,,,,,,,,,,,,AFNE17.jpg,AFNE01.jpg,AFSA07.jpg,AFSA03.jpg,AFSA03.jpg,FS,4,num_4,32,num_2,1.35010916355,,,2017_Apr_17_1435,60.0139939019,FEMA4ImagesEEG,001,200046,
AFNE01.JPG,AFNE01.JPG,AFNE01.JPG,AFNE01.JPG,AFNE01.JPG,AFNE01.JPG,3,2,32,3,,,,,,,,,,,,,,,,,,,,,,,AFNE05.jpg,AFSA09.jpg,AFNE06.jpg,AFSA16.jpg,AFNE05.jpg,FN,3,num_8,16,num_8,1.93347133667,,,2017_Apr_17_1435,60.0139939019,FEMA4ImagesEEG,001,200046,
AFNE01.JPG,AFNE01.JPG,AFNE01.JPG,AFNE01.JPG,AFNE01.JPG,AFNE01.JPG,3,3,33,2,,,,,,,,,,,,,,,,,,,,,,,AFNE01.jpg,AFNE20.jpg,AFSA11.jpg,AFSA20.jpg,AFNE20.jpg,FN,3,num_6,16,num_6,1.50022596069,,,2017_Apr_17_1435,60.0139939019,FEMA4ImagesEEG,001,200046,
AFNE01.JPG,AFNE01.JPG,AFNE01.JPG,AFNE01.JPG,AFNE01.JPG,AFNE01.JPG,3,4,34,1,,,,,,,,,,,,,,,,,,,,,,,AFSA03.jpg,AFNE06.jpg,AFNE16.jpg,AFSA09.jpg,AFNE06.jpg,FN,3,num_6,32,num_4,2.24999751427,,,2017_Apr_17_1435,60.0139939019,FEMA4ImagesEEG,001,200046,
AFNE01.JPG,AFNE01.JPG,AFNE01.JPG,AFNE01.JPG,AFNE01.JPG,AFNE01.JPG,3,5,35,9,,,,,,,,,,,,,,,,,,,,,,,AFNE18.jpg,AFSA13.jpg,AFNE12.jpg,AFSA11.jpg,AFNE12.jpg,FN,3,num_2,16,num_2,1.44981251197,,,2017_Apr_17_1435,60.0139939019,FEMA4ImagesEEG,001,200046,
AFNE01.JPG,AFNE01.JPG,AFNE01.JPG,AFNE01.JPG,AFNE01.JPG,AFNE01.JPG,3,6,36,0,,,,,,,,,,,,,,,,,,,,,,,AFNE08.jpg,AFSA18.jpg,AFNE10.jpg,AFSA02.jpg,AFSA02.jpg,FS,4,num_4,16,num_4,1.58337692712,,,2017_Apr_17_1435,60.0139939019,FEMA4ImagesEEG,001,200046,
AFNE01.JPG,AFNE01.JPG,AFNE01.JPG,AFNE01.JPG,AFNE01.JPG,AFNE01.JPG,3,7,37,6,,,,,,,,,,,,,,,,,,,,,,,AFNE16.jpg,AFSA11.jpg,AFSA09.jpg,AFNE14.jpg,AFSA11.jpg,FS,4,num_6,16,num_6,1.4000806338,,,2017_Apr_17_1435,60.0139939019,FEMA4ImagesEEG,001,200046,
AFNE01.JPG,AFNE01.JPG,AFNE01.JPG,AFNE01.JPG,AFNE01.JPG,AFNE01.JPG,3,8,38,7,,,,,,,,,,,,,,,,,,,,,,,AFSA14.jpg,AFSA11.jpg,AFNE06.jpg,AFNE09.jpg,AFNE09.jpg,FN,3,num_4,32,num_8,1.61667605898,,,2017_Apr_17_1435,60.0139939019,FEMA4ImagesEEG,001,200046,
AFNE01.JPG,AFNE01.JPG,AFNE01.JPG,AFNE01.JPG,AFNE01.JPG,AFNE01.JPG,3,9,39,5,,,,,,,,,,,,,,,,,,,,,,,AFSA02.jpg,AFSA18.jpg,AFNE13.jpg,AFNE07.jpg,AFSA18.jpg,FS,4,num_6,32,num_4,2.16668521608,,,2017_Apr_17_1435,60.0139939019,FEMA4ImagesEEG,001,200046,
AFNE01.JPG,AFNE01.JPG,AFNE01.JPG,AFNE01.JPG,AFNE01.JPG,AFNE01.JPG,4,0,40,3,,,,,,,,,,,,,,,,,,,,,,,AFSA07.jpg,AFNE12.jpg,AFNE09.jpg,AFSA11.jpg,AFNE12.jpg,FN,3,num_6,16,num_6,1.18348969898,,,2017_Apr_17_1435,60.0139939019,FEMA4ImagesEEG,001,200046,
AFNE01.JPG,AFNE01.JPG,AFNE01.JPG,AFNE01.JPG,AFNE01.JPG,AFNE01.JPG,4,1,41,0,,,,,,,,,,,,,,,,,,,,,,,AFSA19.jpg,AFSA10.jpg,AFNE06.jpg,AFNE07.jpg,AFNE07.jpg,FN,3,num_4,32,num_2,1.66673637396,,,2017_Apr_17_1435,60.0139939019,FEMA4ImagesEEG,001,200046,
AFNE01.JPG,AFNE01.JPG,AFNE01.JPG,AFNE01.JPG,AFNE01.JPG,AFNE01.JPG,4,2,42,2,,,,,,,,,,,,,,,,,,,,,,,AFSA02.jpg,AFNE08.jpg,AFSA05.jpg,AFNE18.jpg,AFNE18.jpg,FN,3,num_4,16,num_4,1.4667148203,,,2017_Apr_17_1435,60.0139939019,FEMA4ImagesEEG,001,200046,
AFNE01.JPG,AFNE01.JPG,AFNE01.JPG,AFNE01.JPG,AFNE01.JPG,AFNE01.JPG,4,3,43,4,,,,,,,,,,,,,,,,,,,,,,,AFNE10.jpg,AFNE12.jpg,AFSA11.jpg,AFSA02.jpg,AFSA11.jpg,FS,4,num_2,16,num_2,1.91670438024,,,2017_Apr_17_1435,60.0139939019,FEMA4ImagesEEG,001,200046,
AFNE01.JPG,AFNE01.JPG,AFNE01.JPG,AFNE01.JPG,AFNE01.JPG,AFNE01.JPG,4,4,44,9,,,,,,,,,,,,,,,,,,,,,,,AFNE12.jpg,AFSA14.jpg,AFNE16.jpg,AFSA15.jpg,AFNE16.jpg,FN,3,num_2,16,num_2,3.01664347188,,,2017_Apr_17_1435,60.0139939019,FEMA4ImagesEEG,001,200046,
AFNE01.JPG,AFNE01.JPG,AFNE01.JPG,AFNE01.JPG,AFNE01.JPG,AFNE01.JPG,4,5,45,8,,,,,,,,,,,,,,,,,,,,,,,AFSA10.jpg,AFNE04.jpg,AFSA05.jpg,AFNE12.jpg,AFNE04.jpg,FN,3,num_6,16,num_6,1.28344931793,,,2017_Apr_17_1435,60.0139939019,FEMA4ImagesEEG,001,200046,
AFNE01.JPG,AFNE01.JPG,AFNE01.JPG,AFNE01.JPG,AFNE01.JPG,AFNE01.JPG,4,6,46,6,,,,,,,,,,,,,,,,,,,,,,,AFNE11.jpg,AFSA06.jpg,AFNE13.jpg,AFSA13.jpg,AFNE13.jpg,FN,3,num_2,16,num_2,1.28338035903,,,2017_Apr_17_1435,60.0139939019,FEMA4ImagesEEG,001,200046,
AFNE01.JPG,AFNE01.JPG,AFNE01.JPG,AFNE01.JPG,AFNE01.JPG,AFNE01.JPG,4,7,47,1,,,,,,,,,,,,,,,,,,,,,,,AFSA10.jpg,AFNE01.jpg,AFNE19.jpg,AFSA19.jpg,AFNE01.jpg,FN,3,num_6,16,num_6,1.63338592385,,,2017_Apr_17_1435,60.0139939019,FEMA4ImagesEEG,001,200046,
AFNE01.JPG,AFNE01.JPG,AFNE01.JPG,AFNE01.JPG,AFNE01.JPG,AFNE01.JPG,4,8,48,7,,,,,,,,,,,,,,,,,,,,,,,AFNE13.jpg,AFSA18.jpg,AFSA04.jpg,AFNE06.jpg,AFNE13.jpg,FN,3,num_8,32,num_4,1.43341248105,,,2017_Apr_17_1435,60.0139939019,FEMA4ImagesEEG,001,200046,
AFNE01.JPG,AFNE01.JPG,AFNE01.JPG,AFNE01.JPG,AFNE01.JPG,AFNE01.JPG,4,9,49,5,,,,,,,,,,,,,,,,,,,,,,,AFNE08.jpg,AFSA15.jpg,AFSA03.jpg,AFNE01.jpg,AFSA03.jpg,FS,4,num_2,16,num_2,1.33338711059,,,2017_Apr_17_1435,60.0139939019,FEMA4ImagesEEG,001,200046,
AFNE01.JPG,AFNE01.JPG,AFNE01.JPG,AFNE01.JPG,AFNE01.JPG,AFNE01.JPG,5,0,50,7,,,,,,,,,,,,,,,,,,,,,,,AFSA01.jpg,AFNE10.jpg,AFNE15.jpg,AFSA08.jpg,AFNE10.jpg,FN,3,num_6,32,num_2,2.03333665833,,,2017_Apr_17_1435,60.0139939019,FEMA4ImagesEEG,001,200046,
AFNE01.JPG,AFNE01.JPG,AFNE01.JPG,AFNE01.JPG,AFNE01.JPG,AFNE01.JPG,5,1,51,2,,,,,,,,,,,,,,,,,,,,,,,AFNE17.jpg,AFSA04.jpg,AFNE12.jpg,AFSA10.jpg,AFNE12.jpg,FN,3,num_2,32,num_8,1.5667036265,,,2017_Apr_17_1435,60.0139939019,FEMA4ImagesEEG,001,200046,
AFNE01.JPG,AFNE01.JPG,AFNE01.JPG,AFNE01.JPG,AFNE01.JPG,AFNE01.JPG,5,2,52,0,,,,,,,,,,,,,,,,,,,,,,,AFNE10.jpg,AFSA03.jpg,AFSA04.jpg,AFNE05.jpg,AFNE05.jpg,FN,3,num_4,16,num_4,1.90003396627,,,2017_Apr_17_1435,60.0139939019,FEMA4ImagesEEG,001,200046,
AFNE01.JPG,AFNE01.JPG,AFNE01.JPG,AFNE01.JPG,AFNE01.JPG,AFNE01.JPG,5,3,53,5,,,,,,,,,,,,,,,,,,,,,,,AFSA02.jpg,AFNE19.jpg,AFSA18.jpg,AFNE03.jpg,AFSA02.jpg,FS,4,num_8,32,num_6,1.83332793423,,,2017_Apr_17_1435,60.0139939019,FEMA4ImagesEEG,001,200046,
AFNE01.JPG,AFNE01.JPG,AFNE01.JPG,AFNE01.JPG,AFNE01.JPG,AFNE01.JPG,5,4,54,6,,,,,,,,,,,,,,,,,,,,,,,AFNE19.jpg,AFSA15.jpg,AFSA20.jpg,AFNE12.jpg,AFNE19.jpg,FN,3,num_8,32,num_4,2.18315131925,,,2017_Apr_17_1435,60.0139939019,FEMA4ImagesEEG,001,200046,
AFNE01.JPG,AFNE01.JPG,AFNE01.JPG,AFNE01.JPG,AFNE01.JPG,AFNE01.JPG,5,5,55,9,,,,,,,,,,,,,,,,,,,,,,,AFNE13.jpg,AFSA12.jpg,AFNE09.jpg,AFSA14.jpg,AFSA12.jpg,FS,4,num_6,32,num_2,1.60008037721,,,2017_Apr_17_1435,60.0139939019,FEMA4ImagesEEG,001,200046,
AFNE01.JPG,AFNE01.JPG,AFNE01.JPG,AFNE01.JPG,AFNE01.JPG,AFNE01.JPG,5,6,56,3,,,,,,,,,,,,,,,,,,,,,,,AFNE07.jpg,AFSA04.jpg,AFNE17.jpg,AFSA18.jpg,AFSA18.jpg,FS,4,num_4,16,num_4,1.80004516006,,,2017_Apr_17_1435,60.0139939019,FEMA4ImagesEEG,001,200046,
AFNE01.JPG,AFNE01.JPG,AFNE01.JPG,AFNE01.JPG,AFNE01.JPG,AFNE01.JPG,5,7,57,8,,,,,,,,,,,,,,,,,,,,,,,AFSA02.jpg,AFSA15.jpg,AFNE20.jpg,AFNE18.jpg,AFSA02.jpg,FS,4,num_8,32,num_2,1.31679014587,,,2017_Apr_17_1435,60.0139939019,FEMA4ImagesEEG,001,200046,
AFNE01.JPG,AFNE01.JPG,AFNE01.JPG,AFNE01.JPG,AFNE01.JPG,AFNE01.JPG,5,8,58,1,,,,,,,,,,,,,,,,,,,,,,,AFNE18.jpg,AFNE14.jpg,AFSA10.jpg,AFSA12.jpg,AFSA12.jpg,FS,4,num_4,16,num_4,1.33342303337,,,2017_Apr_17_1435,60.0139939019,FEMA4ImagesEEG,001,200046,
AFNE01.JPG,AFNE01.JPG,AFNE01.JPG,AFNE01.JPG,AFNE01.JPG,AFNE01.JPG,5,9,59,4,,,,,,,,,,,,,,,,,,,,,,,AFNE12.jpg,AFNE06.jpg,AFSA18.jpg,AFSA13.jpg,AFNE12.jpg,FN,3,num_8,32,num_6,1.48345066504,,,2017_Apr_17_1435,60.0139939019,FEMA4ImagesEEG,001,200046,
,,,,,,,,,,,,,,,,,,,,,,,,,,,,,,,,,,,,,,,,,,,space,2.99990474049,2017_Apr_17_1435,60.0139939019,FEMA4ImagesEEG,001,200046,
AFNE01.JPG,AFNE01.JPG,AFNE01.JPG,AFNE01.JPG,AFNE01.JPG,AFNE01.JPG,,,,,0,0,0,4,,,,,,,,,,,,,,,,,,,AMNE02.jpg,AMSA20.jpg,AMNE13.jpg,AMSA02.jpg,AMNE02.jpg,MN,1,num_8,32,num_4,1.53348050981,,,2017_Apr_17_1435,60.0139939019,FEMA4ImagesEEG,001,200046,
AFNE01.JPG,AFNE01.JPG,AFNE01.JPG,AFNE01.JPG,AFNE01.JPG,AFNE01.JPG,,,,,0,1,1,6,,,,,,,,,,,,,,,,,,,AMNE08.jpg,AMSA13.jpg,AMNE09.jpg,AMSA17.jpg,AMSA13.jpg,MS,2,num_6,32,num_8,1.18342619264,,,2017_Apr_17_1435,60.0139939019,FEMA4ImagesEEG,001,200046,
AFNE01.JPG,AFNE01.JPG,AFNE01.JPG,AFNE01.JPG,AFNE01.JPG,AFNE01.JPG,,,,,0,2,2,2,,,,,,,,,,,,,,,,,,,AMNE04.jpg,AMSA13.jpg,AMNE20.jpg,AMSA14.jpg,AMSA14.jpg,MS,2,num_4,32,num_2,2.11664029657,,,2017_Apr_17_1435,60.0139939019,FEMA4ImagesEEG,001,200046,
AFNE01.JPG,AFNE01.JPG,AFNE01.JPG,AFNE01.JPG,AFNE01.JPG,AFNE01.JPG,,,,,0,3,3,5,,,,,,,,,,,,,,,,,,,AMNE16.jpg,AMSA13.jpg,AMSA20.jpg,AMNE02.jpg,AMSA13.jpg,MS,2,num_6,16,num_6,2.54973203853,,,2017_Apr_17_1435,60.0139939019,FEMA4ImagesEEG,001,200046,
AFNE01.JPG,AFNE01.JPG,AFNE01.JPG,AFNE01.JPG,AFNE01.JPG,AFNE01.JPG,,,,,0,4,4,8,,,,,,,,,,,,,,,,,,,AMNE08.jpg,AMSA18.jpg,AMNE03.jpg,AMSA10.jpg,AMNE03.jpg,MN,1,num_2,32,num_8,1.56667347703,,,2017_Apr_17_1435,60.0139939019,FEMA4ImagesEEG,001,200046,
AFNE01.JPG,AFNE01.JPG,AFNE01.JPG,AFNE01.JPG,AFNE01.JPG,AFNE01.JPG,,,,,0,5,5,7,,,,,,,,,,,,,,,,,,,AMSA05.jpg,AMNE05.jpg,AMSA17.jpg,AMNE16.jpg,AMNE16.jpg,MN,1,num_4,16,num_4,1.5167186852,,,2017_Apr_17_1435,60.0139939019,FEMA4ImagesEEG,001,200046,
AFNE01.JPG,AFNE01.JPG,AFNE01.JPG,AFNE01.JPG,AFNE01.JPG,AFNE01.JPG,,,,,0,6,6,0,,,,,,,,,,,,,,,,,,,AMNE16.jpg,AMSA19.jpg,AMSA05.jpg,AMNE04.jpg,AMNE04.jpg,MN,1,num_4,32,num_2,1.48340704452,,,2017_Apr_17_1435,60.0139939019,FEMA4ImagesEEG,001,200046,
AFNE01.JPG,AFNE01.JPG,AFNE01.JPG,AFNE01.JPG,AFNE01.JPG,AFNE01.JPG,,,,,0,7,7,1,,,,,,,,,,,,,,,,,,,AMNE14.jpg,AMNE01.jpg,AMSA05.jpg,AMSA01.jpg,AMNE01.jpg,MN,1,num_6,16,num_6,1.26675228262,,,2017_Apr_17_1435,60.0139939019,FEMA4ImagesEEG,001,200046,
AFNE01.JPG,AFNE01.JPG,AFNE01.JPG,AFNE01.JPG,AFNE01.JPG,AFNE01.JPG,,,,,0,8,8,9,,,,,,,,,,,,,,,,,,,AMSA13.jpg,AMSA11.jpg,AMNE10.jpg,AMNE18.jpg,AMSA11.jpg,MS,2,num_6,32,num_4,3.63322106396,,,2017_Apr_17_1435,60.0139939019,FEMA4ImagesEEG,001,200046,
AFNE01.JPG,AFNE01.JPG,AFNE01.JPG,AFNE01.JPG,AFNE01.JPG,AFNE01.JPG,,,,,0,9,9,3,,,,,,,,,,,,,,,,,,,AMNE03.jpg,AMNE07.jpg,AMSA03.jpg,AMSA12.jpg,AMNE03.jpg,MN,1,num_8,32,num_6,2.00003624352,,,2017_Apr_17_1435,60.0139939019,FEMA4ImagesEEG,001,200046,
AFNE01.JPG,AFNE01.JPG,AFNE01.JPG,AFNE01.JPG,AFNE01.JPG,AFNE01.JPG,,,,,1,0,10,9,,,,,,,,,,,,,,,,,,,AMNE20.jpg,AMSA17.jpg,AMNE09.jpg,AMSA01.jpg,AMSA01.jpg,MS,2,num_4,16,num_4,1.80008461097,,,2017_Apr_17_1435,60.0139939019,FEMA4ImagesEEG,001,200046,
AFNE01.JPG,AFNE01.JPG,AFNE01.JPG,AFNE01.JPG,AFNE01.JPG,AFNE01.JPG,,,,,1,1,11,3,,,,,,,,,,,,,,,,,,,AMNE02.jpg,AMSA08.jpg,AMNE16.jpg,AMSA15.jpg,AMNE16.jpg,MN,1,num_2,16,num_2,1.25010432039,,,2017_Apr_17_1435,60.0139939019,FEMA4ImagesEEG,001,200046,
AFNE01.JPG,AFNE01.JPG,AFNE01.JPG,AFNE01.JPG,AFNE01.JPG,AFNE01.JPG,,,,,1,2,12,0,,,,,,,,,,,,,,,,,,,AMNE12.jpg,AMNE09.jpg,AMSA14.jpg,AMSA19.jpg,AMSA19.jpg,MS,2,num_4,32,num_6,1.66668473497,,,2017_Apr_17_1435,60.0139939019,FEMA4ImagesEEG,001,200046,
AFNE01.JPG,AFNE01.JPG,AFNE01.JPG,AFNE01.JPG,AFNE01.JPG,AFNE01.JPG,,,,,1,3,13,8,,,,,,,,,,,,,,,,,,,AMSA01.jpg,AMNE11.jpg,AMNE02.jpg,AMSA06.jpg,AMSA06.jpg,MS,2,num_4,16,num_4,1.45003670859,,,2017_Apr_17_1435,60.0139939019,FEMA4ImagesEEG,001,200046,
AFNE01.JPG,AFNE01.JPG,AFNE01.JPG,AFNE01.JPG,AFNE01.JPG,AFNE01.JPG,,,,,1,4,14,4,,,,,,,,,,,,,,,,,,,AMSA19.jpg,AMNE15.jpg,AMNE19.jpg,AMSA01.jpg,AMSA01.jpg,MS,2,num_4,16,num_4,1.66672418588,,,2017_Apr_17_1435,60.0139939019,FEMA4ImagesEEG,001,200046,
AFNE01.JPG,AFNE01.JPG,AFNE01.JPG,AFNE01.JPG,AFNE01.JPG,AFNE01.JPG,,,,,1,5,15,6,,,,,,,,,,,,,,,,,,,AMNE08.jpg,AMNE18.jpg,AMSA14.jpg,AMSA13.jpg,AMNE18.jpg,MN,1,num_6,16,num_6,1.40011334919,,,2017_Apr_17_1435,60.0139939019,FEMA4ImagesEEG,001,200046,
AFNE01.JPG,AFNE01.JPG,AFNE01.JPG,AFNE01.JPG,AFNE01.JPG,AFNE01.JPG,,,,,1,6,16,5,,,,,,,,,,,,,,,,,,,AMNE12.jpg,AMSA19.jpg,AMNE03.jpg,AMSA11.jpg,AMSA19.jpg,MS,2,num_6,32,num_2,1.78325639337,,,2017_Apr_17_1435,60.0139939019,FEMA4ImagesEEG,001,200046,
AFNE01.JPG,AFNE01.JPG,AFNE01.JPG,AFNE01.JPG,AFNE01.JPG,AFNE01.JPG,,,,,1,7,17,1,,,,,,,,,,,,,,,,,,,AMNE13.jpg,AMNE05.jpg,AMSA08.jpg,AMSA19.jpg,AMNE05.jpg,MN,1,num_6,32,num_2,1.70005378794,,,2017_Apr_17_1435,60.0139939019,FEMA4ImagesEEG,001,200046,
AFNE01.JPG,AFNE01.JPG,AFNE01.JPG,AFNE01.JPG,AFNE01.JPG,AFNE01.JPG,,,,,1,8,18,7,,,,,,,,,,,,,,,,,,,AMSA02.jpg,AMNE18.jpg,AMNE01.jpg,AMSA14.jpg,AMNE18.jpg,MN,1,num_6,16,num_6,1.48353469868,,,2017_Apr_17_1435,60.0139939019,FEMA4ImagesEEG,001,200046,
AFNE01.JPG,AFNE01.JPG,AFNE01.JPG,AFNE01.JPG,AFNE01.JPG,AFNE01.JPG,,,,,1,9,19,2,,,,,,,,,,,,,,,,,,,AMSA13.jpg,AMSA04.jpg,AMNE05.jpg,AMNE07.jpg,AMNE05.jpg,MN,1,num_2,32,num_4,2.06665214788,,,2017_Apr_17_1435,60.0139939019,FEMA4ImagesEEG,001,200046,
AFNE01.JPG,AFNE01.JPG,AFNE01.JPG,AFNE01.JPG,AFNE01.JPG,AFNE01.JPG,,,,,2,0,20,1,,,,,,,,,,,,,,,,,,,AMNE03.jpg,AMSA16.jpg,AMSA12.jpg,AMNE01.jpg,AMNE03.jpg,MN,1,num_8,32,num_4,1.21673687111,,,2017_Apr_17_1435,60.0139939019,FEMA4ImagesEEG,001,200046,
AFNE01.JPG,AFNE01.JPG,AFNE01.JPG,AFNE01.JPG,AFNE01.JPG,AFNE01.JPG,,,,,2,1,21,3,,,,,,,,,,,,,,,,,,,AMNE03.jpg,AMNE15.jpg,AMSA07.jpg,AMSA15.jpg,AMNE03.jpg,MN,1,num_8,32,num_2,1.38338712662,,,2017_Apr_17_1435,60.0139939019,FEMA4ImagesEEG,001,200046,
AFNE01.JPG,AFNE01.JPG,AFNE01.JPG,AFNE01.JPG,AFNE01.JPG,AFNE01.JPG,,,,,2,2,22,7,,,,,,,,,,,,,,,,,,,AMNE13.jpg,AMSA02.jpg,AMSA13.jpg,AMNE20.jpg,AMNE13.jpg,MN,1,num_8,16,num_8,1.8333917613,,,2017_Apr_17_1435,60.0139939019,FEMA4ImagesEEG,001,200046,
AFNE01.JPG,AFNE01.JPG,AFNE01.JPG,AFNE01.JPG,AFNE01.JPG,AFNE01.JPG,,,,,2,3,23,5,,,,,,,,,,,,,,,,,,,AMSA06.jpg,AMNE14.jpg,AMSA03.jpg,AMNE03.jpg,AMNE14.jpg,MN,1,num_6,32,num_4,1.90006122909,,,2017_Apr_17_1435,60.0139939019,FEMA4ImagesEEG,001,200046,
AFNE01.JPG,AFNE01.JPG,AFNE01.JPG,AFNE01.JPG,AFNE01.JPG,AFNE01.JPG,,,,,2,4,24,8,,,,,,,,,,,,,,,,,,,AMSA14.jpg,AMSA20.jpg,AMNE12.jpg,AMNE06.jpg,AMSA20.jpg,MS,2,num_6,32,num_2,1.83334589561,,,2017_Apr_17_1435,60.0139939019,FEMA4ImagesEEG,001,200046,
AFNE01.JPG,AFNE01.JPG,AFNE01.JPG,AFNE01.JPG,AFNE01.JPG,AFNE01.JPG,,,,,2,5,25,6,,,,,,,,,,,,,,,,,,,AMNE06.jpg,AMSA05.jpg,AMNE19.jpg,AMSA20.jpg,AMNE06.jpg,MN,1,num_8,32,num_6,2.20002636475,,,2017_Apr_17_1435,60.0139939019,FEMA4ImagesEEG,001,200046,
AFNE01.JPG,AFNE01.JPG,AFNE01.JPG,AFNE01.JPG,AFNE01.JPG,AFNE01.JPG,,,,,2,6,26,9,,,,,,,,,,,,,,,,,,,AMSA16.jpg,AMSA01.jpg,AMNE12.jpg,AMNE02.jpg,AMSA01.jpg,MS,2,num_6,16,num_6,1.36682929207,,,2017_Apr_17_1435,60.0139939019,FEMA4ImagesEEG,001,200046,
AFNE01.JPG,AFNE01.JPG,AFNE01.JPG,AFNE01.JPG,AFNE01.JPG,AFNE01.JPG,,,,,2,7,27,0,,,,,,,,,,,,,,,,,,,AMNE13.jpg,AMNE04.jpg,AMSA18.jpg,AMSA16.jpg,AMNE04.jpg,MN,1,num_6,32,num_4,2.23334089208,,,2017_Apr_17_1435,60.0139939019,FEMA4ImagesEEG,001,200046,
AFNE01.JPG,AFNE01.JPG,AFNE01.JPG,AFNE01.JPG,AFNE01.JPG,AFNE01.JPG,,,,,2,8,28,2,,,,,,,,,,,,,,,,,,,AMNE11.jpg,AMSA10.jpg,AMSA11.jpg,AMNE20.jpg,AMNE11.jpg,MN,1,num_8,32,num_2,3.24991636728,,,2017_Apr_17_1435,60.0139939019,FEMA4ImagesEEG,001,200046,
AFNE01.JPG,AFNE01.JPG,AFNE01.JPG,AFNE01.JPG,AFNE01.JPG,AFNE01.JPG,,,,,2,9,29,4,,,,,,,,,,,,,,,,,,,AMSA20.jpg,AMNE14.jpg,AMSA10.jpg,AMNE11.jpg,AMSA20.jpg,MS,2,num_8,32,num_4,1.2834268662,,,2017_Apr_17_1435,60.0139939019,FEMA4ImagesEEG,001,200046,
AFNE01.JPG,AFNE01.JPG,AFNE01.JPG,AFNE01.JPG,AFNE01.JPG,AFNE01.JPG,,,,,3,0,30,3,,,,,,,,,,,,,,,,,,,AMNE08.jpg,AMSA09.jpg,AMSA08.jpg,AMNE03.jpg,AMSA08.jpg,MS,2,num_2,32,num_6,1.83336674365,,,2017_Apr_17_1435,60.0139939019,FEMA4ImagesEEG,001,200046,
AFNE01.JPG,AFNE01.JPG,AFNE01.JPG,AFNE01.JPG,AFNE01.JPG,AFNE01.JPG,,,,,3,1,31,7,,,,,,,,,,,,,,,,,,,AMNE01.jpg,AMSA03.jpg,AMSA17.jpg,AMNE15.jpg,AMSA17.jpg,MS,2,num_2,16,num_2,1.60007235874,,,2017_Apr_17_1435,60.0139939019,FEMA4ImagesEEG,001,200046,
AFNE01.JPG,AFNE01.JPG,AFNE01.JPG,AFNE01.JPG,AFNE01.JPG,AFNE01.JPG,,,,,3,2,32,1,,,,,,,,,,,,,,,,,,,AMSA08.jpg,AMNE04.jpg,AMSA19.jpg,AMNE02.jpg,AMNE02.jpg,MN,1,num_4,16,num_4,1.36679978408,,,2017_Apr_17_1435,60.0139939019,FEMA4ImagesEEG,001,200046,
AFNE01.JPG,AFNE01.JPG,AFNE01.JPG,AFNE01.JPG,AFNE01.JPG,AFNE01.JPG,,,,,3,3,33,0,,,,,,,,,,,,,,,,,,,AMSA15.jpg,AMNE20.jpg,AMNE12.jpg,AMSA18.jpg,AMSA18.jpg,MS,2,num_4,16,num_4,1.2000956444,,,2017_Apr_17_1435,60.0139939019,FEMA4ImagesEEG,001,200046,
AFNE01.JPG,AFNE01.JPG,AFNE01.JPG,AFNE01.JPG,AFNE01.JPG,AFNE01.JPG,,,,,3,4,34,5,,,,,,,,,,,,,,,,,,,AMNE16.jpg,AMSA08.jpg,AMSA17.jpg,AMNE06.jpg,AMSA17.jpg,MS,2,num_2,32,num_6,1.20011392652,,,2017_Apr_17_1435,60.0139939019,FEMA4ImagesEEG,001,200046,
AFNE01.JPG,AFNE01.JPG,AFNE01.JPG,AFNE01.JPG,AFNE01.JPG,AFNE01.JPG,,,,,3,5,35,4,,,,,,,,,,,,,,,,,,,AMSA20.jpg,AMSA09.jpg,AMNE05.jpg,AMNE01.jpg,AMNE05.jpg,MN,1,num_2,16,num_2,1.46666895461,,,2017_Apr_17_1435,60.0139939019,FEMA4ImagesEEG,001,200046,
AFNE01.JPG,AFNE01.JPG,AFNE01.JPG,AFNE01.JPG,AFNE01.JPG,AFNE01.JPG,,,,,3,6,36,6,,,,,,,,,,,,,,,,,,,AMNE14.jpg,AMSA15.jpg,AMSA16.jpg,AMNE01.jpg,AMNE14.jpg,MN,1,num_8,32,num_6,1.70006854194,,,2017_Apr_17_1435,60.0139939019,FEMA4ImagesEEG,001,200046,
AFNE01.JPG,AFNE01.JPG,AFNE01.JPG,AFNE01.JPG,AFNE01.JPG,AFNE01.JPG,,,,,3,7,37,9,,,,,,,,,,,,,,,,,,,AMNE09.jpg,AMSA05.jpg,AMSA14.jpg,AMNE17.jpg,AMSA05.jpg,MS,2,num_6,16,num_6,1.8000586311,,,2017_Apr_17_1435,60.0139939019,FEMA4ImagesEEG,001,200046,
AFNE01.JPG,AFNE01.JPG,AFNE01.JPG,AFNE01.JPG,AFNE01.JPG,AFNE01.JPG,,,,,3,8,38,2,,,,,,,,,,,,,,,,,,,AMNE18.jpg,AMNE12.jpg,AMSA13.jpg,AMSA05.jpg,AMSA13.jpg,MS,2,num_2,16,num_2,1.70005763681,,,2017_Apr_17_1435,60.0139939019,FEMA4ImagesEEG,001,200046,
AFNE01.JPG,AFNE01.JPG,AFNE01.JPG,AFNE01.JPG,AFNE01.JPG,AFNE01.JPG,,,,,3,9,39,8,,,,,,,,,,,,,,,,,,,AMNE18.jpg,AMNE15.jpg,AMSA14.jpg,AMSA05.jpg,AMSA14.jpg,MS,2,num_2,32,num_4,1.60005920844,,,2017_Apr_17_1435,60.0139939019,FEMA4ImagesEEG,001,200046,
AFNE01.JPG,AFNE01.JPG,AFNE01.JPG,AFNE01.JPG,AFNE01.JPG,AFNE01.JPG,,,,,4,0,40,8,,,,,,,,,,,,,,,,,,,AMNE06.jpg,AMNE20.jpg,AMSA10.jpg,AMSA19.jpg,AMSA19.jpg,MS,2,num_4,16,num_4,1.31671669662,,,2017_Apr_17_1435,60.0139939019,FEMA4ImagesEEG,001,200046,
AFNE01.JPG,AFNE01.JPG,AFNE01.JPG,AFNE01.JPG,AFNE01.JPG,AFNE01.JPG,,,,,4,1,41,2,,,,,,,,,,,,,,,,,,,AMNE16.jpg,AMSA10.jpg,AMSA20.jpg,AMNE08.jpg,AMSA20.jpg,MS,2,num_2,16,num_2,1.1334162337,,,2017_Apr_17_1435,60.0139939019,FEMA4ImagesEEG,001,200046,
AFNE01.JPG,AFNE01.JPG,AFNE01.JPG,AFNE01.JPG,AFNE01.JPG,AFNE01.JPG,,,,,4,2,42,7,,,,,,,,,,,,,,,,,,,AMNE20.jpg,AMSA11.jpg,AMNE08.jpg,AMSA19.jpg,AMSA19.jpg,MS,2,num_4,16,num_4,2.00001731991,,,2017_Apr_17_1435,60.0139939019,FEMA4ImagesEEG,001,200046,
AFNE01.JPG,AFNE01.JPG,AFNE01.JPG,AFNE01.JPG,AFNE01.JPG,AFNE01.JPG,,,,,4,3,43,5,,,,,,,,,,,,,,,,,,,AMSA03.jpg,AMNE02.jpg,AMNE06.jpg,AMSA05.jpg,AMNE02.jpg,MN,1,num_6,16,num_6,2.93327151622,,,2017_Apr_17_1435,60.0139939019,FEMA4ImagesEEG,001,200046,
AFNE01.JPG,AFNE01.JPG,AFNE01.JPG,AFNE01.JPG,AFNE01.JPG,AFNE01.JPG,,,,,4,4,44,4,,,,,,,,,,,,,,,,,,,AMNE03.jpg,AMSA02.jpg,AMSA14.jpg,AMNE10.jpg,AMNE03.jpg,MN,1,num_8,16,num_8,1.81667740608,,,2017_Apr_17_1435,60.0139939019,FEMA4ImagesEEG,001,200046,
AFNE01.JPG,AFNE01.JPG,AFNE01.JPG,AFNE01.JPG,AFNE01.JPG,AFNE01.JPG,,,,,4,5,45,0,,,,,,,,,,,,,,,,,,,AMSA12.jpg,AMSA10.jpg,AMNE04.jpg,AMNE13.jpg,AMSA12.jpg,MS,2,num_8,32,num_4,1.60003034192,,,2017_Apr_17_1435,60.0139939019,FEMA4ImagesEEG,001,200046,
AFNE01.JPG,AFNE01.JPG,AFNE01.JPG,AFNE01.JPG,AFNE01.JPG,AFNE01.JPG,,,,,4,6,46,3,,,,,,,,,,,,,,,,,,,AMNE15.jpg,AMNE07.jpg,AMSA08.jpg,AMSA06.jpg,AMSA08.jpg,MS,2,num_2,16,num_2,1.650051206,,,2017_Apr_17_1435,60.0139939019,FEMA4ImagesEEG,001,200046,
AFNE01.JPG,AFNE01.JPG,AFNE01.JPG,AFNE01.JPG,AFNE01.JPG,AFNE01.JPG,,,,,4,7,47,6,,,,,,,,,,,,,,,,,,,AMSA20.jpg,AMNE08.jpg,AMNE03.jpg,AMSA13.jpg,AMSA13.jpg,MS,2,num_4,32,num_6,1.66669980971,,,2017_Apr_17_1435,60.0139939019,FEMA4ImagesEEG,001,200046,
AFNE01.JPG,AFNE01.JPG,AFNE01.JPG,AFNE01.JPG,AFNE01.JPG,AFNE01.JPG,,,,,4,8,48,9,,,,,,,,,,,,,,,,,,,AMSA11.jpg,AMSA08.jpg,AMNE01.jpg,AMNE19.jpg,AMSA11.jpg,MS,2,num_8,32,num_4,1.58336698421,,,2017_Apr_17_1435,60.0139939019,FEMA4ImagesEEG,001,200046,
AFNE01.JPG,AFNE01.JPG,AFNE01.JPG,AFNE01.JPG,AFNE01.JPG,AFNE01.JPG,,,,,4,9,49,1,,,,,,,,,,,,,,,,,,,AMSA19.jpg,AMNE11.jpg,AMSA10.jpg,AMNE04.jpg,AMNE04.jpg,MN,1,num_4,32,num_8,2.88328400901,,,2017_Apr_17_1435,60.0139939019,FEMA4ImagesEEG,001,200046,
AFNE01.JPG,AFNE01.JPG,AFNE01.JPG,AFNE01.JPG,AFNE01.JPG,AFNE01.JPG,,,,,5,0,50,4,,,,,,,,,,,,,,,,,,,AMNE05.jpg,AMNE18.jpg,AMSA16.jpg,AMSA15.jpg,AMNE05.jpg,MN,1,num_8,32,num_6,2.81661871083,,,2017_Apr_17_1435,60.0139939019,FEMA4ImagesEEG,001,200046,
AFNE01.JPG,AFNE01.JPG,AFNE01.JPG,AFNE01.JPG,AFNE01.JPG,AFNE01.JPG,,,,,5,1,51,3,,,,,,,,,,,,,,,,,,,AMSA13.jpg,AMSA18.jpg,AMNE15.jpg,AMNE04.jpg,AMSA18.jpg,MS,2,num_6,16,num_6,1.41671833239,,,2017_Apr_17_1435,60.0139939019,FEMA4ImagesEEG,001,200046,
AFNE01.JPG,AFNE01.JPG,AFNE01.JPG,AFNE01.JPG,AFNE01.JPG,AFNE01.JPG,,,,,5,2,52,7,,,,,,,,,,,,,,,,,,,AMSA13.jpg,AMNE03.jpg,AMSA09.jpg,AMNE01.jpg,AMNE01.jpg,MN,1,num_4,16,num_4,1.33342816519,,,2017_Apr_17_1435,60.0139939019,FEMA4ImagesEEG,001,200046,
AFNE01.JPG,AFNE01.JPG,AFNE01.JPG,AFNE01.JPG,AFNE01.JPG,AFNE01.JPG,,,,,5,3,53,0,,,,,,,,,,,,,,,,,,,AMSA20.jpg,AMNE16.jpg,AMNE01.jpg,AMSA16.jpg,AMSA16.jpg,MS,2,num_4,32,num_2,2.56689863587,,,2017_Apr_17_1435,60.0139939019,FEMA4ImagesEEG,001,200046,
AFNE01.JPG,AFNE01.JPG,AFNE01.JPG,AFNE01.JPG,AFNE01.JPG,AFNE01.JPG,,,,,5,4,54,8,,,,,,,,,,,,,,,,,,,AMSA10.jpg,AMNE20.jpg,AMNE02.jpg,AMSA05.jpg,AMSA10.jpg,MS,2,num_8,32,num_4,1.45021920913,,,2017_Apr_17_1435,60.0139939019,FEMA4ImagesEEG,001,200046,
AFNE01.JPG,AFNE01.JPG,AFNE01.JPG,AFNE01.JPG,AFNE01.JPG,AFNE01.JPG,,,,,5,5,55,2,,,,,,,,,,,,,,,,,,,AMSA09.jpg,AMSA13.jpg,AMNE17.jpg,AMNE02.jpg,AMNE17.jpg,MN,1,num_2,16,num_2,1.88338632478,,,2017_Apr_17_1435,60.0139939019,FEMA4ImagesEEG,001,200046,
AFNE01.JPG,AFNE01.JPG,AFNE01.JPG,AFNE01.JPG,AFNE01.JPG,AFNE01.JPG,,,,,5,6,56,6,,,,,,,,,,,,,,,,,,,AMNE10.jpg,AMSA05.jpg,AMNE04.jpg,AMSA14.jpg,AMSA05.jpg,MS,2,num_6,32,num_4,2.58333458956,,,2017_Apr_17_1435,60.0139939019,FEMA4ImagesEEG,001,200046,
AFNE01.JPG,AFNE01.JPG,AFNE01.JPG,AFNE01.JPG,AFNE01.JPG,AFNE01.JPG,,,,,5,7,57,5,,,,,,,,,,,,,,,,,,,AMSA16.jpg,AMNE14.jpg,AMSA12.jpg,AMNE08.jpg,AMSA12.jpg,MS,2,num_2,16,num_2,2.98328083369,,,2017_Apr_17_1435,60.0139939019,FEMA4ImagesEEG,001,200046,
AFNE01.JPG,AFNE01.JPG,AFNE01.JPG,AFNE01.JPG,AFNE01.JPG,AFNE01.JPG,,,,,5,8,58,9,,,,,,,,,,,,,,,,,,,AMSA15.jpg,AMNE07.jpg,AMNE06.jpg,AMSA09.jpg,AMNE06.jpg,MN,1,num_2,32,num_6,1.41674751964,,,2017_Apr_17_1435,60.0139939019,FEMA4ImagesEEG,001,200046,
AFNE01.JPG,AFNE01.JPG,AFNE01.JPG,AFNE01.JPG,AFNE01.JPG,AFNE01.JPG,,,,,5,9,59,1,,,,,,,,,,,,,,,,,,,AMNE16.jpg,AMNE08.jpg,AMSA07.jpg,AMSA15.jpg,AMNE16.jpg,MN,1,num_8,32,num_4,1.9166745515,,,2017_Apr_17_1435,60.0139939019,FEMA4ImagesEEG,001,200046,
,,,,,,,,,,,,,,,,,,,,,,,,,,,,,,,,,,,,,,,,,,,space,5.0994996791,2017_Apr_17_1435,60.0139939019,FEMA4ImagesEEG,001,200046,
AFNE01.JPG,AFNE01.JPG,AFNE01.JPG,AFNE01.JPG,AFNE01.JPG,AFNE01.JPG,,,,,,,,,0,0,0,1,,,,,,,,,,,,,,,AFSA08.jpg,AFNE20.jpg,AFSA04.jpg,AFNE15.jpg,AFSA08.jpg,FS,4,num_8,32,num_2,1.69996269805,,,2017_Apr_17_1435,60.0139939019,FEMA4ImagesEEG,001,200046,
AFNE01.JPG,AFNE01.JPG,AFNE01.JPG,AFNE01.JPG,AFNE01.JPG,AFNE01.JPG,,,,,,,,,0,1,1,3,,,,,,,,,,,,,,,AFSA10.jpg,AFNE08.jpg,AFSA08.jpg,AFNE17.jpg,AFSA10.jpg,FS,4,num_8,16,num_8,1.86693401339,,,2017_Apr_17_1435,60.0139939019,FEMA4ImagesEEG,001,200046,
AFNE01.JPG,AFNE01.JPG,AFNE01.JPG,AFNE01.JPG,AFNE01.JPG,AFNE01.JPG,,,,,,,,,0,2,2,0,,,,,,,,,,,,,,,AFNE02.jpg,AFSA11.jpg,AFNE18.jpg,AFSA05.jpg,AFNE18.jpg,FN,3,num_2,32,num_4,2.03343384227,,,2017_Apr_17_1435,60.0139939019,FEMA4ImagesEEG,001,200046,
AFNE01.JPG,AFNE01.JPG,AFNE01.JPG,AFNE01.JPG,AFNE01.JPG,AFNE01.JPG,,,,,,,,,0,3,3,7,,,,,,,,,,,,,,,AFSA17.jpg,AFNE09.jpg,AFNE04.jpg,AFSA07.jpg,AFSA17.jpg,FS,4,num_8,32,num_6,1.83337925248,,,2017_Apr_17_1435,60.0139939019,FEMA4ImagesEEG,001,200046,
AFNE01.JPG,AFNE01.JPG,AFNE01.JPG,AFNE01.JPG,AFNE01.JPG,AFNE01.JPG,,,,,,,,,0,4,4,2,,,,,,,,,,,,,,,AFNE19.jpg,AFNE10.jpg,AFSA14.jpg,AFSA07.jpg,AFNE10.jpg,FN,3,num_6,32,num_8,1.36655281498,,,2017_Apr_17_1435,60.0139939019,FEMA4ImagesEEG,001,200046,
AFNE01.JPG,AFNE01.JPG,AFNE01.JPG,AFNE01.JPG,AFNE01.JPG,AFNE01.JPG,,,,,,,,,0,5,5,5,,,,,,,,,,,,,,,AFNE17.jpg,AFSA14.jpg,AFSA04.jpg,AFNE01.jpg,AFSA04.jpg,FS,4,num_2,32,num_4,1.51670264825,,,2017_Apr_17_1435,60.0139939019,FEMA4ImagesEEG,001,200046,
AFNE01.JPG,AFNE01.JPG,AFNE01.JPG,AFNE01.JPG,AFNE01.JPG,AFNE01.JPG,,,,,,,,,0,6,6,9,,,,,,,,,,,,,,,AFSA02.jpg,AFSA16.jpg,AFNE08.jpg,AFNE10.jpg,AFNE10.jpg,FN,3,num_4,32,num_6,3.24980667452,,,2017_Apr_17_1435,60.0139939019,FEMA4ImagesEEG,001,200046,
AFNE01.JPG,AFNE01.JPG,AFNE01.JPG,AFNE01.JPG,AFNE01.JPG,AFNE01.JPG,,,,,,,,,0,7,7,8,,,,,,,,,,,,,,,AFNE13.jpg,AFNE02.jpg,AFSA04.jpg,AFSA07.jpg,AFSA04.jpg,FS,4,num_2,32,num_4,3.84987293921,,,2017_Apr_17_1435,60.0139939019,FEMA4ImagesEEG,001,200046,
AFNE01.JPG,AFNE01.JPG,AFNE01.JPG,AFNE01.JPG,AFNE01.JPG,AFNE01.JPG,,,,,,,,,0,8,8,6,,,,,,,,,,,,,,,AFNE04.jpg,AFNE05.jpg,AFSA05.jpg,AFSA09.jpg,AFSA05.jpg,FS,4,num_2,16,num_2,1.38340765393,,,2017_Apr_17_1435,60.0139939019,FEMA4ImagesEEG,001,200046,
AFNE01.JPG,AFNE01.JPG,AFNE01.JPG,AFNE01.JPG,AFNE01.JPG,AFNE01.JPG,,,,,,,,,0,9,9,4,,,,,,,,,,,,,,,AFNE06.jpg,AFNE05.jpg,AFSA06.jpg,AFSA01.jpg,AFNE05.jpg,FN,3,num_6,32,num_8,1.8000618385,,,2017_Apr_17_1435,60.0139939019,FEMA4ImagesEEG,001,200046,
AFNE01.JPG,AFNE01.JPG,AFNE01.JPG,AFNE01.JPG,AFNE01.JPG,AFNE01.JPG,,,,,,,,,1,0,10,2,,,,,,,,,,,,,,,AFSA02.jpg,AFSA11.jpg,AFNE13.jpg,AFNE19.jpg,AFSA02.jpg,FS,4,num_8,32,num_6,1.35035132156,,,2017_Apr_17_1435,60.0139939019,FEMA4ImagesEEG,001,200046,
AFNE01.JPG,AFNE01.JPG,AFNE01.JPG,AFNE01.JPG,AFNE01.JPG,AFNE01.JPG,,,,,,,,,1,1,11,0,,,,,,,,,,,,,,,AFSA09.jpg,AFSA10.jpg,AFNE01.jpg,AFNE04.jpg,AFSA10.jpg,FS,4,num_6,32,num_4,1.66674663761,,,2017_Apr_17_1435,60.0139939019,FEMA4ImagesEEG,001,200046,
AFNE01.JPG,AFNE01.JPG,AFNE01.JPG,AFNE01.JPG,AFNE01.JPG,AFNE01.JPG,,,,,,,,,1,2,12,6,,,,,,,,,,,,,,,AFSA10.jpg,AFNE20.jpg,AFNE08.jpg,AFSA06.jpg,AFSA10.jpg,FS,4,num_8,32,num_2,1.38346602844,,,2017_Apr_17_1435,60.0139939019,FEMA4ImagesEEG,001,200046,
AFNE01.JPG,AFNE01.JPG,AFNE01.JPG,AFNE01.JPG,AFNE01.JPG,AFNE01.JPG,,,,,,,,,1,3,13,4,,,,,,,,,,,,,,,AFSA15.jpg,AFSA08.jpg,AFNE04.jpg,AFNE05.jpg,AFNE05.jpg,FN,3,num_4,32,num_6,1.50009445766,,,2017_Apr_17_1435,60.0139939019,FEMA4ImagesEEG,001,200046,
AFNE01.JPG,AFNE01.JPG,AFNE01.JPG,AFNE01.JPG,AFNE01.JPG,AFNE01.JPG,,,,,,,,,1,4,14,7,,,,,,,,,,,,,,,AFNE09.jpg,AFSA19.jpg,AFSA02.jpg,AFNE17.jpg,AFSA02.jpg,FS,4,num_2,32,num_4,1.65006082817,,,2017_Apr_17_1435,60.0139939019,FEMA4ImagesEEG,001,200046,
AFNE01.JPG,AFNE01.JPG,AFNE01.JPG,AFNE01.JPG,AFNE01.JPG,AFNE01.JPG,,,,,,,,,1,5,15,5,,,,,,,,,,,,,,,AFSA05.jpg,AFNE03.jpg,AFSA07.jpg,AFNE13.jpg,AFNE03.jpg,FN,3,num_6,32,num_4,1.91676660362,,,2017_Apr_17_1435,60.0139939019,FEMA4ImagesEEG,001,200046,
AFNE01.JPG,AFNE01.JPG,AFNE01.JPG,AFNE01.JPG,AFNE01.JPG,AFNE01.JPG,,,,,,,,,1,6,16,8,,,,,,,,,,,,,,,AFNE07.jpg,AFNE16.jpg,AFSA05.jpg,AFSA08.jpg,AFNE16.jpg,FN,3,num_6,32,num_2,1.48341410078,,,2017_Apr_17_1435,60.0139939019,FEMA4ImagesEEG,001,200046,
AFNE01.JPG,AFNE01.JPG,AFNE01.JPG,AFNE01.JPG,AFNE01.JPG,AFNE01.JPG,,,,,,,,,1,7,17,3,,,,,,,,,,,,,,,AFSA07.jpg,AFNE13.jpg,AFSA14.jpg,AFNE03.jpg,AFSA07.jpg,FS,4,num_8,32,num_4,0.816507093627,,,2017_Apr_17_1435,60.0139939019,FEMA4ImagesEEG,001,200046,
AFNE01.JPG,AFNE01.JPG,AFNE01.JPG,AFNE01.JPG,AFNE01.JPG,AFNE01.JPG,,,,,,,,,1,8,18,9,,,,,,,,,,,,,,,AFSA03.jpg,AFNE01.jpg,AFSA18.jpg,AFNE04.jpg,AFNE01.jpg,FN,3,num_6,32,num_2,1.73324675516,,,2017_Apr_17_1435,60.0139939019,FEMA4ImagesEEG,001,200046,
AFNE01.JPG,AFNE01.JPG,AFNE01.JPG,AFNE01.JPG,AFNE01.JPG,AFNE01.JPG,,,,,,,,,1,9,19,1,,,,,,,,,,,,,,,AFSA14.jpg,AFSA05.jpg,AFNE01.jpg,AFNE09.jpg,AFSA14.jpg,FS,4,num_8,32,num_6,2.56666449633,,,2017_Apr_17_1435,60.0139939019,FEMA4ImagesEEG,001,200046,
AFNE01.JPG,AFNE01.JPG,AFNE01.JPG,AFNE01.JPG,AFNE01.JPG,AFNE01.JPG,,,,,,,,,2,0,20,1,,,,,,,,,,,,,,,AFSA01.jpg,AFSA09.jpg,AFNE20.jpg,AFNE19.jpg,AFNE20.jpg,FN,3,num_2,32,num_4,1.28342045141,,,2017_Apr_17_1435,60.0139939019,FEMA4ImagesEEG,001,200046,
AFNE01.JPG,AFNE01.JPG,AFNE01.JPG,AFNE01.JPG,AFNE01.JPG,AFNE01.JPG,,,,,,,,,2,1,21,0,,,,,,,,,,,,,,,AFNE18.jpg,AFSA12.jpg,AFSA16.jpg,AFNE10.jpg,AFNE10.jpg,FN,3,num_4,32,num_2,1.85004325166,,,2017_Apr_17_1435,60.0139939019,FEMA4ImagesEEG,001,200046,
AFNE01.JPG,AFNE01.JPG,AFNE01.JPG,AFNE01.JPG,AFNE01.JPG,AFNE01.JPG,,,,,,,,,2,2,22,7,,,,,,,,,,,,,,,AFSA01.jpg,AFSA13.jpg,AFNE10.jpg,AFNE17.jpg,AFSA01.jpg,FS,4,num_8,16,num_8,1.7335145723,,,2017_Apr_17_1435,60.0139939019,FEMA4ImagesEEG,001,200046,
AFNE01.JPG,AFNE01.JPG,AFNE01.JPG,AFNE01.JPG,AFNE01.JPG,AFNE01.JPG,,,,,,,,,2,3,23,2,,,,,,,,,,,,,,,AFSA16.jpg,AFNE07.jpg,AFNE11.jpg,AFSA05.jpg,AFSA05.jpg,FS,4,num_4,16,num_4,1.45037669202,,,2017_Apr_17_1435,60.0139939019,FEMA4ImagesEEG,001,200046,
AFNE01.JPG,AFNE01.JPG,AFNE01.JPG,AFNE01.JPG,AFNE01.JPG,AFNE01.JPG,,,,,,,,,2,4,24,9,,,,,,,,,,,,,,,AFNE09.jpg,AFNE01.jpg,AFSA19.jpg,AFSA13.jpg,AFNE01.jpg,FN,3,num_6,16,num_6,1.56656121835,,,2017_Apr_17_1435,60.0139939019,FEMA4ImagesEEG,001,200046,
AFNE01.JPG,AFNE01.JPG,AFNE01.JPG,AFNE01.JPG,AFNE01.JPG,AFNE01.JPG,,,,,,,,,2,5,25,5,,,,,,,,,,,,,,,AFSA15.jpg,AFNE03.jpg,AFNE02.jpg,AFSA14.jpg,AFNE03.jpg,FN,3,num_6,16,num_6,1.43341248105,,,2017_Apr_17_1435,60.0139939019,FEMA4ImagesEEG,001,200046,
AFNE01.JPG,AFNE01.JPG,AFNE01.JPG,AFNE01.JPG,AFNE01.JPG,AFNE01.JPG,,,,,,,,,2,6,26,6,,,,,,,,,,,,,,,AFNE16.jpg,AFSA20.jpg,AFSA10.jpg,AFNE03.jpg,AFNE16.jpg,FN,3,num_8,16,num_8,1.35016176476,,,2017_Apr_17_1435,60.0139939019,FEMA4ImagesEEG,001,200046,
AFNE01.JPG,AFNE01.JPG,AFNE01.JPG,AFNE01.JPG,AFNE01.JPG,AFNE01.JPG,,,,,,,,,2,7,27,3,,,,,,,,,,,,,,,AFNE11.jpg,AFSA10.jpg,AFSA13.jpg,AFNE04.jpg,AFSA13.jpg,FS,4,num_2,16,num_2,1.16684301971,,,2017_Apr_17_1435,60.0139939019,FEMA4ImagesEEG,001,200046,
AFNE01.JPG,AFNE01.JPG,AFNE01.JPG,AFNE01.JPG,AFNE01.JPG,AFNE01.JPG,,,,,,,,,2,8,28,4,,,,,,,,,,,,,,,AFNE12.jpg,AFSA08.jpg,AFSA07.jpg,AFNE08.jpg,AFSA08.jpg,FS,4,num_6,32,num_4,2.08343674496,,,2017_Apr_17_1435,60.0139939019,FEMA4ImagesEEG,001,200046,
AFNE01.JPG,AFNE01.JPG,AFNE01.JPG,AFNE01.JPG,AFNE01.JPG,AFNE01.JPG,,,,,,,,,2,9,29,8,,,,,,,,,,,,,,,AFSA13.jpg,AFNE13.jpg,AFSA12.jpg,AFNE08.jpg,AFNE13.jpg,FN,3,num_6,16,num_6,2.26698610141,,,2017_Apr_17_1435,60.0139939019,FEMA4ImagesEEG,001,200046,
AFNE01.JPG,AFNE01.JPG,AFNE01.JPG,AFNE01.JPG,AFNE01.JPG,AFNE01.JPG,,,,,,,,,3,0,30,0,,,,,,,,,,,,,,,AFSA02.jpg,AFSA19.jpg,AFNE19.jpg,AFNE13.jpg,AFSA19.jpg,FS,4,num_6,32,num_4,1.63338752755,,,2017_Apr_17_1435,60.0139939019,FEMA4ImagesEEG,001,200046,
AFNE01.JPG,AFNE01.JPG,AFNE01.JPG,AFNE01.JPG,AFNE01.JPG,AFNE01.JPG,,,,,,,,,3,1,31,5,,,,,,,,,,,,,,,AFSA06.jpg,AFNE01.jpg,AFNE12.jpg,AFSA08.jpg,AFNE01.jpg,FN,3,num_6,16,num_6,1.41673789747,,,2017_Apr_17_1435,60.0139939019,FEMA4ImagesEEG,001,200046,
AFNE01.JPG,AFNE01.JPG,AFNE01.JPG,AFNE01.JPG,AFNE01.JPG,AFNE01.JPG,,,,,,,,,3,2,32,8,,,,,,,,,,,,,,,AFNE20.jpg,AFSA16.jpg,AFSA09.jpg,AFNE17.jpg,AFSA09.jpg,FS,4,num_2,32,num_8,1.73338723888,,,2017_Apr_17_1435,60.0139939019,FEMA4ImagesEEG,001,200046,
AFNE01.JPG,AFNE01.JPG,AFNE01.JPG,AFNE01.JPG,AFNE01.JPG,AFNE01.JPG,,,,,,,,,3,3,33,1,,,,,,,,,,,,,,,AFSA18.jpg,AFNE05.jpg,AFNE18.jpg,AFSA15.jpg,AFSA18.jpg,FS,4,num_8,32,num_4,1.7500121079,,,2017_Apr_17_1435,60.0139939019,FEMA4ImagesEEG,001,200046,
AFNE01.JPG,AFNE01.JPG,AFNE01.JPG,AFNE01.JPG,AFNE01.JPG,AFNE01.JPG,,,,,,,,,3,4,34,6,,,,,,,,,,,,,,,AFNE15.jpg,AFSA12.jpg,AFNE10.jpg,AFSA08.jpg,AFNE10.jpg,FN,3,num_2,16,num_2,1.15010589201,,,2017_Apr_17_1435,60.0139939019,FEMA4ImagesEEG,001,200046,
AFNE01.JPG,AFNE01.JPG,AFNE01.JPG,AFNE01.JPG,AFNE01.JPG,AFNE01.JPG,,,,,,,,,3,5,35,3,,,,,,,,,,,,,,,AFSA19.jpg,AFSA04.jpg,AFNE12.jpg,AFNE15.jpg,AFSA04.jpg,FS,4,num_6,16,num_6,1.483407686,,,2017_Apr_17_1435,60.0139939019,FEMA4ImagesEEG,001,200046,
AFNE01.JPG,AFNE01.JPG,AFNE01.JPG,AFNE01.JPG,AFNE01.JPG,AFNE01.JPG,,,,,,,,,3,6,36,7,,,,,,,,,,,,,,,AFNE03.jpg,AFNE09.jpg,AFSA15.jpg,AFSA11.jpg,AFSA15.jpg,FS,4,num_2,32,num_4,1.233607747,,,2017_Apr_17_1435,60.0139939019,FEMA4ImagesEEG,001,200046,
AFNE01.JPG,AFNE01.JPG,AFNE01.JPG,AFNE01.JPG,AFNE01.JPG,AFNE01.JPG,,,,,,,,,3,7,37,4,,,,,,,,,,,,,,,AFNE13.jpg,AFSA09.jpg,AFNE14.jpg,AFSA05.jpg,AFNE13.jpg,FN,3,num_8,32,num_2,2.25002060749,,,2017_Apr_17_1435,60.0139939019,FEMA4ImagesEEG,001,200046,
AFNE01.JPG,AFNE01.JPG,AFNE01.JPG,AFNE01.JPG,AFNE01.JPG,AFNE01.JPG,,,,,,,,,3,8,38,9,,,,,,,,,,,,,,,AFNE04.jpg,AFSA08.jpg,AFSA17.jpg,AFNE16.jpg,AFSA17.jpg,FS,4,num_2,32,num_8,1.11676730925,,,2017_Apr_17_1435,60.0139939019,FEMA4ImagesEEG,001,200046,
AFNE01.JPG,AFNE01.JPG,AFNE01.JPG,AFNE01.JPG,AFNE01.JPG,AFNE01.JPG,,,,,,,,,3,9,39,2,,,,,,,,,,,,,,,AFSA13.jpg,AFNE16.jpg,AFNE19.jpg,AFSA19.jpg,AFSA13.jpg,FS,4,num_8,32,num_6,1.25022363533,,,2017_Apr_17_1435,60.0139939019,FEMA4ImagesEEG,001,200046,
AFNE01.JPG,AFNE01.JPG,AFNE01.JPG,AFNE01.JPG,AFNE01.JPG,AFNE01.JPG,,,,,,,,,4,0,40,6,,,,,,,,,,,,,,,AFSA11.jpg,AFSA16.jpg,AFNE01.jpg,AFNE09.jpg,AFNE09.jpg,FN,3,num_4,32,num_8,1.30006296108,,,2017_Apr_17_1435,60.0139939019,FEMA4ImagesEEG,001,200046,
AFNE01.JPG,AFNE01.JPG,AFNE01.JPG,AFNE01.JPG,AFNE01.JPG,AFNE01.JPG,,,,,,,,,4,1,41,8,,,,,,,,,,,,,,,AFSA02.jpg,AFNE12.jpg,AFNE04.jpg,AFSA01.jpg,AFNE12.jpg,FN,3,num_6,32,num_4,0.416794989029,,,2017_Apr_17_1435,60.0139939019,FEMA4ImagesEEG,001,200046,
AFNE01.JPG,AFNE01.JPG,AFNE01.JPG,AFNE01.JPG,AFNE01.JPG,AFNE01.JPG,,,,,,,,,4,2,42,7,,,,,,,,,,,,,,,AFNE16.jpg,AFNE13.jpg,AFSA02.jpg,AFSA18.jpg,AFNE16.jpg,FN,3,num_8,32,num_6,1.86669377981,,,2017_Apr_17_1435,60.0139939019,FEMA4ImagesEEG,001,200046,
AFNE01.JPG,AFNE01.JPG,AFNE01.JPG,AFNE01.JPG,AFNE01.JPG,AFNE01.JPG,,,,,,,,,4,3,43,1,,,,,,,,,,,,,,,AFSA03.jpg,AFNE12.jpg,AFNE08.jpg,AFSA08.jpg,AFNE12.jpg,FN,3,num_6,32,num_2,1.43318443556,,,2017_Apr_17_1435,60.0139939019,FEMA4ImagesEEG,001,200046,
AFNE01.JPG,AFNE01.JPG,AFNE01.JPG,AFNE01.JPG,AFNE01.JPG,AFNE01.JPG,,,,,,,,,4,4,44,3,,,,,,,,,,,,,,,AFNE09.jpg,AFSA07.jpg,AFNE15.jpg,AFSA19.jpg,AFNE15.jpg,FN,3,num_2,16,num_2,1.45010278084,,,2017_Apr_17_1435,60.0139939019,FEMA4ImagesEEG,001,200046,
AFNE01.JPG,AFNE01.JPG,AFNE01.JPG,AFNE01.JPG,AFNE01.JPG,AFNE01.JPG,,,,,,,,,4,5,45,0,,,,,,,,,,,,,,,AFSA14.jpg,AFSA16.jpg,AFNE03.jpg,AFNE18.jpg,AFNE18.jpg,FN,3,num_4,16,num_4,1.75004674772,,,2017_Apr_17_1435,60.0139939019,FEMA4ImagesEEG,001,200046,
AFNE01.JPG,AFNE01.JPG,AFNE01.JPG,AFNE01.JPG,AFNE01.JPG,AFNE01.JPG,,,,,,,,,4,6,46,5,,,,,,,,,,,,,,,AFNE19.jpg,AFNE16.jpg,AFSA16.jpg,AFSA20.jpg,AFSA16.jpg,FS,4,num_2,32,num_8,1.38356641977,,,2017_Apr_17_1435,60.0139939019,FEMA4ImagesEEG,001,200046,
AFNE01.JPG,AFNE01.JPG,AFNE01.JPG,AFNE01.JPG,AFNE01.JPG,AFNE01.JPG,,,,,,,,,4,7,47,4,,,,,,,,,,,,,,,AFSA06.jpg,AFNE16.jpg,AFSA09.jpg,AFNE18.jpg,AFSA06.jpg,FS,4,num_8,32,num_6,1.33342527854,,,2017_Apr_17_1435,60.0139939019,FEMA4ImagesEEG,001,200046,
AFNE01.JPG,AFNE01.JPG,AFNE01.JPG,AFNE01.JPG,AFNE01.JPG,AFNE01.JPG,,,,,,,,,4,8,48,2,,,,,,,,,,,,,,,AFSA16.jpg,AFSA09.jpg,AFNE07.jpg,AFNE13.jpg,AFNE07.jpg,FN,3,num_2,32,num_4,3.1664613402,,,2017_Apr_17_1435,60.0139939019,FEMA4ImagesEEG,001,200046,
AFNE01.JPG,AFNE01.JPG,AFNE01.JPG,AFNE01.JPG,AFNE01.JPG,AFNE01.JPG,,,,,,,,,4,9,49,9,,,,,,,,,,,,,,,AFNE01.jpg,AFSA15.jpg,AFNE05.jpg,AFSA16.jpg,AFNE05.jpg,FN,3,num_2,16,num_2,0.250340384355,,,2017_Apr_17_1435,60.0139939019,FEMA4ImagesEEG,001,200046,
AFNE01.JPG,AFNE01.JPG,AFNE01.JPG,AFNE01.JPG,AFNE01.JPG,AFNE01.JPG,,,,,,,,,5,0,50,4,,,,,,,,,,,,,,,AFSA09.jpg,AFNE09.jpg,AFSA18.jpg,AFNE01.jpg,AFNE01.jpg,FN,3,num_4,32,num_6,0.850360141882,,,2017_Apr_17_1435,60.0139939019,FEMA4ImagesEEG,001,200046,
AFNE01.JPG,AFNE01.JPG,AFNE01.JPG,AFNE01.JPG,AFNE01.JPG,AFNE01.JPG,,,,,,,,,5,1,51,2,,,,,,,,,,,,,,,AFSA12.jpg,AFSA16.jpg,AFNE17.jpg,AFNE06.jpg,AFSA12.jpg,FS,4,num_8,16,num_8,1.38345384035,,,2017_Apr_17_1435,60.0139939019,FEMA4ImagesEEG,001,200046,
AFNE01.JPG,AFNE01.JPG,AFNE01.JPG,AFNE01.JPG,AFNE01.JPG,AFNE01.JPG,,,,,,,,,5,2,52,9,,,,,,,,,,,,,,,AFNE07.jpg,AFSA09.jpg,AFNE11.jpg,AFSA04.jpg,AFSA04.jpg,FS,4,num_4,32,num_6,1.35005944899,,,2017_Apr_17_1435,60.0139939019,FEMA4ImagesEEG,001,200046,
AFNE01.JPG,AFNE01.JPG,AFNE01.JPG,AFNE01.JPG,AFNE01.JPG,AFNE01.JPG,,,,,,,,,5,3,53,6,,,,,,,,,,,,,,,AFSA19.jpg,AFNE18.jpg,AFSA14.jpg,AFNE12.jpg,AFSA14.jpg,FS,4,num_2,16,num_2,1.46669525521,,,2017_Apr_17_1435,60.0139939019,FEMA4ImagesEEG,001,200046,
AFNE01.JPG,AFNE01.JPG,AFNE01.JPG,AFNE01.JPG,AFNE01.JPG,AFNE01.JPG,,,,,,,,,5,4,54,7,,,,,,,,,,,,,,,AFNE06.jpg,AFSA10.jpg,AFNE15.jpg,AFSA05.jpg,AFSA05.jpg,FS,4,num_4,16,num_4,1.21675836063,,,2017_Apr_17_1435,60.0139939019,FEMA4ImagesEEG,001,200046,
AFNE01.JPG,AFNE01.JPG,AFNE01.JPG,AFNE01.JPG,AFNE01.JPG,AFNE01.JPG,,,,,,,,,5,5,55,3,,,,,,,,,,,,,,,AFNE07.jpg,AFNE14.jpg,AFSA18.jpg,AFSA17.jpg,AFNE07.jpg,FN,3,num_8,32,num_6,1.41673116195,,,2017_Apr_17_1435,60.0139939019,FEMA4ImagesEEG,001,200046,
AFNE01.JPG,AFNE01.JPG,AFNE01.JPG,AFNE01.JPG,AFNE01.JPG,AFNE01.JPG,,,,,,,,,5,6,56,5,,,,,,,,,,,,,,,AFNE01.jpg,AFNE08.jpg,AFSA10.jpg,AFSA08.jpg,AFSA08.jpg,FS,4,num_4,32,num_2,1.35010274877,,,2017_Apr_17_1435,60.0139939019,FEMA4ImagesEEG,001,200046,
AFNE01.JPG,AFNE01.JPG,AFNE01.JPG,AFNE01.JPG,AFNE01.JPG,AFNE01.JPG,,,,,,,,,5,7,57,1,,,,,,,,,,,,,,,AFSA20.jpg,AFNE15.jpg,AFSA11.jpg,AFNE20.jpg,AFSA20.jpg,FS,4,num_8,32,num_4,1.76684930619,,,2017_Apr_17_1435,60.0139939019,FEMA4ImagesEEG,001,200046,
AFNE01.JPG,AFNE01.JPG,AFNE01.JPG,AFNE01.JPG,AFNE01.JPG,AFNE01.JPG,,,,,,,,,5,8,58,8,,,,,,,,,,,,,,,AFSA07.jpg,AFSA17.jpg,AFNE09.jpg,AFNE17.jpg,AFNE09.jpg,FN,3,num_2,16,num_2,1.43343108391,,,2017_Apr_17_1435,60.0139939019,FEMA4ImagesEEG,001,200046,
AFNE01.JPG,AFNE01.JPG,AFNE01.JPG,AFNE01.JPG,AFNE01.JPG,AFNE01.JPG,,,,,,,,,5,9,59,0,,,,,,,,,,,,,,,AFSA02.jpg,AFSA06.jpg,AFNE05.jpg,AFNE10.jpg,AFSA02.jpg,FS,4,num_8,32,num_4,0.949970155229,,,2017_Apr_17_1435,60.0139939019,FEMA4ImagesEEG,001,200046,
,,,,,,,,,,,,,,,,,,,,,,,,,,,,,,,,,,,,,,,,,,,space,2.61668792632,2017_Apr_17_1435,60.0139939019,FEMA4ImagesEEG,001,200046,
AFNE01.JPG,AFNE01.JPG,AFNE01.JPG,AFNE01.JPG,AFNE01.JPG,AFNE01.JPG,,,,,,,,,,,,,0,0,0,9,,,,,,,,,,,AMSA14.jpg,AMNE19.jpg,AMSA19.jpg,AMNE18.jpg,AMNE19.jpg,MN,1,num_6,32,num_2,0.583450697111,,,2017_Apr_17_1435,60.0139939019,FEMA4ImagesEEG,001,200046,
AFNE01.JPG,AFNE01.JPG,AFNE01.JPG,AFNE01.JPG,AFNE01.JPG,AFNE01.JPG,,,,,,,,,,,,,0,1,1,5,,,,,,,,,,,AMSA02.jpg,AMNE13.jpg,AMNE12.jpg,AMSA04.jpg,AMNE12.jpg,MN,1,num_2,32,num_6,0.566773226883,,,2017_Apr_17_1435,60.0139939019,FEMA4ImagesEEG,001,200046,
AFNE01.JPG,AFNE01.JPG,AFNE01.JPG,AFNE01.JPG,AFNE01.JPG,AFNE01.JPG,,,,,,,,,,,,,0,2,2,0,,,,,,,,,,,AMSA17.jpg,AMNE07.jpg,AMNE14.jpg,AMSA13.jpg,AMNE14.jpg,MN,1,num_2,32,num_8,0.90014237608,,,2017_Apr_17_1435,60.0139939019,FEMA4ImagesEEG,001,200046,
AFNE01.JPG,AFNE01.JPG,AFNE01.JPG,AFNE01.JPG,AFNE01.JPG,AFNE01.JPG,,,,,,,,,,,,,0,3,3,7,,,,,,,,,,,AMSA02.jpg,AMSA01.jpg,AMNE05.jpg,AMNE07.jpg,AMNE05.jpg,MN,1,num_2,32,num_6,0.366800425558,,,2017_Apr_17_1435,60.0139939019,FEMA4ImagesEEG,001,200046,
AFNE01.JPG,AFNE01.JPG,AFNE01.JPG,AFNE01.JPG,AFNE01.JPG,AFNE01.JPG,,,,,,,,,,,,,0,4,4,6,,,,,,,,,,,AMSA06.jpg,AMSA01.jpg,AMNE16.jpg,AMNE19.jpg,AMSA01.jpg,MS,2,num_6,16,num_6,1.16678207928,,,2017_Apr_17_1435,60.0139939019,FEMA4ImagesEEG,001,200046,
AFNE01.JPG,AFNE01.JPG,AFNE01.JPG,AFNE01.JPG,AFNE01.JPG,AFNE01.JPG,,,,,,,,,,,,,0,5,5,1,,,,,,,,,,,AMSA11.jpg,AMNE16.jpg,AMNE06.jpg,AMSA09.jpg,AMSA09.jpg,MS,2,num_4,32,num_2,1.33348365305,,,2017_Apr_17_1435,60.0139939019,FEMA4ImagesEEG,001,200046,
AFNE01.JPG,AFNE01.JPG,AFNE01.JPG,AFNE01.JPG,AFNE01.JPG,AFNE01.JPG,,,,,,,,,,,,,0,6,6,3,,,,,,,,,,,AMSA09.jpg,AMNE13.jpg,AMSA20.jpg,AMNE08.jpg,AMNE13.jpg,MN,1,num_6,32,num_4,1.25008860417,,,2017_Apr_17_1435,60.0139939019,FEMA4ImagesEEG,001,200046,
AFNE01.JPG,AFNE01.JPG,AFNE01.JPG,AFNE01.JPG,AFNE01.JPG,AFNE01.JPG,,,,,,,,,,,,,0,7,7,4,,,,,,,,,,,AMSA10.jpg,AMNE16.jpg,AMSA06.jpg,AMNE04.jpg,AMNE16.jpg,MN,1,num_6,32,num_2,1.43344134757,,,2017_Apr_17_1435,60.0139939019,FEMA4ImagesEEG,001,200046,
AFNE01.JPG,AFNE01.JPG,AFNE01.JPG,AFNE01.JPG,AFNE01.JPG,AFNE01.JPG,,,,,,,,,,,,,0,8,8,8,,,,,,,,,,,AMSA08.jpg,AMSA10.jpg,AMNE03.jpg,AMNE11.jpg,AMNE11.jpg,MN,1,num_4,16,num_4,1.30010209125,,,2017_Apr_17_1435,60.0139939019,FEMA4ImagesEEG,001,200046,
AFNE01.JPG,AFNE01.JPG,AFNE01.JPG,AFNE01.JPG,AFNE01.JPG,AFNE01.JPG,,,,,,,,,,,,,0,9,9,2,,,,,,,,,,,AMNE15.jpg,AMSA17.jpg,AMSA04.jpg,AMNE14.jpg,AMNE14.jpg,MN,1,num_4,32,num_6,1.58352478784,,,2017_Apr_17_1435,60.0139939019,FEMA4ImagesEEG,001,200046,
AFNE01.JPG,AFNE01.JPG,AFNE01.JPG,AFNE01.JPG,AFNE01.JPG,AFNE01.JPG,,,,,,,,,,,,,1,0,10,9,,,,,,,,,,,AMNE20.jpg,AMSA19.jpg,AMNE03.jpg,AMSA15.jpg,AMNE03.jpg,MN,1,num_2,16,num_2,1.91666043898,,,2017_Apr_17_1435,60.0139939019,FEMA4ImagesEEG,001,200046,
AFNE01.JPG,AFNE01.JPG,AFNE01.JPG,AFNE01.JPG,AFNE01.JPG,AFNE01.JPG,,,,,,,,,,,,,1,1,11,7,,,,,,,,,,,AMSA17.jpg,AMSA20.jpg,AMNE09.jpg,AMNE08.jpg,AMSA20.jpg,MS,2,num_6,48,None,,,,2017_Apr_17_1435,60.0139939019,FEMA4ImagesEEG,001,200046,
AFNE01.JPG,AFNE01.JPG,AFNE01.JPG,AFNE01.JPG,AFNE01.JPG,AFNE01.JPG,,,,,,,,,,,,,1,2,12,0,,,,,,,,,,,AMNE20.jpg,AMNE07.jpg,AMSA08.jpg,AMSA18.jpg,AMNE20.jpg,MN,1,num_8,32,num_2,1.70009997437,,,2017_Apr_17_1435,60.0139939019,FEMA4ImagesEEG,001,200046,
AFNE01.JPG,AFNE01.JPG,AFNE01.JPG,AFNE01.JPG,AFNE01.JPG,AFNE01.JPG,,,,,,,,,,,,,1,3,13,3,,,,,,,,,,,AMNE12.jpg,AMNE01.jpg,AMSA17.jpg,AMSA20.jpg,AMSA17.jpg,MS,2,num_2,32,num_4,1.3501104465,,,2017_Apr_17_1435,60.0139939019,FEMA4ImagesEEG,001,200046,
AFNE01.JPG,AFNE01.JPG,AFNE01.JPG,AFNE01.JPG,AFNE01.JPG,AFNE01.JPG,,,,,,,,,,,,,1,4,14,1,,,,,,,,,,,AMSA14.jpg,AMNE01.jpg,AMNE16.jpg,AMSA11.jpg,AMNE16.jpg,MN,1,num_2,32,num_8,1.40019257175,,,2017_Apr_17_1435,60.0139939019,FEMA4ImagesEEG,001,200046,
AFNE01.JPG,AFNE01.JPG,AFNE01.JPG,AFNE01.JPG,AFNE01.JPG,AFNE01.JPG,,,,,,,,,,,,,1,5,15,8,,,,,,,,,,,AMNE13.jpg,AMSA01.jpg,AMNE18.jpg,AMSA06.jpg,AMNE13.jpg,MN,1,num_8,32,num_2,1.36671029787,,,2017_Apr_17_1435,60.0139939019,FEMA4ImagesEEG,001,200046,
AFNE01.JPG,AFNE01.JPG,AFNE01.JPG,AFNE01.JPG,AFNE01.JPG,AFNE01.JPG,,,,,,,,,,,,,1,6,16,5,,,,,,,,,,,AMSA17.jpg,AMSA12.jpg,AMNE13.jpg,AMNE15.jpg,AMSA17.jpg,MS,2,num_8,32,num_6,1.46669493447,,,2017_Apr_17_1435,60.0139939019,FEMA4ImagesEEG,001,200046,
AFNE01.JPG,AFNE01.JPG,AFNE01.JPG,AFNE01.JPG,AFNE01.JPG,AFNE01.JPG,,,,,,,,,,,,,1,7,17,4,,,,,,,,,,,AMNE01.jpg,AMNE18.jpg,AMSA16.jpg,AMSA03.jpg,AMSA16.jpg,MS,2,num_2,16,num_2,1.48339613939,,,2017_Apr_17_1435,60.0139939019,FEMA4ImagesEEG,001,200046,
AFNE01.JPG,AFNE01.JPG,AFNE01.JPG,AFNE01.JPG,AFNE01.JPG,AFNE01.JPG,,,,,,,,,,,,,1,8,18,2,,,,,,,,,,,AMSA08.jpg,AMSA19.jpg,AMNE01.jpg,AMNE09.jpg,AMNE01.jpg,MN,1,num_2,16,num_2,1.25006166209,,,2017_Apr_17_1435,60.0139939019,FEMA4ImagesEEG,001,200046,
AFNE01.JPG,AFNE01.JPG,AFNE01.JPG,AFNE01.JPG,AFNE01.JPG,AFNE01.JPG,,,,,,,,,,,,,1,9,19,6,,,,,,,,,,,AMSA10.jpg,AMNE20.jpg,AMNE17.jpg,AMSA15.jpg,AMNE20.jpg,MN,1,num_6,16,num_6,1.61671166101,,,2017_Apr_17_1435,60.0139939019,FEMA4ImagesEEG,001,200046,
AFNE01.JPG,AFNE01.JPG,AFNE01.JPG,AFNE01.JPG,AFNE01.JPG,AFNE01.JPG,,,,,,,,,,,,,2,0,20,1,,,,,,,,,,,AMSA15.jpg,AMSA06.jpg,AMNE05.jpg,AMNE08.jpg,AMNE08.jpg,MN,1,num_4,16,num_4,1.46676004451,,,2017_Apr_17_1435,60.0139939019,FEMA4ImagesEEG,001,200046,
AFNE01.JPG,AFNE01.JPG,AFNE01.JPG,AFNE01.JPG,AFNE01.JPG,AFNE01.JPG,,,,,,,,,,,,,2,1,21,6,,,,,,,,,,,AMNE20.jpg,AMNE17.jpg,AMSA13.jpg,AMSA09.jpg,AMSA13.jpg,MS,2,num_2,32,num_8,1.23343647233,,,2017_Apr_17_1435,60.0139939019,FEMA4ImagesEEG,001,200046,
AFNE01.JPG,AFNE01.JPG,AFNE01.JPG,AFNE01.JPG,AFNE01.JPG,AFNE01.JPG,,,,,,,,,,,,,2,2,22,9,,,,,,,,,,,AMSA15.jpg,AMSA07.jpg,AMNE03.jpg,AMNE12.jpg,AMNE12.jpg,MN,1,num_4,16,num_4,1.60012463921,,,2017_Apr_17_1435,60.0139939019,FEMA4ImagesEEG,001,200046,
AFNE01.JPG,AFNE01.JPG,AFNE01.JPG,AFNE01.JPG,AFNE01.JPG,AFNE01.JPG,,,,,,,,,,,,,2,3,23,8,,,,,,,,,,,AMSA07.jpg,AMSA17.jpg,AMNE11.jpg,AMNE06.jpg,AMNE11.jpg,MN,1,num_2,16,num_2,1.91671239871,,,2017_Apr_17_1435,60.0139939019,FEMA4ImagesEEG,001,200046,
AFNE01.JPG,AFNE01.JPG,AFNE01.JPG,AFNE01.JPG,AFNE01.JPG,AFNE01.JPG,,,,,,,,,,,,,2,4,24,5,,,,,,,,,,,AMSA01.jpg,AMSA07.jpg,AMNE08.jpg,AMNE14.jpg,AMSA07.jpg,MS,2,num_6,16,num_6,1.85002753545,,,2017_Apr_17_1435,60.0139939019,FEMA4ImagesEEG,001,200046,
AFNE01.JPG,AFNE01.JPG,AFNE01.JPG,AFNE01.JPG,AFNE01.JPG,AFNE01.JPG,,,,,,,,,,,,,2,5,25,4,,,,,,,,,,,AMSA12.jpg,AMSA16.jpg,AMNE10.jpg,AMNE20.jpg,AMNE10.jpg,MN,1,num_2,32,num_4,2.34999562191,,,2017_Apr_17_1435,60.0139939019,FEMA4ImagesEEG,001,200046,
AFNE01.JPG,AFNE01.JPG,AFNE01.JPG,AFNE01.JPG,AFNE01.JPG,AFNE01.JPG,,,,,,,,,,,,,2,6,26,3,,,,,,,,,,,AMNE02.jpg,AMSA08.jpg,AMNE05.jpg,AMSA07.jpg,AMSA08.jpg,MS,2,num_6,32,num_2,1.43312349513,,,2017_Apr_17_1435,60.0139939019,FEMA4ImagesEEG,001,200046,
AFNE01.JPG,AFNE01.JPG,AFNE01.JPG,AFNE01.JPG,AFNE01.JPG,AFNE01.JPG,,,,,,,,,,,,,2,7,27,7,,,,,,,,,,,AMNE17.jpg,AMSA04.jpg,AMSA05.jpg,AMNE05.jpg,AMNE17.jpg,MN,1,num_8,32,num_4,1.4000485599,,,2017_Apr_17_1435,60.0139939019,FEMA4ImagesEEG,001,200046,
AFNE01.JPG,AFNE01.JPG,AFNE01.JPG,AFNE01.JPG,AFNE01.JPG,AFNE01.JPG,,,,,,,,,,,,,2,8,28,0,,,,,,,,,,,AMSA20.jpg,AMSA16.jpg,AMNE16.jpg,AMNE07.jpg,AMNE16.jpg,MN,1,num_2,16,num_2,1.48340993117,,,2017_Apr_17_1435,60.0139939019,FEMA4ImagesEEG,001,200046,
AFNE01.JPG,AFNE01.JPG,AFNE01.JPG,AFNE01.JPG,AFNE01.JPG,AFNE01.JPG,,,,,,,,,,,,,2,9,29,2,,,,,,,,,,,AMNE05.jpg,AMNE11.jpg,AMSA16.jpg,AMSA08.jpg,AMSA16.jpg,MS,2,num_2,32,num_8,1.51669110164,,,2017_Apr_17_1435,60.0139939019,FEMA4ImagesEEG,001,200046,
AFNE01.JPG,AFNE01.JPG,AFNE01.JPG,AFNE01.JPG,AFNE01.JPG,AFNE01.JPG,,,,,,,,,,,,,3,0,30,3,,,,,,,,,,,AMNE07.jpg,AMSA19.jpg,AMNE20.jpg,AMSA12.jpg,AMNE07.jpg,MN,1,num_8,32,num_6,1.85003298801,,,2017_Apr_17_1435,60.0139939019,FEMA4ImagesEEG,001,200046,
AFNE01.JPG,AFNE01.JPG,AFNE01.JPG,AFNE01.JPG,AFNE01.JPG,AFNE01.JPG,,,,,,,,,,,,,3,1,31,1,,,,,,,,,,,AMSA08.jpg,AMSA04.jpg,AMNE07.jpg,AMNE14.jpg,AMNE14.jpg,MN,1,num_4,32,num_8,1.65008360064,,,2017_Apr_17_1435,60.0139939019,FEMA4ImagesEEG,001,200046,
AFNE01.JPG,AFNE01.JPG,AFNE01.JPG,AFNE01.JPG,AFNE01.JPG,AFNE01.JPG,,,,,,,,,,,,,3,2,32,5,,,,,,,,,,,AMNE08.jpg,AMNE05.jpg,AMSA17.jpg,AMSA19.jpg,AMSA17.jpg,MS,2,num_2,16,num_2,1.35020827192,,,2017_Apr_17_1435,60.0139939019,FEMA4ImagesEEG,001,200046,
AFNE01.JPG,AFNE01.JPG,AFNE01.JPG,AFNE01.JPG,AFNE01.JPG,AFNE01.JPG,,,,,,,,,,,,,3,3,33,9,,,,,,,,,,,AMNE12.jpg,AMSA12.jpg,AMSA19.jpg,AMNE13.jpg,AMNE12.jpg,MN,1,num_8,32,num_4,1.96677239296,,,2017_Apr_17_1435,60.0139939019,FEMA4ImagesEEG,001,200046,
AFNE01.JPG,AFNE01.JPG,AFNE01.JPG,AFNE01.JPG,AFNE01.JPG,AFNE01.JPG,,,,,,,,,,,,,3,4,34,4,,,,,,,,,,,AMSA05.jpg,AMSA09.jpg,AMNE09.jpg,AMNE20.jpg,AMSA09.jpg,MS,2,num_6,32,num_8,1.33342784445,,,2017_Apr_17_1435,60.0139939019,FEMA4ImagesEEG,001,200046,
AFNE01.JPG,AFNE01.JPG,AFNE01.JPG,AFNE01.JPG,AFNE01.JPG,AFNE01.JPG,,,,,,,,,,,,,3,5,35,0,,,,,,,,,,,AMSA11.jpg,AMNE10.jpg,AMSA19.jpg,AMNE18.jpg,AMNE18.jpg,MN,1,num_4,16,num_4,1.55009864331,,,2017_Apr_17_1435,60.0139939019,FEMA4ImagesEEG,001,200046,
AFNE01.JPG,AFNE01.JPG,AFNE01.JPG,AFNE01.JPG,AFNE01.JPG,AFNE01.JPG,,,,,,,,,,,,,3,6,36,6,,,,,,,,,,,AMNE04.jpg,AMSA05.jpg,AMNE05.jpg,AMSA14.jpg,AMSA05.jpg,MS,2,num_6,32,num_2,1.49976890749,,,2017_Apr_17_1435,60.0139939019,FEMA4ImagesEEG,001,200046,
AFNE01.JPG,AFNE01.JPG,AFNE01.JPG,AFNE01.JPG,AFNE01.JPG,AFNE01.JPG,,,,,,,,,,,,,3,7,37,7,,,,,,,,,,,AMSA19.jpg,AMSA11.jpg,AMNE04.jpg,AMNE16.jpg,AMNE04.jpg,MN,1,num_2,32,num_6,1.31671252701,,,2017_Apr_17_1435,60.0139939019,FEMA4ImagesEEG,001,200046,
AFNE01.JPG,AFNE01.JPG,AFNE01.JPG,AFNE01.JPG,AFNE01.JPG,AFNE01.JPG,,,,,,,,,,,,,3,8,38,2,,,,,,,,,,,AMSA10.jpg,AMNE09.jpg,AMSA13.jpg,AMNE15.jpg,AMNE09.jpg,MN,1,num_6,32,num_2,1.43339612336,,,2017_Apr_17_1435,60.0139939019,FEMA4ImagesEEG,001,200046,
AFNE01.JPG,AFNE01.JPG,AFNE01.JPG,AFNE01.JPG,AFNE01.JPG,AFNE01.JPG,,,,,,,,,,,,,3,9,39,8,,,,,,,,,,,AMNE17.jpg,AMNE06.jpg,AMSA12.jpg,AMSA08.jpg,AMNE06.jpg,MN,1,num_6,32,num_4,1.80005221632,,,2017_Apr_17_1435,60.0139939019,FEMA4ImagesEEG,001,200046,
AFNE01.JPG,AFNE01.JPG,AFNE01.JPG,AFNE01.JPG,AFNE01.JPG,AFNE01.JPG,,,,,,,,,,,,,4,0,40,4,,,,,,,,,,,AMSA12.jpg,AMNE05.jpg,AMNE17.jpg,AMSA17.jpg,AMSA12.jpg,MS,2,num_8,32,num_6,0.433440064611,,,2017_Apr_17_1435,60.0139939019,FEMA4ImagesEEG,001,200046,
AFNE01.JPG,AFNE01.JPG,AFNE01.JPG,AFNE01.JPG,AFNE01.JPG,AFNE01.JPG,,,,,,,,,,,,,4,1,41,1,,,,,,,,,,,AMNE04.jpg,AMNE08.jpg,AMSA11.jpg,AMSA05.jpg,AMSA11.jpg,MS,2,num_2,32,num_8,1.31670964036,,,2017_Apr_17_1435,60.0139939019,FEMA4ImagesEEG,001,200046,
AFNE01.JPG,AFNE01.JPG,AFNE01.JPG,AFNE01.JPG,AFNE01.JPG,AFNE01.JPG,,,,,,,,,,,,,4,2,42,5,,,,,,,,,,,AMSA12.jpg,AMSA15.jpg,AMNE12.jpg,AMNE08.jpg,AMNE08.jpg,MN,1,num_4,32,num_2,1.35009023994,,,2017_Apr_17_1435,60.0139939019,FEMA4ImagesEEG,001,200046,
AFNE01.JPG,AFNE01.JPG,AFNE01.JPG,AFNE01.JPG,AFNE01.JPG,AFNE01.JPG,,,,,,,,,,,,,4,3,43,8,,,,,,,,,,,AMNE15.jpg,AMSA14.jpg,AMNE14.jpg,AMSA15.jpg,AMNE15.jpg,MN,1,num_8,32,num_4,1.4833724047,,,2017_Apr_17_1435,60.0139939019,FEMA4ImagesEEG,001,200046,
AFNE01.JPG,AFNE01.JPG,AFNE01.JPG,AFNE01.JPG,AFNE01.JPG,AFNE01.JPG,,,,,,,,,,,,,4,4,44,0,,,,,,,,,,,AMSA07.jpg,AMNE06.jpg,AMNE19.jpg,AMSA12.jpg,AMSA07.jpg,MS,2,num_8,32,num_4,3.0833385988,,,2017_Apr_17_1435,60.0139939019,FEMA4ImagesEEG,001,200046,
AFNE01.JPG,AFNE01.JPG,AFNE01.JPG,AFNE01.JPG,AFNE01.JPG,AFNE01.JPG,,,,,,,,,,,,,4,5,45,3,,,,,,,,,,,AMSA16.jpg,AMSA03.jpg,AMNE18.jpg,AMNE09.jpg,AMSA16.jpg,MS,2,num_8,32,num_2,1.56674885071,,,2017_Apr_17_1435,60.0139939019,FEMA4ImagesEEG,001,200046,
AFNE01.JPG,AFNE01.JPG,AFNE01.JPG,AFNE01.JPG,AFNE01.JPG,AFNE01.JPG,,,,,,,,,,,,,4,6,46,6,,,,,,,,,,,AMSA13.jpg,AMNE12.jpg,AMNE05.jpg,AMSA04.jpg,AMNE12.jpg,MN,1,num_6,16,num_6,2.73330416746,,,2017_Apr_17_1435,60.0139939019,FEMA4ImagesEEG,001,200046,
AFNE01.JPG,AFNE01.JPG,AFNE01.JPG,AFNE01.JPG,AFNE01.JPG,AFNE01.JPG,,,,,,,,,,,,,4,7,47,7,,,,,,,,,,,AMNE19.jpg,AMSA20.jpg,AMSA15.jpg,AMNE01.jpg,AMNE19.jpg,MN,1,num_8,32,num_6,1.51672157185,,,2017_Apr_17_1435,60.0139939019,FEMA4ImagesEEG,001,200046,
AFNE01.JPG,AFNE01.JPG,AFNE01.JPG,AFNE01.JPG,AFNE01.JPG,AFNE01.JPG,,,,,,,,,,,,,4,8,48,2,,,,,,,,,,,AMNE09.jpg,AMSA01.jpg,AMNE01.jpg,AMSA20.jpg,AMNE01.jpg,MN,1,num_2,16,num_2,1.30005622556,,,2017_Apr_17_1435,60.0139939019,FEMA4ImagesEEG,001,200046,
AFNE01.JPG,AFNE01.JPG,AFNE01.JPG,AFNE01.JPG,AFNE01.JPG,AFNE01.JPG,,,,,,,,,,,,,4,9,49,9,,,,,,,,,,,AMSA14.jpg,AMNE07.jpg,AMNE11.jpg,AMSA11.jpg,AMNE11.jpg,MN,1,num_2,32,num_4,1.38339193771,,,2017_Apr_17_1435,60.0139939019,FEMA4ImagesEEG,001,200046,
AFNE01.JPG,AFNE01.JPG,AFNE01.JPG,AFNE01.JPG,AFNE01.JPG,AFNE01.JPG,,,,,,,,,,,,,5,0,50,3,,,,,,,,,,,AMSA05.jpg,AMNE11.jpg,AMSA16.jpg,AMNE05.jpg,AMNE05.jpg,MN,1,num_4,32,num_2,1.51665902773,,,2017_Apr_17_1435,60.0139939019,FEMA4ImagesEEG,001,200046,
AFNE01.JPG,AFNE01.JPG,AFNE01.JPG,AFNE01.JPG,AFNE01.JPG,AFNE01.JPG,,,,,,,,,,,,,5,1,51,4,,,,,,,,,,,AMSA03.jpg,AMNE09.jpg,AMSA20.jpg,AMNE13.jpg,AMSA03.jpg,MS,2,num_8,16,num_8,1.85004838349,,,2017_Apr_17_1435,60.0139939019,FEMA4ImagesEEG,001,200046,
AFNE01.JPG,AFNE01.JPG,AFNE01.JPG,AFNE01.JPG,AFNE01.JPG,AFNE01.JPG,,,,,,,,,,,,,5,2,52,9,,,,,,,,,,,AMNE03.jpg,AMSA08.jpg,AMNE15.jpg,AMSA07.jpg,AMNE15.jpg,MN,1,num_2,32,num_6,1.46671032995,,,2017_Apr_17_1435,60.0139939019,FEMA4ImagesEEG,001,200046,
AFNE01.JPG,AFNE01.JPG,AFNE01.JPG,AFNE01.JPG,AFNE01.JPG,AFNE01.JPG,,,,,,,,,,,,,5,3,53,6,,,,,,,,,,,AMSA08.jpg,AMSA18.jpg,AMNE20.jpg,AMNE03.jpg,AMSA08.jpg,MS,2,num_8,32,num_6,1.266807129,,,2017_Apr_17_1435,60.0139939019,FEMA4ImagesEEG,001,200046,
AFNE01.JPG,AFNE01.JPG,AFNE01.JPG,AFNE01.JPG,AFNE01.JPG,AFNE01.JPG,,,,,,,,,,,,,5,4,54,1,,,,,,,,,,,AMNE04.jpg,AMSA15.jpg,AMNE03.jpg,AMSA13.jpg,AMSA15.jpg,MS,2,num_6,32,num_2,1.55008164413,,,2017_Apr_17_1435,60.0139939019,FEMA4ImagesEEG,001,200046,
AFNE01.JPG,AFNE01.JPG,AFNE01.JPG,AFNE01.JPG,AFNE01.JPG,AFNE01.JPG,,,,,,,,,,,,,5,5,55,5,,,,,,,,,,,AMSA17.jpg,AMSA10.jpg,AMNE11.jpg,AMNE05.jpg,AMSA10.jpg,MS,2,num_6,32,num_8,1.39992347165,,,2017_Apr_17_1435,60.0139939019,FEMA4ImagesEEG,001,200046,
AFNE01.JPG,AFNE01.JPG,AFNE01.JPG,AFNE01.JPG,AFNE01.JPG,AFNE01.JPG,,,,,,,,,,,,,5,6,56,8,,,,,,,,,,,AMNE17.jpg,AMNE07.jpg,AMSA13.jpg,AMSA06.jpg,AMNE17.jpg,MN,1,num_8,16,num_8,1.55002647701,,,2017_Apr_17_1435,60.0139939019,FEMA4ImagesEEG,001,200046,
AFNE01.JPG,AFNE01.JPG,AFNE01.JPG,AFNE01.JPG,AFNE01.JPG,AFNE01.JPG,,,,,,,,,,,,,5,7,57,0,,,,,,,,,,,AMSA18.jpg,AMSA13.jpg,AMNE07.jpg,AMNE19.jpg,AMNE19.jpg,MN,1,num_4,16,num_4,1.26675645223,,,2017_Apr_17_1435,60.0139939019,FEMA4ImagesEEG,001,200046,
AFNE01.JPG,AFNE01.JPG,AFNE01.JPG,AFNE01.JPG,AFNE01.JPG,AFNE01.JPG,,,,,,,,,,,,,5,8,58,2,,,,,,,,,,,AMSA04.jpg,AMNE12.jpg,AMSA13.jpg,AMNE09.jpg,AMSA04.jpg,MS,2,num_8,32,num_6,2.15001833024,,,2017_Apr_17_1435,60.0139939019,FEMA4ImagesEEG,001,200046,
AFNE01.JPG,AFNE01.JPG,AFNE01.JPG,AFNE01.JPG,AFNE01.JPG,AFNE01.JPG,,,,,,,,,,,,,5,9,59,7,,,,,,,,,,,AMNE14.jpg,AMSA05.jpg,AMSA03.jpg,AMNE06.jpg,AMNE06.jpg,MN,1,num_4,32,num_2,1.45005050037,,,2017_Apr_17_1435,60.0139939019,FEMA4ImagesEEG,001,200046,
,,,,,,,,,,,,,,,,,,,,,,,,,,,,,,,,,,,,,,,,,,,space,6.89970873684,2017_Apr_17_1435,60.0139939019,FEMA4ImagesEEG,001,200046,
AFNE01.JPG,AFNE01.JPG,AFNE01.JPG,AFNE01.JPG,AFNE01.JPG,AFNE01.JPG,,,,,,,,,,,,,,,,,0,0,0,0,,,,,,,AFNE09.jpg,AFSA05.jpg,AFSA08.jpg,AFNE11.jpg,AFSA08.jpg,FS,4,num_2,32,num_4,1.55008485153,,,2017_Apr_17_1435,60.0139939019,FEMA4ImagesEEG,001,200046,
AFNE01.JPG,AFNE01.JPG,AFNE01.JPG,AFNE01.JPG,AFNE01.JPG,AFNE01.JPG,,,,,,,,,,,,,,,,,0,1,1,8,,,,,,,AFNE12.jpg,AFSA11.jpg,AFNE01.jpg,AFSA20.jpg,AFSA11.jpg,FS,4,num_6,16,num_6,1.21676220949,,,2017_Apr_17_1435,60.0139939019,FEMA4ImagesEEG,001,200046,
AFNE01.JPG,AFNE01.JPG,AFNE01.JPG,AFNE01.JPG,AFNE01.JPG,AFNE01.JPG,,,,,,,,,,,,,,,,,0,2,2,2,,,,,,,AFNE11.jpg,AFNE12.jpg,AFSA10.jpg,AFSA03.jpg,AFSA03.jpg,FS,4,num_4,32,num_2,1.40006491759,,,2017_Apr_17_1435,60.0139939019,FEMA4ImagesEEG,001,200046,
AFNE01.JPG,AFNE01.JPG,AFNE01.JPG,AFNE01.JPG,AFNE01.JPG,AFNE01.JPG,,,,,,,,,,,,,,,,,0,3,3,3,,,,,,,AFSA11.jpg,AFNE08.jpg,AFSA09.jpg,AFNE15.jpg,AFSA11.jpg,FS,4,num_8,32,num_2,1.81670723482,,,2017_Apr_17_1435,60.0139939019,FEMA4ImagesEEG,001,200046,
AFNE01.JPG,AFNE01.JPG,AFNE01.JPG,AFNE01.JPG,AFNE01.JPG,AFNE01.JPG,,,,,,,,,,,,,,,,,0,4,4,1,,,,,,,AFSA04.jpg,AFSA10.jpg,AFNE01.jpg,AFNE16.jpg,AFSA04.jpg,FS,4,num_8,32,num_4,1.44977113663,,,2017_Apr_17_1435,60.0139939019,FEMA4ImagesEEG,001,200046,
AFNE01.JPG,AFNE01.JPG,AFNE01.JPG,AFNE01.JPG,AFNE01.JPG,AFNE01.JPG,,,,,,,,,,,,,,,,,0,5,5,6,,,,,,,AFNE09.jpg,AFNE15.jpg,AFSA11.jpg,AFSA20.jpg,AFNE09.jpg,FN,3,num_8,16,num_8,1.46670199073,,,2017_Apr_17_1435,60.0139939019,FEMA4ImagesEEG,001,200046,
AFNE01.JPG,AFNE01.JPG,AFNE01.JPG,AFNE01.JPG,AFNE01.JPG,AFNE01.JPG,,,,,,,,,,,,,,,,,0,6,6,9,,,,,,,AFNE01.jpg,AFNE20.jpg,AFSA04.jpg,AFSA16.jpg,AFSA04.jpg,FS,4,num_2,16,num_2,1.91678681018,,,2017_Apr_17_1435,60.0139939019,FEMA4ImagesEEG,001,200046,
AFNE01.JPG,AFNE01.JPG,AFNE01.JPG,AFNE01.JPG,AFNE01.JPG,AFNE01.JPG,,,,,,,,,,,,,,,,,0,7,7,4,,,,,,,AFNE02.jpg,AFNE04.jpg,AFSA18.jpg,AFSA07.jpg,AFNE02.jpg,FN,3,num_8,32,num_6,1.5001858683,,,2017_Apr_17_1435,60.0139939019,FEMA4ImagesEEG,001,200046,
AFNE01.JPG,AFNE01.JPG,AFNE01.JPG,AFNE01.JPG,AFNE01.JPG,AFNE01.JPG,,,,,,,,,,,,,,,,,0,8,8,7,,,,,,,AFNE11.jpg,AFSA06.jpg,AFSA11.jpg,AFNE17.jpg,AFSA11.jpg,FS,4,num_2,32,num_4,2.26708168166,,,2017_Apr_17_1435,60.0139939019,FEMA4ImagesEEG,001,200046,
AFNE01.JPG,AFNE01.JPG,AFNE01.JPG,AFNE01.JPG,AFNE01.JPG,AFNE01.JPG,,,,,,,,,,,,,,,,,0,9,9,5,,,,,,,AFSA02.jpg,AFSA05.jpg,AFNE14.jpg,AFNE17.jpg,AFSA02.jpg,FS,4,num_8,32,num_4,1.96666879424,,,2017_Apr_17_1435,60.0139939019,FEMA4ImagesEEG,001,200046,
AFNE01.JPG,AFNE01.JPG,AFNE01.JPG,AFNE01.JPG,AFNE01.JPG,AFNE01.JPG,,,,,,,,,,,,,,,,,1,0,10,8,,,,,,,AFSA16.jpg,AFSA01.jpg,AFNE10.jpg,AFNE18.jpg,AFNE10.jpg,FN,3,num_2,32,num_4,1.66670846966,,,2017_Apr_17_1435,60.0139939019,FEMA4ImagesEEG,001,200046,
AFNE01.JPG,AFNE01.JPG,AFNE01.JPG,AFNE01.JPG,AFNE01.JPG,AFNE01.JPG,,,,,,,,,,,,,,,,,1,1,11,2,,,,,,,AFNE01.jpg,AFNE18.jpg,AFSA15.jpg,AFSA20.jpg,AFSA15.jpg,FS,4,num_2,32,num_8,1.68335931854,,,2017_Apr_17_1435,60.0139939019,FEMA4ImagesEEG,001,200046,
AFNE01.JPG,AFNE01.JPG,AFNE01.JPG,AFNE01.JPG,AFNE01.JPG,AFNE01.JPG,,,,,,,,,,,,,,,,,1,2,12,9,,,,,,,AFNE16.jpg,AFSA01.jpg,AFSA16.jpg,AFNE13.jpg,AFSA16.jpg,FS,4,num_2,16,num_2,1.40008127528,,,2017_Apr_17_1435,60.0139939019,FEMA4ImagesEEG,001,200046,
AFNE01.JPG,AFNE01.JPG,AFNE01.JPG,AFNE01.JPG,AFNE01.JPG,AFNE01.JPG,,,,,,,,,,,,,,,,,1,3,13,5,,,,,,,AFSA15.jpg,AFSA03.jpg,AFNE12.jpg,AFNE20.jpg,AFNE20.jpg,FN,3,num_4,32,num_6,1.21674777623,,,2017_Apr_17_1435,60.0139939019,FEMA4ImagesEEG,001,200046,
AFNE01.JPG,AFNE01.JPG,AFNE01.JPG,AFNE01.JPG,AFNE01.JPG,AFNE01.JPG,,,,,,,,,,,,,,,,,1,4,14,3,,,,,,,AFSA03.jpg,AFNE17.jpg,AFSA11.jpg,AFNE20.jpg,AFNE17.jpg,FN,3,num_6,32,num_4,1.28343199802,,,2017_Apr_17_1435,60.0139939019,FEMA4ImagesEEG,001,200046,
AFNE01.JPG,AFNE01.JPG,AFNE01.JPG,AFNE01.JPG,AFNE01.JPG,AFNE01.JPG,,,,,,,,,,,,,,,,,1,5,15,4,,,,,,,AFSA17.jpg,AFSA05.jpg,AFNE13.jpg,AFNE09.jpg,AFNE09.jpg,FN,3,num_4,32,num_8,0.383434916748,,,2017_Apr_17_1435,60.0139939019,FEMA4ImagesEEG,001,200046,
AFNE01.JPG,AFNE01.JPG,AFNE01.JPG,AFNE01.JPG,AFNE01.JPG,AFNE01.JPG,,,,,,,,,,,,,,,,,1,6,16,7,,,,,,,AFNE19.jpg,AFSA19.jpg,AFNE14.jpg,AFSA12.jpg,AFSA12.jpg,FS,4,num_4,16,num_4,1.7001756688,,,2017_Apr_17_1435,60.0139939019,FEMA4ImagesEEG,001,200046,
AFNE01.JPG,AFNE01.JPG,AFNE01.JPG,AFNE01.JPG,AFNE01.JPG,AFNE01.JPG,,,,,,,,,,,,,,,,,1,7,17,6,,,,,,,AFNE10.jpg,AFNE18.jpg,AFSA14.jpg,AFSA18.jpg,AFNE18.jpg,FN,3,num_6,32,num_2,2.65000020848,,,2017_Apr_17_1435,60.0139939019,FEMA4ImagesEEG,001,200046,
AFNE01.JPG,AFNE01.JPG,AFNE01.JPG,AFNE01.JPG,AFNE01.JPG,AFNE01.JPG,,,,,,,,,,,,,,,,,1,8,18,0,,,,,,,AFSA10.jpg,AFSA15.jpg,AFNE16.jpg,AFNE01.jpg,AFNE01.jpg,FN,3,num_4,32,num_6,0.100163288269,,,2017_Apr_17_1435,60.0139939019,FEMA4ImagesEEG,001,200046,
AFNE01.JPG,AFNE01.JPG,AFNE01.JPG,AFNE01.JPG,AFNE01.JPG,AFNE01.JPG,,,,,,,,,,,,,,,,,1,9,19,1,,,,,,,AFNE05.jpg,AFNE08.jpg,AFSA18.jpg,AFSA07.jpg,AFSA18.jpg,FS,4,num_2,32,num_8,3.59990525367,,,2017_Apr_17_1435,60.0139939019,FEMA4ImagesEEG,001,200046,
AFNE01.JPG,AFNE01.JPG,AFNE01.JPG,AFNE01.JPG,AFNE01.JPG,AFNE01.JPG,,,,,,,,,,,,,,,,,2,0,20,0,,,,,,,AFNE05.jpg,AFSA20.jpg,AFNE17.jpg,AFSA05.jpg,AFSA05.jpg,FS,4,num_4,32,num_2,1.25006679391,,,2017_Apr_17_1435,60.0139939019,FEMA4ImagesEEG,001,200046,
AFNE01.JPG,AFNE01.JPG,AFNE01.JPG,AFNE01.JPG,AFNE01.JPG,AFNE01.JPG,,,,,,,,,,,,,,,,,2,1,21,2,,,,,,,AFSA03.jpg,AFSA01.jpg,AFNE09.jpg,AFNE15.jpg,AFNE09.jpg,FN,3,num_2,32,num_4,0.600162165683,,,2017_Apr_17_1435,60.0139939019,FEMA4ImagesEEG,001,200046,
AFNE01.JPG,AFNE01.JPG,AFNE01.JPG,AFNE01.JPG,AFNE01.JPG,AFNE01.JPG,,,,,,,,,,,,,,,,,2,2,22,6,,,,,,,AFSA15.jpg,AFNE01.jpg,AFNE14.jpg,AFSA08.jpg,AFSA15.jpg,FS,4,num_8,16,num_8,1.50006751558,,,2017_Apr_17_1435,60.0139939019,FEMA4ImagesEEG,001,200046,
AFNE01.JPG,AFNE01.JPG,AFNE01.JPG,AFNE01.JPG,AFNE01.JPG,AFNE01.JPG,,,,,,,,,,,,,,,,,2,3,23,9,,,,,,,AFSA08.jpg,AFNE03.jpg,AFNE20.jpg,AFSA03.jpg,AFNE03.jpg,FN,3,num_6,32,num_4,1.36669586462,,,2017_Apr_17_1435,60.0139939019,FEMA4ImagesEEG,001,200046,
AFNE01.JPG,AFNE01.JPG,AFNE01.JPG,AFNE01.JPG,AFNE01.JPG,AFNE01.JPG,,,,,,,,,,,,,,,,,2,4,24,3,,,,,,,AFSA19.jpg,AFNE18.jpg,AFNE17.jpg,AFSA17.jpg,AFNE17.jpg,FN,3,num_2,32,num_8,0.816956769824,,,2017_Apr_17_1435,60.0139939019,FEMA4ImagesEEG,001,200046,
AFNE01.JPG,AFNE01.JPG,AFNE01.JPG,AFNE01.JPG,AFNE01.JPG,AFNE01.JPG,,,,,,,,,,,,,,,,,2,5,25,1,,,,,,,AFSA09.jpg,AFNE17.jpg,AFSA08.jpg,AFNE04.jpg,AFSA09.jpg,FS,4,num_8,32,num_6,1.91669636176,,,2017_Apr_17_1435,60.0139939019,FEMA4ImagesEEG,001,200046,
AFNE01.JPG,AFNE01.JPG,AFNE01.JPG,AFNE01.JPG,AFNE01.JPG,AFNE01.JPG,,,,,,,,,,,,,,,,,2,6,26,8,,,,,,,AFSA09.jpg,AFNE02.jpg,AFSA13.jpg,AFNE06.jpg,AFSA13.jpg,FS,4,num_2,32,num_8,4.01678844595,,,2017_Apr_17_1435,60.0139939019,FEMA4ImagesEEG,001,200046,
AFNE01.JPG,AFNE01.JPG,AFNE01.JPG,AFNE01.JPG,AFNE01.JPG,AFNE01.JPG,,,,,,,,,,,,,,,,,2,7,27,5,,,,,,,AFSA01.jpg,AFSA16.jpg,AFNE09.jpg,AFNE11.jpg,AFSA16.jpg,FS,4,num_6,32,num_4,2.36660605767,,,2017_Apr_17_1435,60.0139939019,FEMA4ImagesEEG,001,200046,
AFNE01.JPG,AFNE01.JPG,AFNE01.JPG,AFNE01.JPG,AFNE01.JPG,AFNE01.JPG,,,,,,,,,,,,,,,,,2,8,28,7,,,,,,,AFSA06.jpg,AFSA07.jpg,AFNE03.jpg,AFNE04.jpg,AFSA06.jpg,FS,4,num_8,32,num_2,1.3000918276,,,2017_Apr_17_1435,60.0139939019,FEMA4ImagesEEG,001,200046,
AFNE01.JPG,AFNE01.JPG,AFNE01.JPG,AFNE01.JPG,AFNE01.JPG,AFNE01.JPG,,,,,,,,,,,,,,,,,2,9,29,4,,,,,,,AFSA04.jpg,AFSA11.jpg,AFNE17.jpg,AFNE09.jpg,AFSA11.jpg,FS,4,num_6,32,num_2,1.73341001136,,,2017_Apr_17_1435,60.0139939019,FEMA4ImagesEEG,001,200046,
AFNE01.JPG,AFNE01.JPG,AFNE01.JPG,AFNE01.JPG,AFNE01.JPG,AFNE01.JPG,,,,,,,,,,,,,,,,,3,0,30,2,,,,,,,AFSA06.jpg,AFSA07.jpg,AFNE11.jpg,AFNE10.jpg,AFSA07.jpg,FS,4,num_6,16,num_6,1.38345223666,,,2017_Apr_17_1435,60.0139939019,FEMA4ImagesEEG,001,200046,
AFNE01.JPG,AFNE01.JPG,AFNE01.JPG,AFNE01.JPG,AFNE01.JPG,AFNE01.JPG,,,,,,,,,,,,,,,,,3,1,31,6,,,,,,,AFNE18.jpg,AFNE01.jpg,AFSA20.jpg,AFSA12.jpg,AFSA12.jpg,FS,4,num_4,16,num_4,1.71668507175,,,2017_Apr_17_1435,60.0139939019,FEMA4ImagesEEG,001,200046,
AFNE01.JPG,AFNE01.JPG,AFNE01.JPG,AFNE01.JPG,AFNE01.JPG,AFNE01.JPG,,,,,,,,,,,,,,,,,3,2,32,7,,,,,,,AFSA13.jpg,AFNE07.jpg,AFNE01.jpg,AFSA18.jpg,AFSA18.jpg,FS,4,num_4,32,num_2,1.53347601946,,,2017_Apr_17_1435,60.0139939019,FEMA4ImagesEEG,001,200046,
AFNE01.JPG,AFNE01.JPG,AFNE01.JPG,AFNE01.JPG,AFNE01.JPG,AFNE01.JPG,,,,,,,,,,,,,,,,,3,3,33,4,,,,,,,AFNE17.jpg,AFSA19.jpg,AFSA11.jpg,AFNE20.jpg,AFNE17.jpg,FN,3,num_8,32,num_2,1.56644928041,,,2017_Apr_17_1435,60.0139939019,FEMA4ImagesEEG,001,200046,
AFNE01.JPG,AFNE01.JPG,AFNE01.JPG,AFNE01.JPG,AFNE01.JPG,AFNE01.JPG,,,,,,,,,,,,,,,,,3,4,34,1,,,,,,,AFSA05.jpg,AFNE04.jpg,AFNE14.jpg,AFSA02.jpg,AFNE04.jpg,FN,3,num_6,32,num_4,1.76667739004,,,2017_Apr_17_1435,60.0139939019,FEMA4ImagesEEG,001,200046,
AFNE01.JPG,AFNE01.JPG,AFNE01.JPG,AFNE01.JPG,AFNE01.JPG,AFNE01.JPG,,,,,,,,,,,,,,,,,3,5,35,8,,,,,,,AFNE18.jpg,AFSA05.jpg,AFNE15.jpg,AFSA08.jpg,AFNE15.jpg,FN,3,num_2,16,num_2,1.89992972607,,,2017_Apr_17_1435,60.0139939019,FEMA4ImagesEEG,001,200046,
AFNE01.JPG,AFNE01.JPG,AFNE01.JPG,AFNE01.JPG,AFNE01.JPG,AFNE01.JPG,,,,,,,,,,,,,,,,,3,6,36,5,,,,,,,AFSA18.jpg,AFNE16.jpg,AFNE01.jpg,AFSA16.jpg,AFSA18.jpg,FS,4,num_8,32,num_4,1.76672229352,,,2017_Apr_17_1435,60.0139939019,FEMA4ImagesEEG,001,200046,
AFNE01.JPG,AFNE01.JPG,AFNE01.JPG,AFNE01.JPG,AFNE01.JPG,AFNE01.JPG,,,,,,,,,,,,,,,,,3,7,37,0,,,,,,,AFSA01.jpg,AFNE09.jpg,AFSA14.jpg,AFNE04.jpg,AFSA01.jpg,FS,4,num_8,16,num_8,1.41671704943,,,2017_Apr_17_1435,60.0139939019,FEMA4ImagesEEG,001,200046,
AFNE01.JPG,AFNE01.JPG,AFNE01.JPG,AFNE01.JPG,AFNE01.JPG,AFNE01.JPG,,,,,,,,,,,,,,,,,3,8,38,3,,,,,,,AFNE05.jpg,AFNE06.jpg,AFSA09.jpg,AFSA06.jpg,AFSA09.jpg,FS,4,num_2,16,num_2,0.600094168996,,,2017_Apr_17_1435,60.0139939019,FEMA4ImagesEEG,001,200046,
AFNE01.JPG,AFNE01.JPG,AFNE01.JPG,AFNE01.JPG,AFNE01.JPG,AFNE01.JPG,,,,,,,,,,,,,,,,,3,9,39,9,,,,,,,AFNE12.jpg,AFSA02.jpg,AFNE04.jpg,AFSA16.jpg,AFNE04.jpg,FN,3,num_2,32,num_6,1.11672946203,,,2017_Apr_17_1435,60.0139939019,FEMA4ImagesEEG,001,200046,
AFNE01.JPG,AFNE01.JPG,AFNE01.JPG,AFNE01.JPG,AFNE01.JPG,AFNE01.JPG,,,,,,,,,,,,,,,,,4,0,40,2,,,,,,,AFNE16.jpg,AFSA13.jpg,AFNE06.jpg,AFSA05.jpg,AFSA05.jpg,FS,4,num_4,32,num_8,1.16678207928,,,2017_Apr_17_1435,60.0139939019,FEMA4ImagesEEG,001,200046,
AFNE01.JPG,AFNE01.JPG,AFNE01.JPG,AFNE01.JPG,AFNE01.JPG,AFNE01.JPG,,,,,,,,,,,,,,,,,4,1,41,0,,,,,,,AFNE08.jpg,AFSA10.jpg,AFNE04.jpg,AFSA18.jpg,AFNE04.jpg,FN,3,num_2,16,num_2,1.55002615627,,,2017_Apr_17_1435,60.0139939019,FEMA4ImagesEEG,001,200046,
AFNE01.JPG,AFNE01.JPG,AFNE01.JPG,AFNE01.JPG,AFNE01.JPG,AFNE01.JPG,,,,,,,,,,,,,,,,,4,2,42,9,,,,,,,AFSA16.jpg,AFNE05.jpg,AFSA20.jpg,AFNE15.jpg,AFNE15.jpg,FN,3,num_4,16,num_4,1.25009694339,,,2017_Apr_17_1435,60.0139939019,FEMA4ImagesEEG,001,200046,
AFNE01.JPG,AFNE01.JPG,AFNE01.JPG,AFNE01.JPG,AFNE01.JPG,AFNE01.JPG,,,,,,,,,,,,,,,,,4,3,43,7,,,,,,,AFNE12.jpg,AFSA04.jpg,AFSA07.jpg,AFNE16.jpg,AFNE16.jpg,FN,3,num_4,16,num_4,1.716420462,,,2017_Apr_17_1435,60.0139939019,FEMA4ImagesEEG,001,200046,
AFNE01.JPG,AFNE01.JPG,AFNE01.JPG,AFNE01.JPG,AFNE01.JPG,AFNE01.JPG,,,,,,,,,,,,,,,,,4,4,44,4,,,,,,,AFNE18.jpg,AFSA14.jpg,AFSA02.jpg,AFNE01.jpg,AFSA14.jpg,FS,4,num_6,32,num_2,1.38348527279,,,2017_Apr_17_1435,60.0139939019,FEMA4ImagesEEG,001,200046,
AFNE01.JPG,AFNE01.JPG,AFNE01.JPG,AFNE01.JPG,AFNE01.JPG,AFNE01.JPG,,,,,,,,,,,,,,,,,4,5,45,6,,,,,,,AFSA17.jpg,AFNE20.jpg,AFSA06.jpg,AFNE07.jpg,AFNE07.jpg,FN,3,num_4,32,num_6,1.46670166999,,,2017_Apr_17_1435,60.0139939019,FEMA4ImagesEEG,001,200046,
AFNE01.JPG,AFNE01.JPG,AFNE01.JPG,AFNE01.JPG,AFNE01.JPG,AFNE01.JPG,,,,,,,,,,,,,,,,,4,6,46,8,,,,,,,AFSA15.jpg,AFSA11.jpg,AFNE02.jpg,AFNE07.jpg,AFSA15.jpg,FS,4,num_8,32,num_2,2.10002248381,,,2017_Apr_17_1435,60.0139939019,FEMA4ImagesEEG,001,200046,
AFNE01.JPG,AFNE01.JPG,AFNE01.JPG,AFNE01.JPG,AFNE01.JPG,AFNE01.JPG,,,,,,,,,,,,,,,,,4,7,47,3,,,,,,,AFNE07.jpg,AFSA03.jpg,AFSA01.jpg,AFNE12.jpg,AFNE12.jpg,FN,3,num_4,32,num_8,1.53342021086,,,2017_Apr_17_1435,60.0139939019,FEMA4ImagesEEG,001,200046,
AFNE01.JPG,AFNE01.JPG,AFNE01.JPG,AFNE01.JPG,AFNE01.JPG,AFNE01.JPG,,,,,,,,,,,,,,,,,4,8,48,5,,,,,,,AFSA05.jpg,AFNE03.jpg,AFSA15.jpg,AFNE08.jpg,AFNE08.jpg,FN,3,num_4,16,num_4,1.33344740954,,,2017_Apr_17_1435,60.0139939019,FEMA4ImagesEEG,001,200046,
AFNE01.JPG,AFNE01.JPG,AFNE01.JPG,AFNE01.JPG,AFNE01.JPG,AFNE01.JPG,,,,,,,,,,,,,,,,,4,9,49,1,,,,,,,AFNE14.jpg,AFSA18.jpg,AFSA20.jpg,AFNE15.jpg,AFSA20.jpg,FS,4,num_2,32,num_6,1.56669240063,,,2017_Apr_17_1435,60.0139939019,FEMA4ImagesEEG,001,200046,
AFNE01.JPG,AFNE01.JPG,AFNE01.JPG,AFNE01.JPG,AFNE01.JPG,AFNE01.JPG,,,,,,,,,,,,,,,,,5,0,50,3,,,,,,,AFNE14.jpg,AFSA05.jpg,AFSA04.jpg,AFNE20.jpg,AFSA04.jpg,FS,4,num_2,32,num_4,1.55019967612,,,2017_Apr_17_1435,60.0139939019,FEMA4ImagesEEG,001,200046,
AFNE01.JPG,AFNE01.JPG,AFNE01.JPG,AFNE01.JPG,AFNE01.JPG,AFNE01.JPG,,,,,,,,,,,,,,,,,5,1,51,8,,,,,,,AFSA08.jpg,AFNE10.jpg,AFSA17.jpg,AFNE15.jpg,AFNE15.jpg,FN,3,num_4,16,num_4,1.28343937502,,,2017_Apr_17_1435,60.0139939019,FEMA4ImagesEEG,001,200046,
AFNE01.JPG,AFNE01.JPG,AFNE01.JPG,AFNE01.JPG,AFNE01.JPG,AFNE01.JPG,,,,,,,,,,,,,,,,,5,2,52,2,,,,,,,AFSA01.jpg,AFNE09.jpg,AFNE02.jpg,AFSA03.jpg,AFSA03.jpg,FS,4,num_4,32,num_8,1.46656984623,,,2017_Apr_17_1435,60.0139939019,FEMA4ImagesEEG,001,200046,
AFNE01.JPG,AFNE01.JPG,AFNE01.JPG,AFNE01.JPG,AFNE01.JPG,AFNE01.JPG,,,,,,,,,,,,,,,,,5,3,53,9,,,,,,,AFNE05.jpg,AFNE09.jpg,AFSA02.jpg,AFSA05.jpg,AFNE09.jpg,FN,3,num_6,16,num_6,1.34977527416,,,2017_Apr_17_1435,60.0139939019,FEMA4ImagesEEG,001,200046,
AFNE01.JPG,AFNE01.JPG,AFNE01.JPG,AFNE01.JPG,AFNE01.JPG,AFNE01.JPG,,,,,,,,,,,,,,,,,5,4,54,4,,,,,,,AFSA02.jpg,AFNE11.jpg,AFNE10.jpg,AFSA03.jpg,AFNE11.jpg,FN,3,num_6,16,num_6,1.33341661858,,,2017_Apr_17_1435,60.0139939019,FEMA4ImagesEEG,001,200046,
AFNE01.JPG,AFNE01.JPG,AFNE01.JPG,AFNE01.JPG,AFNE01.JPG,AFNE01.JPG,,,,,,,,,,,,,,,,,5,5,55,1,,,,,,,AFNE13.jpg,AFSA02.jpg,AFSA13.jpg,AFNE16.jpg,AFNE13.jpg,FN,3,num_8,16,num_8,1.51672317555,,,2017_Apr_17_1435,60.0139939019,FEMA4ImagesEEG,001,200046,
AFNE01.JPG,AFNE01.JPG,AFNE01.JPG,AFNE01.JPG,AFNE01.JPG,AFNE01.JPG,,,,,,,,,,,,,,,,,5,6,56,6,,,,,,,AFSA05.jpg,AFNE16.jpg,AFSA07.jpg,AFNE08.jpg,AFNE16.jpg,FN,3,num_6,32,num_2,1.55007619157,,,2017_Apr_17_1435,60.0139939019,FEMA4ImagesEEG,001,200046,
AFNE01.JPG,AFNE01.JPG,AFNE01.JPG,AFNE01.JPG,AFNE01.JPG,AFNE01.JPG,,,,,,,,,,,,,,,,,5,7,57,5,,,,,,,AFNE17.jpg,AFSA14.jpg,AFSA01.jpg,AFNE08.jpg,AFNE08.jpg,FN,3,num_4,16,num_4,1.21669421281,,,2017_Apr_17_1435,60.0139939019,FEMA4ImagesEEG,001,200046,
AFNE01.JPG,AFNE01.JPG,AFNE01.JPG,AFNE01.JPG,AFNE01.JPG,AFNE01.JPG,,,,,,,,,,,,,,,,,5,8,58,0,,,,,,,AFNE02.jpg,AFSA04.jpg,AFSA02.jpg,AFNE16.jpg,AFSA04.jpg,FS,4,num_6,32,num_8,1.70005924051,,,2017_Apr_17_1435,60.0139939019,FEMA4ImagesEEG,001,200046,
AFNE01.JPG,AFNE01.JPG,AFNE01.JPG,AFNE01.JPG,AFNE01.JPG,AFNE01.JPG,,,,,,,,,,,,,,,,,5,9,59,7,,,,,,,AFNE05.jpg,AFSA13.jpg,AFSA06.jpg,AFNE17.jpg,AFSA13.jpg,FS,4,num_6,32,num_4,2.01667105545,,,2017_Apr_17_1435,60.0139939019,FEMA4ImagesEEG,001,200046,
,,,,,,,,,,,,,,,,,,,,,,,,,,,,,,,,,,,,,,,,,,,space,7.06630639114,2017_Apr_17_1435,60.0139939019,FEMA4ImagesEEG,001,200046,
AFNE01.JPG,AFNE01.JPG,AFNE01.JPG,AFNE01.JPG,AFNE01.JPG,AFNE01.JPG,,,,,,,,,,,,,,,,,,,,,0,0,0,3,,,AMNE15.jpg,AMSA06.jpg,AMSA10.jpg,AMNE08.jpg,AMSA06.jpg,MS,2,num_6,16,num_6,2.51662663308,,,2017_Apr_17_1435,60.0139939019,FEMA4ImagesEEG,001,200046,
AFNE01.JPG,AFNE01.JPG,AFNE01.JPG,AFNE01.JPG,AFNE01.JPG,AFNE01.JPG,,,,,,,,,,,,,,,,,,,,,0,1,1,2,,,AMNE14.jpg,AMNE05.jpg,AMSA04.jpg,AMSA19.jpg,AMNE05.jpg,MN,1,num_6,32,num_4,1.36671735413,,,2017_Apr_17_1435,60.0139939019,FEMA4ImagesEEG,001,200046,
AFNE01.JPG,AFNE01.JPG,AFNE01.JPG,AFNE01.JPG,AFNE01.JPG,AFNE01.JPG,,,,,,,,,,,,,,,,,,,,,0,2,2,7,,,AMNE02.jpg,AMNE15.jpg,AMSA08.jpg,AMSA13.jpg,AMNE02.jpg,MN,1,num_8,32,num_2,1.66674375096,,,2017_Apr_17_1435,60.0139939019,FEMA4ImagesEEG,001,200046,
AFNE01.JPG,AFNE01.JPG,AFNE01.JPG,AFNE01.JPG,AFNE01.JPG,AFNE01.JPG,,,,,,,,,,,,,,,,,,,,,0,3,3,0,,,AMSA19.jpg,AMSA05.jpg,AMNE19.jpg,AMNE11.jpg,AMNE11.jpg,MN,1,num_4,32,num_8,1.68344463514,,,2017_Apr_17_1435,60.0139939019,FEMA4ImagesEEG,001,200046,
AFNE01.JPG,AFNE01.JPG,AFNE01.JPG,AFNE01.JPG,AFNE01.JPG,AFNE01.JPG,,,,,,,,,,,,,,,,,,,,,0,4,4,6,,,AMSA19.jpg,AMNE13.jpg,AMSA07.jpg,AMNE17.jpg,AMSA07.jpg,MS,2,num_2,32,num_6,0.516855320051,,,2017_Apr_17_1435,60.0139939019,FEMA4ImagesEEG,001,200046,
AFNE01.JPG,AFNE01.JPG,AFNE01.JPG,AFNE01.JPG,AFNE01.JPG,AFNE01.JPG,,,,,,,,,,,,,,,,,,,,,0,5,5,1,,,AMSA02.jpg,AMSA04.jpg,AMNE14.jpg,AMNE11.jpg,AMNE14.jpg,MN,1,num_2,32,num_8,0.800103534577,,,2017_Apr_17_1435,60.0139939019,FEMA4ImagesEEG,001,200046,
AFNE01.JPG,AFNE01.JPG,AFNE01.JPG,AFNE01.JPG,AFNE01.JPG,AFNE01.JPG,,,,,,,,,,,,,,,,,,,,,0,6,6,4,,,AMSA03.jpg,AMNE01.jpg,AMSA07.jpg,AMNE13.jpg,AMSA07.jpg,MS,2,num_2,32,num_4,0.883497941979,,,2017_Apr_17_1435,60.0139939019,FEMA4ImagesEEG,001,200046,
AFNE01.JPG,AFNE01.JPG,AFNE01.JPG,AFNE01.JPG,AFNE01.JPG,AFNE01.JPG,,,,,,,,,,,,,,,,,,,,,0,7,7,9,,,AMSA09.jpg,AMNE20.jpg,AMSA08.jpg,AMNE13.jpg,AMSA08.jpg,MS,2,num_2,16,num_2,1.28340922555,,,2017_Apr_17_1435,60.0139939019,FEMA4ImagesEEG,001,200046,
AFNE01.JPG,AFNE01.JPG,AFNE01.JPG,AFNE01.JPG,AFNE01.JPG,AFNE01.JPG,,,,,,,,,,,,,,,,,,,,,0,8,8,8,,,AMNE07.jpg,AMSA13.jpg,AMSA17.jpg,AMNE20.jpg,AMSA13.jpg,MS,2,num_6,16,num_6,0.600140034685,,,2017_Apr_17_1435,60.0139939019,FEMA4ImagesEEG,001,200046,
AFNE01.JPG,AFNE01.JPG,AFNE01.JPG,AFNE01.JPG,AFNE01.JPG,AFNE01.JPG,,,,,,,,,,,,,,,,,,,,,0,9,9,5,,,AMSA16.jpg,AMSA20.jpg,AMNE18.jpg,AMNE05.jpg,AMNE18.jpg,MN,1,num_2,16,num_2,1.35009986211,,,2017_Apr_17_1435,60.0139939019,FEMA4ImagesEEG,001,200046,
AFNE01.JPG,AFNE01.JPG,AFNE01.JPG,AFNE01.JPG,AFNE01.JPG,AFNE01.JPG,,,,,,,,,,,,,,,,,,,,,1,0,10,8,,,AMSA19.jpg,AMSA07.jpg,AMNE10.jpg,AMNE01.jpg,AMSA19.jpg,MS,2,num_8,16,num_8,1.03353551656,,,2017_Apr_17_1435,60.0139939019,FEMA4ImagesEEG,001,200046,
AFNE01.JPG,AFNE01.JPG,AFNE01.JPG,AFNE01.JPG,AFNE01.JPG,AFNE01.JPG,,,,,,,,,,,,,,,,,,,,,1,1,11,3,,,AMSA10.jpg,AMNE13.jpg,AMSA19.jpg,AMNE05.jpg,AMSA10.jpg,MS,2,num_8,32,num_6,1.21677279388,,,2017_Apr_17_1435,60.0139939019,FEMA4ImagesEEG,001,200046,
AFNE01.JPG,AFNE01.JPG,AFNE01.JPG,AFNE01.JPG,AFNE01.JPG,AFNE01.JPG,,,,,,,,,,,,,,,,,,,,,1,2,12,5,,,AMNE12.jpg,AMSA14.jpg,AMNE19.jpg,AMSA01.jpg,AMSA14.jpg,MS,2,num_6,16,num_6,1.3497829719,,,2017_Apr_17_1435,60.0139939019,FEMA4ImagesEEG,001,200046,
AFNE01.JPG,AFNE01.JPG,AFNE01.JPG,AFNE01.JPG,AFNE01.JPG,AFNE01.JPG,,,,,,,,,,,,,,,,,,,,,1,3,13,9,,,AMNE08.jpg,AMSA19.jpg,AMNE16.jpg,AMSA08.jpg,AMSA08.jpg,MS,2,num_4,16,num_4,1.90012152804,,,2017_Apr_17_1435,60.0139939019,FEMA4ImagesEEG,001,200046,
AFNE01.JPG,AFNE01.JPG,AFNE01.JPG,AFNE01.JPG,AFNE01.JPG,AFNE01.JPG,,,,,,,,,,,,,,,,,,,,,1,4,14,7,,,AMSA05.jpg,AMNE15.jpg,AMNE07.jpg,AMSA06.jpg,AMSA05.jpg,MS,2,num_8,32,num_2,1.20010237991,,,2017_Apr_17_1435,60.0139939019,FEMA4ImagesEEG,001,200046,
AFNE01.JPG,AFNE01.JPG,AFNE01.JPG,AFNE01.JPG,AFNE01.JPG,AFNE01.JPG,,,,,,,,,,,,,,,,,,,,,1,5,15,0,,,AMSA09.jpg,AMSA10.jpg,AMNE18.jpg,AMNE08.jpg,AMSA09.jpg,MS,2,num_8,32,num_4,0.950090432385,,,2017_Apr_17_1435,60.0139939019,FEMA4ImagesEEG,001,200046,
AFNE01.JPG,AFNE01.JPG,AFNE01.JPG,AFNE01.JPG,AFNE01.JPG,AFNE01.JPG,,,,,,,,,,,,,,,,,,,,,1,6,16,1,,,AMSA08.jpg,AMNE08.jpg,AMNE10.jpg,AMSA02.jpg,AMNE10.jpg,MN,1,num_2,32,num_6,0.366814217337,,,2017_Apr_17_1435,60.0139939019,FEMA4ImagesEEG,001,200046,
AFNE01.JPG,AFNE01.JPG,AFNE01.JPG,AFNE01.JPG,AFNE01.JPG,AFNE01.JPG,,,,,,,,,,,,,,,,,,,,,1,7,17,2,,,AMSA18.jpg,AMNE18.jpg,AMSA06.jpg,AMNE15.jpg,AMNE18.jpg,MN,1,num_6,32,num_4,0.716783217904,,,2017_Apr_17_1435,60.0139939019,FEMA4ImagesEEG,001,200046,
AFNE01.JPG,AFNE01.JPG,AFNE01.JPG,AFNE01.JPG,AFNE01.JPG,AFNE01.JPG,,,,,,,,,,,,,,,,,,,,,1,8,18,6,,,AMNE06.jpg,AMSA19.jpg,AMSA17.jpg,AMNE09.jpg,AMNE06.jpg,MN,1,num_8,32,num_6,0.816630898913,,,2017_Apr_17_1435,60.0139939019,FEMA4ImagesEEG,001,200046,
AFNE01.JPG,AFNE01.JPG,AFNE01.JPG,AFNE01.JPG,AFNE01.JPG,AFNE01.JPG,,,,,,,,,,,,,,,,,,,,,1,9,19,4,,,AMSA20.jpg,AMNE18.jpg,AMSA09.jpg,AMNE20.jpg,AMNE18.jpg,MN,1,num_6,32,num_2,1.68338401546,,,2017_Apr_17_1435,60.0139939019,FEMA4ImagesEEG,001,200046,
AFNE01.JPG,AFNE01.JPG,AFNE01.JPG,AFNE01.JPG,AFNE01.JPG,AFNE01.JPG,,,,,,,,,,,,,,,,,,,,,2,0,20,4,,,AMSA20.jpg,AMSA09.jpg,AMNE01.jpg,AMNE10.jpg,AMSA20.jpg,MS,2,num_8,32,num_4,1.58340098255,,,2017_Apr_17_1435,60.0139939019,FEMA4ImagesEEG,001,200046,
AFNE01.JPG,AFNE01.JPG,AFNE01.JPG,AFNE01.JPG,AFNE01.JPG,AFNE01.JPG,,,,,,,,,,,,,,,,,,,,,2,1,21,9,,,AMSA19.jpg,AMNE20.jpg,AMNE13.jpg,AMSA02.jpg,AMSA19.jpg,MS,2,num_8,16,num_8,1.31676095861,,,2017_Apr_17_1435,60.0139939019,FEMA4ImagesEEG,001,200046,
AFNE01.JPG,AFNE01.JPG,AFNE01.JPG,AFNE01.JPG,AFNE01.JPG,AFNE01.JPG,,,,,,,,,,,,,,,,,,,,,2,2,22,0,,,AMNE13.jpg,AMSA19.jpg,AMSA15.jpg,AMNE16.jpg,AMNE13.jpg,MN,1,num_8,32,num_4,2.18337519513,,,2017_Apr_17_1435,60.0139939019,FEMA4ImagesEEG,001,200046,
AFNE01.JPG,AFNE01.JPG,AFNE01.JPG,AFNE01.JPG,AFNE01.JPG,AFNE01.JPG,,,,,,,,,,,,,,,,,,,,,2,3,23,6,,,AMNE10.jpg,AMNE20.jpg,AMSA15.jpg,AMSA19.jpg,AMSA15.jpg,MS,2,num_2,16,num_2,2.31664613402,,,2017_Apr_17_1435,60.0139939019,FEMA4ImagesEEG,001,200046,
AFNE01.JPG,AFNE01.JPG,AFNE01.JPG,AFNE01.JPG,AFNE01.JPG,AFNE01.JPG,,,,,,,,,,,,,,,,,,,,,2,4,24,7,,,AMSA09.jpg,AMSA16.jpg,AMNE10.jpg,AMNE08.jpg,AMNE08.jpg,MN,1,num_4,32,num_6,1.26682412818,,,2017_Apr_17_1435,60.0139939019,FEMA4ImagesEEG,001,200046,
AFNE01.JPG,AFNE01.JPG,AFNE01.JPG,AFNE01.JPG,AFNE01.JPG,AFNE01.JPG,,,,,,,,,,,,,,,,,,,,,2,5,25,8,,,AMNE10.jpg,AMNE20.jpg,AMSA16.jpg,AMSA09.jpg,AMNE20.jpg,MN,1,num_6,32,num_4,2.18364974779,,,2017_Apr_17_1435,60.0139939019,FEMA4ImagesEEG,001,200046,
AFNE01.JPG,AFNE01.JPG,AFNE01.JPG,AFNE01.JPG,AFNE01.JPG,AFNE01.JPG,,,,,,,,,,,,,,,,,,,,,2,6,26,3,,,AMSA03.jpg,AMSA09.jpg,AMNE18.jpg,AMNE02.jpg,AMNE02.jpg,MN,1,num_4,16,num_4,1.38340637097,,,2017_Apr_17_1435,60.0139939019,FEMA4ImagesEEG,001,200046,
AFNE01.JPG,AFNE01.JPG,AFNE01.JPG,AFNE01.JPG,AFNE01.JPG,AFNE01.JPG,,,,,,,,,,,,,,,,,,,,,2,7,27,5,,,AMNE06.jpg,AMNE03.jpg,AMSA04.jpg,AMSA15.jpg,AMNE06.jpg,MN,1,num_8,32,num_2,2.59997517479,,,2017_Apr_17_1435,60.0139939019,FEMA4ImagesEEG,001,200046,
AFNE01.JPG,AFNE01.JPG,AFNE01.JPG,AFNE01.JPG,AFNE01.JPG,AFNE01.JPG,,,,,,,,,,,,,,,,,,,,,2,8,28,1,,,AMNE05.jpg,AMSA03.jpg,AMSA11.jpg,AMNE16.jpg,AMSA11.jpg,MS,2,num_2,32,num_8,1.91677590505,,,2017_Apr_17_1435,60.0139939019,FEMA4ImagesEEG,001,200046,
AFNE01.JPG,AFNE01.JPG,AFNE01.JPG,AFNE01.JPG,AFNE01.JPG,AFNE01.JPG,,,,,,,,,,,,,,,,,,,,,2,9,29,2,,,AMNE02.jpg,AMSA16.jpg,AMSA11.jpg,AMNE01.jpg,AMNE02.jpg,MN,1,num_8,16,num_8,2.33334349007,,,2017_Apr_17_1435,60.0139939019,FEMA4ImagesEEG,001,200046,
AFNE01.JPG,AFNE01.JPG,AFNE01.JPG,AFNE01.JPG,AFNE01.JPG,AFNE01.JPG,,,,,,,,,,,,,,,,,,,,,3,0,30,3,,,AMNE18.jpg,AMNE10.jpg,AMSA19.jpg,AMSA13.jpg,AMNE18.jpg,MN,1,num_8,32,num_2,1.38342112497,,,2017_Apr_17_1435,60.0139939019,FEMA4ImagesEEG,001,200046,
AFNE01.JPG,AFNE01.JPG,AFNE01.JPG,AFNE01.JPG,AFNE01.JPG,AFNE01.JPG,,,,,,,,,,,,,,,,,,,,,3,1,31,8,,,AMSA14.jpg,AMNE17.jpg,AMNE03.jpg,AMSA13.jpg,AMNE03.jpg,MN,1,num_2,32,num_6,1.21675579471,,,2017_Apr_17_1435,60.0139939019,FEMA4ImagesEEG,001,200046,
AFNE01.JPG,AFNE01.JPG,AFNE01.JPG,AFNE01.JPG,AFNE01.JPG,AFNE01.JPG,,,,,,,,,,,,,,,,,,,,,3,2,32,0,,,AMNE15.jpg,AMSA01.jpg,AMNE06.jpg,AMSA06.jpg,AMSA01.jpg,MS,2,num_6,16,num_6,1.30008412986,,,2017_Apr_17_1435,60.0139939019,FEMA4ImagesEEG,001,200046,
AFNE01.JPG,AFNE01.JPG,AFNE01.JPG,AFNE01.JPG,AFNE01.JPG,AFNE01.JPG,,,,,,,,,,,,,,,,,,,,,3,3,33,2,,,AMSA09.jpg,AMNE07.jpg,AMNE04.jpg,AMSA04.jpg,AMNE04.jpg,MN,1,num_2,32,num_8,1.46674432829,,,2017_Apr_17_1435,60.0139939019,FEMA4ImagesEEG,001,200046,
AFNE01.JPG,AFNE01.JPG,AFNE01.JPG,AFNE01.JPG,AFNE01.JPG,AFNE01.JPG,,,,,,,,,,,,,,,,,,,,,3,4,34,6,,,AMNE19.jpg,AMSA04.jpg,AMSA03.jpg,AMNE06.jpg,AMNE06.jpg,MN,1,num_4,32,num_8,0.833447249166,,,2017_Apr_17_1435,60.0139939019,FEMA4ImagesEEG,001,200046,
AFNE01.JPG,AFNE01.JPG,AFNE01.JPG,AFNE01.JPG,AFNE01.JPG,AFNE01.JPG,,,,,,,,,,,,,,,,,,,,,3,5,35,4,,,AMNE03.jpg,AMSA14.jpg,AMNE12.jpg,AMSA18.jpg,AMNE12.jpg,MN,1,num_2,32,num_6,0.783470967819,,,2017_Apr_17_1435,60.0139939019,FEMA4ImagesEEG,001,200046,
AFNE01.JPG,AFNE01.JPG,AFNE01.JPG,AFNE01.JPG,AFNE01.JPG,AFNE01.JPG,,,,,,,,,,,,,,,,,,,,,3,6,36,9,,,AMSA07.jpg,AMSA15.jpg,AMNE05.jpg,AMNE20.jpg,AMNE20.jpg,MN,1,num_4,16,num_4,0.66678576778,,,2017_Apr_17_1435,60.0139939019,FEMA4ImagesEEG,001,200046,
AFNE01.JPG,AFNE01.JPG,AFNE01.JPG,AFNE01.JPG,AFNE01.JPG,AFNE01.JPG,,,,,,,,,,,,,,,,,,,,,3,7,37,5,,,AMSA01.jpg,AMNE03.jpg,AMSA10.jpg,AMNE09.jpg,AMSA01.jpg,MS,2,num_8,32,num_6,1.95004328374,,,2017_Apr_17_1435,60.0139939019,FEMA4ImagesEEG,001,200046,
AFNE01.JPG,AFNE01.JPG,AFNE01.JPG,AFNE01.JPG,AFNE01.JPG,AFNE01.JPG,,,,,,,,,,,,,,,,,,,,,3,8,38,1,,,AMNE05.jpg,AMNE12.jpg,AMSA14.jpg,AMSA13.jpg,AMSA14.jpg,MS,2,num_2,32,num_6,2.78326184594,,,2017_Apr_17_1435,60.0139939019,FEMA4ImagesEEG,001,200046,
AFNE01.JPG,AFNE01.JPG,AFNE01.JPG,AFNE01.JPG,AFNE01.JPG,AFNE01.JPG,,,,,,,,,,,,,,,,,,,,,3,9,39,7,,,AMNE01.jpg,AMNE04.jpg,AMSA08.jpg,AMSA20.jpg,AMNE01.jpg,MN,1,num_8,16,num_8,1.01676471126,,,2017_Apr_17_1435,60.0139939019,FEMA4ImagesEEG,001,200046,
