IPosition2,IPosition3,IPosition1,IPosition6,IPosition4,IPosition5,TrialsM1.thisRepN,TrialsM1.thisTrialN,TrialsM1.thisN,TrialsM1.thisIndex,TrialsF1.thisRepN,TrialsF1.thisTrialN,TrialsF1.thisN,TrialsF1.thisIndex,TrialsM2.thisRepN,TrialsM2.thisTrialN,TrialsM2.thisN,TrialsM2.thisIndex,TrialsF2.thisRepN,TrialsF2.thisTrialN,TrialsF2.thisN,TrialsF2.thisIndex,TrialsM3.thisRepN,TrialsM3.thisTrialN,TrialsM3.thisN,TrialsM3.thisIndex,TrialsF3.thisRepN,TrialsF3.thisTrialN,TrialsF3.thisN,TrialsF3.thisIndex,InstrKey_resp.keys,InstrKey_resp.rt,Image0 _Position,Image1 _Position,Image2 _Position,Image3 _Position,Center_image,condition,code,correct_answer,accuracy,Key_Resp.keys,Key_Resp.rt,BreakKey_resp.keys,BreakKey_resp.rt,date,frameRate,expName,session,participant,
,,,,,,,,,,,,,,,,,,,,,,,,,,,,,,space,3.33321679803,,,,,,,,,,,,,,2017_May_01_1702,59.987897772,MAFE4ImagesEEG,001,200187,
AMSA21.JPG,AMNE22.JPG,AMNE21.JPG,AMSA23.JPG,AMSA22.JPG,AMNE23.JPG,0,0,0,1,,,,,,,,,,,,,,,,,,,,,,,AMSA18.jpg,AMNE15.jpg,AMNE11.jpg,AMSA13.jpg,AMSA13.jpg,MS,2,num_4,32,num_6,1.1001427609,,,2017_May_01_1702,59.987897772,MAFE4ImagesEEG,001,200187,
AMNE22.JPG,AMSA24.JPG,AMSA22.JPG,AMNE25.JPG,AMNE24.JPG,AMSA25.JPG,0,1,1,7,,,,,,,,,,,,,,,,,,,,,,,AMNE06.jpg,AMSA02.jpg,AMSA01.jpg,AMNE10.jpg,AMNE10.jpg,MN,1,num_4,32,num_8,0.750398919219,,,2017_May_01_1702,59.987897772,MAFE4ImagesEEG,001,200187,
AMNE23.JPG,AMNE24.JPG,AMNE22.JPG,AMSA24.JPG,AMSA22.JPG,AMSA23.JPG,0,2,2,9,,,,,,,,,,,,,,,,,,,,,,,AMNE14.jpg,AMNE03.jpg,AMSA04.jpg,AMSA02.jpg,AMSA04.jpg,MS,2,num_2,32,num_4,0.683510386618,,,2017_May_01_1702,59.987897772,MAFE4ImagesEEG,001,200187,
AFSA21.JPG,AFNE22.JPG,AFNE21.JPG,AFSA23.JPG,AFSA22.JPG,AFNE23.JPG,0,3,3,0,,,,,,,,,,,,,,,,,,,,,,,AMNE12.jpg,AMNE15.jpg,AMSA05.jpg,AMSA10.jpg,AMNE15.jpg,MN,1,num_6,16,num_6,0.71676333202,,,2017_May_01_1702,59.987897772,MAFE4ImagesEEG,001,200187,
AMSA25.JPG,AMNE24.JPG,AMSA24.JPG,AMNE26.JPG,AMSA21.JPG,AMNE25.JPG,0,4,4,3,,,,,,,,,,,,,,,,,,,,,,,AMNE13.jpg,AMSA15.jpg,AMSA02.jpg,AMNE08.jpg,AMNE13.jpg,MN,1,num_8,32,num_2,0.350203781622,,,2017_May_01_1702,59.987897772,MAFE4ImagesEEG,001,200187,
AMSA21.JPG,AMNE23.JPG,AMNE21.JPG,AMSA25.JPG,AMNE25.JPG,AMSA23.JPG,0,5,5,5,,,,,,,,,,,,,,,,,,,,,,,AMNE08.jpg,AMNE03.jpg,AMSA12.jpg,AMSA13.jpg,AMSA13.jpg,MS,2,num_4,32,num_8,0.383502271958,,,2017_May_01_1702,59.987897772,MAFE4ImagesEEG,001,200187,
AFSA25.JPG,AFNE24.JPG,AFSA24.JPG,AFNE21.JPG,AFSA21.JPG,AFNE25.JPG,0,6,6,2,,,,,,,,,,,,,,,,,,,,,,,AMSA19.jpg,AMSA03.jpg,AMNE10.jpg,AMNE02.jpg,AMSA03.jpg,MS,2,num_6,32,num_4,0.36683923495,,,2017_May_01_1702,59.987897772,MAFE4ImagesEEG,001,200187,
AFSA21.JPG,AFNE23.JPG,AFNE21.JPG,AFSA25.JPG,AFNE25.JPG,AFSA23.JPG,0,7,7,4,,,,,,,,,,,,,,,,,,,,,,,AMNE07.jpg,AMSA11.jpg,AMNE04.jpg,AMSA03.jpg,AMSA11.jpg,MS,2,num_6,32,num_2,0.316693924135,,,2017_May_01_1702,59.987897772,MAFE4ImagesEEG,001,200187,
AFNE23.JPG,AFNE24.JPG,AFNE22.JPG,AFSA24.JPG,AFSA22.JPG,AFSA23.JPG,0,8,8,8,,,,,,,,,,,,,,,,,,,,,,,AMSA17.jpg,AMNE13.jpg,AMSA20.jpg,AMNE01.jpg,AMNE13.jpg,MN,1,num_6,32,num_8,0.116791685345,,,2017_May_01_1702,59.987897772,MAFE4ImagesEEG,001,200187,
AFNE22.JPG,AFSA24.JPG,AFSA22.JPG,AFNE25.JPG,AFNE24.JPG,AFSA25.JPG,0,9,9,6,,,,,,,,,,,,,,,,,,,,,,,AMNE20.jpg,AMSA15.jpg,AMNE16.jpg,AMSA08.jpg,AMSA08.jpg,MS,2,num_4,32,num_2,0.0668404216412,,,2017_May_01_1702,59.987897772,MAFE4ImagesEEG,001,200187,
AFNE23.JPG,AFNE24.JPG,AFNE22.JPG,AFSA24.JPG,AFSA22.JPG,AFSA23.JPG,,,,,0,0,0,8,,,,,,,,,,,,,,,,,,,AFNE16.jpg,AFNE20.jpg,AFSA01.jpg,AFSA06.jpg,AFSA01.jpg,FS,4,num_2,32,num_6,0.116527396487,,,2017_May_01_1702,59.987897772,MAFE4ImagesEEG,001,200187,
AMSA21.JPG,AMNE23.JPG,AMNE21.JPG,AMSA25.JPG,AMNE25.JPG,AMSA23.JPG,,,,,0,1,1,5,,,,,,,,,,,,,,,,,,,AFSA02.jpg,AFNE14.jpg,AFSA16.jpg,AFNE15.jpg,AFSA02.jpg,FS,4,num_8,32,num_4,0.383484951919,,,2017_May_01_1702,59.987897772,MAFE4ImagesEEG,001,200187,
AMNE23.JPG,AMNE24.JPG,AMNE22.JPG,AMSA24.JPG,AMSA22.JPG,AMSA23.JPG,,,,,0,2,2,9,,,,,,,,,,,,,,,,,,,AFSA10.jpg,AFNE20.jpg,AFNE13.jpg,AFSA08.jpg,AFNE13.jpg,FN,3,num_2,32,num_8,0.233513128944,,,2017_May_01_1702,59.987897772,MAFE4ImagesEEG,001,200187,
AMSA21.JPG,AMNE22.JPG,AMNE21.JPG,AMSA23.JPG,AMSA22.JPG,AMNE23.JPG,,,,,0,3,3,1,,,,,,,,,,,,,,,,,,,AFNE15.jpg,AFSA20.jpg,AFNE17.jpg,AFSA01.jpg,AFNE17.jpg,FN,3,num_2,16,num_2,0.266878974391,,,2017_May_01_1702,59.987897772,MAFE4ImagesEEG,001,200187,
AMSA25.JPG,AMNE24.JPG,AMSA24.JPG,AMNE26.JPG,AMSA21.JPG,AMNE25.JPG,,,,,0,4,4,3,,,,,,,,,,,,,,,,,,,AFNE11.jpg,AFSA03.jpg,AFNE17.jpg,AFSA08.jpg,AFSA08.jpg,FS,4,num_4,32,num_6,0.750164138153,,,2017_May_01_1702,59.987897772,MAFE4ImagesEEG,001,200187,
AFSA21.JPG,AFNE23.JPG,AFNE21.JPG,AFSA25.JPG,AFNE25.JPG,AFSA23.JPG,,,,,0,5,5,4,,,,,,,,,,,,,,,,,,,AFNE12.jpg,AFSA09.jpg,AFNE16.jpg,AFSA14.jpg,AFNE12.jpg,FN,3,num_8,32,num_4,0.716741201002,,,2017_May_01_1702,59.987897772,MAFE4ImagesEEG,001,200187,
AFNE22.JPG,AFSA24.JPG,AFSA22.JPG,AFNE25.JPG,AFNE24.JPG,AFSA25.JPG,,,,,0,6,6,6,,,,,,,,,,,,,,,,,,,AFSA16.jpg,AFSA04.jpg,AFNE12.jpg,AFNE07.jpg,AFNE12.jpg,FN,3,num_2,16,num_2,0.566860788502,,,2017_May_01_1702,59.987897772,MAFE4ImagesEEG,001,200187,
AMNE22.JPG,AMSA24.JPG,AMSA22.JPG,AMNE25.JPG,AMNE24.JPG,AMSA25.JPG,,,,,0,7,7,7,,,,,,,,,,,,,,,,,,,AFNE17.jpg,AFNE11.jpg,AFSA16.jpg,AFSA02.jpg,AFNE17.jpg,FN,3,num_8,32,num_6,0.250185467536,,,2017_May_01_1702,59.987897772,MAFE4ImagesEEG,001,200187,
AFSA25.JPG,AFNE24.JPG,AFSA24.JPG,AFNE21.JPG,AFSA21.JPG,AFNE25.JPG,,,,,0,8,8,2,,,,,,,,,,,,,,,,,,,AFSA04.jpg,AFNE10.jpg,AFNE13.jpg,AFSA16.jpg,AFSA16.jpg,FS,4,num_4,16,num_4,0.316781485919,,,2017_May_01_1702,59.987897772,MAFE4ImagesEEG,001,200187,
AFSA21.JPG,AFNE22.JPG,AFNE21.JPG,AFSA23.JPG,AFSA22.JPG,AFNE23.JPG,,,,,0,9,9,0,,,,,,,,,,,,,,,,,,,AFSA18.jpg,AFNE08.jpg,AFNE11.jpg,AFSA03.jpg,AFNE08.jpg,FN,3,num_6,16,num_6,0.233499016613,,,2017_May_01_1702,59.987897772,MAFE4ImagesEEG,001,200187,
AMSA21.JPG,AMNE22.JPG,AMNE21.JPG,AMSA23.JPG,AMSA22.JPG,AMNE23.JPG,,,,,,,,,0,0,0,1,,,,,,,,,,,,,,,AMNE05.jpg,AMSA14.jpg,AMNE15.jpg,AMSA15.jpg,AMNE15.jpg,MN,1,num_2,16,num_2,0.616802750854,,,2017_May_01_1702,59.987897772,MAFE4ImagesEEG,001,200187,
AMSA25.JPG,AMNE24.JPG,AMSA24.JPG,AMNE26.JPG,AMSA21.JPG,AMNE25.JPG,,,,,,,,,0,1,1,3,,,,,,,,,,,,,,,AMNE10.jpg,AMSA01.jpg,AMNE14.jpg,AMSA06.jpg,AMNE14.jpg,MN,1,num_2,32,num_8,0.350168179721,,,2017_May_01_1702,59.987897772,MAFE4ImagesEEG,001,200187,
AFNE23.JPG,AFNE24.JPG,AFNE22.JPG,AFSA24.JPG,AFSA22.JPG,AFSA23.JPG,,,,,,,,,0,2,2,8,,,,,,,,,,,,,,,AMNE05.jpg,AMNE09.jpg,AMSA15.jpg,AMSA09.jpg,AMNE05.jpg,MN,1,num_8,32,num_4,0.900119283004,,,2017_May_01_1702,59.987897772,MAFE4ImagesEEG,001,200187,
AFSA21.JPG,AFNE22.JPG,AFNE21.JPG,AFSA23.JPG,AFSA22.JPG,AFNE23.JPG,,,,,,,,,0,3,3,0,,,,,,,,,,,,,,,AMNE08.jpg,AMSA18.jpg,AMSA01.jpg,AMNE03.jpg,AMNE03.jpg,MN,1,num_4,32,num_2,0.433492024429,,,2017_May_01_1702,59.987897772,MAFE4ImagesEEG,001,200187,
AMNE23.JPG,AMNE24.JPG,AMNE22.JPG,AMSA24.JPG,AMSA22.JPG,AMSA23.JPG,,,,,,,,,0,4,4,9,,,,,,,,,,,,,,,AMSA13.jpg,AMNE04.jpg,AMSA10.jpg,AMNE17.jpg,AMSA13.jpg,MS,2,num_8,32,num_6,1.300095035,,,2017_May_01_1702,59.987897772,MAFE4ImagesEEG,001,200187,
AMSA21.JPG,AMNE23.JPG,AMNE21.JPG,AMSA25.JPG,AMNE25.JPG,AMSA23.JPG,,,,,,,,,0,5,5,5,,,,,,,,,,,,,,,AMNE09.jpg,AMSA07.jpg,AMSA12.jpg,AMNE13.jpg,AMSA12.jpg,MS,2,num_2,32,num_4,0.683439824032,,,2017_May_01_1702,59.987897772,MAFE4ImagesEEG,001,200187,
AFNE22.JPG,AFSA24.JPG,AFSA22.JPG,AFNE25.JPG,AFNE24.JPG,AFSA25.JPG,,,,,,,,,0,6,6,6,,,,,,,,,,,,,,,AMNE10.jpg,AMSA07.jpg,AMSA14.jpg,AMNE15.jpg,AMSA07.jpg,MS,2,num_6,32,num_8,0.700208384311,,,2017_May_01_1702,59.987897772,MAFE4ImagesEEG,001,200187,
AFSA21.JPG,AFNE23.JPG,AFNE21.JPG,AFSA25.JPG,AFNE25.JPG,AFSA23.JPG,,,,,,,,,0,7,7,4,,,,,,,,,,,,,,,AMSA04.jpg,AMNE09.jpg,AMNE15.jpg,AMSA12.jpg,AMSA04.jpg,MS,2,num_8,32,num_2,0.650109580485,,,2017_May_01_1702,59.987897772,MAFE4ImagesEEG,001,200187,
AMNE22.JPG,AMSA24.JPG,AMSA22.JPG,AMNE25.JPG,AMNE24.JPG,AMSA25.JPG,,,,,,,,,0,8,8,7,,,,,,,,,,,,,,,AMNE16.jpg,AMSA03.jpg,AMSA02.jpg,AMNE01.jpg,AMSA02.jpg,MS,2,num_2,32,num_4,0.833450777456,,,2017_May_01_1702,59.987897772,MAFE4ImagesEEG,001,200187,
AFSA25.JPG,AFNE24.JPG,AFSA24.JPG,AFNE21.JPG,AFSA21.JPG,AFNE25.JPG,,,,,,,,,0,9,9,2,,,,,,,,,,,,,,,AMSA06.jpg,AMNE02.jpg,AMSA10.jpg,AMNE18.jpg,AMNE02.jpg,MN,1,num_6,32,num_8,0.833486379357,,,2017_May_01_1702,59.987897772,MAFE4ImagesEEG,001,200187,
AFSA21.JPG,AFNE23.JPG,AFNE21.JPG,AFSA25.JPG,AFNE25.JPG,AFSA23.JPG,,,,,,,,,,,,,0,0,0,4,,,,,,,,,,,AFNE15.jpg,AFNE01.jpg,AFSA15.jpg,AFSA04.jpg,AFNE01.jpg,FN,3,num_6,16,num_6,0.866751833586,,,2017_May_01_1702,59.987897772,MAFE4ImagesEEG,001,200187,
AFNE23.JPG,AFNE24.JPG,AFNE22.JPG,AFSA24.JPG,AFSA22.JPG,AFSA23.JPG,,,,,,,,,,,,,0,1,1,8,,,,,,,,,,,AFSA19.jpg,AFNE14.jpg,AFNE15.jpg,AFSA20.jpg,AFSA19.jpg,FS,4,num_8,32,num_4,0.350153746316,,,2017_May_01_1702,59.987897772,MAFE4ImagesEEG,001,200187,
AFNE22.JPG,AFSA24.JPG,AFSA22.JPG,AFNE25.JPG,AFNE24.JPG,AFSA25.JPG,,,,,,,,,,,,,0,2,2,6,,,,,,,,,,,AFNE10.jpg,AFNE14.jpg,AFSA04.jpg,AFSA01.jpg,AFNE14.jpg,FN,3,num_6,32,num_8,0.766783554805,,,2017_May_01_1702,59.987897772,MAFE4ImagesEEG,001,200187,
AMSA25.JPG,AMNE24.JPG,AMSA24.JPG,AMNE26.JPG,AMSA21.JPG,AMNE25.JPG,,,,,,,,,,,,,0,3,3,3,,,,,,,,,,,AFSA12.jpg,AFNE04.jpg,AFNE09.jpg,AFSA06.jpg,AFNE04.jpg,FN,3,num_6,16,num_6,0.716854742728,,,2017_May_01_1702,59.987897772,MAFE4ImagesEEG,001,200187,
AFSA21.JPG,AFNE22.JPG,AFNE21.JPG,AFSA23.JPG,AFSA22.JPG,AFNE23.JPG,,,,,,,,,,,,,0,4,4,0,,,,,,,,,,,AFNE18.jpg,AFSA11.jpg,AFNE02.jpg,AFSA01.jpg,AFSA01.jpg,FS,4,num_4,16,num_4,0.366820632247,,,2017_May_01_1702,59.987897772,MAFE4ImagesEEG,001,200187,
AMSA21.JPG,AMNE22.JPG,AMNE21.JPG,AMSA23.JPG,AMSA22.JPG,AMNE23.JPG,,,,,,,,,,,,,0,5,5,1,,,,,,,,,,,AFSA19.jpg,AFNE02.jpg,AFNE10.jpg,AFSA10.jpg,AFNE10.jpg,FN,3,num_2,32,num_8,0.600139072398,,,2017_May_01_1702,59.987897772,MAFE4ImagesEEG,001,200187,
AMSA21.JPG,AMNE23.JPG,AMNE21.JPG,AMSA25.JPG,AMNE25.JPG,AMSA23.JPG,,,,,,,,,,,,,0,6,6,5,,,,,,,,,,,AFNE01.jpg,AFSA14.jpg,AFNE10.jpg,AFSA10.jpg,AFNE01.jpg,FN,3,num_8,16,num_8,0.966775600333,,,2017_May_01_1702,59.987897772,MAFE4ImagesEEG,001,200187,
AMNE22.JPG,AMSA24.JPG,AMSA22.JPG,AMNE25.JPG,AMNE24.JPG,AMSA25.JPG,,,,,,,,,,,,,0,7,7,7,,,,,,,,,,,AFNE13.jpg,AFSA10.jpg,AFSA03.jpg,AFNE11.jpg,AFSA10.jpg,FS,4,num_6,32,num_2,0.716818819987,,,2017_May_01_1702,59.987897772,MAFE4ImagesEEG,001,200187,
AFSA25.JPG,AFNE24.JPG,AFSA24.JPG,AFNE21.JPG,AFSA21.JPG,AFNE25.JPG,,,,,,,,,,,,,0,8,8,2,,,,,,,,,,,AFSA05.jpg,AFSA18.jpg,AFNE11.jpg,AFNE14.jpg,AFSA05.jpg,FS,4,num_8,16,num_8,0.88343764306,,,2017_May_01_1702,59.987897772,MAFE4ImagesEEG,001,200187,
AMNE23.JPG,AMNE24.JPG,AMNE22.JPG,AMSA24.JPG,AMSA22.JPG,AMSA23.JPG,,,,,,,,,,,,,0,9,9,9,,,,,,,,,,,AFSA05.jpg,AFSA16.jpg,AFNE14.jpg,AFNE20.jpg,AFNE14.jpg,FN,3,num_2,32,num_8,0.716808876954,,,2017_May_01_1702,59.987897772,MAFE4ImagesEEG,001,200187,
AMSA21.JPG,AMNE22.JPG,AMNE21.JPG,AMSA23.JPG,AMSA22.JPG,AMNE23.JPG,,,,,,,,,,,,,,,,,0,0,0,1,,,,,,,AMNE05.jpg,AMSA01.jpg,AMSA07.jpg,AMNE02.jpg,AMNE02.jpg,MN,1,num_4,32,num_2,1.15010204329,,,2017_May_01_1702,59.987897772,MAFE4ImagesEEG,001,200187,
AFSA21.JPG,AFNE22.JPG,AFNE21.JPG,AFSA23.JPG,AFSA22.JPG,AFNE23.JPG,,,,,,,,,,,,,,,,,0,1,1,0,,,,,,,AMSA05.jpg,AMSA12.jpg,AMNE13.jpg,AMNE04.jpg,AMNE04.jpg,MN,1,num_4,32,num_8,0.949825822841,,,2017_May_01_1702,59.987897772,MAFE4ImagesEEG,001,200187,
AMNE23.JPG,AMNE24.JPG,AMNE22.JPG,AMSA24.JPG,AMSA22.JPG,AMSA23.JPG,,,,,,,,,,,,,,,,,0,2,2,9,,,,,,,AMSA07.jpg,AMSA14.jpg,AMNE19.jpg,AMNE09.jpg,AMNE19.jpg,MN,1,num_2,32,num_4,0.700156424427,,,2017_May_01_1702,59.987897772,MAFE4ImagesEEG,001,200187,
AMSA25.JPG,AMNE24.JPG,AMSA24.JPG,AMNE26.JPG,AMSA21.JPG,AMNE25.JPG,,,,,,,,,,,,,,,,,0,3,3,3,,,,,,,AMNE15.jpg,AMNE13.jpg,AMSA01.jpg,AMSA10.jpg,AMSA01.jpg,MS,2,num_2,16,num_2,0.650144540938,,,2017_May_01_1702,59.987897772,MAFE4ImagesEEG,001,200187,
AFSA21.JPG,AFNE23.JPG,AFNE21.JPG,AFSA25.JPG,AFNE25.JPG,AFSA23.JPG,,,,,,,,,,,,,,,,,0,4,4,4,,,,,,,AMSA16.jpg,AMNE01.jpg,AMNE20.jpg,AMSA06.jpg,AMNE01.jpg,MN,1,num_6,32,num_8,0.433482081397,,,2017_May_01_1702,59.987897772,MAFE4ImagesEEG,001,200187,
AFSA25.JPG,AFNE24.JPG,AFSA24.JPG,AFNE21.JPG,AFSA21.JPG,AFNE25.JPG,,,,,,,,,,,,,,,,,0,5,5,2,,,,,,,AMNE08.jpg,AMNE06.jpg,AMSA08.jpg,AMSA04.jpg,AMNE08.jpg,MN,1,num_8,32,num_6,0.883464264451,,,2017_May_01_1702,59.987897772,MAFE4ImagesEEG,001,200187,
AMSA21.JPG,AMNE23.JPG,AMNE21.JPG,AMSA25.JPG,AMNE25.JPG,AMSA23.JPG,,,,,,,,,,,,,,,,,0,6,6,5,,,,,,,AMSA07.jpg,AMNE09.jpg,AMNE19.jpg,AMSA05.jpg,AMSA05.jpg,MS,2,num_4,32,num_2,0.649851064896,,,2017_May_01_1702,59.987897772,MAFE4ImagesEEG,001,200187,
AFNE22.JPG,AFSA24.JPG,AFSA22.JPG,AFNE25.JPG,AFNE24.JPG,AFSA25.JPG,,,,,,,,,,,,,,,,,0,7,7,6,,,,,,,AMSA18.jpg,AMSA12.jpg,AMNE10.jpg,AMNE15.jpg,AMNE10.jpg,MN,1,num_2,32,num_4,0.550155734876,,,2017_May_01_1702,59.987897772,MAFE4ImagesEEG,001,200187,
AFNE23.JPG,AFNE24.JPG,AFNE22.JPG,AFSA24.JPG,AFSA22.JPG,AFSA23.JPG,,,,,,,,,,,,,,,,,0,8,8,8,,,,,,,AMSA07.jpg,AMSA10.jpg,AMNE19.jpg,AMNE06.jpg,AMNE19.jpg,MN,1,num_2,32,num_8,1.05013633007,,,2017_May_01_1702,59.987897772,MAFE4ImagesEEG,001,200187,
AMNE22.JPG,AMSA24.JPG,AMSA22.JPG,AMNE25.JPG,AMNE24.JPG,AMSA25.JPG,,,,,,,,,,,,,,,,,0,9,9,7,,,,,,,AMNE10.jpg,AMNE11.jpg,AMSA14.jpg,AMSA09.jpg,AMNE11.jpg,MN,1,num_6,32,num_8,1.33345606946,,,2017_May_01_1702,59.987897772,MAFE4ImagesEEG,001,200187,
AFSA21.JPG,AFNE22.JPG,AFNE21.JPG,AFSA23.JPG,AFSA22.JPG,AFNE23.JPG,,,,,,,,,,,,,,,,,,,,,0,0,0,0,,,AFNE03.jpg,AFSA18.jpg,AFNE13.jpg,AFSA20.jpg,AFSA20.jpg,FS,4,num_4,32,num_8,1.03343095561,,,2017_May_01_1702,59.987897772,MAFE4ImagesEEG,001,200187,
AFSA21.JPG,AFNE23.JPG,AFNE21.JPG,AFSA25.JPG,AFNE25.JPG,AFSA23.JPG,,,,,,,,,,,,,,,,,,,,,0,1,1,4,,,AFNE16.jpg,AFSA02.jpg,AFNE06.jpg,AFSA10.jpg,AFSA10.jpg,FS,4,num_4,32,num_2,0.833465852076,,,2017_May_01_1702,59.987897772,MAFE4ImagesEEG,001,200187,
AMSA21.JPG,AMNE22.JPG,AMNE21.JPG,AMSA23.JPG,AMSA22.JPG,AMNE23.JPG,,,,,,,,,,,,,,,,,,,,,0,2,2,1,,,AFSA10.jpg,AFNE01.jpg,AFSA11.jpg,AFNE19.jpg,AFSA11.jpg,FS,4,num_2,32,num_4,1.10009625391,,,2017_May_01_1702,59.987897772,MAFE4ImagesEEG,001,200187,
AMSA25.JPG,AMNE24.JPG,AMSA24.JPG,AMNE26.JPG,AMSA21.JPG,AMNE25.JPG,,,,,,,,,,,,,,,,,,,,,0,3,3,3,,,AFSA20.jpg,AFSA01.jpg,AFNE18.jpg,AFNE14.jpg,AFNE14.jpg,FN,3,num_4,16,num_4,0.983451787615,,,2017_May_01_1702,59.987897772,MAFE4ImagesEEG,001,200187,
AFNE22.JPG,AFSA24.JPG,AFSA22.JPG,AFNE25.JPG,AFNE24.JPG,AFSA25.JPG,,,,,,,,,,,,,,,,,,,,,0,4,4,6,,,AFNE01.jpg,AFNE08.jpg,AFSA19.jpg,AFSA10.jpg,AFNE08.jpg,FN,3,num_6,32,num_2,0.550074587809,,,2017_May_01_1702,59.987897772,MAFE4ImagesEEG,001,200187,
AMSA21.JPG,AMNE23.JPG,AMNE21.JPG,AMSA25.JPG,AMNE25.JPG,AMSA23.JPG,,,,,,,,,,,,,,,,,,,,,0,5,5,5,,,AFNE14.jpg,AFNE16.jpg,AFSA08.jpg,AFSA10.jpg,AFNE16.jpg,FN,3,num_6,16,num_6,1.0001424083,,,2017_May_01_1702,59.987897772,MAFE4ImagesEEG,001,200187,
AFSA25.JPG,AFNE24.JPG,AFSA24.JPG,AFNE21.JPG,AFSA21.JPG,AFNE25.JPG,,,,,,,,,,,,,,,,,,,,,0,6,6,2,,,AFNE04.jpg,AFSA06.jpg,AFSA02.jpg,AFNE03.jpg,AFNE03.jpg,FN,3,num_4,32,num_2,0.38346891501,,,2017_May_01_1702,59.987897772,MAFE4ImagesEEG,001,200187,
AFNE23.JPG,AFNE24.JPG,AFNE22.JPG,AFSA24.JPG,AFSA22.JPG,AFSA23.JPG,,,,,,,,,,,,,,,,,,,,,0,7,7,8,,,AFSA03.jpg,AFNE06.jpg,AFNE10.jpg,AFSA04.jpg,AFNE10.jpg,FN,3,num_2,32,num_8,2.24977973243,,,2017_May_01_1702,59.987897772,MAFE4ImagesEEG,001,200187,
AMNE23.JPG,AMNE24.JPG,AMNE22.JPG,AMSA24.JPG,AMSA22.JPG,AMSA23.JPG,,,,,,,,,,,,,,,,,,,,,0,8,8,9,,,AFSA07.jpg,AFNE10.jpg,AFSA14.jpg,AFNE13.jpg,AFNE10.jpg,FN,3,num_6,16,num_6,0.683462917339,,,2017_May_01_1702,59.987897772,MAFE4ImagesEEG,001,200187,
AMNE22.JPG,AMSA24.JPG,AMSA22.JPG,AMNE25.JPG,AMNE24.JPG,AMSA25.JPG,,,,,,,,,,,,,,,,,,,,,0,9,9,7,,,AFSA03.jpg,AFSA02.jpg,AFNE04.jpg,AFNE09.jpg,AFSA03.jpg,FS,4,num_8,32,num_6,0.550156376325,,,2017_May_01_1702,59.987897772,MAFE4ImagesEEG,001,200187,
,,,,,,,,,,,,,,,,,,,,,,,,,,,,,,,,,,,,,,,,,,,space,20.2321442144,2017_May_01_1702,59.987897772,MAFE4ImagesEEG,001,200187,
AFNE01.JPG,AFNE01.JPG,AFNE01.JPG,AFNE01.JPG,AFNE01.JPG,AFNE01.JPG,0,0,0,2,,,,,,,,,,,,,,,,,,,,,,,AMNE10.jpg,AMNE09.jpg,AMSA07.jpg,AMSA11.jpg,AMNE09.jpg,MN,1,num_6,32,num_4,1.50006238371,,,2017_May_01_1702,59.987897772,MAFE4ImagesEEG,001,200187,
AFNE01.JPG,AFNE01.JPG,AFNE01.JPG,AFNE01.JPG,AFNE01.JPG,AFNE01.JPG,0,1,1,5,,,,,,,,,,,,,,,,,,,,,,,AMNE07.jpg,AMSA01.jpg,AMSA17.jpg,AMNE18.jpg,AMNE07.jpg,MN,1,num_8,32,num_2,1.28341724421,,,2017_May_01_1702,59.987897772,MAFE4ImagesEEG,001,200187,
AFNE01.JPG,AFNE01.JPG,AFNE01.JPG,AFNE01.JPG,AFNE01.JPG,AFNE01.JPG,0,2,2,3,,,,,,,,,,,,,,,,,,,,,,,AMNE18.jpg,AMNE16.jpg,AMSA13.jpg,AMSA04.jpg,AMSA04.jpg,MS,2,num_4,16,num_4,0.733327581547,,,2017_May_01_1702,59.987897772,MAFE4ImagesEEG,001,200187,
AFNE01.JPG,AFNE01.JPG,AFNE01.JPG,AFNE01.JPG,AFNE01.JPG,AFNE01.JPG,0,3,3,7,,,,,,,,,,,,,,,,,,,,,,,AMNE08.jpg,AMSA14.jpg,AMSA18.jpg,AMNE03.jpg,AMSA14.jpg,MS,2,num_6,32,num_2,1.06674452079,,,2017_May_01_1702,59.987897772,MAFE4ImagesEEG,001,200187,
AFNE01.JPG,AFNE01.JPG,AFNE01.JPG,AFNE01.JPG,AFNE01.JPG,AFNE01.JPG,0,4,4,4,,,,,,,,,,,,,,,,,,,,,,,AMNE13.jpg,AMSA19.jpg,AMNE14.jpg,AMSA02.jpg,AMNE13.jpg,MN,1,num_8,32,num_6,1.01675829641,,,2017_May_01_1702,59.987897772,MAFE4ImagesEEG,001,200187,
AFNE01.JPG,AFNE01.JPG,AFNE01.JPG,AFNE01.JPG,AFNE01.JPG,AFNE01.JPG,0,5,5,8,,,,,,,,,,,,,,,,,,,,,,,AMNE01.jpg,AMSA03.jpg,AMSA08.jpg,AMNE19.jpg,AMNE19.jpg,MN,1,num_4,16,num_4,0.833472587401,,,2017_May_01_1702,59.987897772,MAFE4ImagesEEG,001,200187,
AFNE01.JPG,AFNE01.JPG,AFNE01.JPG,AFNE01.JPG,AFNE01.JPG,AFNE01.JPG,0,6,6,0,,,,,,,,,,,,,,,,,,,,,,,AMNE06.jpg,AMSA08.jpg,AMNE01.jpg,AMSA02.jpg,AMNE01.jpg,MN,1,num_2,32,num_6,0.750146818347,,,2017_May_01_1702,59.987897772,MAFE4ImagesEEG,001,200187,
AFNE01.JPG,AFNE01.JPG,AFNE01.JPG,AFNE01.JPG,AFNE01.JPG,AFNE01.JPG,0,7,7,1,,,,,,,,,,,,,,,,,,,,,,,AMNE08.jpg,AMSA11.jpg,AMSA14.jpg,AMNE15.jpg,AMSA11.jpg,MS,2,num_6,32,num_2,1.55008421023,,,2017_May_01_1702,59.987897772,MAFE4ImagesEEG,001,200187,
AFNE01.JPG,AFNE01.JPG,AFNE01.JPG,AFNE01.JPG,AFNE01.JPG,AFNE01.JPG,0,8,8,6,,,,,,,,,,,,,,,,,,,,,,,AMSA17.jpg,AMNE07.jpg,AMNE15.jpg,AMSA04.jpg,AMSA17.jpg,MS,2,num_8,16,num_8,1.13346370286,,,2017_May_01_1702,59.987897772,MAFE4ImagesEEG,001,200187,
AFNE01.JPG,AFNE01.JPG,AFNE01.JPG,AFNE01.JPG,AFNE01.JPG,AFNE01.JPG,0,9,9,9,,,,,,,,,,,,,,,,,,,,,,,AMNE03.jpg,AMSA15.jpg,AMNE12.jpg,AMSA01.jpg,AMNE03.jpg,MN,1,num_8,16,num_8,2.18336813897,,,2017_May_01_1702,59.987897772,MAFE4ImagesEEG,001,200187,
AFNE01.JPG,AFNE01.JPG,AFNE01.JPG,AFNE01.JPG,AFNE01.JPG,AFNE01.JPG,1,0,10,9,,,,,,,,,,,,,,,,,,,,,,,AMSA10.jpg,AMNE05.jpg,AMNE11.jpg,AMSA05.jpg,AMSA05.jpg,MS,2,num_4,32,num_6,0.700143915601,,,2017_May_01_1702,59.987897772,MAFE4ImagesEEG,001,200187,
AFNE01.JPG,AFNE01.JPG,AFNE01.JPG,AFNE01.JPG,AFNE01.JPG,AFNE01.JPG,1,1,11,5,,,,,,,,,,,,,,,,,,,,,,,AMNE06.jpg,AMSA10.jpg,AMNE14.jpg,AMSA11.jpg,AMNE14.jpg,MN,1,num_2,16,num_2,1.01674322179,,,2017_May_01_1702,59.987897772,MAFE4ImagesEEG,001,200187,
AFNE01.JPG,AFNE01.JPG,AFNE01.JPG,AFNE01.JPG,AFNE01.JPG,AFNE01.JPG,1,2,12,0,,,,,,,,,,,,,,,,,,,,,,,AMSA10.jpg,AMNE07.jpg,AMSA05.jpg,AMNE06.jpg,AMSA10.jpg,MS,2,num_8,16,num_8,1.25009501888,,,2017_May_01_1702,59.987897772,MAFE4ImagesEEG,001,200187,
AFNE01.JPG,AFNE01.JPG,AFNE01.JPG,AFNE01.JPG,AFNE01.JPG,AFNE01.JPG,1,3,13,2,,,,,,,,,,,,,,,,,,,,,,,AMSA01.jpg,AMNE05.jpg,AMSA17.jpg,AMNE20.jpg,AMNE20.jpg,MN,1,num_4,16,num_4,1.31658038241,,,2017_May_01_1702,59.987897772,MAFE4ImagesEEG,001,200187,
AFNE01.JPG,AFNE01.JPG,AFNE01.JPG,AFNE01.JPG,AFNE01.JPG,AFNE01.JPG,1,4,14,4,,,,,,,,,,,,,,,,,,,,,,,AMSA13.jpg,AMNE16.jpg,AMNE04.jpg,AMSA17.jpg,AMNE16.jpg,MN,1,num_6,16,num_6,0.650154804811,,,2017_May_01_1702,59.987897772,MAFE4ImagesEEG,001,200187,
AFNE01.JPG,AFNE01.JPG,AFNE01.JPG,AFNE01.JPG,AFNE01.JPG,AFNE01.JPG,1,5,15,3,,,,,,,,,,,,,,,,,,,,,,,AMSA12.jpg,AMSA09.jpg,AMNE20.jpg,AMNE04.jpg,AMSA09.jpg,MS,2,num_6,32,num_8,1.13343162904,,,2017_May_01_1702,59.987897772,MAFE4ImagesEEG,001,200187,
AFNE01.JPG,AFNE01.JPG,AFNE01.JPG,AFNE01.JPG,AFNE01.JPG,AFNE01.JPG,1,6,16,8,,,,,,,,,,,,,,,,,,,,,,,AMSA16.jpg,AMNE14.jpg,AMSA05.jpg,AMNE16.jpg,AMSA05.jpg,MS,2,num_2,32,num_8,1.00014529494,,,2017_May_01_1702,59.987897772,MAFE4ImagesEEG,001,200187,
AFNE01.JPG,AFNE01.JPG,AFNE01.JPG,AFNE01.JPG,AFNE01.JPG,AFNE01.JPG,1,7,17,6,,,,,,,,,,,,,,,,,,,,,,,AMSA17.jpg,AMNE04.jpg,AMNE06.jpg,AMSA18.jpg,AMNE06.jpg,MN,1,num_2,16,num_2,0.766758537153,,,2017_May_01_1702,59.987897772,MAFE4ImagesEEG,001,200187,
AFNE01.JPG,AFNE01.JPG,AFNE01.JPG,AFNE01.JPG,AFNE01.JPG,AFNE01.JPG,1,8,18,1,,,,,,,,,,,,,,,,,,,,,,,AMNE13.jpg,AMSA13.jpg,AMNE09.jpg,AMSA14.jpg,AMSA13.jpg,MS,2,num_6,32,num_8,0.883484470891,,,2017_May_01_1702,59.987897772,MAFE4ImagesEEG,001,200187,
AFNE01.JPG,AFNE01.JPG,AFNE01.JPG,AFNE01.JPG,AFNE01.JPG,AFNE01.JPG,1,9,19,7,,,,,,,,,,,,,,,,,,,,,,,AMSA13.jpg,AMNE20.jpg,AMNE19.jpg,AMSA17.jpg,AMSA17.jpg,MS,2,num_4,32,num_2,0.916745755589,,,2017_May_01_1702,59.987897772,MAFE4ImagesEEG,001,200187,
AFNE01.JPG,AFNE01.JPG,AFNE01.JPG,AFNE01.JPG,AFNE01.JPG,AFNE01.JPG,2,0,20,2,,,,,,,,,,,,,,,,,,,,,,,AMNE17.jpg,AMSA07.jpg,AMSA15.jpg,AMNE04.jpg,AMSA15.jpg,MS,2,num_2,32,num_6,2.19997921609,,,2017_May_01_1702,59.987897772,MAFE4ImagesEEG,001,200187,
AFNE01.JPG,AFNE01.JPG,AFNE01.JPG,AFNE01.JPG,AFNE01.JPG,AFNE01.JPG,2,1,21,9,,,,,,,,,,,,,,,,,,,,,,,AMNE18.jpg,AMSA11.jpg,AMSA13.jpg,AMNE05.jpg,AMSA11.jpg,MS,2,num_6,16,num_6,1.06665567611,,,2017_May_01_1702,59.987897772,MAFE4ImagesEEG,001,200187,
AFNE01.JPG,AFNE01.JPG,AFNE01.JPG,AFNE01.JPG,AFNE01.JPG,AFNE01.JPG,2,2,22,7,,,,,,,,,,,,,,,,,,,,,,,AMSA06.jpg,AMNE11.jpg,AMSA05.jpg,AMNE10.jpg,AMNE11.jpg,MN,1,num_6,32,num_4,1.28341692337,,,2017_May_01_1702,59.987897772,MAFE4ImagesEEG,001,200187,
AFNE01.JPG,AFNE01.JPG,AFNE01.JPG,AFNE01.JPG,AFNE01.JPG,AFNE01.JPG,2,3,23,1,,,,,,,,,,,,,,,,,,,,,,,AMSA14.jpg,AMNE14.jpg,AMSA02.jpg,AMNE01.jpg,AMSA14.jpg,MS,2,num_8,32,num_2,0.849959217943,,,2017_May_01_1702,59.987897772,MAFE4ImagesEEG,001,200187,
AFNE01.JPG,AFNE01.JPG,AFNE01.JPG,AFNE01.JPG,AFNE01.JPG,AFNE01.JPG,2,4,24,0,,,,,,,,,,,,,,,,,,,,,,,AMSA12.jpg,AMNE05.jpg,AMNE12.jpg,AMSA05.jpg,AMSA05.jpg,MS,2,num_4,32,num_6,1.4167215398,,,2017_May_01_1702,59.987897772,MAFE4ImagesEEG,001,200187,
AFNE01.JPG,AFNE01.JPG,AFNE01.JPG,AFNE01.JPG,AFNE01.JPG,AFNE01.JPG,2,5,25,3,,,,,,,,,,,,,,,,,,,,,,,AMNE13.jpg,AMSA20.jpg,AMSA03.jpg,AMNE15.jpg,AMNE15.jpg,MN,1,num_4,32,num_8,1.34973293659,,,2017_May_01_1702,59.987897772,MAFE4ImagesEEG,001,200187,
AFNE01.JPG,AFNE01.JPG,AFNE01.JPG,AFNE01.JPG,AFNE01.JPG,AFNE01.JPG,2,6,26,6,,,,,,,,,,,,,,,,,,,,,,,AMSA05.jpg,AMNE07.jpg,AMSA10.jpg,AMNE01.jpg,AMNE07.jpg,MN,1,num_6,32,num_4,2.45000527613,,,2017_May_01_1702,59.987897772,MAFE4ImagesEEG,001,200187,
AFNE01.JPG,AFNE01.JPG,AFNE01.JPG,AFNE01.JPG,AFNE01.JPG,AFNE01.JPG,2,7,27,4,,,,,,,,,,,,,,,,,,,,,,,AMSA18.jpg,AMNE17.jpg,AMNE16.jpg,AMSA17.jpg,AMNE17.jpg,MN,1,num_6,32,num_4,0.88346875459,,,2017_May_01_1702,59.987897772,MAFE4ImagesEEG,001,200187,
AFNE01.JPG,AFNE01.JPG,AFNE01.JPG,AFNE01.JPG,AFNE01.JPG,AFNE01.JPG,2,8,28,8,,,,,,,,,,,,,,,,,,,,,,,AMNE05.jpg,AMSA03.jpg,AMSA16.jpg,AMNE04.jpg,AMSA03.jpg,MS,2,num_6,16,num_6,1.13342328998,,,2017_May_01_1702,59.987897772,MAFE4ImagesEEG,001,200187,
AFNE01.JPG,AFNE01.JPG,AFNE01.JPG,AFNE01.JPG,AFNE01.JPG,AFNE01.JPG,2,9,29,5,,,,,,,,,,,,,,,,,,,,,,,AMNE03.jpg,AMSA05.jpg,AMSA01.jpg,AMNE15.jpg,AMSA05.jpg,MS,2,num_6,16,num_6,0.98346493789,,,2017_May_01_1702,59.987897772,MAFE4ImagesEEG,001,200187,
AFNE01.JPG,AFNE01.JPG,AFNE01.JPG,AFNE01.JPG,AFNE01.JPG,AFNE01.JPG,3,0,30,3,,,,,,,,,,,,,,,,,,,,,,,AMNE14.jpg,AMSA09.jpg,AMNE06.jpg,AMSA02.jpg,AMSA09.jpg,MS,2,num_6,32,num_4,0.816775872838,,,2017_May_01_1702,59.987897772,MAFE4ImagesEEG,001,200187,
AFNE01.JPG,AFNE01.JPG,AFNE01.JPG,AFNE01.JPG,AFNE01.JPG,AFNE01.JPG,3,1,31,2,,,,,,,,,,,,,,,,,,,,,,,AMSA18.jpg,AMNE06.jpg,AMNE09.jpg,AMSA03.jpg,AMSA03.jpg,MS,2,num_4,16,num_4,0.983331831172,,,2017_May_01_1702,59.987897772,MAFE4ImagesEEG,001,200187,
AFNE01.JPG,AFNE01.JPG,AFNE01.JPG,AFNE01.JPG,AFNE01.JPG,AFNE01.JPG,3,2,32,4,,,,,,,,,,,,,,,,,,,,,,,AMSA09.jpg,AMSA03.jpg,AMNE04.jpg,AMNE03.jpg,AMSA09.jpg,MS,2,num_8,16,num_8,1.25008122716,,,2017_May_01_1702,59.987897772,MAFE4ImagesEEG,001,200187,
AFNE01.JPG,AFNE01.JPG,AFNE01.JPG,AFNE01.JPG,AFNE01.JPG,AFNE01.JPG,3,3,33,7,,,,,,,,,,,,,,,,,,,,,,,AMSA01.jpg,AMSA19.jpg,AMNE03.jpg,AMNE01.jpg,AMNE01.jpg,MN,1,num_4,32,num_2,1.23342524655,,,2017_May_01_1702,59.987897772,MAFE4ImagesEEG,001,200187,
AFNE01.JPG,AFNE01.JPG,AFNE01.JPG,AFNE01.JPG,AFNE01.JPG,AFNE01.JPG,3,4,34,0,,,,,,,,,,,,,,,,,,,,,,,AMSA05.jpg,AMNE19.jpg,AMSA04.jpg,AMNE13.jpg,AMSA04.jpg,MS,2,num_2,16,num_2,0.950155221624,,,2017_May_01_1702,59.987897772,MAFE4ImagesEEG,001,200187,
AFNE01.JPG,AFNE01.JPG,AFNE01.JPG,AFNE01.JPG,AFNE01.JPG,AFNE01.JPG,3,5,35,8,,,,,,,,,,,,,,,,,,,,,,,AMNE13.jpg,AMNE06.jpg,AMSA18.jpg,AMSA09.jpg,AMNE13.jpg,MN,1,num_8,16,num_8,0.783497910015,,,2017_May_01_1702,59.987897772,MAFE4ImagesEEG,001,200187,
AFNE01.JPG,AFNE01.JPG,AFNE01.JPG,AFNE01.JPG,AFNE01.JPG,AFNE01.JPG,3,6,36,6,,,,,,,,,,,,,,,,,,,,,,,AMNE01.jpg,AMSA06.jpg,AMSA03.jpg,AMNE17.jpg,AMSA06.jpg,MS,2,num_6,32,num_2,1.06678685825,,,2017_May_01_1702,59.987897772,MAFE4ImagesEEG,001,200187,
AFNE01.JPG,AFNE01.JPG,AFNE01.JPG,AFNE01.JPG,AFNE01.JPG,AFNE01.JPG,3,7,37,9,,,,,,,,,,,,,,,,,,,,,,,AMSA14.jpg,AMSA02.jpg,AMNE05.jpg,AMNE17.jpg,AMSA14.jpg,MS,2,num_8,32,num_4,1.03339503286,,,2017_May_01_1702,59.987897772,MAFE4ImagesEEG,001,200187,
AFNE01.JPG,AFNE01.JPG,AFNE01.JPG,AFNE01.JPG,AFNE01.JPG,AFNE01.JPG,3,8,38,5,,,,,,,,,,,,,,,,,,,,,,,AMSA09.jpg,AMNE10.jpg,AMSA02.jpg,AMNE08.jpg,AMSA02.jpg,MS,2,num_2,16,num_2,1.20010975702,,,2017_May_01_1702,59.987897772,MAFE4ImagesEEG,001,200187,
AFNE01.JPG,AFNE01.JPG,AFNE01.JPG,AFNE01.JPG,AFNE01.JPG,AFNE01.JPG,3,9,39,1,,,,,,,,,,,,,,,,,,,,,,,AMNE06.jpg,AMSA09.jpg,AMSA02.jpg,AMNE14.jpg,AMNE14.jpg,MN,1,num_4,16,num_4,0.833502737107,,,2017_May_01_1702,59.987897772,MAFE4ImagesEEG,001,200187,
AFNE01.JPG,AFNE01.JPG,AFNE01.JPG,AFNE01.JPG,AFNE01.JPG,AFNE01.JPG,4,0,40,7,,,,,,,,,,,,,,,,,,,,,,,AMNE02.jpg,AMNE06.jpg,AMSA16.jpg,AMSA03.jpg,AMNE06.jpg,MN,1,num_6,16,num_6,1.06672399351,,,2017_May_01_1702,59.987897772,MAFE4ImagesEEG,001,200187,
AFNE01.JPG,AFNE01.JPG,AFNE01.JPG,AFNE01.JPG,AFNE01.JPG,AFNE01.JPG,4,1,41,6,,,,,,,,,,,,,,,,,,,,,,,AMSA06.jpg,AMNE17.jpg,AMNE06.jpg,AMSA14.jpg,AMSA06.jpg,MS,2,num_8,16,num_8,1.38336788234,,,2017_May_01_1702,59.987897772,MAFE4ImagesEEG,001,200187,
AFNE01.JPG,AFNE01.JPG,AFNE01.JPG,AFNE01.JPG,AFNE01.JPG,AFNE01.JPG,4,2,42,9,,,,,,,,,,,,,,,,,,,,,,,AMNE14.jpg,AMSA13.jpg,AMNE06.jpg,AMSA08.jpg,AMNE14.jpg,MN,1,num_8,32,num_4,0.83347868151,,,2017_May_01_1702,59.987897772,MAFE4ImagesEEG,001,200187,
AFNE01.JPG,AFNE01.JPG,AFNE01.JPG,AFNE01.JPG,AFNE01.JPG,AFNE01.JPG,4,3,43,3,,,,,,,,,,,,,,,,,,,,,,,AMSA01.jpg,AMSA19.jpg,AMNE17.jpg,AMNE18.jpg,AMSA01.jpg,MS,2,num_8,32,num_6,1.23343134066,,,2017_May_01_1702,59.987897772,MAFE4ImagesEEG,001,200187,
AFNE01.JPG,AFNE01.JPG,AFNE01.JPG,AFNE01.JPG,AFNE01.JPG,AFNE01.JPG,4,4,44,0,,,,,,,,,,,,,,,,,,,,,,,AMNE02.jpg,AMSA02.jpg,AMSA09.jpg,AMNE10.jpg,AMNE10.jpg,MN,1,num_4,32,num_8,0.966772713698,,,2017_May_01_1702,59.987897772,MAFE4ImagesEEG,001,200187,
AFNE01.JPG,AFNE01.JPG,AFNE01.JPG,AFNE01.JPG,AFNE01.JPG,AFNE01.JPG,4,5,45,8,,,,,,,,,,,,,,,,,,,,,,,AMSA02.jpg,AMNE07.jpg,AMSA06.jpg,AMNE11.jpg,AMSA02.jpg,MS,2,num_8,32,num_2,1.27263688273,,,2017_May_01_1702,59.987897772,MAFE4ImagesEEG,001,200187,
AFNE01.JPG,AFNE01.JPG,AFNE01.JPG,AFNE01.JPG,AFNE01.JPG,AFNE01.JPG,4,6,46,4,,,,,,,,,,,,,,,,,,,,,,,AMNE12.jpg,AMSA17.jpg,AMSA08.jpg,AMNE09.jpg,AMSA17.jpg,MS,2,num_6,16,num_6,0.883527450031,,,2017_May_01_1702,59.987897772,MAFE4ImagesEEG,001,200187,
AFNE01.JPG,AFNE01.JPG,AFNE01.JPG,AFNE01.JPG,AFNE01.JPG,AFNE01.JPG,4,7,47,2,,,,,,,,,,,,,,,,,,,,,,,AMSA03.jpg,AMNE04.jpg,AMNE14.jpg,AMSA20.jpg,AMNE14.jpg,MN,1,num_2,32,num_4,1.28344643139,,,2017_May_01_1702,59.987897772,MAFE4ImagesEEG,001,200187,
AFNE01.JPG,AFNE01.JPG,AFNE01.JPG,AFNE01.JPG,AFNE01.JPG,AFNE01.JPG,4,8,48,5,,,,,,,,,,,,,,,,,,,,,,,AMSA09.jpg,AMNE04.jpg,AMSA18.jpg,AMNE08.jpg,AMSA09.jpg,MS,2,num_8,32,num_6,1.01677561621,,,2017_May_01_1702,59.987897772,MAFE4ImagesEEG,001,200187,
AFNE01.JPG,AFNE01.JPG,AFNE01.JPG,AFNE01.JPG,AFNE01.JPG,AFNE01.JPG,4,9,49,1,,,,,,,,,,,,,,,,,,,,,,,AMNE10.jpg,AMNE12.jpg,AMSA13.jpg,AMSA11.jpg,AMNE10.jpg,MN,1,num_8,32,num_6,0.866799303098,,,2017_May_01_1702,59.987897772,MAFE4ImagesEEG,001,200187,
AFNE01.JPG,AFNE01.JPG,AFNE01.JPG,AFNE01.JPG,AFNE01.JPG,AFNE01.JPG,5,0,50,6,,,,,,,,,,,,,,,,,,,,,,,AMSA20.jpg,AMNE12.jpg,AMNE01.jpg,AMSA09.jpg,AMNE01.jpg,MN,1,num_2,16,num_2,0.783493419411,,,2017_May_01_1702,59.987897772,MAFE4ImagesEEG,001,200187,
AFNE01.JPG,AFNE01.JPG,AFNE01.JPG,AFNE01.JPG,AFNE01.JPG,AFNE01.JPG,5,1,51,1,,,,,,,,,,,,,,,,,,,,,,,AMNE10.jpg,AMNE02.jpg,AMSA01.jpg,AMSA19.jpg,AMNE10.jpg,MN,1,num_8,32,num_4,0.683487934992,,,2017_May_01_1702,59.987897772,MAFE4ImagesEEG,001,200187,
AFNE01.JPG,AFNE01.JPG,AFNE01.JPG,AFNE01.JPG,AFNE01.JPG,AFNE01.JPG,5,2,52,4,,,,,,,,,,,,,,,,,,,,,,,AMSA17.jpg,AMSA10.jpg,AMNE15.jpg,AMNE04.jpg,AMSA17.jpg,MS,2,num_8,32,num_6,0.966716263676,,,2017_May_01_1702,59.987897772,MAFE4ImagesEEG,001,200187,
AFNE01.JPG,AFNE01.JPG,AFNE01.JPG,AFNE01.JPG,AFNE01.JPG,AFNE01.JPG,5,3,53,8,,,,,,,,,,,,,,,,,,,,,,,AMSA18.jpg,AMSA11.jpg,AMNE19.jpg,AMNE08.jpg,AMSA11.jpg,MS,2,num_6,16,num_6,0.766752443044,,,2017_May_01_1702,59.987897772,MAFE4ImagesEEG,001,200187,
AFNE01.JPG,AFNE01.JPG,AFNE01.JPG,AFNE01.JPG,AFNE01.JPG,AFNE01.JPG,5,4,54,3,,,,,,,,,,,,,,,,,,,,,,,AMNE11.jpg,AMSA19.jpg,AMSA01.jpg,AMNE03.jpg,AMSA19.jpg,MS,2,num_6,32,num_2,0.816779080313,,,2017_May_01_1702,59.987897772,MAFE4ImagesEEG,001,200187,
AFNE01.JPG,AFNE01.JPG,AFNE01.JPG,AFNE01.JPG,AFNE01.JPG,AFNE01.JPG,5,5,55,0,,,,,,,,,,,,,,,,,,,,,,,AMSA19.jpg,AMNE12.jpg,AMNE11.jpg,AMSA08.jpg,AMSA08.jpg,MS,2,num_4,32,num_6,1.66668698005,,,2017_May_01_1702,59.987897772,MAFE4ImagesEEG,001,200187,
AFNE01.JPG,AFNE01.JPG,AFNE01.JPG,AFNE01.JPG,AFNE01.JPG,AFNE01.JPG,5,6,56,5,,,,,,,,,,,,,,,,,,,,,,,AMSA01.jpg,AMNE18.jpg,AMNE12.jpg,AMSA17.jpg,AMSA17.jpg,MS,2,num_4,16,num_4,0.750163496705,,,2017_May_01_1702,59.987897772,MAFE4ImagesEEG,001,200187,
AFNE01.JPG,AFNE01.JPG,AFNE01.JPG,AFNE01.JPG,AFNE01.JPG,AFNE01.JPG,5,7,57,9,,,,,,,,,,,,,,,,,,,,,,,AMSA16.jpg,AMNE16.jpg,AMNE01.jpg,AMSA02.jpg,AMNE16.jpg,MN,1,num_6,32,num_2,2.06666465686,,,2017_May_01_1702,59.987897772,MAFE4ImagesEEG,001,200187,
AFNE01.JPG,AFNE01.JPG,AFNE01.JPG,AFNE01.JPG,AFNE01.JPG,AFNE01.JPG,5,8,58,2,,,,,,,,,,,,,,,,,,,,,,,AMNE14.jpg,AMSA15.jpg,AMSA20.jpg,AMNE18.jpg,AMNE14.jpg,MN,1,num_8,32,num_2,0.900147507899,,,2017_May_01_1702,59.987897772,MAFE4ImagesEEG,001,200187,
AFNE01.JPG,AFNE01.JPG,AFNE01.JPG,AFNE01.JPG,AFNE01.JPG,AFNE01.JPG,5,9,59,7,,,,,,,,,,,,,,,,,,,,,,,AMSA17.jpg,AMNE15.jpg,AMNE17.jpg,AMSA02.jpg,AMSA17.jpg,MS,2,num_8,32,num_2,1.11679553427,,,2017_May_01_1702,59.987897772,MAFE4ImagesEEG,001,200187,
,,,,,,,,,,,,,,,,,,,,,,,,,,,,,,,,,,,,,,,,,,,space,4.44986799988,2017_May_01_1702,59.987897772,MAFE4ImagesEEG,001,200187,
AFNE01.JPG,AFNE01.JPG,AFNE01.JPG,AFNE01.JPG,AFNE01.JPG,AFNE01.JPG,,,,,0,0,0,8,,,,,,,,,,,,,,,,,,,AFSA19.jpg,AFSA16.jpg,AFNE02.jpg,AFNE16.jpg,AFSA16.jpg,FS,4,num_6,32,num_8,1.18344255048,,,2017_May_01_1702,59.987897772,MAFE4ImagesEEG,001,200187,
AFNE01.JPG,AFNE01.JPG,AFNE01.JPG,AFNE01.JPG,AFNE01.JPG,AFNE01.JPG,,,,,0,1,1,7,,,,,,,,,,,,,,,,,,,AFNE19.jpg,AFNE17.jpg,AFSA05.jpg,AFSA15.jpg,AFNE19.jpg,FN,3,num_8,32,num_6,1.0500962378,,,2017_May_01_1702,59.987897772,MAFE4ImagesEEG,001,200187,
AFNE01.JPG,AFNE01.JPG,AFNE01.JPG,AFNE01.JPG,AFNE01.JPG,AFNE01.JPG,,,,,0,2,2,0,,,,,,,,,,,,,,,,,,,AFNE02.jpg,AFSA16.jpg,AFNE08.jpg,AFSA17.jpg,AFSA16.jpg,FS,4,num_6,16,num_6,0.816739629488,,,2017_May_01_1702,59.987897772,MAFE4ImagesEEG,001,200187,
AFNE01.JPG,AFNE01.JPG,AFNE01.JPG,AFNE01.JPG,AFNE01.JPG,AFNE01.JPG,,,,,0,3,3,3,,,,,,,,,,,,,,,,,,,AFSA15.jpg,AFSA18.jpg,AFNE16.jpg,AFNE15.jpg,AFSA18.jpg,FS,4,num_6,32,num_4,1.20009339903,,,2017_May_01_1702,59.987897772,MAFE4ImagesEEG,001,200187,
AFNE01.JPG,AFNE01.JPG,AFNE01.JPG,AFNE01.JPG,AFNE01.JPG,AFNE01.JPG,,,,,0,4,4,2,,,,,,,,,,,,,,,,,,,AFNE06.jpg,AFSA02.jpg,AFSA04.jpg,AFNE08.jpg,AFSA04.jpg,FS,4,num_2,16,num_2,1.26687031472,,,2017_May_01_1702,59.987897772,MAFE4ImagesEEG,001,200187,
AFNE01.JPG,AFNE01.JPG,AFNE01.JPG,AFNE01.JPG,AFNE01.JPG,AFNE01.JPG,,,,,0,5,5,4,,,,,,,,,,,,,,,,,,,AFNE11.jpg,AFSA12.jpg,AFNE04.jpg,AFSA01.jpg,AFNE11.jpg,FN,3,num_8,16,num_8,0.850125681609,,,2017_May_01_1702,59.987897772,MAFE4ImagesEEG,001,200187,
AFNE01.JPG,AFNE01.JPG,AFNE01.JPG,AFNE01.JPG,AFNE01.JPG,AFNE01.JPG,,,,,0,6,6,6,,,,,,,,,,,,,,,,,,,AFSA01.jpg,AFNE08.jpg,AFSA07.jpg,AFNE13.jpg,AFNE08.jpg,FN,3,num_6,16,num_6,1.08342519845,,,2017_May_01_1702,59.987897772,MAFE4ImagesEEG,001,200187,
AFNE01.JPG,AFNE01.JPG,AFNE01.JPG,AFNE01.JPG,AFNE01.JPG,AFNE01.JPG,,,,,0,7,7,5,,,,,,,,,,,,,,,,,,,AFSA19.jpg,AFNE05.jpg,AFNE20.jpg,AFSA13.jpg,AFSA13.jpg,FS,4,num_4,32,num_2,1.36670644884,,,2017_May_01_1702,59.987897772,MAFE4ImagesEEG,001,200187,
AFNE01.JPG,AFNE01.JPG,AFNE01.JPG,AFNE01.JPG,AFNE01.JPG,AFNE01.JPG,,,,,0,8,8,1,,,,,,,,,,,,,,,,,,,AFSA10.jpg,AFSA19.jpg,AFNE03.jpg,AFNE17.jpg,AFSA10.jpg,FS,4,num_8,32,num_4,1.1500683655,,,2017_May_01_1702,59.987897772,MAFE4ImagesEEG,001,200187,
AFNE01.JPG,AFNE01.JPG,AFNE01.JPG,AFNE01.JPG,AFNE01.JPG,AFNE01.JPG,,,,,0,9,9,9,,,,,,,,,,,,,,,,,,,AFNE16.jpg,AFSA06.jpg,AFNE18.jpg,AFSA16.jpg,AFSA06.jpg,FS,4,num_6,16,num_6,0.80015100399,,,2017_May_01_1702,59.987897772,MAFE4ImagesEEG,001,200187,
AFNE01.JPG,AFNE01.JPG,AFNE01.JPG,AFNE01.JPG,AFNE01.JPG,AFNE01.JPG,,,,,1,0,10,4,,,,,,,,,,,,,,,,,,,AFSA13.jpg,AFNE02.jpg,AFSA07.jpg,AFNE19.jpg,AFNE19.jpg,FN,3,num_4,16,num_4,0.950172862271,,,2017_May_01_1702,59.987897772,MAFE4ImagesEEG,001,200187,
AFNE01.JPG,AFNE01.JPG,AFNE01.JPG,AFNE01.JPG,AFNE01.JPG,AFNE01.JPG,,,,,1,1,11,2,,,,,,,,,,,,,,,,,,,AFSA19.jpg,AFNE10.jpg,AFSA04.jpg,AFNE18.jpg,AFSA04.jpg,FS,4,num_2,16,num_2,1.48343943921,,,2017_May_01_1702,59.987897772,MAFE4ImagesEEG,001,200187,
AFNE01.JPG,AFNE01.JPG,AFNE01.JPG,AFNE01.JPG,AFNE01.JPG,AFNE01.JPG,,,,,1,2,12,5,,,,,,,,,,,,,,,,,,,AFNE05.jpg,AFSA05.jpg,AFNE18.jpg,AFSA07.jpg,AFSA05.jpg,FS,4,num_6,16,num_6,0.800171531271,,,2017_May_01_1702,59.987897772,MAFE4ImagesEEG,001,200187,
AFNE01.JPG,AFNE01.JPG,AFNE01.JPG,AFNE01.JPG,AFNE01.JPG,AFNE01.JPG,,,,,1,3,13,8,,,,,,,,,,,,,,,,,,,AFNE13.jpg,AFSA14.jpg,AFSA11.jpg,AFNE18.jpg,AFNE18.jpg,FN,3,num_4,32,num_2,0.716763011413,,,2017_May_01_1702,59.987897772,MAFE4ImagesEEG,001,200187,
AFNE01.JPG,AFNE01.JPG,AFNE01.JPG,AFNE01.JPG,AFNE01.JPG,AFNE01.JPG,,,,,1,4,14,7,,,,,,,,,,,,,,,,,,,AFNE03.jpg,AFSA13.jpg,AFNE06.jpg,AFSA08.jpg,AFSA13.jpg,FS,4,num_6,32,num_2,0.916714964667,,,2017_May_01_1702,59.987897772,MAFE4ImagesEEG,001,200187,
AFNE01.JPG,AFNE01.JPG,AFNE01.JPG,AFNE01.JPG,AFNE01.JPG,AFNE01.JPG,,,,,1,5,15,6,,,,,,,,,,,,,,,,,,,AFSA03.jpg,AFSA17.jpg,AFNE09.jpg,AFNE17.jpg,AFNE17.jpg,FN,3,num_4,32,num_2,0.933488977142,,,2017_May_01_1702,59.987897772,MAFE4ImagesEEG,001,200187,
AFNE01.JPG,AFNE01.JPG,AFNE01.JPG,AFNE01.JPG,AFNE01.JPG,AFNE01.JPG,,,,,1,6,16,1,,,,,,,,,,,,,,,,,,,AFNE16.jpg,AFSA05.jpg,AFSA20.jpg,AFNE17.jpg,AFSA20.jpg,FS,4,num_2,32,num_6,0.733464857563,,,2017_May_01_1702,59.987897772,MAFE4ImagesEEG,001,200187,
AFNE01.JPG,AFNE01.JPG,AFNE01.JPG,AFNE01.JPG,AFNE01.JPG,AFNE01.JPG,,,,,1,7,17,0,,,,,,,,,,,,,,,,,,,AFNE18.jpg,AFSA18.jpg,AFSA20.jpg,AFNE16.jpg,AFSA18.jpg,FS,4,num_6,32,num_4,1.33339095931,,,2017_May_01_1702,59.987897772,MAFE4ImagesEEG,001,200187,
AFNE01.JPG,AFNE01.JPG,AFNE01.JPG,AFNE01.JPG,AFNE01.JPG,AFNE01.JPG,,,,,1,8,18,9,,,,,,,,,,,,,,,,,,,AFNE16.jpg,AFNE05.jpg,AFSA10.jpg,AFSA14.jpg,AFSA10.jpg,FS,4,num_2,32,num_6,3.88293344132,,,2017_May_01_1702,59.987897772,MAFE4ImagesEEG,001,200187,
AFNE01.JPG,AFNE01.JPG,AFNE01.JPG,AFNE01.JPG,AFNE01.JPG,AFNE01.JPG,,,,,1,9,19,3,,,,,,,,,,,,,,,,,,,AFSA06.jpg,AFNE06.jpg,AFNE14.jpg,AFSA07.jpg,AFNE14.jpg,FN,3,num_2,32,num_8,1.18346981332,,,2017_May_01_1702,59.987897772,MAFE4ImagesEEG,001,200187,
AFNE01.JPG,AFNE01.JPG,AFNE01.JPG,AFNE01.JPG,AFNE01.JPG,AFNE01.JPG,,,,,2,0,20,2,,,,,,,,,,,,,,,,,,,AFNE06.jpg,AFNE11.jpg,AFSA15.jpg,AFSA12.jpg,AFNE11.jpg,FN,3,num_6,16,num_6,1.3834515952,,,2017_May_01_1702,59.987897772,MAFE4ImagesEEG,001,200187,
AFNE01.JPG,AFNE01.JPG,AFNE01.JPG,AFNE01.JPG,AFNE01.JPG,AFNE01.JPG,,,,,2,1,21,5,,,,,,,,,,,,,,,,,,,AFNE20.jpg,AFNE19.jpg,AFSA07.jpg,AFSA08.jpg,AFSA07.jpg,FS,4,num_2,16,num_2,0.81679190998,,,2017_May_01_1702,59.987897772,MAFE4ImagesEEG,001,200187,
AFNE01.JPG,AFNE01.JPG,AFNE01.JPG,AFNE01.JPG,AFNE01.JPG,AFNE01.JPG,,,,,2,2,22,9,,,,,,,,,,,,,,,,,,,AFSA20.jpg,AFNE16.jpg,AFSA14.jpg,AFNE12.jpg,AFNE12.jpg,FN,3,num_4,16,num_4,0.500172397355,,,2017_May_01_1702,59.987897772,MAFE4ImagesEEG,001,200187,
AFNE01.JPG,AFNE01.JPG,AFNE01.JPG,AFNE01.JPG,AFNE01.JPG,AFNE01.JPG,,,,,2,3,23,0,,,,,,,,,,,,,,,,,,,AFSA08.jpg,AFSA17.jpg,AFNE07.jpg,AFNE09.jpg,AFSA17.jpg,FS,4,num_6,16,num_6,0.650144862011,,,2017_May_01_1702,59.987897772,MAFE4ImagesEEG,001,200187,
AFNE01.JPG,AFNE01.JPG,AFNE01.JPG,AFNE01.JPG,AFNE01.JPG,AFNE01.JPG,,,,,2,4,24,7,,,,,,,,,,,,,,,,,,,AFNE11.jpg,AFSA13.jpg,AFSA03.jpg,AFNE15.jpg,AFNE11.jpg,FN,3,num_8,16,num_8,0.650105410721,,,2017_May_01_1702,59.987897772,MAFE4ImagesEEG,001,200187,
AFNE01.JPG,AFNE01.JPG,AFNE01.JPG,AFNE01.JPG,AFNE01.JPG,AFNE01.JPG,,,,,2,5,25,3,,,,,,,,,,,,,,,,,,,AFSA12.jpg,AFNE05.jpg,AFNE13.jpg,AFSA14.jpg,AFNE05.jpg,FN,3,num_6,16,num_6,1.11674421607,,,2017_May_01_1702,59.987897772,MAFE4ImagesEEG,001,200187,
AFNE01.JPG,AFNE01.JPG,AFNE01.JPG,AFNE01.JPG,AFNE01.JPG,AFNE01.JPG,,,,,2,6,26,4,,,,,,,,,,,,,,,,,,,AFNE12.jpg,AFSA09.jpg,AFSA17.jpg,AFNE08.jpg,AFNE08.jpg,FN,3,num_4,16,num_4,1.01677721995,,,2017_May_01_1702,59.987897772,MAFE4ImagesEEG,001,200187,
AFNE01.JPG,AFNE01.JPG,AFNE01.JPG,AFNE01.JPG,AFNE01.JPG,AFNE01.JPG,,,,,2,7,27,8,,,,,,,,,,,,,,,,,,,AFNE15.jpg,AFNE16.jpg,AFSA19.jpg,AFSA14.jpg,AFNE15.jpg,FN,3,num_8,32,num_2,1.01672846777,,,2017_May_01_1702,59.987897772,MAFE4ImagesEEG,001,200187,
AFNE01.JPG,AFNE01.JPG,AFNE01.JPG,AFNE01.JPG,AFNE01.JPG,AFNE01.JPG,,,,,2,8,28,6,,,,,,,,,,,,,,,,,,,AFSA13.jpg,AFNE08.jpg,AFNE19.jpg,AFSA20.jpg,AFSA20.jpg,FS,4,num_4,32,num_8,0.783457496902,,,2017_May_01_1702,59.987897772,MAFE4ImagesEEG,001,200187,
AFNE01.JPG,AFNE01.JPG,AFNE01.JPG,AFNE01.JPG,AFNE01.JPG,AFNE01.JPG,,,,,2,9,29,1,,,,,,,,,,,,,,,,,,,AFSA09.jpg,AFNE09.jpg,AFNE02.jpg,AFSA18.jpg,AFNE02.jpg,FN,3,num_2,32,num_8,0.966492066858,,,2017_May_01_1702,59.987897772,MAFE4ImagesEEG,001,200187,
AFNE01.JPG,AFNE01.JPG,AFNE01.JPG,AFNE01.JPG,AFNE01.JPG,AFNE01.JPG,,,,,3,0,30,9,,,,,,,,,,,,,,,,,,,AFSA20.jpg,AFNE20.jpg,AFNE16.jpg,AFSA15.jpg,AFSA15.jpg,FS,4,num_4,32,num_2,0.916820487706,,,2017_May_01_1702,59.987897772,MAFE4ImagesEEG,001,200187,
AFNE01.JPG,AFNE01.JPG,AFNE01.JPG,AFNE01.JPG,AFNE01.JPG,AFNE01.JPG,,,,,3,1,31,3,,,,,,,,,,,,,,,,,,,AFNE04.jpg,AFNE09.jpg,AFSA05.jpg,AFSA19.jpg,AFSA05.jpg,FS,4,num_2,32,num_6,0.80017730454,,,2017_May_01_1702,59.987897772,MAFE4ImagesEEG,001,200187,
AFNE01.JPG,AFNE01.JPG,AFNE01.JPG,AFNE01.JPG,AFNE01.JPG,AFNE01.JPG,,,,,3,2,32,2,,,,,,,,,,,,,,,,,,,AFNE12.jpg,AFNE11.jpg,AFSA11.jpg,AFSA19.jpg,AFNE12.jpg,FN,3,num_8,32,num_4,1.03344699251,,,2017_May_01_1702,59.987897772,MAFE4ImagesEEG,001,200187,
AFNE01.JPG,AFNE01.JPG,AFNE01.JPG,AFNE01.JPG,AFNE01.JPG,AFNE01.JPG,,,,,3,3,33,0,,,,,,,,,,,,,,,,,,,AFNE06.jpg,AFSA02.jpg,AFNE14.jpg,AFSA08.jpg,AFSA02.jpg,FS,4,num_6,16,num_6,0.800154211465,,,2017_May_01_1702,59.987897772,MAFE4ImagesEEG,001,200187,
AFNE01.JPG,AFNE01.JPG,AFNE01.JPG,AFNE01.JPG,AFNE01.JPG,AFNE01.JPG,,,,,3,4,34,5,,,,,,,,,,,,,,,,,,,AFSA10.jpg,AFNE02.jpg,AFSA09.jpg,AFNE08.jpg,AFNE02.jpg,FN,3,num_6,32,num_2,0.666771976044,,,2017_May_01_1702,59.987897772,MAFE4ImagesEEG,001,200187,
AFNE01.JPG,AFNE01.JPG,AFNE01.JPG,AFNE01.JPG,AFNE01.JPG,AFNE01.JPG,,,,,3,5,35,4,,,,,,,,,,,,,,,,,,,AFNE20.jpg,AFNE15.jpg,AFSA02.jpg,AFSA20.jpg,AFSA02.jpg,FS,4,num_2,32,num_6,0.766793176997,,,2017_May_01_1702,59.987897772,MAFE4ImagesEEG,001,200187,
AFNE01.JPG,AFNE01.JPG,AFNE01.JPG,AFNE01.JPG,AFNE01.JPG,AFNE01.JPG,,,,,3,6,36,1,,,,,,,,,,,,,,,,,,,AFNE04.jpg,AFSA16.jpg,AFNE14.jpg,AFSA05.jpg,AFNE14.jpg,FN,3,num_2,32,num_8,0.833461361704,,,2017_May_01_1702,59.987897772,MAFE4ImagesEEG,001,200187,
AFNE01.JPG,AFNE01.JPG,AFNE01.JPG,AFNE01.JPG,AFNE01.JPG,AFNE01.JPG,,,,,3,7,37,7,,,,,,,,,,,,,,,,,,,AFNE09.jpg,AFSA08.jpg,AFSA12.jpg,AFNE15.jpg,AFSA08.jpg,FS,4,num_6,32,num_2,0.71680599032,,,2017_May_01_1702,59.987897772,MAFE4ImagesEEG,001,200187,
AFNE01.JPG,AFNE01.JPG,AFNE01.JPG,AFNE01.JPG,AFNE01.JPG,AFNE01.JPG,,,,,3,8,38,8,,,,,,,,,,,,,,,,,,,AFNE02.jpg,AFSA17.jpg,AFNE15.jpg,AFSA10.jpg,AFSA17.jpg,FS,4,num_6,16,num_6,1.71676878468,,,2017_May_01_1702,59.987897772,MAFE4ImagesEEG,001,200187,
AFNE01.JPG,AFNE01.JPG,AFNE01.JPG,AFNE01.JPG,AFNE01.JPG,AFNE01.JPG,,,,,3,9,39,6,,,,,,,,,,,,,,,,,,,AFSA08.jpg,AFNE20.jpg,AFSA15.jpg,AFNE14.jpg,AFSA08.jpg,FS,4,num_8,16,num_8,0.583485978423,,,2017_May_01_1702,59.987897772,MAFE4ImagesEEG,001,200187,
AFNE01.JPG,AFNE01.JPG,AFNE01.JPG,AFNE01.JPG,AFNE01.JPG,AFNE01.JPG,,,,,4,0,40,3,,,,,,,,,,,,,,,,,,,AFNE03.jpg,AFNE19.jpg,AFSA09.jpg,AFSA17.jpg,AFSA17.jpg,FS,4,num_4,16,num_4,0.466790514765,,,2017_May_01_1702,59.987897772,MAFE4ImagesEEG,001,200187,
AFNE01.JPG,AFNE01.JPG,AFNE01.JPG,AFNE01.JPG,AFNE01.JPG,AFNE01.JPG,,,,,4,1,41,7,,,,,,,,,,,,,,,,,,,AFSA01.jpg,AFNE13.jpg,AFSA18.jpg,AFNE10.jpg,AFSA01.jpg,FS,4,num_8,32,num_2,0.850153585896,,,2017_May_01_1702,59.987897772,MAFE4ImagesEEG,001,200187,
AFNE01.JPG,AFNE01.JPG,AFNE01.JPG,AFNE01.JPG,AFNE01.JPG,AFNE01.JPG,,,,,4,2,42,0,,,,,,,,,,,,,,,,,,,AFNE16.jpg,AFNE06.jpg,AFSA04.jpg,AFSA06.jpg,AFSA06.jpg,FS,4,num_4,16,num_4,0.500194528373,,,2017_May_01_1702,59.987897772,MAFE4ImagesEEG,001,200187,
AFNE01.JPG,AFNE01.JPG,AFNE01.JPG,AFNE01.JPG,AFNE01.JPG,AFNE01.JPG,,,,,4,3,43,2,,,,,,,,,,,,,,,,,,,AFSA05.jpg,AFSA19.jpg,AFNE20.jpg,AFNE15.jpg,AFSA05.jpg,FS,4,num_8,16,num_8,0.666818162426,,,2017_May_01_1702,59.987897772,MAFE4ImagesEEG,001,200187,
AFNE01.JPG,AFNE01.JPG,AFNE01.JPG,AFNE01.JPG,AFNE01.JPG,AFNE01.JPG,,,,,4,4,44,6,,,,,,,,,,,,,,,,,,,AFNE02.jpg,AFNE09.jpg,AFSA10.jpg,AFSA04.jpg,AFNE09.jpg,FN,3,num_6,32,num_8,0.816789664561,,,2017_May_01_1702,59.987897772,MAFE4ImagesEEG,001,200187,
AFNE01.JPG,AFNE01.JPG,AFNE01.JPG,AFNE01.JPG,AFNE01.JPG,AFNE01.JPG,,,,,4,5,45,9,,,,,,,,,,,,,,,,,,,AFNE16.jpg,AFSA13.jpg,AFSA04.jpg,AFNE07.jpg,AFNE07.jpg,FN,3,num_4,16,num_4,1.10013089352,,,2017_May_01_1702,59.987897772,MAFE4ImagesEEG,001,200187,
AFNE01.JPG,AFNE01.JPG,AFNE01.JPG,AFNE01.JPG,AFNE01.JPG,AFNE01.JPG,,,,,4,6,46,5,,,,,,,,,,,,,,,,,,,AFSA11.jpg,AFSA19.jpg,AFNE01.jpg,AFNE09.jpg,AFSA11.jpg,FS,4,num_8,16,num_8,0.61667253077,,,2017_May_01_1702,59.987897772,MAFE4ImagesEEG,001,200187,
AFNE01.JPG,AFNE01.JPG,AFNE01.JPG,AFNE01.JPG,AFNE01.JPG,AFNE01.JPG,,,,,4,7,47,8,,,,,,,,,,,,,,,,,,,AFSA17.jpg,AFSA07.jpg,AFNE19.jpg,AFNE01.jpg,AFNE01.jpg,FN,3,num_4,16,num_4,0.700122105423,,,2017_May_01_1702,59.987897772,MAFE4ImagesEEG,001,200187,
AFNE01.JPG,AFNE01.JPG,AFNE01.JPG,AFNE01.JPG,AFNE01.JPG,AFNE01.JPG,,,,,4,8,48,4,,,,,,,,,,,,,,,,,,,AFSA02.jpg,AFNE08.jpg,AFSA10.jpg,AFNE04.jpg,AFNE08.jpg,FN,3,num_6,16,num_6,0.900089774746,,,2017_May_01_1702,59.987897772,MAFE4ImagesEEG,001,200187,
AFNE01.JPG,AFNE01.JPG,AFNE01.JPG,AFNE01.JPG,AFNE01.JPG,AFNE01.JPG,,,,,4,9,49,1,,,,,,,,,,,,,,,,,,,AFSA19.jpg,AFSA04.jpg,AFNE19.jpg,AFNE18.jpg,AFSA19.jpg,FS,4,num_8,32,num_2,1.10007348144,,,2017_May_01_1702,59.987897772,MAFE4ImagesEEG,001,200187,
AFNE01.JPG,AFNE01.JPG,AFNE01.JPG,AFNE01.JPG,AFNE01.JPG,AFNE01.JPG,,,,,5,0,50,8,,,,,,,,,,,,,,,,,,,AFNE17.jpg,AFNE13.jpg,AFSA14.jpg,AFSA02.jpg,AFNE13.jpg,FN,3,num_6,32,num_8,3.31657172251,,,2017_May_01_1702,59.987897772,MAFE4ImagesEEG,001,200187,
AFNE01.JPG,AFNE01.JPG,AFNE01.JPG,AFNE01.JPG,AFNE01.JPG,AFNE01.JPG,,,,,5,1,51,6,,,,,,,,,,,,,,,,,,,AFNE16.jpg,AFSA04.jpg,AFNE04.jpg,AFSA13.jpg,AFNE04.jpg,FN,3,num_2,16,num_2,1.00021232921,,,2017_May_01_1702,59.987897772,MAFE4ImagesEEG,001,200187,
AFNE01.JPG,AFNE01.JPG,AFNE01.JPG,AFNE01.JPG,AFNE01.JPG,AFNE01.JPG,,,,,5,2,52,0,,,,,,,,,,,,,,,,,,,AFNE01.jpg,AFSA17.jpg,AFSA12.jpg,AFNE05.jpg,AFSA12.jpg,FS,4,num_2,32,num_4,2.61650478444,,,2017_May_01_1702,59.987897772,MAFE4ImagesEEG,001,200187,
AFNE01.JPG,AFNE01.JPG,AFNE01.JPG,AFNE01.JPG,AFNE01.JPG,AFNE01.JPG,,,,,5,3,53,7,,,,,,,,,,,,,,,,,,,AFNE09.jpg,AFSA09.jpg,AFNE02.jpg,AFSA15.jpg,AFNE02.jpg,FN,3,num_2,32,num_8,1.2000792867,,,2017_May_01_1702,59.987897772,MAFE4ImagesEEG,001,200187,
AFNE01.JPG,AFNE01.JPG,AFNE01.JPG,AFNE01.JPG,AFNE01.JPG,AFNE01.JPG,,,,,5,4,54,9,,,,,,,,,,,,,,,,,,,AFSA05.jpg,AFNE01.jpg,AFSA14.jpg,AFNE04.jpg,AFSA05.jpg,FS,4,num_8,16,num_8,0.51678764401,,,2017_May_01_1702,59.987897772,MAFE4ImagesEEG,001,200187,
AFNE01.JPG,AFNE01.JPG,AFNE01.JPG,AFNE01.JPG,AFNE01.JPG,AFNE01.JPG,,,,,5,5,55,5,,,,,,,,,,,,,,,,,,,AFSA18.jpg,AFSA19.jpg,AFNE10.jpg,AFNE13.jpg,AFNE10.jpg,FN,3,num_2,16,num_2,1.26673496258,,,2017_May_01_1702,59.987897772,MAFE4ImagesEEG,001,200187,
AFNE01.JPG,AFNE01.JPG,AFNE01.JPG,AFNE01.JPG,AFNE01.JPG,AFNE01.JPG,,,,,5,6,56,4,,,,,,,,,,,,,,,,,,,AFNE20.jpg,AFNE02.jpg,AFSA07.jpg,AFSA01.jpg,AFSA07.jpg,FS,4,num_2,16,num_2,0.716774878558,,,2017_May_01_1702,59.987897772,MAFE4ImagesEEG,001,200187,
AFNE01.JPG,AFNE01.JPG,AFNE01.JPG,AFNE01.JPG,AFNE01.JPG,AFNE01.JPG,,,,,5,7,57,1,,,,,,,,,,,,,,,,,,,AFSA14.jpg,AFSA05.jpg,AFNE17.jpg,AFNE11.jpg,AFNE17.jpg,FN,3,num_2,32,num_8,0.933497637277,,,2017_May_01_1702,59.987897772,MAFE4ImagesEEG,001,200187,
AFNE01.JPG,AFNE01.JPG,AFNE01.JPG,AFNE01.JPG,AFNE01.JPG,AFNE01.JPG,,,,,5,8,58,2,,,,,,,,,,,,,,,,,,,AFNE12.jpg,AFNE18.jpg,AFSA09.jpg,AFSA02.jpg,AFSA02.jpg,FS,4,num_4,16,num_4,1.25008988706,,,2017_May_01_1702,59.987897772,MAFE4ImagesEEG,001,200187,
AFNE01.JPG,AFNE01.JPG,AFNE01.JPG,AFNE01.JPG,AFNE01.JPG,AFNE01.JPG,,,,,5,9,59,3,,,,,,,,,,,,,,,,,,,AFNE19.jpg,AFSA18.jpg,AFNE04.jpg,AFSA04.jpg,AFSA04.jpg,FS,4,num_4,16,num_4,0.733528364217,,,2017_May_01_1702,59.987897772,MAFE4ImagesEEG,001,200187,
,,,,,,,,,,,,,,,,,,,,,,,,,,,,,,,,,,,,,,,,,,,space,46.2798756431,2017_May_01_1702,59.987897772,MAFE4ImagesEEG,001,200187,
AFNE01.JPG,AFNE01.JPG,AFNE01.JPG,AFNE01.JPG,AFNE01.JPG,AFNE01.JPG,,,,,,,,,0,0,0,7,,,,,,,,,,,,,,,AMNE10.jpg,AMSA09.jpg,AMNE05.jpg,AMSA19.jpg,AMSA19.jpg,MS,2,num_4,16,num_4,0.933476789156,,,2017_May_01_1702,59.987897772,MAFE4ImagesEEG,001,200187,
AFNE01.JPG,AFNE01.JPG,AFNE01.JPG,AFNE01.JPG,AFNE01.JPG,AFNE01.JPG,,,,,,,,,0,1,1,4,,,,,,,,,,,,,,,AMSA19.jpg,AMNE06.jpg,AMNE01.jpg,AMSA08.jpg,AMSA08.jpg,MS,2,num_4,16,num_4,1.7667094639,,,2017_May_01_1702,59.987897772,MAFE4ImagesEEG,001,200187,
AFNE01.JPG,AFNE01.JPG,AFNE01.JPG,AFNE01.JPG,AFNE01.JPG,AFNE01.JPG,,,,,,,,,0,2,2,3,,,,,,,,,,,,,,,AMNE11.jpg,AMNE10.jpg,AMSA19.jpg,AMSA16.jpg,AMSA16.jpg,MS,2,num_4,32,num_2,1.31673433725,,,2017_May_01_1702,59.987897772,MAFE4ImagesEEG,001,200187,
AFNE01.JPG,AFNE01.JPG,AFNE01.JPG,AFNE01.JPG,AFNE01.JPG,AFNE01.JPG,,,,,,,,,0,3,3,8,,,,,,,,,,,,,,,AMNE14.jpg,AMNE20.jpg,AMSA06.jpg,AMSA18.jpg,AMNE14.jpg,MN,1,num_8,32,num_6,1.51676743757,,,2017_May_01_1702,59.987897772,MAFE4ImagesEEG,001,200187,
AFNE01.JPG,AFNE01.JPG,AFNE01.JPG,AFNE01.JPG,AFNE01.JPG,AFNE01.JPG,,,,,,,,,0,4,4,1,,,,,,,,,,,,,,,AMNE08.jpg,AMSA07.jpg,AMSA05.jpg,AMNE04.jpg,AMNE08.jpg,MN,1,num_8,32,num_4,1.23345603747,,,2017_May_01_1702,59.987897772,MAFE4ImagesEEG,001,200187,
AFNE01.JPG,AFNE01.JPG,AFNE01.JPG,AFNE01.JPG,AFNE01.JPG,AFNE01.JPG,,,,,,,,,0,5,5,6,,,,,,,,,,,,,,,AMNE08.jpg,AMSA17.jpg,AMSA03.jpg,AMNE17.jpg,AMNE08.jpg,MN,1,num_8,32,num_4,1.15039487812,,,2017_May_01_1702,59.987897772,MAFE4ImagesEEG,001,200187,
AFNE01.JPG,AFNE01.JPG,AFNE01.JPG,AFNE01.JPG,AFNE01.JPG,AFNE01.JPG,,,,,,,,,0,6,6,5,,,,,,,,,,,,,,,AMNE12.jpg,AMSA01.jpg,AMNE02.jpg,AMSA13.jpg,AMSA13.jpg,MS,2,num_4,16,num_4,0.549961687764,,,2017_May_01_1702,59.987897772,MAFE4ImagesEEG,001,200187,
AFNE01.JPG,AFNE01.JPG,AFNE01.JPG,AFNE01.JPG,AFNE01.JPG,AFNE01.JPG,,,,,,,,,0,7,7,9,,,,,,,,,,,,,,,AMSA09.jpg,AMSA04.jpg,AMNE15.jpg,AMNE07.jpg,AMNE15.jpg,MN,1,num_2,16,num_2,0.466768704588,,,2017_May_01_1702,59.987897772,MAFE4ImagesEEG,001,200187,
AFNE01.JPG,AFNE01.JPG,AFNE01.JPG,AFNE01.JPG,AFNE01.JPG,AFNE01.JPG,,,,,,,,,0,8,8,0,,,,,,,,,,,,,,,AMNE03.jpg,AMSA01.jpg,AMNE04.jpg,AMSA03.jpg,AMNE03.jpg,MN,1,num_8,16,num_8,0.816788381897,,,2017_May_01_1702,59.987897772,MAFE4ImagesEEG,001,200187,
AFNE01.JPG,AFNE01.JPG,AFNE01.JPG,AFNE01.JPG,AFNE01.JPG,AFNE01.JPG,,,,,,,,,0,9,9,2,,,,,,,,,,,,,,,AMSA11.jpg,AMSA10.jpg,AMNE02.jpg,AMNE05.jpg,AMSA11.jpg,MS,2,num_8,16,num_8,1.28344514826,,,2017_May_01_1702,59.987897772,MAFE4ImagesEEG,001,200187,
AFNE01.JPG,AFNE01.JPG,AFNE01.JPG,AFNE01.JPG,AFNE01.JPG,AFNE01.JPG,,,,,,,,,1,0,10,5,,,,,,,,,,,,,,,AMSA16.jpg,AMNE05.jpg,AMSA09.jpg,AMNE11.jpg,AMNE05.jpg,MN,1,num_6,32,num_4,1.30010594008,,,2017_May_01_1702,59.987897772,MAFE4ImagesEEG,001,200187,
AFNE01.JPG,AFNE01.JPG,AFNE01.JPG,AFNE01.JPG,AFNE01.JPG,AFNE01.JPG,,,,,,,,,1,1,11,8,,,,,,,,,,,,,,,AMNE11.jpg,AMSA02.jpg,AMSA07.jpg,AMNE02.jpg,AMSA07.jpg,MS,2,num_2,32,num_6,1.05013376428,,,2017_May_01_1702,59.987897772,MAFE4ImagesEEG,001,200187,
AFNE01.JPG,AFNE01.JPG,AFNE01.JPG,AFNE01.JPG,AFNE01.JPG,AFNE01.JPG,,,,,,,,,1,2,12,3,,,,,,,,,,,,,,,AMNE06.jpg,AMSA13.jpg,AMNE12.jpg,AMSA04.jpg,AMNE06.jpg,MN,1,num_8,16,num_8,1.38343202998,,,2017_May_01_1702,59.987897772,MAFE4ImagesEEG,001,200187,
AFNE01.JPG,AFNE01.JPG,AFNE01.JPG,AFNE01.JPG,AFNE01.JPG,AFNE01.JPG,,,,,,,,,1,3,13,4,,,,,,,,,,,,,,,AMSA17.jpg,AMSA03.jpg,AMNE06.jpg,AMNE01.jpg,AMNE01.jpg,MN,1,num_4,16,num_4,0.816796400119,,,2017_May_01_1702,59.987897772,MAFE4ImagesEEG,001,200187,
AFNE01.JPG,AFNE01.JPG,AFNE01.JPG,AFNE01.JPG,AFNE01.JPG,AFNE01.JPG,,,,,,,,,1,4,14,0,,,,,,,,,,,,,,,AMNE16.jpg,AMSA08.jpg,AMSA06.jpg,AMNE09.jpg,AMSA06.jpg,MS,2,num_2,16,num_2,0.683506537694,,,2017_May_01_1702,59.987897772,MAFE4ImagesEEG,001,200187,
AFNE01.JPG,AFNE01.JPG,AFNE01.JPG,AFNE01.JPG,AFNE01.JPG,AFNE01.JPG,,,,,,,,,1,5,15,2,,,,,,,,,,,,,,,AMSA07.jpg,AMNE06.jpg,AMNE11.jpg,AMSA16.jpg,AMSA16.jpg,MS,2,num_4,16,num_4,1.26662655291,,,2017_May_01_1702,59.987897772,MAFE4ImagesEEG,001,200187,
AFNE01.JPG,AFNE01.JPG,AFNE01.JPG,AFNE01.JPG,AFNE01.JPG,AFNE01.JPG,,,,,,,,,1,6,16,6,,,,,,,,,,,,,,,AMSA20.jpg,AMNE03.jpg,AMSA18.jpg,AMNE17.jpg,AMNE03.jpg,MN,1,num_6,32,num_8,0.866798661416,,,2017_May_01_1702,59.987897772,MAFE4ImagesEEG,001,200187,
AFNE01.JPG,AFNE01.JPG,AFNE01.JPG,AFNE01.JPG,AFNE01.JPG,AFNE01.JPG,,,,,,,,,1,7,17,7,,,,,,,,,,,,,,,AMNE17.jpg,AMNE13.jpg,AMSA19.jpg,AMSA11.jpg,AMSA19.jpg,MS,2,num_2,16,num_2,0.700227628462,,,2017_May_01_1702,59.987897772,MAFE4ImagesEEG,001,200187,
AFNE01.JPG,AFNE01.JPG,AFNE01.JPG,AFNE01.JPG,AFNE01.JPG,AFNE01.JPG,,,,,,,,,1,8,18,1,,,,,,,,,,,,,,,AMNE03.jpg,AMNE05.jpg,AMSA08.jpg,AMSA03.jpg,AMNE05.jpg,MN,1,num_6,16,num_6,1.16677117418,,,2017_May_01_1702,59.987897772,MAFE4ImagesEEG,001,200187,
AFNE01.JPG,AFNE01.JPG,AFNE01.JPG,AFNE01.JPG,AFNE01.JPG,AFNE01.JPG,,,,,,,,,1,9,19,9,,,,,,,,,,,,,,,AMNE07.jpg,AMSA10.jpg,AMNE02.jpg,AMSA08.jpg,AMSA08.jpg,MS,2,num_4,32,num_6,0.633446222637,,,2017_May_01_1702,59.987897772,MAFE4ImagesEEG,001,200187,
AFNE01.JPG,AFNE01.JPG,AFNE01.JPG,AFNE01.JPG,AFNE01.JPG,AFNE01.JPG,,,,,,,,,2,0,20,5,,,,,,,,,,,,,,,AMNE06.jpg,AMNE10.jpg,AMSA20.jpg,AMSA02.jpg,AMSA02.jpg,MS,2,num_4,16,num_4,0.616769394139,,,2017_May_01_1702,59.987897772,MAFE4ImagesEEG,001,200187,
AFNE01.JPG,AFNE01.JPG,AFNE01.JPG,AFNE01.JPG,AFNE01.JPG,AFNE01.JPG,,,,,,,,,2,1,21,3,,,,,,,,,,,,,,,AMSA19.jpg,AMNE05.jpg,AMNE14.jpg,AMSA17.jpg,AMNE14.jpg,MN,1,num_2,16,num_2,1.06676729326,,,2017_May_01_1702,59.987897772,MAFE4ImagesEEG,001,200187,
AFNE01.JPG,AFNE01.JPG,AFNE01.JPG,AFNE01.JPG,AFNE01.JPG,AFNE01.JPG,,,,,,,,,2,2,22,4,,,,,,,,,,,,,,,AMNE08.jpg,AMSA01.jpg,AMSA11.jpg,AMNE03.jpg,AMNE08.jpg,MN,1,num_8,32,num_6,0.650132032111,,,2017_May_01_1702,59.987897772,MAFE4ImagesEEG,001,200187,
AFNE01.JPG,AFNE01.JPG,AFNE01.JPG,AFNE01.JPG,AFNE01.JPG,AFNE01.JPG,,,,,,,,,2,3,23,0,,,,,,,,,,,,,,,AMSA02.jpg,AMNE11.jpg,AMNE12.jpg,AMSA01.jpg,AMSA01.jpg,MS,2,num_4,32,num_8,0.783459100639,,,2017_May_01_1702,59.987897772,MAFE4ImagesEEG,001,200187,
AFNE01.JPG,AFNE01.JPG,AFNE01.JPG,AFNE01.JPG,AFNE01.JPG,AFNE01.JPG,,,,,,,,,2,4,24,7,,,,,,,,,,,,,,,AMSA01.jpg,AMNE08.jpg,AMNE03.jpg,AMSA16.jpg,AMNE03.jpg,MN,1,num_2,16,num_2,0.866778134136,,,2017_May_01_1702,59.987897772,MAFE4ImagesEEG,001,200187,
AFNE01.JPG,AFNE01.JPG,AFNE01.JPG,AFNE01.JPG,AFNE01.JPG,AFNE01.JPG,,,,,,,,,2,5,25,9,,,,,,,,,,,,,,,AMSA07.jpg,AMSA18.jpg,AMNE13.jpg,AMNE07.jpg,AMSA07.jpg,MS,2,num_8,32,num_6,1.54975673556,,,2017_May_01_1702,59.987897772,MAFE4ImagesEEG,001,200187,
AFNE01.JPG,AFNE01.JPG,AFNE01.JPG,AFNE01.JPG,AFNE01.JPG,AFNE01.JPG,,,,,,,,,2,6,26,2,,,,,,,,,,,,,,,AMNE17.jpg,AMNE13.jpg,AMSA11.jpg,AMSA03.jpg,AMNE17.jpg,MN,1,num_8,32,num_6,1.26680969493,,,2017_May_01_1702,59.987897772,MAFE4ImagesEEG,001,200187,
AFNE01.JPG,AFNE01.JPG,AFNE01.JPG,AFNE01.JPG,AFNE01.JPG,AFNE01.JPG,,,,,,,,,2,7,27,1,,,,,,,,,,,,,,,AMNE13.jpg,AMSA05.jpg,AMSA09.jpg,AMNE06.jpg,AMSA05.jpg,MS,2,num_6,32,num_2,0.90009394451,,,2017_May_01_1702,59.987897772,MAFE4ImagesEEG,001,200187,
AFNE01.JPG,AFNE01.JPG,AFNE01.JPG,AFNE01.JPG,AFNE01.JPG,AFNE01.JPG,,,,,,,,,2,8,28,6,,,,,,,,,,,,,,,AMNE07.jpg,AMNE13.jpg,AMSA07.jpg,AMSA03.jpg,AMSA03.jpg,MS,2,num_4,32,num_2,1.40009538783,,,2017_May_01_1702,59.987897772,MAFE4ImagesEEG,001,200187,
AFNE01.JPG,AFNE01.JPG,AFNE01.JPG,AFNE01.JPG,AFNE01.JPG,AFNE01.JPG,,,,,,,,,2,9,29,8,,,,,,,,,,,,,,,AMSA07.jpg,AMSA19.jpg,AMNE13.jpg,AMNE02.jpg,AMSA07.jpg,MS,2,num_8,32,num_2,1.13340276247,,,2017_May_01_1702,59.987897772,MAFE4ImagesEEG,001,200187,
AFNE01.JPG,AFNE01.JPG,AFNE01.JPG,AFNE01.JPG,AFNE01.JPG,AFNE01.JPG,,,,,,,,,3,0,30,0,,,,,,,,,,,,,,,AMSA18.jpg,AMNE20.jpg,AMSA17.jpg,AMNE08.jpg,AMSA18.jpg,MS,2,num_8,16,num_8,2.73312455346,,,2017_May_01_1702,59.987897772,MAFE4ImagesEEG,001,200187,
AFNE01.JPG,AFNE01.JPG,AFNE01.JPG,AFNE01.JPG,AFNE01.JPG,AFNE01.JPG,,,,,,,,,3,1,31,6,,,,,,,,,,,,,,,AMNE12.jpg,AMSA14.jpg,AMSA03.jpg,AMNE10.jpg,AMNE12.jpg,MN,1,num_8,32,num_4,1.10010042344,,,2017_May_01_1702,59.987897772,MAFE4ImagesEEG,001,200187,
AFNE01.JPG,AFNE01.JPG,AFNE01.JPG,AFNE01.JPG,AFNE01.JPG,AFNE01.JPG,,,,,,,,,3,2,32,9,,,,,,,,,,,,,,,AMNE06.jpg,AMNE07.jpg,AMSA08.jpg,AMSA03.jpg,AMSA03.jpg,MS,2,num_4,16,num_4,0.600143241929,,,2017_May_01_1702,59.987897772,MAFE4ImagesEEG,001,200187,
AFNE01.JPG,AFNE01.JPG,AFNE01.JPG,AFNE01.JPG,AFNE01.JPG,AFNE01.JPG,,,,,,,,,3,3,33,4,,,,,,,,,,,,,,,AMNE09.jpg,AMNE17.jpg,AMSA04.jpg,AMSA02.jpg,AMNE17.jpg,MN,1,num_6,32,num_8,0.950145278824,,,2017_May_01_1702,59.987897772,MAFE4ImagesEEG,001,200187,
AFNE01.JPG,AFNE01.JPG,AFNE01.JPG,AFNE01.JPG,AFNE01.JPG,AFNE01.JPG,,,,,,,,,3,4,34,1,,,,,,,,,,,,,,,AMSA20.jpg,AMNE20.jpg,AMSA11.jpg,AMNE08.jpg,AMNE20.jpg,MN,1,num_6,16,num_6,1.98335845256,,,2017_May_01_1702,59.987897772,MAFE4ImagesEEG,001,200187,
AFNE01.JPG,AFNE01.JPG,AFNE01.JPG,AFNE01.JPG,AFNE01.JPG,AFNE01.JPG,,,,,,,,,3,5,35,3,,,,,,,,,,,,,,,AMSA01.jpg,AMNE01.jpg,AMSA06.jpg,AMNE14.jpg,AMSA06.jpg,MS,2,num_2,32,num_4,1.01667169714,,,2017_May_01_1702,59.987897772,MAFE4ImagesEEG,001,200187,
AFNE01.JPG,AFNE01.JPG,AFNE01.JPG,AFNE01.JPG,AFNE01.JPG,AFNE01.JPG,,,,,,,,,3,6,36,2,,,,,,,,,,,,,,,AMNE02.jpg,AMNE05.jpg,AMSA15.jpg,AMSA17.jpg,AMSA17.jpg,MS,2,num_4,16,num_4,0.583483733237,,,2017_May_01_1702,59.987897772,MAFE4ImagesEEG,001,200187,
AFNE01.JPG,AFNE01.JPG,AFNE01.JPG,AFNE01.JPG,AFNE01.JPG,AFNE01.JPG,,,,,,,,,3,7,37,8,,,,,,,,,,,,,,,AMSA07.jpg,AMNE20.jpg,AMNE15.jpg,AMSA06.jpg,AMNE15.jpg,MN,1,num_2,32,num_6,0.816816286184,,,2017_May_01_1702,59.987897772,MAFE4ImagesEEG,001,200187,
AFNE01.JPG,AFNE01.JPG,AFNE01.JPG,AFNE01.JPG,AFNE01.JPG,AFNE01.JPG,,,,,,,,,3,8,38,5,,,,,,,,,,,,,,,AMNE03.jpg,AMNE17.jpg,AMSA08.jpg,AMSA09.jpg,AMNE17.jpg,MN,1,num_6,32,num_8,1.13348840014,,,2017_May_01_1702,59.987897772,MAFE4ImagesEEG,001,200187,
AFNE01.JPG,AFNE01.JPG,AFNE01.JPG,AFNE01.JPG,AFNE01.JPG,AFNE01.JPG,,,,,,,,,3,9,39,7,,,,,,,,,,,,,,,AMSA01.jpg,AMNE18.jpg,AMNE16.jpg,AMSA07.jpg,AMNE18.jpg,MN,1,num_6,32,num_2,0.800123741152,,,2017_May_01_1702,59.987897772,MAFE4ImagesEEG,001,200187,
AFNE01.JPG,AFNE01.JPG,AFNE01.JPG,AFNE01.JPG,AFNE01.JPG,AFNE01.JPG,,,,,,,,,4,0,40,7,,,,,,,,,,,,,,,AMSA02.jpg,AMNE20.jpg,AMSA15.jpg,AMNE11.jpg,AMSA15.jpg,MS,2,num_2,32,num_8,1.21676541679,,,2017_May_01_1702,59.987897772,MAFE4ImagesEEG,001,200187,
AFNE01.JPG,AFNE01.JPG,AFNE01.JPG,AFNE01.JPG,AFNE01.JPG,AFNE01.JPG,,,,,,,,,4,1,41,6,,,,,,,,,,,,,,,AMNE17.jpg,AMSA07.jpg,AMNE04.jpg,AMSA04.jpg,AMSA04.jpg,MS,2,num_4,16,num_4,0.516760381171,,,2017_May_01_1702,59.987897772,MAFE4ImagesEEG,001,200187,
AFNE01.JPG,AFNE01.JPG,AFNE01.JPG,AFNE01.JPG,AFNE01.JPG,AFNE01.JPG,,,,,,,,,4,2,42,1,,,,,,,,,,,,,,,AMNE05.jpg,AMSA01.jpg,AMNE18.jpg,AMSA15.jpg,AMSA01.jpg,MS,2,num_6,16,num_6,0.600082943216,,,2017_May_01_1702,59.987897772,MAFE4ImagesEEG,001,200187,
AFNE01.JPG,AFNE01.JPG,AFNE01.JPG,AFNE01.JPG,AFNE01.JPG,AFNE01.JPG,,,,,,,,,4,3,43,3,,,,,,,,,,,,,,,AMSA04.jpg,AMNE19.jpg,AMNE02.jpg,AMSA05.jpg,AMNE02.jpg,MN,1,num_2,16,num_2,1.5834737902,,,2017_May_01_1702,59.987897772,MAFE4ImagesEEG,001,200187,
AFNE01.JPG,AFNE01.JPG,AFNE01.JPG,AFNE01.JPG,AFNE01.JPG,AFNE01.JPG,,,,,,,,,4,4,44,8,,,,,,,,,,,,,,,AMSA14.jpg,AMNE09.jpg,AMNE15.jpg,AMSA06.jpg,AMNE15.jpg,MN,1,num_2,32,num_6,1.20021111052,,,2017_May_01_1702,59.987897772,MAFE4ImagesEEG,001,200187,
AFNE01.JPG,AFNE01.JPG,AFNE01.JPG,AFNE01.JPG,AFNE01.JPG,AFNE01.JPG,,,,,,,,,4,5,45,9,,,,,,,,,,,,,,,AMNE19.jpg,AMSA10.jpg,AMNE06.jpg,AMSA18.jpg,AMNE19.jpg,MN,1,num_8,32,num_2,0.916892012581,,,2017_May_01_1702,59.987897772,MAFE4ImagesEEG,001,200187,
AFNE01.JPG,AFNE01.JPG,AFNE01.JPG,AFNE01.JPG,AFNE01.JPG,AFNE01.JPG,,,,,,,,,4,6,46,0,,,,,,,,,,,,,,,AMNE14.jpg,AMNE18.jpg,AMSA05.jpg,AMSA15.jpg,AMSA15.jpg,MS,2,num_4,32,num_2,1.01676086243,,,2017_May_01_1702,59.987897772,MAFE4ImagesEEG,001,200187,
AFNE01.JPG,AFNE01.JPG,AFNE01.JPG,AFNE01.JPG,AFNE01.JPG,AFNE01.JPG,,,,,,,,,4,7,47,4,,,,,,,,,,,,,,,AMSA16.jpg,AMNE04.jpg,AMNE01.jpg,AMSA08.jpg,AMNE01.jpg,MN,1,num_2,32,num_6,0.716807914898,,,2017_May_01_1702,59.987897772,MAFE4ImagesEEG,001,200187,
AFNE01.JPG,AFNE01.JPG,AFNE01.JPG,AFNE01.JPG,AFNE01.JPG,AFNE01.JPG,,,,,,,,,4,8,48,2,,,,,,,,,,,,,,,AMSA12.jpg,AMSA20.jpg,AMNE04.jpg,AMNE08.jpg,AMNE04.jpg,MN,1,num_2,16,num_2,1.23341562436,,,2017_May_01_1702,59.987897772,MAFE4ImagesEEG,001,200187,
AFNE01.JPG,AFNE01.JPG,AFNE01.JPG,AFNE01.JPG,AFNE01.JPG,AFNE01.JPG,,,,,,,,,4,9,49,5,,,,,,,,,,,,,,,AMNE09.jpg,AMSA03.jpg,AMNE16.jpg,AMSA13.jpg,AMNE09.jpg,MN,1,num_8,32,num_2,1.41670069168,,,2017_May_01_1702,59.987897772,MAFE4ImagesEEG,001,200187,
AFNE01.JPG,AFNE01.JPG,AFNE01.JPG,AFNE01.JPG,AFNE01.JPG,AFNE01.JPG,,,,,,,,,5,0,50,8,,,,,,,,,,,,,,,AMSA13.jpg,AMNE20.jpg,AMSA10.jpg,AMNE06.jpg,AMNE06.jpg,MN,1,num_4,32,num_2,1.2501325456,,,2017_May_01_1702,59.987897772,MAFE4ImagesEEG,001,200187,
AFNE01.JPG,AFNE01.JPG,AFNE01.JPG,AFNE01.JPG,AFNE01.JPG,AFNE01.JPG,,,,,,,,,5,1,51,2,,,,,,,,,,,,,,,AMNE18.jpg,AMNE12.jpg,AMSA11.jpg,AMSA12.jpg,AMSA11.jpg,MS,2,num_2,32,num_4,0.883452076232,,,2017_May_01_1702,59.987897772,MAFE4ImagesEEG,001,200187,
AFNE01.JPG,AFNE01.JPG,AFNE01.JPG,AFNE01.JPG,AFNE01.JPG,AFNE01.JPG,,,,,,,,,5,2,52,3,,,,,,,,,,,,,,,AMSA05.jpg,AMNE01.jpg,AMNE11.jpg,AMSA06.jpg,AMSA05.jpg,MS,2,num_8,16,num_8,1.16672723298,,,2017_May_01_1702,59.987897772,MAFE4ImagesEEG,001,200187,
AFNE01.JPG,AFNE01.JPG,AFNE01.JPG,AFNE01.JPG,AFNE01.JPG,AFNE01.JPG,,,,,,,,,5,3,53,0,,,,,,,,,,,,,,,AMNE01.jpg,AMSA11.jpg,AMSA09.jpg,AMNE11.jpg,AMSA09.jpg,MS,2,num_2,16,num_2,1.26674907538,,,2017_May_01_1702,59.987897772,MAFE4ImagesEEG,001,200187,
AFNE01.JPG,AFNE01.JPG,AFNE01.JPG,AFNE01.JPG,AFNE01.JPG,AFNE01.JPG,,,,,,,,,5,4,54,1,,,,,,,,,,,,,,,AMSA19.jpg,AMNE06.jpg,AMSA10.jpg,AMNE15.jpg,AMSA10.jpg,MS,2,num_2,16,num_2,0.65019072732,,,2017_May_01_1702,59.987897772,MAFE4ImagesEEG,001,200187,
AFNE01.JPG,AFNE01.JPG,AFNE01.JPG,AFNE01.JPG,AFNE01.JPG,AFNE01.JPG,,,,,,,,,5,5,55,5,,,,,,,,,,,,,,,AMSA10.jpg,AMNE06.jpg,AMNE12.jpg,AMSA20.jpg,AMNE06.jpg,MN,1,num_6,16,num_6,0.88347549038,,,2017_May_01_1702,59.987897772,MAFE4ImagesEEG,001,200187,
AFNE01.JPG,AFNE01.JPG,AFNE01.JPG,AFNE01.JPG,AFNE01.JPG,AFNE01.JPG,,,,,,,,,5,6,56,6,,,,,,,,,,,,,,,AMNE07.jpg,AMSA11.jpg,AMSA07.jpg,AMNE08.jpg,AMNE07.jpg,MN,1,num_8,16,num_8,1.15008023288,,,2017_May_01_1702,59.987897772,MAFE4ImagesEEG,001,200187,
AFNE01.JPG,AFNE01.JPG,AFNE01.JPG,AFNE01.JPG,AFNE01.JPG,AFNE01.JPG,,,,,,,,,5,7,57,4,,,,,,,,,,,,,,,AMSA12.jpg,AMSA11.jpg,AMNE06.jpg,AMNE16.jpg,AMNE16.jpg,MN,1,num_4,16,num_4,0.883446302963,,,2017_May_01_1702,59.987897772,MAFE4ImagesEEG,001,200187,
AFNE01.JPG,AFNE01.JPG,AFNE01.JPG,AFNE01.JPG,AFNE01.JPG,AFNE01.JPG,,,,,,,,,5,8,58,7,,,,,,,,,,,,,,,AMSA11.jpg,AMSA18.jpg,AMNE18.jpg,AMNE15.jpg,AMSA18.jpg,MS,2,num_6,32,num_8,1.11663452326,,,2017_May_01_1702,59.987897772,MAFE4ImagesEEG,001,200187,
AFNE01.JPG,AFNE01.JPG,AFNE01.JPG,AFNE01.JPG,AFNE01.JPG,AFNE01.JPG,,,,,,,,,5,9,59,9,,,,,,,,,,,,,,,AMNE20.jpg,AMNE06.jpg,AMSA18.jpg,AMSA14.jpg,AMSA18.jpg,MS,2,num_2,16,num_2,1.3502169319,,,2017_May_01_1702,59.987897772,MAFE4ImagesEEG,001,200187,
,,,,,,,,,,,,,,,,,,,,,,,,,,,,,,,,,,,,,,,,,,,space,14.0993514976,2017_May_01_1702,59.987897772,MAFE4ImagesEEG,001,200187,
AFNE01.JPG,AFNE01.JPG,AFNE01.JPG,AFNE01.JPG,AFNE01.JPG,AFNE01.JPG,,,,,,,,,,,,,0,0,0,4,,,,,,,,,,,AFNE18.jpg,AFNE08.jpg,AFSA03.jpg,AFSA04.jpg,AFNE18.jpg,FN,3,num_8,16,num_8,1.33341661864,,,2017_May_01_1702,59.987897772,MAFE4ImagesEEG,001,200187,
AFNE01.JPG,AFNE01.JPG,AFNE01.JPG,AFNE01.JPG,AFNE01.JPG,AFNE01.JPG,,,,,,,,,,,,,0,1,1,3,,,,,,,,,,,AFNE14.jpg,AFSA05.jpg,AFSA15.jpg,AFNE08.jpg,AFNE14.jpg,FN,3,num_8,32,num_4,0.916657231515,,,2017_May_01_1702,59.987897772,MAFE4ImagesEEG,001,200187,
AFNE01.JPG,AFNE01.JPG,AFNE01.JPG,AFNE01.JPG,AFNE01.JPG,AFNE01.JPG,,,,,,,,,,,,,0,2,2,8,,,,,,,,,,,AFSA14.jpg,AFSA12.jpg,AFNE12.jpg,AFNE15.jpg,AFSA12.jpg,FS,4,num_6,16,num_6,1.48341217637,,,2017_May_01_1702,59.987897772,MAFE4ImagesEEG,001,200187,
AFNE01.JPG,AFNE01.JPG,AFNE01.JPG,AFNE01.JPG,AFNE01.JPG,AFNE01.JPG,,,,,,,,,,,,,0,3,3,7,,,,,,,,,,,AFSA20.jpg,AFNE16.jpg,AFSA03.jpg,AFNE14.jpg,AFSA20.jpg,FS,4,num_8,16,num_8,0.583503619069,,,2017_May_01_1702,59.987897772,MAFE4ImagesEEG,001,200187,
AFNE01.JPG,AFNE01.JPG,AFNE01.JPG,AFNE01.JPG,AFNE01.JPG,AFNE01.JPG,,,,,,,,,,,,,0,4,4,0,,,,,,,,,,,AFNE01.jpg,AFNE16.jpg,AFSA20.jpg,AFSA15.jpg,AFNE16.jpg,FN,3,num_6,16,num_6,1.41672570957,,,2017_May_01_1702,59.987897772,MAFE4ImagesEEG,001,200187,
AFNE01.JPG,AFNE01.JPG,AFNE01.JPG,AFNE01.JPG,AFNE01.JPG,AFNE01.JPG,,,,,,,,,,,,,0,5,5,2,,,,,,,,,,,AFNE07.jpg,AFSA18.jpg,AFSA03.jpg,AFNE08.jpg,AFSA03.jpg,FS,4,num_2,32,num_6,2.68301773141,,,2017_May_01_1702,59.987897772,MAFE4ImagesEEG,001,200187,
AFNE01.JPG,AFNE01.JPG,AFNE01.JPG,AFNE01.JPG,AFNE01.JPG,AFNE01.JPG,,,,,,,,,,,,,0,6,6,6,,,,,,,,,,,AFNE05.jpg,AFSA13.jpg,AFSA02.jpg,AFNE11.jpg,AFNE11.jpg,FN,3,num_4,16,num_4,1.13346626889,,,2017_May_01_1702,59.987897772,MAFE4ImagesEEG,001,200187,
AFNE01.JPG,AFNE01.JPG,AFNE01.JPG,AFNE01.JPG,AFNE01.JPG,AFNE01.JPG,,,,,,,,,,,,,0,7,7,1,,,,,,,,,,,AFSA08.jpg,AFSA11.jpg,AFNE06.jpg,AFNE03.jpg,AFNE03.jpg,FN,3,num_4,32,num_2,0.983714793809,,,2017_May_01_1702,59.987897772,MAFE4ImagesEEG,001,200187,
AFNE01.JPG,AFNE01.JPG,AFNE01.JPG,AFNE01.JPG,AFNE01.JPG,AFNE01.JPG,,,,,,,,,,,,,0,8,8,9,,,,,,,,,,,AFSA04.jpg,AFSA11.jpg,AFNE06.jpg,AFNE02.jpg,AFSA11.jpg,FS,4,num_6,32,num_4,1.08309868607,,,2017_May_01_1702,59.987897772,MAFE4ImagesEEG,001,200187,
AFNE01.JPG,AFNE01.JPG,AFNE01.JPG,AFNE01.JPG,AFNE01.JPG,AFNE01.JPG,,,,,,,,,,,,,0,9,9,5,,,,,,,,,,,AFSA07.jpg,AFSA01.jpg,AFNE06.jpg,AFNE11.jpg,AFNE11.jpg,FN,3,num_4,16,num_4,0.766765272478,,,2017_May_01_1702,59.987897772,MAFE4ImagesEEG,001,200187,
AFNE01.JPG,AFNE01.JPG,AFNE01.JPG,AFNE01.JPG,AFNE01.JPG,AFNE01.JPG,,,,,,,,,,,,,1,0,10,7,,,,,,,,,,,AFNE15.jpg,AFNE17.jpg,AFSA11.jpg,AFSA05.jpg,AFSA11.jpg,FS,4,num_2,32,num_4,0.783492778195,,,2017_May_01_1702,59.987897772,MAFE4ImagesEEG,001,200187,
AFNE01.JPG,AFNE01.JPG,AFNE01.JPG,AFNE01.JPG,AFNE01.JPG,AFNE01.JPG,,,,,,,,,,,,,1,1,11,0,,,,,,,,,,,AFSA12.jpg,AFSA18.jpg,AFNE11.jpg,AFNE16.jpg,AFNE16.jpg,FN,3,num_4,32,num_8,1.03353038477,,,2017_May_01_1702,59.987897772,MAFE4ImagesEEG,001,200187,
AFNE01.JPG,AFNE01.JPG,AFNE01.JPG,AFNE01.JPG,AFNE01.JPG,AFNE01.JPG,,,,,,,,,,,,,1,2,12,6,,,,,,,,,,,AFNE03.jpg,AFSA07.jpg,AFSA16.jpg,AFNE16.jpg,AFNE03.jpg,FN,3,num_8,32,num_2,1.4666227682,,,2017_May_01_1702,59.987897772,MAFE4ImagesEEG,001,200187,
AFNE01.JPG,AFNE01.JPG,AFNE01.JPG,AFNE01.JPG,AFNE01.JPG,AFNE01.JPG,,,,,,,,,,,,,1,3,13,2,,,,,,,,,,,AFNE12.jpg,AFSA04.jpg,AFSA18.jpg,AFNE06.jpg,AFNE12.jpg,FN,3,num_8,16,num_8,0.816759194713,,,2017_May_01_1702,59.987897772,MAFE4ImagesEEG,001,200187,
AFNE01.JPG,AFNE01.JPG,AFNE01.JPG,AFNE01.JPG,AFNE01.JPG,AFNE01.JPG,,,,,,,,,,,,,1,4,14,3,,,,,,,,,,,AFSA10.jpg,AFNE07.jpg,AFSA08.jpg,AFNE08.jpg,AFNE08.jpg,FN,3,num_4,32,num_2,1.01681538811,,,2017_May_01_1702,59.987897772,MAFE4ImagesEEG,001,200187,
AFNE01.JPG,AFNE01.JPG,AFNE01.JPG,AFNE01.JPG,AFNE01.JPG,AFNE01.JPG,,,,,,,,,,,,,1,5,15,9,,,,,,,,,,,AFSA08.jpg,AFNE16.jpg,AFNE07.jpg,AFSA15.jpg,AFSA08.jpg,FS,4,num_8,32,num_4,1.19995483989,,,2017_May_01_1702,59.987897772,MAFE4ImagesEEG,001,200187,
AFNE01.JPG,AFNE01.JPG,AFNE01.JPG,AFNE01.JPG,AFNE01.JPG,AFNE01.JPG,,,,,,,,,,,,,1,6,16,4,,,,,,,,,,,AFNE06.jpg,AFSA12.jpg,AFNE19.jpg,AFSA05.jpg,AFNE19.jpg,FN,3,num_2,16,num_2,1.31677378807,,,2017_May_01_1702,59.987897772,MAFE4ImagesEEG,001,200187,
AFNE01.JPG,AFNE01.JPG,AFNE01.JPG,AFNE01.JPG,AFNE01.JPG,AFNE01.JPG,,,,,,,,,,,,,1,7,17,5,,,,,,,,,,,AFSA09.jpg,AFNE14.jpg,AFNE05.jpg,AFSA01.jpg,AFNE14.jpg,FN,3,num_6,32,num_8,0.800172814168,,,2017_May_01_1702,59.987897772,MAFE4ImagesEEG,001,200187,
AFNE01.JPG,AFNE01.JPG,AFNE01.JPG,AFNE01.JPG,AFNE01.JPG,AFNE01.JPG,,,,,,,,,,,,,1,8,18,8,,,,,,,,,,,AFSA16.jpg,AFNE14.jpg,AFSA08.jpg,AFNE19.jpg,AFSA16.jpg,FS,4,num_8,32,num_2,0.900175412185,,,2017_May_01_1702,59.987897772,MAFE4ImagesEEG,001,200187,
AFNE01.JPG,AFNE01.JPG,AFNE01.JPG,AFNE01.JPG,AFNE01.JPG,AFNE01.JPG,,,,,,,,,,,,,1,9,19,1,,,,,,,,,,,AFNE11.jpg,AFSA02.jpg,AFNE03.jpg,AFSA11.jpg,AFSA02.jpg,FS,4,num_6,32,num_8,1.88320029597,,,2017_May_01_1702,59.987897772,MAFE4ImagesEEG,001,200187,
AFNE01.JPG,AFNE01.JPG,AFNE01.JPG,AFNE01.JPG,AFNE01.JPG,AFNE01.JPG,,,,,,,,,,,,,2,0,20,2,,,,,,,,,,,AFNE09.jpg,AFSA19.jpg,AFNE04.jpg,AFSA12.jpg,AFSA19.jpg,FS,4,num_6,16,num_6,1.11675512115,,,2017_May_01_1702,59.987897772,MAFE4ImagesEEG,001,200187,
AFNE01.JPG,AFNE01.JPG,AFNE01.JPG,AFNE01.JPG,AFNE01.JPG,AFNE01.JPG,,,,,,,,,,,,,2,1,21,8,,,,,,,,,,,AFNE18.jpg,AFSA12.jpg,AFSA20.jpg,AFNE07.jpg,AFSA20.jpg,FS,4,num_2,16,num_2,0.816789343953,,,2017_May_01_1702,59.987897772,MAFE4ImagesEEG,001,200187,
AFNE01.JPG,AFNE01.JPG,AFNE01.JPG,AFNE01.JPG,AFNE01.JPG,AFNE01.JPG,,,,,,,,,,,,,2,2,22,7,,,,,,,,,,,AFSA02.jpg,AFSA09.jpg,AFNE13.jpg,AFNE01.jpg,AFSA02.jpg,FS,4,num_8,16,num_8,0.683419938199,,,2017_May_01_1702,59.987897772,MAFE4ImagesEEG,001,200187,
AFNE01.JPG,AFNE01.JPG,AFNE01.JPG,AFNE01.JPG,AFNE01.JPG,AFNE01.JPG,,,,,,,,,,,,,2,3,23,6,,,,,,,,,,,AFSA10.jpg,AFNE19.jpg,AFNE18.jpg,AFSA13.jpg,AFSA10.jpg,FS,4,num_8,32,num_4,1.16674262844,,,2017_May_01_1702,59.987897772,MAFE4ImagesEEG,001,200187,
AFNE01.JPG,AFNE01.JPG,AFNE01.JPG,AFNE01.JPG,AFNE01.JPG,AFNE01.JPG,,,,,,,,,,,,,2,4,24,0,,,,,,,,,,,AFSA14.jpg,AFNE17.jpg,AFNE09.jpg,AFSA09.jpg,AFNE09.jpg,FN,3,num_2,16,num_2,0.900114150951,,,2017_May_01_1702,59.987897772,MAFE4ImagesEEG,001,200187,
AFNE01.JPG,AFNE01.JPG,AFNE01.JPG,AFNE01.JPG,AFNE01.JPG,AFNE01.JPG,,,,,,,,,,,,,2,5,25,9,,,,,,,,,,,AFSA18.jpg,AFSA11.jpg,AFNE04.jpg,AFNE17.jpg,AFSA18.jpg,FS,4,num_8,16,num_8,1.08341685915,,,2017_May_01_1702,59.987897772,MAFE4ImagesEEG,001,200187,
AFNE01.JPG,AFNE01.JPG,AFNE01.JPG,AFNE01.JPG,AFNE01.JPG,AFNE01.JPG,,,,,,,,,,,,,2,6,26,1,,,,,,,,,,,AFNE08.jpg,AFSA19.jpg,AFSA11.jpg,AFNE17.jpg,AFNE08.jpg,FN,3,num_8,16,num_8,0.666459575994,,,2017_May_01_1702,59.987897772,MAFE4ImagesEEG,001,200187,
AFNE01.JPG,AFNE01.JPG,AFNE01.JPG,AFNE01.JPG,AFNE01.JPG,AFNE01.JPG,,,,,,,,,,,,,2,7,27,3,,,,,,,,,,,AFNE10.jpg,AFSA17.jpg,AFSA14.jpg,AFNE12.jpg,AFSA17.jpg,FS,4,num_6,16,num_6,1.06675286009,,,2017_May_01_1702,59.987897772,MAFE4ImagesEEG,001,200187,
AFNE01.JPG,AFNE01.JPG,AFNE01.JPG,AFNE01.JPG,AFNE01.JPG,AFNE01.JPG,,,,,,,,,,,,,2,8,28,4,,,,,,,,,,,AFSA04.jpg,AFNE09.jpg,AFNE20.jpg,AFSA01.jpg,AFNE20.jpg,FN,3,num_2,16,num_2,1.33344901307,,,2017_May_01_1702,59.987897772,MAFE4ImagesEEG,001,200187,
AFNE01.JPG,AFNE01.JPG,AFNE01.JPG,AFNE01.JPG,AFNE01.JPG,AFNE01.JPG,,,,,,,,,,,,,2,9,29,5,,,,,,,,,,,AFSA18.jpg,AFNE01.jpg,AFNE12.jpg,AFSA17.jpg,AFNE12.jpg,FN,3,num_2,16,num_2,1.11685647466,,,2017_May_01_1702,59.987897772,MAFE4ImagesEEG,001,200187,
AFNE01.JPG,AFNE01.JPG,AFNE01.JPG,AFNE01.JPG,AFNE01.JPG,AFNE01.JPG,,,,,,,,,,,,,3,0,30,2,,,,,,,,,,,AFNE09.jpg,AFNE01.jpg,AFSA09.jpg,AFSA14.jpg,AFSA14.jpg,FS,4,num_4,16,num_4,0.650152559392,,,2017_May_01_1702,59.987897772,MAFE4ImagesEEG,001,200187,
AFNE01.JPG,AFNE01.JPG,AFNE01.JPG,AFNE01.JPG,AFNE01.JPG,AFNE01.JPG,,,,,,,,,,,,,3,1,31,3,,,,,,,,,,,AFSA14.jpg,AFSA04.jpg,AFNE02.jpg,AFNE05.jpg,AFNE05.jpg,FN,3,num_4,16,num_4,1.58337179525,,,2017_May_01_1702,59.987897772,MAFE4ImagesEEG,001,200187,
AFNE01.JPG,AFNE01.JPG,AFNE01.JPG,AFNE01.JPG,AFNE01.JPG,AFNE01.JPG,,,,,,,,,,,,,3,2,32,5,,,,,,,,,,,AFNE12.jpg,AFNE06.jpg,AFSA12.jpg,AFSA14.jpg,AFNE12.jpg,FN,3,num_8,32,num_2,0.650143258274,,,2017_May_01_1702,59.987897772,MAFE4ImagesEEG,001,200187,
AFNE01.JPG,AFNE01.JPG,AFNE01.JPG,AFNE01.JPG,AFNE01.JPG,AFNE01.JPG,,,,,,,,,,,,,3,3,33,1,,,,,,,,,,,AFSA04.jpg,AFNE04.jpg,AFSA09.jpg,AFNE09.jpg,AFSA04.jpg,FS,4,num_8,16,num_8,0.633522879332,,,2017_May_01_1702,59.987897772,MAFE4ImagesEEG,001,200187,
AFNE01.JPG,AFNE01.JPG,AFNE01.JPG,AFNE01.JPG,AFNE01.JPG,AFNE01.JPG,,,,,,,,,,,,,3,4,34,0,,,,,,,,,,,AFNE05.jpg,AFSA07.jpg,AFSA10.jpg,AFNE11.jpg,AFSA10.jpg,FS,4,num_2,16,num_2,0.733472876018,,,2017_May_01_1702,59.987897772,MAFE4ImagesEEG,001,200187,
AFNE01.JPG,AFNE01.JPG,AFNE01.JPG,AFNE01.JPG,AFNE01.JPG,AFNE01.JPG,,,,,,,,,,,,,3,5,35,4,,,,,,,,,,,AFNE03.jpg,AFSA14.jpg,AFSA07.jpg,AFNE18.jpg,AFSA07.jpg,FS,4,num_2,16,num_2,0.550176903605,,,2017_May_01_1702,59.987897772,MAFE4ImagesEEG,001,200187,
AFNE01.JPG,AFNE01.JPG,AFNE01.JPG,AFNE01.JPG,AFNE01.JPG,AFNE01.JPG,,,,,,,,,,,,,3,6,36,7,,,,,,,,,,,AFNE07.jpg,AFNE04.jpg,AFSA20.jpg,AFSA11.jpg,AFNE07.jpg,FN,3,num_8,32,num_6,0.783418045845,,,2017_May_01_1702,59.987897772,MAFE4ImagesEEG,001,200187,
AFNE01.JPG,AFNE01.JPG,AFNE01.JPG,AFNE01.JPG,AFNE01.JPG,AFNE01.JPG,,,,,,,,,,,,,3,7,37,6,,,,,,,,,,,AFSA17.jpg,AFSA19.jpg,AFNE07.jpg,AFNE11.jpg,AFSA17.jpg,FS,4,num_8,16,num_8,1.35004790244,,,2017_May_01_1702,59.987897772,MAFE4ImagesEEG,001,200187,
AFNE01.JPG,AFNE01.JPG,AFNE01.JPG,AFNE01.JPG,AFNE01.JPG,AFNE01.JPG,,,,,,,,,,,,,3,8,38,9,,,,,,,,,,,AFNE01.jpg,AFSA12.jpg,AFNE14.jpg,AFSA20.jpg,AFNE01.jpg,FN,3,num_8,32,num_6,0.616773884278,,,2017_May_01_1702,59.987897772,MAFE4ImagesEEG,001,200187,
AFNE01.JPG,AFNE01.JPG,AFNE01.JPG,AFNE01.JPG,AFNE01.JPG,AFNE01.JPG,,,,,,,,,,,,,3,9,39,8,,,,,,,,,,,AFSA12.jpg,AFNE11.jpg,AFSA03.jpg,AFNE16.jpg,AFNE16.jpg,FN,3,num_4,16,num_4,0.583500411827,,,2017_May_01_1702,59.987897772,MAFE4ImagesEEG,001,200187,
AFNE01.JPG,AFNE01.JPG,AFNE01.JPG,AFNE01.JPG,AFNE01.JPG,AFNE01.JPG,,,,,,,,,,,,,4,0,40,8,,,,,,,,,,,AFNE03.jpg,AFSA07.jpg,AFSA06.jpg,AFNE02.jpg,AFSA06.jpg,FS,4,num_2,32,num_6,1.36674557906,,,2017_May_01_1702,59.987897772,MAFE4ImagesEEG,001,200187,
AFNE01.JPG,AFNE01.JPG,AFNE01.JPG,AFNE01.JPG,AFNE01.JPG,AFNE01.JPG,,,,,,,,,,,,,4,1,41,1,,,,,,,,,,,AFNE05.jpg,AFSA15.jpg,AFSA09.jpg,AFNE20.jpg,AFNE05.jpg,FN,3,num_8,16,num_8,0.800013406901,,,2017_May_01_1702,59.987897772,MAFE4ImagesEEG,001,200187,
AFNE01.JPG,AFNE01.JPG,AFNE01.JPG,AFNE01.JPG,AFNE01.JPG,AFNE01.JPG,,,,,,,,,,,,,4,2,42,2,,,,,,,,,,,AFNE18.jpg,AFSA13.jpg,AFNE06.jpg,AFSA16.jpg,AFNE06.jpg,FN,3,num_2,16,num_2,0.650092902128,,,2017_May_01_1702,59.987897772,MAFE4ImagesEEG,001,200187,
AFNE01.JPG,AFNE01.JPG,AFNE01.JPG,AFNE01.JPG,AFNE01.JPG,AFNE01.JPG,,,,,,,,,,,,,4,3,43,5,,,,,,,,,,,AFNE09.jpg,AFSA14.jpg,AFSA04.jpg,AFNE05.jpg,AFSA04.jpg,FS,4,num_2,16,num_2,0.750168949366,,,2017_May_01_1702,59.987897772,MAFE4ImagesEEG,001,200187,
AFNE01.JPG,AFNE01.JPG,AFNE01.JPG,AFNE01.JPG,AFNE01.JPG,AFNE01.JPG,,,,,,,,,,,,,4,4,44,0,,,,,,,,,,,AFNE08.jpg,AFSA18.jpg,AFSA01.jpg,AFNE19.jpg,AFNE08.jpg,FN,3,num_8,16,num_8,0.733485385077,,,2017_May_01_1702,59.987897772,MAFE4ImagesEEG,001,200187,
AFNE01.JPG,AFNE01.JPG,AFNE01.JPG,AFNE01.JPG,AFNE01.JPG,AFNE01.JPG,,,,,,,,,,,,,4,5,45,3,,,,,,,,,,,AFSA04.jpg,AFNE11.jpg,AFSA16.jpg,AFNE07.jpg,AFSA04.jpg,FS,4,num_8,16,num_8,0.5667995275,,,2017_May_01_1702,59.987897772,MAFE4ImagesEEG,001,200187,
AFNE01.JPG,AFNE01.JPG,AFNE01.JPG,AFNE01.JPG,AFNE01.JPG,AFNE01.JPG,,,,,,,,,,,,,4,6,46,9,,,,,,,,,,,AFNE20.jpg,AFNE19.jpg,AFSA04.jpg,AFSA09.jpg,AFNE20.jpg,FN,3,num_8,32,num_6,1.06679744273,,,2017_May_01_1702,59.987897772,MAFE4ImagesEEG,001,200187,
AFNE01.JPG,AFNE01.JPG,AFNE01.JPG,AFNE01.JPG,AFNE01.JPG,AFNE01.JPG,,,,,,,,,,,,,4,7,47,7,,,,,,,,,,,AFSA06.jpg,AFSA11.jpg,AFNE09.jpg,AFNE12.jpg,AFSA06.jpg,FS,4,num_8,16,num_8,0.700135255698,,,2017_May_01_1702,59.987897772,MAFE4ImagesEEG,001,200187,
AFNE01.JPG,AFNE01.JPG,AFNE01.JPG,AFNE01.JPG,AFNE01.JPG,AFNE01.JPG,,,,,,,,,,,,,4,8,48,6,,,,,,,,,,,AFSA01.jpg,AFNE12.jpg,AFSA02.jpg,AFNE04.jpg,AFNE12.jpg,FN,3,num_6,16,num_6,1.39478908037,,,2017_May_01_1702,59.987897772,MAFE4ImagesEEG,001,200187,
AFNE01.JPG,AFNE01.JPG,AFNE01.JPG,AFNE01.JPG,AFNE01.JPG,AFNE01.JPG,,,,,,,,,,,,,4,9,49,4,,,,,,,,,,,AFSA05.jpg,AFSA11.jpg,AFNE20.jpg,AFNE13.jpg,AFNE20.jpg,FN,3,num_2,16,num_2,1.1164680596,,,2017_May_01_1702,59.987897772,MAFE4ImagesEEG,001,200187,
AFNE01.JPG,AFNE01.JPG,AFNE01.JPG,AFNE01.JPG,AFNE01.JPG,AFNE01.JPG,,,,,,,,,,,,,5,0,50,4,,,,,,,,,,,AFSA17.jpg,AFNE13.jpg,AFNE15.jpg,AFSA01.jpg,AFSA01.jpg,FS,4,num_4,32,num_8,0.666769089177,,,2017_May_01_1702,59.987897772,MAFE4ImagesEEG,001,200187,
AFNE01.JPG,AFNE01.JPG,AFNE01.JPG,AFNE01.JPG,AFNE01.JPG,AFNE01.JPG,,,,,,,,,,,,,5,1,51,1,,,,,,,,,,,AFSA05.jpg,AFSA15.jpg,AFNE18.jpg,AFNE15.jpg,AFSA05.jpg,FS,4,num_8,16,num_8,0.550150923897,,,2017_May_01_1702,59.987897772,MAFE4ImagesEEG,001,200187,
AFNE01.JPG,AFNE01.JPG,AFNE01.JPG,AFNE01.JPG,AFNE01.JPG,AFNE01.JPG,,,,,,,,,,,,,5,2,52,3,,,,,,,,,,,AFSA19.jpg,AFNE10.jpg,AFSA01.jpg,AFNE03.jpg,AFNE03.jpg,FN,3,num_4,32,num_6,0.716814008774,,,2017_May_01_1702,59.987897772,MAFE4ImagesEEG,001,200187,
AFNE01.JPG,AFNE01.JPG,AFNE01.JPG,AFNE01.JPG,AFNE01.JPG,AFNE01.JPG,,,,,,,,,,,,,5,3,53,6,,,,,,,,,,,AFNE14.jpg,AFSA13.jpg,AFSA07.jpg,AFNE04.jpg,AFSA13.jpg,FS,4,num_6,16,num_6,0.950153297279,,,2017_May_01_1702,59.987897772,MAFE4ImagesEEG,001,200187,
AFNE01.JPG,AFNE01.JPG,AFNE01.JPG,AFNE01.JPG,AFNE01.JPG,AFNE01.JPG,,,,,,,,,,,,,5,4,54,8,,,,,,,,,,,AFSA17.jpg,AFNE12.jpg,AFSA03.jpg,AFNE04.jpg,AFSA17.jpg,FS,4,num_8,16,num_8,0.616788959131,,,2017_May_01_1702,59.987897772,MAFE4ImagesEEG,001,200187,
AFNE01.JPG,AFNE01.JPG,AFNE01.JPG,AFNE01.JPG,AFNE01.JPG,AFNE01.JPG,,,,,,,,,,,,,5,5,55,5,,,,,,,,,,,AFNE03.jpg,AFSA18.jpg,AFSA20.jpg,AFNE11.jpg,AFNE11.jpg,FN,3,num_4,16,num_4,0.633474768372,,,2017_May_01_1702,59.987897772,MAFE4ImagesEEG,001,200187,
AFNE01.JPG,AFNE01.JPG,AFNE01.JPG,AFNE01.JPG,AFNE01.JPG,AFNE01.JPG,,,,,,,,,,,,,5,6,56,0,,,,,,,,,,,AFSA11.jpg,AFSA12.jpg,AFNE18.jpg,AFNE14.jpg,AFSA12.jpg,FS,4,num_6,16,num_6,0.566692400491,,,2017_May_01_1702,59.987897772,MAFE4ImagesEEG,001,200187,
AFNE01.JPG,AFNE01.JPG,AFNE01.JPG,AFNE01.JPG,AFNE01.JPG,AFNE01.JPG,,,,,,,,,,,,,5,7,57,7,,,,,,,,,,,AFNE09.jpg,AFSA10.jpg,AFNE04.jpg,AFSA01.jpg,AFNE04.jpg,FN,3,num_2,16,num_2,1.03347585909,,,2017_May_01_1702,59.987897772,MAFE4ImagesEEG,001,200187,
AFNE01.JPG,AFNE01.JPG,AFNE01.JPG,AFNE01.JPG,AFNE01.JPG,AFNE01.JPG,,,,,,,,,,,,,5,8,58,2,,,,,,,,,,,AFNE08.jpg,AFSA05.jpg,AFNE02.jpg,AFSA04.jpg,AFNE02.jpg,FN,3,num_2,16,num_2,1.21678081248,,,2017_May_01_1702,59.987897772,MAFE4ImagesEEG,001,200187,
AFNE01.JPG,AFNE01.JPG,AFNE01.JPG,AFNE01.JPG,AFNE01.JPG,AFNE01.JPG,,,,,,,,,,,,,5,9,59,9,,,,,,,,,,,AFNE20.jpg,AFSA15.jpg,AFNE11.jpg,AFSA08.jpg,AFSA15.jpg,FS,4,num_6,32,num_4,0.716738314368,,,2017_May_01_1702,59.987897772,MAFE4ImagesEEG,001,200187,
,,,,,,,,,,,,,,,,,,,,,,,,,,,,,,,,,,,,,,,,,,,space,37.097272146,2017_May_01_1702,59.987897772,MAFE4ImagesEEG,001,200187,
AFNE01.JPG,AFNE01.JPG,AFNE01.JPG,AFNE01.JPG,AFNE01.JPG,AFNE01.JPG,,,,,,,,,,,,,,,,,0,0,0,6,,,,,,,AMNE18.jpg,AMSA03.jpg,AMSA18.jpg,AMNE19.jpg,AMNE19.jpg,MN,1,num_4,32,num_8,1.0000910901,,,2017_May_01_1702,59.987897772,MAFE4ImagesEEG,001,200187,
AFNE01.JPG,AFNE01.JPG,AFNE01.JPG,AFNE01.JPG,AFNE01.JPG,AFNE01.JPG,,,,,,,,,,,,,,,,,0,1,1,3,,,,,,,AMSA14.jpg,AMNE19.jpg,AMSA17.jpg,AMNE16.jpg,AMNE19.jpg,MN,1,num_6,16,num_6,1.15011647623,,,2017_May_01_1702,59.987897772,MAFE4ImagesEEG,001,200187,
AFNE01.JPG,AFNE01.JPG,AFNE01.JPG,AFNE01.JPG,AFNE01.JPG,AFNE01.JPG,,,,,,,,,,,,,,,,,0,2,2,0,,,,,,,AMSA08.jpg,AMNE19.jpg,AMSA19.jpg,AMNE17.jpg,AMSA08.jpg,MS,2,num_8,16,num_8,0.90010035946,,,2017_May_01_1702,59.987897772,MAFE4ImagesEEG,001,200187,
AFNE01.JPG,AFNE01.JPG,AFNE01.JPG,AFNE01.JPG,AFNE01.JPG,AFNE01.JPG,,,,,,,,,,,,,,,,,0,3,3,9,,,,,,,AMNE10.jpg,AMSA04.jpg,AMNE16.jpg,AMSA16.jpg,AMNE16.jpg,MN,1,num_2,32,num_8,1.90000862791,,,2017_May_01_1702,59.987897772,MAFE4ImagesEEG,001,200187,
AFNE01.JPG,AFNE01.JPG,AFNE01.JPG,AFNE01.JPG,AFNE01.JPG,AFNE01.JPG,,,,,,,,,,,,,,,,,0,4,4,7,,,,,,,AMSA03.jpg,AMNE16.jpg,AMSA19.jpg,AMNE19.jpg,AMSA19.jpg,MS,2,num_2,32,num_8,2.15002474491,,,2017_May_01_1702,59.987897772,MAFE4ImagesEEG,001,200187,
AFNE01.JPG,AFNE01.JPG,AFNE01.JPG,AFNE01.JPG,AFNE01.JPG,AFNE01.JPG,,,,,,,,,,,,,,,,,0,5,5,2,,,,,,,AMSA13.jpg,AMNE01.jpg,AMSA07.jpg,AMNE13.jpg,AMNE01.jpg,MN,1,num_6,16,num_6,1.00012059789,,,2017_May_01_1702,59.987897772,MAFE4ImagesEEG,001,200187,
AFNE01.JPG,AFNE01.JPG,AFNE01.JPG,AFNE01.JPG,AFNE01.JPG,AFNE01.JPG,,,,,,,,,,,,,,,,,0,6,6,1,,,,,,,AMNE18.jpg,AMNE03.jpg,AMSA17.jpg,AMSA19.jpg,AMNE18.jpg,MN,1,num_8,16,num_8,0.93374877586,,,2017_May_01_1702,59.987897772,MAFE4ImagesEEG,001,200187,
AFNE01.JPG,AFNE01.JPG,AFNE01.JPG,AFNE01.JPG,AFNE01.JPG,AFNE01.JPG,,,,,,,,,,,,,,,,,0,7,7,4,,,,,,,AMSA17.jpg,AMSA04.jpg,AMNE03.jpg,AMNE04.jpg,AMSA04.jpg,MS,2,num_6,16,num_6,1.73339172942,,,2017_May_01_1702,59.987897772,MAFE4ImagesEEG,001,200187,
AFNE01.JPG,AFNE01.JPG,AFNE01.JPG,AFNE01.JPG,AFNE01.JPG,AFNE01.JPG,,,,,,,,,,,,,,,,,0,8,8,8,,,,,,,AMSA19.jpg,AMSA07.jpg,AMNE06.jpg,AMNE04.jpg,AMNE06.jpg,MN,1,num_2,32,num_6,0.783483476611,,,2017_May_01_1702,59.987897772,MAFE4ImagesEEG,001,200187,
AFNE01.JPG,AFNE01.JPG,AFNE01.JPG,AFNE01.JPG,AFNE01.JPG,AFNE01.JPG,,,,,,,,,,,,,,,,,0,9,9,5,,,,,,,AMSA05.jpg,AMNE01.jpg,AMSA02.jpg,AMNE15.jpg,AMNE01.jpg,MN,1,num_6,16,num_6,1.0501218969,,,2017_May_01_1702,59.987897772,MAFE4ImagesEEG,001,200187,
AFNE01.JPG,AFNE01.JPG,AFNE01.JPG,AFNE01.JPG,AFNE01.JPG,AFNE01.JPG,,,,,,,,,,,,,,,,,1,0,10,5,,,,,,,AMSA05.jpg,AMNE01.jpg,AMSA08.jpg,AMNE20.jpg,AMSA05.jpg,MS,2,num_8,16,num_8,0.866785190534,,,2017_May_01_1702,59.987897772,MAFE4ImagesEEG,001,200187,
AFNE01.JPG,AFNE01.JPG,AFNE01.JPG,AFNE01.JPG,AFNE01.JPG,AFNE01.JPG,,,,,,,,,,,,,,,,,1,1,11,2,,,,,,,AMSA09.jpg,AMSA15.jpg,AMNE09.jpg,AMNE02.jpg,AMSA15.jpg,MS,2,num_6,16,num_6,0.650177256437,,,2017_May_01_1702,59.987897772,MAFE4ImagesEEG,001,200187,
AFNE01.JPG,AFNE01.JPG,AFNE01.JPG,AFNE01.JPG,AFNE01.JPG,AFNE01.JPG,,,,,,,,,,,,,,,,,1,2,12,7,,,,,,,AMNE16.jpg,AMSA07.jpg,AMNE06.jpg,AMSA12.jpg,AMSA07.jpg,MS,2,num_6,16,num_6,0.466688519809,,,2017_May_01_1702,59.987897772,MAFE4ImagesEEG,001,200187,
AFNE01.JPG,AFNE01.JPG,AFNE01.JPG,AFNE01.JPG,AFNE01.JPG,AFNE01.JPG,,,,,,,,,,,,,,,,,1,3,13,9,,,,,,,AMSA15.jpg,AMSA01.jpg,AMNE12.jpg,AMNE14.jpg,AMSA15.jpg,MS,2,num_8,48,None,,,,2017_May_01_1702,59.987897772,MAFE4ImagesEEG,001,200187,
AFNE01.JPG,AFNE01.JPG,AFNE01.JPG,AFNE01.JPG,AFNE01.JPG,AFNE01.JPG,,,,,,,,,,,,,,,,,1,4,14,1,,,,,,,AMSA20.jpg,AMSA13.jpg,AMNE16.jpg,AMNE04.jpg,AMNE04.jpg,MN,1,num_4,16,num_4,1.11670925561,,,2017_May_01_1702,59.987897772,MAFE4ImagesEEG,001,200187,
AFNE01.JPG,AFNE01.JPG,AFNE01.JPG,AFNE01.JPG,AFNE01.JPG,AFNE01.JPG,,,,,,,,,,,,,,,,,1,5,15,8,,,,,,,AMSA19.jpg,AMNE15.jpg,AMSA11.jpg,AMNE10.jpg,AMNE15.jpg,MN,1,num_6,32,num_8,2.20005234471,,,2017_May_01_1702,59.987897772,MAFE4ImagesEEG,001,200187,
AFNE01.JPG,AFNE01.JPG,AFNE01.JPG,AFNE01.JPG,AFNE01.JPG,AFNE01.JPG,,,,,,,,,,,,,,,,,1,6,16,0,,,,,,,AMSA06.jpg,AMNE19.jpg,AMSA16.jpg,AMNE06.jpg,AMSA06.jpg,MS,2,num_8,32,num_6,0.849858185276,,,2017_May_01_1702,59.987897772,MAFE4ImagesEEG,001,200187,
AFNE01.JPG,AFNE01.JPG,AFNE01.JPG,AFNE01.JPG,AFNE01.JPG,AFNE01.JPG,,,,,,,,,,,,,,,,,1,7,17,4,,,,,,,AMSA17.jpg,AMSA05.jpg,AMNE12.jpg,AMNE08.jpg,AMNE08.jpg,MN,1,num_4,32,num_6,0.783460062696,,,2017_May_01_1702,59.987897772,MAFE4ImagesEEG,001,200187,
AFNE01.JPG,AFNE01.JPG,AFNE01.JPG,AFNE01.JPG,AFNE01.JPG,AFNE01.JPG,,,,,,,,,,,,,,,,,1,8,18,6,,,,,,,AMSA20.jpg,AMSA08.jpg,AMNE12.jpg,AMNE18.jpg,AMSA20.jpg,MS,2,num_8,32,num_2,1.56672639912,,,2017_May_01_1702,59.987897772,MAFE4ImagesEEG,001,200187,
AFNE01.JPG,AFNE01.JPG,AFNE01.JPG,AFNE01.JPG,AFNE01.JPG,AFNE01.JPG,,,,,,,,,,,,,,,,,1,9,19,3,,,,,,,AMSA14.jpg,AMNE12.jpg,AMNE05.jpg,AMSA19.jpg,AMNE12.jpg,MN,1,num_6,32,num_2,2.00004811096,,,2017_May_01_1702,59.987897772,MAFE4ImagesEEG,001,200187,
AFNE01.JPG,AFNE01.JPG,AFNE01.JPG,AFNE01.JPG,AFNE01.JPG,AFNE01.JPG,,,,,,,,,,,,,,,,,2,0,20,3,,,,,,,AMNE15.jpg,AMSA05.jpg,AMNE01.jpg,AMSA04.jpg,AMNE15.jpg,MN,1,num_8,16,num_8,1.51676487154,,,2017_May_01_1702,59.987897772,MAFE4ImagesEEG,001,200187,
AFNE01.JPG,AFNE01.JPG,AFNE01.JPG,AFNE01.JPG,AFNE01.JPG,AFNE01.JPG,,,,,,,,,,,,,,,,,2,1,21,1,,,,,,,AMNE12.jpg,AMNE02.jpg,AMSA04.jpg,AMSA13.jpg,AMNE02.jpg,MN,1,num_6,16,num_6,0.966748658102,,,2017_May_01_1702,59.987897772,MAFE4ImagesEEG,001,200187,
AFNE01.JPG,AFNE01.JPG,AFNE01.JPG,AFNE01.JPG,AFNE01.JPG,AFNE01.JPG,,,,,,,,,,,,,,,,,2,2,22,8,,,,,,,AMNE03.jpg,AMSA10.jpg,AMNE18.jpg,AMSA15.jpg,AMNE18.jpg,MN,1,num_2,32,num_4,0.833465851843,,,2017_May_01_1702,59.987897772,MAFE4ImagesEEG,001,200187,
AFNE01.JPG,AFNE01.JPG,AFNE01.JPG,AFNE01.JPG,AFNE01.JPG,AFNE01.JPG,,,,,,,,,,,,,,,,,2,3,23,4,,,,,,,AMNE20.jpg,AMSA15.jpg,AMNE13.jpg,AMSA19.jpg,AMSA19.jpg,MS,2,num_4,16,num_4,0.550160545856,,,2017_May_01_1702,59.987897772,MAFE4ImagesEEG,001,200187,
AFNE01.JPG,AFNE01.JPG,AFNE01.JPG,AFNE01.JPG,AFNE01.JPG,AFNE01.JPG,,,,,,,,,,,,,,,,,2,4,24,2,,,,,,,AMNE05.jpg,AMNE10.jpg,AMSA16.jpg,AMSA02.jpg,AMNE05.jpg,MN,1,num_8,32,num_6,0.833491832018,,,2017_May_01_1702,59.987897772,MAFE4ImagesEEG,001,200187,
AFNE01.JPG,AFNE01.JPG,AFNE01.JPG,AFNE01.JPG,AFNE01.JPG,AFNE01.JPG,,,,,,,,,,,,,,,,,2,5,25,7,,,,,,,AMNE02.jpg,AMSA08.jpg,AMSA03.jpg,AMNE17.jpg,AMSA08.jpg,MS,2,num_6,32,num_2,1.10007925448,,,2017_May_01_1702,59.987897772,MAFE4ImagesEEG,001,200187,
AFNE01.JPG,AFNE01.JPG,AFNE01.JPG,AFNE01.JPG,AFNE01.JPG,AFNE01.JPG,,,,,,,,,,,,,,,,,2,6,26,6,,,,,,,AMNE11.jpg,AMSA01.jpg,AMNE18.jpg,AMSA15.jpg,AMNE11.jpg,MN,1,num_8,16,num_8,0.700134293409,,,2017_May_01_1702,59.987897772,MAFE4ImagesEEG,001,200187,
AFNE01.JPG,AFNE01.JPG,AFNE01.JPG,AFNE01.JPG,AFNE01.JPG,AFNE01.JPG,,,,,,,,,,,,,,,,,2,7,27,5,,,,,,,AMNE16.jpg,AMSA12.jpg,AMSA09.jpg,AMNE19.jpg,AMSA12.jpg,MS,2,num_6,16,num_6,0.883718289668,,,2017_May_01_1702,59.987897772,MAFE4ImagesEEG,001,200187,
AFNE01.JPG,AFNE01.JPG,AFNE01.JPG,AFNE01.JPG,AFNE01.JPG,AFNE01.JPG,,,,,,,,,,,,,,,,,2,8,28,0,,,,,,,AMNE14.jpg,AMNE11.jpg,AMSA15.jpg,AMSA19.jpg,AMSA19.jpg,MS,2,num_4,16,num_4,0.600159920519,,,2017_May_01_1702,59.987897772,MAFE4ImagesEEG,001,200187,
AFNE01.JPG,AFNE01.JPG,AFNE01.JPG,AFNE01.JPG,AFNE01.JPG,AFNE01.JPG,,,,,,,,,,,,,,,,,2,9,29,9,,,,,,,AMNE14.jpg,AMSA14.jpg,AMSA10.jpg,AMNE12.jpg,AMNE12.jpg,MN,1,num_4,16,num_4,1.50005051633,,,2017_May_01_1702,59.987897772,MAFE4ImagesEEG,001,200187,
AFNE01.JPG,AFNE01.JPG,AFNE01.JPG,AFNE01.JPG,AFNE01.JPG,AFNE01.JPG,,,,,,,,,,,,,,,,,3,0,30,4,,,,,,,AMNE13.jpg,AMNE12.jpg,AMSA14.jpg,AMSA18.jpg,AMNE12.jpg,MN,1,num_6,32,num_8,1.38327294332,,,2017_May_01_1702,59.987897772,MAFE4ImagesEEG,001,200187,
AFNE01.JPG,AFNE01.JPG,AFNE01.JPG,AFNE01.JPG,AFNE01.JPG,AFNE01.JPG,,,,,,,,,,,,,,,,,3,1,31,3,,,,,,,AMSA19.jpg,AMNE13.jpg,AMSA06.jpg,AMNE16.jpg,AMNE16.jpg,MN,1,num_4,16,num_4,0.916737737134,,,2017_May_01_1702,59.987897772,MAFE4ImagesEEG,001,200187,
AFNE01.JPG,AFNE01.JPG,AFNE01.JPG,AFNE01.JPG,AFNE01.JPG,AFNE01.JPG,,,,,,,,,,,,,,,,,3,2,32,7,,,,,,,AMSA11.jpg,AMNE13.jpg,AMSA09.jpg,AMNE17.jpg,AMSA11.jpg,MS,2,num_8,16,num_8,1.21676220954,,,2017_May_01_1702,59.987897772,MAFE4ImagesEEG,001,200187,
AFNE01.JPG,AFNE01.JPG,AFNE01.JPG,AFNE01.JPG,AFNE01.JPG,AFNE01.JPG,,,,,,,,,,,,,,,,,3,3,33,8,,,,,,,AMNE06.jpg,AMNE03.jpg,AMSA01.jpg,AMSA11.jpg,AMNE03.jpg,MN,1,num_6,16,num_6,0.700021393364,,,2017_May_01_1702,59.987897772,MAFE4ImagesEEG,001,200187,
AFNE01.JPG,AFNE01.JPG,AFNE01.JPG,AFNE01.JPG,AFNE01.JPG,AFNE01.JPG,,,,,,,,,,,,,,,,,3,4,34,6,,,,,,,AMNE04.jpg,AMSA19.jpg,AMNE10.jpg,AMSA13.jpg,AMNE10.jpg,MN,1,num_2,32,num_8,0.850100984564,,,2017_May_01_1702,59.987897772,MAFE4ImagesEEG,001,200187,
AFNE01.JPG,AFNE01.JPG,AFNE01.JPG,AFNE01.JPG,AFNE01.JPG,AFNE01.JPG,,,,,,,,,,,,,,,,,3,5,35,0,,,,,,,AMNE07.jpg,AMSA10.jpg,AMNE18.jpg,AMSA03.jpg,AMNE18.jpg,MN,1,num_2,16,num_2,1.03341171122,,,2017_May_01_1702,59.987897772,MAFE4ImagesEEG,001,200187,
AFNE01.JPG,AFNE01.JPG,AFNE01.JPG,AFNE01.JPG,AFNE01.JPG,AFNE01.JPG,,,,,,,,,,,,,,,,,3,6,36,1,,,,,,,AMNE06.jpg,AMNE05.jpg,AMSA18.jpg,AMSA20.jpg,AMSA18.jpg,MS,2,num_2,16,num_2,0.950095564127,,,2017_May_01_1702,59.987897772,MAFE4ImagesEEG,001,200187,
AFNE01.JPG,AFNE01.JPG,AFNE01.JPG,AFNE01.JPG,AFNE01.JPG,AFNE01.JPG,,,,,,,,,,,,,,,,,3,7,37,9,,,,,,,AMNE10.jpg,AMSA02.jpg,AMSA01.jpg,AMNE06.jpg,AMNE06.jpg,MN,1,num_4,32,num_8,0.78345268569,,,2017_May_01_1702,59.987897772,MAFE4ImagesEEG,001,200187,
AFNE01.JPG,AFNE01.JPG,AFNE01.JPG,AFNE01.JPG,AFNE01.JPG,AFNE01.JPG,,,,,,,,,,,,,,,,,3,8,38,5,,,,,,,AMNE01.jpg,AMSA13.jpg,AMSA12.jpg,AMNE11.jpg,AMNE01.jpg,MN,1,num_8,16,num_8,0.916720417328,,,2017_May_01_1702,59.987897772,MAFE4ImagesEEG,001,200187,
AFNE01.JPG,AFNE01.JPG,AFNE01.JPG,AFNE01.JPG,AFNE01.JPG,AFNE01.JPG,,,,,,,,,,,,,,,,,3,9,39,2,,,,,,,AMNE16.jpg,AMSA01.jpg,AMNE03.jpg,AMSA19.jpg,AMSA01.jpg,MS,2,num_6,16,num_6,0.516765192384,,,2017_May_01_1702,59.987897772,MAFE4ImagesEEG,001,200187,
AFNE01.JPG,AFNE01.JPG,AFNE01.JPG,AFNE01.JPG,AFNE01.JPG,AFNE01.JPG,,,,,,,,,,,,,,,,,4,0,40,2,,,,,,,AMSA16.jpg,AMSA20.jpg,AMNE08.jpg,AMNE16.jpg,AMNE16.jpg,MN,1,num_4,16,num_4,0.850111889653,,,2017_May_01_1702,59.987897772,MAFE4ImagesEEG,001,200187,
AFNE01.JPG,AFNE01.JPG,AFNE01.JPG,AFNE01.JPG,AFNE01.JPG,AFNE01.JPG,,,,,,,,,,,,,,,,,4,1,41,3,,,,,,,AMSA03.jpg,AMSA01.jpg,AMNE01.jpg,AMNE07.jpg,AMNE07.jpg,MN,1,num_4,32,num_8,1.4999793123,,,2017_May_01_1702,59.987897772,MAFE4ImagesEEG,001,200187,
AFNE01.JPG,AFNE01.JPG,AFNE01.JPG,AFNE01.JPG,AFNE01.JPG,AFNE01.JPG,,,,,,,,,,,,,,,,,4,2,42,4,,,,,,,AMNE17.jpg,AMSA13.jpg,AMSA10.jpg,AMNE20.jpg,AMNE17.jpg,MN,1,num_8,32,num_2,1.40015279991,,,2017_May_01_1702,59.987897772,MAFE4ImagesEEG,001,200187,
AFNE01.JPG,AFNE01.JPG,AFNE01.JPG,AFNE01.JPG,AFNE01.JPG,AFNE01.JPG,,,,,,,,,,,,,,,,,4,3,43,6,,,,,,,AMNE18.jpg,AMSA08.jpg,AMSA14.jpg,AMNE08.jpg,AMNE18.jpg,MN,1,num_8,32,num_4,1.23342524655,,,2017_May_01_1702,59.987897772,MAFE4ImagesEEG,001,200187,
AFNE01.JPG,AFNE01.JPG,AFNE01.JPG,AFNE01.JPG,AFNE01.JPG,AFNE01.JPG,,,,,,,,,,,,,,,,,4,4,44,9,,,,,,,AMNE05.jpg,AMSA12.jpg,AMSA06.jpg,AMNE13.jpg,AMSA06.jpg,MS,2,num_2,32,num_8,0.767145027639,,,2017_May_01_1702,59.987897772,MAFE4ImagesEEG,001,200187,
AFNE01.JPG,AFNE01.JPG,AFNE01.JPG,AFNE01.JPG,AFNE01.JPG,AFNE01.JPG,,,,,,,,,,,,,,,,,4,5,45,5,,,,,,,AMNE11.jpg,AMSA20.jpg,AMNE12.jpg,AMSA03.jpg,AMNE11.jpg,MN,1,num_8,16,num_8,0.650116636883,,,2017_May_01_1702,59.987897772,MAFE4ImagesEEG,001,200187,
AFNE01.JPG,AFNE01.JPG,AFNE01.JPG,AFNE01.JPG,AFNE01.JPG,AFNE01.JPG,,,,,,,,,,,,,,,,,4,6,46,1,,,,,,,AMSA09.jpg,AMNE13.jpg,AMNE19.jpg,AMSA02.jpg,AMNE19.jpg,MN,1,num_2,16,num_2,1.21642447123,,,2017_May_01_1702,59.987897772,MAFE4ImagesEEG,001,200187,
AFNE01.JPG,AFNE01.JPG,AFNE01.JPG,AFNE01.JPG,AFNE01.JPG,AFNE01.JPG,,,,,,,,,,,,,,,,,4,7,47,0,,,,,,,AMSA09.jpg,AMNE06.jpg,AMNE14.jpg,AMSA02.jpg,AMNE14.jpg,MN,1,num_2,32,num_8,0.750135592418,,,2017_May_01_1702,59.987897772,MAFE4ImagesEEG,001,200187,
AFNE01.JPG,AFNE01.JPG,AFNE01.JPG,AFNE01.JPG,AFNE01.JPG,AFNE01.JPG,,,,,,,,,,,,,,,,,4,8,48,7,,,,,,,AMSA09.jpg,AMNE15.jpg,AMSA06.jpg,AMNE12.jpg,AMNE15.jpg,MN,1,num_6,32,num_2,1.35007163719,,,2017_May_01_1702,59.987897772,MAFE4ImagesEEG,001,200187,
AFNE01.JPG,AFNE01.JPG,AFNE01.JPG,AFNE01.JPG,AFNE01.JPG,AFNE01.JPG,,,,,,,,,,,,,,,,,4,9,49,8,,,,,,,AMNE13.jpg,AMSA13.jpg,AMNE08.jpg,AMSA01.jpg,AMNE13.jpg,MN,1,num_8,16,num_8,0.683758638566,,,2017_May_01_1702,59.987897772,MAFE4ImagesEEG,001,200187,
AFNE01.JPG,AFNE01.JPG,AFNE01.JPG,AFNE01.JPG,AFNE01.JPG,AFNE01.JPG,,,,,,,,,,,,,,,,,5,0,50,6,,,,,,,AMNE10.jpg,AMSA06.jpg,AMNE02.jpg,AMSA09.jpg,AMSA06.jpg,MS,2,num_6,32,num_2,0.98349155928,,,2017_May_01_1702,59.987897772,MAFE4ImagesEEG,001,200187,
AFNE01.JPG,AFNE01.JPG,AFNE01.JPG,AFNE01.JPG,AFNE01.JPG,AFNE01.JPG,,,,,,,,,,,,,,,,,5,1,51,0,,,,,,,AMNE16.jpg,AMNE08.jpg,AMSA17.jpg,AMSA04.jpg,AMNE08.jpg,MN,1,num_6,32,num_8,0.733478328912,,,2017_May_01_1702,59.987897772,MAFE4ImagesEEG,001,200187,
AFNE01.JPG,AFNE01.JPG,AFNE01.JPG,AFNE01.JPG,AFNE01.JPG,AFNE01.JPG,,,,,,,,,,,,,,,,,5,2,52,8,,,,,,,AMSA01.jpg,AMNE20.jpg,AMSA08.jpg,AMNE19.jpg,AMNE20.jpg,MN,1,num_6,32,num_2,1.01675380627,,,2017_May_01_1702,59.987897772,MAFE4ImagesEEG,001,200187,
AFNE01.JPG,AFNE01.JPG,AFNE01.JPG,AFNE01.JPG,AFNE01.JPG,AFNE01.JPG,,,,,,,,,,,,,,,,,5,3,53,7,,,,,,,AMSA17.jpg,AMNE07.jpg,AMNE04.jpg,AMSA08.jpg,AMNE07.jpg,MN,1,num_6,32,num_2,0.833435060922,,,2017_May_01_1702,59.987897772,MAFE4ImagesEEG,001,200187,
AFNE01.JPG,AFNE01.JPG,AFNE01.JPG,AFNE01.JPG,AFNE01.JPG,AFNE01.JPG,,,,,,,,,,,,,,,,,5,4,54,3,,,,,,,AMNE04.jpg,AMNE13.jpg,AMSA16.jpg,AMSA20.jpg,AMSA16.jpg,MS,2,num_2,32,num_6,1.13343451591,,,2017_May_01_1702,59.987897772,MAFE4ImagesEEG,001,200187,
AFNE01.JPG,AFNE01.JPG,AFNE01.JPG,AFNE01.JPG,AFNE01.JPG,AFNE01.JPG,,,,,,,,,,,,,,,,,5,5,55,4,,,,,,,AMNE20.jpg,AMSA20.jpg,AMNE14.jpg,AMSA01.jpg,AMNE20.jpg,MN,1,num_8,16,num_8,0.800119571621,,,2017_May_01_1702,59.987897772,MAFE4ImagesEEG,001,200187,
AFNE01.JPG,AFNE01.JPG,AFNE01.JPG,AFNE01.JPG,AFNE01.JPG,AFNE01.JPG,,,,,,,,,,,,,,,,,5,6,56,2,,,,,,,AMSA11.jpg,AMNE08.jpg,AMSA18.jpg,AMNE07.jpg,AMNE08.jpg,MN,1,num_6,16,num_6,0.666798597202,,,2017_May_01_1702,59.987897772,MAFE4ImagesEEG,001,200187,
AFNE01.JPG,AFNE01.JPG,AFNE01.JPG,AFNE01.JPG,AFNE01.JPG,AFNE01.JPG,,,,,,,,,,,,,,,,,5,7,57,9,,,,,,,AMNE11.jpg,AMNE12.jpg,AMSA01.jpg,AMSA15.jpg,AMNE11.jpg,MN,1,num_8,16,num_8,0.700144877657,,,2017_May_01_1702,59.987897772,MAFE4ImagesEEG,001,200187,
AFNE01.JPG,AFNE01.JPG,AFNE01.JPG,AFNE01.JPG,AFNE01.JPG,AFNE01.JPG,,,,,,,,,,,,,,,,,5,8,58,1,,,,,,,AMNE11.jpg,AMSA13.jpg,AMNE20.jpg,AMSA05.jpg,AMNE20.jpg,MN,1,num_2,16,num_2,0.933476147708,,,2017_May_01_1702,59.987897772,MAFE4ImagesEEG,001,200187,
AFNE01.JPG,AFNE01.JPG,AFNE01.JPG,AFNE01.JPG,AFNE01.JPG,AFNE01.JPG,,,,,,,,,,,,,,,,,5,9,59,5,,,,,,,AMSA01.jpg,AMNE06.jpg,AMSA19.jpg,AMNE18.jpg,AMNE18.jpg,MN,1,num_4,32,num_6,0.816830719588,,,2017_May_01_1702,59.987897772,MAFE4ImagesEEG,001,200187,
,,,,,,,,,,,,,,,,,,,,,,,,,,,,,,,,,,,,,,,,,,,space,6.33326651272,2017_May_01_1702,59.987897772,MAFE4ImagesEEG,001,200187,
AFNE01.JPG,AFNE01.JPG,AFNE01.JPG,AFNE01.JPG,AFNE01.JPG,AFNE01.JPG,,,,,,,,,,,,,,,,,,,,,0,0,0,8,,,AFSA15.jpg,AFNE09.jpg,AFNE20.jpg,AFSA20.jpg,AFNE20.jpg,FN,3,num_2,32,num_6,0.783485721797,,,2017_May_01_1702,59.987897772,MAFE4ImagesEEG,001,200187,
AFNE01.JPG,AFNE01.JPG,AFNE01.JPG,AFNE01.JPG,AFNE01.JPG,AFNE01.JPG,,,,,,,,,,,,,,,,,,,,,0,1,1,1,,,AFSA14.jpg,AFNE03.jpg,AFNE15.jpg,AFSA10.jpg,AFNE03.jpg,FN,3,num_6,16,num_6,0.833485737909,,,2017_May_01_1702,59.987897772,MAFE4ImagesEEG,001,200187,
AFNE01.JPG,AFNE01.JPG,AFNE01.JPG,AFNE01.JPG,AFNE01.JPG,AFNE01.JPG,,,,,,,,,,,,,,,,,,,,,0,2,2,7,,,AFNE12.jpg,AFNE11.jpg,AFSA07.jpg,AFSA12.jpg,AFSA12.jpg,FS,4,num_4,16,num_4,0.933485449059,,,2017_May_01_1702,59.987897772,MAFE4ImagesEEG,001,200187,
AFNE01.JPG,AFNE01.JPG,AFNE01.JPG,AFNE01.JPG,AFNE01.JPG,AFNE01.JPG,,,,,,,,,,,,,,,,,,,,,0,3,3,4,,,AFNE01.jpg,AFSA16.jpg,AFSA15.jpg,AFNE06.jpg,AFNE01.jpg,FN,3,num_8,32,num_6,0.700176630868,,,2017_May_01_1702,59.987897772,MAFE4ImagesEEG,001,200187,
AFNE01.JPG,AFNE01.JPG,AFNE01.JPG,AFNE01.JPG,AFNE01.JPG,AFNE01.JPG,,,,,,,,,,,,,,,,,,,,,0,4,4,9,,,AFSA20.jpg,AFNE17.jpg,AFNE12.jpg,AFSA10.jpg,AFSA10.jpg,FS,4,num_4,16,num_4,2.0166511694,,,2017_May_01_1702,59.987897772,MAFE4ImagesEEG,001,200187,
AFNE01.JPG,AFNE01.JPG,AFNE01.JPG,AFNE01.JPG,AFNE01.JPG,AFNE01.JPG,,,,,,,,,,,,,,,,,,,,,0,5,5,5,,,AFNE19.jpg,AFSA15.jpg,AFNE08.jpg,AFSA20.jpg,AFSA15.jpg,FS,4,num_6,16,num_6,0.766790931812,,,2017_May_01_1702,59.987897772,MAFE4ImagesEEG,001,200187,
AFNE01.JPG,AFNE01.JPG,AFNE01.JPG,AFNE01.JPG,AFNE01.JPG,AFNE01.JPG,,,,,,,,,,,,,,,,,,,,,0,6,6,6,,,AFSA20.jpg,AFNE16.jpg,AFSA17.jpg,AFNE05.jpg,AFNE16.jpg,FN,3,num_6,16,num_6,0.850117663154,,,2017_May_01_1702,59.987897772,MAFE4ImagesEEG,001,200187,
AFNE01.JPG,AFNE01.JPG,AFNE01.JPG,AFNE01.JPG,AFNE01.JPG,AFNE01.JPG,,,,,,,,,,,,,,,,,,,,,0,7,7,3,,,AFSA08.jpg,AFSA04.jpg,AFNE14.jpg,AFNE08.jpg,AFSA08.jpg,FS,4,num_8,32,num_6,0.866551371757,,,2017_May_01_1702,59.987897772,MAFE4ImagesEEG,001,200187,
AFNE01.JPG,AFNE01.JPG,AFNE01.JPG,AFNE01.JPG,AFNE01.JPG,AFNE01.JPG,,,,,,,,,,,,,,,,,,,,,0,8,8,0,,,AFNE04.jpg,AFSA16.jpg,AFNE10.jpg,AFSA14.jpg,AFSA14.jpg,FS,4,num_4,16,num_4,0.616888067452,,,2017_May_01_1702,59.987897772,MAFE4ImagesEEG,001,200187,
AFNE01.JPG,AFNE01.JPG,AFNE01.JPG,AFNE01.JPG,AFNE01.JPG,AFNE01.JPG,,,,,,,,,,,,,,,,,,,,,0,9,9,2,,,AFNE19.jpg,AFSA11.jpg,AFSA05.jpg,AFNE15.jpg,AFNE15.jpg,FN,3,num_4,16,num_4,0.600129450439,,,2017_May_01_1702,59.987897772,MAFE4ImagesEEG,001,200187,
AFNE01.JPG,AFNE01.JPG,AFNE01.JPG,AFNE01.JPG,AFNE01.JPG,AFNE01.JPG,,,,,,,,,,,,,,,,,,,,,1,0,10,6,,,AFSA07.jpg,AFNE17.jpg,AFNE10.jpg,AFSA10.jpg,AFSA10.jpg,FS,4,num_4,32,num_8,0.666945175268,,,2017_May_01_1702,59.987897772,MAFE4ImagesEEG,001,200187,
AFNE01.JPG,AFNE01.JPG,AFNE01.JPG,AFNE01.JPG,AFNE01.JPG,AFNE01.JPG,,,,,,,,,,,,,,,,,,,,,1,1,11,5,,,AFNE13.jpg,AFSA08.jpg,AFNE15.jpg,AFSA07.jpg,AFNE13.jpg,FN,3,num_8,32,num_2,0.950133732287,,,2017_May_01_1702,59.987897772,MAFE4ImagesEEG,001,200187,
AFNE01.JPG,AFNE01.JPG,AFNE01.JPG,AFNE01.JPG,AFNE01.JPG,AFNE01.JPG,,,,,,,,,,,,,,,,,,,,,1,2,12,8,,,AFNE01.jpg,AFNE13.jpg,AFSA18.jpg,AFSA09.jpg,AFSA18.jpg,FS,4,num_2,16,num_2,1.05012638727,,,2017_May_01_1702,59.987897772,MAFE4ImagesEEG,001,200187,
AFNE01.JPG,AFNE01.JPG,AFNE01.JPG,AFNE01.JPG,AFNE01.JPG,AFNE01.JPG,,,,,,,,,,,,,,,,,,,,,1,3,13,1,,,AFSA03.jpg,AFNE07.jpg,AFNE06.jpg,AFSA07.jpg,AFNE06.jpg,FN,3,num_2,32,num_4,0.700141349807,,,2017_May_01_1702,59.987897772,MAFE4ImagesEEG,001,200187,
AFNE01.JPG,AFNE01.JPG,AFNE01.JPG,AFNE01.JPG,AFNE01.JPG,AFNE01.JPG,,,,,,,,,,,,,,,,,,,,,1,4,14,4,,,AFSA05.jpg,AFNE08.jpg,AFNE20.jpg,AFSA14.jpg,AFNE08.jpg,FN,3,num_6,32,num_2,1.16672883672,,,2017_May_01_1702,59.987897772,MAFE4ImagesEEG,001,200187,
AFNE01.JPG,AFNE01.JPG,AFNE01.JPG,AFNE01.JPG,AFNE01.JPG,AFNE01.JPG,,,,,,,,,,,,,,,,,,,,,1,5,15,0,,,AFSA15.jpg,AFNE18.jpg,AFSA06.jpg,AFNE10.jpg,AFSA15.jpg,FS,4,num_8,32,num_4,1.0834915915,,,2017_May_01_1702,59.987897772,MAFE4ImagesEEG,001,200187,
AFNE01.JPG,AFNE01.JPG,AFNE01.JPG,AFNE01.JPG,AFNE01.JPG,AFNE01.JPG,,,,,,,,,,,,,,,,,,,,,1,6,16,7,,,AFNE16.jpg,AFSA12.jpg,AFSA14.jpg,AFNE14.jpg,AFNE16.jpg,FN,3,num_8,16,num_8,0.883603144437,,,2017_May_01_1702,59.987897772,MAFE4ImagesEEG,001,200187,
AFNE01.JPG,AFNE01.JPG,AFNE01.JPG,AFNE01.JPG,AFNE01.JPG,AFNE01.JPG,,,,,,,,,,,,,,,,,,,,,1,7,17,2,,,AFNE02.jpg,AFSA17.jpg,AFNE15.jpg,AFSA11.jpg,AFSA17.jpg,FS,4,num_6,16,num_6,0.883502111537,,,2017_May_01_1702,59.987897772,MAFE4ImagesEEG,001,200187,
AFNE01.JPG,AFNE01.JPG,AFNE01.JPG,AFNE01.JPG,AFNE01.JPG,AFNE01.JPG,,,,,,,,,,,,,,,,,,,,,1,8,18,3,,,AFNE03.jpg,AFNE06.jpg,AFSA18.jpg,AFSA01.jpg,AFNE06.jpg,FN,3,num_6,16,num_6,1.20005426905,,,2017_May_01_1702,59.987897772,MAFE4ImagesEEG,001,200187,
AFNE01.JPG,AFNE01.JPG,AFNE01.JPG,AFNE01.JPG,AFNE01.JPG,AFNE01.JPG,,,,,,,,,,,,,,,,,,,,,1,9,19,9,,,AFNE20.jpg,AFNE09.jpg,AFSA20.jpg,AFSA04.jpg,AFNE09.jpg,FN,3,num_6,32,num_2,0.916740623768,,,2017_May_01_1702,59.987897772,MAFE4ImagesEEG,001,200187,
AFNE01.JPG,AFNE01.JPG,AFNE01.JPG,AFNE01.JPG,AFNE01.JPG,AFNE01.JPG,,,,,,,,,,,,,,,,,,,,,2,0,20,5,,,AFSA02.jpg,AFNE10.jpg,AFSA07.jpg,AFNE15.jpg,AFSA02.jpg,FS,4,num_8,16,num_8,0.633477013791,,,2017_May_01_1702,59.987897772,MAFE4ImagesEEG,001,200187,
AFNE01.JPG,AFNE01.JPG,AFNE01.JPG,AFNE01.JPG,AFNE01.JPG,AFNE01.JPG,,,,,,,,,,,,,,,,,,,,,2,1,21,6,,,AFSA06.jpg,AFNE09.jpg,AFNE18.jpg,AFSA09.jpg,AFNE18.jpg,FN,3,num_2,16,num_2,1.00010071206,,,2017_May_01_1702,59.987897772,MAFE4ImagesEEG,001,200187,
AFNE01.JPG,AFNE01.JPG,AFNE01.JPG,AFNE01.JPG,AFNE01.JPG,AFNE01.JPG,,,,,,,,,,,,,,,,,,,,,2,2,22,9,,,AFSA08.jpg,AFNE17.jpg,AFSA20.jpg,AFNE16.jpg,AFNE16.jpg,FN,3,num_4,16,num_4,1.63341831858,,,2017_May_01_1702,59.987897772,MAFE4ImagesEEG,001,200187,
AFNE01.JPG,AFNE01.JPG,AFNE01.JPG,AFNE01.JPG,AFNE01.JPG,AFNE01.JPG,,,,,,,,,,,,,,,,,,,,,2,3,23,3,,,AFNE19.jpg,AFSA13.jpg,AFSA04.jpg,AFNE04.jpg,AFSA04.jpg,FS,4,num_2,16,num_2,1.73337312625,,,2017_May_01_1702,59.987897772,MAFE4ImagesEEG,001,200187,
AFNE01.JPG,AFNE01.JPG,AFNE01.JPG,AFNE01.JPG,AFNE01.JPG,AFNE01.JPG,,,,,,,,,,,,,,,,,,,,,2,4,24,4,,,AFNE20.jpg,AFSA15.jpg,AFSA07.jpg,AFNE03.jpg,AFNE03.jpg,FN,3,num_4,32,num_8,1.0001209185,,,2017_May_01_1702,59.987897772,MAFE4ImagesEEG,001,200187,
AFNE01.JPG,AFNE01.JPG,AFNE01.JPG,AFNE01.JPG,AFNE01.JPG,AFNE01.JPG,,,,,,,,,,,,,,,,,,,,,2,5,25,1,,,AFSA10.jpg,AFNE04.jpg,AFSA04.jpg,AFNE16.jpg,AFNE04.jpg,FN,3,num_6,16,num_6,0.833306444576,,,2017_May_01_1702,59.987897772,MAFE4ImagesEEG,001,200187,
AFNE01.JPG,AFNE01.JPG,AFNE01.JPG,AFNE01.JPG,AFNE01.JPG,AFNE01.JPG,,,,,,,,,,,,,,,,,,,,,2,6,26,8,,,AFSA13.jpg,AFNE16.jpg,AFSA04.jpg,AFNE10.jpg,AFNE16.jpg,FN,3,num_6,32,num_4,1.16671825224,,,2017_May_01_1702,59.987897772,MAFE4ImagesEEG,001,200187,
AFNE01.JPG,AFNE01.JPG,AFNE01.JPG,AFNE01.JPG,AFNE01.JPG,AFNE01.JPG,,,,,,,,,,,,,,,,,,,,,2,7,27,2,,,AFSA19.jpg,AFNE13.jpg,AFSA07.jpg,AFNE19.jpg,AFNE13.jpg,FN,3,num_6,16,num_6,0.833462644601,,,2017_May_01_1702,59.987897772,MAFE4ImagesEEG,001,200187,
AFNE01.JPG,AFNE01.JPG,AFNE01.JPG,AFNE01.JPG,AFNE01.JPG,AFNE01.JPG,,,,,,,,,,,,,,,,,,,,,2,8,28,0,,,AFSA04.jpg,AFNE08.jpg,AFSA09.jpg,AFNE16.jpg,AFSA09.jpg,FS,4,num_2,16,num_2,0.816809229786,,,2017_May_01_1702,59.987897772,MAFE4ImagesEEG,001,200187,
AFNE01.JPG,AFNE01.JPG,AFNE01.JPG,AFNE01.JPG,AFNE01.JPG,AFNE01.JPG,,,,,,,,,,,,,,,,,,,,,2,9,29,7,,,AFNE02.jpg,AFNE01.jpg,AFSA03.jpg,AFSA19.jpg,AFSA19.jpg,FS,4,num_4,16,num_4,1.34976565209,,,2017_May_01_1702,59.987897772,MAFE4ImagesEEG,001,200187,
AFNE01.JPG,AFNE01.JPG,AFNE01.JPG,AFNE01.JPG,AFNE01.JPG,AFNE01.JPG,,,,,,,,,,,,,,,,,,,,,3,0,30,7,,,AFSA03.jpg,AFNE08.jpg,AFSA09.jpg,AFNE10.jpg,AFNE08.jpg,FN,3,num_6,16,num_6,0.666801804909,,,2017_May_01_1702,59.987897772,MAFE4ImagesEEG,001,200187,
AFNE01.JPG,AFNE01.JPG,AFNE01.JPG,AFNE01.JPG,AFNE01.JPG,AFNE01.JPG,,,,,,,,,,,,,,,,,,,,,3,1,31,6,,,AFSA15.jpg,AFSA19.jpg,AFNE05.jpg,AFNE06.jpg,AFSA19.jpg,FS,4,num_6,32,num_8,1.55008324794,,,2017_May_01_1702,59.987897772,MAFE4ImagesEEG,001,200187,
AFNE01.JPG,AFNE01.JPG,AFNE01.JPG,AFNE01.JPG,AFNE01.JPG,AFNE01.JPG,,,,,,,,,,,,,,,,,,,,,3,2,32,2,,,AFNE04.jpg,AFSA15.jpg,AFSA04.jpg,AFNE14.jpg,AFSA04.jpg,FS,4,num_2,16,num_2,1.11678591208,,,2017_May_01_1702,59.987897772,MAFE4ImagesEEG,001,200187,
AFNE01.JPG,AFNE01.JPG,AFNE01.JPG,AFNE01.JPG,AFNE01.JPG,AFNE01.JPG,,,,,,,,,,,,,,,,,,,,,3,3,33,4,,,AFSA05.jpg,AFNE01.jpg,AFNE14.jpg,AFSA19.jpg,AFSA19.jpg,FS,4,num_4,16,num_4,0.600162807154,,,2017_May_01_1702,59.987897772,MAFE4ImagesEEG,001,200187,
AFNE01.JPG,AFNE01.JPG,AFNE01.JPG,AFNE01.JPG,AFNE01.JPG,AFNE01.JPG,,,,,,,,,,,,,,,,,,,,,3,4,34,5,,,AFNE19.jpg,AFSA02.jpg,AFSA19.jpg,AFNE05.jpg,AFSA02.jpg,FS,4,num_6,16,num_6,0.633462259779,,,2017_May_01_1702,59.987897772,MAFE4ImagesEEG,001,200187,
AFNE01.JPG,AFNE01.JPG,AFNE01.JPG,AFNE01.JPG,AFNE01.JPG,AFNE01.JPG,,,,,,,,,,,,,,,,,,,,,3,5,35,8,,,AFNE16.jpg,AFSA16.jpg,AFSA15.jpg,AFNE01.jpg,AFSA15.jpg,FS,4,num_2,32,num_6,0.883441812824,,,2017_May_01_1702,59.987897772,MAFE4ImagesEEG,001,200187,
AFNE01.JPG,AFNE01.JPG,AFNE01.JPG,AFNE01.JPG,AFNE01.JPG,AFNE01.JPG,,,,,,,,,,,,,,,,,,,,,3,6,36,3,,,AFSA11.jpg,AFNE06.jpg,AFSA10.jpg,AFNE03.jpg,AFSA11.jpg,FS,4,num_8,16,num_8,0.566745322663,,,2017_May_01_1702,59.987897772,MAFE4ImagesEEG,001,200187,
AFNE01.JPG,AFNE01.JPG,AFNE01.JPG,AFNE01.JPG,AFNE01.JPG,AFNE01.JPG,,,,,,,,,,,,,,,,,,,,,3,7,37,1,,,AFSA15.jpg,AFSA09.jpg,AFNE15.jpg,AFNE18.jpg,AFSA09.jpg,FS,4,num_6,16,num_6,0.716617075028,,,2017_May_01_1702,59.987897772,MAFE4ImagesEEG,001,200187,
AFNE01.JPG,AFNE01.JPG,AFNE01.JPG,AFNE01.JPG,AFNE01.JPG,AFNE01.JPG,,,,,,,,,,,,,,,,,,,,,3,8,38,0,,,AFSA19.jpg,AFSA17.jpg,AFNE19.jpg,AFNE12.jpg,AFSA19.jpg,FS,4,num_8,32,num_2,0.650191048393,,,2017_May_01_1702,59.987897772,MAFE4ImagesEEG,001,200187,
AFNE01.JPG,AFNE01.JPG,AFNE01.JPG,AFNE01.JPG,AFNE01.JPG,AFNE01.JPG,,,,,,,,,,,,,,,,,,,,,3,9,39,9,,,AFNE17.jpg,AFSA12.jpg,AFSA20.jpg,AFNE07.jpg,AFSA20.jpg,FS,4,num_2,32,num_6,0.916766924318,,,2017_May_01_1702,59.987897772,MAFE4ImagesEEG,001,200187,
AFNE01.JPG,AFNE01.JPG,AFNE01.JPG,AFNE01.JPG,AFNE01.JPG,AFNE01.JPG,,,,,,,,,,,,,,,,,,,,,4,0,40,2,,,AFNE15.jpg,AFSA18.jpg,AFNE13.jpg,AFSA06.jpg,AFNE13.jpg,FN,3,num_2,32,num_8,0.983490917832,,,2017_May_01_1702,59.987897772,MAFE4ImagesEEG,001,200187,
