IPosition2,IPosition3,IPosition1,IPosition6,IPosition4,IPosition5,TrialsF1.thisRepN,TrialsF1.thisTrialN,TrialsF1.thisN,TrialsF1.thisIndex,TrialsM1.thisRepN,TrialsM1.thisTrialN,TrialsM1.thisN,TrialsM1.thisIndex,TrialsF2.thisRepN,TrialsF2.thisTrialN,TrialsF2.thisN,TrialsF2.thisIndex,TrialsM2.thisRepN,TrialsM2.thisTrialN,TrialsM2.thisN,TrialsM2.thisIndex,TrialsF3.thisRepN,TrialsF3.thisTrialN,TrialsF3.thisN,TrialsF3.thisIndex,TrialsM3.thisRepN,TrialsM3.thisTrialN,TrialsM3.thisN,TrialsM3.thisIndex,InstrKey_resp.keys,InstrKey_resp.rt,Image0 _Position,Image1 _Position,Image2 _Position,Image3 _Position,Center_image,condition,code,correct_answer,accuracy,Key_Resp.keys,Key_Resp.rt,BreakKey_resp.keys,BreakKey_resp.rt,date,frameRate,expName,session,participant,
,,,,,,,,,,,,,,,,,,,,,,,,,,,,,,space,12.9995583415,,,,,,,,,,,,,,2017_Apr_10_1725,60.0054466919,FEMA4ImagesEEG,001,200144,
AMSA21.JPG,AMNE23.JPG,AMNE21.JPG,AMSA25.JPG,AMNE25.JPG,AMSA23.JPG,0,0,0,5,,,,,,,,,,,,,,,,,,,,,,,AFSA16.jpg,AFSA06.jpg,AFNE13.jpg,AFNE10.jpg,AFNE13.jpg,FN,3,num_2,32,num_4,0.916748482035,,,2017_Apr_10_1725,60.0054466919,FEMA4ImagesEEG,001,200144,
AFSA21.JPG,AFNE22.JPG,AFNE21.JPG,AFSA23.JPG,AFSA22.JPG,AFNE23.JPG,0,1,1,0,,,,,,,,,,,,,,,,,,,,,,,AFSA14.jpg,AFNE18.jpg,AFSA06.jpg,AFNE17.jpg,AFNE17.jpg,FN,3,num_4,32,num_6,1.43344795518,,,2017_Apr_10_1725,60.0054466919,FEMA4ImagesEEG,001,200144,
AFNE22.JPG,AFSA24.JPG,AFSA22.JPG,AFNE25.JPG,AFNE24.JPG,AFSA25.JPG,0,2,2,6,,,,,,,,,,,,,,,,,,,,,,,AFNE04.jpg,AFNE15.jpg,AFSA19.jpg,AFSA20.jpg,AFSA19.jpg,FS,4,num_2,32,num_4,1.33341309056,,,2017_Apr_10_1725,60.0054466919,FEMA4ImagesEEG,001,200144,
AMNE23.JPG,AMNE24.JPG,AMNE22.JPG,AMSA24.JPG,AMSA22.JPG,AMSA23.JPG,0,3,3,9,,,,,,,,,,,,,,,,,,,,,,,AFSA13.jpg,AFNE04.jpg,AFSA14.jpg,AFNE11.jpg,AFSA14.jpg,FS,4,num_2,16,num_2,2.06666927529,,,2017_Apr_10_1725,60.0054466919,FEMA4ImagesEEG,001,200144,
AMSA25.JPG,AMNE24.JPG,AMSA24.JPG,AMNE26.JPG,AMSA21.JPG,AMNE25.JPG,0,4,4,3,,,,,,,,,,,,,,,,,,,,,,,AFSA15.jpg,AFSA19.jpg,AFNE19.jpg,AFNE03.jpg,AFSA19.jpg,FS,4,num_6,32,num_8,1.36673666281,,,2017_Apr_10_1725,60.0054466919,FEMA4ImagesEEG,001,200144,
AFNE23.JPG,AFNE24.JPG,AFNE22.JPG,AFSA24.JPG,AFSA22.JPG,AFSA23.JPG,0,5,5,8,,,,,,,,,,,,,,,,,,,,,,,AFNE12.jpg,AFNE10.jpg,AFSA10.jpg,AFSA17.jpg,AFNE12.jpg,FN,3,num_8,16,num_8,1.15013729269,,,2017_Apr_10_1725,60.0054466919,FEMA4ImagesEEG,001,200144,
AFSA25.JPG,AFNE24.JPG,AFSA24.JPG,AFNE21.JPG,AFSA21.JPG,AFNE25.JPG,0,6,6,2,,,,,,,,,,,,,,,,,,,,,,,AFNE06.jpg,AFNE14.jpg,AFSA05.jpg,AFSA11.jpg,AFNE14.jpg,FN,3,num_6,16,num_6,0.833452381194,,,2017_Apr_10_1725,60.0054466919,FEMA4ImagesEEG,001,200144,
AFSA21.JPG,AFNE23.JPG,AFNE21.JPG,AFSA25.JPG,AFNE25.JPG,AFSA23.JPG,0,7,7,4,,,,,,,,,,,,,,,,,,,,,,,AFSA08.jpg,AFNE07.jpg,AFNE11.jpg,AFSA13.jpg,AFSA13.jpg,FS,4,num_4,16,num_4,0.716645396315,,,2017_Apr_10_1725,60.0054466919,FEMA4ImagesEEG,001,200144,
AMNE22.JPG,AMSA24.JPG,AMSA22.JPG,AMNE25.JPG,AMNE24.JPG,AMSA25.JPG,0,8,8,7,,,,,,,,,,,,,,,,,,,,,,,AFNE18.jpg,AFSA09.jpg,AFSA10.jpg,AFNE20.jpg,AFNE18.jpg,FN,3,num_8,32,num_4,0.766773483716,,,2017_Apr_10_1725,60.0054466919,FEMA4ImagesEEG,001,200144,
AMSA21.JPG,AMNE22.JPG,AMNE21.JPG,AMSA23.JPG,AMSA22.JPG,AMNE23.JPG,0,9,9,1,,,,,,,,,,,,,,,,,,,,,,,AFNE07.jpg,AFSA19.jpg,AFNE13.jpg,AFSA05.jpg,AFSA19.jpg,FS,4,num_6,16,num_6,0.566790354671,,,2017_Apr_10_1725,60.0054466919,FEMA4ImagesEEG,001,200144,
AMSA21.JPG,AMNE22.JPG,AMNE21.JPG,AMSA23.JPG,AMSA22.JPG,AMNE23.JPG,,,,,0,0,0,1,,,,,,,,,,,,,,,,,,,AMSA07.jpg,AMSA02.jpg,AMNE09.jpg,AMNE02.jpg,AMNE09.jpg,MN,1,num_2,32,num_6,0.983606673079,,,2017_Apr_10_1725,60.0054466919,FEMA4ImagesEEG,001,200144,
AFNE23.JPG,AFNE24.JPG,AFNE22.JPG,AFSA24.JPG,AFSA22.JPG,AFSA23.JPG,,,,,0,1,1,8,,,,,,,,,,,,,,,,,,,AMNE03.jpg,AMNE04.jpg,AMSA14.jpg,AMSA05.jpg,AMNE04.jpg,MN,1,num_6,32,num_8,1.15010008682,,,2017_Apr_10_1725,60.0054466919,FEMA4ImagesEEG,001,200144,
AMSA21.JPG,AMNE23.JPG,AMNE21.JPG,AMSA25.JPG,AMNE25.JPG,AMSA23.JPG,,,,,0,2,2,5,,,,,,,,,,,,,,,,,,,AMNE04.jpg,AMNE14.jpg,AMSA18.jpg,AMSA11.jpg,AMSA11.jpg,MS,2,num_4,32,num_2,1.31661274494,,,2017_Apr_10_1725,60.0054466919,FEMA4ImagesEEG,001,200144,
AFSA25.JPG,AFNE24.JPG,AFSA24.JPG,AFNE21.JPG,AFSA21.JPG,AFNE25.JPG,,,,,0,3,3,2,,,,,,,,,,,,,,,,,,,AMNE15.jpg,AMNE16.jpg,AMSA10.jpg,AMSA05.jpg,AMNE16.jpg,MN,1,num_6,16,num_6,0.700124094263,,,2017_Apr_10_1725,60.0054466919,FEMA4ImagesEEG,001,200144,
AFNE22.JPG,AFSA24.JPG,AFSA22.JPG,AFNE25.JPG,AFNE24.JPG,AFSA25.JPG,,,,,0,4,4,6,,,,,,,,,,,,,,,,,,,AMSA06.jpg,AMSA04.jpg,AMNE12.jpg,AMNE03.jpg,AMSA04.jpg,MS,2,num_6,16,num_6,0.71675380622,,,2017_Apr_10_1725,60.0054466919,FEMA4ImagesEEG,001,200144,
AMSA25.JPG,AMNE24.JPG,AMSA24.JPG,AMNE26.JPG,AMSA21.JPG,AMNE25.JPG,,,,,0,5,5,3,,,,,,,,,,,,,,,,,,,AMSA04.jpg,AMNE05.jpg,AMNE16.jpg,AMSA09.jpg,AMNE05.jpg,MN,1,num_6,16,num_6,0.933437210275,,,2017_Apr_10_1725,60.0054466919,FEMA4ImagesEEG,001,200144,
AMNE22.JPG,AMSA24.JPG,AMSA22.JPG,AMNE25.JPG,AMNE24.JPG,AMSA25.JPG,,,,,0,6,6,7,,,,,,,,,,,,,,,,,,,AMNE01.jpg,AMNE20.jpg,AMSA11.jpg,AMSA15.jpg,AMSA15.jpg,MS,2,num_4,16,num_4,0.833492152859,,,2017_Apr_10_1725,60.0054466919,FEMA4ImagesEEG,001,200144,
AFSA21.JPG,AFNE22.JPG,AFNE21.JPG,AFSA23.JPG,AFSA22.JPG,AFNE23.JPG,,,,,0,7,7,0,,,,,,,,,,,,,,,,,,,AMNE17.jpg,AMNE07.jpg,AMSA06.jpg,AMSA04.jpg,AMNE07.jpg,MN,1,num_6,16,num_6,0.916718974011,,,2017_Apr_10_1725,60.0054466919,FEMA4ImagesEEG,001,200144,
AFSA21.JPG,AFNE23.JPG,AFNE21.JPG,AFSA25.JPG,AFNE25.JPG,AFSA23.JPG,,,,,0,8,8,4,,,,,,,,,,,,,,,,,,,AMSA01.jpg,AMNE07.jpg,AMSA13.jpg,AMNE11.jpg,AMNE11.jpg,MN,1,num_4,32,num_2,1.23352640797,,,2017_Apr_10_1725,60.0054466919,FEMA4ImagesEEG,001,200144,
AMNE23.JPG,AMNE24.JPG,AMNE22.JPG,AMSA24.JPG,AMSA22.JPG,AMSA23.JPG,,,,,0,9,9,9,,,,,,,,,,,,,,,,,,,AMSA01.jpg,AMSA20.jpg,AMNE19.jpg,AMNE01.jpg,AMNE19.jpg,MN,1,num_2,32,num_6,0.800146128982,,,2017_Apr_10_1725,60.0054466919,FEMA4ImagesEEG,001,200144,
AMNE22.JPG,AMSA24.JPG,AMSA22.JPG,AMNE25.JPG,AMNE24.JPG,AMSA25.JPG,,,,,,,,,0,0,0,7,,,,,,,,,,,,,,,AFNE14.jpg,AFNE20.jpg,AFSA09.jpg,AFSA16.jpg,AFNE14.jpg,FN,3,num_8,16,num_8,1.31674328586,,,2017_Apr_10_1725,60.0054466919,FEMA4ImagesEEG,001,200144,
AMSA25.JPG,AMNE24.JPG,AMSA24.JPG,AMNE26.JPG,AMSA21.JPG,AMNE25.JPG,,,,,,,,,0,1,1,3,,,,,,,,,,,,,,,AFSA01.jpg,AFNE15.jpg,AFNE11.jpg,AFSA13.jpg,AFSA01.jpg,FS,4,num_8,16,num_8,1.08343722625,,,2017_Apr_10_1725,60.0054466919,FEMA4ImagesEEG,001,200144,
AFNE23.JPG,AFNE24.JPG,AFNE22.JPG,AFSA24.JPG,AFSA22.JPG,AFSA23.JPG,,,,,,,,,0,2,2,8,,,,,,,,,,,,,,,AFNE09.jpg,AFSA12.jpg,AFNE02.jpg,AFSA09.jpg,AFNE02.jpg,FN,3,num_2,16,num_2,1.53345331154,,,2017_Apr_10_1725,60.0054466919,FEMA4ImagesEEG,001,200144,
AFNE22.JPG,AFSA24.JPG,AFSA22.JPG,AFNE25.JPG,AFNE24.JPG,AFSA25.JPG,,,,,,,,,0,3,3,6,,,,,,,,,,,,,,,AFSA03.jpg,AFNE03.jpg,AFNE17.jpg,AFSA07.jpg,AFSA03.jpg,FS,4,num_8,16,num_8,0.733494815184,,,2017_Apr_10_1725,60.0054466919,FEMA4ImagesEEG,001,200144,
AMSA21.JPG,AMNE23.JPG,AMNE21.JPG,AMSA25.JPG,AMNE25.JPG,AMSA23.JPG,,,,,,,,,0,4,4,5,,,,,,,,,,,,,,,AFNE10.jpg,AFSA20.jpg,AFSA17.jpg,AFNE13.jpg,AFNE10.jpg,FN,3,num_8,16,num_8,0.56675346964,,,2017_Apr_10_1725,60.0054466919,FEMA4ImagesEEG,001,200144,
AFSA25.JPG,AFNE24.JPG,AFSA24.JPG,AFNE21.JPG,AFSA21.JPG,AFNE25.JPG,,,,,,,,,0,5,5,2,,,,,,,,,,,,,,,AFNE14.jpg,AFNE08.jpg,AFSA20.jpg,AFSA09.jpg,AFSA20.jpg,FS,4,num_2,32,num_4,1.05011237133,,,2017_Apr_10_1725,60.0054466919,FEMA4ImagesEEG,001,200144,
AFSA21.JPG,AFNE23.JPG,AFNE21.JPG,AFSA25.JPG,AFNE25.JPG,AFSA23.JPG,,,,,,,,,0,6,6,4,,,,,,,,,,,,,,,AFSA13.jpg,AFSA16.jpg,AFNE03.jpg,AFNE01.jpg,AFNE01.jpg,FN,3,num_4,16,num_4,0.650112114614,,,2017_Apr_10_1725,60.0054466919,FEMA4ImagesEEG,001,200144,
AMNE23.JPG,AMNE24.JPG,AMNE22.JPG,AMSA24.JPG,AMSA22.JPG,AMSA23.JPG,,,,,,,,,0,7,7,9,,,,,,,,,,,,,,,AFSA14.jpg,AFNE03.jpg,AFSA05.jpg,AFNE04.jpg,AFNE04.jpg,FN,3,num_4,16,num_4,0.900085092289,,,2017_Apr_10_1725,60.0054466919,FEMA4ImagesEEG,001,200144,
AMSA21.JPG,AMNE22.JPG,AMNE21.JPG,AMSA23.JPG,AMSA22.JPG,AMNE23.JPG,,,,,,,,,0,8,8,1,,,,,,,,,,,,,,,AFNE12.jpg,AFSA19.jpg,AFNE06.jpg,AFSA16.jpg,AFNE06.jpg,FN,3,num_2,32,num_8,1.31670575938,,,2017_Apr_10_1725,60.0054466919,FEMA4ImagesEEG,001,200144,
AFSA21.JPG,AFNE22.JPG,AFNE21.JPG,AFSA23.JPG,AFSA22.JPG,AFNE23.JPG,,,,,,,,,0,9,9,0,,,,,,,,,,,,,,,AFNE17.jpg,AFSA05.jpg,AFSA02.jpg,AFNE18.jpg,AFSA02.jpg,FS,4,num_2,32,num_6,1.70007662475,,,2017_Apr_10_1725,60.0054466919,FEMA4ImagesEEG,001,200144,
AFSA21.JPG,AFNE22.JPG,AFNE21.JPG,AFSA23.JPG,AFSA22.JPG,AFNE23.JPG,,,,,,,,,,,,,0,0,0,0,,,,,,,,,,,AMSA18.jpg,AMNE05.jpg,AMSA12.jpg,AMNE03.jpg,AMSA18.jpg,MS,2,num_8,32,num_4,1.01672721701,,,2017_Apr_10_1725,60.0054466919,FEMA4ImagesEEG,001,200144,
AMSA25.JPG,AMNE24.JPG,AMSA24.JPG,AMNE26.JPG,AMSA21.JPG,AMNE25.JPG,,,,,,,,,,,,,0,1,1,3,,,,,,,,,,,AMNE18.jpg,AMNE19.jpg,AMSA18.jpg,AMSA12.jpg,AMNE19.jpg,MN,1,num_6,32,num_4,1.41677943338,,,2017_Apr_10_1725,60.0054466919,FEMA4ImagesEEG,001,200144,
AMSA21.JPG,AMNE22.JPG,AMNE21.JPG,AMSA23.JPG,AMSA22.JPG,AMNE23.JPG,,,,,,,,,,,,,0,2,2,1,,,,,,,,,,,AMNE06.jpg,AMSA01.jpg,AMNE19.jpg,AMSA10.jpg,AMSA01.jpg,MS,2,num_6,16,num_6,0.616803617217,,,2017_Apr_10_1725,60.0054466919,FEMA4ImagesEEG,001,200144,
AFNE23.JPG,AFNE24.JPG,AFNE22.JPG,AFSA24.JPG,AFSA22.JPG,AFSA23.JPG,,,,,,,,,,,,,0,3,3,8,,,,,,,,,,,AMNE10.jpg,AMSA20.jpg,AMNE11.jpg,AMSA15.jpg,AMSA20.jpg,MS,2,num_6,16,num_6,0.683515230194,,,2017_Apr_10_1725,60.0054466919,FEMA4ImagesEEG,001,200144,
AFNE22.JPG,AFSA24.JPG,AFSA22.JPG,AFNE25.JPG,AFNE24.JPG,AFSA25.JPG,,,,,,,,,,,,,0,4,4,6,,,,,,,,,,,AMSA11.jpg,AMNE19.jpg,AMNE12.jpg,AMSA06.jpg,AMNE12.jpg,MN,1,num_2,32,num_6,0.95010637329,,,2017_Apr_10_1725,60.0054466919,FEMA4ImagesEEG,001,200144,
AMSA21.JPG,AMNE23.JPG,AMNE21.JPG,AMSA25.JPG,AMNE25.JPG,AMSA23.JPG,,,,,,,,,,,,,0,5,5,5,,,,,,,,,,,AMSA17.jpg,AMSA07.jpg,AMNE02.jpg,AMNE12.jpg,AMNE02.jpg,MN,1,num_2,16,num_2,1.61671316857,,,2017_Apr_10_1725,60.0054466919,FEMA4ImagesEEG,001,200144,
AFSA21.JPG,AFNE23.JPG,AFNE21.JPG,AFSA25.JPG,AFNE25.JPG,AFSA23.JPG,,,,,,,,,,,,,0,6,6,4,,,,,,,,,,,AMNE18.jpg,AMSA16.jpg,AMNE10.jpg,AMSA01.jpg,AMSA01.jpg,MS,2,num_4,16,num_4,0.516778054181,,,2017_Apr_10_1725,60.0054466919,FEMA4ImagesEEG,001,200144,
AMNE22.JPG,AMSA24.JPG,AMSA22.JPG,AMNE25.JPG,AMNE24.JPG,AMSA25.JPG,,,,,,,,,,,,,0,7,7,7,,,,,,,,,,,AMNE15.jpg,AMSA06.jpg,AMNE16.jpg,AMSA01.jpg,AMSA01.jpg,MS,2,num_4,16,num_4,0.90010561957,,,2017_Apr_10_1725,60.0054466919,FEMA4ImagesEEG,001,200144,
AMNE23.JPG,AMNE24.JPG,AMNE22.JPG,AMSA24.JPG,AMSA22.JPG,AMSA23.JPG,,,,,,,,,,,,,0,8,8,9,,,,,,,,,,,AMSA11.jpg,AMNE20.jpg,AMNE10.jpg,AMSA09.jpg,AMSA11.jpg,MS,2,num_8,16,num_8,1.96669791755,,,2017_Apr_10_1725,60.0054466919,FEMA4ImagesEEG,001,200144,
AFSA25.JPG,AFNE24.JPG,AFSA24.JPG,AFNE21.JPG,AFSA21.JPG,AFNE25.JPG,,,,,,,,,,,,,0,9,9,2,,,,,,,,,,,AMSA20.jpg,AMSA18.jpg,AMNE11.jpg,AMNE18.jpg,AMSA18.jpg,MS,2,num_6,16,num_6,0.900109147886,,,2017_Apr_10_1725,60.0054466919,FEMA4ImagesEEG,001,200144,
AFSA21.JPG,AFNE23.JPG,AFNE21.JPG,AFSA25.JPG,AFNE25.JPG,AFSA23.JPG,,,,,,,,,,,,,,,,,0,0,0,4,,,,,,,AFSA08.jpg,AFSA03.jpg,AFNE19.jpg,AFNE06.jpg,AFNE06.jpg,FN,3,num_4,32,num_6,0.750045625027,,,2017_Apr_10_1725,60.0054466919,FEMA4ImagesEEG,001,200144,
AMNE23.JPG,AMNE24.JPG,AMNE22.JPG,AMSA24.JPG,AMSA22.JPG,AMSA23.JPG,,,,,,,,,,,,,,,,,0,1,1,9,,,,,,,AFNE08.jpg,AFNE09.jpg,AFSA20.jpg,AFSA15.jpg,AFSA20.jpg,FS,4,num_2,32,num_6,1.00010873075,,,2017_Apr_10_1725,60.0054466919,FEMA4ImagesEEG,001,200144,
AFSA25.JPG,AFNE24.JPG,AFSA24.JPG,AFNE21.JPG,AFSA21.JPG,AFNE25.JPG,,,,,,,,,,,,,,,,,0,2,2,2,,,,,,,AFSA19.jpg,AFNE05.jpg,AFSA09.jpg,AFNE11.jpg,AFSA19.jpg,FS,4,num_8,16,num_8,0.716778823873,,,2017_Apr_10_1725,60.0054466919,FEMA4ImagesEEG,001,200144,
AMSA21.JPG,AMNE22.JPG,AMNE21.JPG,AMSA23.JPG,AMSA22.JPG,AMNE23.JPG,,,,,,,,,,,,,,,,,0,3,3,1,,,,,,,AFSA12.jpg,AFNE18.jpg,AFNE02.jpg,AFSA13.jpg,AFSA13.jpg,FS,4,num_4,16,num_4,0.516898331698,,,2017_Apr_10_1725,60.0054466919,FEMA4ImagesEEG,001,200144,
AMNE22.JPG,AMSA24.JPG,AMSA22.JPG,AMNE25.JPG,AMNE24.JPG,AMSA25.JPG,,,,,,,,,,,,,,,,,0,4,4,7,,,,,,,AFSA20.jpg,AFNE05.jpg,AFNE08.jpg,AFSA19.jpg,AFNE08.jpg,FN,3,num_2,32,num_8,0.783459645929,,,2017_Apr_10_1725,60.0054466919,FEMA4ImagesEEG,001,200144,
AFSA21.JPG,AFNE22.JPG,AFNE21.JPG,AFSA23.JPG,AFSA22.JPG,AFNE23.JPG,,,,,,,,,,,,,,,,,0,5,5,0,,,,,,,AFNE17.jpg,AFNE20.jpg,AFSA16.jpg,AFSA17.jpg,AFNE20.jpg,FN,3,num_6,32,num_8,1.06671834853,,,2017_Apr_10_1725,60.0054466919,FEMA4ImagesEEG,001,200144,
AMSA21.JPG,AMNE23.JPG,AMNE21.JPG,AMSA25.JPG,AMNE25.JPG,AMSA23.JPG,,,,,,,,,,,,,,,,,0,6,6,5,,,,,,,AFSA01.jpg,AFSA12.jpg,AFNE10.jpg,AFNE02.jpg,AFSA01.jpg,FS,4,num_8,32,num_4,0.733532662271,,,2017_Apr_10_1725,60.0054466919,FEMA4ImagesEEG,001,200144,
AMSA25.JPG,AMNE24.JPG,AMSA24.JPG,AMNE26.JPG,AMSA21.JPG,AMNE25.JPG,,,,,,,,,,,,,,,,,0,7,7,3,,,,,,,AFNE05.jpg,AFNE18.jpg,AFSA01.jpg,AFSA03.jpg,AFNE18.jpg,FN,3,num_6,32,num_4,0.566756356275,,,2017_Apr_10_1725,60.0054466919,FEMA4ImagesEEG,001,200144,
AFNE22.JPG,AFSA24.JPG,AFSA22.JPG,AFNE25.JPG,AFNE24.JPG,AFSA25.JPG,,,,,,,,,,,,,,,,,0,8,8,6,,,,,,,AFNE19.jpg,AFSA05.jpg,AFNE06.jpg,AFSA08.jpg,AFSA08.jpg,FS,4,num_4,32,num_8,0.816773275146,,,2017_Apr_10_1725,60.0054466919,FEMA4ImagesEEG,001,200144,
AFNE23.JPG,AFNE24.JPG,AFNE22.JPG,AFSA24.JPG,AFSA22.JPG,AFSA23.JPG,,,,,,,,,,,,,,,,,0,9,9,8,,,,,,,AFNE16.jpg,AFSA01.jpg,AFSA16.jpg,AFNE06.jpg,AFSA16.jpg,FS,4,num_2,32,num_8,0.916764839785,,,2017_Apr_10_1725,60.0054466919,FEMA4ImagesEEG,001,200144,
AFSA25.JPG,AFNE24.JPG,AFSA24.JPG,AFNE21.JPG,AFSA21.JPG,AFNE25.JPG,,,,,,,,,,,,,,,,,,,,,0,0,0,2,,,AMNE19.jpg,AMNE12.jpg,AMSA11.jpg,AMSA06.jpg,AMSA06.jpg,MS,2,num_4,16,num_4,1.03346213186,,,2017_Apr_10_1725,60.0054466919,FEMA4ImagesEEG,001,200144,
AMSA25.JPG,AMNE24.JPG,AMSA24.JPG,AMNE26.JPG,AMSA21.JPG,AMNE25.JPG,,,,,,,,,,,,,,,,,,,,,0,1,1,3,,,AMNE06.jpg,AMSA16.jpg,AMNE01.jpg,AMSA03.jpg,AMSA03.jpg,MS,2,num_4,16,num_4,0.849873291794,,,2017_Apr_10_1725,60.0054466919,FEMA4ImagesEEG,001,200144,
AFSA21.JPG,AFNE23.JPG,AFNE21.JPG,AFSA25.JPG,AFNE25.JPG,AFSA23.JPG,,,,,,,,,,,,,,,,,,,,,0,2,2,4,,,AMSA18.jpg,AMSA06.jpg,AMNE18.jpg,AMNE12.jpg,AMSA18.jpg,MS,2,num_8,16,num_8,0.666796031641,,,2017_Apr_10_1725,60.0054466919,FEMA4ImagesEEG,001,200144,
AFSA21.JPG,AFNE22.JPG,AFNE21.JPG,AFSA23.JPG,AFSA22.JPG,AFNE23.JPG,,,,,,,,,,,,,,,,,,,,,0,3,3,0,,,AMNE04.jpg,AMSA05.jpg,AMNE20.jpg,AMSA14.jpg,AMNE20.jpg,MN,1,num_2,32,num_6,0.766810689587,,,2017_Apr_10_1725,60.0054466919,FEMA4ImagesEEG,001,200144,
AMNE23.JPG,AMNE24.JPG,AMNE22.JPG,AMSA24.JPG,AMSA22.JPG,AMSA23.JPG,,,,,,,,,,,,,,,,,,,,,0,4,4,9,,,AMSA14.jpg,AMNE07.jpg,AMSA01.jpg,AMNE11.jpg,AMSA14.jpg,MS,2,num_8,16,num_8,0.600154660642,,,2017_Apr_10_1725,60.0054466919,FEMA4ImagesEEG,001,200144,
AFNE22.JPG,AFSA24.JPG,AFSA22.JPG,AFNE25.JPG,AFNE24.JPG,AFSA25.JPG,,,,,,,,,,,,,,,,,,,,,0,5,5,6,,,AMSA11.jpg,AMNE09.jpg,AMNE07.jpg,AMSA13.jpg,AMSA11.jpg,MS,2,num_8,32,num_4,0.983501149574,,,2017_Apr_10_1725,60.0054466919,FEMA4ImagesEEG,001,200144,
AMSA21.JPG,AMNE22.JPG,AMNE21.JPG,AMSA23.JPG,AMSA22.JPG,AMNE23.JPG,,,,,,,,,,,,,,,,,,,,,0,6,6,1,,,AMSA20.jpg,AMNE01.jpg,AMSA03.jpg,AMNE20.jpg,AMNE01.jpg,MN,1,num_6,16,num_6,0.533469348215,,,2017_Apr_10_1725,60.0054466919,FEMA4ImagesEEG,001,200144,
AMSA21.JPG,AMNE23.JPG,AMNE21.JPG,AMSA25.JPG,AMNE25.JPG,AMSA23.JPG,,,,,,,,,,,,,,,,,,,,,0,7,7,5,,,AMNE16.jpg,AMSA04.jpg,AMNE09.jpg,AMSA13.jpg,AMNE09.jpg,MN,1,num_2,32,num_8,1.26686409255,,,2017_Apr_10_1725,60.0054466919,FEMA4ImagesEEG,001,200144,
AMNE22.JPG,AMSA24.JPG,AMSA22.JPG,AMNE25.JPG,AMNE24.JPG,AMSA25.JPG,,,,,,,,,,,,,,,,,,,,,0,8,8,7,,,AMNE03.jpg,AMSA09.jpg,AMNE08.jpg,AMSA20.jpg,AMSA09.jpg,MS,2,num_6,32,num_8,0.816832612036,,,2017_Apr_10_1725,60.0054466919,FEMA4ImagesEEG,001,200144,
AFNE23.JPG,AFNE24.JPG,AFNE22.JPG,AFSA24.JPG,AFSA22.JPG,AFSA23.JPG,,,,,,,,,,,,,,,,,,,,,0,9,9,8,,,AMNE09.jpg,AMSA01.jpg,AMNE02.jpg,AMSA16.jpg,AMNE02.jpg,MN,1,num_2,32,num_4,1.26675407891,,,2017_Apr_10_1725,60.0054466919,FEMA4ImagesEEG,001,200144,
,,,,,,,,,,,,,,,,,,,,,,,,,,,,,,,,,,,,,,,,,,,space,2.31665444118,2017_Apr_10_1725,60.0054466919,FEMA4ImagesEEG,001,200144,
AFNE01.JPG,AFNE01.JPG,AFNE01.JPG,AFNE01.JPG,AFNE01.JPG,AFNE01.JPG,0,0,0,0,,,,,,,,,,,,,,,,,,,,,,,AFSA20.jpg,AFSA07.jpg,AFNE17.jpg,AFNE20.jpg,AFNE20.jpg,FN,3,num_4,16,num_4,0.650016854983,,,2017_Apr_10_1725,60.0054466919,FEMA4ImagesEEG,001,200144,
AFNE01.JPG,AFNE01.JPG,AFNE01.JPG,AFNE01.JPG,AFNE01.JPG,AFNE01.JPG,0,1,1,3,,,,,,,,,,,,,,,,,,,,,,,AFNE20.jpg,AFSA15.jpg,AFSA08.jpg,AFNE14.jpg,AFNE20.jpg,FN,3,num_8,16,num_8,0.650144509273,,,2017_Apr_10_1725,60.0054466919,FEMA4ImagesEEG,001,200144,
AFNE01.JPG,AFNE01.JPG,AFNE01.JPG,AFNE01.JPG,AFNE01.JPG,AFNE01.JPG,0,2,2,1,,,,,,,,,,,,,,,,,,,,,,,AFSA03.jpg,AFNE15.jpg,AFSA13.jpg,AFNE20.jpg,AFSA03.jpg,FS,4,num_8,16,num_8,1.0164905109,,,2017_Apr_10_1725,60.0054466919,FEMA4ImagesEEG,001,200144,
AFNE01.JPG,AFNE01.JPG,AFNE01.JPG,AFNE01.JPG,AFNE01.JPG,AFNE01.JPG,0,3,3,6,,,,,,,,,,,,,,,,,,,,,,,AFSA01.jpg,AFNE07.jpg,AFSA04.jpg,AFNE08.jpg,AFNE07.jpg,FN,3,num_6,32,num_8,0.733451194363,,,2017_Apr_10_1725,60.0054466919,FEMA4ImagesEEG,001,200144,
AFNE01.JPG,AFNE01.JPG,AFNE01.JPG,AFNE01.JPG,AFNE01.JPG,AFNE01.JPG,0,4,4,7,,,,,,,,,,,,,,,,,,,,,,,AFNE05.jpg,AFNE18.jpg,AFSA06.jpg,AFSA13.jpg,AFNE18.jpg,FN,3,num_6,16,num_6,1.26680732192,,,2017_Apr_10_1725,60.0054466919,FEMA4ImagesEEG,001,200144,
AFNE01.JPG,AFNE01.JPG,AFNE01.JPG,AFNE01.JPG,AFNE01.JPG,AFNE01.JPG,0,5,5,8,,,,,,,,,,,,,,,,,,,,,,,AFNE10.jpg,AFSA07.jpg,AFSA04.jpg,AFNE12.jpg,AFNE10.jpg,FN,3,num_8,16,num_8,2.03339862521,,,2017_Apr_10_1725,60.0054466919,FEMA4ImagesEEG,001,200144,
AFNE01.JPG,AFNE01.JPG,AFNE01.JPG,AFNE01.JPG,AFNE01.JPG,AFNE01.JPG,0,6,6,5,,,,,,,,,,,,,,,,,,,,,,,AFNE12.jpg,AFNE17.jpg,AFSA14.jpg,AFSA03.jpg,AFSA14.jpg,FS,4,num_2,32,num_6,0.866773066809,,,2017_Apr_10_1725,60.0054466919,FEMA4ImagesEEG,001,200144,
AFNE01.JPG,AFNE01.JPG,AFNE01.JPG,AFNE01.JPG,AFNE01.JPG,AFNE01.JPG,0,7,7,9,,,,,,,,,,,,,,,,,,,,,,,AFNE18.jpg,AFSA16.jpg,AFSA14.jpg,AFNE11.jpg,AFNE11.jpg,FN,3,num_4,16,num_4,1.13344247034,,,2017_Apr_10_1725,60.0054466919,FEMA4ImagesEEG,001,200144,
AFNE01.JPG,AFNE01.JPG,AFNE01.JPG,AFNE01.JPG,AFNE01.JPG,AFNE01.JPG,0,8,8,2,,,,,,,,,,,,,,,,,,,,,,,AFNE02.jpg,AFSA11.jpg,AFNE18.jpg,AFSA08.jpg,AFSA11.jpg,FS,4,num_6,16,num_6,1.48345448216,,,2017_Apr_10_1725,60.0054466919,FEMA4ImagesEEG,001,200144,
AFNE01.JPG,AFNE01.JPG,AFNE01.JPG,AFNE01.JPG,AFNE01.JPG,AFNE01.JPG,0,9,9,4,,,,,,,,,,,,,,,,,,,,,,,AFNE11.jpg,AFNE16.jpg,AFSA02.jpg,AFSA15.jpg,AFNE11.jpg,FN,3,num_8,32,num_4,0.816752427258,,,2017_Apr_10_1725,60.0054466919,FEMA4ImagesEEG,001,200144,
AFNE01.JPG,AFNE01.JPG,AFNE01.JPG,AFNE01.JPG,AFNE01.JPG,AFNE01.JPG,1,0,10,5,,,,,,,,,,,,,,,,,,,,,,,AFSA20.jpg,AFNE08.jpg,AFSA13.jpg,AFNE07.jpg,AFSA13.jpg,FS,4,num_2,32,num_6,0.933461907087,,,2017_Apr_10_1725,60.0054466919,FEMA4ImagesEEG,001,200144,
AFNE01.JPG,AFNE01.JPG,AFNE01.JPG,AFNE01.JPG,AFNE01.JPG,AFNE01.JPG,1,1,11,4,,,,,,,,,,,,,,,,,,,,,,,AFNE11.jpg,AFSA07.jpg,AFNE13.jpg,AFSA11.jpg,AFSA07.jpg,FS,4,num_6,32,num_8,0.85014912812,,,2017_Apr_10_1725,60.0054466919,FEMA4ImagesEEG,001,200144,
AFNE01.JPG,AFNE01.JPG,AFNE01.JPG,AFNE01.JPG,AFNE01.JPG,AFNE01.JPG,1,2,12,1,,,,,,,,,,,,,,,,,,,,,,,AFSA18.jpg,AFNE06.jpg,AFNE04.jpg,AFSA14.jpg,AFSA14.jpg,FS,4,num_4,16,num_4,0.550124719739,,,2017_Apr_10_1725,60.0054466919,FEMA4ImagesEEG,001,200144,
AFNE01.JPG,AFNE01.JPG,AFNE01.JPG,AFNE01.JPG,AFNE01.JPG,AFNE01.JPG,1,3,13,0,,,,,,,,,,,,,,,,,,,,,,,AFSA04.jpg,AFNE02.jpg,AFNE07.jpg,AFSA13.jpg,AFSA04.jpg,FS,4,num_8,16,num_8,0.650259013288,,,2017_Apr_10_1725,60.0054466919,FEMA4ImagesEEG,001,200144,
AFNE01.JPG,AFNE01.JPG,AFNE01.JPG,AFNE01.JPG,AFNE01.JPG,AFNE01.JPG,1,4,14,9,,,,,,,,,,,,,,,,,,,,,,,AFNE08.jpg,AFNE20.jpg,AFSA20.jpg,AFSA01.jpg,AFNE08.jpg,FN,3,num_8,16,num_8,0.750145696104,,,2017_Apr_10_1725,60.0054466919,FEMA4ImagesEEG,001,200144,
AFNE01.JPG,AFNE01.JPG,AFNE01.JPG,AFNE01.JPG,AFNE01.JPG,AFNE01.JPG,1,5,15,7,,,,,,,,,,,,,,,,,,,,,,,AFNE20.jpg,AFSA13.jpg,AFNE13.jpg,AFSA16.jpg,AFSA16.jpg,FS,4,num_4,16,num_4,0.800156713463,,,2017_Apr_10_1725,60.0054466919,FEMA4ImagesEEG,001,200144,
AFNE01.JPG,AFNE01.JPG,AFNE01.JPG,AFNE01.JPG,AFNE01.JPG,AFNE01.JPG,1,6,16,2,,,,,,,,,,,,,,,,,,,,,,,AFNE02.jpg,AFSA14.jpg,AFSA19.jpg,AFNE18.jpg,AFSA14.jpg,FS,4,num_6,32,num_8,1.35041165329,,,2017_Apr_10_1725,60.0054466919,FEMA4ImagesEEG,001,200144,
AFNE01.JPG,AFNE01.JPG,AFNE01.JPG,AFNE01.JPG,AFNE01.JPG,AFNE01.JPG,1,7,17,8,,,,,,,,,,,,,,,,,,,,,,,AFSA08.jpg,AFSA11.jpg,AFNE10.jpg,AFNE02.jpg,AFNE10.jpg,FN,3,num_2,16,num_2,1.84998362605,,,2017_Apr_10_1725,60.0054466919,FEMA4ImagesEEG,001,200144,
AFNE01.JPG,AFNE01.JPG,AFNE01.JPG,AFNE01.JPG,AFNE01.JPG,AFNE01.JPG,1,8,18,3,,,,,,,,,,,,,,,,,,,,,,,AFNE14.jpg,AFSA15.jpg,AFNE05.jpg,AFSA07.jpg,AFSA07.jpg,FS,4,num_4,32,num_6,0.800137469079,,,2017_Apr_10_1725,60.0054466919,FEMA4ImagesEEG,001,200144,
AFNE01.JPG,AFNE01.JPG,AFNE01.JPG,AFNE01.JPG,AFNE01.JPG,AFNE01.JPG,1,9,19,6,,,,,,,,,,,,,,,,,,,,,,,AFSA13.jpg,AFNE03.jpg,AFSA07.jpg,AFNE11.jpg,AFNE03.jpg,FN,3,num_6,16,num_6,0.633433970856,,,2017_Apr_10_1725,60.0054466919,FEMA4ImagesEEG,001,200144,
AFNE01.JPG,AFNE01.JPG,AFNE01.JPG,AFNE01.JPG,AFNE01.JPG,AFNE01.JPG,2,0,20,6,,,,,,,,,,,,,,,,,,,,,,,AFNE05.jpg,AFSA17.jpg,AFSA08.jpg,AFNE20.jpg,AFSA08.jpg,FS,4,num_2,32,num_4,2.30011710222,,,2017_Apr_10_1725,60.0054466919,FEMA4ImagesEEG,001,200144,
AFNE01.JPG,AFNE01.JPG,AFNE01.JPG,AFNE01.JPG,AFNE01.JPG,AFNE01.JPG,2,1,21,2,,,,,,,,,,,,,,,,,,,,,,,AFNE09.jpg,AFSA11.jpg,AFSA02.jpg,AFNE07.jpg,AFSA11.jpg,FS,4,num_6,32,num_2,1.85007792385,,,2017_Apr_10_1725,60.0054466919,FEMA4ImagesEEG,001,200144,
AFNE01.JPG,AFNE01.JPG,AFNE01.JPG,AFNE01.JPG,AFNE01.JPG,AFNE01.JPG,2,2,22,7,,,,,,,,,,,,,,,,,,,,,,,AFSA01.jpg,AFNE19.jpg,AFNE07.jpg,AFSA17.jpg,AFSA01.jpg,FS,4,num_8,16,num_8,1.78341891197,,,2017_Apr_10_1725,60.0054466919,FEMA4ImagesEEG,001,200144,
AFNE01.JPG,AFNE01.JPG,AFNE01.JPG,AFNE01.JPG,AFNE01.JPG,AFNE01.JPG,2,3,23,9,,,,,,,,,,,,,,,,,,,,,,,AFSA16.jpg,AFNE11.jpg,AFNE16.jpg,AFSA01.jpg,AFNE11.jpg,FN,3,num_6,16,num_6,1.18341756496,,,2017_Apr_10_1725,60.0054466919,FEMA4ImagesEEG,001,200144,
AFNE01.JPG,AFNE01.JPG,AFNE01.JPG,AFNE01.JPG,AFNE01.JPG,AFNE01.JPG,2,4,24,0,,,,,,,,,,,,,,,,,,,,,,,AFNE05.jpg,AFSA08.jpg,AFNE08.jpg,AFSA05.jpg,AFSA05.jpg,FS,4,num_4,16,num_4,1.40011283639,,,2017_Apr_10_1725,60.0054466919,FEMA4ImagesEEG,001,200144,
AFNE01.JPG,AFNE01.JPG,AFNE01.JPG,AFNE01.JPG,AFNE01.JPG,AFNE01.JPG,2,5,25,5,,,,,,,,,,,,,,,,,,,,,,,AFNE07.jpg,AFSA01.jpg,AFSA18.jpg,AFNE18.jpg,AFSA01.jpg,FS,4,num_6,16,num_6,1.71718905005,,,2017_Apr_10_1725,60.0054466919,FEMA4ImagesEEG,001,200144,
AFNE01.JPG,AFNE01.JPG,AFNE01.JPG,AFNE01.JPG,AFNE01.JPG,AFNE01.JPG,2,6,26,4,,,,,,,,,,,,,,,,,,,,,,,AFNE05.jpg,AFSA19.jpg,AFSA11.jpg,AFNE18.jpg,AFSA11.jpg,FS,4,num_2,16,num_2,1.45029480779,,,2017_Apr_10_1725,60.0054466919,FEMA4ImagesEEG,001,200144,
AFNE01.JPG,AFNE01.JPG,AFNE01.JPG,AFNE01.JPG,AFNE01.JPG,AFNE01.JPG,2,7,27,1,,,,,,,,,,,,,,,,,,,,,,,AFNE07.jpg,AFNE14.jpg,AFSA02.jpg,AFSA15.jpg,AFSA15.jpg,FS,4,num_4,16,num_4,0.666794427903,,,2017_Apr_10_1725,60.0054466919,FEMA4ImagesEEG,001,200144,
AFNE01.JPG,AFNE01.JPG,AFNE01.JPG,AFNE01.JPG,AFNE01.JPG,AFNE01.JPG,2,8,28,8,,,,,,,,,,,,,,,,,,,,,,,AFSA11.jpg,AFNE20.jpg,AFSA16.jpg,AFNE01.jpg,AFNE01.jpg,FN,3,num_4,32,num_6,1.41673869942,,,2017_Apr_10_1725,60.0054466919,FEMA4ImagesEEG,001,200144,
AFNE01.JPG,AFNE01.JPG,AFNE01.JPG,AFNE01.JPG,AFNE01.JPG,AFNE01.JPG,2,9,29,3,,,,,,,,,,,,,,,,,,,,,,,AFSA01.jpg,AFNE02.jpg,AFNE06.jpg,AFSA06.jpg,AFSA01.jpg,FS,4,num_8,16,num_8,1.03346020728,,,2017_Apr_10_1725,60.0054466919,FEMA4ImagesEEG,001,200144,
AFNE01.JPG,AFNE01.JPG,AFNE01.JPG,AFNE01.JPG,AFNE01.JPG,AFNE01.JPG,3,0,30,2,,,,,,,,,,,,,,,,,,,,,,,AFSA13.jpg,AFNE18.jpg,AFNE04.jpg,AFSA05.jpg,AFNE18.jpg,FN,3,num_6,16,num_6,1.81669276953,,,2017_Apr_10_1725,60.0054466919,FEMA4ImagesEEG,001,200144,
AFNE01.JPG,AFNE01.JPG,AFNE01.JPG,AFNE01.JPG,AFNE01.JPG,AFNE01.JPG,3,1,31,6,,,,,,,,,,,,,,,,,,,,,,,AFSA15.jpg,AFNE09.jpg,AFNE10.jpg,AFSA11.jpg,AFNE09.jpg,FN,3,num_6,32,num_8,1.15016231034,,,2017_Apr_10_1725,60.0054466919,FEMA4ImagesEEG,001,200144,
AFNE01.JPG,AFNE01.JPG,AFNE01.JPG,AFNE01.JPG,AFNE01.JPG,AFNE01.JPG,3,2,32,1,,,,,,,,,,,,,,,,,,,,,,,AFSA16.jpg,AFSA20.jpg,AFNE07.jpg,AFNE17.jpg,AFSA16.jpg,FS,4,num_8,16,num_8,0.716757975984,,,2017_Apr_10_1725,60.0054466919,FEMA4ImagesEEG,001,200144,
AFNE01.JPG,AFNE01.JPG,AFNE01.JPG,AFNE01.JPG,AFNE01.JPG,AFNE01.JPG,3,3,33,5,,,,,,,,,,,,,,,,,,,,,,,AFSA07.jpg,AFNE08.jpg,AFSA10.jpg,AFNE07.jpg,AFNE08.jpg,FN,3,num_6,32,num_8,0.800025851699,,,2017_Apr_10_1725,60.0054466919,FEMA4ImagesEEG,001,200144,
AFNE01.JPG,AFNE01.JPG,AFNE01.JPG,AFNE01.JPG,AFNE01.JPG,AFNE01.JPG,3,4,34,7,,,,,,,,,,,,,,,,,,,,,,,AFSA12.jpg,AFNE09.jpg,AFNE15.jpg,AFSA06.jpg,AFNE09.jpg,FN,3,num_6,32,num_8,1.16669547977,,,2017_Apr_10_1725,60.0054466919,FEMA4ImagesEEG,001,200144,
AFNE01.JPG,AFNE01.JPG,AFNE01.JPG,AFNE01.JPG,AFNE01.JPG,AFNE01.JPG,3,5,35,8,,,,,,,,,,,,,,,,,,,,,,,AFNE03.jpg,AFSA04.jpg,AFNE18.jpg,AFSA16.jpg,AFSA04.jpg,FS,4,num_6,16,num_6,0.733498663874,,,2017_Apr_10_1725,60.0054466919,FEMA4ImagesEEG,001,200144,
AFNE01.JPG,AFNE01.JPG,AFNE01.JPG,AFNE01.JPG,AFNE01.JPG,AFNE01.JPG,3,6,36,9,,,,,,,,,,,,,,,,,,,,,,,AFSA01.jpg,AFNE04.jpg,AFSA04.jpg,AFNE17.jpg,AFSA01.jpg,FS,4,num_8,16,num_8,1.11676881695,,,2017_Apr_10_1725,60.0054466919,FEMA4ImagesEEG,001,200144,
AFNE01.JPG,AFNE01.JPG,AFNE01.JPG,AFNE01.JPG,AFNE01.JPG,AFNE01.JPG,3,7,37,4,,,,,,,,,,,,,,,,,,,,,,,AFSA02.jpg,AFNE18.jpg,AFNE08.jpg,AFSA14.jpg,AFSA14.jpg,FS,4,num_4,16,num_4,1.36671838048,,,2017_Apr_10_1725,60.0054466919,FEMA4ImagesEEG,001,200144,
AFNE01.JPG,AFNE01.JPG,AFNE01.JPG,AFNE01.JPG,AFNE01.JPG,AFNE01.JPG,3,8,38,0,,,,,,,,,,,,,,,,,,,,,,,AFNE17.jpg,AFSA04.jpg,AFNE05.jpg,AFSA16.jpg,AFNE05.jpg,FN,3,num_2,32,num_6,0.766712543322,,,2017_Apr_10_1725,60.0054466919,FEMA4ImagesEEG,001,200144,
AFNE01.JPG,AFNE01.JPG,AFNE01.JPG,AFNE01.JPG,AFNE01.JPG,AFNE01.JPG,3,9,39,3,,,,,,,,,,,,,,,,,,,,,,,AFNE09.jpg,AFNE14.jpg,AFSA04.jpg,AFSA01.jpg,AFNE14.jpg,FN,3,num_6,32,num_8,0.866768255597,,,2017_Apr_10_1725,60.0054466919,FEMA4ImagesEEG,001,200144,
AFNE01.JPG,AFNE01.JPG,AFNE01.JPG,AFNE01.JPG,AFNE01.JPG,AFNE01.JPG,4,0,40,4,,,,,,,,,,,,,,,,,,,,,,,AFSA09.jpg,AFNE20.jpg,AFSA08.jpg,AFNE19.jpg,AFNE20.jpg,FN,3,num_6,16,num_6,1.11678453325,,,2017_Apr_10_1725,60.0054466919,FEMA4ImagesEEG,001,200144,
AFNE01.JPG,AFNE01.JPG,AFNE01.JPG,AFNE01.JPG,AFNE01.JPG,AFNE01.JPG,4,1,41,7,,,,,,,,,,,,,,,,,,,,,,,AFSA20.jpg,AFSA04.jpg,AFNE09.jpg,AFNE06.jpg,AFNE09.jpg,FN,3,num_2,32,num_6,0.716782352189,,,2017_Apr_10_1725,60.0054466919,FEMA4ImagesEEG,001,200144,
AFNE01.JPG,AFNE01.JPG,AFNE01.JPG,AFNE01.JPG,AFNE01.JPG,AFNE01.JPG,4,2,42,0,,,,,,,,,,,,,,,,,,,,,,,AFSA14.jpg,AFSA06.jpg,AFNE20.jpg,AFNE13.jpg,AFSA06.jpg,FS,4,num_6,32,num_4,0.750129338121,,,2017_Apr_10_1725,60.0054466919,FEMA4ImagesEEG,001,200144,
AFNE01.JPG,AFNE01.JPG,AFNE01.JPG,AFNE01.JPG,AFNE01.JPG,AFNE01.JPG,4,3,43,5,,,,,,,,,,,,,,,,,,,,,,,AFSA16.jpg,AFNE04.jpg,AFNE16.jpg,AFSA20.jpg,AFSA20.jpg,FS,4,num_4,16,num_4,1.15012767026,,,2017_Apr_10_1725,60.0054466919,FEMA4ImagesEEG,001,200144,
AFNE01.JPG,AFNE01.JPG,AFNE01.JPG,AFNE01.JPG,AFNE01.JPG,AFNE01.JPG,4,4,44,2,,,,,,,,,,,,,,,,,,,,,,,AFNE05.jpg,AFNE08.jpg,AFSA20.jpg,AFSA15.jpg,AFSA20.jpg,FS,4,num_2,32,num_6,1.8167059198,,,2017_Apr_10_1725,60.0054466919,FEMA4ImagesEEG,001,200144,
AFNE01.JPG,AFNE01.JPG,AFNE01.JPG,AFNE01.JPG,AFNE01.JPG,AFNE01.JPG,4,5,45,6,,,,,,,,,,,,,,,,,,,,,,,AFSA10.jpg,AFNE12.jpg,AFNE11.jpg,AFSA06.jpg,AFSA06.jpg,FS,4,num_4,16,num_4,2.64997066837,,,2017_Apr_10_1725,60.0054466919,FEMA4ImagesEEG,001,200144,
AFNE01.JPG,AFNE01.JPG,AFNE01.JPG,AFNE01.JPG,AFNE01.JPG,AFNE01.JPG,4,6,46,9,,,,,,,,,,,,,,,,,,,,,,,AFNE02.jpg,AFSA14.jpg,AFNE08.jpg,AFSA09.jpg,AFNE08.jpg,FN,3,num_2,32,num_6,1.233398112,,,2017_Apr_10_1725,60.0054466919,FEMA4ImagesEEG,001,200144,
AFNE01.JPG,AFNE01.JPG,AFNE01.JPG,AFNE01.JPG,AFNE01.JPG,AFNE01.JPG,4,7,47,1,,,,,,,,,,,,,,,,,,,,,,,AFNE17.jpg,AFSA01.jpg,AFNE20.jpg,AFSA09.jpg,AFSA01.jpg,FS,4,num_6,16,num_6,0.90010561957,,,2017_Apr_10_1725,60.0054466919,FEMA4ImagesEEG,001,200144,
AFNE01.JPG,AFNE01.JPG,AFNE01.JPG,AFNE01.JPG,AFNE01.JPG,AFNE01.JPG,4,8,48,8,,,,,,,,,,,,,,,,,,,,,,,AFNE01.jpg,AFSA13.jpg,AFNE03.jpg,AFSA11.jpg,AFNE03.jpg,FN,3,num_2,32,num_8,0.950123693328,,,2017_Apr_10_1725,60.0054466919,FEMA4ImagesEEG,001,200144,
AFNE01.JPG,AFNE01.JPG,AFNE01.JPG,AFNE01.JPG,AFNE01.JPG,AFNE01.JPG,4,9,49,3,,,,,,,,,,,,,,,,,,,,,,,AFNE18.jpg,AFSA01.jpg,AFSA14.jpg,AFNE08.jpg,AFSA01.jpg,FS,4,num_6,32,num_8,1.05012359703,,,2017_Apr_10_1725,60.0054466919,FEMA4ImagesEEG,001,200144,
AFNE01.JPG,AFNE01.JPG,AFNE01.JPG,AFNE01.JPG,AFNE01.JPG,AFNE01.JPG,5,0,50,8,,,,,,,,,,,,,,,,,,,,,,,AFSA16.jpg,AFNE16.jpg,AFSA11.jpg,AFNE12.jpg,AFNE12.jpg,FN,3,num_4,16,num_4,0.933451001998,,,2017_Apr_10_1725,60.0054466919,FEMA4ImagesEEG,001,200144,
AFNE01.JPG,AFNE01.JPG,AFNE01.JPG,AFNE01.JPG,AFNE01.JPG,AFNE01.JPG,5,1,51,7,,,,,,,,,,,,,,,,,,,,,,,AFNE01.jpg,AFSA03.jpg,AFSA15.jpg,AFNE12.jpg,AFSA03.jpg,FS,4,num_6,32,num_8,0.816749219783,,,2017_Apr_10_1725,60.0054466919,FEMA4ImagesEEG,001,200144,
AFNE01.JPG,AFNE01.JPG,AFNE01.JPG,AFNE01.JPG,AFNE01.JPG,AFNE01.JPG,5,2,52,2,,,,,,,,,,,,,,,,,,,,,,,AFNE12.jpg,AFNE05.jpg,AFSA02.jpg,AFSA10.jpg,AFSA02.jpg,FS,4,num_2,16,num_2,2.38329677447,,,2017_Apr_10_1725,60.0054466919,FEMA4ImagesEEG,001,200144,
AFNE01.JPG,AFNE01.JPG,AFNE01.JPG,AFNE01.JPG,AFNE01.JPG,AFNE01.JPG,5,3,53,1,,,,,,,,,,,,,,,,,,,,,,,AFSA19.jpg,AFSA12.jpg,AFNE19.jpg,AFNE06.jpg,AFNE06.jpg,FN,3,num_4,32,num_6,0.966720048338,,,2017_Apr_10_1725,60.0054466919,FEMA4ImagesEEG,001,200144,
AFNE01.JPG,AFNE01.JPG,AFNE01.JPG,AFNE01.JPG,AFNE01.JPG,AFNE01.JPG,5,4,54,0,,,,,,,,,,,,,,,,,,,,,,,AFNE12.jpg,AFSA10.jpg,AFSA01.jpg,AFNE02.jpg,AFSA10.jpg,FS,4,num_6,16,num_6,0.900147636421,,,2017_Apr_10_1725,60.0054466919,FEMA4ImagesEEG,001,200144,
AFNE01.JPG,AFNE01.JPG,AFNE01.JPG,AFNE01.JPG,AFNE01.JPG,AFNE01.JPG,5,5,55,5,,,,,,,,,,,,,,,,,,,,,,,AFSA19.jpg,AFNE17.jpg,AFNE06.jpg,AFSA09.jpg,AFSA19.jpg,FS,4,num_8,32,num_6,0.80009352765,,,2017_Apr_10_1725,60.0054466919,FEMA4ImagesEEG,001,200144,
AFNE01.JPG,AFNE01.JPG,AFNE01.JPG,AFNE01.JPG,AFNE01.JPG,AFNE01.JPG,5,6,56,9,,,,,,,,,,,,,,,,,,,,,,,AFNE09.jpg,AFNE19.jpg,AFSA09.jpg,AFSA04.jpg,AFNE09.jpg,FN,3,num_8,32,num_2,1.56677078968,,,2017_Apr_10_1725,60.0054466919,FEMA4ImagesEEG,001,200144,
AFNE01.JPG,AFNE01.JPG,AFNE01.JPG,AFNE01.JPG,AFNE01.JPG,AFNE01.JPG,5,7,57,6,,,,,,,,,,,,,,,,,,,,,,,AFNE12.jpg,AFSA08.jpg,AFSA15.jpg,AFNE13.jpg,AFSA08.jpg,FS,4,num_6,16,num_6,1.05009697564,,,2017_Apr_10_1725,60.0054466919,FEMA4ImagesEEG,001,200144,
AFNE01.JPG,AFNE01.JPG,AFNE01.JPG,AFNE01.JPG,AFNE01.JPG,AFNE01.JPG,5,8,58,3,,,,,,,,,,,,,,,,,,,,,,,AFNE01.jpg,AFNE19.jpg,AFSA03.jpg,AFSA13.jpg,AFNE19.jpg,FN,3,num_6,16,num_6,0.750179052819,,,2017_Apr_10_1725,60.0054466919,FEMA4ImagesEEG,001,200144,
AFNE01.JPG,AFNE01.JPG,AFNE01.JPG,AFNE01.JPG,AFNE01.JPG,AFNE01.JPG,5,9,59,4,,,,,,,,,,,,,,,,,,,,,,,AFNE02.jpg,AFNE09.jpg,AFSA03.jpg,AFSA17.jpg,AFSA03.jpg,FS,4,num_2,32,num_8,0.700116717257,,,2017_Apr_10_1725,60.0054466919,FEMA4ImagesEEG,001,200144,
,,,,,,,,,,,,,,,,,,,,,,,,,,,,,,,,,,,,,,,,,,,space,5.46635745233,2017_Apr_10_1725,60.0054466919,FEMA4ImagesEEG,001,200144,
AFNE01.JPG,AFNE01.JPG,AFNE01.JPG,AFNE01.JPG,AFNE01.JPG,AFNE01.JPG,,,,,0,0,0,2,,,,,,,,,,,,,,,,,,,AMNE09.jpg,AMSA13.jpg,AMSA08.jpg,AMNE03.jpg,AMNE03.jpg,MN,1,num_4,16,num_4,0.683443705318,,,2017_Apr_10_1725,60.0054466919,FEMA4ImagesEEG,001,200144,
AFNE01.JPG,AFNE01.JPG,AFNE01.JPG,AFNE01.JPG,AFNE01.JPG,AFNE01.JPG,,,,,0,1,1,3,,,,,,,,,,,,,,,,,,,AMNE04.jpg,AMSA07.jpg,AMNE05.jpg,AMSA09.jpg,AMSA07.jpg,MS,2,num_6,16,num_6,0.816768464167,,,2017_Apr_10_1725,60.0054466919,FEMA4ImagesEEG,001,200144,
AFNE01.JPG,AFNE01.JPG,AFNE01.JPG,AFNE01.JPG,AFNE01.JPG,AFNE01.JPG,,,,,0,2,2,0,,,,,,,,,,,,,,,,,,,AMSA01.jpg,AMSA18.jpg,AMNE19.jpg,AMNE20.jpg,AMSA18.jpg,MS,2,num_6,16,num_6,0.583454065025,,,2017_Apr_10_1725,60.0054466919,FEMA4ImagesEEG,001,200144,
AFNE01.JPG,AFNE01.JPG,AFNE01.JPG,AFNE01.JPG,AFNE01.JPG,AFNE01.JPG,,,,,0,3,3,6,,,,,,,,,,,,,,,,,,,AMSA05.jpg,AMSA07.jpg,AMNE13.jpg,AMNE18.jpg,AMSA07.jpg,MS,2,num_6,16,num_6,0.783531491645,,,2017_Apr_10_1725,60.0054466919,FEMA4ImagesEEG,001,200144,
AFNE01.JPG,AFNE01.JPG,AFNE01.JPG,AFNE01.JPG,AFNE01.JPG,AFNE01.JPG,,,,,0,4,4,8,,,,,,,,,,,,,,,,,,,AMSA03.jpg,AMNE11.jpg,AMSA11.jpg,AMNE09.jpg,AMSA03.jpg,MS,2,num_8,16,num_8,1.11673225276,,,2017_Apr_10_1725,60.0054466919,FEMA4ImagesEEG,001,200144,
AFNE01.JPG,AFNE01.JPG,AFNE01.JPG,AFNE01.JPG,AFNE01.JPG,AFNE01.JPG,,,,,0,5,5,1,,,,,,,,,,,,,,,,,,,AMNE05.jpg,AMSA20.jpg,AMSA18.jpg,AMNE16.jpg,AMNE16.jpg,MN,1,num_4,16,num_4,0.950141654816,,,2017_Apr_10_1725,60.0054466919,FEMA4ImagesEEG,001,200144,
AFNE01.JPG,AFNE01.JPG,AFNE01.JPG,AFNE01.JPG,AFNE01.JPG,AFNE01.JPG,,,,,0,6,6,4,,,,,,,,,,,,,,,,,,,AMNE18.jpg,AMNE17.jpg,AMSA04.jpg,AMSA18.jpg,AMNE17.jpg,MN,1,num_6,16,num_6,0.766752635594,,,2017_Apr_10_1725,60.0054466919,FEMA4ImagesEEG,001,200144,
AFNE01.JPG,AFNE01.JPG,AFNE01.JPG,AFNE01.JPG,AFNE01.JPG,AFNE01.JPG,,,,,0,7,7,9,,,,,,,,,,,,,,,,,,,AMSA18.jpg,AMSA13.jpg,AMNE08.jpg,AMNE13.jpg,AMSA13.jpg,MS,2,num_6,16,num_6,1.30011870572,,,2017_Apr_10_1725,60.0054466919,FEMA4ImagesEEG,001,200144,
AFNE01.JPG,AFNE01.JPG,AFNE01.JPG,AFNE01.JPG,AFNE01.JPG,AFNE01.JPG,,,,,0,8,8,7,,,,,,,,,,,,,,,,,,,AMNE09.jpg,AMSA15.jpg,AMNE10.jpg,AMSA19.jpg,AMSA15.jpg,MS,2,num_6,16,num_6,1.65006272076,,,2017_Apr_10_1725,60.0054466919,FEMA4ImagesEEG,001,200144,
AFNE01.JPG,AFNE01.JPG,AFNE01.JPG,AFNE01.JPG,AFNE01.JPG,AFNE01.JPG,,,,,0,9,9,5,,,,,,,,,,,,,,,,,,,AMNE05.jpg,AMNE03.jpg,AMSA11.jpg,AMSA16.jpg,AMSA11.jpg,MS,2,num_2,32,num_8,1.10014840611,,,2017_Apr_10_1725,60.0054466919,FEMA4ImagesEEG,001,200144,
AFNE01.JPG,AFNE01.JPG,AFNE01.JPG,AFNE01.JPG,AFNE01.JPG,AFNE01.JPG,,,,,1,0,10,7,,,,,,,,,,,,,,,,,,,AMSA19.jpg,AMNE20.jpg,AMSA02.jpg,AMNE03.jpg,AMSA02.jpg,MS,2,num_2,32,num_4,0.766779898666,,,2017_Apr_10_1725,60.0054466919,FEMA4ImagesEEG,001,200144,
AFNE01.JPG,AFNE01.JPG,AFNE01.JPG,AFNE01.JPG,AFNE01.JPG,AFNE01.JPG,,,,,1,1,11,6,,,,,,,,,,,,,,,,,,,AMSA10.jpg,AMNE02.jpg,AMNE17.jpg,AMSA17.jpg,AMNE17.jpg,MN,1,num_2,32,num_4,0.716753165005,,,2017_Apr_10_1725,60.0054466919,FEMA4ImagesEEG,001,200144,
AFNE01.JPG,AFNE01.JPG,AFNE01.JPG,AFNE01.JPG,AFNE01.JPG,AFNE01.JPG,,,,,1,2,12,3,,,,,,,,,,,,,,,,,,,AMNE01.jpg,AMSA16.jpg,AMSA07.jpg,AMNE19.jpg,AMSA07.jpg,MS,2,num_2,16,num_2,1.33343201433,,,2017_Apr_10_1725,60.0054466919,FEMA4ImagesEEG,001,200144,
AFNE01.JPG,AFNE01.JPG,AFNE01.JPG,AFNE01.JPG,AFNE01.JPG,AFNE01.JPG,,,,,1,3,13,9,,,,,,,,,,,,,,,,,,,AMSA16.jpg,AMNE16.jpg,AMNE01.jpg,AMSA03.jpg,AMNE01.jpg,MN,1,num_2,32,num_8,0.833457513014,,,2017_Apr_10_1725,60.0054466919,FEMA4ImagesEEG,001,200144,
AFNE01.JPG,AFNE01.JPG,AFNE01.JPG,AFNE01.JPG,AFNE01.JPG,AFNE01.JPG,,,,,1,4,14,1,,,,,,,,,,,,,,,,,,,AMNE03.jpg,AMSA15.jpg,AMSA08.jpg,AMNE10.jpg,AMSA08.jpg,MS,2,num_2,16,num_2,1.25006118114,,,2017_Apr_10_1725,60.0054466919,FEMA4ImagesEEG,001,200144,
AFNE01.JPG,AFNE01.JPG,AFNE01.JPG,AFNE01.JPG,AFNE01.JPG,AFNE01.JPG,,,,,1,5,15,2,,,,,,,,,,,,,,,,,,,AMNE17.jpg,AMSA20.jpg,AMSA08.jpg,AMNE15.jpg,AMSA20.jpg,MS,2,num_6,32,num_8,1.36673281388,,,2017_Apr_10_1725,60.0054466919,FEMA4ImagesEEG,001,200144,
AFNE01.JPG,AFNE01.JPG,AFNE01.JPG,AFNE01.JPG,AFNE01.JPG,AFNE01.JPG,,,,,1,6,16,8,,,,,,,,,,,,,,,,,,,AMSA03.jpg,AMNE16.jpg,AMNE01.jpg,AMSA05.jpg,AMSA03.jpg,MS,2,num_8,32,num_6,2.71634871187,,,2017_Apr_10_1725,60.0054466919,FEMA4ImagesEEG,001,200144,
AFNE01.JPG,AFNE01.JPG,AFNE01.JPG,AFNE01.JPG,AFNE01.JPG,AFNE01.JPG,,,,,1,7,17,0,,,,,,,,,,,,,,,,,,,AMNE17.jpg,AMNE10.jpg,AMSA06.jpg,AMSA16.jpg,AMSA06.jpg,MS,2,num_2,32,num_4,0.683461345965,,,2017_Apr_10_1725,60.0054466919,FEMA4ImagesEEG,001,200144,
AFNE01.JPG,AFNE01.JPG,AFNE01.JPG,AFNE01.JPG,AFNE01.JPG,AFNE01.JPG,,,,,1,8,18,5,,,,,,,,,,,,,,,,,,,AMSA01.jpg,AMNE12.jpg,AMSA19.jpg,AMNE13.jpg,AMSA01.jpg,MS,2,num_8,16,num_8,0.716613963712,,,2017_Apr_10_1725,60.0054466919,FEMA4ImagesEEG,001,200144,
AFNE01.JPG,AFNE01.JPG,AFNE01.JPG,AFNE01.JPG,AFNE01.JPG,AFNE01.JPG,,,,,1,9,19,4,,,,,,,,,,,,,,,,,,,AMSA19.jpg,AMNE18.jpg,AMSA08.jpg,AMNE09.jpg,AMSA19.jpg,MS,2,num_8,32,num_4,0.900127429981,,,2017_Apr_10_1725,60.0054466919,FEMA4ImagesEEG,001,200144,
AFNE01.JPG,AFNE01.JPG,AFNE01.JPG,AFNE01.JPG,AFNE01.JPG,AFNE01.JPG,,,,,2,0,20,3,,,,,,,,,,,,,,,,,,,AMSA04.jpg,AMNE02.jpg,AMNE11.jpg,AMSA05.jpg,AMNE11.jpg,MN,1,num_2,16,num_2,1.04998407513,,,2017_Apr_10_1725,60.0054466919,FEMA4ImagesEEG,001,200144,
AFNE01.JPG,AFNE01.JPG,AFNE01.JPG,AFNE01.JPG,AFNE01.JPG,AFNE01.JPG,,,,,2,1,21,8,,,,,,,,,,,,,,,,,,,AMNE14.jpg,AMNE06.jpg,AMSA19.jpg,AMSA07.jpg,AMNE14.jpg,MN,1,num_8,32,num_6,1.38343148516,,,2017_Apr_10_1725,60.0054466919,FEMA4ImagesEEG,001,200144,
AFNE01.JPG,AFNE01.JPG,AFNE01.JPG,AFNE01.JPG,AFNE01.JPG,AFNE01.JPG,,,,,2,2,22,5,,,,,,,,,,,,,,,,,,,AMSA12.jpg,AMNE17.jpg,AMNE02.jpg,AMSA13.jpg,AMNE17.jpg,MN,1,num_6,32,num_4,0.816843517125,,,2017_Apr_10_1725,60.0054466919,FEMA4ImagesEEG,001,200144,
AFNE01.JPG,AFNE01.JPG,AFNE01.JPG,AFNE01.JPG,AFNE01.JPG,AFNE01.JPG,,,,,2,3,23,0,,,,,,,,,,,,,,,,,,,AMSA18.jpg,AMSA20.jpg,AMNE05.jpg,AMNE11.jpg,AMSA20.jpg,MS,2,num_6,32,num_4,1.11669183942,,,2017_Apr_10_1725,60.0054466919,FEMA4ImagesEEG,001,200144,
AFNE01.JPG,AFNE01.JPG,AFNE01.JPG,AFNE01.JPG,AFNE01.JPG,AFNE01.JPG,,,,,2,4,24,6,,,,,,,,,,,,,,,,,,,AMSA07.jpg,AMNE05.jpg,AMSA08.jpg,AMNE11.jpg,AMNE05.jpg,MN,1,num_6,32,num_4,0.950122410432,,,2017_Apr_10_1725,60.0054466919,FEMA4ImagesEEG,001,200144,
AFNE01.JPG,AFNE01.JPG,AFNE01.JPG,AFNE01.JPG,AFNE01.JPG,AFNE01.JPG,,,,,2,5,25,2,,,,,,,,,,,,,,,,,,,AMNE17.jpg,AMSA01.jpg,AMNE09.jpg,AMSA15.jpg,AMSA15.jpg,MS,2,num_4,16,num_4,0.683465515496,,,2017_Apr_10_1725,60.0054466919,FEMA4ImagesEEG,001,200144,
AFNE01.JPG,AFNE01.JPG,AFNE01.JPG,AFNE01.JPG,AFNE01.JPG,AFNE01.JPG,,,,,2,6,26,4,,,,,,,,,,,,,,,,,,,AMNE16.jpg,AMSA05.jpg,AMNE19.jpg,AMSA07.jpg,AMSA05.jpg,MS,2,num_6,16,num_6,1.11674957257,,,2017_Apr_10_1725,60.0054466919,FEMA4ImagesEEG,001,200144,
AFNE01.JPG,AFNE01.JPG,AFNE01.JPG,AFNE01.JPG,AFNE01.JPG,AFNE01.JPG,,,,,2,7,27,9,,,,,,,,,,,,,,,,,,,AMNE02.jpg,AMNE14.jpg,AMSA12.jpg,AMSA14.jpg,AMSA14.jpg,MS,2,num_4,16,num_4,1.70004551299,,,2017_Apr_10_1725,60.0054466919,FEMA4ImagesEEG,001,200144,
AFNE01.JPG,AFNE01.JPG,AFNE01.JPG,AFNE01.JPG,AFNE01.JPG,AFNE01.JPG,,,,,2,8,28,1,,,,,,,,,,,,,,,,,,,AMNE13.jpg,AMSA04.jpg,AMNE12.jpg,AMSA20.jpg,AMSA20.jpg,MS,2,num_4,16,num_4,1.4333623175,,,2017_Apr_10_1725,60.0054466919,FEMA4ImagesEEG,001,200144,
AFNE01.JPG,AFNE01.JPG,AFNE01.JPG,AFNE01.JPG,AFNE01.JPG,AFNE01.JPG,,,,,2,9,29,7,,,,,,,,,,,,,,,,,,,AMSA14.jpg,AMNE14.jpg,AMNE07.jpg,AMSA18.jpg,AMNE07.jpg,MN,1,num_2,16,num_2,1.15010650177,,,2017_Apr_10_1725,60.0054466919,FEMA4ImagesEEG,001,200144,
AFNE01.JPG,AFNE01.JPG,AFNE01.JPG,AFNE01.JPG,AFNE01.JPG,AFNE01.JPG,,,,,3,0,30,8,,,,,,,,,,,,,,,,,,,AMSA18.jpg,AMSA15.jpg,AMNE01.jpg,AMNE13.jpg,AMSA18.jpg,MS,2,num_8,16,num_8,2.30006418005,,,2017_Apr_10_1725,60.0054466919,FEMA4ImagesEEG,001,200144,
AFNE01.JPG,AFNE01.JPG,AFNE01.JPG,AFNE01.JPG,AFNE01.JPG,AFNE01.JPG,,,,,3,1,31,0,,,,,,,,,,,,,,,,,,,AMNE05.jpg,AMSA19.jpg,AMNE19.jpg,AMSA06.jpg,AMSA19.jpg,MS,2,num_6,16,num_6,0.78346509859,,,2017_Apr_10_1725,60.0054466919,FEMA4ImagesEEG,001,200144,
AFNE01.JPG,AFNE01.JPG,AFNE01.JPG,AFNE01.JPG,AFNE01.JPG,AFNE01.JPG,,,,,3,2,32,9,,,,,,,,,,,,,,,,,,,AMNE05.jpg,AMNE13.jpg,AMSA05.jpg,AMSA15.jpg,AMNE05.jpg,MN,1,num_8,16,num_8,0.800218616147,,,2017_Apr_10_1725,60.0054466919,FEMA4ImagesEEG,001,200144,
AFNE01.JPG,AFNE01.JPG,AFNE01.JPG,AFNE01.JPG,AFNE01.JPG,AFNE01.JPG,,,,,3,3,33,4,,,,,,,,,,,,,,,,,,,AMSA08.jpg,AMNE09.jpg,AMSA02.jpg,AMNE03.jpg,AMSA08.jpg,MS,2,num_8,16,num_8,0.766734353499,,,2017_Apr_10_1725,60.0054466919,FEMA4ImagesEEG,001,200144,
AFNE01.JPG,AFNE01.JPG,AFNE01.JPG,AFNE01.JPG,AFNE01.JPG,AFNE01.JPG,,,,,3,4,34,1,,,,,,,,,,,,,,,,,,,AMNE06.jpg,AMSA08.jpg,AMSA10.jpg,AMNE01.jpg,AMSA08.jpg,MS,2,num_6,16,num_6,0.600092757959,,,2017_Apr_10_1725,60.0054466919,FEMA4ImagesEEG,001,200144,
AFNE01.JPG,AFNE01.JPG,AFNE01.JPG,AFNE01.JPG,AFNE01.JPG,AFNE01.JPG,,,,,3,5,35,6,,,,,,,,,,,,,,,,,,,AMNE17.jpg,AMNE08.jpg,AMSA02.jpg,AMSA19.jpg,AMSA02.jpg,MS,2,num_2,32,num_4,0.916752330959,,,2017_Apr_10_1725,60.0054466919,FEMA4ImagesEEG,001,200144,
AFNE01.JPG,AFNE01.JPG,AFNE01.JPG,AFNE01.JPG,AFNE01.JPG,AFNE01.JPG,,,,,3,6,36,5,,,,,,,,,,,,,,,,,,,AMSA19.jpg,AMNE17.jpg,AMSA10.jpg,AMNE15.jpg,AMSA10.jpg,MS,2,num_2,16,num_2,1.60008185264,,,2017_Apr_10_1725,60.0054466919,FEMA4ImagesEEG,001,200144,
AFNE01.JPG,AFNE01.JPG,AFNE01.JPG,AFNE01.JPG,AFNE01.JPG,AFNE01.JPG,,,,,3,7,37,7,,,,,,,,,,,,,,,,,,,AMSA05.jpg,AMNE12.jpg,AMNE01.jpg,AMSA19.jpg,AMNE12.jpg,MN,1,num_6,32,num_8,1.23338207509,,,2017_Apr_10_1725,60.0054466919,FEMA4ImagesEEG,001,200144,
AFNE01.JPG,AFNE01.JPG,AFNE01.JPG,AFNE01.JPG,AFNE01.JPG,AFNE01.JPG,,,,,3,8,38,3,,,,,,,,,,,,,,,,,,,AMNE08.jpg,AMNE19.jpg,AMSA12.jpg,AMSA15.jpg,AMSA15.jpg,MS,2,num_4,16,num_4,0.983446944738,,,2017_Apr_10_1725,60.0054466919,FEMA4ImagesEEG,001,200144,
AFNE01.JPG,AFNE01.JPG,AFNE01.JPG,AFNE01.JPG,AFNE01.JPG,AFNE01.JPG,,,,,3,9,39,2,,,,,,,,,,,,,,,,,,,AMSA15.jpg,AMNE20.jpg,AMSA07.jpg,AMNE05.jpg,AMSA15.jpg,MS,2,num_8,32,num_2,1.81670624064,,,2017_Apr_10_1725,60.0054466919,FEMA4ImagesEEG,001,200144,
AFNE01.JPG,AFNE01.JPG,AFNE01.JPG,AFNE01.JPG,AFNE01.JPG,AFNE01.JPG,,,,,4,0,40,3,,,,,,,,,,,,,,,,,,,AMSA12.jpg,AMNE15.jpg,AMNE13.jpg,AMSA13.jpg,AMNE15.jpg,MN,1,num_6,16,num_6,0.483427219326,,,2017_Apr_10_1725,60.0054466919,FEMA4ImagesEEG,001,200144,
AFNE01.JPG,AFNE01.JPG,AFNE01.JPG,AFNE01.JPG,AFNE01.JPG,AFNE01.JPG,,,,,4,1,41,2,,,,,,,,,,,,,,,,,,,AMSA08.jpg,AMNE16.jpg,AMSA10.jpg,AMNE20.jpg,AMSA10.jpg,MS,2,num_2,32,num_8,0.816778727807,,,2017_Apr_10_1725,60.0054466919,FEMA4ImagesEEG,001,200144,
AFNE01.JPG,AFNE01.JPG,AFNE01.JPG,AFNE01.JPG,AFNE01.JPG,AFNE01.JPG,,,,,4,2,42,0,,,,,,,,,,,,,,,,,,,AMNE12.jpg,AMSA12.jpg,AMNE14.jpg,AMSA15.jpg,AMNE12.jpg,MN,1,num_8,16,num_8,0.933391985949,,,2017_Apr_10_1725,60.0054466919,FEMA4ImagesEEG,001,200144,
AFNE01.JPG,AFNE01.JPG,AFNE01.JPG,AFNE01.JPG,AFNE01.JPG,AFNE01.JPG,,,,,4,3,43,6,,,,,,,,,,,,,,,,,,,AMSA19.jpg,AMNE10.jpg,AMSA08.jpg,AMNE02.jpg,AMNE02.jpg,MN,1,num_4,32,num_8,1.66667126399,,,2017_Apr_10_1725,60.0054466919,FEMA4ImagesEEG,001,200144,
AFNE01.JPG,AFNE01.JPG,AFNE01.JPG,AFNE01.JPG,AFNE01.JPG,AFNE01.JPG,,,,,4,4,44,8,,,,,,,,,,,,,,,,,,,AMNE02.jpg,AMNE01.jpg,AMSA20.jpg,AMSA08.jpg,AMNE02.jpg,MN,1,num_8,16,num_8,0.650126868393,,,2017_Apr_10_1725,60.0054466919,FEMA4ImagesEEG,001,200144,
AFNE01.JPG,AFNE01.JPG,AFNE01.JPG,AFNE01.JPG,AFNE01.JPG,AFNE01.JPG,,,,,4,5,45,4,,,,,,,,,,,,,,,,,,,AMSA12.jpg,AMSA02.jpg,AMNE12.jpg,AMNE14.jpg,AMSA12.jpg,MS,2,num_8,16,num_8,1.03344352893,,,2017_Apr_10_1725,60.0054466919,FEMA4ImagesEEG,001,200144,
AFNE01.JPG,AFNE01.JPG,AFNE01.JPG,AFNE01.JPG,AFNE01.JPG,AFNE01.JPG,,,,,4,6,46,5,,,,,,,,,,,,,,,,,,,AMSA18.jpg,AMNE03.jpg,AMNE06.jpg,AMSA09.jpg,AMNE06.jpg,MN,1,num_2,16,num_2,2.59997953684,,,2017_Apr_10_1725,60.0054466919,FEMA4ImagesEEG,001,200144,
AFNE01.JPG,AFNE01.JPG,AFNE01.JPG,AFNE01.JPG,AFNE01.JPG,AFNE01.JPG,,,,,4,7,47,1,,,,,,,,,,,,,,,,,,,AMNE06.jpg,AMSA01.jpg,AMSA05.jpg,AMNE19.jpg,AMSA01.jpg,MS,2,num_6,16,num_6,0.516785431188,,,2017_Apr_10_1725,60.0054466919,FEMA4ImagesEEG,001,200144,
AFNE01.JPG,AFNE01.JPG,AFNE01.JPG,AFNE01.JPG,AFNE01.JPG,AFNE01.JPG,,,,,4,8,48,7,,,,,,,,,,,,,,,,,,,AMNE06.jpg,AMSA17.jpg,AMSA06.jpg,AMNE07.jpg,AMSA06.jpg,MS,2,num_2,32,num_4,1.81639736821,,,2017_Apr_10_1725,60.0054466919,FEMA4ImagesEEG,001,200144,
AFNE01.JPG,AFNE01.JPG,AFNE01.JPG,AFNE01.JPG,AFNE01.JPG,AFNE01.JPG,,,,,4,9,49,9,,,,,,,,,,,,,,,,,,,AMNE05.jpg,AMSA02.jpg,AMNE06.jpg,AMSA07.jpg,AMSA02.jpg,MS,2,num_6,32,num_8,0.633490741719,,,2017_Apr_10_1725,60.0054466919,FEMA4ImagesEEG,001,200144,
AFNE01.JPG,AFNE01.JPG,AFNE01.JPG,AFNE01.JPG,AFNE01.JPG,AFNE01.JPG,,,,,5,0,50,5,,,,,,,,,,,,,,,,,,,AMSA04.jpg,AMNE16.jpg,AMSA17.jpg,AMNE06.jpg,AMSA04.jpg,MS,2,num_8,16,num_8,1.0834183027,,,2017_Apr_10_1725,60.0054466919,FEMA4ImagesEEG,001,200144,
AFNE01.JPG,AFNE01.JPG,AFNE01.JPG,AFNE01.JPG,AFNE01.JPG,AFNE01.JPG,,,,,5,1,51,2,,,,,,,,,,,,,,,,,,,AMSA09.jpg,AMNE08.jpg,AMNE15.jpg,AMSA06.jpg,AMSA06.jpg,MS,2,num_4,16,num_4,1.11702637095,,,2017_Apr_10_1725,60.0054466919,FEMA4ImagesEEG,001,200144,
AFNE01.JPG,AFNE01.JPG,AFNE01.JPG,AFNE01.JPG,AFNE01.JPG,AFNE01.JPG,,,,,5,2,52,4,,,,,,,,,,,,,,,,,,,AMNE04.jpg,AMSA11.jpg,AMNE08.jpg,AMSA18.jpg,AMSA11.jpg,MS,2,num_6,16,num_6,0.850146241253,,,2017_Apr_10_1725,60.0054466919,FEMA4ImagesEEG,001,200144,
AFNE01.JPG,AFNE01.JPG,AFNE01.JPG,AFNE01.JPG,AFNE01.JPG,AFNE01.JPG,,,,,5,3,53,1,,,,,,,,,,,,,,,,,,,AMNE10.jpg,AMSA06.jpg,AMNE01.jpg,AMSA13.jpg,AMSA06.jpg,MS,2,num_6,16,num_6,0.550116059603,,,2017_Apr_10_1725,60.0054466919,FEMA4ImagesEEG,001,200144,
AFNE01.JPG,AFNE01.JPG,AFNE01.JPG,AFNE01.JPG,AFNE01.JPG,AFNE01.JPG,,,,,5,4,54,3,,,,,,,,,,,,,,,,,,,AMNE16.jpg,AMNE17.jpg,AMSA14.jpg,AMSA18.jpg,AMNE17.jpg,MN,1,num_6,16,num_6,1.36672704061,,,2017_Apr_10_1725,60.0054466919,FEMA4ImagesEEG,001,200144,
AFNE01.JPG,AFNE01.JPG,AFNE01.JPG,AFNE01.JPG,AFNE01.JPG,AFNE01.JPG,,,,,5,5,55,9,,,,,,,,,,,,,,,,,,,AMNE17.jpg,AMNE09.jpg,AMSA01.jpg,AMSA13.jpg,AMSA01.jpg,MS,2,num_2,16,num_2,2.10002492159,,,2017_Apr_10_1725,60.0054466919,FEMA4ImagesEEG,001,200144,
AFNE01.JPG,AFNE01.JPG,AFNE01.JPG,AFNE01.JPG,AFNE01.JPG,AFNE01.JPG,,,,,5,6,56,0,,,,,,,,,,,,,,,,,,,AMNE04.jpg,AMSA14.jpg,AMNE16.jpg,AMSA10.jpg,AMNE16.jpg,MN,1,num_2,32,num_6,1.78345900448,,,2017_Apr_10_1725,60.0054466919,FEMA4ImagesEEG,001,200144,
AFNE01.JPG,AFNE01.JPG,AFNE01.JPG,AFNE01.JPG,AFNE01.JPG,AFNE01.JPG,,,,,5,7,57,8,,,,,,,,,,,,,,,,,,,AMSA13.jpg,AMSA09.jpg,AMNE06.jpg,AMNE04.jpg,AMNE04.jpg,MN,1,num_4,16,num_4,2.33340154402,,,2017_Apr_10_1725,60.0054466919,FEMA4ImagesEEG,001,200144,
AFNE01.JPG,AFNE01.JPG,AFNE01.JPG,AFNE01.JPG,AFNE01.JPG,AFNE01.JPG,,,,,5,8,58,6,,,,,,,,,,,,,,,,,,,AMNE14.jpg,AMSA14.jpg,AMNE05.jpg,AMSA17.jpg,AMNE05.jpg,MN,1,num_2,32,num_8,1.03329534689,,,2017_Apr_10_1725,60.0054466919,FEMA4ImagesEEG,001,200144,
AFNE01.JPG,AFNE01.JPG,AFNE01.JPG,AFNE01.JPG,AFNE01.JPG,AFNE01.JPG,,,,,5,9,59,7,,,,,,,,,,,,,,,,,,,AMNE09.jpg,AMSA03.jpg,AMNE06.jpg,AMSA16.jpg,AMNE09.jpg,MN,1,num_8,16,num_8,0.833553414326,,,2017_Apr_10_1725,60.0054466919,FEMA4ImagesEEG,001,200144,
,,,,,,,,,,,,,,,,,,,,,,,,,,,,,,,,,,,,,,,,,,,space,17.8656995508,2017_Apr_10_1725,60.0054466919,FEMA4ImagesEEG,001,200144,
AFNE01.JPG,AFNE01.JPG,AFNE01.JPG,AFNE01.JPG,AFNE01.JPG,AFNE01.JPG,,,,,,,,,0,0,0,3,,,,,,,,,,,,,,,AFNE08.jpg,AFNE19.jpg,AFSA18.jpg,AFSA10.jpg,AFNE08.jpg,FN,3,num_8,32,num_4,0.616816126043,,,2017_Apr_10_1725,60.0054466919,FEMA4ImagesEEG,001,200144,
AFNE01.JPG,AFNE01.JPG,AFNE01.JPG,AFNE01.JPG,AFNE01.JPG,AFNE01.JPG,,,,,,,,,0,1,1,0,,,,,,,,,,,,,,,AFNE08.jpg,AFSA20.jpg,AFSA17.jpg,AFNE10.jpg,AFNE10.jpg,FN,3,num_4,16,num_4,0.916739822133,,,2017_Apr_10_1725,60.0054466919,FEMA4ImagesEEG,001,200144,
AFNE01.JPG,AFNE01.JPG,AFNE01.JPG,AFNE01.JPG,AFNE01.JPG,AFNE01.JPG,,,,,,,,,0,2,2,4,,,,,,,,,,,,,,,AFNE10.jpg,AFSA09.jpg,AFSA18.jpg,AFNE14.jpg,AFSA09.jpg,FS,4,num_6,16,num_6,0.666735732462,,,2017_Apr_10_1725,60.0054466919,FEMA4ImagesEEG,001,200144,
AFNE01.JPG,AFNE01.JPG,AFNE01.JPG,AFNE01.JPG,AFNE01.JPG,AFNE01.JPG,,,,,,,,,0,3,3,2,,,,,,,,,,,,,,,AFSA16.jpg,AFNE09.jpg,AFSA15.jpg,AFNE02.jpg,AFSA15.jpg,FS,4,num_2,16,num_2,1.96677489486,,,2017_Apr_10_1725,60.0054466919,FEMA4ImagesEEG,001,200144,
AFNE01.JPG,AFNE01.JPG,AFNE01.JPG,AFNE01.JPG,AFNE01.JPG,AFNE01.JPG,,,,,,,,,0,4,4,1,,,,,,,,,,,,,,,AFSA05.jpg,AFSA13.jpg,AFNE10.jpg,AFNE19.jpg,AFSA13.jpg,FS,4,num_6,16,num_6,0.700134999119,,,2017_Apr_10_1725,60.0054466919,FEMA4ImagesEEG,001,200144,
AFNE01.JPG,AFNE01.JPG,AFNE01.JPG,AFNE01.JPG,AFNE01.JPG,AFNE01.JPG,,,,,,,,,0,5,5,5,,,,,,,,,,,,,,,AFSA01.jpg,AFNE10.jpg,AFSA15.jpg,AFNE03.jpg,AFSA15.jpg,FS,4,num_2,32,num_6,0.883371667005,,,2017_Apr_10_1725,60.0054466919,FEMA4ImagesEEG,001,200144,
AFNE01.JPG,AFNE01.JPG,AFNE01.JPG,AFNE01.JPG,AFNE01.JPG,AFNE01.JPG,,,,,,,,,0,6,6,6,,,,,,,,,,,,,,,AFNE12.jpg,AFSA03.jpg,AFSA13.jpg,AFNE18.jpg,AFSA03.jpg,FS,4,num_6,16,num_6,0.716788125457,,,2017_Apr_10_1725,60.0054466919,FEMA4ImagesEEG,001,200144,
AFNE01.JPG,AFNE01.JPG,AFNE01.JPG,AFNE01.JPG,AFNE01.JPG,AFNE01.JPG,,,,,,,,,0,7,7,7,,,,,,,,,,,,,,,AFNE11.jpg,AFNE08.jpg,AFSA10.jpg,AFSA14.jpg,AFNE11.jpg,FN,3,num_8,32,num_6,1.11675855331,,,2017_Apr_10_1725,60.0054466919,FEMA4ImagesEEG,001,200144,
AFNE01.JPG,AFNE01.JPG,AFNE01.JPG,AFNE01.JPG,AFNE01.JPG,AFNE01.JPG,,,,,,,,,0,8,8,9,,,,,,,,,,,,,,,AFNE04.jpg,AFSA13.jpg,AFSA04.jpg,AFNE09.jpg,AFSA13.jpg,FS,4,num_6,16,num_6,1.05020827218,,,2017_Apr_10_1725,60.0054466919,FEMA4ImagesEEG,001,200144,
AFNE01.JPG,AFNE01.JPG,AFNE01.JPG,AFNE01.JPG,AFNE01.JPG,AFNE01.JPG,,,,,,,,,0,9,9,8,,,,,,,,,,,,,,,AFNE05.jpg,AFSA20.jpg,AFNE04.jpg,AFSA19.jpg,AFNE04.jpg,FN,3,num_2,32,num_6,1.43351723487,,,2017_Apr_10_1725,60.0054466919,FEMA4ImagesEEG,001,200144,
AFNE01.JPG,AFNE01.JPG,AFNE01.JPG,AFNE01.JPG,AFNE01.JPG,AFNE01.JPG,,,,,,,,,1,0,10,0,,,,,,,,,,,,,,,AFSA07.jpg,AFNE16.jpg,AFNE10.jpg,AFSA10.jpg,AFNE16.jpg,FN,3,num_6,16,num_6,0.816780010704,,,2017_Apr_10_1725,60.0054466919,FEMA4ImagesEEG,001,200144,
AFNE01.JPG,AFNE01.JPG,AFNE01.JPG,AFNE01.JPG,AFNE01.JPG,AFNE01.JPG,,,,,,,,,1,1,11,7,,,,,,,,,,,,,,,AFSA09.jpg,AFNE07.jpg,AFNE11.jpg,AFSA04.jpg,AFNE11.jpg,FN,3,num_2,32,num_8,1.3665583313,,,2017_Apr_10_1725,60.0054466919,FEMA4ImagesEEG,001,200144,
AFNE01.JPG,AFNE01.JPG,AFNE01.JPG,AFNE01.JPG,AFNE01.JPG,AFNE01.JPG,,,,,,,,,1,2,12,4,,,,,,,,,,,,,,,AFNE10.jpg,AFSA05.jpg,AFSA08.jpg,AFNE19.jpg,AFSA08.jpg,FS,4,num_2,32,num_6,1.35007551825,,,2017_Apr_10_1725,60.0054466919,FEMA4ImagesEEG,001,200144,
AFNE01.JPG,AFNE01.JPG,AFNE01.JPG,AFNE01.JPG,AFNE01.JPG,AFNE01.JPG,,,,,,,,,1,3,13,8,,,,,,,,,,,,,,,AFSA02.jpg,AFSA06.jpg,AFNE12.jpg,AFNE03.jpg,AFNE12.jpg,FN,3,num_2,16,num_2,2.03344320809,,,2017_Apr_10_1725,60.0054466919,FEMA4ImagesEEG,001,200144,
AFNE01.JPG,AFNE01.JPG,AFNE01.JPG,AFNE01.JPG,AFNE01.JPG,AFNE01.JPG,,,,,,,,,1,4,14,2,,,,,,,,,,,,,,,AFSA02.jpg,AFNE01.jpg,AFSA18.jpg,AFNE08.jpg,AFNE08.jpg,FN,3,num_4,32,num_8,0.866780764423,,,2017_Apr_10_1725,60.0054466919,FEMA4ImagesEEG,001,200144,
AFNE01.JPG,AFNE01.JPG,AFNE01.JPG,AFNE01.JPG,AFNE01.JPG,AFNE01.JPG,,,,,,,,,1,5,15,9,,,,,,,,,,,,,,,AFSA03.jpg,AFNE12.jpg,AFNE18.jpg,AFSA15.jpg,AFSA03.jpg,FS,4,num_8,32,num_6,0.650138094556,,,2017_Apr_10_1725,60.0054466919,FEMA4ImagesEEG,001,200144,
AFNE01.JPG,AFNE01.JPG,AFNE01.JPG,AFNE01.JPG,AFNE01.JPG,AFNE01.JPG,,,,,,,,,1,6,16,1,,,,,,,,,,,,,,,AFNE07.jpg,AFNE11.jpg,AFSA09.jpg,AFSA08.jpg,AFSA09.jpg,FS,4,num_2,32,num_8,1.15010586008,,,2017_Apr_10_1725,60.0054466919,FEMA4ImagesEEG,001,200144,
AFNE01.JPG,AFNE01.JPG,AFNE01.JPG,AFNE01.JPG,AFNE01.JPG,AFNE01.JPG,,,,,,,,,1,7,17,6,,,,,,,,,,,,,,,AFSA19.jpg,AFSA16.jpg,AFNE16.jpg,AFNE04.jpg,AFNE16.jpg,FN,3,num_2,16,num_2,1.36672126735,,,2017_Apr_10_1725,60.0054466919,FEMA4ImagesEEG,001,200144,
AFNE01.JPG,AFNE01.JPG,AFNE01.JPG,AFNE01.JPG,AFNE01.JPG,AFNE01.JPG,,,,,,,,,1,8,18,3,,,,,,,,,,,,,,,AFNE19.jpg,AFSA02.jpg,AFSA15.jpg,AFNE16.jpg,AFSA15.jpg,FS,4,num_2,16,num_2,1.93336023274,,,2017_Apr_10_1725,60.0054466919,FEMA4ImagesEEG,001,200144,
AFNE01.JPG,AFNE01.JPG,AFNE01.JPG,AFNE01.JPG,AFNE01.JPG,AFNE01.JPG,,,,,,,,,1,9,19,5,,,,,,,,,,,,,,,AFNE03.jpg,AFSA15.jpg,AFNE19.jpg,AFSA05.jpg,AFSA15.jpg,FS,4,num_6,16,num_6,2.88342747558,,,2017_Apr_10_1725,60.0054466919,FEMA4ImagesEEG,001,200144,
AFNE01.JPG,AFNE01.JPG,AFNE01.JPG,AFNE01.JPG,AFNE01.JPG,AFNE01.JPG,,,,,,,,,2,0,20,0,,,,,,,,,,,,,,,AFNE07.jpg,AFSA17.jpg,AFSA05.jpg,AFNE12.jpg,AFSA05.jpg,FS,4,num_2,32,num_8,1.20012778277,,,2017_Apr_10_1725,60.0054466919,FEMA4ImagesEEG,001,200144,
AFNE01.JPG,AFNE01.JPG,AFNE01.JPG,AFNE01.JPG,AFNE01.JPG,AFNE01.JPG,,,,,,,,,2,1,21,5,,,,,,,,,,,,,,,AFNE07.jpg,AFSA04.jpg,AFNE18.jpg,AFSA07.jpg,AFNE18.jpg,FN,3,num_2,32,num_4,1.40005542384,,,2017_Apr_10_1725,60.0054466919,FEMA4ImagesEEG,001,200144,
AFNE01.JPG,AFNE01.JPG,AFNE01.JPG,AFNE01.JPG,AFNE01.JPG,AFNE01.JPG,,,,,,,,,2,2,22,1,,,,,,,,,,,,,,,AFNE19.jpg,AFNE14.jpg,AFSA03.jpg,AFSA01.jpg,AFNE19.jpg,FN,3,num_8,32,num_4,1.20010597259,,,2017_Apr_10_1725,60.0054466919,FEMA4ImagesEEG,001,200144,
AFNE01.JPG,AFNE01.JPG,AFNE01.JPG,AFNE01.JPG,AFNE01.JPG,AFNE01.JPG,,,,,,,,,2,3,23,2,,,,,,,,,,,,,,,AFNE12.jpg,AFSA03.jpg,AFNE11.jpg,AFSA04.jpg,AFNE11.jpg,FN,3,num_2,32,num_8,1.85010165838,,,2017_Apr_10_1725,60.0054466919,FEMA4ImagesEEG,001,200144,
AFNE01.JPG,AFNE01.JPG,AFNE01.JPG,AFNE01.JPG,AFNE01.JPG,AFNE01.JPG,,,,,,,,,2,4,24,7,,,,,,,,,,,,,,,AFSA09.jpg,AFNE09.jpg,AFSA17.jpg,AFNE12.jpg,AFSA09.jpg,FS,4,num_8,32,num_6,0.900097280275,,,2017_Apr_10_1725,60.0054466919,FEMA4ImagesEEG,001,200144,
AFNE01.JPG,AFNE01.JPG,AFNE01.JPG,AFNE01.JPG,AFNE01.JPG,AFNE01.JPG,,,,,,,,,2,5,25,8,,,,,,,,,,,,,,,AFNE18.jpg,AFSA17.jpg,AFSA18.jpg,AFNE09.jpg,AFSA17.jpg,FS,4,num_6,16,num_6,0.816792198922,,,2017_Apr_10_1725,60.0054466919,FEMA4ImagesEEG,001,200144,
AFNE01.JPG,AFNE01.JPG,AFNE01.JPG,AFNE01.JPG,AFNE01.JPG,AFNE01.JPG,,,,,,,,,2,6,26,6,,,,,,,,,,,,,,,AFNE20.jpg,AFSA08.jpg,AFSA06.jpg,AFNE01.jpg,AFNE20.jpg,FN,3,num_8,32,num_6,0.76673820219,,,2017_Apr_10_1725,60.0054466919,FEMA4ImagesEEG,001,200144,
AFNE01.JPG,AFNE01.JPG,AFNE01.JPG,AFNE01.JPG,AFNE01.JPG,AFNE01.JPG,,,,,,,,,2,7,27,9,,,,,,,,,,,,,,,AFSA20.jpg,AFNE01.jpg,AFNE05.jpg,AFSA17.jpg,AFSA17.jpg,FS,4,num_4,16,num_4,0.750137356576,,,2017_Apr_10_1725,60.0054466919,FEMA4ImagesEEG,001,200144,
AFNE01.JPG,AFNE01.JPG,AFNE01.JPG,AFNE01.JPG,AFNE01.JPG,AFNE01.JPG,,,,,,,,,2,8,28,4,,,,,,,,,,,,,,,AFNE13.jpg,AFSA18.jpg,AFSA03.jpg,AFNE11.jpg,AFNE11.jpg,FN,3,num_4,32,num_8,1.00012220186,,,2017_Apr_10_1725,60.0054466919,FEMA4ImagesEEG,001,200144,
AFNE01.JPG,AFNE01.JPG,AFNE01.JPG,AFNE01.JPG,AFNE01.JPG,AFNE01.JPG,,,,,,,,,2,9,29,3,,,,,,,,,,,,,,,AFNE08.jpg,AFSA06.jpg,AFSA12.jpg,AFNE10.jpg,AFSA06.jpg,FS,4,num_6,32,num_4,0.783468626672,,,2017_Apr_10_1725,60.0054466919,FEMA4ImagesEEG,001,200144,
AFNE01.JPG,AFNE01.JPG,AFNE01.JPG,AFNE01.JPG,AFNE01.JPG,AFNE01.JPG,,,,,,,,,3,0,30,9,,,,,,,,,,,,,,,AFSA17.jpg,AFSA19.jpg,AFNE17.jpg,AFNE15.jpg,AFSA17.jpg,FS,4,num_8,32,num_6,0.666737015592,,,2017_Apr_10_1725,60.0054466919,FEMA4ImagesEEG,001,200144,
AFNE01.JPG,AFNE01.JPG,AFNE01.JPG,AFNE01.JPG,AFNE01.JPG,AFNE01.JPG,,,,,,,,,3,1,31,4,,,,,,,,,,,,,,,AFNE04.jpg,AFNE05.jpg,AFSA02.jpg,AFSA10.jpg,AFSA02.jpg,FS,4,num_2,32,num_8,0.633590812562,,,2017_Apr_10_1725,60.0054466919,FEMA4ImagesEEG,001,200144,
AFNE01.JPG,AFNE01.JPG,AFNE01.JPG,AFNE01.JPG,AFNE01.JPG,AFNE01.JPG,,,,,,,,,3,2,32,3,,,,,,,,,,,,,,,AFSA15.jpg,AFNE03.jpg,AFNE04.jpg,AFSA12.jpg,AFNE04.jpg,FN,3,num_2,32,num_8,1.18344258261,,,2017_Apr_10_1725,60.0054466919,FEMA4ImagesEEG,001,200144,
AFNE01.JPG,AFNE01.JPG,AFNE01.JPG,AFNE01.JPG,AFNE01.JPG,AFNE01.JPG,,,,,,,,,3,3,33,6,,,,,,,,,,,,,,,AFNE14.jpg,AFNE06.jpg,AFSA08.jpg,AFSA13.jpg,AFSA13.jpg,FS,4,num_4,16,num_4,0.566777204163,,,2017_Apr_10_1725,60.0054466919,FEMA4ImagesEEG,001,200144,
AFNE01.JPG,AFNE01.JPG,AFNE01.JPG,AFNE01.JPG,AFNE01.JPG,AFNE01.JPG,,,,,,,,,3,4,34,1,,,,,,,,,,,,,,,AFNE10.jpg,AFNE13.jpg,AFSA07.jpg,AFSA12.jpg,AFSA07.jpg,FS,4,num_2,32,num_6,0.800110847689,,,2017_Apr_10_1725,60.0054466919,FEMA4ImagesEEG,001,200144,
AFNE01.JPG,AFNE01.JPG,AFNE01.JPG,AFNE01.JPG,AFNE01.JPG,AFNE01.JPG,,,,,,,,,3,5,35,0,,,,,,,,,,,,,,,AFSA07.jpg,AFNE03.jpg,AFSA17.jpg,AFNE14.jpg,AFNE03.jpg,FN,3,num_6,16,num_6,0.750100150937,,,2017_Apr_10_1725,60.0054466919,FEMA4ImagesEEG,001,200144,
AFNE01.JPG,AFNE01.JPG,AFNE01.JPG,AFNE01.JPG,AFNE01.JPG,AFNE01.JPG,,,,,,,,,3,6,36,5,,,,,,,,,,,,,,,AFSA05.jpg,AFNE18.jpg,AFSA20.jpg,AFNE13.jpg,AFSA05.jpg,FS,4,num_8,32,num_6,0.700092020212,,,2017_Apr_10_1725,60.0054466919,FEMA4ImagesEEG,001,200144,
AFNE01.JPG,AFNE01.JPG,AFNE01.JPG,AFNE01.JPG,AFNE01.JPG,AFNE01.JPG,,,,,,,,,3,7,37,8,,,,,,,,,,,,,,,AFNE12.jpg,AFNE02.jpg,AFSA07.jpg,AFSA02.jpg,AFNE12.jpg,FN,3,num_8,16,num_8,0.950112788239,,,2017_Apr_10_1725,60.0054466919,FEMA4ImagesEEG,001,200144,
AFNE01.JPG,AFNE01.JPG,AFNE01.JPG,AFNE01.JPG,AFNE01.JPG,AFNE01.JPG,,,,,,,,,3,8,38,2,,,,,,,,,,,,,,,AFSA08.jpg,AFNE03.jpg,AFSA20.jpg,AFNE05.jpg,AFNE05.jpg,FN,3,num_4,32,num_6,0.800261274446,,,2017_Apr_10_1725,60.0054466919,FEMA4ImagesEEG,001,200144,
AFNE01.JPG,AFNE01.JPG,AFNE01.JPG,AFNE01.JPG,AFNE01.JPG,AFNE01.JPG,,,,,,,,,3,9,39,7,,,,,,,,,,,,,,,AFNE19.jpg,AFSA07.jpg,AFNE17.jpg,AFSA11.jpg,AFSA11.jpg,FS,4,num_4,32,num_8,0.800121752778,,,2017_Apr_10_1725,60.0054466919,FEMA4ImagesEEG,001,200144,
AFNE01.JPG,AFNE01.JPG,AFNE01.JPG,AFNE01.JPG,AFNE01.JPG,AFNE01.JPG,,,,,,,,,4,0,40,3,,,,,,,,,,,,,,,AFSA11.jpg,AFNE08.jpg,AFSA02.jpg,AFNE15.jpg,AFNE08.jpg,FN,3,num_6,32,num_4,0.966821722919,,,2017_Apr_10_1725,60.0054466919,FEMA4ImagesEEG,001,200144,
AFNE01.JPG,AFNE01.JPG,AFNE01.JPG,AFNE01.JPG,AFNE01.JPG,AFNE01.JPG,,,,,,,,,4,1,41,4,,,,,,,,,,,,,,,AFNE08.jpg,AFSA06.jpg,AFSA20.jpg,AFNE06.jpg,AFSA06.jpg,FS,4,num_6,32,num_8,0.983441171469,,,2017_Apr_10_1725,60.0054466919,FEMA4ImagesEEG,001,200144,
AFNE01.JPG,AFNE01.JPG,AFNE01.JPG,AFNE01.JPG,AFNE01.JPG,AFNE01.JPG,,,,,,,,,4,2,42,2,,,,,,,,,,,,,,,AFNE12.jpg,AFNE16.jpg,AFSA17.jpg,AFSA18.jpg,AFSA17.jpg,FS,4,num_2,32,num_4,0.850194031373,,,2017_Apr_10_1725,60.0054466919,FEMA4ImagesEEG,001,200144,
AFNE01.JPG,AFNE01.JPG,AFNE01.JPG,AFNE01.JPG,AFNE01.JPG,AFNE01.JPG,,,,,,,,,4,3,43,7,,,,,,,,,,,,,,,AFNE04.jpg,AFSA04.jpg,AFNE03.jpg,AFSA18.jpg,AFNE04.jpg,FN,3,num_8,32,num_6,1.15014755633,,,2017_Apr_10_1725,60.0054466919,FEMA4ImagesEEG,001,200144,
AFNE01.JPG,AFNE01.JPG,AFNE01.JPG,AFNE01.JPG,AFNE01.JPG,AFNE01.JPG,,,,,,,,,4,4,44,9,,,,,,,,,,,,,,,AFSA17.jpg,AFNE09.jpg,AFNE20.jpg,AFSA20.jpg,AFSA20.jpg,FS,4,num_4,16,num_4,1.13342932006,,,2017_Apr_10_1725,60.0054466919,FEMA4ImagesEEG,001,200144,
AFNE01.JPG,AFNE01.JPG,AFNE01.JPG,AFNE01.JPG,AFNE01.JPG,AFNE01.JPG,,,,,,,,,4,5,45,1,,,,,,,,,,,,,,,AFNE07.jpg,AFNE06.jpg,AFSA11.jpg,AFSA16.jpg,AFSA11.jpg,FS,4,num_2,32,num_8,1.16675898619,,,2017_Apr_10_1725,60.0054466919,FEMA4ImagesEEG,001,200144,
AFNE01.JPG,AFNE01.JPG,AFNE01.JPG,AFNE01.JPG,AFNE01.JPG,AFNE01.JPG,,,,,,,,,4,6,46,5,,,,,,,,,,,,,,,AFNE06.jpg,AFSA14.jpg,AFNE03.jpg,AFSA06.jpg,AFNE06.jpg,FN,3,num_8,32,num_6,0.566787467804,,,2017_Apr_10_1725,60.0054466919,FEMA4ImagesEEG,001,200144,
AFNE01.JPG,AFNE01.JPG,AFNE01.JPG,AFNE01.JPG,AFNE01.JPG,AFNE01.JPG,,,,,,,,,4,7,47,8,,,,,,,,,,,,,,,AFSA13.jpg,AFNE08.jpg,AFSA14.jpg,AFNE05.jpg,AFNE08.jpg,FN,3,num_6,32,num_4,1.05008222163,,,2017_Apr_10_1725,60.0054466919,FEMA4ImagesEEG,001,200144,
AFNE01.JPG,AFNE01.JPG,AFNE01.JPG,AFNE01.JPG,AFNE01.JPG,AFNE01.JPG,,,,,,,,,4,8,48,0,,,,,,,,,,,,,,,AFNE20.jpg,AFNE05.jpg,AFSA01.jpg,AFSA12.jpg,AFSA01.jpg,FS,4,num_2,32,num_8,0.583431613399,,,2017_Apr_10_1725,60.0054466919,FEMA4ImagesEEG,001,200144,
AFNE01.JPG,AFNE01.JPG,AFNE01.JPG,AFNE01.JPG,AFNE01.JPG,AFNE01.JPG,,,,,,,,,4,9,49,6,,,,,,,,,,,,,,,AFNE20.jpg,AFSA12.jpg,AFNE06.jpg,AFSA06.jpg,AFSA06.jpg,FS,4,num_4,32,num_6,1.14981430769,,,2017_Apr_10_1725,60.0054466919,FEMA4ImagesEEG,001,200144,
AFNE01.JPG,AFNE01.JPG,AFNE01.JPG,AFNE01.JPG,AFNE01.JPG,AFNE01.JPG,,,,,,,,,5,0,50,9,,,,,,,,,,,,,,,AFNE06.jpg,AFSA02.jpg,AFSA05.jpg,AFNE07.jpg,AFSA02.jpg,FS,4,num_6,32,num_4,1.26674541901,,,2017_Apr_10_1725,60.0054466919,FEMA4ImagesEEG,001,200144,
AFNE01.JPG,AFNE01.JPG,AFNE01.JPG,AFNE01.JPG,AFNE01.JPG,AFNE01.JPG,,,,,,,,,5,1,51,6,,,,,,,,,,,,,,,AFSA09.jpg,AFSA19.jpg,AFNE09.jpg,AFNE08.jpg,AFNE08.jpg,FN,3,num_4,16,num_4,0.800112130586,,,2017_Apr_10_1725,60.0054466919,FEMA4ImagesEEG,001,200144,
AFNE01.JPG,AFNE01.JPG,AFNE01.JPG,AFNE01.JPG,AFNE01.JPG,AFNE01.JPG,,,,,,,,,5,2,52,2,,,,,,,,,,,,,,,AFNE17.jpg,AFSA05.jpg,AFNE05.jpg,AFSA13.jpg,AFSA05.jpg,FS,4,num_6,16,num_6,0.81702762167,,,2017_Apr_10_1725,60.0054466919,FEMA4ImagesEEG,001,200144,
AFNE01.JPG,AFNE01.JPG,AFNE01.JPG,AFNE01.JPG,AFNE01.JPG,AFNE01.JPG,,,,,,,,,5,3,53,1,,,,,,,,,,,,,,,AFNE04.jpg,AFSA17.jpg,AFNE09.jpg,AFSA10.jpg,AFSA10.jpg,FS,4,num_4,16,num_4,0.733317125123,,,2017_Apr_10_1725,60.0054466919,FEMA4ImagesEEG,001,200144,
AFNE01.JPG,AFNE01.JPG,AFNE01.JPG,AFNE01.JPG,AFNE01.JPG,AFNE01.JPG,,,,,,,,,5,4,54,7,,,,,,,,,,,,,,,AFSA08.jpg,AFSA16.jpg,AFNE15.jpg,AFNE01.jpg,AFSA16.jpg,FS,4,num_6,16,num_6,0.566775600659,,,2017_Apr_10_1725,60.0054466919,FEMA4ImagesEEG,001,200144,
AFNE01.JPG,AFNE01.JPG,AFNE01.JPG,AFNE01.JPG,AFNE01.JPG,AFNE01.JPG,,,,,,,,,5,5,55,4,,,,,,,,,,,,,,,AFNE09.jpg,AFNE20.jpg,AFSA04.jpg,AFSA17.jpg,AFNE20.jpg,FN,3,num_6,16,num_6,0.800120149273,,,2017_Apr_10_1725,60.0054466919,FEMA4ImagesEEG,001,200144,
AFNE01.JPG,AFNE01.JPG,AFNE01.JPG,AFNE01.JPG,AFNE01.JPG,AFNE01.JPG,,,,,,,,,5,6,56,8,,,,,,,,,,,,,,,AFSA06.jpg,AFNE08.jpg,AFSA08.jpg,AFNE18.jpg,AFNE08.jpg,FN,3,num_6,16,num_6,0.95011663693,,,2017_Apr_10_1725,60.0054466919,FEMA4ImagesEEG,001,200144,
AFNE01.JPG,AFNE01.JPG,AFNE01.JPG,AFNE01.JPG,AFNE01.JPG,AFNE01.JPG,,,,,,,,,5,7,57,5,,,,,,,,,,,,,,,AFNE05.jpg,AFSA16.jpg,AFNE19.jpg,AFSA11.jpg,AFSA16.jpg,FS,4,num_6,16,num_6,0.650174658746,,,2017_Apr_10_1725,60.0054466919,FEMA4ImagesEEG,001,200144,
AFNE01.JPG,AFNE01.JPG,AFNE01.JPG,AFNE01.JPG,AFNE01.JPG,AFNE01.JPG,,,,,,,,,5,8,58,0,,,,,,,,,,,,,,,AFNE05.jpg,AFSA07.jpg,AFSA20.jpg,AFNE03.jpg,AFSA07.jpg,FS,4,num_6,16,num_6,0.966946490807,,,2017_Apr_10_1725,60.0054466919,FEMA4ImagesEEG,001,200144,
AFNE01.JPG,AFNE01.JPG,AFNE01.JPG,AFNE01.JPG,AFNE01.JPG,AFNE01.JPG,,,,,,,,,5,9,59,3,,,,,,,,,,,,,,,AFNE01.jpg,AFSA06.jpg,AFSA11.jpg,AFNE06.jpg,AFSA11.jpg,FS,4,num_2,16,num_2,1.80005407683,,,2017_Apr_10_1725,60.0054466919,FEMA4ImagesEEG,001,200144,
,,,,,,,,,,,,,,,,,,,,,,,,,,,,,,,,,,,,,,,,,,,space,2.68330129678,2017_Apr_10_1725,60.0054466919,FEMA4ImagesEEG,001,200144,
AFNE01.JPG,AFNE01.JPG,AFNE01.JPG,AFNE01.JPG,AFNE01.JPG,AFNE01.JPG,,,,,,,,,,,,,0,0,0,8,,,,,,,,,,,AMNE08.jpg,AMSA13.jpg,AMSA07.jpg,AMNE12.jpg,AMSA13.jpg,MS,2,num_6,16,num_6,0.916771895951,,,2017_Apr_10_1725,60.0054466919,FEMA4ImagesEEG,001,200144,
AFNE01.JPG,AFNE01.JPG,AFNE01.JPG,AFNE01.JPG,AFNE01.JPG,AFNE01.JPG,,,,,,,,,,,,,0,1,1,2,,,,,,,,,,,AMNE05.jpg,AMSA07.jpg,AMSA11.jpg,AMNE17.jpg,AMNE17.jpg,MN,1,num_4,16,num_4,0.750174241839,,,2017_Apr_10_1725,60.0054466919,FEMA4ImagesEEG,001,200144,
AFNE01.JPG,AFNE01.JPG,AFNE01.JPG,AFNE01.JPG,AFNE01.JPG,AFNE01.JPG,,,,,,,,,,,,,0,2,2,6,,,,,,,,,,,AMSA06.jpg,AMNE05.jpg,AMSA14.jpg,AMNE20.jpg,AMSA14.jpg,MS,2,num_2,16,num_2,1.33344805124,,,2017_Apr_10_1725,60.0054466919,FEMA4ImagesEEG,001,200144,
AFNE01.JPG,AFNE01.JPG,AFNE01.JPG,AFNE01.JPG,AFNE01.JPG,AFNE01.JPG,,,,,,,,,,,,,0,3,3,7,,,,,,,,,,,AMNE07.jpg,AMNE19.jpg,AMSA06.jpg,AMSA07.jpg,AMSA07.jpg,MS,2,num_4,16,num_4,0.683462628862,,,2017_Apr_10_1725,60.0054466919,FEMA4ImagesEEG,001,200144,
AFNE01.JPG,AFNE01.JPG,AFNE01.JPG,AFNE01.JPG,AFNE01.JPG,AFNE01.JPG,,,,,,,,,,,,,0,4,4,0,,,,,,,,,,,AMSA07.jpg,AMNE08.jpg,AMSA04.jpg,AMNE01.jpg,AMNE08.jpg,MN,1,num_6,16,num_6,0.716745146317,,,2017_Apr_10_1725,60.0054466919,FEMA4ImagesEEG,001,200144,
AFNE01.JPG,AFNE01.JPG,AFNE01.JPG,AFNE01.JPG,AFNE01.JPG,AFNE01.JPG,,,,,,,,,,,,,0,5,5,3,,,,,,,,,,,AMSA04.jpg,AMNE02.jpg,AMSA05.jpg,AMNE16.jpg,AMNE16.jpg,MN,1,num_4,32,num_2,1.38341929694,,,2017_Apr_10_1725,60.0054466919,FEMA4ImagesEEG,001,200144,
AFNE01.JPG,AFNE01.JPG,AFNE01.JPG,AFNE01.JPG,AFNE01.JPG,AFNE01.JPG,,,,,,,,,,,,,0,6,6,5,,,,,,,,,,,AMNE03.jpg,AMNE16.jpg,AMSA11.jpg,AMSA04.jpg,AMNE03.jpg,MN,1,num_8,32,num_2,1.38343212637,,,2017_Apr_10_1725,60.0054466919,FEMA4ImagesEEG,001,200144,
AFNE01.JPG,AFNE01.JPG,AFNE01.JPG,AFNE01.JPG,AFNE01.JPG,AFNE01.JPG,,,,,,,,,,,,,0,7,7,4,,,,,,,,,,,AMNE11.jpg,AMNE15.jpg,AMSA17.jpg,AMSA15.jpg,AMSA15.jpg,MS,2,num_4,16,num_4,1.05015470879,,,2017_Apr_10_1725,60.0054466919,FEMA4ImagesEEG,001,200144,
AFNE01.JPG,AFNE01.JPG,AFNE01.JPG,AFNE01.JPG,AFNE01.JPG,AFNE01.JPG,,,,,,,,,,,,,0,8,8,9,,,,,,,,,,,AMNE18.jpg,AMNE15.jpg,AMSA06.jpg,AMSA10.jpg,AMSA10.jpg,MS,2,num_4,16,num_4,0.783399667591,,,2017_Apr_10_1725,60.0054466919,FEMA4ImagesEEG,001,200144,
AFNE01.JPG,AFNE01.JPG,AFNE01.JPG,AFNE01.JPG,AFNE01.JPG,AFNE01.JPG,,,,,,,,,,,,,0,9,9,1,,,,,,,,,,,AMSA07.jpg,AMSA03.jpg,AMNE17.jpg,AMNE11.jpg,AMSA07.jpg,MS,2,num_8,16,num_8,0.850109997671,,,2017_Apr_10_1725,60.0054466919,FEMA4ImagesEEG,001,200144,
AFNE01.JPG,AFNE01.JPG,AFNE01.JPG,AFNE01.JPG,AFNE01.JPG,AFNE01.JPG,,,,,,,,,,,,,1,0,10,5,,,,,,,,,,,AMSA18.jpg,AMNE07.jpg,AMSA01.jpg,AMNE16.jpg,AMNE16.jpg,MN,1,num_4,16,num_4,0.966765914112,,,2017_Apr_10_1725,60.0054466919,FEMA4ImagesEEG,001,200144,
AFNE01.JPG,AFNE01.JPG,AFNE01.JPG,AFNE01.JPG,AFNE01.JPG,AFNE01.JPG,,,,,,,,,,,,,1,1,11,4,,,,,,,,,,,AMSA08.jpg,AMNE03.jpg,AMSA02.jpg,AMNE20.jpg,AMNE03.jpg,MN,1,num_6,16,num_6,0.950078469003,,,2017_Apr_10_1725,60.0054466919,FEMA4ImagesEEG,001,200144,
AFNE01.JPG,AFNE01.JPG,AFNE01.JPG,AFNE01.JPG,AFNE01.JPG,AFNE01.JPG,,,,,,,,,,,,,1,2,12,3,,,,,,,,,,,AMNE05.jpg,AMNE19.jpg,AMSA14.jpg,AMSA02.jpg,AMSA02.jpg,MS,2,num_4,16,num_4,0.800129450625,,,2017_Apr_10_1725,60.0054466919,FEMA4ImagesEEG,001,200144,
AFNE01.JPG,AFNE01.JPG,AFNE01.JPG,AFNE01.JPG,AFNE01.JPG,AFNE01.JPG,,,,,,,,,,,,,1,3,13,9,,,,,,,,,,,AMSA14.jpg,AMSA03.jpg,AMNE01.jpg,AMNE12.jpg,AMSA14.jpg,MS,2,num_8,16,num_8,0.600110077765,,,2017_Apr_10_1725,60.0054466919,FEMA4ImagesEEG,001,200144,
AFNE01.JPG,AFNE01.JPG,AFNE01.JPG,AFNE01.JPG,AFNE01.JPG,AFNE01.JPG,,,,,,,,,,,,,1,4,14,0,,,,,,,,,,,AMNE07.jpg,AMSA04.jpg,AMSA17.jpg,AMNE01.jpg,AMNE01.jpg,MN,1,num_4,16,num_4,0.516772280913,,,2017_Apr_10_1725,60.0054466919,FEMA4ImagesEEG,001,200144,
AFNE01.JPG,AFNE01.JPG,AFNE01.JPG,AFNE01.JPG,AFNE01.JPG,AFNE01.JPG,,,,,,,,,,,,,1,5,15,7,,,,,,,,,,,AMNE06.jpg,AMSA14.jpg,AMNE20.jpg,AMSA15.jpg,AMSA14.jpg,MS,2,num_6,16,num_6,1.03343422734,,,2017_Apr_10_1725,60.0054466919,FEMA4ImagesEEG,001,200144,
AFNE01.JPG,AFNE01.JPG,AFNE01.JPG,AFNE01.JPG,AFNE01.JPG,AFNE01.JPG,,,,,,,,,,,,,1,6,16,1,,,,,,,,,,,AMNE01.jpg,AMSA02.jpg,AMNE09.jpg,AMSA09.jpg,AMNE01.jpg,MN,1,num_8,32,num_6,0.633448724868,,,2017_Apr_10_1725,60.0054466919,FEMA4ImagesEEG,001,200144,
AFNE01.JPG,AFNE01.JPG,AFNE01.JPG,AFNE01.JPG,AFNE01.JPG,AFNE01.JPG,,,,,,,,,,,,,1,7,17,6,,,,,,,,,,,AMSA11.jpg,AMNE13.jpg,AMNE14.jpg,AMSA10.jpg,AMNE13.jpg,MN,1,num_6,16,num_6,0.950139730237,,,2017_Apr_10_1725,60.0054466919,FEMA4ImagesEEG,001,200144,
AFNE01.JPG,AFNE01.JPG,AFNE01.JPG,AFNE01.JPG,AFNE01.JPG,AFNE01.JPG,,,,,,,,,,,,,1,8,18,8,,,,,,,,,,,AMNE11.jpg,AMSA17.jpg,AMNE12.jpg,AMSA03.jpg,AMSA03.jpg,MS,2,num_4,16,num_4,0.733521436574,,,2017_Apr_10_1725,60.0054466919,FEMA4ImagesEEG,001,200144,
AFNE01.JPG,AFNE01.JPG,AFNE01.JPG,AFNE01.JPG,AFNE01.JPG,AFNE01.JPG,,,,,,,,,,,,,1,9,19,2,,,,,,,,,,,AMNE05.jpg,AMSA09.jpg,AMNE11.jpg,AMSA14.jpg,AMSA09.jpg,MS,2,num_6,16,num_6,0.800140676554,,,2017_Apr_10_1725,60.0054466919,FEMA4ImagesEEG,001,200144,
AFNE01.JPG,AFNE01.JPG,AFNE01.JPG,AFNE01.JPG,AFNE01.JPG,AFNE01.JPG,,,,,,,,,,,,,2,0,20,8,,,,,,,,,,,AMNE12.jpg,AMSA02.jpg,AMSA17.jpg,AMNE20.jpg,AMSA17.jpg,MS,2,num_2,16,num_2,1.20008672797,,,2017_Apr_10_1725,60.0054466919,FEMA4ImagesEEG,001,200144,
AFNE01.JPG,AFNE01.JPG,AFNE01.JPG,AFNE01.JPG,AFNE01.JPG,AFNE01.JPG,,,,,,,,,,,,,2,1,21,7,,,,,,,,,,,AMSA18.jpg,AMSA02.jpg,AMNE18.jpg,AMNE04.jpg,AMNE18.jpg,MN,1,num_2,32,num_8,1.53339910624,,,2017_Apr_10_1725,60.0054466919,FEMA4ImagesEEG,001,200144,
AFNE01.JPG,AFNE01.JPG,AFNE01.JPG,AFNE01.JPG,AFNE01.JPG,AFNE01.JPG,,,,,,,,,,,,,2,2,22,9,,,,,,,,,,,AMNE04.jpg,AMNE10.jpg,AMSA14.jpg,AMSA10.jpg,AMSA10.jpg,MS,2,num_4,16,num_4,0.549876146484,,,2017_Apr_10_1725,60.0054466919,FEMA4ImagesEEG,001,200144,
AFNE01.JPG,AFNE01.JPG,AFNE01.JPG,AFNE01.JPG,AFNE01.JPG,AFNE01.JPG,,,,,,,,,,,,,2,3,23,3,,,,,,,,,,,AMNE04.jpg,AMSA01.jpg,AMSA09.jpg,AMNE07.jpg,AMNE07.jpg,MN,1,num_4,16,num_4,0.564106083941,,,2017_Apr_10_1725,60.0054466919,FEMA4ImagesEEG,001,200144,
AFNE01.JPG,AFNE01.JPG,AFNE01.JPG,AFNE01.JPG,AFNE01.JPG,AFNE01.JPG,,,,,,,,,,,,,2,4,24,4,,,,,,,,,,,AMNE10.jpg,AMSA15.jpg,AMNE07.jpg,AMSA18.jpg,AMSA18.jpg,MS,2,num_4,16,num_4,0.533523553284,,,2017_Apr_10_1725,60.0054466919,FEMA4ImagesEEG,001,200144,
AFNE01.JPG,AFNE01.JPG,AFNE01.JPG,AFNE01.JPG,AFNE01.JPG,AFNE01.JPG,,,,,,,,,,,,,2,5,25,1,,,,,,,,,,,AMNE01.jpg,AMSA14.jpg,AMNE08.jpg,AMSA15.jpg,AMNE01.jpg,MN,1,num_8,16,num_8,0.817056809086,,,2017_Apr_10_1725,60.0054466919,FEMA4ImagesEEG,001,200144,
AFNE01.JPG,AFNE01.JPG,AFNE01.JPG,AFNE01.JPG,AFNE01.JPG,AFNE01.JPG,,,,,,,,,,,,,2,6,26,2,,,,,,,,,,,AMSA07.jpg,AMNE01.jpg,AMSA12.jpg,AMNE05.jpg,AMNE01.jpg,MN,1,num_6,16,num_6,0.683534153737,,,2017_Apr_10_1725,60.0054466919,FEMA4ImagesEEG,001,200144,
AFNE01.JPG,AFNE01.JPG,AFNE01.JPG,AFNE01.JPG,AFNE01.JPG,AFNE01.JPG,,,,,,,,,,,,,2,7,27,6,,,,,,,,,,,AMNE01.jpg,AMNE05.jpg,AMSA04.jpg,AMSA16.jpg,AMNE01.jpg,MN,1,num_8,16,num_8,0.700181827415,,,2017_Apr_10_1725,60.0054466919,FEMA4ImagesEEG,001,200144,
AFNE01.JPG,AFNE01.JPG,AFNE01.JPG,AFNE01.JPG,AFNE01.JPG,AFNE01.JPG,,,,,,,,,,,,,2,8,28,5,,,,,,,,,,,AMSA19.jpg,AMSA15.jpg,AMNE18.jpg,AMNE12.jpg,AMNE18.jpg,MN,1,num_2,32,num_4,0.983369967202,,,2017_Apr_10_1725,60.0054466919,FEMA4ImagesEEG,001,200144,
AFNE01.JPG,AFNE01.JPG,AFNE01.JPG,AFNE01.JPG,AFNE01.JPG,AFNE01.JPG,,,,,,,,,,,,,2,9,29,0,,,,,,,,,,,AMSA13.jpg,AMNE11.jpg,AMNE09.jpg,AMSA09.jpg,AMSA09.jpg,MS,2,num_4,16,num_4,0.61679591937,,,2017_Apr_10_1725,60.0054466919,FEMA4ImagesEEG,001,200144,
AFNE01.JPG,AFNE01.JPG,AFNE01.JPG,AFNE01.JPG,AFNE01.JPG,AFNE01.JPG,,,,,,,,,,,,,3,0,30,3,,,,,,,,,,,AMSA15.jpg,AMNE06.jpg,AMSA05.jpg,AMNE08.jpg,AMSA05.jpg,MS,2,num_2,16,num_2,1.86673746444,,,2017_Apr_10_1725,60.0054466919,FEMA4ImagesEEG,001,200144,
AFNE01.JPG,AFNE01.JPG,AFNE01.JPG,AFNE01.JPG,AFNE01.JPG,AFNE01.JPG,,,,,,,,,,,,,3,1,31,2,,,,,,,,,,,AMNE08.jpg,AMSA19.jpg,AMSA14.jpg,AMNE14.jpg,AMSA14.jpg,MS,2,num_2,16,num_2,1.36674275668,,,2017_Apr_10_1725,60.0054466919,FEMA4ImagesEEG,001,200144,
AFNE01.JPG,AFNE01.JPG,AFNE01.JPG,AFNE01.JPG,AFNE01.JPG,AFNE01.JPG,,,,,,,,,,,,,3,2,32,0,,,,,,,,,,,AMSA05.jpg,AMSA15.jpg,AMNE11.jpg,AMNE12.jpg,AMSA15.jpg,MS,2,num_6,16,num_6,1.11677587312,,,2017_Apr_10_1725,60.0054466919,FEMA4ImagesEEG,001,200144,
AFNE01.JPG,AFNE01.JPG,AFNE01.JPG,AFNE01.JPG,AFNE01.JPG,AFNE01.JPG,,,,,,,,,,,,,3,3,33,5,,,,,,,,,,,AMNE12.jpg,AMNE19.jpg,AMSA05.jpg,AMSA15.jpg,AMSA15.jpg,MS,2,num_4,16,num_4,0.733476532856,,,2017_Apr_10_1725,60.0054466919,FEMA4ImagesEEG,001,200144,
AFNE01.JPG,AFNE01.JPG,AFNE01.JPG,AFNE01.JPG,AFNE01.JPG,AFNE01.JPG,,,,,,,,,,,,,3,4,34,6,,,,,,,,,,,AMNE19.jpg,AMSA03.jpg,AMSA11.jpg,AMNE03.jpg,AMSA11.jpg,MS,2,num_2,16,num_2,1.51671101968,,,2017_Apr_10_1725,60.0054466919,FEMA4ImagesEEG,001,200144,
AFNE01.JPG,AFNE01.JPG,AFNE01.JPG,AFNE01.JPG,AFNE01.JPG,AFNE01.JPG,,,,,,,,,,,,,3,5,35,1,,,,,,,,,,,AMNE02.jpg,AMSA14.jpg,AMNE16.jpg,AMSA20.jpg,AMNE16.jpg,MN,1,num_2,16,num_2,1.88358271378,,,2017_Apr_10_1725,60.0054466919,FEMA4ImagesEEG,001,200144,
AFNE01.JPG,AFNE01.JPG,AFNE01.JPG,AFNE01.JPG,AFNE01.JPG,AFNE01.JPG,,,,,,,,,,,,,3,6,36,9,,,,,,,,,,,AMNE01.jpg,AMSA15.jpg,AMSA20.jpg,AMNE11.jpg,AMNE01.jpg,MN,1,num_8,16,num_8,0.766766748158,,,2017_Apr_10_1725,60.0054466919,FEMA4ImagesEEG,001,200144,
AFNE01.JPG,AFNE01.JPG,AFNE01.JPG,AFNE01.JPG,AFNE01.JPG,AFNE01.JPG,,,,,,,,,,,,,3,7,37,7,,,,,,,,,,,AMSA13.jpg,AMSA09.jpg,AMNE03.jpg,AMNE06.jpg,AMSA13.jpg,MS,2,num_8,32,num_6,0.850107111037,,,2017_Apr_10_1725,60.0054466919,FEMA4ImagesEEG,001,200144,
AFNE01.JPG,AFNE01.JPG,AFNE01.JPG,AFNE01.JPG,AFNE01.JPG,AFNE01.JPG,,,,,,,,,,,,,3,8,38,8,,,,,,,,,,,AMNE01.jpg,AMSA11.jpg,AMSA09.jpg,AMNE13.jpg,AMSA09.jpg,MS,2,num_2,16,num_2,1.51672609453,,,2017_Apr_10_1725,60.0054466919,FEMA4ImagesEEG,001,200144,
AFNE01.JPG,AFNE01.JPG,AFNE01.JPG,AFNE01.JPG,AFNE01.JPG,AFNE01.JPG,,,,,,,,,,,,,3,9,39,4,,,,,,,,,,,AMNE11.jpg,AMNE02.jpg,AMSA10.jpg,AMSA08.jpg,AMSA10.jpg,MS,2,num_2,32,num_4,1.3667478885,,,2017_Apr_10_1725,60.0054466919,FEMA4ImagesEEG,001,200144,
AFNE01.JPG,AFNE01.JPG,AFNE01.JPG,AFNE01.JPG,AFNE01.JPG,AFNE01.JPG,,,,,,,,,,,,,4,0,40,0,,,,,,,,,,,AMNE01.jpg,AMSA05.jpg,AMNE06.jpg,AMSA14.jpg,AMSA14.jpg,MS,2,num_4,16,num_4,0.716793578118,,,2017_Apr_10_1725,60.0054466919,FEMA4ImagesEEG,001,200144,
AFNE01.JPG,AFNE01.JPG,AFNE01.JPG,AFNE01.JPG,AFNE01.JPG,AFNE01.JPG,,,,,,,,,,,,,4,1,41,4,,,,,,,,,,,AMNE06.jpg,AMSA10.jpg,AMSA09.jpg,AMNE18.jpg,AMNE18.jpg,MN,1,num_4,16,num_4,1.48343235115,,,2017_Apr_10_1725,60.0054466919,FEMA4ImagesEEG,001,200144,
AFNE01.JPG,AFNE01.JPG,AFNE01.JPG,AFNE01.JPG,AFNE01.JPG,AFNE01.JPG,,,,,,,,,,,,,4,2,42,8,,,,,,,,,,,AMSA06.jpg,AMNE03.jpg,AMNE12.jpg,AMSA04.jpg,AMNE03.jpg,MN,1,num_6,32,num_8,1.13337992621,,,2017_Apr_10_1725,60.0054466919,FEMA4ImagesEEG,001,200144,
AFNE01.JPG,AFNE01.JPG,AFNE01.JPG,AFNE01.JPG,AFNE01.JPG,AFNE01.JPG,,,,,,,,,,,,,4,3,43,9,,,,,,,,,,,AMNE05.jpg,AMSA02.jpg,AMSA16.jpg,AMNE19.jpg,AMSA16.jpg,MS,2,num_2,32,num_8,0.783433986828,,,2017_Apr_10_1725,60.0054466919,FEMA4ImagesEEG,001,200144,
AFNE01.JPG,AFNE01.JPG,AFNE01.JPG,AFNE01.JPG,AFNE01.JPG,AFNE01.JPG,,,,,,,,,,,,,4,4,44,7,,,,,,,,,,,AMNE14.jpg,AMSA01.jpg,AMNE05.jpg,AMSA20.jpg,AMSA01.jpg,MS,2,num_6,16,num_6,0.483458651695,,,2017_Apr_10_1725,60.0054466919,FEMA4ImagesEEG,001,200144,
AFNE01.JPG,AFNE01.JPG,AFNE01.JPG,AFNE01.JPG,AFNE01.JPG,AFNE01.JPG,,,,,,,,,,,,,4,5,45,2,,,,,,,,,,,AMNE19.jpg,AMSA09.jpg,AMSA17.jpg,AMNE07.jpg,AMSA17.jpg,MS,2,num_2,32,num_6,1.13343541417,,,2017_Apr_10_1725,60.0054466919,FEMA4ImagesEEG,001,200144,
AFNE01.JPG,AFNE01.JPG,AFNE01.JPG,AFNE01.JPG,AFNE01.JPG,AFNE01.JPG,,,,,,,,,,,,,4,6,46,6,,,,,,,,,,,AMSA14.jpg,AMNE18.jpg,AMNE11.jpg,AMSA15.jpg,AMNE11.jpg,MN,1,num_2,32,num_6,1.71669639391,,,2017_Apr_10_1725,60.0054466919,FEMA4ImagesEEG,001,200144,
AFNE01.JPG,AFNE01.JPG,AFNE01.JPG,AFNE01.JPG,AFNE01.JPG,AFNE01.JPG,,,,,,,,,,,,,4,7,47,5,,,,,,,,,,,AMNE01.jpg,AMSA19.jpg,AMNE02.jpg,AMSA06.jpg,AMNE01.jpg,MN,1,num_8,16,num_8,0.833757725311,,,2017_Apr_10_1725,60.0054466919,FEMA4ImagesEEG,001,200144,
AFNE01.JPG,AFNE01.JPG,AFNE01.JPG,AFNE01.JPG,AFNE01.JPG,AFNE01.JPG,,,,,,,,,,,,,4,8,48,1,,,,,,,,,,,AMSA12.jpg,AMNE12.jpg,AMSA06.jpg,AMNE06.jpg,AMSA06.jpg,MS,2,num_2,16,num_2,1.21672189259,,,2017_Apr_10_1725,60.0054466919,FEMA4ImagesEEG,001,200144,
AFNE01.JPG,AFNE01.JPG,AFNE01.JPG,AFNE01.JPG,AFNE01.JPG,AFNE01.JPG,,,,,,,,,,,,,4,9,49,3,,,,,,,,,,,AMSA06.jpg,AMNE07.jpg,AMNE04.jpg,AMSA05.jpg,AMNE07.jpg,MN,1,num_6,16,num_6,1.21676294738,,,2017_Apr_10_1725,60.0054466919,FEMA4ImagesEEG,001,200144,
AFNE01.JPG,AFNE01.JPG,AFNE01.JPG,AFNE01.JPG,AFNE01.JPG,AFNE01.JPG,,,,,,,,,,,,,5,0,50,6,,,,,,,,,,,AMSA10.jpg,AMNE09.jpg,AMSA08.jpg,AMNE03.jpg,AMSA08.jpg,MS,2,num_2,16,num_2,1.00009814627,,,2017_Apr_10_1725,60.0054466919,FEMA4ImagesEEG,001,200144,
AFNE01.JPG,AFNE01.JPG,AFNE01.JPG,AFNE01.JPG,AFNE01.JPG,AFNE01.JPG,,,,,,,,,,,,,5,1,51,0,,,,,,,,,,,AMSA17.jpg,AMNE07.jpg,AMNE04.jpg,AMSA09.jpg,AMSA09.jpg,MS,2,num_4,16,num_4,1.0001677468,,,2017_Apr_10_1725,60.0054466919,FEMA4ImagesEEG,001,200144,
AFNE01.JPG,AFNE01.JPG,AFNE01.JPG,AFNE01.JPG,AFNE01.JPG,AFNE01.JPG,,,,,,,,,,,,,5,2,52,4,,,,,,,,,,,AMSA11.jpg,AMNE07.jpg,AMNE19.jpg,AMSA18.jpg,AMNE07.jpg,MN,1,num_6,16,num_6,0.933463510824,,,2017_Apr_10_1725,60.0054466919,FEMA4ImagesEEG,001,200144,
AFNE01.JPG,AFNE01.JPG,AFNE01.JPG,AFNE01.JPG,AFNE01.JPG,AFNE01.JPG,,,,,,,,,,,,,5,3,53,3,,,,,,,,,,,AMSA15.jpg,AMSA04.jpg,AMNE02.jpg,AMNE16.jpg,AMSA15.jpg,MS,2,num_8,16,num_8,0.950114712585,,,2017_Apr_10_1725,60.0054466919,FEMA4ImagesEEG,001,200144,
AFNE01.JPG,AFNE01.JPG,AFNE01.JPG,AFNE01.JPG,AFNE01.JPG,AFNE01.JPG,,,,,,,,,,,,,5,4,54,1,,,,,,,,,,,AMNE20.jpg,AMNE13.jpg,AMSA12.jpg,AMSA16.jpg,AMSA12.jpg,MS,2,num_2,32,num_6,0.883453455754,,,2017_Apr_10_1725,60.0054466919,FEMA4ImagesEEG,001,200144,
AFNE01.JPG,AFNE01.JPG,AFNE01.JPG,AFNE01.JPG,AFNE01.JPG,AFNE01.JPG,,,,,,,,,,,,,5,5,55,7,,,,,,,,,,,AMNE18.jpg,AMSA13.jpg,AMNE06.jpg,AMSA15.jpg,AMSA13.jpg,MS,2,num_6,32,num_4,0.800064661074,,,2017_Apr_10_1725,60.0054466919,FEMA4ImagesEEG,001,200144,
AFNE01.JPG,AFNE01.JPG,AFNE01.JPG,AFNE01.JPG,AFNE01.JPG,AFNE01.JPG,,,,,,,,,,,,,5,6,56,2,,,,,,,,,,,AMSA08.jpg,AMNE04.jpg,AMSA10.jpg,AMNE09.jpg,AMSA10.jpg,MS,2,num_2,32,num_4,1.10005475045,,,2017_Apr_10_1725,60.0054466919,FEMA4ImagesEEG,001,200144,
AFNE01.JPG,AFNE01.JPG,AFNE01.JPG,AFNE01.JPG,AFNE01.JPG,AFNE01.JPG,,,,,,,,,,,,,5,7,57,8,,,,,,,,,,,AMNE16.jpg,AMNE06.jpg,AMSA12.jpg,AMSA19.jpg,AMSA12.jpg,MS,2,num_2,32,num_6,0.916750727221,,,2017_Apr_10_1725,60.0054466919,FEMA4ImagesEEG,001,200144,
AFNE01.JPG,AFNE01.JPG,AFNE01.JPG,AFNE01.JPG,AFNE01.JPG,AFNE01.JPG,,,,,,,,,,,,,5,8,58,9,,,,,,,,,,,AMNE18.jpg,AMSA12.jpg,AMSA13.jpg,AMNE07.jpg,AMSA12.jpg,MS,2,num_6,16,num_6,1.03346373537,,,2017_Apr_10_1725,60.0054466919,FEMA4ImagesEEG,001,200144,
AFNE01.JPG,AFNE01.JPG,AFNE01.JPG,AFNE01.JPG,AFNE01.JPG,AFNE01.JPG,,,,,,,,,,,,,5,9,59,5,,,,,,,,,,,AMSA13.jpg,AMSA11.jpg,AMNE07.jpg,AMNE09.jpg,AMNE09.jpg,MN,1,num_4,16,num_4,1.28343671304,,,2017_Apr_10_1725,60.0054466919,FEMA4ImagesEEG,001,200144,
,,,,,,,,,,,,,,,,,,,,,,,,,,,,,,,,,,,,,,,,,,,space,2.63335250295,2017_Apr_10_1725,60.0054466919,FEMA4ImagesEEG,001,200144,
AFNE01.JPG,AFNE01.JPG,AFNE01.JPG,AFNE01.JPG,AFNE01.JPG,AFNE01.JPG,,,,,,,,,,,,,,,,,0,0,0,0,,,,,,,AFSA16.jpg,AFNE17.jpg,AFSA14.jpg,AFNE01.jpg,AFNE01.jpg,FN,3,num_4,32,num_8,1.0002745532,,,2017_Apr_10_1725,60.0054466919,FEMA4ImagesEEG,001,200144,
AFNE01.JPG,AFNE01.JPG,AFNE01.JPG,AFNE01.JPG,AFNE01.JPG,AFNE01.JPG,,,,,,,,,,,,,,,,,0,1,1,1,,,,,,,AFNE06.jpg,AFSA01.jpg,AFSA10.jpg,AFNE02.jpg,AFSA10.jpg,FS,4,num_2,16,num_2,1.65000883653,,,2017_Apr_10_1725,60.0054466919,FEMA4ImagesEEG,001,200144,
AFNE01.JPG,AFNE01.JPG,AFNE01.JPG,AFNE01.JPG,AFNE01.JPG,AFNE01.JPG,,,,,,,,,,,,,,,,,0,2,2,2,,,,,,,AFNE03.jpg,AFSA13.jpg,AFSA20.jpg,AFNE05.jpg,AFNE03.jpg,FN,3,num_8,32,num_6,0.683477382874,,,2017_Apr_10_1725,60.0054466919,FEMA4ImagesEEG,001,200144,
AFNE01.JPG,AFNE01.JPG,AFNE01.JPG,AFNE01.JPG,AFNE01.JPG,AFNE01.JPG,,,,,,,,,,,,,,,,,0,3,3,8,,,,,,,AFSA03.jpg,AFNE17.jpg,AFSA07.jpg,AFNE12.jpg,AFNE17.jpg,FN,3,num_6,32,num_4,1.1000897109,,,2017_Apr_10_1725,60.0054466919,FEMA4ImagesEEG,001,200144,
AFNE01.JPG,AFNE01.JPG,AFNE01.JPG,AFNE01.JPG,AFNE01.JPG,AFNE01.JPG,,,,,,,,,,,,,,,,,0,4,4,4,,,,,,,AFNE03.jpg,AFSA01.jpg,AFSA12.jpg,AFNE04.jpg,AFSA12.jpg,FS,4,num_2,32,num_4,1.08342150995,,,2017_Apr_10_1725,60.0054466919,FEMA4ImagesEEG,001,200144,
AFNE01.JPG,AFNE01.JPG,AFNE01.JPG,AFNE01.JPG,AFNE01.JPG,AFNE01.JPG,,,,,,,,,,,,,,,,,0,5,5,6,,,,,,,AFSA09.jpg,AFNE13.jpg,AFSA06.jpg,AFNE03.jpg,AFSA09.jpg,FS,4,num_8,16,num_8,1.56643529562,,,2017_Apr_10_1725,60.0054466919,FEMA4ImagesEEG,001,200144,
AFNE01.JPG,AFNE01.JPG,AFNE01.JPG,AFNE01.JPG,AFNE01.JPG,AFNE01.JPG,,,,,,,,,,,,,,,,,0,6,6,7,,,,,,,AFNE01.jpg,AFNE18.jpg,AFSA16.jpg,AFSA14.jpg,AFSA14.jpg,FS,4,num_4,16,num_4,1.61669584876,,,2017_Apr_10_1725,60.0054466919,FEMA4ImagesEEG,001,200144,
AFNE01.JPG,AFNE01.JPG,AFNE01.JPG,AFNE01.JPG,AFNE01.JPG,AFNE01.JPG,,,,,,,,,,,,,,,,,0,7,7,3,,,,,,,AFSA04.jpg,AFNE06.jpg,AFNE11.jpg,AFSA07.jpg,AFNE11.jpg,FN,3,num_2,16,num_2,1.08344813134,,,2017_Apr_10_1725,60.0054466919,FEMA4ImagesEEG,001,200144,
AFNE01.JPG,AFNE01.JPG,AFNE01.JPG,AFNE01.JPG,AFNE01.JPG,AFNE01.JPG,,,,,,,,,,,,,,,,,0,8,8,9,,,,,,,AFNE20.jpg,AFSA07.jpg,AFNE16.jpg,AFSA12.jpg,AFSA07.jpg,FS,4,num_6,16,num_6,0.917301758192,,,2017_Apr_10_1725,60.0054466919,FEMA4ImagesEEG,001,200144,
AFNE01.JPG,AFNE01.JPG,AFNE01.JPG,AFNE01.JPG,AFNE01.JPG,AFNE01.JPG,,,,,,,,,,,,,,,,,0,9,9,5,,,,,,,AFSA03.jpg,AFNE17.jpg,AFSA17.jpg,AFNE15.jpg,AFSA17.jpg,FS,4,num_2,32,num_6,0.933438493172,,,2017_Apr_10_1725,60.0054466919,FEMA4ImagesEEG,001,200144,
AFNE01.JPG,AFNE01.JPG,AFNE01.JPG,AFNE01.JPG,AFNE01.JPG,AFNE01.JPG,,,,,,,,,,,,,,,,,1,0,10,3,,,,,,,AFNE06.jpg,AFNE11.jpg,AFSA15.jpg,AFSA08.jpg,AFSA15.jpg,FS,4,num_2,16,num_2,1.33339961944,,,2017_Apr_10_1725,60.0054466919,FEMA4ImagesEEG,001,200144,
AFNE01.JPG,AFNE01.JPG,AFNE01.JPG,AFNE01.JPG,AFNE01.JPG,AFNE01.JPG,,,,,,,,,,,,,,,,,1,1,11,8,,,,,,,AFSA13.jpg,AFNE10.jpg,AFSA06.jpg,AFNE06.jpg,AFNE10.jpg,FN,3,num_6,16,num_6,0.483519592322,,,2017_Apr_10_1725,60.0054466919,FEMA4ImagesEEG,001,200144,
AFNE01.JPG,AFNE01.JPG,AFNE01.JPG,AFNE01.JPG,AFNE01.JPG,AFNE01.JPG,,,,,,,,,,,,,,,,,1,2,12,7,,,,,,,AFSA01.jpg,AFNE07.jpg,AFSA17.jpg,AFNE17.jpg,AFNE07.jpg,FN,3,num_6,32,num_4,0.733453439549,,,2017_Apr_10_1725,60.0054466919,FEMA4ImagesEEG,001,200144,
AFNE01.JPG,AFNE01.JPG,AFNE01.JPG,AFNE01.JPG,AFNE01.JPG,AFNE01.JPG,,,,,,,,,,,,,,,,,1,3,13,2,,,,,,,AFNE09.jpg,AFNE14.jpg,AFSA08.jpg,AFSA11.jpg,AFNE14.jpg,FN,3,num_6,16,num_6,0.850098130293,,,2017_Apr_10_1725,60.0054466919,FEMA4ImagesEEG,001,200144,
AFNE01.JPG,AFNE01.JPG,AFNE01.JPG,AFNE01.JPG,AFNE01.JPG,AFNE01.JPG,,,,,,,,,,,,,,,,,1,4,14,0,,,,,,,AFNE08.jpg,AFSA13.jpg,AFSA04.jpg,AFNE06.jpg,AFNE08.jpg,FN,3,num_8,32,num_4,1.36676296336,,,2017_Apr_10_1725,60.0054466919,FEMA4ImagesEEG,001,200144,
AFNE01.JPG,AFNE01.JPG,AFNE01.JPG,AFNE01.JPG,AFNE01.JPG,AFNE01.JPG,,,,,,,,,,,,,,,,,1,5,15,5,,,,,,,AFSA07.jpg,AFNE11.jpg,AFNE15.jpg,AFSA05.jpg,AFSA07.jpg,FS,4,num_8,32,num_4,1.36677547218,,,2017_Apr_10_1725,60.0054466919,FEMA4ImagesEEG,001,200144,
AFNE01.JPG,AFNE01.JPG,AFNE01.JPG,AFNE01.JPG,AFNE01.JPG,AFNE01.JPG,,,,,,,,,,,,,,,,,1,6,16,1,,,,,,,AFSA15.jpg,AFNE19.jpg,AFSA04.jpg,AFNE12.jpg,AFNE19.jpg,FN,3,num_6,16,num_6,0.750165261095,,,2017_Apr_10_1725,60.0054466919,FEMA4ImagesEEG,001,200144,
AFNE01.JPG,AFNE01.JPG,AFNE01.JPG,AFNE01.JPG,AFNE01.JPG,AFNE01.JPG,,,,,,,,,,,,,,,,,1,7,17,4,,,,,,,AFSA18.jpg,AFSA06.jpg,AFNE07.jpg,AFNE02.jpg,AFNE07.jpg,FN,3,num_2,32,num_6,1.55006185453,,,2017_Apr_10_1725,60.0054466919,FEMA4ImagesEEG,001,200144,
AFNE01.JPG,AFNE01.JPG,AFNE01.JPG,AFNE01.JPG,AFNE01.JPG,AFNE01.JPG,,,,,,,,,,,,,,,,,1,8,18,6,,,,,,,AFNE05.jpg,AFNE08.jpg,AFSA13.jpg,AFSA17.jpg,AFSA13.jpg,FS,4,num_2,32,num_4,0.783296389272,,,2017_Apr_10_1725,60.0054466919,FEMA4ImagesEEG,001,200144,
AFNE01.JPG,AFNE01.JPG,AFNE01.JPG,AFNE01.JPG,AFNE01.JPG,AFNE01.JPG,,,,,,,,,,,,,,,,,1,9,19,9,,,,,,,AFSA02.jpg,AFNE03.jpg,AFNE08.jpg,AFSA16.jpg,AFNE08.jpg,FN,3,num_2,32,num_4,1.65012430283,,,2017_Apr_10_1725,60.0054466919,FEMA4ImagesEEG,001,200144,
AFNE01.JPG,AFNE01.JPG,AFNE01.JPG,AFNE01.JPG,AFNE01.JPG,AFNE01.JPG,,,,,,,,,,,,,,,,,2,0,20,3,,,,,,,AFNE10.jpg,AFSA02.jpg,AFSA05.jpg,AFNE17.jpg,AFNE17.jpg,FN,3,num_4,16,num_4,1.16674455302,,,2017_Apr_10_1725,60.0054466919,FEMA4ImagesEEG,001,200144,
AFNE01.JPG,AFNE01.JPG,AFNE01.JPG,AFNE01.JPG,AFNE01.JPG,AFNE01.JPG,,,,,,,,,,,,,,,,,2,1,21,4,,,,,,,AFSA17.jpg,AFNE11.jpg,AFSA01.jpg,AFNE09.jpg,AFNE11.jpg,FN,3,num_6,16,num_6,0.533500139369,,,2017_Apr_10_1725,60.0054466919,FEMA4ImagesEEG,001,200144,
AFNE01.JPG,AFNE01.JPG,AFNE01.JPG,AFNE01.JPG,AFNE01.JPG,AFNE01.JPG,,,,,,,,,,,,,,,,,2,2,22,0,,,,,,,AFNE06.jpg,AFSA19.jpg,AFNE19.jpg,AFSA08.jpg,AFSA19.jpg,FS,4,num_6,32,num_2,1.20010853838,,,2017_Apr_10_1725,60.0054466919,FEMA4ImagesEEG,001,200144,
AFNE01.JPG,AFNE01.JPG,AFNE01.JPG,AFNE01.JPG,AFNE01.JPG,AFNE01.JPG,,,,,,,,,,,,,,,,,2,3,23,7,,,,,,,AFNE17.jpg,AFNE03.jpg,AFSA11.jpg,AFSA03.jpg,AFSA03.jpg,FS,4,num_4,32,num_6,3.2165772391,,,2017_Apr_10_1725,60.0054466919,FEMA4ImagesEEG,001,200144,
AFNE01.JPG,AFNE01.JPG,AFNE01.JPG,AFNE01.JPG,AFNE01.JPG,AFNE01.JPG,,,,,,,,,,,,,,,,,2,4,24,8,,,,,,,AFNE10.jpg,AFSA07.jpg,AFSA02.jpg,AFNE02.jpg,AFSA07.jpg,FS,4,num_6,16,num_6,0.866664656671,,,2017_Apr_10_1725,60.0054466919,FEMA4ImagesEEG,001,200144,
AFNE01.JPG,AFNE01.JPG,AFNE01.JPG,AFNE01.JPG,AFNE01.JPG,AFNE01.JPG,,,,,,,,,,,,,,,,,2,5,25,5,,,,,,,AFSA09.jpg,AFNE05.jpg,AFSA06.jpg,AFNE04.jpg,AFSA06.jpg,FS,4,num_2,32,num_6,1.26670308132,,,2017_Apr_10_1725,60.0054466919,FEMA4ImagesEEG,001,200144,
AFNE01.JPG,AFNE01.JPG,AFNE01.JPG,AFNE01.JPG,AFNE01.JPG,AFNE01.JPG,,,,,,,,,,,,,,,,,2,6,26,9,,,,,,,AFSA18.jpg,AFNE03.jpg,AFNE12.jpg,AFSA02.jpg,AFNE12.jpg,FN,3,num_2,16,num_2,1.49978783075,,,2017_Apr_10_1725,60.0054466919,FEMA4ImagesEEG,001,200144,
AFNE01.JPG,AFNE01.JPG,AFNE01.JPG,AFNE01.JPG,AFNE01.JPG,AFNE01.JPG,,,,,,,,,,,,,,,,,2,7,27,1,,,,,,,AFNE15.jpg,AFSA14.jpg,AFSA05.jpg,AFNE19.jpg,AFNE15.jpg,FN,3,num_8,16,num_8,0.766810368747,,,2017_Apr_10_1725,60.0054466919,FEMA4ImagesEEG,001,200144,
AFNE01.JPG,AFNE01.JPG,AFNE01.JPG,AFNE01.JPG,AFNE01.JPG,AFNE01.JPG,,,,,,,,,,,,,,,,,2,8,28,6,,,,,,,AFNE02.jpg,AFSA03.jpg,AFNE17.jpg,AFSA10.jpg,AFNE17.jpg,FN,3,num_2,16,num_2,1.43343223864,,,2017_Apr_10_1725,60.0054466919,FEMA4ImagesEEG,001,200144,
AFNE01.JPG,AFNE01.JPG,AFNE01.JPG,AFNE01.JPG,AFNE01.JPG,AFNE01.JPG,,,,,,,,,,,,,,,,,2,9,29,2,,,,,,,AFSA03.jpg,AFNE14.jpg,AFSA04.jpg,AFNE18.jpg,AFNE14.jpg,FN,3,num_6,32,num_8,1.14985824912,,,2017_Apr_10_1725,60.0054466919,FEMA4ImagesEEG,001,200144,
AFNE01.JPG,AFNE01.JPG,AFNE01.JPG,AFNE01.JPG,AFNE01.JPG,AFNE01.JPG,,,,,,,,,,,,,,,,,3,0,30,8,,,,,,,AFSA08.jpg,AFNE06.jpg,AFSA04.jpg,AFNE17.jpg,AFNE06.jpg,FN,3,num_6,16,num_6,1.15007057879,,,2017_Apr_10_1725,60.0054466919,FEMA4ImagesEEG,001,200144,
AFNE01.JPG,AFNE01.JPG,AFNE01.JPG,AFNE01.JPG,AFNE01.JPG,AFNE01.JPG,,,,,,,,,,,,,,,,,3,1,31,5,,,,,,,AFSA04.jpg,AFNE09.jpg,AFSA20.jpg,AFNE16.jpg,AFSA20.jpg,FS,4,num_2,16,num_2,1.0333328736,,,2017_Apr_10_1725,60.0054466919,FEMA4ImagesEEG,001,200144,
AFNE01.JPG,AFNE01.JPG,AFNE01.JPG,AFNE01.JPG,AFNE01.JPG,AFNE01.JPG,,,,,,,,,,,,,,,,,3,2,32,9,,,,,,,AFSA14.jpg,AFSA17.jpg,AFNE17.jpg,AFNE03.jpg,AFSA14.jpg,FS,4,num_8,32,num_2,1.61673850683,,,2017_Apr_10_1725,60.0054466919,FEMA4ImagesEEG,001,200144,
AFNE01.JPG,AFNE01.JPG,AFNE01.JPG,AFNE01.JPG,AFNE01.JPG,AFNE01.JPG,,,,,,,,,,,,,,,,,3,3,33,3,,,,,,,AFNE17.jpg,AFSA12.jpg,AFNE12.jpg,AFSA14.jpg,AFSA12.jpg,FS,4,num_6,16,num_6,1.30007668887,,,2017_Apr_10_1725,60.0054466919,FEMA4ImagesEEG,001,200144,
AFNE01.JPG,AFNE01.JPG,AFNE01.JPG,AFNE01.JPG,AFNE01.JPG,AFNE01.JPG,,,,,,,,,,,,,,,,,3,4,34,2,,,,,,,AFSA18.jpg,AFNE09.jpg,AFNE05.jpg,AFSA04.jpg,AFSA04.jpg,FS,4,num_4,16,num_4,0.783594356617,,,2017_Apr_10_1725,60.0054466919,FEMA4ImagesEEG,001,200144,
AFNE01.JPG,AFNE01.JPG,AFNE01.JPG,AFNE01.JPG,AFNE01.JPG,AFNE01.JPG,,,,,,,,,,,,,,,,,3,5,35,7,,,,,,,AFNE12.jpg,AFSA02.jpg,AFNE05.jpg,AFSA20.jpg,AFSA02.jpg,FS,4,num_6,16,num_6,0.783406723989,,,2017_Apr_10_1725,60.0054466919,FEMA4ImagesEEG,001,200144,
AFNE01.JPG,AFNE01.JPG,AFNE01.JPG,AFNE01.JPG,AFNE01.JPG,AFNE01.JPG,,,,,,,,,,,,,,,,,3,6,36,4,,,,,,,AFSA10.jpg,AFNE01.jpg,AFNE14.jpg,AFSA03.jpg,AFNE01.jpg,FN,3,num_6,16,num_6,1.88352241484,,,2017_Apr_10_1725,60.0054466919,FEMA4ImagesEEG,001,200144,
AFNE01.JPG,AFNE01.JPG,AFNE01.JPG,AFNE01.JPG,AFNE01.JPG,AFNE01.JPG,,,,,,,,,,,,,,,,,3,7,37,6,,,,,,,AFSA04.jpg,AFNE07.jpg,AFNE10.jpg,AFSA11.jpg,AFNE07.jpg,FN,3,num_6,16,num_6,2.1499798093,,,2017_Apr_10_1725,60.0054466919,FEMA4ImagesEEG,001,200144,
AFNE01.JPG,AFNE01.JPG,AFNE01.JPG,AFNE01.JPG,AFNE01.JPG,AFNE01.JPG,,,,,,,,,,,,,,,,,3,8,38,0,,,,,,,AFNE06.jpg,AFNE20.jpg,AFSA14.jpg,AFSA15.jpg,AFNE20.jpg,FN,3,num_6,16,num_6,0.900090544717,,,2017_Apr_10_1725,60.0054466919,FEMA4ImagesEEG,001,200144,
AFNE01.JPG,AFNE01.JPG,AFNE01.JPG,AFNE01.JPG,AFNE01.JPG,AFNE01.JPG,,,,,,,,,,,,,,,,,3,9,39,1,,,,,,,AFSA05.jpg,AFNE10.jpg,AFNE01.jpg,AFSA07.jpg,AFSA07.jpg,FS,4,num_4,32,num_8,1.33373607555,,,2017_Apr_10_1725,60.0054466919,FEMA4ImagesEEG,001,200144,
AFNE01.JPG,AFNE01.JPG,AFNE01.JPG,AFNE01.JPG,AFNE01.JPG,AFNE01.JPG,,,,,,,,,,,,,,,,,4,0,40,4,,,,,,,AFNE02.jpg,AFSA06.jpg,AFSA02.jpg,AFNE19.jpg,AFSA02.jpg,FS,4,num_2,32,num_6,1.80003258702,,,2017_Apr_10_1725,60.0054466919,FEMA4ImagesEEG,001,200144,
AFNE01.JPG,AFNE01.JPG,AFNE01.JPG,AFNE01.JPG,AFNE01.JPG,AFNE01.JPG,,,,,,,,,,,,,,,,,4,1,41,5,,,,,,,AFSA08.jpg,AFNE18.jpg,AFNE19.jpg,AFSA03.jpg,AFSA03.jpg,FS,4,num_4,16,num_4,2.06673181965,,,2017_Apr_10_1725,60.0054466919,FEMA4ImagesEEG,001,200144,
AFNE01.JPG,AFNE01.JPG,AFNE01.JPG,AFNE01.JPG,AFNE01.JPG,AFNE01.JPG,,,,,,,,,,,,,,,,,4,2,42,8,,,,,,,AFNE13.jpg,AFSA02.jpg,AFNE11.jpg,AFSA07.jpg,AFNE11.jpg,FN,3,num_2,16,num_2,1.23340324382,,,2017_Apr_10_1725,60.0054466919,FEMA4ImagesEEG,001,200144,
AFNE01.JPG,AFNE01.JPG,AFNE01.JPG,AFNE01.JPG,AFNE01.JPG,AFNE01.JPG,,,,,,,,,,,,,,,,,4,3,43,2,,,,,,,AFNE19.jpg,AFNE08.jpg,AFSA10.jpg,AFSA14.jpg,AFSA14.jpg,FS,4,num_4,32,num_8,0.800146128982,,,2017_Apr_10_1725,60.0054466919,FEMA4ImagesEEG,001,200144,
AFNE01.JPG,AFNE01.JPG,AFNE01.JPG,AFNE01.JPG,AFNE01.JPG,AFNE01.JPG,,,,,,,,,,,,,,,,,4,4,44,0,,,,,,,AFNE01.jpg,AFSA17.jpg,AFSA16.jpg,AFNE15.jpg,AFSA17.jpg,FS,4,num_6,16,num_6,0.733485192759,,,2017_Apr_10_1725,60.0054466919,FEMA4ImagesEEG,001,200144,
AFNE01.JPG,AFNE01.JPG,AFNE01.JPG,AFNE01.JPG,AFNE01.JPG,AFNE01.JPG,,,,,,,,,,,,,,,,,4,5,45,6,,,,,,,AFSA11.jpg,AFNE17.jpg,AFNE12.jpg,AFSA19.jpg,AFNE17.jpg,FN,3,num_6,32,num_4,1.03342845407,,,2017_Apr_10_1725,60.0054466919,FEMA4ImagesEEG,001,200144,
AFNE01.JPG,AFNE01.JPG,AFNE01.JPG,AFNE01.JPG,AFNE01.JPG,AFNE01.JPG,,,,,,,,,,,,,,,,,4,6,46,1,,,,,,,AFNE10.jpg,AFNE13.jpg,AFSA02.jpg,AFSA17.jpg,AFSA02.jpg,FS,4,num_2,32,num_6,0.883440626087,,,2017_Apr_10_1725,60.0054466919,FEMA4ImagesEEG,001,200144,
AFNE01.JPG,AFNE01.JPG,AFNE01.JPG,AFNE01.JPG,AFNE01.JPG,AFNE01.JPG,,,,,,,,,,,,,,,,,4,7,47,7,,,,,,,AFNE02.jpg,AFSA14.jpg,AFSA08.jpg,AFNE13.jpg,AFSA14.jpg,FS,4,num_6,32,num_4,1.13317561476,,,2017_Apr_10_1725,60.0054466919,FEMA4ImagesEEG,001,200144,
AFNE01.JPG,AFNE01.JPG,AFNE01.JPG,AFNE01.JPG,AFNE01.JPG,AFNE01.JPG,,,,,,,,,,,,,,,,,4,8,48,3,,,,,,,AFNE11.jpg,AFSA03.jpg,AFSA13.jpg,AFNE17.jpg,AFSA13.jpg,FS,4,num_2,16,num_2,1.91669684276,,,2017_Apr_10_1725,60.0054466919,FEMA4ImagesEEG,001,200144,
AFNE01.JPG,AFNE01.JPG,AFNE01.JPG,AFNE01.JPG,AFNE01.JPG,AFNE01.JPG,,,,,,,,,,,,,,,,,4,9,49,9,,,,,,,AFNE07.jpg,AFNE12.jpg,AFSA17.jpg,AFSA06.jpg,AFSA06.jpg,FS,4,num_4,16,num_4,1.01682760846,,,2017_Apr_10_1725,60.0054466919,FEMA4ImagesEEG,001,200144,
AFNE01.JPG,AFNE01.JPG,AFNE01.JPG,AFNE01.JPG,AFNE01.JPG,AFNE01.JPG,,,,,,,,,,,,,,,,,5,0,50,3,,,,,,,AFSA12.jpg,AFNE10.jpg,AFSA07.jpg,AFNE06.jpg,AFSA12.jpg,FS,4,num_8,32,num_6,0.733498664107,,,2017_Apr_10_1725,60.0054466919,FEMA4ImagesEEG,001,200144,
AFNE01.JPG,AFNE01.JPG,AFNE01.JPG,AFNE01.JPG,AFNE01.JPG,AFNE01.JPG,,,,,,,,,,,,,,,,,5,1,51,6,,,,,,,AFSA11.jpg,AFNE01.jpg,AFNE03.jpg,AFSA10.jpg,AFNE03.jpg,FN,3,num_2,32,num_6,1.06709746295,,,2017_Apr_10_1725,60.0054466919,FEMA4ImagesEEG,001,200144,
AFNE01.JPG,AFNE01.JPG,AFNE01.JPG,AFNE01.JPG,AFNE01.JPG,AFNE01.JPG,,,,,,,,,,,,,,,,,5,2,52,4,,,,,,,AFNE16.jpg,AFSA05.jpg,AFSA20.jpg,AFNE04.jpg,AFNE04.jpg,FN,3,num_4,32,num_8,0.90012069419,,,2017_Apr_10_1725,60.0054466919,FEMA4ImagesEEG,001,200144,
AFNE01.JPG,AFNE01.JPG,AFNE01.JPG,AFNE01.JPG,AFNE01.JPG,AFNE01.JPG,,,,,,,,,,,,,,,,,5,3,53,9,,,,,,,AFSA16.jpg,AFNE16.jpg,AFNE20.jpg,AFSA20.jpg,AFNE20.jpg,FN,3,num_2,16,num_2,1.80005535949,,,2017_Apr_10_1725,60.0054466919,FEMA4ImagesEEG,001,200144,
AFNE01.JPG,AFNE01.JPG,AFNE01.JPG,AFNE01.JPG,AFNE01.JPG,AFNE01.JPG,,,,,,,,,,,,,,,,,5,4,54,0,,,,,,,AFNE16.jpg,AFSA03.jpg,AFNE12.jpg,AFSA18.jpg,AFNE16.jpg,FN,3,num_8,16,num_8,0.899943004595,,,2017_Apr_10_1725,60.0054466919,FEMA4ImagesEEG,001,200144,
AFNE01.JPG,AFNE01.JPG,AFNE01.JPG,AFNE01.JPG,AFNE01.JPG,AFNE01.JPG,,,,,,,,,,,,,,,,,5,5,55,7,,,,,,,AFSA19.jpg,AFSA16.jpg,AFNE13.jpg,AFNE02.jpg,AFSA16.jpg,FS,4,num_6,16,num_6,0.833451418905,,,2017_Apr_10_1725,60.0054466919,FEMA4ImagesEEG,001,200144,
AFNE01.JPG,AFNE01.JPG,AFNE01.JPG,AFNE01.JPG,AFNE01.JPG,AFNE01.JPG,,,,,,,,,,,,,,,,,5,6,56,1,,,,,,,AFNE12.jpg,AFSA19.jpg,AFSA01.jpg,AFNE06.jpg,AFNE06.jpg,FN,3,num_4,32,num_2,1.58341782168,,,2017_Apr_10_1725,60.0054466919,FEMA4ImagesEEG,001,200144,
AFNE01.JPG,AFNE01.JPG,AFNE01.JPG,AFNE01.JPG,AFNE01.JPG,AFNE01.JPG,,,,,,,,,,,,,,,,,5,7,57,8,,,,,,,AFSA11.jpg,AFSA14.jpg,AFNE14.jpg,AFNE04.jpg,AFSA11.jpg,FS,4,num_8,16,num_8,1.05007452378,,,2017_Apr_10_1725,60.0054466919,FEMA4ImagesEEG,001,200144,
AFNE01.JPG,AFNE01.JPG,AFNE01.JPG,AFNE01.JPG,AFNE01.JPG,AFNE01.JPG,,,,,,,,,,,,,,,,,5,8,58,5,,,,,,,AFNE17.jpg,AFSA13.jpg,AFNE19.jpg,AFSA20.jpg,AFNE19.jpg,FN,3,num_2,16,num_2,1.43342710705,,,2017_Apr_10_1725,60.0054466919,FEMA4ImagesEEG,001,200144,
AFNE01.JPG,AFNE01.JPG,AFNE01.JPG,AFNE01.JPG,AFNE01.JPG,AFNE01.JPG,,,,,,,,,,,,,,,,,5,9,59,2,,,,,,,AFSA16.jpg,AFNE11.jpg,AFSA08.jpg,AFNE09.jpg,AFNE09.jpg,FN,3,num_4,16,num_4,0.716873763129,,,2017_Apr_10_1725,60.0054466919,FEMA4ImagesEEG,001,200144,
,,,,,,,,,,,,,,,,,,,,,,,,,,,,,,,,,,,,,,,,,,,space,5.36645344947,2017_Apr_10_1725,60.0054466919,FEMA4ImagesEEG,001,200144,
AFNE01.JPG,AFNE01.JPG,AFNE01.JPG,AFNE01.JPG,AFNE01.JPG,AFNE01.JPG,,,,,,,,,,,,,,,,,,,,,0,0,0,6,,,AMSA14.jpg,AMSA12.jpg,AMNE08.jpg,AMNE09.jpg,AMNE09.jpg,MN,1,num_4,16,num_4,0.600154339802,,,2017_Apr_10_1725,60.0054466919,FEMA4ImagesEEG,001,200144,
AFNE01.JPG,AFNE01.JPG,AFNE01.JPG,AFNE01.JPG,AFNE01.JPG,AFNE01.JPG,,,,,,,,,,,,,,,,,,,,,0,1,1,8,,,AMNE19.jpg,AMSA09.jpg,AMSA10.jpg,AMNE08.jpg,AMSA10.jpg,MS,2,num_2,32,num_4,0.716906157555,,,2017_Apr_10_1725,60.0054466919,FEMA4ImagesEEG,001,200144,
AFNE01.JPG,AFNE01.JPG,AFNE01.JPG,AFNE01.JPG,AFNE01.JPG,AFNE01.JPG,,,,,,,,,,,,,,,,,,,,,0,2,2,1,,,AMSA01.jpg,AMNE07.jpg,AMNE19.jpg,AMSA07.jpg,AMNE07.jpg,MN,1,num_6,16,num_6,0.51681654295,,,2017_Apr_10_1725,60.0054466919,FEMA4ImagesEEG,001,200144,
AFNE01.JPG,AFNE01.JPG,AFNE01.JPG,AFNE01.JPG,AFNE01.JPG,AFNE01.JPG,,,,,,,,,,,,,,,,,,,,,0,3,3,7,,,AMSA04.jpg,AMNE18.jpg,AMNE17.jpg,AMSA10.jpg,AMSA10.jpg,MS,2,num_4,16,num_4,0.950099316891,,,2017_Apr_10_1725,60.0054466919,FEMA4ImagesEEG,001,200144,
AFNE01.JPG,AFNE01.JPG,AFNE01.JPG,AFNE01.JPG,AFNE01.JPG,AFNE01.JPG,,,,,,,,,,,,,,,,,,,,,0,4,4,0,,,AMSA07.jpg,AMSA01.jpg,AMNE17.jpg,AMNE11.jpg,AMNE11.jpg,MN,1,num_4,32,num_2,1.45009562839,,,2017_Apr_10_1725,60.0054466919,FEMA4ImagesEEG,001,200144,
AFNE01.JPG,AFNE01.JPG,AFNE01.JPG,AFNE01.JPG,AFNE01.JPG,AFNE01.JPG,,,,,,,,,,,,,,,,,,,,,0,5,5,4,,,AMNE12.jpg,AMSA09.jpg,AMNE05.jpg,AMSA18.jpg,AMNE12.jpg,MN,1,num_8,32,num_2,1.43339246698,,,2017_Apr_10_1725,60.0054466919,FEMA4ImagesEEG,001,200144,
AFNE01.JPG,AFNE01.JPG,AFNE01.JPG,AFNE01.JPG,AFNE01.JPG,AFNE01.JPG,,,,,,,,,,,,,,,,,,,,,0,6,6,2,,,AMNE13.jpg,AMNE16.jpg,AMSA18.jpg,AMSA06.jpg,AMNE16.jpg,MN,1,num_6,16,num_6,0.850095243659,,,2017_Apr_10_1725,60.0054466919,FEMA4ImagesEEG,001,200144,
AFNE01.JPG,AFNE01.JPG,AFNE01.JPG,AFNE01.JPG,AFNE01.JPG,AFNE01.JPG,,,,,,,,,,,,,,,,,,,,,0,7,7,3,,,AMSA12.jpg,AMNE11.jpg,AMSA04.jpg,AMNE09.jpg,AMSA04.jpg,MS,2,num_2,32,num_8,0.950198746519,,,2017_Apr_10_1725,60.0054466919,FEMA4ImagesEEG,001,200144,
AFNE01.JPG,AFNE01.JPG,AFNE01.JPG,AFNE01.JPG,AFNE01.JPG,AFNE01.JPG,,,,,,,,,,,,,,,,,,,,,0,8,8,5,,,AMNE08.jpg,AMSA06.jpg,AMNE17.jpg,AMSA20.jpg,AMNE08.jpg,MN,1,num_8,32,num_6,0.683516833931,,,2017_Apr_10_1725,60.0054466919,FEMA4ImagesEEG,001,200144,
AFNE01.JPG,AFNE01.JPG,AFNE01.JPG,AFNE01.JPG,AFNE01.JPG,AFNE01.JPG,,,,,,,,,,,,,,,,,,,,,0,9,9,9,,,AMNE07.jpg,AMSA13.jpg,AMSA19.jpg,AMNE18.jpg,AMNE07.jpg,MN,1,num_8,16,num_8,0.783436552854,,,2017_Apr_10_1725,60.0054466919,FEMA4ImagesEEG,001,200144,
AFNE01.JPG,AFNE01.JPG,AFNE01.JPG,AFNE01.JPG,AFNE01.JPG,AFNE01.JPG,,,,,,,,,,,,,,,,,,,,,1,0,10,5,,,AMSA02.jpg,AMNE06.jpg,AMSA15.jpg,AMNE20.jpg,AMSA02.jpg,MS,2,num_8,16,num_8,0.90015373053,,,2017_Apr_10_1725,60.0054466919,FEMA4ImagesEEG,001,200144,
AFNE01.JPG,AFNE01.JPG,AFNE01.JPG,AFNE01.JPG,AFNE01.JPG,AFNE01.JPG,,,,,,,,,,,,,,,,,,,,,1,1,11,6,,,AMNE15.jpg,AMSA01.jpg,AMNE14.jpg,AMSA08.jpg,AMSA08.jpg,MS,2,num_4,16,num_4,1.31696972833,,,2017_Apr_10_1725,60.0054466919,FEMA4ImagesEEG,001,200144,
AFNE01.JPG,AFNE01.JPG,AFNE01.JPG,AFNE01.JPG,AFNE01.JPG,AFNE01.JPG,,,,,,,,,,,,,,,,,,,,,1,2,12,1,,,AMSA08.jpg,AMSA18.jpg,AMNE19.jpg,AMNE15.jpg,AMNE15.jpg,MN,1,num_4,16,num_4,1.20039463812,,,2017_Apr_10_1725,60.0054466919,FEMA4ImagesEEG,001,200144,
AFNE01.JPG,AFNE01.JPG,AFNE01.JPG,AFNE01.JPG,AFNE01.JPG,AFNE01.JPG,,,,,,,,,,,,,,,,,,,,,1,3,13,8,,,AMNE18.jpg,AMNE20.jpg,AMSA04.jpg,AMSA11.jpg,AMSA11.jpg,MS,2,num_4,16,num_4,1.23343852535,,,2017_Apr_10_1725,60.0054466919,FEMA4ImagesEEG,001,200144,
AFNE01.JPG,AFNE01.JPG,AFNE01.JPG,AFNE01.JPG,AFNE01.JPG,AFNE01.JPG,,,,,,,,,,,,,,,,,,,,,1,4,14,3,,,AMSA18.jpg,AMNE05.jpg,AMNE04.jpg,AMSA15.jpg,AMSA18.jpg,MS,2,num_8,16,num_8,0.683539927006,,,2017_Apr_10_1725,60.0054466919,FEMA4ImagesEEG,001,200144,
AFNE01.JPG,AFNE01.JPG,AFNE01.JPG,AFNE01.JPG,AFNE01.JPG,AFNE01.JPG,,,,,,,,,,,,,,,,,,,,,1,5,15,0,,,AMNE13.jpg,AMSA03.jpg,AMSA07.jpg,AMNE06.jpg,AMNE06.jpg,MN,1,num_4,16,num_4,1.01676570554,,,2017_Apr_10_1725,60.0054466919,FEMA4ImagesEEG,001,200144,
AFNE01.JPG,AFNE01.JPG,AFNE01.JPG,AFNE01.JPG,AFNE01.JPG,AFNE01.JPG,,,,,,,,,,,,,,,,,,,,,1,6,16,9,,,AMSA01.jpg,AMSA16.jpg,AMNE12.jpg,AMNE03.jpg,AMNE12.jpg,MN,1,num_2,16,num_2,1.25006342633,,,2017_Apr_10_1725,60.0054466919,FEMA4ImagesEEG,001,200144,
AFNE01.JPG,AFNE01.JPG,AFNE01.JPG,AFNE01.JPG,AFNE01.JPG,AFNE01.JPG,,,,,,,,,,,,,,,,,,,,,1,7,17,7,,,AMSA07.jpg,AMSA15.jpg,AMNE06.jpg,AMNE19.jpg,AMSA15.jpg,MS,2,num_6,16,num_6,0.733488079393,,,2017_Apr_10_1725,60.0054466919,FEMA4ImagesEEG,001,200144,
AFNE01.JPG,AFNE01.JPG,AFNE01.JPG,AFNE01.JPG,AFNE01.JPG,AFNE01.JPG,,,,,,,,,,,,,,,,,,,,,1,8,18,4,,,AMSA16.jpg,AMNE12.jpg,AMNE18.jpg,AMSA09.jpg,AMNE18.jpg,MN,1,num_2,16,num_2,1.083453584,,,2017_Apr_10_1725,60.0054466919,FEMA4ImagesEEG,001,200144,
AFNE01.JPG,AFNE01.JPG,AFNE01.JPG,AFNE01.JPG,AFNE01.JPG,AFNE01.JPG,,,,,,,,,,,,,,,,,,,,,1,9,19,2,,,AMSA03.jpg,AMNE18.jpg,AMSA10.jpg,AMNE08.jpg,AMSA10.jpg,MS,2,num_2,32,num_4,1.83334268816,,,2017_Apr_10_1725,60.0054466919,FEMA4ImagesEEG,001,200144,
AFNE01.JPG,AFNE01.JPG,AFNE01.JPG,AFNE01.JPG,AFNE01.JPG,AFNE01.JPG,,,,,,,,,,,,,,,,,,,,,2,0,20,4,,,AMNE13.jpg,AMNE12.jpg,AMSA15.jpg,AMSA11.jpg,AMNE12.jpg,MN,1,num_6,16,num_6,1.25010961271,,,2017_Apr_10_1725,60.0054466919,FEMA4ImagesEEG,001,200144,
AFNE01.JPG,AFNE01.JPG,AFNE01.JPG,AFNE01.JPG,AFNE01.JPG,AFNE01.JPG,,,,,,,,,,,,,,,,,,,,,2,1,21,6,,,AMSA18.jpg,AMNE14.jpg,AMSA03.jpg,AMNE06.jpg,AMSA03.jpg,MS,2,num_2,32,num_8,1.10039024404,,,2017_Apr_10_1725,60.0054466919,FEMA4ImagesEEG,001,200144,
AFNE01.JPG,AFNE01.JPG,AFNE01.JPG,AFNE01.JPG,AFNE01.JPG,AFNE01.JPG,,,,,,,,,,,,,,,,,,,,,2,2,22,8,,,AMNE16.jpg,AMNE11.jpg,AMSA01.jpg,AMSA08.jpg,AMSA08.jpg,MS,2,num_4,16,num_4,1.18341852701,,,2017_Apr_10_1725,60.0054466919,FEMA4ImagesEEG,001,200144,
AFNE01.JPG,AFNE01.JPG,AFNE01.JPG,AFNE01.JPG,AFNE01.JPG,AFNE01.JPG,,,,,,,,,,,,,,,,,,,,,2,3,23,1,,,AMSA17.jpg,AMSA16.jpg,AMNE13.jpg,AMNE20.jpg,AMNE13.jpg,MN,1,num_2,16,num_2,1.31686163903,,,2017_Apr_10_1725,60.0054466919,FEMA4ImagesEEG,001,200144,
AFNE01.JPG,AFNE01.JPG,AFNE01.JPG,AFNE01.JPG,AFNE01.JPG,AFNE01.JPG,,,,,,,,,,,,,,,,,,,,,2,4,24,5,,,AMNE01.jpg,AMSA04.jpg,AMSA20.jpg,AMNE16.jpg,AMNE01.jpg,MN,1,num_8,32,num_6,1.00006061979,,,2017_Apr_10_1725,60.0054466919,FEMA4ImagesEEG,001,200144,
AFNE01.JPG,AFNE01.JPG,AFNE01.JPG,AFNE01.JPG,AFNE01.JPG,AFNE01.JPG,,,,,,,,,,,,,,,,,,,,,2,5,25,2,,,AMSA06.jpg,AMNE09.jpg,AMSA07.jpg,AMNE15.jpg,AMSA06.jpg,MS,2,num_8,32,num_4,1.21675749496,,,2017_Apr_10_1725,60.0054466919,FEMA4ImagesEEG,001,200144,
AFNE01.JPG,AFNE01.JPG,AFNE01.JPG,AFNE01.JPG,AFNE01.JPG,AFNE01.JPG,,,,,,,,,,,,,,,,,,,,,2,6,26,0,,,AMNE01.jpg,AMSA16.jpg,AMNE02.jpg,AMSA10.jpg,AMNE02.jpg,MN,1,num_2,32,num_8,0.666757222032,,,2017_Apr_10_1725,60.0054466919,FEMA4ImagesEEG,001,200144,
AFNE01.JPG,AFNE01.JPG,AFNE01.JPG,AFNE01.JPG,AFNE01.JPG,AFNE01.JPG,,,,,,,,,,,,,,,,,,,,,2,7,27,3,,,AMNE15.jpg,AMSA03.jpg,AMSA08.jpg,AMNE08.jpg,AMNE08.jpg,MN,1,num_4,16,num_4,0.850177353015,,,2017_Apr_10_1725,60.0054466919,FEMA4ImagesEEG,001,200144,
AFNE01.JPG,AFNE01.JPG,AFNE01.JPG,AFNE01.JPG,AFNE01.JPG,AFNE01.JPG,,,,,,,,,,,,,,,,,,,,,2,8,28,7,,,AMNE18.jpg,AMSA05.jpg,AMSA12.jpg,AMNE10.jpg,AMNE10.jpg,MN,1,num_4,32,num_8,0.700154885184,,,2017_Apr_10_1725,60.0054466919,FEMA4ImagesEEG,001,200144,
AFNE01.JPG,AFNE01.JPG,AFNE01.JPG,AFNE01.JPG,AFNE01.JPG,AFNE01.JPG,,,,,,,,,,,,,,,,,,,,,2,9,29,9,,,AMNE06.jpg,AMSA17.jpg,AMSA09.jpg,AMNE08.jpg,AMNE08.jpg,MN,1,num_4,16,num_4,0.900098563172,,,2017_Apr_10_1725,60.0054466919,FEMA4ImagesEEG,001,200144,
AFNE01.JPG,AFNE01.JPG,AFNE01.JPG,AFNE01.JPG,AFNE01.JPG,AFNE01.JPG,,,,,,,,,,,,,,,,,,,,,3,0,30,2,,,AMNE04.jpg,AMSA11.jpg,AMNE17.jpg,AMSA20.jpg,AMNE17.jpg,MN,1,num_2,16,num_2,1.86683208286,,,2017_Apr_10_1725,60.0054466919,FEMA4ImagesEEG,001,200144,
AFNE01.JPG,AFNE01.JPG,AFNE01.JPG,AFNE01.JPG,AFNE01.JPG,AFNE01.JPG,,,,,,,,,,,,,,,,,,,,,3,1,31,0,,,AMSA12.jpg,AMNE18.jpg,AMSA15.jpg,AMNE07.jpg,AMSA15.jpg,MS,2,num_2,32,num_6,0.91677285824,,,2017_Apr_10_1725,60.0054466919,FEMA4ImagesEEG,001,200144,
AFNE01.JPG,AFNE01.JPG,AFNE01.JPG,AFNE01.JPG,AFNE01.JPG,AFNE01.JPG,,,,,,,,,,,,,,,,,,,,,3,2,32,3,,,AMNE16.jpg,AMNE11.jpg,AMSA04.jpg,AMSA05.jpg,AMSA05.jpg,MS,2,num_4,16,num_4,3.8335521312,,,2017_Apr_10_1725,60.0054466919,FEMA4ImagesEEG,001,200144,
AFNE01.JPG,AFNE01.JPG,AFNE01.JPG,AFNE01.JPG,AFNE01.JPG,AFNE01.JPG,,,,,,,,,,,,,,,,,,,,,3,3,33,8,,,AMSA02.jpg,AMSA16.jpg,AMNE19.jpg,AMNE13.jpg,AMSA16.jpg,MS,2,num_6,16,num_6,0.533561079996,,,2017_Apr_10_1725,60.0054466919,FEMA4ImagesEEG,001,200144,
AFNE01.JPG,AFNE01.JPG,AFNE01.JPG,AFNE01.JPG,AFNE01.JPG,AFNE01.JPG,,,,,,,,,,,,,,,,,,,,,3,4,34,4,,,AMNE03.jpg,AMNE11.jpg,AMSA02.jpg,AMSA08.jpg,AMSA02.jpg,MS,2,num_2,16,num_2,0.766774766613,,,2017_Apr_10_1725,60.0054466919,FEMA4ImagesEEG,001,200144,
AFNE01.JPG,AFNE01.JPG,AFNE01.JPG,AFNE01.JPG,AFNE01.JPG,AFNE01.JPG,,,,,,,,,,,,,,,,,,,,,3,5,35,9,,,AMNE13.jpg,AMSA04.jpg,AMNE14.jpg,AMSA10.jpg,AMNE13.jpg,MN,1,num_8,16,num_8,0.783539189491,,,2017_Apr_10_1725,60.0054466919,FEMA4ImagesEEG,001,200144,
AFNE01.JPG,AFNE01.JPG,AFNE01.JPG,AFNE01.JPG,AFNE01.JPG,AFNE01.JPG,,,,,,,,,,,,,,,,,,,,,3,6,36,5,,,AMNE07.jpg,AMSA15.jpg,AMNE04.jpg,AMSA05.jpg,AMNE04.jpg,MN,1,num_2,32,num_4,0.750121961348,,,2017_Apr_10_1725,60.0054466919,FEMA4ImagesEEG,001,200144,
AFNE01.JPG,AFNE01.JPG,AFNE01.JPG,AFNE01.JPG,AFNE01.JPG,AFNE01.JPG,,,,,,,,,,,,,,,,,,,,,3,7,37,6,,,AMNE20.jpg,AMSA07.jpg,AMSA09.jpg,AMNE07.jpg,AMNE20.jpg,MN,1,num_8,16,num_8,1.13342354656,,,2017_Apr_10_1725,60.0054466919,FEMA4ImagesEEG,001,200144,
AFNE01.JPG,AFNE01.JPG,AFNE01.JPG,AFNE01.JPG,AFNE01.JPG,AFNE01.JPG,,,,,,,,,,,,,,,,,,,,,3,8,38,7,,,AMNE04.jpg,AMSA19.jpg,AMNE19.jpg,AMSA14.jpg,AMNE04.jpg,MN,1,num_8,32,num_4,0.933416362153,,,2017_Apr_10_1725,60.0054466919,FEMA4ImagesEEG,001,200144,
