IPosition2,IPosition3,IPosition1,IPosition6,IPosition4,IPosition5,TrialsM1.thisRepN,TrialsM1.thisTrialN,TrialsM1.thisN,TrialsM1.thisIndex,TrialsF1.thisRepN,TrialsF1.thisTrialN,TrialsF1.thisN,TrialsF1.thisIndex,TrialsM2.thisRepN,TrialsM2.thisTrialN,TrialsM2.thisN,TrialsM2.thisIndex,TrialsF2.thisRepN,TrialsF2.thisTrialN,TrialsF2.thisN,TrialsF2.thisIndex,TrialsM3.thisRepN,TrialsM3.thisTrialN,TrialsM3.thisN,TrialsM3.thisIndex,TrialsF3.thisRepN,TrialsF3.thisTrialN,TrialsF3.thisN,TrialsF3.thisIndex,InstrKey_resp.keys,InstrKey_resp.rt,Image0 _Position,Image1 _Position,Image2 _Position,Image3 _Position,Center_image,condition,code,correct_answer,accuracy,Key_Resp.keys,Key_Resp.rt,BreakKey_resp.keys,BreakKey_resp.rt,date,frameRate,expName,session,participant,
,,,,,,,,,,,,,,,,,,,,,,,,,,,,,,space,10.9994496117,,,,,,,,,,,,,,2017_Apr_18_1842,59.9988646019,MAFE4ImagesEEG,001,200132,
AFSA21.JPG,AFNE22.JPG,AFNE21.JPG,AFSA23.JPG,AFSA22.JPG,AFNE23.JPG,0,0,0,0,,,,,,,,,,,,,,,,,,,,,,,AMNE16.jpg,AMSA03.jpg,AMNE09.jpg,AMSA04.jpg,AMSA04.jpg,MS,2,num_4,16,num_4,0.55014450899,,,2017_Apr_18_1842,59.9988646019,MAFE4ImagesEEG,001,200132,
AFNE23.JPG,AFNE24.JPG,AFNE22.JPG,AFSA24.JPG,AFSA22.JPG,AFSA23.JPG,0,1,1,8,,,,,,,,,,,,,,,,,,,,,,,AMSA02.jpg,AMNE16.jpg,AMNE18.jpg,AMSA12.jpg,AMNE16.jpg,MN,1,num_6,16,num_6,0.633479900396,,,2017_Apr_18_1842,59.9988646019,MAFE4ImagesEEG,001,200132,
AMSA21.JPG,AMNE23.JPG,AMNE21.JPG,AMSA25.JPG,AMNE25.JPG,AMSA23.JPG,0,2,2,5,,,,,,,,,,,,,,,,,,,,,,,AMNE15.jpg,AMSA17.jpg,AMSA16.jpg,AMNE11.jpg,AMNE15.jpg,MN,1,num_8,16,num_8,0.816791909936,,,2017_Apr_18_1842,59.9988646019,MAFE4ImagesEEG,001,200132,
AFNE22.JPG,AFSA24.JPG,AFSA22.JPG,AFNE25.JPG,AFNE24.JPG,AFSA25.JPG,0,3,3,6,,,,,,,,,,,,,,,,,,,,,,,AMNE15.jpg,AMNE19.jpg,AMSA13.jpg,AMSA20.jpg,AMSA13.jpg,MS,2,num_2,32,num_8,0.866764663151,,,2017_Apr_18_1842,59.9988646019,MAFE4ImagesEEG,001,200132,
AMNE23.JPG,AMNE24.JPG,AMNE22.JPG,AMSA24.JPG,AMSA22.JPG,AMSA23.JPG,0,4,4,9,,,,,,,,,,,,,,,,,,,,,,,AMNE04.jpg,AMSA04.jpg,AMSA19.jpg,AMNE08.jpg,AMNE08.jpg,MN,1,num_4,32,num_2,0.900114792516,,,2017_Apr_18_1842,59.9988646019,MAFE4ImagesEEG,001,200132,
AMNE22.JPG,AMSA24.JPG,AMSA22.JPG,AMNE25.JPG,AMNE24.JPG,AMSA25.JPG,0,5,5,7,,,,,,,,,,,,,,,,,,,,,,,AMSA10.jpg,AMNE19.jpg,AMNE08.jpg,AMSA11.jpg,AMSA11.jpg,MS,2,num_4,32,num_8,0.866752795802,,,2017_Apr_18_1842,59.9988646019,MAFE4ImagesEEG,001,200132,
AFSA21.JPG,AFNE23.JPG,AFNE21.JPG,AFSA25.JPG,AFNE25.JPG,AFSA23.JPG,0,6,6,4,,,,,,,,,,,,,,,,,,,,,,,AMNE15.jpg,AMSA01.jpg,AMNE09.jpg,AMSA20.jpg,AMSA01.jpg,MS,2,num_6,16,num_6,0.383454481838,,,2017_Apr_18_1842,59.9988646019,MAFE4ImagesEEG,001,200132,
AFSA25.JPG,AFNE24.JPG,AFSA24.JPG,AFNE21.JPG,AFSA21.JPG,AFNE25.JPG,0,7,7,2,,,,,,,,,,,,,,,,,,,,,,,AMSA10.jpg,AMNE04.jpg,AMSA06.jpg,AMNE02.jpg,AMNE02.jpg,MN,1,num_4,16,num_4,0.900105811816,,,2017_Apr_18_1842,59.9988646019,MAFE4ImagesEEG,001,200132,
AMSA21.JPG,AMNE22.JPG,AMNE21.JPG,AMSA23.JPG,AMSA22.JPG,AMNE23.JPG,0,8,8,1,,,,,,,,,,,,,,,,,,,,,,,AMSA20.jpg,AMNE01.jpg,AMNE17.jpg,AMSA11.jpg,AMSA11.jpg,MS,2,num_4,16,num_4,0.583577709782,,,2017_Apr_18_1842,59.9988646019,MAFE4ImagesEEG,001,200132,
AMSA25.JPG,AMNE24.JPG,AMSA24.JPG,AMNE26.JPG,AMSA21.JPG,AMNE25.JPG,0,9,9,3,,,,,,,,,,,,,,,,,,,,,,,AMNE10.jpg,AMSA17.jpg,AMSA15.jpg,AMNE11.jpg,AMSA15.jpg,MS,2,num_2,16,num_2,0.550191016169,,,2017_Apr_18_1842,59.9988646019,MAFE4ImagesEEG,001,200132,
AMSA25.JPG,AMNE24.JPG,AMSA24.JPG,AMNE26.JPG,AMSA21.JPG,AMNE25.JPG,,,,,0,0,0,3,,,,,,,,,,,,,,,,,,,AFNE07.jpg,AFSA18.jpg,AFSA10.jpg,AFNE12.jpg,AFNE07.jpg,FN,3,num_8,16,num_8,0.86675087137,,,2017_Apr_18_1842,59.9988646019,MAFE4ImagesEEG,001,200132,
AFSA21.JPG,AFNE22.JPG,AFNE21.JPG,AFSA23.JPG,AFSA22.JPG,AFNE23.JPG,,,,,0,1,1,0,,,,,,,,,,,,,,,,,,,AFNE01.jpg,AFSA16.jpg,AFSA03.jpg,AFNE08.jpg,AFNE01.jpg,FN,3,num_8,16,num_8,0.816781004803,,,2017_Apr_18_1842,59.9988646019,MAFE4ImagesEEG,001,200132,
AMSA21.JPG,AMNE23.JPG,AMNE21.JPG,AMSA25.JPG,AMNE25.JPG,AMSA23.JPG,,,,,0,2,2,5,,,,,,,,,,,,,,,,,,,AFSA09.jpg,AFSA03.jpg,AFNE06.jpg,AFNE14.jpg,AFNE06.jpg,FN,3,num_2,16,num_2,1.1500811951,,,2017_Apr_18_1842,59.9988646019,MAFE4ImagesEEG,001,200132,
AFSA25.JPG,AFNE24.JPG,AFSA24.JPG,AFNE21.JPG,AFSA21.JPG,AFNE25.JPG,,,,,0,3,3,2,,,,,,,,,,,,,,,,,,,AFSA10.jpg,AFNE02.jpg,AFNE15.jpg,AFSA02.jpg,AFNE02.jpg,FN,3,num_6,16,num_6,0.900100038518,,,2017_Apr_18_1842,59.9988646019,MAFE4ImagesEEG,001,200132,
AFSA21.JPG,AFNE23.JPG,AFNE21.JPG,AFSA25.JPG,AFNE25.JPG,AFSA23.JPG,,,,,0,4,4,4,,,,,,,,,,,,,,,,,,,AFNE01.jpg,AFSA15.jpg,AFSA16.jpg,AFNE10.jpg,AFNE01.jpg,FN,3,num_8,32,num_6,0.700115049112,,,2017_Apr_18_1842,59.9988646019,MAFE4ImagesEEG,001,200132,
AFNE22.JPG,AFSA24.JPG,AFSA22.JPG,AFNE25.JPG,AFNE24.JPG,AFSA25.JPG,,,,,0,5,5,6,,,,,,,,,,,,,,,,,,,AFSA08.jpg,AFSA04.jpg,AFNE02.jpg,AFNE03.jpg,AFSA08.jpg,FS,4,num_8,16,num_8,0.583488544318,,,2017_Apr_18_1842,59.9988646019,MAFE4ImagesEEG,001,200132,
AMNE22.JPG,AMSA24.JPG,AMSA22.JPG,AMNE25.JPG,AMNE24.JPG,AMSA25.JPG,,,,,0,6,6,7,,,,,,,,,,,,,,,,,,,AFNE07.jpg,AFNE20.jpg,AFSA17.jpg,AFSA13.jpg,AFNE20.jpg,FN,3,num_6,32,num_8,0.966783618816,,,2017_Apr_18_1842,59.9988646019,MAFE4ImagesEEG,001,200132,
AMNE23.JPG,AMNE24.JPG,AMNE22.JPG,AMSA24.JPG,AMSA22.JPG,AMSA23.JPG,,,,,0,7,7,9,,,,,,,,,,,,,,,,,,,AFNE03.jpg,AFSA04.jpg,AFSA01.jpg,AFNE13.jpg,AFNE03.jpg,FN,3,num_8,16,num_8,0.90011350956,,,2017_Apr_18_1842,59.9988646019,MAFE4ImagesEEG,001,200132,
AFNE23.JPG,AFNE24.JPG,AFNE22.JPG,AFSA24.JPG,AFSA22.JPG,AFSA23.JPG,,,,,0,8,8,8,,,,,,,,,,,,,,,,,,,AFSA14.jpg,AFNE12.jpg,AFNE11.jpg,AFSA15.jpg,AFNE12.jpg,FN,3,num_6,16,num_6,0.61709783088,,,2017_Apr_18_1842,59.9988646019,MAFE4ImagesEEG,001,200132,
AMSA21.JPG,AMNE22.JPG,AMNE21.JPG,AMSA23.JPG,AMSA22.JPG,AMNE23.JPG,,,,,0,9,9,1,,,,,,,,,,,,,,,,,,,AFNE04.jpg,AFNE18.jpg,AFSA11.jpg,AFSA09.jpg,AFSA11.jpg,FS,4,num_2,16,num_2,0.483490436673,,,2017_Apr_18_1842,59.9988646019,MAFE4ImagesEEG,001,200132,
AMNE23.JPG,AMNE24.JPG,AMNE22.JPG,AMSA24.JPG,AMSA22.JPG,AMSA23.JPG,,,,,,,,,0,0,0,9,,,,,,,,,,,,,,,AMNE17.jpg,AMSA20.jpg,AMNE18.jpg,AMSA05.jpg,AMSA05.jpg,MS,2,num_4,32,num_8,0.616756885225,,,2017_Apr_18_1842,59.9988646019,MAFE4ImagesEEG,001,200132,
AMSA25.JPG,AMNE24.JPG,AMSA24.JPG,AMNE26.JPG,AMSA21.JPG,AMNE25.JPG,,,,,,,,,0,1,1,3,,,,,,,,,,,,,,,AMSA16.jpg,AMNE12.jpg,AMSA04.jpg,AMNE13.jpg,AMNE12.jpg,MN,1,num_6,32,num_8,0.900127301342,,,2017_Apr_18_1842,59.9988646019,MAFE4ImagesEEG,001,200132,
AMSA21.JPG,AMNE22.JPG,AMNE21.JPG,AMSA23.JPG,AMSA22.JPG,AMNE23.JPG,,,,,,,,,0,2,2,1,,,,,,,,,,,,,,,AMSA09.jpg,AMNE15.jpg,AMNE01.jpg,AMSA14.jpg,AMNE15.jpg,MN,1,num_6,16,num_6,0.516840566052,,,2017_Apr_18_1842,59.9988646019,MAFE4ImagesEEG,001,200132,
AMNE22.JPG,AMSA24.JPG,AMSA22.JPG,AMNE25.JPG,AMNE24.JPG,AMSA25.JPG,,,,,,,,,0,3,3,7,,,,,,,,,,,,,,,AMSA04.jpg,AMSA15.jpg,AMNE06.jpg,AMNE05.jpg,AMSA04.jpg,MS,2,num_8,16,num_8,0.450168211624,,,2017_Apr_18_1842,59.9988646019,MAFE4ImagesEEG,001,200132,
AMSA21.JPG,AMNE23.JPG,AMNE21.JPG,AMSA25.JPG,AMNE25.JPG,AMSA23.JPG,,,,,,,,,0,4,4,5,,,,,,,,,,,,,,,AMSA15.jpg,AMNE15.jpg,AMSA17.jpg,AMNE10.jpg,AMNE10.jpg,MN,1,num_4,32,num_8,0.716783217911,,,2017_Apr_18_1842,59.9988646019,MAFE4ImagesEEG,001,200132,
AFNE23.JPG,AFNE24.JPG,AFNE22.JPG,AFSA24.JPG,AFSA22.JPG,AFSA23.JPG,,,,,,,,,0,5,5,8,,,,,,,,,,,,,,,AMNE14.jpg,AMSA04.jpg,AMSA19.jpg,AMNE12.jpg,AMNE12.jpg,MN,1,num_4,16,num_4,0.950253047107,,,2017_Apr_18_1842,59.9988646019,MAFE4ImagesEEG,001,200132,
AFSA25.JPG,AFNE24.JPG,AFSA24.JPG,AFNE21.JPG,AFSA21.JPG,AFNE25.JPG,,,,,,,,,0,6,6,2,,,,,,,,,,,,,,,AMSA11.jpg,AMNE02.jpg,AMNE12.jpg,AMSA10.jpg,AMSA10.jpg,MS,2,num_4,32,num_8,0.750156761234,,,2017_Apr_18_1842,59.9988646019,MAFE4ImagesEEG,001,200132,
AFSA21.JPG,AFNE22.JPG,AFNE21.JPG,AFSA23.JPG,AFSA22.JPG,AFNE23.JPG,,,,,,,,,0,7,7,0,,,,,,,,,,,,,,,AMNE05.jpg,AMNE12.jpg,AMSA05.jpg,AMSA15.jpg,AMNE12.jpg,MN,1,num_6,16,num_6,0.850117663125,,,2017_Apr_18_1842,59.9988646019,MAFE4ImagesEEG,001,200132,
AFSA21.JPG,AFNE23.JPG,AFNE21.JPG,AFSA25.JPG,AFNE25.JPG,AFSA23.JPG,,,,,,,,,0,8,8,4,,,,,,,,,,,,,,,AMSA11.jpg,AMSA01.jpg,AMNE14.jpg,AMNE06.jpg,AMNE06.jpg,MN,1,num_4,16,num_4,0.700122105365,,,2017_Apr_18_1842,59.9988646019,MAFE4ImagesEEG,001,200132,
AFNE22.JPG,AFSA24.JPG,AFSA22.JPG,AFNE25.JPG,AFNE24.JPG,AFSA25.JPG,,,,,,,,,0,9,9,6,,,,,,,,,,,,,,,AMNE15.jpg,AMSA19.jpg,AMNE16.jpg,AMSA13.jpg,AMNE15.jpg,MN,1,num_8,16,num_8,0.61672994314,,,2017_Apr_18_1842,59.9988646019,MAFE4ImagesEEG,001,200132,
AFNE22.JPG,AFSA24.JPG,AFSA22.JPG,AFNE25.JPG,AFNE24.JPG,AFSA25.JPG,,,,,,,,,,,,,0,0,0,6,,,,,,,,,,,AFNE08.jpg,AFSA05.jpg,AFSA17.jpg,AFNE20.jpg,AFSA05.jpg,FS,4,num_6,32,num_8,0.583665271552,,,2017_Apr_18_1842,59.9988646019,MAFE4ImagesEEG,001,200132,
AMNE23.JPG,AMNE24.JPG,AMNE22.JPG,AMSA24.JPG,AMSA22.JPG,AMSA23.JPG,,,,,,,,,,,,,0,1,1,9,,,,,,,,,,,AFSA19.jpg,AFNE15.jpg,AFNE17.jpg,AFSA04.jpg,AFNE17.jpg,FN,3,num_2,32,num_8,1.00022996993,,,2017_Apr_18_1842,59.9988646019,MAFE4ImagesEEG,001,200132,
AFSA21.JPG,AFNE22.JPG,AFNE21.JPG,AFSA23.JPG,AFSA22.JPG,AFNE23.JPG,,,,,,,,,,,,,0,2,2,0,,,,,,,,,,,AFSA03.jpg,AFSA02.jpg,AFNE11.jpg,AFNE20.jpg,AFNE11.jpg,FN,3,num_2,16,num_2,0.600208993594,,,2017_Apr_18_1842,59.9988646019,MAFE4ImagesEEG,001,200132,
AFSA21.JPG,AFNE23.JPG,AFNE21.JPG,AFSA25.JPG,AFNE25.JPG,AFSA23.JPG,,,,,,,,,,,,,0,3,3,4,,,,,,,,,,,AFNE01.jpg,AFSA20.jpg,AFSA01.jpg,AFNE11.jpg,AFNE01.jpg,FN,3,num_8,16,num_8,0.700136538639,,,2017_Apr_18_1842,59.9988646019,MAFE4ImagesEEG,001,200132,
AMSA21.JPG,AMNE23.JPG,AMNE21.JPG,AMSA25.JPG,AMNE25.JPG,AMSA23.JPG,,,,,,,,,,,,,0,4,4,5,,,,,,,,,,,AFNE14.jpg,AFSA12.jpg,AFNE02.jpg,AFSA13.jpg,AFSA12.jpg,FS,4,num_6,32,num_8,0.700172782148,,,2017_Apr_18_1842,59.9988646019,MAFE4ImagesEEG,001,200132,
AMSA21.JPG,AMNE22.JPG,AMNE21.JPG,AMSA23.JPG,AMSA22.JPG,AMNE23.JPG,,,,,,,,,,,,,0,5,5,1,,,,,,,,,,,AFSA16.jpg,AFSA04.jpg,AFNE07.jpg,AFNE14.jpg,AFSA16.jpg,FS,4,num_8,32,num_4,0.783438573184,,,2017_Apr_18_1842,59.9988646019,MAFE4ImagesEEG,001,200132,
AFSA25.JPG,AFNE24.JPG,AFSA24.JPG,AFNE21.JPG,AFSA21.JPG,AFNE25.JPG,,,,,,,,,,,,,0,6,6,2,,,,,,,,,,,AFSA08.jpg,AFSA16.jpg,AFNE17.jpg,AFNE02.jpg,AFNE17.jpg,FN,3,num_2,32,num_8,0.883114017299,,,2017_Apr_18_1842,59.9988646019,MAFE4ImagesEEG,001,200132,
AMNE22.JPG,AMSA24.JPG,AMSA22.JPG,AMNE25.JPG,AMNE24.JPG,AMSA25.JPG,,,,,,,,,,,,,0,7,7,7,,,,,,,,,,,AFNE03.jpg,AFSA10.jpg,AFSA01.jpg,AFNE04.jpg,AFSA10.jpg,FS,4,num_6,32,num_4,1.1000798961,,,2017_Apr_18_1842,59.9988646019,MAFE4ImagesEEG,001,200132,
AMSA25.JPG,AMNE24.JPG,AMSA24.JPG,AMNE26.JPG,AMSA21.JPG,AMNE25.JPG,,,,,,,,,,,,,0,8,8,3,,,,,,,,,,,AFNE03.jpg,AFSA07.jpg,AFSA16.jpg,AFNE07.jpg,AFNE03.jpg,FN,3,num_8,32,num_6,0.916776546524,,,2017_Apr_18_1842,59.9988646019,MAFE4ImagesEEG,001,200132,
AFNE23.JPG,AFNE24.JPG,AFNE22.JPG,AFSA24.JPG,AFSA22.JPG,AFSA23.JPG,,,,,,,,,,,,,0,9,9,8,,,,,,,,,,,AFNE01.jpg,AFSA14.jpg,AFSA11.jpg,AFNE06.jpg,AFSA11.jpg,FS,4,num_2,16,num_2,0.400132914277,,,2017_Apr_18_1842,59.9988646019,MAFE4ImagesEEG,001,200132,
AFSA21.JPG,AFNE23.JPG,AFNE21.JPG,AFSA25.JPG,AFNE25.JPG,AFSA23.JPG,,,,,,,,,,,,,,,,,0,0,0,4,,,,,,,AMNE01.jpg,AMSA10.jpg,AMSA03.jpg,AMNE10.jpg,AMNE01.jpg,MN,1,num_8,32,num_2,0.850095532136,,,2017_Apr_18_1842,59.9988646019,MAFE4ImagesEEG,001,200132,
AMNE22.JPG,AMSA24.JPG,AMSA22.JPG,AMNE25.JPG,AMNE24.JPG,AMSA25.JPG,,,,,,,,,,,,,,,,,0,1,1,7,,,,,,,AMSA08.jpg,AMNE18.jpg,AMSA20.jpg,AMNE06.jpg,AMNE18.jpg,MN,1,num_6,16,num_6,0.800091987971,,,2017_Apr_18_1842,59.9988646019,MAFE4ImagesEEG,001,200132,
AFSA21.JPG,AFNE22.JPG,AFNE21.JPG,AFSA23.JPG,AFSA22.JPG,AFNE23.JPG,,,,,,,,,,,,,,,,,0,2,2,0,,,,,,,AMSA08.jpg,AMNE14.jpg,AMSA09.jpg,AMNE17.jpg,AMSA08.jpg,MS,2,num_8,32,num_2,1.33345061692,,,2017_Apr_18_1842,59.9988646019,MAFE4ImagesEEG,001,200132,
AMSA21.JPG,AMNE23.JPG,AMNE21.JPG,AMSA25.JPG,AMNE25.JPG,AMSA23.JPG,,,,,,,,,,,,,,,,,0,3,3,5,,,,,,,AMNE14.jpg,AMSA08.jpg,AMNE13.jpg,AMSA01.jpg,AMSA08.jpg,MS,2,num_6,16,num_6,0.916832675866,,,2017_Apr_18_1842,59.9988646019,MAFE4ImagesEEG,001,200132,
AFNE22.JPG,AFSA24.JPG,AFSA22.JPG,AFNE25.JPG,AFNE24.JPG,AFSA25.JPG,,,,,,,,,,,,,,,,,0,4,4,6,,,,,,,AMSA11.jpg,AMNE18.jpg,AMNE19.jpg,AMSA20.jpg,AMSA20.jpg,MS,2,num_4,16,num_4,0.516787644097,,,2017_Apr_18_1842,59.9988646019,MAFE4ImagesEEG,001,200132,
AMSA21.JPG,AMNE22.JPG,AMNE21.JPG,AMSA23.JPG,AMSA22.JPG,AMNE23.JPG,,,,,,,,,,,,,,,,,0,5,5,1,,,,,,,AMSA13.jpg,AMNE02.jpg,AMSA20.jpg,AMNE01.jpg,AMSA13.jpg,MS,2,num_8,16,num_8,0.833483492679,,,2017_Apr_18_1842,59.9988646019,MAFE4ImagesEEG,001,200132,
AMSA25.JPG,AMNE24.JPG,AMSA24.JPG,AMNE26.JPG,AMSA21.JPG,AMNE25.JPG,,,,,,,,,,,,,,,,,0,6,6,3,,,,,,,AMSA12.jpg,AMNE14.jpg,AMSA01.jpg,AMNE11.jpg,AMNE11.jpg,MN,1,num_4,16,num_4,0.900250465143,,,2017_Apr_18_1842,59.9988646019,MAFE4ImagesEEG,001,200132,
AFNE23.JPG,AFNE24.JPG,AFNE22.JPG,AFSA24.JPG,AFSA22.JPG,AFSA23.JPG,,,,,,,,,,,,,,,,,0,7,7,8,,,,,,,AMNE20.jpg,AMNE14.jpg,AMSA14.jpg,AMSA06.jpg,AMNE20.jpg,MN,1,num_8,16,num_8,0.850280598577,,,2017_Apr_18_1842,59.9988646019,MAFE4ImagesEEG,001,200132,
AFSA25.JPG,AFNE24.JPG,AFSA24.JPG,AFNE21.JPG,AFSA21.JPG,AFNE25.JPG,,,,,,,,,,,,,,,,,0,8,8,2,,,,,,,AMSA02.jpg,AMSA12.jpg,AMNE09.jpg,AMNE17.jpg,AMSA12.jpg,MS,2,num_6,16,num_6,0.900110302173,,,2017_Apr_18_1842,59.9988646019,MAFE4ImagesEEG,001,200132,
AMNE23.JPG,AMNE24.JPG,AMNE22.JPG,AMSA24.JPG,AMSA22.JPG,AMSA23.JPG,,,,,,,,,,,,,,,,,0,9,9,9,,,,,,,AMNE20.jpg,AMSA05.jpg,AMNE18.jpg,AMSA17.jpg,AMNE20.jpg,MN,1,num_8,32,num_4,0.616800505755,,,2017_Apr_18_1842,59.9988646019,MAFE4ImagesEEG,001,200132,
AMNE22.JPG,AMSA24.JPG,AMSA22.JPG,AMNE25.JPG,AMNE24.JPG,AMSA25.JPG,,,,,,,,,,,,,,,,,,,,,0,0,0,7,,,AFNE02.jpg,AFSA20.jpg,AFNE07.jpg,AFSA02.jpg,AFNE07.jpg,FN,3,num_2,32,num_8,0.716739597396,,,2017_Apr_18_1842,59.9988646019,MAFE4ImagesEEG,001,200132,
AFSA21.JPG,AFNE22.JPG,AFNE21.JPG,AFSA23.JPG,AFSA22.JPG,AFNE23.JPG,,,,,,,,,,,,,,,,,,,,,0,1,1,0,,,AFNE07.jpg,AFNE17.jpg,AFSA07.jpg,AFSA19.jpg,AFSA19.jpg,FS,4,num_4,32,num_6,0.800186605993,,,2017_Apr_18_1842,59.9988646019,MAFE4ImagesEEG,001,200132,
AFNE22.JPG,AFSA24.JPG,AFSA22.JPG,AFNE25.JPG,AFNE24.JPG,AFSA25.JPG,,,,,,,,,,,,,,,,,,,,,0,2,2,6,,,AFSA16.jpg,AFNE17.jpg,AFNE06.jpg,AFSA08.jpg,AFNE06.jpg,FN,3,num_2,32,num_8,0.800225415427,,,2017_Apr_18_1842,59.9988646019,MAFE4ImagesEEG,001,200132,
AMNE23.JPG,AMNE24.JPG,AMNE22.JPG,AMSA24.JPG,AMSA22.JPG,AMSA23.JPG,,,,,,,,,,,,,,,,,,,,,0,3,3,9,,,AFSA03.jpg,AFNE17.jpg,AFNE20.jpg,AFSA09.jpg,AFSA03.jpg,FS,4,num_8,16,num_8,0.616760734105,,,2017_Apr_18_1842,59.9988646019,MAFE4ImagesEEG,001,200132,
AFSA25.JPG,AFNE24.JPG,AFSA24.JPG,AFNE21.JPG,AFSA21.JPG,AFNE25.JPG,,,,,,,,,,,,,,,,,,,,,0,4,4,2,,,AFSA11.jpg,AFNE01.jpg,AFSA09.jpg,AFNE07.jpg,AFSA11.jpg,FS,4,num_8,16,num_8,0.366788558211,,,2017_Apr_18_1842,59.9988646019,MAFE4ImagesEEG,001,200132,
AMSA21.JPG,AMNE22.JPG,AMNE21.JPG,AMSA23.JPG,AMSA22.JPG,AMNE23.JPG,,,,,,,,,,,,,,,,,,,,,0,5,5,1,,,AFNE01.jpg,AFNE09.jpg,AFSA03.jpg,AFSA01.jpg,AFSA03.jpg,FS,4,num_2,32,num_4,1.01662005793,,,2017_Apr_18_1842,59.9988646019,MAFE4ImagesEEG,001,200132,
AMSA21.JPG,AMNE23.JPG,AMNE21.JPG,AMSA25.JPG,AMNE25.JPG,AMSA23.JPG,,,,,,,,,,,,,,,,,,,,,0,6,6,5,,,AFSA05.jpg,AFNE13.jpg,AFNE11.jpg,AFSA08.jpg,AFSA05.jpg,FS,4,num_8,32,num_6,0.850172188788,,,2017_Apr_18_1842,59.9988646019,MAFE4ImagesEEG,001,200132,
AFNE23.JPG,AFNE24.JPG,AFNE22.JPG,AFSA24.JPG,AFSA22.JPG,AFSA23.JPG,,,,,,,,,,,,,,,,,,,,,0,7,7,8,,,AFNE20.jpg,AFNE05.jpg,AFSA06.jpg,AFSA12.jpg,AFNE05.jpg,FN,3,num_6,32,num_8,0.750076897195,,,2017_Apr_18_1842,59.9988646019,MAFE4ImagesEEG,001,200132,
AFSA21.JPG,AFNE23.JPG,AFNE21.JPG,AFSA25.JPG,AFNE25.JPG,AFSA23.JPG,,,,,,,,,,,,,,,,,,,,,0,8,8,4,,,AFSA11.jpg,AFNE05.jpg,AFNE06.jpg,AFSA19.jpg,AFSA11.jpg,FS,4,num_8,16,num_8,0.366791765598,,,2017_Apr_18_1842,59.9988646019,MAFE4ImagesEEG,001,200132,
AMSA25.JPG,AMNE24.JPG,AMSA24.JPG,AMNE26.JPG,AMSA21.JPG,AMNE25.JPG,,,,,,,,,,,,,,,,,,,,,0,9,9,3,,,AFNE19.jpg,AFNE05.jpg,AFSA03.jpg,AFSA20.jpg,AFSA20.jpg,FS,4,num_4,32,num_6,0.65012369302,,,2017_Apr_18_1842,59.9988646019,MAFE4ImagesEEG,001,200132,
,,,,,,,,,,,,,,,,,,,,,,,,,,,,,,,,,,,,,,,,,,,space,7.84950857962,2017_Apr_18_1842,59.9988646019,MAFE4ImagesEEG,001,200132,
AFNE01.JPG,AFNE01.JPG,AFNE01.JPG,AFNE01.JPG,AFNE01.JPG,AFNE01.JPG,0,0,0,3,,,,,,,,,,,,,,,,,,,,,,,AMNE16.jpg,AMNE13.jpg,AMSA08.jpg,AMSA02.jpg,AMNE13.jpg,MN,1,num_6,32,num_8,0.683396203545,,,2017_Apr_18_1842,59.9988646019,MAFE4ImagesEEG,001,200132,
AFNE01.JPG,AFNE01.JPG,AFNE01.JPG,AFNE01.JPG,AFNE01.JPG,AFNE01.JPG,0,1,1,1,,,,,,,,,,,,,,,,,,,,,,,AMSA19.jpg,AMSA10.jpg,AMNE11.jpg,AMNE08.jpg,AMNE08.jpg,MN,1,num_4,32,num_2,0.866748305445,,,2017_Apr_18_1842,59.9988646019,MAFE4ImagesEEG,001,200132,
AFNE01.JPG,AFNE01.JPG,AFNE01.JPG,AFNE01.JPG,AFNE01.JPG,AFNE01.JPG,0,2,2,4,,,,,,,,,,,,,,,,,,,,,,,AMNE12.jpg,AMNE17.jpg,AMSA02.jpg,AMSA14.jpg,AMNE17.jpg,MN,1,num_6,32,num_8,0.600135865083,,,2017_Apr_18_1842,59.9988646019,MAFE4ImagesEEG,001,200132,
AFNE01.JPG,AFNE01.JPG,AFNE01.JPG,AFNE01.JPG,AFNE01.JPG,AFNE01.JPG,0,3,3,7,,,,,,,,,,,,,,,,,,,,,,,AMNE10.jpg,AMSA14.jpg,AMNE15.jpg,AMSA08.jpg,AMNE10.jpg,MN,1,num_8,16,num_8,0.716906702452,,,2017_Apr_18_1842,59.9988646019,MAFE4ImagesEEG,001,200132,
AFNE01.JPG,AFNE01.JPG,AFNE01.JPG,AFNE01.JPG,AFNE01.JPG,AFNE01.JPG,0,4,4,6,,,,,,,,,,,,,,,,,,,,,,,AMNE13.jpg,AMSA04.jpg,AMSA08.jpg,AMNE15.jpg,AMNE13.jpg,MN,1,num_8,32,num_4,0.750120196972,,,2017_Apr_18_1842,59.9988646019,MAFE4ImagesEEG,001,200132,
AFNE01.JPG,AFNE01.JPG,AFNE01.JPG,AFNE01.JPG,AFNE01.JPG,AFNE01.JPG,0,5,5,5,,,,,,,,,,,,,,,,,,,,,,,AMSA12.jpg,AMNE08.jpg,AMNE02.jpg,AMSA02.jpg,AMSA12.jpg,MS,2,num_8,16,num_8,1.04996473475,,,2017_Apr_18_1842,59.9988646019,MAFE4ImagesEEG,001,200132,
AFNE01.JPG,AFNE01.JPG,AFNE01.JPG,AFNE01.JPG,AFNE01.JPG,AFNE01.JPG,0,6,6,8,,,,,,,,,,,,,,,,,,,,,,,AMNE08.jpg,AMSA16.jpg,AMSA02.jpg,AMNE02.jpg,AMNE02.jpg,MN,1,num_4,16,num_4,1.41677382025,,,2017_Apr_18_1842,59.9988646019,MAFE4ImagesEEG,001,200132,
AFNE01.JPG,AFNE01.JPG,AFNE01.JPG,AFNE01.JPG,AFNE01.JPG,AFNE01.JPG,0,7,7,0,,,,,,,,,,,,,,,,,,,,,,,AMNE20.jpg,AMSA18.jpg,AMSA20.jpg,AMNE03.jpg,AMSA18.jpg,MS,2,num_6,32,num_2,1.30006584774,,,2017_Apr_18_1842,59.9988646019,MAFE4ImagesEEG,001,200132,
AFNE01.JPG,AFNE01.JPG,AFNE01.JPG,AFNE01.JPG,AFNE01.JPG,AFNE01.JPG,0,8,8,9,,,,,,,,,,,,,,,,,,,,,,,AMSA16.jpg,AMNE20.jpg,AMSA14.jpg,AMNE19.jpg,AMNE20.jpg,MN,1,num_6,32,num_8,0.800161588355,,,2017_Apr_18_1842,59.9988646019,MAFE4ImagesEEG,001,200132,
AFNE01.JPG,AFNE01.JPG,AFNE01.JPG,AFNE01.JPG,AFNE01.JPG,AFNE01.JPG,0,9,9,2,,,,,,,,,,,,,,,,,,,,,,,AMNE16.jpg,AMNE18.jpg,AMSA01.jpg,AMSA04.jpg,AMSA01.jpg,MS,2,num_2,16,num_2,0.79998518186,,,2017_Apr_18_1842,59.9988646019,MAFE4ImagesEEG,001,200132,
AFNE01.JPG,AFNE01.JPG,AFNE01.JPG,AFNE01.JPG,AFNE01.JPG,AFNE01.JPG,1,0,10,8,,,,,,,,,,,,,,,,,,,,,,,AMNE11.jpg,AMSA12.jpg,AMSA05.jpg,AMNE07.jpg,AMSA05.jpg,MS,2,num_2,32,num_8,0.633469316017,,,2017_Apr_18_1842,59.9988646019,MAFE4ImagesEEG,001,200132,
AFNE01.JPG,AFNE01.JPG,AFNE01.JPG,AFNE01.JPG,AFNE01.JPG,AFNE01.JPG,1,1,11,5,,,,,,,,,,,,,,,,,,,,,,,AMNE12.jpg,AMNE01.jpg,AMSA04.jpg,AMSA11.jpg,AMSA11.jpg,MS,2,num_4,32,num_8,0.883407493558,,,2017_Apr_18_1842,59.9988646019,MAFE4ImagesEEG,001,200132,
AFNE01.JPG,AFNE01.JPG,AFNE01.JPG,AFNE01.JPG,AFNE01.JPG,AFNE01.JPG,1,2,12,3,,,,,,,,,,,,,,,,,,,,,,,AMNE05.jpg,AMNE14.jpg,AMSA05.jpg,AMSA01.jpg,AMNE14.jpg,MN,1,num_6,16,num_6,0.883459132558,,,2017_Apr_18_1842,59.9988646019,MAFE4ImagesEEG,001,200132,
AFNE01.JPG,AFNE01.JPG,AFNE01.JPG,AFNE01.JPG,AFNE01.JPG,AFNE01.JPG,1,3,13,7,,,,,,,,,,,,,,,,,,,,,,,AMSA19.jpg,AMNE05.jpg,AMNE11.jpg,AMSA03.jpg,AMNE11.jpg,MN,1,num_2,32,num_8,0.600129771032,,,2017_Apr_18_1842,59.9988646019,MAFE4ImagesEEG,001,200132,
AFNE01.JPG,AFNE01.JPG,AFNE01.JPG,AFNE01.JPG,AFNE01.JPG,AFNE01.JPG,1,4,14,0,,,,,,,,,,,,,,,,,,,,,,,AMNE15.jpg,AMSA09.jpg,AMSA05.jpg,AMNE09.jpg,AMSA09.jpg,MS,2,num_6,16,num_6,0.616785110265,,,2017_Apr_18_1842,59.9988646019,MAFE4ImagesEEG,001,200132,
AFNE01.JPG,AFNE01.JPG,AFNE01.JPG,AFNE01.JPG,AFNE01.JPG,AFNE01.JPG,1,5,15,9,,,,,,,,,,,,,,,,,,,,,,,AMNE02.jpg,AMSA05.jpg,AMSA17.jpg,AMNE05.jpg,AMNE05.jpg,MN,1,num_4,32,num_2,0.666772938217,,,2017_Apr_18_1842,59.9988646019,MAFE4ImagesEEG,001,200132,
AFNE01.JPG,AFNE01.JPG,AFNE01.JPG,AFNE01.JPG,AFNE01.JPG,AFNE01.JPG,1,6,16,1,,,,,,,,,,,,,,,,,,,,,,,AMSA07.jpg,AMSA19.jpg,AMNE20.jpg,AMNE18.jpg,AMNE18.jpg,MN,1,num_4,16,num_4,0.683485369009,,,2017_Apr_18_1842,59.9988646019,MAFE4ImagesEEG,001,200132,
AFNE01.JPG,AFNE01.JPG,AFNE01.JPG,AFNE01.JPG,AFNE01.JPG,AFNE01.JPG,1,7,17,4,,,,,,,,,,,,,,,,,,,,,,,AMNE17.jpg,AMNE07.jpg,AMSA02.jpg,AMSA20.jpg,AMSA02.jpg,MS,2,num_2,32,num_6,0.750191721774,,,2017_Apr_18_1842,59.9988646019,MAFE4ImagesEEG,001,200132,
AFNE01.JPG,AFNE01.JPG,AFNE01.JPG,AFNE01.JPG,AFNE01.JPG,AFNE01.JPG,1,8,18,6,,,,,,,,,,,,,,,,,,,,,,,AMNE14.jpg,AMNE08.jpg,AMSA05.jpg,AMSA03.jpg,AMSA03.jpg,MS,2,num_4,16,num_4,0.516845377133,,,2017_Apr_18_1842,59.9988646019,MAFE4ImagesEEG,001,200132,
AFNE01.JPG,AFNE01.JPG,AFNE01.JPG,AFNE01.JPG,AFNE01.JPG,AFNE01.JPG,1,9,19,2,,,,,,,,,,,,,,,,,,,,,,,AMNE19.jpg,AMSA02.jpg,AMNE12.jpg,AMSA17.jpg,AMSA17.jpg,MS,2,num_4,16,num_4,0.500266694551,,,2017_Apr_18_1842,59.9988646019,MAFE4ImagesEEG,001,200132,
AFNE01.JPG,AFNE01.JPG,AFNE01.JPG,AFNE01.JPG,AFNE01.JPG,AFNE01.JPG,2,0,20,8,,,,,,,,,,,,,,,,,,,,,,,AMSA01.jpg,AMSA02.jpg,AMNE06.jpg,AMNE10.jpg,AMNE06.jpg,MN,1,num_2,16,num_2,0.866856394525,,,2017_Apr_18_1842,59.9988646019,MAFE4ImagesEEG,001,200132,
AFNE01.JPG,AFNE01.JPG,AFNE01.JPG,AFNE01.JPG,AFNE01.JPG,AFNE01.JPG,2,1,21,4,,,,,,,,,,,,,,,,,,,,,,,AMNE02.jpg,AMSA08.jpg,AMNE07.jpg,AMSA10.jpg,AMNE07.jpg,MN,1,num_2,32,num_4,0.916743831142,,,2017_Apr_18_1842,59.9988646019,MAFE4ImagesEEG,001,200132,
AFNE01.JPG,AFNE01.JPG,AFNE01.JPG,AFNE01.JPG,AFNE01.JPG,AFNE01.JPG,2,2,22,1,,,,,,,,,,,,,,,,,,,,,,,AMSA08.jpg,AMSA11.jpg,AMNE17.jpg,AMNE14.jpg,AMSA08.jpg,MS,2,num_8,32,num_4,0.866640537133,,,2017_Apr_18_1842,59.9988646019,MAFE4ImagesEEG,001,200132,
AFNE01.JPG,AFNE01.JPG,AFNE01.JPG,AFNE01.JPG,AFNE01.JPG,AFNE01.JPG,2,3,23,3,,,,,,,,,,,,,,,,,,,,,,,AMSA08.jpg,AMNE15.jpg,AMNE16.jpg,AMSA20.jpg,AMSA08.jpg,MS,2,num_8,16,num_8,0.933437338332,,,2017_Apr_18_1842,59.9988646019,MAFE4ImagesEEG,001,200132,
AFNE01.JPG,AFNE01.JPG,AFNE01.JPG,AFNE01.JPG,AFNE01.JPG,AFNE01.JPG,2,4,24,7,,,,,,,,,,,,,,,,,,,,,,,AMSA06.jpg,AMNE18.jpg,AMNE10.jpg,AMSA16.jpg,AMNE10.jpg,MN,1,num_2,16,num_2,0.950106790086,,,2017_Apr_18_1842,59.9988646019,MAFE4ImagesEEG,001,200132,
AFNE01.JPG,AFNE01.JPG,AFNE01.JPG,AFNE01.JPG,AFNE01.JPG,AFNE01.JPG,2,5,25,9,,,,,,,,,,,,,,,,,,,,,,,AMNE02.jpg,AMSA18.jpg,AMNE13.jpg,AMSA15.jpg,AMNE02.jpg,MN,1,num_8,32,num_6,0.616762337784,,,2017_Apr_18_1842,59.9988646019,MAFE4ImagesEEG,001,200132,
AFNE01.JPG,AFNE01.JPG,AFNE01.JPG,AFNE01.JPG,AFNE01.JPG,AFNE01.JPG,2,6,26,5,,,,,,,,,,,,,,,,,,,,,,,AMSA03.jpg,AMNE19.jpg,AMSA01.jpg,AMNE16.jpg,AMSA03.jpg,MS,2,num_8,16,num_8,0.616792807996,,,2017_Apr_18_1842,59.9988646019,MAFE4ImagesEEG,001,200132,
AFNE01.JPG,AFNE01.JPG,AFNE01.JPG,AFNE01.JPG,AFNE01.JPG,AFNE01.JPG,2,7,27,2,,,,,,,,,,,,,,,,,,,,,,,AMNE19.jpg,AMSA03.jpg,AMNE12.jpg,AMSA17.jpg,AMSA03.jpg,MS,2,num_6,16,num_6,0.666767806382,,,2017_Apr_18_1842,59.9988646019,MAFE4ImagesEEG,001,200132,
AFNE01.JPG,AFNE01.JPG,AFNE01.JPG,AFNE01.JPG,AFNE01.JPG,AFNE01.JPG,2,8,28,6,,,,,,,,,,,,,,,,,,,,,,,AMSA16.jpg,AMNE03.jpg,AMSA01.jpg,AMNE02.jpg,AMNE03.jpg,MN,1,num_6,32,num_4,0.516774173069,,,2017_Apr_18_1842,59.9988646019,MAFE4ImagesEEG,001,200132,
AFNE01.JPG,AFNE01.JPG,AFNE01.JPG,AFNE01.JPG,AFNE01.JPG,AFNE01.JPG,2,9,29,0,,,,,,,,,,,,,,,,,,,,,,,AMSA12.jpg,AMNE12.jpg,AMSA03.jpg,AMNE11.jpg,AMSA12.jpg,MS,2,num_8,16,num_8,0.700114407635,,,2017_Apr_18_1842,59.9988646019,MAFE4ImagesEEG,001,200132,
AFNE01.JPG,AFNE01.JPG,AFNE01.JPG,AFNE01.JPG,AFNE01.JPG,AFNE01.JPG,3,0,30,0,,,,,,,,,,,,,,,,,,,,,,,AMNE01.jpg,AMNE13.jpg,AMSA18.jpg,AMSA12.jpg,AMNE01.jpg,MN,1,num_8,32,num_6,0.766796063501,,,2017_Apr_18_1842,59.9988646019,MAFE4ImagesEEG,001,200132,
AFNE01.JPG,AFNE01.JPG,AFNE01.JPG,AFNE01.JPG,AFNE01.JPG,AFNE01.JPG,3,1,31,9,,,,,,,,,,,,,,,,,,,,,,,AMSA06.jpg,AMNE17.jpg,AMNE09.jpg,AMSA19.jpg,AMNE09.jpg,MN,1,num_2,32,num_8,0.683428598189,,,2017_Apr_18_1842,59.9988646019,MAFE4ImagesEEG,001,200132,
AFNE01.JPG,AFNE01.JPG,AFNE01.JPG,AFNE01.JPG,AFNE01.JPG,AFNE01.JPG,3,2,32,2,,,,,,,,,,,,,,,,,,,,,,,AMSA07.jpg,AMNE07.jpg,AMNE16.jpg,AMSA19.jpg,AMSA19.jpg,MS,2,num_4,32,num_2,0.733497573136,,,2017_Apr_18_1842,59.9988646019,MAFE4ImagesEEG,001,200132,
AFNE01.JPG,AFNE01.JPG,AFNE01.JPG,AFNE01.JPG,AFNE01.JPG,AFNE01.JPG,3,3,33,8,,,,,,,,,,,,,,,,,,,,,,,AMSA08.jpg,AMSA10.jpg,AMNE04.jpg,AMNE06.jpg,AMSA10.jpg,MS,2,num_6,32,num_4,1.18344415403,,,2017_Apr_18_1842,59.9988646019,MAFE4ImagesEEG,001,200132,
AFNE01.JPG,AFNE01.JPG,AFNE01.JPG,AFNE01.JPG,AFNE01.JPG,AFNE01.JPG,3,4,34,4,,,,,,,,,,,,,,,,,,,,,,,AMSA02.jpg,AMNE01.jpg,AMSA11.jpg,AMNE02.jpg,AMSA02.jpg,MS,2,num_8,32,num_4,0.933470053715,,,2017_Apr_18_1842,59.9988646019,MAFE4ImagesEEG,001,200132,
AFNE01.JPG,AFNE01.JPG,AFNE01.JPG,AFNE01.JPG,AFNE01.JPG,AFNE01.JPG,3,5,35,3,,,,,,,,,,,,,,,,,,,,,,,AMNE17.jpg,AMSA09.jpg,AMNE04.jpg,AMSA15.jpg,AMSA15.jpg,MS,2,num_4,32,num_6,0.850130813444,,,2017_Apr_18_1842,59.9988646019,MAFE4ImagesEEG,001,200132,
AFNE01.JPG,AFNE01.JPG,AFNE01.JPG,AFNE01.JPG,AFNE01.JPG,AFNE01.JPG,3,6,36,6,,,,,,,,,,,,,,,,,,,,,,,AMNE05.jpg,AMSA12.jpg,AMNE08.jpg,AMSA06.jpg,AMSA12.jpg,MS,2,num_6,32,num_8,0.933522013453,,,2017_Apr_18_1842,59.9988646019,MAFE4ImagesEEG,001,200132,
AFNE01.JPG,AFNE01.JPG,AFNE01.JPG,AFNE01.JPG,AFNE01.JPG,AFNE01.JPG,3,7,37,1,,,,,,,,,,,,,,,,,,,,,,,AMSA15.jpg,AMNE17.jpg,AMNE18.jpg,AMSA10.jpg,AMSA10.jpg,MS,2,num_4,32,num_6,0.566778037959,,,2017_Apr_18_1842,59.9988646019,MAFE4ImagesEEG,001,200132,
AFNE01.JPG,AFNE01.JPG,AFNE01.JPG,AFNE01.JPG,AFNE01.JPG,AFNE01.JPG,3,8,38,5,,,,,,,,,,,,,,,,,,,,,,,AMNE16.jpg,AMSA07.jpg,AMSA16.jpg,AMNE01.jpg,AMSA16.jpg,MS,2,num_2,16,num_2,0.500177849826,,,2017_Apr_18_1842,59.9988646019,MAFE4ImagesEEG,001,200132,
AFNE01.JPG,AFNE01.JPG,AFNE01.JPG,AFNE01.JPG,AFNE01.JPG,AFNE01.JPG,3,9,39,7,,,,,,,,,,,,,,,,,,,,,,,AMNE08.jpg,AMSA20.jpg,AMNE15.jpg,AMSA13.jpg,AMSA13.jpg,MS,2,num_4,32,num_6,0.799911091119,,,2017_Apr_18_1842,59.9988646019,MAFE4ImagesEEG,001,200132,
AFNE01.JPG,AFNE01.JPG,AFNE01.JPG,AFNE01.JPG,AFNE01.JPG,AFNE01.JPG,4,0,40,6,,,,,,,,,,,,,,,,,,,,,,,AMNE19.jpg,AMSA19.jpg,AMSA13.jpg,AMNE02.jpg,AMNE19.jpg,MN,1,num_8,32,num_2,1.0833648994,,,2017_Apr_18_1842,59.9988646019,MAFE4ImagesEEG,001,200132,
AFNE01.JPG,AFNE01.JPG,AFNE01.JPG,AFNE01.JPG,AFNE01.JPG,AFNE01.JPG,4,1,41,3,,,,,,,,,,,,,,,,,,,,,,,AMNE15.jpg,AMNE02.jpg,AMSA12.jpg,AMSA06.jpg,AMSA06.jpg,MS,2,num_4,32,num_8,0.666772938217,,,2017_Apr_18_1842,59.9988646019,MAFE4ImagesEEG,001,200132,
AFNE01.JPG,AFNE01.JPG,AFNE01.JPG,AFNE01.JPG,AFNE01.JPG,AFNE01.JPG,4,2,42,4,,,,,,,,,,,,,,,,,,,,,,,AMNE01.jpg,AMSA14.jpg,AMNE05.jpg,AMSA16.jpg,AMSA16.jpg,MS,2,num_4,16,num_4,0.866808604405,,,2017_Apr_18_1842,59.9988646019,MAFE4ImagesEEG,001,200132,
AFNE01.JPG,AFNE01.JPG,AFNE01.JPG,AFNE01.JPG,AFNE01.JPG,AFNE01.JPG,4,3,43,5,,,,,,,,,,,,,,,,,,,,,,,AMNE11.jpg,AMSA17.jpg,AMSA05.jpg,AMNE05.jpg,AMSA17.jpg,MS,2,num_6,16,num_6,0.766742179345,,,2017_Apr_18_1842,59.9988646019,MAFE4ImagesEEG,001,200132,
AFNE01.JPG,AFNE01.JPG,AFNE01.JPG,AFNE01.JPG,AFNE01.JPG,AFNE01.JPG,4,4,44,8,,,,,,,,,,,,,,,,,,,,,,,AMSA08.jpg,AMNE13.jpg,AMNE14.jpg,AMSA04.jpg,AMSA08.jpg,MS,2,num_8,32,num_4,0.700113766157,,,2017_Apr_18_1842,59.9988646019,MAFE4ImagesEEG,001,200132,
AFNE01.JPG,AFNE01.JPG,AFNE01.JPG,AFNE01.JPG,AFNE01.JPG,AFNE01.JPG,4,5,45,7,,,,,,,,,,,,,,,,,,,,,,,AMNE19.jpg,AMNE13.jpg,AMSA09.jpg,AMSA04.jpg,AMNE13.jpg,MN,1,num_6,32,num_8,0.666673509098,,,2017_Apr_18_1842,59.9988646019,MAFE4ImagesEEG,001,200132,
AFNE01.JPG,AFNE01.JPG,AFNE01.JPG,AFNE01.JPG,AFNE01.JPG,AFNE01.JPG,4,6,46,0,,,,,,,,,,,,,,,,,,,,,,,AMSA08.jpg,AMSA03.jpg,AMNE10.jpg,AMNE13.jpg,AMSA08.jpg,MS,2,num_8,16,num_8,0.550115000995,,,2017_Apr_18_1842,59.9988646019,MAFE4ImagesEEG,001,200132,
AFNE01.JPG,AFNE01.JPG,AFNE01.JPG,AFNE01.JPG,AFNE01.JPG,AFNE01.JPG,4,7,47,2,,,,,,,,,,,,,,,,,,,,,,,AMNE14.jpg,AMSA11.jpg,AMNE04.jpg,AMSA16.jpg,AMNE04.jpg,MN,1,num_2,16,num_2,0.983458843883,,,2017_Apr_18_1842,59.9988646019,MAFE4ImagesEEG,001,200132,
AFNE01.JPG,AFNE01.JPG,AFNE01.JPG,AFNE01.JPG,AFNE01.JPG,AFNE01.JPG,4,8,48,9,,,,,,,,,,,,,,,,,,,,,,,AMSA10.jpg,AMSA04.jpg,AMNE20.jpg,AMNE02.jpg,AMSA10.jpg,MS,2,num_8,16,num_8,0.716848327938,,,2017_Apr_18_1842,59.9988646019,MAFE4ImagesEEG,001,200132,
AFNE01.JPG,AFNE01.JPG,AFNE01.JPG,AFNE01.JPG,AFNE01.JPG,AFNE01.JPG,4,9,49,1,,,,,,,,,,,,,,,,,,,,,,,AMNE15.jpg,AMNE16.jpg,AMSA14.jpg,AMSA03.jpg,AMNE15.jpg,MN,1,num_8,16,num_8,0.666785767782,,,2017_Apr_18_1842,59.9988646019,MAFE4ImagesEEG,001,200132,
AFNE01.JPG,AFNE01.JPG,AFNE01.JPG,AFNE01.JPG,AFNE01.JPG,AFNE01.JPG,5,0,50,8,,,,,,,,,,,,,,,,,,,,,,,AMSA06.jpg,AMNE11.jpg,AMSA02.jpg,AMNE19.jpg,AMSA06.jpg,MS,2,num_8,16,num_8,0.550147395639,,,2017_Apr_18_1842,59.9988646019,MAFE4ImagesEEG,001,200132,
AFNE01.JPG,AFNE01.JPG,AFNE01.JPG,AFNE01.JPG,AFNE01.JPG,AFNE01.JPG,5,1,51,1,,,,,,,,,,,,,,,,,,,,,,,AMSA05.jpg,AMSA02.jpg,AMNE19.jpg,AMNE04.jpg,AMNE04.jpg,MN,1,num_4,32,num_6,0.350166575838,,,2017_Apr_18_1842,59.9988646019,MAFE4ImagesEEG,001,200132,
AFNE01.JPG,AFNE01.JPG,AFNE01.JPG,AFNE01.JPG,AFNE01.JPG,AFNE01.JPG,5,2,52,4,,,,,,,,,,,,,,,,,,,,,,,AMSA04.jpg,AMSA01.jpg,AMNE18.jpg,AMNE19.jpg,AMSA01.jpg,MS,2,num_6,16,num_6,0.683486010472,,,2017_Apr_18_1842,59.9988646019,MAFE4ImagesEEG,001,200132,
AFNE01.JPG,AFNE01.JPG,AFNE01.JPG,AFNE01.JPG,AFNE01.JPG,AFNE01.JPG,5,3,53,6,,,,,,,,,,,,,,,,,,,,,,,AMNE07.jpg,AMSA19.jpg,AMNE18.jpg,AMSA09.jpg,AMSA19.jpg,MS,2,num_6,32,num_4,0.516693026075,,,2017_Apr_18_1842,59.9988646019,MAFE4ImagesEEG,001,200132,
AFNE01.JPG,AFNE01.JPG,AFNE01.JPG,AFNE01.JPG,AFNE01.JPG,AFNE01.JPG,5,4,54,0,,,,,,,,,,,,,,,,,,,,,,,AMNE09.jpg,AMSA03.jpg,AMSA09.jpg,AMNE18.jpg,AMNE09.jpg,MN,1,num_8,16,num_8,0.616842201824,,,2017_Apr_18_1842,59.9988646019,MAFE4ImagesEEG,001,200132,
AFNE01.JPG,AFNE01.JPG,AFNE01.JPG,AFNE01.JPG,AFNE01.JPG,AFNE01.JPG,5,5,55,7,,,,,,,,,,,,,,,,,,,,,,,AMNE14.jpg,AMSA06.jpg,AMSA14.jpg,AMNE02.jpg,AMNE14.jpg,MN,1,num_8,16,num_8,0.93339147263,,,2017_Apr_18_1842,59.9988646019,MAFE4ImagesEEG,001,200132,
AFNE01.JPG,AFNE01.JPG,AFNE01.JPG,AFNE01.JPG,AFNE01.JPG,AFNE01.JPG,5,6,56,5,,,,,,,,,,,,,,,,,,,,,,,AMNE02.jpg,AMNE06.jpg,AMSA09.jpg,AMSA03.jpg,AMSA03.jpg,MS,2,num_4,16,num_4,0.916762754743,,,2017_Apr_18_1842,59.9988646019,MAFE4ImagesEEG,001,200132,
AFNE01.JPG,AFNE01.JPG,AFNE01.JPG,AFNE01.JPG,AFNE01.JPG,AFNE01.JPG,5,7,57,3,,,,,,,,,,,,,,,,,,,,,,,AMSA20.jpg,AMSA10.jpg,AMNE16.jpg,AMNE01.jpg,AMSA10.jpg,MS,2,num_6,16,num_6,0.750316489299,,,2017_Apr_18_1842,59.9988646019,MAFE4ImagesEEG,001,200132,
AFNE01.JPG,AFNE01.JPG,AFNE01.JPG,AFNE01.JPG,AFNE01.JPG,AFNE01.JPG,5,8,58,9,,,,,,,,,,,,,,,,,,,,,,,AMNE09.jpg,AMNE13.jpg,AMSA02.jpg,AMSA14.jpg,AMNE09.jpg,MN,1,num_8,16,num_8,0.700145840063,,,2017_Apr_18_1842,59.9988646019,MAFE4ImagesEEG,001,200132,
AFNE01.JPG,AFNE01.JPG,AFNE01.JPG,AFNE01.JPG,AFNE01.JPG,AFNE01.JPG,5,9,59,2,,,,,,,,,,,,,,,,,,,,,,,AMNE11.jpg,AMSA11.jpg,AMNE09.jpg,AMSA18.jpg,AMNE09.jpg,MN,1,num_2,16,num_2,1.15009883576,,,2017_Apr_18_1842,59.9988646019,MAFE4ImagesEEG,001,200132,
,,,,,,,,,,,,,,,,,,,,,,,,,,,,,,,,,,,,,,,,,,,space,6.29962547297,2017_Apr_18_1842,59.9988646019,MAFE4ImagesEEG,001,200132,
AFNE01.JPG,AFNE01.JPG,AFNE01.JPG,AFNE01.JPG,AFNE01.JPG,AFNE01.JPG,,,,,0,0,0,2,,,,,,,,,,,,,,,,,,,AFNE05.jpg,AFNE08.jpg,AFSA04.jpg,AFSA16.jpg,AFNE08.jpg,FN,3,num_6,32,num_8,0.583543069966,,,2017_Apr_18_1842,59.9988646019,MAFE4ImagesEEG,001,200132,
AFNE01.JPG,AFNE01.JPG,AFNE01.JPG,AFNE01.JPG,AFNE01.JPG,AFNE01.JPG,,,,,0,1,1,3,,,,,,,,,,,,,,,,,,,AFSA16.jpg,AFNE08.jpg,AFSA03.jpg,AFNE17.jpg,AFSA16.jpg,FS,4,num_8,32,num_6,0.549878616293,,,2017_Apr_18_1842,59.9988646019,MAFE4ImagesEEG,001,200132,
AFNE01.JPG,AFNE01.JPG,AFNE01.JPG,AFNE01.JPG,AFNE01.JPG,AFNE01.JPG,,,,,0,2,2,4,,,,,,,,,,,,,,,,,,,AFNE07.jpg,AFNE10.jpg,AFSA13.jpg,AFSA09.jpg,AFNE10.jpg,FN,3,num_6,16,num_6,0.58347924288,,,2017_Apr_18_1842,59.9988646019,MAFE4ImagesEEG,001,200132,
AFNE01.JPG,AFNE01.JPG,AFNE01.JPG,AFNE01.JPG,AFNE01.JPG,AFNE01.JPG,,,,,0,3,3,0,,,,,,,,,,,,,,,,,,,AFSA04.jpg,AFSA14.jpg,AFNE12.jpg,AFNE19.jpg,AFSA04.jpg,FS,4,num_8,16,num_8,0.700185290974,,,2017_Apr_18_1842,59.9988646019,MAFE4ImagesEEG,001,200132,
AFNE01.JPG,AFNE01.JPG,AFNE01.JPG,AFNE01.JPG,AFNE01.JPG,AFNE01.JPG,,,,,0,4,4,8,,,,,,,,,,,,,,,,,,,AFSA08.jpg,AFNE20.jpg,AFSA19.jpg,AFNE17.jpg,AFNE17.jpg,FN,3,num_4,32,num_2,1.00008018478,,,2017_Apr_18_1842,59.9988646019,MAFE4ImagesEEG,001,200132,
AFNE01.JPG,AFNE01.JPG,AFNE01.JPG,AFNE01.JPG,AFNE01.JPG,AFNE01.JPG,,,,,0,5,5,6,,,,,,,,,,,,,,,,,,,AFNE04.jpg,AFSA03.jpg,AFNE07.jpg,AFSA05.jpg,AFSA03.jpg,FS,4,num_6,32,num_4,0.533544978374,,,2017_Apr_18_1842,59.9988646019,MAFE4ImagesEEG,001,200132,
AFNE01.JPG,AFNE01.JPG,AFNE01.JPG,AFNE01.JPG,AFNE01.JPG,AFNE01.JPG,,,,,0,6,6,7,,,,,,,,,,,,,,,,,,,AFNE14.jpg,AFSA20.jpg,AFSA16.jpg,AFNE13.jpg,AFSA16.jpg,FS,4,num_2,16,num_2,0.733466140693,,,2017_Apr_18_1842,59.9988646019,MAFE4ImagesEEG,001,200132,
AFNE01.JPG,AFNE01.JPG,AFNE01.JPG,AFNE01.JPG,AFNE01.JPG,AFNE01.JPG,,,,,0,7,7,1,,,,,,,,,,,,,,,,,,,AFSA08.jpg,AFNE06.jpg,AFNE18.jpg,AFSA12.jpg,AFSA12.jpg,FS,4,num_4,16,num_4,0.350306738823,,,2017_Apr_18_1842,59.9988646019,MAFE4ImagesEEG,001,200132,
AFNE01.JPG,AFNE01.JPG,AFNE01.JPG,AFNE01.JPG,AFNE01.JPG,AFNE01.JPG,,,,,0,8,8,5,,,,,,,,,,,,,,,,,,,AFNE09.jpg,AFSA11.jpg,AFSA17.jpg,AFNE03.jpg,AFSA17.jpg,FS,4,num_2,32,num_8,0.683545026477,,,2017_Apr_18_1842,59.9988646019,MAFE4ImagesEEG,001,200132,
AFNE01.JPG,AFNE01.JPG,AFNE01.JPG,AFNE01.JPG,AFNE01.JPG,AFNE01.JPG,,,,,0,9,9,9,,,,,,,,,,,,,,,,,,,AFNE03.jpg,AFNE07.jpg,AFSA19.jpg,AFSA03.jpg,AFSA19.jpg,FS,4,num_2,16,num_2,0.516760060549,,,2017_Apr_18_1842,59.9988646019,MAFE4ImagesEEG,001,200132,
AFNE01.JPG,AFNE01.JPG,AFNE01.JPG,AFNE01.JPG,AFNE01.JPG,AFNE01.JPG,,,,,1,0,10,2,,,,,,,,,,,,,,,,,,,AFSA06.jpg,AFNE15.jpg,AFNE19.jpg,AFSA04.jpg,AFNE15.jpg,FN,3,num_6,16,num_6,0.533486603861,,,2017_Apr_18_1842,59.9988646019,MAFE4ImagesEEG,001,200132,
AFNE01.JPG,AFNE01.JPG,AFNE01.JPG,AFNE01.JPG,AFNE01.JPG,AFNE01.JPG,,,,,1,1,11,0,,,,,,,,,,,,,,,,,,,AFNE04.jpg,AFSA12.jpg,AFNE19.jpg,AFSA10.jpg,AFNE04.jpg,FN,3,num_8,16,num_8,0.800153249133,,,2017_Apr_18_1842,59.9988646019,MAFE4ImagesEEG,001,200132,
AFNE01.JPG,AFNE01.JPG,AFNE01.JPG,AFNE01.JPG,AFNE01.JPG,AFNE01.JPG,,,,,1,2,12,9,,,,,,,,,,,,,,,,,,,AFNE07.jpg,AFSA12.jpg,AFSA06.jpg,AFNE10.jpg,AFNE10.jpg,FN,3,num_4,16,num_4,0.983487068923,,,2017_Apr_18_1842,59.9988646019,MAFE4ImagesEEG,001,200132,
AFNE01.JPG,AFNE01.JPG,AFNE01.JPG,AFNE01.JPG,AFNE01.JPG,AFNE01.JPG,,,,,1,3,13,8,,,,,,,,,,,,,,,,,,,AFSA03.jpg,AFSA01.jpg,AFNE19.jpg,AFNE10.jpg,AFSA01.jpg,FS,4,num_6,16,num_6,0.749827041451,,,2017_Apr_18_1842,59.9988646019,MAFE4ImagesEEG,001,200132,
AFNE01.JPG,AFNE01.JPG,AFNE01.JPG,AFNE01.JPG,AFNE01.JPG,AFNE01.JPG,,,,,1,4,14,6,,,,,,,,,,,,,,,,,,,AFSA15.jpg,AFNE18.jpg,AFSA16.jpg,AFNE02.jpg,AFNE02.jpg,FN,3,num_4,16,num_4,0.700132048281,,,2017_Apr_18_1842,59.9988646019,MAFE4ImagesEEG,001,200132,
AFNE01.JPG,AFNE01.JPG,AFNE01.JPG,AFNE01.JPG,AFNE01.JPG,AFNE01.JPG,,,,,1,5,15,5,,,,,,,,,,,,,,,,,,,AFSA09.jpg,AFSA15.jpg,AFNE15.jpg,AFNE18.jpg,AFNE15.jpg,FN,3,num_2,16,num_2,0.783458459002,,,2017_Apr_18_1842,59.9988646019,MAFE4ImagesEEG,001,200132,
AFNE01.JPG,AFNE01.JPG,AFNE01.JPG,AFNE01.JPG,AFNE01.JPG,AFNE01.JPG,,,,,1,6,16,4,,,,,,,,,,,,,,,,,,,AFSA04.jpg,AFNE13.jpg,AFNE11.jpg,AFSA15.jpg,AFSA15.jpg,FS,4,num_4,16,num_4,0.566657119329,,,2017_Apr_18_1842,59.9988646019,MAFE4ImagesEEG,001,200132,
AFNE01.JPG,AFNE01.JPG,AFNE01.JPG,AFNE01.JPG,AFNE01.JPG,AFNE01.JPG,,,,,1,7,17,7,,,,,,,,,,,,,,,,,,,AFNE14.jpg,AFSA18.jpg,AFSA12.jpg,AFNE18.jpg,AFSA12.jpg,FS,4,num_2,16,num_2,0.516782512277,,,2017_Apr_18_1842,59.9988646019,MAFE4ImagesEEG,001,200132,
AFNE01.JPG,AFNE01.JPG,AFNE01.JPG,AFNE01.JPG,AFNE01.JPG,AFNE01.JPG,,,,,1,8,18,1,,,,,,,,,,,,,,,,,,,AFSA13.jpg,AFSA07.jpg,AFNE06.jpg,AFNE18.jpg,AFSA07.jpg,FS,4,num_6,16,num_6,0.63331279534,,,2017_Apr_18_1842,59.9988646019,MAFE4ImagesEEG,001,200132,
AFNE01.JPG,AFNE01.JPG,AFNE01.JPG,AFNE01.JPG,AFNE01.JPG,AFNE01.JPG,,,,,1,9,19,3,,,,,,,,,,,,,,,,,,,AFNE19.jpg,AFSA04.jpg,AFSA18.jpg,AFNE08.jpg,AFNE08.jpg,FN,3,num_4,32,num_6,0.566816847393,,,2017_Apr_18_1842,59.9988646019,MAFE4ImagesEEG,001,200132,
AFNE01.JPG,AFNE01.JPG,AFNE01.JPG,AFNE01.JPG,AFNE01.JPG,AFNE01.JPG,,,,,2,0,20,3,,,,,,,,,,,,,,,,,,,AFNE11.jpg,AFNE13.jpg,AFSA04.jpg,AFSA12.jpg,AFSA04.jpg,FS,4,num_2,32,num_6,0.766789327987,,,2017_Apr_18_1842,59.9988646019,MAFE4ImagesEEG,001,200132,
AFNE01.JPG,AFNE01.JPG,AFNE01.JPG,AFNE01.JPG,AFNE01.JPG,AFNE01.JPG,,,,,2,1,21,4,,,,,,,,,,,,,,,,,,,AFNE12.jpg,AFSA17.jpg,AFSA16.jpg,AFNE11.jpg,AFNE11.jpg,FN,3,num_4,16,num_4,0.450144476927,,,2017_Apr_18_1842,59.9988646019,MAFE4ImagesEEG,001,200132,
AFNE01.JPG,AFNE01.JPG,AFNE01.JPG,AFNE01.JPG,AFNE01.JPG,AFNE01.JPG,,,,,2,2,22,8,,,,,,,,,,,,,,,,,,,AFSA18.jpg,AFNE09.jpg,AFSA03.jpg,AFNE02.jpg,AFNE02.jpg,FN,3,num_4,32,num_2,0.883536430672,,,2017_Apr_18_1842,59.9988646019,MAFE4ImagesEEG,001,200132,
AFNE01.JPG,AFNE01.JPG,AFNE01.JPG,AFNE01.JPG,AFNE01.JPG,AFNE01.JPG,,,,,2,3,23,0,,,,,,,,,,,,,,,,,,,AFNE02.jpg,AFSA20.jpg,AFSA16.jpg,AFNE14.jpg,AFSA20.jpg,FS,4,num_6,16,num_6,0.583485016192,,,2017_Apr_18_1842,59.9988646019,MAFE4ImagesEEG,001,200132,
AFNE01.JPG,AFNE01.JPG,AFNE01.JPG,AFNE01.JPG,AFNE01.JPG,AFNE01.JPG,,,,,2,4,24,5,,,,,,,,,,,,,,,,,,,AFNE19.jpg,AFSA01.jpg,AFSA07.jpg,AFNE12.jpg,AFSA07.jpg,FS,4,num_2,16,num_2,0.833400742005,,,2017_Apr_18_1842,59.9988646019,MAFE4ImagesEEG,001,200132,
AFNE01.JPG,AFNE01.JPG,AFNE01.JPG,AFNE01.JPG,AFNE01.JPG,AFNE01.JPG,,,,,2,5,25,7,,,,,,,,,,,,,,,,,,,AFNE10.jpg,AFNE19.jpg,AFSA04.jpg,AFSA01.jpg,AFNE19.jpg,FN,3,num_6,16,num_6,0.466882566834,,,2017_Apr_18_1842,59.9988646019,MAFE4ImagesEEG,001,200132,
AFNE01.JPG,AFNE01.JPG,AFNE01.JPG,AFNE01.JPG,AFNE01.JPG,AFNE01.JPG,,,,,2,6,26,6,,,,,,,,,,,,,,,,,,,AFNE12.jpg,AFSA09.jpg,AFSA10.jpg,AFNE14.jpg,AFNE12.jpg,FN,3,num_8,16,num_8,0.616847333644,,,2017_Apr_18_1842,59.9988646019,MAFE4ImagesEEG,001,200132,
AFNE01.JPG,AFNE01.JPG,AFNE01.JPG,AFNE01.JPG,AFNE01.JPG,AFNE01.JPG,,,,,2,7,27,1,,,,,,,,,,,,,,,,,,,AFNE14.jpg,AFSA07.jpg,AFNE01.jpg,AFSA02.jpg,AFSA07.jpg,FS,4,num_6,16,num_6,0.483467343467,,,2017_Apr_18_1842,59.9988646019,MAFE4ImagesEEG,001,200132,
AFNE01.JPG,AFNE01.JPG,AFNE01.JPG,AFNE01.JPG,AFNE01.JPG,AFNE01.JPG,,,,,2,8,28,2,,,,,,,,,,,,,,,,,,,AFNE05.jpg,AFSA09.jpg,AFNE04.jpg,AFSA12.jpg,AFNE04.jpg,FN,3,num_2,16,num_2,0.666583381419,,,2017_Apr_18_1842,59.9988646019,MAFE4ImagesEEG,001,200132,
AFNE01.JPG,AFNE01.JPG,AFNE01.JPG,AFNE01.JPG,AFNE01.JPG,AFNE01.JPG,,,,,2,9,29,9,,,,,,,,,,,,,,,,,,,AFNE07.jpg,AFSA09.jpg,AFNE20.jpg,AFSA19.jpg,AFNE07.jpg,FN,3,num_8,32,num_4,1.10029030094,,,2017_Apr_18_1842,59.9988646019,MAFE4ImagesEEG,001,200132,
AFNE01.JPG,AFNE01.JPG,AFNE01.JPG,AFNE01.JPG,AFNE01.JPG,AFNE01.JPG,,,,,3,0,30,3,,,,,,,,,,,,,,,,,,,AFNE19.jpg,AFSA05.jpg,AFSA02.jpg,AFNE12.jpg,AFNE12.jpg,FN,3,num_4,16,num_4,0.366799463343,,,2017_Apr_18_1842,59.9988646019,MAFE4ImagesEEG,001,200132,
AFNE01.JPG,AFNE01.JPG,AFNE01.JPG,AFNE01.JPG,AFNE01.JPG,AFNE01.JPG,,,,,3,1,31,2,,,,,,,,,,,,,,,,,,,AFNE06.jpg,AFSA15.jpg,AFSA03.jpg,AFNE12.jpg,AFNE12.jpg,FN,3,num_4,16,num_4,0.633456165713,,,2017_Apr_18_1842,59.9988646019,MAFE4ImagesEEG,001,200132,
AFNE01.JPG,AFNE01.JPG,AFNE01.JPG,AFNE01.JPG,AFNE01.JPG,AFNE01.JPG,,,,,3,2,32,7,,,,,,,,,,,,,,,,,,,AFNE09.jpg,AFSA05.jpg,AFNE06.jpg,AFSA18.jpg,AFNE06.jpg,FN,3,num_2,32,num_4,0.583491751706,,,2017_Apr_18_1842,59.9988646019,MAFE4ImagesEEG,001,200132,
AFNE01.JPG,AFNE01.JPG,AFNE01.JPG,AFNE01.JPG,AFNE01.JPG,AFNE01.JPG,,,,,3,3,33,0,,,,,,,,,,,,,,,,,,,AFSA18.jpg,AFSA17.jpg,AFNE13.jpg,AFNE10.jpg,AFNE13.jpg,FN,3,num_2,32,num_8,0.550132962395,,,2017_Apr_18_1842,59.9988646019,MAFE4ImagesEEG,001,200132,
AFNE01.JPG,AFNE01.JPG,AFNE01.JPG,AFNE01.JPG,AFNE01.JPG,AFNE01.JPG,,,,,3,4,34,1,,,,,,,,,,,,,,,,,,,AFSA07.jpg,AFNE08.jpg,AFSA06.jpg,AFNE18.jpg,AFSA06.jpg,FS,4,num_2,32,num_6,0.633474127098,,,2017_Apr_18_1842,59.9988646019,MAFE4ImagesEEG,001,200132,
AFNE01.JPG,AFNE01.JPG,AFNE01.JPG,AFNE01.JPG,AFNE01.JPG,AFNE01.JPG,,,,,3,5,35,6,,,,,,,,,,,,,,,,,,,AFNE19.jpg,AFNE11.jpg,AFSA20.jpg,AFSA17.jpg,AFNE11.jpg,FN,3,num_6,16,num_6,0.366816141774,,,2017_Apr_18_1842,59.9988646019,MAFE4ImagesEEG,001,200132,
AFNE01.JPG,AFNE01.JPG,AFNE01.JPG,AFNE01.JPG,AFNE01.JPG,AFNE01.JPG,,,,,3,6,36,4,,,,,,,,,,,,,,,,,,,AFNE10.jpg,AFNE04.jpg,AFSA08.jpg,AFSA01.jpg,AFSA01.jpg,FS,4,num_4,16,num_4,0.750097424505,,,2017_Apr_18_1842,59.9988646019,MAFE4ImagesEEG,001,200132,
AFNE01.JPG,AFNE01.JPG,AFNE01.JPG,AFNE01.JPG,AFNE01.JPG,AFNE01.JPG,,,,,3,7,37,8,,,,,,,,,,,,,,,,,,,AFSA15.jpg,AFNE01.jpg,AFNE18.jpg,AFSA07.jpg,AFNE18.jpg,FN,3,num_2,32,num_6,0.499710532968,,,2017_Apr_18_1842,59.9988646019,MAFE4ImagesEEG,001,200132,
AFNE01.JPG,AFNE01.JPG,AFNE01.JPG,AFNE01.JPG,AFNE01.JPG,AFNE01.JPG,,,,,3,8,38,5,,,,,,,,,,,,,,,,,,,AFSA01.jpg,AFNE02.jpg,AFNE15.jpg,AFSA06.jpg,AFSA06.jpg,FS,4,num_4,32,num_6,0.500141927041,,,2017_Apr_18_1842,59.9988646019,MAFE4ImagesEEG,001,200132,
AFNE01.JPG,AFNE01.JPG,AFNE01.JPG,AFNE01.JPG,AFNE01.JPG,AFNE01.JPG,,,,,3,9,39,9,,,,,,,,,,,,,,,,,,,AFSA11.jpg,AFNE10.jpg,AFSA01.jpg,AFNE06.jpg,AFNE06.jpg,FN,3,num_4,16,num_4,0.750095500058,,,2017_Apr_18_1842,59.9988646019,MAFE4ImagesEEG,001,200132,
AFNE01.JPG,AFNE01.JPG,AFNE01.JPG,AFNE01.JPG,AFNE01.JPG,AFNE01.JPG,,,,,4,0,40,2,,,,,,,,,,,,,,,,,,,AFNE19.jpg,AFSA06.jpg,AFNE01.jpg,AFSA12.jpg,AFSA12.jpg,FS,4,num_4,16,num_4,0.550144829729,,,2017_Apr_18_1842,59.9988646019,MAFE4ImagesEEG,001,200132,
AFNE01.JPG,AFNE01.JPG,AFNE01.JPG,AFNE01.JPG,AFNE01.JPG,AFNE01.JPG,,,,,4,1,41,6,,,,,,,,,,,,,,,,,,,AFNE19.jpg,AFNE20.jpg,AFSA06.jpg,AFSA13.jpg,AFNE20.jpg,FN,3,num_6,16,num_6,0.533481792751,,,2017_Apr_18_1842,59.9988646019,MAFE4ImagesEEG,001,200132,
AFNE01.JPG,AFNE01.JPG,AFNE01.JPG,AFNE01.JPG,AFNE01.JPG,AFNE01.JPG,,,,,4,2,42,1,,,,,,,,,,,,,,,,,,,AFNE09.jpg,AFSA05.jpg,AFNE05.jpg,AFSA12.jpg,AFNE09.jpg,FN,3,num_8,16,num_8,0.466796608758,,,2017_Apr_18_1842,59.9988646019,MAFE4ImagesEEG,001,200132,
AFNE01.JPG,AFNE01.JPG,AFNE01.JPG,AFNE01.JPG,AFNE01.JPG,AFNE01.JPG,,,,,4,3,43,4,,,,,,,,,,,,,,,,,,,AFNE02.jpg,AFNE03.jpg,AFSA08.jpg,AFSA16.jpg,AFSA08.jpg,FS,4,num_2,32,num_6,0.566873618212,,,2017_Apr_18_1842,59.9988646019,MAFE4ImagesEEG,001,200132,
AFNE01.JPG,AFNE01.JPG,AFNE01.JPG,AFNE01.JPG,AFNE01.JPG,AFNE01.JPG,,,,,4,4,44,5,,,,,,,,,,,,,,,,,,,AFNE16.jpg,AFNE02.jpg,AFSA19.jpg,AFSA10.jpg,AFNE02.jpg,FN,3,num_6,16,num_6,0.749940583075,,,2017_Apr_18_1842,59.9988646019,MAFE4ImagesEEG,001,200132,
AFNE01.JPG,AFNE01.JPG,AFNE01.JPG,AFNE01.JPG,AFNE01.JPG,AFNE01.JPG,,,,,4,5,45,0,,,,,,,,,,,,,,,,,,,AFSA20.jpg,AFNE12.jpg,AFNE08.jpg,AFSA08.jpg,AFNE08.jpg,FN,3,num_2,32,num_8,0.683162705478,,,2017_Apr_18_1842,59.9988646019,MAFE4ImagesEEG,001,200132,
AFNE01.JPG,AFNE01.JPG,AFNE01.JPG,AFNE01.JPG,AFNE01.JPG,AFNE01.JPG,,,,,4,6,46,9,,,,,,,,,,,,,,,,,,,AFNE17.jpg,AFSA08.jpg,AFSA06.jpg,AFNE01.jpg,AFSA06.jpg,FS,4,num_2,32,num_8,0.650297533604,,,2017_Apr_18_1842,59.9988646019,MAFE4ImagesEEG,001,200132,
AFNE01.JPG,AFNE01.JPG,AFNE01.JPG,AFNE01.JPG,AFNE01.JPG,AFNE01.JPG,,,,,4,7,47,8,,,,,,,,,,,,,,,,,,,AFNE19.jpg,AFSA05.jpg,AFNE20.jpg,AFSA02.jpg,AFNE19.jpg,FN,3,num_8,32,num_4,0.700107030629,,,2017_Apr_18_1842,59.9988646019,MAFE4ImagesEEG,001,200132,
AFNE01.JPG,AFNE01.JPG,AFNE01.JPG,AFNE01.JPG,AFNE01.JPG,AFNE01.JPG,,,,,4,8,48,7,,,,,,,,,,,,,,,,,,,AFSA07.jpg,AFNE11.jpg,AFNE19.jpg,AFSA06.jpg,AFSA07.jpg,FS,4,num_8,16,num_8,0.666685376447,,,2017_Apr_18_1842,59.9988646019,MAFE4ImagesEEG,001,200132,
AFNE01.JPG,AFNE01.JPG,AFNE01.JPG,AFNE01.JPG,AFNE01.JPG,AFNE01.JPG,,,,,4,9,49,3,,,,,,,,,,,,,,,,,,,AFSA19.jpg,AFNE05.jpg,AFNE14.jpg,AFSA12.jpg,AFSA12.jpg,FS,4,num_4,16,num_4,0.549838844658,,,2017_Apr_18_1842,59.9988646019,MAFE4ImagesEEG,001,200132,
AFNE01.JPG,AFNE01.JPG,AFNE01.JPG,AFNE01.JPG,AFNE01.JPG,AFNE01.JPG,,,,,5,0,50,4,,,,,,,,,,,,,,,,,,,AFSA02.jpg,AFSA16.jpg,AFNE18.jpg,AFNE06.jpg,AFNE06.jpg,FN,3,num_4,16,num_4,0.583476676969,,,2017_Apr_18_1842,59.9988646019,MAFE4ImagesEEG,001,200132,
AFNE01.JPG,AFNE01.JPG,AFNE01.JPG,AFNE01.JPG,AFNE01.JPG,AFNE01.JPG,,,,,5,1,51,2,,,,,,,,,,,,,,,,,,,AFSA09.jpg,AFSA07.jpg,AFNE18.jpg,AFNE17.jpg,AFSA07.jpg,FS,4,num_6,16,num_6,0.750099990415,,,2017_Apr_18_1842,59.9988646019,MAFE4ImagesEEG,001,200132,
AFNE01.JPG,AFNE01.JPG,AFNE01.JPG,AFNE01.JPG,AFNE01.JPG,AFNE01.JPG,,,,,5,2,52,1,,,,,,,,,,,,,,,,,,,AFSA02.jpg,AFNE14.jpg,AFNE06.jpg,AFSA10.jpg,AFSA02.jpg,FS,4,num_8,32,num_6,0.583540504056,,,2017_Apr_18_1842,59.9988646019,MAFE4ImagesEEG,001,200132,
AFNE01.JPG,AFNE01.JPG,AFNE01.JPG,AFNE01.JPG,AFNE01.JPG,AFNE01.JPG,,,,,5,3,53,3,,,,,,,,,,,,,,,,,,,AFSA07.jpg,AFNE08.jpg,AFSA05.jpg,AFNE09.jpg,AFSA07.jpg,FS,4,num_8,32,num_4,0.600135223591,,,2017_Apr_18_1842,59.9988646019,MAFE4ImagesEEG,001,200132,
AFNE01.JPG,AFNE01.JPG,AFNE01.JPG,AFNE01.JPG,AFNE01.JPG,AFNE01.JPG,,,,,5,4,54,9,,,,,,,,,,,,,,,,,,,AFSA20.jpg,AFSA14.jpg,AFNE04.jpg,AFNE01.jpg,AFNE04.jpg,FN,3,num_2,16,num_2,0.633461618272,,,2017_Apr_18_1842,59.9988646019,MAFE4ImagesEEG,001,200132,
AFNE01.JPG,AFNE01.JPG,AFNE01.JPG,AFNE01.JPG,AFNE01.JPG,AFNE01.JPG,,,,,5,5,55,0,,,,,,,,,,,,,,,,,,,AFSA06.jpg,AFNE08.jpg,AFSA08.jpg,AFNE04.jpg,AFSA06.jpg,FS,4,num_8,16,num_8,0.816643407743,,,2017_Apr_18_1842,59.9988646019,MAFE4ImagesEEG,001,200132,
AFNE01.JPG,AFNE01.JPG,AFNE01.JPG,AFNE01.JPG,AFNE01.JPG,AFNE01.JPG,,,,,5,6,56,6,,,,,,,,,,,,,,,,,,,AFSA08.jpg,AFNE17.jpg,AFNE10.jpg,AFSA19.jpg,AFNE17.jpg,FN,3,num_6,16,num_6,0.466695896685,,,2017_Apr_18_1842,59.9988646019,MAFE4ImagesEEG,001,200132,
AFNE01.JPG,AFNE01.JPG,AFNE01.JPG,AFNE01.JPG,AFNE01.JPG,AFNE01.JPG,,,,,5,7,57,8,,,,,,,,,,,,,,,,,,,AFSA03.jpg,AFNE16.jpg,AFNE09.jpg,AFSA19.jpg,AFSA03.jpg,FS,4,num_8,32,num_4,0.700121143149,,,2017_Apr_18_1842,59.9988646019,MAFE4ImagesEEG,001,200132,
AFNE01.JPG,AFNE01.JPG,AFNE01.JPG,AFNE01.JPG,AFNE01.JPG,AFNE01.JPG,,,,,5,8,58,7,,,,,,,,,,,,,,,,,,,AFNE06.jpg,AFSA04.jpg,AFNE03.jpg,AFSA07.jpg,AFSA07.jpg,FS,4,num_4,16,num_4,0.666756259787,,,2017_Apr_18_1842,59.9988646019,MAFE4ImagesEEG,001,200132,
AFNE01.JPG,AFNE01.JPG,AFNE01.JPG,AFNE01.JPG,AFNE01.JPG,AFNE01.JPG,,,,,5,9,59,5,,,,,,,,,,,,,,,,,,,AFNE01.jpg,AFSA15.jpg,AFSA04.jpg,AFNE13.jpg,AFSA15.jpg,FS,4,num_6,32,num_8,0.56680337635,,,2017_Apr_18_1842,59.9988646019,MAFE4ImagesEEG,001,200132,
,,,,,,,,,,,,,,,,,,,,,,,,,,,,,,,,,,,,,,,,,,,space,7.21626762983,2017_Apr_18_1842,59.9988646019,MAFE4ImagesEEG,001,200132,
AFNE01.JPG,AFNE01.JPG,AFNE01.JPG,AFNE01.JPG,AFNE01.JPG,AFNE01.JPG,,,,,,,,,0,0,0,6,,,,,,,,,,,,,,,AMSA09.jpg,AMNE11.jpg,AMNE06.jpg,AMSA04.jpg,AMSA04.jpg,MS,2,num_4,16,num_4,0.35017748097,,,2017_Apr_18_1842,59.9988646019,MAFE4ImagesEEG,001,200132,
AFNE01.JPG,AFNE01.JPG,AFNE01.JPG,AFNE01.JPG,AFNE01.JPG,AFNE01.JPG,,,,,,,,,0,1,1,4,,,,,,,,,,,,,,,AMSA01.jpg,AMSA12.jpg,AMNE02.jpg,AMNE12.jpg,AMSA12.jpg,MS,2,num_6,16,num_6,0.616786713959,,,2017_Apr_18_1842,59.9988646019,MAFE4ImagesEEG,001,200132,
AFNE01.JPG,AFNE01.JPG,AFNE01.JPG,AFNE01.JPG,AFNE01.JPG,AFNE01.JPG,,,,,,,,,0,2,2,8,,,,,,,,,,,,,,,AMNE10.jpg,AMSA07.jpg,AMNE13.jpg,AMSA08.jpg,AMSA07.jpg,MS,2,num_6,16,num_6,0.583620047342,,,2017_Apr_18_1842,59.9988646019,MAFE4ImagesEEG,001,200132,
AFNE01.JPG,AFNE01.JPG,AFNE01.JPG,AFNE01.JPG,AFNE01.JPG,AFNE01.JPG,,,,,,,,,0,3,3,1,,,,,,,,,,,,,,,AMSA16.jpg,AMSA12.jpg,AMNE20.jpg,AMNE13.jpg,AMSA12.jpg,MS,2,num_6,32,num_8,0.683648945938,,,2017_Apr_18_1842,59.9988646019,MAFE4ImagesEEG,001,200132,
AFNE01.JPG,AFNE01.JPG,AFNE01.JPG,AFNE01.JPG,AFNE01.JPG,AFNE01.JPG,,,,,,,,,0,4,4,0,,,,,,,,,,,,,,,AMSA03.jpg,AMSA01.jpg,AMNE18.jpg,AMNE12.jpg,AMSA03.jpg,MS,2,num_8,16,num_8,0.566808187446,,,2017_Apr_18_1842,59.9988646019,MAFE4ImagesEEG,001,200132,
AFNE01.JPG,AFNE01.JPG,AFNE01.JPG,AFNE01.JPG,AFNE01.JPG,AFNE01.JPG,,,,,,,,,0,5,5,7,,,,,,,,,,,,,,,AMNE08.jpg,AMNE18.jpg,AMSA10.jpg,AMSA15.jpg,AMSA15.jpg,MS,2,num_4,16,num_4,0.833500491863,,,2017_Apr_18_1842,59.9988646019,MAFE4ImagesEEG,001,200132,
AFNE01.JPG,AFNE01.JPG,AFNE01.JPG,AFNE01.JPG,AFNE01.JPG,AFNE01.JPG,,,,,,,,,0,6,6,9,,,,,,,,,,,,,,,AMNE01.jpg,AMSA07.jpg,AMNE03.jpg,AMSA16.jpg,AMNE01.jpg,MN,1,num_8,16,num_8,0.483514492124,,,2017_Apr_18_1842,59.9988646019,MAFE4ImagesEEG,001,200132,
AFNE01.JPG,AFNE01.JPG,AFNE01.JPG,AFNE01.JPG,AFNE01.JPG,AFNE01.JPG,,,,,,,,,0,7,7,2,,,,,,,,,,,,,,,AMNE12.jpg,AMSA03.jpg,AMNE10.jpg,AMSA06.jpg,AMSA03.jpg,MS,2,num_6,16,num_6,0.367146503035,,,2017_Apr_18_1842,59.9988646019,MAFE4ImagesEEG,001,200132,
AFNE01.JPG,AFNE01.JPG,AFNE01.JPG,AFNE01.JPG,AFNE01.JPG,AFNE01.JPG,,,,,,,,,0,8,8,5,,,,,,,,,,,,,,,AMNE20.jpg,AMSA14.jpg,AMNE07.jpg,AMSA02.jpg,AMNE20.jpg,MN,1,num_8,16,num_8,0.600127846599,,,2017_Apr_18_1842,59.9988646019,MAFE4ImagesEEG,001,200132,
AFNE01.JPG,AFNE01.JPG,AFNE01.JPG,AFNE01.JPG,AFNE01.JPG,AFNE01.JPG,,,,,,,,,0,9,9,3,,,,,,,,,,,,,,,AMNE18.jpg,AMSA16.jpg,AMSA15.jpg,AMNE11.jpg,AMSA16.jpg,MS,2,num_6,16,num_6,0.816798324726,,,2017_Apr_18_1842,59.9988646019,MAFE4ImagesEEG,001,200132,
AFNE01.JPG,AFNE01.JPG,AFNE01.JPG,AFNE01.JPG,AFNE01.JPG,AFNE01.JPG,,,,,,,,,1,0,10,8,,,,,,,,,,,,,,,AMNE18.jpg,AMSA17.jpg,AMSA09.jpg,AMNE13.jpg,AMSA17.jpg,MS,2,num_6,32,num_8,0.783445950176,,,2017_Apr_18_1842,59.9988646019,MAFE4ImagesEEG,001,200132,
AFNE01.JPG,AFNE01.JPG,AFNE01.JPG,AFNE01.JPG,AFNE01.JPG,AFNE01.JPG,,,,,,,,,1,1,11,5,,,,,,,,,,,,,,,AMSA07.jpg,AMSA03.jpg,AMNE12.jpg,AMNE10.jpg,AMNE12.jpg,MN,1,num_2,32,num_4,0.550180111037,,,2017_Apr_18_1842,59.9988646019,MAFE4ImagesEEG,001,200132,
AFNE01.JPG,AFNE01.JPG,AFNE01.JPG,AFNE01.JPG,AFNE01.JPG,AFNE01.JPG,,,,,,,,,1,2,12,3,,,,,,,,,,,,,,,AMSA11.jpg,AMNE17.jpg,AMSA03.jpg,AMNE12.jpg,AMSA11.jpg,MS,2,num_8,32,num_4,0.566881636696,,,2017_Apr_18_1842,59.9988646019,MAFE4ImagesEEG,001,200132,
AFNE01.JPG,AFNE01.JPG,AFNE01.JPG,AFNE01.JPG,AFNE01.JPG,AFNE01.JPG,,,,,,,,,1,3,13,9,,,,,,,,,,,,,,,AMNE17.jpg,AMSA08.jpg,AMNE02.jpg,AMSA05.jpg,AMSA08.jpg,MS,2,num_6,16,num_6,0.533470566894,,,2017_Apr_18_1842,59.9988646019,MAFE4ImagesEEG,001,200132,
AFNE01.JPG,AFNE01.JPG,AFNE01.JPG,AFNE01.JPG,AFNE01.JPG,AFNE01.JPG,,,,,,,,,1,4,14,0,,,,,,,,,,,,,,,AMNE20.jpg,AMSA09.jpg,AMNE16.jpg,AMSA06.jpg,AMSA09.jpg,MS,2,num_6,32,num_4,0.61686882317,,,2017_Apr_18_1842,59.9988646019,MAFE4ImagesEEG,001,200132,
AFNE01.JPG,AFNE01.JPG,AFNE01.JPG,AFNE01.JPG,AFNE01.JPG,AFNE01.JPG,,,,,,,,,1,5,15,4,,,,,,,,,,,,,,,AMSA20.jpg,AMNE05.jpg,AMSA18.jpg,AMNE07.jpg,AMNE05.jpg,MN,1,num_6,16,num_6,0.733407445441,,,2017_Apr_18_1842,59.9988646019,MAFE4ImagesEEG,001,200132,
AFNE01.JPG,AFNE01.JPG,AFNE01.JPG,AFNE01.JPG,AFNE01.JPG,AFNE01.JPG,,,,,,,,,1,6,16,7,,,,,,,,,,,,,,,AMNE20.jpg,AMSA04.jpg,AMNE17.jpg,AMSA20.jpg,AMNE17.jpg,MN,1,num_2,32,num_4,0.700116973545,,,2017_Apr_18_1842,59.9988646019,MAFE4ImagesEEG,001,200132,
AFNE01.JPG,AFNE01.JPG,AFNE01.JPG,AFNE01.JPG,AFNE01.JPG,AFNE01.JPG,,,,,,,,,1,7,17,6,,,,,,,,,,,,,,,AMSA11.jpg,AMNE09.jpg,AMNE10.jpg,AMSA14.jpg,AMSA14.jpg,MS,2,num_4,16,num_4,0.533507772634,,,2017_Apr_18_1842,59.9988646019,MAFE4ImagesEEG,001,200132,
AFNE01.JPG,AFNE01.JPG,AFNE01.JPG,AFNE01.JPG,AFNE01.JPG,AFNE01.JPG,,,,,,,,,1,8,18,1,,,,,,,,,,,,,,,AMNE18.jpg,AMSA16.jpg,AMNE02.jpg,AMSA18.jpg,AMNE18.jpg,MN,1,num_8,32,num_4,0.583486940624,,,2017_Apr_18_1842,59.9988646019,MAFE4ImagesEEG,001,200132,
AFNE01.JPG,AFNE01.JPG,AFNE01.JPG,AFNE01.JPG,AFNE01.JPG,AFNE01.JPG,,,,,,,,,1,9,19,2,,,,,,,,,,,,,,,AMNE18.jpg,AMSA04.jpg,AMNE20.jpg,AMSA11.jpg,AMNE20.jpg,MN,1,num_2,16,num_2,0.583487261363,,,2017_Apr_18_1842,59.9988646019,MAFE4ImagesEEG,001,200132,
AFNE01.JPG,AFNE01.JPG,AFNE01.JPG,AFNE01.JPG,AFNE01.JPG,AFNE01.JPG,,,,,,,,,2,0,20,6,,,,,,,,,,,,,,,AMNE11.jpg,AMNE19.jpg,AMSA16.jpg,AMSA06.jpg,AMNE11.jpg,MN,1,num_8,32,num_6,0.533493339375,,,2017_Apr_18_1842,59.9988646019,MAFE4ImagesEEG,001,200132,
AFNE01.JPG,AFNE01.JPG,AFNE01.JPG,AFNE01.JPG,AFNE01.JPG,AFNE01.JPG,,,,,,,,,2,1,21,4,,,,,,,,,,,,,,,AMSA02.jpg,AMNE08.jpg,AMNE16.jpg,AMSA05.jpg,AMNE08.jpg,MN,1,num_6,32,num_8,0.633443656887,,,2017_Apr_18_1842,59.9988646019,MAFE4ImagesEEG,001,200132,
AFNE01.JPG,AFNE01.JPG,AFNE01.JPG,AFNE01.JPG,AFNE01.JPG,AFNE01.JPG,,,,,,,,,2,2,22,7,,,,,,,,,,,,,,,AMNE12.jpg,AMNE09.jpg,AMSA18.jpg,AMSA12.jpg,AMNE12.jpg,MN,1,num_8,32,num_4,0.683496274127,,,2017_Apr_18_1842,59.9988646019,MAFE4ImagesEEG,001,200132,
AFNE01.JPG,AFNE01.JPG,AFNE01.JPG,AFNE01.JPG,AFNE01.JPG,AFNE01.JPG,,,,,,,,,2,3,23,3,,,,,,,,,,,,,,,AMSA19.jpg,AMNE13.jpg,AMSA18.jpg,AMNE18.jpg,AMNE13.jpg,MN,1,num_6,16,num_6,0.48348081451,,,2017_Apr_18_1842,59.9988646019,MAFE4ImagesEEG,001,200132,
AFNE01.JPG,AFNE01.JPG,AFNE01.JPG,AFNE01.JPG,AFNE01.JPG,AFNE01.JPG,,,,,,,,,2,4,24,8,,,,,,,,,,,,,,,AMSA11.jpg,AMSA09.jpg,AMNE09.jpg,AMNE17.jpg,AMNE17.jpg,MN,1,num_4,16,num_4,0.716781934956,,,2017_Apr_18_1842,59.9988646019,MAFE4ImagesEEG,001,200132,
AFNE01.JPG,AFNE01.JPG,AFNE01.JPG,AFNE01.JPG,AFNE01.JPG,AFNE01.JPG,,,,,,,,,2,5,25,2,,,,,,,,,,,,,,,AMSA08.jpg,AMSA06.jpg,AMNE09.jpg,AMNE20.jpg,AMSA06.jpg,MS,2,num_6,32,num_4,0.500148021092,,,2017_Apr_18_1842,59.9988646019,MAFE4ImagesEEG,001,200132,
AFNE01.JPG,AFNE01.JPG,AFNE01.JPG,AFNE01.JPG,AFNE01.JPG,AFNE01.JPG,,,,,,,,,2,6,26,1,,,,,,,,,,,,,,,AMSA09.jpg,AMSA05.jpg,AMNE20.jpg,AMNE12.jpg,AMSA05.jpg,MS,2,num_6,16,num_6,0.633471881927,,,2017_Apr_18_1842,59.9988646019,MAFE4ImagesEEG,001,200132,
AFNE01.JPG,AFNE01.JPG,AFNE01.JPG,AFNE01.JPG,AFNE01.JPG,AFNE01.JPG,,,,,,,,,2,7,27,9,,,,,,,,,,,,,,,AMNE16.jpg,AMNE03.jpg,AMSA15.jpg,AMSA18.jpg,AMNE16.jpg,MN,1,num_8,16,num_8,0.683486972703,,,2017_Apr_18_1842,59.9988646019,MAFE4ImagesEEG,001,200132,
AFNE01.JPG,AFNE01.JPG,AFNE01.JPG,AFNE01.JPG,AFNE01.JPG,AFNE01.JPG,,,,,,,,,2,8,28,0,,,,,,,,,,,,,,,AMNE03.jpg,AMSA13.jpg,AMSA16.jpg,AMNE18.jpg,AMSA13.jpg,MS,2,num_6,16,num_6,0.966799655784,,,2017_Apr_18_1842,59.9988646019,MAFE4ImagesEEG,001,200132,
AFNE01.JPG,AFNE01.JPG,AFNE01.JPG,AFNE01.JPG,AFNE01.JPG,AFNE01.JPG,,,,,,,,,2,9,29,5,,,,,,,,,,,,,,,AMNE15.jpg,AMNE13.jpg,AMSA18.jpg,AMSA01.jpg,AMSA18.jpg,MS,2,num_2,16,num_2,0.91673260527,,,2017_Apr_18_1842,59.9988646019,MAFE4ImagesEEG,001,200132,
AFNE01.JPG,AFNE01.JPG,AFNE01.JPG,AFNE01.JPG,AFNE01.JPG,AFNE01.JPG,,,,,,,,,3,0,30,2,,,,,,,,,,,,,,,AMSA01.jpg,AMNE18.jpg,AMSA08.jpg,AMNE03.jpg,AMSA01.jpg,MS,2,num_8,16,num_8,0.500114664232,,,2017_Apr_18_1842,59.9988646019,MAFE4ImagesEEG,001,200132,
AFNE01.JPG,AFNE01.JPG,AFNE01.JPG,AFNE01.JPG,AFNE01.JPG,AFNE01.JPG,,,,,,,,,3,1,31,8,,,,,,,,,,,,,,,AMSA10.jpg,AMNE05.jpg,AMSA06.jpg,AMNE15.jpg,AMSA10.jpg,MS,2,num_8,32,num_4,0.617090774627,,,2017_Apr_18_1842,59.9988646019,MAFE4ImagesEEG,001,200132,
AFNE01.JPG,AFNE01.JPG,AFNE01.JPG,AFNE01.JPG,AFNE01.JPG,AFNE01.JPG,,,,,,,,,3,2,32,9,,,,,,,,,,,,,,,AMSA11.jpg,AMSA07.jpg,AMNE06.jpg,AMNE13.jpg,AMSA11.jpg,MS,2,num_8,16,num_8,0.533496226024,,,2017_Apr_18_1842,59.9988646019,MAFE4ImagesEEG,001,200132,
AFNE01.JPG,AFNE01.JPG,AFNE01.JPG,AFNE01.JPG,AFNE01.JPG,AFNE01.JPG,,,,,,,,,3,3,33,4,,,,,,,,,,,,,,,AMSA03.jpg,AMSA15.jpg,AMNE07.jpg,AMNE17.jpg,AMNE07.jpg,MN,1,num_2,32,num_6,0.55013681126,,,2017_Apr_18_1842,59.9988646019,MAFE4ImagesEEG,001,200132,
AFNE01.JPG,AFNE01.JPG,AFNE01.JPG,AFNE01.JPG,AFNE01.JPG,AFNE01.JPG,,,,,,,,,3,4,34,6,,,,,,,,,,,,,,,AMNE19.jpg,AMSA05.jpg,AMNE16.jpg,AMSA19.jpg,AMNE19.jpg,MN,1,num_8,16,num_8,0.333535933532,,,2017_Apr_18_1842,59.9988646019,MAFE4ImagesEEG,001,200132,
AFNE01.JPG,AFNE01.JPG,AFNE01.JPG,AFNE01.JPG,AFNE01.JPG,AFNE01.JPG,,,,,,,,,3,5,35,7,,,,,,,,,,,,,,,AMNE08.jpg,AMSA10.jpg,AMNE20.jpg,AMSA12.jpg,AMNE20.jpg,MN,1,num_2,16,num_2,0.483566772586,,,2017_Apr_18_1842,59.9988646019,MAFE4ImagesEEG,001,200132,
AFNE01.JPG,AFNE01.JPG,AFNE01.JPG,AFNE01.JPG,AFNE01.JPG,AFNE01.JPG,,,,,,,,,3,6,36,1,,,,,,,,,,,,,,,AMNE06.jpg,AMNE05.jpg,AMSA05.jpg,AMSA16.jpg,AMSA05.jpg,MS,2,num_2,32,num_8,0.58353184411,,,2017_Apr_18_1842,59.9988646019,MAFE4ImagesEEG,001,200132,
AFNE01.JPG,AFNE01.JPG,AFNE01.JPG,AFNE01.JPG,AFNE01.JPG,AFNE01.JPG,,,,,,,,,3,7,37,5,,,,,,,,,,,,,,,AMSA13.jpg,AMNE19.jpg,AMNE09.jpg,AMSA20.jpg,AMNE19.jpg,MN,1,num_6,16,num_6,0.533479226855,,,2017_Apr_18_1842,59.9988646019,MAFE4ImagesEEG,001,200132,
AFNE01.JPG,AFNE01.JPG,AFNE01.JPG,AFNE01.JPG,AFNE01.JPG,AFNE01.JPG,,,,,,,,,3,8,38,0,,,,,,,,,,,,,,,AMSA08.jpg,AMNE16.jpg,AMSA14.jpg,AMNE08.jpg,AMSA14.jpg,MS,2,num_2,16,num_2,0.766793818329,,,2017_Apr_18_1842,59.9988646019,MAFE4ImagesEEG,001,200132,
AFNE01.JPG,AFNE01.JPG,AFNE01.JPG,AFNE01.JPG,AFNE01.JPG,AFNE01.JPG,,,,,,,,,3,9,39,3,,,,,,,,,,,,,,,AMSA12.jpg,AMSA05.jpg,AMNE12.jpg,AMNE13.jpg,AMSA05.jpg,MS,2,num_6,16,num_6,0.533716573773,,,2017_Apr_18_1842,59.9988646019,MAFE4ImagesEEG,001,200132,
AFNE01.JPG,AFNE01.JPG,AFNE01.JPG,AFNE01.JPG,AFNE01.JPG,AFNE01.JPG,,,,,,,,,4,0,40,2,,,,,,,,,,,,,,,AMNE04.jpg,AMSA13.jpg,AMSA05.jpg,AMNE09.jpg,AMNE04.jpg,MN,1,num_8,16,num_8,0.316825747912,,,2017_Apr_18_1842,59.9988646019,MAFE4ImagesEEG,001,200132,
AFNE01.JPG,AFNE01.JPG,AFNE01.JPG,AFNE01.JPG,AFNE01.JPG,AFNE01.JPG,,,,,,,,,4,1,41,6,,,,,,,,,,,,,,,AMNE08.jpg,AMSA09.jpg,AMSA19.jpg,AMNE12.jpg,AMNE08.jpg,MN,1,num_8,16,num_8,0.650132994459,,,2017_Apr_18_1842,59.9988646019,MAFE4ImagesEEG,001,200132,
AFNE01.JPG,AFNE01.JPG,AFNE01.JPG,AFNE01.JPG,AFNE01.JPG,AFNE01.JPG,,,,,,,,,4,2,42,8,,,,,,,,,,,,,,,AMNE15.jpg,AMSA14.jpg,AMSA11.jpg,AMNE17.jpg,AMSA14.jpg,MS,2,num_6,16,num_6,0.466757157861,,,2017_Apr_18_1842,59.9988646019,MAFE4ImagesEEG,001,200132,
AFNE01.JPG,AFNE01.JPG,AFNE01.JPG,AFNE01.JPG,AFNE01.JPG,AFNE01.JPG,,,,,,,,,4,3,43,9,,,,,,,,,,,,,,,AMSA11.jpg,AMSA02.jpg,AMNE02.jpg,AMNE20.jpg,AMNE20.jpg,MN,1,num_4,16,num_4,0.516765833847,,,2017_Apr_18_1842,59.9988646019,MAFE4ImagesEEG,001,200132,
AFNE01.JPG,AFNE01.JPG,AFNE01.JPG,AFNE01.JPG,AFNE01.JPG,AFNE01.JPG,,,,,,,,,4,4,44,0,,,,,,,,,,,,,,,AMNE06.jpg,AMSA10.jpg,AMSA04.jpg,AMNE02.jpg,AMNE02.jpg,MN,1,num_4,32,num_8,0.850133379339,,,2017_Apr_18_1842,59.9988646019,MAFE4ImagesEEG,001,200132,
AFNE01.JPG,AFNE01.JPG,AFNE01.JPG,AFNE01.JPG,AFNE01.JPG,AFNE01.JPG,,,,,,,,,4,5,45,7,,,,,,,,,,,,,,,AMSA19.jpg,AMNE01.jpg,AMSA06.jpg,AMNE02.jpg,AMSA19.jpg,MS,2,num_8,16,num_8,0.650139409234,,,2017_Apr_18_1842,59.9988646019,MAFE4ImagesEEG,001,200132,
AFNE01.JPG,AFNE01.JPG,AFNE01.JPG,AFNE01.JPG,AFNE01.JPG,AFNE01.JPG,,,,,,,,,4,6,46,5,,,,,,,,,,,,,,,AMNE06.jpg,AMSA18.jpg,AMSA15.jpg,AMNE05.jpg,AMNE05.jpg,MN,1,num_4,32,num_8,0.583494317616,,,2017_Apr_18_1842,59.9988646019,MAFE4ImagesEEG,001,200132,
AFNE01.JPG,AFNE01.JPG,AFNE01.JPG,AFNE01.JPG,AFNE01.JPG,AFNE01.JPG,,,,,,,,,4,7,47,4,,,,,,,,,,,,,,,AMNE15.jpg,AMSA09.jpg,AMSA01.jpg,AMNE10.jpg,AMNE10.jpg,MN,1,num_4,32,num_8,0.650206764461,,,2017_Apr_18_1842,59.9988646019,MAFE4ImagesEEG,001,200132,
AFNE01.JPG,AFNE01.JPG,AFNE01.JPG,AFNE01.JPG,AFNE01.JPG,AFNE01.JPG,,,,,,,,,4,8,48,1,,,,,,,,,,,,,,,AMNE05.jpg,AMSA03.jpg,AMSA16.jpg,AMNE01.jpg,AMSA16.jpg,MS,2,num_2,32,num_6,0.600192956626,,,2017_Apr_18_1842,59.9988646019,MAFE4ImagesEEG,001,200132,
AFNE01.JPG,AFNE01.JPG,AFNE01.JPG,AFNE01.JPG,AFNE01.JPG,AFNE01.JPG,,,,,,,,,4,9,49,3,,,,,,,,,,,,,,,AMNE09.jpg,AMSA09.jpg,AMNE05.jpg,AMSA15.jpg,AMNE09.jpg,MN,1,num_8,16,num_8,0.583502656838,,,2017_Apr_18_1842,59.9988646019,MAFE4ImagesEEG,001,200132,
AFNE01.JPG,AFNE01.JPG,AFNE01.JPG,AFNE01.JPG,AFNE01.JPG,AFNE01.JPG,,,,,,,,,5,0,50,0,,,,,,,,,,,,,,,AMSA03.jpg,AMNE19.jpg,AMNE04.jpg,AMSA10.jpg,AMNE04.jpg,MN,1,num_2,16,num_2,0.733448820785,,,2017_Apr_18_1842,59.9988646019,MAFE4ImagesEEG,001,200132,
AFNE01.JPG,AFNE01.JPG,AFNE01.JPG,AFNE01.JPG,AFNE01.JPG,AFNE01.JPG,,,,,,,,,5,1,51,8,,,,,,,,,,,,,,,AMSA03.jpg,AMNE09.jpg,AMSA20.jpg,AMNE08.jpg,AMNE09.jpg,MN,1,num_6,32,num_8,0.550442796346,,,2017_Apr_18_1842,59.9988646019,MAFE4ImagesEEG,001,200132,
AFNE01.JPG,AFNE01.JPG,AFNE01.JPG,AFNE01.JPG,AFNE01.JPG,AFNE01.JPG,,,,,,,,,5,2,52,9,,,,,,,,,,,,,,,AMNE15.jpg,AMNE12.jpg,AMSA05.jpg,AMSA07.jpg,AMNE15.jpg,MN,1,num_8,16,num_8,0.650162502454,,,2017_Apr_18_1842,59.9988646019,MAFE4ImagesEEG,001,200132,
AFNE01.JPG,AFNE01.JPG,AFNE01.JPG,AFNE01.JPG,AFNE01.JPG,AFNE01.JPG,,,,,,,,,5,3,53,5,,,,,,,,,,,,,,,AMNE01.jpg,AMSA14.jpg,AMSA01.jpg,AMNE09.jpg,AMNE01.jpg,MN,1,num_8,16,num_8,0.600141638381,,,2017_Apr_18_1842,59.9988646019,MAFE4ImagesEEG,001,200132,
AFNE01.JPG,AFNE01.JPG,AFNE01.JPG,AFNE01.JPG,AFNE01.JPG,AFNE01.JPG,,,,,,,,,5,4,54,1,,,,,,,,,,,,,,,AMNE18.jpg,AMNE16.jpg,AMSA10.jpg,AMSA01.jpg,AMSA10.jpg,MS,2,num_2,32,num_6,0.716813367384,,,2017_Apr_18_1842,59.9988646019,MAFE4ImagesEEG,001,200132,
AFNE01.JPG,AFNE01.JPG,AFNE01.JPG,AFNE01.JPG,AFNE01.JPG,AFNE01.JPG,,,,,,,,,5,5,55,3,,,,,,,,,,,,,,,AMNE18.jpg,AMSA19.jpg,AMSA16.jpg,AMNE10.jpg,AMSA19.jpg,MS,2,num_6,16,num_6,0.833453984684,,,2017_Apr_18_1842,59.9988646019,MAFE4ImagesEEG,001,200132,
AFNE01.JPG,AFNE01.JPG,AFNE01.JPG,AFNE01.JPG,AFNE01.JPG,AFNE01.JPG,,,,,,,,,5,6,56,7,,,,,,,,,,,,,,,AMNE14.jpg,AMSA20.jpg,AMNE09.jpg,AMSA10.jpg,AMSA20.jpg,MS,2,num_6,16,num_6,0.833450456543,,,2017_Apr_18_1842,59.9988646019,MAFE4ImagesEEG,001,200132,
AFNE01.JPG,AFNE01.JPG,AFNE01.JPG,AFNE01.JPG,AFNE01.JPG,AFNE01.JPG,,,,,,,,,5,7,57,4,,,,,,,,,,,,,,,AMNE01.jpg,AMNE13.jpg,AMSA14.jpg,AMSA18.jpg,AMNE13.jpg,MN,1,num_6,16,num_6,0.700119539455,,,2017_Apr_18_1842,59.9988646019,MAFE4ImagesEEG,001,200132,
AFNE01.JPG,AFNE01.JPG,AFNE01.JPG,AFNE01.JPG,AFNE01.JPG,AFNE01.JPG,,,,,,,,,5,8,58,2,,,,,,,,,,,,,,,AMSA13.jpg,AMNE16.jpg,AMSA06.jpg,AMNE15.jpg,AMNE16.jpg,MN,1,num_6,16,num_6,0.900109019218,,,2017_Apr_18_1842,59.9988646019,MAFE4ImagesEEG,001,200132,
AFNE01.JPG,AFNE01.JPG,AFNE01.JPG,AFNE01.JPG,AFNE01.JPG,AFNE01.JPG,,,,,,,,,5,9,59,6,,,,,,,,,,,,,,,AMNE15.jpg,AMNE18.jpg,AMSA18.jpg,AMSA07.jpg,AMSA18.jpg,MS,2,num_2,32,num_4,0.700311020686,,,2017_Apr_18_1842,59.9988646019,MAFE4ImagesEEG,001,200132,
,,,,,,,,,,,,,,,,,,,,,,,,,,,,,,,,,,,,,,,,,,,space,1.71642527309,2017_Apr_18_1842,59.9988646019,MAFE4ImagesEEG,001,200132,
AFNE01.JPG,AFNE01.JPG,AFNE01.JPG,AFNE01.JPG,AFNE01.JPG,AFNE01.JPG,,,,,,,,,,,,,0,0,0,7,,,,,,,,,,,AFSA04.jpg,AFNE06.jpg,AFSA14.jpg,AFNE05.jpg,AFNE05.jpg,FN,3,num_4,32,num_6,0.566815243699,,,2017_Apr_18_1842,59.9988646019,MAFE4ImagesEEG,001,200132,
AFNE01.JPG,AFNE01.JPG,AFNE01.JPG,AFNE01.JPG,AFNE01.JPG,AFNE01.JPG,,,,,,,,,,,,,0,1,1,6,,,,,,,,,,,AFSA07.jpg,AFNE19.jpg,AFSA06.jpg,AFNE07.jpg,AFNE19.jpg,FN,3,num_6,16,num_6,0.466764214114,,,2017_Apr_18_1842,59.9988646019,MAFE4ImagesEEG,001,200132,
AFNE01.JPG,AFNE01.JPG,AFNE01.JPG,AFNE01.JPG,AFNE01.JPG,AFNE01.JPG,,,,,,,,,,,,,0,2,2,8,,,,,,,,,,,AFSA13.jpg,AFNE08.jpg,AFSA17.jpg,AFNE14.jpg,AFSA17.jpg,FS,4,num_2,16,num_2,0.733461971089,,,2017_Apr_18_1842,59.9988646019,MAFE4ImagesEEG,001,200132,
AFNE01.JPG,AFNE01.JPG,AFNE01.JPG,AFNE01.JPG,AFNE01.JPG,AFNE01.JPG,,,,,,,,,,,,,0,3,3,9,,,,,,,,,,,AFSA17.jpg,AFSA15.jpg,AFNE10.jpg,AFNE09.jpg,AFNE09.jpg,FN,3,num_4,32,num_6,0.550176262172,,,2017_Apr_18_1842,59.9988646019,MAFE4ImagesEEG,001,200132,
AFNE01.JPG,AFNE01.JPG,AFNE01.JPG,AFNE01.JPG,AFNE01.JPG,AFNE01.JPG,,,,,,,,,,,,,0,4,4,4,,,,,,,,,,,AFSA06.jpg,AFNE01.jpg,AFSA09.jpg,AFNE04.jpg,AFNE04.jpg,FN,3,num_4,32,num_6,0.433461233391,,,2017_Apr_18_1842,59.9988646019,MAFE4ImagesEEG,001,200132,
AFNE01.JPG,AFNE01.JPG,AFNE01.JPG,AFNE01.JPG,AFNE01.JPG,AFNE01.JPG,,,,,,,,,,,,,0,5,5,2,,,,,,,,,,,AFSA12.jpg,AFNE19.jpg,AFNE10.jpg,AFSA14.jpg,AFNE19.jpg,FN,3,num_6,16,num_6,0.400271794308,,,2017_Apr_18_1842,59.9988646019,MAFE4ImagesEEG,001,200132,
AFNE01.JPG,AFNE01.JPG,AFNE01.JPG,AFNE01.JPG,AFNE01.JPG,AFNE01.JPG,,,,,,,,,,,,,0,6,6,5,,,,,,,,,,,AFSA06.jpg,AFNE01.jpg,AFNE08.jpg,AFSA02.jpg,AFNE01.jpg,FN,3,num_6,32,num_8,0.716804707423,,,2017_Apr_18_1842,59.9988646019,MAFE4ImagesEEG,001,200132,
AFNE01.JPG,AFNE01.JPG,AFNE01.JPG,AFNE01.JPG,AFNE01.JPG,AFNE01.JPG,,,,,,,,,,,,,0,7,7,3,,,,,,,,,,,AFSA01.jpg,AFNE12.jpg,AFSA15.jpg,AFNE16.jpg,AFSA01.jpg,FS,4,num_8,32,num_2,0.850090079577,,,2017_Apr_18_1842,59.9988646019,MAFE4ImagesEEG,001,200132,
AFNE01.JPG,AFNE01.JPG,AFNE01.JPG,AFNE01.JPG,AFNE01.JPG,AFNE01.JPG,,,,,,,,,,,,,0,8,8,0,,,,,,,,,,,AFSA07.jpg,AFNE09.jpg,AFSA10.jpg,AFNE16.jpg,AFNE09.jpg,FN,3,num_6,32,num_8,0.55017658291,,,2017_Apr_18_1842,59.9988646019,MAFE4ImagesEEG,001,200132,
AFNE01.JPG,AFNE01.JPG,AFNE01.JPG,AFNE01.JPG,AFNE01.JPG,AFNE01.JPG,,,,,,,,,,,,,0,9,9,1,,,,,,,,,,,AFSA16.jpg,AFNE14.jpg,AFSA09.jpg,AFNE05.jpg,AFNE05.jpg,FN,3,num_4,16,num_4,0.600130091785,,,2017_Apr_18_1842,59.9988646019,MAFE4ImagesEEG,001,200132,
AFNE01.JPG,AFNE01.JPG,AFNE01.JPG,AFNE01.JPG,AFNE01.JPG,AFNE01.JPG,,,,,,,,,,,,,1,0,10,9,,,,,,,,,,,AFNE06.jpg,AFSA01.jpg,AFNE09.jpg,AFSA04.jpg,AFNE09.jpg,FN,3,num_2,32,num_6,0.766782271719,,,2017_Apr_18_1842,59.9988646019,MAFE4ImagesEEG,001,200132,
AFNE01.JPG,AFNE01.JPG,AFNE01.JPG,AFNE01.JPG,AFNE01.JPG,AFNE01.JPG,,,,,,,,,,,,,1,1,11,3,,,,,,,,,,,AFSA06.jpg,AFSA05.jpg,AFNE18.jpg,AFNE01.jpg,AFNE01.jpg,FN,3,num_4,32,num_6,0.566797603053,,,2017_Apr_18_1842,59.9988646019,MAFE4ImagesEEG,001,200132,
AFNE01.JPG,AFNE01.JPG,AFNE01.JPG,AFNE01.JPG,AFNE01.JPG,AFNE01.JPG,,,,,,,,,,,,,1,2,12,6,,,,,,,,,,,AFNE07.jpg,AFSA16.jpg,AFSA20.jpg,AFNE02.jpg,AFNE07.jpg,FN,3,num_8,16,num_8,0.700292097084,,,2017_Apr_18_1842,59.9988646019,MAFE4ImagesEEG,001,200132,
AFNE01.JPG,AFNE01.JPG,AFNE01.JPG,AFNE01.JPG,AFNE01.JPG,AFNE01.JPG,,,,,,,,,,,,,1,3,13,5,,,,,,,,,,,AFNE05.jpg,AFSA01.jpg,AFNE14.jpg,AFSA03.jpg,AFSA03.jpg,FS,4,num_4,16,num_4,0.683473180921,,,2017_Apr_18_1842,59.9988646019,MAFE4ImagesEEG,001,200132,
AFNE01.JPG,AFNE01.JPG,AFNE01.JPG,AFNE01.JPG,AFNE01.JPG,AFNE01.JPG,,,,,,,,,,,,,1,4,14,8,,,,,,,,,,,AFSA10.jpg,AFSA06.jpg,AFNE06.jpg,AFNE10.jpg,AFSA10.jpg,FS,4,num_8,16,num_8,0.616680870065,,,2017_Apr_18_1842,59.9988646019,MAFE4ImagesEEG,001,200132,
AFNE01.JPG,AFNE01.JPG,AFNE01.JPG,AFNE01.JPG,AFNE01.JPG,AFNE01.JPG,,,,,,,,,,,,,1,5,15,1,,,,,,,,,,,AFSA20.jpg,AFNE17.jpg,AFSA04.jpg,AFNE11.jpg,AFNE11.jpg,FN,3,num_4,16,num_4,0.366808444029,,,2017_Apr_18_1842,59.9988646019,MAFE4ImagesEEG,001,200132,
AFNE01.JPG,AFNE01.JPG,AFNE01.JPG,AFNE01.JPG,AFNE01.JPG,AFNE01.JPG,,,,,,,,,,,,,1,6,16,4,,,,,,,,,,,AFSA14.jpg,AFSA04.jpg,AFNE09.jpg,AFNE04.jpg,AFNE09.jpg,FN,3,num_2,32,num_6,0.666755939033,,,2017_Apr_18_1842,59.9988646019,MAFE4ImagesEEG,001,200132,
AFNE01.JPG,AFNE01.JPG,AFNE01.JPG,AFNE01.JPG,AFNE01.JPG,AFNE01.JPG,,,,,,,,,,,,,1,7,17,0,,,,,,,,,,,AFSA01.jpg,AFNE19.jpg,AFNE07.jpg,AFSA05.jpg,AFNE07.jpg,FN,3,num_2,32,num_8,0.633519030569,,,2017_Apr_18_1842,59.9988646019,MAFE4ImagesEEG,001,200132,
AFNE01.JPG,AFNE01.JPG,AFNE01.JPG,AFNE01.JPG,AFNE01.JPG,AFNE01.JPG,,,,,,,,,,,,,1,8,18,7,,,,,,,,,,,AFSA20.jpg,AFNE19.jpg,AFSA05.jpg,AFNE07.jpg,AFSA20.jpg,FS,4,num_8,32,num_4,0.733387238884,,,2017_Apr_18_1842,59.9988646019,MAFE4ImagesEEG,001,200132,
AFNE01.JPG,AFNE01.JPG,AFNE01.JPG,AFNE01.JPG,AFNE01.JPG,AFNE01.JPG,,,,,,,,,,,,,1,9,19,2,,,,,,,,,,,AFNE08.jpg,AFSA15.jpg,AFSA07.jpg,AFNE20.jpg,AFNE20.jpg,FN,3,num_4,32,num_8,0.516753325021,,,2017_Apr_18_1842,59.9988646019,MAFE4ImagesEEG,001,200132,
AFNE01.JPG,AFNE01.JPG,AFNE01.JPG,AFNE01.JPG,AFNE01.JPG,AFNE01.JPG,,,,,,,,,,,,,2,0,20,7,,,,,,,,,,,AFNE07.jpg,AFSA12.jpg,AFSA02.jpg,AFNE12.jpg,AFNE12.jpg,FN,3,num_4,32,num_8,0.58346609259,,,2017_Apr_18_1842,59.9988646019,MAFE4ImagesEEG,001,200132,
AFNE01.JPG,AFNE01.JPG,AFNE01.JPG,AFNE01.JPG,AFNE01.JPG,AFNE01.JPG,,,,,,,,,,,,,2,1,21,5,,,,,,,,,,,AFSA08.jpg,AFNE06.jpg,AFSA19.jpg,AFNE07.jpg,AFNE07.jpg,FN,3,num_4,32,num_2,0.450140628047,,,2017_Apr_18_1842,59.9988646019,MAFE4ImagesEEG,001,200132,
AFNE01.JPG,AFNE01.JPG,AFNE01.JPG,AFNE01.JPG,AFNE01.JPG,AFNE01.JPG,,,,,,,,,,,,,2,2,22,3,,,,,,,,,,,AFSA06.jpg,AFNE06.jpg,AFNE11.jpg,AFSA14.jpg,AFSA06.jpg,FS,4,num_8,32,num_4,0.683554007177,,,2017_Apr_18_1842,59.9988646019,MAFE4ImagesEEG,001,200132,
AFNE01.JPG,AFNE01.JPG,AFNE01.JPG,AFNE01.JPG,AFNE01.JPG,AFNE01.JPG,,,,,,,,,,,,,2,3,23,6,,,,,,,,,,,AFSA12.jpg,AFNE12.jpg,AFSA18.jpg,AFNE16.jpg,AFSA18.jpg,FS,4,num_2,32,num_4,0.616806920531,,,2017_Apr_18_1842,59.9988646019,MAFE4ImagesEEG,001,200132,
AFNE01.JPG,AFNE01.JPG,AFNE01.JPG,AFNE01.JPG,AFNE01.JPG,AFNE01.JPG,,,,,,,,,,,,,2,4,24,9,,,,,,,,,,,AFSA13.jpg,AFNE09.jpg,AFNE11.jpg,AFSA08.jpg,AFNE09.jpg,FN,3,num_6,32,num_8,0.766806647895,,,2017_Apr_18_1842,59.9988646019,MAFE4ImagesEEG,001,200132,
AFNE01.JPG,AFNE01.JPG,AFNE01.JPG,AFNE01.JPG,AFNE01.JPG,AFNE01.JPG,,,,,,,,,,,,,2,5,25,2,,,,,,,,,,,AFNE09.jpg,AFSA13.jpg,AFNE17.jpg,AFSA09.jpg,AFNE09.jpg,FN,3,num_8,16,num_8,0.683442389971,,,2017_Apr_18_1842,59.9988646019,MAFE4ImagesEEG,001,200132,
AFNE01.JPG,AFNE01.JPG,AFNE01.JPG,AFNE01.JPG,AFNE01.JPG,AFNE01.JPG,,,,,,,,,,,,,2,6,26,8,,,,,,,,,,,AFSA11.jpg,AFNE13.jpg,AFNE15.jpg,AFSA07.jpg,AFNE13.jpg,FN,3,num_6,16,num_6,0.566838657658,,,2017_Apr_18_1842,59.9988646019,MAFE4ImagesEEG,001,200132,
AFNE01.JPG,AFNE01.JPG,AFNE01.JPG,AFNE01.JPG,AFNE01.JPG,AFNE01.JPG,,,,,,,,,,,,,2,7,27,4,,,,,,,,,,,AFSA05.jpg,AFSA08.jpg,AFNE03.jpg,AFNE19.jpg,AFNE19.jpg,FN,3,num_4,16,num_4,0.433461233391,,,2017_Apr_18_1842,59.9988646019,MAFE4ImagesEEG,001,200132,
AFNE01.JPG,AFNE01.JPG,AFNE01.JPG,AFNE01.JPG,AFNE01.JPG,AFNE01.JPG,,,,,,,,,,,,,2,8,28,1,,,,,,,,,,,AFSA20.jpg,AFNE20.jpg,AFSA11.jpg,AFNE17.jpg,AFNE17.jpg,FN,3,num_4,32,num_8,0.683513914773,,,2017_Apr_18_1842,59.9988646019,MAFE4ImagesEEG,001,200132,
AFNE01.JPG,AFNE01.JPG,AFNE01.JPG,AFNE01.JPG,AFNE01.JPG,AFNE01.JPG,,,,,,,,,,,,,2,9,29,0,,,,,,,,,,,AFSA05.jpg,AFSA19.jpg,AFNE10.jpg,AFNE16.jpg,AFNE16.jpg,FN,3,num_4,32,num_8,0.666783843335,,,2017_Apr_18_1842,59.9988646019,MAFE4ImagesEEG,001,200132,
AFNE01.JPG,AFNE01.JPG,AFNE01.JPG,AFNE01.JPG,AFNE01.JPG,AFNE01.JPG,,,,,,,,,,,,,3,0,30,0,,,,,,,,,,,AFNE04.jpg,AFSA13.jpg,AFNE13.jpg,AFSA11.jpg,AFSA11.jpg,FS,4,num_4,16,num_4,0.800137532919,,,2017_Apr_18_1842,59.9988646019,MAFE4ImagesEEG,001,200132,
AFNE01.JPG,AFNE01.JPG,AFNE01.JPG,AFNE01.JPG,AFNE01.JPG,AFNE01.JPG,,,,,,,,,,,,,3,1,31,8,,,,,,,,,,,AFNE17.jpg,AFSA08.jpg,AFNE15.jpg,AFSA19.jpg,AFNE17.jpg,FN,3,num_8,16,num_8,0.483483701173,,,2017_Apr_18_1842,59.9988646019,MAFE4ImagesEEG,001,200132,
AFNE01.JPG,AFNE01.JPG,AFNE01.JPG,AFNE01.JPG,AFNE01.JPG,AFNE01.JPG,,,,,,,,,,,,,3,2,32,5,,,,,,,,,,,AFSA12.jpg,AFNE06.jpg,AFNE15.jpg,AFSA07.jpg,AFNE15.jpg,FN,3,num_2,16,num_2,0.700124992014,,,2017_Apr_18_1842,59.9988646019,MAFE4ImagesEEG,001,200132,
AFNE01.JPG,AFNE01.JPG,AFNE01.JPG,AFNE01.JPG,AFNE01.JPG,AFNE01.JPG,,,,,,,,,,,,,3,3,33,7,,,,,,,,,,,AFNE02.jpg,AFNE04.jpg,AFSA05.jpg,AFSA20.jpg,AFSA20.jpg,FS,4,num_4,32,num_8,0.566627290595,,,2017_Apr_18_1842,59.9988646019,MAFE4ImagesEEG,001,200132,
AFNE01.JPG,AFNE01.JPG,AFNE01.JPG,AFNE01.JPG,AFNE01.JPG,AFNE01.JPG,,,,,,,,,,,,,3,4,34,1,,,,,,,,,,,AFNE06.jpg,AFSA07.jpg,AFNE19.jpg,AFSA11.jpg,AFNE06.jpg,FN,3,num_8,16,num_8,0.866765946106,,,2017_Apr_18_1842,59.9988646019,MAFE4ImagesEEG,001,200132,
AFNE01.JPG,AFNE01.JPG,AFNE01.JPG,AFNE01.JPG,AFNE01.JPG,AFNE01.JPG,,,,,,,,,,,,,3,5,35,2,,,,,,,,,,,AFSA08.jpg,AFNE05.jpg,AFSA10.jpg,AFNE19.jpg,AFSA08.jpg,FS,4,num_8,16,num_8,0.750152270877,,,2017_Apr_18_1842,59.9988646019,MAFE4ImagesEEG,001,200132,
AFNE01.JPG,AFNE01.JPG,AFNE01.JPG,AFNE01.JPG,AFNE01.JPG,AFNE01.JPG,,,,,,,,,,,,,3,6,36,6,,,,,,,,,,,AFNE11.jpg,AFSA02.jpg,AFSA20.jpg,AFNE17.jpg,AFSA20.jpg,FS,4,num_2,32,num_6,0.916807978967,,,2017_Apr_18_1842,59.9988646019,MAFE4ImagesEEG,001,200132,
AFNE01.JPG,AFNE01.JPG,AFNE01.JPG,AFNE01.JPG,AFNE01.JPG,AFNE01.JPG,,,,,,,,,,,,,3,7,37,4,,,,,,,,,,,AFSA18.jpg,AFSA20.jpg,AFNE09.jpg,AFNE11.jpg,AFNE09.jpg,FN,3,num_2,32,num_6,0.716778086091,,,2017_Apr_18_1842,59.9988646019,MAFE4ImagesEEG,001,200132,
AFNE01.JPG,AFNE01.JPG,AFNE01.JPG,AFNE01.JPG,AFNE01.JPG,AFNE01.JPG,,,,,,,,,,,,,3,8,38,3,,,,,,,,,,,AFNE01.jpg,AFSA08.jpg,AFSA13.jpg,AFNE14.jpg,AFSA08.jpg,FS,4,num_6,16,num_6,0.600131053987,,,2017_Apr_18_1842,59.9988646019,MAFE4ImagesEEG,001,200132,
AFNE01.JPG,AFNE01.JPG,AFNE01.JPG,AFNE01.JPG,AFNE01.JPG,AFNE01.JPG,,,,,,,,,,,,,3,9,39,9,,,,,,,,,,,AFNE17.jpg,AFSA07.jpg,AFSA06.jpg,AFNE11.jpg,AFSA07.jpg,FS,4,num_6,16,num_6,0.666787050737,,,2017_Apr_18_1842,59.9988646019,MAFE4ImagesEEG,001,200132,
AFNE01.JPG,AFNE01.JPG,AFNE01.JPG,AFNE01.JPG,AFNE01.JPG,AFNE01.JPG,,,,,,,,,,,,,4,0,40,2,,,,,,,,,,,AFSA02.jpg,AFSA05.jpg,AFNE18.jpg,AFNE17.jpg,AFNE18.jpg,FN,3,num_2,32,num_8,0.566807866708,,,2017_Apr_18_1842,59.9988646019,MAFE4ImagesEEG,001,200132,
AFNE01.JPG,AFNE01.JPG,AFNE01.JPG,AFNE01.JPG,AFNE01.JPG,AFNE01.JPG,,,,,,,,,,,,,4,1,41,0,,,,,,,,,,,AFNE03.jpg,AFNE20.jpg,AFSA07.jpg,AFSA13.jpg,AFSA07.jpg,FS,4,num_2,32,num_6,0.716804386684,,,2017_Apr_18_1842,59.9988646019,MAFE4ImagesEEG,001,200132,
AFNE01.JPG,AFNE01.JPG,AFNE01.JPG,AFNE01.JPG,AFNE01.JPG,AFNE01.JPG,,,,,,,,,,,,,4,2,42,1,,,,,,,,,,,AFSA03.jpg,AFSA19.jpg,AFNE20.jpg,AFNE16.jpg,AFSA03.jpg,FS,4,num_8,16,num_8,0.350171707672,,,2017_Apr_18_1842,59.9988646019,MAFE4ImagesEEG,001,200132,
AFNE01.JPG,AFNE01.JPG,AFNE01.JPG,AFNE01.JPG,AFNE01.JPG,AFNE01.JPG,,,,,,,,,,,,,4,3,43,4,,,,,,,,,,,AFSA20.jpg,AFNE20.jpg,AFNE07.jpg,AFSA07.jpg,AFSA20.jpg,FS,4,num_8,32,num_6,0.599997947269,,,2017_Apr_18_1842,59.9988646019,MAFE4ImagesEEG,001,200132,
AFNE01.JPG,AFNE01.JPG,AFNE01.JPG,AFNE01.JPG,AFNE01.JPG,AFNE01.JPG,,,,,,,,,,,,,4,4,44,3,,,,,,,,,,,AFSA10.jpg,AFNE03.jpg,AFSA18.jpg,AFNE14.jpg,AFNE14.jpg,FN,3,num_4,16,num_4,0.716778086076,,,2017_Apr_18_1842,59.9988646019,MAFE4ImagesEEG,001,200132,
AFNE01.JPG,AFNE01.JPG,AFNE01.JPG,AFNE01.JPG,AFNE01.JPG,AFNE01.JPG,,,,,,,,,,,,,4,5,45,5,,,,,,,,,,,AFSA11.jpg,AFNE05.jpg,AFSA03.jpg,AFNE14.jpg,AFSA03.jpg,FS,4,num_2,16,num_2,0.633492729961,,,2017_Apr_18_1842,59.9988646019,MAFE4ImagesEEG,001,200132,
AFNE01.JPG,AFNE01.JPG,AFNE01.JPG,AFNE01.JPG,AFNE01.JPG,AFNE01.JPG,,,,,,,,,,,,,4,6,46,6,,,,,,,,,,,AFNE06.jpg,AFSA09.jpg,AFNE08.jpg,AFSA19.jpg,AFSA19.jpg,FS,4,num_4,32,num_8,0.63352512462,,,2017_Apr_18_1842,59.9988646019,MAFE4ImagesEEG,001,200132,
AFNE01.JPG,AFNE01.JPG,AFNE01.JPG,AFNE01.JPG,AFNE01.JPG,AFNE01.JPG,,,,,,,,,,,,,4,7,47,8,,,,,,,,,,,AFSA12.jpg,AFNE16.jpg,AFSA05.jpg,AFNE12.jpg,AFNE16.jpg,FN,3,num_6,16,num_6,0.550100246997,,,2017_Apr_18_1842,59.9988646019,MAFE4ImagesEEG,001,200132,
AFNE01.JPG,AFNE01.JPG,AFNE01.JPG,AFNE01.JPG,AFNE01.JPG,AFNE01.JPG,,,,,,,,,,,,,4,8,48,9,,,,,,,,,,,AFSA02.jpg,AFNE15.jpg,AFSA06.jpg,AFNE08.jpg,AFSA06.jpg,FS,4,num_2,32,num_4,0.583521901193,,,2017_Apr_18_1842,59.9988646019,MAFE4ImagesEEG,001,200132,
AFNE01.JPG,AFNE01.JPG,AFNE01.JPG,AFNE01.JPG,AFNE01.JPG,AFNE01.JPG,,,,,,,,,,,,,4,9,49,7,,,,,,,,,,,AFSA12.jpg,AFNE17.jpg,AFNE18.jpg,AFSA06.jpg,AFNE18.jpg,FN,3,num_2,32,num_4,0.583454225241,,,2017_Apr_18_1842,59.9988646019,MAFE4ImagesEEG,001,200132,
AFNE01.JPG,AFNE01.JPG,AFNE01.JPG,AFNE01.JPG,AFNE01.JPG,AFNE01.JPG,,,,,,,,,,,,,5,0,50,3,,,,,,,,,,,AFSA15.jpg,AFSA12.jpg,AFNE16.jpg,AFNE06.jpg,AFNE06.jpg,FN,3,num_4,32,num_2,0.68344784253,,,2017_Apr_18_1842,59.9988646019,MAFE4ImagesEEG,001,200132,
AFNE01.JPG,AFNE01.JPG,AFNE01.JPG,AFNE01.JPG,AFNE01.JPG,AFNE01.JPG,,,,,,,,,,,,,5,1,51,5,,,,,,,,,,,AFNE09.jpg,AFSA04.jpg,AFNE20.jpg,AFSA17.jpg,AFSA04.jpg,FS,4,num_6,32,num_4,0.51682677427,,,2017_Apr_18_1842,59.9988646019,MAFE4ImagesEEG,001,200132,
AFNE01.JPG,AFNE01.JPG,AFNE01.JPG,AFNE01.JPG,AFNE01.JPG,AFNE01.JPG,,,,,,,,,,,,,5,2,52,9,,,,,,,,,,,AFSA06.jpg,AFSA04.jpg,AFNE11.jpg,AFNE15.jpg,AFNE15.jpg,FN,3,num_4,16,num_4,0.649818670165,,,2017_Apr_18_1842,59.9988646019,MAFE4ImagesEEG,001,200132,
AFNE01.JPG,AFNE01.JPG,AFNE01.JPG,AFNE01.JPG,AFNE01.JPG,AFNE01.JPG,,,,,,,,,,,,,5,3,53,1,,,,,,,,,,,AFNE10.jpg,AFNE01.jpg,AFSA02.jpg,AFSA04.jpg,AFSA04.jpg,FS,4,num_4,32,num_8,0.500182660908,,,2017_Apr_18_1842,59.9988646019,MAFE4ImagesEEG,001,200132,
AFNE01.JPG,AFNE01.JPG,AFNE01.JPG,AFNE01.JPG,AFNE01.JPG,AFNE01.JPG,,,,,,,,,,,,,5,4,54,4,,,,,,,,,,,AFSA16.jpg,AFNE12.jpg,AFSA14.jpg,AFNE14.jpg,AFSA14.jpg,FS,4,num_2,32,num_6,0.583452621533,,,2017_Apr_18_1842,59.9988646019,MAFE4ImagesEEG,001,200132,
AFNE01.JPG,AFNE01.JPG,AFNE01.JPG,AFNE01.JPG,AFNE01.JPG,AFNE01.JPG,,,,,,,,,,,,,5,5,55,7,,,,,,,,,,,AFNE16.jpg,AFSA05.jpg,AFSA01.jpg,AFNE19.jpg,AFNE16.jpg,FN,3,num_8,16,num_8,0.466771270367,,,2017_Apr_18_1842,59.9988646019,MAFE4ImagesEEG,001,200132,
AFNE01.JPG,AFNE01.JPG,AFNE01.JPG,AFNE01.JPG,AFNE01.JPG,AFNE01.JPG,,,,,,,,,,,,,5,6,56,8,,,,,,,,,,,AFNE16.jpg,AFSA13.jpg,AFNE02.jpg,AFSA20.jpg,AFSA13.jpg,FS,4,num_6,16,num_6,0.716816574772,,,2017_Apr_18_1842,59.9988646019,MAFE4ImagesEEG,001,200132,
AFNE01.JPG,AFNE01.JPG,AFNE01.JPG,AFNE01.JPG,AFNE01.JPG,AFNE01.JPG,,,,,,,,,,,,,5,7,57,6,,,,,,,,,,,AFSA08.jpg,AFNE15.jpg,AFNE12.jpg,AFSA07.jpg,AFSA07.jpg,FS,4,num_4,32,num_6,0.633638986983,,,2017_Apr_18_1842,59.9988646019,MAFE4ImagesEEG,001,200132,
AFNE01.JPG,AFNE01.JPG,AFNE01.JPG,AFNE01.JPG,AFNE01.JPG,AFNE01.JPG,,,,,,,,,,,,,5,8,58,2,,,,,,,,,,,AFSA19.jpg,AFNE06.jpg,AFNE09.jpg,AFSA11.jpg,AFSA19.jpg,FS,4,num_8,16,num_8,0.600120469593,,,2017_Apr_18_1842,59.9988646019,MAFE4ImagesEEG,001,200132,
AFNE01.JPG,AFNE01.JPG,AFNE01.JPG,AFNE01.JPG,AFNE01.JPG,AFNE01.JPG,,,,,,,,,,,,,5,9,59,0,,,,,,,,,,,AFSA12.jpg,AFNE14.jpg,AFSA11.jpg,AFNE02.jpg,AFSA11.jpg,FS,4,num_2,16,num_2,0.433548153669,,,2017_Apr_18_1842,59.9988646019,MAFE4ImagesEEG,001,200132,
,,,,,,,,,,,,,,,,,,,,,,,,,,,,,,,,,,,,,,,,,,,space,6.76599549875,2017_Apr_18_1842,59.9988646019,MAFE4ImagesEEG,001,200132,
AFNE01.JPG,AFNE01.JPG,AFNE01.JPG,AFNE01.JPG,AFNE01.JPG,AFNE01.JPG,,,,,,,,,,,,,,,,,0,0,0,8,,,,,,,AMNE04.jpg,AMSA19.jpg,AMNE13.jpg,AMSA14.jpg,AMSA14.jpg,MS,2,num_4,16,num_4,0.533469925431,,,2017_Apr_18_1842,59.9988646019,MAFE4ImagesEEG,001,200132,
AFNE01.JPG,AFNE01.JPG,AFNE01.JPG,AFNE01.JPG,AFNE01.JPG,AFNE01.JPG,,,,,,,,,,,,,,,,,0,1,1,5,,,,,,,AMSA15.jpg,AMNE04.jpg,AMSA07.jpg,AMNE05.jpg,AMSA15.jpg,MS,2,num_8,16,num_8,0.566774509833,,,2017_Apr_18_1842,59.9988646019,MAFE4ImagesEEG,001,200132,
AFNE01.JPG,AFNE01.JPG,AFNE01.JPG,AFNE01.JPG,AFNE01.JPG,AFNE01.JPG,,,,,,,,,,,,,,,,,0,2,2,3,,,,,,,AMNE10.jpg,AMSA10.jpg,AMSA06.jpg,AMNE01.jpg,AMNE10.jpg,MN,1,num_8,16,num_8,0.583446848235,,,2017_Apr_18_1842,59.9988646019,MAFE4ImagesEEG,001,200132,
AFNE01.JPG,AFNE01.JPG,AFNE01.JPG,AFNE01.JPG,AFNE01.JPG,AFNE01.JPG,,,,,,,,,,,,,,,,,0,3,3,0,,,,,,,AMNE20.jpg,AMSA18.jpg,AMNE17.jpg,AMSA10.jpg,AMNE20.jpg,MN,1,num_8,16,num_8,0.36684148015,,,2017_Apr_18_1842,59.9988646019,MAFE4ImagesEEG,001,200132,
AFNE01.JPG,AFNE01.JPG,AFNE01.JPG,AFNE01.JPG,AFNE01.JPG,AFNE01.JPG,,,,,,,,,,,,,,,,,0,4,4,4,,,,,,,AMSA03.jpg,AMNE12.jpg,AMSA15.jpg,AMNE17.jpg,AMNE12.jpg,MN,1,num_6,32,num_8,1.04995479183,,,2017_Apr_18_1842,59.9988646019,MAFE4ImagesEEG,001,200132,
AFNE01.JPG,AFNE01.JPG,AFNE01.JPG,AFNE01.JPG,AFNE01.JPG,AFNE01.JPG,,,,,,,,,,,,,,,,,0,5,5,7,,,,,,,AMNE01.jpg,AMSA04.jpg,AMSA06.jpg,AMNE09.jpg,AMSA06.jpg,MS,2,num_2,32,num_6,0.36681453808,,,2017_Apr_18_1842,59.9988646019,MAFE4ImagesEEG,001,200132,
AFNE01.JPG,AFNE01.JPG,AFNE01.JPG,AFNE01.JPG,AFNE01.JPG,AFNE01.JPG,,,,,,,,,,,,,,,,,0,6,6,2,,,,,,,AMNE20.jpg,AMSA10.jpg,AMNE01.jpg,AMSA12.jpg,AMNE20.jpg,MN,1,num_8,16,num_8,0.750056049161,,,2017_Apr_18_1842,59.9988646019,MAFE4ImagesEEG,001,200132,
AFNE01.JPG,AFNE01.JPG,AFNE01.JPG,AFNE01.JPG,AFNE01.JPG,AFNE01.JPG,,,,,,,,,,,,,,,,,0,7,7,6,,,,,,,AMSA15.jpg,AMSA11.jpg,AMNE14.jpg,AMNE02.jpg,AMNE02.jpg,MN,1,num_4,32,num_8,0.650084562862,,,2017_Apr_18_1842,59.9988646019,MAFE4ImagesEEG,001,200132,
AFNE01.JPG,AFNE01.JPG,AFNE01.JPG,AFNE01.JPG,AFNE01.JPG,AFNE01.JPG,,,,,,,,,,,,,,,,,0,8,8,1,,,,,,,AMSA04.jpg,AMNE06.jpg,AMSA09.jpg,AMNE10.jpg,AMNE10.jpg,MN,1,num_4,16,num_4,0.500138078176,,,2017_Apr_18_1842,59.9988646019,MAFE4ImagesEEG,001,200132,
AFNE01.JPG,AFNE01.JPG,AFNE01.JPG,AFNE01.JPG,AFNE01.JPG,AFNE01.JPG,,,,,,,,,,,,,,,,,0,9,9,9,,,,,,,AMSA09.jpg,AMNE18.jpg,AMSA01.jpg,AMNE10.jpg,AMSA09.jpg,MS,2,num_8,16,num_8,0.450120100752,,,2017_Apr_18_1842,59.9988646019,MAFE4ImagesEEG,001,200132,
AFNE01.JPG,AFNE01.JPG,AFNE01.JPG,AFNE01.JPG,AFNE01.JPG,AFNE01.JPG,,,,,,,,,,,,,,,,,1,0,10,2,,,,,,,AMNE14.jpg,AMSA03.jpg,AMNE06.jpg,AMSA05.jpg,AMSA05.jpg,MS,2,num_4,32,num_6,0.650094185024,,,2017_Apr_18_1842,59.9988646019,MAFE4ImagesEEG,001,200132,
AFNE01.JPG,AFNE01.JPG,AFNE01.JPG,AFNE01.JPG,AFNE01.JPG,AFNE01.JPG,,,,,,,,,,,,,,,,,1,1,11,5,,,,,,,AMSA20.jpg,AMNE01.jpg,AMSA12.jpg,AMNE11.jpg,AMNE11.jpg,MN,1,num_4,16,num_4,0.533409947209,,,2017_Apr_18_1842,59.9988646019,MAFE4ImagesEEG,001,200132,
AFNE01.JPG,AFNE01.JPG,AFNE01.JPG,AFNE01.JPG,AFNE01.JPG,AFNE01.JPG,,,,,,,,,,,,,,,,,1,2,12,1,,,,,,,AMSA10.jpg,AMNE04.jpg,AMSA14.jpg,AMNE19.jpg,AMSA10.jpg,MS,2,num_8,32,num_6,0.483611355317,,,2017_Apr_18_1842,59.9988646019,MAFE4ImagesEEG,001,200132,
AFNE01.JPG,AFNE01.JPG,AFNE01.JPG,AFNE01.JPG,AFNE01.JPG,AFNE01.JPG,,,,,,,,,,,,,,,,,1,3,13,6,,,,,,,AMNE11.jpg,AMSA20.jpg,AMSA14.jpg,AMNE14.jpg,AMSA14.jpg,MS,2,num_2,16,num_2,0.6835354043,,,2017_Apr_18_1842,59.9988646019,MAFE4ImagesEEG,001,200132,
AFNE01.JPG,AFNE01.JPG,AFNE01.JPG,AFNE01.JPG,AFNE01.JPG,AFNE01.JPG,,,,,,,,,,,,,,,,,1,4,14,9,,,,,,,AMSA19.jpg,AMSA06.jpg,AMNE15.jpg,AMNE08.jpg,AMNE08.jpg,MN,1,num_4,32,num_6,0.516851150445,,,2017_Apr_18_1842,59.9988646019,MAFE4ImagesEEG,001,200132,
AFNE01.JPG,AFNE01.JPG,AFNE01.JPG,AFNE01.JPG,AFNE01.JPG,AFNE01.JPG,,,,,,,,,,,,,,,,,1,5,15,4,,,,,,,AMSA18.jpg,AMNE13.jpg,AMSA12.jpg,AMNE01.jpg,AMSA12.jpg,MS,2,num_2,32,num_6,0.583438188289,,,2017_Apr_18_1842,59.9988646019,MAFE4ImagesEEG,001,200132,
AFNE01.JPG,AFNE01.JPG,AFNE01.JPG,AFNE01.JPG,AFNE01.JPG,AFNE01.JPG,,,,,,,,,,,,,,,,,1,6,16,7,,,,,,,AMNE18.jpg,AMNE13.jpg,AMSA04.jpg,AMSA14.jpg,AMSA14.jpg,MS,2,num_4,16,num_4,0.416802366031,,,2017_Apr_18_1842,59.9988646019,MAFE4ImagesEEG,001,200132,
AFNE01.JPG,AFNE01.JPG,AFNE01.JPG,AFNE01.JPG,AFNE01.JPG,AFNE01.JPG,,,,,,,,,,,,,,,,,1,7,17,3,,,,,,,AMNE20.jpg,AMSA10.jpg,AMSA14.jpg,AMNE13.jpg,AMNE13.jpg,MN,1,num_4,32,num_6,0.650114391596,,,2017_Apr_18_1842,59.9988646019,MAFE4ImagesEEG,001,200132,
AFNE01.JPG,AFNE01.JPG,AFNE01.JPG,AFNE01.JPG,AFNE01.JPG,AFNE01.JPG,,,,,,,,,,,,,,,,,1,8,18,0,,,,,,,AMNE18.jpg,AMSA03.jpg,AMSA10.jpg,AMNE04.jpg,AMSA03.jpg,MS,2,num_6,16,num_6,0.466925866611,,,2017_Apr_18_1842,59.9988646019,MAFE4ImagesEEG,001,200132,
AFNE01.JPG,AFNE01.JPG,AFNE01.JPG,AFNE01.JPG,AFNE01.JPG,AFNE01.JPG,,,,,,,,,,,,,,,,,1,9,19,8,,,,,,,AMSA05.jpg,AMNE03.jpg,AMSA06.jpg,AMNE07.jpg,AMSA06.jpg,MS,2,num_2,32,num_8,0.500178812043,,,2017_Apr_18_1842,59.9988646019,MAFE4ImagesEEG,001,200132,
AFNE01.JPG,AFNE01.JPG,AFNE01.JPG,AFNE01.JPG,AFNE01.JPG,AFNE01.JPG,,,,,,,,,,,,,,,,,2,0,20,4,,,,,,,AMSA04.jpg,AMNE20.jpg,AMSA05.jpg,AMNE02.jpg,AMNE20.jpg,MN,1,num_6,16,num_6,0.566783811271,,,2017_Apr_18_1842,59.9988646019,MAFE4ImagesEEG,001,200132,
AFNE01.JPG,AFNE01.JPG,AFNE01.JPG,AFNE01.JPG,AFNE01.JPG,AFNE01.JPG,,,,,,,,,,,,,,,,,2,1,21,2,,,,,,,AMNE17.jpg,AMSA11.jpg,AMNE13.jpg,AMSA18.jpg,AMSA18.jpg,MS,2,num_4,16,num_4,0.400171082234,,,2017_Apr_18_1842,59.9988646019,MAFE4ImagesEEG,001,200132,
AFNE01.JPG,AFNE01.JPG,AFNE01.JPG,AFNE01.JPG,AFNE01.JPG,AFNE01.JPG,,,,,,,,,,,,,,,,,2,2,22,3,,,,,,,AMSA05.jpg,AMSA15.jpg,AMNE14.jpg,AMNE08.jpg,AMSA05.jpg,MS,2,num_8,16,num_8,0.483546886768,,,2017_Apr_18_1842,59.9988646019,MAFE4ImagesEEG,001,200132,
AFNE01.JPG,AFNE01.JPG,AFNE01.JPG,AFNE01.JPG,AFNE01.JPG,AFNE01.JPG,,,,,,,,,,,,,,,,,2,3,23,5,,,,,,,AMSA14.jpg,AMNE10.jpg,AMNE05.jpg,AMSA12.jpg,AMNE05.jpg,MN,1,num_2,32,num_6,0.533521243662,,,2017_Apr_18_1842,59.9988646019,MAFE4ImagesEEG,001,200132,
AFNE01.JPG,AFNE01.JPG,AFNE01.JPG,AFNE01.JPG,AFNE01.JPG,AFNE01.JPG,,,,,,,,,,,,,,,,,2,4,24,1,,,,,,,AMSA15.jpg,AMNE10.jpg,AMNE15.jpg,AMSA03.jpg,AMSA15.jpg,MS,2,num_8,32,num_6,0.583444282325,,,2017_Apr_18_1842,59.9988646019,MAFE4ImagesEEG,001,200132,
AFNE01.JPG,AFNE01.JPG,AFNE01.JPG,AFNE01.JPG,AFNE01.JPG,AFNE01.JPG,,,,,,,,,,,,,,,,,2,5,25,8,,,,,,,AMSA12.jpg,AMNE09.jpg,AMSA15.jpg,AMNE13.jpg,AMNE13.jpg,MN,1,num_4,32,num_8,0.450139986569,,,2017_Apr_18_1842,59.9988646019,MAFE4ImagesEEG,001,200132,
AFNE01.JPG,AFNE01.JPG,AFNE01.JPG,AFNE01.JPG,AFNE01.JPG,AFNE01.JPG,,,,,,,,,,,,,,,,,2,6,26,9,,,,,,,AMSA04.jpg,AMSA01.jpg,AMNE13.jpg,AMNE08.jpg,AMNE08.jpg,MN,1,num_4,32,num_8,0.566781566085,,,2017_Apr_18_1842,59.9988646019,MAFE4ImagesEEG,001,200132,
AFNE01.JPG,AFNE01.JPG,AFNE01.JPG,AFNE01.JPG,AFNE01.JPG,AFNE01.JPG,,,,,,,,,,,,,,,,,2,7,27,6,,,,,,,AMSA18.jpg,AMNE08.jpg,AMSA13.jpg,AMNE10.jpg,AMSA18.jpg,MS,2,num_8,16,num_8,0.450178154526,,,2017_Apr_18_1842,59.9988646019,MAFE4ImagesEEG,001,200132,
AFNE01.JPG,AFNE01.JPG,AFNE01.JPG,AFNE01.JPG,AFNE01.JPG,AFNE01.JPG,,,,,,,,,,,,,,,,,2,8,28,0,,,,,,,AMSA13.jpg,AMNE05.jpg,AMNE08.jpg,AMSA10.jpg,AMSA13.jpg,MS,2,num_8,16,num_8,0.600145807985,,,2017_Apr_18_1842,59.9988646019,MAFE4ImagesEEG,001,200132,
AFNE01.JPG,AFNE01.JPG,AFNE01.JPG,AFNE01.JPG,AFNE01.JPG,AFNE01.JPG,,,,,,,,,,,,,,,,,2,9,29,7,,,,,,,AMSA17.jpg,AMSA12.jpg,AMNE05.jpg,AMNE14.jpg,AMNE05.jpg,MN,1,num_2,32,num_6,0.600097697126,,,2017_Apr_18_1842,59.9988646019,MAFE4ImagesEEG,001,200132,
AFNE01.JPG,AFNE01.JPG,AFNE01.JPG,AFNE01.JPG,AFNE01.JPG,AFNE01.JPG,,,,,,,,,,,,,,,,,3,0,30,3,,,,,,,AMNE17.jpg,AMSA07.jpg,AMSA05.jpg,AMNE06.jpg,AMSA07.jpg,MS,2,num_6,16,num_6,0.500090929534,,,2017_Apr_18_1842,59.9988646019,MAFE4ImagesEEG,001,200132,
AFNE01.JPG,AFNE01.JPG,AFNE01.JPG,AFNE01.JPG,AFNE01.JPG,AFNE01.JPG,,,,,,,,,,,,,,,,,3,1,31,0,,,,,,,AMNE17.jpg,AMNE18.jpg,AMSA07.jpg,AMSA11.jpg,AMSA07.jpg,MS,2,num_2,32,num_4,0.500133908572,,,2017_Apr_18_1842,59.9988646019,MAFE4ImagesEEG,001,200132,
AFNE01.JPG,AFNE01.JPG,AFNE01.JPG,AFNE01.JPG,AFNE01.JPG,AFNE01.JPG,,,,,,,,,,,,,,,,,3,2,32,4,,,,,,,AMNE17.jpg,AMSA08.jpg,AMNE07.jpg,AMSA02.jpg,AMSA02.jpg,MS,2,num_4,32,num_8,0.48349236112,,,2017_Apr_18_1842,59.9988646019,MAFE4ImagesEEG,001,200132,
AFNE01.JPG,AFNE01.JPG,AFNE01.JPG,AFNE01.JPG,AFNE01.JPG,AFNE01.JPG,,,,,,,,,,,,,,,,,3,3,33,2,,,,,,,AMNE05.jpg,AMNE02.jpg,AMSA16.jpg,AMSA15.jpg,AMSA15.jpg,MS,2,num_4,32,num_8,0.433319466712,,,2017_Apr_18_1842,59.9988646019,MAFE4ImagesEEG,001,200132,
AFNE01.JPG,AFNE01.JPG,AFNE01.JPG,AFNE01.JPG,AFNE01.JPG,AFNE01.JPG,,,,,,,,,,,,,,,,,3,4,34,6,,,,,,,AMSA05.jpg,AMSA08.jpg,AMNE10.jpg,AMNE08.jpg,AMNE08.jpg,MN,1,num_4,32,num_8,0.466792439154,,,2017_Apr_18_1842,59.9988646019,MAFE4ImagesEEG,001,200132,
AFNE01.JPG,AFNE01.JPG,AFNE01.JPG,AFNE01.JPG,AFNE01.JPG,AFNE01.JPG,,,,,,,,,,,,,,,,,3,5,35,9,,,,,,,AMSA03.jpg,AMSA06.jpg,AMNE14.jpg,AMNE08.jpg,AMNE08.jpg,MN,1,num_4,16,num_4,0.500157964008,,,2017_Apr_18_1842,59.9988646019,MAFE4ImagesEEG,001,200132,
AFNE01.JPG,AFNE01.JPG,AFNE01.JPG,AFNE01.JPG,AFNE01.JPG,AFNE01.JPG,,,,,,,,,,,,,,,,,3,6,36,7,,,,,,,AMSA13.jpg,AMSA03.jpg,AMNE04.jpg,AMNE12.jpg,AMNE12.jpg,MN,1,num_4,32,num_8,0.450286885069,,,2017_Apr_18_1842,59.9988646019,MAFE4ImagesEEG,001,200132,
AFNE01.JPG,AFNE01.JPG,AFNE01.JPG,AFNE01.JPG,AFNE01.JPG,AFNE01.JPG,,,,,,,,,,,,,,,,,3,7,37,5,,,,,,,AMSA07.jpg,AMNE04.jpg,AMNE05.jpg,AMSA04.jpg,AMNE05.jpg,MN,1,num_2,16,num_2,0.766772970295,,,2017_Apr_18_1842,59.9988646019,MAFE4ImagesEEG,001,200132,
AFNE01.JPG,AFNE01.JPG,AFNE01.JPG,AFNE01.JPG,AFNE01.JPG,AFNE01.JPG,,,,,,,,,,,,,,,,,3,8,38,8,,,,,,,AMNE20.jpg,AMNE10.jpg,AMSA11.jpg,AMSA07.jpg,AMSA11.jpg,MS,2,num_2,32,num_6,0.766749556336,,,2017_Apr_18_1842,59.9988646019,MAFE4ImagesEEG,001,200132,
AFNE01.JPG,AFNE01.JPG,AFNE01.JPG,AFNE01.JPG,AFNE01.JPG,AFNE01.JPG,,,,,,,,,,,,,,,,,3,9,39,1,,,,,,,AMSA01.jpg,AMSA06.jpg,AMNE06.jpg,AMNE01.jpg,AMNE06.jpg,MN,1,num_2,32,num_6,0.616816542693,,,2017_Apr_18_1842,59.9988646019,MAFE4ImagesEEG,001,200132,
AFNE01.JPG,AFNE01.JPG,AFNE01.JPG,AFNE01.JPG,AFNE01.JPG,AFNE01.JPG,,,,,,,,,,,,,,,,,4,0,40,0,,,,,,,AMNE11.jpg,AMSA14.jpg,AMSA17.jpg,AMNE01.jpg,AMNE11.jpg,MN,1,num_8,32,num_4,0.5667815661,,,2017_Apr_18_1842,59.9988646019,MAFE4ImagesEEG,001,200132,
AFNE01.JPG,AFNE01.JPG,AFNE01.JPG,AFNE01.JPG,AFNE01.JPG,AFNE01.JPG,,,,,,,,,,,,,,,,,4,1,41,1,,,,,,,AMNE02.jpg,AMSA04.jpg,AMNE20.jpg,AMSA15.jpg,AMNE02.jpg,MN,1,num_8,32,num_6,0.716804065945,,,2017_Apr_18_1842,59.9988646019,MAFE4ImagesEEG,001,200132,
AFNE01.JPG,AFNE01.JPG,AFNE01.JPG,AFNE01.JPG,AFNE01.JPG,AFNE01.JPG,,,,,,,,,,,,,,,,,4,2,42,5,,,,,,,AMSA10.jpg,AMNE06.jpg,AMSA14.jpg,AMNE13.jpg,AMNE06.jpg,MN,1,num_6,32,num_8,0.483474399734,,,2017_Apr_18_1842,59.9988646019,MAFE4ImagesEEG,001,200132,
AFNE01.JPG,AFNE01.JPG,AFNE01.JPG,AFNE01.JPG,AFNE01.JPG,AFNE01.JPG,,,,,,,,,,,,,,,,,4,3,43,7,,,,,,,AMSA05.jpg,AMNE03.jpg,AMSA12.jpg,AMNE18.jpg,AMNE03.jpg,MN,1,num_6,16,num_6,0.350153104795,,,2017_Apr_18_1842,59.9988646019,MAFE4ImagesEEG,001,200132,
AFNE01.JPG,AFNE01.JPG,AFNE01.JPG,AFNE01.JPG,AFNE01.JPG,AFNE01.JPG,,,,,,,,,,,,,,,,,4,4,44,2,,,,,,,AMNE18.jpg,AMSA08.jpg,AMNE11.jpg,AMSA01.jpg,AMNE18.jpg,MN,1,num_8,16,num_8,0.566820375534,,,2017_Apr_18_1842,59.9988646019,MAFE4ImagesEEG,001,200132,
AFNE01.JPG,AFNE01.JPG,AFNE01.JPG,AFNE01.JPG,AFNE01.JPG,AFNE01.JPG,,,,,,,,,,,,,,,,,4,5,45,3,,,,,,,AMNE08.jpg,AMSA12.jpg,AMSA07.jpg,AMNE09.jpg,AMNE09.jpg,MN,1,num_4,32,num_2,0.300164956105,,,2017_Apr_18_1842,59.9988646019,MAFE4ImagesEEG,001,200132,
AFNE01.JPG,AFNE01.JPG,AFNE01.JPG,AFNE01.JPG,AFNE01.JPG,AFNE01.JPG,,,,,,,,,,,,,,,,,4,6,46,6,,,,,,,AMSA17.jpg,AMNE19.jpg,AMNE11.jpg,AMSA16.jpg,AMNE11.jpg,MN,1,num_2,32,num_4,0.583468017023,,,2017_Apr_18_1842,59.9988646019,MAFE4ImagesEEG,001,200132,
AFNE01.JPG,AFNE01.JPG,AFNE01.JPG,AFNE01.JPG,AFNE01.JPG,AFNE01.JPG,,,,,,,,,,,,,,,,,4,7,47,4,,,,,,,AMNE14.jpg,AMSA14.jpg,AMSA19.jpg,AMNE20.jpg,AMSA14.jpg,MS,2,num_6,16,num_6,0.450156665,,,2017_Apr_18_1842,59.9988646019,MAFE4ImagesEEG,001,200132,
AFNE01.JPG,AFNE01.JPG,AFNE01.JPG,AFNE01.JPG,AFNE01.JPG,AFNE01.JPG,,,,,,,,,,,,,,,,,4,8,48,9,,,,,,,AMNE14.jpg,AMNE09.jpg,AMSA14.jpg,AMSA03.jpg,AMSA14.jpg,MS,2,num_2,16,num_2,0.550116604703,,,2017_Apr_18_1842,59.9988646019,MAFE4ImagesEEG,001,200132,
AFNE01.JPG,AFNE01.JPG,AFNE01.JPG,AFNE01.JPG,AFNE01.JPG,AFNE01.JPG,,,,,,,,,,,,,,,,,4,9,49,8,,,,,,,AMSA16.jpg,AMNE06.jpg,AMSA04.jpg,AMNE03.jpg,AMNE06.jpg,MN,1,num_6,32,num_8,0.566811394834,,,2017_Apr_18_1842,59.9988646019,MAFE4ImagesEEG,001,200132,
AFNE01.JPG,AFNE01.JPG,AFNE01.JPG,AFNE01.JPG,AFNE01.JPG,AFNE01.JPG,,,,,,,,,,,,,,,,,5,0,50,0,,,,,,,AMSA17.jpg,AMSA16.jpg,AMNE14.jpg,AMNE10.jpg,AMSA17.jpg,MS,2,num_8,32,num_6,0.483487550024,,,2017_Apr_18_1842,59.9988646019,MAFE4ImagesEEG,001,200132,
AFNE01.JPG,AFNE01.JPG,AFNE01.JPG,AFNE01.JPG,AFNE01.JPG,AFNE01.JPG,,,,,,,,,,,,,,,,,5,1,51,4,,,,,,,AMNE10.jpg,AMNE16.jpg,AMSA02.jpg,AMSA04.jpg,AMSA04.jpg,MS,2,num_4,16,num_4,0.433511268682,,,2017_Apr_18_1842,59.9988646019,MAFE4ImagesEEG,001,200132,
AFNE01.JPG,AFNE01.JPG,AFNE01.JPG,AFNE01.JPG,AFNE01.JPG,AFNE01.JPG,,,,,,,,,,,,,,,,,5,2,52,3,,,,,,,AMSA05.jpg,AMNE16.jpg,AMNE18.jpg,AMSA15.jpg,AMNE18.jpg,MN,1,num_2,32,num_8,0.500145134429,,,2017_Apr_18_1842,59.9988646019,MAFE4ImagesEEG,001,200132,
AFNE01.JPG,AFNE01.JPG,AFNE01.JPG,AFNE01.JPG,AFNE01.JPG,AFNE01.JPG,,,,,,,,,,,,,,,,,5,3,53,2,,,,,,,AMSA20.jpg,AMSA12.jpg,AMNE18.jpg,AMNE19.jpg,AMSA20.jpg,MS,2,num_8,32,num_4,0.583494959108,,,2017_Apr_18_1842,59.9988646019,MAFE4ImagesEEG,001,200132,
AFNE01.JPG,AFNE01.JPG,AFNE01.JPG,AFNE01.JPG,AFNE01.JPG,AFNE01.JPG,,,,,,,,,,,,,,,,,5,4,54,9,,,,,,,AMNE01.jpg,AMSA10.jpg,AMNE15.jpg,AMSA07.jpg,AMNE01.jpg,MN,1,num_8,16,num_8,0.633480541888,,,2017_Apr_18_1842,59.9988646019,MAFE4ImagesEEG,001,200132,
AFNE01.JPG,AFNE01.JPG,AFNE01.JPG,AFNE01.JPG,AFNE01.JPG,AFNE01.JPG,,,,,,,,,,,,,,,,,5,5,55,7,,,,,,,AMNE11.jpg,AMNE19.jpg,AMSA14.jpg,AMSA20.jpg,AMNE11.jpg,MN,1,num_8,16,num_8,0.583487582117,,,2017_Apr_18_1842,59.9988646019,MAFE4ImagesEEG,001,200132,
AFNE01.JPG,AFNE01.JPG,AFNE01.JPG,AFNE01.JPG,AFNE01.JPG,AFNE01.JPG,,,,,,,,,,,,,,,,,5,6,56,8,,,,,,,AMNE17.jpg,AMSA07.jpg,AMNE15.jpg,AMSA11.jpg,AMSA07.jpg,MS,2,num_6,16,num_6,0.5501897332,,,2017_Apr_18_1842,59.9988646019,MAFE4ImagesEEG,001,200132,
AFNE01.JPG,AFNE01.JPG,AFNE01.JPG,AFNE01.JPG,AFNE01.JPG,AFNE01.JPG,,,,,,,,,,,,,,,,,5,7,57,1,,,,,,,AMSA08.jpg,AMSA07.jpg,AMNE03.jpg,AMNE04.jpg,AMSA08.jpg,MS,2,num_8,32,num_6,0.566827431787,,,2017_Apr_18_1842,59.9988646019,MAFE4ImagesEEG,001,200132,
AFNE01.JPG,AFNE01.JPG,AFNE01.JPG,AFNE01.JPG,AFNE01.JPG,AFNE01.JPG,,,,,,,,,,,,,,,,,5,8,58,6,,,,,,,AMSA03.jpg,AMNE15.jpg,AMSA09.jpg,AMNE18.jpg,AMNE18.jpg,MN,1,num_4,32,num_2,0.566816526654,,,2017_Apr_18_1842,59.9988646019,MAFE4ImagesEEG,001,200132,
AFNE01.JPG,AFNE01.JPG,AFNE01.JPG,AFNE01.JPG,AFNE01.JPG,AFNE01.JPG,,,,,,,,,,,,,,,,,5,9,59,5,,,,,,,AMNE17.jpg,AMSA19.jpg,AMNE12.jpg,AMSA17.jpg,AMSA19.jpg,MS,2,num_6,32,num_8,0.533194731281,,,2017_Apr_18_1842,59.9988646019,MAFE4ImagesEEG,001,200132,
,,,,,,,,,,,,,,,,,,,,,,,,,,,,,,,,,,,,,,,,,,,space,1.99997466161,2017_Apr_18_1842,59.9988646019,MAFE4ImagesEEG,001,200132,
AFNE01.JPG,AFNE01.JPG,AFNE01.JPG,AFNE01.JPG,AFNE01.JPG,AFNE01.JPG,,,,,,,,,,,,,,,,,,,,,0,0,0,1,,,AFNE06.jpg,AFSA13.jpg,AFNE12.jpg,AFSA17.jpg,AFNE12.jpg,FN,3,num_2,16,num_2,0.58353441002,,,2017_Apr_18_1842,59.9988646019,MAFE4ImagesEEG,001,200132,
AFNE01.JPG,AFNE01.JPG,AFNE01.JPG,AFNE01.JPG,AFNE01.JPG,AFNE01.JPG,,,,,,,,,,,,,,,,,,,,,0,1,1,8,,,AFSA18.jpg,AFNE01.jpg,AFSA04.jpg,AFNE08.jpg,AFSA18.jpg,FS,4,num_8,16,num_8,0.51679341741,,,2017_Apr_18_1842,59.9988646019,MAFE4ImagesEEG,001,200132,
AFNE01.JPG,AFNE01.JPG,AFNE01.JPG,AFNE01.JPG,AFNE01.JPG,AFNE01.JPG,,,,,,,,,,,,,,,,,,,,,0,2,2,6,,,AFSA01.jpg,AFNE11.jpg,AFSA20.jpg,AFNE14.jpg,AFSA01.jpg,FS,4,num_8,16,num_8,0.55012269874,,,2017_Apr_18_1842,59.9988646019,MAFE4ImagesEEG,001,200132,
AFNE01.JPG,AFNE01.JPG,AFNE01.JPG,AFNE01.JPG,AFNE01.JPG,AFNE01.JPG,,,,,,,,,,,,,,,,,,,,,0,3,3,2,,,AFSA01.jpg,AFSA11.jpg,AFNE06.jpg,AFNE13.jpg,AFSA01.jpg,FS,4,num_8,16,num_8,0.533437530772,,,2017_Apr_18_1842,59.9988646019,MAFE4ImagesEEG,001,200132,
AFNE01.JPG,AFNE01.JPG,AFNE01.JPG,AFNE01.JPG,AFNE01.JPG,AFNE01.JPG,,,,,,,,,,,,,,,,,,,,,0,4,4,0,,,AFNE19.jpg,AFSA05.jpg,AFNE16.jpg,AFSA10.jpg,AFSA10.jpg,FS,4,num_4,16,num_4,0.450301639081,,,2017_Apr_18_1842,59.9988646019,MAFE4ImagesEEG,001,200132,
AFNE01.JPG,AFNE01.JPG,AFNE01.JPG,AFNE01.JPG,AFNE01.JPG,AFNE01.JPG,,,,,,,,,,,,,,,,,,,,,0,5,5,4,,,AFNE16.jpg,AFSA16.jpg,AFNE18.jpg,AFSA09.jpg,AFNE18.jpg,FN,3,num_2,32,num_6,0.633461618272,,,2017_Apr_18_1842,59.9988646019,MAFE4ImagesEEG,001,200132,
AFNE01.JPG,AFNE01.JPG,AFNE01.JPG,AFNE01.JPG,AFNE01.JPG,AFNE01.JPG,,,,,,,,,,,,,,,,,,,,,0,6,6,5,,,AFSA07.jpg,AFNE07.jpg,AFNE16.jpg,AFSA03.jpg,AFNE16.jpg,FN,3,num_2,16,num_2,0.750436766451,,,2017_Apr_18_1842,59.9988646019,MAFE4ImagesEEG,001,200132,
AFNE01.JPG,AFNE01.JPG,AFNE01.JPG,AFNE01.JPG,AFNE01.JPG,AFNE01.JPG,,,,,,,,,,,,,,,,,,,,,0,7,7,7,,,AFNE11.jpg,AFSA12.jpg,AFSA07.jpg,AFNE10.jpg,AFSA12.jpg,FS,4,num_6,16,num_6,0.566749171441,,,2017_Apr_18_1842,59.9988646019,MAFE4ImagesEEG,001,200132,
AFNE01.JPG,AFNE01.JPG,AFNE01.JPG,AFNE01.JPG,AFNE01.JPG,AFNE01.JPG,,,,,,,,,,,,,,,,,,,,,0,8,8,9,,,AFSA07.jpg,AFNE20.jpg,AFSA02.jpg,AFNE19.jpg,AFSA07.jpg,FS,4,num_8,32,num_6,0.533503282277,,,2017_Apr_18_1842,59.9988646019,MAFE4ImagesEEG,001,200132,
AFNE01.JPG,AFNE01.JPG,AFNE01.JPG,AFNE01.JPG,AFNE01.JPG,AFNE01.JPG,,,,,,,,,,,,,,,,,,,,,0,9,9,3,,,AFNE16.jpg,AFNE19.jpg,AFSA09.jpg,AFSA06.jpg,AFNE19.jpg,FN,3,num_6,16,num_6,0.583502015361,,,2017_Apr_18_1842,59.9988646019,MAFE4ImagesEEG,001,200132,
AFNE01.JPG,AFNE01.JPG,AFNE01.JPG,AFNE01.JPG,AFNE01.JPG,AFNE01.JPG,,,,,,,,,,,,,,,,,,,,,1,0,10,2,,,AFNE04.jpg,AFNE06.jpg,AFSA06.jpg,AFSA15.jpg,AFSA06.jpg,FS,4,num_2,32,num_6,0.716762049124,,,2017_Apr_18_1842,59.9988646019,MAFE4ImagesEEG,001,200132,
AFNE01.JPG,AFNE01.JPG,AFNE01.JPG,AFNE01.JPG,AFNE01.JPG,AFNE01.JPG,,,,,,,,,,,,,,,,,,,,,1,1,11,0,,,AFSA11.jpg,AFNE03.jpg,AFNE15.jpg,AFSA12.jpg,AFSA12.jpg,FS,4,num_4,16,num_4,0.466686274522,,,2017_Apr_18_1842,59.9988646019,MAFE4ImagesEEG,001,200132,
AFNE01.JPG,AFNE01.JPG,AFNE01.JPG,AFNE01.JPG,AFNE01.JPG,AFNE01.JPG,,,,,,,,,,,,,,,,,,,,,1,2,12,9,,,AFSA16.jpg,AFNE09.jpg,AFNE08.jpg,AFSA13.jpg,AFSA16.jpg,FS,4,num_8,16,num_8,0.450123949617,,,2017_Apr_18_1842,59.9988646019,MAFE4ImagesEEG,001,200132,
AFNE01.JPG,AFNE01.JPG,AFNE01.JPG,AFNE01.JPG,AFNE01.JPG,AFNE01.JPG,,,,,,,,,,,,,,,,,,,,,1,3,13,5,,,AFSA18.jpg,AFSA16.jpg,AFNE07.jpg,AFNE13.jpg,AFSA16.jpg,FS,4,num_6,16,num_6,0.466803985764,,,2017_Apr_18_1842,59.9988646019,MAFE4ImagesEEG,001,200132,
AFNE01.JPG,AFNE01.JPG,AFNE01.JPG,AFNE01.JPG,AFNE01.JPG,AFNE01.JPG,,,,,,,,,,,,,,,,,,,,,1,4,14,1,,,AFNE13.jpg,AFSA20.jpg,AFSA06.jpg,AFNE20.jpg,AFSA06.jpg,FS,4,num_2,32,num_6,0.516878733994,,,2017_Apr_18_1842,59.9988646019,MAFE4ImagesEEG,001,200132,
AFNE01.JPG,AFNE01.JPG,AFNE01.JPG,AFNE01.JPG,AFNE01.JPG,AFNE01.JPG,,,,,,,,,,,,,,,,,,,,,1,5,15,8,,,AFSA05.jpg,AFNE14.jpg,AFNE15.jpg,AFSA16.jpg,AFNE14.jpg,FN,3,num_6,32,num_4,0.55015348969,,,2017_Apr_18_1842,59.9988646019,MAFE4ImagesEEG,001,200132,
AFNE01.JPG,AFNE01.JPG,AFNE01.JPG,AFNE01.JPG,AFNE01.JPG,AFNE01.JPG,,,,,,,,,,,,,,,,,,,,,1,6,16,4,,,AFSA13.jpg,AFNE16.jpg,AFSA08.jpg,AFNE02.jpg,AFNE02.jpg,FN,3,num_4,16,num_4,0.483562602982,,,2017_Apr_18_1842,59.9988646019,MAFE4ImagesEEG,001,200132,
AFNE01.JPG,AFNE01.JPG,AFNE01.JPG,AFNE01.JPG,AFNE01.JPG,AFNE01.JPG,,,,,,,,,,,,,,,,,,,,,1,7,17,3,,,AFSA17.jpg,AFNE11.jpg,AFNE14.jpg,AFSA12.jpg,AFNE11.jpg,FN,3,num_6,16,num_6,0.450162438297,,,2017_Apr_18_1842,59.9988646019,MAFE4ImagesEEG,001,200132,
AFNE01.JPG,AFNE01.JPG,AFNE01.JPG,AFNE01.JPG,AFNE01.JPG,AFNE01.JPG,,,,,,,,,,,,,,,,,,,,,1,8,18,7,,,AFNE01.jpg,AFSA16.jpg,AFNE08.jpg,AFSA09.jpg,AFSA09.jpg,FS,4,num_4,32,num_8,0.600139393209,,,2017_Apr_18_1842,59.9988646019,MAFE4ImagesEEG,001,200132,
AFNE01.JPG,AFNE01.JPG,AFNE01.JPG,AFNE01.JPG,AFNE01.JPG,AFNE01.JPG,,,,,,,,,,,,,,,,,,,,,1,9,19,6,,,AFSA12.jpg,AFSA16.jpg,AFNE09.jpg,AFNE05.jpg,AFSA12.jpg,FS,4,num_8,16,num_8,0.550274087582,,,2017_Apr_18_1842,59.9988646019,MAFE4ImagesEEG,001,200132,
AFNE01.JPG,AFNE01.JPG,AFNE01.JPG,AFNE01.JPG,AFNE01.JPG,AFNE01.JPG,,,,,,,,,,,,,,,,,,,,,2,0,20,5,,,AFNE13.jpg,AFNE19.jpg,AFSA02.jpg,AFSA07.jpg,AFNE13.jpg,FN,3,num_8,16,num_8,0.683547271648,,,2017_Apr_18_1842,59.9988646019,MAFE4ImagesEEG,001,200132,
AFNE01.JPG,AFNE01.JPG,AFNE01.JPG,AFNE01.JPG,AFNE01.JPG,AFNE01.JPG,,,,,,,,,,,,,,,,,,,,,2,1,21,3,,,AFSA06.jpg,AFSA16.jpg,AFNE04.jpg,AFNE07.jpg,AFSA06.jpg,FS,4,num_8,32,num_4,0.716746012171,,,2017_Apr_18_1842,59.9988646019,MAFE4ImagesEEG,001,200132,
AFNE01.JPG,AFNE01.JPG,AFNE01.JPG,AFNE01.JPG,AFNE01.JPG,AFNE01.JPG,,,,,,,,,,,,,,,,,,,,,2,2,22,0,,,AFNE08.jpg,AFNE19.jpg,AFSA14.jpg,AFSA02.jpg,AFNE08.jpg,FN,3,num_8,16,num_8,0.550128472038,,,2017_Apr_18_1842,59.9988646019,MAFE4ImagesEEG,001,200132,
AFNE01.JPG,AFNE01.JPG,AFNE01.JPG,AFNE01.JPG,AFNE01.JPG,AFNE01.JPG,,,,,,,,,,,,,,,,,,,,,2,3,23,9,,,AFNE01.jpg,AFNE11.jpg,AFSA07.jpg,AFSA09.jpg,AFSA09.jpg,FS,4,num_4,32,num_8,0.600194560335,,,2017_Apr_18_1842,59.9988646019,MAFE4ImagesEEG,001,200132,
AFNE01.JPG,AFNE01.JPG,AFNE01.JPG,AFNE01.JPG,AFNE01.JPG,AFNE01.JPG,,,,,,,,,,,,,,,,,,,,,2,4,24,2,,,AFSA03.jpg,AFSA12.jpg,AFNE17.jpg,AFNE18.jpg,AFNE17.jpg,FN,3,num_2,32,num_8,0.700147123018,,,2017_Apr_18_1842,59.9988646019,MAFE4ImagesEEG,001,200132,
AFNE01.JPG,AFNE01.JPG,AFNE01.JPG,AFNE01.JPG,AFNE01.JPG,AFNE01.JPG,,,,,,,,,,,,,,,,,,,,,2,5,25,1,,,AFNE17.jpg,AFSA04.jpg,AFSA17.jpg,AFNE08.jpg,AFNE17.jpg,FN,3,num_8,32,num_2,0.616905708157,,,2017_Apr_18_1842,59.9988646019,MAFE4ImagesEEG,001,200132,
AFNE01.JPG,AFNE01.JPG,AFNE01.JPG,AFNE01.JPG,AFNE01.JPG,AFNE01.JPG,,,,,,,,,,,,,,,,,,,,,2,6,26,4,,,AFSA03.jpg,AFNE19.jpg,AFSA10.jpg,AFNE13.jpg,AFSA10.jpg,FS,4,num_2,32,num_8,0.666775183403,,,2017_Apr_18_1842,59.9988646019,MAFE4ImagesEEG,001,200132,
AFNE01.JPG,AFNE01.JPG,AFNE01.JPG,AFNE01.JPG,AFNE01.JPG,AFNE01.JPG,,,,,,,,,,,,,,,,,,,,,2,7,27,8,,,AFSA05.jpg,AFSA13.jpg,AFNE12.jpg,AFNE16.jpg,AFNE16.jpg,FN,3,num_4,16,num_4,0.500165661739,,,2017_Apr_18_1842,59.9988646019,MAFE4ImagesEEG,001,200132,
AFNE01.JPG,AFNE01.JPG,AFNE01.JPG,AFNE01.JPG,AFNE01.JPG,AFNE01.JPG,,,,,,,,,,,,,,,,,,,,,2,8,28,6,,,AFNE15.jpg,AFNE01.jpg,AFSA20.jpg,AFSA18.jpg,AFNE01.jpg,FN,3,num_6,32,num_2,0.78346294933,,,2017_Apr_18_1842,59.9988646019,MAFE4ImagesEEG,001,200132,
AFNE01.JPG,AFNE01.JPG,AFNE01.JPG,AFNE01.JPG,AFNE01.JPG,AFNE01.JPG,,,,,,,,,,,,,,,,,,,,,2,9,29,7,,,AFNE07.jpg,AFSA11.jpg,AFNE05.jpg,AFSA17.jpg,AFSA11.jpg,FS,4,num_6,16,num_6,0.416886399675,,,2017_Apr_18_1842,59.9988646019,MAFE4ImagesEEG,001,200132,
AFNE01.JPG,AFNE01.JPG,AFNE01.JPG,AFNE01.JPG,AFNE01.JPG,AFNE01.JPG,,,,,,,,,,,,,,,,,,,,,3,0,30,0,,,AFNE02.jpg,AFNE06.jpg,AFSA12.jpg,AFSA09.jpg,AFSA12.jpg,FS,4,num_2,32,num_8,0.750122762896,,,2017_Apr_18_1842,59.9988646019,MAFE4ImagesEEG,001,200132,
AFNE01.JPG,AFNE01.JPG,AFNE01.JPG,AFNE01.JPG,AFNE01.JPG,AFNE01.JPG,,,,,,,,,,,,,,,,,,,,,3,1,31,8,,,AFNE03.jpg,AFNE16.jpg,AFSA13.jpg,AFSA16.jpg,AFNE16.jpg,FN,3,num_6,16,num_6,0.383502913435,,,2017_Apr_18_1842,59.9988646019,MAFE4ImagesEEG,001,200132,
AFNE01.JPG,AFNE01.JPG,AFNE01.JPG,AFNE01.JPG,AFNE01.JPG,AFNE01.JPG,,,,,,,,,,,,,,,,,,,,,3,2,32,3,,,AFNE15.jpg,AFSA15.jpg,AFSA18.jpg,AFNE04.jpg,AFSA18.jpg,FS,4,num_2,32,num_4,0.600106036349,,,2017_Apr_18_1842,59.9988646019,MAFE4ImagesEEG,001,200132,
AFNE01.JPG,AFNE01.JPG,AFNE01.JPG,AFNE01.JPG,AFNE01.JPG,AFNE01.JPG,,,,,,,,,,,,,,,,,,,,,3,3,33,5,,,AFNE05.jpg,AFSA18.jpg,AFSA07.jpg,AFNE15.jpg,AFSA07.jpg,FS,4,num_2,32,num_8,0.583453583764,,,2017_Apr_18_1842,59.9988646019,MAFE4ImagesEEG,001,200132,
AFNE01.JPG,AFNE01.JPG,AFNE01.JPG,AFNE01.JPG,AFNE01.JPG,AFNE01.JPG,,,,,,,,,,,,,,,,,,,,,3,4,34,6,,,AFSA17.jpg,AFNE09.jpg,AFSA20.jpg,AFNE13.jpg,AFNE09.jpg,FN,3,num_6,32,num_8,0.483453872424,,,2017_Apr_18_1842,59.9988646019,MAFE4ImagesEEG,001,200132,
AFNE01.JPG,AFNE01.JPG,AFNE01.JPG,AFNE01.JPG,AFNE01.JPG,AFNE01.JPG,,,,,,,,,,,,,,,,,,,,,3,5,35,7,,,AFSA16.jpg,AFSA17.jpg,AFNE12.jpg,AFNE13.jpg,AFSA16.jpg,FS,4,num_8,16,num_8,0.566497391264,,,2017_Apr_18_1842,59.9988646019,MAFE4ImagesEEG,001,200132,
AFNE01.JPG,AFNE01.JPG,AFNE01.JPG,AFNE01.JPG,AFNE01.JPG,AFNE01.JPG,,,,,,,,,,,,,,,,,,,,,3,6,36,2,,,AFSA18.jpg,AFSA15.jpg,AFNE19.jpg,AFNE11.jpg,AFSA15.jpg,FS,4,num_6,16,num_6,0.666807257294,,,2017_Apr_18_1842,59.9988646019,MAFE4ImagesEEG,001,200132,
AFNE01.JPG,AFNE01.JPG,AFNE01.JPG,AFNE01.JPG,AFNE01.JPG,AFNE01.JPG,,,,,,,,,,,,,,,,,,,,,3,7,37,1,,,AFSA15.jpg,AFNE16.jpg,AFNE12.jpg,AFSA08.jpg,AFNE12.jpg,FN,3,num_2,16,num_2,0.783477061865,,,2017_Apr_18_1842,59.9988646019,MAFE4ImagesEEG,001,200132,
AFNE01.JPG,AFNE01.JPG,AFNE01.JPG,AFNE01.JPG,AFNE01.JPG,AFNE01.JPG,,,,,,,,,,,,,,,,,,,,,3,8,38,4,,,AFSA03.jpg,AFSA12.jpg,AFNE08.jpg,AFNE05.jpg,AFSA03.jpg,FS,4,num_8,16,num_8,0.583469299978,,,2017_Apr_18_1842,59.9988646019,MAFE4ImagesEEG,001,200132,
