IPosition2,IPosition3,IPosition1,IPosition6,IPosition4,IPosition5,TrialsF1.thisRepN,TrialsF1.thisTrialN,TrialsF1.thisN,TrialsF1.thisIndex,TrialsM1.thisRepN,TrialsM1.thisTrialN,TrialsM1.thisN,TrialsM1.thisIndex,TrialsF2.thisRepN,TrialsF2.thisTrialN,TrialsF2.thisN,TrialsF2.thisIndex,TrialsM2.thisRepN,TrialsM2.thisTrialN,TrialsM2.thisN,TrialsM2.thisIndex,TrialsF3.thisRepN,TrialsF3.thisTrialN,TrialsF3.thisN,TrialsF3.thisIndex,TrialsM3.thisRepN,TrialsM3.thisTrialN,TrialsM3.thisN,TrialsM3.thisIndex,InstrKey_resp.keys,InstrKey_resp.rt,Image0 _Position,Image1 _Position,Image2 _Position,Image3 _Position,Center_image,condition,code,correct_answer,accuracy,Key_Resp.keys,Key_Resp.rt,BreakKey_resp.keys,BreakKey_resp.rt,date,frameRate,expName,session,participant,
,,,,,,,,,,,,,,,,,,,,,,,,,,,,,,space,7.59968137779,,,,,,,,,,,,,,2017_Apr_18_1135,60.0069480122,FEMA4ImagesEEG,001,200163,
AMNE23.JPG,AMNE24.JPG,AMNE22.JPG,AMSA24.JPG,AMSA22.JPG,AMSA23.JPG,0,0,0,9,,,,,,,,,,,,,,,,,,,,,,,AFSA04.jpg,AFSA09.jpg,AFNE10.jpg,AFNE12.jpg,AFSA09.jpg,FS,4,num_6,32,num_8,1.06714480311,,,2017_Apr_18_1135,60.0069480122,FEMA4ImagesEEG,001,200163,
AMSA25.JPG,AMNE24.JPG,AMSA24.JPG,AMNE26.JPG,AMSA21.JPG,AMNE25.JPG,0,1,1,3,,,,,,,,,,,,,,,,,,,,,,,AFSA07.jpg,AFNE11.jpg,AFSA08.jpg,AFNE19.jpg,AFNE19.jpg,FN,3,num_4,32,num_6,0.983503747353,,,2017_Apr_18_1135,60.0069480122,FEMA4ImagesEEG,001,200163,
AMNE22.JPG,AMSA24.JPG,AMSA22.JPG,AMNE25.JPG,AMNE24.JPG,AMSA25.JPG,0,2,2,7,,,,,,,,,,,,,,,,,,,,,,,AFNE20.jpg,AFSA18.jpg,AFSA13.jpg,AFNE06.jpg,AFSA13.jpg,FS,4,num_2,32,num_6,1.01678171044,,,2017_Apr_18_1135,60.0069480122,FEMA4ImagesEEG,001,200163,
AMSA21.JPG,AMNE22.JPG,AMNE21.JPG,AMSA23.JPG,AMSA22.JPG,AMNE23.JPG,0,3,3,1,,,,,,,,,,,,,,,,,,,,,,,AFNE20.jpg,AFSA05.jpg,AFNE12.jpg,AFSA04.jpg,AFSA05.jpg,FS,4,num_6,32,num_8,0.783474495955,,,2017_Apr_18_1135,60.0069480122,FEMA4ImagesEEG,001,200163,
AFNE23.JPG,AFNE24.JPG,AFNE22.JPG,AFSA24.JPG,AFSA22.JPG,AFSA23.JPG,0,4,4,8,,,,,,,,,,,,,,,,,,,,,,,AFSA02.jpg,AFNE07.jpg,AFNE14.jpg,AFSA19.jpg,AFSA02.jpg,FS,4,num_8,32,num_2,1.30008188469,,,2017_Apr_18_1135,60.0069480122,FEMA4ImagesEEG,001,200163,
AFSA21.JPG,AFNE22.JPG,AFNE21.JPG,AFSA23.JPG,AFSA22.JPG,AFNE23.JPG,0,5,5,0,,,,,,,,,,,,,,,,,,,,,,,AFNE01.jpg,AFSA14.jpg,AFSA04.jpg,AFNE13.jpg,AFNE01.jpg,FN,3,num_8,16,num_8,1.25008924564,,,2017_Apr_18_1135,60.0069480122,FEMA4ImagesEEG,001,200163,
AFSA25.JPG,AFNE24.JPG,AFSA24.JPG,AFNE21.JPG,AFSA21.JPG,AFNE25.JPG,0,6,6,2,,,,,,,,,,,,,,,,,,,,,,,AFNE07.jpg,AFSA03.jpg,AFNE20.jpg,AFSA16.jpg,AFNE07.jpg,FN,3,num_8,32,num_2,1.18355128089,,,2017_Apr_18_1135,60.0069480122,FEMA4ImagesEEG,001,200163,
AMSA21.JPG,AMNE23.JPG,AMNE21.JPG,AMSA25.JPG,AMNE25.JPG,AMSA23.JPG,0,7,7,5,,,,,,,,,,,,,,,,,,,,,,,AFNE11.jpg,AFNE05.jpg,AFSA05.jpg,AFSA15.jpg,AFSA15.jpg,FS,4,num_4,16,num_4,0.916728114928,,,2017_Apr_18_1135,60.0069480122,FEMA4ImagesEEG,001,200163,
AFSA21.JPG,AFNE23.JPG,AFNE21.JPG,AFSA25.JPG,AFNE25.JPG,AFSA23.JPG,0,8,8,4,,,,,,,,,,,,,,,,,,,,,,,AFNE18.jpg,AFSA17.jpg,AFNE19.jpg,AFSA20.jpg,AFSA17.jpg,FS,4,num_6,16,num_6,0.850112210566,,,2017_Apr_18_1135,60.0069480122,FEMA4ImagesEEG,001,200163,
AFNE22.JPG,AFSA24.JPG,AFSA22.JPG,AFNE25.JPG,AFNE24.JPG,AFSA25.JPG,0,9,9,6,,,,,,,,,,,,,,,,,,,,,,,AFNE16.jpg,AFNE06.jpg,AFSA19.jpg,AFSA18.jpg,AFNE16.jpg,FN,3,num_8,32,num_6,0.98357527217,,,2017_Apr_18_1135,60.0069480122,FEMA4ImagesEEG,001,200163,
AFSA21.JPG,AFNE23.JPG,AFNE21.JPG,AFSA25.JPG,AFNE25.JPG,AFSA23.JPG,,,,,0,0,0,4,,,,,,,,,,,,,,,,,,,AMSA13.jpg,AMNE14.jpg,AMNE15.jpg,AMSA18.jpg,AMSA13.jpg,MS,2,num_8,32,num_6,1.23350831789,,,2017_Apr_18_1135,60.0069480122,FEMA4ImagesEEG,001,200163,
AMSA25.JPG,AMNE24.JPG,AMSA24.JPG,AMNE26.JPG,AMSA21.JPG,AMNE25.JPG,,,,,0,1,1,3,,,,,,,,,,,,,,,,,,,AMNE04.jpg,AMSA17.jpg,AMNE07.jpg,AMSA03.jpg,AMNE07.jpg,MN,1,num_2,32,num_6,1.13345311869,,,2017_Apr_18_1135,60.0069480122,FEMA4ImagesEEG,001,200163,
AFSA25.JPG,AFNE24.JPG,AFSA24.JPG,AFNE21.JPG,AFSA21.JPG,AFNE25.JPG,,,,,0,2,2,2,,,,,,,,,,,,,,,,,,,AMSA11.jpg,AMNE08.jpg,AMNE16.jpg,AMSA20.jpg,AMNE16.jpg,MN,1,num_2,16,num_2,1.18353780985,,,2017_Apr_18_1135,60.0069480122,FEMA4ImagesEEG,001,200163,
AFNE22.JPG,AFSA24.JPG,AFSA22.JPG,AFNE25.JPG,AFNE24.JPG,AFSA25.JPG,,,,,0,3,3,6,,,,,,,,,,,,,,,,,,,AMNE01.jpg,AMSA15.jpg,AMNE18.jpg,AMSA11.jpg,AMSA11.jpg,MS,2,num_4,32,num_8,0.983427090716,,,2017_Apr_18_1135,60.0069480122,FEMA4ImagesEEG,001,200163,
AMSA21.JPG,AMNE23.JPG,AMNE21.JPG,AMSA25.JPG,AMNE25.JPG,AMSA23.JPG,,,,,0,4,4,5,,,,,,,,,,,,,,,,,,,AMNE10.jpg,AMNE09.jpg,AMSA01.jpg,AMSA02.jpg,AMNE10.jpg,MN,1,num_8,32,num_6,1.46668563304,,,2017_Apr_18_1135,60.0069480122,FEMA4ImagesEEG,001,200163,
AMSA21.JPG,AMNE22.JPG,AMNE21.JPG,AMSA23.JPG,AMSA22.JPG,AMNE23.JPG,,,,,0,5,5,1,,,,,,,,,,,,,,,,,,,AMSA17.jpg,AMNE20.jpg,AMNE17.jpg,AMSA15.jpg,AMSA17.jpg,MS,2,num_8,16,num_8,1.33340507197,,,2017_Apr_18_1135,60.0069480122,FEMA4ImagesEEG,001,200163,
AFNE23.JPG,AFNE24.JPG,AFNE22.JPG,AFSA24.JPG,AFSA22.JPG,AFSA23.JPG,,,,,0,6,6,8,,,,,,,,,,,,,,,,,,,AMSA16.jpg,AMSA04.jpg,AMNE20.jpg,AMNE18.jpg,AMSA04.jpg,MS,2,num_6,16,num_6,0.966767581878,,,2017_Apr_18_1135,60.0069480122,FEMA4ImagesEEG,001,200163,
AFSA21.JPG,AFNE22.JPG,AFNE21.JPG,AFSA23.JPG,AFSA22.JPG,AFNE23.JPG,,,,,0,7,7,0,,,,,,,,,,,,,,,,,,,AMNE12.jpg,AMSA10.jpg,AMSA02.jpg,AMNE15.jpg,AMSA10.jpg,MS,2,num_6,16,num_6,0.983477767499,,,2017_Apr_18_1135,60.0069480122,FEMA4ImagesEEG,001,200163,
AMNE22.JPG,AMSA24.JPG,AMSA22.JPG,AMNE25.JPG,AMNE24.JPG,AMSA25.JPG,,,,,0,8,8,7,,,,,,,,,,,,,,,,,,,AMNE08.jpg,AMSA10.jpg,AMNE02.jpg,AMSA13.jpg,AMNE02.jpg,MN,1,num_2,16,num_2,0.950025643091,,,2017_Apr_18_1135,60.0069480122,FEMA4ImagesEEG,001,200163,
AMNE23.JPG,AMNE24.JPG,AMNE22.JPG,AMSA24.JPG,AMSA22.JPG,AMSA23.JPG,,,,,0,9,9,9,,,,,,,,,,,,,,,,,,,AMSA17.jpg,AMSA01.jpg,AMNE02.jpg,AMNE03.jpg,AMNE02.jpg,MN,1,num_2,32,num_8,1.35023328957,,,2017_Apr_18_1135,60.0069480122,FEMA4ImagesEEG,001,200163,
AMSA21.JPG,AMNE23.JPG,AMNE21.JPG,AMSA25.JPG,AMNE25.JPG,AMSA23.JPG,,,,,,,,,0,0,0,5,,,,,,,,,,,,,,,AFNE12.jpg,AFSA10.jpg,AFSA13.jpg,AFNE09.jpg,AFSA13.jpg,FS,4,num_2,16,num_2,1.58341349137,,,2017_Apr_18_1135,60.0069480122,FEMA4ImagesEEG,001,200163,
AMNE23.JPG,AMNE24.JPG,AMNE22.JPG,AMSA24.JPG,AMSA22.JPG,AMSA23.JPG,,,,,,,,,0,1,1,9,,,,,,,,,,,,,,,AFSA18.jpg,AFNE13.jpg,AFNE11.jpg,AFSA13.jpg,AFNE13.jpg,FN,3,num_6,16,num_6,0.850184056122,,,2017_Apr_18_1135,60.0069480122,FEMA4ImagesEEG,001,200163,
AFSA21.JPG,AFNE22.JPG,AFNE21.JPG,AFSA23.JPG,AFSA22.JPG,AFNE23.JPG,,,,,,,,,0,2,2,0,,,,,,,,,,,,,,,AFSA08.jpg,AFSA04.jpg,AFNE06.jpg,AFNE18.jpg,AFNE18.jpg,FN,3,num_4,32,num_8,0.916846788401,,,2017_Apr_18_1135,60.0069480122,FEMA4ImagesEEG,001,200163,
AFSA21.JPG,AFNE23.JPG,AFNE21.JPG,AFSA25.JPG,AFNE25.JPG,AFSA23.JPG,,,,,,,,,0,3,3,4,,,,,,,,,,,,,,,AFSA11.jpg,AFSA15.jpg,AFNE01.jpg,AFNE03.jpg,AFNE03.jpg,FN,3,num_4,16,num_4,0.700132689759,,,2017_Apr_18_1135,60.0069480122,FEMA4ImagesEEG,001,200163,
AMSA25.JPG,AMNE24.JPG,AMSA24.JPG,AMNE26.JPG,AMSA21.JPG,AMNE25.JPG,,,,,,,,,0,4,4,3,,,,,,,,,,,,,,,AFSA07.jpg,AFNE05.jpg,AFSA06.jpg,AFNE15.jpg,AFSA07.jpg,FS,4,num_8,32,num_2,1.05006737125,,,2017_Apr_18_1135,60.0069480122,FEMA4ImagesEEG,001,200163,
AFSA25.JPG,AFNE24.JPG,AFSA24.JPG,AFNE21.JPG,AFSA21.JPG,AFNE25.JPG,,,,,,,,,0,5,5,2,,,,,,,,,,,,,,,AFNE16.jpg,AFNE20.jpg,AFSA17.jpg,AFSA02.jpg,AFNE20.jpg,FN,3,num_6,16,num_6,1.00008916546,,,2017_Apr_18_1135,60.0069480122,FEMA4ImagesEEG,001,200163,
AFNE22.JPG,AFSA24.JPG,AFSA22.JPG,AFNE25.JPG,AFNE24.JPG,AFSA25.JPG,,,,,,,,,0,6,6,6,,,,,,,,,,,,,,,AFNE12.jpg,AFNE13.jpg,AFSA14.jpg,AFSA20.jpg,AFSA14.jpg,FS,4,num_2,32,num_4,1.13341270556,,,2017_Apr_18_1135,60.0069480122,FEMA4ImagesEEG,001,200163,
AMNE22.JPG,AMSA24.JPG,AMSA22.JPG,AMNE25.JPG,AMNE24.JPG,AMSA25.JPG,,,,,,,,,0,7,7,7,,,,,,,,,,,,,,,AFSA05.jpg,AFSA13.jpg,AFNE17.jpg,AFNE02.jpg,AFNE17.jpg,FN,3,num_2,32,num_6,1.43340157592,,,2017_Apr_18_1135,60.0069480122,FEMA4ImagesEEG,001,200163,
AFNE23.JPG,AFNE24.JPG,AFNE22.JPG,AFSA24.JPG,AFSA22.JPG,AFSA23.JPG,,,,,,,,,0,8,8,8,,,,,,,,,,,,,,,AFNE08.jpg,AFSA04.jpg,AFNE01.jpg,AFSA05.jpg,AFNE08.jpg,FN,3,num_8,16,num_8,1.41677574468,,,2017_Apr_18_1135,60.0069480122,FEMA4ImagesEEG,001,200163,
AMSA21.JPG,AMNE22.JPG,AMNE21.JPG,AMSA23.JPG,AMSA22.JPG,AMNE23.JPG,,,,,,,,,0,9,9,1,,,,,,,,,,,,,,,AFSA14.jpg,AFSA12.jpg,AFNE17.jpg,AFNE09.jpg,AFSA14.jpg,FS,4,num_8,32,num_4,1.18355063941,,,2017_Apr_18_1135,60.0069480122,FEMA4ImagesEEG,001,200163,
AFSA21.JPG,AFNE23.JPG,AFNE21.JPG,AFSA25.JPG,AFNE25.JPG,AFSA23.JPG,,,,,,,,,,,,,0,0,0,4,,,,,,,,,,,AMNE14.jpg,AMSA09.jpg,AMNE06.jpg,AMSA04.jpg,AMSA09.jpg,MS,2,num_6,32,num_2,2.58333009921,,,2017_Apr_18_1135,60.0069480122,FEMA4ImagesEEG,001,200163,
AMSA21.JPG,AMNE23.JPG,AMNE21.JPG,AMSA25.JPG,AMNE25.JPG,AMSA23.JPG,,,,,,,,,,,,,0,1,1,5,,,,,,,,,,,AMNE02.jpg,AMNE12.jpg,AMSA17.jpg,AMSA18.jpg,AMNE02.jpg,MN,1,num_8,16,num_8,1.01676984309,,,2017_Apr_18_1135,60.0069480122,FEMA4ImagesEEG,001,200163,
AFNE22.JPG,AFSA24.JPG,AFSA22.JPG,AFNE25.JPG,AFNE24.JPG,AFSA25.JPG,,,,,,,,,,,,,0,2,2,6,,,,,,,,,,,AMSA02.jpg,AMNE20.jpg,AMNE13.jpg,AMSA15.jpg,AMNE20.jpg,MN,1,num_6,16,num_6,1.20007094748,,,2017_Apr_18_1135,60.0069480122,FEMA4ImagesEEG,001,200163,
AMSA25.JPG,AMNE24.JPG,AMSA24.JPG,AMNE26.JPG,AMSA21.JPG,AMNE25.JPG,,,,,,,,,,,,,0,3,3,3,,,,,,,,,,,AMNE04.jpg,AMSA08.jpg,AMSA11.jpg,AMNE05.jpg,AMNE04.jpg,MN,1,num_8,32,num_6,0.833452060251,,,2017_Apr_18_1135,60.0069480122,FEMA4ImagesEEG,001,200163,
AMNE22.JPG,AMSA24.JPG,AMSA22.JPG,AMNE25.JPG,AMNE24.JPG,AMSA25.JPG,,,,,,,,,,,,,0,4,4,7,,,,,,,,,,,AMSA17.jpg,AMNE17.jpg,AMSA16.jpg,AMNE05.jpg,AMNE17.jpg,MN,1,num_6,16,num_6,0.850220941124,,,2017_Apr_18_1135,60.0069480122,FEMA4ImagesEEG,001,200163,
AFSA25.JPG,AFNE24.JPG,AFSA24.JPG,AFNE21.JPG,AFSA21.JPG,AFNE25.JPG,,,,,,,,,,,,,0,5,5,2,,,,,,,,,,,AMSA19.jpg,AMSA07.jpg,AMNE05.jpg,AMNE18.jpg,AMNE18.jpg,MN,1,num_4,32,num_8,0.866760814271,,,2017_Apr_18_1135,60.0069480122,FEMA4ImagesEEG,001,200163,
AFSA21.JPG,AFNE22.JPG,AFNE21.JPG,AFSA23.JPG,AFSA22.JPG,AFNE23.JPG,,,,,,,,,,,,,0,6,6,0,,,,,,,,,,,AMNE03.jpg,AMSA14.jpg,AMNE14.jpg,AMSA15.jpg,AMNE03.jpg,MN,1,num_8,16,num_8,0.850132417138,,,2017_Apr_18_1135,60.0069480122,FEMA4ImagesEEG,001,200163,
AMSA21.JPG,AMNE22.JPG,AMNE21.JPG,AMSA23.JPG,AMSA22.JPG,AMNE23.JPG,,,,,,,,,,,,,0,7,7,1,,,,,,,,,,,AMNE07.jpg,AMNE19.jpg,AMSA02.jpg,AMSA01.jpg,AMSA01.jpg,MS,2,num_4,16,num_4,0.666777749298,,,2017_Apr_18_1135,60.0069480122,FEMA4ImagesEEG,001,200163,
AFNE23.JPG,AFNE24.JPG,AFNE22.JPG,AFSA24.JPG,AFSA22.JPG,AFSA23.JPG,,,,,,,,,,,,,0,8,8,8,,,,,,,,,,,AMNE02.jpg,AMSA01.jpg,AMNE05.jpg,AMSA06.jpg,AMNE02.jpg,MN,1,num_8,16,num_8,0.933481279586,,,2017_Apr_18_1135,60.0069480122,FEMA4ImagesEEG,001,200163,
AMNE23.JPG,AMNE24.JPG,AMNE22.JPG,AMSA24.JPG,AMSA22.JPG,AMSA23.JPG,,,,,,,,,,,,,0,9,9,9,,,,,,,,,,,AMSA02.jpg,AMNE17.jpg,AMSA09.jpg,AMNE08.jpg,AMSA09.jpg,MS,2,num_2,32,num_4,1.43342851801,,,2017_Apr_18_1135,60.0069480122,FEMA4ImagesEEG,001,200163,
AMNE22.JPG,AMSA24.JPG,AMSA22.JPG,AMNE25.JPG,AMNE24.JPG,AMSA25.JPG,,,,,,,,,,,,,,,,,0,0,0,7,,,,,,,AFSA17.jpg,AFNE05.jpg,AFSA20.jpg,AFNE16.jpg,AFSA17.jpg,FS,4,num_8,32,num_6,0.799826736751,,,2017_Apr_18_1135,60.0069480122,FEMA4ImagesEEG,001,200163,
AMNE23.JPG,AMNE24.JPG,AMNE22.JPG,AMSA24.JPG,AMSA22.JPG,AMSA23.JPG,,,,,,,,,,,,,,,,,0,1,1,9,,,,,,,AFNE02.jpg,AFSA16.jpg,AFNE01.jpg,AFSA14.jpg,AFNE01.jpg,FN,3,num_2,32,num_8,1.18367059583,,,2017_Apr_18_1135,60.0069480122,FEMA4ImagesEEG,001,200163,
AMSA21.JPG,AMNE22.JPG,AMNE21.JPG,AMSA23.JPG,AMSA22.JPG,AMNE23.JPG,,,,,,,,,,,,,,,,,0,2,2,1,,,,,,,AFSA18.jpg,AFSA08.jpg,AFNE19.jpg,AFNE20.jpg,AFSA18.jpg,FS,4,num_8,32,num_2,1.51671451559,,,2017_Apr_18_1135,60.0069480122,FEMA4ImagesEEG,001,200163,
AMSA21.JPG,AMNE23.JPG,AMNE21.JPG,AMSA25.JPG,AMNE25.JPG,AMSA23.JPG,,,,,,,,,,,,,,,,,0,3,3,5,,,,,,,AFNE14.jpg,AFSA13.jpg,AFSA03.jpg,AFNE15.jpg,AFNE14.jpg,FN,3,num_8,16,num_8,0.93361534852,,,2017_Apr_18_1135,60.0069480122,FEMA4ImagesEEG,001,200163,
AFNE22.JPG,AFSA24.JPG,AFSA22.JPG,AFNE25.JPG,AFNE24.JPG,AFSA25.JPG,,,,,,,,,,,,,,,,,0,4,4,6,,,,,,,AFNE14.jpg,AFSA14.jpg,AFSA11.jpg,AFNE01.jpg,AFNE01.jpg,FN,3,num_4,16,num_4,1.08340146366,,,2017_Apr_18_1135,60.0069480122,FEMA4ImagesEEG,001,200163,
AFNE23.JPG,AFNE24.JPG,AFNE22.JPG,AFSA24.JPG,AFSA22.JPG,AFSA23.JPG,,,,,,,,,,,,,,,,,0,5,5,8,,,,,,,AFSA12.jpg,AFSA04.jpg,AFNE13.jpg,AFNE10.jpg,AFSA12.jpg,FS,4,num_8,16,num_8,1.00015427551,,,2017_Apr_18_1135,60.0069480122,FEMA4ImagesEEG,001,200163,
AFSA21.JPG,AFNE22.JPG,AFNE21.JPG,AFSA23.JPG,AFSA22.JPG,AFNE23.JPG,,,,,,,,,,,,,,,,,0,6,6,0,,,,,,,AFSA04.jpg,AFNE19.jpg,AFSA07.jpg,AFNE15.jpg,AFSA04.jpg,FS,4,num_8,32,num_6,1.48344232583,,,2017_Apr_18_1135,60.0069480122,FEMA4ImagesEEG,001,200163,
AFSA25.JPG,AFNE24.JPG,AFSA24.JPG,AFNE21.JPG,AFSA21.JPG,AFNE25.JPG,,,,,,,,,,,,,,,,,0,7,7,2,,,,,,,AFNE18.jpg,AFNE09.jpg,AFSA19.jpg,AFSA02.jpg,AFNE18.jpg,FN,3,num_8,16,num_8,0.733483139862,,,2017_Apr_18_1135,60.0069480122,FEMA4ImagesEEG,001,200163,
AMSA25.JPG,AMNE24.JPG,AMSA24.JPG,AMNE26.JPG,AMSA21.JPG,AMNE25.JPG,,,,,,,,,,,,,,,,,0,8,8,3,,,,,,,AFSA10.jpg,AFNE17.jpg,AFSA14.jpg,AFNE04.jpg,AFSA10.jpg,FS,4,num_8,32,num_4,0.833496963722,,,2017_Apr_18_1135,60.0069480122,FEMA4ImagesEEG,001,200163,
AFSA21.JPG,AFNE23.JPG,AFNE21.JPG,AFSA25.JPG,AFNE25.JPG,AFSA23.JPG,,,,,,,,,,,,,,,,,0,9,9,4,,,,,,,AFNE18.jpg,AFNE16.jpg,AFSA04.jpg,AFSA12.jpg,AFSA12.jpg,FS,4,num_4,16,num_4,0.55017562068,,,2017_Apr_18_1135,60.0069480122,FEMA4ImagesEEG,001,200163,
AMSA21.JPG,AMNE23.JPG,AMNE21.JPG,AMSA25.JPG,AMNE25.JPG,AMSA23.JPG,,,,,,,,,,,,,,,,,,,,,0,0,0,5,,,AMSA05.jpg,AMSA01.jpg,AMNE19.jpg,AMNE09.jpg,AMNE09.jpg,MN,1,num_4,32,num_8,0.700125633506,,,2017_Apr_18_1135,60.0069480122,FEMA4ImagesEEG,001,200163,
AMSA21.JPG,AMNE22.JPG,AMNE21.JPG,AMSA23.JPG,AMSA22.JPG,AMNE23.JPG,,,,,,,,,,,,,,,,,,,,,0,1,1,1,,,AMNE04.jpg,AMSA19.jpg,AMSA18.jpg,AMNE08.jpg,AMSA19.jpg,MS,2,num_6,32,num_8,1.09982170114,,,2017_Apr_18_1135,60.0069480122,FEMA4ImagesEEG,001,200163,
AFNE22.JPG,AFSA24.JPG,AFSA22.JPG,AFNE25.JPG,AFNE24.JPG,AFSA25.JPG,,,,,,,,,,,,,,,,,,,,,0,2,2,6,,,AMNE06.jpg,AMNE12.jpg,AMSA03.jpg,AMSA12.jpg,AMNE06.jpg,MN,1,num_8,16,num_8,0.683632908986,,,2017_Apr_18_1135,60.0069480122,FEMA4ImagesEEG,001,200163,
AMNE23.JPG,AMNE24.JPG,AMNE22.JPG,AMSA24.JPG,AMSA22.JPG,AMSA23.JPG,,,,,,,,,,,,,,,,,,,,,0,3,3,9,,,AMNE17.jpg,AMSA04.jpg,AMSA14.jpg,AMNE16.jpg,AMSA14.jpg,MS,2,num_2,16,num_2,0.700108955061,,,2017_Apr_18_1135,60.0069480122,FEMA4ImagesEEG,001,200163,
AFSA21.JPG,AFNE22.JPG,AFNE21.JPG,AFSA23.JPG,AFSA22.JPG,AFNE23.JPG,,,,,,,,,,,,,,,,,,,,,0,4,4,0,,,AMNE06.jpg,AMSA07.jpg,AMNE20.jpg,AMSA18.jpg,AMNE06.jpg,MN,1,num_8,16,num_8,0.783448516071,,,2017_Apr_18_1135,60.0069480122,FEMA4ImagesEEG,001,200163,
AMSA25.JPG,AMNE24.JPG,AMSA24.JPG,AMNE26.JPG,AMSA21.JPG,AMNE25.JPG,,,,,,,,,,,,,,,,,,,,,0,5,5,3,,,AMSA20.jpg,AMNE04.jpg,AMNE06.jpg,AMSA15.jpg,AMNE04.jpg,MN,1,num_6,16,num_6,0.70014134972,,,2017_Apr_18_1135,60.0069480122,FEMA4ImagesEEG,001,200163,
AMNE22.JPG,AMSA24.JPG,AMSA22.JPG,AMNE25.JPG,AMNE24.JPG,AMSA25.JPG,,,,,,,,,,,,,,,,,,,,,0,6,6,7,,,AMNE09.jpg,AMNE14.jpg,AMSA05.jpg,AMSA10.jpg,AMNE14.jpg,MN,1,num_6,16,num_6,0.600164731586,,,2017_Apr_18_1135,60.0069480122,FEMA4ImagesEEG,001,200163,
AFSA25.JPG,AFNE24.JPG,AFSA24.JPG,AFNE21.JPG,AFSA21.JPG,AFNE25.JPG,,,,,,,,,,,,,,,,,,,,,0,7,7,2,,,AMSA03.jpg,AMNE06.jpg,AMSA15.jpg,AMNE20.jpg,AMSA03.jpg,MS,2,num_8,16,num_8,0.633496578826,,,2017_Apr_18_1135,60.0069480122,FEMA4ImagesEEG,001,200163,
AFNE23.JPG,AFNE24.JPG,AFNE22.JPG,AFSA24.JPG,AFSA22.JPG,AFSA23.JPG,,,,,,,,,,,,,,,,,,,,,0,8,8,8,,,AMSA11.jpg,AMSA09.jpg,AMNE10.jpg,AMNE08.jpg,AMSA09.jpg,MS,2,num_6,32,num_8,0.533380759953,,,2017_Apr_18_1135,60.0069480122,FEMA4ImagesEEG,001,200163,
AFSA21.JPG,AFNE23.JPG,AFNE21.JPG,AFSA25.JPG,AFNE25.JPG,AFSA23.JPG,,,,,,,,,,,,,,,,,,,,,0,9,9,4,,,AMSA09.jpg,AMSA08.jpg,AMNE12.jpg,AMNE04.jpg,AMSA08.jpg,MS,2,num_6,16,num_6,1.43342370693,,,2017_Apr_18_1135,60.0069480122,FEMA4ImagesEEG,001,200163,
,,,,,,,,,,,,,,,,,,,,,,,,,,,,,,,,,,,,,,,,,,,space,25.9978510481,2017_Apr_18_1135,60.0069480122,FEMA4ImagesEEG,001,200163,
AFNE01.JPG,AFNE01.JPG,AFNE01.JPG,AFNE01.JPG,AFNE01.JPG,AFNE01.JPG,0,0,0,1,,,,,,,,,,,,,,,,,,,,,,,AFSA11.jpg,AFSA09.jpg,AFNE02.jpg,AFNE05.jpg,AFSA11.jpg,FS,4,num_8,16,num_8,0.767067408771,,,2017_Apr_18_1135,60.0069480122,FEMA4ImagesEEG,001,200163,
AFNE01.JPG,AFNE01.JPG,AFNE01.JPG,AFNE01.JPG,AFNE01.JPG,AFNE01.JPG,0,1,1,3,,,,,,,,,,,,,,,,,,,,,,,AFSA05.jpg,AFNE15.jpg,AFSA02.jpg,AFNE14.jpg,AFSA05.jpg,FS,4,num_8,32,num_2,1.50009574062,,,2017_Apr_18_1135,60.0069480122,FEMA4ImagesEEG,001,200163,
AFNE01.JPG,AFNE01.JPG,AFNE01.JPG,AFNE01.JPG,AFNE01.JPG,AFNE01.JPG,0,2,2,6,,,,,,,,,,,,,,,,,,,,,,,AFSA10.jpg,AFNE12.jpg,AFSA06.jpg,AFNE15.jpg,AFSA10.jpg,FS,4,num_8,32,num_6,0.616793770212,,,2017_Apr_18_1135,60.0069480122,FEMA4ImagesEEG,001,200163,
AFNE01.JPG,AFNE01.JPG,AFNE01.JPG,AFNE01.JPG,AFNE01.JPG,AFNE01.JPG,0,3,3,2,,,,,,,,,,,,,,,,,,,,,,,AFSA19.jpg,AFNE02.jpg,AFSA14.jpg,AFNE14.jpg,AFSA14.jpg,FS,4,num_2,16,num_2,0.833548602721,,,2017_Apr_18_1135,60.0069480122,FEMA4ImagesEEG,001,200163,
AFNE01.JPG,AFNE01.JPG,AFNE01.JPG,AFNE01.JPG,AFNE01.JPG,AFNE01.JPG,0,4,4,0,,,,,,,,,,,,,,,,,,,,,,,AFNE05.jpg,AFNE01.jpg,AFSA04.jpg,AFSA17.jpg,AFNE05.jpg,FN,3,num_8,16,num_8,0.916839411395,,,2017_Apr_18_1135,60.0069480122,FEMA4ImagesEEG,001,200163,
AFNE01.JPG,AFNE01.JPG,AFNE01.JPG,AFNE01.JPG,AFNE01.JPG,AFNE01.JPG,0,5,5,4,,,,,,,,,,,,,,,,,,,,,,,AFNE19.jpg,AFNE15.jpg,AFSA12.jpg,AFSA13.jpg,AFNE15.jpg,FN,3,num_6,16,num_6,1.06681636629,,,2017_Apr_18_1135,60.0069480122,FEMA4ImagesEEG,001,200163,
AFNE01.JPG,AFNE01.JPG,AFNE01.JPG,AFNE01.JPG,AFNE01.JPG,AFNE01.JPG,0,6,6,7,,,,,,,,,,,,,,,,,,,,,,,AFSA04.jpg,AFNE16.jpg,AFSA02.jpg,AFNE15.jpg,AFNE16.jpg,FN,3,num_6,32,num_8,1.03349927305,,,2017_Apr_18_1135,60.0069480122,FEMA4ImagesEEG,001,200163,
AFNE01.JPG,AFNE01.JPG,AFNE01.JPG,AFNE01.JPG,AFNE01.JPG,AFNE01.JPG,0,7,7,5,,,,,,,,,,,,,,,,,,,,,,,AFNE04.jpg,AFSA02.jpg,AFNE20.jpg,AFSA04.jpg,AFNE20.jpg,FN,3,num_2,16,num_2,2.74999927833,,,2017_Apr_18_1135,60.0069480122,FEMA4ImagesEEG,001,200163,
AFNE01.JPG,AFNE01.JPG,AFNE01.JPG,AFNE01.JPG,AFNE01.JPG,AFNE01.JPG,0,8,8,9,,,,,,,,,,,,,,,,,,,,,,,AFSA20.jpg,AFNE05.jpg,AFSA07.jpg,AFNE08.jpg,AFNE05.jpg,FN,3,num_6,16,num_6,0.617056776275,,,2017_Apr_18_1135,60.0069480122,FEMA4ImagesEEG,001,200163,
AFNE01.JPG,AFNE01.JPG,AFNE01.JPG,AFNE01.JPG,AFNE01.JPG,AFNE01.JPG,0,9,9,8,,,,,,,,,,,,,,,,,,,,,,,AFNE08.jpg,AFSA13.jpg,AFNE20.jpg,AFSA18.jpg,AFSA18.jpg,FS,4,num_4,16,num_4,0.850195923471,,,2017_Apr_18_1135,60.0069480122,FEMA4ImagesEEG,001,200163,
AFNE01.JPG,AFNE01.JPG,AFNE01.JPG,AFNE01.JPG,AFNE01.JPG,AFNE01.JPG,1,0,10,5,,,,,,,,,,,,,,,,,,,,,,,AFNE02.jpg,AFNE19.jpg,AFSA08.jpg,AFSA13.jpg,AFSA13.jpg,FS,4,num_4,32,num_2,1.66711260092,,,2017_Apr_18_1135,60.0069480122,FEMA4ImagesEEG,001,200163,
AFNE01.JPG,AFNE01.JPG,AFNE01.JPG,AFNE01.JPG,AFNE01.JPG,AFNE01.JPG,1,1,11,4,,,,,,,,,,,,,,,,,,,,,,,AFNE05.jpg,AFSA04.jpg,AFSA19.jpg,AFNE15.jpg,AFSA19.jpg,FS,4,num_2,16,num_2,0.700302681478,,,2017_Apr_18_1135,60.0069480122,FEMA4ImagesEEG,001,200163,
AFNE01.JPG,AFNE01.JPG,AFNE01.JPG,AFNE01.JPG,AFNE01.JPG,AFNE01.JPG,1,2,12,9,,,,,,,,,,,,,,,,,,,,,,,AFSA17.jpg,AFNE14.jpg,AFSA12.jpg,AFNE04.jpg,AFNE04.jpg,FN,3,num_4,32,num_6,0.949963419713,,,2017_Apr_18_1135,60.0069480122,FEMA4ImagesEEG,001,200163,
AFNE01.JPG,AFNE01.JPG,AFNE01.JPG,AFNE01.JPG,AFNE01.JPG,AFNE01.JPG,1,3,13,0,,,,,,,,,,,,,,,,,,,,,,,AFNE18.jpg,AFSA04.jpg,AFNE01.jpg,AFSA15.jpg,AFNE01.jpg,FN,3,num_2,16,num_2,0.816779080371,,,2017_Apr_18_1135,60.0069480122,FEMA4ImagesEEG,001,200163,
AFNE01.JPG,AFNE01.JPG,AFNE01.JPG,AFNE01.JPG,AFNE01.JPG,AFNE01.JPG,1,4,14,1,,,,,,,,,,,,,,,,,,,,,,,AFNE16.jpg,AFSA06.jpg,AFSA07.jpg,AFNE19.jpg,AFSA06.jpg,FS,4,num_6,16,num_6,1.06676601025,,,2017_Apr_18_1135,60.0069480122,FEMA4ImagesEEG,001,200163,
AFNE01.JPG,AFNE01.JPG,AFNE01.JPG,AFNE01.JPG,AFNE01.JPG,AFNE01.JPG,1,5,15,6,,,,,,,,,,,,,,,,,,,,,,,AFSA19.jpg,AFNE15.jpg,AFNE02.jpg,AFSA16.jpg,AFSA19.jpg,FS,4,num_8,16,num_8,0.833432495172,,,2017_Apr_18_1135,60.0069480122,FEMA4ImagesEEG,001,200163,
AFNE01.JPG,AFNE01.JPG,AFNE01.JPG,AFNE01.JPG,AFNE01.JPG,AFNE01.JPG,1,6,16,7,,,,,,,,,,,,,,,,,,,,,,,AFNE17.jpg,AFSA17.jpg,AFSA18.jpg,AFNE11.jpg,AFNE17.jpg,FN,3,num_8,16,num_8,1.30007514916,,,2017_Apr_18_1135,60.0069480122,FEMA4ImagesEEG,001,200163,
AFNE01.JPG,AFNE01.JPG,AFNE01.JPG,AFNE01.JPG,AFNE01.JPG,AFNE01.JPG,1,7,17,2,,,,,,,,,,,,,,,,,,,,,,,AFNE16.jpg,AFSA04.jpg,AFSA16.jpg,AFNE08.jpg,AFNE08.jpg,FN,3,num_4,32,num_6,1.71673414482,,,2017_Apr_18_1135,60.0069480122,FEMA4ImagesEEG,001,200163,
AFNE01.JPG,AFNE01.JPG,AFNE01.JPG,AFNE01.JPG,AFNE01.JPG,AFNE01.JPG,1,8,18,8,,,,,,,,,,,,,,,,,,,,,,,AFNE05.jpg,AFNE20.jpg,AFSA14.jpg,AFSA12.jpg,AFNE20.jpg,FN,3,num_6,16,num_6,1.18357854371,,,2017_Apr_18_1135,60.0069480122,FEMA4ImagesEEG,001,200163,
AFNE01.JPG,AFNE01.JPG,AFNE01.JPG,AFNE01.JPG,AFNE01.JPG,AFNE01.JPG,1,9,19,3,,,,,,,,,,,,,,,,,,,,,,,AFNE15.jpg,AFNE13.jpg,AFSA13.jpg,AFSA07.jpg,AFNE15.jpg,FN,3,num_8,16,num_8,0.683626814949,,,2017_Apr_18_1135,60.0069480122,FEMA4ImagesEEG,001,200163,
AFNE01.JPG,AFNE01.JPG,AFNE01.JPG,AFNE01.JPG,AFNE01.JPG,AFNE01.JPG,2,0,20,6,,,,,,,,,,,,,,,,,,,,,,,AFSA08.jpg,AFNE11.jpg,AFNE07.jpg,AFSA09.jpg,AFSA09.jpg,FS,4,num_4,16,num_4,0.550206732383,,,2017_Apr_18_1135,60.0069480122,FEMA4ImagesEEG,001,200163,
AFNE01.JPG,AFNE01.JPG,AFNE01.JPG,AFNE01.JPG,AFNE01.JPG,AFNE01.JPG,2,1,21,1,,,,,,,,,,,,,,,,,,,,,,,AFSA09.jpg,AFSA15.jpg,AFNE03.jpg,AFNE11.jpg,AFSA09.jpg,FS,4,num_8,16,num_8,1.4835176995,,,2017_Apr_18_1135,60.0069480122,FEMA4ImagesEEG,001,200163,
AFNE01.JPG,AFNE01.JPG,AFNE01.JPG,AFNE01.JPG,AFNE01.JPG,AFNE01.JPG,2,2,22,0,,,,,,,,,,,,,,,,,,,,,,,AFSA17.jpg,AFNE09.jpg,AFSA08.jpg,AFNE04.jpg,AFNE04.jpg,FN,3,num_4,16,num_4,0.750139441312,,,2017_Apr_18_1135,60.0069480122,FEMA4ImagesEEG,001,200163,
AFNE01.JPG,AFNE01.JPG,AFNE01.JPG,AFNE01.JPG,AFNE01.JPG,AFNE01.JPG,2,3,23,4,,,,,,,,,,,,,,,,,,,,,,,AFNE15.jpg,AFSA11.jpg,AFNE11.jpg,AFSA02.jpg,AFNE11.jpg,FN,3,num_2,16,num_2,1.433406387,,,2017_Apr_18_1135,60.0069480122,FEMA4ImagesEEG,001,200163,
AFNE01.JPG,AFNE01.JPG,AFNE01.JPG,AFNE01.JPG,AFNE01.JPG,AFNE01.JPG,2,4,24,2,,,,,,,,,,,,,,,,,,,,,,,AFNE20.jpg,AFNE13.jpg,AFSA05.jpg,AFSA16.jpg,AFNE13.jpg,FN,3,num_6,32,num_8,0.966760846364,,,2017_Apr_18_1135,60.0069480122,FEMA4ImagesEEG,001,200163,
AFNE01.JPG,AFNE01.JPG,AFNE01.JPG,AFNE01.JPG,AFNE01.JPG,AFNE01.JPG,2,5,25,5,,,,,,,,,,,,,,,,,,,,,,,AFNE16.jpg,AFNE13.jpg,AFSA18.jpg,AFSA02.jpg,AFSA02.jpg,FS,4,num_4,16,num_4,0.68349018009,,,2017_Apr_18_1135,60.0069480122,FEMA4ImagesEEG,001,200163,
AFNE01.JPG,AFNE01.JPG,AFNE01.JPG,AFNE01.JPG,AFNE01.JPG,AFNE01.JPG,2,6,26,8,,,,,,,,,,,,,,,,,,,,,,,AFSA17.jpg,AFNE17.jpg,AFSA15.jpg,AFNE11.jpg,AFSA17.jpg,FS,4,num_8,32,num_6,0.650167955027,,,2017_Apr_18_1135,60.0069480122,FEMA4ImagesEEG,001,200163,
AFNE01.JPG,AFNE01.JPG,AFNE01.JPG,AFNE01.JPG,AFNE01.JPG,AFNE01.JPG,2,7,27,3,,,,,,,,,,,,,,,,,,,,,,,AFSA01.jpg,AFSA18.jpg,AFNE06.jpg,AFNE12.jpg,AFNE12.jpg,FN,3,num_4,16,num_4,0.800138174396,,,2017_Apr_18_1135,60.0069480122,FEMA4ImagesEEG,001,200163,
AFNE01.JPG,AFNE01.JPG,AFNE01.JPG,AFNE01.JPG,AFNE01.JPG,AFNE01.JPG,2,8,28,7,,,,,,,,,,,,,,,,,,,,,,,AFSA15.jpg,AFNE11.jpg,AFNE04.jpg,AFSA17.jpg,AFNE11.jpg,FN,3,num_6,16,num_6,0.68333847051,,,2017_Apr_18_1135,60.0069480122,FEMA4ImagesEEG,001,200163,
AFNE01.JPG,AFNE01.JPG,AFNE01.JPG,AFNE01.JPG,AFNE01.JPG,AFNE01.JPG,2,9,29,9,,,,,,,,,,,,,,,,,,,,,,,AFSA09.jpg,AFNE11.jpg,AFSA02.jpg,AFNE08.jpg,AFSA09.jpg,FS,4,num_8,16,num_8,0.566773547631,,,2017_Apr_18_1135,60.0069480122,FEMA4ImagesEEG,001,200163,
AFNE01.JPG,AFNE01.JPG,AFNE01.JPG,AFNE01.JPG,AFNE01.JPG,AFNE01.JPG,3,0,30,6,,,,,,,,,,,,,,,,,,,,,,,AFSA05.jpg,AFSA11.jpg,AFNE01.jpg,AFNE17.jpg,AFNE01.jpg,FN,3,num_2,16,num_2,1.08341846283,,,2017_Apr_18_1135,60.0069480122,FEMA4ImagesEEG,001,200163,
AFNE01.JPG,AFNE01.JPG,AFNE01.JPG,AFNE01.JPG,AFNE01.JPG,AFNE01.JPG,3,1,31,2,,,,,,,,,,,,,,,,,,,,,,,AFSA01.jpg,AFSA03.jpg,AFNE10.jpg,AFNE20.jpg,AFNE20.jpg,FN,3,num_4,32,num_2,1.18339828835,,,2017_Apr_18_1135,60.0069480122,FEMA4ImagesEEG,001,200163,
AFNE01.JPG,AFNE01.JPG,AFNE01.JPG,AFNE01.JPG,AFNE01.JPG,AFNE01.JPG,3,2,32,1,,,,,,,,,,,,,,,,,,,,,,,AFNE18.jpg,AFSA01.jpg,AFSA15.jpg,AFNE19.jpg,AFNE18.jpg,FN,3,num_8,16,num_8,0.916770773227,,,2017_Apr_18_1135,60.0069480122,FEMA4ImagesEEG,001,200163,
AFNE01.JPG,AFNE01.JPG,AFNE01.JPG,AFNE01.JPG,AFNE01.JPG,AFNE01.JPG,3,3,33,7,,,,,,,,,,,,,,,,,,,,,,,AFNE13.jpg,AFSA11.jpg,AFNE11.jpg,AFSA15.jpg,AFNE11.jpg,FN,3,num_2,32,num_6,1.10020177696,,,2017_Apr_18_1135,60.0069480122,FEMA4ImagesEEG,001,200163,
AFNE01.JPG,AFNE01.JPG,AFNE01.JPG,AFNE01.JPG,AFNE01.JPG,AFNE01.JPG,3,4,34,3,,,,,,,,,,,,,,,,,,,,,,,AFNE03.jpg,AFNE11.jpg,AFSA20.jpg,AFSA06.jpg,AFSA06.jpg,FS,4,num_4,32,num_2,1.05013889605,,,2017_Apr_18_1135,60.0069480122,FEMA4ImagesEEG,001,200163,
AFNE01.JPG,AFNE01.JPG,AFNE01.JPG,AFNE01.JPG,AFNE01.JPG,AFNE01.JPG,3,5,35,4,,,,,,,,,,,,,,,,,,,,,,,AFSA20.jpg,AFNE20.jpg,AFNE01.jpg,AFSA08.jpg,AFSA08.jpg,FS,4,num_4,16,num_4,0.866736117372,,,2017_Apr_18_1135,60.0069480122,FEMA4ImagesEEG,001,200163,
AFNE01.JPG,AFNE01.JPG,AFNE01.JPG,AFNE01.JPG,AFNE01.JPG,AFNE01.JPG,3,6,36,5,,,,,,,,,,,,,,,,,,,,,,,AFSA12.jpg,AFNE15.jpg,AFNE04.jpg,AFSA14.jpg,AFSA14.jpg,FS,4,num_4,32,num_8,1.36673820217,,,2017_Apr_18_1135,60.0069480122,FEMA4ImagesEEG,001,200163,
AFNE01.JPG,AFNE01.JPG,AFNE01.JPG,AFNE01.JPG,AFNE01.JPG,AFNE01.JPG,3,7,37,0,,,,,,,,,,,,,,,,,,,,,,,AFSA14.jpg,AFNE01.jpg,AFSA16.jpg,AFNE04.jpg,AFSA16.jpg,FS,4,num_2,16,num_2,1.23338836146,,,2017_Apr_18_1135,60.0069480122,FEMA4ImagesEEG,001,200163,
AFNE01.JPG,AFNE01.JPG,AFNE01.JPG,AFNE01.JPG,AFNE01.JPG,AFNE01.JPG,3,8,38,9,,,,,,,,,,,,,,,,,,,,,,,AFNE01.jpg,AFSA11.jpg,AFNE19.jpg,AFSA06.jpg,AFSA06.jpg,FS,4,num_4,32,num_6,0.9834261285,,,2017_Apr_18_1135,60.0069480122,FEMA4ImagesEEG,001,200163,
AFNE01.JPG,AFNE01.JPG,AFNE01.JPG,AFNE01.JPG,AFNE01.JPG,AFNE01.JPG,3,9,39,8,,,,,,,,,,,,,,,,,,,,,,,AFNE20.jpg,AFSA20.jpg,AFSA17.jpg,AFNE05.jpg,AFSA17.jpg,FS,4,num_2,32,num_6,1.18342747561,,,2017_Apr_18_1135,60.0069480122,FEMA4ImagesEEG,001,200163,
AFNE01.JPG,AFNE01.JPG,AFNE01.JPG,AFNE01.JPG,AFNE01.JPG,AFNE01.JPG,4,0,40,4,,,,,,,,,,,,,,,,,,,,,,,AFNE19.jpg,AFNE01.jpg,AFSA04.jpg,AFSA16.jpg,AFSA16.jpg,FS,4,num_4,32,num_8,0.916863466831,,,2017_Apr_18_1135,60.0069480122,FEMA4ImagesEEG,001,200163,
AFNE01.JPG,AFNE01.JPG,AFNE01.JPG,AFNE01.JPG,AFNE01.JPG,AFNE01.JPG,4,1,41,9,,,,,,,,,,,,,,,,,,,,,,,AFSA20.jpg,AFNE16.jpg,AFSA16.jpg,AFNE07.jpg,AFNE16.jpg,FN,3,num_6,16,num_6,0.733497573121,,,2017_Apr_18_1135,60.0069480122,FEMA4ImagesEEG,001,200163,
AFNE01.JPG,AFNE01.JPG,AFNE01.JPG,AFNE01.JPG,AFNE01.JPG,AFNE01.JPG,4,2,42,1,,,,,,,,,,,,,,,,,,,,,,,AFSA14.jpg,AFSA09.jpg,AFNE09.jpg,AFNE14.jpg,AFSA09.jpg,FS,4,num_6,32,num_4,0.700127557924,,,2017_Apr_18_1135,60.0069480122,FEMA4ImagesEEG,001,200163,
AFNE01.JPG,AFNE01.JPG,AFNE01.JPG,AFNE01.JPG,AFNE01.JPG,AFNE01.JPG,4,3,43,2,,,,,,,,,,,,,,,,,,,,,,,AFSA19.jpg,AFSA15.jpg,AFNE06.jpg,AFNE19.jpg,AFNE06.jpg,FN,3,num_2,32,num_6,1.13361124306,,,2017_Apr_18_1135,60.0069480122,FEMA4ImagesEEG,001,200163,
AFNE01.JPG,AFNE01.JPG,AFNE01.JPG,AFNE01.JPG,AFNE01.JPG,AFNE01.JPG,4,4,44,5,,,,,,,,,,,,,,,,,,,,,,,AFNE12.jpg,AFSA05.jpg,AFSA11.jpg,AFNE16.jpg,AFSA11.jpg,FS,4,num_2,16,num_2,0.733713109788,,,2017_Apr_18_1135,60.0069480122,FEMA4ImagesEEG,001,200163,
AFNE01.JPG,AFNE01.JPG,AFNE01.JPG,AFNE01.JPG,AFNE01.JPG,AFNE01.JPG,4,5,45,6,,,,,,,,,,,,,,,,,,,,,,,AFSA16.jpg,AFSA06.jpg,AFNE04.jpg,AFNE05.jpg,AFSA16.jpg,FS,4,num_8,32,num_6,1.016787163,,,2017_Apr_18_1135,60.0069480122,FEMA4ImagesEEG,001,200163,
AFNE01.JPG,AFNE01.JPG,AFNE01.JPG,AFNE01.JPG,AFNE01.JPG,AFNE01.JPG,4,6,46,3,,,,,,,,,,,,,,,,,,,,,,,AFNE15.jpg,AFSA11.jpg,AFNE11.jpg,AFSA17.jpg,AFSA11.jpg,FS,4,num_6,32,num_2,1.550100247,,,2017_Apr_18_1135,60.0069480122,FEMA4ImagesEEG,001,200163,
AFNE01.JPG,AFNE01.JPG,AFNE01.JPG,AFNE01.JPG,AFNE01.JPG,AFNE01.JPG,4,7,47,7,,,,,,,,,,,,,,,,,,,,,,,AFSA08.jpg,AFSA19.jpg,AFNE20.jpg,AFNE17.jpg,AFSA08.jpg,FS,4,num_8,16,num_8,0.816741553892,,,2017_Apr_18_1135,60.0069480122,FEMA4ImagesEEG,001,200163,
AFNE01.JPG,AFNE01.JPG,AFNE01.JPG,AFNE01.JPG,AFNE01.JPG,AFNE01.JPG,4,8,48,0,,,,,,,,,,,,,,,,,,,,,,,AFSA16.jpg,AFNE04.jpg,AFNE05.jpg,AFSA13.jpg,AFSA13.jpg,FS,4,num_4,32,num_2,1.08349800613,,,2017_Apr_18_1135,60.0069480122,FEMA4ImagesEEG,001,200163,
AFNE01.JPG,AFNE01.JPG,AFNE01.JPG,AFNE01.JPG,AFNE01.JPG,AFNE01.JPG,4,9,49,8,,,,,,,,,,,,,,,,,,,,,,,AFNE05.jpg,AFSA14.jpg,AFSA04.jpg,AFNE12.jpg,AFNE05.jpg,FN,3,num_8,32,num_6,1.21680647148,,,2017_Apr_18_1135,60.0069480122,FEMA4ImagesEEG,001,200163,
AFNE01.JPG,AFNE01.JPG,AFNE01.JPG,AFNE01.JPG,AFNE01.JPG,AFNE01.JPG,5,0,50,7,,,,,,,,,,,,,,,,,,,,,,,AFNE04.jpg,AFNE08.jpg,AFSA12.jpg,AFSA18.jpg,AFSA18.jpg,FS,4,num_4,16,num_4,0.666725148098,,,2017_Apr_18_1135,60.0069480122,FEMA4ImagesEEG,001,200163,
AFNE01.JPG,AFNE01.JPG,AFNE01.JPG,AFNE01.JPG,AFNE01.JPG,AFNE01.JPG,5,1,51,0,,,,,,,,,,,,,,,,,,,,,,,AFSA08.jpg,AFSA16.jpg,AFNE01.jpg,AFNE08.jpg,AFNE08.jpg,FN,3,num_4,32,num_2,1.38344293523,,,2017_Apr_18_1135,60.0069480122,FEMA4ImagesEEG,001,200163,
AFNE01.JPG,AFNE01.JPG,AFNE01.JPG,AFNE01.JPG,AFNE01.JPG,AFNE01.JPG,5,2,52,8,,,,,,,,,,,,,,,,,,,,,,,AFSA15.jpg,AFSA20.jpg,AFNE09.jpg,AFNE04.jpg,AFSA15.jpg,FS,4,num_8,32,num_4,1.33339095945,,,2017_Apr_18_1135,60.0069480122,FEMA4ImagesEEG,001,200163,
AFNE01.JPG,AFNE01.JPG,AFNE01.JPG,AFNE01.JPG,AFNE01.JPG,AFNE01.JPG,5,3,53,6,,,,,,,,,,,,,,,,,,,,,,,AFNE09.jpg,AFNE08.jpg,AFSA12.jpg,AFSA18.jpg,AFNE08.jpg,FN,3,num_6,32,num_8,1.10013730841,,,2017_Apr_18_1135,60.0069480122,FEMA4ImagesEEG,001,200163,
AFNE01.JPG,AFNE01.JPG,AFNE01.JPG,AFNE01.JPG,AFNE01.JPG,AFNE01.JPG,5,4,54,5,,,,,,,,,,,,,,,,,,,,,,,AFSA17.jpg,AFNE13.jpg,AFNE09.jpg,AFSA19.jpg,AFSA17.jpg,FS,4,num_8,32,num_4,0.966785864002,,,2017_Apr_18_1135,60.0069480122,FEMA4ImagesEEG,001,200163,
AFNE01.JPG,AFNE01.JPG,AFNE01.JPG,AFNE01.JPG,AFNE01.JPG,AFNE01.JPG,5,5,55,1,,,,,,,,,,,,,,,,,,,,,,,AFNE02.jpg,AFNE09.jpg,AFSA17.jpg,AFSA06.jpg,AFSA06.jpg,FS,4,num_4,16,num_4,0.600302328661,,,2017_Apr_18_1135,60.0069480122,FEMA4ImagesEEG,001,200163,
AFNE01.JPG,AFNE01.JPG,AFNE01.JPG,AFNE01.JPG,AFNE01.JPG,AFNE01.JPG,5,6,56,3,,,,,,,,,,,,,,,,,,,,,,,AFNE11.jpg,AFSA08.jpg,AFNE07.jpg,AFSA11.jpg,AFNE07.jpg,FN,3,num_2,32,num_8,1.01678171042,,,2017_Apr_18_1135,60.0069480122,FEMA4ImagesEEG,001,200163,
AFNE01.JPG,AFNE01.JPG,AFNE01.JPG,AFNE01.JPG,AFNE01.JPG,AFNE01.JPG,5,7,57,9,,,,,,,,,,,,,,,,,,,,,,,AFSA08.jpg,AFSA16.jpg,AFNE15.jpg,AFNE07.jpg,AFNE15.jpg,FN,3,num_2,16,num_2,1.06659601854,,,2017_Apr_18_1135,60.0069480122,FEMA4ImagesEEG,001,200163,
AFNE01.JPG,AFNE01.JPG,AFNE01.JPG,AFNE01.JPG,AFNE01.JPG,AFNE01.JPG,5,8,58,4,,,,,,,,,,,,,,,,,,,,,,,AFSA16.jpg,AFNE14.jpg,AFSA07.jpg,AFNE03.jpg,AFNE14.jpg,FN,3,num_6,16,num_6,1.3667908034,,,2017_Apr_18_1135,60.0069480122,FEMA4ImagesEEG,001,200163,
AFNE01.JPG,AFNE01.JPG,AFNE01.JPG,AFNE01.JPG,AFNE01.JPG,AFNE01.JPG,5,9,59,2,,,,,,,,,,,,,,,,,,,,,,,AFSA02.jpg,AFNE11.jpg,AFSA09.jpg,AFNE20.jpg,AFSA09.jpg,FS,4,num_2,16,num_2,0.70012980311,,,2017_Apr_18_1135,60.0069480122,FEMA4ImagesEEG,001,200163,
,,,,,,,,,,,,,,,,,,,,,,,,,,,,,,,,,,,,,,,,,,,space,26.097777631,2017_Apr_18_1135,60.0069480122,FEMA4ImagesEEG,001,200163,
AFNE01.JPG,AFNE01.JPG,AFNE01.JPG,AFNE01.JPG,AFNE01.JPG,AFNE01.JPG,,,,,0,0,0,6,,,,,,,,,,,,,,,,,,,AMNE19.jpg,AMNE09.jpg,AMSA07.jpg,AMSA12.jpg,AMSA07.jpg,MS,2,num_2,16,num_2,0.466752667504,,,2017_Apr_18_1135,60.0069480122,FEMA4ImagesEEG,001,200163,
AFNE01.JPG,AFNE01.JPG,AFNE01.JPG,AFNE01.JPG,AFNE01.JPG,AFNE01.JPG,,,,,0,1,1,7,,,,,,,,,,,,,,,,,,,AMNE03.jpg,AMNE04.jpg,AMSA14.jpg,AMSA12.jpg,AMNE04.jpg,MN,1,num_6,16,num_6,0.716759162475,,,2017_Apr_18_1135,60.0069480122,FEMA4ImagesEEG,001,200163,
AFNE01.JPG,AFNE01.JPG,AFNE01.JPG,AFNE01.JPG,AFNE01.JPG,AFNE01.JPG,,,,,0,2,2,0,,,,,,,,,,,,,,,,,,,AMSA07.jpg,AMSA18.jpg,AMNE16.jpg,AMNE14.jpg,AMNE16.jpg,MN,1,num_2,32,num_8,0.833429929262,,,2017_Apr_18_1135,60.0069480122,FEMA4ImagesEEG,001,200163,
AFNE01.JPG,AFNE01.JPG,AFNE01.JPG,AFNE01.JPG,AFNE01.JPG,AFNE01.JPG,,,,,0,3,3,8,,,,,,,,,,,,,,,,,,,AMNE03.jpg,AMSA13.jpg,AMSA10.jpg,AMNE10.jpg,AMSA13.jpg,MS,2,num_6,32,num_2,1.05011419914,,,2017_Apr_18_1135,60.0069480122,FEMA4ImagesEEG,001,200163,
AFNE01.JPG,AFNE01.JPG,AFNE01.JPG,AFNE01.JPG,AFNE01.JPG,AFNE01.JPG,,,,,0,4,4,3,,,,,,,,,,,,,,,,,,,AMNE14.jpg,AMNE06.jpg,AMSA17.jpg,AMSA09.jpg,AMNE06.jpg,MN,1,num_6,16,num_6,0.883504356767,,,2017_Apr_18_1135,60.0069480122,FEMA4ImagesEEG,001,200163,
AFNE01.JPG,AFNE01.JPG,AFNE01.JPG,AFNE01.JPG,AFNE01.JPG,AFNE01.JPG,,,,,0,5,5,5,,,,,,,,,,,,,,,,,,,AMSA16.jpg,AMNE12.jpg,AMSA03.jpg,AMNE18.jpg,AMNE12.jpg,MN,1,num_6,16,num_6,1.00007569444,,,2017_Apr_18_1135,60.0069480122,FEMA4ImagesEEG,001,200163,
AFNE01.JPG,AFNE01.JPG,AFNE01.JPG,AFNE01.JPG,AFNE01.JPG,AFNE01.JPG,,,,,0,6,6,1,,,,,,,,,,,,,,,,,,,AMNE02.jpg,AMSA18.jpg,AMSA16.jpg,AMNE03.jpg,AMSA16.jpg,MS,2,num_2,16,num_2,0.799972031542,,,2017_Apr_18_1135,60.0069480122,FEMA4ImagesEEG,001,200163,
AFNE01.JPG,AFNE01.JPG,AFNE01.JPG,AFNE01.JPG,AFNE01.JPG,AFNE01.JPG,,,,,0,7,7,2,,,,,,,,,,,,,,,,,,,AMSA19.jpg,AMSA14.jpg,AMNE19.jpg,AMNE09.jpg,AMSA19.jpg,MS,2,num_8,16,num_8,0.716747295126,,,2017_Apr_18_1135,60.0069480122,FEMA4ImagesEEG,001,200163,
AFNE01.JPG,AFNE01.JPG,AFNE01.JPG,AFNE01.JPG,AFNE01.JPG,AFNE01.JPG,,,,,0,8,8,9,,,,,,,,,,,,,,,,,,,AMSA07.jpg,AMSA16.jpg,AMNE17.jpg,AMNE02.jpg,AMNE17.jpg,MN,1,num_2,32,num_6,1.66666260398,,,2017_Apr_18_1135,60.0069480122,FEMA4ImagesEEG,001,200163,
AFNE01.JPG,AFNE01.JPG,AFNE01.JPG,AFNE01.JPG,AFNE01.JPG,AFNE01.JPG,,,,,0,9,9,4,,,,,,,,,,,,,,,,,,,AMNE08.jpg,AMNE17.jpg,AMSA09.jpg,AMSA02.jpg,AMSA02.jpg,MS,2,num_4,16,num_4,0.866756644667,,,2017_Apr_18_1135,60.0069480122,FEMA4ImagesEEG,001,200163,
AFNE01.JPG,AFNE01.JPG,AFNE01.JPG,AFNE01.JPG,AFNE01.JPG,AFNE01.JPG,,,,,1,0,10,4,,,,,,,,,,,,,,,,,,,AMNE16.jpg,AMNE20.jpg,AMSA11.jpg,AMSA14.jpg,AMNE16.jpg,MN,1,num_8,16,num_8,0.883437643031,,,2017_Apr_18_1135,60.0069480122,FEMA4ImagesEEG,001,200163,
AFNE01.JPG,AFNE01.JPG,AFNE01.JPG,AFNE01.JPG,AFNE01.JPG,AFNE01.JPG,,,,,1,1,11,1,,,,,,,,,,,,,,,,,,,AMNE10.jpg,AMSA14.jpg,AMNE01.jpg,AMSA18.jpg,AMNE01.jpg,MN,1,num_2,16,num_2,0.933416811022,,,2017_Apr_18_1135,60.0069480122,FEMA4ImagesEEG,001,200163,
AFNE01.JPG,AFNE01.JPG,AFNE01.JPG,AFNE01.JPG,AFNE01.JPG,AFNE01.JPG,,,,,1,2,12,6,,,,,,,,,,,,,,,,,,,AMSA17.jpg,AMSA02.jpg,AMNE06.jpg,AMNE16.jpg,AMNE06.jpg,MN,1,num_2,16,num_2,1.38347532987,,,2017_Apr_18_1135,60.0069480122,FEMA4ImagesEEG,001,200163,
AFNE01.JPG,AFNE01.JPG,AFNE01.JPG,AFNE01.JPG,AFNE01.JPG,AFNE01.JPG,,,,,1,3,13,3,,,,,,,,,,,,,,,,,,,AMSA06.jpg,AMNE09.jpg,AMNE05.jpg,AMSA07.jpg,AMNE09.jpg,MN,1,num_6,16,num_6,0.683489217874,,,2017_Apr_18_1135,60.0069480122,FEMA4ImagesEEG,001,200163,
AFNE01.JPG,AFNE01.JPG,AFNE01.JPG,AFNE01.JPG,AFNE01.JPG,AFNE01.JPG,,,,,1,4,14,2,,,,,,,,,,,,,,,,,,,AMSA05.jpg,AMNE14.jpg,AMSA06.jpg,AMNE18.jpg,AMSA06.jpg,MS,2,num_2,32,num_8,0.850093286965,,,2017_Apr_18_1135,60.0069480122,FEMA4ImagesEEG,001,200163,
AFNE01.JPG,AFNE01.JPG,AFNE01.JPG,AFNE01.JPG,AFNE01.JPG,AFNE01.JPG,,,,,1,5,15,5,,,,,,,,,,,,,,,,,,,AMNE18.jpg,AMNE02.jpg,AMSA16.jpg,AMSA15.jpg,AMNE18.jpg,MN,1,num_8,16,num_8,1.08346208335,,,2017_Apr_18_1135,60.0069480122,FEMA4ImagesEEG,001,200163,
AFNE01.JPG,AFNE01.JPG,AFNE01.JPG,AFNE01.JPG,AFNE01.JPG,AFNE01.JPG,,,,,1,6,16,9,,,,,,,,,,,,,,,,,,,AMNE19.jpg,AMSA04.jpg,AMSA09.jpg,AMNE06.jpg,AMNE19.jpg,MN,1,num_8,16,num_8,0.916798998267,,,2017_Apr_18_1135,60.0069480122,FEMA4ImagesEEG,001,200163,
AFNE01.JPG,AFNE01.JPG,AFNE01.JPG,AFNE01.JPG,AFNE01.JPG,AFNE01.JPG,,,,,1,7,17,0,,,,,,,,,,,,,,,,,,,AMSA07.jpg,AMNE17.jpg,AMNE13.jpg,AMSA06.jpg,AMSA06.jpg,MS,2,num_4,32,num_2,1.15006355445,,,2017_Apr_18_1135,60.0069480122,FEMA4ImagesEEG,001,200163,
AFNE01.JPG,AFNE01.JPG,AFNE01.JPG,AFNE01.JPG,AFNE01.JPG,AFNE01.JPG,,,,,1,8,18,8,,,,,,,,,,,,,,,,,,,AMSA17.jpg,AMNE20.jpg,AMNE02.jpg,AMSA12.jpg,AMSA12.jpg,MS,2,num_4,32,num_8,0.866735475895,,,2017_Apr_18_1135,60.0069480122,FEMA4ImagesEEG,001,200163,
AFNE01.JPG,AFNE01.JPG,AFNE01.JPG,AFNE01.JPG,AFNE01.JPG,AFNE01.JPG,,,,,1,9,19,7,,,,,,,,,,,,,,,,,,,AMSA11.jpg,AMNE18.jpg,AMNE06.jpg,AMSA13.jpg,AMNE06.jpg,MN,1,num_2,16,num_2,1.20008185261,,,2017_Apr_18_1135,60.0069480122,FEMA4ImagesEEG,001,200163,
AFNE01.JPG,AFNE01.JPG,AFNE01.JPG,AFNE01.JPG,AFNE01.JPG,AFNE01.JPG,,,,,2,0,20,6,,,,,,,,,,,,,,,,,,,AMNE06.jpg,AMNE10.jpg,AMSA14.jpg,AMSA10.jpg,AMNE06.jpg,MN,1,num_8,32,num_6,0.600118224422,,,2017_Apr_18_1135,60.0069480122,FEMA4ImagesEEG,001,200163,
AFNE01.JPG,AFNE01.JPG,AFNE01.JPG,AFNE01.JPG,AFNE01.JPG,AFNE01.JPG,,,,,2,1,21,2,,,,,,,,,,,,,,,,,,,AMNE11.jpg,AMNE10.jpg,AMSA14.jpg,AMSA05.jpg,AMSA14.jpg,MS,2,num_2,16,num_2,0.566811394834,,,2017_Apr_18_1135,60.0069480122,FEMA4ImagesEEG,001,200163,
AFNE01.JPG,AFNE01.JPG,AFNE01.JPG,AFNE01.JPG,AFNE01.JPG,AFNE01.JPG,,,,,2,2,22,9,,,,,,,,,,,,,,,,,,,AMSA09.jpg,AMNE13.jpg,AMSA06.jpg,AMNE14.jpg,AMSA06.jpg,MS,2,num_2,32,num_6,0.583501694622,,,2017_Apr_18_1135,60.0069480122,FEMA4ImagesEEG,001,200163,
AFNE01.JPG,AFNE01.JPG,AFNE01.JPG,AFNE01.JPG,AFNE01.JPG,AFNE01.JPG,,,,,2,3,23,3,,,,,,,,,,,,,,,,,,,AMNE15.jpg,AMNE09.jpg,AMSA11.jpg,AMSA20.jpg,AMNE15.jpg,MN,1,num_8,16,num_8,0.883408776514,,,2017_Apr_18_1135,60.0069480122,FEMA4ImagesEEG,001,200163,
AFNE01.JPG,AFNE01.JPG,AFNE01.JPG,AFNE01.JPG,AFNE01.JPG,AFNE01.JPG,,,,,2,4,24,0,,,,,,,,,,,,,,,,,,,AMNE09.jpg,AMNE10.jpg,AMSA01.jpg,AMSA10.jpg,AMSA10.jpg,MS,2,num_4,32,num_6,0.666769410076,,,2017_Apr_18_1135,60.0069480122,FEMA4ImagesEEG,001,200163,
AFNE01.JPG,AFNE01.JPG,AFNE01.JPG,AFNE01.JPG,AFNE01.JPG,AFNE01.JPG,,,,,2,5,25,1,,,,,,,,,,,,,,,,,,,AMSA18.jpg,AMNE08.jpg,AMNE03.jpg,AMSA04.jpg,AMSA04.jpg,MS,2,num_4,16,num_4,0.383508686748,,,2017_Apr_18_1135,60.0069480122,FEMA4ImagesEEG,001,200163,
AFNE01.JPG,AFNE01.JPG,AFNE01.JPG,AFNE01.JPG,AFNE01.JPG,AFNE01.JPG,,,,,2,6,26,5,,,,,,,,,,,,,,,,,,,AMSA02.jpg,AMNE07.jpg,AMNE04.jpg,AMSA15.jpg,AMNE07.jpg,MN,1,num_6,16,num_6,0.933572690221,,,2017_Apr_18_1135,60.0069480122,FEMA4ImagesEEG,001,200163,
AFNE01.JPG,AFNE01.JPG,AFNE01.JPG,AFNE01.JPG,AFNE01.JPG,AFNE01.JPG,,,,,2,7,27,8,,,,,,,,,,,,,,,,,,,AMSA02.jpg,AMNE03.jpg,AMSA12.jpg,AMNE07.jpg,AMNE07.jpg,MN,1,num_4,32,num_8,0.583596954137,,,2017_Apr_18_1135,60.0069480122,FEMA4ImagesEEG,001,200163,
AFNE01.JPG,AFNE01.JPG,AFNE01.JPG,AFNE01.JPG,AFNE01.JPG,AFNE01.JPG,,,,,2,8,28,7,,,,,,,,,,,,,,,,,,,AMNE17.jpg,AMNE19.jpg,AMSA14.jpg,AMSA12.jpg,AMSA14.jpg,MS,2,num_2,16,num_2,0.800122778921,,,2017_Apr_18_1135,60.0069480122,FEMA4ImagesEEG,001,200163,
AFNE01.JPG,AFNE01.JPG,AFNE01.JPG,AFNE01.JPG,AFNE01.JPG,AFNE01.JPG,,,,,2,9,29,4,,,,,,,,,,,,,,,,,,,AMNE07.jpg,AMNE02.jpg,AMSA19.jpg,AMSA05.jpg,AMSA19.jpg,MS,2,num_2,16,num_2,0.850087834391,,,2017_Apr_18_1135,60.0069480122,FEMA4ImagesEEG,001,200163,
AFNE01.JPG,AFNE01.JPG,AFNE01.JPG,AFNE01.JPG,AFNE01.JPG,AFNE01.JPG,,,,,3,0,30,4,,,,,,,,,,,,,,,,,,,AMSA17.jpg,AMNE09.jpg,AMNE15.jpg,AMSA13.jpg,AMNE09.jpg,MN,1,num_6,16,num_6,0.816802815054,,,2017_Apr_18_1135,60.0069480122,FEMA4ImagesEEG,001,200163,
AFNE01.JPG,AFNE01.JPG,AFNE01.JPG,AFNE01.JPG,AFNE01.JPG,AFNE01.JPG,,,,,3,1,31,1,,,,,,,,,,,,,,,,,,,AMNE04.jpg,AMSA05.jpg,AMSA10.jpg,AMNE12.jpg,AMSA05.jpg,MS,2,num_6,32,num_2,1.36642644378,,,2017_Apr_18_1135,60.0069480122,FEMA4ImagesEEG,001,200163,
AFNE01.JPG,AFNE01.JPG,AFNE01.JPG,AFNE01.JPG,AFNE01.JPG,AFNE01.JPG,,,,,3,2,32,9,,,,,,,,,,,,,,,,,,,AMSA02.jpg,AMSA11.jpg,AMNE17.jpg,AMNE15.jpg,AMSA02.jpg,MS,2,num_8,16,num_8,0.383489442393,,,2017_Apr_18_1135,60.0069480122,FEMA4ImagesEEG,001,200163,
AFNE01.JPG,AFNE01.JPG,AFNE01.JPG,AFNE01.JPG,AFNE01.JPG,AFNE01.JPG,,,,,3,3,33,3,,,,,,,,,,,,,,,,,,,AMNE10.jpg,AMNE11.jpg,AMSA11.jpg,AMSA07.jpg,AMNE10.jpg,MN,1,num_8,16,num_8,0.866883015871,,,2017_Apr_18_1135,60.0069480122,FEMA4ImagesEEG,001,200163,
AFNE01.JPG,AFNE01.JPG,AFNE01.JPG,AFNE01.JPG,AFNE01.JPG,AFNE01.JPG,,,,,3,4,34,7,,,,,,,,,,,,,,,,,,,AMSA14.jpg,AMSA02.jpg,AMNE17.jpg,AMNE19.jpg,AMSA14.jpg,MS,2,num_8,32,num_6,1.16674102467,,,2017_Apr_18_1135,60.0069480122,FEMA4ImagesEEG,001,200163,
AFNE01.JPG,AFNE01.JPG,AFNE01.JPG,AFNE01.JPG,AFNE01.JPG,AFNE01.JPG,,,,,3,5,35,8,,,,,,,,,,,,,,,,,,,AMSA06.jpg,AMNE07.jpg,AMSA16.jpg,AMNE17.jpg,AMNE17.jpg,MN,1,num_4,16,num_4,1.06684202542,,,2017_Apr_18_1135,60.0069480122,FEMA4ImagesEEG,001,200163,
AFNE01.JPG,AFNE01.JPG,AFNE01.JPG,AFNE01.JPG,AFNE01.JPG,AFNE01.JPG,,,,,3,6,36,0,,,,,,,,,,,,,,,,,,,AMNE04.jpg,AMSA02.jpg,AMNE16.jpg,AMSA15.jpg,AMNE16.jpg,MN,1,num_2,16,num_2,0.983421638157,,,2017_Apr_18_1135,60.0069480122,FEMA4ImagesEEG,001,200163,
AFNE01.JPG,AFNE01.JPG,AFNE01.JPG,AFNE01.JPG,AFNE01.JPG,AFNE01.JPG,,,,,3,7,37,5,,,,,,,,,,,,,,,,,,,AMNE09.jpg,AMNE08.jpg,AMSA19.jpg,AMSA08.jpg,AMNE08.jpg,MN,1,num_6,16,num_6,0.950110318212,,,2017_Apr_18_1135,60.0069480122,FEMA4ImagesEEG,001,200163,
AFNE01.JPG,AFNE01.JPG,AFNE01.JPG,AFNE01.JPG,AFNE01.JPG,AFNE01.JPG,,,,,3,8,38,2,,,,,,,,,,,,,,,,,,,AMNE13.jpg,AMSA13.jpg,AMSA20.jpg,AMNE20.jpg,AMNE13.jpg,MN,1,num_8,32,num_6,0.900115113254,,,2017_Apr_18_1135,60.0069480122,FEMA4ImagesEEG,001,200163,
AFNE01.JPG,AFNE01.JPG,AFNE01.JPG,AFNE01.JPG,AFNE01.JPG,AFNE01.JPG,,,,,3,9,39,6,,,,,,,,,,,,,,,,,,,AMNE04.jpg,AMSA10.jpg,AMSA02.jpg,AMNE18.jpg,AMSA02.jpg,MS,2,num_2,16,num_2,0.750166062659,,,2017_Apr_18_1135,60.0069480122,FEMA4ImagesEEG,001,200163,
AFNE01.JPG,AFNE01.JPG,AFNE01.JPG,AFNE01.JPG,AFNE01.JPG,AFNE01.JPG,,,,,4,0,40,9,,,,,,,,,,,,,,,,,,,AMNE07.jpg,AMSA11.jpg,AMNE18.jpg,AMSA08.jpg,AMNE18.jpg,MN,1,num_2,32,num_8,0.883446623731,,,2017_Apr_18_1135,60.0069480122,FEMA4ImagesEEG,001,200163,
AFNE01.JPG,AFNE01.JPG,AFNE01.JPG,AFNE01.JPG,AFNE01.JPG,AFNE01.JPG,,,,,4,1,41,3,,,,,,,,,,,,,,,,,,,AMSA02.jpg,AMSA19.jpg,AMNE11.jpg,AMNE14.jpg,AMNE14.jpg,MN,1,num_4,16,num_4,0.583486940624,,,2017_Apr_18_1135,60.0069480122,FEMA4ImagesEEG,001,200163,
AFNE01.JPG,AFNE01.JPG,AFNE01.JPG,AFNE01.JPG,AFNE01.JPG,AFNE01.JPG,,,,,4,2,42,1,,,,,,,,,,,,,,,,,,,AMNE19.jpg,AMNE16.jpg,AMSA08.jpg,AMSA12.jpg,AMSA08.jpg,MS,2,num_2,32,num_6,0.866765625367,,,2017_Apr_18_1135,60.0069480122,FEMA4ImagesEEG,001,200163,
AFNE01.JPG,AFNE01.JPG,AFNE01.JPG,AFNE01.JPG,AFNE01.JPG,AFNE01.JPG,,,,,4,3,43,6,,,,,,,,,,,,,,,,,,,AMNE09.jpg,AMNE14.jpg,AMSA13.jpg,AMSA01.jpg,AMNE14.jpg,MN,1,num_6,16,num_6,1.41672314347,,,2017_Apr_18_1135,60.0069480122,FEMA4ImagesEEG,001,200163,
AFNE01.JPG,AFNE01.JPG,AFNE01.JPG,AFNE01.JPG,AFNE01.JPG,AFNE01.JPG,,,,,4,4,44,0,,,,,,,,,,,,,,,,,,,AMNE14.jpg,AMNE08.jpg,AMSA05.jpg,AMSA11.jpg,AMNE08.jpg,MN,1,num_6,16,num_6,0.783479307036,,,2017_Apr_18_1135,60.0069480122,FEMA4ImagesEEG,001,200163,
AFNE01.JPG,AFNE01.JPG,AFNE01.JPG,AFNE01.JPG,AFNE01.JPG,AFNE01.JPG,,,,,4,5,45,5,,,,,,,,,,,,,,,,,,,AMNE04.jpg,AMSA12.jpg,AMSA13.jpg,AMNE14.jpg,AMNE14.jpg,MN,1,num_4,16,num_4,0.666933628498,,,2017_Apr_18_1135,60.0069480122,FEMA4ImagesEEG,001,200163,
AFNE01.JPG,AFNE01.JPG,AFNE01.JPG,AFNE01.JPG,AFNE01.JPG,AFNE01.JPG,,,,,4,6,46,4,,,,,,,,,,,,,,,,,,,AMNE10.jpg,AMSA03.jpg,AMSA04.jpg,AMNE11.jpg,AMSA03.jpg,MS,2,num_6,32,num_2,1.23342492573,,,2017_Apr_18_1135,60.0069480122,FEMA4ImagesEEG,001,200163,
AFNE01.JPG,AFNE01.JPG,AFNE01.JPG,AFNE01.JPG,AFNE01.JPG,AFNE01.JPG,,,,,4,7,47,8,,,,,,,,,,,,,,,,,,,AMSA07.jpg,AMSA19.jpg,AMNE06.jpg,AMNE04.jpg,AMNE06.jpg,MN,1,num_2,16,num_2,1.15008889283,,,2017_Apr_18_1135,60.0069480122,FEMA4ImagesEEG,001,200163,
AFNE01.JPG,AFNE01.JPG,AFNE01.JPG,AFNE01.JPG,AFNE01.JPG,AFNE01.JPG,,,,,4,8,48,7,,,,,,,,,,,,,,,,,,,AMSA04.jpg,AMNE04.jpg,AMSA11.jpg,AMNE05.jpg,AMNE05.jpg,MN,1,num_4,16,num_4,1.00012701268,,,2017_Apr_18_1135,60.0069480122,FEMA4ImagesEEG,001,200163,
AFNE01.JPG,AFNE01.JPG,AFNE01.JPG,AFNE01.JPG,AFNE01.JPG,AFNE01.JPG,,,,,4,9,49,2,,,,,,,,,,,,,,,,,,,AMSA09.jpg,AMNE14.jpg,AMNE10.jpg,AMSA20.jpg,AMNE10.jpg,MN,1,num_2,16,num_2,1.01685099007,,,2017_Apr_18_1135,60.0069480122,FEMA4ImagesEEG,001,200163,
AFNE01.JPG,AFNE01.JPG,AFNE01.JPG,AFNE01.JPG,AFNE01.JPG,AFNE01.JPG,,,,,5,0,50,9,,,,,,,,,,,,,,,,,,,AMNE07.jpg,AMSA09.jpg,AMNE04.jpg,AMSA10.jpg,AMNE07.jpg,MN,1,num_8,32,num_4,0.966768864833,,,2017_Apr_18_1135,60.0069480122,FEMA4ImagesEEG,001,200163,
AFNE01.JPG,AFNE01.JPG,AFNE01.JPG,AFNE01.JPG,AFNE01.JPG,AFNE01.JPG,,,,,5,1,51,8,,,,,,,,,,,,,,,,,,,AMSA09.jpg,AMNE08.jpg,AMNE10.jpg,AMSA12.jpg,AMSA09.jpg,MS,2,num_8,16,num_8,0.733462933305,,,2017_Apr_18_1135,60.0069480122,FEMA4ImagesEEG,001,200163,
AFNE01.JPG,AFNE01.JPG,AFNE01.JPG,AFNE01.JPG,AFNE01.JPG,AFNE01.JPG,,,,,5,2,52,1,,,,,,,,,,,,,,,,,,,AMSA03.jpg,AMSA10.jpg,AMNE05.jpg,AMNE04.jpg,AMNE05.jpg,MN,1,num_2,32,num_6,0.750112499241,,,2017_Apr_18_1135,60.0069480122,FEMA4ImagesEEG,001,200163,
AFNE01.JPG,AFNE01.JPG,AFNE01.JPG,AFNE01.JPG,AFNE01.JPG,AFNE01.JPG,,,,,5,3,53,7,,,,,,,,,,,,,,,,,,,AMSA06.jpg,AMNE07.jpg,AMNE10.jpg,AMSA16.jpg,AMNE10.jpg,MN,1,num_2,16,num_2,0.800098082022,,,2017_Apr_18_1135,60.0069480122,FEMA4ImagesEEG,001,200163,
AFNE01.JPG,AFNE01.JPG,AFNE01.JPG,AFNE01.JPG,AFNE01.JPG,AFNE01.JPG,,,,,5,4,54,0,,,,,,,,,,,,,,,,,,,AMSA06.jpg,AMNE17.jpg,AMSA07.jpg,AMNE06.jpg,AMSA06.jpg,MS,2,num_8,32,num_6,0.900164827806,,,2017_Apr_18_1135,60.0069480122,FEMA4ImagesEEG,001,200163,
AFNE01.JPG,AFNE01.JPG,AFNE01.JPG,AFNE01.JPG,AFNE01.JPG,AFNE01.JPG,,,,,5,5,55,4,,,,,,,,,,,,,,,,,,,AMSA02.jpg,AMNE13.jpg,AMNE10.jpg,AMSA14.jpg,AMSA14.jpg,MS,2,num_4,16,num_4,0.533495905271,,,2017_Apr_18_1135,60.0069480122,FEMA4ImagesEEG,001,200163,
AFNE01.JPG,AFNE01.JPG,AFNE01.JPG,AFNE01.JPG,AFNE01.JPG,AFNE01.JPG,,,,,5,6,56,5,,,,,,,,,,,,,,,,,,,AMNE12.jpg,AMSA19.jpg,AMNE18.jpg,AMSA10.jpg,AMSA10.jpg,MS,2,num_4,32,num_8,0.733499818307,,,2017_Apr_18_1135,60.0069480122,FEMA4ImagesEEG,001,200163,
AFNE01.JPG,AFNE01.JPG,AFNE01.JPG,AFNE01.JPG,AFNE01.JPG,AFNE01.JPG,,,,,5,7,57,6,,,,,,,,,,,,,,,,,,,AMSA17.jpg,AMSA05.jpg,AMNE07.jpg,AMNE02.jpg,AMNE02.jpg,MN,1,num_4,32,num_8,1.09997822181,,,2017_Apr_18_1135,60.0069480122,FEMA4ImagesEEG,001,200163,
AFNE01.JPG,AFNE01.JPG,AFNE01.JPG,AFNE01.JPG,AFNE01.JPG,AFNE01.JPG,,,,,5,8,58,2,,,,,,,,,,,,,,,,,,,AMNE13.jpg,AMSA14.jpg,AMSA10.jpg,AMNE15.jpg,AMNE13.jpg,MN,1,num_8,16,num_8,0.950122185561,,,2017_Apr_18_1135,60.0069480122,FEMA4ImagesEEG,001,200163,
AFNE01.JPG,AFNE01.JPG,AFNE01.JPG,AFNE01.JPG,AFNE01.JPG,AFNE01.JPG,,,,,5,9,59,3,,,,,,,,,,,,,,,,,,,AMNE06.jpg,AMNE18.jpg,AMSA11.jpg,AMSA08.jpg,AMSA08.jpg,MS,2,num_4,16,num_4,0.933455299717,,,2017_Apr_18_1135,60.0069480122,FEMA4ImagesEEG,001,200163,
,,,,,,,,,,,,,,,,,,,,,,,,,,,,,,,,,,,,,,,,,,,space,31.980751806,2017_Apr_18_1135,60.0069480122,FEMA4ImagesEEG,001,200163,
AFNE01.JPG,AFNE01.JPG,AFNE01.JPG,AFNE01.JPG,AFNE01.JPG,AFNE01.JPG,,,,,,,,,0,0,0,9,,,,,,,,,,,,,,,AFNE03.jpg,AFSA20.jpg,AFSA03.jpg,AFNE18.jpg,AFSA20.jpg,FS,4,num_6,16,num_6,0.650176614974,,,2017_Apr_18_1135,60.0069480122,FEMA4ImagesEEG,001,200163,
AFNE01.JPG,AFNE01.JPG,AFNE01.JPG,AFNE01.JPG,AFNE01.JPG,AFNE01.JPG,,,,,,,,,0,1,1,7,,,,,,,,,,,,,,,AFNE11.jpg,AFSA12.jpg,AFNE12.jpg,AFSA13.jpg,AFNE12.jpg,FN,3,num_2,16,num_2,0.750134950969,,,2017_Apr_18_1135,60.0069480122,FEMA4ImagesEEG,001,200163,
AFNE01.JPG,AFNE01.JPG,AFNE01.JPG,AFNE01.JPG,AFNE01.JPG,AFNE01.JPG,,,,,,,,,0,2,2,6,,,,,,,,,,,,,,,AFSA10.jpg,AFNE12.jpg,AFNE19.jpg,AFSA20.jpg,AFSA20.jpg,FS,4,num_4,16,num_4,0.633138313278,,,2017_Apr_18_1135,60.0069480122,FEMA4ImagesEEG,001,200163,
AFNE01.JPG,AFNE01.JPG,AFNE01.JPG,AFNE01.JPG,AFNE01.JPG,AFNE01.JPG,,,,,,,,,0,3,3,0,,,,,,,,,,,,,,,AFNE07.jpg,AFSA10.jpg,AFNE03.jpg,AFSA03.jpg,AFSA03.jpg,FS,4,num_4,16,num_4,0.616778374737,,,2017_Apr_18_1135,60.0069480122,FEMA4ImagesEEG,001,200163,
AFNE01.JPG,AFNE01.JPG,AFNE01.JPG,AFNE01.JPG,AFNE01.JPG,AFNE01.JPG,,,,,,,,,0,4,4,8,,,,,,,,,,,,,,,AFNE17.jpg,AFSA14.jpg,AFNE03.jpg,AFSA12.jpg,AFNE03.jpg,FN,3,num_2,16,num_2,0.783465835993,,,2017_Apr_18_1135,60.0069480122,FEMA4ImagesEEG,001,200163,
AFNE01.JPG,AFNE01.JPG,AFNE01.JPG,AFNE01.JPG,AFNE01.JPG,AFNE01.JPG,,,,,,,,,0,5,5,4,,,,,,,,,,,,,,,AFNE06.jpg,AFSA09.jpg,AFNE13.jpg,AFSA15.jpg,AFSA15.jpg,FS,4,num_4,32,num_8,0.883757099145,,,2017_Apr_18_1135,60.0069480122,FEMA4ImagesEEG,001,200163,
AFNE01.JPG,AFNE01.JPG,AFNE01.JPG,AFNE01.JPG,AFNE01.JPG,AFNE01.JPG,,,,,,,,,0,6,6,2,,,,,,,,,,,,,,,AFNE10.jpg,AFNE05.jpg,AFSA19.jpg,AFSA12.jpg,AFNE05.jpg,FN,3,num_6,16,num_6,0.55015348969,,,2017_Apr_18_1135,60.0069480122,FEMA4ImagesEEG,001,200163,
AFNE01.JPG,AFNE01.JPG,AFNE01.JPG,AFNE01.JPG,AFNE01.JPG,AFNE01.JPG,,,,,,,,,0,7,7,1,,,,,,,,,,,,,,,AFNE11.jpg,AFSA13.jpg,AFSA07.jpg,AFNE15.jpg,AFSA13.jpg,FS,4,num_6,16,num_6,2.16671055446,,,2017_Apr_18_1135,60.0069480122,FEMA4ImagesEEG,001,200163,
AFNE01.JPG,AFNE01.JPG,AFNE01.JPG,AFNE01.JPG,AFNE01.JPG,AFNE01.JPG,,,,,,,,,0,8,8,5,,,,,,,,,,,,,,,AFSA07.jpg,AFNE17.jpg,AFNE13.jpg,AFSA19.jpg,AFNE17.jpg,FN,3,num_6,32,num_2,0.716763332079,,,2017_Apr_18_1135,60.0069480122,FEMA4ImagesEEG,001,200163,
AFNE01.JPG,AFNE01.JPG,AFNE01.JPG,AFNE01.JPG,AFNE01.JPG,AFNE01.JPG,,,,,,,,,0,9,9,3,,,,,,,,,,,,,,,AFSA13.jpg,AFNE10.jpg,AFSA07.jpg,AFNE04.jpg,AFNE10.jpg,FN,3,num_6,16,num_6,0.866508071878,,,2017_Apr_18_1135,60.0069480122,FEMA4ImagesEEG,001,200163,
AFNE01.JPG,AFNE01.JPG,AFNE01.JPG,AFNE01.JPG,AFNE01.JPG,AFNE01.JPG,,,,,,,,,1,0,10,3,,,,,,,,,,,,,,,AFSA15.jpg,AFNE03.jpg,AFNE04.jpg,AFSA20.jpg,AFNE03.jpg,FN,3,num_6,16,num_6,0.733433104571,,,2017_Apr_18_1135,60.0069480122,FEMA4ImagesEEG,001,200163,
AFNE01.JPG,AFNE01.JPG,AFNE01.JPG,AFNE01.JPG,AFNE01.JPG,AFNE01.JPG,,,,,,,,,1,1,11,2,,,,,,,,,,,,,,,AFNE06.jpg,AFSA01.jpg,AFSA16.jpg,AFNE01.jpg,AFNE06.jpg,FN,3,num_8,16,num_8,0.783478986297,,,2017_Apr_18_1135,60.0069480122,FEMA4ImagesEEG,001,200163,
AFNE01.JPG,AFNE01.JPG,AFNE01.JPG,AFNE01.JPG,AFNE01.JPG,AFNE01.JPG,,,,,,,,,1,2,12,9,,,,,,,,,,,,,,,AFSA02.jpg,AFNE06.jpg,AFSA12.jpg,AFNE08.jpg,AFNE06.jpg,FN,3,num_6,32,num_2,1.68362777715,,,2017_Apr_18_1135,60.0069480122,FEMA4ImagesEEG,001,200163,
AFNE01.JPG,AFNE01.JPG,AFNE01.JPG,AFNE01.JPG,AFNE01.JPG,AFNE01.JPG,,,,,,,,,1,3,13,4,,,,,,,,,,,,,,,AFSA11.jpg,AFNE01.jpg,AFSA02.jpg,AFNE09.jpg,AFSA02.jpg,FS,4,num_2,32,num_8,1.34999209379,,,2017_Apr_18_1135,60.0069480122,FEMA4ImagesEEG,001,200163,
AFNE01.JPG,AFNE01.JPG,AFNE01.JPG,AFNE01.JPG,AFNE01.JPG,AFNE01.JPG,,,,,,,,,1,4,14,8,,,,,,,,,,,,,,,AFSA14.jpg,AFNE19.jpg,AFSA18.jpg,AFNE06.jpg,AFSA18.jpg,FS,4,num_2,16,num_2,0.65011695752,,,2017_Apr_18_1135,60.0069480122,FEMA4ImagesEEG,001,200163,
AFNE01.JPG,AFNE01.JPG,AFNE01.JPG,AFNE01.JPG,AFNE01.JPG,AFNE01.JPG,,,,,,,,,1,5,15,7,,,,,,,,,,,,,,,AFSA17.jpg,AFSA12.jpg,AFNE12.jpg,AFNE17.jpg,AFNE17.jpg,FN,3,num_4,32,num_8,1.09996603373,,,2017_Apr_18_1135,60.0069480122,FEMA4ImagesEEG,001,200163,
AFNE01.JPG,AFNE01.JPG,AFNE01.JPG,AFNE01.JPG,AFNE01.JPG,AFNE01.JPG,,,,,,,,,1,6,16,5,,,,,,,,,,,,,,,AFSA03.jpg,AFSA12.jpg,AFNE06.jpg,AFNE18.jpg,AFNE18.jpg,FN,3,num_4,32,num_6,0.983411053763,,,2017_Apr_18_1135,60.0069480122,FEMA4ImagesEEG,001,200163,
AFNE01.JPG,AFNE01.JPG,AFNE01.JPG,AFNE01.JPG,AFNE01.JPG,AFNE01.JPG,,,,,,,,,1,7,17,0,,,,,,,,,,,,,,,AFNE07.jpg,AFNE19.jpg,AFSA06.jpg,AFSA13.jpg,AFSA13.jpg,FS,4,num_4,16,num_4,0.566625686901,,,2017_Apr_18_1135,60.0069480122,FEMA4ImagesEEG,001,200163,
AFNE01.JPG,AFNE01.JPG,AFNE01.JPG,AFNE01.JPG,AFNE01.JPG,AFNE01.JPG,,,,,,,,,1,8,18,1,,,,,,,,,,,,,,,AFSA03.jpg,AFSA05.jpg,AFNE17.jpg,AFNE09.jpg,AFNE09.jpg,FN,3,num_4,32,num_2,1.73341546391,,,2017_Apr_18_1135,60.0069480122,FEMA4ImagesEEG,001,200163,
AFNE01.JPG,AFNE01.JPG,AFNE01.JPG,AFNE01.JPG,AFNE01.JPG,AFNE01.JPG,,,,,,,,,1,9,19,6,,,,,,,,,,,,,,,AFSA08.jpg,AFNE09.jpg,AFNE05.jpg,AFSA17.jpg,AFSA08.jpg,FS,4,num_8,16,num_8,0.633339095948,,,2017_Apr_18_1135,60.0069480122,FEMA4ImagesEEG,001,200163,
AFNE01.JPG,AFNE01.JPG,AFNE01.JPG,AFNE01.JPG,AFNE01.JPG,AFNE01.JPG,,,,,,,,,2,0,20,4,,,,,,,,,,,,,,,AFSA10.jpg,AFSA04.jpg,AFNE03.jpg,AFNE14.jpg,AFNE03.jpg,FN,3,num_2,32,num_6,1.23327289539,,,2017_Apr_18_1135,60.0069480122,FEMA4ImagesEEG,001,200163,
AFNE01.JPG,AFNE01.JPG,AFNE01.JPG,AFNE01.JPG,AFNE01.JPG,AFNE01.JPG,,,,,,,,,2,1,21,2,,,,,,,,,,,,,,,AFNE19.jpg,AFNE01.jpg,AFSA07.jpg,AFSA20.jpg,AFNE01.jpg,FN,3,num_6,32,num_8,1.16672947808,,,2017_Apr_18_1135,60.0069480122,FEMA4ImagesEEG,001,200163,
AFNE01.JPG,AFNE01.JPG,AFNE01.JPG,AFNE01.JPG,AFNE01.JPG,AFNE01.JPG,,,,,,,,,2,2,22,5,,,,,,,,,,,,,,,AFSA14.jpg,AFNE16.jpg,AFNE06.jpg,AFSA03.jpg,AFSA14.jpg,FS,4,num_8,32,num_2,1.55006689014,,,2017_Apr_18_1135,60.0069480122,FEMA4ImagesEEG,001,200163,
AFNE01.JPG,AFNE01.JPG,AFNE01.JPG,AFNE01.JPG,AFNE01.JPG,AFNE01.JPG,,,,,,,,,2,3,23,0,,,,,,,,,,,,,,,AFSA08.jpg,AFSA04.jpg,AFNE12.jpg,AFNE20.jpg,AFNE20.jpg,FN,3,num_4,32,num_8,0.800117647101,,,2017_Apr_18_1135,60.0069480122,FEMA4ImagesEEG,001,200163,
AFNE01.JPG,AFNE01.JPG,AFNE01.JPG,AFNE01.JPG,AFNE01.JPG,AFNE01.JPG,,,,,,,,,2,4,24,3,,,,,,,,,,,,,,,AFNE16.jpg,AFNE18.jpg,AFSA10.jpg,AFSA14.jpg,AFNE16.jpg,FN,3,num_8,32,num_6,0.883451755552,,,2017_Apr_18_1135,60.0069480122,FEMA4ImagesEEG,001,200163,
AFNE01.JPG,AFNE01.JPG,AFNE01.JPG,AFNE01.JPG,AFNE01.JPG,AFNE01.JPG,,,,,,,,,2,5,25,8,,,,,,,,,,,,,,,AFNE17.jpg,AFSA06.jpg,AFNE16.jpg,AFSA08.jpg,AFNE16.jpg,FN,3,num_2,32,num_8,0.966763732999,,,2017_Apr_18_1135,60.0069480122,FEMA4ImagesEEG,001,200163,
AFNE01.JPG,AFNE01.JPG,AFNE01.JPG,AFNE01.JPG,AFNE01.JPG,AFNE01.JPG,,,,,,,,,2,6,26,7,,,,,,,,,,,,,,,AFNE10.jpg,AFSA04.jpg,AFSA06.jpg,AFNE13.jpg,AFNE13.jpg,FN,3,num_4,32,num_6,0.883467151027,,,2017_Apr_18_1135,60.0069480122,FEMA4ImagesEEG,001,200163,
AFNE01.JPG,AFNE01.JPG,AFNE01.JPG,AFNE01.JPG,AFNE01.JPG,AFNE01.JPG,,,,,,,,,2,7,27,1,,,,,,,,,,,,,,,AFNE13.jpg,AFNE10.jpg,AFSA05.jpg,AFSA18.jpg,AFNE13.jpg,FN,3,num_8,32,num_2,1.06678172646,,,2017_Apr_18_1135,60.0069480122,FEMA4ImagesEEG,001,200163,
AFNE01.JPG,AFNE01.JPG,AFNE01.JPG,AFNE01.JPG,AFNE01.JPG,AFNE01.JPG,,,,,,,,,2,8,28,6,,,,,,,,,,,,,,,AFNE18.jpg,AFSA11.jpg,AFNE03.jpg,AFSA09.jpg,AFNE03.jpg,FN,3,num_2,32,num_6,0.799821284178,,,2017_Apr_18_1135,60.0069480122,FEMA4ImagesEEG,001,200163,
AFNE01.JPG,AFNE01.JPG,AFNE01.JPG,AFNE01.JPG,AFNE01.JPG,AFNE01.JPG,,,,,,,,,2,9,29,9,,,,,,,,,,,,,,,AFSA01.jpg,AFNE19.jpg,AFNE10.jpg,AFSA05.jpg,AFSA05.jpg,FS,4,num_4,16,num_4,0.616771639223,,,2017_Apr_18_1135,60.0069480122,FEMA4ImagesEEG,001,200163,
AFNE01.JPG,AFNE01.JPG,AFNE01.JPG,AFNE01.JPG,AFNE01.JPG,AFNE01.JPG,,,,,,,,,3,0,30,8,,,,,,,,,,,,,,,AFSA13.jpg,AFNE02.jpg,AFSA15.jpg,AFNE09.jpg,AFNE02.jpg,FN,3,num_6,16,num_6,2.0166781117,,,2017_Apr_18_1135,60.0069480122,FEMA4ImagesEEG,001,200163,
AFNE01.JPG,AFNE01.JPG,AFNE01.JPG,AFNE01.JPG,AFNE01.JPG,AFNE01.JPG,,,,,,,,,3,1,31,6,,,,,,,,,,,,,,,AFNE09.jpg,AFNE19.jpg,AFSA20.jpg,AFSA12.jpg,AFSA12.jpg,FS,4,num_4,32,num_8,1.90017926108,,,2017_Apr_18_1135,60.0069480122,FEMA4ImagesEEG,001,200163,
AFNE01.JPG,AFNE01.JPG,AFNE01.JPG,AFNE01.JPG,AFNE01.JPG,AFNE01.JPG,,,,,,,,,3,2,32,5,,,,,,,,,,,,,,,AFNE19.jpg,AFSA04.jpg,AFSA06.jpg,AFNE17.jpg,AFNE17.jpg,FN,3,num_4,16,num_4,0.616877162392,,,2017_Apr_18_1135,60.0069480122,FEMA4ImagesEEG,001,200163,
AFNE01.JPG,AFNE01.JPG,AFNE01.JPG,AFNE01.JPG,AFNE01.JPG,AFNE01.JPG,,,,,,,,,3,3,33,0,,,,,,,,,,,,,,,AFSA14.jpg,AFNE06.jpg,AFNE07.jpg,AFSA20.jpg,AFSA14.jpg,FS,4,num_8,32,num_2,0.866835225752,,,2017_Apr_18_1135,60.0069480122,FEMA4ImagesEEG,001,200163,
AFNE01.JPG,AFNE01.JPG,AFNE01.JPG,AFNE01.JPG,AFNE01.JPG,AFNE01.JPG,,,,,,,,,3,4,34,9,,,,,,,,,,,,,,,AFNE01.jpg,AFSA03.jpg,AFSA04.jpg,AFNE08.jpg,AFNE08.jpg,FN,3,num_4,32,num_8,1.30007194178,,,2017_Apr_18_1135,60.0069480122,FEMA4ImagesEEG,001,200163,
AFNE01.JPG,AFNE01.JPG,AFNE01.JPG,AFNE01.JPG,AFNE01.JPG,AFNE01.JPG,,,,,,,,,3,5,35,7,,,,,,,,,,,,,,,AFNE16.jpg,AFSA06.jpg,AFSA15.jpg,AFNE19.jpg,AFNE19.jpg,FN,3,num_4,16,num_4,0.483509360289,,,2017_Apr_18_1135,60.0069480122,FEMA4ImagesEEG,001,200163,
AFNE01.JPG,AFNE01.JPG,AFNE01.JPG,AFNE01.JPG,AFNE01.JPG,AFNE01.JPG,,,,,,,,,3,6,36,4,,,,,,,,,,,,,,,AFSA05.jpg,AFNE17.jpg,AFSA09.jpg,AFNE18.jpg,AFSA09.jpg,FS,4,num_2,32,num_8,1.20005843867,,,2017_Apr_18_1135,60.0069480122,FEMA4ImagesEEG,001,200163,
AFNE01.JPG,AFNE01.JPG,AFNE01.JPG,AFNE01.JPG,AFNE01.JPG,AFNE01.JPG,,,,,,,,,3,7,37,2,,,,,,,,,,,,,,,AFSA01.jpg,AFNE05.jpg,AFNE08.jpg,AFSA02.jpg,AFSA01.jpg,FS,4,num_8,32,num_6,0.91676628287,,,2017_Apr_18_1135,60.0069480122,FEMA4ImagesEEG,001,200163,
AFNE01.JPG,AFNE01.JPG,AFNE01.JPG,AFNE01.JPG,AFNE01.JPG,AFNE01.JPG,,,,,,,,,3,8,38,1,,,,,,,,,,,,,,,AFSA07.jpg,AFNE12.jpg,AFNE01.jpg,AFSA06.jpg,AFSA07.jpg,FS,4,num_8,32,num_6,0.633437883575,,,2017_Apr_18_1135,60.0069480122,FEMA4ImagesEEG,001,200163,
AFNE01.JPG,AFNE01.JPG,AFNE01.JPG,AFNE01.JPG,AFNE01.JPG,AFNE01.JPG,,,,,,,,,3,9,39,3,,,,,,,,,,,,,,,AFNE03.jpg,AFNE12.jpg,AFSA12.jpg,AFSA03.jpg,AFNE12.jpg,FN,3,num_6,16,num_6,0.650107976806,,,2017_Apr_18_1135,60.0069480122,FEMA4ImagesEEG,001,200163,
AFNE01.JPG,AFNE01.JPG,AFNE01.JPG,AFNE01.JPG,AFNE01.JPG,AFNE01.JPG,,,,,,,,,4,0,40,8,,,,,,,,,,,,,,,AFSA02.jpg,AFNE09.jpg,AFNE07.jpg,AFSA01.jpg,AFSA01.jpg,FS,4,num_4,16,num_4,0.466778968112,,,2017_Apr_18_1135,60.0069480122,FEMA4ImagesEEG,001,200163,
AFNE01.JPG,AFNE01.JPG,AFNE01.JPG,AFNE01.JPG,AFNE01.JPG,AFNE01.JPG,,,,,,,,,4,1,41,1,,,,,,,,,,,,,,,AFSA06.jpg,AFNE20.jpg,AFNE06.jpg,AFSA16.jpg,AFSA06.jpg,FS,4,num_8,16,num_8,1.26675067893,,,2017_Apr_18_1135,60.0069480122,FEMA4ImagesEEG,001,200163,
AFNE01.JPG,AFNE01.JPG,AFNE01.JPG,AFNE01.JPG,AFNE01.JPG,AFNE01.JPG,,,,,,,,,4,2,42,3,,,,,,,,,,,,,,,AFNE13.jpg,AFSA15.jpg,AFNE06.jpg,AFSA18.jpg,AFNE06.jpg,FN,3,num_2,16,num_2,0.883152185255,,,2017_Apr_18_1135,60.0069480122,FEMA4ImagesEEG,001,200163,
AFNE01.JPG,AFNE01.JPG,AFNE01.JPG,AFNE01.JPG,AFNE01.JPG,AFNE01.JPG,,,,,,,,,4,3,43,0,,,,,,,,,,,,,,,AFNE03.jpg,AFNE09.jpg,AFSA01.jpg,AFSA13.jpg,AFNE03.jpg,FN,3,num_8,16,num_8,0.450286564344,,,2017_Apr_18_1135,60.0069480122,FEMA4ImagesEEG,001,200163,
AFNE01.JPG,AFNE01.JPG,AFNE01.JPG,AFNE01.JPG,AFNE01.JPG,AFNE01.JPG,,,,,,,,,4,4,44,2,,,,,,,,,,,,,,,AFSA12.jpg,AFNE05.jpg,AFSA15.jpg,AFNE06.jpg,AFNE05.jpg,FN,3,num_6,32,num_8,1.71672612635,,,2017_Apr_18_1135,60.0069480122,FEMA4ImagesEEG,001,200163,
AFNE01.JPG,AFNE01.JPG,AFNE01.JPG,AFNE01.JPG,AFNE01.JPG,AFNE01.JPG,,,,,,,,,4,5,45,7,,,,,,,,,,,,,,,AFNE18.jpg,AFSA04.jpg,AFNE17.jpg,AFSA19.jpg,AFSA19.jpg,FS,4,num_4,16,num_4,0.966760204872,,,2017_Apr_18_1135,60.0069480122,FEMA4ImagesEEG,001,200163,
AFNE01.JPG,AFNE01.JPG,AFNE01.JPG,AFNE01.JPG,AFNE01.JPG,AFNE01.JPG,,,,,,,,,4,6,46,4,,,,,,,,,,,,,,,AFSA07.jpg,AFNE17.jpg,AFSA04.jpg,AFNE19.jpg,AFSA04.jpg,FS,4,num_2,16,num_2,0.700146160802,,,2017_Apr_18_1135,60.0069480122,FEMA4ImagesEEG,001,200163,
AFNE01.JPG,AFNE01.JPG,AFNE01.JPG,AFNE01.JPG,AFNE01.JPG,AFNE01.JPG,,,,,,,,,4,7,47,5,,,,,,,,,,,,,,,AFSA01.jpg,AFSA11.jpg,AFNE17.jpg,AFNE07.jpg,AFSA01.jpg,FS,4,num_8,32,num_6,0.533473453557,,,2017_Apr_18_1135,60.0069480122,FEMA4ImagesEEG,001,200163,
AFNE01.JPG,AFNE01.JPG,AFNE01.JPG,AFNE01.JPG,AFNE01.JPG,AFNE01.JPG,,,,,,,,,4,8,48,6,,,,,,,,,,,,,,,AFSA17.jpg,AFSA14.jpg,AFNE03.jpg,AFNE09.jpg,AFNE09.jpg,FN,3,num_4,16,num_4,1.31671316849,,,2017_Apr_18_1135,60.0069480122,FEMA4ImagesEEG,001,200163,
AFNE01.JPG,AFNE01.JPG,AFNE01.JPG,AFNE01.JPG,AFNE01.JPG,AFNE01.JPG,,,,,,,,,4,9,49,9,,,,,,,,,,,,,,,AFNE12.jpg,AFSA09.jpg,AFNE15.jpg,AFSA17.jpg,AFSA09.jpg,FS,4,num_6,32,num_8,0.983416506322,,,2017_Apr_18_1135,60.0069480122,FEMA4ImagesEEG,001,200163,
AFNE01.JPG,AFNE01.JPG,AFNE01.JPG,AFNE01.JPG,AFNE01.JPG,AFNE01.JPG,,,,,,,,,5,0,50,1,,,,,,,,,,,,,,,AFNE12.jpg,AFNE04.jpg,AFSA08.jpg,AFSA02.jpg,AFSA08.jpg,FS,4,num_2,16,num_2,0.700003111167,,,2017_Apr_18_1135,60.0069480122,FEMA4ImagesEEG,001,200163,
AFNE01.JPG,AFNE01.JPG,AFNE01.JPG,AFNE01.JPG,AFNE01.JPG,AFNE01.JPG,,,,,,,,,5,1,51,4,,,,,,,,,,,,,,,AFNE18.jpg,AFSA07.jpg,AFSA08.jpg,AFNE11.jpg,AFNE18.jpg,FN,3,num_8,16,num_8,0.750105122235,,,2017_Apr_18_1135,60.0069480122,FEMA4ImagesEEG,001,200163,
AFNE01.JPG,AFNE01.JPG,AFNE01.JPG,AFNE01.JPG,AFNE01.JPG,AFNE01.JPG,,,,,,,,,5,2,52,9,,,,,,,,,,,,,,,AFNE12.jpg,AFSA07.jpg,AFSA16.jpg,AFNE07.jpg,AFSA16.jpg,FS,4,num_2,32,num_6,1.25009662265,,,2017_Apr_18_1135,60.0069480122,FEMA4ImagesEEG,001,200163,
AFNE01.JPG,AFNE01.JPG,AFNE01.JPG,AFNE01.JPG,AFNE01.JPG,AFNE01.JPG,,,,,,,,,5,3,53,6,,,,,,,,,,,,,,,AFSA02.jpg,AFSA20.jpg,AFNE17.jpg,AFNE03.jpg,AFNE17.jpg,FN,3,num_2,32,num_6,1.21633530577,,,2017_Apr_18_1135,60.0069480122,FEMA4ImagesEEG,001,200163,
AFNE01.JPG,AFNE01.JPG,AFNE01.JPG,AFNE01.JPG,AFNE01.JPG,AFNE01.JPG,,,,,,,,,5,4,54,5,,,,,,,,,,,,,,,AFSA01.jpg,AFSA05.jpg,AFNE06.jpg,AFNE02.jpg,AFNE02.jpg,FN,3,num_4,16,num_4,0.950090111641,,,2017_Apr_18_1135,60.0069480122,FEMA4ImagesEEG,001,200163,
AFNE01.JPG,AFNE01.JPG,AFNE01.JPG,AFNE01.JPG,AFNE01.JPG,AFNE01.JPG,,,,,,,,,5,5,55,7,,,,,,,,,,,,,,,AFSA08.jpg,AFNE16.jpg,AFNE03.jpg,AFSA11.jpg,AFSA08.jpg,FS,4,num_8,32,num_2,1.550085493,,,2017_Apr_18_1135,60.0069480122,FEMA4ImagesEEG,001,200163,
AFNE01.JPG,AFNE01.JPG,AFNE01.JPG,AFNE01.JPG,AFNE01.JPG,AFNE01.JPG,,,,,,,,,5,6,56,0,,,,,,,,,,,,,,,AFSA17.jpg,AFNE01.jpg,AFSA01.jpg,AFNE04.jpg,AFSA01.jpg,FS,4,num_2,16,num_2,0.916976046239,,,2017_Apr_18_1135,60.0069480122,FEMA4ImagesEEG,001,200163,
AFNE01.JPG,AFNE01.JPG,AFNE01.JPG,AFNE01.JPG,AFNE01.JPG,AFNE01.JPG,,,,,,,,,5,7,57,3,,,,,,,,,,,,,,,AFNE17.jpg,AFSA09.jpg,AFSA06.jpg,AFNE05.jpg,AFSA09.jpg,FS,4,num_6,16,num_6,1.18340053353,,,2017_Apr_18_1135,60.0069480122,FEMA4ImagesEEG,001,200163,
AFNE01.JPG,AFNE01.JPG,AFNE01.JPG,AFNE01.JPG,AFNE01.JPG,AFNE01.JPG,,,,,,,,,5,8,58,8,,,,,,,,,,,,,,,AFNE04.jpg,AFSA06.jpg,AFNE19.jpg,AFSA01.jpg,AFSA06.jpg,FS,4,num_6,16,num_6,1.28343328097,,,2017_Apr_18_1135,60.0069480122,FEMA4ImagesEEG,001,200163,
AFNE01.JPG,AFNE01.JPG,AFNE01.JPG,AFNE01.JPG,AFNE01.JPG,AFNE01.JPG,,,,,,,,,5,9,59,2,,,,,,,,,,,,,,,AFNE05.jpg,AFNE10.jpg,AFSA06.jpg,AFSA15.jpg,AFSA06.jpg,FS,4,num_2,16,num_2,1.19991378533,,,2017_Apr_18_1135,60.0069480122,FEMA4ImagesEEG,001,200163,
,,,,,,,,,,,,,,,,,,,,,,,,,,,,,,,,,,,,,,,,,,,space,33.0139232837,2017_Apr_18_1135,60.0069480122,FEMA4ImagesEEG,001,200163,
AFNE01.JPG,AFNE01.JPG,AFNE01.JPG,AFNE01.JPG,AFNE01.JPG,AFNE01.JPG,,,,,,,,,,,,,0,0,0,7,,,,,,,,,,,AMSA10.jpg,AMNE07.jpg,AMNE19.jpg,AMSA04.jpg,AMNE19.jpg,MN,1,num_2,16,num_2,1.16673749655,,,2017_Apr_18_1135,60.0069480122,FEMA4ImagesEEG,001,200163,
AFNE01.JPG,AFNE01.JPG,AFNE01.JPG,AFNE01.JPG,AFNE01.JPG,AFNE01.JPG,,,,,,,,,,,,,0,1,1,2,,,,,,,,,,,AMNE20.jpg,AMNE16.jpg,AMSA20.jpg,AMSA12.jpg,AMNE16.jpg,MN,1,num_6,32,num_8,1.13341976183,,,2017_Apr_18_1135,60.0069480122,FEMA4ImagesEEG,001,200163,
AFNE01.JPG,AFNE01.JPG,AFNE01.JPG,AFNE01.JPG,AFNE01.JPG,AFNE01.JPG,,,,,,,,,,,,,0,2,2,6,,,,,,,,,,,AMSA01.jpg,AMSA20.jpg,AMNE13.jpg,AMNE04.jpg,AMNE13.jpg,MN,1,num_2,32,num_6,0.800132401098,,,2017_Apr_18_1135,60.0069480122,FEMA4ImagesEEG,001,200163,
AFNE01.JPG,AFNE01.JPG,AFNE01.JPG,AFNE01.JPG,AFNE01.JPG,AFNE01.JPG,,,,,,,,,,,,,0,3,3,5,,,,,,,,,,,AMNE13.jpg,AMSA05.jpg,AMSA20.jpg,AMNE02.jpg,AMNE02.jpg,MN,1,num_4,16,num_4,0.600118545161,,,2017_Apr_18_1135,60.0069480122,FEMA4ImagesEEG,001,200163,
AFNE01.JPG,AFNE01.JPG,AFNE01.JPG,AFNE01.JPG,AFNE01.JPG,AFNE01.JPG,,,,,,,,,,,,,0,4,4,4,,,,,,,,,,,AMSA06.jpg,AMNE08.jpg,AMNE12.jpg,AMSA18.jpg,AMSA18.jpg,MS,2,num_4,16,num_4,0.766820760415,,,2017_Apr_18_1135,60.0069480122,FEMA4ImagesEEG,001,200163,
AFNE01.JPG,AFNE01.JPG,AFNE01.JPG,AFNE01.JPG,AFNE01.JPG,AFNE01.JPG,,,,,,,,,,,,,0,5,5,0,,,,,,,,,,,AMNE20.jpg,AMSA20.jpg,AMSA02.jpg,AMNE11.jpg,AMNE20.jpg,MN,1,num_8,32,num_4,1.30012165634,,,2017_Apr_18_1135,60.0069480122,FEMA4ImagesEEG,001,200163,
AFNE01.JPG,AFNE01.JPG,AFNE01.JPG,AFNE01.JPG,AFNE01.JPG,AFNE01.JPG,,,,,,,,,,,,,0,6,6,3,,,,,,,,,,,AMNE11.jpg,AMNE03.jpg,AMSA08.jpg,AMSA07.jpg,AMSA07.jpg,MS,2,num_4,16,num_4,0.716793802305,,,2017_Apr_18_1135,60.0069480122,FEMA4ImagesEEG,001,200163,
AFNE01.JPG,AFNE01.JPG,AFNE01.JPG,AFNE01.JPG,AFNE01.JPG,AFNE01.JPG,,,,,,,,,,,,,0,7,7,1,,,,,,,,,,,AMSA04.jpg,AMNE12.jpg,AMSA16.jpg,AMNE06.jpg,AMNE06.jpg,MN,1,num_4,32,num_6,1.06676793468,,,2017_Apr_18_1135,60.0069480122,FEMA4ImagesEEG,001,200163,
AFNE01.JPG,AFNE01.JPG,AFNE01.JPG,AFNE01.JPG,AFNE01.JPG,AFNE01.JPG,,,,,,,,,,,,,0,8,8,9,,,,,,,,,,,AMSA09.jpg,AMNE14.jpg,AMNE11.jpg,AMSA18.jpg,AMNE11.jpg,MN,1,num_2,16,num_2,1.83333499049,,,2017_Apr_18_1135,60.0069480122,FEMA4ImagesEEG,001,200163,
AFNE01.JPG,AFNE01.JPG,AFNE01.JPG,AFNE01.JPG,AFNE01.JPG,AFNE01.JPG,,,,,,,,,,,,,0,9,9,8,,,,,,,,,,,AMSA16.jpg,AMNE01.jpg,AMSA11.jpg,AMNE16.jpg,AMNE16.jpg,MN,1,num_4,32,num_8,0.633456807191,,,2017_Apr_18_1135,60.0069480122,FEMA4ImagesEEG,001,200163,
AFNE01.JPG,AFNE01.JPG,AFNE01.JPG,AFNE01.JPG,AFNE01.JPG,AFNE01.JPG,,,,,,,,,,,,,1,0,10,9,,,,,,,,,,,AMNE03.jpg,AMNE01.jpg,AMSA05.jpg,AMSA11.jpg,AMSA11.jpg,MS,2,num_4,16,num_4,1.61672513206,,,2017_Apr_18_1135,60.0069480122,FEMA4ImagesEEG,001,200163,
AFNE01.JPG,AFNE01.JPG,AFNE01.JPG,AFNE01.JPG,AFNE01.JPG,AFNE01.JPG,,,,,,,,,,,,,1,1,11,3,,,,,,,,,,,AMSA01.jpg,AMSA05.jpg,AMNE04.jpg,AMNE15.jpg,AMSA05.jpg,MS,2,num_6,16,num_6,0.766813383423,,,2017_Apr_18_1135,60.0069480122,FEMA4ImagesEEG,001,200163,
AFNE01.JPG,AFNE01.JPG,AFNE01.JPG,AFNE01.JPG,AFNE01.JPG,AFNE01.JPG,,,,,,,,,,,,,1,2,12,2,,,,,,,,,,,AMSA04.jpg,AMSA15.jpg,AMNE17.jpg,AMNE13.jpg,AMSA04.jpg,MS,2,num_8,16,num_8,0.600151260558,,,2017_Apr_18_1135,60.0069480122,FEMA4ImagesEEG,001,200163,
AFNE01.JPG,AFNE01.JPG,AFNE01.JPG,AFNE01.JPG,AFNE01.JPG,AFNE01.JPG,,,,,,,,,,,,,1,3,13,8,,,,,,,,,,,AMNE17.jpg,AMSA20.jpg,AMSA17.jpg,AMNE16.jpg,AMNE16.jpg,MN,1,num_4,32,num_6,0.783402650399,,,2017_Apr_18_1135,60.0069480122,FEMA4ImagesEEG,001,200163,
AFNE01.JPG,AFNE01.JPG,AFNE01.JPG,AFNE01.JPG,AFNE01.JPG,AFNE01.JPG,,,,,,,,,,,,,1,4,14,1,,,,,,,,,,,AMSA10.jpg,AMSA07.jpg,AMNE11.jpg,AMNE10.jpg,AMNE10.jpg,MN,1,num_4,32,num_8,1.15014085257,,,2017_Apr_18_1135,60.0069480122,FEMA4ImagesEEG,001,200163,
AFNE01.JPG,AFNE01.JPG,AFNE01.JPG,AFNE01.JPG,AFNE01.JPG,AFNE01.JPG,,,,,,,,,,,,,1,5,15,0,,,,,,,,,,,AMNE20.jpg,AMNE07.jpg,AMSA06.jpg,AMSA17.jpg,AMSA17.jpg,MS,2,num_4,32,num_6,1.18344896512,,,2017_Apr_18_1135,60.0069480122,FEMA4ImagesEEG,001,200163,
AFNE01.JPG,AFNE01.JPG,AFNE01.JPG,AFNE01.JPG,AFNE01.JPG,AFNE01.JPG,,,,,,,,,,,,,1,6,16,5,,,,,,,,,,,AMNE01.jpg,AMSA19.jpg,AMSA08.jpg,AMNE08.jpg,AMNE08.jpg,MN,1,num_4,32,num_6,1.36671061862,,,2017_Apr_18_1135,60.0069480122,FEMA4ImagesEEG,001,200163,
AFNE01.JPG,AFNE01.JPG,AFNE01.JPG,AFNE01.JPG,AFNE01.JPG,AFNE01.JPG,,,,,,,,,,,,,1,7,17,7,,,,,,,,,,,AMNE03.jpg,AMSA19.jpg,AMNE17.jpg,AMSA14.jpg,AMNE03.jpg,MN,1,num_8,32,num_6,1.26669519107,,,2017_Apr_18_1135,60.0069480122,FEMA4ImagesEEG,001,200163,
AFNE01.JPG,AFNE01.JPG,AFNE01.JPG,AFNE01.JPG,AFNE01.JPG,AFNE01.JPG,,,,,,,,,,,,,1,8,18,4,,,,,,,,,,,AMSA11.jpg,AMNE12.jpg,AMNE01.jpg,AMSA09.jpg,AMSA11.jpg,MS,2,num_8,16,num_8,1.50007296815,,,2017_Apr_18_1135,60.0069480122,FEMA4ImagesEEG,001,200163,
AFNE01.JPG,AFNE01.JPG,AFNE01.JPG,AFNE01.JPG,AFNE01.JPG,AFNE01.JPG,,,,,,,,,,,,,1,9,19,6,,,,,,,,,,,AMSA14.jpg,AMSA01.jpg,AMNE07.jpg,AMNE12.jpg,AMSA01.jpg,MS,2,num_6,16,num_6,0.800125344846,,,2017_Apr_18_1135,60.0069480122,FEMA4ImagesEEG,001,200163,
AFNE01.JPG,AFNE01.JPG,AFNE01.JPG,AFNE01.JPG,AFNE01.JPG,AFNE01.JPG,,,,,,,,,,,,,2,0,20,0,,,,,,,,,,,AMNE10.jpg,AMNE18.jpg,AMSA11.jpg,AMSA19.jpg,AMSA11.jpg,MS,2,num_2,32,num_4,0.766824288556,,,2017_Apr_18_1135,60.0069480122,FEMA4ImagesEEG,001,200163,
AFNE01.JPG,AFNE01.JPG,AFNE01.JPG,AFNE01.JPG,AFNE01.JPG,AFNE01.JPG,,,,,,,,,,,,,2,1,21,4,,,,,,,,,,,AMNE06.jpg,AMSA13.jpg,AMSA16.jpg,AMNE18.jpg,AMNE06.jpg,MN,1,num_8,16,num_8,1.48367582387,,,2017_Apr_18_1135,60.0069480122,FEMA4ImagesEEG,001,200163,
AFNE01.JPG,AFNE01.JPG,AFNE01.JPG,AFNE01.JPG,AFNE01.JPG,AFNE01.JPG,,,,,,,,,,,,,2,2,22,8,,,,,,,,,,,AMNE12.jpg,AMSA07.jpg,AMNE10.jpg,AMSA06.jpg,AMSA06.jpg,MS,2,num_4,16,num_4,1.15010428832,,,2017_Apr_18_1135,60.0069480122,FEMA4ImagesEEG,001,200163,
AFNE01.JPG,AFNE01.JPG,AFNE01.JPG,AFNE01.JPG,AFNE01.JPG,AFNE01.JPG,,,,,,,,,,,,,2,3,23,1,,,,,,,,,,,AMSA06.jpg,AMNE08.jpg,AMSA11.jpg,AMNE20.jpg,AMNE08.jpg,MN,1,num_6,16,num_6,0.583470262194,,,2017_Apr_18_1135,60.0069480122,FEMA4ImagesEEG,001,200163,
AFNE01.JPG,AFNE01.JPG,AFNE01.JPG,AFNE01.JPG,AFNE01.JPG,AFNE01.JPG,,,,,,,,,,,,,2,4,24,2,,,,,,,,,,,AMNE10.jpg,AMNE07.jpg,AMSA16.jpg,AMSA02.jpg,AMSA02.jpg,MS,2,num_4,16,num_4,0.583493034675,,,2017_Apr_18_1135,60.0069480122,FEMA4ImagesEEG,001,200163,
AFNE01.JPG,AFNE01.JPG,AFNE01.JPG,AFNE01.JPG,AFNE01.JPG,AFNE01.JPG,,,,,,,,,,,,,2,5,25,7,,,,,,,,,,,AMSA14.jpg,AMNE03.jpg,AMNE02.jpg,AMSA16.jpg,AMNE02.jpg,MN,1,num_2,32,num_6,0.966741602009,,,2017_Apr_18_1135,60.0069480122,FEMA4ImagesEEG,001,200163,
AFNE01.JPG,AFNE01.JPG,AFNE01.JPG,AFNE01.JPG,AFNE01.JPG,AFNE01.JPG,,,,,,,,,,,,,2,6,26,5,,,,,,,,,,,AMNE09.jpg,AMNE15.jpg,AMSA12.jpg,AMSA09.jpg,AMSA09.jpg,MS,2,num_4,32,num_6,0.950402190778,,,2017_Apr_18_1135,60.0069480122,FEMA4ImagesEEG,001,200163,
AFNE01.JPG,AFNE01.JPG,AFNE01.JPG,AFNE01.JPG,AFNE01.JPG,AFNE01.JPG,,,,,,,,,,,,,2,7,27,6,,,,,,,,,,,AMNE05.jpg,AMSA20.jpg,AMNE07.jpg,AMSA09.jpg,AMSA20.jpg,MS,2,num_6,32,num_4,1.06674901109,,,2017_Apr_18_1135,60.0069480122,FEMA4ImagesEEG,001,200163,
AFNE01.JPG,AFNE01.JPG,AFNE01.JPG,AFNE01.JPG,AFNE01.JPG,AFNE01.JPG,,,,,,,,,,,,,2,8,28,3,,,,,,,,,,,AMNE15.jpg,AMNE03.jpg,AMSA10.jpg,AMSA05.jpg,AMNE03.jpg,MN,1,num_6,16,num_6,0.83346136169,,,2017_Apr_18_1135,60.0069480122,FEMA4ImagesEEG,001,200163,
AFNE01.JPG,AFNE01.JPG,AFNE01.JPG,AFNE01.JPG,AFNE01.JPG,AFNE01.JPG,,,,,,,,,,,,,2,9,29,9,,,,,,,,,,,AMNE05.jpg,AMSA13.jpg,AMNE10.jpg,AMSA08.jpg,AMNE10.jpg,MN,1,num_2,32,num_8,0.716788028993,,,2017_Apr_18_1135,60.0069480122,FEMA4ImagesEEG,001,200163,
AFNE01.JPG,AFNE01.JPG,AFNE01.JPG,AFNE01.JPG,AFNE01.JPG,AFNE01.JPG,,,,,,,,,,,,,3,0,30,4,,,,,,,,,,,AMSA03.jpg,AMSA18.jpg,AMNE06.jpg,AMNE15.jpg,AMNE06.jpg,MN,1,num_2,16,num_2,0.7833173338,,,2017_Apr_18_1135,60.0069480122,FEMA4ImagesEEG,001,200163,
AFNE01.JPG,AFNE01.JPG,AFNE01.JPG,AFNE01.JPG,AFNE01.JPG,AFNE01.JPG,,,,,,,,,,,,,3,1,31,2,,,,,,,,,,,AMSA14.jpg,AMNE20.jpg,AMSA11.jpg,AMNE18.jpg,AMNE18.jpg,MN,1,num_4,32,num_6,1.06663450722,,,2017_Apr_18_1135,60.0069480122,FEMA4ImagesEEG,001,200163,
AFNE01.JPG,AFNE01.JPG,AFNE01.JPG,AFNE01.JPG,AFNE01.JPG,AFNE01.JPG,,,,,,,,,,,,,3,2,32,0,,,,,,,,,,,AMSA17.jpg,AMNE03.jpg,AMNE10.jpg,AMSA06.jpg,AMSA06.jpg,MS,2,num_4,16,num_4,0.566831922129,,,2017_Apr_18_1135,60.0069480122,FEMA4ImagesEEG,001,200163,
AFNE01.JPG,AFNE01.JPG,AFNE01.JPG,AFNE01.JPG,AFNE01.JPG,AFNE01.JPG,,,,,,,,,,,,,3,3,33,5,,,,,,,,,,,AMNE01.jpg,AMSA03.jpg,AMSA07.jpg,AMNE14.jpg,AMSA07.jpg,MS,2,num_2,32,num_6,0.900374591176,,,2017_Apr_18_1135,60.0069480122,FEMA4ImagesEEG,001,200163,
AFNE01.JPG,AFNE01.JPG,AFNE01.JPG,AFNE01.JPG,AFNE01.JPG,AFNE01.JPG,,,,,,,,,,,,,3,4,34,1,,,,,,,,,,,AMNE12.jpg,AMSA02.jpg,AMSA17.jpg,AMNE11.jpg,AMNE11.jpg,MN,1,num_4,16,num_4,1.66667479205,,,2017_Apr_18_1135,60.0069480122,FEMA4ImagesEEG,001,200163,
AFNE01.JPG,AFNE01.JPG,AFNE01.JPG,AFNE01.JPG,AFNE01.JPG,AFNE01.JPG,,,,,,,,,,,,,3,5,35,7,,,,,,,,,,,AMNE02.jpg,AMSA03.jpg,AMSA10.jpg,AMNE16.jpg,AMNE16.jpg,MN,1,num_4,16,num_4,1.15017677534,,,2017_Apr_18_1135,60.0069480122,FEMA4ImagesEEG,001,200163,
AFNE01.JPG,AFNE01.JPG,AFNE01.JPG,AFNE01.JPG,AFNE01.JPG,AFNE01.JPG,,,,,,,,,,,,,3,6,36,9,,,,,,,,,,,AMNE17.jpg,AMSA19.jpg,AMNE16.jpg,AMSA08.jpg,AMNE17.jpg,MN,1,num_8,32,num_6,0.93344407386,,,2017_Apr_18_1135,60.0069480122,FEMA4ImagesEEG,001,200163,
AFNE01.JPG,AFNE01.JPG,AFNE01.JPG,AFNE01.JPG,AFNE01.JPG,AFNE01.JPG,,,,,,,,,,,,,3,7,37,6,,,,,,,,,,,AMSA13.jpg,AMNE12.jpg,AMNE13.jpg,AMSA01.jpg,AMSA13.jpg,MS,2,num_8,32,num_6,0.733483460615,,,2017_Apr_18_1135,60.0069480122,FEMA4ImagesEEG,001,200163,
AFNE01.JPG,AFNE01.JPG,AFNE01.JPG,AFNE01.JPG,AFNE01.JPG,AFNE01.JPG,,,,,,,,,,,,,3,8,38,8,,,,,,,,,,,AMSA09.jpg,AMSA14.jpg,AMNE15.jpg,AMNE13.jpg,AMSA14.jpg,MS,2,num_6,16,num_6,0.550152527474,,,2017_Apr_18_1135,60.0069480122,FEMA4ImagesEEG,001,200163,
AFNE01.JPG,AFNE01.JPG,AFNE01.JPG,AFNE01.JPG,AFNE01.JPG,AFNE01.JPG,,,,,,,,,,,,,3,9,39,3,,,,,,,,,,,AMSA15.jpg,AMNE20.jpg,AMNE17.jpg,AMSA01.jpg,AMSA01.jpg,MS,2,num_4,16,num_4,0.466803344287,,,2017_Apr_18_1135,60.0069480122,FEMA4ImagesEEG,001,200163,
AFNE01.JPG,AFNE01.JPG,AFNE01.JPG,AFNE01.JPG,AFNE01.JPG,AFNE01.JPG,,,,,,,,,,,,,4,0,40,0,,,,,,,,,,,AMSA14.jpg,AMSA04.jpg,AMNE16.jpg,AMNE09.jpg,AMSA14.jpg,MS,2,num_8,16,num_8,0.750268699179,,,2017_Apr_18_1135,60.0069480122,FEMA4ImagesEEG,001,200163,
AFNE01.JPG,AFNE01.JPG,AFNE01.JPG,AFNE01.JPG,AFNE01.JPG,AFNE01.JPG,,,,,,,,,,,,,4,1,41,3,,,,,,,,,,,AMSA01.jpg,AMSA14.jpg,AMNE07.jpg,AMNE13.jpg,AMSA01.jpg,MS,2,num_8,16,num_8,0.599838539943,,,2017_Apr_18_1135,60.0069480122,FEMA4ImagesEEG,001,200163,
AFNE01.JPG,AFNE01.JPG,AFNE01.JPG,AFNE01.JPG,AFNE01.JPG,AFNE01.JPG,,,,,,,,,,,,,4,2,42,1,,,,,,,,,,,AMNE07.jpg,AMSA14.jpg,AMSA06.jpg,AMNE08.jpg,AMNE08.jpg,MN,1,num_4,32,num_8,0.91666043899,,,2017_Apr_18_1135,60.0069480122,FEMA4ImagesEEG,001,200163,
AFNE01.JPG,AFNE01.JPG,AFNE01.JPG,AFNE01.JPG,AFNE01.JPG,AFNE01.JPG,,,,,,,,,,,,,4,3,43,2,,,,,,,,,,,AMSA20.jpg,AMSA04.jpg,AMNE06.jpg,AMNE19.jpg,AMSA04.jpg,MS,2,num_6,16,num_6,1.16676892898,,,2017_Apr_18_1135,60.0069480122,FEMA4ImagesEEG,001,200163,
AFNE01.JPG,AFNE01.JPG,AFNE01.JPG,AFNE01.JPG,AFNE01.JPG,AFNE01.JPG,,,,,,,,,,,,,4,4,44,4,,,,,,,,,,,AMNE01.jpg,AMNE04.jpg,AMSA06.jpg,AMSA16.jpg,AMNE04.jpg,MN,1,num_6,16,num_6,0.733444651181,,,2017_Apr_18_1135,60.0069480122,FEMA4ImagesEEG,001,200163,
AFNE01.JPG,AFNE01.JPG,AFNE01.JPG,AFNE01.JPG,AFNE01.JPG,AFNE01.JPG,,,,,,,,,,,,,4,5,45,5,,,,,,,,,,,AMNE01.jpg,AMNE06.jpg,AMSA09.jpg,AMSA14.jpg,AMNE01.jpg,MN,1,num_8,16,num_8,0.683458426924,,,2017_Apr_18_1135,60.0069480122,FEMA4ImagesEEG,001,200163,
AFNE01.JPG,AFNE01.JPG,AFNE01.JPG,AFNE01.JPG,AFNE01.JPG,AFNE01.JPG,,,,,,,,,,,,,4,6,46,6,,,,,,,,,,,AMNE02.jpg,AMNE20.jpg,AMSA16.jpg,AMSA11.jpg,AMNE20.jpg,MN,1,num_6,16,num_6,0.533456454374,,,2017_Apr_18_1135,60.0069480122,FEMA4ImagesEEG,001,200163,
AFNE01.JPG,AFNE01.JPG,AFNE01.JPG,AFNE01.JPG,AFNE01.JPG,AFNE01.JPG,,,,,,,,,,,,,4,7,47,7,,,,,,,,,,,AMSA04.jpg,AMSA05.jpg,AMNE09.jpg,AMNE15.jpg,AMNE15.jpg,MN,1,num_4,16,num_4,0.933435413899,,,2017_Apr_18_1135,60.0069480122,FEMA4ImagesEEG,001,200163,
AFNE01.JPG,AFNE01.JPG,AFNE01.JPG,AFNE01.JPG,AFNE01.JPG,AFNE01.JPG,,,,,,,,,,,,,4,8,48,8,,,,,,,,,,,AMNE13.jpg,AMSA10.jpg,AMSA12.jpg,AMNE09.jpg,AMNE13.jpg,MN,1,num_8,16,num_8,0.816789985503,,,2017_Apr_18_1135,60.0069480122,FEMA4ImagesEEG,001,200163,
AFNE01.JPG,AFNE01.JPG,AFNE01.JPG,AFNE01.JPG,AFNE01.JPG,AFNE01.JPG,,,,,,,,,,,,,4,9,49,9,,,,,,,,,,,AMSA06.jpg,AMNE17.jpg,AMNE11.jpg,AMSA11.jpg,AMSA06.jpg,MS,2,num_8,32,num_2,1.13349481477,,,2017_Apr_18_1135,60.0069480122,FEMA4ImagesEEG,001,200163,
AFNE01.JPG,AFNE01.JPG,AFNE01.JPG,AFNE01.JPG,AFNE01.JPG,AFNE01.JPG,,,,,,,,,,,,,5,0,50,2,,,,,,,,,,,AMSA14.jpg,AMSA19.jpg,AMNE10.jpg,AMNE02.jpg,AMNE10.jpg,MN,1,num_2,32,num_6,0.950124430732,,,2017_Apr_18_1135,60.0069480122,FEMA4ImagesEEG,001,200163,
AFNE01.JPG,AFNE01.JPG,AFNE01.JPG,AFNE01.JPG,AFNE01.JPG,AFNE01.JPG,,,,,,,,,,,,,5,1,51,9,,,,,,,,,,,AMNE19.jpg,AMNE08.jpg,AMSA16.jpg,AMSA08.jpg,AMNE19.jpg,MN,1,num_8,16,num_8,0.666822011292,,,2017_Apr_18_1135,60.0069480122,FEMA4ImagesEEG,001,200163,
AFNE01.JPG,AFNE01.JPG,AFNE01.JPG,AFNE01.JPG,AFNE01.JPG,AFNE01.JPG,,,,,,,,,,,,,5,2,52,1,,,,,,,,,,,AMSA08.jpg,AMSA16.jpg,AMNE06.jpg,AMNE09.jpg,AMNE09.jpg,MN,1,num_4,16,num_4,0.550205449414,,,2017_Apr_18_1135,60.0069480122,FEMA4ImagesEEG,001,200163,
AFNE01.JPG,AFNE01.JPG,AFNE01.JPG,AFNE01.JPG,AFNE01.JPG,AFNE01.JPG,,,,,,,,,,,,,5,3,53,4,,,,,,,,,,,AMSA07.jpg,AMSA13.jpg,AMNE03.jpg,AMNE07.jpg,AMSA07.jpg,MS,2,num_8,16,num_8,0.416841175451,,,2017_Apr_18_1135,60.0069480122,FEMA4ImagesEEG,001,200163,
AFNE01.JPG,AFNE01.JPG,AFNE01.JPG,AFNE01.JPG,AFNE01.JPG,AFNE01.JPG,,,,,,,,,,,,,5,4,54,0,,,,,,,,,,,AMSA01.jpg,AMSA06.jpg,AMNE08.jpg,AMNE11.jpg,AMNE08.jpg,MN,1,num_2,32,num_4,0.866758569115,,,2017_Apr_18_1135,60.0069480122,FEMA4ImagesEEG,001,200163,
AFNE01.JPG,AFNE01.JPG,AFNE01.JPG,AFNE01.JPG,AFNE01.JPG,AFNE01.JPG,,,,,,,,,,,,,5,5,55,3,,,,,,,,,,,AMNE09.jpg,AMNE17.jpg,AMSA18.jpg,AMSA06.jpg,AMNE09.jpg,MN,1,num_8,16,num_8,0.933433168713,,,2017_Apr_18_1135,60.0069480122,FEMA4ImagesEEG,001,200163,
AFNE01.JPG,AFNE01.JPG,AFNE01.JPG,AFNE01.JPG,AFNE01.JPG,AFNE01.JPG,,,,,,,,,,,,,5,6,56,5,,,,,,,,,,,AMSA19.jpg,AMNE08.jpg,AMSA10.jpg,AMNE09.jpg,AMNE09.jpg,MN,1,num_4,32,num_8,0.750121479927,,,2017_Apr_18_1135,60.0069480122,FEMA4ImagesEEG,001,200163,
AFNE01.JPG,AFNE01.JPG,AFNE01.JPG,AFNE01.JPG,AFNE01.JPG,AFNE01.JPG,,,,,,,,,,,,,5,7,57,6,,,,,,,,,,,AMNE02.jpg,AMSA01.jpg,AMSA16.jpg,AMNE14.jpg,AMNE02.jpg,MN,1,num_8,32,num_6,0.816780684065,,,2017_Apr_18_1135,60.0069480122,FEMA4ImagesEEG,001,200163,
AFNE01.JPG,AFNE01.JPG,AFNE01.JPG,AFNE01.JPG,AFNE01.JPG,AFNE01.JPG,,,,,,,,,,,,,5,8,58,7,,,,,,,,,,,AMSA07.jpg,AMSA08.jpg,AMNE13.jpg,AMNE17.jpg,AMSA07.jpg,MS,2,num_8,16,num_8,0.716766539466,,,2017_Apr_18_1135,60.0069480122,FEMA4ImagesEEG,001,200163,
AFNE01.JPG,AFNE01.JPG,AFNE01.JPG,AFNE01.JPG,AFNE01.JPG,AFNE01.JPG,,,,,,,,,,,,,5,9,59,8,,,,,,,,,,,AMSA13.jpg,AMSA12.jpg,AMNE15.jpg,AMNE05.jpg,AMSA13.jpg,MS,2,num_8,32,num_6,1.05013151906,,,2017_Apr_18_1135,60.0069480122,FEMA4ImagesEEG,001,200163,
,,,,,,,,,,,,,,,,,,,,,,,,,,,,,,,,,,,,,,,,,,,space,26.1811431718,2017_Apr_18_1135,60.0069480122,FEMA4ImagesEEG,001,200163,
AFNE01.JPG,AFNE01.JPG,AFNE01.JPG,AFNE01.JPG,AFNE01.JPG,AFNE01.JPG,,,,,,,,,,,,,,,,,0,0,0,4,,,,,,,AFSA14.jpg,AFNE07.jpg,AFSA03.jpg,AFNE05.jpg,AFSA14.jpg,FS,4,num_8,32,num_2,0.80010000644,,,2017_Apr_18_1135,60.0069480122,FEMA4ImagesEEG,001,200163,
AFNE01.JPG,AFNE01.JPG,AFNE01.JPG,AFNE01.JPG,AFNE01.JPG,AFNE01.JPG,,,,,,,,,,,,,,,,,0,1,1,6,,,,,,,AFNE20.jpg,AFNE01.jpg,AFSA02.jpg,AFSA18.jpg,AFNE01.jpg,FN,3,num_6,32,num_2,1.11683819258,,,2017_Apr_18_1135,60.0069480122,FEMA4ImagesEEG,001,200163,
AFNE01.JPG,AFNE01.JPG,AFNE01.JPG,AFNE01.JPG,AFNE01.JPG,AFNE01.JPG,,,,,,,,,,,,,,,,,0,2,2,3,,,,,,,AFSA04.jpg,AFNE09.jpg,AFNE17.jpg,AFSA17.jpg,AFSA04.jpg,FS,4,num_8,32,num_2,0.916788413873,,,2017_Apr_18_1135,60.0069480122,FEMA4ImagesEEG,001,200163,
AFNE01.JPG,AFNE01.JPG,AFNE01.JPG,AFNE01.JPG,AFNE01.JPG,AFNE01.JPG,,,,,,,,,,,,,,,,,0,3,3,8,,,,,,,AFNE06.jpg,AFNE13.jpg,AFSA19.jpg,AFSA06.jpg,AFSA06.jpg,FS,4,num_4,16,num_4,0.633451033878,,,2017_Apr_18_1135,60.0069480122,FEMA4ImagesEEG,001,200163,
AFNE01.JPG,AFNE01.JPG,AFNE01.JPG,AFNE01.JPG,AFNE01.JPG,AFNE01.JPG,,,,,,,,,,,,,,,,,0,4,4,1,,,,,,,AFNE18.jpg,AFSA16.jpg,AFNE07.jpg,AFSA07.jpg,AFSA07.jpg,FS,4,num_4,32,num_8,0.900097793347,,,2017_Apr_18_1135,60.0069480122,FEMA4ImagesEEG,001,200163,
AFNE01.JPG,AFNE01.JPG,AFNE01.JPG,AFNE01.JPG,AFNE01.JPG,AFNE01.JPG,,,,,,,,,,,,,,,,,0,5,5,5,,,,,,,AFSA17.jpg,AFNE16.jpg,AFNE02.jpg,AFSA07.jpg,AFNE16.jpg,FN,3,num_6,32,num_2,1.0667599162,,,2017_Apr_18_1135,60.0069480122,FEMA4ImagesEEG,001,200163,
AFNE01.JPG,AFNE01.JPG,AFNE01.JPG,AFNE01.JPG,AFNE01.JPG,AFNE01.JPG,,,,,,,,,,,,,,,,,0,6,6,0,,,,,,,AFNE19.jpg,AFNE08.jpg,AFSA10.jpg,AFSA15.jpg,AFSA15.jpg,FS,4,num_4,32,num_2,1.41671127612,,,2017_Apr_18_1135,60.0069480122,FEMA4ImagesEEG,001,200163,
AFNE01.JPG,AFNE01.JPG,AFNE01.JPG,AFNE01.JPG,AFNE01.JPG,AFNE01.JPG,,,,,,,,,,,,,,,,,0,7,7,7,,,,,,,AFNE05.jpg,AFNE07.jpg,AFSA11.jpg,AFSA05.jpg,AFNE05.jpg,FN,3,num_8,16,num_8,0.616825844132,,,2017_Apr_18_1135,60.0069480122,FEMA4ImagesEEG,001,200163,
AFNE01.JPG,AFNE01.JPG,AFNE01.JPG,AFNE01.JPG,AFNE01.JPG,AFNE01.JPG,,,,,,,,,,,,,,,,,0,8,8,2,,,,,,,AFSA03.jpg,AFNE20.jpg,AFNE09.jpg,AFSA16.jpg,AFNE09.jpg,FN,3,num_2,16,num_2,0.766789327987,,,2017_Apr_18_1135,60.0069480122,FEMA4ImagesEEG,001,200163,
AFNE01.JPG,AFNE01.JPG,AFNE01.JPG,AFNE01.JPG,AFNE01.JPG,AFNE01.JPG,,,,,,,,,,,,,,,,,0,9,9,9,,,,,,,AFNE12.jpg,AFNE02.jpg,AFSA07.jpg,AFSA10.jpg,AFSA10.jpg,FS,4,num_4,16,num_4,0.433510627219,,,2017_Apr_18_1135,60.0069480122,FEMA4ImagesEEG,001,200163,
AFNE01.JPG,AFNE01.JPG,AFNE01.JPG,AFNE01.JPG,AFNE01.JPG,AFNE01.JPG,,,,,,,,,,,,,,,,,1,0,10,4,,,,,,,AFSA07.jpg,AFNE10.jpg,AFNE19.jpg,AFSA10.jpg,AFSA07.jpg,FS,4,num_8,16,num_8,1.10011902628,,,2017_Apr_18_1135,60.0069480122,FEMA4ImagesEEG,001,200163,
AFNE01.JPG,AFNE01.JPG,AFNE01.JPG,AFNE01.JPG,AFNE01.JPG,AFNE01.JPG,,,,,,,,,,,,,,,,,1,1,11,3,,,,,,,AFSA05.jpg,AFSA16.jpg,AFNE10.jpg,AFNE13.jpg,AFSA05.jpg,FS,4,num_8,16,num_8,0.483484342636,,,2017_Apr_18_1135,60.0069480122,FEMA4ImagesEEG,001,200163,
AFNE01.JPG,AFNE01.JPG,AFNE01.JPG,AFNE01.JPG,AFNE01.JPG,AFNE01.JPG,,,,,,,,,,,,,,,,,1,2,12,6,,,,,,,AFSA19.jpg,AFNE20.jpg,AFSA09.jpg,AFNE16.jpg,AFSA09.jpg,FS,4,num_2,32,num_4,1.25012196104,,,2017_Apr_18_1135,60.0069480122,FEMA4ImagesEEG,001,200163,
AFNE01.JPG,AFNE01.JPG,AFNE01.JPG,AFNE01.JPG,AFNE01.JPG,AFNE01.JPG,,,,,,,,,,,,,,,,,1,3,13,5,,,,,,,AFSA04.jpg,AFSA03.jpg,AFNE16.jpg,AFNE07.jpg,AFSA04.jpg,FS,4,num_8,32,num_6,0.966737111667,,,2017_Apr_18_1135,60.0069480122,FEMA4ImagesEEG,001,200163,
AFNE01.JPG,AFNE01.JPG,AFNE01.JPG,AFNE01.JPG,AFNE01.JPG,AFNE01.JPG,,,,,,,,,,,,,,,,,1,4,14,2,,,,,,,AFNE19.jpg,AFSA06.jpg,AFSA16.jpg,AFNE09.jpg,AFNE09.jpg,FN,3,num_4,32,num_8,0.816838096362,,,2017_Apr_18_1135,60.0069480122,FEMA4ImagesEEG,001,200163,
AFNE01.JPG,AFNE01.JPG,AFNE01.JPG,AFNE01.JPG,AFNE01.JPG,AFNE01.JPG,,,,,,,,,,,,,,,,,1,5,15,8,,,,,,,AFSA20.jpg,AFNE08.jpg,AFNE20.jpg,AFSA17.jpg,AFNE20.jpg,FN,3,num_2,32,num_6,0.883446302993,,,2017_Apr_18_1135,60.0069480122,FEMA4ImagesEEG,001,200163,
AFNE01.JPG,AFNE01.JPG,AFNE01.JPG,AFNE01.JPG,AFNE01.JPG,AFNE01.JPG,,,,,,,,,,,,,,,,,1,6,16,0,,,,,,,AFNE03.jpg,AFNE17.jpg,AFSA17.jpg,AFSA16.jpg,AFSA17.jpg,FS,4,num_2,16,num_2,0.766757895559,,,2017_Apr_18_1135,60.0069480122,FEMA4ImagesEEG,001,200163,
AFNE01.JPG,AFNE01.JPG,AFNE01.JPG,AFNE01.JPG,AFNE01.JPG,AFNE01.JPG,,,,,,,,,,,,,,,,,1,7,17,7,,,,,,,AFNE20.jpg,AFNE10.jpg,AFSA11.jpg,AFSA01.jpg,AFSA11.jpg,FS,4,num_2,16,num_2,0.566767774319,,,2017_Apr_18_1135,60.0069480122,FEMA4ImagesEEG,001,200163,
AFNE01.JPG,AFNE01.JPG,AFNE01.JPG,AFNE01.JPG,AFNE01.JPG,AFNE01.JPG,,,,,,,,,,,,,,,,,1,8,18,1,,,,,,,AFNE02.jpg,AFNE01.jpg,AFSA04.jpg,AFSA09.jpg,AFNE02.jpg,FN,3,num_8,32,num_6,0.98346718309,,,2017_Apr_18_1135,60.0069480122,FEMA4ImagesEEG,001,200163,
AFNE01.JPG,AFNE01.JPG,AFNE01.JPG,AFNE01.JPG,AFNE01.JPG,AFNE01.JPG,,,,,,,,,,,,,,,,,1,9,19,9,,,,,,,AFSA07.jpg,AFNE18.jpg,AFNE16.jpg,AFSA17.jpg,AFNE18.jpg,FN,3,num_6,32,num_8,0.516774493793,,,2017_Apr_18_1135,60.0069480122,FEMA4ImagesEEG,001,200163,
AFNE01.JPG,AFNE01.JPG,AFNE01.JPG,AFNE01.JPG,AFNE01.JPG,AFNE01.JPG,,,,,,,,,,,,,,,,,2,0,20,3,,,,,,,AFNE14.jpg,AFSA05.jpg,AFSA11.jpg,AFNE05.jpg,AFNE14.jpg,FN,3,num_8,16,num_8,0.850105154299,,,2017_Apr_18_1135,60.0069480122,FEMA4ImagesEEG,001,200163,
AFNE01.JPG,AFNE01.JPG,AFNE01.JPG,AFNE01.JPG,AFNE01.JPG,AFNE01.JPG,,,,,,,,,,,,,,,,,2,1,21,4,,,,,,,AFNE20.jpg,AFNE10.jpg,AFSA13.jpg,AFSA16.jpg,AFNE20.jpg,FN,3,num_8,32,num_6,0.733463574783,,,2017_Apr_18_1135,60.0069480122,FEMA4ImagesEEG,001,200163,
AFNE01.JPG,AFNE01.JPG,AFNE01.JPG,AFNE01.JPG,AFNE01.JPG,AFNE01.JPG,,,,,,,,,,,,,,,,,2,2,22,0,,,,,,,AFNE07.jpg,AFSA13.jpg,AFNE01.jpg,AFSA06.jpg,AFNE01.jpg,FN,3,num_2,32,num_4,1.40019834504,,,2017_Apr_18_1135,60.0069480122,FEMA4ImagesEEG,001,200163,
AFNE01.JPG,AFNE01.JPG,AFNE01.JPG,AFNE01.JPG,AFNE01.JPG,AFNE01.JPG,,,,,,,,,,,,,,,,,2,3,23,6,,,,,,,AFNE20.jpg,AFSA07.jpg,AFSA09.jpg,AFNE18.jpg,AFNE20.jpg,FN,3,num_8,16,num_8,0.750182099611,,,2017_Apr_18_1135,60.0069480122,FEMA4ImagesEEG,001,200163,
AFNE01.JPG,AFNE01.JPG,AFNE01.JPG,AFNE01.JPG,AFNE01.JPG,AFNE01.JPG,,,,,,,,,,,,,,,,,2,4,24,8,,,,,,,AFNE19.jpg,AFSA06.jpg,AFSA16.jpg,AFNE17.jpg,AFNE19.jpg,FN,3,num_8,32,num_6,0.733306091905,,,2017_Apr_18_1135,60.0069480122,FEMA4ImagesEEG,001,200163,
AFNE01.JPG,AFNE01.JPG,AFNE01.JPG,AFNE01.JPG,AFNE01.JPG,AFNE01.JPG,,,,,,,,,,,,,,,,,2,5,25,9,,,,,,,AFNE17.jpg,AFNE20.jpg,AFSA02.jpg,AFSA09.jpg,AFSA09.jpg,FS,4,num_4,16,num_4,0.650133635936,,,2017_Apr_18_1135,60.0069480122,FEMA4ImagesEEG,001,200163,
AFNE01.JPG,AFNE01.JPG,AFNE01.JPG,AFNE01.JPG,AFNE01.JPG,AFNE01.JPG,,,,,,,,,,,,,,,,,2,6,26,7,,,,,,,AFNE20.jpg,AFSA14.jpg,AFNE06.jpg,AFSA16.jpg,AFNE06.jpg,FN,3,num_2,32,num_8,0.750161572316,,,2017_Apr_18_1135,60.0069480122,FEMA4ImagesEEG,001,200163,
AFNE01.JPG,AFNE01.JPG,AFNE01.JPG,AFNE01.JPG,AFNE01.JPG,AFNE01.JPG,,,,,,,,,,,,,,,,,2,7,27,1,,,,,,,AFNE11.jpg,AFSA13.jpg,AFSA02.jpg,AFNE09.jpg,AFNE09.jpg,FN,3,num_4,16,num_4,0.883481584286,,,2017_Apr_18_1135,60.0069480122,FEMA4ImagesEEG,001,200163,
AFNE01.JPG,AFNE01.JPG,AFNE01.JPG,AFNE01.JPG,AFNE01.JPG,AFNE01.JPG,,,,,,,,,,,,,,,,,2,8,28,5,,,,,,,AFNE14.jpg,AFSA13.jpg,AFSA05.jpg,AFNE01.jpg,AFNE01.jpg,FN,3,num_4,32,num_6,1.10012544105,,,2017_Apr_18_1135,60.0069480122,FEMA4ImagesEEG,001,200163,
AFNE01.JPG,AFNE01.JPG,AFNE01.JPG,AFNE01.JPG,AFNE01.JPG,AFNE01.JPG,,,,,,,,,,,,,,,,,2,9,29,2,,,,,,,AFNE03.jpg,AFSA07.jpg,AFSA18.jpg,AFNE09.jpg,AFSA18.jpg,FS,4,num_2,16,num_2,0.583455828935,,,2017_Apr_18_1135,60.0069480122,FEMA4ImagesEEG,001,200163,
AFNE01.JPG,AFNE01.JPG,AFNE01.JPG,AFNE01.JPG,AFNE01.JPG,AFNE01.JPG,,,,,,,,,,,,,,,,,3,0,30,6,,,,,,,AFSA13.jpg,AFNE10.jpg,AFNE20.jpg,AFSA04.jpg,AFSA13.jpg,FS,4,num_8,16,num_8,1.00015427551,,,2017_Apr_18_1135,60.0069480122,FEMA4ImagesEEG,001,200163,
AFNE01.JPG,AFNE01.JPG,AFNE01.JPG,AFNE01.JPG,AFNE01.JPG,AFNE01.JPG,,,,,,,,,,,,,,,,,3,1,31,3,,,,,,,AFSA19.jpg,AFNE15.jpg,AFSA01.jpg,AFNE05.jpg,AFSA19.jpg,FS,4,num_8,32,num_6,1.45002933159,,,2017_Apr_18_1135,60.0069480122,FEMA4ImagesEEG,001,200163,
AFNE01.JPG,AFNE01.JPG,AFNE01.JPG,AFNE01.JPG,AFNE01.JPG,AFNE01.JPG,,,,,,,,,,,,,,,,,3,2,32,0,,,,,,,AFSA02.jpg,AFSA18.jpg,AFNE18.jpg,AFNE02.jpg,AFSA18.jpg,FS,4,num_6,16,num_6,0.56677900019,,,2017_Apr_18_1135,60.0069480122,FEMA4ImagesEEG,001,200163,
AFNE01.JPG,AFNE01.JPG,AFNE01.JPG,AFNE01.JPG,AFNE01.JPG,AFNE01.JPG,,,,,,,,,,,,,,,,,3,3,33,8,,,,,,,AFNE15.jpg,AFNE07.jpg,AFSA07.jpg,AFSA15.jpg,AFNE07.jpg,FN,3,num_6,32,num_8,0.916757622923,,,2017_Apr_18_1135,60.0069480122,FEMA4ImagesEEG,001,200163,
AFNE01.JPG,AFNE01.JPG,AFNE01.JPG,AFNE01.JPG,AFNE01.JPG,AFNE01.JPG,,,,,,,,,,,,,,,,,3,4,34,4,,,,,,,AFSA01.jpg,AFNE05.jpg,AFNE20.jpg,AFSA16.jpg,AFNE05.jpg,FN,3,num_6,16,num_6,0.70014904745,,,2017_Apr_18_1135,60.0069480122,FEMA4ImagesEEG,001,200163,
AFNE01.JPG,AFNE01.JPG,AFNE01.JPG,AFNE01.JPG,AFNE01.JPG,AFNE01.JPG,,,,,,,,,,,,,,,,,3,5,35,5,,,,,,,AFNE04.jpg,AFSA20.jpg,AFSA15.jpg,AFNE05.jpg,AFNE04.jpg,FN,3,num_8,16,num_8,0.883487999075,,,2017_Apr_18_1135,60.0069480122,FEMA4ImagesEEG,001,200163,
AFNE01.JPG,AFNE01.JPG,AFNE01.JPG,AFNE01.JPG,AFNE01.JPG,AFNE01.JPG,,,,,,,,,,,,,,,,,3,6,36,7,,,,,,,AFNE18.jpg,AFSA04.jpg,AFSA05.jpg,AFNE11.jpg,AFNE11.jpg,FN,3,num_4,32,num_2,2.18335274341,,,2017_Apr_18_1135,60.0069480122,FEMA4ImagesEEG,001,200163,
AFNE01.JPG,AFNE01.JPG,AFNE01.JPG,AFNE01.JPG,AFNE01.JPG,AFNE01.JPG,,,,,,,,,,,,,,,,,3,7,37,1,,,,,,,AFNE09.jpg,AFSA08.jpg,AFSA09.jpg,AFNE18.jpg,AFSA08.jpg,FS,4,num_6,16,num_6,0.750142969438,,,2017_Apr_18_1135,60.0069480122,FEMA4ImagesEEG,001,200163,
AFNE01.JPG,AFNE01.JPG,AFNE01.JPG,AFNE01.JPG,AFNE01.JPG,AFNE01.JPG,,,,,,,,,,,,,,,,,3,8,38,9,,,,,,,AFSA11.jpg,AFNE20.jpg,AFNE18.jpg,AFSA01.jpg,AFSA11.jpg,FS,4,num_8,16,num_8,0.550290445273,,,2017_Apr_18_1135,60.0069480122,FEMA4ImagesEEG,001,200163,
AFNE01.JPG,AFNE01.JPG,AFNE01.JPG,AFNE01.JPG,AFNE01.JPG,AFNE01.JPG,,,,,,,,,,,,,,,,,3,9,39,2,,,,,,,AFSA20.jpg,AFNE01.jpg,AFSA01.jpg,AFNE16.jpg,AFNE01.jpg,FN,3,num_6,32,num_4,1.16657905144,,,2017_Apr_18_1135,60.0069480122,FEMA4ImagesEEG,001,200163,
AFNE01.JPG,AFNE01.JPG,AFNE01.JPG,AFNE01.JPG,AFNE01.JPG,AFNE01.JPG,,,,,,,,,,,,,,,,,4,0,40,2,,,,,,,AFSA16.jpg,AFNE09.jpg,AFNE11.jpg,AFSA09.jpg,AFNE11.jpg,FN,3,num_2,16,num_2,0.583525108581,,,2017_Apr_18_1135,60.0069480122,FEMA4ImagesEEG,001,200163,
AFNE01.JPG,AFNE01.JPG,AFNE01.JPG,AFNE01.JPG,AFNE01.JPG,AFNE01.JPG,,,,,,,,,,,,,,,,,4,1,41,3,,,,,,,AFNE16.jpg,AFNE03.jpg,AFSA10.jpg,AFSA04.jpg,AFNE16.jpg,FN,3,num_8,32,num_6,0.616782544341,,,2017_Apr_18_1135,60.0069480122,FEMA4ImagesEEG,001,200163,
AFNE01.JPG,AFNE01.JPG,AFNE01.JPG,AFNE01.JPG,AFNE01.JPG,AFNE01.JPG,,,,,,,,,,,,,,,,,4,2,42,0,,,,,,,AFNE14.jpg,AFSA09.jpg,AFNE13.jpg,AFSA17.jpg,AFNE14.jpg,FN,3,num_8,16,num_8,0.833554376019,,,2017_Apr_18_1135,60.0069480122,FEMA4ImagesEEG,001,200163,
AFNE01.JPG,AFNE01.JPG,AFNE01.JPG,AFNE01.JPG,AFNE01.JPG,AFNE01.JPG,,,,,,,,,,,,,,,,,4,3,43,7,,,,,,,AFNE18.jpg,AFSA08.jpg,AFSA16.jpg,AFNE04.jpg,AFSA08.jpg,FS,4,num_6,16,num_6,0.81673161099,,,2017_Apr_18_1135,60.0069480122,FEMA4ImagesEEG,001,200163,
AFNE01.JPG,AFNE01.JPG,AFNE01.JPG,AFNE01.JPG,AFNE01.JPG,AFNE01.JPG,,,,,,,,,,,,,,,,,4,4,44,4,,,,,,,AFNE06.jpg,AFSA03.jpg,AFNE09.jpg,AFSA04.jpg,AFNE06.jpg,FN,3,num_8,16,num_8,0.800293091379,,,2017_Apr_18_1135,60.0069480122,FEMA4ImagesEEG,001,200163,
AFNE01.JPG,AFNE01.JPG,AFNE01.JPG,AFNE01.JPG,AFNE01.JPG,AFNE01.JPG,,,,,,,,,,,,,,,,,4,5,45,8,,,,,,,AFNE01.jpg,AFSA10.jpg,AFNE13.jpg,AFSA14.jpg,AFSA14.jpg,FS,4,num_4,32,num_2,0.983467503844,,,2017_Apr_18_1135,60.0069480122,FEMA4ImagesEEG,001,200163,
AFNE01.JPG,AFNE01.JPG,AFNE01.JPG,AFNE01.JPG,AFNE01.JPG,AFNE01.JPG,,,,,,,,,,,,,,,,,4,6,46,9,,,,,,,AFSA18.jpg,AFNE05.jpg,AFNE16.jpg,AFSA17.jpg,AFNE16.jpg,FN,3,num_2,32,num_8,1.06682534699,,,2017_Apr_18_1135,60.0069480122,FEMA4ImagesEEG,001,200163,
AFNE01.JPG,AFNE01.JPG,AFNE01.JPG,AFNE01.JPG,AFNE01.JPG,AFNE01.JPG,,,,,,,,,,,,,,,,,4,7,47,1,,,,,,,AFSA17.jpg,AFNE11.jpg,AFNE12.jpg,AFSA02.jpg,AFSA17.jpg,FS,4,num_8,32,num_6,1.16672178033,,,2017_Apr_18_1135,60.0069480122,FEMA4ImagesEEG,001,200163,
AFNE01.JPG,AFNE01.JPG,AFNE01.JPG,AFNE01.JPG,AFNE01.JPG,AFNE01.JPG,,,,,,,,,,,,,,,,,4,8,48,6,,,,,,,AFNE05.jpg,AFNE11.jpg,AFSA20.jpg,AFSA11.jpg,AFNE05.jpg,FN,3,num_8,16,num_8,0.566814602222,,,2017_Apr_18_1135,60.0069480122,FEMA4ImagesEEG,001,200163,
AFNE01.JPG,AFNE01.JPG,AFNE01.JPG,AFNE01.JPG,AFNE01.JPG,AFNE01.JPG,,,,,,,,,,,,,,,,,4,9,49,5,,,,,,,AFSA05.jpg,AFNE04.jpg,AFSA20.jpg,AFNE15.jpg,AFNE15.jpg,FN,3,num_4,16,num_4,0.850110286134,,,2017_Apr_18_1135,60.0069480122,FEMA4ImagesEEG,001,200163,
AFNE01.JPG,AFNE01.JPG,AFNE01.JPG,AFNE01.JPG,AFNE01.JPG,AFNE01.JPG,,,,,,,,,,,,,,,,,5,0,50,1,,,,,,,AFNE20.jpg,AFNE19.jpg,AFSA18.jpg,AFSA10.jpg,AFNE19.jpg,FN,3,num_6,16,num_6,0.800204888132,,,2017_Apr_18_1135,60.0069480122,FEMA4ImagesEEG,001,200163,
AFNE01.JPG,AFNE01.JPG,AFNE01.JPG,AFNE01.JPG,AFNE01.JPG,AFNE01.JPG,,,,,,,,,,,,,,,,,5,1,51,0,,,,,,,AFNE07.jpg,AFNE15.jpg,AFSA20.jpg,AFSA12.jpg,AFNE07.jpg,FN,3,num_8,32,num_6,0.650158974327,,,2017_Apr_18_1135,60.0069480122,FEMA4ImagesEEG,001,200163,
AFNE01.JPG,AFNE01.JPG,AFNE01.JPG,AFNE01.JPG,AFNE01.JPG,AFNE01.JPG,,,,,,,,,,,,,,,,,5,2,52,4,,,,,,,AFNE06.jpg,AFSA02.jpg,AFNE13.jpg,AFSA13.jpg,AFNE13.jpg,FN,3,num_2,32,num_8,1.05016295149,,,2017_Apr_18_1135,60.0069480122,FEMA4ImagesEEG,001,200163,
AFNE01.JPG,AFNE01.JPG,AFNE01.JPG,AFNE01.JPG,AFNE01.JPG,AFNE01.JPG,,,,,,,,,,,,,,,,,5,3,53,5,,,,,,,AFNE16.jpg,AFSA02.jpg,AFSA17.jpg,AFNE11.jpg,AFNE11.jpg,FN,3,num_4,32,num_6,1.0667541429,,,2017_Apr_18_1135,60.0069480122,FEMA4ImagesEEG,001,200163,
AFNE01.JPG,AFNE01.JPG,AFNE01.JPG,AFNE01.JPG,AFNE01.JPG,AFNE01.JPG,,,,,,,,,,,,,,,,,5,4,54,8,,,,,,,AFNE18.jpg,AFSA19.jpg,AFSA08.jpg,AFNE10.jpg,AFSA08.jpg,FS,4,num_2,32,num_6,0.616818467126,,,2017_Apr_18_1135,60.0069480122,FEMA4ImagesEEG,001,200163,
AFNE01.JPG,AFNE01.JPG,AFNE01.JPG,AFNE01.JPG,AFNE01.JPG,AFNE01.JPG,,,,,,,,,,,,,,,,,5,5,55,3,,,,,,,AFNE09.jpg,AFSA16.jpg,AFNE07.jpg,AFSA08.jpg,AFSA16.jpg,FS,4,num_6,32,num_4,1.31673080914,,,2017_Apr_18_1135,60.0069480122,FEMA4ImagesEEG,001,200163,
AFNE01.JPG,AFNE01.JPG,AFNE01.JPG,AFNE01.JPG,AFNE01.JPG,AFNE01.JPG,,,,,,,,,,,,,,,,,5,6,56,7,,,,,,,AFNE19.jpg,AFNE15.jpg,AFSA10.jpg,AFSA02.jpg,AFSA02.jpg,FS,4,num_4,16,num_4,1.083383823,,,2017_Apr_18_1135,60.0069480122,FEMA4ImagesEEG,001,200163,
AFNE01.JPG,AFNE01.JPG,AFNE01.JPG,AFNE01.JPG,AFNE01.JPG,AFNE01.JPG,,,,,,,,,,,,,,,,,5,7,57,2,,,,,,,AFSA11.jpg,AFNE05.jpg,AFSA06.jpg,AFNE07.jpg,AFSA11.jpg,FS,4,num_8,16,num_8,1.06680674413,,,2017_Apr_18_1135,60.0069480122,FEMA4ImagesEEG,001,200163,
AFNE01.JPG,AFNE01.JPG,AFNE01.JPG,AFNE01.JPG,AFNE01.JPG,AFNE01.JPG,,,,,,,,,,,,,,,,,5,8,58,9,,,,,,,AFSA17.jpg,AFNE11.jpg,AFSA16.jpg,AFNE16.jpg,AFNE16.jpg,FN,3,num_4,16,num_4,1.03345148293,,,2017_Apr_18_1135,60.0069480122,FEMA4ImagesEEG,001,200163,
AFNE01.JPG,AFNE01.JPG,AFNE01.JPG,AFNE01.JPG,AFNE01.JPG,AFNE01.JPG,,,,,,,,,,,,,,,,,5,9,59,6,,,,,,,AFNE04.jpg,AFSA14.jpg,AFNE10.jpg,AFSA08.jpg,AFNE10.jpg,FN,3,num_2,16,num_2,1.23346052776,,,2017_Apr_18_1135,60.0069480122,FEMA4ImagesEEG,001,200163,
,,,,,,,,,,,,,,,,,,,,,,,,,,,,,,,,,,,,,,,,,,,space,25.4481635923,2017_Apr_18_1135,60.0069480122,FEMA4ImagesEEG,001,200163,
AFNE01.JPG,AFNE01.JPG,AFNE01.JPG,AFNE01.JPG,AFNE01.JPG,AFNE01.JPG,,,,,,,,,,,,,,,,,,,,,0,0,0,0,,,AMNE06.jpg,AMNE03.jpg,AMSA14.jpg,AMSA10.jpg,AMSA14.jpg,MS,2,num_2,16,num_2,0.550137773476,,,2017_Apr_18_1135,60.0069480122,FEMA4ImagesEEG,001,200163,
AFNE01.JPG,AFNE01.JPG,AFNE01.JPG,AFNE01.JPG,AFNE01.JPG,AFNE01.JPG,,,,,,,,,,,,,,,,,,,,,0,1,1,5,,,AMSA03.jpg,AMNE17.jpg,AMNE03.jpg,AMSA12.jpg,AMNE17.jpg,MN,1,num_6,16,num_6,0.600095131216,,,2017_Apr_18_1135,60.0069480122,FEMA4ImagesEEG,001,200163,
AFNE01.JPG,AFNE01.JPG,AFNE01.JPG,AFNE01.JPG,AFNE01.JPG,AFNE01.JPG,,,,,,,,,,,,,,,,,,,,,0,2,2,7,,,AMNE12.jpg,AMNE14.jpg,AMSA16.jpg,AMSA10.jpg,AMNE14.jpg,MN,1,num_6,16,num_6,0.483594676887,,,2017_Apr_18_1135,60.0069480122,FEMA4ImagesEEG,001,200163,
AFNE01.JPG,AFNE01.JPG,AFNE01.JPG,AFNE01.JPG,AFNE01.JPG,AFNE01.JPG,,,,,,,,,,,,,,,,,,,,,0,3,3,3,,,AMNE12.jpg,AMNE10.jpg,AMSA08.jpg,AMSA07.jpg,AMSA08.jpg,MS,2,num_2,16,num_2,1.00016293545,,,2017_Apr_18_1135,60.0069480122,FEMA4ImagesEEG,001,200163,
AFNE01.JPG,AFNE01.JPG,AFNE01.JPG,AFNE01.JPG,AFNE01.JPG,AFNE01.JPG,,,,,,,,,,,,,,,,,,,,,0,4,4,6,,,AMNE08.jpg,AMSA02.jpg,AMNE11.jpg,AMSA08.jpg,AMNE11.jpg,MN,1,num_2,32,num_4,1.01679453999,,,2017_Apr_18_1135,60.0069480122,FEMA4ImagesEEG,001,200163,
AFNE01.JPG,AFNE01.JPG,AFNE01.JPG,AFNE01.JPG,AFNE01.JPG,AFNE01.JPG,,,,,,,,,,,,,,,,,,,,,0,5,5,9,,,AMSA03.jpg,AMNE13.jpg,AMSA04.jpg,AMNE06.jpg,AMSA03.jpg,MS,2,num_8,16,num_8,0.866594350693,,,2017_Apr_18_1135,60.0069480122,FEMA4ImagesEEG,001,200163,
AFNE01.JPG,AFNE01.JPG,AFNE01.JPG,AFNE01.JPG,AFNE01.JPG,AFNE01.JPG,,,,,,,,,,,,,,,,,,,,,0,6,6,2,,,AMSA01.jpg,AMSA11.jpg,AMNE09.jpg,AMNE07.jpg,AMSA11.jpg,MS,2,num_6,16,num_6,0.883447585933,,,2017_Apr_18_1135,60.0069480122,FEMA4ImagesEEG,001,200163,
AFNE01.JPG,AFNE01.JPG,AFNE01.JPG,AFNE01.JPG,AFNE01.JPG,AFNE01.JPG,,,,,,,,,,,,,,,,,,,,,0,7,7,1,,,AMSA09.jpg,AMNE13.jpg,AMNE05.jpg,AMSA05.jpg,AMSA05.jpg,MS,2,num_4,16,num_4,0.683582232203,,,2017_Apr_18_1135,60.0069480122,FEMA4ImagesEEG,001,200163,
AFNE01.JPG,AFNE01.JPG,AFNE01.JPG,AFNE01.JPG,AFNE01.JPG,AFNE01.JPG,,,,,,,,,,,,,,,,,,,,,0,8,8,8,,,AMSA08.jpg,AMSA10.jpg,AMNE05.jpg,AMNE03.jpg,AMSA08.jpg,MS,2,num_8,16,num_8,1.41671801165,,,2017_Apr_18_1135,60.0069480122,FEMA4ImagesEEG,001,200163,
AFNE01.JPG,AFNE01.JPG,AFNE01.JPG,AFNE01.JPG,AFNE01.JPG,AFNE01.JPG,,,,,,,,,,,,,,,,,,,,,0,9,9,4,,,AMSA09.jpg,AMNE15.jpg,AMSA19.jpg,AMNE05.jpg,AMSA19.jpg,MS,2,num_2,16,num_2,0.500154756606,,,2017_Apr_18_1135,60.0069480122,FEMA4ImagesEEG,001,200163,
AFNE01.JPG,AFNE01.JPG,AFNE01.JPG,AFNE01.JPG,AFNE01.JPG,AFNE01.JPG,,,,,,,,,,,,,,,,,,,,,1,0,10,2,,,AMNE03.jpg,AMNE02.jpg,AMSA05.jpg,AMSA01.jpg,AMNE03.jpg,MN,1,num_8,32,num_6,0.750107046682,,,2017_Apr_18_1135,60.0069480122,FEMA4ImagesEEG,001,200163,
AFNE01.JPG,AFNE01.JPG,AFNE01.JPG,AFNE01.JPG,AFNE01.JPG,AFNE01.JPG,,,,,,,,,,,,,,,,,,,,,1,1,11,5,,,AMSA12.jpg,AMNE14.jpg,AMNE01.jpg,AMSA17.jpg,AMNE01.jpg,MN,1,num_2,16,num_2,0.616786713959,,,2017_Apr_18_1135,60.0069480122,FEMA4ImagesEEG,001,200163,
AFNE01.JPG,AFNE01.JPG,AFNE01.JPG,AFNE01.JPG,AFNE01.JPG,AFNE01.JPG,,,,,,,,,,,,,,,,,,,,,1,2,12,8,,,AMSA13.jpg,AMNE07.jpg,AMNE06.jpg,AMSA06.jpg,AMNE07.jpg,MN,1,num_6,32,num_8,0.916772056182,,,2017_Apr_18_1135,60.0069480122,FEMA4ImagesEEG,001,200163,
AFNE01.JPG,AFNE01.JPG,AFNE01.JPG,AFNE01.JPG,AFNE01.JPG,AFNE01.JPG,,,,,,,,,,,,,,,,,,,,,1,3,13,6,,,AMNE08.jpg,AMSA19.jpg,AMNE12.jpg,AMSA15.jpg,AMSA19.jpg,MS,2,num_6,16,num_6,1.0167534854,,,2017_Apr_18_1135,60.0069480122,FEMA4ImagesEEG,001,200163,
AFNE01.JPG,AFNE01.JPG,AFNE01.JPG,AFNE01.JPG,AFNE01.JPG,AFNE01.JPG,,,,,,,,,,,,,,,,,,,,,1,4,14,3,,,AMSA20.jpg,AMNE15.jpg,AMNE06.jpg,AMSA11.jpg,AMSA11.jpg,MS,2,num_4,32,num_8,0.833448852864,,,2017_Apr_18_1135,60.0069480122,FEMA4ImagesEEG,001,200163,
AFNE01.JPG,AFNE01.JPG,AFNE01.JPG,AFNE01.JPG,AFNE01.JPG,AFNE01.JPG,,,,,,,,,,,,,,,,,,,,,1,5,15,9,,,AMSA14.jpg,AMNE11.jpg,AMSA09.jpg,AMNE10.jpg,AMNE11.jpg,MN,1,num_6,32,num_8,1.13346209939,,,2017_Apr_18_1135,60.0069480122,FEMA4ImagesEEG,001,200163,
AFNE01.JPG,AFNE01.JPG,AFNE01.JPG,AFNE01.JPG,AFNE01.JPG,AFNE01.JPG,,,,,,,,,,,,,,,,,,,,,1,6,16,4,,,AMSA15.jpg,AMSA03.jpg,AMNE13.jpg,AMNE16.jpg,AMSA03.jpg,MS,2,num_6,16,num_6,0.833582921798,,,2017_Apr_18_1135,60.0069480122,FEMA4ImagesEEG,001,200163,
AFNE01.JPG,AFNE01.JPG,AFNE01.JPG,AFNE01.JPG,AFNE01.JPG,AFNE01.JPG,,,,,,,,,,,,,,,,,,,,,1,7,17,7,,,AMNE02.jpg,AMNE12.jpg,AMSA05.jpg,AMSA20.jpg,AMSA20.jpg,MS,2,num_4,32,num_6,0.983439599528,,,2017_Apr_18_1135,60.0069480122,FEMA4ImagesEEG,001,200163,
AFNE01.JPG,AFNE01.JPG,AFNE01.JPG,AFNE01.JPG,AFNE01.JPG,AFNE01.JPG,,,,,,,,,,,,,,,,,,,,,1,8,18,0,,,AMNE13.jpg,AMNE05.jpg,AMSA18.jpg,AMSA01.jpg,AMSA01.jpg,MS,2,num_4,16,num_4,0.783470967814,,,2017_Apr_18_1135,60.0069480122,FEMA4ImagesEEG,001,200163,
AFNE01.JPG,AFNE01.JPG,AFNE01.JPG,AFNE01.JPG,AFNE01.JPG,AFNE01.JPG,,,,,,,,,,,,,,,,,,,,,1,9,19,1,,,AMNE13.jpg,AMSA09.jpg,AMSA17.jpg,AMNE01.jpg,AMNE01.jpg,MN,1,num_4,16,num_4,0.616803392404,,,2017_Apr_18_1135,60.0069480122,FEMA4ImagesEEG,001,200163,
AFNE01.JPG,AFNE01.JPG,AFNE01.JPG,AFNE01.JPG,AFNE01.JPG,AFNE01.JPG,,,,,,,,,,,,,,,,,,,,,2,0,20,1,,,AMNE14.jpg,AMSA18.jpg,AMNE10.jpg,AMSA01.jpg,AMNE14.jpg,MN,1,num_8,16,num_8,0.633471561188,,,2017_Apr_18_1135,60.0069480122,FEMA4ImagesEEG,001,200163,
AFNE01.JPG,AFNE01.JPG,AFNE01.JPG,AFNE01.JPG,AFNE01.JPG,AFNE01.JPG,,,,,,,,,,,,,,,,,,,,,2,1,21,5,,,AMNE04.jpg,AMNE07.jpg,AMSA11.jpg,AMSA12.jpg,AMSA11.jpg,MS,2,num_2,16,num_2,0.983475522313,,,2017_Apr_18_1135,60.0069480122,FEMA4ImagesEEG,001,200163,
AFNE01.JPG,AFNE01.JPG,AFNE01.JPG,AFNE01.JPG,AFNE01.JPG,AFNE01.JPG,,,,,,,,,,,,,,,,,,,,,2,2,22,8,,,AMNE09.jpg,AMNE12.jpg,AMSA03.jpg,AMSA04.jpg,AMSA03.jpg,MS,2,num_2,16,num_2,0.900097793347,,,2017_Apr_18_1135,60.0069480122,FEMA4ImagesEEG,001,200163,
AFNE01.JPG,AFNE01.JPG,AFNE01.JPG,AFNE01.JPG,AFNE01.JPG,AFNE01.JPG,,,,,,,,,,,,,,,,,,,,,2,3,23,6,,,AMSA08.jpg,AMNE11.jpg,AMNE09.jpg,AMSA05.jpg,AMNE11.jpg,MN,1,num_6,32,num_8,0.91651386123,,,2017_Apr_18_1135,60.0069480122,FEMA4ImagesEEG,001,200163,
AFNE01.JPG,AFNE01.JPG,AFNE01.JPG,AFNE01.JPG,AFNE01.JPG,AFNE01.JPG,,,,,,,,,,,,,,,,,,,,,2,4,24,7,,,AMNE03.jpg,AMNE02.jpg,AMSA01.jpg,AMSA07.jpg,AMSA01.jpg,MS,2,num_2,16,num_2,0.683553686424,,,2017_Apr_18_1135,60.0069480122,FEMA4ImagesEEG,001,200163,
AFNE01.JPG,AFNE01.JPG,AFNE01.JPG,AFNE01.JPG,AFNE01.JPG,AFNE01.JPG,,,,,,,,,,,,,,,,,,,,,2,5,25,3,,,AMNE20.jpg,AMNE18.jpg,AMSA13.jpg,AMSA11.jpg,AMNE18.jpg,MN,1,num_6,32,num_2,1.96668354823,,,2017_Apr_18_1135,60.0069480122,FEMA4ImagesEEG,001,200163,
AFNE01.JPG,AFNE01.JPG,AFNE01.JPG,AFNE01.JPG,AFNE01.JPG,AFNE01.JPG,,,,,,,,,,,,,,,,,,,,,2,6,26,4,,,AMNE12.jpg,AMNE05.jpg,AMSA10.jpg,AMSA03.jpg,AMSA10.jpg,MS,2,num_2,32,num_6,1.08370103397,,,2017_Apr_18_1135,60.0069480122,FEMA4ImagesEEG,001,200163,
AFNE01.JPG,AFNE01.JPG,AFNE01.JPG,AFNE01.JPG,AFNE01.JPG,AFNE01.JPG,,,,,,,,,,,,,,,,,,,,,2,7,27,2,,,AMSA18.jpg,AMNE12.jpg,AMSA08.jpg,AMNE17.jpg,AMSA08.jpg,MS,2,num_2,16,num_2,0.883462339945,,,2017_Apr_18_1135,60.0069480122,FEMA4ImagesEEG,001,200163,
AFNE01.JPG,AFNE01.JPG,AFNE01.JPG,AFNE01.JPG,AFNE01.JPG,AFNE01.JPG,,,,,,,,,,,,,,,,,,,,,2,8,28,9,,,AMNE19.jpg,AMNE08.jpg,AMSA07.jpg,AMSA11.jpg,AMNE08.jpg,MN,1,num_6,32,num_8,1.16673108177,,,2017_Apr_18_1135,60.0069480122,FEMA4ImagesEEG,001,200163,
AFNE01.JPG,AFNE01.JPG,AFNE01.JPG,AFNE01.JPG,AFNE01.JPG,AFNE01.JPG,,,,,,,,,,,,,,,,,,,,,2,9,29,0,,,AMNE17.jpg,AMNE04.jpg,AMSA01.jpg,AMSA02.jpg,AMSA02.jpg,MS,2,num_4,16,num_4,0.949778673996,,,2017_Apr_18_1135,60.0069480122,FEMA4ImagesEEG,001,200163,
AFNE01.JPG,AFNE01.JPG,AFNE01.JPG,AFNE01.JPG,AFNE01.JPG,AFNE01.JPG,,,,,,,,,,,,,,,,,,,,,3,0,30,7,,,AMSA13.jpg,AMNE09.jpg,AMNE10.jpg,AMSA06.jpg,AMNE09.jpg,MN,1,num_6,16,num_6,0.750029107076,,,2017_Apr_18_1135,60.0069480122,FEMA4ImagesEEG,001,200163,
AFNE01.JPG,AFNE01.JPG,AFNE01.JPG,AFNE01.JPG,AFNE01.JPG,AFNE01.JPG,,,,,,,,,,,,,,,,,,,,,3,1,31,6,,,AMNE19.jpg,AMSA12.jpg,AMSA14.jpg,AMNE14.jpg,AMSA12.jpg,MS,2,num_6,16,num_6,1.36675103173,,,2017_Apr_18_1135,60.0069480122,FEMA4ImagesEEG,001,200163,
AFNE01.JPG,AFNE01.JPG,AFNE01.JPG,AFNE01.JPG,AFNE01.JPG,AFNE01.JPG,,,,,,,,,,,,,,,,,,,,,3,2,32,8,,,AMSA03.jpg,AMNE14.jpg,AMSA16.jpg,AMNE06.jpg,AMNE06.jpg,MN,1,num_4,16,num_4,0.750188193648,,,2017_Apr_18_1135,60.0069480122,FEMA4ImagesEEG,001,200163,
AFNE01.JPG,AFNE01.JPG,AFNE01.JPG,AFNE01.JPG,AFNE01.JPG,AFNE01.JPG,,,,,,,,,,,,,,,,,,,,,3,3,33,9,,,AMSA14.jpg,AMNE03.jpg,AMNE13.jpg,AMSA19.jpg,AMNE13.jpg,MN,1,num_2,16,num_2,0.833775044521,,,2017_Apr_18_1135,60.0069480122,FEMA4ImagesEEG,001,200163,
AFNE01.JPG,AFNE01.JPG,AFNE01.JPG,AFNE01.JPG,AFNE01.JPG,AFNE01.JPG,,,,,,,,,,,,,,,,,,,,,3,4,34,4,,,AMSA17.jpg,AMNE04.jpg,AMSA15.jpg,AMNE16.jpg,AMNE16.jpg,MN,1,num_4,16,num_4,0.883166297761,,,2017_Apr_18_1135,60.0069480122,FEMA4ImagesEEG,001,200163,
AFNE01.JPG,AFNE01.JPG,AFNE01.JPG,AFNE01.JPG,AFNE01.JPG,AFNE01.JPG,,,,,,,,,,,,,,,,,,,,,3,5,35,3,,,AMSA07.jpg,AMNE12.jpg,AMSA19.jpg,AMNE17.jpg,AMSA19.jpg,MS,2,num_2,16,num_2,0.550162791129,,,2017_Apr_18_1135,60.0069480122,FEMA4ImagesEEG,001,200163,
AFNE01.JPG,AFNE01.JPG,AFNE01.JPG,AFNE01.JPG,AFNE01.JPG,AFNE01.JPG,,,,,,,,,,,,,,,,,,,,,3,6,36,5,,,AMSA17.jpg,AMSA13.jpg,AMNE04.jpg,AMNE15.jpg,AMSA17.jpg,MS,2,num_8,32,num_4,0.883423209772,,,2017_Apr_18_1135,60.0069480122,FEMA4ImagesEEG,001,200163,
AFNE01.JPG,AFNE01.JPG,AFNE01.JPG,AFNE01.JPG,AFNE01.JPG,AFNE01.JPG,,,,,,,,,,,,,,,,,,,,,3,7,37,2,,,AMSA06.jpg,AMSA09.jpg,AMNE03.jpg,AMNE09.jpg,AMSA09.jpg,MS,2,num_6,32,num_4,0.866758248376,,,2017_Apr_18_1135,60.0069480122,FEMA4ImagesEEG,001,200163,
AFNE01.JPG,AFNE01.JPG,AFNE01.JPG,AFNE01.JPG,AFNE01.JPG,AFNE01.JPG,,,,,,,,,,,,,,,,,,,,,3,8,38,0,,,AMSA05.jpg,AMNE10.jpg,AMSA12.jpg,AMNE02.jpg,AMSA12.jpg,MS,2,num_2,16,num_2,0.88343796377,,,2017_Apr_18_1135,60.0069480122,FEMA4ImagesEEG,001,200163,
