IPosition2,IPosition3,IPosition1,IPosition6,IPosition4,IPosition5,TrialsM1.thisRepN,TrialsM1.thisTrialN,TrialsM1.thisN,TrialsM1.thisIndex,TrialsF1.thisRepN,TrialsF1.thisTrialN,TrialsF1.thisN,TrialsF1.thisIndex,TrialsM2.thisRepN,TrialsM2.thisTrialN,TrialsM2.thisN,TrialsM2.thisIndex,TrialsF2.thisRepN,TrialsF2.thisTrialN,TrialsF2.thisN,TrialsF2.thisIndex,TrialsM3.thisRepN,TrialsM3.thisTrialN,TrialsM3.thisN,TrialsM3.thisIndex,TrialsF3.thisRepN,TrialsF3.thisTrialN,TrialsF3.thisN,TrialsF3.thisIndex,InstrKey_resp.keys,InstrKey_resp.rt,Image0 _Position,Image1 _Position,Image2 _Position,Image3 _Position,Center_image,condition,code,correct_answer,accuracy,Key_Resp.keys,Key_Resp.rt,BreakKey_resp.keys,BreakKey_resp.rt,date,frameRate,expName,session,participant,
,,,,,,,,,,,,,,,,,,,,,,,,,,,,,,space,83.7272608016,,,,,,,,,,,,,,2017_Apr_20_1828,60.006139569,MAFE4ImagesEEG,001,200136,
AFSA25.JPG,AFNE24.JPG,AFSA24.JPG,AFNE21.JPG,AFSA21.JPG,AFNE25.JPG,0,0,0,2,,,,,,,,,,,,,,,,,,,,,,,AMSA11.jpg,AMNE18.jpg,AMSA09.jpg,AMNE11.jpg,AMSA09.jpg,MS,2,num_2,32,num_4,1.83350979327,,,2017_Apr_20_1828,60.006139569,MAFE4ImagesEEG,001,200136,
AFNE23.JPG,AFNE24.JPG,AFNE22.JPG,AFSA24.JPG,AFSA22.JPG,AFSA23.JPG,0,1,1,8,,,,,,,,,,,,,,,,,,,,,,,AMNE05.jpg,AMSA10.jpg,AMNE18.jpg,AMSA04.jpg,AMSA04.jpg,MS,2,num_4,48,None,,,,2017_Apr_20_1828,60.006139569,MAFE4ImagesEEG,001,200136,
AFSA21.JPG,AFNE23.JPG,AFNE21.JPG,AFSA25.JPG,AFNE25.JPG,AFSA23.JPG,0,2,2,4,,,,,,,,,,,,,,,,,,,,,,,AMNE16.jpg,AMNE19.jpg,AMSA13.jpg,AMSA03.jpg,AMNE19.jpg,MN,1,num_6,32,num_4,1.50011723011,,,2017_Apr_20_1828,60.006139569,MAFE4ImagesEEG,001,200136,
AMSA25.JPG,AMNE24.JPG,AMSA24.JPG,AMNE26.JPG,AMSA21.JPG,AMNE25.JPG,0,3,3,3,,,,,,,,,,,,,,,,,,,,,,,AMNE06.jpg,AMNE13.jpg,AMSA10.jpg,AMSA01.jpg,AMNE13.jpg,MN,1,num_6,32,num_8,0.950111601152,,,2017_Apr_20_1828,60.006139569,MAFE4ImagesEEG,001,200136,
AFSA21.JPG,AFNE22.JPG,AFNE21.JPG,AFSA23.JPG,AFSA22.JPG,AFNE23.JPG,0,4,4,0,,,,,,,,,,,,,,,,,,,,,,,AMSA17.jpg,AMNE20.jpg,AMNE13.jpg,AMSA19.jpg,AMNE13.jpg,MN,1,num_2,32,num_8,1.46678025107,,,2017_Apr_20_1828,60.006139569,MAFE4ImagesEEG,001,200136,
AMNE23.JPG,AMNE24.JPG,AMNE22.JPG,AMSA24.JPG,AMSA22.JPG,AMSA23.JPG,0,5,5,9,,,,,,,,,,,,,,,,,,,,,,,AMSA05.jpg,AMSA02.jpg,AMNE14.jpg,AMNE12.jpg,AMSA05.jpg,MS,2,num_8,32,num_6,1.40007742646,,,2017_Apr_20_1828,60.006139569,MAFE4ImagesEEG,001,200136,
AMSA21.JPG,AMNE22.JPG,AMNE21.JPG,AMSA23.JPG,AMSA22.JPG,AMNE23.JPG,0,6,6,1,,,,,,,,,,,,,,,,,,,,,,,AMNE10.jpg,AMSA09.jpg,AMNE04.jpg,AMSA14.jpg,AMSA09.jpg,MS,2,num_6,32,num_8,1.48324507126,,,2017_Apr_20_1828,60.006139569,MAFE4ImagesEEG,001,200136,
AMNE22.JPG,AMSA24.JPG,AMSA22.JPG,AMNE25.JPG,AMNE24.JPG,AMSA25.JPG,0,7,7,7,,,,,,,,,,,,,,,,,,,,,,,AMSA12.jpg,AMNE03.jpg,AMSA14.jpg,AMNE08.jpg,AMNE03.jpg,MN,1,num_6,16,num_6,1.40008159599,,,2017_Apr_20_1828,60.006139569,MAFE4ImagesEEG,001,200136,
AFNE22.JPG,AFSA24.JPG,AFSA22.JPG,AFNE25.JPG,AFNE24.JPG,AFSA25.JPG,0,8,8,6,,,,,,,,,,,,,,,,,,,,,,,AMNE08.jpg,AMNE06.jpg,AMSA18.jpg,AMSA19.jpg,AMNE08.jpg,MN,1,num_8,16,num_8,1.06677338725,,,2017_Apr_20_1828,60.006139569,MAFE4ImagesEEG,001,200136,
AMSA21.JPG,AMNE23.JPG,AMNE21.JPG,AMSA25.JPG,AMNE25.JPG,AMSA23.JPG,0,9,9,5,,,,,,,,,,,,,,,,,,,,,,,AMNE13.jpg,AMSA10.jpg,AMNE03.jpg,AMSA04.jpg,AMSA10.jpg,MS,2,num_6,16,num_6,1.1167653848,,,2017_Apr_20_1828,60.006139569,MAFE4ImagesEEG,001,200136,
AMSA25.JPG,AMNE24.JPG,AMSA24.JPG,AMNE26.JPG,AMSA21.JPG,AMNE25.JPG,,,,,0,0,0,3,,,,,,,,,,,,,,,,,,,AFSA01.jpg,AFSA04.jpg,AFNE12.jpg,AFNE03.jpg,AFNE12.jpg,FN,3,num_2,16,num_2,1.20008185261,,,2017_Apr_20_1828,60.006139569,MAFE4ImagesEEG,001,200136,
AFSA21.JPG,AFNE23.JPG,AFNE21.JPG,AFSA25.JPG,AFNE25.JPG,AFSA23.JPG,,,,,0,1,1,4,,,,,,,,,,,,,,,,,,,AFNE03.jpg,AFSA08.jpg,AFNE05.jpg,AFSA12.jpg,AFSA12.jpg,FS,4,num_4,16,num_4,0.666765240487,,,2017_Apr_20_1828,60.006139569,MAFE4ImagesEEG,001,200136,
AFNE22.JPG,AFSA24.JPG,AFSA22.JPG,AFNE25.JPG,AFNE24.JPG,AFSA25.JPG,,,,,0,2,2,6,,,,,,,,,,,,,,,,,,,AFNE12.jpg,AFSA18.jpg,AFSA04.jpg,AFNE07.jpg,AFNE07.jpg,FN,3,num_4,16,num_4,0.900162582693,,,2017_Apr_20_1828,60.006139569,MAFE4ImagesEEG,001,200136,
AMNE22.JPG,AMSA24.JPG,AMSA22.JPG,AMNE25.JPG,AMNE24.JPG,AMSA25.JPG,,,,,0,3,3,7,,,,,,,,,,,,,,,,,,,AFSA15.jpg,AFNE12.jpg,AFNE14.jpg,AFSA19.jpg,AFNE14.jpg,FN,3,num_2,32,num_8,1.05011067103,,,2017_Apr_20_1828,60.006139569,MAFE4ImagesEEG,001,200136,
AMSA21.JPG,AMNE23.JPG,AMNE21.JPG,AMSA25.JPG,AMNE25.JPG,AMSA23.JPG,,,,,0,4,4,5,,,,,,,,,,,,,,,,,,,AFSA11.jpg,AFSA12.jpg,AFNE13.jpg,AFNE15.jpg,AFNE13.jpg,FN,3,num_2,32,num_6,0.933479675907,,,2017_Apr_20_1828,60.006139569,MAFE4ImagesEEG,001,200136,
AFSA21.JPG,AFNE22.JPG,AFNE21.JPG,AFSA23.JPG,AFSA22.JPG,AFNE23.JPG,,,,,0,5,5,0,,,,,,,,,,,,,,,,,,,AFSA02.jpg,AFSA09.jpg,AFNE13.jpg,AFNE16.jpg,AFSA02.jpg,FS,4,num_8,32,num_2,1.633609479,,,2017_Apr_20_1828,60.006139569,MAFE4ImagesEEG,001,200136,
AFNE23.JPG,AFNE24.JPG,AFNE22.JPG,AFSA24.JPG,AFSA22.JPG,AFSA23.JPG,,,,,0,6,6,8,,,,,,,,,,,,,,,,,,,AFNE07.jpg,AFNE12.jpg,AFSA11.jpg,AFSA09.jpg,AFSA09.jpg,FS,4,num_4,32,num_6,0.816792872152,,,2017_Apr_20_1828,60.006139569,MAFE4ImagesEEG,001,200136,
AMSA21.JPG,AMNE22.JPG,AMNE21.JPG,AMSA23.JPG,AMSA22.JPG,AMNE23.JPG,,,,,0,7,7,1,,,,,,,,,,,,,,,,,,,AFNE10.jpg,AFSA04.jpg,AFNE12.jpg,AFSA12.jpg,AFNE12.jpg,FN,3,num_2,16,num_2,1.36670484528,,,2017_Apr_20_1828,60.006139569,MAFE4ImagesEEG,001,200136,
AFSA25.JPG,AFNE24.JPG,AFSA24.JPG,AFNE21.JPG,AFSA21.JPG,AFNE25.JPG,,,,,0,8,8,2,,,,,,,,,,,,,,,,,,,AFSA11.jpg,AFNE09.jpg,AFNE03.jpg,AFSA18.jpg,AFSA18.jpg,FS,4,num_4,16,num_4,0.933459790074,,,2017_Apr_20_1828,60.006139569,MAFE4ImagesEEG,001,200136,
AMNE23.JPG,AMNE24.JPG,AMNE22.JPG,AMSA24.JPG,AMSA22.JPG,AMSA23.JPG,,,,,0,9,9,9,,,,,,,,,,,,,,,,,,,AFNE12.jpg,AFSA12.jpg,AFNE20.jpg,AFSA13.jpg,AFSA13.jpg,FS,4,num_4,16,num_4,0.566769057303,,,2017_Apr_20_1828,60.006139569,MAFE4ImagesEEG,001,200136,
AMNE23.JPG,AMNE24.JPG,AMNE22.JPG,AMSA24.JPG,AMSA22.JPG,AMSA23.JPG,,,,,,,,,0,0,0,9,,,,,,,,,,,,,,,AMSA10.jpg,AMNE17.jpg,AMSA16.jpg,AMNE12.jpg,AMSA16.jpg,MS,2,num_2,32,num_6,0.999995509628,,,2017_Apr_20_1828,60.006139569,MAFE4ImagesEEG,001,200136,
AFNE22.JPG,AFSA24.JPG,AFSA22.JPG,AFNE25.JPG,AFNE24.JPG,AFSA25.JPG,,,,,,,,,0,1,1,6,,,,,,,,,,,,,,,AMNE04.jpg,AMNE06.jpg,AMSA17.jpg,AMSA13.jpg,AMSA17.jpg,MS,2,num_2,16,num_2,1.25018931623,,,2017_Apr_20_1828,60.006139569,MAFE4ImagesEEG,001,200136,
AMNE22.JPG,AMSA24.JPG,AMSA22.JPG,AMNE25.JPG,AMNE24.JPG,AMSA25.JPG,,,,,,,,,0,2,2,7,,,,,,,,,,,,,,,AMSA04.jpg,AMNE06.jpg,AMSA17.jpg,AMNE20.jpg,AMNE06.jpg,MN,1,num_6,16,num_6,0.816774590057,,,2017_Apr_20_1828,60.006139569,MAFE4ImagesEEG,001,200136,
AFSA21.JPG,AFNE22.JPG,AFNE21.JPG,AFSA23.JPG,AFSA22.JPG,AFNE23.JPG,,,,,,,,,0,3,3,0,,,,,,,,,,,,,,,AMNE09.jpg,AMNE10.jpg,AMSA12.jpg,AMSA17.jpg,AMNE10.jpg,MN,1,num_6,16,num_6,1.03349414119,,,2017_Apr_20_1828,60.006139569,MAFE4ImagesEEG,001,200136,
AFSA25.JPG,AFNE24.JPG,AFSA24.JPG,AFNE21.JPG,AFSA21.JPG,AFNE25.JPG,,,,,,,,,0,4,4,2,,,,,,,,,,,,,,,AMSA15.jpg,AMNE03.jpg,AMNE12.jpg,AMSA03.jpg,AMNE12.jpg,MN,1,num_2,16,num_2,1.3667154297,,,2017_Apr_20_1828,60.006139569,MAFE4ImagesEEG,001,200136,
AMSA21.JPG,AMNE22.JPG,AMNE21.JPG,AMSA23.JPG,AMSA22.JPG,AMNE23.JPG,,,,,,,,,0,5,5,1,,,,,,,,,,,,,,,AMSA06.jpg,AMNE18.jpg,AMSA12.jpg,AMNE15.jpg,AMNE18.jpg,MN,1,num_6,16,num_6,1.10011325299,,,2017_Apr_20_1828,60.006139569,MAFE4ImagesEEG,001,200136,
AFSA21.JPG,AFNE23.JPG,AFNE21.JPG,AFSA25.JPG,AFNE25.JPG,AFSA23.JPG,,,,,,,,,0,6,6,4,,,,,,,,,,,,,,,AMNE14.jpg,AMSA19.jpg,AMNE20.jpg,AMSA06.jpg,AMSA06.jpg,MS,2,num_4,32,num_8,0.900177336647,,,2017_Apr_20_1828,60.006139569,MAFE4ImagesEEG,001,200136,
AFNE23.JPG,AFNE24.JPG,AFNE22.JPG,AFSA24.JPG,AFSA22.JPG,AFSA23.JPG,,,,,,,,,0,7,7,8,,,,,,,,,,,,,,,AMSA12.jpg,AMNE07.jpg,AMNE03.jpg,AMSA15.jpg,AMSA15.jpg,MS,2,num_4,16,num_4,0.883481584315,,,2017_Apr_20_1828,60.006139569,MAFE4ImagesEEG,001,200136,
AMSA25.JPG,AMNE24.JPG,AMSA24.JPG,AMNE26.JPG,AMSA21.JPG,AMNE25.JPG,,,,,,,,,0,8,8,3,,,,,,,,,,,,,,,AMNE16.jpg,AMSA05.jpg,AMSA12.jpg,AMNE15.jpg,AMSA12.jpg,MS,2,num_2,16,num_2,1.30011107196,,,2017_Apr_20_1828,60.006139569,MAFE4ImagesEEG,001,200136,
AMSA21.JPG,AMNE23.JPG,AMNE21.JPG,AMSA25.JPG,AMNE25.JPG,AMSA23.JPG,,,,,,,,,0,9,9,5,,,,,,,,,,,,,,,AMSA12.jpg,AMNE09.jpg,AMNE05.jpg,AMSA08.jpg,AMNE09.jpg,MN,1,num_6,32,num_8,0.883437963785,,,2017_Apr_20_1828,60.006139569,MAFE4ImagesEEG,001,200136,
AMNE22.JPG,AMSA24.JPG,AMSA22.JPG,AMNE25.JPG,AMNE24.JPG,AMSA25.JPG,,,,,,,,,,,,,0,0,0,7,,,,,,,,,,,AFNE11.jpg,AFSA14.jpg,AFNE20.jpg,AFSA01.jpg,AFSA01.jpg,FS,4,num_4,16,num_4,1.05008372891,,,2017_Apr_20_1828,60.006139569,MAFE4ImagesEEG,001,200136,
AMNE23.JPG,AMNE24.JPG,AMNE22.JPG,AMSA24.JPG,AMSA22.JPG,AMSA23.JPG,,,,,,,,,,,,,0,1,1,9,,,,,,,,,,,AFNE01.jpg,AFSA05.jpg,AFNE03.jpg,AFSA20.jpg,AFNE01.jpg,FN,3,num_8,16,num_8,0.91677911242,,,2017_Apr_20_1828,60.006139569,MAFE4ImagesEEG,001,200136,
AFSA21.JPG,AFNE23.JPG,AFNE21.JPG,AFSA25.JPG,AFNE25.JPG,AFSA23.JPG,,,,,,,,,,,,,0,2,2,4,,,,,,,,,,,AFSA15.jpg,AFNE19.jpg,AFSA13.jpg,AFNE04.jpg,AFNE19.jpg,FN,3,num_6,32,num_8,1.10010812117,,,2017_Apr_20_1828,60.006139569,MAFE4ImagesEEG,001,200136,
AMSA21.JPG,AMNE22.JPG,AMNE21.JPG,AMSA23.JPG,AMSA22.JPG,AMNE23.JPG,,,,,,,,,,,,,0,3,3,1,,,,,,,,,,,AFNE14.jpg,AFSA03.jpg,AFSA12.jpg,AFNE05.jpg,AFSA03.jpg,FS,4,num_6,32,num_8,0.800103534537,,,2017_Apr_20_1828,60.006139569,MAFE4ImagesEEG,001,200136,
AFNE22.JPG,AFSA24.JPG,AFSA22.JPG,AFNE25.JPG,AFNE24.JPG,AFSA25.JPG,,,,,,,,,,,,,0,4,4,6,,,,,,,,,,,AFSA06.jpg,AFNE14.jpg,AFSA02.jpg,AFNE08.jpg,AFNE08.jpg,FN,3,num_4,32,num_8,0.80011411896,,,2017_Apr_20_1828,60.006139569,MAFE4ImagesEEG,001,200136,
AMSA21.JPG,AMNE23.JPG,AMNE21.JPG,AMSA25.JPG,AMNE25.JPG,AMSA23.JPG,,,,,,,,,,,,,0,5,5,5,,,,,,,,,,,AFNE03.jpg,AFSA19.jpg,AFSA13.jpg,AFNE16.jpg,AFSA13.jpg,FS,4,num_2,16,num_2,1.36673659843,,,2017_Apr_20_1828,60.006139569,MAFE4ImagesEEG,001,200136,
AFSA25.JPG,AFNE24.JPG,AFSA24.JPG,AFNE21.JPG,AFSA21.JPG,AFNE25.JPG,,,,,,,,,,,,,0,6,6,2,,,,,,,,,,,AFSA17.jpg,AFNE06.jpg,AFNE07.jpg,AFSA04.jpg,AFNE07.jpg,FN,3,num_2,32,num_8,0.866790001572,,,2017_Apr_20_1828,60.006139569,MAFE4ImagesEEG,001,200136,
AFNE23.JPG,AFNE24.JPG,AFNE22.JPG,AFSA24.JPG,AFSA22.JPG,AFSA23.JPG,,,,,,,,,,,,,0,7,7,8,,,,,,,,,,,AFSA17.jpg,AFNE16.jpg,AFSA13.jpg,AFNE11.jpg,AFNE11.jpg,FN,3,num_4,16,num_4,0.950356325076,,,2017_Apr_20_1828,60.006139569,MAFE4ImagesEEG,001,200136,
AFSA21.JPG,AFNE22.JPG,AFNE21.JPG,AFSA23.JPG,AFSA22.JPG,AFNE23.JPG,,,,,,,,,,,,,0,8,8,0,,,,,,,,,,,AFNE07.jpg,AFSA04.jpg,AFSA10.jpg,AFNE10.jpg,AFSA04.jpg,FS,4,num_6,32,num_8,0.916442015674,,,2017_Apr_20_1828,60.006139569,MAFE4ImagesEEG,001,200136,
AMSA25.JPG,AMNE24.JPG,AMSA24.JPG,AMNE26.JPG,AMSA21.JPG,AMNE25.JPG,,,,,,,,,,,,,0,9,9,3,,,,,,,,,,,AFNE10.jpg,AFSA12.jpg,AFSA19.jpg,AFNE12.jpg,AFSA12.jpg,FS,4,num_6,16,num_6,0.566790867539,,,2017_Apr_20_1828,60.006139569,MAFE4ImagesEEG,001,200136,
AMSA21.JPG,AMNE23.JPG,AMNE21.JPG,AMSA25.JPG,AMNE25.JPG,AMSA23.JPG,,,,,,,,,,,,,,,,,0,0,0,5,,,,,,,AMSA15.jpg,AMSA01.jpg,AMNE06.jpg,AMNE02.jpg,AMSA01.jpg,MS,2,num_6,32,num_8,0.733466461475,,,2017_Apr_20_1828,60.006139569,MAFE4ImagesEEG,001,200136,
AFSA21.JPG,AFNE22.JPG,AFNE21.JPG,AFSA23.JPG,AFSA22.JPG,AFNE23.JPG,,,,,,,,,,,,,,,,,0,1,1,0,,,,,,,AMNE15.jpg,AMSA19.jpg,AMSA16.jpg,AMNE05.jpg,AMSA19.jpg,MS,2,num_6,32,num_8,0.750159006391,,,2017_Apr_20_1828,60.006139569,MAFE4ImagesEEG,001,200136,
AMSA25.JPG,AMNE24.JPG,AMSA24.JPG,AMNE26.JPG,AMSA21.JPG,AMNE25.JPG,,,,,,,,,,,,,,,,,0,2,2,3,,,,,,,AMSA14.jpg,AMNE17.jpg,AMNE19.jpg,AMSA13.jpg,AMSA14.jpg,MS,2,num_8,16,num_8,0.750139120617,,,2017_Apr_20_1828,60.006139569,MAFE4ImagesEEG,001,200136,
AMSA21.JPG,AMNE22.JPG,AMNE21.JPG,AMSA23.JPG,AMSA22.JPG,AMNE23.JPG,,,,,,,,,,,,,,,,,0,3,3,1,,,,,,,AMSA14.jpg,AMNE01.jpg,AMNE13.jpg,AMSA04.jpg,AMSA04.jpg,MS,2,num_4,16,num_4,0.750143931655,,,2017_Apr_20_1828,60.006139569,MAFE4ImagesEEG,001,200136,
AFSA21.JPG,AFNE23.JPG,AFNE21.JPG,AFSA25.JPG,AFNE25.JPG,AFSA23.JPG,,,,,,,,,,,,,,,,,0,4,4,4,,,,,,,AMNE15.jpg,AMSA06.jpg,AMSA01.jpg,AMNE04.jpg,AMNE15.jpg,MN,1,num_8,32,num_6,1.18340502382,,,2017_Apr_20_1828,60.006139569,MAFE4ImagesEEG,001,200136,
AFSA25.JPG,AFNE24.JPG,AFSA24.JPG,AFNE21.JPG,AFSA21.JPG,AFNE25.JPG,,,,,,,,,,,,,,,,,0,5,5,2,,,,,,,AMNE17.jpg,AMNE18.jpg,AMSA16.jpg,AMSA01.jpg,AMSA01.jpg,MS,2,num_4,16,num_4,0.533185429813,,,2017_Apr_20_1828,60.006139569,MAFE4ImagesEEG,001,200136,
AMNE22.JPG,AMSA24.JPG,AMSA22.JPG,AMNE25.JPG,AMNE24.JPG,AMSA25.JPG,,,,,,,,,,,,,,,,,0,6,6,7,,,,,,,AMSA06.jpg,AMSA13.jpg,AMNE11.jpg,AMNE04.jpg,AMSA06.jpg,MS,2,num_8,16,num_8,0.500156681053,,,2017_Apr_20_1828,60.006139569,MAFE4ImagesEEG,001,200136,
AMNE23.JPG,AMNE24.JPG,AMNE22.JPG,AMSA24.JPG,AMSA22.JPG,AMSA23.JPG,,,,,,,,,,,,,,,,,0,7,7,9,,,,,,,AMSA10.jpg,AMNE17.jpg,AMSA09.jpg,AMNE10.jpg,AMNE17.jpg,MN,1,num_6,16,num_6,1.06676216144,,,2017_Apr_20_1828,60.006139569,MAFE4ImagesEEG,001,200136,
AFNE23.JPG,AFNE24.JPG,AFNE22.JPG,AFSA24.JPG,AFSA22.JPG,AFSA23.JPG,,,,,,,,,,,,,,,,,0,8,8,8,,,,,,,AMNE12.jpg,AMNE20.jpg,AMSA01.jpg,AMSA10.jpg,AMNE20.jpg,MN,1,num_6,32,num_2,1.76669727586,,,2017_Apr_20_1828,60.006139569,MAFE4ImagesEEG,001,200136,
AFNE22.JPG,AFSA24.JPG,AFSA22.JPG,AFNE25.JPG,AFNE24.JPG,AFSA25.JPG,,,,,,,,,,,,,,,,,0,9,9,6,,,,,,,AMSA16.jpg,AMNE01.jpg,AMNE20.jpg,AMSA05.jpg,AMSA05.jpg,MS,2,num_4,16,num_4,0.466796287976,,,2017_Apr_20_1828,60.006139569,MAFE4ImagesEEG,001,200136,
AMNE22.JPG,AMSA24.JPG,AMSA22.JPG,AMNE25.JPG,AMNE24.JPG,AMSA25.JPG,,,,,,,,,,,,,,,,,,,,,0,0,0,7,,,AFSA20.jpg,AFNE04.jpg,AFSA08.jpg,AFNE16.jpg,AFSA20.jpg,FS,4,num_8,16,num_8,1.5501255854,,,2017_Apr_20_1828,60.006139569,MAFE4ImagesEEG,001,200136,
AFSA25.JPG,AFNE24.JPG,AFSA24.JPG,AFNE21.JPG,AFSA21.JPG,AFNE25.JPG,,,,,,,,,,,,,,,,,,,,,0,1,1,2,,,AFNE18.jpg,AFSA04.jpg,AFSA10.jpg,AFNE12.jpg,AFSA10.jpg,FS,4,num_2,32,num_8,0.933468770701,,,2017_Apr_20_1828,60.006139569,MAFE4ImagesEEG,001,200136,
AMSA21.JPG,AMNE23.JPG,AMNE21.JPG,AMSA25.JPG,AMNE25.JPG,AMSA23.JPG,,,,,,,,,,,,,,,,,,,,,0,2,2,5,,,AFSA17.jpg,AFNE08.jpg,AFSA19.jpg,AFNE10.jpg,AFSA17.jpg,FS,4,num_8,16,num_8,0.950168051233,,,2017_Apr_20_1828,60.006139569,MAFE4ImagesEEG,001,200136,
AMSA25.JPG,AMNE24.JPG,AMSA24.JPG,AMNE26.JPG,AMSA21.JPG,AMNE25.JPG,,,,,,,,,,,,,,,,,,,,,0,3,3,3,,,AFNE05.jpg,AFSA19.jpg,AFNE01.jpg,AFSA03.jpg,AFSA03.jpg,FS,4,num_4,32,num_8,1.06676793471,,,2017_Apr_20_1828,60.006139569,MAFE4ImagesEEG,001,200136,
AFSA21.JPG,AFNE23.JPG,AFNE21.JPG,AFSA25.JPG,AFNE25.JPG,AFSA23.JPG,,,,,,,,,,,,,,,,,,,,,0,4,4,4,,,AFNE15.jpg,AFSA10.jpg,AFNE08.jpg,AFSA20.jpg,AFSA20.jpg,FS,4,num_4,16,num_4,0.583497525018,,,2017_Apr_20_1828,60.006139569,MAFE4ImagesEEG,001,200136,
AMSA21.JPG,AMNE22.JPG,AMNE21.JPG,AMSA23.JPG,AMSA22.JPG,AMNE23.JPG,,,,,,,,,,,,,,,,,,,,,0,5,5,1,,,AFSA06.jpg,AFSA15.jpg,AFNE07.jpg,AFNE05.jpg,AFSA15.jpg,FS,4,num_6,32,num_2,2.01667618728,,,2017_Apr_20_1828,60.006139569,MAFE4ImagesEEG,001,200136,
AFNE22.JPG,AFSA24.JPG,AFSA22.JPG,AFNE25.JPG,AFNE24.JPG,AFSA25.JPG,,,,,,,,,,,,,,,,,,,,,0,6,6,6,,,AFSA17.jpg,AFNE15.jpg,AFSA19.jpg,AFNE04.jpg,AFNE04.jpg,FN,3,num_4,16,num_4,0.550174658478,,,2017_Apr_20_1828,60.006139569,MAFE4ImagesEEG,001,200136,
AFSA21.JPG,AFNE22.JPG,AFNE21.JPG,AFSA23.JPG,AFSA22.JPG,AFNE23.JPG,,,,,,,,,,,,,,,,,,,,,0,7,7,0,,,AFNE18.jpg,AFSA11.jpg,AFSA19.jpg,AFNE13.jpg,AFSA19.jpg,FS,4,num_2,16,num_2,1.06679680123,,,2017_Apr_20_1828,60.006139569,MAFE4ImagesEEG,001,200136,
AMNE23.JPG,AMNE24.JPG,AMNE22.JPG,AMSA24.JPG,AMSA22.JPG,AMSA23.JPG,,,,,,,,,,,,,,,,,,,,,0,8,8,9,,,AFSA04.jpg,AFSA15.jpg,AFNE11.jpg,AFNE12.jpg,AFNE12.jpg,FN,3,num_4,32,num_8,1.16681768134,,,2017_Apr_20_1828,60.006139569,MAFE4ImagesEEG,001,200136,
AFNE23.JPG,AFNE24.JPG,AFNE22.JPG,AFSA24.JPG,AFSA22.JPG,AFSA23.JPG,,,,,,,,,,,,,,,,,,,,,0,9,9,8,,,AFSA13.jpg,AFSA06.jpg,AFNE19.jpg,AFNE09.jpg,AFSA06.jpg,FS,4,num_6,16,num_6,0.850156793313,,,2017_Apr_20_1828,60.006139569,MAFE4ImagesEEG,001,200136,
,,,,,,,,,,,,,,,,,,,,,,,,,,,,,,,,,,,,,,,,,,,space,1.76690607704,2017_Apr_20_1828,60.006139569,MAFE4ImagesEEG,001,200136,
AFNE01.JPG,AFNE01.JPG,AFNE01.JPG,AFNE01.JPG,AFNE01.JPG,AFNE01.JPG,0,0,0,7,,,,,,,,,,,,,,,,,,,,,,,AMSA04.jpg,AMSA03.jpg,AMNE17.jpg,AMNE13.jpg,AMNE13.jpg,MN,1,num_4,16,num_4,1.00009012769,,,2017_Apr_20_1828,60.006139569,MAFE4ImagesEEG,001,200136,
AFNE01.JPG,AFNE01.JPG,AFNE01.JPG,AFNE01.JPG,AFNE01.JPG,AFNE01.JPG,0,1,1,9,,,,,,,,,,,,,,,,,,,,,,,AMSA19.jpg,AMNE02.jpg,AMSA08.jpg,AMNE11.jpg,AMSA08.jpg,MS,2,num_2,32,num_6,1.05016904551,,,2017_Apr_20_1828,60.006139569,MAFE4ImagesEEG,001,200136,
AFNE01.JPG,AFNE01.JPG,AFNE01.JPG,AFNE01.JPG,AFNE01.JPG,AFNE01.JPG,0,2,2,5,,,,,,,,,,,,,,,,,,,,,,,AMSA19.jpg,AMNE18.jpg,AMSA06.jpg,AMNE16.jpg,AMSA19.jpg,MS,2,num_8,32,num_4,1.10009978194,,,2017_Apr_20_1828,60.006139569,MAFE4ImagesEEG,001,200136,
AFNE01.JPG,AFNE01.JPG,AFNE01.JPG,AFNE01.JPG,AFNE01.JPG,AFNE01.JPG,0,3,3,3,,,,,,,,,,,,,,,,,,,,,,,AMNE13.jpg,AMSA13.jpg,AMNE16.jpg,AMSA03.jpg,AMNE13.jpg,MN,1,num_8,16,num_8,0.683483123838,,,2017_Apr_20_1828,60.006139569,MAFE4ImagesEEG,001,200136,
AFNE01.JPG,AFNE01.JPG,AFNE01.JPG,AFNE01.JPG,AFNE01.JPG,AFNE01.JPG,0,4,4,1,,,,,,,,,,,,,,,,,,,,,,,AMNE08.jpg,AMNE20.jpg,AMSA12.jpg,AMSA14.jpg,AMSA14.jpg,MS,2,num_4,16,num_4,1.18343741848,,,2017_Apr_20_1828,60.006139569,MAFE4ImagesEEG,001,200136,
AFNE01.JPG,AFNE01.JPG,AFNE01.JPG,AFNE01.JPG,AFNE01.JPG,AFNE01.JPG,0,5,5,8,,,,,,,,,,,,,,,,,,,,,,,AMNE12.jpg,AMSA06.jpg,AMNE10.jpg,AMSA02.jpg,AMNE10.jpg,MN,1,num_2,16,num_2,1.00015106809,,,2017_Apr_20_1828,60.006139569,MAFE4ImagesEEG,001,200136,
AFNE01.JPG,AFNE01.JPG,AFNE01.JPG,AFNE01.JPG,AFNE01.JPG,AFNE01.JPG,0,6,6,2,,,,,,,,,,,,,,,,,,,,,,,AMNE07.jpg,AMSA04.jpg,AMSA03.jpg,AMNE12.jpg,AMSA04.jpg,MS,2,num_6,16,num_6,0.750125970284,,,2017_Apr_20_1828,60.006139569,MAFE4ImagesEEG,001,200136,
AFNE01.JPG,AFNE01.JPG,AFNE01.JPG,AFNE01.JPG,AFNE01.JPG,AFNE01.JPG,0,7,7,4,,,,,,,,,,,,,,,,,,,,,,,AMNE15.jpg,AMSA17.jpg,AMSA13.jpg,AMNE16.jpg,AMNE16.jpg,MN,1,num_4,16,num_4,0.900117679208,,,2017_Apr_20_1828,60.006139569,MAFE4ImagesEEG,001,200136,
AFNE01.JPG,AFNE01.JPG,AFNE01.JPG,AFNE01.JPG,AFNE01.JPG,AFNE01.JPG,0,8,8,0,,,,,,,,,,,,,,,,,,,,,,,AMSA10.jpg,AMNE05.jpg,AMNE08.jpg,AMSA12.jpg,AMNE08.jpg,MN,1,num_2,16,num_2,0.983473918634,,,2017_Apr_20_1828,60.006139569,MAFE4ImagesEEG,001,200136,
AFNE01.JPG,AFNE01.JPG,AFNE01.JPG,AFNE01.JPG,AFNE01.JPG,AFNE01.JPG,0,9,9,6,,,,,,,,,,,,,,,,,,,,,,,AMSA13.jpg,AMNE14.jpg,AMNE07.jpg,AMSA20.jpg,AMNE14.jpg,MN,1,num_6,32,num_2,1.61671326472,,,2017_Apr_20_1828,60.006139569,MAFE4ImagesEEG,001,200136,
AFNE01.JPG,AFNE01.JPG,AFNE01.JPG,AFNE01.JPG,AFNE01.JPG,AFNE01.JPG,1,0,10,9,,,,,,,,,,,,,,,,,,,,,,,AMNE13.jpg,AMSA13.jpg,AMNE07.jpg,AMSA15.jpg,AMSA13.jpg,MS,2,num_6,32,num_4,0.966725244303,,,2017_Apr_20_1828,60.006139569,MAFE4ImagesEEG,001,200136,
AFNE01.JPG,AFNE01.JPG,AFNE01.JPG,AFNE01.JPG,AFNE01.JPG,AFNE01.JPG,1,1,11,3,,,,,,,,,,,,,,,,,,,,,,,AMSA11.jpg,AMNE15.jpg,AMSA20.jpg,AMNE19.jpg,AMNE15.jpg,MN,1,num_6,32,num_4,0.916606234096,,,2017_Apr_20_1828,60.006139569,MAFE4ImagesEEG,001,200136,
AFNE01.JPG,AFNE01.JPG,AFNE01.JPG,AFNE01.JPG,AFNE01.JPG,AFNE01.JPG,1,2,12,4,,,,,,,,,,,,,,,,,,,,,,,AMNE11.jpg,AMSA19.jpg,AMNE13.jpg,AMSA08.jpg,AMNE13.jpg,MN,1,num_2,16,num_2,0.833438909962,,,2017_Apr_20_1828,60.006139569,MAFE4ImagesEEG,001,200136,
AFNE01.JPG,AFNE01.JPG,AFNE01.JPG,AFNE01.JPG,AFNE01.JPG,AFNE01.JPG,1,3,13,0,,,,,,,,,,,,,,,,,,,,,,,AMSA05.jpg,AMSA16.jpg,AMNE13.jpg,AMNE14.jpg,AMSA16.jpg,MS,2,num_6,16,num_6,0.88345881179,,,2017_Apr_20_1828,60.006139569,MAFE4ImagesEEG,001,200136,
AFNE01.JPG,AFNE01.JPG,AFNE01.JPG,AFNE01.JPG,AFNE01.JPG,AFNE01.JPG,1,4,14,2,,,,,,,,,,,,,,,,,,,,,,,AMNE03.jpg,AMNE15.jpg,AMSA19.jpg,AMSA15.jpg,AMNE03.jpg,MN,1,num_8,16,num_8,1.01676791866,,,2017_Apr_20_1828,60.006139569,MAFE4ImagesEEG,001,200136,
AFNE01.JPG,AFNE01.JPG,AFNE01.JPG,AFNE01.JPG,AFNE01.JPG,AFNE01.JPG,1,5,15,8,,,,,,,,,,,,,,,,,,,,,,,AMNE18.jpg,AMSA09.jpg,AMSA14.jpg,AMNE10.jpg,AMNE10.jpg,MN,1,num_4,32,num_8,1.08346689446,,,2017_Apr_20_1828,60.006139569,MAFE4ImagesEEG,001,200136,
AFNE01.JPG,AFNE01.JPG,AFNE01.JPG,AFNE01.JPG,AFNE01.JPG,AFNE01.JPG,1,6,16,1,,,,,,,,,,,,,,,,,,,,,,,AMSA15.jpg,AMSA08.jpg,AMNE05.jpg,AMNE09.jpg,AMSA15.jpg,MS,2,num_8,16,num_8,1.03349831083,,,2017_Apr_20_1828,60.006139569,MAFE4ImagesEEG,001,200136,
AFNE01.JPG,AFNE01.JPG,AFNE01.JPG,AFNE01.JPG,AFNE01.JPG,AFNE01.JPG,1,7,17,6,,,,,,,,,,,,,,,,,,,,,,,AMSA10.jpg,AMSA06.jpg,AMNE03.jpg,AMNE17.jpg,AMNE17.jpg,MN,1,num_4,32,num_2,2.18333125382,,,2017_Apr_20_1828,60.006139569,MAFE4ImagesEEG,001,200136,
AFNE01.JPG,AFNE01.JPG,AFNE01.JPG,AFNE01.JPG,AFNE01.JPG,AFNE01.JPG,1,8,18,5,,,,,,,,,,,,,,,,,,,,,,,AMNE11.jpg,AMSA18.jpg,AMNE17.jpg,AMSA10.jpg,AMSA18.jpg,MS,2,num_6,16,num_6,0.516752362833,,,2017_Apr_20_1828,60.006139569,MAFE4ImagesEEG,001,200136,
AFNE01.JPG,AFNE01.JPG,AFNE01.JPG,AFNE01.JPG,AFNE01.JPG,AFNE01.JPG,1,9,19,7,,,,,,,,,,,,,,,,,,,,,,,AMNE19.jpg,AMSA09.jpg,AMSA20.jpg,AMNE12.jpg,AMSA20.jpg,MS,2,num_2,16,num_2,0.950116732973,,,2017_Apr_20_1828,60.006139569,MAFE4ImagesEEG,001,200136,
AFNE01.JPG,AFNE01.JPG,AFNE01.JPG,AFNE01.JPG,AFNE01.JPG,AFNE01.JPG,2,0,20,4,,,,,,,,,,,,,,,,,,,,,,,AMSA11.jpg,AMNE04.jpg,AMSA06.jpg,AMNE18.jpg,AMSA06.jpg,MS,2,num_2,32,num_8,0.883433473413,,,2017_Apr_20_1828,60.006139569,MAFE4ImagesEEG,001,200136,
AFNE01.JPG,AFNE01.JPG,AFNE01.JPG,AFNE01.JPG,AFNE01.JPG,AFNE01.JPG,2,1,21,2,,,,,,,,,,,,,,,,,,,,,,,AMSA17.jpg,AMSA11.jpg,AMNE12.jpg,AMNE07.jpg,AMNE12.jpg,MN,1,num_2,32,num_4,0.833454946929,,,2017_Apr_20_1828,60.006139569,MAFE4ImagesEEG,001,200136,
AFNE01.JPG,AFNE01.JPG,AFNE01.JPG,AFNE01.JPG,AFNE01.JPG,AFNE01.JPG,2,2,22,1,,,,,,,,,,,,,,,,,,,,,,,AMSA15.jpg,AMNE07.jpg,AMSA05.jpg,AMNE06.jpg,AMSA15.jpg,MS,2,num_8,32,num_6,0.983415223367,,,2017_Apr_20_1828,60.006139569,MAFE4ImagesEEG,001,200136,
AFNE01.JPG,AFNE01.JPG,AFNE01.JPG,AFNE01.JPG,AFNE01.JPG,AFNE01.JPG,2,3,23,8,,,,,,,,,,,,,,,,,,,,,,,AMSA11.jpg,AMNE13.jpg,AMSA06.jpg,AMNE04.jpg,AMNE04.jpg,MN,1,num_4,32,num_6,1.23339060665,,,2017_Apr_20_1828,60.006139569,MAFE4ImagesEEG,001,200136,
AFNE01.JPG,AFNE01.JPG,AFNE01.JPG,AFNE01.JPG,AFNE01.JPG,AFNE01.JPG,2,4,24,7,,,,,,,,,,,,,,,,,,,,,,,AMNE19.jpg,AMSA18.jpg,AMNE01.jpg,AMSA05.jpg,AMNE19.jpg,MN,1,num_8,32,num_4,0.933452733792,,,2017_Apr_20_1828,60.006139569,MAFE4ImagesEEG,001,200136,
AFNE01.JPG,AFNE01.JPG,AFNE01.JPG,AFNE01.JPG,AFNE01.JPG,AFNE01.JPG,2,5,25,9,,,,,,,,,,,,,,,,,,,,,,,AMSA18.jpg,AMSA14.jpg,AMNE06.jpg,AMNE13.jpg,AMNE06.jpg,MN,1,num_2,32,num_4,0.916873730486,,,2017_Apr_20_1828,60.006139569,MAFE4ImagesEEG,001,200136,
AFNE01.JPG,AFNE01.JPG,AFNE01.JPG,AFNE01.JPG,AFNE01.JPG,AFNE01.JPG,2,6,26,0,,,,,,,,,,,,,,,,,,,,,,,AMSA04.jpg,AMNE19.jpg,AMSA03.jpg,AMNE10.jpg,AMNE19.jpg,MN,1,num_6,16,num_6,0.716819461435,,,2017_Apr_20_1828,60.006139569,MAFE4ImagesEEG,001,200136,
AFNE01.JPG,AFNE01.JPG,AFNE01.JPG,AFNE01.JPG,AFNE01.JPG,AFNE01.JPG,2,7,27,6,,,,,,,,,,,,,,,,,,,,,,,AMNE15.jpg,AMSA02.jpg,AMNE10.jpg,AMSA19.jpg,AMSA19.jpg,MS,2,num_4,16,num_4,0.750210324652,,,2017_Apr_20_1828,60.006139569,MAFE4ImagesEEG,001,200136,
AFNE01.JPG,AFNE01.JPG,AFNE01.JPG,AFNE01.JPG,AFNE01.JPG,AFNE01.JPG,2,8,28,5,,,,,,,,,,,,,,,,,,,,,,,AMSA13.jpg,AMSA20.jpg,AMNE10.jpg,AMNE17.jpg,AMSA20.jpg,MS,2,num_6,16,num_6,0.466854341794,,,2017_Apr_20_1828,60.006139569,MAFE4ImagesEEG,001,200136,
AFNE01.JPG,AFNE01.JPG,AFNE01.JPG,AFNE01.JPG,AFNE01.JPG,AFNE01.JPG,2,9,29,3,,,,,,,,,,,,,,,,,,,,,,,AMNE10.jpg,AMSA15.jpg,AMNE11.jpg,AMSA20.jpg,AMNE11.jpg,MN,1,num_2,32,num_8,0.899805920781,,,2017_Apr_20_1828,60.006139569,MAFE4ImagesEEG,001,200136,
AFNE01.JPG,AFNE01.JPG,AFNE01.JPG,AFNE01.JPG,AFNE01.JPG,AFNE01.JPG,3,0,30,9,,,,,,,,,,,,,,,,,,,,,,,AMNE09.jpg,AMNE13.jpg,AMSA10.jpg,AMSA17.jpg,AMNE09.jpg,MN,1,num_8,16,num_8,0.483532774204,,,2017_Apr_20_1828,60.006139569,MAFE4ImagesEEG,001,200136,
AFNE01.JPG,AFNE01.JPG,AFNE01.JPG,AFNE01.JPG,AFNE01.JPG,AFNE01.JPG,3,1,31,2,,,,,,,,,,,,,,,,,,,,,,,AMSA05.jpg,AMNE15.jpg,AMSA04.jpg,AMNE20.jpg,AMSA04.jpg,MS,2,num_2,16,num_2,1.25010111299,,,2017_Apr_20_1828,60.006139569,MAFE4ImagesEEG,001,200136,
AFNE01.JPG,AFNE01.JPG,AFNE01.JPG,AFNE01.JPG,AFNE01.JPG,AFNE01.JPG,3,2,32,8,,,,,,,,,,,,,,,,,,,,,,,AMNE14.jpg,AMNE06.jpg,AMSA02.jpg,AMSA06.jpg,AMSA02.jpg,MS,2,num_2,16,num_2,0.800079799898,,,2017_Apr_20_1828,60.006139569,MAFE4ImagesEEG,001,200136,
AFNE01.JPG,AFNE01.JPG,AFNE01.JPG,AFNE01.JPG,AFNE01.JPG,AFNE01.JPG,3,3,33,7,,,,,,,,,,,,,,,,,,,,,,,AMNE17.jpg,AMNE02.jpg,AMSA02.jpg,AMSA07.jpg,AMNE17.jpg,MN,1,num_8,32,num_4,0.783510418725,,,2017_Apr_20_1828,60.006139569,MAFE4ImagesEEG,001,200136,
AFNE01.JPG,AFNE01.JPG,AFNE01.JPG,AFNE01.JPG,AFNE01.JPG,AFNE01.JPG,3,4,34,0,,,,,,,,,,,,,,,,,,,,,,,AMSA12.jpg,AMSA04.jpg,AMNE18.jpg,AMNE11.jpg,AMSA12.jpg,MS,2,num_8,16,num_8,0.683664341457,,,2017_Apr_20_1828,60.006139569,MAFE4ImagesEEG,001,200136,
AFNE01.JPG,AFNE01.JPG,AFNE01.JPG,AFNE01.JPG,AFNE01.JPG,AFNE01.JPG,3,5,35,6,,,,,,,,,,,,,,,,,,,,,,,AMSA11.jpg,AMSA04.jpg,AMNE07.jpg,AMNE19.jpg,AMNE07.jpg,MN,1,num_2,16,num_2,1.03341235273,,,2017_Apr_20_1828,60.006139569,MAFE4ImagesEEG,001,200136,
AFNE01.JPG,AFNE01.JPG,AFNE01.JPG,AFNE01.JPG,AFNE01.JPG,AFNE01.JPG,3,6,36,5,,,,,,,,,,,,,,,,,,,,,,,AMNE20.jpg,AMNE05.jpg,AMSA12.jpg,AMSA06.jpg,AMSA06.jpg,MS,2,num_4,16,num_4,0.800133363286,,,2017_Apr_20_1828,60.006139569,MAFE4ImagesEEG,001,200136,
AFNE01.JPG,AFNE01.JPG,AFNE01.JPG,AFNE01.JPG,AFNE01.JPG,AFNE01.JPG,3,7,37,1,,,,,,,,,,,,,,,,,,,,,,,AMSA18.jpg,AMNE02.jpg,AMNE01.jpg,AMSA06.jpg,AMSA18.jpg,MS,2,num_8,16,num_8,0.95023187832,,,2017_Apr_20_1828,60.006139569,MAFE4ImagesEEG,001,200136,
AFNE01.JPG,AFNE01.JPG,AFNE01.JPG,AFNE01.JPG,AFNE01.JPG,AFNE01.JPG,3,8,38,3,,,,,,,,,,,,,,,,,,,,,,,AMSA01.jpg,AMSA16.jpg,AMNE14.jpg,AMNE10.jpg,AMSA01.jpg,MS,2,num_8,16,num_8,0.933471978118,,,2017_Apr_20_1828,60.006139569,MAFE4ImagesEEG,001,200136,
AFNE01.JPG,AFNE01.JPG,AFNE01.JPG,AFNE01.JPG,AFNE01.JPG,AFNE01.JPG,3,9,39,4,,,,,,,,,,,,,,,,,,,,,,,AMSA07.jpg,AMSA15.jpg,AMNE18.jpg,AMNE07.jpg,AMSA07.jpg,MS,2,num_8,32,num_6,1.06674612447,,,2017_Apr_20_1828,60.006139569,MAFE4ImagesEEG,001,200136,
AFNE01.JPG,AFNE01.JPG,AFNE01.JPG,AFNE01.JPG,AFNE01.JPG,AFNE01.JPG,4,0,40,9,,,,,,,,,,,,,,,,,,,,,,,AMNE05.jpg,AMSA06.jpg,AMSA16.jpg,AMNE11.jpg,AMNE05.jpg,MN,1,num_8,32,num_6,0.866772040143,,,2017_Apr_20_1828,60.006139569,MAFE4ImagesEEG,001,200136,
AFNE01.JPG,AFNE01.JPG,AFNE01.JPG,AFNE01.JPG,AFNE01.JPG,AFNE01.JPG,4,1,41,3,,,,,,,,,,,,,,,,,,,,,,,AMSA20.jpg,AMNE04.jpg,AMNE18.jpg,AMSA16.jpg,AMNE18.jpg,MN,1,num_2,16,num_2,1.31676288304,,,2017_Apr_20_1828,60.006139569,MAFE4ImagesEEG,001,200136,
AFNE01.JPG,AFNE01.JPG,AFNE01.JPG,AFNE01.JPG,AFNE01.JPG,AFNE01.JPG,4,2,42,8,,,,,,,,,,,,,,,,,,,,,,,AMNE07.jpg,AMSA16.jpg,AMNE05.jpg,AMSA14.jpg,AMSA14.jpg,MS,2,num_4,16,num_4,0.850074684073,,,2017_Apr_20_1828,60.006139569,MAFE4ImagesEEG,001,200136,
AFNE01.JPG,AFNE01.JPG,AFNE01.JPG,AFNE01.JPG,AFNE01.JPG,AFNE01.JPG,4,3,43,0,,,,,,,,,,,,,,,,,,,,,,,AMNE09.jpg,AMSA11.jpg,AMNE11.jpg,AMSA09.jpg,AMNE11.jpg,MN,1,num_2,32,num_8,0.800139457337,,,2017_Apr_20_1828,60.006139569,MAFE4ImagesEEG,001,200136,
AFNE01.JPG,AFNE01.JPG,AFNE01.JPG,AFNE01.JPG,AFNE01.JPG,AFNE01.JPG,4,4,44,6,,,,,,,,,,,,,,,,,,,,,,,AMSA02.jpg,AMNE04.jpg,AMNE02.jpg,AMSA03.jpg,AMSA03.jpg,MS,2,num_4,16,num_4,1.03346495394,,,2017_Apr_20_1828,60.006139569,MAFE4ImagesEEG,001,200136,
AFNE01.JPG,AFNE01.JPG,AFNE01.JPG,AFNE01.JPG,AFNE01.JPG,AFNE01.JPG,4,5,45,5,,,,,,,,,,,,,,,,,,,,,,,AMSA13.jpg,AMSA18.jpg,AMNE09.jpg,AMNE04.jpg,AMSA18.jpg,MS,2,num_6,32,num_4,1.08343546197,,,2017_Apr_20_1828,60.006139569,MAFE4ImagesEEG,001,200136,
AFNE01.JPG,AFNE01.JPG,AFNE01.JPG,AFNE01.JPG,AFNE01.JPG,AFNE01.JPG,4,6,46,1,,,,,,,,,,,,,,,,,,,,,,,AMNE06.jpg,AMSA18.jpg,AMNE15.jpg,AMSA07.jpg,AMNE15.jpg,MN,1,num_2,16,num_2,1.13339763082,,,2017_Apr_20_1828,60.006139569,MAFE4ImagesEEG,001,200136,
AFNE01.JPG,AFNE01.JPG,AFNE01.JPG,AFNE01.JPG,AFNE01.JPG,AFNE01.JPG,4,7,47,4,,,,,,,,,,,,,,,,,,,,,,,AMSA05.jpg,AMNE14.jpg,AMNE01.jpg,AMSA02.jpg,AMSA05.jpg,MS,2,num_8,16,num_8,0.900124093925,,,2017_Apr_20_1828,60.006139569,MAFE4ImagesEEG,001,200136,
AFNE01.JPG,AFNE01.JPG,AFNE01.JPG,AFNE01.JPG,AFNE01.JPG,AFNE01.JPG,4,8,48,2,,,,,,,,,,,,,,,,,,,,,,,AMNE01.jpg,AMSA10.jpg,AMNE06.jpg,AMSA12.jpg,AMSA10.jpg,MS,2,num_6,16,num_6,0.700002790429,,,2017_Apr_20_1828,60.006139569,MAFE4ImagesEEG,001,200136,
AFNE01.JPG,AFNE01.JPG,AFNE01.JPG,AFNE01.JPG,AFNE01.JPG,AFNE01.JPG,4,9,49,7,,,,,,,,,,,,,,,,,,,,,,,AMNE08.jpg,AMSA16.jpg,AMNE09.jpg,AMSA13.jpg,AMNE09.jpg,MN,1,num_2,32,num_8,3.08311889257,,,2017_Apr_20_1828,60.006139569,MAFE4ImagesEEG,001,200136,
AFNE01.JPG,AFNE01.JPG,AFNE01.JPG,AFNE01.JPG,AFNE01.JPG,AFNE01.JPG,5,0,50,8,,,,,,,,,,,,,,,,,,,,,,,AMNE16.jpg,AMSA01.jpg,AMSA04.jpg,AMNE08.jpg,AMSA04.jpg,MS,2,num_2,32,num_6,1.10009272571,,,2017_Apr_20_1828,60.006139569,MAFE4ImagesEEG,001,200136,
AFNE01.JPG,AFNE01.JPG,AFNE01.JPG,AFNE01.JPG,AFNE01.JPG,AFNE01.JPG,5,1,51,7,,,,,,,,,,,,,,,,,,,,,,,AMNE02.jpg,AMSA06.jpg,AMNE09.jpg,AMSA10.jpg,AMNE02.jpg,MN,1,num_8,16,num_8,0.916590838577,,,2017_Apr_20_1828,60.006139569,MAFE4ImagesEEG,001,200136,
AFNE01.JPG,AFNE01.JPG,AFNE01.JPG,AFNE01.JPG,AFNE01.JPG,AFNE01.JPG,5,2,52,5,,,,,,,,,,,,,,,,,,,,,,,AMNE03.jpg,AMSA14.jpg,AMNE18.jpg,AMSA18.jpg,AMSA14.jpg,MS,2,num_6,16,num_6,0.783444667235,,,2017_Apr_20_1828,60.006139569,MAFE4ImagesEEG,001,200136,
AFNE01.JPG,AFNE01.JPG,AFNE01.JPG,AFNE01.JPG,AFNE01.JPG,AFNE01.JPG,5,3,53,2,,,,,,,,,,,,,,,,,,,,,,,AMSA18.jpg,AMSA05.jpg,AMNE18.jpg,AMNE13.jpg,AMSA18.jpg,MS,2,num_8,16,num_8,0.633438525023,,,2017_Apr_20_1828,60.006139569,MAFE4ImagesEEG,001,200136,
AFNE01.JPG,AFNE01.JPG,AFNE01.JPG,AFNE01.JPG,AFNE01.JPG,AFNE01.JPG,5,4,54,0,,,,,,,,,,,,,,,,,,,,,,,AMNE03.jpg,AMSA20.jpg,AMNE18.jpg,AMSA07.jpg,AMNE03.jpg,MN,1,num_8,16,num_8,0.616833221167,,,2017_Apr_20_1828,60.006139569,MAFE4ImagesEEG,001,200136,
AFNE01.JPG,AFNE01.JPG,AFNE01.JPG,AFNE01.JPG,AFNE01.JPG,AFNE01.JPG,5,5,55,3,,,,,,,,,,,,,,,,,,,,,,,AMNE06.jpg,AMSA09.jpg,AMNE12.jpg,AMSA03.jpg,AMNE12.jpg,MN,1,num_2,16,num_2,1.3500767689,,,2017_Apr_20_1828,60.006139569,MAFE4ImagesEEG,001,200136,
AFNE01.JPG,AFNE01.JPG,AFNE01.JPG,AFNE01.JPG,AFNE01.JPG,AFNE01.JPG,5,6,56,6,,,,,,,,,,,,,,,,,,,,,,,AMNE11.jpg,AMNE18.jpg,AMSA13.jpg,AMSA20.jpg,AMSA13.jpg,MS,2,num_2,16,num_2,0.866754078772,,,2017_Apr_20_1828,60.006139569,MAFE4ImagesEEG,001,200136,
AFNE01.JPG,AFNE01.JPG,AFNE01.JPG,AFNE01.JPG,AFNE01.JPG,AFNE01.JPG,5,7,57,4,,,,,,,,,,,,,,,,,,,,,,,AMSA07.jpg,AMNE10.jpg,AMSA11.jpg,AMNE13.jpg,AMSA11.jpg,MS,2,num_2,32,num_8,0.516922033799,,,2017_Apr_20_1828,60.006139569,MAFE4ImagesEEG,001,200136,
AFNE01.JPG,AFNE01.JPG,AFNE01.JPG,AFNE01.JPG,AFNE01.JPG,AFNE01.JPG,5,8,58,9,,,,,,,,,,,,,,,,,,,,,,,AMNE15.jpg,AMNE08.jpg,AMSA09.jpg,AMSA11.jpg,AMSA09.jpg,MS,2,num_2,32,num_8,0.916778150247,,,2017_Apr_20_1828,60.006139569,MAFE4ImagesEEG,001,200136,
AFNE01.JPG,AFNE01.JPG,AFNE01.JPG,AFNE01.JPG,AFNE01.JPG,AFNE01.JPG,5,9,59,1,,,,,,,,,,,,,,,,,,,,,,,AMNE01.jpg,AMNE19.jpg,AMSA03.jpg,AMSA06.jpg,AMNE01.jpg,MN,1,num_8,32,num_6,0.966744809411,,,2017_Apr_20_1828,60.006139569,MAFE4ImagesEEG,001,200136,
,,,,,,,,,,,,,,,,,,,,,,,,,,,,,,,,,,,,,,,,,,,space,1.65009418502,2017_Apr_20_1828,60.006139569,MAFE4ImagesEEG,001,200136,
AFNE01.JPG,AFNE01.JPG,AFNE01.JPG,AFNE01.JPG,AFNE01.JPG,AFNE01.JPG,,,,,0,0,0,1,,,,,,,,,,,,,,,,,,,AFSA06.jpg,AFNE06.jpg,AFNE11.jpg,AFSA17.jpg,AFNE06.jpg,FN,3,num_6,32,num_4,0.983435109199,,,2017_Apr_20_1828,60.006139569,MAFE4ImagesEEG,001,200136,
AFNE01.JPG,AFNE01.JPG,AFNE01.JPG,AFNE01.JPG,AFNE01.JPG,AFNE01.JPG,,,,,0,1,1,6,,,,,,,,,,,,,,,,,,,AFNE20.jpg,AFSA05.jpg,AFSA14.jpg,AFNE19.jpg,AFSA05.jpg,FS,4,num_6,16,num_6,0.73352323228,,,2017_Apr_20_1828,60.006139569,MAFE4ImagesEEG,001,200136,
AFNE01.JPG,AFNE01.JPG,AFNE01.JPG,AFNE01.JPG,AFNE01.JPG,AFNE01.JPG,,,,,0,2,2,5,,,,,,,,,,,,,,,,,,,AFNE17.jpg,AFNE08.jpg,AFSA10.jpg,AFSA20.jpg,AFSA10.jpg,FS,4,num_2,32,num_8,0.833152489911,,,2017_Apr_20_1828,60.006139569,MAFE4ImagesEEG,001,200136,
AFNE01.JPG,AFNE01.JPG,AFNE01.JPG,AFNE01.JPG,AFNE01.JPG,AFNE01.JPG,,,,,0,3,3,7,,,,,,,,,,,,,,,,,,,AFNE11.jpg,AFNE18.jpg,AFSA14.jpg,AFSA02.jpg,AFSA14.jpg,FS,4,num_2,32,num_6,0.900130829483,,,2017_Apr_20_1828,60.006139569,MAFE4ImagesEEG,001,200136,
AFNE01.JPG,AFNE01.JPG,AFNE01.JPG,AFNE01.JPG,AFNE01.JPG,AFNE01.JPG,,,,,0,4,4,2,,,,,,,,,,,,,,,,,,,AFSA15.jpg,AFNE04.jpg,AFNE13.jpg,AFSA06.jpg,AFNE13.jpg,FN,3,num_2,16,num_2,1.20012771833,,,2017_Apr_20_1828,60.006139569,MAFE4ImagesEEG,001,200136,
AFNE01.JPG,AFNE01.JPG,AFNE01.JPG,AFNE01.JPG,AFNE01.JPG,AFNE01.JPG,,,,,0,5,5,8,,,,,,,,,,,,,,,,,,,AFNE18.jpg,AFSA15.jpg,AFNE05.jpg,AFSA01.jpg,AFNE05.jpg,FN,3,num_2,32,num_4,1.43343461206,,,2017_Apr_20_1828,60.006139569,MAFE4ImagesEEG,001,200136,
AFNE01.JPG,AFNE01.JPG,AFNE01.JPG,AFNE01.JPG,AFNE01.JPG,AFNE01.JPG,,,,,0,6,6,9,,,,,,,,,,,,,,,,,,,AFSA15.jpg,AFSA20.jpg,AFNE14.jpg,AFNE06.jpg,AFSA20.jpg,FS,4,num_6,32,num_2,1.3834204835,,,2017_Apr_20_1828,60.006139569,MAFE4ImagesEEG,001,200136,
AFNE01.JPG,AFNE01.JPG,AFNE01.JPG,AFNE01.JPG,AFNE01.JPG,AFNE01.JPG,,,,,0,7,7,4,,,,,,,,,,,,,,,,,,,AFSA18.jpg,AFNE04.jpg,AFSA07.jpg,AFNE06.jpg,AFSA18.jpg,FS,4,num_8,32,num_6,1.01671467593,,,2017_Apr_20_1828,60.006139569,MAFE4ImagesEEG,001,200136,
AFNE01.JPG,AFNE01.JPG,AFNE01.JPG,AFNE01.JPG,AFNE01.JPG,AFNE01.JPG,,,,,0,8,8,3,,,,,,,,,,,,,,,,,,,AFSA08.jpg,AFNE06.jpg,AFSA15.jpg,AFNE20.jpg,AFSA15.jpg,FS,4,num_2,16,num_2,0.950102941249,,,2017_Apr_20_1828,60.006139569,MAFE4ImagesEEG,001,200136,
AFNE01.JPG,AFNE01.JPG,AFNE01.JPG,AFNE01.JPG,AFNE01.JPG,AFNE01.JPG,,,,,0,9,9,0,,,,,,,,,,,,,,,,,,,AFNE14.jpg,AFSA13.jpg,AFSA15.jpg,AFNE11.jpg,AFSA13.jpg,FS,4,num_6,16,num_6,0.683442069218,,,2017_Apr_20_1828,60.006139569,MAFE4ImagesEEG,001,200136,
AFNE01.JPG,AFNE01.JPG,AFNE01.JPG,AFNE01.JPG,AFNE01.JPG,AFNE01.JPG,,,,,1,0,10,2,,,,,,,,,,,,,,,,,,,AFNE15.jpg,AFSA20.jpg,AFNE01.jpg,AFSA13.jpg,AFSA20.jpg,FS,4,num_6,16,num_6,0.833453343192,,,2017_Apr_20_1828,60.006139569,MAFE4ImagesEEG,001,200136,
AFNE01.JPG,AFNE01.JPG,AFNE01.JPG,AFNE01.JPG,AFNE01.JPG,AFNE01.JPG,,,,,1,1,11,7,,,,,,,,,,,,,,,,,,,AFNE06.jpg,AFSA05.jpg,AFSA13.jpg,AFNE20.jpg,AFSA13.jpg,FS,4,num_2,32,num_8,1.20006966451,,,2017_Apr_20_1828,60.006139569,MAFE4ImagesEEG,001,200136,
AFNE01.JPG,AFNE01.JPG,AFNE01.JPG,AFNE01.JPG,AFNE01.JPG,AFNE01.JPG,,,,,1,2,12,6,,,,,,,,,,,,,,,,,,,AFSA13.jpg,AFNE10.jpg,AFNE20.jpg,AFSA12.jpg,AFSA13.jpg,FS,4,num_8,16,num_8,0.716807594057,,,2017_Apr_20_1828,60.006139569,MAFE4ImagesEEG,001,200136,
AFNE01.JPG,AFNE01.JPG,AFNE01.JPG,AFNE01.JPG,AFNE01.JPG,AFNE01.JPG,,,,,1,3,13,8,,,,,,,,,,,,,,,,,,,AFSA01.jpg,AFNE15.jpg,AFSA15.jpg,AFNE06.jpg,AFNE15.jpg,FN,3,num_6,16,num_6,0.683173610596,,,2017_Apr_20_1828,60.006139569,MAFE4ImagesEEG,001,200136,
AFNE01.JPG,AFNE01.JPG,AFNE01.JPG,AFNE01.JPG,AFNE01.JPG,AFNE01.JPG,,,,,1,4,14,9,,,,,,,,,,,,,,,,,,,AFSA05.jpg,AFNE18.jpg,AFNE13.jpg,AFSA20.jpg,AFNE13.jpg,FN,3,num_2,16,num_2,1.70001786517,,,2017_Apr_20_1828,60.006139569,MAFE4ImagesEEG,001,200136,
AFNE01.JPG,AFNE01.JPG,AFNE01.JPG,AFNE01.JPG,AFNE01.JPG,AFNE01.JPG,,,,,1,5,15,0,,,,,,,,,,,,,,,,,,,AFSA14.jpg,AFNE01.jpg,AFNE07.jpg,AFSA18.jpg,AFNE01.jpg,FN,3,num_6,32,num_8,0.983456277987,,,2017_Apr_20_1828,60.006139569,MAFE4ImagesEEG,001,200136,
AFNE01.JPG,AFNE01.JPG,AFNE01.JPG,AFNE01.JPG,AFNE01.JPG,AFNE01.JPG,,,,,1,6,16,3,,,,,,,,,,,,,,,,,,,AFSA13.jpg,AFSA01.jpg,AFNE16.jpg,AFNE04.jpg,AFNE16.jpg,FN,3,num_2,32,num_4,1.1169738652,,,2017_Apr_20_1828,60.006139569,MAFE4ImagesEEG,001,200136,
AFNE01.JPG,AFNE01.JPG,AFNE01.JPG,AFNE01.JPG,AFNE01.JPG,AFNE01.JPG,,,,,1,7,17,5,,,,,,,,,,,,,,,,,,,AFSA15.jpg,AFSA19.jpg,AFNE09.jpg,AFNE06.jpg,AFNE09.jpg,FN,3,num_2,32,num_8,0.883438925957,,,2017_Apr_20_1828,60.006139569,MAFE4ImagesEEG,001,200136,
AFNE01.JPG,AFNE01.JPG,AFNE01.JPG,AFNE01.JPG,AFNE01.JPG,AFNE01.JPG,,,,,1,8,18,1,,,,,,,,,,,,,,,,,,,AFNE18.jpg,AFSA20.jpg,AFNE03.jpg,AFSA08.jpg,AFSA20.jpg,FS,4,num_6,16,num_6,1.15011070308,,,2017_Apr_20_1828,60.006139569,MAFE4ImagesEEG,001,200136,
AFNE01.JPG,AFNE01.JPG,AFNE01.JPG,AFNE01.JPG,AFNE01.JPG,AFNE01.JPG,,,,,1,9,19,4,,,,,,,,,,,,,,,,,,,AFNE04.jpg,AFNE03.jpg,AFSA11.jpg,AFSA05.jpg,AFNE03.jpg,FN,3,num_6,32,num_2,1.28339960339,,,2017_Apr_20_1828,60.006139569,MAFE4ImagesEEG,001,200136,
AFNE01.JPG,AFNE01.JPG,AFNE01.JPG,AFNE01.JPG,AFNE01.JPG,AFNE01.JPG,,,,,2,0,20,7,,,,,,,,,,,,,,,,,,,AFNE04.jpg,AFSA20.jpg,AFSA08.jpg,AFNE18.jpg,AFNE04.jpg,FN,3,num_8,16,num_8,0.983465258672,,,2017_Apr_20_1828,60.006139569,MAFE4ImagesEEG,001,200136,
AFNE01.JPG,AFNE01.JPG,AFNE01.JPG,AFNE01.JPG,AFNE01.JPG,AFNE01.JPG,,,,,2,1,21,2,,,,,,,,,,,,,,,,,,,AFNE01.jpg,AFSA20.jpg,AFSA02.jpg,AFNE07.jpg,AFNE01.jpg,FN,3,num_8,16,num_8,0.866845489421,,,2017_Apr_20_1828,60.006139569,MAFE4ImagesEEG,001,200136,
AFNE01.JPG,AFNE01.JPG,AFNE01.JPG,AFNE01.JPG,AFNE01.JPG,AFNE01.JPG,,,,,2,2,22,0,,,,,,,,,,,,,,,,,,,AFSA04.jpg,AFNE09.jpg,AFSA13.jpg,AFNE03.jpg,AFSA13.jpg,FS,4,num_2,16,num_2,1.61657534691,,,2017_Apr_20_1828,60.006139569,MAFE4ImagesEEG,001,200136,
AFNE01.JPG,AFNE01.JPG,AFNE01.JPG,AFNE01.JPG,AFNE01.JPG,AFNE01.JPG,,,,,2,3,23,4,,,,,,,,,,,,,,,,,,,AFNE12.jpg,AFNE18.jpg,AFSA05.jpg,AFSA02.jpg,AFNE12.jpg,FN,3,num_8,16,num_8,0.716815291846,,,2017_Apr_20_1828,60.006139569,MAFE4ImagesEEG,001,200136,
AFNE01.JPG,AFNE01.JPG,AFNE01.JPG,AFNE01.JPG,AFNE01.JPG,AFNE01.JPG,,,,,2,4,24,5,,,,,,,,,,,,,,,,,,,AFSA07.jpg,AFNE07.jpg,AFSA19.jpg,AFNE04.jpg,AFNE07.jpg,FN,3,num_6,16,num_6,0.61682231602,,,2017_Apr_20_1828,60.006139569,MAFE4ImagesEEG,001,200136,
AFNE01.JPG,AFNE01.JPG,AFNE01.JPG,AFNE01.JPG,AFNE01.JPG,AFNE01.JPG,,,,,2,5,25,1,,,,,,,,,,,,,,,,,,,AFNE15.jpg,AFSA16.jpg,AFSA03.jpg,AFNE10.jpg,AFNE10.jpg,FN,3,num_4,16,num_4,1.20011617173,,,2017_Apr_20_1828,60.006139569,MAFE4ImagesEEG,001,200136,
AFNE01.JPG,AFNE01.JPG,AFNE01.JPG,AFNE01.JPG,AFNE01.JPG,AFNE01.JPG,,,,,2,6,26,3,,,,,,,,,,,,,,,,,,,AFNE01.jpg,AFNE11.jpg,AFSA12.jpg,AFSA15.jpg,AFSA12.jpg,FS,4,num_2,16,num_2,0.966662058723,,,2017_Apr_20_1828,60.006139569,MAFE4ImagesEEG,001,200136,
AFNE01.JPG,AFNE01.JPG,AFNE01.JPG,AFNE01.JPG,AFNE01.JPG,AFNE01.JPG,,,,,2,7,27,6,,,,,,,,,,,,,,,,,,,AFNE06.jpg,AFNE13.jpg,AFSA18.jpg,AFSA14.jpg,AFSA14.jpg,FS,4,num_4,16,num_4,0.833568167756,,,2017_Apr_20_1828,60.006139569,MAFE4ImagesEEG,001,200136,
AFNE01.JPG,AFNE01.JPG,AFNE01.JPG,AFNE01.JPG,AFNE01.JPG,AFNE01.JPG,,,,,2,8,28,8,,,,,,,,,,,,,,,,,,,AFSA17.jpg,AFSA16.jpg,AFNE16.jpg,AFNE03.jpg,AFSA17.jpg,FS,4,num_8,16,num_8,0.850177320594,,,2017_Apr_20_1828,60.006139569,MAFE4ImagesEEG,001,200136,
AFNE01.JPG,AFNE01.JPG,AFNE01.JPG,AFNE01.JPG,AFNE01.JPG,AFNE01.JPG,,,,,2,9,29,9,,,,,,,,,,,,,,,,,,,AFNE04.jpg,AFNE20.jpg,AFSA14.jpg,AFSA03.jpg,AFNE04.jpg,FN,3,num_8,16,num_8,1.3001004876,,,2017_Apr_20_1828,60.006139569,MAFE4ImagesEEG,001,200136,
AFNE01.JPG,AFNE01.JPG,AFNE01.JPG,AFNE01.JPG,AFNE01.JPG,AFNE01.JPG,,,,,3,0,30,4,,,,,,,,,,,,,,,,,,,AFSA14.jpg,AFNE17.jpg,AFNE04.jpg,AFSA07.jpg,AFSA07.jpg,FS,4,num_4,16,num_4,0.550109548436,,,2017_Apr_20_1828,60.006139569,MAFE4ImagesEEG,001,200136,
AFNE01.JPG,AFNE01.JPG,AFNE01.JPG,AFNE01.JPG,AFNE01.JPG,AFNE01.JPG,,,,,3,1,31,3,,,,,,,,,,,,,,,,,,,AFNE11.jpg,AFNE02.jpg,AFSA14.jpg,AFSA02.jpg,AFSA02.jpg,FS,4,num_4,32,num_8,0.633403564512,,,2017_Apr_20_1828,60.006139569,MAFE4ImagesEEG,001,200136,
AFNE01.JPG,AFNE01.JPG,AFNE01.JPG,AFNE01.JPG,AFNE01.JPG,AFNE01.JPG,,,,,3,2,32,9,,,,,,,,,,,,,,,,,,,AFNE16.jpg,AFSA14.jpg,AFSA18.jpg,AFNE17.jpg,AFSA18.jpg,FS,4,num_2,16,num_2,1.48325084458,,,2017_Apr_20_1828,60.006139569,MAFE4ImagesEEG,001,200136,
AFNE01.JPG,AFNE01.JPG,AFNE01.JPG,AFNE01.JPG,AFNE01.JPG,AFNE01.JPG,,,,,3,3,33,2,,,,,,,,,,,,,,,,,,,AFNE09.jpg,AFSA18.jpg,AFNE04.jpg,AFSA20.jpg,AFSA20.jpg,FS,4,num_4,16,num_4,0.966739677591,,,2017_Apr_20_1828,60.006139569,MAFE4ImagesEEG,001,200136,
AFNE01.JPG,AFNE01.JPG,AFNE01.JPG,AFNE01.JPG,AFNE01.JPG,AFNE01.JPG,,,,,3,4,34,5,,,,,,,,,,,,,,,,,,,AFSA07.jpg,AFNE18.jpg,AFSA16.jpg,AFNE12.jpg,AFSA16.jpg,FS,4,num_2,16,num_2,1.2000840978,,,2017_Apr_20_1828,60.006139569,MAFE4ImagesEEG,001,200136,
AFNE01.JPG,AFNE01.JPG,AFNE01.JPG,AFNE01.JPG,AFNE01.JPG,AFNE01.JPG,,,,,3,5,35,8,,,,,,,,,,,,,,,,,,,AFNE20.jpg,AFSA18.jpg,AFNE14.jpg,AFSA16.jpg,AFNE14.jpg,FN,3,num_2,32,num_8,0.81679255137,,,2017_Apr_20_1828,60.006139569,MAFE4ImagesEEG,001,200136,
AFNE01.JPG,AFNE01.JPG,AFNE01.JPG,AFNE01.JPG,AFNE01.JPG,AFNE01.JPG,,,,,3,6,36,1,,,,,,,,,,,,,,,,,,,AFNE15.jpg,AFSA08.jpg,AFNE03.jpg,AFSA13.jpg,AFSA13.jpg,FS,4,num_4,16,num_4,1.13335016143,,,2017_Apr_20_1828,60.006139569,MAFE4ImagesEEG,001,200136,
AFNE01.JPG,AFNE01.JPG,AFNE01.JPG,AFNE01.JPG,AFNE01.JPG,AFNE01.JPG,,,,,3,7,37,7,,,,,,,,,,,,,,,,,,,AFSA16.jpg,AFNE07.jpg,AFNE18.jpg,AFSA12.jpg,AFNE18.jpg,FN,3,num_2,32,num_6,0.75008972676,,,2017_Apr_20_1828,60.006139569,MAFE4ImagesEEG,001,200136,
AFNE01.JPG,AFNE01.JPG,AFNE01.JPG,AFNE01.JPG,AFNE01.JPG,AFNE01.JPG,,,,,3,8,38,6,,,,,,,,,,,,,,,,,,,AFNE18.jpg,AFSA06.jpg,AFNE08.jpg,AFSA03.jpg,AFNE18.jpg,FN,3,num_8,32,num_6,1.73364639608,,,2017_Apr_20_1828,60.006139569,MAFE4ImagesEEG,001,200136,
AFNE01.JPG,AFNE01.JPG,AFNE01.JPG,AFNE01.JPG,AFNE01.JPG,AFNE01.JPG,,,,,3,9,39,0,,,,,,,,,,,,,,,,,,,AFSA17.jpg,AFNE14.jpg,AFNE09.jpg,AFSA18.jpg,AFNE09.jpg,FN,3,num_2,16,num_2,1.13344413805,,,2017_Apr_20_1828,60.006139569,MAFE4ImagesEEG,001,200136,
AFNE01.JPG,AFNE01.JPG,AFNE01.JPG,AFNE01.JPG,AFNE01.JPG,AFNE01.JPG,,,,,4,0,40,6,,,,,,,,,,,,,,,,,,,AFSA19.jpg,AFNE14.jpg,AFNE06.jpg,AFSA17.jpg,AFSA17.jpg,FS,4,num_4,32,num_8,1.05010778439,,,2017_Apr_20_1828,60.006139569,MAFE4ImagesEEG,001,200136,
AFNE01.JPG,AFNE01.JPG,AFNE01.JPG,AFNE01.JPG,AFNE01.JPG,AFNE01.JPG,,,,,4,1,41,7,,,,,,,,,,,,,,,,,,,AFSA12.jpg,AFSA16.jpg,AFNE17.jpg,AFNE09.jpg,AFSA12.jpg,FS,4,num_8,16,num_8,0.516791492992,,,2017_Apr_20_1828,60.006139569,MAFE4ImagesEEG,001,200136,
AFNE01.JPG,AFNE01.JPG,AFNE01.JPG,AFNE01.JPG,AFNE01.JPG,AFNE01.JPG,,,,,4,2,42,4,,,,,,,,,,,,,,,,,,,AFSA11.jpg,AFNE16.jpg,AFNE20.jpg,AFSA04.jpg,AFNE16.jpg,FN,3,num_6,32,num_4,0.900191449153,,,2017_Apr_20_1828,60.006139569,MAFE4ImagesEEG,001,200136,
AFNE01.JPG,AFNE01.JPG,AFNE01.JPG,AFNE01.JPG,AFNE01.JPG,AFNE01.JPG,,,,,4,3,43,3,,,,,,,,,,,,,,,,,,,AFSA17.jpg,AFSA05.jpg,AFNE15.jpg,AFNE16.jpg,AFNE15.jpg,FN,3,num_2,16,num_2,1.10008919751,,,2017_Apr_20_1828,60.006139569,MAFE4ImagesEEG,001,200136,
AFNE01.JPG,AFNE01.JPG,AFNE01.JPG,AFNE01.JPG,AFNE01.JPG,AFNE01.JPG,,,,,4,4,44,2,,,,,,,,,,,,,,,,,,,AFNE07.jpg,AFSA10.jpg,AFNE11.jpg,AFSA15.jpg,AFSA15.jpg,FS,4,num_4,32,num_6,0.666888083564,,,2017_Apr_20_1828,60.006139569,MAFE4ImagesEEG,001,200136,
AFNE01.JPG,AFNE01.JPG,AFNE01.JPG,AFNE01.JPG,AFNE01.JPG,AFNE01.JPG,,,,,4,5,45,1,,,,,,,,,,,,,,,,,,,AFSA16.jpg,AFNE15.jpg,AFNE06.jpg,AFSA05.jpg,AFNE06.jpg,FN,3,num_2,32,num_8,1.83340940194,,,2017_Apr_20_1828,60.006139569,MAFE4ImagesEEG,001,200136,
AFNE01.JPG,AFNE01.JPG,AFNE01.JPG,AFNE01.JPG,AFNE01.JPG,AFNE01.JPG,,,,,4,6,46,0,,,,,,,,,,,,,,,,,,,AFSA10.jpg,AFSA09.jpg,AFNE01.jpg,AFNE04.jpg,AFSA10.jpg,FS,4,num_8,16,num_8,1.0669738492,,,2017_Apr_20_1828,60.006139569,MAFE4ImagesEEG,001,200136,
AFNE01.JPG,AFNE01.JPG,AFNE01.JPG,AFNE01.JPG,AFNE01.JPG,AFNE01.JPG,,,,,4,7,47,9,,,,,,,,,,,,,,,,,,,AFNE02.jpg,AFSA06.jpg,AFSA12.jpg,AFNE09.jpg,AFNE02.jpg,FN,3,num_8,32,num_6,0.800106100505,,,2017_Apr_20_1828,60.006139569,MAFE4ImagesEEG,001,200136,
AFNE01.JPG,AFNE01.JPG,AFNE01.JPG,AFNE01.JPG,AFNE01.JPG,AFNE01.JPG,,,,,4,8,48,5,,,,,,,,,,,,,,,,,,,AFSA09.jpg,AFSA03.jpg,AFNE01.jpg,AFNE20.jpg,AFNE20.jpg,FN,3,num_4,32,num_8,0.88344437856,,,2017_Apr_20_1828,60.006139569,MAFE4ImagesEEG,001,200136,
AFNE01.JPG,AFNE01.JPG,AFNE01.JPG,AFNE01.JPG,AFNE01.JPG,AFNE01.JPG,,,,,4,9,49,8,,,,,,,,,,,,,,,,,,,AFNE02.jpg,AFNE09.jpg,AFSA02.jpg,AFSA19.jpg,AFSA02.jpg,FS,4,num_2,16,num_2,0.96672588581,,,2017_Apr_20_1828,60.006139569,MAFE4ImagesEEG,001,200136,
AFNE01.JPG,AFNE01.JPG,AFNE01.JPG,AFNE01.JPG,AFNE01.JPG,AFNE01.JPG,,,,,5,0,50,8,,,,,,,,,,,,,,,,,,,AFSA18.jpg,AFNE05.jpg,AFSA08.jpg,AFNE19.jpg,AFSA18.jpg,FS,4,num_8,16,num_8,0.566823262197,,,2017_Apr_20_1828,60.006139569,MAFE4ImagesEEG,001,200136,
AFNE01.JPG,AFNE01.JPG,AFNE01.JPG,AFNE01.JPG,AFNE01.JPG,AFNE01.JPG,,,,,5,1,51,6,,,,,,,,,,,,,,,,,,,AFSA17.jpg,AFSA03.jpg,AFNE05.jpg,AFNE12.jpg,AFNE12.jpg,FN,3,num_4,16,num_4,0.750133668014,,,2017_Apr_20_1828,60.006139569,MAFE4ImagesEEG,001,200136,
AFNE01.JPG,AFNE01.JPG,AFNE01.JPG,AFNE01.JPG,AFNE01.JPG,AFNE01.JPG,,,,,5,2,52,9,,,,,,,,,,,,,,,,,,,AFSA16.jpg,AFSA03.jpg,AFNE14.jpg,AFNE01.jpg,AFNE14.jpg,FN,3,num_2,32,num_4,0.76685796614,,,2017_Apr_20_1828,60.006139569,MAFE4ImagesEEG,001,200136,
AFNE01.JPG,AFNE01.JPG,AFNE01.JPG,AFNE01.JPG,AFNE01.JPG,AFNE01.JPG,,,,,5,3,53,1,,,,,,,,,,,,,,,,,,,AFNE06.jpg,AFNE01.jpg,AFSA08.jpg,AFSA09.jpg,AFNE01.jpg,FN,3,num_6,32,num_2,1.0167733712,,,2017_Apr_20_1828,60.006139569,MAFE4ImagesEEG,001,200136,
AFNE01.JPG,AFNE01.JPG,AFNE01.JPG,AFNE01.JPG,AFNE01.JPG,AFNE01.JPG,,,,,5,4,54,0,,,,,,,,,,,,,,,,,,,AFNE13.jpg,AFNE17.jpg,AFSA12.jpg,AFSA07.jpg,AFSA12.jpg,FS,4,num_2,16,num_2,1.15006868629,,,2017_Apr_20_1828,60.006139569,MAFE4ImagesEEG,001,200136,
AFNE01.JPG,AFNE01.JPG,AFNE01.JPG,AFNE01.JPG,AFNE01.JPG,AFNE01.JPG,,,,,5,5,55,4,,,,,,,,,,,,,,,,,,,AFSA05.jpg,AFSA14.jpg,AFNE17.jpg,AFNE05.jpg,AFNE05.jpg,FN,3,num_4,16,num_4,0.850124398654,,,2017_Apr_20_1828,60.006139569,MAFE4ImagesEEG,001,200136,
AFNE01.JPG,AFNE01.JPG,AFNE01.JPG,AFNE01.JPG,AFNE01.JPG,AFNE01.JPG,,,,,5,6,56,2,,,,,,,,,,,,,,,,,,,AFNE08.jpg,AFSA15.jpg,AFSA18.jpg,AFNE02.jpg,AFNE08.jpg,FN,3,num_8,16,num_8,0.88345881179,,,2017_Apr_20_1828,60.006139569,MAFE4ImagesEEG,001,200136,
AFNE01.JPG,AFNE01.JPG,AFNE01.JPG,AFNE01.JPG,AFNE01.JPG,AFNE01.JPG,,,,,5,7,57,5,,,,,,,,,,,,,,,,,,,AFNE13.jpg,AFNE05.jpg,AFSA06.jpg,AFSA12.jpg,AFNE13.jpg,FN,3,num_8,16,num_8,0.716769746854,,,2017_Apr_20_1828,60.006139569,MAFE4ImagesEEG,001,200136,
AFNE01.JPG,AFNE01.JPG,AFNE01.JPG,AFNE01.JPG,AFNE01.JPG,AFNE01.JPG,,,,,5,8,58,3,,,,,,,,,,,,,,,,,,,AFNE12.jpg,AFSA14.jpg,AFNE19.jpg,AFSA02.jpg,AFNE19.jpg,FN,3,num_2,32,num_4,0.850117021648,,,2017_Apr_20_1828,60.006139569,MAFE4ImagesEEG,001,200136,
AFNE01.JPG,AFNE01.JPG,AFNE01.JPG,AFNE01.JPG,AFNE01.JPG,AFNE01.JPG,,,,,5,9,59,7,,,,,,,,,,,,,,,,,,,AFNE07.jpg,AFNE16.jpg,AFSA16.jpg,AFSA14.jpg,AFSA14.jpg,FS,4,num_4,16,num_4,0.666867235501,,,2017_Apr_20_1828,60.006139569,MAFE4ImagesEEG,001,200136,
,,,,,,,,,,,,,,,,,,,,,,,,,,,,,,,,,,,,,,,,,,,space,1.36673178739,2017_Apr_20_1828,60.006139569,MAFE4ImagesEEG,001,200136,
AFNE01.JPG,AFNE01.JPG,AFNE01.JPG,AFNE01.JPG,AFNE01.JPG,AFNE01.JPG,,,,,,,,,0,0,0,6,,,,,,,,,,,,,,,AMSA10.jpg,AMNE05.jpg,AMNE02.jpg,AMSA02.jpg,AMNE05.jpg,MN,1,num_6,16,num_6,0.83348573785,,,2017_Apr_20_1828,60.006139569,MAFE4ImagesEEG,001,200136,
AFNE01.JPG,AFNE01.JPG,AFNE01.JPG,AFNE01.JPG,AFNE01.JPG,AFNE01.JPG,,,,,,,,,0,1,1,2,,,,,,,,,,,,,,,AMNE15.jpg,AMSA07.jpg,AMNE03.jpg,AMSA18.jpg,AMNE03.jpg,MN,1,num_2,32,num_8,0.950096205634,,,2017_Apr_20_1828,60.006139569,MAFE4ImagesEEG,001,200136,
AFNE01.JPG,AFNE01.JPG,AFNE01.JPG,AFNE01.JPG,AFNE01.JPG,AFNE01.JPG,,,,,,,,,0,2,2,0,,,,,,,,,,,,,,,AMSA02.jpg,AMNE12.jpg,AMSA05.jpg,AMNE03.jpg,AMNE03.jpg,MN,1,num_4,16,num_4,0.733469989558,,,2017_Apr_20_1828,60.006139569,MAFE4ImagesEEG,001,200136,
AFNE01.JPG,AFNE01.JPG,AFNE01.JPG,AFNE01.JPG,AFNE01.JPG,AFNE01.JPG,,,,,,,,,0,3,3,3,,,,,,,,,,,,,,,AMNE20.jpg,AMNE18.jpg,AMSA18.jpg,AMSA19.jpg,AMNE18.jpg,MN,1,num_6,32,num_4,0.866748946952,,,2017_Apr_20_1828,60.006139569,MAFE4ImagesEEG,001,200136,
AFNE01.JPG,AFNE01.JPG,AFNE01.JPG,AFNE01.JPG,AFNE01.JPG,AFNE01.JPG,,,,,,,,,0,4,4,4,,,,,,,,,,,,,,,AMSA07.jpg,AMNE03.jpg,AMSA16.jpg,AMNE16.jpg,AMNE03.jpg,MN,1,num_6,16,num_6,0.950102941191,,,2017_Apr_20_1828,60.006139569,MAFE4ImagesEEG,001,200136,
AFNE01.JPG,AFNE01.JPG,AFNE01.JPG,AFNE01.JPG,AFNE01.JPG,AFNE01.JPG,,,,,,,,,0,5,5,1,,,,,,,,,,,,,,,AMNE15.jpg,AMSA18.jpg,AMNE19.jpg,AMSA12.jpg,AMNE19.jpg,MN,1,num_2,16,num_2,1.88339434325,,,2017_Apr_20_1828,60.006139569,MAFE4ImagesEEG,001,200136,
AFNE01.JPG,AFNE01.JPG,AFNE01.JPG,AFNE01.JPG,AFNE01.JPG,AFNE01.JPG,,,,,,,,,0,6,6,8,,,,,,,,,,,,,,,AMNE02.jpg,AMNE04.jpg,AMSA15.jpg,AMSA13.jpg,AMNE02.jpg,MN,1,num_8,16,num_8,1.0835028172,,,2017_Apr_20_1828,60.006139569,MAFE4ImagesEEG,001,200136,
AFNE01.JPG,AFNE01.JPG,AFNE01.JPG,AFNE01.JPG,AFNE01.JPG,AFNE01.JPG,,,,,,,,,0,7,7,9,,,,,,,,,,,,,,,AMNE12.jpg,AMSA10.jpg,AMSA09.jpg,AMNE17.jpg,AMNE12.jpg,MN,1,num_8,16,num_8,0.883461698482,,,2017_Apr_20_1828,60.006139569,MAFE4ImagesEEG,001,200136,
AFNE01.JPG,AFNE01.JPG,AFNE01.JPG,AFNE01.JPG,AFNE01.JPG,AFNE01.JPG,,,,,,,,,0,8,8,7,,,,,,,,,,,,,,,AMNE12.jpg,AMSA15.jpg,AMSA07.jpg,AMNE02.jpg,AMSA07.jpg,MS,2,num_2,16,num_2,1.04989224765,,,2017_Apr_20_1828,60.006139569,MAFE4ImagesEEG,001,200136,
AFNE01.JPG,AFNE01.JPG,AFNE01.JPG,AFNE01.JPG,AFNE01.JPG,AFNE01.JPG,,,,,,,,,0,9,9,5,,,,,,,,,,,,,,,AMNE20.jpg,AMNE07.jpg,AMSA04.jpg,AMSA20.jpg,AMSA04.jpg,MS,2,num_2,16,num_2,0.916740302986,,,2017_Apr_20_1828,60.006139569,MAFE4ImagesEEG,001,200136,
AFNE01.JPG,AFNE01.JPG,AFNE01.JPG,AFNE01.JPG,AFNE01.JPG,AFNE01.JPG,,,,,,,,,1,0,10,4,,,,,,,,,,,,,,,AMSA04.jpg,AMSA01.jpg,AMNE07.jpg,AMNE06.jpg,AMSA04.jpg,MS,2,num_8,32,num_6,1.78337314242,,,2017_Apr_20_1828,60.006139569,MAFE4ImagesEEG,001,200136,
AFNE01.JPG,AFNE01.JPG,AFNE01.JPG,AFNE01.JPG,AFNE01.JPG,AFNE01.JPG,,,,,,,,,1,1,11,3,,,,,,,,,,,,,,,AMNE02.jpg,AMNE16.jpg,AMSA05.jpg,AMSA02.jpg,AMSA02.jpg,MS,2,num_4,32,num_8,0.933448884927,,,2017_Apr_20_1828,60.006139569,MAFE4ImagesEEG,001,200136,
AFNE01.JPG,AFNE01.JPG,AFNE01.JPG,AFNE01.JPG,AFNE01.JPG,AFNE01.JPG,,,,,,,,,1,2,12,5,,,,,,,,,,,,,,,AMSA07.jpg,AMNE19.jpg,AMNE10.jpg,AMSA02.jpg,AMSA02.jpg,MS,2,num_4,16,num_4,0.466768383747,,,2017_Apr_20_1828,60.006139569,MAFE4ImagesEEG,001,200136,
AFNE01.JPG,AFNE01.JPG,AFNE01.JPG,AFNE01.JPG,AFNE01.JPG,AFNE01.JPG,,,,,,,,,1,3,13,6,,,,,,,,,,,,,,,AMSA03.jpg,AMNE02.jpg,AMNE06.jpg,AMSA10.jpg,AMSA10.jpg,MS,2,num_4,32,num_2,1.45005499071,,,2017_Apr_20_1828,60.006139569,MAFE4ImagesEEG,001,200136,
AFNE01.JPG,AFNE01.JPG,AFNE01.JPG,AFNE01.JPG,AFNE01.JPG,AFNE01.JPG,,,,,,,,,1,4,14,2,,,,,,,,,,,,,,,AMSA07.jpg,AMSA10.jpg,AMNE05.jpg,AMNE16.jpg,AMNE05.jpg,MN,1,num_2,16,num_2,1.03345982212,,,2017_Apr_20_1828,60.006139569,MAFE4ImagesEEG,001,200136,
AFNE01.JPG,AFNE01.JPG,AFNE01.JPG,AFNE01.JPG,AFNE01.JPG,AFNE01.JPG,,,,,,,,,1,5,15,8,,,,,,,,,,,,,,,AMSA20.jpg,AMNE03.jpg,AMNE07.jpg,AMSA19.jpg,AMSA20.jpg,MS,2,num_8,32,num_2,1.33344099479,,,2017_Apr_20_1828,60.006139569,MAFE4ImagesEEG,001,200136,
AFNE01.JPG,AFNE01.JPG,AFNE01.JPG,AFNE01.JPG,AFNE01.JPG,AFNE01.JPG,,,,,,,,,1,6,16,1,,,,,,,,,,,,,,,AMSA20.jpg,AMSA16.jpg,AMNE18.jpg,AMNE07.jpg,AMSA16.jpg,MS,2,num_6,16,num_6,0.533471529139,,,2017_Apr_20_1828,60.006139569,MAFE4ImagesEEG,001,200136,
AFNE01.JPG,AFNE01.JPG,AFNE01.JPG,AFNE01.JPG,AFNE01.JPG,AFNE01.JPG,,,,,,,,,1,7,17,0,,,,,,,,,,,,,,,AMSA10.jpg,AMSA03.jpg,AMNE19.jpg,AMNE20.jpg,AMSA10.jpg,MS,2,num_8,16,num_8,1.03349382052,,,2017_Apr_20_1828,60.006139569,MAFE4ImagesEEG,001,200136,
AFNE01.JPG,AFNE01.JPG,AFNE01.JPG,AFNE01.JPG,AFNE01.JPG,AFNE01.JPG,,,,,,,,,1,8,18,7,,,,,,,,,,,,,,,AMSA20.jpg,AMNE17.jpg,AMSA16.jpg,AMNE03.jpg,AMNE03.jpg,MN,1,num_4,16,num_4,0.800096478313,,,2017_Apr_20_1828,60.006139569,MAFE4ImagesEEG,001,200136,
AFNE01.JPG,AFNE01.JPG,AFNE01.JPG,AFNE01.JPG,AFNE01.JPG,AFNE01.JPG,,,,,,,,,1,9,19,9,,,,,,,,,,,,,,,AMSA08.jpg,AMNE07.jpg,AMNE05.jpg,AMSA12.jpg,AMNE07.jpg,MN,1,num_6,16,num_6,0.566506692674,,,2017_Apr_20_1828,60.006139569,MAFE4ImagesEEG,001,200136,
AFNE01.JPG,AFNE01.JPG,AFNE01.JPG,AFNE01.JPG,AFNE01.JPG,AFNE01.JPG,,,,,,,,,2,0,20,7,,,,,,,,,,,,,,,AMSA16.jpg,AMSA03.jpg,AMNE19.jpg,AMNE14.jpg,AMNE19.jpg,MN,1,num_2,16,num_2,1.08343706571,,,2017_Apr_20_1828,60.006139569,MAFE4ImagesEEG,001,200136,
AFNE01.JPG,AFNE01.JPG,AFNE01.JPG,AFNE01.JPG,AFNE01.JPG,AFNE01.JPG,,,,,,,,,2,1,21,4,,,,,,,,,,,,,,,AMSA02.jpg,AMNE11.jpg,AMNE08.jpg,AMSA04.jpg,AMNE08.jpg,MN,1,num_2,16,num_2,0.883435077092,,,2017_Apr_20_1828,60.006139569,MAFE4ImagesEEG,001,200136,
AFNE01.JPG,AFNE01.JPG,AFNE01.JPG,AFNE01.JPG,AFNE01.JPG,AFNE01.JPG,,,,,,,,,2,2,22,0,,,,,,,,,,,,,,,AMNE04.jpg,AMSA18.jpg,AMNE06.jpg,AMSA15.jpg,AMSA15.jpg,MS,2,num_4,16,num_4,0.833440192917,,,2017_Apr_20_1828,60.006139569,MAFE4ImagesEEG,001,200136,
AFNE01.JPG,AFNE01.JPG,AFNE01.JPG,AFNE01.JPG,AFNE01.JPG,AFNE01.JPG,,,,,,,,,2,3,23,9,,,,,,,,,,,,,,,AMSA14.jpg,AMNE04.jpg,AMNE01.jpg,AMSA08.jpg,AMNE04.jpg,MN,1,num_6,16,num_6,0.566760397342,,,2017_Apr_20_1828,60.006139569,MAFE4ImagesEEG,001,200136,
AFNE01.JPG,AFNE01.JPG,AFNE01.JPG,AFNE01.JPG,AFNE01.JPG,AFNE01.JPG,,,,,,,,,2,4,24,1,,,,,,,,,,,,,,,AMNE08.jpg,AMSA06.jpg,AMSA11.jpg,AMNE04.jpg,AMNE04.jpg,MN,1,num_4,32,num_2,1.38340605021,,,2017_Apr_20_1828,60.006139569,MAFE4ImagesEEG,001,200136,
AFNE01.JPG,AFNE01.JPG,AFNE01.JPG,AFNE01.JPG,AFNE01.JPG,AFNE01.JPG,,,,,,,,,2,5,25,8,,,,,,,,,,,,,,,AMNE13.jpg,AMNE03.jpg,AMSA06.jpg,AMSA09.jpg,AMNE13.jpg,MN,1,num_8,32,num_2,1.55006656941,,,2017_Apr_20_1828,60.006139569,MAFE4ImagesEEG,001,200136,
AFNE01.JPG,AFNE01.JPG,AFNE01.JPG,AFNE01.JPG,AFNE01.JPG,AFNE01.JPG,,,,,,,,,2,6,26,6,,,,,,,,,,,,,,,AMSA13.jpg,AMSA05.jpg,AMNE05.jpg,AMNE18.jpg,AMNE05.jpg,MN,1,num_2,32,num_8,0.883455604373,,,2017_Apr_20_1828,60.006139569,MAFE4ImagesEEG,001,200136,
AFNE01.JPG,AFNE01.JPG,AFNE01.JPG,AFNE01.JPG,AFNE01.JPG,AFNE01.JPG,,,,,,,,,2,7,27,2,,,,,,,,,,,,,,,AMSA08.jpg,AMNE12.jpg,AMNE14.jpg,AMSA11.jpg,AMSA11.jpg,MS,2,num_4,16,num_4,0.483422760735,,,2017_Apr_20_1828,60.006139569,MAFE4ImagesEEG,001,200136,
AFNE01.JPG,AFNE01.JPG,AFNE01.JPG,AFNE01.JPG,AFNE01.JPG,AFNE01.JPG,,,,,,,,,2,8,28,5,,,,,,,,,,,,,,,AMSA08.jpg,AMNE15.jpg,AMNE02.jpg,AMSA10.jpg,AMSA08.jpg,MS,2,num_8,16,num_8,0.833779214125,,,2017_Apr_20_1828,60.006139569,MAFE4ImagesEEG,001,200136,
AFNE01.JPG,AFNE01.JPG,AFNE01.JPG,AFNE01.JPG,AFNE01.JPG,AFNE01.JPG,,,,,,,,,2,9,29,3,,,,,,,,,,,,,,,AMSA07.jpg,AMNE12.jpg,AMNE15.jpg,AMSA12.jpg,AMSA12.jpg,MS,2,num_4,16,num_4,0.550150603056,,,2017_Apr_20_1828,60.006139569,MAFE4ImagesEEG,001,200136,
AFNE01.JPG,AFNE01.JPG,AFNE01.JPG,AFNE01.JPG,AFNE01.JPG,AFNE01.JPG,,,,,,,,,3,0,30,1,,,,,,,,,,,,,,,AMNE18.jpg,AMNE01.jpg,AMSA16.jpg,AMSA11.jpg,AMSA11.jpg,MS,2,num_4,16,num_4,0.483512246923,,,2017_Apr_20_1828,60.006139569,MAFE4ImagesEEG,001,200136,
AFNE01.JPG,AFNE01.JPG,AFNE01.JPG,AFNE01.JPG,AFNE01.JPG,AFNE01.JPG,,,,,,,,,3,1,31,4,,,,,,,,,,,,,,,AMNE07.jpg,AMNE01.jpg,AMSA13.jpg,AMSA12.jpg,AMNE01.jpg,MN,1,num_6,32,num_2,1.38345351961,,,2017_Apr_20_1828,60.006139569,MAFE4ImagesEEG,001,200136,
AFNE01.JPG,AFNE01.JPG,AFNE01.JPG,AFNE01.JPG,AFNE01.JPG,AFNE01.JPG,,,,,,,,,3,2,32,3,,,,,,,,,,,,,,,AMNE08.jpg,AMNE17.jpg,AMSA01.jpg,AMSA06.jpg,AMNE17.jpg,MN,1,num_6,32,num_4,0.833474511979,,,2017_Apr_20_1828,60.006139569,MAFE4ImagesEEG,001,200136,
AFNE01.JPG,AFNE01.JPG,AFNE01.JPG,AFNE01.JPG,AFNE01.JPG,AFNE01.JPG,,,,,,,,,3,3,33,0,,,,,,,,,,,,,,,AMNE13.jpg,AMSA08.jpg,AMNE03.jpg,AMSA19.jpg,AMSA08.jpg,MS,2,num_6,16,num_6,0.53347762319,,,2017_Apr_20_1828,60.006139569,MAFE4ImagesEEG,001,200136,
AFNE01.JPG,AFNE01.JPG,AFNE01.JPG,AFNE01.JPG,AFNE01.JPG,AFNE01.JPG,,,,,,,,,3,4,34,7,,,,,,,,,,,,,,,AMSA14.jpg,AMNE18.jpg,AMSA05.jpg,AMNE14.jpg,AMNE18.jpg,MN,1,num_6,32,num_2,1.48341570445,,,2017_Apr_20_1828,60.006139569,MAFE4ImagesEEG,001,200136,
AFNE01.JPG,AFNE01.JPG,AFNE01.JPG,AFNE01.JPG,AFNE01.JPG,AFNE01.JPG,,,,,,,,,3,5,35,8,,,,,,,,,,,,,,,AMSA20.jpg,AMSA14.jpg,AMNE03.jpg,AMNE04.jpg,AMNE03.jpg,MN,1,num_2,32,num_4,0.733167211874,,,2017_Apr_20_1828,60.006139569,MAFE4ImagesEEG,001,200136,
AFNE01.JPG,AFNE01.JPG,AFNE01.JPG,AFNE01.JPG,AFNE01.JPG,AFNE01.JPG,,,,,,,,,3,6,36,5,,,,,,,,,,,,,,,AMNE15.jpg,AMSA13.jpg,AMNE03.jpg,AMSA05.jpg,AMNE15.jpg,MN,1,num_8,16,num_8,0.766854437999,,,2017_Apr_20_1828,60.006139569,MAFE4ImagesEEG,001,200136,
AFNE01.JPG,AFNE01.JPG,AFNE01.JPG,AFNE01.JPG,AFNE01.JPG,AFNE01.JPG,,,,,,,,,3,7,37,6,,,,,,,,,,,,,,,AMNE03.jpg,AMNE07.jpg,AMSA13.jpg,AMSA19.jpg,AMSA19.jpg,MS,2,num_4,32,num_8,0.950134694343,,,2017_Apr_20_1828,60.006139569,MAFE4ImagesEEG,001,200136,
AFNE01.JPG,AFNE01.JPG,AFNE01.JPG,AFNE01.JPG,AFNE01.JPG,AFNE01.JPG,,,,,,,,,3,8,38,2,,,,,,,,,,,,,,,AMSA09.jpg,AMNE07.jpg,AMNE06.jpg,AMSA19.jpg,AMNE07.jpg,MN,1,num_6,16,num_6,0.616791525099,,,2017_Apr_20_1828,60.006139569,MAFE4ImagesEEG,001,200136,
AFNE01.JPG,AFNE01.JPG,AFNE01.JPG,AFNE01.JPG,AFNE01.JPG,AFNE01.JPG,,,,,,,,,3,9,39,9,,,,,,,,,,,,,,,AMNE09.jpg,AMSA04.jpg,AMSA06.jpg,AMNE12.jpg,AMNE09.jpg,MN,1,num_8,16,num_8,0.850099381001,,,2017_Apr_20_1828,60.006139569,MAFE4ImagesEEG,001,200136,
AFNE01.JPG,AFNE01.JPG,AFNE01.JPG,AFNE01.JPG,AFNE01.JPG,AFNE01.JPG,,,,,,,,,4,0,40,5,,,,,,,,,,,,,,,AMNE01.jpg,AMNE06.jpg,AMSA17.jpg,AMSA20.jpg,AMSA17.jpg,MS,2,num_2,16,num_2,1.30012582598,,,2017_Apr_20_1828,60.006139569,MAFE4ImagesEEG,001,200136,
AFNE01.JPG,AFNE01.JPG,AFNE01.JPG,AFNE01.JPG,AFNE01.JPG,AFNE01.JPG,,,,,,,,,4,1,41,0,,,,,,,,,,,,,,,AMNE04.jpg,AMNE09.jpg,AMSA19.jpg,AMSA03.jpg,AMSA03.jpg,MS,2,num_4,32,num_2,1.38339354144,,,2017_Apr_20_1828,60.006139569,MAFE4ImagesEEG,001,200136,
AFNE01.JPG,AFNE01.JPG,AFNE01.JPG,AFNE01.JPG,AFNE01.JPG,AFNE01.JPG,,,,,,,,,4,2,42,8,,,,,,,,,,,,,,,AMNE07.jpg,AMSA08.jpg,AMSA07.jpg,AMNE03.jpg,AMNE03.jpg,MN,1,num_4,32,num_6,0.883414229087,,,2017_Apr_20_1828,60.006139569,MAFE4ImagesEEG,001,200136,
AFNE01.JPG,AFNE01.JPG,AFNE01.JPG,AFNE01.JPG,AFNE01.JPG,AFNE01.JPG,,,,,,,,,4,3,43,9,,,,,,,,,,,,,,,AMSA03.jpg,AMNE08.jpg,AMSA08.jpg,AMNE14.jpg,AMSA03.jpg,MS,2,num_8,32,num_4,0.900173167058,,,2017_Apr_20_1828,60.006139569,MAFE4ImagesEEG,001,200136,
AFNE01.JPG,AFNE01.JPG,AFNE01.JPG,AFNE01.JPG,AFNE01.JPG,AFNE01.JPG,,,,,,,,,4,4,44,2,,,,,,,,,,,,,,,AMNE17.jpg,AMSA16.jpg,AMNE10.jpg,AMSA04.jpg,AMNE10.jpg,MN,1,num_2,32,num_6,1.28344867646,,,2017_Apr_20_1828,60.006139569,MAFE4ImagesEEG,001,200136,
AFNE01.JPG,AFNE01.JPG,AFNE01.JPG,AFNE01.JPG,AFNE01.JPG,AFNE01.JPG,,,,,,,,,4,5,45,7,,,,,,,,,,,,,,,AMSA07.jpg,AMSA08.jpg,AMNE08.jpg,AMNE12.jpg,AMSA07.jpg,MS,2,num_8,16,num_8,0.767553007696,,,2017_Apr_20_1828,60.006139569,MAFE4ImagesEEG,001,200136,
AFNE01.JPG,AFNE01.JPG,AFNE01.JPG,AFNE01.JPG,AFNE01.JPG,AFNE01.JPG,,,,,,,,,4,6,46,4,,,,,,,,,,,,,,,AMNE07.jpg,AMSA15.jpg,AMSA08.jpg,AMNE04.jpg,AMSA15.jpg,MS,2,num_6,16,num_6,0.466770949599,,,2017_Apr_20_1828,60.006139569,MAFE4ImagesEEG,001,200136,
AFNE01.JPG,AFNE01.JPG,AFNE01.JPG,AFNE01.JPG,AFNE01.JPG,AFNE01.JPG,,,,,,,,,4,7,47,3,,,,,,,,,,,,,,,AMSA15.jpg,AMSA16.jpg,AMNE07.jpg,AMNE12.jpg,AMSA16.jpg,MS,2,num_6,32,num_2,1.73341482243,,,2017_Apr_20_1828,60.006139569,MAFE4ImagesEEG,001,200136,
AFNE01.JPG,AFNE01.JPG,AFNE01.JPG,AFNE01.JPG,AFNE01.JPG,AFNE01.JPG,,,,,,,,,4,8,48,6,,,,,,,,,,,,,,,AMSA17.jpg,AMNE16.jpg,AMNE14.jpg,AMSA09.jpg,AMSA17.jpg,MS,2,num_8,16,num_8,0.966765336692,,,2017_Apr_20_1828,60.006139569,MAFE4ImagesEEG,001,200136,
AFNE01.JPG,AFNE01.JPG,AFNE01.JPG,AFNE01.JPG,AFNE01.JPG,AFNE01.JPG,,,,,,,,,4,9,49,1,,,,,,,,,,,,,,,AMNE15.jpg,AMNE19.jpg,AMSA10.jpg,AMSA17.jpg,AMSA10.jpg,MS,2,num_2,16,num_2,1.05009367183,,,2017_Apr_20_1828,60.006139569,MAFE4ImagesEEG,001,200136,
AFNE01.JPG,AFNE01.JPG,AFNE01.JPG,AFNE01.JPG,AFNE01.JPG,AFNE01.JPG,,,,,,,,,5,0,50,9,,,,,,,,,,,,,,,AMSA04.jpg,AMSA17.jpg,AMNE15.jpg,AMNE07.jpg,AMSA17.jpg,MS,2,num_6,32,num_8,0.733441443823,,,2017_Apr_20_1828,60.006139569,MAFE4ImagesEEG,001,200136,
AFNE01.JPG,AFNE01.JPG,AFNE01.JPG,AFNE01.JPG,AFNE01.JPG,AFNE01.JPG,,,,,,,,,5,1,51,4,,,,,,,,,,,,,,,AMNE16.jpg,AMNE03.jpg,AMSA10.jpg,AMSA05.jpg,AMNE03.jpg,MN,1,num_6,16,num_6,0.916796753125,,,2017_Apr_20_1828,60.006139569,MAFE4ImagesEEG,001,200136,
AFNE01.JPG,AFNE01.JPG,AFNE01.JPG,AFNE01.JPG,AFNE01.JPG,AFNE01.JPG,,,,,,,,,5,2,52,1,,,,,,,,,,,,,,,AMNE03.jpg,AMSA03.jpg,AMSA05.jpg,AMNE14.jpg,AMSA05.jpg,MS,2,num_2,32,num_8,0.83345398464,,,2017_Apr_20_1828,60.006139569,MAFE4ImagesEEG,001,200136,
AFNE01.JPG,AFNE01.JPG,AFNE01.JPG,AFNE01.JPG,AFNE01.JPG,AFNE01.JPG,,,,,,,,,5,3,53,0,,,,,,,,,,,,,,,AMSA19.jpg,AMSA01.jpg,AMNE16.jpg,AMNE08.jpg,AMSA19.jpg,MS,2,num_8,32,num_2,1.48361039313,,,2017_Apr_20_1828,60.006139569,MAFE4ImagesEEG,001,200136,
AFNE01.JPG,AFNE01.JPG,AFNE01.JPG,AFNE01.JPG,AFNE01.JPG,AFNE01.JPG,,,,,,,,,5,4,54,8,,,,,,,,,,,,,,,AMSA16.jpg,AMNE02.jpg,AMSA17.jpg,AMNE12.jpg,AMNE02.jpg,MN,1,num_6,16,num_6,0.800087176845,,,2017_Apr_20_1828,60.006139569,MAFE4ImagesEEG,001,200136,
AFNE01.JPG,AFNE01.JPG,AFNE01.JPG,AFNE01.JPG,AFNE01.JPG,AFNE01.JPG,,,,,,,,,5,5,55,7,,,,,,,,,,,,,,,AMNE09.jpg,AMSA12.jpg,AMNE12.jpg,AMSA13.jpg,AMSA13.jpg,MS,2,num_4,32,num_8,0.816820134991,,,2017_Apr_20_1828,60.006139569,MAFE4ImagesEEG,001,200136,
AFNE01.JPG,AFNE01.JPG,AFNE01.JPG,AFNE01.JPG,AFNE01.JPG,AFNE01.JPG,,,,,,,,,5,6,56,5,,,,,,,,,,,,,,,AMNE02.jpg,AMSA09.jpg,AMSA10.jpg,AMNE07.jpg,AMSA09.jpg,MS,2,num_6,16,num_6,0.7001182565,,,2017_Apr_20_1828,60.006139569,MAFE4ImagesEEG,001,200136,
AFNE01.JPG,AFNE01.JPG,AFNE01.JPG,AFNE01.JPG,AFNE01.JPG,AFNE01.JPG,,,,,,,,,5,7,57,6,,,,,,,,,,,,,,,AMSA10.jpg,AMSA18.jpg,AMNE16.jpg,AMNE04.jpg,AMSA18.jpg,MS,2,num_6,16,num_6,0.416752972233,,,2017_Apr_20_1828,60.006139569,MAFE4ImagesEEG,001,200136,
AFNE01.JPG,AFNE01.JPG,AFNE01.JPG,AFNE01.JPG,AFNE01.JPG,AFNE01.JPG,,,,,,,,,5,8,58,3,,,,,,,,,,,,,,,AMSA19.jpg,AMSA17.jpg,AMNE19.jpg,AMNE05.jpg,AMNE19.jpg,MN,1,num_2,16,num_2,1.2167599643,,,2017_Apr_20_1828,60.006139569,MAFE4ImagesEEG,001,200136,
AFNE01.JPG,AFNE01.JPG,AFNE01.JPG,AFNE01.JPG,AFNE01.JPG,AFNE01.JPG,,,,,,,,,5,9,59,2,,,,,,,,,,,,,,,AMSA13.jpg,AMNE09.jpg,AMSA19.jpg,AMNE15.jpg,AMSA13.jpg,MS,2,num_8,16,num_8,1.083458876,,,2017_Apr_20_1828,60.006139569,MAFE4ImagesEEG,001,200136,
,,,,,,,,,,,,,,,,,,,,,,,,,,,,,,,,,,,,,,,,,,,space,1.35006554303,2017_Apr_20_1828,60.006139569,MAFE4ImagesEEG,001,200136,
AFNE01.JPG,AFNE01.JPG,AFNE01.JPG,AFNE01.JPG,AFNE01.JPG,AFNE01.JPG,,,,,,,,,,,,,0,0,0,8,,,,,,,,,,,AFNE01.jpg,AFNE11.jpg,AFSA19.jpg,AFSA17.jpg,AFNE01.jpg,FN,3,num_8,16,num_8,0.750106405176,,,2017_Apr_20_1828,60.006139569,MAFE4ImagesEEG,001,200136,
AFNE01.JPG,AFNE01.JPG,AFNE01.JPG,AFNE01.JPG,AFNE01.JPG,AFNE01.JPG,,,,,,,,,,,,,0,1,1,7,,,,,,,,,,,AFSA12.jpg,AFNE04.jpg,AFSA05.jpg,AFNE10.jpg,AFSA05.jpg,FS,4,num_2,16,num_2,0.949962457467,,,2017_Apr_20_1828,60.006139569,MAFE4ImagesEEG,001,200136,
AFNE01.JPG,AFNE01.JPG,AFNE01.JPG,AFNE01.JPG,AFNE01.JPG,AFNE01.JPG,,,,,,,,,,,,,0,2,2,1,,,,,,,,,,,AFNE08.jpg,AFNE06.jpg,AFSA05.jpg,AFSA16.jpg,AFSA16.jpg,FS,4,num_4,16,num_4,0.916765320697,,,2017_Apr_20_1828,60.006139569,MAFE4ImagesEEG,001,200136,
AFNE01.JPG,AFNE01.JPG,AFNE01.JPG,AFNE01.JPG,AFNE01.JPG,AFNE01.JPG,,,,,,,,,,,,,0,3,3,0,,,,,,,,,,,AFSA16.jpg,AFNE15.jpg,AFNE03.jpg,AFSA07.jpg,AFNE03.jpg,FN,3,num_2,32,num_8,1.05016006483,,,2017_Apr_20_1828,60.006139569,MAFE4ImagesEEG,001,200136,
AFNE01.JPG,AFNE01.JPG,AFNE01.JPG,AFNE01.JPG,AFNE01.JPG,AFNE01.JPG,,,,,,,,,,,,,0,4,4,4,,,,,,,,,,,AFSA01.jpg,AFNE13.jpg,AFSA06.jpg,AFNE12.jpg,AFNE12.jpg,FN,3,num_4,16,num_4,1.17815837392,,,2017_Apr_20_1828,60.006139569,MAFE4ImagesEEG,001,200136,
AFNE01.JPG,AFNE01.JPG,AFNE01.JPG,AFNE01.JPG,AFNE01.JPG,AFNE01.JPG,,,,,,,,,,,,,0,5,5,5,,,,,,,,,,,AFSA12.jpg,AFSA08.jpg,AFNE20.jpg,AFNE08.jpg,AFSA08.jpg,FS,4,num_6,16,num_6,0.566735379689,,,2017_Apr_20_1828,60.006139569,MAFE4ImagesEEG,001,200136,
AFNE01.JPG,AFNE01.JPG,AFNE01.JPG,AFNE01.JPG,AFNE01.JPG,AFNE01.JPG,,,,,,,,,,,,,0,6,6,3,,,,,,,,,,,AFSA19.jpg,AFSA09.jpg,AFNE04.jpg,AFNE13.jpg,AFSA19.jpg,FS,4,num_8,32,num_6,1.06666497741,,,2017_Apr_20_1828,60.006139569,MAFE4ImagesEEG,001,200136,
AFNE01.JPG,AFNE01.JPG,AFNE01.JPG,AFNE01.JPG,AFNE01.JPG,AFNE01.JPG,,,,,,,,,,,,,0,7,7,6,,,,,,,,,,,AFNE02.jpg,AFSA11.jpg,AFNE03.jpg,AFSA01.jpg,AFNE02.jpg,FN,3,num_8,16,num_8,1.0336015888,,,2017_Apr_20_1828,60.006139569,MAFE4ImagesEEG,001,200136,
AFNE01.JPG,AFNE01.JPG,AFNE01.JPG,AFNE01.JPG,AFNE01.JPG,AFNE01.JPG,,,,,,,,,,,,,0,8,8,2,,,,,,,,,,,AFSA15.jpg,AFNE15.jpg,AFNE19.jpg,AFSA16.jpg,AFSA16.jpg,FS,4,num_4,16,num_4,0.783538323012,,,2017_Apr_20_1828,60.006139569,MAFE4ImagesEEG,001,200136,
AFNE01.JPG,AFNE01.JPG,AFNE01.JPG,AFNE01.JPG,AFNE01.JPG,AFNE01.JPG,,,,,,,,,,,,,0,9,9,9,,,,,,,,,,,AFNE12.jpg,AFNE09.jpg,AFSA07.jpg,AFSA08.jpg,AFNE12.jpg,FN,3,num_8,32,num_6,0.900068285351,,,2017_Apr_20_1828,60.006139569,MAFE4ImagesEEG,001,200136,
AFNE01.JPG,AFNE01.JPG,AFNE01.JPG,AFNE01.JPG,AFNE01.JPG,AFNE01.JPG,,,,,,,,,,,,,1,0,10,3,,,,,,,,,,,AFNE03.jpg,AFSA17.jpg,AFNE19.jpg,AFSA05.jpg,AFNE19.jpg,FN,3,num_2,16,num_2,0.866770436463,,,2017_Apr_20_1828,60.006139569,MAFE4ImagesEEG,001,200136,
AFNE01.JPG,AFNE01.JPG,AFNE01.JPG,AFNE01.JPG,AFNE01.JPG,AFNE01.JPG,,,,,,,,,,,,,1,1,11,2,,,,,,,,,,,AFNE18.jpg,AFNE06.jpg,AFSA07.jpg,AFSA04.jpg,AFNE06.jpg,FN,3,num_6,16,num_6,0.583282309119,,,2017_Apr_20_1828,60.006139569,MAFE4ImagesEEG,001,200136,
AFNE01.JPG,AFNE01.JPG,AFNE01.JPG,AFNE01.JPG,AFNE01.JPG,AFNE01.JPG,,,,,,,,,,,,,1,2,12,6,,,,,,,,,,,AFNE13.jpg,AFNE11.jpg,AFSA11.jpg,AFSA19.jpg,AFSA19.jpg,FS,4,num_4,16,num_4,0.783447874594,,,2017_Apr_20_1828,60.006139569,MAFE4ImagesEEG,001,200136,
AFNE01.JPG,AFNE01.JPG,AFNE01.JPG,AFNE01.JPG,AFNE01.JPG,AFNE01.JPG,,,,,,,,,,,,,1,3,13,1,,,,,,,,,,,AFNE04.jpg,AFSA02.jpg,AFNE08.jpg,AFSA08.jpg,AFSA08.jpg,FS,4,num_4,16,num_4,0.51684505638,,,2017_Apr_20_1828,60.006139569,MAFE4ImagesEEG,001,200136,
AFNE01.JPG,AFNE01.JPG,AFNE01.JPG,AFNE01.JPG,AFNE01.JPG,AFNE01.JPG,,,,,,,,,,,,,1,4,14,0,,,,,,,,,,,AFNE16.jpg,AFSA17.jpg,AFSA11.jpg,AFNE01.jpg,AFNE01.jpg,FN,3,num_4,32,num_8,0.833535131707,,,2017_Apr_20_1828,60.006139569,MAFE4ImagesEEG,001,200136,
AFNE01.JPG,AFNE01.JPG,AFNE01.JPG,AFNE01.JPG,AFNE01.JPG,AFNE01.JPG,,,,,,,,,,,,,1,5,15,7,,,,,,,,,,,AFNE09.jpg,AFSA18.jpg,AFSA17.jpg,AFNE18.jpg,AFSA17.jpg,FS,4,num_2,32,num_8,1.14978258702,,,2017_Apr_20_1828,60.006139569,MAFE4ImagesEEG,001,200136,
AFNE01.JPG,AFNE01.JPG,AFNE01.JPG,AFNE01.JPG,AFNE01.JPG,AFNE01.JPG,,,,,,,,,,,,,1,6,16,4,,,,,,,,,,,AFSA06.jpg,AFSA19.jpg,AFNE07.jpg,AFNE20.jpg,AFSA06.jpg,FS,4,num_8,16,num_8,1.18343805999,,,2017_Apr_20_1828,60.006139569,MAFE4ImagesEEG,001,200136,
AFNE01.JPG,AFNE01.JPG,AFNE01.JPG,AFNE01.JPG,AFNE01.JPG,AFNE01.JPG,,,,,,,,,,,,,1,7,17,9,,,,,,,,,,,AFNE15.jpg,AFSA12.jpg,AFNE11.jpg,AFSA14.jpg,AFNE11.jpg,FN,3,num_2,16,num_2,1.18345313473,,,2017_Apr_20_1828,60.006139569,MAFE4ImagesEEG,001,200136,
AFNE01.JPG,AFNE01.JPG,AFNE01.JPG,AFNE01.JPG,AFNE01.JPG,AFNE01.JPG,,,,,,,,,,,,,1,8,18,8,,,,,,,,,,,AFSA19.jpg,AFSA10.jpg,AFNE04.jpg,AFNE06.jpg,AFSA19.jpg,FS,4,num_8,16,num_8,0.500217621448,,,2017_Apr_20_1828,60.006139569,MAFE4ImagesEEG,001,200136,
AFNE01.JPG,AFNE01.JPG,AFNE01.JPG,AFNE01.JPG,AFNE01.JPG,AFNE01.JPG,,,,,,,,,,,,,1,9,19,5,,,,,,,,,,,AFNE04.jpg,AFSA11.jpg,AFSA02.jpg,AFNE09.jpg,AFSA11.jpg,FS,4,num_6,16,num_6,0.650186237122,,,2017_Apr_20_1828,60.006139569,MAFE4ImagesEEG,001,200136,
AFNE01.JPG,AFNE01.JPG,AFNE01.JPG,AFNE01.JPG,AFNE01.JPG,AFNE01.JPG,,,,,,,,,,,,,2,0,20,9,,,,,,,,,,,AFSA05.jpg,AFNE03.jpg,AFNE20.jpg,AFSA18.jpg,AFNE20.jpg,FN,3,num_2,32,num_8,0.75013847911,,,2017_Apr_20_1828,60.006139569,MAFE4ImagesEEG,001,200136,
AFNE01.JPG,AFNE01.JPG,AFNE01.JPG,AFNE01.JPG,AFNE01.JPG,AFNE01.JPG,,,,,,,,,,,,,2,1,21,4,,,,,,,,,,,AFNE04.jpg,AFSA07.jpg,AFNE14.jpg,AFSA03.jpg,AFNE04.jpg,FN,3,num_8,16,num_8,0.61681205238,,,2017_Apr_20_1828,60.006139569,MAFE4ImagesEEG,001,200136,
AFNE01.JPG,AFNE01.JPG,AFNE01.JPG,AFNE01.JPG,AFNE01.JPG,AFNE01.JPG,,,,,,,,,,,,,2,2,22,1,,,,,,,,,,,AFNE17.jpg,AFSA09.jpg,AFSA12.jpg,AFNE18.jpg,AFSA12.jpg,FS,4,num_2,16,num_2,1.41666059935,,,2017_Apr_20_1828,60.006139569,MAFE4ImagesEEG,001,200136,
AFNE01.JPG,AFNE01.JPG,AFNE01.JPG,AFNE01.JPG,AFNE01.JPG,AFNE01.JPG,,,,,,,,,,,,,2,3,23,3,,,,,,,,,,,AFNE02.jpg,AFSA07.jpg,AFNE06.jpg,AFSA09.jpg,AFSA07.jpg,FS,4,num_6,16,num_6,0.516657744825,,,2017_Apr_20_1828,60.006139569,MAFE4ImagesEEG,001,200136,
AFNE01.JPG,AFNE01.JPG,AFNE01.JPG,AFNE01.JPG,AFNE01.JPG,AFNE01.JPG,,,,,,,,,,,,,2,4,24,7,,,,,,,,,,,AFNE01.jpg,AFSA04.jpg,AFNE03.jpg,AFSA01.jpg,AFNE03.jpg,FN,3,num_2,16,num_2,1.05016038561,,,2017_Apr_20_1828,60.006139569,MAFE4ImagesEEG,001,200136,
AFNE01.JPG,AFNE01.JPG,AFNE01.JPG,AFNE01.JPG,AFNE01.JPG,AFNE01.JPG,,,,,,,,,,,,,2,5,25,6,,,,,,,,,,,AFNE01.jpg,AFSA15.jpg,AFNE07.jpg,AFSA03.jpg,AFSA03.jpg,FS,4,num_4,32,num_8,0.800057989603,,,2017_Apr_20_1828,60.006139569,MAFE4ImagesEEG,001,200136,
AFNE01.JPG,AFNE01.JPG,AFNE01.JPG,AFNE01.JPG,AFNE01.JPG,AFNE01.JPG,,,,,,,,,,,,,2,6,26,5,,,,,,,,,,,AFSA18.jpg,AFNE15.jpg,AFNE12.jpg,AFSA20.jpg,AFNE12.jpg,FN,3,num_2,16,num_2,0.800167682348,,,2017_Apr_20_1828,60.006139569,MAFE4ImagesEEG,001,200136,
AFNE01.JPG,AFNE01.JPG,AFNE01.JPG,AFNE01.JPG,AFNE01.JPG,AFNE01.JPG,,,,,,,,,,,,,2,7,27,2,,,,,,,,,,,AFNE03.jpg,AFSA11.jpg,AFSA13.jpg,AFNE16.jpg,AFNE03.jpg,FN,3,num_8,32,num_2,1.03342197492,,,2017_Apr_20_1828,60.006139569,MAFE4ImagesEEG,001,200136,
AFNE01.JPG,AFNE01.JPG,AFNE01.JPG,AFNE01.JPG,AFNE01.JPG,AFNE01.JPG,,,,,,,,,,,,,2,8,28,8,,,,,,,,,,,AFSA01.jpg,AFNE11.jpg,AFNE16.jpg,AFSA02.jpg,AFNE16.jpg,FN,3,num_2,32,num_4,0.533488207497,,,2017_Apr_20_1828,60.006139569,MAFE4ImagesEEG,001,200136,
AFNE01.JPG,AFNE01.JPG,AFNE01.JPG,AFNE01.JPG,AFNE01.JPG,AFNE01.JPG,,,,,,,,,,,,,2,9,29,0,,,,,,,,,,,AFNE02.jpg,AFSA08.jpg,AFSA18.jpg,AFNE07.jpg,AFNE02.jpg,FN,3,num_8,16,num_8,1.40006716276,,,2017_Apr_20_1828,60.006139569,MAFE4ImagesEEG,001,200136,
AFNE01.JPG,AFNE01.JPG,AFNE01.JPG,AFNE01.JPG,AFNE01.JPG,AFNE01.JPG,,,,,,,,,,,,,3,0,30,7,,,,,,,,,,,AFSA05.jpg,AFSA09.jpg,AFNE20.jpg,AFNE05.jpg,AFSA05.jpg,FS,4,num_8,16,num_8,1.06672303122,,,2017_Apr_20_1828,60.006139569,MAFE4ImagesEEG,001,200136,
AFNE01.JPG,AFNE01.JPG,AFNE01.JPG,AFNE01.JPG,AFNE01.JPG,AFNE01.JPG,,,,,,,,,,,,,3,1,31,9,,,,,,,,,,,AFSA17.jpg,AFNE06.jpg,AFNE19.jpg,AFSA06.jpg,AFNE06.jpg,FN,3,num_6,32,num_8,0.850128247519,,,2017_Apr_20_1828,60.006139569,MAFE4ImagesEEG,001,200136,
AFNE01.JPG,AFNE01.JPG,AFNE01.JPG,AFNE01.JPG,AFNE01.JPG,AFNE01.JPG,,,,,,,,,,,,,3,2,32,2,,,,,,,,,,,AFSA17.jpg,AFNE09.jpg,AFNE16.jpg,AFSA03.jpg,AFNE09.jpg,FN,3,num_6,16,num_6,0.650144861836,,,2017_Apr_20_1828,60.006139569,MAFE4ImagesEEG,001,200136,
AFNE01.JPG,AFNE01.JPG,AFNE01.JPG,AFNE01.JPG,AFNE01.JPG,AFNE01.JPG,,,,,,,,,,,,,3,3,33,5,,,,,,,,,,,AFNE13.jpg,AFSA05.jpg,AFNE19.jpg,AFSA04.jpg,AFSA04.jpg,FS,4,num_4,16,num_4,0.900131791655,,,2017_Apr_20_1828,60.006139569,MAFE4ImagesEEG,001,200136,
AFNE01.JPG,AFNE01.JPG,AFNE01.JPG,AFNE01.JPG,AFNE01.JPG,AFNE01.JPG,,,,,,,,,,,,,3,4,34,6,,,,,,,,,,,AFNE16.jpg,AFSA04.jpg,AFNE02.jpg,AFSA13.jpg,AFSA13.jpg,FS,4,num_4,32,num_2,0.883489602711,,,2017_Apr_20_1828,60.006139569,MAFE4ImagesEEG,001,200136,
AFNE01.JPG,AFNE01.JPG,AFNE01.JPG,AFNE01.JPG,AFNE01.JPG,AFNE01.JPG,,,,,,,,,,,,,3,5,35,0,,,,,,,,,,,AFSA08.jpg,AFSA01.jpg,AFNE19.jpg,AFNE20.jpg,AFSA01.jpg,FS,4,num_6,16,num_6,0.550174337695,,,2017_Apr_20_1828,60.006139569,MAFE4ImagesEEG,001,200136,
AFNE01.JPG,AFNE01.JPG,AFNE01.JPG,AFNE01.JPG,AFNE01.JPG,AFNE01.JPG,,,,,,,,,,,,,3,6,36,3,,,,,,,,,,,AFSA08.jpg,AFSA03.jpg,AFNE13.jpg,AFNE06.jpg,AFNE13.jpg,FN,3,num_2,16,num_2,0.733481215429,,,2017_Apr_20_1828,60.006139569,MAFE4ImagesEEG,001,200136,
AFNE01.JPG,AFNE01.JPG,AFNE01.JPG,AFNE01.JPG,AFNE01.JPG,AFNE01.JPG,,,,,,,,,,,,,3,7,37,4,,,,,,,,,,,AFSA19.jpg,AFNE16.jpg,AFNE06.jpg,AFSA20.jpg,AFSA20.jpg,FS,4,num_4,32,num_6,1.06680097082,,,2017_Apr_20_1828,60.006139569,MAFE4ImagesEEG,001,200136,
AFNE01.JPG,AFNE01.JPG,AFNE01.JPG,AFNE01.JPG,AFNE01.JPG,AFNE01.JPG,,,,,,,,,,,,,3,8,38,1,,,,,,,,,,,AFNE06.jpg,AFNE07.jpg,AFSA07.jpg,AFSA09.jpg,AFNE06.jpg,FN,3,num_8,32,num_2,0.500161171367,,,2017_Apr_20_1828,60.006139569,MAFE4ImagesEEG,001,200136,
AFNE01.JPG,AFNE01.JPG,AFNE01.JPG,AFNE01.JPG,AFNE01.JPG,AFNE01.JPG,,,,,,,,,,,,,3,9,39,8,,,,,,,,,,,AFNE12.jpg,AFSA12.jpg,AFSA02.jpg,AFNE06.jpg,AFNE06.jpg,FN,3,num_4,32,num_8,0.799925845175,,,2017_Apr_20_1828,60.006139569,MAFE4ImagesEEG,001,200136,
AFNE01.JPG,AFNE01.JPG,AFNE01.JPG,AFNE01.JPG,AFNE01.JPG,AFNE01.JPG,,,,,,,,,,,,,4,0,40,6,,,,,,,,,,,AFSA15.jpg,AFNE01.jpg,AFNE12.jpg,AFSA01.jpg,AFNE01.jpg,FN,3,num_6,16,num_6,0.900148790854,,,2017_Apr_20_1828,60.006139569,MAFE4ImagesEEG,001,200136,
AFNE01.JPG,AFNE01.JPG,AFNE01.JPG,AFNE01.JPG,AFNE01.JPG,AFNE01.JPG,,,,,,,,,,,,,4,1,41,9,,,,,,,,,,,AFNE01.jpg,AFNE18.jpg,AFSA17.jpg,AFSA02.jpg,AFSA17.jpg,FS,4,num_2,32,num_8,0.866749267676,,,2017_Apr_20_1828,60.006139569,MAFE4ImagesEEG,001,200136,
AFNE01.JPG,AFNE01.JPG,AFNE01.JPG,AFNE01.JPG,AFNE01.JPG,AFNE01.JPG,,,,,,,,,,,,,4,2,42,0,,,,,,,,,,,AFNE13.jpg,AFSA13.jpg,AFSA01.jpg,AFNE12.jpg,AFSA13.jpg,FS,4,num_6,32,num_8,0.850178924273,,,2017_Apr_20_1828,60.006139569,MAFE4ImagesEEG,001,200136,
AFNE01.JPG,AFNE01.JPG,AFNE01.JPG,AFNE01.JPG,AFNE01.JPG,AFNE01.JPG,,,,,,,,,,,,,4,3,43,4,,,,,,,,,,,AFNE17.jpg,AFSA16.jpg,AFNE09.jpg,AFSA14.jpg,AFSA14.jpg,FS,4,num_4,16,num_4,0.416822572588,,,2017_Apr_20_1828,60.006139569,MAFE4ImagesEEG,001,200136,
AFNE01.JPG,AFNE01.JPG,AFNE01.JPG,AFNE01.JPG,AFNE01.JPG,AFNE01.JPG,,,,,,,,,,,,,4,4,44,5,,,,,,,,,,,AFSA17.jpg,AFNE03.jpg,AFSA08.jpg,AFNE01.jpg,AFNE03.jpg,FN,3,num_6,16,num_6,0.766776498407,,,2017_Apr_20_1828,60.006139569,MAFE4ImagesEEG,001,200136,
AFNE01.JPG,AFNE01.JPG,AFNE01.JPG,AFNE01.JPG,AFNE01.JPG,AFNE01.JPG,,,,,,,,,,,,,4,5,45,2,,,,,,,,,,,AFSA08.jpg,AFSA17.jpg,AFNE19.jpg,AFNE01.jpg,AFNE01.jpg,FN,3,num_4,32,num_8,0.850135624525,,,2017_Apr_20_1828,60.006139569,MAFE4ImagesEEG,001,200136,
AFNE01.JPG,AFNE01.JPG,AFNE01.JPG,AFNE01.JPG,AFNE01.JPG,AFNE01.JPG,,,,,,,,,,,,,4,6,46,1,,,,,,,,,,,AFSA16.jpg,AFNE13.jpg,AFNE18.jpg,AFSA12.jpg,AFSA16.jpg,FS,4,num_8,32,num_4,1.08344412199,,,2017_Apr_20_1828,60.006139569,MAFE4ImagesEEG,001,200136,
AFNE01.JPG,AFNE01.JPG,AFNE01.JPG,AFNE01.JPG,AFNE01.JPG,AFNE01.JPG,,,,,,,,,,,,,4,7,47,3,,,,,,,,,,,AFNE01.jpg,AFSA17.jpg,AFSA05.jpg,AFNE09.jpg,AFNE01.jpg,FN,3,num_8,16,num_8,0.833428646263,,,2017_Apr_20_1828,60.006139569,MAFE4ImagesEEG,001,200136,
AFNE01.JPG,AFNE01.JPG,AFNE01.JPG,AFNE01.JPG,AFNE01.JPG,AFNE01.JPG,,,,,,,,,,,,,4,8,48,7,,,,,,,,,,,AFNE09.jpg,AFNE03.jpg,AFSA08.jpg,AFSA14.jpg,AFSA14.jpg,FS,4,num_4,16,num_4,0.466834776686,,,2017_Apr_20_1828,60.006139569,MAFE4ImagesEEG,001,200136,
AFNE01.JPG,AFNE01.JPG,AFNE01.JPG,AFNE01.JPG,AFNE01.JPG,AFNE01.JPG,,,,,,,,,,,,,4,9,49,8,,,,,,,,,,,AFNE09.jpg,AFNE01.jpg,AFSA15.jpg,AFSA01.jpg,AFSA15.jpg,FS,4,num_2,32,num_6,1.13347140083,,,2017_Apr_20_1828,60.006139569,MAFE4ImagesEEG,001,200136,
AFNE01.JPG,AFNE01.JPG,AFNE01.JPG,AFNE01.JPG,AFNE01.JPG,AFNE01.JPG,,,,,,,,,,,,,5,0,50,1,,,,,,,,,,,AFNE08.jpg,AFSA14.jpg,AFNE19.jpg,AFSA13.jpg,AFSA13.jpg,FS,4,num_4,32,num_8,1.00021297071,,,2017_Apr_20_1828,60.006139569,MAFE4ImagesEEG,001,200136,
AFNE01.JPG,AFNE01.JPG,AFNE01.JPG,AFNE01.JPG,AFNE01.JPG,AFNE01.JPG,,,,,,,,,,,,,5,1,51,0,,,,,,,,,,,AFNE14.jpg,AFNE03.jpg,AFSA16.jpg,AFSA04.jpg,AFNE14.jpg,FN,3,num_8,32,num_6,0.816744761309,,,2017_Apr_20_1828,60.006139569,MAFE4ImagesEEG,001,200136,
AFNE01.JPG,AFNE01.JPG,AFNE01.JPG,AFNE01.JPG,AFNE01.JPG,AFNE01.JPG,,,,,,,,,,,,,5,2,52,2,,,,,,,,,,,AFNE14.jpg,AFSA14.jpg,AFSA07.jpg,AFNE02.jpg,AFNE02.jpg,FN,3,num_4,32,num_8,0.833431532956,,,2017_Apr_20_1828,60.006139569,MAFE4ImagesEEG,001,200136,
AFNE01.JPG,AFNE01.JPG,AFNE01.JPG,AFNE01.JPG,AFNE01.JPG,AFNE01.JPG,,,,,,,,,,,,,5,3,53,4,,,,,,,,,,,AFSA03.jpg,AFNE11.jpg,AFSA19.jpg,AFNE19.jpg,AFSA19.jpg,FS,4,num_2,32,num_4,0.566749812977,,,2017_Apr_20_1828,60.006139569,MAFE4ImagesEEG,001,200136,
AFNE01.JPG,AFNE01.JPG,AFNE01.JPG,AFNE01.JPG,AFNE01.JPG,AFNE01.JPG,,,,,,,,,,,,,5,4,54,5,,,,,,,,,,,AFNE20.jpg,AFNE05.jpg,AFSA20.jpg,AFSA16.jpg,AFNE20.jpg,FN,3,num_8,32,num_6,0.750108329637,,,2017_Apr_20_1828,60.006139569,MAFE4ImagesEEG,001,200136,
AFNE01.JPG,AFNE01.JPG,AFNE01.JPG,AFNE01.JPG,AFNE01.JPG,AFNE01.JPG,,,,,,,,,,,,,5,5,55,6,,,,,,,,,,,AFSA20.jpg,AFNE10.jpg,AFNE19.jpg,AFSA16.jpg,AFSA20.jpg,FS,4,num_8,16,num_8,0.966775600333,,,2017_Apr_20_1828,60.006139569,MAFE4ImagesEEG,001,200136,
AFNE01.JPG,AFNE01.JPG,AFNE01.JPG,AFNE01.JPG,AFNE01.JPG,AFNE01.JPG,,,,,,,,,,,,,5,6,56,9,,,,,,,,,,,AFNE20.jpg,AFNE16.jpg,AFSA12.jpg,AFSA20.jpg,AFNE20.jpg,FN,3,num_8,32,num_2,1.18344415398,,,2017_Apr_20_1828,60.006139569,MAFE4ImagesEEG,001,200136,
AFNE01.JPG,AFNE01.JPG,AFNE01.JPG,AFNE01.JPG,AFNE01.JPG,AFNE01.JPG,,,,,,,,,,,,,5,7,57,3,,,,,,,,,,,AFSA19.jpg,AFSA10.jpg,AFNE20.jpg,AFNE17.jpg,AFSA10.jpg,FS,4,num_6,16,num_6,0.516791492992,,,2017_Apr_20_1828,60.006139569,MAFE4ImagesEEG,001,200136,
AFNE01.JPG,AFNE01.JPG,AFNE01.JPG,AFNE01.JPG,AFNE01.JPG,AFNE01.JPG,,,,,,,,,,,,,5,8,58,7,,,,,,,,,,,AFSA12.jpg,AFNE11.jpg,AFNE12.jpg,AFSA17.jpg,AFNE12.jpg,FN,3,num_2,16,num_2,0.933441828704,,,2017_Apr_20_1828,60.006139569,MAFE4ImagesEEG,001,200136,
AFNE01.JPG,AFNE01.JPG,AFNE01.JPG,AFNE01.JPG,AFNE01.JPG,AFNE01.JPG,,,,,,,,,,,,,5,9,59,8,,,,,,,,,,,AFSA14.jpg,AFNE04.jpg,AFSA08.jpg,AFNE20.jpg,AFSA14.jpg,FS,4,num_8,16,num_8,1.26671379391,,,2017_Apr_20_1828,60.006139569,MAFE4ImagesEEG,001,200136,
,,,,,,,,,,,,,,,,,,,,,,,,,,,,,,,,,,,,,,,,,,,space,1.68338337401,2017_Apr_20_1828,60.006139569,MAFE4ImagesEEG,001,200136,
AFNE01.JPG,AFNE01.JPG,AFNE01.JPG,AFNE01.JPG,AFNE01.JPG,AFNE01.JPG,,,,,,,,,,,,,,,,,0,0,0,5,,,,,,,AMSA05.jpg,AMSA02.jpg,AMNE17.jpg,AMNE12.jpg,AMSA05.jpg,MS,2,num_8,16,num_8,0.450078725466,,,2017_Apr_20_1828,60.006139569,MAFE4ImagesEEG,001,200136,
AFNE01.JPG,AFNE01.JPG,AFNE01.JPG,AFNE01.JPG,AFNE01.JPG,AFNE01.JPG,,,,,,,,,,,,,,,,,0,1,1,2,,,,,,,AMSA10.jpg,AMNE06.jpg,AMSA14.jpg,AMNE08.jpg,AMSA10.jpg,MS,2,num_8,16,num_8,0.683459709864,,,2017_Apr_20_1828,60.006139569,MAFE4ImagesEEG,001,200136,
AFNE01.JPG,AFNE01.JPG,AFNE01.JPG,AFNE01.JPG,AFNE01.JPG,AFNE01.JPG,,,,,,,,,,,,,,,,,0,2,2,0,,,,,,,AMNE13.jpg,AMSA11.jpg,AMSA14.jpg,AMNE17.jpg,AMNE17.jpg,MN,1,num_4,16,num_4,0.866777172021,,,2017_Apr_20_1828,60.006139569,MAFE4ImagesEEG,001,200136,
AFNE01.JPG,AFNE01.JPG,AFNE01.JPG,AFNE01.JPG,AFNE01.JPG,AFNE01.JPG,,,,,,,,,,,,,,,,,0,3,3,4,,,,,,,AMSA01.jpg,AMNE18.jpg,AMNE17.jpg,AMSA20.jpg,AMSA20.jpg,MS,2,num_4,16,num_4,0.800152928394,,,2017_Apr_20_1828,60.006139569,MAFE4ImagesEEG,001,200136,
AFNE01.JPG,AFNE01.JPG,AFNE01.JPG,AFNE01.JPG,AFNE01.JPG,AFNE01.JPG,,,,,,,,,,,,,,,,,0,4,4,7,,,,,,,AMSA09.jpg,AMSA10.jpg,AMNE13.jpg,AMNE01.jpg,AMNE13.jpg,MN,1,num_2,32,num_4,0.866747663938,,,2017_Apr_20_1828,60.006139569,MAFE4ImagesEEG,001,200136,
AFNE01.JPG,AFNE01.JPG,AFNE01.JPG,AFNE01.JPG,AFNE01.JPG,AFNE01.JPG,,,,,,,,,,,,,,,,,0,5,5,1,,,,,,,AMNE13.jpg,AMSA19.jpg,AMSA15.jpg,AMNE04.jpg,AMNE04.jpg,MN,1,num_4,16,num_4,0.616780940618,,,2017_Apr_20_1828,60.006139569,MAFE4ImagesEEG,001,200136,
AFNE01.JPG,AFNE01.JPG,AFNE01.JPG,AFNE01.JPG,AFNE01.JPG,AFNE01.JPG,,,,,,,,,,,,,,,,,0,6,6,3,,,,,,,AMSA17.jpg,AMNE08.jpg,AMNE02.jpg,AMSA08.jpg,AMNE02.jpg,MN,1,num_2,32,num_4,0.450199644081,,,2017_Apr_20_1828,60.006139569,MAFE4ImagesEEG,001,200136,
AFNE01.JPG,AFNE01.JPG,AFNE01.JPG,AFNE01.JPG,AFNE01.JPG,AFNE01.JPG,,,,,,,,,,,,,,,,,0,7,7,6,,,,,,,AMNE13.jpg,AMSA09.jpg,AMSA04.jpg,AMNE07.jpg,AMSA04.jpg,MS,2,num_2,32,num_6,0.716776161687,,,2017_Apr_20_1828,60.006139569,MAFE4ImagesEEG,001,200136,
AFNE01.JPG,AFNE01.JPG,AFNE01.JPG,AFNE01.JPG,AFNE01.JPG,AFNE01.JPG,,,,,,,,,,,,,,,,,0,8,8,9,,,,,,,AMSA20.jpg,AMSA15.jpg,AMNE17.jpg,AMNE13.jpg,AMNE17.jpg,MN,1,num_2,16,num_2,1.36671703338,,,2017_Apr_20_1828,60.006139569,MAFE4ImagesEEG,001,200136,
AFNE01.JPG,AFNE01.JPG,AFNE01.JPG,AFNE01.JPG,AFNE01.JPG,AFNE01.JPG,,,,,,,,,,,,,,,,,0,9,9,8,,,,,,,AMNE07.jpg,AMNE08.jpg,AMSA13.jpg,AMSA12.jpg,AMSA13.jpg,MS,2,num_2,32,num_8,0.916626440652,,,2017_Apr_20_1828,60.006139569,MAFE4ImagesEEG,001,200136,
AFNE01.JPG,AFNE01.JPG,AFNE01.JPG,AFNE01.JPG,AFNE01.JPG,AFNE01.JPG,,,,,,,,,,,,,,,,,1,0,10,7,,,,,,,AMNE16.jpg,AMSA17.jpg,AMSA19.jpg,AMNE15.jpg,AMNE16.jpg,MN,1,num_8,16,num_8,0.983418110001,,,2017_Apr_20_1828,60.006139569,MAFE4ImagesEEG,001,200136,
AFNE01.JPG,AFNE01.JPG,AFNE01.JPG,AFNE01.JPG,AFNE01.JPG,AFNE01.JPG,,,,,,,,,,,,,,,,,1,1,11,5,,,,,,,AMNE16.jpg,AMNE07.jpg,AMSA07.jpg,AMSA15.jpg,AMNE16.jpg,MN,1,num_8,16,num_8,0.983503747382,,,2017_Apr_20_1828,60.006139569,MAFE4ImagesEEG,001,200136,
AFNE01.JPG,AFNE01.JPG,AFNE01.JPG,AFNE01.JPG,AFNE01.JPG,AFNE01.JPG,,,,,,,,,,,,,,,,,1,2,12,4,,,,,,,AMSA11.jpg,AMNE11.jpg,AMNE12.jpg,AMSA06.jpg,AMNE12.jpg,MN,1,num_2,16,num_2,1.2334765647,,,2017_Apr_20_1828,60.006139569,MAFE4ImagesEEG,001,200136,
AFNE01.JPG,AFNE01.JPG,AFNE01.JPG,AFNE01.JPG,AFNE01.JPG,AFNE01.JPG,,,,,,,,,,,,,,,,,1,3,13,9,,,,,,,AMSA17.jpg,AMNE09.jpg,AMSA18.jpg,AMNE10.jpg,AMNE10.jpg,MN,1,num_4,16,num_4,0.600129450264,,,2017_Apr_20_1828,60.006139569,MAFE4ImagesEEG,001,200136,
AFNE01.JPG,AFNE01.JPG,AFNE01.JPG,AFNE01.JPG,AFNE01.JPG,AFNE01.JPG,,,,,,,,,,,,,,,,,1,4,14,3,,,,,,,AMNE04.jpg,AMSA05.jpg,AMNE05.jpg,AMSA19.jpg,AMSA05.jpg,MS,2,num_6,16,num_6,0.800081724301,,,2017_Apr_20_1828,60.006139569,MAFE4ImagesEEG,001,200136,
AFNE01.JPG,AFNE01.JPG,AFNE01.JPG,AFNE01.JPG,AFNE01.JPG,AFNE01.JPG,,,,,,,,,,,,,,,,,1,5,15,8,,,,,,,AMNE20.jpg,AMNE11.jpg,AMSA03.jpg,AMSA01.jpg,AMNE20.jpg,MN,1,num_8,32,num_4,0.833453984698,,,2017_Apr_20_1828,60.006139569,MAFE4ImagesEEG,001,200136,
AFNE01.JPG,AFNE01.JPG,AFNE01.JPG,AFNE01.JPG,AFNE01.JPG,AFNE01.JPG,,,,,,,,,,,,,,,,,1,6,16,0,,,,,,,AMNE15.jpg,AMNE17.jpg,AMSA12.jpg,AMSA03.jpg,AMNE15.jpg,MN,1,num_8,16,num_8,0.933407188859,,,2017_Apr_20_1828,60.006139569,MAFE4ImagesEEG,001,200136,
AFNE01.JPG,AFNE01.JPG,AFNE01.JPG,AFNE01.JPG,AFNE01.JPG,AFNE01.JPG,,,,,,,,,,,,,,,,,1,7,17,2,,,,,,,AMSA02.jpg,AMNE19.jpg,AMNE02.jpg,AMSA04.jpg,AMNE19.jpg,MN,1,num_6,16,num_6,1.21673783334,,,2017_Apr_20_1828,60.006139569,MAFE4ImagesEEG,001,200136,
AFNE01.JPG,AFNE01.JPG,AFNE01.JPG,AFNE01.JPG,AFNE01.JPG,AFNE01.JPG,,,,,,,,,,,,,,,,,1,8,18,1,,,,,,,AMSA02.jpg,AMSA11.jpg,AMNE11.jpg,AMNE03.jpg,AMSA11.jpg,MS,2,num_6,32,num_2,1.11671695323,,,2017_Apr_20_1828,60.006139569,MAFE4ImagesEEG,001,200136,
AFNE01.JPG,AFNE01.JPG,AFNE01.JPG,AFNE01.JPG,AFNE01.JPG,AFNE01.JPG,,,,,,,,,,,,,,,,,1,9,19,6,,,,,,,AMNE13.jpg,AMSA20.jpg,AMNE11.jpg,AMSA16.jpg,AMNE11.jpg,MN,1,num_2,16,num_2,1.18340662756,,,2017_Apr_20_1828,60.006139569,MAFE4ImagesEEG,001,200136,
AFNE01.JPG,AFNE01.JPG,AFNE01.JPG,AFNE01.JPG,AFNE01.JPG,AFNE01.JPG,,,,,,,,,,,,,,,,,2,0,20,1,,,,,,,AMNE19.jpg,AMNE11.jpg,AMSA05.jpg,AMSA16.jpg,AMSA05.jpg,MS,2,num_2,32,num_4,0.783463590837,,,2017_Apr_20_1828,60.006139569,MAFE4ImagesEEG,001,200136,
AFNE01.JPG,AFNE01.JPG,AFNE01.JPG,AFNE01.JPG,AFNE01.JPG,AFNE01.JPG,,,,,,,,,,,,,,,,,2,1,21,7,,,,,,,AMSA19.jpg,AMNE05.jpg,AMNE04.jpg,AMSA16.jpg,AMSA16.jpg,MS,2,num_4,16,num_4,0.700197158323,,,2017_Apr_20_1828,60.006139569,MAFE4ImagesEEG,001,200136,
AFNE01.JPG,AFNE01.JPG,AFNE01.JPG,AFNE01.JPG,AFNE01.JPG,AFNE01.JPG,,,,,,,,,,,,,,,,,2,2,22,5,,,,,,,AMNE15.jpg,AMNE12.jpg,AMSA07.jpg,AMSA06.jpg,AMNE15.jpg,MN,1,num_8,32,num_6,0.816803135793,,,2017_Apr_20_1828,60.006139569,MAFE4ImagesEEG,001,200136,
AFNE01.JPG,AFNE01.JPG,AFNE01.JPG,AFNE01.JPG,AFNE01.JPG,AFNE01.JPG,,,,,,,,,,,,,,,,,2,3,23,0,,,,,,,AMSA02.jpg,AMNE07.jpg,AMSA10.jpg,AMNE09.jpg,AMNE09.jpg,MN,1,num_4,16,num_4,0.45014223177,,,2017_Apr_20_1828,60.006139569,MAFE4ImagesEEG,001,200136,
AFNE01.JPG,AFNE01.JPG,AFNE01.JPG,AFNE01.JPG,AFNE01.JPG,AFNE01.JPG,,,,,,,,,,,,,,,,,2,4,24,9,,,,,,,AMSA08.jpg,AMSA05.jpg,AMNE14.jpg,AMNE13.jpg,AMSA05.jpg,MS,2,num_6,16,num_6,0.90008881269,,,2017_Apr_20_1828,60.006139569,MAFE4ImagesEEG,001,200136,
AFNE01.JPG,AFNE01.JPG,AFNE01.JPG,AFNE01.JPG,AFNE01.JPG,AFNE01.JPG,,,,,,,,,,,,,,,,,2,5,25,2,,,,,,,AMSA20.jpg,AMNE15.jpg,AMSA17.jpg,AMNE17.jpg,AMSA17.jpg,MS,2,num_2,32,num_8,1.13346530678,,,2017_Apr_20_1828,60.006139569,MAFE4ImagesEEG,001,200136,
AFNE01.JPG,AFNE01.JPG,AFNE01.JPG,AFNE01.JPG,AFNE01.JPG,AFNE01.JPG,,,,,,,,,,,,,,,,,2,6,26,8,,,,,,,AMNE06.jpg,AMNE01.jpg,AMSA05.jpg,AMSA12.jpg,AMSA05.jpg,MS,2,num_2,32,num_8,1.13364492066,,,2017_Apr_20_1828,60.006139569,MAFE4ImagesEEG,001,200136,
AFNE01.JPG,AFNE01.JPG,AFNE01.JPG,AFNE01.JPG,AFNE01.JPG,AFNE01.JPG,,,,,,,,,,,,,,,,,2,7,27,4,,,,,,,AMNE15.jpg,AMSA15.jpg,AMSA10.jpg,AMNE02.jpg,AMSA15.jpg,MS,2,num_6,16,num_6,0.76679895015,,,2017_Apr_20_1828,60.006139569,MAFE4ImagesEEG,001,200136,
AFNE01.JPG,AFNE01.JPG,AFNE01.JPG,AFNE01.JPG,AFNE01.JPG,AFNE01.JPG,,,,,,,,,,,,,,,,,2,8,28,6,,,,,,,AMSA18.jpg,AMNE12.jpg,AMNE11.jpg,AMSA15.jpg,AMNE11.jpg,MN,1,num_2,32,num_6,1.10013506323,,,2017_Apr_20_1828,60.006139569,MAFE4ImagesEEG,001,200136,
AFNE01.JPG,AFNE01.JPG,AFNE01.JPG,AFNE01.JPG,AFNE01.JPG,AFNE01.JPG,,,,,,,,,,,,,,,,,2,9,29,3,,,,,,,AMNE06.jpg,AMSA16.jpg,AMNE16.jpg,AMSA09.jpg,AMNE16.jpg,MN,1,num_2,16,num_2,1.35011172947,,,2017_Apr_20_1828,60.006139569,MAFE4ImagesEEG,001,200136,
AFNE01.JPG,AFNE01.JPG,AFNE01.JPG,AFNE01.JPG,AFNE01.JPG,AFNE01.JPG,,,,,,,,,,,,,,,,,3,0,30,1,,,,,,,AMNE13.jpg,AMSA16.jpg,AMSA01.jpg,AMNE17.jpg,AMNE17.jpg,MN,1,num_4,32,num_8,0.86676145572,,,2017_Apr_20_1828,60.006139569,MAFE4ImagesEEG,001,200136,
AFNE01.JPG,AFNE01.JPG,AFNE01.JPG,AFNE01.JPG,AFNE01.JPG,AFNE01.JPG,,,,,,,,,,,,,,,,,3,1,31,8,,,,,,,AMNE07.jpg,AMNE01.jpg,AMSA12.jpg,AMSA06.jpg,AMSA06.jpg,MS,2,num_4,16,num_4,0.516795341857,,,2017_Apr_20_1828,60.006139569,MAFE4ImagesEEG,001,200136,
AFNE01.JPG,AFNE01.JPG,AFNE01.JPG,AFNE01.JPG,AFNE01.JPG,AFNE01.JPG,,,,,,,,,,,,,,,,,3,2,32,6,,,,,,,AMSA11.jpg,AMSA09.jpg,AMNE09.jpg,AMNE16.jpg,AMNE16.jpg,MN,1,num_4,32,num_8,0.783474816708,,,2017_Apr_20_1828,60.006139569,MAFE4ImagesEEG,001,200136,
AFNE01.JPG,AFNE01.JPG,AFNE01.JPG,AFNE01.JPG,AFNE01.JPG,AFNE01.JPG,,,,,,,,,,,,,,,,,3,3,33,2,,,,,,,AMNE16.jpg,AMSA12.jpg,AMSA15.jpg,AMNE14.jpg,AMSA12.jpg,MS,2,num_6,16,num_6,0.683453615813,,,2017_Apr_20_1828,60.006139569,MAFE4ImagesEEG,001,200136,
AFNE01.JPG,AFNE01.JPG,AFNE01.JPG,AFNE01.JPG,AFNE01.JPG,AFNE01.JPG,,,,,,,,,,,,,,,,,3,4,34,0,,,,,,,AMNE14.jpg,AMSA17.jpg,AMNE12.jpg,AMSA20.jpg,AMSA17.jpg,MS,2,num_6,16,num_6,0.933435734594,,,2017_Apr_20_1828,60.006139569,MAFE4ImagesEEG,001,200136,
AFNE01.JPG,AFNE01.JPG,AFNE01.JPG,AFNE01.JPG,AFNE01.JPG,AFNE01.JPG,,,,,,,,,,,,,,,,,3,5,35,4,,,,,,,AMNE20.jpg,AMNE10.jpg,AMSA15.jpg,AMSA13.jpg,AMSA15.jpg,MS,2,num_2,32,num_6,1.26672758569,,,2017_Apr_20_1828,60.006139569,MAFE4ImagesEEG,001,200136,
AFNE01.JPG,AFNE01.JPG,AFNE01.JPG,AFNE01.JPG,AFNE01.JPG,AFNE01.JPG,,,,,,,,,,,,,,,,,3,6,36,7,,,,,,,AMSA01.jpg,AMSA09.jpg,AMNE20.jpg,AMNE07.jpg,AMNE07.jpg,MN,1,num_4,32,num_8,0.916806375317,,,2017_Apr_20_1828,60.006139569,MAFE4ImagesEEG,001,200136,
AFNE01.JPG,AFNE01.JPG,AFNE01.JPG,AFNE01.JPG,AFNE01.JPG,AFNE01.JPG,,,,,,,,,,,,,,,,,3,7,37,9,,,,,,,AMNE17.jpg,AMSA05.jpg,AMSA13.jpg,AMNE08.jpg,AMNE08.jpg,MN,1,num_4,16,num_4,0.833506585914,,,2017_Apr_20_1828,60.006139569,MAFE4ImagesEEG,001,200136,
AFNE01.JPG,AFNE01.JPG,AFNE01.JPG,AFNE01.JPG,AFNE01.JPG,AFNE01.JPG,,,,,,,,,,,,,,,,,3,8,38,3,,,,,,,AMSA13.jpg,AMNE03.jpg,AMNE12.jpg,AMSA02.jpg,AMSA02.jpg,MS,2,num_4,32,num_6,1.18343164516,,,2017_Apr_20_1828,60.006139569,MAFE4ImagesEEG,001,200136,
AFNE01.JPG,AFNE01.JPG,AFNE01.JPG,AFNE01.JPG,AFNE01.JPG,AFNE01.JPG,,,,,,,,,,,,,,,,,3,9,39,5,,,,,,,AMSA05.jpg,AMNE15.jpg,AMNE14.jpg,AMSA17.jpg,AMNE14.jpg,MN,1,num_2,32,num_6,1.06674612442,,,2017_Apr_20_1828,60.006139569,MAFE4ImagesEEG,001,200136,
AFNE01.JPG,AFNE01.JPG,AFNE01.JPG,AFNE01.JPG,AFNE01.JPG,AFNE01.JPG,,,,,,,,,,,,,,,,,4,0,40,3,,,,,,,AMNE10.jpg,AMSA13.jpg,AMSA07.jpg,AMNE07.jpg,AMSA13.jpg,MS,2,num_6,16,num_6,0.933435093146,,,2017_Apr_20_1828,60.006139569,MAFE4ImagesEEG,001,200136,
AFNE01.JPG,AFNE01.JPG,AFNE01.JPG,AFNE01.JPG,AFNE01.JPG,AFNE01.JPG,,,,,,,,,,,,,,,,,4,1,41,0,,,,,,,AMSA08.jpg,AMNE10.jpg,AMNE18.jpg,AMSA05.jpg,AMSA05.jpg,MS,2,num_4,32,num_2,1.70003903395,,,2017_Apr_20_1828,60.006139569,MAFE4ImagesEEG,001,200136,
AFNE01.JPG,AFNE01.JPG,AFNE01.JPG,AFNE01.JPG,AFNE01.JPG,AFNE01.JPG,,,,,,,,,,,,,,,,,4,2,42,2,,,,,,,AMSA19.jpg,AMNE14.jpg,AMNE01.jpg,AMSA12.jpg,AMNE01.jpg,MN,1,num_2,16,num_2,0.933423867275,,,2017_Apr_20_1828,60.006139569,MAFE4ImagesEEG,001,200136,
AFNE01.JPG,AFNE01.JPG,AFNE01.JPG,AFNE01.JPG,AFNE01.JPG,AFNE01.JPG,,,,,,,,,,,,,,,,,4,3,43,9,,,,,,,AMSA08.jpg,AMSA20.jpg,AMNE20.jpg,AMNE04.jpg,AMNE20.jpg,MN,1,num_2,16,num_2,1.05007955933,,,2017_Apr_20_1828,60.006139569,MAFE4ImagesEEG,001,200136,
AFNE01.JPG,AFNE01.JPG,AFNE01.JPG,AFNE01.JPG,AFNE01.JPG,AFNE01.JPG,,,,,,,,,,,,,,,,,4,4,44,5,,,,,,,AMSA10.jpg,AMNE07.jpg,AMSA09.jpg,AMNE08.jpg,AMSA09.jpg,MS,2,num_2,16,num_2,1.40009859519,,,2017_Apr_20_1828,60.006139569,MAFE4ImagesEEG,001,200136,
AFNE01.JPG,AFNE01.JPG,AFNE01.JPG,AFNE01.JPG,AFNE01.JPG,AFNE01.JPG,,,,,,,,,,,,,,,,,4,5,45,8,,,,,,,AMSA13.jpg,AMNE11.jpg,AMSA15.jpg,AMNE13.jpg,AMSA15.jpg,MS,2,num_2,16,num_2,1.04980981775,,,2017_Apr_20_1828,60.006139569,MAFE4ImagesEEG,001,200136,
AFNE01.JPG,AFNE01.JPG,AFNE01.JPG,AFNE01.JPG,AFNE01.JPG,AFNE01.JPG,,,,,,,,,,,,,,,,,4,6,46,6,,,,,,,AMNE14.jpg,AMSA20.jpg,AMSA18.jpg,AMNE18.jpg,AMSA20.jpg,MS,2,num_6,16,num_6,0.683519046637,,,2017_Apr_20_1828,60.006139569,MAFE4ImagesEEG,001,200136,
AFNE01.JPG,AFNE01.JPG,AFNE01.JPG,AFNE01.JPG,AFNE01.JPG,AFNE01.JPG,,,,,,,,,,,,,,,,,4,7,47,1,,,,,,,AMSA04.jpg,AMNE15.jpg,AMSA07.jpg,AMNE17.jpg,AMNE15.jpg,MN,1,num_6,32,num_4,0.750135271752,,,2017_Apr_20_1828,60.006139569,MAFE4ImagesEEG,001,200136,
AFNE01.JPG,AFNE01.JPG,AFNE01.JPG,AFNE01.JPG,AFNE01.JPG,AFNE01.JPG,,,,,,,,,,,,,,,,,4,8,48,7,,,,,,,AMNE05.jpg,AMSA06.jpg,AMSA04.jpg,AMNE16.jpg,AMSA04.jpg,MS,2,num_2,16,num_2,1.28371521062,,,2017_Apr_20_1828,60.006139569,MAFE4ImagesEEG,001,200136,
AFNE01.JPG,AFNE01.JPG,AFNE01.JPG,AFNE01.JPG,AFNE01.JPG,AFNE01.JPG,,,,,,,,,,,,,,,,,4,9,49,4,,,,,,,AMNE17.jpg,AMSA12.jpg,AMSA03.jpg,AMNE13.jpg,AMNE13.jpg,MN,1,num_4,16,num_4,0.93346877076,,,2017_Apr_20_1828,60.006139569,MAFE4ImagesEEG,001,200136,
AFNE01.JPG,AFNE01.JPG,AFNE01.JPG,AFNE01.JPG,AFNE01.JPG,AFNE01.JPG,,,,,,,,,,,,,,,,,5,0,50,0,,,,,,,AMSA15.jpg,AMSA07.jpg,AMNE18.jpg,AMNE13.jpg,AMSA07.jpg,MS,2,num_6,32,num_4,0.933450167882,,,2017_Apr_20_1828,60.006139569,MAFE4ImagesEEG,001,200136,
AFNE01.JPG,AFNE01.JPG,AFNE01.JPG,AFNE01.JPG,AFNE01.JPG,AFNE01.JPG,,,,,,,,,,,,,,,,,5,1,51,8,,,,,,,AMSA08.jpg,AMSA05.jpg,AMNE12.jpg,AMNE18.jpg,AMSA05.jpg,MS,2,num_6,32,num_4,0.95012603444,,,2017_Apr_20_1828,60.006139569,MAFE4ImagesEEG,001,200136,
AFNE01.JPG,AFNE01.JPG,AFNE01.JPG,AFNE01.JPG,AFNE01.JPG,AFNE01.JPG,,,,,,,,,,,,,,,,,5,2,52,4,,,,,,,AMSA13.jpg,AMNE20.jpg,AMSA14.jpg,AMNE18.jpg,AMNE20.jpg,MN,1,num_6,32,num_8,0.81674828945,,,2017_Apr_20_1828,60.006139569,MAFE4ImagesEEG,001,200136,
AFNE01.JPG,AFNE01.JPG,AFNE01.JPG,AFNE01.JPG,AFNE01.JPG,AFNE01.JPG,,,,,,,,,,,,,,,,,5,3,53,5,,,,,,,AMSA08.jpg,AMSA17.jpg,AMNE04.jpg,AMNE10.jpg,AMNE04.jpg,MN,1,num_2,16,num_2,0.933443111659,,,2017_Apr_20_1828,60.006139569,MAFE4ImagesEEG,001,200136,
AFNE01.JPG,AFNE01.JPG,AFNE01.JPG,AFNE01.JPG,AFNE01.JPG,AFNE01.JPG,,,,,,,,,,,,,,,,,5,4,54,2,,,,,,,AMSA15.jpg,AMNE19.jpg,AMSA05.jpg,AMNE04.jpg,AMNE04.jpg,MN,1,num_4,16,num_4,0.850132737891,,,2017_Apr_20_1828,60.006139569,MAFE4ImagesEEG,001,200136,
AFNE01.JPG,AFNE01.JPG,AFNE01.JPG,AFNE01.JPG,AFNE01.JPG,AFNE01.JPG,,,,,,,,,,,,,,,,,5,5,55,9,,,,,,,AMSA10.jpg,AMNE01.jpg,AMNE07.jpg,AMSA08.jpg,AMSA08.jpg,MS,2,num_4,16,num_4,0.950140146946,,,2017_Apr_20_1828,60.006139569,MAFE4ImagesEEG,001,200136,
AFNE01.JPG,AFNE01.JPG,AFNE01.JPG,AFNE01.JPG,AFNE01.JPG,AFNE01.JPG,,,,,,,,,,,,,,,,,5,6,56,3,,,,,,,AMSA19.jpg,AMNE02.jpg,AMSA06.jpg,AMNE08.jpg,AMNE08.jpg,MN,1,num_4,16,num_4,0.616819750052,,,2017_Apr_20_1828,60.006139569,MAFE4ImagesEEG,001,200136,
AFNE01.JPG,AFNE01.JPG,AFNE01.JPG,AFNE01.JPG,AFNE01.JPG,AFNE01.JPG,,,,,,,,,,,,,,,,,5,7,57,1,,,,,,,AMNE16.jpg,AMNE12.jpg,AMSA10.jpg,AMSA08.jpg,AMSA08.jpg,MS,2,num_4,16,num_4,0.94997817371,,,2017_Apr_20_1828,60.006139569,MAFE4ImagesEEG,001,200136,
AFNE01.JPG,AFNE01.JPG,AFNE01.JPG,AFNE01.JPG,AFNE01.JPG,AFNE01.JPG,,,,,,,,,,,,,,,,,5,8,58,6,,,,,,,AMSA05.jpg,AMNE16.jpg,AMSA17.jpg,AMNE08.jpg,AMSA17.jpg,MS,2,num_2,16,num_2,1.20012451091,,,2017_Apr_20_1828,60.006139569,MAFE4ImagesEEG,001,200136,
AFNE01.JPG,AFNE01.JPG,AFNE01.JPG,AFNE01.JPG,AFNE01.JPG,AFNE01.JPG,,,,,,,,,,,,,,,,,5,9,59,7,,,,,,,AMSA18.jpg,AMSA12.jpg,AMNE10.jpg,AMNE07.jpg,AMNE07.jpg,MN,1,num_4,32,num_8,1.2834028108,,,2017_Apr_20_1828,60.006139569,MAFE4ImagesEEG,001,200136,
,,,,,,,,,,,,,,,,,,,,,,,,,,,,,,,,,,,,,,,,,,,space,1.73336222122,2017_Apr_20_1828,60.006139569,MAFE4ImagesEEG,001,200136,
AFNE01.JPG,AFNE01.JPG,AFNE01.JPG,AFNE01.JPG,AFNE01.JPG,AFNE01.JPG,,,,,,,,,,,,,,,,,,,,,0,0,0,3,,,AFNE03.jpg,AFSA13.jpg,AFNE11.jpg,AFSA06.jpg,AFNE11.jpg,FN,3,num_2,32,num_6,1.06670731498,,,2017_Apr_20_1828,60.006139569,MAFE4ImagesEEG,001,200136,
AFNE01.JPG,AFNE01.JPG,AFNE01.JPG,AFNE01.JPG,AFNE01.JPG,AFNE01.JPG,,,,,,,,,,,,,,,,,,,,,0,1,1,9,,,AFNE03.jpg,AFSA03.jpg,AFNE15.jpg,AFSA20.jpg,AFNE15.jpg,FN,3,num_2,16,num_2,1.083398577,,,2017_Apr_20_1828,60.006139569,MAFE4ImagesEEG,001,200136,
AFNE01.JPG,AFNE01.JPG,AFNE01.JPG,AFNE01.JPG,AFNE01.JPG,AFNE01.JPG,,,,,,,,,,,,,,,,,,,,,0,2,2,5,,,AFSA13.jpg,AFSA06.jpg,AFNE15.jpg,AFNE12.jpg,AFSA13.jpg,FS,4,num_8,16,num_8,0.950121864793,,,2017_Apr_20_1828,60.006139569,MAFE4ImagesEEG,001,200136,
AFNE01.JPG,AFNE01.JPG,AFNE01.JPG,AFNE01.JPG,AFNE01.JPG,AFNE01.JPG,,,,,,,,,,,,,,,,,,,,,0,3,3,0,,,AFSA13.jpg,AFSA17.jpg,AFNE18.jpg,AFNE11.jpg,AFSA13.jpg,FS,4,num_8,32,num_6,0.550145471236,,,2017_Apr_20_1828,60.006139569,MAFE4ImagesEEG,001,200136,
AFNE01.JPG,AFNE01.JPG,AFNE01.JPG,AFNE01.JPG,AFNE01.JPG,AFNE01.JPG,,,,,,,,,,,,,,,,,,,,,0,4,4,2,,,AFNE01.jpg,AFSA10.jpg,AFNE08.jpg,AFSA06.jpg,AFSA10.jpg,FS,4,num_6,16,num_6,0.933454658254,,,2017_Apr_20_1828,60.006139569,MAFE4ImagesEEG,001,200136,
AFNE01.JPG,AFNE01.JPG,AFNE01.JPG,AFNE01.JPG,AFNE01.JPG,AFNE01.JPG,,,,,,,,,,,,,,,,,,,,,0,5,5,1,,,AFNE04.jpg,AFSA11.jpg,AFNE15.jpg,AFSA19.jpg,AFNE04.jpg,FN,3,num_8,16,num_8,1.21675900207,,,2017_Apr_20_1828,60.006139569,MAFE4ImagesEEG,001,200136,
AFNE01.JPG,AFNE01.JPG,AFNE01.JPG,AFNE01.JPG,AFNE01.JPG,AFNE01.JPG,,,,,,,,,,,,,,,,,,,,,0,6,6,6,,,AFSA07.jpg,AFNE02.jpg,AFSA05.jpg,AFNE05.jpg,AFNE02.jpg,FN,3,num_6,32,num_8,1.21672019269,,,2017_Apr_20_1828,60.006139569,MAFE4ImagesEEG,001,200136,
AFNE01.JPG,AFNE01.JPG,AFNE01.JPG,AFNE01.JPG,AFNE01.JPG,AFNE01.JPG,,,,,,,,,,,,,,,,,,,,,0,7,7,8,,,AFNE06.jpg,AFSA11.jpg,AFNE17.jpg,AFSA09.jpg,AFNE17.jpg,FN,3,num_2,16,num_2,1.01675957948,,,2017_Apr_20_1828,60.006139569,MAFE4ImagesEEG,001,200136,
AFNE01.JPG,AFNE01.JPG,AFNE01.JPG,AFNE01.JPG,AFNE01.JPG,AFNE01.JPG,,,,,,,,,,,,,,,,,,,,,0,8,8,4,,,AFNE16.jpg,AFSA20.jpg,AFNE07.jpg,AFSA03.jpg,AFSA03.jpg,FS,4,num_4,32,num_6,0.800104496768,,,2017_Apr_20_1828,60.006139569,MAFE4ImagesEEG,001,200136,
AFNE01.JPG,AFNE01.JPG,AFNE01.JPG,AFNE01.JPG,AFNE01.JPG,AFNE01.JPG,,,,,,,,,,,,,,,,,,,,,0,9,9,7,,,AFNE17.jpg,AFSA12.jpg,AFNE11.jpg,AFSA20.jpg,AFSA20.jpg,FS,4,num_4,32,num_8,1.66670301708,,,2017_Apr_20_1828,60.006139569,MAFE4ImagesEEG,001,200136,
AFNE01.JPG,AFNE01.JPG,AFNE01.JPG,AFNE01.JPG,AFNE01.JPG,AFNE01.JPG,,,,,,,,,,,,,,,,,,,,,1,0,10,5,,,AFSA02.jpg,AFSA19.jpg,AFNE11.jpg,AFNE03.jpg,AFSA02.jpg,FS,4,num_8,32,num_2,1.46670840553,,,2017_Apr_20_1828,60.006139569,MAFE4ImagesEEG,001,200136,
AFNE01.JPG,AFNE01.JPG,AFNE01.JPG,AFNE01.JPG,AFNE01.JPG,AFNE01.JPG,,,,,,,,,,,,,,,,,,,,,1,1,11,8,,,AFSA17.jpg,AFNE18.jpg,AFNE08.jpg,AFSA10.jpg,AFNE18.jpg,FN,3,num_6,16,num_6,0.78340746148,,,2017_Apr_20_1828,60.006139569,MAFE4ImagesEEG,001,200136,
AFNE01.JPG,AFNE01.JPG,AFNE01.JPG,AFNE01.JPG,AFNE01.JPG,AFNE01.JPG,,,,,,,,,,,,,,,,,,,,,1,2,12,1,,,AFNE17.jpg,AFSA01.jpg,AFNE05.jpg,AFSA13.jpg,AFSA01.jpg,FS,4,num_6,16,num_6,1.71668186435,,,2017_Apr_20_1828,60.006139569,MAFE4ImagesEEG,001,200136,
AFNE01.JPG,AFNE01.JPG,AFNE01.JPG,AFNE01.JPG,AFNE01.JPG,AFNE01.JPG,,,,,,,,,,,,,,,,,,,,,1,3,13,4,,,AFNE18.jpg,AFSA01.jpg,AFSA06.jpg,AFNE09.jpg,AFNE18.jpg,FN,3,num_8,32,num_4,0.916639911651,,,2017_Apr_20_1828,60.006139569,MAFE4ImagesEEG,001,200136,
AFNE01.JPG,AFNE01.JPG,AFNE01.JPG,AFNE01.JPG,AFNE01.JPG,AFNE01.JPG,,,,,,,,,,,,,,,,,,,,,1,4,14,6,,,AFNE09.jpg,AFNE08.jpg,AFSA15.jpg,AFSA07.jpg,AFNE08.jpg,FN,3,num_6,32,num_4,1.4000591443,,,2017_Apr_20_1828,60.006139569,MAFE4ImagesEEG,001,200136,
AFNE01.JPG,AFNE01.JPG,AFNE01.JPG,AFNE01.JPG,AFNE01.JPG,AFNE01.JPG,,,,,,,,,,,,,,,,,,,,,1,5,15,7,,,AFSA18.jpg,AFSA20.jpg,AFNE19.jpg,AFNE18.jpg,AFSA18.jpg,FS,4,num_8,16,num_8,0.866431415256,,,2017_Apr_20_1828,60.006139569,MAFE4ImagesEEG,001,200136,
AFNE01.JPG,AFNE01.JPG,AFNE01.JPG,AFNE01.JPG,AFNE01.JPG,AFNE01.JPG,,,,,,,,,,,,,,,,,,,,,1,6,16,2,,,AFNE03.jpg,AFNE06.jpg,AFSA12.jpg,AFSA10.jpg,AFSA12.jpg,FS,4,num_2,16,num_2,1.01678042748,,,2017_Apr_20_1828,60.006139569,MAFE4ImagesEEG,001,200136,
AFNE01.JPG,AFNE01.JPG,AFNE01.JPG,AFNE01.JPG,AFNE01.JPG,AFNE01.JPG,,,,,,,,,,,,,,,,,,,,,1,7,17,0,,,AFNE09.jpg,AFSA08.jpg,AFNE20.jpg,AFSA14.jpg,AFNE20.jpg,FN,3,num_2,16,num_2,0.983443127654,,,2017_Apr_20_1828,60.006139569,MAFE4ImagesEEG,001,200136,
AFNE01.JPG,AFNE01.JPG,AFNE01.JPG,AFNE01.JPG,AFNE01.JPG,AFNE01.JPG,,,,,,,,,,,,,,,,,,,,,1,8,18,3,,,AFNE02.jpg,AFNE17.jpg,AFSA14.jpg,AFSA15.jpg,AFSA14.jpg,FS,4,num_2,32,num_8,0.983422600373,,,2017_Apr_20_1828,60.006139569,MAFE4ImagesEEG,001,200136,
AFNE01.JPG,AFNE01.JPG,AFNE01.JPG,AFNE01.JPG,AFNE01.JPG,AFNE01.JPG,,,,,,,,,,,,,,,,,,,,,1,9,19,9,,,AFNE17.jpg,AFSA05.jpg,AFNE13.jpg,AFSA11.jpg,AFNE13.jpg,FN,3,num_2,32,num_8,1.00009878766,,,2017_Apr_20_1828,60.006139569,MAFE4ImagesEEG,001,200136,
AFNE01.JPG,AFNE01.JPG,AFNE01.JPG,AFNE01.JPG,AFNE01.JPG,AFNE01.JPG,,,,,,,,,,,,,,,,,,,,,2,0,20,6,,,AFSA09.jpg,AFNE10.jpg,AFSA02.jpg,AFNE19.jpg,AFSA02.jpg,FS,4,num_2,16,num_2,0.917025119357,,,2017_Apr_20_1828,60.006139569,MAFE4ImagesEEG,001,200136,
AFNE01.JPG,AFNE01.JPG,AFNE01.JPG,AFNE01.JPG,AFNE01.JPG,AFNE01.JPG,,,,,,,,,,,,,,,,,,,,,2,1,21,2,,,AFNE05.jpg,AFSA15.jpg,AFNE20.jpg,AFSA14.jpg,AFNE05.jpg,FN,3,num_8,32,num_4,0.916911256965,,,2017_Apr_20_1828,60.006139569,MAFE4ImagesEEG,001,200136,
AFNE01.JPG,AFNE01.JPG,AFNE01.JPG,AFNE01.JPG,AFNE01.JPG,AFNE01.JPG,,,,,,,,,,,,,,,,,,,,,2,2,22,0,,,AFSA17.jpg,AFNE08.jpg,AFSA14.jpg,AFNE10.jpg,AFSA17.jpg,FS,4,num_8,16,num_8,0.833417741174,,,2017_Apr_20_1828,60.006139569,MAFE4ImagesEEG,001,200136,
AFNE01.JPG,AFNE01.JPG,AFNE01.JPG,AFNE01.JPG,AFNE01.JPG,AFNE01.JPG,,,,,,,,,,,,,,,,,,,,,2,3,23,5,,,AFSA17.jpg,AFSA14.jpg,AFNE17.jpg,AFNE02.jpg,AFNE02.jpg,FN,3,num_4,16,num_4,0.900137564982,,,2017_Apr_20_1828,60.006139569,MAFE4ImagesEEG,001,200136,
AFNE01.JPG,AFNE01.JPG,AFNE01.JPG,AFNE01.JPG,AFNE01.JPG,AFNE01.JPG,,,,,,,,,,,,,,,,,,,,,2,4,24,1,,,AFNE16.jpg,AFNE10.jpg,AFSA12.jpg,AFSA19.jpg,AFSA19.jpg,FS,4,num_4,32,num_2,1.35013257753,,,2017_Apr_20_1828,60.006139569,MAFE4ImagesEEG,001,200136,
AFNE01.JPG,AFNE01.JPG,AFNE01.JPG,AFNE01.JPG,AFNE01.JPG,AFNE01.JPG,,,,,,,,,,,,,,,,,,,,,2,5,25,7,,,AFSA02.jpg,AFNE20.jpg,AFNE09.jpg,AFSA18.jpg,AFSA18.jpg,FS,4,num_4,16,num_4,0.750120197015,,,2017_Apr_20_1828,60.006139569,MAFE4ImagesEEG,001,200136,
AFNE01.JPG,AFNE01.JPG,AFNE01.JPG,AFNE01.JPG,AFNE01.JPG,AFNE01.JPG,,,,,,,,,,,,,,,,,,,,,2,6,26,8,,,AFSA13.jpg,AFSA08.jpg,AFNE15.jpg,AFNE19.jpg,AFNE19.jpg,FN,3,num_4,32,num_8,0.883417436446,,,2017_Apr_20_1828,60.006139569,MAFE4ImagesEEG,001,200136,
AFNE01.JPG,AFNE01.JPG,AFNE01.JPG,AFNE01.JPG,AFNE01.JPG,AFNE01.JPG,,,,,,,,,,,,,,,,,,,,,2,7,27,9,,,AFNE02.jpg,AFSA17.jpg,AFSA14.jpg,AFNE12.jpg,AFSA14.jpg,FS,4,num_2,16,num_2,0.850097135874,,,2017_Apr_20_1828,60.006139569,MAFE4ImagesEEG,001,200136,
AFNE01.JPG,AFNE01.JPG,AFNE01.JPG,AFNE01.JPG,AFNE01.JPG,AFNE01.JPG,,,,,,,,,,,,,,,,,,,,,2,8,28,4,,,AFSA05.jpg,AFNE16.jpg,AFNE03.jpg,AFSA10.jpg,AFSA05.jpg,FS,4,num_8,32,num_6,1.13346242014,,,2017_Apr_20_1828,60.006139569,MAFE4ImagesEEG,001,200136,
AFNE01.JPG,AFNE01.JPG,AFNE01.JPG,AFNE01.JPG,AFNE01.JPG,AFNE01.JPG,,,,,,,,,,,,,,,,,,,,,2,9,29,3,,,AFNE20.jpg,AFSA11.jpg,AFNE16.jpg,AFSA04.jpg,AFSA11.jpg,FS,4,num_6,16,num_6,1.06673489854,,,2017_Apr_20_1828,60.006139569,MAFE4ImagesEEG,001,200136,
AFNE01.JPG,AFNE01.JPG,AFNE01.JPG,AFNE01.JPG,AFNE01.JPG,AFNE01.JPG,,,,,,,,,,,,,,,,,,,,,3,0,30,3,,,AFNE06.jpg,AFSA13.jpg,AFSA16.jpg,AFNE20.jpg,AFSA13.jpg,FS,4,num_6,16,num_6,0.866747343214,,,2017_Apr_20_1828,60.006139569,MAFE4ImagesEEG,001,200136,
AFNE01.JPG,AFNE01.JPG,AFNE01.JPG,AFNE01.JPG,AFNE01.JPG,AFNE01.JPG,,,,,,,,,,,,,,,,,,,,,3,1,31,6,,,AFNE18.jpg,AFSA06.jpg,AFSA02.jpg,AFNE09.jpg,AFNE18.jpg,FN,3,num_8,32,num_4,0.983483540826,,,2017_Apr_20_1828,60.006139569,MAFE4ImagesEEG,001,200136,
AFNE01.JPG,AFNE01.JPG,AFNE01.JPG,AFNE01.JPG,AFNE01.JPG,AFNE01.JPG,,,,,,,,,,,,,,,,,,,,,3,2,32,7,,,AFNE05.jpg,AFSA13.jpg,AFNE12.jpg,AFSA09.jpg,AFSA09.jpg,FS,4,num_4,16,num_4,0.71677199204,,,2017_Apr_20_1828,60.006139569,MAFE4ImagesEEG,001,200136,
AFNE01.JPG,AFNE01.JPG,AFNE01.JPG,AFNE01.JPG,AFNE01.JPG,AFNE01.JPG,,,,,,,,,,,,,,,,,,,,,3,3,33,5,,,AFSA20.jpg,AFSA16.jpg,AFNE07.jpg,AFNE18.jpg,AFNE07.jpg,FN,3,num_2,16,num_2,0.983429015148,,,2017_Apr_20_1828,60.006139569,MAFE4ImagesEEG,001,200136,
AFNE01.JPG,AFNE01.JPG,AFNE01.JPG,AFNE01.JPG,AFNE01.JPG,AFNE01.JPG,,,,,,,,,,,,,,,,,,,,,3,4,34,4,,,AFNE04.jpg,AFNE15.jpg,AFSA01.jpg,AFSA05.jpg,AFNE15.jpg,FN,3,num_6,32,num_4,1.75007946312,,,2017_Apr_20_1828,60.006139569,MAFE4ImagesEEG,001,200136,
AFNE01.JPG,AFNE01.JPG,AFNE01.JPG,AFNE01.JPG,AFNE01.JPG,AFNE01.JPG,,,,,,,,,,,,,,,,,,,,,3,5,35,2,,,AFSA14.jpg,AFNE09.jpg,AFSA15.jpg,AFNE06.jpg,AFNE09.jpg,FN,3,num_6,16,num_6,0.450140948757,,,2017_Apr_20_1828,60.006139569,MAFE4ImagesEEG,001,200136,
AFNE01.JPG,AFNE01.JPG,AFNE01.JPG,AFNE01.JPG,AFNE01.JPG,AFNE01.JPG,,,,,,,,,,,,,,,,,,,,,3,6,36,1,,,AFNE03.jpg,AFNE08.jpg,AFSA15.jpg,AFSA09.jpg,AFNE03.jpg,FN,3,num_8,16,num_8,0.850107399456,,,2017_Apr_20_1828,60.006139569,MAFE4ImagesEEG,001,200136,
AFNE01.JPG,AFNE01.JPG,AFNE01.JPG,AFNE01.JPG,AFNE01.JPG,AFNE01.JPG,,,,,,,,,,,,,,,,,,,,,3,7,37,0,,,AFNE06.jpg,AFNE02.jpg,AFSA05.jpg,AFSA08.jpg,AFSA05.jpg,FS,4,num_2,16,num_2,1.25012837583,,,2017_Apr_20_1828,60.006139569,MAFE4ImagesEEG,001,200136,
AFNE01.JPG,AFNE01.JPG,AFNE01.JPG,AFNE01.JPG,AFNE01.JPG,AFNE01.JPG,,,,,,,,,,,,,,,,,,,,,3,8,38,8,,,AFNE10.jpg,AFSA12.jpg,AFNE04.jpg,AFSA19.jpg,AFSA12.jpg,FS,4,num_6,16,num_6,0.95016612683,,,2017_Apr_20_1828,60.006139569,MAFE4ImagesEEG,001,200136,
AFNE01.JPG,AFNE01.JPG,AFNE01.JPG,AFNE01.JPG,AFNE01.JPG,AFNE01.JPG,,,,,,,,,,,,,,,,,,,,,3,9,39,9,,,AFSA12.jpg,AFNE14.jpg,AFSA06.jpg,AFNE19.jpg,AFSA06.jpg,FS,4,num_2,16,num_2,0.900136282027,,,2017_Apr_20_1828,60.006139569,MAFE4ImagesEEG,001,200136,
AFNE01.JPG,AFNE01.JPG,AFNE01.JPG,AFNE01.JPG,AFNE01.JPG,AFNE01.JPG,,,,,,,,,,,,,,,,,,,,,4,0,40,1,,,AFSA12.jpg,AFNE12.jpg,AFSA07.jpg,AFNE05.jpg,AFNE05.jpg,FN,3,num_4,16,num_4,0.583507467876,,,2017_Apr_20_1828,60.006139569,MAFE4ImagesEEG,001,200136,
