IPosition2,IPosition3,IPosition1,IPosition6,IPosition4,IPosition5,TrialsM1.thisRepN,TrialsM1.thisTrialN,TrialsM1.thisN,TrialsM1.thisIndex,TrialsF1.thisRepN,TrialsF1.thisTrialN,TrialsF1.thisN,TrialsF1.thisIndex,TrialsM2.thisRepN,TrialsM2.thisTrialN,TrialsM2.thisN,TrialsM2.thisIndex,TrialsF2.thisRepN,TrialsF2.thisTrialN,TrialsF2.thisN,TrialsF2.thisIndex,TrialsM3.thisRepN,TrialsM3.thisTrialN,TrialsM3.thisN,TrialsM3.thisIndex,TrialsF3.thisRepN,TrialsF3.thisTrialN,TrialsF3.thisN,TrialsF3.thisIndex,InstrKey_resp.keys,InstrKey_resp.rt,Image0 _Position,Image1 _Position,Image2 _Position,Image3 _Position,Center_image,condition,code,correct_answer,accuracy,Key_Resp.keys,Key_Resp.rt,BreakKey_resp.keys,BreakKey_resp.rt,date,frameRate,expName,session,participant,
,,,,,,,,,,,,,,,,,,,,,,,,,,,,,,space,34.0644890835,,,,,,,,,,,,,,2017_Apr_27_1622,60.0012893879,MAFE4ImagesEEG,001,200199,
AMSA21.JPG,AMNE23.JPG,AMNE21.JPG,AMSA25.JPG,AMNE25.JPG,AMSA23.JPG,0,0,0,5,,,,,,,,,,,,,,,,,,,,,,,AMNE02.jpg,AMNE09.jpg,AMSA08.jpg,AMSA20.jpg,AMNE02.jpg,MN,1,num_8,16,num_8,1.31673882762,,,2017_Apr_27_1622,60.0012893879,MAFE4ImagesEEG,001,200199,
AFNE22.JPG,AFSA24.JPG,AFSA22.JPG,AFNE25.JPG,AFNE24.JPG,AFSA25.JPG,0,1,1,6,,,,,,,,,,,,,,,,,,,,,,,AMNE09.jpg,AMNE14.jpg,AMSA12.jpg,AMSA10.jpg,AMSA10.jpg,MS,2,num_4,16,num_4,1.11676474335,,,2017_Apr_27_1622,60.0012893879,MAFE4ImagesEEG,001,200199,
AMSA21.JPG,AMNE22.JPG,AMNE21.JPG,AMSA23.JPG,AMSA22.JPG,AMNE23.JPG,0,2,2,1,,,,,,,,,,,,,,,,,,,,,,,AMSA06.jpg,AMSA03.jpg,AMNE08.jpg,AMNE04.jpg,AMSA06.jpg,MS,2,num_8,32,num_2,0.916771093966,,,2017_Apr_27_1622,60.0012893879,MAFE4ImagesEEG,001,200199,
AFSA25.JPG,AFNE24.JPG,AFSA24.JPG,AFNE21.JPG,AFSA21.JPG,AFNE25.JPG,0,3,3,2,,,,,,,,,,,,,,,,,,,,,,,AMSA01.jpg,AMNE19.jpg,AMSA11.jpg,AMNE05.jpg,AMNE19.jpg,MN,1,num_6,32,num_4,0.950106469449,,,2017_Apr_27_1622,60.0012893879,MAFE4ImagesEEG,001,200199,
AMSA25.JPG,AMNE24.JPG,AMSA24.JPG,AMNE26.JPG,AMSA21.JPG,AMNE25.JPG,0,4,4,3,,,,,,,,,,,,,,,,,,,,,,,AMNE11.jpg,AMNE06.jpg,AMSA20.jpg,AMSA14.jpg,AMSA20.jpg,MS,2,num_2,32,num_8,0.883454642259,,,2017_Apr_27_1622,60.0012893879,MAFE4ImagesEEG,001,200199,
AMNE22.JPG,AMSA24.JPG,AMSA22.JPG,AMNE25.JPG,AMNE24.JPG,AMSA25.JPG,0,5,5,7,,,,,,,,,,,,,,,,,,,,,,,AMSA18.jpg,AMNE19.jpg,AMNE06.jpg,AMSA13.jpg,AMSA13.jpg,MS,2,num_4,32,num_2,1.03343993635,,,2017_Apr_27_1622,60.0012893879,MAFE4ImagesEEG,001,200199,
AFSA21.JPG,AFNE23.JPG,AFNE21.JPG,AFSA25.JPG,AFNE25.JPG,AFSA23.JPG,0,6,6,4,,,,,,,,,,,,,,,,,,,,,,,AMNE05.jpg,AMSA08.jpg,AMSA16.jpg,AMNE09.jpg,AMSA16.jpg,MS,2,num_2,32,num_4,1.00015619991,,,2017_Apr_27_1622,60.0012893879,MAFE4ImagesEEG,001,200199,
AFSA21.JPG,AFNE22.JPG,AFNE21.JPG,AFSA23.JPG,AFSA22.JPG,AFNE23.JPG,0,7,7,0,,,,,,,,,,,,,,,,,,,,,,,AMNE01.jpg,AMNE19.jpg,AMSA13.jpg,AMSA16.jpg,AMSA13.jpg,MS,2,num_2,32,num_6,0.916767245159,,,2017_Apr_27_1622,60.0012893879,MAFE4ImagesEEG,001,200199,
AMNE23.JPG,AMNE24.JPG,AMNE22.JPG,AMSA24.JPG,AMSA22.JPG,AMSA23.JPG,0,8,8,9,,,,,,,,,,,,,,,,,,,,,,,AMSA13.jpg,AMSA05.jpg,AMNE08.jpg,AMNE01.jpg,AMNE01.jpg,MN,1,num_4,16,num_4,0.900134678348,,,2017_Apr_27_1622,60.0012893879,MAFE4ImagesEEG,001,200199,
AFNE23.JPG,AFNE24.JPG,AFNE22.JPG,AFSA24.JPG,AFSA22.JPG,AFSA23.JPG,0,9,9,8,,,,,,,,,,,,,,,,,,,,,,,AMNE19.jpg,AMNE01.jpg,AMSA04.jpg,AMSA03.jpg,AMSA03.jpg,MS,2,num_4,32,num_8,0.700140066678,,,2017_Apr_27_1622,60.0012893879,MAFE4ImagesEEG,001,200199,
AFSA21.JPG,AFNE23.JPG,AFNE21.JPG,AFSA25.JPG,AFNE25.JPG,AFSA23.JPG,,,,,0,0,0,4,,,,,,,,,,,,,,,,,,,AFSA06.jpg,AFNE10.jpg,AFSA10.jpg,AFNE04.jpg,AFSA06.jpg,FS,4,num_8,32,num_4,0.700092597399,,,2017_Apr_27_1622,60.0012893879,MAFE4ImagesEEG,001,200199,
AMNE23.JPG,AMNE24.JPG,AMNE22.JPG,AMSA24.JPG,AMSA22.JPG,AMSA23.JPG,,,,,0,1,1,9,,,,,,,,,,,,,,,,,,,AFNE06.jpg,AFSA19.jpg,AFSA07.jpg,AFNE13.jpg,AFNE13.jpg,FN,3,num_4,32,num_2,0.833423193661,,,2017_Apr_27_1622,60.0012893879,MAFE4ImagesEEG,001,200199,
AMSA21.JPG,AMNE23.JPG,AMNE21.JPG,AMSA25.JPG,AMNE25.JPG,AMSA23.JPG,,,,,0,2,2,5,,,,,,,,,,,,,,,,,,,AFNE07.jpg,AFSA03.jpg,AFSA10.jpg,AFNE13.jpg,AFSA10.jpg,FS,4,num_2,32,num_8,0.433463799302,,,2017_Apr_27_1622,60.0012893879,MAFE4ImagesEEG,001,200199,
AFNE23.JPG,AFNE24.JPG,AFNE22.JPG,AFSA24.JPG,AFSA22.JPG,AFSA23.JPG,,,,,0,3,3,8,,,,,,,,,,,,,,,,,,,AFNE16.jpg,AFSA09.jpg,AFNE19.jpg,AFSA18.jpg,AFNE19.jpg,FN,3,num_2,32,num_6,0.650149031426,,,2017_Apr_27_1622,60.0012893879,MAFE4ImagesEEG,001,200199,
AFSA21.JPG,AFNE22.JPG,AFNE21.JPG,AFSA23.JPG,AFSA22.JPG,AFNE23.JPG,,,,,0,4,4,0,,,,,,,,,,,,,,,,,,,AFSA05.jpg,AFSA20.jpg,AFNE09.jpg,AFNE01.jpg,AFNE01.jpg,FN,3,num_4,32,num_8,0.916760509484,,,2017_Apr_27_1622,60.0012893879,MAFE4ImagesEEG,001,200199,
AMSA21.JPG,AMNE22.JPG,AMNE21.JPG,AMSA23.JPG,AMSA22.JPG,AMNE23.JPG,,,,,0,5,5,1,,,,,,,,,,,,,,,,,,,AFSA16.jpg,AFNE18.jpg,AFNE06.jpg,AFSA14.jpg,AFSA16.jpg,FS,4,num_8,16,num_8,1.2501851467,,,2017_Apr_27_1622,60.0012893879,MAFE4ImagesEEG,001,200199,
AMNE22.JPG,AMSA24.JPG,AMSA22.JPG,AMNE25.JPG,AMNE24.JPG,AMSA25.JPG,,,,,0,6,6,7,,,,,,,,,,,,,,,,,,,AFNE07.jpg,AFNE13.jpg,AFSA11.jpg,AFSA10.jpg,AFSA11.jpg,FS,4,num_2,16,num_2,0.866862488561,,,2017_Apr_27_1622,60.0012893879,MAFE4ImagesEEG,001,200199,
AFSA25.JPG,AFNE24.JPG,AFSA24.JPG,AFNE21.JPG,AFSA21.JPG,AFNE25.JPG,,,,,0,7,7,2,,,,,,,,,,,,,,,,,,,AFSA20.jpg,AFNE07.jpg,AFSA06.jpg,AFNE20.jpg,AFNE07.jpg,FN,3,num_6,16,num_6,0.766840646276,,,2017_Apr_27_1622,60.0012893879,MAFE4ImagesEEG,001,200199,
AMSA25.JPG,AMNE24.JPG,AMSA24.JPG,AMNE26.JPG,AMSA21.JPG,AMNE25.JPG,,,,,0,8,8,3,,,,,,,,,,,,,,,,,,,AFNE09.jpg,AFSA04.jpg,AFSA18.jpg,AFNE15.jpg,AFNE09.jpg,FN,3,num_8,32,num_4,1.01676150388,,,2017_Apr_27_1622,60.0012893879,MAFE4ImagesEEG,001,200199,
AFNE22.JPG,AFSA24.JPG,AFSA22.JPG,AFNE25.JPG,AFNE24.JPG,AFSA25.JPG,,,,,0,9,9,6,,,,,,,,,,,,,,,,,,,AFNE02.jpg,AFSA11.jpg,AFNE03.jpg,AFSA19.jpg,AFSA11.jpg,FS,4,num_6,32,num_2,0.666703658644,,,2017_Apr_27_1622,60.0012893879,MAFE4ImagesEEG,001,200199,
AMSA21.JPG,AMNE23.JPG,AMNE21.JPG,AMSA25.JPG,AMNE25.JPG,AMSA23.JPG,,,,,,,,,0,0,0,5,,,,,,,,,,,,,,,AMSA09.jpg,AMNE17.jpg,AMSA12.jpg,AMNE08.jpg,AMSA09.jpg,MS,2,num_8,16,num_8,0.76674859412,,,2017_Apr_27_1622,60.0012893879,MAFE4ImagesEEG,001,200199,
AFNE23.JPG,AFNE24.JPG,AFNE22.JPG,AFSA24.JPG,AFSA22.JPG,AFSA23.JPG,,,,,,,,,0,1,1,8,,,,,,,,,,,,,,,AMNE12.jpg,AMSA01.jpg,AMSA07.jpg,AMNE06.jpg,AMSA01.jpg,MS,2,num_6,16,num_6,0.516811378766,,,2017_Apr_27_1622,60.0012893879,MAFE4ImagesEEG,001,200199,
AMNE23.JPG,AMNE24.JPG,AMNE22.JPG,AMSA24.JPG,AMSA22.JPG,AMSA23.JPG,,,,,,,,,0,2,2,9,,,,,,,,,,,,,,,AMNE15.jpg,AMSA09.jpg,AMSA11.jpg,AMNE20.jpg,AMSA09.jpg,MS,2,num_6,32,num_4,0.666768127121,,,2017_Apr_27_1622,60.0012893879,MAFE4ImagesEEG,001,200199,
AMNE22.JPG,AMSA24.JPG,AMSA22.JPG,AMNE25.JPG,AMNE24.JPG,AMSA25.JPG,,,,,,,,,0,3,3,7,,,,,,,,,,,,,,,AMNE20.jpg,AMSA14.jpg,AMSA09.jpg,AMNE04.jpg,AMSA14.jpg,MS,2,num_6,16,num_6,0.716777765309,,,2017_Apr_27_1622,60.0012893879,MAFE4ImagesEEG,001,200199,
AFSA21.JPG,AFNE23.JPG,AFNE21.JPG,AFSA25.JPG,AFNE25.JPG,AFSA23.JPG,,,,,,,,,0,4,4,4,,,,,,,,,,,,,,,AMSA19.jpg,AMSA15.jpg,AMNE03.jpg,AMNE02.jpg,AMNE02.jpg,MN,1,num_4,32,num_2,0.833447890589,,,2017_Apr_27_1622,60.0012893879,MAFE4ImagesEEG,001,200199,
AFSA25.JPG,AFNE24.JPG,AFSA24.JPG,AFNE21.JPG,AFSA21.JPG,AFNE25.JPG,,,,,,,,,0,5,5,2,,,,,,,,,,,,,,,AMNE05.jpg,AMSA11.jpg,AMNE11.jpg,AMSA06.jpg,AMSA11.jpg,MS,2,num_6,32,num_8,0.600157033885,,,2017_Apr_27_1622,60.0012893879,MAFE4ImagesEEG,001,200199,
AMSA25.JPG,AMNE24.JPG,AMSA24.JPG,AMNE26.JPG,AMSA21.JPG,AMNE25.JPG,,,,,,,,,0,6,6,3,,,,,,,,,,,,,,,AMSA02.jpg,AMSA11.jpg,AMNE10.jpg,AMNE20.jpg,AMSA02.jpg,MS,2,num_8,32,num_6,0.616782223573,,,2017_Apr_27_1622,60.0012893879,MAFE4ImagesEEG,001,200199,
AMSA21.JPG,AMNE22.JPG,AMNE21.JPG,AMSA23.JPG,AMSA22.JPG,AMNE23.JPG,,,,,,,,,0,7,7,1,,,,,,,,,,,,,,,AMSA16.jpg,AMNE15.jpg,AMNE01.jpg,AMSA09.jpg,AMNE15.jpg,MN,1,num_6,32,num_4,0.55014835787,,,2017_Apr_27_1622,60.0012893879,MAFE4ImagesEEG,001,200199,
AFSA21.JPG,AFNE22.JPG,AFNE21.JPG,AFSA23.JPG,AFSA22.JPG,AFNE23.JPG,,,,,,,,,0,8,8,0,,,,,,,,,,,,,,,AMNE17.jpg,AMSA16.jpg,AMSA15.jpg,AMNE10.jpg,AMSA16.jpg,MS,2,num_6,32,num_8,0.866774926777,,,2017_Apr_27_1622,60.0012893879,MAFE4ImagesEEG,001,200199,
AFNE22.JPG,AFSA24.JPG,AFSA22.JPG,AFNE25.JPG,AFNE24.JPG,AFSA25.JPG,,,,,,,,,0,9,9,6,,,,,,,,,,,,,,,AMSA01.jpg,AMNE06.jpg,AMNE02.jpg,AMSA12.jpg,AMNE06.jpg,MN,1,num_6,32,num_8,0.867229734897,,,2017_Apr_27_1622,60.0012893879,MAFE4ImagesEEG,001,200199,
AFNE22.JPG,AFSA24.JPG,AFSA22.JPG,AFNE25.JPG,AFNE24.JPG,AFSA25.JPG,,,,,,,,,,,,,0,0,0,6,,,,,,,,,,,AFNE07.jpg,AFSA17.jpg,AFNE02.jpg,AFSA08.jpg,AFSA08.jpg,FS,4,num_4,16,num_4,1.4000793508,,,2017_Apr_27_1622,60.0012893879,MAFE4ImagesEEG,001,200199,
AMSA21.JPG,AMNE23.JPG,AMNE21.JPG,AMSA25.JPG,AMNE25.JPG,AMSA23.JPG,,,,,,,,,,,,,0,1,1,5,,,,,,,,,,,AFSA16.jpg,AFNE07.jpg,AFNE04.jpg,AFSA05.jpg,AFSA16.jpg,FS,4,num_8,16,num_8,1.21671281557,,,2017_Apr_27_1622,60.0012893879,MAFE4ImagesEEG,001,200199,
AFSA21.JPG,AFNE23.JPG,AFNE21.JPG,AFSA25.JPG,AFNE25.JPG,AFSA23.JPG,,,,,,,,,,,,,0,2,2,4,,,,,,,,,,,AFSA01.jpg,AFSA04.jpg,AFNE10.jpg,AFNE13.jpg,AFSA01.jpg,FS,4,num_8,16,num_8,0.91660495114,,,2017_Apr_27_1622,60.0012893879,MAFE4ImagesEEG,001,200199,
AFSA25.JPG,AFNE24.JPG,AFSA24.JPG,AFNE21.JPG,AFSA21.JPG,AFNE25.JPG,,,,,,,,,,,,,0,3,3,2,,,,,,,,,,,AFSA20.jpg,AFNE07.jpg,AFSA04.jpg,AFNE15.jpg,AFNE15.jpg,FN,3,num_4,16,num_4,0.816781967063,,,2017_Apr_27_1622,60.0012893879,MAFE4ImagesEEG,001,200199,
AMNE23.JPG,AMNE24.JPG,AMNE22.JPG,AMSA24.JPG,AMSA22.JPG,AMSA23.JPG,,,,,,,,,,,,,0,4,4,9,,,,,,,,,,,AFSA03.jpg,AFSA17.jpg,AFNE17.jpg,AFNE09.jpg,AFSA03.jpg,FS,4,num_8,16,num_8,0.783471288625,,,2017_Apr_27_1622,60.0012893879,MAFE4ImagesEEG,001,200199,
AFSA21.JPG,AFNE22.JPG,AFNE21.JPG,AFSA23.JPG,AFSA22.JPG,AFNE23.JPG,,,,,,,,,,,,,0,5,5,0,,,,,,,,,,,AFNE16.jpg,AFNE20.jpg,AFSA01.jpg,AFSA12.jpg,AFNE20.jpg,FN,3,num_6,16,num_6,0.716766539495,,,2017_Apr_27_1622,60.0012893879,MAFE4ImagesEEG,001,200199,
AMSA21.JPG,AMNE22.JPG,AMNE21.JPG,AMSA23.JPG,AMSA22.JPG,AMNE23.JPG,,,,,,,,,,,,,0,6,6,1,,,,,,,,,,,AFNE03.jpg,AFSA20.jpg,AFSA05.jpg,AFNE20.jpg,AFSA05.jpg,FS,4,num_2,32,num_4,1.0667409926,,,2017_Apr_27_1622,60.0012893879,MAFE4ImagesEEG,001,200199,
AFNE23.JPG,AFNE24.JPG,AFNE22.JPG,AFSA24.JPG,AFSA22.JPG,AFSA23.JPG,,,,,,,,,,,,,0,7,7,8,,,,,,,,,,,AFNE03.jpg,AFNE19.jpg,AFSA15.jpg,AFSA09.jpg,AFSA15.jpg,FS,4,num_2,16,num_2,1.00007665658,,,2017_Apr_27_1622,60.0012893879,MAFE4ImagesEEG,001,200199,
AMSA25.JPG,AMNE24.JPG,AMSA24.JPG,AMNE26.JPG,AMSA21.JPG,AMNE25.JPG,,,,,,,,,,,,,0,8,8,3,,,,,,,,,,,AFSA19.jpg,AFNE04.jpg,AFNE06.jpg,AFSA20.jpg,AFNE04.jpg,FN,3,num_6,16,num_6,0.983471673448,,,2017_Apr_27_1622,60.0012893879,MAFE4ImagesEEG,001,200199,
AMNE22.JPG,AMSA24.JPG,AMSA22.JPG,AMNE25.JPG,AMNE24.JPG,AMSA25.JPG,,,,,,,,,,,,,0,9,9,7,,,,,,,,,,,AFNE02.jpg,AFNE19.jpg,AFSA13.jpg,AFSA06.jpg,AFSA06.jpg,FS,4,num_4,32,num_8,0.600423568045,,,2017_Apr_27_1622,60.0012893879,MAFE4ImagesEEG,001,200199,
AMNE22.JPG,AMSA24.JPG,AMSA22.JPG,AMNE25.JPG,AMNE24.JPG,AMSA25.JPG,,,,,,,,,,,,,,,,,0,0,0,7,,,,,,,AMNE03.jpg,AMSA08.jpg,AMNE18.jpg,AMSA13.jpg,AMNE03.jpg,MN,1,num_8,32,num_6,0.633470598958,,,2017_Apr_27_1622,60.0012893879,MAFE4ImagesEEG,001,200199,
AFSA21.JPG,AFNE23.JPG,AFNE21.JPG,AFSA25.JPG,AFNE25.JPG,AFSA23.JPG,,,,,,,,,,,,,,,,,0,1,1,4,,,,,,,AMNE07.jpg,AMNE14.jpg,AMSA02.jpg,AMSA11.jpg,AMNE14.jpg,MN,1,num_6,16,num_6,0.75011378224,,,2017_Apr_27_1622,60.0012893879,MAFE4ImagesEEG,001,200199,
AFNE22.JPG,AFSA24.JPG,AFSA22.JPG,AFNE25.JPG,AFNE24.JPG,AFSA25.JPG,,,,,,,,,,,,,,,,,0,2,2,6,,,,,,,AMSA04.jpg,AMNE11.jpg,AMSA07.jpg,AMNE14.jpg,AMSA07.jpg,MS,2,num_2,32,num_6,1.150114552,,,2017_Apr_27_1622,60.0012893879,MAFE4ImagesEEG,001,200199,
AFSA25.JPG,AFNE24.JPG,AFSA24.JPG,AFNE21.JPG,AFSA21.JPG,AFNE25.JPG,,,,,,,,,,,,,,,,,0,3,3,2,,,,,,,AMSA02.jpg,AMSA07.jpg,AMNE16.jpg,AMNE20.jpg,AMSA02.jpg,MS,2,num_8,32,num_6,1.00011771126,,,2017_Apr_27_1622,60.0012893879,MAFE4ImagesEEG,001,200199,
AMSA21.JPG,AMNE22.JPG,AMNE21.JPG,AMSA23.JPG,AMSA22.JPG,AMNE23.JPG,,,,,,,,,,,,,,,,,0,4,4,1,,,,,,,AMSA19.jpg,AMSA06.jpg,AMNE12.jpg,AMNE18.jpg,AMNE18.jpg,MN,1,num_4,32,num_8,1.15008632687,,,2017_Apr_27_1622,60.0012893879,MAFE4ImagesEEG,001,200199,
AMNE23.JPG,AMNE24.JPG,AMNE22.JPG,AMSA24.JPG,AMSA22.JPG,AMSA23.JPG,,,,,,,,,,,,,,,,,0,5,5,9,,,,,,,AMNE16.jpg,AMSA11.jpg,AMNE06.jpg,AMSA16.jpg,AMNE16.jpg,MN,1,num_8,32,num_2,1.41673725599,,,2017_Apr_27_1622,60.0012893879,MAFE4ImagesEEG,001,200199,
AMSA21.JPG,AMNE23.JPG,AMNE21.JPG,AMSA25.JPG,AMNE25.JPG,AMSA23.JPG,,,,,,,,,,,,,,,,,0,6,6,5,,,,,,,AMSA16.jpg,AMNE13.jpg,AMSA06.jpg,AMNE08.jpg,AMNE08.jpg,MN,1,num_4,32,num_6,0.750113140792,,,2017_Apr_27_1622,60.0012893879,MAFE4ImagesEEG,001,200199,
AMSA25.JPG,AMNE24.JPG,AMSA24.JPG,AMNE26.JPG,AMSA21.JPG,AMNE25.JPG,,,,,,,,,,,,,,,,,0,7,7,3,,,,,,,AMSA19.jpg,AMSA04.jpg,AMNE04.jpg,AMNE07.jpg,AMNE07.jpg,MN,1,num_4,32,num_6,0.883440208971,,,2017_Apr_27_1622,60.0012893879,MAFE4ImagesEEG,001,200199,
AFSA21.JPG,AFNE22.JPG,AFNE21.JPG,AFSA23.JPG,AFSA22.JPG,AFNE23.JPG,,,,,,,,,,,,,,,,,0,8,8,0,,,,,,,AMSA20.jpg,AMSA05.jpg,AMNE16.jpg,AMNE20.jpg,AMNE16.jpg,MN,1,num_2,32,num_8,1.18339764688,,,2017_Apr_27_1622,60.0012893879,MAFE4ImagesEEG,001,200199,
AFNE23.JPG,AFNE24.JPG,AFNE22.JPG,AFSA24.JPG,AFSA22.JPG,AFSA23.JPG,,,,,,,,,,,,,,,,,0,9,9,8,,,,,,,AMNE18.jpg,AMSA07.jpg,AMNE01.jpg,AMSA05.jpg,AMSA07.jpg,MS,2,num_6,16,num_6,0.833453663974,,,2017_Apr_27_1622,60.0012893879,MAFE4ImagesEEG,001,200199,
AMSA25.JPG,AMNE24.JPG,AMSA24.JPG,AMNE26.JPG,AMSA21.JPG,AMNE25.JPG,,,,,,,,,,,,,,,,,,,,,0,0,0,3,,,AFNE14.jpg,AFSA02.jpg,AFNE08.jpg,AFSA20.jpg,AFNE14.jpg,FN,3,num_8,16,num_8,0.900137885706,,,2017_Apr_27_1622,60.0012893879,MAFE4ImagesEEG,001,200199,
AMSA21.JPG,AMNE22.JPG,AMNE21.JPG,AMSA23.JPG,AMSA22.JPG,AMNE23.JPG,,,,,,,,,,,,,,,,,,,,,0,1,1,1,,,AFSA12.jpg,AFNE13.jpg,AFSA04.jpg,AFNE19.jpg,AFNE19.jpg,FN,3,num_4,32,num_2,1.20006132522,,,2017_Apr_27_1622,60.0012893879,MAFE4ImagesEEG,001,200199,
AFSA21.JPG,AFNE22.JPG,AFNE21.JPG,AFSA23.JPG,AFSA22.JPG,AFNE23.JPG,,,,,,,,,,,,,,,,,,,,,0,2,2,0,,,AFSA17.jpg,AFSA20.jpg,AFNE09.jpg,AFNE01.jpg,AFNE01.jpg,FN,3,num_4,32,num_6,0.933415848762,,,2017_Apr_27_1622,60.0012893879,MAFE4ImagesEEG,001,200199,
AMNE22.JPG,AMSA24.JPG,AMSA22.JPG,AMNE25.JPG,AMNE24.JPG,AMSA25.JPG,,,,,,,,,,,,,,,,,,,,,0,3,3,7,,,AFSA12.jpg,AFSA01.jpg,AFNE07.jpg,AFNE11.jpg,AFSA12.jpg,FS,4,num_8,16,num_8,1.01675348543,,,2017_Apr_27_1622,60.0012893879,MAFE4ImagesEEG,001,200199,
AMNE23.JPG,AMNE24.JPG,AMNE22.JPG,AMSA24.JPG,AMSA22.JPG,AMSA23.JPG,,,,,,,,,,,,,,,,,,,,,0,4,4,9,,,AFNE06.jpg,AFSA19.jpg,AFNE16.jpg,AFSA15.jpg,AFSA15.jpg,FS,4,num_4,32,num_8,0.766728708288,,,2017_Apr_27_1622,60.0012893879,MAFE4ImagesEEG,001,200199,
AMSA21.JPG,AMNE23.JPG,AMNE21.JPG,AMSA25.JPG,AMNE25.JPG,AMSA23.JPG,,,,,,,,,,,,,,,,,,,,,0,5,5,5,,,AFSA06.jpg,AFSA05.jpg,AFNE04.jpg,AFNE12.jpg,AFNE04.jpg,FN,3,num_2,32,num_4,0.916792583419,,,2017_Apr_27_1622,60.0012893879,MAFE4ImagesEEG,001,200199,
AFNE23.JPG,AFNE24.JPG,AFNE22.JPG,AFSA24.JPG,AFSA22.JPG,AFSA23.JPG,,,,,,,,,,,,,,,,,,,,,0,6,6,8,,,AFNE08.jpg,AFSA20.jpg,AFNE03.jpg,AFSA19.jpg,AFNE03.jpg,FN,3,num_2,16,num_2,0.866764663253,,,2017_Apr_27_1622,60.0012893879,MAFE4ImagesEEG,001,200199,
AFNE22.JPG,AFSA24.JPG,AFSA22.JPG,AFNE25.JPG,AFNE24.JPG,AFSA25.JPG,,,,,,,,,,,,,,,,,,,,,0,7,7,6,,,AFNE01.jpg,AFNE18.jpg,AFSA05.jpg,AFSA18.jpg,AFNE01.jpg,FN,3,num_8,32,num_6,0.833438589121,,,2017_Apr_27_1622,60.0012893879,MAFE4ImagesEEG,001,200199,
AFSA25.JPG,AFNE24.JPG,AFSA24.JPG,AFNE21.JPG,AFSA21.JPG,AFNE25.JPG,,,,,,,,,,,,,,,,,,,,,0,8,8,2,,,AFNE01.jpg,AFSA11.jpg,AFSA17.jpg,AFNE16.jpg,AFNE01.jpg,FN,3,num_8,16,num_8,0.600176278153,,,2017_Apr_27_1622,60.0012893879,MAFE4ImagesEEG,001,200199,
AFSA21.JPG,AFNE23.JPG,AFNE21.JPG,AFSA25.JPG,AFNE25.JPG,AFSA23.JPG,,,,,,,,,,,,,,,,,,,,,0,9,9,4,,,AFNE20.jpg,AFNE17.jpg,AFSA04.jpg,AFSA03.jpg,AFNE20.jpg,FN,3,num_8,32,num_6,0.88316309033,,,2017_Apr_27_1622,60.0012893879,MAFE4ImagesEEG,001,200199,
,,,,,,,,,,,,,,,,,,,,,,,,,,,,,,,,,,,,,,,,,,,space,21.4820888069,2017_Apr_27_1622,60.0012893879,MAFE4ImagesEEG,001,200199,
AFNE01.JPG,AFNE01.JPG,AFNE01.JPG,AFNE01.JPG,AFNE01.JPG,AFNE01.JPG,0,0,0,2,,,,,,,,,,,,,,,,,,,,,,,AMSA03.jpg,AMSA04.jpg,AMNE17.jpg,AMNE15.jpg,AMNE17.jpg,MN,1,num_2,32,num_8,0.933496995829,,,2017_Apr_27_1622,60.0012893879,MAFE4ImagesEEG,001,200199,
AFNE01.JPG,AFNE01.JPG,AFNE01.JPG,AFNE01.JPG,AFNE01.JPG,AFNE01.JPG,0,1,1,5,,,,,,,,,,,,,,,,,,,,,,,AMSA06.jpg,AMNE19.jpg,AMSA01.jpg,AMNE05.jpg,AMNE19.jpg,MN,1,num_6,32,num_4,1.11676827143,,,2017_Apr_27_1622,60.0012893879,MAFE4ImagesEEG,001,200199,
AFNE01.JPG,AFNE01.JPG,AFNE01.JPG,AFNE01.JPG,AFNE01.JPG,AFNE01.JPG,0,2,2,4,,,,,,,,,,,,,,,,,,,,,,,AMNE06.jpg,AMNE11.jpg,AMSA17.jpg,AMSA16.jpg,AMNE06.jpg,MN,1,num_8,32,num_6,3.28329087282,,,2017_Apr_27_1622,60.0012893879,MAFE4ImagesEEG,001,200199,
AFNE01.JPG,AFNE01.JPG,AFNE01.JPG,AFNE01.JPG,AFNE01.JPG,AFNE01.JPG,0,3,3,8,,,,,,,,,,,,,,,,,,,,,,,AMNE17.jpg,AMNE07.jpg,AMSA02.jpg,AMSA06.jpg,AMNE17.jpg,MN,1,num_8,16,num_8,0.899988421355,,,2017_Apr_27_1622,60.0012893879,MAFE4ImagesEEG,001,200199,
AFNE01.JPG,AFNE01.JPG,AFNE01.JPG,AFNE01.JPG,AFNE01.JPG,AFNE01.JPG,0,4,4,0,,,,,,,,,,,,,,,,,,,,,,,AMNE02.jpg,AMSA14.jpg,AMSA05.jpg,AMNE17.jpg,AMSA05.jpg,MS,2,num_2,32,num_4,0.833451418788,,,2017_Apr_27_1622,60.0012893879,MAFE4ImagesEEG,001,200199,
AFNE01.JPG,AFNE01.JPG,AFNE01.JPG,AFNE01.JPG,AFNE01.JPG,AFNE01.JPG,0,5,5,9,,,,,,,,,,,,,,,,,,,,,,,AMNE14.jpg,AMNE12.jpg,AMSA18.jpg,AMSA19.jpg,AMSA18.jpg,MS,2,num_2,16,num_2,0.533469283953,,,2017_Apr_27_1622,60.0012893879,MAFE4ImagesEEG,001,200199,
AFNE01.JPG,AFNE01.JPG,AFNE01.JPG,AFNE01.JPG,AFNE01.JPG,AFNE01.JPG,0,6,6,1,,,,,,,,,,,,,,,,,,,,,,,AMNE02.jpg,AMSA18.jpg,AMSA15.jpg,AMNE08.jpg,AMSA15.jpg,MS,2,num_2,32,num_6,1.66674343031,,,2017_Apr_27_1622,60.0012893879,MAFE4ImagesEEG,001,200199,
AFNE01.JPG,AFNE01.JPG,AFNE01.JPG,AFNE01.JPG,AFNE01.JPG,AFNE01.JPG,0,7,7,6,,,,,,,,,,,,,,,,,,,,,,,AMNE18.jpg,AMSA10.jpg,AMSA19.jpg,AMNE03.jpg,AMNE18.jpg,MN,1,num_8,16,num_8,0.750117951771,,,2017_Apr_27_1622,60.0012893879,MAFE4ImagesEEG,001,200199,
AFNE01.JPG,AFNE01.JPG,AFNE01.JPG,AFNE01.JPG,AFNE01.JPG,AFNE01.JPG,0,8,8,3,,,,,,,,,,,,,,,,,,,,,,,AMNE06.jpg,AMSA07.jpg,AMNE18.jpg,AMSA11.jpg,AMNE18.jpg,MN,1,num_2,32,num_8,0.683463238063,,,2017_Apr_27_1622,60.0012893879,MAFE4ImagesEEG,001,200199,
AFNE01.JPG,AFNE01.JPG,AFNE01.JPG,AFNE01.JPG,AFNE01.JPG,AFNE01.JPG,0,9,9,7,,,,,,,,,,,,,,,,,,,,,,,AMSA16.jpg,AMNE08.jpg,AMSA12.jpg,AMNE16.jpg,AMNE08.jpg,MN,1,num_6,32,num_2,1.26673400053,,,2017_Apr_27_1622,60.0012893879,MAFE4ImagesEEG,001,200199,
AFNE01.JPG,AFNE01.JPG,AFNE01.JPG,AFNE01.JPG,AFNE01.JPG,AFNE01.JPG,1,0,10,8,,,,,,,,,,,,,,,,,,,,,,,AMSA14.jpg,AMNE08.jpg,AMNE12.jpg,AMSA20.jpg,AMNE08.jpg,MN,1,num_6,32,num_4,1.26675003744,,,2017_Apr_27_1622,60.0012893879,MAFE4ImagesEEG,001,200199,
AFNE01.JPG,AFNE01.JPG,AFNE01.JPG,AFNE01.JPG,AFNE01.JPG,AFNE01.JPG,1,1,11,0,,,,,,,,,,,,,,,,,,,,,,,AMSA10.jpg,AMNE02.jpg,AMNE12.jpg,AMSA08.jpg,AMSA10.jpg,MS,2,num_8,32,num_2,1.21669036394,,,2017_Apr_27_1622,60.0012893879,MAFE4ImagesEEG,001,200199,
AFNE01.JPG,AFNE01.JPG,AFNE01.JPG,AFNE01.JPG,AFNE01.JPG,AFNE01.JPG,1,2,12,3,,,,,,,,,,,,,,,,,,,,,,,AMSA20.jpg,AMNE20.jpg,AMSA19.jpg,AMNE16.jpg,AMNE20.jpg,MN,1,num_6,32,num_8,0.800089101307,,,2017_Apr_27_1622,60.0012893879,MAFE4ImagesEEG,001,200199,
AFNE01.JPG,AFNE01.JPG,AFNE01.JPG,AFNE01.JPG,AFNE01.JPG,AFNE01.JPG,1,3,13,1,,,,,,,,,,,,,,,,,,,,,,,AMSA12.jpg,AMNE17.jpg,AMNE02.jpg,AMSA18.jpg,AMSA18.jpg,MS,2,num_4,16,num_4,0.766747952672,,,2017_Apr_27_1622,60.0012893879,MAFE4ImagesEEG,001,200199,
AFNE01.JPG,AFNE01.JPG,AFNE01.JPG,AFNE01.JPG,AFNE01.JPG,AFNE01.JPG,1,4,14,6,,,,,,,,,,,,,,,,,,,,,,,AMNE04.jpg,AMSA02.jpg,AMSA17.jpg,AMNE03.jpg,AMNE03.jpg,MN,1,num_4,16,num_4,0.650166672072,,,2017_Apr_27_1622,60.0012893879,MAFE4ImagesEEG,001,200199,
AFNE01.JPG,AFNE01.JPG,AFNE01.JPG,AFNE01.JPG,AFNE01.JPG,AFNE01.JPG,1,5,15,5,,,,,,,,,,,,,,,,,,,,,,,AMNE16.jpg,AMNE14.jpg,AMSA13.jpg,AMSA07.jpg,AMSA07.jpg,MS,2,num_4,32,num_8,0.900104208151,,,2017_Apr_27_1622,60.0012893879,MAFE4ImagesEEG,001,200199,
AFNE01.JPG,AFNE01.JPG,AFNE01.JPG,AFNE01.JPG,AFNE01.JPG,AFNE01.JPG,1,6,16,4,,,,,,,,,,,,,,,,,,,,,,,AMNE03.jpg,AMNE02.jpg,AMSA08.jpg,AMSA02.jpg,AMNE02.jpg,MN,1,num_6,32,num_4,1.24978454353,,,2017_Apr_27_1622,60.0012893879,MAFE4ImagesEEG,001,200199,
AFNE01.JPG,AFNE01.JPG,AFNE01.JPG,AFNE01.JPG,AFNE01.JPG,AFNE01.JPG,1,7,17,9,,,,,,,,,,,,,,,,,,,,,,,AMSA09.jpg,AMSA14.jpg,AMNE01.jpg,AMNE18.jpg,AMSA09.jpg,MS,2,num_8,32,num_2,1.31672856386,,,2017_Apr_27_1622,60.0012893879,MAFE4ImagesEEG,001,200199,
AFNE01.JPG,AFNE01.JPG,AFNE01.JPG,AFNE01.JPG,AFNE01.JPG,AFNE01.JPG,1,8,18,2,,,,,,,,,,,,,,,,,,,,,,,AMSA09.jpg,AMNE20.jpg,AMSA06.jpg,AMNE19.jpg,AMSA09.jpg,MS,2,num_8,32,num_6,1.03348965081,,,2017_Apr_27_1622,60.0012893879,MAFE4ImagesEEG,001,200199,
AFNE01.JPG,AFNE01.JPG,AFNE01.JPG,AFNE01.JPG,AFNE01.JPG,AFNE01.JPG,1,9,19,7,,,,,,,,,,,,,,,,,,,,,,,AMSA16.jpg,AMNE18.jpg,AMNE11.jpg,AMSA11.jpg,AMNE11.jpg,MN,1,num_2,32,num_8,0.800088780583,,,2017_Apr_27_1622,60.0012893879,MAFE4ImagesEEG,001,200199,
AFNE01.JPG,AFNE01.JPG,AFNE01.JPG,AFNE01.JPG,AFNE01.JPG,AFNE01.JPG,2,0,20,3,,,,,,,,,,,,,,,,,,,,,,,AMSA11.jpg,AMNE15.jpg,AMSA20.jpg,AMNE14.jpg,AMSA20.jpg,MS,2,num_2,32,num_6,1.21677407681,,,2017_Apr_27_1622,60.0012893879,MAFE4ImagesEEG,001,200199,
AFNE01.JPG,AFNE01.JPG,AFNE01.JPG,AFNE01.JPG,AFNE01.JPG,AFNE01.JPG,2,1,21,1,,,,,,,,,,,,,,,,,,,,,,,AMSA02.jpg,AMNE05.jpg,AMSA15.jpg,AMNE10.jpg,AMSA02.jpg,MS,2,num_8,16,num_8,1.11671534949,,,2017_Apr_27_1622,60.0012893879,MAFE4ImagesEEG,001,200199,
AFNE01.JPG,AFNE01.JPG,AFNE01.JPG,AFNE01.JPG,AFNE01.JPG,AFNE01.JPG,2,2,22,7,,,,,,,,,,,,,,,,,,,,,,,AMNE03.jpg,AMSA14.jpg,AMSA03.jpg,AMNE10.jpg,AMSA03.jpg,MS,2,num_2,16,num_2,1.53338492964,,,2017_Apr_27_1622,60.0012893879,MAFE4ImagesEEG,001,200199,
AFNE01.JPG,AFNE01.JPG,AFNE01.JPG,AFNE01.JPG,AFNE01.JPG,AFNE01.JPG,2,3,23,0,,,,,,,,,,,,,,,,,,,,,,,AMNE20.jpg,AMNE19.jpg,AMSA16.jpg,AMSA08.jpg,AMNE19.jpg,MN,1,num_6,16,num_6,0.450161476037,,,2017_Apr_27_1622,60.0012893879,MAFE4ImagesEEG,001,200199,
AFNE01.JPG,AFNE01.JPG,AFNE01.JPG,AFNE01.JPG,AFNE01.JPG,AFNE01.JPG,2,4,24,2,,,,,,,,,,,,,,,,,,,,,,,AMSA03.jpg,AMSA15.jpg,AMNE01.jpg,AMNE16.jpg,AMNE16.jpg,MN,1,num_4,32,num_8,0.583459036308,,,2017_Apr_27_1622,60.0012893879,MAFE4ImagesEEG,001,200199,
AFNE01.JPG,AFNE01.JPG,AFNE01.JPG,AFNE01.JPG,AFNE01.JPG,AFNE01.JPG,2,5,25,4,,,,,,,,,,,,,,,,,,,,,,,AMSA15.jpg,AMNE04.jpg,AMNE20.jpg,AMSA19.jpg,AMNE04.jpg,MN,1,num_6,16,num_6,0.833463927498,,,2017_Apr_27_1622,60.0012893879,MAFE4ImagesEEG,001,200199,
AFNE01.JPG,AFNE01.JPG,AFNE01.JPG,AFNE01.JPG,AFNE01.JPG,AFNE01.JPG,2,6,26,9,,,,,,,,,,,,,,,,,,,,,,,AMSA04.jpg,AMSA08.jpg,AMNE20.jpg,AMNE18.jpg,AMNE20.jpg,MN,1,num_2,32,num_4,0.766759499325,,,2017_Apr_27_1622,60.0012893879,MAFE4ImagesEEG,001,200199,
AFNE01.JPG,AFNE01.JPG,AFNE01.JPG,AFNE01.JPG,AFNE01.JPG,AFNE01.JPG,2,7,27,8,,,,,,,,,,,,,,,,,,,,,,,AMSA05.jpg,AMSA12.jpg,AMNE03.jpg,AMNE17.jpg,AMSA05.jpg,MS,2,num_8,32,num_2,0.749843719881,,,2017_Apr_27_1622,60.0012893879,MAFE4ImagesEEG,001,200199,
AFNE01.JPG,AFNE01.JPG,AFNE01.JPG,AFNE01.JPG,AFNE01.JPG,AFNE01.JPG,2,8,28,6,,,,,,,,,,,,,,,,,,,,,,,AMNE01.jpg,AMNE20.jpg,AMSA07.jpg,AMSA01.jpg,AMNE20.jpg,MN,1,num_6,32,num_2,1.15004591376,,,2017_Apr_27_1622,60.0012893879,MAFE4ImagesEEG,001,200199,
AFNE01.JPG,AFNE01.JPG,AFNE01.JPG,AFNE01.JPG,AFNE01.JPG,AFNE01.JPG,2,9,29,5,,,,,,,,,,,,,,,,,,,,,,,AMNE13.jpg,AMNE19.jpg,AMSA01.jpg,AMSA02.jpg,AMNE19.jpg,MN,1,num_6,16,num_6,1.03346559545,,,2017_Apr_27_1622,60.0012893879,MAFE4ImagesEEG,001,200199,
AFNE01.JPG,AFNE01.JPG,AFNE01.JPG,AFNE01.JPG,AFNE01.JPG,AFNE01.JPG,3,0,30,7,,,,,,,,,,,,,,,,,,,,,,,AMSA06.jpg,AMNE02.jpg,AMNE09.jpg,AMSA18.jpg,AMSA06.jpg,MS,2,num_8,16,num_8,0.533463831409,,,2017_Apr_27_1622,60.0012893879,MAFE4ImagesEEG,001,200199,
AFNE01.JPG,AFNE01.JPG,AFNE01.JPG,AFNE01.JPG,AFNE01.JPG,AFNE01.JPG,3,1,31,5,,,,,,,,,,,,,,,,,,,,,,,AMNE15.jpg,AMSA10.jpg,AMSA18.jpg,AMNE17.jpg,AMNE15.jpg,MN,1,num_8,32,num_6,0.766765914042,,,2017_Apr_27_1622,60.0012893879,MAFE4ImagesEEG,001,200199,
AFNE01.JPG,AFNE01.JPG,AFNE01.JPG,AFNE01.JPG,AFNE01.JPG,AFNE01.JPG,3,2,32,4,,,,,,,,,,,,,,,,,,,,,,,AMSA16.jpg,AMNE18.jpg,AMSA13.jpg,AMNE10.jpg,AMSA16.jpg,MS,2,num_8,32,num_4,0.700094521744,,,2017_Apr_27_1622,60.0012893879,MAFE4ImagesEEG,001,200199,
AFNE01.JPG,AFNE01.JPG,AFNE01.JPG,AFNE01.JPG,AFNE01.JPG,AFNE01.JPG,3,3,33,0,,,,,,,,,,,,,,,,,,,,,,,AMNE03.jpg,AMNE20.jpg,AMSA08.jpg,AMSA03.jpg,AMSA08.jpg,MS,2,num_2,32,num_4,0.61671037809,,,2017_Apr_27_1622,60.0012893879,MAFE4ImagesEEG,001,200199,
AFNE01.JPG,AFNE01.JPG,AFNE01.JPG,AFNE01.JPG,AFNE01.JPG,AFNE01.JPG,3,4,34,1,,,,,,,,,,,,,,,,,,,,,,,AMSA04.jpg,AMNE03.jpg,AMNE19.jpg,AMSA01.jpg,AMNE03.jpg,MN,1,num_6,16,num_6,0.916784885689,,,2017_Apr_27_1622,60.0012893879,MAFE4ImagesEEG,001,200199,
AFNE01.JPG,AFNE01.JPG,AFNE01.JPG,AFNE01.JPG,AFNE01.JPG,AFNE01.JPG,3,5,35,3,,,,,,,,,,,,,,,,,,,,,,,AMNE12.jpg,AMSA03.jpg,AMSA20.jpg,AMNE01.jpg,AMSA03.jpg,MS,2,num_6,16,num_6,0.466802382027,,,2017_Apr_27_1622,60.0012893879,MAFE4ImagesEEG,001,200199,
AFNE01.JPG,AFNE01.JPG,AFNE01.JPG,AFNE01.JPG,AFNE01.JPG,AFNE01.JPG,3,6,36,2,,,,,,,,,,,,,,,,,,,,,,,AMNE09.jpg,AMNE18.jpg,AMSA10.jpg,AMSA18.jpg,AMNE18.jpg,MN,1,num_6,32,num_8,0.716642413405,,,2017_Apr_27_1622,60.0012893879,MAFE4ImagesEEG,001,200199,
AFNE01.JPG,AFNE01.JPG,AFNE01.JPG,AFNE01.JPG,AFNE01.JPG,AFNE01.JPG,3,7,37,9,,,,,,,,,,,,,,,,,,,,,,,AMSA04.jpg,AMNE16.jpg,AMNE06.jpg,AMSA17.jpg,AMNE16.jpg,MN,1,num_6,32,num_2,0.933456903324,,,2017_Apr_27_1622,60.0012893879,MAFE4ImagesEEG,001,200199,
AFNE01.JPG,AFNE01.JPG,AFNE01.JPG,AFNE01.JPG,AFNE01.JPG,AFNE01.JPG,3,8,38,6,,,,,,,,,,,,,,,,,,,,,,,AMNE19.jpg,AMSA13.jpg,AMSA15.jpg,AMNE08.jpg,AMSA13.jpg,MS,2,num_6,32,num_2,0.983420034405,,,2017_Apr_27_1622,60.0012893879,MAFE4ImagesEEG,001,200199,
AFNE01.JPG,AFNE01.JPG,AFNE01.JPG,AFNE01.JPG,AFNE01.JPG,AFNE01.JPG,3,9,39,8,,,,,,,,,,,,,,,,,,,,,,,AMSA01.jpg,AMNE07.jpg,AMNE10.jpg,AMSA04.jpg,AMSA01.jpg,MS,2,num_8,16,num_8,0.450214718818,,,2017_Apr_27_1622,60.0012893879,MAFE4ImagesEEG,001,200199,
AFNE01.JPG,AFNE01.JPG,AFNE01.JPG,AFNE01.JPG,AFNE01.JPG,AFNE01.JPG,4,0,40,9,,,,,,,,,,,,,,,,,,,,,,,AMNE10.jpg,AMNE01.jpg,AMSA12.jpg,AMSA14.jpg,AMSA12.jpg,MS,2,num_2,16,num_2,0.550160225248,,,2017_Apr_27_1622,60.0012893879,MAFE4ImagesEEG,001,200199,
AFNE01.JPG,AFNE01.JPG,AFNE01.JPG,AFNE01.JPG,AFNE01.JPG,AFNE01.JPG,4,1,41,1,,,,,,,,,,,,,,,,,,,,,,,AMSA11.jpg,AMNE20.jpg,AMSA05.jpg,AMNE14.jpg,AMNE14.jpg,MN,1,num_4,32,num_6,0.800119892345,,,2017_Apr_27_1622,60.0012893879,MAFE4ImagesEEG,001,200199,
AFNE01.JPG,AFNE01.JPG,AFNE01.JPG,AFNE01.JPG,AFNE01.JPG,AFNE01.JPG,4,2,42,3,,,,,,,,,,,,,,,,,,,,,,,AMSA04.jpg,AMSA19.jpg,AMNE09.jpg,AMNE19.jpg,AMSA19.jpg,MS,2,num_6,32,num_4,0.750115065137,,,2017_Apr_27_1622,60.0012893879,MAFE4ImagesEEG,001,200199,
AFNE01.JPG,AFNE01.JPG,AFNE01.JPG,AFNE01.JPG,AFNE01.JPG,AFNE01.JPG,4,3,43,8,,,,,,,,,,,,,,,,,,,,,,,AMNE13.jpg,AMSA13.jpg,AMNE20.jpg,AMSA18.jpg,AMNE13.jpg,MN,1,num_8,16,num_8,0.916788734612,,,2017_Apr_27_1622,60.0012893879,MAFE4ImagesEEG,001,200199,
AFNE01.JPG,AFNE01.JPG,AFNE01.JPG,AFNE01.JPG,AFNE01.JPG,AFNE01.JPG,4,4,44,2,,,,,,,,,,,,,,,,,,,,,,,AMNE15.jpg,AMSA08.jpg,AMNE13.jpg,AMSA11.jpg,AMNE15.jpg,MN,1,num_8,32,num_2,1.20009275782,,,2017_Apr_27_1622,60.0012893879,MAFE4ImagesEEG,001,200199,
AFNE01.JPG,AFNE01.JPG,AFNE01.JPG,AFNE01.JPG,AFNE01.JPG,AFNE01.JPG,4,5,45,6,,,,,,,,,,,,,,,,,,,,,,,AMNE07.jpg,AMSA07.jpg,AMNE08.jpg,AMSA02.jpg,AMSA07.jpg,MS,2,num_6,16,num_6,0.566805300885,,,2017_Apr_27_1622,60.0012893879,MAFE4ImagesEEG,001,200199,
AFNE01.JPG,AFNE01.JPG,AFNE01.JPG,AFNE01.JPG,AFNE01.JPG,AFNE01.JPG,4,6,46,0,,,,,,,,,,,,,,,,,,,,,,,AMSA10.jpg,AMNE12.jpg,AMSA02.jpg,AMNE19.jpg,AMNE12.jpg,MN,1,num_6,32,num_8,0.966743847239,,,2017_Apr_27_1622,60.0012893879,MAFE4ImagesEEG,001,200199,
AFNE01.JPG,AFNE01.JPG,AFNE01.JPG,AFNE01.JPG,AFNE01.JPG,AFNE01.JPG,4,7,47,7,,,,,,,,,,,,,,,,,,,,,,,AMSA04.jpg,AMSA02.jpg,AMNE10.jpg,AMNE17.jpg,AMNE17.jpg,MN,1,num_4,32,num_2,1.11672529241,,,2017_Apr_27_1622,60.0012893879,MAFE4ImagesEEG,001,200199,
AFNE01.JPG,AFNE01.JPG,AFNE01.JPG,AFNE01.JPG,AFNE01.JPG,AFNE01.JPG,4,8,48,5,,,,,,,,,,,,,,,,,,,,,,,AMNE07.jpg,AMNE06.jpg,AMSA20.jpg,AMSA11.jpg,AMNE07.jpg,MN,1,num_8,32,num_6,0.816837134189,,,2017_Apr_27_1622,60.0012893879,MAFE4ImagesEEG,001,200199,
AFNE01.JPG,AFNE01.JPG,AFNE01.JPG,AFNE01.JPG,AFNE01.JPG,AFNE01.JPG,4,9,49,4,,,,,,,,,,,,,,,,,,,,,,,AMSA09.jpg,AMNE01.jpg,AMNE03.jpg,AMSA05.jpg,AMNE01.jpg,MN,1,num_6,16,num_6,0.500123003381,,,2017_Apr_27_1622,60.0012893879,MAFE4ImagesEEG,001,200199,
AFNE01.JPG,AFNE01.JPG,AFNE01.JPG,AFNE01.JPG,AFNE01.JPG,AFNE01.JPG,5,0,50,6,,,,,,,,,,,,,,,,,,,,,,,AMSA20.jpg,AMSA09.jpg,AMNE12.jpg,AMNE20.jpg,AMSA09.jpg,MS,2,num_6,32,num_8,0.500210244441,,,2017_Apr_27_1622,60.0012893879,MAFE4ImagesEEG,001,200199,
AFNE01.JPG,AFNE01.JPG,AFNE01.JPG,AFNE01.JPG,AFNE01.JPG,AFNE01.JPG,5,1,51,3,,,,,,,,,,,,,,,,,,,,,,,AMNE04.jpg,AMNE09.jpg,AMSA01.jpg,AMSA19.jpg,AMSA01.jpg,MS,2,num_2,32,num_4,0.833447249257,,,2017_Apr_27_1622,60.0012893879,MAFE4ImagesEEG,001,200199,
AFNE01.JPG,AFNE01.JPG,AFNE01.JPG,AFNE01.JPG,AFNE01.JPG,AFNE01.JPG,5,2,52,4,,,,,,,,,,,,,,,,,,,,,,,AMSA03.jpg,AMSA19.jpg,AMNE16.jpg,AMNE01.jpg,AMSA03.jpg,MS,2,num_8,16,num_8,0.750150987878,,,2017_Apr_27_1622,60.0012893879,MAFE4ImagesEEG,001,200199,
AFNE01.JPG,AFNE01.JPG,AFNE01.JPG,AFNE01.JPG,AFNE01.JPG,AFNE01.JPG,5,3,53,7,,,,,,,,,,,,,,,,,,,,,,,AMNE20.jpg,AMNE05.jpg,AMSA19.jpg,AMSA20.jpg,AMSA20.jpg,MS,2,num_4,32,num_2,1.01678587997,,,2017_Apr_27_1622,60.0012893879,MAFE4ImagesEEG,001,200199,
AFNE01.JPG,AFNE01.JPG,AFNE01.JPG,AFNE01.JPG,AFNE01.JPG,AFNE01.JPG,5,4,54,8,,,,,,,,,,,,,,,,,,,,,,,AMSA04.jpg,AMNE19.jpg,AMNE17.jpg,AMSA18.jpg,AMSA04.jpg,MS,2,num_8,16,num_8,0.8999646866,,,2017_Apr_27_1622,60.0012893879,MAFE4ImagesEEG,001,200199,
AFNE01.JPG,AFNE01.JPG,AFNE01.JPG,AFNE01.JPG,AFNE01.JPG,AFNE01.JPG,5,5,55,1,,,,,,,,,,,,,,,,,,,,,,,AMNE12.jpg,AMNE17.jpg,AMSA04.jpg,AMSA12.jpg,AMSA12.jpg,MS,2,num_4,32,num_6,0.616769714747,,,2017_Apr_27_1622,60.0012893879,MAFE4ImagesEEG,001,200199,
AFNE01.JPG,AFNE01.JPG,AFNE01.JPG,AFNE01.JPG,AFNE01.JPG,AFNE01.JPG,5,6,56,2,,,,,,,,,,,,,,,,,,,,,,,AMNE19.jpg,AMSA04.jpg,AMNE13.jpg,AMSA15.jpg,AMSA04.jpg,MS,2,num_6,16,num_6,0.483454834553,,,2017_Apr_27_1622,60.0012893879,MAFE4ImagesEEG,001,200199,
AFNE01.JPG,AFNE01.JPG,AFNE01.JPG,AFNE01.JPG,AFNE01.JPG,AFNE01.JPG,5,7,57,5,,,,,,,,,,,,,,,,,,,,,,,AMNE05.jpg,AMSA09.jpg,AMNE09.jpg,AMSA05.jpg,AMNE09.jpg,MN,1,num_2,32,num_8,0.53347056685,,,2017_Apr_27_1622,60.0012893879,MAFE4ImagesEEG,001,200199,
AFNE01.JPG,AFNE01.JPG,AFNE01.JPG,AFNE01.JPG,AFNE01.JPG,AFNE01.JPG,5,8,58,0,,,,,,,,,,,,,,,,,,,,,,,AMSA08.jpg,AMNE07.jpg,AMNE04.jpg,AMSA02.jpg,AMSA08.jpg,MS,2,num_8,32,num_4,0.850108682411,,,2017_Apr_27_1622,60.0012893879,MAFE4ImagesEEG,001,200199,
AFNE01.JPG,AFNE01.JPG,AFNE01.JPG,AFNE01.JPG,AFNE01.JPG,AFNE01.JPG,5,9,59,9,,,,,,,,,,,,,,,,,,,,,,,AMSA06.jpg,AMNE02.jpg,AMSA18.jpg,AMNE04.jpg,AMSA06.jpg,MS,2,num_8,16,num_8,0.983437033719,,,2017_Apr_27_1622,60.0012893879,MAFE4ImagesEEG,001,200199,
,,,,,,,,,,,,,,,,,,,,,,,,,,,,,,,,,,,,,,,,,,,space,36.5306137438,2017_Apr_27_1622,60.0012893879,MAFE4ImagesEEG,001,200199,
AFNE01.JPG,AFNE01.JPG,AFNE01.JPG,AFNE01.JPG,AFNE01.JPG,AFNE01.JPG,,,,,0,0,0,4,,,,,,,,,,,,,,,,,,,AFNE18.jpg,AFNE17.jpg,AFSA18.jpg,AFSA02.jpg,AFSA18.jpg,FS,4,num_2,32,num_4,0.899972063606,,,2017_Apr_27_1622,60.0012893879,MAFE4ImagesEEG,001,200199,
AFNE01.JPG,AFNE01.JPG,AFNE01.JPG,AFNE01.JPG,AFNE01.JPG,AFNE01.JPG,,,,,0,1,1,3,,,,,,,,,,,,,,,,,,,AFSA18.jpg,AFNE02.jpg,AFSA05.jpg,AFNE17.jpg,AFNE02.jpg,FN,3,num_6,32,num_8,0.716771671316,,,2017_Apr_27_1622,60.0012893879,MAFE4ImagesEEG,001,200199,
AFNE01.JPG,AFNE01.JPG,AFNE01.JPG,AFNE01.JPG,AFNE01.JPG,AFNE01.JPG,,,,,0,2,2,9,,,,,,,,,,,,,,,,,,,AFNE09.jpg,AFSA18.jpg,AFNE10.jpg,AFSA12.jpg,AFNE10.jpg,FN,3,num_2,16,num_2,1.08339921839,,,2017_Apr_27_1622,60.0012893879,MAFE4ImagesEEG,001,200199,
AFNE01.JPG,AFNE01.JPG,AFNE01.JPG,AFNE01.JPG,AFNE01.JPG,AFNE01.JPG,,,,,0,3,3,7,,,,,,,,,,,,,,,,,,,AFNE06.jpg,AFNE11.jpg,AFSA20.jpg,AFSA06.jpg,AFNE11.jpg,FN,3,num_6,32,num_4,1.0166386608,,,2017_Apr_27_1622,60.0012893879,MAFE4ImagesEEG,001,200199,
AFNE01.JPG,AFNE01.JPG,AFNE01.JPG,AFNE01.JPG,AFNE01.JPG,AFNE01.JPG,,,,,0,4,4,0,,,,,,,,,,,,,,,,,,,AFSA02.jpg,AFNE04.jpg,AFSA01.jpg,AFNE05.jpg,AFNE04.jpg,FN,3,num_6,16,num_6,0.600141638424,,,2017_Apr_27_1622,60.0012893879,MAFE4ImagesEEG,001,200199,
AFNE01.JPG,AFNE01.JPG,AFNE01.JPG,AFNE01.JPG,AFNE01.JPG,AFNE01.JPG,,,,,0,5,5,2,,,,,,,,,,,,,,,,,,,AFSA12.jpg,AFNE20.jpg,AFSA11.jpg,AFNE14.jpg,AFSA11.jpg,FS,4,num_2,16,num_2,0.700142953428,,,2017_Apr_27_1622,60.0012893879,MAFE4ImagesEEG,001,200199,
AFNE01.JPG,AFNE01.JPG,AFNE01.JPG,AFNE01.JPG,AFNE01.JPG,AFNE01.JPG,,,,,0,6,6,6,,,,,,,,,,,,,,,,,,,AFNE03.jpg,AFNE12.jpg,AFSA19.jpg,AFSA12.jpg,AFNE12.jpg,FN,3,num_6,16,num_6,0.633481183322,,,2017_Apr_27_1622,60.0012893879,MAFE4ImagesEEG,001,200199,
AFNE01.JPG,AFNE01.JPG,AFNE01.JPG,AFNE01.JPG,AFNE01.JPG,AFNE01.JPG,,,,,0,7,7,8,,,,,,,,,,,,,,,,,,,AFNE20.jpg,AFSA07.jpg,AFSA12.jpg,AFNE04.jpg,AFSA12.jpg,FS,4,num_2,16,num_2,0.600160241243,,,2017_Apr_27_1622,60.0012893879,MAFE4ImagesEEG,001,200199,
AFNE01.JPG,AFNE01.JPG,AFNE01.JPG,AFNE01.JPG,AFNE01.JPG,AFNE01.JPG,,,,,0,8,8,5,,,,,,,,,,,,,,,,,,,AFSA13.jpg,AFNE11.jpg,AFSA19.jpg,AFNE18.jpg,AFNE11.jpg,FN,3,num_6,32,num_8,0.666787692229,,,2017_Apr_27_1622,60.0012893879,MAFE4ImagesEEG,001,200199,
AFNE01.JPG,AFNE01.JPG,AFNE01.JPG,AFNE01.JPG,AFNE01.JPG,AFNE01.JPG,,,,,0,9,9,1,,,,,,,,,,,,,,,,,,,AFSA16.jpg,AFSA12.jpg,AFNE18.jpg,AFNE15.jpg,AFNE18.jpg,FN,3,num_2,16,num_2,0.816743478295,,,2017_Apr_27_1622,60.0012893879,MAFE4ImagesEEG,001,200199,
AFNE01.JPG,AFNE01.JPG,AFNE01.JPG,AFNE01.JPG,AFNE01.JPG,AFNE01.JPG,,,,,1,0,10,9,,,,,,,,,,,,,,,,,,,AFNE13.jpg,AFSA11.jpg,AFNE07.jpg,AFSA08.jpg,AFNE13.jpg,FN,3,num_8,32,num_6,0.616810769308,,,2017_Apr_27_1622,60.0012893879,MAFE4ImagesEEG,001,200199,
AFNE01.JPG,AFNE01.JPG,AFNE01.JPG,AFNE01.JPG,AFNE01.JPG,AFNE01.JPG,,,,,1,1,11,4,,,,,,,,,,,,,,,,,,,AFSA13.jpg,AFNE17.jpg,AFSA06.jpg,AFNE12.jpg,AFSA06.jpg,FS,4,num_2,32,num_8,0.616786072496,,,2017_Apr_27_1622,60.0012893879,MAFE4ImagesEEG,001,200199,
AFNE01.JPG,AFNE01.JPG,AFNE01.JPG,AFNE01.JPG,AFNE01.JPG,AFNE01.JPG,,,,,1,2,12,6,,,,,,,,,,,,,,,,,,,AFNE03.jpg,AFNE14.jpg,AFSA04.jpg,AFSA19.jpg,AFSA19.jpg,FS,4,num_4,32,num_6,0.650150635163,,,2017_Apr_27_1622,60.0012893879,MAFE4ImagesEEG,001,200199,
AFNE01.JPG,AFNE01.JPG,AFNE01.JPG,AFNE01.JPG,AFNE01.JPG,AFNE01.JPG,,,,,1,3,13,2,,,,,,,,,,,,,,,,,,,AFSA08.jpg,AFNE03.jpg,AFNE18.jpg,AFSA12.jpg,AFNE18.jpg,FN,3,num_2,16,num_2,0.800446404726,,,2017_Apr_27_1622,60.0012893879,MAFE4ImagesEEG,001,200199,
AFNE01.JPG,AFNE01.JPG,AFNE01.JPG,AFNE01.JPG,AFNE01.JPG,AFNE01.JPG,,,,,1,4,14,8,,,,,,,,,,,,,,,,,,,AFSA07.jpg,AFNE08.jpg,AFSA20.jpg,AFNE10.jpg,AFNE10.jpg,FN,3,num_4,32,num_8,0.533579938929,,,2017_Apr_27_1622,60.0012893879,MAFE4ImagesEEG,001,200199,
AFNE01.JPG,AFNE01.JPG,AFNE01.JPG,AFNE01.JPG,AFNE01.JPG,AFNE01.JPG,,,,,1,5,15,7,,,,,,,,,,,,,,,,,,,AFSA05.jpg,AFNE12.jpg,AFSA19.jpg,AFNE15.jpg,AFNE15.jpg,FN,3,num_4,16,num_4,0.666820407612,,,2017_Apr_27_1622,60.0012893879,MAFE4ImagesEEG,001,200199,
AFNE01.JPG,AFNE01.JPG,AFNE01.JPG,AFNE01.JPG,AFNE01.JPG,AFNE01.JPG,,,,,1,6,16,1,,,,,,,,,,,,,,,,,,,AFSA05.jpg,AFSA06.jpg,AFNE16.jpg,AFNE05.jpg,AFSA06.jpg,FS,4,num_6,16,num_6,1.06660596153,,,2017_Apr_27_1622,60.0012893879,MAFE4ImagesEEG,001,200199,
AFNE01.JPG,AFNE01.JPG,AFNE01.JPG,AFNE01.JPG,AFNE01.JPG,AFNE01.JPG,,,,,1,7,17,3,,,,,,,,,,,,,,,,,,,AFNE13.jpg,AFNE03.jpg,AFSA09.jpg,AFSA20.jpg,AFNE03.jpg,FN,3,num_6,32,num_8,0.483479531598,,,2017_Apr_27_1622,60.0012893879,MAFE4ImagesEEG,001,200199,
AFNE01.JPG,AFNE01.JPG,AFNE01.JPG,AFNE01.JPG,AFNE01.JPG,AFNE01.JPG,,,,,1,8,18,5,,,,,,,,,,,,,,,,,,,AFNE06.jpg,AFNE14.jpg,AFSA19.jpg,AFSA10.jpg,AFSA19.jpg,FS,4,num_2,32,num_4,0.849875505199,,,2017_Apr_27_1622,60.0012893879,MAFE4ImagesEEG,001,200199,
AFNE01.JPG,AFNE01.JPG,AFNE01.JPG,AFNE01.JPG,AFNE01.JPG,AFNE01.JPG,,,,,1,9,19,0,,,,,,,,,,,,,,,,,,,AFNE14.jpg,AFSA06.jpg,AFNE02.jpg,AFSA11.jpg,AFSA06.jpg,FS,4,num_6,32,num_8,0.783444987959,,,2017_Apr_27_1622,60.0012893879,MAFE4ImagesEEG,001,200199,
AFNE01.JPG,AFNE01.JPG,AFNE01.JPG,AFNE01.JPG,AFNE01.JPG,AFNE01.JPG,,,,,2,0,20,0,,,,,,,,,,,,,,,,,,,AFNE03.jpg,AFSA19.jpg,AFSA11.jpg,AFNE02.jpg,AFNE02.jpg,FN,3,num_4,32,num_6,0.716754992958,,,2017_Apr_27_1622,60.0012893879,MAFE4ImagesEEG,001,200199,
AFNE01.JPG,AFNE01.JPG,AFNE01.JPG,AFNE01.JPG,AFNE01.JPG,AFNE01.JPG,,,,,2,1,21,9,,,,,,,,,,,,,,,,,,,AFNE14.jpg,AFNE13.jpg,AFSA14.jpg,AFSA11.jpg,AFSA14.jpg,FS,4,num_2,32,num_8,0.516817793483,,,2017_Apr_27_1622,60.0012893879,MAFE4ImagesEEG,001,200199,
AFNE01.JPG,AFNE01.JPG,AFNE01.JPG,AFNE01.JPG,AFNE01.JPG,AFNE01.JPG,,,,,2,2,22,8,,,,,,,,,,,,,,,,,,,AFNE01.jpg,AFNE05.jpg,AFSA19.jpg,AFSA15.jpg,AFSA15.jpg,FS,4,num_4,32,num_2,0.966419259319,,,2017_Apr_27_1622,60.0012893879,MAFE4ImagesEEG,001,200199,
AFNE01.JPG,AFNE01.JPG,AFNE01.JPG,AFNE01.JPG,AFNE01.JPG,AFNE01.JPG,,,,,2,3,23,2,,,,,,,,,,,,,,,,,,,AFNE01.jpg,AFSA12.jpg,AFSA07.jpg,AFNE19.jpg,AFSA12.jpg,FS,4,num_6,16,num_6,0.766767197056,,,2017_Apr_27_1622,60.0012893879,MAFE4ImagesEEG,001,200199,
AFNE01.JPG,AFNE01.JPG,AFNE01.JPG,AFNE01.JPG,AFNE01.JPG,AFNE01.JPG,,,,,2,4,24,5,,,,,,,,,,,,,,,,,,,AFSA05.jpg,AFNE15.jpg,AFSA12.jpg,AFNE16.jpg,AFSA05.jpg,FS,4,num_8,16,num_8,0.633477334515,,,2017_Apr_27_1622,60.0012893879,MAFE4ImagesEEG,001,200199,
AFNE01.JPG,AFNE01.JPG,AFNE01.JPG,AFNE01.JPG,AFNE01.JPG,AFNE01.JPG,,,,,2,5,25,4,,,,,,,,,,,,,,,,,,,AFSA19.jpg,AFNE19.jpg,AFNE17.jpg,AFSA11.jpg,AFNE19.jpg,FN,3,num_6,16,num_6,0.733466782141,,,2017_Apr_27_1622,60.0012893879,MAFE4ImagesEEG,001,200199,
AFNE01.JPG,AFNE01.JPG,AFNE01.JPG,AFNE01.JPG,AFNE01.JPG,AFNE01.JPG,,,,,2,6,26,1,,,,,,,,,,,,,,,,,,,AFSA01.jpg,AFNE04.jpg,AFSA06.jpg,AFNE19.jpg,AFSA01.jpg,FS,4,num_8,32,num_4,1.00010135362,,,2017_Apr_27_1622,60.0012893879,MAFE4ImagesEEG,001,200199,
AFNE01.JPG,AFNE01.JPG,AFNE01.JPG,AFNE01.JPG,AFNE01.JPG,AFNE01.JPG,,,,,2,7,27,3,,,,,,,,,,,,,,,,,,,AFNE03.jpg,AFSA18.jpg,AFSA17.jpg,AFNE07.jpg,AFNE07.jpg,FN,3,num_4,16,num_4,0.71676333202,,,2017_Apr_27_1622,60.0012893879,MAFE4ImagesEEG,001,200199,
AFNE01.JPG,AFNE01.JPG,AFNE01.JPG,AFNE01.JPG,AFNE01.JPG,AFNE01.JPG,,,,,2,8,28,6,,,,,,,,,,,,,,,,,,,AFSA11.jpg,AFSA08.jpg,AFNE15.jpg,AFNE04.jpg,AFNE15.jpg,FN,3,num_2,16,num_2,1.23342652945,,,2017_Apr_27_1622,60.0012893879,MAFE4ImagesEEG,001,200199,
AFNE01.JPG,AFNE01.JPG,AFNE01.JPG,AFNE01.JPG,AFNE01.JPG,AFNE01.JPG,,,,,2,9,29,7,,,,,,,,,,,,,,,,,,,AFNE03.jpg,AFNE01.jpg,AFSA08.jpg,AFSA17.jpg,AFNE01.jpg,FN,3,num_6,32,num_8,0.733461971162,,,2017_Apr_27_1622,60.0012893879,MAFE4ImagesEEG,001,200199,
AFNE01.JPG,AFNE01.JPG,AFNE01.JPG,AFNE01.JPG,AFNE01.JPG,AFNE01.JPG,,,,,3,0,30,1,,,,,,,,,,,,,,,,,,,AFSA04.jpg,AFSA10.jpg,AFNE12.jpg,AFNE18.jpg,AFSA04.jpg,FS,4,num_8,32,num_6,0.900119603495,,,2017_Apr_27_1622,60.0012893879,MAFE4ImagesEEG,001,200199,
AFNE01.JPG,AFNE01.JPG,AFNE01.JPG,AFNE01.JPG,AFNE01.JPG,AFNE01.JPG,,,,,3,1,31,2,,,,,,,,,,,,,,,,,,,AFSA18.jpg,AFNE12.jpg,AFNE06.jpg,AFSA12.jpg,AFSA12.jpg,FS,4,num_4,16,num_4,0.616809165687,,,2017_Apr_27_1622,60.0012893879,MAFE4ImagesEEG,001,200199,
AFNE01.JPG,AFNE01.JPG,AFNE01.JPG,AFNE01.JPG,AFNE01.JPG,AFNE01.JPG,,,,,3,2,32,7,,,,,,,,,,,,,,,,,,,AFNE12.jpg,AFNE11.jpg,AFSA16.jpg,AFSA10.jpg,AFNE11.jpg,FN,3,num_6,32,num_8,0.916772697703,,,2017_Apr_27_1622,60.0012893879,MAFE4ImagesEEG,001,200199,
AFNE01.JPG,AFNE01.JPG,AFNE01.JPG,AFNE01.JPG,AFNE01.JPG,AFNE01.JPG,,,,,3,3,33,9,,,,,,,,,,,,,,,,,,,AFSA17.jpg,AFNE17.jpg,AFNE06.jpg,AFSA05.jpg,AFNE06.jpg,FN,3,num_2,16,num_2,0.716644017142,,,2017_Apr_27_1622,60.0012893879,MAFE4ImagesEEG,001,200199,
AFNE01.JPG,AFNE01.JPG,AFNE01.JPG,AFNE01.JPG,AFNE01.JPG,AFNE01.JPG,,,,,3,4,34,4,,,,,,,,,,,,,,,,,,,AFNE12.jpg,AFSA03.jpg,AFSA20.jpg,AFNE18.jpg,AFSA20.jpg,FS,4,num_2,32,num_4,0.600108923041,,,2017_Apr_27_1622,60.0012893879,MAFE4ImagesEEG,001,200199,
AFNE01.JPG,AFNE01.JPG,AFNE01.JPG,AFNE01.JPG,AFNE01.JPG,AFNE01.JPG,,,,,3,5,35,3,,,,,,,,,,,,,,,,,,,AFSA07.jpg,AFNE04.jpg,AFSA13.jpg,AFNE06.jpg,AFNE06.jpg,FN,3,num_4,32,num_6,0.533490131958,,,2017_Apr_27_1622,60.0012893879,MAFE4ImagesEEG,001,200199,
AFNE01.JPG,AFNE01.JPG,AFNE01.JPG,AFNE01.JPG,AFNE01.JPG,AFNE01.JPG,,,,,3,6,36,8,,,,,,,,,,,,,,,,,,,AFNE15.jpg,AFSA16.jpg,AFSA07.jpg,AFNE13.jpg,AFSA07.jpg,FS,4,num_2,32,num_8,0.850133700063,,,2017_Apr_27_1622,60.0012893879,MAFE4ImagesEEG,001,200199,
AFNE01.JPG,AFNE01.JPG,AFNE01.JPG,AFNE01.JPG,AFNE01.JPG,AFNE01.JPG,,,,,3,7,37,5,,,,,,,,,,,,,,,,,,,AFSA12.jpg,AFSA10.jpg,AFNE07.jpg,AFNE02.jpg,AFNE02.jpg,FN,3,num_4,16,num_4,0.933442790876,,,2017_Apr_27_1622,60.0012893879,MAFE4ImagesEEG,001,200199,
AFNE01.JPG,AFNE01.JPG,AFNE01.JPG,AFNE01.JPG,AFNE01.JPG,AFNE01.JPG,,,,,3,8,38,0,,,,,,,,,,,,,,,,,,,AFSA18.jpg,AFSA07.jpg,AFNE12.jpg,AFNE15.jpg,AFNE12.jpg,FN,3,num_2,32,num_4,1.11675159296,,,2017_Apr_27_1622,60.0012893879,MAFE4ImagesEEG,001,200199,
AFNE01.JPG,AFNE01.JPG,AFNE01.JPG,AFNE01.JPG,AFNE01.JPG,AFNE01.JPG,,,,,3,9,39,6,,,,,,,,,,,,,,,,,,,AFNE13.jpg,AFSA16.jpg,AFNE01.jpg,AFSA07.jpg,AFNE13.jpg,FN,3,num_8,16,num_8,0.883440208854,,,2017_Apr_27_1622,60.0012893879,MAFE4ImagesEEG,001,200199,
AFNE01.JPG,AFNE01.JPG,AFNE01.JPG,AFNE01.JPG,AFNE01.JPG,AFNE01.JPG,,,,,4,0,40,8,,,,,,,,,,,,,,,,,,,AFSA11.jpg,AFSA06.jpg,AFNE08.jpg,AFNE15.jpg,AFSA06.jpg,FS,4,num_6,16,num_6,1.1500818365,,,2017_Apr_27_1622,60.0012893879,MAFE4ImagesEEG,001,200199,
AFNE01.JPG,AFNE01.JPG,AFNE01.JPG,AFNE01.JPG,AFNE01.JPG,AFNE01.JPG,,,,,4,1,41,5,,,,,,,,,,,,,,,,,,,AFSA04.jpg,AFSA19.jpg,AFNE02.jpg,AFNE12.jpg,AFSA04.jpg,FS,4,num_8,32,num_4,1.21677568054,,,2017_Apr_27_1622,60.0012893879,MAFE4ImagesEEG,001,200199,
AFNE01.JPG,AFNE01.JPG,AFNE01.JPG,AFNE01.JPG,AFNE01.JPG,AFNE01.JPG,,,,,4,2,42,9,,,,,,,,,,,,,,,,,,,AFSA06.jpg,AFSA17.jpg,AFNE13.jpg,AFNE16.jpg,AFSA06.jpg,FS,4,num_8,16,num_8,0.733409049222,,,2017_Apr_27_1622,60.0012893879,MAFE4ImagesEEG,001,200199,
AFNE01.JPG,AFNE01.JPG,AFNE01.JPG,AFNE01.JPG,AFNE01.JPG,AFNE01.JPG,,,,,4,3,43,0,,,,,,,,,,,,,,,,,,,AFSA07.jpg,AFNE04.jpg,AFSA20.jpg,AFNE07.jpg,AFNE07.jpg,FN,3,num_4,32,num_2,0.833478040178,,,2017_Apr_27_1622,60.0012893879,MAFE4ImagesEEG,001,200199,
AFNE01.JPG,AFNE01.JPG,AFNE01.JPG,AFNE01.JPG,AFNE01.JPG,AFNE01.JPG,,,,,4,4,44,7,,,,,,,,,,,,,,,,,,,AFNE14.jpg,AFSA10.jpg,AFSA09.jpg,AFNE06.jpg,AFNE06.jpg,FN,3,num_4,16,num_4,0.866750229849,,,2017_Apr_27_1622,60.0012893879,MAFE4ImagesEEG,001,200199,
AFNE01.JPG,AFNE01.JPG,AFNE01.JPG,AFNE01.JPG,AFNE01.JPG,AFNE01.JPG,,,,,4,5,45,6,,,,,,,,,,,,,,,,,,,AFSA14.jpg,AFSA03.jpg,AFNE11.jpg,AFNE08.jpg,AFNE08.jpg,FN,3,num_4,16,num_4,0.916759547312,,,2017_Apr_27_1622,60.0012893879,MAFE4ImagesEEG,001,200199,
AFNE01.JPG,AFNE01.JPG,AFNE01.JPG,AFNE01.JPG,AFNE01.JPG,AFNE01.JPG,,,,,4,6,46,2,,,,,,,,,,,,,,,,,,,AFSA03.jpg,AFNE07.jpg,AFSA16.jpg,AFNE12.jpg,AFSA16.jpg,FS,4,num_2,32,num_6,0.816738346592,,,2017_Apr_27_1622,60.0012893879,MAFE4ImagesEEG,001,200199,
AFNE01.JPG,AFNE01.JPG,AFNE01.JPG,AFNE01.JPG,AFNE01.JPG,AFNE01.JPG,,,,,4,7,47,3,,,,,,,,,,,,,,,,,,,AFSA13.jpg,AFSA01.jpg,AFNE08.jpg,AFNE11.jpg,AFSA01.jpg,FS,4,num_6,32,num_4,0.483503266238,,,2017_Apr_27_1622,60.0012893879,MAFE4ImagesEEG,001,200199,
AFNE01.JPG,AFNE01.JPG,AFNE01.JPG,AFNE01.JPG,AFNE01.JPG,AFNE01.JPG,,,,,4,8,48,4,,,,,,,,,,,,,,,,,,,AFNE13.jpg,AFSA20.jpg,AFNE08.jpg,AFSA11.jpg,AFSA20.jpg,FS,4,num_6,32,num_8,1.23343518935,,,2017_Apr_27_1622,60.0012893879,MAFE4ImagesEEG,001,200199,
AFNE01.JPG,AFNE01.JPG,AFNE01.JPG,AFNE01.JPG,AFNE01.JPG,AFNE01.JPG,,,,,4,9,49,1,,,,,,,,,,,,,,,,,,,AFSA06.jpg,AFSA12.jpg,AFNE13.jpg,AFNE19.jpg,AFSA12.jpg,FS,4,num_6,16,num_6,0.516816510702,,,2017_Apr_27_1622,60.0012893879,MAFE4ImagesEEG,001,200199,
AFNE01.JPG,AFNE01.JPG,AFNE01.JPG,AFNE01.JPG,AFNE01.JPG,AFNE01.JPG,,,,,5,0,50,6,,,,,,,,,,,,,,,,,,,AFSA16.jpg,AFSA04.jpg,AFNE16.jpg,AFNE12.jpg,AFNE16.jpg,FN,3,num_2,32,num_8,0.716750823311,,,2017_Apr_27_1622,60.0012893879,MAFE4ImagesEEG,001,200199,
AFNE01.JPG,AFNE01.JPG,AFNE01.JPG,AFNE01.JPG,AFNE01.JPG,AFNE01.JPG,,,,,5,1,51,3,,,,,,,,,,,,,,,,,,,AFSA07.jpg,AFNE01.jpg,AFSA03.jpg,AFNE07.jpg,AFNE07.jpg,FN,3,num_4,16,num_4,0.650119202677,,,2017_Apr_27_1622,60.0012893879,MAFE4ImagesEEG,001,200199,
AFNE01.JPG,AFNE01.JPG,AFNE01.JPG,AFNE01.JPG,AFNE01.JPG,AFNE01.JPG,,,,,5,2,52,4,,,,,,,,,,,,,,,,,,,AFSA20.jpg,AFNE01.jpg,AFSA09.jpg,AFNE06.jpg,AFSA09.jpg,FS,4,num_2,32,num_8,0.700121784583,,,2017_Apr_27_1622,60.0012893879,MAFE4ImagesEEG,001,200199,
AFNE01.JPG,AFNE01.JPG,AFNE01.JPG,AFNE01.JPG,AFNE01.JPG,AFNE01.JPG,,,,,5,3,53,5,,,,,,,,,,,,,,,,,,,AFNE09.jpg,AFSA03.jpg,AFNE04.jpg,AFSA07.jpg,AFSA03.jpg,FS,4,num_6,16,num_6,0.68348087871,,,2017_Apr_27_1622,60.0012893879,MAFE4ImagesEEG,001,200199,
AFNE01.JPG,AFNE01.JPG,AFNE01.JPG,AFNE01.JPG,AFNE01.JPG,AFNE01.JPG,,,,,5,4,54,8,,,,,,,,,,,,,,,,,,,AFNE19.jpg,AFSA11.jpg,AFSA20.jpg,AFNE04.jpg,AFNE04.jpg,FN,3,num_4,32,num_2,0.800222528749,,,2017_Apr_27_1622,60.0012893879,MAFE4ImagesEEG,001,200199,
AFNE01.JPG,AFNE01.JPG,AFNE01.JPG,AFNE01.JPG,AFNE01.JPG,AFNE01.JPG,,,,,5,5,55,1,,,,,,,,,,,,,,,,,,,AFNE11.jpg,AFSA09.jpg,AFSA11.jpg,AFNE10.jpg,AFNE10.jpg,FN,3,num_4,16,num_4,0.76678515831,,,2017_Apr_27_1622,60.0012893879,MAFE4ImagesEEG,001,200199,
AFNE01.JPG,AFNE01.JPG,AFNE01.JPG,AFNE01.JPG,AFNE01.JPG,AFNE01.JPG,,,,,5,6,56,7,,,,,,,,,,,,,,,,,,,AFSA19.jpg,AFNE20.jpg,AFSA07.jpg,AFNE07.jpg,AFNE07.jpg,FN,3,num_4,32,num_8,0.683471256518,,,2017_Apr_27_1622,60.0012893879,MAFE4ImagesEEG,001,200199,
AFNE01.JPG,AFNE01.JPG,AFNE01.JPG,AFNE01.JPG,AFNE01.JPG,AFNE01.JPG,,,,,5,7,57,0,,,,,,,,,,,,,,,,,,,AFNE13.jpg,AFNE20.jpg,AFSA02.jpg,AFSA11.jpg,AFNE20.jpg,FN,3,num_6,32,num_4,0.950079206494,,,2017_Apr_27_1622,60.0012893879,MAFE4ImagesEEG,001,200199,
AFNE01.JPG,AFNE01.JPG,AFNE01.JPG,AFNE01.JPG,AFNE01.JPG,AFNE01.JPG,,,,,5,8,58,2,,,,,,,,,,,,,,,,,,,AFSA15.jpg,AFNE16.jpg,AFSA19.jpg,AFNE13.jpg,AFSA19.jpg,FS,4,num_2,32,num_6,0.950140467612,,,2017_Apr_27_1622,60.0012893879,MAFE4ImagesEEG,001,200199,
AFNE01.JPG,AFNE01.JPG,AFNE01.JPG,AFNE01.JPG,AFNE01.JPG,AFNE01.JPG,,,,,5,9,59,9,,,,,,,,,,,,,,,,,,,AFNE13.jpg,AFNE18.jpg,AFSA14.jpg,AFSA16.jpg,AFSA14.jpg,FS,4,num_2,32,num_4,0.683469332056,,,2017_Apr_27_1622,60.0012893879,MAFE4ImagesEEG,001,200199,
,,,,,,,,,,,,,,,,,,,,,,,,,,,,,,,,,,,,,,,,,,,space,46.6797926999,2017_Apr_27_1622,60.0012893879,MAFE4ImagesEEG,001,200199,
AFNE01.JPG,AFNE01.JPG,AFNE01.JPG,AFNE01.JPG,AFNE01.JPG,AFNE01.JPG,,,,,,,,,0,0,0,7,,,,,,,,,,,,,,,AMNE09.jpg,AMSA10.jpg,AMSA09.jpg,AMNE13.jpg,AMSA10.jpg,MS,2,num_6,16,num_6,2.10004910512,,,2017_Apr_27_1622,60.0012893879,MAFE4ImagesEEG,001,200199,
AFNE01.JPG,AFNE01.JPG,AFNE01.JPG,AFNE01.JPG,AFNE01.JPG,AFNE01.JPG,,,,,,,,,0,1,1,8,,,,,,,,,,,,,,,AMNE09.jpg,AMSA08.jpg,AMNE11.jpg,AMSA15.jpg,AMSA15.jpg,MS,2,num_4,16,num_4,0.566787980846,,,2017_Apr_27_1622,60.0012893879,MAFE4ImagesEEG,001,200199,
AFNE01.JPG,AFNE01.JPG,AFNE01.JPG,AFNE01.JPG,AFNE01.JPG,AFNE01.JPG,,,,,,,,,0,2,2,4,,,,,,,,,,,,,,,AMNE11.jpg,AMNE20.jpg,AMSA20.jpg,AMSA05.jpg,AMNE11.jpg,MN,1,num_8,16,num_8,0.766835193732,,,2017_Apr_27_1622,60.0012893879,MAFE4ImagesEEG,001,200199,
AFNE01.JPG,AFNE01.JPG,AFNE01.JPG,AFNE01.JPG,AFNE01.JPG,AFNE01.JPG,,,,,,,,,0,3,3,9,,,,,,,,,,,,,,,AMSA15.jpg,AMNE09.jpg,AMNE07.jpg,AMSA02.jpg,AMSA02.jpg,MS,2,num_4,16,num_4,0.683135121944,,,2017_Apr_27_1622,60.0012893879,MAFE4ImagesEEG,001,200199,
AFNE01.JPG,AFNE01.JPG,AFNE01.JPG,AFNE01.JPG,AFNE01.JPG,AFNE01.JPG,,,,,,,,,0,4,4,2,,,,,,,,,,,,,,,AMSA06.jpg,AMSA07.jpg,AMNE20.jpg,AMNE19.jpg,AMNE20.jpg,MN,1,num_2,32,num_8,0.816770099686,,,2017_Apr_27_1622,60.0012893879,MAFE4ImagesEEG,001,200199,
AFNE01.JPG,AFNE01.JPG,AFNE01.JPG,AFNE01.JPG,AFNE01.JPG,AFNE01.JPG,,,,,,,,,0,5,5,3,,,,,,,,,,,,,,,AMSA04.jpg,AMNE15.jpg,AMSA10.jpg,AMNE14.jpg,AMNE15.jpg,MN,1,num_6,32,num_2,1.13341495069,,,2017_Apr_27_1622,60.0012893879,MAFE4ImagesEEG,001,200199,
AFNE01.JPG,AFNE01.JPG,AFNE01.JPG,AFNE01.JPG,AFNE01.JPG,AFNE01.JPG,,,,,,,,,0,6,6,5,,,,,,,,,,,,,,,AMSA10.jpg,AMNE02.jpg,AMSA11.jpg,AMNE16.jpg,AMSA11.jpg,MS,2,num_2,32,num_8,0.683512952644,,,2017_Apr_27_1622,60.0012893879,MAFE4ImagesEEG,001,200199,
AFNE01.JPG,AFNE01.JPG,AFNE01.JPG,AFNE01.JPG,AFNE01.JPG,AFNE01.JPG,,,,,,,,,0,7,7,6,,,,,,,,,,,,,,,AMNE06.jpg,AMSA19.jpg,AMSA04.jpg,AMNE01.jpg,AMNE06.jpg,MN,1,num_8,32,num_4,1.2834162818,,,2017_Apr_27_1622,60.0012893879,MAFE4ImagesEEG,001,200199,
AFNE01.JPG,AFNE01.JPG,AFNE01.JPG,AFNE01.JPG,AFNE01.JPG,AFNE01.JPG,,,,,,,,,0,8,8,0,,,,,,,,,,,,,,,AMNE16.jpg,AMNE06.jpg,AMSA15.jpg,AMSA02.jpg,AMNE06.jpg,MN,1,num_6,32,num_8,1.08342776424,,,2017_Apr_27_1622,60.0012893879,MAFE4ImagesEEG,001,200199,
AFNE01.JPG,AFNE01.JPG,AFNE01.JPG,AFNE01.JPG,AFNE01.JPG,AFNE01.JPG,,,,,,,,,0,9,9,1,,,,,,,,,,,,,,,AMNE04.jpg,AMNE07.jpg,AMSA01.jpg,AMSA17.jpg,AMSA17.jpg,MS,2,num_4,32,num_6,0.766754688229,,,2017_Apr_27_1622,60.0012893879,MAFE4ImagesEEG,001,200199,
AFNE01.JPG,AFNE01.JPG,AFNE01.JPG,AFNE01.JPG,AFNE01.JPG,AFNE01.JPG,,,,,,,,,1,0,10,8,,,,,,,,,,,,,,,AMSA17.jpg,AMNE15.jpg,AMNE09.jpg,AMSA11.jpg,AMNE15.jpg,MN,1,num_6,32,num_4,0.933534522308,,,2017_Apr_27_1622,60.0012893879,MAFE4ImagesEEG,001,200199,
AFNE01.JPG,AFNE01.JPG,AFNE01.JPG,AFNE01.JPG,AFNE01.JPG,AFNE01.JPG,,,,,,,,,1,1,11,5,,,,,,,,,,,,,,,AMNE06.jpg,AMNE11.jpg,AMSA04.jpg,AMSA09.jpg,AMNE06.jpg,MN,1,num_8,16,num_8,0.533507131157,,,2017_Apr_27_1622,60.0012893879,MAFE4ImagesEEG,001,200199,
AFNE01.JPG,AFNE01.JPG,AFNE01.JPG,AFNE01.JPG,AFNE01.JPG,AFNE01.JPG,,,,,,,,,1,2,12,2,,,,,,,,,,,,,,,AMSA07.jpg,AMNE06.jpg,AMSA17.jpg,AMNE13.jpg,AMSA17.jpg,MS,2,num_2,32,num_8,0.833475794876,,,2017_Apr_27_1622,60.0012893879,MAFE4ImagesEEG,001,200199,
AFNE01.JPG,AFNE01.JPG,AFNE01.JPG,AFNE01.JPG,AFNE01.JPG,AFNE01.JPG,,,,,,,,,1,3,13,3,,,,,,,,,,,,,,,AMSA19.jpg,AMNE15.jpg,AMNE08.jpg,AMSA13.jpg,AMNE15.jpg,MN,1,num_6,16,num_6,0.83344468323,,,2017_Apr_27_1622,60.0012893879,MAFE4ImagesEEG,001,200199,
AFNE01.JPG,AFNE01.JPG,AFNE01.JPG,AFNE01.JPG,AFNE01.JPG,AFNE01.JPG,,,,,,,,,1,4,14,4,,,,,,,,,,,,,,,AMNE12.jpg,AMSA18.jpg,AMNE18.jpg,AMSA11.jpg,AMSA18.jpg,MS,2,num_6,16,num_6,0.533451643307,,,2017_Apr_27_1622,60.0012893879,MAFE4ImagesEEG,001,200199,
AFNE01.JPG,AFNE01.JPG,AFNE01.JPG,AFNE01.JPG,AFNE01.JPG,AFNE01.JPG,,,,,,,,,1,5,15,6,,,,,,,,,,,,,,,AMNE09.jpg,AMNE18.jpg,AMSA14.jpg,AMSA19.jpg,AMSA14.jpg,MS,2,num_2,32,num_4,2.00001443329,,,2017_Apr_27_1622,60.0012893879,MAFE4ImagesEEG,001,200199,
AFNE01.JPG,AFNE01.JPG,AFNE01.JPG,AFNE01.JPG,AFNE01.JPG,AFNE01.JPG,,,,,,,,,1,6,16,0,,,,,,,,,,,,,,,AMNE11.jpg,AMNE03.jpg,AMSA07.jpg,AMSA09.jpg,AMSA09.jpg,MS,2,num_4,32,num_2,0.916771735414,,,2017_Apr_27_1622,60.0012893879,MAFE4ImagesEEG,001,200199,
AFNE01.JPG,AFNE01.JPG,AFNE01.JPG,AFNE01.JPG,AFNE01.JPG,AFNE01.JPG,,,,,,,,,1,7,17,9,,,,,,,,,,,,,,,AMNE20.jpg,AMSA09.jpg,AMNE16.jpg,AMSA04.jpg,AMSA09.jpg,MS,2,num_6,32,num_4,0.783482514438,,,2017_Apr_27_1622,60.0012893879,MAFE4ImagesEEG,001,200199,
AFNE01.JPG,AFNE01.JPG,AFNE01.JPG,AFNE01.JPG,AFNE01.JPG,AFNE01.JPG,,,,,,,,,1,8,18,1,,,,,,,,,,,,,,,AMNE08.jpg,AMNE11.jpg,AMSA13.jpg,AMSA01.jpg,AMNE11.jpg,MN,1,num_6,32,num_8,0.850137228263,,,2017_Apr_27_1622,60.0012893879,MAFE4ImagesEEG,001,200199,
AFNE01.JPG,AFNE01.JPG,AFNE01.JPG,AFNE01.JPG,AFNE01.JPG,AFNE01.JPG,,,,,,,,,1,9,19,7,,,,,,,,,,,,,,,AMSA15.jpg,AMNE07.jpg,AMSA11.jpg,AMNE15.jpg,AMNE07.jpg,MN,1,num_6,16,num_6,0.900116716977,,,2017_Apr_27_1622,60.0012893879,MAFE4ImagesEEG,001,200199,
AFNE01.JPG,AFNE01.JPG,AFNE01.JPG,AFNE01.JPG,AFNE01.JPG,AFNE01.JPG,,,,,,,,,2,0,20,9,,,,,,,,,,,,,,,AMSA03.jpg,AMNE15.jpg,AMNE17.jpg,AMSA17.jpg,AMSA17.jpg,MS,2,num_4,16,num_4,1.28341788542,,,2017_Apr_27_1622,60.0012893879,MAFE4ImagesEEG,001,200199,
AFNE01.JPG,AFNE01.JPG,AFNE01.JPG,AFNE01.JPG,AFNE01.JPG,AFNE01.JPG,,,,,,,,,2,1,21,7,,,,,,,,,,,,,,,AMSA07.jpg,AMNE13.jpg,AMNE02.jpg,AMSA17.jpg,AMSA17.jpg,MS,2,num_4,16,num_4,0.633462901227,,,2017_Apr_27_1622,60.0012893879,MAFE4ImagesEEG,001,200199,
AFNE01.JPG,AFNE01.JPG,AFNE01.JPG,AFNE01.JPG,AFNE01.JPG,AFNE01.JPG,,,,,,,,,2,2,22,0,,,,,,,,,,,,,,,AMSA09.jpg,AMNE16.jpg,AMSA11.jpg,AMNE19.jpg,AMNE19.jpg,MN,1,num_4,32,num_8,1.16677598527,,,2017_Apr_27_1622,60.0012893879,MAFE4ImagesEEG,001,200199,
AFNE01.JPG,AFNE01.JPG,AFNE01.JPG,AFNE01.JPG,AFNE01.JPG,AFNE01.JPG,,,,,,,,,2,3,23,2,,,,,,,,,,,,,,,AMNE13.jpg,AMSA17.jpg,AMNE08.jpg,AMSA16.jpg,AMNE13.jpg,MN,1,num_8,32,num_6,1.36673723988,,,2017_Apr_27_1622,60.0012893879,MAFE4ImagesEEG,001,200199,
AFNE01.JPG,AFNE01.JPG,AFNE01.JPG,AFNE01.JPG,AFNE01.JPG,AFNE01.JPG,,,,,,,,,2,4,24,5,,,,,,,,,,,,,,,AMSA13.jpg,AMNE09.jpg,AMNE04.jpg,AMSA01.jpg,AMSA13.jpg,MS,2,num_8,32,num_4,1.2667141147,,,2017_Apr_27_1622,60.0012893879,MAFE4ImagesEEG,001,200199,
AFNE01.JPG,AFNE01.JPG,AFNE01.JPG,AFNE01.JPG,AFNE01.JPG,AFNE01.JPG,,,,,,,,,2,5,25,8,,,,,,,,,,,,,,,AMSA16.jpg,AMNE12.jpg,AMNE01.jpg,AMSA19.jpg,AMSA16.jpg,MS,2,num_8,32,num_2,0.700011771172,,,2017_Apr_27_1622,60.0012893879,MAFE4ImagesEEG,001,200199,
AFNE01.JPG,AFNE01.JPG,AFNE01.JPG,AFNE01.JPG,AFNE01.JPG,AFNE01.JPG,,,,,,,,,2,6,26,4,,,,,,,,,,,,,,,AMNE06.jpg,AMSA08.jpg,AMSA06.jpg,AMNE14.jpg,AMSA08.jpg,MS,2,num_6,16,num_6,0.633498824085,,,2017_Apr_27_1622,60.0012893879,MAFE4ImagesEEG,001,200199,
AFNE01.JPG,AFNE01.JPG,AFNE01.JPG,AFNE01.JPG,AFNE01.JPG,AFNE01.JPG,,,,,,,,,2,7,27,1,,,,,,,,,,,,,,,AMNE19.jpg,AMNE10.jpg,AMSA03.jpg,AMSA18.jpg,AMNE19.jpg,MN,1,num_8,32,num_4,2.18333414057,,,2017_Apr_27_1622,60.0012893879,MAFE4ImagesEEG,001,200199,
AFNE01.JPG,AFNE01.JPG,AFNE01.JPG,AFNE01.JPG,AFNE01.JPG,AFNE01.JPG,,,,,,,,,2,8,28,6,,,,,,,,,,,,,,,AMNE07.jpg,AMSA04.jpg,AMNE20.jpg,AMSA16.jpg,AMSA16.jpg,MS,2,num_4,32,num_8,0.550133603858,,,2017_Apr_27_1622,60.0012893879,MAFE4ImagesEEG,001,200199,
AFNE01.JPG,AFNE01.JPG,AFNE01.JPG,AFNE01.JPG,AFNE01.JPG,AFNE01.JPG,,,,,,,,,2,9,29,3,,,,,,,,,,,,,,,AMSA01.jpg,AMNE18.jpg,AMSA03.jpg,AMNE09.jpg,AMNE09.jpg,MN,1,num_4,16,num_4,1.0000766567,,,2017_Apr_27_1622,60.0012893879,MAFE4ImagesEEG,001,200199,
AFNE01.JPG,AFNE01.JPG,AFNE01.JPG,AFNE01.JPG,AFNE01.JPG,AFNE01.JPG,,,,,,,,,3,0,30,3,,,,,,,,,,,,,,,AMNE07.jpg,AMSA03.jpg,AMSA17.jpg,AMNE06.jpg,AMSA17.jpg,MS,2,num_2,32,num_4,1.10006706649,,,2017_Apr_27_1622,60.0012893879,MAFE4ImagesEEG,001,200199,
AFNE01.JPG,AFNE01.JPG,AFNE01.JPG,AFNE01.JPG,AFNE01.JPG,AFNE01.JPG,,,,,,,,,3,1,31,1,,,,,,,,,,,,,,,AMSA16.jpg,AMNE20.jpg,AMNE04.jpg,AMSA20.jpg,AMSA16.jpg,MS,2,num_8,16,num_8,0.866801548051,,,2017_Apr_27_1622,60.0012893879,MAFE4ImagesEEG,001,200199,
AFNE01.JPG,AFNE01.JPG,AFNE01.JPG,AFNE01.JPG,AFNE01.JPG,AFNE01.JPG,,,,,,,,,3,2,32,9,,,,,,,,,,,,,,,AMSA11.jpg,AMNE05.jpg,AMNE15.jpg,AMSA08.jpg,AMNE05.jpg,MN,1,num_6,32,num_4,1.18345858727,,,2017_Apr_27_1622,60.0012893879,MAFE4ImagesEEG,001,200199,
AFNE01.JPG,AFNE01.JPG,AFNE01.JPG,AFNE01.JPG,AFNE01.JPG,AFNE01.JPG,,,,,,,,,3,3,33,0,,,,,,,,,,,,,,,AMSA18.jpg,AMSA04.jpg,AMNE15.jpg,AMNE06.jpg,AMSA18.jpg,MS,2,num_8,32,num_6,1.26671956724,,,2017_Apr_27_1622,60.0012893879,MAFE4ImagesEEG,001,200199,
AFNE01.JPG,AFNE01.JPG,AFNE01.JPG,AFNE01.JPG,AFNE01.JPG,AFNE01.JPG,,,,,,,,,3,4,34,8,,,,,,,,,,,,,,,AMSA02.jpg,AMNE16.jpg,AMNE18.jpg,AMSA08.jpg,AMSA02.jpg,MS,2,num_8,16,num_8,0.783441139152,,,2017_Apr_27_1622,60.0012893879,MAFE4ImagesEEG,001,200199,
AFNE01.JPG,AFNE01.JPG,AFNE01.JPG,AFNE01.JPG,AFNE01.JPG,AFNE01.JPG,,,,,,,,,3,5,35,7,,,,,,,,,,,,,,,AMNE07.jpg,AMSA01.jpg,AMSA09.jpg,AMNE09.jpg,AMNE09.jpg,MN,1,num_4,16,num_4,0.800117967767,,,2017_Apr_27_1622,60.0012893879,MAFE4ImagesEEG,001,200199,
AFNE01.JPG,AFNE01.JPG,AFNE01.JPG,AFNE01.JPG,AFNE01.JPG,AFNE01.JPG,,,,,,,,,3,6,36,2,,,,,,,,,,,,,,,AMSA20.jpg,AMNE11.jpg,AMNE10.jpg,AMSA02.jpg,AMNE10.jpg,MN,1,num_2,32,num_8,0.616751432652,,,2017_Apr_27_1622,60.0012893879,MAFE4ImagesEEG,001,200199,
AFNE01.JPG,AFNE01.JPG,AFNE01.JPG,AFNE01.JPG,AFNE01.JPG,AFNE01.JPG,,,,,,,,,3,7,37,4,,,,,,,,,,,,,,,AMSA19.jpg,AMNE19.jpg,AMNE16.jpg,AMSA07.jpg,AMSA07.jpg,MS,2,num_4,32,num_6,0.933431244222,,,2017_Apr_27_1622,60.0012893879,MAFE4ImagesEEG,001,200199,
AFNE01.JPG,AFNE01.JPG,AFNE01.JPG,AFNE01.JPG,AFNE01.JPG,AFNE01.JPG,,,,,,,,,3,8,38,6,,,,,,,,,,,,,,,AMNE08.jpg,AMSA18.jpg,AMNE07.jpg,AMSA02.jpg,AMSA02.jpg,MS,2,num_4,16,num_4,0.750115065137,,,2017_Apr_27_1622,60.0012893879,MAFE4ImagesEEG,001,200199,
AFNE01.JPG,AFNE01.JPG,AFNE01.JPG,AFNE01.JPG,AFNE01.JPG,AFNE01.JPG,,,,,,,,,3,9,39,5,,,,,,,,,,,,,,,AMNE20.jpg,AMSA02.jpg,AMNE12.jpg,AMSA16.jpg,AMSA16.jpg,MS,2,num_4,32,num_6,0.683520971099,,,2017_Apr_27_1622,60.0012893879,MAFE4ImagesEEG,001,200199,
AFNE01.JPG,AFNE01.JPG,AFNE01.JPG,AFNE01.JPG,AFNE01.JPG,AFNE01.JPG,,,,,,,,,4,0,40,8,,,,,,,,,,,,,,,AMNE05.jpg,AMNE01.jpg,AMSA09.jpg,AMSA17.jpg,AMSA09.jpg,MS,2,num_2,32,num_8,0.850382272969,,,2017_Apr_27_1622,60.0012893879,MAFE4ImagesEEG,001,200199,
AFNE01.JPG,AFNE01.JPG,AFNE01.JPG,AFNE01.JPG,AFNE01.JPG,AFNE01.JPG,,,,,,,,,4,1,41,2,,,,,,,,,,,,,,,AMNE13.jpg,AMNE11.jpg,AMSA12.jpg,AMSA20.jpg,AMSA12.jpg,MS,2,num_2,32,num_4,0.633455524221,,,2017_Apr_27_1622,60.0012893879,MAFE4ImagesEEG,001,200199,
AFNE01.JPG,AFNE01.JPG,AFNE01.JPG,AFNE01.JPG,AFNE01.JPG,AFNE01.JPG,,,,,,,,,4,2,42,5,,,,,,,,,,,,,,,AMSA11.jpg,AMSA12.jpg,AMNE10.jpg,AMNE11.jpg,AMNE10.jpg,MN,1,num_2,16,num_2,0.533488528221,,,2017_Apr_27_1622,60.0012893879,MAFE4ImagesEEG,001,200199,
AFNE01.JPG,AFNE01.JPG,AFNE01.JPG,AFNE01.JPG,AFNE01.JPG,AFNE01.JPG,,,,,,,,,4,3,43,9,,,,,,,,,,,,,,,AMSA20.jpg,AMNE02.jpg,AMNE19.jpg,AMSA02.jpg,AMNE02.jpg,MN,1,num_6,16,num_6,0.716780331219,,,2017_Apr_27_1622,60.0012893879,MAFE4ImagesEEG,001,200199,
AFNE01.JPG,AFNE01.JPG,AFNE01.JPG,AFNE01.JPG,AFNE01.JPG,AFNE01.JPG,,,,,,,,,4,4,44,0,,,,,,,,,,,,,,,AMNE11.jpg,AMNE03.jpg,AMSA05.jpg,AMSA15.jpg,AMNE03.jpg,MN,1,num_6,16,num_6,0.833461682429,,,2017_Apr_27_1622,60.0012893879,MAFE4ImagesEEG,001,200199,
AFNE01.JPG,AFNE01.JPG,AFNE01.JPG,AFNE01.JPG,AFNE01.JPG,AFNE01.JPG,,,,,,,,,4,5,45,3,,,,,,,,,,,,,,,AMSA05.jpg,AMSA17.jpg,AMNE18.jpg,AMNE03.jpg,AMNE03.jpg,MN,1,num_4,16,num_4,1.15010749572,,,2017_Apr_27_1622,60.0012893879,MAFE4ImagesEEG,001,200199,
AFNE01.JPG,AFNE01.JPG,AFNE01.JPG,AFNE01.JPG,AFNE01.JPG,AFNE01.JPG,,,,,,,,,4,6,46,1,,,,,,,,,,,,,,,AMSA12.jpg,AMSA04.jpg,AMNE02.jpg,AMNE04.jpg,AMSA04.jpg,MS,2,num_6,16,num_6,0.750133347348,,,2017_Apr_27_1622,60.0012893879,MAFE4ImagesEEG,001,200199,
AFNE01.JPG,AFNE01.JPG,AFNE01.JPG,AFNE01.JPG,AFNE01.JPG,AFNE01.JPG,,,,,,,,,4,7,47,6,,,,,,,,,,,,,,,AMSA05.jpg,AMSA08.jpg,AMNE16.jpg,AMNE13.jpg,AMSA08.jpg,MS,2,num_6,32,num_2,0.883460094687,,,2017_Apr_27_1622,60.0012893879,MAFE4ImagesEEG,001,200199,
AFNE01.JPG,AFNE01.JPG,AFNE01.JPG,AFNE01.JPG,AFNE01.JPG,AFNE01.JPG,,,,,,,,,4,8,48,7,,,,,,,,,,,,,,,AMSA16.jpg,AMNE15.jpg,AMSA17.jpg,AMNE16.jpg,AMNE16.jpg,MN,1,num_4,32,num_8,1.03341588087,,,2017_Apr_27_1622,60.0012893879,MAFE4ImagesEEG,001,200199,
AFNE01.JPG,AFNE01.JPG,AFNE01.JPG,AFNE01.JPG,AFNE01.JPG,AFNE01.JPG,,,,,,,,,4,9,49,4,,,,,,,,,,,,,,,AMSA10.jpg,AMNE02.jpg,AMNE06.jpg,AMSA01.jpg,AMNE02.jpg,MN,1,num_6,16,num_6,0.733483460615,,,2017_Apr_27_1622,60.0012893879,MAFE4ImagesEEG,001,200199,
AFNE01.JPG,AFNE01.JPG,AFNE01.JPG,AFNE01.JPG,AFNE01.JPG,AFNE01.JPG,,,,,,,,,5,0,50,5,,,,,,,,,,,,,,,AMNE05.jpg,AMSA11.jpg,AMNE14.jpg,AMSA03.jpg,AMSA03.jpg,MS,2,num_4,16,num_4,0.63348823972,,,2017_Apr_27_1622,60.0012893879,MAFE4ImagesEEG,001,200199,
AFNE01.JPG,AFNE01.JPG,AFNE01.JPG,AFNE01.JPG,AFNE01.JPG,AFNE01.JPG,,,,,,,,,5,1,51,0,,,,,,,,,,,,,,,AMNE08.jpg,AMSA17.jpg,AMNE10.jpg,AMSA04.jpg,AMNE10.jpg,MN,1,num_2,32,num_8,0.950396738248,,,2017_Apr_27_1622,60.0012893879,MAFE4ImagesEEG,001,200199,
AFNE01.JPG,AFNE01.JPG,AFNE01.JPG,AFNE01.JPG,AFNE01.JPG,AFNE01.JPG,,,,,,,,,5,2,52,2,,,,,,,,,,,,,,,AMNE11.jpg,AMSA01.jpg,AMNE18.jpg,AMSA05.jpg,AMNE11.jpg,MN,1,num_8,32,num_2,0.68348857644,,,2017_Apr_27_1622,60.0012893879,MAFE4ImagesEEG,001,200199,
AFNE01.JPG,AFNE01.JPG,AFNE01.JPG,AFNE01.JPG,AFNE01.JPG,AFNE01.JPG,,,,,,,,,5,3,53,6,,,,,,,,,,,,,,,AMNE14.jpg,AMSA09.jpg,AMSA07.jpg,AMNE17.jpg,AMSA07.jpg,MS,2,num_2,32,num_8,0.733557872125,,,2017_Apr_27_1622,60.0012893879,MAFE4ImagesEEG,001,200199,
AFNE01.JPG,AFNE01.JPG,AFNE01.JPG,AFNE01.JPG,AFNE01.JPG,AFNE01.JPG,,,,,,,,,5,4,54,1,,,,,,,,,,,,,,,AMNE08.jpg,AMSA14.jpg,AMSA15.jpg,AMNE06.jpg,AMNE08.jpg,MN,1,num_8,32,num_4,0.716780972667,,,2017_Apr_27_1622,60.0012893879,MAFE4ImagesEEG,001,200199,
AFNE01.JPG,AFNE01.JPG,AFNE01.JPG,AFNE01.JPG,AFNE01.JPG,AFNE01.JPG,,,,,,,,,5,5,55,9,,,,,,,,,,,,,,,AMSA08.jpg,AMNE09.jpg,AMNE17.jpg,AMSA09.jpg,AMSA08.jpg,MS,2,num_8,16,num_8,0.766810176079,,,2017_Apr_27_1622,60.0012893879,MAFE4ImagesEEG,001,200199,
AFNE01.JPG,AFNE01.JPG,AFNE01.JPG,AFNE01.JPG,AFNE01.JPG,AFNE01.JPG,,,,,,,,,5,6,56,3,,,,,,,,,,,,,,,AMNE14.jpg,AMSA19.jpg,AMSA05.jpg,AMNE08.jpg,AMSA19.jpg,MS,2,num_6,32,num_2,1.15011968371,,,2017_Apr_27_1622,60.0012893879,MAFE4ImagesEEG,001,200199,
AFNE01.JPG,AFNE01.JPG,AFNE01.JPG,AFNE01.JPG,AFNE01.JPG,AFNE01.JPG,,,,,,,,,5,7,57,7,,,,,,,,,,,,,,,AMNE20.jpg,AMSA10.jpg,AMSA17.jpg,AMNE11.jpg,AMNE20.jpg,MN,1,num_8,32,num_6,0.683458747575,,,2017_Apr_27_1622,60.0012893879,MAFE4ImagesEEG,001,200199,
AFNE01.JPG,AFNE01.JPG,AFNE01.JPG,AFNE01.JPG,AFNE01.JPG,AFNE01.JPG,,,,,,,,,5,8,58,8,,,,,,,,,,,,,,,AMSA09.jpg,AMNE17.jpg,AMNE06.jpg,AMSA05.jpg,AMNE17.jpg,MN,1,num_6,32,num_8,0.783433441422,,,2017_Apr_27_1622,60.0012893879,MAFE4ImagesEEG,001,200199,
AFNE01.JPG,AFNE01.JPG,AFNE01.JPG,AFNE01.JPG,AFNE01.JPG,AFNE01.JPG,,,,,,,,,5,9,59,4,,,,,,,,,,,,,,,AMNE18.jpg,AMSA18.jpg,AMNE09.jpg,AMSA01.jpg,AMSA18.jpg,MS,2,num_6,16,num_6,0.583459998597,,,2017_Apr_27_1622,60.0012893879,MAFE4ImagesEEG,001,200199,
,,,,,,,,,,,,,,,,,,,,,,,,,,,,,,,,,,,,,,,,,,,space,39.8970135663,2017_Apr_27_1622,60.0012893879,MAFE4ImagesEEG,001,200199,
AFNE01.JPG,AFNE01.JPG,AFNE01.JPG,AFNE01.JPG,AFNE01.JPG,AFNE01.JPG,,,,,,,,,,,,,0,0,0,2,,,,,,,,,,,AFSA10.jpg,AFSA13.jpg,AFNE10.jpg,AFNE03.jpg,AFNE10.jpg,FN,3,num_2,32,num_8,0.666770372307,,,2017_Apr_27_1622,60.0012893879,MAFE4ImagesEEG,001,200199,
AFNE01.JPG,AFNE01.JPG,AFNE01.JPG,AFNE01.JPG,AFNE01.JPG,AFNE01.JPG,,,,,,,,,,,,,0,1,1,5,,,,,,,,,,,AFSA06.jpg,AFNE12.jpg,AFSA15.jpg,AFNE06.jpg,AFSA06.jpg,FS,4,num_8,32,num_4,0.78346551524,,,2017_Apr_27_1622,60.0012893879,MAFE4ImagesEEG,001,200199,
AFNE01.JPG,AFNE01.JPG,AFNE01.JPG,AFNE01.JPG,AFNE01.JPG,AFNE01.JPG,,,,,,,,,,,,,0,2,2,0,,,,,,,,,,,AFSA09.jpg,AFNE02.jpg,AFNE03.jpg,AFSA08.jpg,AFSA08.jpg,FS,4,num_4,32,num_8,0.650115033146,,,2017_Apr_27_1622,60.0012893879,MAFE4ImagesEEG,001,200199,
AFNE01.JPG,AFNE01.JPG,AFNE01.JPG,AFNE01.JPG,AFNE01.JPG,AFNE01.JPG,,,,,,,,,,,,,0,3,3,8,,,,,,,,,,,AFNE10.jpg,AFNE06.jpg,AFSA05.jpg,AFSA20.jpg,AFSA05.jpg,FS,4,num_2,32,num_4,1.00008563732,,,2017_Apr_27_1622,60.0012893879,MAFE4ImagesEEG,001,200199,
AFNE01.JPG,AFNE01.JPG,AFNE01.JPG,AFNE01.JPG,AFNE01.JPG,AFNE01.JPG,,,,,,,,,,,,,0,4,4,1,,,,,,,,,,,AFNE12.jpg,AFNE09.jpg,AFSA02.jpg,AFSA17.jpg,AFSA02.jpg,FS,4,num_2,16,num_2,0.900118320598,,,2017_Apr_27_1622,60.0012893879,MAFE4ImagesEEG,001,200199,
AFNE01.JPG,AFNE01.JPG,AFNE01.JPG,AFNE01.JPG,AFNE01.JPG,AFNE01.JPG,,,,,,,,,,,,,0,5,5,4,,,,,,,,,,,AFNE12.jpg,AFSA19.jpg,AFSA03.jpg,AFNE13.jpg,AFNE13.jpg,FN,3,num_4,16,num_4,0.700133331236,,,2017_Apr_27_1622,60.0012893879,MAFE4ImagesEEG,001,200199,
AFNE01.JPG,AFNE01.JPG,AFNE01.JPG,AFNE01.JPG,AFNE01.JPG,AFNE01.JPG,,,,,,,,,,,,,0,6,6,6,,,,,,,,,,,AFNE13.jpg,AFSA07.jpg,AFSA10.jpg,AFNE19.jpg,AFSA07.jpg,FS,4,num_6,32,num_2,1.15006964852,,,2017_Apr_27_1622,60.0012893879,MAFE4ImagesEEG,001,200199,
AFNE01.JPG,AFNE01.JPG,AFNE01.JPG,AFNE01.JPG,AFNE01.JPG,AFNE01.JPG,,,,,,,,,,,,,0,7,7,7,,,,,,,,,,,AFNE10.jpg,AFNE19.jpg,AFSA08.jpg,AFSA15.jpg,AFNE19.jpg,FN,3,num_6,32,num_8,0.833467134973,,,2017_Apr_27_1622,60.0012893879,MAFE4ImagesEEG,001,200199,
AFNE01.JPG,AFNE01.JPG,AFNE01.JPG,AFNE01.JPG,AFNE01.JPG,AFNE01.JPG,,,,,,,,,,,,,0,8,8,9,,,,,,,,,,,AFSA13.jpg,AFNE10.jpg,AFNE09.jpg,AFSA03.jpg,AFSA03.jpg,FS,4,num_4,32,num_6,0.800119571621,,,2017_Apr_27_1622,60.0012893879,MAFE4ImagesEEG,001,200199,
AFNE01.JPG,AFNE01.JPG,AFNE01.JPG,AFNE01.JPG,AFNE01.JPG,AFNE01.JPG,,,,,,,,,,,,,0,9,9,3,,,,,,,,,,,AFSA04.jpg,AFNE08.jpg,AFNE20.jpg,AFSA03.jpg,AFNE20.jpg,FN,3,num_2,16,num_2,1.05007603113,,,2017_Apr_27_1622,60.0012893879,MAFE4ImagesEEG,001,200199,
AFNE01.JPG,AFNE01.JPG,AFNE01.JPG,AFNE01.JPG,AFNE01.JPG,AFNE01.JPG,,,,,,,,,,,,,1,0,10,0,,,,,,,,,,,AFSA14.jpg,AFNE09.jpg,AFSA19.jpg,AFNE14.jpg,AFNE14.jpg,FN,3,num_4,16,num_4,0.883504356723,,,2017_Apr_27_1622,60.0012893879,MAFE4ImagesEEG,001,200199,
AFNE01.JPG,AFNE01.JPG,AFNE01.JPG,AFNE01.JPG,AFNE01.JPG,AFNE01.JPG,,,,,,,,,,,,,1,1,11,8,,,,,,,,,,,AFSA16.jpg,AFNE20.jpg,AFSA05.jpg,AFNE14.jpg,AFSA16.jpg,FS,4,num_8,16,num_8,0.750180816627,,,2017_Apr_27_1622,60.0012893879,MAFE4ImagesEEG,001,200199,
AFNE01.JPG,AFNE01.JPG,AFNE01.JPG,AFNE01.JPG,AFNE01.JPG,AFNE01.JPG,,,,,,,,,,,,,1,2,12,3,,,,,,,,,,,AFNE12.jpg,AFSA14.jpg,AFSA12.jpg,AFNE04.jpg,AFNE04.jpg,FN,3,num_4,16,num_4,1.03343255934,,,2017_Apr_27_1622,60.0012893879,MAFE4ImagesEEG,001,200199,
AFNE01.JPG,AFNE01.JPG,AFNE01.JPG,AFNE01.JPG,AFNE01.JPG,AFNE01.JPG,,,,,,,,,,,,,1,3,13,5,,,,,,,,,,,AFNE10.jpg,AFNE07.jpg,AFSA02.jpg,AFSA19.jpg,AFNE10.jpg,FN,3,num_8,16,num_8,0.750123404316,,,2017_Apr_27_1622,60.0012893879,MAFE4ImagesEEG,001,200199,
AFNE01.JPG,AFNE01.JPG,AFNE01.JPG,AFNE01.JPG,AFNE01.JPG,AFNE01.JPG,,,,,,,,,,,,,1,4,14,6,,,,,,,,,,,AFNE04.jpg,AFSA12.jpg,AFNE12.jpg,AFSA08.jpg,AFSA12.jpg,FS,4,num_6,16,num_6,0.866594992112,,,2017_Apr_27_1622,60.0012893879,MAFE4ImagesEEG,001,200199,
AFNE01.JPG,AFNE01.JPG,AFNE01.JPG,AFNE01.JPG,AFNE01.JPG,AFNE01.JPG,,,,,,,,,,,,,1,5,15,4,,,,,,,,,,,AFSA20.jpg,AFSA16.jpg,AFNE05.jpg,AFNE18.jpg,AFNE05.jpg,FN,3,num_2,32,num_4,0.816792551312,,,2017_Apr_27_1622,60.0012893879,MAFE4ImagesEEG,001,200199,
AFNE01.JPG,AFNE01.JPG,AFNE01.JPG,AFNE01.JPG,AFNE01.JPG,AFNE01.JPG,,,,,,,,,,,,,1,6,16,9,,,,,,,,,,,AFNE18.jpg,AFSA07.jpg,AFSA19.jpg,AFNE13.jpg,AFSA19.jpg,FS,4,num_2,16,num_2,0.616788317682,,,2017_Apr_27_1622,60.0012893879,MAFE4ImagesEEG,001,200199,
AFNE01.JPG,AFNE01.JPG,AFNE01.JPG,AFNE01.JPG,AFNE01.JPG,AFNE01.JPG,,,,,,,,,,,,,1,7,17,1,,,,,,,,,,,AFNE03.jpg,AFSA10.jpg,AFNE10.jpg,AFSA04.jpg,AFSA10.jpg,FS,4,num_6,16,num_6,1.33336241357,,,2017_Apr_27_1622,60.0012893879,MAFE4ImagesEEG,001,200199,
AFNE01.JPG,AFNE01.JPG,AFNE01.JPG,AFNE01.JPG,AFNE01.JPG,AFNE01.JPG,,,,,,,,,,,,,1,8,18,2,,,,,,,,,,,AFSA20.jpg,AFNE17.jpg,AFSA17.jpg,AFNE20.jpg,AFNE17.jpg,FN,3,num_6,32,num_8,0.883486716077,,,2017_Apr_27_1622,60.0012893879,MAFE4ImagesEEG,001,200199,
AFNE01.JPG,AFNE01.JPG,AFNE01.JPG,AFNE01.JPG,AFNE01.JPG,AFNE01.JPG,,,,,,,,,,,,,1,9,19,7,,,,,,,,,,,AFNE11.jpg,AFSA10.jpg,AFSA19.jpg,AFNE08.jpg,AFSA19.jpg,FS,4,num_2,16,num_2,1.31677571265,,,2017_Apr_27_1622,60.0012893879,MAFE4ImagesEEG,001,200199,
AFNE01.JPG,AFNE01.JPG,AFNE01.JPG,AFNE01.JPG,AFNE01.JPG,AFNE01.JPG,,,,,,,,,,,,,2,0,20,5,,,,,,,,,,,AFSA19.jpg,AFNE13.jpg,AFNE18.jpg,AFSA04.jpg,AFSA04.jpg,FS,4,num_4,32,num_6,1.03342614451,,,2017_Apr_27_1622,60.0012893879,MAFE4ImagesEEG,001,200199,
AFNE01.JPG,AFNE01.JPG,AFNE01.JPG,AFNE01.JPG,AFNE01.JPG,AFNE01.JPG,,,,,,,,,,,,,2,1,21,6,,,,,,,,,,,AFSA07.jpg,AFNE07.jpg,AFSA02.jpg,AFNE19.jpg,AFNE19.jpg,FN,3,num_4,32,num_8,1.03345019999,,,2017_Apr_27_1622,60.0012893879,MAFE4ImagesEEG,001,200199,
AFNE01.JPG,AFNE01.JPG,AFNE01.JPG,AFNE01.JPG,AFNE01.JPG,AFNE01.JPG,,,,,,,,,,,,,2,2,22,2,,,,,,,,,,,AFSA19.jpg,AFNE19.jpg,AFSA20.jpg,AFNE02.jpg,AFNE19.jpg,FN,3,num_6,32,num_2,1.61669434106,,,2017_Apr_27_1622,60.0012893879,MAFE4ImagesEEG,001,200199,
AFNE01.JPG,AFNE01.JPG,AFNE01.JPG,AFNE01.JPG,AFNE01.JPG,AFNE01.JPG,,,,,,,,,,,,,2,3,23,1,,,,,,,,,,,AFNE05.jpg,AFSA19.jpg,AFNE04.jpg,AFSA08.jpg,AFNE05.jpg,FN,3,num_8,32,num_6,0.666754656006,,,2017_Apr_27_1622,60.0012893879,MAFE4ImagesEEG,001,200199,
AFNE01.JPG,AFNE01.JPG,AFNE01.JPG,AFNE01.JPG,AFNE01.JPG,AFNE01.JPG,,,,,,,,,,,,,2,4,24,3,,,,,,,,,,,AFSA04.jpg,AFNE10.jpg,AFSA02.jpg,AFNE05.jpg,AFSA02.jpg,FS,4,num_2,32,num_4,0.783412914025,,,2017_Apr_27_1622,60.0012893879,MAFE4ImagesEEG,001,200199,
AFNE01.JPG,AFNE01.JPG,AFNE01.JPG,AFNE01.JPG,AFNE01.JPG,AFNE01.JPG,,,,,,,,,,,,,2,5,25,0,,,,,,,,,,,AFNE03.jpg,AFSA04.jpg,AFSA14.jpg,AFNE17.jpg,AFNE03.jpg,FN,3,num_8,16,num_8,1.11675480043,,,2017_Apr_27_1622,60.0012893879,MAFE4ImagesEEG,001,200199,
AFNE01.JPG,AFNE01.JPG,AFNE01.JPG,AFNE01.JPG,AFNE01.JPG,AFNE01.JPG,,,,,,,,,,,,,2,6,26,7,,,,,,,,,,,AFSA02.jpg,AFSA18.jpg,AFNE12.jpg,AFNE05.jpg,AFSA02.jpg,FS,4,num_8,32,num_4,1.23341402062,,,2017_Apr_27_1622,60.0012893879,MAFE4ImagesEEG,001,200199,
AFNE01.JPG,AFNE01.JPG,AFNE01.JPG,AFNE01.JPG,AFNE01.JPG,AFNE01.JPG,,,,,,,,,,,,,2,7,27,9,,,,,,,,,,,AFSA04.jpg,AFNE15.jpg,AFSA13.jpg,AFNE03.jpg,AFSA13.jpg,FS,4,num_2,32,num_4,0.767047202215,,,2017_Apr_27_1622,60.0012893879,MAFE4ImagesEEG,001,200199,
AFNE01.JPG,AFNE01.JPG,AFNE01.JPG,AFNE01.JPG,AFNE01.JPG,AFNE01.JPG,,,,,,,,,,,,,2,8,28,8,,,,,,,,,,,AFNE07.jpg,AFNE12.jpg,AFSA01.jpg,AFSA05.jpg,AFSA01.jpg,FS,4,num_2,16,num_2,1.09994422353,,,2017_Apr_27_1622,60.0012893879,MAFE4ImagesEEG,001,200199,
AFNE01.JPG,AFNE01.JPG,AFNE01.JPG,AFNE01.JPG,AFNE01.JPG,AFNE01.JPG,,,,,,,,,,,,,2,9,29,4,,,,,,,,,,,AFNE20.jpg,AFSA07.jpg,AFNE13.jpg,AFSA15.jpg,AFNE13.jpg,FN,3,num_2,32,num_8,0.950070867315,,,2017_Apr_27_1622,60.0012893879,MAFE4ImagesEEG,001,200199,
AFNE01.JPG,AFNE01.JPG,AFNE01.JPG,AFNE01.JPG,AFNE01.JPG,AFNE01.JPG,,,,,,,,,,,,,3,0,30,3,,,,,,,,,,,AFNE12.jpg,AFNE19.jpg,AFSA01.jpg,AFSA08.jpg,AFSA01.jpg,FS,4,num_2,32,num_4,0.850088475971,,,2017_Apr_27_1622,60.0012893879,MAFE4ImagesEEG,001,200199,
AFNE01.JPG,AFNE01.JPG,AFNE01.JPG,AFNE01.JPG,AFNE01.JPG,AFNE01.JPG,,,,,,,,,,,,,3,1,31,7,,,,,,,,,,,AFNE14.jpg,AFSA18.jpg,AFNE17.jpg,AFSA04.jpg,AFSA04.jpg,FS,4,num_4,32,num_2,0.766776819131,,,2017_Apr_27_1622,60.0012893879,MAFE4ImagesEEG,001,200199,
AFNE01.JPG,AFNE01.JPG,AFNE01.JPG,AFNE01.JPG,AFNE01.JPG,AFNE01.JPG,,,,,,,,,,,,,3,2,32,5,,,,,,,,,,,AFSA19.jpg,AFNE14.jpg,AFSA12.jpg,AFNE19.jpg,AFSA19.jpg,FS,4,num_8,32,num_4,0.883433152689,,,2017_Apr_27_1622,60.0012893879,MAFE4ImagesEEG,001,200199,
AFNE01.JPG,AFNE01.JPG,AFNE01.JPG,AFNE01.JPG,AFNE01.JPG,AFNE01.JPG,,,,,,,,,,,,,3,3,33,9,,,,,,,,,,,AFSA05.jpg,AFSA20.jpg,AFNE02.jpg,AFNE12.jpg,AFNE12.jpg,FN,3,num_4,32,num_2,0.950126355165,,,2017_Apr_27_1622,60.0012893879,MAFE4ImagesEEG,001,200199,
AFNE01.JPG,AFNE01.JPG,AFNE01.JPG,AFNE01.JPG,AFNE01.JPG,AFNE01.JPG,,,,,,,,,,,,,3,4,34,4,,,,,,,,,,,AFSA05.jpg,AFNE18.jpg,AFSA15.jpg,AFNE13.jpg,AFSA15.jpg,FS,4,num_2,32,num_8,1.13341174333,,,2017_Apr_27_1622,60.0012893879,MAFE4ImagesEEG,001,200199,
AFNE01.JPG,AFNE01.JPG,AFNE01.JPG,AFNE01.JPG,AFNE01.JPG,AFNE01.JPG,,,,,,,,,,,,,3,5,35,2,,,,,,,,,,,AFNE06.jpg,AFSA09.jpg,AFSA01.jpg,AFNE03.jpg,AFNE03.jpg,FN,3,num_4,16,num_4,0.683446238865,,,2017_Apr_27_1622,60.0012893879,MAFE4ImagesEEG,001,200199,
AFNE01.JPG,AFNE01.JPG,AFNE01.JPG,AFNE01.JPG,AFNE01.JPG,AFNE01.JPG,,,,,,,,,,,,,3,6,36,8,,,,,,,,,,,AFNE12.jpg,AFSA20.jpg,AFSA02.jpg,AFNE11.jpg,AFSA02.jpg,FS,4,num_2,32,num_8,0.716845120536,,,2017_Apr_27_1622,60.0012893879,MAFE4ImagesEEG,001,200199,
AFNE01.JPG,AFNE01.JPG,AFNE01.JPG,AFNE01.JPG,AFNE01.JPG,AFNE01.JPG,,,,,,,,,,,,,3,7,37,1,,,,,,,,,,,AFSA03.jpg,AFNE12.jpg,AFNE06.jpg,AFSA10.jpg,AFSA03.jpg,FS,4,num_8,32,num_6,0.566849883413,,,2017_Apr_27_1622,60.0012893879,MAFE4ImagesEEG,001,200199,
AFNE01.JPG,AFNE01.JPG,AFNE01.JPG,AFNE01.JPG,AFNE01.JPG,AFNE01.JPG,,,,,,,,,,,,,3,8,38,0,,,,,,,,,,,AFNE06.jpg,AFSA05.jpg,AFSA09.jpg,AFNE02.jpg,AFNE02.jpg,FN,3,num_4,16,num_4,0.800102572422,,,2017_Apr_27_1622,60.0012893879,MAFE4ImagesEEG,001,200199,
AFNE01.JPG,AFNE01.JPG,AFNE01.JPG,AFNE01.JPG,AFNE01.JPG,AFNE01.JPG,,,,,,,,,,,,,3,9,39,6,,,,,,,,,,,AFSA12.jpg,AFSA19.jpg,AFNE05.jpg,AFNE19.jpg,AFSA12.jpg,FS,4,num_8,16,num_8,0.950330666034,,,2017_Apr_27_1622,60.0012893879,MAFE4ImagesEEG,001,200199,
AFNE01.JPG,AFNE01.JPG,AFNE01.JPG,AFNE01.JPG,AFNE01.JPG,AFNE01.JPG,,,,,,,,,,,,,4,0,40,4,,,,,,,,,,,AFSA05.jpg,AFNE19.jpg,AFNE14.jpg,AFSA10.jpg,AFNE19.jpg,FN,3,num_6,32,num_4,1.05006416386,,,2017_Apr_27_1622,60.0012893879,MAFE4ImagesEEG,001,200199,
AFNE01.JPG,AFNE01.JPG,AFNE01.JPG,AFNE01.JPG,AFNE01.JPG,AFNE01.JPG,,,,,,,,,,,,,4,1,41,3,,,,,,,,,,,AFSA12.jpg,AFSA09.jpg,AFNE11.jpg,AFNE13.jpg,AFSA12.jpg,FS,4,num_8,16,num_8,0.683798731072,,,2017_Apr_27_1622,60.0012893879,MAFE4ImagesEEG,001,200199,
AFNE01.JPG,AFNE01.JPG,AFNE01.JPG,AFNE01.JPG,AFNE01.JPG,AFNE01.JPG,,,,,,,,,,,,,4,2,42,6,,,,,,,,,,,AFNE04.jpg,AFSA18.jpg,AFSA14.jpg,AFNE17.jpg,AFNE17.jpg,FN,3,num_4,16,num_4,0.633465467137,,,2017_Apr_27_1622,60.0012893879,MAFE4ImagesEEG,001,200199,
AFNE01.JPG,AFNE01.JPG,AFNE01.JPG,AFNE01.JPG,AFNE01.JPG,AFNE01.JPG,,,,,,,,,,,,,4,3,43,5,,,,,,,,,,,AFSA04.jpg,AFSA05.jpg,AFNE08.jpg,AFNE06.jpg,AFNE06.jpg,FN,3,num_4,32,num_8,0.716783217853,,,2017_Apr_27_1622,60.0012893879,MAFE4ImagesEEG,001,200199,
AFNE01.JPG,AFNE01.JPG,AFNE01.JPG,AFNE01.JPG,AFNE01.JPG,AFNE01.JPG,,,,,,,,,,,,,4,4,44,8,,,,,,,,,,,AFSA09.jpg,AFNE12.jpg,AFNE01.jpg,AFSA05.jpg,AFSA09.jpg,FS,4,num_8,32,num_2,0.883466830361,,,2017_Apr_27_1622,60.0012893879,MAFE4ImagesEEG,001,200199,
AFNE01.JPG,AFNE01.JPG,AFNE01.JPG,AFNE01.JPG,AFNE01.JPG,AFNE01.JPG,,,,,,,,,,,,,4,5,45,1,,,,,,,,,,,AFNE06.jpg,AFSA20.jpg,AFSA18.jpg,AFNE15.jpg,AFNE15.jpg,FN,3,num_4,16,num_4,0.650102524203,,,2017_Apr_27_1622,60.0012893879,MAFE4ImagesEEG,001,200199,
AFNE01.JPG,AFNE01.JPG,AFNE01.JPG,AFNE01.JPG,AFNE01.JPG,AFNE01.JPG,,,,,,,,,,,,,4,6,46,0,,,,,,,,,,,AFNE17.jpg,AFNE08.jpg,AFSA12.jpg,AFSA02.jpg,AFNE17.jpg,FN,3,num_8,32,num_4,0.800141381798,,,2017_Apr_27_1622,60.0012893879,MAFE4ImagesEEG,001,200199,
AFNE01.JPG,AFNE01.JPG,AFNE01.JPG,AFNE01.JPG,AFNE01.JPG,AFNE01.JPG,,,,,,,,,,,,,4,7,47,9,,,,,,,,,,,AFSA16.jpg,AFNE11.jpg,AFNE15.jpg,AFSA20.jpg,AFNE11.jpg,FN,3,num_6,32,num_8,0.700101578026,,,2017_Apr_27_1622,60.0012893879,MAFE4ImagesEEG,001,200199,
AFNE01.JPG,AFNE01.JPG,AFNE01.JPG,AFNE01.JPG,AFNE01.JPG,AFNE01.JPG,,,,,,,,,,,,,4,8,48,2,,,,,,,,,,,AFNE14.jpg,AFNE16.jpg,AFSA02.jpg,AFSA03.jpg,AFSA02.jpg,FS,4,num_2,32,num_4,0.9334466398,,,2017_Apr_27_1622,60.0012893879,MAFE4ImagesEEG,001,200199,
AFNE01.JPG,AFNE01.JPG,AFNE01.JPG,AFNE01.JPG,AFNE01.JPG,AFNE01.JPG,,,,,,,,,,,,,4,9,49,7,,,,,,,,,,,AFSA19.jpg,AFNE04.jpg,AFNE17.jpg,AFSA03.jpg,AFNE04.jpg,FN,3,num_6,16,num_6,0.900114151067,,,2017_Apr_27_1622,60.0012893879,MAFE4ImagesEEG,001,200199,
AFNE01.JPG,AFNE01.JPG,AFNE01.JPG,AFNE01.JPG,AFNE01.JPG,AFNE01.JPG,,,,,,,,,,,,,5,0,50,4,,,,,,,,,,,AFSA18.jpg,AFSA14.jpg,AFNE16.jpg,AFNE12.jpg,AFSA18.jpg,FS,4,num_8,16,num_8,1.33368058677,,,2017_Apr_27_1622,60.0012893879,MAFE4ImagesEEG,001,200199,
AFNE01.JPG,AFNE01.JPG,AFNE01.JPG,AFNE01.JPG,AFNE01.JPG,AFNE01.JPG,,,,,,,,,,,,,5,1,51,1,,,,,,,,,,,AFSA06.jpg,AFNE18.jpg,AFNE12.jpg,AFSA11.jpg,AFSA11.jpg,FS,4,num_4,16,num_4,0.566792150494,,,2017_Apr_27_1622,60.0012893879,MAFE4ImagesEEG,001,200199,
AFNE01.JPG,AFNE01.JPG,AFNE01.JPG,AFNE01.JPG,AFNE01.JPG,AFNE01.JPG,,,,,,,,,,,,,5,2,52,0,,,,,,,,,,,AFNE17.jpg,AFSA02.jpg,AFNE19.jpg,AFSA18.jpg,AFNE19.jpg,FN,3,num_2,32,num_6,0.733396219555,,,2017_Apr_27_1622,60.0012893879,MAFE4ImagesEEG,001,200199,
AFNE01.JPG,AFNE01.JPG,AFNE01.JPG,AFNE01.JPG,AFNE01.JPG,AFNE01.JPG,,,,,,,,,,,,,5,3,53,9,,,,,,,,,,,AFSA19.jpg,AFSA07.jpg,AFNE10.jpg,AFNE04.jpg,AFSA19.jpg,FS,4,num_8,16,num_8,0.733480894705,,,2017_Apr_27_1622,60.0012893879,MAFE4ImagesEEG,001,200199,
AFNE01.JPG,AFNE01.JPG,AFNE01.JPG,AFNE01.JPG,AFNE01.JPG,AFNE01.JPG,,,,,,,,,,,,,5,4,54,3,,,,,,,,,,,AFNE04.jpg,AFSA01.jpg,AFSA11.jpg,AFNE16.jpg,AFNE16.jpg,FN,3,num_4,32,num_6,0.716790274251,,,2017_Apr_27_1622,60.0012893879,MAFE4ImagesEEG,001,200199,
AFNE01.JPG,AFNE01.JPG,AFNE01.JPG,AFNE01.JPG,AFNE01.JPG,AFNE01.JPG,,,,,,,,,,,,,5,5,55,2,,,,,,,,,,,AFNE14.jpg,AFSA09.jpg,AFSA08.jpg,AFNE05.jpg,AFSA09.jpg,FS,4,num_6,16,num_6,0.666749203578,,,2017_Apr_27_1622,60.0012893879,MAFE4ImagesEEG,001,200199,
AFNE01.JPG,AFNE01.JPG,AFNE01.JPG,AFNE01.JPG,AFNE01.JPG,AFNE01.JPG,,,,,,,,,,,,,5,6,56,5,,,,,,,,,,,AFNE04.jpg,AFSA16.jpg,AFSA20.jpg,AFNE05.jpg,AFSA16.jpg,FS,4,num_6,32,num_4,0.716791557148,,,2017_Apr_27_1622,60.0012893879,MAFE4ImagesEEG,001,200199,
AFNE01.JPG,AFNE01.JPG,AFNE01.JPG,AFNE01.JPG,AFNE01.JPG,AFNE01.JPG,,,,,,,,,,,,,5,7,57,6,,,,,,,,,,,AFSA17.jpg,AFNE03.jpg,AFSA14.jpg,AFNE17.jpg,AFNE17.jpg,FN,3,num_4,32,num_8,0.633486956707,,,2017_Apr_27_1622,60.0012893879,MAFE4ImagesEEG,001,200199,
AFNE01.JPG,AFNE01.JPG,AFNE01.JPG,AFNE01.JPG,AFNE01.JPG,AFNE01.JPG,,,,,,,,,,,,,5,8,58,7,,,,,,,,,,,AFSA19.jpg,AFSA11.jpg,AFNE15.jpg,AFNE16.jpg,AFSA11.jpg,FS,4,num_6,16,num_6,0.433531795978,,,2017_Apr_27_1622,60.0012893879,MAFE4ImagesEEG,001,200199,
AFNE01.JPG,AFNE01.JPG,AFNE01.JPG,AFNE01.JPG,AFNE01.JPG,AFNE01.JPG,,,,,,,,,,,,,5,9,59,8,,,,,,,,,,,AFNE11.jpg,AFSA19.jpg,AFNE18.jpg,AFSA06.jpg,AFNE18.jpg,FN,3,num_2,16,num_2,0.449838491739,,,2017_Apr_27_1622,60.0012893879,MAFE4ImagesEEG,001,200199,
,,,,,,,,,,,,,,,,,,,,,,,,,,,,,,,,,,,,,,,,,,,space,68.5449697046,2017_Apr_27_1622,60.0012893879,MAFE4ImagesEEG,001,200199,
AFNE01.JPG,AFNE01.JPG,AFNE01.JPG,AFNE01.JPG,AFNE01.JPG,AFNE01.JPG,,,,,,,,,,,,,,,,,0,0,0,6,,,,,,,AMNE02.jpg,AMSA12.jpg,AMSA15.jpg,AMNE17.jpg,AMNE17.jpg,MN,1,num_4,16,num_4,0.983445372782,,,2017_Apr_27_1622,60.0012893879,MAFE4ImagesEEG,001,200199,
AFNE01.JPG,AFNE01.JPG,AFNE01.JPG,AFNE01.JPG,AFNE01.JPG,AFNE01.JPG,,,,,,,,,,,,,,,,,0,1,1,5,,,,,,,AMNE03.jpg,AMNE15.jpg,AMSA14.jpg,AMSA05.jpg,AMNE03.jpg,MN,1,num_8,32,num_6,0.600070113665,,,2017_Apr_27_1622,60.0012893879,MAFE4ImagesEEG,001,200199,
AFNE01.JPG,AFNE01.JPG,AFNE01.JPG,AFNE01.JPG,AFNE01.JPG,AFNE01.JPG,,,,,,,,,,,,,,,,,0,2,2,3,,,,,,,AMSA02.jpg,AMNE18.jpg,AMNE08.jpg,AMSA10.jpg,AMNE08.jpg,MN,1,num_2,32,num_8,0.600145487231,,,2017_Apr_27_1622,60.0012893879,MAFE4ImagesEEG,001,200199,
AFNE01.JPG,AFNE01.JPG,AFNE01.JPG,AFNE01.JPG,AFNE01.JPG,AFNE01.JPG,,,,,,,,,,,,,,,,,0,3,3,0,,,,,,,AMNE18.jpg,AMNE02.jpg,AMSA04.jpg,AMSA10.jpg,AMNE02.jpg,MN,1,num_6,16,num_6,1.30007482844,,,2017_Apr_27_1622,60.0012893879,MAFE4ImagesEEG,001,200199,
AFNE01.JPG,AFNE01.JPG,AFNE01.JPG,AFNE01.JPG,AFNE01.JPG,AFNE01.JPG,,,,,,,,,,,,,,,,,0,4,4,9,,,,,,,AMNE10.jpg,AMNE17.jpg,AMSA13.jpg,AMSA01.jpg,AMNE17.jpg,MN,1,num_6,32,num_8,0.61678382731,,,2017_Apr_27_1622,60.0012893879,MAFE4ImagesEEG,001,200199,
AFNE01.JPG,AFNE01.JPG,AFNE01.JPG,AFNE01.JPG,AFNE01.JPG,AFNE01.JPG,,,,,,,,,,,,,,,,,0,5,5,2,,,,,,,AMSA13.jpg,AMSA18.jpg,AMNE05.jpg,AMNE03.jpg,AMSA18.jpg,MS,2,num_6,32,num_4,0.733446254861,,,2017_Apr_27_1622,60.0012893879,MAFE4ImagesEEG,001,200199,
AFNE01.JPG,AFNE01.JPG,AFNE01.JPG,AFNE01.JPG,AFNE01.JPG,AFNE01.JPG,,,,,,,,,,,,,,,,,0,6,6,1,,,,,,,AMSA16.jpg,AMNE11.jpg,AMNE17.jpg,AMSA13.jpg,AMNE17.jpg,MN,1,num_2,32,num_6,0.850167056895,,,2017_Apr_27_1622,60.0012893879,MAFE4ImagesEEG,001,200199,
AFNE01.JPG,AFNE01.JPG,AFNE01.JPG,AFNE01.JPG,AFNE01.JPG,AFNE01.JPG,,,,,,,,,,,,,,,,,0,7,7,7,,,,,,,AMSA05.jpg,AMNE10.jpg,AMNE07.jpg,AMSA08.jpg,AMSA05.jpg,MS,2,num_8,32,num_4,0.850103871315,,,2017_Apr_27_1622,60.0012893879,MAFE4ImagesEEG,001,200199,
AFNE01.JPG,AFNE01.JPG,AFNE01.JPG,AFNE01.JPG,AFNE01.JPG,AFNE01.JPG,,,,,,,,,,,,,,,,,0,8,8,4,,,,,,,AMNE02.jpg,AMNE15.jpg,AMSA08.jpg,AMSA12.jpg,AMSA08.jpg,MS,2,num_2,32,num_8,0.650090336218,,,2017_Apr_27_1622,60.0012893879,MAFE4ImagesEEG,001,200199,
AFNE01.JPG,AFNE01.JPG,AFNE01.JPG,AFNE01.JPG,AFNE01.JPG,AFNE01.JPG,,,,,,,,,,,,,,,,,0,9,9,8,,,,,,,AMNE02.jpg,AMNE11.jpg,AMSA12.jpg,AMSA19.jpg,AMSA19.jpg,MS,2,num_4,32,num_6,0.700160594075,,,2017_Apr_27_1622,60.0012893879,MAFE4ImagesEEG,001,200199,
AFNE01.JPG,AFNE01.JPG,AFNE01.JPG,AFNE01.JPG,AFNE01.JPG,AFNE01.JPG,,,,,,,,,,,,,,,,,1,0,10,9,,,,,,,AMSA11.jpg,AMNE01.jpg,AMSA06.jpg,AMNE02.jpg,AMNE01.jpg,MN,1,num_6,16,num_6,0.650144861778,,,2017_Apr_27_1622,60.0012893879,MAFE4ImagesEEG,001,200199,
AFNE01.JPG,AFNE01.JPG,AFNE01.JPG,AFNE01.JPG,AFNE01.JPG,AFNE01.JPG,,,,,,,,,,,,,,,,,1,1,11,4,,,,,,,AMSA20.jpg,AMNE06.jpg,AMNE05.jpg,AMSA18.jpg,AMSA20.jpg,MS,2,num_8,16,num_8,0.816752138315,,,2017_Apr_27_1622,60.0012893879,MAFE4ImagesEEG,001,200199,
AFNE01.JPG,AFNE01.JPG,AFNE01.JPG,AFNE01.JPG,AFNE01.JPG,AFNE01.JPG,,,,,,,,,,,,,,,,,1,2,12,3,,,,,,,AMSA19.jpg,AMNE02.jpg,AMNE16.jpg,AMSA10.jpg,AMSA19.jpg,MS,2,num_8,32,num_6,1.83337829018,,,2017_Apr_27_1622,60.0012893879,MAFE4ImagesEEG,001,200199,
AFNE01.JPG,AFNE01.JPG,AFNE01.JPG,AFNE01.JPG,AFNE01.JPG,AFNE01.JPG,,,,,,,,,,,,,,,,,1,3,13,6,,,,,,,AMSA11.jpg,AMSA04.jpg,AMNE01.jpg,AMNE17.jpg,AMSA04.jpg,MS,2,num_6,32,num_4,0.70011055877,,,2017_Apr_27_1622,60.0012893879,MAFE4ImagesEEG,001,200199,
AFNE01.JPG,AFNE01.JPG,AFNE01.JPG,AFNE01.JPG,AFNE01.JPG,AFNE01.JPG,,,,,,,,,,,,,,,,,1,4,14,5,,,,,,,AMNE01.jpg,AMSA17.jpg,AMSA18.jpg,AMNE16.jpg,AMSA17.jpg,MS,2,num_6,32,num_8,0.733472876251,,,2017_Apr_27_1622,60.0012893879,MAFE4ImagesEEG,001,200199,
AFNE01.JPG,AFNE01.JPG,AFNE01.JPG,AFNE01.JPG,AFNE01.JPG,AFNE01.JPG,,,,,,,,,,,,,,,,,1,5,15,8,,,,,,,AMNE19.jpg,AMSA03.jpg,AMSA17.jpg,AMNE13.jpg,AMSA17.jpg,MS,2,num_2,32,num_4,1.28347465629,,,2017_Apr_27_1622,60.0012893879,MAFE4ImagesEEG,001,200199,
AFNE01.JPG,AFNE01.JPG,AFNE01.JPG,AFNE01.JPG,AFNE01.JPG,AFNE01.JPG,,,,,,,,,,,,,,,,,1,6,16,7,,,,,,,AMNE07.jpg,AMSA01.jpg,AMNE12.jpg,AMSA19.jpg,AMNE07.jpg,MN,1,num_8,16,num_8,0.616782544297,,,2017_Apr_27_1622,60.0012893879,MAFE4ImagesEEG,001,200199,
AFNE01.JPG,AFNE01.JPG,AFNE01.JPG,AFNE01.JPG,AFNE01.JPG,AFNE01.JPG,,,,,,,,,,,,,,,,,1,7,17,2,,,,,,,AMNE18.jpg,AMSA11.jpg,AMNE16.jpg,AMSA02.jpg,AMSA02.jpg,MS,2,num_4,32,num_2,0.500159246963,,,2017_Apr_27_1622,60.0012893879,MAFE4ImagesEEG,001,200199,
AFNE01.JPG,AFNE01.JPG,AFNE01.JPG,AFNE01.JPG,AFNE01.JPG,AFNE01.JPG,,,,,,,,,,,,,,,,,1,8,18,1,,,,,,,AMNE11.jpg,AMSA14.jpg,AMSA10.jpg,AMNE18.jpg,AMSA10.jpg,MS,2,num_2,32,num_4,0.716644017142,,,2017_Apr_27_1622,60.0012893879,MAFE4ImagesEEG,001,200199,
AFNE01.JPG,AFNE01.JPG,AFNE01.JPG,AFNE01.JPG,AFNE01.JPG,AFNE01.JPG,,,,,,,,,,,,,,,,,1,9,19,0,,,,,,,AMNE17.jpg,AMNE08.jpg,AMSA19.jpg,AMSA07.jpg,AMSA19.jpg,MS,2,num_2,32,num_6,0.850042610196,,,2017_Apr_27_1622,60.0012893879,MAFE4ImagesEEG,001,200199,
AFNE01.JPG,AFNE01.JPG,AFNE01.JPG,AFNE01.JPG,AFNE01.JPG,AFNE01.JPG,,,,,,,,,,,,,,,,,2,0,20,7,,,,,,,AMSA05.jpg,AMNE08.jpg,AMNE03.jpg,AMSA01.jpg,AMSA01.jpg,MS,2,num_4,32,num_8,0.883437963785,,,2017_Apr_27_1622,60.0012893879,MAFE4ImagesEEG,001,200199,
AFNE01.JPG,AFNE01.JPG,AFNE01.JPG,AFNE01.JPG,AFNE01.JPG,AFNE01.JPG,,,,,,,,,,,,,,,,,2,1,21,2,,,,,,,AMSA10.jpg,AMNE12.jpg,AMNE03.jpg,AMSA08.jpg,AMNE12.jpg,MN,1,num_6,32,num_4,1.1167336317,,,2017_Apr_27_1622,60.0012893879,MAFE4ImagesEEG,001,200199,
AFNE01.JPG,AFNE01.JPG,AFNE01.JPG,AFNE01.JPG,AFNE01.JPG,AFNE01.JPG,,,,,,,,,,,,,,,,,2,2,22,6,,,,,,,AMNE11.jpg,AMSA04.jpg,AMSA14.jpg,AMNE13.jpg,AMSA14.jpg,MS,2,num_2,16,num_2,0.916788093164,,,2017_Apr_27_1622,60.0012893879,MAFE4ImagesEEG,001,200199,
AFNE01.JPG,AFNE01.JPG,AFNE01.JPG,AFNE01.JPG,AFNE01.JPG,AFNE01.JPG,,,,,,,,,,,,,,,,,2,3,23,5,,,,,,,AMSA08.jpg,AMNE08.jpg,AMNE15.jpg,AMSA02.jpg,AMSA08.jpg,MS,2,num_8,32,num_4,2.81660908868,,,2017_Apr_27_1622,60.0012893879,MAFE4ImagesEEG,001,200199,
AFNE01.JPG,AFNE01.JPG,AFNE01.JPG,AFNE01.JPG,AFNE01.JPG,AFNE01.JPG,,,,,,,,,,,,,,,,,2,4,24,4,,,,,,,AMNE05.jpg,AMSA14.jpg,AMNE01.jpg,AMSA18.jpg,AMNE05.jpg,MN,1,num_8,16,num_8,0.766774573945,,,2017_Apr_27_1622,60.0012893879,MAFE4ImagesEEG,001,200199,
AFNE01.JPG,AFNE01.JPG,AFNE01.JPG,AFNE01.JPG,AFNE01.JPG,AFNE01.JPG,,,,,,,,,,,,,,,,,2,5,25,1,,,,,,,AMSA07.jpg,AMSA01.jpg,AMNE15.jpg,AMNE07.jpg,AMNE15.jpg,MN,1,num_2,16,num_2,0.733508478268,,,2017_Apr_27_1622,60.0012893879,MAFE4ImagesEEG,001,200199,
AFNE01.JPG,AFNE01.JPG,AFNE01.JPG,AFNE01.JPG,AFNE01.JPG,AFNE01.JPG,,,,,,,,,,,,,,,,,2,6,26,8,,,,,,,AMNE07.jpg,AMSA09.jpg,AMSA02.jpg,AMNE08.jpg,AMSA02.jpg,MS,2,num_2,32,num_8,0.716770067578,,,2017_Apr_27_1622,60.0012893879,MAFE4ImagesEEG,001,200199,
AFNE01.JPG,AFNE01.JPG,AFNE01.JPG,AFNE01.JPG,AFNE01.JPG,AFNE01.JPG,,,,,,,,,,,,,,,,,2,7,27,0,,,,,,,AMNE13.jpg,AMSA03.jpg,AMSA09.jpg,AMNE06.jpg,AMSA03.jpg,MS,2,num_6,16,num_6,0.500156360329,,,2017_Apr_27_1622,60.0012893879,MAFE4ImagesEEG,001,200199,
AFNE01.JPG,AFNE01.JPG,AFNE01.JPG,AFNE01.JPG,AFNE01.JPG,AFNE01.JPG,,,,,,,,,,,,,,,,,2,8,28,3,,,,,,,AMNE01.jpg,AMSA01.jpg,AMSA04.jpg,AMNE07.jpg,AMNE01.jpg,MN,1,num_8,32,num_4,1.0667910279,,,2017_Apr_27_1622,60.0012893879,MAFE4ImagesEEG,001,200199,
AFNE01.JPG,AFNE01.JPG,AFNE01.JPG,AFNE01.JPG,AFNE01.JPG,AFNE01.JPG,,,,,,,,,,,,,,,,,2,9,29,9,,,,,,,AMNE17.jpg,AMSA18.jpg,AMNE07.jpg,AMSA01.jpg,AMSA01.jpg,MS,2,num_4,32,num_8,0.833453022526,,,2017_Apr_27_1622,60.0012893879,MAFE4ImagesEEG,001,200199,
AFNE01.JPG,AFNE01.JPG,AFNE01.JPG,AFNE01.JPG,AFNE01.JPG,AFNE01.JPG,,,,,,,,,,,,,,,,,3,0,30,6,,,,,,,AMSA19.jpg,AMNE01.jpg,AMNE16.jpg,AMSA08.jpg,AMNE01.jpg,MN,1,num_6,16,num_6,0.833485737909,,,2017_Apr_27_1622,60.0012893879,MAFE4ImagesEEG,001,200199,
AFNE01.JPG,AFNE01.JPG,AFNE01.JPG,AFNE01.JPG,AFNE01.JPG,AFNE01.JPG,,,,,,,,,,,,,,,,,3,1,31,8,,,,,,,AMNE04.jpg,AMNE06.jpg,AMSA19.jpg,AMSA12.jpg,AMSA19.jpg,MS,2,num_2,32,num_4,1.18340791052,,,2017_Apr_27_1622,60.0012893879,MAFE4ImagesEEG,001,200199,
AFNE01.JPG,AFNE01.JPG,AFNE01.JPG,AFNE01.JPG,AFNE01.JPG,AFNE01.JPG,,,,,,,,,,,,,,,,,3,2,32,9,,,,,,,AMNE13.jpg,AMSA02.jpg,AMSA16.jpg,AMNE05.jpg,AMSA16.jpg,MS,2,num_2,16,num_2,0.683687113924,,,2017_Apr_27_1622,60.0012893879,MAFE4ImagesEEG,001,200199,
AFNE01.JPG,AFNE01.JPG,AFNE01.JPG,AFNE01.JPG,AFNE01.JPG,AFNE01.JPG,,,,,,,,,,,,,,,,,3,3,33,2,,,,,,,AMSA20.jpg,AMNE18.jpg,AMSA18.jpg,AMNE03.jpg,AMNE03.jpg,MN,1,num_4,32,num_8,0.616751111927,,,2017_Apr_27_1622,60.0012893879,MAFE4ImagesEEG,001,200199,
AFNE01.JPG,AFNE01.JPG,AFNE01.JPG,AFNE01.JPG,AFNE01.JPG,AFNE01.JPG,,,,,,,,,,,,,,,,,3,4,34,1,,,,,,,AMNE14.jpg,AMSA07.jpg,AMSA10.jpg,AMNE06.jpg,AMSA07.jpg,MS,2,num_6,16,num_6,1.18344255036,,,2017_Apr_27_1622,60.0012893879,MAFE4ImagesEEG,001,200199,
AFNE01.JPG,AFNE01.JPG,AFNE01.JPG,AFNE01.JPG,AFNE01.JPG,AFNE01.JPG,,,,,,,,,,,,,,,,,3,5,35,3,,,,,,,AMNE15.jpg,AMSA06.jpg,AMSA11.jpg,AMNE13.jpg,AMNE13.jpg,MN,1,num_4,16,num_4,1.16674904316,,,2017_Apr_27_1622,60.0012893879,MAFE4ImagesEEG,001,200199,
AFNE01.JPG,AFNE01.JPG,AFNE01.JPG,AFNE01.JPG,AFNE01.JPG,AFNE01.JPG,,,,,,,,,,,,,,,,,3,6,36,5,,,,,,,AMSA05.jpg,AMNE19.jpg,AMNE17.jpg,AMSA18.jpg,AMSA05.jpg,MS,2,num_8,16,num_8,0.566789905308,,,2017_Apr_27_1622,60.0012893879,MAFE4ImagesEEG,001,200199,
AFNE01.JPG,AFNE01.JPG,AFNE01.JPG,AFNE01.JPG,AFNE01.JPG,AFNE01.JPG,,,,,,,,,,,,,,,,,3,7,37,7,,,,,,,AMSA08.jpg,AMNE06.jpg,AMSA17.jpg,AMNE08.jpg,AMSA17.jpg,MS,2,num_2,32,num_4,0.800148758804,,,2017_Apr_27_1622,60.0012893879,MAFE4ImagesEEG,001,200199,
AFNE01.JPG,AFNE01.JPG,AFNE01.JPG,AFNE01.JPG,AFNE01.JPG,AFNE01.JPG,,,,,,,,,,,,,,,,,3,8,38,4,,,,,,,AMNE18.jpg,AMSA10.jpg,AMNE17.jpg,AMSA04.jpg,AMNE18.jpg,MN,1,num_8,32,num_6,0.466819381225,,,2017_Apr_27_1622,60.0012893879,MAFE4ImagesEEG,001,200199,
AFNE01.JPG,AFNE01.JPG,AFNE01.JPG,AFNE01.JPG,AFNE01.JPG,AFNE01.JPG,,,,,,,,,,,,,,,,,3,9,39,0,,,,,,,AMNE12.jpg,AMSA16.jpg,AMNE02.jpg,AMSA06.jpg,AMSA16.jpg,MS,2,num_6,32,num_8,0.816745402757,,,2017_Apr_27_1622,60.0012893879,MAFE4ImagesEEG,001,200199,
AFNE01.JPG,AFNE01.JPG,AFNE01.JPG,AFNE01.JPG,AFNE01.JPG,AFNE01.JPG,,,,,,,,,,,,,,,,,4,0,40,8,,,,,,,AMSA01.jpg,AMNE17.jpg,AMNE14.jpg,AMSA14.jpg,AMSA01.jpg,MS,2,num_8,32,num_4,0.983400148572,,,2017_Apr_27_1622,60.0012893879,MAFE4ImagesEEG,001,200199,
AFNE01.JPG,AFNE01.JPG,AFNE01.JPG,AFNE01.JPG,AFNE01.JPG,AFNE01.JPG,,,,,,,,,,,,,,,,,4,1,41,4,,,,,,,AMNE06.jpg,AMNE02.jpg,AMSA02.jpg,AMSA20.jpg,AMNE02.jpg,MN,1,num_6,16,num_6,0.65015704988,,,2017_Apr_27_1622,60.0012893879,MAFE4ImagesEEG,001,200199,
AFNE01.JPG,AFNE01.JPG,AFNE01.JPG,AFNE01.JPG,AFNE01.JPG,AFNE01.JPG,,,,,,,,,,,,,,,,,4,2,42,9,,,,,,,AMNE19.jpg,AMSA10.jpg,AMNE16.jpg,AMSA05.jpg,AMNE16.jpg,MN,1,num_2,32,num_6,0.800115081132,,,2017_Apr_27_1622,60.0012893879,MAFE4ImagesEEG,001,200199,
AFNE01.JPG,AFNE01.JPG,AFNE01.JPG,AFNE01.JPG,AFNE01.JPG,AFNE01.JPG,,,,,,,,,,,,,,,,,4,3,43,2,,,,,,,AMSA16.jpg,AMNE20.jpg,AMSA09.jpg,AMNE18.jpg,AMSA09.jpg,MS,2,num_2,16,num_2,0.533459661761,,,2017_Apr_27_1622,60.0012893879,MAFE4ImagesEEG,001,200199,
AFNE01.JPG,AFNE01.JPG,AFNE01.JPG,AFNE01.JPG,AFNE01.JPG,AFNE01.JPG,,,,,,,,,,,,,,,,,4,4,44,6,,,,,,,AMNE05.jpg,AMNE10.jpg,AMSA13.jpg,AMSA04.jpg,AMSA13.jpg,MS,2,num_2,32,num_8,0.916807978996,,,2017_Apr_27_1622,60.0012893879,MAFE4ImagesEEG,001,200199,
AFNE01.JPG,AFNE01.JPG,AFNE01.JPG,AFNE01.JPG,AFNE01.JPG,AFNE01.JPG,,,,,,,,,,,,,,,,,4,5,45,5,,,,,,,AMSA12.jpg,AMSA03.jpg,AMNE10.jpg,AMNE01.jpg,AMSA03.jpg,MS,2,num_6,16,num_6,1.1167605737,,,2017_Apr_27_1622,60.0012893879,MAFE4ImagesEEG,001,200199,
AFNE01.JPG,AFNE01.JPG,AFNE01.JPG,AFNE01.JPG,AFNE01.JPG,AFNE01.JPG,,,,,,,,,,,,,,,,,4,6,46,1,,,,,,,AMSA03.jpg,AMSA17.jpg,AMNE04.jpg,AMNE01.jpg,AMNE01.jpg,MN,1,num_4,32,num_8,0.58346609259,,,2017_Apr_27_1622,60.0012893879,MAFE4ImagesEEG,001,200199,
AFNE01.JPG,AFNE01.JPG,AFNE01.JPG,AFNE01.JPG,AFNE01.JPG,AFNE01.JPG,,,,,,,,,,,,,,,,,4,7,47,0,,,,,,,AMNE06.jpg,AMNE15.jpg,AMSA01.jpg,AMSA04.jpg,AMNE15.jpg,MN,1,num_6,32,num_4,0.850198810105,,,2017_Apr_27_1622,60.0012893879,MAFE4ImagesEEG,001,200199,
AFNE01.JPG,AFNE01.JPG,AFNE01.JPG,AFNE01.JPG,AFNE01.JPG,AFNE01.JPG,,,,,,,,,,,,,,,,,4,8,48,3,,,,,,,AMNE01.jpg,AMNE10.jpg,AMSA07.jpg,AMSA02.jpg,AMSA02.jpg,MS,2,num_4,32,num_6,0.46679083549,,,2017_Apr_27_1622,60.0012893879,MAFE4ImagesEEG,001,200199,
AFNE01.JPG,AFNE01.JPG,AFNE01.JPG,AFNE01.JPG,AFNE01.JPG,AFNE01.JPG,,,,,,,,,,,,,,,,,4,9,49,7,,,,,,,AMNE09.jpg,AMSA06.jpg,AMSA20.jpg,AMNE04.jpg,AMNE09.jpg,MN,1,num_8,32,num_4,0.633443977567,,,2017_Apr_27_1622,60.0012893879,MAFE4ImagesEEG,001,200199,
AFNE01.JPG,AFNE01.JPG,AFNE01.JPG,AFNE01.JPG,AFNE01.JPG,AFNE01.JPG,,,,,,,,,,,,,,,,,5,0,50,3,,,,,,,AMNE20.jpg,AMNE12.jpg,AMSA14.jpg,AMSA18.jpg,AMSA18.jpg,MS,2,num_4,32,num_2,0.733444971964,,,2017_Apr_27_1622,60.0012893879,MAFE4ImagesEEG,001,200199,
AFNE01.JPG,AFNE01.JPG,AFNE01.JPG,AFNE01.JPG,AFNE01.JPG,AFNE01.JPG,,,,,,,,,,,,,,,,,5,1,51,0,,,,,,,AMSA20.jpg,AMNE19.jpg,AMSA12.jpg,AMNE13.jpg,AMSA12.jpg,MS,2,num_2,32,num_6,0.749774440192,,,2017_Apr_27_1622,60.0012893879,MAFE4ImagesEEG,001,200199,
AFNE01.JPG,AFNE01.JPG,AFNE01.JPG,AFNE01.JPG,AFNE01.JPG,AFNE01.JPG,,,,,,,,,,,,,,,,,5,2,52,6,,,,,,,AMSA05.jpg,AMSA16.jpg,AMNE07.jpg,AMNE08.jpg,AMSA16.jpg,MS,2,num_6,32,num_4,0.833440834307,,,2017_Apr_27_1622,60.0012893879,MAFE4ImagesEEG,001,200199,
AFNE01.JPG,AFNE01.JPG,AFNE01.JPG,AFNE01.JPG,AFNE01.JPG,AFNE01.JPG,,,,,,,,,,,,,,,,,5,3,53,2,,,,,,,AMNE16.jpg,AMNE02.jpg,AMSA15.jpg,AMSA12.jpg,AMNE02.jpg,MN,1,num_6,32,num_8,0.933448564261,,,2017_Apr_27_1622,60.0012893879,MAFE4ImagesEEG,001,200199,
AFNE01.JPG,AFNE01.JPG,AFNE01.JPG,AFNE01.JPG,AFNE01.JPG,AFNE01.JPG,,,,,,,,,,,,,,,,,5,4,54,5,,,,,,,AMSA19.jpg,AMNE18.jpg,AMNE13.jpg,AMSA09.jpg,AMNE18.jpg,MN,1,num_6,32,num_4,0.916797394631,,,2017_Apr_27_1622,60.0012893879,MAFE4ImagesEEG,001,200199,
AFNE01.JPG,AFNE01.JPG,AFNE01.JPG,AFNE01.JPG,AFNE01.JPG,AFNE01.JPG,,,,,,,,,,,,,,,,,5,5,55,7,,,,,,,AMSA07.jpg,AMNE03.jpg,AMNE06.jpg,AMSA19.jpg,AMSA07.jpg,MS,2,num_8,16,num_8,0.733485385077,,,2017_Apr_27_1622,60.0012893879,MAFE4ImagesEEG,001,200199,
AFNE01.JPG,AFNE01.JPG,AFNE01.JPG,AFNE01.JPG,AFNE01.JPG,AFNE01.JPG,,,,,,,,,,,,,,,,,5,6,56,8,,,,,,,AMSA16.jpg,AMNE03.jpg,AMSA02.jpg,AMNE07.jpg,AMSA16.jpg,MS,2,num_8,32,num_4,0.7334308594,,,2017_Apr_27_1622,60.0012893879,MAFE4ImagesEEG,001,200199,
AFNE01.JPG,AFNE01.JPG,AFNE01.JPG,AFNE01.JPG,AFNE01.JPG,AFNE01.JPG,,,,,,,,,,,,,,,,,5,7,57,1,,,,,,,AMNE05.jpg,AMSA10.jpg,AMSA13.jpg,AMNE17.jpg,AMNE05.jpg,MN,1,num_8,32,num_6,1.0834431597,,,2017_Apr_27_1622,60.0012893879,MAFE4ImagesEEG,001,200199,
AFNE01.JPG,AFNE01.JPG,AFNE01.JPG,AFNE01.JPG,AFNE01.JPG,AFNE01.JPG,,,,,,,,,,,,,,,,,5,8,58,4,,,,,,,AMNE08.jpg,AMSA07.jpg,AMSA03.jpg,AMNE20.jpg,AMNE08.jpg,MN,1,num_8,32,num_4,0.616770676919,,,2017_Apr_27_1622,60.0012893879,MAFE4ImagesEEG,001,200199,
AFNE01.JPG,AFNE01.JPG,AFNE01.JPG,AFNE01.JPG,AFNE01.JPG,AFNE01.JPG,,,,,,,,,,,,,,,,,5,9,59,9,,,,,,,AMSA17.jpg,AMNE17.jpg,AMNE18.jpg,AMSA09.jpg,AMSA17.jpg,MS,2,num_8,16,num_8,0.783429271774,,,2017_Apr_27_1622,60.0012893879,MAFE4ImagesEEG,001,200199,
,,,,,,,,,,,,,,,,,,,,,,,,,,,,,,,,,,,,,,,,,,,space,53.8458524748,2017_Apr_27_1622,60.0012893879,MAFE4ImagesEEG,001,200199,
AFNE01.JPG,AFNE01.JPG,AFNE01.JPG,AFNE01.JPG,AFNE01.JPG,AFNE01.JPG,,,,,,,,,,,,,,,,,,,,,0,0,0,6,,,AFSA20.jpg,AFNE17.jpg,AFNE11.jpg,AFSA18.jpg,AFNE11.jpg,FN,3,num_2,32,num_8,1.13341238478,,,2017_Apr_27_1622,60.0012893879,MAFE4ImagesEEG,001,200199,
AFNE01.JPG,AFNE01.JPG,AFNE01.JPG,AFNE01.JPG,AFNE01.JPG,AFNE01.JPG,,,,,,,,,,,,,,,,,,,,,0,1,1,1,,,AFSA08.jpg,AFSA20.jpg,AFNE04.jpg,AFNE09.jpg,AFSA08.jpg,FS,4,num_8,32,num_4,1.43341216026,,,2017_Apr_27_1622,60.0012893879,MAFE4ImagesEEG,001,200199,
AFNE01.JPG,AFNE01.JPG,AFNE01.JPG,AFNE01.JPG,AFNE01.JPG,AFNE01.JPG,,,,,,,,,,,,,,,,,,,,,0,2,2,4,,,AFNE17.jpg,AFSA19.jpg,AFNE20.jpg,AFSA03.jpg,AFNE17.jpg,FN,3,num_8,32,num_6,0.983457240276,,,2017_Apr_27_1622,60.0012893879,MAFE4ImagesEEG,001,200199,
AFNE01.JPG,AFNE01.JPG,AFNE01.JPG,AFNE01.JPG,AFNE01.JPG,AFNE01.JPG,,,,,,,,,,,,,,,,,,,,,0,3,3,9,,,AFSA16.jpg,AFNE15.jpg,AFNE18.jpg,AFSA13.jpg,AFNE18.jpg,FN,3,num_2,32,num_6,0.800117647042,,,2017_Apr_27_1622,60.0012893879,MAFE4ImagesEEG,001,200199,
AFNE01.JPG,AFNE01.JPG,AFNE01.JPG,AFNE01.JPG,AFNE01.JPG,AFNE01.JPG,,,,,,,,,,,,,,,,,,,,,0,4,4,5,,,AFNE10.jpg,AFNE05.jpg,AFSA14.jpg,AFSA07.jpg,AFSA07.jpg,FS,4,num_4,32,num_8,0.766801195336,,,2017_Apr_27_1622,60.0012893879,MAFE4ImagesEEG,001,200199,
AFNE01.JPG,AFNE01.JPG,AFNE01.JPG,AFNE01.JPG,AFNE01.JPG,AFNE01.JPG,,,,,,,,,,,,,,,,,,,,,0,5,5,7,,,AFSA18.jpg,AFNE16.jpg,AFSA01.jpg,AFNE18.jpg,AFSA18.jpg,FS,4,num_8,32,num_2,0.800062159309,,,2017_Apr_27_1622,60.0012893879,MAFE4ImagesEEG,001,200199,
AFNE01.JPG,AFNE01.JPG,AFNE01.JPG,AFNE01.JPG,AFNE01.JPG,AFNE01.JPG,,,,,,,,,,,,,,,,,,,,,0,6,6,3,,,AFSA18.jpg,AFNE07.jpg,AFSA04.jpg,AFNE20.jpg,AFSA04.jpg,FS,4,num_2,32,num_4,0.733433746034,,,2017_Apr_27_1622,60.0012893879,MAFE4ImagesEEG,001,200199,
AFNE01.JPG,AFNE01.JPG,AFNE01.JPG,AFNE01.JPG,AFNE01.JPG,AFNE01.JPG,,,,,,,,,,,,,,,,,,,,,0,7,7,0,,,AFNE04.jpg,AFSA07.jpg,AFSA05.jpg,AFNE20.jpg,AFSA07.jpg,FS,4,num_6,32,num_4,0.933416169486,,,2017_Apr_27_1622,60.0012893879,MAFE4ImagesEEG,001,200199,
AFNE01.JPG,AFNE01.JPG,AFNE01.JPG,AFNE01.JPG,AFNE01.JPG,AFNE01.JPG,,,,,,,,,,,,,,,,,,,,,0,8,8,2,,,AFSA10.jpg,AFNE13.jpg,AFNE15.jpg,AFSA18.jpg,AFNE13.jpg,FN,3,num_6,16,num_6,0.500189075712,,,2017_Apr_27_1622,60.0012893879,MAFE4ImagesEEG,001,200199,
AFNE01.JPG,AFNE01.JPG,AFNE01.JPG,AFNE01.JPG,AFNE01.JPG,AFNE01.JPG,,,,,,,,,,,,,,,,,,,,,0,9,9,8,,,AFSA18.jpg,AFNE20.jpg,AFNE09.jpg,AFSA12.jpg,AFNE09.jpg,FN,3,num_2,32,num_8,0.650155446143,,,2017_Apr_27_1622,60.0012893879,MAFE4ImagesEEG,001,200199,
AFNE01.JPG,AFNE01.JPG,AFNE01.JPG,AFNE01.JPG,AFNE01.JPG,AFNE01.JPG,,,,,,,,,,,,,,,,,,,,,1,0,10,4,,,AFNE15.jpg,AFNE07.jpg,AFSA08.jpg,AFSA17.jpg,AFNE15.jpg,FN,3,num_8,32,num_6,0.583439792041,,,2017_Apr_27_1622,60.0012893879,MAFE4ImagesEEG,001,200199,
AFNE01.JPG,AFNE01.JPG,AFNE01.JPG,AFNE01.JPG,AFNE01.JPG,AFNE01.JPG,,,,,,,,,,,,,,,,,,,,,1,1,11,9,,,AFNE19.jpg,AFNE14.jpg,AFSA18.jpg,AFSA05.jpg,AFNE14.jpg,FN,3,num_6,32,num_2,0.933437017608,,,2017_Apr_27_1622,60.0012893879,MAFE4ImagesEEG,001,200199,
AFNE01.JPG,AFNE01.JPG,AFNE01.JPG,AFNE01.JPG,AFNE01.JPG,AFNE01.JPG,,,,,,,,,,,,,,,,,,,,,1,2,12,3,,,AFSA04.jpg,AFNE17.jpg,AFSA13.jpg,AFNE15.jpg,AFSA13.jpg,FS,4,num_2,32,num_6,1.0001096928,,,2017_Apr_27_1622,60.0012893879,MAFE4ImagesEEG,001,200199,
AFNE01.JPG,AFNE01.JPG,AFNE01.JPG,AFNE01.JPG,AFNE01.JPG,AFNE01.JPG,,,,,,,,,,,,,,,,,,,,,1,3,13,8,,,AFNE10.jpg,AFSA02.jpg,AFNE04.jpg,AFSA06.jpg,AFSA02.jpg,FS,4,num_6,16,num_6,0.533190240851,,,2017_Apr_27_1622,60.0012893879,MAFE4ImagesEEG,001,200199,
AFNE01.JPG,AFNE01.JPG,AFNE01.JPG,AFNE01.JPG,AFNE01.JPG,AFNE01.JPG,,,,,,,,,,,,,,,,,,,,,1,4,14,2,,,AFSA20.jpg,AFNE06.jpg,AFNE07.jpg,AFSA19.jpg,AFNE06.jpg,FN,3,num_6,32,num_4,0.833431532956,,,2017_Apr_27_1622,60.0012893879,MAFE4ImagesEEG,001,200199,
AFNE01.JPG,AFNE01.JPG,AFNE01.JPG,AFNE01.JPG,AFNE01.JPG,AFNE01.JPG,,,,,,,,,,,,,,,,,,,,,1,5,15,5,,,AFSA07.jpg,AFNE07.jpg,AFNE02.jpg,AFSA17.jpg,AFSA17.jpg,FS,4,num_4,32,num_8,0.583470262238,,,2017_Apr_27_1622,60.0012893879,MAFE4ImagesEEG,001,200199,
AFNE01.JPG,AFNE01.JPG,AFNE01.JPG,AFNE01.JPG,AFNE01.JPG,AFNE01.JPG,,,,,,,,,,,,,,,,,,,,,1,6,16,7,,,AFSA05.jpg,AFNE05.jpg,AFSA10.jpg,AFNE18.jpg,AFNE18.jpg,FN,3,num_4,16,num_4,0.766764951753,,,2017_Apr_27_1622,60.0012893879,MAFE4ImagesEEG,001,200199,
AFNE01.JPG,AFNE01.JPG,AFNE01.JPG,AFNE01.JPG,AFNE01.JPG,AFNE01.JPG,,,,,,,,,,,,,,,,,,,,,1,7,17,0,,,AFSA18.jpg,AFNE11.jpg,AFSA14.jpg,AFNE06.jpg,AFNE06.jpg,FN,3,num_4,32,num_6,0.533400004264,,,2017_Apr_27_1622,60.0012893879,MAFE4ImagesEEG,001,200199,
AFNE01.JPG,AFNE01.JPG,AFNE01.JPG,AFNE01.JPG,AFNE01.JPG,AFNE01.JPG,,,,,,,,,,,,,,,,,,,,,1,8,18,6,,,AFSA06.jpg,AFNE05.jpg,AFNE17.jpg,AFSA14.jpg,AFSA14.jpg,FS,4,num_4,32,num_2,0.800111232325,,,2017_Apr_27_1622,60.0012893879,MAFE4ImagesEEG,001,200199,
AFNE01.JPG,AFNE01.JPG,AFNE01.JPG,AFNE01.JPG,AFNE01.JPG,AFNE01.JPG,,,,,,,,,,,,,,,,,,,,,1,9,19,1,,,AFSA17.jpg,AFNE01.jpg,AFNE20.jpg,AFSA19.jpg,AFNE20.jpg,FN,3,num_2,32,num_4,0.700099974289,,,2017_Apr_27_1622,60.0012893879,MAFE4ImagesEEG,001,200199,
AFNE01.JPG,AFNE01.JPG,AFNE01.JPG,AFNE01.JPG,AFNE01.JPG,AFNE01.JPG,,,,,,,,,,,,,,,,,,,,,2,0,20,8,,,AFSA16.jpg,AFNE14.jpg,AFSA18.jpg,AFNE18.jpg,AFNE14.jpg,FN,3,num_6,32,num_4,0.750140724238,,,2017_Apr_27_1622,60.0012893879,MAFE4ImagesEEG,001,200199,
AFNE01.JPG,AFNE01.JPG,AFNE01.JPG,AFNE01.JPG,AFNE01.JPG,AFNE01.JPG,,,,,,,,,,,,,,,,,,,,,2,1,21,7,,,AFNE06.jpg,AFSA16.jpg,AFNE17.jpg,AFSA13.jpg,AFNE06.jpg,FN,3,num_8,16,num_8,0.833448532154,,,2017_Apr_27_1622,60.0012893879,MAFE4ImagesEEG,001,200199,
AFNE01.JPG,AFNE01.JPG,AFNE01.JPG,AFNE01.JPG,AFNE01.JPG,AFNE01.JPG,,,,,,,,,,,,,,,,,,,,,2,2,22,5,,,AFSA12.jpg,AFNE04.jpg,AFNE20.jpg,AFSA17.jpg,AFSA12.jpg,FS,4,num_8,32,num_6,1.10018541932,,,2017_Apr_27_1622,60.0012893879,MAFE4ImagesEEG,001,200199,
AFNE01.JPG,AFNE01.JPG,AFNE01.JPG,AFNE01.JPG,AFNE01.JPG,AFNE01.JPG,,,,,,,,,,,,,,,,,,,,,2,3,23,6,,,AFSA07.jpg,AFNE06.jpg,AFNE14.jpg,AFSA15.jpg,AFSA07.jpg,FS,4,num_8,32,num_2,0.916790017625,,,2017_Apr_27_1622,60.0012893879,MAFE4ImagesEEG,001,200199,
AFNE01.JPG,AFNE01.JPG,AFNE01.JPG,AFNE01.JPG,AFNE01.JPG,AFNE01.JPG,,,,,,,,,,,,,,,,,,,,,2,4,24,0,,,AFNE05.jpg,AFNE12.jpg,AFSA03.jpg,AFSA17.jpg,AFNE05.jpg,FN,3,num_8,16,num_8,0.900123131811,,,2017_Apr_27_1622,60.0012893879,MAFE4ImagesEEG,001,200199,
AFNE01.JPG,AFNE01.JPG,AFNE01.JPG,AFNE01.JPG,AFNE01.JPG,AFNE01.JPG,,,,,,,,,,,,,,,,,,,,,2,5,25,9,,,AFNE11.jpg,AFNE07.jpg,AFSA03.jpg,AFSA16.jpg,AFSA03.jpg,FS,4,num_2,32,num_6,0.633505559526,,,2017_Apr_27_1622,60.0012893879,MAFE4ImagesEEG,001,200199,
AFNE01.JPG,AFNE01.JPG,AFNE01.JPG,AFNE01.JPG,AFNE01.JPG,AFNE01.JPG,,,,,,,,,,,,,,,,,,,,,2,6,26,3,,,AFSA18.jpg,AFSA16.jpg,AFNE14.jpg,AFNE06.jpg,AFSA18.jpg,FS,4,num_8,32,num_4,0.80024818785,,,2017_Apr_27_1622,60.0012893879,MAFE4ImagesEEG,001,200199,
AFNE01.JPG,AFNE01.JPG,AFNE01.JPG,AFNE01.JPG,AFNE01.JPG,AFNE01.JPG,,,,,,,,,,,,,,,,,,,,,2,7,27,2,,,AFNE20.jpg,AFSA15.jpg,AFSA07.jpg,AFNE05.jpg,AFNE05.jpg,FN,3,num_4,32,num_2,0.733519383357,,,2017_Apr_27_1622,60.0012893879,MAFE4ImagesEEG,001,200199,
AFNE01.JPG,AFNE01.JPG,AFNE01.JPG,AFNE01.JPG,AFNE01.JPG,AFNE01.JPG,,,,,,,,,,,,,,,,,,,,,2,8,28,1,,,AFNE16.jpg,AFSA06.jpg,AFNE19.jpg,AFSA18.jpg,AFSA06.jpg,FS,4,num_6,32,num_8,0.550140018691,,,2017_Apr_27_1622,60.0012893879,MAFE4ImagesEEG,001,200199,
AFNE01.JPG,AFNE01.JPG,AFNE01.JPG,AFNE01.JPG,AFNE01.JPG,AFNE01.JPG,,,,,,,,,,,,,,,,,,,,,2,9,29,4,,,AFSA11.jpg,AFSA04.jpg,AFNE20.jpg,AFNE01.jpg,AFSA11.jpg,FS,4,num_8,32,num_4,0.833445645403,,,2017_Apr_27_1622,60.0012893879,MAFE4ImagesEEG,001,200199,
AFNE01.JPG,AFNE01.JPG,AFNE01.JPG,AFNE01.JPG,AFNE01.JPG,AFNE01.JPG,,,,,,,,,,,,,,,,,,,,,3,0,30,7,,,AFNE20.jpg,AFSA17.jpg,AFNE11.jpg,AFSA02.jpg,AFNE11.jpg,FN,3,num_2,32,num_8,1.53338557098,,,2017_Apr_27_1622,60.0012893879,MAFE4ImagesEEG,001,200199,
AFNE01.JPG,AFNE01.JPG,AFNE01.JPG,AFNE01.JPG,AFNE01.JPG,AFNE01.JPG,,,,,,,,,,,,,,,,,,,,,3,1,31,0,,,AFNE13.jpg,AFNE20.jpg,AFSA18.jpg,AFSA09.jpg,AFNE13.jpg,FN,3,num_8,32,num_2,0.766790290247,,,2017_Apr_27_1622,60.0012893879,MAFE4ImagesEEG,001,200199,
AFNE01.JPG,AFNE01.JPG,AFNE01.JPG,AFNE01.JPG,AFNE01.JPG,AFNE01.JPG,,,,,,,,,,,,,,,,,,,,,3,2,32,5,,,AFNE04.jpg,AFNE18.jpg,AFSA19.jpg,AFSA12.jpg,AFSA12.jpg,FS,4,num_4,16,num_4,0.633453920484,,,2017_Apr_27_1622,60.0012893879,MAFE4ImagesEEG,001,200199,
AFNE01.JPG,AFNE01.JPG,AFNE01.JPG,AFNE01.JPG,AFNE01.JPG,AFNE01.JPG,,,,,,,,,,,,,,,,,,,,,3,3,33,8,,,AFNE18.jpg,AFSA02.jpg,AFSA08.jpg,AFNE20.jpg,AFSA08.jpg,FS,4,num_2,32,num_8,1.83337604511,,,2017_Apr_27_1622,60.0012893879,MAFE4ImagesEEG,001,200199,
AFNE01.JPG,AFNE01.JPG,AFNE01.JPG,AFNE01.JPG,AFNE01.JPG,AFNE01.JPG,,,,,,,,,,,,,,,,,,,,,3,4,34,6,,,AFSA05.jpg,AFNE06.jpg,AFSA10.jpg,AFNE11.jpg,AFNE11.jpg,FN,3,num_4,16,num_4,0.566801131121,,,2017_Apr_27_1622,60.0012893879,MAFE4ImagesEEG,001,200199,
AFNE01.JPG,AFNE01.JPG,AFNE01.JPG,AFNE01.JPG,AFNE01.JPG,AFNE01.JPG,,,,,,,,,,,,,,,,,,,,,3,5,35,1,,,AFSA04.jpg,AFNE15.jpg,AFNE09.jpg,AFSA14.jpg,AFNE09.jpg,FN,3,num_2,32,num_8,0.850127926795,,,2017_Apr_27_1622,60.0012893879,MAFE4ImagesEEG,001,200199,
AFNE01.JPG,AFNE01.JPG,AFNE01.JPG,AFNE01.JPG,AFNE01.JPG,AFNE01.JPG,,,,,,,,,,,,,,,,,,,,,3,6,36,4,,,AFSA01.jpg,AFSA05.jpg,AFNE05.jpg,AFNE08.jpg,AFSA01.jpg,FS,4,num_8,32,num_6,0.566776434192,,,2017_Apr_27_1622,60.0012893879,MAFE4ImagesEEG,001,200199,
AFNE01.JPG,AFNE01.JPG,AFNE01.JPG,AFNE01.JPG,AFNE01.JPG,AFNE01.JPG,,,,,,,,,,,,,,,,,,,,,3,7,37,9,,,AFNE08.jpg,AFSA03.jpg,AFSA16.jpg,AFNE03.jpg,AFNE03.jpg,FN,3,num_4,16,num_4,0.833447569865,,,2017_Apr_27_1622,60.0012893879,MAFE4ImagesEEG,001,200199,
AFNE01.JPG,AFNE01.JPG,AFNE01.JPG,AFNE01.JPG,AFNE01.JPG,AFNE01.JPG,,,,,,,,,,,,,,,,,,,,,3,8,38,2,,,AFNE11.jpg,AFSA02.jpg,AFSA18.jpg,AFNE08.jpg,AFNE08.jpg,FN,3,num_4,16,num_4,0.866747984663,,,2017_Apr_27_1622,60.0012893879,MAFE4ImagesEEG,001,200199,
