IPosition2,IPosition3,IPosition1,IPosition6,IPosition4,IPosition5,TrialsF1.thisRepN,TrialsF1.thisTrialN,TrialsF1.thisN,TrialsF1.thisIndex,TrialsM1.thisRepN,TrialsM1.thisTrialN,TrialsM1.thisN,TrialsM1.thisIndex,TrialsF2.thisRepN,TrialsF2.thisTrialN,TrialsF2.thisN,TrialsF2.thisIndex,TrialsM2.thisRepN,TrialsM2.thisTrialN,TrialsM2.thisN,TrialsM2.thisIndex,TrialsF3.thisRepN,TrialsF3.thisTrialN,TrialsF3.thisN,TrialsF3.thisIndex,TrialsM3.thisRepN,TrialsM3.thisTrialN,TrialsM3.thisN,TrialsM3.thisIndex,InstrKey_resp.keys,InstrKey_resp.rt,Image0 _Position,Image1 _Position,Image2 _Position,Image3 _Position,Center_image,condition,code,correct_answer,accuracy,Key_Resp.keys,Key_Resp.rt,BreakKey_resp.keys,BreakKey_resp.rt,date,frameRate,expName,session,participant,
,,,,,,,,,,,,,,,,,,,,,,,,,,,,,,space,73.2612782287,,,,,,,,,,,,,,2017_Apr_20_1417,59.9987491458,FEMA4ImagesEEG,001,200192,
AFSA21.JPG,AFNE23.JPG,AFNE21.JPG,AFSA25.JPG,AFNE25.JPG,AFSA23.JPG,0,0,0,4,,,,,,,,,,,,,,,,,,,,,,,AFSA08.jpg,AFSA18.jpg,AFNE14.jpg,AFNE08.jpg,AFNE08.jpg,FN,3,num_4,32,num_2,1.10009080125,,,2017_Apr_20_1417,59.9987491458,FEMA4ImagesEEG,001,200192,
AFNE23.JPG,AFNE24.JPG,AFNE22.JPG,AFSA24.JPG,AFSA22.JPG,AFSA23.JPG,0,1,1,8,,,,,,,,,,,,,,,,,,,,,,,AFNE05.jpg,AFSA13.jpg,AFSA08.jpg,AFNE13.jpg,AFNE05.jpg,FN,3,num_8,32,num_4,0.849977820879,,,2017_Apr_20_1417,59.9987491458,FEMA4ImagesEEG,001,200192,
AMNE22.JPG,AMSA24.JPG,AMSA22.JPG,AMNE25.JPG,AMNE24.JPG,AMSA25.JPG,0,2,2,7,,,,,,,,,,,,,,,,,,,,,,,AFNE05.jpg,AFSA04.jpg,AFSA11.jpg,AFNE06.jpg,AFNE06.jpg,FN,3,num_4,16,num_4,0.833413571527,,,2017_Apr_20_1417,59.9987491458,FEMA4ImagesEEG,001,200192,
AMSA21.JPG,AMNE22.JPG,AMNE21.JPG,AMSA23.JPG,AMSA22.JPG,AMNE23.JPG,0,3,3,1,,,,,,,,,,,,,,,,,,,,,,,AFSA15.jpg,AFNE13.jpg,AFSA19.jpg,AFNE04.jpg,AFSA15.jpg,FS,4,num_8,32,num_6,0.666789295909,,,2017_Apr_20_1417,59.9987491458,FEMA4ImagesEEG,001,200192,
AFNE22.JPG,AFSA24.JPG,AFSA22.JPG,AFNE25.JPG,AFNE24.JPG,AFSA25.JPG,0,4,4,6,,,,,,,,,,,,,,,,,,,,,,,AFSA08.jpg,AFNE06.jpg,AFSA10.jpg,AFNE03.jpg,AFNE03.jpg,FN,3,num_4,16,num_4,0.616800185002,,,2017_Apr_20_1417,59.9987491458,FEMA4ImagesEEG,001,200192,
AMSA25.JPG,AMNE24.JPG,AMSA24.JPG,AMNE26.JPG,AMSA21.JPG,AMNE25.JPG,0,5,5,3,,,,,,,,,,,,,,,,,,,,,,,AFNE16.jpg,AFSA06.jpg,AFSA17.jpg,AFNE12.jpg,AFNE16.jpg,FN,3,num_8,32,num_2,1.1667240255,,,2017_Apr_20_1417,59.9987491458,FEMA4ImagesEEG,001,200192,
AMSA21.JPG,AMNE23.JPG,AMNE21.JPG,AMSA25.JPG,AMNE25.JPG,AMSA23.JPG,0,6,6,5,,,,,,,,,,,,,,,,,,,,,,,AFNE19.jpg,AFSA08.jpg,AFSA17.jpg,AFNE07.jpg,AFSA08.jpg,FS,4,num_6,16,num_6,0.883426096465,,,2017_Apr_20_1417,59.9987491458,FEMA4ImagesEEG,001,200192,
AFSA21.JPG,AFNE22.JPG,AFNE21.JPG,AFSA23.JPG,AFSA22.JPG,AFNE23.JPG,0,7,7,0,,,,,,,,,,,,,,,,,,,,,,,AFNE01.jpg,AFSA15.jpg,AFNE16.jpg,AFSA07.jpg,AFNE16.jpg,FN,3,num_2,32,num_4,0.733502704941,,,2017_Apr_20_1417,59.9987491458,FEMA4ImagesEEG,001,200192,
AMNE23.JPG,AMNE24.JPG,AMNE22.JPG,AMSA24.JPG,AMSA22.JPG,AMSA23.JPG,0,8,8,9,,,,,,,,,,,,,,,,,,,,,,,AFSA14.jpg,AFSA20.jpg,AFNE17.jpg,AFNE04.jpg,AFNE04.jpg,FN,3,num_4,32,num_8,0.916828827001,,,2017_Apr_20_1417,59.9987491458,FEMA4ImagesEEG,001,200192,
AFSA25.JPG,AFNE24.JPG,AFSA24.JPG,AFNE21.JPG,AFSA21.JPG,AFNE25.JPG,0,9,9,2,,,,,,,,,,,,,,,,,,,,,,,AFNE11.jpg,AFSA20.jpg,AFNE04.jpg,AFSA04.jpg,AFNE04.jpg,FN,3,num_2,32,num_4,0.800128231465,,,2017_Apr_20_1417,59.9987491458,FEMA4ImagesEEG,001,200192,
AMNE23.JPG,AMNE24.JPG,AMNE22.JPG,AMSA24.JPG,AMSA22.JPG,AMSA23.JPG,,,,,0,0,0,9,,,,,,,,,,,,,,,,,,,AMSA18.jpg,AMSA12.jpg,AMNE09.jpg,AMNE01.jpg,AMSA18.jpg,MS,2,num_8,16,num_8,0.983465579397,,,2017_Apr_20_1417,59.9987491458,FEMA4ImagesEEG,001,200192,
AFSA21.JPG,AFNE23.JPG,AFNE21.JPG,AFSA25.JPG,AFNE25.JPG,AFSA23.JPG,,,,,0,1,1,4,,,,,,,,,,,,,,,,,,,AMSA08.jpg,AMNE03.jpg,AMNE07.jpg,AMSA20.jpg,AMSA08.jpg,MS,2,num_8,32,num_2,0.983449863154,,,2017_Apr_20_1417,59.9987491458,FEMA4ImagesEEG,001,200192,
AFSA25.JPG,AFNE24.JPG,AFSA24.JPG,AFNE21.JPG,AFSA21.JPG,AFNE25.JPG,,,,,0,2,2,2,,,,,,,,,,,,,,,,,,,AMSA02.jpg,AMNE18.jpg,AMSA19.jpg,AMNE04.jpg,AMSA19.jpg,MS,2,num_2,16,num_2,0.816769137455,,,2017_Apr_20_1417,59.9987491458,FEMA4ImagesEEG,001,200192,
AFNE23.JPG,AFNE24.JPG,AFNE22.JPG,AFSA24.JPG,AFSA22.JPG,AFSA23.JPG,,,,,0,3,3,8,,,,,,,,,,,,,,,,,,,AMSA04.jpg,AMNE10.jpg,AMSA14.jpg,AMNE17.jpg,AMNE10.jpg,MN,1,num_6,32,num_8,0.733487309481,,,2017_Apr_20_1417,59.9987491458,FEMA4ImagesEEG,001,200192,
AFNE22.JPG,AFSA24.JPG,AFSA22.JPG,AFNE25.JPG,AFNE24.JPG,AFSA25.JPG,,,,,0,4,4,6,,,,,,,,,,,,,,,,,,,AMNE07.jpg,AMSA16.jpg,AMNE18.jpg,AMSA11.jpg,AMSA16.jpg,MS,2,num_6,32,num_8,0.966710169567,,,2017_Apr_20_1417,59.9987491458,FEMA4ImagesEEG,001,200192,
AMSA21.JPG,AMNE22.JPG,AMNE21.JPG,AMSA23.JPG,AMSA22.JPG,AMNE23.JPG,,,,,0,5,5,1,,,,,,,,,,,,,,,,,,,AMNE19.jpg,AMSA07.jpg,AMSA12.jpg,AMNE12.jpg,AMNE19.jpg,MN,1,num_8,16,num_8,0.716824593255,,,2017_Apr_20_1417,59.9987491458,FEMA4ImagesEEG,001,200192,
AMSA21.JPG,AMNE23.JPG,AMNE21.JPG,AMSA25.JPG,AMNE25.JPG,AMSA23.JPG,,,,,0,6,6,5,,,,,,,,,,,,,,,,,,,AMSA10.jpg,AMSA16.jpg,AMNE19.jpg,AMNE01.jpg,AMNE19.jpg,MN,1,num_2,16,num_2,0.749843399099,,,2017_Apr_20_1417,59.9987491458,FEMA4ImagesEEG,001,200192,
AMNE22.JPG,AMSA24.JPG,AMSA22.JPG,AMNE25.JPG,AMNE24.JPG,AMSA25.JPG,,,,,0,7,7,7,,,,,,,,,,,,,,,,,,,AMNE15.jpg,AMSA10.jpg,AMSA16.jpg,AMNE09.jpg,AMNE15.jpg,MN,1,num_8,32,num_4,0.950092356827,,,2017_Apr_20_1417,59.9987491458,FEMA4ImagesEEG,001,200192,
AMSA25.JPG,AMNE24.JPG,AMSA24.JPG,AMNE26.JPG,AMSA21.JPG,AMNE25.JPG,,,,,0,8,8,3,,,,,,,,,,,,,,,,,,,AMSA18.jpg,AMSA08.jpg,AMNE05.jpg,AMNE08.jpg,AMSA08.jpg,MS,2,num_6,32,num_8,0.900114471733,,,2017_Apr_20_1417,59.9987491458,FEMA4ImagesEEG,001,200192,
AFSA21.JPG,AFNE22.JPG,AFNE21.JPG,AFSA23.JPG,AFSA22.JPG,AFNE23.JPG,,,,,0,9,9,0,,,,,,,,,,,,,,,,,,,AMNE07.jpg,AMSA05.jpg,AMNE03.jpg,AMSA13.jpg,AMNE07.jpg,MN,1,num_8,32,num_4,0.950116091524,,,2017_Apr_20_1417,59.9987491458,FEMA4ImagesEEG,001,200192,
AFSA25.JPG,AFNE24.JPG,AFSA24.JPG,AFNE21.JPG,AFSA21.JPG,AFNE25.JPG,,,,,,,,,0,0,0,2,,,,,,,,,,,,,,,AFSA19.jpg,AFNE05.jpg,AFNE15.jpg,AFSA09.jpg,AFSA09.jpg,FS,4,num_4,16,num_4,0.666652661108,,,2017_Apr_20_1417,59.9987491458,FEMA4ImagesEEG,001,200192,
AFNE23.JPG,AFNE24.JPG,AFNE22.JPG,AFSA24.JPG,AFSA22.JPG,AFSA23.JPG,,,,,,,,,0,1,1,8,,,,,,,,,,,,,,,AFNE06.jpg,AFNE20.jpg,AFSA02.jpg,AFSA13.jpg,AFSA02.jpg,FS,4,num_2,16,num_2,0.916730039346,,,2017_Apr_20_1417,59.9987491458,FEMA4ImagesEEG,001,200192,
AFNE22.JPG,AFSA24.JPG,AFSA22.JPG,AFNE25.JPG,AFNE24.JPG,AFSA25.JPG,,,,,,,,,0,2,2,6,,,,,,,,,,,,,,,AFNE12.jpg,AFNE20.jpg,AFSA06.jpg,AFSA04.jpg,AFSA04.jpg,FS,4,num_4,32,num_2,1.00011225865,,,2017_Apr_20_1417,59.9987491458,FEMA4ImagesEEG,001,200192,
AMSA25.JPG,AMNE24.JPG,AMSA24.JPG,AMNE26.JPG,AMSA21.JPG,AMNE25.JPG,,,,,,,,,0,3,3,3,,,,,,,,,,,,,,,AFSA09.jpg,AFNE04.jpg,AFSA01.jpg,AFNE07.jpg,AFNE04.jpg,FN,3,num_6,32,num_4,0.850019837671,,,2017_Apr_20_1417,59.9987491458,FEMA4ImagesEEG,001,200192,
AMNE22.JPG,AMSA24.JPG,AMSA22.JPG,AMNE25.JPG,AMNE24.JPG,AMSA25.JPG,,,,,,,,,0,4,4,7,,,,,,,,,,,,,,,AFSA18.jpg,AFSA11.jpg,AFNE08.jpg,AFNE11.jpg,AFNE11.jpg,FN,3,num_4,16,num_4,0.933458507119,,,2017_Apr_20_1417,59.9987491458,FEMA4ImagesEEG,001,200192,
AMSA21.JPG,AMNE23.JPG,AMNE21.JPG,AMSA25.JPG,AMNE25.JPG,AMSA23.JPG,,,,,,,,,0,5,5,5,,,,,,,,,,,,,,,AFNE15.jpg,AFSA17.jpg,AFNE20.jpg,AFSA19.jpg,AFSA17.jpg,FS,4,num_6,32,num_4,0.883510450774,,,2017_Apr_20_1417,59.9987491458,FEMA4ImagesEEG,001,200192,
AMSA21.JPG,AMNE22.JPG,AMNE21.JPG,AMSA23.JPG,AMSA22.JPG,AMNE23.JPG,,,,,,,,,0,6,6,1,,,,,,,,,,,,,,,AFNE20.jpg,AFSA12.jpg,AFSA02.jpg,AFNE05.jpg,AFSA02.jpg,FS,4,num_2,32,num_8,1.41671672871,,,2017_Apr_20_1417,59.9987491458,FEMA4ImagesEEG,001,200192,
AFSA21.JPG,AFNE23.JPG,AFNE21.JPG,AFSA25.JPG,AFNE25.JPG,AFSA23.JPG,,,,,,,,,0,7,7,4,,,,,,,,,,,,,,,AFNE03.jpg,AFSA12.jpg,AFSA07.jpg,AFNE06.jpg,AFNE06.jpg,FN,3,num_4,16,num_4,0.85016513255,,,2017_Apr_20_1417,59.9987491458,FEMA4ImagesEEG,001,200192,
AFSA21.JPG,AFNE22.JPG,AFNE21.JPG,AFSA23.JPG,AFSA22.JPG,AFNE23.JPG,,,,,,,,,0,8,8,0,,,,,,,,,,,,,,,AFNE01.jpg,AFSA05.jpg,AFNE06.jpg,AFSA09.jpg,AFNE06.jpg,FN,3,num_2,32,num_8,0.783529663109,,,2017_Apr_20_1417,59.9987491458,FEMA4ImagesEEG,001,200192,
AMNE23.JPG,AMNE24.JPG,AMNE22.JPG,AMSA24.JPG,AMSA22.JPG,AMSA23.JPG,,,,,,,,,0,9,9,9,,,,,,,,,,,,,,,AFSA14.jpg,AFNE03.jpg,AFSA09.jpg,AFNE12.jpg,AFSA09.jpg,FS,4,num_2,32,num_4,0.616795373906,,,2017_Apr_20_1417,59.9987491458,FEMA4ImagesEEG,001,200192,
AMNE22.JPG,AMSA24.JPG,AMSA22.JPG,AMNE25.JPG,AMNE24.JPG,AMSA25.JPG,,,,,,,,,,,,,0,0,0,7,,,,,,,,,,,AMSA18.jpg,AMSA20.jpg,AMNE09.jpg,AMNE13.jpg,AMSA20.jpg,MS,2,num_6,32,num_8,0.817079933651,,,2017_Apr_20_1417,59.9987491458,FEMA4ImagesEEG,001,200192,
AMSA25.JPG,AMNE24.JPG,AMSA24.JPG,AMNE26.JPG,AMSA21.JPG,AMNE25.JPG,,,,,,,,,,,,,0,1,1,3,,,,,,,,,,,AMNE06.jpg,AMNE09.jpg,AMSA03.jpg,AMSA07.jpg,AMSA03.jpg,MS,2,num_2,16,num_2,0.650156729156,,,2017_Apr_20_1417,59.9987491458,FEMA4ImagesEEG,001,200192,
AMSA21.JPG,AMNE23.JPG,AMNE21.JPG,AMSA25.JPG,AMNE25.JPG,AMSA23.JPG,,,,,,,,,,,,,0,2,2,5,,,,,,,,,,,AMSA09.jpg,AMNE19.jpg,AMNE13.jpg,AMSA14.jpg,AMSA14.jpg,MS,2,num_4,16,num_4,0.683455219492,,,2017_Apr_20_1417,59.9987491458,FEMA4ImagesEEG,001,200192,
AFNE22.JPG,AFSA24.JPG,AFSA22.JPG,AFNE25.JPG,AFNE24.JPG,AFSA25.JPG,,,,,,,,,,,,,0,3,3,6,,,,,,,,,,,AMNE12.jpg,AMSA14.jpg,AMSA18.jpg,AMNE20.jpg,AMSA14.jpg,MS,2,num_6,16,num_6,0.783480589977,,,2017_Apr_20_1417,59.9987491458,FEMA4ImagesEEG,001,200192,
AFNE23.JPG,AFNE24.JPG,AFNE22.JPG,AFSA24.JPG,AFSA22.JPG,AFSA23.JPG,,,,,,,,,,,,,0,4,4,8,,,,,,,,,,,AMSA12.jpg,AMNE09.jpg,AMSA20.jpg,AMNE07.jpg,AMNE09.jpg,MN,1,num_6,32,num_8,0.700170216209,,,2017_Apr_20_1417,59.9987491458,FEMA4ImagesEEG,001,200192,
AMSA21.JPG,AMNE22.JPG,AMNE21.JPG,AMSA23.JPG,AMSA22.JPG,AMNE23.JPG,,,,,,,,,,,,,0,5,5,1,,,,,,,,,,,AMNE15.jpg,AMSA13.jpg,AMNE03.jpg,AMSA10.jpg,AMNE03.jpg,MN,1,num_2,16,num_2,0.783466798195,,,2017_Apr_20_1417,59.9987491458,FEMA4ImagesEEG,001,200192,
AFSA25.JPG,AFNE24.JPG,AFSA24.JPG,AFNE21.JPG,AFSA21.JPG,AFNE25.JPG,,,,,,,,,,,,,0,6,6,2,,,,,,,,,,,AMNE17.jpg,AMNE08.jpg,AMSA07.jpg,AMSA02.jpg,AMNE17.jpg,MN,1,num_8,32,num_2,0.850129530474,,,2017_Apr_20_1417,59.9987491458,FEMA4ImagesEEG,001,200192,
AFSA21.JPG,AFNE23.JPG,AFNE21.JPG,AFSA25.JPG,AFNE25.JPG,AFSA23.JPG,,,,,,,,,,,,,0,7,7,4,,,,,,,,,,,AMNE10.jpg,AMNE06.jpg,AMSA19.jpg,AMSA13.jpg,AMSA19.jpg,MS,2,num_2,16,num_2,0.65013235301,,,2017_Apr_20_1417,59.9987491458,FEMA4ImagesEEG,001,200192,
AFSA21.JPG,AFNE22.JPG,AFNE21.JPG,AFSA23.JPG,AFSA22.JPG,AFNE23.JPG,,,,,,,,,,,,,0,8,8,0,,,,,,,,,,,AMSA02.jpg,AMSA18.jpg,AMNE06.jpg,AMNE02.jpg,AMSA02.jpg,MS,2,num_8,32,num_4,1.08345021604,,,2017_Apr_20_1417,59.9987491458,FEMA4ImagesEEG,001,200192,
AMNE23.JPG,AMNE24.JPG,AMNE22.JPG,AMSA24.JPG,AMSA22.JPG,AMSA23.JPG,,,,,,,,,,,,,0,9,9,9,,,,,,,,,,,AMNE02.jpg,AMNE15.jpg,AMSA09.jpg,AMSA16.jpg,AMNE15.jpg,MN,1,num_6,32,num_4,0.966596948681,,,2017_Apr_20_1417,59.9987491458,FEMA4ImagesEEG,001,200192,
AFNE23.JPG,AFNE24.JPG,AFNE22.JPG,AFSA24.JPG,AFSA22.JPG,AFSA23.JPG,,,,,,,,,,,,,,,,,0,0,0,8,,,,,,,AFSA16.jpg,AFNE08.jpg,AFSA12.jpg,AFNE17.jpg,AFNE17.jpg,FN,3,num_4,32,num_6,1.03349831083,,,2017_Apr_20_1417,59.9987491458,FEMA4ImagesEEG,001,200192,
AMSA21.JPG,AMNE22.JPG,AMNE21.JPG,AMSA23.JPG,AMSA22.JPG,AMNE23.JPG,,,,,,,,,,,,,,,,,0,1,1,1,,,,,,,AFSA11.jpg,AFSA12.jpg,AFNE12.jpg,AFNE15.jpg,AFSA11.jpg,FS,4,num_8,16,num_8,0.81677042041,,,2017_Apr_20_1417,59.9987491458,FEMA4ImagesEEG,001,200192,
AFNE22.JPG,AFSA24.JPG,AFSA22.JPG,AFNE25.JPG,AFNE24.JPG,AFSA25.JPG,,,,,,,,,,,,,,,,,0,2,2,6,,,,,,,AFNE04.jpg,AFSA12.jpg,AFNE11.jpg,AFSA17.jpg,AFNE11.jpg,FN,3,num_2,32,num_6,0.850372329936,,,2017_Apr_20_1417,59.9987491458,FEMA4ImagesEEG,001,200192,
AMSA21.JPG,AMNE23.JPG,AMNE21.JPG,AMSA25.JPG,AMNE25.JPG,AMSA23.JPG,,,,,,,,,,,,,,,,,0,3,3,5,,,,,,,AFNE16.jpg,AFNE19.jpg,AFSA10.jpg,AFSA06.jpg,AFSA10.jpg,FS,4,num_2,16,num_2,0.466786024394,,,2017_Apr_20_1417,59.9987491458,FEMA4ImagesEEG,001,200192,
AFSA25.JPG,AFNE24.JPG,AFSA24.JPG,AFNE21.JPG,AFSA21.JPG,AFNE25.JPG,,,,,,,,,,,,,,,,,0,4,4,2,,,,,,,AFNE03.jpg,AFNE15.jpg,AFSA16.jpg,AFSA20.jpg,AFNE03.jpg,FN,3,num_8,32,num_4,0.600119507406,,,2017_Apr_20_1417,59.9987491458,FEMA4ImagesEEG,001,200192,
AMSA25.JPG,AMNE24.JPG,AMSA24.JPG,AMNE26.JPG,AMSA21.JPG,AMNE25.JPG,,,,,,,,,,,,,,,,,0,5,5,3,,,,,,,AFSA14.jpg,AFNE05.jpg,AFSA15.jpg,AFNE06.jpg,AFNE06.jpg,FN,3,num_4,32,num_8,0.750172156666,,,2017_Apr_20_1417,59.9987491458,FEMA4ImagesEEG,001,200192,
AFSA21.JPG,AFNE22.JPG,AFNE21.JPG,AFSA23.JPG,AFSA22.JPG,AFNE23.JPG,,,,,,,,,,,,,,,,,0,6,6,0,,,,,,,AFNE05.jpg,AFSA11.jpg,AFSA08.jpg,AFNE01.jpg,AFNE01.jpg,FN,3,num_4,16,num_4,0.583483733237,,,2017_Apr_20_1417,59.9987491458,FEMA4ImagesEEG,001,200192,
AMNE23.JPG,AMNE24.JPG,AMNE22.JPG,AMSA24.JPG,AMSA22.JPG,AMSA23.JPG,,,,,,,,,,,,,,,,,0,7,7,9,,,,,,,AFSA08.jpg,AFSA19.jpg,AFNE09.jpg,AFNE10.jpg,AFNE09.jpg,FN,3,num_2,32,num_4,0.633486956649,,,2017_Apr_20_1417,59.9987491458,FEMA4ImagesEEG,001,200192,
AFSA21.JPG,AFNE23.JPG,AFNE21.JPG,AFSA25.JPG,AFNE25.JPG,AFSA23.JPG,,,,,,,,,,,,,,,,,0,8,8,4,,,,,,,AFSA14.jpg,AFNE20.jpg,AFNE03.jpg,AFSA20.jpg,AFSA20.jpg,FS,4,num_4,16,num_4,0.616807562008,,,2017_Apr_20_1417,59.9987491458,FEMA4ImagesEEG,001,200192,
AMNE22.JPG,AMSA24.JPG,AMSA22.JPG,AMNE25.JPG,AMNE24.JPG,AMSA25.JPG,,,,,,,,,,,,,,,,,0,9,9,7,,,,,,,AFNE19.jpg,AFNE10.jpg,AFSA07.jpg,AFSA03.jpg,AFSA03.jpg,FS,4,num_4,32,num_6,1.91665755236,,,2017_Apr_20_1417,59.9987491458,FEMA4ImagesEEG,001,200192,
AFNE23.JPG,AFNE24.JPG,AFNE22.JPG,AFSA24.JPG,AFSA22.JPG,AFSA23.JPG,,,,,,,,,,,,,,,,,,,,,0,0,0,8,,,AMSA11.jpg,AMSA05.jpg,AMNE20.jpg,AMNE14.jpg,AMNE20.jpg,MN,1,num_2,32,num_4,0.516778984165,,,2017_Apr_20_1417,59.9987491458,FEMA4ImagesEEG,001,200192,
AFSA25.JPG,AFNE24.JPG,AFSA24.JPG,AFNE21.JPG,AFSA21.JPG,AFNE25.JPG,,,,,,,,,,,,,,,,,,,,,0,1,1,2,,,AMNE06.jpg,AMNE03.jpg,AMSA07.jpg,AMSA11.jpg,AMSA11.jpg,MS,2,num_4,32,num_2,0.600132978463,,,2017_Apr_20_1417,59.9987491458,FEMA4ImagesEEG,001,200192,
AFSA21.JPG,AFNE22.JPG,AFNE21.JPG,AFSA23.JPG,AFSA22.JPG,AFNE23.JPG,,,,,,,,,,,,,,,,,,,,,0,2,2,0,,,AMNE20.jpg,AMNE01.jpg,AMSA09.jpg,AMSA02.jpg,AMSA09.jpg,MS,2,num_2,32,num_4,0.900144941988,,,2017_Apr_20_1417,59.9987491458,FEMA4ImagesEEG,001,200192,
AMSA21.JPG,AMNE23.JPG,AMNE21.JPG,AMSA25.JPG,AMNE25.JPG,AMSA23.JPG,,,,,,,,,,,,,,,,,,,,,0,3,3,5,,,AMSA12.jpg,AMNE07.jpg,AMSA05.jpg,AMNE03.jpg,AMNE03.jpg,MN,1,num_4,32,num_8,0.717072203814,,,2017_Apr_20_1417,59.9987491458,FEMA4ImagesEEG,001,200192,
AFSA21.JPG,AFNE23.JPG,AFNE21.JPG,AFSA25.JPG,AFNE25.JPG,AFSA23.JPG,,,,,,,,,,,,,,,,,,,,,0,4,4,4,,,AMSA02.jpg,AMSA18.jpg,AMNE18.jpg,AMNE15.jpg,AMNE15.jpg,MN,1,num_4,32,num_8,0.683496274112,,,2017_Apr_20_1417,59.9987491458,FEMA4ImagesEEG,001,200192,
AMNE22.JPG,AMSA24.JPG,AMSA22.JPG,AMNE25.JPG,AMNE24.JPG,AMSA25.JPG,,,,,,,,,,,,,,,,,,,,,0,5,5,7,,,AMNE12.jpg,AMSA13.jpg,AMSA05.jpg,AMNE13.jpg,AMNE13.jpg,MN,1,num_4,32,num_6,0.850120549789,,,2017_Apr_20_1417,59.9987491458,FEMA4ImagesEEG,001,200192,
AMSA25.JPG,AMNE24.JPG,AMSA24.JPG,AMNE26.JPG,AMSA21.JPG,AMNE25.JPG,,,,,,,,,,,,,,,,,,,,,0,6,6,3,,,AMNE17.jpg,AMSA06.jpg,AMNE13.jpg,AMSA02.jpg,AMSA02.jpg,MS,2,num_4,32,num_2,0.81699173036,,,2017_Apr_20_1417,59.9987491458,FEMA4ImagesEEG,001,200192,
AFNE22.JPG,AFSA24.JPG,AFSA22.JPG,AFNE25.JPG,AFNE24.JPG,AFSA25.JPG,,,,,,,,,,,,,,,,,,,,,0,7,7,6,,,AMNE17.jpg,AMNE03.jpg,AMSA03.jpg,AMSA06.jpg,AMSA03.jpg,MS,2,num_2,16,num_2,0.633478617412,,,2017_Apr_20_1417,59.9987491458,FEMA4ImagesEEG,001,200192,
AMSA21.JPG,AMNE22.JPG,AMNE21.JPG,AMSA23.JPG,AMSA22.JPG,AMNE23.JPG,,,,,,,,,,,,,,,,,,,,,0,8,8,1,,,AMNE18.jpg,AMSA15.jpg,AMNE03.jpg,AMSA18.jpg,AMSA18.jpg,MS,2,num_4,32,num_6,1.51672285481,,,2017_Apr_20_1417,59.9987491458,FEMA4ImagesEEG,001,200192,
AMNE23.JPG,AMNE24.JPG,AMNE22.JPG,AMSA24.JPG,AMSA22.JPG,AMSA23.JPG,,,,,,,,,,,,,,,,,,,,,0,9,9,9,,,AMSA20.jpg,AMSA15.jpg,AMNE05.jpg,AMNE15.jpg,AMNE05.jpg,MN,1,num_2,16,num_2,0.883551505452,,,2017_Apr_20_1417,59.9987491458,FEMA4ImagesEEG,001,200192,
,,,,,,,,,,,,,,,,,,,,,,,,,,,,,,,,,,,,,,,,,,,space,16.9651690183,2017_Apr_20_1417,59.9987491458,FEMA4ImagesEEG,001,200192,
AFNE01.JPG,AFNE01.JPG,AFNE01.JPG,AFNE01.JPG,AFNE01.JPG,AFNE01.JPG,0,0,0,2,,,,,,,,,,,,,,,,,,,,,,,AFSA14.jpg,AFNE20.jpg,AFNE13.jpg,AFSA09.jpg,AFNE20.jpg,FN,3,num_6,16,num_6,1.0502383252,,,2017_Apr_20_1417,59.9987491458,FEMA4ImagesEEG,001,200192,
AFNE01.JPG,AFNE01.JPG,AFNE01.JPG,AFNE01.JPG,AFNE01.JPG,AFNE01.JPG,0,1,1,3,,,,,,,,,,,,,,,,,,,,,,,AFNE05.jpg,AFNE15.jpg,AFSA09.jpg,AFSA17.jpg,AFNE05.jpg,FN,3,num_8,32,num_4,1.13367795682,,,2017_Apr_20_1417,59.9987491458,FEMA4ImagesEEG,001,200192,
AFNE01.JPG,AFNE01.JPG,AFNE01.JPG,AFNE01.JPG,AFNE01.JPG,AFNE01.JPG,0,2,2,5,,,,,,,,,,,,,,,,,,,,,,,AFNE06.jpg,AFSA20.jpg,AFNE14.jpg,AFSA08.jpg,AFNE14.jpg,FN,3,num_2,16,num_2,0.533446832211,,,2017_Apr_20_1417,59.9987491458,FEMA4ImagesEEG,001,200192,
AFNE01.JPG,AFNE01.JPG,AFNE01.JPG,AFNE01.JPG,AFNE01.JPG,AFNE01.JPG,0,3,3,4,,,,,,,,,,,,,,,,,,,,,,,AFSA09.jpg,AFNE06.jpg,AFSA20.jpg,AFNE12.jpg,AFNE12.jpg,FN,3,num_4,16,num_4,0.733539269189,,,2017_Apr_20_1417,59.9987491458,FEMA4ImagesEEG,001,200192,
AFNE01.JPG,AFNE01.JPG,AFNE01.JPG,AFNE01.JPG,AFNE01.JPG,AFNE01.JPG,0,4,4,0,,,,,,,,,,,,,,,,,,,,,,,AFSA11.jpg,AFSA13.jpg,AFNE14.jpg,AFNE05.jpg,AFNE14.jpg,FN,3,num_2,32,num_6,0.550118208339,,,2017_Apr_20_1417,59.9987491458,FEMA4ImagesEEG,001,200192,
AFNE01.JPG,AFNE01.JPG,AFNE01.JPG,AFNE01.JPG,AFNE01.JPG,AFNE01.JPG,0,5,5,8,,,,,,,,,,,,,,,,,,,,,,,AFSA12.jpg,AFNE15.jpg,AFSA07.jpg,AFNE08.jpg,AFSA12.jpg,FS,4,num_8,32,num_2,0.650121127139,,,2017_Apr_20_1417,59.9987491458,FEMA4ImagesEEG,001,200192,
AFNE01.JPG,AFNE01.JPG,AFNE01.JPG,AFNE01.JPG,AFNE01.JPG,AFNE01.JPG,0,6,6,6,,,,,,,,,,,,,,,,,,,,,,,AFSA03.jpg,AFSA01.jpg,AFNE15.jpg,AFNE20.jpg,AFNE20.jpg,FN,3,num_4,16,num_4,0.850125360885,,,2017_Apr_20_1417,59.9987491458,FEMA4ImagesEEG,001,200192,
AFNE01.JPG,AFNE01.JPG,AFNE01.JPG,AFNE01.JPG,AFNE01.JPG,AFNE01.JPG,0,7,7,1,,,,,,,,,,,,,,,,,,,,,,,AFSA08.jpg,AFNE14.jpg,AFSA03.jpg,AFNE04.jpg,AFNE04.jpg,FN,3,num_4,32,num_8,0.816794155107,,,2017_Apr_20_1417,59.9987491458,FEMA4ImagesEEG,001,200192,
AFNE01.JPG,AFNE01.JPG,AFNE01.JPG,AFNE01.JPG,AFNE01.JPG,AFNE01.JPG,0,8,8,9,,,,,,,,,,,,,,,,,,,,,,,AFNE19.jpg,AFSA04.jpg,AFSA15.jpg,AFNE04.jpg,AFNE04.jpg,FN,3,num_4,16,num_4,0.600159599737,,,2017_Apr_20_1417,59.9987491458,FEMA4ImagesEEG,001,200192,
AFNE01.JPG,AFNE01.JPG,AFNE01.JPG,AFNE01.JPG,AFNE01.JPG,AFNE01.JPG,0,9,9,7,,,,,,,,,,,,,,,,,,,,,,,AFSA19.jpg,AFNE03.jpg,AFNE08.jpg,AFSA20.jpg,AFSA19.jpg,FS,4,num_8,32,num_4,0.750136875373,,,2017_Apr_20_1417,59.9987491458,FEMA4ImagesEEG,001,200192,
AFNE01.JPG,AFNE01.JPG,AFNE01.JPG,AFNE01.JPG,AFNE01.JPG,AFNE01.JPG,1,0,10,3,,,,,,,,,,,,,,,,,,,,,,,AFSA01.jpg,AFSA15.jpg,AFNE03.jpg,AFNE13.jpg,AFNE03.jpg,FN,3,num_2,16,num_2,0.766768800677,,,2017_Apr_20_1417,59.9987491458,FEMA4ImagesEEG,001,200192,
AFNE01.JPG,AFNE01.JPG,AFNE01.JPG,AFNE01.JPG,AFNE01.JPG,AFNE01.JPG,1,1,11,5,,,,,,,,,,,,,,,,,,,,,,,AFSA11.jpg,AFNE07.jpg,AFNE08.jpg,AFSA18.jpg,AFSA18.jpg,FS,4,num_4,32,num_2,1.56677450985,,,2017_Apr_20_1417,59.9987491458,FEMA4ImagesEEG,001,200192,
AFNE01.JPG,AFNE01.JPG,AFNE01.JPG,AFNE01.JPG,AFNE01.JPG,AFNE01.JPG,1,2,12,9,,,,,,,,,,,,,,,,,,,,,,,AFSA01.jpg,AFSA11.jpg,AFNE17.jpg,AFNE11.jpg,AFSA01.jpg,FS,4,num_8,32,num_2,1.33374409319,,,2017_Apr_20_1417,59.9987491458,FEMA4ImagesEEG,001,200192,
AFNE01.JPG,AFNE01.JPG,AFNE01.JPG,AFNE01.JPG,AFNE01.JPG,AFNE01.JPG,1,3,13,8,,,,,,,,,,,,,,,,,,,,,,,AFSA09.jpg,AFNE10.jpg,AFSA18.jpg,AFNE02.jpg,AFSA18.jpg,FS,4,num_2,16,num_2,0.983416506322,,,2017_Apr_20_1417,59.9987491458,FEMA4ImagesEEG,001,200192,
AFNE01.JPG,AFNE01.JPG,AFNE01.JPG,AFNE01.JPG,AFNE01.JPG,AFNE01.JPG,1,4,14,4,,,,,,,,,,,,,,,,,,,,,,,AFSA05.jpg,AFNE13.jpg,AFSA18.jpg,AFNE19.jpg,AFSA05.jpg,FS,4,num_8,32,num_2,0.883495055372,,,2017_Apr_20_1417,59.9987491458,FEMA4ImagesEEG,001,200192,
AFNE01.JPG,AFNE01.JPG,AFNE01.JPG,AFNE01.JPG,AFNE01.JPG,AFNE01.JPG,1,5,15,0,,,,,,,,,,,,,,,,,,,,,,,AFSA01.jpg,AFSA20.jpg,AFNE10.jpg,AFNE12.jpg,AFSA20.jpg,FS,4,num_6,16,num_6,1.21673526743,,,2017_Apr_20_1417,59.9987491458,FEMA4ImagesEEG,001,200192,
AFNE01.JPG,AFNE01.JPG,AFNE01.JPG,AFNE01.JPG,AFNE01.JPG,AFNE01.JPG,1,6,16,6,,,,,,,,,,,,,,,,,,,,,,,AFSA15.jpg,AFSA08.jpg,AFNE18.jpg,AFNE16.jpg,AFSA15.jpg,FS,4,num_8,32,num_4,1.06673714373,,,2017_Apr_20_1417,59.9987491458,FEMA4ImagesEEG,001,200192,
AFNE01.JPG,AFNE01.JPG,AFNE01.JPG,AFNE01.JPG,AFNE01.JPG,AFNE01.JPG,1,7,17,2,,,,,,,,,,,,,,,,,,,,,,,AFSA08.jpg,AFNE10.jpg,AFSA12.jpg,AFNE01.jpg,AFSA12.jpg,FS,4,num_2,16,num_2,0.66675176943,,,2017_Apr_20_1417,59.9987491458,FEMA4ImagesEEG,001,200192,
AFNE01.JPG,AFNE01.JPG,AFNE01.JPG,AFNE01.JPG,AFNE01.JPG,AFNE01.JPG,1,8,18,7,,,,,,,,,,,,,,,,,,,,,,,AFSA15.jpg,AFNE15.jpg,AFSA19.jpg,AFNE16.jpg,AFNE15.jpg,FN,3,num_6,32,num_2,0.850102588418,,,2017_Apr_20_1417,59.9987491458,FEMA4ImagesEEG,001,200192,
AFNE01.JPG,AFNE01.JPG,AFNE01.JPG,AFNE01.JPG,AFNE01.JPG,AFNE01.JPG,1,9,19,1,,,,,,,,,,,,,,,,,,,,,,,AFNE08.jpg,AFNE05.jpg,AFSA16.jpg,AFSA04.jpg,AFSA16.jpg,FS,4,num_2,16,num_2,0.683448483993,,,2017_Apr_20_1417,59.9987491458,FEMA4ImagesEEG,001,200192,
AFNE01.JPG,AFNE01.JPG,AFNE01.JPG,AFNE01.JPG,AFNE01.JPG,AFNE01.JPG,2,0,20,0,,,,,,,,,,,,,,,,,,,,,,,AFNE17.jpg,AFSA01.jpg,AFNE19.jpg,AFSA11.jpg,AFNE17.jpg,FN,3,num_8,32,num_6,0.816819814208,,,2017_Apr_20_1417,59.9987491458,FEMA4ImagesEEG,001,200192,
AFNE01.JPG,AFNE01.JPG,AFNE01.JPG,AFNE01.JPG,AFNE01.JPG,AFNE01.JPG,2,1,21,7,,,,,,,,,,,,,,,,,,,,,,,AFSA20.jpg,AFNE11.jpg,AFSA17.jpg,AFNE09.jpg,AFSA17.jpg,FS,4,num_2,16,num_2,0.583458715584,,,2017_Apr_20_1417,59.9987491458,FEMA4ImagesEEG,001,200192,
AFNE01.JPG,AFNE01.JPG,AFNE01.JPG,AFNE01.JPG,AFNE01.JPG,AFNE01.JPG,2,2,22,9,,,,,,,,,,,,,,,,,,,,,,,AFSA02.jpg,AFNE02.jpg,AFNE06.jpg,AFSA08.jpg,AFSA02.jpg,FS,4,num_8,32,num_2,0.616841239564,,,2017_Apr_20_1417,59.9987491458,FEMA4ImagesEEG,001,200192,
AFNE01.JPG,AFNE01.JPG,AFNE01.JPG,AFNE01.JPG,AFNE01.JPG,AFNE01.JPG,2,3,23,6,,,,,,,,,,,,,,,,,,,,,,,AFSA02.jpg,AFNE15.jpg,AFSA18.jpg,AFNE02.jpg,AFNE15.jpg,FN,3,num_6,16,num_6,0.483503586962,,,2017_Apr_20_1417,59.9987491458,FEMA4ImagesEEG,001,200192,
AFNE01.JPG,AFNE01.JPG,AFNE01.JPG,AFNE01.JPG,AFNE01.JPG,AFNE01.JPG,2,4,24,4,,,,,,,,,,,,,,,,,,,,,,,AFNE20.jpg,AFNE14.jpg,AFSA15.jpg,AFSA11.jpg,AFNE14.jpg,FN,3,num_6,32,num_2,0.833740404691,,,2017_Apr_20_1417,59.9987491458,FEMA4ImagesEEG,001,200192,
AFNE01.JPG,AFNE01.JPG,AFNE01.JPG,AFNE01.JPG,AFNE01.JPG,AFNE01.JPG,2,5,25,2,,,,,,,,,,,,,,,,,,,,,,,AFNE18.jpg,AFSA03.jpg,AFSA14.jpg,AFNE07.jpg,AFNE18.jpg,FN,3,num_8,32,num_4,1.93338473712,,,2017_Apr_20_1417,59.9987491458,FEMA4ImagesEEG,001,200192,
AFNE01.JPG,AFNE01.JPG,AFNE01.JPG,AFNE01.JPG,AFNE01.JPG,AFNE01.JPG,2,6,26,5,,,,,,,,,,,,,,,,,,,,,,,AFSA03.jpg,AFSA02.jpg,AFNE02.jpg,AFNE12.jpg,AFSA03.jpg,FS,4,num_8,32,num_6,0.683429239667,,,2017_Apr_20_1417,59.9987491458,FEMA4ImagesEEG,001,200192,
AFNE01.JPG,AFNE01.JPG,AFNE01.JPG,AFNE01.JPG,AFNE01.JPG,AFNE01.JPG,2,7,27,3,,,,,,,,,,,,,,,,,,,,,,,AFNE15.jpg,AFSA10.jpg,AFNE01.jpg,AFSA19.jpg,AFNE01.jpg,FN,3,num_2,32,num_8,0.700074956694,,,2017_Apr_20_1417,59.9987491458,FEMA4ImagesEEG,001,200192,
AFNE01.JPG,AFNE01.JPG,AFNE01.JPG,AFNE01.JPG,AFNE01.JPG,AFNE01.JPG,2,8,28,8,,,,,,,,,,,,,,,,,,,,,,,AFSA20.jpg,AFSA17.jpg,AFNE20.jpg,AFNE12.jpg,AFNE20.jpg,FN,3,num_2,32,num_4,1.2333918896,,,2017_Apr_20_1417,59.9987491458,FEMA4ImagesEEG,001,200192,
AFNE01.JPG,AFNE01.JPG,AFNE01.JPG,AFNE01.JPG,AFNE01.JPG,AFNE01.JPG,2,9,29,1,,,,,,,,,,,,,,,,,,,,,,,AFNE04.jpg,AFSA09.jpg,AFNE18.jpg,AFSA20.jpg,AFNE04.jpg,FN,3,num_8,16,num_8,0.916727152711,,,2017_Apr_20_1417,59.9987491458,FEMA4ImagesEEG,001,200192,
AFNE01.JPG,AFNE01.JPG,AFNE01.JPG,AFNE01.JPG,AFNE01.JPG,AFNE01.JPG,3,0,30,6,,,,,,,,,,,,,,,,,,,,,,,AFSA10.jpg,AFNE07.jpg,AFNE05.jpg,AFSA15.jpg,AFNE07.jpg,FN,3,num_6,32,num_2,0.76679221465,,,2017_Apr_20_1417,59.9987491458,FEMA4ImagesEEG,001,200192,
AFNE01.JPG,AFNE01.JPG,AFNE01.JPG,AFNE01.JPG,AFNE01.JPG,AFNE01.JPG,3,1,31,0,,,,,,,,,,,,,,,,,,,,,,,AFNE05.jpg,AFNE15.jpg,AFSA20.jpg,AFSA13.jpg,AFSA13.jpg,FS,4,num_4,32,num_6,0.900117037701,,,2017_Apr_20_1417,59.9987491458,FEMA4ImagesEEG,001,200192,
AFNE01.JPG,AFNE01.JPG,AFNE01.JPG,AFNE01.JPG,AFNE01.JPG,AFNE01.JPG,3,2,32,9,,,,,,,,,,,,,,,,,,,,,,,AFSA06.jpg,AFNE19.jpg,AFSA17.jpg,AFNE04.jpg,AFNE19.jpg,FN,3,num_6,32,num_4,0.583504581242,,,2017_Apr_20_1417,59.9987491458,FEMA4ImagesEEG,001,200192,
AFNE01.JPG,AFNE01.JPG,AFNE01.JPG,AFNE01.JPG,AFNE01.JPG,AFNE01.JPG,3,3,33,4,,,,,,,,,,,,,,,,,,,,,,,AFNE19.jpg,AFSA19.jpg,AFNE14.jpg,AFSA06.jpg,AFNE14.jpg,FN,3,num_2,32,num_8,0.933439904242,,,2017_Apr_20_1417,59.9987491458,FEMA4ImagesEEG,001,200192,
AFNE01.JPG,AFNE01.JPG,AFNE01.JPG,AFNE01.JPG,AFNE01.JPG,AFNE01.JPG,3,4,34,1,,,,,,,,,,,,,,,,,,,,,,,AFNE08.jpg,AFSA20.jpg,AFNE17.jpg,AFSA08.jpg,AFNE17.jpg,FN,3,num_2,16,num_2,0.783535757102,,,2017_Apr_20_1417,59.9987491458,FEMA4ImagesEEG,001,200192,
AFNE01.JPG,AFNE01.JPG,AFNE01.JPG,AFNE01.JPG,AFNE01.JPG,AFNE01.JPG,3,5,35,5,,,,,,,,,,,,,,,,,,,,,,,AFNE11.jpg,AFSA03.jpg,AFSA19.jpg,AFNE16.jpg,AFSA19.jpg,FS,4,num_2,16,num_2,0.783480269252,,,2017_Apr_20_1417,59.9987491458,FEMA4ImagesEEG,001,200192,
AFNE01.JPG,AFNE01.JPG,AFNE01.JPG,AFNE01.JPG,AFNE01.JPG,AFNE01.JPG,3,6,36,7,,,,,,,,,,,,,,,,,,,,,,,AFNE14.jpg,AFSA15.jpg,AFSA11.jpg,AFNE09.jpg,AFNE14.jpg,FN,3,num_8,32,num_4,0.866805717757,,,2017_Apr_20_1417,59.9987491458,FEMA4ImagesEEG,001,200192,
AFNE01.JPG,AFNE01.JPG,AFNE01.JPG,AFNE01.JPG,AFNE01.JPG,AFNE01.JPG,3,7,37,2,,,,,,,,,,,,,,,,,,,,,,,AFNE16.jpg,AFNE13.jpg,AFSA03.jpg,AFSA16.jpg,AFSA16.jpg,FS,4,num_4,32,num_8,0.899980082118,,,2017_Apr_20_1417,59.9987491458,FEMA4ImagesEEG,001,200192,
AFNE01.JPG,AFNE01.JPG,AFNE01.JPG,AFNE01.JPG,AFNE01.JPG,AFNE01.JPG,3,8,38,8,,,,,,,,,,,,,,,,,,,,,,,AFSA18.jpg,AFNE20.jpg,AFSA02.jpg,AFNE02.jpg,AFSA18.jpg,FS,4,num_8,32,num_2,1.01674578764,,,2017_Apr_20_1417,59.9987491458,FEMA4ImagesEEG,001,200192,
AFNE01.JPG,AFNE01.JPG,AFNE01.JPG,AFNE01.JPG,AFNE01.JPG,AFNE01.JPG,3,9,39,3,,,,,,,,,,,,,,,,,,,,,,,AFNE01.jpg,AFSA20.jpg,AFSA11.jpg,AFNE18.jpg,AFNE01.jpg,FN,3,num_8,32,num_6,0.966739677591,,,2017_Apr_20_1417,59.9987491458,FEMA4ImagesEEG,001,200192,
AFNE01.JPG,AFNE01.JPG,AFNE01.JPG,AFNE01.JPG,AFNE01.JPG,AFNE01.JPG,4,0,40,2,,,,,,,,,,,,,,,,,,,,,,,AFSA04.jpg,AFSA20.jpg,AFNE05.jpg,AFNE17.jpg,AFNE05.jpg,FN,3,num_2,16,num_2,1.13340340409,,,2017_Apr_20_1417,59.9987491458,FEMA4ImagesEEG,001,200192,
AFNE01.JPG,AFNE01.JPG,AFNE01.JPG,AFNE01.JPG,AFNE01.JPG,AFNE01.JPG,4,1,41,4,,,,,,,,,,,,,,,,,,,,,,,AFSA11.jpg,AFSA02.jpg,AFNE06.jpg,AFNE11.jpg,AFNE06.jpg,FN,3,num_2,16,num_2,1.31670675369,,,2017_Apr_20_1417,59.9987491458,FEMA4ImagesEEG,001,200192,
AFNE01.JPG,AFNE01.JPG,AFNE01.JPG,AFNE01.JPG,AFNE01.JPG,AFNE01.JPG,4,2,42,7,,,,,,,,,,,,,,,,,,,,,,,AFSA02.jpg,AFNE09.jpg,AFNE03.jpg,AFSA01.jpg,AFNE03.jpg,FN,3,num_2,16,num_2,0.666807578062,,,2017_Apr_20_1417,59.9987491458,FEMA4ImagesEEG,001,200192,
AFNE01.JPG,AFNE01.JPG,AFNE01.JPG,AFNE01.JPG,AFNE01.JPG,AFNE01.JPG,4,3,43,5,,,,,,,,,,,,,,,,,,,,,,,AFNE12.jpg,AFNE17.jpg,AFSA06.jpg,AFSA09.jpg,AFNE12.jpg,FN,3,num_8,16,num_8,0.667189257569,,,2017_Apr_20_1417,59.9987491458,FEMA4ImagesEEG,001,200192,
AFNE01.JPG,AFNE01.JPG,AFNE01.JPG,AFNE01.JPG,AFNE01.JPG,AFNE01.JPG,4,4,44,9,,,,,,,,,,,,,,,,,,,,,,,AFSA05.jpg,AFSA16.jpg,AFNE11.jpg,AFNE10.jpg,AFSA16.jpg,FS,4,num_6,32,num_2,0.566823582922,,,2017_Apr_20_1417,59.9987491458,FEMA4ImagesEEG,001,200192,
AFNE01.JPG,AFNE01.JPG,AFNE01.JPG,AFNE01.JPG,AFNE01.JPG,AFNE01.JPG,4,5,45,6,,,,,,,,,,,,,,,,,,,,,,,AFSA16.jpg,AFNE07.jpg,AFSA19.jpg,AFNE16.jpg,AFSA16.jpg,FS,4,num_8,32,num_2,0.700141670473,,,2017_Apr_20_1417,59.9987491458,FEMA4ImagesEEG,001,200192,
AFNE01.JPG,AFNE01.JPG,AFNE01.JPG,AFNE01.JPG,AFNE01.JPG,AFNE01.JPG,4,6,46,1,,,,,,,,,,,,,,,,,,,,,,,AFSA07.jpg,AFNE01.jpg,AFSA16.jpg,AFNE11.jpg,AFNE01.jpg,FN,3,num_6,32,num_4,0.983495728869,,,2017_Apr_20_1417,59.9987491458,FEMA4ImagesEEG,001,200192,
AFNE01.JPG,AFNE01.JPG,AFNE01.JPG,AFNE01.JPG,AFNE01.JPG,AFNE01.JPG,4,7,47,8,,,,,,,,,,,,,,,,,,,,,,,AFSA13.jpg,AFNE20.jpg,AFNE07.jpg,AFSA01.jpg,AFSA13.jpg,FS,4,num_8,32,num_6,0.700180479849,,,2017_Apr_20_1417,59.9987491458,FEMA4ImagesEEG,001,200192,
AFNE01.JPG,AFNE01.JPG,AFNE01.JPG,AFNE01.JPG,AFNE01.JPG,AFNE01.JPG,4,8,48,0,,,,,,,,,,,,,,,,,,,,,,,AFNE10.jpg,AFSA13.jpg,AFSA08.jpg,AFNE07.jpg,AFSA13.jpg,FS,4,num_6,32,num_8,0.650173086848,,,2017_Apr_20_1417,59.9987491458,FEMA4ImagesEEG,001,200192,
AFNE01.JPG,AFNE01.JPG,AFNE01.JPG,AFNE01.JPG,AFNE01.JPG,AFNE01.JPG,4,9,49,3,,,,,,,,,,,,,,,,,,,,,,,AFNE15.jpg,AFSA07.jpg,AFNE12.jpg,AFSA10.jpg,AFSA10.jpg,FS,4,num_4,32,num_2,0.850161925133,,,2017_Apr_20_1417,59.9987491458,FEMA4ImagesEEG,001,200192,
AFNE01.JPG,AFNE01.JPG,AFNE01.JPG,AFNE01.JPG,AFNE01.JPG,AFNE01.JPG,5,0,50,6,,,,,,,,,,,,,,,,,,,,,,,AFSA07.jpg,AFNE16.jpg,AFSA13.jpg,AFNE04.jpg,AFSA07.jpg,FS,4,num_8,16,num_8,0.650155446201,,,2017_Apr_20_1417,59.9987491458,FEMA4ImagesEEG,001,200192,
AFNE01.JPG,AFNE01.JPG,AFNE01.JPG,AFNE01.JPG,AFNE01.JPG,AFNE01.JPG,5,1,51,5,,,,,,,,,,,,,,,,,,,,,,,AFSA15.jpg,AFNE14.jpg,AFNE15.jpg,AFSA02.jpg,AFSA15.jpg,FS,4,num_8,32,num_2,0.533493339375,,,2017_Apr_20_1417,59.9987491458,FEMA4ImagesEEG,001,200192,
AFNE01.JPG,AFNE01.JPG,AFNE01.JPG,AFNE01.JPG,AFNE01.JPG,AFNE01.JPG,5,2,52,0,,,,,,,,,,,,,,,,,,,,,,,AFSA18.jpg,AFSA06.jpg,AFNE10.jpg,AFNE18.jpg,AFNE10.jpg,FN,3,num_2,32,num_6,1.76667482412,,,2017_Apr_20_1417,59.9987491458,FEMA4ImagesEEG,001,200192,
AFNE01.JPG,AFNE01.JPG,AFNE01.JPG,AFNE01.JPG,AFNE01.JPG,AFNE01.JPG,5,3,53,1,,,,,,,,,,,,,,,,,,,,,,,AFNE13.jpg,AFSA04.jpg,AFNE11.jpg,AFSA19.jpg,AFNE11.jpg,FN,3,num_2,32,num_4,0.816812757985,,,2017_Apr_20_1417,59.9987491458,FEMA4ImagesEEG,001,200192,
AFNE01.JPG,AFNE01.JPG,AFNE01.JPG,AFNE01.JPG,AFNE01.JPG,AFNE01.JPG,5,4,54,8,,,,,,,,,,,,,,,,,,,,,,,AFNE10.jpg,AFNE11.jpg,AFSA08.jpg,AFSA13.jpg,AFNE11.jpg,FN,3,num_6,16,num_6,0.816733535437,,,2017_Apr_20_1417,59.9987491458,FEMA4ImagesEEG,001,200192,
AFNE01.JPG,AFNE01.JPG,AFNE01.JPG,AFNE01.JPG,AFNE01.JPG,AFNE01.JPG,5,5,55,7,,,,,,,,,,,,,,,,,,,,,,,AFNE15.jpg,AFSA13.jpg,AFNE03.jpg,AFSA04.jpg,AFSA04.jpg,FS,4,num_4,32,num_8,1.21677792573,,,2017_Apr_20_1417,59.9987491458,FEMA4ImagesEEG,001,200192,
AFNE01.JPG,AFNE01.JPG,AFNE01.JPG,AFNE01.JPG,AFNE01.JPG,AFNE01.JPG,5,6,56,4,,,,,,,,,,,,,,,,,,,,,,,AFNE01.jpg,AFSA07.jpg,AFSA05.jpg,AFNE09.jpg,AFNE09.jpg,FN,3,num_4,16,num_4,1.18341592897,,,2017_Apr_20_1417,59.9987491458,FEMA4ImagesEEG,001,200192,
AFNE01.JPG,AFNE01.JPG,AFNE01.JPG,AFNE01.JPG,AFNE01.JPG,AFNE01.JPG,5,7,57,3,,,,,,,,,,,,,,,,,,,,,,,AFSA08.jpg,AFNE16.jpg,AFNE13.jpg,AFSA01.jpg,AFSA08.jpg,FS,4,num_8,32,num_6,1.0667381059,,,2017_Apr_20_1417,59.9987491458,FEMA4ImagesEEG,001,200192,
AFNE01.JPG,AFNE01.JPG,AFNE01.JPG,AFNE01.JPG,AFNE01.JPG,AFNE01.JPG,5,8,58,2,,,,,,,,,,,,,,,,,,,,,,,AFNE07.jpg,AFSA10.jpg,AFNE02.jpg,AFSA12.jpg,AFNE07.jpg,FN,3,num_8,32,num_4,2.03339759877,,,2017_Apr_20_1417,59.9987491458,FEMA4ImagesEEG,001,200192,
AFNE01.JPG,AFNE01.JPG,AFNE01.JPG,AFNE01.JPG,AFNE01.JPG,AFNE01.JPG,5,9,59,9,,,,,,,,,,,,,,,,,,,,,,,AFSA06.jpg,AFSA08.jpg,AFNE04.jpg,AFNE20.jpg,AFSA08.jpg,FS,4,num_6,32,num_4,1.13341366773,,,2017_Apr_20_1417,59.9987491458,FEMA4ImagesEEG,001,200192,
,,,,,,,,,,,,,,,,,,,,,,,,,,,,,,,,,,,,,,,,,,,space,46.5298163865,2017_Apr_20_1417,59.9987491458,FEMA4ImagesEEG,001,200192,
AFNE01.JPG,AFNE01.JPG,AFNE01.JPG,AFNE01.JPG,AFNE01.JPG,AFNE01.JPG,,,,,0,0,0,3,,,,,,,,,,,,,,,,,,,AMNE11.jpg,AMSA13.jpg,AMSA09.jpg,AMNE12.jpg,AMNE11.jpg,MN,1,num_8,32,num_4,0.9001340369,,,2017_Apr_20_1417,59.9987491458,FEMA4ImagesEEG,001,200192,
AFNE01.JPG,AFNE01.JPG,AFNE01.JPG,AFNE01.JPG,AFNE01.JPG,AFNE01.JPG,,,,,0,1,1,7,,,,,,,,,,,,,,,,,,,AMNE03.jpg,AMNE12.jpg,AMSA14.jpg,AMSA15.jpg,AMNE03.jpg,MN,1,num_8,32,num_4,0.850148774858,,,2017_Apr_20_1417,59.9987491458,FEMA4ImagesEEG,001,200192,
AFNE01.JPG,AFNE01.JPG,AFNE01.JPG,AFNE01.JPG,AFNE01.JPG,AFNE01.JPG,,,,,0,2,2,0,,,,,,,,,,,,,,,,,,,AMSA01.jpg,AMNE18.jpg,AMNE13.jpg,AMSA03.jpg,AMNE18.jpg,MN,1,num_6,16,num_6,0.683521612547,,,2017_Apr_20_1417,59.9987491458,FEMA4ImagesEEG,001,200192,
AFNE01.JPG,AFNE01.JPG,AFNE01.JPG,AFNE01.JPG,AFNE01.JPG,AFNE01.JPG,,,,,0,3,3,9,,,,,,,,,,,,,,,,,,,AMNE02.jpg,AMSA09.jpg,AMSA03.jpg,AMNE03.jpg,AMNE02.jpg,MN,1,num_8,32,num_6,0.850119266834,,,2017_Apr_20_1417,59.9987491458,FEMA4ImagesEEG,001,200192,
AFNE01.JPG,AFNE01.JPG,AFNE01.JPG,AFNE01.JPG,AFNE01.JPG,AFNE01.JPG,,,,,0,4,4,2,,,,,,,,,,,,,,,,,,,AMSA11.jpg,AMSA20.jpg,AMNE15.jpg,AMNE08.jpg,AMNE15.jpg,MN,1,num_2,32,num_4,0.866817585134,,,2017_Apr_20_1417,59.9987491458,FEMA4ImagesEEG,001,200192,
AFNE01.JPG,AFNE01.JPG,AFNE01.JPG,AFNE01.JPG,AFNE01.JPG,AFNE01.JPG,,,,,0,5,5,1,,,,,,,,,,,,,,,,,,,AMNE09.jpg,AMSA08.jpg,AMNE20.jpg,AMSA09.jpg,AMSA09.jpg,MS,2,num_4,32,num_8,0.850104192097,,,2017_Apr_20_1417,59.9987491458,FEMA4ImagesEEG,001,200192,
AFNE01.JPG,AFNE01.JPG,AFNE01.JPG,AFNE01.JPG,AFNE01.JPG,AFNE01.JPG,,,,,0,6,6,6,,,,,,,,,,,,,,,,,,,AMNE03.jpg,AMSA13.jpg,AMSA18.jpg,AMNE17.jpg,AMNE03.jpg,MN,1,num_8,32,num_4,0.666746637609,,,2017_Apr_20_1417,59.9987491458,FEMA4ImagesEEG,001,200192,
AFNE01.JPG,AFNE01.JPG,AFNE01.JPG,AFNE01.JPG,AFNE01.JPG,AFNE01.JPG,,,,,0,7,7,5,,,,,,,,,,,,,,,,,,,AMNE14.jpg,AMSA10.jpg,AMSA02.jpg,AMNE11.jpg,AMSA02.jpg,MS,2,num_2,16,num_2,1.35009408882,,,2017_Apr_20_1417,59.9987491458,FEMA4ImagesEEG,001,200192,
AFNE01.JPG,AFNE01.JPG,AFNE01.JPG,AFNE01.JPG,AFNE01.JPG,AFNE01.JPG,,,,,0,8,8,4,,,,,,,,,,,,,,,,,,,AMNE18.jpg,AMSA11.jpg,AMSA18.jpg,AMNE01.jpg,AMSA11.jpg,MS,2,num_6,32,num_2,1.11682343861,,,2017_Apr_20_1417,59.9987491458,FEMA4ImagesEEG,001,200192,
AFNE01.JPG,AFNE01.JPG,AFNE01.JPG,AFNE01.JPG,AFNE01.JPG,AFNE01.JPG,,,,,0,9,9,8,,,,,,,,,,,,,,,,,,,AMSA07.jpg,AMNE11.jpg,AMNE16.jpg,AMSA06.jpg,AMSA06.jpg,MS,2,num_4,32,num_6,0.883429303824,,,2017_Apr_20_1417,59.9987491458,FEMA4ImagesEEG,001,200192,
AFNE01.JPG,AFNE01.JPG,AFNE01.JPG,AFNE01.JPG,AFNE01.JPG,AFNE01.JPG,,,,,1,0,10,9,,,,,,,,,,,,,,,,,,,AMNE11.jpg,AMSA03.jpg,AMNE03.jpg,AMSA05.jpg,AMSA03.jpg,MS,2,num_6,16,num_6,1.00009301439,,,2017_Apr_20_1417,59.9987491458,FEMA4ImagesEEG,001,200192,
AFNE01.JPG,AFNE01.JPG,AFNE01.JPG,AFNE01.JPG,AFNE01.JPG,AFNE01.JPG,,,,,1,1,11,7,,,,,,,,,,,,,,,,,,,AMNE05.jpg,AMSA03.jpg,AMSA06.jpg,AMNE03.jpg,AMSA06.jpg,MS,2,num_2,16,num_2,0.883441171143,,,2017_Apr_20_1417,59.9987491458,FEMA4ImagesEEG,001,200192,
AFNE01.JPG,AFNE01.JPG,AFNE01.JPG,AFNE01.JPG,AFNE01.JPG,AFNE01.JPG,,,,,1,2,12,1,,,,,,,,,,,,,,,,,,,AMSA07.jpg,AMSA02.jpg,AMNE03.jpg,AMNE07.jpg,AMNE03.jpg,MN,1,num_2,32,num_4,0.933425471012,,,2017_Apr_20_1417,59.9987491458,FEMA4ImagesEEG,001,200192,
AFNE01.JPG,AFNE01.JPG,AFNE01.JPG,AFNE01.JPG,AFNE01.JPG,AFNE01.JPG,,,,,1,3,13,3,,,,,,,,,,,,,,,,,,,AMSA02.jpg,AMNE20.jpg,AMSA08.jpg,AMNE09.jpg,AMNE09.jpg,MN,1,num_4,16,num_4,1.06675221847,,,2017_Apr_20_1417,59.9987491458,FEMA4ImagesEEG,001,200192,
AFNE01.JPG,AFNE01.JPG,AFNE01.JPG,AFNE01.JPG,AFNE01.JPG,AFNE01.JPG,,,,,1,4,14,2,,,,,,,,,,,,,,,,,,,AMSA18.jpg,AMSA10.jpg,AMNE09.jpg,AMNE05.jpg,AMNE05.jpg,MN,1,num_4,16,num_4,1.26676671591,,,2017_Apr_20_1417,59.9987491458,FEMA4ImagesEEG,001,200192,
AFNE01.JPG,AFNE01.JPG,AFNE01.JPG,AFNE01.JPG,AFNE01.JPG,AFNE01.JPG,,,,,1,5,15,6,,,,,,,,,,,,,,,,,,,AMNE20.jpg,AMNE04.jpg,AMSA12.jpg,AMSA14.jpg,AMSA12.jpg,MS,2,num_2,16,num_2,0.883426417189,,,2017_Apr_20_1417,59.9987491458,FEMA4ImagesEEG,001,200192,
AFNE01.JPG,AFNE01.JPG,AFNE01.JPG,AFNE01.JPG,AFNE01.JPG,AFNE01.JPG,,,,,1,6,16,8,,,,,,,,,,,,,,,,,,,AMSA08.jpg,AMNE03.jpg,AMSA02.jpg,AMNE09.jpg,AMSA02.jpg,MS,2,num_2,16,num_2,1.08341846283,,,2017_Apr_20_1417,59.9987491458,FEMA4ImagesEEG,001,200192,
AFNE01.JPG,AFNE01.JPG,AFNE01.JPG,AFNE01.JPG,AFNE01.JPG,AFNE01.JPG,,,,,1,7,17,5,,,,,,,,,,,,,,,,,,,AMSA04.jpg,AMNE13.jpg,AMNE01.jpg,AMSA07.jpg,AMNE01.jpg,MN,1,num_2,32,num_6,1.18344800291,,,2017_Apr_20_1417,59.9987491458,FEMA4ImagesEEG,001,200192,
AFNE01.JPG,AFNE01.JPG,AFNE01.JPG,AFNE01.JPG,AFNE01.JPG,AFNE01.JPG,,,,,1,8,18,4,,,,,,,,,,,,,,,,,,,AMSA06.jpg,AMSA04.jpg,AMNE17.jpg,AMNE15.jpg,AMSA04.jpg,MS,2,num_6,32,num_4,1.63342569547,,,2017_Apr_20_1417,59.9987491458,FEMA4ImagesEEG,001,200192,
AFNE01.JPG,AFNE01.JPG,AFNE01.JPG,AFNE01.JPG,AFNE01.JPG,AFNE01.JPG,,,,,1,9,19,0,,,,,,,,,,,,,,,,,,,AMNE15.jpg,AMNE16.jpg,AMSA19.jpg,AMSA14.jpg,AMSA19.jpg,MS,2,num_2,32,num_6,0.966780090705,,,2017_Apr_20_1417,59.9987491458,FEMA4ImagesEEG,001,200192,
AFNE01.JPG,AFNE01.JPG,AFNE01.JPG,AFNE01.JPG,AFNE01.JPG,AFNE01.JPG,,,,,2,0,20,1,,,,,,,,,,,,,,,,,,,AMNE17.jpg,AMSA10.jpg,AMSA11.jpg,AMNE15.jpg,AMSA11.jpg,MS,2,num_2,32,num_8,1.21660472656,,,2017_Apr_20_1417,59.9987491458,FEMA4ImagesEEG,001,200192,
AFNE01.JPG,AFNE01.JPG,AFNE01.JPG,AFNE01.JPG,AFNE01.JPG,AFNE01.JPG,,,,,2,1,21,8,,,,,,,,,,,,,,,,,,,AMNE04.jpg,AMSA06.jpg,AMSA08.jpg,AMNE01.jpg,AMNE01.jpg,MN,1,num_4,32,num_2,1.06675414293,,,2017_Apr_20_1417,59.9987491458,FEMA4ImagesEEG,001,200192,
AFNE01.JPG,AFNE01.JPG,AFNE01.JPG,AFNE01.JPG,AFNE01.JPG,AFNE01.JPG,,,,,2,2,22,5,,,,,,,,,,,,,,,,,,,AMNE03.jpg,AMNE11.jpg,AMSA10.jpg,AMSA14.jpg,AMSA10.jpg,MS,2,num_2,16,num_2,0.766765914042,,,2017_Apr_20_1417,59.9987491458,FEMA4ImagesEEG,001,200192,
AFNE01.JPG,AFNE01.JPG,AFNE01.JPG,AFNE01.JPG,AFNE01.JPG,AFNE01.JPG,,,,,2,3,23,6,,,,,,,,,,,,,,,,,,,AMNE04.jpg,AMNE18.jpg,AMSA01.jpg,AMSA04.jpg,AMSA01.jpg,MS,2,num_2,16,num_2,0.716762690572,,,2017_Apr_20_1417,59.9987491458,FEMA4ImagesEEG,001,200192,
AFNE01.JPG,AFNE01.JPG,AFNE01.JPG,AFNE01.JPG,AFNE01.JPG,AFNE01.JPG,,,,,2,4,24,4,,,,,,,,,,,,,,,,,,,AMSA16.jpg,AMNE15.jpg,AMSA13.jpg,AMNE20.jpg,AMSA13.jpg,MS,2,num_2,32,num_4,0.766819477431,,,2017_Apr_20_1417,59.9987491458,FEMA4ImagesEEG,001,200192,
AFNE01.JPG,AFNE01.JPG,AFNE01.JPG,AFNE01.JPG,AFNE01.JPG,AFNE01.JPG,,,,,2,5,25,7,,,,,,,,,,,,,,,,,,,AMNE01.jpg,AMSA02.jpg,AMNE13.jpg,AMSA20.jpg,AMNE01.jpg,MN,1,num_8,32,num_2,0.916776225786,,,2017_Apr_20_1417,59.9987491458,FEMA4ImagesEEG,001,200192,
AFNE01.JPG,AFNE01.JPG,AFNE01.JPG,AFNE01.JPG,AFNE01.JPG,AFNE01.JPG,,,,,2,6,26,2,,,,,,,,,,,,,,,,,,,AMSA18.jpg,AMNE13.jpg,AMNE05.jpg,AMSA01.jpg,AMNE05.jpg,MN,1,num_2,16,num_2,0.883434435644,,,2017_Apr_20_1417,59.9987491458,FEMA4ImagesEEG,001,200192,
AFNE01.JPG,AFNE01.JPG,AFNE01.JPG,AFNE01.JPG,AFNE01.JPG,AFNE01.JPG,,,,,2,7,27,9,,,,,,,,,,,,,,,,,,,AMSA12.jpg,AMNE16.jpg,AMNE11.jpg,AMSA20.jpg,AMNE11.jpg,MN,1,num_2,32,num_6,1.03344378521,,,2017_Apr_20_1417,59.9987491458,FEMA4ImagesEEG,001,200192,
AFNE01.JPG,AFNE01.JPG,AFNE01.JPG,AFNE01.JPG,AFNE01.JPG,AFNE01.JPG,,,,,2,8,28,0,,,,,,,,,,,,,,,,,,,AMNE16.jpg,AMNE18.jpg,AMSA12.jpg,AMSA11.jpg,AMNE18.jpg,MN,1,num_6,16,num_6,0.71676429431,,,2017_Apr_20_1417,59.9987491458,FEMA4ImagesEEG,001,200192,
AFNE01.JPG,AFNE01.JPG,AFNE01.JPG,AFNE01.JPG,AFNE01.JPG,AFNE01.JPG,,,,,2,9,29,3,,,,,,,,,,,,,,,,,,,AMSA09.jpg,AMNE01.jpg,AMNE05.jpg,AMSA15.jpg,AMSA15.jpg,MS,2,num_4,16,num_4,1.11678366695,,,2017_Apr_20_1417,59.9987491458,FEMA4ImagesEEG,001,200192,
AFNE01.JPG,AFNE01.JPG,AFNE01.JPG,AFNE01.JPG,AFNE01.JPG,AFNE01.JPG,,,,,3,0,30,4,,,,,,,,,,,,,,,,,,,AMNE13.jpg,AMSA15.jpg,AMSA16.jpg,AMNE04.jpg,AMSA16.jpg,MS,2,num_2,16,num_2,0.86672489153,,,2017_Apr_20_1417,59.9987491458,FEMA4ImagesEEG,001,200192,
AFNE01.JPG,AFNE01.JPG,AFNE01.JPG,AFNE01.JPG,AFNE01.JPG,AFNE01.JPG,,,,,3,1,31,1,,,,,,,,,,,,,,,,,,,AMNE19.jpg,AMSA09.jpg,AMNE04.jpg,AMSA16.jpg,AMSA16.jpg,MS,2,num_4,32,num_6,0.733528043318,,,2017_Apr_20_1417,59.9987491458,FEMA4ImagesEEG,001,200192,
AFNE01.JPG,AFNE01.JPG,AFNE01.JPG,AFNE01.JPG,AFNE01.JPG,AFNE01.JPG,,,,,3,2,32,5,,,,,,,,,,,,,,,,,,,AMNE15.jpg,AMNE03.jpg,AMSA02.jpg,AMSA05.jpg,AMNE03.jpg,MN,1,num_6,32,num_4,0.833444362506,,,2017_Apr_20_1417,59.9987491458,FEMA4ImagesEEG,001,200192,
AFNE01.JPG,AFNE01.JPG,AFNE01.JPG,AFNE01.JPG,AFNE01.JPG,AFNE01.JPG,,,,,3,3,33,3,,,,,,,,,,,,,,,,,,,AMSA10.jpg,AMNE05.jpg,AMSA13.jpg,AMNE11.jpg,AMSA10.jpg,MS,2,num_8,32,num_2,0.816823342349,,,2017_Apr_20_1417,59.9987491458,FEMA4ImagesEEG,001,200192,
AFNE01.JPG,AFNE01.JPG,AFNE01.JPG,AFNE01.JPG,AFNE01.JPG,AFNE01.JPG,,,,,3,4,34,9,,,,,,,,,,,,,,,,,,,AMSA05.jpg,AMSA17.jpg,AMNE09.jpg,AMNE01.jpg,AMNE01.jpg,MN,1,num_4,32,num_6,0.816659765434,,,2017_Apr_20_1417,59.9987491458,FEMA4ImagesEEG,001,200192,
AFNE01.JPG,AFNE01.JPG,AFNE01.JPG,AFNE01.JPG,AFNE01.JPG,AFNE01.JPG,,,,,3,5,35,2,,,,,,,,,,,,,,,,,,,AMSA12.jpg,AMNE11.jpg,AMNE03.jpg,AMSA20.jpg,AMNE03.jpg,MN,1,num_2,32,num_4,0.516836075753,,,2017_Apr_20_1417,59.9987491458,FEMA4ImagesEEG,001,200192,
AFNE01.JPG,AFNE01.JPG,AFNE01.JPG,AFNE01.JPG,AFNE01.JPG,AFNE01.JPG,,,,,3,6,36,8,,,,,,,,,,,,,,,,,,,AMNE20.jpg,AMSA03.jpg,AMSA11.jpg,AMNE11.jpg,AMNE20.jpg,MN,1,num_8,32,num_2,0.800094233127,,,2017_Apr_20_1417,59.9987491458,FEMA4ImagesEEG,001,200192,
AFNE01.JPG,AFNE01.JPG,AFNE01.JPG,AFNE01.JPG,AFNE01.JPG,AFNE01.JPG,,,,,3,7,37,0,,,,,,,,,,,,,,,,,,,AMSA11.jpg,AMSA14.jpg,AMNE13.jpg,AMNE09.jpg,AMNE13.jpg,MN,1,num_2,32,num_4,1.10012479959,,,2017_Apr_20_1417,59.9987491458,FEMA4ImagesEEG,001,200192,
AFNE01.JPG,AFNE01.JPG,AFNE01.JPG,AFNE01.JPG,AFNE01.JPG,AFNE01.JPG,,,,,3,8,38,6,,,,,,,,,,,,,,,,,,,AMNE05.jpg,AMSA07.jpg,AMSA09.jpg,AMNE17.jpg,AMNE17.jpg,MN,1,num_4,32,num_6,1.18341464602,,,2017_Apr_20_1417,59.9987491458,FEMA4ImagesEEG,001,200192,
AFNE01.JPG,AFNE01.JPG,AFNE01.JPG,AFNE01.JPG,AFNE01.JPG,AFNE01.JPG,,,,,3,9,39,7,,,,,,,,,,,,,,,,,,,AMNE07.jpg,AMSA13.jpg,AMNE18.jpg,AMSA18.jpg,AMNE18.jpg,MN,1,num_2,32,num_4,0.566835450241,,,2017_Apr_20_1417,59.9987491458,FEMA4ImagesEEG,001,200192,
AFNE01.JPG,AFNE01.JPG,AFNE01.JPG,AFNE01.JPG,AFNE01.JPG,AFNE01.JPG,,,,,4,0,40,3,,,,,,,,,,,,,,,,,,,AMNE19.jpg,AMSA09.jpg,AMNE15.jpg,AMSA03.jpg,AMSA03.jpg,MS,2,num_4,32,num_6,0.850188867189,,,2017_Apr_20_1417,59.9987491458,FEMA4ImagesEEG,001,200192,
AFNE01.JPG,AFNE01.JPG,AFNE01.JPG,AFNE01.JPG,AFNE01.JPG,AFNE01.JPG,,,,,4,1,41,2,,,,,,,,,,,,,,,,,,,AMSA10.jpg,AMNE04.jpg,AMNE18.jpg,AMSA11.jpg,AMSA11.jpg,MS,2,num_4,16,num_4,0.71676686022,,,2017_Apr_20_1417,59.9987491458,FEMA4ImagesEEG,001,200192,
AFNE01.JPG,AFNE01.JPG,AFNE01.JPG,AFNE01.JPG,AFNE01.JPG,AFNE01.JPG,,,,,4,2,42,8,,,,,,,,,,,,,,,,,,,AMSA04.jpg,AMSA20.jpg,AMNE12.jpg,AMNE07.jpg,AMSA04.jpg,MS,2,num_8,32,num_2,1.21670832532,,,2017_Apr_20_1417,59.9987491458,FEMA4ImagesEEG,001,200192,
AFNE01.JPG,AFNE01.JPG,AFNE01.JPG,AFNE01.JPG,AFNE01.JPG,AFNE01.JPG,,,,,4,3,43,1,,,,,,,,,,,,,,,,,,,AMSA15.jpg,AMNE06.jpg,AMNE14.jpg,AMSA13.jpg,AMSA15.jpg,MS,2,num_8,32,num_4,1.06699181057,,,2017_Apr_20_1417,59.9987491458,FEMA4ImagesEEG,001,200192,
AFNE01.JPG,AFNE01.JPG,AFNE01.JPG,AFNE01.JPG,AFNE01.JPG,AFNE01.JPG,,,,,4,4,44,6,,,,,,,,,,,,,,,,,,,AMNE17.jpg,AMSA18.jpg,AMNE15.jpg,AMSA02.jpg,AMSA18.jpg,MS,2,num_6,16,num_6,0.70012852014,,,2017_Apr_20_1417,59.9987491458,FEMA4ImagesEEG,001,200192,
AFNE01.JPG,AFNE01.JPG,AFNE01.JPG,AFNE01.JPG,AFNE01.JPG,AFNE01.JPG,,,,,4,5,45,7,,,,,,,,,,,,,,,,,,,AMSA08.jpg,AMSA04.jpg,AMNE14.jpg,AMNE20.jpg,AMNE14.jpg,MN,1,num_2,16,num_2,0.86674702249,,,2017_Apr_20_1417,59.9987491458,FEMA4ImagesEEG,001,200192,
AFNE01.JPG,AFNE01.JPG,AFNE01.JPG,AFNE01.JPG,AFNE01.JPG,AFNE01.JPG,,,,,4,6,46,9,,,,,,,,,,,,,,,,,,,AMNE07.jpg,AMNE16.jpg,AMSA05.jpg,AMSA18.jpg,AMNE16.jpg,MN,1,num_6,32,num_8,1.0835008928,,,2017_Apr_20_1417,59.9987491458,FEMA4ImagesEEG,001,200192,
AFNE01.JPG,AFNE01.JPG,AFNE01.JPG,AFNE01.JPG,AFNE01.JPG,AFNE01.JPG,,,,,4,7,47,5,,,,,,,,,,,,,,,,,,,AMNE07.jpg,AMSA09.jpg,AMSA19.jpg,AMNE20.jpg,AMSA19.jpg,MS,2,num_2,32,num_6,0.950118336652,,,2017_Apr_20_1417,59.9987491458,FEMA4ImagesEEG,001,200192,
AFNE01.JPG,AFNE01.JPG,AFNE01.JPG,AFNE01.JPG,AFNE01.JPG,AFNE01.JPG,,,,,4,8,48,4,,,,,,,,,,,,,,,,,,,AMNE06.jpg,AMSA11.jpg,AMSA02.jpg,AMNE18.jpg,AMNE06.jpg,MN,1,num_8,32,num_4,1.03344987927,,,2017_Apr_20_1417,59.9987491458,FEMA4ImagesEEG,001,200192,
AFNE01.JPG,AFNE01.JPG,AFNE01.JPG,AFNE01.JPG,AFNE01.JPG,AFNE01.JPG,,,,,4,9,49,0,,,,,,,,,,,,,,,,,,,AMNE18.jpg,AMNE16.jpg,AMSA15.jpg,AMSA16.jpg,AMNE18.jpg,MN,1,num_8,16,num_8,1.06679199013,,,2017_Apr_20_1417,59.9987491458,FEMA4ImagesEEG,001,200192,
AFNE01.JPG,AFNE01.JPG,AFNE01.JPG,AFNE01.JPG,AFNE01.JPG,AFNE01.JPG,,,,,5,0,50,1,,,,,,,,,,,,,,,,,,,AMSA13.jpg,AMNE11.jpg,AMNE01.jpg,AMSA06.jpg,AMNE01.jpg,MN,1,num_2,16,num_2,0.716792198597,,,2017_Apr_20_1417,59.9987491458,FEMA4ImagesEEG,001,200192,
AFNE01.JPG,AFNE01.JPG,AFNE01.JPG,AFNE01.JPG,AFNE01.JPG,AFNE01.JPG,,,,,5,1,51,2,,,,,,,,,,,,,,,,,,,AMNE09.jpg,AMSA08.jpg,AMNE17.jpg,AMSA19.jpg,AMSA19.jpg,MS,2,num_4,32,num_2,0.816531790537,,,2017_Apr_20_1417,59.9987491458,FEMA4ImagesEEG,001,200192,
AFNE01.JPG,AFNE01.JPG,AFNE01.JPG,AFNE01.JPG,AFNE01.JPG,AFNE01.JPG,,,,,5,2,52,3,,,,,,,,,,,,,,,,,,,AMSA12.jpg,AMNE12.jpg,AMSA04.jpg,AMNE19.jpg,AMNE12.jpg,MN,1,num_6,32,num_4,1.18343870144,,,2017_Apr_20_1417,59.9987491458,FEMA4ImagesEEG,001,200192,
AFNE01.JPG,AFNE01.JPG,AFNE01.JPG,AFNE01.JPG,AFNE01.JPG,AFNE01.JPG,,,,,5,3,53,0,,,,,,,,,,,,,,,,,,,AMSA08.jpg,AMNE08.jpg,AMSA16.jpg,AMNE07.jpg,AMNE08.jpg,MN,1,num_6,32,num_8,1.33341341122,,,2017_Apr_20_1417,59.9987491458,FEMA4ImagesEEG,001,200192,
AFNE01.JPG,AFNE01.JPG,AFNE01.JPG,AFNE01.JPG,AFNE01.JPG,AFNE01.JPG,,,,,5,4,54,7,,,,,,,,,,,,,,,,,,,AMNE09.jpg,AMNE20.jpg,AMSA03.jpg,AMSA05.jpg,AMNE09.jpg,MN,1,num_8,32,num_6,1.28366581682,,,2017_Apr_20_1417,59.9987491458,FEMA4ImagesEEG,001,200192,
AFNE01.JPG,AFNE01.JPG,AFNE01.JPG,AFNE01.JPG,AFNE01.JPG,AFNE01.JPG,,,,,5,5,55,5,,,,,,,,,,,,,,,,,,,AMNE01.jpg,AMSA14.jpg,AMSA03.jpg,AMNE03.jpg,AMNE03.jpg,MN,1,num_4,16,num_4,1.05030728411,,,2017_Apr_20_1417,59.9987491458,FEMA4ImagesEEG,001,200192,
AFNE01.JPG,AFNE01.JPG,AFNE01.JPG,AFNE01.JPG,AFNE01.JPG,AFNE01.JPG,,,,,5,6,56,6,,,,,,,,,,,,,,,,,,,AMSA16.jpg,AMSA13.jpg,AMNE11.jpg,AMNE10.jpg,AMNE10.jpg,MN,1,num_4,32,num_8,0.650180784578,,,2017_Apr_20_1417,59.9987491458,FEMA4ImagesEEG,001,200192,
AFNE01.JPG,AFNE01.JPG,AFNE01.JPG,AFNE01.JPG,AFNE01.JPG,AFNE01.JPG,,,,,5,7,57,9,,,,,,,,,,,,,,,,,,,AMSA11.jpg,AMNE20.jpg,AMSA12.jpg,AMNE08.jpg,AMSA11.jpg,MS,2,num_8,16,num_8,0.766617411864,,,2017_Apr_20_1417,59.9987491458,FEMA4ImagesEEG,001,200192,
AFNE01.JPG,AFNE01.JPG,AFNE01.JPG,AFNE01.JPG,AFNE01.JPG,AFNE01.JPG,,,,,5,8,58,8,,,,,,,,,,,,,,,,,,,AMSA13.jpg,AMNE10.jpg,AMSA07.jpg,AMNE02.jpg,AMSA13.jpg,MS,2,num_8,16,num_8,0.866735796619,,,2017_Apr_20_1417,59.9987491458,FEMA4ImagesEEG,001,200192,
AFNE01.JPG,AFNE01.JPG,AFNE01.JPG,AFNE01.JPG,AFNE01.JPG,AFNE01.JPG,,,,,5,9,59,4,,,,,,,,,,,,,,,,,,,AMSA17.jpg,AMNE06.jpg,AMNE12.jpg,AMSA03.jpg,AMNE06.jpg,MN,1,num_6,16,num_6,0.799851754389,,,2017_Apr_20_1417,59.9987491458,FEMA4ImagesEEG,001,200192,
,,,,,,,,,,,,,,,,,,,,,,,,,,,,,,,,,,,,,,,,,,,space,37.6804643276,2017_Apr_20_1417,59.9987491458,FEMA4ImagesEEG,001,200192,
AFNE01.JPG,AFNE01.JPG,AFNE01.JPG,AFNE01.JPG,AFNE01.JPG,AFNE01.JPG,,,,,,,,,0,0,0,6,,,,,,,,,,,,,,,AFSA11.jpg,AFNE08.jpg,AFNE06.jpg,AFSA05.jpg,AFSA05.jpg,FS,4,num_4,48,None,,,,2017_Apr_20_1417,59.9987491458,FEMA4ImagesEEG,001,200192,
AFNE01.JPG,AFNE01.JPG,AFNE01.JPG,AFNE01.JPG,AFNE01.JPG,AFNE01.JPG,,,,,,,,,0,1,1,0,,,,,,,,,,,,,,,AFSA14.jpg,AFNE08.jpg,AFNE03.jpg,AFSA09.jpg,AFSA09.jpg,FS,4,num_4,16,num_4,0.816786136653,,,2017_Apr_20_1417,59.9987491458,FEMA4ImagesEEG,001,200192,
AFNE01.JPG,AFNE01.JPG,AFNE01.JPG,AFNE01.JPG,AFNE01.JPG,AFNE01.JPG,,,,,,,,,0,2,2,7,,,,,,,,,,,,,,,AFNE15.jpg,AFSA02.jpg,AFSA17.jpg,AFNE05.jpg,AFSA02.jpg,FS,4,num_6,32,num_4,0.966751544911,,,2017_Apr_20_1417,59.9987491458,FEMA4ImagesEEG,001,200192,
AFNE01.JPG,AFNE01.JPG,AFNE01.JPG,AFNE01.JPG,AFNE01.JPG,AFNE01.JPG,,,,,,,,,0,3,3,1,,,,,,,,,,,,,,,AFNE14.jpg,AFSA07.jpg,AFSA02.jpg,AFNE07.jpg,AFSA02.jpg,FS,4,num_2,16,num_2,0.583450697071,,,2017_Apr_20_1417,59.9987491458,FEMA4ImagesEEG,001,200192,
AFNE01.JPG,AFNE01.JPG,AFNE01.JPG,AFNE01.JPG,AFNE01.JPG,AFNE01.JPG,,,,,,,,,0,4,4,8,,,,,,,,,,,,,,,AFNE03.jpg,AFSA03.jpg,AFSA01.jpg,AFNE17.jpg,AFSA01.jpg,FS,4,num_2,16,num_2,0.799828981922,,,2017_Apr_20_1417,59.9987491458,FEMA4ImagesEEG,001,200192,
AFNE01.JPG,AFNE01.JPG,AFNE01.JPG,AFNE01.JPG,AFNE01.JPG,AFNE01.JPG,,,,,,,,,0,5,5,3,,,,,,,,,,,,,,,AFSA20.jpg,AFNE16.jpg,AFNE12.jpg,AFSA18.jpg,AFNE16.jpg,FN,3,num_6,32,num_8,1.38326620799,,,2017_Apr_20_1417,59.9987491458,FEMA4ImagesEEG,001,200192,
AFNE01.JPG,AFNE01.JPG,AFNE01.JPG,AFNE01.JPG,AFNE01.JPG,AFNE01.JPG,,,,,,,,,0,6,6,9,,,,,,,,,,,,,,,AFNE10.jpg,AFNE13.jpg,AFSA14.jpg,AFSA08.jpg,AFNE10.jpg,FN,3,num_8,32,num_4,0.683764091285,,,2017_Apr_20_1417,59.9987491458,FEMA4ImagesEEG,001,200192,
AFNE01.JPG,AFNE01.JPG,AFNE01.JPG,AFNE01.JPG,AFNE01.JPG,AFNE01.JPG,,,,,,,,,0,7,7,4,,,,,,,,,,,,,,,AFSA12.jpg,AFSA09.jpg,AFNE18.jpg,AFNE19.jpg,AFNE18.jpg,FN,3,num_2,16,num_2,0.783465836023,,,2017_Apr_20_1417,59.9987491458,FEMA4ImagesEEG,001,200192,
AFNE01.JPG,AFNE01.JPG,AFNE01.JPG,AFNE01.JPG,AFNE01.JPG,AFNE01.JPG,,,,,,,,,0,8,8,5,,,,,,,,,,,,,,,AFSA06.jpg,AFNE09.jpg,AFNE16.jpg,AFSA14.jpg,AFNE09.jpg,FN,3,num_6,16,num_6,0.900149111578,,,2017_Apr_20_1417,59.9987491458,FEMA4ImagesEEG,001,200192,
AFNE01.JPG,AFNE01.JPG,AFNE01.JPG,AFNE01.JPG,AFNE01.JPG,AFNE01.JPG,,,,,,,,,0,9,9,2,,,,,,,,,,,,,,,AFNE14.jpg,AFSA19.jpg,AFNE13.jpg,AFSA08.jpg,AFSA19.jpg,FS,4,num_6,16,num_6,0.683458426909,,,2017_Apr_20_1417,59.9987491458,FEMA4ImagesEEG,001,200192,
AFNE01.JPG,AFNE01.JPG,AFNE01.JPG,AFNE01.JPG,AFNE01.JPG,AFNE01.JPG,,,,,,,,,1,0,10,0,,,,,,,,,,,,,,,AFSA06.jpg,AFSA07.jpg,AFNE03.jpg,AFNE08.jpg,AFNE03.jpg,FN,3,num_2,16,num_2,0.683461634268,,,2017_Apr_20_1417,59.9987491458,FEMA4ImagesEEG,001,200192,
AFNE01.JPG,AFNE01.JPG,AFNE01.JPG,AFNE01.JPG,AFNE01.JPG,AFNE01.JPG,,,,,,,,,1,1,11,6,,,,,,,,,,,,,,,AFNE16.jpg,AFSA14.jpg,AFNE09.jpg,AFSA01.jpg,AFNE16.jpg,FN,3,num_8,16,num_8,0.683462596498,,,2017_Apr_20_1417,59.9987491458,FEMA4ImagesEEG,001,200192,
AFNE01.JPG,AFNE01.JPG,AFNE01.JPG,AFNE01.JPG,AFNE01.JPG,AFNE01.JPG,,,,,,,,,1,2,12,3,,,,,,,,,,,,,,,AFNE19.jpg,AFSA11.jpg,AFNE12.jpg,AFSA20.jpg,AFSA20.jpg,FS,4,num_4,32,num_8,1.05005710758,,,2017_Apr_20_1417,59.9987491458,FEMA4ImagesEEG,001,200192,
AFNE01.JPG,AFNE01.JPG,AFNE01.JPG,AFNE01.JPG,AFNE01.JPG,AFNE01.JPG,,,,,,,,,1,3,13,9,,,,,,,,,,,,,,,AFNE09.jpg,AFNE17.jpg,AFSA04.jpg,AFSA19.jpg,AFSA19.jpg,FS,4,num_4,32,num_2,1.03347393463,,,2017_Apr_20_1417,59.9987491458,FEMA4ImagesEEG,001,200192,
AFNE01.JPG,AFNE01.JPG,AFNE01.JPG,AFNE01.JPG,AFNE01.JPG,AFNE01.JPG,,,,,,,,,1,4,14,4,,,,,,,,,,,,,,,AFNE19.jpg,AFNE08.jpg,AFSA07.jpg,AFSA08.jpg,AFNE19.jpg,FN,3,num_8,32,num_6,0.95007471618,,,2017_Apr_20_1417,59.9987491458,FEMA4ImagesEEG,001,200192,
AFNE01.JPG,AFNE01.JPG,AFNE01.JPG,AFNE01.JPG,AFNE01.JPG,AFNE01.JPG,,,,,,,,,1,5,15,1,,,,,,,,,,,,,,,AFNE16.jpg,AFNE03.jpg,AFSA13.jpg,AFSA20.jpg,AFSA13.jpg,FS,4,num_2,32,num_6,0.800168965361,,,2017_Apr_20_1417,59.9987491458,FEMA4ImagesEEG,001,200192,
AFNE01.JPG,AFNE01.JPG,AFNE01.JPG,AFNE01.JPG,AFNE01.JPG,AFNE01.JPG,,,,,,,,,1,6,16,7,,,,,,,,,,,,,,,AFNE15.jpg,AFSA18.jpg,AFSA17.jpg,AFNE10.jpg,AFNE10.jpg,FN,3,num_4,16,num_4,0.600112771848,,,2017_Apr_20_1417,59.9987491458,FEMA4ImagesEEG,001,200192,
AFNE01.JPG,AFNE01.JPG,AFNE01.JPG,AFNE01.JPG,AFNE01.JPG,AFNE01.JPG,,,,,,,,,1,7,17,8,,,,,,,,,,,,,,,AFSA09.jpg,AFNE13.jpg,AFSA08.jpg,AFNE06.jpg,AFSA09.jpg,FS,4,num_8,32,num_4,1.63335320848,,,2017_Apr_20_1417,59.9987491458,FEMA4ImagesEEG,001,200192,
AFNE01.JPG,AFNE01.JPG,AFNE01.JPG,AFNE01.JPG,AFNE01.JPG,AFNE01.JPG,,,,,,,,,1,8,18,2,,,,,,,,,,,,,,,AFSA08.jpg,AFNE11.jpg,AFNE09.jpg,AFSA12.jpg,AFNE11.jpg,FN,3,num_6,16,num_6,0.883731119276,,,2017_Apr_20_1417,59.9987491458,FEMA4ImagesEEG,001,200192,
AFNE01.JPG,AFNE01.JPG,AFNE01.JPG,AFNE01.JPG,AFNE01.JPG,AFNE01.JPG,,,,,,,,,1,9,19,5,,,,,,,,,,,,,,,AFNE12.jpg,AFSA10.jpg,AFSA12.jpg,AFNE08.jpg,AFNE08.jpg,FN,3,num_4,16,num_4,0.866592105536,,,2017_Apr_20_1417,59.9987491458,FEMA4ImagesEEG,001,200192,
AFNE01.JPG,AFNE01.JPG,AFNE01.JPG,AFNE01.JPG,AFNE01.JPG,AFNE01.JPG,,,,,,,,,2,0,20,0,,,,,,,,,,,,,,,AFNE15.jpg,AFNE19.jpg,AFSA14.jpg,AFSA20.jpg,AFSA20.jpg,FS,4,num_4,32,num_8,0.550212505681,,,2017_Apr_20_1417,59.9987491458,FEMA4ImagesEEG,001,200192,
AFNE01.JPG,AFNE01.JPG,AFNE01.JPG,AFNE01.JPG,AFNE01.JPG,AFNE01.JPG,,,,,,,,,2,1,21,6,,,,,,,,,,,,,,,AFSA19.jpg,AFNE02.jpg,AFSA06.jpg,AFNE08.jpg,AFNE02.jpg,FN,3,num_6,16,num_6,0.683448804717,,,2017_Apr_20_1417,59.9987491458,FEMA4ImagesEEG,001,200192,
AFNE01.JPG,AFNE01.JPG,AFNE01.JPG,AFNE01.JPG,AFNE01.JPG,AFNE01.JPG,,,,,,,,,2,2,22,5,,,,,,,,,,,,,,,AFSA11.jpg,AFSA10.jpg,AFNE10.jpg,AFNE13.jpg,AFNE13.jpg,FN,3,num_4,16,num_4,0.616792166547,,,2017_Apr_20_1417,59.9987491458,FEMA4ImagesEEG,001,200192,
AFNE01.JPG,AFNE01.JPG,AFNE01.JPG,AFNE01.JPG,AFNE01.JPG,AFNE01.JPG,,,,,,,,,2,3,23,2,,,,,,,,,,,,,,,AFNE04.jpg,AFSA18.jpg,AFSA08.jpg,AFNE16.jpg,AFNE04.jpg,FN,3,num_8,32,num_4,0.733511685627,,,2017_Apr_20_1417,59.9987491458,FEMA4ImagesEEG,001,200192,
AFNE01.JPG,AFNE01.JPG,AFNE01.JPG,AFNE01.JPG,AFNE01.JPG,AFNE01.JPG,,,,,,,,,2,4,24,3,,,,,,,,,,,,,,,AFSA13.jpg,AFNE15.jpg,AFSA16.jpg,AFNE18.jpg,AFNE15.jpg,FN,3,num_6,16,num_6,0.70017214067,,,2017_Apr_20_1417,59.9987491458,FEMA4ImagesEEG,001,200192,
AFNE01.JPG,AFNE01.JPG,AFNE01.JPG,AFNE01.JPG,AFNE01.JPG,AFNE01.JPG,,,,,,,,,2,5,25,9,,,,,,,,,,,,,,,AFSA04.jpg,AFNE20.jpg,AFNE12.jpg,AFSA15.jpg,AFNE20.jpg,FN,3,num_6,32,num_4,0.750019805622,,,2017_Apr_20_1417,59.9987491458,FEMA4ImagesEEG,001,200192,
AFNE01.JPG,AFNE01.JPG,AFNE01.JPG,AFNE01.JPG,AFNE01.JPG,AFNE01.JPG,,,,,,,,,2,6,26,7,,,,,,,,,,,,,,,AFNE16.jpg,AFNE03.jpg,AFSA07.jpg,AFSA17.jpg,AFNE16.jpg,FN,3,num_8,32,num_6,0.833469059377,,,2017_Apr_20_1417,59.9987491458,FEMA4ImagesEEG,001,200192,
AFNE01.JPG,AFNE01.JPG,AFNE01.JPG,AFNE01.JPG,AFNE01.JPG,AFNE01.JPG,,,,,,,,,2,7,27,4,,,,,,,,,,,,,,,AFNE12.jpg,AFNE11.jpg,AFSA16.jpg,AFSA06.jpg,AFNE11.jpg,FN,3,num_6,32,num_8,1.08344315976,,,2017_Apr_20_1417,59.9987491458,FEMA4ImagesEEG,001,200192,
AFNE01.JPG,AFNE01.JPG,AFNE01.JPG,AFNE01.JPG,AFNE01.JPG,AFNE01.JPG,,,,,,,,,2,8,28,8,,,,,,,,,,,,,,,AFSA05.jpg,AFNE15.jpg,AFNE16.jpg,AFSA17.jpg,AFNE15.jpg,FN,3,num_6,16,num_6,1.01678363484,,,2017_Apr_20_1417,59.9987491458,FEMA4ImagesEEG,001,200192,
AFNE01.JPG,AFNE01.JPG,AFNE01.JPG,AFNE01.JPG,AFNE01.JPG,AFNE01.JPG,,,,,,,,,2,9,29,1,,,,,,,,,,,,,,,AFSA20.jpg,AFNE18.jpg,AFNE14.jpg,AFSA07.jpg,AFNE18.jpg,FN,3,num_6,32,num_4,1.31673658243,,,2017_Apr_20_1417,59.9987491458,FEMA4ImagesEEG,001,200192,
AFNE01.JPG,AFNE01.JPG,AFNE01.JPG,AFNE01.JPG,AFNE01.JPG,AFNE01.JPG,,,,,,,,,3,0,30,3,,,,,,,,,,,,,,,AFSA07.jpg,AFSA02.jpg,AFNE20.jpg,AFNE13.jpg,AFNE20.jpg,FN,3,num_2,32,num_8,0.733605662186,,,2017_Apr_20_1417,59.9987491458,FEMA4ImagesEEG,001,200192,
AFNE01.JPG,AFNE01.JPG,AFNE01.JPG,AFNE01.JPG,AFNE01.JPG,AFNE01.JPG,,,,,,,,,3,1,31,6,,,,,,,,,,,,,,,AFNE12.jpg,AFNE16.jpg,AFSA18.jpg,AFSA06.jpg,AFNE12.jpg,FN,3,num_8,32,num_6,0.81672423397,,,2017_Apr_20_1417,59.9987491458,FEMA4ImagesEEG,001,200192,
AFNE01.JPG,AFNE01.JPG,AFNE01.JPG,AFNE01.JPG,AFNE01.JPG,AFNE01.JPG,,,,,,,,,3,2,32,5,,,,,,,,,,,,,,,AFNE05.jpg,AFSA17.jpg,AFSA18.jpg,AFNE02.jpg,AFSA18.jpg,FS,4,num_2,16,num_2,0.833391119842,,,2017_Apr_20_1417,59.9987491458,FEMA4ImagesEEG,001,200192,
AFNE01.JPG,AFNE01.JPG,AFNE01.JPG,AFNE01.JPG,AFNE01.JPG,AFNE01.JPG,,,,,,,,,3,3,33,0,,,,,,,,,,,,,,,AFSA12.jpg,AFNE06.jpg,AFNE07.jpg,AFSA04.jpg,AFSA12.jpg,FS,4,num_8,32,num_4,1.25011233886,,,2017_Apr_20_1417,59.9987491458,FEMA4ImagesEEG,001,200192,
AFNE01.JPG,AFNE01.JPG,AFNE01.JPG,AFNE01.JPG,AFNE01.JPG,AFNE01.JPG,,,,,,,,,3,4,34,7,,,,,,,,,,,,,,,AFSA12.jpg,AFNE02.jpg,AFSA10.jpg,AFNE11.jpg,AFSA10.jpg,FS,4,num_2,32,num_8,1.06674901111,,,2017_Apr_20_1417,59.9987491458,FEMA4ImagesEEG,001,200192,
AFNE01.JPG,AFNE01.JPG,AFNE01.JPG,AFNE01.JPG,AFNE01.JPG,AFNE01.JPG,,,,,,,,,3,5,35,1,,,,,,,,,,,,,,,AFSA14.jpg,AFNE09.jpg,AFNE04.jpg,AFSA09.jpg,AFNE04.jpg,FN,3,num_2,32,num_6,1.41671865311,,,2017_Apr_20_1417,59.9987491458,FEMA4ImagesEEG,001,200192,
AFNE01.JPG,AFNE01.JPG,AFNE01.JPG,AFNE01.JPG,AFNE01.JPG,AFNE01.JPG,,,,,,,,,3,6,36,2,,,,,,,,,,,,,,,AFSA04.jpg,AFSA08.jpg,AFNE17.jpg,AFNE15.jpg,AFNE15.jpg,FN,3,num_4,16,num_4,1.0667721043,,,2017_Apr_20_1417,59.9987491458,FEMA4ImagesEEG,001,200192,
AFNE01.JPG,AFNE01.JPG,AFNE01.JPG,AFNE01.JPG,AFNE01.JPG,AFNE01.JPG,,,,,,,,,3,7,37,9,,,,,,,,,,,,,,,AFNE15.jpg,AFNE16.jpg,AFSA04.jpg,AFSA16.jpg,AFNE15.jpg,FN,3,num_8,16,num_8,0.866806359263,,,2017_Apr_20_1417,59.9987491458,FEMA4ImagesEEG,001,200192,
AFNE01.JPG,AFNE01.JPG,AFNE01.JPG,AFNE01.JPG,AFNE01.JPG,AFNE01.JPG,,,,,,,,,3,8,38,8,,,,,,,,,,,,,,,AFSA14.jpg,AFSA17.jpg,AFNE13.jpg,AFNE20.jpg,AFNE13.jpg,FN,3,num_2,32,num_6,0.650098996121,,,2017_Apr_20_1417,59.9987491458,FEMA4ImagesEEG,001,200192,
AFNE01.JPG,AFNE01.JPG,AFNE01.JPG,AFNE01.JPG,AFNE01.JPG,AFNE01.JPG,,,,,,,,,3,9,39,4,,,,,,,,,,,,,,,AFSA17.jpg,AFNE13.jpg,AFNE05.jpg,AFSA08.jpg,AFNE05.jpg,FN,3,num_2,32,num_4,0.516880979179,,,2017_Apr_20_1417,59.9987491458,FEMA4ImagesEEG,001,200192,
AFNE01.JPG,AFNE01.JPG,AFNE01.JPG,AFNE01.JPG,AFNE01.JPG,AFNE01.JPG,,,,,,,,,4,0,40,7,,,,,,,,,,,,,,,AFSA03.jpg,AFNE12.jpg,AFNE05.jpg,AFSA06.jpg,AFNE12.jpg,FN,3,num_6,32,num_4,1.15012866451,,,2017_Apr_20_1417,59.9987491458,FEMA4ImagesEEG,001,200192,
AFNE01.JPG,AFNE01.JPG,AFNE01.JPG,AFNE01.JPG,AFNE01.JPG,AFNE01.JPG,,,,,,,,,4,1,41,1,,,,,,,,,,,,,,,AFNE06.jpg,AFSA02.jpg,AFNE08.jpg,AFSA19.jpg,AFSA02.jpg,FS,4,num_6,16,num_6,0.833565601904,,,2017_Apr_20_1417,59.9987491458,FEMA4ImagesEEG,001,200192,
AFNE01.JPG,AFNE01.JPG,AFNE01.JPG,AFNE01.JPG,AFNE01.JPG,AFNE01.JPG,,,,,,,,,4,2,42,8,,,,,,,,,,,,,,,AFNE19.jpg,AFSA02.jpg,AFNE15.jpg,AFSA12.jpg,AFSA02.jpg,FS,4,num_6,32,num_8,0.616774846625,,,2017_Apr_20_1417,59.9987491458,FEMA4ImagesEEG,001,200192,
AFNE01.JPG,AFNE01.JPG,AFNE01.JPG,AFNE01.JPG,AFNE01.JPG,AFNE01.JPG,,,,,,,,,4,3,43,9,,,,,,,,,,,,,,,AFSA06.jpg,AFNE13.jpg,AFNE03.jpg,AFSA20.jpg,AFNE03.jpg,FN,3,num_2,32,num_4,0.9171158885,,,2017_Apr_20_1417,59.9987491458,FEMA4ImagesEEG,001,200192,
AFNE01.JPG,AFNE01.JPG,AFNE01.JPG,AFNE01.JPG,AFNE01.JPG,AFNE01.JPG,,,,,,,,,4,4,44,0,,,,,,,,,,,,,,,AFNE19.jpg,AFSA20.jpg,AFSA03.jpg,AFNE14.jpg,AFSA03.jpg,FS,4,num_2,32,num_6,0.64997936046,,,2017_Apr_20_1417,59.9987491458,FEMA4ImagesEEG,001,200192,
AFNE01.JPG,AFNE01.JPG,AFNE01.JPG,AFNE01.JPG,AFNE01.JPG,AFNE01.JPG,,,,,,,,,4,5,45,3,,,,,,,,,,,,,,,AFSA02.jpg,AFNE07.jpg,AFNE11.jpg,AFSA19.jpg,AFNE11.jpg,FN,3,num_2,32,num_4,0.833481247537,,,2017_Apr_20_1417,59.9987491458,FEMA4ImagesEEG,001,200192,
AFNE01.JPG,AFNE01.JPG,AFNE01.JPG,AFNE01.JPG,AFNE01.JPG,AFNE01.JPG,,,,,,,,,4,6,46,5,,,,,,,,,,,,,,,AFSA17.jpg,AFNE18.jpg,AFNE02.jpg,AFSA06.jpg,AFNE18.jpg,FN,3,num_6,32,num_4,0.767092747148,,,2017_Apr_20_1417,59.9987491458,FEMA4ImagesEEG,001,200192,
AFNE01.JPG,AFNE01.JPG,AFNE01.JPG,AFNE01.JPG,AFNE01.JPG,AFNE01.JPG,,,,,,,,,4,7,47,6,,,,,,,,,,,,,,,AFNE13.jpg,AFSA10.jpg,AFSA08.jpg,AFNE15.jpg,AFNE13.jpg,FN,3,num_8,32,num_6,1.26673400053,,,2017_Apr_20_1417,59.9987491458,FEMA4ImagesEEG,001,200192,
AFNE01.JPG,AFNE01.JPG,AFNE01.JPG,AFNE01.JPG,AFNE01.JPG,AFNE01.JPG,,,,,,,,,4,8,48,2,,,,,,,,,,,,,,,AFNE01.jpg,AFNE14.jpg,AFSA18.jpg,AFSA02.jpg,AFNE14.jpg,FN,3,num_6,32,num_4,1.23342300131,,,2017_Apr_20_1417,59.9987491458,FEMA4ImagesEEG,001,200192,
AFNE01.JPG,AFNE01.JPG,AFNE01.JPG,AFNE01.JPG,AFNE01.JPG,AFNE01.JPG,,,,,,,,,4,9,49,4,,,,,,,,,,,,,,,AFNE05.jpg,AFNE06.jpg,AFSA04.jpg,AFSA01.jpg,AFSA01.jpg,FS,4,num_4,32,num_6,0.616796656861,,,2017_Apr_20_1417,59.9987491458,FEMA4ImagesEEG,001,200192,
AFNE01.JPG,AFNE01.JPG,AFNE01.JPG,AFNE01.JPG,AFNE01.JPG,AFNE01.JPG,,,,,,,,,5,0,50,0,,,,,,,,,,,,,,,AFNE04.jpg,AFNE18.jpg,AFSA07.jpg,AFSA09.jpg,AFSA09.jpg,FS,4,num_4,16,num_4,0.766817553027,,,2017_Apr_20_1417,59.9987491458,FEMA4ImagesEEG,001,200192,
AFNE01.JPG,AFNE01.JPG,AFNE01.JPG,AFNE01.JPG,AFNE01.JPG,AFNE01.JPG,,,,,,,,,5,1,51,5,,,,,,,,,,,,,,,AFSA02.jpg,AFNE11.jpg,AFSA06.jpg,AFNE15.jpg,AFSA06.jpg,FS,4,num_2,32,num_6,0.850151019986,,,2017_Apr_20_1417,59.9987491458,FEMA4ImagesEEG,001,200192,
AFNE01.JPG,AFNE01.JPG,AFNE01.JPG,AFNE01.JPG,AFNE01.JPG,AFNE01.JPG,,,,,,,,,5,2,52,8,,,,,,,,,,,,,,,AFNE01.jpg,AFSA08.jpg,AFSA10.jpg,AFNE04.jpg,AFNE04.jpg,FN,3,num_4,32,num_2,2.11679072323,,,2017_Apr_20_1417,59.9987491458,FEMA4ImagesEEG,001,200192,
AFNE01.JPG,AFNE01.JPG,AFNE01.JPG,AFNE01.JPG,AFNE01.JPG,AFNE01.JPG,,,,,,,,,5,3,53,3,,,,,,,,,,,,,,,AFSA10.jpg,AFNE09.jpg,AFNE13.jpg,AFSA02.jpg,AFNE13.jpg,FN,3,num_2,32,num_8,1.18343324889,,,2017_Apr_20_1417,59.9987491458,FEMA4ImagesEEG,001,200192,
AFNE01.JPG,AFNE01.JPG,AFNE01.JPG,AFNE01.JPG,AFNE01.JPG,AFNE01.JPG,,,,,,,,,5,4,54,4,,,,,,,,,,,,,,,AFSA12.jpg,AFSA19.jpg,AFNE17.jpg,AFNE11.jpg,AFNE17.jpg,FN,3,num_2,16,num_2,0.850108361687,,,2017_Apr_20_1417,59.9987491458,FEMA4ImagesEEG,001,200192,
AFNE01.JPG,AFNE01.JPG,AFNE01.JPG,AFNE01.JPG,AFNE01.JPG,AFNE01.JPG,,,,,,,,,5,5,55,9,,,,,,,,,,,,,,,AFNE08.jpg,AFNE11.jpg,AFSA09.jpg,AFSA12.jpg,AFNE08.jpg,FN,3,num_8,32,num_6,0.966773355205,,,2017_Apr_20_1417,59.9987491458,FEMA4ImagesEEG,001,200192,
AFNE01.JPG,AFNE01.JPG,AFNE01.JPG,AFNE01.JPG,AFNE01.JPG,AFNE01.JPG,,,,,,,,,5,6,56,6,,,,,,,,,,,,,,,AFNE18.jpg,AFSA08.jpg,AFSA09.jpg,AFNE07.jpg,AFSA08.jpg,FS,4,num_6,32,num_2,0.850160642178,,,2017_Apr_20_1417,59.9987491458,FEMA4ImagesEEG,001,200192,
AFNE01.JPG,AFNE01.JPG,AFNE01.JPG,AFNE01.JPG,AFNE01.JPG,AFNE01.JPG,,,,,,,,,5,7,57,2,,,,,,,,,,,,,,,AFNE14.jpg,AFSA12.jpg,AFNE03.jpg,AFSA07.jpg,AFNE03.jpg,FN,3,num_2,32,num_6,0.683494991215,,,2017_Apr_20_1417,59.9987491458,FEMA4ImagesEEG,001,200192,
AFNE01.JPG,AFNE01.JPG,AFNE01.JPG,AFNE01.JPG,AFNE01.JPG,AFNE01.JPG,,,,,,,,,5,8,58,1,,,,,,,,,,,,,,,AFSA03.jpg,AFNE18.jpg,AFNE17.jpg,AFSA08.jpg,AFNE18.jpg,FN,3,num_6,32,num_4,0.783484438842,,,2017_Apr_20_1417,59.9987491458,FEMA4ImagesEEG,001,200192,
AFNE01.JPG,AFNE01.JPG,AFNE01.JPG,AFNE01.JPG,AFNE01.JPG,AFNE01.JPG,,,,,,,,,5,9,59,7,,,,,,,,,,,,,,,AFNE18.jpg,AFSA11.jpg,AFSA20.jpg,AFNE17.jpg,AFSA11.jpg,FS,4,num_6,16,num_6,0.766787403554,,,2017_Apr_20_1417,59.9987491458,FEMA4ImagesEEG,001,200192,
,,,,,,,,,,,,,,,,,,,,,,,,,,,,,,,,,,,,,,,,,,,space,56.4454055569,2017_Apr_20_1417,59.9987491458,FEMA4ImagesEEG,001,200192,
AFNE01.JPG,AFNE01.JPG,AFNE01.JPG,AFNE01.JPG,AFNE01.JPG,AFNE01.JPG,,,,,,,,,,,,,0,0,0,2,,,,,,,,,,,AMNE04.jpg,AMSA03.jpg,AMNE02.jpg,AMSA04.jpg,AMSA03.jpg,MS,2,num_6,32,num_8,0.850106116501,,,2017_Apr_20_1417,59.9987491458,FEMA4ImagesEEG,001,200192,
AFNE01.JPG,AFNE01.JPG,AFNE01.JPG,AFNE01.JPG,AFNE01.JPG,AFNE01.JPG,,,,,,,,,,,,,0,1,1,8,,,,,,,,,,,AMSA09.jpg,AMNE10.jpg,AMNE07.jpg,AMSA18.jpg,AMNE07.jpg,MN,1,num_2,32,num_6,0.750330281095,,,2017_Apr_20_1417,59.9987491458,FEMA4ImagesEEG,001,200192,
AFNE01.JPG,AFNE01.JPG,AFNE01.JPG,AFNE01.JPG,AFNE01.JPG,AFNE01.JPG,,,,,,,,,,,,,0,2,2,7,,,,,,,,,,,AMNE10.jpg,AMNE05.jpg,AMSA16.jpg,AMSA04.jpg,AMSA16.jpg,MS,2,num_2,16,num_2,0.766818835982,,,2017_Apr_20_1417,59.9987491458,FEMA4ImagesEEG,001,200192,
AFNE01.JPG,AFNE01.JPG,AFNE01.JPG,AFNE01.JPG,AFNE01.JPG,AFNE01.JPG,,,,,,,,,,,,,0,3,3,9,,,,,,,,,,,AMNE08.jpg,AMSA11.jpg,AMNE04.jpg,AMSA06.jpg,AMNE04.jpg,MN,1,num_2,32,num_6,0.633490164066,,,2017_Apr_20_1417,59.9987491458,FEMA4ImagesEEG,001,200192,
AFNE01.JPG,AFNE01.JPG,AFNE01.JPG,AFNE01.JPG,AFNE01.JPG,AFNE01.JPG,,,,,,,,,,,,,0,4,4,0,,,,,,,,,,,AMSA17.jpg,AMNE12.jpg,AMNE19.jpg,AMSA14.jpg,AMNE12.jpg,MN,1,num_6,32,num_2,1.21660697175,,,2017_Apr_20_1417,59.9987491458,FEMA4ImagesEEG,001,200192,
AFNE01.JPG,AFNE01.JPG,AFNE01.JPG,AFNE01.JPG,AFNE01.JPG,AFNE01.JPG,,,,,,,,,,,,,0,5,5,3,,,,,,,,,,,AMSA16.jpg,AMNE05.jpg,AMSA18.jpg,AMNE10.jpg,AMNE05.jpg,MN,1,num_6,16,num_6,0.900117358426,,,2017_Apr_20_1417,59.9987491458,FEMA4ImagesEEG,001,200192,
AFNE01.JPG,AFNE01.JPG,AFNE01.JPG,AFNE01.JPG,AFNE01.JPG,AFNE01.JPG,,,,,,,,,,,,,0,6,6,6,,,,,,,,,,,AMNE01.jpg,AMSA03.jpg,AMSA13.jpg,AMNE06.jpg,AMNE01.jpg,MN,1,num_8,32,num_2,0.800136891427,,,2017_Apr_20_1417,59.9987491458,FEMA4ImagesEEG,001,200192,
AFNE01.JPG,AFNE01.JPG,AFNE01.JPG,AFNE01.JPG,AFNE01.JPG,AFNE01.JPG,,,,,,,,,,,,,0,7,7,4,,,,,,,,,,,AMSA15.jpg,AMNE05.jpg,AMSA01.jpg,AMNE10.jpg,AMSA01.jpg,MS,2,num_2,32,num_6,0.66680052178,,,2017_Apr_20_1417,59.9987491458,FEMA4ImagesEEG,001,200192,
AFNE01.JPG,AFNE01.JPG,AFNE01.JPG,AFNE01.JPG,AFNE01.JPG,AFNE01.JPG,,,,,,,,,,,,,0,8,8,1,,,,,,,,,,,AMSA18.jpg,AMSA13.jpg,AMNE04.jpg,AMNE19.jpg,AMNE04.jpg,MN,1,num_2,16,num_2,0.950159391272,,,2017_Apr_20_1417,59.9987491458,FEMA4ImagesEEG,001,200192,
AFNE01.JPG,AFNE01.JPG,AFNE01.JPG,AFNE01.JPG,AFNE01.JPG,AFNE01.JPG,,,,,,,,,,,,,0,9,9,5,,,,,,,,,,,AMSA13.jpg,AMNE13.jpg,AMSA20.jpg,AMNE12.jpg,AMSA20.jpg,MS,2,num_2,16,num_2,0.98344280693,,,2017_Apr_20_1417,59.9987491458,FEMA4ImagesEEG,001,200192,
AFNE01.JPG,AFNE01.JPG,AFNE01.JPG,AFNE01.JPG,AFNE01.JPG,AFNE01.JPG,,,,,,,,,,,,,1,0,10,3,,,,,,,,,,,AMSA14.jpg,AMNE09.jpg,AMNE16.jpg,AMSA18.jpg,AMNE09.jpg,MN,1,num_6,32,num_4,1.20008313557,,,2017_Apr_20_1417,59.9987491458,FEMA4ImagesEEG,001,200192,
AFNE01.JPG,AFNE01.JPG,AFNE01.JPG,AFNE01.JPG,AFNE01.JPG,AFNE01.JPG,,,,,,,,,,,,,1,1,11,5,,,,,,,,,,,AMSA04.jpg,AMNE11.jpg,AMSA10.jpg,AMNE05.jpg,AMSA10.jpg,MS,2,num_2,32,num_8,0.983439278789,,,2017_Apr_20_1417,59.9987491458,FEMA4ImagesEEG,001,200192,
AFNE01.JPG,AFNE01.JPG,AFNE01.JPG,AFNE01.JPG,AFNE01.JPG,AFNE01.JPG,,,,,,,,,,,,,1,2,12,7,,,,,,,,,,,AMSA15.jpg,AMNE18.jpg,AMSA05.jpg,AMNE14.jpg,AMSA15.jpg,MS,2,num_8,32,num_2,0.616830975981,,,2017_Apr_20_1417,59.9987491458,FEMA4ImagesEEG,001,200192,
AFNE01.JPG,AFNE01.JPG,AFNE01.JPG,AFNE01.JPG,AFNE01.JPG,AFNE01.JPG,,,,,,,,,,,,,1,3,13,4,,,,,,,,,,,AMNE07.jpg,AMSA16.jpg,AMNE19.jpg,AMSA04.jpg,AMSA04.jpg,MS,2,num_4,32,num_8,1.48369731341,,,2017_Apr_20_1417,59.9987491458,FEMA4ImagesEEG,001,200192,
AFNE01.JPG,AFNE01.JPG,AFNE01.JPG,AFNE01.JPG,AFNE01.JPG,AFNE01.JPG,,,,,,,,,,,,,1,4,14,2,,,,,,,,,,,AMNE07.jpg,AMNE03.jpg,AMSA17.jpg,AMSA18.jpg,AMNE07.jpg,MN,1,num_8,32,num_4,0.783451723459,,,2017_Apr_20_1417,59.9987491458,FEMA4ImagesEEG,001,200192,
AFNE01.JPG,AFNE01.JPG,AFNE01.JPG,AFNE01.JPG,AFNE01.JPG,AFNE01.JPG,,,,,,,,,,,,,1,5,15,1,,,,,,,,,,,AMNE15.jpg,AMNE19.jpg,AMSA12.jpg,AMSA09.jpg,AMNE19.jpg,MN,1,num_6,16,num_6,0.650129145593,,,2017_Apr_20_1417,59.9987491458,FEMA4ImagesEEG,001,200192,
AFNE01.JPG,AFNE01.JPG,AFNE01.JPG,AFNE01.JPG,AFNE01.JPG,AFNE01.JPG,,,,,,,,,,,,,1,6,16,6,,,,,,,,,,,AMSA17.jpg,AMSA04.jpg,AMNE09.jpg,AMNE08.jpg,AMSA17.jpg,MS,2,num_8,32,num_6,0.683455219551,,,2017_Apr_20_1417,59.9987491458,FEMA4ImagesEEG,001,200192,
AFNE01.JPG,AFNE01.JPG,AFNE01.JPG,AFNE01.JPG,AFNE01.JPG,AFNE01.JPG,,,,,,,,,,,,,1,7,17,8,,,,,,,,,,,AMNE16.jpg,AMNE13.jpg,AMSA18.jpg,AMSA05.jpg,AMSA18.jpg,MS,2,num_2,16,num_2,0.750131422887,,,2017_Apr_20_1417,59.9987491458,FEMA4ImagesEEG,001,200192,
AFNE01.JPG,AFNE01.JPG,AFNE01.JPG,AFNE01.JPG,AFNE01.JPG,AFNE01.JPG,,,,,,,,,,,,,1,8,18,9,,,,,,,,,,,AMNE03.jpg,AMSA12.jpg,AMSA09.jpg,AMNE01.jpg,AMNE01.jpg,MN,1,num_4,32,num_6,0.650166992855,,,2017_Apr_20_1417,59.9987491458,FEMA4ImagesEEG,001,200192,
AFNE01.JPG,AFNE01.JPG,AFNE01.JPG,AFNE01.JPG,AFNE01.JPG,AFNE01.JPG,,,,,,,,,,,,,1,9,19,0,,,,,,,,,,,AMNE11.jpg,AMSA05.jpg,AMSA12.jpg,AMNE15.jpg,AMSA12.jpg,MS,2,num_2,16,num_2,0.78347738256,,,2017_Apr_20_1417,59.9987491458,FEMA4ImagesEEG,001,200192,
AFNE01.JPG,AFNE01.JPG,AFNE01.JPG,AFNE01.JPG,AFNE01.JPG,AFNE01.JPG,,,,,,,,,,,,,2,0,20,2,,,,,,,,,,,AMSA14.jpg,AMNE15.jpg,AMSA12.jpg,AMNE06.jpg,AMNE15.jpg,MN,1,num_6,32,num_2,0.983463013486,,,2017_Apr_20_1417,59.9987491458,FEMA4ImagesEEG,001,200192,
AFNE01.JPG,AFNE01.JPG,AFNE01.JPG,AFNE01.JPG,AFNE01.JPG,AFNE01.JPG,,,,,,,,,,,,,2,1,21,7,,,,,,,,,,,AMSA02.jpg,AMNE12.jpg,AMSA05.jpg,AMNE03.jpg,AMSA05.jpg,MS,2,num_2,16,num_2,0.800150683266,,,2017_Apr_20_1417,59.9987491458,FEMA4ImagesEEG,001,200192,
AFNE01.JPG,AFNE01.JPG,AFNE01.JPG,AFNE01.JPG,AFNE01.JPG,AFNE01.JPG,,,,,,,,,,,,,2,2,22,9,,,,,,,,,,,AMNE17.jpg,AMSA08.jpg,AMNE15.jpg,AMSA16.jpg,AMSA08.jpg,MS,2,num_6,16,num_6,0.733482177602,,,2017_Apr_20_1417,59.9987491458,FEMA4ImagesEEG,001,200192,
AFNE01.JPG,AFNE01.JPG,AFNE01.JPG,AFNE01.JPG,AFNE01.JPG,AFNE01.JPG,,,,,,,,,,,,,2,3,23,4,,,,,,,,,,,AMSA12.jpg,AMSA15.jpg,AMNE09.jpg,AMNE16.jpg,AMNE16.jpg,MN,1,num_4,16,num_4,1.11678366695,,,2017_Apr_20_1417,59.9987491458,FEMA4ImagesEEG,001,200192,
AFNE01.JPG,AFNE01.JPG,AFNE01.JPG,AFNE01.JPG,AFNE01.JPG,AFNE01.JPG,,,,,,,,,,,,,2,4,24,8,,,,,,,,,,,AMSA17.jpg,AMNE15.jpg,AMSA05.jpg,AMNE06.jpg,AMNE06.jpg,MN,1,num_4,32,num_6,1.30012133555,,,2017_Apr_20_1417,59.9987491458,FEMA4ImagesEEG,001,200192,
AFNE01.JPG,AFNE01.JPG,AFNE01.JPG,AFNE01.JPG,AFNE01.JPG,AFNE01.JPG,,,,,,,,,,,,,2,5,25,5,,,,,,,,,,,AMNE13.jpg,AMSA09.jpg,AMSA06.jpg,AMNE06.jpg,AMNE06.jpg,MN,1,num_4,16,num_4,0.716752106207,,,2017_Apr_20_1417,59.9987491458,FEMA4ImagesEEG,001,200192,
AFNE01.JPG,AFNE01.JPG,AFNE01.JPG,AFNE01.JPG,AFNE01.JPG,AFNE01.JPG,,,,,,,,,,,,,2,6,26,6,,,,,,,,,,,AMNE13.jpg,AMSA16.jpg,AMSA06.jpg,AMNE12.jpg,AMNE12.jpg,MN,1,num_4,32,num_2,0.766780988779,,,2017_Apr_20_1417,59.9987491458,FEMA4ImagesEEG,001,200192,
AFNE01.JPG,AFNE01.JPG,AFNE01.JPG,AFNE01.JPG,AFNE01.JPG,AFNE01.JPG,,,,,,,,,,,,,2,7,27,0,,,,,,,,,,,AMSA12.jpg,AMNE05.jpg,AMSA10.jpg,AMNE02.jpg,AMSA10.jpg,MS,2,num_2,16,num_2,0.500157964008,,,2017_Apr_20_1417,59.9987491458,FEMA4ImagesEEG,001,200192,
AFNE01.JPG,AFNE01.JPG,AFNE01.JPG,AFNE01.JPG,AFNE01.JPG,AFNE01.JPG,,,,,,,,,,,,,2,8,28,1,,,,,,,,,,,AMSA16.jpg,AMNE04.jpg,AMSA11.jpg,AMNE15.jpg,AMSA16.jpg,MS,2,num_8,32,num_2,0.883476131712,,,2017_Apr_20_1417,59.9987491458,FEMA4ImagesEEG,001,200192,
AFNE01.JPG,AFNE01.JPG,AFNE01.JPG,AFNE01.JPG,AFNE01.JPG,AFNE01.JPG,,,,,,,,,,,,,2,9,29,3,,,,,,,,,,,AMSA02.jpg,AMNE07.jpg,AMSA15.jpg,AMNE02.jpg,AMSA02.jpg,MS,2,num_8,32,num_2,0.666787371447,,,2017_Apr_20_1417,59.9987491458,FEMA4ImagesEEG,001,200192,
AFNE01.JPG,AFNE01.JPG,AFNE01.JPG,AFNE01.JPG,AFNE01.JPG,AFNE01.JPG,,,,,,,,,,,,,3,0,30,4,,,,,,,,,,,AMSA11.jpg,AMNE16.jpg,AMNE01.jpg,AMSA15.jpg,AMNE16.jpg,MN,1,num_6,32,num_8,0.950088187237,,,2017_Apr_20_1417,59.9987491458,FEMA4ImagesEEG,001,200192,
AFNE01.JPG,AFNE01.JPG,AFNE01.JPG,AFNE01.JPG,AFNE01.JPG,AFNE01.JPG,,,,,,,,,,,,,3,1,31,8,,,,,,,,,,,AMNE20.jpg,AMNE03.jpg,AMSA04.jpg,AMSA16.jpg,AMNE03.jpg,MN,1,num_6,16,num_6,0.950147844676,,,2017_Apr_20_1417,59.9987491458,FEMA4ImagesEEG,001,200192,
AFNE01.JPG,AFNE01.JPG,AFNE01.JPG,AFNE01.JPG,AFNE01.JPG,AFNE01.JPG,,,,,,,,,,,,,3,2,32,7,,,,,,,,,,,AMSA07.jpg,AMSA03.jpg,AMNE12.jpg,AMNE10.jpg,AMNE10.jpg,MN,1,num_4,16,num_4,1.0168416886,,,2017_Apr_20_1417,59.9987491458,FEMA4ImagesEEG,001,200192,
AFNE01.JPG,AFNE01.JPG,AFNE01.JPG,AFNE01.JPG,AFNE01.JPG,AFNE01.JPG,,,,,,,,,,,,,3,3,33,2,,,,,,,,,,,AMSA15.jpg,AMNE01.jpg,AMSA06.jpg,AMNE17.jpg,AMSA06.jpg,MS,2,num_2,16,num_2,0.93320993433,,,2017_Apr_20_1417,59.9987491458,FEMA4ImagesEEG,001,200192,
AFNE01.JPG,AFNE01.JPG,AFNE01.JPG,AFNE01.JPG,AFNE01.JPG,AFNE01.JPG,,,,,,,,,,,,,3,4,34,0,,,,,,,,,,,AMSA10.jpg,AMNE13.jpg,AMSA19.jpg,AMNE10.jpg,AMNE13.jpg,MN,1,num_6,16,num_6,1.18355480902,,,2017_Apr_20_1417,59.9987491458,FEMA4ImagesEEG,001,200192,
AFNE01.JPG,AFNE01.JPG,AFNE01.JPG,AFNE01.JPG,AFNE01.JPG,AFNE01.JPG,,,,,,,,,,,,,3,5,35,1,,,,,,,,,,,AMNE14.jpg,AMNE05.jpg,AMSA02.jpg,AMSA01.jpg,AMNE05.jpg,MN,1,num_6,16,num_6,0.833394327201,,,2017_Apr_20_1417,59.9987491458,FEMA4ImagesEEG,001,200192,
AFNE01.JPG,AFNE01.JPG,AFNE01.JPG,AFNE01.JPG,AFNE01.JPG,AFNE01.JPG,,,,,,,,,,,,,3,6,36,6,,,,,,,,,,,AMNE20.jpg,AMSA10.jpg,AMNE16.jpg,AMSA15.jpg,AMSA10.jpg,MS,2,num_6,16,num_6,1.16668746126,,,2017_Apr_20_1417,59.9987491458,FEMA4ImagesEEG,001,200192,
AFNE01.JPG,AFNE01.JPG,AFNE01.JPG,AFNE01.JPG,AFNE01.JPG,AFNE01.JPG,,,,,,,,,,,,,3,7,37,9,,,,,,,,,,,AMSA20.jpg,AMSA12.jpg,AMNE18.jpg,AMNE04.jpg,AMNE04.jpg,MN,1,num_4,32,num_8,0.850179244997,,,2017_Apr_20_1417,59.9987491458,FEMA4ImagesEEG,001,200192,
AFNE01.JPG,AFNE01.JPG,AFNE01.JPG,AFNE01.JPG,AFNE01.JPG,AFNE01.JPG,,,,,,,,,,,,,3,8,38,5,,,,,,,,,,,AMSA01.jpg,AMNE19.jpg,AMSA13.jpg,AMNE07.jpg,AMSA13.jpg,MS,2,num_2,16,num_2,0.916761792498,,,2017_Apr_20_1417,59.9987491458,FEMA4ImagesEEG,001,200192,
AFNE01.JPG,AFNE01.JPG,AFNE01.JPG,AFNE01.JPG,AFNE01.JPG,AFNE01.JPG,,,,,,,,,,,,,3,9,39,3,,,,,,,,,,,AMSA15.jpg,AMNE06.jpg,AMSA11.jpg,AMNE18.jpg,AMSA15.jpg,MS,2,num_8,16,num_8,0.666903799749,,,2017_Apr_20_1417,59.9987491458,FEMA4ImagesEEG,001,200192,
AFNE01.JPG,AFNE01.JPG,AFNE01.JPG,AFNE01.JPG,AFNE01.JPG,AFNE01.JPG,,,,,,,,,,,,,4,0,40,5,,,,,,,,,,,AMNE14.jpg,AMSA14.jpg,AMSA17.jpg,AMNE01.jpg,AMNE01.jpg,MN,1,num_4,16,num_4,1.0499871865,,,2017_Apr_20_1417,59.9987491458,FEMA4ImagesEEG,001,200192,
AFNE01.JPG,AFNE01.JPG,AFNE01.JPG,AFNE01.JPG,AFNE01.JPG,AFNE01.JPG,,,,,,,,,,,,,4,1,41,9,,,,,,,,,,,AMNE03.jpg,AMSA08.jpg,AMSA09.jpg,AMNE05.jpg,AMSA09.jpg,MS,2,num_2,32,num_6,1.18348007684,,,2017_Apr_20_1417,59.9987491458,FEMA4ImagesEEG,001,200192,
AFNE01.JPG,AFNE01.JPG,AFNE01.JPG,AFNE01.JPG,AFNE01.JPG,AFNE01.JPG,,,,,,,,,,,,,4,2,42,0,,,,,,,,,,,AMSA11.jpg,AMNE06.jpg,AMNE18.jpg,AMSA12.jpg,AMSA11.jpg,MS,2,num_8,32,num_2,0.983524274663,,,2017_Apr_20_1417,59.9987491458,FEMA4ImagesEEG,001,200192,
AFNE01.JPG,AFNE01.JPG,AFNE01.JPG,AFNE01.JPG,AFNE01.JPG,AFNE01.JPG,,,,,,,,,,,,,4,3,43,7,,,,,,,,,,,AMNE11.jpg,AMNE16.jpg,AMSA03.jpg,AMSA08.jpg,AMSA03.jpg,MS,2,num_2,16,num_2,0.550150603056,,,2017_Apr_20_1417,59.9987491458,FEMA4ImagesEEG,001,200192,
AFNE01.JPG,AFNE01.JPG,AFNE01.JPG,AFNE01.JPG,AFNE01.JPG,AFNE01.JPG,,,,,,,,,,,,,4,4,44,3,,,,,,,,,,,AMSA07.jpg,AMSA11.jpg,AMNE19.jpg,AMNE01.jpg,AMSA11.jpg,MS,2,num_6,16,num_6,0.566802414134,,,2017_Apr_20_1417,59.9987491458,FEMA4ImagesEEG,001,200192,
AFNE01.JPG,AFNE01.JPG,AFNE01.JPG,AFNE01.JPG,AFNE01.JPG,AFNE01.JPG,,,,,,,,,,,,,4,5,45,8,,,,,,,,,,,AMSA06.jpg,AMNE11.jpg,AMSA07.jpg,AMNE03.jpg,AMNE03.jpg,MN,1,num_4,32,num_6,0.900160016725,,,2017_Apr_20_1417,59.9987491458,FEMA4ImagesEEG,001,200192,
AFNE01.JPG,AFNE01.JPG,AFNE01.JPG,AFNE01.JPG,AFNE01.JPG,AFNE01.JPG,,,,,,,,,,,,,4,6,46,1,,,,,,,,,,,AMNE12.jpg,AMSA03.jpg,AMNE04.jpg,AMSA04.jpg,AMSA03.jpg,MS,2,num_6,32,num_4,0.60015061911,,,2017_Apr_20_1417,59.9987491458,FEMA4ImagesEEG,001,200192,
AFNE01.JPG,AFNE01.JPG,AFNE01.JPG,AFNE01.JPG,AFNE01.JPG,AFNE01.JPG,,,,,,,,,,,,,4,7,47,4,,,,,,,,,,,AMSA18.jpg,AMSA16.jpg,AMNE01.jpg,AMNE14.jpg,AMNE01.jpg,MN,1,num_2,32,num_4,1.05016391369,,,2017_Apr_20_1417,59.9987491458,FEMA4ImagesEEG,001,200192,
AFNE01.JPG,AFNE01.JPG,AFNE01.JPG,AFNE01.JPG,AFNE01.JPG,AFNE01.JPG,,,,,,,,,,,,,4,8,48,2,,,,,,,,,,,AMSA11.jpg,AMNE01.jpg,AMSA18.jpg,AMNE15.jpg,AMSA11.jpg,MS,2,num_8,32,num_2,0.950149448414,,,2017_Apr_20_1417,59.9987491458,FEMA4ImagesEEG,001,200192,
AFNE01.JPG,AFNE01.JPG,AFNE01.JPG,AFNE01.JPG,AFNE01.JPG,AFNE01.JPG,,,,,,,,,,,,,4,9,49,6,,,,,,,,,,,AMNE01.jpg,AMSA20.jpg,AMNE02.jpg,AMSA02.jpg,AMNE01.jpg,MN,1,num_8,32,num_6,0.76678034733,,,2017_Apr_20_1417,59.9987491458,FEMA4ImagesEEG,001,200192,
AFNE01.JPG,AFNE01.JPG,AFNE01.JPG,AFNE01.JPG,AFNE01.JPG,AFNE01.JPG,,,,,,,,,,,,,5,0,50,9,,,,,,,,,,,AMSA14.jpg,AMNE17.jpg,AMNE09.jpg,AMSA08.jpg,AMNE09.jpg,MN,1,num_2,32,num_8,0.516837358649,,,2017_Apr_20_1417,59.9987491458,FEMA4ImagesEEG,001,200192,
AFNE01.JPG,AFNE01.JPG,AFNE01.JPG,AFNE01.JPG,AFNE01.JPG,AFNE01.JPG,,,,,,,,,,,,,5,1,51,8,,,,,,,,,,,AMSA12.jpg,AMSA04.jpg,AMNE07.jpg,AMNE12.jpg,AMSA12.jpg,MS,2,num_8,32,num_4,0.78345781751,,,2017_Apr_20_1417,59.9987491458,FEMA4ImagesEEG,001,200192,
AFNE01.JPG,AFNE01.JPG,AFNE01.JPG,AFNE01.JPG,AFNE01.JPG,AFNE01.JPG,,,,,,,,,,,,,5,2,52,2,,,,,,,,,,,AMSA02.jpg,AMNE07.jpg,AMNE01.jpg,AMSA15.jpg,AMNE01.jpg,MN,1,num_2,16,num_2,0.716762690572,,,2017_Apr_20_1417,59.9987491458,FEMA4ImagesEEG,001,200192,
AFNE01.JPG,AFNE01.JPG,AFNE01.JPG,AFNE01.JPG,AFNE01.JPG,AFNE01.JPG,,,,,,,,,,,,,5,3,53,7,,,,,,,,,,,AMSA15.jpg,AMNE05.jpg,AMSA12.jpg,AMNE18.jpg,AMSA12.jpg,MS,2,num_2,16,num_2,0.966789392114,,,2017_Apr_20_1417,59.9987491458,FEMA4ImagesEEG,001,200192,
AFNE01.JPG,AFNE01.JPG,AFNE01.JPG,AFNE01.JPG,AFNE01.JPG,AFNE01.JPG,,,,,,,,,,,,,5,4,54,4,,,,,,,,,,,AMNE01.jpg,AMSA04.jpg,AMNE08.jpg,AMSA11.jpg,AMSA11.jpg,MS,2,num_4,32,num_6,1.01709539327,,,2017_Apr_20_1417,59.9987491458,FEMA4ImagesEEG,001,200192,
AFNE01.JPG,AFNE01.JPG,AFNE01.JPG,AFNE01.JPG,AFNE01.JPG,AFNE01.JPG,,,,,,,,,,,,,5,5,55,1,,,,,,,,,,,AMSA12.jpg,AMNE09.jpg,AMSA03.jpg,AMNE13.jpg,AMSA03.jpg,MS,2,num_2,16,num_2,0.850153265172,,,2017_Apr_20_1417,59.9987491458,FEMA4ImagesEEG,001,200192,
AFNE01.JPG,AFNE01.JPG,AFNE01.JPG,AFNE01.JPG,AFNE01.JPG,AFNE01.JPG,,,,,,,,,,,,,5,6,56,6,,,,,,,,,,,AMSA13.jpg,AMSA18.jpg,AMNE06.jpg,AMNE20.jpg,AMSA13.jpg,MS,2,num_8,32,num_4,0.783465194516,,,2017_Apr_20_1417,59.9987491458,FEMA4ImagesEEG,001,200192,
AFNE01.JPG,AFNE01.JPG,AFNE01.JPG,AFNE01.JPG,AFNE01.JPG,AFNE01.JPG,,,,,,,,,,,,,5,7,57,3,,,,,,,,,,,AMNE19.jpg,AMSA06.jpg,AMNE14.jpg,AMSA16.jpg,AMNE14.jpg,MN,1,num_2,16,num_2,0.833480926754,,,2017_Apr_20_1417,59.9987491458,FEMA4ImagesEEG,001,200192,
AFNE01.JPG,AFNE01.JPG,AFNE01.JPG,AFNE01.JPG,AFNE01.JPG,AFNE01.JPG,,,,,,,,,,,,,5,8,58,5,,,,,,,,,,,AMSA11.jpg,AMSA17.jpg,AMNE02.jpg,AMNE01.jpg,AMNE02.jpg,MN,1,num_2,16,num_2,0.616755922965,,,2017_Apr_20_1417,59.9987491458,FEMA4ImagesEEG,001,200192,
AFNE01.JPG,AFNE01.JPG,AFNE01.JPG,AFNE01.JPG,AFNE01.JPG,AFNE01.JPG,,,,,,,,,,,,,5,9,59,0,,,,,,,,,,,AMSA09.jpg,AMNE05.jpg,AMSA01.jpg,AMNE02.jpg,AMSA09.jpg,MS,2,num_8,16,num_8,0.700135255698,,,2017_Apr_20_1417,59.9987491458,FEMA4ImagesEEG,001,200192,
,,,,,,,,,,,,,,,,,,,,,,,,,,,,,,,,,,,,,,,,,,,space,17.1321810675,2017_Apr_20_1417,59.9987491458,FEMA4ImagesEEG,001,200192,
AFNE01.JPG,AFNE01.JPG,AFNE01.JPG,AFNE01.JPG,AFNE01.JPG,AFNE01.JPG,,,,,,,,,,,,,,,,,0,0,0,1,,,,,,,AFSA07.jpg,AFSA06.jpg,AFNE10.jpg,AFNE07.jpg,AFNE10.jpg,FN,3,num_2,32,num_6,0.750137196155,,,2017_Apr_20_1417,59.9987491458,FEMA4ImagesEEG,001,200192,
AFNE01.JPG,AFNE01.JPG,AFNE01.JPG,AFNE01.JPG,AFNE01.JPG,AFNE01.JPG,,,,,,,,,,,,,,,,,0,1,1,7,,,,,,,AFSA16.jpg,AFNE06.jpg,AFSA07.jpg,AFNE02.jpg,AFNE02.jpg,FN,3,num_4,32,num_8,0.850153585896,,,2017_Apr_20_1417,59.9987491458,FEMA4ImagesEEG,001,200192,
AFNE01.JPG,AFNE01.JPG,AFNE01.JPG,AFNE01.JPG,AFNE01.JPG,AFNE01.JPG,,,,,,,,,,,,,,,,,0,2,2,8,,,,,,,AFSA04.jpg,AFSA06.jpg,AFNE16.jpg,AFNE07.jpg,AFSA06.jpg,FS,4,num_6,32,num_4,0.733587059367,,,2017_Apr_20_1417,59.9987491458,FEMA4ImagesEEG,001,200192,
AFNE01.JPG,AFNE01.JPG,AFNE01.JPG,AFNE01.JPG,AFNE01.JPG,AFNE01.JPG,,,,,,,,,,,,,,,,,0,3,3,3,,,,,,,AFNE09.jpg,AFNE08.jpg,AFSA12.jpg,AFSA01.jpg,AFNE08.jpg,FN,3,num_6,32,num_2,0.549992157903,,,2017_Apr_20_1417,59.9987491458,FEMA4ImagesEEG,001,200192,
AFNE01.JPG,AFNE01.JPG,AFNE01.JPG,AFNE01.JPG,AFNE01.JPG,AFNE01.JPG,,,,,,,,,,,,,,,,,0,4,4,9,,,,,,,AFSA10.jpg,AFNE09.jpg,AFSA18.jpg,AFNE10.jpg,AFNE10.jpg,FN,3,num_4,16,num_4,0.800139778119,,,2017_Apr_20_1417,59.9987491458,FEMA4ImagesEEG,001,200192,
AFNE01.JPG,AFNE01.JPG,AFNE01.JPG,AFNE01.JPG,AFNE01.JPG,AFNE01.JPG,,,,,,,,,,,,,,,,,0,5,5,0,,,,,,,AFNE01.jpg,AFSA06.jpg,AFNE13.jpg,AFSA15.jpg,AFSA06.jpg,FS,4,num_6,16,num_6,1.08351147716,,,2017_Apr_20_1417,59.9987491458,FEMA4ImagesEEG,001,200192,
AFNE01.JPG,AFNE01.JPG,AFNE01.JPG,AFNE01.JPG,AFNE01.JPG,AFNE01.JPG,,,,,,,,,,,,,,,,,0,6,6,5,,,,,,,AFNE11.jpg,AFSA03.jpg,AFSA07.jpg,AFNE04.jpg,AFSA07.jpg,FS,4,num_2,16,num_2,0.833452380961,,,2017_Apr_20_1417,59.9987491458,FEMA4ImagesEEG,001,200192,
AFNE01.JPG,AFNE01.JPG,AFNE01.JPG,AFNE01.JPG,AFNE01.JPG,AFNE01.JPG,,,,,,,,,,,,,,,,,0,7,7,4,,,,,,,AFSA19.jpg,AFNE19.jpg,AFNE18.jpg,AFSA04.jpg,AFNE19.jpg,FN,3,num_6,16,num_6,0.816791589197,,,2017_Apr_20_1417,59.9987491458,FEMA4ImagesEEG,001,200192,
AFNE01.JPG,AFNE01.JPG,AFNE01.JPG,AFNE01.JPG,AFNE01.JPG,AFNE01.JPG,,,,,,,,,,,,,,,,,0,8,8,6,,,,,,,AFNE05.jpg,AFSA13.jpg,AFNE03.jpg,AFSA10.jpg,AFSA13.jpg,FS,4,num_6,32,num_4,0.933456903382,,,2017_Apr_20_1417,59.9987491458,FEMA4ImagesEEG,001,200192,
AFNE01.JPG,AFNE01.JPG,AFNE01.JPG,AFNE01.JPG,AFNE01.JPG,AFNE01.JPG,,,,,,,,,,,,,,,,,0,9,9,2,,,,,,,AFSA20.jpg,AFNE20.jpg,AFNE02.jpg,AFSA03.jpg,AFSA20.jpg,FS,4,num_8,32,num_6,0.916839732148,,,2017_Apr_20_1417,59.9987491458,FEMA4ImagesEEG,001,200192,
AFNE01.JPG,AFNE01.JPG,AFNE01.JPG,AFNE01.JPG,AFNE01.JPG,AFNE01.JPG,,,,,,,,,,,,,,,,,1,0,10,0,,,,,,,AFNE02.jpg,AFSA07.jpg,AFSA17.jpg,AFNE20.jpg,AFSA07.jpg,FS,4,num_6,16,num_6,0.750036484038,,,2017_Apr_20_1417,59.9987491458,FEMA4ImagesEEG,001,200192,
AFNE01.JPG,AFNE01.JPG,AFNE01.JPG,AFNE01.JPG,AFNE01.JPG,AFNE01.JPG,,,,,,,,,,,,,,,,,1,1,11,1,,,,,,,AFNE18.jpg,AFSA04.jpg,AFSA16.jpg,AFNE12.jpg,AFSA16.jpg,FS,4,num_2,16,num_2,0.883456245938,,,2017_Apr_20_1417,59.9987491458,FEMA4ImagesEEG,001,200192,
AFNE01.JPG,AFNE01.JPG,AFNE01.JPG,AFNE01.JPG,AFNE01.JPG,AFNE01.JPG,,,,,,,,,,,,,,,,,1,2,12,3,,,,,,,AFNE16.jpg,AFNE03.jpg,AFSA02.jpg,AFSA20.jpg,AFNE16.jpg,FN,3,num_8,32,num_4,0.666653623281,,,2017_Apr_20_1417,59.9987491458,FEMA4ImagesEEG,001,200192,
AFNE01.JPG,AFNE01.JPG,AFNE01.JPG,AFNE01.JPG,AFNE01.JPG,AFNE01.JPG,,,,,,,,,,,,,,,,,1,3,13,7,,,,,,,AFSA12.jpg,AFNE12.jpg,AFNE09.jpg,AFSA06.jpg,AFNE12.jpg,FN,3,num_6,16,num_6,0.550159262959,,,2017_Apr_20_1417,59.9987491458,FEMA4ImagesEEG,001,200192,
AFNE01.JPG,AFNE01.JPG,AFNE01.JPG,AFNE01.JPG,AFNE01.JPG,AFNE01.JPG,,,,,,,,,,,,,,,,,1,4,14,8,,,,,,,AFSA06.jpg,AFSA09.jpg,AFNE18.jpg,AFNE02.jpg,AFSA06.jpg,FS,4,num_8,16,num_8,1.1001219129,,,2017_Apr_20_1417,59.9987491458,FEMA4ImagesEEG,001,200192,
AFNE01.JPG,AFNE01.JPG,AFNE01.JPG,AFNE01.JPG,AFNE01.JPG,AFNE01.JPG,,,,,,,,,,,,,,,,,1,5,15,2,,,,,,,AFNE08.jpg,AFNE14.jpg,AFSA11.jpg,AFSA08.jpg,AFSA08.jpg,FS,4,num_4,16,num_4,1.06673874741,,,2017_Apr_20_1417,59.9987491458,FEMA4ImagesEEG,001,200192,
AFNE01.JPG,AFNE01.JPG,AFNE01.JPG,AFNE01.JPG,AFNE01.JPG,AFNE01.JPG,,,,,,,,,,,,,,,,,1,6,16,4,,,,,,,AFNE04.jpg,AFSA16.jpg,AFNE18.jpg,AFSA04.jpg,AFSA16.jpg,FS,4,num_6,16,num_6,0.550153810473,,,2017_Apr_20_1417,59.9987491458,FEMA4ImagesEEG,001,200192,
AFNE01.JPG,AFNE01.JPG,AFNE01.JPG,AFNE01.JPG,AFNE01.JPG,AFNE01.JPG,,,,,,,,,,,,,,,,,1,7,17,9,,,,,,,AFNE16.jpg,AFSA20.jpg,AFNE01.jpg,AFSA01.jpg,AFSA01.jpg,FS,4,num_4,32,num_2,0.733432783803,,,2017_Apr_20_1417,59.9987491458,FEMA4ImagesEEG,001,200192,
AFNE01.JPG,AFNE01.JPG,AFNE01.JPG,AFNE01.JPG,AFNE01.JPG,AFNE01.JPG,,,,,,,,,,,,,,,,,1,8,18,6,,,,,,,AFNE14.jpg,AFNE16.jpg,AFSA16.jpg,AFSA15.jpg,AFSA15.jpg,FS,4,num_4,32,num_6,0.466846964846,,,2017_Apr_20_1417,59.9987491458,FEMA4ImagesEEG,001,200192,
AFNE01.JPG,AFNE01.JPG,AFNE01.JPG,AFNE01.JPG,AFNE01.JPG,AFNE01.JPG,,,,,,,,,,,,,,,,,1,9,19,5,,,,,,,AFSA12.jpg,AFSA10.jpg,AFNE09.jpg,AFNE04.jpg,AFNE04.jpg,FN,3,num_4,32,num_2,0.633523200173,,,2017_Apr_20_1417,59.9987491458,FEMA4ImagesEEG,001,200192,
AFNE01.JPG,AFNE01.JPG,AFNE01.JPG,AFNE01.JPG,AFNE01.JPG,AFNE01.JPG,,,,,,,,,,,,,,,,,2,0,20,6,,,,,,,AFSA06.jpg,AFNE13.jpg,AFSA19.jpg,AFNE15.jpg,AFSA06.jpg,FS,4,num_8,32,num_2,0.950093319057,,,2017_Apr_20_1417,59.9987491458,FEMA4ImagesEEG,001,200192,
AFNE01.JPG,AFNE01.JPG,AFNE01.JPG,AFNE01.JPG,AFNE01.JPG,AFNE01.JPG,,,,,,,,,,,,,,,,,2,1,21,8,,,,,,,AFNE15.jpg,AFSA07.jpg,AFSA20.jpg,AFNE02.jpg,AFSA07.jpg,FS,4,num_6,32,num_2,0.533501037105,,,2017_Apr_20_1417,59.9987491458,FEMA4ImagesEEG,001,200192,
AFNE01.JPG,AFNE01.JPG,AFNE01.JPG,AFNE01.JPG,AFNE01.JPG,AFNE01.JPG,,,,,,,,,,,,,,,,,2,2,22,7,,,,,,,AFNE14.jpg,AFSA08.jpg,AFSA19.jpg,AFNE19.jpg,AFNE19.jpg,FN,3,num_4,32,num_2,0.700209346425,,,2017_Apr_20_1417,59.9987491458,FEMA4ImagesEEG,001,200192,
AFNE01.JPG,AFNE01.JPG,AFNE01.JPG,AFNE01.JPG,AFNE01.JPG,AFNE01.JPG,,,,,,,,,,,,,,,,,2,3,23,0,,,,,,,AFNE01.jpg,AFSA06.jpg,AFSA11.jpg,AFNE05.jpg,AFNE05.jpg,FN,3,num_4,32,num_6,0.716830687306,,,2017_Apr_20_1417,59.9987491458,FEMA4ImagesEEG,001,200192,
AFNE01.JPG,AFNE01.JPG,AFNE01.JPG,AFNE01.JPG,AFNE01.JPG,AFNE01.JPG,,,,,,,,,,,,,,,,,2,4,24,2,,,,,,,AFNE13.jpg,AFNE10.jpg,AFSA07.jpg,AFSA16.jpg,AFNE13.jpg,FN,3,num_8,32,num_2,0.916732926038,,,2017_Apr_20_1417,59.9987491458,FEMA4ImagesEEG,001,200192,
AFNE01.JPG,AFNE01.JPG,AFNE01.JPG,AFNE01.JPG,AFNE01.JPG,AFNE01.JPG,,,,,,,,,,,,,,,,,2,5,25,5,,,,,,,AFSA02.jpg,AFNE15.jpg,AFSA18.jpg,AFNE06.jpg,AFNE15.jpg,FN,3,num_6,16,num_6,0.733486667974,,,2017_Apr_20_1417,59.9987491458,FEMA4ImagesEEG,001,200192,
AFNE01.JPG,AFNE01.JPG,AFNE01.JPG,AFNE01.JPG,AFNE01.JPG,AFNE01.JPG,,,,,,,,,,,,,,,,,2,6,26,4,,,,,,,AFSA11.jpg,AFNE03.jpg,AFSA10.jpg,AFNE08.jpg,AFNE08.jpg,FN,3,num_4,16,num_4,0.800109307864,,,2017_Apr_20_1417,59.9987491458,FEMA4ImagesEEG,001,200192,
AFNE01.JPG,AFNE01.JPG,AFNE01.JPG,AFNE01.JPG,AFNE01.JPG,AFNE01.JPG,,,,,,,,,,,,,,,,,2,7,27,9,,,,,,,AFSA20.jpg,AFSA10.jpg,AFNE11.jpg,AFNE10.jpg,AFSA20.jpg,FS,4,num_8,16,num_8,1.13338415977,,,2017_Apr_20_1417,59.9987491458,FEMA4ImagesEEG,001,200192,
AFNE01.JPG,AFNE01.JPG,AFNE01.JPG,AFNE01.JPG,AFNE01.JPG,AFNE01.JPG,,,,,,,,,,,,,,,,,2,8,28,1,,,,,,,AFSA05.jpg,AFSA01.jpg,AFNE08.jpg,AFNE12.jpg,AFSA05.jpg,FS,4,num_8,32,num_6,0.750129177643,,,2017_Apr_20_1417,59.9987491458,FEMA4ImagesEEG,001,200192,
AFNE01.JPG,AFNE01.JPG,AFNE01.JPG,AFNE01.JPG,AFNE01.JPG,AFNE01.JPG,,,,,,,,,,,,,,,,,2,9,29,3,,,,,,,AFSA10.jpg,AFNE04.jpg,AFSA19.jpg,AFNE09.jpg,AFNE09.jpg,FN,3,num_4,16,num_4,1.15009883576,,,2017_Apr_20_1417,59.9987491458,FEMA4ImagesEEG,001,200192,
AFNE01.JPG,AFNE01.JPG,AFNE01.JPG,AFNE01.JPG,AFNE01.JPG,AFNE01.JPG,,,,,,,,,,,,,,,,,3,0,30,6,,,,,,,AFNE19.jpg,AFSA04.jpg,AFNE17.jpg,AFSA13.jpg,AFNE17.jpg,FN,3,num_2,32,num_8,0.583473790321,,,2017_Apr_20_1417,59.9987491458,FEMA4ImagesEEG,001,200192,
AFNE01.JPG,AFNE01.JPG,AFNE01.JPG,AFNE01.JPG,AFNE01.JPG,AFNE01.JPG,,,,,,,,,,,,,,,,,3,1,31,0,,,,,,,AFNE16.jpg,AFNE17.jpg,AFSA14.jpg,AFSA06.jpg,AFNE17.jpg,FN,3,num_6,32,num_2,0.633436279895,,,2017_Apr_20_1417,59.9987491458,FEMA4ImagesEEG,001,200192,
AFNE01.JPG,AFNE01.JPG,AFNE01.JPG,AFNE01.JPG,AFNE01.JPG,AFNE01.JPG,,,,,,,,,,,,,,,,,3,2,32,4,,,,,,,AFNE05.jpg,AFSA06.jpg,AFNE14.jpg,AFSA14.jpg,AFSA14.jpg,FS,4,num_4,32,num_6,0.600161524198,,,2017_Apr_20_1417,59.9987491458,FEMA4ImagesEEG,001,200192,
AFNE01.JPG,AFNE01.JPG,AFNE01.JPG,AFNE01.JPG,AFNE01.JPG,AFNE01.JPG,,,,,,,,,,,,,,,,,3,3,33,5,,,,,,,AFSA15.jpg,AFNE20.jpg,AFNE16.jpg,AFSA04.jpg,AFSA04.jpg,FS,4,num_4,16,num_4,0.816814361664,,,2017_Apr_20_1417,59.9987491458,FEMA4ImagesEEG,001,200192,
AFNE01.JPG,AFNE01.JPG,AFNE01.JPG,AFNE01.JPG,AFNE01.JPG,AFNE01.JPG,,,,,,,,,,,,,,,,,3,4,34,8,,,,,,,AFSA07.jpg,AFNE03.jpg,AFNE18.jpg,AFSA01.jpg,AFSA01.jpg,FS,4,num_4,16,num_4,0.716787066776,,,2017_Apr_20_1417,59.9987491458,FEMA4ImagesEEG,001,200192,
AFNE01.JPG,AFNE01.JPG,AFNE01.JPG,AFNE01.JPG,AFNE01.JPG,AFNE01.JPG,,,,,,,,,,,,,,,,,3,5,35,3,,,,,,,AFSA03.jpg,AFSA08.jpg,AFNE06.jpg,AFNE20.jpg,AFNE06.jpg,FN,3,num_2,32,num_4,1.08332063747,,,2017_Apr_20_1417,59.9987491458,FEMA4ImagesEEG,001,200192,
AFNE01.JPG,AFNE01.JPG,AFNE01.JPG,AFNE01.JPG,AFNE01.JPG,AFNE01.JPG,,,,,,,,,,,,,,,,,3,6,36,2,,,,,,,AFNE02.jpg,AFSA15.jpg,AFSA04.jpg,AFNE13.jpg,AFNE13.jpg,FN,3,num_4,32,num_6,0.583482450282,,,2017_Apr_20_1417,59.9987491458,FEMA4ImagesEEG,001,200192,
AFNE01.JPG,AFNE01.JPG,AFNE01.JPG,AFNE01.JPG,AFNE01.JPG,AFNE01.JPG,,,,,,,,,,,,,,,,,3,7,37,9,,,,,,,AFSA20.jpg,AFNE18.jpg,AFNE11.jpg,AFSA16.jpg,AFSA16.jpg,FS,4,num_4,16,num_4,0.666795389901,,,2017_Apr_20_1417,59.9987491458,FEMA4ImagesEEG,001,200192,
AFNE01.JPG,AFNE01.JPG,AFNE01.JPG,AFNE01.JPG,AFNE01.JPG,AFNE01.JPG,,,,,,,,,,,,,,,,,3,8,38,1,,,,,,,AFSA02.jpg,AFNE07.jpg,AFNE08.jpg,AFSA11.jpg,AFSA11.jpg,FS,4,num_4,32,num_6,0.916746076371,,,2017_Apr_20_1417,59.9987491458,FEMA4ImagesEEG,001,200192,
AFNE01.JPG,AFNE01.JPG,AFNE01.JPG,AFNE01.JPG,AFNE01.JPG,AFNE01.JPG,,,,,,,,,,,,,,,,,3,9,39,7,,,,,,,AFSA18.jpg,AFNE10.jpg,AFNE03.jpg,AFSA06.jpg,AFSA18.jpg,FS,4,num_8,32,num_4,0.650128824869,,,2017_Apr_20_1417,59.9987491458,FEMA4ImagesEEG,001,200192,
AFNE01.JPG,AFNE01.JPG,AFNE01.JPG,AFNE01.JPG,AFNE01.JPG,AFNE01.JPG,,,,,,,,,,,,,,,,,4,0,40,2,,,,,,,AFNE06.jpg,AFSA03.jpg,AFNE07.jpg,AFSA10.jpg,AFSA03.jpg,FS,4,num_6,32,num_4,0.816819493484,,,2017_Apr_20_1417,59.9987491458,FEMA4ImagesEEG,001,200192,
AFNE01.JPG,AFNE01.JPG,AFNE01.JPG,AFNE01.JPG,AFNE01.JPG,AFNE01.JPG,,,,,,,,,,,,,,,,,4,1,41,0,,,,,,,AFNE10.jpg,AFSA05.jpg,AFSA08.jpg,AFNE04.jpg,AFNE10.jpg,FN,3,num_8,32,num_6,0.333812731376,,,2017_Apr_20_1417,59.9987491458,FEMA4ImagesEEG,001,200192,
AFNE01.JPG,AFNE01.JPG,AFNE01.JPG,AFNE01.JPG,AFNE01.JPG,AFNE01.JPG,,,,,,,,,,,,,,,,,4,2,42,8,,,,,,,AFNE20.jpg,AFSA02.jpg,AFNE18.jpg,AFSA11.jpg,AFNE18.jpg,FN,3,num_2,32,num_4,0.550111793564,,,2017_Apr_20_1417,59.9987491458,FEMA4ImagesEEG,001,200192,
AFNE01.JPG,AFNE01.JPG,AFNE01.JPG,AFNE01.JPG,AFNE01.JPG,AFNE01.JPG,,,,,,,,,,,,,,,,,4,3,43,6,,,,,,,AFSA01.jpg,AFNE01.jpg,AFSA08.jpg,AFNE14.jpg,AFSA01.jpg,FS,4,num_8,16,num_8,0.583568729111,,,2017_Apr_20_1417,59.9987491458,FEMA4ImagesEEG,001,200192,
AFNE01.JPG,AFNE01.JPG,AFNE01.JPG,AFNE01.JPG,AFNE01.JPG,AFNE01.JPG,,,,,,,,,,,,,,,,,4,4,44,1,,,,,,,AFNE12.jpg,AFNE05.jpg,AFSA14.jpg,AFSA09.jpg,AFNE05.jpg,FN,3,num_6,32,num_8,0.0503207551083,,,2017_Apr_20_1417,59.9987491458,FEMA4ImagesEEG,001,200192,
AFNE01.JPG,AFNE01.JPG,AFNE01.JPG,AFNE01.JPG,AFNE01.JPG,AFNE01.JPG,,,,,,,,,,,,,,,,,4,5,45,4,,,,,,,AFNE16.jpg,AFNE11.jpg,AFSA05.jpg,AFSA18.jpg,AFNE16.jpg,FN,3,num_8,32,num_6,0.900193052832,,,2017_Apr_20_1417,59.9987491458,FEMA4ImagesEEG,001,200192,
AFNE01.JPG,AFNE01.JPG,AFNE01.JPG,AFNE01.JPG,AFNE01.JPG,AFNE01.JPG,,,,,,,,,,,,,,,,,4,6,46,3,,,,,,,AFSA09.jpg,AFNE18.jpg,AFNE03.jpg,AFSA02.jpg,AFNE18.jpg,FN,3,num_6,32,num_4,0.766660711612,,,2017_Apr_20_1417,59.9987491458,FEMA4ImagesEEG,001,200192,
AFNE01.JPG,AFNE01.JPG,AFNE01.JPG,AFNE01.JPG,AFNE01.JPG,AFNE01.JPG,,,,,,,,,,,,,,,,,4,7,47,5,,,,,,,AFSA16.jpg,AFSA18.jpg,AFNE05.jpg,AFNE07.jpg,AFSA18.jpg,FS,4,num_6,16,num_6,0.666818483151,,,2017_Apr_20_1417,59.9987491458,FEMA4ImagesEEG,001,200192,
AFNE01.JPG,AFNE01.JPG,AFNE01.JPG,AFNE01.JPG,AFNE01.JPG,AFNE01.JPG,,,,,,,,,,,,,,,,,4,8,48,9,,,,,,,AFSA08.jpg,AFNE08.jpg,AFNE15.jpg,AFSA01.jpg,AFSA08.jpg,FS,4,num_8,32,num_6,0.766781630227,,,2017_Apr_20_1417,59.9987491458,FEMA4ImagesEEG,001,200192,
AFNE01.JPG,AFNE01.JPG,AFNE01.JPG,AFNE01.JPG,AFNE01.JPG,AFNE01.JPG,,,,,,,,,,,,,,,,,4,9,49,7,,,,,,,AFSA08.jpg,AFNE16.jpg,AFNE13.jpg,AFSA20.jpg,AFSA20.jpg,FS,4,num_4,32,num_8,0.816804098024,,,2017_Apr_20_1417,59.9987491458,FEMA4ImagesEEG,001,200192,
AFNE01.JPG,AFNE01.JPG,AFNE01.JPG,AFNE01.JPG,AFNE01.JPG,AFNE01.JPG,,,,,,,,,,,,,,,,,5,0,50,2,,,,,,,AFNE14.jpg,AFSA05.jpg,AFNE19.jpg,AFSA20.jpg,AFSA20.jpg,FS,4,num_4,32,num_8,1.1997970363,,,2017_Apr_20_1417,59.9987491458,FEMA4ImagesEEG,001,200192,
AFNE01.JPG,AFNE01.JPG,AFNE01.JPG,AFNE01.JPG,AFNE01.JPG,AFNE01.JPG,,,,,,,,,,,,,,,,,5,1,51,1,,,,,,,AFNE04.jpg,AFNE06.jpg,AFSA20.jpg,AFSA01.jpg,AFNE04.jpg,FN,3,num_8,16,num_8,1.18340791052,,,2017_Apr_20_1417,59.9987491458,FEMA4ImagesEEG,001,200192,
AFNE01.JPG,AFNE01.JPG,AFNE01.JPG,AFNE01.JPG,AFNE01.JPG,AFNE01.JPG,,,,,,,,,,,,,,,,,5,2,52,0,,,,,,,AFSA04.jpg,AFNE13.jpg,AFNE11.jpg,AFSA15.jpg,AFNE13.jpg,FN,3,num_6,16,num_6,1.500063346,,,2017_Apr_20_1417,59.9987491458,FEMA4ImagesEEG,001,200192,
AFNE01.JPG,AFNE01.JPG,AFNE01.JPG,AFNE01.JPG,AFNE01.JPG,AFNE01.JPG,,,,,,,,,,,,,,,,,5,3,53,9,,,,,,,AFNE01.jpg,AFSA15.jpg,AFSA18.jpg,AFNE18.jpg,AFSA15.jpg,FS,4,num_6,16,num_6,0.967030267173,,,2017_Apr_20_1417,59.9987491458,FEMA4ImagesEEG,001,200192,
AFNE01.JPG,AFNE01.JPG,AFNE01.JPG,AFNE01.JPG,AFNE01.JPG,AFNE01.JPG,,,,,,,,,,,,,,,,,5,4,54,8,,,,,,,AFSA20.jpg,AFSA05.jpg,AFNE09.jpg,AFNE02.jpg,AFNE09.jpg,FN,3,num_2,16,num_2,0.783450440504,,,2017_Apr_20_1417,59.9987491458,FEMA4ImagesEEG,001,200192,
AFNE01.JPG,AFNE01.JPG,AFNE01.JPG,AFNE01.JPG,AFNE01.JPG,AFNE01.JPG,,,,,,,,,,,,,,,,,5,5,55,5,,,,,,,AFSA03.jpg,AFNE19.jpg,AFSA08.jpg,AFNE02.jpg,AFSA03.jpg,FS,4,num_8,16,num_8,0.900139489444,,,2017_Apr_20_1417,59.9987491458,FEMA4ImagesEEG,001,200192,
AFNE01.JPG,AFNE01.JPG,AFNE01.JPG,AFNE01.JPG,AFNE01.JPG,AFNE01.JPG,,,,,,,,,,,,,,,,,5,6,56,3,,,,,,,AFNE17.jpg,AFNE10.jpg,AFSA16.jpg,AFSA06.jpg,AFSA06.jpg,FS,4,num_4,32,num_6,0.783445629466,,,2017_Apr_20_1417,59.9987491458,FEMA4ImagesEEG,001,200192,
AFNE01.JPG,AFNE01.JPG,AFNE01.JPG,AFNE01.JPG,AFNE01.JPG,AFNE01.JPG,,,,,,,,,,,,,,,,,5,7,57,4,,,,,,,AFSA03.jpg,AFNE14.jpg,AFNE19.jpg,AFSA14.jpg,AFSA03.jpg,FS,4,num_8,32,num_4,0.666785126319,,,2017_Apr_20_1417,59.9987491458,FEMA4ImagesEEG,001,200192,
AFNE01.JPG,AFNE01.JPG,AFNE01.JPG,AFNE01.JPG,AFNE01.JPG,AFNE01.JPG,,,,,,,,,,,,,,,,,5,8,58,7,,,,,,,AFNE11.jpg,AFSA02.jpg,AFSA14.jpg,AFNE05.jpg,AFSA02.jpg,FS,4,num_6,16,num_6,0.666782560409,,,2017_Apr_20_1417,59.9987491458,FEMA4ImagesEEG,001,200192,
AFNE01.JPG,AFNE01.JPG,AFNE01.JPG,AFNE01.JPG,AFNE01.JPG,AFNE01.JPG,,,,,,,,,,,,,,,,,5,9,59,6,,,,,,,AFNE09.jpg,AFSA16.jpg,AFNE08.jpg,AFSA10.jpg,AFNE08.jpg,FN,3,num_2,32,num_8,1.0667124468,,,2017_Apr_20_1417,59.9987491458,FEMA4ImagesEEG,001,200192,
,,,,,,,,,,,,,,,,,,,,,,,,,,,,,,,,,,,,,,,,,,,space,51.9293421417,2017_Apr_20_1417,59.9987491458,FEMA4ImagesEEG,001,200192,
AFNE01.JPG,AFNE01.JPG,AFNE01.JPG,AFNE01.JPG,AFNE01.JPG,AFNE01.JPG,,,,,,,,,,,,,,,,,,,,,0,0,0,3,,,AMNE11.jpg,AMSA01.jpg,AMSA06.jpg,AMNE12.jpg,AMSA06.jpg,MS,2,num_2,16,num_2,0.916764999973,,,2017_Apr_20_1417,59.9987491458,FEMA4ImagesEEG,001,200192,
AFNE01.JPG,AFNE01.JPG,AFNE01.JPG,AFNE01.JPG,AFNE01.JPG,AFNE01.JPG,,,,,,,,,,,,,,,,,,,,,0,1,1,7,,,AMSA01.jpg,AMSA16.jpg,AMNE03.jpg,AMNE13.jpg,AMNE13.jpg,MN,1,num_4,16,num_4,0.750251379272,,,2017_Apr_20_1417,59.9987491458,FEMA4ImagesEEG,001,200192,
AFNE01.JPG,AFNE01.JPG,AFNE01.JPG,AFNE01.JPG,AFNE01.JPG,AFNE01.JPG,,,,,,,,,,,,,,,,,,,,,0,2,2,9,,,AMNE03.jpg,AMNE04.jpg,AMSA04.jpg,AMSA10.jpg,AMNE04.jpg,MN,1,num_6,32,num_2,0.783436007216,,,2017_Apr_20_1417,59.9987491458,FEMA4ImagesEEG,001,200192,
AFNE01.JPG,AFNE01.JPG,AFNE01.JPG,AFNE01.JPG,AFNE01.JPG,AFNE01.JPG,,,,,,,,,,,,,,,,,,,,,0,3,3,5,,,AMSA14.jpg,AMNE11.jpg,AMNE15.jpg,AMSA13.jpg,AMSA13.jpg,MS,2,num_4,32,num_2,0.883478056174,,,2017_Apr_20_1417,59.9987491458,FEMA4ImagesEEG,001,200192,
AFNE01.JPG,AFNE01.JPG,AFNE01.JPG,AFNE01.JPG,AFNE01.JPG,AFNE01.JPG,,,,,,,,,,,,,,,,,,,,,0,4,4,1,,,AMSA12.jpg,AMNE05.jpg,AMNE09.jpg,AMSA15.jpg,AMNE09.jpg,MN,1,num_2,32,num_8,0.950152014266,,,2017_Apr_20_1417,59.9987491458,FEMA4ImagesEEG,001,200192,
AFNE01.JPG,AFNE01.JPG,AFNE01.JPG,AFNE01.JPG,AFNE01.JPG,AFNE01.JPG,,,,,,,,,,,,,,,,,,,,,0,5,5,8,,,AMSA15.jpg,AMSA03.jpg,AMNE16.jpg,AMNE02.jpg,AMSA15.jpg,MS,2,num_8,32,num_6,0.833451739512,,,2017_Apr_20_1417,59.9987491458,FEMA4ImagesEEG,001,200192,
AFNE01.JPG,AFNE01.JPG,AFNE01.JPG,AFNE01.JPG,AFNE01.JPG,AFNE01.JPG,,,,,,,,,,,,,,,,,,,,,0,6,6,6,,,AMSA16.jpg,AMNE11.jpg,AMNE15.jpg,AMSA13.jpg,AMNE15.jpg,MN,1,num_2,32,num_8,0.95003109565,,,2017_Apr_20_1417,59.9987491458,FEMA4ImagesEEG,001,200192,
AFNE01.JPG,AFNE01.JPG,AFNE01.JPG,AFNE01.JPG,AFNE01.JPG,AFNE01.JPG,,,,,,,,,,,,,,,,,,,,,0,7,7,0,,,AMSA03.jpg,AMNE08.jpg,AMSA11.jpg,AMNE17.jpg,AMSA11.jpg,MS,2,num_2,32,num_8,0.950133090664,,,2017_Apr_20_1417,59.9987491458,FEMA4ImagesEEG,001,200192,
AFNE01.JPG,AFNE01.JPG,AFNE01.JPG,AFNE01.JPG,AFNE01.JPG,AFNE01.JPG,,,,,,,,,,,,,,,,,,,,,0,8,8,2,,,AMSA15.jpg,AMNE17.jpg,AMSA19.jpg,AMNE16.jpg,AMSA19.jpg,MS,2,num_2,16,num_2,0.600153505744,,,2017_Apr_20_1417,59.9987491458,FEMA4ImagesEEG,001,200192,
AFNE01.JPG,AFNE01.JPG,AFNE01.JPG,AFNE01.JPG,AFNE01.JPG,AFNE01.JPG,,,,,,,,,,,,,,,,,,,,,0,9,9,4,,,AMSA07.jpg,AMNE06.jpg,AMNE07.jpg,AMSA19.jpg,AMSA07.jpg,MS,2,num_8,32,num_6,0.75015547825,,,2017_Apr_20_1417,59.9987491458,FEMA4ImagesEEG,001,200192,
AFNE01.JPG,AFNE01.JPG,AFNE01.JPG,AFNE01.JPG,AFNE01.JPG,AFNE01.JPG,,,,,,,,,,,,,,,,,,,,,1,0,10,0,,,AMNE16.jpg,AMNE10.jpg,AMSA08.jpg,AMSA11.jpg,AMNE10.jpg,MN,1,num_6,16,num_6,0.716815612512,,,2017_Apr_20_1417,59.9987491458,FEMA4ImagesEEG,001,200192,
AFNE01.JPG,AFNE01.JPG,AFNE01.JPG,AFNE01.JPG,AFNE01.JPG,AFNE01.JPG,,,,,,,,,,,,,,,,,,,,,1,1,11,8,,,AMNE12.jpg,AMSA04.jpg,AMSA15.jpg,AMNE07.jpg,AMSA04.jpg,MS,2,num_6,32,num_2,1.4000652383,,,2017_Apr_20_1417,59.9987491458,FEMA4ImagesEEG,001,200192,
AFNE01.JPG,AFNE01.JPG,AFNE01.JPG,AFNE01.JPG,AFNE01.JPG,AFNE01.JPG,,,,,,,,,,,,,,,,,,,,,1,2,12,5,,,AMNE20.jpg,AMSA12.jpg,AMNE13.jpg,AMSA06.jpg,AMNE13.jpg,MN,1,num_2,32,num_6,1.11675832857,,,2017_Apr_20_1417,59.9987491458,FEMA4ImagesEEG,001,200192,
AFNE01.JPG,AFNE01.JPG,AFNE01.JPG,AFNE01.JPG,AFNE01.JPG,AFNE01.JPG,,,,,,,,,,,,,,,,,,,,,1,3,13,7,,,AMSA06.jpg,AMNE18.jpg,AMSA16.jpg,AMNE07.jpg,AMSA06.jpg,MS,2,num_8,16,num_8,0.60000372061,,,2017_Apr_20_1417,59.9987491458,FEMA4ImagesEEG,001,200192,
AFNE01.JPG,AFNE01.JPG,AFNE01.JPG,AFNE01.JPG,AFNE01.JPG,AFNE01.JPG,,,,,,,,,,,,,,,,,,,,,1,4,14,2,,,AMNE12.jpg,AMSA05.jpg,AMNE04.jpg,AMSA13.jpg,AMSA13.jpg,MS,2,num_4,32,num_8,1.00012765417,,,2017_Apr_20_1417,59.9987491458,FEMA4ImagesEEG,001,200192,
AFNE01.JPG,AFNE01.JPG,AFNE01.JPG,AFNE01.JPG,AFNE01.JPG,AFNE01.JPG,,,,,,,,,,,,,,,,,,,,,1,5,15,9,,,AMSA11.jpg,AMNE04.jpg,AMSA03.jpg,AMNE09.jpg,AMNE04.jpg,MN,1,num_6,16,num_6,1.0001773687,,,2017_Apr_20_1417,59.9987491458,FEMA4ImagesEEG,001,200192,
AFNE01.JPG,AFNE01.JPG,AFNE01.JPG,AFNE01.JPG,AFNE01.JPG,AFNE01.JPG,,,,,,,,,,,,,,,,,,,,,1,6,16,3,,,AMNE04.jpg,AMNE13.jpg,AMSA17.jpg,AMSA06.jpg,AMNE13.jpg,MN,1,num_6,16,num_6,0.850101946911,,,2017_Apr_20_1417,59.9987491458,FEMA4ImagesEEG,001,200192,
AFNE01.JPG,AFNE01.JPG,AFNE01.JPG,AFNE01.JPG,AFNE01.JPG,AFNE01.JPG,,,,,,,,,,,,,,,,,,,,,1,7,17,6,,,AMSA03.jpg,AMSA07.jpg,AMNE03.jpg,AMNE17.jpg,AMNE03.jpg,MN,1,num_2,32,num_8,1.33347755898,,,2017_Apr_20_1417,59.9987491458,FEMA4ImagesEEG,001,200192,
AFNE01.JPG,AFNE01.JPG,AFNE01.JPG,AFNE01.JPG,AFNE01.JPG,AFNE01.JPG,,,,,,,,,,,,,,,,,,,,,1,8,18,4,,,AMSA02.jpg,AMNE12.jpg,AMSA20.jpg,AMNE09.jpg,AMSA02.jpg,MS,2,num_8,32,num_4,0.8501420393,,,2017_Apr_20_1417,59.9987491458,FEMA4ImagesEEG,001,200192,
AFNE01.JPG,AFNE01.JPG,AFNE01.JPG,AFNE01.JPG,AFNE01.JPG,AFNE01.JPG,,,,,,,,,,,,,,,,,,,,,1,9,19,1,,,AMNE11.jpg,AMNE07.jpg,AMSA07.jpg,AMSA05.jpg,AMNE07.jpg,MN,1,num_6,16,num_6,0.700121463917,,,2017_Apr_20_1417,59.9987491458,FEMA4ImagesEEG,001,200192,
AFNE01.JPG,AFNE01.JPG,AFNE01.JPG,AFNE01.JPG,AFNE01.JPG,AFNE01.JPG,,,,,,,,,,,,,,,,,,,,,2,0,20,3,,,AMNE20.jpg,AMNE10.jpg,AMSA06.jpg,AMSA07.jpg,AMNE20.jpg,MN,1,num_8,16,num_8,1.10016874084,,,2017_Apr_20_1417,59.9987491458,FEMA4ImagesEEG,001,200192,
AFNE01.JPG,AFNE01.JPG,AFNE01.JPG,AFNE01.JPG,AFNE01.JPG,AFNE01.JPG,,,,,,,,,,,,,,,,,,,,,2,1,21,2,,,AMSA13.jpg,AMNE16.jpg,AMNE19.jpg,AMSA10.jpg,AMNE16.jpg,MN,1,num_6,16,num_6,0.766791573144,,,2017_Apr_20_1417,59.9987491458,FEMA4ImagesEEG,001,200192,
AFNE01.JPG,AFNE01.JPG,AFNE01.JPG,AFNE01.JPG,AFNE01.JPG,AFNE01.JPG,,,,,,,,,,,,,,,,,,,,,2,2,22,9,,,AMSA18.jpg,AMSA06.jpg,AMNE09.jpg,AMNE05.jpg,AMSA18.jpg,MS,2,num_8,32,num_4,1.06663643167,,,2017_Apr_20_1417,59.9987491458,FEMA4ImagesEEG,001,200192,
AFNE01.JPG,AFNE01.JPG,AFNE01.JPG,AFNE01.JPG,AFNE01.JPG,AFNE01.JPG,,,,,,,,,,,,,,,,,,,,,2,3,23,5,,,AMSA17.jpg,AMNE05.jpg,AMNE01.jpg,AMSA05.jpg,AMSA17.jpg,MS,2,num_8,16,num_8,0.683382411778,,,2017_Apr_20_1417,59.9987491458,FEMA4ImagesEEG,001,200192,
AFNE01.JPG,AFNE01.JPG,AFNE01.JPG,AFNE01.JPG,AFNE01.JPG,AFNE01.JPG,,,,,,,,,,,,,,,,,,,,,2,4,24,7,,,AMSA11.jpg,AMSA14.jpg,AMNE13.jpg,AMNE12.jpg,AMNE13.jpg,MN,1,num_2,16,num_2,0.866799944488,,,2017_Apr_20_1417,59.9987491458,FEMA4ImagesEEG,001,200192,
AFNE01.JPG,AFNE01.JPG,AFNE01.JPG,AFNE01.JPG,AFNE01.JPG,AFNE01.JPG,,,,,,,,,,,,,,,,,,,,,2,5,25,1,,,AMSA15.jpg,AMNE03.jpg,AMNE20.jpg,AMSA01.jpg,AMNE20.jpg,MN,1,num_2,16,num_2,0.783453327138,,,2017_Apr_20_1417,59.9987491458,FEMA4ImagesEEG,001,200192,
AFNE01.JPG,AFNE01.JPG,AFNE01.JPG,AFNE01.JPG,AFNE01.JPG,AFNE01.JPG,,,,,,,,,,,,,,,,,,,,,2,6,26,8,,,AMNE03.jpg,AMSA09.jpg,AMNE06.jpg,AMSA16.jpg,AMNE06.jpg,MN,1,num_2,32,num_6,1.11678655358,,,2017_Apr_20_1417,59.9987491458,FEMA4ImagesEEG,001,200192,
AFNE01.JPG,AFNE01.JPG,AFNE01.JPG,AFNE01.JPG,AFNE01.JPG,AFNE01.JPG,,,,,,,,,,,,,,,,,,,,,2,7,27,6,,,AMSA10.jpg,AMNE05.jpg,AMSA14.jpg,AMNE15.jpg,AMSA14.jpg,MS,2,num_2,16,num_2,0.650166992797,,,2017_Apr_20_1417,59.9987491458,FEMA4ImagesEEG,001,200192,
AFNE01.JPG,AFNE01.JPG,AFNE01.JPG,AFNE01.JPG,AFNE01.JPG,AFNE01.JPG,,,,,,,,,,,,,,,,,,,,,2,8,28,4,,,AMSA15.jpg,AMNE06.jpg,AMSA14.jpg,AMNE18.jpg,AMNE18.jpg,MN,1,num_4,32,num_6,1.0167544476,,,2017_Apr_20_1417,59.9987491458,FEMA4ImagesEEG,001,200192,
AFNE01.JPG,AFNE01.JPG,AFNE01.JPG,AFNE01.JPG,AFNE01.JPG,AFNE01.JPG,,,,,,,,,,,,,,,,,,,,,2,9,29,0,,,AMSA20.jpg,AMSA10.jpg,AMNE10.jpg,AMNE14.jpg,AMSA20.jpg,MS,2,num_8,32,num_6,0.833427684091,,,2017_Apr_20_1417,59.9987491458,FEMA4ImagesEEG,001,200192,
AFNE01.JPG,AFNE01.JPG,AFNE01.JPG,AFNE01.JPG,AFNE01.JPG,AFNE01.JPG,,,,,,,,,,,,,,,,,,,,,3,0,30,6,,,AMNE14.jpg,AMSA03.jpg,AMSA01.jpg,AMNE07.jpg,AMNE07.jpg,MN,1,num_4,32,num_2,0.750108329637,,,2017_Apr_20_1417,59.9987491458,FEMA4ImagesEEG,001,200192,
AFNE01.JPG,AFNE01.JPG,AFNE01.JPG,AFNE01.JPG,AFNE01.JPG,AFNE01.JPG,,,,,,,,,,,,,,,,,,,,,3,1,31,1,,,AMSA19.jpg,AMSA12.jpg,AMNE10.jpg,AMNE01.jpg,AMSA19.jpg,MS,2,num_8,32,num_6,1.33348237007,,,2017_Apr_20_1417,59.9987491458,FEMA4ImagesEEG,001,200192,
AFNE01.JPG,AFNE01.JPG,AFNE01.JPG,AFNE01.JPG,AFNE01.JPG,AFNE01.JPG,,,,,,,,,,,,,,,,,,,,,3,2,32,0,,,AMSA10.jpg,AMSA12.jpg,AMNE12.jpg,AMNE13.jpg,AMNE12.jpg,MN,1,num_2,32,num_6,0.683548233879,,,2017_Apr_20_1417,59.9987491458,FEMA4ImagesEEG,001,200192,
AFNE01.JPG,AFNE01.JPG,AFNE01.JPG,AFNE01.JPG,AFNE01.JPG,AFNE01.JPG,,,,,,,,,,,,,,,,,,,,,3,3,33,2,,,AMNE07.jpg,AMSA03.jpg,AMSA05.jpg,AMNE20.jpg,AMNE07.jpg,MN,1,num_8,16,num_8,0.883461698424,,,2017_Apr_20_1417,59.9987491458,FEMA4ImagesEEG,001,200192,
AFNE01.JPG,AFNE01.JPG,AFNE01.JPG,AFNE01.JPG,AFNE01.JPG,AFNE01.JPG,,,,,,,,,,,,,,,,,,,,,3,4,34,7,,,AMSA07.jpg,AMNE15.jpg,AMSA03.jpg,AMNE07.jpg,AMSA03.jpg,MS,2,num_2,16,num_2,1.21671826823,,,2017_Apr_20_1417,59.9987491458,FEMA4ImagesEEG,001,200192,
AFNE01.JPG,AFNE01.JPG,AFNE01.JPG,AFNE01.JPG,AFNE01.JPG,AFNE01.JPG,,,,,,,,,,,,,,,,,,,,,3,5,35,3,,,AMNE17.jpg,AMSA14.jpg,AMNE11.jpg,AMSA11.jpg,AMNE11.jpg,MN,1,num_2,32,num_8,1.41674912331,,,2017_Apr_20_1417,59.9987491458,FEMA4ImagesEEG,001,200192,
AFNE01.JPG,AFNE01.JPG,AFNE01.JPG,AFNE01.JPG,AFNE01.JPG,AFNE01.JPG,,,,,,,,,,,,,,,,,,,,,3,6,36,5,,,AMSA03.jpg,AMSA02.jpg,AMNE03.jpg,AMNE13.jpg,AMSA02.jpg,MS,2,num_6,16,num_6,0.700165725895,,,2017_Apr_20_1417,59.9987491458,FEMA4ImagesEEG,001,200192,
AFNE01.JPG,AFNE01.JPG,AFNE01.JPG,AFNE01.JPG,AFNE01.JPG,AFNE01.JPG,,,,,,,,,,,,,,,,,,,,,3,7,37,8,,,AMNE07.jpg,AMSA03.jpg,AMNE14.jpg,AMSA05.jpg,AMSA03.jpg,MS,2,num_6,16,num_6,0.716781293508,,,2017_Apr_20_1417,59.9987491458,FEMA4ImagesEEG,001,200192,
AFNE01.JPG,AFNE01.JPG,AFNE01.JPG,AFNE01.JPG,AFNE01.JPG,AFNE01.JPG,,,,,,,,,,,,,,,,,,,,,3,8,38,9,,,AMSA10.jpg,AMSA15.jpg,AMNE02.jpg,AMNE11.jpg,AMNE02.jpg,MN,1,num_2,32,num_8,1.38344935002,,,2017_Apr_20_1417,59.9987491458,FEMA4ImagesEEG,001,200192,
