IPosition2,IPosition3,IPosition1,IPosition6,IPosition4,IPosition5,TrialsF1.thisRepN,TrialsF1.thisTrialN,TrialsF1.thisN,TrialsF1.thisIndex,TrialsM1.thisRepN,TrialsM1.thisTrialN,TrialsM1.thisN,TrialsM1.thisIndex,TrialsF2.thisRepN,TrialsF2.thisTrialN,TrialsF2.thisN,TrialsF2.thisIndex,TrialsM2.thisRepN,TrialsM2.thisTrialN,TrialsM2.thisN,TrialsM2.thisIndex,TrialsF3.thisRepN,TrialsF3.thisTrialN,TrialsF3.thisN,TrialsF3.thisIndex,TrialsM3.thisRepN,TrialsM3.thisTrialN,TrialsM3.thisN,TrialsM3.thisIndex,InstrKey_resp.keys,InstrKey_resp.rt,Image0 _Position,Image1 _Position,Image2 _Position,Image3 _Position,Center_image,condition,code,correct_answer,accuracy,Key_Resp.keys,Key_Resp.rt,BreakKey_resp.keys,BreakKey_resp.rt,date,frameRate,expName,session,participant,
,,,,,,,,,,,,,,,,,,,,,,,,,,,,,,space,37.6309674825,,,,,,,,,,,,,,2017_Apr_13_1253,60.0141094455,FEMA4ImagesEEG,001,200112,
AMSA21.JPG,AMNE23.JPG,AMNE21.JPG,AMSA25.JPG,AMNE25.JPG,AMSA23.JPG,0,0,0,5,,,,,,,,,,,,,,,,,,,,,,,AFSA15.jpg,AFNE14.jpg,AFSA05.jpg,AFNE06.jpg,AFSA15.jpg,FS,4,num_8,32,num_6,1.40007434739,,,2017_Apr_13_1253,60.0141094455,FEMA4ImagesEEG,001,200112,
AFSA25.JPG,AFNE24.JPG,AFSA24.JPG,AFNE21.JPG,AFSA21.JPG,AFNE25.JPG,0,1,1,2,,,,,,,,,,,,,,,,,,,,,,,AFNE08.jpg,AFNE11.jpg,AFSA13.jpg,AFSA07.jpg,AFSA13.jpg,FS,4,num_2,16,num_2,0.933170675766,,,2017_Apr_13_1253,60.0141094455,FEMA4ImagesEEG,001,200112,
AMSA25.JPG,AMNE24.JPG,AMSA24.JPG,AMNE26.JPG,AMSA21.JPG,AMNE25.JPG,0,2,2,3,,,,,,,,,,,,,,,,,,,,,,,AFNE07.jpg,AFSA08.jpg,AFNE04.jpg,AFSA14.jpg,AFNE04.jpg,FN,3,num_2,32,num_8,0.950124013703,,,2017_Apr_13_1253,60.0141094455,FEMA4ImagesEEG,001,200112,
AFSA21.JPG,AFNE22.JPG,AFNE21.JPG,AFSA23.JPG,AFSA22.JPG,AFNE23.JPG,0,3,3,0,,,,,,,,,,,,,,,,,,,,,,,AFNE01.jpg,AFNE20.jpg,AFSA17.jpg,AFSA02.jpg,AFSA02.jpg,FS,4,num_4,32,num_2,0.633504533209,,,2017_Apr_13_1253,60.0141094455,FEMA4ImagesEEG,001,200112,
AMNE23.JPG,AMNE24.JPG,AMNE22.JPG,AMSA24.JPG,AMSA22.JPG,AMSA23.JPG,0,4,4,9,,,,,,,,,,,,,,,,,,,,,,,AFSA05.jpg,AFNE14.jpg,AFSA17.jpg,AFNE09.jpg,AFSA05.jpg,FS,4,num_8,16,num_8,1.25014746003,,,2017_Apr_13_1253,60.0141094455,FEMA4ImagesEEG,001,200112,
AFNE23.JPG,AFNE24.JPG,AFNE22.JPG,AFSA24.JPG,AFSA22.JPG,AFSA23.JPG,0,5,5,8,,,,,,,,,,,,,,,,,,,,,,,AFSA09.jpg,AFSA06.jpg,AFNE07.jpg,AFNE10.jpg,AFSA06.jpg,FS,4,num_6,32,num_4,0.783519945107,,,2017_Apr_13_1253,60.0141094455,FEMA4ImagesEEG,001,200112,
AMSA21.JPG,AMNE22.JPG,AMNE21.JPG,AMSA23.JPG,AMSA22.JPG,AMNE23.JPG,0,6,6,1,,,,,,,,,,,,,,,,,,,,,,,AFNE09.jpg,AFSA18.jpg,AFNE07.jpg,AFSA07.jpg,AFNE07.jpg,FN,3,num_2,32,num_8,0.866783009376,,,2017_Apr_13_1253,60.0141094455,FEMA4ImagesEEG,001,200112,
AFSA21.JPG,AFNE23.JPG,AFNE21.JPG,AFSA25.JPG,AFNE25.JPG,AFSA23.JPG,0,7,7,4,,,,,,,,,,,,,,,,,,,,,,,AFSA10.jpg,AFSA07.jpg,AFNE18.jpg,AFNE09.jpg,AFNE09.jpg,FN,3,num_4,16,num_4,0.900110431015,,,2017_Apr_13_1253,60.0141094455,FEMA4ImagesEEG,001,200112,
AFNE22.JPG,AFSA24.JPG,AFSA22.JPG,AFNE25.JPG,AFNE24.JPG,AFSA25.JPG,0,8,8,6,,,,,,,,,,,,,,,,,,,,,,,AFNE11.jpg,AFSA20.jpg,AFSA05.jpg,AFNE06.jpg,AFSA20.jpg,FS,4,num_6,32,num_2,0.850233803503,,,2017_Apr_13_1253,60.0141094455,FEMA4ImagesEEG,001,200112,
AMNE22.JPG,AMSA24.JPG,AMSA22.JPG,AMNE25.JPG,AMNE24.JPG,AMSA25.JPG,0,9,9,7,,,,,,,,,,,,,,,,,,,,,,,AFNE20.jpg,AFSA14.jpg,AFNE16.jpg,AFSA16.jpg,AFSA16.jpg,FS,4,num_4,16,num_4,1.03346533887,,,2017_Apr_13_1253,60.0141094455,FEMA4ImagesEEG,001,200112,
AFSA21.JPG,AFNE22.JPG,AFNE21.JPG,AFSA23.JPG,AFSA22.JPG,AFNE23.JPG,,,,,0,0,0,0,,,,,,,,,,,,,,,,,,,AMNE07.jpg,AMSA03.jpg,AMSA10.jpg,AMNE08.jpg,AMNE08.jpg,MN,1,num_4,32,num_8,1.13345433772,,,2017_Apr_13_1253,60.0141094455,FEMA4ImagesEEG,001,200112,
AMSA21.JPG,AMNE22.JPG,AMNE21.JPG,AMSA23.JPG,AMSA22.JPG,AMNE23.JPG,,,,,0,1,1,1,,,,,,,,,,,,,,,,,,,AMSA03.jpg,AMNE12.jpg,AMNE05.jpg,AMSA08.jpg,AMSA08.jpg,MS,2,num_4,16,num_4,0.733468514401,,,2017_Apr_13_1253,60.0141094455,FEMA4ImagesEEG,001,200112,
AFSA21.JPG,AFNE23.JPG,AFNE21.JPG,AFSA25.JPG,AFNE25.JPG,AFSA23.JPG,,,,,0,2,2,4,,,,,,,,,,,,,,,,,,,AMSA03.jpg,AMNE15.jpg,AMNE16.jpg,AMSA17.jpg,AMSA03.jpg,MS,2,num_8,16,num_8,0.800171787851,,,2017_Apr_13_1253,60.0141094455,FEMA4ImagesEEG,001,200112,
AMSA21.JPG,AMNE23.JPG,AMNE21.JPG,AMSA25.JPG,AMNE25.JPG,AMSA23.JPG,,,,,0,3,3,5,,,,,,,,,,,,,,,,,,,AMSA13.jpg,AMSA01.jpg,AMNE02.jpg,AMNE10.jpg,AMSA01.jpg,MS,2,num_6,16,num_6,0.666808861308,,,2017_Apr_13_1253,60.0141094455,FEMA4ImagesEEG,001,200112,
AMNE22.JPG,AMSA24.JPG,AMSA22.JPG,AMNE25.JPG,AMNE24.JPG,AMSA25.JPG,,,,,0,4,4,7,,,,,,,,,,,,,,,,,,,AMNE06.jpg,AMSA20.jpg,AMSA06.jpg,AMNE11.jpg,AMSA20.jpg,MS,2,num_6,32,num_8,1.9834523974,,,2017_Apr_13_1253,60.0141094455,FEMA4ImagesEEG,001,200112,
AFNE23.JPG,AFNE24.JPG,AFNE22.JPG,AFSA24.JPG,AFSA22.JPG,AFSA23.JPG,,,,,0,5,5,8,,,,,,,,,,,,,,,,,,,AMNE10.jpg,AMSA09.jpg,AMSA07.jpg,AMNE19.jpg,AMNE19.jpg,MN,1,num_4,16,num_4,0.81680374546,,,2017_Apr_13_1253,60.0141094455,FEMA4ImagesEEG,001,200112,
AFNE22.JPG,AFSA24.JPG,AFSA22.JPG,AFNE25.JPG,AFNE24.JPG,AFSA25.JPG,,,,,0,6,6,6,,,,,,,,,,,,,,,,,,,AMNE05.jpg,AMSA20.jpg,AMNE12.jpg,AMSA11.jpg,AMSA20.jpg,MS,2,num_6,16,num_6,1.25011378247,,,2017_Apr_13_1253,60.0141094455,FEMA4ImagesEEG,001,200112,
AMSA25.JPG,AMNE24.JPG,AMSA24.JPG,AMNE26.JPG,AMSA21.JPG,AMNE25.JPG,,,,,0,7,7,3,,,,,,,,,,,,,,,,,,,AMSA04.jpg,AMSA10.jpg,AMNE13.jpg,AMNE20.jpg,AMSA10.jpg,MS,2,num_6,32,num_2,1.20010725548,,,2017_Apr_13_1253,60.0141094455,FEMA4ImagesEEG,001,200112,
AFSA25.JPG,AFNE24.JPG,AFSA24.JPG,AFNE21.JPG,AFSA21.JPG,AFNE25.JPG,,,,,0,8,8,2,,,,,,,,,,,,,,,,,,,AMNE15.jpg,AMNE05.jpg,AMSA03.jpg,AMSA07.jpg,AMNE15.jpg,MN,1,num_8,32,num_4,1.11680281535,,,2017_Apr_13_1253,60.0141094455,FEMA4ImagesEEG,001,200112,
AMNE23.JPG,AMNE24.JPG,AMNE22.JPG,AMSA24.JPG,AMSA22.JPG,AMSA23.JPG,,,,,0,9,9,9,,,,,,,,,,,,,,,,,,,AMSA06.jpg,AMSA04.jpg,AMNE04.jpg,AMNE18.jpg,AMNE18.jpg,MN,1,num_4,32,num_8,1.06677544024,,,2017_Apr_13_1253,60.0141094455,FEMA4ImagesEEG,001,200112,
AMSA21.JPG,AMNE22.JPG,AMNE21.JPG,AMSA23.JPG,AMSA22.JPG,AMNE23.JPG,,,,,,,,,0,0,0,1,,,,,,,,,,,,,,,AFSA10.jpg,AFSA13.jpg,AFNE01.jpg,AFNE08.jpg,AFSA13.jpg,FS,4,num_6,32,num_4,0.433559893165,,,2017_Apr_13_1253,60.0141094455,FEMA4ImagesEEG,001,200112,
AFNE22.JPG,AFSA24.JPG,AFSA22.JPG,AFNE25.JPG,AFNE24.JPG,AFSA25.JPG,,,,,,,,,0,1,1,6,,,,,,,,,,,,,,,AFSA02.jpg,AFNE01.jpg,AFNE16.jpg,AFSA15.jpg,AFSA15.jpg,FS,4,num_4,16,num_4,0.650173696689,,,2017_Apr_13_1253,60.0141094455,FEMA4ImagesEEG,001,200112,
AFNE23.JPG,AFNE24.JPG,AFNE22.JPG,AFSA24.JPG,AFSA22.JPG,AFSA23.JPG,,,,,,,,,0,2,2,8,,,,,,,,,,,,,,,AFNE20.jpg,AFSA16.jpg,AFSA15.jpg,AFNE17.jpg,AFSA15.jpg,FS,4,num_2,16,num_2,0.716819237452,,,2017_Apr_13_1253,60.0141094455,FEMA4ImagesEEG,001,200112,
AMSA21.JPG,AMNE23.JPG,AMNE21.JPG,AMSA25.JPG,AMNE25.JPG,AMSA23.JPG,,,,,,,,,0,3,3,5,,,,,,,,,,,,,,,AFNE15.jpg,AFNE19.jpg,AFSA18.jpg,AFSA20.jpg,AFNE15.jpg,FN,3,num_8,16,num_8,0.816814650316,,,2017_Apr_13_1253,60.0141094455,FEMA4ImagesEEG,001,200112,
AMNE23.JPG,AMNE24.JPG,AMNE22.JPG,AMSA24.JPG,AMSA22.JPG,AMSA23.JPG,,,,,,,,,0,4,4,9,,,,,,,,,,,,,,,AFNE18.jpg,AFSA01.jpg,AFSA12.jpg,AFNE06.jpg,AFSA01.jpg,FS,4,num_6,16,num_6,1.15012542531,,,2017_Apr_13_1253,60.0141094455,FEMA4ImagesEEG,001,200112,
AFSA21.JPG,AFNE23.JPG,AFNE21.JPG,AFSA25.JPG,AFNE25.JPG,AFSA23.JPG,,,,,,,,,0,5,5,4,,,,,,,,,,,,,,,AFNE09.jpg,AFNE14.jpg,AFSA12.jpg,AFSA18.jpg,AFSA18.jpg,FS,4,num_4,32,num_8,2.43344282359,,,2017_Apr_13_1253,60.0141094455,FEMA4ImagesEEG,001,200112,
AFSA25.JPG,AFNE24.JPG,AFSA24.JPG,AFNE21.JPG,AFSA21.JPG,AFNE25.JPG,,,,,,,,,0,6,6,2,,,,,,,,,,,,,,,AFSA15.jpg,AFNE01.jpg,AFSA08.jpg,AFNE15.jpg,AFSA08.jpg,FS,4,num_2,32,num_6,1.35040491819,,,2017_Apr_13_1253,60.0141094455,FEMA4ImagesEEG,001,200112,
AMNE22.JPG,AMSA24.JPG,AMSA22.JPG,AMNE25.JPG,AMNE24.JPG,AMSA25.JPG,,,,,,,,,0,7,7,7,,,,,,,,,,,,,,,AFSA10.jpg,AFSA14.jpg,AFNE07.jpg,AFNE12.jpg,AFNE07.jpg,FN,3,num_2,32,num_8,1.14995831996,,,2017_Apr_13_1253,60.0141094455,FEMA4ImagesEEG,001,200112,
AFSA21.JPG,AFNE22.JPG,AFNE21.JPG,AFSA23.JPG,AFSA22.JPG,AFNE23.JPG,,,,,,,,,0,8,8,0,,,,,,,,,,,,,,,AFSA12.jpg,AFNE19.jpg,AFSA01.jpg,AFNE09.jpg,AFNE09.jpg,FN,3,num_4,32,num_8,0.749824635684,,,2017_Apr_13_1253,60.0141094455,FEMA4ImagesEEG,001,200112,
AMSA25.JPG,AMNE24.JPG,AMSA24.JPG,AMNE26.JPG,AMSA21.JPG,AMNE25.JPG,,,,,,,,,0,9,9,3,,,,,,,,,,,,,,,AFNE01.jpg,AFSA15.jpg,AFNE08.jpg,AFSA05.jpg,AFNE08.jpg,FN,3,num_2,32,num_4,0.883468530141,,,2017_Apr_13_1253,60.0141094455,FEMA4ImagesEEG,001,200112,
AMNE23.JPG,AMNE24.JPG,AMNE22.JPG,AMSA24.JPG,AMSA22.JPG,AMSA23.JPG,,,,,,,,,,,,,0,0,0,9,,,,,,,,,,,AMSA03.jpg,AMSA10.jpg,AMNE18.jpg,AMNE02.jpg,AMNE02.jpg,MN,1,num_4,32,num_2,1.33343137288,,,2017_Apr_13_1253,60.0141094455,FEMA4ImagesEEG,001,200112,
AMSA21.JPG,AMNE22.JPG,AMNE21.JPG,AMSA23.JPG,AMSA22.JPG,AMNE23.JPG,,,,,,,,,,,,,0,1,1,1,,,,,,,,,,,AMSA09.jpg,AMSA15.jpg,AMNE10.jpg,AMNE01.jpg,AMNE01.jpg,MN,1,num_4,16,num_4,0.816771992017,,,2017_Apr_13_1253,60.0141094455,FEMA4ImagesEEG,001,200112,
AMSA21.JPG,AMNE23.JPG,AMNE21.JPG,AMSA25.JPG,AMNE25.JPG,AMSA23.JPG,,,,,,,,,,,,,0,2,2,5,,,,,,,,,,,AMSA16.jpg,AMNE09.jpg,AMNE18.jpg,AMSA10.jpg,AMSA16.jpg,MS,2,num_8,32,num_2,1.00011867378,,,2017_Apr_13_1253,60.0141094455,FEMA4ImagesEEG,001,200112,
AFSA21.JPG,AFNE22.JPG,AFNE21.JPG,AFSA23.JPG,AFSA22.JPG,AFNE23.JPG,,,,,,,,,,,,,0,3,3,0,,,,,,,,,,,AMSA16.jpg,AMNE19.jpg,AMSA09.jpg,AMNE11.jpg,AMSA09.jpg,MS,2,num_2,16,num_2,0.983498584013,,,2017_Apr_13_1253,60.0141094455,FEMA4ImagesEEG,001,200112,
AFSA21.JPG,AFNE23.JPG,AFNE21.JPG,AFSA25.JPG,AFNE25.JPG,AFSA23.JPG,,,,,,,,,,,,,0,4,4,4,,,,,,,,,,,AMSA15.jpg,AMNE09.jpg,AMNE06.jpg,AMSA12.jpg,AMNE09.jpg,MN,1,num_6,16,num_6,0.933205956593,,,2017_Apr_13_1253,60.0141094455,FEMA4ImagesEEG,001,200112,
AFSA25.JPG,AFNE24.JPG,AFSA24.JPG,AFNE21.JPG,AFSA21.JPG,AFNE25.JPG,,,,,,,,,,,,,0,5,5,2,,,,,,,,,,,AMSA08.jpg,AMSA16.jpg,AMNE12.jpg,AMNE17.jpg,AMNE17.jpg,MN,1,num_4,16,num_4,0.933504565619,,,2017_Apr_13_1253,60.0141094455,FEMA4ImagesEEG,001,200112,
AFNE23.JPG,AFNE24.JPG,AFNE22.JPG,AFSA24.JPG,AFSA22.JPG,AFSA23.JPG,,,,,,,,,,,,,0,6,6,8,,,,,,,,,,,AMSA10.jpg,AMNE10.jpg,AMNE02.jpg,AMSA15.jpg,AMSA10.jpg,MS,2,num_8,16,num_8,1.08346994175,,,2017_Apr_13_1253,60.0141094455,FEMA4ImagesEEG,001,200112,
AFNE22.JPG,AFSA24.JPG,AFSA22.JPG,AFNE25.JPG,AFNE24.JPG,AFSA25.JPG,,,,,,,,,,,,,0,7,7,6,,,,,,,,,,,AMSA12.jpg,AMSA10.jpg,AMNE19.jpg,AMNE16.jpg,AMSA10.jpg,MS,2,num_6,16,num_6,0.800139714032,,,2017_Apr_13_1253,60.0141094455,FEMA4ImagesEEG,001,200112,
AMSA25.JPG,AMNE24.JPG,AMSA24.JPG,AMNE26.JPG,AMSA21.JPG,AMNE25.JPG,,,,,,,,,,,,,0,8,8,3,,,,,,,,,,,AMNE20.jpg,AMSA13.jpg,AMSA10.jpg,AMNE13.jpg,AMNE13.jpg,MN,1,num_4,32,num_8,0.883479435463,,,2017_Apr_13_1253,60.0141094455,FEMA4ImagesEEG,001,200112,
AMNE22.JPG,AMSA24.JPG,AMSA22.JPG,AMNE25.JPG,AMNE24.JPG,AMSA25.JPG,,,,,,,,,,,,,0,9,9,7,,,,,,,,,,,AMNE15.jpg,AMSA08.jpg,AMNE16.jpg,AMSA02.jpg,AMSA08.jpg,MS,2,num_6,32,num_4,0.833477398846,,,2017_Apr_13_1253,60.0141094455,FEMA4ImagesEEG,001,200112,
AMSA25.JPG,AMNE24.JPG,AMSA24.JPG,AMNE26.JPG,AMSA21.JPG,AMNE25.JPG,,,,,,,,,,,,,,,,,0,0,0,3,,,,,,,AFSA15.jpg,AFNE05.jpg,AFSA10.jpg,AFNE19.jpg,AFNE05.jpg,FN,3,num_6,16,num_6,0.750019324478,,,2017_Apr_13_1253,60.0141094455,FEMA4ImagesEEG,001,200112,
AFNE22.JPG,AFSA24.JPG,AFSA22.JPG,AFNE25.JPG,AFNE24.JPG,AFSA25.JPG,,,,,,,,,,,,,,,,,0,1,1,6,,,,,,,AFNE06.jpg,AFNE02.jpg,AFSA12.jpg,AFSA06.jpg,AFNE06.jpg,FN,3,num_8,16,num_8,1.08348341286,,,2017_Apr_13_1253,60.0141094455,FEMA4ImagesEEG,001,200112,
AFSA25.JPG,AFNE24.JPG,AFSA24.JPG,AFNE21.JPG,AFSA21.JPG,AFNE25.JPG,,,,,,,,,,,,,,,,,0,2,2,2,,,,,,,AFSA03.jpg,AFNE05.jpg,AFNE18.jpg,AFSA19.jpg,AFSA19.jpg,FS,4,num_4,16,num_4,1.18344322406,,,2017_Apr_13_1253,60.0141094455,FEMA4ImagesEEG,001,200112,
AFNE23.JPG,AFNE24.JPG,AFNE22.JPG,AFSA24.JPG,AFSA22.JPG,AFSA23.JPG,,,,,,,,,,,,,,,,,0,3,3,8,,,,,,,AFNE05.jpg,AFSA07.jpg,AFSA04.jpg,AFNE06.jpg,AFSA07.jpg,FS,4,num_6,16,num_6,1.08345775353,,,2017_Apr_13_1253,60.0141094455,FEMA4ImagesEEG,001,200112,
AMSA21.JPG,AMNE22.JPG,AMNE21.JPG,AMSA23.JPG,AMSA22.JPG,AMNE23.JPG,,,,,,,,,,,,,,,,,0,4,4,1,,,,,,,AFSA17.jpg,AFNE09.jpg,AFNE18.jpg,AFSA19.jpg,AFSA17.jpg,FS,4,num_8,16,num_8,0.983436680865,,,2017_Apr_13_1253,60.0141094455,FEMA4ImagesEEG,001,200112,
AFSA21.JPG,AFNE23.JPG,AFNE21.JPG,AFSA25.JPG,AFNE25.JPG,AFSA23.JPG,,,,,,,,,,,,,,,,,0,5,5,4,,,,,,,AFNE19.jpg,AFSA17.jpg,AFSA06.jpg,AFNE18.jpg,AFSA06.jpg,FS,4,num_2,32,num_4,1.3829083587,,,2017_Apr_13_1253,60.0141094455,FEMA4ImagesEEG,001,200112,
AFSA21.JPG,AFNE22.JPG,AFNE21.JPG,AFSA23.JPG,AFSA22.JPG,AFNE23.JPG,,,,,,,,,,,,,,,,,0,6,6,0,,,,,,,AFSA10.jpg,AFNE17.jpg,AFSA20.jpg,AFNE04.jpg,AFSA10.jpg,FS,4,num_8,32,num_4,0.666795710567,,,2017_Apr_13_1253,60.0141094455,FEMA4ImagesEEG,001,200112,
AMSA21.JPG,AMNE23.JPG,AMNE21.JPG,AMSA25.JPG,AMNE25.JPG,AMSA23.JPG,,,,,,,,,,,,,,,,,0,7,7,5,,,,,,,AFNE16.jpg,AFNE13.jpg,AFSA18.jpg,AFSA10.jpg,AFNE16.jpg,FN,3,num_8,16,num_8,1.30015719449,,,2017_Apr_13_1253,60.0141094455,FEMA4ImagesEEG,001,200112,
AMNE23.JPG,AMNE24.JPG,AMNE22.JPG,AMSA24.JPG,AMSA22.JPG,AMSA23.JPG,,,,,,,,,,,,,,,,,0,8,8,9,,,,,,,AFSA11.jpg,AFNE06.jpg,AFSA03.jpg,AFNE02.jpg,AFNE06.jpg,FN,3,num_6,16,num_6,0.73332514381,,,2017_Apr_13_1253,60.0141094455,FEMA4ImagesEEG,001,200112,
AMNE22.JPG,AMSA24.JPG,AMSA22.JPG,AMNE25.JPG,AMNE24.JPG,AMSA25.JPG,,,,,,,,,,,,,,,,,0,9,9,7,,,,,,,AFSA08.jpg,AFSA16.jpg,AFNE04.jpg,AFNE03.jpg,AFSA16.jpg,FS,4,num_6,16,num_6,0.466684927233,,,2017_Apr_13_1253,60.0141094455,FEMA4ImagesEEG,001,200112,
AFSA25.JPG,AFNE24.JPG,AFSA24.JPG,AFNE21.JPG,AFSA21.JPG,AFNE25.JPG,,,,,,,,,,,,,,,,,,,,,0,0,0,2,,,AMSA07.jpg,AMNE15.jpg,AMSA01.jpg,AMNE06.jpg,AMSA07.jpg,MS,2,num_8,32,num_4,1.71671018563,,,2017_Apr_13_1253,60.0141094455,FEMA4ImagesEEG,001,200112,
AMNE23.JPG,AMNE24.JPG,AMNE22.JPG,AMSA24.JPG,AMSA22.JPG,AMSA23.JPG,,,,,,,,,,,,,,,,,,,,,0,1,1,9,,,AMSA06.jpg,AMNE02.jpg,AMNE07.jpg,AMSA16.jpg,AMSA06.jpg,MS,2,num_8,16,num_8,1.45010300586,,,2017_Apr_13_1253,60.0141094455,FEMA4ImagesEEG,001,200112,
AMSA21.JPG,AMNE23.JPG,AMNE21.JPG,AMSA25.JPG,AMNE25.JPG,AMSA23.JPG,,,,,,,,,,,,,,,,,,,,,0,2,2,5,,,AMNE14.jpg,AMNE17.jpg,AMSA05.jpg,AMSA17.jpg,AMNE14.jpg,MN,1,num_8,16,num_8,1.06676742155,,,2017_Apr_13_1253,60.0141094455,FEMA4ImagesEEG,001,200112,
AMSA21.JPG,AMNE22.JPG,AMNE21.JPG,AMSA23.JPG,AMSA22.JPG,AMNE23.JPG,,,,,,,,,,,,,,,,,,,,,0,3,3,1,,,AMSA01.jpg,AMSA13.jpg,AMNE04.jpg,AMNE20.jpg,AMNE20.jpg,MN,1,num_4,16,num_4,0.933475378435,,,2017_Apr_13_1253,60.0141094455,FEMA4ImagesEEG,001,200112,
AFNE22.JPG,AFSA24.JPG,AFSA22.JPG,AFNE25.JPG,AFNE24.JPG,AFSA25.JPG,,,,,,,,,,,,,,,,,,,,,0,4,4,6,,,AMNE18.jpg,AMSA18.jpg,AMNE12.jpg,AMSA12.jpg,AMSA18.jpg,MS,2,num_6,16,num_6,0.633447762579,,,2017_Apr_13_1253,60.0141094455,FEMA4ImagesEEG,001,200112,
AMNE22.JPG,AMSA24.JPG,AMSA22.JPG,AMNE25.JPG,AMNE24.JPG,AMSA25.JPG,,,,,,,,,,,,,,,,,,,,,0,5,5,7,,,AMSA06.jpg,AMSA03.jpg,AMNE18.jpg,AMNE17.jpg,AMSA03.jpg,MS,2,num_6,16,num_6,0.600271730684,,,2017_Apr_13_1253,60.0141094455,FEMA4ImagesEEG,001,200112,
AFSA21.JPG,AFNE23.JPG,AFNE21.JPG,AFSA25.JPG,AFNE25.JPG,AFSA23.JPG,,,,,,,,,,,,,,,,,,,,,0,6,6,4,,,AMNE05.jpg,AMNE02.jpg,AMSA18.jpg,AMSA04.jpg,AMSA04.jpg,MS,2,num_4,16,num_4,0.966836155858,,,2017_Apr_13_1253,60.0141094455,FEMA4ImagesEEG,001,200112,
AFSA21.JPG,AFNE22.JPG,AFNE21.JPG,AFSA23.JPG,AFSA22.JPG,AFNE23.JPG,,,,,,,,,,,,,,,,,,,,,0,7,7,0,,,AMSA17.jpg,AMNE07.jpg,AMSA05.jpg,AMNE02.jpg,AMSA05.jpg,MS,2,num_2,16,num_2,0.966760782525,,,2017_Apr_13_1253,60.0141094455,FEMA4ImagesEEG,001,200112,
AFNE23.JPG,AFNE24.JPG,AFNE22.JPG,AFSA24.JPG,AFSA22.JPG,AFSA23.JPG,,,,,,,,,,,,,,,,,,,,,0,8,8,8,,,AMNE05.jpg,AMSA14.jpg,AMNE13.jpg,AMSA18.jpg,AMNE05.jpg,MN,1,num_8,16,num_8,1.45012192894,,,2017_Apr_13_1253,60.0141094455,FEMA4ImagesEEG,001,200112,
AMSA25.JPG,AMNE24.JPG,AMSA24.JPG,AMNE26.JPG,AMSA21.JPG,AMNE25.JPG,,,,,,,,,,,,,,,,,,,,,0,9,9,3,,,AMSA16.jpg,AMSA10.jpg,AMNE18.jpg,AMNE03.jpg,AMNE03.jpg,MN,1,num_4,32,num_8,1.06676998781,,,2017_Apr_13_1253,60.0141094455,FEMA4ImagesEEG,001,200112,
,,,,,,,,,,,,,,,,,,,,,,,,,,,,,,,,,,,,,,,,,,,space,10.2827660465,2017_Apr_13_1253,60.0141094455,FEMA4ImagesEEG,001,200112,
AFNE01.JPG,AFNE01.JPG,AFNE01.JPG,AFNE01.JPG,AFNE01.JPG,AFNE01.JPG,0,0,0,4,,,,,,,,,,,,,,,,,,,,,,,AFSA20.jpg,AFNE13.jpg,AFSA03.jpg,AFNE16.jpg,AFNE16.jpg,FN,3,num_4,16,num_4,1.50010055164,,,2017_Apr_13_1253,60.0141094455,FEMA4ImagesEEG,001,200112,
AFNE01.JPG,AFNE01.JPG,AFNE01.JPG,AFNE01.JPG,AFNE01.JPG,AFNE01.JPG,0,1,1,8,,,,,,,,,,,,,,,,,,,,,,,AFNE16.jpg,AFSA11.jpg,AFSA19.jpg,AFNE09.jpg,AFNE16.jpg,FN,3,num_8,16,num_8,0.86679872591,,,2017_Apr_13_1253,60.0141094455,FEMA4ImagesEEG,001,200112,
AFNE01.JPG,AFNE01.JPG,AFNE01.JPG,AFNE01.JPG,AFNE01.JPG,AFNE01.JPG,0,2,2,5,,,,,,,,,,,,,,,,,,,,,,,AFSA20.jpg,AFNE05.jpg,AFSA04.jpg,AFNE18.jpg,AFNE05.jpg,FN,3,num_6,32,num_2,1.36675686948,,,2017_Apr_13_1253,60.0141094455,FEMA4ImagesEEG,001,200112,
AFNE01.JPG,AFNE01.JPG,AFNE01.JPG,AFNE01.JPG,AFNE01.JPG,AFNE01.JPG,0,3,3,3,,,,,,,,,,,,,,,,,,,,,,,AFSA03.jpg,AFSA15.jpg,AFNE01.jpg,AFNE13.jpg,AFNE01.jpg,FN,3,num_2,32,num_4,1.0167724411,,,2017_Apr_13_1253,60.0141094455,FEMA4ImagesEEG,001,200112,
AFNE01.JPG,AFNE01.JPG,AFNE01.JPG,AFNE01.JPG,AFNE01.JPG,AFNE01.JPG,0,4,4,0,,,,,,,,,,,,,,,,,,,,,,,AFNE20.jpg,AFSA20.jpg,AFSA13.jpg,AFNE07.jpg,AFSA13.jpg,FS,4,num_2,16,num_2,1.23345744936,,,2017_Apr_13_1253,60.0141094455,FEMA4ImagesEEG,001,200112,
AFNE01.JPG,AFNE01.JPG,AFNE01.JPG,AFNE01.JPG,AFNE01.JPG,AFNE01.JPG,0,5,5,2,,,,,,,,,,,,,,,,,,,,,,,AFNE16.jpg,AFSA06.jpg,AFSA13.jpg,AFNE03.jpg,AFSA06.jpg,FS,4,num_6,16,num_6,0.800143563189,,,2017_Apr_13_1253,60.0141094455,FEMA4ImagesEEG,001,200112,
AFNE01.JPG,AFNE01.JPG,AFNE01.JPG,AFNE01.JPG,AFNE01.JPG,AFNE01.JPG,0,6,6,7,,,,,,,,,,,,,,,,,,,,,,,AFNE15.jpg,AFSA15.jpg,AFNE20.jpg,AFSA12.jpg,AFNE15.jpg,FN,3,num_8,32,num_4,0.850120581686,,,2017_Apr_13_1253,60.0141094455,FEMA4ImagesEEG,001,200112,
AFNE01.JPG,AFNE01.JPG,AFNE01.JPG,AFNE01.JPG,AFNE01.JPG,AFNE01.JPG,0,7,7,1,,,,,,,,,,,,,,,,,,,,,,,AFNE06.jpg,AFSA05.jpg,AFSA09.jpg,AFNE02.jpg,AFNE06.jpg,FN,3,num_8,16,num_8,0.933497188613,,,2017_Apr_13_1253,60.0141094455,FEMA4ImagesEEG,001,200112,
AFNE01.JPG,AFNE01.JPG,AFNE01.JPG,AFNE01.JPG,AFNE01.JPG,AFNE01.JPG,0,8,8,9,,,,,,,,,,,,,,,,,,,,,,,AFSA02.jpg,AFNE02.jpg,AFSA16.jpg,AFNE12.jpg,AFNE12.jpg,FN,3,num_4,16,num_4,1.03346630139,,,2017_Apr_13_1253,60.0141094455,FEMA4ImagesEEG,001,200112,
AFNE01.JPG,AFNE01.JPG,AFNE01.JPG,AFNE01.JPG,AFNE01.JPG,AFNE01.JPG,0,9,9,6,,,,,,,,,,,,,,,,,,,,,,,AFSA04.jpg,AFNE19.jpg,AFNE02.jpg,AFSA12.jpg,AFNE02.jpg,FN,3,num_2,32,num_8,0.766788558103,,,2017_Apr_13_1253,60.0141094455,FEMA4ImagesEEG,001,200112,
AFNE01.JPG,AFNE01.JPG,AFNE01.JPG,AFNE01.JPG,AFNE01.JPG,AFNE01.JPG,1,0,10,6,,,,,,,,,,,,,,,,,,,,,,,AFNE17.jpg,AFSA07.jpg,AFSA20.jpg,AFNE11.jpg,AFNE11.jpg,FN,3,num_4,16,num_4,1.35014287336,,,2017_Apr_13_1253,60.0141094455,FEMA4ImagesEEG,001,200112,
AFNE01.JPG,AFNE01.JPG,AFNE01.JPG,AFNE01.JPG,AFNE01.JPG,AFNE01.JPG,1,1,11,4,,,,,,,,,,,,,,,,,,,,,,,AFNE19.jpg,AFSA10.jpg,AFNE18.jpg,AFSA06.jpg,AFNE19.jpg,FN,3,num_8,32,num_2,0.816759162582,,,2017_Apr_13_1253,60.0141094455,FEMA4ImagesEEG,001,200112,
AFNE01.JPG,AFNE01.JPG,AFNE01.JPG,AFNE01.JPG,AFNE01.JPG,AFNE01.JPG,1,2,12,9,,,,,,,,,,,,,,,,,,,,,,,AFNE15.jpg,AFNE18.jpg,AFSA19.jpg,AFSA07.jpg,AFNE15.jpg,FN,3,num_8,32,num_4,1.48344229395,,,2017_Apr_13_1253,60.0141094455,FEMA4ImagesEEG,001,200112,
AFNE01.JPG,AFNE01.JPG,AFNE01.JPG,AFNE01.JPG,AFNE01.JPG,AFNE01.JPG,1,3,13,1,,,,,,,,,,,,,,,,,,,,,,,AFSA13.jpg,AFSA07.jpg,AFNE16.jpg,AFNE14.jpg,AFSA13.jpg,FS,4,num_8,32,num_4,1.45001800917,,,2017_Apr_13_1253,60.0141094455,FEMA4ImagesEEG,001,200112,
AFNE01.JPG,AFNE01.JPG,AFNE01.JPG,AFNE01.JPG,AFNE01.JPG,AFNE01.JPG,1,4,14,2,,,,,,,,,,,,,,,,,,,,,,,AFSA14.jpg,AFNE20.jpg,AFSA02.jpg,AFNE16.jpg,AFNE16.jpg,FN,3,num_4,32,num_6,1.11677747685,,,2017_Apr_13_1253,60.0141094455,FEMA4ImagesEEG,001,200112,
AFNE01.JPG,AFNE01.JPG,AFNE01.JPG,AFNE01.JPG,AFNE01.JPG,AFNE01.JPG,1,5,15,0,,,,,,,,,,,,,,,,,,,,,,,AFSA01.jpg,AFNE03.jpg,AFNE16.jpg,AFSA11.jpg,AFSA11.jpg,FS,4,num_4,16,num_4,1.25010832958,,,2017_Apr_13_1253,60.0141094455,FEMA4ImagesEEG,001,200112,
AFNE01.JPG,AFNE01.JPG,AFNE01.JPG,AFNE01.JPG,AFNE01.JPG,AFNE01.JPG,1,6,16,8,,,,,,,,,,,,,,,,,,,,,,,AFSA12.jpg,AFSA16.jpg,AFNE09.jpg,AFNE04.jpg,AFNE09.jpg,FN,3,num_2,32,num_6,0.783396460116,,,2017_Apr_13_1253,60.0141094455,FEMA4ImagesEEG,001,200112,
AFNE01.JPG,AFNE01.JPG,AFNE01.JPG,AFNE01.JPG,AFNE01.JPG,AFNE01.JPG,1,7,17,3,,,,,,,,,,,,,,,,,,,,,,,AFNE09.jpg,AFNE18.jpg,AFSA05.jpg,AFSA10.jpg,AFNE09.jpg,FN,3,num_8,16,num_8,1.88342298567,,,2017_Apr_13_1253,60.0141094455,FEMA4ImagesEEG,001,200112,
AFNE01.JPG,AFNE01.JPG,AFNE01.JPG,AFNE01.JPG,AFNE01.JPG,AFNE01.JPG,1,8,18,5,,,,,,,,,,,,,,,,,,,,,,,AFSA20.jpg,AFNE07.jpg,AFNE20.jpg,AFSA15.jpg,AFNE07.jpg,FN,3,num_6,16,num_6,0.533514572773,,,2017_Apr_13_1253,60.0141094455,FEMA4ImagesEEG,001,200112,
AFNE01.JPG,AFNE01.JPG,AFNE01.JPG,AFNE01.JPG,AFNE01.JPG,AFNE01.JPG,1,9,19,7,,,,,,,,,,,,,,,,,,,,,,,AFNE14.jpg,AFNE01.jpg,AFSA20.jpg,AFSA02.jpg,AFSA02.jpg,FS,4,num_4,16,num_4,1.15015685791,,,2017_Apr_13_1253,60.0141094455,FEMA4ImagesEEG,001,200112,
AFNE01.JPG,AFNE01.JPG,AFNE01.JPG,AFNE01.JPG,AFNE01.JPG,AFNE01.JPG,2,0,20,5,,,,,,,,,,,,,,,,,,,,,,,AFSA09.jpg,AFSA13.jpg,AFNE16.jpg,AFNE09.jpg,AFNE09.jpg,FN,3,num_4,16,num_4,1.30012672441,,,2017_Apr_13_1253,60.0141094455,FEMA4ImagesEEG,001,200112,
AFNE01.JPG,AFNE01.JPG,AFNE01.JPG,AFNE01.JPG,AFNE01.JPG,AFNE01.JPG,2,1,21,0,,,,,,,,,,,,,,,,,,,,,,,AFNE11.jpg,AFNE14.jpg,AFSA02.jpg,AFSA15.jpg,AFNE11.jpg,FN,3,num_8,16,num_8,1.10009997478,,,2017_Apr_13_1253,60.0141094455,FEMA4ImagesEEG,001,200112,
AFNE01.JPG,AFNE01.JPG,AFNE01.JPG,AFNE01.JPG,AFNE01.JPG,AFNE01.JPG,2,2,22,6,,,,,,,,,,,,,,,,,,,,,,,AFSA06.jpg,AFNE05.jpg,AFNE11.jpg,AFSA17.jpg,AFNE05.jpg,FN,3,num_6,16,num_6,0.733443175908,,,2017_Apr_13_1253,60.0141094455,FEMA4ImagesEEG,001,200112,
AFNE01.JPG,AFNE01.JPG,AFNE01.JPG,AFNE01.JPG,AFNE01.JPG,AFNE01.JPG,2,3,23,7,,,,,,,,,,,,,,,,,,,,,,,AFNE04.jpg,AFSA09.jpg,AFNE07.jpg,AFSA20.jpg,AFNE04.jpg,FN,3,num_8,32,num_2,1.01677212026,,,2017_Apr_13_1253,60.0141094455,FEMA4ImagesEEG,001,200112,
AFNE01.JPG,AFNE01.JPG,AFNE01.JPG,AFNE01.JPG,AFNE01.JPG,AFNE01.JPG,2,4,24,2,,,,,,,,,,,,,,,,,,,,,,,AFNE04.jpg,AFNE08.jpg,AFSA19.jpg,AFSA03.jpg,AFSA03.jpg,FS,4,num_4,32,num_6,0.333552291617,,,2017_Apr_13_1253,60.0141094455,FEMA4ImagesEEG,001,200112,
AFNE01.JPG,AFNE01.JPG,AFNE01.JPG,AFNE01.JPG,AFNE01.JPG,AFNE01.JPG,2,5,25,1,,,,,,,,,,,,,,,,,,,,,,,AFNE12.jpg,AFNE16.jpg,AFSA09.jpg,AFSA13.jpg,AFSA13.jpg,FS,4,num_4,16,num_4,0.816777765751,,,2017_Apr_13_1253,60.0141094455,FEMA4ImagesEEG,001,200112,
AFNE01.JPG,AFNE01.JPG,AFNE01.JPG,AFNE01.JPG,AFNE01.JPG,AFNE01.JPG,2,6,26,4,,,,,,,,,,,,,,,,,,,,,,,AFNE11.jpg,AFSA14.jpg,AFNE03.jpg,AFSA09.jpg,AFSA14.jpg,FS,4,num_6,32,num_2,0.350187135395,,,2017_Apr_13_1253,60.0141094455,FEMA4ImagesEEG,001,200112,
AFNE01.JPG,AFNE01.JPG,AFNE01.JPG,AFNE01.JPG,AFNE01.JPG,AFNE01.JPG,2,7,27,3,,,,,,,,,,,,,,,,,,,,,,,AFSA05.jpg,AFSA17.jpg,AFNE20.jpg,AFNE11.jpg,AFNE11.jpg,FN,3,num_4,32,num_6,1.31675002165,,,2017_Apr_13_1253,60.0141094455,FEMA4ImagesEEG,001,200112,
AFNE01.JPG,AFNE01.JPG,AFNE01.JPG,AFNE01.JPG,AFNE01.JPG,AFNE01.JPG,2,8,28,8,,,,,,,,,,,,,,,,,,,,,,,AFNE12.jpg,AFSA06.jpg,AFSA03.jpg,AFNE07.jpg,AFSA03.jpg,FS,4,num_2,16,num_2,0.733461458236,,,2017_Apr_13_1253,60.0141094455,FEMA4ImagesEEG,001,200112,
AFNE01.JPG,AFNE01.JPG,AFNE01.JPG,AFNE01.JPG,AFNE01.JPG,AFNE01.JPG,2,9,29,9,,,,,,,,,,,,,,,,,,,,,,,AFNE11.jpg,AFNE15.jpg,AFSA09.jpg,AFSA08.jpg,AFNE11.jpg,FN,3,num_8,32,num_4,1.0667497809,,,2017_Apr_13_1253,60.0141094455,FEMA4ImagesEEG,001,200112,
AFNE01.JPG,AFNE01.JPG,AFNE01.JPG,AFNE01.JPG,AFNE01.JPG,AFNE01.JPG,3,0,30,4,,,,,,,,,,,,,,,,,,,,,,,AFNE16.jpg,AFSA11.jpg,AFNE18.jpg,AFSA04.jpg,AFSA04.jpg,FS,4,num_4,32,num_8,1.80005696323,,,2017_Apr_13_1253,60.0141094455,FEMA4ImagesEEG,001,200112,
AFNE01.JPG,AFNE01.JPG,AFNE01.JPG,AFNE01.JPG,AFNE01.JPG,AFNE01.JPG,3,1,31,1,,,,,,,,,,,,,,,,,,,,,,,AFSA18.jpg,AFNE10.jpg,AFNE15.jpg,AFSA19.jpg,AFNE10.jpg,FN,3,num_6,16,num_6,1.05013770983,,,2017_Apr_13_1253,60.0141094455,FEMA4ImagesEEG,001,200112,
AFNE01.JPG,AFNE01.JPG,AFNE01.JPG,AFNE01.JPG,AFNE01.JPG,AFNE01.JPG,3,2,32,0,,,,,,,,,,,,,,,,,,,,,,,AFSA19.jpg,AFNE18.jpg,AFSA01.jpg,AFNE05.jpg,AFNE05.jpg,FN,3,num_4,32,num_8,1.28342388337,,,2017_Apr_13_1253,60.0141094455,FEMA4ImagesEEG,001,200112,
AFNE01.JPG,AFNE01.JPG,AFNE01.JPG,AFNE01.JPG,AFNE01.JPG,AFNE01.JPG,3,3,33,9,,,,,,,,,,,,,,,,,,,,,,,AFNE12.jpg,AFNE07.jpg,AFSA13.jpg,AFSA19.jpg,AFNE07.jpg,FN,3,num_6,32,num_8,1.2999711656,,,2017_Apr_13_1253,60.0141094455,FEMA4ImagesEEG,001,200112,
AFNE01.JPG,AFNE01.JPG,AFNE01.JPG,AFNE01.JPG,AFNE01.JPG,AFNE01.JPG,3,4,34,8,,,,,,,,,,,,,,,,,,,,,,,AFNE11.jpg,AFNE19.jpg,AFSA17.jpg,AFSA13.jpg,AFNE11.jpg,FN,3,num_8,32,num_2,0.783505832311,,,2017_Apr_13_1253,60.0141094455,FEMA4ImagesEEG,001,200112,
AFNE01.JPG,AFNE01.JPG,AFNE01.JPG,AFNE01.JPG,AFNE01.JPG,AFNE01.JPG,3,5,35,7,,,,,,,,,,,,,,,,,,,,,,,AFSA18.jpg,AFNE05.jpg,AFNE06.jpg,AFSA05.jpg,AFNE06.jpg,FN,3,num_2,32,num_6,0.800149336457,,,2017_Apr_13_1253,60.0141094455,FEMA4ImagesEEG,001,200112,
AFNE01.JPG,AFNE01.JPG,AFNE01.JPG,AFNE01.JPG,AFNE01.JPG,AFNE01.JPG,3,6,36,6,,,,,,,,,,,,,,,,,,,,,,,AFNE09.jpg,AFSA12.jpg,AFSA11.jpg,AFNE17.jpg,AFNE17.jpg,FN,3,num_4,32,num_2,0.900149881374,,,2017_Apr_13_1253,60.0141094455,FEMA4ImagesEEG,001,200112,
AFNE01.JPG,AFNE01.JPG,AFNE01.JPG,AFNE01.JPG,AFNE01.JPG,AFNE01.JPG,3,7,37,3,,,,,,,,,,,,,,,,,,,,,,,AFSA17.jpg,AFSA18.jpg,AFNE02.jpg,AFNE07.jpg,AFSA18.jpg,FS,4,num_6,16,num_6,0.933542092331,,,2017_Apr_13_1253,60.0141094455,FEMA4ImagesEEG,001,200112,
AFNE01.JPG,AFNE01.JPG,AFNE01.JPG,AFNE01.JPG,AFNE01.JPG,AFNE01.JPG,3,8,38,2,,,,,,,,,,,,,,,,,,,,,,,AFSA13.jpg,AFNE04.jpg,AFNE11.jpg,AFSA09.jpg,AFSA09.jpg,FS,4,num_4,32,num_2,1.05013001151,,,2017_Apr_13_1253,60.0141094455,FEMA4ImagesEEG,001,200112,
AFNE01.JPG,AFNE01.JPG,AFNE01.JPG,AFNE01.JPG,AFNE01.JPG,AFNE01.JPG,3,9,39,5,,,,,,,,,,,,,,,,,,,,,,,AFNE04.jpg,AFSA17.jpg,AFNE17.jpg,AFSA08.jpg,AFSA08.jpg,FS,4,num_4,32,num_8,0.533488592599,,,2017_Apr_13_1253,60.0141094455,FEMA4ImagesEEG,001,200112,
AFNE01.JPG,AFNE01.JPG,AFNE01.JPG,AFNE01.JPG,AFNE01.JPG,AFNE01.JPG,4,0,40,8,,,,,,,,,,,,,,,,,,,,,,,AFSA16.jpg,AFSA08.jpg,AFNE08.jpg,AFNE04.jpg,AFNE04.jpg,FN,3,num_4,32,num_2,1.01706239022,,,2017_Apr_13_1253,60.0141094455,FEMA4ImagesEEG,001,200112,
AFNE01.JPG,AFNE01.JPG,AFNE01.JPG,AFNE01.JPG,AFNE01.JPG,AFNE01.JPG,4,1,41,0,,,,,,,,,,,,,,,,,,,,,,,AFSA19.jpg,AFSA12.jpg,AFNE13.jpg,AFNE03.jpg,AFSA19.jpg,FS,4,num_8,32,num_4,0.983442454133,,,2017_Apr_13_1253,60.0141094455,FEMA4ImagesEEG,001,200112,
AFNE01.JPG,AFNE01.JPG,AFNE01.JPG,AFNE01.JPG,AFNE01.JPG,AFNE01.JPG,4,2,42,1,,,,,,,,,,,,,,,,,,,,,,,AFSA05.jpg,AFNE02.jpg,AFSA09.jpg,AFNE10.jpg,AFSA05.jpg,FS,4,num_8,32,num_2,0.75016333675,,,2017_Apr_13_1253,60.0141094455,FEMA4ImagesEEG,001,200112,
AFNE01.JPG,AFNE01.JPG,AFNE01.JPG,AFNE01.JPG,AFNE01.JPG,AFNE01.JPG,4,3,43,6,,,,,,,,,,,,,,,,,,,,,,,AFNE12.jpg,AFNE16.jpg,AFSA05.jpg,AFSA14.jpg,AFNE16.jpg,FN,3,num_6,16,num_6,2.18338741548,,,2017_Apr_13_1253,60.0141094455,FEMA4ImagesEEG,001,200112,
AFNE01.JPG,AFNE01.JPG,AFNE01.JPG,AFNE01.JPG,AFNE01.JPG,AFNE01.JPG,4,4,44,2,,,,,,,,,,,,,,,,,,,,,,,AFNE08.jpg,AFSA11.jpg,AFNE15.jpg,AFSA15.jpg,AFSA11.jpg,FS,4,num_6,16,num_6,0.966762385797,,,2017_Apr_13_1253,60.0141094455,FEMA4ImagesEEG,001,200112,
AFNE01.JPG,AFNE01.JPG,AFNE01.JPG,AFNE01.JPG,AFNE01.JPG,AFNE01.JPG,4,5,45,4,,,,,,,,,,,,,,,,,,,,,,,AFSA09.jpg,AFNE05.jpg,AFSA03.jpg,AFNE16.jpg,AFSA03.jpg,FS,4,num_2,32,num_6,0.800171467476,,,2017_Apr_13_1253,60.0141094455,FEMA4ImagesEEG,001,200112,
AFNE01.JPG,AFNE01.JPG,AFNE01.JPG,AFNE01.JPG,AFNE01.JPG,AFNE01.JPG,4,6,46,3,,,,,,,,,,,,,,,,,,,,,,,AFSA02.jpg,AFNE10.jpg,AFNE03.jpg,AFSA10.jpg,AFSA10.jpg,FS,4,num_4,32,num_2,1.08340643533,,,2017_Apr_13_1253,60.0141094455,FEMA4ImagesEEG,001,200112,
AFNE01.JPG,AFNE01.JPG,AFNE01.JPG,AFNE01.JPG,AFNE01.JPG,AFNE01.JPG,4,7,47,5,,,,,,,,,,,,,,,,,,,,,,,AFNE09.jpg,AFSA04.jpg,AFSA19.jpg,AFNE17.jpg,AFSA04.jpg,FS,4,num_6,32,num_8,2.1333908313,,,2017_Apr_13_1253,60.0141094455,FEMA4ImagesEEG,001,200112,
AFNE01.JPG,AFNE01.JPG,AFNE01.JPG,AFNE01.JPG,AFNE01.JPG,AFNE01.JPG,4,8,48,9,,,,,,,,,,,,,,,,,,,,,,,AFNE09.jpg,AFSA05.jpg,AFSA03.jpg,AFNE04.jpg,AFSA05.jpg,FS,4,num_6,16,num_6,1.35006365087,,,2017_Apr_13_1253,60.0141094455,FEMA4ImagesEEG,001,200112,
AFNE01.JPG,AFNE01.JPG,AFNE01.JPG,AFNE01.JPG,AFNE01.JPG,AFNE01.JPG,4,9,49,7,,,,,,,,,,,,,,,,,,,,,,,AFSA06.jpg,AFNE07.jpg,AFSA04.jpg,AFNE05.jpg,AFNE05.jpg,FN,3,num_4,32,num_8,0.833452381194,,,2017_Apr_13_1253,60.0141094455,FEMA4ImagesEEG,001,200112,
AFNE01.JPG,AFNE01.JPG,AFNE01.JPG,AFNE01.JPG,AFNE01.JPG,AFNE01.JPG,5,0,50,9,,,,,,,,,,,,,,,,,,,,,,,AFSA16.jpg,AFNE16.jpg,AFNE09.jpg,AFSA19.jpg,AFNE09.jpg,FN,3,num_2,32,num_6,0.333551970776,,,2017_Apr_13_1253,60.0141094455,FEMA4ImagesEEG,001,200112,
AFNE01.JPG,AFNE01.JPG,AFNE01.JPG,AFNE01.JPG,AFNE01.JPG,AFNE01.JPG,5,1,51,7,,,,,,,,,,,,,,,,,,,,,,,AFSA12.jpg,AFNE11.jpg,AFSA09.jpg,AFNE20.jpg,AFNE11.jpg,FN,3,num_6,16,num_6,0.966908643488,,,2017_Apr_13_1253,60.0141094455,FEMA4ImagesEEG,001,200112,
AFNE01.JPG,AFNE01.JPG,AFNE01.JPG,AFNE01.JPG,AFNE01.JPG,AFNE01.JPG,5,2,52,5,,,,,,,,,,,,,,,,,,,,,,,AFSA20.jpg,AFNE17.jpg,AFSA13.jpg,AFNE02.jpg,AFSA20.jpg,FS,4,num_8,32,num_4,1.016781101,,,2017_Apr_13_1253,60.0141094455,FEMA4ImagesEEG,001,200112,
AFNE01.JPG,AFNE01.JPG,AFNE01.JPG,AFNE01.JPG,AFNE01.JPG,AFNE01.JPG,5,3,53,0,,,,,,,,,,,,,,,,,,,,,,,AFSA18.jpg,AFNE17.jpg,AFSA01.jpg,AFNE18.jpg,AFSA18.jpg,FS,4,num_8,32,num_6,3.14988647448,,,2017_Apr_13_1253,60.0141094455,FEMA4ImagesEEG,001,200112,
AFNE01.JPG,AFNE01.JPG,AFNE01.JPG,AFNE01.JPG,AFNE01.JPG,AFNE01.JPG,5,4,54,2,,,,,,,,,,,,,,,,,,,,,,,AFNE11.jpg,AFSA18.jpg,AFSA05.jpg,AFNE12.jpg,AFNE12.jpg,FN,3,num_4,16,num_4,0.616878349334,,,2017_Apr_13_1253,60.0141094455,FEMA4ImagesEEG,001,200112,
AFNE01.JPG,AFNE01.JPG,AFNE01.JPG,AFNE01.JPG,AFNE01.JPG,AFNE01.JPG,5,5,55,1,,,,,,,,,,,,,,,,,,,,,,,AFNE10.jpg,AFSA08.jpg,AFNE17.jpg,AFSA19.jpg,AFNE10.jpg,FN,3,num_8,16,num_8,0.666656189132,,,2017_Apr_13_1253,60.0141094455,FEMA4ImagesEEG,001,200112,
AFNE01.JPG,AFNE01.JPG,AFNE01.JPG,AFNE01.JPG,AFNE01.JPG,AFNE01.JPG,5,6,56,3,,,,,,,,,,,,,,,,,,,,,,,AFNE08.jpg,AFSA11.jpg,AFNE03.jpg,AFSA18.jpg,AFNE08.jpg,FN,3,num_8,16,num_8,0.81681368826,,,2017_Apr_13_1253,60.0141094455,FEMA4ImagesEEG,001,200112,
AFNE01.JPG,AFNE01.JPG,AFNE01.JPG,AFNE01.JPG,AFNE01.JPG,AFNE01.JPG,5,7,57,6,,,,,,,,,,,,,,,,,,,,,,,AFSA12.jpg,AFNE08.jpg,AFNE13.jpg,AFSA09.jpg,AFSA12.jpg,FS,4,num_8,16,num_8,1.15010874672,,,2017_Apr_13_1253,60.0141094455,FEMA4ImagesEEG,001,200112,
AFNE01.JPG,AFNE01.JPG,AFNE01.JPG,AFNE01.JPG,AFNE01.JPG,AFNE01.JPG,5,8,58,4,,,,,,,,,,,,,,,,,,,,,,,AFNE08.jpg,AFSA18.jpg,AFSA08.jpg,AFNE12.jpg,AFNE08.jpg,FN,3,num_8,32,num_2,1.06673502689,,,2017_Apr_13_1253,60.0141094455,FEMA4ImagesEEG,001,200112,
AFNE01.JPG,AFNE01.JPG,AFNE01.JPG,AFNE01.JPG,AFNE01.JPG,AFNE01.JPG,5,9,59,8,,,,,,,,,,,,,,,,,,,,,,,AFNE04.jpg,AFSA05.jpg,AFNE18.jpg,AFSA13.jpg,AFSA05.jpg,FS,4,num_6,16,num_6,1.21645279229,,,2017_Apr_13_1253,60.0141094455,FEMA4ImagesEEG,001,200112,
,,,,,,,,,,,,,,,,,,,,,,,,,,,,,,,,,,,,,,,,,,,space,6.26638971874,2017_Apr_13_1253,60.0141094455,FEMA4ImagesEEG,001,200112,
AFNE01.JPG,AFNE01.JPG,AFNE01.JPG,AFNE01.JPG,AFNE01.JPG,AFNE01.JPG,,,,,0,0,0,5,,,,,,,,,,,,,,,,,,,AMNE03.jpg,AMSA01.jpg,AMNE01.jpg,AMSA19.jpg,AMNE03.jpg,MN,1,num_8,32,num_2,0.900140580256,,,2017_Apr_13_1253,60.0141094455,FEMA4ImagesEEG,001,200112,
AFNE01.JPG,AFNE01.JPG,AFNE01.JPG,AFNE01.JPG,AFNE01.JPG,AFNE01.JPG,,,,,0,1,1,6,,,,,,,,,,,,,,,,,,,AMNE13.jpg,AMSA07.jpg,AMNE02.jpg,AMSA04.jpg,AMNE02.jpg,MN,1,num_2,32,num_8,1.05013257777,,,2017_Apr_13_1253,60.0141094455,FEMA4ImagesEEG,001,200112,
AFNE01.JPG,AFNE01.JPG,AFNE01.JPG,AFNE01.JPG,AFNE01.JPG,AFNE01.JPG,,,,,0,2,2,3,,,,,,,,,,,,,,,,,,,AMSA11.jpg,AMNE02.jpg,AMSA14.jpg,AMNE09.jpg,AMSA11.jpg,MS,2,num_8,32,num_4,0.8001910327,,,2017_Apr_13_1253,60.0141094455,FEMA4ImagesEEG,001,200112,
AFNE01.JPG,AFNE01.JPG,AFNE01.JPG,AFNE01.JPG,AFNE01.JPG,AFNE01.JPG,,,,,0,3,3,4,,,,,,,,,,,,,,,,,,,AMSA01.jpg,AMNE20.jpg,AMSA18.jpg,AMNE16.jpg,AMNE20.jpg,MN,1,num_6,16,num_6,0.850173183251,,,2017_Apr_13_1253,60.0141094455,FEMA4ImagesEEG,001,200112,
AFNE01.JPG,AFNE01.JPG,AFNE01.JPG,AFNE01.JPG,AFNE01.JPG,AFNE01.JPG,,,,,0,4,4,1,,,,,,,,,,,,,,,,,,,AMNE05.jpg,AMSA05.jpg,AMSA18.jpg,AMNE19.jpg,AMSA05.jpg,MS,2,num_6,32,num_2,1.10012755822,,,2017_Apr_13_1253,60.0141094455,FEMA4ImagesEEG,001,200112,
AFNE01.JPG,AFNE01.JPG,AFNE01.JPG,AFNE01.JPG,AFNE01.JPG,AFNE01.JPG,,,,,0,5,5,9,,,,,,,,,,,,,,,,,,,AMSA02.jpg,AMSA05.jpg,AMNE06.jpg,AMNE20.jpg,AMNE20.jpg,MN,1,num_4,16,num_4,0.916679202113,,,2017_Apr_13_1253,60.0141094455,FEMA4ImagesEEG,001,200112,
AFNE01.JPG,AFNE01.JPG,AFNE01.JPG,AFNE01.JPG,AFNE01.JPG,AFNE01.JPG,,,,,0,6,6,7,,,,,,,,,,,,,,,,,,,AMNE12.jpg,AMSA05.jpg,AMNE09.jpg,AMSA07.jpg,AMSA05.jpg,MS,2,num_6,16,num_6,0.883320990019,,,2017_Apr_13_1253,60.0141094455,FEMA4ImagesEEG,001,200112,
AFNE01.JPG,AFNE01.JPG,AFNE01.JPG,AFNE01.JPG,AFNE01.JPG,AFNE01.JPG,,,,,0,7,7,8,,,,,,,,,,,,,,,,,,,AMSA02.jpg,AMSA14.jpg,AMNE18.jpg,AMNE08.jpg,AMNE18.jpg,MN,1,num_2,32,num_8,1.23345776973,,,2017_Apr_13_1253,60.0141094455,FEMA4ImagesEEG,001,200112,
AFNE01.JPG,AFNE01.JPG,AFNE01.JPG,AFNE01.JPG,AFNE01.JPG,AFNE01.JPG,,,,,0,8,8,2,,,,,,,,,,,,,,,,,,,AMNE10.jpg,AMNE16.jpg,AMSA04.jpg,AMSA12.jpg,AMSA04.jpg,MS,2,num_2,16,num_2,0.600120020565,,,2017_Apr_13_1253,60.0141094455,FEMA4ImagesEEG,001,200112,
AFNE01.JPG,AFNE01.JPG,AFNE01.JPG,AFNE01.JPG,AFNE01.JPG,AFNE01.JPG,,,,,0,9,9,0,,,,,,,,,,,,,,,,,,,AMSA15.jpg,AMNE09.jpg,AMNE19.jpg,AMSA20.jpg,AMNE19.jpg,MN,1,num_2,32,num_4,0.900126147084,,,2017_Apr_13_1253,60.0141094455,FEMA4ImagesEEG,001,200112,
AFNE01.JPG,AFNE01.JPG,AFNE01.JPG,AFNE01.JPG,AFNE01.JPG,AFNE01.JPG,,,,,1,0,10,3,,,,,,,,,,,,,,,,,,,AMNE12.jpg,AMSA03.jpg,AMSA05.jpg,AMNE13.jpg,AMNE13.jpg,MN,1,num_4,32,num_8,1.41677398095,,,2017_Apr_13_1253,60.0141094455,FEMA4ImagesEEG,001,200112,
AFNE01.JPG,AFNE01.JPG,AFNE01.JPG,AFNE01.JPG,AFNE01.JPG,AFNE01.JPG,,,,,1,1,11,0,,,,,,,,,,,,,,,,,,,AMNE15.jpg,AMSA18.jpg,AMNE17.jpg,AMSA04.jpg,AMSA04.jpg,MS,2,num_4,16,num_4,1.10012338823,,,2017_Apr_13_1253,60.0141094455,FEMA4ImagesEEG,001,200112,
AFNE01.JPG,AFNE01.JPG,AFNE01.JPG,AFNE01.JPG,AFNE01.JPG,AFNE01.JPG,,,,,1,2,12,1,,,,,,,,,,,,,,,,,,,AMSA18.jpg,AMSA14.jpg,AMNE10.jpg,AMNE16.jpg,AMNE16.jpg,MN,1,num_4,32,num_2,1.00014850264,,,2017_Apr_13_1253,60.0141094455,FEMA4ImagesEEG,001,200112,
AFNE01.JPG,AFNE01.JPG,AFNE01.JPG,AFNE01.JPG,AFNE01.JPG,AFNE01.JPG,,,,,1,3,13,7,,,,,,,,,,,,,,,,,,,AMNE06.jpg,AMNE13.jpg,AMSA06.jpg,AMSA17.jpg,AMNE06.jpg,MN,1,num_8,32,num_4,1.28346814588,,,2017_Apr_13_1253,60.0141094455,FEMA4ImagesEEG,001,200112,
AFNE01.JPG,AFNE01.JPG,AFNE01.JPG,AFNE01.JPG,AFNE01.JPG,AFNE01.JPG,,,,,1,4,14,5,,,,,,,,,,,,,,,,,,,AMSA01.jpg,AMNE07.jpg,AMNE09.jpg,AMSA04.jpg,AMNE07.jpg,MN,1,num_6,16,num_6,0.750148261897,,,2017_Apr_13_1253,60.0141094455,FEMA4ImagesEEG,001,200112,
AFNE01.JPG,AFNE01.JPG,AFNE01.JPG,AFNE01.JPG,AFNE01.JPG,AFNE01.JPG,,,,,1,5,15,6,,,,,,,,,,,,,,,,,,,AMSA06.jpg,AMNE04.jpg,AMNE02.jpg,AMSA01.jpg,AMNE02.jpg,MN,1,num_2,32,num_8,1.0834067557,,,2017_Apr_13_1253,60.0141094455,FEMA4ImagesEEG,001,200112,
AFNE01.JPG,AFNE01.JPG,AFNE01.JPG,AFNE01.JPG,AFNE01.JPG,AFNE01.JPG,,,,,1,6,16,2,,,,,,,,,,,,,,,,,,,AMSA09.jpg,AMNE10.jpg,AMNE08.jpg,AMSA08.jpg,AMSA08.jpg,MS,2,num_4,32,num_6,0.666786729824,,,2017_Apr_13_1253,60.0141094455,FEMA4ImagesEEG,001,200112,
AFNE01.JPG,AFNE01.JPG,AFNE01.JPG,AFNE01.JPG,AFNE01.JPG,AFNE01.JPG,,,,,1,7,17,9,,,,,,,,,,,,,,,,,,,AMNE16.jpg,AMNE15.jpg,AMSA08.jpg,AMSA19.jpg,AMNE16.jpg,MN,1,num_8,32,num_2,0.833550206851,,,2017_Apr_13_1253,60.0141094455,FEMA4ImagesEEG,001,200112,
AFNE01.JPG,AFNE01.JPG,AFNE01.JPG,AFNE01.JPG,AFNE01.JPG,AFNE01.JPG,,,,,1,8,18,8,,,,,,,,,,,,,,,,,,,AMNE18.jpg,AMSA08.jpg,AMNE01.jpg,AMSA16.jpg,AMSA08.jpg,MS,2,num_6,32,num_4,0.700162583031,,,2017_Apr_13_1253,60.0141094455,FEMA4ImagesEEG,001,200112,
AFNE01.JPG,AFNE01.JPG,AFNE01.JPG,AFNE01.JPG,AFNE01.JPG,AFNE01.JPG,,,,,1,9,19,4,,,,,,,,,,,,,,,,,,,AMNE01.jpg,AMNE15.jpg,AMSA08.jpg,AMSA15.jpg,AMNE01.jpg,MN,1,num_8,32,num_2,1.13345530024,,,2017_Apr_13_1253,60.0141094455,FEMA4ImagesEEG,001,200112,
AFNE01.JPG,AFNE01.JPG,AFNE01.JPG,AFNE01.JPG,AFNE01.JPG,AFNE01.JPG,,,,,2,0,20,6,,,,,,,,,,,,,,,,,,,AMNE02.jpg,AMSA09.jpg,AMNE13.jpg,AMSA13.jpg,AMSA13.jpg,MS,2,num_4,16,num_4,0.850109997671,,,2017_Apr_13_1253,60.0141094455,FEMA4ImagesEEG,001,200112,
AFNE01.JPG,AFNE01.JPG,AFNE01.JPG,AFNE01.JPG,AFNE01.JPG,AFNE01.JPG,,,,,2,1,21,2,,,,,,,,,,,,,,,,,,,AMSA02.jpg,AMNE12.jpg,AMSA10.jpg,AMNE01.jpg,AMNE01.jpg,MN,1,num_4,32,num_6,1.01677436568,,,2017_Apr_13_1253,60.0141094455,FEMA4ImagesEEG,001,200112,
AFNE01.JPG,AFNE01.JPG,AFNE01.JPG,AFNE01.JPG,AFNE01.JPG,AFNE01.JPG,,,,,2,2,22,3,,,,,,,,,,,,,,,,,,,AMNE12.jpg,AMNE06.jpg,AMSA14.jpg,AMSA05.jpg,AMNE12.jpg,MN,1,num_8,32,num_6,0.866793593857,,,2017_Apr_13_1253,60.0141094455,FEMA4ImagesEEG,001,200112,
AFNE01.JPG,AFNE01.JPG,AFNE01.JPG,AFNE01.JPG,AFNE01.JPG,AFNE01.JPG,,,,,2,3,23,8,,,,,,,,,,,,,,,,,,,AMSA13.jpg,AMNE13.jpg,AMSA10.jpg,AMNE04.jpg,AMSA13.jpg,MS,2,num_8,32,num_4,0.833637127187,,,2017_Apr_13_1253,60.0141094455,FEMA4ImagesEEG,001,200112,
AFNE01.JPG,AFNE01.JPG,AFNE01.JPG,AFNE01.JPG,AFNE01.JPG,AFNE01.JPG,,,,,2,4,24,0,,,,,,,,,,,,,,,,,,,AMSA02.jpg,AMNE09.jpg,AMNE18.jpg,AMSA03.jpg,AMNE18.jpg,MN,1,num_2,32,num_6,0.883490019944,,,2017_Apr_13_1253,60.0141094455,FEMA4ImagesEEG,001,200112,
AFNE01.JPG,AFNE01.JPG,AFNE01.JPG,AFNE01.JPG,AFNE01.JPG,AFNE01.JPG,,,,,2,5,25,4,,,,,,,,,,,,,,,,,,,AMSA06.jpg,AMNE10.jpg,AMNE08.jpg,AMSA13.jpg,AMNE10.jpg,MN,1,num_6,32,num_2,0.933749931399,,,2017_Apr_13_1253,60.0141094455,FEMA4ImagesEEG,001,200112,
AFNE01.JPG,AFNE01.JPG,AFNE01.JPG,AFNE01.JPG,AFNE01.JPG,AFNE01.JPG,,,,,2,6,26,7,,,,,,,,,,,,,,,,,,,AMSA17.jpg,AMNE03.jpg,AMSA01.jpg,AMNE04.jpg,AMNE04.jpg,MN,1,num_4,16,num_4,0.800126884598,,,2017_Apr_13_1253,60.0141094455,FEMA4ImagesEEG,001,200112,
AFNE01.JPG,AFNE01.JPG,AFNE01.JPG,AFNE01.JPG,AFNE01.JPG,AFNE01.JPG,,,,,2,7,27,5,,,,,,,,,,,,,,,,,,,AMNE11.jpg,AMNE13.jpg,AMSA15.jpg,AMSA05.jpg,AMSA05.jpg,MS,2,num_4,32,num_2,0.800169863738,,,2017_Apr_13_1253,60.0141094455,FEMA4ImagesEEG,001,200112,
AFNE01.JPG,AFNE01.JPG,AFNE01.JPG,AFNE01.JPG,AFNE01.JPG,AFNE01.JPG,,,,,2,8,28,9,,,,,,,,,,,,,,,,,,,AMSA11.jpg,AMSA19.jpg,AMNE08.jpg,AMNE03.jpg,AMNE08.jpg,MN,1,num_2,32,num_4,0.96677746065,,,2017_Apr_13_1253,60.0141094455,FEMA4ImagesEEG,001,200112,
AFNE01.JPG,AFNE01.JPG,AFNE01.JPG,AFNE01.JPG,AFNE01.JPG,AFNE01.JPG,,,,,2,9,29,1,,,,,,,,,,,,,,,,,,,AMNE20.jpg,AMNE18.jpg,AMSA14.jpg,AMSA13.jpg,AMSA14.jpg,MS,2,num_2,16,num_2,0.583482290152,,,2017_Apr_13_1253,60.0141094455,FEMA4ImagesEEG,001,200112,
AFNE01.JPG,AFNE01.JPG,AFNE01.JPG,AFNE01.JPG,AFNE01.JPG,AFNE01.JPG,,,,,3,0,30,0,,,,,,,,,,,,,,,,,,,AMSA16.jpg,AMSA15.jpg,AMNE08.jpg,AMNE16.jpg,AMNE08.jpg,MN,1,num_2,32,num_8,1.28343703412,,,2017_Apr_13_1253,60.0141094455,FEMA4ImagesEEG,001,200112,
AFNE01.JPG,AFNE01.JPG,AFNE01.JPG,AFNE01.JPG,AFNE01.JPG,AFNE01.JPG,,,,,3,1,31,5,,,,,,,,,,,,,,,,,,,AMNE09.jpg,AMNE05.jpg,AMSA18.jpg,AMSA03.jpg,AMSA03.jpg,MS,2,num_4,16,num_4,1.24979977822,,,2017_Apr_13_1253,60.0141094455,FEMA4ImagesEEG,001,200112,
AFNE01.JPG,AFNE01.JPG,AFNE01.JPG,AFNE01.JPG,AFNE01.JPG,AFNE01.JPG,,,,,3,2,32,6,,,,,,,,,,,,,,,,,,,AMSA02.jpg,AMSA05.jpg,AMNE16.jpg,AMNE15.jpg,AMSA02.jpg,MS,2,num_8,32,num_6,1.88336364878,,,2017_Apr_13_1253,60.0141094455,FEMA4ImagesEEG,001,200112,
AFNE01.JPG,AFNE01.JPG,AFNE01.JPG,AFNE01.JPG,AFNE01.JPG,AFNE01.JPG,,,,,3,3,33,3,,,,,,,,,,,,,,,,,,,AMSA03.jpg,AMNE20.jpg,AMNE17.jpg,AMSA09.jpg,AMSA09.jpg,MS,2,num_4,16,num_4,0.966760141309,,,2017_Apr_13_1253,60.0141094455,FEMA4ImagesEEG,001,200112,
AFNE01.JPG,AFNE01.JPG,AFNE01.JPG,AFNE01.JPG,AFNE01.JPG,AFNE01.JPG,,,,,3,4,34,1,,,,,,,,,,,,,,,,,,,AMSA02.jpg,AMSA10.jpg,AMNE15.jpg,AMNE18.jpg,AMSA10.jpg,MS,2,num_6,16,num_6,0.966776498593,,,2017_Apr_13_1253,60.0141094455,FEMA4ImagesEEG,001,200112,
AFNE01.JPG,AFNE01.JPG,AFNE01.JPG,AFNE01.JPG,AFNE01.JPG,AFNE01.JPG,,,,,3,5,35,7,,,,,,,,,,,,,,,,,,,AMNE02.jpg,AMSA12.jpg,AMSA02.jpg,AMNE16.jpg,AMNE16.jpg,MN,1,num_4,16,num_4,0.916781197302,,,2017_Apr_13_1253,60.0141094455,FEMA4ImagesEEG,001,200112,
AFNE01.JPG,AFNE01.JPG,AFNE01.JPG,AFNE01.JPG,AFNE01.JPG,AFNE01.JPG,,,,,3,6,36,4,,,,,,,,,,,,,,,,,,,AMSA13.jpg,AMNE05.jpg,AMNE18.jpg,AMSA14.jpg,AMNE05.jpg,MN,1,num_6,16,num_6,1.15017097024,,,2017_Apr_13_1253,60.0141094455,FEMA4ImagesEEG,001,200112,
AFNE01.JPG,AFNE01.JPG,AFNE01.JPG,AFNE01.JPG,AFNE01.JPG,AFNE01.JPG,,,,,3,7,37,8,,,,,,,,,,,,,,,,,,,AMSA04.jpg,AMNE08.jpg,AMSA09.jpg,AMNE07.jpg,AMSA04.jpg,MS,2,num_8,16,num_8,1.35014127009,,,2017_Apr_13_1253,60.0141094455,FEMA4ImagesEEG,001,200112,
AFNE01.JPG,AFNE01.JPG,AFNE01.JPG,AFNE01.JPG,AFNE01.JPG,AFNE01.JPG,,,,,3,8,38,9,,,,,,,,,,,,,,,,,,,AMSA12.jpg,AMNE10.jpg,AMNE07.jpg,AMSA08.jpg,AMSA08.jpg,MS,2,num_4,32,num_2,1.31675098371,,,2017_Apr_13_1253,60.0141094455,FEMA4ImagesEEG,001,200112,
AFNE01.JPG,AFNE01.JPG,AFNE01.JPG,AFNE01.JPG,AFNE01.JPG,AFNE01.JPG,,,,,3,9,39,2,,,,,,,,,,,,,,,,,,,AMSA12.jpg,AMSA02.jpg,AMNE05.jpg,AMNE20.jpg,AMNE05.jpg,MN,1,num_2,32,num_4,0.850127959158,,,2017_Apr_13_1253,60.0141094455,FEMA4ImagesEEG,001,200112,
AFNE01.JPG,AFNE01.JPG,AFNE01.JPG,AFNE01.JPG,AFNE01.JPG,AFNE01.JPG,,,,,4,0,40,3,,,,,,,,,,,,,,,,,,,AMSA17.jpg,AMNE10.jpg,AMSA14.jpg,AMNE18.jpg,AMSA17.jpg,MS,2,num_8,32,num_6,0.98341358779,,,2017_Apr_13_1253,60.0141094455,FEMA4ImagesEEG,001,200112,
AFNE01.JPG,AFNE01.JPG,AFNE01.JPG,AFNE01.JPG,AFNE01.JPG,AFNE01.JPG,,,,,4,1,41,4,,,,,,,,,,,,,,,,,,,AMNE05.jpg,AMSA07.jpg,AMSA04.jpg,AMNE10.jpg,AMNE05.jpg,MN,1,num_8,16,num_8,1.33345254185,,,2017_Apr_13_1253,60.0141094455,FEMA4ImagesEEG,001,200112,
AFNE01.JPG,AFNE01.JPG,AFNE01.JPG,AFNE01.JPG,AFNE01.JPG,AFNE01.JPG,,,,,4,2,42,9,,,,,,,,,,,,,,,,,,,AMNE07.jpg,AMSA19.jpg,AMSA13.jpg,AMNE06.jpg,AMNE07.jpg,MN,1,num_8,32,num_4,1.18358691549,,,2017_Apr_13_1253,60.0141094455,FEMA4ImagesEEG,001,200112,
AFNE01.JPG,AFNE01.JPG,AFNE01.JPG,AFNE01.JPG,AFNE01.JPG,AFNE01.JPG,,,,,4,3,43,1,,,,,,,,,,,,,,,,,,,AMSA02.jpg,AMNE20.jpg,AMSA18.jpg,AMNE16.jpg,AMNE16.jpg,MN,1,num_4,32,num_6,0.616767694242,,,2017_Apr_13_1253,60.0141094455,FEMA4ImagesEEG,001,200112,
AFNE01.JPG,AFNE01.JPG,AFNE01.JPG,AFNE01.JPG,AFNE01.JPG,AFNE01.JPG,,,,,4,4,44,6,,,,,,,,,,,,,,,,,,,AMNE04.jpg,AMSA06.jpg,AMNE20.jpg,AMSA02.jpg,AMSA02.jpg,MS,2,num_4,32,num_8,0.983528092038,,,2017_Apr_13_1253,60.0141094455,FEMA4ImagesEEG,001,200112,
AFNE01.JPG,AFNE01.JPG,AFNE01.JPG,AFNE01.JPG,AFNE01.JPG,AFNE01.JPG,,,,,4,5,45,7,,,,,,,,,,,,,,,,,,,AMSA13.jpg,AMNE07.jpg,AMSA18.jpg,AMNE16.jpg,AMSA13.jpg,MS,2,num_8,32,num_6,1.4167903387,,,2017_Apr_13_1253,60.0141094455,FEMA4ImagesEEG,001,200112,
AFNE01.JPG,AFNE01.JPG,AFNE01.JPG,AFNE01.JPG,AFNE01.JPG,AFNE01.JPG,,,,,4,6,46,5,,,,,,,,,,,,,,,,,,,AMNE20.jpg,AMSA14.jpg,AMNE10.jpg,AMSA03.jpg,AMNE20.jpg,MN,1,num_8,16,num_8,1.01676955447,,,2017_Apr_13_1253,60.0141094455,FEMA4ImagesEEG,001,200112,
AFNE01.JPG,AFNE01.JPG,AFNE01.JPG,AFNE01.JPG,AFNE01.JPG,AFNE01.JPG,,,,,4,7,47,0,,,,,,,,,,,,,,,,,,,AMNE19.jpg,AMSA14.jpg,AMSA20.jpg,AMNE16.jpg,AMNE16.jpg,MN,1,num_4,16,num_4,0.933451643679,,,2017_Apr_13_1253,60.0141094455,FEMA4ImagesEEG,001,200112,
AFNE01.JPG,AFNE01.JPG,AFNE01.JPG,AFNE01.JPG,AFNE01.JPG,AFNE01.JPG,,,,,4,8,48,2,,,,,,,,,,,,,,,,,,,AMNE15.jpg,AMSA12.jpg,AMNE07.jpg,AMSA10.jpg,AMNE07.jpg,MN,1,num_2,32,num_8,1.13331609871,,,2017_Apr_13_1253,60.0141094455,FEMA4ImagesEEG,001,200112,
AFNE01.JPG,AFNE01.JPG,AFNE01.JPG,AFNE01.JPG,AFNE01.JPG,AFNE01.JPG,,,,,4,9,49,8,,,,,,,,,,,,,,,,,,,AMNE02.jpg,AMSA16.jpg,AMSA19.jpg,AMNE06.jpg,AMNE02.jpg,MN,1,num_8,32,num_2,0.933419569395,,,2017_Apr_13_1253,60.0141094455,FEMA4ImagesEEG,001,200112,
AFNE01.JPG,AFNE01.JPG,AFNE01.JPG,AFNE01.JPG,AFNE01.JPG,AFNE01.JPG,,,,,5,0,50,7,,,,,,,,,,,,,,,,,,,AMNE11.jpg,AMSA19.jpg,AMNE12.jpg,AMSA16.jpg,AMSA19.jpg,MS,2,num_6,16,num_6,0.733481343836,,,2017_Apr_13_1253,60.0141094455,FEMA4ImagesEEG,001,200112,
AFNE01.JPG,AFNE01.JPG,AFNE01.JPG,AFNE01.JPG,AFNE01.JPG,AFNE01.JPG,,,,,5,1,51,2,,,,,,,,,,,,,,,,,,,AMSA11.jpg,AMNE14.jpg,AMSA08.jpg,AMNE16.jpg,AMNE16.jpg,MN,1,num_4,32,num_6,1.05006746762,,,2017_Apr_13_1253,60.0141094455,FEMA4ImagesEEG,001,200112,
AFNE01.JPG,AFNE01.JPG,AFNE01.JPG,AFNE01.JPG,AFNE01.JPG,AFNE01.JPG,,,,,5,2,52,6,,,,,,,,,,,,,,,,,,,AMNE02.jpg,AMSA10.jpg,AMNE19.jpg,AMSA17.jpg,AMSA10.jpg,MS,2,num_6,32,num_4,0.81687077973,,,2017_Apr_13_1253,60.0141094455,FEMA4ImagesEEG,001,200112,
AFNE01.JPG,AFNE01.JPG,AFNE01.JPG,AFNE01.JPG,AFNE01.JPG,AFNE01.JPG,,,,,5,3,53,3,,,,,,,,,,,,,,,,,,,AMNE20.jpg,AMSA13.jpg,AMNE10.jpg,AMSA06.jpg,AMSA13.jpg,MS,2,num_6,16,num_6,0.900217557792,,,2017_Apr_13_1253,60.0141094455,FEMA4ImagesEEG,001,200112,
AFNE01.JPG,AFNE01.JPG,AFNE01.JPG,AFNE01.JPG,AFNE01.JPG,AFNE01.JPG,,,,,5,4,54,9,,,,,,,,,,,,,,,,,,,AMNE04.jpg,AMSA10.jpg,AMNE07.jpg,AMSA14.jpg,AMSA10.jpg,MS,2,num_6,32,num_2,1.15012157662,,,2017_Apr_13_1253,60.0141094455,FEMA4ImagesEEG,001,200112,
AFNE01.JPG,AFNE01.JPG,AFNE01.JPG,AFNE01.JPG,AFNE01.JPG,AFNE01.JPG,,,,,5,5,55,0,,,,,,,,,,,,,,,,,,,AMNE01.jpg,AMSA06.jpg,AMNE19.jpg,AMSA15.jpg,AMNE19.jpg,MN,1,num_2,32,num_6,1.20012393361,,,2017_Apr_13_1253,60.0141094455,FEMA4ImagesEEG,001,200112,
AFNE01.JPG,AFNE01.JPG,AFNE01.JPG,AFNE01.JPG,AFNE01.JPG,AFNE01.JPG,,,,,5,6,56,1,,,,,,,,,,,,,,,,,,,AMSA03.jpg,AMNE02.jpg,AMNE07.jpg,AMSA01.jpg,AMNE07.jpg,MN,1,num_2,16,num_2,1.08348052576,,,2017_Apr_13_1253,60.0141094455,FEMA4ImagesEEG,001,200112,
AFNE01.JPG,AFNE01.JPG,AFNE01.JPG,AFNE01.JPG,AFNE01.JPG,AFNE01.JPG,,,,,5,7,57,4,,,,,,,,,,,,,,,,,,,AMNE11.jpg,AMSA07.jpg,AMSA08.jpg,AMNE17.jpg,AMNE11.jpg,MN,1,num_8,16,num_8,1.31673398428,,,2017_Apr_13_1253,60.0141094455,FEMA4ImagesEEG,001,200112,
AFNE01.JPG,AFNE01.JPG,AFNE01.JPG,AFNE01.JPG,AFNE01.JPG,AFNE01.JPG,,,,,5,8,58,8,,,,,,,,,,,,,,,,,,,AMSA18.jpg,AMNE13.jpg,AMNE08.jpg,AMSA09.jpg,AMNE13.jpg,MN,1,num_6,32,num_4,0.416809262242,,,2017_Apr_13_1253,60.0141094455,FEMA4ImagesEEG,001,200112,
AFNE01.JPG,AFNE01.JPG,AFNE01.JPG,AFNE01.JPG,AFNE01.JPG,AFNE01.JPG,,,,,5,9,59,5,,,,,,,,,,,,,,,,,,,AMSA04.jpg,AMSA11.jpg,AMNE16.jpg,AMNE05.jpg,AMSA04.jpg,MS,2,num_8,32,num_6,0.833490549121,,,2017_Apr_13_1253,60.0141094455,FEMA4ImagesEEG,001,200112,
,,,,,,,,,,,,,,,,,,,,,,,,,,,,,,,,,,,,,,,,,,,space,11.8826163253,2017_Apr_13_1253,60.0141094455,FEMA4ImagesEEG,001,200112,
AFNE01.JPG,AFNE01.JPG,AFNE01.JPG,AFNE01.JPG,AFNE01.JPG,AFNE01.JPG,,,,,,,,,0,0,0,0,,,,,,,,,,,,,,,AFSA07.jpg,AFNE12.jpg,AFSA04.jpg,AFNE19.jpg,AFNE19.jpg,FN,3,num_4,32,num_2,0.984085858334,,,2017_Apr_13_1253,60.0141094455,FEMA4ImagesEEG,001,200112,
AFNE01.JPG,AFNE01.JPG,AFNE01.JPG,AFNE01.JPG,AFNE01.JPG,AFNE01.JPG,,,,,,,,,0,1,1,6,,,,,,,,,,,,,,,AFNE01.jpg,AFNE06.jpg,AFSA05.jpg,AFSA09.jpg,AFNE06.jpg,FN,3,num_6,16,num_6,0.933426946402,,,2017_Apr_13_1253,60.0141094455,FEMA4ImagesEEG,001,200112,
AFNE01.JPG,AFNE01.JPG,AFNE01.JPG,AFNE01.JPG,AFNE01.JPG,AFNE01.JPG,,,,,,,,,0,2,2,8,,,,,,,,,,,,,,,AFSA07.jpg,AFNE05.jpg,AFSA03.jpg,AFNE16.jpg,AFSA07.jpg,FS,4,num_8,16,num_8,1.01676217746,,,2017_Apr_13_1253,60.0141094455,FEMA4ImagesEEG,001,200112,
AFNE01.JPG,AFNE01.JPG,AFNE01.JPG,AFNE01.JPG,AFNE01.JPG,AFNE01.JPG,,,,,,,,,0,3,3,1,,,,,,,,,,,,,,,AFSA07.jpg,AFSA02.jpg,AFNE03.jpg,AFNE01.jpg,AFNE01.jpg,FN,3,num_4,16,num_4,0.983494414482,,,2017_Apr_13_1253,60.0141094455,FEMA4ImagesEEG,001,200112,
AFNE01.JPG,AFNE01.JPG,AFNE01.JPG,AFNE01.JPG,AFNE01.JPG,AFNE01.JPG,,,,,,,,,0,4,4,5,,,,,,,,,,,,,,,AFSA03.jpg,AFNE18.jpg,AFNE02.jpg,AFSA12.jpg,AFNE02.jpg,FN,3,num_2,16,num_2,1.10009644646,,,2017_Apr_13_1253,60.0141094455,FEMA4ImagesEEG,001,200112,
AFNE01.JPG,AFNE01.JPG,AFNE01.JPG,AFNE01.JPG,AFNE01.JPG,AFNE01.JPG,,,,,,,,,0,5,5,7,,,,,,,,,,,,,,,AFNE17.jpg,AFNE09.jpg,AFSA19.jpg,AFSA16.jpg,AFNE09.jpg,FN,3,num_6,16,num_6,0.91677927319,,,2017_Apr_13_1253,60.0141094455,FEMA4ImagesEEG,001,200112,
AFNE01.JPG,AFNE01.JPG,AFNE01.JPG,AFNE01.JPG,AFNE01.JPG,AFNE01.JPG,,,,,,,,,0,6,6,4,,,,,,,,,,,,,,,AFNE02.jpg,AFNE04.jpg,AFSA13.jpg,AFSA01.jpg,AFSA01.jpg,FS,4,num_4,32,num_8,1.36676617106,,,2017_Apr_13_1253,60.0141094455,FEMA4ImagesEEG,001,200112,
AFNE01.JPG,AFNE01.JPG,AFNE01.JPG,AFNE01.JPG,AFNE01.JPG,AFNE01.JPG,,,,,,,,,0,7,7,2,,,,,,,,,,,,,,,AFNE04.jpg,AFSA10.jpg,AFNE02.jpg,AFSA07.jpg,AFSA07.jpg,FS,4,num_4,16,num_4,0.850114167668,,,2017_Apr_13_1253,60.0141094455,FEMA4ImagesEEG,001,200112,
AFNE01.JPG,AFNE01.JPG,AFNE01.JPG,AFNE01.JPG,AFNE01.JPG,AFNE01.JPG,,,,,,,,,0,8,8,9,,,,,,,,,,,,,,,AFNE15.jpg,AFSA12.jpg,AFSA20.jpg,AFNE12.jpg,AFNE12.jpg,FN,3,num_4,32,num_8,1.00008018501,,,2017_Apr_13_1253,60.0141094455,FEMA4ImagesEEG,001,200112,
AFNE01.JPG,AFNE01.JPG,AFNE01.JPG,AFNE01.JPG,AFNE01.JPG,AFNE01.JPG,,,,,,,,,0,9,9,3,,,,,,,,,,,,,,,AFNE10.jpg,AFNE05.jpg,AFSA06.jpg,AFSA09.jpg,AFSA06.jpg,FS,4,num_2,32,num_6,0.750117791817,,,2017_Apr_13_1253,60.0141094455,FEMA4ImagesEEG,001,200112,
AFNE01.JPG,AFNE01.JPG,AFNE01.JPG,AFNE01.JPG,AFNE01.JPG,AFNE01.JPG,,,,,,,,,1,0,10,4,,,,,,,,,,,,,,,AFSA15.jpg,AFSA10.jpg,AFNE05.jpg,AFNE20.jpg,AFSA15.jpg,FS,4,num_8,32,num_4,1.35014223214,,,2017_Apr_13_1253,60.0141094455,FEMA4ImagesEEG,001,200112,
AFNE01.JPG,AFNE01.JPG,AFNE01.JPG,AFNE01.JPG,AFNE01.JPG,AFNE01.JPG,,,,,,,,,1,1,11,7,,,,,,,,,,,,,,,AFNE11.jpg,AFSA18.jpg,AFSA15.jpg,AFNE01.jpg,AFNE01.jpg,FN,3,num_4,16,num_4,1.31674392754,,,2017_Apr_13_1253,60.0141094455,FEMA4ImagesEEG,001,200112,
AFNE01.JPG,AFNE01.JPG,AFNE01.JPG,AFNE01.JPG,AFNE01.JPG,AFNE01.JPG,,,,,,,,,1,2,12,0,,,,,,,,,,,,,,,AFNE03.jpg,AFSA18.jpg,AFNE18.jpg,AFSA12.jpg,AFSA12.jpg,FS,4,num_4,32,num_8,1.06679436378,,,2017_Apr_13_1253,60.0141094455,FEMA4ImagesEEG,001,200112,
AFNE01.JPG,AFNE01.JPG,AFNE01.JPG,AFNE01.JPG,AFNE01.JPG,AFNE01.JPG,,,,,,,,,1,3,13,1,,,,,,,,,,,,,,,AFSA13.jpg,AFNE20.jpg,AFNE05.jpg,AFSA09.jpg,AFSA13.jpg,FS,4,num_8,16,num_8,0.916791460942,,,2017_Apr_13_1253,60.0141094455,FEMA4ImagesEEG,001,200112,
AFNE01.JPG,AFNE01.JPG,AFNE01.JPG,AFNE01.JPG,AFNE01.JPG,AFNE01.JPG,,,,,,,,,1,4,14,3,,,,,,,,,,,,,,,AFSA08.jpg,AFNE15.jpg,AFSA13.jpg,AFNE08.jpg,AFSA08.jpg,FS,4,num_8,32,num_2,0.933472812176,,,2017_Apr_13_1253,60.0141094455,FEMA4ImagesEEG,001,200112,
AFNE01.JPG,AFNE01.JPG,AFNE01.JPG,AFNE01.JPG,AFNE01.JPG,AFNE01.JPG,,,,,,,,,1,5,15,6,,,,,,,,,,,,,,,AFSA01.jpg,AFSA14.jpg,AFNE13.jpg,AFNE05.jpg,AFSA01.jpg,FS,4,num_8,16,num_8,0.900139938574,,,2017_Apr_13_1253,60.0141094455,FEMA4ImagesEEG,001,200112,
AFNE01.JPG,AFNE01.JPG,AFNE01.JPG,AFNE01.JPG,AFNE01.JPG,AFNE01.JPG,,,,,,,,,1,6,16,5,,,,,,,,,,,,,,,AFNE03.jpg,AFSA18.jpg,AFNE11.jpg,AFSA04.jpg,AFNE03.jpg,FN,3,num_8,32,num_4,0.366837696172,,,2017_Apr_13_1253,60.0141094455,FEMA4ImagesEEG,001,200112,
AFNE01.JPG,AFNE01.JPG,AFNE01.JPG,AFNE01.JPG,AFNE01.JPG,AFNE01.JPG,,,,,,,,,1,7,17,2,,,,,,,,,,,,,,,AFSA11.jpg,AFNE13.jpg,AFSA17.jpg,AFNE19.jpg,AFNE19.jpg,FN,3,num_4,32,num_8,0.916786008514,,,2017_Apr_13_1253,60.0141094455,FEMA4ImagesEEG,001,200112,
AFNE01.JPG,AFNE01.JPG,AFNE01.JPG,AFNE01.JPG,AFNE01.JPG,AFNE01.JPG,,,,,,,,,1,8,18,9,,,,,,,,,,,,,,,AFSA14.jpg,AFNE09.jpg,AFSA19.jpg,AFNE15.jpg,AFNE09.jpg,FN,3,num_6,16,num_6,0.8168040663,,,2017_Apr_13_1253,60.0141094455,FEMA4ImagesEEG,001,200112,
AFNE01.JPG,AFNE01.JPG,AFNE01.JPG,AFNE01.JPG,AFNE01.JPG,AFNE01.JPG,,,,,,,,,1,9,19,8,,,,,,,,,,,,,,,AFSA17.jpg,AFSA15.jpg,AFNE12.jpg,AFNE18.jpg,AFSA17.jpg,FS,4,num_8,32,num_2,1.21673151478,,,2017_Apr_13_1253,60.0141094455,FEMA4ImagesEEG,001,200112,
AFNE01.JPG,AFNE01.JPG,AFNE01.JPG,AFNE01.JPG,AFNE01.JPG,AFNE01.JPG,,,,,,,,,2,0,20,3,,,,,,,,,,,,,,,AFNE08.jpg,AFSA08.jpg,AFNE16.jpg,AFSA06.jpg,AFSA08.jpg,FS,4,num_6,16,num_6,1.03348939447,,,2017_Apr_13_1253,60.0141094455,FEMA4ImagesEEG,001,200112,
AFNE01.JPG,AFNE01.JPG,AFNE01.JPG,AFNE01.JPG,AFNE01.JPG,AFNE01.JPG,,,,,,,,,2,1,21,5,,,,,,,,,,,,,,,AFSA05.jpg,AFNE04.jpg,AFNE14.jpg,AFSA14.jpg,AFSA05.jpg,FS,4,num_8,16,num_8,1.08345550857,,,2017_Apr_13_1253,60.0141094455,FEMA4ImagesEEG,001,200112,
AFNE01.JPG,AFNE01.JPG,AFNE01.JPG,AFNE01.JPG,AFNE01.JPG,AFNE01.JPG,,,,,,,,,2,2,22,0,,,,,,,,,,,,,,,AFNE04.jpg,AFNE05.jpg,AFSA06.jpg,AFSA14.jpg,AFNE04.jpg,FN,3,num_8,16,num_8,1.00014433311,,,2017_Apr_13_1253,60.0141094455,FEMA4ImagesEEG,001,200112,
AFNE01.JPG,AFNE01.JPG,AFNE01.JPG,AFNE01.JPG,AFNE01.JPG,AFNE01.JPG,,,,,,,,,2,3,23,1,,,,,,,,,,,,,,,AFNE18.jpg,AFNE03.jpg,AFSA19.jpg,AFSA01.jpg,AFNE18.jpg,FN,3,num_8,32,num_6,0.633452252951,,,2017_Apr_13_1253,60.0141094455,FEMA4ImagesEEG,001,200112,
AFNE01.JPG,AFNE01.JPG,AFNE01.JPG,AFNE01.JPG,AFNE01.JPG,AFNE01.JPG,,,,,,,,,2,4,24,2,,,,,,,,,,,,,,,AFNE02.jpg,AFSA10.jpg,AFSA16.jpg,AFNE09.jpg,AFSA10.jpg,FS,4,num_6,32,num_8,1.48340733303,,,2017_Apr_13_1253,60.0141094455,FEMA4ImagesEEG,001,200112,
AFNE01.JPG,AFNE01.JPG,AFNE01.JPG,AFNE01.JPG,AFNE01.JPG,AFNE01.JPG,,,,,,,,,2,5,25,7,,,,,,,,,,,,,,,AFSA19.jpg,AFNE02.jpg,AFSA06.jpg,AFNE07.jpg,AFSA19.jpg,FS,4,num_8,32,num_6,0.650158942677,,,2017_Apr_13_1253,60.0141094455,FEMA4ImagesEEG,001,200112,
AFNE01.JPG,AFNE01.JPG,AFNE01.JPG,AFNE01.JPG,AFNE01.JPG,AFNE01.JPG,,,,,,,,,2,6,26,8,,,,,,,,,,,,,,,AFSA08.jpg,AFSA11.jpg,AFNE13.jpg,AFNE09.jpg,AFSA11.jpg,FS,4,num_6,16,num_6,0.550085268449,,,2017_Apr_13_1253,60.0141094455,FEMA4ImagesEEG,001,200112,
AFNE01.JPG,AFNE01.JPG,AFNE01.JPG,AFNE01.JPG,AFNE01.JPG,AFNE01.JPG,,,,,,,,,2,7,27,9,,,,,,,,,,,,,,,AFNE20.jpg,AFSA09.jpg,AFSA14.jpg,AFNE05.jpg,AFNE05.jpg,FN,3,num_4,32,num_8,1.06663944665,,,2017_Apr_13_1253,60.0141094455,FEMA4ImagesEEG,001,200112,
AFNE01.JPG,AFNE01.JPG,AFNE01.JPG,AFNE01.JPG,AFNE01.JPG,AFNE01.JPG,,,,,,,,,2,8,28,6,,,,,,,,,,,,,,,AFNE20.jpg,AFNE04.jpg,AFSA17.jpg,AFSA05.jpg,AFSA05.jpg,FS,4,num_4,16,num_4,0.983509168494,,,2017_Apr_13_1253,60.0141094455,FEMA4ImagesEEG,001,200112,
AFNE01.JPG,AFNE01.JPG,AFNE01.JPG,AFNE01.JPG,AFNE01.JPG,AFNE01.JPG,,,,,,,,,2,9,29,4,,,,,,,,,,,,,,,AFNE03.jpg,AFSA14.jpg,AFNE13.jpg,AFSA06.jpg,AFNE13.jpg,FN,3,num_2,16,num_2,1.36680562189,,,2017_Apr_13_1253,60.0141094455,FEMA4ImagesEEG,001,200112,
AFNE01.JPG,AFNE01.JPG,AFNE01.JPG,AFNE01.JPG,AFNE01.JPG,AFNE01.JPG,,,,,,,,,3,0,30,8,,,,,,,,,,,,,,,AFSA07.jpg,AFNE20.jpg,AFNE08.jpg,AFSA14.jpg,AFNE20.jpg,FN,3,num_6,16,num_6,1.05020666867,,,2017_Apr_13_1253,60.0141094455,FEMA4ImagesEEG,001,200112,
AFNE01.JPG,AFNE01.JPG,AFNE01.JPG,AFNE01.JPG,AFNE01.JPG,AFNE01.JPG,,,,,,,,,3,1,31,0,,,,,,,,,,,,,,,AFSA03.jpg,AFNE14.jpg,AFNE07.jpg,AFSA10.jpg,AFNE14.jpg,FN,3,num_6,16,num_6,1.01679168548,,,2017_Apr_13_1253,60.0141094455,FEMA4ImagesEEG,001,200112,
AFNE01.JPG,AFNE01.JPG,AFNE01.JPG,AFNE01.JPG,AFNE01.JPG,AFNE01.JPG,,,,,,,,,3,2,32,7,,,,,,,,,,,,,,,AFSA08.jpg,AFNE13.jpg,AFNE17.jpg,AFSA09.jpg,AFNE17.jpg,FN,3,num_2,16,num_2,1.03339894582,,,2017_Apr_13_1253,60.0141094455,FEMA4ImagesEEG,001,200112,
AFNE01.JPG,AFNE01.JPG,AFNE01.JPG,AFNE01.JPG,AFNE01.JPG,AFNE01.JPG,,,,,,,,,3,3,33,1,,,,,,,,,,,,,,,AFSA13.jpg,AFSA17.jpg,AFNE02.jpg,AFNE06.jpg,AFSA17.jpg,FS,4,num_6,32,num_8,1.21675781533,,,2017_Apr_13_1253,60.0141094455,FEMA4ImagesEEG,001,200112,
AFNE01.JPG,AFNE01.JPG,AFNE01.JPG,AFNE01.JPG,AFNE01.JPG,AFNE01.JPG,,,,,,,,,3,4,34,4,,,,,,,,,,,,,,,AFNE04.jpg,AFSA09.jpg,AFNE20.jpg,AFSA18.jpg,AFNE04.jpg,FN,3,num_8,16,num_8,1.26738016261,,,2017_Apr_13_1253,60.0141094455,FEMA4ImagesEEG,001,200112,
AFNE01.JPG,AFNE01.JPG,AFNE01.JPG,AFNE01.JPG,AFNE01.JPG,AFNE01.JPG,,,,,,,,,3,5,35,3,,,,,,,,,,,,,,,AFNE09.jpg,AFNE10.jpg,AFSA06.jpg,AFSA08.jpg,AFSA06.jpg,FS,4,num_2,16,num_2,0.633285147604,,,2017_Apr_13_1253,60.0141094455,FEMA4ImagesEEG,001,200112,
AFNE01.JPG,AFNE01.JPG,AFNE01.JPG,AFNE01.JPG,AFNE01.JPG,AFNE01.JPG,,,,,,,,,3,6,36,9,,,,,,,,,,,,,,,AFSA18.jpg,AFNE09.jpg,AFNE19.jpg,AFSA08.jpg,AFNE19.jpg,FN,3,num_2,32,num_8,1.00009397697,,,2017_Apr_13_1253,60.0141094455,FEMA4ImagesEEG,001,200112,
AFNE01.JPG,AFNE01.JPG,AFNE01.JPG,AFNE01.JPG,AFNE01.JPG,AFNE01.JPG,,,,,,,,,3,7,37,6,,,,,,,,,,,,,,,AFSA02.jpg,AFNE11.jpg,AFSA09.jpg,AFNE06.jpg,AFNE11.jpg,FN,3,num_6,32,num_2,0.533782069571,,,2017_Apr_13_1253,60.0141094455,FEMA4ImagesEEG,001,200112,
AFNE01.JPG,AFNE01.JPG,AFNE01.JPG,AFNE01.JPG,AFNE01.JPG,AFNE01.JPG,,,,,,,,,3,8,38,2,,,,,,,,,,,,,,,AFSA18.jpg,AFSA13.jpg,AFNE18.jpg,AFNE20.jpg,AFSA18.jpg,FS,4,num_8,32,num_4,0.600109436549,,,2017_Apr_13_1253,60.0141094455,FEMA4ImagesEEG,001,200112,
AFNE01.JPG,AFNE01.JPG,AFNE01.JPG,AFNE01.JPG,AFNE01.JPG,AFNE01.JPG,,,,,,,,,3,9,39,5,,,,,,,,,,,,,,,AFNE14.jpg,AFSA02.jpg,AFNE16.jpg,AFSA19.jpg,AFNE16.jpg,FN,3,num_2,16,num_2,1.18345252564,,,2017_Apr_13_1253,60.0141094455,FEMA4ImagesEEG,001,200112,
AFNE01.JPG,AFNE01.JPG,AFNE01.JPG,AFNE01.JPG,AFNE01.JPG,AFNE01.JPG,,,,,,,,,4,0,40,9,,,,,,,,,,,,,,,AFSA17.jpg,AFNE01.jpg,AFNE11.jpg,AFSA10.jpg,AFSA17.jpg,FS,4,num_8,16,num_8,1.28343959944,,,2017_Apr_13_1253,60.0141094455,FEMA4ImagesEEG,001,200112,
AFNE01.JPG,AFNE01.JPG,AFNE01.JPG,AFNE01.JPG,AFNE01.JPG,AFNE01.JPG,,,,,,,,,4,1,41,2,,,,,,,,,,,,,,,AFSA19.jpg,AFSA02.jpg,AFNE05.jpg,AFNE14.jpg,AFSA02.jpg,FS,4,num_6,16,num_6,1.60007543769,,,2017_Apr_13_1253,60.0141094455,FEMA4ImagesEEG,001,200112,
AFNE01.JPG,AFNE01.JPG,AFNE01.JPG,AFNE01.JPG,AFNE01.JPG,AFNE01.JPG,,,,,,,,,4,2,42,4,,,,,,,,,,,,,,,AFNE01.jpg,AFNE16.jpg,AFSA20.jpg,AFSA16.jpg,AFNE01.jpg,FN,3,num_8,32,num_2,1.16679394664,,,2017_Apr_13_1253,60.0141094455,FEMA4ImagesEEG,001,200112,
AFNE01.JPG,AFNE01.JPG,AFNE01.JPG,AFNE01.JPG,AFNE01.JPG,AFNE01.JPG,,,,,,,,,4,3,43,3,,,,,,,,,,,,,,,AFSA08.jpg,AFNE08.jpg,AFSA12.jpg,AFNE10.jpg,AFNE08.jpg,FN,3,num_6,16,num_6,1.08348212996,,,2017_Apr_13_1253,60.0141094455,FEMA4ImagesEEG,001,200112,
AFNE01.JPG,AFNE01.JPG,AFNE01.JPG,AFNE01.JPG,AFNE01.JPG,AFNE01.JPG,,,,,,,,,4,4,44,0,,,,,,,,,,,,,,,AFSA18.jpg,AFNE19.jpg,AFSA01.jpg,AFNE18.jpg,AFNE18.jpg,FN,3,num_4,32,num_8,1.21672959067,,,2017_Apr_13_1253,60.0141094455,FEMA4ImagesEEG,001,200112,
AFNE01.JPG,AFNE01.JPG,AFNE01.JPG,AFNE01.JPG,AFNE01.JPG,AFNE01.JPG,,,,,,,,,4,5,45,5,,,,,,,,,,,,,,,AFNE17.jpg,AFNE03.jpg,AFSA03.jpg,AFSA06.jpg,AFSA06.jpg,FS,4,num_4,16,num_4,1.26680796361,,,2017_Apr_13_1253,60.0141094455,FEMA4ImagesEEG,001,200112,
AFNE01.JPG,AFNE01.JPG,AFNE01.JPG,AFNE01.JPG,AFNE01.JPG,AFNE01.JPG,,,,,,,,,4,6,46,6,,,,,,,,,,,,,,,AFNE02.jpg,AFNE01.jpg,AFSA04.jpg,AFSA14.jpg,AFSA04.jpg,FS,4,num_2,32,num_4,0.666766844224,,,2017_Apr_13_1253,60.0141094455,FEMA4ImagesEEG,001,200112,
AFNE01.JPG,AFNE01.JPG,AFNE01.JPG,AFNE01.JPG,AFNE01.JPG,AFNE01.JPG,,,,,,,,,4,7,47,7,,,,,,,,,,,,,,,AFSA07.jpg,AFNE08.jpg,AFNE15.jpg,AFSA04.jpg,AFNE08.jpg,FN,3,num_6,16,num_6,0.966823968105,,,2017_Apr_13_1253,60.0141094455,FEMA4ImagesEEG,001,200112,
AFNE01.JPG,AFNE01.JPG,AFNE01.JPG,AFNE01.JPG,AFNE01.JPG,AFNE01.JPG,,,,,,,,,4,8,48,1,,,,,,,,,,,,,,,AFSA20.jpg,AFNE10.jpg,AFNE05.jpg,AFSA19.jpg,AFNE05.jpg,FN,3,num_2,16,num_2,0.966794780921,,,2017_Apr_13_1253,60.0141094455,FEMA4ImagesEEG,001,200112,
AFNE01.JPG,AFNE01.JPG,AFNE01.JPG,AFNE01.JPG,AFNE01.JPG,AFNE01.JPG,,,,,,,,,4,9,49,8,,,,,,,,,,,,,,,AFSA13.jpg,AFNE06.jpg,AFNE01.jpg,AFSA11.jpg,AFNE06.jpg,FN,3,num_6,32,num_8,1.23343756283,,,2017_Apr_13_1253,60.0141094455,FEMA4ImagesEEG,001,200112,
AFNE01.JPG,AFNE01.JPG,AFNE01.JPG,AFNE01.JPG,AFNE01.JPG,AFNE01.JPG,,,,,,,,,5,0,50,5,,,,,,,,,,,,,,,AFNE10.jpg,AFNE09.jpg,AFSA18.jpg,AFSA06.jpg,AFSA18.jpg,FS,4,num_2,32,num_6,0.333630231209,,,2017_Apr_13_1253,60.0141094455,FEMA4ImagesEEG,001,200112,
AFNE01.JPG,AFNE01.JPG,AFNE01.JPG,AFNE01.JPG,AFNE01.JPG,AFNE01.JPG,,,,,,,,,5,1,51,8,,,,,,,,,,,,,,,AFNE12.jpg,AFNE18.jpg,AFSA11.jpg,AFSA13.jpg,AFNE12.jpg,FN,3,num_8,16,num_8,1.65009832289,,,2017_Apr_13_1253,60.0141094455,FEMA4ImagesEEG,001,200112,
AFNE01.JPG,AFNE01.JPG,AFNE01.JPG,AFNE01.JPG,AFNE01.JPG,AFNE01.JPG,,,,,,,,,5,2,52,0,,,,,,,,,,,,,,,AFSA18.jpg,AFSA12.jpg,AFNE09.jpg,AFNE18.jpg,AFSA18.jpg,FS,4,num_8,16,num_8,1.51677933754,,,2017_Apr_13_1253,60.0141094455,FEMA4ImagesEEG,001,200112,
AFNE01.JPG,AFNE01.JPG,AFNE01.JPG,AFNE01.JPG,AFNE01.JPG,AFNE01.JPG,,,,,,,,,5,3,53,1,,,,,,,,,,,,,,,AFNE10.jpg,AFSA14.jpg,AFNE11.jpg,AFSA18.jpg,AFSA18.jpg,FS,4,num_4,32,num_6,1.00012412621,,,2017_Apr_13_1253,60.0141094455,FEMA4ImagesEEG,001,200112,
AFNE01.JPG,AFNE01.JPG,AFNE01.JPG,AFNE01.JPG,AFNE01.JPG,AFNE01.JPG,,,,,,,,,5,4,54,2,,,,,,,,,,,,,,,AFNE11.jpg,AFNE03.jpg,AFSA16.jpg,AFSA03.jpg,AFSA03.jpg,FS,4,num_4,16,num_4,0.766784709878,,,2017_Apr_13_1253,60.0141094455,FEMA4ImagesEEG,001,200112,
AFNE01.JPG,AFNE01.JPG,AFNE01.JPG,AFNE01.JPG,AFNE01.JPG,AFNE01.JPG,,,,,,,,,5,5,55,9,,,,,,,,,,,,,,,AFSA02.jpg,AFNE07.jpg,AFNE16.jpg,AFSA10.jpg,AFNE16.jpg,FN,3,num_2,32,num_8,1.20010372763,,,2017_Apr_13_1253,60.0141094455,FEMA4ImagesEEG,001,200112,
AFNE01.JPG,AFNE01.JPG,AFNE01.JPG,AFNE01.JPG,AFNE01.JPG,AFNE01.JPG,,,,,,,,,5,6,56,7,,,,,,,,,,,,,,,AFSA02.jpg,AFNE19.jpg,AFSA10.jpg,AFNE04.jpg,AFNE04.jpg,FN,3,num_4,16,num_4,0.683484759647,,,2017_Apr_13_1253,60.0141094455,FEMA4ImagesEEG,001,200112,
AFNE01.JPG,AFNE01.JPG,AFNE01.JPG,AFNE01.JPG,AFNE01.JPG,AFNE01.JPG,,,,,,,,,5,7,57,6,,,,,,,,,,,,,,,AFSA03.jpg,AFNE03.jpg,AFNE19.jpg,AFSA11.jpg,AFSA11.jpg,FS,4,num_4,16,num_4,1.36654486042,,,2017_Apr_13_1253,60.0141094455,FEMA4ImagesEEG,001,200112,
AFNE01.JPG,AFNE01.JPG,AFNE01.JPG,AFNE01.JPG,AFNE01.JPG,AFNE01.JPG,,,,,,,,,5,8,58,4,,,,,,,,,,,,,,,AFNE09.jpg,AFSA17.jpg,AFSA16.jpg,AFNE14.jpg,AFSA16.jpg,FS,4,num_2,16,num_2,0.91678280104,,,2017_Apr_13_1253,60.0141094455,FEMA4ImagesEEG,001,200112,
AFNE01.JPG,AFNE01.JPG,AFNE01.JPG,AFNE01.JPG,AFNE01.JPG,AFNE01.JPG,,,,,,,,,5,9,59,3,,,,,,,,,,,,,,,AFSA15.jpg,AFNE04.jpg,AFNE02.jpg,AFSA09.jpg,AFNE04.jpg,FN,3,num_6,16,num_6,0.916796592996,,,2017_Apr_13_1253,60.0141094455,FEMA4ImagesEEG,001,200112,
,,,,,,,,,,,,,,,,,,,,,,,,,,,,,,,,,,,,,,,,,,,space,3.36682839412,2017_Apr_13_1253,60.0141094455,FEMA4ImagesEEG,001,200112,
AFNE01.JPG,AFNE01.JPG,AFNE01.JPG,AFNE01.JPG,AFNE01.JPG,AFNE01.JPG,,,,,,,,,,,,,0,0,0,2,,,,,,,,,,,AMNE03.jpg,AMNE09.jpg,AMSA02.jpg,AMSA12.jpg,AMSA12.jpg,MS,2,num_4,32,num_6,0.733482306357,,,2017_Apr_13_1253,60.0141094455,FEMA4ImagesEEG,001,200112,
AFNE01.JPG,AFNE01.JPG,AFNE01.JPG,AFNE01.JPG,AFNE01.JPG,AFNE01.JPG,,,,,,,,,,,,,0,1,1,8,,,,,,,,,,,AMSA11.jpg,AMNE07.jpg,AMNE19.jpg,AMSA07.jpg,AMSA07.jpg,MS,2,num_4,16,num_4,0.933471529279,,,2017_Apr_13_1253,60.0141094455,FEMA4ImagesEEG,001,200112,
AFNE01.JPG,AFNE01.JPG,AFNE01.JPG,AFNE01.JPG,AFNE01.JPG,AFNE01.JPG,,,,,,,,,,,,,0,2,2,0,,,,,,,,,,,AMSA07.jpg,AMNE10.jpg,AMSA02.jpg,AMNE06.jpg,AMSA02.jpg,MS,2,num_2,16,num_2,0.583511798177,,,2017_Apr_13_1253,60.0141094455,FEMA4ImagesEEG,001,200112,
AFNE01.JPG,AFNE01.JPG,AFNE01.JPG,AFNE01.JPG,AFNE01.JPG,AFNE01.JPG,,,,,,,,,,,,,0,3,3,6,,,,,,,,,,,AMSA07.jpg,AMNE20.jpg,AMSA12.jpg,AMNE03.jpg,AMSA12.jpg,MS,2,num_2,32,num_8,1.01669642562,,,2017_Apr_13_1253,60.0141094455,FEMA4ImagesEEG,001,200112,
AFNE01.JPG,AFNE01.JPG,AFNE01.JPG,AFNE01.JPG,AFNE01.JPG,AFNE01.JPG,,,,,,,,,,,,,0,4,4,9,,,,,,,,,,,AMSA14.jpg,AMNE12.jpg,AMNE10.jpg,AMSA04.jpg,AMNE12.jpg,MN,1,num_6,32,num_4,0.800115979277,,,2017_Apr_13_1253,60.0141094455,FEMA4ImagesEEG,001,200112,
AFNE01.JPG,AFNE01.JPG,AFNE01.JPG,AFNE01.JPG,AFNE01.JPG,AFNE01.JPG,,,,,,,,,,,,,0,5,5,4,,,,,,,,,,,AMSA15.jpg,AMNE16.jpg,AMSA07.jpg,AMNE03.jpg,AMSA15.jpg,MS,2,num_8,16,num_8,0.716800634284,,,2017_Apr_13_1253,60.0141094455,FEMA4ImagesEEG,001,200112,
AFNE01.JPG,AFNE01.JPG,AFNE01.JPG,AFNE01.JPG,AFNE01.JPG,AFNE01.JPG,,,,,,,,,,,,,0,6,6,1,,,,,,,,,,,AMNE12.jpg,AMSA11.jpg,AMSA05.jpg,AMNE01.jpg,AMNE01.jpg,MN,1,num_4,32,num_2,1.08347731875,,,2017_Apr_13_1253,60.0141094455,FEMA4ImagesEEG,001,200112,
AFNE01.JPG,AFNE01.JPG,AFNE01.JPG,AFNE01.JPG,AFNE01.JPG,AFNE01.JPG,,,,,,,,,,,,,0,7,7,5,,,,,,,,,,,AMNE14.jpg,AMSA04.jpg,AMNE11.jpg,AMSA06.jpg,AMNE14.jpg,MN,1,num_8,32,num_2,1.41677109431,,,2017_Apr_13_1253,60.0141094455,FEMA4ImagesEEG,001,200112,
AFNE01.JPG,AFNE01.JPG,AFNE01.JPG,AFNE01.JPG,AFNE01.JPG,AFNE01.JPG,,,,,,,,,,,,,0,8,8,7,,,,,,,,,,,AMNE12.jpg,AMSA15.jpg,AMSA16.jpg,AMNE07.jpg,AMNE07.jpg,MN,1,num_4,32,num_8,0.916797234677,,,2017_Apr_13_1253,60.0141094455,FEMA4ImagesEEG,001,200112,
AFNE01.JPG,AFNE01.JPG,AFNE01.JPG,AFNE01.JPG,AFNE01.JPG,AFNE01.JPG,,,,,,,,,,,,,0,9,9,3,,,,,,,,,,,AMSA09.jpg,AMNE19.jpg,AMNE20.jpg,AMSA13.jpg,AMNE19.jpg,MN,1,num_6,32,num_4,0.383525141049,,,2017_Apr_13_1253,60.0141094455,FEMA4ImagesEEG,001,200112,
AFNE01.JPG,AFNE01.JPG,AFNE01.JPG,AFNE01.JPG,AFNE01.JPG,AFNE01.JPG,,,,,,,,,,,,,1,0,10,0,,,,,,,,,,,AMNE20.jpg,AMSA13.jpg,AMSA03.jpg,AMNE14.jpg,AMNE20.jpg,MN,1,num_8,16,num_8,0.7669877382,,,2017_Apr_13_1253,60.0141094455,FEMA4ImagesEEG,001,200112,
AFNE01.JPG,AFNE01.JPG,AFNE01.JPG,AFNE01.JPG,AFNE01.JPG,AFNE01.JPG,,,,,,,,,,,,,1,1,11,6,,,,,,,,,,,AMNE18.jpg,AMNE07.jpg,AMSA19.jpg,AMSA06.jpg,AMNE07.jpg,MN,1,num_6,16,num_6,1.01674902765,,,2017_Apr_13_1253,60.0141094455,FEMA4ImagesEEG,001,200112,
AFNE01.JPG,AFNE01.JPG,AFNE01.JPG,AFNE01.JPG,AFNE01.JPG,AFNE01.JPG,,,,,,,,,,,,,1,2,12,8,,,,,,,,,,,AMNE15.jpg,AMNE16.jpg,AMSA05.jpg,AMSA01.jpg,AMSA05.jpg,MS,2,num_2,16,num_2,0.850128921214,,,2017_Apr_13_1253,60.0141094455,FEMA4ImagesEEG,001,200112,
AFNE01.JPG,AFNE01.JPG,AFNE01.JPG,AFNE01.JPG,AFNE01.JPG,AFNE01.JPG,,,,,,,,,,,,,1,3,13,7,,,,,,,,,,,AMSA01.jpg,AMSA02.jpg,AMNE05.jpg,AMNE12.jpg,AMNE12.jpg,MN,1,num_4,16,num_4,0.81681048125,,,2017_Apr_13_1253,60.0141094455,FEMA4ImagesEEG,001,200112,
AFNE01.JPG,AFNE01.JPG,AFNE01.JPG,AFNE01.JPG,AFNE01.JPG,AFNE01.JPG,,,,,,,,,,,,,1,4,14,4,,,,,,,,,,,AMSA08.jpg,AMSA12.jpg,AMNE16.jpg,AMNE13.jpg,AMSA08.jpg,MS,2,num_8,16,num_8,0.833458796144,,,2017_Apr_13_1253,60.0141094455,FEMA4ImagesEEG,001,200112,
AFNE01.JPG,AFNE01.JPG,AFNE01.JPG,AFNE01.JPG,AFNE01.JPG,AFNE01.JPG,,,,,,,,,,,,,1,5,15,5,,,,,,,,,,,AMNE09.jpg,AMSA06.jpg,AMNE08.jpg,AMSA17.jpg,AMSA06.jpg,MS,2,num_6,16,num_6,0.500183623284,,,2017_Apr_13_1253,60.0141094455,FEMA4ImagesEEG,001,200112,
AFNE01.JPG,AFNE01.JPG,AFNE01.JPG,AFNE01.JPG,AFNE01.JPG,AFNE01.JPG,,,,,,,,,,,,,1,6,16,3,,,,,,,,,,,AMSA01.jpg,AMSA05.jpg,AMNE19.jpg,AMNE11.jpg,AMSA05.jpg,MS,2,num_6,32,num_4,1.13340141578,,,2017_Apr_13_1253,60.0141094455,FEMA4ImagesEEG,001,200112,
AFNE01.JPG,AFNE01.JPG,AFNE01.JPG,AFNE01.JPG,AFNE01.JPG,AFNE01.JPG,,,,,,,,,,,,,1,7,17,2,,,,,,,,,,,AMSA12.jpg,AMNE01.jpg,AMSA09.jpg,AMNE13.jpg,AMSA09.jpg,MS,2,num_2,16,num_2,0.65011788765,,,2017_Apr_13_1253,60.0141094455,FEMA4ImagesEEG,001,200112,
AFNE01.JPG,AFNE01.JPG,AFNE01.JPG,AFNE01.JPG,AFNE01.JPG,AFNE01.JPG,,,,,,,,,,,,,1,8,18,1,,,,,,,,,,,AMNE13.jpg,AMSA07.jpg,AMSA18.jpg,AMNE11.jpg,AMSA18.jpg,MS,2,num_2,16,num_2,0.783463174012,,,2017_Apr_13_1253,60.0141094455,FEMA4ImagesEEG,001,200112,
AFNE01.JPG,AFNE01.JPG,AFNE01.JPG,AFNE01.JPG,AFNE01.JPG,AFNE01.JPG,,,,,,,,,,,,,1,9,19,9,,,,,,,,,,,AMSA09.jpg,AMNE10.jpg,AMNE12.jpg,AMSA04.jpg,AMNE10.jpg,MN,1,num_6,32,num_8,1.11578735337,,,2017_Apr_13_1253,60.0141094455,FEMA4ImagesEEG,001,200112,
AFNE01.JPG,AFNE01.JPG,AFNE01.JPG,AFNE01.JPG,AFNE01.JPG,AFNE01.JPG,,,,,,,,,,,,,2,0,20,0,,,,,,,,,,,AMSA15.jpg,AMNE08.jpg,AMNE13.jpg,AMSA10.jpg,AMSA15.jpg,MS,2,num_8,32,num_6,0.983452718239,,,2017_Apr_13_1253,60.0141094455,FEMA4ImagesEEG,001,200112,
AFNE01.JPG,AFNE01.JPG,AFNE01.JPG,AFNE01.JPG,AFNE01.JPG,AFNE01.JPG,,,,,,,,,,,,,2,1,21,3,,,,,,,,,,,AMSA04.jpg,AMSA19.jpg,AMNE02.jpg,AMNE17.jpg,AMNE02.jpg,MN,1,num_2,32,num_4,0.933542413171,,,2017_Apr_13_1253,60.0141094455,FEMA4ImagesEEG,001,200112,
AFNE01.JPG,AFNE01.JPG,AFNE01.JPG,AFNE01.JPG,AFNE01.JPG,AFNE01.JPG,,,,,,,,,,,,,2,2,22,1,,,,,,,,,,,AMNE09.jpg,AMSA18.jpg,AMSA04.jpg,AMNE02.jpg,AMNE02.jpg,MN,1,num_4,16,num_4,1.25012180116,,,2017_Apr_13_1253,60.0141094455,FEMA4ImagesEEG,001,200112,
AFNE01.JPG,AFNE01.JPG,AFNE01.JPG,AFNE01.JPG,AFNE01.JPG,AFNE01.JPG,,,,,,,,,,,,,2,3,23,5,,,,,,,,,,,AMNE13.jpg,AMNE09.jpg,AMSA09.jpg,AMSA17.jpg,AMNE13.jpg,MN,1,num_8,16,num_8,1.03346020728,,,2017_Apr_13_1253,60.0141094455,FEMA4ImagesEEG,001,200112,
AFNE01.JPG,AFNE01.JPG,AFNE01.JPG,AFNE01.JPG,AFNE01.JPG,AFNE01.JPG,,,,,,,,,,,,,2,4,24,2,,,,,,,,,,,AMNE04.jpg,AMSA15.jpg,AMNE15.jpg,AMSA09.jpg,AMNE04.jpg,MN,1,num_8,32,num_6,0.833490869962,,,2017_Apr_13_1253,60.0141094455,FEMA4ImagesEEG,001,200112,
AFNE01.JPG,AFNE01.JPG,AFNE01.JPG,AFNE01.JPG,AFNE01.JPG,AFNE01.JPG,,,,,,,,,,,,,2,5,25,9,,,,,,,,,,,AMNE14.jpg,AMSA02.jpg,AMNE02.jpg,AMSA20.jpg,AMSA02.jpg,MS,2,num_6,32,num_2,1.01676089456,,,2017_Apr_13_1253,60.0141094455,FEMA4ImagesEEG,001,200112,
AFNE01.JPG,AFNE01.JPG,AFNE01.JPG,AFNE01.JPG,AFNE01.JPG,AFNE01.JPG,,,,,,,,,,,,,2,6,26,4,,,,,,,,,,,AMNE15.jpg,AMSA05.jpg,AMNE04.jpg,AMSA18.jpg,AMNE15.jpg,MN,1,num_8,16,num_8,0.883451852016,,,2017_Apr_13_1253,60.0141094455,FEMA4ImagesEEG,001,200112,
AFNE01.JPG,AFNE01.JPG,AFNE01.JPG,AFNE01.JPG,AFNE01.JPG,AFNE01.JPG,,,,,,,,,,,,,2,7,27,6,,,,,,,,,,,AMNE11.jpg,AMNE18.jpg,AMSA03.jpg,AMSA19.jpg,AMNE11.jpg,MN,1,num_8,32,num_2,1.4501046096,,,2017_Apr_13_1253,60.0141094455,FEMA4ImagesEEG,001,200112,
AFNE01.JPG,AFNE01.JPG,AFNE01.JPG,AFNE01.JPG,AFNE01.JPG,AFNE01.JPG,,,,,,,,,,,,,2,8,28,7,,,,,,,,,,,AMSA10.jpg,AMNE10.jpg,AMSA09.jpg,AMNE02.jpg,AMSA10.jpg,MS,2,num_8,16,num_8,0.866792631801,,,2017_Apr_13_1253,60.0141094455,FEMA4ImagesEEG,001,200112,
AFNE01.JPG,AFNE01.JPG,AFNE01.JPG,AFNE01.JPG,AFNE01.JPG,AFNE01.JPG,,,,,,,,,,,,,2,9,29,8,,,,,,,,,,,AMNE04.jpg,AMNE07.jpg,AMSA04.jpg,AMSA03.jpg,AMSA03.jpg,MS,2,num_4,16,num_4,0.933461266104,,,2017_Apr_13_1253,60.0141094455,FEMA4ImagesEEG,001,200112,
AFNE01.JPG,AFNE01.JPG,AFNE01.JPG,AFNE01.JPG,AFNE01.JPG,AFNE01.JPG,,,,,,,,,,,,,3,0,30,0,,,,,,,,,,,AMSA02.jpg,AMNE05.jpg,AMSA10.jpg,AMNE12.jpg,AMNE05.jpg,MN,1,num_6,32,num_2,0.98349345196,,,2017_Apr_13_1253,60.0141094455,FEMA4ImagesEEG,001,200112,
AFNE01.JPG,AFNE01.JPG,AFNE01.JPG,AFNE01.JPG,AFNE01.JPG,AFNE01.JPG,,,,,,,,,,,,,3,1,31,4,,,,,,,,,,,AMNE14.jpg,AMSA04.jpg,AMSA07.jpg,AMNE11.jpg,AMSA07.jpg,MS,2,num_2,32,num_4,0.783483701292,,,2017_Apr_13_1253,60.0141094455,FEMA4ImagesEEG,001,200112,
AFNE01.JPG,AFNE01.JPG,AFNE01.JPG,AFNE01.JPG,AFNE01.JPG,AFNE01.JPG,,,,,,,,,,,,,3,2,32,3,,,,,,,,,,,AMSA17.jpg,AMNE05.jpg,AMSA20.jpg,AMNE06.jpg,AMSA20.jpg,MS,2,num_2,16,num_2,0.750120678451,,,2017_Apr_13_1253,60.0141094455,FEMA4ImagesEEG,001,200112,
AFNE01.JPG,AFNE01.JPG,AFNE01.JPG,AFNE01.JPG,AFNE01.JPG,AFNE01.JPG,,,,,,,,,,,,,3,3,33,6,,,,,,,,,,,AMSA13.jpg,AMNE20.jpg,AMNE19.jpg,AMSA06.jpg,AMNE19.jpg,MN,1,num_2,32,num_6,0.950098996516,,,2017_Apr_13_1253,60.0141094455,FEMA4ImagesEEG,001,200112,
AFNE01.JPG,AFNE01.JPG,AFNE01.JPG,AFNE01.JPG,AFNE01.JPG,AFNE01.JPG,,,,,,,,,,,,,3,4,34,9,,,,,,,,,,,AMSA09.jpg,AMSA01.jpg,AMNE15.jpg,AMNE10.jpg,AMSA09.jpg,MS,2,num_8,32,num_4,0.700118320528,,,2017_Apr_13_1253,60.0141094455,FEMA4ImagesEEG,001,200112,
AFNE01.JPG,AFNE01.JPG,AFNE01.JPG,AFNE01.JPG,AFNE01.JPG,AFNE01.JPG,,,,,,,,,,,,,3,5,35,5,,,,,,,,,,,AMSA13.jpg,AMNE17.jpg,AMNE04.jpg,AMSA03.jpg,AMSA03.jpg,MS,2,num_4,32,num_8,0.616780844517,,,2017_Apr_13_1253,60.0141094455,FEMA4ImagesEEG,001,200112,
AFNE01.JPG,AFNE01.JPG,AFNE01.JPG,AFNE01.JPG,AFNE01.JPG,AFNE01.JPG,,,,,,,,,,,,,3,6,36,7,,,,,,,,,,,AMSA08.jpg,AMSA10.jpg,AMNE06.jpg,AMNE12.jpg,AMSA08.jpg,MS,2,num_8,32,num_2,0.866949473508,,,2017_Apr_13_1253,60.0141094455,FEMA4ImagesEEG,001,200112,
AFNE01.JPG,AFNE01.JPG,AFNE01.JPG,AFNE01.JPG,AFNE01.JPG,AFNE01.JPG,,,,,,,,,,,,,3,7,37,2,,,,,,,,,,,AMSA12.jpg,AMNE18.jpg,AMSA14.jpg,AMNE10.jpg,AMSA12.jpg,MS,2,num_8,16,num_8,1.20009185979,,,2017_Apr_13_1253,60.0141094455,FEMA4ImagesEEG,001,200112,
AFNE01.JPG,AFNE01.JPG,AFNE01.JPG,AFNE01.JPG,AFNE01.JPG,AFNE01.JPG,,,,,,,,,,,,,3,8,38,8,,,,,,,,,,,AMSA19.jpg,AMNE05.jpg,AMNE17.jpg,AMSA08.jpg,AMSA08.jpg,MS,2,num_4,16,num_4,0.966756292153,,,2017_Apr_13_1253,60.0141094455,FEMA4ImagesEEG,001,200112,
AFNE01.JPG,AFNE01.JPG,AFNE01.JPG,AFNE01.JPG,AFNE01.JPG,AFNE01.JPG,,,,,,,,,,,,,3,9,39,1,,,,,,,,,,,AMSA20.jpg,AMSA19.jpg,AMNE20.jpg,AMNE10.jpg,AMSA19.jpg,MS,2,num_6,16,num_6,0.650181714911,,,2017_Apr_13_1253,60.0141094455,FEMA4ImagesEEG,001,200112,
AFNE01.JPG,AFNE01.JPG,AFNE01.JPG,AFNE01.JPG,AFNE01.JPG,AFNE01.JPG,,,,,,,,,,,,,4,0,40,7,,,,,,,,,,,AMSA11.jpg,AMSA15.jpg,AMNE06.jpg,AMNE08.jpg,AMSA15.jpg,MS,2,num_6,16,num_6,0.633464119863,,,2017_Apr_13_1253,60.0141094455,FEMA4ImagesEEG,001,200112,
AFNE01.JPG,AFNE01.JPG,AFNE01.JPG,AFNE01.JPG,AFNE01.JPG,AFNE01.JPG,,,,,,,,,,,,,4,1,41,5,,,,,,,,,,,AMSA16.jpg,AMNE10.jpg,AMSA14.jpg,AMNE02.jpg,AMNE10.jpg,MN,1,num_6,16,num_6,0.816821065266,,,2017_Apr_13_1253,60.0141094455,FEMA4ImagesEEG,001,200112,
AFNE01.JPG,AFNE01.JPG,AFNE01.JPG,AFNE01.JPG,AFNE01.JPG,AFNE01.JPG,,,,,,,,,,,,,4,2,42,8,,,,,,,,,,,AMNE18.jpg,AMSA14.jpg,AMSA15.jpg,AMNE01.jpg,AMNE01.jpg,MN,1,num_4,32,num_6,0.600134454202,,,2017_Apr_13_1253,60.0141094455,FEMA4ImagesEEG,001,200112,
AFNE01.JPG,AFNE01.JPG,AFNE01.JPG,AFNE01.JPG,AFNE01.JPG,AFNE01.JPG,,,,,,,,,,,,,4,3,43,2,,,,,,,,,,,AMSA01.jpg,AMSA06.jpg,AMNE03.jpg,AMNE16.jpg,AMNE03.jpg,MN,1,num_2,32,num_8,0.916640713811,,,2017_Apr_13_1253,60.0141094455,FEMA4ImagesEEG,001,200112,
AFNE01.JPG,AFNE01.JPG,AFNE01.JPG,AFNE01.JPG,AFNE01.JPG,AFNE01.JPG,,,,,,,,,,,,,4,4,44,0,,,,,,,,,,,AMSA08.jpg,AMNE02.jpg,AMSA15.jpg,AMNE13.jpg,AMNE13.jpg,MN,1,num_4,16,num_4,1.00013503153,,,2017_Apr_13_1253,60.0141094455,FEMA4ImagesEEG,001,200112,
AFNE01.JPG,AFNE01.JPG,AFNE01.JPG,AFNE01.JPG,AFNE01.JPG,AFNE01.JPG,,,,,,,,,,,,,4,5,45,3,,,,,,,,,,,AMNE14.jpg,AMSA19.jpg,AMNE04.jpg,AMSA08.jpg,AMNE04.jpg,MN,1,num_2,32,num_8,1.26670981711,,,2017_Apr_13_1253,60.0141094455,FEMA4ImagesEEG,001,200112,
AFNE01.JPG,AFNE01.JPG,AFNE01.JPG,AFNE01.JPG,AFNE01.JPG,AFNE01.JPG,,,,,,,,,,,,,4,6,46,9,,,,,,,,,,,AMNE13.jpg,AMNE05.jpg,AMSA01.jpg,AMSA02.jpg,AMNE13.jpg,MN,1,num_8,32,num_6,0.9169021165,,,2017_Apr_13_1253,60.0141094455,FEMA4ImagesEEG,001,200112,
AFNE01.JPG,AFNE01.JPG,AFNE01.JPG,AFNE01.JPG,AFNE01.JPG,AFNE01.JPG,,,,,,,,,,,,,4,7,47,1,,,,,,,,,,,AMSA10.jpg,AMNE08.jpg,AMNE15.jpg,AMSA08.jpg,AMNE08.jpg,MN,1,num_6,32,num_2,1.25005187979,,,2017_Apr_13_1253,60.0141094455,FEMA4ImagesEEG,001,200112,
AFNE01.JPG,AFNE01.JPG,AFNE01.JPG,AFNE01.JPG,AFNE01.JPG,AFNE01.JPG,,,,,,,,,,,,,4,8,48,4,,,,,,,,,,,AMNE08.jpg,AMSA02.jpg,AMNE20.jpg,AMSA15.jpg,AMSA15.jpg,MS,2,num_4,16,num_4,1.10012306785,,,2017_Apr_13_1253,60.0141094455,FEMA4ImagesEEG,001,200112,
AFNE01.JPG,AFNE01.JPG,AFNE01.JPG,AFNE01.JPG,AFNE01.JPG,AFNE01.JPG,,,,,,,,,,,,,4,9,49,6,,,,,,,,,,,AMNE17.jpg,AMSA04.jpg,AMSA16.jpg,AMNE08.jpg,AMSA16.jpg,MS,2,num_2,32,num_8,0.95012433501,,,2017_Apr_13_1253,60.0141094455,FEMA4ImagesEEG,001,200112,
AFNE01.JPG,AFNE01.JPG,AFNE01.JPG,AFNE01.JPG,AFNE01.JPG,AFNE01.JPG,,,,,,,,,,,,,5,0,50,5,,,,,,,,,,,AMSA09.jpg,AMNE01.jpg,AMNE07.jpg,AMSA16.jpg,AMSA09.jpg,MS,2,num_8,16,num_8,0.916751368437,,,2017_Apr_13_1253,60.0141094455,FEMA4ImagesEEG,001,200112,
AFNE01.JPG,AFNE01.JPG,AFNE01.JPG,AFNE01.JPG,AFNE01.JPG,AFNE01.JPG,,,,,,,,,,,,,5,1,51,9,,,,,,,,,,,AMNE14.jpg,AMSA10.jpg,AMNE05.jpg,AMSA02.jpg,AMNE14.jpg,MN,1,num_8,32,num_4,1.31676958688,,,2017_Apr_13_1253,60.0141094455,FEMA4ImagesEEG,001,200112,
AFNE01.JPG,AFNE01.JPG,AFNE01.JPG,AFNE01.JPG,AFNE01.JPG,AFNE01.JPG,,,,,,,,,,,,,5,2,52,4,,,,,,,,,,,AMNE13.jpg,AMSA18.jpg,AMNE03.jpg,AMSA07.jpg,AMNE03.jpg,MN,1,num_2,16,num_2,2.91660511121,,,2017_Apr_13_1253,60.0141094455,FEMA4ImagesEEG,001,200112,
AFNE01.JPG,AFNE01.JPG,AFNE01.JPG,AFNE01.JPG,AFNE01.JPG,AFNE01.JPG,,,,,,,,,,,,,5,3,53,6,,,,,,,,,,,AMSA17.jpg,AMNE14.jpg,AMSA05.jpg,AMNE16.jpg,AMNE16.jpg,MN,1,num_4,32,num_8,1.28343703412,,,2017_Apr_13_1253,60.0141094455,FEMA4ImagesEEG,001,200112,
AFNE01.JPG,AFNE01.JPG,AFNE01.JPG,AFNE01.JPG,AFNE01.JPG,AFNE01.JPG,,,,,,,,,,,,,5,4,54,0,,,,,,,,,,,AMSA18.jpg,AMNE05.jpg,AMSA10.jpg,AMNE04.jpg,AMSA18.jpg,MS,2,num_8,16,num_8,0.666791541502,,,2017_Apr_13_1253,60.0141094455,FEMA4ImagesEEG,001,200112,
AFNE01.JPG,AFNE01.JPG,AFNE01.JPG,AFNE01.JPG,AFNE01.JPG,AFNE01.JPG,,,,,,,,,,,,,5,5,55,1,,,,,,,,,,,AMSA11.jpg,AMNE07.jpg,AMSA02.jpg,AMNE03.jpg,AMSA11.jpg,MS,2,num_8,16,num_8,0.950086166617,,,2017_Apr_13_1253,60.0141094455,FEMA4ImagesEEG,001,200112,
AFNE01.JPG,AFNE01.JPG,AFNE01.JPG,AFNE01.JPG,AFNE01.JPG,AFNE01.JPG,,,,,,,,,,,,,5,6,56,2,,,,,,,,,,,AMSA14.jpg,AMSA02.jpg,AMNE05.jpg,AMNE16.jpg,AMSA14.jpg,MS,2,num_8,32,num_6,0.850113846827,,,2017_Apr_13_1253,60.0141094455,FEMA4ImagesEEG,001,200112,
AFNE01.JPG,AFNE01.JPG,AFNE01.JPG,AFNE01.JPG,AFNE01.JPG,AFNE01.JPG,,,,,,,,,,,,,5,7,57,7,,,,,,,,,,,AMNE13.jpg,AMSA03.jpg,AMSA16.jpg,AMNE08.jpg,AMSA16.jpg,MS,2,num_2,16,num_2,0.750130941626,,,2017_Apr_13_1253,60.0141094455,FEMA4ImagesEEG,001,200112,
AFNE01.JPG,AFNE01.JPG,AFNE01.JPG,AFNE01.JPG,AFNE01.JPG,AFNE01.JPG,,,,,,,,,,,,,5,8,58,8,,,,,,,,,,,AMSA08.jpg,AMNE04.jpg,AMSA14.jpg,AMNE05.jpg,AMNE04.jpg,MN,1,num_6,32,num_2,0.850095564499,,,2017_Apr_13_1253,60.0141094455,FEMA4ImagesEEG,001,200112,
AFNE01.JPG,AFNE01.JPG,AFNE01.JPG,AFNE01.JPG,AFNE01.JPG,AFNE01.JPG,,,,,,,,,,,,,5,9,59,3,,,,,,,,,,,AMNE04.jpg,AMNE07.jpg,AMSA19.jpg,AMSA18.jpg,AMNE04.jpg,MN,1,num_8,32,num_2,0.816805670038,,,2017_Apr_13_1253,60.0141094455,FEMA4ImagesEEG,001,200112,
,,,,,,,,,,,,,,,,,,,,,,,,,,,,,,,,,,,,,,,,,,,space,2.78325244831,2017_Apr_13_1253,60.0141094455,FEMA4ImagesEEG,001,200112,
AFNE01.JPG,AFNE01.JPG,AFNE01.JPG,AFNE01.JPG,AFNE01.JPG,AFNE01.JPG,,,,,,,,,,,,,,,,,0,0,0,0,,,,,,,AFSA03.jpg,AFNE11.jpg,AFNE17.jpg,AFSA16.jpg,AFNE11.jpg,FN,3,num_6,16,num_6,0.683477061801,,,2017_Apr_13_1253,60.0141094455,FEMA4ImagesEEG,001,200112,
AFNE01.JPG,AFNE01.JPG,AFNE01.JPG,AFNE01.JPG,AFNE01.JPG,AFNE01.JPG,,,,,,,,,,,,,,,,,0,1,1,2,,,,,,,AFNE17.jpg,AFSA10.jpg,AFNE10.jpg,AFSA08.jpg,AFSA08.jpg,FS,4,num_4,16,num_4,0.650162470527,,,2017_Apr_13_1253,60.0141094455,FEMA4ImagesEEG,001,200112,
AFNE01.JPG,AFNE01.JPG,AFNE01.JPG,AFNE01.JPG,AFNE01.JPG,AFNE01.JPG,,,,,,,,,,,,,,,,,0,2,2,1,,,,,,,AFNE16.jpg,AFSA09.jpg,AFNE20.jpg,AFSA04.jpg,AFNE16.jpg,FN,3,num_8,32,num_2,0.833154093474,,,2017_Apr_13_1253,60.0141094455,FEMA4ImagesEEG,001,200112,
AFNE01.JPG,AFNE01.JPG,AFNE01.JPG,AFNE01.JPG,AFNE01.JPG,AFNE01.JPG,,,,,,,,,,,,,,,,,0,3,3,5,,,,,,,AFNE04.jpg,AFSA09.jpg,AFNE15.jpg,AFSA15.jpg,AFSA09.jpg,FS,4,num_6,16,num_6,0.783510964364,,,2017_Apr_13_1253,60.0141094455,FEMA4ImagesEEG,001,200112,
AFNE01.JPG,AFNE01.JPG,AFNE01.JPG,AFNE01.JPG,AFNE01.JPG,AFNE01.JPG,,,,,,,,,,,,,,,,,0,4,4,6,,,,,,,AFSA19.jpg,AFNE06.jpg,AFNE20.jpg,AFSA10.jpg,AFSA10.jpg,FS,4,num_4,16,num_4,0.883270634338,,,2017_Apr_13_1253,60.0141094455,FEMA4ImagesEEG,001,200112,
AFNE01.JPG,AFNE01.JPG,AFNE01.JPG,AFNE01.JPG,AFNE01.JPG,AFNE01.JPG,,,,,,,,,,,,,,,,,0,5,5,3,,,,,,,AFSA08.jpg,AFNE11.jpg,AFSA01.jpg,AFNE20.jpg,AFNE11.jpg,FN,3,num_6,32,num_2,0.86677210452,,,2017_Apr_13_1253,60.0141094455,FEMA4ImagesEEG,001,200112,
AFNE01.JPG,AFNE01.JPG,AFNE01.JPG,AFNE01.JPG,AFNE01.JPG,AFNE01.JPG,,,,,,,,,,,,,,,,,0,6,6,9,,,,,,,AFSA03.jpg,AFSA05.jpg,AFNE19.jpg,AFNE15.jpg,AFNE19.jpg,FN,3,num_2,32,num_6,1.41661553504,,,2017_Apr_13_1253,60.0141094455,FEMA4ImagesEEG,001,200112,
AFNE01.JPG,AFNE01.JPG,AFNE01.JPG,AFNE01.JPG,AFNE01.JPG,AFNE01.JPG,,,,,,,,,,,,,,,,,0,7,7,4,,,,,,,AFNE18.jpg,AFNE19.jpg,AFSA03.jpg,AFSA04.jpg,AFSA04.jpg,FS,4,num_4,32,num_8,1.03343326505,,,2017_Apr_13_1253,60.0141094455,FEMA4ImagesEEG,001,200112,
AFNE01.JPG,AFNE01.JPG,AFNE01.JPG,AFNE01.JPG,AFNE01.JPG,AFNE01.JPG,,,,,,,,,,,,,,,,,0,8,8,8,,,,,,,AFSA14.jpg,AFNE02.jpg,AFSA07.jpg,AFNE04.jpg,AFSA07.jpg,FS,4,num_2,16,num_2,0.700134999584,,,2017_Apr_13_1253,60.0141094455,FEMA4ImagesEEG,001,200112,
AFNE01.JPG,AFNE01.JPG,AFNE01.JPG,AFNE01.JPG,AFNE01.JPG,AFNE01.JPG,,,,,,,,,,,,,,,,,0,9,9,7,,,,,,,AFNE03.jpg,AFSA13.jpg,AFNE13.jpg,AFSA06.jpg,AFSA06.jpg,FS,4,num_4,32,num_8,0.800116300117,,,2017_Apr_13_1253,60.0141094455,FEMA4ImagesEEG,001,200112,
AFNE01.JPG,AFNE01.JPG,AFNE01.JPG,AFNE01.JPG,AFNE01.JPG,AFNE01.JPG,,,,,,,,,,,,,,,,,1,0,10,8,,,,,,,AFSA19.jpg,AFNE17.jpg,AFNE03.jpg,AFSA07.jpg,AFNE17.jpg,FN,3,num_6,32,num_4,1.05012840824,,,2017_Apr_13_1253,60.0141094455,FEMA4ImagesEEG,001,200112,
AFNE01.JPG,AFNE01.JPG,AFNE01.JPG,AFNE01.JPG,AFNE01.JPG,AFNE01.JPG,,,,,,,,,,,,,,,,,1,1,11,5,,,,,,,AFNE15.jpg,AFSA09.jpg,AFSA15.jpg,AFNE12.jpg,AFNE12.jpg,FN,3,num_4,32,num_2,0.916801404208,,,2017_Apr_13_1253,60.0141094455,FEMA4ImagesEEG,001,200112,
AFNE01.JPG,AFNE01.JPG,AFNE01.JPG,AFNE01.JPG,AFNE01.JPG,AFNE01.JPG,,,,,,,,,,,,,,,,,1,2,12,3,,,,,,,AFSA15.jpg,AFNE10.jpg,AFNE11.jpg,AFSA05.jpg,AFNE11.jpg,FN,3,num_2,32,num_4,0.6334557808,,,2017_Apr_13_1253,60.0141094455,FEMA4ImagesEEG,001,200112,
AFNE01.JPG,AFNE01.JPG,AFNE01.JPG,AFNE01.JPG,AFNE01.JPG,AFNE01.JPG,,,,,,,,,,,,,,,,,1,3,13,7,,,,,,,AFNE16.jpg,AFSA17.jpg,AFNE07.jpg,AFSA10.jpg,AFNE16.jpg,FN,3,num_8,32,num_6,1.45022649039,,,2017_Apr_13_1253,60.0141094455,FEMA4ImagesEEG,001,200112,
AFNE01.JPG,AFNE01.JPG,AFNE01.JPG,AFNE01.JPG,AFNE01.JPG,AFNE01.JPG,,,,,,,,,,,,,,,,,1,4,14,0,,,,,,,AFNE17.jpg,AFSA19.jpg,AFNE13.jpg,AFSA05.jpg,AFNE13.jpg,FN,3,num_2,16,num_2,0.81683710264,,,2017_Apr_13_1253,60.0141094455,FEMA4ImagesEEG,001,200112,
AFNE01.JPG,AFNE01.JPG,AFNE01.JPG,AFNE01.JPG,AFNE01.JPG,AFNE01.JPG,,,,,,,,,,,,,,,,,1,5,15,9,,,,,,,AFSA12.jpg,AFNE03.jpg,AFSA09.jpg,AFNE16.jpg,AFSA12.jpg,FS,4,num_8,16,num_8,0.90016014548,,,2017_Apr_13_1253,60.0141094455,FEMA4ImagesEEG,001,200112,
AFNE01.JPG,AFNE01.JPG,AFNE01.JPG,AFNE01.JPG,AFNE01.JPG,AFNE01.JPG,,,,,,,,,,,,,,,,,1,6,16,4,,,,,,,AFNE06.jpg,AFNE14.jpg,AFSA02.jpg,AFSA16.jpg,AFNE06.jpg,FN,3,num_8,32,num_2,0.916765802074,,,2017_Apr_13_1253,60.0141094455,FEMA4ImagesEEG,001,200112,
AFNE01.JPG,AFNE01.JPG,AFNE01.JPG,AFNE01.JPG,AFNE01.JPG,AFNE01.JPG,,,,,,,,,,,,,,,,,1,7,17,6,,,,,,,AFNE16.jpg,AFNE20.jpg,AFSA17.jpg,AFSA14.jpg,AFSA14.jpg,FS,4,num_4,16,num_4,0.9501580121,,,2017_Apr_13_1253,60.0141094455,FEMA4ImagesEEG,001,200112,
AFNE01.JPG,AFNE01.JPG,AFNE01.JPG,AFNE01.JPG,AFNE01.JPG,AFNE01.JPG,,,,,,,,,,,,,,,,,1,8,18,1,,,,,,,AFNE16.jpg,AFSA19.jpg,AFSA15.jpg,AFNE09.jpg,AFNE16.jpg,FN,3,num_8,32,num_6,0.850178315304,,,2017_Apr_13_1253,60.0141094455,FEMA4ImagesEEG,001,200112,
AFNE01.JPG,AFNE01.JPG,AFNE01.JPG,AFNE01.JPG,AFNE01.JPG,AFNE01.JPG,,,,,,,,,,,,,,,,,1,9,19,2,,,,,,,AFNE09.jpg,AFNE12.jpg,AFSA02.jpg,AFSA12.jpg,AFSA12.jpg,FS,4,num_4,32,num_6,1.03345026448,,,2017_Apr_13_1253,60.0141094455,FEMA4ImagesEEG,001,200112,
AFNE01.JPG,AFNE01.JPG,AFNE01.JPG,AFNE01.JPG,AFNE01.JPG,AFNE01.JPG,,,,,,,,,,,,,,,,,2,0,20,5,,,,,,,AFSA17.jpg,AFNE10.jpg,AFNE08.jpg,AFSA07.jpg,AFNE10.jpg,FN,3,num_6,32,num_4,0.600130926352,,,2017_Apr_13_1253,60.0141094455,FEMA4ImagesEEG,001,200112,
AFNE01.JPG,AFNE01.JPG,AFNE01.JPG,AFNE01.JPG,AFNE01.JPG,AFNE01.JPG,,,,,,,,,,,,,,,,,2,1,21,6,,,,,,,AFNE11.jpg,AFNE04.jpg,AFSA14.jpg,AFSA03.jpg,AFNE04.jpg,FN,3,num_6,16,num_6,0.783529887907,,,2017_Apr_13_1253,60.0141094455,FEMA4ImagesEEG,001,200112,
AFNE01.JPG,AFNE01.JPG,AFNE01.JPG,AFNE01.JPG,AFNE01.JPG,AFNE01.JPG,,,,,,,,,,,,,,,,,2,2,22,4,,,,,,,AFNE08.jpg,AFSA03.jpg,AFNE12.jpg,AFSA09.jpg,AFSA09.jpg,FS,4,num_4,16,num_4,1.20022560842,,,2017_Apr_13_1253,60.0141094455,FEMA4ImagesEEG,001,200112,
AFNE01.JPG,AFNE01.JPG,AFNE01.JPG,AFNE01.JPG,AFNE01.JPG,AFNE01.JPG,,,,,,,,,,,,,,,,,2,3,23,7,,,,,,,AFSA11.jpg,AFNE19.jpg,AFNE16.jpg,AFSA20.jpg,AFNE19.jpg,FN,3,num_6,16,num_6,0.800133619923,,,2017_Apr_13_1253,60.0141094455,FEMA4ImagesEEG,001,200112,
AFNE01.JPG,AFNE01.JPG,AFNE01.JPG,AFNE01.JPG,AFNE01.JPG,AFNE01.JPG,,,,,,,,,,,,,,,,,2,4,24,1,,,,,,,AFNE06.jpg,AFSA06.jpg,AFSA09.jpg,AFNE13.jpg,AFSA06.jpg,FS,4,num_6,32,num_2,0.566804146394,,,2017_Apr_13_1253,60.0141094455,FEMA4ImagesEEG,001,200112,
AFNE01.JPG,AFNE01.JPG,AFNE01.JPG,AFNE01.JPG,AFNE01.JPG,AFNE01.JPG,,,,,,,,,,,,,,,,,2,5,25,9,,,,,,,AFSA10.jpg,AFNE20.jpg,AFNE05.jpg,AFSA04.jpg,AFNE20.jpg,FN,3,num_6,32,num_8,0.833322481718,,,2017_Apr_13_1253,60.0141094455,FEMA4ImagesEEG,001,200112,
AFNE01.JPG,AFNE01.JPG,AFNE01.JPG,AFNE01.JPG,AFNE01.JPG,AFNE01.JPG,,,,,,,,,,,,,,,,,2,6,26,3,,,,,,,AFSA15.jpg,AFSA11.jpg,AFNE07.jpg,AFNE08.jpg,AFSA15.jpg,FS,4,num_8,16,num_8,1.13391524088,,,2017_Apr_13_1253,60.0141094455,FEMA4ImagesEEG,001,200112,
AFNE01.JPG,AFNE01.JPG,AFNE01.JPG,AFNE01.JPG,AFNE01.JPG,AFNE01.JPG,,,,,,,,,,,,,,,,,2,7,27,0,,,,,,,AFNE10.jpg,AFSA20.jpg,AFNE11.jpg,AFSA06.jpg,AFNE11.jpg,FN,3,num_2,32,num_6,0.733624394052,,,2017_Apr_13_1253,60.0141094455,FEMA4ImagesEEG,001,200112,
AFNE01.JPG,AFNE01.JPG,AFNE01.JPG,AFNE01.JPG,AFNE01.JPG,AFNE01.JPG,,,,,,,,,,,,,,,,,2,8,28,2,,,,,,,AFNE09.jpg,AFNE19.jpg,AFSA08.jpg,AFSA03.jpg,AFSA08.jpg,FS,4,num_2,16,num_2,0.866811555345,,,2017_Apr_13_1253,60.0141094455,FEMA4ImagesEEG,001,200112,
AFNE01.JPG,AFNE01.JPG,AFNE01.JPG,AFNE01.JPG,AFNE01.JPG,AFNE01.JPG,,,,,,,,,,,,,,,,,2,9,29,8,,,,,,,AFNE05.jpg,AFSA08.jpg,AFNE10.jpg,AFSA06.jpg,AFNE10.jpg,FN,3,num_2,16,num_2,1.01683241921,,,2017_Apr_13_1253,60.0141094455,FEMA4ImagesEEG,001,200112,
AFNE01.JPG,AFNE01.JPG,AFNE01.JPG,AFNE01.JPG,AFNE01.JPG,AFNE01.JPG,,,,,,,,,,,,,,,,,3,0,30,1,,,,,,,AFNE02.jpg,AFSA06.jpg,AFSA11.jpg,AFNE09.jpg,AFSA06.jpg,FS,4,num_6,32,num_8,1.0335150538,,,2017_Apr_13_1253,60.0141094455,FEMA4ImagesEEG,001,200112,
AFNE01.JPG,AFNE01.JPG,AFNE01.JPG,AFNE01.JPG,AFNE01.JPG,AFNE01.JPG,,,,,,,,,,,,,,,,,3,1,31,2,,,,,,,AFSA03.jpg,AFNE13.jpg,AFNE18.jpg,AFSA11.jpg,AFSA11.jpg,FS,4,num_4,32,num_2,1.36683833692,,,2017_Apr_13_1253,60.0141094455,FEMA4ImagesEEG,001,200112,
AFNE01.JPG,AFNE01.JPG,AFNE01.JPG,AFNE01.JPG,AFNE01.JPG,AFNE01.JPG,,,,,,,,,,,,,,,,,3,2,32,6,,,,,,,AFNE12.jpg,AFNE04.jpg,AFSA13.jpg,AFSA18.jpg,AFSA13.jpg,FS,4,num_2,32,num_8,0.833480606321,,,2017_Apr_13_1253,60.0141094455,FEMA4ImagesEEG,001,200112,
AFNE01.JPG,AFNE01.JPG,AFNE01.JPG,AFNE01.JPG,AFNE01.JPG,AFNE01.JPG,,,,,,,,,,,,,,,,,3,3,33,5,,,,,,,AFSA16.jpg,AFNE14.jpg,AFSA15.jpg,AFNE06.jpg,AFSA15.jpg,FS,4,num_2,16,num_2,1.20014285762,,,2017_Apr_13_1253,60.0141094455,FEMA4ImagesEEG,001,200112,
AFNE01.JPG,AFNE01.JPG,AFNE01.JPG,AFNE01.JPG,AFNE01.JPG,AFNE01.JPG,,,,,,,,,,,,,,,,,3,4,34,7,,,,,,,AFSA16.jpg,AFNE04.jpg,AFNE01.jpg,AFSA15.jpg,AFSA15.jpg,FS,4,num_4,16,num_4,1.08348148875,,,2017_Apr_13_1253,60.0141094455,FEMA4ImagesEEG,001,200112,
AFNE01.JPG,AFNE01.JPG,AFNE01.JPG,AFNE01.JPG,AFNE01.JPG,AFNE01.JPG,,,,,,,,,,,,,,,,,3,5,35,9,,,,,,,AFNE04.jpg,AFSA18.jpg,AFNE09.jpg,AFSA16.jpg,AFNE09.jpg,FN,3,num_2,16,num_2,0.900152768474,,,2017_Apr_13_1253,60.0141094455,FEMA4ImagesEEG,001,200112,
AFNE01.JPG,AFNE01.JPG,AFNE01.JPG,AFNE01.JPG,AFNE01.JPG,AFNE01.JPG,,,,,,,,,,,,,,,,,3,6,36,4,,,,,,,AFNE08.jpg,AFSA02.jpg,AFSA04.jpg,AFNE15.jpg,AFNE15.jpg,FN,3,num_4,16,num_4,0.700159695931,,,2017_Apr_13_1253,60.0141094455,FEMA4ImagesEEG,001,200112,
AFNE01.JPG,AFNE01.JPG,AFNE01.JPG,AFNE01.JPG,AFNE01.JPG,AFNE01.JPG,,,,,,,,,,,,,,,,,3,7,37,3,,,,,,,AFNE19.jpg,AFSA06.jpg,AFNE10.jpg,AFSA07.jpg,AFNE10.jpg,FN,3,num_2,16,num_2,0.716814104933,,,2017_Apr_13_1253,60.0141094455,FEMA4ImagesEEG,001,200112,
AFNE01.JPG,AFNE01.JPG,AFNE01.JPG,AFNE01.JPG,AFNE01.JPG,AFNE01.JPG,,,,,,,,,,,,,,,,,3,8,38,8,,,,,,,AFSA18.jpg,AFNE16.jpg,AFNE10.jpg,AFSA08.jpg,AFNE10.jpg,FN,3,num_2,16,num_2,0.766826406121,,,2017_Apr_13_1253,60.0141094455,FEMA4ImagesEEG,001,200112,
AFNE01.JPG,AFNE01.JPG,AFNE01.JPG,AFNE01.JPG,AFNE01.JPG,AFNE01.JPG,,,,,,,,,,,,,,,,,3,9,39,0,,,,,,,AFSA16.jpg,AFSA09.jpg,AFNE02.jpg,AFNE07.jpg,AFNE02.jpg,FN,3,num_2,32,num_8,1.08344428241,,,2017_Apr_13_1253,60.0141094455,FEMA4ImagesEEG,001,200112,
AFNE01.JPG,AFNE01.JPG,AFNE01.JPG,AFNE01.JPG,AFNE01.JPG,AFNE01.JPG,,,,,,,,,,,,,,,,,4,0,40,7,,,,,,,AFNE18.jpg,AFNE08.jpg,AFSA11.jpg,AFSA12.jpg,AFSA12.jpg,FS,4,num_4,16,num_4,0.600156905595,,,2017_Apr_13_1253,60.0141094455,FEMA4ImagesEEG,001,200112,
AFNE01.JPG,AFNE01.JPG,AFNE01.JPG,AFNE01.JPG,AFNE01.JPG,AFNE01.JPG,,,,,,,,,,,,,,,,,4,1,41,3,,,,,,,AFSA09.jpg,AFNE02.jpg,AFNE09.jpg,AFSA10.jpg,AFNE09.jpg,FN,3,num_2,32,num_6,0.83350947313,,,2017_Apr_13_1253,60.0141094455,FEMA4ImagesEEG,001,200112,
AFNE01.JPG,AFNE01.JPG,AFNE01.JPG,AFNE01.JPG,AFNE01.JPG,AFNE01.JPG,,,,,,,,,,,,,,,,,4,2,42,1,,,,,,,AFSA13.jpg,AFNE15.jpg,AFNE02.jpg,AFSA17.jpg,AFSA13.jpg,FS,4,num_8,32,num_2,0.966792856343,,,2017_Apr_13_1253,60.0141094455,FEMA4ImagesEEG,001,200112,
AFNE01.JPG,AFNE01.JPG,AFNE01.JPG,AFNE01.JPG,AFNE01.JPG,AFNE01.JPG,,,,,,,,,,,,,,,,,4,3,43,9,,,,,,,AFSA07.jpg,AFNE07.jpg,AFNE15.jpg,AFSA04.jpg,AFNE15.jpg,FN,3,num_2,16,num_2,0.883439663798,,,2017_Apr_13_1253,60.0141094455,FEMA4ImagesEEG,001,200112,
AFNE01.JPG,AFNE01.JPG,AFNE01.JPG,AFNE01.JPG,AFNE01.JPG,AFNE01.JPG,,,,,,,,,,,,,,,,,4,4,44,5,,,,,,,AFNE15.jpg,AFSA15.jpg,AFSA09.jpg,AFNE19.jpg,AFNE19.jpg,FN,3,num_4,16,num_4,0.800189749803,,,2017_Apr_13_1253,60.0141094455,FEMA4ImagesEEG,001,200112,
AFNE01.JPG,AFNE01.JPG,AFNE01.JPG,AFNE01.JPG,AFNE01.JPG,AFNE01.JPG,,,,,,,,,,,,,,,,,4,5,45,6,,,,,,,AFSA08.jpg,AFNE16.jpg,AFNE18.jpg,AFSA20.jpg,AFSA20.jpg,FS,4,num_4,32,num_2,0.583662866615,,,2017_Apr_13_1253,60.0141094455,FEMA4ImagesEEG,001,200112,
AFNE01.JPG,AFNE01.JPG,AFNE01.JPG,AFNE01.JPG,AFNE01.JPG,AFNE01.JPG,,,,,,,,,,,,,,,,,4,6,46,4,,,,,,,AFSA11.jpg,AFSA08.jpg,AFNE10.jpg,AFNE02.jpg,AFSA08.jpg,FS,4,num_6,16,num_6,0.716791332699,,,2017_Apr_13_1253,60.0141094455,FEMA4ImagesEEG,001,200112,
AFNE01.JPG,AFNE01.JPG,AFNE01.JPG,AFNE01.JPG,AFNE01.JPG,AFNE01.JPG,,,,,,,,,,,,,,,,,4,7,47,8,,,,,,,AFNE04.jpg,AFNE18.jpg,AFSA13.jpg,AFSA18.jpg,AFNE04.jpg,FN,3,num_8,32,num_6,1.71644397173,,,2017_Apr_13_1253,60.0141094455,FEMA4ImagesEEG,001,200112,
AFNE01.JPG,AFNE01.JPG,AFNE01.JPG,AFNE01.JPG,AFNE01.JPG,AFNE01.JPG,,,,,,,,,,,,,,,,,4,8,48,2,,,,,,,AFNE13.jpg,AFSA08.jpg,AFNE19.jpg,AFSA05.jpg,AFNE19.jpg,FN,3,num_2,32,num_8,0.950122089591,,,2017_Apr_13_1253,60.0141094455,FEMA4ImagesEEG,001,200112,
AFNE01.JPG,AFNE01.JPG,AFNE01.JPG,AFNE01.JPG,AFNE01.JPG,AFNE01.JPG,,,,,,,,,,,,,,,,,4,9,49,0,,,,,,,AFNE19.jpg,AFSA13.jpg,AFNE17.jpg,AFSA02.jpg,AFNE17.jpg,FN,3,num_2,16,num_2,0.950109580997,,,2017_Apr_13_1253,60.0141094455,FEMA4ImagesEEG,001,200112,
AFNE01.JPG,AFNE01.JPG,AFNE01.JPG,AFNE01.JPG,AFNE01.JPG,AFNE01.JPG,,,,,,,,,,,,,,,,,5,0,50,0,,,,,,,AFSA01.jpg,AFSA16.jpg,AFNE12.jpg,AFNE03.jpg,AFNE03.jpg,FN,3,num_4,32,num_8,1.30039261747,,,2017_Apr_13_1253,60.0141094455,FEMA4ImagesEEG,001,200112,
AFNE01.JPG,AFNE01.JPG,AFNE01.JPG,AFNE01.JPG,AFNE01.JPG,AFNE01.JPG,,,,,,,,,,,,,,,,,5,1,51,9,,,,,,,AFNE08.jpg,AFNE12.jpg,AFSA13.jpg,AFSA09.jpg,AFNE12.jpg,FN,3,num_6,16,num_6,0.933415079489,,,2017_Apr_13_1253,60.0141094455,FEMA4ImagesEEG,001,200112,
AFNE01.JPG,AFNE01.JPG,AFNE01.JPG,AFNE01.JPG,AFNE01.JPG,AFNE01.JPG,,,,,,,,,,,,,,,,,5,2,52,7,,,,,,,AFNE03.jpg,AFNE10.jpg,AFSA07.jpg,AFSA17.jpg,AFNE03.jpg,FN,3,num_8,32,num_4,0.366843789816,,,2017_Apr_13_1253,60.0141094455,FEMA4ImagesEEG,001,200112,
AFNE01.JPG,AFNE01.JPG,AFNE01.JPG,AFNE01.JPG,AFNE01.JPG,AFNE01.JPG,,,,,,,,,,,,,,,,,5,3,53,3,,,,,,,AFNE19.jpg,AFSA01.jpg,AFNE15.jpg,AFSA03.jpg,AFSA03.jpg,FS,4,num_4,32,num_6,0.566826277412,,,2017_Apr_13_1253,60.0141094455,FEMA4ImagesEEG,001,200112,
AFNE01.JPG,AFNE01.JPG,AFNE01.JPG,AFNE01.JPG,AFNE01.JPG,AFNE01.JPG,,,,,,,,,,,,,,,,,5,4,54,5,,,,,,,AFNE09.jpg,AFNE05.jpg,AFSA20.jpg,AFSA12.jpg,AFSA12.jpg,FS,4,num_4,16,num_4,0.666794107296,,,2017_Apr_13_1253,60.0141094455,FEMA4ImagesEEG,001,200112,
AFNE01.JPG,AFNE01.JPG,AFNE01.JPG,AFNE01.JPG,AFNE01.JPG,AFNE01.JPG,,,,,,,,,,,,,,,,,5,5,55,6,,,,,,,AFSA07.jpg,AFSA04.jpg,AFNE11.jpg,AFNE09.jpg,AFNE09.jpg,FN,3,num_4,32,num_2,2.21667281957,,,2017_Apr_13_1253,60.0141094455,FEMA4ImagesEEG,001,200112,
AFNE01.JPG,AFNE01.JPG,AFNE01.JPG,AFNE01.JPG,AFNE01.JPG,AFNE01.JPG,,,,,,,,,,,,,,,,,5,6,56,2,,,,,,,AFSA17.jpg,AFNE01.jpg,AFSA11.jpg,AFNE11.jpg,AFNE11.jpg,FN,3,num_4,32,num_6,0.733433233108,,,2017_Apr_13_1253,60.0141094455,FEMA4ImagesEEG,001,200112,
AFNE01.JPG,AFNE01.JPG,AFNE01.JPG,AFNE01.JPG,AFNE01.JPG,AFNE01.JPG,,,,,,,,,,,,,,,,,5,7,57,1,,,,,,,AFSA05.jpg,AFNE04.jpg,AFSA18.jpg,AFNE08.jpg,AFNE08.jpg,FN,3,num_4,16,num_4,0.883467888925,,,2017_Apr_13_1253,60.0141094455,FEMA4ImagesEEG,001,200112,
AFNE01.JPG,AFNE01.JPG,AFNE01.JPG,AFNE01.JPG,AFNE01.JPG,AFNE01.JPG,,,,,,,,,,,,,,,,,5,8,58,8,,,,,,,AFSA01.jpg,AFSA14.jpg,AFNE13.jpg,AFNE11.jpg,AFSA14.jpg,FS,4,num_6,16,num_6,1.01629036944,,,2017_Apr_13_1253,60.0141094455,FEMA4ImagesEEG,001,200112,
AFNE01.JPG,AFNE01.JPG,AFNE01.JPG,AFNE01.JPG,AFNE01.JPG,AFNE01.JPG,,,,,,,,,,,,,,,,,5,9,59,4,,,,,,,AFNE10.jpg,AFNE04.jpg,AFSA19.jpg,AFSA11.jpg,AFNE04.jpg,FN,3,num_6,16,num_6,1.46655823523,,,2017_Apr_13_1253,60.0141094455,FEMA4ImagesEEG,001,200112,
,,,,,,,,,,,,,,,,,,,,,,,,,,,,,,,,,,,,,,,,,,,space,2.86662167776,2017_Apr_13_1253,60.0141094455,FEMA4ImagesEEG,001,200112,
AFNE01.JPG,AFNE01.JPG,AFNE01.JPG,AFNE01.JPG,AFNE01.JPG,AFNE01.JPG,,,,,,,,,,,,,,,,,,,,,0,0,0,7,,,AMSA15.jpg,AMSA08.jpg,AMNE16.jpg,AMNE05.jpg,AMNE05.jpg,MN,1,num_4,32,num_8,1.05012584245,,,2017_Apr_13_1253,60.0141094455,FEMA4ImagesEEG,001,200112,
AFNE01.JPG,AFNE01.JPG,AFNE01.JPG,AFNE01.JPG,AFNE01.JPG,AFNE01.JPG,,,,,,,,,,,,,,,,,,,,,0,1,1,2,,,AMNE10.jpg,AMSA19.jpg,AMNE19.jpg,AMSA14.jpg,AMSA19.jpg,MS,2,num_6,16,num_6,0.717105978634,,,2017_Apr_13_1253,60.0141094455,FEMA4ImagesEEG,001,200112,
AFNE01.JPG,AFNE01.JPG,AFNE01.JPG,AFNE01.JPG,AFNE01.JPG,AFNE01.JPG,,,,,,,,,,,,,,,,,,,,,0,2,2,1,,,AMNE09.jpg,AMSA10.jpg,AMSA13.jpg,AMNE05.jpg,AMNE05.jpg,MN,1,num_4,16,num_4,0.883463398553,,,2017_Apr_13_1253,60.0141094455,FEMA4ImagesEEG,001,200112,
AFNE01.JPG,AFNE01.JPG,AFNE01.JPG,AFNE01.JPG,AFNE01.JPG,AFNE01.JPG,,,,,,,,,,,,,,,,,,,,,0,3,3,4,,,AMSA03.jpg,AMNE08.jpg,AMSA15.jpg,AMNE10.jpg,AMSA15.jpg,MS,2,num_2,16,num_2,0.700113830622,,,2017_Apr_13_1253,60.0141094455,FEMA4ImagesEEG,001,200112,
AFNE01.JPG,AFNE01.JPG,AFNE01.JPG,AFNE01.JPG,AFNE01.JPG,AFNE01.JPG,,,,,,,,,,,,,,,,,,,,,0,4,4,8,,,AMSA11.jpg,AMSA05.jpg,AMNE12.jpg,AMNE03.jpg,AMSA11.jpg,MS,2,num_8,32,num_6,1.60007896647,,,2017_Apr_13_1253,60.0141094455,FEMA4ImagesEEG,001,200112,
AFNE01.JPG,AFNE01.JPG,AFNE01.JPG,AFNE01.JPG,AFNE01.JPG,AFNE01.JPG,,,,,,,,,,,,,,,,,,,,,0,5,5,5,,,AMNE02.jpg,AMSA11.jpg,AMSA10.jpg,AMNE19.jpg,AMSA11.jpg,MS,2,num_6,16,num_6,0.900199596304,,,2017_Apr_13_1253,60.0141094455,FEMA4ImagesEEG,001,200112,
AFNE01.JPG,AFNE01.JPG,AFNE01.JPG,AFNE01.JPG,AFNE01.JPG,AFNE01.JPG,,,,,,,,,,,,,,,,,,,,,0,6,6,6,,,AMSA07.jpg,AMNE11.jpg,AMSA05.jpg,AMNE14.jpg,AMNE14.jpg,MN,1,num_4,16,num_4,1.25012917817,,,2017_Apr_13_1253,60.0141094455,FEMA4ImagesEEG,001,200112,
AFNE01.JPG,AFNE01.JPG,AFNE01.JPG,AFNE01.JPG,AFNE01.JPG,AFNE01.JPG,,,,,,,,,,,,,,,,,,,,,0,7,7,9,,,AMNE12.jpg,AMSA04.jpg,AMNE09.jpg,AMSA03.jpg,AMSA03.jpg,MS,2,num_4,16,num_4,0.81677744491,,,2017_Apr_13_1253,60.0141094455,FEMA4ImagesEEG,001,200112,
AFNE01.JPG,AFNE01.JPG,AFNE01.JPG,AFNE01.JPG,AFNE01.JPG,AFNE01.JPG,,,,,,,,,,,,,,,,,,,,,0,8,8,3,,,AMSA15.jpg,AMNE07.jpg,AMNE16.jpg,AMSA17.jpg,AMSA15.jpg,MS,2,num_8,32,num_6,1.53337376751,,,2017_Apr_13_1253,60.0141094455,FEMA4ImagesEEG,001,200112,
AFNE01.JPG,AFNE01.JPG,AFNE01.JPG,AFNE01.JPG,AFNE01.JPG,AFNE01.JPG,,,,,,,,,,,,,,,,,,,,,0,9,9,0,,,AMSA09.jpg,AMNE02.jpg,AMNE01.jpg,AMSA18.jpg,AMSA18.jpg,MS,2,num_4,16,num_4,0.666780957021,,,2017_Apr_13_1253,60.0141094455,FEMA4ImagesEEG,001,200112,
AFNE01.JPG,AFNE01.JPG,AFNE01.JPG,AFNE01.JPG,AFNE01.JPG,AFNE01.JPG,,,,,,,,,,,,,,,,,,,,,1,0,10,2,,,AMNE12.jpg,AMNE16.jpg,AMSA17.jpg,AMSA16.jpg,AMNE12.jpg,MN,1,num_8,32,num_6,0.96677778149,,,2017_Apr_13_1253,60.0141094455,FEMA4ImagesEEG,001,200112,
AFNE01.JPG,AFNE01.JPG,AFNE01.JPG,AFNE01.JPG,AFNE01.JPG,AFNE01.JPG,,,,,,,,,,,,,,,,,,,,,1,1,11,9,,,AMSA08.jpg,AMSA02.jpg,AMNE19.jpg,AMNE17.jpg,AMNE19.jpg,MN,1,num_2,32,num_8,1.33340892103,,,2017_Apr_13_1253,60.0141094455,FEMA4ImagesEEG,001,200112,
AFNE01.JPG,AFNE01.JPG,AFNE01.JPG,AFNE01.JPG,AFNE01.JPG,AFNE01.JPG,,,,,,,,,,,,,,,,,,,,,1,2,12,8,,,AMSA03.jpg,AMSA05.jpg,AMNE11.jpg,AMNE02.jpg,AMNE02.jpg,MN,1,num_4,32,num_6,1.71670345031,,,2017_Apr_13_1253,60.0141094455,FEMA4ImagesEEG,001,200112,
AFNE01.JPG,AFNE01.JPG,AFNE01.JPG,AFNE01.JPG,AFNE01.JPG,AFNE01.JPG,,,,,,,,,,,,,,,,,,,,,1,3,13,3,,,AMSA13.jpg,AMNE02.jpg,AMNE10.jpg,AMSA05.jpg,AMNE10.jpg,MN,1,num_2,32,num_4,0.816762370057,,,2017_Apr_13_1253,60.0141094455,FEMA4ImagesEEG,001,200112,
AFNE01.JPG,AFNE01.JPG,AFNE01.JPG,AFNE01.JPG,AFNE01.JPG,AFNE01.JPG,,,,,,,,,,,,,,,,,,,,,1,4,14,6,,,AMSA17.jpg,AMNE01.jpg,AMSA11.jpg,AMNE10.jpg,AMSA11.jpg,MS,2,num_2,16,num_2,1.11679832498,,,2017_Apr_13_1253,60.0141094455,FEMA4ImagesEEG,001,200112,
AFNE01.JPG,AFNE01.JPG,AFNE01.JPG,AFNE01.JPG,AFNE01.JPG,AFNE01.JPG,,,,,,,,,,,,,,,,,,,,,1,5,15,7,,,AMNE01.jpg,AMSA11.jpg,AMSA09.jpg,AMNE04.jpg,AMNE01.jpg,MN,1,num_8,16,num_8,0.816778406966,,,2017_Apr_13_1253,60.0141094455,FEMA4ImagesEEG,001,200112,
AFNE01.JPG,AFNE01.JPG,AFNE01.JPG,AFNE01.JPG,AFNE01.JPG,AFNE01.JPG,,,,,,,,,,,,,,,,,,,,,1,6,16,4,,,AMSA02.jpg,AMSA05.jpg,AMNE12.jpg,AMNE01.jpg,AMNE01.jpg,MN,1,num_4,16,num_4,1.28344280692,,,2017_Apr_13_1253,60.0141094455,FEMA4ImagesEEG,001,200112,
AFNE01.JPG,AFNE01.JPG,AFNE01.JPG,AFNE01.JPG,AFNE01.JPG,AFNE01.JPG,,,,,,,,,,,,,,,,,,,,,1,7,17,1,,,AMNE05.jpg,AMSA07.jpg,AMNE19.jpg,AMSA15.jpg,AMSA07.jpg,MS,2,num_6,16,num_6,0.61678597657,,,2017_Apr_13_1253,60.0141094455,FEMA4ImagesEEG,001,200112,
AFNE01.JPG,AFNE01.JPG,AFNE01.JPG,AFNE01.JPG,AFNE01.JPG,AFNE01.JPG,,,,,,,,,,,,,,,,,,,,,1,8,18,5,,,AMSA02.jpg,AMNE14.jpg,AMNE05.jpg,AMSA14.jpg,AMNE05.jpg,MN,1,num_2,32,num_4,2.61666249204,,,2017_Apr_13_1253,60.0141094455,FEMA4ImagesEEG,001,200112,
AFNE01.JPG,AFNE01.JPG,AFNE01.JPG,AFNE01.JPG,AFNE01.JPG,AFNE01.JPG,,,,,,,,,,,,,,,,,,,,,1,9,19,0,,,AMNE06.jpg,AMSA03.jpg,AMSA18.jpg,AMNE10.jpg,AMNE06.jpg,MN,1,num_8,16,num_8,0.816770067904,,,2017_Apr_13_1253,60.0141094455,FEMA4ImagesEEG,001,200112,
AFNE01.JPG,AFNE01.JPG,AFNE01.JPG,AFNE01.JPG,AFNE01.JPG,AFNE01.JPG,,,,,,,,,,,,,,,,,,,,,2,0,20,0,,,AMNE10.jpg,AMNE13.jpg,AMSA12.jpg,AMSA18.jpg,AMNE13.jpg,MN,1,num_6,16,num_6,1.45008215774,,,2017_Apr_13_1253,60.0141094455,FEMA4ImagesEEG,001,200112,
AFNE01.JPG,AFNE01.JPG,AFNE01.JPG,AFNE01.JPG,AFNE01.JPG,AFNE01.JPG,,,,,,,,,,,,,,,,,,,,,2,1,21,1,,,AMNE05.jpg,AMNE01.jpg,AMSA19.jpg,AMSA13.jpg,AMNE01.jpg,MN,1,num_6,16,num_6,1.10011152085,,,2017_Apr_13_1253,60.0141094455,FEMA4ImagesEEG,001,200112,
AFNE01.JPG,AFNE01.JPG,AFNE01.JPG,AFNE01.JPG,AFNE01.JPG,AFNE01.JPG,,,,,,,,,,,,,,,,,,,,,2,2,22,2,,,AMSA08.jpg,AMNE09.jpg,AMSA06.jpg,AMNE11.jpg,AMNE11.jpg,MN,1,num_4,32,num_6,0.700118641369,,,2017_Apr_13_1253,60.0141094455,FEMA4ImagesEEG,001,200112,
AFNE01.JPG,AFNE01.JPG,AFNE01.JPG,AFNE01.JPG,AFNE01.JPG,AFNE01.JPG,,,,,,,,,,,,,,,,,,,,,2,3,23,6,,,AMNE13.jpg,AMSA09.jpg,AMNE19.jpg,AMSA10.jpg,AMNE13.jpg,MN,1,num_8,16,num_8,1.03346950887,,,2017_Apr_13_1253,60.0141094455,FEMA4ImagesEEG,001,200112,
AFNE01.JPG,AFNE01.JPG,AFNE01.JPG,AFNE01.JPG,AFNE01.JPG,AFNE01.JPG,,,,,,,,,,,,,,,,,,,,,2,4,24,5,,,AMSA17.jpg,AMNE16.jpg,AMSA04.jpg,AMNE18.jpg,AMSA04.jpg,MS,2,num_2,32,num_6,0.850063169375,,,2017_Apr_13_1253,60.0141094455,FEMA4ImagesEEG,001,200112,
AFNE01.JPG,AFNE01.JPG,AFNE01.JPG,AFNE01.JPG,AFNE01.JPG,AFNE01.JPG,,,,,,,,,,,,,,,,,,,,,2,5,25,7,,,AMNE14.jpg,AMNE16.jpg,AMSA16.jpg,AMSA12.jpg,AMNE14.jpg,MN,1,num_8,16,num_8,0.700007665437,,,2017_Apr_13_1253,60.0141094455,FEMA4ImagesEEG,001,200112,
AFNE01.JPG,AFNE01.JPG,AFNE01.JPG,AFNE01.JPG,AFNE01.JPG,AFNE01.JPG,,,,,,,,,,,,,,,,,,,,,2,6,26,3,,,AMNE12.jpg,AMNE06.jpg,AMSA16.jpg,AMSA07.jpg,AMSA16.jpg,MS,2,num_2,32,num_6,0.466844656039,,,2017_Apr_13_1253,60.0141094455,FEMA4ImagesEEG,001,200112,
AFNE01.JPG,AFNE01.JPG,AFNE01.JPG,AFNE01.JPG,AFNE01.JPG,AFNE01.JPG,,,,,,,,,,,,,,,,,,,,,2,7,27,8,,,AMNE04.jpg,AMSA09.jpg,AMSA15.jpg,AMNE11.jpg,AMNE11.jpg,MN,1,num_4,32,num_6,1.13345626229,,,2017_Apr_13_1253,60.0141094455,FEMA4ImagesEEG,001,200112,
AFNE01.JPG,AFNE01.JPG,AFNE01.JPG,AFNE01.JPG,AFNE01.JPG,AFNE01.JPG,,,,,,,,,,,,,,,,,,,,,2,8,28,4,,,AMNE09.jpg,AMSA09.jpg,AMSA14.jpg,AMNE11.jpg,AMNE09.jpg,MN,1,num_8,32,num_6,0.766773483716,,,2017_Apr_13_1253,60.0141094455,FEMA4ImagesEEG,001,200112,
AFNE01.JPG,AFNE01.JPG,AFNE01.JPG,AFNE01.JPG,AFNE01.JPG,AFNE01.JPG,,,,,,,,,,,,,,,,,,,,,2,9,29,9,,,AMSA05.jpg,AMNE02.jpg,AMNE10.jpg,AMSA08.jpg,AMSA08.jpg,MS,2,num_4,32,num_8,0.800118545536,,,2017_Apr_13_1253,60.0141094455,FEMA4ImagesEEG,001,200112,
AFNE01.JPG,AFNE01.JPG,AFNE01.JPG,AFNE01.JPG,AFNE01.JPG,AFNE01.JPG,,,,,,,,,,,,,,,,,,,,,3,0,30,4,,,AMSA11.jpg,AMSA06.jpg,AMNE20.jpg,AMNE03.jpg,AMNE20.jpg,MN,1,num_2,16,num_2,0.600099493284,,,2017_Apr_13_1253,60.0141094455,FEMA4ImagesEEG,001,200112,
AFNE01.JPG,AFNE01.JPG,AFNE01.JPG,AFNE01.JPG,AFNE01.JPG,AFNE01.JPG,,,,,,,,,,,,,,,,,,,,,3,1,31,2,,,AMNE11.jpg,AMSA17.jpg,AMSA11.jpg,AMNE13.jpg,AMSA17.jpg,MS,2,num_6,16,num_6,0.300230965018,,,2017_Apr_13_1253,60.0141094455,FEMA4ImagesEEG,001,200112,
AFNE01.JPG,AFNE01.JPG,AFNE01.JPG,AFNE01.JPG,AFNE01.JPG,AFNE01.JPG,,,,,,,,,,,,,,,,,,,,,3,2,32,7,,,AMNE11.jpg,AMNE12.jpg,AMSA01.jpg,AMSA17.jpg,AMSA01.jpg,MS,2,num_2,16,num_2,0.56680767471,,,2017_Apr_13_1253,60.0141094455,FEMA4ImagesEEG,001,200112,
AFNE01.JPG,AFNE01.JPG,AFNE01.JPG,AFNE01.JPG,AFNE01.JPG,AFNE01.JPG,,,,,,,,,,,,,,,,,,,,,3,3,33,9,,,AMSA14.jpg,AMNE16.jpg,AMSA12.jpg,AMNE09.jpg,AMNE16.jpg,MN,1,num_6,16,num_6,0.716859971173,,,2017_Apr_13_1253,60.0141094455,FEMA4ImagesEEG,001,200112,
AFNE01.JPG,AFNE01.JPG,AFNE01.JPG,AFNE01.JPG,AFNE01.JPG,AFNE01.JPG,,,,,,,,,,,,,,,,,,,,,3,4,34,0,,,AMNE05.jpg,AMNE02.jpg,AMSA10.jpg,AMSA02.jpg,AMNE02.jpg,MN,1,num_6,32,num_4,0.516847013496,,,2017_Apr_13_1253,60.0141094455,FEMA4ImagesEEG,001,200112,
AFNE01.JPG,AFNE01.JPG,AFNE01.JPG,AFNE01.JPG,AFNE01.JPG,AFNE01.JPG,,,,,,,,,,,,,,,,,,,,,3,5,35,8,,,AMNE20.jpg,AMNE11.jpg,AMSA15.jpg,AMSA11.jpg,AMSA15.jpg,MS,2,num_2,16,num_2,0.866807064973,,,2017_Apr_13_1253,60.0141094455,FEMA4ImagesEEG,001,200112,
AFNE01.JPG,AFNE01.JPG,AFNE01.JPG,AFNE01.JPG,AFNE01.JPG,AFNE01.JPG,,,,,,,,,,,,,,,,,,,,,3,6,36,3,,,AMNE07.jpg,AMSA10.jpg,AMNE05.jpg,AMSA16.jpg,AMNE05.jpg,MN,1,num_2,32,num_8,0.916768688709,,,2017_Apr_13_1253,60.0141094455,FEMA4ImagesEEG,001,200112,
AFNE01.JPG,AFNE01.JPG,AFNE01.JPG,AFNE01.JPG,AFNE01.JPG,AFNE01.JPG,,,,,,,,,,,,,,,,,,,,,3,7,37,5,,,AMSA08.jpg,AMNE16.jpg,AMNE08.jpg,AMSA13.jpg,AMNE08.jpg,MN,1,num_2,16,num_2,1.01677276194,,,2017_Apr_13_1253,60.0141094455,FEMA4ImagesEEG,001,200112,
AFNE01.JPG,AFNE01.JPG,AFNE01.JPG,AFNE01.JPG,AFNE01.JPG,AFNE01.JPG,,,,,,,,,,,,,,,,,,,,,3,8,38,1,,,AMNE08.jpg,AMNE14.jpg,AMSA16.jpg,AMSA18.jpg,AMNE14.jpg,MN,1,num_6,16,num_6,0.85011609178,,,2017_Apr_13_1253,60.0141094455,FEMA4ImagesEEG,001,200112,
