IPosition2,IPosition3,IPosition1,IPosition6,IPosition4,IPosition5,TrialsF1.thisRepN,TrialsF1.thisTrialN,TrialsF1.thisN,TrialsF1.thisIndex,TrialsM1.thisRepN,TrialsM1.thisTrialN,TrialsM1.thisN,TrialsM1.thisIndex,TrialsF2.thisRepN,TrialsF2.thisTrialN,TrialsF2.thisN,TrialsF2.thisIndex,TrialsM2.thisRepN,TrialsM2.thisTrialN,TrialsM2.thisN,TrialsM2.thisIndex,TrialsF3.thisRepN,TrialsF3.thisTrialN,TrialsF3.thisN,TrialsF3.thisIndex,TrialsM3.thisRepN,TrialsM3.thisTrialN,TrialsM3.thisN,TrialsM3.thisIndex,InstrKey_resp.keys,InstrKey_resp.rt,Image0 _Position,Image1 _Position,Image2 _Position,Image3 _Position,Center_image,condition,code,correct_answer,accuracy,Key_Resp.keys,Key_Resp.rt,BreakKey_resp.keys,BreakKey_resp.rt,date,frameRate,expName,session,participant,
,,,,,,,,,,,,,,,,,,,,,,,,,,,,,,space,13.5661397553,,,,,,,,,,,,,,2017_Apr_14_1852,60.0115488555,FEMA4ImagesEEG,001,200133,
AMSA25.JPG,AMNE24.JPG,AMSA24.JPG,AMNE26.JPG,AMSA21.JPG,AMNE25.JPG,0,0,0,3,,,,,,,,,,,,,,,,,,,,,,,AFSA13.jpg,AFNE19.jpg,AFNE06.jpg,AFSA18.jpg,AFNE19.jpg,FN,3,num_6,32,num_2,1.85013881619,,,2017_Apr_14_1852,60.0115488555,FEMA4ImagesEEG,001,200133,
AMSA21.JPG,AMNE22.JPG,AMNE21.JPG,AMSA23.JPG,AMSA22.JPG,AMNE23.JPG,0,1,1,1,,,,,,,,,,,,,,,,,,,,,,,AFNE20.jpg,AFSA05.jpg,AFNE04.jpg,AFSA13.jpg,AFSA05.jpg,FS,4,num_6,32,num_4,1.95002841755,,,2017_Apr_14_1852,60.0115488555,FEMA4ImagesEEG,001,200133,
AFNE22.JPG,AFSA24.JPG,AFSA22.JPG,AFNE25.JPG,AFNE24.JPG,AFSA25.JPG,0,2,2,6,,,,,,,,,,,,,,,,,,,,,,,AFNE03.jpg,AFSA07.jpg,AFSA09.jpg,AFNE15.jpg,AFSA09.jpg,FS,4,num_2,32,num_6,0.616794192814,,,2017_Apr_14_1852,60.0115488555,FEMA4ImagesEEG,001,200133,
AFNE23.JPG,AFNE24.JPG,AFNE22.JPG,AFSA24.JPG,AFSA22.JPG,AFSA23.JPG,0,3,3,8,,,,,,,,,,,,,,,,,,,,,,,AFNE13.jpg,AFSA09.jpg,AFSA04.jpg,AFNE20.jpg,AFSA09.jpg,FS,4,num_6,32,num_8,1.00007601533,,,2017_Apr_14_1852,60.0115488555,FEMA4ImagesEEG,001,200133,
AMNE22.JPG,AMSA24.JPG,AMSA22.JPG,AMNE25.JPG,AMNE24.JPG,AMSA25.JPG,0,4,4,7,,,,,,,,,,,,,,,,,,,,,,,AFSA13.jpg,AFNE19.jpg,AFSA19.jpg,AFNE17.jpg,AFNE17.jpg,FN,3,num_4,32,num_8,1.18343334,,,2017_Apr_14_1852,60.0115488555,FEMA4ImagesEEG,001,200133,
AMSA21.JPG,AMNE23.JPG,AMNE21.JPG,AMSA25.JPG,AMNE25.JPG,AMSA23.JPG,0,5,5,5,,,,,,,,,,,,,,,,,,,,,,,AFSA18.jpg,AFNE02.jpg,AFSA08.jpg,AFNE03.jpg,AFNE02.jpg,FN,3,num_6,32,num_4,0.783447709149,,,2017_Apr_14_1852,60.0115488555,FEMA4ImagesEEG,001,200133,
AFSA21.JPG,AFNE22.JPG,AFNE21.JPG,AFSA23.JPG,AFSA22.JPG,AFNE23.JPG,0,6,6,0,,,,,,,,,,,,,,,,,,,,,,,AFNE17.jpg,AFSA08.jpg,AFNE06.jpg,AFSA07.jpg,AFNE17.jpg,FN,3,num_8,16,num_8,0.816742746149,,,2017_Apr_14_1852,60.0115488555,FEMA4ImagesEEG,001,200133,
AFSA21.JPG,AFNE23.JPG,AFNE21.JPG,AFSA25.JPG,AFNE25.JPG,AFSA23.JPG,0,7,7,4,,,,,,,,,,,,,,,,,,,,,,,AFNE07.jpg,AFSA08.jpg,AFNE12.jpg,AFSA03.jpg,AFSA03.jpg,FS,4,num_4,16,num_4,0.783454444685,,,2017_Apr_14_1852,60.0115488555,FEMA4ImagesEEG,001,200133,
AMNE23.JPG,AMNE24.JPG,AMNE22.JPG,AMSA24.JPG,AMSA22.JPG,AMSA23.JPG,0,8,8,9,,,,,,,,,,,,,,,,,,,,,,,AFSA13.jpg,AFNE19.jpg,AFNE18.jpg,AFSA11.jpg,AFNE18.jpg,FN,3,num_2,32,num_6,0.733419997228,,,2017_Apr_14_1852,60.0115488555,FEMA4ImagesEEG,001,200133,
AFSA25.JPG,AFNE24.JPG,AFSA24.JPG,AFNE21.JPG,AFSA21.JPG,AFNE25.JPG,0,9,9,2,,,,,,,,,,,,,,,,,,,,,,,AFSA06.jpg,AFNE14.jpg,AFSA08.jpg,AFNE02.jpg,AFSA06.jpg,FS,4,num_8,16,num_8,1.05020476029,,,2017_Apr_14_1852,60.0115488555,FEMA4ImagesEEG,001,200133,
AFNE22.JPG,AFSA24.JPG,AFSA22.JPG,AFNE25.JPG,AFNE24.JPG,AFSA25.JPG,,,,,0,0,0,6,,,,,,,,,,,,,,,,,,,AMNE01.jpg,AMNE05.jpg,AMSA05.jpg,AMSA10.jpg,AMNE01.jpg,MN,1,num_8,16,num_8,0.633460795332,,,2017_Apr_14_1852,60.0115488555,FEMA4ImagesEEG,001,200133,
AMNE22.JPG,AMSA24.JPG,AMSA22.JPG,AMNE25.JPG,AMNE24.JPG,AMSA25.JPG,,,,,0,1,1,7,,,,,,,,,,,,,,,,,,,AMSA02.jpg,AMSA20.jpg,AMNE08.jpg,AMNE18.jpg,AMSA20.jpg,MS,2,num_6,32,num_4,0.833440781167,,,2017_Apr_14_1852,60.0115488555,FEMA4ImagesEEG,001,200133,
AMSA21.JPG,AMNE23.JPG,AMNE21.JPG,AMSA25.JPG,AMNE25.JPG,AMSA23.JPG,,,,,0,2,2,5,,,,,,,,,,,,,,,,,,,AMNE13.jpg,AMSA03.jpg,AMNE16.jpg,AMSA08.jpg,AMNE16.jpg,MN,1,num_2,32,num_4,0.883450531659,,,2017_Apr_14_1852,60.0115488555,FEMA4ImagesEEG,001,200133,
AMSA25.JPG,AMNE24.JPG,AMSA24.JPG,AMNE26.JPG,AMSA21.JPG,AMNE25.JPG,,,,,0,3,3,3,,,,,,,,,,,,,,,,,,,AMNE11.jpg,AMSA06.jpg,AMSA17.jpg,AMNE15.jpg,AMNE15.jpg,MN,1,num_4,32,num_8,0.866518677318,,,2017_Apr_14_1852,60.0115488555,FEMA4ImagesEEG,001,200133,
AFNE23.JPG,AFNE24.JPG,AFNE22.JPG,AFSA24.JPG,AFSA22.JPG,AFSA23.JPG,,,,,0,4,4,8,,,,,,,,,,,,,,,,,,,AMSA06.jpg,AMNE19.jpg,AMSA11.jpg,AMNE01.jpg,AMSA06.jpg,MS,2,num_8,32,num_4,0.950004362061,,,2017_Apr_14_1852,60.0115488555,FEMA4ImagesEEG,001,200133,
AFSA21.JPG,AFNE22.JPG,AFNE21.JPG,AFSA23.JPG,AFSA22.JPG,AFNE23.JPG,,,,,0,5,5,0,,,,,,,,,,,,,,,,,,,AMNE13.jpg,AMNE10.jpg,AMSA19.jpg,AMSA13.jpg,AMNE13.jpg,MN,1,num_8,32,num_6,0.683466055467,,,2017_Apr_14_1852,60.0115488555,FEMA4ImagesEEG,001,200133,
AMNE23.JPG,AMNE24.JPG,AMNE22.JPG,AMSA24.JPG,AMSA22.JPG,AMSA23.JPG,,,,,0,6,6,9,,,,,,,,,,,,,,,,,,,AMNE01.jpg,AMNE17.jpg,AMSA20.jpg,AMSA02.jpg,AMSA20.jpg,MS,2,num_2,32,num_8,1.25030566503,,,2017_Apr_14_1852,60.0115488555,FEMA4ImagesEEG,001,200133,
AMSA21.JPG,AMNE22.JPG,AMNE21.JPG,AMSA23.JPG,AMSA22.JPG,AMNE23.JPG,,,,,0,7,7,1,,,,,,,,,,,,,,,,,,,AMSA02.jpg,AMSA04.jpg,AMNE09.jpg,AMNE01.jpg,AMSA02.jpg,MS,2,num_8,32,num_6,0.683458357711,,,2017_Apr_14_1852,60.0115488555,FEMA4ImagesEEG,001,200133,
AFSA21.JPG,AFNE23.JPG,AFNE21.JPG,AFSA25.JPG,AFNE25.JPG,AFSA23.JPG,,,,,0,8,8,4,,,,,,,,,,,,,,,,,,,AMNE15.jpg,AMSA20.jpg,AMNE11.jpg,AMSA10.jpg,AMNE11.jpg,MN,1,num_2,16,num_2,1.21672388665,,,2017_Apr_14_1852,60.0115488555,FEMA4ImagesEEG,001,200133,
AFSA25.JPG,AFNE24.JPG,AFSA24.JPG,AFNE21.JPG,AFSA21.JPG,AFNE25.JPG,,,,,0,9,9,2,,,,,,,,,,,,,,,,,,,AMSA08.jpg,AMSA09.jpg,AMNE05.jpg,AMNE14.jpg,AMSA08.jpg,MS,2,num_8,32,num_6,1.23345559935,,,2017_Apr_14_1852,60.0115488555,FEMA4ImagesEEG,001,200133,
AFSA25.JPG,AFNE24.JPG,AFSA24.JPG,AFNE21.JPG,AFSA21.JPG,AFNE25.JPG,,,,,,,,,0,0,0,2,,,,,,,,,,,,,,,AFNE19.jpg,AFSA09.jpg,AFNE14.jpg,AFSA17.jpg,AFNE19.jpg,FN,3,num_8,16,num_8,1.03340857889,,,2017_Apr_14_1852,60.0115488555,FEMA4ImagesEEG,001,200133,
AMNE22.JPG,AMSA24.JPG,AMSA22.JPG,AMNE25.JPG,AMNE24.JPG,AMSA25.JPG,,,,,,,,,0,1,1,7,,,,,,,,,,,,,,,AFNE03.jpg,AFNE11.jpg,AFSA09.jpg,AFSA10.jpg,AFSA09.jpg,FS,4,num_2,32,num_4,0.466784827211,,,2017_Apr_14_1852,60.0115488555,FEMA4ImagesEEG,001,200133,
AFSA21.JPG,AFNE23.JPG,AFNE21.JPG,AFSA25.JPG,AFNE25.JPG,AFSA23.JPG,,,,,,,,,0,2,2,4,,,,,,,,,,,,,,,AFNE12.jpg,AFSA16.jpg,AFSA14.jpg,AFNE07.jpg,AFSA16.jpg,FS,4,num_6,32,num_8,0.783455727644,,,2017_Apr_14_1852,60.0115488555,FEMA4ImagesEEG,001,200133,
AMSA25.JPG,AMNE24.JPG,AMSA24.JPG,AMNE26.JPG,AMSA21.JPG,AMNE25.JPG,,,,,,,,,0,3,3,3,,,,,,,,,,,,,,,AFNE07.jpg,AFSA19.jpg,AFSA05.jpg,AFNE05.jpg,AFSA05.jpg,FS,4,num_2,16,num_2,0.683466696944,,,2017_Apr_14_1852,60.0115488555,FEMA4ImagesEEG,001,200133,
AFSA21.JPG,AFNE22.JPG,AFNE21.JPG,AFSA23.JPG,AFSA22.JPG,AFNE23.JPG,,,,,,,,,0,4,4,0,,,,,,,,,,,,,,,AFSA07.jpg,AFSA09.jpg,AFNE13.jpg,AFNE20.jpg,AFNE20.jpg,FN,3,num_4,16,num_4,0.933429170385,,,2017_Apr_14_1852,60.0115488555,FEMA4ImagesEEG,001,200133,
AFNE23.JPG,AFNE24.JPG,AFNE22.JPG,AFSA24.JPG,AFSA22.JPG,AFSA23.JPG,,,,,,,,,0,5,5,8,,,,,,,,,,,,,,,AFNE09.jpg,AFSA04.jpg,AFNE17.jpg,AFSA02.jpg,AFSA02.jpg,FS,4,num_4,32,num_6,0.916742040521,,,2017_Apr_14_1852,60.0115488555,FEMA4ImagesEEG,001,200133,
AMNE23.JPG,AMNE24.JPG,AMNE22.JPG,AMSA24.JPG,AMSA22.JPG,AMSA23.JPG,,,,,,,,,0,6,6,9,,,,,,,,,,,,,,,AFNE05.jpg,AFSA09.jpg,AFSA01.jpg,AFNE20.jpg,AFSA01.jpg,FS,4,num_2,32,num_8,0.750157483246,,,2017_Apr_14_1852,60.0115488555,FEMA4ImagesEEG,001,200133,
AMSA21.JPG,AMNE23.JPG,AMNE21.JPG,AMSA25.JPG,AMNE25.JPG,AMSA23.JPG,,,,,,,,,0,7,7,5,,,,,,,,,,,,,,,AFSA20.jpg,AFNE01.jpg,AFNE10.jpg,AFSA09.jpg,AFNE01.jpg,FN,3,num_6,32,num_2,0.616787778017,,,2017_Apr_14_1852,60.0115488555,FEMA4ImagesEEG,001,200133,
AMSA21.JPG,AMNE22.JPG,AMNE21.JPG,AMSA23.JPG,AMSA22.JPG,AMNE23.JPG,,,,,,,,,0,8,8,1,,,,,,,,,,,,,,,AFNE12.jpg,AFNE16.jpg,AFSA15.jpg,AFSA20.jpg,AFSA15.jpg,FS,4,num_2,32,num_8,0.800003014952,,,2017_Apr_14_1852,60.0115488555,FEMA4ImagesEEG,001,200133,
AFNE22.JPG,AFSA24.JPG,AFSA22.JPG,AFNE25.JPG,AFNE24.JPG,AFSA25.JPG,,,,,,,,,0,9,9,6,,,,,,,,,,,,,,,AFSA04.jpg,AFNE20.jpg,AFNE09.jpg,AFSA09.jpg,AFSA09.jpg,FS,4,num_4,32,num_6,0.783123761947,,,2017_Apr_14_1852,60.0115488555,FEMA4ImagesEEG,001,200133,
AMNE23.JPG,AMNE24.JPG,AMNE22.JPG,AMSA24.JPG,AMSA22.JPG,AMSA23.JPG,,,,,,,,,,,,,0,0,0,9,,,,,,,,,,,AMSA07.jpg,AMSA12.jpg,AMNE19.jpg,AMNE06.jpg,AMSA07.jpg,MS,2,num_8,16,num_8,0.566795026738,,,2017_Apr_14_1852,60.0115488555,FEMA4ImagesEEG,001,200133,
AMNE22.JPG,AMSA24.JPG,AMSA22.JPG,AMNE25.JPG,AMNE24.JPG,AMSA25.JPG,,,,,,,,,,,,,0,1,1,7,,,,,,,,,,,AMSA16.jpg,AMNE14.jpg,AMNE09.jpg,AMSA07.jpg,AMNE09.jpg,MN,1,num_2,32,num_4,0.666766416747,,,2017_Apr_14_1852,60.0115488555,FEMA4ImagesEEG,001,200133,
AMSA21.JPG,AMNE22.JPG,AMNE21.JPG,AMSA23.JPG,AMSA22.JPG,AMNE23.JPG,,,,,,,,,,,,,0,2,2,1,,,,,,,,,,,AMSA16.jpg,AMSA12.jpg,AMNE06.jpg,AMNE05.jpg,AMNE05.jpg,MN,1,num_4,32,num_8,0.783457972822,,,2017_Apr_14_1852,60.0115488555,FEMA4ImagesEEG,001,200133,
AMSA25.JPG,AMNE24.JPG,AMSA24.JPG,AMNE26.JPG,AMSA21.JPG,AMNE25.JPG,,,,,,,,,,,,,0,3,3,3,,,,,,,,,,,AMNE09.jpg,AMSA01.jpg,AMSA06.jpg,AMNE13.jpg,AMSA06.jpg,MS,2,num_2,32,num_8,1.10012053402,,,2017_Apr_14_1852,60.0115488555,FEMA4ImagesEEG,001,200133,
AFNE23.JPG,AFNE24.JPG,AFNE22.JPG,AFSA24.JPG,AFSA22.JPG,AFSA23.JPG,,,,,,,,,,,,,0,4,4,8,,,,,,,,,,,AMNE08.jpg,AMNE13.jpg,AMSA05.jpg,AMSA19.jpg,AMNE08.jpg,MN,1,num_8,32,num_6,0.800165630033,,,2017_Apr_14_1852,60.0115488555,FEMA4ImagesEEG,001,200133,
AFNE22.JPG,AFSA24.JPG,AFSA22.JPG,AFNE25.JPG,AFNE24.JPG,AFSA25.JPG,,,,,,,,,,,,,0,5,5,6,,,,,,,,,,,AMNE03.jpg,AMNE06.jpg,AMSA02.jpg,AMSA13.jpg,AMSA02.jpg,MS,2,num_2,32,num_4,0.666751021236,,,2017_Apr_14_1852,60.0115488555,FEMA4ImagesEEG,001,200133,
AFSA21.JPG,AFNE22.JPG,AFNE21.JPG,AFSA23.JPG,AFSA22.JPG,AFNE23.JPG,,,,,,,,,,,,,0,6,6,0,,,,,,,,,,,AMNE02.jpg,AMNE12.jpg,AMSA06.jpg,AMSA14.jpg,AMSA06.jpg,MS,2,num_2,32,num_4,0.850102893331,,,2017_Apr_14_1852,60.0115488555,FEMA4ImagesEEG,001,200133,
AFSA25.JPG,AFNE24.JPG,AFSA24.JPG,AFNE21.JPG,AFSA21.JPG,AFNE25.JPG,,,,,,,,,,,,,0,7,7,2,,,,,,,,,,,AMSA13.jpg,AMNE05.jpg,AMNE06.jpg,AMSA11.jpg,AMNE06.jpg,MN,1,num_2,32,num_6,0.45031804559,,,2017_Apr_14_1852,60.0115488555,FEMA4ImagesEEG,001,200133,
AFSA21.JPG,AFNE23.JPG,AFNE21.JPG,AFSA25.JPG,AFNE25.JPG,AFSA23.JPG,,,,,,,,,,,,,0,8,8,4,,,,,,,,,,,AMNE08.jpg,AMSA07.jpg,AMNE13.jpg,AMSA14.jpg,AMSA14.jpg,MS,2,num_4,32,num_2,1.38338542148,,,2017_Apr_14_1852,60.0115488555,FEMA4ImagesEEG,001,200133,
AMSA21.JPG,AMNE23.JPG,AMNE21.JPG,AMSA25.JPG,AMNE25.JPG,AMSA23.JPG,,,,,,,,,,,,,0,9,9,5,,,,,,,,,,,AMSA04.jpg,AMSA15.jpg,AMNE19.jpg,AMNE09.jpg,AMSA04.jpg,MS,2,num_8,16,num_8,0.916749738277,,,2017_Apr_14_1852,60.0115488555,FEMA4ImagesEEG,001,200133,
AFNE23.JPG,AFNE24.JPG,AFNE22.JPG,AFSA24.JPG,AFSA22.JPG,AFSA23.JPG,,,,,,,,,,,,,,,,,0,0,0,8,,,,,,,AFNE09.jpg,AFNE06.jpg,AFSA12.jpg,AFSA20.jpg,AFNE06.jpg,FN,3,num_6,32,num_4,0.633513717403,,,2017_Apr_14_1852,60.0115488555,FEMA4ImagesEEG,001,200133,
AFNE22.JPG,AFSA24.JPG,AFSA22.JPG,AFNE25.JPG,AFNE24.JPG,AFSA25.JPG,,,,,,,,,,,,,,,,,0,1,1,6,,,,,,,AFNE16.jpg,AFSA04.jpg,AFSA15.jpg,AFNE03.jpg,AFNE16.jpg,FN,3,num_8,16,num_8,1.01674710821,,,2017_Apr_14_1852,60.0115488555,FEMA4ImagesEEG,001,200133,
AMNE23.JPG,AMNE24.JPG,AMNE22.JPG,AMSA24.JPG,AMSA22.JPG,AMSA23.JPG,,,,,,,,,,,,,,,,,0,2,2,9,,,,,,,AFNE13.jpg,AFNE02.jpg,AFSA04.jpg,AFSA03.jpg,AFSA03.jpg,FS,4,num_4,16,num_4,1.01675608892,,,2017_Apr_14_1852,60.0115488555,FEMA4ImagesEEG,001,200133,
AMSA21.JPG,AMNE22.JPG,AMNE21.JPG,AMSA23.JPG,AMSA22.JPG,AMNE23.JPG,,,,,,,,,,,,,,,,,0,3,3,1,,,,,,,AFSA04.jpg,AFNE16.jpg,AFSA07.jpg,AFNE11.jpg,AFNE11.jpg,FN,3,num_4,32,num_8,0.983430581644,,,2017_Apr_14_1852,60.0115488555,FEMA4ImagesEEG,001,200133,
AMSA25.JPG,AMNE24.JPG,AMSA24.JPG,AMNE26.JPG,AMSA21.JPG,AMNE25.JPG,,,,,,,,,,,,,,,,,0,4,4,3,,,,,,,AFSA08.jpg,AFSA16.jpg,AFNE15.jpg,AFNE01.jpg,AFNE01.jpg,FN,3,num_4,32,num_6,0.65014600076,,,2017_Apr_14_1852,60.0115488555,FEMA4ImagesEEG,001,200133,
AFSA21.JPG,AFNE22.JPG,AFNE21.JPG,AFSA23.JPG,AFSA22.JPG,AFNE23.JPG,,,,,,,,,,,,,,,,,0,5,5,0,,,,,,,AFNE14.jpg,AFSA14.jpg,AFNE15.jpg,AFSA06.jpg,AFSA06.jpg,FS,4,num_4,16,num_4,0.999930078724,,,2017_Apr_14_1852,60.0115488555,FEMA4ImagesEEG,001,200133,
AFSA25.JPG,AFNE24.JPG,AFSA24.JPG,AFNE21.JPG,AFSA21.JPG,AFNE25.JPG,,,,,,,,,,,,,,,,,0,6,6,2,,,,,,,AFSA02.jpg,AFNE06.jpg,AFNE20.jpg,AFSA01.jpg,AFNE06.jpg,FN,3,num_6,32,num_8,1.01675063635,,,2017_Apr_14_1852,60.0115488555,FEMA4ImagesEEG,001,200133,
AMNE22.JPG,AMSA24.JPG,AMSA22.JPG,AMNE25.JPG,AMNE24.JPG,AMSA25.JPG,,,,,,,,,,,,,,,,,0,7,7,7,,,,,,,AFNE04.jpg,AFNE06.jpg,AFSA04.jpg,AFSA13.jpg,AFNE06.jpg,FN,3,num_6,32,num_4,0.716771356139,,,2017_Apr_14_1852,60.0115488555,FEMA4ImagesEEG,001,200133,
AMSA21.JPG,AMNE23.JPG,AMNE21.JPG,AMSA25.JPG,AMNE25.JPG,AMSA23.JPG,,,,,,,,,,,,,,,,,0,8,8,5,,,,,,,AFSA05.jpg,AFNE01.jpg,AFSA09.jpg,AFNE12.jpg,AFSA09.jpg,FS,4,num_2,32,num_8,0.783448671369,,,2017_Apr_14_1852,60.0115488555,FEMA4ImagesEEG,001,200133,
AFSA21.JPG,AFNE23.JPG,AFNE21.JPG,AFSA25.JPG,AFNE25.JPG,AFSA23.JPG,,,,,,,,,,,,,,,,,0,9,9,4,,,,,,,AFNE12.jpg,AFSA14.jpg,AFNE13.jpg,AFSA12.jpg,AFSA12.jpg,FS,4,num_4,16,num_4,0.50013503146,,,2017_Apr_14_1852,60.0115488555,FEMA4ImagesEEG,001,200133,
AFSA25.JPG,AFNE24.JPG,AFSA24.JPG,AFNE21.JPG,AFSA21.JPG,AFNE25.JPG,,,,,,,,,,,,,,,,,,,,,0,0,0,2,,,AMNE10.jpg,AMSA10.jpg,AMNE03.jpg,AMSA09.jpg,AMNE10.jpg,MN,1,num_8,32,num_6,0.483481579275,,,2017_Apr_14_1852,60.0115488555,FEMA4ImagesEEG,001,200133,
AMNE23.JPG,AMNE24.JPG,AMNE22.JPG,AMSA24.JPG,AMSA22.JPG,AMSA23.JPG,,,,,,,,,,,,,,,,,,,,,0,1,1,9,,,AMNE09.jpg,AMNE16.jpg,AMSA13.jpg,AMSA06.jpg,AMNE09.jpg,MN,1,num_8,16,num_8,0.633498963369,,,2017_Apr_14_1852,60.0115488555,FEMA4ImagesEEG,001,200133,
AMSA25.JPG,AMNE24.JPG,AMSA24.JPG,AMNE26.JPG,AMSA21.JPG,AMNE25.JPG,,,,,,,,,,,,,,,,,,,,,0,2,2,3,,,AMNE19.jpg,AMSA15.jpg,AMSA11.jpg,AMNE14.jpg,AMNE19.jpg,MN,1,num_8,32,num_4,0.550115594626,,,2017_Apr_14_1852,60.0115488555,FEMA4ImagesEEG,001,200133,
AMSA21.JPG,AMNE23.JPG,AMNE21.JPG,AMSA25.JPG,AMNE25.JPG,AMSA23.JPG,,,,,,,,,,,,,,,,,,,,,0,3,3,5,,,AMNE03.jpg,AMSA11.jpg,AMNE08.jpg,AMSA20.jpg,AMSA11.jpg,MS,2,num_6,32,num_8,0.566782838621,,,2017_Apr_14_1852,60.0115488555,FEMA4ImagesEEG,001,200133,
AMNE22.JPG,AMSA24.JPG,AMSA22.JPG,AMNE25.JPG,AMNE24.JPG,AMSA25.JPG,,,,,,,,,,,,,,,,,,,,,0,4,4,7,,,AMNE11.jpg,AMNE04.jpg,AMSA17.jpg,AMSA02.jpg,AMSA02.jpg,MS,2,num_4,16,num_4,0.666823187694,,,2017_Apr_14_1852,60.0115488555,FEMA4ImagesEEG,001,200133,
AFNE23.JPG,AFNE24.JPG,AFNE22.JPG,AFSA24.JPG,AFSA22.JPG,AFSA23.JPG,,,,,,,,,,,,,,,,,,,,,0,5,5,8,,,AMNE14.jpg,AMNE19.jpg,AMSA09.jpg,AMSA20.jpg,AMSA09.jpg,MS,2,num_2,32,num_6,1.13345662571,,,2017_Apr_14_1852,60.0115488555,FEMA4ImagesEEG,001,200133,
AFSA21.JPG,AFNE23.JPG,AFNE21.JPG,AFSA25.JPG,AFNE25.JPG,AFSA23.JPG,,,,,,,,,,,,,,,,,,,,,0,6,6,4,,,AMNE03.jpg,AMNE16.jpg,AMSA10.jpg,AMSA05.jpg,AMNE16.jpg,MN,1,num_6,32,num_8,0.983320247149,,,2017_Apr_14_1852,60.0115488555,FEMA4ImagesEEG,001,200133,
AMSA21.JPG,AMNE22.JPG,AMNE21.JPG,AMSA23.JPG,AMSA22.JPG,AMNE23.JPG,,,,,,,,,,,,,,,,,,,,,0,7,7,1,,,AMSA16.jpg,AMNE03.jpg,AMNE15.jpg,AMSA18.jpg,AMNE15.jpg,MN,1,num_2,32,num_4,0.483428015723,,,2017_Apr_14_1852,60.0115488555,FEMA4ImagesEEG,001,200133,
AFNE22.JPG,AFSA24.JPG,AFSA22.JPG,AFNE25.JPG,AFNE24.JPG,AFSA25.JPG,,,,,,,,,,,,,,,,,,,,,0,8,8,6,,,AMSA01.jpg,AMSA10.jpg,AMNE10.jpg,AMNE05.jpg,AMNE05.jpg,MN,1,num_4,16,num_4,0.500281288809,,,2017_Apr_14_1852,60.0115488555,FEMA4ImagesEEG,001,200133,
AFSA21.JPG,AFNE22.JPG,AFNE21.JPG,AFSA23.JPG,AFSA22.JPG,AFNE23.JPG,,,,,,,,,,,,,,,,,,,,,0,9,9,0,,,AMNE09.jpg,AMSA08.jpg,AMSA09.jpg,AMNE02.jpg,AMNE02.jpg,MN,1,num_4,32,num_6,0.933475998398,,,2017_Apr_14_1852,60.0115488555,FEMA4ImagesEEG,001,200133,
,,,,,,,,,,,,,,,,,,,,,,,,,,,,,,,,,,,,,,,,,,,space,18.3487689365,2017_Apr_14_1852,60.0115488555,FEMA4ImagesEEG,001,200133,
AFNE01.JPG,AFNE01.JPG,AFNE01.JPG,AFNE01.JPG,AFNE01.JPG,AFNE01.JPG,0,0,0,6,,,,,,,,,,,,,,,,,,,,,,,AFSA06.jpg,AFNE13.jpg,AFSA05.jpg,AFNE16.jpg,AFSA06.jpg,FS,4,num_8,16,num_8,1.26679169104,,,2017_Apr_14_1852,60.0115488555,FEMA4ImagesEEG,001,200133,
AFNE01.JPG,AFNE01.JPG,AFNE01.JPG,AFNE01.JPG,AFNE01.JPG,AFNE01.JPG,0,1,1,4,,,,,,,,,,,,,,,,,,,,,,,AFSA09.jpg,AFSA05.jpg,AFNE14.jpg,AFNE13.jpg,AFSA05.jpg,FS,4,num_6,16,num_6,1.40004272254,,,2017_Apr_14_1852,60.0115488555,FEMA4ImagesEEG,001,200133,
AFNE01.JPG,AFNE01.JPG,AFNE01.JPG,AFNE01.JPG,AFNE01.JPG,AFNE01.JPG,0,2,2,2,,,,,,,,,,,,,,,,,,,,,,,AFSA18.jpg,AFNE07.jpg,AFNE11.jpg,AFSA20.jpg,AFSA20.jpg,FS,4,num_4,16,num_4,0.700175637117,,,2017_Apr_14_1852,60.0115488555,FEMA4ImagesEEG,001,200133,
AFNE01.JPG,AFNE01.JPG,AFNE01.JPG,AFNE01.JPG,AFNE01.JPG,AFNE01.JPG,0,3,3,5,,,,,,,,,,,,,,,,,,,,,,,AFNE15.jpg,AFSA05.jpg,AFSA03.jpg,AFNE02.jpg,AFSA05.jpg,FS,4,num_6,16,num_6,0.866736138905,,,2017_Apr_14_1852,60.0115488555,FEMA4ImagesEEG,001,200133,
AFNE01.JPG,AFNE01.JPG,AFNE01.JPG,AFNE01.JPG,AFNE01.JPG,AFNE01.JPG,0,4,4,1,,,,,,,,,,,,,,,,,,,,,,,AFSA09.jpg,AFNE17.jpg,AFSA01.jpg,AFNE19.jpg,AFSA09.jpg,FS,4,num_8,16,num_8,1.20042356899,,,2017_Apr_14_1852,60.0115488555,FEMA4ImagesEEG,001,200133,
AFNE01.JPG,AFNE01.JPG,AFNE01.JPG,AFNE01.JPG,AFNE01.JPG,AFNE01.JPG,0,5,5,3,,,,,,,,,,,,,,,,,,,,,,,AFSA11.jpg,AFNE09.jpg,AFSA14.jpg,AFNE05.jpg,AFSA11.jpg,FS,4,num_8,32,num_4,0.833554964538,,,2017_Apr_14_1852,60.0115488555,FEMA4ImagesEEG,001,200133,
AFNE01.JPG,AFNE01.JPG,AFNE01.JPG,AFNE01.JPG,AFNE01.JPG,AFNE01.JPG,0,6,6,8,,,,,,,,,,,,,,,,,,,,,,,AFNE11.jpg,AFSA08.jpg,AFSA18.jpg,AFNE07.jpg,AFNE07.jpg,FN,3,num_4,16,num_4,0.683493318345,,,2017_Apr_14_1852,60.0115488555,FEMA4ImagesEEG,001,200133,
AFNE01.JPG,AFNE01.JPG,AFNE01.JPG,AFNE01.JPG,AFNE01.JPG,AFNE01.JPG,0,7,7,9,,,,,,,,,,,,,,,,,,,,,,,AFNE08.jpg,AFSA04.jpg,AFSA11.jpg,AFNE14.jpg,AFSA04.jpg,FS,4,num_6,16,num_6,1.11674383666,,,2017_Apr_14_1852,60.0115488555,FEMA4ImagesEEG,001,200133,
AFNE01.JPG,AFNE01.JPG,AFNE01.JPG,AFNE01.JPG,AFNE01.JPG,AFNE01.JPG,0,8,8,0,,,,,,,,,,,,,,,,,,,,,,,AFSA16.jpg,AFSA01.jpg,AFNE15.jpg,AFNE16.jpg,AFNE15.jpg,FN,3,num_2,16,num_2,1.51667718693,,,2017_Apr_14_1852,60.0115488555,FEMA4ImagesEEG,001,200133,
AFNE01.JPG,AFNE01.JPG,AFNE01.JPG,AFNE01.JPG,AFNE01.JPG,AFNE01.JPG,0,9,9,7,,,,,,,,,,,,,,,,,,,,,,,AFNE16.jpg,AFSA10.jpg,AFSA06.jpg,AFNE15.jpg,AFNE16.jpg,FN,3,num_8,32,num_6,0.96681754267,,,2017_Apr_14_1852,60.0115488555,FEMA4ImagesEEG,001,200133,
AFNE01.JPG,AFNE01.JPG,AFNE01.JPG,AFNE01.JPG,AFNE01.JPG,AFNE01.JPG,1,0,10,0,,,,,,,,,,,,,,,,,,,,,,,AFSA04.jpg,AFNE18.jpg,AFSA09.jpg,AFNE07.jpg,AFSA09.jpg,FS,4,num_2,32,num_4,0.700148053493,,,2017_Apr_14_1852,60.0115488555,FEMA4ImagesEEG,001,200133,
AFNE01.JPG,AFNE01.JPG,AFNE01.JPG,AFNE01.JPG,AFNE01.JPG,AFNE01.JPG,1,1,11,4,,,,,,,,,,,,,,,,,,,,,,,AFSA11.jpg,AFSA02.jpg,AFNE16.jpg,AFNE03.jpg,AFSA02.jpg,FS,4,num_6,32,num_8,0.866774948423,,,2017_Apr_14_1852,60.0115488555,FEMA4ImagesEEG,001,200133,
AFNE01.JPG,AFNE01.JPG,AFNE01.JPG,AFNE01.JPG,AFNE01.JPG,AFNE01.JPG,1,2,12,1,,,,,,,,,,,,,,,,,,,,,,,AFNE07.jpg,AFSA12.jpg,AFSA09.jpg,AFNE03.jpg,AFSA09.jpg,FS,4,num_2,32,num_6,1.38343994724,,,2017_Apr_14_1852,60.0115488555,FEMA4ImagesEEG,001,200133,
AFNE01.JPG,AFNE01.JPG,AFNE01.JPG,AFNE01.JPG,AFNE01.JPG,AFNE01.JPG,1,3,13,2,,,,,,,,,,,,,,,,,,,,,,,AFNE01.jpg,AFSA16.jpg,AFSA10.jpg,AFNE04.jpg,AFNE01.jpg,FN,3,num_8,16,num_8,0.699973250299,,,2017_Apr_14_1852,60.0115488555,FEMA4ImagesEEG,001,200133,
AFNE01.JPG,AFNE01.JPG,AFNE01.JPG,AFNE01.JPG,AFNE01.JPG,AFNE01.JPG,1,4,14,9,,,,,,,,,,,,,,,,,,,,,,,AFNE02.jpg,AFSA17.jpg,AFNE15.jpg,AFSA19.jpg,AFSA19.jpg,FS,4,num_4,16,num_4,0.93342884965,,,2017_Apr_14_1852,60.0115488555,FEMA4ImagesEEG,001,200133,
AFNE01.JPG,AFNE01.JPG,AFNE01.JPG,AFNE01.JPG,AFNE01.JPG,AFNE01.JPG,1,5,15,8,,,,,,,,,,,,,,,,,,,,,,,AFSA05.jpg,AFSA11.jpg,AFNE19.jpg,AFNE15.jpg,AFNE19.jpg,FN,3,num_2,32,num_6,0.616713687123,,,2017_Apr_14_1852,60.0115488555,FEMA4ImagesEEG,001,200133,
AFNE01.JPG,AFNE01.JPG,AFNE01.JPG,AFNE01.JPG,AFNE01.JPG,AFNE01.JPG,1,6,16,3,,,,,,,,,,,,,,,,,,,,,,,AFSA15.jpg,AFNE17.jpg,AFNE04.jpg,AFSA14.jpg,AFNE04.jpg,FN,3,num_2,32,num_4,1.01674967413,,,2017_Apr_14_1852,60.0115488555,FEMA4ImagesEEG,001,200133,
AFNE01.JPG,AFNE01.JPG,AFNE01.JPG,AFNE01.JPG,AFNE01.JPG,AFNE01.JPG,1,7,17,6,,,,,,,,,,,,,,,,,,,,,,,AFSA12.jpg,AFNE16.jpg,AFNE04.jpg,AFSA19.jpg,AFSA19.jpg,FS,4,num_4,32,num_6,0.683452584391,,,2017_Apr_14_1852,60.0115488555,FEMA4ImagesEEG,001,200133,
AFNE01.JPG,AFNE01.JPG,AFNE01.JPG,AFNE01.JPG,AFNE01.JPG,AFNE01.JPG,1,8,18,7,,,,,,,,,,,,,,,,,,,,,,,AFNE17.jpg,AFNE19.jpg,AFSA16.jpg,AFSA03.jpg,AFSA03.jpg,FS,4,num_4,16,num_4,0.733462655622,,,2017_Apr_14_1852,60.0115488555,FEMA4ImagesEEG,001,200133,
AFNE01.JPG,AFNE01.JPG,AFNE01.JPG,AFNE01.JPG,AFNE01.JPG,AFNE01.JPG,1,9,19,5,,,,,,,,,,,,,,,,,,,,,,,AFNE04.jpg,AFSA01.jpg,AFSA10.jpg,AFNE15.jpg,AFNE04.jpg,FN,3,num_8,16,num_8,1.13339985477,,,2017_Apr_14_1852,60.0115488555,FEMA4ImagesEEG,001,200133,
AFNE01.JPG,AFNE01.JPG,AFNE01.JPG,AFNE01.JPG,AFNE01.JPG,AFNE01.JPG,2,0,20,3,,,,,,,,,,,,,,,,,,,,,,,AFNE14.jpg,AFSA10.jpg,AFSA19.jpg,AFNE09.jpg,AFNE09.jpg,FN,3,num_4,32,num_6,0.766816067269,,,2017_Apr_14_1852,60.0115488555,FEMA4ImagesEEG,001,200133,
AFNE01.JPG,AFNE01.JPG,AFNE01.JPG,AFNE01.JPG,AFNE01.JPG,AFNE01.JPG,2,1,21,5,,,,,,,,,,,,,,,,,,,,,,,AFSA14.jpg,AFNE10.jpg,AFSA12.jpg,AFNE18.jpg,AFSA12.jpg,FS,4,num_2,16,num_2,0.666785981874,,,2017_Apr_14_1852,60.0115488555,FEMA4ImagesEEG,001,200133,
AFNE01.JPG,AFNE01.JPG,AFNE01.JPG,AFNE01.JPG,AFNE01.JPG,AFNE01.JPG,2,2,22,0,,,,,,,,,,,,,,,,,,,,,,,AFNE12.jpg,AFSA06.jpg,AFSA18.jpg,AFNE20.jpg,AFSA18.jpg,FS,4,num_2,32,num_6,0.849846301484,,,2017_Apr_14_1852,60.0115488555,FEMA4ImagesEEG,001,200133,
AFNE01.JPG,AFNE01.JPG,AFNE01.JPG,AFNE01.JPG,AFNE01.JPG,AFNE01.JPG,2,3,23,7,,,,,,,,,,,,,,,,,,,,,,,AFNE13.jpg,AFSA05.jpg,AFSA19.jpg,AFNE08.jpg,AFSA19.jpg,FS,4,num_2,32,num_8,1.20009288625,,,2017_Apr_14_1852,60.0115488555,FEMA4ImagesEEG,001,200133,
AFNE01.JPG,AFNE01.JPG,AFNE01.JPG,AFNE01.JPG,AFNE01.JPG,AFNE01.JPG,2,4,24,8,,,,,,,,,,,,,,,,,,,,,,,AFNE13.jpg,AFSA03.jpg,AFSA15.jpg,AFNE19.jpg,AFSA15.jpg,FS,4,num_2,16,num_2,0.883479718981,,,2017_Apr_14_1852,60.0115488555,FEMA4ImagesEEG,001,200133,
AFNE01.JPG,AFNE01.JPG,AFNE01.JPG,AFNE01.JPG,AFNE01.JPG,AFNE01.JPG,2,5,25,1,,,,,,,,,,,,,,,,,,,,,,,AFSA08.jpg,AFNE17.jpg,AFSA17.jpg,AFNE11.jpg,AFNE11.jpg,FN,3,num_4,32,num_8,0.916718305773,,,2017_Apr_14_1852,60.0115488555,FEMA4ImagesEEG,001,200133,
AFNE01.JPG,AFNE01.JPG,AFNE01.JPG,AFNE01.JPG,AFNE01.JPG,AFNE01.JPG,2,6,26,6,,,,,,,,,,,,,,,,,,,,,,,AFNE16.jpg,AFNE12.jpg,AFSA05.jpg,AFSA15.jpg,AFNE12.jpg,FN,3,num_6,16,num_6,0.883493190053,,,2017_Apr_14_1852,60.0115488555,FEMA4ImagesEEG,001,200133,
AFNE01.JPG,AFNE01.JPG,AFNE01.JPG,AFNE01.JPG,AFNE01.JPG,AFNE01.JPG,2,7,27,9,,,,,,,,,,,,,,,,,,,,,,,AFNE06.jpg,AFNE01.jpg,AFSA07.jpg,AFSA05.jpg,AFNE01.jpg,FN,3,num_6,32,num_8,1.85004387721,,,2017_Apr_14_1852,60.0115488555,FEMA4ImagesEEG,001,200133,
AFNE01.JPG,AFNE01.JPG,AFNE01.JPG,AFNE01.JPG,AFNE01.JPG,AFNE01.JPG,2,8,28,2,,,,,,,,,,,,,,,,,,,,,,,AFNE06.jpg,AFSA01.jpg,AFSA12.jpg,AFNE14.jpg,AFNE06.jpg,FN,3,num_8,32,num_6,0.750143370693,,,2017_Apr_14_1852,60.0115488555,FEMA4ImagesEEG,001,200133,
AFNE01.JPG,AFNE01.JPG,AFNE01.JPG,AFNE01.JPG,AFNE01.JPG,AFNE01.JPG,2,9,29,4,,,,,,,,,,,,,,,,,,,,,,,AFNE06.jpg,AFNE14.jpg,AFSA07.jpg,AFSA12.jpg,AFSA07.jpg,FS,4,num_2,16,num_2,0.816776103089,,,2017_Apr_14_1852,60.0115488555,FEMA4ImagesEEG,001,200133,
AFNE01.JPG,AFNE01.JPG,AFNE01.JPG,AFNE01.JPG,AFNE01.JPG,AFNE01.JPG,3,0,30,1,,,,,,,,,,,,,,,,,,,,,,,AFNE13.jpg,AFSA18.jpg,AFNE17.jpg,AFSA06.jpg,AFNE17.jpg,FN,3,num_2,32,num_4,0.833430517498,,,2017_Apr_14_1852,60.0115488555,FEMA4ImagesEEG,001,200133,
AFNE01.JPG,AFNE01.JPG,AFNE01.JPG,AFNE01.JPG,AFNE01.JPG,AFNE01.JPG,3,1,31,8,,,,,,,,,,,,,,,,,,,,,,,AFNE08.jpg,AFSA18.jpg,AFNE01.jpg,AFSA05.jpg,AFNE01.jpg,FN,3,num_2,32,num_6,0.616772061767,,,2017_Apr_14_1852,60.0115488555,FEMA4ImagesEEG,001,200133,
AFNE01.JPG,AFNE01.JPG,AFNE01.JPG,AFNE01.JPG,AFNE01.JPG,AFNE01.JPG,3,2,32,4,,,,,,,,,,,,,,,,,,,,,,,AFSA11.jpg,AFSA10.jpg,AFNE07.jpg,AFNE03.jpg,AFSA10.jpg,FS,4,num_6,32,num_8,1.51671182683,,,2017_Apr_14_1852,60.0115488555,FEMA4ImagesEEG,001,200133,
AFNE01.JPG,AFNE01.JPG,AFNE01.JPG,AFNE01.JPG,AFNE01.JPG,AFNE01.JPG,3,3,33,9,,,,,,,,,,,,,,,,,,,,,,,AFNE08.jpg,AFSA03.jpg,AFNE06.jpg,AFSA02.jpg,AFNE08.jpg,FN,3,num_8,32,num_2,1.11648596186,,,2017_Apr_14_1852,60.0115488555,FEMA4ImagesEEG,001,200133,
AFNE01.JPG,AFNE01.JPG,AFNE01.JPG,AFNE01.JPG,AFNE01.JPG,AFNE01.JPG,3,4,34,7,,,,,,,,,,,,,,,,,,,,,,,AFSA20.jpg,AFSA13.jpg,AFNE05.jpg,AFNE08.jpg,AFNE08.jpg,FN,3,num_4,32,num_8,0.966728056264,,,2017_Apr_14_1852,60.0115488555,FEMA4ImagesEEG,001,200133,
AFNE01.JPG,AFNE01.JPG,AFNE01.JPG,AFNE01.JPG,AFNE01.JPG,AFNE01.JPG,3,5,35,5,,,,,,,,,,,,,,,,,,,,,,,AFNE20.jpg,AFSA17.jpg,AFSA09.jpg,AFNE01.jpg,AFSA09.jpg,FS,4,num_2,32,num_4,0.650166207368,,,2017_Apr_14_1852,60.0115488555,FEMA4ImagesEEG,001,200133,
AFNE01.JPG,AFNE01.JPG,AFNE01.JPG,AFNE01.JPG,AFNE01.JPG,AFNE01.JPG,3,6,36,3,,,,,,,,,,,,,,,,,,,,,,,AFNE19.jpg,AFNE03.jpg,AFSA16.jpg,AFSA09.jpg,AFNE19.jpg,FN,3,num_8,32,num_6,0.883463681992,,,2017_Apr_14_1852,60.0115488555,FEMA4ImagesEEG,001,200133,
AFNE01.JPG,AFNE01.JPG,AFNE01.JPG,AFNE01.JPG,AFNE01.JPG,AFNE01.JPG,3,7,37,0,,,,,,,,,,,,,,,,,,,,,,,AFNE16.jpg,AFSA07.jpg,AFSA20.jpg,AFNE02.jpg,AFNE02.jpg,FN,3,num_4,32,num_8,0.616782966918,,,2017_Apr_14_1852,60.0115488555,FEMA4ImagesEEG,001,200133,
AFNE01.JPG,AFNE01.JPG,AFNE01.JPG,AFNE01.JPG,AFNE01.JPG,AFNE01.JPG,3,8,38,2,,,,,,,,,,,,,,,,,,,,,,,AFSA02.jpg,AFNE11.jpg,AFNE14.jpg,AFSA10.jpg,AFNE14.jpg,FN,3,num_2,32,num_4,0.666800735904,,,2017_Apr_14_1852,60.0115488555,FEMA4ImagesEEG,001,200133,
AFNE01.JPG,AFNE01.JPG,AFNE01.JPG,AFNE01.JPG,AFNE01.JPG,AFNE01.JPG,3,9,39,6,,,,,,,,,,,,,,,,,,,,,,,AFSA14.jpg,AFNE11.jpg,AFSA01.jpg,AFNE10.jpg,AFNE10.jpg,FN,3,num_4,32,num_6,0.616758911438,,,2017_Apr_14_1852,60.0115488555,FEMA4ImagesEEG,001,200133,
AFNE01.JPG,AFNE01.JPG,AFNE01.JPG,AFNE01.JPG,AFNE01.JPG,AFNE01.JPG,4,0,40,0,,,,,,,,,,,,,,,,,,,,,,,AFNE18.jpg,AFNE03.jpg,AFSA02.jpg,AFSA10.jpg,AFSA02.jpg,FS,4,num_2,32,num_4,0.53347144389,,,2017_Apr_14_1852,60.0115488555,FEMA4ImagesEEG,001,200133,
AFNE01.JPG,AFNE01.JPG,AFNE01.JPG,AFNE01.JPG,AFNE01.JPG,AFNE01.JPG,4,1,41,3,,,,,,,,,,,,,,,,,,,,,,,AFSA03.jpg,AFSA14.jpg,AFNE15.jpg,AFNE20.jpg,AFSA14.jpg,FS,4,num_6,16,num_6,0.78351153637,,,2017_Apr_14_1852,60.0115488555,FEMA4ImagesEEG,001,200133,
AFNE01.JPG,AFNE01.JPG,AFNE01.JPG,AFNE01.JPG,AFNE01.JPG,AFNE01.JPG,4,2,42,4,,,,,,,,,,,,,,,,,,,,,,,AFSA13.jpg,AFSA10.jpg,AFNE09.jpg,AFNE05.jpg,AFNE05.jpg,FN,3,num_4,16,num_4,2.81661284653,,,2017_Apr_14_1852,60.0115488555,FEMA4ImagesEEG,001,200133,
AFNE01.JPG,AFNE01.JPG,AFNE01.JPG,AFNE01.JPG,AFNE01.JPG,AFNE01.JPG,4,3,43,7,,,,,,,,,,,,,,,,,,,,,,,AFNE18.jpg,AFSA09.jpg,AFSA15.jpg,AFNE11.jpg,AFSA09.jpg,FS,4,num_6,32,num_4,0.966725490347,,,2017_Apr_14_1852,60.0115488555,FEMA4ImagesEEG,001,200133,
AFNE01.JPG,AFNE01.JPG,AFNE01.JPG,AFNE01.JPG,AFNE01.JPG,AFNE01.JPG,4,4,44,9,,,,,,,,,,,,,,,,,,,,,,,AFNE15.jpg,AFSA06.jpg,AFSA04.jpg,AFNE12.jpg,AFSA06.jpg,FS,4,num_6,32,num_2,1.11654561946,,,2017_Apr_14_1852,60.0115488555,FEMA4ImagesEEG,001,200133,
AFNE01.JPG,AFNE01.JPG,AFNE01.JPG,AFNE01.JPG,AFNE01.JPG,AFNE01.JPG,4,5,45,5,,,,,,,,,,,,,,,,,,,,,,,AFSA19.jpg,AFNE15.jpg,AFNE16.jpg,AFSA05.jpg,AFNE16.jpg,FN,3,num_2,16,num_2,0.91680939588,,,2017_Apr_14_1852,60.0115488555,FEMA4ImagesEEG,001,200133,
AFNE01.JPG,AFNE01.JPG,AFNE01.JPG,AFNE01.JPG,AFNE01.JPG,AFNE01.JPG,4,6,46,1,,,,,,,,,,,,,,,,,,,,,,,AFSA17.jpg,AFSA11.jpg,AFNE05.jpg,AFNE19.jpg,AFSA17.jpg,FS,4,num_8,32,num_4,1.18343911332,,,2017_Apr_14_1852,60.0115488555,FEMA4ImagesEEG,001,200133,
AFNE01.JPG,AFNE01.JPG,AFNE01.JPG,AFNE01.JPG,AFNE01.JPG,AFNE01.JPG,4,7,47,2,,,,,,,,,,,,,,,,,,,,,,,AFSA08.jpg,AFNE02.jpg,AFNE10.jpg,AFSA05.jpg,AFNE10.jpg,FN,3,num_2,32,num_8,1.15013573709,,,2017_Apr_14_1852,60.0115488555,FEMA4ImagesEEG,001,200133,
AFNE01.JPG,AFNE01.JPG,AFNE01.JPG,AFNE01.JPG,AFNE01.JPG,AFNE01.JPG,4,8,48,6,,,,,,,,,,,,,,,,,,,,,,,AFSA07.jpg,AFNE06.jpg,AFNE11.jpg,AFSA04.jpg,AFSA07.jpg,FS,4,num_8,16,num_8,0.950089999591,,,2017_Apr_14_1852,60.0115488555,FEMA4ImagesEEG,001,200133,
AFNE01.JPG,AFNE01.JPG,AFNE01.JPG,AFNE01.JPG,AFNE01.JPG,AFNE01.JPG,4,9,49,8,,,,,,,,,,,,,,,,,,,,,,,AFNE15.jpg,AFSA12.jpg,AFSA15.jpg,AFNE14.jpg,AFNE15.jpg,FN,3,num_8,16,num_8,0.76674614599,,,2017_Apr_14_1852,60.0115488555,FEMA4ImagesEEG,001,200133,
AFNE01.JPG,AFNE01.JPG,AFNE01.JPG,AFNE01.JPG,AFNE01.JPG,AFNE01.JPG,5,0,50,1,,,,,,,,,,,,,,,,,,,,,,,AFSA19.jpg,AFSA08.jpg,AFNE19.jpg,AFNE08.jpg,AFSA08.jpg,FS,4,num_6,32,num_2,1.26673556158,,,2017_Apr_14_1852,60.0115488555,FEMA4ImagesEEG,001,200133,
AFNE01.JPG,AFNE01.JPG,AFNE01.JPG,AFNE01.JPG,AFNE01.JPG,AFNE01.JPG,5,1,51,9,,,,,,,,,,,,,,,,,,,,,,,AFSA11.jpg,AFNE20.jpg,AFSA12.jpg,AFNE01.jpg,AFNE20.jpg,FN,3,num_6,16,num_6,0.933435585182,,,2017_Apr_14_1852,60.0115488555,FEMA4ImagesEEG,001,200133,
AFNE01.JPG,AFNE01.JPG,AFNE01.JPG,AFNE01.JPG,AFNE01.JPG,AFNE01.JPG,5,2,52,5,,,,,,,,,,,,,,,,,,,,,,,AFSA12.jpg,AFNE16.jpg,AFNE07.jpg,AFSA01.jpg,AFSA01.jpg,FS,4,num_4,32,num_6,0.850096799273,,,2017_Apr_14_1852,60.0115488555,FEMA4ImagesEEG,001,200133,
AFNE01.JPG,AFNE01.JPG,AFNE01.JPG,AFNE01.JPG,AFNE01.JPG,AFNE01.JPG,5,3,53,3,,,,,,,,,,,,,,,,,,,,,,,AFSA14.jpg,AFSA20.jpg,AFNE10.jpg,AFNE18.jpg,AFSA14.jpg,FS,4,num_8,16,num_8,0.783331601338,,,2017_Apr_14_1852,60.0115488555,FEMA4ImagesEEG,001,200133,
AFNE01.JPG,AFNE01.JPG,AFNE01.JPG,AFNE01.JPG,AFNE01.JPG,AFNE01.JPG,5,4,54,7,,,,,,,,,,,,,,,,,,,,,,,AFNE07.jpg,AFNE19.jpg,AFSA06.jpg,AFSA14.jpg,AFNE07.jpg,FN,3,num_8,32,num_6,0.73345110899,,,2017_Apr_14_1852,60.0115488555,FEMA4ImagesEEG,001,200133,
AFNE01.JPG,AFNE01.JPG,AFNE01.JPG,AFNE01.JPG,AFNE01.JPG,AFNE01.JPG,5,5,55,8,,,,,,,,,,,,,,,,,,,,,,,AFSA16.jpg,AFNE09.jpg,AFNE15.jpg,AFSA13.jpg,AFNE15.jpg,FN,3,num_2,16,num_2,0.766773088133,,,2017_Apr_14_1852,60.0115488555,FEMA4ImagesEEG,001,200133,
AFNE01.JPG,AFNE01.JPG,AFNE01.JPG,AFNE01.JPG,AFNE01.JPG,AFNE01.JPG,5,6,56,4,,,,,,,,,,,,,,,,,,,,,,,AFNE11.jpg,AFNE19.jpg,AFSA05.jpg,AFSA09.jpg,AFSA05.jpg,FS,4,num_2,32,num_8,1.73336964108,,,2017_Apr_14_1852,60.0115488555,FEMA4ImagesEEG,001,200133,
AFNE01.JPG,AFNE01.JPG,AFNE01.JPG,AFNE01.JPG,AFNE01.JPG,AFNE01.JPG,5,7,57,6,,,,,,,,,,,,,,,,,,,,,,,AFNE15.jpg,AFSA11.jpg,AFNE19.jpg,AFSA01.jpg,AFNE15.jpg,FN,3,num_8,16,num_8,0.733444052712,,,2017_Apr_14_1852,60.0115488555,FEMA4ImagesEEG,001,200133,
AFNE01.JPG,AFNE01.JPG,AFNE01.JPG,AFNE01.JPG,AFNE01.JPG,AFNE01.JPG,5,8,58,0,,,,,,,,,,,,,,,,,,,,,,,AFNE18.jpg,AFNE05.jpg,AFSA19.jpg,AFSA14.jpg,AFSA14.jpg,FS,4,num_4,32,num_6,1.48349023925,,,2017_Apr_14_1852,60.0115488555,FEMA4ImagesEEG,001,200133,
AFNE01.JPG,AFNE01.JPG,AFNE01.JPG,AFNE01.JPG,AFNE01.JPG,AFNE01.JPG,5,9,59,2,,,,,,,,,,,,,,,,,,,,,,,AFNE16.jpg,AFSA04.jpg,AFSA16.jpg,AFNE07.jpg,AFSA16.jpg,FS,4,num_2,16,num_2,1.20006081227,,,2017_Apr_14_1852,60.0115488555,FEMA4ImagesEEG,001,200133,
,,,,,,,,,,,,,,,,,,,,,,,,,,,,,,,,,,,,,,,,,,,space,17.4154808916,2017_Apr_14_1852,60.0115488555,FEMA4ImagesEEG,001,200133,
AFNE01.JPG,AFNE01.JPG,AFNE01.JPG,AFNE01.JPG,AFNE01.JPG,AFNE01.JPG,,,,,0,0,0,9,,,,,,,,,,,,,,,,,,,AMNE20.jpg,AMSA02.jpg,AMNE11.jpg,AMSA19.jpg,AMSA02.jpg,MS,2,num_6,32,num_8,0.800175252229,,,2017_Apr_14_1852,60.0115488555,FEMA4ImagesEEG,001,200133,
AFNE01.JPG,AFNE01.JPG,AFNE01.JPG,AFNE01.JPG,AFNE01.JPG,AFNE01.JPG,,,,,0,1,1,7,,,,,,,,,,,,,,,,,,,AMNE03.jpg,AMSA18.jpg,AMSA11.jpg,AMNE20.jpg,AMSA11.jpg,MS,2,num_2,32,num_8,0.900148566678,,,2017_Apr_14_1852,60.0115488555,FEMA4ImagesEEG,001,200133,
AFNE01.JPG,AFNE01.JPG,AFNE01.JPG,AFNE01.JPG,AFNE01.JPG,AFNE01.JPG,,,,,0,2,2,4,,,,,,,,,,,,,,,,,,,AMNE14.jpg,AMNE16.jpg,AMSA12.jpg,AMSA08.jpg,AMSA08.jpg,MS,2,num_4,32,num_6,0.933413133396,,,2017_Apr_14_1852,60.0115488555,FEMA4ImagesEEG,001,200133,
AFNE01.JPG,AFNE01.JPG,AFNE01.JPG,AFNE01.JPG,AFNE01.JPG,AFNE01.JPG,,,,,0,3,3,2,,,,,,,,,,,,,,,,,,,AMNE04.jpg,AMSA20.jpg,AMNE08.jpg,AMSA03.jpg,AMSA03.jpg,MS,2,num_4,32,num_8,0.783435521036,,,2017_Apr_14_1852,60.0115488555,FEMA4ImagesEEG,001,200133,
AFNE01.JPG,AFNE01.JPG,AFNE01.JPG,AFNE01.JPG,AFNE01.JPG,AFNE01.JPG,,,,,0,4,4,0,,,,,,,,,,,,,,,,,,,AMNE17.jpg,AMNE13.jpg,AMSA07.jpg,AMSA08.jpg,AMSA08.jpg,MS,2,num_4,16,num_4,0.733493125903,,,2017_Apr_14_1852,60.0115488555,FEMA4ImagesEEG,001,200133,
AFNE01.JPG,AFNE01.JPG,AFNE01.JPG,AFNE01.JPG,AFNE01.JPG,AFNE01.JPG,,,,,0,5,5,3,,,,,,,,,,,,,,,,,,,AMNE20.jpg,AMNE18.jpg,AMSA12.jpg,AMSA10.jpg,AMSA10.jpg,MS,2,num_4,32,num_8,0.883734386385,,,2017_Apr_14_1852,60.0115488555,FEMA4ImagesEEG,001,200133,
AFNE01.JPG,AFNE01.JPG,AFNE01.JPG,AFNE01.JPG,AFNE01.JPG,AFNE01.JPG,,,,,0,6,6,5,,,,,,,,,,,,,,,,,,,AMNE16.jpg,AMSA14.jpg,AMSA06.jpg,AMNE12.jpg,AMNE12.jpg,MN,1,num_4,32,num_2,1.3668134372,,,2017_Apr_14_1852,60.0115488555,FEMA4ImagesEEG,001,200133,
AFNE01.JPG,AFNE01.JPG,AFNE01.JPG,AFNE01.JPG,AFNE01.JPG,AFNE01.JPG,,,,,0,7,7,1,,,,,,,,,,,,,,,,,,,AMNE05.jpg,AMNE11.jpg,AMSA08.jpg,AMSA15.jpg,AMNE11.jpg,MN,1,num_6,16,num_6,0.966756602109,,,2017_Apr_14_1852,60.0115488555,FEMA4ImagesEEG,001,200133,
AFNE01.JPG,AFNE01.JPG,AFNE01.JPG,AFNE01.JPG,AFNE01.JPG,AFNE01.JPG,,,,,0,8,8,6,,,,,,,,,,,,,,,,,,,AMSA11.jpg,AMNE10.jpg,AMNE07.jpg,AMSA10.jpg,AMNE07.jpg,MN,1,num_2,16,num_2,1.03339831522,,,2017_Apr_14_1852,60.0115488555,FEMA4ImagesEEG,001,200133,
AFNE01.JPG,AFNE01.JPG,AFNE01.JPG,AFNE01.JPG,AFNE01.JPG,AFNE01.JPG,,,,,0,9,9,8,,,,,,,,,,,,,,,,,,,AMNE13.jpg,AMSA03.jpg,AMSA15.jpg,AMNE19.jpg,AMNE13.jpg,MN,1,num_8,32,num_4,0.666781170778,,,2017_Apr_14_1852,60.0115488555,FEMA4ImagesEEG,001,200133,
AFNE01.JPG,AFNE01.JPG,AFNE01.JPG,AFNE01.JPG,AFNE01.JPG,AFNE01.JPG,,,,,1,0,10,0,,,,,,,,,,,,,,,,,,,AMNE11.jpg,AMSA16.jpg,AMSA13.jpg,AMNE01.jpg,AMSA16.jpg,MS,2,num_6,32,num_8,1.11680638092,,,2017_Apr_14_1852,60.0115488555,FEMA4ImagesEEG,001,200133,
AFNE01.JPG,AFNE01.JPG,AFNE01.JPG,AFNE01.JPG,AFNE01.JPG,AFNE01.JPG,,,,,1,1,11,7,,,,,,,,,,,,,,,,,,,AMNE10.jpg,AMNE08.jpg,AMSA10.jpg,AMSA14.jpg,AMSA10.jpg,MS,2,num_2,16,num_2,2.98323332666,,,2017_Apr_14_1852,60.0115488555,FEMA4ImagesEEG,001,200133,
AFNE01.JPG,AFNE01.JPG,AFNE01.JPG,AFNE01.JPG,AFNE01.JPG,AFNE01.JPG,,,,,1,2,12,9,,,,,,,,,,,,,,,,,,,AMSA06.jpg,AMNE10.jpg,AMNE09.jpg,AMSA11.jpg,AMSA11.jpg,MS,2,num_4,16,num_4,1.08344527152,,,2017_Apr_14_1852,60.0115488555,FEMA4ImagesEEG,001,200133,
AFNE01.JPG,AFNE01.JPG,AFNE01.JPG,AFNE01.JPG,AFNE01.JPG,AFNE01.JPG,,,,,1,3,13,2,,,,,,,,,,,,,,,,,,,AMSA17.jpg,AMNE04.jpg,AMNE05.jpg,AMSA08.jpg,AMNE05.jpg,MN,1,num_2,32,num_6,0.750190198705,,,2017_Apr_14_1852,60.0115488555,FEMA4ImagesEEG,001,200133,
AFNE01.JPG,AFNE01.JPG,AFNE01.JPG,AFNE01.JPG,AFNE01.JPG,AFNE01.JPG,,,,,1,4,14,4,,,,,,,,,,,,,,,,,,,AMSA15.jpg,AMSA03.jpg,AMNE16.jpg,AMNE10.jpg,AMSA03.jpg,MS,2,num_6,32,num_4,0.883421665076,,,2017_Apr_14_1852,60.0115488555,FEMA4ImagesEEG,001,200133,
AFNE01.JPG,AFNE01.JPG,AFNE01.JPG,AFNE01.JPG,AFNE01.JPG,AFNE01.JPG,,,,,1,5,15,6,,,,,,,,,,,,,,,,,,,AMNE03.jpg,AMSA10.jpg,AMSA06.jpg,AMNE12.jpg,AMNE03.jpg,MN,1,num_8,16,num_8,0.733379263274,,,2017_Apr_14_1852,60.0115488555,FEMA4ImagesEEG,001,200133,
AFNE01.JPG,AFNE01.JPG,AFNE01.JPG,AFNE01.JPG,AFNE01.JPG,AFNE01.JPG,,,,,1,6,16,1,,,,,,,,,,,,,,,,,,,AMNE08.jpg,AMSA16.jpg,AMNE12.jpg,AMSA10.jpg,AMSA16.jpg,MS,2,num_6,16,num_6,1.26675737189,,,2017_Apr_14_1852,60.0115488555,FEMA4ImagesEEG,001,200133,
AFNE01.JPG,AFNE01.JPG,AFNE01.JPG,AFNE01.JPG,AFNE01.JPG,AFNE01.JPG,,,,,1,7,17,5,,,,,,,,,,,,,,,,,,,AMSA08.jpg,AMNE13.jpg,AMSA07.jpg,AMNE19.jpg,AMSA07.jpg,MS,2,num_2,16,num_2,0.700061133008,,,2017_Apr_14_1852,60.0115488555,FEMA4ImagesEEG,001,200133,
AFNE01.JPG,AFNE01.JPG,AFNE01.JPG,AFNE01.JPG,AFNE01.JPG,AFNE01.JPG,,,,,1,8,18,8,,,,,,,,,,,,,,,,,,,AMSA05.jpg,AMNE19.jpg,AMNE06.jpg,AMSA13.jpg,AMNE06.jpg,MN,1,num_2,32,num_6,0.716763016902,,,2017_Apr_14_1852,60.0115488555,FEMA4ImagesEEG,001,200133,
AFNE01.JPG,AFNE01.JPG,AFNE01.JPG,AFNE01.JPG,AFNE01.JPG,AFNE01.JPG,,,,,1,9,19,3,,,,,,,,,,,,,,,,,,,AMSA18.jpg,AMSA15.jpg,AMNE10.jpg,AMNE09.jpg,AMNE09.jpg,MN,1,num_4,16,num_4,0.716779053895,,,2017_Apr_14_1852,60.0115488555,FEMA4ImagesEEG,001,200133,
AFNE01.JPG,AFNE01.JPG,AFNE01.JPG,AFNE01.JPG,AFNE01.JPG,AFNE01.JPG,,,,,2,0,20,7,,,,,,,,,,,,,,,,,,,AMNE06.jpg,AMSA13.jpg,AMNE14.jpg,AMSA18.jpg,AMNE14.jpg,MN,1,num_2,16,num_2,0.800088652482,,,2017_Apr_14_1852,60.0115488555,FEMA4ImagesEEG,001,200133,
AFNE01.JPG,AFNE01.JPG,AFNE01.JPG,AFNE01.JPG,AFNE01.JPG,AFNE01.JPG,,,,,2,1,21,4,,,,,,,,,,,,,,,,,,,AMSA15.jpg,AMNE09.jpg,AMSA02.jpg,AMNE17.jpg,AMNE09.jpg,MN,1,num_6,32,num_8,1.20009384847,,,2017_Apr_14_1852,60.0115488555,FEMA4ImagesEEG,001,200133,
AFNE01.JPG,AFNE01.JPG,AFNE01.JPG,AFNE01.JPG,AFNE01.JPG,AFNE01.JPG,,,,,2,2,22,2,,,,,,,,,,,,,,,,,,,AMNE16.jpg,AMNE13.jpg,AMSA04.jpg,AMSA02.jpg,AMNE13.jpg,MN,1,num_6,16,num_6,0.683466696944,,,2017_Apr_14_1852,60.0115488555,FEMA4ImagesEEG,001,200133,
AFNE01.JPG,AFNE01.JPG,AFNE01.JPG,AFNE01.JPG,AFNE01.JPG,AFNE01.JPG,,,,,2,3,23,6,,,,,,,,,,,,,,,,,,,AMSA17.jpg,AMSA16.jpg,AMNE14.jpg,AMNE11.jpg,AMSA17.jpg,MS,2,num_8,32,num_4,0.916607329804,,,2017_Apr_14_1852,60.0115488555,FEMA4ImagesEEG,001,200133,
AFNE01.JPG,AFNE01.JPG,AFNE01.JPG,AFNE01.JPG,AFNE01.JPG,AFNE01.JPG,,,,,2,4,24,5,,,,,,,,,,,,,,,,,,,AMSA11.jpg,AMNE05.jpg,AMSA05.jpg,AMNE11.jpg,AMNE11.jpg,MN,1,num_4,16,num_4,0.816739859492,,,2017_Apr_14_1852,60.0115488555,FEMA4ImagesEEG,001,200133,
AFNE01.JPG,AFNE01.JPG,AFNE01.JPG,AFNE01.JPG,AFNE01.JPG,AFNE01.JPG,,,,,2,5,25,3,,,,,,,,,,,,,,,,,,,AMSA18.jpg,AMSA02.jpg,AMNE07.jpg,AMNE20.jpg,AMNE07.jpg,MN,1,num_2,32,num_4,0.733454957866,,,2017_Apr_14_1852,60.0115488555,FEMA4ImagesEEG,001,200133,
AFNE01.JPG,AFNE01.JPG,AFNE01.JPG,AFNE01.JPG,AFNE01.JPG,AFNE01.JPG,,,,,2,6,26,0,,,,,,,,,,,,,,,,,,,AMSA06.jpg,AMSA17.jpg,AMNE11.jpg,AMNE07.jpg,AMNE11.jpg,MN,1,num_2,32,num_6,0.516784634769,,,2017_Apr_14_1852,60.0115488555,FEMA4ImagesEEG,001,200133,
AFNE01.JPG,AFNE01.JPG,AFNE01.JPG,AFNE01.JPG,AFNE01.JPG,AFNE01.JPG,,,,,2,7,27,8,,,,,,,,,,,,,,,,,,,AMNE10.jpg,AMSA17.jpg,AMNE14.jpg,AMSA07.jpg,AMNE14.jpg,MN,1,num_2,16,num_2,0.700151581634,,,2017_Apr_14_1852,60.0115488555,FEMA4ImagesEEG,001,200133,
AFNE01.JPG,AFNE01.JPG,AFNE01.JPG,AFNE01.JPG,AFNE01.JPG,AFNE01.JPG,,,,,2,8,28,1,,,,,,,,,,,,,,,,,,,AMNE16.jpg,AMSA14.jpg,AMSA10.jpg,AMNE10.jpg,AMSA10.jpg,MS,2,num_2,32,num_8,0.833459704816,,,2017_Apr_14_1852,60.0115488555,FEMA4ImagesEEG,001,200133,
AFNE01.JPG,AFNE01.JPG,AFNE01.JPG,AFNE01.JPG,AFNE01.JPG,AFNE01.JPG,,,,,2,9,29,9,,,,,,,,,,,,,,,,,,,AMSA05.jpg,AMSA20.jpg,AMNE08.jpg,AMNE19.jpg,AMNE19.jpg,MN,1,num_4,16,num_4,0.966738961419,,,2017_Apr_14_1852,60.0115488555,FEMA4ImagesEEG,001,200133,
AFNE01.JPG,AFNE01.JPG,AFNE01.JPG,AFNE01.JPG,AFNE01.JPG,AFNE01.JPG,,,,,3,0,30,5,,,,,,,,,,,,,,,,,,,AMNE05.jpg,AMSA09.jpg,AMNE18.jpg,AMSA05.jpg,AMSA05.jpg,MS,2,num_4,32,num_8,1.11674544036,,,2017_Apr_14_1852,60.0115488555,FEMA4ImagesEEG,001,200133,
AFNE01.JPG,AFNE01.JPG,AFNE01.JPG,AFNE01.JPG,AFNE01.JPG,AFNE01.JPG,,,,,3,1,31,2,,,,,,,,,,,,,,,,,,,AMSA11.jpg,AMNE06.jpg,AMNE01.jpg,AMSA16.jpg,AMNE01.jpg,MN,1,num_2,32,num_6,0.933413454135,,,2017_Apr_14_1852,60.0115488555,FEMA4ImagesEEG,001,200133,
AFNE01.JPG,AFNE01.JPG,AFNE01.JPG,AFNE01.JPG,AFNE01.JPG,AFNE01.JPG,,,,,3,2,32,6,,,,,,,,,,,,,,,,,,,AMNE07.jpg,AMSA03.jpg,AMNE18.jpg,AMSA17.jpg,AMSA03.jpg,MS,2,num_6,32,num_4,0.616762439575,,,2017_Apr_14_1852,60.0115488555,FEMA4ImagesEEG,001,200133,
AFNE01.JPG,AFNE01.JPG,AFNE01.JPG,AFNE01.JPG,AFNE01.JPG,AFNE01.JPG,,,,,3,3,33,9,,,,,,,,,,,,,,,,,,,AMNE16.jpg,AMSA09.jpg,AMSA18.jpg,AMNE13.jpg,AMNE16.jpg,MN,1,num_8,32,num_6,0.933481771717,,,2017_Apr_14_1852,60.0115488555,FEMA4ImagesEEG,001,200133,
AFNE01.JPG,AFNE01.JPG,AFNE01.JPG,AFNE01.JPG,AFNE01.JPG,AFNE01.JPG,,,,,3,4,34,0,,,,,,,,,,,,,,,,,,,AMNE13.jpg,AMSA08.jpg,AMSA02.jpg,AMNE05.jpg,AMSA02.jpg,MS,2,num_2,16,num_2,1.06675493426,,,2017_Apr_14_1852,60.0115488555,FEMA4ImagesEEG,001,200133,
AFNE01.JPG,AFNE01.JPG,AFNE01.JPG,AFNE01.JPG,AFNE01.JPG,AFNE01.JPG,,,,,3,5,35,7,,,,,,,,,,,,,,,,,,,AMSA03.jpg,AMNE04.jpg,AMNE02.jpg,AMSA17.jpg,AMSA17.jpg,MS,2,num_4,32,num_6,0.849993200318,,,2017_Apr_14_1852,60.0115488555,FEMA4ImagesEEG,001,200133,
AFNE01.JPG,AFNE01.JPG,AFNE01.JPG,AFNE01.JPG,AFNE01.JPG,AFNE01.JPG,,,,,3,6,36,8,,,,,,,,,,,,,,,,,,,AMSA08.jpg,AMNE15.jpg,AMSA19.jpg,AMNE06.jpg,AMNE06.jpg,MN,1,num_4,16,num_4,1.0667600661,,,2017_Apr_14_1852,60.0115488555,FEMA4ImagesEEG,001,200133,
AFNE01.JPG,AFNE01.JPG,AFNE01.JPG,AFNE01.JPG,AFNE01.JPG,AFNE01.JPG,,,,,3,7,37,1,,,,,,,,,,,,,,,,,,,AMNE02.jpg,AMNE15.jpg,AMSA20.jpg,AMSA01.jpg,AMSA20.jpg,MS,2,num_2,32,num_4,1.16681228254,,,2017_Apr_14_1852,60.0115488555,FEMA4ImagesEEG,001,200133,
AFNE01.JPG,AFNE01.JPG,AFNE01.JPG,AFNE01.JPG,AFNE01.JPG,AFNE01.JPG,,,,,3,8,38,3,,,,,,,,,,,,,,,,,,,AMSA16.jpg,AMNE15.jpg,AMNE09.jpg,AMSA15.jpg,AMSA16.jpg,MS,2,num_8,16,num_8,1.11676372253,,,2017_Apr_14_1852,60.0115488555,FEMA4ImagesEEG,001,200133,
AFNE01.JPG,AFNE01.JPG,AFNE01.JPG,AFNE01.JPG,AFNE01.JPG,AFNE01.JPG,,,,,3,9,39,4,,,,,,,,,,,,,,,,,,,AMSA13.jpg,AMNE16.jpg,AMNE11.jpg,AMSA03.jpg,AMSA13.jpg,MS,2,num_8,16,num_8,0.716760130246,,,2017_Apr_14_1852,60.0115488555,FEMA4ImagesEEG,001,200133,
AFNE01.JPG,AFNE01.JPG,AFNE01.JPG,AFNE01.JPG,AFNE01.JPG,AFNE01.JPG,,,,,4,0,40,9,,,,,,,,,,,,,,,,,,,AMSA15.jpg,AMNE12.jpg,AMNE06.jpg,AMSA06.jpg,AMNE12.jpg,MN,1,num_6,16,num_6,0.916646139318,,,2017_Apr_14_1852,60.0115488555,FEMA4ImagesEEG,001,200133,
AFNE01.JPG,AFNE01.JPG,AFNE01.JPG,AFNE01.JPG,AFNE01.JPG,AFNE01.JPG,,,,,4,1,41,4,,,,,,,,,,,,,,,,,,,AMNE03.jpg,AMSA04.jpg,AMSA07.jpg,AMNE14.jpg,AMSA07.jpg,MS,2,num_2,16,num_2,0.983474522996,,,2017_Apr_14_1852,60.0115488555,FEMA4ImagesEEG,001,200133,
AFNE01.JPG,AFNE01.JPG,AFNE01.JPG,AFNE01.JPG,AFNE01.JPG,AFNE01.JPG,,,,,4,2,42,3,,,,,,,,,,,,,,,,,,,AMSA16.jpg,AMSA18.jpg,AMNE20.jpg,AMNE06.jpg,AMSA16.jpg,MS,2,num_8,16,num_8,0.849942844165,,,2017_Apr_14_1852,60.0115488555,FEMA4ImagesEEG,001,200133,
AFNE01.JPG,AFNE01.JPG,AFNE01.JPG,AFNE01.JPG,AFNE01.JPG,AFNE01.JPG,,,,,4,3,43,1,,,,,,,,,,,,,,,,,,,AMNE13.jpg,AMSA15.jpg,AMSA02.jpg,AMNE18.jpg,AMNE13.jpg,MN,1,num_8,32,num_6,1.68338619125,,,2017_Apr_14_1852,60.0115488555,FEMA4ImagesEEG,001,200133,
AFNE01.JPG,AFNE01.JPG,AFNE01.JPG,AFNE01.JPG,AFNE01.JPG,AFNE01.JPG,,,,,4,4,44,0,,,,,,,,,,,,,,,,,,,AMNE17.jpg,AMNE10.jpg,AMSA02.jpg,AMSA03.jpg,AMNE17.jpg,MN,1,num_8,16,num_8,0.716777450194,,,2017_Apr_14_1852,60.0115488555,FEMA4ImagesEEG,001,200133,
AFNE01.JPG,AFNE01.JPG,AFNE01.JPG,AFNE01.JPG,AFNE01.JPG,AFNE01.JPG,,,,,4,5,45,6,,,,,,,,,,,,,,,,,,,AMSA06.jpg,AMNE04.jpg,AMNE15.jpg,AMSA03.jpg,AMSA03.jpg,MS,2,num_4,32,num_6,0.583466761091,,,2017_Apr_14_1852,60.0115488555,FEMA4ImagesEEG,001,200133,
AFNE01.JPG,AFNE01.JPG,AFNE01.JPG,AFNE01.JPG,AFNE01.JPG,AFNE01.JPG,,,,,4,6,46,2,,,,,,,,,,,,,,,,,,,AMNE02.jpg,AMSA17.jpg,AMSA07.jpg,AMNE07.jpg,AMSA17.jpg,MS,2,num_6,32,num_8,0.783380995272,,,2017_Apr_14_1852,60.0115488555,FEMA4ImagesEEG,001,200133,
AFNE01.JPG,AFNE01.JPG,AFNE01.JPG,AFNE01.JPG,AFNE01.JPG,AFNE01.JPG,,,,,4,7,47,7,,,,,,,,,,,,,,,,,,,AMSA18.jpg,AMNE11.jpg,AMNE10.jpg,AMSA03.jpg,AMNE10.jpg,MN,1,num_2,32,num_6,0.950151260891,,,2017_Apr_14_1852,60.0115488555,FEMA4ImagesEEG,001,200133,
AFNE01.JPG,AFNE01.JPG,AFNE01.JPG,AFNE01.JPG,AFNE01.JPG,AFNE01.JPG,,,,,4,8,48,5,,,,,,,,,,,,,,,,,,,AMNE16.jpg,AMSA17.jpg,AMNE15.jpg,AMSA15.jpg,AMNE16.jpg,MN,1,num_8,32,num_2,0.783475613513,,,2017_Apr_14_1852,60.0115488555,FEMA4ImagesEEG,001,200133,
AFNE01.JPG,AFNE01.JPG,AFNE01.JPG,AFNE01.JPG,AFNE01.JPG,AFNE01.JPG,,,,,4,9,49,8,,,,,,,,,,,,,,,,,,,AMNE09.jpg,AMNE20.jpg,AMSA02.jpg,AMSA05.jpg,AMSA02.jpg,MS,2,num_2,32,num_6,2.16666923259,,,2017_Apr_14_1852,60.0115488555,FEMA4ImagesEEG,001,200133,
AFNE01.JPG,AFNE01.JPG,AFNE01.JPG,AFNE01.JPG,AFNE01.JPG,AFNE01.JPG,,,,,5,0,50,0,,,,,,,,,,,,,,,,,,,AMSA15.jpg,AMNE05.jpg,AMNE13.jpg,AMSA02.jpg,AMNE05.jpg,MN,1,num_6,16,num_6,0.766866423419,,,2017_Apr_14_1852,60.0115488555,FEMA4ImagesEEG,001,200133,
AFNE01.JPG,AFNE01.JPG,AFNE01.JPG,AFNE01.JPG,AFNE01.JPG,AFNE01.JPG,,,,,5,1,51,8,,,,,,,,,,,,,,,,,,,AMNE07.jpg,AMNE19.jpg,AMSA06.jpg,AMSA16.jpg,AMNE07.jpg,MN,1,num_8,16,num_8,0.816830949596,,,2017_Apr_14_1852,60.0115488555,FEMA4ImagesEEG,001,200133,
AFNE01.JPG,AFNE01.JPG,AFNE01.JPG,AFNE01.JPG,AFNE01.JPG,AFNE01.JPG,,,,,5,2,52,1,,,,,,,,,,,,,,,,,,,AMNE05.jpg,AMSA11.jpg,AMNE04.jpg,AMSA09.jpg,AMSA09.jpg,MS,2,num_4,32,num_2,0.850137533231,,,2017_Apr_14_1852,60.0115488555,FEMA4ImagesEEG,001,200133,
AFNE01.JPG,AFNE01.JPG,AFNE01.JPG,AFNE01.JPG,AFNE01.JPG,AFNE01.JPG,,,,,5,3,53,4,,,,,,,,,,,,,,,,,,,AMNE01.jpg,AMNE03.jpg,AMSA12.jpg,AMSA18.jpg,AMSA18.jpg,MS,2,num_4,32,num_8,0.966765903562,,,2017_Apr_14_1852,60.0115488555,FEMA4ImagesEEG,001,200133,
AFNE01.JPG,AFNE01.JPG,AFNE01.JPG,AFNE01.JPG,AFNE01.JPG,AFNE01.JPG,,,,,5,4,54,5,,,,,,,,,,,,,,,,,,,AMNE11.jpg,AMSA04.jpg,AMNE17.jpg,AMSA07.jpg,AMSA04.jpg,MS,2,num_6,32,num_2,0.733415186132,,,2017_Apr_14_1852,60.0115488555,FEMA4ImagesEEG,001,200133,
AFNE01.JPG,AFNE01.JPG,AFNE01.JPG,AFNE01.JPG,AFNE01.JPG,AFNE01.JPG,,,,,5,5,55,6,,,,,,,,,,,,,,,,,,,AMSA04.jpg,AMNE10.jpg,AMNE19.jpg,AMSA03.jpg,AMSA03.jpg,MS,2,num_4,32,num_6,0.516788483645,,,2017_Apr_14_1852,60.0115488555,FEMA4ImagesEEG,001,200133,
AFNE01.JPG,AFNE01.JPG,AFNE01.JPG,AFNE01.JPG,AFNE01.JPG,AFNE01.JPG,,,,,5,6,56,2,,,,,,,,,,,,,,,,,,,AMNE01.jpg,AMNE17.jpg,AMSA07.jpg,AMSA19.jpg,AMSA07.jpg,MS,2,num_2,32,num_4,0.56680464893,,,2017_Apr_14_1852,60.0115488555,FEMA4ImagesEEG,001,200133,
AFNE01.JPG,AFNE01.JPG,AFNE01.JPG,AFNE01.JPG,AFNE01.JPG,AFNE01.JPG,,,,,5,7,57,3,,,,,,,,,,,,,,,,,,,AMNE02.jpg,AMSA03.jpg,AMSA10.jpg,AMNE09.jpg,AMNE09.jpg,MN,1,num_4,32,num_6,0.616766288451,,,2017_Apr_14_1852,60.0115488555,FEMA4ImagesEEG,001,200133,
AFNE01.JPG,AFNE01.JPG,AFNE01.JPG,AFNE01.JPG,AFNE01.JPG,AFNE01.JPG,,,,,5,8,58,9,,,,,,,,,,,,,,,,,,,AMSA07.jpg,AMNE06.jpg,AMNE07.jpg,AMSA08.jpg,AMSA07.jpg,MS,2,num_8,16,num_8,0.933410567479,,,2017_Apr_14_1852,60.0115488555,FEMA4ImagesEEG,001,200133,
AFNE01.JPG,AFNE01.JPG,AFNE01.JPG,AFNE01.JPG,AFNE01.JPG,AFNE01.JPG,,,,,5,9,59,7,,,,,,,,,,,,,,,,,,,AMSA09.jpg,AMSA10.jpg,AMNE04.jpg,AMNE03.jpg,AMSA09.jpg,MS,2,num_8,32,num_2,0.933439113323,,,2017_Apr_14_1852,60.0115488555,FEMA4ImagesEEG,001,200133,
,,,,,,,,,,,,,,,,,,,,,,,,,,,,,,,,,,,,,,,,,,,space,28.7648387064,2017_Apr_14_1852,60.0115488555,FEMA4ImagesEEG,001,200133,
AFNE01.JPG,AFNE01.JPG,AFNE01.JPG,AFNE01.JPG,AFNE01.JPG,AFNE01.JPG,,,,,,,,,0,0,0,4,,,,,,,,,,,,,,,AFSA03.jpg,AFNE15.jpg,AFSA10.jpg,AFNE01.jpg,AFSA03.jpg,FS,4,num_8,16,num_8,0.850159343536,,,2017_Apr_14_1852,60.0115488555,FEMA4ImagesEEG,001,200133,
AFNE01.JPG,AFNE01.JPG,AFNE01.JPG,AFNE01.JPG,AFNE01.JPG,AFNE01.JPG,,,,,,,,,0,1,1,2,,,,,,,,,,,,,,,AFSA10.jpg,AFNE07.jpg,AFSA08.jpg,AFNE02.jpg,AFSA10.jpg,FS,4,num_8,32,num_2,1.15009243721,,,2017_Apr_14_1852,60.0115488555,FEMA4ImagesEEG,001,200133,
AFNE01.JPG,AFNE01.JPG,AFNE01.JPG,AFNE01.JPG,AFNE01.JPG,AFNE01.JPG,,,,,,,,,0,2,2,5,,,,,,,,,,,,,,,AFNE20.jpg,AFSA10.jpg,AFSA17.jpg,AFNE11.jpg,AFNE11.jpg,FN,3,num_4,32,num_8,0.80010982131,,,2017_Apr_14_1852,60.0115488555,FEMA4ImagesEEG,001,200133,
AFNE01.JPG,AFNE01.JPG,AFNE01.JPG,AFNE01.JPG,AFNE01.JPG,AFNE01.JPG,,,,,,,,,0,3,3,6,,,,,,,,,,,,,,,AFNE16.jpg,AFNE20.jpg,AFSA06.jpg,AFSA16.jpg,AFSA16.jpg,FS,4,num_4,16,num_4,0.449870934302,,,2017_Apr_14_1852,60.0115488555,FEMA4ImagesEEG,001,200133,
AFNE01.JPG,AFNE01.JPG,AFNE01.JPG,AFNE01.JPG,AFNE01.JPG,AFNE01.JPG,,,,,,,,,0,4,4,8,,,,,,,,,,,,,,,AFNE20.jpg,AFNE03.jpg,AFSA08.jpg,AFSA09.jpg,AFNE20.jpg,FN,3,num_8,16,num_8,0.750168709139,,,2017_Apr_14_1852,60.0115488555,FEMA4ImagesEEG,001,200133,
AFNE01.JPG,AFNE01.JPG,AFNE01.JPG,AFNE01.JPG,AFNE01.JPG,AFNE01.JPG,,,,,,,,,0,5,5,9,,,,,,,,,,,,,,,AFNE06.jpg,AFSA20.jpg,AFNE19.jpg,AFSA18.jpg,AFSA20.jpg,FS,4,num_6,32,num_2,0.383493190049,,,2017_Apr_14_1852,60.0115488555,FEMA4ImagesEEG,001,200133,
AFNE01.JPG,AFNE01.JPG,AFNE01.JPG,AFNE01.JPG,AFNE01.JPG,AFNE01.JPG,,,,,,,,,0,6,6,1,,,,,,,,,,,,,,,AFNE02.jpg,AFNE06.jpg,AFSA13.jpg,AFSA01.jpg,AFSA01.jpg,FS,4,num_4,16,num_4,0.316978489904,,,2017_Apr_14_1852,60.0115488555,FEMA4ImagesEEG,001,200133,
AFNE01.JPG,AFNE01.JPG,AFNE01.JPG,AFNE01.JPG,AFNE01.JPG,AFNE01.JPG,,,,,,,,,0,7,7,7,,,,,,,,,,,,,,,AFSA09.jpg,AFSA07.jpg,AFNE16.jpg,AFNE01.jpg,AFNE01.jpg,FN,3,num_4,32,num_8,0.733446618633,,,2017_Apr_14_1852,60.0115488555,FEMA4ImagesEEG,001,200133,
AFNE01.JPG,AFNE01.JPG,AFNE01.JPG,AFNE01.JPG,AFNE01.JPG,AFNE01.JPG,,,,,,,,,0,8,8,3,,,,,,,,,,,,,,,AFNE09.jpg,AFSA01.jpg,AFSA15.jpg,AFNE04.jpg,AFSA01.jpg,FS,4,num_6,32,num_8,0.816767443113,,,2017_Apr_14_1852,60.0115488555,FEMA4ImagesEEG,001,200133,
AFNE01.JPG,AFNE01.JPG,AFNE01.JPG,AFNE01.JPG,AFNE01.JPG,AFNE01.JPG,,,,,,,,,0,9,9,0,,,,,,,,,,,,,,,AFNE05.jpg,AFNE01.jpg,AFSA07.jpg,AFSA08.jpg,AFSA08.jpg,FS,4,num_4,16,num_4,0.500152672146,,,2017_Apr_14_1852,60.0115488555,FEMA4ImagesEEG,001,200133,
AFNE01.JPG,AFNE01.JPG,AFNE01.JPG,AFNE01.JPG,AFNE01.JPG,AFNE01.JPG,,,,,,,,,1,0,10,0,,,,,,,,,,,,,,,AFSA18.jpg,AFNE13.jpg,AFSA06.jpg,AFNE03.jpg,AFSA18.jpg,FS,4,num_8,32,num_6,0.566617336885,,,2017_Apr_14_1852,60.0115488555,FEMA4ImagesEEG,001,200133,
AFNE01.JPG,AFNE01.JPG,AFNE01.JPG,AFNE01.JPG,AFNE01.JPG,AFNE01.JPG,,,,,,,,,1,1,11,4,,,,,,,,,,,,,,,AFSA06.jpg,AFSA12.jpg,AFNE03.jpg,AFNE05.jpg,AFSA06.jpg,FS,4,num_8,16,num_8,1.01674293859,,,2017_Apr_14_1852,60.0115488555,FEMA4ImagesEEG,001,200133,
AFNE01.JPG,AFNE01.JPG,AFNE01.JPG,AFNE01.JPG,AFNE01.JPG,AFNE01.JPG,,,,,,,,,1,2,12,3,,,,,,,,,,,,,,,AFNE02.jpg,AFNE03.jpg,AFSA09.jpg,AFSA11.jpg,AFNE03.jpg,FN,3,num_6,32,num_2,0.666806829962,,,2017_Apr_14_1852,60.0115488555,FEMA4ImagesEEG,001,200133,
AFNE01.JPG,AFNE01.JPG,AFNE01.JPG,AFNE01.JPG,AFNE01.JPG,AFNE01.JPG,,,,,,,,,1,3,13,2,,,,,,,,,,,,,,,AFSA08.jpg,AFSA07.jpg,AFNE13.jpg,AFNE08.jpg,AFSA07.jpg,FS,4,num_6,32,num_8,0.783502234914,,,2017_Apr_14_1852,60.0115488555,FEMA4ImagesEEG,001,200133,
AFNE01.JPG,AFNE01.JPG,AFNE01.JPG,AFNE01.JPG,AFNE01.JPG,AFNE01.JPG,,,,,,,,,1,4,14,7,,,,,,,,,,,,,,,AFSA09.jpg,AFNE17.jpg,AFSA18.jpg,AFNE08.jpg,AFNE08.jpg,FN,3,num_4,16,num_4,0.400162358488,,,2017_Apr_14_1852,60.0115488555,FEMA4ImagesEEG,001,200133,
AFNE01.JPG,AFNE01.JPG,AFNE01.JPG,AFNE01.JPG,AFNE01.JPG,AFNE01.JPG,,,,,,,,,1,5,15,5,,,,,,,,,,,,,,,AFNE19.jpg,AFNE05.jpg,AFSA07.jpg,AFSA01.jpg,AFNE05.jpg,FN,3,num_6,16,num_6,0.466491991767,,,2017_Apr_14_1852,60.0115488555,FEMA4ImagesEEG,001,200133,
AFNE01.JPG,AFNE01.JPG,AFNE01.JPG,AFNE01.JPG,AFNE01.JPG,AFNE01.JPG,,,,,,,,,1,6,16,1,,,,,,,,,,,,,,,AFSA10.jpg,AFNE03.jpg,AFNE10.jpg,AFSA13.jpg,AFNE10.jpg,FN,3,num_2,32,num_8,0.750110655234,,,2017_Apr_14_1852,60.0115488555,FEMA4ImagesEEG,001,200133,
AFNE01.JPG,AFNE01.JPG,AFNE01.JPG,AFNE01.JPG,AFNE01.JPG,AFNE01.JPG,,,,,,,,,1,7,17,8,,,,,,,,,,,,,,,AFNE08.jpg,AFSA06.jpg,AFNE18.jpg,AFSA01.jpg,AFSA06.jpg,FS,4,num_6,32,num_4,0.750132786281,,,2017_Apr_14_1852,60.0115488555,FEMA4ImagesEEG,001,200133,
AFNE01.JPG,AFNE01.JPG,AFNE01.JPG,AFNE01.JPG,AFNE01.JPG,AFNE01.JPG,,,,,,,,,1,8,18,9,,,,,,,,,,,,,,,AFSA02.jpg,AFNE20.jpg,AFSA12.jpg,AFNE02.jpg,AFSA12.jpg,FS,4,num_2,16,num_2,1.28344706767,,,2017_Apr_14_1852,60.0115488555,FEMA4ImagesEEG,001,200133,
AFNE01.JPG,AFNE01.JPG,AFNE01.JPG,AFNE01.JPG,AFNE01.JPG,AFNE01.JPG,,,,,,,,,1,9,19,6,,,,,,,,,,,,,,,AFNE15.jpg,AFSA12.jpg,AFSA05.jpg,AFNE17.jpg,AFSA12.jpg,FS,4,num_6,16,num_6,0.600135608791,,,2017_Apr_14_1852,60.0115488555,FEMA4ImagesEEG,001,200133,
AFNE01.JPG,AFNE01.JPG,AFNE01.JPG,AFNE01.JPG,AFNE01.JPG,AFNE01.JPG,,,,,,,,,2,0,20,3,,,,,,,,,,,,,,,AFSA15.jpg,AFNE19.jpg,AFSA18.jpg,AFNE14.jpg,AFSA15.jpg,FS,4,num_8,16,num_8,0.533470160935,,,2017_Apr_14_1852,60.0115488555,FEMA4ImagesEEG,001,200133,
AFNE01.JPG,AFNE01.JPG,AFNE01.JPG,AFNE01.JPG,AFNE01.JPG,AFNE01.JPG,,,,,,,,,2,1,21,8,,,,,,,,,,,,,,,AFNE07.jpg,AFNE09.jpg,AFSA03.jpg,AFSA17.jpg,AFSA03.jpg,FS,4,num_2,32,num_4,0.96671907555,,,2017_Apr_14_1852,60.0115488555,FEMA4ImagesEEG,001,200133,
AFNE01.JPG,AFNE01.JPG,AFNE01.JPG,AFNE01.JPG,AFNE01.JPG,AFNE01.JPG,,,,,,,,,2,2,22,5,,,,,,,,,,,,,,,AFSA08.jpg,AFNE16.jpg,AFNE12.jpg,AFSA03.jpg,AFSA03.jpg,FS,4,num_4,32,num_8,0.783470802413,,,2017_Apr_14_1852,60.0115488555,FEMA4ImagesEEG,001,200133,
AFNE01.JPG,AFNE01.JPG,AFNE01.JPG,AFNE01.JPG,AFNE01.JPG,AFNE01.JPG,,,,,,,,,2,3,23,9,,,,,,,,,,,,,,,AFSA02.jpg,AFSA01.jpg,AFNE14.jpg,AFNE17.jpg,AFNE14.jpg,FN,3,num_2,32,num_6,0.666802018866,,,2017_Apr_14_1852,60.0115488555,FEMA4ImagesEEG,001,200133,
AFNE01.JPG,AFNE01.JPG,AFNE01.JPG,AFNE01.JPG,AFNE01.JPG,AFNE01.JPG,,,,,,,,,2,4,24,6,,,,,,,,,,,,,,,AFSA03.jpg,AFNE02.jpg,AFSA19.jpg,AFNE17.jpg,AFSA19.jpg,FS,4,num_2,32,num_4,0.81677482013,,,2017_Apr_14_1852,60.0115488555,FEMA4ImagesEEG,001,200133,
AFNE01.JPG,AFNE01.JPG,AFNE01.JPG,AFNE01.JPG,AFNE01.JPG,AFNE01.JPG,,,,,,,,,2,5,25,4,,,,,,,,,,,,,,,AFSA02.jpg,AFNE05.jpg,AFNE11.jpg,AFSA04.jpg,AFNE05.jpg,FN,3,num_6,32,num_4,0.633488058214,,,2017_Apr_14_1852,60.0115488555,FEMA4ImagesEEG,001,200133,
AFNE01.JPG,AFNE01.JPG,AFNE01.JPG,AFNE01.JPG,AFNE01.JPG,AFNE01.JPG,,,,,,,,,2,6,26,0,,,,,,,,,,,,,,,AFNE10.jpg,AFSA19.jpg,AFSA07.jpg,AFNE16.jpg,AFSA19.jpg,FS,4,num_6,32,num_8,0.583524494257,,,2017_Apr_14_1852,60.0115488555,FEMA4ImagesEEG,001,200133,
AFNE01.JPG,AFNE01.JPG,AFNE01.JPG,AFNE01.JPG,AFNE01.JPG,AFNE01.JPG,,,,,,,,,2,7,27,7,,,,,,,,,,,,,,,AFNE03.jpg,AFNE15.jpg,AFSA01.jpg,AFSA07.jpg,AFSA07.jpg,FS,4,num_4,32,num_2,0.983459127485,,,2017_Apr_14_1852,60.0115488555,FEMA4ImagesEEG,001,200133,
AFNE01.JPG,AFNE01.JPG,AFNE01.JPG,AFNE01.JPG,AFNE01.JPG,AFNE01.JPG,,,,,,,,,2,8,28,2,,,,,,,,,,,,,,,AFNE08.jpg,AFSA02.jpg,AFNE09.jpg,AFSA13.jpg,AFNE09.jpg,FN,3,num_2,32,num_4,0.700160562348,,,2017_Apr_14_1852,60.0115488555,FEMA4ImagesEEG,001,200133,
AFNE01.JPG,AFNE01.JPG,AFNE01.JPG,AFNE01.JPG,AFNE01.JPG,AFNE01.JPG,,,,,,,,,2,9,29,1,,,,,,,,,,,,,,,AFSA14.jpg,AFNE11.jpg,AFSA01.jpg,AFNE01.jpg,AFSA14.jpg,FS,4,num_8,32,num_2,1.3500583105,,,2017_Apr_14_1852,60.0115488555,FEMA4ImagesEEG,001,200133,
AFNE01.JPG,AFNE01.JPG,AFNE01.JPG,AFNE01.JPG,AFNE01.JPG,AFNE01.JPG,,,,,,,,,3,0,30,5,,,,,,,,,,,,,,,AFNE19.jpg,AFSA12.jpg,AFSA18.jpg,AFNE16.jpg,AFNE19.jpg,FN,3,num_8,32,num_4,0.70007267964,,,2017_Apr_14_1852,60.0115488555,FEMA4ImagesEEG,001,200133,
AFNE01.JPG,AFNE01.JPG,AFNE01.JPG,AFNE01.JPG,AFNE01.JPG,AFNE01.JPG,,,,,,,,,3,1,31,6,,,,,,,,,,,,,,,AFNE19.jpg,AFNE08.jpg,AFSA03.jpg,AFSA11.jpg,AFNE19.jpg,FN,3,num_8,16,num_8,0.566838647352,,,2017_Apr_14_1852,60.0115488555,FEMA4ImagesEEG,001,200133,
AFNE01.JPG,AFNE01.JPG,AFNE01.JPG,AFNE01.JPG,AFNE01.JPG,AFNE01.JPG,,,,,,,,,3,2,32,1,,,,,,,,,,,,,,,AFSA13.jpg,AFSA06.jpg,AFNE12.jpg,AFNE17.jpg,AFNE17.jpg,FN,3,num_4,32,num_8,3.31656666,,,2017_Apr_14_1852,60.0115488555,FEMA4ImagesEEG,001,200133,
AFNE01.JPG,AFNE01.JPG,AFNE01.JPG,AFNE01.JPG,AFNE01.JPG,AFNE01.JPG,,,,,,,,,3,3,33,8,,,,,,,,,,,,,,,AFSA03.jpg,AFNE11.jpg,AFSA20.jpg,AFNE06.jpg,AFSA03.jpg,FS,4,num_8,32,num_6,0.483473560776,,,2017_Apr_14_1852,60.0115488555,FEMA4ImagesEEG,001,200133,
AFNE01.JPG,AFNE01.JPG,AFNE01.JPG,AFNE01.JPG,AFNE01.JPG,AFNE01.JPG,,,,,,,,,3,4,34,7,,,,,,,,,,,,,,,AFSA19.jpg,AFNE12.jpg,AFSA07.jpg,AFNE02.jpg,AFNE02.jpg,FN,3,num_4,32,num_2,0.516789445865,,,2017_Apr_14_1852,60.0115488555,FEMA4ImagesEEG,001,200133,
AFNE01.JPG,AFNE01.JPG,AFNE01.JPG,AFNE01.JPG,AFNE01.JPG,AFNE01.JPG,,,,,,,,,3,5,35,2,,,,,,,,,,,,,,,AFNE07.jpg,AFSA02.jpg,AFNE06.jpg,AFSA08.jpg,AFSA02.jpg,FS,4,num_6,16,num_6,0.400186413975,,,2017_Apr_14_1852,60.0115488555,FEMA4ImagesEEG,001,200133,
AFNE01.JPG,AFNE01.JPG,AFNE01.JPG,AFNE01.JPG,AFNE01.JPG,AFNE01.JPG,,,,,,,,,3,6,36,0,,,,,,,,,,,,,,,AFNE10.jpg,AFNE01.jpg,AFSA03.jpg,AFSA19.jpg,AFSA19.jpg,FS,4,num_4,32,num_8,1.10021162413,,,2017_Apr_14_1852,60.0115488555,FEMA4ImagesEEG,001,200133,
AFNE01.JPG,AFNE01.JPG,AFNE01.JPG,AFNE01.JPG,AFNE01.JPG,AFNE01.JPG,,,,,,,,,3,7,37,9,,,,,,,,,,,,,,,AFSA05.jpg,AFSA06.jpg,AFNE12.jpg,AFNE16.jpg,AFNE16.jpg,FN,3,num_4,16,num_4,0.533460218001,,,2017_Apr_14_1852,60.0115488555,FEMA4ImagesEEG,001,200133,
AFNE01.JPG,AFNE01.JPG,AFNE01.JPG,AFNE01.JPG,AFNE01.JPG,AFNE01.JPG,,,,,,,,,3,8,38,3,,,,,,,,,,,,,,,AFSA04.jpg,AFNE20.jpg,AFNE05.jpg,AFSA10.jpg,AFNE05.jpg,FN,3,num_2,32,num_6,0.600117968101,,,2017_Apr_14_1852,60.0115488555,FEMA4ImagesEEG,001,200133,
AFNE01.JPG,AFNE01.JPG,AFNE01.JPG,AFNE01.JPG,AFNE01.JPG,AFNE01.JPG,,,,,,,,,3,9,39,4,,,,,,,,,,,,,,,AFSA04.jpg,AFNE04.jpg,AFSA15.jpg,AFNE11.jpg,AFNE11.jpg,FN,3,num_4,32,num_8,0.750157483246,,,2017_Apr_14_1852,60.0115488555,FEMA4ImagesEEG,001,200133,
AFNE01.JPG,AFNE01.JPG,AFNE01.JPG,AFNE01.JPG,AFNE01.JPG,AFNE01.JPG,,,,,,,,,4,0,40,3,,,,,,,,,,,,,,,AFSA04.jpg,AFNE03.jpg,AFSA19.jpg,AFNE10.jpg,AFSA04.jpg,FS,4,num_8,32,num_6,0.566771612732,,,2017_Apr_14_1852,60.0115488555,FEMA4ImagesEEG,001,200133,
AFNE01.JPG,AFNE01.JPG,AFNE01.JPG,AFNE01.JPG,AFNE01.JPG,AFNE01.JPG,,,,,,,,,4,1,41,8,,,,,,,,,,,,,,,AFSA13.jpg,AFNE09.jpg,AFNE19.jpg,AFSA19.jpg,AFNE09.jpg,FN,3,num_6,32,num_8,0.700124960229,,,2017_Apr_14_1852,60.0115488555,FEMA4ImagesEEG,001,200133,
AFNE01.JPG,AFNE01.JPG,AFNE01.JPG,AFNE01.JPG,AFNE01.JPG,AFNE01.JPG,,,,,,,,,4,2,42,5,,,,,,,,,,,,,,,AFNE05.jpg,AFNE07.jpg,AFSA07.jpg,AFSA11.jpg,AFNE07.jpg,FN,3,num_6,32,num_2,0.916788547795,,,2017_Apr_14_1852,60.0115488555,FEMA4ImagesEEG,001,200133,
AFNE01.JPG,AFNE01.JPG,AFNE01.JPG,AFNE01.JPG,AFNE01.JPG,AFNE01.JPG,,,,,,,,,4,3,43,2,,,,,,,,,,,,,,,AFNE18.jpg,AFSA11.jpg,AFSA14.jpg,AFNE14.jpg,AFSA14.jpg,FS,4,num_2,32,num_8,0.883566960209,,,2017_Apr_14_1852,60.0115488555,FEMA4ImagesEEG,001,200133,
AFNE01.JPG,AFNE01.JPG,AFNE01.JPG,AFNE01.JPG,AFNE01.JPG,AFNE01.JPG,,,,,,,,,4,4,44,9,,,,,,,,,,,,,,,AFNE13.jpg,AFNE16.jpg,AFSA13.jpg,AFSA06.jpg,AFNE13.jpg,FN,3,num_8,32,num_6,0.533474651293,,,2017_Apr_14_1852,60.0115488555,FEMA4ImagesEEG,001,200133,
AFNE01.JPG,AFNE01.JPG,AFNE01.JPG,AFNE01.JPG,AFNE01.JPG,AFNE01.JPG,,,,,,,,,4,5,45,4,,,,,,,,,,,,,,,AFSA20.jpg,AFSA09.jpg,AFNE13.jpg,AFNE12.jpg,AFNE12.jpg,FN,3,num_4,16,num_4,0.733535142819,,,2017_Apr_14_1852,60.0115488555,FEMA4ImagesEEG,001,200133,
AFNE01.JPG,AFNE01.JPG,AFNE01.JPG,AFNE01.JPG,AFNE01.JPG,AFNE01.JPG,,,,,,,,,4,6,46,1,,,,,,,,,,,,,,,AFNE09.jpg,AFSA07.jpg,AFNE08.jpg,AFSA01.jpg,AFSA01.jpg,FS,4,num_4,32,num_6,0.416802660344,,,2017_Apr_14_1852,60.0115488555,FEMA4ImagesEEG,001,200133,
AFNE01.JPG,AFNE01.JPG,AFNE01.JPG,AFNE01.JPG,AFNE01.JPG,AFNE01.JPG,,,,,,,,,4,7,47,7,,,,,,,,,,,,,,,AFNE10.jpg,AFSA07.jpg,AFNE06.jpg,AFSA15.jpg,AFSA15.jpg,FS,4,num_4,16,num_4,0.600194304174,,,2017_Apr_14_1852,60.0115488555,FEMA4ImagesEEG,001,200133,
AFNE01.JPG,AFNE01.JPG,AFNE01.JPG,AFNE01.JPG,AFNE01.JPG,AFNE01.JPG,,,,,,,,,4,8,48,6,,,,,,,,,,,,,,,AFSA05.jpg,AFNE02.jpg,AFSA18.jpg,AFNE14.jpg,AFSA18.jpg,FS,4,num_2,16,num_2,0.666764492307,,,2017_Apr_14_1852,60.0115488555,FEMA4ImagesEEG,001,200133,
AFNE01.JPG,AFNE01.JPG,AFNE01.JPG,AFNE01.JPG,AFNE01.JPG,AFNE01.JPG,,,,,,,,,4,9,49,0,,,,,,,,,,,,,,,AFSA04.jpg,AFNE04.jpg,AFNE12.jpg,AFSA08.jpg,AFSA08.jpg,FS,4,num_4,32,num_6,0.68346252733,,,2017_Apr_14_1852,60.0115488555,FEMA4ImagesEEG,001,200133,
AFNE01.JPG,AFNE01.JPG,AFNE01.JPG,AFNE01.JPG,AFNE01.JPG,AFNE01.JPG,,,,,,,,,5,0,50,9,,,,,,,,,,,,,,,AFNE04.jpg,AFSA01.jpg,AFSA02.jpg,AFNE14.jpg,AFNE14.jpg,FN,3,num_4,16,num_4,0.533465991317,,,2017_Apr_14_1852,60.0115488555,FEMA4ImagesEEG,001,200133,
AFNE01.JPG,AFNE01.JPG,AFNE01.JPG,AFNE01.JPG,AFNE01.JPG,AFNE01.JPG,,,,,,,,,5,1,51,8,,,,,,,,,,,,,,,AFNE06.jpg,AFSA10.jpg,AFNE08.jpg,AFSA12.jpg,AFNE08.jpg,FN,3,num_2,32,num_8,0.583452007064,,,2017_Apr_14_1852,60.0115488555,FEMA4ImagesEEG,001,200133,
AFNE01.JPG,AFNE01.JPG,AFNE01.JPG,AFNE01.JPG,AFNE01.JPG,AFNE01.JPG,,,,,,,,,5,2,52,1,,,,,,,,,,,,,,,AFSA17.jpg,AFNE13.jpg,AFSA13.jpg,AFNE18.jpg,AFSA13.jpg,FS,4,num_2,32,num_6,0.766800671758,,,2017_Apr_14_1852,60.0115488555,FEMA4ImagesEEG,001,200133,
AFNE01.JPG,AFNE01.JPG,AFNE01.JPG,AFNE01.JPG,AFNE01.JPG,AFNE01.JPG,,,,,,,,,5,3,53,4,,,,,,,,,,,,,,,AFNE15.jpg,AFSA19.jpg,AFNE19.jpg,AFSA08.jpg,AFSA19.jpg,FS,4,num_6,32,num_4,0.900126756369,,,2017_Apr_14_1852,60.0115488555,FEMA4ImagesEEG,001,200133,
AFNE01.JPG,AFNE01.JPG,AFNE01.JPG,AFNE01.JPG,AFNE01.JPG,AFNE01.JPG,,,,,,,,,5,4,54,6,,,,,,,,,,,,,,,AFNE07.jpg,AFSA17.jpg,AFSA08.jpg,AFNE14.jpg,AFNE07.jpg,FN,3,num_8,32,num_6,0.53342974772,,,2017_Apr_14_1852,60.0115488555,FEMA4ImagesEEG,001,200133,
AFNE01.JPG,AFNE01.JPG,AFNE01.JPG,AFNE01.JPG,AFNE01.JPG,AFNE01.JPG,,,,,,,,,5,5,55,3,,,,,,,,,,,,,,,AFNE20.jpg,AFNE12.jpg,AFSA05.jpg,AFSA01.jpg,AFNE12.jpg,FN,3,num_6,32,num_8,0.516791049562,,,2017_Apr_14_1852,60.0115488555,FEMA4ImagesEEG,001,200133,
AFNE01.JPG,AFNE01.JPG,AFNE01.JPG,AFNE01.JPG,AFNE01.JPG,AFNE01.JPG,,,,,,,,,5,6,56,2,,,,,,,,,,,,,,,AFNE02.jpg,AFNE20.jpg,AFSA08.jpg,AFSA19.jpg,AFSA19.jpg,FS,4,num_4,16,num_4,0.466814014537,,,2017_Apr_14_1852,60.0115488555,FEMA4ImagesEEG,001,200133,
AFNE01.JPG,AFNE01.JPG,AFNE01.JPG,AFNE01.JPG,AFNE01.JPG,AFNE01.JPG,,,,,,,,,5,7,57,0,,,,,,,,,,,,,,,AFSA04.jpg,AFNE07.jpg,AFNE13.jpg,AFSA16.jpg,AFNE13.jpg,FN,3,num_2,32,num_6,0.683483054676,,,2017_Apr_14_1852,60.0115488555,FEMA4ImagesEEG,001,200133,
AFNE01.JPG,AFNE01.JPG,AFNE01.JPG,AFNE01.JPG,AFNE01.JPG,AFNE01.JPG,,,,,,,,,5,8,58,5,,,,,,,,,,,,,,,AFNE01.jpg,AFNE02.jpg,AFSA20.jpg,AFSA15.jpg,AFNE01.jpg,FN,3,num_8,16,num_8,0.883431928753,,,2017_Apr_14_1852,60.0115488555,FEMA4ImagesEEG,001,200133,
AFNE01.JPG,AFNE01.JPG,AFNE01.JPG,AFNE01.JPG,AFNE01.JPG,AFNE01.JPG,,,,,,,,,5,9,59,7,,,,,,,,,,,,,,,AFNE16.jpg,AFNE15.jpg,AFSA11.jpg,AFSA08.jpg,AFNE16.jpg,FN,3,num_8,16,num_8,0.616771420286,,,2017_Apr_14_1852,60.0115488555,FEMA4ImagesEEG,001,200133,
,,,,,,,,,,,,,,,,,,,,,,,,,,,,,,,,,,,,,,,,,,,space,8.53281585173,2017_Apr_14_1852,60.0115488555,FEMA4ImagesEEG,001,200133,
AFNE01.JPG,AFNE01.JPG,AFNE01.JPG,AFNE01.JPG,AFNE01.JPG,AFNE01.JPG,,,,,,,,,,,,,0,0,0,1,,,,,,,,,,,AMNE01.jpg,AMSA06.jpg,AMNE20.jpg,AMSA02.jpg,AMNE20.jpg,MN,1,num_2,16,num_2,1.05007646437,,,2017_Apr_14_1852,60.0115488555,FEMA4ImagesEEG,001,200133,
AFNE01.JPG,AFNE01.JPG,AFNE01.JPG,AFNE01.JPG,AFNE01.JPG,AFNE01.JPG,,,,,,,,,,,,,0,1,1,5,,,,,,,,,,,AMSA09.jpg,AMNE02.jpg,AMNE10.jpg,AMSA14.jpg,AMNE10.jpg,MN,1,num_2,32,num_8,0.750205914956,,,2017_Apr_14_1852,60.0115488555,FEMA4ImagesEEG,001,200133,
AFNE01.JPG,AFNE01.JPG,AFNE01.JPG,AFNE01.JPG,AFNE01.JPG,AFNE01.JPG,,,,,,,,,,,,,0,2,2,0,,,,,,,,,,,AMSA17.jpg,AMNE20.jpg,AMNE18.jpg,AMSA09.jpg,AMSA09.jpg,MS,2,num_4,32,num_6,0.46679990198,,,2017_Apr_14_1852,60.0115488555,FEMA4ImagesEEG,001,200133,
AFNE01.JPG,AFNE01.JPG,AFNE01.JPG,AFNE01.JPG,AFNE01.JPG,AFNE01.JPG,,,,,,,,,,,,,0,3,3,4,,,,,,,,,,,AMSA16.jpg,AMSA19.jpg,AMNE20.jpg,AMNE02.jpg,AMNE20.jpg,MN,1,num_2,32,num_4,1.45006177449,,,2017_Apr_14_1852,60.0115488555,FEMA4ImagesEEG,001,200133,
AFNE01.JPG,AFNE01.JPG,AFNE01.JPG,AFNE01.JPG,AFNE01.JPG,AFNE01.JPG,,,,,,,,,,,,,0,4,4,6,,,,,,,,,,,AMNE13.jpg,AMNE04.jpg,AMSA17.jpg,AMSA08.jpg,AMNE04.jpg,MN,1,num_6,16,num_6,0.466835824842,,,2017_Apr_14_1852,60.0115488555,FEMA4ImagesEEG,001,200133,
AFNE01.JPG,AFNE01.JPG,AFNE01.JPG,AFNE01.JPG,AFNE01.JPG,AFNE01.JPG,,,,,,,,,,,,,0,5,5,3,,,,,,,,,,,AMNE12.jpg,AMSA15.jpg,AMSA19.jpg,AMNE10.jpg,AMSA19.jpg,MS,2,num_2,16,num_2,0.750136635157,,,2017_Apr_14_1852,60.0115488555,FEMA4ImagesEEG,001,200133,
AFNE01.JPG,AFNE01.JPG,AFNE01.JPG,AFNE01.JPG,AFNE01.JPG,AFNE01.JPG,,,,,,,,,,,,,0,6,6,8,,,,,,,,,,,AMSA16.jpg,AMNE06.jpg,AMSA20.jpg,AMNE12.jpg,AMSA16.jpg,MS,2,num_8,16,num_8,1.18340286972,,,2017_Apr_14_1852,60.0115488555,FEMA4ImagesEEG,001,200133,
AFNE01.JPG,AFNE01.JPG,AFNE01.JPG,AFNE01.JPG,AFNE01.JPG,AFNE01.JPG,,,,,,,,,,,,,0,7,7,9,,,,,,,,,,,AMSA11.jpg,AMSA06.jpg,AMNE04.jpg,AMNE20.jpg,AMNE04.jpg,MN,1,num_2,16,num_2,0.93340736008,,,2017_Apr_14_1852,60.0115488555,FEMA4ImagesEEG,001,200133,
AFNE01.JPG,AFNE01.JPG,AFNE01.JPG,AFNE01.JPG,AFNE01.JPG,AFNE01.JPG,,,,,,,,,,,,,0,8,8,7,,,,,,,,,,,AMSA05.jpg,AMNE16.jpg,AMSA01.jpg,AMNE18.jpg,AMSA05.jpg,MS,2,num_8,16,num_8,0.700259991685,,,2017_Apr_14_1852,60.0115488555,FEMA4ImagesEEG,001,200133,
AFNE01.JPG,AFNE01.JPG,AFNE01.JPG,AFNE01.JPG,AFNE01.JPG,AFNE01.JPG,,,,,,,,,,,,,0,9,9,2,,,,,,,,,,,AMSA13.jpg,AMSA09.jpg,AMNE13.jpg,AMNE04.jpg,AMSA09.jpg,MS,2,num_6,32,num_2,0.450174033416,,,2017_Apr_14_1852,60.0115488555,FEMA4ImagesEEG,001,200133,
AFNE01.JPG,AFNE01.JPG,AFNE01.JPG,AFNE01.JPG,AFNE01.JPG,AFNE01.JPG,,,,,,,,,,,,,1,0,10,5,,,,,,,,,,,AMSA03.jpg,AMNE10.jpg,AMSA12.jpg,AMNE18.jpg,AMNE10.jpg,MN,1,num_6,16,num_6,0.400161075529,,,2017_Apr_14_1852,60.0115488555,FEMA4ImagesEEG,001,200133,
AFNE01.JPG,AFNE01.JPG,AFNE01.JPG,AFNE01.JPG,AFNE01.JPG,AFNE01.JPG,,,,,,,,,,,,,1,1,11,4,,,,,,,,,,,AMNE17.jpg,AMSA01.jpg,AMNE18.jpg,AMSA14.jpg,AMNE17.jpg,MN,1,num_8,32,num_4,0.583512306144,,,2017_Apr_14_1852,60.0115488555,FEMA4ImagesEEG,001,200133,
AFNE01.JPG,AFNE01.JPG,AFNE01.JPG,AFNE01.JPG,AFNE01.JPG,AFNE01.JPG,,,,,,,,,,,,,1,2,12,3,,,,,,,,,,,AMSA02.jpg,AMNE03.jpg,AMSA01.jpg,AMNE15.jpg,AMSA01.jpg,MS,2,num_2,32,num_8,1.01659411532,,,2017_Apr_14_1852,60.0115488555,FEMA4ImagesEEG,001,200133,
AFNE01.JPG,AFNE01.JPG,AFNE01.JPG,AFNE01.JPG,AFNE01.JPG,AFNE01.JPG,,,,,,,,,,,,,1,3,13,2,,,,,,,,,,,AMNE08.jpg,AMSA04.jpg,AMNE10.jpg,AMSA09.jpg,AMSA09.jpg,MS,2,num_4,32,num_2,1.91669072215,,,2017_Apr_14_1852,60.0115488555,FEMA4ImagesEEG,001,200133,
AFNE01.JPG,AFNE01.JPG,AFNE01.JPG,AFNE01.JPG,AFNE01.JPG,AFNE01.JPG,,,,,,,,,,,,,1,4,14,6,,,,,,,,,,,AMNE14.jpg,AMSA18.jpg,AMSA04.jpg,AMNE11.jpg,AMSA04.jpg,MS,2,num_2,32,num_4,0.650146642238,,,2017_Apr_14_1852,60.0115488555,FEMA4ImagesEEG,001,200133,
AFNE01.JPG,AFNE01.JPG,AFNE01.JPG,AFNE01.JPG,AFNE01.JPG,AFNE01.JPG,,,,,,,,,,,,,1,5,15,9,,,,,,,,,,,AMSA18.jpg,AMNE11.jpg,AMSA13.jpg,AMNE02.jpg,AMSA13.jpg,MS,2,num_2,32,num_6,0.766790728823,,,2017_Apr_14_1852,60.0115488555,FEMA4ImagesEEG,001,200133,
AFNE01.JPG,AFNE01.JPG,AFNE01.JPG,AFNE01.JPG,AFNE01.JPG,AFNE01.JPG,,,,,,,,,,,,,1,6,16,7,,,,,,,,,,,AMSA04.jpg,AMNE02.jpg,AMSA16.jpg,AMNE20.jpg,AMSA04.jpg,MS,2,num_8,16,num_8,0.766689375047,,,2017_Apr_14_1852,60.0115488555,FEMA4ImagesEEG,001,200133,
AFNE01.JPG,AFNE01.JPG,AFNE01.JPG,AFNE01.JPG,AFNE01.JPG,AFNE01.JPG,,,,,,,,,,,,,1,7,17,1,,,,,,,,,,,AMSA14.jpg,AMNE11.jpg,AMSA16.jpg,AMNE01.jpg,AMSA14.jpg,MS,2,num_8,32,num_2,1.45013426168,,,2017_Apr_14_1852,60.0115488555,FEMA4ImagesEEG,001,200133,
AFNE01.JPG,AFNE01.JPG,AFNE01.JPG,AFNE01.JPG,AFNE01.JPG,AFNE01.JPG,,,,,,,,,,,,,1,8,18,8,,,,,,,,,,,AMSA11.jpg,AMSA05.jpg,AMNE18.jpg,AMNE13.jpg,AMNE18.jpg,MN,1,num_2,32,num_4,0.816763273495,,,2017_Apr_14_1852,60.0115488555,FEMA4ImagesEEG,001,200133,
AFNE01.JPG,AFNE01.JPG,AFNE01.JPG,AFNE01.JPG,AFNE01.JPG,AFNE01.JPG,,,,,,,,,,,,,1,9,19,0,,,,,,,,,,,AMSA18.jpg,AMNE13.jpg,AMSA13.jpg,AMNE12.jpg,AMNE12.jpg,MN,1,num_4,32,num_6,0.566640750887,,,2017_Apr_14_1852,60.0115488555,FEMA4ImagesEEG,001,200133,
AFNE01.JPG,AFNE01.JPG,AFNE01.JPG,AFNE01.JPG,AFNE01.JPG,AFNE01.JPG,,,,,,,,,,,,,2,0,20,5,,,,,,,,,,,AMNE10.jpg,AMSA04.jpg,AMSA09.jpg,AMNE05.jpg,AMNE10.jpg,MN,1,num_8,16,num_8,0.800180384067,,,2017_Apr_14_1852,60.0115488555,FEMA4ImagesEEG,001,200133,
AFNE01.JPG,AFNE01.JPG,AFNE01.JPG,AFNE01.JPG,AFNE01.JPG,AFNE01.JPG,,,,,,,,,,,,,2,1,21,9,,,,,,,,,,,AMNE20.jpg,AMNE07.jpg,AMSA03.jpg,AMSA04.jpg,AMNE20.jpg,MN,1,num_8,32,num_4,0.38356182837,,,2017_Apr_14_1852,60.0115488555,FEMA4ImagesEEG,001,200133,
AFNE01.JPG,AFNE01.JPG,AFNE01.JPG,AFNE01.JPG,AFNE01.JPG,AFNE01.JPG,,,,,,,,,,,,,2,2,22,7,,,,,,,,,,,AMSA18.jpg,AMSA11.jpg,AMNE01.jpg,AMNE04.jpg,AMNE04.jpg,MN,1,num_4,32,num_2,0.700175957856,,,2017_Apr_14_1852,60.0115488555,FEMA4ImagesEEG,001,200133,
AFNE01.JPG,AFNE01.JPG,AFNE01.JPG,AFNE01.JPG,AFNE01.JPG,AFNE01.JPG,,,,,,,,,,,,,2,3,23,0,,,,,,,,,,,AMSA16.jpg,AMNE16.jpg,AMNE04.jpg,AMSA17.jpg,AMSA16.jpg,MS,2,num_8,16,num_8,0.816659995278,,,2017_Apr_14_1852,60.0115488555,FEMA4ImagesEEG,001,200133,
AFNE01.JPG,AFNE01.JPG,AFNE01.JPG,AFNE01.JPG,AFNE01.JPG,AFNE01.JPG,,,,,,,,,,,,,2,4,24,1,,,,,,,,,,,AMSA12.jpg,AMNE10.jpg,AMNE06.jpg,AMSA14.jpg,AMNE10.jpg,MN,1,num_6,32,num_4,0.516797785098,,,2017_Apr_14_1852,60.0115488555,FEMA4ImagesEEG,001,200133,
AFNE01.JPG,AFNE01.JPG,AFNE01.JPG,AFNE01.JPG,AFNE01.JPG,AFNE01.JPG,,,,,,,,,,,,,2,5,25,3,,,,,,,,,,,AMNE11.jpg,AMSA10.jpg,AMSA18.jpg,AMNE12.jpg,AMNE12.jpg,MN,1,num_4,32,num_8,0.500114824848,,,2017_Apr_14_1852,60.0115488555,FEMA4ImagesEEG,001,200133,
AFNE01.JPG,AFNE01.JPG,AFNE01.JPG,AFNE01.JPG,AFNE01.JPG,AFNE01.JPG,,,,,,,,,,,,,2,6,26,8,,,,,,,,,,,AMNE15.jpg,AMSA18.jpg,AMSA11.jpg,AMNE19.jpg,AMNE15.jpg,MN,1,num_8,16,num_8,0.666845960219,,,2017_Apr_14_1852,60.0115488555,FEMA4ImagesEEG,001,200133,
AFNE01.JPG,AFNE01.JPG,AFNE01.JPG,AFNE01.JPG,AFNE01.JPG,AFNE01.JPG,,,,,,,,,,,,,2,7,27,6,,,,,,,,,,,AMSA16.jpg,AMSA06.jpg,AMNE11.jpg,AMNE05.jpg,AMSA06.jpg,MS,2,num_6,32,num_8,0.700163128266,,,2017_Apr_14_1852,60.0115488555,FEMA4ImagesEEG,001,200133,
AFNE01.JPG,AFNE01.JPG,AFNE01.JPG,AFNE01.JPG,AFNE01.JPG,AFNE01.JPG,,,,,,,,,,,,,2,8,28,4,,,,,,,,,,,AMNE02.jpg,AMNE05.jpg,AMSA13.jpg,AMSA04.jpg,AMSA04.jpg,MS,2,num_4,32,num_2,0.716735112543,,,2017_Apr_14_1852,60.0115488555,FEMA4ImagesEEG,001,200133,
AFNE01.JPG,AFNE01.JPG,AFNE01.JPG,AFNE01.JPG,AFNE01.JPG,AFNE01.JPG,,,,,,,,,,,,,2,9,29,2,,,,,,,,,,,AMNE18.jpg,AMSA12.jpg,AMNE06.jpg,AMSA20.jpg,AMNE06.jpg,MN,1,num_2,16,num_2,0.566721577321,,,2017_Apr_14_1852,60.0115488555,FEMA4ImagesEEG,001,200133,
AFNE01.JPG,AFNE01.JPG,AFNE01.JPG,AFNE01.JPG,AFNE01.JPG,AFNE01.JPG,,,,,,,,,,,,,3,0,30,7,,,,,,,,,,,AMSA17.jpg,AMNE06.jpg,AMNE11.jpg,AMSA01.jpg,AMNE06.jpg,MN,1,num_6,16,num_6,1.40004657142,,,2017_Apr_14_1852,60.0115488555,FEMA4ImagesEEG,001,200133,
AFNE01.JPG,AFNE01.JPG,AFNE01.JPG,AFNE01.JPG,AFNE01.JPG,AFNE01.JPG,,,,,,,,,,,,,3,1,31,3,,,,,,,,,,,AMNE19.jpg,AMSA18.jpg,AMSA17.jpg,AMNE08.jpg,AMSA18.jpg,MS,2,num_6,16,num_6,0.633460153851,,,2017_Apr_14_1852,60.0115488555,FEMA4ImagesEEG,001,200133,
AFNE01.JPG,AFNE01.JPG,AFNE01.JPG,AFNE01.JPG,AFNE01.JPG,AFNE01.JPG,,,,,,,,,,,,,3,2,32,5,,,,,,,,,,,AMSA06.jpg,AMNE05.jpg,AMSA20.jpg,AMNE13.jpg,AMSA06.jpg,MS,2,num_8,16,num_8,0.850151966519,,,2017_Apr_14_1852,60.0115488555,FEMA4ImagesEEG,001,200133,
AFNE01.JPG,AFNE01.JPG,AFNE01.JPG,AFNE01.JPG,AFNE01.JPG,AFNE01.JPG,,,,,,,,,,,,,3,3,33,9,,,,,,,,,,,AMSA15.jpg,AMNE11.jpg,AMNE17.jpg,AMSA17.jpg,AMNE17.jpg,MN,1,num_2,32,num_4,0.916734342765,,,2017_Apr_14_1852,60.0115488555,FEMA4ImagesEEG,001,200133,
AFNE01.JPG,AFNE01.JPG,AFNE01.JPG,AFNE01.JPG,AFNE01.JPG,AFNE01.JPG,,,,,,,,,,,,,3,4,34,0,,,,,,,,,,,AMNE01.jpg,AMNE15.jpg,AMSA11.jpg,AMSA18.jpg,AMSA18.jpg,MS,2,num_4,32,num_8,0.800099878375,,,2017_Apr_14_1852,60.0115488555,FEMA4ImagesEEG,001,200133,
AFNE01.JPG,AFNE01.JPG,AFNE01.JPG,AFNE01.JPG,AFNE01.JPG,AFNE01.JPG,,,,,,,,,,,,,3,5,35,8,,,,,,,,,,,AMNE11.jpg,AMNE13.jpg,AMSA03.jpg,AMSA12.jpg,AMSA03.jpg,MS,2,num_2,16,num_2,1.11675249664,,,2017_Apr_14_1852,60.0115488555,FEMA4ImagesEEG,001,200133,
AFNE01.JPG,AFNE01.JPG,AFNE01.JPG,AFNE01.JPG,AFNE01.JPG,AFNE01.JPG,,,,,,,,,,,,,3,6,36,2,,,,,,,,,,,AMSA03.jpg,AMNE17.jpg,AMNE03.jpg,AMSA08.jpg,AMSA08.jpg,MS,2,num_4,32,num_6,0.783456369125,,,2017_Apr_14_1852,60.0115488555,FEMA4ImagesEEG,001,200133,
AFNE01.JPG,AFNE01.JPG,AFNE01.JPG,AFNE01.JPG,AFNE01.JPG,AFNE01.JPG,,,,,,,,,,,,,3,7,37,1,,,,,,,,,,,AMNE12.jpg,AMNE13.jpg,AMSA09.jpg,AMSA17.jpg,AMSA17.jpg,MS,2,num_4,32,num_8,0.800139970848,,,2017_Apr_14_1852,60.0115488555,FEMA4ImagesEEG,001,200133,
AFNE01.JPG,AFNE01.JPG,AFNE01.JPG,AFNE01.JPG,AFNE01.JPG,AFNE01.JPG,,,,,,,,,,,,,3,8,38,4,,,,,,,,,,,AMSA12.jpg,AMSA01.jpg,AMNE13.jpg,AMNE19.jpg,AMSA12.jpg,MS,2,num_8,32,num_2,1.06675012316,,,2017_Apr_14_1852,60.0115488555,FEMA4ImagesEEG,001,200133,
AFNE01.JPG,AFNE01.JPG,AFNE01.JPG,AFNE01.JPG,AFNE01.JPG,AFNE01.JPG,,,,,,,,,,,,,3,9,39,6,,,,,,,,,,,AMNE05.jpg,AMSA09.jpg,AMNE01.jpg,AMSA17.jpg,AMNE05.jpg,MN,1,num_8,32,num_2,0.850117005881,,,2017_Apr_14_1852,60.0115488555,FEMA4ImagesEEG,001,200133,
AFNE01.JPG,AFNE01.JPG,AFNE01.JPG,AFNE01.JPG,AFNE01.JPG,AFNE01.JPG,,,,,,,,,,,,,4,0,40,0,,,,,,,,,,,AMNE15.jpg,AMSA05.jpg,AMNE05.jpg,AMSA16.jpg,AMSA05.jpg,MS,2,num_6,16,num_6,0.95013778982,,,2017_Apr_14_1852,60.0115488555,FEMA4ImagesEEG,001,200133,
AFNE01.JPG,AFNE01.JPG,AFNE01.JPG,AFNE01.JPG,AFNE01.JPG,AFNE01.JPG,,,,,,,,,,,,,4,1,41,1,,,,,,,,,,,AMSA17.jpg,AMSA14.jpg,AMNE08.jpg,AMNE01.jpg,AMSA14.jpg,MS,2,num_6,16,num_6,1.09977734242,,,2017_Apr_14_1852,60.0115488555,FEMA4ImagesEEG,001,200133,
AFNE01.JPG,AFNE01.JPG,AFNE01.JPG,AFNE01.JPG,AFNE01.JPG,AFNE01.JPG,,,,,,,,,,,,,4,2,42,8,,,,,,,,,,,AMNE18.jpg,AMSA01.jpg,AMNE11.jpg,AMSA15.jpg,AMNE18.jpg,MN,1,num_8,16,num_8,0.950111168415,,,2017_Apr_14_1852,60.0115488555,FEMA4ImagesEEG,001,200133,
AFNE01.JPG,AFNE01.JPG,AFNE01.JPG,AFNE01.JPG,AFNE01.JPG,AFNE01.JPG,,,,,,,,,,,,,4,3,43,9,,,,,,,,,,,AMSA13.jpg,AMNE01.jpg,AMSA19.jpg,AMNE19.jpg,AMNE19.jpg,MN,1,num_4,32,num_2,2.05004759779,,,2017_Apr_14_1852,60.0115488555,FEMA4ImagesEEG,001,200133,
AFNE01.JPG,AFNE01.JPG,AFNE01.JPG,AFNE01.JPG,AFNE01.JPG,AFNE01.JPG,,,,,,,,,,,,,4,4,44,7,,,,,,,,,,,AMNE08.jpg,AMNE15.jpg,AMSA13.jpg,AMSA07.jpg,AMSA07.jpg,MS,2,num_4,32,num_8,0.516899459617,,,2017_Apr_14_1852,60.0115488555,FEMA4ImagesEEG,001,200133,
AFNE01.JPG,AFNE01.JPG,AFNE01.JPG,AFNE01.JPG,AFNE01.JPG,AFNE01.JPG,,,,,,,,,,,,,4,5,45,6,,,,,,,,,,,AMNE15.jpg,AMSA09.jpg,AMNE07.jpg,AMSA06.jpg,AMNE07.jpg,MN,1,num_2,32,num_4,0.600003143249,,,2017_Apr_14_1852,60.0115488555,FEMA4ImagesEEG,001,200133,
AFNE01.JPG,AFNE01.JPG,AFNE01.JPG,AFNE01.JPG,AFNE01.JPG,AFNE01.JPG,,,,,,,,,,,,,4,6,46,2,,,,,,,,,,,AMNE09.jpg,AMSA16.jpg,AMNE03.jpg,AMSA20.jpg,AMNE03.jpg,MN,1,num_2,16,num_2,1.31673184099,,,2017_Apr_14_1852,60.0115488555,FEMA4ImagesEEG,001,200133,
AFNE01.JPG,AFNE01.JPG,AFNE01.JPG,AFNE01.JPG,AFNE01.JPG,AFNE01.JPG,,,,,,,,,,,,,4,7,47,5,,,,,,,,,,,AMNE20.jpg,AMSA06.jpg,AMSA18.jpg,AMNE15.jpg,AMSA06.jpg,MS,2,num_6,16,num_6,0.766771163697,,,2017_Apr_14_1852,60.0115488555,FEMA4ImagesEEG,001,200133,
AFNE01.JPG,AFNE01.JPG,AFNE01.JPG,AFNE01.JPG,AFNE01.JPG,AFNE01.JPG,,,,,,,,,,,,,4,8,48,4,,,,,,,,,,,AMNE08.jpg,AMNE19.jpg,AMSA10.jpg,AMSA18.jpg,AMSA10.jpg,MS,2,num_2,32,num_8,0.800433768512,,,2017_Apr_14_1852,60.0115488555,FEMA4ImagesEEG,001,200133,
AFNE01.JPG,AFNE01.JPG,AFNE01.JPG,AFNE01.JPG,AFNE01.JPG,AFNE01.JPG,,,,,,,,,,,,,4,9,49,3,,,,,,,,,,,AMSA07.jpg,AMNE19.jpg,AMNE16.jpg,AMSA09.jpg,AMNE19.jpg,MN,1,num_6,32,num_4,0.716788355348,,,2017_Apr_14_1852,60.0115488555,FEMA4ImagesEEG,001,200133,
AFNE01.JPG,AFNE01.JPG,AFNE01.JPG,AFNE01.JPG,AFNE01.JPG,AFNE01.JPG,,,,,,,,,,,,,5,0,50,5,,,,,,,,,,,AMNE11.jpg,AMSA19.jpg,AMSA16.jpg,AMNE19.jpg,AMSA19.jpg,MS,2,num_6,16,num_6,0.750092373062,,,2017_Apr_14_1852,60.0115488555,FEMA4ImagesEEG,001,200133,
AFNE01.JPG,AFNE01.JPG,AFNE01.JPG,AFNE01.JPG,AFNE01.JPG,AFNE01.JPG,,,,,,,,,,,,,5,1,51,7,,,,,,,,,,,AMSA01.jpg,AMSA04.jpg,AMNE04.jpg,AMNE15.jpg,AMNE15.jpg,MN,1,num_4,16,num_4,0.633481322682,,,2017_Apr_14_1852,60.0115488555,FEMA4ImagesEEG,001,200133,
AFNE01.JPG,AFNE01.JPG,AFNE01.JPG,AFNE01.JPG,AFNE01.JPG,AFNE01.JPG,,,,,,,,,,,,,5,2,52,1,,,,,,,,,,,AMNE12.jpg,AMNE11.jpg,AMSA19.jpg,AMSA20.jpg,AMNE12.jpg,MN,1,num_8,32,num_6,1.11671176268,,,2017_Apr_14_1852,60.0115488555,FEMA4ImagesEEG,001,200133,
AFNE01.JPG,AFNE01.JPG,AFNE01.JPG,AFNE01.JPG,AFNE01.JPG,AFNE01.JPG,,,,,,,,,,,,,5,3,53,2,,,,,,,,,,,AMNE09.jpg,AMSA06.jpg,AMSA09.jpg,AMNE10.jpg,AMSA06.jpg,MS,2,num_6,32,num_4,0.733417431307,,,2017_Apr_14_1852,60.0115488555,FEMA4ImagesEEG,001,200133,
AFNE01.JPG,AFNE01.JPG,AFNE01.JPG,AFNE01.JPG,AFNE01.JPG,AFNE01.JPG,,,,,,,,,,,,,5,4,54,6,,,,,,,,,,,AMNE10.jpg,AMNE04.jpg,AMSA12.jpg,AMSA16.jpg,AMSA16.jpg,MS,2,num_4,32,num_8,1.00010103304,,,2017_Apr_14_1852,60.0115488555,FEMA4ImagesEEG,001,200133,
AFNE01.JPG,AFNE01.JPG,AFNE01.JPG,AFNE01.JPG,AFNE01.JPG,AFNE01.JPG,,,,,,,,,,,,,5,5,55,8,,,,,,,,,,,AMSA02.jpg,AMNE19.jpg,AMNE01.jpg,AMSA07.jpg,AMSA07.jpg,MS,2,num_4,32,num_8,0.716751470271,,,2017_Apr_14_1852,60.0115488555,FEMA4ImagesEEG,001,200133,
AFNE01.JPG,AFNE01.JPG,AFNE01.JPG,AFNE01.JPG,AFNE01.JPG,AFNE01.JPG,,,,,,,,,,,,,5,6,56,0,,,,,,,,,,,AMNE09.jpg,AMSA15.jpg,AMNE06.jpg,AMSA03.jpg,AMNE06.jpg,MN,1,num_2,32,num_6,0.4167757182,,,2017_Apr_14_1852,60.0115488555,FEMA4ImagesEEG,001,200133,
AFNE01.JPG,AFNE01.JPG,AFNE01.JPG,AFNE01.JPG,AFNE01.JPG,AFNE01.JPG,,,,,,,,,,,,,5,7,57,9,,,,,,,,,,,AMNE18.jpg,AMSA12.jpg,AMNE08.jpg,AMSA02.jpg,AMNE08.jpg,MN,1,num_2,32,num_8,0.883438664285,,,2017_Apr_14_1852,60.0115488555,FEMA4ImagesEEG,001,200133,
AFNE01.JPG,AFNE01.JPG,AFNE01.JPG,AFNE01.JPG,AFNE01.JPG,AFNE01.JPG,,,,,,,,,,,,,5,8,58,4,,,,,,,,,,,AMSA17.jpg,AMNE15.jpg,AMSA10.jpg,AMNE17.jpg,AMSA10.jpg,MS,2,num_2,32,num_4,0.383460795332,,,2017_Apr_14_1852,60.0115488555,FEMA4ImagesEEG,001,200133,
AFNE01.JPG,AFNE01.JPG,AFNE01.JPG,AFNE01.JPG,AFNE01.JPG,AFNE01.JPG,,,,,,,,,,,,,5,9,59,3,,,,,,,,,,,AMSA20.jpg,AMSA12.jpg,AMNE04.jpg,AMNE18.jpg,AMSA20.jpg,MS,2,num_8,32,num_2,0.550150234525,,,2017_Apr_14_1852,60.0115488555,FEMA4ImagesEEG,001,200133,
,,,,,,,,,,,,,,,,,,,,,,,,,,,,,,,,,,,,,,,,,,,space,24.6485621876,2017_Apr_14_1852,60.0115488555,FEMA4ImagesEEG,001,200133,
AFNE01.JPG,AFNE01.JPG,AFNE01.JPG,AFNE01.JPG,AFNE01.JPG,AFNE01.JPG,,,,,,,,,,,,,,,,,0,0,0,7,,,,,,,AFSA12.jpg,AFNE14.jpg,AFNE09.jpg,AFSA04.jpg,AFNE09.jpg,FN,3,num_2,32,num_4,0.766869630814,,,2017_Apr_14_1852,60.0115488555,FEMA4ImagesEEG,001,200133,
AFNE01.JPG,AFNE01.JPG,AFNE01.JPG,AFNE01.JPG,AFNE01.JPG,AFNE01.JPG,,,,,,,,,,,,,,,,,0,1,1,1,,,,,,,AFSA05.jpg,AFNE03.jpg,AFSA19.jpg,AFNE18.jpg,AFSA05.jpg,FS,4,num_8,16,num_8,0.733483503711,,,2017_Apr_14_1852,60.0115488555,FEMA4ImagesEEG,001,200133,
AFNE01.JPG,AFNE01.JPG,AFNE01.JPG,AFNE01.JPG,AFNE01.JPG,AFNE01.JPG,,,,,,,,,,,,,,,,,0,2,2,5,,,,,,,AFSA08.jpg,AFNE01.jpg,AFNE12.jpg,AFSA18.jpg,AFNE01.jpg,FN,3,num_6,32,num_4,0.68349588427,,,2017_Apr_14_1852,60.0115488555,FEMA4ImagesEEG,001,200133,
AFNE01.JPG,AFNE01.JPG,AFNE01.JPG,AFNE01.JPG,AFNE01.JPG,AFNE01.JPG,,,,,,,,,,,,,,,,,0,3,3,3,,,,,,,AFSA05.jpg,AFNE05.jpg,AFNE10.jpg,AFSA02.jpg,AFNE10.jpg,FN,3,num_2,16,num_2,0.800099878375,,,2017_Apr_14_1852,60.0115488555,FEMA4ImagesEEG,001,200133,
AFNE01.JPG,AFNE01.JPG,AFNE01.JPG,AFNE01.JPG,AFNE01.JPG,AFNE01.JPG,,,,,,,,,,,,,,,,,0,4,4,9,,,,,,,AFNE02.jpg,AFSA11.jpg,AFNE18.jpg,AFSA02.jpg,AFNE18.jpg,FN,3,num_2,16,num_2,0.78344738841,,,2017_Apr_14_1852,60.0115488555,FEMA4ImagesEEG,001,200133,
AFNE01.JPG,AFNE01.JPG,AFNE01.JPG,AFNE01.JPG,AFNE01.JPG,AFNE01.JPG,,,,,,,,,,,,,,,,,0,5,5,8,,,,,,,AFNE01.jpg,AFNE13.jpg,AFSA11.jpg,AFSA08.jpg,AFNE01.jpg,FN,3,num_8,16,num_8,0.783399918917,,,2017_Apr_14_1852,60.0115488555,FEMA4ImagesEEG,001,200133,
AFNE01.JPG,AFNE01.JPG,AFNE01.JPG,AFNE01.JPG,AFNE01.JPG,AFNE01.JPG,,,,,,,,,,,,,,,,,0,6,6,6,,,,,,,AFSA11.jpg,AFSA18.jpg,AFNE15.jpg,AFNE09.jpg,AFSA11.jpg,FS,4,num_8,32,num_4,1.38341268436,,,2017_Apr_14_1852,60.0115488555,FEMA4ImagesEEG,001,200133,
AFNE01.JPG,AFNE01.JPG,AFNE01.JPG,AFNE01.JPG,AFNE01.JPG,AFNE01.JPG,,,,,,,,,,,,,,,,,0,7,7,2,,,,,,,AFNE04.jpg,AFNE14.jpg,AFSA11.jpg,AFSA13.jpg,AFSA13.jpg,FS,4,num_4,32,num_6,0.850142985804,,,2017_Apr_14_1852,60.0115488555,FEMA4ImagesEEG,001,200133,
AFNE01.JPG,AFNE01.JPG,AFNE01.JPG,AFNE01.JPG,AFNE01.JPG,AFNE01.JPG,,,,,,,,,,,,,,,,,0,8,8,4,,,,,,,AFSA10.jpg,AFSA18.jpg,AFNE03.jpg,AFNE17.jpg,AFNE17.jpg,FN,3,num_4,16,num_4,0.60013208065,,,2017_Apr_14_1852,60.0115488555,FEMA4ImagesEEG,001,200133,
AFNE01.JPG,AFNE01.JPG,AFNE01.JPG,AFNE01.JPG,AFNE01.JPG,AFNE01.JPG,,,,,,,,,,,,,,,,,0,9,9,0,,,,,,,AFNE17.jpg,AFSA16.jpg,AFSA13.jpg,AFNE10.jpg,AFNE17.jpg,FN,3,num_8,32,num_4,0.566754934262,,,2017_Apr_14_1852,60.0115488555,FEMA4ImagesEEG,001,200133,
AFNE01.JPG,AFNE01.JPG,AFNE01.JPG,AFNE01.JPG,AFNE01.JPG,AFNE01.JPG,,,,,,,,,,,,,,,,,1,0,10,6,,,,,,,AFSA01.jpg,AFNE09.jpg,AFSA18.jpg,AFNE03.jpg,AFSA18.jpg,FS,4,num_2,32,num_6,0.466761733947,,,2017_Apr_14_1852,60.0115488555,FEMA4ImagesEEG,001,200133,
AFNE01.JPG,AFNE01.JPG,AFNE01.JPG,AFNE01.JPG,AFNE01.JPG,AFNE01.JPG,,,,,,,,,,,,,,,,,1,1,11,8,,,,,,,AFSA11.jpg,AFNE09.jpg,AFSA19.jpg,AFNE06.jpg,AFSA19.jpg,FS,4,num_2,32,num_4,0.466788676091,,,2017_Apr_14_1852,60.0115488555,FEMA4ImagesEEG,001,200133,
AFNE01.JPG,AFNE01.JPG,AFNE01.JPG,AFNE01.JPG,AFNE01.JPG,AFNE01.JPG,,,,,,,,,,,,,,,,,1,2,12,9,,,,,,,AFNE12.jpg,AFNE16.jpg,AFSA04.jpg,AFSA19.jpg,AFSA04.jpg,FS,4,num_2,16,num_2,0.833453610761,,,2017_Apr_14_1852,60.0115488555,FEMA4ImagesEEG,001,200133,
AFNE01.JPG,AFNE01.JPG,AFNE01.JPG,AFNE01.JPG,AFNE01.JPG,AFNE01.JPG,,,,,,,,,,,,,,,,,1,3,13,7,,,,,,,AFNE07.jpg,AFNE19.jpg,AFSA07.jpg,AFSA20.jpg,AFNE07.jpg,FN,3,num_8,32,num_4,1.40003983588,,,2017_Apr_14_1852,60.0115488555,FEMA4ImagesEEG,001,200133,
AFNE01.JPG,AFNE01.JPG,AFNE01.JPG,AFNE01.JPG,AFNE01.JPG,AFNE01.JPG,,,,,,,,,,,,,,,,,1,4,14,4,,,,,,,AFNE04.jpg,AFSA07.jpg,AFSA09.jpg,AFNE09.jpg,AFNE09.jpg,FN,3,num_4,32,num_8,0.633598713452,,,2017_Apr_14_1852,60.0115488555,FEMA4ImagesEEG,001,200133,
AFNE01.JPG,AFNE01.JPG,AFNE01.JPG,AFNE01.JPG,AFNE01.JPG,AFNE01.JPG,,,,,,,,,,,,,,,,,1,5,15,5,,,,,,,AFNE15.jpg,AFSA05.jpg,AFNE20.jpg,AFSA08.jpg,AFSA08.jpg,FS,4,num_4,32,num_6,0.633483247118,,,2017_Apr_14_1852,60.0115488555,FEMA4ImagesEEG,001,200133,
AFNE01.JPG,AFNE01.JPG,AFNE01.JPG,AFNE01.JPG,AFNE01.JPG,AFNE01.JPG,,,,,,,,,,,,,,,,,1,6,16,1,,,,,,,AFNE08.jpg,AFNE03.jpg,AFSA04.jpg,AFSA09.jpg,AFSA09.jpg,FS,4,num_4,16,num_4,1.13326610627,,,2017_Apr_14_1852,60.0115488555,FEMA4ImagesEEG,001,200133,
AFNE01.JPG,AFNE01.JPG,AFNE01.JPG,AFNE01.JPG,AFNE01.JPG,AFNE01.JPG,,,,,,,,,,,,,,,,,1,7,17,2,,,,,,,AFSA18.jpg,AFNE09.jpg,AFNE02.jpg,AFSA08.jpg,AFSA08.jpg,FS,4,num_4,32,num_6,0.466649154274,,,2017_Apr_14_1852,60.0115488555,FEMA4ImagesEEG,001,200133,
AFNE01.JPG,AFNE01.JPG,AFNE01.JPG,AFNE01.JPG,AFNE01.JPG,AFNE01.JPG,,,,,,,,,,,,,,,,,1,8,18,0,,,,,,,AFNE08.jpg,AFSA20.jpg,AFSA15.jpg,AFNE13.jpg,AFNE13.jpg,FN,3,num_4,16,num_4,0.683476639875,,,2017_Apr_14_1852,60.0115488555,FEMA4ImagesEEG,001,200133,
AFNE01.JPG,AFNE01.JPG,AFNE01.JPG,AFNE01.JPG,AFNE01.JPG,AFNE01.JPG,,,,,,,,,,,,,,,,,1,9,19,3,,,,,,,AFSA08.jpg,AFNE12.jpg,AFSA14.jpg,AFNE18.jpg,AFNE12.jpg,FN,3,num_6,32,num_4,0.68346060289,,,2017_Apr_14_1852,60.0115488555,FEMA4ImagesEEG,001,200133,
AFNE01.JPG,AFNE01.JPG,AFNE01.JPG,AFNE01.JPG,AFNE01.JPG,AFNE01.JPG,,,,,,,,,,,,,,,,,2,0,20,6,,,,,,,AFNE19.jpg,AFSA06.jpg,AFNE20.jpg,AFSA18.jpg,AFNE19.jpg,FN,3,num_8,32,num_6,0.450182051914,,,2017_Apr_14_1852,60.0115488555,FEMA4ImagesEEG,001,200133,
AFNE01.JPG,AFNE01.JPG,AFNE01.JPG,AFNE01.JPG,AFNE01.JPG,AFNE01.JPG,,,,,,,,,,,,,,,,,2,1,21,1,,,,,,,AFNE11.jpg,AFNE14.jpg,AFSA01.jpg,AFSA04.jpg,AFSA04.jpg,FS,4,num_4,16,num_4,0.533451878764,,,2017_Apr_14_1852,60.0115488555,FEMA4ImagesEEG,001,200133,
AFNE01.JPG,AFNE01.JPG,AFNE01.JPG,AFNE01.JPG,AFNE01.JPG,AFNE01.JPG,,,,,,,,,,,,,,,,,2,2,22,5,,,,,,,AFSA05.jpg,AFNE07.jpg,AFSA10.jpg,AFNE01.jpg,AFSA05.jpg,FS,4,num_8,16,num_8,0.616826908274,,,2017_Apr_14_1852,60.0115488555,FEMA4ImagesEEG,001,200133,
AFNE01.JPG,AFNE01.JPG,AFNE01.JPG,AFNE01.JPG,AFNE01.JPG,AFNE01.JPG,,,,,,,,,,,,,,,,,2,3,23,3,,,,,,,AFNE04.jpg,AFSA03.jpg,AFSA09.jpg,AFNE17.jpg,AFNE17.jpg,FN,3,num_4,32,num_6,0.516781748109,,,2017_Apr_14_1852,60.0115488555,FEMA4ImagesEEG,001,200133,
AFNE01.JPG,AFNE01.JPG,AFNE01.JPG,AFNE01.JPG,AFNE01.JPG,AFNE01.JPG,,,,,,,,,,,,,,,,,2,4,24,2,,,,,,,AFSA13.jpg,AFNE12.jpg,AFSA19.jpg,AFNE13.jpg,AFSA13.jpg,FS,4,num_8,32,num_2,0.333538286068,,,2017_Apr_14_1852,60.0115488555,FEMA4ImagesEEG,001,200133,
AFNE01.JPG,AFNE01.JPG,AFNE01.JPG,AFNE01.JPG,AFNE01.JPG,AFNE01.JPG,,,,,,,,,,,,,,,,,2,5,25,9,,,,,,,AFSA08.jpg,AFNE18.jpg,AFSA11.jpg,AFNE02.jpg,AFNE18.jpg,FN,3,num_6,16,num_6,0.350165437594,,,2017_Apr_14_1852,60.0115488555,FEMA4ImagesEEG,001,200133,
AFNE01.JPG,AFNE01.JPG,AFNE01.JPG,AFNE01.JPG,AFNE01.JPG,AFNE01.JPG,,,,,,,,,,,,,,,,,2,6,26,7,,,,,,,AFNE04.jpg,AFSA13.jpg,AFSA09.jpg,AFNE03.jpg,AFSA09.jpg,FS,4,num_2,32,num_4,0.466819146368,,,2017_Apr_14_1852,60.0115488555,FEMA4ImagesEEG,001,200133,
AFNE01.JPG,AFNE01.JPG,AFNE01.JPG,AFNE01.JPG,AFNE01.JPG,AFNE01.JPG,,,,,,,,,,,,,,,,,2,7,27,8,,,,,,,AFNE14.jpg,AFSA15.jpg,AFNE17.jpg,AFSA04.jpg,AFNE14.jpg,FN,3,num_8,32,num_6,0.466816580451,,,2017_Apr_14_1852,60.0115488555,FEMA4ImagesEEG,001,200133,
AFNE01.JPG,AFNE01.JPG,AFNE01.JPG,AFNE01.JPG,AFNE01.JPG,AFNE01.JPG,,,,,,,,,,,,,,,,,2,8,28,0,,,,,,,AFSA01.jpg,AFSA11.jpg,AFNE02.jpg,AFNE14.jpg,AFNE14.jpg,FN,3,num_4,32,num_8,0.733474843735,,,2017_Apr_14_1852,60.0115488555,FEMA4ImagesEEG,001,200133,
AFNE01.JPG,AFNE01.JPG,AFNE01.JPG,AFNE01.JPG,AFNE01.JPG,AFNE01.JPG,,,,,,,,,,,,,,,,,2,9,29,4,,,,,,,AFNE18.jpg,AFNE16.jpg,AFSA10.jpg,AFSA16.jpg,AFSA16.jpg,FS,4,num_4,16,num_4,0.550137404935,,,2017_Apr_14_1852,60.0115488555,FEMA4ImagesEEG,001,200133,
AFNE01.JPG,AFNE01.JPG,AFNE01.JPG,AFNE01.JPG,AFNE01.JPG,AFNE01.JPG,,,,,,,,,,,,,,,,,3,0,30,9,,,,,,,AFNE13.jpg,AFNE07.jpg,AFSA06.jpg,AFSA20.jpg,AFNE07.jpg,FN,3,num_6,32,num_2,0.616793872072,,,2017_Apr_14_1852,60.0115488555,FEMA4ImagesEEG,001,200133,
AFNE01.JPG,AFNE01.JPG,AFNE01.JPG,AFNE01.JPG,AFNE01.JPG,AFNE01.JPG,,,,,,,,,,,,,,,,,3,1,31,4,,,,,,,AFSA05.jpg,AFNE12.jpg,AFSA06.jpg,AFNE08.jpg,AFSA05.jpg,FS,4,num_8,16,num_8,0.733397545442,,,2017_Apr_14_1852,60.0115488555,FEMA4ImagesEEG,001,200133,
AFNE01.JPG,AFNE01.JPG,AFNE01.JPG,AFNE01.JPG,AFNE01.JPG,AFNE01.JPG,,,,,,,,,,,,,,,,,3,2,32,0,,,,,,,AFSA14.jpg,AFNE05.jpg,AFNE12.jpg,AFSA16.jpg,AFSA14.jpg,FS,4,num_8,16,num_8,0.666782774475,,,2017_Apr_14_1852,60.0115488555,FEMA4ImagesEEG,001,200133,
AFNE01.JPG,AFNE01.JPG,AFNE01.JPG,AFNE01.JPG,AFNE01.JPG,AFNE01.JPG,,,,,,,,,,,,,,,,,3,3,33,3,,,,,,,AFSA09.jpg,AFSA01.jpg,AFNE18.jpg,AFNE16.jpg,AFNE16.jpg,FN,3,num_4,16,num_4,0.833460987778,,,2017_Apr_14_1852,60.0115488555,FEMA4ImagesEEG,001,200133,
AFNE01.JPG,AFNE01.JPG,AFNE01.JPG,AFNE01.JPG,AFNE01.JPG,AFNE01.JPG,,,,,,,,,,,,,,,,,3,4,34,2,,,,,,,AFSA03.jpg,AFSA01.jpg,AFNE18.jpg,AFNE08.jpg,AFSA01.jpg,FS,4,num_6,32,num_2,1.23344790159,,,2017_Apr_14_1852,60.0115488555,FEMA4ImagesEEG,001,200133,
AFNE01.JPG,AFNE01.JPG,AFNE01.JPG,AFNE01.JPG,AFNE01.JPG,AFNE01.JPG,,,,,,,,,,,,,,,,,3,5,35,7,,,,,,,AFSA14.jpg,AFSA09.jpg,AFNE08.jpg,AFNE05.jpg,AFNE05.jpg,FN,3,num_4,32,num_8,0.716790279785,,,2017_Apr_14_1852,60.0115488555,FEMA4ImagesEEG,001,200133,
AFNE01.JPG,AFNE01.JPG,AFNE01.JPG,AFNE01.JPG,AFNE01.JPG,AFNE01.JPG,,,,,,,,,,,,,,,,,3,6,36,1,,,,,,,AFSA05.jpg,AFSA18.jpg,AFNE04.jpg,AFNE15.jpg,AFSA05.jpg,FS,4,num_8,32,num_6,0.666761605651,,,2017_Apr_14_1852,60.0115488555,FEMA4ImagesEEG,001,200133,
AFNE01.JPG,AFNE01.JPG,AFNE01.JPG,AFNE01.JPG,AFNE01.JPG,AFNE01.JPG,,,,,,,,,,,,,,,,,3,7,37,8,,,,,,,AFNE17.jpg,AFNE01.jpg,AFSA02.jpg,AFSA13.jpg,AFNE01.jpg,FN,3,num_6,32,num_2,0.666753907895,,,2017_Apr_14_1852,60.0115488555,FEMA4ImagesEEG,001,200133,
AFNE01.JPG,AFNE01.JPG,AFNE01.JPG,AFNE01.JPG,AFNE01.JPG,AFNE01.JPG,,,,,,,,,,,,,,,,,3,8,38,5,,,,,,,AFSA13.jpg,AFSA18.jpg,AFNE20.jpg,AFNE07.jpg,AFNE20.jpg,FN,3,num_2,16,num_2,0.650135095606,,,2017_Apr_14_1852,60.0115488555,FEMA4ImagesEEG,001,200133,
AFNE01.JPG,AFNE01.JPG,AFNE01.JPG,AFNE01.JPG,AFNE01.JPG,AFNE01.JPG,,,,,,,,,,,,,,,,,3,9,39,6,,,,,,,AFNE20.jpg,AFNE16.jpg,AFSA15.jpg,AFSA07.jpg,AFSA15.jpg,FS,4,num_2,16,num_2,0.700117583212,,,2017_Apr_14_1852,60.0115488555,FEMA4ImagesEEG,001,200133,
AFNE01.JPG,AFNE01.JPG,AFNE01.JPG,AFNE01.JPG,AFNE01.JPG,AFNE01.JPG,,,,,,,,,,,,,,,,,4,0,40,7,,,,,,,AFSA02.jpg,AFNE13.jpg,AFSA06.jpg,AFNE05.jpg,AFSA02.jpg,FS,4,num_8,32,num_4,1.36681760682,,,2017_Apr_14_1852,60.0115488555,FEMA4ImagesEEG,001,200133,
AFNE01.JPG,AFNE01.JPG,AFNE01.JPG,AFNE01.JPG,AFNE01.JPG,AFNE01.JPG,,,,,,,,,,,,,,,,,4,1,41,3,,,,,,,AFNE02.jpg,AFSA01.jpg,AFSA14.jpg,AFNE01.jpg,AFNE02.jpg,FN,3,num_8,16,num_8,1.03362026716,,,2017_Apr_14_1852,60.0115488555,FEMA4ImagesEEG,001,200133,
AFNE01.JPG,AFNE01.JPG,AFNE01.JPG,AFNE01.JPG,AFNE01.JPG,AFNE01.JPG,,,,,,,,,,,,,,,,,4,2,42,4,,,,,,,AFNE10.jpg,AFNE17.jpg,AFSA04.jpg,AFSA15.jpg,AFNE10.jpg,FN,3,num_8,16,num_8,1.65011071938,,,2017_Apr_14_1852,60.0115488555,FEMA4ImagesEEG,001,200133,
AFNE01.JPG,AFNE01.JPG,AFNE01.JPG,AFNE01.JPG,AFNE01.JPG,AFNE01.JPG,,,,,,,,,,,,,,,,,4,3,43,2,,,,,,,AFSA20.jpg,AFNE14.jpg,AFSA05.jpg,AFNE05.jpg,AFSA20.jpg,FS,4,num_8,32,num_2,0.716860201064,,,2017_Apr_14_1852,60.0115488555,FEMA4ImagesEEG,001,200133,
AFNE01.JPG,AFNE01.JPG,AFNE01.JPG,AFNE01.JPG,AFNE01.JPG,AFNE01.JPG,,,,,,,,,,,,,,,,,4,4,44,1,,,,,,,AFSA07.jpg,AFSA18.jpg,AFNE06.jpg,AFNE13.jpg,AFNE06.jpg,FN,3,num_2,32,num_4,0.466760130246,,,2017_Apr_14_1852,60.0115488555,FEMA4ImagesEEG,001,200133,
AFNE01.JPG,AFNE01.JPG,AFNE01.JPG,AFNE01.JPG,AFNE01.JPG,AFNE01.JPG,,,,,,,,,,,,,,,,,4,5,45,9,,,,,,,AFNE11.jpg,AFSA11.jpg,AFNE01.jpg,AFSA20.jpg,AFSA11.jpg,FS,4,num_6,16,num_6,0.966766545043,,,2017_Apr_14_1852,60.0115488555,FEMA4ImagesEEG,001,200133,
AFNE01.JPG,AFNE01.JPG,AFNE01.JPG,AFNE01.JPG,AFNE01.JPG,AFNE01.JPG,,,,,,,,,,,,,,,,,4,6,46,5,,,,,,,AFSA13.jpg,AFNE17.jpg,AFSA02.jpg,AFNE11.jpg,AFNE11.jpg,FN,3,num_4,32,num_8,0.533504159353,,,2017_Apr_14_1852,60.0115488555,FEMA4ImagesEEG,001,200133,
AFNE01.JPG,AFNE01.JPG,AFNE01.JPG,AFNE01.JPG,AFNE01.JPG,AFNE01.JPG,,,,,,,,,,,,,,,,,4,7,47,6,,,,,,,AFNE17.jpg,AFSA06.jpg,AFSA18.jpg,AFNE20.jpg,AFNE17.jpg,FN,3,num_8,32,num_2,0.566764877196,,,2017_Apr_14_1852,60.0115488555,FEMA4ImagesEEG,001,200133,
AFNE01.JPG,AFNE01.JPG,AFNE01.JPG,AFNE01.JPG,AFNE01.JPG,AFNE01.JPG,,,,,,,,,,,,,,,,,4,8,48,0,,,,,,,AFNE12.jpg,AFNE16.jpg,AFSA17.jpg,AFSA09.jpg,AFSA17.jpg,FS,4,num_2,32,num_6,0.433503261283,,,2017_Apr_14_1852,60.0115488555,FEMA4ImagesEEG,001,200133,
AFNE01.JPG,AFNE01.JPG,AFNE01.JPG,AFNE01.JPG,AFNE01.JPG,AFNE01.JPG,,,,,,,,,,,,,,,,,4,9,49,8,,,,,,,AFNE06.jpg,AFSA16.jpg,AFSA17.jpg,AFNE18.jpg,AFNE18.jpg,FN,3,num_4,16,num_4,0.433483054676,,,2017_Apr_14_1852,60.0115488555,FEMA4ImagesEEG,001,200133,
AFNE01.JPG,AFNE01.JPG,AFNE01.JPG,AFNE01.JPG,AFNE01.JPG,AFNE01.JPG,,,,,,,,,,,,,,,,,5,0,50,1,,,,,,,AFNE19.jpg,AFSA15.jpg,AFSA18.jpg,AFNE11.jpg,AFNE11.jpg,FN,3,num_4,16,num_4,0.849783436483,,,2017_Apr_14_1852,60.0115488555,FEMA4ImagesEEG,001,200133,
AFNE01.JPG,AFNE01.JPG,AFNE01.JPG,AFNE01.JPG,AFNE01.JPG,AFNE01.JPG,,,,,,,,,,,,,,,,,5,1,51,9,,,,,,,AFNE07.jpg,AFSA19.jpg,AFSA20.jpg,AFNE01.jpg,AFSA19.jpg,FS,4,num_6,32,num_8,0.566813308906,,,2017_Apr_14_1852,60.0115488555,FEMA4ImagesEEG,001,200133,
AFNE01.JPG,AFNE01.JPG,AFNE01.JPG,AFNE01.JPG,AFNE01.JPG,AFNE01.JPG,,,,,,,,,,,,,,,,,5,2,52,5,,,,,,,AFNE08.jpg,AFNE09.jpg,AFSA03.jpg,AFSA15.jpg,AFSA15.jpg,FS,4,num_4,16,num_4,0.566813308906,,,2017_Apr_14_1852,60.0115488555,FEMA4ImagesEEG,001,200133,
AFNE01.JPG,AFNE01.JPG,AFNE01.JPG,AFNE01.JPG,AFNE01.JPG,AFNE01.JPG,,,,,,,,,,,,,,,,,5,3,53,3,,,,,,,AFSA17.jpg,AFSA10.jpg,AFNE18.jpg,AFNE20.jpg,AFSA10.jpg,FS,4,num_6,16,num_6,1.40007672096,,,2017_Apr_14_1852,60.0115488555,FEMA4ImagesEEG,001,200133,
AFNE01.JPG,AFNE01.JPG,AFNE01.JPG,AFNE01.JPG,AFNE01.JPG,AFNE01.JPG,,,,,,,,,,,,,,,,,5,4,54,0,,,,,,,AFSA04.jpg,AFSA14.jpg,AFNE17.jpg,AFNE04.jpg,AFSA04.jpg,FS,4,num_8,16,num_8,0.666815489934,,,2017_Apr_14_1852,60.0115488555,FEMA4ImagesEEG,001,200133,
AFNE01.JPG,AFNE01.JPG,AFNE01.JPG,AFNE01.JPG,AFNE01.JPG,AFNE01.JPG,,,,,,,,,,,,,,,,,5,5,55,2,,,,,,,AFSA19.jpg,AFSA16.jpg,AFNE03.jpg,AFNE12.jpg,AFNE12.jpg,FN,3,num_4,16,num_4,0.600190134559,,,2017_Apr_14_1852,60.0115488555,FEMA4ImagesEEG,001,200133,
AFNE01.JPG,AFNE01.JPG,AFNE01.JPG,AFNE01.JPG,AFNE01.JPG,AFNE01.JPG,,,,,,,,,,,,,,,,,5,6,56,7,,,,,,,AFSA13.jpg,AFNE05.jpg,AFNE20.jpg,AFSA02.jpg,AFSA13.jpg,FS,4,num_8,32,num_2,0.5168308213,,,2017_Apr_14_1852,60.0115488555,FEMA4ImagesEEG,001,200133,
AFNE01.JPG,AFNE01.JPG,AFNE01.JPG,AFNE01.JPG,AFNE01.JPG,AFNE01.JPG,,,,,,,,,,,,,,,,,5,7,57,6,,,,,,,AFNE02.jpg,AFSA12.jpg,AFSA13.jpg,AFNE04.jpg,AFSA12.jpg,FS,4,num_6,16,num_6,0.450123356528,,,2017_Apr_14_1852,60.0115488555,FEMA4ImagesEEG,001,200133,
AFNE01.JPG,AFNE01.JPG,AFNE01.JPG,AFNE01.JPG,AFNE01.JPG,AFNE01.JPG,,,,,,,,,,,,,,,,,5,8,58,4,,,,,,,AFSA08.jpg,AFSA09.jpg,AFNE05.jpg,AFNE04.jpg,AFSA09.jpg,FS,4,num_6,32,num_2,0.850136571007,,,2017_Apr_14_1852,60.0115488555,FEMA4ImagesEEG,001,200133,
AFNE01.JPG,AFNE01.JPG,AFNE01.JPG,AFNE01.JPG,AFNE01.JPG,AFNE01.JPG,,,,,,,,,,,,,,,,,5,9,59,8,,,,,,,AFSA03.jpg,AFNE13.jpg,AFSA17.jpg,AFNE15.jpg,AFSA03.jpg,FS,4,num_8,32,num_4,0.483472277818,,,2017_Apr_14_1852,60.0115488555,FEMA4ImagesEEG,001,200133,
,,,,,,,,,,,,,,,,,,,,,,,,,,,,,,,,,,,,,,,,,,,space,26.4314716954,2017_Apr_14_1852,60.0115488555,FEMA4ImagesEEG,001,200133,
AFNE01.JPG,AFNE01.JPG,AFNE01.JPG,AFNE01.JPG,AFNE01.JPG,AFNE01.JPG,,,,,,,,,,,,,,,,,,,,,0,0,0,5,,,AMSA08.jpg,AMNE11.jpg,AMNE14.jpg,AMSA14.jpg,AMSA14.jpg,MS,2,num_4,32,num_6,1.06674595355,,,2017_Apr_14_1852,60.0115488555,FEMA4ImagesEEG,001,200133,
AFNE01.JPG,AFNE01.JPG,AFNE01.JPG,AFNE01.JPG,AFNE01.JPG,AFNE01.JPG,,,,,,,,,,,,,,,,,,,,,0,1,1,2,,,AMNE12.jpg,AMNE16.jpg,AMSA19.jpg,AMSA02.jpg,AMSA02.jpg,MS,2,num_4,32,num_2,0.71679990198,,,2017_Apr_14_1852,60.0115488555,FEMA4ImagesEEG,001,200133,
AFNE01.JPG,AFNE01.JPG,AFNE01.JPG,AFNE01.JPG,AFNE01.JPG,AFNE01.JPG,,,,,,,,,,,,,,,,,,,,,0,2,2,8,,,AMNE14.jpg,AMSA02.jpg,AMNE15.jpg,AMSA12.jpg,AMSA02.jpg,MS,2,num_6,16,num_6,0.833454572978,,,2017_Apr_14_1852,60.0115488555,FEMA4ImagesEEG,001,200133,
AFNE01.JPG,AFNE01.JPG,AFNE01.JPG,AFNE01.JPG,AFNE01.JPG,AFNE01.JPG,,,,,,,,,,,,,,,,,,,,,0,3,3,6,,,AMSA02.jpg,AMNE07.jpg,AMSA05.jpg,AMNE01.jpg,AMSA05.jpg,MS,2,num_2,16,num_2,0.733523916926,,,2017_Apr_14_1852,60.0115488555,FEMA4ImagesEEG,001,200133,
AFNE01.JPG,AFNE01.JPG,AFNE01.JPG,AFNE01.JPG,AFNE01.JPG,AFNE01.JPG,,,,,,,,,,,,,,,,,,,,,0,4,4,3,,,AMSA16.jpg,AMNE18.jpg,AMNE06.jpg,AMSA15.jpg,AMSA15.jpg,MS,2,num_4,32,num_8,0.56687072133,,,2017_Apr_14_1852,60.0115488555,FEMA4ImagesEEG,001,200133,
AFNE01.JPG,AFNE01.JPG,AFNE01.JPG,AFNE01.JPG,AFNE01.JPG,AFNE01.JPG,,,,,,,,,,,,,,,,,,,,,0,5,5,0,,,AMNE17.jpg,AMSA17.jpg,AMSA04.jpg,AMNE04.jpg,AMNE04.jpg,MN,1,num_4,32,num_2,0.850114439963,,,2017_Apr_14_1852,60.0115488555,FEMA4ImagesEEG,001,200133,
AFNE01.JPG,AFNE01.JPG,AFNE01.JPG,AFNE01.JPG,AFNE01.JPG,AFNE01.JPG,,,,,,,,,,,,,,,,,,,,,0,6,6,1,,,AMSA17.jpg,AMNE14.jpg,AMNE18.jpg,AMSA06.jpg,AMSA06.jpg,MS,2,num_4,32,num_8,0.833504929131,,,2017_Apr_14_1852,60.0115488555,FEMA4ImagesEEG,001,200133,
AFNE01.JPG,AFNE01.JPG,AFNE01.JPG,AFNE01.JPG,AFNE01.JPG,AFNE01.JPG,,,,,,,,,,,,,,,,,,,,,0,7,7,9,,,AMNE02.jpg,AMSA11.jpg,AMNE07.jpg,AMSA06.jpg,AMNE07.jpg,MN,1,num_2,16,num_2,0.816769688292,,,2017_Apr_14_1852,60.0115488555,FEMA4ImagesEEG,001,200133,
AFNE01.JPG,AFNE01.JPG,AFNE01.JPG,AFNE01.JPG,AFNE01.JPG,AFNE01.JPG,,,,,,,,,,,,,,,,,,,,,0,8,8,7,,,AMSA15.jpg,AMNE07.jpg,AMNE15.jpg,AMSA01.jpg,AMSA01.jpg,MS,2,num_4,32,num_6,0.900133812647,,,2017_Apr_14_1852,60.0115488555,FEMA4ImagesEEG,001,200133,
AFNE01.JPG,AFNE01.JPG,AFNE01.JPG,AFNE01.JPG,AFNE01.JPG,AFNE01.JPG,,,,,,,,,,,,,,,,,,,,,0,9,9,4,,,AMSA10.jpg,AMNE19.jpg,AMSA14.jpg,AMNE20.jpg,AMSA14.jpg,MS,2,num_2,16,num_2,0.483466825241,,,2017_Apr_14_1852,60.0115488555,FEMA4ImagesEEG,001,200133,
AFNE01.JPG,AFNE01.JPG,AFNE01.JPG,AFNE01.JPG,AFNE01.JPG,AFNE01.JPG,,,,,,,,,,,,,,,,,,,,,1,0,10,0,,,AMSA14.jpg,AMSA20.jpg,AMNE18.jpg,AMNE04.jpg,AMNE04.jpg,MN,1,num_4,16,num_4,0.5001273337,,,2017_Apr_14_1852,60.0115488555,FEMA4ImagesEEG,001,200133,
AFNE01.JPG,AFNE01.JPG,AFNE01.JPG,AFNE01.JPG,AFNE01.JPG,AFNE01.JPG,,,,,,,,,,,,,,,,,,,,,1,1,11,4,,,AMNE03.jpg,AMSA10.jpg,AMSA12.jpg,AMNE16.jpg,AMNE16.jpg,MN,1,num_4,32,num_6,0.750096863419,,,2017_Apr_14_1852,60.0115488555,FEMA4ImagesEEG,001,200133,
AFNE01.JPG,AFNE01.JPG,AFNE01.JPG,AFNE01.JPG,AFNE01.JPG,AFNE01.JPG,,,,,,,,,,,,,,,,,,,,,1,2,12,3,,,AMSA01.jpg,AMSA09.jpg,AMNE07.jpg,AMNE13.jpg,AMSA01.jpg,MS,2,num_8,32,num_6,0.71672003777,,,2017_Apr_14_1852,60.0115488555,FEMA4ImagesEEG,001,200133,
AFNE01.JPG,AFNE01.JPG,AFNE01.JPG,AFNE01.JPG,AFNE01.JPG,AFNE01.JPG,,,,,,,,,,,,,,,,,,,,,1,3,13,1,,,AMNE11.jpg,AMSA18.jpg,AMNE13.jpg,AMSA11.jpg,AMNE13.jpg,MN,1,num_2,32,num_4,0.900123228232,,,2017_Apr_14_1852,60.0115488555,FEMA4ImagesEEG,001,200133,
AFNE01.JPG,AFNE01.JPG,AFNE01.JPG,AFNE01.JPG,AFNE01.JPG,AFNE01.JPG,,,,,,,,,,,,,,,,,,,,,1,4,14,6,,,AMNE13.jpg,AMSA15.jpg,AMSA07.jpg,AMNE18.jpg,AMNE13.jpg,MN,1,num_8,16,num_8,0.750108089313,,,2017_Apr_14_1852,60.0115488555,FEMA4ImagesEEG,001,200133,
AFNE01.JPG,AFNE01.JPG,AFNE01.JPG,AFNE01.JPG,AFNE01.JPG,AFNE01.JPG,,,,,,,,,,,,,,,,,,,,,1,5,15,8,,,AMNE12.jpg,AMNE03.jpg,AMSA20.jpg,AMSA18.jpg,AMNE12.jpg,MN,1,num_8,16,num_8,0.783491650502,,,2017_Apr_14_1852,60.0115488555,FEMA4ImagesEEG,001,200133,
AFNE01.JPG,AFNE01.JPG,AFNE01.JPG,AFNE01.JPG,AFNE01.JPG,AFNE01.JPG,,,,,,,,,,,,,,,,,,,,,1,6,16,2,,,AMSA12.jpg,AMSA07.jpg,AMNE02.jpg,AMNE10.jpg,AMSA12.jpg,MS,2,num_8,32,num_4,0.983444694193,,,2017_Apr_14_1852,60.0115488555,FEMA4ImagesEEG,001,200133,
AFNE01.JPG,AFNE01.JPG,AFNE01.JPG,AFNE01.JPG,AFNE01.JPG,AFNE01.JPG,,,,,,,,,,,,,,,,,,,,,1,7,17,5,,,AMSA19.jpg,AMNE05.jpg,AMSA10.jpg,AMNE03.jpg,AMNE05.jpg,MN,1,num_6,32,num_2,0.65012451119,,,2017_Apr_14_1852,60.0115488555,FEMA4ImagesEEG,001,200133,
AFNE01.JPG,AFNE01.JPG,AFNE01.JPG,AFNE01.JPG,AFNE01.JPG,AFNE01.JPG,,,,,,,,,,,,,,,,,,,,,1,8,18,7,,,AMSA05.jpg,AMNE14.jpg,AMSA16.jpg,AMNE18.jpg,AMNE14.jpg,MN,1,num_6,16,num_6,0.516794577703,,,2017_Apr_14_1852,60.0115488555,FEMA4ImagesEEG,001,200133,
AFNE01.JPG,AFNE01.JPG,AFNE01.JPG,AFNE01.JPG,AFNE01.JPG,AFNE01.JPG,,,,,,,,,,,,,,,,,,,,,1,9,19,9,,,AMSA05.jpg,AMNE06.jpg,AMSA09.jpg,AMNE10.jpg,AMNE06.jpg,MN,1,num_6,32,num_4,0.500004490357,,,2017_Apr_14_1852,60.0115488555,FEMA4ImagesEEG,001,200133,
AFNE01.JPG,AFNE01.JPG,AFNE01.JPG,AFNE01.JPG,AFNE01.JPG,AFNE01.JPG,,,,,,,,,,,,,,,,,,,,,2,0,20,0,,,AMNE18.jpg,AMNE01.jpg,AMSA02.jpg,AMSA13.jpg,AMSA02.jpg,MS,2,num_2,16,num_2,0.516745504512,,,2017_Apr_14_1852,60.0115488555,FEMA4ImagesEEG,001,200133,
AFNE01.JPG,AFNE01.JPG,AFNE01.JPG,AFNE01.JPG,AFNE01.JPG,AFNE01.JPG,,,,,,,,,,,,,,,,,,,,,2,1,21,7,,,AMNE14.jpg,AMNE01.jpg,AMSA10.jpg,AMSA12.jpg,AMSA12.jpg,MS,2,num_4,16,num_4,0.750167746919,,,2017_Apr_14_1852,60.0115488555,FEMA4ImagesEEG,001,200133,
AFNE01.JPG,AFNE01.JPG,AFNE01.JPG,AFNE01.JPG,AFNE01.JPG,AFNE01.JPG,,,,,,,,,,,,,,,,,,,,,2,2,22,2,,,AMSA17.jpg,AMNE20.jpg,AMSA09.jpg,AMNE19.jpg,AMSA17.jpg,MS,2,num_8,32,num_4,0.700150619414,,,2017_Apr_14_1852,60.0115488555,FEMA4ImagesEEG,001,200133,
AFNE01.JPG,AFNE01.JPG,AFNE01.JPG,AFNE01.JPG,AFNE01.JPG,AFNE01.JPG,,,,,,,,,,,,,,,,,,,,,2,3,23,9,,,AMSA07.jpg,AMNE08.jpg,AMNE12.jpg,AMSA18.jpg,AMSA07.jpg,MS,2,num_8,32,num_4,0.583480873644,,,2017_Apr_14_1852,60.0115488555,FEMA4ImagesEEG,001,200133,
AFNE01.JPG,AFNE01.JPG,AFNE01.JPG,AFNE01.JPG,AFNE01.JPG,AFNE01.JPG,,,,,,,,,,,,,,,,,,,,,2,4,24,3,,,AMSA10.jpg,AMNE20.jpg,AMNE03.jpg,AMSA09.jpg,AMSA09.jpg,MS,2,num_4,32,num_6,0.450140997222,,,2017_Apr_14_1852,60.0115488555,FEMA4ImagesEEG,001,200133,
AFNE01.JPG,AFNE01.JPG,AFNE01.JPG,AFNE01.JPG,AFNE01.JPG,AFNE01.JPG,,,,,,,,,,,,,,,,,,,,,2,5,25,6,,,AMSA06.jpg,AMNE03.jpg,AMSA12.jpg,AMNE12.jpg,AMNE12.jpg,MN,1,num_4,16,num_4,0.466812090093,,,2017_Apr_14_1852,60.0115488555,FEMA4ImagesEEG,001,200133,
AFNE01.JPG,AFNE01.JPG,AFNE01.JPG,AFNE01.JPG,AFNE01.JPG,AFNE01.JPG,,,,,,,,,,,,,,,,,,,,,2,6,26,8,,,AMNE17.jpg,AMSA01.jpg,AMNE04.jpg,AMSA10.jpg,AMSA10.jpg,MS,2,num_4,16,num_4,0.750111296715,,,2017_Apr_14_1852,60.0115488555,FEMA4ImagesEEG,001,200133,
AFNE01.JPG,AFNE01.JPG,AFNE01.JPG,AFNE01.JPG,AFNE01.JPG,AFNE01.JPG,,,,,,,,,,,,,,,,,,,,,2,7,27,4,,,AMSA18.jpg,AMNE11.jpg,AMSA20.jpg,AMNE14.jpg,AMSA20.jpg,MS,2,num_2,32,num_6,0.450184938571,,,2017_Apr_14_1852,60.0115488555,FEMA4ImagesEEG,001,200133,
AFNE01.JPG,AFNE01.JPG,AFNE01.JPG,AFNE01.JPG,AFNE01.JPG,AFNE01.JPG,,,,,,,,,,,,,,,,,,,,,2,8,28,1,,,AMNE18.jpg,AMSA01.jpg,AMSA10.jpg,AMNE09.jpg,AMSA10.jpg,MS,2,num_2,32,num_8,0.799956507683,,,2017_Apr_14_1852,60.0115488555,FEMA4ImagesEEG,001,200133,
AFNE01.JPG,AFNE01.JPG,AFNE01.JPG,AFNE01.JPG,AFNE01.JPG,AFNE01.JPG,,,,,,,,,,,,,,,,,,,,,2,9,29,5,,,AMNE19.jpg,AMSA19.jpg,AMNE14.jpg,AMSA04.jpg,AMNE19.jpg,MN,1,num_8,32,num_6,0.683512883475,,,2017_Apr_14_1852,60.0115488555,FEMA4ImagesEEG,001,200133,
AFNE01.JPG,AFNE01.JPG,AFNE01.JPG,AFNE01.JPG,AFNE01.JPG,AFNE01.JPG,,,,,,,,,,,,,,,,,,,,,3,0,30,6,,,AMNE02.jpg,AMSA16.jpg,AMNE18.jpg,AMSA18.jpg,AMNE02.jpg,MN,1,num_8,32,num_6,1.03345284098,,,2017_Apr_14_1852,60.0115488555,FEMA4ImagesEEG,001,200133,
AFNE01.JPG,AFNE01.JPG,AFNE01.JPG,AFNE01.JPG,AFNE01.JPG,AFNE01.JPG,,,,,,,,,,,,,,,,,,,,,3,1,31,1,,,AMNE02.jpg,AMSA15.jpg,AMNE18.jpg,AMSA10.jpg,AMSA10.jpg,MS,2,num_4,16,num_4,0.700183334873,,,2017_Apr_14_1852,60.0115488555,FEMA4ImagesEEG,001,200133,
AFNE01.JPG,AFNE01.JPG,AFNE01.JPG,AFNE01.JPG,AFNE01.JPG,AFNE01.JPG,,,,,,,,,,,,,,,,,,,,,3,2,32,7,,,AMSA09.jpg,AMSA06.jpg,AMNE20.jpg,AMNE12.jpg,AMNE12.jpg,MN,1,num_4,32,num_6,0.40014600076,,,2017_Apr_14_1852,60.0115488555,FEMA4ImagesEEG,001,200133,
AFNE01.JPG,AFNE01.JPG,AFNE01.JPG,AFNE01.JPG,AFNE01.JPG,AFNE01.JPG,,,,,,,,,,,,,,,,,,,,,3,3,33,3,,,AMNE16.jpg,AMSA06.jpg,AMNE01.jpg,AMSA05.jpg,AMNE16.jpg,MN,1,num_8,32,num_6,0.500195972021,,,2017_Apr_14_1852,60.0115488555,FEMA4ImagesEEG,001,200133,
AFNE01.JPG,AFNE01.JPG,AFNE01.JPG,AFNE01.JPG,AFNE01.JPG,AFNE01.JPG,,,,,,,,,,,,,,,,,,,,,3,4,34,0,,,AMNE16.jpg,AMNE04.jpg,AMSA20.jpg,AMSA13.jpg,AMNE16.jpg,MN,1,num_8,32,num_4,0.733338529317,,,2017_Apr_14_1852,60.0115488555,FEMA4ImagesEEG,001,200133,
AFNE01.JPG,AFNE01.JPG,AFNE01.JPG,AFNE01.JPG,AFNE01.JPG,AFNE01.JPG,,,,,,,,,,,,,,,,,,,,,3,5,35,2,,,AMNE02.jpg,AMNE13.jpg,AMSA12.jpg,AMSA13.jpg,AMNE02.jpg,MN,1,num_8,32,num_6,0.600112194785,,,2017_Apr_14_1852,60.0115488555,FEMA4ImagesEEG,001,200133,
AFNE01.JPG,AFNE01.JPG,AFNE01.JPG,AFNE01.JPG,AFNE01.JPG,AFNE01.JPG,,,,,,,,,,,,,,,,,,,,,3,6,36,4,,,AMNE19.jpg,AMSA20.jpg,AMSA19.jpg,AMNE20.jpg,AMNE20.jpg,MN,1,num_4,16,num_4,1.03345284098,,,2017_Apr_14_1852,60.0115488555,FEMA4ImagesEEG,001,200133,
AFNE01.JPG,AFNE01.JPG,AFNE01.JPG,AFNE01.JPG,AFNE01.JPG,AFNE01.JPG,,,,,,,,,,,,,,,,,,,,,3,7,37,9,,,AMNE01.jpg,AMNE10.jpg,AMSA13.jpg,AMSA16.jpg,AMNE10.jpg,MN,1,num_6,16,num_6,1.03342333292,,,2017_Apr_14_1852,60.0115488555,FEMA4ImagesEEG,001,200133,
AFNE01.JPG,AFNE01.JPG,AFNE01.JPG,AFNE01.JPG,AFNE01.JPG,AFNE01.JPG,,,,,,,,,,,,,,,,,,,,,3,8,38,5,,,AMSA14.jpg,AMNE14.jpg,AMNE20.jpg,AMSA12.jpg,AMNE20.jpg,MN,1,num_2,32,num_4,0.85016543759,,,2017_Apr_14_1852,60.0115488555,FEMA4ImagesEEG,001,200133,
