IPosition2,IPosition3,IPosition1,IPosition6,IPosition4,IPosition5,TrialsF1.thisRepN,TrialsF1.thisTrialN,TrialsF1.thisN,TrialsF1.thisIndex,TrialsM1.thisRepN,TrialsM1.thisTrialN,TrialsM1.thisN,TrialsM1.thisIndex,TrialsF2.thisRepN,TrialsF2.thisTrialN,TrialsF2.thisN,TrialsF2.thisIndex,TrialsM2.thisRepN,TrialsM2.thisTrialN,TrialsM2.thisN,TrialsM2.thisIndex,TrialsF3.thisRepN,TrialsF3.thisTrialN,TrialsF3.thisN,TrialsF3.thisIndex,TrialsM3.thisRepN,TrialsM3.thisTrialN,TrialsM3.thisN,TrialsM3.thisIndex,InstrKey_resp.keys,InstrKey_resp.rt,Image0 _Position,Image1 _Position,Image2 _Position,Image3 _Position,Center_image,condition,code,correct_answer,accuracy,Key_Resp.keys,Key_Resp.rt,BreakKey_resp.keys,BreakKey_resp.rt,date,frameRate,expName,session,participant,
,,,,,,,,,,,,,,,,,,,,,,,,,,,,,,space,16.2825855676,,,,,,,,,,,,,,2017_Apr_21_1208,60.0099509622,FEMA4ImagesEEG,001,200173,
AFNE23.JPG,AFNE24.JPG,AFNE22.JPG,AFSA24.JPG,AFSA22.JPG,AFSA23.JPG,0,0,0,8,,,,,,,,,,,,,,,,,,,,,,,AFSA05.jpg,AFNE06.jpg,AFSA04.jpg,AFNE14.jpg,AFNE06.jpg,FN,3,num_6,32,num_4,2.08333186328,,,2017_Apr_21_1208,60.0099509622,FEMA4ImagesEEG,001,200173,
AFSA21.JPG,AFNE22.JPG,AFNE21.JPG,AFSA23.JPG,AFSA22.JPG,AFNE23.JPG,0,1,1,0,,,,,,,,,,,,,,,,,,,,,,,AFNE12.jpg,AFSA11.jpg,AFSA14.jpg,AFNE05.jpg,AFSA11.jpg,FS,4,num_6,32,num_8,1.43341216032,,,2017_Apr_21_1208,60.0099509622,FEMA4ImagesEEG,001,200173,
AMNE22.JPG,AMSA24.JPG,AMSA22.JPG,AMNE25.JPG,AMNE24.JPG,AMSA25.JPG,0,2,2,7,,,,,,,,,,,,,,,,,,,,,,,AFNE12.jpg,AFSA09.jpg,AFNE13.jpg,AFSA04.jpg,AFSA09.jpg,FS,4,num_6,16,num_6,1.3500530342,,,2017_Apr_21_1208,60.0099509622,FEMA4ImagesEEG,001,200173,
AMSA21.JPG,AMNE22.JPG,AMNE21.JPG,AMSA23.JPG,AMSA22.JPG,AMNE23.JPG,0,3,3,1,,,,,,,,,,,,,,,,,,,,,,,AFNE15.jpg,AFNE20.jpg,AFSA12.jpg,AFSA02.jpg,AFNE15.jpg,FN,3,num_8,16,num_8,0.783325673023,,,2017_Apr_21_1208,60.0099509622,FEMA4ImagesEEG,001,200173,
AFSA25.JPG,AFNE24.JPG,AFSA24.JPG,AFNE21.JPG,AFSA21.JPG,AFNE25.JPG,0,4,4,2,,,,,,,,,,,,,,,,,,,,,,,AFSA13.jpg,AFNE14.jpg,AFNE11.jpg,AFSA08.jpg,AFNE11.jpg,FN,3,num_2,32,num_8,1.00012765417,,,2017_Apr_21_1208,60.0099509622,FEMA4ImagesEEG,001,200173,
AFNE22.JPG,AFSA24.JPG,AFSA22.JPG,AFNE25.JPG,AFNE24.JPG,AFSA25.JPG,0,5,5,6,,,,,,,,,,,,,,,,,,,,,,,AFNE13.jpg,AFNE10.jpg,AFSA14.jpg,AFSA13.jpg,AFSA14.jpg,FS,4,num_2,32,num_4,1.50005693117,,,2017_Apr_21_1208,60.0099509622,FEMA4ImagesEEG,001,200173,
AMNE23.JPG,AMNE24.JPG,AMNE22.JPG,AMSA24.JPG,AMSA22.JPG,AMSA23.JPG,0,6,6,9,,,,,,,,,,,,,,,,,,,,,,,AFNE17.jpg,AFNE07.jpg,AFSA20.jpg,AFSA01.jpg,AFSA20.jpg,FS,4,num_2,32,num_4,1.63341030001,,,2017_Apr_21_1208,60.0099509622,FEMA4ImagesEEG,001,200173,
AFSA21.JPG,AFNE23.JPG,AFNE21.JPG,AFSA25.JPG,AFNE25.JPG,AFSA23.JPG,0,7,7,4,,,,,,,,,,,,,,,,,,,,,,,AFSA12.jpg,AFNE05.jpg,AFSA01.jpg,AFNE11.jpg,AFSA12.jpg,FS,4,num_8,16,num_8,0.850117342372,,,2017_Apr_21_1208,60.0099509622,FEMA4ImagesEEG,001,200173,
AMSA25.JPG,AMNE24.JPG,AMSA24.JPG,AMNE26.JPG,AMSA21.JPG,AMNE25.JPG,0,8,8,3,,,,,,,,,,,,,,,,,,,,,,,AFNE19.jpg,AFSA18.jpg,AFNE20.jpg,AFSA07.jpg,AFNE20.jpg,FN,3,num_2,16,num_2,1.85007949523,,,2017_Apr_21_1208,60.0099509622,FEMA4ImagesEEG,001,200173,
AMSA21.JPG,AMNE23.JPG,AMNE21.JPG,AMSA25.JPG,AMNE25.JPG,AMSA23.JPG,0,9,9,5,,,,,,,,,,,,,,,,,,,,,,,AFSA01.jpg,AFSA19.jpg,AFNE05.jpg,AFNE14.jpg,AFSA19.jpg,FS,4,num_6,32,num_8,1.30012678815,,,2017_Apr_21_1208,60.0099509622,FEMA4ImagesEEG,001,200173,
AMSA21.JPG,AMNE23.JPG,AMNE21.JPG,AMSA25.JPG,AMNE25.JPG,AMSA23.JPG,,,,,0,0,0,5,,,,,,,,,,,,,,,,,,,AMSA19.jpg,AMNE13.jpg,AMNE08.jpg,AMSA13.jpg,AMSA19.jpg,MS,2,num_8,16,num_8,1.16677855112,,,2017_Apr_21_1208,60.0099509622,FEMA4ImagesEEG,001,200173,
AMNE23.JPG,AMNE24.JPG,AMNE22.JPG,AMSA24.JPG,AMSA22.JPG,AMSA23.JPG,,,,,0,1,1,9,,,,,,,,,,,,,,,,,,,AMSA15.jpg,AMNE18.jpg,AMNE01.jpg,AMSA02.jpg,AMNE18.jpg,MN,1,num_6,16,num_6,1.0667178994,,,2017_Apr_21_1208,60.0099509622,FEMA4ImagesEEG,001,200173,
AFSA21.JPG,AFNE23.JPG,AFNE21.JPG,AFSA25.JPG,AFNE25.JPG,AFSA23.JPG,,,,,0,2,2,4,,,,,,,,,,,,,,,,,,,AMSA02.jpg,AMNE05.jpg,AMNE06.jpg,AMSA15.jpg,AMNE06.jpg,MN,1,num_2,16,num_2,2.53331853653,,,2017_Apr_21_1208,60.0099509622,FEMA4ImagesEEG,001,200173,
AMNE22.JPG,AMSA24.JPG,AMSA22.JPG,AMNE25.JPG,AMNE24.JPG,AMSA25.JPG,,,,,0,3,3,7,,,,,,,,,,,,,,,,,,,AMSA13.jpg,AMSA08.jpg,AMNE14.jpg,AMNE20.jpg,AMNE14.jpg,MN,1,num_2,32,num_8,0.916873089038,,,2017_Apr_21_1208,60.0099509622,FEMA4ImagesEEG,001,200173,
AMSA25.JPG,AMNE24.JPG,AMSA24.JPG,AMNE26.JPG,AMSA21.JPG,AMNE25.JPG,,,,,0,4,4,3,,,,,,,,,,,,,,,,,,,AMSA19.jpg,AMNE02.jpg,AMNE08.jpg,AMSA03.jpg,AMNE02.jpg,MN,1,num_6,16,num_6,1.16671632772,,,2017_Apr_21_1208,60.0099509622,FEMA4ImagesEEG,001,200173,
AFSA25.JPG,AFNE24.JPG,AFSA24.JPG,AFNE21.JPG,AFSA21.JPG,AFNE25.JPG,,,,,0,5,5,2,,,,,,,,,,,,,,,,,,,AMSA17.jpg,AMNE20.jpg,AMNE12.jpg,AMSA16.jpg,AMNE20.jpg,MN,1,num_6,16,num_6,1.06676216138,,,2017_Apr_21_1208,60.0099509622,FEMA4ImagesEEG,001,200173,
AMSA21.JPG,AMNE22.JPG,AMNE21.JPG,AMSA23.JPG,AMSA22.JPG,AMNE23.JPG,,,,,0,6,6,1,,,,,,,,,,,,,,,,,,,AMSA03.jpg,AMNE16.jpg,AMSA13.jpg,AMNE02.jpg,AMNE16.jpg,MN,1,num_6,16,num_6,1.54988310667,,,2017_Apr_21_1208,60.0099509622,FEMA4ImagesEEG,001,200173,
AFNE23.JPG,AFNE24.JPG,AFNE22.JPG,AFSA24.JPG,AFSA22.JPG,AFSA23.JPG,,,,,0,7,7,8,,,,,,,,,,,,,,,,,,,AMNE19.jpg,AMSA17.jpg,AMSA12.jpg,AMNE15.jpg,AMSA12.jpg,MS,2,num_2,32,num_8,1.20007960749,,,2017_Apr_21_1208,60.0099509622,FEMA4ImagesEEG,001,200173,
AFNE22.JPG,AFSA24.JPG,AFSA22.JPG,AFNE25.JPG,AFNE24.JPG,AFSA25.JPG,,,,,0,8,8,6,,,,,,,,,,,,,,,,,,,AMSA17.jpg,AMNE03.jpg,AMNE11.jpg,AMSA20.jpg,AMNE03.jpg,MN,1,num_6,32,num_8,1.00023061142,,,2017_Apr_21_1208,60.0099509622,FEMA4ImagesEEG,001,200173,
AFSA21.JPG,AFNE22.JPG,AFNE21.JPG,AFSA23.JPG,AFSA22.JPG,AFNE23.JPG,,,,,0,9,9,0,,,,,,,,,,,,,,,,,,,AMSA14.jpg,AMNE01.jpg,AMSA13.jpg,AMNE14.jpg,AMNE01.jpg,MN,1,num_6,16,num_6,0.883514941146,,,2017_Apr_21_1208,60.0099509622,FEMA4ImagesEEG,001,200173,
AFSA25.JPG,AFNE24.JPG,AFSA24.JPG,AFNE21.JPG,AFSA21.JPG,AFNE25.JPG,,,,,,,,,0,0,0,2,,,,,,,,,,,,,,,AFNE10.jpg,AFSA07.jpg,AFNE02.jpg,AFSA02.jpg,AFSA07.jpg,FS,4,num_6,32,num_2,1.6500836006,,,2017_Apr_21_1208,60.0099509622,FEMA4ImagesEEG,001,200173,
AMSA21.JPG,AMNE23.JPG,AMNE21.JPG,AMSA25.JPG,AMNE25.JPG,AMSA23.JPG,,,,,,,,,0,1,1,5,,,,,,,,,,,,,,,AFNE20.jpg,AFNE17.jpg,AFSA15.jpg,AFSA14.jpg,AFSA14.jpg,FS,4,num_4,32,num_2,2.61660677934,,,2017_Apr_21_1208,60.0099509622,FEMA4ImagesEEG,001,200173,
AMNE23.JPG,AMNE24.JPG,AMNE22.JPG,AMSA24.JPG,AMSA22.JPG,AMSA23.JPG,,,,,,,,,0,2,2,9,,,,,,,,,,,,,,,AFNE15.jpg,AFSA15.jpg,AFNE17.jpg,AFSA09.jpg,AFSA09.jpg,FS,4,num_4,32,num_2,1.76667546562,,,2017_Apr_21_1208,60.0099509622,FEMA4ImagesEEG,001,200173,
AFNE23.JPG,AFNE24.JPG,AFNE22.JPG,AFSA24.JPG,AFSA22.JPG,AFSA23.JPG,,,,,,,,,0,3,3,8,,,,,,,,,,,,,,,AFNE09.jpg,AFSA12.jpg,AFSA11.jpg,AFNE12.jpg,AFSA12.jpg,FS,4,num_6,16,num_6,2.89998777985,,,2017_Apr_21_1208,60.0099509622,FEMA4ImagesEEG,001,200173,
AFSA21.JPG,AFNE23.JPG,AFNE21.JPG,AFSA25.JPG,AFNE25.JPG,AFSA23.JPG,,,,,,,,,0,4,4,4,,,,,,,,,,,,,,,AFSA03.jpg,AFNE09.jpg,AFNE08.jpg,AFSA12.jpg,AFNE09.jpg,FN,3,num_6,32,num_8,0.766725500871,,,2017_Apr_21_1208,60.0099509622,FEMA4ImagesEEG,001,200173,
AFNE22.JPG,AFSA24.JPG,AFSA22.JPG,AFNE25.JPG,AFNE24.JPG,AFSA25.JPG,,,,,,,,,0,5,5,6,,,,,,,,,,,,,,,AFSA09.jpg,AFNE01.jpg,AFNE08.jpg,AFSA03.jpg,AFSA03.jpg,FS,4,num_4,16,num_4,1.00007954333,,,2017_Apr_21_1208,60.0099509622,FEMA4ImagesEEG,001,200173,
AFSA21.JPG,AFNE22.JPG,AFNE21.JPG,AFSA23.JPG,AFSA22.JPG,AFNE23.JPG,,,,,,,,,0,6,6,0,,,,,,,,,,,,,,,AFNE20.jpg,AFNE02.jpg,AFSA13.jpg,AFSA12.jpg,AFSA12.jpg,FS,4,num_4,16,num_4,0.733425406797,,,2017_Apr_21_1208,60.0099509622,FEMA4ImagesEEG,001,200173,
AMSA21.JPG,AMNE22.JPG,AMNE21.JPG,AMSA23.JPG,AMSA22.JPG,AMNE23.JPG,,,,,,,,,0,7,7,1,,,,,,,,,,,,,,,AFSA03.jpg,AFNE03.jpg,AFSA17.jpg,AFNE14.jpg,AFSA03.jpg,FS,4,num_8,32,num_4,1.23342620867,,,2017_Apr_21_1208,60.0099509622,FEMA4ImagesEEG,001,200173,
AMNE22.JPG,AMSA24.JPG,AMSA22.JPG,AMNE25.JPG,AMNE24.JPG,AMSA25.JPG,,,,,,,,,0,8,8,7,,,,,,,,,,,,,,,AFSA01.jpg,AFSA14.jpg,AFNE12.jpg,AFNE06.jpg,AFNE06.jpg,FN,3,num_4,32,num_6,0.983461409807,,,2017_Apr_21_1208,60.0099509622,FEMA4ImagesEEG,001,200173,
AMSA25.JPG,AMNE24.JPG,AMSA24.JPG,AMNE26.JPG,AMSA21.JPG,AMNE25.JPG,,,,,,,,,0,9,9,3,,,,,,,,,,,,,,,AFSA03.jpg,AFSA07.jpg,AFNE09.jpg,AFNE04.jpg,AFNE04.jpg,FN,3,num_4,16,num_4,0.750099669676,,,2017_Apr_21_1208,60.0099509622,FEMA4ImagesEEG,001,200173,
AMNE22.JPG,AMSA24.JPG,AMSA22.JPG,AMNE25.JPG,AMNE24.JPG,AMSA25.JPG,,,,,,,,,,,,,0,0,0,7,,,,,,,,,,,AMNE02.jpg,AMNE16.jpg,AMSA15.jpg,AMSA17.jpg,AMNE02.jpg,MN,1,num_8,16,num_8,0.783475458156,,,2017_Apr_21_1208,60.0099509622,FEMA4ImagesEEG,001,200173,
AFSA21.JPG,AFNE23.JPG,AFNE21.JPG,AFSA25.JPG,AFNE25.JPG,AFSA23.JPG,,,,,,,,,,,,,0,1,1,4,,,,,,,,,,,AMSA18.jpg,AMNE05.jpg,AMNE16.jpg,AMSA17.jpg,AMSA17.jpg,MS,2,num_4,16,num_4,0.983529406483,,,2017_Apr_21_1208,60.0099509622,FEMA4ImagesEEG,001,200173,
AFSA21.JPG,AFNE22.JPG,AFNE21.JPG,AFSA23.JPG,AFSA22.JPG,AFNE23.JPG,,,,,,,,,,,,,0,2,2,0,,,,,,,,,,,AMNE19.jpg,AMSA18.jpg,AMNE01.jpg,AMSA10.jpg,AMSA18.jpg,MS,2,num_6,16,num_6,1.36674654135,,,2017_Apr_21_1208,60.0099509622,FEMA4ImagesEEG,001,200173,
AFNE23.JPG,AFNE24.JPG,AFNE22.JPG,AFSA24.JPG,AFSA22.JPG,AFSA23.JPG,,,,,,,,,,,,,0,3,3,8,,,,,,,,,,,AMNE18.jpg,AMSA14.jpg,AMSA08.jpg,AMNE04.jpg,AMSA08.jpg,MS,2,num_2,32,num_8,1.21675707767,,,2017_Apr_21_1208,60.0099509622,FEMA4ImagesEEG,001,200173,
AFSA25.JPG,AFNE24.JPG,AFSA24.JPG,AFNE21.JPG,AFSA21.JPG,AFNE25.JPG,,,,,,,,,,,,,0,4,4,2,,,,,,,,,,,AMSA01.jpg,AMNE04.jpg,AMSA04.jpg,AMNE03.jpg,AMNE03.jpg,MN,1,num_4,32,num_8,0.766733840108,,,2017_Apr_21_1208,60.0099509622,FEMA4ImagesEEG,001,200173,
AMNE23.JPG,AMNE24.JPG,AMNE22.JPG,AMSA24.JPG,AMSA22.JPG,AMSA23.JPG,,,,,,,,,,,,,0,5,5,9,,,,,,,,,,,AMNE14.jpg,AMNE17.jpg,AMSA11.jpg,AMSA12.jpg,AMNE17.jpg,MN,1,num_6,32,num_4,1.16677117412,,,2017_Apr_21_1208,60.0099509622,FEMA4ImagesEEG,001,200173,
AMSA25.JPG,AMNE24.JPG,AMSA24.JPG,AMNE26.JPG,AMSA21.JPG,AMNE25.JPG,,,,,,,,,,,,,0,6,6,3,,,,,,,,,,,AMNE02.jpg,AMSA02.jpg,AMNE10.jpg,AMSA05.jpg,AMNE02.jpg,MN,1,num_8,16,num_8,0.916790017567,,,2017_Apr_21_1208,60.0099509622,FEMA4ImagesEEG,001,200173,
AMSA21.JPG,AMNE23.JPG,AMNE21.JPG,AMSA25.JPG,AMNE25.JPG,AMSA23.JPG,,,,,,,,,,,,,0,7,7,5,,,,,,,,,,,AMNE12.jpg,AMNE16.jpg,AMSA05.jpg,AMSA18.jpg,AMSA05.jpg,MS,2,num_2,32,num_4,1.20004849572,,,2017_Apr_21_1208,60.0099509622,FEMA4ImagesEEG,001,200173,
AMSA21.JPG,AMNE22.JPG,AMNE21.JPG,AMSA23.JPG,AMSA22.JPG,AMNE23.JPG,,,,,,,,,,,,,0,8,8,1,,,,,,,,,,,AMNE12.jpg,AMSA15.jpg,AMSA01.jpg,AMNE14.jpg,AMSA01.jpg,MS,2,num_2,16,num_2,1.10008983902,,,2017_Apr_21_1208,60.0099509622,FEMA4ImagesEEG,001,200173,
AFNE22.JPG,AFSA24.JPG,AFSA22.JPG,AFNE25.JPG,AFNE24.JPG,AFSA25.JPG,,,,,,,,,,,,,0,9,9,6,,,,,,,,,,,AMSA09.jpg,AMSA06.jpg,AMNE18.jpg,AMNE19.jpg,AMSA06.jpg,MS,2,num_6,16,num_6,0.666837727535,,,2017_Apr_21_1208,60.0099509622,FEMA4ImagesEEG,001,200173,
AFSA25.JPG,AFNE24.JPG,AFSA24.JPG,AFNE21.JPG,AFSA21.JPG,AFNE25.JPG,,,,,,,,,,,,,,,,,0,0,0,2,,,,,,,AFNE11.jpg,AFNE18.jpg,AFSA13.jpg,AFSA06.jpg,AFNE11.jpg,FN,3,num_8,16,num_8,0.933434451639,,,2017_Apr_21_1208,60.0099509622,FEMA4ImagesEEG,001,200173,
AMNE23.JPG,AMNE24.JPG,AMNE22.JPG,AMSA24.JPG,AMSA22.JPG,AMSA23.JPG,,,,,,,,,,,,,,,,,0,1,1,9,,,,,,,AFSA08.jpg,AFNE12.jpg,AFNE03.jpg,AFSA14.jpg,AFNE03.jpg,FN,3,num_2,32,num_8,1.76686790906,,,2017_Apr_21_1208,60.0099509622,FEMA4ImagesEEG,001,200173,
AMSA21.JPG,AMNE22.JPG,AMNE21.JPG,AMSA23.JPG,AMSA22.JPG,AMNE23.JPG,,,,,,,,,,,,,,,,,0,2,2,1,,,,,,,AFSA09.jpg,AFSA07.jpg,AFNE05.jpg,AFNE12.jpg,AFSA07.jpg,FS,4,num_6,32,num_4,1.00006478926,,,2017_Apr_21_1208,60.0099509622,FEMA4ImagesEEG,001,200173,
AMSA21.JPG,AMNE23.JPG,AMNE21.JPG,AMSA25.JPG,AMNE25.JPG,AMSA23.JPG,,,,,,,,,,,,,,,,,0,3,3,5,,,,,,,AFSA19.jpg,AFNE12.jpg,AFNE20.jpg,AFSA12.jpg,AFSA12.jpg,FS,4,num_4,16,num_4,0.833456550608,,,2017_Apr_21_1208,60.0099509622,FEMA4ImagesEEG,001,200173,
AFSA21.JPG,AFNE23.JPG,AFNE21.JPG,AFSA25.JPG,AFNE25.JPG,AFSA23.JPG,,,,,,,,,,,,,,,,,0,4,4,4,,,,,,,AFSA12.jpg,AFNE14.jpg,AFNE20.jpg,AFSA01.jpg,AFSA12.jpg,FS,4,num_8,16,num_8,0.616792807996,,,2017_Apr_21_1208,60.0099509622,FEMA4ImagesEEG,001,200173,
AMNE22.JPG,AMSA24.JPG,AMSA22.JPG,AMNE25.JPG,AMNE24.JPG,AMSA25.JPG,,,,,,,,,,,,,,,,,0,5,5,7,,,,,,,AFSA06.jpg,AFNE09.jpg,AFNE15.jpg,AFSA10.jpg,AFSA06.jpg,FS,4,num_8,32,num_6,1.46669301001,,,2017_Apr_21_1208,60.0099509622,FEMA4ImagesEEG,001,200173,
AFNE23.JPG,AFNE24.JPG,AFNE22.JPG,AFSA24.JPG,AFSA22.JPG,AFSA23.JPG,,,,,,,,,,,,,,,,,0,6,6,8,,,,,,,AFNE11.jpg,AFSA10.jpg,AFNE01.jpg,AFSA18.jpg,AFNE11.jpg,FN,3,num_8,16,num_8,1.08344444272,,,2017_Apr_21_1208,60.0099509622,FEMA4ImagesEEG,001,200173,
AMSA25.JPG,AMNE24.JPG,AMSA24.JPG,AMNE26.JPG,AMSA21.JPG,AMNE25.JPG,,,,,,,,,,,,,,,,,0,7,7,3,,,,,,,AFSA19.jpg,AFNE15.jpg,AFSA16.jpg,AFNE03.jpg,AFSA16.jpg,FS,4,num_2,16,num_2,3.54961432732,,,2017_Apr_21_1208,60.0099509622,FEMA4ImagesEEG,001,200173,
AFNE22.JPG,AFSA24.JPG,AFSA22.JPG,AFNE25.JPG,AFNE24.JPG,AFSA25.JPG,,,,,,,,,,,,,,,,,0,8,8,6,,,,,,,AFSA01.jpg,AFNE12.jpg,AFNE15.jpg,AFSA12.jpg,AFSA12.jpg,FS,4,num_4,16,num_4,0.900157130091,,,2017_Apr_21_1208,60.0099509622,FEMA4ImagesEEG,001,200173,
AFSA21.JPG,AFNE22.JPG,AFNE21.JPG,AFSA23.JPG,AFSA22.JPG,AFNE23.JPG,,,,,,,,,,,,,,,,,0,9,9,0,,,,,,,AFNE20.jpg,AFSA16.jpg,AFNE07.jpg,AFSA05.jpg,AFSA05.jpg,FS,4,num_4,16,num_4,0.883287216362,,,2017_Apr_21_1208,60.0099509622,FEMA4ImagesEEG,001,200173,
AFNE22.JPG,AFSA24.JPG,AFSA22.JPG,AFNE25.JPG,AFNE24.JPG,AFSA25.JPG,,,,,,,,,,,,,,,,,,,,,0,0,0,6,,,AMNE07.jpg,AMSA07.jpg,AMNE19.jpg,AMSA16.jpg,AMSA16.jpg,MS,2,num_4,32,num_6,0.866648876341,,,2017_Apr_21_1208,60.0099509622,FEMA4ImagesEEG,001,200173,
AFSA21.JPG,AFNE23.JPG,AFNE21.JPG,AFSA25.JPG,AFNE25.JPG,AFSA23.JPG,,,,,,,,,,,,,,,,,,,,,0,1,1,4,,,AMSA01.jpg,AMNE18.jpg,AMSA04.jpg,AMNE12.jpg,AMSA04.jpg,MS,2,num_2,32,num_8,1.23338419182,,,2017_Apr_21_1208,60.0099509622,FEMA4ImagesEEG,001,200173,
AMNE23.JPG,AMNE24.JPG,AMNE22.JPG,AMSA24.JPG,AMSA22.JPG,AMSA23.JPG,,,,,,,,,,,,,,,,,,,,,0,2,2,9,,,AMSA12.jpg,AMSA17.jpg,AMNE20.jpg,AMNE15.jpg,AMNE15.jpg,MN,1,num_4,32,num_8,1.85007725004,,,2017_Apr_21_1208,60.0099509622,FEMA4ImagesEEG,001,200173,
AFNE23.JPG,AFNE24.JPG,AFNE22.JPG,AFSA24.JPG,AFSA22.JPG,AFSA23.JPG,,,,,,,,,,,,,,,,,,,,,0,3,3,8,,,AMSA06.jpg,AMNE02.jpg,AMNE10.jpg,AMSA15.jpg,AMSA06.jpg,MS,2,num_8,16,num_8,0.716803103744,,,2017_Apr_21_1208,60.0099509622,FEMA4ImagesEEG,001,200173,
AFSA25.JPG,AFNE24.JPG,AFSA24.JPG,AFNE21.JPG,AFSA21.JPG,AFNE25.JPG,,,,,,,,,,,,,,,,,,,,,0,4,4,2,,,AMNE14.jpg,AMSA11.jpg,AMNE20.jpg,AMSA02.jpg,AMNE20.jpg,MN,1,num_2,16,num_2,1.89989925583,,,2017_Apr_21_1208,60.0099509622,FEMA4ImagesEEG,001,200173,
AMNE22.JPG,AMSA24.JPG,AMSA22.JPG,AMNE25.JPG,AMNE24.JPG,AMSA25.JPG,,,,,,,,,,,,,,,,,,,,,0,5,5,7,,,AMNE05.jpg,AMSA05.jpg,AMSA18.jpg,AMNE13.jpg,AMNE05.jpg,MN,1,num_8,32,num_2,1.30004179227,,,2017_Apr_21_1208,60.0099509622,FEMA4ImagesEEG,001,200173,
AMSA25.JPG,AMNE24.JPG,AMSA24.JPG,AMNE26.JPG,AMSA21.JPG,AMNE25.JPG,,,,,,,,,,,,,,,,,,,,,0,6,6,3,,,AMNE08.jpg,AMSA20.jpg,AMSA11.jpg,AMNE15.jpg,AMSA11.jpg,MS,2,num_2,32,num_6,1.73337729595,,,2017_Apr_21_1208,60.0099509622,FEMA4ImagesEEG,001,200173,
AMSA21.JPG,AMNE22.JPG,AMNE21.JPG,AMSA23.JPG,AMSA22.JPG,AMNE23.JPG,,,,,,,,,,,,,,,,,,,,,0,7,7,1,,,AMSA02.jpg,AMNE19.jpg,AMNE11.jpg,AMSA17.jpg,AMNE19.jpg,MN,1,num_6,16,num_6,1.1000895183,,,2017_Apr_21_1208,60.0099509622,FEMA4ImagesEEG,001,200173,
AMSA21.JPG,AMNE23.JPG,AMNE21.JPG,AMSA25.JPG,AMNE25.JPG,AMSA23.JPG,,,,,,,,,,,,,,,,,,,,,0,8,8,5,,,AMNE15.jpg,AMSA12.jpg,AMNE12.jpg,AMSA07.jpg,AMNE12.jpg,MN,1,num_2,32,num_8,2.30007675284,,,2017_Apr_21_1208,60.0099509622,FEMA4ImagesEEG,001,200173,
AFSA21.JPG,AFNE22.JPG,AFNE21.JPG,AFSA23.JPG,AFSA22.JPG,AFNE23.JPG,,,,,,,,,,,,,,,,,,,,,0,9,9,0,,,AMNE16.jpg,AMSA01.jpg,AMNE14.jpg,AMSA17.jpg,AMNE14.jpg,MN,1,num_2,16,num_2,1.63344429841,,,2017_Apr_21_1208,60.0099509622,FEMA4ImagesEEG,001,200173,
,,,,,,,,,,,,,,,,,,,,,,,,,,,,,,,,,,,,,,,,,,,space,14.9326345284,2017_Apr_21_1208,60.0099509622,FEMA4ImagesEEG,001,200173,
AFNE01.JPG,AFNE01.JPG,AFNE01.JPG,AFNE01.JPG,AFNE01.JPG,AFNE01.JPG,0,0,0,1,,,,,,,,,,,,,,,,,,,,,,,AFSA06.jpg,AFNE20.jpg,AFSA17.jpg,AFNE03.jpg,AFNE03.jpg,FN,3,num_4,32,num_8,1.33341148676,,,2017_Apr_21_1208,60.0099509622,FEMA4ImagesEEG,001,200173,
AFNE01.JPG,AFNE01.JPG,AFNE01.JPG,AFNE01.JPG,AFNE01.JPG,AFNE01.JPG,0,1,1,5,,,,,,,,,,,,,,,,,,,,,,,AFSA18.jpg,AFNE18.jpg,AFSA08.jpg,AFNE17.jpg,AFSA18.jpg,FS,4,num_8,16,num_8,1.93338185048,,,2017_Apr_21_1208,60.0099509622,FEMA4ImagesEEG,001,200173,
AFNE01.JPG,AFNE01.JPG,AFNE01.JPG,AFNE01.JPG,AFNE01.JPG,AFNE01.JPG,0,2,2,6,,,,,,,,,,,,,,,,,,,,,,,AFNE01.jpg,AFNE06.jpg,AFSA20.jpg,AFSA15.jpg,AFNE06.jpg,FN,3,num_6,32,num_8,0.86673675885,,,2017_Apr_21_1208,60.0099509622,FEMA4ImagesEEG,001,200173,
AFNE01.JPG,AFNE01.JPG,AFNE01.JPG,AFNE01.JPG,AFNE01.JPG,AFNE01.JPG,0,3,3,9,,,,,,,,,,,,,,,,,,,,,,,AFNE16.jpg,AFNE17.jpg,AFSA11.jpg,AFSA06.jpg,AFNE16.jpg,FN,3,num_8,16,num_8,0.650077827333,,,2017_Apr_21_1208,60.0099509622,FEMA4ImagesEEG,001,200173,
AFNE01.JPG,AFNE01.JPG,AFNE01.JPG,AFNE01.JPG,AFNE01.JPG,AFNE01.JPG,0,4,4,0,,,,,,,,,,,,,,,,,,,,,,,AFNE15.jpg,AFSA17.jpg,AFNE19.jpg,AFSA13.jpg,AFNE15.jpg,FN,3,num_8,16,num_8,0.933407188859,,,2017_Apr_21_1208,60.0099509622,FEMA4ImagesEEG,001,200173,
AFNE01.JPG,AFNE01.JPG,AFNE01.JPG,AFNE01.JPG,AFNE01.JPG,AFNE01.JPG,0,5,5,3,,,,,,,,,,,,,,,,,,,,,,,AFSA17.jpg,AFNE07.jpg,AFSA14.jpg,AFNE05.jpg,AFNE07.jpg,FN,3,num_6,16,num_6,0.883485112397,,,2017_Apr_21_1208,60.0099509622,FEMA4ImagesEEG,001,200173,
AFNE01.JPG,AFNE01.JPG,AFNE01.JPG,AFNE01.JPG,AFNE01.JPG,AFNE01.JPG,0,6,6,4,,,,,,,,,,,,,,,,,,,,,,,AFNE08.jpg,AFSA10.jpg,AFSA17.jpg,AFNE11.jpg,AFNE11.jpg,FN,3,num_4,16,num_4,0.816788702563,,,2017_Apr_21_1208,60.0099509622,FEMA4ImagesEEG,001,200173,
AFNE01.JPG,AFNE01.JPG,AFNE01.JPG,AFNE01.JPG,AFNE01.JPG,AFNE01.JPG,0,7,7,8,,,,,,,,,,,,,,,,,,,,,,,AFSA12.jpg,AFNE18.jpg,AFNE17.jpg,AFSA16.jpg,AFNE18.jpg,FN,3,num_6,32,num_8,0.733449141553,,,2017_Apr_21_1208,60.0099509622,FEMA4ImagesEEG,001,200173,
AFNE01.JPG,AFNE01.JPG,AFNE01.JPG,AFNE01.JPG,AFNE01.JPG,AFNE01.JPG,0,8,8,2,,,,,,,,,,,,,,,,,,,,,,,AFSA09.jpg,AFSA13.jpg,AFNE13.jpg,AFNE05.jpg,AFNE13.jpg,FN,3,num_2,32,num_8,1.00033837976,,,2017_Apr_21_1208,60.0099509622,FEMA4ImagesEEG,001,200173,
AFNE01.JPG,AFNE01.JPG,AFNE01.JPG,AFNE01.JPG,AFNE01.JPG,AFNE01.JPG,0,9,9,7,,,,,,,,,,,,,,,,,,,,,,,AFNE12.jpg,AFSA07.jpg,AFSA16.jpg,AFNE02.jpg,AFNE02.jpg,FN,3,num_4,16,num_4,1.21671409864,,,2017_Apr_21_1208,60.0099509622,FEMA4ImagesEEG,001,200173,
AFNE01.JPG,AFNE01.JPG,AFNE01.JPG,AFNE01.JPG,AFNE01.JPG,AFNE01.JPG,1,0,10,6,,,,,,,,,,,,,,,,,,,,,,,AFSA08.jpg,AFNE05.jpg,AFSA05.jpg,AFNE03.jpg,AFNE05.jpg,FN,3,num_6,32,num_4,1.73338627664,,,2017_Apr_21_1208,60.0099509622,FEMA4ImagesEEG,001,200173,
AFNE01.JPG,AFNE01.JPG,AFNE01.JPG,AFNE01.JPG,AFNE01.JPG,AFNE01.JPG,1,1,11,9,,,,,,,,,,,,,,,,,,,,,,,AFNE02.jpg,AFNE10.jpg,AFSA18.jpg,AFSA11.jpg,AFSA18.jpg,FS,4,num_2,16,num_2,1.88336611824,,,2017_Apr_21_1208,60.0099509622,FEMA4ImagesEEG,001,200173,
AFNE01.JPG,AFNE01.JPG,AFNE01.JPG,AFNE01.JPG,AFNE01.JPG,AFNE01.JPG,1,2,12,4,,,,,,,,,,,,,,,,,,,,,,,AFSA01.jpg,AFNE12.jpg,AFNE20.jpg,AFSA13.jpg,AFNE20.jpg,FN,3,num_2,32,num_8,1.45007648022,,,2017_Apr_21_1208,60.0099509622,FEMA4ImagesEEG,001,200173,
AFNE01.JPG,AFNE01.JPG,AFNE01.JPG,AFNE01.JPG,AFNE01.JPG,AFNE01.JPG,1,3,13,0,,,,,,,,,,,,,,,,,,,,,,,AFSA07.jpg,AFNE02.jpg,AFNE14.jpg,AFSA13.jpg,AFSA13.jpg,FS,4,num_4,16,num_4,1.45005434926,,,2017_Apr_21_1208,60.0099509622,FEMA4ImagesEEG,001,200173,
AFNE01.JPG,AFNE01.JPG,AFNE01.JPG,AFNE01.JPG,AFNE01.JPG,AFNE01.JPG,1,4,14,2,,,,,,,,,,,,,,,,,,,,,,,AFNE19.jpg,AFSA15.jpg,AFSA19.jpg,AFNE01.jpg,AFNE19.jpg,FN,3,num_8,16,num_8,2.31671156478,,,2017_Apr_21_1208,60.0099509622,FEMA4ImagesEEG,001,200173,
AFNE01.JPG,AFNE01.JPG,AFNE01.JPG,AFNE01.JPG,AFNE01.JPG,AFNE01.JPG,1,5,15,8,,,,,,,,,,,,,,,,,,,,,,,AFSA08.jpg,AFSA18.jpg,AFNE06.jpg,AFNE13.jpg,AFNE06.jpg,FN,3,num_2,16,num_2,1.43336693605,,,2017_Apr_21_1208,60.0099509622,FEMA4ImagesEEG,001,200173,
AFNE01.JPG,AFNE01.JPG,AFNE01.JPG,AFNE01.JPG,AFNE01.JPG,AFNE01.JPG,1,6,16,7,,,,,,,,,,,,,,,,,,,,,,,AFNE19.jpg,AFSA16.jpg,AFNE15.jpg,AFSA02.jpg,AFSA02.jpg,FS,4,num_4,32,num_6,2.04990892613,,,2017_Apr_21_1208,60.0099509622,FEMA4ImagesEEG,001,200173,
AFNE01.JPG,AFNE01.JPG,AFNE01.JPG,AFNE01.JPG,AFNE01.JPG,AFNE01.JPG,1,7,17,5,,,,,,,,,,,,,,,,,,,,,,,AFNE10.jpg,AFSA04.jpg,AFNE19.jpg,AFSA17.jpg,AFSA17.jpg,FS,4,num_4,16,num_4,1.05016231001,,,2017_Apr_21_1208,60.0099509622,FEMA4ImagesEEG,001,200173,
AFNE01.JPG,AFNE01.JPG,AFNE01.JPG,AFNE01.JPG,AFNE01.JPG,AFNE01.JPG,1,8,18,1,,,,,,,,,,,,,,,,,,,,,,,AFSA18.jpg,AFSA16.jpg,AFNE06.jpg,AFNE03.jpg,AFSA16.jpg,FS,4,num_6,16,num_6,0.633564896241,,,2017_Apr_21_1208,60.0099509622,FEMA4ImagesEEG,001,200173,
AFNE01.JPG,AFNE01.JPG,AFNE01.JPG,AFNE01.JPG,AFNE01.JPG,AFNE01.JPG,1,9,19,3,,,,,,,,,,,,,,,,,,,,,,,AFSA06.jpg,AFNE20.jpg,AFNE06.jpg,AFSA15.jpg,AFSA06.jpg,FS,4,num_8,16,num_8,1.65009450581,,,2017_Apr_21_1208,60.0099509622,FEMA4ImagesEEG,001,200173,
AFNE01.JPG,AFNE01.JPG,AFNE01.JPG,AFNE01.JPG,AFNE01.JPG,AFNE01.JPG,2,0,20,4,,,,,,,,,,,,,,,,,,,,,,,AFNE10.jpg,AFNE12.jpg,AFSA14.jpg,AFSA03.jpg,AFNE10.jpg,FN,3,num_8,16,num_8,0.750116348092,,,2017_Apr_21_1208,60.0099509622,FEMA4ImagesEEG,001,200173,
AFNE01.JPG,AFNE01.JPG,AFNE01.JPG,AFNE01.JPG,AFNE01.JPG,AFNE01.JPG,2,1,21,1,,,,,,,,,,,,,,,,,,,,,,,AFSA14.jpg,AFNE11.jpg,AFNE03.jpg,AFSA10.jpg,AFSA10.jpg,FS,4,num_4,16,num_4,0.716785783821,,,2017_Apr_21_1208,60.0099509622,FEMA4ImagesEEG,001,200173,
AFNE01.JPG,AFNE01.JPG,AFNE01.JPG,AFNE01.JPG,AFNE01.JPG,AFNE01.JPG,2,2,22,6,,,,,,,,,,,,,,,,,,,,,,,AFNE06.jpg,AFSA14.jpg,AFSA09.jpg,AFNE08.jpg,AFSA09.jpg,FS,4,num_2,16,num_2,2.56665038381,,,2017_Apr_21_1208,60.0099509622,FEMA4ImagesEEG,001,200173,
AFNE01.JPG,AFNE01.JPG,AFNE01.JPG,AFNE01.JPG,AFNE01.JPG,AFNE01.JPG,2,3,23,9,,,,,,,,,,,,,,,,,,,,,,,AFNE01.jpg,AFSA05.jpg,AFSA17.jpg,AFNE19.jpg,AFNE19.jpg,FN,3,num_4,32,num_8,0.883462981437,,,2017_Apr_21_1208,60.0099509622,FEMA4ImagesEEG,001,200173,
AFNE01.JPG,AFNE01.JPG,AFNE01.JPG,AFNE01.JPG,AFNE01.JPG,AFNE01.JPG,2,4,24,3,,,,,,,,,,,,,,,,,,,,,,,AFSA12.jpg,AFNE05.jpg,AFSA15.jpg,AFNE06.jpg,AFSA12.jpg,FS,4,num_8,16,num_8,0.716765897989,,,2017_Apr_21_1208,60.0099509622,FEMA4ImagesEEG,001,200173,
AFNE01.JPG,AFNE01.JPG,AFNE01.JPG,AFNE01.JPG,AFNE01.JPG,AFNE01.JPG,2,5,25,2,,,,,,,,,,,,,,,,,,,,,,,AFNE18.jpg,AFNE14.jpg,AFSA04.jpg,AFSA14.jpg,AFSA04.jpg,FS,4,num_2,16,num_2,1.73338467302,,,2017_Apr_21_1208,60.0099509622,FEMA4ImagesEEG,001,200173,
AFNE01.JPG,AFNE01.JPG,AFNE01.JPG,AFNE01.JPG,AFNE01.JPG,AFNE01.JPG,2,6,26,7,,,,,,,,,,,,,,,,,,,,,,,AFNE20.jpg,AFNE10.jpg,AFSA17.jpg,AFSA19.jpg,AFSA17.jpg,FS,4,num_2,16,num_2,1.81671942293,,,2017_Apr_21_1208,60.0099509622,FEMA4ImagesEEG,001,200173,
AFNE01.JPG,AFNE01.JPG,AFNE01.JPG,AFNE01.JPG,AFNE01.JPG,AFNE01.JPG,2,7,27,0,,,,,,,,,,,,,,,,,,,,,,,AFNE13.jpg,AFSA09.jpg,AFSA07.jpg,AFNE20.jpg,AFNE20.jpg,FN,3,num_4,16,num_4,1.18343453185,,,2017_Apr_21_1208,60.0099509622,FEMA4ImagesEEG,001,200173,
AFNE01.JPG,AFNE01.JPG,AFNE01.JPG,AFNE01.JPG,AFNE01.JPG,AFNE01.JPG,2,8,28,8,,,,,,,,,,,,,,,,,,,,,,,AFNE13.jpg,AFSA19.jpg,AFNE20.jpg,AFSA10.jpg,AFNE20.jpg,FN,3,num_2,32,num_4,0.933416811051,,,2017_Apr_21_1208,60.0099509622,FEMA4ImagesEEG,001,200173,
AFNE01.JPG,AFNE01.JPG,AFNE01.JPG,AFNE01.JPG,AFNE01.JPG,AFNE01.JPG,2,9,29,5,,,,,,,,,,,,,,,,,,,,,,,AFNE11.jpg,AFNE19.jpg,AFSA02.jpg,AFSA15.jpg,AFNE11.jpg,FN,3,num_8,16,num_8,0.983425166283,,,2017_Apr_21_1208,60.0099509622,FEMA4ImagesEEG,001,200173,
AFNE01.JPG,AFNE01.JPG,AFNE01.JPG,AFNE01.JPG,AFNE01.JPG,AFNE01.JPG,3,0,30,4,,,,,,,,,,,,,,,,,,,,,,,AFNE18.jpg,AFSA04.jpg,AFSA18.jpg,AFNE12.jpg,AFNE18.jpg,FN,3,num_8,32,num_4,1.40005978575,,,2017_Apr_21_1208,60.0099509622,FEMA4ImagesEEG,001,200173,
AFNE01.JPG,AFNE01.JPG,AFNE01.JPG,AFNE01.JPG,AFNE01.JPG,AFNE01.JPG,3,1,31,8,,,,,,,,,,,,,,,,,,,,,,,AFSA01.jpg,AFNE11.jpg,AFSA03.jpg,AFNE07.jpg,AFNE07.jpg,FN,3,num_4,16,num_4,1.5000530823,,,2017_Apr_21_1208,60.0099509622,FEMA4ImagesEEG,001,200173,
AFNE01.JPG,AFNE01.JPG,AFNE01.JPG,AFNE01.JPG,AFNE01.JPG,AFNE01.JPG,3,2,32,1,,,,,,,,,,,,,,,,,,,,,,,AFNE15.jpg,AFSA07.jpg,AFSA05.jpg,AFNE12.jpg,AFSA07.jpg,FS,4,num_6,16,num_6,1.21672404156,,,2017_Apr_21_1208,60.0099509622,FEMA4ImagesEEG,001,200173,
AFNE01.JPG,AFNE01.JPG,AFNE01.JPG,AFNE01.JPG,AFNE01.JPG,AFNE01.JPG,3,3,33,9,,,,,,,,,,,,,,,,,,,,,,,AFSA18.jpg,AFNE03.jpg,AFNE11.jpg,AFSA01.jpg,AFSA01.jpg,FS,4,num_4,16,num_4,1.01675380615,,,2017_Apr_21_1208,60.0099509622,FEMA4ImagesEEG,001,200173,
AFNE01.JPG,AFNE01.JPG,AFNE01.JPG,AFNE01.JPG,AFNE01.JPG,AFNE01.JPG,3,4,34,7,,,,,,,,,,,,,,,,,,,,,,,AFNE06.jpg,AFSA11.jpg,AFNE03.jpg,AFSA05.jpg,AFNE03.jpg,FN,3,num_2,32,num_8,1.25007898203,,,2017_Apr_21_1208,60.0099509622,FEMA4ImagesEEG,001,200173,
AFNE01.JPG,AFNE01.JPG,AFNE01.JPG,AFNE01.JPG,AFNE01.JPG,AFNE01.JPG,3,5,35,6,,,,,,,,,,,,,,,,,,,,,,,AFSA06.jpg,AFNE16.jpg,AFSA02.jpg,AFNE14.jpg,AFNE16.jpg,FN,3,num_6,32,num_8,1.03342935193,,,2017_Apr_21_1208,60.0099509622,FEMA4ImagesEEG,001,200173,
AFNE01.JPG,AFNE01.JPG,AFNE01.JPG,AFNE01.JPG,AFNE01.JPG,AFNE01.JPG,3,6,36,3,,,,,,,,,,,,,,,,,,,,,,,AFNE01.jpg,AFNE13.jpg,AFSA04.jpg,AFSA03.jpg,AFSA04.jpg,FS,4,num_2,16,num_2,2.15000229329,,,2017_Apr_21_1208,60.0099509622,FEMA4ImagesEEG,001,200173,
AFNE01.JPG,AFNE01.JPG,AFNE01.JPG,AFNE01.JPG,AFNE01.JPG,AFNE01.JPG,3,7,37,2,,,,,,,,,,,,,,,,,,,,,,,AFSA09.jpg,AFSA13.jpg,AFNE16.jpg,AFNE20.jpg,AFNE20.jpg,FN,3,num_4,16,num_4,1.00012989936,,,2017_Apr_21_1208,60.0099509622,FEMA4ImagesEEG,001,200173,
AFNE01.JPG,AFNE01.JPG,AFNE01.JPG,AFNE01.JPG,AFNE01.JPG,AFNE01.JPG,3,8,38,0,,,,,,,,,,,,,,,,,,,,,,,AFSA11.jpg,AFNE02.jpg,AFSA20.jpg,AFNE17.jpg,AFSA20.jpg,FS,4,num_2,32,num_4,1.18372159335,,,2017_Apr_21_1208,60.0099509622,FEMA4ImagesEEG,001,200173,
AFNE01.JPG,AFNE01.JPG,AFNE01.JPG,AFNE01.JPG,AFNE01.JPG,AFNE01.JPG,3,9,39,5,,,,,,,,,,,,,,,,,,,,,,,AFSA04.jpg,AFNE01.jpg,AFSA18.jpg,AFNE02.jpg,AFSA18.jpg,FS,4,num_2,16,num_2,2.10009112197,,,2017_Apr_21_1208,60.0099509622,FEMA4ImagesEEG,001,200173,
AFNE01.JPG,AFNE01.JPG,AFNE01.JPG,AFNE01.JPG,AFNE01.JPG,AFNE01.JPG,4,0,40,2,,,,,,,,,,,,,,,,,,,,,,,AFNE04.jpg,AFNE17.jpg,AFSA09.jpg,AFSA04.jpg,AFNE17.jpg,FN,3,num_6,16,num_6,1.40006620053,,,2017_Apr_21_1208,60.0099509622,FEMA4ImagesEEG,001,200173,
AFNE01.JPG,AFNE01.JPG,AFNE01.JPG,AFNE01.JPG,AFNE01.JPG,AFNE01.JPG,4,1,41,1,,,,,,,,,,,,,,,,,,,,,,,AFNE20.jpg,AFNE18.jpg,AFSA19.jpg,AFSA02.jpg,AFSA02.jpg,FS,4,num_4,16,num_4,0.866742211394,,,2017_Apr_21_1208,60.0099509622,FEMA4ImagesEEG,001,200173,
AFNE01.JPG,AFNE01.JPG,AFNE01.JPG,AFNE01.JPG,AFNE01.JPG,AFNE01.JPG,4,2,42,3,,,,,,,,,,,,,,,,,,,,,,,AFSA19.jpg,AFNE18.jpg,AFNE16.jpg,AFSA05.jpg,AFSA19.jpg,FS,4,num_8,32,num_2,2.01665726368,,,2017_Apr_21_1208,60.0099509622,FEMA4ImagesEEG,001,200173,
AFNE01.JPG,AFNE01.JPG,AFNE01.JPG,AFNE01.JPG,AFNE01.JPG,AFNE01.JPG,4,3,43,7,,,,,,,,,,,,,,,,,,,,,,,AFNE15.jpg,AFSA11.jpg,AFSA14.jpg,AFNE19.jpg,AFSA11.jpg,FS,4,num_6,16,num_6,1.15007574251,,,2017_Apr_21_1208,60.0099509622,FEMA4ImagesEEG,001,200173,
AFNE01.JPG,AFNE01.JPG,AFNE01.JPG,AFNE01.JPG,AFNE01.JPG,AFNE01.JPG,4,4,44,4,,,,,,,,,,,,,,,,,,,,,,,AFSA02.jpg,AFSA20.jpg,AFNE16.jpg,AFNE07.jpg,AFNE16.jpg,FN,3,num_2,32,num_8,0.833316066884,,,2017_Apr_21_1208,60.0099509622,FEMA4ImagesEEG,001,200173,
AFNE01.JPG,AFNE01.JPG,AFNE01.JPG,AFNE01.JPG,AFNE01.JPG,AFNE01.JPG,4,5,45,8,,,,,,,,,,,,,,,,,,,,,,,AFSA11.jpg,AFSA14.jpg,AFNE04.jpg,AFNE19.jpg,AFSA14.jpg,FS,4,num_6,32,num_4,1.45002772793,,,2017_Apr_21_1208,60.0099509622,FEMA4ImagesEEG,001,200173,
AFNE01.JPG,AFNE01.JPG,AFNE01.JPG,AFNE01.JPG,AFNE01.JPG,AFNE01.JPG,4,6,46,6,,,,,,,,,,,,,,,,,,,,,,,AFSA04.jpg,AFNE03.jpg,AFNE01.jpg,AFSA07.jpg,AFNE03.jpg,FN,3,num_6,32,num_2,1.49987699662,,,2017_Apr_21_1208,60.0099509622,FEMA4ImagesEEG,001,200173,
AFNE01.JPG,AFNE01.JPG,AFNE01.JPG,AFNE01.JPG,AFNE01.JPG,AFNE01.JPG,4,7,47,5,,,,,,,,,,,,,,,,,,,,,,,AFSA15.jpg,AFSA14.jpg,AFNE08.jpg,AFNE05.jpg,AFSA14.jpg,FS,4,num_6,32,num_8,1.08340082219,,,2017_Apr_21_1208,60.0099509622,FEMA4ImagesEEG,001,200173,
AFNE01.JPG,AFNE01.JPG,AFNE01.JPG,AFNE01.JPG,AFNE01.JPG,AFNE01.JPG,4,8,48,0,,,,,,,,,,,,,,,,,,,,,,,AFNE15.jpg,AFNE11.jpg,AFSA08.jpg,AFSA11.jpg,AFNE15.jpg,FN,3,num_8,16,num_8,0.816786778101,,,2017_Apr_21_1208,60.0099509622,FEMA4ImagesEEG,001,200173,
AFNE01.JPG,AFNE01.JPG,AFNE01.JPG,AFNE01.JPG,AFNE01.JPG,AFNE01.JPG,4,9,49,9,,,,,,,,,,,,,,,,,,,,,,,AFNE12.jpg,AFSA01.jpg,AFSA02.jpg,AFNE20.jpg,AFNE20.jpg,FN,3,num_4,16,num_4,1.71694198373,,,2017_Apr_21_1208,60.0099509622,FEMA4ImagesEEG,001,200173,
AFNE01.JPG,AFNE01.JPG,AFNE01.JPG,AFNE01.JPG,AFNE01.JPG,AFNE01.JPG,5,0,50,1,,,,,,,,,,,,,,,,,,,,,,,AFSA15.jpg,AFNE06.jpg,AFSA07.jpg,AFNE02.jpg,AFNE06.jpg,FN,3,num_6,32,num_4,1.23340054951,,,2017_Apr_21_1208,60.0099509622,FEMA4ImagesEEG,001,200173,
AFNE01.JPG,AFNE01.JPG,AFNE01.JPG,AFNE01.JPG,AFNE01.JPG,AFNE01.JPG,5,1,51,9,,,,,,,,,,,,,,,,,,,,,,,AFNE05.jpg,AFNE11.jpg,AFSA04.jpg,AFSA14.jpg,AFSA04.jpg,FS,4,num_2,32,num_8,1.66668537649,,,2017_Apr_21_1208,60.0099509622,FEMA4ImagesEEG,001,200173,
AFNE01.JPG,AFNE01.JPG,AFNE01.JPG,AFNE01.JPG,AFNE01.JPG,AFNE01.JPG,5,2,52,7,,,,,,,,,,,,,,,,,,,,,,,AFSA12.jpg,AFNE09.jpg,AFNE01.jpg,AFSA06.jpg,AFNE09.jpg,FN,3,num_6,32,num_8,1.00009878766,,,2017_Apr_21_1208,60.0099509622,FEMA4ImagesEEG,001,200173,
AFNE01.JPG,AFNE01.JPG,AFNE01.JPG,AFNE01.JPG,AFNE01.JPG,AFNE01.JPG,5,3,53,3,,,,,,,,,,,,,,,,,,,,,,,AFNE06.jpg,AFSA14.jpg,AFSA01.jpg,AFNE19.jpg,AFSA14.jpg,FS,4,num_6,32,num_4,1.68337407254,,,2017_Apr_21_1208,60.0099509622,FEMA4ImagesEEG,001,200173,
AFNE01.JPG,AFNE01.JPG,AFNE01.JPG,AFNE01.JPG,AFNE01.JPG,AFNE01.JPG,5,4,54,5,,,,,,,,,,,,,,,,,,,,,,,AFNE09.jpg,AFNE11.jpg,AFSA07.jpg,AFSA03.jpg,AFSA03.jpg,FS,4,num_4,32,num_6,0.866760814271,,,2017_Apr_21_1208,60.0099509622,FEMA4ImagesEEG,001,200173,
AFNE01.JPG,AFNE01.JPG,AFNE01.JPG,AFNE01.JPG,AFNE01.JPG,AFNE01.JPG,5,5,55,0,,,,,,,,,,,,,,,,,,,,,,,AFNE19.jpg,AFSA02.jpg,AFNE04.jpg,AFSA04.jpg,AFNE04.jpg,FN,3,num_2,16,num_2,1.28344258241,,,2017_Apr_21_1208,60.0099509622,FEMA4ImagesEEG,001,200173,
AFNE01.JPG,AFNE01.JPG,AFNE01.JPG,AFNE01.JPG,AFNE01.JPG,AFNE01.JPG,5,6,56,2,,,,,,,,,,,,,,,,,,,,,,,AFSA14.jpg,AFNE17.jpg,AFSA19.jpg,AFNE14.jpg,AFSA14.jpg,FS,4,num_8,32,num_4,0.816719743656,,,2017_Apr_21_1208,60.0099509622,FEMA4ImagesEEG,001,200173,
AFNE01.JPG,AFNE01.JPG,AFNE01.JPG,AFNE01.JPG,AFNE01.JPG,AFNE01.JPG,5,7,57,8,,,,,,,,,,,,,,,,,,,,,,,AFSA08.jpg,AFSA06.jpg,AFNE18.jpg,AFNE16.jpg,AFNE18.jpg,FN,3,num_2,32,num_8,1.10009914043,,,2017_Apr_21_1208,60.0099509622,FEMA4ImagesEEG,001,200173,
AFNE01.JPG,AFNE01.JPG,AFNE01.JPG,AFNE01.JPG,AFNE01.JPG,AFNE01.JPG,5,8,58,6,,,,,,,,,,,,,,,,,,,,,,,AFNE08.jpg,AFSA18.jpg,AFSA05.jpg,AFNE01.jpg,AFSA18.jpg,FS,4,num_6,16,num_6,0.916763716959,,,2017_Apr_21_1208,60.0099509622,FEMA4ImagesEEG,001,200173,
AFNE01.JPG,AFNE01.JPG,AFNE01.JPG,AFNE01.JPG,AFNE01.JPG,AFNE01.JPG,5,9,59,4,,,,,,,,,,,,,,,,,,,,,,,AFSA20.jpg,AFNE07.jpg,AFNE06.jpg,AFSA03.jpg,AFSA20.jpg,FS,4,num_8,32,num_4,2.69997199945,,,2017_Apr_21_1208,60.0099509622,FEMA4ImagesEEG,001,200173,
,,,,,,,,,,,,,,,,,,,,,,,,,,,,,,,,,,,,,,,,,,,space,6.8663204395,2017_Apr_21_1208,60.0099509622,FEMA4ImagesEEG,001,200173,
AFNE01.JPG,AFNE01.JPG,AFNE01.JPG,AFNE01.JPG,AFNE01.JPG,AFNE01.JPG,,,,,0,0,0,7,,,,,,,,,,,,,,,,,,,AMSA12.jpg,AMNE04.jpg,AMSA07.jpg,AMNE08.jpg,AMSA12.jpg,MS,2,num_8,16,num_8,1.33343425923,,,2017_Apr_21_1208,60.0099509622,FEMA4ImagesEEG,001,200173,
AFNE01.JPG,AFNE01.JPG,AFNE01.JPG,AFNE01.JPG,AFNE01.JPG,AFNE01.JPG,,,,,0,1,1,9,,,,,,,,,,,,,,,,,,,AMSA15.jpg,AMNE11.jpg,AMSA06.jpg,AMNE17.jpg,AMNE17.jpg,MN,1,num_4,16,num_4,1.25011618773,,,2017_Apr_21_1208,60.0099509622,FEMA4ImagesEEG,001,200173,
AFNE01.JPG,AFNE01.JPG,AFNE01.JPG,AFNE01.JPG,AFNE01.JPG,AFNE01.JPG,,,,,0,2,2,5,,,,,,,,,,,,,,,,,,,AMNE01.jpg,AMNE16.jpg,AMSA04.jpg,AMSA14.jpg,AMNE01.jpg,MN,1,num_8,32,num_6,1.33340186457,,,2017_Apr_21_1208,60.0099509622,FEMA4ImagesEEG,001,200173,
AFNE01.JPG,AFNE01.JPG,AFNE01.JPG,AFNE01.JPG,AFNE01.JPG,AFNE01.JPG,,,,,0,3,3,6,,,,,,,,,,,,,,,,,,,AMSA14.jpg,AMSA05.jpg,AMNE02.jpg,AMNE15.jpg,AMNE02.jpg,MN,1,num_2,32,num_8,0.783465835964,,,2017_Apr_21_1208,60.0099509622,FEMA4ImagesEEG,001,200173,
AFNE01.JPG,AFNE01.JPG,AFNE01.JPG,AFNE01.JPG,AFNE01.JPG,AFNE01.JPG,,,,,0,4,4,1,,,,,,,,,,,,,,,,,,,AMSA13.jpg,AMNE19.jpg,AMSA05.jpg,AMNE03.jpg,AMNE19.jpg,MN,1,num_6,16,num_6,1.00006029895,,,2017_Apr_21_1208,60.0099509622,FEMA4ImagesEEG,001,200173,
AFNE01.JPG,AFNE01.JPG,AFNE01.JPG,AFNE01.JPG,AFNE01.JPG,AFNE01.JPG,,,,,0,5,5,2,,,,,,,,,,,,,,,,,,,AMSA14.jpg,AMSA17.jpg,AMNE06.jpg,AMNE04.jpg,AMSA14.jpg,MS,2,num_8,16,num_8,1.01673905214,,,2017_Apr_21_1208,60.0099509622,FEMA4ImagesEEG,001,200173,
AFNE01.JPG,AFNE01.JPG,AFNE01.JPG,AFNE01.JPG,AFNE01.JPG,AFNE01.JPG,,,,,0,6,6,3,,,,,,,,,,,,,,,,,,,AMNE04.jpg,AMSA14.jpg,AMSA15.jpg,AMNE20.jpg,AMNE04.jpg,MN,1,num_8,16,num_8,1.03343737044,,,2017_Apr_21_1208,60.0099509622,FEMA4ImagesEEG,001,200173,
AFNE01.JPG,AFNE01.JPG,AFNE01.JPG,AFNE01.JPG,AFNE01.JPG,AFNE01.JPG,,,,,0,7,7,0,,,,,,,,,,,,,,,,,,,AMNE03.jpg,AMNE17.jpg,AMSA12.jpg,AMSA02.jpg,AMSA02.jpg,MS,2,num_4,16,num_4,0.783461666375,,,2017_Apr_21_1208,60.0099509622,FEMA4ImagesEEG,001,200173,
AFNE01.JPG,AFNE01.JPG,AFNE01.JPG,AFNE01.JPG,AFNE01.JPG,AFNE01.JPG,,,,,0,8,8,8,,,,,,,,,,,,,,,,,,,AMNE07.jpg,AMSA19.jpg,AMSA18.jpg,AMNE12.jpg,AMNE12.jpg,MN,1,num_4,16,num_4,1.28341211216,,,2017_Apr_21_1208,60.0099509622,FEMA4ImagesEEG,001,200173,
AFNE01.JPG,AFNE01.JPG,AFNE01.JPG,AFNE01.JPG,AFNE01.JPG,AFNE01.JPG,,,,,0,9,9,4,,,,,,,,,,,,,,,,,,,AMSA04.jpg,AMNE16.jpg,AMNE07.jpg,AMSA20.jpg,AMSA20.jpg,MS,2,num_4,32,num_2,3.51654356165,,,2017_Apr_21_1208,60.0099509622,FEMA4ImagesEEG,001,200173,
AFNE01.JPG,AFNE01.JPG,AFNE01.JPG,AFNE01.JPG,AFNE01.JPG,AFNE01.JPG,,,,,1,0,10,3,,,,,,,,,,,,,,,,,,,AMSA13.jpg,AMSA10.jpg,AMNE08.jpg,AMNE15.jpg,AMNE15.jpg,MN,1,num_4,16,num_4,2.73317394743,,,2017_Apr_21_1208,60.0099509622,FEMA4ImagesEEG,001,200173,
AFNE01.JPG,AFNE01.JPG,AFNE01.JPG,AFNE01.JPG,AFNE01.JPG,AFNE01.JPG,,,,,1,1,11,6,,,,,,,,,,,,,,,,,,,AMNE16.jpg,AMNE04.jpg,AMSA17.jpg,AMSA06.jpg,AMNE16.jpg,MN,1,num_8,16,num_8,1.50008194882,,,2017_Apr_21_1208,60.0099509622,FEMA4ImagesEEG,001,200173,
AFNE01.JPG,AFNE01.JPG,AFNE01.JPG,AFNE01.JPG,AFNE01.JPG,AFNE01.JPG,,,,,1,2,12,7,,,,,,,,,,,,,,,,,,,AMSA18.jpg,AMNE07.jpg,AMNE11.jpg,AMSA12.jpg,AMSA12.jpg,MS,2,num_4,16,num_4,0.833449494326,,,2017_Apr_21_1208,60.0099509622,FEMA4ImagesEEG,001,200173,
AFNE01.JPG,AFNE01.JPG,AFNE01.JPG,AFNE01.JPG,AFNE01.JPG,AFNE01.JPG,,,,,1,3,13,9,,,,,,,,,,,,,,,,,,,AMSA13.jpg,AMNE12.jpg,AMSA18.jpg,AMNE06.jpg,AMNE06.jpg,MN,1,num_4,16,num_4,0.950150731311,,,2017_Apr_21_1208,60.0099509622,FEMA4ImagesEEG,001,200173,
AFNE01.JPG,AFNE01.JPG,AFNE01.JPG,AFNE01.JPG,AFNE01.JPG,AFNE01.JPG,,,,,1,4,14,1,,,,,,,,,,,,,,,,,,,AMNE20.jpg,AMSA04.jpg,AMSA03.jpg,AMNE07.jpg,AMSA03.jpg,MS,2,num_2,16,num_2,2.39984938095,,,2017_Apr_21_1208,60.0099509622,FEMA4ImagesEEG,001,200173,
AFNE01.JPG,AFNE01.JPG,AFNE01.JPG,AFNE01.JPG,AFNE01.JPG,AFNE01.JPG,,,,,1,5,15,8,,,,,,,,,,,,,,,,,,,AMSA15.jpg,AMNE12.jpg,AMSA01.jpg,AMNE05.jpg,AMNE05.jpg,MN,1,num_4,32,num_6,1.08316187159,,,2017_Apr_21_1208,60.0099509622,FEMA4ImagesEEG,001,200173,
AFNE01.JPG,AFNE01.JPG,AFNE01.JPG,AFNE01.JPG,AFNE01.JPG,AFNE01.JPG,,,,,1,6,16,2,,,,,,,,,,,,,,,,,,,AMSA07.jpg,AMSA05.jpg,AMNE17.jpg,AMNE12.jpg,AMNE12.jpg,MN,1,num_4,16,num_4,1.10018253262,,,2017_Apr_21_1208,60.0099509622,FEMA4ImagesEEG,001,200173,
AFNE01.JPG,AFNE01.JPG,AFNE01.JPG,AFNE01.JPG,AFNE01.JPG,AFNE01.JPG,,,,,1,7,17,5,,,,,,,,,,,,,,,,,,,AMNE01.jpg,AMNE04.jpg,AMSA07.jpg,AMSA18.jpg,AMSA18.jpg,MS,2,num_4,16,num_4,0.933455299702,,,2017_Apr_21_1208,60.0099509622,FEMA4ImagesEEG,001,200173,
AFNE01.JPG,AFNE01.JPG,AFNE01.JPG,AFNE01.JPG,AFNE01.JPG,AFNE01.JPG,,,,,1,8,18,0,,,,,,,,,,,,,,,,,,,AMNE19.jpg,AMSA17.jpg,AMNE06.jpg,AMSA01.jpg,AMNE06.jpg,MN,1,num_2,32,num_8,1.90004711656,,,2017_Apr_21_1208,60.0099509622,FEMA4ImagesEEG,001,200173,
AFNE01.JPG,AFNE01.JPG,AFNE01.JPG,AFNE01.JPG,AFNE01.JPG,AFNE01.JPG,,,,,1,9,19,4,,,,,,,,,,,,,,,,,,,AMNE15.jpg,AMSA07.jpg,AMSA13.jpg,AMNE09.jpg,AMSA13.jpg,MS,2,num_2,32,num_8,1.86668062949,,,2017_Apr_21_1208,60.0099509622,FEMA4ImagesEEG,001,200173,
AFNE01.JPG,AFNE01.JPG,AFNE01.JPG,AFNE01.JPG,AFNE01.JPG,AFNE01.JPG,,,,,2,0,20,8,,,,,,,,,,,,,,,,,,,AMNE04.jpg,AMSA15.jpg,AMNE15.jpg,AMSA18.jpg,AMNE04.jpg,MN,1,num_8,32,num_4,1.43339548184,,,2017_Apr_21_1208,60.0099509622,FEMA4ImagesEEG,001,200173,
AFNE01.JPG,AFNE01.JPG,AFNE01.JPG,AFNE01.JPG,AFNE01.JPG,AFNE01.JPG,,,,,2,1,21,9,,,,,,,,,,,,,,,,,,,AMSA06.jpg,AMNE17.jpg,AMSA05.jpg,AMNE03.jpg,AMSA06.jpg,MS,2,num_8,16,num_8,0.883428662317,,,2017_Apr_21_1208,60.0099509622,FEMA4ImagesEEG,001,200173,
AFNE01.JPG,AFNE01.JPG,AFNE01.JPG,AFNE01.JPG,AFNE01.JPG,AFNE01.JPG,,,,,2,2,22,4,,,,,,,,,,,,,,,,,,,AMSA19.jpg,AMNE01.jpg,AMSA08.jpg,AMNE10.jpg,AMSA08.jpg,MS,2,num_2,16,num_2,2.75000505161,,,2017_Apr_21_1208,60.0099509622,FEMA4ImagesEEG,001,200173,
AFNE01.JPG,AFNE01.JPG,AFNE01.JPG,AFNE01.JPG,AFNE01.JPG,AFNE01.JPG,,,,,2,3,23,7,,,,,,,,,,,,,,,,,,,AMNE09.jpg,AMSA14.jpg,AMNE16.jpg,AMSA12.jpg,AMNE16.jpg,MN,1,num_2,32,num_8,1.38339225843,,,2017_Apr_21_1208,60.0099509622,FEMA4ImagesEEG,001,200173,
AFNE01.JPG,AFNE01.JPG,AFNE01.JPG,AFNE01.JPG,AFNE01.JPG,AFNE01.JPG,,,,,2,4,24,3,,,,,,,,,,,,,,,,,,,AMSA09.jpg,AMSA19.jpg,AMNE12.jpg,AMNE15.jpg,AMSA19.jpg,MS,2,num_6,16,num_6,1.03341267345,,,2017_Apr_21_1208,60.0099509622,FEMA4ImagesEEG,001,200173,
AFNE01.JPG,AFNE01.JPG,AFNE01.JPG,AFNE01.JPG,AFNE01.JPG,AFNE01.JPG,,,,,2,5,25,1,,,,,,,,,,,,,,,,,,,AMNE05.jpg,AMSA08.jpg,AMSA09.jpg,AMNE15.jpg,AMNE15.jpg,MN,1,num_4,16,num_4,0.899831900664,,,2017_Apr_21_1208,60.0099509622,FEMA4ImagesEEG,001,200173,
AFNE01.JPG,AFNE01.JPG,AFNE01.JPG,AFNE01.JPG,AFNE01.JPG,AFNE01.JPG,,,,,2,6,26,0,,,,,,,,,,,,,,,,,,,AMNE09.jpg,AMSA08.jpg,AMSA07.jpg,AMNE20.jpg,AMNE20.jpg,MN,1,num_4,16,num_4,1.6666879424,,,2017_Apr_21_1208,60.0099509622,FEMA4ImagesEEG,001,200173,
AFNE01.JPG,AFNE01.JPG,AFNE01.JPG,AFNE01.JPG,AFNE01.JPG,AFNE01.JPG,,,,,2,7,27,6,,,,,,,,,,,,,,,,,,,AMNE03.jpg,AMNE20.jpg,AMSA13.jpg,AMSA07.jpg,AMSA13.jpg,MS,2,num_2,32,num_8,1.26675741444,,,2017_Apr_21_1208,60.0099509622,FEMA4ImagesEEG,001,200173,
AFNE01.JPG,AFNE01.JPG,AFNE01.JPG,AFNE01.JPG,AFNE01.JPG,AFNE01.JPG,,,,,2,8,28,2,,,,,,,,,,,,,,,,,,,AMNE08.jpg,AMNE10.jpg,AMSA07.jpg,AMSA06.jpg,AMNE08.jpg,MN,1,num_8,16,num_8,0.683467407594,,,2017_Apr_21_1208,60.0099509622,FEMA4ImagesEEG,001,200173,
AFNE01.JPG,AFNE01.JPG,AFNE01.JPG,AFNE01.JPG,AFNE01.JPG,AFNE01.JPG,,,,,2,9,29,5,,,,,,,,,,,,,,,,,,,AMSA05.jpg,AMNE14.jpg,AMNE02.jpg,AMSA09.jpg,AMNE14.jpg,MN,1,num_6,32,num_2,2.00002501765,,,2017_Apr_21_1208,60.0099509622,FEMA4ImagesEEG,001,200173,
AFNE01.JPG,AFNE01.JPG,AFNE01.JPG,AFNE01.JPG,AFNE01.JPG,AFNE01.JPG,,,,,3,0,30,3,,,,,,,,,,,,,,,,,,,AMSA14.jpg,AMNE16.jpg,AMSA07.jpg,AMNE06.jpg,AMNE06.jpg,MN,1,num_4,32,num_6,1.16676443862,,,2017_Apr_21_1208,60.0099509622,FEMA4ImagesEEG,001,200173,
AFNE01.JPG,AFNE01.JPG,AFNE01.JPG,AFNE01.JPG,AFNE01.JPG,AFNE01.JPG,,,,,3,1,31,2,,,,,,,,,,,,,,,,,,,AMSA17.jpg,AMSA01.jpg,AMNE06.jpg,AMNE20.jpg,AMNE06.jpg,MN,1,num_2,16,num_2,2.83330772771,,,2017_Apr_21_1208,60.0099509622,FEMA4ImagesEEG,001,200173,
AFNE01.JPG,AFNE01.JPG,AFNE01.JPG,AFNE01.JPG,AFNE01.JPG,AFNE01.JPG,,,,,3,2,32,0,,,,,,,,,,,,,,,,,,,AMSA01.jpg,AMNE19.jpg,AMNE16.jpg,AMSA11.jpg,AMSA01.jpg,MS,2,num_8,16,num_8,1.76669984177,,,2017_Apr_21_1208,60.0099509622,FEMA4ImagesEEG,001,200173,
AFNE01.JPG,AFNE01.JPG,AFNE01.JPG,AFNE01.JPG,AFNE01.JPG,AFNE01.JPG,,,,,3,3,33,7,,,,,,,,,,,,,,,,,,,AMNE15.jpg,AMSA12.jpg,AMNE06.jpg,AMSA05.jpg,AMNE06.jpg,MN,1,num_2,32,num_4,0.866883978131,,,2017_Apr_21_1208,60.0099509622,FEMA4ImagesEEG,001,200173,
AFNE01.JPG,AFNE01.JPG,AFNE01.JPG,AFNE01.JPG,AFNE01.JPG,AFNE01.JPG,,,,,3,4,34,4,,,,,,,,,,,,,,,,,,,AMSA10.jpg,AMSA06.jpg,AMNE16.jpg,AMNE15.jpg,AMSA06.jpg,MS,2,num_6,32,num_8,0.933570765832,,,2017_Apr_21_1208,60.0099509622,FEMA4ImagesEEG,001,200173,
AFNE01.JPG,AFNE01.JPG,AFNE01.JPG,AFNE01.JPG,AFNE01.JPG,AFNE01.JPG,,,,,3,5,35,1,,,,,,,,,,,,,,,,,,,AMNE17.jpg,AMSA13.jpg,AMSA18.jpg,AMNE18.jpg,AMNE17.jpg,MN,1,num_8,16,num_8,0.833441475814,,,2017_Apr_21_1208,60.0099509622,FEMA4ImagesEEG,001,200173,
AFNE01.JPG,AFNE01.JPG,AFNE01.JPG,AFNE01.JPG,AFNE01.JPG,AFNE01.JPG,,,,,3,6,36,6,,,,,,,,,,,,,,,,,,,AMNE10.jpg,AMNE04.jpg,AMSA09.jpg,AMSA07.jpg,AMSA09.jpg,MS,2,num_2,16,num_2,1.71669084503,,,2017_Apr_21_1208,60.0099509622,FEMA4ImagesEEG,001,200173,
AFNE01.JPG,AFNE01.JPG,AFNE01.JPG,AFNE01.JPG,AFNE01.JPG,AFNE01.JPG,,,,,3,7,37,9,,,,,,,,,,,,,,,,,,,AMNE02.jpg,AMNE08.jpg,AMSA06.jpg,AMSA04.jpg,AMSA04.jpg,MS,2,num_4,16,num_4,0.700114086852,,,2017_Apr_21_1208,60.0099509622,FEMA4ImagesEEG,001,200173,
AFNE01.JPG,AFNE01.JPG,AFNE01.JPG,AFNE01.JPG,AFNE01.JPG,AFNE01.JPG,,,,,3,8,38,8,,,,,,,,,,,,,,,,,,,AMNE01.jpg,AMNE05.jpg,AMSA19.jpg,AMSA17.jpg,AMSA17.jpg,MS,2,num_4,32,num_2,2.83331606688,,,2017_Apr_21_1208,60.0099509622,FEMA4ImagesEEG,001,200173,
AFNE01.JPG,AFNE01.JPG,AFNE01.JPG,AFNE01.JPG,AFNE01.JPG,AFNE01.JPG,,,,,3,9,39,5,,,,,,,,,,,,,,,,,,,AMSA01.jpg,AMNE10.jpg,AMSA15.jpg,AMNE20.jpg,AMSA01.jpg,MS,2,num_8,16,num_8,0.900075020851,,,2017_Apr_21_1208,60.0099509622,FEMA4ImagesEEG,001,200173,
AFNE01.JPG,AFNE01.JPG,AFNE01.JPG,AFNE01.JPG,AFNE01.JPG,AFNE01.JPG,,,,,4,0,40,3,,,,,,,,,,,,,,,,,,,AMSA16.jpg,AMNE18.jpg,AMNE13.jpg,AMSA03.jpg,AMSA03.jpg,MS,2,num_4,16,num_4,0.666750165692,,,2017_Apr_21_1208,60.0099509622,FEMA4ImagesEEG,001,200173,
AFNE01.JPG,AFNE01.JPG,AFNE01.JPG,AFNE01.JPG,AFNE01.JPG,AFNE01.JPG,,,,,4,1,41,9,,,,,,,,,,,,,,,,,,,AMSA11.jpg,AMNE15.jpg,AMSA09.jpg,AMNE14.jpg,AMSA11.jpg,MS,2,num_8,16,num_8,1.15001672652,,,2017_Apr_21_1208,60.0099509622,FEMA4ImagesEEG,001,200173,
AFNE01.JPG,AFNE01.JPG,AFNE01.JPG,AFNE01.JPG,AFNE01.JPG,AFNE01.JPG,,,,,4,2,42,4,,,,,,,,,,,,,,,,,,,AMNE09.jpg,AMNE01.jpg,AMSA19.jpg,AMSA05.jpg,AMSA19.jpg,MS,2,num_2,16,num_2,1.76668412559,,,2017_Apr_21_1208,60.0099509622,FEMA4ImagesEEG,001,200173,
AFNE01.JPG,AFNE01.JPG,AFNE01.JPG,AFNE01.JPG,AFNE01.JPG,AFNE01.JPG,,,,,4,3,43,1,,,,,,,,,,,,,,,,,,,AMNE15.jpg,AMSA10.jpg,AMSA06.jpg,AMNE11.jpg,AMSA10.jpg,MS,2,num_6,32,num_8,1.08341268956,,,2017_Apr_21_1208,60.0099509622,FEMA4ImagesEEG,001,200173,
AFNE01.JPG,AFNE01.JPG,AFNE01.JPG,AFNE01.JPG,AFNE01.JPG,AFNE01.JPG,,,,,4,4,44,5,,,,,,,,,,,,,,,,,,,AMSA14.jpg,AMNE15.jpg,AMSA07.jpg,AMNE10.jpg,AMNE10.jpg,MN,1,num_4,32,num_6,1.51675685315,,,2017_Apr_21_1208,60.0099509622,FEMA4ImagesEEG,001,200173,
AFNE01.JPG,AFNE01.JPG,AFNE01.JPG,AFNE01.JPG,AFNE01.JPG,AFNE01.JPG,,,,,4,5,45,8,,,,,,,,,,,,,,,,,,,AMSA16.jpg,AMSA04.jpg,AMNE06.jpg,AMNE05.jpg,AMSA04.jpg,MS,2,num_6,32,num_8,1.80005157483,,,2017_Apr_21_1208,60.0099509622,FEMA4ImagesEEG,001,200173,
AFNE01.JPG,AFNE01.JPG,AFNE01.JPG,AFNE01.JPG,AFNE01.JPG,AFNE01.JPG,,,,,4,6,46,7,,,,,,,,,,,,,,,,,,,AMNE20.jpg,AMNE15.jpg,AMSA12.jpg,AMSA14.jpg,AMNE20.jpg,MN,1,num_8,16,num_8,1.31673112989,,,2017_Apr_21_1208,60.0099509622,FEMA4ImagesEEG,001,200173,
AFNE01.JPG,AFNE01.JPG,AFNE01.JPG,AFNE01.JPG,AFNE01.JPG,AFNE01.JPG,,,,,4,7,47,2,,,,,,,,,,,,,,,,,,,AMSA04.jpg,AMNE03.jpg,AMSA20.jpg,AMNE02.jpg,AMNE03.jpg,MN,1,num_6,16,num_6,0.866783907521,,,2017_Apr_21_1208,60.0099509622,FEMA4ImagesEEG,001,200173,
AFNE01.JPG,AFNE01.JPG,AFNE01.JPG,AFNE01.JPG,AFNE01.JPG,AFNE01.JPG,,,,,4,8,48,6,,,,,,,,,,,,,,,,,,,AMNE11.jpg,AMSA02.jpg,AMSA08.jpg,AMNE03.jpg,AMNE03.jpg,MN,1,num_4,32,num_8,1.11678334617,,,2017_Apr_21_1208,60.0099509622,FEMA4ImagesEEG,001,200173,
AFNE01.JPG,AFNE01.JPG,AFNE01.JPG,AFNE01.JPG,AFNE01.JPG,AFNE01.JPG,,,,,4,9,49,0,,,,,,,,,,,,,,,,,,,AMNE16.jpg,AMNE17.jpg,AMSA03.jpg,AMSA08.jpg,AMNE17.jpg,MN,1,num_6,32,num_8,1.20007415483,,,2017_Apr_21_1208,60.0099509622,FEMA4ImagesEEG,001,200173,
AFNE01.JPG,AFNE01.JPG,AFNE01.JPG,AFNE01.JPG,AFNE01.JPG,AFNE01.JPG,,,,,5,0,50,7,,,,,,,,,,,,,,,,,,,AMSA14.jpg,AMNE02.jpg,AMNE17.jpg,AMSA04.jpg,AMNE17.jpg,MN,1,num_2,16,num_2,1.18340149574,,,2017_Apr_21_1208,60.0099509622,FEMA4ImagesEEG,001,200173,
AFNE01.JPG,AFNE01.JPG,AFNE01.JPG,AFNE01.JPG,AFNE01.JPG,AFNE01.JPG,,,,,5,1,51,9,,,,,,,,,,,,,,,,,,,AMNE15.jpg,AMSA11.jpg,AMNE08.jpg,AMSA07.jpg,AMNE08.jpg,MN,1,num_2,32,num_8,1.16670895077,,,2017_Apr_21_1208,60.0099509622,FEMA4ImagesEEG,001,200173,
AFNE01.JPG,AFNE01.JPG,AFNE01.JPG,AFNE01.JPG,AFNE01.JPG,AFNE01.JPG,,,,,5,2,52,8,,,,,,,,,,,,,,,,,,,AMNE08.jpg,AMSA08.jpg,AMSA01.jpg,AMNE19.jpg,AMSA01.jpg,MS,2,num_2,16,num_2,1.30006296112,,,2017_Apr_21_1208,60.0099509622,FEMA4ImagesEEG,001,200173,
AFNE01.JPG,AFNE01.JPG,AFNE01.JPG,AFNE01.JPG,AFNE01.JPG,AFNE01.JPG,,,,,5,3,53,0,,,,,,,,,,,,,,,,,,,AMNE09.jpg,AMSA14.jpg,AMSA05.jpg,AMNE11.jpg,AMNE09.jpg,MN,1,num_8,16,num_8,0.633461297548,,,2017_Apr_21_1208,60.0099509622,FEMA4ImagesEEG,001,200173,
AFNE01.JPG,AFNE01.JPG,AFNE01.JPG,AFNE01.JPG,AFNE01.JPG,AFNE01.JPG,,,,,5,4,54,2,,,,,,,,,,,,,,,,,,,AMSA07.jpg,AMNE09.jpg,AMNE12.jpg,AMSA17.jpg,AMSA17.jpg,MS,2,num_4,16,num_4,0.750106725958,,,2017_Apr_21_1208,60.0099509622,FEMA4ImagesEEG,001,200173,
AFNE01.JPG,AFNE01.JPG,AFNE01.JPG,AFNE01.JPG,AFNE01.JPG,AFNE01.JPG,,,,,5,5,55,3,,,,,,,,,,,,,,,,,,,AMSA10.jpg,AMNE01.jpg,AMNE10.jpg,AMSA13.jpg,AMSA13.jpg,MS,2,num_4,16,num_4,0.600099942298,,,2017_Apr_21_1208,60.0099509622,FEMA4ImagesEEG,001,200173,
AFNE01.JPG,AFNE01.JPG,AFNE01.JPG,AFNE01.JPG,AFNE01.JPG,AFNE01.JPG,,,,,5,6,56,6,,,,,,,,,,,,,,,,,,,AMNE18.jpg,AMSA16.jpg,AMNE02.jpg,AMSA17.jpg,AMSA16.jpg,MS,2,num_6,16,num_6,0.71676942613,,,2017_Apr_21_1208,60.0099509622,FEMA4ImagesEEG,001,200173,
AFNE01.JPG,AFNE01.JPG,AFNE01.JPG,AFNE01.JPG,AFNE01.JPG,AFNE01.JPG,,,,,5,7,57,5,,,,,,,,,,,,,,,,,,,AMNE16.jpg,AMNE03.jpg,AMSA16.jpg,AMSA20.jpg,AMSA20.jpg,MS,2,num_4,16,num_4,0.716762049124,,,2017_Apr_21_1208,60.0099509622,FEMA4ImagesEEG,001,200173,
AFNE01.JPG,AFNE01.JPG,AFNE01.JPG,AFNE01.JPG,AFNE01.JPG,AFNE01.JPG,,,,,5,8,58,1,,,,,,,,,,,,,,,,,,,AMSA20.jpg,AMNE12.jpg,AMSA13.jpg,AMNE15.jpg,AMNE12.jpg,MN,1,num_6,32,num_2,2.44999020145,,,2017_Apr_21_1208,60.0099509622,FEMA4ImagesEEG,001,200173,
AFNE01.JPG,AFNE01.JPG,AFNE01.JPG,AFNE01.JPG,AFNE01.JPG,AFNE01.JPG,,,,,5,9,59,4,,,,,,,,,,,,,,,,,,,AMNE16.jpg,AMSA02.jpg,AMNE04.jpg,AMSA12.jpg,AMSA02.jpg,MS,2,num_6,32,num_2,2.46689539641,,,2017_Apr_21_1208,60.0099509622,FEMA4ImagesEEG,001,200173,
,,,,,,,,,,,,,,,,,,,,,,,,,,,,,,,,,,,,,,,,,,,space,20.3152618241,2017_Apr_21_1208,60.0099509622,FEMA4ImagesEEG,001,200173,
AFNE01.JPG,AFNE01.JPG,AFNE01.JPG,AFNE01.JPG,AFNE01.JPG,AFNE01.JPG,,,,,,,,,0,0,0,8,,,,,,,,,,,,,,,AFNE06.jpg,AFNE14.jpg,AFSA05.jpg,AFSA16.jpg,AFNE06.jpg,FN,3,num_8,16,num_8,0.883440208912,,,2017_Apr_21_1208,60.0099509622,FEMA4ImagesEEG,001,200173,
AFNE01.JPG,AFNE01.JPG,AFNE01.JPG,AFNE01.JPG,AFNE01.JPG,AFNE01.JPG,,,,,,,,,0,1,1,4,,,,,,,,,,,,,,,AFNE13.jpg,AFNE15.jpg,AFSA20.jpg,AFSA10.jpg,AFSA10.jpg,FS,4,num_4,16,num_4,2.2998153505,,,2017_Apr_21_1208,60.0099509622,FEMA4ImagesEEG,001,200173,
AFNE01.JPG,AFNE01.JPG,AFNE01.JPG,AFNE01.JPG,AFNE01.JPG,AFNE01.JPG,,,,,,,,,0,2,2,5,,,,,,,,,,,,,,,AFNE03.jpg,AFSA10.jpg,AFNE10.jpg,AFSA06.jpg,AFSA10.jpg,FS,4,num_6,16,num_6,1.71641083981,,,2017_Apr_21_1208,60.0099509622,FEMA4ImagesEEG,001,200173,
AFNE01.JPG,AFNE01.JPG,AFNE01.JPG,AFNE01.JPG,AFNE01.JPG,AFNE01.JPG,,,,,,,,,0,3,3,0,,,,,,,,,,,,,,,AFSA20.jpg,AFNE13.jpg,AFNE12.jpg,AFSA09.jpg,AFSA20.jpg,FS,4,num_8,16,num_8,0.65015448397,,,2017_Apr_21_1208,60.0099509622,FEMA4ImagesEEG,001,200173,
AFNE01.JPG,AFNE01.JPG,AFNE01.JPG,AFNE01.JPG,AFNE01.JPG,AFNE01.JPG,,,,,,,,,0,4,4,2,,,,,,,,,,,,,,,AFNE20.jpg,AFSA13.jpg,AFSA01.jpg,AFNE10.jpg,AFNE10.jpg,FN,3,num_4,16,num_4,1.20005651424,,,2017_Apr_21_1208,60.0099509622,FEMA4ImagesEEG,001,200173,
AFNE01.JPG,AFNE01.JPG,AFNE01.JPG,AFNE01.JPG,AFNE01.JPG,AFNE01.JPG,,,,,,,,,0,5,5,3,,,,,,,,,,,,,,,AFNE08.jpg,AFSA13.jpg,AFSA16.jpg,AFNE12.jpg,AFSA13.jpg,FS,4,num_6,32,num_2,1.6336466847,,,2017_Apr_21_1208,60.0099509622,FEMA4ImagesEEG,001,200173,
AFNE01.JPG,AFNE01.JPG,AFNE01.JPG,AFNE01.JPG,AFNE01.JPG,AFNE01.JPG,,,,,,,,,0,6,6,9,,,,,,,,,,,,,,,AFSA19.jpg,AFSA18.jpg,AFNE10.jpg,AFNE07.jpg,AFSA19.jpg,FS,4,num_8,16,num_8,0.816807946889,,,2017_Apr_21_1208,60.0099509622,FEMA4ImagesEEG,001,200173,
AFNE01.JPG,AFNE01.JPG,AFNE01.JPG,AFNE01.JPG,AFNE01.JPG,AFNE01.JPG,,,,,,,,,0,7,7,7,,,,,,,,,,,,,,,AFNE02.jpg,AFSA01.jpg,AFNE13.jpg,AFSA05.jpg,AFNE02.jpg,FN,3,num_8,16,num_8,0.816619352321,,,2017_Apr_21_1208,60.0099509622,FEMA4ImagesEEG,001,200173,
AFNE01.JPG,AFNE01.JPG,AFNE01.JPG,AFNE01.JPG,AFNE01.JPG,AFNE01.JPG,,,,,,,,,0,8,8,1,,,,,,,,,,,,,,,AFSA13.jpg,AFNE12.jpg,AFSA15.jpg,AFNE03.jpg,AFNE03.jpg,FN,3,num_4,32,num_2,2.30001035985,,,2017_Apr_21_1208,60.0099509622,FEMA4ImagesEEG,001,200173,
AFNE01.JPG,AFNE01.JPG,AFNE01.JPG,AFNE01.JPG,AFNE01.JPG,AFNE01.JPG,,,,,,,,,0,9,9,6,,,,,,,,,,,,,,,AFSA17.jpg,AFNE18.jpg,AFSA04.jpg,AFNE02.jpg,AFSA04.jpg,FS,4,num_2,32,num_8,1.33340410976,,,2017_Apr_21_1208,60.0099509622,FEMA4ImagesEEG,001,200173,
AFNE01.JPG,AFNE01.JPG,AFNE01.JPG,AFNE01.JPG,AFNE01.JPG,AFNE01.JPG,,,,,,,,,1,0,10,1,,,,,,,,,,,,,,,AFNE15.jpg,AFSA13.jpg,AFNE14.jpg,AFSA19.jpg,AFSA13.jpg,FS,4,num_6,32,num_4,1.30011812819,,,2017_Apr_21_1208,60.0099509622,FEMA4ImagesEEG,001,200173,
AFNE01.JPG,AFNE01.JPG,AFNE01.JPG,AFNE01.JPG,AFNE01.JPG,AFNE01.JPG,,,,,,,,,1,1,11,7,,,,,,,,,,,,,,,AFSA11.jpg,AFSA02.jpg,AFNE13.jpg,AFNE03.jpg,AFNE13.jpg,FN,3,num_2,32,num_4,1.50015379442,,,2017_Apr_21_1208,60.0099509622,FEMA4ImagesEEG,001,200173,
AFNE01.JPG,AFNE01.JPG,AFNE01.JPG,AFNE01.JPG,AFNE01.JPG,AFNE01.JPG,,,,,,,,,1,2,12,0,,,,,,,,,,,,,,,AFSA10.jpg,AFNE19.jpg,AFNE01.jpg,AFSA01.jpg,AFNE19.jpg,FN,3,num_6,16,num_6,0.966733904264,,,2017_Apr_21_1208,60.0099509622,FEMA4ImagesEEG,001,200173,
AFNE01.JPG,AFNE01.JPG,AFNE01.JPG,AFNE01.JPG,AFNE01.JPG,AFNE01.JPG,,,,,,,,,1,3,13,2,,,,,,,,,,,,,,,AFNE12.jpg,AFSA15.jpg,AFNE11.jpg,AFSA09.jpg,AFSA09.jpg,FS,4,num_4,32,num_6,0.966792920255,,,2017_Apr_21_1208,60.0099509622,FEMA4ImagesEEG,001,200173,
AFNE01.JPG,AFNE01.JPG,AFNE01.JPG,AFNE01.JPG,AFNE01.JPG,AFNE01.JPG,,,,,,,,,1,4,14,6,,,,,,,,,,,,,,,AFNE05.jpg,AFSA16.jpg,AFNE13.jpg,AFSA11.jpg,AFNE13.jpg,FN,3,num_2,16,num_2,1.51673023182,,,2017_Apr_21_1208,60.0099509622,FEMA4ImagesEEG,001,200173,
AFNE01.JPG,AFNE01.JPG,AFNE01.JPG,AFNE01.JPG,AFNE01.JPG,AFNE01.JPG,,,,,,,,,1,5,15,4,,,,,,,,,,,,,,,AFSA17.jpg,AFSA16.jpg,AFNE05.jpg,AFNE18.jpg,AFNE05.jpg,FN,3,num_2,32,num_8,1.24999077874,,,2017_Apr_21_1208,60.0099509622,FEMA4ImagesEEG,001,200173,
AFNE01.JPG,AFNE01.JPG,AFNE01.JPG,AFNE01.JPG,AFNE01.JPG,AFNE01.JPG,,,,,,,,,1,6,16,9,,,,,,,,,,,,,,,AFSA03.jpg,AFNE08.jpg,AFSA12.jpg,AFNE16.jpg,AFNE16.jpg,FN,3,num_4,16,num_4,1.15005393227,,,2017_Apr_21_1208,60.0099509622,FEMA4ImagesEEG,001,200173,
AFNE01.JPG,AFNE01.JPG,AFNE01.JPG,AFNE01.JPG,AFNE01.JPG,AFNE01.JPG,,,,,,,,,1,7,17,5,,,,,,,,,,,,,,,AFNE12.jpg,AFSA03.jpg,AFNE18.jpg,AFSA20.jpg,AFSA20.jpg,FS,4,num_4,32,num_6,0.883504677447,,,2017_Apr_21_1208,60.0099509622,FEMA4ImagesEEG,001,200173,
AFNE01.JPG,AFNE01.JPG,AFNE01.JPG,AFNE01.JPG,AFNE01.JPG,AFNE01.JPG,,,,,,,,,1,8,18,3,,,,,,,,,,,,,,,AFNE05.jpg,AFNE12.jpg,AFSA04.jpg,AFSA02.jpg,AFSA04.jpg,FS,4,num_2,32,num_4,1.38337237266,,,2017_Apr_21_1208,60.0099509622,FEMA4ImagesEEG,001,200173,
AFNE01.JPG,AFNE01.JPG,AFNE01.JPG,AFNE01.JPG,AFNE01.JPG,AFNE01.JPG,,,,,,,,,1,9,19,8,,,,,,,,,,,,,,,AFNE15.jpg,AFSA04.jpg,AFNE11.jpg,AFSA20.jpg,AFSA20.jpg,FS,4,num_4,16,num_4,1.58345358376,,,2017_Apr_21_1208,60.0099509622,FEMA4ImagesEEG,001,200173,
AFNE01.JPG,AFNE01.JPG,AFNE01.JPG,AFNE01.JPG,AFNE01.JPG,AFNE01.JPG,,,,,,,,,2,0,20,2,,,,,,,,,,,,,,,AFSA02.jpg,AFNE14.jpg,AFSA10.jpg,AFNE19.jpg,AFNE14.jpg,FN,3,num_6,32,num_2,1.73337857891,,,2017_Apr_21_1208,60.0099509622,FEMA4ImagesEEG,001,200173,
AFNE01.JPG,AFNE01.JPG,AFNE01.JPG,AFNE01.JPG,AFNE01.JPG,AFNE01.JPG,,,,,,,,,2,1,21,4,,,,,,,,,,,,,,,AFSA14.jpg,AFNE16.jpg,AFSA10.jpg,AFNE15.jpg,AFSA10.jpg,FS,4,num_2,16,num_2,1.8999951568,,,2017_Apr_21_1208,60.0099509622,FEMA4ImagesEEG,001,200173,
AFNE01.JPG,AFNE01.JPG,AFNE01.JPG,AFNE01.JPG,AFNE01.JPG,AFNE01.JPG,,,,,,,,,2,2,22,1,,,,,,,,,,,,,,,AFSA09.jpg,AFNE07.jpg,AFNE04.jpg,AFSA16.jpg,AFSA09.jpg,FS,4,num_8,16,num_8,0.98347006971,,,2017_Apr_21_1208,60.0099509622,FEMA4ImagesEEG,001,200173,
AFNE01.JPG,AFNE01.JPG,AFNE01.JPG,AFNE01.JPG,AFNE01.JPG,AFNE01.JPG,,,,,,,,,2,3,23,9,,,,,,,,,,,,,,,AFSA01.jpg,AFSA14.jpg,AFNE07.jpg,AFNE11.jpg,AFSA14.jpg,FS,4,num_6,32,num_8,1.23342139757,,,2017_Apr_21_1208,60.0099509622,FEMA4ImagesEEG,001,200173,
AFNE01.JPG,AFNE01.JPG,AFNE01.JPG,AFNE01.JPG,AFNE01.JPG,AFNE01.JPG,,,,,,,,,2,4,24,6,,,,,,,,,,,,,,,AFNE15.jpg,AFNE19.jpg,AFSA11.jpg,AFSA06.jpg,AFSA11.jpg,FS,4,num_2,32,num_6,1.93332219304,,,2017_Apr_21_1208,60.0099509622,FEMA4ImagesEEG,001,200173,
AFNE01.JPG,AFNE01.JPG,AFNE01.JPG,AFNE01.JPG,AFNE01.JPG,AFNE01.JPG,,,,,,,,,2,5,25,0,,,,,,,,,,,,,,,AFNE03.jpg,AFSA18.jpg,AFSA01.jpg,AFNE13.jpg,AFSA01.jpg,FS,4,num_2,32,num_8,1.73371407203,,,2017_Apr_21_1208,60.0099509622,FEMA4ImagesEEG,001,200173,
AFNE01.JPG,AFNE01.JPG,AFNE01.JPG,AFNE01.JPG,AFNE01.JPG,AFNE01.JPG,,,,,,,,,2,6,26,5,,,,,,,,,,,,,,,AFNE03.jpg,AFNE10.jpg,AFSA19.jpg,AFSA16.jpg,AFSA19.jpg,FS,4,num_2,32,num_4,1.03350632929,,,2017_Apr_21_1208,60.0099509622,FEMA4ImagesEEG,001,200173,
AFNE01.JPG,AFNE01.JPG,AFNE01.JPG,AFNE01.JPG,AFNE01.JPG,AFNE01.JPG,,,,,,,,,2,7,27,3,,,,,,,,,,,,,,,AFNE20.jpg,AFNE08.jpg,AFSA10.jpg,AFSA07.jpg,AFSA07.jpg,FS,4,num_4,32,num_6,1.16670381895,,,2017_Apr_21_1208,60.0099509622,FEMA4ImagesEEG,001,200173,
AFNE01.JPG,AFNE01.JPG,AFNE01.JPG,AFNE01.JPG,AFNE01.JPG,AFNE01.JPG,,,,,,,,,2,8,28,8,,,,,,,,,,,,,,,AFSA02.jpg,AFSA11.jpg,AFNE13.jpg,AFNE15.jpg,AFNE15.jpg,FN,3,num_4,16,num_4,0.733496931673,,,2017_Apr_21_1208,60.0099509622,FEMA4ImagesEEG,001,200173,
AFNE01.JPG,AFNE01.JPG,AFNE01.JPG,AFNE01.JPG,AFNE01.JPG,AFNE01.JPG,,,,,,,,,2,9,29,7,,,,,,,,,,,,,,,AFNE10.jpg,AFSA15.jpg,AFSA07.jpg,AFNE12.jpg,AFSA07.jpg,FS,4,num_2,32,num_4,1.1834521725,,,2017_Apr_21_1208,60.0099509622,FEMA4ImagesEEG,001,200173,
AFNE01.JPG,AFNE01.JPG,AFNE01.JPG,AFNE01.JPG,AFNE01.JPG,AFNE01.JPG,,,,,,,,,3,0,30,0,,,,,,,,,,,,,,,AFSA01.jpg,AFNE01.jpg,AFSA19.jpg,AFNE06.jpg,AFSA19.jpg,FS,4,num_2,16,num_2,1.58341349137,,,2017_Apr_21_1208,60.0099509622,FEMA4ImagesEEG,001,200173,
AFNE01.JPG,AFNE01.JPG,AFNE01.JPG,AFNE01.JPG,AFNE01.JPG,AFNE01.JPG,,,,,,,,,3,1,31,3,,,,,,,,,,,,,,,AFSA09.jpg,AFSA13.jpg,AFNE06.jpg,AFNE09.jpg,AFSA13.jpg,FS,4,num_6,16,num_6,0.833491831901,,,2017_Apr_21_1208,60.0099509622,FEMA4ImagesEEG,001,200173,
AFNE01.JPG,AFNE01.JPG,AFNE01.JPG,AFNE01.JPG,AFNE01.JPG,AFNE01.JPG,,,,,,,,,3,2,32,1,,,,,,,,,,,,,,,AFSA02.jpg,AFSA09.jpg,AFNE09.jpg,AFNE13.jpg,AFNE13.jpg,FN,3,num_4,16,num_4,1.00012572971,,,2017_Apr_21_1208,60.0099509622,FEMA4ImagesEEG,001,200173,
AFNE01.JPG,AFNE01.JPG,AFNE01.JPG,AFNE01.JPG,AFNE01.JPG,AFNE01.JPG,,,,,,,,,3,3,33,8,,,,,,,,,,,,,,,AFNE06.jpg,AFNE18.jpg,AFSA03.jpg,AFSA02.jpg,AFSA03.jpg,FS,4,num_2,32,num_8,0.866765625367,,,2017_Apr_21_1208,60.0099509622,FEMA4ImagesEEG,001,200173,
AFNE01.JPG,AFNE01.JPG,AFNE01.JPG,AFNE01.JPG,AFNE01.JPG,AFNE01.JPG,,,,,,,,,3,4,34,6,,,,,,,,,,,,,,,AFSA11.jpg,AFNE08.jpg,AFNE05.jpg,AFSA17.jpg,AFSA11.jpg,FS,4,num_8,16,num_8,0.700143274153,,,2017_Apr_21_1208,60.0099509622,FEMA4ImagesEEG,001,200173,
AFNE01.JPG,AFNE01.JPG,AFNE01.JPG,AFNE01.JPG,AFNE01.JPG,AFNE01.JPG,,,,,,,,,3,5,35,2,,,,,,,,,,,,,,,AFSA03.jpg,AFNE18.jpg,AFSA17.jpg,AFNE13.jpg,AFSA17.jpg,FS,4,num_2,32,num_8,1.05022774078,,,2017_Apr_21_1208,60.0099509622,FEMA4ImagesEEG,001,200173,
AFNE01.JPG,AFNE01.JPG,AFNE01.JPG,AFNE01.JPG,AFNE01.JPG,AFNE01.JPG,,,,,,,,,3,6,36,7,,,,,,,,,,,,,,,AFNE06.jpg,AFNE15.jpg,AFSA04.jpg,AFSA03.jpg,AFSA04.jpg,FS,4,num_2,32,num_6,1.1167301035,,,2017_Apr_21_1208,60.0099509622,FEMA4ImagesEEG,001,200173,
AFNE01.JPG,AFNE01.JPG,AFNE01.JPG,AFNE01.JPG,AFNE01.JPG,AFNE01.JPG,,,,,,,,,3,7,37,9,,,,,,,,,,,,,,,AFSA01.jpg,AFNE20.jpg,AFSA03.jpg,AFNE14.jpg,AFSA01.jpg,FS,4,num_8,32,num_6,0.983506313292,,,2017_Apr_21_1208,60.0099509622,FEMA4ImagesEEG,001,200173,
AFNE01.JPG,AFNE01.JPG,AFNE01.JPG,AFNE01.JPG,AFNE01.JPG,AFNE01.JPG,,,,,,,,,3,8,38,5,,,,,,,,,,,,,,,AFSA20.jpg,AFNE19.jpg,AFNE07.jpg,AFSA03.jpg,AFSA20.jpg,FS,4,num_8,16,num_8,0.966822428221,,,2017_Apr_21_1208,60.0099509622,FEMA4ImagesEEG,001,200173,
AFNE01.JPG,AFNE01.JPG,AFNE01.JPG,AFNE01.JPG,AFNE01.JPG,AFNE01.JPG,,,,,,,,,3,9,39,4,,,,,,,,,,,,,,,AFSA11.jpg,AFNE20.jpg,AFSA03.jpg,AFNE10.jpg,AFNE10.jpg,FN,3,num_4,16,num_4,0.916773659876,,,2017_Apr_21_1208,60.0099509622,FEMA4ImagesEEG,001,200173,
AFNE01.JPG,AFNE01.JPG,AFNE01.JPG,AFNE01.JPG,AFNE01.JPG,AFNE01.JPG,,,,,,,,,4,0,40,5,,,,,,,,,,,,,,,AFNE20.jpg,AFSA08.jpg,AFNE06.jpg,AFSA09.jpg,AFNE06.jpg,FN,3,num_2,32,num_8,0.816735139117,,,2017_Apr_21_1208,60.0099509622,FEMA4ImagesEEG,001,200173,
AFNE01.JPG,AFNE01.JPG,AFNE01.JPG,AFNE01.JPG,AFNE01.JPG,AFNE01.JPG,,,,,,,,,4,1,41,3,,,,,,,,,,,,,,,AFSA07.jpg,AFNE11.jpg,AFSA01.jpg,AFNE01.jpg,AFSA07.jpg,FS,4,num_8,32,num_4,1.03342614451,,,2017_Apr_21_1208,60.0099509622,FEMA4ImagesEEG,001,200173,
AFNE01.JPG,AFNE01.JPG,AFNE01.JPG,AFNE01.JPG,AFNE01.JPG,AFNE01.JPG,,,,,,,,,4,2,42,0,,,,,,,,,,,,,,,AFNE14.jpg,AFSA12.jpg,AFSA13.jpg,AFNE20.jpg,AFSA13.jpg,FS,4,num_2,32,num_8,1.20008313557,,,2017_Apr_21_1208,60.0099509622,FEMA4ImagesEEG,001,200173,
AFNE01.JPG,AFNE01.JPG,AFNE01.JPG,AFNE01.JPG,AFNE01.JPG,AFNE01.JPG,,,,,,,,,4,3,43,8,,,,,,,,,,,,,,,AFNE04.jpg,AFNE05.jpg,AFSA10.jpg,AFSA14.jpg,AFSA14.jpg,FS,4,num_4,32,num_2,1.65005248896,,,2017_Apr_21_1208,60.0099509622,FEMA4ImagesEEG,001,200173,
AFNE01.JPG,AFNE01.JPG,AFNE01.JPG,AFNE01.JPG,AFNE01.JPG,AFNE01.JPG,,,,,,,,,4,4,44,9,,,,,,,,,,,,,,,AFSA12.jpg,AFNE06.jpg,AFNE08.jpg,AFSA02.jpg,AFSA02.jpg,FS,4,num_4,16,num_4,1.15003949904,,,2017_Apr_21_1208,60.0099509622,FEMA4ImagesEEG,001,200173,
AFNE01.JPG,AFNE01.JPG,AFNE01.JPG,AFNE01.JPG,AFNE01.JPG,AFNE01.JPG,,,,,,,,,4,5,45,1,,,,,,,,,,,,,,,AFNE07.jpg,AFSA16.jpg,AFNE14.jpg,AFSA06.jpg,AFSA16.jpg,FS,4,num_6,16,num_6,1.66670430003,,,2017_Apr_21_1208,60.0099509622,FEMA4ImagesEEG,001,200173,
AFNE01.JPG,AFNE01.JPG,AFNE01.JPG,AFNE01.JPG,AFNE01.JPG,AFNE01.JPG,,,,,,,,,4,6,46,2,,,,,,,,,,,,,,,AFNE04.jpg,AFSA19.jpg,AFNE12.jpg,AFSA17.jpg,AFSA17.jpg,FS,4,num_4,32,num_6,1.25007705757,,,2017_Apr_21_1208,60.0099509622,FEMA4ImagesEEG,001,200173,
AFNE01.JPG,AFNE01.JPG,AFNE01.JPG,AFNE01.JPG,AFNE01.JPG,AFNE01.JPG,,,,,,,,,4,7,47,7,,,,,,,,,,,,,,,AFNE08.jpg,AFSA16.jpg,AFSA05.jpg,AFNE11.jpg,AFSA05.jpg,FS,4,num_2,16,num_2,1.35011782352,,,2017_Apr_21_1208,60.0099509622,FEMA4ImagesEEG,001,200173,
AFNE01.JPG,AFNE01.JPG,AFNE01.JPG,AFNE01.JPG,AFNE01.JPG,AFNE01.JPG,,,,,,,,,4,8,48,4,,,,,,,,,,,,,,,AFSA19.jpg,AFSA12.jpg,AFNE02.jpg,AFNE03.jpg,AFSA19.jpg,FS,4,num_8,32,num_2,2.34997926425,,,2017_Apr_21_1208,60.0099509622,FEMA4ImagesEEG,001,200173,
AFNE01.JPG,AFNE01.JPG,AFNE01.JPG,AFNE01.JPG,AFNE01.JPG,AFNE01.JPG,,,,,,,,,4,9,49,6,,,,,,,,,,,,,,,AFSA16.jpg,AFNE06.jpg,AFNE14.jpg,AFSA05.jpg,AFSA16.jpg,FS,4,num_8,16,num_8,1.25007385021,,,2017_Apr_21_1208,60.0099509622,FEMA4ImagesEEG,001,200173,
AFNE01.JPG,AFNE01.JPG,AFNE01.JPG,AFNE01.JPG,AFNE01.JPG,AFNE01.JPG,,,,,,,,,5,0,50,0,,,,,,,,,,,,,,,AFNE18.jpg,AFSA09.jpg,AFNE12.jpg,AFSA18.jpg,AFNE18.jpg,FN,3,num_8,32,num_2,1.91671336099,,,2017_Apr_21_1208,60.0099509622,FEMA4ImagesEEG,001,200173,
AFNE01.JPG,AFNE01.JPG,AFNE01.JPG,AFNE01.JPG,AFNE01.JPG,AFNE01.JPG,,,,,,,,,5,1,51,6,,,,,,,,,,,,,,,AFNE01.jpg,AFSA08.jpg,AFSA07.jpg,AFNE17.jpg,AFSA07.jpg,FS,4,num_2,32,num_4,1.55003385397,,,2017_Apr_21_1208,60.0099509622,FEMA4ImagesEEG,001,200173,
AFNE01.JPG,AFNE01.JPG,AFNE01.JPG,AFNE01.JPG,AFNE01.JPG,AFNE01.JPG,,,,,,,,,5,2,52,3,,,,,,,,,,,,,,,AFSA13.jpg,AFNE18.jpg,AFNE04.jpg,AFSA07.jpg,AFSA07.jpg,FS,4,num_4,16,num_4,0.900121207291,,,2017_Apr_21_1208,60.0099509622,FEMA4ImagesEEG,001,200173,
AFNE01.JPG,AFNE01.JPG,AFNE01.JPG,AFNE01.JPG,AFNE01.JPG,AFNE01.JPG,,,,,,,,,5,3,53,8,,,,,,,,,,,,,,,AFSA20.jpg,AFNE03.jpg,AFNE06.jpg,AFSA01.jpg,AFNE03.jpg,FN,3,num_6,32,num_8,1.00013150304,,,2017_Apr_21_1208,60.0099509622,FEMA4ImagesEEG,001,200173,
AFNE01.JPG,AFNE01.JPG,AFNE01.JPG,AFNE01.JPG,AFNE01.JPG,AFNE01.JPG,,,,,,,,,5,4,54,9,,,,,,,,,,,,,,,AFSA20.jpg,AFSA03.jpg,AFNE20.jpg,AFNE11.jpg,AFNE11.jpg,FN,3,num_4,32,num_2,2.01643659518,,,2017_Apr_21_1208,60.0099509622,FEMA4ImagesEEG,001,200173,
AFNE01.JPG,AFNE01.JPG,AFNE01.JPG,AFNE01.JPG,AFNE01.JPG,AFNE01.JPG,,,,,,,,,5,5,55,2,,,,,,,,,,,,,,,AFNE11.jpg,AFSA11.jpg,AFSA09.jpg,AFNE07.jpg,AFSA11.jpg,FS,4,num_6,32,num_8,0.900124735432,,,2017_Apr_21_1208,60.0099509622,FEMA4ImagesEEG,001,200173,
AFNE01.JPG,AFNE01.JPG,AFNE01.JPG,AFNE01.JPG,AFNE01.JPG,AFNE01.JPG,,,,,,,,,5,6,56,4,,,,,,,,,,,,,,,AFNE15.jpg,AFSA16.jpg,AFSA01.jpg,AFNE11.jpg,AFSA01.jpg,FS,4,num_2,32,num_6,1.03349638643,,,2017_Apr_21_1208,60.0099509622,FEMA4ImagesEEG,001,200173,
AFNE01.JPG,AFNE01.JPG,AFNE01.JPG,AFNE01.JPG,AFNE01.JPG,AFNE01.JPG,,,,,,,,,5,7,57,1,,,,,,,,,,,,,,,AFNE02.jpg,AFSA17.jpg,AFNE01.jpg,AFSA07.jpg,AFNE02.jpg,FN,3,num_8,16,num_8,0.966744809411,,,2017_Apr_21_1208,60.0099509622,FEMA4ImagesEEG,001,200173,
AFNE01.JPG,AFNE01.JPG,AFNE01.JPG,AFNE01.JPG,AFNE01.JPG,AFNE01.JPG,,,,,,,,,5,8,58,5,,,,,,,,,,,,,,,AFNE11.jpg,AFSA09.jpg,AFSA15.jpg,AFNE13.jpg,AFSA09.jpg,FS,4,num_6,32,num_4,0.966749941173,,,2017_Apr_21_1208,60.0099509622,FEMA4ImagesEEG,001,200173,
AFNE01.JPG,AFNE01.JPG,AFNE01.JPG,AFNE01.JPG,AFNE01.JPG,AFNE01.JPG,,,,,,,,,5,9,59,7,,,,,,,,,,,,,,,AFSA08.jpg,AFNE07.jpg,AFNE20.jpg,AFSA02.jpg,AFNE07.jpg,FN,3,num_6,16,num_6,0.833473229024,,,2017_Apr_21_1208,60.0099509622,FEMA4ImagesEEG,001,200173,
,,,,,,,,,,,,,,,,,,,,,,,,,,,,,,,,,,,,,,,,,,,space,12.0492324875,2017_Apr_21_1208,60.0099509622,FEMA4ImagesEEG,001,200173,
AFNE01.JPG,AFNE01.JPG,AFNE01.JPG,AFNE01.JPG,AFNE01.JPG,AFNE01.JPG,,,,,,,,,,,,,0,0,0,8,,,,,,,,,,,AMNE15.jpg,AMSA16.jpg,AMNE12.jpg,AMSA04.jpg,AMSA16.jpg,MS,2,num_6,32,num_2,1.8000506126,,,2017_Apr_21_1208,60.0099509622,FEMA4ImagesEEG,001,200173,
AFNE01.JPG,AFNE01.JPG,AFNE01.JPG,AFNE01.JPG,AFNE01.JPG,AFNE01.JPG,,,,,,,,,,,,,0,1,1,5,,,,,,,,,,,AMSA02.jpg,AMNE18.jpg,AMSA12.jpg,AMNE16.jpg,AMSA12.jpg,MS,2,num_2,32,num_6,1.30007290404,,,2017_Apr_21_1208,60.0099509622,FEMA4ImagesEEG,001,200173,
AFNE01.JPG,AFNE01.JPG,AFNE01.JPG,AFNE01.JPG,AFNE01.JPG,AFNE01.JPG,,,,,,,,,,,,,0,2,2,9,,,,,,,,,,,AMSA04.jpg,AMNE16.jpg,AMSA18.jpg,AMNE01.jpg,AMSA18.jpg,MS,2,num_2,16,num_2,1.9163910182,,,2017_Apr_21_1208,60.0099509622,FEMA4ImagesEEG,001,200173,
AFNE01.JPG,AFNE01.JPG,AFNE01.JPG,AFNE01.JPG,AFNE01.JPG,AFNE01.JPG,,,,,,,,,,,,,0,3,3,3,,,,,,,,,,,AMNE10.jpg,AMSA05.jpg,AMSA20.jpg,AMNE02.jpg,AMNE10.jpg,MN,1,num_8,16,num_8,0.750165100442,,,2017_Apr_21_1208,60.0099509622,FEMA4ImagesEEG,001,200173,
AFNE01.JPG,AFNE01.JPG,AFNE01.JPG,AFNE01.JPG,AFNE01.JPG,AFNE01.JPG,,,,,,,,,,,,,0,4,4,1,,,,,,,,,,,AMNE16.jpg,AMSA08.jpg,AMNE10.jpg,AMSA17.jpg,AMSA08.jpg,MS,2,num_6,16,num_6,0.783443063556,,,2017_Apr_21_1208,60.0099509622,FEMA4ImagesEEG,001,200173,
AFNE01.JPG,AFNE01.JPG,AFNE01.JPG,AFNE01.JPG,AFNE01.JPG,AFNE01.JPG,,,,,,,,,,,,,0,5,5,7,,,,,,,,,,,AMSA08.jpg,AMNE11.jpg,AMSA15.jpg,AMNE12.jpg,AMSA15.jpg,MS,2,num_2,16,num_2,1.73338755959,,,2017_Apr_21_1208,60.0099509622,FEMA4ImagesEEG,001,200173,
AFNE01.JPG,AFNE01.JPG,AFNE01.JPG,AFNE01.JPG,AFNE01.JPG,AFNE01.JPG,,,,,,,,,,,,,0,6,6,4,,,,,,,,,,,AMNE04.jpg,AMNE17.jpg,AMSA08.jpg,AMSA18.jpg,AMNE17.jpg,MN,1,num_6,16,num_6,0.783470326336,,,2017_Apr_21_1208,60.0099509622,FEMA4ImagesEEG,001,200173,
AFNE01.JPG,AFNE01.JPG,AFNE01.JPG,AFNE01.JPG,AFNE01.JPG,AFNE01.JPG,,,,,,,,,,,,,0,7,7,2,,,,,,,,,,,AMNE15.jpg,AMSA16.jpg,AMNE05.jpg,AMSA09.jpg,AMNE05.jpg,MN,1,num_2,16,num_2,1.55008870037,,,2017_Apr_21_1208,60.0099509622,FEMA4ImagesEEG,001,200173,
AFNE01.JPG,AFNE01.JPG,AFNE01.JPG,AFNE01.JPG,AFNE01.JPG,AFNE01.JPG,,,,,,,,,,,,,0,8,8,6,,,,,,,,,,,AMNE08.jpg,AMSA09.jpg,AMNE04.jpg,AMSA11.jpg,AMSA09.jpg,MS,2,num_6,32,num_2,2.41665129794,,,2017_Apr_21_1208,60.0099509622,FEMA4ImagesEEG,001,200173,
AFNE01.JPG,AFNE01.JPG,AFNE01.JPG,AFNE01.JPG,AFNE01.JPG,AFNE01.JPG,,,,,,,,,,,,,0,9,9,0,,,,,,,,,,,AMSA08.jpg,AMSA10.jpg,AMNE13.jpg,AMNE10.jpg,AMNE13.jpg,MN,1,num_2,32,num_6,1.03344378516,,,2017_Apr_21_1208,60.0099509622,FEMA4ImagesEEG,001,200173,
AFNE01.JPG,AFNE01.JPG,AFNE01.JPG,AFNE01.JPG,AFNE01.JPG,AFNE01.JPG,,,,,,,,,,,,,1,0,10,1,,,,,,,,,,,AMNE20.jpg,AMSA17.jpg,AMSA19.jpg,AMNE01.jpg,AMSA17.jpg,MS,2,num_6,16,num_6,1.0667464452,,,2017_Apr_21_1208,60.0099509622,FEMA4ImagesEEG,001,200173,
AFNE01.JPG,AFNE01.JPG,AFNE01.JPG,AFNE01.JPG,AFNE01.JPG,AFNE01.JPG,,,,,,,,,,,,,1,1,11,7,,,,,,,,,,,AMSA20.jpg,AMSA10.jpg,AMNE17.jpg,AMNE14.jpg,AMNE14.jpg,MN,1,num_4,16,num_4,0.816735139117,,,2017_Apr_21_1208,60.0099509622,FEMA4ImagesEEG,001,200173,
AFNE01.JPG,AFNE01.JPG,AFNE01.JPG,AFNE01.JPG,AFNE01.JPG,AFNE01.JPG,,,,,,,,,,,,,1,2,12,2,,,,,,,,,,,AMSA06.jpg,AMNE18.jpg,AMNE20.jpg,AMSA18.jpg,AMNE18.jpg,MN,1,num_6,16,num_6,1.10022262501,,,2017_Apr_21_1208,60.0099509622,FEMA4ImagesEEG,001,200173,
AFNE01.JPG,AFNE01.JPG,AFNE01.JPG,AFNE01.JPG,AFNE01.JPG,AFNE01.JPG,,,,,,,,,,,,,1,3,13,0,,,,,,,,,,,AMSA20.jpg,AMSA11.jpg,AMNE18.jpg,AMNE16.jpg,AMSA20.jpg,MS,2,num_8,16,num_8,0.750193004729,,,2017_Apr_21_1208,60.0099509622,FEMA4ImagesEEG,001,200173,
AFNE01.JPG,AFNE01.JPG,AFNE01.JPG,AFNE01.JPG,AFNE01.JPG,AFNE01.JPG,,,,,,,,,,,,,1,4,14,6,,,,,,,,,,,AMNE04.jpg,AMNE01.jpg,AMSA04.jpg,AMSA05.jpg,AMNE01.jpg,MN,1,num_6,16,num_6,0.950095564185,,,2017_Apr_21_1208,60.0099509622,FEMA4ImagesEEG,001,200173,
AFNE01.JPG,AFNE01.JPG,AFNE01.JPG,AFNE01.JPG,AFNE01.JPG,AFNE01.JPG,,,,,,,,,,,,,1,5,15,5,,,,,,,,,,,AMSA14.jpg,AMNE18.jpg,AMSA06.jpg,AMNE15.jpg,AMSA14.jpg,MS,2,num_8,16,num_8,0.750126611732,,,2017_Apr_21_1208,60.0099509622,FEMA4ImagesEEG,001,200173,
AFNE01.JPG,AFNE01.JPG,AFNE01.JPG,AFNE01.JPG,AFNE01.JPG,AFNE01.JPG,,,,,,,,,,,,,1,6,16,3,,,,,,,,,,,AMSA18.jpg,AMNE01.jpg,AMSA03.jpg,AMNE16.jpg,AMNE01.jpg,MN,1,num_6,16,num_6,1.01673488249,,,2017_Apr_21_1208,60.0099509622,FEMA4ImagesEEG,001,200173,
AFNE01.JPG,AFNE01.JPG,AFNE01.JPG,AFNE01.JPG,AFNE01.JPG,AFNE01.JPG,,,,,,,,,,,,,1,7,17,8,,,,,,,,,,,AMSA20.jpg,AMNE06.jpg,AMSA10.jpg,AMNE14.jpg,AMNE06.jpg,MN,1,num_6,16,num_6,0.816786457377,,,2017_Apr_21_1208,60.0099509622,FEMA4ImagesEEG,001,200173,
AFNE01.JPG,AFNE01.JPG,AFNE01.JPG,AFNE01.JPG,AFNE01.JPG,AFNE01.JPG,,,,,,,,,,,,,1,8,18,4,,,,,,,,,,,AMSA19.jpg,AMNE10.jpg,AMSA18.jpg,AMNE11.jpg,AMNE11.jpg,MN,1,num_4,32,num_8,0.833479643799,,,2017_Apr_21_1208,60.0099509622,FEMA4ImagesEEG,001,200173,
AFNE01.JPG,AFNE01.JPG,AFNE01.JPG,AFNE01.JPG,AFNE01.JPG,AFNE01.JPG,,,,,,,,,,,,,1,9,19,9,,,,,,,,,,,AMNE05.jpg,AMSA04.jpg,AMSA11.jpg,AMNE18.jpg,AMSA11.jpg,MS,2,num_2,32,num_6,0.916725228308,,,2017_Apr_21_1208,60.0099509622,FEMA4ImagesEEG,001,200173,
AFNE01.JPG,AFNE01.JPG,AFNE01.JPG,AFNE01.JPG,AFNE01.JPG,AFNE01.JPG,,,,,,,,,,,,,2,0,20,6,,,,,,,,,,,AMNE09.jpg,AMNE16.jpg,AMSA18.jpg,AMSA11.jpg,AMNE16.jpg,MN,1,num_6,32,num_8,0.916782961285,,,2017_Apr_21_1208,60.0099509622,FEMA4ImagesEEG,001,200173,
AFNE01.JPG,AFNE01.JPG,AFNE01.JPG,AFNE01.JPG,AFNE01.JPG,AFNE01.JPG,,,,,,,,,,,,,2,1,21,4,,,,,,,,,,,AMSA17.jpg,AMNE10.jpg,AMNE04.jpg,AMSA09.jpg,AMNE04.jpg,MN,1,num_2,16,num_2,1.51668212097,,,2017_Apr_21_1208,60.0099509622,FEMA4ImagesEEG,001,200173,
AFNE01.JPG,AFNE01.JPG,AFNE01.JPG,AFNE01.JPG,AFNE01.JPG,AFNE01.JPG,,,,,,,,,,,,,2,2,22,9,,,,,,,,,,,AMSA02.jpg,AMNE15.jpg,AMSA12.jpg,AMNE08.jpg,AMSA02.jpg,MS,2,num_8,16,num_8,1.01679550222,,,2017_Apr_21_1208,60.0099509622,FEMA4ImagesEEG,001,200173,
AFNE01.JPG,AFNE01.JPG,AFNE01.JPG,AFNE01.JPG,AFNE01.JPG,AFNE01.JPG,,,,,,,,,,,,,2,3,23,1,,,,,,,,,,,AMSA19.jpg,AMNE20.jpg,AMSA07.jpg,AMNE11.jpg,AMSA19.jpg,MS,2,num_8,32,num_6,0.916731643025,,,2017_Apr_21_1208,60.0099509622,FEMA4ImagesEEG,001,200173,
AFNE01.JPG,AFNE01.JPG,AFNE01.JPG,AFNE01.JPG,AFNE01.JPG,AFNE01.JPG,,,,,,,,,,,,,2,4,24,0,,,,,,,,,,,AMNE08.jpg,AMNE15.jpg,AMSA02.jpg,AMSA03.jpg,AMSA02.jpg,MS,2,num_2,16,num_2,1.8000371416,,,2017_Apr_21_1208,60.0099509622,FEMA4ImagesEEG,001,200173,
AFNE01.JPG,AFNE01.JPG,AFNE01.JPG,AFNE01.JPG,AFNE01.JPG,AFNE01.JPG,,,,,,,,,,,,,2,5,25,7,,,,,,,,,,,AMNE05.jpg,AMSA19.jpg,AMNE18.jpg,AMSA13.jpg,AMNE18.jpg,MN,1,num_2,32,num_8,0.850145246659,,,2017_Apr_21_1208,60.0099509622,FEMA4ImagesEEG,001,200173,
AFNE01.JPG,AFNE01.JPG,AFNE01.JPG,AFNE01.JPG,AFNE01.JPG,AFNE01.JPG,,,,,,,,,,,,,2,6,26,3,,,,,,,,,,,AMNE04.jpg,AMSA13.jpg,AMNE06.jpg,AMSA02.jpg,AMSA13.jpg,MS,2,num_6,32,num_4,0.833466814249,,,2017_Apr_21_1208,60.0099509622,FEMA4ImagesEEG,001,200173,
AFNE01.JPG,AFNE01.JPG,AFNE01.JPG,AFNE01.JPG,AFNE01.JPG,AFNE01.JPG,,,,,,,,,,,,,2,7,27,8,,,,,,,,,,,AMNE09.jpg,AMSA02.jpg,AMSA01.jpg,AMNE01.jpg,AMNE09.jpg,MN,1,num_8,16,num_8,0.616750791203,,,2017_Apr_21_1208,60.0099509622,FEMA4ImagesEEG,001,200173,
AFNE01.JPG,AFNE01.JPG,AFNE01.JPG,AFNE01.JPG,AFNE01.JPG,AFNE01.JPG,,,,,,,,,,,,,2,8,28,2,,,,,,,,,,,AMNE07.jpg,AMSA12.jpg,AMSA02.jpg,AMNE02.jpg,AMSA12.jpg,MS,2,num_6,16,num_6,1.100067708,,,2017_Apr_21_1208,60.0099509622,FEMA4ImagesEEG,001,200173,
AFNE01.JPG,AFNE01.JPG,AFNE01.JPG,AFNE01.JPG,AFNE01.JPG,AFNE01.JPG,,,,,,,,,,,,,2,9,29,5,,,,,,,,,,,AMNE09.jpg,AMNE11.jpg,AMSA03.jpg,AMSA11.jpg,AMSA11.jpg,MS,2,num_4,16,num_4,0.716773274995,,,2017_Apr_21_1208,60.0099509622,FEMA4ImagesEEG,001,200173,
AFNE01.JPG,AFNE01.JPG,AFNE01.JPG,AFNE01.JPG,AFNE01.JPG,AFNE01.JPG,,,,,,,,,,,,,3,0,30,9,,,,,,,,,,,AMSA09.jpg,AMSA08.jpg,AMNE14.jpg,AMNE10.jpg,AMSA08.jpg,MS,2,num_6,16,num_6,0.900136923534,,,2017_Apr_21_1208,60.0099509622,FEMA4ImagesEEG,001,200173,
AFNE01.JPG,AFNE01.JPG,AFNE01.JPG,AFNE01.JPG,AFNE01.JPG,AFNE01.JPG,,,,,,,,,,,,,3,1,31,7,,,,,,,,,,,AMSA13.jpg,AMNE20.jpg,AMSA07.jpg,AMNE19.jpg,AMNE20.jpg,MN,1,num_6,32,num_4,0.883422568324,,,2017_Apr_21_1208,60.0099509622,FEMA4ImagesEEG,001,200173,
AFNE01.JPG,AFNE01.JPG,AFNE01.JPG,AFNE01.JPG,AFNE01.JPG,AFNE01.JPG,,,,,,,,,,,,,3,2,32,1,,,,,,,,,,,AMNE07.jpg,AMNE11.jpg,AMSA17.jpg,AMSA07.jpg,AMNE11.jpg,MN,1,num_6,16,num_6,1.44995716529,,,2017_Apr_21_1208,60.0099509622,FEMA4ImagesEEG,001,200173,
AFNE01.JPG,AFNE01.JPG,AFNE01.JPG,AFNE01.JPG,AFNE01.JPG,AFNE01.JPG,,,,,,,,,,,,,3,3,33,8,,,,,,,,,,,AMNE06.jpg,AMNE01.jpg,AMSA13.jpg,AMSA08.jpg,AMNE01.jpg,MN,1,num_6,16,num_6,1.06628842978,,,2017_Apr_21_1208,60.0099509622,FEMA4ImagesEEG,001,200173,
AFNE01.JPG,AFNE01.JPG,AFNE01.JPG,AFNE01.JPG,AFNE01.JPG,AFNE01.JPG,,,,,,,,,,,,,3,4,34,0,,,,,,,,,,,AMNE17.jpg,AMNE10.jpg,AMSA08.jpg,AMSA17.jpg,AMSA08.jpg,MS,2,num_2,32,num_4,1.71669148654,,,2017_Apr_21_1208,60.0099509622,FEMA4ImagesEEG,001,200173,
AFNE01.JPG,AFNE01.JPG,AFNE01.JPG,AFNE01.JPG,AFNE01.JPG,AFNE01.JPG,,,,,,,,,,,,,3,5,35,5,,,,,,,,,,,AMSA09.jpg,AMSA04.jpg,AMNE02.jpg,AMNE01.jpg,AMSA09.jpg,MS,2,num_8,32,num_4,1.2000792867,,,2017_Apr_21_1208,60.0099509622,FEMA4ImagesEEG,001,200173,
AFNE01.JPG,AFNE01.JPG,AFNE01.JPG,AFNE01.JPG,AFNE01.JPG,AFNE01.JPG,,,,,,,,,,,,,3,6,36,2,,,,,,,,,,,AMNE09.jpg,AMNE18.jpg,AMSA14.jpg,AMSA18.jpg,AMNE09.jpg,MN,1,num_8,16,num_8,1.06674516218,,,2017_Apr_21_1208,60.0099509622,FEMA4ImagesEEG,001,200173,
AFNE01.JPG,AFNE01.JPG,AFNE01.JPG,AFNE01.JPG,AFNE01.JPG,AFNE01.JPG,,,,,,,,,,,,,3,7,37,6,,,,,,,,,,,AMSA18.jpg,AMSA09.jpg,AMNE15.jpg,AMNE13.jpg,AMNE13.jpg,MN,1,num_4,32,num_8,0.933479355124,,,2017_Apr_21_1208,60.0099509622,FEMA4ImagesEEG,001,200173,
AFNE01.JPG,AFNE01.JPG,AFNE01.JPG,AFNE01.JPG,AFNE01.JPG,AFNE01.JPG,,,,,,,,,,,,,3,8,38,4,,,,,,,,,,,AMNE08.jpg,AMNE14.jpg,AMSA15.jpg,AMSA19.jpg,AMSA15.jpg,MS,2,num_2,16,num_2,1.30022012326,,,2017_Apr_21_1208,60.0099509622,FEMA4ImagesEEG,001,200173,
AFNE01.JPG,AFNE01.JPG,AFNE01.JPG,AFNE01.JPG,AFNE01.JPG,AFNE01.JPG,,,,,,,,,,,,,3,9,39,3,,,,,,,,,,,AMSA15.jpg,AMSA18.jpg,AMNE20.jpg,AMNE08.jpg,AMSA18.jpg,MS,2,num_6,16,num_6,0.916741585941,,,2017_Apr_21_1208,60.0099509622,FEMA4ImagesEEG,001,200173,
AFNE01.JPG,AFNE01.JPG,AFNE01.JPG,AFNE01.JPG,AFNE01.JPG,AFNE01.JPG,,,,,,,,,,,,,4,0,40,7,,,,,,,,,,,AMSA20.jpg,AMNE18.jpg,AMSA07.jpg,AMNE08.jpg,AMSA07.jpg,MS,2,num_2,16,num_2,1.65003581054,,,2017_Apr_21_1208,60.0099509622,FEMA4ImagesEEG,001,200173,
AFNE01.JPG,AFNE01.JPG,AFNE01.JPG,AFNE01.JPG,AFNE01.JPG,AFNE01.JPG,,,,,,,,,,,,,4,1,41,9,,,,,,,,,,,AMNE06.jpg,AMSA08.jpg,AMNE05.jpg,AMSA16.jpg,AMSA08.jpg,MS,2,num_6,32,num_8,0.816777797416,,,2017_Apr_21_1208,60.0099509622,FEMA4ImagesEEG,001,200173,
AFNE01.JPG,AFNE01.JPG,AFNE01.JPG,AFNE01.JPG,AFNE01.JPG,AFNE01.JPG,,,,,,,,,,,,,4,2,42,4,,,,,,,,,,,AMNE17.jpg,AMNE12.jpg,AMSA18.jpg,AMSA09.jpg,AMSA18.jpg,MS,2,num_2,16,num_2,1.45003189746,,,2017_Apr_21_1208,60.0099509622,FEMA4ImagesEEG,001,200173,
AFNE01.JPG,AFNE01.JPG,AFNE01.JPG,AFNE01.JPG,AFNE01.JPG,AFNE01.JPG,,,,,,,,,,,,,4,3,43,5,,,,,,,,,,,AMSA05.jpg,AMNE06.jpg,AMNE08.jpg,AMSA01.jpg,AMSA01.jpg,MS,2,num_4,16,num_4,0.683523536951,,,2017_Apr_21_1208,60.0099509622,FEMA4ImagesEEG,001,200173,
AFNE01.JPG,AFNE01.JPG,AFNE01.JPG,AFNE01.JPG,AFNE01.JPG,AFNE01.JPG,,,,,,,,,,,,,4,4,44,1,,,,,,,,,,,AMSA06.jpg,AMSA12.jpg,AMNE07.jpg,AMNE20.jpg,AMSA12.jpg,MS,2,num_6,16,num_6,0.983437995834,,,2017_Apr_21_1208,60.0099509622,FEMA4ImagesEEG,001,200173,
AFNE01.JPG,AFNE01.JPG,AFNE01.JPG,AFNE01.JPG,AFNE01.JPG,AFNE01.JPG,,,,,,,,,,,,,4,5,45,0,,,,,,,,,,,AMSA14.jpg,AMSA18.jpg,AMNE15.jpg,AMNE18.jpg,AMNE15.jpg,MN,1,num_2,16,num_2,1.48340383713,,,2017_Apr_21_1208,60.0099509622,FEMA4ImagesEEG,001,200173,
AFNE01.JPG,AFNE01.JPG,AFNE01.JPG,AFNE01.JPG,AFNE01.JPG,AFNE01.JPG,,,,,,,,,,,,,4,6,46,2,,,,,,,,,,,AMSA11.jpg,AMSA04.jpg,AMNE11.jpg,AMNE17.jpg,AMNE11.jpg,MN,1,num_2,32,num_4,1.31673273363,,,2017_Apr_21_1208,60.0099509622,FEMA4ImagesEEG,001,200173,
AFNE01.JPG,AFNE01.JPG,AFNE01.JPG,AFNE01.JPG,AFNE01.JPG,AFNE01.JPG,,,,,,,,,,,,,4,7,47,6,,,,,,,,,,,AMSA06.jpg,AMSA20.jpg,AMNE03.jpg,AMNE02.jpg,AMSA20.jpg,MS,2,num_6,32,num_8,1.36668463878,,,2017_Apr_21_1208,60.0099509622,FEMA4ImagesEEG,001,200173,
AFNE01.JPG,AFNE01.JPG,AFNE01.JPG,AFNE01.JPG,AFNE01.JPG,AFNE01.JPG,,,,,,,,,,,,,4,8,48,3,,,,,,,,,,,AMNE03.jpg,AMSA16.jpg,AMSA20.jpg,AMNE02.jpg,AMSA20.jpg,MS,2,num_2,16,num_2,1.33337588469,,,2017_Apr_21_1208,60.0099509622,FEMA4ImagesEEG,001,200173,
AFNE01.JPG,AFNE01.JPG,AFNE01.JPG,AFNE01.JPG,AFNE01.JPG,AFNE01.JPG,,,,,,,,,,,,,4,9,49,8,,,,,,,,,,,AMNE05.jpg,AMSA09.jpg,AMNE20.jpg,AMSA15.jpg,AMSA09.jpg,MS,2,num_6,32,num_8,0.983450825384,,,2017_Apr_21_1208,60.0099509622,FEMA4ImagesEEG,001,200173,
AFNE01.JPG,AFNE01.JPG,AFNE01.JPG,AFNE01.JPG,AFNE01.JPG,AFNE01.JPG,,,,,,,,,,,,,5,0,50,3,,,,,,,,,,,AMNE16.jpg,AMSA18.jpg,AMNE09.jpg,AMSA20.jpg,AMSA20.jpg,MS,2,num_4,32,num_8,0.916763716959,,,2017_Apr_21_1208,60.0099509622,FEMA4ImagesEEG,001,200173,
AFNE01.JPG,AFNE01.JPG,AFNE01.JPG,AFNE01.JPG,AFNE01.JPG,AFNE01.JPG,,,,,,,,,,,,,5,1,51,7,,,,,,,,,,,AMNE01.jpg,AMSA18.jpg,AMNE18.jpg,AMSA08.jpg,AMSA08.jpg,MS,2,num_4,32,num_2,1.60002328566,,,2017_Apr_21_1208,60.0099509622,FEMA4ImagesEEG,001,200173,
AFNE01.JPG,AFNE01.JPG,AFNE01.JPG,AFNE01.JPG,AFNE01.JPG,AFNE01.JPG,,,,,,,,,,,,,5,2,52,8,,,,,,,,,,,AMNE08.jpg,AMSA03.jpg,AMNE01.jpg,AMSA15.jpg,AMSA15.jpg,MS,2,num_4,16,num_4,0.783495343989,,,2017_Apr_21_1208,60.0099509622,FEMA4ImagesEEG,001,200173,
AFNE01.JPG,AFNE01.JPG,AFNE01.JPG,AFNE01.JPG,AFNE01.JPG,AFNE01.JPG,,,,,,,,,,,,,5,3,53,6,,,,,,,,,,,AMSA14.jpg,AMSA15.jpg,AMNE16.jpg,AMNE03.jpg,AMNE03.jpg,MN,1,num_4,16,num_4,0.783511060232,,,2017_Apr_21_1208,60.0099509622,FEMA4ImagesEEG,001,200173,
AFNE01.JPG,AFNE01.JPG,AFNE01.JPG,AFNE01.JPG,AFNE01.JPG,AFNE01.JPG,,,,,,,,,,,,,5,4,54,0,,,,,,,,,,,AMNE15.jpg,AMSA12.jpg,AMNE14.jpg,AMSA07.jpg,AMSA12.jpg,MS,2,num_6,32,num_4,0.950254330062,,,2017_Apr_21_1208,60.0099509622,FEMA4ImagesEEG,001,200173,
AFNE01.JPG,AFNE01.JPG,AFNE01.JPG,AFNE01.JPG,AFNE01.JPG,AFNE01.JPG,,,,,,,,,,,,,5,5,55,5,,,,,,,,,,,AMNE19.jpg,AMSA07.jpg,AMNE14.jpg,AMSA16.jpg,AMNE14.jpg,MN,1,num_2,16,num_2,1.71669212799,,,2017_Apr_21_1208,60.0099509622,FEMA4ImagesEEG,001,200173,
AFNE01.JPG,AFNE01.JPG,AFNE01.JPG,AFNE01.JPG,AFNE01.JPG,AFNE01.JPG,,,,,,,,,,,,,5,6,56,2,,,,,,,,,,,AMSA12.jpg,AMNE07.jpg,AMSA01.jpg,AMNE08.jpg,AMNE07.jpg,MN,1,num_6,16,num_6,1.16645781207,,,2017_Apr_21_1208,60.0099509622,FEMA4ImagesEEG,001,200173,
AFNE01.JPG,AFNE01.JPG,AFNE01.JPG,AFNE01.JPG,AFNE01.JPG,AFNE01.JPG,,,,,,,,,,,,,5,7,57,9,,,,,,,,,,,AMSA05.jpg,AMNE09.jpg,AMNE06.jpg,AMSA17.jpg,AMSA05.jpg,MS,2,num_8,16,num_8,1.16676508012,,,2017_Apr_21_1208,60.0099509622,FEMA4ImagesEEG,001,200173,
AFNE01.JPG,AFNE01.JPG,AFNE01.JPG,AFNE01.JPG,AFNE01.JPG,AFNE01.JPG,,,,,,,,,,,,,5,8,58,4,,,,,,,,,,,AMNE11.jpg,AMSA04.jpg,AMSA20.jpg,AMNE13.jpg,AMSA20.jpg,MS,2,num_2,32,num_4,1.98332734086,,,2017_Apr_21_1208,60.0099509622,FEMA4ImagesEEG,001,200173,
AFNE01.JPG,AFNE01.JPG,AFNE01.JPG,AFNE01.JPG,AFNE01.JPG,AFNE01.JPG,,,,,,,,,,,,,5,9,59,1,,,,,,,,,,,AMNE07.jpg,AMNE13.jpg,AMSA09.jpg,AMSA18.jpg,AMNE07.jpg,MN,1,num_8,16,num_8,0.850087834406,,,2017_Apr_21_1208,60.0099509622,FEMA4ImagesEEG,001,200173,
,,,,,,,,,,,,,,,,,,,,,,,,,,,,,,,,,,,,,,,,,,,space,15.698963275,2017_Apr_21_1208,60.0099509622,FEMA4ImagesEEG,001,200173,
AFNE01.JPG,AFNE01.JPG,AFNE01.JPG,AFNE01.JPG,AFNE01.JPG,AFNE01.JPG,,,,,,,,,,,,,,,,,0,0,0,4,,,,,,,AFNE03.jpg,AFSA11.jpg,AFNE18.jpg,AFSA01.jpg,AFSA11.jpg,FS,4,num_6,16,num_6,1.23345988628,,,2017_Apr_21_1208,60.0099509622,FEMA4ImagesEEG,001,200173,
AFNE01.JPG,AFNE01.JPG,AFNE01.JPG,AFNE01.JPG,AFNE01.JPG,AFNE01.JPG,,,,,,,,,,,,,,,,,0,1,1,3,,,,,,,AFNE04.jpg,AFNE15.jpg,AFSA04.jpg,AFSA09.jpg,AFSA09.jpg,FS,4,num_4,16,num_4,0.900099397055,,,2017_Apr_21_1208,60.0099509622,FEMA4ImagesEEG,001,200173,
AFNE01.JPG,AFNE01.JPG,AFNE01.JPG,AFNE01.JPG,AFNE01.JPG,AFNE01.JPG,,,,,,,,,,,,,,,,,0,2,2,9,,,,,,,AFNE13.jpg,AFSA05.jpg,AFSA16.jpg,AFNE05.jpg,AFSA05.jpg,FS,4,num_6,16,num_6,0.716812725877,,,2017_Apr_21_1208,60.0099509622,FEMA4ImagesEEG,001,200173,
AFNE01.JPG,AFNE01.JPG,AFNE01.JPG,AFNE01.JPG,AFNE01.JPG,AFNE01.JPG,,,,,,,,,,,,,,,,,0,3,3,5,,,,,,,AFNE03.jpg,AFSA03.jpg,AFNE12.jpg,AFSA17.jpg,AFSA17.jpg,FS,4,num_4,32,num_8,0.73348217766,,,2017_Apr_21_1208,60.0099509622,FEMA4ImagesEEG,001,200173,
AFNE01.JPG,AFNE01.JPG,AFNE01.JPG,AFNE01.JPG,AFNE01.JPG,AFNE01.JPG,,,,,,,,,,,,,,,,,0,4,4,0,,,,,,,AFSA08.jpg,AFNE17.jpg,AFNE15.jpg,AFSA15.jpg,AFNE15.jpg,FN,3,num_2,32,num_4,0.800131759606,,,2017_Apr_21_1208,60.0099509622,FEMA4ImagesEEG,001,200173,
AFNE01.JPG,AFNE01.JPG,AFNE01.JPG,AFNE01.JPG,AFNE01.JPG,AFNE01.JPG,,,,,,,,,,,,,,,,,0,5,5,6,,,,,,,AFNE13.jpg,AFSA13.jpg,AFNE01.jpg,AFSA14.jpg,AFSA13.jpg,FS,4,num_6,32,num_8,0.783433762088,,,2017_Apr_21_1208,60.0099509622,FEMA4ImagesEEG,001,200173,
AFNE01.JPG,AFNE01.JPG,AFNE01.JPG,AFNE01.JPG,AFNE01.JPG,AFNE01.JPG,,,,,,,,,,,,,,,,,0,6,6,7,,,,,,,AFSA14.jpg,AFNE07.jpg,AFNE20.jpg,AFSA04.jpg,AFSA04.jpg,FS,4,num_4,16,num_4,0.71691985277,,,2017_Apr_21_1208,60.0099509622,FEMA4ImagesEEG,001,200173,
AFNE01.JPG,AFNE01.JPG,AFNE01.JPG,AFNE01.JPG,AFNE01.JPG,AFNE01.JPG,,,,,,,,,,,,,,,,,0,7,7,2,,,,,,,AFSA14.jpg,AFNE11.jpg,AFNE20.jpg,AFSA13.jpg,AFNE20.jpg,FN,3,num_2,32,num_8,0.833462323877,,,2017_Apr_21_1208,60.0099509622,FEMA4ImagesEEG,001,200173,
AFNE01.JPG,AFNE01.JPG,AFNE01.JPG,AFNE01.JPG,AFNE01.JPG,AFNE01.JPG,,,,,,,,,,,,,,,,,0,8,8,8,,,,,,,AFSA17.jpg,AFNE13.jpg,AFSA07.jpg,AFNE08.jpg,AFSA17.jpg,FS,4,num_8,32,num_6,0.883427700144,,,2017_Apr_21_1208,60.0099509622,FEMA4ImagesEEG,001,200173,
AFNE01.JPG,AFNE01.JPG,AFNE01.JPG,AFNE01.JPG,AFNE01.JPG,AFNE01.JPG,,,,,,,,,,,,,,,,,0,9,9,1,,,,,,,AFSA10.jpg,AFSA15.jpg,AFNE08.jpg,AFNE03.jpg,AFSA10.jpg,FS,4,num_8,16,num_8,0.950104865653,,,2017_Apr_21_1208,60.0099509622,FEMA4ImagesEEG,001,200173,
AFNE01.JPG,AFNE01.JPG,AFNE01.JPG,AFNE01.JPG,AFNE01.JPG,AFNE01.JPG,,,,,,,,,,,,,,,,,1,0,10,0,,,,,,,AFNE04.jpg,AFNE02.jpg,AFSA15.jpg,AFSA16.jpg,AFSA15.jpg,FS,4,num_2,16,num_2,1.43338906707,,,2017_Apr_21_1208,60.0099509622,FEMA4ImagesEEG,001,200173,
AFNE01.JPG,AFNE01.JPG,AFNE01.JPG,AFNE01.JPG,AFNE01.JPG,AFNE01.JPG,,,,,,,,,,,,,,,,,1,1,11,8,,,,,,,AFNE01.jpg,AFSA12.jpg,AFSA18.jpg,AFNE20.jpg,AFNE20.jpg,FN,3,num_4,32,num_8,1.03345789772,,,2017_Apr_21_1208,60.0099509622,FEMA4ImagesEEG,001,200173,
AFNE01.JPG,AFNE01.JPG,AFNE01.JPG,AFNE01.JPG,AFNE01.JPG,AFNE01.JPG,,,,,,,,,,,,,,,,,1,2,12,3,,,,,,,AFSA07.jpg,AFSA13.jpg,AFNE16.jpg,AFNE18.jpg,AFNE16.jpg,FN,3,num_2,32,num_8,0.933339833689,,,2017_Apr_21_1208,60.0099509622,FEMA4ImagesEEG,001,200173,
AFNE01.JPG,AFNE01.JPG,AFNE01.JPG,AFNE01.JPG,AFNE01.JPG,AFNE01.JPG,,,,,,,,,,,,,,,,,1,3,13,9,,,,,,,AFNE14.jpg,AFNE11.jpg,AFSA04.jpg,AFSA15.jpg,AFNE11.jpg,FN,3,num_6,32,num_2,1.86651448661,,,2017_Apr_21_1208,60.0099509622,FEMA4ImagesEEG,001,200173,
AFNE01.JPG,AFNE01.JPG,AFNE01.JPG,AFNE01.JPG,AFNE01.JPG,AFNE01.JPG,,,,,,,,,,,,,,,,,1,4,14,2,,,,,,,AFNE07.jpg,AFSA10.jpg,AFNE03.jpg,AFSA04.jpg,AFNE07.jpg,FN,3,num_8,16,num_8,0.88339819212,,,2017_Apr_21_1208,60.0099509622,FEMA4ImagesEEG,001,200173,
AFNE01.JPG,AFNE01.JPG,AFNE01.JPG,AFNE01.JPG,AFNE01.JPG,AFNE01.JPG,,,,,,,,,,,,,,,,,1,5,15,5,,,,,,,AFSA11.jpg,AFNE06.jpg,AFNE20.jpg,AFSA07.jpg,AFSA11.jpg,FS,4,num_8,16,num_8,0.650111504947,,,2017_Apr_21_1208,60.0099509622,FEMA4ImagesEEG,001,200173,
AFNE01.JPG,AFNE01.JPG,AFNE01.JPG,AFNE01.JPG,AFNE01.JPG,AFNE01.JPG,,,,,,,,,,,,,,,,,1,6,16,1,,,,,,,AFSA10.jpg,AFSA06.jpg,AFNE16.jpg,AFNE20.jpg,AFNE20.jpg,FN,3,num_4,32,num_8,0.871486583957,,,2017_Apr_21_1208,60.0099509622,FEMA4ImagesEEG,001,200173,
AFNE01.JPG,AFNE01.JPG,AFNE01.JPG,AFNE01.JPG,AFNE01.JPG,AFNE01.JPG,,,,,,,,,,,,,,,,,1,7,17,7,,,,,,,AFSA18.jpg,AFNE20.jpg,AFNE02.jpg,AFSA10.jpg,AFNE02.jpg,FN,3,num_2,16,num_2,1.30009022396,,,2017_Apr_21_1208,60.0099509622,FEMA4ImagesEEG,001,200173,
AFNE01.JPG,AFNE01.JPG,AFNE01.JPG,AFNE01.JPG,AFNE01.JPG,AFNE01.JPG,,,,,,,,,,,,,,,,,1,8,18,6,,,,,,,AFNE01.jpg,AFSA06.jpg,AFSA11.jpg,AFNE06.jpg,AFNE06.jpg,FN,3,num_4,32,num_8,0.816814682446,,,2017_Apr_21_1208,60.0099509622,FEMA4ImagesEEG,001,200173,
AFNE01.JPG,AFNE01.JPG,AFNE01.JPG,AFNE01.JPG,AFNE01.JPG,AFNE01.JPG,,,,,,,,,,,,,,,,,1,9,19,4,,,,,,,AFNE13.jpg,AFSA02.jpg,AFSA17.jpg,AFNE07.jpg,AFSA02.jpg,FS,4,num_6,32,num_8,0.983442165423,,,2017_Apr_21_1208,60.0099509622,FEMA4ImagesEEG,001,200173,
AFNE01.JPG,AFNE01.JPG,AFNE01.JPG,AFNE01.JPG,AFNE01.JPG,AFNE01.JPG,,,,,,,,,,,,,,,,,2,0,20,2,,,,,,,AFNE19.jpg,AFNE07.jpg,AFSA09.jpg,AFSA18.jpg,AFSA09.jpg,FS,4,num_2,32,num_6,0.95009941305,,,2017_Apr_21_1208,60.0099509622,FEMA4ImagesEEG,001,200173,
AFNE01.JPG,AFNE01.JPG,AFNE01.JPG,AFNE01.JPG,AFNE01.JPG,AFNE01.JPG,,,,,,,,,,,,,,,,,2,1,21,1,,,,,,,AFSA05.jpg,AFNE11.jpg,AFNE12.jpg,AFSA17.jpg,AFNE11.jpg,FN,3,num_6,32,num_8,1.33312602894,,,2017_Apr_21_1208,60.0099509622,FEMA4ImagesEEG,001,200173,
AFNE01.JPG,AFNE01.JPG,AFNE01.JPG,AFNE01.JPG,AFNE01.JPG,AFNE01.JPG,,,,,,,,,,,,,,,,,2,2,22,0,,,,,,,AFSA11.jpg,AFNE12.jpg,AFNE19.jpg,AFSA08.jpg,AFNE12.jpg,FN,3,num_6,16,num_6,0.833476115658,,,2017_Apr_21_1208,60.0099509622,FEMA4ImagesEEG,001,200173,
AFNE01.JPG,AFNE01.JPG,AFNE01.JPG,AFNE01.JPG,AFNE01.JPG,AFNE01.JPG,,,,,,,,,,,,,,,,,2,3,23,8,,,,,,,AFNE03.jpg,AFSA14.jpg,AFNE02.jpg,AFSA05.jpg,AFNE03.jpg,FN,3,num_8,16,num_8,0.850140756345,,,2017_Apr_21_1208,60.0099509622,FEMA4ImagesEEG,001,200173,
AFNE01.JPG,AFNE01.JPG,AFNE01.JPG,AFNE01.JPG,AFNE01.JPG,AFNE01.JPG,,,,,,,,,,,,,,,,,2,4,24,5,,,,,,,AFNE03.jpg,AFSA19.jpg,AFSA14.jpg,AFNE06.jpg,AFNE06.jpg,FN,3,num_4,32,num_8,0.850103229925,,,2017_Apr_21_1208,60.0099509622,FEMA4ImagesEEG,001,200173,
AFNE01.JPG,AFNE01.JPG,AFNE01.JPG,AFNE01.JPG,AFNE01.JPG,AFNE01.JPG,,,,,,,,,,,,,,,,,2,5,25,3,,,,,,,AFNE02.jpg,AFNE01.jpg,AFSA19.jpg,AFSA05.jpg,AFNE01.jpg,FN,3,num_6,16,num_6,1.36670741119,,,2017_Apr_21_1208,60.0099509622,FEMA4ImagesEEG,001,200173,
AFNE01.JPG,AFNE01.JPG,AFNE01.JPG,AFNE01.JPG,AFNE01.JPG,AFNE01.JPG,,,,,,,,,,,,,,,,,2,6,26,7,,,,,,,AFNE19.jpg,AFSA20.jpg,AFNE10.jpg,AFSA12.jpg,AFNE10.jpg,FN,3,num_2,16,num_2,1.53336183639,,,2017_Apr_21_1208,60.0099509622,FEMA4ImagesEEG,001,200173,
AFNE01.JPG,AFNE01.JPG,AFNE01.JPG,AFNE01.JPG,AFNE01.JPG,AFNE01.JPG,,,,,,,,,,,,,,,,,2,7,27,9,,,,,,,AFSA11.jpg,AFSA03.jpg,AFNE13.jpg,AFNE04.jpg,AFSA11.jpg,FS,4,num_8,16,num_8,0.850114455738,,,2017_Apr_21_1208,60.0099509622,FEMA4ImagesEEG,001,200173,
AFNE01.JPG,AFNE01.JPG,AFNE01.JPG,AFNE01.JPG,AFNE01.JPG,AFNE01.JPG,,,,,,,,,,,,,,,,,2,8,28,4,,,,,,,AFNE14.jpg,AFSA02.jpg,AFSA13.jpg,AFNE05.jpg,AFSA02.jpg,FS,4,num_6,32,num_2,1.55002519401,,,2017_Apr_21_1208,60.0099509622,FEMA4ImagesEEG,001,200173,
AFNE01.JPG,AFNE01.JPG,AFNE01.JPG,AFNE01.JPG,AFNE01.JPG,AFNE01.JPG,,,,,,,,,,,,,,,,,2,9,29,6,,,,,,,AFNE18.jpg,AFNE10.jpg,AFSA14.jpg,AFSA12.jpg,AFSA12.jpg,FS,4,num_4,16,num_4,0.816728082835,,,2017_Apr_21_1208,60.0099509622,FEMA4ImagesEEG,001,200173,
AFNE01.JPG,AFNE01.JPG,AFNE01.JPG,AFNE01.JPG,AFNE01.JPG,AFNE01.JPG,,,,,,,,,,,,,,,,,3,0,30,2,,,,,,,AFSA14.jpg,AFNE04.jpg,AFSA19.jpg,AFNE13.jpg,AFSA19.jpg,FS,4,num_2,16,num_2,1.83337091329,,,2017_Apr_21_1208,60.0099509622,FEMA4ImagesEEG,001,200173,
AFNE01.JPG,AFNE01.JPG,AFNE01.JPG,AFNE01.JPG,AFNE01.JPG,AFNE01.JPG,,,,,,,,,,,,,,,,,3,1,31,8,,,,,,,AFSA02.jpg,AFNE20.jpg,AFSA10.jpg,AFNE12.jpg,AFNE20.jpg,FN,3,num_6,32,num_4,1.25009277376,,,2017_Apr_21_1208,60.0099509622,FEMA4ImagesEEG,001,200173,
AFNE01.JPG,AFNE01.JPG,AFNE01.JPG,AFNE01.JPG,AFNE01.JPG,AFNE01.JPG,,,,,,,,,,,,,,,,,3,2,32,3,,,,,,,AFSA20.jpg,AFSA09.jpg,AFNE17.jpg,AFNE16.jpg,AFNE16.jpg,FN,3,num_4,32,num_8,1.06674035115,,,2017_Apr_21_1208,60.0099509622,FEMA4ImagesEEG,001,200173,
AFNE01.JPG,AFNE01.JPG,AFNE01.JPG,AFNE01.JPG,AFNE01.JPG,AFNE01.JPG,,,,,,,,,,,,,,,,,3,3,33,4,,,,,,,AFNE18.jpg,AFSA06.jpg,AFSA02.jpg,AFNE16.jpg,AFSA02.jpg,FS,4,num_2,16,num_2,1.63339073496,,,2017_Apr_21_1208,60.0099509622,FEMA4ImagesEEG,001,200173,
AFNE01.JPG,AFNE01.JPG,AFNE01.JPG,AFNE01.JPG,AFNE01.JPG,AFNE01.JPG,,,,,,,,,,,,,,,,,3,4,34,5,,,,,,,AFNE04.jpg,AFSA08.jpg,AFSA16.jpg,AFNE12.jpg,AFNE04.jpg,FN,3,num_8,32,num_4,1.1665934847,,,2017_Apr_21_1208,60.0099509622,FEMA4ImagesEEG,001,200173,
AFNE01.JPG,AFNE01.JPG,AFNE01.JPG,AFNE01.JPG,AFNE01.JPG,AFNE01.JPG,,,,,,,,,,,,,,,,,3,5,35,9,,,,,,,AFNE14.jpg,AFSA09.jpg,AFNE20.jpg,AFSA07.jpg,AFNE20.jpg,FN,3,num_2,32,num_8,1.05012125539,,,2017_Apr_21_1208,60.0099509622,FEMA4ImagesEEG,001,200173,
AFNE01.JPG,AFNE01.JPG,AFNE01.JPG,AFNE01.JPG,AFNE01.JPG,AFNE01.JPG,,,,,,,,,,,,,,,,,3,6,36,6,,,,,,,AFSA02.jpg,AFNE10.jpg,AFNE02.jpg,AFSA10.jpg,AFNE02.jpg,FN,3,num_2,32,num_4,1.41671704943,,,2017_Apr_21_1208,60.0099509622,FEMA4ImagesEEG,001,200173,
AFNE01.JPG,AFNE01.JPG,AFNE01.JPG,AFNE01.JPG,AFNE01.JPG,AFNE01.JPG,,,,,,,,,,,,,,,,,3,7,37,0,,,,,,,AFSA12.jpg,AFNE17.jpg,AFNE05.jpg,AFSA13.jpg,AFSA12.jpg,FS,4,num_8,16,num_8,1.16671728995,,,2017_Apr_21_1208,60.0099509622,FEMA4ImagesEEG,001,200173,
AFNE01.JPG,AFNE01.JPG,AFNE01.JPG,AFNE01.JPG,AFNE01.JPG,AFNE01.JPG,,,,,,,,,,,,,,,,,3,8,38,1,,,,,,,AFNE08.jpg,AFSA06.jpg,AFNE05.jpg,AFSA14.jpg,AFSA06.jpg,FS,4,num_6,32,num_4,1.55010730325,,,2017_Apr_21_1208,60.0099509622,FEMA4ImagesEEG,001,200173,
AFNE01.JPG,AFNE01.JPG,AFNE01.JPG,AFNE01.JPG,AFNE01.JPG,AFNE01.JPG,,,,,,,,,,,,,,,,,3,9,39,7,,,,,,,AFSA11.jpg,AFNE10.jpg,AFNE11.jpg,AFSA13.jpg,AFSA13.jpg,FS,4,num_4,32,num_2,2.53330025444,,,2017_Apr_21_1208,60.0099509622,FEMA4ImagesEEG,001,200173,
AFNE01.JPG,AFNE01.JPG,AFNE01.JPG,AFNE01.JPG,AFNE01.JPG,AFNE01.JPG,,,,,,,,,,,,,,,,,4,0,40,5,,,,,,,AFSA09.jpg,AFNE01.jpg,AFSA02.jpg,AFNE19.jpg,AFSA09.jpg,FS,4,num_8,16,num_8,0.750137196155,,,2017_Apr_21_1208,60.0099509622,FEMA4ImagesEEG,001,200173,
AFNE01.JPG,AFNE01.JPG,AFNE01.JPG,AFNE01.JPG,AFNE01.JPG,AFNE01.JPG,,,,,,,,,,,,,,,,,4,1,41,0,,,,,,,AFSA16.jpg,AFSA06.jpg,AFNE17.jpg,AFNE02.jpg,AFNE02.jpg,FN,3,num_4,16,num_4,0.750132705783,,,2017_Apr_21_1208,60.0099509622,FEMA4ImagesEEG,001,200173,
AFNE01.JPG,AFNE01.JPG,AFNE01.JPG,AFNE01.JPG,AFNE01.JPG,AFNE01.JPG,,,,,,,,,,,,,,,,,4,2,42,8,,,,,,,AFSA15.jpg,AFSA11.jpg,AFNE05.jpg,AFNE15.jpg,AFSA15.jpg,FS,4,num_8,32,num_4,0.983757772716,,,2017_Apr_21_1208,60.0099509622,FEMA4ImagesEEG,001,200173,
AFNE01.JPG,AFNE01.JPG,AFNE01.JPG,AFNE01.JPG,AFNE01.JPG,AFNE01.JPG,,,,,,,,,,,,,,,,,4,3,43,6,,,,,,,AFNE10.jpg,AFSA18.jpg,AFSA19.jpg,AFNE08.jpg,AFNE10.jpg,FN,3,num_8,16,num_8,0.916800281208,,,2017_Apr_21_1208,60.0099509622,FEMA4ImagesEEG,001,200173,
AFNE01.JPG,AFNE01.JPG,AFNE01.JPG,AFNE01.JPG,AFNE01.JPG,AFNE01.JPG,,,,,,,,,,,,,,,,,4,4,44,4,,,,,,,AFSA06.jpg,AFNE09.jpg,AFNE17.jpg,AFSA16.jpg,AFNE09.jpg,FN,3,num_6,32,num_8,0.733472876251,,,2017_Apr_21_1208,60.0099509622,FEMA4ImagesEEG,001,200173,
AFNE01.JPG,AFNE01.JPG,AFNE01.JPG,AFNE01.JPG,AFNE01.JPG,AFNE01.JPG,,,,,,,,,,,,,,,,,4,5,45,3,,,,,,,AFSA13.jpg,AFNE02.jpg,AFNE05.jpg,AFSA17.jpg,AFSA13.jpg,FS,4,num_8,16,num_8,0.683433088532,,,2017_Apr_21_1208,60.0099509622,FEMA4ImagesEEG,001,200173,
AFNE01.JPG,AFNE01.JPG,AFNE01.JPG,AFNE01.JPG,AFNE01.JPG,AFNE01.JPG,,,,,,,,,,,,,,,,,4,6,46,7,,,,,,,AFNE20.jpg,AFNE07.jpg,AFSA07.jpg,AFSA18.jpg,AFSA07.jpg,FS,4,num_2,32,num_6,1.13343419507,,,2017_Apr_21_1208,60.0099509622,FEMA4ImagesEEG,001,200173,
AFNE01.JPG,AFNE01.JPG,AFNE01.JPG,AFNE01.JPG,AFNE01.JPG,AFNE01.JPG,,,,,,,,,,,,,,,,,4,7,47,1,,,,,,,AFNE03.jpg,AFNE15.jpg,AFSA17.jpg,AFSA20.jpg,AFSA20.jpg,FS,4,num_4,32,num_8,1.25014120538,,,2017_Apr_21_1208,60.0099509622,FEMA4ImagesEEG,001,200173,
AFNE01.JPG,AFNE01.JPG,AFNE01.JPG,AFNE01.JPG,AFNE01.JPG,AFNE01.JPG,,,,,,,,,,,,,,,,,4,8,48,2,,,,,,,AFNE19.jpg,AFNE04.jpg,AFSA03.jpg,AFSA08.jpg,AFNE04.jpg,FN,3,num_6,32,num_2,1.61673988606,,,2017_Apr_21_1208,60.0099509622,FEMA4ImagesEEG,001,200173,
AFNE01.JPG,AFNE01.JPG,AFNE01.JPG,AFNE01.JPG,AFNE01.JPG,AFNE01.JPG,,,,,,,,,,,,,,,,,4,9,49,9,,,,,,,AFNE16.jpg,AFSA04.jpg,AFNE04.jpg,AFSA14.jpg,AFNE04.jpg,FN,3,num_2,32,num_4,0.816795117338,,,2017_Apr_21_1208,60.0099509622,FEMA4ImagesEEG,001,200173,
AFNE01.JPG,AFNE01.JPG,AFNE01.JPG,AFNE01.JPG,AFNE01.JPG,AFNE01.JPG,,,,,,,,,,,,,,,,,5,0,50,6,,,,,,,AFSA11.jpg,AFNE20.jpg,AFSA19.jpg,AFNE13.jpg,AFNE13.jpg,FN,3,num_4,16,num_4,0.900114792516,,,2017_Apr_21_1208,60.0099509622,FEMA4ImagesEEG,001,200173,
AFNE01.JPG,AFNE01.JPG,AFNE01.JPG,AFNE01.JPG,AFNE01.JPG,AFNE01.JPG,,,,,,,,,,,,,,,,,5,1,51,0,,,,,,,AFNE14.jpg,AFSA17.jpg,AFSA08.jpg,AFNE09.jpg,AFNE09.jpg,FN,3,num_4,16,num_4,0.816774910782,,,2017_Apr_21_1208,60.0099509622,FEMA4ImagesEEG,001,200173,
AFNE01.JPG,AFNE01.JPG,AFNE01.JPG,AFNE01.JPG,AFNE01.JPG,AFNE01.JPG,,,,,,,,,,,,,,,,,5,2,52,8,,,,,,,AFNE03.jpg,AFSA20.jpg,AFSA17.jpg,AFNE07.jpg,AFSA20.jpg,FS,4,num_6,16,num_6,0.783425743633,,,2017_Apr_21_1208,60.0099509622,FEMA4ImagesEEG,001,200173,
AFNE01.JPG,AFNE01.JPG,AFNE01.JPG,AFNE01.JPG,AFNE01.JPG,AFNE01.JPG,,,,,,,,,,,,,,,,,5,3,53,1,,,,,,,AFSA04.jpg,AFNE03.jpg,AFNE13.jpg,AFSA14.jpg,AFNE13.jpg,FN,3,num_2,32,num_6,1.16669515899,,,2017_Apr_21_1208,60.0099509622,FEMA4ImagesEEG,001,200173,
AFNE01.JPG,AFNE01.JPG,AFNE01.JPG,AFNE01.JPG,AFNE01.JPG,AFNE01.JPG,,,,,,,,,,,,,,,,,5,4,54,2,,,,,,,AFNE03.jpg,AFSA05.jpg,AFNE18.jpg,AFSA15.jpg,AFSA15.jpg,FS,4,num_4,16,num_4,0.733494365762,,,2017_Apr_21_1208,60.0099509622,FEMA4ImagesEEG,001,200173,
AFNE01.JPG,AFNE01.JPG,AFNE01.JPG,AFNE01.JPG,AFNE01.JPG,AFNE01.JPG,,,,,,,,,,,,,,,,,5,5,55,7,,,,,,,AFSA02.jpg,AFNE13.jpg,AFNE04.jpg,AFSA11.jpg,AFSA02.jpg,FS,4,num_8,16,num_8,0.683440786263,,,2017_Apr_21_1208,60.0099509622,FEMA4ImagesEEG,001,200173,
AFNE01.JPG,AFNE01.JPG,AFNE01.JPG,AFNE01.JPG,AFNE01.JPG,AFNE01.JPG,,,,,,,,,,,,,,,,,5,6,56,9,,,,,,,AFNE08.jpg,AFSA03.jpg,AFSA05.jpg,AFNE14.jpg,AFNE08.jpg,FN,3,num_8,16,num_8,0.833619486017,,,2017_Apr_21_1208,60.0099509622,FEMA4ImagesEEG,001,200173,
AFNE01.JPG,AFNE01.JPG,AFNE01.JPG,AFNE01.JPG,AFNE01.JPG,AFNE01.JPG,,,,,,,,,,,,,,,,,5,7,57,3,,,,,,,AFSA12.jpg,AFNE18.jpg,AFNE19.jpg,AFSA05.jpg,AFSA12.jpg,FS,4,num_8,16,num_8,0.600130733277,,,2017_Apr_21_1208,60.0099509622,FEMA4ImagesEEG,001,200173,
AFNE01.JPG,AFNE01.JPG,AFNE01.JPG,AFNE01.JPG,AFNE01.JPG,AFNE01.JPG,,,,,,,,,,,,,,,,,5,8,58,4,,,,,,,AFSA18.jpg,AFNE07.jpg,AFSA16.jpg,AFNE19.jpg,AFNE07.jpg,FN,3,num_6,16,num_6,1.05012125539,,,2017_Apr_21_1208,60.0099509622,FEMA4ImagesEEG,001,200173,
AFNE01.JPG,AFNE01.JPG,AFNE01.JPG,AFNE01.JPG,AFNE01.JPG,AFNE01.JPG,,,,,,,,,,,,,,,,,5,9,59,5,,,,,,,AFNE18.jpg,AFNE10.jpg,AFSA01.jpg,AFSA14.jpg,AFSA01.jpg,FS,4,num_2,16,num_2,1.73335195758,,,2017_Apr_21_1208,60.0099509622,FEMA4ImagesEEG,001,200173,
,,,,,,,,,,,,,,,,,,,,,,,,,,,,,,,,,,,,,,,,,,,space,14.6659204137,2017_Apr_21_1208,60.0099509622,FEMA4ImagesEEG,001,200173,
AFNE01.JPG,AFNE01.JPG,AFNE01.JPG,AFNE01.JPG,AFNE01.JPG,AFNE01.JPG,,,,,,,,,,,,,,,,,,,,,0,0,0,6,,,AMNE03.jpg,AMNE10.jpg,AMSA14.jpg,AMSA01.jpg,AMNE03.jpg,MN,1,num_8,32,num_2,1.86667421472,,,2017_Apr_21_1208,60.0099509622,FEMA4ImagesEEG,001,200173,
AFNE01.JPG,AFNE01.JPG,AFNE01.JPG,AFNE01.JPG,AFNE01.JPG,AFNE01.JPG,,,,,,,,,,,,,,,,,,,,,0,1,1,5,,,AMNE10.jpg,AMNE12.jpg,AMSA14.jpg,AMSA10.jpg,AMNE10.jpg,MN,1,num_8,16,num_8,0.700200044957,,,2017_Apr_21_1208,60.0099509622,FEMA4ImagesEEG,001,200173,
AFNE01.JPG,AFNE01.JPG,AFNE01.JPG,AFNE01.JPG,AFNE01.JPG,AFNE01.JPG,,,,,,,,,,,,,,,,,,,,,0,2,2,7,,,AMNE10.jpg,AMSA20.jpg,AMSA13.jpg,AMNE18.jpg,AMSA20.jpg,MS,2,num_6,32,num_8,0.850105795776,,,2017_Apr_21_1208,60.0099509622,FEMA4ImagesEEG,001,200173,
AFNE01.JPG,AFNE01.JPG,AFNE01.JPG,AFNE01.JPG,AFNE01.JPG,AFNE01.JPG,,,,,,,,,,,,,,,,,,,,,0,3,3,9,,,AMSA04.jpg,AMNE13.jpg,AMSA03.jpg,AMNE11.jpg,AMSA03.jpg,MS,2,num_2,32,num_8,0.800171531213,,,2017_Apr_21_1208,60.0099509622,FEMA4ImagesEEG,001,200173,
AFNE01.JPG,AFNE01.JPG,AFNE01.JPG,AFNE01.JPG,AFNE01.JPG,AFNE01.JPG,,,,,,,,,,,,,,,,,,,,,0,4,4,0,,,AMNE02.jpg,AMSA04.jpg,AMNE09.jpg,AMSA01.jpg,AMSA04.jpg,MS,2,num_6,32,num_2,1.36676225759,,,2017_Apr_21_1208,60.0099509622,FEMA4ImagesEEG,001,200173,
AFNE01.JPG,AFNE01.JPG,AFNE01.JPG,AFNE01.JPG,AFNE01.JPG,AFNE01.JPG,,,,,,,,,,,,,,,,,,,,,0,5,5,3,,,AMNE09.jpg,AMSA11.jpg,AMSA03.jpg,AMNE05.jpg,AMSA03.jpg,MS,2,num_2,16,num_2,1.16670381895,,,2017_Apr_21_1208,60.0099509622,FEMA4ImagesEEG,001,200173,
AFNE01.JPG,AFNE01.JPG,AFNE01.JPG,AFNE01.JPG,AFNE01.JPG,AFNE01.JPG,,,,,,,,,,,,,,,,,,,,,0,6,6,4,,,AMNE03.jpg,AMSA09.jpg,AMNE14.jpg,AMSA05.jpg,AMSA05.jpg,MS,2,num_4,16,num_4,1.05005742837,,,2017_Apr_21_1208,60.0099509622,FEMA4ImagesEEG,001,200173,
AFNE01.JPG,AFNE01.JPG,AFNE01.JPG,AFNE01.JPG,AFNE01.JPG,AFNE01.JPG,,,,,,,,,,,,,,,,,,,,,0,7,7,2,,,AMSA09.jpg,AMNE09.jpg,AMSA08.jpg,AMNE05.jpg,AMSA08.jpg,MS,2,num_2,32,num_6,1.0500981622,,,2017_Apr_21_1208,60.0099509622,FEMA4ImagesEEG,001,200173,
AFNE01.JPG,AFNE01.JPG,AFNE01.JPG,AFNE01.JPG,AFNE01.JPG,AFNE01.JPG,,,,,,,,,,,,,,,,,,,,,0,8,8,8,,,AMNE04.jpg,AMNE13.jpg,AMSA19.jpg,AMSA20.jpg,AMNE13.jpg,MN,1,num_6,16,num_6,0.816765609314,,,2017_Apr_21_1208,60.0099509622,FEMA4ImagesEEG,001,200173,
AFNE01.JPG,AFNE01.JPG,AFNE01.JPG,AFNE01.JPG,AFNE01.JPG,AFNE01.JPG,,,,,,,,,,,,,,,,,,,,,0,9,9,1,,,AMNE09.jpg,AMSA15.jpg,AMSA11.jpg,AMNE03.jpg,AMNE09.jpg,MN,1,num_8,16,num_8,0.683449766948,,,2017_Apr_21_1208,60.0099509622,FEMA4ImagesEEG,001,200173,
AFNE01.JPG,AFNE01.JPG,AFNE01.JPG,AFNE01.JPG,AFNE01.JPG,AFNE01.JPG,,,,,,,,,,,,,,,,,,,,,1,0,10,2,,,AMNE09.jpg,AMNE10.jpg,AMSA12.jpg,AMSA20.jpg,AMSA20.jpg,MS,2,num_4,16,num_4,0.650107656082,,,2017_Apr_21_1208,60.0099509622,FEMA4ImagesEEG,001,200173,
AFNE01.JPG,AFNE01.JPG,AFNE01.JPG,AFNE01.JPG,AFNE01.JPG,AFNE01.JPG,,,,,,,,,,,,,,,,,,,,,1,1,11,8,,,AMNE19.jpg,AMSA04.jpg,AMSA15.jpg,AMNE09.jpg,AMNE09.jpg,MN,1,num_4,32,num_8,0.700162518478,,,2017_Apr_21_1208,60.0099509622,FEMA4ImagesEEG,001,200173,
AFNE01.JPG,AFNE01.JPG,AFNE01.JPG,AFNE01.JPG,AFNE01.JPG,AFNE01.JPG,,,,,,,,,,,,,,,,,,,,,1,2,12,5,,,AMSA04.jpg,AMNE14.jpg,AMSA18.jpg,AMNE15.jpg,AMNE15.jpg,MN,1,num_4,16,num_4,0.733429576445,,,2017_Apr_21_1208,60.0099509622,FEMA4ImagesEEG,001,200173,
AFNE01.JPG,AFNE01.JPG,AFNE01.JPG,AFNE01.JPG,AFNE01.JPG,AFNE01.JPG,,,,,,,,,,,,,,,,,,,,,1,3,13,1,,,AMSA18.jpg,AMNE06.jpg,AMSA15.jpg,AMNE12.jpg,AMSA18.jpg,MS,2,num_8,16,num_8,0.833474832703,,,2017_Apr_21_1208,60.0099509622,FEMA4ImagesEEG,001,200173,
AFNE01.JPG,AFNE01.JPG,AFNE01.JPG,AFNE01.JPG,AFNE01.JPG,AFNE01.JPG,,,,,,,,,,,,,,,,,,,,,1,4,14,6,,,AMNE08.jpg,AMNE03.jpg,AMSA07.jpg,AMSA15.jpg,AMSA07.jpg,MS,2,num_2,32,num_8,1.03344506811,,,2017_Apr_21_1208,60.0099509622,FEMA4ImagesEEG,001,200173,
AFNE01.JPG,AFNE01.JPG,AFNE01.JPG,AFNE01.JPG,AFNE01.JPG,AFNE01.JPG,,,,,,,,,,,,,,,,,,,,,1,5,15,9,,,AMNE09.jpg,AMSA14.jpg,AMSA11.jpg,AMNE17.jpg,AMSA11.jpg,MS,2,num_2,32,num_6,0.833386629471,,,2017_Apr_21_1208,60.0099509622,FEMA4ImagesEEG,001,200173,
AFNE01.JPG,AFNE01.JPG,AFNE01.JPG,AFNE01.JPG,AFNE01.JPG,AFNE01.JPG,,,,,,,,,,,,,,,,,,,,,1,6,16,7,,,AMNE06.jpg,AMNE15.jpg,AMSA13.jpg,AMSA20.jpg,AMNE15.jpg,MN,1,num_6,16,num_6,0.850123436423,,,2017_Apr_21_1208,60.0099509622,FEMA4ImagesEEG,001,200173,
AFNE01.JPG,AFNE01.JPG,AFNE01.JPG,AFNE01.JPG,AFNE01.JPG,AFNE01.JPG,,,,,,,,,,,,,,,,,,,,,1,7,17,0,,,AMNE01.jpg,AMNE05.jpg,AMSA13.jpg,AMSA01.jpg,AMNE05.jpg,MN,1,num_6,16,num_6,0.78342446062,,,2017_Apr_21_1208,60.0099509622,FEMA4ImagesEEG,001,200173,
AFNE01.JPG,AFNE01.JPG,AFNE01.JPG,AFNE01.JPG,AFNE01.JPG,AFNE01.JPG,,,,,,,,,,,,,,,,,,,,,1,8,18,3,,,AMNE04.jpg,AMSA07.jpg,AMNE16.jpg,AMSA08.jpg,AMSA07.jpg,MS,2,num_6,16,num_6,0.86685126269,,,2017_Apr_21_1208,60.0099509622,FEMA4ImagesEEG,001,200173,
AFNE01.JPG,AFNE01.JPG,AFNE01.JPG,AFNE01.JPG,AFNE01.JPG,AFNE01.JPG,,,,,,,,,,,,,,,,,,,,,1,9,19,4,,,AMSA08.jpg,AMSA07.jpg,AMNE12.jpg,AMNE04.jpg,AMSA08.jpg,MS,2,num_8,16,num_8,0.933457865671,,,2017_Apr_21_1208,60.0099509622,FEMA4ImagesEEG,001,200173,
AFNE01.JPG,AFNE01.JPG,AFNE01.JPG,AFNE01.JPG,AFNE01.JPG,AFNE01.JPG,,,,,,,,,,,,,,,,,,,,,2,0,20,4,,,AMNE05.jpg,AMNE17.jpg,AMSA17.jpg,AMSA09.jpg,AMNE17.jpg,MN,1,num_6,32,num_4,0.950098130095,,,2017_Apr_21_1208,60.0099509622,FEMA4ImagesEEG,001,200173,
AFNE01.JPG,AFNE01.JPG,AFNE01.JPG,AFNE01.JPG,AFNE01.JPG,AFNE01.JPG,,,,,,,,,,,,,,,,,,,,,2,1,21,2,,,AMNE16.jpg,AMNE17.jpg,AMSA16.jpg,AMSA10.jpg,AMSA16.jpg,MS,2,num_2,32,num_8,1.01672975067,,,2017_Apr_21_1208,60.0099509622,FEMA4ImagesEEG,001,200173,
AFNE01.JPG,AFNE01.JPG,AFNE01.JPG,AFNE01.JPG,AFNE01.JPG,AFNE01.JPG,,,,,,,,,,,,,,,,,,,,,2,2,22,8,,,AMNE13.jpg,AMNE07.jpg,AMSA07.jpg,AMSA13.jpg,AMNE13.jpg,MN,1,num_8,32,num_6,1.0667105224,,,2017_Apr_21_1208,60.0099509622,FEMA4ImagesEEG,001,200173,
AFNE01.JPG,AFNE01.JPG,AFNE01.JPG,AFNE01.JPG,AFNE01.JPG,AFNE01.JPG,,,,,,,,,,,,,,,,,,,,,2,3,23,9,,,AMNE19.jpg,AMSA06.jpg,AMSA09.jpg,AMNE20.jpg,AMSA09.jpg,MS,2,num_2,32,num_6,1.35015021818,,,2017_Apr_21_1208,60.0099509622,FEMA4ImagesEEG,001,200173,
AFNE01.JPG,AFNE01.JPG,AFNE01.JPG,AFNE01.JPG,AFNE01.JPG,AFNE01.JPG,,,,,,,,,,,,,,,,,,,,,2,4,24,0,,,AMSA14.jpg,AMSA20.jpg,AMNE16.jpg,AMNE06.jpg,AMSA14.jpg,MS,2,num_8,16,num_8,0.80013560853,,,2017_Apr_21_1208,60.0099509622,FEMA4ImagesEEG,001,200173,
AFNE01.JPG,AFNE01.JPG,AFNE01.JPG,AFNE01.JPG,AFNE01.JPG,AFNE01.JPG,,,,,,,,,,,,,,,,,,,,,2,5,25,7,,,AMNE17.jpg,AMSA01.jpg,AMNE14.jpg,AMSA06.jpg,AMNE17.jpg,MN,1,num_8,16,num_8,0.783322465606,,,2017_Apr_21_1208,60.0099509622,FEMA4ImagesEEG,001,200173,
AFNE01.JPG,AFNE01.JPG,AFNE01.JPG,AFNE01.JPG,AFNE01.JPG,AFNE01.JPG,,,,,,,,,,,,,,,,,,,,,2,6,26,5,,,AMSA12.jpg,AMNE17.jpg,AMSA18.jpg,AMNE19.jpg,AMSA18.jpg,MS,2,num_2,16,num_2,1.66655868449,,,2017_Apr_21_1208,60.0099509622,FEMA4ImagesEEG,001,200173,
AFNE01.JPG,AFNE01.JPG,AFNE01.JPG,AFNE01.JPG,AFNE01.JPG,AFNE01.JPG,,,,,,,,,,,,,,,,,,,,,2,7,27,6,,,AMSA17.jpg,AMNE17.jpg,AMNE03.jpg,AMSA06.jpg,AMSA06.jpg,MS,2,num_4,32,num_6,1.01672493963,,,2017_Apr_21_1208,60.0099509622,FEMA4ImagesEEG,001,200173,
AFNE01.JPG,AFNE01.JPG,AFNE01.JPG,AFNE01.JPG,AFNE01.JPG,AFNE01.JPG,,,,,,,,,,,,,,,,,,,,,2,8,28,3,,,AMSA02.jpg,AMNE10.jpg,AMNE13.jpg,AMSA07.jpg,AMSA02.jpg,MS,2,num_8,16,num_8,1.41670165397,,,2017_Apr_21_1208,60.0099509622,FEMA4ImagesEEG,001,200173,
AFNE01.JPG,AFNE01.JPG,AFNE01.JPG,AFNE01.JPG,AFNE01.JPG,AFNE01.JPG,,,,,,,,,,,,,,,,,,,,,2,9,29,1,,,AMNE12.jpg,AMNE04.jpg,AMSA09.jpg,AMSA02.jpg,AMNE12.jpg,MN,1,num_8,32,num_6,0.833496963722,,,2017_Apr_21_1208,60.0099509622,FEMA4ImagesEEG,001,200173,
AFNE01.JPG,AFNE01.JPG,AFNE01.JPG,AFNE01.JPG,AFNE01.JPG,AFNE01.JPG,,,,,,,,,,,,,,,,,,,,,3,0,30,1,,,AMSA18.jpg,AMNE10.jpg,AMSA07.jpg,AMNE20.jpg,AMSA07.jpg,MS,2,num_2,16,num_2,1.7336887336,,,2017_Apr_21_1208,60.0099509622,FEMA4ImagesEEG,001,200173,
AFNE01.JPG,AFNE01.JPG,AFNE01.JPG,AFNE01.JPG,AFNE01.JPG,AFNE01.JPG,,,,,,,,,,,,,,,,,,,,,3,1,31,3,,,AMNE04.jpg,AMSA01.jpg,AMSA18.jpg,AMNE08.jpg,AMNE04.jpg,MN,1,num_8,32,num_6,0.816745402757,,,2017_Apr_21_1208,60.0099509622,FEMA4ImagesEEG,001,200173,
AFNE01.JPG,AFNE01.JPG,AFNE01.JPG,AFNE01.JPG,AFNE01.JPG,AFNE01.JPG,,,,,,,,,,,,,,,,,,,,,3,2,32,2,,,AMSA18.jpg,AMNE15.jpg,AMSA17.jpg,AMNE11.jpg,AMSA17.jpg,MS,2,num_2,16,num_2,2.41660382855,,,2017_Apr_21_1208,60.0099509622,FEMA4ImagesEEG,001,200173,
AFNE01.JPG,AFNE01.JPG,AFNE01.JPG,AFNE01.JPG,AFNE01.JPG,AFNE01.JPG,,,,,,,,,,,,,,,,,,,,,3,3,33,4,,,AMSA07.jpg,AMNE07.jpg,AMSA16.jpg,AMNE10.jpg,AMSA07.jpg,MS,2,num_8,16,num_8,0.90012281097,,,2017_Apr_21_1208,60.0099509622,FEMA4ImagesEEG,001,200173,
AFNE01.JPG,AFNE01.JPG,AFNE01.JPG,AFNE01.JPG,AFNE01.JPG,AFNE01.JPG,,,,,,,,,,,,,,,,,,,,,3,4,34,9,,,AMSA18.jpg,AMNE14.jpg,AMSA08.jpg,AMNE13.jpg,AMSA08.jpg,MS,2,num_2,32,num_4,0.883424492727,,,2017_Apr_21_1208,60.0099509622,FEMA4ImagesEEG,001,200173,
AFNE01.JPG,AFNE01.JPG,AFNE01.JPG,AFNE01.JPG,AFNE01.JPG,AFNE01.JPG,,,,,,,,,,,,,,,,,,,,,3,5,35,5,,,AMNE16.jpg,AMSA11.jpg,AMSA03.jpg,AMNE15.jpg,AMSA11.jpg,MS,2,num_6,16,num_6,0.733419312746,,,2017_Apr_21_1208,60.0099509622,FEMA4ImagesEEG,001,200173,
AFNE01.JPG,AFNE01.JPG,AFNE01.JPG,AFNE01.JPG,AFNE01.JPG,AFNE01.JPG,,,,,,,,,,,,,,,,,,,,,3,6,36,6,,,AMNE04.jpg,AMSA17.jpg,AMSA20.jpg,AMNE19.jpg,AMSA20.jpg,MS,2,num_2,16,num_2,1.36669426091,,,2017_Apr_21_1208,60.0099509622,FEMA4ImagesEEG,001,200173,
AFNE01.JPG,AFNE01.JPG,AFNE01.JPG,AFNE01.JPG,AFNE01.JPG,AFNE01.JPG,,,,,,,,,,,,,,,,,,,,,3,7,37,8,,,AMSA17.jpg,AMNE06.jpg,AMSA03.jpg,AMNE13.jpg,AMSA03.jpg,MS,2,num_2,16,num_2,1.80006055551,,,2017_Apr_21_1208,60.0099509622,FEMA4ImagesEEG,001,200173,
AFNE01.JPG,AFNE01.JPG,AFNE01.JPG,AFNE01.JPG,AFNE01.JPG,AFNE01.JPG,,,,,,,,,,,,,,,,,,,,,3,8,38,7,,,AMNE14.jpg,AMSA01.jpg,AMNE10.jpg,AMSA04.jpg,AMNE10.jpg,MN,1,num_2,16,num_2,1.78310308006,,,2017_Apr_21_1208,60.0099509622,FEMA4ImagesEEG,001,200173,
