IPosition2,IPosition3,IPosition1,IPosition6,IPosition4,IPosition5,TrialsF1.thisRepN,TrialsF1.thisTrialN,TrialsF1.thisN,TrialsF1.thisIndex,TrialsM1.thisRepN,TrialsM1.thisTrialN,TrialsM1.thisN,TrialsM1.thisIndex,TrialsF2.thisRepN,TrialsF2.thisTrialN,TrialsF2.thisN,TrialsF2.thisIndex,TrialsM2.thisRepN,TrialsM2.thisTrialN,TrialsM2.thisN,TrialsM2.thisIndex,TrialsF3.thisRepN,TrialsF3.thisTrialN,TrialsF3.thisN,TrialsF3.thisIndex,TrialsM3.thisRepN,TrialsM3.thisTrialN,TrialsM3.thisN,TrialsM3.thisIndex,InstrKey_resp.keys,InstrKey_resp.rt,Image0 _Position,Image1 _Position,Image2 _Position,Image3 _Position,Center_image,condition,code,correct_answer,accuracy,Key_Resp.keys,Key_Resp.rt,BreakKey_resp.keys,BreakKey_resp.rt,date,frameRate,expName,session,participant,
,,,,,,,,,,,,,,,,,,,,,,,,,,,,,,space,34.2312398546,,,,,,,,,,,,,,2017_Apr_10_1433,59.9959781854,FEMA4ImagesEEG,001,200118,
AMNE22.JPG,AMSA24.JPG,AMSA22.JPG,AMNE25.JPG,AMNE24.JPG,AMSA25.JPG,0,0,0,7,,,,,,,,,,,,,,,,,,,,,,,AFNE02.jpg,AFSA05.jpg,AFSA18.jpg,AFNE20.jpg,AFSA18.jpg,FS,4,num_2,16,num_2,1.30008246214,,,2017_Apr_10_1433,59.9959781854,FEMA4ImagesEEG,001,200118,
AMNE23.JPG,AMNE24.JPG,AMNE22.JPG,AMSA24.JPG,AMSA22.JPG,AMSA23.JPG,0,1,1,9,,,,,,,,,,,,,,,,,,,,,,,AFNE10.jpg,AFSA06.jpg,AFSA07.jpg,AFNE01.jpg,AFSA07.jpg,FS,4,num_2,32,num_8,0.750126130879,,,2017_Apr_10_1433,59.9959781854,FEMA4ImagesEEG,001,200118,
AFNE23.JPG,AFNE24.JPG,AFNE22.JPG,AFSA24.JPG,AFSA22.JPG,AFSA23.JPG,0,2,2,8,,,,,,,,,,,,,,,,,,,,,,,AFSA12.jpg,AFNE13.jpg,AFNE03.jpg,AFSA19.jpg,AFSA12.jpg,FS,4,num_8,32,num_2,0.975722570438,,,2017_Apr_10_1433,59.9959781854,FEMA4ImagesEEG,001,200118,
AMSA21.JPG,AMNE22.JPG,AMNE21.JPG,AMSA23.JPG,AMSA22.JPG,AMNE23.JPG,0,3,3,1,,,,,,,,,,,,,,,,,,,,,,,AFNE17.jpg,AFSA03.jpg,AFNE01.jpg,AFSA16.jpg,AFNE17.jpg,FN,3,num_8,32,num_6,0.966800233349,,,2017_Apr_10_1433,59.9959781854,FEMA4ImagesEEG,001,200118,
AFNE22.JPG,AFSA24.JPG,AFSA22.JPG,AFNE25.JPG,AFNE24.JPG,AFSA25.JPG,0,4,4,6,,,,,,,,,,,,,,,,,,,,,,,AFNE10.jpg,AFSA14.jpg,AFNE15.jpg,AFSA01.jpg,AFNE15.jpg,FN,3,num_2,32,num_8,0.566777845845,,,2017_Apr_10_1433,59.9959781854,FEMA4ImagesEEG,001,200118,
AFSA21.JPG,AFNE23.JPG,AFNE21.JPG,AFSA25.JPG,AFNE25.JPG,AFSA23.JPG,0,5,5,4,,,,,,,,,,,,,,,,,,,,,,,AFNE14.jpg,AFNE12.jpg,AFSA06.jpg,AFSA13.jpg,AFSA06.jpg,FS,4,num_2,16,num_2,1.06674561137,,,2017_Apr_10_1433,59.9959781854,FEMA4ImagesEEG,001,200118,
AMSA25.JPG,AMNE24.JPG,AMSA24.JPG,AMNE26.JPG,AMSA21.JPG,AMNE25.JPG,0,6,6,3,,,,,,,,,,,,,,,,,,,,,,,AFNE17.jpg,AFSA11.jpg,AFNE02.jpg,AFSA17.jpg,AFSA11.jpg,FS,4,num_6,16,num_6,0.866770180175,,,2017_Apr_10_1433,59.9959781854,FEMA4ImagesEEG,001,200118,
AMSA21.JPG,AMNE23.JPG,AMNE21.JPG,AMSA25.JPG,AMNE25.JPG,AMSA23.JPG,0,7,7,5,,,,,,,,,,,,,,,,,,,,,,,AFNE12.jpg,AFSA13.jpg,AFSA15.jpg,AFNE18.jpg,AFSA13.jpg,FS,4,num_6,16,num_6,0.483364354121,,,2017_Apr_10_1433,59.9959781854,FEMA4ImagesEEG,001,200118,
AFSA21.JPG,AFNE22.JPG,AFNE21.JPG,AFSA23.JPG,AFSA22.JPG,AFNE23.JPG,0,8,8,0,,,,,,,,,,,,,,,,,,,,,,,AFNE17.jpg,AFSA16.jpg,AFSA08.jpg,AFNE06.jpg,AFSA16.jpg,FS,4,num_6,32,num_8,1.30029543326,,,2017_Apr_10_1433,59.9959781854,FEMA4ImagesEEG,001,200118,
AFSA25.JPG,AFNE24.JPG,AFSA24.JPG,AFNE21.JPG,AFSA21.JPG,AFNE25.JPG,0,9,9,2,,,,,,,,,,,,,,,,,,,,,,,AFNE19.jpg,AFNE02.jpg,AFSA07.jpg,AFSA18.jpg,AFNE19.jpg,FN,3,num_8,32,num_6,0.916773178848,,,2017_Apr_10_1433,59.9959781854,FEMA4ImagesEEG,001,200118,
AMNE22.JPG,AMSA24.JPG,AMSA22.JPG,AMNE25.JPG,AMNE24.JPG,AMSA25.JPG,,,,,0,0,0,7,,,,,,,,,,,,,,,,,,,AMNE20.jpg,AMSA01.jpg,AMNE11.jpg,AMSA11.jpg,AMNE20.jpg,MN,1,num_8,16,num_8,0.816758521134,,,2017_Apr_10_1433,59.9959781854,FEMA4ImagesEEG,001,200118,
AFNE23.JPG,AFNE24.JPG,AFNE22.JPG,AFSA24.JPG,AFSA22.JPG,AFSA23.JPG,,,,,0,1,1,8,,,,,,,,,,,,,,,,,,,AMSA15.jpg,AMSA01.jpg,AMNE10.jpg,AMNE15.jpg,AMSA15.jpg,MS,2,num_8,16,num_8,0.850154259941,,,2017_Apr_10_1433,59.9959781854,FEMA4ImagesEEG,001,200118,
AFSA21.JPG,AFNE23.JPG,AFNE21.JPG,AFSA25.JPG,AFNE25.JPG,AFSA23.JPG,,,,,0,2,2,4,,,,,,,,,,,,,,,,,,,AMNE20.jpg,AMSA06.jpg,AMSA14.jpg,AMNE07.jpg,AMNE07.jpg,MN,1,num_4,32,num_2,0.68347321311,,,2017_Apr_10_1433,59.9959781854,FEMA4ImagesEEG,001,200118,
AMSA25.JPG,AMNE24.JPG,AMSA24.JPG,AMNE26.JPG,AMSA21.JPG,AMNE25.JPG,,,,,0,3,3,3,,,,,,,,,,,,,,,,,,,AMNE18.jpg,AMSA08.jpg,AMSA07.jpg,AMNE09.jpg,AMNE18.jpg,MN,1,num_8,32,num_4,0.800107319606,,,2017_Apr_10_1433,59.9959781854,FEMA4ImagesEEG,001,200118,
AFNE22.JPG,AFSA24.JPG,AFSA22.JPG,AFNE25.JPG,AFNE24.JPG,AFSA25.JPG,,,,,0,4,4,6,,,,,,,,,,,,,,,,,,,AMSA18.jpg,AMNE08.jpg,AMNE15.jpg,AMSA10.jpg,AMNE15.jpg,MN,1,num_2,32,num_6,0.616838577902,,,2017_Apr_10_1433,59.9959781854,FEMA4ImagesEEG,001,200118,
AMSA21.JPG,AMNE23.JPG,AMNE21.JPG,AMSA25.JPG,AMNE25.JPG,AMSA23.JPG,,,,,0,5,5,5,,,,,,,,,,,,,,,,,,,AMSA11.jpg,AMSA18.jpg,AMNE03.jpg,AMNE12.jpg,AMNE03.jpg,MN,1,num_2,16,num_2,1.01688149292,,,2017_Apr_10_1433,59.9959781854,FEMA4ImagesEEG,001,200118,
AFSA25.JPG,AFNE24.JPG,AFSA24.JPG,AFNE21.JPG,AFSA21.JPG,AFNE25.JPG,,,,,0,6,6,2,,,,,,,,,,,,,,,,,,,AMSA18.jpg,AMSA11.jpg,AMNE12.jpg,AMNE19.jpg,AMSA11.jpg,MS,2,num_6,32,num_8,1.83351268037,,,2017_Apr_10_1433,59.9959781854,FEMA4ImagesEEG,001,200118,
AFSA21.JPG,AFNE22.JPG,AFNE21.JPG,AFSA23.JPG,AFSA22.JPG,AFNE23.JPG,,,,,0,7,7,0,,,,,,,,,,,,,,,,,,,AMNE04.jpg,AMNE15.jpg,AMSA08.jpg,AMSA06.jpg,AMNE04.jpg,MN,1,num_8,32,num_2,0.883445437066,,,2017_Apr_10_1433,59.9959781854,FEMA4ImagesEEG,001,200118,
AMSA21.JPG,AMNE22.JPG,AMNE21.JPG,AMSA23.JPG,AMSA22.JPG,AMNE23.JPG,,,,,0,8,8,1,,,,,,,,,,,,,,,,,,,AMSA11.jpg,AMNE04.jpg,AMNE18.jpg,AMSA18.jpg,AMSA18.jpg,MS,2,num_4,16,num_4,0.750117791584,,,2017_Apr_10_1433,59.9959781854,FEMA4ImagesEEG,001,200118,
AMNE23.JPG,AMNE24.JPG,AMNE22.JPG,AMSA24.JPG,AMSA22.JPG,AMSA23.JPG,,,,,0,9,9,9,,,,,,,,,,,,,,,,,,,AMNE20.jpg,AMSA03.jpg,AMNE11.jpg,AMSA15.jpg,AMNE20.jpg,MN,1,num_8,16,num_8,0.850113525987,,,2017_Apr_10_1433,59.9959781854,FEMA4ImagesEEG,001,200118,
AMNE23.JPG,AMNE24.JPG,AMNE22.JPG,AMSA24.JPG,AMSA22.JPG,AMSA23.JPG,,,,,,,,,0,0,0,9,,,,,,,,,,,,,,,AFNE04.jpg,AFNE02.jpg,AFSA01.jpg,AFSA08.jpg,AFNE02.jpg,FN,3,num_6,16,num_6,1.18339992408,,,2017_Apr_10_1433,59.9959781854,FEMA4ImagesEEG,001,200118,
AMNE22.JPG,AMSA24.JPG,AMSA22.JPG,AMNE25.JPG,AMNE24.JPG,AMSA25.JPG,,,,,,,,,0,1,1,7,,,,,,,,,,,,,,,AFNE16.jpg,AFSA17.jpg,AFNE01.jpg,AFSA14.jpg,AFSA17.jpg,FS,4,num_6,16,num_6,0.683311239816,,,2017_Apr_10_1433,59.9959781854,FEMA4ImagesEEG,001,200118,
AFNE23.JPG,AFNE24.JPG,AFNE22.JPG,AFSA24.JPG,AFSA22.JPG,AFSA23.JPG,,,,,,,,,0,2,2,8,,,,,,,,,,,,,,,AFNE02.jpg,AFNE19.jpg,AFSA05.jpg,AFSA16.jpg,AFNE19.jpg,FN,3,num_6,16,num_6,0.933475378202,,,2017_Apr_10_1433,59.9959781854,FEMA4ImagesEEG,001,200118,
AFSA25.JPG,AFNE24.JPG,AFSA24.JPG,AFNE21.JPG,AFSA21.JPG,AFNE25.JPG,,,,,,,,,0,3,3,2,,,,,,,,,,,,,,,AFSA17.jpg,AFNE01.jpg,AFNE07.jpg,AFSA02.jpg,AFSA02.jpg,FS,4,num_4,32,num_8,0.933436247986,,,2017_Apr_10_1433,59.9959781854,FEMA4ImagesEEG,001,200118,
AFNE22.JPG,AFSA24.JPG,AFSA22.JPG,AFNE25.JPG,AFNE24.JPG,AFSA25.JPG,,,,,,,,,0,4,4,6,,,,,,,,,,,,,,,AFNE01.jpg,AFSA20.jpg,AFNE19.jpg,AFSA08.jpg,AFSA20.jpg,FS,4,num_6,16,num_6,0.783469268121,,,2017_Apr_10_1433,59.9959781854,FEMA4ImagesEEG,001,200118,
AMSA25.JPG,AMNE24.JPG,AMSA24.JPG,AMNE26.JPG,AMSA21.JPG,AMNE25.JPG,,,,,,,,,0,5,5,3,,,,,,,,,,,,,,,AFNE17.jpg,AFNE11.jpg,AFSA16.jpg,AFSA17.jpg,AFSA17.jpg,FS,4,num_4,32,num_2,0.866775311762,,,2017_Apr_10_1433,59.9959781854,FEMA4ImagesEEG,001,200118,
AFSA21.JPG,AFNE22.JPG,AFNE21.JPG,AFSA23.JPG,AFSA22.JPG,AFNE23.JPG,,,,,,,,,0,6,6,0,,,,,,,,,,,,,,,AFNE02.jpg,AFSA18.jpg,AFNE11.jpg,AFSA04.jpg,AFSA04.jpg,FS,4,num_4,32,num_6,0.883371987846,,,2017_Apr_10_1433,59.9959781854,FEMA4ImagesEEG,001,200118,
AFSA21.JPG,AFNE23.JPG,AFNE21.JPG,AFSA25.JPG,AFNE25.JPG,AFSA23.JPG,,,,,,,,,0,7,7,4,,,,,,,,,,,,,,,AFSA04.jpg,AFSA18.jpg,AFNE11.jpg,AFNE20.jpg,AFNE20.jpg,FN,3,num_4,32,num_8,0.867029337911,,,2017_Apr_10_1433,59.9959781854,FEMA4ImagesEEG,001,200118,
AMSA21.JPG,AMNE23.JPG,AMNE21.JPG,AMSA25.JPG,AMNE25.JPG,AMSA23.JPG,,,,,,,,,0,8,8,5,,,,,,,,,,,,,,,AFNE08.jpg,AFSA05.jpg,AFSA01.jpg,AFNE18.jpg,AFSA01.jpg,FS,4,num_2,16,num_2,0.750117791584,,,2017_Apr_10_1433,59.9959781854,FEMA4ImagesEEG,001,200118,
AMSA21.JPG,AMNE22.JPG,AMNE21.JPG,AMSA23.JPG,AMSA22.JPG,AMNE23.JPG,,,,,,,,,0,9,9,1,,,,,,,,,,,,,,,AFNE19.jpg,AFSA18.jpg,AFSA15.jpg,AFNE17.jpg,AFSA18.jpg,FS,4,num_6,16,num_6,0.416828827234,,,2017_Apr_10_1433,59.9959781854,FEMA4ImagesEEG,001,200118,
AFNE22.JPG,AFSA24.JPG,AFSA22.JPG,AFNE25.JPG,AFNE24.JPG,AFSA25.JPG,,,,,,,,,,,,,0,0,0,6,,,,,,,,,,,AMSA20.jpg,AMNE13.jpg,AMSA12.jpg,AMNE08.jpg,AMNE13.jpg,MN,1,num_6,16,num_6,0.800160241546,,,2017_Apr_10_1433,59.9959781854,FEMA4ImagesEEG,001,200118,
AFSA21.JPG,AFNE23.JPG,AFNE21.JPG,AFSA25.JPG,AFNE25.JPG,AFSA23.JPG,,,,,,,,,,,,,0,1,1,4,,,,,,,,,,,AMNE16.jpg,AMNE11.jpg,AMSA16.jpg,AMSA14.jpg,AMSA16.jpg,MS,2,num_2,32,num_8,1.08339617169,,,2017_Apr_10_1433,59.9959781854,FEMA4ImagesEEG,001,200118,
AMSA21.JPG,AMNE23.JPG,AMNE21.JPG,AMSA25.JPG,AMNE25.JPG,AMSA23.JPG,,,,,,,,,,,,,0,2,2,5,,,,,,,,,,,AMSA09.jpg,AMNE17.jpg,AMSA04.jpg,AMNE06.jpg,AMSA09.jpg,MS,2,num_8,32,num_6,1.51671326463,,,2017_Apr_10_1433,59.9959781854,FEMA4ImagesEEG,001,200118,
AMNE23.JPG,AMNE24.JPG,AMNE22.JPG,AMSA24.JPG,AMSA22.JPG,AMSA23.JPG,,,,,,,,,,,,,0,3,3,9,,,,,,,,,,,AMSA13.jpg,AMNE04.jpg,AMNE05.jpg,AMSA11.jpg,AMNE05.jpg,MN,1,num_2,16,num_2,0.666859217454,,,2017_Apr_10_1433,59.9959781854,FEMA4ImagesEEG,001,200118,
AMNE22.JPG,AMSA24.JPG,AMSA22.JPG,AMNE25.JPG,AMNE24.JPG,AMSA25.JPG,,,,,,,,,,,,,0,4,4,7,,,,,,,,,,,AMSA11.jpg,AMNE03.jpg,AMNE14.jpg,AMSA17.jpg,AMNE03.jpg,MN,1,num_6,32,num_8,0.866925418144,,,2017_Apr_10_1433,59.9959781854,FEMA4ImagesEEG,001,200118,
AMSA21.JPG,AMNE22.JPG,AMNE21.JPG,AMSA23.JPG,AMSA22.JPG,AMNE23.JPG,,,,,,,,,,,,,0,5,5,1,,,,,,,,,,,AMNE12.jpg,AMSA19.jpg,AMNE08.jpg,AMSA18.jpg,AMSA19.jpg,MS,2,num_6,32,num_8,0.900134165306,,,2017_Apr_10_1433,59.9959781854,FEMA4ImagesEEG,001,200118,
AFSA25.JPG,AFNE24.JPG,AFSA24.JPG,AFNE21.JPG,AFSA21.JPG,AFNE25.JPG,,,,,,,,,,,,,0,6,6,2,,,,,,,,,,,AMSA02.jpg,AMNE08.jpg,AMNE06.jpg,AMSA16.jpg,AMNE08.jpg,MN,1,num_6,32,num_2,0.849931666628,,,2017_Apr_10_1433,59.9959781854,FEMA4ImagesEEG,001,200118,
AMSA25.JPG,AMNE24.JPG,AMSA24.JPG,AMNE26.JPG,AMSA21.JPG,AMNE25.JPG,,,,,,,,,,,,,0,7,7,3,,,,,,,,,,,AMSA05.jpg,AMNE08.jpg,AMNE10.jpg,AMSA17.jpg,AMNE10.jpg,MN,1,num_2,32,num_6,0.699970139191,,,2017_Apr_10_1433,59.9959781854,FEMA4ImagesEEG,001,200118,
AFSA21.JPG,AFNE22.JPG,AFNE21.JPG,AFSA23.JPG,AFSA22.JPG,AFNE23.JPG,,,,,,,,,,,,,0,8,8,0,,,,,,,,,,,AMNE01.jpg,AMNE10.jpg,AMSA10.jpg,AMSA11.jpg,AMNE10.jpg,MN,1,num_6,16,num_6,1.01680130791,,,2017_Apr_10_1433,59.9959781854,FEMA4ImagesEEG,001,200118,
AFNE23.JPG,AFNE24.JPG,AFNE22.JPG,AFSA24.JPG,AFSA22.JPG,AFSA23.JPG,,,,,,,,,,,,,0,9,9,8,,,,,,,,,,,AMNE11.jpg,AMNE19.jpg,AMSA05.jpg,AMSA18.jpg,AMNE11.jpg,MN,1,num_8,16,num_8,1.61699381564,,,2017_Apr_10_1433,59.9959781854,FEMA4ImagesEEG,001,200118,
AFSA21.JPG,AFNE23.JPG,AFNE21.JPG,AFSA25.JPG,AFNE25.JPG,AFSA23.JPG,,,,,,,,,,,,,,,,,0,0,0,4,,,,,,,AFNE04.jpg,AFSA03.jpg,AFNE07.jpg,AFSA09.jpg,AFNE07.jpg,FN,3,num_2,32,num_8,0.883423947729,,,2017_Apr_10_1433,59.9959781854,FEMA4ImagesEEG,001,200118,
AFSA21.JPG,AFNE22.JPG,AFNE21.JPG,AFSA23.JPG,AFSA22.JPG,AFNE23.JPG,,,,,,,,,,,,,,,,,0,1,1,0,,,,,,,AFSA19.jpg,AFNE04.jpg,AFNE08.jpg,AFSA02.jpg,AFNE08.jpg,FN,3,num_2,32,num_6,0.900077715283,,,2017_Apr_10_1433,59.9959781854,FEMA4ImagesEEG,001,200118,
AFNE23.JPG,AFNE24.JPG,AFNE22.JPG,AFSA24.JPG,AFSA22.JPG,AFSA23.JPG,,,,,,,,,,,,,,,,,0,2,2,8,,,,,,,AFNE08.jpg,AFSA14.jpg,AFNE18.jpg,AFSA12.jpg,AFNE08.jpg,FN,3,num_8,16,num_8,1.06676549721,,,2017_Apr_10_1433,59.9959781854,FEMA4ImagesEEG,001,200118,
AFSA25.JPG,AFNE24.JPG,AFSA24.JPG,AFNE21.JPG,AFSA21.JPG,AFNE25.JPG,,,,,,,,,,,,,,,,,0,3,3,2,,,,,,,AFNE09.jpg,AFSA20.jpg,AFSA04.jpg,AFNE16.jpg,AFSA04.jpg,FS,4,num_2,16,num_2,0.850171259139,,,2017_Apr_10_1433,59.9959781854,FEMA4ImagesEEG,001,200118,
AMSA21.JPG,AMNE22.JPG,AMNE21.JPG,AMSA23.JPG,AMSA22.JPG,AMNE23.JPG,,,,,,,,,,,,,,,,,0,4,4,1,,,,,,,AFSA05.jpg,AFNE18.jpg,AFSA06.jpg,AFNE05.jpg,AFSA06.jpg,FS,4,num_2,32,num_4,1.0834779602,,,2017_Apr_10_1433,59.9959781854,FEMA4ImagesEEG,001,200118,
AMSA21.JPG,AMNE23.JPG,AMNE21.JPG,AMSA25.JPG,AMNE25.JPG,AMSA23.JPG,,,,,,,,,,,,,,,,,0,5,5,5,,,,,,,AFNE14.jpg,AFSA14.jpg,AFNE06.jpg,AFSA02.jpg,AFNE06.jpg,FN,3,num_2,32,num_6,0.816730296006,,,2017_Apr_10_1433,59.9959781854,FEMA4ImagesEEG,001,200118,
AFNE22.JPG,AFSA24.JPG,AFSA22.JPG,AFNE25.JPG,AFNE24.JPG,AFSA25.JPG,,,,,,,,,,,,,,,,,0,6,6,6,,,,,,,AFNE10.jpg,AFSA13.jpg,AFNE15.jpg,AFSA20.jpg,AFNE15.jpg,FN,3,num_2,32,num_8,0.750120999059,,,2017_Apr_10_1433,59.9959781854,FEMA4ImagesEEG,001,200118,
AMNE22.JPG,AMSA24.JPG,AMSA22.JPG,AMNE25.JPG,AMNE24.JPG,AMSA25.JPG,,,,,,,,,,,,,,,,,0,7,7,7,,,,,,,AFNE08.jpg,AFSA11.jpg,AFSA15.jpg,AFNE09.jpg,AFNE08.jpg,FN,3,num_8,16,num_8,0.883140092948,,,2017_Apr_10_1433,59.9959781854,FEMA4ImagesEEG,001,200118,
AMSA25.JPG,AMNE24.JPG,AMSA24.JPG,AMNE26.JPG,AMSA21.JPG,AMNE25.JPG,,,,,,,,,,,,,,,,,0,8,8,3,,,,,,,AFSA05.jpg,AFSA15.jpg,AFNE04.jpg,AFNE16.jpg,AFNE16.jpg,FN,3,num_4,16,num_4,1.05008767429,,,2017_Apr_10_1433,59.9959781854,FEMA4ImagesEEG,001,200118,
AMNE23.JPG,AMNE24.JPG,AMNE22.JPG,AMSA24.JPG,AMSA22.JPG,AMSA23.JPG,,,,,,,,,,,,,,,,,0,9,9,9,,,,,,,AFSA15.jpg,AFSA08.jpg,AFNE11.jpg,AFNE13.jpg,AFSA15.jpg,FS,4,num_8,16,num_8,1.06674785656,,,2017_Apr_10_1433,59.9959781854,FEMA4ImagesEEG,001,200118,
AFSA21.JPG,AFNE22.JPG,AFNE21.JPG,AFSA23.JPG,AFSA22.JPG,AFNE23.JPG,,,,,,,,,,,,,,,,,,,,,0,0,0,0,,,AMSA13.jpg,AMSA14.jpg,AMNE04.jpg,AMNE05.jpg,AMNE04.jpg,MN,1,num_2,16,num_2,1.03344705701,,,2017_Apr_10_1433,59.9959781854,FEMA4ImagesEEG,001,200118,
AMSA21.JPG,AMNE23.JPG,AMNE21.JPG,AMSA25.JPG,AMNE25.JPG,AMSA23.JPG,,,,,,,,,,,,,,,,,,,,,0,1,1,5,,,AMSA04.jpg,AMNE02.jpg,AMNE08.jpg,AMSA15.jpg,AMSA04.jpg,MS,2,num_8,16,num_8,0.850162278162,,,2017_Apr_10_1433,59.9959781854,FEMA4ImagesEEG,001,200118,
AMSA25.JPG,AMNE24.JPG,AMSA24.JPG,AMNE26.JPG,AMSA21.JPG,AMNE25.JPG,,,,,,,,,,,,,,,,,,,,,0,2,2,3,,,AMNE01.jpg,AMSA04.jpg,AMSA16.jpg,AMNE09.jpg,AMNE09.jpg,MN,1,num_4,16,num_4,0.833441155264,,,2017_Apr_10_1433,59.9959781854,FEMA4ImagesEEG,001,200118,
AFSA25.JPG,AFNE24.JPG,AFSA24.JPG,AFNE21.JPG,AFSA21.JPG,AFNE25.JPG,,,,,,,,,,,,,,,,,,,,,0,3,3,2,,,AMNE08.jpg,AMSA19.jpg,AMSA07.jpg,AMNE01.jpg,AMSA07.jpg,MS,2,num_2,32,num_8,0.96672967053,,,2017_Apr_10_1433,59.9959781854,FEMA4ImagesEEG,001,200118,
AFSA21.JPG,AFNE23.JPG,AFNE21.JPG,AFSA25.JPG,AFNE25.JPG,AFSA23.JPG,,,,,,,,,,,,,,,,,,,,,0,4,4,4,,,AMSA19.jpg,AMNE07.jpg,AMNE16.jpg,AMSA17.jpg,AMSA17.jpg,MS,2,num_4,16,num_4,1.76669843053,,,2017_Apr_10_1433,59.9959781854,FEMA4ImagesEEG,001,200118,
AMNE23.JPG,AMNE24.JPG,AMNE22.JPG,AMSA24.JPG,AMSA22.JPG,AMSA23.JPG,,,,,,,,,,,,,,,,,,,,,0,5,5,9,,,AMNE16.jpg,AMNE02.jpg,AMSA03.jpg,AMSA16.jpg,AMNE16.jpg,MN,1,num_8,16,num_8,0.750170713756,,,2017_Apr_10_1433,59.9959781854,FEMA4ImagesEEG,001,200118,
AFNE22.JPG,AFSA24.JPG,AFSA22.JPG,AFNE25.JPG,AFNE24.JPG,AFSA25.JPG,,,,,,,,,,,,,,,,,,,,,0,6,6,6,,,AMNE13.jpg,AMSA02.jpg,AMSA05.jpg,AMNE03.jpg,AMNE13.jpg,MN,1,num_8,16,num_8,0.700126660056,,,2017_Apr_10_1433,59.9959781854,FEMA4ImagesEEG,001,200118,
AFNE23.JPG,AFNE24.JPG,AFNE22.JPG,AFSA24.JPG,AFSA22.JPG,AFSA23.JPG,,,,,,,,,,,,,,,,,,,,,0,7,7,8,,,AMSA13.jpg,AMNE06.jpg,AMNE08.jpg,AMSA03.jpg,AMSA03.jpg,MS,2,num_4,16,num_4,0.616749732988,,,2017_Apr_10_1433,59.9959781854,FEMA4ImagesEEG,001,200118,
AMSA21.JPG,AMNE22.JPG,AMNE21.JPG,AMSA23.JPG,AMSA22.JPG,AMNE23.JPG,,,,,,,,,,,,,,,,,,,,,0,8,8,1,,,AMSA06.jpg,AMNE15.jpg,AMSA11.jpg,AMNE16.jpg,AMNE15.jpg,MN,1,num_6,16,num_6,1.00020431122,,,2017_Apr_10_1433,59.9959781854,FEMA4ImagesEEG,001,200118,
AMNE22.JPG,AMSA24.JPG,AMSA22.JPG,AMNE25.JPG,AMNE24.JPG,AMSA25.JPG,,,,,,,,,,,,,,,,,,,,,0,9,9,7,,,AMSA08.jpg,AMNE02.jpg,AMSA16.jpg,AMNE19.jpg,AMNE02.jpg,MN,1,num_6,16,num_6,0.600121945143,,,2017_Apr_10_1433,59.9959781854,FEMA4ImagesEEG,001,200118,
,,,,,,,,,,,,,,,,,,,,,,,,,,,,,,,,,,,,,,,,,,,space,5.98308001831,2017_Apr_10_1433,59.9959781854,FEMA4ImagesEEG,001,200118,
AFNE01.JPG,AFNE01.JPG,AFNE01.JPG,AFNE01.JPG,AFNE01.JPG,AFNE01.JPG,0,0,0,7,,,,,,,,,,,,,,,,,,,,,,,AFSA11.jpg,AFSA16.jpg,AFNE15.jpg,AFNE08.jpg,AFSA11.jpg,FS,4,num_8,16,num_8,0.516983006848,,,2017_Apr_10_1433,59.9959781854,FEMA4ImagesEEG,001,200118,
AFNE01.JPG,AFNE01.JPG,AFNE01.JPG,AFNE01.JPG,AFNE01.JPG,AFNE01.JPG,0,1,1,5,,,,,,,,,,,,,,,,,,,,,,,AFSA16.jpg,AFSA07.jpg,AFNE12.jpg,AFNE08.jpg,AFNE08.jpg,FN,3,num_4,32,num_6,0.783452910371,,,2017_Apr_10_1433,59.9959781854,FEMA4ImagesEEG,001,200118,
AFNE01.JPG,AFNE01.JPG,AFNE01.JPG,AFNE01.JPG,AFNE01.JPG,AFNE01.JPG,0,2,2,4,,,,,,,,,,,,,,,,,,,,,,,AFNE01.jpg,AFNE13.jpg,AFSA17.jpg,AFSA07.jpg,AFNE13.jpg,FN,3,num_6,32,num_8,1.15006929589,,,2017_Apr_10_1433,59.9959781854,FEMA4ImagesEEG,001,200118,
AFNE01.JPG,AFNE01.JPG,AFNE01.JPG,AFNE01.JPG,AFNE01.JPG,AFNE01.JPG,0,3,3,8,,,,,,,,,,,,,,,,,,,,,,,AFNE19.jpg,AFSA16.jpg,AFSA08.jpg,AFNE02.jpg,AFSA16.jpg,FS,4,num_6,16,num_6,0.883483284619,,,2017_Apr_10_1433,59.9959781854,FEMA4ImagesEEG,001,200118,
AFNE01.JPG,AFNE01.JPG,AFNE01.JPG,AFNE01.JPG,AFNE01.JPG,AFNE01.JPG,0,4,4,6,,,,,,,,,,,,,,,,,,,,,,,AFNE03.jpg,AFSA18.jpg,AFNE16.jpg,AFSA05.jpg,AFSA18.jpg,FS,4,num_6,32,num_2,1.31672564521,,,2017_Apr_10_1433,59.9959781854,FEMA4ImagesEEG,001,200118,
AFNE01.JPG,AFNE01.JPG,AFNE01.JPG,AFNE01.JPG,AFNE01.JPG,AFNE01.JPG,0,5,5,9,,,,,,,,,,,,,,,,,,,,,,,AFNE15.jpg,AFSA08.jpg,AFNE09.jpg,AFSA16.jpg,AFSA08.jpg,FS,4,num_6,16,num_6,0.900137372781,,,2017_Apr_10_1433,59.9959781854,FEMA4ImagesEEG,001,200118,
AFNE01.JPG,AFNE01.JPG,AFNE01.JPG,AFNE01.JPG,AFNE01.JPG,AFNE01.JPG,0,6,6,3,,,,,,,,,,,,,,,,,,,,,,,AFSA09.jpg,AFNE02.jpg,AFNE16.jpg,AFSA06.jpg,AFSA06.jpg,FS,4,num_4,16,num_4,0.583472347353,,,2017_Apr_10_1433,59.9959781854,FEMA4ImagesEEG,001,200118,
AFNE01.JPG,AFNE01.JPG,AFNE01.JPG,AFNE01.JPG,AFNE01.JPG,AFNE01.JPG,0,7,7,0,,,,,,,,,,,,,,,,,,,,,,,AFNE03.jpg,AFNE18.jpg,AFSA01.jpg,AFSA11.jpg,AFNE18.jpg,FN,3,num_6,16,num_6,0.883604523959,,,2017_Apr_10_1433,59.9959781854,FEMA4ImagesEEG,001,200118,
AFNE01.JPG,AFNE01.JPG,AFNE01.JPG,AFNE01.JPG,AFNE01.JPG,AFNE01.JPG,0,8,8,1,,,,,,,,,,,,,,,,,,,,,,,AFNE02.jpg,AFSA12.jpg,AFSA03.jpg,AFNE09.jpg,AFSA03.jpg,FS,4,num_2,32,num_8,0.816805349197,,,2017_Apr_10_1433,59.9959781854,FEMA4ImagesEEG,001,200118,
AFNE01.JPG,AFNE01.JPG,AFNE01.JPG,AFNE01.JPG,AFNE01.JPG,AFNE01.JPG,0,9,9,2,,,,,,,,,,,,,,,,,,,,,,,AFSA15.jpg,AFNE13.jpg,AFNE18.jpg,AFSA03.jpg,AFNE18.jpg,FN,3,num_2,16,num_2,1.26675439975,,,2017_Apr_10_1433,59.9959781854,FEMA4ImagesEEG,001,200118,
AFNE01.JPG,AFNE01.JPG,AFNE01.JPG,AFNE01.JPG,AFNE01.JPG,AFNE01.JPG,1,0,10,2,,,,,,,,,,,,,,,,,,,,,,,AFNE16.jpg,AFNE09.jpg,AFSA19.jpg,AFSA18.jpg,AFNE16.jpg,FN,3,num_8,16,num_8,0.966817553155,,,2017_Apr_10_1433,59.9959781854,FEMA4ImagesEEG,001,200118,
AFNE01.JPG,AFNE01.JPG,AFNE01.JPG,AFNE01.JPG,AFNE01.JPG,AFNE01.JPG,1,1,11,3,,,,,,,,,,,,,,,,,,,,,,,AFSA06.jpg,AFNE08.jpg,AFSA19.jpg,AFNE09.jpg,AFSA19.jpg,FS,4,num_2,16,num_2,0.850149448728,,,2017_Apr_10_1433,59.9959781854,FEMA4ImagesEEG,001,200118,
AFNE01.JPG,AFNE01.JPG,AFNE01.JPG,AFNE01.JPG,AFNE01.JPG,AFNE01.JPG,1,2,12,0,,,,,,,,,,,,,,,,,,,,,,,AFNE03.jpg,AFNE12.jpg,AFSA05.jpg,AFSA06.jpg,AFNE03.jpg,FN,3,num_8,16,num_8,0.883455380099,,,2017_Apr_10_1433,59.9959781854,FEMA4ImagesEEG,001,200118,
AFNE01.JPG,AFNE01.JPG,AFNE01.JPG,AFNE01.JPG,AFNE01.JPG,AFNE01.JPG,1,3,13,1,,,,,,,,,,,,,,,,,,,,,,,AFNE17.jpg,AFNE10.jpg,AFSA07.jpg,AFSA01.jpg,AFNE17.jpg,FN,3,num_8,16,num_8,0.883176336531,,,2017_Apr_10_1433,59.9959781854,FEMA4ImagesEEG,001,200118,
AFNE01.JPG,AFNE01.JPG,AFNE01.JPG,AFNE01.JPG,AFNE01.JPG,AFNE01.JPG,1,4,14,5,,,,,,,,,,,,,,,,,,,,,,,AFSA07.jpg,AFNE19.jpg,AFNE14.jpg,AFSA08.jpg,AFNE14.jpg,FN,3,num_2,16,num_2,1.18328445801,,,2017_Apr_10_1433,59.9959781854,FEMA4ImagesEEG,001,200118,
AFNE01.JPG,AFNE01.JPG,AFNE01.JPG,AFNE01.JPG,AFNE01.JPG,AFNE01.JPG,1,5,15,7,,,,,,,,,,,,,,,,,,,,,,,AFSA08.jpg,AFSA16.jpg,AFNE15.jpg,AFNE09.jpg,AFSA16.jpg,FS,4,num_6,32,num_4,1.03343518963,,,2017_Apr_10_1433,59.9959781854,FEMA4ImagesEEG,001,200118,
AFNE01.JPG,AFNE01.JPG,AFNE01.JPG,AFNE01.JPG,AFNE01.JPG,AFNE01.JPG,1,6,16,9,,,,,,,,,,,,,,,,,,,,,,,AFSA18.jpg,AFNE08.jpg,AFNE11.jpg,AFSA07.jpg,AFSA18.jpg,FS,4,num_8,16,num_8,0.783459325088,,,2017_Apr_10_1433,59.9959781854,FEMA4ImagesEEG,001,200118,
AFNE01.JPG,AFNE01.JPG,AFNE01.JPG,AFNE01.JPG,AFNE01.JPG,AFNE01.JPG,1,7,17,8,,,,,,,,,,,,,,,,,,,,,,,AFNE07.jpg,AFSA19.jpg,AFSA06.jpg,AFNE02.jpg,AFSA06.jpg,FS,4,num_2,16,num_2,0.683442422189,,,2017_Apr_10_1433,59.9959781854,FEMA4ImagesEEG,001,200118,
AFNE01.JPG,AFNE01.JPG,AFNE01.JPG,AFNE01.JPG,AFNE01.JPG,AFNE01.JPG,1,8,18,4,,,,,,,,,,,,,,,,,,,,,,,AFSA06.jpg,AFNE17.jpg,AFSA13.jpg,AFNE11.jpg,AFSA13.jpg,FS,4,num_2,32,num_8,0.733472684165,,,2017_Apr_10_1433,59.9959781854,FEMA4ImagesEEG,001,200118,
AFNE01.JPG,AFNE01.JPG,AFNE01.JPG,AFNE01.JPG,AFNE01.JPG,AFNE01.JPG,1,9,19,6,,,,,,,,,,,,,,,,,,,,,,,AFNE15.jpg,AFSA03.jpg,AFNE18.jpg,AFSA14.jpg,AFSA03.jpg,FS,4,num_6,16,num_6,0.816743125673,,,2017_Apr_10_1433,59.9959781854,FEMA4ImagesEEG,001,200118,
AFNE01.JPG,AFNE01.JPG,AFNE01.JPG,AFNE01.JPG,AFNE01.JPG,AFNE01.JPG,2,0,20,4,,,,,,,,,,,,,,,,,,,,,,,AFSA07.jpg,AFNE17.jpg,AFNE08.jpg,AFSA19.jpg,AFNE08.jpg,FN,3,num_2,32,num_8,0.633440385573,,,2017_Apr_10_1433,59.9959781854,FEMA4ImagesEEG,001,200118,
AFNE01.JPG,AFNE01.JPG,AFNE01.JPG,AFNE01.JPG,AFNE01.JPG,AFNE01.JPG,2,1,21,3,,,,,,,,,,,,,,,,,,,,,,,AFSA15.jpg,AFNE10.jpg,AFSA10.jpg,AFNE02.jpg,AFNE02.jpg,FN,3,num_4,32,num_2,1.13343669707,,,2017_Apr_10_1433,59.9959781854,FEMA4ImagesEEG,001,200118,
AFNE01.JPG,AFNE01.JPG,AFNE01.JPG,AFNE01.JPG,AFNE01.JPG,AFNE01.JPG,2,2,22,7,,,,,,,,,,,,,,,,,,,,,,,AFNE13.jpg,AFNE03.jpg,AFSA06.jpg,AFSA13.jpg,AFSA06.jpg,FS,4,num_2,16,num_2,1.08352158079,,,2017_Apr_10_1433,59.9959781854,FEMA4ImagesEEG,001,200118,
AFNE01.JPG,AFNE01.JPG,AFNE01.JPG,AFNE01.JPG,AFNE01.JPG,AFNE01.JPG,2,3,23,9,,,,,,,,,,,,,,,,,,,,,,,AFSA19.jpg,AFNE13.jpg,AFNE10.jpg,AFSA18.jpg,AFSA19.jpg,FS,4,num_8,16,num_8,0.833448211662,,,2017_Apr_10_1433,59.9959781854,FEMA4ImagesEEG,001,200118,
AFNE01.JPG,AFNE01.JPG,AFNE01.JPG,AFNE01.JPG,AFNE01.JPG,AFNE01.JPG,2,4,24,1,,,,,,,,,,,,,,,,,,,,,,,AFSA18.jpg,AFSA10.jpg,AFNE10.jpg,AFNE12.jpg,AFSA18.jpg,FS,4,num_8,16,num_8,0.616790146101,,,2017_Apr_10_1433,59.9959781854,FEMA4ImagesEEG,001,200118,
AFNE01.JPG,AFNE01.JPG,AFNE01.JPG,AFNE01.JPG,AFNE01.JPG,AFNE01.JPG,2,5,25,0,,,,,,,,,,,,,,,,,,,,,,,AFSA08.jpg,AFNE06.jpg,AFNE10.jpg,AFSA19.jpg,AFNE10.jpg,FN,3,num_2,16,num_2,0.983530657832,,,2017_Apr_10_1433,59.9959781854,FEMA4ImagesEEG,001,200118,
AFNE01.JPG,AFNE01.JPG,AFNE01.JPG,AFNE01.JPG,AFNE01.JPG,AFNE01.JPG,2,6,26,6,,,,,,,,,,,,,,,,,,,,,,,AFNE11.jpg,AFSA20.jpg,AFNE08.jpg,AFSA15.jpg,AFSA15.jpg,FS,4,num_4,16,num_4,0.633515117923,,,2017_Apr_10_1433,59.9959781854,FEMA4ImagesEEG,001,200118,
AFNE01.JPG,AFNE01.JPG,AFNE01.JPG,AFNE01.JPG,AFNE01.JPG,AFNE01.JPG,2,7,27,8,,,,,,,,,,,,,,,,,,,,,,,AFNE19.jpg,AFNE16.jpg,AFSA20.jpg,AFSA09.jpg,AFSA20.jpg,FS,4,num_2,32,num_8,0.933524451451,,,2017_Apr_10_1433,59.9959781854,FEMA4ImagesEEG,001,200118,
AFNE01.JPG,AFNE01.JPG,AFNE01.JPG,AFNE01.JPG,AFNE01.JPG,AFNE01.JPG,2,8,28,5,,,,,,,,,,,,,,,,,,,,,,,AFSA02.jpg,AFNE04.jpg,AFSA09.jpg,AFNE01.jpg,AFSA02.jpg,FS,4,num_8,16,num_8,0.683443384478,,,2017_Apr_10_1433,59.9959781854,FEMA4ImagesEEG,001,200118,
AFNE01.JPG,AFNE01.JPG,AFNE01.JPG,AFNE01.JPG,AFNE01.JPG,AFNE01.JPG,2,9,29,2,,,,,,,,,,,,,,,,,,,,,,,AFSA19.jpg,AFSA06.jpg,AFNE14.jpg,AFNE01.jpg,AFSA06.jpg,FS,4,num_6,32,num_8,0.666786730289,,,2017_Apr_10_1433,59.9959781854,FEMA4ImagesEEG,001,200118,
AFNE01.JPG,AFNE01.JPG,AFNE01.JPG,AFNE01.JPG,AFNE01.JPG,AFNE01.JPG,3,0,30,8,,,,,,,,,,,,,,,,,,,,,,,AFNE03.jpg,AFNE15.jpg,AFSA18.jpg,AFSA16.jpg,AFNE03.jpg,FN,3,num_8,16,num_8,0.766700355103,,,2017_Apr_10_1433,59.9959781854,FEMA4ImagesEEG,001,200118,
AFNE01.JPG,AFNE01.JPG,AFNE01.JPG,AFNE01.JPG,AFNE01.JPG,AFNE01.JPG,3,1,31,3,,,,,,,,,,,,,,,,,,,,,,,AFNE06.jpg,AFSA17.jpg,AFSA02.jpg,AFNE11.jpg,AFNE06.jpg,FN,3,num_8,16,num_8,0.816475308035,,,2017_Apr_10_1433,59.9959781854,FEMA4ImagesEEG,001,200118,
AFNE01.JPG,AFNE01.JPG,AFNE01.JPG,AFNE01.JPG,AFNE01.JPG,AFNE01.JPG,3,2,32,6,,,,,,,,,,,,,,,,,,,,,,,AFNE11.jpg,AFSA06.jpg,AFNE08.jpg,AFSA03.jpg,AFSA03.jpg,FS,4,num_4,32,num_8,0.750123885693,,,2017_Apr_10_1433,59.9959781854,FEMA4ImagesEEG,001,200118,
AFNE01.JPG,AFNE01.JPG,AFNE01.JPG,AFNE01.JPG,AFNE01.JPG,AFNE01.JPG,3,3,33,9,,,,,,,,,,,,,,,,,,,,,,,AFNE02.jpg,AFNE14.jpg,AFSA14.jpg,AFSA04.jpg,AFSA04.jpg,FS,4,num_4,16,num_4,0.850128600607,,,2017_Apr_10_1433,59.9959781854,FEMA4ImagesEEG,001,200118,
AFNE01.JPG,AFNE01.JPG,AFNE01.JPG,AFNE01.JPG,AFNE01.JPG,AFNE01.JPG,3,4,34,2,,,,,,,,,,,,,,,,,,,,,,,AFNE10.jpg,AFSA01.jpg,AFSA18.jpg,AFNE05.jpg,AFNE10.jpg,FN,3,num_8,16,num_8,0.833525830414,,,2017_Apr_10_1433,59.9959781854,FEMA4ImagesEEG,001,200118,
AFNE01.JPG,AFNE01.JPG,AFNE01.JPG,AFNE01.JPG,AFNE01.JPG,AFNE01.JPG,3,5,35,1,,,,,,,,,,,,,,,,,,,,,,,AFNE01.jpg,AFSA19.jpg,AFSA12.jpg,AFNE14.jpg,AFNE01.jpg,FN,3,num_8,32,num_6,0.733486155048,,,2017_Apr_10_1433,59.9959781854,FEMA4ImagesEEG,001,200118,
AFNE01.JPG,AFNE01.JPG,AFNE01.JPG,AFNE01.JPG,AFNE01.JPG,AFNE01.JPG,3,6,36,4,,,,,,,,,,,,,,,,,,,,,,,AFNE02.jpg,AFSA16.jpg,AFNE20.jpg,AFSA08.jpg,AFSA16.jpg,FS,4,num_6,16,num_6,1.33339544991,,,2017_Apr_10_1433,59.9959781854,FEMA4ImagesEEG,001,200118,
AFNE01.JPG,AFNE01.JPG,AFNE01.JPG,AFNE01.JPG,AFNE01.JPG,AFNE01.JPG,3,7,37,0,,,,,,,,,,,,,,,,,,,,,,,AFSA18.jpg,AFNE14.jpg,AFSA08.jpg,AFNE05.jpg,AFSA08.jpg,FS,4,num_2,32,num_8,0.98345656693,,,2017_Apr_10_1433,59.9959781854,FEMA4ImagesEEG,001,200118,
AFNE01.JPG,AFNE01.JPG,AFNE01.JPG,AFNE01.JPG,AFNE01.JPG,AFNE01.JPG,3,8,38,7,,,,,,,,,,,,,,,,,,,,,,,AFNE17.jpg,AFNE03.jpg,AFSA15.jpg,AFSA02.jpg,AFNE03.jpg,FN,3,num_6,16,num_6,0.866753180744,,,2017_Apr_10_1433,59.9959781854,FEMA4ImagesEEG,001,200118,
AFNE01.JPG,AFNE01.JPG,AFNE01.JPG,AFNE01.JPG,AFNE01.JPG,AFNE01.JPG,3,9,39,5,,,,,,,,,,,,,,,,,,,,,,,AFNE18.jpg,AFSA07.jpg,AFSA02.jpg,AFNE15.jpg,AFSA07.jpg,FS,4,num_6,16,num_6,0.816779690096,,,2017_Apr_10_1433,59.9959781854,FEMA4ImagesEEG,001,200118,
AFNE01.JPG,AFNE01.JPG,AFNE01.JPG,AFNE01.JPG,AFNE01.JPG,AFNE01.JPG,4,0,40,2,,,,,,,,,,,,,,,,,,,,,,,AFSA04.jpg,AFNE18.jpg,AFSA05.jpg,AFNE13.jpg,AFNE13.jpg,FN,3,num_4,16,num_4,1.00015972834,,,2017_Apr_10_1433,59.9959781854,FEMA4ImagesEEG,001,200118,
AFNE01.JPG,AFNE01.JPG,AFNE01.JPG,AFNE01.JPG,AFNE01.JPG,AFNE01.JPG,4,1,41,7,,,,,,,,,,,,,,,,,,,,,,,AFSA18.jpg,AFSA06.jpg,AFNE06.jpg,AFNE10.jpg,AFNE06.jpg,FN,3,num_2,16,num_2,0.833307406865,,,2017_Apr_10_1433,59.9959781854,FEMA4ImagesEEG,001,200118,
AFNE01.JPG,AFNE01.JPG,AFNE01.JPG,AFNE01.JPG,AFNE01.JPG,AFNE01.JPG,4,2,42,6,,,,,,,,,,,,,,,,,,,,,,,AFNE15.jpg,AFNE17.jpg,AFSA08.jpg,AFSA06.jpg,AFNE17.jpg,FN,3,num_6,16,num_6,0.700261691352,,,2017_Apr_10_1433,59.9959781854,FEMA4ImagesEEG,001,200118,
AFNE01.JPG,AFNE01.JPG,AFNE01.JPG,AFNE01.JPG,AFNE01.JPG,AFNE01.JPG,4,3,43,3,,,,,,,,,,,,,,,,,,,,,,,AFNE10.jpg,AFSA11.jpg,AFSA12.jpg,AFNE08.jpg,AFNE08.jpg,FN,3,num_4,16,num_4,0.866764727281,,,2017_Apr_10_1433,59.9959781854,FEMA4ImagesEEG,001,200118,
AFNE01.JPG,AFNE01.JPG,AFNE01.JPG,AFNE01.JPG,AFNE01.JPG,AFNE01.JPG,4,4,44,9,,,,,,,,,,,,,,,,,,,,,,,AFNE17.jpg,AFNE14.jpg,AFSA06.jpg,AFSA11.jpg,AFNE14.jpg,FN,3,num_6,32,num_8,1.15014466969,,,2017_Apr_10_1433,59.9959781854,FEMA4ImagesEEG,001,200118,
AFNE01.JPG,AFNE01.JPG,AFNE01.JPG,AFNE01.JPG,AFNE01.JPG,AFNE01.JPG,4,5,45,4,,,,,,,,,,,,,,,,,,,,,,,AFNE04.jpg,AFSA18.jpg,AFSA07.jpg,AFNE01.jpg,AFNE04.jpg,FN,3,num_8,16,num_8,0.61708586826,,,2017_Apr_10_1433,59.9959781854,FEMA4ImagesEEG,001,200118,
AFNE01.JPG,AFNE01.JPG,AFNE01.JPG,AFNE01.JPG,AFNE01.JPG,AFNE01.JPG,4,6,46,5,,,,,,,,,,,,,,,,,,,,,,,AFSA02.jpg,AFSA06.jpg,AFNE07.jpg,AFNE18.jpg,AFSA02.jpg,FS,4,num_8,32,num_6,0.80011630035,,,2017_Apr_10_1433,59.9959781854,FEMA4ImagesEEG,001,200118,
AFNE01.JPG,AFNE01.JPG,AFNE01.JPG,AFNE01.JPG,AFNE01.JPG,AFNE01.JPG,4,7,47,8,,,,,,,,,,,,,,,,,,,,,,,AFSA10.jpg,AFSA04.jpg,AFNE05.jpg,AFNE10.jpg,AFSA04.jpg,FS,4,num_6,32,num_8,0.733055722434,,,2017_Apr_10_1433,59.9959781854,FEMA4ImagesEEG,001,200118,
AFNE01.JPG,AFNE01.JPG,AFNE01.JPG,AFNE01.JPG,AFNE01.JPG,AFNE01.JPG,4,8,48,1,,,,,,,,,,,,,,,,,,,,,,,AFSA11.jpg,AFSA19.jpg,AFNE05.jpg,AFNE04.jpg,AFNE05.jpg,FN,3,num_2,32,num_6,0.650136490818,,,2017_Apr_10_1433,59.9959781854,FEMA4ImagesEEG,001,200118,
AFNE01.JPG,AFNE01.JPG,AFNE01.JPG,AFNE01.JPG,AFNE01.JPG,AFNE01.JPG,4,9,49,0,,,,,,,,,,,,,,,,,,,,,,,AFNE15.jpg,AFSA05.jpg,AFNE16.jpg,AFSA19.jpg,AFNE16.jpg,FN,3,num_2,16,num_2,0.783466060879,,,2017_Apr_10_1433,59.9959781854,FEMA4ImagesEEG,001,200118,
AFNE01.JPG,AFNE01.JPG,AFNE01.JPG,AFNE01.JPG,AFNE01.JPG,AFNE01.JPG,5,0,50,4,,,,,,,,,,,,,,,,,,,,,,,AFSA15.jpg,AFNE08.jpg,AFSA10.jpg,AFNE17.jpg,AFSA15.jpg,FS,4,num_8,16,num_8,0.76674461714,,,2017_Apr_10_1433,59.9959781854,FEMA4ImagesEEG,001,200118,
AFNE01.JPG,AFNE01.JPG,AFNE01.JPG,AFNE01.JPG,AFNE01.JPG,AFNE01.JPG,5,1,51,7,,,,,,,,,,,,,,,,,,,,,,,AFSA16.jpg,AFNE05.jpg,AFNE06.jpg,AFSA11.jpg,AFNE05.jpg,FN,3,num_6,32,num_8,0.716757655377,,,2017_Apr_10_1433,59.9959781854,FEMA4ImagesEEG,001,200118,
AFNE01.JPG,AFNE01.JPG,AFNE01.JPG,AFNE01.JPG,AFNE01.JPG,AFNE01.JPG,5,2,52,8,,,,,,,,,,,,,,,,,,,,,,,AFNE09.jpg,AFSA12.jpg,AFNE18.jpg,AFSA09.jpg,AFSA12.jpg,FS,4,num_6,16,num_6,0.666767806513,,,2017_Apr_10_1433,59.9959781854,FEMA4ImagesEEG,001,200118,
AFNE01.JPG,AFNE01.JPG,AFNE01.JPG,AFNE01.JPG,AFNE01.JPG,AFNE01.JPG,5,3,53,9,,,,,,,,,,,,,,,,,,,,,,,AFNE17.jpg,AFSA10.jpg,AFNE12.jpg,AFSA15.jpg,AFNE12.jpg,FN,3,num_2,16,num_2,0.733414951013,,,2017_Apr_10_1433,59.9959781854,FEMA4ImagesEEG,001,200118,
AFNE01.JPG,AFNE01.JPG,AFNE01.JPG,AFNE01.JPG,AFNE01.JPG,AFNE01.JPG,5,4,54,5,,,,,,,,,,,,,,,,,,,,,,,AFSA13.jpg,AFSA11.jpg,AFNE01.jpg,AFNE09.jpg,AFSA13.jpg,FS,4,num_8,16,num_8,0.783227109583,,,2017_Apr_10_1433,59.9959781854,FEMA4ImagesEEG,001,200118,
AFNE01.JPG,AFNE01.JPG,AFNE01.JPG,AFNE01.JPG,AFNE01.JPG,AFNE01.JPG,5,5,55,3,,,,,,,,,,,,,,,,,,,,,,,AFSA20.jpg,AFNE07.jpg,AFSA16.jpg,AFNE13.jpg,AFNE07.jpg,FN,3,num_6,16,num_6,0.650159263285,,,2017_Apr_10_1433,59.9959781854,FEMA4ImagesEEG,001,200118,
AFNE01.JPG,AFNE01.JPG,AFNE01.JPG,AFNE01.JPG,AFNE01.JPG,AFNE01.JPG,5,6,56,2,,,,,,,,,,,,,,,,,,,,,,,AFNE12.jpg,AFSA20.jpg,AFSA02.jpg,AFNE14.jpg,AFNE12.jpg,FN,3,num_8,16,num_8,0.78344232589,,,2017_Apr_10_1433,59.9959781854,FEMA4ImagesEEG,001,200118,
AFNE01.JPG,AFNE01.JPG,AFNE01.JPG,AFNE01.JPG,AFNE01.JPG,AFNE01.JPG,5,7,57,0,,,,,,,,,,,,,,,,,,,,,,,AFSA08.jpg,AFNE17.jpg,AFSA01.jpg,AFNE06.jpg,AFNE17.jpg,FN,3,num_6,32,num_2,1.51671390631,,,2017_Apr_10_1433,59.9959781854,FEMA4ImagesEEG,001,200118,
AFNE01.JPG,AFNE01.JPG,AFNE01.JPG,AFNE01.JPG,AFNE01.JPG,AFNE01.JPG,5,8,58,1,,,,,,,,,,,,,,,,,,,,,,,AFSA12.jpg,AFSA18.jpg,AFNE14.jpg,AFNE06.jpg,AFSA18.jpg,FS,4,num_6,16,num_6,0.683464874048,,,2017_Apr_10_1433,59.9959781854,FEMA4ImagesEEG,001,200118,
AFNE01.JPG,AFNE01.JPG,AFNE01.JPG,AFNE01.JPG,AFNE01.JPG,AFNE01.JPG,5,9,59,6,,,,,,,,,,,,,,,,,,,,,,,AFSA19.jpg,AFSA06.jpg,AFNE10.jpg,AFNE04.jpg,AFSA19.jpg,FS,4,num_8,16,num_8,0.700158734107,,,2017_Apr_10_1433,59.9959781854,FEMA4ImagesEEG,001,200118,
,,,,,,,,,,,,,,,,,,,,,,,,,,,,,,,,,,,,,,,,,,,space,9.93272548867,2017_Apr_10_1433,59.9959781854,FEMA4ImagesEEG,001,200118,
AFNE01.JPG,AFNE01.JPG,AFNE01.JPG,AFNE01.JPG,AFNE01.JPG,AFNE01.JPG,,,,,0,0,0,5,,,,,,,,,,,,,,,,,,,AMSA12.jpg,AMSA01.jpg,AMNE14.jpg,AMNE20.jpg,AMNE14.jpg,MN,1,num_2,16,num_2,0.933427908923,,,2017_Apr_10_1433,59.9959781854,FEMA4ImagesEEG,001,200118,
AFNE01.JPG,AFNE01.JPG,AFNE01.JPG,AFNE01.JPG,AFNE01.JPG,AFNE01.JPG,,,,,0,1,1,2,,,,,,,,,,,,,,,,,,,AMSA04.jpg,AMSA15.jpg,AMNE13.jpg,AMNE12.jpg,AMSA04.jpg,MS,2,num_8,16,num_8,1.05008350476,,,2017_Apr_10_1433,59.9959781854,FEMA4ImagesEEG,001,200118,
AFNE01.JPG,AFNE01.JPG,AFNE01.JPG,AFNE01.JPG,AFNE01.JPG,AFNE01.JPG,,,,,0,2,2,7,,,,,,,,,,,,,,,,,,,AMSA04.jpg,AMSA16.jpg,AMNE12.jpg,AMNE11.jpg,AMNE11.jpg,MN,1,num_4,32,num_6,0.816780331312,,,2017_Apr_10_1433,59.9959781854,FEMA4ImagesEEG,001,200118,
AFNE01.JPG,AFNE01.JPG,AFNE01.JPG,AFNE01.JPG,AFNE01.JPG,AFNE01.JPG,,,,,0,3,3,4,,,,,,,,,,,,,,,,,,,AMSA02.jpg,AMNE08.jpg,AMNE19.jpg,AMSA07.jpg,AMNE19.jpg,MN,1,num_2,16,num_2,0.766446008347,,,2017_Apr_10_1433,59.9959781854,FEMA4ImagesEEG,001,200118,
AFNE01.JPG,AFNE01.JPG,AFNE01.JPG,AFNE01.JPG,AFNE01.JPG,AFNE01.JPG,,,,,0,4,4,8,,,,,,,,,,,,,,,,,,,AMNE10.jpg,AMSA14.jpg,AMSA19.jpg,AMNE13.jpg,AMNE13.jpg,MN,1,num_4,32,num_8,0.716873121448,,,2017_Apr_10_1433,59.9959781854,FEMA4ImagesEEG,001,200118,
AFNE01.JPG,AFNE01.JPG,AFNE01.JPG,AFNE01.JPG,AFNE01.JPG,AFNE01.JPG,,,,,0,5,5,9,,,,,,,,,,,,,,,,,,,AMSA15.jpg,AMNE14.jpg,AMSA04.jpg,AMNE06.jpg,AMSA15.jpg,MS,2,num_8,32,num_2,0.83337893174,,,2017_Apr_10_1433,59.9959781854,FEMA4ImagesEEG,001,200118,
AFNE01.JPG,AFNE01.JPG,AFNE01.JPG,AFNE01.JPG,AFNE01.JPG,AFNE01.JPG,,,,,0,6,6,0,,,,,,,,,,,,,,,,,,,AMSA17.jpg,AMNE09.jpg,AMSA03.jpg,AMNE07.jpg,AMNE09.jpg,MN,1,num_6,32,num_4,1.06674849801,,,2017_Apr_10_1433,59.9959781854,FEMA4ImagesEEG,001,200118,
AFNE01.JPG,AFNE01.JPG,AFNE01.JPG,AFNE01.JPG,AFNE01.JPG,AFNE01.JPG,,,,,0,7,7,6,,,,,,,,,,,,,,,,,,,AMNE19.jpg,AMSA11.jpg,AMNE01.jpg,AMSA02.jpg,AMNE01.jpg,MN,1,num_2,16,num_2,0.783152377233,,,2017_Apr_10_1433,59.9959781854,FEMA4ImagesEEG,001,200118,
AFNE01.JPG,AFNE01.JPG,AFNE01.JPG,AFNE01.JPG,AFNE01.JPG,AFNE01.JPG,,,,,0,8,8,1,,,,,,,,,,,,,,,,,,,AMSA08.jpg,AMNE14.jpg,AMSA20.jpg,AMNE01.jpg,AMSA20.jpg,MS,2,num_2,32,num_8,0.816757238004,,,2017_Apr_10_1433,59.9959781854,FEMA4ImagesEEG,001,200118,
AFNE01.JPG,AFNE01.JPG,AFNE01.JPG,AFNE01.JPG,AFNE01.JPG,AFNE01.JPG,,,,,0,9,9,3,,,,,,,,,,,,,,,,,,,AMNE08.jpg,AMSA07.jpg,AMSA16.jpg,AMNE12.jpg,AMNE12.jpg,MN,1,num_4,16,num_4,1.08349656314,,,2017_Apr_10_1433,59.9959781854,FEMA4ImagesEEG,001,200118,
AFNE01.JPG,AFNE01.JPG,AFNE01.JPG,AFNE01.JPG,AFNE01.JPG,AFNE01.JPG,,,,,1,0,10,9,,,,,,,,,,,,,,,,,,,AMSA15.jpg,AMNE16.jpg,AMNE01.jpg,AMSA01.jpg,AMNE16.jpg,MN,1,num_6,16,num_6,0.600140548078,,,2017_Apr_10_1433,59.9959781854,FEMA4ImagesEEG,001,200118,
AFNE01.JPG,AFNE01.JPG,AFNE01.JPG,AFNE01.JPG,AFNE01.JPG,AFNE01.JPG,,,,,1,1,11,0,,,,,,,,,,,,,,,,,,,AMNE04.jpg,AMNE12.jpg,AMSA20.jpg,AMSA13.jpg,AMNE12.jpg,MN,1,num_6,16,num_6,0.75020503276,,,2017_Apr_10_1433,59.9959781854,FEMA4ImagesEEG,001,200118,
AFNE01.JPG,AFNE01.JPG,AFNE01.JPG,AFNE01.JPG,AFNE01.JPG,AFNE01.JPG,,,,,1,2,12,8,,,,,,,,,,,,,,,,,,,AMNE10.jpg,AMSA16.jpg,AMSA15.jpg,AMNE13.jpg,AMSA15.jpg,MS,2,num_2,16,num_2,0.550081098918,,,2017_Apr_10_1433,59.9959781854,FEMA4ImagesEEG,001,200118,
AFNE01.JPG,AFNE01.JPG,AFNE01.JPG,AFNE01.JPG,AFNE01.JPG,AFNE01.JPG,,,,,1,3,13,7,,,,,,,,,,,,,,,,,,,AMNE01.jpg,AMSA08.jpg,AMSA05.jpg,AMNE16.jpg,AMSA05.jpg,MS,2,num_2,32,num_8,1.03375079739,,,2017_Apr_10_1433,59.9959781854,FEMA4ImagesEEG,001,200118,
AFNE01.JPG,AFNE01.JPG,AFNE01.JPG,AFNE01.JPG,AFNE01.JPG,AFNE01.JPG,,,,,1,4,14,4,,,,,,,,,,,,,,,,,,,AMNE12.jpg,AMNE04.jpg,AMSA14.jpg,AMSA13.jpg,AMNE12.jpg,MN,1,num_8,16,num_8,0.783454514109,,,2017_Apr_10_1433,59.9959781854,FEMA4ImagesEEG,001,200118,
AFNE01.JPG,AFNE01.JPG,AFNE01.JPG,AFNE01.JPG,AFNE01.JPG,AFNE01.JPG,,,,,1,5,15,1,,,,,,,,,,,,,,,,,,,AMNE15.jpg,AMSA16.jpg,AMNE07.jpg,AMSA20.jpg,AMSA16.jpg,MS,2,num_6,32,num_4,0.983454321744,,,2017_Apr_10_1433,59.9959781854,FEMA4ImagesEEG,001,200118,
AFNE01.JPG,AFNE01.JPG,AFNE01.JPG,AFNE01.JPG,AFNE01.JPG,AFNE01.JPG,,,,,1,6,16,5,,,,,,,,,,,,,,,,,,,AMSA13.jpg,AMNE18.jpg,AMNE14.jpg,AMSA01.jpg,AMSA01.jpg,MS,2,num_4,16,num_4,0.766839556163,,,2017_Apr_10_1433,59.9959781854,FEMA4ImagesEEG,001,200118,
AFNE01.JPG,AFNE01.JPG,AFNE01.JPG,AFNE01.JPG,AFNE01.JPG,AFNE01.JPG,,,,,1,7,17,6,,,,,,,,,,,,,,,,,,,AMNE12.jpg,AMNE16.jpg,AMSA09.jpg,AMSA03.jpg,AMSA03.jpg,MS,2,num_4,16,num_4,0.500161813339,,,2017_Apr_10_1433,59.9959781854,FEMA4ImagesEEG,001,200118,
AFNE01.JPG,AFNE01.JPG,AFNE01.JPG,AFNE01.JPG,AFNE01.JPG,AFNE01.JPG,,,,,1,8,18,2,,,,,,,,,,,,,,,,,,,AMNE13.jpg,AMNE05.jpg,AMSA10.jpg,AMSA09.jpg,AMNE05.jpg,MN,1,num_6,16,num_6,0.700390949612,,,2017_Apr_10_1433,59.9959781854,FEMA4ImagesEEG,001,200118,
AFNE01.JPG,AFNE01.JPG,AFNE01.JPG,AFNE01.JPG,AFNE01.JPG,AFNE01.JPG,,,,,1,9,19,3,,,,,,,,,,,,,,,,,,,AMSA19.jpg,AMSA02.jpg,AMNE20.jpg,AMNE03.jpg,AMNE03.jpg,MN,1,num_4,32,num_6,1.00011322112,,,2017_Apr_10_1433,59.9959781854,FEMA4ImagesEEG,001,200118,
AFNE01.JPG,AFNE01.JPG,AFNE01.JPG,AFNE01.JPG,AFNE01.JPG,AFNE01.JPG,,,,,2,0,20,0,,,,,,,,,,,,,,,,,,,AMNE04.jpg,AMNE08.jpg,AMSA11.jpg,AMSA04.jpg,AMSA11.jpg,MS,2,num_2,16,num_2,0.71680159634,,,2017_Apr_10_1433,59.9959781854,FEMA4ImagesEEG,001,200118,
AFNE01.JPG,AFNE01.JPG,AFNE01.JPG,AFNE01.JPG,AFNE01.JPG,AFNE01.JPG,,,,,2,1,21,6,,,,,,,,,,,,,,,,,,,AMNE10.jpg,AMSA16.jpg,AMSA12.jpg,AMNE01.jpg,AMNE10.jpg,MN,1,num_8,16,num_8,0.899993681349,,,2017_Apr_10_1433,59.9959781854,FEMA4ImagesEEG,001,200118,
AFNE01.JPG,AFNE01.JPG,AFNE01.JPG,AFNE01.JPG,AFNE01.JPG,AFNE01.JPG,,,,,2,2,22,8,,,,,,,,,,,,,,,,,,,AMSA20.jpg,AMSA03.jpg,AMNE07.jpg,AMNE06.jpg,AMSA20.jpg,MS,2,num_8,16,num_8,1.08340130327,,,2017_Apr_10_1433,59.9959781854,FEMA4ImagesEEG,001,200118,
AFNE01.JPG,AFNE01.JPG,AFNE01.JPG,AFNE01.JPG,AFNE01.JPG,AFNE01.JPG,,,,,2,3,23,4,,,,,,,,,,,,,,,,,,,AMNE05.jpg,AMSA11.jpg,AMNE08.jpg,AMSA17.jpg,AMNE08.jpg,MN,1,num_2,32,num_8,0.666799559724,,,2017_Apr_10_1433,59.9959781854,FEMA4ImagesEEG,001,200118,
AFNE01.JPG,AFNE01.JPG,AFNE01.JPG,AFNE01.JPG,AFNE01.JPG,AFNE01.JPG,,,,,2,4,24,7,,,,,,,,,,,,,,,,,,,AMNE18.jpg,AMSA07.jpg,AMSA13.jpg,AMNE14.jpg,AMSA13.jpg,MS,2,num_2,32,num_8,0.966801516246,,,2017_Apr_10_1433,59.9959781854,FEMA4ImagesEEG,001,200118,
AFNE01.JPG,AFNE01.JPG,AFNE01.JPG,AFNE01.JPG,AFNE01.JPG,AFNE01.JPG,,,,,2,5,25,3,,,,,,,,,,,,,,,,,,,AMNE12.jpg,AMSA01.jpg,AMSA08.jpg,AMNE02.jpg,AMSA08.jpg,MS,2,num_2,16,num_2,1.15011035046,,,2017_Apr_10_1433,59.9959781854,FEMA4ImagesEEG,001,200118,
AFNE01.JPG,AFNE01.JPG,AFNE01.JPG,AFNE01.JPG,AFNE01.JPG,AFNE01.JPG,,,,,2,6,26,5,,,,,,,,,,,,,,,,,,,AMSA18.jpg,AMNE18.jpg,AMSA15.jpg,AMNE05.jpg,AMSA18.jpg,MS,2,num_8,16,num_8,0.716828217963,,,2017_Apr_10_1433,59.9959781854,FEMA4ImagesEEG,001,200118,
AFNE01.JPG,AFNE01.JPG,AFNE01.JPG,AFNE01.JPG,AFNE01.JPG,AFNE01.JPG,,,,,2,7,27,9,,,,,,,,,,,,,,,,,,,AMSA16.jpg,AMNE20.jpg,AMNE16.jpg,AMSA04.jpg,AMSA04.jpg,MS,2,num_4,16,num_4,0.750165261095,,,2017_Apr_10_1433,59.9959781854,FEMA4ImagesEEG,001,200118,
AFNE01.JPG,AFNE01.JPG,AFNE01.JPG,AFNE01.JPG,AFNE01.JPG,AFNE01.JPG,,,,,2,8,28,2,,,,,,,,,,,,,,,,,,,AMSA09.jpg,AMNE07.jpg,AMNE17.jpg,AMSA01.jpg,AMSA09.jpg,MS,2,num_8,16,num_8,0.933459341293,,,2017_Apr_10_1433,59.9959781854,FEMA4ImagesEEG,001,200118,
AFNE01.JPG,AFNE01.JPG,AFNE01.JPG,AFNE01.JPG,AFNE01.JPG,AFNE01.JPG,,,,,2,9,29,1,,,,,,,,,,,,,,,,,,,AMSA12.jpg,AMNE10.jpg,AMNE07.jpg,AMSA04.jpg,AMNE07.jpg,MN,1,num_2,16,num_2,0.71666399925,,,2017_Apr_10_1433,59.9959781854,FEMA4ImagesEEG,001,200118,
AFNE01.JPG,AFNE01.JPG,AFNE01.JPG,AFNE01.JPG,AFNE01.JPG,AFNE01.JPG,,,,,3,0,30,3,,,,,,,,,,,,,,,,,,,AMNE12.jpg,AMSA07.jpg,AMSA19.jpg,AMNE03.jpg,AMSA07.jpg,MS,2,num_6,16,num_6,0.666772296885,,,2017_Apr_10_1433,59.9959781854,FEMA4ImagesEEG,001,200118,
AFNE01.JPG,AFNE01.JPG,AFNE01.JPG,AFNE01.JPG,AFNE01.JPG,AFNE01.JPG,,,,,3,1,31,0,,,,,,,,,,,,,,,,,,,AMNE03.jpg,AMSA14.jpg,AMNE06.jpg,AMSA10.jpg,AMSA14.jpg,MS,2,num_6,16,num_6,0.533390767174,,,2017_Apr_10_1433,59.9959781854,FEMA4ImagesEEG,001,200118,
AFNE01.JPG,AFNE01.JPG,AFNE01.JPG,AFNE01.JPG,AFNE01.JPG,AFNE01.JPG,,,,,3,2,32,6,,,,,,,,,,,,,,,,,,,AMSA07.jpg,AMNE15.jpg,AMNE10.jpg,AMSA09.jpg,AMNE10.jpg,MN,1,num_2,32,num_8,1.01679328922,,,2017_Apr_10_1433,59.9959781854,FEMA4ImagesEEG,001,200118,
AFNE01.JPG,AFNE01.JPG,AFNE01.JPG,AFNE01.JPG,AFNE01.JPG,AFNE01.JPG,,,,,3,3,33,2,,,,,,,,,,,,,,,,,,,AMSA17.jpg,AMNE12.jpg,AMNE19.jpg,AMSA16.jpg,AMNE19.jpg,MN,1,num_2,32,num_6,0.633451611269,,,2017_Apr_10_1433,59.9959781854,FEMA4ImagesEEG,001,200118,
AFNE01.JPG,AFNE01.JPG,AFNE01.JPG,AFNE01.JPG,AFNE01.JPG,AFNE01.JPG,,,,,3,4,34,9,,,,,,,,,,,,,,,,,,,AMNE10.jpg,AMSA02.jpg,AMNE01.jpg,AMSA09.jpg,AMNE01.jpg,MN,1,num_2,32,num_6,1.05010499409,,,2017_Apr_10_1433,59.9959781854,FEMA4ImagesEEG,001,200118,
AFNE01.JPG,AFNE01.JPG,AFNE01.JPG,AFNE01.JPG,AFNE01.JPG,AFNE01.JPG,,,,,3,5,35,1,,,,,,,,,,,,,,,,,,,AMSA10.jpg,AMNE03.jpg,AMNE19.jpg,AMSA11.jpg,AMSA10.jpg,MS,2,num_8,32,num_4,0.766680469271,,,2017_Apr_10_1433,59.9959781854,FEMA4ImagesEEG,001,200118,
AFNE01.JPG,AFNE01.JPG,AFNE01.JPG,AFNE01.JPG,AFNE01.JPG,AFNE01.JPG,,,,,3,6,36,8,,,,,,,,,,,,,,,,,,,AMNE04.jpg,AMSA04.jpg,AMNE19.jpg,AMSA05.jpg,AMSA04.jpg,MS,2,num_6,16,num_6,0.650126868626,,,2017_Apr_10_1433,59.9959781854,FEMA4ImagesEEG,001,200118,
AFNE01.JPG,AFNE01.JPG,AFNE01.JPG,AFNE01.JPG,AFNE01.JPG,AFNE01.JPG,,,,,3,7,37,7,,,,,,,,,,,,,,,,,,,AMNE11.jpg,AMSA07.jpg,AMSA09.jpg,AMNE16.jpg,AMSA09.jpg,MS,2,num_2,32,num_6,0.76674974896,,,2017_Apr_10_1433,59.9959781854,FEMA4ImagesEEG,001,200118,
AFNE01.JPG,AFNE01.JPG,AFNE01.JPG,AFNE01.JPG,AFNE01.JPG,AFNE01.JPG,,,,,3,8,38,4,,,,,,,,,,,,,,,,,,,AMNE04.jpg,AMNE09.jpg,AMSA10.jpg,AMSA19.jpg,AMSA10.jpg,MS,2,num_2,32,num_8,0.900107864756,,,2017_Apr_10_1433,59.9959781854,FEMA4ImagesEEG,001,200118,
AFNE01.JPG,AFNE01.JPG,AFNE01.JPG,AFNE01.JPG,AFNE01.JPG,AFNE01.JPG,,,,,3,9,39,5,,,,,,,,,,,,,,,,,,,AMSA14.jpg,AMNE12.jpg,AMSA04.jpg,AMNE08.jpg,AMNE08.jpg,MN,1,num_4,32,num_6,0.783445854206,,,2017_Apr_10_1433,59.9959781854,FEMA4ImagesEEG,001,200118,
AFNE01.JPG,AFNE01.JPG,AFNE01.JPG,AFNE01.JPG,AFNE01.JPG,AFNE01.JPG,,,,,4,0,40,6,,,,,,,,,,,,,,,,,,,AMSA09.jpg,AMSA03.jpg,AMNE12.jpg,AMNE16.jpg,AMSA09.jpg,MS,2,num_8,16,num_8,0.91679466865,,,2017_Apr_10_1433,59.9959781854,FEMA4ImagesEEG,001,200118,
AFNE01.JPG,AFNE01.JPG,AFNE01.JPG,AFNE01.JPG,AFNE01.JPG,AFNE01.JPG,,,,,4,1,41,7,,,,,,,,,,,,,,,,,,,AMNE01.jpg,AMNE13.jpg,AMSA13.jpg,AMSA14.jpg,AMNE13.jpg,MN,1,num_6,16,num_6,1.35004248191,,,2017_Apr_10_1433,59.9959781854,FEMA4ImagesEEG,001,200118,
AFNE01.JPG,AFNE01.JPG,AFNE01.JPG,AFNE01.JPG,AFNE01.JPG,AFNE01.JPG,,,,,4,2,42,5,,,,,,,,,,,,,,,,,,,AMSA09.jpg,AMNE04.jpg,AMNE09.jpg,AMSA08.jpg,AMSA08.jpg,MS,2,num_4,32,num_6,1.0334579621,,,2017_Apr_10_1433,59.9959781854,FEMA4ImagesEEG,001,200118,
AFNE01.JPG,AFNE01.JPG,AFNE01.JPG,AFNE01.JPG,AFNE01.JPG,AFNE01.JPG,,,,,4,3,43,1,,,,,,,,,,,,,,,,,,,AMNE16.jpg,AMNE11.jpg,AMSA03.jpg,AMSA14.jpg,AMSA03.jpg,MS,2,num_2,16,num_2,0.600019950187,,,2017_Apr_10_1433,59.9959781854,FEMA4ImagesEEG,001,200118,
AFNE01.JPG,AFNE01.JPG,AFNE01.JPG,AFNE01.JPG,AFNE01.JPG,AFNE01.JPG,,,,,4,4,44,8,,,,,,,,,,,,,,,,,,,AMNE15.jpg,AMSA16.jpg,AMNE04.jpg,AMSA18.jpg,AMSA16.jpg,MS,2,num_6,32,num_4,0.800086471485,,,2017_Apr_10_1433,59.9959781854,FEMA4ImagesEEG,001,200118,
AFNE01.JPG,AFNE01.JPG,AFNE01.JPG,AFNE01.JPG,AFNE01.JPG,AFNE01.JPG,,,,,4,5,45,4,,,,,,,,,,,,,,,,,,,AMNE10.jpg,AMNE01.jpg,AMSA05.jpg,AMSA02.jpg,AMNE10.jpg,MN,1,num_8,16,num_8,0.883473341586,,,2017_Apr_10_1433,59.9959781854,FEMA4ImagesEEG,001,200118,
AFNE01.JPG,AFNE01.JPG,AFNE01.JPG,AFNE01.JPG,AFNE01.JPG,AFNE01.JPG,,,,,4,6,46,2,,,,,,,,,,,,,,,,,,,AMSA08.jpg,AMSA18.jpg,AMNE19.jpg,AMNE20.jpg,AMNE20.jpg,MN,1,num_4,16,num_4,1.08348180912,,,2017_Apr_10_1433,59.9959781854,FEMA4ImagesEEG,001,200118,
AFNE01.JPG,AFNE01.JPG,AFNE01.JPG,AFNE01.JPG,AFNE01.JPG,AFNE01.JPG,,,,,4,7,47,0,,,,,,,,,,,,,,,,,,,AMNE04.jpg,AMSA06.jpg,AMNE15.jpg,AMSA11.jpg,AMNE15.jpg,MN,1,num_2,32,num_8,0.73344894941,,,2017_Apr_10_1433,59.9959781854,FEMA4ImagesEEG,001,200118,
AFNE01.JPG,AFNE01.JPG,AFNE01.JPG,AFNE01.JPG,AFNE01.JPG,AFNE01.JPG,,,,,4,8,48,9,,,,,,,,,,,,,,,,,,,AMNE16.jpg,AMSA06.jpg,AMSA07.jpg,AMNE13.jpg,AMSA06.jpg,MS,2,num_6,16,num_6,0.816831008298,,,2017_Apr_10_1433,59.9959781854,FEMA4ImagesEEG,001,200118,
AFNE01.JPG,AFNE01.JPG,AFNE01.JPG,AFNE01.JPG,AFNE01.JPG,AFNE01.JPG,,,,,4,9,49,3,,,,,,,,,,,,,,,,,,,AMSA13.jpg,AMNE05.jpg,AMSA04.jpg,AMNE10.jpg,AMNE05.jpg,MN,1,num_6,16,num_6,1.16677277815,,,2017_Apr_10_1433,59.9959781854,FEMA4ImagesEEG,001,200118,
AFNE01.JPG,AFNE01.JPG,AFNE01.JPG,AFNE01.JPG,AFNE01.JPG,AFNE01.JPG,,,,,5,0,50,6,,,,,,,,,,,,,,,,,,,AMSA02.jpg,AMNE01.jpg,AMSA13.jpg,AMNE14.jpg,AMNE14.jpg,MN,1,num_4,16,num_4,0.666974683758,,,2017_Apr_10_1433,59.9959781854,FEMA4ImagesEEG,001,200118,
AFNE01.JPG,AFNE01.JPG,AFNE01.JPG,AFNE01.JPG,AFNE01.JPG,AFNE01.JPG,,,,,5,1,51,7,,,,,,,,,,,,,,,,,,,AMSA05.jpg,AMNE09.jpg,AMSA08.jpg,AMNE11.jpg,AMSA08.jpg,MS,2,num_2,32,num_6,0.783456759294,,,2017_Apr_10_1433,59.9959781854,FEMA4ImagesEEG,001,200118,
AFNE01.JPG,AFNE01.JPG,AFNE01.JPG,AFNE01.JPG,AFNE01.JPG,AFNE01.JPG,,,,,5,2,52,8,,,,,,,,,,,,,,,,,,,AMSA12.jpg,AMNE20.jpg,AMSA15.jpg,AMNE04.jpg,AMSA12.jpg,MS,2,num_8,32,num_2,1.31672340026,,,2017_Apr_10_1433,59.9959781854,FEMA4ImagesEEG,001,200118,
AFNE01.JPG,AFNE01.JPG,AFNE01.JPG,AFNE01.JPG,AFNE01.JPG,AFNE01.JPG,,,,,5,3,53,2,,,,,,,,,,,,,,,,,,,AMNE05.jpg,AMNE02.jpg,AMSA13.jpg,AMSA11.jpg,AMSA13.jpg,MS,2,num_2,32,num_4,0.683442422422,,,2017_Apr_10_1433,59.9959781854,FEMA4ImagesEEG,001,200118,
AFNE01.JPG,AFNE01.JPG,AFNE01.JPG,AFNE01.JPG,AFNE01.JPG,AFNE01.JPG,,,,,5,4,54,5,,,,,,,,,,,,,,,,,,,AMSA04.jpg,AMNE15.jpg,AMSA12.jpg,AMNE17.jpg,AMNE15.jpg,MN,1,num_6,16,num_6,0.766745258588,,,2017_Apr_10_1433,59.9959781854,FEMA4ImagesEEG,001,200118,
AFNE01.JPG,AFNE01.JPG,AFNE01.JPG,AFNE01.JPG,AFNE01.JPG,AFNE01.JPG,,,,,5,5,55,3,,,,,,,,,,,,,,,,,,,AMNE01.jpg,AMSA08.jpg,AMNE15.jpg,AMSA16.jpg,AMNE15.jpg,MN,1,num_2,16,num_2,0.666794427903,,,2017_Apr_10_1433,59.9959781854,FEMA4ImagesEEG,001,200118,
AFNE01.JPG,AFNE01.JPG,AFNE01.JPG,AFNE01.JPG,AFNE01.JPG,AFNE01.JPG,,,,,5,6,56,0,,,,,,,,,,,,,,,,,,,AMNE04.jpg,AMNE15.jpg,AMSA03.jpg,AMSA11.jpg,AMSA03.jpg,MS,2,num_2,16,num_2,0.900146994973,,,2017_Apr_10_1433,59.9959781854,FEMA4ImagesEEG,001,200118,
AFNE01.JPG,AFNE01.JPG,AFNE01.JPG,AFNE01.JPG,AFNE01.JPG,AFNE01.JPG,,,,,5,7,57,9,,,,,,,,,,,,,,,,,,,AMNE17.jpg,AMSA12.jpg,AMSA09.jpg,AMNE06.jpg,AMNE06.jpg,MN,1,num_4,32,num_6,0.68345942162,,,2017_Apr_10_1433,59.9959781854,FEMA4ImagesEEG,001,200118,
AFNE01.JPG,AFNE01.JPG,AFNE01.JPG,AFNE01.JPG,AFNE01.JPG,AFNE01.JPG,,,,,5,8,58,1,,,,,,,,,,,,,,,,,,,AMNE20.jpg,AMNE09.jpg,AMSA05.jpg,AMSA02.jpg,AMNE09.jpg,MN,1,num_6,16,num_6,0.883446078748,,,2017_Apr_10_1433,59.9959781854,FEMA4ImagesEEG,001,200118,
AFNE01.JPG,AFNE01.JPG,AFNE01.JPG,AFNE01.JPG,AFNE01.JPG,AFNE01.JPG,,,,,5,9,59,4,,,,,,,,,,,,,,,,,,,AMSA11.jpg,AMSA15.jpg,AMNE05.jpg,AMNE11.jpg,AMSA11.jpg,MS,2,num_8,16,num_8,1.0667837793,,,2017_Apr_10_1433,59.9959781854,FEMA4ImagesEEG,001,200118,
,,,,,,,,,,,,,,,,,,,,,,,,,,,,,,,,,,,,,,,,,,,space,13.2321369636,2017_Apr_10_1433,59.9959781854,FEMA4ImagesEEG,001,200118,
AFNE01.JPG,AFNE01.JPG,AFNE01.JPG,AFNE01.JPG,AFNE01.JPG,AFNE01.JPG,,,,,,,,,0,0,0,6,,,,,,,,,,,,,,,AFNE11.jpg,AFNE03.jpg,AFSA07.jpg,AFSA02.jpg,AFNE11.jpg,FN,3,num_8,16,num_8,0.950126259122,,,2017_Apr_10_1433,59.9959781854,FEMA4ImagesEEG,001,200118,
AFNE01.JPG,AFNE01.JPG,AFNE01.JPG,AFNE01.JPG,AFNE01.JPG,AFNE01.JPG,,,,,,,,,0,1,1,9,,,,,,,,,,,,,,,AFNE03.jpg,AFNE02.jpg,AFSA07.jpg,AFSA08.jpg,AFSA07.jpg,FS,4,num_2,16,num_2,0.533543118509,,,2017_Apr_10_1433,59.9959781854,FEMA4ImagesEEG,001,200118,
AFNE01.JPG,AFNE01.JPG,AFNE01.JPG,AFNE01.JPG,AFNE01.JPG,AFNE01.JPG,,,,,,,,,0,2,2,1,,,,,,,,,,,,,,,AFSA14.jpg,AFNE13.jpg,AFNE05.jpg,AFSA06.jpg,AFSA14.jpg,FS,4,num_8,32,num_2,0.750203429256,,,2017_Apr_10_1433,59.9959781854,FEMA4ImagesEEG,001,200118,
AFNE01.JPG,AFNE01.JPG,AFNE01.JPG,AFNE01.JPG,AFNE01.JPG,AFNE01.JPG,,,,,,,,,0,3,3,2,,,,,,,,,,,,,,,AFNE13.jpg,AFSA08.jpg,AFSA01.jpg,AFNE09.jpg,AFSA01.jpg,FS,4,num_2,16,num_2,0.50042289542,,,2017_Apr_10_1433,59.9959781854,FEMA4ImagesEEG,001,200118,
AFNE01.JPG,AFNE01.JPG,AFNE01.JPG,AFNE01.JPG,AFNE01.JPG,AFNE01.JPG,,,,,,,,,0,4,4,3,,,,,,,,,,,,,,,AFSA05.jpg,AFNE14.jpg,AFNE10.jpg,AFSA04.jpg,AFNE14.jpg,FN,3,num_6,32,num_8,0.850114808884,,,2017_Apr_10_1433,59.9959781854,FEMA4ImagesEEG,001,200118,
AFNE01.JPG,AFNE01.JPG,AFNE01.JPG,AFNE01.JPG,AFNE01.JPG,AFNE01.JPG,,,,,,,,,0,5,5,8,,,,,,,,,,,,,,,AFNE07.jpg,AFNE20.jpg,AFSA13.jpg,AFSA01.jpg,AFSA13.jpg,FS,4,num_2,16,num_2,0.800187824992,,,2017_Apr_10_1433,59.9959781854,FEMA4ImagesEEG,001,200118,
AFNE01.JPG,AFNE01.JPG,AFNE01.JPG,AFNE01.JPG,AFNE01.JPG,AFNE01.JPG,,,,,,,,,0,6,6,0,,,,,,,,,,,,,,,AFNE06.jpg,AFNE14.jpg,AFSA15.jpg,AFSA18.jpg,AFNE14.jpg,FN,3,num_6,32,num_2,0.583499289583,,,2017_Apr_10_1433,59.9959781854,FEMA4ImagesEEG,001,200118,
AFNE01.JPG,AFNE01.JPG,AFNE01.JPG,AFNE01.JPG,AFNE01.JPG,AFNE01.JPG,,,,,,,,,0,7,7,5,,,,,,,,,,,,,,,AFSA11.jpg,AFNE18.jpg,AFNE06.jpg,AFSA04.jpg,AFNE06.jpg,FN,3,num_2,16,num_2,0.966746349121,,,2017_Apr_10_1433,59.9959781854,FEMA4ImagesEEG,001,200118,
AFNE01.JPG,AFNE01.JPG,AFNE01.JPG,AFNE01.JPG,AFNE01.JPG,AFNE01.JPG,,,,,,,,,0,8,8,7,,,,,,,,,,,,,,,AFNE17.jpg,AFSA14.jpg,AFSA08.jpg,AFNE10.jpg,AFNE17.jpg,FN,3,num_8,16,num_8,0.666777108097,,,2017_Apr_10_1433,59.9959781854,FEMA4ImagesEEG,001,200118,
AFNE01.JPG,AFNE01.JPG,AFNE01.JPG,AFNE01.JPG,AFNE01.JPG,AFNE01.JPG,,,,,,,,,0,9,9,4,,,,,,,,,,,,,,,AFSA07.jpg,AFSA16.jpg,AFNE17.jpg,AFNE07.jpg,AFSA07.jpg,FS,4,num_8,32,num_4,0.766767068999,,,2017_Apr_10_1433,59.9959781854,FEMA4ImagesEEG,001,200118,
AFNE01.JPG,AFNE01.JPG,AFNE01.JPG,AFNE01.JPG,AFNE01.JPG,AFNE01.JPG,,,,,,,,,1,0,10,9,,,,,,,,,,,,,,,AFSA10.jpg,AFNE09.jpg,AFSA20.jpg,AFNE07.jpg,AFSA20.jpg,FS,4,num_2,16,num_2,0.483479499584,,,2017_Apr_10_1433,59.9959781854,FEMA4ImagesEEG,001,200118,
AFNE01.JPG,AFNE01.JPG,AFNE01.JPG,AFNE01.JPG,AFNE01.JPG,AFNE01.JPG,,,,,,,,,1,1,11,6,,,,,,,,,,,,,,,AFNE17.jpg,AFNE03.jpg,AFSA11.jpg,AFSA09.jpg,AFSA11.jpg,FS,4,num_2,16,num_2,0.583536816062,,,2017_Apr_10_1433,59.9959781854,FEMA4ImagesEEG,001,200118,
AFNE01.JPG,AFNE01.JPG,AFNE01.JPG,AFNE01.JPG,AFNE01.JPG,AFNE01.JPG,,,,,,,,,1,2,12,4,,,,,,,,,,,,,,,AFSA09.jpg,AFNE15.jpg,AFSA19.jpg,AFNE04.jpg,AFNE04.jpg,FN,3,num_4,16,num_4,0.900162069825,,,2017_Apr_10_1433,59.9959781854,FEMA4ImagesEEG,001,200118,
AFNE01.JPG,AFNE01.JPG,AFNE01.JPG,AFNE01.JPG,AFNE01.JPG,AFNE01.JPG,,,,,,,,,1,3,13,1,,,,,,,,,,,,,,,AFNE09.jpg,AFSA13.jpg,AFSA16.jpg,AFNE01.jpg,AFSA13.jpg,FS,4,num_6,16,num_6,0.60012354888,,,2017_Apr_10_1433,59.9959781854,FEMA4ImagesEEG,001,200118,
AFNE01.JPG,AFNE01.JPG,AFNE01.JPG,AFNE01.JPG,AFNE01.JPG,AFNE01.JPG,,,,,,,,,1,4,14,7,,,,,,,,,,,,,,,AFNE12.jpg,AFSA11.jpg,AFSA04.jpg,AFNE19.jpg,AFSA11.jpg,FS,4,num_6,16,num_6,0.649996648077,,,2017_Apr_10_1433,59.9959781854,FEMA4ImagesEEG,001,200118,
AFNE01.JPG,AFNE01.JPG,AFNE01.JPG,AFNE01.JPG,AFNE01.JPG,AFNE01.JPG,,,,,,,,,1,5,15,2,,,,,,,,,,,,,,,AFSA08.jpg,AFSA17.jpg,AFNE12.jpg,AFNE11.jpg,AFNE11.jpg,FN,3,num_4,16,num_4,0.900151485344,,,2017_Apr_10_1433,59.9959781854,FEMA4ImagesEEG,001,200118,
AFNE01.JPG,AFNE01.JPG,AFNE01.JPG,AFNE01.JPG,AFNE01.JPG,AFNE01.JPG,,,,,,,,,1,6,16,0,,,,,,,,,,,,,,,AFNE01.jpg,AFSA14.jpg,AFNE04.jpg,AFSA17.jpg,AFSA17.jpg,FS,4,num_4,16,num_4,0.716739052441,,,2017_Apr_10_1433,59.9959781854,FEMA4ImagesEEG,001,200118,
AFNE01.JPG,AFNE01.JPG,AFNE01.JPG,AFNE01.JPG,AFNE01.JPG,AFNE01.JPG,,,,,,,,,1,7,17,5,,,,,,,,,,,,,,,AFNE14.jpg,AFSA17.jpg,AFNE06.jpg,AFSA02.jpg,AFNE06.jpg,FN,3,num_2,16,num_2,0.866764406674,,,2017_Apr_10_1433,59.9959781854,FEMA4ImagesEEG,001,200118,
AFNE01.JPG,AFNE01.JPG,AFNE01.JPG,AFNE01.JPG,AFNE01.JPG,AFNE01.JPG,,,,,,,,,1,8,18,8,,,,,,,,,,,,,,,AFSA11.jpg,AFNE17.jpg,AFNE01.jpg,AFSA20.jpg,AFNE17.jpg,FN,3,num_6,16,num_6,0.81673414493,,,2017_Apr_10_1433,59.9959781854,FEMA4ImagesEEG,001,200118,
AFNE01.JPG,AFNE01.JPG,AFNE01.JPG,AFNE01.JPG,AFNE01.JPG,AFNE01.JPG,,,,,,,,,1,9,19,3,,,,,,,,,,,,,,,AFNE16.jpg,AFSA02.jpg,AFNE07.jpg,AFSA07.jpg,AFSA02.jpg,FS,4,num_6,16,num_6,0.533496290445,,,2017_Apr_10_1433,59.9959781854,FEMA4ImagesEEG,001,200118,
AFNE01.JPG,AFNE01.JPG,AFNE01.JPG,AFNE01.JPG,AFNE01.JPG,AFNE01.JPG,,,,,,,,,2,0,20,5,,,,,,,,,,,,,,,AFSA02.jpg,AFNE04.jpg,AFNE03.jpg,AFSA17.jpg,AFNE04.jpg,FN,3,num_6,16,num_6,0.61665190733,,,2017_Apr_10_1433,59.9959781854,FEMA4ImagesEEG,001,200118,
AFNE01.JPG,AFNE01.JPG,AFNE01.JPG,AFNE01.JPG,AFNE01.JPG,AFNE01.JPG,,,,,,,,,2,1,21,9,,,,,,,,,,,,,,,AFNE11.jpg,AFSA03.jpg,AFNE01.jpg,AFSA18.jpg,AFNE11.jpg,FN,3,num_8,16,num_8,1.28326062718,,,2017_Apr_10_1433,59.9959781854,FEMA4ImagesEEG,001,200118,
AFNE01.JPG,AFNE01.JPG,AFNE01.JPG,AFNE01.JPG,AFNE01.JPG,AFNE01.JPG,,,,,,,,,2,2,22,1,,,,,,,,,,,,,,,AFSA20.jpg,AFNE17.jpg,AFSA04.jpg,AFNE16.jpg,AFSA04.jpg,FS,4,num_2,32,num_6,0.733476853697,,,2017_Apr_10_1433,59.9959781854,FEMA4ImagesEEG,001,200118,
AFNE01.JPG,AFNE01.JPG,AFNE01.JPG,AFNE01.JPG,AFNE01.JPG,AFNE01.JPG,,,,,,,,,2,3,23,3,,,,,,,,,,,,,,,AFNE13.jpg,AFSA05.jpg,AFNE06.jpg,AFSA18.jpg,AFSA18.jpg,FS,4,num_4,32,num_6,0.800095452229,,,2017_Apr_10_1433,59.9959781854,FEMA4ImagesEEG,001,200118,
AFNE01.JPG,AFNE01.JPG,AFNE01.JPG,AFNE01.JPG,AFNE01.JPG,AFNE01.JPG,,,,,,,,,2,4,24,4,,,,,,,,,,,,,,,AFSA04.jpg,AFNE03.jpg,AFNE08.jpg,AFSA20.jpg,AFNE03.jpg,FN,3,num_6,16,num_6,1.00012476766,,,2017_Apr_10_1433,59.9959781854,FEMA4ImagesEEG,001,200118,
AFNE01.JPG,AFNE01.JPG,AFNE01.JPG,AFNE01.JPG,AFNE01.JPG,AFNE01.JPG,,,,,,,,,2,5,25,8,,,,,,,,,,,,,,,AFSA06.jpg,AFSA05.jpg,AFNE18.jpg,AFNE10.jpg,AFNE10.jpg,FN,3,num_4,32,num_2,0.766645187745,,,2017_Apr_10_1433,59.9959781854,FEMA4ImagesEEG,001,200118,
AFNE01.JPG,AFNE01.JPG,AFNE01.JPG,AFNE01.JPG,AFNE01.JPG,AFNE01.JPG,,,,,,,,,2,6,26,0,,,,,,,,,,,,,,,AFNE15.jpg,AFSA15.jpg,AFSA02.jpg,AFNE17.jpg,AFSA15.jpg,FS,4,num_6,16,num_6,0.516755923163,,,2017_Apr_10_1433,59.9959781854,FEMA4ImagesEEG,001,200118,
AFNE01.JPG,AFNE01.JPG,AFNE01.JPG,AFNE01.JPG,AFNE01.JPG,AFNE01.JPG,,,,,,,,,2,7,27,2,,,,,,,,,,,,,,,AFSA14.jpg,AFNE12.jpg,AFSA06.jpg,AFNE15.jpg,AFSA14.jpg,FS,4,num_8,16,num_8,0.783593394561,,,2017_Apr_10_1433,59.9959781854,FEMA4ImagesEEG,001,200118,
AFNE01.JPG,AFNE01.JPG,AFNE01.JPG,AFNE01.JPG,AFNE01.JPG,AFNE01.JPG,,,,,,,,,2,8,28,7,,,,,,,,,,,,,,,AFNE06.jpg,AFNE01.jpg,AFSA14.jpg,AFSA02.jpg,AFNE06.jpg,FN,3,num_8,32,num_6,0.666768768802,,,2017_Apr_10_1433,59.9959781854,FEMA4ImagesEEG,001,200118,
AFNE01.JPG,AFNE01.JPG,AFNE01.JPG,AFNE01.JPG,AFNE01.JPG,AFNE01.JPG,,,,,,,,,2,9,29,6,,,,,,,,,,,,,,,AFNE06.jpg,AFNE14.jpg,AFSA16.jpg,AFSA07.jpg,AFSA07.jpg,FS,4,num_4,16,num_4,1.1334578658,,,2017_Apr_10_1433,59.9959781854,FEMA4ImagesEEG,001,200118,
AFNE01.JPG,AFNE01.JPG,AFNE01.JPG,AFNE01.JPG,AFNE01.JPG,AFNE01.JPG,,,,,,,,,3,0,30,2,,,,,,,,,,,,,,,AFNE01.jpg,AFNE16.jpg,AFSA13.jpg,AFSA18.jpg,AFSA18.jpg,FS,4,num_4,16,num_4,0.650165998843,,,2017_Apr_10_1433,59.9959781854,FEMA4ImagesEEG,001,200118,
AFNE01.JPG,AFNE01.JPG,AFNE01.JPG,AFNE01.JPG,AFNE01.JPG,AFNE01.JPG,,,,,,,,,3,1,31,8,,,,,,,,,,,,,,,AFSA05.jpg,AFSA11.jpg,AFNE01.jpg,AFNE09.jpg,AFNE09.jpg,FN,3,num_4,32,num_2,0.916768688476,,,2017_Apr_10_1433,59.9959781854,FEMA4ImagesEEG,001,200118,
AFNE01.JPG,AFNE01.JPG,AFNE01.JPG,AFNE01.JPG,AFNE01.JPG,AFNE01.JPG,,,,,,,,,3,2,32,0,,,,,,,,,,,,,,,AFSA20.jpg,AFSA10.jpg,AFNE17.jpg,AFNE18.jpg,AFSA20.jpg,FS,4,num_8,16,num_8,0.899806369329,,,2017_Apr_10_1433,59.9959781854,FEMA4ImagesEEG,001,200118,
AFNE01.JPG,AFNE01.JPG,AFNE01.JPG,AFNE01.JPG,AFNE01.JPG,AFNE01.JPG,,,,,,,,,3,3,33,1,,,,,,,,,,,,,,,AFSA05.jpg,AFSA18.jpg,AFNE15.jpg,AFNE17.jpg,AFSA05.jpg,FS,4,num_8,32,num_6,0.916772537399,,,2017_Apr_10_1433,59.9959781854,FEMA4ImagesEEG,001,200118,
AFNE01.JPG,AFNE01.JPG,AFNE01.JPG,AFNE01.JPG,AFNE01.JPG,AFNE01.JPG,,,,,,,,,3,4,34,4,,,,,,,,,,,,,,,AFSA05.jpg,AFNE10.jpg,AFSA01.jpg,AFNE03.jpg,AFSA05.jpg,FS,4,num_8,16,num_8,0.800077490741,,,2017_Apr_10_1433,59.9959781854,FEMA4ImagesEEG,001,200118,
AFNE01.JPG,AFNE01.JPG,AFNE01.JPG,AFNE01.JPG,AFNE01.JPG,AFNE01.JPG,,,,,,,,,3,5,35,6,,,,,,,,,,,,,,,AFSA18.jpg,AFSA04.jpg,AFNE17.jpg,AFNE20.jpg,AFSA18.jpg,FS,4,num_8,16,num_8,0.700178940548,,,2017_Apr_10_1433,59.9959781854,FEMA4ImagesEEG,001,200118,
AFNE01.JPG,AFNE01.JPG,AFNE01.JPG,AFNE01.JPG,AFNE01.JPG,AFNE01.JPG,,,,,,,,,3,6,36,3,,,,,,,,,,,,,,,AFSA18.jpg,AFNE09.jpg,AFNE16.jpg,AFSA07.jpg,AFSA18.jpg,FS,4,num_8,16,num_8,0.683601188241,,,2017_Apr_10_1433,59.9959781854,FEMA4ImagesEEG,001,200118,
AFNE01.JPG,AFNE01.JPG,AFNE01.JPG,AFNE01.JPG,AFNE01.JPG,AFNE01.JPG,,,,,,,,,3,7,37,9,,,,,,,,,,,,,,,AFNE17.jpg,AFSA16.jpg,AFNE03.jpg,AFSA03.jpg,AFNE17.jpg,FN,3,num_8,16,num_8,0.916780235246,,,2017_Apr_10_1433,59.9959781854,FEMA4ImagesEEG,001,200118,
AFNE01.JPG,AFNE01.JPG,AFNE01.JPG,AFNE01.JPG,AFNE01.JPG,AFNE01.JPG,,,,,,,,,3,8,38,7,,,,,,,,,,,,,,,AFNE14.jpg,AFNE13.jpg,AFSA14.jpg,AFSA07.jpg,AFSA14.jpg,FS,4,num_2,16,num_2,1.06677576085,,,2017_Apr_10_1433,59.9959781854,FEMA4ImagesEEG,001,200118,
AFNE01.JPG,AFNE01.JPG,AFNE01.JPG,AFNE01.JPG,AFNE01.JPG,AFNE01.JPG,,,,,,,,,3,9,39,5,,,,,,,,,,,,,,,AFNE16.jpg,AFNE19.jpg,AFSA14.jpg,AFSA15.jpg,AFSA14.jpg,FS,4,num_2,16,num_2,0.783452910371,,,2017_Apr_10_1433,59.9959781854,FEMA4ImagesEEG,001,200118,
AFNE01.JPG,AFNE01.JPG,AFNE01.JPG,AFNE01.JPG,AFNE01.JPG,AFNE01.JPG,,,,,,,,,4,0,40,9,,,,,,,,,,,,,,,AFNE17.jpg,AFSA14.jpg,AFSA10.jpg,AFNE08.jpg,AFNE17.jpg,FN,3,num_8,16,num_8,0.800145808142,,,2017_Apr_10_1433,59.9959781854,FEMA4ImagesEEG,001,200118,
AFNE01.JPG,AFNE01.JPG,AFNE01.JPG,AFNE01.JPG,AFNE01.JPG,AFNE01.JPG,,,,,,,,,4,1,41,2,,,,,,,,,,,,,,,AFNE20.jpg,AFSA01.jpg,AFSA09.jpg,AFNE19.jpg,AFSA01.jpg,FS,4,num_6,16,num_6,0.516811090289,,,2017_Apr_10_1433,59.9959781854,FEMA4ImagesEEG,001,200118,
AFNE01.JPG,AFNE01.JPG,AFNE01.JPG,AFNE01.JPG,AFNE01.JPG,AFNE01.JPG,,,,,,,,,4,2,42,1,,,,,,,,,,,,,,,AFNE03.jpg,AFNE14.jpg,AFSA08.jpg,AFSA18.jpg,AFNE03.jpg,FN,3,num_8,16,num_8,0.866770180175,,,2017_Apr_10_1433,59.9959781854,FEMA4ImagesEEG,001,200118,
AFNE01.JPG,AFNE01.JPG,AFNE01.JPG,AFNE01.JPG,AFNE01.JPG,AFNE01.JPG,,,,,,,,,4,3,43,0,,,,,,,,,,,,,,,AFNE06.jpg,AFSA07.jpg,AFNE17.jpg,AFSA11.jpg,AFNE17.jpg,FN,3,num_2,16,num_2,0.783494927222,,,2017_Apr_10_1433,59.9959781854,FEMA4ImagesEEG,001,200118,
AFNE01.JPG,AFNE01.JPG,AFNE01.JPG,AFNE01.JPG,AFNE01.JPG,AFNE01.JPG,,,,,,,,,4,4,44,5,,,,,,,,,,,,,,,AFSA12.jpg,AFNE20.jpg,AFSA17.jpg,AFNE05.jpg,AFSA12.jpg,FS,4,num_8,16,num_8,0.716908723582,,,2017_Apr_10_1433,59.9959781854,FEMA4ImagesEEG,001,200118,
AFNE01.JPG,AFNE01.JPG,AFNE01.JPG,AFNE01.JPG,AFNE01.JPG,AFNE01.JPG,,,,,,,,,4,5,45,4,,,,,,,,,,,,,,,AFSA18.jpg,AFNE18.jpg,AFSA20.jpg,AFNE02.jpg,AFSA18.jpg,FS,4,num_8,32,num_2,0.600197960623,,,2017_Apr_10_1433,59.9959781854,FEMA4ImagesEEG,001,200118,
AFNE01.JPG,AFNE01.JPG,AFNE01.JPG,AFNE01.JPG,AFNE01.JPG,AFNE01.JPG,,,,,,,,,4,6,46,8,,,,,,,,,,,,,,,AFNE17.jpg,AFNE01.jpg,AFSA12.jpg,AFSA10.jpg,AFNE01.jpg,FN,3,num_6,32,num_2,0.783467343543,,,2017_Apr_10_1433,59.9959781854,FEMA4ImagesEEG,001,200118,
AFNE01.JPG,AFNE01.JPG,AFNE01.JPG,AFNE01.JPG,AFNE01.JPG,AFNE01.JPG,,,,,,,,,4,7,47,7,,,,,,,,,,,,,,,AFSA03.jpg,AFNE01.jpg,AFNE11.jpg,AFSA02.jpg,AFSA03.jpg,FS,4,num_8,16,num_8,0.816971492255,,,2017_Apr_10_1433,59.9959781854,FEMA4ImagesEEG,001,200118,
AFNE01.JPG,AFNE01.JPG,AFNE01.JPG,AFNE01.JPG,AFNE01.JPG,AFNE01.JPG,,,,,,,,,4,8,48,6,,,,,,,,,,,,,,,AFSA01.jpg,AFNE04.jpg,AFSA18.jpg,AFNE15.jpg,AFSA18.jpg,FS,4,num_2,16,num_2,0.683458459098,,,2017_Apr_10_1433,59.9959781854,FEMA4ImagesEEG,001,200118,
AFNE01.JPG,AFNE01.JPG,AFNE01.JPG,AFNE01.JPG,AFNE01.JPG,AFNE01.JPG,,,,,,,,,4,9,49,3,,,,,,,,,,,,,,,AFSA13.jpg,AFSA11.jpg,AFNE20.jpg,AFNE11.jpg,AFNE20.jpg,FN,3,num_2,32,num_8,0.700107095065,,,2017_Apr_10_1433,59.9959781854,FEMA4ImagesEEG,001,200118,
AFNE01.JPG,AFNE01.JPG,AFNE01.JPG,AFNE01.JPG,AFNE01.JPG,AFNE01.JPG,,,,,,,,,5,0,50,5,,,,,,,,,,,,,,,AFNE17.jpg,AFSA17.jpg,AFSA20.jpg,AFNE18.jpg,AFNE17.jpg,FN,3,num_8,32,num_6,0.616802975535,,,2017_Apr_10_1433,59.9959781854,FEMA4ImagesEEG,001,200118,
AFNE01.JPG,AFNE01.JPG,AFNE01.JPG,AFNE01.JPG,AFNE01.JPG,AFNE01.JPG,,,,,,,,,5,1,51,2,,,,,,,,,,,,,,,AFNE10.jpg,AFNE12.jpg,AFSA09.jpg,AFSA01.jpg,AFNE12.jpg,FN,3,num_6,16,num_6,0.566795486258,,,2017_Apr_10_1433,59.9959781854,FEMA4ImagesEEG,001,200118,
AFNE01.JPG,AFNE01.JPG,AFNE01.JPG,AFNE01.JPG,AFNE01.JPG,AFNE01.JPG,,,,,,,,,5,2,52,0,,,,,,,,,,,,,,,AFNE06.jpg,AFNE07.jpg,AFSA06.jpg,AFSA02.jpg,AFNE06.jpg,FN,3,num_8,16,num_8,0.816780331312,,,2017_Apr_10_1433,59.9959781854,FEMA4ImagesEEG,001,200118,
AFNE01.JPG,AFNE01.JPG,AFNE01.JPG,AFNE01.JPG,AFNE01.JPG,AFNE01.JPG,,,,,,,,,5,3,53,3,,,,,,,,,,,,,,,AFSA18.jpg,AFSA16.jpg,AFNE06.jpg,AFNE20.jpg,AFSA16.jpg,FS,4,num_6,32,num_8,0.733448628569,,,2017_Apr_10_1433,59.9959781854,FEMA4ImagesEEG,001,200118,
AFNE01.JPG,AFNE01.JPG,AFNE01.JPG,AFNE01.JPG,AFNE01.JPG,AFNE01.JPG,,,,,,,,,5,4,54,8,,,,,,,,,,,,,,,AFSA01.jpg,AFSA10.jpg,AFNE03.jpg,AFNE09.jpg,AFNE09.jpg,FN,3,num_4,32,num_6,0.733461778844,,,2017_Apr_10_1433,59.9959781854,FEMA4ImagesEEG,001,200118,
AFNE01.JPG,AFNE01.JPG,AFNE01.JPG,AFNE01.JPG,AFNE01.JPG,AFNE01.JPG,,,,,,,,,5,5,55,9,,,,,,,,,,,,,,,AFNE03.jpg,AFSA07.jpg,AFSA19.jpg,AFNE07.jpg,AFSA19.jpg,FS,4,num_2,16,num_2,0.500258035026,,,2017_Apr_10_1433,59.9959781854,FEMA4ImagesEEG,001,200118,
AFNE01.JPG,AFNE01.JPG,AFNE01.JPG,AFNE01.JPG,AFNE01.JPG,AFNE01.JPG,,,,,,,,,5,6,56,4,,,,,,,,,,,,,,,AFNE13.jpg,AFSA06.jpg,AFSA11.jpg,AFNE07.jpg,AFNE13.jpg,FN,3,num_8,16,num_8,0.683512664167,,,2017_Apr_10_1433,59.9959781854,FEMA4ImagesEEG,001,200118,
AFNE01.JPG,AFNE01.JPG,AFNE01.JPG,AFNE01.JPG,AFNE01.JPG,AFNE01.JPG,,,,,,,,,5,7,57,1,,,,,,,,,,,,,,,AFNE15.jpg,AFNE16.jpg,AFSA04.jpg,AFSA17.jpg,AFSA17.jpg,FS,4,num_4,16,num_4,0.516749508446,,,2017_Apr_10_1433,59.9959781854,FEMA4ImagesEEG,001,200118,
AFNE01.JPG,AFNE01.JPG,AFNE01.JPG,AFNE01.JPG,AFNE01.JPG,AFNE01.JPG,,,,,,,,,5,8,58,7,,,,,,,,,,,,,,,AFNE01.jpg,AFNE19.jpg,AFSA18.jpg,AFSA19.jpg,AFNE01.jpg,FN,3,num_8,32,num_6,0.683460062835,,,2017_Apr_10_1433,59.9959781854,FEMA4ImagesEEG,001,200118,
AFNE01.JPG,AFNE01.JPG,AFNE01.JPG,AFNE01.JPG,AFNE01.JPG,AFNE01.JPG,,,,,,,,,5,9,59,6,,,,,,,,,,,,,,,AFSA04.jpg,AFNE05.jpg,AFNE12.jpg,AFSA05.jpg,AFNE05.jpg,FN,3,num_6,32,num_8,0.783472475596,,,2017_Apr_10_1433,59.9959781854,FEMA4ImagesEEG,001,200118,
,,,,,,,,,,,,,,,,,,,,,,,,,,,,,,,,,,,,,,,,,,,space,22.1319632188,2017_Apr_10_1433,59.9959781854,FEMA4ImagesEEG,001,200118,
AFNE01.JPG,AFNE01.JPG,AFNE01.JPG,AFNE01.JPG,AFNE01.JPG,AFNE01.JPG,,,,,,,,,,,,,0,0,0,7,,,,,,,,,,,AMSA19.jpg,AMNE12.jpg,AMNE18.jpg,AMSA10.jpg,AMNE18.jpg,MN,1,num_2,32,num_6,0.566755714826,,,2017_Apr_10_1433,59.9959781854,FEMA4ImagesEEG,001,200118,
AFNE01.JPG,AFNE01.JPG,AFNE01.JPG,AFNE01.JPG,AFNE01.JPG,AFNE01.JPG,,,,,,,,,,,,,0,1,1,9,,,,,,,,,,,AMSA09.jpg,AMSA04.jpg,AMNE01.jpg,AMNE12.jpg,AMNE01.jpg,MN,1,num_2,16,num_2,0.50012781471,,,2017_Apr_10_1433,59.9959781854,FEMA4ImagesEEG,001,200118,
AFNE01.JPG,AFNE01.JPG,AFNE01.JPG,AFNE01.JPG,AFNE01.JPG,AFNE01.JPG,,,,,,,,,,,,,0,2,2,2,,,,,,,,,,,AMSA19.jpg,AMNE20.jpg,AMNE18.jpg,AMSA01.jpg,AMSA01.jpg,MS,2,num_4,16,num_4,0.61676288303,,,2017_Apr_10_1433,59.9959781854,FEMA4ImagesEEG,001,200118,
AFNE01.JPG,AFNE01.JPG,AFNE01.JPG,AFNE01.JPG,AFNE01.JPG,AFNE01.JPG,,,,,,,,,,,,,0,3,3,5,,,,,,,,,,,AMNE09.jpg,AMSA19.jpg,AMNE16.jpg,AMSA15.jpg,AMNE16.jpg,MN,1,num_2,32,num_8,0.61681612581,,,2017_Apr_10_1433,59.9959781854,FEMA4ImagesEEG,001,200118,
AFNE01.JPG,AFNE01.JPG,AFNE01.JPG,AFNE01.JPG,AFNE01.JPG,AFNE01.JPG,,,,,,,,,,,,,0,4,4,3,,,,,,,,,,,AMNE02.jpg,AMSA12.jpg,AMSA05.jpg,AMNE18.jpg,AMNE18.jpg,MN,1,num_4,16,num_4,1.11677266588,,,2017_Apr_10_1433,59.9959781854,FEMA4ImagesEEG,001,200118,
AFNE01.JPG,AFNE01.JPG,AFNE01.JPG,AFNE01.JPG,AFNE01.JPG,AFNE01.JPG,,,,,,,,,,,,,0,5,5,6,,,,,,,,,,,AMSA10.jpg,AMNE01.jpg,AMSA14.jpg,AMNE18.jpg,AMSA10.jpg,MS,2,num_8,16,num_8,0.716791332699,,,2017_Apr_10_1433,59.9959781854,FEMA4ImagesEEG,001,200118,
AFNE01.JPG,AFNE01.JPG,AFNE01.JPG,AFNE01.JPG,AFNE01.JPG,AFNE01.JPG,,,,,,,,,,,,,0,6,6,4,,,,,,,,,,,AMNE12.jpg,AMSA14.jpg,AMNE20.jpg,AMSA20.jpg,AMNE20.jpg,MN,1,num_2,16,num_2,0.950207406189,,,2017_Apr_10_1433,59.9959781854,FEMA4ImagesEEG,001,200118,
AFNE01.JPG,AFNE01.JPG,AFNE01.JPG,AFNE01.JPG,AFNE01.JPG,AFNE01.JPG,,,,,,,,,,,,,0,7,7,0,,,,,,,,,,,AMNE20.jpg,AMSA15.jpg,AMSA01.jpg,AMNE17.jpg,AMSA15.jpg,MS,2,num_6,16,num_6,0.566739036236,,,2017_Apr_10_1433,59.9959781854,FEMA4ImagesEEG,001,200118,
AFNE01.JPG,AFNE01.JPG,AFNE01.JPG,AFNE01.JPG,AFNE01.JPG,AFNE01.JPG,,,,,,,,,,,,,0,8,8,1,,,,,,,,,,,AMNE02.jpg,AMNE15.jpg,AMSA02.jpg,AMSA01.jpg,AMNE02.jpg,MN,1,num_8,32,num_2,0.783458363032,,,2017_Apr_10_1433,59.9959781854,FEMA4ImagesEEG,001,200118,
AFNE01.JPG,AFNE01.JPG,AFNE01.JPG,AFNE01.JPG,AFNE01.JPG,AFNE01.JPG,,,,,,,,,,,,,0,9,9,8,,,,,,,,,,,AMNE15.jpg,AMSA04.jpg,AMSA10.jpg,AMNE03.jpg,AMSA04.jpg,MS,2,num_6,16,num_6,0.666822332423,,,2017_Apr_10_1433,59.9959781854,FEMA4ImagesEEG,001,200118,
AFNE01.JPG,AFNE01.JPG,AFNE01.JPG,AFNE01.JPG,AFNE01.JPG,AFNE01.JPG,,,,,,,,,,,,,1,0,10,1,,,,,,,,,,,AMNE13.jpg,AMSA06.jpg,AMSA03.jpg,AMNE01.jpg,AMSA03.jpg,MS,2,num_2,16,num_2,0.633467648411,,,2017_Apr_10_1433,59.9959781854,FEMA4ImagesEEG,001,200118,
AFNE01.JPG,AFNE01.JPG,AFNE01.JPG,AFNE01.JPG,AFNE01.JPG,AFNE01.JPG,,,,,,,,,,,,,1,1,11,7,,,,,,,,,,,AMSA20.jpg,AMSA18.jpg,AMNE14.jpg,AMNE17.jpg,AMSA18.jpg,MS,2,num_6,16,num_6,0.566791637568,,,2017_Apr_10_1433,59.9959781854,FEMA4ImagesEEG,001,200118,
AFNE01.JPG,AFNE01.JPG,AFNE01.JPG,AFNE01.JPG,AFNE01.JPG,AFNE01.JPG,,,,,,,,,,,,,1,2,12,9,,,,,,,,,,,AMNE02.jpg,AMSA18.jpg,AMSA20.jpg,AMNE18.jpg,AMSA20.jpg,MS,2,num_2,16,num_2,0.566779449582,,,2017_Apr_10_1433,59.9959781854,FEMA4ImagesEEG,001,200118,
AFNE01.JPG,AFNE01.JPG,AFNE01.JPG,AFNE01.JPG,AFNE01.JPG,AFNE01.JPG,,,,,,,,,,,,,1,3,13,3,,,,,,,,,,,AMNE10.jpg,AMSA05.jpg,AMNE06.jpg,AMSA16.jpg,AMSA05.jpg,MS,2,num_6,16,num_6,0.800126563758,,,2017_Apr_10_1433,59.9959781854,FEMA4ImagesEEG,001,200118,
AFNE01.JPG,AFNE01.JPG,AFNE01.JPG,AFNE01.JPG,AFNE01.JPG,AFNE01.JPG,,,,,,,,,,,,,1,4,14,5,,,,,,,,,,,AMSA14.jpg,AMNE18.jpg,AMSA11.jpg,AMNE17.jpg,AMSA14.jpg,MS,2,num_8,16,num_8,0.466825411422,,,2017_Apr_10_1433,59.9959781854,FEMA4ImagesEEG,001,200118,
AFNE01.JPG,AFNE01.JPG,AFNE01.JPG,AFNE01.JPG,AFNE01.JPG,AFNE01.JPG,,,,,,,,,,,,,1,5,15,4,,,,,,,,,,,AMNE14.jpg,AMNE06.jpg,AMSA08.jpg,AMSA03.jpg,AMNE14.jpg,MN,1,num_8,16,num_8,0.750176487025,,,2017_Apr_10_1433,59.9959781854,FEMA4ImagesEEG,001,200118,
AFNE01.JPG,AFNE01.JPG,AFNE01.JPG,AFNE01.JPG,AFNE01.JPG,AFNE01.JPG,,,,,,,,,,,,,1,6,16,8,,,,,,,,,,,AMNE12.jpg,AMSA13.jpg,AMNE17.jpg,AMSA01.jpg,AMSA01.jpg,MS,2,num_4,16,num_4,0.666658434318,,,2017_Apr_10_1433,59.9959781854,FEMA4ImagesEEG,001,200118,
AFNE01.JPG,AFNE01.JPG,AFNE01.JPG,AFNE01.JPG,AFNE01.JPG,AFNE01.JPG,,,,,,,,,,,,,1,7,17,0,,,,,,,,,,,AMSA08.jpg,AMSA16.jpg,AMNE19.jpg,AMNE12.jpg,AMSA16.jpg,MS,2,num_6,16,num_6,0.600196998334,,,2017_Apr_10_1433,59.9959781854,FEMA4ImagesEEG,001,200118,
AFNE01.JPG,AFNE01.JPG,AFNE01.JPG,AFNE01.JPG,AFNE01.JPG,AFNE01.JPG,,,,,,,,,,,,,1,8,18,6,,,,,,,,,,,AMSA14.jpg,AMNE19.jpg,AMSA06.jpg,AMNE01.jpg,AMNE01.jpg,MN,1,num_4,32,num_8,1.20012393384,,,2017_Apr_10_1433,59.9959781854,FEMA4ImagesEEG,001,200118,
AFNE01.JPG,AFNE01.JPG,AFNE01.JPG,AFNE01.JPG,AFNE01.JPG,AFNE01.JPG,,,,,,,,,,,,,1,9,19,2,,,,,,,,,,,AMNE20.jpg,AMSA03.jpg,AMSA16.jpg,AMNE13.jpg,AMSA16.jpg,MS,2,num_2,16,num_2,0.750120037002,,,2017_Apr_10_1433,59.9959781854,FEMA4ImagesEEG,001,200118,
AFNE01.JPG,AFNE01.JPG,AFNE01.JPG,AFNE01.JPG,AFNE01.JPG,AFNE01.JPG,,,,,,,,,,,,,2,0,20,0,,,,,,,,,,,AMSA14.jpg,AMNE01.jpg,AMSA04.jpg,AMNE03.jpg,AMSA14.jpg,MS,2,num_8,16,num_8,0.749969289172,,,2017_Apr_10_1433,59.9959781854,FEMA4ImagesEEG,001,200118,
AFNE01.JPG,AFNE01.JPG,AFNE01.JPG,AFNE01.JPG,AFNE01.JPG,AFNE01.JPG,,,,,,,,,,,,,2,1,21,2,,,,,,,,,,,AMNE07.jpg,AMSA01.jpg,AMSA20.jpg,AMNE01.jpg,AMNE07.jpg,MN,1,num_8,16,num_8,0.566780091031,,,2017_Apr_10_1433,59.9959781854,FEMA4ImagesEEG,001,200118,
AFNE01.JPG,AFNE01.JPG,AFNE01.JPG,AFNE01.JPG,AFNE01.JPG,AFNE01.JPG,,,,,,,,,,,,,2,2,22,7,,,,,,,,,,,AMSA18.jpg,AMNE14.jpg,AMSA06.jpg,AMNE08.jpg,AMNE08.jpg,MN,1,num_4,16,num_4,1.10012082267,,,2017_Apr_10_1433,59.9959781854,FEMA4ImagesEEG,001,200118,
AFNE01.JPG,AFNE01.JPG,AFNE01.JPG,AFNE01.JPG,AFNE01.JPG,AFNE01.JPG,,,,,,,,,,,,,2,3,23,9,,,,,,,,,,,AMNE03.jpg,AMSA05.jpg,AMNE13.jpg,AMSA08.jpg,AMSA08.jpg,MS,2,num_4,16,num_4,0.600191545673,,,2017_Apr_10_1433,59.9959781854,FEMA4ImagesEEG,001,200118,
AFNE01.JPG,AFNE01.JPG,AFNE01.JPG,AFNE01.JPG,AFNE01.JPG,AFNE01.JPG,,,,,,,,,,,,,2,4,24,5,,,,,,,,,,,AMNE04.jpg,AMSA14.jpg,AMSA07.jpg,AMNE19.jpg,AMSA14.jpg,MS,2,num_6,16,num_6,0.833444362739,,,2017_Apr_10_1433,59.9959781854,FEMA4ImagesEEG,001,200118,
AFNE01.JPG,AFNE01.JPG,AFNE01.JPG,AFNE01.JPG,AFNE01.JPG,AFNE01.JPG,,,,,,,,,,,,,2,5,25,6,,,,,,,,,,,AMSA02.jpg,AMNE14.jpg,AMNE10.jpg,AMSA20.jpg,AMNE14.jpg,MN,1,num_6,16,num_6,0.766771879978,,,2017_Apr_10_1433,59.9959781854,FEMA4ImagesEEG,001,200118,
AFNE01.JPG,AFNE01.JPG,AFNE01.JPG,AFNE01.JPG,AFNE01.JPG,AFNE01.JPG,,,,,,,,,,,,,2,6,26,3,,,,,,,,,,,AMNE13.jpg,AMNE18.jpg,AMSA03.jpg,AMSA09.jpg,AMSA09.jpg,MS,2,num_4,32,num_8,0.750103037804,,,2017_Apr_10_1433,59.9959781854,FEMA4ImagesEEG,001,200118,
AFNE01.JPG,AFNE01.JPG,AFNE01.JPG,AFNE01.JPG,AFNE01.JPG,AFNE01.JPG,,,,,,,,,,,,,2,7,27,4,,,,,,,,,,,AMSA05.jpg,AMNE10.jpg,AMNE20.jpg,AMSA08.jpg,AMNE10.jpg,MN,1,num_6,32,num_4,0.883270634105,,,2017_Apr_10_1433,59.9959781854,FEMA4ImagesEEG,001,200118,
AFNE01.JPG,AFNE01.JPG,AFNE01.JPG,AFNE01.JPG,AFNE01.JPG,AFNE01.JPG,,,,,,,,,,,,,2,8,28,1,,,,,,,,,,,AMNE16.jpg,AMSA17.jpg,AMNE17.jpg,AMSA19.jpg,AMNE17.jpg,MN,1,num_2,32,num_6,0.650091266492,,,2017_Apr_10_1433,59.9959781854,FEMA4ImagesEEG,001,200118,
AFNE01.JPG,AFNE01.JPG,AFNE01.JPG,AFNE01.JPG,AFNE01.JPG,AFNE01.JPG,,,,,,,,,,,,,2,9,29,8,,,,,,,,,,,AMSA01.jpg,AMSA04.jpg,AMNE06.jpg,AMNE19.jpg,AMSA04.jpg,MS,2,num_6,16,num_6,0.56673807418,,,2017_Apr_10_1433,59.9959781854,FEMA4ImagesEEG,001,200118,
AFNE01.JPG,AFNE01.JPG,AFNE01.JPG,AFNE01.JPG,AFNE01.JPG,AFNE01.JPG,,,,,,,,,,,,,3,0,30,4,,,,,,,,,,,AMNE20.jpg,AMNE11.jpg,AMSA11.jpg,AMSA04.jpg,AMNE11.jpg,MN,1,num_6,16,num_6,0.750134790782,,,2017_Apr_10_1433,59.9959781854,FEMA4ImagesEEG,001,200118,
AFNE01.JPG,AFNE01.JPG,AFNE01.JPG,AFNE01.JPG,AFNE01.JPG,AFNE01.JPG,,,,,,,,,,,,,3,1,31,9,,,,,,,,,,,AMSA18.jpg,AMNE17.jpg,AMNE05.jpg,AMSA11.jpg,AMNE05.jpg,MN,1,num_2,32,num_6,0.600154019194,,,2017_Apr_10_1433,59.9959781854,FEMA4ImagesEEG,001,200118,
AFNE01.JPG,AFNE01.JPG,AFNE01.JPG,AFNE01.JPG,AFNE01.JPG,AFNE01.JPG,,,,,,,,,,,,,3,2,32,2,,,,,,,,,,,AMSA03.jpg,AMNE14.jpg,AMSA01.jpg,AMNE13.jpg,AMNE14.jpg,MN,1,num_6,16,num_6,0.633440385573,,,2017_Apr_10_1433,59.9959781854,FEMA4ImagesEEG,001,200118,
AFNE01.JPG,AFNE01.JPG,AFNE01.JPG,AFNE01.JPG,AFNE01.JPG,AFNE01.JPG,,,,,,,,,,,,,3,3,33,5,,,,,,,,,,,AMSA14.jpg,AMSA17.jpg,AMNE16.jpg,AMNE13.jpg,AMSA17.jpg,MS,2,num_6,16,num_6,0.766800425714,,,2017_Apr_10_1433,59.9959781854,FEMA4ImagesEEG,001,200118,
AFNE01.JPG,AFNE01.JPG,AFNE01.JPG,AFNE01.JPG,AFNE01.JPG,AFNE01.JPG,,,,,,,,,,,,,3,4,34,8,,,,,,,,,,,AMNE05.jpg,AMSA13.jpg,AMNE14.jpg,AMSA04.jpg,AMNE05.jpg,MN,1,num_8,16,num_8,0.566669114865,,,2017_Apr_10_1433,59.9959781854,FEMA4ImagesEEG,001,200118,
AFNE01.JPG,AFNE01.JPG,AFNE01.JPG,AFNE01.JPG,AFNE01.JPG,AFNE01.JPG,,,,,,,,,,,,,3,5,35,1,,,,,,,,,,,AMSA13.jpg,AMSA17.jpg,AMNE19.jpg,AMNE09.jpg,AMNE09.jpg,MN,1,num_4,32,num_8,0.666611927096,,,2017_Apr_10_1433,59.9959781854,FEMA4ImagesEEG,001,200118,
AFNE01.JPG,AFNE01.JPG,AFNE01.JPG,AFNE01.JPG,AFNE01.JPG,AFNE01.JPG,,,,,,,,,,,,,3,6,36,0,,,,,,,,,,,AMSA13.jpg,AMNE13.jpg,AMSA04.jpg,AMNE05.jpg,AMSA13.jpg,MS,2,num_8,32,num_6,0.633783897851,,,2017_Apr_10_1433,59.9959781854,FEMA4ImagesEEG,001,200118,
AFNE01.JPG,AFNE01.JPG,AFNE01.JPG,AFNE01.JPG,AFNE01.JPG,AFNE01.JPG,,,,,,,,,,,,,3,7,37,3,,,,,,,,,,,AMNE19.jpg,AMNE02.jpg,AMSA12.jpg,AMSA06.jpg,AMNE02.jpg,MN,1,num_6,32,num_8,0.650142584927,,,2017_Apr_10_1433,59.9959781854,FEMA4ImagesEEG,001,200118,
AFNE01.JPG,AFNE01.JPG,AFNE01.JPG,AFNE01.JPG,AFNE01.JPG,AFNE01.JPG,,,,,,,,,,,,,3,8,38,6,,,,,,,,,,,AMNE13.jpg,AMSA06.jpg,AMNE12.jpg,AMSA09.jpg,AMSA06.jpg,MS,2,num_6,16,num_6,0.916779593797,,,2017_Apr_10_1433,59.9959781854,FEMA4ImagesEEG,001,200118,
AFNE01.JPG,AFNE01.JPG,AFNE01.JPG,AFNE01.JPG,AFNE01.JPG,AFNE01.JPG,,,,,,,,,,,,,3,9,39,7,,,,,,,,,,,AMSA13.jpg,AMSA11.jpg,AMNE18.jpg,AMNE19.jpg,AMNE19.jpg,MN,1,num_4,32,num_8,0.683433441678,,,2017_Apr_10_1433,59.9959781854,FEMA4ImagesEEG,001,200118,
AFNE01.JPG,AFNE01.JPG,AFNE01.JPG,AFNE01.JPG,AFNE01.JPG,AFNE01.JPG,,,,,,,,,,,,,4,0,40,6,,,,,,,,,,,AMNE03.jpg,AMSA03.jpg,AMSA09.jpg,AMNE19.jpg,AMSA03.jpg,MS,2,num_6,32,num_2,1.06679051509,,,2017_Apr_10_1433,59.9959781854,FEMA4ImagesEEG,001,200118,
AFNE01.JPG,AFNE01.JPG,AFNE01.JPG,AFNE01.JPG,AFNE01.JPG,AFNE01.JPG,,,,,,,,,,,,,4,1,41,5,,,,,,,,,,,AMSA13.jpg,AMNE01.jpg,AMNE16.jpg,AMSA18.jpg,AMNE16.jpg,MN,1,num_2,16,num_2,0.933451643446,,,2017_Apr_10_1433,59.9959781854,FEMA4ImagesEEG,001,200118,
AFNE01.JPG,AFNE01.JPG,AFNE01.JPG,AFNE01.JPG,AFNE01.JPG,AFNE01.JPG,,,,,,,,,,,,,4,2,42,0,,,,,,,,,,,AMSA11.jpg,AMNE07.jpg,AMSA14.jpg,AMNE10.jpg,AMSA11.jpg,MS,2,num_8,16,num_8,0.633486893028,,,2017_Apr_10_1433,59.9959781854,FEMA4ImagesEEG,001,200118,
AFNE01.JPG,AFNE01.JPG,AFNE01.JPG,AFNE01.JPG,AFNE01.JPG,AFNE01.JPG,,,,,,,,,,,,,4,3,43,2,,,,,,,,,,,AMNE04.jpg,AMNE03.jpg,AMSA16.jpg,AMSA12.jpg,AMNE04.jpg,MN,1,num_8,32,num_6,0.783355084714,,,2017_Apr_10_1433,59.9959781854,FEMA4ImagesEEG,001,200118,
AFNE01.JPG,AFNE01.JPG,AFNE01.JPG,AFNE01.JPG,AFNE01.JPG,AFNE01.JPG,,,,,,,,,,,,,4,4,44,1,,,,,,,,,,,AMSA11.jpg,AMNE08.jpg,AMSA12.jpg,AMNE02.jpg,AMSA12.jpg,MS,2,num_2,32,num_6,0.483480782714,,,2017_Apr_10_1433,59.9959781854,FEMA4ImagesEEG,001,200118,
AFNE01.JPG,AFNE01.JPG,AFNE01.JPG,AFNE01.JPG,AFNE01.JPG,AFNE01.JPG,,,,,,,,,,,,,4,5,45,8,,,,,,,,,,,AMNE13.jpg,AMSA20.jpg,AMSA02.jpg,AMNE11.jpg,AMSA20.jpg,MS,2,num_6,16,num_6,0.533515534829,,,2017_Apr_10_1433,59.9959781854,FEMA4ImagesEEG,001,200118,
AFNE01.JPG,AFNE01.JPG,AFNE01.JPG,AFNE01.JPG,AFNE01.JPG,AFNE01.JPG,,,,,,,,,,,,,4,6,46,7,,,,,,,,,,,AMSA12.jpg,AMNE14.jpg,AMNE12.jpg,AMSA06.jpg,AMNE12.jpg,MN,1,num_2,32,num_8,0.883429400157,,,2017_Apr_10_1433,59.9959781854,FEMA4ImagesEEG,001,200118,
AFNE01.JPG,AFNE01.JPG,AFNE01.JPG,AFNE01.JPG,AFNE01.JPG,AFNE01.JPG,,,,,,,,,,,,,4,7,47,3,,,,,,,,,,,AMNE20.jpg,AMSA07.jpg,AMNE08.jpg,AMSA16.jpg,AMSA07.jpg,MS,2,num_6,32,num_2,1.26674445672,,,2017_Apr_10_1433,59.9959781854,FEMA4ImagesEEG,001,200118,
AFNE01.JPG,AFNE01.JPG,AFNE01.JPG,AFNE01.JPG,AFNE01.JPG,AFNE01.JPG,,,,,,,,,,,,,4,8,48,4,,,,,,,,,,,AMSA15.jpg,AMNE12.jpg,AMNE07.jpg,AMSA10.jpg,AMSA15.jpg,MS,2,num_8,16,num_8,0.966795742977,,,2017_Apr_10_1433,59.9959781854,FEMA4ImagesEEG,001,200118,
AFNE01.JPG,AFNE01.JPG,AFNE01.JPG,AFNE01.JPG,AFNE01.JPG,AFNE01.JPG,,,,,,,,,,,,,4,9,49,9,,,,,,,,,,,AMSA14.jpg,AMSA09.jpg,AMNE11.jpg,AMNE15.jpg,AMNE15.jpg,MN,1,num_4,32,num_2,1.13325547893,,,2017_Apr_10_1433,59.9959781854,FEMA4ImagesEEG,001,200118,
AFNE01.JPG,AFNE01.JPG,AFNE01.JPG,AFNE01.JPG,AFNE01.JPG,AFNE01.JPG,,,,,,,,,,,,,5,0,50,4,,,,,,,,,,,AMSA07.jpg,AMSA20.jpg,AMNE14.jpg,AMNE20.jpg,AMSA20.jpg,MS,2,num_6,16,num_6,0.983238463756,,,2017_Apr_10_1433,59.9959781854,FEMA4ImagesEEG,001,200118,
AFNE01.JPG,AFNE01.JPG,AFNE01.JPG,AFNE01.JPG,AFNE01.JPG,AFNE01.JPG,,,,,,,,,,,,,5,1,51,1,,,,,,,,,,,AMNE20.jpg,AMSA16.jpg,AMSA07.jpg,AMNE01.jpg,AMNE20.jpg,MN,1,num_8,32,num_6,1.18341692351,,,2017_Apr_10_1433,59.9959781854,FEMA4ImagesEEG,001,200118,
AFNE01.JPG,AFNE01.JPG,AFNE01.JPG,AFNE01.JPG,AFNE01.JPG,AFNE01.JPG,,,,,,,,,,,,,5,2,52,8,,,,,,,,,,,AMNE09.jpg,AMSA11.jpg,AMSA19.jpg,AMNE10.jpg,AMSA19.jpg,MS,2,num_2,16,num_2,1.3667363422,,,2017_Apr_10_1433,59.9959781854,FEMA4ImagesEEG,001,200118,
AFNE01.JPG,AFNE01.JPG,AFNE01.JPG,AFNE01.JPG,AFNE01.JPG,AFNE01.JPG,,,,,,,,,,,,,5,3,53,3,,,,,,,,,,,AMNE15.jpg,AMSA14.jpg,AMNE04.jpg,AMSA11.jpg,AMNE04.jpg,MN,1,num_2,16,num_2,0.700132112717,,,2017_Apr_10_1433,59.9959781854,FEMA4ImagesEEG,001,200118,
AFNE01.JPG,AFNE01.JPG,AFNE01.JPG,AFNE01.JPG,AFNE01.JPG,AFNE01.JPG,,,,,,,,,,,,,5,4,54,2,,,,,,,,,,,AMNE18.jpg,AMSA13.jpg,AMSA16.jpg,AMNE12.jpg,AMSA16.jpg,MS,2,num_2,32,num_6,0.650164395105,,,2017_Apr_10_1433,59.9959781854,FEMA4ImagesEEG,001,200118,
AFNE01.JPG,AFNE01.JPG,AFNE01.JPG,AFNE01.JPG,AFNE01.JPG,AFNE01.JPG,,,,,,,,,,,,,5,5,55,5,,,,,,,,,,,AMSA16.jpg,AMNE03.jpg,AMSA05.jpg,AMNE10.jpg,AMSA16.jpg,MS,2,num_8,32,num_2,0.616783089703,,,2017_Apr_10_1433,59.9959781854,FEMA4ImagesEEG,001,200118,
AFNE01.JPG,AFNE01.JPG,AFNE01.JPG,AFNE01.JPG,AFNE01.JPG,AFNE01.JPG,,,,,,,,,,,,,5,6,56,9,,,,,,,,,,,AMSA07.jpg,AMNE06.jpg,AMSA10.jpg,AMNE13.jpg,AMSA07.jpg,MS,2,num_8,16,num_8,0.733338935534,,,2017_Apr_10_1433,59.9959781854,FEMA4ImagesEEG,001,200118,
AFNE01.JPG,AFNE01.JPG,AFNE01.JPG,AFNE01.JPG,AFNE01.JPG,AFNE01.JPG,,,,,,,,,,,,,5,7,57,7,,,,,,,,,,,AMNE03.jpg,AMSA12.jpg,AMNE02.jpg,AMSA17.jpg,AMNE03.jpg,MN,1,num_8,16,num_8,0.750122923637,,,2017_Apr_10_1433,59.9959781854,FEMA4ImagesEEG,001,200118,
AFNE01.JPG,AFNE01.JPG,AFNE01.JPG,AFNE01.JPG,AFNE01.JPG,AFNE01.JPG,,,,,,,,,,,,,5,8,58,0,,,,,,,,,,,AMNE01.jpg,AMNE04.jpg,AMSA05.jpg,AMSA14.jpg,AMNE01.jpg,MN,1,num_8,32,num_6,0.783470871858,,,2017_Apr_10_1433,59.9959781854,FEMA4ImagesEEG,001,200118,
AFNE01.JPG,AFNE01.JPG,AFNE01.JPG,AFNE01.JPG,AFNE01.JPG,AFNE01.JPG,,,,,,,,,,,,,5,9,59,6,,,,,,,,,,,AMSA12.jpg,AMSA07.jpg,AMNE04.jpg,AMNE19.jpg,AMSA07.jpg,MS,2,num_6,16,num_6,0.516855994007,,,2017_Apr_10_1433,59.9959781854,FEMA4ImagesEEG,001,200118,
,,,,,,,,,,,,,,,,,,,,,,,,,,,,,,,,,,,,,,,,,,,space,13.4655459807,2017_Apr_10_1433,59.9959781854,FEMA4ImagesEEG,001,200118,
AFNE01.JPG,AFNE01.JPG,AFNE01.JPG,AFNE01.JPG,AFNE01.JPG,AFNE01.JPG,,,,,,,,,,,,,,,,,0,0,0,4,,,,,,,AFNE14.jpg,AFNE15.jpg,AFSA14.jpg,AFSA09.jpg,AFSA14.jpg,FS,4,num_2,16,num_2,0.866832082858,,,2017_Apr_10_1433,59.9959781854,FEMA4ImagesEEG,001,200118,
AFNE01.JPG,AFNE01.JPG,AFNE01.JPG,AFNE01.JPG,AFNE01.JPG,AFNE01.JPG,,,,,,,,,,,,,,,,,0,1,1,3,,,,,,,AFSA10.jpg,AFNE07.jpg,AFNE10.jpg,AFSA09.jpg,AFSA09.jpg,FS,4,num_4,32,num_8,0.866937285522,,,2017_Apr_10_1433,59.9959781854,FEMA4ImagesEEG,001,200118,
AFNE01.JPG,AFNE01.JPG,AFNE01.JPG,AFNE01.JPG,AFNE01.JPG,AFNE01.JPG,,,,,,,,,,,,,,,,,0,2,2,8,,,,,,,AFNE03.jpg,AFNE10.jpg,AFSA07.jpg,AFSA14.jpg,AFSA14.jpg,FS,4,num_4,32,num_8,0.633465403225,,,2017_Apr_10_1433,59.9959781854,FEMA4ImagesEEG,001,200118,
AFNE01.JPG,AFNE01.JPG,AFNE01.JPG,AFNE01.JPG,AFNE01.JPG,AFNE01.JPG,,,,,,,,,,,,,,,,,0,3,3,5,,,,,,,AFSA15.jpg,AFNE08.jpg,AFSA09.jpg,AFNE02.jpg,AFSA09.jpg,FS,4,num_2,16,num_2,0.733470118139,,,2017_Apr_10_1433,59.9959781854,FEMA4ImagesEEG,001,200118,
AFNE01.JPG,AFNE01.JPG,AFNE01.JPG,AFNE01.JPG,AFNE01.JPG,AFNE01.JPG,,,,,,,,,,,,,,,,,0,4,4,2,,,,,,,AFSA17.jpg,AFSA01.jpg,AFNE08.jpg,AFNE01.jpg,AFNE01.jpg,FN,3,num_4,32,num_2,0.950115354033,,,2017_Apr_10_1433,59.9959781854,FEMA4ImagesEEG,001,200118,
AFNE01.JPG,AFNE01.JPG,AFNE01.JPG,AFNE01.JPG,AFNE01.JPG,AFNE01.JPG,,,,,,,,,,,,,,,,,0,5,5,7,,,,,,,AFNE01.jpg,AFSA10.jpg,AFSA08.jpg,AFNE16.jpg,AFNE16.jpg,FN,3,num_4,32,num_8,0.950094185304,,,2017_Apr_10_1433,59.9959781854,FEMA4ImagesEEG,001,200118,
AFNE01.JPG,AFNE01.JPG,AFNE01.JPG,AFNE01.JPG,AFNE01.JPG,AFNE01.JPG,,,,,,,,,,,,,,,,,0,6,6,1,,,,,,,AFNE16.jpg,AFSA14.jpg,AFNE19.jpg,AFSA12.jpg,AFSA12.jpg,FS,4,num_4,16,num_4,0.650124944048,,,2017_Apr_10_1433,59.9959781854,FEMA4ImagesEEG,001,200118,
AFNE01.JPG,AFNE01.JPG,AFNE01.JPG,AFNE01.JPG,AFNE01.JPG,AFNE01.JPG,,,,,,,,,,,,,,,,,0,7,7,6,,,,,,,AFNE20.jpg,AFSA12.jpg,AFSA15.jpg,AFNE14.jpg,AFSA12.jpg,FS,4,num_6,16,num_6,0.583481328096,,,2017_Apr_10_1433,59.9959781854,FEMA4ImagesEEG,001,200118,
AFNE01.JPG,AFNE01.JPG,AFNE01.JPG,AFNE01.JPG,AFNE01.JPG,AFNE01.JPG,,,,,,,,,,,,,,,,,0,8,8,0,,,,,,,AFNE11.jpg,AFSA01.jpg,AFNE01.jpg,AFSA12.jpg,AFNE01.jpg,FN,3,num_2,32,num_8,0.783462532563,,,2017_Apr_10_1433,59.9959781854,FEMA4ImagesEEG,001,200118,
AFNE01.JPG,AFNE01.JPG,AFNE01.JPG,AFNE01.JPG,AFNE01.JPG,AFNE01.JPG,,,,,,,,,,,,,,,,,0,9,9,9,,,,,,,AFNE18.jpg,AFSA13.jpg,AFNE04.jpg,AFSA03.jpg,AFNE18.jpg,FN,3,num_8,16,num_8,0.950204840396,,,2017_Apr_10_1433,59.9959781854,FEMA4ImagesEEG,001,200118,
AFNE01.JPG,AFNE01.JPG,AFNE01.JPG,AFNE01.JPG,AFNE01.JPG,AFNE01.JPG,,,,,,,,,,,,,,,,,1,0,10,8,,,,,,,AFSA20.jpg,AFNE16.jpg,AFSA19.jpg,AFNE10.jpg,AFNE16.jpg,FN,3,num_6,16,num_6,0.78347023041,,,2017_Apr_10_1433,59.9959781854,FEMA4ImagesEEG,001,200118,
AFNE01.JPG,AFNE01.JPG,AFNE01.JPG,AFNE01.JPG,AFNE01.JPG,AFNE01.JPG,,,,,,,,,,,,,,,,,1,1,11,6,,,,,,,AFNE03.jpg,AFSA04.jpg,AFNE16.jpg,AFSA09.jpg,AFSA04.jpg,FS,4,num_6,32,num_2,1.53338788054,,,2017_Apr_10_1433,59.9959781854,FEMA4ImagesEEG,001,200118,
AFNE01.JPG,AFNE01.JPG,AFNE01.JPG,AFNE01.JPG,AFNE01.JPG,AFNE01.JPG,,,,,,,,,,,,,,,,,1,2,12,5,,,,,,,AFSA17.jpg,AFNE20.jpg,AFNE08.jpg,AFSA04.jpg,AFSA04.jpg,FS,4,num_4,16,num_4,0.850109356223,,,2017_Apr_10_1433,59.9959781854,FEMA4ImagesEEG,001,200118,
AFNE01.JPG,AFNE01.JPG,AFNE01.JPG,AFNE01.JPG,AFNE01.JPG,AFNE01.JPG,,,,,,,,,,,,,,,,,1,3,13,0,,,,,,,AFNE20.jpg,AFSA11.jpg,AFNE04.jpg,AFSA05.jpg,AFNE20.jpg,FN,3,num_8,32,num_2,1.10010125744,,,2017_Apr_10_1433,59.9959781854,FEMA4ImagesEEG,001,200118,
AFNE01.JPG,AFNE01.JPG,AFNE01.JPG,AFNE01.JPG,AFNE01.JPG,AFNE01.JPG,,,,,,,,,,,,,,,,,1,4,14,4,,,,,,,AFSA15.jpg,AFNE02.jpg,AFSA19.jpg,AFNE07.jpg,AFSA19.jpg,FS,4,num_2,16,num_2,0.966772329062,,,2017_Apr_10_1433,59.9959781854,FEMA4ImagesEEG,001,200118,
AFNE01.JPG,AFNE01.JPG,AFNE01.JPG,AFNE01.JPG,AFNE01.JPG,AFNE01.JPG,,,,,,,,,,,,,,,,,1,5,15,2,,,,,,,AFNE17.jpg,AFNE09.jpg,AFSA13.jpg,AFSA04.jpg,AFNE17.jpg,FN,3,num_8,16,num_8,0.783506794833,,,2017_Apr_10_1433,59.9959781854,FEMA4ImagesEEG,001,200118,
AFNE01.JPG,AFNE01.JPG,AFNE01.JPG,AFNE01.JPG,AFNE01.JPG,AFNE01.JPG,,,,,,,,,,,,,,,,,1,6,16,7,,,,,,,AFSA15.jpg,AFNE13.jpg,AFSA11.jpg,AFNE03.jpg,AFNE03.jpg,FN,3,num_4,32,num_6,1.13346716738,,,2017_Apr_10_1433,59.9959781854,FEMA4ImagesEEG,001,200118,
AFNE01.JPG,AFNE01.JPG,AFNE01.JPG,AFNE01.JPG,AFNE01.JPG,AFNE01.JPG,,,,,,,,,,,,,,,,,1,7,17,9,,,,,,,AFSA12.jpg,AFSA06.jpg,AFNE05.jpg,AFNE17.jpg,AFNE17.jpg,FN,3,num_4,32,num_8,1.05018036789,,,2017_Apr_10_1433,59.9959781854,FEMA4ImagesEEG,001,200118,
AFNE01.JPG,AFNE01.JPG,AFNE01.JPG,AFNE01.JPG,AFNE01.JPG,AFNE01.JPG,,,,,,,,,,,,,,,,,1,8,18,1,,,,,,,AFNE17.jpg,AFNE14.jpg,AFSA01.jpg,AFSA10.jpg,AFNE17.jpg,FN,3,num_8,16,num_8,0.716793898726,,,2017_Apr_10_1433,59.9959781854,FEMA4ImagesEEG,001,200118,
AFNE01.JPG,AFNE01.JPG,AFNE01.JPG,AFNE01.JPG,AFNE01.JPG,AFNE01.JPG,,,,,,,,,,,,,,,,,1,9,19,3,,,,,,,AFSA20.jpg,AFSA01.jpg,AFNE07.jpg,AFNE03.jpg,AFNE03.jpg,FN,3,num_4,16,num_4,0.666774542071,,,2017_Apr_10_1433,59.9959781854,FEMA4ImagesEEG,001,200118,
AFNE01.JPG,AFNE01.JPG,AFNE01.JPG,AFNE01.JPG,AFNE01.JPG,AFNE01.JPG,,,,,,,,,,,,,,,,,2,0,20,9,,,,,,,AFNE10.jpg,AFSA17.jpg,AFNE13.jpg,AFSA06.jpg,AFNE10.jpg,FN,3,num_8,16,num_8,0.666786730057,,,2017_Apr_10_1433,59.9959781854,FEMA4ImagesEEG,001,200118,
AFNE01.JPG,AFNE01.JPG,AFNE01.JPG,AFNE01.JPG,AFNE01.JPG,AFNE01.JPG,,,,,,,,,,,,,,,,,2,1,21,5,,,,,,,AFNE20.jpg,AFSA11.jpg,AFNE17.jpg,AFSA19.jpg,AFNE17.jpg,FN,3,num_2,32,num_8,0.616872897139,,,2017_Apr_10_1433,59.9959781854,FEMA4ImagesEEG,001,200118,
AFNE01.JPG,AFNE01.JPG,AFNE01.JPG,AFNE01.JPG,AFNE01.JPG,AFNE01.JPG,,,,,,,,,,,,,,,,,2,2,22,4,,,,,,,AFSA12.jpg,AFNE12.jpg,AFSA13.jpg,AFNE09.jpg,AFNE09.jpg,FN,3,num_4,16,num_4,1.10009644646,,,2017_Apr_10_1433,59.9959781854,FEMA4ImagesEEG,001,200118,
AFNE01.JPG,AFNE01.JPG,AFNE01.JPG,AFNE01.JPG,AFNE01.JPG,AFNE01.JPG,,,,,,,,,,,,,,,,,2,3,23,8,,,,,,,AFNE10.jpg,AFSA01.jpg,AFSA02.jpg,AFNE13.jpg,AFNE10.jpg,FN,3,num_8,32,num_4,0.699922028231,,,2017_Apr_10_1433,59.9959781854,FEMA4ImagesEEG,001,200118,
AFNE01.JPG,AFNE01.JPG,AFNE01.JPG,AFNE01.JPG,AFNE01.JPG,AFNE01.JPG,,,,,,,,,,,,,,,,,2,4,24,1,,,,,,,AFNE02.jpg,AFSA02.jpg,AFNE04.jpg,AFSA01.jpg,AFNE04.jpg,FN,3,num_2,32,num_8,1.00014272914,,,2017_Apr_10_1433,59.9959781854,FEMA4ImagesEEG,001,200118,
AFNE01.JPG,AFNE01.JPG,AFNE01.JPG,AFNE01.JPG,AFNE01.JPG,AFNE01.JPG,,,,,,,,,,,,,,,,,2,5,25,7,,,,,,,AFNE12.jpg,AFSA20.jpg,AFNE19.jpg,AFSA01.jpg,AFNE19.jpg,FN,3,num_2,32,num_6,1.03345218883,,,2017_Apr_10_1433,59.9959781854,FEMA4ImagesEEG,001,200118,
AFNE01.JPG,AFNE01.JPG,AFNE01.JPG,AFNE01.JPG,AFNE01.JPG,AFNE01.JPG,,,,,,,,,,,,,,,,,2,6,26,2,,,,,,,AFNE06.jpg,AFNE12.jpg,AFSA12.jpg,AFSA01.jpg,AFNE12.jpg,FN,3,num_6,32,num_8,0.616828634869,,,2017_Apr_10_1433,59.9959781854,FEMA4ImagesEEG,001,200118,
AFNE01.JPG,AFNE01.JPG,AFNE01.JPG,AFNE01.JPG,AFNE01.JPG,AFNE01.JPG,,,,,,,,,,,,,,,,,2,7,27,3,,,,,,,AFSA17.jpg,AFNE14.jpg,AFNE16.jpg,AFSA02.jpg,AFNE14.jpg,FN,3,num_6,16,num_6,0.933430474717,,,2017_Apr_10_1433,59.9959781854,FEMA4ImagesEEG,001,200118,
AFNE01.JPG,AFNE01.JPG,AFNE01.JPG,AFNE01.JPG,AFNE01.JPG,AFNE01.JPG,,,,,,,,,,,,,,,,,2,8,28,0,,,,,,,AFSA01.jpg,AFNE14.jpg,AFSA08.jpg,AFNE05.jpg,AFSA08.jpg,FS,4,num_2,32,num_8,0.633492345456,,,2017_Apr_10_1433,59.9959781854,FEMA4ImagesEEG,001,200118,
AFNE01.JPG,AFNE01.JPG,AFNE01.JPG,AFNE01.JPG,AFNE01.JPG,AFNE01.JPG,,,,,,,,,,,,,,,,,2,9,29,6,,,,,,,AFSA10.jpg,AFNE14.jpg,AFNE08.jpg,AFSA17.jpg,AFNE08.jpg,FN,3,num_2,32,num_6,0.883410156006,,,2017_Apr_10_1433,59.9959781854,FEMA4ImagesEEG,001,200118,
AFNE01.JPG,AFNE01.JPG,AFNE01.JPG,AFNE01.JPG,AFNE01.JPG,AFNE01.JPG,,,,,,,,,,,,,,,,,3,0,30,1,,,,,,,AFSA15.jpg,AFNE16.jpg,AFNE09.jpg,AFSA20.jpg,AFNE16.jpg,FN,3,num_6,16,num_6,0.933413475519,,,2017_Apr_10_1433,59.9959781854,FEMA4ImagesEEG,001,200118,
AFNE01.JPG,AFNE01.JPG,AFNE01.JPG,AFNE01.JPG,AFNE01.JPG,AFNE01.JPG,,,,,,,,,,,,,,,,,3,1,31,2,,,,,,,AFSA11.jpg,AFNE20.jpg,AFSA12.jpg,AFNE08.jpg,AFSA11.jpg,FS,4,num_8,16,num_8,1.16697548563,,,2017_Apr_10_1433,59.9959781854,FEMA4ImagesEEG,001,200118,
AFNE01.JPG,AFNE01.JPG,AFNE01.JPG,AFNE01.JPG,AFNE01.JPG,AFNE01.JPG,,,,,,,,,,,,,,,,,3,2,32,7,,,,,,,AFSA09.jpg,AFNE04.jpg,AFSA04.jpg,AFNE11.jpg,AFNE04.jpg,FN,3,num_6,16,num_6,0.666797955986,,,2017_Apr_10_1433,59.9959781854,FEMA4ImagesEEG,001,200118,
AFNE01.JPG,AFNE01.JPG,AFNE01.JPG,AFNE01.JPG,AFNE01.JPG,AFNE01.JPG,,,,,,,,,,,,,,,,,3,3,33,0,,,,,,,AFSA19.jpg,AFNE16.jpg,AFNE17.jpg,AFSA17.jpg,AFSA17.jpg,FS,4,num_4,16,num_4,0.800101546105,,,2017_Apr_10_1433,59.9959781854,FEMA4ImagesEEG,001,200118,
AFNE01.JPG,AFNE01.JPG,AFNE01.JPG,AFNE01.JPG,AFNE01.JPG,AFNE01.JPG,,,,,,,,,,,,,,,,,3,4,34,8,,,,,,,AFSA12.jpg,AFNE18.jpg,AFNE15.jpg,AFSA10.jpg,AFSA10.jpg,FS,4,num_4,32,num_8,0.7837374066,,,2017_Apr_10_1433,59.9959781854,FEMA4ImagesEEG,001,200118,
AFNE01.JPG,AFNE01.JPG,AFNE01.JPG,AFNE01.JPG,AFNE01.JPG,AFNE01.JPG,,,,,,,,,,,,,,,,,3,5,35,4,,,,,,,AFSA16.jpg,AFNE05.jpg,AFSA11.jpg,AFNE17.jpg,AFNE17.jpg,FN,3,num_4,32,num_6,0.883426192915,,,2017_Apr_10_1433,59.9959781854,FEMA4ImagesEEG,001,200118,
AFNE01.JPG,AFNE01.JPG,AFNE01.JPG,AFNE01.JPG,AFNE01.JPG,AFNE01.JPG,,,,,,,,,,,,,,,,,3,6,36,5,,,,,,,AFNE16.jpg,AFNE01.jpg,AFSA17.jpg,AFSA13.jpg,AFSA17.jpg,FS,4,num_2,16,num_2,0.600154981483,,,2017_Apr_10_1433,59.9959781854,FEMA4ImagesEEG,001,200118,
AFNE01.JPG,AFNE01.JPG,AFNE01.JPG,AFNE01.JPG,AFNE01.JPG,AFNE01.JPG,,,,,,,,,,,,,,,,,3,7,37,6,,,,,,,AFNE13.jpg,AFSA08.jpg,AFNE19.jpg,AFSA12.jpg,AFSA08.jpg,FS,4,num_6,16,num_6,0.800243313191,,,2017_Apr_10_1433,59.9959781854,FEMA4ImagesEEG,001,200118,
AFNE01.JPG,AFNE01.JPG,AFNE01.JPG,AFNE01.JPG,AFNE01.JPG,AFNE01.JPG,,,,,,,,,,,,,,,,,3,8,38,9,,,,,,,AFNE12.jpg,AFSA12.jpg,AFSA03.jpg,AFNE18.jpg,AFNE12.jpg,FN,3,num_8,16,num_8,0.916742067318,,,2017_Apr_10_1433,59.9959781854,FEMA4ImagesEEG,001,200118,
AFNE01.JPG,AFNE01.JPG,AFNE01.JPG,AFNE01.JPG,AFNE01.JPG,AFNE01.JPG,,,,,,,,,,,,,,,,,3,9,39,3,,,,,,,AFNE19.jpg,AFSA03.jpg,AFSA07.jpg,AFNE09.jpg,AFNE09.jpg,FN,3,num_4,32,num_8,0.666783201974,,,2017_Apr_10_1433,59.9959781854,FEMA4ImagesEEG,001,200118,
AFNE01.JPG,AFNE01.JPG,AFNE01.JPG,AFNE01.JPG,AFNE01.JPG,AFNE01.JPG,,,,,,,,,,,,,,,,,4,0,40,6,,,,,,,AFNE04.jpg,AFSA07.jpg,AFNE18.jpg,AFSA02.jpg,AFSA07.jpg,FS,4,num_6,16,num_6,0.650106020505,,,2017_Apr_10_1433,59.9959781854,FEMA4ImagesEEG,001,200118,
AFNE01.JPG,AFNE01.JPG,AFNE01.JPG,AFNE01.JPG,AFNE01.JPG,AFNE01.JPG,,,,,,,,,,,,,,,,,4,1,41,1,,,,,,,AFSA13.jpg,AFNE01.jpg,AFNE11.jpg,AFSA12.jpg,AFSA12.jpg,FS,4,num_4,16,num_4,0.666763957823,,,2017_Apr_10_1433,59.9959781854,FEMA4ImagesEEG,001,200118,
AFNE01.JPG,AFNE01.JPG,AFNE01.JPG,AFNE01.JPG,AFNE01.JPG,AFNE01.JPG,,,,,,,,,,,,,,,,,4,2,42,8,,,,,,,AFNE16.jpg,AFSA10.jpg,AFSA15.jpg,AFNE11.jpg,AFSA10.jpg,FS,4,num_6,16,num_6,0.86671372992,,,2017_Apr_10_1433,59.9959781854,FEMA4ImagesEEG,001,200118,
AFNE01.JPG,AFNE01.JPG,AFNE01.JPG,AFNE01.JPG,AFNE01.JPG,AFNE01.JPG,,,,,,,,,,,,,,,,,4,3,43,3,,,,,,,AFSA05.jpg,AFNE14.jpg,AFNE05.jpg,AFSA11.jpg,AFSA11.jpg,FS,4,num_4,16,num_4,0.416530860122,,,2017_Apr_10_1433,59.9959781854,FEMA4ImagesEEG,001,200118,
AFNE01.JPG,AFNE01.JPG,AFNE01.JPG,AFNE01.JPG,AFNE01.JPG,AFNE01.JPG,,,,,,,,,,,,,,,,,4,4,44,2,,,,,,,AFSA01.jpg,AFNE20.jpg,AFSA13.jpg,AFNE09.jpg,AFNE09.jpg,FN,3,num_4,32,num_6,0.716790049803,,,2017_Apr_10_1433,59.9959781854,FEMA4ImagesEEG,001,200118,
AFNE01.JPG,AFNE01.JPG,AFNE01.JPG,AFNE01.JPG,AFNE01.JPG,AFNE01.JPG,,,,,,,,,,,,,,,,,4,5,45,5,,,,,,,AFNE15.jpg,AFSA17.jpg,AFSA13.jpg,AFNE03.jpg,AFSA17.jpg,FS,4,num_6,16,num_6,0.850097488845,,,2017_Apr_10_1433,59.9959781854,FEMA4ImagesEEG,001,200118,
AFNE01.JPG,AFNE01.JPG,AFNE01.JPG,AFNE01.JPG,AFNE01.JPG,AFNE01.JPG,,,,,,,,,,,,,,,,,4,6,46,4,,,,,,,AFNE17.jpg,AFSA19.jpg,AFSA17.jpg,AFNE11.jpg,AFSA19.jpg,FS,4,num_6,16,num_6,0.616814522306,,,2017_Apr_10_1433,59.9959781854,FEMA4ImagesEEG,001,200118,
AFNE01.JPG,AFNE01.JPG,AFNE01.JPG,AFNE01.JPG,AFNE01.JPG,AFNE01.JPG,,,,,,,,,,,,,,,,,4,7,47,7,,,,,,,AFSA19.jpg,AFNE10.jpg,AFSA20.jpg,AFNE03.jpg,AFNE10.jpg,FN,3,num_6,16,num_6,0.566761167254,,,2017_Apr_10_1433,59.9959781854,FEMA4ImagesEEG,001,200118,
AFNE01.JPG,AFNE01.JPG,AFNE01.JPG,AFNE01.JPG,AFNE01.JPG,AFNE01.JPG,,,,,,,,,,,,,,,,,4,8,48,0,,,,,,,AFNE11.jpg,AFSA01.jpg,AFSA20.jpg,AFNE03.jpg,AFNE11.jpg,FN,3,num_8,16,num_8,0.983595126309,,,2017_Apr_10_1433,59.9959781854,FEMA4ImagesEEG,001,200118,
AFNE01.JPG,AFNE01.JPG,AFNE01.JPG,AFNE01.JPG,AFNE01.JPG,AFNE01.JPG,,,,,,,,,,,,,,,,,4,9,49,9,,,,,,,AFSA06.jpg,AFNE18.jpg,AFSA08.jpg,AFNE01.jpg,AFNE01.jpg,FN,3,num_4,32,num_6,0.749985326314,,,2017_Apr_10_1433,59.9959781854,FEMA4ImagesEEG,001,200118,
AFNE01.JPG,AFNE01.JPG,AFNE01.JPG,AFNE01.JPG,AFNE01.JPG,AFNE01.JPG,,,,,,,,,,,,,,,,,5,0,50,5,,,,,,,AFSA07.jpg,AFNE06.jpg,AFNE20.jpg,AFSA15.jpg,AFSA07.jpg,FS,4,num_8,16,num_8,0.68337827432,,,2017_Apr_10_1433,59.9959781854,FEMA4ImagesEEG,001,200118,
AFNE01.JPG,AFNE01.JPG,AFNE01.JPG,AFNE01.JPG,AFNE01.JPG,AFNE01.JPG,,,,,,,,,,,,,,,,,5,1,51,3,,,,,,,AFNE09.jpg,AFNE10.jpg,AFSA10.jpg,AFSA13.jpg,AFSA13.jpg,FS,4,num_4,32,num_6,0.80046815169,,,2017_Apr_10_1433,59.9959781854,FEMA4ImagesEEG,001,200118,
AFNE01.JPG,AFNE01.JPG,AFNE01.JPG,AFNE01.JPG,AFNE01.JPG,AFNE01.JPG,,,,,,,,,,,,,,,,,5,2,52,0,,,,,,,AFSA08.jpg,AFNE19.jpg,AFSA16.jpg,AFNE20.jpg,AFSA16.jpg,FS,4,num_2,32,num_8,0.66644514259,,,2017_Apr_10_1433,59.9959781854,FEMA4ImagesEEG,001,200118,
AFNE01.JPG,AFNE01.JPG,AFNE01.JPG,AFNE01.JPG,AFNE01.JPG,AFNE01.JPG,,,,,,,,,,,,,,,,,5,3,53,2,,,,,,,AFNE10.jpg,AFNE17.jpg,AFSA14.jpg,AFSA03.jpg,AFSA14.jpg,FS,4,num_2,16,num_2,0.900125184795,,,2017_Apr_10_1433,59.9959781854,FEMA4ImagesEEG,001,200118,
AFNE01.JPG,AFNE01.JPG,AFNE01.JPG,AFNE01.JPG,AFNE01.JPG,AFNE01.JPG,,,,,,,,,,,,,,,,,5,4,54,6,,,,,,,AFSA07.jpg,AFNE12.jpg,AFSA19.jpg,AFNE04.jpg,AFNE12.jpg,FN,3,num_6,16,num_6,0.633518646006,,,2017_Apr_10_1433,59.9959781854,FEMA4ImagesEEG,001,200118,
AFNE01.JPG,AFNE01.JPG,AFNE01.JPG,AFNE01.JPG,AFNE01.JPG,AFNE01.JPG,,,,,,,,,,,,,,,,,5,5,55,9,,,,,,,AFNE19.jpg,AFNE12.jpg,AFSA09.jpg,AFSA08.jpg,AFSA09.jpg,FS,4,num_2,32,num_4,0.816800217144,,,2017_Apr_10_1433,59.9959781854,FEMA4ImagesEEG,001,200118,
AFNE01.JPG,AFNE01.JPG,AFNE01.JPG,AFNE01.JPG,AFNE01.JPG,AFNE01.JPG,,,,,,,,,,,,,,,,,5,6,56,4,,,,,,,AFSA17.jpg,AFSA16.jpg,AFNE04.jpg,AFNE08.jpg,AFSA17.jpg,FS,4,num_8,16,num_8,0.500105042243,,,2017_Apr_10_1433,59.9959781854,FEMA4ImagesEEG,001,200118,
AFNE01.JPG,AFNE01.JPG,AFNE01.JPG,AFNE01.JPG,AFNE01.JPG,AFNE01.JPG,,,,,,,,,,,,,,,,,5,7,57,1,,,,,,,AFSA01.jpg,AFNE19.jpg,AFSA06.jpg,AFNE02.jpg,AFSA01.jpg,FS,4,num_8,16,num_8,0.700129867531,,,2017_Apr_10_1433,59.9959781854,FEMA4ImagesEEG,001,200118,
AFNE01.JPG,AFNE01.JPG,AFNE01.JPG,AFNE01.JPG,AFNE01.JPG,AFNE01.JPG,,,,,,,,,,,,,,,,,5,8,58,7,,,,,,,AFSA04.jpg,AFNE05.jpg,AFNE18.jpg,AFSA18.jpg,AFNE05.jpg,FN,3,num_6,16,num_6,0.683481873246,,,2017_Apr_10_1433,59.9959781854,FEMA4ImagesEEG,001,200118,
AFNE01.JPG,AFNE01.JPG,AFNE01.JPG,AFNE01.JPG,AFNE01.JPG,AFNE01.JPG,,,,,,,,,,,,,,,,,5,9,59,8,,,,,,,AFNE18.jpg,AFSA18.jpg,AFSA16.jpg,AFNE05.jpg,AFNE05.jpg,FN,3,num_4,16,num_4,1.20021598623,,,2017_Apr_10_1433,59.9959781854,FEMA4ImagesEEG,001,200118,
,,,,,,,,,,,,,,,,,,,,,,,,,,,,,,,,,,,,,,,,,,,space,17.2154931389,2017_Apr_10_1433,59.9959781854,FEMA4ImagesEEG,001,200118,
AFNE01.JPG,AFNE01.JPG,AFNE01.JPG,AFNE01.JPG,AFNE01.JPG,AFNE01.JPG,,,,,,,,,,,,,,,,,,,,,0,0,0,4,,,AMNE19.jpg,AMSA06.jpg,AMNE11.jpg,AMSA05.jpg,AMNE19.jpg,MN,1,num_8,16,num_8,0.650120133068,,,2017_Apr_10_1433,59.9959781854,FEMA4ImagesEEG,001,200118,
AFNE01.JPG,AFNE01.JPG,AFNE01.JPG,AFNE01.JPG,AFNE01.JPG,AFNE01.JPG,,,,,,,,,,,,,,,,,,,,,0,1,1,0,,,AMSA19.jpg,AMNE17.jpg,AMNE20.jpg,AMSA06.jpg,AMNE20.jpg,MN,1,num_2,32,num_6,0.616799768293,,,2017_Apr_10_1433,59.9959781854,FEMA4ImagesEEG,001,200118,
AFNE01.JPG,AFNE01.JPG,AFNE01.JPG,AFNE01.JPG,AFNE01.JPG,AFNE01.JPG,,,,,,,,,,,,,,,,,,,,,0,2,2,9,,,AMNE18.jpg,AMSA07.jpg,AMSA02.jpg,AMNE14.jpg,AMNE18.jpg,MN,1,num_8,16,num_8,0.650202242425,,,2017_Apr_10_1433,59.9959781854,FEMA4ImagesEEG,001,200118,
AFNE01.JPG,AFNE01.JPG,AFNE01.JPG,AFNE01.JPG,AFNE01.JPG,AFNE01.JPG,,,,,,,,,,,,,,,,,,,,,0,3,3,5,,,AMSA15.jpg,AMNE14.jpg,AMNE19.jpg,AMSA03.jpg,AMSA03.jpg,MS,2,num_4,16,num_4,0.716868631309,,,2017_Apr_10_1433,59.9959781854,FEMA4ImagesEEG,001,200118,
AFNE01.JPG,AFNE01.JPG,AFNE01.JPG,AFNE01.JPG,AFNE01.JPG,AFNE01.JPG,,,,,,,,,,,,,,,,,,,,,0,4,4,6,,,AMNE11.jpg,AMSA11.jpg,AMNE08.jpg,AMSA17.jpg,AMSA11.jpg,MS,2,num_6,16,num_6,1.13342290535,,,2017_Apr_10_1433,59.9959781854,FEMA4ImagesEEG,001,200118,
AFNE01.JPG,AFNE01.JPG,AFNE01.JPG,AFNE01.JPG,AFNE01.JPG,AFNE01.JPG,,,,,,,,,,,,,,,,,,,,,0,5,5,3,,,AMSA10.jpg,AMNE13.jpg,AMSA08.jpg,AMNE12.jpg,AMSA10.jpg,MS,2,num_8,32,num_6,1.06682836218,,,2017_Apr_10_1433,59.9959781854,FEMA4ImagesEEG,001,200118,
AFNE01.JPG,AFNE01.JPG,AFNE01.JPG,AFNE01.JPG,AFNE01.JPG,AFNE01.JPG,,,,,,,,,,,,,,,,,,,,,0,6,6,7,,,AMNE11.jpg,AMSA02.jpg,AMSA10.jpg,AMNE07.jpg,AMSA02.jpg,MS,2,num_6,16,num_6,0.883454418043,,,2017_Apr_10_1433,59.9959781854,FEMA4ImagesEEG,001,200118,
AFNE01.JPG,AFNE01.JPG,AFNE01.JPG,AFNE01.JPG,AFNE01.JPG,AFNE01.JPG,,,,,,,,,,,,,,,,,,,,,0,7,7,8,,,AMSA16.jpg,AMNE12.jpg,AMSA02.jpg,AMNE03.jpg,AMSA02.jpg,MS,2,num_2,16,num_2,0.650141622638,,,2017_Apr_10_1433,59.9959781854,FEMA4ImagesEEG,001,200118,
AFNE01.JPG,AFNE01.JPG,AFNE01.JPG,AFNE01.JPG,AFNE01.JPG,AFNE01.JPG,,,,,,,,,,,,,,,,,,,,,0,8,8,2,,,AMNE13.jpg,AMNE05.jpg,AMSA14.jpg,AMSA05.jpg,AMSA14.jpg,MS,2,num_2,16,num_2,0.550149095943,,,2017_Apr_10_1433,59.9959781854,FEMA4ImagesEEG,001,200118,
AFNE01.JPG,AFNE01.JPG,AFNE01.JPG,AFNE01.JPG,AFNE01.JPG,AFNE01.JPG,,,,,,,,,,,,,,,,,,,,,0,9,9,1,,,AMNE16.jpg,AMSA14.jpg,AMSA13.jpg,AMNE09.jpg,AMSA13.jpg,MS,2,num_2,16,num_2,0.733486155048,,,2017_Apr_10_1433,59.9959781854,FEMA4ImagesEEG,001,200118,
AFNE01.JPG,AFNE01.JPG,AFNE01.JPG,AFNE01.JPG,AFNE01.JPG,AFNE01.JPG,,,,,,,,,,,,,,,,,,,,,1,0,10,7,,,AMSA12.jpg,AMSA16.jpg,AMNE06.jpg,AMNE09.jpg,AMSA12.jpg,MS,2,num_8,32,num_6,1.06671706564,,,2017_Apr_10_1433,59.9959781854,FEMA4ImagesEEG,001,200118,
AFNE01.JPG,AFNE01.JPG,AFNE01.JPG,AFNE01.JPG,AFNE01.JPG,AFNE01.JPG,,,,,,,,,,,,,,,,,,,,,1,1,11,6,,,AMSA17.jpg,AMSA04.jpg,AMNE04.jpg,AMNE11.jpg,AMNE04.jpg,MN,1,num_2,32,num_4,1.06675908249,,,2017_Apr_10_1433,59.9959781854,FEMA4ImagesEEG,001,200118,
AFNE01.JPG,AFNE01.JPG,AFNE01.JPG,AFNE01.JPG,AFNE01.JPG,AFNE01.JPG,,,,,,,,,,,,,,,,,,,,,1,2,12,9,,,AMSA05.jpg,AMNE01.jpg,AMNE20.jpg,AMSA06.jpg,AMSA06.jpg,MS,2,num_4,32,num_8,0.666832916904,,,2017_Apr_10_1433,59.9959781854,FEMA4ImagesEEG,001,200118,
AFNE01.JPG,AFNE01.JPG,AFNE01.JPG,AFNE01.JPG,AFNE01.JPG,AFNE01.JPG,,,,,,,,,,,,,,,,,,,,,1,3,13,4,,,AMSA17.jpg,AMSA07.jpg,AMNE06.jpg,AMNE18.jpg,AMSA07.jpg,MS,2,num_6,16,num_6,0.616768335924,,,2017_Apr_10_1433,59.9959781854,FEMA4ImagesEEG,001,200118,
AFNE01.JPG,AFNE01.JPG,AFNE01.JPG,AFNE01.JPG,AFNE01.JPG,AFNE01.JPG,,,,,,,,,,,,,,,,,,,,,1,4,14,0,,,AMNE09.jpg,AMSA12.jpg,AMNE07.jpg,AMSA10.jpg,AMNE07.jpg,MN,1,num_2,32,num_8,0.750299972016,,,2017_Apr_10_1433,59.9959781854,FEMA4ImagesEEG,001,200118,
AFNE01.JPG,AFNE01.JPG,AFNE01.JPG,AFNE01.JPG,AFNE01.JPG,AFNE01.JPG,,,,,,,,,,,,,,,,,,,,,1,5,15,2,,,AMSA08.jpg,AMSA09.jpg,AMNE11.jpg,AMNE07.jpg,AMNE11.jpg,MN,1,num_2,32,num_4,0.916749444092,,,2017_Apr_10_1433,59.9959781854,FEMA4ImagesEEG,001,200118,
AFNE01.JPG,AFNE01.JPG,AFNE01.JPG,AFNE01.JPG,AFNE01.JPG,AFNE01.JPG,,,,,,,,,,,,,,,,,,,,,1,6,16,1,,,AMSA01.jpg,AMNE09.jpg,AMNE01.jpg,AMSA18.jpg,AMNE01.jpg,MN,1,num_2,16,num_2,0.900101129198,,,2017_Apr_10_1433,59.9959781854,FEMA4ImagesEEG,001,200118,
AFNE01.JPG,AFNE01.JPG,AFNE01.JPG,AFNE01.JPG,AFNE01.JPG,AFNE01.JPG,,,,,,,,,,,,,,,,,,,,,1,7,17,5,,,AMSA04.jpg,AMSA20.jpg,AMNE11.jpg,AMNE05.jpg,AMNE05.jpg,MN,1,num_4,16,num_4,0.883435494266,,,2017_Apr_10_1433,59.9959781854,FEMA4ImagesEEG,001,200118,
AFNE01.JPG,AFNE01.JPG,AFNE01.JPG,AFNE01.JPG,AFNE01.JPG,AFNE01.JPG,,,,,,,,,,,,,,,,,,,,,1,8,18,8,,,AMSA17.jpg,AMNE20.jpg,AMNE15.jpg,AMSA18.jpg,AMSA17.jpg,MS,2,num_8,32,num_4,1.06673631002,,,2017_Apr_10_1433,59.9959781854,FEMA4ImagesEEG,001,200118,
AFNE01.JPG,AFNE01.JPG,AFNE01.JPG,AFNE01.JPG,AFNE01.JPG,AFNE01.JPG,,,,,,,,,,,,,,,,,,,,,1,9,19,3,,,AMSA11.jpg,AMNE20.jpg,AMNE03.jpg,AMSA09.jpg,AMNE20.jpg,MN,1,num_6,16,num_6,0.633450970054,,,2017_Apr_10_1433,59.9959781854,FEMA4ImagesEEG,001,200118,
AFNE01.JPG,AFNE01.JPG,AFNE01.JPG,AFNE01.JPG,AFNE01.JPG,AFNE01.JPG,,,,,,,,,,,,,,,,,,,,,2,0,20,0,,,AMSA14.jpg,AMNE12.jpg,AMNE01.jpg,AMSA01.jpg,AMSA01.jpg,MS,2,num_4,32,num_2,0.616774109192,,,2017_Apr_10_1433,59.9959781854,FEMA4ImagesEEG,001,200118,
AFNE01.JPG,AFNE01.JPG,AFNE01.JPG,AFNE01.JPG,AFNE01.JPG,AFNE01.JPG,,,,,,,,,,,,,,,,,,,,,2,1,21,6,,,AMSA05.jpg,AMNE19.jpg,AMNE06.jpg,AMSA07.jpg,AMNE06.jpg,MN,1,num_2,16,num_2,0.850274216384,,,2017_Apr_10_1433,59.9959781854,FEMA4ImagesEEG,001,200118,
AFNE01.JPG,AFNE01.JPG,AFNE01.JPG,AFNE01.JPG,AFNE01.JPG,AFNE01.JPG,,,,,,,,,,,,,,,,,,,,,2,2,22,5,,,AMSA18.jpg,AMSA01.jpg,AMNE15.jpg,AMNE13.jpg,AMNE13.jpg,MN,1,num_4,32,num_2,0.983467151411,,,2017_Apr_10_1433,59.9959781854,FEMA4ImagesEEG,001,200118,
AFNE01.JPG,AFNE01.JPG,AFNE01.JPG,AFNE01.JPG,AFNE01.JPG,AFNE01.JPG,,,,,,,,,,,,,,,,,,,,,2,3,23,9,,,AMNE08.jpg,AMSA03.jpg,AMSA16.jpg,AMNE19.jpg,AMSA16.jpg,MS,2,num_2,16,num_2,0.700139168883,,,2017_Apr_10_1433,59.9959781854,FEMA4ImagesEEG,001,200118,
AFNE01.JPG,AFNE01.JPG,AFNE01.JPG,AFNE01.JPG,AFNE01.JPG,AFNE01.JPG,,,,,,,,,,,,,,,,,,,,,2,4,24,1,,,AMNE18.jpg,AMSA06.jpg,AMSA08.jpg,AMNE08.jpg,AMNE08.jpg,MN,1,num_4,32,num_8,0.783434307436,,,2017_Apr_10_1433,59.9959781854,FEMA4ImagesEEG,001,200118,
AFNE01.JPG,AFNE01.JPG,AFNE01.JPG,AFNE01.JPG,AFNE01.JPG,AFNE01.JPG,,,,,,,,,,,,,,,,,,,,,2,5,25,4,,,AMNE11.jpg,AMSA06.jpg,AMSA16.jpg,AMNE02.jpg,AMNE02.jpg,MN,1,num_4,32,num_8,0.800180127379,,,2017_Apr_10_1433,59.9959781854,FEMA4ImagesEEG,001,200118,
AFNE01.JPG,AFNE01.JPG,AFNE01.JPG,AFNE01.JPG,AFNE01.JPG,AFNE01.JPG,,,,,,,,,,,,,,,,,,,,,2,6,26,8,,,AMNE01.jpg,AMSA14.jpg,AMNE18.jpg,AMSA19.jpg,AMNE01.jpg,MN,1,num_8,32,num_2,0.816889703739,,,2017_Apr_10_1433,59.9959781854,FEMA4ImagesEEG,001,200118,
AFNE01.JPG,AFNE01.JPG,AFNE01.JPG,AFNE01.JPG,AFNE01.JPG,AFNE01.JPG,,,,,,,,,,,,,,,,,,,,,2,7,27,2,,,AMNE01.jpg,AMSA05.jpg,AMNE08.jpg,AMSA15.jpg,AMNE08.jpg,MN,1,num_2,32,num_6,0.683480910957,,,2017_Apr_10_1433,59.9959781854,FEMA4ImagesEEG,001,200118,
AFNE01.JPG,AFNE01.JPG,AFNE01.JPG,AFNE01.JPG,AFNE01.JPG,AFNE01.JPG,,,,,,,,,,,,,,,,,,,,,2,8,28,3,,,AMNE11.jpg,AMSA20.jpg,AMSA07.jpg,AMNE08.jpg,AMNE08.jpg,MN,1,num_4,32,num_8,0.91682610102,,,2017_Apr_10_1433,59.9959781854,FEMA4ImagesEEG,001,200118,
AFNE01.JPG,AFNE01.JPG,AFNE01.JPG,AFNE01.JPG,AFNE01.JPG,AFNE01.JPG,,,,,,,,,,,,,,,,,,,,,2,9,29,7,,,AMNE19.jpg,AMSA12.jpg,AMNE02.jpg,AMSA14.jpg,AMSA12.jpg,MS,2,num_6,32,num_8,0.866759916302,,,2017_Apr_10_1433,59.9959781854,FEMA4ImagesEEG,001,200118,
AFNE01.JPG,AFNE01.JPG,AFNE01.JPG,AFNE01.JPG,AFNE01.JPG,AFNE01.JPG,,,,,,,,,,,,,,,,,,,,,3,0,30,5,,,AMNE20.jpg,AMSA01.jpg,AMNE10.jpg,AMSA10.jpg,AMNE20.jpg,MN,1,num_8,16,num_8,0.766823519254,,,2017_Apr_10_1433,59.9959781854,FEMA4ImagesEEG,001,200118,
AFNE01.JPG,AFNE01.JPG,AFNE01.JPG,AFNE01.JPG,AFNE01.JPG,AFNE01.JPG,,,,,,,,,,,,,,,,,,,,,3,1,31,3,,,AMNE16.jpg,AMNE03.jpg,AMSA15.jpg,AMSA10.jpg,AMNE03.jpg,MN,1,num_6,32,num_8,0.683509456925,,,2017_Apr_10_1433,59.9959781854,FEMA4ImagesEEG,001,200118,
AFNE01.JPG,AFNE01.JPG,AFNE01.JPG,AFNE01.JPG,AFNE01.JPG,AFNE01.JPG,,,,,,,,,,,,,,,,,,,,,3,2,32,4,,,AMNE09.jpg,AMSA11.jpg,AMNE16.jpg,AMSA01.jpg,AMSA01.jpg,MS,2,num_4,32,num_6,0.900114920922,,,2017_Apr_10_1433,59.9959781854,FEMA4ImagesEEG,001,200118,
AFNE01.JPG,AFNE01.JPG,AFNE01.JPG,AFNE01.JPG,AFNE01.JPG,AFNE01.JPG,,,,,,,,,,,,,,,,,,,,,3,3,33,0,,,AMSA15.jpg,AMSA06.jpg,AMNE02.jpg,AMNE11.jpg,AMNE02.jpg,MN,1,num_2,32,num_6,1.63344327221,,,2017_Apr_10_1433,59.9959781854,FEMA4ImagesEEG,001,200118,
AFNE01.JPG,AFNE01.JPG,AFNE01.JPG,AFNE01.JPG,AFNE01.JPG,AFNE01.JPG,,,,,,,,,,,,,,,,,,,,,3,4,34,7,,,AMSA12.jpg,AMSA04.jpg,AMNE08.jpg,AMNE04.jpg,AMNE04.jpg,MN,1,num_4,32,num_6,0.733486796496,,,2017_Apr_10_1433,59.9959781854,FEMA4ImagesEEG,001,200118,
AFNE01.JPG,AFNE01.JPG,AFNE01.JPG,AFNE01.JPG,AFNE01.JPG,AFNE01.JPG,,,,,,,,,,,,,,,,,,,,,3,5,35,6,,,AMNE11.jpg,AMSA10.jpg,AMSA20.jpg,AMNE01.jpg,AMSA20.jpg,MS,2,num_2,16,num_2,0.533482177882,,,2017_Apr_10_1433,59.9959781854,FEMA4ImagesEEG,001,200118,
AFNE01.JPG,AFNE01.JPG,AFNE01.JPG,AFNE01.JPG,AFNE01.JPG,AFNE01.JPG,,,,,,,,,,,,,,,,,,,,,3,6,36,2,,,AMNE08.jpg,AMNE02.jpg,AMSA12.jpg,AMSA07.jpg,AMSA07.jpg,MS,2,num_4,16,num_4,0.550161284162,,,2017_Apr_10_1433,59.9959781854,FEMA4ImagesEEG,001,200118,
AFNE01.JPG,AFNE01.JPG,AFNE01.JPG,AFNE01.JPG,AFNE01.JPG,AFNE01.JPG,,,,,,,,,,,,,,,,,,,,,3,7,37,9,,,AMSA11.jpg,AMSA15.jpg,AMNE01.jpg,AMNE16.jpg,AMNE01.jpg,MN,1,num_2,16,num_2,0.966763348319,,,2017_Apr_10_1433,59.9959781854,FEMA4ImagesEEG,001,200118,
AFNE01.JPG,AFNE01.JPG,AFNE01.JPG,AFNE01.JPG,AFNE01.JPG,AFNE01.JPG,,,,,,,,,,,,,,,,,,,,,3,8,38,8,,,AMNE18.jpg,AMSA05.jpg,AMNE07.jpg,AMSA03.jpg,AMNE18.jpg,MN,1,num_8,16,num_8,0.983431869885,,,2017_Apr_10_1433,59.9959781854,FEMA4ImagesEEG,001,200118,
