IPosition2,IPosition3,IPosition1,IPosition6,IPosition4,IPosition5,TrialsF1.thisRepN,TrialsF1.thisTrialN,TrialsF1.thisN,TrialsF1.thisIndex,TrialsM1.thisRepN,TrialsM1.thisTrialN,TrialsM1.thisN,TrialsM1.thisIndex,TrialsF2.thisRepN,TrialsF2.thisTrialN,TrialsF2.thisN,TrialsF2.thisIndex,TrialsM2.thisRepN,TrialsM2.thisTrialN,TrialsM2.thisN,TrialsM2.thisIndex,TrialsF3.thisRepN,TrialsF3.thisTrialN,TrialsF3.thisN,TrialsF3.thisIndex,TrialsM3.thisRepN,TrialsM3.thisTrialN,TrialsM3.thisN,TrialsM3.thisIndex,InstrKey_resp.keys,InstrKey_resp.rt,Image0 _Position,Image1 _Position,Image2 _Position,Image3 _Position,Center_image,condition,code,correct_answer,accuracy,Key_Resp.keys,Key_Resp.rt,BreakKey_resp.keys,BreakKey_resp.rt,date,frameRate,expName,session,participant,
,,,,,,,,,,,,,,,,,,,,,,,,,,,,,,space,15.0995938471,,,,,,,,,,,,,,2017_Apr_12_1643,60.0116835184,FEMA4ImagesEEG,001,200110,
AMSA25.JPG,AMNE24.JPG,AMSA24.JPG,AMNE26.JPG,AMSA21.JPG,AMNE25.JPG,0,0,0,3,,,,,,,,,,,,,,,,,,,,,,,AFSA19.jpg,AFNE08.jpg,AFSA03.jpg,AFNE06.jpg,AFNE06.jpg,FN,3,num_4,32,num_8,2.08334004227,,,2017_Apr_12_1643,60.0116835184,FEMA4ImagesEEG,001,200110,
AMSA21.JPG,AMNE23.JPG,AMNE21.JPG,AMSA25.JPG,AMNE25.JPG,AMSA23.JPG,0,1,1,5,,,,,,,,,,,,,,,,,,,,,,,AFNE19.jpg,AFNE10.jpg,AFSA05.jpg,AFSA09.jpg,AFNE19.jpg,FN,3,num_8,16,num_8,0.833541867323,,,2017_Apr_12_1643,60.0116835184,FEMA4ImagesEEG,001,200110,
AFNE23.JPG,AFNE24.JPG,AFNE22.JPG,AFSA24.JPG,AFSA22.JPG,AFSA23.JPG,0,2,2,8,,,,,,,,,,,,,,,,,,,,,,,AFNE18.jpg,AFSA04.jpg,AFSA09.jpg,AFNE16.jpg,AFSA09.jpg,FS,4,num_2,32,num_6,1.10023436463,,,2017_Apr_12_1643,60.0116835184,FEMA4ImagesEEG,001,200110,
AMNE23.JPG,AMNE24.JPG,AMNE22.JPG,AMSA24.JPG,AMSA22.JPG,AMSA23.JPG,0,3,3,9,,,,,,,,,,,,,,,,,,,,,,,AFSA02.jpg,AFNE02.jpg,AFNE05.jpg,AFSA08.jpg,AFSA08.jpg,FS,4,num_4,16,num_4,0.700143659487,,,2017_Apr_12_1643,60.0116835184,FEMA4ImagesEEG,001,200110,
AFNE22.JPG,AFSA24.JPG,AFSA22.JPG,AFNE25.JPG,AFNE24.JPG,AFSA25.JPG,0,4,4,6,,,,,,,,,,,,,,,,,,,,,,,AFSA12.jpg,AFNE15.jpg,AFNE12.jpg,AFSA07.jpg,AFNE12.jpg,FN,3,num_2,16,num_2,0.966640184168,,,2017_Apr_12_1643,60.0116835184,FEMA4ImagesEEG,001,200110,
AFSA21.JPG,AFNE22.JPG,AFNE21.JPG,AFSA23.JPG,AFSA22.JPG,AFNE23.JPG,0,5,5,0,,,,,,,,,,,,,,,,,,,,,,,AFNE09.jpg,AFSA05.jpg,AFNE19.jpg,AFSA20.jpg,AFSA05.jpg,FS,4,num_6,16,num_6,1.86671501305,,,2017_Apr_12_1643,60.0116835184,FEMA4ImagesEEG,001,200110,
AFSA25.JPG,AFNE24.JPG,AFSA24.JPG,AFNE21.JPG,AFSA21.JPG,AFNE25.JPG,0,6,6,2,,,,,,,,,,,,,,,,,,,,,,,AFNE01.jpg,AFNE18.jpg,AFSA16.jpg,AFSA08.jpg,AFSA08.jpg,FS,4,num_4,16,num_4,0.883567959536,,,2017_Apr_12_1643,60.0116835184,FEMA4ImagesEEG,001,200110,
AFSA21.JPG,AFNE23.JPG,AFNE21.JPG,AFSA25.JPG,AFNE25.JPG,AFSA23.JPG,0,7,7,4,,,,,,,,,,,,,,,,,,,,,,,AFNE12.jpg,AFNE14.jpg,AFSA08.jpg,AFSA01.jpg,AFSA08.jpg,FS,4,num_2,32,num_4,1.53340937011,,,2017_Apr_12_1643,60.0116835184,FEMA4ImagesEEG,001,200110,
AMSA21.JPG,AMNE22.JPG,AMNE21.JPG,AMSA23.JPG,AMSA22.JPG,AMNE23.JPG,0,8,8,1,,,,,,,,,,,,,,,,,,,,,,,AFNE03.jpg,AFNE10.jpg,AFSA06.jpg,AFSA08.jpg,AFNE10.jpg,FN,3,num_6,16,num_6,1.00012220209,,,2017_Apr_12_1643,60.0116835184,FEMA4ImagesEEG,001,200110,
AMNE22.JPG,AMSA24.JPG,AMSA22.JPG,AMNE25.JPG,AMNE24.JPG,AMSA25.JPG,0,9,9,7,,,,,,,,,,,,,,,,,,,,,,,AFSA06.jpg,AFNE13.jpg,AFSA10.jpg,AFNE02.jpg,AFNE13.jpg,FN,3,num_6,32,num_8,1.06679885415,,,2017_Apr_12_1643,60.0116835184,FEMA4ImagesEEG,001,200110,
AMSA25.JPG,AMNE24.JPG,AMSA24.JPG,AMNE26.JPG,AMSA21.JPG,AMNE25.JPG,,,,,0,0,0,3,,,,,,,,,,,,,,,,,,,AMNE17.jpg,AMNE10.jpg,AMSA03.jpg,AMSA06.jpg,AMNE10.jpg,MN,1,num_6,16,num_6,0.950164427515,,,2017_Apr_12_1643,60.0116835184,FEMA4ImagesEEG,001,200110,
AMNE23.JPG,AMNE24.JPG,AMNE22.JPG,AMSA24.JPG,AMSA22.JPG,AMSA23.JPG,,,,,0,1,1,9,,,,,,,,,,,,,,,,,,,AMSA17.jpg,AMNE19.jpg,AMSA09.jpg,AMNE09.jpg,AMSA09.jpg,MS,2,num_2,16,num_2,0.816798292566,,,2017_Apr_12_1643,60.0116835184,FEMA4ImagesEEG,001,200110,
AFNE22.JPG,AFSA24.JPG,AFSA22.JPG,AFNE25.JPG,AFNE24.JPG,AFSA25.JPG,,,,,0,2,2,6,,,,,,,,,,,,,,,,,,,AMSA14.jpg,AMNE01.jpg,AMSA09.jpg,AMNE18.jpg,AMSA14.jpg,MS,2,num_8,16,num_8,0.650164395105,,,2017_Apr_12_1643,60.0116835184,FEMA4ImagesEEG,001,200110,
AMSA21.JPG,AMNE22.JPG,AMNE21.JPG,AMSA23.JPG,AMSA22.JPG,AMNE23.JPG,,,,,0,3,3,1,,,,,,,,,,,,,,,,,,,AMSA03.jpg,AMNE09.jpg,AMNE14.jpg,AMSA06.jpg,AMNE14.jpg,MN,1,num_2,16,num_2,1.95007109176,,,2017_Apr_12_1643,60.0116835184,FEMA4ImagesEEG,001,200110,
AFSA21.JPG,AFNE23.JPG,AFNE21.JPG,AFSA25.JPG,AFNE25.JPG,AFSA23.JPG,,,,,0,4,4,4,,,,,,,,,,,,,,,,,,,AMSA03.jpg,AMSA11.jpg,AMNE20.jpg,AMNE17.jpg,AMSA11.jpg,MS,2,num_6,16,num_6,1.35011689365,,,2017_Apr_12_1643,60.0116835184,FEMA4ImagesEEG,001,200110,
AFNE23.JPG,AFNE24.JPG,AFNE22.JPG,AFSA24.JPG,AFSA22.JPG,AFSA23.JPG,,,,,0,5,5,8,,,,,,,,,,,,,,,,,,,AMSA07.jpg,AMSA12.jpg,AMNE08.jpg,AMNE16.jpg,AMSA07.jpg,MS,2,num_8,16,num_8,1.03347784793,,,2017_Apr_12_1643,60.0116835184,FEMA4ImagesEEG,001,200110,
AFSA21.JPG,AFNE22.JPG,AFNE21.JPG,AFSA23.JPG,AFSA22.JPG,AFNE23.JPG,,,,,0,6,6,0,,,,,,,,,,,,,,,,,,,AMNE10.jpg,AMSA06.jpg,AMNE15.jpg,AMSA02.jpg,AMNE10.jpg,MN,1,num_8,32,num_2,1.26676049363,,,2017_Apr_12_1643,60.0116835184,FEMA4ImagesEEG,001,200110,
AMNE22.JPG,AMSA24.JPG,AMSA22.JPG,AMNE25.JPG,AMNE24.JPG,AMSA25.JPG,,,,,0,7,7,7,,,,,,,,,,,,,,,,,,,AMSA14.jpg,AMNE14.jpg,AMSA12.jpg,AMNE03.jpg,AMNE03.jpg,MN,1,num_4,16,num_4,0.9501381265,,,2017_Apr_12_1643,60.0116835184,FEMA4ImagesEEG,001,200110,
AFSA25.JPG,AFNE24.JPG,AFSA24.JPG,AFNE21.JPG,AFSA21.JPG,AFNE25.JPG,,,,,0,8,8,2,,,,,,,,,,,,,,,,,,,AMNE13.jpg,AMSA19.jpg,AMNE18.jpg,AMSA12.jpg,AMSA19.jpg,MS,2,num_6,32,num_4,1.11678357096,,,2017_Apr_12_1643,60.0116835184,FEMA4ImagesEEG,001,200110,
AMSA21.JPG,AMNE23.JPG,AMNE21.JPG,AMSA25.JPG,AMNE25.JPG,AMSA23.JPG,,,,,0,9,9,5,,,,,,,,,,,,,,,,,,,AMSA20.jpg,AMSA10.jpg,AMNE11.jpg,AMNE17.jpg,AMSA10.jpg,MS,2,num_6,16,num_6,0.683509136084,,,2017_Apr_12_1643,60.0116835184,FEMA4ImagesEEG,001,200110,
AMSA25.JPG,AMNE24.JPG,AMSA24.JPG,AMNE26.JPG,AMSA21.JPG,AMNE25.JPG,,,,,,,,,0,0,0,3,,,,,,,,,,,,,,,AFSA16.jpg,AFNE13.jpg,AFNE05.jpg,AFSA06.jpg,AFSA16.jpg,FS,4,num_8,32,num_4,1.85032778,,,2017_Apr_12_1643,60.0116835184,FEMA4ImagesEEG,001,200110,
AFNE23.JPG,AFNE24.JPG,AFNE22.JPG,AFSA24.JPG,AFSA22.JPG,AFSA23.JPG,,,,,,,,,0,1,1,8,,,,,,,,,,,,,,,AFNE17.jpg,AFSA04.jpg,AFSA09.jpg,AFNE13.jpg,AFSA04.jpg,FS,4,num_6,32,num_2,0.916787291411,,,2017_Apr_12_1643,60.0116835184,FEMA4ImagesEEG,001,200110,
AFSA21.JPG,AFNE23.JPG,AFNE21.JPG,AFSA25.JPG,AFNE25.JPG,AFSA23.JPG,,,,,,,,,0,2,2,4,,,,,,,,,,,,,,,AFSA15.jpg,AFNE13.jpg,AFSA02.jpg,AFNE20.jpg,AFSA15.jpg,FS,4,num_8,16,num_8,1.15011099167,,,2017_Apr_12_1643,60.0116835184,FEMA4ImagesEEG,001,200110,
AMSA21.JPG,AMNE22.JPG,AMNE21.JPG,AMSA23.JPG,AMSA22.JPG,AMNE23.JPG,,,,,,,,,0,3,3,1,,,,,,,,,,,,,,,AFSA08.jpg,AFSA06.jpg,AFNE06.jpg,AFNE01.jpg,AFSA08.jpg,FS,4,num_8,16,num_8,1.24976096861,,,2017_Apr_12_1643,60.0116835184,FEMA4ImagesEEG,001,200110,
AFSA25.JPG,AFNE24.JPG,AFSA24.JPG,AFNE21.JPG,AFSA21.JPG,AFNE25.JPG,,,,,,,,,0,4,4,2,,,,,,,,,,,,,,,AFSA14.jpg,AFSA09.jpg,AFNE10.jpg,AFNE03.jpg,AFNE10.jpg,FN,3,num_2,16,num_2,1.15013825474,,,2017_Apr_12_1643,60.0116835184,FEMA4ImagesEEG,001,200110,
AFNE22.JPG,AFSA24.JPG,AFSA22.JPG,AFNE25.JPG,AFNE24.JPG,AFSA25.JPG,,,,,,,,,0,5,5,6,,,,,,,,,,,,,,,AFNE07.jpg,AFSA17.jpg,AFNE12.jpg,AFSA14.jpg,AFSA17.jpg,FS,4,num_6,16,num_6,2.10006276891,,,2017_Apr_12_1643,60.0116835184,FEMA4ImagesEEG,001,200110,
AMNE22.JPG,AMSA24.JPG,AMSA22.JPG,AMNE25.JPG,AMNE24.JPG,AMSA25.JPG,,,,,,,,,0,6,6,7,,,,,,,,,,,,,,,AFSA20.jpg,AFNE10.jpg,AFNE12.jpg,AFSA14.jpg,AFSA14.jpg,FS,4,num_4,16,num_4,1.08345005615,,,2017_Apr_12_1643,60.0116835184,FEMA4ImagesEEG,001,200110,
AFSA21.JPG,AFNE22.JPG,AFNE21.JPG,AFSA23.JPG,AFSA22.JPG,AFNE23.JPG,,,,,,,,,0,7,7,0,,,,,,,,,,,,,,,AFSA05.jpg,AFSA15.jpg,AFNE18.jpg,AFNE05.jpg,AFSA05.jpg,FS,4,num_8,16,num_8,0.833475474268,,,2017_Apr_12_1643,60.0116835184,FEMA4ImagesEEG,001,200110,
AMSA21.JPG,AMNE23.JPG,AMNE21.JPG,AMSA25.JPG,AMNE25.JPG,AMSA23.JPG,,,,,,,,,0,8,8,5,,,,,,,,,,,,,,,AFNE20.jpg,AFSA11.jpg,AFSA20.jpg,AFNE12.jpg,AFSA20.jpg,FS,4,num_2,16,num_2,0.800119508058,,,2017_Apr_12_1643,60.0116835184,FEMA4ImagesEEG,001,200110,
AMNE23.JPG,AMNE24.JPG,AMNE22.JPG,AMSA24.JPG,AMSA22.JPG,AMSA23.JPG,,,,,,,,,0,9,9,9,,,,,,,,,,,,,,,AFNE15.jpg,AFSA04.jpg,AFNE03.jpg,AFSA01.jpg,AFNE15.jpg,FN,3,num_8,32,num_4,1.78339389432,,,2017_Apr_12_1643,60.0116835184,FEMA4ImagesEEG,001,200110,
AMNE23.JPG,AMNE24.JPG,AMNE22.JPG,AMSA24.JPG,AMSA22.JPG,AMSA23.JPG,,,,,,,,,,,,,0,0,0,9,,,,,,,,,,,AMNE09.jpg,AMSA15.jpg,AMSA19.jpg,AMNE03.jpg,AMNE09.jpg,MN,1,num_8,32,num_2,1.51672577392,,,2017_Apr_12_1643,60.0116835184,FEMA4ImagesEEG,001,200110,
AFSA21.JPG,AFNE23.JPG,AFNE21.JPG,AFSA25.JPG,AFNE25.JPG,AFSA23.JPG,,,,,,,,,,,,,0,1,1,4,,,,,,,,,,,AMNE03.jpg,AMNE16.jpg,AMSA13.jpg,AMSA12.jpg,AMSA12.jpg,MS,2,num_4,32,num_6,0.883451531176,,,2017_Apr_12_1643,60.0116835184,FEMA4ImagesEEG,001,200110,
AMNE22.JPG,AMSA24.JPG,AMSA22.JPG,AMNE25.JPG,AMNE24.JPG,AMSA25.JPG,,,,,,,,,,,,,0,2,2,7,,,,,,,,,,,AMNE04.jpg,AMNE06.jpg,AMSA02.jpg,AMSA13.jpg,AMNE04.jpg,MN,1,num_8,16,num_8,0.783496851567,,,2017_Apr_12_1643,60.0116835184,FEMA4ImagesEEG,001,200110,
AMSA21.JPG,AMNE22.JPG,AMNE21.JPG,AMSA23.JPG,AMSA22.JPG,AMNE23.JPG,,,,,,,,,,,,,0,3,3,1,,,,,,,,,,,AMNE01.jpg,AMSA20.jpg,AMSA03.jpg,AMNE11.jpg,AMSA03.jpg,MS,2,num_2,32,num_6,1.06677351613,,,2017_Apr_12_1643,60.0116835184,FEMA4ImagesEEG,001,200110,
AFNE23.JPG,AFNE24.JPG,AFNE22.JPG,AFSA24.JPG,AFSA22.JPG,AFSA23.JPG,,,,,,,,,,,,,0,4,4,8,,,,,,,,,,,AMSA17.jpg,AMNE19.jpg,AMSA13.jpg,AMNE13.jpg,AMSA17.jpg,MS,2,num_8,32,num_4,0.916755217593,,,2017_Apr_12_1643,60.0116835184,FEMA4ImagesEEG,001,200110,
AFNE22.JPG,AFSA24.JPG,AFSA22.JPG,AFNE25.JPG,AFNE24.JPG,AFSA25.JPG,,,,,,,,,,,,,0,5,5,6,,,,,,,,,,,AMSA03.jpg,AMSA14.jpg,AMNE18.jpg,AMNE07.jpg,AMNE07.jpg,MN,1,num_4,16,num_4,1.05011878582,,,2017_Apr_12_1643,60.0116835184,FEMA4ImagesEEG,001,200110,
AMSA25.JPG,AMNE24.JPG,AMSA24.JPG,AMNE26.JPG,AMSA21.JPG,AMNE25.JPG,,,,,,,,,,,,,0,6,6,3,,,,,,,,,,,AMNE19.jpg,AMNE05.jpg,AMSA09.jpg,AMSA05.jpg,AMNE19.jpg,MN,1,num_8,16,num_8,0.716808331665,,,2017_Apr_12_1643,60.0116835184,FEMA4ImagesEEG,001,200110,
AFSA25.JPG,AFNE24.JPG,AFSA24.JPG,AFNE21.JPG,AFSA21.JPG,AFNE25.JPG,,,,,,,,,,,,,0,7,7,2,,,,,,,,,,,AMNE10.jpg,AMSA14.jpg,AMNE19.jpg,AMSA06.jpg,AMSA06.jpg,MS,2,num_4,32,num_8,2.06669140607,,,2017_Apr_12_1643,60.0116835184,FEMA4ImagesEEG,001,200110,
AFSA21.JPG,AFNE22.JPG,AFNE21.JPG,AFSA23.JPG,AFSA22.JPG,AFNE23.JPG,,,,,,,,,,,,,0,8,8,0,,,,,,,,,,,AMSA18.jpg,AMNE14.jpg,AMNE10.jpg,AMSA10.jpg,AMSA18.jpg,MS,2,num_8,16,num_8,0.750144413207,,,2017_Apr_12_1643,60.0116835184,FEMA4ImagesEEG,001,200110,
AMSA21.JPG,AMNE23.JPG,AMNE21.JPG,AMSA25.JPG,AMNE25.JPG,AMSA23.JPG,,,,,,,,,,,,,0,9,9,5,,,,,,,,,,,AMSA03.jpg,AMSA16.jpg,AMNE01.jpg,AMNE17.jpg,AMNE17.jpg,MN,1,num_4,16,num_4,1.16676315572,,,2017_Apr_12_1643,60.0116835184,FEMA4ImagesEEG,001,200110,
AFSA25.JPG,AFNE24.JPG,AFSA24.JPG,AFNE21.JPG,AFSA21.JPG,AFNE25.JPG,,,,,,,,,,,,,,,,,0,0,0,2,,,,,,,AFSA10.jpg,AFSA04.jpg,AFNE10.jpg,AFNE08.jpg,AFSA04.jpg,FS,4,num_6,16,num_6,1.01681413734,,,2017_Apr_12_1643,60.0116835184,FEMA4ImagesEEG,001,200110,
AFNE23.JPG,AFNE24.JPG,AFNE22.JPG,AFSA24.JPG,AFSA22.JPG,AFSA23.JPG,,,,,,,,,,,,,,,,,0,1,1,8,,,,,,,AFSA02.jpg,AFSA08.jpg,AFNE09.jpg,AFNE11.jpg,AFNE09.jpg,FN,3,num_2,16,num_2,1.8169775866,,,2017_Apr_12_1643,60.0116835184,FEMA4ImagesEEG,001,200110,
AMNE22.JPG,AMSA24.JPG,AMSA22.JPG,AMNE25.JPG,AMNE24.JPG,AMSA25.JPG,,,,,,,,,,,,,,,,,0,2,2,7,,,,,,,AFNE13.jpg,AFSA14.jpg,AFSA19.jpg,AFNE08.jpg,AFSA14.jpg,FS,4,num_6,16,num_6,1.58349383669,,,2017_Apr_12_1643,60.0116835184,FEMA4ImagesEEG,001,200110,
AFSA21.JPG,AFNE23.JPG,AFNE21.JPG,AFSA25.JPG,AFNE25.JPG,AFSA23.JPG,,,,,,,,,,,,,,,,,0,3,3,4,,,,,,,AFSA06.jpg,AFNE12.jpg,AFNE06.jpg,AFSA17.jpg,AFNE06.jpg,FN,3,num_2,16,num_2,1.10008778656,,,2017_Apr_12_1643,60.0116835184,FEMA4ImagesEEG,001,200110,
AMSA21.JPG,AMNE23.JPG,AMNE21.JPG,AMSA25.JPG,AMNE25.JPG,AMSA23.JPG,,,,,,,,,,,,,,,,,0,4,4,5,,,,,,,AFSA08.jpg,AFNE04.jpg,AFSA05.jpg,AFNE07.jpg,AFNE04.jpg,FN,3,num_6,32,num_4,0.966637618374,,,2017_Apr_12_1643,60.0116835184,FEMA4ImagesEEG,001,200110,
AMNE23.JPG,AMNE24.JPG,AMNE22.JPG,AMSA24.JPG,AMSA22.JPG,AMSA23.JPG,,,,,,,,,,,,,,,,,0,5,5,9,,,,,,,AFSA13.jpg,AFNE08.jpg,AFNE05.jpg,AFSA18.jpg,AFNE08.jpg,FN,3,num_6,16,num_6,1.03349452605,,,2017_Apr_12_1643,60.0116835184,FEMA4ImagesEEG,001,200110,
AFSA21.JPG,AFNE22.JPG,AFNE21.JPG,AFSA23.JPG,AFSA22.JPG,AFNE23.JPG,,,,,,,,,,,,,,,,,0,6,6,0,,,,,,,AFSA09.jpg,AFNE20.jpg,AFSA18.jpg,AFNE16.jpg,AFSA18.jpg,FS,4,num_2,32,num_8,1.21676294738,,,2017_Apr_12_1643,60.0116835184,FEMA4ImagesEEG,001,200110,
AMSA25.JPG,AMNE24.JPG,AMSA24.JPG,AMNE26.JPG,AMSA21.JPG,AMNE25.JPG,,,,,,,,,,,,,,,,,0,7,7,3,,,,,,,AFNE03.jpg,AFSA16.jpg,AFNE19.jpg,AFSA07.jpg,AFNE19.jpg,FN,3,num_2,16,num_2,1.01674389513,,,2017_Apr_12_1643,60.0116835184,FEMA4ImagesEEG,001,200110,
AMSA21.JPG,AMNE22.JPG,AMNE21.JPG,AMSA23.JPG,AMSA22.JPG,AMNE23.JPG,,,,,,,,,,,,,,,,,0,8,8,1,,,,,,,AFSA04.jpg,AFNE20.jpg,AFNE09.jpg,AFSA17.jpg,AFSA04.jpg,FS,4,num_8,16,num_8,0.550180207472,,,2017_Apr_12_1643,60.0116835184,FEMA4ImagesEEG,001,200110,
AFNE22.JPG,AFSA24.JPG,AFSA22.JPG,AFNE25.JPG,AFNE24.JPG,AFSA25.JPG,,,,,,,,,,,,,,,,,0,9,9,6,,,,,,,AFSA14.jpg,AFNE03.jpg,AFNE09.jpg,AFSA20.jpg,AFNE03.jpg,FN,3,num_6,16,num_6,0.650156376418,,,2017_Apr_12_1643,60.0116835184,FEMA4ImagesEEG,001,200110,
AFNE22.JPG,AFSA24.JPG,AFSA22.JPG,AFNE25.JPG,AFNE24.JPG,AFSA25.JPG,,,,,,,,,,,,,,,,,,,,,0,0,0,6,,,AMSA20.jpg,AMSA02.jpg,AMNE20.jpg,AMNE11.jpg,AMNE20.jpg,MN,1,num_2,32,num_4,0.766815821175,,,2017_Apr_12_1643,60.0116835184,FEMA4ImagesEEG,001,200110,
AMSA21.JPG,AMNE23.JPG,AMNE21.JPG,AMSA25.JPG,AMNE25.JPG,AMSA23.JPG,,,,,,,,,,,,,,,,,,,,,0,1,1,5,,,AMNE09.jpg,AMNE02.jpg,AMSA17.jpg,AMSA01.jpg,AMSA01.jpg,MS,2,num_4,16,num_4,0.916782159824,,,2017_Apr_12_1643,60.0116835184,FEMA4ImagesEEG,001,200110,
AMSA21.JPG,AMNE22.JPG,AMNE21.JPG,AMSA23.JPG,AMSA22.JPG,AMNE23.JPG,,,,,,,,,,,,,,,,,,,,,0,2,2,1,,,AMNE05.jpg,AMNE20.jpg,AMSA02.jpg,AMSA04.jpg,AMNE20.jpg,MN,1,num_6,16,num_6,0.883488416206,,,2017_Apr_12_1643,60.0116835184,FEMA4ImagesEEG,001,200110,
AFNE23.JPG,AFNE24.JPG,AFNE22.JPG,AFSA24.JPG,AFSA22.JPG,AFSA23.JPG,,,,,,,,,,,,,,,,,,,,,0,3,3,8,,,AMSA04.jpg,AMNE03.jpg,AMSA07.jpg,AMNE17.jpg,AMNE03.jpg,MN,1,num_6,16,num_6,0.933456454426,,,2017_Apr_12_1643,60.0116835184,FEMA4ImagesEEG,001,200110,
AMNE23.JPG,AMNE24.JPG,AMNE22.JPG,AMSA24.JPG,AMSA22.JPG,AMSA23.JPG,,,,,,,,,,,,,,,,,,,,,0,4,4,9,,,AMNE09.jpg,AMNE06.jpg,AMSA02.jpg,AMSA10.jpg,AMNE09.jpg,MN,1,num_8,16,num_8,1.83337155497,,,2017_Apr_12_1643,60.0116835184,FEMA4ImagesEEG,001,200110,
AMSA25.JPG,AMNE24.JPG,AMSA24.JPG,AMNE26.JPG,AMSA21.JPG,AMNE25.JPG,,,,,,,,,,,,,,,,,,,,,0,5,5,3,,,AMNE13.jpg,AMNE18.jpg,AMSA05.jpg,AMSA14.jpg,AMSA05.jpg,MS,2,num_2,16,num_2,0.833504020236,,,2017_Apr_12_1643,60.0116835184,FEMA4ImagesEEG,001,200110,
AFSA21.JPG,AFNE23.JPG,AFNE21.JPG,AFSA25.JPG,AFNE25.JPG,AFSA23.JPG,,,,,,,,,,,,,,,,,,,,,0,6,6,4,,,AMNE20.jpg,AMSA14.jpg,AMNE15.jpg,AMSA03.jpg,AMNE20.jpg,MN,1,num_8,16,num_8,1.55007115612,,,2017_Apr_12_1643,60.0116835184,FEMA4ImagesEEG,001,200110,
AMNE22.JPG,AMSA24.JPG,AMSA22.JPG,AMNE25.JPG,AMNE24.JPG,AMSA25.JPG,,,,,,,,,,,,,,,,,,,,,0,7,7,7,,,AMSA15.jpg,AMNE17.jpg,AMNE14.jpg,AMSA04.jpg,AMNE14.jpg,MN,1,num_2,32,num_6,1.26667549787,,,2017_Apr_12_1643,60.0116835184,FEMA4ImagesEEG,001,200110,
AFSA21.JPG,AFNE22.JPG,AFNE21.JPG,AFSA23.JPG,AFSA22.JPG,AFNE23.JPG,,,,,,,,,,,,,,,,,,,,,0,8,8,0,,,AMNE06.jpg,AMSA18.jpg,AMSA17.jpg,AMNE04.jpg,AMNE06.jpg,MN,1,num_8,32,num_2,1.06676036539,,,2017_Apr_12_1643,60.0116835184,FEMA4ImagesEEG,001,200110,
AFSA25.JPG,AFNE24.JPG,AFSA24.JPG,AFNE21.JPG,AFSA21.JPG,AFNE25.JPG,,,,,,,,,,,,,,,,,,,,,0,9,9,2,,,AMNE20.jpg,AMSA12.jpg,AMSA17.jpg,AMNE05.jpg,AMNE05.jpg,MN,1,num_4,16,num_4,1.03342620889,,,2017_Apr_12_1643,60.0116835184,FEMA4ImagesEEG,001,200110,
,,,,,,,,,,,,,,,,,,,,,,,,,,,,,,,,,,,,,,,,,,,space,4.29954201588,2017_Apr_12_1643,60.0116835184,FEMA4ImagesEEG,001,200110,
AFNE01.JPG,AFNE01.JPG,AFNE01.JPG,AFNE01.JPG,AFNE01.JPG,AFNE01.JPG,0,0,0,4,,,,,,,,,,,,,,,,,,,,,,,AFSA01.jpg,AFNE11.jpg,AFNE01.jpg,AFSA09.jpg,AFSA01.jpg,FS,4,num_8,16,num_8,3.26659884118,,,2017_Apr_12_1643,60.0116835184,FEMA4ImagesEEG,001,200110,
AFNE01.JPG,AFNE01.JPG,AFNE01.JPG,AFNE01.JPG,AFNE01.JPG,AFNE01.JPG,0,1,1,3,,,,,,,,,,,,,,,,,,,,,,,AFNE08.jpg,AFSA07.jpg,AFNE04.jpg,AFSA10.jpg,AFSA07.jpg,FS,4,num_6,16,num_6,1.1668119086,,,2017_Apr_12_1643,60.0116835184,FEMA4ImagesEEG,001,200110,
AFNE01.JPG,AFNE01.JPG,AFNE01.JPG,AFNE01.JPG,AFNE01.JPG,AFNE01.JPG,0,2,2,6,,,,,,,,,,,,,,,,,,,,,,,AFSA08.jpg,AFSA17.jpg,AFNE11.jpg,AFNE19.jpg,AFNE11.jpg,FN,3,num_2,32,num_4,1.85008209338,,,2017_Apr_12_1643,60.0116835184,FEMA4ImagesEEG,001,200110,
AFNE01.JPG,AFNE01.JPG,AFNE01.JPG,AFNE01.JPG,AFNE01.JPG,AFNE01.JPG,0,3,3,7,,,,,,,,,,,,,,,,,,,,,,,AFNE05.jpg,AFSA18.jpg,AFSA05.jpg,AFNE17.jpg,AFNE05.jpg,FN,3,num_8,16,num_8,1.80006690649,,,2017_Apr_12_1643,60.0116835184,FEMA4ImagesEEG,001,200110,
AFNE01.JPG,AFNE01.JPG,AFNE01.JPG,AFNE01.JPG,AFNE01.JPG,AFNE01.JPG,0,4,4,2,,,,,,,,,,,,,,,,,,,,,,,AFSA19.jpg,AFSA15.jpg,AFNE02.jpg,AFNE01.jpg,AFSA19.jpg,FS,4,num_8,16,num_8,0.866882117931,,,2017_Apr_12_1643,60.0116835184,FEMA4ImagesEEG,001,200110,
AFNE01.JPG,AFNE01.JPG,AFNE01.JPG,AFNE01.JPG,AFNE01.JPG,AFNE01.JPG,0,5,5,1,,,,,,,,,,,,,,,,,,,,,,,AFNE09.jpg,AFSA15.jpg,AFNE16.jpg,AFSA14.jpg,AFNE09.jpg,FN,3,num_8,32,num_4,0.80012111133,,,2017_Apr_12_1643,60.0116835184,FEMA4ImagesEEG,001,200110,
AFNE01.JPG,AFNE01.JPG,AFNE01.JPG,AFNE01.JPG,AFNE01.JPG,AFNE01.JPG,0,6,6,9,,,,,,,,,,,,,,,,,,,,,,,AFNE11.jpg,AFSA16.jpg,AFSA11.jpg,AFNE15.jpg,AFNE15.jpg,FN,3,num_4,16,num_4,2.08338013478,,,2017_Apr_12_1643,60.0116835184,FEMA4ImagesEEG,001,200110,
AFNE01.JPG,AFNE01.JPG,AFNE01.JPG,AFNE01.JPG,AFNE01.JPG,AFNE01.JPG,0,7,7,0,,,,,,,,,,,,,,,,,,,,,,,AFSA01.jpg,AFNE15.jpg,AFSA02.jpg,AFNE04.jpg,AFNE04.jpg,FN,3,num_4,16,num_4,1.55008879676,,,2017_Apr_12_1643,60.0116835184,FEMA4ImagesEEG,001,200110,
AFNE01.JPG,AFNE01.JPG,AFNE01.JPG,AFNE01.JPG,AFNE01.JPG,AFNE01.JPG,0,8,8,5,,,,,,,,,,,,,,,,,,,,,,,AFSA16.jpg,AFNE01.jpg,AFSA20.jpg,AFNE13.jpg,AFNE13.jpg,FN,3,num_4,32,num_6,1.23346290179,,,2017_Apr_12_1643,60.0116835184,FEMA4ImagesEEG,001,200110,
AFNE01.JPG,AFNE01.JPG,AFNE01.JPG,AFNE01.JPG,AFNE01.JPG,AFNE01.JPG,0,9,9,8,,,,,,,,,,,,,,,,,,,,,,,AFNE05.jpg,AFSA13.jpg,AFSA11.jpg,AFNE17.jpg,AFNE05.jpg,FN,3,num_8,16,num_8,1.01664350415,,,2017_Apr_12_1643,60.0116835184,FEMA4ImagesEEG,001,200110,
AFNE01.JPG,AFNE01.JPG,AFNE01.JPG,AFNE01.JPG,AFNE01.JPG,AFNE01.JPG,1,0,10,9,,,,,,,,,,,,,,,,,,,,,,,AFSA17.jpg,AFNE06.jpg,AFNE08.jpg,AFSA16.jpg,AFSA16.jpg,FS,4,num_4,16,num_4,0.73346402403,,,2017_Apr_12_1643,60.0116835184,FEMA4ImagesEEG,001,200110,
AFNE01.JPG,AFNE01.JPG,AFNE01.JPG,AFNE01.JPG,AFNE01.JPG,AFNE01.JPG,1,1,11,1,,,,,,,,,,,,,,,,,,,,,,,AFSA18.jpg,AFNE02.jpg,AFSA11.jpg,AFNE13.jpg,AFSA18.jpg,FS,4,num_8,32,num_2,1.2834803341,,,2017_Apr_12_1643,60.0116835184,FEMA4ImagesEEG,001,200110,
AFNE01.JPG,AFNE01.JPG,AFNE01.JPG,AFNE01.JPG,AFNE01.JPG,AFNE01.JPG,1,2,12,6,,,,,,,,,,,,,,,,,,,,,,,AFSA12.jpg,AFNE01.jpg,AFNE19.jpg,AFSA07.jpg,AFSA12.jpg,FS,4,num_8,16,num_8,0.750171034597,,,2017_Apr_12_1643,60.0116835184,FEMA4ImagesEEG,001,200110,
AFNE01.JPG,AFNE01.JPG,AFNE01.JPG,AFNE01.JPG,AFNE01.JPG,AFNE01.JPG,1,3,13,3,,,,,,,,,,,,,,,,,,,,,,,AFNE19.jpg,AFSA09.jpg,AFSA18.jpg,AFNE04.jpg,AFNE19.jpg,FN,3,num_8,32,num_4,1.51659298735,,,2017_Apr_12_1643,60.0116835184,FEMA4ImagesEEG,001,200110,
AFNE01.JPG,AFNE01.JPG,AFNE01.JPG,AFNE01.JPG,AFNE01.JPG,AFNE01.JPG,1,4,14,2,,,,,,,,,,,,,,,,,,,,,,,AFNE13.jpg,AFSA15.jpg,AFSA09.jpg,AFNE14.jpg,AFNE13.jpg,FN,3,num_8,32,num_4,1.73343387432,,,2017_Apr_12_1643,60.0116835184,FEMA4ImagesEEG,001,200110,
AFNE01.JPG,AFNE01.JPG,AFNE01.JPG,AFNE01.JPG,AFNE01.JPG,AFNE01.JPG,1,5,15,0,,,,,,,,,,,,,,,,,,,,,,,AFSA11.jpg,AFNE01.jpg,AFNE04.jpg,AFSA14.jpg,AFSA14.jpg,FS,4,num_4,32,num_8,1.61669392418,,,2017_Apr_12_1643,60.0116835184,FEMA4ImagesEEG,001,200110,
AFNE01.JPG,AFNE01.JPG,AFNE01.JPG,AFNE01.JPG,AFNE01.JPG,AFNE01.JPG,1,6,16,5,,,,,,,,,,,,,,,,,,,,,,,AFSA15.jpg,AFNE20.jpg,AFNE05.jpg,AFSA12.jpg,AFNE05.jpg,FN,3,num_2,32,num_6,1.18342077266,,,2017_Apr_12_1643,60.0116835184,FEMA4ImagesEEG,001,200110,
AFNE01.JPG,AFNE01.JPG,AFNE01.JPG,AFNE01.JPG,AFNE01.JPG,AFNE01.JPG,1,7,17,4,,,,,,,,,,,,,,,,,,,,,,,AFSA13.jpg,AFSA15.jpg,AFNE14.jpg,AFNE08.jpg,AFNE08.jpg,FN,3,num_4,32,num_2,1.66673541162,,,2017_Apr_12_1643,60.0116835184,FEMA4ImagesEEG,001,200110,
AFNE01.JPG,AFNE01.JPG,AFNE01.JPG,AFNE01.JPG,AFNE01.JPG,AFNE01.JPG,1,8,18,7,,,,,,,,,,,,,,,,,,,,,,,AFSA20.jpg,AFSA01.jpg,AFNE01.jpg,AFNE19.jpg,AFNE19.jpg,FN,3,num_4,16,num_4,0.783496851567,,,2017_Apr_12_1643,60.0116835184,FEMA4ImagesEEG,001,200110,
AFNE01.JPG,AFNE01.JPG,AFNE01.JPG,AFNE01.JPG,AFNE01.JPG,AFNE01.JPG,1,9,19,8,,,,,,,,,,,,,,,,,,,,,,,AFSA11.jpg,AFSA06.jpg,AFNE18.jpg,AFNE19.jpg,AFNE18.jpg,FN,3,num_2,16,num_2,1.46647708816,,,2017_Apr_12_1643,60.0116835184,FEMA4ImagesEEG,001,200110,
AFNE01.JPG,AFNE01.JPG,AFNE01.JPG,AFNE01.JPG,AFNE01.JPG,AFNE01.JPG,2,0,20,7,,,,,,,,,,,,,,,,,,,,,,,AFNE14.jpg,AFSA03.jpg,AFSA10.jpg,AFNE08.jpg,AFNE14.jpg,FN,3,num_8,32,num_2,1.06681713602,,,2017_Apr_12_1643,60.0116835184,FEMA4ImagesEEG,001,200110,
AFNE01.JPG,AFNE01.JPG,AFNE01.JPG,AFNE01.JPG,AFNE01.JPG,AFNE01.JPG,2,1,21,4,,,,,,,,,,,,,,,,,,,,,,,AFNE17.jpg,AFNE02.jpg,AFSA11.jpg,AFSA18.jpg,AFNE17.jpg,FN,3,num_8,32,num_6,1.13354414515,,,2017_Apr_12_1643,60.0116835184,FEMA4ImagesEEG,001,200110,
AFNE01.JPG,AFNE01.JPG,AFNE01.JPG,AFNE01.JPG,AFNE01.JPG,AFNE01.JPG,2,2,22,8,,,,,,,,,,,,,,,,,,,,,,,AFNE16.jpg,AFNE20.jpg,AFSA18.jpg,AFSA07.jpg,AFSA07.jpg,FS,4,num_4,16,num_4,0.850300196093,,,2017_Apr_12_1643,60.0116835184,FEMA4ImagesEEG,001,200110,
AFNE01.JPG,AFNE01.JPG,AFNE01.JPG,AFNE01.JPG,AFNE01.JPG,AFNE01.JPG,2,3,23,1,,,,,,,,,,,,,,,,,,,,,,,AFNE16.jpg,AFSA02.jpg,AFNE04.jpg,AFSA19.jpg,AFNE04.jpg,FN,3,num_2,32,num_6,1.13345305482,,,2017_Apr_12_1643,60.0116835184,FEMA4ImagesEEG,001,200110,
AFNE01.JPG,AFNE01.JPG,AFNE01.JPG,AFNE01.JPG,AFNE01.JPG,AFNE01.JPG,2,4,24,3,,,,,,,,,,,,,,,,,,,,,,,AFNE16.jpg,AFSA02.jpg,AFNE04.jpg,AFSA16.jpg,AFNE04.jpg,FN,3,num_2,16,num_2,1.01678783679,,,2017_Apr_12_1643,60.0116835184,FEMA4ImagesEEG,001,200110,
AFNE01.JPG,AFNE01.JPG,AFNE01.JPG,AFNE01.JPG,AFNE01.JPG,AFNE01.JPG,2,5,25,5,,,,,,,,,,,,,,,,,,,,,,,AFNE18.jpg,AFSA04.jpg,AFSA10.jpg,AFNE03.jpg,AFSA10.jpg,FS,4,num_2,16,num_2,1.50012556976,,,2017_Apr_12_1643,60.0116835184,FEMA4ImagesEEG,001,200110,
AFNE01.JPG,AFNE01.JPG,AFNE01.JPG,AFNE01.JPG,AFNE01.JPG,AFNE01.JPG,2,6,26,2,,,,,,,,,,,,,,,,,,,,,,,AFSA13.jpg,AFNE04.jpg,AFNE17.jpg,AFSA11.jpg,AFNE04.jpg,FN,3,num_6,16,num_6,0.916790498886,,,2017_Apr_12_1643,60.0116835184,FEMA4ImagesEEG,001,200110,
AFNE01.JPG,AFNE01.JPG,AFNE01.JPG,AFNE01.JPG,AFNE01.JPG,AFNE01.JPG,2,7,27,0,,,,,,,,,,,,,,,,,,,,,,,AFSA19.jpg,AFNE06.jpg,AFSA16.jpg,AFNE10.jpg,AFSA16.jpg,FS,4,num_2,32,num_8,0.816734465305,,,2017_Apr_12_1643,60.0116835184,FEMA4ImagesEEG,001,200110,
AFNE01.JPG,AFNE01.JPG,AFNE01.JPG,AFNE01.JPG,AFNE01.JPG,AFNE01.JPG,2,8,28,9,,,,,,,,,,,,,,,,,,,,,,,AFNE20.jpg,AFNE05.jpg,AFSA13.jpg,AFSA04.jpg,AFSA13.jpg,FS,4,num_2,32,num_4,1.06678730762,,,2017_Apr_12_1643,60.0116835184,FEMA4ImagesEEG,001,200110,
AFNE01.JPG,AFNE01.JPG,AFNE01.JPG,AFNE01.JPG,AFNE01.JPG,AFNE01.JPG,2,9,29,6,,,,,,,,,,,,,,,,,,,,,,,AFNE06.jpg,AFSA12.jpg,AFNE14.jpg,AFSA15.jpg,AFNE06.jpg,FN,3,num_8,32,num_2,0.933475699276,,,2017_Apr_12_1643,60.0116835184,FEMA4ImagesEEG,001,200110,
AFNE01.JPG,AFNE01.JPG,AFNE01.JPG,AFNE01.JPG,AFNE01.JPG,AFNE01.JPG,3,0,30,2,,,,,,,,,,,,,,,,,,,,,,,AFSA12.jpg,AFNE04.jpg,AFNE06.jpg,AFSA13.jpg,AFNE06.jpg,FN,3,num_2,32,num_6,1.01634072559,,,2017_Apr_12_1643,60.0116835184,FEMA4ImagesEEG,001,200110,
AFNE01.JPG,AFNE01.JPG,AFNE01.JPG,AFNE01.JPG,AFNE01.JPG,AFNE01.JPG,3,1,31,7,,,,,,,,,,,,,,,,,,,,,,,AFSA03.jpg,AFNE14.jpg,AFNE18.jpg,AFSA20.jpg,AFSA20.jpg,FS,4,num_4,16,num_4,2.23333717138,,,2017_Apr_12_1643,60.0116835184,FEMA4ImagesEEG,001,200110,
AFNE01.JPG,AFNE01.JPG,AFNE01.JPG,AFNE01.JPG,AFNE01.JPG,AFNE01.JPG,3,2,32,1,,,,,,,,,,,,,,,,,,,,,,,AFNE12.jpg,AFNE05.jpg,AFSA13.jpg,AFSA01.jpg,AFSA01.jpg,FS,4,num_4,16,num_4,0.91677670693,,,2017_Apr_12_1643,60.0116835184,FEMA4ImagesEEG,001,200110,
AFNE01.JPG,AFNE01.JPG,AFNE01.JPG,AFNE01.JPG,AFNE01.JPG,AFNE01.JPG,3,3,33,9,,,,,,,,,,,,,,,,,,,,,,,AFSA01.jpg,AFNE20.jpg,AFNE04.jpg,AFSA04.jpg,AFSA04.jpg,FS,4,num_4,16,num_4,0.900082526729,,,2017_Apr_12_1643,60.0116835184,FEMA4ImagesEEG,001,200110,
AFNE01.JPG,AFNE01.JPG,AFNE01.JPG,AFNE01.JPG,AFNE01.JPG,AFNE01.JPG,3,4,34,4,,,,,,,,,,,,,,,,,,,,,,,AFSA12.jpg,AFNE17.jpg,AFNE14.jpg,AFSA17.jpg,AFNE14.jpg,FN,3,num_2,32,num_6,0.916737576947,,,2017_Apr_12_1643,60.0116835184,FEMA4ImagesEEG,001,200110,
AFNE01.JPG,AFNE01.JPG,AFNE01.JPG,AFNE01.JPG,AFNE01.JPG,AFNE01.JPG,3,5,35,6,,,,,,,,,,,,,,,,,,,,,,,AFSA12.jpg,AFSA16.jpg,AFNE03.jpg,AFNE06.jpg,AFNE06.jpg,FN,3,num_4,16,num_4,1.21663144417,,,2017_Apr_12_1643,60.0116835184,FEMA4ImagesEEG,001,200110,
AFNE01.JPG,AFNE01.JPG,AFNE01.JPG,AFNE01.JPG,AFNE01.JPG,AFNE01.JPG,3,6,36,3,,,,,,,,,,,,,,,,,,,,,,,AFSA13.jpg,AFNE05.jpg,AFSA04.jpg,AFNE13.jpg,AFSA13.jpg,FS,4,num_8,32,num_6,1.68339431146,,,2017_Apr_12_1643,60.0116835184,FEMA4ImagesEEG,001,200110,
AFNE01.JPG,AFNE01.JPG,AFNE01.JPG,AFNE01.JPG,AFNE01.JPG,AFNE01.JPG,3,7,37,8,,,,,,,,,,,,,,,,,,,,,,,AFSA01.jpg,AFSA03.jpg,AFNE13.jpg,AFNE12.jpg,AFNE13.jpg,FN,3,num_2,32,num_4,1.06674689427,,,2017_Apr_12_1643,60.0116835184,FEMA4ImagesEEG,001,200110,
AFNE01.JPG,AFNE01.JPG,AFNE01.JPG,AFNE01.JPG,AFNE01.JPG,AFNE01.JPG,3,8,38,5,,,,,,,,,,,,,,,,,,,,,,,AFSA12.jpg,AFNE05.jpg,AFSA10.jpg,AFNE15.jpg,AFSA12.jpg,FS,4,num_8,16,num_8,0.716779144481,,,2017_Apr_12_1643,60.0116835184,FEMA4ImagesEEG,001,200110,
AFNE01.JPG,AFNE01.JPG,AFNE01.JPG,AFNE01.JPG,AFNE01.JPG,AFNE01.JPG,3,9,39,0,,,,,,,,,,,,,,,,,,,,,,,AFSA16.jpg,AFSA08.jpg,AFNE02.jpg,AFNE04.jpg,AFSA08.jpg,FS,4,num_6,32,num_8,0.716811539605,,,2017_Apr_12_1643,60.0116835184,FEMA4ImagesEEG,001,200110,
AFNE01.JPG,AFNE01.JPG,AFNE01.JPG,AFNE01.JPG,AFNE01.JPG,AFNE01.JPG,4,0,40,9,,,,,,,,,,,,,,,,,,,,,,,AFSA18.jpg,AFNE20.jpg,AFNE14.jpg,AFSA13.jpg,AFSA13.jpg,FS,4,num_4,16,num_4,0.650143867824,,,2017_Apr_12_1643,60.0116835184,FEMA4ImagesEEG,001,200110,
AFNE01.JPG,AFNE01.JPG,AFNE01.JPG,AFNE01.JPG,AFNE01.JPG,AFNE01.JPG,4,1,41,7,,,,,,,,,,,,,,,,,,,,,,,AFNE05.jpg,AFSA09.jpg,AFNE12.jpg,AFSA03.jpg,AFNE05.jpg,FN,3,num_8,32,num_2,1.13341841474,,,2017_Apr_12_1643,60.0116835184,FEMA4ImagesEEG,001,200110,
AFNE01.JPG,AFNE01.JPG,AFNE01.JPG,AFNE01.JPG,AFNE01.JPG,AFNE01.JPG,4,2,42,2,,,,,,,,,,,,,,,,,,,,,,,AFNE05.jpg,AFNE13.jpg,AFSA19.jpg,AFSA01.jpg,AFNE13.jpg,FN,3,num_6,16,num_6,1.20010244427,,,2017_Apr_12_1643,60.0116835184,FEMA4ImagesEEG,001,200110,
AFNE01.JPG,AFNE01.JPG,AFNE01.JPG,AFNE01.JPG,AFNE01.JPG,AFNE01.JPG,4,3,43,1,,,,,,,,,,,,,,,,,,,,,,,AFNE14.jpg,AFNE15.jpg,AFSA06.jpg,AFSA08.jpg,AFNE14.jpg,FN,3,num_8,16,num_8,1.40020969929,,,2017_Apr_12_1643,60.0116835184,FEMA4ImagesEEG,001,200110,
AFNE01.JPG,AFNE01.JPG,AFNE01.JPG,AFNE01.JPG,AFNE01.JPG,AFNE01.JPG,4,4,44,8,,,,,,,,,,,,,,,,,,,,,,,AFSA19.jpg,AFSA18.jpg,AFNE08.jpg,AFNE19.jpg,AFNE08.jpg,FN,3,num_2,16,num_2,1.33344484353,,,2017_Apr_12_1643,60.0116835184,FEMA4ImagesEEG,001,200110,
AFNE01.JPG,AFNE01.JPG,AFNE01.JPG,AFNE01.JPG,AFNE01.JPG,AFNE01.JPG,4,5,45,5,,,,,,,,,,,,,,,,,,,,,,,AFSA20.jpg,AFNE03.jpg,AFSA06.jpg,AFNE02.jpg,AFNE03.jpg,FN,3,num_6,16,num_6,0.616782769095,,,2017_Apr_12_1643,60.0116835184,FEMA4ImagesEEG,001,200110,
AFNE01.JPG,AFNE01.JPG,AFNE01.JPG,AFNE01.JPG,AFNE01.JPG,AFNE01.JPG,4,6,46,3,,,,,,,,,,,,,,,,,,,,,,,AFSA10.jpg,AFNE18.jpg,AFNE01.jpg,AFSA07.jpg,AFNE18.jpg,FN,3,num_6,16,num_6,1.18345316686,,,2017_Apr_12_1643,60.0116835184,FEMA4ImagesEEG,001,200110,
AFNE01.JPG,AFNE01.JPG,AFNE01.JPG,AFNE01.JPG,AFNE01.JPG,AFNE01.JPG,4,7,47,0,,,,,,,,,,,,,,,,,,,,,,,AFNE14.jpg,AFSA19.jpg,AFNE06.jpg,AFSA15.jpg,AFNE14.jpg,FN,3,num_8,32,num_4,1.01677372446,,,2017_Apr_12_1643,60.0116835184,FEMA4ImagesEEG,001,200110,
AFNE01.JPG,AFNE01.JPG,AFNE01.JPG,AFNE01.JPG,AFNE01.JPG,AFNE01.JPG,4,8,48,4,,,,,,,,,,,,,,,,,,,,,,,AFNE12.jpg,AFSA04.jpg,AFNE14.jpg,AFSA13.jpg,AFSA13.jpg,FS,4,num_4,16,num_4,0.733796951827,,,2017_Apr_12_1643,60.0116835184,FEMA4ImagesEEG,001,200110,
AFNE01.JPG,AFNE01.JPG,AFNE01.JPG,AFNE01.JPG,AFNE01.JPG,AFNE01.JPG,4,9,49,6,,,,,,,,,,,,,,,,,,,,,,,AFSA08.jpg,AFNE04.jpg,AFNE01.jpg,AFSA05.jpg,AFSA08.jpg,FS,4,num_8,32,num_4,1.48342689872,,,2017_Apr_12_1643,60.0116835184,FEMA4ImagesEEG,001,200110,
AFNE01.JPG,AFNE01.JPG,AFNE01.JPG,AFNE01.JPG,AFNE01.JPG,AFNE01.JPG,5,0,50,2,,,,,,,,,,,,,,,,,,,,,,,AFNE15.jpg,AFNE19.jpg,AFSA18.jpg,AFSA06.jpg,AFSA06.jpg,FS,4,num_4,32,num_2,1.06675074343,,,2017_Apr_12_1643,60.0116835184,FEMA4ImagesEEG,001,200110,
AFNE01.JPG,AFNE01.JPG,AFNE01.JPG,AFNE01.JPG,AFNE01.JPG,AFNE01.JPG,5,1,51,8,,,,,,,,,,,,,,,,,,,,,,,AFSA18.jpg,AFSA02.jpg,AFNE16.jpg,AFNE20.jpg,AFSA18.jpg,FS,4,num_8,16,num_8,0.766788237728,,,2017_Apr_12_1643,60.0116835184,FEMA4ImagesEEG,001,200110,
AFNE01.JPG,AFNE01.JPG,AFNE01.JPG,AFNE01.JPG,AFNE01.JPG,AFNE01.JPG,5,2,52,3,,,,,,,,,,,,,,,,,,,,,,,AFSA09.jpg,AFSA11.jpg,AFNE05.jpg,AFNE12.jpg,AFSA11.jpg,FS,4,num_6,16,num_6,0.700169318821,,,2017_Apr_12_1643,60.0116835184,FEMA4ImagesEEG,001,200110,
AFNE01.JPG,AFNE01.JPG,AFNE01.JPG,AFNE01.JPG,AFNE01.JPG,AFNE01.JPG,5,3,53,7,,,,,,,,,,,,,,,,,,,,,,,AFSA13.jpg,AFNE12.jpg,AFSA10.jpg,AFNE18.jpg,AFSA13.jpg,FS,4,num_8,32,num_2,1.18346663844,,,2017_Apr_12_1643,60.0116835184,FEMA4ImagesEEG,001,200110,
AFNE01.JPG,AFNE01.JPG,AFNE01.JPG,AFNE01.JPG,AFNE01.JPG,AFNE01.JPG,5,4,54,6,,,,,,,,,,,,,,,,,,,,,,,AFNE02.jpg,AFNE03.jpg,AFSA16.jpg,AFSA18.jpg,AFNE02.jpg,FN,3,num_8,16,num_8,1.0335121667,,,2017_Apr_12_1643,60.0116835184,FEMA4ImagesEEG,001,200110,
AFNE01.JPG,AFNE01.JPG,AFNE01.JPG,AFNE01.JPG,AFNE01.JPG,AFNE01.JPG,5,5,55,9,,,,,,,,,,,,,,,,,,,,,,,AFSA15.jpg,AFNE12.jpg,AFSA10.jpg,AFNE04.jpg,AFNE04.jpg,FN,3,num_4,16,num_4,0.616825427394,,,2017_Apr_12_1643,60.0116835184,FEMA4ImagesEEG,001,200110,
AFNE01.JPG,AFNE01.JPG,AFNE01.JPG,AFNE01.JPG,AFNE01.JPG,AFNE01.JPG,5,6,56,5,,,,,,,,,,,,,,,,,,,,,,,AFSA02.jpg,AFNE10.jpg,AFSA03.jpg,AFNE14.jpg,AFNE10.jpg,FN,3,num_6,32,num_8,0.850158429239,,,2017_Apr_12_1643,60.0116835184,FEMA4ImagesEEG,001,200110,
AFNE01.JPG,AFNE01.JPG,AFNE01.JPG,AFNE01.JPG,AFNE01.JPG,AFNE01.JPG,5,7,57,1,,,,,,,,,,,,,,,,,,,,,,,AFSA06.jpg,AFSA09.jpg,AFNE19.jpg,AFNE14.jpg,AFSA06.jpg,FS,4,num_8,16,num_8,1.33341373224,,,2017_Apr_12_1643,60.0116835184,FEMA4ImagesEEG,001,200110,
AFNE01.JPG,AFNE01.JPG,AFNE01.JPG,AFNE01.JPG,AFNE01.JPG,AFNE01.JPG,5,8,58,0,,,,,,,,,,,,,,,,,,,,,,,AFSA07.jpg,AFNE12.jpg,AFSA16.jpg,AFNE19.jpg,AFSA16.jpg,FS,4,num_2,32,num_8,0.733498984948,,,2017_Apr_12_1643,60.0116835184,FEMA4ImagesEEG,001,200110,
AFNE01.JPG,AFNE01.JPG,AFNE01.JPG,AFNE01.JPG,AFNE01.JPG,AFNE01.JPG,5,9,59,4,,,,,,,,,,,,,,,,,,,,,,,AFNE02.jpg,AFSA09.jpg,AFNE12.jpg,AFSA02.jpg,AFNE02.jpg,FN,3,num_8,16,num_8,1.91672442621,,,2017_Apr_12_1643,60.0116835184,FEMA4ImagesEEG,001,200110,
,,,,,,,,,,,,,,,,,,,,,,,,,,,,,,,,,,,,,,,,,,,space,3.26661808556,2017_Apr_12_1643,60.0116835184,FEMA4ImagesEEG,001,200110,
AFNE01.JPG,AFNE01.JPG,AFNE01.JPG,AFNE01.JPG,AFNE01.JPG,AFNE01.JPG,,,,,0,0,0,4,,,,,,,,,,,,,,,,,,,AMSA09.jpg,AMNE04.jpg,AMNE08.jpg,AMSA08.jpg,AMNE04.jpg,MN,1,num_6,16,num_6,0.86666561896,,,2017_Apr_12_1643,60.0116835184,FEMA4ImagesEEG,001,200110,
AFNE01.JPG,AFNE01.JPG,AFNE01.JPG,AFNE01.JPG,AFNE01.JPG,AFNE01.JPG,,,,,0,1,1,8,,,,,,,,,,,,,,,,,,,AMNE18.jpg,AMSA15.jpg,AMSA12.jpg,AMNE03.jpg,AMNE18.jpg,MN,1,num_8,16,num_8,1.18344675237,,,2017_Apr_12_1643,60.0116835184,FEMA4ImagesEEG,001,200110,
AFNE01.JPG,AFNE01.JPG,AFNE01.JPG,AFNE01.JPG,AFNE01.JPG,AFNE01.JPG,,,,,0,2,2,9,,,,,,,,,,,,,,,,,,,AMSA06.jpg,AMNE01.jpg,AMNE18.jpg,AMSA03.jpg,AMNE01.jpg,MN,1,num_6,16,num_6,0.866776594426,,,2017_Apr_12_1643,60.0116835184,FEMA4ImagesEEG,001,200110,
AFNE01.JPG,AFNE01.JPG,AFNE01.JPG,AFNE01.JPG,AFNE01.JPG,AFNE01.JPG,,,,,0,3,3,5,,,,,,,,,,,,,,,,,,,AMNE01.jpg,AMSA14.jpg,AMSA04.jpg,AMNE02.jpg,AMNE01.jpg,MN,1,num_8,16,num_8,2.30003819987,,,2017_Apr_12_1643,60.0116835184,FEMA4ImagesEEG,001,200110,
AFNE01.JPG,AFNE01.JPG,AFNE01.JPG,AFNE01.JPG,AFNE01.JPG,AFNE01.JPG,,,,,0,4,4,1,,,,,,,,,,,,,,,,,,,AMSA16.jpg,AMNE11.jpg,AMNE06.jpg,AMSA15.jpg,AMNE06.jpg,MN,1,num_2,32,num_8,0.900488262065,,,2017_Apr_12_1643,60.0116835184,FEMA4ImagesEEG,001,200110,
AFNE01.JPG,AFNE01.JPG,AFNE01.JPG,AFNE01.JPG,AFNE01.JPG,AFNE01.JPG,,,,,0,5,5,3,,,,,,,,,,,,,,,,,,,AMSA19.jpg,AMNE18.jpg,AMNE08.jpg,AMSA09.jpg,AMSA09.jpg,MS,2,num_4,16,num_4,0.650137773715,,,2017_Apr_12_1643,60.0116835184,FEMA4ImagesEEG,001,200110,
AFNE01.JPG,AFNE01.JPG,AFNE01.JPG,AFNE01.JPG,AFNE01.JPG,AFNE01.JPG,,,,,0,6,6,2,,,,,,,,,,,,,,,,,,,AMSA12.jpg,AMNE15.jpg,AMSA01.jpg,AMNE13.jpg,AMNE13.jpg,MN,1,num_4,16,num_4,1.06677447772,,,2017_Apr_12_1643,60.0116835184,FEMA4ImagesEEG,001,200110,
AFNE01.JPG,AFNE01.JPG,AFNE01.JPG,AFNE01.JPG,AFNE01.JPG,AFNE01.JPG,,,,,0,7,7,7,,,,,,,,,,,,,,,,,,,AMNE16.jpg,AMNE02.jpg,AMSA04.jpg,AMSA19.jpg,AMSA19.jpg,MS,2,num_4,32,num_8,1.13348127948,,,2017_Apr_12_1643,60.0116835184,FEMA4ImagesEEG,001,200110,
AFNE01.JPG,AFNE01.JPG,AFNE01.JPG,AFNE01.JPG,AFNE01.JPG,AFNE01.JPG,,,,,0,8,8,0,,,,,,,,,,,,,,,,,,,AMNE19.jpg,AMSA03.jpg,AMSA15.jpg,AMNE02.jpg,AMNE02.jpg,MN,1,num_4,16,num_4,1.05011076713,,,2017_Apr_12_1643,60.0116835184,FEMA4ImagesEEG,001,200110,
AFNE01.JPG,AFNE01.JPG,AFNE01.JPG,AFNE01.JPG,AFNE01.JPG,AFNE01.JPG,,,,,0,9,9,6,,,,,,,,,,,,,,,,,,,AMNE12.jpg,AMNE06.jpg,AMSA20.jpg,AMSA14.jpg,AMSA20.jpg,MS,2,num_2,32,num_8,1.56672748923,,,2017_Apr_12_1643,60.0116835184,FEMA4ImagesEEG,001,200110,
AFNE01.JPG,AFNE01.JPG,AFNE01.JPG,AFNE01.JPG,AFNE01.JPG,AFNE01.JPG,,,,,1,0,10,7,,,,,,,,,,,,,,,,,,,AMNE10.jpg,AMSA14.jpg,AMSA07.jpg,AMNE11.jpg,AMNE11.jpg,MN,1,num_4,32,num_8,1.18372804113,,,2017_Apr_12_1643,60.0116835184,FEMA4ImagesEEG,001,200110,
AFNE01.JPG,AFNE01.JPG,AFNE01.JPG,AFNE01.JPG,AFNE01.JPG,AFNE01.JPG,,,,,1,1,11,0,,,,,,,,,,,,,,,,,,,AMNE07.jpg,AMSA19.jpg,AMSA13.jpg,AMNE02.jpg,AMSA13.jpg,MS,2,num_2,32,num_6,2.78330697399,,,2017_Apr_12_1643,60.0116835184,FEMA4ImagesEEG,001,200110,
AFNE01.JPG,AFNE01.JPG,AFNE01.JPG,AFNE01.JPG,AFNE01.JPG,AFNE01.JPG,,,,,1,2,12,5,,,,,,,,,,,,,,,,,,,AMSA04.jpg,AMNE09.jpg,AMNE18.jpg,AMSA06.jpg,AMNE18.jpg,MN,1,num_2,32,num_6,0.949853630271,,,2017_Apr_12_1643,60.0116835184,FEMA4ImagesEEG,001,200110,
AFNE01.JPG,AFNE01.JPG,AFNE01.JPG,AFNE01.JPG,AFNE01.JPG,AFNE01.JPG,,,,,1,3,13,4,,,,,,,,,,,,,,,,,,,AMSA09.jpg,AMNE18.jpg,AMNE04.jpg,AMSA20.jpg,AMNE04.jpg,MN,1,num_2,16,num_2,1.16673910059,,,2017_Apr_12_1643,60.0116835184,FEMA4ImagesEEG,001,200110,
AFNE01.JPG,AFNE01.JPG,AFNE01.JPG,AFNE01.JPG,AFNE01.JPG,AFNE01.JPG,,,,,1,4,14,1,,,,,,,,,,,,,,,,,,,AMSA19.jpg,AMSA14.jpg,AMNE11.jpg,AMNE19.jpg,AMNE19.jpg,MN,1,num_4,32,num_8,0.766726655886,,,2017_Apr_12_1643,60.0116835184,FEMA4ImagesEEG,001,200110,
AFNE01.JPG,AFNE01.JPG,AFNE01.JPG,AFNE01.JPG,AFNE01.JPG,AFNE01.JPG,,,,,1,5,15,2,,,,,,,,,,,,,,,,,,,AMSA03.jpg,AMNE16.jpg,AMSA14.jpg,AMNE09.jpg,AMNE09.jpg,MN,1,num_4,16,num_4,1.21677962551,,,2017_Apr_12_1643,60.0116835184,FEMA4ImagesEEG,001,200110,
AFNE01.JPG,AFNE01.JPG,AFNE01.JPG,AFNE01.JPG,AFNE01.JPG,AFNE01.JPG,,,,,1,6,16,3,,,,,,,,,,,,,,,,,,,AMSA11.jpg,AMNE06.jpg,AMNE11.jpg,AMSA08.jpg,AMSA11.jpg,MS,2,num_8,32,num_4,1.033428133,,,2017_Apr_12_1643,60.0116835184,FEMA4ImagesEEG,001,200110,
AFNE01.JPG,AFNE01.JPG,AFNE01.JPG,AFNE01.JPG,AFNE01.JPG,AFNE01.JPG,,,,,1,7,17,8,,,,,,,,,,,,,,,,,,,AMNE17.jpg,AMNE16.jpg,AMSA09.jpg,AMSA13.jpg,AMNE16.jpg,MN,1,num_6,16,num_6,1.38343437156,,,2017_Apr_12_1643,60.0116835184,FEMA4ImagesEEG,001,200110,
AFNE01.JPG,AFNE01.JPG,AFNE01.JPG,AFNE01.JPG,AFNE01.JPG,AFNE01.JPG,,,,,1,8,18,6,,,,,,,,,,,,,,,,,,,AMSA11.jpg,AMNE06.jpg,AMSA02.jpg,AMNE14.jpg,AMSA02.jpg,MS,2,num_2,16,num_2,0.833474832587,,,2017_Apr_12_1643,60.0116835184,FEMA4ImagesEEG,001,200110,
AFNE01.JPG,AFNE01.JPG,AFNE01.JPG,AFNE01.JPG,AFNE01.JPG,AFNE01.JPG,,,,,1,9,19,9,,,,,,,,,,,,,,,,,,,AMNE12.jpg,AMNE05.jpg,AMSA18.jpg,AMSA14.jpg,AMSA18.jpg,MS,2,num_2,16,num_2,1.30006931163,,,2017_Apr_12_1643,60.0116835184,FEMA4ImagesEEG,001,200110,
AFNE01.JPG,AFNE01.JPG,AFNE01.JPG,AFNE01.JPG,AFNE01.JPG,AFNE01.JPG,,,,,2,0,20,3,,,,,,,,,,,,,,,,,,,AMNE04.jpg,AMSA09.jpg,AMNE12.jpg,AMSA01.jpg,AMNE04.jpg,MN,1,num_8,32,num_6,1.33343297616,,,2017_Apr_12_1643,60.0116835184,FEMA4ImagesEEG,001,200110,
AFNE01.JPG,AFNE01.JPG,AFNE01.JPG,AFNE01.JPG,AFNE01.JPG,AFNE01.JPG,,,,,2,1,21,6,,,,,,,,,,,,,,,,,,,AMSA17.jpg,AMNE10.jpg,AMNE18.jpg,AMSA13.jpg,AMNE18.jpg,MN,1,num_2,32,num_6,0.96676751785,,,2017_Apr_12_1643,60.0116835184,FEMA4ImagesEEG,001,200110,
AFNE01.JPG,AFNE01.JPG,AFNE01.JPG,AFNE01.JPG,AFNE01.JPG,AFNE01.JPG,,,,,2,2,22,4,,,,,,,,,,,,,,,,,,,AMNE12.jpg,AMSA03.jpg,AMSA13.jpg,AMNE09.jpg,AMNE12.jpg,MN,1,num_8,16,num_8,1.21672734525,,,2017_Apr_12_1643,60.0116835184,FEMA4ImagesEEG,001,200110,
AFNE01.JPG,AFNE01.JPG,AFNE01.JPG,AFNE01.JPG,AFNE01.JPG,AFNE01.JPG,,,,,2,3,23,1,,,,,,,,,,,,,,,,,,,AMSA03.jpg,AMSA18.jpg,AMNE12.jpg,AMNE06.jpg,AMSA03.jpg,MS,2,num_8,32,num_6,0.983435077127,,,2017_Apr_12_1643,60.0116835184,FEMA4ImagesEEG,001,200110,
AFNE01.JPG,AFNE01.JPG,AFNE01.JPG,AFNE01.JPG,AFNE01.JPG,AFNE01.JPG,,,,,2,4,24,2,,,,,,,,,,,,,,,,,,,AMNE17.jpg,AMSA14.jpg,AMNE11.jpg,AMSA12.jpg,AMNE17.jpg,MN,1,num_8,16,num_8,0.91677285824,,,2017_Apr_12_1643,60.0116835184,FEMA4ImagesEEG,001,200110,
AFNE01.JPG,AFNE01.JPG,AFNE01.JPG,AFNE01.JPG,AFNE01.JPG,AFNE01.JPG,,,,,2,5,25,8,,,,,,,,,,,,,,,,,,,AMNE11.jpg,AMNE03.jpg,AMSA09.jpg,AMSA15.jpg,AMSA09.jpg,MS,2,num_2,16,num_2,1.4667660743,,,2017_Apr_12_1643,60.0116835184,FEMA4ImagesEEG,001,200110,
AFNE01.JPG,AFNE01.JPG,AFNE01.JPG,AFNE01.JPG,AFNE01.JPG,AFNE01.JPG,,,,,2,6,26,0,,,,,,,,,,,,,,,,,,,AMNE19.jpg,AMSA12.jpg,AMSA09.jpg,AMNE03.jpg,AMNE19.jpg,MN,1,num_8,16,num_8,1.0167711582,,,2017_Apr_12_1643,60.0116835184,FEMA4ImagesEEG,001,200110,
AFNE01.JPG,AFNE01.JPG,AFNE01.JPG,AFNE01.JPG,AFNE01.JPG,AFNE01.JPG,,,,,2,7,27,9,,,,,,,,,,,,,,,,,,,AMSA16.jpg,AMSA15.jpg,AMNE16.jpg,AMNE11.jpg,AMNE11.jpg,MN,1,num_4,16,num_4,1.10014616093,,,2017_Apr_12_1643,60.0116835184,FEMA4ImagesEEG,001,200110,
AFNE01.JPG,AFNE01.JPG,AFNE01.JPG,AFNE01.JPG,AFNE01.JPG,AFNE01.JPG,,,,,2,8,28,7,,,,,,,,,,,,,,,,,,,AMSA15.jpg,AMSA10.jpg,AMNE04.jpg,AMNE07.jpg,AMSA15.jpg,MS,2,num_8,32,num_2,1.78338844189,,,2017_Apr_12_1643,60.0116835184,FEMA4ImagesEEG,001,200110,
AFNE01.JPG,AFNE01.JPG,AFNE01.JPG,AFNE01.JPG,AFNE01.JPG,AFNE01.JPG,,,,,2,9,29,5,,,,,,,,,,,,,,,,,,,AMSA04.jpg,AMNE05.jpg,AMSA01.jpg,AMNE07.jpg,AMSA04.jpg,MS,2,num_8,32,num_2,0.86663899757,,,2017_Apr_12_1643,60.0116835184,FEMA4ImagesEEG,001,200110,
AFNE01.JPG,AFNE01.JPG,AFNE01.JPG,AFNE01.JPG,AFNE01.JPG,AFNE01.JPG,,,,,3,0,30,8,,,,,,,,,,,,,,,,,,,AMSA02.jpg,AMNE18.jpg,AMSA04.jpg,AMNE12.jpg,AMNE12.jpg,MN,1,num_4,16,num_4,1.01677212073,,,2017_Apr_12_1643,60.0116835184,FEMA4ImagesEEG,001,200110,
AFNE01.JPG,AFNE01.JPG,AFNE01.JPG,AFNE01.JPG,AFNE01.JPG,AFNE01.JPG,,,,,3,1,31,3,,,,,,,,,,,,,,,,,,,AMSA06.jpg,AMSA05.jpg,AMNE03.jpg,AMNE10.jpg,AMNE10.jpg,MN,1,num_4,16,num_4,0.883451210801,,,2017_Apr_12_1643,60.0116835184,FEMA4ImagesEEG,001,200110,
AFNE01.JPG,AFNE01.JPG,AFNE01.JPG,AFNE01.JPG,AFNE01.JPG,AFNE01.JPG,,,,,3,2,32,1,,,,,,,,,,,,,,,,,,,AMNE17.jpg,AMNE14.jpg,AMSA20.jpg,AMSA19.jpg,AMNE17.jpg,MN,1,num_8,16,num_8,1.01671887748,,,2017_Apr_12_1643,60.0116835184,FEMA4ImagesEEG,001,200110,
AFNE01.JPG,AFNE01.JPG,AFNE01.JPG,AFNE01.JPG,AFNE01.JPG,AFNE01.JPG,,,,,3,3,33,0,,,,,,,,,,,,,,,,,,,AMSA14.jpg,AMNE11.jpg,AMNE04.jpg,AMSA09.jpg,AMSA14.jpg,MS,2,num_8,16,num_8,0.816788349766,,,2017_Apr_12_1643,60.0116835184,FEMA4ImagesEEG,001,200110,
AFNE01.JPG,AFNE01.JPG,AFNE01.JPG,AFNE01.JPG,AFNE01.JPG,AFNE01.JPG,,,,,3,4,34,2,,,,,,,,,,,,,,,,,,,AMNE18.jpg,AMSA15.jpg,AMSA19.jpg,AMNE05.jpg,AMSA19.jpg,MS,2,num_2,16,num_2,1.05011557881,,,2017_Apr_12_1643,60.0116835184,FEMA4ImagesEEG,001,200110,
AFNE01.JPG,AFNE01.JPG,AFNE01.JPG,AFNE01.JPG,AFNE01.JPG,AFNE01.JPG,,,,,3,5,35,5,,,,,,,,,,,,,,,,,,,AMSA19.jpg,AMNE14.jpg,AMNE20.jpg,AMSA13.jpg,AMNE20.jpg,MN,1,num_2,32,num_4,0.816789953504,,,2017_Apr_12_1643,60.0116835184,FEMA4ImagesEEG,001,200110,
AFNE01.JPG,AFNE01.JPG,AFNE01.JPG,AFNE01.JPG,AFNE01.JPG,AFNE01.JPG,,,,,3,6,36,7,,,,,,,,,,,,,,,,,,,AMNE19.jpg,AMSA11.jpg,AMNE15.jpg,AMSA06.jpg,AMNE19.jpg,MN,1,num_8,32,num_4,1.00011097593,,,2017_Apr_12_1643,60.0116835184,FEMA4ImagesEEG,001,200110,
AFNE01.JPG,AFNE01.JPG,AFNE01.JPG,AFNE01.JPG,AFNE01.JPG,AFNE01.JPG,,,,,3,7,37,4,,,,,,,,,,,,,,,,,,,AMSA03.jpg,AMSA04.jpg,AMNE03.jpg,AMNE19.jpg,AMSA03.jpg,MS,2,num_8,32,num_6,1.21677000402,,,2017_Apr_12_1643,60.0116835184,FEMA4ImagesEEG,001,200110,
AFNE01.JPG,AFNE01.JPG,AFNE01.JPG,AFNE01.JPG,AFNE01.JPG,AFNE01.JPG,,,,,3,8,38,6,,,,,,,,,,,,,,,,,,,AMNE07.jpg,AMSA08.jpg,AMSA06.jpg,AMNE16.jpg,AMNE16.jpg,MN,1,num_4,16,num_4,0.766703883186,,,2017_Apr_12_1643,60.0116835184,FEMA4ImagesEEG,001,200110,
AFNE01.JPG,AFNE01.JPG,AFNE01.JPG,AFNE01.JPG,AFNE01.JPG,AFNE01.JPG,,,,,3,9,39,9,,,,,,,,,,,,,,,,,,,AMSA10.jpg,AMSA13.jpg,AMNE16.jpg,AMNE04.jpg,AMSA13.jpg,MS,2,num_6,32,num_8,2.79999441886,,,2017_Apr_12_1643,60.0116835184,FEMA4ImagesEEG,001,200110,
AFNE01.JPG,AFNE01.JPG,AFNE01.JPG,AFNE01.JPG,AFNE01.JPG,AFNE01.JPG,,,,,4,0,40,6,,,,,,,,,,,,,,,,,,,AMSA04.jpg,AMNE03.jpg,AMNE09.jpg,AMSA08.jpg,AMSA08.jpg,MS,2,num_4,32,num_2,0.850108073093,,,2017_Apr_12_1643,60.0116835184,FEMA4ImagesEEG,001,200110,
AFNE01.JPG,AFNE01.JPG,AFNE01.JPG,AFNE01.JPG,AFNE01.JPG,AFNE01.JPG,,,,,4,1,41,0,,,,,,,,,,,,,,,,,,,AMNE11.jpg,AMSA03.jpg,AMNE04.jpg,AMSA14.jpg,AMSA03.jpg,MS,2,num_6,16,num_6,0.916764198337,,,2017_Apr_12_1643,60.0116835184,FEMA4ImagesEEG,001,200110,
AFNE01.JPG,AFNE01.JPG,AFNE01.JPG,AFNE01.JPG,AFNE01.JPG,AFNE01.JPG,,,,,4,2,42,3,,,,,,,,,,,,,,,,,,,AMNE09.jpg,AMSA17.jpg,AMNE06.jpg,AMSA07.jpg,AMNE09.jpg,MN,1,num_8,32,num_6,0.916767405346,,,2017_Apr_12_1643,60.0116835184,FEMA4ImagesEEG,001,200110,
AFNE01.JPG,AFNE01.JPG,AFNE01.JPG,AFNE01.JPG,AFNE01.JPG,AFNE01.JPG,,,,,4,3,43,7,,,,,,,,,,,,,,,,,,,AMNE16.jpg,AMSA12.jpg,AMNE01.jpg,AMSA11.jpg,AMNE01.jpg,MN,1,num_2,16,num_2,0.616795598529,,,2017_Apr_12_1643,60.0116835184,FEMA4ImagesEEG,001,200110,
AFNE01.JPG,AFNE01.JPG,AFNE01.JPG,AFNE01.JPG,AFNE01.JPG,AFNE01.JPG,,,,,4,4,44,8,,,,,,,,,,,,,,,,,,,AMSA02.jpg,AMNE08.jpg,AMNE10.jpg,AMSA04.jpg,AMNE10.jpg,MN,1,num_2,32,num_6,0.766790483147,,,2017_Apr_12_1643,60.0116835184,FEMA4ImagesEEG,001,200110,
AFNE01.JPG,AFNE01.JPG,AFNE01.JPG,AFNE01.JPG,AFNE01.JPG,AFNE01.JPG,,,,,4,5,45,1,,,,,,,,,,,,,,,,,,,AMNE06.jpg,AMSA10.jpg,AMSA12.jpg,AMNE01.jpg,AMSA12.jpg,MS,2,num_2,16,num_2,0.900137372781,,,2017_Apr_12_1643,60.0116835184,FEMA4ImagesEEG,001,200110,
AFNE01.JPG,AFNE01.JPG,AFNE01.JPG,AFNE01.JPG,AFNE01.JPG,AFNE01.JPG,,,,,4,6,46,4,,,,,,,,,,,,,,,,,,,AMSA11.jpg,AMNE07.jpg,AMSA15.jpg,AMNE04.jpg,AMSA11.jpg,MS,2,num_8,16,num_8,0.63346187491,,,2017_Apr_12_1643,60.0116835184,FEMA4ImagesEEG,001,200110,
AFNE01.JPG,AFNE01.JPG,AFNE01.JPG,AFNE01.JPG,AFNE01.JPG,AFNE01.JPG,,,,,4,7,47,9,,,,,,,,,,,,,,,,,,,AMSA08.jpg,AMSA04.jpg,AMNE01.jpg,AMNE17.jpg,AMSA04.jpg,MS,2,num_6,16,num_6,0.733479098883,,,2017_Apr_12_1643,60.0116835184,FEMA4ImagesEEG,001,200110,
AFNE01.JPG,AFNE01.JPG,AFNE01.JPG,AFNE01.JPG,AFNE01.JPG,AFNE01.JPG,,,,,4,8,48,2,,,,,,,,,,,,,,,,,,,AMSA14.jpg,AMNE14.jpg,AMNE13.jpg,AMSA07.jpg,AMSA14.jpg,MS,2,num_8,16,num_8,0.566879841033,,,2017_Apr_12_1643,60.0116835184,FEMA4ImagesEEG,001,200110,
AFNE01.JPG,AFNE01.JPG,AFNE01.JPG,AFNE01.JPG,AFNE01.JPG,AFNE01.JPG,,,,,4,9,49,5,,,,,,,,,,,,,,,,,,,AMSA18.jpg,AMSA05.jpg,AMNE07.jpg,AMNE12.jpg,AMSA18.jpg,MS,2,num_8,32,num_4,0.783479210921,,,2017_Apr_12_1643,60.0116835184,FEMA4ImagesEEG,001,200110,
AFNE01.JPG,AFNE01.JPG,AFNE01.JPG,AFNE01.JPG,AFNE01.JPG,AFNE01.JPG,,,,,5,0,50,2,,,,,,,,,,,,,,,,,,,AMSA09.jpg,AMSA01.jpg,AMNE17.jpg,AMNE18.jpg,AMNE17.jpg,MN,1,num_2,16,num_2,1.00017480319,,,2017_Apr_12_1643,60.0116835184,FEMA4ImagesEEG,001,200110,
AFNE01.JPG,AFNE01.JPG,AFNE01.JPG,AFNE01.JPG,AFNE01.JPG,AFNE01.JPG,,,,,5,1,51,4,,,,,,,,,,,,,,,,,,,AMNE15.jpg,AMNE16.jpg,AMSA04.jpg,AMSA15.jpg,AMNE15.jpg,MN,1,num_8,16,num_8,1.01678013895,,,2017_Apr_12_1643,60.0116835184,FEMA4ImagesEEG,001,200110,
AFNE01.JPG,AFNE01.JPG,AFNE01.JPG,AFNE01.JPG,AFNE01.JPG,AFNE01.JPG,,,,,5,2,52,8,,,,,,,,,,,,,,,,,,,AMNE17.jpg,AMSA13.jpg,AMSA18.jpg,AMNE05.jpg,AMSA13.jpg,MS,2,num_6,16,num_6,0.86684138421,,,2017_Apr_12_1643,60.0116835184,FEMA4ImagesEEG,001,200110,
AFNE01.JPG,AFNE01.JPG,AFNE01.JPG,AFNE01.JPG,AFNE01.JPG,AFNE01.JPG,,,,,5,3,53,5,,,,,,,,,,,,,,,,,,,AMNE15.jpg,AMSA18.jpg,AMNE12.jpg,AMSA16.jpg,AMNE15.jpg,MN,1,num_8,16,num_8,0.750149224419,,,2017_Apr_12_1643,60.0116835184,FEMA4ImagesEEG,001,200110,
AFNE01.JPG,AFNE01.JPG,AFNE01.JPG,AFNE01.JPG,AFNE01.JPG,AFNE01.JPG,,,,,5,4,54,1,,,,,,,,,,,,,,,,,,,AMSA03.jpg,AMNE02.jpg,AMNE15.jpg,AMSA18.jpg,AMNE02.jpg,MN,1,num_6,16,num_6,0.816811763681,,,2017_Apr_12_1643,60.0116835184,FEMA4ImagesEEG,001,200110,
AFNE01.JPG,AFNE01.JPG,AFNE01.JPG,AFNE01.JPG,AFNE01.JPG,AFNE01.JPG,,,,,5,5,55,9,,,,,,,,,,,,,,,,,,,AMSA17.jpg,AMNE04.jpg,AMNE14.jpg,AMSA04.jpg,AMNE04.jpg,MN,1,num_6,16,num_6,2.33718082029,,,2017_Apr_12_1643,60.0116835184,FEMA4ImagesEEG,001,200110,
AFNE01.JPG,AFNE01.JPG,AFNE01.JPG,AFNE01.JPG,AFNE01.JPG,AFNE01.JPG,,,,,5,6,56,6,,,,,,,,,,,,,,,,,,,AMNE14.jpg,AMSA11.jpg,AMNE20.jpg,AMSA14.jpg,AMSA14.jpg,MS,2,num_4,16,num_4,0.650174338371,,,2017_Apr_12_1643,60.0116835184,FEMA4ImagesEEG,001,200110,
AFNE01.JPG,AFNE01.JPG,AFNE01.JPG,AFNE01.JPG,AFNE01.JPG,AFNE01.JPG,,,,,5,7,57,7,,,,,,,,,,,,,,,,,,,AMNE19.jpg,AMSA07.jpg,AMNE17.jpg,AMSA14.jpg,AMNE19.jpg,MN,1,num_8,32,num_2,0.950172766112,,,2017_Apr_12_1643,60.0116835184,FEMA4ImagesEEG,001,200110,
AFNE01.JPG,AFNE01.JPG,AFNE01.JPG,AFNE01.JPG,AFNE01.JPG,AFNE01.JPG,,,,,5,8,58,3,,,,,,,,,,,,,,,,,,,AMSA15.jpg,AMNE12.jpg,AMSA11.jpg,AMNE05.jpg,AMNE05.jpg,MN,1,num_4,16,num_4,1.56446819939,,,2017_Apr_12_1643,60.0116835184,FEMA4ImagesEEG,001,200110,
AFNE01.JPG,AFNE01.JPG,AFNE01.JPG,AFNE01.JPG,AFNE01.JPG,AFNE01.JPG,,,,,5,9,59,0,,,,,,,,,,,,,,,,,,,AMSA10.jpg,AMNE08.jpg,AMNE13.jpg,AMSA01.jpg,AMSA10.jpg,MS,2,num_8,16,num_8,1.65015637688,,,2017_Apr_12_1643,60.0116835184,FEMA4ImagesEEG,001,200110,
,,,,,,,,,,,,,,,,,,,,,,,,,,,,,,,,,,,,,,,,,,,space,2.13344311202,2017_Apr_12_1643,60.0116835184,FEMA4ImagesEEG,001,200110,
AFNE01.JPG,AFNE01.JPG,AFNE01.JPG,AFNE01.JPG,AFNE01.JPG,AFNE01.JPG,,,,,,,,,0,0,0,6,,,,,,,,,,,,,,,AFSA13.jpg,AFNE01.jpg,AFSA16.jpg,AFNE16.jpg,AFSA13.jpg,FS,4,num_8,16,num_8,0.650098964572,,,2017_Apr_12_1643,60.0116835184,FEMA4ImagesEEG,001,200110,
AFNE01.JPG,AFNE01.JPG,AFNE01.JPG,AFNE01.JPG,AFNE01.JPG,AFNE01.JPG,,,,,,,,,0,1,1,5,,,,,,,,,,,,,,,AFSA05.jpg,AFNE12.jpg,AFSA18.jpg,AFNE19.jpg,AFNE12.jpg,FN,3,num_6,16,num_6,1.11657829769,,,2017_Apr_12_1643,60.0116835184,FEMA4ImagesEEG,001,200110,
AFNE01.JPG,AFNE01.JPG,AFNE01.JPG,AFNE01.JPG,AFNE01.JPG,AFNE01.JPG,,,,,,,,,0,2,2,1,,,,,,,,,,,,,,,AFNE13.jpg,AFSA15.jpg,AFSA01.jpg,AFNE20.jpg,AFSA15.jpg,FS,4,num_6,16,num_6,0.683470968157,,,2017_Apr_12_1643,60.0116835184,FEMA4ImagesEEG,001,200110,
AFNE01.JPG,AFNE01.JPG,AFNE01.JPG,AFNE01.JPG,AFNE01.JPG,AFNE01.JPG,,,,,,,,,0,3,3,8,,,,,,,,,,,,,,,AFSA01.jpg,AFNE12.jpg,AFNE17.jpg,AFSA09.jpg,AFSA09.jpg,FS,4,num_4,16,num_4,0.733541001566,,,2017_Apr_12_1643,60.0116835184,FEMA4ImagesEEG,001,200110,
AFNE01.JPG,AFNE01.JPG,AFNE01.JPG,AFNE01.JPG,AFNE01.JPG,AFNE01.JPG,,,,,,,,,0,4,4,3,,,,,,,,,,,,,,,AFNE14.jpg,AFSA14.jpg,AFSA02.jpg,AFNE17.jpg,AFSA14.jpg,FS,4,num_6,16,num_6,0.966727746185,,,2017_Apr_12_1643,60.0116835184,FEMA4ImagesEEG,001,200110,
AFNE01.JPG,AFNE01.JPG,AFNE01.JPG,AFNE01.JPG,AFNE01.JPG,AFNE01.JPG,,,,,,,,,0,5,5,9,,,,,,,,,,,,,,,AFSA02.jpg,AFNE06.jpg,AFNE13.jpg,AFSA17.jpg,AFSA02.jpg,FS,4,num_8,16,num_8,0.666808219627,,,2017_Apr_12_1643,60.0116835184,FEMA4ImagesEEG,001,200110,
AFNE01.JPG,AFNE01.JPG,AFNE01.JPG,AFNE01.JPG,AFNE01.JPG,AFNE01.JPG,,,,,,,,,0,6,6,0,,,,,,,,,,,,,,,AFNE06.jpg,AFNE05.jpg,AFSA17.jpg,AFSA09.jpg,AFSA17.jpg,FS,4,num_2,16,num_2,0.750264369883,,,2017_Apr_12_1643,60.0116835184,FEMA4ImagesEEG,001,200110,
AFNE01.JPG,AFNE01.JPG,AFNE01.JPG,AFNE01.JPG,AFNE01.JPG,AFNE01.JPG,,,,,,,,,0,7,7,2,,,,,,,,,,,,,,,AFNE14.jpg,AFSA05.jpg,AFNE10.jpg,AFSA07.jpg,AFNE10.jpg,FN,3,num_2,32,num_8,1.25011249911,,,2017_Apr_12_1643,60.0116835184,FEMA4ImagesEEG,001,200110,
AFNE01.JPG,AFNE01.JPG,AFNE01.JPG,AFNE01.JPG,AFNE01.JPG,AFNE01.JPG,,,,,,,,,0,8,8,7,,,,,,,,,,,,,,,AFNE10.jpg,AFNE04.jpg,AFSA06.jpg,AFSA07.jpg,AFSA06.jpg,FS,4,num_2,16,num_2,0.616844351403,,,2017_Apr_12_1643,60.0116835184,FEMA4ImagesEEG,001,200110,
AFNE01.JPG,AFNE01.JPG,AFNE01.JPG,AFNE01.JPG,AFNE01.JPG,AFNE01.JPG,,,,,,,,,0,9,9,4,,,,,,,,,,,,,,,AFNE11.jpg,AFSA18.jpg,AFNE14.jpg,AFSA19.jpg,AFNE11.jpg,FN,3,num_8,16,num_8,1.0170441079,,,2017_Apr_12_1643,60.0116835184,FEMA4ImagesEEG,001,200110,
AFNE01.JPG,AFNE01.JPG,AFNE01.JPG,AFNE01.JPG,AFNE01.JPG,AFNE01.JPG,,,,,,,,,1,0,10,6,,,,,,,,,,,,,,,AFSA14.jpg,AFNE02.jpg,AFNE13.jpg,AFSA18.jpg,AFNE02.jpg,FN,3,num_6,16,num_6,1.56676726136,,,2017_Apr_12_1643,60.0116835184,FEMA4ImagesEEG,001,200110,
AFNE01.JPG,AFNE01.JPG,AFNE01.JPG,AFNE01.JPG,AFNE01.JPG,AFNE01.JPG,,,,,,,,,1,1,11,7,,,,,,,,,,,,,,,AFSA02.jpg,AFNE13.jpg,AFNE10.jpg,AFSA16.jpg,AFNE13.jpg,FN,3,num_6,32,num_2,1.48341888003,,,2017_Apr_12_1643,60.0116835184,FEMA4ImagesEEG,001,200110,
AFNE01.JPG,AFNE01.JPG,AFNE01.JPG,AFNE01.JPG,AFNE01.JPG,AFNE01.JPG,,,,,,,,,1,2,12,3,,,,,,,,,,,,,,,AFNE07.jpg,AFSA11.jpg,AFSA19.jpg,AFNE12.jpg,AFSA19.jpg,FS,4,num_2,16,num_2,0.550220620818,,,2017_Apr_12_1643,60.0116835184,FEMA4ImagesEEG,001,200110,
AFNE01.JPG,AFNE01.JPG,AFNE01.JPG,AFNE01.JPG,AFNE01.JPG,AFNE01.JPG,,,,,,,,,1,3,13,5,,,,,,,,,,,,,,,AFNE19.jpg,AFSA14.jpg,AFSA10.jpg,AFNE15.jpg,AFNE15.jpg,FN,3,num_4,16,num_4,1.03345667897,,,2017_Apr_12_1643,60.0116835184,FEMA4ImagesEEG,001,200110,
AFNE01.JPG,AFNE01.JPG,AFNE01.JPG,AFNE01.JPG,AFNE01.JPG,AFNE01.JPG,,,,,,,,,1,4,14,1,,,,,,,,,,,,,,,AFNE19.jpg,AFSA19.jpg,AFNE06.jpg,AFSA03.jpg,AFSA19.jpg,FS,4,num_6,16,num_6,0.783493965399,,,2017_Apr_12_1643,60.0116835184,FEMA4ImagesEEG,001,200110,
AFNE01.JPG,AFNE01.JPG,AFNE01.JPG,AFNE01.JPG,AFNE01.JPG,AFNE01.JPG,,,,,,,,,1,5,15,4,,,,,,,,,,,,,,,AFNE20.jpg,AFSA02.jpg,AFSA05.jpg,AFNE12.jpg,AFNE12.jpg,FN,3,num_4,32,num_8,1.38344303193,,,2017_Apr_12_1643,60.0116835184,FEMA4ImagesEEG,001,200110,
AFNE01.JPG,AFNE01.JPG,AFNE01.JPG,AFNE01.JPG,AFNE01.JPG,AFNE01.JPG,,,,,,,,,1,6,16,8,,,,,,,,,,,,,,,AFNE06.jpg,AFNE20.jpg,AFSA15.jpg,AFSA10.jpg,AFSA15.jpg,FS,4,num_2,32,num_4,1.1501093884,,,2017_Apr_12_1643,60.0116835184,FEMA4ImagesEEG,001,200110,
AFNE01.JPG,AFNE01.JPG,AFNE01.JPG,AFNE01.JPG,AFNE01.JPG,AFNE01.JPG,,,,,,,,,1,7,17,9,,,,,,,,,,,,,,,AFSA12.jpg,AFNE20.jpg,AFSA05.jpg,AFNE07.jpg,AFSA12.jpg,FS,4,num_8,16,num_8,0.750076416414,,,2017_Apr_12_1643,60.0116835184,FEMA4ImagesEEG,001,200110,
AFNE01.JPG,AFNE01.JPG,AFNE01.JPG,AFNE01.JPG,AFNE01.JPG,AFNE01.JPG,,,,,,,,,1,8,18,0,,,,,,,,,,,,,,,AFNE05.jpg,AFSA04.jpg,AFSA12.jpg,AFNE04.jpg,AFNE05.jpg,FN,3,num_8,16,num_8,1.06672315951,,,2017_Apr_12_1643,60.0116835184,FEMA4ImagesEEG,001,200110,
AFNE01.JPG,AFNE01.JPG,AFNE01.JPG,AFNE01.JPG,AFNE01.JPG,AFNE01.JPG,,,,,,,,,1,9,19,2,,,,,,,,,,,,,,,AFNE09.jpg,AFSA02.jpg,AFNE13.jpg,AFSA01.jpg,AFNE13.jpg,FN,3,num_2,16,num_2,1.16674840171,,,2017_Apr_12_1643,60.0116835184,FEMA4ImagesEEG,001,200110,
AFNE01.JPG,AFNE01.JPG,AFNE01.JPG,AFNE01.JPG,AFNE01.JPG,AFNE01.JPG,,,,,,,,,2,0,20,0,,,,,,,,,,,,,,,AFSA20.jpg,AFSA02.jpg,AFNE02.jpg,AFNE19.jpg,AFNE02.jpg,FN,3,num_2,16,num_2,0.81684704544,,,2017_Apr_12_1643,60.0116835184,FEMA4ImagesEEG,001,200110,
AFNE01.JPG,AFNE01.JPG,AFNE01.JPG,AFNE01.JPG,AFNE01.JPG,AFNE01.JPG,,,,,,,,,2,1,21,5,,,,,,,,,,,,,,,AFNE06.jpg,AFNE17.jpg,AFSA16.jpg,AFSA07.jpg,AFNE17.jpg,FN,3,num_6,32,num_8,0.766825763974,,,2017_Apr_12_1643,60.0116835184,FEMA4ImagesEEG,001,200110,
AFNE01.JPG,AFNE01.JPG,AFNE01.JPG,AFNE01.JPG,AFNE01.JPG,AFNE01.JPG,,,,,,,,,2,2,22,1,,,,,,,,,,,,,,,AFNE19.jpg,AFSA05.jpg,AFNE14.jpg,AFSA17.jpg,AFNE14.jpg,FN,3,num_2,16,num_2,1.43341588089,,,2017_Apr_12_1643,60.0116835184,FEMA4ImagesEEG,001,200110,
AFNE01.JPG,AFNE01.JPG,AFNE01.JPG,AFNE01.JPG,AFNE01.JPG,AFNE01.JPG,,,,,,,,,2,3,23,2,,,,,,,,,,,,,,,AFNE19.jpg,AFSA19.jpg,AFSA11.jpg,AFNE12.jpg,AFNE19.jpg,FN,3,num_8,32,num_4,2.33335984778,,,2017_Apr_12_1643,60.0116835184,FEMA4ImagesEEG,001,200110,
AFNE01.JPG,AFNE01.JPG,AFNE01.JPG,AFNE01.JPG,AFNE01.JPG,AFNE01.JPG,,,,,,,,,2,4,24,4,,,,,,,,,,,,,,,AFSA05.jpg,AFNE14.jpg,AFNE12.jpg,AFSA10.jpg,AFSA05.jpg,FS,4,num_8,16,num_8,0.61677956162,,,2017_Apr_12_1643,60.0116835184,FEMA4ImagesEEG,001,200110,
AFNE01.JPG,AFNE01.JPG,AFNE01.JPG,AFNE01.JPG,AFNE01.JPG,AFNE01.JPG,,,,,,,,,2,5,25,7,,,,,,,,,,,,,,,AFSA14.jpg,AFSA13.jpg,AFNE13.jpg,AFNE01.jpg,AFNE13.jpg,FN,3,num_2,32,num_4,1.31671634363,,,2017_Apr_12_1643,60.0116835184,FEMA4ImagesEEG,001,200110,
AFNE01.JPG,AFNE01.JPG,AFNE01.JPG,AFNE01.JPG,AFNE01.JPG,AFNE01.JPG,,,,,,,,,2,6,26,3,,,,,,,,,,,,,,,AFNE07.jpg,AFSA12.jpg,AFSA11.jpg,AFNE06.jpg,AFNE07.jpg,FN,3,num_8,32,num_4,1.38343308866,,,2017_Apr_12_1643,60.0116835184,FEMA4ImagesEEG,001,200110,
AFNE01.JPG,AFNE01.JPG,AFNE01.JPG,AFNE01.JPG,AFNE01.JPG,AFNE01.JPG,,,,,,,,,2,7,27,8,,,,,,,,,,,,,,,AFNE10.jpg,AFNE04.jpg,AFSA19.jpg,AFSA09.jpg,AFNE04.jpg,FN,3,num_6,32,num_8,1.38341673138,,,2017_Apr_12_1643,60.0116835184,FEMA4ImagesEEG,001,200110,
AFNE01.JPG,AFNE01.JPG,AFNE01.JPG,AFNE01.JPG,AFNE01.JPG,AFNE01.JPG,,,,,,,,,2,8,28,9,,,,,,,,,,,,,,,AFNE12.jpg,AFSA15.jpg,AFNE17.jpg,AFSA04.jpg,AFNE17.jpg,FN,3,num_2,16,num_2,0.850150411017,,,2017_Apr_12_1643,60.0116835184,FEMA4ImagesEEG,001,200110,
AFNE01.JPG,AFNE01.JPG,AFNE01.JPG,AFNE01.JPG,AFNE01.JPG,AFNE01.JPG,,,,,,,,,2,9,29,6,,,,,,,,,,,,,,,AFSA19.jpg,AFSA17.jpg,AFNE01.jpg,AFNE08.jpg,AFSA19.jpg,FS,4,num_8,32,num_4,2.83340202505,,,2017_Apr_12_1643,60.0116835184,FEMA4ImagesEEG,001,200110,
AFNE01.JPG,AFNE01.JPG,AFNE01.JPG,AFNE01.JPG,AFNE01.JPG,AFNE01.JPG,,,,,,,,,3,0,30,1,,,,,,,,,,,,,,,AFSA16.jpg,AFNE08.jpg,AFNE16.jpg,AFSA01.jpg,AFSA01.jpg,FS,4,num_4,32,num_8,2.95030138316,,,2017_Apr_12_1643,60.0116835184,FEMA4ImagesEEG,001,200110,
AFNE01.JPG,AFNE01.JPG,AFNE01.JPG,AFNE01.JPG,AFNE01.JPG,AFNE01.JPG,,,,,,,,,3,1,31,4,,,,,,,,,,,,,,,AFNE06.jpg,AFSA02.jpg,AFSA20.jpg,AFNE05.jpg,AFNE05.jpg,FN,3,num_4,32,num_2,2.5333279022,,,2017_Apr_12_1643,60.0116835184,FEMA4ImagesEEG,001,200110,
AFNE01.JPG,AFNE01.JPG,AFNE01.JPG,AFNE01.JPG,AFNE01.JPG,AFNE01.JPG,,,,,,,,,3,2,32,9,,,,,,,,,,,,,,,AFNE06.jpg,AFNE13.jpg,AFSA01.jpg,AFSA03.jpg,AFSA01.jpg,FS,4,num_2,16,num_2,0.700173167046,,,2017_Apr_12_1643,60.0116835184,FEMA4ImagesEEG,001,200110,
AFNE01.JPG,AFNE01.JPG,AFNE01.JPG,AFNE01.JPG,AFNE01.JPG,AFNE01.JPG,,,,,,,,,3,3,33,0,,,,,,,,,,,,,,,AFNE17.jpg,AFSA16.jpg,AFSA12.jpg,AFNE05.jpg,AFNE05.jpg,FN,3,num_4,16,num_4,1.13342130138,,,2017_Apr_12_1643,60.0116835184,FEMA4ImagesEEG,001,200110,
AFNE01.JPG,AFNE01.JPG,AFNE01.JPG,AFNE01.JPG,AFNE01.JPG,AFNE01.JPG,,,,,,,,,3,4,34,2,,,,,,,,,,,,,,,AFNE01.jpg,AFSA08.jpg,AFSA18.jpg,AFNE06.jpg,AFNE01.jpg,FN,3,num_8,16,num_8,1.21676102327,,,2017_Apr_12_1643,60.0116835184,FEMA4ImagesEEG,001,200110,
AFNE01.JPG,AFNE01.JPG,AFNE01.JPG,AFNE01.JPG,AFNE01.JPG,AFNE01.JPG,,,,,,,,,3,5,35,3,,,,,,,,,,,,,,,AFSA06.jpg,AFNE02.jpg,AFNE04.jpg,AFSA11.jpg,AFSA06.jpg,FS,4,num_8,16,num_8,0.683493740857,,,2017_Apr_12_1643,60.0116835184,FEMA4ImagesEEG,001,200110,
AFNE01.JPG,AFNE01.JPG,AFNE01.JPG,AFNE01.JPG,AFNE01.JPG,AFNE01.JPG,,,,,,,,,3,6,36,7,,,,,,,,,,,,,,,AFNE19.jpg,AFNE01.jpg,AFSA16.jpg,AFSA14.jpg,AFSA16.jpg,FS,4,num_2,16,num_2,0.749867614824,,,2017_Apr_12_1643,60.0116835184,FEMA4ImagesEEG,001,200110,
AFNE01.JPG,AFNE01.JPG,AFNE01.JPG,AFNE01.JPG,AFNE01.JPG,AFNE01.JPG,,,,,,,,,3,7,37,6,,,,,,,,,,,,,,,AFSA02.jpg,AFSA15.jpg,AFNE03.jpg,AFNE20.jpg,AFSA15.jpg,FS,4,num_6,32,num_8,1.23347156169,,,2017_Apr_12_1643,60.0116835184,FEMA4ImagesEEG,001,200110,
AFNE01.JPG,AFNE01.JPG,AFNE01.JPG,AFNE01.JPG,AFNE01.JPG,AFNE01.JPG,,,,,,,,,3,8,38,5,,,,,,,,,,,,,,,AFSA11.jpg,AFNE05.jpg,AFSA18.jpg,AFNE09.jpg,AFNE05.jpg,FN,3,num_6,16,num_6,1.96670561517,,,2017_Apr_12_1643,60.0116835184,FEMA4ImagesEEG,001,200110,
AFNE01.JPG,AFNE01.JPG,AFNE01.JPG,AFNE01.JPG,AFNE01.JPG,AFNE01.JPG,,,,,,,,,3,9,39,8,,,,,,,,,,,,,,,AFSA12.jpg,AFSA09.jpg,AFNE12.jpg,AFNE10.jpg,AFSA12.jpg,FS,4,num_8,16,num_8,0.650147074834,,,2017_Apr_12_1643,60.0116835184,FEMA4ImagesEEG,001,200110,
AFNE01.JPG,AFNE01.JPG,AFNE01.JPG,AFNE01.JPG,AFNE01.JPG,AFNE01.JPG,,,,,,,,,4,0,40,3,,,,,,,,,,,,,,,AFNE17.jpg,AFSA01.jpg,AFSA14.jpg,AFNE12.jpg,AFNE17.jpg,FN,3,num_8,32,num_4,1.00013278611,,,2017_Apr_12_1643,60.0116835184,FEMA4ImagesEEG,001,200110,
AFNE01.JPG,AFNE01.JPG,AFNE01.JPG,AFNE01.JPG,AFNE01.JPG,AFNE01.JPG,,,,,,,,,4,1,41,0,,,,,,,,,,,,,,,AFNE08.jpg,AFSA09.jpg,AFNE17.jpg,AFSA20.jpg,AFNE17.jpg,FN,3,num_2,32,num_4,0.716766635887,,,2017_Apr_12_1643,60.0116835184,FEMA4ImagesEEG,001,200110,
AFNE01.JPG,AFNE01.JPG,AFNE01.JPG,AFNE01.JPG,AFNE01.JPG,AFNE01.JPG,,,,,,,,,4,2,42,5,,,,,,,,,,,,,,,AFNE08.jpg,AFSA06.jpg,AFNE15.jpg,AFSA13.jpg,AFNE15.jpg,FN,3,num_2,16,num_2,2.61648351885,,,2017_Apr_12_1643,60.0116835184,FEMA4ImagesEEG,001,200110,
AFNE01.JPG,AFNE01.JPG,AFNE01.JPG,AFNE01.JPG,AFNE01.JPG,AFNE01.JPG,,,,,,,,,4,3,43,1,,,,,,,,,,,,,,,AFNE10.jpg,AFSA07.jpg,AFNE09.jpg,AFSA18.jpg,AFNE10.jpg,FN,3,num_8,16,num_8,0.850137260277,,,2017_Apr_12_1643,60.0116835184,FEMA4ImagesEEG,001,200110,
AFNE01.JPG,AFNE01.JPG,AFNE01.JPG,AFNE01.JPG,AFNE01.JPG,AFNE01.JPG,,,,,,,,,4,4,44,8,,,,,,,,,,,,,,,AFNE06.jpg,AFSA17.jpg,AFSA04.jpg,AFNE15.jpg,AFSA17.jpg,FS,4,num_6,16,num_6,0.916775744874,,,2017_Apr_12_1643,60.0116835184,FEMA4ImagesEEG,001,200110,
AFNE01.JPG,AFNE01.JPG,AFNE01.JPG,AFNE01.JPG,AFNE01.JPG,AFNE01.JPG,,,,,,,,,4,5,45,7,,,,,,,,,,,,,,,AFSA06.jpg,AFSA09.jpg,AFNE11.jpg,AFNE13.jpg,AFNE11.jpg,FN,3,num_2,16,num_2,0.71681442624,,,2017_Apr_12_1643,60.0116835184,FEMA4ImagesEEG,001,200110,
AFNE01.JPG,AFNE01.JPG,AFNE01.JPG,AFNE01.JPG,AFNE01.JPG,AFNE01.JPG,,,,,,,,,4,6,46,4,,,,,,,,,,,,,,,AFNE20.jpg,AFSA10.jpg,AFNE19.jpg,AFSA12.jpg,AFSA12.jpg,FS,4,num_4,16,num_4,0.9001168455,,,2017_Apr_12_1643,60.0116835184,FEMA4ImagesEEG,001,200110,
AFNE01.JPG,AFNE01.JPG,AFNE01.JPG,AFNE01.JPG,AFNE01.JPG,AFNE01.JPG,,,,,,,,,4,7,47,6,,,,,,,,,,,,,,,AFNE07.jpg,AFNE15.jpg,AFSA03.jpg,AFSA06.jpg,AFNE07.jpg,FN,3,num_8,16,num_8,1.61675133696,,,2017_Apr_12_1643,60.0116835184,FEMA4ImagesEEG,001,200110,
AFNE01.JPG,AFNE01.JPG,AFNE01.JPG,AFNE01.JPG,AFNE01.JPG,AFNE01.JPG,,,,,,,,,4,8,48,9,,,,,,,,,,,,,,,AFNE11.jpg,AFNE16.jpg,AFSA19.jpg,AFSA13.jpg,AFSA13.jpg,FS,4,num_4,16,num_4,1.90006873431,,,2017_Apr_12_1643,60.0116835184,FEMA4ImagesEEG,001,200110,
AFNE01.JPG,AFNE01.JPG,AFNE01.JPG,AFNE01.JPG,AFNE01.JPG,AFNE01.JPG,,,,,,,,,4,9,49,2,,,,,,,,,,,,,,,AFNE12.jpg,AFNE18.jpg,AFSA17.jpg,AFSA01.jpg,AFSA17.jpg,FS,4,num_2,16,num_2,0.866794555914,,,2017_Apr_12_1643,60.0116835184,FEMA4ImagesEEG,001,200110,
AFNE01.JPG,AFNE01.JPG,AFNE01.JPG,AFNE01.JPG,AFNE01.JPG,AFNE01.JPG,,,,,,,,,5,0,50,3,,,,,,,,,,,,,,,AFSA03.jpg,AFSA09.jpg,AFNE17.jpg,AFNE12.jpg,AFNE17.jpg,FN,3,num_2,32,num_4,1.18344546901,,,2017_Apr_12_1643,60.0116835184,FEMA4ImagesEEG,001,200110,
AFNE01.JPG,AFNE01.JPG,AFNE01.JPG,AFNE01.JPG,AFNE01.JPG,AFNE01.JPG,,,,,,,,,5,1,51,7,,,,,,,,,,,,,,,AFNE09.jpg,AFSA19.jpg,AFNE15.jpg,AFSA13.jpg,AFSA19.jpg,FS,4,num_6,16,num_6,0.916751048062,,,2017_Apr_12_1643,60.0116835184,FEMA4ImagesEEG,001,200110,
AFNE01.JPG,AFNE01.JPG,AFNE01.JPG,AFNE01.JPG,AFNE01.JPG,AFNE01.JPG,,,,,,,,,5,2,52,8,,,,,,,,,,,,,,,AFNE08.jpg,AFNE16.jpg,AFSA19.jpg,AFSA14.jpg,AFSA19.jpg,FS,4,num_2,16,num_2,0.533555627335,,,2017_Apr_12_1643,60.0116835184,FEMA4ImagesEEG,001,200110,
AFNE01.JPG,AFNE01.JPG,AFNE01.JPG,AFNE01.JPG,AFNE01.JPG,AFNE01.JPG,,,,,,,,,5,3,53,2,,,,,,,,,,,,,,,AFNE08.jpg,AFNE11.jpg,AFSA12.jpg,AFSA11.jpg,AFSA12.jpg,FS,4,num_2,32,num_8,1.00015427591,,,2017_Apr_12_1643,60.0116835184,FEMA4ImagesEEG,001,200110,
AFNE01.JPG,AFNE01.JPG,AFNE01.JPG,AFNE01.JPG,AFNE01.JPG,AFNE01.JPG,,,,,,,,,5,4,54,0,,,,,,,,,,,,,,,AFSA01.jpg,AFNE15.jpg,AFSA06.jpg,AFNE04.jpg,AFNE04.jpg,FN,3,num_4,32,num_6,0.916791460942,,,2017_Apr_12_1643,60.0116835184,FEMA4ImagesEEG,001,200110,
AFNE01.JPG,AFNE01.JPG,AFNE01.JPG,AFNE01.JPG,AFNE01.JPG,AFNE01.JPG,,,,,,,,,5,5,55,1,,,,,,,,,,,,,,,AFSA20.jpg,AFNE08.jpg,AFNE19.jpg,AFSA19.jpg,AFSA19.jpg,FS,4,num_4,32,num_2,2.13338505803,,,2017_Apr_12_1643,60.0116835184,FEMA4ImagesEEG,001,200110,
AFNE01.JPG,AFNE01.JPG,AFNE01.JPG,AFNE01.JPG,AFNE01.JPG,AFNE01.JPG,,,,,,,,,5,6,56,9,,,,,,,,,,,,,,,AFSA20.jpg,AFNE12.jpg,AFSA02.jpg,AFNE09.jpg,AFSA20.jpg,FS,4,num_8,32,num_2,0.733483589254,,,2017_Apr_12_1643,60.0116835184,FEMA4ImagesEEG,001,200110,
AFNE01.JPG,AFNE01.JPG,AFNE01.JPG,AFNE01.JPG,AFNE01.JPG,AFNE01.JPG,,,,,,,,,5,7,57,4,,,,,,,,,,,,,,,AFNE03.jpg,AFNE06.jpg,AFSA14.jpg,AFSA15.jpg,AFSA14.jpg,FS,4,num_2,16,num_2,1.20011078333,,,2017_Apr_12_1643,60.0116835184,FEMA4ImagesEEG,001,200110,
AFNE01.JPG,AFNE01.JPG,AFNE01.JPG,AFNE01.JPG,AFNE01.JPG,AFNE01.JPG,,,,,,,,,5,8,58,5,,,,,,,,,,,,,,,AFSA02.jpg,AFSA13.jpg,AFNE13.jpg,AFNE02.jpg,AFNE13.jpg,FN,3,num_2,32,num_4,0.766778615303,,,2017_Apr_12_1643,60.0116835184,FEMA4ImagesEEG,001,200110,
AFNE01.JPG,AFNE01.JPG,AFNE01.JPG,AFNE01.JPG,AFNE01.JPG,AFNE01.JPG,,,,,,,,,5,9,59,6,,,,,,,,,,,,,,,AFSA19.jpg,AFNE16.jpg,AFSA07.jpg,AFNE19.jpg,AFSA19.jpg,FS,4,num_8,32,num_4,1.18313274812,,,2017_Apr_12_1643,60.0116835184,FEMA4ImagesEEG,001,200110,
,,,,,,,,,,,,,,,,,,,,,,,,,,,,,,,,,,,,,,,,,,,space,4.3998228875,2017_Apr_12_1643,60.0116835184,FEMA4ImagesEEG,001,200110,
AFNE01.JPG,AFNE01.JPG,AFNE01.JPG,AFNE01.JPG,AFNE01.JPG,AFNE01.JPG,,,,,,,,,,,,,0,0,0,2,,,,,,,,,,,AMSA01.jpg,AMNE17.jpg,AMSA06.jpg,AMNE19.jpg,AMSA06.jpg,MS,2,num_2,16,num_2,1.00011257967,,,2017_Apr_12_1643,60.0116835184,FEMA4ImagesEEG,001,200110,
AFNE01.JPG,AFNE01.JPG,AFNE01.JPG,AFNE01.JPG,AFNE01.JPG,AFNE01.JPG,,,,,,,,,,,,,0,1,1,8,,,,,,,,,,,AMSA16.jpg,AMNE04.jpg,AMNE03.jpg,AMSA06.jpg,AMSA06.jpg,MS,2,num_4,16,num_4,1.25015162956,,,2017_Apr_12_1643,60.0116835184,FEMA4ImagesEEG,001,200110,
AFNE01.JPG,AFNE01.JPG,AFNE01.JPG,AFNE01.JPG,AFNE01.JPG,AFNE01.JPG,,,,,,,,,,,,,0,2,2,6,,,,,,,,,,,AMSA20.jpg,AMNE08.jpg,AMNE04.jpg,AMSA06.jpg,AMSA20.jpg,MS,2,num_8,16,num_8,1.06676806323,,,2017_Apr_12_1643,60.0116835184,FEMA4ImagesEEG,001,200110,
AFNE01.JPG,AFNE01.JPG,AFNE01.JPG,AFNE01.JPG,AFNE01.JPG,AFNE01.JPG,,,,,,,,,,,,,0,3,3,3,,,,,,,,,,,AMNE05.jpg,AMNE11.jpg,AMSA06.jpg,AMSA07.jpg,AMNE11.jpg,MN,1,num_6,16,num_6,1.25011731032,,,2017_Apr_12_1643,60.0116835184,FEMA4ImagesEEG,001,200110,
AFNE01.JPG,AFNE01.JPG,AFNE01.JPG,AFNE01.JPG,AFNE01.JPG,AFNE01.JPG,,,,,,,,,,,,,0,4,4,9,,,,,,,,,,,AMSA05.jpg,AMNE06.jpg,AMSA10.jpg,AMNE15.jpg,AMSA05.jpg,MS,2,num_8,16,num_8,0.866790707223,,,2017_Apr_12_1643,60.0116835184,FEMA4ImagesEEG,001,200110,
AFNE01.JPG,AFNE01.JPG,AFNE01.JPG,AFNE01.JPG,AFNE01.JPG,AFNE01.JPG,,,,,,,,,,,,,0,5,5,4,,,,,,,,,,,AMNE13.jpg,AMSA09.jpg,AMSA01.jpg,AMNE09.jpg,AMNE09.jpg,MN,1,num_4,16,num_4,0.88353075413,,,2017_Apr_12_1643,60.0116835184,FEMA4ImagesEEG,001,200110,
AFNE01.JPG,AFNE01.JPG,AFNE01.JPG,AFNE01.JPG,AFNE01.JPG,AFNE01.JPG,,,,,,,,,,,,,0,6,6,0,,,,,,,,,,,AMNE12.jpg,AMSA05.jpg,AMNE10.jpg,AMSA12.jpg,AMNE12.jpg,MN,1,num_8,16,num_8,1.20012521697,,,2017_Apr_12_1643,60.0116835184,FEMA4ImagesEEG,001,200110,
AFNE01.JPG,AFNE01.JPG,AFNE01.JPG,AFNE01.JPG,AFNE01.JPG,AFNE01.JPG,,,,,,,,,,,,,0,7,7,1,,,,,,,,,,,AMSA13.jpg,AMNE14.jpg,AMSA19.jpg,AMNE18.jpg,AMSA13.jpg,MS,2,num_8,16,num_8,1.28344729776,,,2017_Apr_12_1643,60.0116835184,FEMA4ImagesEEG,001,200110,
AFNE01.JPG,AFNE01.JPG,AFNE01.JPG,AFNE01.JPG,AFNE01.JPG,AFNE01.JPG,,,,,,,,,,,,,0,8,8,5,,,,,,,,,,,AMNE10.jpg,AMSA13.jpg,AMNE16.jpg,AMSA20.jpg,AMSA13.jpg,MS,2,num_6,32,num_2,1.39996625809,,,2017_Apr_12_1643,60.0116835184,FEMA4ImagesEEG,001,200110,
AFNE01.JPG,AFNE01.JPG,AFNE01.JPG,AFNE01.JPG,AFNE01.JPG,AFNE01.JPG,,,,,,,,,,,,,0,9,9,7,,,,,,,,,,,AMSA09.jpg,AMNE17.jpg,AMNE15.jpg,AMSA05.jpg,AMNE15.jpg,MN,1,num_2,16,num_2,0.749829767272,,,2017_Apr_12_1643,60.0116835184,FEMA4ImagesEEG,001,200110,
AFNE01.JPG,AFNE01.JPG,AFNE01.JPG,AFNE01.JPG,AFNE01.JPG,AFNE01.JPG,,,,,,,,,,,,,1,0,10,6,,,,,,,,,,,AMNE18.jpg,AMSA11.jpg,AMNE07.jpg,AMSA07.jpg,AMSA07.jpg,MS,2,num_4,16,num_4,0.966743141878,,,2017_Apr_12_1643,60.0116835184,FEMA4ImagesEEG,001,200110,
AFNE01.JPG,AFNE01.JPG,AFNE01.JPG,AFNE01.JPG,AFNE01.JPG,AFNE01.JPG,,,,,,,,,,,,,1,1,11,5,,,,,,,,,,,AMNE19.jpg,AMNE06.jpg,AMSA10.jpg,AMSA04.jpg,AMSA10.jpg,MS,2,num_2,16,num_2,0.733510852326,,,2017_Apr_12_1643,60.0116835184,FEMA4ImagesEEG,001,200110,
AFNE01.JPG,AFNE01.JPG,AFNE01.JPG,AFNE01.JPG,AFNE01.JPG,AFNE01.JPG,,,,,,,,,,,,,1,2,12,1,,,,,,,,,,,AMNE10.jpg,AMSA02.jpg,AMSA13.jpg,AMNE03.jpg,AMSA02.jpg,MS,2,num_6,16,num_6,1.1001535384,,,2017_Apr_12_1643,60.0116835184,FEMA4ImagesEEG,001,200110,
AFNE01.JPG,AFNE01.JPG,AFNE01.JPG,AFNE01.JPG,AFNE01.JPG,AFNE01.JPG,,,,,,,,,,,,,1,3,13,7,,,,,,,,,,,AMNE02.jpg,AMSA19.jpg,AMNE16.jpg,AMSA17.jpg,AMNE16.jpg,MN,1,num_2,16,num_2,0.900145070627,,,2017_Apr_12_1643,60.0116835184,FEMA4ImagesEEG,001,200110,
AFNE01.JPG,AFNE01.JPG,AFNE01.JPG,AFNE01.JPG,AFNE01.JPG,AFNE01.JPG,,,,,,,,,,,,,1,4,14,3,,,,,,,,,,,AMSA20.jpg,AMNE18.jpg,AMNE03.jpg,AMSA18.jpg,AMSA18.jpg,MS,2,num_4,16,num_4,0.866781085264,,,2017_Apr_12_1643,60.0116835184,FEMA4ImagesEEG,001,200110,
AFNE01.JPG,AFNE01.JPG,AFNE01.JPG,AFNE01.JPG,AFNE01.JPG,AFNE01.JPG,,,,,,,,,,,,,1,5,15,2,,,,,,,,,,,AMSA10.jpg,AMNE10.jpg,AMNE06.jpg,AMSA03.jpg,AMNE06.jpg,MN,1,num_2,16,num_2,0.716741297394,,,2017_Apr_12_1643,60.0116835184,FEMA4ImagesEEG,001,200110,
AFNE01.JPG,AFNE01.JPG,AFNE01.JPG,AFNE01.JPG,AFNE01.JPG,AFNE01.JPG,,,,,,,,,,,,,1,6,16,0,,,,,,,,,,,AMNE20.jpg,AMSA18.jpg,AMNE19.jpg,AMSA12.jpg,AMNE19.jpg,MN,1,num_2,16,num_2,1.05014797347,,,2017_Apr_12_1643,60.0116835184,FEMA4ImagesEEG,001,200110,
AFNE01.JPG,AFNE01.JPG,AFNE01.JPG,AFNE01.JPG,AFNE01.JPG,AFNE01.JPG,,,,,,,,,,,,,1,7,17,4,,,,,,,,,,,AMNE20.jpg,AMNE07.jpg,AMSA11.jpg,AMSA04.jpg,AMSA11.jpg,MS,2,num_2,16,num_2,1.08343722625,,,2017_Apr_12_1643,60.0116835184,FEMA4ImagesEEG,001,200110,
AFNE01.JPG,AFNE01.JPG,AFNE01.JPG,AFNE01.JPG,AFNE01.JPG,AFNE01.JPG,,,,,,,,,,,,,1,8,18,8,,,,,,,,,,,AMNE20.jpg,AMSA02.jpg,AMNE15.jpg,AMSA01.jpg,AMNE20.jpg,MN,1,num_8,16,num_8,1.20012297155,,,2017_Apr_12_1643,60.0116835184,FEMA4ImagesEEG,001,200110,
AFNE01.JPG,AFNE01.JPG,AFNE01.JPG,AFNE01.JPG,AFNE01.JPG,AFNE01.JPG,,,,,,,,,,,,,1,9,19,9,,,,,,,,,,,AMSA20.jpg,AMNE10.jpg,AMSA17.jpg,AMNE07.jpg,AMSA17.jpg,MS,2,num_2,16,num_2,0.816757559311,,,2017_Apr_12_1643,60.0116835184,FEMA4ImagesEEG,001,200110,
AFNE01.JPG,AFNE01.JPG,AFNE01.JPG,AFNE01.JPG,AFNE01.JPG,AFNE01.JPG,,,,,,,,,,,,,2,0,20,9,,,,,,,,,,,AMSA09.jpg,AMSA16.jpg,AMNE03.jpg,AMNE19.jpg,AMNE03.jpg,MN,1,num_2,32,num_4,1.16647384875,,,2017_Apr_12_1643,60.0116835184,FEMA4ImagesEEG,001,200110,
AFNE01.JPG,AFNE01.JPG,AFNE01.JPG,AFNE01.JPG,AFNE01.JPG,AFNE01.JPG,,,,,,,,,,,,,2,1,21,2,,,,,,,,,,,AMNE18.jpg,AMSA02.jpg,AMNE03.jpg,AMSA04.jpg,AMSA02.jpg,MS,2,num_6,32,num_2,0.916798837949,,,2017_Apr_12_1643,60.0116835184,FEMA4ImagesEEG,001,200110,
AFNE01.JPG,AFNE01.JPG,AFNE01.JPG,AFNE01.JPG,AFNE01.JPG,AFNE01.JPG,,,,,,,,,,,,,2,2,22,0,,,,,,,,,,,AMSA11.jpg,AMNE02.jpg,AMSA03.jpg,AMNE08.jpg,AMSA03.jpg,MS,2,num_2,16,num_2,0.700128584635,,,2017_Apr_12_1643,60.0116835184,FEMA4ImagesEEG,001,200110,
AFNE01.JPG,AFNE01.JPG,AFNE01.JPG,AFNE01.JPG,AFNE01.JPG,AFNE01.JPG,,,,,,,,,,,,,2,3,23,4,,,,,,,,,,,AMNE14.jpg,AMSA05.jpg,AMNE16.jpg,AMSA13.jpg,AMSA05.jpg,MS,2,num_6,32,num_4,1.03347399924,,,2017_Apr_12_1643,60.0116835184,FEMA4ImagesEEG,001,200110,
AFNE01.JPG,AFNE01.JPG,AFNE01.JPG,AFNE01.JPG,AFNE01.JPG,AFNE01.JPG,,,,,,,,,,,,,2,4,24,3,,,,,,,,,,,AMNE16.jpg,AMSA11.jpg,AMNE14.jpg,AMSA05.jpg,AMSA11.jpg,MS,2,num_6,16,num_6,0.800150298513,,,2017_Apr_12_1643,60.0116835184,FEMA4ImagesEEG,001,200110,
AFNE01.JPG,AFNE01.JPG,AFNE01.JPG,AFNE01.JPG,AFNE01.JPG,AFNE01.JPG,,,,,,,,,,,,,2,5,25,1,,,,,,,,,,,AMSA04.jpg,AMNE01.jpg,AMNE02.jpg,AMSA02.jpg,AMSA04.jpg,MS,2,num_8,16,num_8,0.500175605062,,,2017_Apr_12_1643,60.0116835184,FEMA4ImagesEEG,001,200110,
AFNE01.JPG,AFNE01.JPG,AFNE01.JPG,AFNE01.JPG,AFNE01.JPG,AFNE01.JPG,,,,,,,,,,,,,2,6,26,5,,,,,,,,,,,AMNE16.jpg,AMSA14.jpg,AMNE03.jpg,AMSA01.jpg,AMSA14.jpg,MS,2,num_6,16,num_6,0.566787146963,,,2017_Apr_12_1643,60.0116835184,FEMA4ImagesEEG,001,200110,
AFNE01.JPG,AFNE01.JPG,AFNE01.JPG,AFNE01.JPG,AFNE01.JPG,AFNE01.JPG,,,,,,,,,,,,,2,7,27,8,,,,,,,,,,,AMSA07.jpg,AMSA01.jpg,AMNE09.jpg,AMNE16.jpg,AMSA07.jpg,MS,2,num_8,32,num_2,1.13346299762,,,2017_Apr_12_1643,60.0116835184,FEMA4ImagesEEG,001,200110,
AFNE01.JPG,AFNE01.JPG,AFNE01.JPG,AFNE01.JPG,AFNE01.JPG,AFNE01.JPG,,,,,,,,,,,,,2,8,28,7,,,,,,,,,,,AMNE20.jpg,AMSA10.jpg,AMSA19.jpg,AMNE11.jpg,AMNE11.jpg,MN,1,num_4,32,num_8,1.18344643153,,,2017_Apr_12_1643,60.0116835184,FEMA4ImagesEEG,001,200110,
AFNE01.JPG,AFNE01.JPG,AFNE01.JPG,AFNE01.JPG,AFNE01.JPG,AFNE01.JPG,,,,,,,,,,,,,2,9,29,6,,,,,,,,,,,AMNE13.jpg,AMSA03.jpg,AMSA09.jpg,AMNE12.jpg,AMSA03.jpg,MS,2,num_6,16,num_6,0.900140901096,,,2017_Apr_12_1643,60.0116835184,FEMA4ImagesEEG,001,200110,
AFNE01.JPG,AFNE01.JPG,AFNE01.JPG,AFNE01.JPG,AFNE01.JPG,AFNE01.JPG,,,,,,,,,,,,,3,0,30,8,,,,,,,,,,,AMSA03.jpg,AMNE11.jpg,AMNE13.jpg,AMSA12.jpg,AMNE13.jpg,MN,1,num_2,32,num_4,0.783302162774,,,2017_Apr_12_1643,60.0116835184,FEMA4ImagesEEG,001,200110,
AFNE01.JPG,AFNE01.JPG,AFNE01.JPG,AFNE01.JPG,AFNE01.JPG,AFNE01.JPG,,,,,,,,,,,,,3,1,31,4,,,,,,,,,,,AMSA08.jpg,AMSA01.jpg,AMNE08.jpg,AMNE01.jpg,AMNE08.jpg,MN,1,num_2,32,num_8,0.566790354438,,,2017_Apr_12_1643,60.0116835184,FEMA4ImagesEEG,001,200110,
AFNE01.JPG,AFNE01.JPG,AFNE01.JPG,AFNE01.JPG,AFNE01.JPG,AFNE01.JPG,,,,,,,,,,,,,3,2,32,0,,,,,,,,,,,AMNE01.jpg,AMSA13.jpg,AMSA16.jpg,AMNE07.jpg,AMNE01.jpg,MN,1,num_8,16,num_8,0.633454498369,,,2017_Apr_12_1643,60.0116835184,FEMA4ImagesEEG,001,200110,
AFNE01.JPG,AFNE01.JPG,AFNE01.JPG,AFNE01.JPG,AFNE01.JPG,AFNE01.JPG,,,,,,,,,,,,,3,3,33,5,,,,,,,,,,,AMSA14.jpg,AMNE16.jpg,AMNE14.jpg,AMSA05.jpg,AMSA05.jpg,MS,2,num_4,32,num_6,1.13341392437,,,2017_Apr_12_1643,60.0116835184,FEMA4ImagesEEG,001,200110,
AFNE01.JPG,AFNE01.JPG,AFNE01.JPG,AFNE01.JPG,AFNE01.JPG,AFNE01.JPG,,,,,,,,,,,,,3,4,34,1,,,,,,,,,,,AMNE20.jpg,AMNE10.jpg,AMSA13.jpg,AMSA17.jpg,AMSA13.jpg,MS,2,num_2,32,num_8,0.733449270017,,,2017_Apr_12_1643,60.0116835184,FEMA4ImagesEEG,001,200110,
AFNE01.JPG,AFNE01.JPG,AFNE01.JPG,AFNE01.JPG,AFNE01.JPG,AFNE01.JPG,,,,,,,,,,,,,3,5,35,2,,,,,,,,,,,AMSA14.jpg,AMNE07.jpg,AMSA03.jpg,AMNE13.jpg,AMNE07.jpg,MN,1,num_6,32,num_4,0.866710201837,,,2017_Apr_12_1643,60.0116835184,FEMA4ImagesEEG,001,200110,
AFNE01.JPG,AFNE01.JPG,AFNE01.JPG,AFNE01.JPG,AFNE01.JPG,AFNE01.JPG,,,,,,,,,,,,,3,6,36,6,,,,,,,,,,,AMSA17.jpg,AMNE06.jpg,AMSA09.jpg,AMNE19.jpg,AMNE06.jpg,MN,1,num_6,32,num_2,2.73334663315,,,2017_Apr_12_1643,60.0116835184,FEMA4ImagesEEG,001,200110,
AFNE01.JPG,AFNE01.JPG,AFNE01.JPG,AFNE01.JPG,AFNE01.JPG,AFNE01.JPG,,,,,,,,,,,,,3,7,37,9,,,,,,,,,,,AMSA18.jpg,AMSA11.jpg,AMNE20.jpg,AMNE07.jpg,AMNE20.jpg,MN,1,num_2,32,num_4,0.850175428204,,,2017_Apr_12_1643,60.0116835184,FEMA4ImagesEEG,001,200110,
AFNE01.JPG,AFNE01.JPG,AFNE01.JPG,AFNE01.JPG,AFNE01.JPG,AFNE01.JPG,,,,,,,,,,,,,3,8,38,3,,,,,,,,,,,AMSA09.jpg,AMNE13.jpg,AMNE02.jpg,AMSA16.jpg,AMNE02.jpg,MN,1,num_2,16,num_2,1.28343318496,,,2017_Apr_12_1643,60.0116835184,FEMA4ImagesEEG,001,200110,
AFNE01.JPG,AFNE01.JPG,AFNE01.JPG,AFNE01.JPG,AFNE01.JPG,AFNE01.JPG,,,,,,,,,,,,,3,9,39,7,,,,,,,,,,,AMSA08.jpg,AMNE13.jpg,AMSA10.jpg,AMNE07.jpg,AMSA08.jpg,MS,2,num_8,16,num_8,0.833484455477,,,2017_Apr_12_1643,60.0116835184,FEMA4ImagesEEG,001,200110,
AFNE01.JPG,AFNE01.JPG,AFNE01.JPG,AFNE01.JPG,AFNE01.JPG,AFNE01.JPG,,,,,,,,,,,,,4,0,40,3,,,,,,,,,,,AMSA13.jpg,AMNE09.jpg,AMSA08.jpg,AMNE18.jpg,AMNE18.jpg,MN,1,num_4,16,num_4,1.01678206353,,,2017_Apr_12_1643,60.0116835184,FEMA4ImagesEEG,001,200110,
AFNE01.JPG,AFNE01.JPG,AFNE01.JPG,AFNE01.JPG,AFNE01.JPG,AFNE01.JPG,,,,,,,,,,,,,4,1,41,6,,,,,,,,,,,AMNE09.jpg,AMSA18.jpg,AMNE08.jpg,AMSA15.jpg,AMSA15.jpg,MS,2,num_4,32,num_2,0.933460944798,,,2017_Apr_12_1643,60.0116835184,FEMA4ImagesEEG,001,200110,
AFNE01.JPG,AFNE01.JPG,AFNE01.JPG,AFNE01.JPG,AFNE01.JPG,AFNE01.JPG,,,,,,,,,,,,,4,2,42,4,,,,,,,,,,,AMSA07.jpg,AMSA02.jpg,AMNE02.jpg,AMNE05.jpg,AMNE02.jpg,MN,1,num_2,32,num_6,1.1000454491,,,2017_Apr_12_1643,60.0116835184,FEMA4ImagesEEG,001,200110,
AFNE01.JPG,AFNE01.JPG,AFNE01.JPG,AFNE01.JPG,AFNE01.JPG,AFNE01.JPG,,,,,,,,,,,,,4,3,43,0,,,,,,,,,,,AMSA16.jpg,AMNE05.jpg,AMSA04.jpg,AMNE03.jpg,AMNE05.jpg,MN,1,num_6,16,num_6,1.20011463249,,,2017_Apr_12_1643,60.0116835184,FEMA4ImagesEEG,001,200110,
AFNE01.JPG,AFNE01.JPG,AFNE01.JPG,AFNE01.JPG,AFNE01.JPG,AFNE01.JPG,,,,,,,,,,,,,4,4,44,5,,,,,,,,,,,AMSA17.jpg,AMSA03.jpg,AMNE13.jpg,AMNE20.jpg,AMNE20.jpg,MN,1,num_4,32,num_2,1.68339687726,,,2017_Apr_12_1643,60.0116835184,FEMA4ImagesEEG,001,200110,
AFNE01.JPG,AFNE01.JPG,AFNE01.JPG,AFNE01.JPG,AFNE01.JPG,AFNE01.JPG,,,,,,,,,,,,,4,5,45,1,,,,,,,,,,,AMNE12.jpg,AMSA01.jpg,AMSA14.jpg,AMNE13.jpg,AMNE12.jpg,MN,1,num_8,16,num_8,0.9001296754,,,2017_Apr_12_1643,60.0116835184,FEMA4ImagesEEG,001,200110,
AFNE01.JPG,AFNE01.JPG,AFNE01.JPG,AFNE01.JPG,AFNE01.JPG,AFNE01.JPG,,,,,,,,,,,,,4,6,46,9,,,,,,,,,,,AMNE13.jpg,AMSA11.jpg,AMNE20.jpg,AMSA10.jpg,AMNE13.jpg,MN,1,num_8,32,num_2,1.0501194275,,,2017_Apr_12_1643,60.0116835184,FEMA4ImagesEEG,001,200110,
AFNE01.JPG,AFNE01.JPG,AFNE01.JPG,AFNE01.JPG,AFNE01.JPG,AFNE01.JPG,,,,,,,,,,,,,4,7,47,2,,,,,,,,,,,AMNE10.jpg,AMSA05.jpg,AMNE02.jpg,AMSA20.jpg,AMNE02.jpg,MN,1,num_2,32,num_6,0.883478794247,,,2017_Apr_12_1643,60.0116835184,FEMA4ImagesEEG,001,200110,
AFNE01.JPG,AFNE01.JPG,AFNE01.JPG,AFNE01.JPG,AFNE01.JPG,AFNE01.JPG,,,,,,,,,,,,,4,8,48,7,,,,,,,,,,,AMSA03.jpg,AMNE11.jpg,AMSA14.jpg,AMNE06.jpg,AMNE11.jpg,MN,1,num_6,32,num_8,1.61683248403,,,2017_Apr_12_1643,60.0116835184,FEMA4ImagesEEG,001,200110,
AFNE01.JPG,AFNE01.JPG,AFNE01.JPG,AFNE01.JPG,AFNE01.JPG,AFNE01.JPG,,,,,,,,,,,,,4,9,49,8,,,,,,,,,,,AMSA08.jpg,AMNE17.jpg,AMSA17.jpg,AMNE05.jpg,AMNE17.jpg,MN,1,num_6,16,num_6,0.800183655694,,,2017_Apr_12_1643,60.0116835184,FEMA4ImagesEEG,001,200110,
AFNE01.JPG,AFNE01.JPG,AFNE01.JPG,AFNE01.JPG,AFNE01.JPG,AFNE01.JPG,,,,,,,,,,,,,5,0,50,5,,,,,,,,,,,AMNE04.jpg,AMSA01.jpg,AMNE17.jpg,AMSA16.jpg,AMNE04.jpg,MN,1,num_8,16,num_8,0.749827843159,,,2017_Apr_12_1643,60.0116835184,FEMA4ImagesEEG,001,200110,
AFNE01.JPG,AFNE01.JPG,AFNE01.JPG,AFNE01.JPG,AFNE01.JPG,AFNE01.JPG,,,,,,,,,,,,,5,1,51,2,,,,,,,,,,,AMNE19.jpg,AMNE12.jpg,AMSA08.jpg,AMSA13.jpg,AMSA13.jpg,MS,2,num_4,16,num_4,1.55010643741,,,2017_Apr_12_1643,60.0116835184,FEMA4ImagesEEG,001,200110,
AFNE01.JPG,AFNE01.JPG,AFNE01.JPG,AFNE01.JPG,AFNE01.JPG,AFNE01.JPG,,,,,,,,,,,,,5,2,52,8,,,,,,,,,,,AMSA19.jpg,AMNE17.jpg,AMNE09.jpg,AMSA20.jpg,AMSA19.jpg,MS,2,num_8,16,num_8,0.633468931541,,,2017_Apr_12_1643,60.0116835184,FEMA4ImagesEEG,001,200110,
AFNE01.JPG,AFNE01.JPG,AFNE01.JPG,AFNE01.JPG,AFNE01.JPG,AFNE01.JPG,,,,,,,,,,,,,5,3,53,4,,,,,,,,,,,AMSA11.jpg,AMSA14.jpg,AMNE06.jpg,AMNE11.jpg,AMNE11.jpg,MN,1,num_4,16,num_4,2.88307145471,,,2017_Apr_12_1643,60.0116835184,FEMA4ImagesEEG,001,200110,
AFNE01.JPG,AFNE01.JPG,AFNE01.JPG,AFNE01.JPG,AFNE01.JPG,AFNE01.JPG,,,,,,,,,,,,,5,4,54,1,,,,,,,,,,,AMSA18.jpg,AMSA16.jpg,AMNE02.jpg,AMNE15.jpg,AMNE15.jpg,MN,1,num_4,32,num_8,0.93345549237,,,2017_Apr_12_1643,60.0116835184,FEMA4ImagesEEG,001,200110,
AFNE01.JPG,AFNE01.JPG,AFNE01.JPG,AFNE01.JPG,AFNE01.JPG,AFNE01.JPG,,,,,,,,,,,,,5,5,55,6,,,,,,,,,,,AMNE17.jpg,AMSA14.jpg,AMSA19.jpg,AMNE10.jpg,AMSA19.jpg,MS,2,num_2,16,num_2,1.5167716397,,,2017_Apr_12_1643,60.0116835184,FEMA4ImagesEEG,001,200110,
AFNE01.JPG,AFNE01.JPG,AFNE01.JPG,AFNE01.JPG,AFNE01.JPG,AFNE01.JPG,,,,,,,,,,,,,5,6,56,7,,,,,,,,,,,AMSA02.jpg,AMNE15.jpg,AMNE16.jpg,AMSA07.jpg,AMNE15.jpg,MN,1,num_6,16,num_6,0.966738009825,,,2017_Apr_12_1643,60.0116835184,FEMA4ImagesEEG,001,200110,
AFNE01.JPG,AFNE01.JPG,AFNE01.JPG,AFNE01.JPG,AFNE01.JPG,AFNE01.JPG,,,,,,,,,,,,,5,7,57,9,,,,,,,,,,,AMSA04.jpg,AMNE17.jpg,AMNE11.jpg,AMSA07.jpg,AMSA04.jpg,MS,2,num_8,16,num_8,0.516784789506,,,2017_Apr_12_1643,60.0116835184,FEMA4ImagesEEG,001,200110,
AFNE01.JPG,AFNE01.JPG,AFNE01.JPG,AFNE01.JPG,AFNE01.JPG,AFNE01.JPG,,,,,,,,,,,,,5,8,58,3,,,,,,,,,,,AMSA17.jpg,AMSA03.jpg,AMNE05.jpg,AMNE03.jpg,AMSA17.jpg,MS,2,num_8,32,num_4,0.85011609178,,,2017_Apr_12_1643,60.0116835184,FEMA4ImagesEEG,001,200110,
AFNE01.JPG,AFNE01.JPG,AFNE01.JPG,AFNE01.JPG,AFNE01.JPG,AFNE01.JPG,,,,,,,,,,,,,5,9,59,0,,,,,,,,,,,AMSA18.jpg,AMSA07.jpg,AMNE20.jpg,AMNE19.jpg,AMSA07.jpg,MS,2,num_6,16,num_6,0.56682788115,,,2017_Apr_12_1643,60.0116835184,FEMA4ImagesEEG,001,200110,
,,,,,,,,,,,,,,,,,,,,,,,,,,,,,,,,,,,,,,,,,,,space,4.06651981082,2017_Apr_12_1643,60.0116835184,FEMA4ImagesEEG,001,200110,
AFNE01.JPG,AFNE01.JPG,AFNE01.JPG,AFNE01.JPG,AFNE01.JPG,AFNE01.JPG,,,,,,,,,,,,,,,,,0,0,0,7,,,,,,,AFSA03.jpg,AFNE16.jpg,AFSA15.jpg,AFNE08.jpg,AFSA03.jpg,FS,4,num_8,16,num_8,0.533454915043,,,2017_Apr_12_1643,60.0116835184,FEMA4ImagesEEG,001,200110,
AFNE01.JPG,AFNE01.JPG,AFNE01.JPG,AFNE01.JPG,AFNE01.JPG,AFNE01.JPG,,,,,,,,,,,,,,,,,0,1,1,6,,,,,,,AFSA11.jpg,AFNE07.jpg,AFNE16.jpg,AFSA09.jpg,AFNE16.jpg,FN,3,num_2,16,num_2,0.733494173735,,,2017_Apr_12_1643,60.0116835184,FEMA4ImagesEEG,001,200110,
AFNE01.JPG,AFNE01.JPG,AFNE01.JPG,AFNE01.JPG,AFNE01.JPG,AFNE01.JPG,,,,,,,,,,,,,,,,,0,2,2,4,,,,,,,AFSA11.jpg,AFSA18.jpg,AFNE06.jpg,AFNE16.jpg,AFNE16.jpg,FN,3,num_4,16,num_4,0.833463286515,,,2017_Apr_12_1643,60.0116835184,FEMA4ImagesEEG,001,200110,
AFNE01.JPG,AFNE01.JPG,AFNE01.JPG,AFNE01.JPG,AFNE01.JPG,AFNE01.JPG,,,,,,,,,,,,,,,,,0,3,3,1,,,,,,,AFNE11.jpg,AFSA05.jpg,AFNE02.jpg,AFSA17.jpg,AFSA05.jpg,FS,4,num_6,32,num_4,1.00010937219,,,2017_Apr_12_1643,60.0116835184,FEMA4ImagesEEG,001,200110,
AFNE01.JPG,AFNE01.JPG,AFNE01.JPG,AFNE01.JPG,AFNE01.JPG,AFNE01.JPG,,,,,,,,,,,,,,,,,0,4,4,8,,,,,,,AFNE20.jpg,AFSA14.jpg,AFNE08.jpg,AFSA05.jpg,AFSA14.jpg,FS,4,num_6,16,num_6,0.850090753287,,,2017_Apr_12_1643,60.0116835184,FEMA4ImagesEEG,001,200110,
AFNE01.JPG,AFNE01.JPG,AFNE01.JPG,AFNE01.JPG,AFNE01.JPG,AFNE01.JPG,,,,,,,,,,,,,,,,,0,5,5,9,,,,,,,AFSA16.jpg,AFSA06.jpg,AFNE05.jpg,AFNE03.jpg,AFNE05.jpg,FN,3,num_2,16,num_2,1.31673430512,,,2017_Apr_12_1643,60.0116835184,FEMA4ImagesEEG,001,200110,
AFNE01.JPG,AFNE01.JPG,AFNE01.JPG,AFNE01.JPG,AFNE01.JPG,AFNE01.JPG,,,,,,,,,,,,,,,,,0,6,6,0,,,,,,,AFNE03.jpg,AFNE14.jpg,AFSA18.jpg,AFSA14.jpg,AFSA14.jpg,FS,4,num_4,32,num_2,1.1334322067,,,2017_Apr_12_1643,60.0116835184,FEMA4ImagesEEG,001,200110,
AFNE01.JPG,AFNE01.JPG,AFNE01.JPG,AFNE01.JPG,AFNE01.JPG,AFNE01.JPG,,,,,,,,,,,,,,,,,0,7,7,5,,,,,,,AFNE12.jpg,AFSA12.jpg,AFNE04.jpg,AFSA17.jpg,AFNE04.jpg,FN,3,num_2,16,num_2,1.00012252247,,,2017_Apr_12_1643,60.0116835184,FEMA4ImagesEEG,001,200110,
AFNE01.JPG,AFNE01.JPG,AFNE01.JPG,AFNE01.JPG,AFNE01.JPG,AFNE01.JPG,,,,,,,,,,,,,,,,,0,8,8,2,,,,,,,AFNE02.jpg,AFNE17.jpg,AFSA13.jpg,AFSA18.jpg,AFNE17.jpg,FN,3,num_6,16,num_6,1.31670255214,,,2017_Apr_12_1643,60.0116835184,FEMA4ImagesEEG,001,200110,
AFNE01.JPG,AFNE01.JPG,AFNE01.JPG,AFNE01.JPG,AFNE01.JPG,AFNE01.JPG,,,,,,,,,,,,,,,,,0,9,9,3,,,,,,,AFNE08.jpg,AFSA11.jpg,AFNE20.jpg,AFSA15.jpg,AFSA11.jpg,FS,4,num_6,16,num_6,0.550119267311,,,2017_Apr_12_1643,60.0116835184,FEMA4ImagesEEG,001,200110,
AFNE01.JPG,AFNE01.JPG,AFNE01.JPG,AFNE01.JPG,AFNE01.JPG,AFNE01.JPG,,,,,,,,,,,,,,,,,1,0,10,9,,,,,,,AFSA19.jpg,AFSA10.jpg,AFNE20.jpg,AFNE04.jpg,AFNE20.jpg,FN,3,num_2,32,num_6,0.866773708258,,,2017_Apr_12_1643,60.0116835184,FEMA4ImagesEEG,001,200110,
AFNE01.JPG,AFNE01.JPG,AFNE01.JPG,AFNE01.JPG,AFNE01.JPG,AFNE01.JPG,,,,,,,,,,,,,,,,,1,1,11,0,,,,,,,AFNE04.jpg,AFSA07.jpg,AFNE10.jpg,AFSA08.jpg,AFSA08.jpg,FS,4,num_4,32,num_2,1.01676538493,,,2017_Apr_12_1643,60.0116835184,FEMA4ImagesEEG,001,200110,
AFNE01.JPG,AFNE01.JPG,AFNE01.JPG,AFNE01.JPG,AFNE01.JPG,AFNE01.JPG,,,,,,,,,,,,,,,,,1,2,12,3,,,,,,,AFNE10.jpg,AFNE13.jpg,AFSA05.jpg,AFSA20.jpg,AFSA05.jpg,FS,4,num_2,32,num_4,0.683511381038,,,2017_Apr_12_1643,60.0116835184,FEMA4ImagesEEG,001,200110,
AFNE01.JPG,AFNE01.JPG,AFNE01.JPG,AFNE01.JPG,AFNE01.JPG,AFNE01.JPG,,,,,,,,,,,,,,,,,1,3,13,5,,,,,,,AFSA12.jpg,AFSA05.jpg,AFNE12.jpg,AFNE20.jpg,AFSA12.jpg,FS,4,num_8,16,num_8,0.46674971655,,,2017_Apr_12_1643,60.0116835184,FEMA4ImagesEEG,001,200110,
AFNE01.JPG,AFNE01.JPG,AFNE01.JPG,AFNE01.JPG,AFNE01.JPG,AFNE01.JPG,,,,,,,,,,,,,,,,,1,4,14,4,,,,,,,AFSA18.jpg,AFNE17.jpg,AFSA17.jpg,AFNE05.jpg,AFSA17.jpg,FS,4,num_2,16,num_2,0.683556605596,,,2017_Apr_12_1643,60.0116835184,FEMA4ImagesEEG,001,200110,
AFNE01.JPG,AFNE01.JPG,AFNE01.JPG,AFNE01.JPG,AFNE01.JPG,AFNE01.JPG,,,,,,,,,,,,,,,,,1,5,15,2,,,,,,,AFSA03.jpg,AFNE08.jpg,AFNE20.jpg,AFSA20.jpg,AFSA03.jpg,FS,4,num_8,16,num_8,0.583489667159,,,2017_Apr_12_1643,60.0116835184,FEMA4ImagesEEG,001,200110,
AFNE01.JPG,AFNE01.JPG,AFNE01.JPG,AFNE01.JPG,AFNE01.JPG,AFNE01.JPG,,,,,,,,,,,,,,,,,1,6,16,8,,,,,,,AFSA20.jpg,AFSA16.jpg,AFNE05.jpg,AFNE12.jpg,AFNE05.jpg,FN,3,num_2,32,num_4,0.900081243366,,,2017_Apr_12_1643,60.0116835184,FEMA4ImagesEEG,001,200110,
AFNE01.JPG,AFNE01.JPG,AFNE01.JPG,AFNE01.JPG,AFNE01.JPG,AFNE01.JPG,,,,,,,,,,,,,,,,,1,7,17,1,,,,,,,AFSA10.jpg,AFNE11.jpg,AFSA17.jpg,AFNE09.jpg,AFSA10.jpg,FS,4,num_8,32,num_2,0.716807049233,,,2017_Apr_12_1643,60.0116835184,FEMA4ImagesEEG,001,200110,
AFNE01.JPG,AFNE01.JPG,AFNE01.JPG,AFNE01.JPG,AFNE01.JPG,AFNE01.JPG,,,,,,,,,,,,,,,,,1,8,18,7,,,,,,,AFSA01.jpg,AFNE06.jpg,AFSA12.jpg,AFNE02.jpg,AFNE06.jpg,FN,3,num_6,16,num_6,1.13329942012,,,2017_Apr_12_1643,60.0116835184,FEMA4ImagesEEG,001,200110,
AFNE01.JPG,AFNE01.JPG,AFNE01.JPG,AFNE01.JPG,AFNE01.JPG,AFNE01.JPG,,,,,,,,,,,,,,,,,1,9,19,6,,,,,,,AFNE03.jpg,AFSA12.jpg,AFSA09.jpg,AFNE05.jpg,AFSA09.jpg,FS,4,num_2,16,num_2,0.783476645127,,,2017_Apr_12_1643,60.0116835184,FEMA4ImagesEEG,001,200110,
AFNE01.JPG,AFNE01.JPG,AFNE01.JPG,AFNE01.JPG,AFNE01.JPG,AFNE01.JPG,,,,,,,,,,,,,,,,,2,0,20,1,,,,,,,AFSA02.jpg,AFNE10.jpg,AFNE20.jpg,AFSA12.jpg,AFNE10.jpg,FN,3,num_6,16,num_6,1.50010792864,,,2017_Apr_12_1643,60.0116835184,FEMA4ImagesEEG,001,200110,
AFNE01.JPG,AFNE01.JPG,AFNE01.JPG,AFNE01.JPG,AFNE01.JPG,AFNE01.JPG,,,,,,,,,,,,,,,,,2,1,21,3,,,,,,,AFSA10.jpg,AFNE09.jpg,AFSA12.jpg,AFNE17.jpg,AFNE09.jpg,FN,3,num_6,32,num_4,1.75010464108,,,2017_Apr_12_1643,60.0116835184,FEMA4ImagesEEG,001,200110,
AFNE01.JPG,AFNE01.JPG,AFNE01.JPG,AFNE01.JPG,AFNE01.JPG,AFNE01.JPG,,,,,,,,,,,,,,,,,2,2,22,5,,,,,,,AFSA16.jpg,AFNE19.jpg,AFSA02.jpg,AFNE14.jpg,AFNE14.jpg,FN,3,num_4,16,num_4,1.45007734653,,,2017_Apr_12_1643,60.0116835184,FEMA4ImagesEEG,001,200110,
AFNE01.JPG,AFNE01.JPG,AFNE01.JPG,AFNE01.JPG,AFNE01.JPG,AFNE01.JPG,,,,,,,,,,,,,,,,,2,3,23,9,,,,,,,AFSA03.jpg,AFNE06.jpg,AFNE05.jpg,AFSA14.jpg,AFNE05.jpg,FN,3,num_2,32,num_6,1.20010565175,,,2017_Apr_12_1643,60.0116835184,FEMA4ImagesEEG,001,200110,
AFNE01.JPG,AFNE01.JPG,AFNE01.JPG,AFNE01.JPG,AFNE01.JPG,AFNE01.JPG,,,,,,,,,,,,,,,,,2,4,24,0,,,,,,,AFNE13.jpg,AFSA12.jpg,AFNE16.jpg,AFSA15.jpg,AFSA15.jpg,FS,4,num_4,16,num_4,0.766826726496,,,2017_Apr_12_1643,60.0116835184,FEMA4ImagesEEG,001,200110,
AFNE01.JPG,AFNE01.JPG,AFNE01.JPG,AFNE01.JPG,AFNE01.JPG,AFNE01.JPG,,,,,,,,,,,,,,,,,2,5,25,6,,,,,,,AFNE01.jpg,AFSA16.jpg,AFNE06.jpg,AFSA04.jpg,AFSA04.jpg,FS,4,num_4,16,num_4,0.68335710559,,,2017_Apr_12_1643,60.0116835184,FEMA4ImagesEEG,001,200110,
AFNE01.JPG,AFNE01.JPG,AFNE01.JPG,AFNE01.JPG,AFNE01.JPG,AFNE01.JPG,,,,,,,,,,,,,,,,,2,6,26,2,,,,,,,AFNE20.jpg,AFNE19.jpg,AFSA01.jpg,AFSA15.jpg,AFSA15.jpg,FS,4,num_4,32,num_2,1.00011450425,,,2017_Apr_12_1643,60.0116835184,FEMA4ImagesEEG,001,200110,
AFNE01.JPG,AFNE01.JPG,AFNE01.JPG,AFNE01.JPG,AFNE01.JPG,AFNE01.JPG,,,,,,,,,,,,,,,,,2,7,27,8,,,,,,,AFSA05.jpg,AFNE19.jpg,AFSA18.jpg,AFNE10.jpg,AFSA05.jpg,FS,4,num_8,16,num_8,0.566669115331,,,2017_Apr_12_1643,60.0116835184,FEMA4ImagesEEG,001,200110,
AFNE01.JPG,AFNE01.JPG,AFNE01.JPG,AFNE01.JPG,AFNE01.JPG,AFNE01.JPG,,,,,,,,,,,,,,,,,2,8,28,4,,,,,,,AFSA15.jpg,AFSA08.jpg,AFNE05.jpg,AFNE20.jpg,AFNE20.jpg,FN,3,num_4,16,num_4,0.733796310145,,,2017_Apr_12_1643,60.0116835184,FEMA4ImagesEEG,001,200110,
AFNE01.JPG,AFNE01.JPG,AFNE01.JPG,AFNE01.JPG,AFNE01.JPG,AFNE01.JPG,,,,,,,,,,,,,,,,,2,9,29,7,,,,,,,AFSA11.jpg,AFNE03.jpg,AFSA16.jpg,AFNE10.jpg,AFSA16.jpg,FS,4,num_2,16,num_2,1.25012693275,,,2017_Apr_12_1643,60.0116835184,FEMA4ImagesEEG,001,200110,
AFNE01.JPG,AFNE01.JPG,AFNE01.JPG,AFNE01.JPG,AFNE01.JPG,AFNE01.JPG,,,,,,,,,,,,,,,,,3,0,30,9,,,,,,,AFSA15.jpg,AFNE01.jpg,AFNE10.jpg,AFSA03.jpg,AFNE01.jpg,FN,3,num_6,32,num_8,0.883481680416,,,2017_Apr_12_1643,60.0116835184,FEMA4ImagesEEG,001,200110,
AFNE01.JPG,AFNE01.JPG,AFNE01.JPG,AFNE01.JPG,AFNE01.JPG,AFNE01.JPG,,,,,,,,,,,,,,,,,3,1,31,0,,,,,,,AFNE02.jpg,AFNE06.jpg,AFSA14.jpg,AFSA06.jpg,AFSA14.jpg,FS,4,num_2,16,num_2,0.583499289118,,,2017_Apr_12_1643,60.0116835184,FEMA4ImagesEEG,001,200110,
AFNE01.JPG,AFNE01.JPG,AFNE01.JPG,AFNE01.JPG,AFNE01.JPG,AFNE01.JPG,,,,,,,,,,,,,,,,,3,2,32,1,,,,,,,AFNE05.jpg,AFNE09.jpg,AFSA09.jpg,AFSA02.jpg,AFSA02.jpg,FS,4,num_4,32,num_8,0.700181827415,,,2017_Apr_12_1643,60.0116835184,FEMA4ImagesEEG,001,200110,
AFNE01.JPG,AFNE01.JPG,AFNE01.JPG,AFNE01.JPG,AFNE01.JPG,AFNE01.JPG,,,,,,,,,,,,,,,,,3,3,33,4,,,,,,,AFNE12.jpg,AFNE01.jpg,AFSA03.jpg,AFSA20.jpg,AFNE01.jpg,FN,3,num_6,16,num_6,1.23343050666,,,2017_Apr_12_1643,60.0116835184,FEMA4ImagesEEG,001,200110,
AFNE01.JPG,AFNE01.JPG,AFNE01.JPG,AFNE01.JPG,AFNE01.JPG,AFNE01.JPG,,,,,,,,,,,,,,,,,3,4,34,7,,,,,,,AFSA10.jpg,AFSA13.jpg,AFNE14.jpg,AFNE16.jpg,AFNE16.jpg,FN,3,num_4,16,num_4,0.533509761561,,,2017_Apr_12_1643,60.0116835184,FEMA4ImagesEEG,001,200110,
AFNE01.JPG,AFNE01.JPG,AFNE01.JPG,AFNE01.JPG,AFNE01.JPG,AFNE01.JPG,,,,,,,,,,,,,,,,,3,5,35,2,,,,,,,AFNE05.jpg,AFSA18.jpg,AFNE10.jpg,AFSA08.jpg,AFSA18.jpg,FS,4,num_6,32,num_4,1.13345497893,,,2017_Apr_12_1643,60.0116835184,FEMA4ImagesEEG,001,200110,
AFNE01.JPG,AFNE01.JPG,AFNE01.JPG,AFNE01.JPG,AFNE01.JPG,AFNE01.JPG,,,,,,,,,,,,,,,,,3,6,36,6,,,,,,,AFNE16.jpg,AFSA07.jpg,AFNE05.jpg,AFSA13.jpg,AFNE05.jpg,FN,3,num_2,32,num_8,0.983440530021,,,2017_Apr_12_1643,60.0116835184,FEMA4ImagesEEG,001,200110,
AFNE01.JPG,AFNE01.JPG,AFNE01.JPG,AFNE01.JPG,AFNE01.JPG,AFNE01.JPG,,,,,,,,,,,,,,,,,3,7,37,3,,,,,,,AFSA01.jpg,AFSA03.jpg,AFNE18.jpg,AFNE17.jpg,AFNE17.jpg,FN,3,num_4,16,num_4,1.38340710895,,,2017_Apr_12_1643,60.0116835184,FEMA4ImagesEEG,001,200110,
AFNE01.JPG,AFNE01.JPG,AFNE01.JPG,AFNE01.JPG,AFNE01.JPG,AFNE01.JPG,,,,,,,,,,,,,,,,,3,8,38,8,,,,,,,AFSA19.jpg,AFSA16.jpg,AFNE12.jpg,AFNE09.jpg,AFNE09.jpg,FN,3,num_4,32,num_2,0.950162502471,,,2017_Apr_12_1643,60.0116835184,FEMA4ImagesEEG,001,200110,
AFNE01.JPG,AFNE01.JPG,AFNE01.JPG,AFNE01.JPG,AFNE01.JPG,AFNE01.JPG,,,,,,,,,,,,,,,,,3,9,39,5,,,,,,,AFNE01.jpg,AFSA19.jpg,AFNE03.jpg,AFSA01.jpg,AFNE01.jpg,FN,3,num_8,16,num_8,1.0334695084,,,2017_Apr_12_1643,60.0116835184,FEMA4ImagesEEG,001,200110,
AFNE01.JPG,AFNE01.JPG,AFNE01.JPG,AFNE01.JPG,AFNE01.JPG,AFNE01.JPG,,,,,,,,,,,,,,,,,4,0,40,2,,,,,,,AFSA08.jpg,AFSA10.jpg,AFNE08.jpg,AFNE16.jpg,AFNE16.jpg,FN,3,num_4,16,num_4,1.43339374987,,,2017_Apr_12_1643,60.0116835184,FEMA4ImagesEEG,001,200110,
AFNE01.JPG,AFNE01.JPG,AFNE01.JPG,AFNE01.JPG,AFNE01.JPG,AFNE01.JPG,,,,,,,,,,,,,,,,,4,1,41,3,,,,,,,AFSA04.jpg,AFSA20.jpg,AFNE05.jpg,AFNE02.jpg,AFNE02.jpg,FN,3,num_4,32,num_2,1.50009253342,,,2017_Apr_12_1643,60.0116835184,FEMA4ImagesEEG,001,200110,
AFNE01.JPG,AFNE01.JPG,AFNE01.JPG,AFNE01.JPG,AFNE01.JPG,AFNE01.JPG,,,,,,,,,,,,,,,,,4,2,42,7,,,,,,,AFNE01.jpg,AFNE12.jpg,AFSA12.jpg,AFSA10.jpg,AFSA12.jpg,FS,4,num_2,16,num_2,0.98347677337,,,2017_Apr_12_1643,60.0116835184,FEMA4ImagesEEG,001,200110,
AFNE01.JPG,AFNE01.JPG,AFNE01.JPG,AFNE01.JPG,AFNE01.JPG,AFNE01.JPG,,,,,,,,,,,,,,,,,4,3,43,4,,,,,,,AFSA03.jpg,AFNE20.jpg,AFNE02.jpg,AFSA13.jpg,AFSA13.jpg,FS,4,num_4,32,num_2,1.06676966697,,,2017_Apr_12_1643,60.0116835184,FEMA4ImagesEEG,001,200110,
AFNE01.JPG,AFNE01.JPG,AFNE01.JPG,AFNE01.JPG,AFNE01.JPG,AFNE01.JPG,,,,,,,,,,,,,,,,,4,4,44,8,,,,,,,AFNE02.jpg,AFSA17.jpg,AFNE16.jpg,AFSA09.jpg,AFNE16.jpg,FN,3,num_2,16,num_2,0.633583435323,,,2017_Apr_12_1643,60.0116835184,FEMA4ImagesEEG,001,200110,
AFNE01.JPG,AFNE01.JPG,AFNE01.JPG,AFNE01.JPG,AFNE01.JPG,AFNE01.JPG,,,,,,,,,,,,,,,,,4,5,45,9,,,,,,,AFSA04.jpg,AFNE08.jpg,AFSA18.jpg,AFNE06.jpg,AFSA18.jpg,FS,4,num_2,16,num_2,0.9501281837,,,2017_Apr_12_1643,60.0116835184,FEMA4ImagesEEG,001,200110,
AFNE01.JPG,AFNE01.JPG,AFNE01.JPG,AFNE01.JPG,AFNE01.JPG,AFNE01.JPG,,,,,,,,,,,,,,,,,4,6,46,1,,,,,,,AFNE01.jpg,AFSA08.jpg,AFNE09.jpg,AFSA09.jpg,AFSA08.jpg,FS,4,num_6,16,num_6,0.833516208455,,,2017_Apr_12_1643,60.0116835184,FEMA4ImagesEEG,001,200110,
AFNE01.JPG,AFNE01.JPG,AFNE01.JPG,AFNE01.JPG,AFNE01.JPG,AFNE01.JPG,,,,,,,,,,,,,,,,,4,7,47,5,,,,,,,AFNE14.jpg,AFSA10.jpg,AFNE03.jpg,AFSA04.jpg,AFSA10.jpg,FS,4,num_6,32,num_2,1.68339848099,,,2017_Apr_12_1643,60.0116835184,FEMA4ImagesEEG,001,200110,
AFNE01.JPG,AFNE01.JPG,AFNE01.JPG,AFNE01.JPG,AFNE01.JPG,AFNE01.JPG,,,,,,,,,,,,,,,,,4,8,48,6,,,,,,,AFSA02.jpg,AFSA16.jpg,AFNE12.jpg,AFNE02.jpg,AFSA02.jpg,FS,4,num_8,16,num_8,0.883468209766,,,2017_Apr_12_1643,60.0116835184,FEMA4ImagesEEG,001,200110,
AFNE01.JPG,AFNE01.JPG,AFNE01.JPG,AFNE01.JPG,AFNE01.JPG,AFNE01.JPG,,,,,,,,,,,,,,,,,4,9,49,0,,,,,,,AFSA02.jpg,AFNE18.jpg,AFNE04.jpg,AFSA07.jpg,AFSA07.jpg,FS,4,num_4,16,num_4,0.666780956555,,,2017_Apr_12_1643,60.0116835184,FEMA4ImagesEEG,001,200110,
AFNE01.JPG,AFNE01.JPG,AFNE01.JPG,AFNE01.JPG,AFNE01.JPG,AFNE01.JPG,,,,,,,,,,,,,,,,,5,0,50,6,,,,,,,AFSA09.jpg,AFNE14.jpg,AFNE05.jpg,AFSA17.jpg,AFSA09.jpg,FS,4,num_8,32,num_4,0.633518646006,,,2017_Apr_12_1643,60.0116835184,FEMA4ImagesEEG,001,200110,
AFNE01.JPG,AFNE01.JPG,AFNE01.JPG,AFNE01.JPG,AFNE01.JPG,AFNE01.JPG,,,,,,,,,,,,,,,,,5,1,51,1,,,,,,,AFNE16.jpg,AFNE13.jpg,AFSA14.jpg,AFSA10.jpg,AFNE16.jpg,FN,3,num_8,16,num_8,0.966756292153,,,2017_Apr_12_1643,60.0116835184,FEMA4ImagesEEG,001,200110,
AFNE01.JPG,AFNE01.JPG,AFNE01.JPG,AFNE01.JPG,AFNE01.JPG,AFNE01.JPG,,,,,,,,,,,,,,,,,5,2,52,9,,,,,,,AFSA18.jpg,AFNE10.jpg,AFSA20.jpg,AFNE06.jpg,AFSA18.jpg,FS,4,num_8,16,num_8,0.583469781093,,,2017_Apr_12_1643,60.0116835184,FEMA4ImagesEEG,001,200110,
AFNE01.JPG,AFNE01.JPG,AFNE01.JPG,AFNE01.JPG,AFNE01.JPG,AFNE01.JPG,,,,,,,,,,,,,,,,,5,3,53,2,,,,,,,AFSA01.jpg,AFSA15.jpg,AFNE11.jpg,AFNE14.jpg,AFSA15.jpg,FS,4,num_6,32,num_8,1.98338985303,,,2017_Apr_12_1643,60.0116835184,FEMA4ImagesEEG,001,200110,
AFNE01.JPG,AFNE01.JPG,AFNE01.JPG,AFNE01.JPG,AFNE01.JPG,AFNE01.JPG,,,,,,,,,,,,,,,,,5,4,54,8,,,,,,,AFSA15.jpg,AFSA10.jpg,AFNE17.jpg,AFNE06.jpg,AFSA10.jpg,FS,4,num_6,32,num_2,0.866750935558,,,2017_Apr_12_1643,60.0116835184,FEMA4ImagesEEG,001,200110,
AFNE01.JPG,AFNE01.JPG,AFNE01.JPG,AFNE01.JPG,AFNE01.JPG,AFNE01.JPG,,,,,,,,,,,,,,,,,5,5,55,5,,,,,,,AFSA20.jpg,AFNE10.jpg,AFSA06.jpg,AFNE07.jpg,AFSA06.jpg,FS,4,num_2,16,num_2,0.583519496024,,,2017_Apr_12_1643,60.0116835184,FEMA4ImagesEEG,001,200110,
AFNE01.JPG,AFNE01.JPG,AFNE01.JPG,AFNE01.JPG,AFNE01.JPG,AFNE01.JPG,,,,,,,,,,,,,,,,,5,6,56,3,,,,,,,AFNE18.jpg,AFSA19.jpg,AFNE15.jpg,AFSA03.jpg,AFSA03.jpg,FS,4,num_4,16,num_4,0.633472139016,,,2017_Apr_12_1643,60.0116835184,FEMA4ImagesEEG,001,200110,
AFNE01.JPG,AFNE01.JPG,AFNE01.JPG,AFNE01.JPG,AFNE01.JPG,AFNE01.JPG,,,,,,,,,,,,,,,,,5,7,57,4,,,,,,,AFNE11.jpg,AFSA15.jpg,AFNE10.jpg,AFSA20.jpg,AFSA15.jpg,FS,4,num_6,16,num_6,0.933486604132,,,2017_Apr_12_1643,60.0116835184,FEMA4ImagesEEG,001,200110,
AFNE01.JPG,AFNE01.JPG,AFNE01.JPG,AFNE01.JPG,AFNE01.JPG,AFNE01.JPG,,,,,,,,,,,,,,,,,5,8,58,0,,,,,,,AFNE07.jpg,AFSA10.jpg,AFSA07.jpg,AFNE20.jpg,AFSA10.jpg,FS,4,num_6,32,num_4,2.71666592406,,,2017_Apr_12_1643,60.0116835184,FEMA4ImagesEEG,001,200110,
AFNE01.JPG,AFNE01.JPG,AFNE01.JPG,AFNE01.JPG,AFNE01.JPG,AFNE01.JPG,,,,,,,,,,,,,,,,,5,9,59,7,,,,,,,AFNE10.jpg,AFSA15.jpg,AFNE19.jpg,AFSA05.jpg,AFSA05.jpg,FS,4,num_4,16,num_4,0.51689287927,,,2017_Apr_12_1643,60.0116835184,FEMA4ImagesEEG,001,200110,
,,,,,,,,,,,,,,,,,,,,,,,,,,,,,,,,,,,,,,,,,,,space,1.41674800124,2017_Apr_12_1643,60.0116835184,FEMA4ImagesEEG,001,200110,
AFNE01.JPG,AFNE01.JPG,AFNE01.JPG,AFNE01.JPG,AFNE01.JPG,AFNE01.JPG,,,,,,,,,,,,,,,,,,,,,0,0,0,5,,,AMNE02.jpg,AMSA05.jpg,AMNE08.jpg,AMSA17.jpg,AMNE02.jpg,MN,1,num_8,16,num_8,1.65007619187,,,2017_Apr_12_1643,60.0116835184,FEMA4ImagesEEG,001,200110,
AFNE01.JPG,AFNE01.JPG,AFNE01.JPG,AFNE01.JPG,AFNE01.JPG,AFNE01.JPG,,,,,,,,,,,,,,,,,,,,,0,1,1,3,,,AMSA19.jpg,AMSA20.jpg,AMNE07.jpg,AMNE18.jpg,AMSA19.jpg,MS,2,num_8,32,num_4,1.78367774887,,,2017_Apr_12_1643,60.0116835184,FEMA4ImagesEEG,001,200110,
AFNE01.JPG,AFNE01.JPG,AFNE01.JPG,AFNE01.JPG,AFNE01.JPG,AFNE01.JPG,,,,,,,,,,,,,,,,,,,,,0,2,2,7,,,AMSA08.jpg,AMSA04.jpg,AMNE07.jpg,AMNE04.jpg,AMSA08.jpg,MS,2,num_8,32,num_6,0.683493420016,,,2017_Apr_12_1643,60.0116835184,FEMA4ImagesEEG,001,200110,
AFNE01.JPG,AFNE01.JPG,AFNE01.JPG,AFNE01.JPG,AFNE01.JPG,AFNE01.JPG,,,,,,,,,,,,,,,,,,,,,0,3,3,2,,,AMNE16.jpg,AMSA01.jpg,AMSA11.jpg,AMNE07.jpg,AMSA11.jpg,MS,2,num_2,32,num_6,0.900139297359,,,2017_Apr_12_1643,60.0116835184,FEMA4ImagesEEG,001,200110,
AFNE01.JPG,AFNE01.JPG,AFNE01.JPG,AFNE01.JPG,AFNE01.JPG,AFNE01.JPG,,,,,,,,,,,,,,,,,,,,,0,4,4,6,,,AMSA20.jpg,AMSA18.jpg,AMNE08.jpg,AMNE03.jpg,AMSA20.jpg,MS,2,num_8,16,num_8,0.716790370643,,,2017_Apr_12_1643,60.0116835184,FEMA4ImagesEEG,001,200110,
AFNE01.JPG,AFNE01.JPG,AFNE01.JPG,AFNE01.JPG,AFNE01.JPG,AFNE01.JPG,,,,,,,,,,,,,,,,,,,,,0,5,5,8,,,AMNE08.jpg,AMNE05.jpg,AMSA20.jpg,AMSA19.jpg,AMNE08.jpg,MN,1,num_8,32,num_6,1.01686673891,,,2017_Apr_12_1643,60.0116835184,FEMA4ImagesEEG,001,200110,
AFNE01.JPG,AFNE01.JPG,AFNE01.JPG,AFNE01.JPG,AFNE01.JPG,AFNE01.JPG,,,,,,,,,,,,,,,,,,,,,0,6,6,0,,,AMSA17.jpg,AMNE14.jpg,AMSA16.jpg,AMNE16.jpg,AMSA17.jpg,MS,2,num_8,16,num_8,1.53347319737,,,2017_Apr_12_1643,60.0116835184,FEMA4ImagesEEG,001,200110,
AFNE01.JPG,AFNE01.JPG,AFNE01.JPG,AFNE01.JPG,AFNE01.JPG,AFNE01.JPG,,,,,,,,,,,,,,,,,,,,,0,7,7,9,,,AMSA03.jpg,AMNE10.jpg,AMSA05.jpg,AMNE11.jpg,AMSA03.jpg,MS,2,num_8,16,num_8,1.36679343414,,,2017_Apr_12_1643,60.0116835184,FEMA4ImagesEEG,001,200110,
AFNE01.JPG,AFNE01.JPG,AFNE01.JPG,AFNE01.JPG,AFNE01.JPG,AFNE01.JPG,,,,,,,,,,,,,,,,,,,,,0,8,8,4,,,AMSA05.jpg,AMNE13.jpg,AMNE01.jpg,AMSA15.jpg,AMNE13.jpg,MN,1,num_6,16,num_6,1.10015866999,,,2017_Apr_12_1643,60.0116835184,FEMA4ImagesEEG,001,200110,
AFNE01.JPG,AFNE01.JPG,AFNE01.JPG,AFNE01.JPG,AFNE01.JPG,AFNE01.JPG,,,,,,,,,,,,,,,,,,,,,0,9,9,1,,,AMNE12.jpg,AMNE15.jpg,AMSA03.jpg,AMSA13.jpg,AMSA03.jpg,MS,2,num_2,16,num_2,0.766920382157,,,2017_Apr_12_1643,60.0116835184,FEMA4ImagesEEG,001,200110,
AFNE01.JPG,AFNE01.JPG,AFNE01.JPG,AFNE01.JPG,AFNE01.JPG,AFNE01.JPG,,,,,,,,,,,,,,,,,,,,,1,0,10,8,,,AMNE19.jpg,AMSA04.jpg,AMSA03.jpg,AMNE01.jpg,AMSA04.jpg,MS,2,num_6,32,num_2,0.71677497495,,,2017_Apr_12_1643,60.0116835184,FEMA4ImagesEEG,001,200110,
AFNE01.JPG,AFNE01.JPG,AFNE01.JPG,AFNE01.JPG,AFNE01.JPG,AFNE01.JPG,,,,,,,,,,,,,,,,,,,,,1,1,11,5,,,AMSA18.jpg,AMNE08.jpg,AMNE07.jpg,AMSA07.jpg,AMNE07.jpg,MN,1,num_2,32,num_4,1.95007301634,,,2017_Apr_12_1643,60.0116835184,FEMA4ImagesEEG,001,200110,
AFNE01.JPG,AFNE01.JPG,AFNE01.JPG,AFNE01.JPG,AFNE01.JPG,AFNE01.JPG,,,,,,,,,,,,,,,,,,,,,1,2,12,3,,,AMNE04.jpg,AMSA18.jpg,AMNE17.jpg,AMSA03.jpg,AMSA18.jpg,MS,2,num_6,16,num_6,0.550404404756,,,2017_Apr_12_1643,60.0116835184,FEMA4ImagesEEG,001,200110,
AFNE01.JPG,AFNE01.JPG,AFNE01.JPG,AFNE01.JPG,AFNE01.JPG,AFNE01.JPG,,,,,,,,,,,,,,,,,,,,,1,3,13,4,,,AMNE16.jpg,AMNE08.jpg,AMSA15.jpg,AMSA03.jpg,AMNE16.jpg,MN,1,num_8,16,num_8,1.05018774467,,,2017_Apr_12_1643,60.0116835184,FEMA4ImagesEEG,001,200110,
AFNE01.JPG,AFNE01.JPG,AFNE01.JPG,AFNE01.JPG,AFNE01.JPG,AFNE01.JPG,,,,,,,,,,,,,,,,,,,,,1,4,14,6,,,AMNE18.jpg,AMSA11.jpg,AMSA10.jpg,AMNE07.jpg,AMSA10.jpg,MS,2,num_2,32,num_6,1.04996739654,,,2017_Apr_12_1643,60.0116835184,FEMA4ImagesEEG,001,200110,
AFNE01.JPG,AFNE01.JPG,AFNE01.JPG,AFNE01.JPG,AFNE01.JPG,AFNE01.JPG,,,,,,,,,,,,,,,,,,,,,1,5,15,1,,,AMSA16.jpg,AMNE17.jpg,AMNE08.jpg,AMSA18.jpg,AMSA16.jpg,MS,2,num_8,16,num_8,0.566808957607,,,2017_Apr_12_1643,60.0116835184,FEMA4ImagesEEG,001,200110,
AFNE01.JPG,AFNE01.JPG,AFNE01.JPG,AFNE01.JPG,AFNE01.JPG,AFNE01.JPG,,,,,,,,,,,,,,,,,,,,,1,6,16,9,,,AMSA12.jpg,AMNE19.jpg,AMNE03.jpg,AMSA03.jpg,AMSA12.jpg,MS,2,num_8,32,num_2,1.01681317529,,,2017_Apr_12_1643,60.0116835184,FEMA4ImagesEEG,001,200110,
AFNE01.JPG,AFNE01.JPG,AFNE01.JPG,AFNE01.JPG,AFNE01.JPG,AFNE01.JPG,,,,,,,,,,,,,,,,,,,,,1,7,17,0,,,AMNE02.jpg,AMNE13.jpg,AMSA06.jpg,AMSA02.jpg,AMNE02.jpg,MN,1,num_8,16,num_8,1.06674304558,,,2017_Apr_12_1643,60.0116835184,FEMA4ImagesEEG,001,200110,
AFNE01.JPG,AFNE01.JPG,AFNE01.JPG,AFNE01.JPG,AFNE01.JPG,AFNE01.JPG,,,,,,,,,,,,,,,,,,,,,1,8,18,2,,,AMSA06.jpg,AMNE01.jpg,AMSA09.jpg,AMNE04.jpg,AMSA06.jpg,MS,2,num_8,16,num_8,0.766841159668,,,2017_Apr_12_1643,60.0116835184,FEMA4ImagesEEG,001,200110,
AFNE01.JPG,AFNE01.JPG,AFNE01.JPG,AFNE01.JPG,AFNE01.JPG,AFNE01.JPG,,,,,,,,,,,,,,,,,,,,,1,9,19,7,,,AMNE04.jpg,AMSA08.jpg,AMNE09.jpg,AMSA16.jpg,AMSA08.jpg,MS,2,num_6,32,num_8,0.650132642128,,,2017_Apr_12_1643,60.0116835184,FEMA4ImagesEEG,001,200110,
AFNE01.JPG,AFNE01.JPG,AFNE01.JPG,AFNE01.JPG,AFNE01.JPG,AFNE01.JPG,,,,,,,,,,,,,,,,,,,,,2,0,20,6,,,AMNE01.jpg,AMSA06.jpg,AMSA14.jpg,AMNE07.jpg,AMSA06.jpg,MS,2,num_6,32,num_8,2.19975315873,,,2017_Apr_12_1643,60.0116835184,FEMA4ImagesEEG,001,200110,
AFNE01.JPG,AFNE01.JPG,AFNE01.JPG,AFNE01.JPG,AFNE01.JPG,AFNE01.JPG,,,,,,,,,,,,,,,,,,,,,2,1,21,9,,,AMSA20.jpg,AMNE11.jpg,AMSA01.jpg,AMNE05.jpg,AMSA01.jpg,MS,2,num_2,16,num_2,0.66684382176,,,2017_Apr_12_1643,60.0116835184,FEMA4ImagesEEG,001,200110,
AFNE01.JPG,AFNE01.JPG,AFNE01.JPG,AFNE01.JPG,AFNE01.JPG,AFNE01.JPG,,,,,,,,,,,,,,,,,,,,,2,2,22,3,,,AMSA04.jpg,AMNE05.jpg,AMSA20.jpg,AMNE13.jpg,AMSA20.jpg,MS,2,num_2,32,num_6,1.55011188984,,,2017_Apr_12_1643,60.0116835184,FEMA4ImagesEEG,001,200110,
AFNE01.JPG,AFNE01.JPG,AFNE01.JPG,AFNE01.JPG,AFNE01.JPG,AFNE01.JPG,,,,,,,,,,,,,,,,,,,,,2,3,23,0,,,AMSA18.jpg,AMNE04.jpg,AMSA10.jpg,AMNE12.jpg,AMSA18.jpg,MS,2,num_8,16,num_8,0.916858816519,,,2017_Apr_12_1643,60.0116835184,FEMA4ImagesEEG,001,200110,
AFNE01.JPG,AFNE01.JPG,AFNE01.JPG,AFNE01.JPG,AFNE01.JPG,AFNE01.JPG,,,,,,,,,,,,,,,,,,,,,2,4,24,5,,,AMNE12.jpg,AMNE13.jpg,AMSA13.jpg,AMSA12.jpg,AMNE12.jpg,MN,1,num_8,32,num_6,1.20013644267,,,2017_Apr_12_1643,60.0116835184,FEMA4ImagesEEG,001,200110,
AFNE01.JPG,AFNE01.JPG,AFNE01.JPG,AFNE01.JPG,AFNE01.JPG,AFNE01.JPG,,,,,,,,,,,,,,,,,,,,,2,5,25,8,,,AMNE18.jpg,AMSA14.jpg,AMNE14.jpg,AMSA16.jpg,AMNE14.jpg,MN,1,num_2,16,num_2,1.81669758027,,,2017_Apr_12_1643,60.0116835184,FEMA4ImagesEEG,001,200110,
AFNE01.JPG,AFNE01.JPG,AFNE01.JPG,AFNE01.JPG,AFNE01.JPG,AFNE01.JPG,,,,,,,,,,,,,,,,,,,,,2,6,26,2,,,AMNE04.jpg,AMSA01.jpg,AMNE01.jpg,AMSA20.jpg,AMSA20.jpg,MS,2,num_4,16,num_4,0.933445228729,,,2017_Apr_12_1643,60.0116835184,FEMA4ImagesEEG,001,200110,
AFNE01.JPG,AFNE01.JPG,AFNE01.JPG,AFNE01.JPG,AFNE01.JPG,AFNE01.JPG,,,,,,,,,,,,,,,,,,,,,2,7,27,4,,,AMSA16.jpg,AMSA15.jpg,AMNE04.jpg,AMNE18.jpg,AMSA15.jpg,MS,2,num_6,16,num_6,1.10014616139,,,2017_Apr_12_1643,60.0116835184,FEMA4ImagesEEG,001,200110,
AFNE01.JPG,AFNE01.JPG,AFNE01.JPG,AFNE01.JPG,AFNE01.JPG,AFNE01.JPG,,,,,,,,,,,,,,,,,,,,,2,8,28,7,,,AMSA11.jpg,AMNE04.jpg,AMNE19.jpg,AMSA20.jpg,AMNE04.jpg,MN,1,num_6,16,num_6,1.41673934087,,,2017_Apr_12_1643,60.0116835184,FEMA4ImagesEEG,001,200110,
AFNE01.JPG,AFNE01.JPG,AFNE01.JPG,AFNE01.JPG,AFNE01.JPG,AFNE01.JPG,,,,,,,,,,,,,,,,,,,,,2,9,29,1,,,AMSA15.jpg,AMNE02.jpg,AMSA10.jpg,AMNE20.jpg,AMNE20.jpg,MN,1,num_4,16,num_4,1.50012011686,,,2017_Apr_12_1643,60.0116835184,FEMA4ImagesEEG,001,200110,
AFNE01.JPG,AFNE01.JPG,AFNE01.JPG,AFNE01.JPG,AFNE01.JPG,AFNE01.JPG,,,,,,,,,,,,,,,,,,,,,3,0,30,2,,,AMSA15.jpg,AMSA14.jpg,AMNE14.jpg,AMNE16.jpg,AMNE14.jpg,MN,1,num_2,16,num_2,1.21676679607,,,2017_Apr_12_1643,60.0116835184,FEMA4ImagesEEG,001,200110,
AFNE01.JPG,AFNE01.JPG,AFNE01.JPG,AFNE01.JPG,AFNE01.JPG,AFNE01.JPG,,,,,,,,,,,,,,,,,,,,,3,1,31,1,,,AMNE04.jpg,AMSA14.jpg,AMNE09.jpg,AMSA09.jpg,AMNE09.jpg,MN,1,num_2,32,num_8,1.11682334263,,,2017_Apr_12_1643,60.0116835184,FEMA4ImagesEEG,001,200110,
AFNE01.JPG,AFNE01.JPG,AFNE01.JPG,AFNE01.JPG,AFNE01.JPG,AFNE01.JPG,,,,,,,,,,,,,,,,,,,,,3,2,32,3,,,AMSA06.jpg,AMSA11.jpg,AMNE07.jpg,AMNE14.jpg,AMSA11.jpg,MS,2,num_6,32,num_2,1.18346182723,,,2017_Apr_12_1643,60.0116835184,FEMA4ImagesEEG,001,200110,
AFNE01.JPG,AFNE01.JPG,AFNE01.JPG,AFNE01.JPG,AFNE01.JPG,AFNE01.JPG,,,,,,,,,,,,,,,,,,,,,3,3,33,6,,,AMSA15.jpg,AMNE02.jpg,AMSA20.jpg,AMNE11.jpg,AMSA15.jpg,MS,2,num_8,16,num_8,0.75003696559,,,2017_Apr_12_1643,60.0116835184,FEMA4ImagesEEG,001,200110,
AFNE01.JPG,AFNE01.JPG,AFNE01.JPG,AFNE01.JPG,AFNE01.JPG,AFNE01.JPG,,,,,,,,,,,,,,,,,,,,,3,4,34,8,,,AMNE09.jpg,AMNE14.jpg,AMSA12.jpg,AMSA03.jpg,AMSA12.jpg,MS,2,num_2,16,num_2,0.933512263466,,,2017_Apr_12_1643,60.0116835184,FEMA4ImagesEEG,001,200110,
AFNE01.JPG,AFNE01.JPG,AFNE01.JPG,AFNE01.JPG,AFNE01.JPG,AFNE01.JPG,,,,,,,,,,,,,,,,,,,,,3,5,35,5,,,AMSA10.jpg,AMSA08.jpg,AMNE05.jpg,AMNE07.jpg,AMSA10.jpg,MS,2,num_8,16,num_8,0.866752860136,,,2017_Apr_12_1643,60.0116835184,FEMA4ImagesEEG,001,200110,
AFNE01.JPG,AFNE01.JPG,AFNE01.JPG,AFNE01.JPG,AFNE01.JPG,AFNE01.JPG,,,,,,,,,,,,,,,,,,,,,3,6,36,0,,,AMSA02.jpg,AMNE13.jpg,AMNE17.jpg,AMSA16.jpg,AMNE13.jpg,MN,1,num_6,16,num_6,0.967022826895,,,2017_Apr_12_1643,60.0116835184,FEMA4ImagesEEG,001,200110,
AFNE01.JPG,AFNE01.JPG,AFNE01.JPG,AFNE01.JPG,AFNE01.JPG,AFNE01.JPG,,,,,,,,,,,,,,,,,,,,,3,7,37,7,,,AMSA14.jpg,AMSA06.jpg,AMNE07.jpg,AMNE13.jpg,AMSA14.jpg,MS,2,num_8,32,num_2,0.950122410432,,,2017_Apr_12_1643,60.0116835184,FEMA4ImagesEEG,001,200110,
AFNE01.JPG,AFNE01.JPG,AFNE01.JPG,AFNE01.JPG,AFNE01.JPG,AFNE01.JPG,,,,,,,,,,,,,,,,,,,,,3,8,38,9,,,AMSA19.jpg,AMNE05.jpg,AMNE20.jpg,AMSA13.jpg,AMSA19.jpg,MS,2,num_8,16,num_8,1.50005372427,,,2017_Apr_12_1643,60.0116835184,FEMA4ImagesEEG,001,200110,
