IPosition2,IPosition3,IPosition1,IPosition6,IPosition4,IPosition5,TrialsF1.thisRepN,TrialsF1.thisTrialN,TrialsF1.thisN,TrialsF1.thisIndex,TrialsM1.thisRepN,TrialsM1.thisTrialN,TrialsM1.thisN,TrialsM1.thisIndex,TrialsF2.thisRepN,TrialsF2.thisTrialN,TrialsF2.thisN,TrialsF2.thisIndex,TrialsM2.thisRepN,TrialsM2.thisTrialN,TrialsM2.thisN,TrialsM2.thisIndex,TrialsF3.thisRepN,TrialsF3.thisTrialN,TrialsF3.thisN,TrialsF3.thisIndex,TrialsM3.thisRepN,TrialsM3.thisTrialN,TrialsM3.thisN,TrialsM3.thisIndex,InstrKey_resp.keys,InstrKey_resp.rt,Image0 _Position,Image1 _Position,Image2 _Position,Image3 _Position,Center_image,condition,code,correct_answer,accuracy,Key_Resp.keys,Key_Resp.rt,BreakKey_resp.keys,BreakKey_resp.rt,date,frameRate,expName,session,participant,
,,,,,,,,,,,,,,,,,,,,,,,,,,,,,,space,11.0497001251,,,,,,,,,,,,,,2017_May_12_1104,60.0060240639,FEMA4ImagesEEG,001,200126,
AMSA21.JPG,AMNE22.JPG,AMNE21.JPG,AMSA23.JPG,AMSA22.JPG,AMNE23.JPG,0,0,0,1,,,,,,,,,,,,,,,,,,,,,,,AFSA15.jpg,AFSA01.jpg,AFNE15.jpg,AFNE09.jpg,AFNE09.jpg,FN,3,num_4,16,num_4,0.816806022543,,,2017_May_12_1104,60.0060240639,FEMA4ImagesEEG,001,200126,
AFSA25.JPG,AFNE24.JPG,AFSA24.JPG,AFNE21.JPG,AFSA21.JPG,AFNE25.JPG,0,1,1,2,,,,,,,,,,,,,,,,,,,,,,,AFNE15.jpg,AFNE05.jpg,AFSA18.jpg,AFSA17.jpg,AFSA18.jpg,FS,4,num_2,16,num_2,0.833493114915,,,2017_May_12_1104,60.0060240639,FEMA4ImagesEEG,001,200126,
AMNE23.JPG,AMNE24.JPG,AMNE22.JPG,AMSA24.JPG,AMSA22.JPG,AMSA23.JPG,0,2,2,9,,,,,,,,,,,,,,,,,,,,,,,AFNE16.jpg,AFNE10.jpg,AFSA15.jpg,AFSA01.jpg,AFSA01.jpg,FS,4,num_4,16,num_4,0.616791845765,,,2017_May_12_1104,60.0060240639,FEMA4ImagesEEG,001,200126,
AFSA21.JPG,AFNE23.JPG,AFNE21.JPG,AFSA25.JPG,AFNE25.JPG,AFSA23.JPG,0,3,3,4,,,,,,,,,,,,,,,,,,,,,,,AFSA14.jpg,AFNE20.jpg,AFNE13.jpg,AFSA06.jpg,AFSA06.jpg,FS,4,num_4,16,num_4,0.883463302162,,,2017_May_12_1104,60.0060240639,FEMA4ImagesEEG,001,200126,
AFNE22.JPG,AFSA24.JPG,AFSA22.JPG,AFNE25.JPG,AFNE24.JPG,AFSA25.JPG,0,4,4,6,,,,,,,,,,,,,,,,,,,,,,,AFSA17.jpg,AFNE09.jpg,AFNE14.jpg,AFSA18.jpg,AFNE14.jpg,FN,3,num_2,16,num_2,0.833459437359,,,2017_May_12_1104,60.0060240639,FEMA4ImagesEEG,001,200126,
AFNE23.JPG,AFNE24.JPG,AFNE22.JPG,AFSA24.JPG,AFSA22.JPG,AFSA23.JPG,0,5,5,8,,,,,,,,,,,,,,,,,,,,,,,AFNE13.jpg,AFSA10.jpg,AFSA03.jpg,AFNE01.jpg,AFNE01.jpg,FN,3,num_4,32,num_2,1.10022871941,,,2017_May_12_1104,60.0060240639,FEMA4ImagesEEG,001,200126,
AFSA21.JPG,AFNE22.JPG,AFNE21.JPG,AFSA23.JPG,AFSA22.JPG,AFNE23.JPG,0,6,6,0,,,,,,,,,,,,,,,,,,,,,,,AFNE13.jpg,AFSA12.jpg,AFNE19.jpg,AFSA06.jpg,AFSA12.jpg,FS,4,num_6,16,num_6,1.00010456098,,,2017_May_12_1104,60.0060240639,FEMA4ImagesEEG,001,200126,
AMSA25.JPG,AMNE24.JPG,AMSA24.JPG,AMNE26.JPG,AMSA21.JPG,AMNE25.JPG,0,7,7,3,,,,,,,,,,,,,,,,,,,,,,,AFSA11.jpg,AFNE02.jpg,AFNE20.jpg,AFSA09.jpg,AFSA09.jpg,FS,4,num_4,16,num_4,0.650138126221,,,2017_May_12_1104,60.0060240639,FEMA4ImagesEEG,001,200126,
AMNE22.JPG,AMSA24.JPG,AMSA22.JPG,AMNE25.JPG,AMNE24.JPG,AMSA25.JPG,0,8,8,7,,,,,,,,,,,,,,,,,,,,,,,AFNE17.jpg,AFSA02.jpg,AFSA16.jpg,AFNE12.jpg,AFNE17.jpg,FN,3,num_8,32,num_4,0.650193934795,,,2017_May_12_1104,60.0060240639,FEMA4ImagesEEG,001,200126,
AMSA21.JPG,AMNE23.JPG,AMNE21.JPG,AMSA25.JPG,AMNE25.JPG,AMSA23.JPG,0,9,9,5,,,,,,,,,,,,,,,,,,,,,,,AFSA02.jpg,AFNE17.jpg,AFSA09.jpg,AFNE16.jpg,AFNE16.jpg,FN,3,num_4,32,num_6,0.700160594191,,,2017_May_12_1104,60.0060240639,FEMA4ImagesEEG,001,200126,
AMSA21.JPG,AMNE23.JPG,AMNE21.JPG,AMSA25.JPG,AMNE25.JPG,AMSA23.JPG,,,,,0,0,0,5,,,,,,,,,,,,,,,,,,,AMNE15.jpg,AMSA17.jpg,AMSA19.jpg,AMNE20.jpg,AMSA17.jpg,MS,2,num_6,32,num_2,0.700145198964,,,2017_May_12_1104,60.0060240639,FEMA4ImagesEEG,001,200126,
AFSA21.JPG,AFNE22.JPG,AFNE21.JPG,AFSA23.JPG,AFSA22.JPG,AFNE23.JPG,,,,,0,1,1,0,,,,,,,,,,,,,,,,,,,AMSA07.jpg,AMNE13.jpg,AMSA03.jpg,AMNE15.jpg,AMSA03.jpg,MS,2,num_2,16,num_2,0.800141702872,,,2017_May_12_1104,60.0060240639,FEMA4ImagesEEG,001,200126,
AMSA21.JPG,AMNE22.JPG,AMNE21.JPG,AMSA23.JPG,AMSA22.JPG,AMNE23.JPG,,,,,0,2,2,1,,,,,,,,,,,,,,,,,,,AMSA09.jpg,AMSA04.jpg,AMNE13.jpg,AMNE09.jpg,AMNE09.jpg,MN,1,num_4,32,num_8,1.03344570938,,,2017_May_12_1104,60.0060240639,FEMA4ImagesEEG,001,200126,
AFSA21.JPG,AFNE23.JPG,AFNE21.JPG,AFSA25.JPG,AFNE25.JPG,AFSA23.JPG,,,,,0,3,3,4,,,,,,,,,,,,,,,,,,,AMSA20.jpg,AMSA04.jpg,AMNE08.jpg,AMNE15.jpg,AMSA04.jpg,MS,2,num_6,16,num_6,0.900107094552,,,2017_May_12_1104,60.0060240639,FEMA4ImagesEEG,001,200126,
AFSA25.JPG,AFNE24.JPG,AFSA24.JPG,AFNE21.JPG,AFSA21.JPG,AFNE25.JPG,,,,,0,4,4,2,,,,,,,,,,,,,,,,,,,AMSA05.jpg,AMNE14.jpg,AMSA04.jpg,AMNE16.jpg,AMNE14.jpg,MN,1,num_6,16,num_6,0.533576411195,,,2017_May_12_1104,60.0060240639,FEMA4ImagesEEG,001,200126,
AFNE23.JPG,AFNE24.JPG,AFNE22.JPG,AFSA24.JPG,AFSA22.JPG,AFSA23.JPG,,,,,0,5,5,8,,,,,,,,,,,,,,,,,,,AMNE08.jpg,AMSA05.jpg,AMSA10.jpg,AMNE09.jpg,AMNE08.jpg,MN,1,num_8,16,num_8,0.766740575898,,,2017_May_12_1104,60.0060240639,FEMA4ImagesEEG,001,200126,
AMNE22.JPG,AMSA24.JPG,AMSA22.JPG,AMNE25.JPG,AMNE24.JPG,AMSA25.JPG,,,,,0,6,6,7,,,,,,,,,,,,,,,,,,,AMSA16.jpg,AMNE20.jpg,AMNE02.jpg,AMSA01.jpg,AMSA01.jpg,MS,2,num_4,32,num_2,1.16680453112,,,2017_May_12_1104,60.0060240639,FEMA4ImagesEEG,001,200126,
AMSA25.JPG,AMNE24.JPG,AMSA24.JPG,AMNE26.JPG,AMSA21.JPG,AMNE25.JPG,,,,,0,7,7,3,,,,,,,,,,,,,,,,,,,AMNE07.jpg,AMNE13.jpg,AMSA08.jpg,AMSA13.jpg,AMNE07.jpg,MN,1,num_8,32,num_6,0.55017626239,,,2017_May_12_1104,60.0060240639,FEMA4ImagesEEG,001,200126,
AMNE23.JPG,AMNE24.JPG,AMNE22.JPG,AMSA24.JPG,AMSA22.JPG,AMSA23.JPG,,,,,0,8,8,9,,,,,,,,,,,,,,,,,,,AMNE09.jpg,AMNE08.jpg,AMSA08.jpg,AMSA11.jpg,AMNE08.jpg,MN,1,num_6,16,num_6,1.00007954333,,,2017_May_12_1104,60.0060240639,FEMA4ImagesEEG,001,200126,
AFNE22.JPG,AFSA24.JPG,AFSA22.JPG,AFNE25.JPG,AFNE24.JPG,AFSA25.JPG,,,,,0,9,9,6,,,,,,,,,,,,,,,,,,,AMNE13.jpg,AMSA18.jpg,AMSA12.jpg,AMNE03.jpg,AMNE03.jpg,MN,1,num_4,32,num_8,0.966783939861,,,2017_May_12_1104,60.0060240639,FEMA4ImagesEEG,001,200126,
AFNE23.JPG,AFNE24.JPG,AFNE22.JPG,AFSA24.JPG,AFSA22.JPG,AFSA23.JPG,,,,,,,,,0,0,0,8,,,,,,,,,,,,,,,AFSA18.jpg,AFNE03.jpg,AFSA03.jpg,AFNE15.jpg,AFSA03.jpg,FS,4,num_2,16,num_2,0.733470952138,,,2017_May_12_1104,60.0060240639,FEMA4ImagesEEG,001,200126,
AFSA21.JPG,AFNE22.JPG,AFNE21.JPG,AFSA23.JPG,AFSA22.JPG,AFNE23.JPG,,,,,,,,,0,1,1,0,,,,,,,,,,,,,,,AFNE18.jpg,AFSA13.jpg,AFNE16.jpg,AFSA07.jpg,AFSA13.jpg,FS,4,num_6,16,num_6,1.03372539394,,,2017_May_12_1104,60.0060240639,FEMA4ImagesEEG,001,200126,
AMSA21.JPG,AMNE23.JPG,AMNE21.JPG,AMSA25.JPG,AMNE25.JPG,AMSA23.JPG,,,,,,,,,0,2,2,5,,,,,,,,,,,,,,,AFNE19.jpg,AFNE16.jpg,AFSA19.jpg,AFSA07.jpg,AFSA19.jpg,FS,4,num_2,32,num_6,1.00014561554,,,2017_May_12_1104,60.0060240639,FEMA4ImagesEEG,001,200126,
AMNE22.JPG,AMSA24.JPG,AMSA22.JPG,AMNE25.JPG,AMNE24.JPG,AMSA25.JPG,,,,,,,,,0,3,3,7,,,,,,,,,,,,,,,AFNE03.jpg,AFSA16.jpg,AFNE04.jpg,AFSA17.jpg,AFSA17.jpg,FS,4,num_4,16,num_4,0.650020094588,,,2017_May_12_1104,60.0060240639,FEMA4ImagesEEG,001,200126,
AMNE23.JPG,AMNE24.JPG,AMNE22.JPG,AMSA24.JPG,AMSA22.JPG,AMSA23.JPG,,,,,,,,,0,4,4,9,,,,,,,,,,,,,,,AFNE05.jpg,AFNE07.jpg,AFSA10.jpg,AFSA13.jpg,AFNE05.jpg,FN,3,num_8,32,num_2,0.966738715302,,,2017_May_12_1104,60.0060240639,FEMA4ImagesEEG,001,200126,
AFSA21.JPG,AFNE23.JPG,AFNE21.JPG,AFSA25.JPG,AFNE25.JPG,AFSA23.JPG,,,,,,,,,0,5,5,4,,,,,,,,,,,,,,,AFSA14.jpg,AFSA17.jpg,AFNE19.jpg,AFNE10.jpg,AFNE10.jpg,FN,3,num_4,16,num_4,0.633521917276,,,2017_May_12_1104,60.0060240639,FEMA4ImagesEEG,001,200126,
AMSA21.JPG,AMNE22.JPG,AMNE21.JPG,AMSA23.JPG,AMSA22.JPG,AMNE23.JPG,,,,,,,,,0,6,6,1,,,,,,,,,,,,,,,AFSA04.jpg,AFNE14.jpg,AFNE07.jpg,AFSA16.jpg,AFNE07.jpg,FN,3,num_2,16,num_2,0.900121207349,,,2017_May_12_1104,60.0060240639,FEMA4ImagesEEG,001,200126,
AFSA25.JPG,AFNE24.JPG,AFSA24.JPG,AFNE21.JPG,AFSA21.JPG,AFNE25.JPG,,,,,,,,,0,7,7,2,,,,,,,,,,,,,,,AFSA20.jpg,AFNE08.jpg,AFNE16.jpg,AFSA08.jpg,AFNE08.jpg,FN,3,num_6,16,num_6,0.633522558957,,,2017_May_12_1104,60.0060240639,FEMA4ImagesEEG,001,200126,
AMSA25.JPG,AMNE24.JPG,AMSA24.JPG,AMNE26.JPG,AMSA21.JPG,AMNE25.JPG,,,,,,,,,0,8,8,3,,,,,,,,,,,,,,,AFNE15.jpg,AFSA17.jpg,AFNE08.jpg,AFSA01.jpg,AFNE08.jpg,FN,3,num_2,32,num_8,0.78345493041,,,2017_May_12_1104,60.0060240639,FEMA4ImagesEEG,001,200126,
AFNE22.JPG,AFSA24.JPG,AFSA22.JPG,AFNE25.JPG,AFNE24.JPG,AFSA25.JPG,,,,,,,,,0,9,9,6,,,,,,,,,,,,,,,AFSA03.jpg,AFNE17.jpg,AFSA09.jpg,AFNE07.jpg,AFNE17.jpg,FN,3,num_6,16,num_6,0.950109355617,,,2017_May_12_1104,60.0060240639,FEMA4ImagesEEG,001,200126,
AFSA21.JPG,AFNE23.JPG,AFNE21.JPG,AFSA25.JPG,AFNE25.JPG,AFSA23.JPG,,,,,,,,,,,,,0,0,0,4,,,,,,,,,,,AMNE03.jpg,AMSA19.jpg,AMNE15.jpg,AMSA13.jpg,AMNE15.jpg,MN,1,num_2,16,num_2,0.783146059141,,,2017_May_12_1104,60.0060240639,FEMA4ImagesEEG,001,200126,
AFNE22.JPG,AFSA24.JPG,AFSA22.JPG,AFNE25.JPG,AFNE24.JPG,AFSA25.JPG,,,,,,,,,,,,,0,1,1,6,,,,,,,,,,,AMNE17.jpg,AMSA16.jpg,AMNE11.jpg,AMSA20.jpg,AMSA16.jpg,MS,2,num_6,16,num_6,0.733460367192,,,2017_May_12_1104,60.0060240639,FEMA4ImagesEEG,001,200126,
AFSA25.JPG,AFNE24.JPG,AFSA24.JPG,AFNE21.JPG,AFSA21.JPG,AFNE25.JPG,,,,,,,,,,,,,0,2,2,2,,,,,,,,,,,AMSA20.jpg,AMNE09.jpg,AMNE20.jpg,AMSA11.jpg,AMSA11.jpg,MS,2,num_4,16,num_4,0.850178282708,,,2017_May_12_1104,60.0060240639,FEMA4ImagesEEG,001,200126,
AMNE22.JPG,AMSA24.JPG,AMSA22.JPG,AMNE25.JPG,AMNE24.JPG,AMSA25.JPG,,,,,,,,,,,,,0,3,3,7,,,,,,,,,,,AMSA04.jpg,AMNE19.jpg,AMSA13.jpg,AMNE16.jpg,AMSA04.jpg,MS,2,num_8,16,num_8,0.933714457322,,,2017_May_12_1104,60.0060240639,FEMA4ImagesEEG,001,200126,
AMSA25.JPG,AMNE24.JPG,AMSA24.JPG,AMNE26.JPG,AMSA21.JPG,AMNE25.JPG,,,,,,,,,,,,,0,4,4,3,,,,,,,,,,,AMNE17.jpg,AMSA10.jpg,AMNE18.jpg,AMSA09.jpg,AMNE17.jpg,MN,1,num_8,32,num_2,0.750138158444,,,2017_May_12_1104,60.0060240639,FEMA4ImagesEEG,001,200126,
AMSA21.JPG,AMNE23.JPG,AMNE21.JPG,AMSA25.JPG,AMNE25.JPG,AMSA23.JPG,,,,,,,,,,,,,0,5,5,5,,,,,,,,,,,AMSA15.jpg,AMSA05.jpg,AMNE12.jpg,AMNE15.jpg,AMNE15.jpg,MN,1,num_4,16,num_4,0.583462564275,,,2017_May_12_1104,60.0060240639,FEMA4ImagesEEG,001,200126,
AMSA21.JPG,AMNE22.JPG,AMNE21.JPG,AMSA23.JPG,AMSA22.JPG,AMNE23.JPG,,,,,,,,,,,,,0,6,6,1,,,,,,,,,,,AMSA14.jpg,AMSA20.jpg,AMNE11.jpg,AMNE20.jpg,AMSA20.jpg,MS,2,num_6,32,num_2,0.850168019067,,,2017_May_12_1104,60.0060240639,FEMA4ImagesEEG,001,200126,
AFSA21.JPG,AFNE22.JPG,AFNE21.JPG,AFSA23.JPG,AFSA22.JPG,AFNE23.JPG,,,,,,,,,,,,,0,7,7,0,,,,,,,,,,,AMSA11.jpg,AMNE09.jpg,AMSA10.jpg,AMNE20.jpg,AMNE09.jpg,MN,1,num_6,32,num_2,1.33350738743,,,2017_May_12_1104,60.0060240639,FEMA4ImagesEEG,001,200126,
AMNE23.JPG,AMNE24.JPG,AMNE22.JPG,AMSA24.JPG,AMSA22.JPG,AMSA23.JPG,,,,,,,,,,,,,0,8,8,9,,,,,,,,,,,AMNE05.jpg,AMSA17.jpg,AMNE15.jpg,AMSA06.jpg,AMNE15.jpg,MN,1,num_2,16,num_2,0.816788061056,,,2017_May_12_1104,60.0060240639,FEMA4ImagesEEG,001,200126,
AFNE23.JPG,AFNE24.JPG,AFNE22.JPG,AFSA24.JPG,AFSA22.JPG,AFSA23.JPG,,,,,,,,,,,,,0,9,9,8,,,,,,,,,,,AMNE13.jpg,AMSA12.jpg,AMNE11.jpg,AMSA10.jpg,AMNE13.jpg,MN,1,num_8,32,num_6,0.566768095363,,,2017_May_12_1104,60.0060240639,FEMA4ImagesEEG,001,200126,
AFSA21.JPG,AFNE23.JPG,AFNE21.JPG,AFSA25.JPG,AFNE25.JPG,AFSA23.JPG,,,,,,,,,,,,,,,,,0,0,0,4,,,,,,,AFNE19.jpg,AFNE07.jpg,AFSA18.jpg,AFSA05.jpg,AFNE19.jpg,FN,3,num_8,32,num_4,0.700112483464,,,2017_May_12_1104,60.0060240639,FEMA4ImagesEEG,001,200126,
AMNE23.JPG,AMNE24.JPG,AMNE22.JPG,AMSA24.JPG,AMSA22.JPG,AMSA23.JPG,,,,,,,,,,,,,,,,,0,1,1,9,,,,,,,AFNE02.jpg,AFSA18.jpg,AFNE10.jpg,AFSA03.jpg,AFSA03.jpg,FS,4,num_4,16,num_4,1.00010873051,,,2017_May_12_1104,60.0060240639,FEMA4ImagesEEG,001,200126,
AFSA25.JPG,AFNE24.JPG,AFSA24.JPG,AFNE21.JPG,AFSA21.JPG,AFNE25.JPG,,,,,,,,,,,,,,,,,0,2,2,2,,,,,,,AFSA15.jpg,AFNE09.jpg,AFNE08.jpg,AFSA10.jpg,AFNE09.jpg,FN,3,num_6,16,num_6,0.93338120915,,,2017_May_12_1104,60.0060240639,FEMA4ImagesEEG,001,200126,
AMSA21.JPG,AMNE22.JPG,AMNE21.JPG,AMSA23.JPG,AMSA22.JPG,AMNE23.JPG,,,,,,,,,,,,,,,,,0,3,3,1,,,,,,,AFNE12.jpg,AFNE16.jpg,AFSA13.jpg,AFSA02.jpg,AFNE12.jpg,FN,3,num_8,16,num_8,0.833444683347,,,2017_May_12_1104,60.0060240639,FEMA4ImagesEEG,001,200126,
AMSA25.JPG,AMNE24.JPG,AMSA24.JPG,AMNE26.JPG,AMSA21.JPG,AMNE25.JPG,,,,,,,,,,,,,,,,,0,4,4,3,,,,,,,AFNE05.jpg,AFNE18.jpg,AFSA13.jpg,AFSA14.jpg,AFSA13.jpg,FS,4,num_2,16,num_2,0.58376438031,,,2017_May_12_1104,60.0060240639,FEMA4ImagesEEG,001,200126,
AFNE22.JPG,AFSA24.JPG,AFSA22.JPG,AFNE25.JPG,AFNE24.JPG,AFSA25.JPG,,,,,,,,,,,,,,,,,0,5,5,6,,,,,,,AFSA17.jpg,AFNE13.jpg,AFSA19.jpg,AFNE14.jpg,AFNE13.jpg,FN,3,num_6,16,num_6,0.816828153562,,,2017_May_12_1104,60.0060240639,FEMA4ImagesEEG,001,200126,
AFNE23.JPG,AFNE24.JPG,AFNE22.JPG,AFSA24.JPG,AFSA22.JPG,AFSA23.JPG,,,,,,,,,,,,,,,,,0,6,6,8,,,,,,,AFNE18.jpg,AFSA05.jpg,AFSA07.jpg,AFNE01.jpg,AFSA07.jpg,FS,4,num_2,32,num_6,0.916727473494,,,2017_May_12_1104,60.0060240639,FEMA4ImagesEEG,001,200126,
AMSA21.JPG,AMNE23.JPG,AMNE21.JPG,AMSA25.JPG,AMNE25.JPG,AMSA23.JPG,,,,,,,,,,,,,,,,,0,7,7,5,,,,,,,AFSA20.jpg,AFNE05.jpg,AFNE14.jpg,AFSA18.jpg,AFSA20.jpg,FS,4,num_8,16,num_8,0.850096815266,,,2017_May_12_1104,60.0060240639,FEMA4ImagesEEG,001,200126,
AFSA21.JPG,AFNE22.JPG,AFNE21.JPG,AFSA23.JPG,AFSA22.JPG,AFNE23.JPG,,,,,,,,,,,,,,,,,0,8,8,0,,,,,,,AFNE09.jpg,AFSA07.jpg,AFNE07.jpg,AFSA18.jpg,AFSA07.jpg,FS,4,num_6,16,num_6,0.76664852351,,,2017_May_12_1104,60.0060240639,FEMA4ImagesEEG,001,200126,
AMNE22.JPG,AMSA24.JPG,AMSA22.JPG,AMNE25.JPG,AMNE24.JPG,AMSA25.JPG,,,,,,,,,,,,,,,,,0,9,9,7,,,,,,,AFNE14.jpg,AFSA09.jpg,AFSA11.jpg,AFNE18.jpg,AFSA11.jpg,FS,4,num_2,16,num_2,0.533469925169,,,2017_May_12_1104,60.0060240639,FEMA4ImagesEEG,001,200126,
AFNE22.JPG,AFSA24.JPG,AFSA22.JPG,AFNE25.JPG,AFNE24.JPG,AFSA25.JPG,,,,,,,,,,,,,,,,,,,,,0,0,0,6,,,AMNE05.jpg,AMNE04.jpg,AMSA12.jpg,AMSA19.jpg,AMNE04.jpg,MN,1,num_6,16,num_6,0.683462275658,,,2017_May_12_1104,60.0060240639,FEMA4ImagesEEG,001,200126,
AFSA25.JPG,AFNE24.JPG,AFSA24.JPG,AFNE21.JPG,AFSA21.JPG,AFNE25.JPG,,,,,,,,,,,,,,,,,,,,,0,1,1,2,,,AMNE13.jpg,AMSA20.jpg,AMSA14.jpg,AMNE01.jpg,AMSA20.jpg,MS,2,num_6,16,num_6,0.700124671217,,,2017_May_12_1104,60.0060240639,FEMA4ImagesEEG,001,200126,
AMNE22.JPG,AMSA24.JPG,AMSA22.JPG,AMNE25.JPG,AMNE24.JPG,AMSA25.JPG,,,,,,,,,,,,,,,,,,,,,0,2,2,7,,,AMNE17.jpg,AMSA06.jpg,AMNE03.jpg,AMSA10.jpg,AMNE17.jpg,MN,1,num_8,16,num_8,1.01668837527,,,2017_May_12_1104,60.0060240639,FEMA4ImagesEEG,001,200126,
AFSA21.JPG,AFNE22.JPG,AFNE21.JPG,AFSA23.JPG,AFSA22.JPG,AFNE23.JPG,,,,,,,,,,,,,,,,,,,,,0,3,3,0,,,AMSA06.jpg,AMNE03.jpg,AMSA07.jpg,AMNE16.jpg,AMNE16.jpg,MN,1,num_4,16,num_4,0.833145754412,,,2017_May_12_1104,60.0060240639,FEMA4ImagesEEG,001,200126,
AMNE23.JPG,AMNE24.JPG,AMNE22.JPG,AMSA24.JPG,AMSA22.JPG,AMSA23.JPG,,,,,,,,,,,,,,,,,,,,,0,4,4,9,,,AMNE05.jpg,AMNE09.jpg,AMSA16.jpg,AMSA04.jpg,AMNE05.jpg,MN,1,num_8,32,num_6,0.716798613314,,,2017_May_12_1104,60.0060240639,FEMA4ImagesEEG,001,200126,
AMSA25.JPG,AMNE24.JPG,AMSA24.JPG,AMNE26.JPG,AMSA21.JPG,AMNE25.JPG,,,,,,,,,,,,,,,,,,,,,0,5,5,3,,,AMNE17.jpg,AMNE01.jpg,AMSA06.jpg,AMSA09.jpg,AMNE01.jpg,MN,1,num_6,16,num_6,0.483507115394,,,2017_May_12_1104,60.0060240639,FEMA4ImagesEEG,001,200126,
AFNE23.JPG,AFNE24.JPG,AFNE22.JPG,AFSA24.JPG,AFSA22.JPG,AFSA23.JPG,,,,,,,,,,,,,,,,,,,,,0,6,6,8,,,AMSA03.jpg,AMSA15.jpg,AMNE04.jpg,AMNE20.jpg,AMSA15.jpg,MS,2,num_6,16,num_6,1.01676727738,,,2017_May_12_1104,60.0060240639,FEMA4ImagesEEG,001,200126,
AFSA21.JPG,AFNE23.JPG,AFNE21.JPG,AFSA25.JPG,AFNE25.JPG,AFSA23.JPG,,,,,,,,,,,,,,,,,,,,,0,7,7,4,,,AMSA04.jpg,AMSA15.jpg,AMNE05.jpg,AMNE17.jpg,AMSA04.jpg,MS,2,num_8,16,num_8,1.08329241257,,,2017_May_12_1104,60.0060240639,FEMA4ImagesEEG,001,200126,
AMSA21.JPG,AMNE23.JPG,AMNE21.JPG,AMSA25.JPG,AMNE25.JPG,AMSA23.JPG,,,,,,,,,,,,,,,,,,,,,0,8,8,5,,,AMSA07.jpg,AMNE01.jpg,AMSA10.jpg,AMNE20.jpg,AMNE20.jpg,MN,1,num_4,16,num_4,1.26660634624,,,2017_May_12_1104,60.0060240639,FEMA4ImagesEEG,001,200126,
AMSA21.JPG,AMNE22.JPG,AMNE21.JPG,AMSA23.JPG,AMSA22.JPG,AMNE23.JPG,,,,,,,,,,,,,,,,,,,,,0,9,9,1,,,AMNE17.jpg,AMSA16.jpg,AMSA05.jpg,AMNE05.jpg,AMSA16.jpg,MS,2,num_6,32,num_4,1.25024191756,,,2017_May_12_1104,60.0060240639,FEMA4ImagesEEG,001,200126,
,,,,,,,,,,,,,,,,,,,,,,,,,,,,,,,,,,,,,,,,,,,space,4.68310657609,2017_May_12_1104,60.0060240639,FEMA4ImagesEEG,001,200126,
AFNE01.JPG,AFNE01.JPG,AFNE01.JPG,AFNE01.JPG,AFNE01.JPG,AFNE01.JPG,0,0,0,2,,,,,,,,,,,,,,,,,,,,,,,AFNE04.jpg,AFNE02.jpg,AFSA20.jpg,AFSA12.jpg,AFNE02.jpg,FN,3,num_6,16,num_6,0.70016989531,,,2017_May_12_1104,60.0060240639,FEMA4ImagesEEG,001,200126,
AFNE01.JPG,AFNE01.JPG,AFNE01.JPG,AFNE01.JPG,AFNE01.JPG,AFNE01.JPG,0,1,1,6,,,,,,,,,,,,,,,,,,,,,,,AFNE13.jpg,AFSA08.jpg,AFSA15.jpg,AFNE10.jpg,AFNE10.jpg,FN,3,num_4,16,num_4,0.766763348132,,,2017_May_12_1104,60.0060240639,FEMA4ImagesEEG,001,200126,
AFNE01.JPG,AFNE01.JPG,AFNE01.JPG,AFNE01.JPG,AFNE01.JPG,AFNE01.JPG,0,2,2,5,,,,,,,,,,,,,,,,,,,,,,,AFNE09.jpg,AFSA08.jpg,AFSA17.jpg,AFNE14.jpg,AFNE09.jpg,FN,3,num_8,16,num_8,0.833402345888,,,2017_May_12_1104,60.0060240639,FEMA4ImagesEEG,001,200126,
AFNE01.JPG,AFNE01.JPG,AFNE01.JPG,AFNE01.JPG,AFNE01.JPG,AFNE01.JPG,0,3,3,8,,,,,,,,,,,,,,,,,,,,,,,AFNE20.jpg,AFNE03.jpg,AFSA14.jpg,AFSA02.jpg,AFNE20.jpg,FN,3,num_8,32,num_6,0.850135303568,,,2017_May_12_1104,60.0060240639,FEMA4ImagesEEG,001,200126,
AFNE01.JPG,AFNE01.JPG,AFNE01.JPG,AFNE01.JPG,AFNE01.JPG,AFNE01.JPG,0,4,4,3,,,,,,,,,,,,,,,,,,,,,,,AFNE17.jpg,AFSA14.jpg,AFNE13.jpg,AFSA09.jpg,AFNE13.jpg,FN,3,num_2,32,num_8,0.583335231058,,,2017_May_12_1104,60.0060240639,FEMA4ImagesEEG,001,200126,
AFNE01.JPG,AFNE01.JPG,AFNE01.JPG,AFNE01.JPG,AFNE01.JPG,AFNE01.JPG,0,5,5,4,,,,,,,,,,,,,,,,,,,,,,,AFSA07.jpg,AFSA05.jpg,AFNE20.jpg,AFNE01.jpg,AFSA05.jpg,FS,4,num_6,16,num_6,0.733516175766,,,2017_May_12_1104,60.0060240639,FEMA4ImagesEEG,001,200126,
AFNE01.JPG,AFNE01.JPG,AFNE01.JPG,AFNE01.JPG,AFNE01.JPG,AFNE01.JPG,0,6,6,1,,,,,,,,,,,,,,,,,,,,,,,AFNE12.jpg,AFSA20.jpg,AFNE10.jpg,AFSA12.jpg,AFSA12.jpg,FS,4,num_4,16,num_4,0.617048757616,,,2017_May_12_1104,60.0060240639,FEMA4ImagesEEG,001,200126,
AFNE01.JPG,AFNE01.JPG,AFNE01.JPG,AFNE01.JPG,AFNE01.JPG,AFNE01.JPG,0,7,7,0,,,,,,,,,,,,,,,,,,,,,,,AFNE08.jpg,AFSA07.jpg,AFNE15.jpg,AFSA04.jpg,AFSA04.jpg,FS,4,num_4,32,num_8,1.16677887179,,,2017_May_12_1104,60.0060240639,FEMA4ImagesEEG,001,200126,
AFNE01.JPG,AFNE01.JPG,AFNE01.JPG,AFNE01.JPG,AFNE01.JPG,AFNE01.JPG,0,8,8,7,,,,,,,,,,,,,,,,,,,,,,,AFNE13.jpg,AFSA04.jpg,AFSA01.jpg,AFNE02.jpg,AFNE02.jpg,FN,3,num_4,32,num_8,0.816782287788,,,2017_May_12_1104,60.0060240639,FEMA4ImagesEEG,001,200126,
AFNE01.JPG,AFNE01.JPG,AFNE01.JPG,AFNE01.JPG,AFNE01.JPG,AFNE01.JPG,0,9,9,9,,,,,,,,,,,,,,,,,,,,,,,AFNE03.jpg,AFSA19.jpg,AFNE16.jpg,AFSA07.jpg,AFNE03.jpg,FN,3,num_8,32,num_2,0.95011063898,,,2017_May_12_1104,60.0060240639,FEMA4ImagesEEG,001,200126,
AFNE01.JPG,AFNE01.JPG,AFNE01.JPG,AFNE01.JPG,AFNE01.JPG,AFNE01.JPG,1,0,10,8,,,,,,,,,,,,,,,,,,,,,,,AFSA17.jpg,AFSA02.jpg,AFNE19.jpg,AFNE01.jpg,AFSA02.jpg,FS,4,num_6,16,num_6,1.10011806432,,,2017_May_12_1104,60.0060240639,FEMA4ImagesEEG,001,200126,
AFNE01.JPG,AFNE01.JPG,AFNE01.JPG,AFNE01.JPG,AFNE01.JPG,AFNE01.JPG,1,1,11,7,,,,,,,,,,,,,,,,,,,,,,,AFSA13.jpg,AFSA01.jpg,AFNE08.jpg,AFNE11.jpg,AFSA01.jpg,FS,4,num_6,16,num_6,1.5000877222,,,2017_May_12_1104,60.0060240639,FEMA4ImagesEEG,001,200126,
AFNE01.JPG,AFNE01.JPG,AFNE01.JPG,AFNE01.JPG,AFNE01.JPG,AFNE01.JPG,1,2,12,2,,,,,,,,,,,,,,,,,,,,,,,AFNE12.jpg,AFNE14.jpg,AFSA01.jpg,AFSA12.jpg,AFSA12.jpg,FS,4,num_4,16,num_4,0.466870057862,,,2017_May_12_1104,60.0060240639,FEMA4ImagesEEG,001,200126,
AFNE01.JPG,AFNE01.JPG,AFNE01.JPG,AFNE01.JPG,AFNE01.JPG,AFNE01.JPG,1,3,13,5,,,,,,,,,,,,,,,,,,,,,,,AFNE03.jpg,AFSA05.jpg,AFNE05.jpg,AFSA14.jpg,AFNE05.jpg,FN,3,num_2,32,num_6,0.683453615755,,,2017_May_12_1104,60.0060240639,FEMA4ImagesEEG,001,200126,
AFNE01.JPG,AFNE01.JPG,AFNE01.JPG,AFNE01.JPG,AFNE01.JPG,AFNE01.JPG,1,4,14,3,,,,,,,,,,,,,,,,,,,,,,,AFNE08.jpg,AFSA15.jpg,AFSA07.jpg,AFNE05.jpg,AFSA07.jpg,FS,4,num_2,16,num_2,0.650113429409,,,2017_May_12_1104,60.0060240639,FEMA4ImagesEEG,001,200126,
AFNE01.JPG,AFNE01.JPG,AFNE01.JPG,AFNE01.JPG,AFNE01.JPG,AFNE01.JPG,1,5,15,4,,,,,,,,,,,,,,,,,,,,,,,AFNE07.jpg,AFNE11.jpg,AFSA05.jpg,AFSA01.jpg,AFSA05.jpg,FS,4,num_2,16,num_2,0.866828810889,,,2017_May_12_1104,60.0060240639,FEMA4ImagesEEG,001,200126,
AFNE01.JPG,AFNE01.JPG,AFNE01.JPG,AFNE01.JPG,AFNE01.JPG,AFNE01.JPG,1,6,16,1,,,,,,,,,,,,,,,,,,,,,,,AFNE10.jpg,AFNE09.jpg,AFSA07.jpg,AFSA12.jpg,AFNE09.jpg,FN,3,num_6,16,num_6,0.716806631535,,,2017_May_12_1104,60.0060240639,FEMA4ImagesEEG,001,200126,
AFNE01.JPG,AFNE01.JPG,AFNE01.JPG,AFNE01.JPG,AFNE01.JPG,AFNE01.JPG,1,7,17,6,,,,,,,,,,,,,,,,,,,,,,,AFNE01.jpg,AFSA18.jpg,AFSA16.jpg,AFNE06.jpg,AFSA18.jpg,FS,4,num_6,16,num_6,0.583576426841,,,2017_May_12_1104,60.0060240639,FEMA4ImagesEEG,001,200126,
AFNE01.JPG,AFNE01.JPG,AFNE01.JPG,AFNE01.JPG,AFNE01.JPG,AFNE01.JPG,1,8,18,9,,,,,,,,,,,,,,,,,,,,,,,AFNE09.jpg,AFSA01.jpg,AFSA10.jpg,AFNE01.jpg,AFNE09.jpg,FN,3,num_8,32,num_2,1.4169819802,,,2017_May_12_1104,60.0060240639,FEMA4ImagesEEG,001,200126,
AFNE01.JPG,AFNE01.JPG,AFNE01.JPG,AFNE01.JPG,AFNE01.JPG,AFNE01.JPG,1,9,19,0,,,,,,,,,,,,,,,,,,,,,,,AFSA11.jpg,AFNE17.jpg,AFSA14.jpg,AFNE03.jpg,AFNE03.jpg,FN,3,num_4,16,num_4,0.783444026019,,,2017_May_12_1104,60.0060240639,FEMA4ImagesEEG,001,200126,
AFNE01.JPG,AFNE01.JPG,AFNE01.JPG,AFNE01.JPG,AFNE01.JPG,AFNE01.JPG,2,0,20,8,,,,,,,,,,,,,,,,,,,,,,,AFNE04.jpg,AFNE11.jpg,AFSA09.jpg,AFSA03.jpg,AFNE04.jpg,FN,3,num_8,32,num_2,0.833445966244,,,2017_May_12_1104,60.0060240639,FEMA4ImagesEEG,001,200126,
AFNE01.JPG,AFNE01.JPG,AFNE01.JPG,AFNE01.JPG,AFNE01.JPG,AFNE01.JPG,2,1,21,0,,,,,,,,,,,,,,,,,,,,,,,AFSA03.jpg,AFSA09.jpg,AFNE11.jpg,AFNE16.jpg,AFSA09.jpg,FS,4,num_6,16,num_6,0.8500997019,,,2017_May_12_1104,60.0060240639,FEMA4ImagesEEG,001,200126,
AFNE01.JPG,AFNE01.JPG,AFNE01.JPG,AFNE01.JPG,AFNE01.JPG,AFNE01.JPG,2,2,22,6,,,,,,,,,,,,,,,,,,,,,,,AFNE17.jpg,AFSA08.jpg,AFNE13.jpg,AFSA20.jpg,AFSA20.jpg,FS,4,num_4,32,num_2,0.950101016555,,,2017_May_12_1104,60.0060240639,FEMA4ImagesEEG,001,200126,
AFNE01.JPG,AFNE01.JPG,AFNE01.JPG,AFNE01.JPG,AFNE01.JPG,AFNE01.JPG,2,3,23,5,,,,,,,,,,,,,,,,,,,,,,,AFSA13.jpg,AFNE19.jpg,AFNE05.jpg,AFSA10.jpg,AFNE05.jpg,FN,3,num_2,32,num_4,0.916681286879,,,2017_May_12_1104,60.0060240639,FEMA4ImagesEEG,001,200126,
AFNE01.JPG,AFNE01.JPG,AFNE01.JPG,AFNE01.JPG,AFNE01.JPG,AFNE01.JPG,2,4,24,9,,,,,,,,,,,,,,,,,,,,,,,AFNE18.jpg,AFNE09.jpg,AFSA02.jpg,AFSA07.jpg,AFNE18.jpg,FN,3,num_8,32,num_4,0.950098771602,,,2017_May_12_1104,60.0060240639,FEMA4ImagesEEG,001,200126,
AFNE01.JPG,AFNE01.JPG,AFNE01.JPG,AFNE01.JPG,AFNE01.JPG,AFNE01.JPG,2,5,25,4,,,,,,,,,,,,,,,,,,,,,,,AFNE15.jpg,AFNE13.jpg,AFSA06.jpg,AFSA20.jpg,AFSA06.jpg,FS,4,num_2,32,num_4,0.950133411214,,,2017_May_12_1104,60.0060240639,FEMA4ImagesEEG,001,200126,
AFNE01.JPG,AFNE01.JPG,AFNE01.JPG,AFNE01.JPG,AFNE01.JPG,AFNE01.JPG,2,6,26,2,,,,,,,,,,,,,,,,,,,,,,,AFSA15.jpg,AFNE11.jpg,AFSA18.jpg,AFNE08.jpg,AFNE08.jpg,FN,3,num_4,16,num_4,0.499839470256,,,2017_May_12_1104,60.0060240639,FEMA4ImagesEEG,001,200126,
AFNE01.JPG,AFNE01.JPG,AFNE01.JPG,AFNE01.JPG,AFNE01.JPG,AFNE01.JPG,2,7,27,7,,,,,,,,,,,,,,,,,,,,,,,AFNE03.jpg,AFNE20.jpg,AFSA06.jpg,AFSA05.jpg,AFNE03.jpg,FN,3,num_8,32,num_4,0.683427956887,,,2017_May_12_1104,60.0060240639,FEMA4ImagesEEG,001,200126,
AFNE01.JPG,AFNE01.JPG,AFNE01.JPG,AFNE01.JPG,AFNE01.JPG,AFNE01.JPG,2,8,28,3,,,,,,,,,,,,,,,,,,,,,,,AFSA05.jpg,AFNE04.jpg,AFSA01.jpg,AFNE17.jpg,AFNE17.jpg,FN,3,num_4,16,num_4,1.03349253768,,,2017_May_12_1104,60.0060240639,FEMA4ImagesEEG,001,200126,
AFNE01.JPG,AFNE01.JPG,AFNE01.JPG,AFNE01.JPG,AFNE01.JPG,AFNE01.JPG,2,9,29,1,,,,,,,,,,,,,,,,,,,,,,,AFNE10.jpg,AFNE06.jpg,AFSA12.jpg,AFSA08.jpg,AFSA12.jpg,FS,4,num_2,16,num_2,0.550123339985,,,2017_May_12_1104,60.0060240639,FEMA4ImagesEEG,001,200126,
AFNE01.JPG,AFNE01.JPG,AFNE01.JPG,AFNE01.JPG,AFNE01.JPG,AFNE01.JPG,3,0,30,9,,,,,,,,,,,,,,,,,,,,,,,AFSA13.jpg,AFNE03.jpg,AFSA09.jpg,AFNE17.jpg,AFNE03.jpg,FN,3,num_6,16,num_6,0.533494943287,,,2017_May_12_1104,60.0060240639,FEMA4ImagesEEG,001,200126,
AFNE01.JPG,AFNE01.JPG,AFNE01.JPG,AFNE01.JPG,AFNE01.JPG,AFNE01.JPG,3,1,31,1,,,,,,,,,,,,,,,,,,,,,,,AFSA05.jpg,AFNE02.jpg,AFSA16.jpg,AFNE14.jpg,AFSA16.jpg,FS,4,num_2,16,num_2,0.850132096093,,,2017_May_12_1104,60.0060240639,FEMA4ImagesEEG,001,200126,
AFNE01.JPG,AFNE01.JPG,AFNE01.JPG,AFNE01.JPG,AFNE01.JPG,AFNE01.JPG,3,2,32,4,,,,,,,,,,,,,,,,,,,,,,,AFSA12.jpg,AFNE01.jpg,AFSA02.jpg,AFNE10.jpg,AFNE10.jpg,FN,3,num_4,16,num_4,0.550120774191,,,2017_May_12_1104,60.0060240639,FEMA4ImagesEEG,001,200126,
AFNE01.JPG,AFNE01.JPG,AFNE01.JPG,AFNE01.JPG,AFNE01.JPG,AFNE01.JPG,3,3,33,2,,,,,,,,,,,,,,,,,,,,,,,AFSA08.jpg,AFNE15.jpg,AFSA06.jpg,AFNE13.jpg,AFNE15.jpg,FN,3,num_6,16,num_6,0.833501453977,,,2017_May_12_1104,60.0060240639,FEMA4ImagesEEG,001,200126,
AFNE01.JPG,AFNE01.JPG,AFNE01.JPG,AFNE01.JPG,AFNE01.JPG,AFNE01.JPG,3,4,34,6,,,,,,,,,,,,,,,,,,,,,,,AFSA01.jpg,AFSA05.jpg,AFNE14.jpg,AFNE17.jpg,AFSA01.jpg,FS,4,num_8,16,num_8,0.533463831525,,,2017_May_12_1104,60.0060240639,FEMA4ImagesEEG,001,200126,
AFNE01.JPG,AFNE01.JPG,AFNE01.JPG,AFNE01.JPG,AFNE01.JPG,AFNE01.JPG,3,5,35,3,,,,,,,,,,,,,,,,,,,,,,,AFNE10.jpg,AFSA10.jpg,AFSA03.jpg,AFNE09.jpg,AFSA10.jpg,FS,4,num_6,16,num_6,0.566858222708,,,2017_May_12_1104,60.0060240639,FEMA4ImagesEEG,001,200126,
AFNE01.JPG,AFNE01.JPG,AFNE01.JPG,AFNE01.JPG,AFNE01.JPG,AFNE01.JPG,3,6,36,0,,,,,,,,,,,,,,,,,,,,,,,AFSA09.jpg,AFSA10.jpg,AFNE19.jpg,AFNE12.jpg,AFNE12.jpg,FN,3,num_4,32,num_2,0.866764342412,,,2017_May_12_1104,60.0060240639,FEMA4ImagesEEG,001,200126,
AFNE01.JPG,AFNE01.JPG,AFNE01.JPG,AFNE01.JPG,AFNE01.JPG,AFNE01.JPG,3,7,37,5,,,,,,,,,,,,,,,,,,,,,,,AFSA15.jpg,AFNE17.jpg,AFSA03.jpg,AFNE20.jpg,AFSA15.jpg,FS,4,num_8,32,num_6,0.833427363075,,,2017_May_12_1104,60.0060240639,FEMA4ImagesEEG,001,200126,
AFNE01.JPG,AFNE01.JPG,AFNE01.JPG,AFNE01.JPG,AFNE01.JPG,AFNE01.JPG,3,8,38,7,,,,,,,,,,,,,,,,,,,,,,,AFNE04.jpg,AFSA07.jpg,AFSA05.jpg,AFNE12.jpg,AFNE12.jpg,FN,3,num_4,32,num_6,0.883559203241,,,2017_May_12_1104,60.0060240639,FEMA4ImagesEEG,001,200126,
AFNE01.JPG,AFNE01.JPG,AFNE01.JPG,AFNE01.JPG,AFNE01.JPG,AFNE01.JPG,3,9,39,8,,,,,,,,,,,,,,,,,,,,,,,AFSA20.jpg,AFNE01.jpg,AFNE19.jpg,AFSA06.jpg,AFSA06.jpg,FS,4,num_4,32,num_2,0.766815628391,,,2017_May_12_1104,60.0060240639,FEMA4ImagesEEG,001,200126,
AFNE01.JPG,AFNE01.JPG,AFNE01.JPG,AFNE01.JPG,AFNE01.JPG,AFNE01.JPG,4,0,40,9,,,,,,,,,,,,,,,,,,,,,,,AFNE18.jpg,AFSA15.jpg,AFNE16.jpg,AFSA03.jpg,AFNE16.jpg,FN,3,num_2,32,num_8,0.850082382094,,,2017_May_12_1104,60.0060240639,FEMA4ImagesEEG,001,200126,
AFNE01.JPG,AFNE01.JPG,AFNE01.JPG,AFNE01.JPG,AFNE01.JPG,AFNE01.JPG,4,1,41,6,,,,,,,,,,,,,,,,,,,,,,,AFSA07.jpg,AFSA15.jpg,AFNE11.jpg,AFNE19.jpg,AFNE19.jpg,FN,3,num_4,16,num_4,0.666793786455,,,2017_May_12_1104,60.0060240639,FEMA4ImagesEEG,001,200126,
AFNE01.JPG,AFNE01.JPG,AFNE01.JPG,AFNE01.JPG,AFNE01.JPG,AFNE01.JPG,4,2,42,4,,,,,,,,,,,,,,,,,,,,,,,AFSA02.jpg,AFSA04.jpg,AFNE01.jpg,AFNE17.jpg,AFSA04.jpg,FS,4,num_6,16,num_6,0.883379909676,,,2017_May_12_1104,60.0060240639,FEMA4ImagesEEG,001,200126,
AFNE01.JPG,AFNE01.JPG,AFNE01.JPG,AFNE01.JPG,AFNE01.JPG,AFNE01.JPG,4,3,43,0,,,,,,,,,,,,,,,,,,,,,,,AFSA15.jpg,AFNE05.jpg,AFSA20.jpg,AFNE15.jpg,AFNE15.jpg,FN,3,num_4,32,num_8,0.850122794975,,,2017_May_12_1104,60.0060240639,FEMA4ImagesEEG,001,200126,
AFNE01.JPG,AFNE01.JPG,AFNE01.JPG,AFNE01.JPG,AFNE01.JPG,AFNE01.JPG,4,4,44,1,,,,,,,,,,,,,,,,,,,,,,,AFSA05.jpg,AFNE08.jpg,AFNE06.jpg,AFSA01.jpg,AFNE08.jpg,FN,3,num_6,16,num_6,0.683514877222,,,2017_May_12_1104,60.0060240639,FEMA4ImagesEEG,001,200126,
AFNE01.JPG,AFNE01.JPG,AFNE01.JPG,AFNE01.JPG,AFNE01.JPG,AFNE01.JPG,4,5,45,8,,,,,,,,,,,,,,,,,,,,,,,AFNE07.jpg,AFSA06.jpg,AFSA17.jpg,AFNE19.jpg,AFNE07.jpg,FN,3,num_8,16,num_8,0.850068910513,,,2017_May_12_1104,60.0060240639,FEMA4ImagesEEG,001,200126,
AFNE01.JPG,AFNE01.JPG,AFNE01.JPG,AFNE01.JPG,AFNE01.JPG,AFNE01.JPG,4,6,46,5,,,,,,,,,,,,,,,,,,,,,,,AFNE03.jpg,AFSA13.jpg,AFNE05.jpg,AFSA08.jpg,AFSA08.jpg,FS,4,num_4,16,num_4,0.633461938705,,,2017_May_12_1104,60.0060240639,FEMA4ImagesEEG,001,200126,
AFNE01.JPG,AFNE01.JPG,AFNE01.JPG,AFNE01.JPG,AFNE01.JPG,AFNE01.JPG,4,7,47,7,,,,,,,,,,,,,,,,,,,,,,,AFSA02.jpg,AFSA15.jpg,AFNE13.jpg,AFNE04.jpg,AFSA02.jpg,FS,4,num_8,16,num_8,0.76676880056,,,2017_May_12_1104,60.0060240639,FEMA4ImagesEEG,001,200126,
AFNE01.JPG,AFNE01.JPG,AFNE01.JPG,AFNE01.JPG,AFNE01.JPG,AFNE01.JPG,4,8,48,2,,,,,,,,,,,,,,,,,,,,,,,AFNE02.jpg,AFSA15.jpg,AFSA17.jpg,AFNE20.jpg,AFSA17.jpg,FS,4,num_2,16,num_2,0.750127573963,,,2017_May_12_1104,60.0060240639,FEMA4ImagesEEG,001,200126,
AFNE01.JPG,AFNE01.JPG,AFNE01.JPG,AFNE01.JPG,AFNE01.JPG,AFNE01.JPG,4,9,49,3,,,,,,,,,,,,,,,,,,,,,,,AFNE07.jpg,AFSA03.jpg,AFSA15.jpg,AFNE09.jpg,AFNE07.jpg,FN,3,num_8,32,num_4,0.783413875848,,,2017_May_12_1104,60.0060240639,FEMA4ImagesEEG,001,200126,
AFNE01.JPG,AFNE01.JPG,AFNE01.JPG,AFNE01.JPG,AFNE01.JPG,AFNE01.JPG,5,0,50,8,,,,,,,,,,,,,,,,,,,,,,,AFNE11.jpg,AFSA10.jpg,AFSA11.jpg,AFNE01.jpg,AFNE01.jpg,FN,3,num_4,16,num_4,0.850124719553,,,2017_May_12_1104,60.0060240639,FEMA4ImagesEEG,001,200126,
AFNE01.JPG,AFNE01.JPG,AFNE01.JPG,AFNE01.JPG,AFNE01.JPG,AFNE01.JPG,5,1,51,1,,,,,,,,,,,,,,,,,,,,,,,AFSA14.jpg,AFNE15.jpg,AFSA06.jpg,AFNE04.jpg,AFNE15.jpg,FN,3,num_6,16,num_6,0.750188834965,,,2017_May_12_1104,60.0060240639,FEMA4ImagesEEG,001,200126,
AFNE01.JPG,AFNE01.JPG,AFNE01.JPG,AFNE01.JPG,AFNE01.JPG,AFNE01.JPG,5,2,52,4,,,,,,,,,,,,,,,,,,,,,,,AFNE02.jpg,AFSA20.jpg,AFNE19.jpg,AFSA07.jpg,AFNE02.jpg,FN,3,num_8,16,num_8,0.550228542648,,,2017_May_12_1104,60.0060240639,FEMA4ImagesEEG,001,200126,
AFNE01.JPG,AFNE01.JPG,AFNE01.JPG,AFNE01.JPG,AFNE01.JPG,AFNE01.JPG,5,3,53,0,,,,,,,,,,,,,,,,,,,,,,,AFSA15.jpg,AFNE05.jpg,AFNE14.jpg,AFSA05.jpg,AFSA15.jpg,FS,4,num_8,32,num_6,0.71676301118,,,2017_May_12_1104,60.0060240639,FEMA4ImagesEEG,001,200126,
AFNE01.JPG,AFNE01.JPG,AFNE01.JPG,AFNE01.JPG,AFNE01.JPG,AFNE01.JPG,5,4,54,7,,,,,,,,,,,,,,,,,,,,,,,AFSA14.jpg,AFNE10.jpg,AFSA11.jpg,AFNE05.jpg,AFSA11.jpg,FS,4,num_2,16,num_2,0.500170151703,,,2017_May_12_1104,60.0060240639,FEMA4ImagesEEG,001,200126,
AFNE01.JPG,AFNE01.JPG,AFNE01.JPG,AFNE01.JPG,AFNE01.JPG,AFNE01.JPG,5,5,55,3,,,,,,,,,,,,,,,,,,,,,,,AFSA06.jpg,AFNE19.jpg,AFSA16.jpg,AFNE20.jpg,AFNE19.jpg,FN,3,num_6,16,num_6,0.8167842119,,,2017_May_12_1104,60.0060240639,FEMA4ImagesEEG,001,200126,
AFNE01.JPG,AFNE01.JPG,AFNE01.JPG,AFNE01.JPG,AFNE01.JPG,AFNE01.JPG,5,6,56,2,,,,,,,,,,,,,,,,,,,,,,,AFSA03.jpg,AFNE01.jpg,AFNE03.jpg,AFSA08.jpg,AFSA03.jpg,FS,4,num_8,16,num_8,1.38342497405,,,2017_May_12_1104,60.0060240639,FEMA4ImagesEEG,001,200126,
AFNE01.JPG,AFNE01.JPG,AFNE01.JPG,AFNE01.JPG,AFNE01.JPG,AFNE01.JPG,5,7,57,5,,,,,,,,,,,,,,,,,,,,,,,AFNE18.jpg,AFSA11.jpg,AFSA14.jpg,AFNE13.jpg,AFSA14.jpg,FS,4,num_2,32,num_4,1.20010013459,,,2017_May_12_1104,60.0060240639,FEMA4ImagesEEG,001,200126,
AFNE01.JPG,AFNE01.JPG,AFNE01.JPG,AFNE01.JPG,AFNE01.JPG,AFNE01.JPG,5,8,58,9,,,,,,,,,,,,,,,,,,,,,,,AFNE16.jpg,AFSA05.jpg,AFNE15.jpg,AFSA13.jpg,AFNE15.jpg,FN,3,num_2,16,num_2,0.783480269369,,,2017_May_12_1104,60.0060240639,FEMA4ImagesEEG,001,200126,
AFNE01.JPG,AFNE01.JPG,AFNE01.JPG,AFNE01.JPG,AFNE01.JPG,AFNE01.JPG,5,9,59,6,,,,,,,,,,,,,,,,,,,,,,,AFNE13.jpg,AFSA10.jpg,AFSA01.jpg,AFNE11.jpg,AFSA10.jpg,FS,4,num_6,32,num_2,0.783444025554,,,2017_May_12_1104,60.0060240639,FEMA4ImagesEEG,001,200126,
,,,,,,,,,,,,,,,,,,,,,,,,,,,,,,,,,,,,,,,,,,,space,11.3157166322,2017_May_12_1104,60.0060240639,FEMA4ImagesEEG,001,200126,
AFNE01.JPG,AFNE01.JPG,AFNE01.JPG,AFNE01.JPG,AFNE01.JPG,AFNE01.JPG,,,,,0,0,0,9,,,,,,,,,,,,,,,,,,,AMNE09.jpg,AMNE10.jpg,AMSA12.jpg,AMSA08.jpg,AMNE10.jpg,MN,1,num_6,16,num_6,0.750140082557,,,2017_May_12_1104,60.0060240639,FEMA4ImagesEEG,001,200126,
AFNE01.JPG,AFNE01.JPG,AFNE01.JPG,AFNE01.JPG,AFNE01.JPG,AFNE01.JPG,,,,,0,1,1,6,,,,,,,,,,,,,,,,,,,AMSA13.jpg,AMNE06.jpg,AMNE16.jpg,AMSA02.jpg,AMSA02.jpg,MS,2,num_4,16,num_4,0.666703658644,,,2017_May_12_1104,60.0060240639,FEMA4ImagesEEG,001,200126,
AFNE01.JPG,AFNE01.JPG,AFNE01.JPG,AFNE01.JPG,AFNE01.JPG,AFNE01.JPG,,,,,0,2,2,0,,,,,,,,,,,,,,,,,,,AMSA07.jpg,AMNE14.jpg,AMNE08.jpg,AMSA02.jpg,AMSA07.jpg,MS,2,num_8,16,num_8,0.833555658814,,,2017_May_12_1104,60.0060240639,FEMA4ImagesEEG,001,200126,
AFNE01.JPG,AFNE01.JPG,AFNE01.JPG,AFNE01.JPG,AFNE01.JPG,AFNE01.JPG,,,,,0,3,3,2,,,,,,,,,,,,,,,,,,,AMNE04.jpg,AMSA14.jpg,AMSA01.jpg,AMNE02.jpg,AMSA01.jpg,MS,2,num_2,32,num_4,0.816751817707,,,2017_May_12_1104,60.0060240639,FEMA4ImagesEEG,001,200126,
AFNE01.JPG,AFNE01.JPG,AFNE01.JPG,AFNE01.JPG,AFNE01.JPG,AFNE01.JPG,,,,,0,4,4,3,,,,,,,,,,,,,,,,,,,AMSA14.jpg,AMSA08.jpg,AMNE20.jpg,AMNE12.jpg,AMSA08.jpg,MS,2,num_6,32,num_4,0.616775808856,,,2017_May_12_1104,60.0060240639,FEMA4ImagesEEG,001,200126,
AFNE01.JPG,AFNE01.JPG,AFNE01.JPG,AFNE01.JPG,AFNE01.JPG,AFNE01.JPG,,,,,0,5,5,1,,,,,,,,,,,,,,,,,,,AMSA01.jpg,AMNE18.jpg,AMSA08.jpg,AMNE11.jpg,AMSA08.jpg,MS,2,num_2,32,num_8,0.716802782845,,,2017_May_12_1104,60.0060240639,FEMA4ImagesEEG,001,200126,
AFNE01.JPG,AFNE01.JPG,AFNE01.JPG,AFNE01.JPG,AFNE01.JPG,AFNE01.JPG,,,,,0,6,6,4,,,,,,,,,,,,,,,,,,,AMSA19.jpg,AMSA18.jpg,AMNE12.jpg,AMNE13.jpg,AMSA18.jpg,MS,2,num_6,16,num_6,0.566791509278,,,2017_May_12_1104,60.0060240639,FEMA4ImagesEEG,001,200126,
AFNE01.JPG,AFNE01.JPG,AFNE01.JPG,AFNE01.JPG,AFNE01.JPG,AFNE01.JPG,,,,,0,7,7,7,,,,,,,,,,,,,,,,,,,AMNE17.jpg,AMSA20.jpg,AMSA06.jpg,AMNE12.jpg,AMSA06.jpg,MS,2,num_2,16,num_2,0.483346104156,,,2017_May_12_1104,60.0060240639,FEMA4ImagesEEG,001,200126,
AFNE01.JPG,AFNE01.JPG,AFNE01.JPG,AFNE01.JPG,AFNE01.JPG,AFNE01.JPG,,,,,0,8,8,5,,,,,,,,,,,,,,,,,,,AMSA04.jpg,AMNE01.jpg,AMSA10.jpg,AMNE02.jpg,AMNE01.jpg,MN,1,num_6,16,num_6,0.400186156854,,,2017_May_12_1104,60.0060240639,FEMA4ImagesEEG,001,200126,
AFNE01.JPG,AFNE01.JPG,AFNE01.JPG,AFNE01.JPG,AFNE01.JPG,AFNE01.JPG,,,,,0,9,9,8,,,,,,,,,,,,,,,,,,,AMSA18.jpg,AMNE18.jpg,AMNE13.jpg,AMSA16.jpg,AMNE18.jpg,MN,1,num_6,16,num_6,0.833424476907,,,2017_May_12_1104,60.0060240639,FEMA4ImagesEEG,001,200126,
AFNE01.JPG,AFNE01.JPG,AFNE01.JPG,AFNE01.JPG,AFNE01.JPG,AFNE01.JPG,,,,,1,0,10,3,,,,,,,,,,,,,,,,,,,AMSA11.jpg,AMSA02.jpg,AMNE17.jpg,AMNE18.jpg,AMNE18.jpg,MN,1,num_4,16,num_4,0.666559967212,,,2017_May_12_1104,60.0060240639,FEMA4ImagesEEG,001,200126,
AFNE01.JPG,AFNE01.JPG,AFNE01.JPG,AFNE01.JPG,AFNE01.JPG,AFNE01.JPG,,,,,1,1,11,9,,,,,,,,,,,,,,,,,,,AMSA05.jpg,AMNE11.jpg,AMNE19.jpg,AMSA12.jpg,AMNE11.jpg,MN,1,num_6,32,num_2,1.85007275967,,,2017_May_12_1104,60.0060240639,FEMA4ImagesEEG,001,200126,
AFNE01.JPG,AFNE01.JPG,AFNE01.JPG,AFNE01.JPG,AFNE01.JPG,AFNE01.JPG,,,,,1,2,12,2,,,,,,,,,,,,,,,,,,,AMSA03.jpg,AMNE15.jpg,AMSA20.jpg,AMNE06.jpg,AMNE15.jpg,MN,1,num_6,16,num_6,0.633333001751,,,2017_May_12_1104,60.0060240639,FEMA4ImagesEEG,001,200126,
AFNE01.JPG,AFNE01.JPG,AFNE01.JPG,AFNE01.JPG,AFNE01.JPG,AFNE01.JPG,,,,,1,3,13,7,,,,,,,,,,,,,,,,,,,AMNE19.jpg,AMSA01.jpg,AMNE11.jpg,AMSA09.jpg,AMNE19.jpg,MN,1,num_8,16,num_8,0.50010760827,,,2017_May_12_1104,60.0060240639,FEMA4ImagesEEG,001,200126,
AFNE01.JPG,AFNE01.JPG,AFNE01.JPG,AFNE01.JPG,AFNE01.JPG,AFNE01.JPG,,,,,1,4,14,1,,,,,,,,,,,,,,,,,,,AMSA12.jpg,AMSA08.jpg,AMNE14.jpg,AMNE16.jpg,AMNE16.jpg,MN,1,num_4,16,num_4,0.666816558689,,,2017_May_12_1104,60.0060240639,FEMA4ImagesEEG,001,200126,
AFNE01.JPG,AFNE01.JPG,AFNE01.JPG,AFNE01.JPG,AFNE01.JPG,AFNE01.JPG,,,,,1,5,15,0,,,,,,,,,,,,,,,,,,,AMNE04.jpg,AMSA20.jpg,AMNE10.jpg,AMSA10.jpg,AMNE10.jpg,MN,1,num_2,32,num_4,0.683418976143,,,2017_May_12_1104,60.0060240639,FEMA4ImagesEEG,001,200126,
AFNE01.JPG,AFNE01.JPG,AFNE01.JPG,AFNE01.JPG,AFNE01.JPG,AFNE01.JPG,,,,,1,6,16,5,,,,,,,,,,,,,,,,,,,AMSA10.jpg,AMSA20.jpg,AMNE02.jpg,AMNE14.jpg,AMSA10.jpg,MS,2,num_8,32,num_6,0.533519640099,,,2017_May_12_1104,60.0060240639,FEMA4ImagesEEG,001,200126,
AFNE01.JPG,AFNE01.JPG,AFNE01.JPG,AFNE01.JPG,AFNE01.JPG,AFNE01.JPG,,,,,1,7,17,6,,,,,,,,,,,,,,,,,,,AMNE02.jpg,AMNE11.jpg,AMSA15.jpg,AMSA07.jpg,AMSA15.jpg,MS,2,num_2,16,num_2,0.616793769877,,,2017_May_12_1104,60.0060240639,FEMA4ImagesEEG,001,200126,
AFNE01.JPG,AFNE01.JPG,AFNE01.JPG,AFNE01.JPG,AFNE01.JPG,AFNE01.JPG,,,,,1,8,18,4,,,,,,,,,,,,,,,,,,,AMSA18.jpg,AMNE07.jpg,AMSA01.jpg,AMNE13.jpg,AMNE13.jpg,MN,1,num_4,16,num_4,0.44595017191,,,2017_May_12_1104,60.0060240639,FEMA4ImagesEEG,001,200126,
AFNE01.JPG,AFNE01.JPG,AFNE01.JPG,AFNE01.JPG,AFNE01.JPG,AFNE01.JPG,,,,,1,9,19,8,,,,,,,,,,,,,,,,,,,AMNE03.jpg,AMNE17.jpg,AMSA19.jpg,AMSA16.jpg,AMNE03.jpg,MN,1,num_8,32,num_4,0.883451755624,,,2017_May_12_1104,60.0060240639,FEMA4ImagesEEG,001,200126,
AFNE01.JPG,AFNE01.JPG,AFNE01.JPG,AFNE01.JPG,AFNE01.JPG,AFNE01.JPG,,,,,2,0,20,1,,,,,,,,,,,,,,,,,,,AMNE14.jpg,AMNE19.jpg,AMSA06.jpg,AMSA09.jpg,AMSA06.jpg,MS,2,num_2,16,num_2,1.66675722227,,,2017_May_12_1104,60.0060240639,FEMA4ImagesEEG,001,200126,
AFNE01.JPG,AFNE01.JPG,AFNE01.JPG,AFNE01.JPG,AFNE01.JPG,AFNE01.JPG,,,,,2,1,21,5,,,,,,,,,,,,,,,,,,,AMNE11.jpg,AMNE20.jpg,AMSA09.jpg,AMSA06.jpg,AMSA06.jpg,MS,2,num_4,16,num_4,0.650126900524,,,2017_May_12_1104,60.0060240639,FEMA4ImagesEEG,001,200126,
AFNE01.JPG,AFNE01.JPG,AFNE01.JPG,AFNE01.JPG,AFNE01.JPG,AFNE01.JPG,,,,,2,2,22,0,,,,,,,,,,,,,,,,,,,AMNE15.jpg,AMSA08.jpg,AMSA20.jpg,AMNE09.jpg,AMNE15.jpg,MN,1,num_8,32,num_6,0.716862440109,,,2017_May_12_1104,60.0060240639,FEMA4ImagesEEG,001,200126,
AFNE01.JPG,AFNE01.JPG,AFNE01.JPG,AFNE01.JPG,AFNE01.JPG,AFNE01.JPG,,,,,2,3,23,6,,,,,,,,,,,,,,,,,,,AMNE08.jpg,AMSA03.jpg,AMNE02.jpg,AMSA02.jpg,AMNE08.jpg,MN,1,num_8,32,num_2,0.866602048278,,,2017_May_12_1104,60.0060240639,FEMA4ImagesEEG,001,200126,
AFNE01.JPG,AFNE01.JPG,AFNE01.JPG,AFNE01.JPG,AFNE01.JPG,AFNE01.JPG,,,,,2,4,24,7,,,,,,,,,,,,,,,,,,,AMNE15.jpg,AMNE10.jpg,AMSA05.jpg,AMSA09.jpg,AMSA05.jpg,MS,2,num_2,16,num_2,0.700292097405,,,2017_May_12_1104,60.0060240639,FEMA4ImagesEEG,001,200126,
AFNE01.JPG,AFNE01.JPG,AFNE01.JPG,AFNE01.JPG,AFNE01.JPG,AFNE01.JPG,,,,,2,5,25,2,,,,,,,,,,,,,,,,,,,AMSA11.jpg,AMSA04.jpg,AMNE12.jpg,AMNE20.jpg,AMNE12.jpg,MN,1,num_2,32,num_4,0.76701769419,,,2017_May_12_1104,60.0060240639,FEMA4ImagesEEG,001,200126,
AFNE01.JPG,AFNE01.JPG,AFNE01.JPG,AFNE01.JPG,AFNE01.JPG,AFNE01.JPG,,,,,2,6,26,3,,,,,,,,,,,,,,,,,,,AMNE09.jpg,AMSA18.jpg,AMSA17.jpg,AMNE06.jpg,AMNE09.jpg,MN,1,num_8,32,num_4,0.650130107533,,,2017_May_12_1104,60.0060240639,FEMA4ImagesEEG,001,200126,
AFNE01.JPG,AFNE01.JPG,AFNE01.JPG,AFNE01.JPG,AFNE01.JPG,AFNE01.JPG,,,,,2,7,27,4,,,,,,,,,,,,,,,,,,,AMSA16.jpg,AMSA07.jpg,AMNE07.jpg,AMNE03.jpg,AMNE03.jpg,MN,1,num_4,16,num_4,0.650132994633,,,2017_May_12_1104,60.0060240639,FEMA4ImagesEEG,001,200126,
AFNE01.JPG,AFNE01.JPG,AFNE01.JPG,AFNE01.JPG,AFNE01.JPG,AFNE01.JPG,,,,,2,8,28,9,,,,,,,,,,,,,,,,,,,AMNE19.jpg,AMNE10.jpg,AMSA20.jpg,AMSA12.jpg,AMNE10.jpg,MN,1,num_6,16,num_6,0.90011511324,,,2017_May_12_1104,60.0060240639,FEMA4ImagesEEG,001,200126,
AFNE01.JPG,AFNE01.JPG,AFNE01.JPG,AFNE01.JPG,AFNE01.JPG,AFNE01.JPG,,,,,2,9,29,8,,,,,,,,,,,,,,,,,,,AMSA18.jpg,AMNE13.jpg,AMSA09.jpg,AMNE15.jpg,AMNE13.jpg,MN,1,num_6,32,num_2,0.70014616102,,,2017_May_12_1104,60.0060240639,FEMA4ImagesEEG,001,200126,
AFNE01.JPG,AFNE01.JPG,AFNE01.JPG,AFNE01.JPG,AFNE01.JPG,AFNE01.JPG,,,,,3,0,30,3,,,,,,,,,,,,,,,,,,,AMNE03.jpg,AMSA06.jpg,AMSA20.jpg,AMNE16.jpg,AMSA20.jpg,MS,2,num_2,16,num_2,1.0000740909,,,2017_May_12_1104,60.0060240639,FEMA4ImagesEEG,001,200126,
AFNE01.JPG,AFNE01.JPG,AFNE01.JPG,AFNE01.JPG,AFNE01.JPG,AFNE01.JPG,,,,,3,1,31,1,,,,,,,,,,,,,,,,,,,AMNE07.jpg,AMSA08.jpg,AMSA02.jpg,AMNE03.jpg,AMNE03.jpg,MN,1,num_4,16,num_4,0.833486379124,,,2017_May_12_1104,60.0060240639,FEMA4ImagesEEG,001,200126,
AFNE01.JPG,AFNE01.JPG,AFNE01.JPG,AFNE01.JPG,AFNE01.JPG,AFNE01.JPG,,,,,3,2,32,2,,,,,,,,,,,,,,,,,,,AMSA15.jpg,AMNE19.jpg,AMNE18.jpg,AMSA08.jpg,AMSA08.jpg,MS,2,num_4,16,num_4,0.783495022915,,,2017_May_12_1104,60.0060240639,FEMA4ImagesEEG,001,200126,
AFNE01.JPG,AFNE01.JPG,AFNE01.JPG,AFNE01.JPG,AFNE01.JPG,AFNE01.JPG,,,,,3,3,33,5,,,,,,,,,,,,,,,,,,,AMNE04.jpg,AMSA01.jpg,AMSA13.jpg,AMNE03.jpg,AMNE03.jpg,MN,1,num_4,32,num_2,0.616878445726,,,2017_May_12_1104,60.0060240639,FEMA4ImagesEEG,001,200126,
AFNE01.JPG,AFNE01.JPG,AFNE01.JPG,AFNE01.JPG,AFNE01.JPG,AFNE01.JPG,,,,,3,4,34,9,,,,,,,,,,,,,,,,,,,AMSA10.jpg,AMNE10.jpg,AMNE03.jpg,AMSA09.jpg,AMNE03.jpg,MN,1,num_2,32,num_8,0.633545331191,,,2017_May_12_1104,60.0060240639,FEMA4ImagesEEG,001,200126,
AFNE01.JPG,AFNE01.JPG,AFNE01.JPG,AFNE01.JPG,AFNE01.JPG,AFNE01.JPG,,,,,3,5,35,6,,,,,,,,,,,,,,,,,,,AMSA17.jpg,AMSA12.jpg,AMNE04.jpg,AMNE20.jpg,AMSA17.jpg,MS,2,num_8,32,num_4,0.616793770343,,,2017_May_12_1104,60.0060240639,FEMA4ImagesEEG,001,200126,
AFNE01.JPG,AFNE01.JPG,AFNE01.JPG,AFNE01.JPG,AFNE01.JPG,AFNE01.JPG,,,,,3,6,36,0,,,,,,,,,,,,,,,,,,,AMSA16.jpg,AMNE13.jpg,AMNE07.jpg,AMSA17.jpg,AMSA16.jpg,MS,2,num_8,16,num_8,0.650460469071,,,2017_May_12_1104,60.0060240639,FEMA4ImagesEEG,001,200126,
AFNE01.JPG,AFNE01.JPG,AFNE01.JPG,AFNE01.JPG,AFNE01.JPG,AFNE01.JPG,,,,,3,7,37,7,,,,,,,,,,,,,,,,,,,AMNE08.jpg,AMSA18.jpg,AMSA08.jpg,AMNE14.jpg,AMSA08.jpg,MS,2,num_2,32,num_6,0.616794411559,,,2017_May_12_1104,60.0060240639,FEMA4ImagesEEG,001,200126,
AFNE01.JPG,AFNE01.JPG,AFNE01.JPG,AFNE01.JPG,AFNE01.JPG,AFNE01.JPG,,,,,3,8,38,4,,,,,,,,,,,,,,,,,,,AMNE13.jpg,AMNE05.jpg,AMSA20.jpg,AMSA16.jpg,AMNE05.jpg,MN,1,num_6,16,num_6,0.650253592525,,,2017_May_12_1104,60.0060240639,FEMA4ImagesEEG,001,200126,
AFNE01.JPG,AFNE01.JPG,AFNE01.JPG,AFNE01.JPG,AFNE01.JPG,AFNE01.JPG,,,,,3,9,39,8,,,,,,,,,,,,,,,,,,,AMSA03.jpg,AMSA17.jpg,AMNE09.jpg,AMNE16.jpg,AMNE09.jpg,MN,1,num_2,32,num_8,0.766776819248,,,2017_May_12_1104,60.0060240639,FEMA4ImagesEEG,001,200126,
AFNE01.JPG,AFNE01.JPG,AFNE01.JPG,AFNE01.JPG,AFNE01.JPG,AFNE01.JPG,,,,,4,0,40,5,,,,,,,,,,,,,,,,,,,AMSA11.jpg,AMNE11.jpg,AMSA16.jpg,AMNE07.jpg,AMNE11.jpg,MN,1,num_6,16,num_6,0.650132352952,,,2017_May_12_1104,60.0060240639,FEMA4ImagesEEG,001,200126,
AFNE01.JPG,AFNE01.JPG,AFNE01.JPG,AFNE01.JPG,AFNE01.JPG,AFNE01.JPG,,,,,4,1,41,9,,,,,,,,,,,,,,,,,,,AMSA07.jpg,AMNE06.jpg,AMNE09.jpg,AMSA15.jpg,AMSA15.jpg,MS,2,num_4,16,num_4,0.483492040075,,,2017_May_12_1104,60.0060240639,FEMA4ImagesEEG,001,200126,
AFNE01.JPG,AFNE01.JPG,AFNE01.JPG,AFNE01.JPG,AFNE01.JPG,AFNE01.JPG,,,,,4,2,42,7,,,,,,,,,,,,,,,,,,,AMNE09.jpg,AMNE20.jpg,AMSA08.jpg,AMSA14.jpg,AMNE09.jpg,MN,1,num_8,16,num_8,0.750178571325,,,2017_May_12_1104,60.0060240639,FEMA4ImagesEEG,001,200126,
AFNE01.JPG,AFNE01.JPG,AFNE01.JPG,AFNE01.JPG,AFNE01.JPG,AFNE01.JPG,,,,,4,3,43,2,,,,,,,,,,,,,,,,,,,AMSA11.jpg,AMNE12.jpg,AMNE02.jpg,AMSA16.jpg,AMSA16.jpg,MS,2,num_4,16,num_4,0.516780587845,,,2017_May_12_1104,60.0060240639,FEMA4ImagesEEG,001,200126,
AFNE01.JPG,AFNE01.JPG,AFNE01.JPG,AFNE01.JPG,AFNE01.JPG,AFNE01.JPG,,,,,4,4,44,1,,,,,,,,,,,,,,,,,,,AMNE11.jpg,AMSA10.jpg,AMNE19.jpg,AMSA14.jpg,AMSA10.jpg,MS,2,num_6,16,num_6,0.700127878692,,,2017_May_12_1104,60.0060240639,FEMA4ImagesEEG,001,200126,
AFNE01.JPG,AFNE01.JPG,AFNE01.JPG,AFNE01.JPG,AFNE01.JPG,AFNE01.JPG,,,,,4,5,45,8,,,,,,,,,,,,,,,,,,,AMNE17.jpg,AMSA13.jpg,AMNE03.jpg,AMSA20.jpg,AMSA13.jpg,MS,2,num_6,32,num_8,1.18309230311,,,2017_May_12_1104,60.0060240639,FEMA4ImagesEEG,001,200126,
AFNE01.JPG,AFNE01.JPG,AFNE01.JPG,AFNE01.JPG,AFNE01.JPG,AFNE01.JPG,,,,,4,6,46,0,,,,,,,,,,,,,,,,,,,AMSA11.jpg,AMNE17.jpg,AMNE13.jpg,AMSA04.jpg,AMNE13.jpg,MN,1,num_2,32,num_6,0.616863370873,,,2017_May_12_1104,60.0060240639,FEMA4ImagesEEG,001,200126,
AFNE01.JPG,AFNE01.JPG,AFNE01.JPG,AFNE01.JPG,AFNE01.JPG,AFNE01.JPG,,,,,4,7,47,4,,,,,,,,,,,,,,,,,,,AMSA04.jpg,AMNE16.jpg,AMNE07.jpg,AMSA09.jpg,AMSA04.jpg,MS,2,num_8,16,num_8,0.78351747524,,,2017_May_12_1104,60.0060240639,FEMA4ImagesEEG,001,200126,
AFNE01.JPG,AFNE01.JPG,AFNE01.JPG,AFNE01.JPG,AFNE01.JPG,AFNE01.JPG,,,,,4,8,48,6,,,,,,,,,,,,,,,,,,,AMSA20.jpg,AMNE03.jpg,AMNE08.jpg,AMSA18.jpg,AMNE08.jpg,MN,1,num_2,16,num_2,0.866756645031,,,2017_May_12_1104,60.0060240639,FEMA4ImagesEEG,001,200126,
AFNE01.JPG,AFNE01.JPG,AFNE01.JPG,AFNE01.JPG,AFNE01.JPG,AFNE01.JPG,,,,,4,9,49,3,,,,,,,,,,,,,,,,,,,AMNE19.jpg,AMSA05.jpg,AMNE05.jpg,AMSA02.jpg,AMNE19.jpg,MN,1,num_8,16,num_8,0.866760814562,,,2017_May_12_1104,60.0060240639,FEMA4ImagesEEG,001,200126,
AFNE01.JPG,AFNE01.JPG,AFNE01.JPG,AFNE01.JPG,AFNE01.JPG,AFNE01.JPG,,,,,5,0,50,0,,,,,,,,,,,,,,,,,,,AMSA09.jpg,AMSA12.jpg,AMNE11.jpg,AMNE07.jpg,AMSA09.jpg,MS,2,num_8,32,num_6,0.649992831517,,,2017_May_12_1104,60.0060240639,FEMA4ImagesEEG,001,200126,
AFNE01.JPG,AFNE01.JPG,AFNE01.JPG,AFNE01.JPG,AFNE01.JPG,AFNE01.JPG,,,,,5,1,51,2,,,,,,,,,,,,,,,,,,,AMNE19.jpg,AMNE12.jpg,AMSA12.jpg,AMSA09.jpg,AMSA09.jpg,MS,2,num_4,16,num_4,1.13344638329,,,2017_May_12_1104,60.0060240639,FEMA4ImagesEEG,001,200126,
AFNE01.JPG,AFNE01.JPG,AFNE01.JPG,AFNE01.JPG,AFNE01.JPG,AFNE01.JPG,,,,,5,2,52,9,,,,,,,,,,,,,,,,,,,AMSA18.jpg,AMNE09.jpg,AMSA19.jpg,AMNE14.jpg,AMNE09.jpg,MN,1,num_6,16,num_6,0.700214799028,,,2017_May_12_1104,60.0060240639,FEMA4ImagesEEG,001,200126,
AFNE01.JPG,AFNE01.JPG,AFNE01.JPG,AFNE01.JPG,AFNE01.JPG,AFNE01.JPG,,,,,5,3,53,5,,,,,,,,,,,,,,,,,,,AMSA10.jpg,AMNE20.jpg,AMSA20.jpg,AMNE04.jpg,AMSA20.jpg,MS,2,num_2,32,num_6,0.683475746773,,,2017_May_12_1104,60.0060240639,FEMA4ImagesEEG,001,200126,
AFNE01.JPG,AFNE01.JPG,AFNE01.JPG,AFNE01.JPG,AFNE01.JPG,AFNE01.JPG,,,,,5,4,54,3,,,,,,,,,,,,,,,,,,,AMSA04.jpg,AMNE02.jpg,AMNE05.jpg,AMSA11.jpg,AMNE05.jpg,MN,1,num_2,32,num_8,0.916756981518,,,2017_May_12_1104,60.0060240639,FEMA4ImagesEEG,001,200126,
AFNE01.JPG,AFNE01.JPG,AFNE01.JPG,AFNE01.JPG,AFNE01.JPG,AFNE01.JPG,,,,,5,5,55,8,,,,,,,,,,,,,,,,,,,AMSA04.jpg,AMNE02.jpg,AMSA06.jpg,AMNE11.jpg,AMNE02.jpg,MN,1,num_6,16,num_6,0.733487951104,,,2017_May_12_1104,60.0060240639,FEMA4ImagesEEG,001,200126,
AFNE01.JPG,AFNE01.JPG,AFNE01.JPG,AFNE01.JPG,AFNE01.JPG,AFNE01.JPG,,,,,5,6,56,1,,,,,,,,,,,,,,,,,,,AMNE02.jpg,AMNE05.jpg,AMSA02.jpg,AMSA18.jpg,AMSA18.jpg,MS,2,num_4,16,num_4,0.73347255541,,,2017_May_12_1104,60.0060240639,FEMA4ImagesEEG,001,200126,
AFNE01.JPG,AFNE01.JPG,AFNE01.JPG,AFNE01.JPG,AFNE01.JPG,AFNE01.JPG,,,,,5,7,57,7,,,,,,,,,,,,,,,,,,,AMNE12.jpg,AMSA10.jpg,AMNE01.jpg,AMSA01.jpg,AMNE12.jpg,MN,1,num_8,32,num_6,0.700164442882,,,2017_May_12_1104,60.0060240639,FEMA4ImagesEEG,001,200126,
AFNE01.JPG,AFNE01.JPG,AFNE01.JPG,AFNE01.JPG,AFNE01.JPG,AFNE01.JPG,,,,,5,8,58,4,,,,,,,,,,,,,,,,,,,AMSA14.jpg,AMSA12.jpg,AMNE12.jpg,AMNE14.jpg,AMSA12.jpg,MS,2,num_6,32,num_2,0.833470663056,,,2017_May_12_1104,60.0060240639,FEMA4ImagesEEG,001,200126,
AFNE01.JPG,AFNE01.JPG,AFNE01.JPG,AFNE01.JPG,AFNE01.JPG,AFNE01.JPG,,,,,5,9,59,6,,,,,,,,,,,,,,,,,,,AMNE03.jpg,AMSA06.jpg,AMNE14.jpg,AMSA18.jpg,AMSA18.jpg,MS,2,num_4,16,num_4,0.533527658321,,,2017_May_12_1104,60.0060240639,FEMA4ImagesEEG,001,200126,
,,,,,,,,,,,,,,,,,,,,,,,,,,,,,,,,,,,,,,,,,,,space,11.8161924486,2017_May_12_1104,60.0060240639,FEMA4ImagesEEG,001,200126,
AFNE01.JPG,AFNE01.JPG,AFNE01.JPG,AFNE01.JPG,AFNE01.JPG,AFNE01.JPG,,,,,,,,,0,0,0,3,,,,,,,,,,,,,,,AFNE18.jpg,AFSA01.jpg,AFNE06.jpg,AFSA10.jpg,AFNE06.jpg,FN,3,num_2,32,num_4,1.28343841294,,,2017_May_12_1104,60.0060240639,FEMA4ImagesEEG,001,200126,
AFNE01.JPG,AFNE01.JPG,AFNE01.JPG,AFNE01.JPG,AFNE01.JPG,AFNE01.JPG,,,,,,,,,0,1,1,8,,,,,,,,,,,,,,,AFNE04.jpg,AFSA12.jpg,AFNE14.jpg,AFSA05.jpg,AFNE14.jpg,FN,3,num_2,16,num_2,0.716789312195,,,2017_May_12_1104,60.0060240639,FEMA4ImagesEEG,001,200126,
AFNE01.JPG,AFNE01.JPG,AFNE01.JPG,AFNE01.JPG,AFNE01.JPG,AFNE01.JPG,,,,,,,,,0,2,2,4,,,,,,,,,,,,,,,AFNE10.jpg,AFNE08.jpg,AFSA08.jpg,AFSA16.jpg,AFSA08.jpg,FS,4,num_2,16,num_2,0.766826212872,,,2017_May_12_1104,60.0060240639,FEMA4ImagesEEG,001,200126,
AFNE01.JPG,AFNE01.JPG,AFNE01.JPG,AFNE01.JPG,AFNE01.JPG,AFNE01.JPG,,,,,,,,,0,3,3,1,,,,,,,,,,,,,,,AFSA09.jpg,AFSA11.jpg,AFNE01.jpg,AFNE10.jpg,AFSA09.jpg,FS,4,num_8,32,num_2,0.93343413109,,,2017_May_12_1104,60.0060240639,FEMA4ImagesEEG,001,200126,
AFNE01.JPG,AFNE01.JPG,AFNE01.JPG,AFNE01.JPG,AFNE01.JPG,AFNE01.JPG,,,,,,,,,0,4,4,7,,,,,,,,,,,,,,,AFNE18.jpg,AFSA04.jpg,AFNE06.jpg,AFSA01.jpg,AFNE06.jpg,FN,3,num_2,32,num_8,0.750134950969,,,2017_May_12_1104,60.0060240639,FEMA4ImagesEEG,001,200126,
AFNE01.JPG,AFNE01.JPG,AFNE01.JPG,AFNE01.JPG,AFNE01.JPG,AFNE01.JPG,,,,,,,,,0,5,5,6,,,,,,,,,,,,,,,AFSA05.jpg,AFSA18.jpg,AFNE11.jpg,AFNE07.jpg,AFNE11.jpg,FN,3,num_2,16,num_2,0.516926523764,,,2017_May_12_1104,60.0060240639,FEMA4ImagesEEG,001,200126,
AFNE01.JPG,AFNE01.JPG,AFNE01.JPG,AFNE01.JPG,AFNE01.JPG,AFNE01.JPG,,,,,,,,,0,6,6,2,,,,,,,,,,,,,,,AFNE18.jpg,AFNE20.jpg,AFSA01.jpg,AFSA04.jpg,AFSA01.jpg,FS,4,num_2,16,num_2,0.633435958996,,,2017_May_12_1104,60.0060240639,FEMA4ImagesEEG,001,200126,
AFNE01.JPG,AFNE01.JPG,AFNE01.JPG,AFNE01.JPG,AFNE01.JPG,AFNE01.JPG,,,,,,,,,0,7,7,0,,,,,,,,,,,,,,,AFSA06.jpg,AFNE02.jpg,AFNE09.jpg,AFSA03.jpg,AFSA03.jpg,FS,4,num_4,16,num_4,0.866595954169,,,2017_May_12_1104,60.0060240639,FEMA4ImagesEEG,001,200126,
AFNE01.JPG,AFNE01.JPG,AFNE01.JPG,AFNE01.JPG,AFNE01.JPG,AFNE01.JPG,,,,,,,,,0,8,8,5,,,,,,,,,,,,,,,AFNE18.jpg,AFNE17.jpg,AFSA13.jpg,AFSA03.jpg,AFSA03.jpg,FS,4,num_4,16,num_4,0.600194560364,,,2017_May_12_1104,60.0060240639,FEMA4ImagesEEG,001,200126,
AFNE01.JPG,AFNE01.JPG,AFNE01.JPG,AFNE01.JPG,AFNE01.JPG,AFNE01.JPG,,,,,,,,,0,9,9,9,,,,,,,,,,,,,,,AFSA09.jpg,AFNE13.jpg,AFNE15.jpg,AFSA07.jpg,AFSA09.jpg,FS,4,num_8,16,num_8,0.883689423092,,,2017_May_12_1104,60.0060240639,FEMA4ImagesEEG,001,200126,
AFNE01.JPG,AFNE01.JPG,AFNE01.JPG,AFNE01.JPG,AFNE01.JPG,AFNE01.JPG,,,,,,,,,1,0,10,6,,,,,,,,,,,,,,,AFNE14.jpg,AFSA15.jpg,AFSA02.jpg,AFNE11.jpg,AFNE14.jpg,FN,3,num_8,16,num_8,0.733421878889,,,2017_May_12_1104,60.0060240639,FEMA4ImagesEEG,001,200126,
AFNE01.JPG,AFNE01.JPG,AFNE01.JPG,AFNE01.JPG,AFNE01.JPG,AFNE01.JPG,,,,,,,,,1,1,11,4,,,,,,,,,,,,,,,AFSA18.jpg,AFNE17.jpg,AFNE14.jpg,AFSA03.jpg,AFNE17.jpg,FN,3,num_6,16,num_6,0.800113156904,,,2017_May_12_1104,60.0060240639,FEMA4ImagesEEG,001,200126,
AFNE01.JPG,AFNE01.JPG,AFNE01.JPG,AFNE01.JPG,AFNE01.JPG,AFNE01.JPG,,,,,,,,,1,2,12,2,,,,,,,,,,,,,,,AFNE06.jpg,AFNE20.jpg,AFSA08.jpg,AFSA02.jpg,AFSA08.jpg,FS,4,num_2,32,num_8,1.31642289972,,,2017_May_12_1104,60.0060240639,FEMA4ImagesEEG,001,200126,
AFNE01.JPG,AFNE01.JPG,AFNE01.JPG,AFNE01.JPG,AFNE01.JPG,AFNE01.JPG,,,,,,,,,1,3,13,8,,,,,,,,,,,,,,,AFSA12.jpg,AFNE19.jpg,AFNE12.jpg,AFSA11.jpg,AFSA11.jpg,FS,4,num_4,32,num_6,0.933488977607,,,2017_May_12_1104,60.0060240639,FEMA4ImagesEEG,001,200126,
AFNE01.JPG,AFNE01.JPG,AFNE01.JPG,AFNE01.JPG,AFNE01.JPG,AFNE01.JPG,,,,,,,,,1,4,14,0,,,,,,,,,,,,,,,AFSA03.jpg,AFNE15.jpg,AFSA02.jpg,AFNE19.jpg,AFNE15.jpg,FN,3,num_6,16,num_6,0.60046109464,,,2017_May_12_1104,60.0060240639,FEMA4ImagesEEG,001,200126,
AFNE01.JPG,AFNE01.JPG,AFNE01.JPG,AFNE01.JPG,AFNE01.JPG,AFNE01.JPG,,,,,,,,,1,5,15,1,,,,,,,,,,,,,,,AFNE03.jpg,AFNE19.jpg,AFSA01.jpg,AFSA11.jpg,AFSA11.jpg,FS,4,num_4,16,num_4,0.43348240247,,,2017_May_12_1104,60.0060240639,FEMA4ImagesEEG,001,200126,
AFNE01.JPG,AFNE01.JPG,AFNE01.JPG,AFNE01.JPG,AFNE01.JPG,AFNE01.JPG,,,,,,,,,1,6,16,9,,,,,,,,,,,,,,,AFNE10.jpg,AFSA18.jpg,AFSA01.jpg,AFNE14.jpg,AFSA18.jpg,FS,4,num_6,16,num_6,0.850091683213,,,2017_May_12_1104,60.0060240639,FEMA4ImagesEEG,001,200126,
AFNE01.JPG,AFNE01.JPG,AFNE01.JPG,AFNE01.JPG,AFNE01.JPG,AFNE01.JPG,,,,,,,,,1,7,17,7,,,,,,,,,,,,,,,AFSA10.jpg,AFNE07.jpg,AFSA20.jpg,AFNE20.jpg,AFSA20.jpg,FS,4,num_2,32,num_8,0.883127809037,,,2017_May_12_1104,60.0060240639,FEMA4ImagesEEG,001,200126,
AFNE01.JPG,AFNE01.JPG,AFNE01.JPG,AFNE01.JPG,AFNE01.JPG,AFNE01.JPG,,,,,,,,,1,8,18,5,,,,,,,,,,,,,,,AFNE04.jpg,AFSA16.jpg,AFSA20.jpg,AFNE01.jpg,AFNE01.jpg,FN,3,num_4,16,num_4,0.666831312701,,,2017_May_12_1104,60.0060240639,FEMA4ImagesEEG,001,200126,
AFNE01.JPG,AFNE01.JPG,AFNE01.JPG,AFNE01.JPG,AFNE01.JPG,AFNE01.JPG,,,,,,,,,1,9,19,3,,,,,,,,,,,,,,,AFSA01.jpg,AFNE18.jpg,AFNE13.jpg,AFSA20.jpg,AFNE18.jpg,FN,3,num_6,16,num_6,0.666768768802,,,2017_May_12_1104,60.0060240639,FEMA4ImagesEEG,001,200126,
AFNE01.JPG,AFNE01.JPG,AFNE01.JPG,AFNE01.JPG,AFNE01.JPG,AFNE01.JPG,,,,,,,,,2,0,20,3,,,,,,,,,,,,,,,AFSA15.jpg,AFNE19.jpg,AFNE07.jpg,AFSA03.jpg,AFSA15.jpg,FS,4,num_8,16,num_8,0.816836492624,,,2017_May_12_1104,60.0060240639,FEMA4ImagesEEG,001,200126,
AFNE01.JPG,AFNE01.JPG,AFNE01.JPG,AFNE01.JPG,AFNE01.JPG,AFNE01.JPG,,,,,,,,,2,1,21,5,,,,,,,,,,,,,,,AFNE18.jpg,AFNE05.jpg,AFSA04.jpg,AFSA19.jpg,AFNE18.jpg,FN,3,num_8,16,num_8,0.633476051502,,,2017_May_12_1104,60.0060240639,FEMA4ImagesEEG,001,200126,
AFNE01.JPG,AFNE01.JPG,AFNE01.JPG,AFNE01.JPG,AFNE01.JPG,AFNE01.JPG,,,,,,,,,2,2,22,6,,,,,,,,,,,,,,,AFNE19.jpg,AFSA17.jpg,AFNE11.jpg,AFSA18.jpg,AFNE19.jpg,FN,3,num_8,32,num_6,0.600168259814,,,2017_May_12_1104,60.0060240639,FEMA4ImagesEEG,001,200126,
AFNE01.JPG,AFNE01.JPG,AFNE01.JPG,AFNE01.JPG,AFNE01.JPG,AFNE01.JPG,,,,,,,,,2,3,23,9,,,,,,,,,,,,,,,AFSA06.jpg,AFNE04.jpg,AFNE13.jpg,AFSA17.jpg,AFNE04.jpg,FN,3,num_6,16,num_6,0.76676847972,,,2017_May_12_1104,60.0060240639,FEMA4ImagesEEG,001,200126,
AFNE01.JPG,AFNE01.JPG,AFNE01.JPG,AFNE01.JPG,AFNE01.JPG,AFNE01.JPG,,,,,,,,,2,4,24,8,,,,,,,,,,,,,,,AFNE11.jpg,AFSA04.jpg,AFSA15.jpg,AFNE06.jpg,AFNE06.jpg,FN,3,num_4,16,num_4,0.716850894038,,,2017_May_12_1104,60.0060240639,FEMA4ImagesEEG,001,200126,
AFNE01.JPG,AFNE01.JPG,AFNE01.JPG,AFNE01.JPG,AFNE01.JPG,AFNE01.JPG,,,,,,,,,2,5,25,0,,,,,,,,,,,,,,,AFSA18.jpg,AFNE13.jpg,AFNE19.jpg,AFSA01.jpg,AFSA01.jpg,FS,4,num_4,16,num_4,0.633581895847,,,2017_May_12_1104,60.0060240639,FEMA4ImagesEEG,001,200126,
AFNE01.JPG,AFNE01.JPG,AFNE01.JPG,AFNE01.JPG,AFNE01.JPG,AFNE01.JPG,,,,,,,,,2,6,26,2,,,,,,,,,,,,,,,AFNE06.jpg,AFSA11.jpg,AFNE01.jpg,AFSA13.jpg,AFSA11.jpg,FS,4,num_6,16,num_6,0.500122683123,,,2017_May_12_1104,60.0060240639,FEMA4ImagesEEG,001,200126,
AFNE01.JPG,AFNE01.JPG,AFNE01.JPG,AFNE01.JPG,AFNE01.JPG,AFNE01.JPG,,,,,,,,,2,7,27,7,,,,,,,,,,,,,,,AFNE09.jpg,AFSA04.jpg,AFSA06.jpg,AFNE06.jpg,AFSA04.jpg,FS,4,num_6,16,num_6,0.483488191385,,,2017_May_12_1104,60.0060240639,FEMA4ImagesEEG,001,200126,
AFNE01.JPG,AFNE01.JPG,AFNE01.JPG,AFNE01.JPG,AFNE01.JPG,AFNE01.JPG,,,,,,,,,2,8,28,4,,,,,,,,,,,,,,,AFSA08.jpg,AFNE18.jpg,AFNE06.jpg,AFSA16.jpg,AFNE06.jpg,FN,3,num_2,32,num_6,0.500047308858,,,2017_May_12_1104,60.0060240639,FEMA4ImagesEEG,001,200126,
AFNE01.JPG,AFNE01.JPG,AFNE01.JPG,AFNE01.JPG,AFNE01.JPG,AFNE01.JPG,,,,,,,,,2,9,29,1,,,,,,,,,,,,,,,AFNE11.jpg,AFNE16.jpg,AFSA02.jpg,AFSA03.jpg,AFSA02.jpg,FS,4,num_2,32,num_6,0.783245167229,,,2017_May_12_1104,60.0060240639,FEMA4ImagesEEG,001,200126,
AFNE01.JPG,AFNE01.JPG,AFNE01.JPG,AFNE01.JPG,AFNE01.JPG,AFNE01.JPG,,,,,,,,,3,0,30,8,,,,,,,,,,,,,,,AFNE16.jpg,AFNE03.jpg,AFSA19.jpg,AFSA12.jpg,AFSA19.jpg,FS,4,num_2,16,num_2,0.616803392302,,,2017_May_12_1104,60.0060240639,FEMA4ImagesEEG,001,200126,
AFNE01.JPG,AFNE01.JPG,AFNE01.JPG,AFNE01.JPG,AFNE01.JPG,AFNE01.JPG,,,,,,,,,3,1,31,7,,,,,,,,,,,,,,,AFNE17.jpg,AFNE19.jpg,AFSA01.jpg,AFSA05.jpg,AFSA05.jpg,FS,4,num_4,16,num_4,0.833347819746,,,2017_May_12_1104,60.0060240639,FEMA4ImagesEEG,001,200126,
AFNE01.JPG,AFNE01.JPG,AFNE01.JPG,AFNE01.JPG,AFNE01.JPG,AFNE01.JPG,,,,,,,,,3,2,32,1,,,,,,,,,,,,,,,AFSA16.jpg,AFNE06.jpg,AFSA06.jpg,AFNE09.jpg,AFSA06.jpg,FS,4,num_2,32,num_6,0.666625718586,,,2017_May_12_1104,60.0060240639,FEMA4ImagesEEG,001,200126,
AFNE01.JPG,AFNE01.JPG,AFNE01.JPG,AFNE01.JPG,AFNE01.JPG,AFNE01.JPG,,,,,,,,,3,3,33,4,,,,,,,,,,,,,,,AFSA04.jpg,AFSA05.jpg,AFNE03.jpg,AFNE09.jpg,AFSA04.jpg,FS,4,num_8,32,num_2,0.816794475541,,,2017_May_12_1104,60.0060240639,FEMA4ImagesEEG,001,200126,
AFNE01.JPG,AFNE01.JPG,AFNE01.JPG,AFNE01.JPG,AFNE01.JPG,AFNE01.JPG,,,,,,,,,3,4,34,0,,,,,,,,,,,,,,,AFNE18.jpg,AFNE14.jpg,AFSA08.jpg,AFSA13.jpg,AFNE14.jpg,FN,3,num_6,16,num_6,0.550096718594,,,2017_May_12_1104,60.0060240639,FEMA4ImagesEEG,001,200126,
AFNE01.JPG,AFNE01.JPG,AFNE01.JPG,AFNE01.JPG,AFNE01.JPG,AFNE01.JPG,,,,,,,,,3,5,35,2,,,,,,,,,,,,,,,AFNE12.jpg,AFSA19.jpg,AFNE17.jpg,AFSA08.jpg,AFSA19.jpg,FS,4,num_6,16,num_6,0.483498775866,,,2017_May_12_1104,60.0060240639,FEMA4ImagesEEG,001,200126,
AFNE01.JPG,AFNE01.JPG,AFNE01.JPG,AFNE01.JPG,AFNE01.JPG,AFNE01.JPG,,,,,,,,,3,6,36,5,,,,,,,,,,,,,,,AFSA10.jpg,AFNE04.jpg,AFSA17.jpg,AFNE05.jpg,AFNE05.jpg,FN,3,num_4,16,num_4,0.649968775921,,,2017_May_12_1104,60.0060240639,FEMA4ImagesEEG,001,200126,
AFNE01.JPG,AFNE01.JPG,AFNE01.JPG,AFNE01.JPG,AFNE01.JPG,AFNE01.JPG,,,,,,,,,3,7,37,6,,,,,,,,,,,,,,,AFSA15.jpg,AFSA05.jpg,AFNE07.jpg,AFNE12.jpg,AFNE12.jpg,FN,3,num_4,16,num_4,0.866597237531,,,2017_May_12_1104,60.0060240639,FEMA4ImagesEEG,001,200126,
AFNE01.JPG,AFNE01.JPG,AFNE01.JPG,AFNE01.JPG,AFNE01.JPG,AFNE01.JPG,,,,,,,,,3,8,38,3,,,,,,,,,,,,,,,AFSA15.jpg,AFSA08.jpg,AFNE18.jpg,AFNE03.jpg,AFNE03.jpg,FN,3,num_4,16,num_4,0.616803392302,,,2017_May_12_1104,60.0060240639,FEMA4ImagesEEG,001,200126,
AFNE01.JPG,AFNE01.JPG,AFNE01.JPG,AFNE01.JPG,AFNE01.JPG,AFNE01.JPG,,,,,,,,,3,9,39,9,,,,,,,,,,,,,,,AFSA05.jpg,AFSA02.jpg,AFNE17.jpg,AFNE09.jpg,AFSA05.jpg,FS,4,num_8,32,num_6,0.75015804451,,,2017_May_12_1104,60.0060240639,FEMA4ImagesEEG,001,200126,
AFNE01.JPG,AFNE01.JPG,AFNE01.JPG,AFNE01.JPG,AFNE01.JPG,AFNE01.JPG,,,,,,,,,4,0,40,7,,,,,,,,,,,,,,,AFSA10.jpg,AFNE06.jpg,AFNE19.jpg,AFSA19.jpg,AFNE19.jpg,FN,3,num_2,32,num_4,0.533467680216,,,2017_May_12_1104,60.0060240639,FEMA4ImagesEEG,001,200126,
AFNE01.JPG,AFNE01.JPG,AFNE01.JPG,AFNE01.JPG,AFNE01.JPG,AFNE01.JPG,,,,,,,,,4,1,41,0,,,,,,,,,,,,,,,AFSA20.jpg,AFSA07.jpg,AFNE08.jpg,AFNE03.jpg,AFNE08.jpg,FN,3,num_2,32,num_8,0.566808508243,,,2017_May_12_1104,60.0060240639,FEMA4ImagesEEG,001,200126,
AFNE01.JPG,AFNE01.JPG,AFNE01.JPG,AFNE01.JPG,AFNE01.JPG,AFNE01.JPG,,,,,,,,,4,2,42,3,,,,,,,,,,,,,,,AFSA20.jpg,AFNE16.jpg,AFNE03.jpg,AFSA06.jpg,AFNE16.jpg,FN,3,num_6,16,num_6,0.800076592248,,,2017_May_12_1104,60.0060240639,FEMA4ImagesEEG,001,200126,
AFNE01.JPG,AFNE01.JPG,AFNE01.JPG,AFNE01.JPG,AFNE01.JPG,AFNE01.JPG,,,,,,,,,4,3,43,8,,,,,,,,,,,,,,,AFSA19.jpg,AFSA13.jpg,AFNE18.jpg,AFNE09.jpg,AFNE09.jpg,FN,3,num_4,16,num_4,0.6835238575,,,2017_May_12_1104,60.0060240639,FEMA4ImagesEEG,001,200126,
AFNE01.JPG,AFNE01.JPG,AFNE01.JPG,AFNE01.JPG,AFNE01.JPG,AFNE01.JPG,,,,,,,,,4,4,44,9,,,,,,,,,,,,,,,AFSA10.jpg,AFSA07.jpg,AFNE19.jpg,AFNE01.jpg,AFNE19.jpg,FN,3,num_2,32,num_8,0.783341389149,,,2017_May_12_1104,60.0060240639,FEMA4ImagesEEG,001,200126,
AFNE01.JPG,AFNE01.JPG,AFNE01.JPG,AFNE01.JPG,AFNE01.JPG,AFNE01.JPG,,,,,,,,,4,5,45,4,,,,,,,,,,,,,,,AFSA20.jpg,AFNE04.jpg,AFNE13.jpg,AFSA02.jpg,AFSA02.jpg,FS,4,num_4,16,num_4,0.650127220899,,,2017_May_12_1104,60.0060240639,FEMA4ImagesEEG,001,200126,
AFNE01.JPG,AFNE01.JPG,AFNE01.JPG,AFNE01.JPG,AFNE01.JPG,AFNE01.JPG,,,,,,,,,4,6,46,6,,,,,,,,,,,,,,,AFSA13.jpg,AFSA01.jpg,AFNE10.jpg,AFNE17.jpg,AFNE17.jpg,FN,3,num_4,32,num_6,0.833445966244,,,2017_May_12_1104,60.0060240639,FEMA4ImagesEEG,001,200126,
AFNE01.JPG,AFNE01.JPG,AFNE01.JPG,AFNE01.JPG,AFNE01.JPG,AFNE01.JPG,,,,,,,,,4,7,47,1,,,,,,,,,,,,,,,AFNE15.jpg,AFNE20.jpg,AFSA07.jpg,AFSA18.jpg,AFSA07.jpg,FS,4,num_2,16,num_2,0.800120533444,,,2017_May_12_1104,60.0060240639,FEMA4ImagesEEG,001,200126,
AFNE01.JPG,AFNE01.JPG,AFNE01.JPG,AFNE01.JPG,AFNE01.JPG,AFNE01.JPG,,,,,,,,,4,8,48,5,,,,,,,,,,,,,,,AFNE20.jpg,AFNE14.jpg,AFSA14.jpg,AFSA17.jpg,AFNE14.jpg,FN,3,num_6,16,num_6,0.650140050799,,,2017_May_12_1104,60.0060240639,FEMA4ImagesEEG,001,200126,
AFNE01.JPG,AFNE01.JPG,AFNE01.JPG,AFNE01.JPG,AFNE01.JPG,AFNE01.JPG,,,,,,,,,4,9,49,2,,,,,,,,,,,,,,,AFNE18.jpg,AFSA05.jpg,AFNE03.jpg,AFSA17.jpg,AFNE18.jpg,FN,3,num_8,32,num_6,0.6169214244,,,2017_May_12_1104,60.0060240639,FEMA4ImagesEEG,001,200126,
AFNE01.JPG,AFNE01.JPG,AFNE01.JPG,AFNE01.JPG,AFNE01.JPG,AFNE01.JPG,,,,,,,,,5,0,50,6,,,,,,,,,,,,,,,AFNE10.jpg,AFSA04.jpg,AFSA15.jpg,AFNE11.jpg,AFNE11.jpg,FN,3,num_4,16,num_4,0.583570653107,,,2017_May_12_1104,60.0060240639,FEMA4ImagesEEG,001,200126,
AFNE01.JPG,AFNE01.JPG,AFNE01.JPG,AFNE01.JPG,AFNE01.JPG,AFNE01.JPG,,,,,,,,,5,1,51,2,,,,,,,,,,,,,,,AFSA19.jpg,AFNE04.jpg,AFNE15.jpg,AFSA20.jpg,AFNE04.jpg,FN,3,num_6,16,num_6,0.750141045079,,,2017_May_12_1104,60.0060240639,FEMA4ImagesEEG,001,200126,
AFNE01.JPG,AFNE01.JPG,AFNE01.JPG,AFNE01.JPG,AFNE01.JPG,AFNE01.JPG,,,,,,,,,5,2,52,3,,,,,,,,,,,,,,,AFSA03.jpg,AFNE06.jpg,AFSA06.jpg,AFNE03.jpg,AFNE03.jpg,FN,3,num_4,32,num_8,0.766845136881,,,2017_May_12_1104,60.0060240639,FEMA4ImagesEEG,001,200126,
AFNE01.JPG,AFNE01.JPG,AFNE01.JPG,AFNE01.JPG,AFNE01.JPG,AFNE01.JPG,,,,,,,,,5,3,53,4,,,,,,,,,,,,,,,AFNE08.jpg,AFSA19.jpg,AFNE15.jpg,AFSA03.jpg,AFNE08.jpg,FN,3,num_8,16,num_8,0.533488848712,,,2017_May_12_1104,60.0060240639,FEMA4ImagesEEG,001,200126,
AFNE01.JPG,AFNE01.JPG,AFNE01.JPG,AFNE01.JPG,AFNE01.JPG,AFNE01.JPG,,,,,,,,,5,4,54,9,,,,,,,,,,,,,,,AFSA12.jpg,AFNE08.jpg,AFNE02.jpg,AFSA14.jpg,AFSA12.jpg,FS,4,num_8,32,num_4,0.76644292986,,,2017_May_12_1104,60.0060240639,FEMA4ImagesEEG,001,200126,
AFNE01.JPG,AFNE01.JPG,AFNE01.JPG,AFNE01.JPG,AFNE01.JPG,AFNE01.JPG,,,,,,,,,5,5,55,0,,,,,,,,,,,,,,,AFNE20.jpg,AFSA04.jpg,AFSA18.jpg,AFNE02.jpg,AFSA18.jpg,FS,4,num_2,16,num_2,1.03347746283,,,2017_May_12_1104,60.0060240639,FEMA4ImagesEEG,001,200126,
AFNE01.JPG,AFNE01.JPG,AFNE01.JPG,AFNE01.JPG,AFNE01.JPG,AFNE01.JPG,,,,,,,,,5,6,56,5,,,,,,,,,,,,,,,AFNE12.jpg,AFNE04.jpg,AFSA05.jpg,AFSA17.jpg,AFSA05.jpg,FS,4,num_2,16,num_2,0.583485016599,,,2017_May_12_1104,60.0060240639,FEMA4ImagesEEG,001,200126,
AFNE01.JPG,AFNE01.JPG,AFNE01.JPG,AFNE01.JPG,AFNE01.JPG,AFNE01.JPG,,,,,,,,,5,7,57,1,,,,,,,,,,,,,,,AFNE14.jpg,AFSA03.jpg,AFNE02.jpg,AFSA13.jpg,AFNE02.jpg,FN,3,num_2,16,num_2,1.05013440596,,,2017_May_12_1104,60.0060240639,FEMA4ImagesEEG,001,200126,
AFNE01.JPG,AFNE01.JPG,AFNE01.JPG,AFNE01.JPG,AFNE01.JPG,AFNE01.JPG,,,,,,,,,5,8,58,8,,,,,,,,,,,,,,,AFNE14.jpg,AFSA04.jpg,AFSA19.jpg,AFNE19.jpg,AFNE14.jpg,FN,3,num_8,32,num_6,0.700191705953,,,2017_May_12_1104,60.0060240639,FEMA4ImagesEEG,001,200126,
AFNE01.JPG,AFNE01.JPG,AFNE01.JPG,AFNE01.JPG,AFNE01.JPG,AFNE01.JPG,,,,,,,,,5,9,59,7,,,,,,,,,,,,,,,AFNE04.jpg,AFSA08.jpg,AFSA02.jpg,AFNE12.jpg,AFSA08.jpg,FS,4,num_6,32,num_2,0.883481584024,,,2017_May_12_1104,60.0060240639,FEMA4ImagesEEG,001,200126,
,,,,,,,,,,,,,,,,,,,,,,,,,,,,,,,,,,,,,,,,,,,space,9.83276247093,2017_May_12_1104,60.0060240639,FEMA4ImagesEEG,001,200126,
AFNE01.JPG,AFNE01.JPG,AFNE01.JPG,AFNE01.JPG,AFNE01.JPG,AFNE01.JPG,,,,,,,,,,,,,0,0,0,6,,,,,,,,,,,AMNE17.jpg,AMSA15.jpg,AMSA09.jpg,AMNE20.jpg,AMNE20.jpg,MN,1,num_4,16,num_4,0.783406820148,,,2017_May_12_1104,60.0060240639,FEMA4ImagesEEG,001,200126,
AFNE01.JPG,AFNE01.JPG,AFNE01.JPG,AFNE01.JPG,AFNE01.JPG,AFNE01.JPG,,,,,,,,,,,,,0,1,1,3,,,,,,,,,,,AMSA02.jpg,AMNE06.jpg,AMSA09.jpg,AMNE10.jpg,AMSA09.jpg,MS,2,num_2,16,num_2,0.733507836703,,,2017_May_12_1104,60.0060240639,FEMA4ImagesEEG,001,200126,
AFNE01.JPG,AFNE01.JPG,AFNE01.JPG,AFNE01.JPG,AFNE01.JPG,AFNE01.JPG,,,,,,,,,,,,,0,2,2,2,,,,,,,,,,,AMSA16.jpg,AMSA20.jpg,AMNE13.jpg,AMNE20.jpg,AMSA20.jpg,MS,2,num_6,32,num_4,0.483163282741,,,2017_May_12_1104,60.0060240639,FEMA4ImagesEEG,001,200126,
AFNE01.JPG,AFNE01.JPG,AFNE01.JPG,AFNE01.JPG,AFNE01.JPG,AFNE01.JPG,,,,,,,,,,,,,0,3,3,0,,,,,,,,,,,AMSA06.jpg,AMSA20.jpg,AMNE04.jpg,AMNE02.jpg,AMSA20.jpg,MS,2,num_6,16,num_6,0.666789296083,,,2017_May_12_1104,60.0060240639,FEMA4ImagesEEG,001,200126,
AFNE01.JPG,AFNE01.JPG,AFNE01.JPG,AFNE01.JPG,AFNE01.JPG,AFNE01.JPG,,,,,,,,,,,,,0,4,4,9,,,,,,,,,,,AMNE17.jpg,AMSA15.jpg,AMNE19.jpg,AMSA08.jpg,AMNE17.jpg,MN,1,num_8,32,num_2,1.03345629387,,,2017_May_12_1104,60.0060240639,FEMA4ImagesEEG,001,200126,
AFNE01.JPG,AFNE01.JPG,AFNE01.JPG,AFNE01.JPG,AFNE01.JPG,AFNE01.JPG,,,,,,,,,,,,,0,5,5,1,,,,,,,,,,,AMSA14.jpg,AMSA05.jpg,AMNE04.jpg,AMNE16.jpg,AMNE04.jpg,MN,1,num_2,16,num_2,0.766762386076,,,2017_May_12_1104,60.0060240639,FEMA4ImagesEEG,001,200126,
AFNE01.JPG,AFNE01.JPG,AFNE01.JPG,AFNE01.JPG,AFNE01.JPG,AFNE01.JPG,,,,,,,,,,,,,0,6,6,7,,,,,,,,,,,AMNE19.jpg,AMSA02.jpg,AMSA14.jpg,AMNE12.jpg,AMNE12.jpg,MN,1,num_4,16,num_4,0.85014620889,,,2017_May_12_1104,60.0060240639,FEMA4ImagesEEG,001,200126,
AFNE01.JPG,AFNE01.JPG,AFNE01.JPG,AFNE01.JPG,AFNE01.JPG,AFNE01.JPG,,,,,,,,,,,,,0,7,7,4,,,,,,,,,,,AMNE13.jpg,AMSA10.jpg,AMSA19.jpg,AMNE07.jpg,AMNE07.jpg,MN,1,num_4,16,num_4,0.500150586944,,,2017_May_12_1104,60.0060240639,FEMA4ImagesEEG,001,200126,
AFNE01.JPG,AFNE01.JPG,AFNE01.JPG,AFNE01.JPG,AFNE01.JPG,AFNE01.JPG,,,,,,,,,,,,,0,8,8,5,,,,,,,,,,,AMSA05.jpg,AMSA13.jpg,AMNE15.jpg,AMNE16.jpg,AMSA05.jpg,MS,2,num_8,32,num_4,0.916857052129,,,2017_May_12_1104,60.0060240639,FEMA4ImagesEEG,001,200126,
AFNE01.JPG,AFNE01.JPG,AFNE01.JPG,AFNE01.JPG,AFNE01.JPG,AFNE01.JPG,,,,,,,,,,,,,0,9,9,8,,,,,,,,,,,AMSA01.jpg,AMNE10.jpg,AMNE19.jpg,AMSA14.jpg,AMSA14.jpg,MS,2,num_4,16,num_4,0.716758841649,,,2017_May_12_1104,60.0060240639,FEMA4ImagesEEG,001,200126,
AFNE01.JPG,AFNE01.JPG,AFNE01.JPG,AFNE01.JPG,AFNE01.JPG,AFNE01.JPG,,,,,,,,,,,,,1,0,10,4,,,,,,,,,,,AMSA13.jpg,AMNE14.jpg,AMNE04.jpg,AMSA15.jpg,AMSA15.jpg,MS,2,num_4,16,num_4,0.900198184419,,,2017_May_12_1104,60.0060240639,FEMA4ImagesEEG,001,200126,
AFNE01.JPG,AFNE01.JPG,AFNE01.JPG,AFNE01.JPG,AFNE01.JPG,AFNE01.JPG,,,,,,,,,,,,,1,1,11,1,,,,,,,,,,,AMNE04.jpg,AMSA12.jpg,AMNE18.jpg,AMSA05.jpg,AMNE18.jpg,MN,1,num_2,16,num_2,0.866816623136,,,2017_May_12_1104,60.0060240639,FEMA4ImagesEEG,001,200126,
AFNE01.JPG,AFNE01.JPG,AFNE01.JPG,AFNE01.JPG,AFNE01.JPG,AFNE01.JPG,,,,,,,,,,,,,1,2,12,9,,,,,,,,,,,AMNE18.jpg,AMSA20.jpg,AMSA06.jpg,AMNE14.jpg,AMNE14.jpg,MN,1,num_4,16,num_4,0.700170216151,,,2017_May_12_1104,60.0060240639,FEMA4ImagesEEG,001,200126,
AFNE01.JPG,AFNE01.JPG,AFNE01.JPG,AFNE01.JPG,AFNE01.JPG,AFNE01.JPG,,,,,,,,,,,,,1,3,13,7,,,,,,,,,,,AMSA15.jpg,AMNE01.jpg,AMSA11.jpg,AMNE12.jpg,AMNE01.jpg,MN,1,num_6,16,num_6,0.716800537892,,,2017_May_12_1104,60.0060240639,FEMA4ImagesEEG,001,200126,
AFNE01.JPG,AFNE01.JPG,AFNE01.JPG,AFNE01.JPG,AFNE01.JPG,AFNE01.JPG,,,,,,,,,,,,,1,4,14,6,,,,,,,,,,,AMNE07.jpg,AMSA17.jpg,AMNE06.jpg,AMSA05.jpg,AMSA17.jpg,MS,2,num_6,16,num_6,0.616573101375,,,2017_May_12_1104,60.0060240639,FEMA4ImagesEEG,001,200126,
AFNE01.JPG,AFNE01.JPG,AFNE01.JPG,AFNE01.JPG,AFNE01.JPG,AFNE01.JPG,,,,,,,,,,,,,1,5,15,0,,,,,,,,,,,AMSA12.jpg,AMNE08.jpg,AMSA16.jpg,AMNE18.jpg,AMNE08.jpg,MN,1,num_6,16,num_6,0.916754736099,,,2017_May_12_1104,60.0060240639,FEMA4ImagesEEG,001,200126,
AFNE01.JPG,AFNE01.JPG,AFNE01.JPG,AFNE01.JPG,AFNE01.JPG,AFNE01.JPG,,,,,,,,,,,,,1,6,16,5,,,,,,,,,,,AMNE05.jpg,AMNE07.jpg,AMSA07.jpg,AMSA01.jpg,AMNE05.jpg,MN,1,num_8,32,num_6,0.533422456123,,,2017_May_12_1104,60.0060240639,FEMA4ImagesEEG,001,200126,
AFNE01.JPG,AFNE01.JPG,AFNE01.JPG,AFNE01.JPG,AFNE01.JPG,AFNE01.JPG,,,,,,,,,,,,,1,7,17,2,,,,,,,,,,,AMSA06.jpg,AMNE02.jpg,AMNE04.jpg,AMSA05.jpg,AMNE02.jpg,MN,1,num_6,16,num_6,1.0834684982,,,2017_May_12_1104,60.0060240639,FEMA4ImagesEEG,001,200126,
AFNE01.JPG,AFNE01.JPG,AFNE01.JPG,AFNE01.JPG,AFNE01.JPG,AFNE01.JPG,,,,,,,,,,,,,1,8,18,8,,,,,,,,,,,AMSA20.jpg,AMNE04.jpg,AMSA03.jpg,AMNE11.jpg,AMSA20.jpg,MS,2,num_8,16,num_8,0.866744456813,,,2017_May_12_1104,60.0060240639,FEMA4ImagesEEG,001,200126,
AFNE01.JPG,AFNE01.JPG,AFNE01.JPG,AFNE01.JPG,AFNE01.JPG,AFNE01.JPG,,,,,,,,,,,,,1,9,19,3,,,,,,,,,,,AMNE13.jpg,AMSA06.jpg,AMSA12.jpg,AMNE14.jpg,AMNE13.jpg,MN,1,num_8,32,num_6,0.633563292213,,,2017_May_12_1104,60.0060240639,FEMA4ImagesEEG,001,200126,
AFNE01.JPG,AFNE01.JPG,AFNE01.JPG,AFNE01.JPG,AFNE01.JPG,AFNE01.JPG,,,,,,,,,,,,,2,0,20,1,,,,,,,,,,,AMSA04.jpg,AMNE01.jpg,AMNE18.jpg,AMSA16.jpg,AMSA04.jpg,MS,2,num_8,32,num_6,0.75013238471,,,2017_May_12_1104,60.0060240639,FEMA4ImagesEEG,001,200126,
AFNE01.JPG,AFNE01.JPG,AFNE01.JPG,AFNE01.JPG,AFNE01.JPG,AFNE01.JPG,,,,,,,,,,,,,2,1,21,9,,,,,,,,,,,AMSA11.jpg,AMNE17.jpg,AMSA17.jpg,AMNE19.jpg,AMSA17.jpg,MS,2,num_2,16,num_2,0.900121207349,,,2017_May_12_1104,60.0060240639,FEMA4ImagesEEG,001,200126,
AFNE01.JPG,AFNE01.JPG,AFNE01.JPG,AFNE01.JPG,AFNE01.JPG,AFNE01.JPG,,,,,,,,,,,,,2,2,22,7,,,,,,,,,,,AMSA11.jpg,AMNE17.jpg,AMNE01.jpg,AMSA01.jpg,AMNE01.jpg,MN,1,num_2,16,num_2,0.966874067206,,,2017_May_12_1104,60.0060240639,FEMA4ImagesEEG,001,200126,
AFNE01.JPG,AFNE01.JPG,AFNE01.JPG,AFNE01.JPG,AFNE01.JPG,AFNE01.JPG,,,,,,,,,,,,,2,3,23,0,,,,,,,,,,,AMNE04.jpg,AMSA08.jpg,AMSA14.jpg,AMNE17.jpg,AMSA08.jpg,MS,2,num_6,16,num_6,0.666765240487,,,2017_May_12_1104,60.0060240639,FEMA4ImagesEEG,001,200126,
AFNE01.JPG,AFNE01.JPG,AFNE01.JPG,AFNE01.JPG,AFNE01.JPG,AFNE01.JPG,,,,,,,,,,,,,2,4,24,4,,,,,,,,,,,AMSA09.jpg,AMSA11.jpg,AMNE12.jpg,AMNE04.jpg,AMSA11.jpg,MS,2,num_6,32,num_2,1.63352191728,,,2017_May_12_1104,60.0060240639,FEMA4ImagesEEG,001,200126,
AFNE01.JPG,AFNE01.JPG,AFNE01.JPG,AFNE01.JPG,AFNE01.JPG,AFNE01.JPG,,,,,,,,,,,,,2,5,25,8,,,,,,,,,,,AMSA20.jpg,AMNE01.jpg,AMSA03.jpg,AMNE09.jpg,AMSA03.jpg,MS,2,num_2,16,num_2,0.633149859961,,,2017_May_12_1104,60.0060240639,FEMA4ImagesEEG,001,200126,
AFNE01.JPG,AFNE01.JPG,AFNE01.JPG,AFNE01.JPG,AFNE01.JPG,AFNE01.JPG,,,,,,,,,,,,,2,6,26,6,,,,,,,,,,,AMSA08.jpg,AMNE05.jpg,AMSA19.jpg,AMNE17.jpg,AMNE17.jpg,MN,1,num_4,32,num_2,0.916782640386,,,2017_May_12_1104,60.0060240639,FEMA4ImagesEEG,001,200126,
AFNE01.JPG,AFNE01.JPG,AFNE01.JPG,AFNE01.JPG,AFNE01.JPG,AFNE01.JPG,,,,,,,,,,,,,2,7,27,5,,,,,,,,,,,AMNE20.jpg,AMSA15.jpg,AMNE04.jpg,AMSA07.jpg,AMNE04.jpg,MN,1,num_2,16,num_2,1.05010265252,,,2017_May_12_1104,60.0060240639,FEMA4ImagesEEG,001,200126,
AFNE01.JPG,AFNE01.JPG,AFNE01.JPG,AFNE01.JPG,AFNE01.JPG,AFNE01.JPG,,,,,,,,,,,,,2,8,28,3,,,,,,,,,,,AMSA13.jpg,AMSA19.jpg,AMNE05.jpg,AMNE03.jpg,AMNE03.jpg,MN,1,num_4,32,num_6,0.866770115681,,,2017_May_12_1104,60.0060240639,FEMA4ImagesEEG,001,200126,
AFNE01.JPG,AFNE01.JPG,AFNE01.JPG,AFNE01.JPG,AFNE01.JPG,AFNE01.JPG,,,,,,,,,,,,,2,9,29,2,,,,,,,,,,,AMSA08.jpg,AMSA04.jpg,AMNE04.jpg,AMNE09.jpg,AMNE09.jpg,MN,1,num_4,16,num_4,0.450017464347,,,2017_May_12_1104,60.0060240639,FEMA4ImagesEEG,001,200126,
AFNE01.JPG,AFNE01.JPG,AFNE01.JPG,AFNE01.JPG,AFNE01.JPG,AFNE01.JPG,,,,,,,,,,,,,3,0,30,5,,,,,,,,,,,AMSA04.jpg,AMNE02.jpg,AMNE10.jpg,AMSA07.jpg,AMSA04.jpg,MS,2,num_8,32,num_6,0.800111874007,,,2017_May_12_1104,60.0060240639,FEMA4ImagesEEG,001,200126,
AFNE01.JPG,AFNE01.JPG,AFNE01.JPG,AFNE01.JPG,AFNE01.JPG,AFNE01.JPG,,,,,,,,,,,,,3,1,31,2,,,,,,,,,,,AMNE19.jpg,AMSA08.jpg,AMNE17.jpg,AMSA04.jpg,AMSA08.jpg,MS,2,num_6,16,num_6,0.683536045719,,,2017_May_12_1104,60.0060240639,FEMA4ImagesEEG,001,200126,
AFNE01.JPG,AFNE01.JPG,AFNE01.JPG,AFNE01.JPG,AFNE01.JPG,AFNE01.JPG,,,,,,,,,,,,,3,2,32,8,,,,,,,,,,,AMNE02.jpg,AMSA19.jpg,AMSA02.jpg,AMNE17.jpg,AMSA02.jpg,MS,2,num_2,16,num_2,0.550118208397,,,2017_May_12_1104,60.0060240639,FEMA4ImagesEEG,001,200126,
AFNE01.JPG,AFNE01.JPG,AFNE01.JPG,AFNE01.JPG,AFNE01.JPG,AFNE01.JPG,,,,,,,,,,,,,3,3,33,4,,,,,,,,,,,AMSA18.jpg,AMNE01.jpg,AMNE19.jpg,AMSA06.jpg,AMSA06.jpg,MS,2,num_4,16,num_4,0.65020740591,,,2017_May_12_1104,60.0060240639,FEMA4ImagesEEG,001,200126,
AFNE01.JPG,AFNE01.JPG,AFNE01.JPG,AFNE01.JPG,AFNE01.JPG,AFNE01.JPG,,,,,,,,,,,,,3,4,34,9,,,,,,,,,,,AMNE15.jpg,AMNE05.jpg,AMSA04.jpg,AMSA20.jpg,AMNE15.jpg,MN,1,num_8,16,num_8,0.716783859301,,,2017_May_12_1104,60.0060240639,FEMA4ImagesEEG,001,200126,
AFNE01.JPG,AFNE01.JPG,AFNE01.JPG,AFNE01.JPG,AFNE01.JPG,AFNE01.JPG,,,,,,,,,,,,,3,5,35,6,,,,,,,,,,,AMSA05.jpg,AMSA10.jpg,AMNE17.jpg,AMNE07.jpg,AMSA10.jpg,MS,2,num_6,32,num_4,0.666821049061,,,2017_May_12_1104,60.0060240639,FEMA4ImagesEEG,001,200126,
AFNE01.JPG,AFNE01.JPG,AFNE01.JPG,AFNE01.JPG,AFNE01.JPG,AFNE01.JPG,,,,,,,,,,,,,3,6,36,1,,,,,,,,,,,AMSA11.jpg,AMNE08.jpg,AMNE04.jpg,AMSA07.jpg,AMNE04.jpg,MN,1,num_2,16,num_2,0.750198136549,,,2017_May_12_1104,60.0060240639,FEMA4ImagesEEG,001,200126,
AFNE01.JPG,AFNE01.JPG,AFNE01.JPG,AFNE01.JPG,AFNE01.JPG,AFNE01.JPG,,,,,,,,,,,,,3,7,37,3,,,,,,,,,,,AMSA07.jpg,AMNE12.jpg,AMSA03.jpg,AMNE03.jpg,AMSA07.jpg,MS,2,num_8,16,num_8,0.650252309628,,,2017_May_12_1104,60.0060240639,FEMA4ImagesEEG,001,200126,
AFNE01.JPG,AFNE01.JPG,AFNE01.JPG,AFNE01.JPG,AFNE01.JPG,AFNE01.JPG,,,,,,,,,,,,,3,8,38,7,,,,,,,,,,,AMNE20.jpg,AMNE03.jpg,AMSA16.jpg,AMSA07.jpg,AMNE03.jpg,MN,1,num_6,16,num_6,0.633480862714,,,2017_May_12_1104,60.0060240639,FEMA4ImagesEEG,001,200126,
AFNE01.JPG,AFNE01.JPG,AFNE01.JPG,AFNE01.JPG,AFNE01.JPG,AFNE01.JPG,,,,,,,,,,,,,3,9,39,0,,,,,,,,,,,AMSA09.jpg,AMNE01.jpg,AMSA05.jpg,AMNE13.jpg,AMSA09.jpg,MS,2,num_8,32,num_4,0.78346808115,,,2017_May_12_1104,60.0060240639,FEMA4ImagesEEG,001,200126,
AFNE01.JPG,AFNE01.JPG,AFNE01.JPG,AFNE01.JPG,AFNE01.JPG,AFNE01.JPG,,,,,,,,,,,,,4,0,40,8,,,,,,,,,,,AMNE14.jpg,AMNE08.jpg,AMSA15.jpg,AMSA18.jpg,AMSA18.jpg,MS,2,num_4,16,num_4,0.666756259743,,,2017_May_12_1104,60.0060240639,FEMA4ImagesEEG,001,200126,
AFNE01.JPG,AFNE01.JPG,AFNE01.JPG,AFNE01.JPG,AFNE01.JPG,AFNE01.JPG,,,,,,,,,,,,,4,1,41,4,,,,,,,,,,,AMSA20.jpg,AMSA01.jpg,AMNE04.jpg,AMNE03.jpg,AMSA20.jpg,MS,2,num_8,16,num_8,1.00016036956,,,2017_May_12_1104,60.0060240639,FEMA4ImagesEEG,001,200126,
AFNE01.JPG,AFNE01.JPG,AFNE01.JPG,AFNE01.JPG,AFNE01.JPG,AFNE01.JPG,,,,,,,,,,,,,4,2,42,0,,,,,,,,,,,AMNE11.jpg,AMNE05.jpg,AMSA20.jpg,AMSA19.jpg,AMSA19.jpg,MS,2,num_4,16,num_4,0.566810753662,,,2017_May_12_1104,60.0060240639,FEMA4ImagesEEG,001,200126,
AFNE01.JPG,AFNE01.JPG,AFNE01.JPG,AFNE01.JPG,AFNE01.JPG,AFNE01.JPG,,,,,,,,,,,,,4,3,43,2,,,,,,,,,,,AMNE11.jpg,AMNE07.jpg,AMSA01.jpg,AMSA06.jpg,AMSA01.jpg,MS,2,num_2,16,num_2,0.7668316653,,,2017_May_12_1104,60.0060240639,FEMA4ImagesEEG,001,200126,
AFNE01.JPG,AFNE01.JPG,AFNE01.JPG,AFNE01.JPG,AFNE01.JPG,AFNE01.JPG,,,,,,,,,,,,,4,4,44,1,,,,,,,,,,,AMNE04.jpg,AMSA13.jpg,AMNE15.jpg,AMSA06.jpg,AMSA06.jpg,MS,2,num_4,16,num_4,0.733448500279,,,2017_May_12_1104,60.0060240639,FEMA4ImagesEEG,001,200126,
AFNE01.JPG,AFNE01.JPG,AFNE01.JPG,AFNE01.JPG,AFNE01.JPG,AFNE01.JPG,,,,,,,,,,,,,4,5,45,9,,,,,,,,,,,AMSA03.jpg,AMNE04.jpg,AMNE20.jpg,AMSA16.jpg,AMSA16.jpg,MS,2,num_4,32,num_8,0.633792300243,,,2017_May_12_1104,60.0060240639,FEMA4ImagesEEG,001,200126,
AFNE01.JPG,AFNE01.JPG,AFNE01.JPG,AFNE01.JPG,AFNE01.JPG,AFNE01.JPG,,,,,,,,,,,,,4,6,46,5,,,,,,,,,,,AMSA16.jpg,AMSA08.jpg,AMNE18.jpg,AMNE03.jpg,AMNE03.jpg,MN,1,num_4,16,num_4,0.550117888022,,,2017_May_12_1104,60.0060240639,FEMA4ImagesEEG,001,200126,
AFNE01.JPG,AFNE01.JPG,AFNE01.JPG,AFNE01.JPG,AFNE01.JPG,AFNE01.JPG,,,,,,,,,,,,,4,7,47,3,,,,,,,,,,,AMNE18.jpg,AMSA04.jpg,AMSA08.jpg,AMNE13.jpg,AMNE13.jpg,MN,1,num_4,16,num_4,1.00014786096,,,2017_May_12_1104,60.0060240639,FEMA4ImagesEEG,001,200126,
AFNE01.JPG,AFNE01.JPG,AFNE01.JPG,AFNE01.JPG,AFNE01.JPG,AFNE01.JPG,,,,,,,,,,,,,4,8,48,7,,,,,,,,,,,AMSA02.jpg,AMNE03.jpg,AMSA07.jpg,AMNE15.jpg,AMSA07.jpg,MS,2,num_2,16,num_2,0.566792150494,,,2017_May_12_1104,60.0060240639,FEMA4ImagesEEG,001,200126,
AFNE01.JPG,AFNE01.JPG,AFNE01.JPG,AFNE01.JPG,AFNE01.JPG,AFNE01.JPG,,,,,,,,,,,,,4,9,49,6,,,,,,,,,,,AMSA10.jpg,AMNE04.jpg,AMSA02.jpg,AMNE02.jpg,AMNE02.jpg,MN,1,num_4,16,num_4,0.716772312764,,,2017_May_12_1104,60.0060240639,FEMA4ImagesEEG,001,200126,
AFNE01.JPG,AFNE01.JPG,AFNE01.JPG,AFNE01.JPG,AFNE01.JPG,AFNE01.JPG,,,,,,,,,,,,,5,0,50,2,,,,,,,,,,,AMNE02.jpg,AMSA04.jpg,AMSA08.jpg,AMNE03.jpg,AMSA04.jpg,MS,2,num_6,16,num_6,0.466738555115,,,2017_May_12_1104,60.0060240639,FEMA4ImagesEEG,001,200126,
AFNE01.JPG,AFNE01.JPG,AFNE01.JPG,AFNE01.JPG,AFNE01.JPG,AFNE01.JPG,,,,,,,,,,,,,5,1,51,1,,,,,,,,,,,AMNE19.jpg,AMSA15.jpg,AMNE03.jpg,AMSA13.jpg,AMSA15.jpg,MS,2,num_6,32,num_2,0.700091955718,,,2017_May_12_1104,60.0060240639,FEMA4ImagesEEG,001,200126,
AFNE01.JPG,AFNE01.JPG,AFNE01.JPG,AFNE01.JPG,AFNE01.JPG,AFNE01.JPG,,,,,,,,,,,,,5,2,52,7,,,,,,,,,,,AMNE19.jpg,AMSA10.jpg,AMSA01.jpg,AMNE18.jpg,AMNE19.jpg,MN,1,num_8,16,num_8,0.417075635865,,,2017_May_12_1104,60.0060240639,FEMA4ImagesEEG,001,200126,
AFNE01.JPG,AFNE01.JPG,AFNE01.JPG,AFNE01.JPG,AFNE01.JPG,AFNE01.JPG,,,,,,,,,,,,,5,3,53,8,,,,,,,,,,,AMNE02.jpg,AMSA02.jpg,AMNE15.jpg,AMSA09.jpg,AMSA09.jpg,MS,2,num_4,16,num_4,0.400185836013,,,2017_May_12_1104,60.0060240639,FEMA4ImagesEEG,001,200126,
AFNE01.JPG,AFNE01.JPG,AFNE01.JPG,AFNE01.JPG,AFNE01.JPG,AFNE01.JPG,,,,,,,,,,,,,5,4,54,4,,,,,,,,,,,AMNE05.jpg,AMSA10.jpg,AMNE17.jpg,AMSA18.jpg,AMNE17.jpg,MN,1,num_2,32,num_8,0.900109660346,,,2017_May_12_1104,60.0060240639,FEMA4ImagesEEG,001,200126,
AFNE01.JPG,AFNE01.JPG,AFNE01.JPG,AFNE01.JPG,AFNE01.JPG,AFNE01.JPG,,,,,,,,,,,,,5,5,55,6,,,,,,,,,,,AMSA15.jpg,AMSA05.jpg,AMNE17.jpg,AMNE02.jpg,AMNE02.jpg,MN,1,num_4,16,num_4,0.583332344424,,,2017_May_12_1104,60.0060240639,FEMA4ImagesEEG,001,200126,
AFNE01.JPG,AFNE01.JPG,AFNE01.JPG,AFNE01.JPG,AFNE01.JPG,AFNE01.JPG,,,,,,,,,,,,,5,6,56,3,,,,,,,,,,,AMNE11.jpg,AMNE02.jpg,AMSA06.jpg,AMSA20.jpg,AMSA06.jpg,MS,2,num_2,16,num_2,0.483548169956,,,2017_May_12_1104,60.0060240639,FEMA4ImagesEEG,001,200126,
AFNE01.JPG,AFNE01.JPG,AFNE01.JPG,AFNE01.JPG,AFNE01.JPG,AFNE01.JPG,,,,,,,,,,,,,5,7,57,9,,,,,,,,,,,AMSA15.jpg,AMNE03.jpg,AMSA05.jpg,AMNE18.jpg,AMSA05.jpg,MS,2,num_2,16,num_2,1.1335762823,,,2017_May_12_1104,60.0060240639,FEMA4ImagesEEG,001,200126,
AFNE01.JPG,AFNE01.JPG,AFNE01.JPG,AFNE01.JPG,AFNE01.JPG,AFNE01.JPG,,,,,,,,,,,,,5,8,58,0,,,,,,,,,,,AMSA07.jpg,AMNE11.jpg,AMNE04.jpg,AMSA15.jpg,AMNE11.jpg,MN,1,num_6,32,num_2,1.00014689844,,,2017_May_12_1104,60.0060240639,FEMA4ImagesEEG,001,200126,
AFNE01.JPG,AFNE01.JPG,AFNE01.JPG,AFNE01.JPG,AFNE01.JPG,AFNE01.JPG,,,,,,,,,,,,,5,9,59,5,,,,,,,,,,,AMSA09.jpg,AMNE16.jpg,AMSA10.jpg,AMNE12.jpg,AMSA10.jpg,MS,2,num_2,16,num_2,0.683282020502,,,2017_May_12_1104,60.0060240639,FEMA4ImagesEEG,001,200126,
,,,,,,,,,,,,,,,,,,,,,,,,,,,,,,,,,,,,,,,,,,,space,11.915610339,2017_May_12_1104,60.0060240639,FEMA4ImagesEEG,001,200126,
AFNE01.JPG,AFNE01.JPG,AFNE01.JPG,AFNE01.JPG,AFNE01.JPG,AFNE01.JPG,,,,,,,,,,,,,,,,,0,0,0,2,,,,,,,AFSA02.jpg,AFSA05.jpg,AFNE01.jpg,AFNE11.jpg,AFSA02.jpg,FS,4,num_8,16,num_8,0.700132048223,,,2017_May_12_1104,60.0060240639,FEMA4ImagesEEG,001,200126,
AFNE01.JPG,AFNE01.JPG,AFNE01.JPG,AFNE01.JPG,AFNE01.JPG,AFNE01.JPG,,,,,,,,,,,,,,,,,0,1,1,0,,,,,,,AFNE14.jpg,AFSA03.jpg,AFNE09.jpg,AFSA13.jpg,AFNE14.jpg,FN,3,num_8,16,num_8,0.916903879959,,,2017_May_12_1104,60.0060240639,FEMA4ImagesEEG,001,200126,
AFNE01.JPG,AFNE01.JPG,AFNE01.JPG,AFNE01.JPG,AFNE01.JPG,AFNE01.JPG,,,,,,,,,,,,,,,,,0,2,2,5,,,,,,,AFSA03.jpg,AFSA15.jpg,AFNE03.jpg,AFNE19.jpg,AFNE19.jpg,FN,3,num_4,16,num_4,0.750097745564,,,2017_May_12_1104,60.0060240639,FEMA4ImagesEEG,001,200126,
AFNE01.JPG,AFNE01.JPG,AFNE01.JPG,AFNE01.JPG,AFNE01.JPG,AFNE01.JPG,,,,,,,,,,,,,,,,,0,3,3,6,,,,,,,AFSA11.jpg,AFSA14.jpg,AFNE01.jpg,AFNE15.jpg,AFNE15.jpg,FN,3,num_4,16,num_4,0.700114727952,,,2017_May_12_1104,60.0060240639,FEMA4ImagesEEG,001,200126,
AFNE01.JPG,AFNE01.JPG,AFNE01.JPG,AFNE01.JPG,AFNE01.JPG,AFNE01.JPG,,,,,,,,,,,,,,,,,0,4,4,7,,,,,,,AFSA14.jpg,AFSA01.jpg,AFNE01.jpg,AFNE18.jpg,AFNE18.jpg,FN,3,num_4,16,num_4,0.73345234897,,,2017_May_12_1104,60.0060240639,FEMA4ImagesEEG,001,200126,
AFNE01.JPG,AFNE01.JPG,AFNE01.JPG,AFNE01.JPG,AFNE01.JPG,AFNE01.JPG,,,,,,,,,,,,,,,,,0,5,5,8,,,,,,,AFSA18.jpg,AFNE19.jpg,AFNE10.jpg,AFSA17.jpg,AFNE19.jpg,FN,3,num_6,16,num_6,0.783490212169,,,2017_May_12_1104,60.0060240639,FEMA4ImagesEEG,001,200126,
AFNE01.JPG,AFNE01.JPG,AFNE01.JPG,AFNE01.JPG,AFNE01.JPG,AFNE01.JPG,,,,,,,,,,,,,,,,,0,6,6,3,,,,,,,AFNE09.jpg,AFSA18.jpg,AFSA02.jpg,AFNE17.jpg,AFSA18.jpg,FS,4,num_6,32,num_2,0.633592159022,,,2017_May_12_1104,60.0060240639,FEMA4ImagesEEG,001,200126,
AFNE01.JPG,AFNE01.JPG,AFNE01.JPG,AFNE01.JPG,AFNE01.JPG,AFNE01.JPG,,,,,,,,,,,,,,,,,0,7,7,4,,,,,,,AFNE12.jpg,AFSA10.jpg,AFSA17.jpg,AFNE01.jpg,AFNE01.jpg,FN,3,num_4,16,num_4,0.600149977487,,,2017_May_12_1104,60.0060240639,FEMA4ImagesEEG,001,200126,
AFNE01.JPG,AFNE01.JPG,AFNE01.JPG,AFNE01.JPG,AFNE01.JPG,AFNE01.JPG,,,,,,,,,,,,,,,,,0,8,8,9,,,,,,,AFNE15.jpg,AFSA03.jpg,AFNE14.jpg,AFSA05.jpg,AFSA05.jpg,FS,4,num_4,16,num_4,0.933302948717,,,2017_May_12_1104,60.0060240639,FEMA4ImagesEEG,001,200126,
AFNE01.JPG,AFNE01.JPG,AFNE01.JPG,AFNE01.JPG,AFNE01.JPG,AFNE01.JPG,,,,,,,,,,,,,,,,,0,9,9,1,,,,,,,AFSA10.jpg,AFNE08.jpg,AFSA07.jpg,AFNE14.jpg,AFNE08.jpg,FN,3,num_6,32,num_4,0.833452380728,,,2017_May_12_1104,60.0060240639,FEMA4ImagesEEG,001,200126,
AFNE01.JPG,AFNE01.JPG,AFNE01.JPG,AFNE01.JPG,AFNE01.JPG,AFNE01.JPG,,,,,,,,,,,,,,,,,1,0,10,6,,,,,,,AFNE17.jpg,AFSA06.jpg,AFNE08.jpg,AFSA02.jpg,AFNE08.jpg,FN,3,num_2,16,num_2,1.18341175932,,,2017_May_12_1104,60.0060240639,FEMA4ImagesEEG,001,200126,
AFNE01.JPG,AFNE01.JPG,AFNE01.JPG,AFNE01.JPG,AFNE01.JPG,AFNE01.JPG,,,,,,,,,,,,,,,,,1,1,11,9,,,,,,,AFSA19.jpg,AFNE06.jpg,AFNE07.jpg,AFSA18.jpg,AFSA18.jpg,FS,4,num_4,16,num_4,0.616806920618,,,2017_May_12_1104,60.0060240639,FEMA4ImagesEEG,001,200126,
AFNE01.JPG,AFNE01.JPG,AFNE01.JPG,AFNE01.JPG,AFNE01.JPG,AFNE01.JPG,,,,,,,,,,,,,,,,,1,2,12,7,,,,,,,AFSA01.jpg,AFSA03.jpg,AFNE08.jpg,AFNE19.jpg,AFSA03.jpg,FS,4,num_6,16,num_6,0.600194239523,,,2017_May_12_1104,60.0060240639,FEMA4ImagesEEG,001,200126,
AFNE01.JPG,AFNE01.JPG,AFNE01.JPG,AFNE01.JPG,AFNE01.JPG,AFNE01.JPG,,,,,,,,,,,,,,,,,1,3,13,4,,,,,,,AFSA11.jpg,AFSA05.jpg,AFNE13.jpg,AFNE15.jpg,AFNE15.jpg,FN,3,num_4,16,num_4,0.550178186968,,,2017_May_12_1104,60.0060240639,FEMA4ImagesEEG,001,200126,
AFNE01.JPG,AFNE01.JPG,AFNE01.JPG,AFNE01.JPG,AFNE01.JPG,AFNE01.JPG,,,,,,,,,,,,,,,,,1,4,14,5,,,,,,,AFSA02.jpg,AFSA06.jpg,AFNE14.jpg,AFNE11.jpg,AFNE14.jpg,FN,3,num_2,32,num_6,0.566762001254,,,2017_May_12_1104,60.0060240639,FEMA4ImagesEEG,001,200126,
AFNE01.JPG,AFNE01.JPG,AFNE01.JPG,AFNE01.JPG,AFNE01.JPG,AFNE01.JPG,,,,,,,,,,,,,,,,,1,5,15,3,,,,,,,AFNE13.jpg,AFSA17.jpg,AFNE05.jpg,AFSA20.jpg,AFNE05.jpg,FN,3,num_2,32,num_8,0.850094249006,,,2017_May_12_1104,60.0060240639,FEMA4ImagesEEG,001,200126,
AFNE01.JPG,AFNE01.JPG,AFNE01.JPG,AFNE01.JPG,AFNE01.JPG,AFNE01.JPG,,,,,,,,,,,,,,,,,1,6,16,2,,,,,,,AFSA16.jpg,AFNE20.jpg,AFSA04.jpg,AFNE19.jpg,AFNE20.jpg,FN,3,num_6,16,num_6,0.633458731696,,,2017_May_12_1104,60.0060240639,FEMA4ImagesEEG,001,200126,
AFNE01.JPG,AFNE01.JPG,AFNE01.JPG,AFNE01.JPG,AFNE01.JPG,AFNE01.JPG,,,,,,,,,,,,,,,,,1,7,17,8,,,,,,,AFNE18.jpg,AFSA02.jpg,AFNE01.jpg,AFSA01.jpg,AFSA01.jpg,FS,4,num_4,16,num_4,0.750156761147,,,2017_May_12_1104,60.0060240639,FEMA4ImagesEEG,001,200126,
AFNE01.JPG,AFNE01.JPG,AFNE01.JPG,AFNE01.JPG,AFNE01.JPG,AFNE01.JPG,,,,,,,,,,,,,,,,,1,8,18,0,,,,,,,AFSA18.jpg,AFNE01.jpg,AFNE07.jpg,AFSA10.jpg,AFSA18.jpg,FS,4,num_8,32,num_6,0.683457785286,,,2017_May_12_1104,60.0060240639,FEMA4ImagesEEG,001,200126,
AFNE01.JPG,AFNE01.JPG,AFNE01.JPG,AFNE01.JPG,AFNE01.JPG,AFNE01.JPG,,,,,,,,,,,,,,,,,1,9,19,1,,,,,,,AFNE07.jpg,AFSA15.jpg,AFSA03.jpg,AFNE16.jpg,AFNE07.jpg,FN,3,num_8,16,num_8,0.71687270375,,,2017_May_12_1104,60.0060240639,FEMA4ImagesEEG,001,200126,
AFNE01.JPG,AFNE01.JPG,AFNE01.JPG,AFNE01.JPG,AFNE01.JPG,AFNE01.JPG,,,,,,,,,,,,,,,,,2,0,20,9,,,,,,,AFNE17.jpg,AFSA16.jpg,AFSA14.jpg,AFNE05.jpg,AFSA16.jpg,FS,4,num_6,16,num_6,0.600148053374,,,2017_May_12_1104,60.0060240639,FEMA4ImagesEEG,001,200126,
AFNE01.JPG,AFNE01.JPG,AFNE01.JPG,AFNE01.JPG,AFNE01.JPG,AFNE01.JPG,,,,,,,,,,,,,,,,,2,1,21,6,,,,,,,AFNE10.jpg,AFSA09.jpg,AFSA03.jpg,AFNE05.jpg,AFNE05.jpg,FN,3,num_4,16,num_4,0.599682339933,,,2017_May_12_1104,60.0060240639,FEMA4ImagesEEG,001,200126,
AFNE01.JPG,AFNE01.JPG,AFNE01.JPG,AFNE01.JPG,AFNE01.JPG,AFNE01.JPG,,,,,,,,,,,,,,,,,2,2,22,7,,,,,,,AFNE12.jpg,AFSA04.jpg,AFNE06.jpg,AFSA15.jpg,AFNE12.jpg,FN,3,num_8,16,num_8,0.616815901361,,,2017_May_12_1104,60.0060240639,FEMA4ImagesEEG,001,200126,
AFNE01.JPG,AFNE01.JPG,AFNE01.JPG,AFNE01.JPG,AFNE01.JPG,AFNE01.JPG,,,,,,,,,,,,,,,,,2,3,23,0,,,,,,,AFNE15.jpg,AFSA10.jpg,AFSA16.jpg,AFNE20.jpg,AFNE20.jpg,FN,3,num_4,16,num_4,0.716774878558,,,2017_May_12_1104,60.0060240639,FEMA4ImagesEEG,001,200126,
AFNE01.JPG,AFNE01.JPG,AFNE01.JPG,AFNE01.JPG,AFNE01.JPG,AFNE01.JPG,,,,,,,,,,,,,,,,,2,4,24,4,,,,,,,AFNE04.jpg,AFSA12.jpg,AFSA17.jpg,AFNE11.jpg,AFSA17.jpg,FS,4,num_2,16,num_2,0.933405905962,,,2017_May_12_1104,60.0060240639,FEMA4ImagesEEG,001,200126,
AFNE01.JPG,AFNE01.JPG,AFNE01.JPG,AFNE01.JPG,AFNE01.JPG,AFNE01.JPG,,,,,,,,,,,,,,,,,2,5,25,3,,,,,,,AFNE03.jpg,AFSA18.jpg,AFSA12.jpg,AFNE04.jpg,AFSA12.jpg,FS,4,num_2,16,num_2,0.683454898652,,,2017_May_12_1104,60.0060240639,FEMA4ImagesEEG,001,200126,
AFNE01.JPG,AFNE01.JPG,AFNE01.JPG,AFNE01.JPG,AFNE01.JPG,AFNE01.JPG,,,,,,,,,,,,,,,,,2,6,26,1,,,,,,,AFSA02.jpg,AFNE01.jpg,AFSA01.jpg,AFNE18.jpg,AFNE18.jpg,FN,3,num_4,16,num_4,0.500159888528,,,2017_May_12_1104,60.0060240639,FEMA4ImagesEEG,001,200126,
AFNE01.JPG,AFNE01.JPG,AFNE01.JPG,AFNE01.JPG,AFNE01.JPG,AFNE01.JPG,,,,,,,,,,,,,,,,,2,7,27,5,,,,,,,AFNE04.jpg,AFSA18.jpg,AFSA02.jpg,AFNE07.jpg,AFSA18.jpg,FS,4,num_6,32,num_2,0.600123035721,,,2017_May_12_1104,60.0060240639,FEMA4ImagesEEG,001,200126,
AFNE01.JPG,AFNE01.JPG,AFNE01.JPG,AFNE01.JPG,AFNE01.JPG,AFNE01.JPG,,,,,,,,,,,,,,,,,2,8,28,2,,,,,,,AFNE13.jpg,AFSA15.jpg,AFSA11.jpg,AFNE05.jpg,AFNE13.jpg,FN,3,num_8,16,num_8,0.450118497014,,,2017_May_12_1104,60.0060240639,FEMA4ImagesEEG,001,200126,
AFNE01.JPG,AFNE01.JPG,AFNE01.JPG,AFNE01.JPG,AFNE01.JPG,AFNE01.JPG,,,,,,,,,,,,,,,,,2,9,29,8,,,,,,,AFSA03.jpg,AFNE19.jpg,AFSA16.jpg,AFNE15.jpg,AFSA03.jpg,FS,4,num_8,32,num_6,0.633410941344,,,2017_May_12_1104,60.0060240639,FEMA4ImagesEEG,001,200126,
AFNE01.JPG,AFNE01.JPG,AFNE01.JPG,AFNE01.JPG,AFNE01.JPG,AFNE01.JPG,,,,,,,,,,,,,,,,,3,0,30,6,,,,,,,AFNE03.jpg,AFNE11.jpg,AFSA08.jpg,AFSA05.jpg,AFSA08.jpg,FS,4,num_2,32,num_6,0.866822075099,,,2017_May_12_1104,60.0060240639,FEMA4ImagesEEG,001,200126,
AFNE01.JPG,AFNE01.JPG,AFNE01.JPG,AFNE01.JPG,AFNE01.JPG,AFNE01.JPG,,,,,,,,,,,,,,,,,3,1,31,3,,,,,,,AFSA14.jpg,AFNE16.jpg,AFNE12.jpg,AFSA12.jpg,AFSA12.jpg,FS,4,num_4,16,num_4,0.566858543549,,,2017_May_12_1104,60.0060240639,FEMA4ImagesEEG,001,200126,
AFNE01.JPG,AFNE01.JPG,AFNE01.JPG,AFNE01.JPG,AFNE01.JPG,AFNE01.JPG,,,,,,,,,,,,,,,,,3,2,32,5,,,,,,,AFNE18.jpg,AFNE03.jpg,AFSA06.jpg,AFSA11.jpg,AFSA06.jpg,FS,4,num_2,32,num_6,1.0335133858,,,2017_May_12_1104,60.0060240639,FEMA4ImagesEEG,001,200126,
AFNE01.JPG,AFNE01.JPG,AFNE01.JPG,AFNE01.JPG,AFNE01.JPG,AFNE01.JPG,,,,,,,,,,,,,,,,,3,3,33,9,,,,,,,AFSA04.jpg,AFSA08.jpg,AFNE16.jpg,AFNE17.jpg,AFSA04.jpg,FS,4,num_8,16,num_8,0.850102909375,,,2017_May_12_1104,60.0060240639,FEMA4ImagesEEG,001,200126,
AFNE01.JPG,AFNE01.JPG,AFNE01.JPG,AFNE01.JPG,AFNE01.JPG,AFNE01.JPG,,,,,,,,,,,,,,,,,3,4,34,0,,,,,,,AFNE01.jpg,AFNE11.jpg,AFSA04.jpg,AFSA09.jpg,AFNE11.jpg,FN,3,num_6,16,num_6,0.583494638093,,,2017_May_12_1104,60.0060240639,FEMA4ImagesEEG,001,200126,
AFNE01.JPG,AFNE01.JPG,AFNE01.JPG,AFNE01.JPG,AFNE01.JPG,AFNE01.JPG,,,,,,,,,,,,,,,,,3,5,35,1,,,,,,,AFSA19.jpg,AFNE19.jpg,AFNE06.jpg,AFSA07.jpg,AFSA19.jpg,FS,4,num_8,32,num_6,0.75009517977,,,2017_May_12_1104,60.0060240639,FEMA4ImagesEEG,001,200126,
AFNE01.JPG,AFNE01.JPG,AFNE01.JPG,AFNE01.JPG,AFNE01.JPG,AFNE01.JPG,,,,,,,,,,,,,,,,,3,6,36,4,,,,,,,AFSA13.jpg,AFNE13.jpg,AFNE15.jpg,AFSA18.jpg,AFSA18.jpg,FS,4,num_4,16,num_4,0.783446591347,,,2017_May_12_1104,60.0060240639,FEMA4ImagesEEG,001,200126,
AFNE01.JPG,AFNE01.JPG,AFNE01.JPG,AFNE01.JPG,AFNE01.JPG,AFNE01.JPG,,,,,,,,,,,,,,,,,3,7,37,2,,,,,,,AFNE06.jpg,AFNE07.jpg,AFSA07.jpg,AFSA20.jpg,AFSA20.jpg,FS,4,num_4,32,num_2,0.700103823096,,,2017_May_12_1104,60.0060240639,FEMA4ImagesEEG,001,200126,
AFNE01.JPG,AFNE01.JPG,AFNE01.JPG,AFNE01.JPG,AFNE01.JPG,AFNE01.JPG,,,,,,,,,,,,,,,,,3,8,38,8,,,,,,,AFNE12.jpg,AFSA12.jpg,AFNE05.jpg,AFSA17.jpg,AFSA12.jpg,FS,4,num_6,16,num_6,0.850149416365,,,2017_May_12_1104,60.0060240639,FEMA4ImagesEEG,001,200126,
AFNE01.JPG,AFNE01.JPG,AFNE01.JPG,AFNE01.JPG,AFNE01.JPG,AFNE01.JPG,,,,,,,,,,,,,,,,,3,9,39,7,,,,,,,AFSA19.jpg,AFNE17.jpg,AFSA16.jpg,AFNE18.jpg,AFNE18.jpg,FN,3,num_4,16,num_4,0.75009197183,,,2017_May_12_1104,60.0060240639,FEMA4ImagesEEG,001,200126,
AFNE01.JPG,AFNE01.JPG,AFNE01.JPG,AFNE01.JPG,AFNE01.JPG,AFNE01.JPG,,,,,,,,,,,,,,,,,4,0,40,9,,,,,,,AFNE13.jpg,AFSA05.jpg,AFNE05.jpg,AFSA09.jpg,AFNE05.jpg,FN,3,num_2,32,num_4,0.650110542309,,,2017_May_12_1104,60.0060240639,FEMA4ImagesEEG,001,200126,
AFNE01.JPG,AFNE01.JPG,AFNE01.JPG,AFNE01.JPG,AFNE01.JPG,AFNE01.JPG,,,,,,,,,,,,,,,,,4,1,41,3,,,,,,,AFNE03.jpg,AFSA20.jpg,AFNE12.jpg,AFSA16.jpg,AFSA16.jpg,FS,4,num_4,32,num_2,0.783392066136,,,2017_May_12_1104,60.0060240639,FEMA4ImagesEEG,001,200126,
AFNE01.JPG,AFNE01.JPG,AFNE01.JPG,AFNE01.JPG,AFNE01.JPG,AFNE01.JPG,,,,,,,,,,,,,,,,,4,2,42,0,,,,,,,AFNE15.jpg,AFSA11.jpg,AFNE02.jpg,AFSA02.jpg,AFSA11.jpg,FS,4,num_6,16,num_6,0.500195169821,,,2017_May_12_1104,60.0060240639,FEMA4ImagesEEG,001,200126,
AFNE01.JPG,AFNE01.JPG,AFNE01.JPG,AFNE01.JPG,AFNE01.JPG,AFNE01.JPG,,,,,,,,,,,,,,,,,4,3,43,5,,,,,,,AFNE11.jpg,AFSA18.jpg,AFSA14.jpg,AFNE09.jpg,AFSA18.jpg,FS,4,num_6,16,num_6,0.783429913223,,,2017_May_12_1104,60.0060240639,FEMA4ImagesEEG,001,200126,
AFNE01.JPG,AFNE01.JPG,AFNE01.JPG,AFNE01.JPG,AFNE01.JPG,AFNE01.JPG,,,,,,,,,,,,,,,,,4,4,44,1,,,,,,,AFNE08.jpg,AFSA20.jpg,AFNE16.jpg,AFSA19.jpg,AFNE08.jpg,FN,3,num_8,16,num_8,0.466790835839,,,2017_May_12_1104,60.0060240639,FEMA4ImagesEEG,001,200126,
AFNE01.JPG,AFNE01.JPG,AFNE01.JPG,AFNE01.JPG,AFNE01.JPG,AFNE01.JPG,,,,,,,,,,,,,,,,,4,5,45,2,,,,,,,AFSA17.jpg,AFSA04.jpg,AFNE13.jpg,AFNE10.jpg,AFNE10.jpg,FN,3,num_4,16,num_4,0.683518084232,,,2017_May_12_1104,60.0060240639,FEMA4ImagesEEG,001,200126,
AFNE01.JPG,AFNE01.JPG,AFNE01.JPG,AFNE01.JPG,AFNE01.JPG,AFNE01.JPG,,,,,,,,,,,,,,,,,4,6,46,8,,,,,,,AFNE17.jpg,AFSA05.jpg,AFNE07.jpg,AFSA08.jpg,AFNE07.jpg,FN,3,num_2,32,num_4,0.616822957527,,,2017_May_12_1104,60.0060240639,FEMA4ImagesEEG,001,200126,
AFNE01.JPG,AFNE01.JPG,AFNE01.JPG,AFNE01.JPG,AFNE01.JPG,AFNE01.JPG,,,,,,,,,,,,,,,,,4,7,47,6,,,,,,,AFNE04.jpg,AFSA09.jpg,AFNE15.jpg,AFSA19.jpg,AFNE04.jpg,FN,3,num_8,32,num_2,0.900084322318,,,2017_May_12_1104,60.0060240639,FEMA4ImagesEEG,001,200126,
AFNE01.JPG,AFNE01.JPG,AFNE01.JPG,AFNE01.JPG,AFNE01.JPG,AFNE01.JPG,,,,,,,,,,,,,,,,,4,8,48,7,,,,,,,AFNE06.jpg,AFNE07.jpg,AFSA12.jpg,AFSA13.jpg,AFNE06.jpg,FN,3,num_8,32,num_6,0.716771671083,,,2017_May_12_1104,60.0060240639,FEMA4ImagesEEG,001,200126,
AFNE01.JPG,AFNE01.JPG,AFNE01.JPG,AFNE01.JPG,AFNE01.JPG,AFNE01.JPG,,,,,,,,,,,,,,,,,4,9,49,4,,,,,,,AFSA09.jpg,AFNE19.jpg,AFNE16.jpg,AFSA17.jpg,AFSA09.jpg,FS,4,num_8,32,num_4,0.666760108434,,,2017_May_12_1104,60.0060240639,FEMA4ImagesEEG,001,200126,
AFNE01.JPG,AFNE01.JPG,AFNE01.JPG,AFNE01.JPG,AFNE01.JPG,AFNE01.JPG,,,,,,,,,,,,,,,,,5,0,50,4,,,,,,,AFSA17.jpg,AFSA13.jpg,AFNE03.jpg,AFNE18.jpg,AFSA17.jpg,FS,4,num_8,32,num_2,0.733583210502,,,2017_May_12_1104,60.0060240639,FEMA4ImagesEEG,001,200126,
AFNE01.JPG,AFNE01.JPG,AFNE01.JPG,AFNE01.JPG,AFNE01.JPG,AFNE01.JPG,,,,,,,,,,,,,,,,,5,1,51,1,,,,,,,AFNE14.jpg,AFNE13.jpg,AFSA08.jpg,AFSA16.jpg,AFNE13.jpg,FN,3,num_6,16,num_6,0.733453311492,,,2017_May_12_1104,60.0060240639,FEMA4ImagesEEG,001,200126,
AFNE01.JPG,AFNE01.JPG,AFNE01.JPG,AFNE01.JPG,AFNE01.JPG,AFNE01.JPG,,,,,,,,,,,,,,,,,5,2,52,6,,,,,,,AFNE19.jpg,AFSA02.jpg,AFNE02.jpg,AFSA01.jpg,AFNE19.jpg,FN,3,num_8,32,num_6,0.616796336137,,,2017_May_12_1104,60.0060240639,FEMA4ImagesEEG,001,200126,
AFNE01.JPG,AFNE01.JPG,AFNE01.JPG,AFNE01.JPG,AFNE01.JPG,AFNE01.JPG,,,,,,,,,,,,,,,,,5,3,53,0,,,,,,,AFSA20.jpg,AFNE08.jpg,AFSA17.jpg,AFNE01.jpg,AFSA17.jpg,FS,4,num_2,16,num_2,0.716765256599,,,2017_May_12_1104,60.0060240639,FEMA4ImagesEEG,001,200126,
AFNE01.JPG,AFNE01.JPG,AFNE01.JPG,AFNE01.JPG,AFNE01.JPG,AFNE01.JPG,,,,,,,,,,,,,,,,,5,4,54,5,,,,,,,AFSA13.jpg,AFNE13.jpg,AFSA14.jpg,AFNE02.jpg,AFNE02.jpg,FN,3,num_4,16,num_4,0.466766138561,,,2017_May_12_1104,60.0060240639,FEMA4ImagesEEG,001,200126,
AFNE01.JPG,AFNE01.JPG,AFNE01.JPG,AFNE01.JPG,AFNE01.JPG,AFNE01.JPG,,,,,,,,,,,,,,,,,5,5,55,2,,,,,,,AFNE17.jpg,AFNE14.jpg,AFSA16.jpg,AFSA11.jpg,AFSA11.jpg,FS,4,num_4,16,num_4,0.650258082896,,,2017_May_12_1104,60.0060240639,FEMA4ImagesEEG,001,200126,
AFNE01.JPG,AFNE01.JPG,AFNE01.JPG,AFNE01.JPG,AFNE01.JPG,AFNE01.JPG,,,,,,,,,,,,,,,,,5,6,56,9,,,,,,,AFNE19.jpg,AFSA15.jpg,AFNE15.jpg,AFSA05.jpg,AFNE19.jpg,FN,3,num_8,32,num_2,1.00007088343,,,2017_May_12_1104,60.0060240639,FEMA4ImagesEEG,001,200126,
AFNE01.JPG,AFNE01.JPG,AFNE01.JPG,AFNE01.JPG,AFNE01.JPG,AFNE01.JPG,,,,,,,,,,,,,,,,,5,7,57,3,,,,,,,AFNE05.jpg,AFNE08.jpg,AFSA08.jpg,AFSA12.jpg,AFNE05.jpg,FN,3,num_8,32,num_2,0.733598927036,,,2017_May_12_1104,60.0060240639,FEMA4ImagesEEG,001,200126,
AFNE01.JPG,AFNE01.JPG,AFNE01.JPG,AFNE01.JPG,AFNE01.JPG,AFNE01.JPG,,,,,,,,,,,,,,,,,5,8,58,7,,,,,,,AFNE10.jpg,AFSA05.jpg,AFSA06.jpg,AFNE14.jpg,AFSA06.jpg,FS,4,num_2,16,num_2,0.650140050799,,,2017_May_12_1104,60.0060240639,FEMA4ImagesEEG,001,200126,
AFNE01.JPG,AFNE01.JPG,AFNE01.JPG,AFNE01.JPG,AFNE01.JPG,AFNE01.JPG,,,,,,,,,,,,,,,,,5,9,59,8,,,,,,,AFSA13.jpg,AFNE06.jpg,AFSA07.jpg,AFNE15.jpg,AFNE06.jpg,FN,3,num_6,32,num_4,0.566951237153,,,2017_May_12_1104,60.0060240639,FEMA4ImagesEEG,001,200126,
,,,,,,,,,,,,,,,,,,,,,,,,,,,,,,,,,,,,,,,,,,,space,10.1163173122,2017_May_12_1104,60.0060240639,FEMA4ImagesEEG,001,200126,
AFNE01.JPG,AFNE01.JPG,AFNE01.JPG,AFNE01.JPG,AFNE01.JPG,AFNE01.JPG,,,,,,,,,,,,,,,,,,,,,0,0,0,8,,,AMNE08.jpg,AMNE05.jpg,AMSA11.jpg,AMSA13.jpg,AMNE08.jpg,MN,1,num_8,32,num_6,0.666763315909,,,2017_May_12_1104,60.0060240639,FEMA4ImagesEEG,001,200126,
AFNE01.JPG,AFNE01.JPG,AFNE01.JPG,AFNE01.JPG,AFNE01.JPG,AFNE01.JPG,,,,,,,,,,,,,,,,,,,,,0,1,1,0,,,AMNE13.jpg,AMNE04.jpg,AMSA04.jpg,AMSA15.jpg,AMNE13.jpg,MN,1,num_8,16,num_8,0.716766218655,,,2017_May_12_1104,60.0060240639,FEMA4ImagesEEG,001,200126,
AFNE01.JPG,AFNE01.JPG,AFNE01.JPG,AFNE01.JPG,AFNE01.JPG,AFNE01.JPG,,,,,,,,,,,,,,,,,,,,,0,2,2,6,,,AMNE14.jpg,AMSA06.jpg,AMSA03.jpg,AMNE20.jpg,AMSA06.jpg,MS,2,num_6,16,num_6,0.583482770715,,,2017_May_12_1104,60.0060240639,FEMA4ImagesEEG,001,200126,
AFNE01.JPG,AFNE01.JPG,AFNE01.JPG,AFNE01.JPG,AFNE01.JPG,AFNE01.JPG,,,,,,,,,,,,,,,,,,,,,0,3,3,2,,,AMNE12.jpg,AMSA19.jpg,AMSA14.jpg,AMNE05.jpg,AMNE12.jpg,MN,1,num_8,32,num_4,0.816762081347,,,2017_May_12_1104,60.0060240639,FEMA4ImagesEEG,001,200126,
AFNE01.JPG,AFNE01.JPG,AFNE01.JPG,AFNE01.JPG,AFNE01.JPG,AFNE01.JPG,,,,,,,,,,,,,,,,,,,,,0,4,4,9,,,AMSA01.jpg,AMSA18.jpg,AMNE12.jpg,AMNE19.jpg,AMSA18.jpg,MS,2,num_6,16,num_6,0.599982551765,,,2017_May_12_1104,60.0060240639,FEMA4ImagesEEG,001,200126,
AFNE01.JPG,AFNE01.JPG,AFNE01.JPG,AFNE01.JPG,AFNE01.JPG,AFNE01.JPG,,,,,,,,,,,,,,,,,,,,,0,5,5,3,,,AMSA14.jpg,AMNE06.jpg,AMSA01.jpg,AMNE03.jpg,AMSA01.jpg,MS,2,num_2,16,num_2,0.683474143036,,,2017_May_12_1104,60.0060240639,FEMA4ImagesEEG,001,200126,
AFNE01.JPG,AFNE01.JPG,AFNE01.JPG,AFNE01.JPG,AFNE01.JPG,AFNE01.JPG,,,,,,,,,,,,,,,,,,,,,0,6,6,7,,,AMSA01.jpg,AMNE19.jpg,AMSA20.jpg,AMNE04.jpg,AMNE04.jpg,MN,1,num_4,16,num_4,0.549810619559,,,2017_May_12_1104,60.0060240639,FEMA4ImagesEEG,001,200126,
AFNE01.JPG,AFNE01.JPG,AFNE01.JPG,AFNE01.JPG,AFNE01.JPG,AFNE01.JPG,,,,,,,,,,,,,,,,,,,,,0,7,7,1,,,AMNE05.jpg,AMSA09.jpg,AMNE19.jpg,AMSA15.jpg,AMSA09.jpg,MS,2,num_6,32,num_4,0.533438493032,,,2017_May_12_1104,60.0060240639,FEMA4ImagesEEG,001,200126,
AFNE01.JPG,AFNE01.JPG,AFNE01.JPG,AFNE01.JPG,AFNE01.JPG,AFNE01.JPG,,,,,,,,,,,,,,,,,,,,,0,8,8,5,,,AMNE08.jpg,AMNE19.jpg,AMSA17.jpg,AMSA07.jpg,AMSA17.jpg,MS,2,num_2,32,num_6,0.633452637587,,,2017_May_12_1104,60.0060240639,FEMA4ImagesEEG,001,200126,
AFNE01.JPG,AFNE01.JPG,AFNE01.JPG,AFNE01.JPG,AFNE01.JPG,AFNE01.JPG,,,,,,,,,,,,,,,,,,,,,0,9,9,4,,,AMNE12.jpg,AMSA01.jpg,AMNE02.jpg,AMSA03.jpg,AMNE12.jpg,MN,1,num_8,16,num_8,0.76667867275,,,2017_May_12_1104,60.0060240639,FEMA4ImagesEEG,001,200126,
AFNE01.JPG,AFNE01.JPG,AFNE01.JPG,AFNE01.JPG,AFNE01.JPG,AFNE01.JPG,,,,,,,,,,,,,,,,,,,,,1,0,10,2,,,AMSA02.jpg,AMNE10.jpg,AMNE07.jpg,AMSA08.jpg,AMNE07.jpg,MN,1,num_2,16,num_2,0.566781245172,,,2017_May_12_1104,60.0060240639,FEMA4ImagesEEG,001,200126,
AFNE01.JPG,AFNE01.JPG,AFNE01.JPG,AFNE01.JPG,AFNE01.JPG,AFNE01.JPG,,,,,,,,,,,,,,,,,,,,,1,1,11,8,,,AMSA01.jpg,AMSA12.jpg,AMNE18.jpg,AMNE05.jpg,AMNE18.jpg,MN,1,num_2,32,num_8,0.950132769998,,,2017_May_12_1104,60.0060240639,FEMA4ImagesEEG,001,200126,
AFNE01.JPG,AFNE01.JPG,AFNE01.JPG,AFNE01.JPG,AFNE01.JPG,AFNE01.JPG,,,,,,,,,,,,,,,,,,,,,1,2,12,9,,,AMNE08.jpg,AMSA12.jpg,AMNE20.jpg,AMSA05.jpg,AMSA12.jpg,MS,2,num_6,16,num_6,0.633670740295,,,2017_May_12_1104,60.0060240639,FEMA4ImagesEEG,001,200126,
AFNE01.JPG,AFNE01.JPG,AFNE01.JPG,AFNE01.JPG,AFNE01.JPG,AFNE01.JPG,,,,,,,,,,,,,,,,,,,,,1,3,13,5,,,AMSA07.jpg,AMNE18.jpg,AMNE11.jpg,AMSA16.jpg,AMSA16.jpg,MS,2,num_4,16,num_4,0.66679057898,,,2017_May_12_1104,60.0060240639,FEMA4ImagesEEG,001,200126,
AFNE01.JPG,AFNE01.JPG,AFNE01.JPG,AFNE01.JPG,AFNE01.JPG,AFNE01.JPG,,,,,,,,,,,,,,,,,,,,,1,4,14,0,,,AMSA01.jpg,AMNE08.jpg,AMSA05.jpg,AMNE11.jpg,AMSA01.jpg,MS,2,num_8,16,num_8,0.85014652973,,,2017_May_12_1104,60.0060240639,FEMA4ImagesEEG,001,200126,
AFNE01.JPG,AFNE01.JPG,AFNE01.JPG,AFNE01.JPG,AFNE01.JPG,AFNE01.JPG,,,,,,,,,,,,,,,,,,,,,1,5,15,6,,,AMSA10.jpg,AMSA06.jpg,AMNE09.jpg,AMNE01.jpg,AMSA06.jpg,MS,2,num_6,16,num_6,0.55022309022,,,2017_May_12_1104,60.0060240639,FEMA4ImagesEEG,001,200126,
AFNE01.JPG,AFNE01.JPG,AFNE01.JPG,AFNE01.JPG,AFNE01.JPG,AFNE01.JPG,,,,,,,,,,,,,,,,,,,,,1,6,16,1,,,AMSA08.jpg,AMNE11.jpg,AMNE03.jpg,AMSA02.jpg,AMNE11.jpg,MN,1,num_6,32,num_2,0.933425471187,,,2017_May_12_1104,60.0060240639,FEMA4ImagesEEG,001,200126,
AFNE01.JPG,AFNE01.JPG,AFNE01.JPG,AFNE01.JPG,AFNE01.JPG,AFNE01.JPG,,,,,,,,,,,,,,,,,,,,,1,7,17,7,,,AMNE18.jpg,AMSA13.jpg,AMSA20.jpg,AMNE12.jpg,AMSA20.jpg,MS,2,num_2,16,num_2,0.633429544512,,,2017_May_12_1104,60.0060240639,FEMA4ImagesEEG,001,200126,
AFNE01.JPG,AFNE01.JPG,AFNE01.JPG,AFNE01.JPG,AFNE01.JPG,AFNE01.JPG,,,,,,,,,,,,,,,,,,,,,1,8,18,3,,,AMNE09.jpg,AMNE07.jpg,AMSA10.jpg,AMSA18.jpg,AMSA10.jpg,MS,2,num_2,16,num_2,0.650134919211,,,2017_May_12_1104,60.0060240639,FEMA4ImagesEEG,001,200126,
AFNE01.JPG,AFNE01.JPG,AFNE01.JPG,AFNE01.JPG,AFNE01.JPG,AFNE01.JPG,,,,,,,,,,,,,,,,,,,,,1,9,19,4,,,AMNE08.jpg,AMSA04.jpg,AMNE16.jpg,AMSA15.jpg,AMSA15.jpg,MS,2,num_4,16,num_4,0.600114054978,,,2017_May_12_1104,60.0060240639,FEMA4ImagesEEG,001,200126,
AFNE01.JPG,AFNE01.JPG,AFNE01.JPG,AFNE01.JPG,AFNE01.JPG,AFNE01.JPG,,,,,,,,,,,,,,,,,,,,,2,0,20,0,,,AMNE17.jpg,AMSA07.jpg,AMNE12.jpg,AMSA08.jpg,AMSA07.jpg,MS,2,num_6,16,num_6,0.466797250323,,,2017_May_12_1104,60.0060240639,FEMA4ImagesEEG,001,200126,
AFNE01.JPG,AFNE01.JPG,AFNE01.JPG,AFNE01.JPG,AFNE01.JPG,AFNE01.JPG,,,,,,,,,,,,,,,,,,,,,2,1,21,2,,,AMNE02.jpg,AMSA12.jpg,AMSA10.jpg,AMNE12.jpg,AMNE02.jpg,MN,1,num_8,32,num_6,1.01664764155,,,2017_May_12_1104,60.0060240639,FEMA4ImagesEEG,001,200126,
AFNE01.JPG,AFNE01.JPG,AFNE01.JPG,AFNE01.JPG,AFNE01.JPG,AFNE01.JPG,,,,,,,,,,,,,,,,,,,,,2,2,22,1,,,AMSA18.jpg,AMNE08.jpg,AMSA17.jpg,AMNE13.jpg,AMNE13.jpg,MN,1,num_4,16,num_4,0.400152158923,,,2017_May_12_1104,60.0060240639,FEMA4ImagesEEG,001,200126,
AFNE01.JPG,AFNE01.JPG,AFNE01.JPG,AFNE01.JPG,AFNE01.JPG,AFNE01.JPG,,,,,,,,,,,,,,,,,,,,,2,3,23,6,,,AMSA15.jpg,AMNE10.jpg,AMNE14.jpg,AMSA10.jpg,AMSA10.jpg,MS,2,num_4,16,num_4,1.16675930656,,,2017_May_12_1104,60.0060240639,FEMA4ImagesEEG,001,200126,
AFNE01.JPG,AFNE01.JPG,AFNE01.JPG,AFNE01.JPG,AFNE01.JPG,AFNE01.JPG,,,,,,,,,,,,,,,,,,,,,2,4,24,9,,,AMNE03.jpg,AMSA12.jpg,AMNE11.jpg,AMSA04.jpg,AMNE03.jpg,MN,1,num_8,16,num_8,0.883481263649,,,2017_May_12_1104,60.0060240639,FEMA4ImagesEEG,001,200126,
AFNE01.JPG,AFNE01.JPG,AFNE01.JPG,AFNE01.JPG,AFNE01.JPG,AFNE01.JPG,,,,,,,,,,,,,,,,,,,,,2,5,25,8,,,AMNE09.jpg,AMNE06.jpg,AMSA20.jpg,AMSA16.jpg,AMSA16.jpg,MS,2,num_4,16,num_4,0.51680400176,,,2017_May_12_1104,60.0060240639,FEMA4ImagesEEG,001,200126,
AFNE01.JPG,AFNE01.JPG,AFNE01.JPG,AFNE01.JPG,AFNE01.JPG,AFNE01.JPG,,,,,,,,,,,,,,,,,,,,,2,6,26,7,,,AMNE09.jpg,AMNE12.jpg,AMSA01.jpg,AMSA04.jpg,AMSA01.jpg,MS,2,num_2,32,num_4,0.533465435263,,,2017_May_12_1104,60.0060240639,FEMA4ImagesEEG,001,200126,
AFNE01.JPG,AFNE01.JPG,AFNE01.JPG,AFNE01.JPG,AFNE01.JPG,AFNE01.JPG,,,,,,,,,,,,,,,,,,,,,2,7,27,3,,,AMSA05.jpg,AMNE16.jpg,AMNE11.jpg,AMSA02.jpg,AMNE16.jpg,MN,1,num_6,16,num_6,1.18344736146,,,2017_May_12_1104,60.0060240639,FEMA4ImagesEEG,001,200126,
AFNE01.JPG,AFNE01.JPG,AFNE01.JPG,AFNE01.JPG,AFNE01.JPG,AFNE01.JPG,,,,,,,,,,,,,,,,,,,,,2,8,28,5,,,AMNE14.jpg,AMSA03.jpg,AMNE12.jpg,AMSA13.jpg,AMSA13.jpg,MS,2,num_4,16,num_4,0.734903693199,,,2017_May_12_1104,60.0060240639,FEMA4ImagesEEG,001,200126,
AFNE01.JPG,AFNE01.JPG,AFNE01.JPG,AFNE01.JPG,AFNE01.JPG,AFNE01.JPG,,,,,,,,,,,,,,,,,,,,,2,9,29,4,,,AMSA19.jpg,AMNE19.jpg,AMNE14.jpg,AMSA17.jpg,AMSA19.jpg,MS,2,num_8,32,num_6,0.71672291914,,,2017_May_12_1104,60.0060240639,FEMA4ImagesEEG,001,200126,
AFNE01.JPG,AFNE01.JPG,AFNE01.JPG,AFNE01.JPG,AFNE01.JPG,AFNE01.JPG,,,,,,,,,,,,,,,,,,,,,3,0,30,3,,,AMSA14.jpg,AMNE01.jpg,AMSA09.jpg,AMNE11.jpg,AMSA09.jpg,MS,2,num_2,16,num_2,1.13306566607,,,2017_May_12_1104,60.0060240639,FEMA4ImagesEEG,001,200126,
AFNE01.JPG,AFNE01.JPG,AFNE01.JPG,AFNE01.JPG,AFNE01.JPG,AFNE01.JPG,,,,,,,,,,,,,,,,,,,,,3,1,31,1,,,AMSA13.jpg,AMNE08.jpg,AMNE13.jpg,AMSA14.jpg,AMSA14.jpg,MS,2,num_4,16,num_4,0.550139376894,,,2017_May_12_1104,60.0060240639,FEMA4ImagesEEG,001,200126,
AFNE01.JPG,AFNE01.JPG,AFNE01.JPG,AFNE01.JPG,AFNE01.JPG,AFNE01.JPG,,,,,,,,,,,,,,,,,,,,,3,2,32,7,,,AMNE19.jpg,AMSA13.jpg,AMNE11.jpg,AMSA15.jpg,AMSA13.jpg,MS,2,num_6,16,num_6,0.683453615755,,,2017_May_12_1104,60.0060240639,FEMA4ImagesEEG,001,200126,
AFNE01.JPG,AFNE01.JPG,AFNE01.JPG,AFNE01.JPG,AFNE01.JPG,AFNE01.JPG,,,,,,,,,,,,,,,,,,,,,3,3,33,0,,,AMNE10.jpg,AMSA19.jpg,AMNE12.jpg,AMSA17.jpg,AMSA17.jpg,MS,2,num_4,16,num_4,0.483483059797,,,2017_May_12_1104,60.0060240639,FEMA4ImagesEEG,001,200126,
AFNE01.JPG,AFNE01.JPG,AFNE01.JPG,AFNE01.JPG,AFNE01.JPG,AFNE01.JPG,,,,,,,,,,,,,,,,,,,,,3,4,34,2,,,AMNE17.jpg,AMSA09.jpg,AMSA07.jpg,AMNE15.jpg,AMNE15.jpg,MN,1,num_4,16,num_4,0.71677968977,,,2017_May_12_1104,60.0060240639,FEMA4ImagesEEG,001,200126,
AFNE01.JPG,AFNE01.JPG,AFNE01.JPG,AFNE01.JPG,AFNE01.JPG,AFNE01.JPG,,,,,,,,,,,,,,,,,,,,,3,5,35,8,,,AMSA03.jpg,AMNE07.jpg,AMNE16.jpg,AMSA08.jpg,AMSA03.jpg,MS,2,num_8,32,num_4,0.900139810052,,,2017_May_12_1104,60.0060240639,FEMA4ImagesEEG,001,200126,
AFNE01.JPG,AFNE01.JPG,AFNE01.JPG,AFNE01.JPG,AFNE01.JPG,AFNE01.JPG,,,,,,,,,,,,,,,,,,,,,3,6,36,4,,,AMSA13.jpg,AMSA12.jpg,AMNE02.jpg,AMNE07.jpg,AMNE07.jpg,MN,1,num_4,16,num_4,0.883436359931,,,2017_May_12_1104,60.0060240639,FEMA4ImagesEEG,001,200126,
AFNE01.JPG,AFNE01.JPG,AFNE01.JPG,AFNE01.JPG,AFNE01.JPG,AFNE01.JPG,,,,,,,,,,,,,,,,,,,,,3,7,37,5,,,AMNE07.jpg,AMSA16.jpg,AMSA07.jpg,AMNE17.jpg,AMSA16.jpg,MS,2,num_6,16,num_6,0.666748882737,,,2017_May_12_1104,60.0060240639,FEMA4ImagesEEG,001,200126,
AFNE01.JPG,AFNE01.JPG,AFNE01.JPG,AFNE01.JPG,AFNE01.JPG,AFNE01.JPG,,,,,,,,,,,,,,,,,,,,,3,8,38,9,,,AMSA14.jpg,AMNE05.jpg,AMSA05.jpg,AMNE01.jpg,AMSA05.jpg,MS,2,num_2,16,num_2,0.766785799526,,,2017_May_12_1104,60.0060240639,FEMA4ImagesEEG,001,200126,
