IPosition2,IPosition3,IPosition1,IPosition6,IPosition4,IPosition5,TrialsF1.thisRepN,TrialsF1.thisTrialN,TrialsF1.thisN,TrialsF1.thisIndex,TrialsM1.thisRepN,TrialsM1.thisTrialN,TrialsM1.thisN,TrialsM1.thisIndex,TrialsF2.thisRepN,TrialsF2.thisTrialN,TrialsF2.thisN,TrialsF2.thisIndex,TrialsM2.thisRepN,TrialsM2.thisTrialN,TrialsM2.thisN,TrialsM2.thisIndex,TrialsF3.thisRepN,TrialsF3.thisTrialN,TrialsF3.thisN,TrialsF3.thisIndex,TrialsM3.thisRepN,TrialsM3.thisTrialN,TrialsM3.thisN,TrialsM3.thisIndex,InstrKey_resp.keys,InstrKey_resp.rt,Image0 _Position,Image1 _Position,Image2 _Position,Image3 _Position,Center_image,condition,code,correct_answer,accuracy,Key_Resp.keys,Key_Resp.rt,BreakKey_resp.keys,BreakKey_resp.rt,date,frameRate,expName,session,participant,
,,,,,,,,,,,,,,,,,,,,,,,,,,,,,,space,4.63329774188,,,,,,,,,,,,,,2017_May_30_1614,60.0043688543,FEMA4ImagesEEG,001,200204,
AMSA25.JPG,AMNE24.JPG,AMSA24.JPG,AMNE26.JPG,AMSA21.JPG,AMNE25.JPG,0,0,0,3,,,,,,,,,,,,,,,,,,,,,,,AFSA18.jpg,AFNE11.jpg,AFNE17.jpg,AFSA15.jpg,AFNE17.jpg,FN,3,num_2,16,num_2,1.10008336045,,,2017_May_30_1614,60.0043688543,FEMA4ImagesEEG,001,200204,
AMSA21.JPG,AMNE23.JPG,AMNE21.JPG,AMSA25.JPG,AMNE25.JPG,AMSA23.JPG,0,1,1,5,,,,,,,,,,,,,,,,,,,,,,,AFNE19.jpg,AFSA07.jpg,AFSA06.jpg,AFNE11.jpg,AFSA06.jpg,FS,4,num_2,32,num_8,0.733426967869,,,2017_May_30_1614,60.0043688543,FEMA4ImagesEEG,001,200204,
AFSA21.JPG,AFNE23.JPG,AFNE21.JPG,AFSA25.JPG,AFNE25.JPG,AFSA23.JPG,0,2,2,4,,,,,,,,,,,,,,,,,,,,,,,AFSA11.jpg,AFSA19.jpg,AFNE17.jpg,AFNE02.jpg,AFSA19.jpg,FS,4,num_6,16,num_6,0.81681485381,,,2017_May_30_1614,60.0043688543,FEMA4ImagesEEG,001,200204,
AFNE22.JPG,AFSA24.JPG,AFSA22.JPG,AFNE25.JPG,AFNE24.JPG,AFSA25.JPG,0,3,3,6,,,,,,,,,,,,,,,,,,,,,,,AFNE17.jpg,AFSA08.jpg,AFSA17.jpg,AFNE09.jpg,AFSA17.jpg,FS,4,num_2,16,num_2,0.950163433095,,,2017_May_30_1614,60.0043688543,FEMA4ImagesEEG,001,200204,
AFSA21.JPG,AFNE22.JPG,AFNE21.JPG,AFSA23.JPG,AFSA22.JPG,AFNE23.JPG,0,4,4,0,,,,,,,,,,,,,,,,,,,,,,,AFSA02.jpg,AFNE03.jpg,AFSA15.jpg,AFNE15.jpg,AFNE15.jpg,FN,3,num_4,16,num_4,0.716760681011,,,2017_May_30_1614,60.0043688543,FEMA4ImagesEEG,001,200204,
AMNE22.JPG,AMSA24.JPG,AMSA22.JPG,AMNE25.JPG,AMNE24.JPG,AMSA25.JPG,0,5,5,7,,,,,,,,,,,,,,,,,,,,,,,AFNE13.jpg,AFSA07.jpg,AFNE03.jpg,AFSA06.jpg,AFSA06.jpg,FS,4,num_4,16,num_4,0.600158573827,,,2017_May_30_1614,60.0043688543,FEMA4ImagesEEG,001,200204,
AFNE23.JPG,AFNE24.JPG,AFNE22.JPG,AFSA24.JPG,AFSA22.JPG,AFSA23.JPG,0,6,6,8,,,,,,,,,,,,,,,,,,,,,,,AFNE14.jpg,AFNE19.jpg,AFSA05.jpg,AFSA18.jpg,AFSA05.jpg,FS,4,num_2,16,num_2,0.83349364996,,,2017_May_30_1614,60.0043688543,FEMA4ImagesEEG,001,200204,
AMNE23.JPG,AMNE24.JPG,AMNE22.JPG,AMSA24.JPG,AMSA22.JPG,AMSA23.JPG,0,7,7,9,,,,,,,,,,,,,,,,,,,,,,,AFNE09.jpg,AFNE10.jpg,AFSA19.jpg,AFSA04.jpg,AFSA19.jpg,FS,4,num_2,16,num_2,0.833485310432,,,2017_May_30_1614,60.0043688543,FEMA4ImagesEEG,001,200204,
AMSA21.JPG,AMNE22.JPG,AMNE21.JPG,AMSA23.JPG,AMSA22.JPG,AMNE23.JPG,0,8,8,1,,,,,,,,,,,,,,,,,,,,,,,AFNE18.jpg,AFNE15.jpg,AFSA17.jpg,AFSA20.jpg,AFSA20.jpg,FS,4,num_4,32,num_6,0.51683323225,,,2017_May_30_1614,60.0043688543,FEMA4ImagesEEG,001,200204,
AFSA25.JPG,AFNE24.JPG,AFSA24.JPG,AFNE21.JPG,AFSA21.JPG,AFNE25.JPG,0,9,9,2,,,,,,,,,,,,,,,,,,,,,,,AFNE17.jpg,AFSA07.jpg,AFNE06.jpg,AFSA03.jpg,AFNE17.jpg,FN,3,num_8,32,num_4,0.666873436887,,,2017_May_30_1614,60.0043688543,FEMA4ImagesEEG,001,200204,
AMNE22.JPG,AMSA24.JPG,AMSA22.JPG,AMNE25.JPG,AMNE24.JPG,AMSA25.JPG,,,,,0,0,0,7,,,,,,,,,,,,,,,,,,,AMSA04.jpg,AMSA17.jpg,AMNE08.jpg,AMNE06.jpg,AMSA04.jpg,MS,2,num_8,16,num_8,0.783428395167,,,2017_May_30_1614,60.0043688543,FEMA4ImagesEEG,001,200204,
AFNE23.JPG,AFNE24.JPG,AFNE22.JPG,AFSA24.JPG,AFSA22.JPG,AFSA23.JPG,,,,,0,1,1,8,,,,,,,,,,,,,,,,,,,AMSA15.jpg,AMNE16.jpg,AMNE11.jpg,AMSA01.jpg,AMNE11.jpg,MN,1,num_2,16,num_2,0.766765315551,,,2017_May_30_1614,60.0043688543,FEMA4ImagesEEG,001,200204,
AMSA25.JPG,AMNE24.JPG,AMSA24.JPG,AMNE26.JPG,AMSA21.JPG,AMNE25.JPG,,,,,0,2,2,3,,,,,,,,,,,,,,,,,,,AMNE01.jpg,AMSA03.jpg,AMNE16.jpg,AMSA05.jpg,AMNE01.jpg,MN,1,num_8,32,num_4,0.483529524645,,,2017_May_30_1614,60.0043688543,FEMA4ImagesEEG,001,200204,
AMNE23.JPG,AMNE24.JPG,AMNE22.JPG,AMSA24.JPG,AMSA22.JPG,AMSA23.JPG,,,,,0,3,3,9,,,,,,,,,,,,,,,,,,,AMSA15.jpg,AMSA20.jpg,AMNE13.jpg,AMNE09.jpg,AMNE09.jpg,MN,1,num_4,32,num_8,0.333516262006,,,2017_May_30_1614,60.0043688543,FEMA4ImagesEEG,001,200204,
AFNE22.JPG,AFSA24.JPG,AFSA22.JPG,AFNE25.JPG,AFNE24.JPG,AFSA25.JPG,,,,,0,4,4,6,,,,,,,,,,,,,,,,,,,AMSA19.jpg,AMNE08.jpg,AMNE04.jpg,AMSA08.jpg,AMSA19.jpg,MS,2,num_8,32,num_4,0.533462955151,,,2017_May_30_1614,60.0043688543,FEMA4ImagesEEG,001,200204,
AFSA21.JPG,AFNE22.JPG,AFNE21.JPG,AFSA23.JPG,AFSA22.JPG,AFNE23.JPG,,,,,0,5,5,0,,,,,,,,,,,,,,,,,,,AMNE11.jpg,AMSA12.jpg,AMSA14.jpg,AMNE02.jpg,AMNE11.jpg,MN,1,num_8,32,num_2,0.916745862691,,,2017_May_30_1614,60.0043688543,FEMA4ImagesEEG,001,200204,
AFSA25.JPG,AFNE24.JPG,AFSA24.JPG,AFNE21.JPG,AFSA21.JPG,AFNE25.JPG,,,,,0,6,6,2,,,,,,,,,,,,,,,,,,,AMSA02.jpg,AMNE18.jpg,AMNE01.jpg,AMSA20.jpg,AMSA20.jpg,MS,2,num_4,16,num_4,0.266832831316,,,2017_May_30_1614,60.0043688543,FEMA4ImagesEEG,001,200204,
AMSA21.JPG,AMNE22.JPG,AMNE21.JPG,AMSA23.JPG,AMSA22.JPG,AMNE23.JPG,,,,,0,7,7,1,,,,,,,,,,,,,,,,,,,AMSA20.jpg,AMNE01.jpg,AMSA09.jpg,AMNE20.jpg,AMNE20.jpg,MN,1,num_4,16,num_4,0.616863029078,,,2017_May_30_1614,60.0043688543,FEMA4ImagesEEG,001,200204,
AFSA21.JPG,AFNE23.JPG,AFNE21.JPG,AFSA25.JPG,AFNE25.JPG,AFSA23.JPG,,,,,0,8,8,4,,,,,,,,,,,,,,,,,,,AMSA14.jpg,AMSA07.jpg,AMNE02.jpg,AMNE05.jpg,AMNE05.jpg,MN,1,num_4,32,num_8,0.550162278349,,,2017_May_30_1614,60.0043688543,FEMA4ImagesEEG,001,200204,
AMSA21.JPG,AMNE23.JPG,AMNE21.JPG,AMSA25.JPG,AMNE25.JPG,AMSA23.JPG,,,,,0,9,9,5,,,,,,,,,,,,,,,,,,,AMSA05.jpg,AMNE01.jpg,AMNE10.jpg,AMSA13.jpg,AMNE10.jpg,MN,1,num_2,32,num_4,0.433537719538,,,2017_May_30_1614,60.0043688543,FEMA4ImagesEEG,001,200204,
AMSA21.JPG,AMNE22.JPG,AMNE21.JPG,AMSA23.JPG,AMSA22.JPG,AMNE23.JPG,,,,,,,,,0,0,0,1,,,,,,,,,,,,,,,AFNE20.jpg,AFSA09.jpg,AFNE01.jpg,AFSA03.jpg,AFSA03.jpg,FS,4,num_4,16,num_4,0.566804830683,,,2017_May_30_1614,60.0043688543,FEMA4ImagesEEG,001,200204,
AFSA25.JPG,AFNE24.JPG,AFSA24.JPG,AFNE21.JPG,AFSA21.JPG,AFNE25.JPG,,,,,,,,,0,1,1,2,,,,,,,,,,,,,,,AFSA12.jpg,AFNE18.jpg,AFSA13.jpg,AFNE12.jpg,AFNE18.jpg,FN,3,num_6,32,num_8,0.816924226237,,,2017_May_30_1614,60.0043688543,FEMA4ImagesEEG,001,200204,
AMSA21.JPG,AMNE23.JPG,AMNE21.JPG,AMSA25.JPG,AMNE25.JPG,AMSA23.JPG,,,,,,,,,0,2,2,5,,,,,,,,,,,,,,,AFNE18.jpg,AFSA13.jpg,AFSA03.jpg,AFNE07.jpg,AFSA13.jpg,FS,4,num_6,16,num_6,0.583486192627,,,2017_May_30_1614,60.0043688543,FEMA4ImagesEEG,001,200204,
AMSA25.JPG,AMNE24.JPG,AMSA24.JPG,AMNE26.JPG,AMSA21.JPG,AMNE25.JPG,,,,,,,,,0,3,3,3,,,,,,,,,,,,,,,AFNE04.jpg,AFNE12.jpg,AFSA06.jpg,AFSA17.jpg,AFSA06.jpg,FS,4,num_2,32,num_8,0.666893964401,,,2017_May_30_1614,60.0043688543,FEMA4ImagesEEG,001,200204,
AFSA21.JPG,AFNE22.JPG,AFNE21.JPG,AFSA23.JPG,AFSA22.JPG,AFNE23.JPG,,,,,,,,,0,4,4,0,,,,,,,,,,,,,,,AFNE09.jpg,AFSA20.jpg,AFNE16.jpg,AFSA05.jpg,AFNE16.jpg,FN,3,num_2,16,num_2,0.500140644377,,,2017_May_30_1614,60.0043688543,FEMA4ImagesEEG,001,200204,
AMNE23.JPG,AMNE24.JPG,AMNE22.JPG,AMSA24.JPG,AMSA22.JPG,AMSA23.JPG,,,,,,,,,0,5,5,9,,,,,,,,,,,,,,,AFSA12.jpg,AFNE05.jpg,AFNE07.jpg,AFSA09.jpg,AFNE05.jpg,FN,3,num_6,32,num_4,0.600155366352,,,2017_May_30_1614,60.0043688543,FEMA4ImagesEEG,001,200204,
AFNE22.JPG,AFSA24.JPG,AFSA22.JPG,AFNE25.JPG,AFNE24.JPG,AFSA25.JPG,,,,,,,,,0,6,6,6,,,,,,,,,,,,,,,AFSA20.jpg,AFNE05.jpg,AFNE09.jpg,AFSA08.jpg,AFNE09.jpg,FN,3,num_2,32,num_8,0.500180095667,,,2017_May_30_1614,60.0043688543,FEMA4ImagesEEG,001,200204,
AFSA21.JPG,AFNE23.JPG,AFNE21.JPG,AFSA25.JPG,AFNE25.JPG,AFSA23.JPG,,,,,,,,,0,7,7,4,,,,,,,,,,,,,,,AFSA16.jpg,AFNE18.jpg,AFSA08.jpg,AFNE02.jpg,AFSA08.jpg,FS,4,num_2,16,num_2,0.65011990862,,,2017_May_30_1614,60.0043688543,FEMA4ImagesEEG,001,200204,
AMNE22.JPG,AMSA24.JPG,AMSA22.JPG,AMNE25.JPG,AMNE24.JPG,AMSA25.JPG,,,,,,,,,0,8,8,7,,,,,,,,,,,,,,,AFNE05.jpg,AFSA17.jpg,AFNE17.jpg,AFSA06.jpg,AFSA17.jpg,FS,4,num_6,32,num_4,0.666799345985,,,2017_May_30_1614,60.0043688543,FEMA4ImagesEEG,001,200204,
AFNE23.JPG,AFNE24.JPG,AFNE22.JPG,AFSA24.JPG,AFSA22.JPG,AFSA23.JPG,,,,,,,,,0,9,9,8,,,,,,,,,,,,,,,AFNE02.jpg,AFSA20.jpg,AFNE17.jpg,AFSA12.jpg,AFNE02.jpg,FN,3,num_8,32,num_6,0.50017207698,,,2017_May_30_1614,60.0043688543,FEMA4ImagesEEG,001,200204,
AMSA21.JPG,AMNE23.JPG,AMNE21.JPG,AMSA25.JPG,AMNE25.JPG,AMSA23.JPG,,,,,,,,,,,,,0,0,0,5,,,,,,,,,,,AMSA19.jpg,AMNE19.jpg,AMNE06.jpg,AMSA06.jpg,AMSA19.jpg,MS,2,num_8,16,num_8,0.350239320192,,,2017_May_30_1614,60.0043688543,FEMA4ImagesEEG,001,200204,
AMNE23.JPG,AMNE24.JPG,AMNE22.JPG,AMSA24.JPG,AMSA22.JPG,AMSA23.JPG,,,,,,,,,,,,,0,1,1,9,,,,,,,,,,,AMNE15.jpg,AMSA03.jpg,AMNE02.jpg,AMSA17.jpg,AMNE15.jpg,MN,1,num_8,32,num_4,0.48347692308,,,2017_May_30_1614,60.0043688543,FEMA4ImagesEEG,001,200204,
AMNE22.JPG,AMSA24.JPG,AMSA22.JPG,AMNE25.JPG,AMNE24.JPG,AMSA25.JPG,,,,,,,,,,,,,0,2,2,7,,,,,,,,,,,AMNE15.jpg,AMSA18.jpg,AMNE12.jpg,AMSA15.jpg,AMSA15.jpg,MS,2,num_4,16,num_4,0.533515556483,,,2017_May_30_1614,60.0043688543,FEMA4ImagesEEG,001,200204,
AFNE22.JPG,AFSA24.JPG,AFSA22.JPG,AFNE25.JPG,AFNE24.JPG,AFSA25.JPG,,,,,,,,,,,,,0,3,3,6,,,,,,,,,,,AMNE01.jpg,AMNE07.jpg,AMSA09.jpg,AMSA14.jpg,AMNE01.jpg,MN,1,num_8,32,num_2,0.766657867702,,,2017_May_30_1614,60.0043688543,FEMA4ImagesEEG,001,200204,
AMSA21.JPG,AMNE22.JPG,AMNE21.JPG,AMSA23.JPG,AMSA22.JPG,AMNE23.JPG,,,,,,,,,,,,,0,4,4,1,,,,,,,,,,,AMSA12.jpg,AMNE07.jpg,AMSA04.jpg,AMNE20.jpg,AMSA12.jpg,MS,2,num_8,32,num_4,0.466782090254,,,2017_May_30_1614,60.0043688543,FEMA4ImagesEEG,001,200204,
AFSA21.JPG,AFNE23.JPG,AFNE21.JPG,AFSA25.JPG,AFNE25.JPG,AFSA23.JPG,,,,,,,,,,,,,0,5,5,4,,,,,,,,,,,AMNE17.jpg,AMSA06.jpg,AMNE18.jpg,AMSA12.jpg,AMSA06.jpg,MS,2,num_6,16,num_6,0.816816136707,,,2017_May_30_1614,60.0043688543,FEMA4ImagesEEG,001,200204,
AFSA21.JPG,AFNE22.JPG,AFNE21.JPG,AFSA23.JPG,AFSA22.JPG,AFNE23.JPG,,,,,,,,,,,,,0,6,6,0,,,,,,,,,,,AMNE03.jpg,AMNE11.jpg,AMSA10.jpg,AMSA05.jpg,AMSA05.jpg,MS,2,num_4,32,num_2,0.7666748669,,,2017_May_30_1614,60.0043688543,FEMA4ImagesEEG,001,200204,
AFNE23.JPG,AFNE24.JPG,AFNE22.JPG,AFSA24.JPG,AFSA22.JPG,AFSA23.JPG,,,,,,,,,,,,,0,7,7,8,,,,,,,,,,,AMSA20.jpg,AMSA18.jpg,AMNE06.jpg,AMNE13.jpg,AMNE13.jpg,MN,1,num_4,32,num_8,0.533463275759,,,2017_May_30_1614,60.0043688543,FEMA4ImagesEEG,001,200204,
AMSA25.JPG,AMNE24.JPG,AMSA24.JPG,AMNE26.JPG,AMSA21.JPG,AMNE25.JPG,,,,,,,,,,,,,0,8,8,3,,,,,,,,,,,AMNE03.jpg,AMNE14.jpg,AMSA19.jpg,AMSA09.jpg,AMNE14.jpg,MN,1,num_6,32,num_8,0.700101449853,,,2017_May_30_1614,60.0043688543,FEMA4ImagesEEG,001,200204,
AFSA25.JPG,AFNE24.JPG,AFSA24.JPG,AFNE21.JPG,AFSA21.JPG,AFNE25.JPG,,,,,,,,,,,,,0,9,9,2,,,,,,,,,,,AMNE10.jpg,AMNE05.jpg,AMSA18.jpg,AMSA14.jpg,AMSA14.jpg,MS,2,num_4,16,num_4,0.450268475339,,,2017_May_30_1614,60.0043688543,FEMA4ImagesEEG,001,200204,
AMSA25.JPG,AMNE24.JPG,AMSA24.JPG,AMNE26.JPG,AMSA21.JPG,AMNE25.JPG,,,,,,,,,,,,,,,,,0,0,0,3,,,,,,,AFNE11.jpg,AFNE06.jpg,AFSA20.jpg,AFSA14.jpg,AFSA20.jpg,FS,4,num_2,32,num_6,0.716789547354,,,2017_May_30_1614,60.0043688543,FEMA4ImagesEEG,001,200204,
AMSA21.JPG,AMNE23.JPG,AMNE21.JPG,AMSA25.JPG,AMNE25.JPG,AMSA23.JPG,,,,,,,,,,,,,,,,,0,1,1,5,,,,,,,AFSA15.jpg,AFSA08.jpg,AFNE17.jpg,AFNE03.jpg,AFSA08.jpg,FS,4,num_6,32,num_8,0.283530551009,,,2017_May_30_1614,60.0043688543,FEMA4ImagesEEG,001,200204,
AFNE22.JPG,AFSA24.JPG,AFSA22.JPG,AFNE25.JPG,AFNE24.JPG,AFSA25.JPG,,,,,,,,,,,,,,,,,0,2,2,6,,,,,,,AFNE13.jpg,AFNE04.jpg,AFSA19.jpg,AFSA11.jpg,AFSA11.jpg,FS,4,num_4,16,num_4,0.283539531752,,,2017_May_30_1614,60.0043688543,FEMA4ImagesEEG,001,200204,
AMSA21.JPG,AMNE22.JPG,AMNE21.JPG,AMSA23.JPG,AMSA22.JPG,AMNE23.JPG,,,,,,,,,,,,,,,,,0,3,3,1,,,,,,,AFSA07.jpg,AFNE17.jpg,AFSA03.jpg,AFNE11.jpg,AFSA07.jpg,FS,4,num_8,32,num_2,1.4000688307,,,2017_May_30_1614,60.0043688543,FEMA4ImagesEEG,001,200204,
AFNE23.JPG,AFNE24.JPG,AFNE22.JPG,AFSA24.JPG,AFSA22.JPG,AFSA23.JPG,,,,,,,,,,,,,,,,,0,4,4,8,,,,,,,AFNE02.jpg,AFSA09.jpg,AFSA14.jpg,AFNE11.jpg,AFNE11.jpg,FN,3,num_4,32,num_6,0.583455722313,,,2017_May_30_1614,60.0043688543,FEMA4ImagesEEG,001,200204,
AFSA25.JPG,AFNE24.JPG,AFSA24.JPG,AFNE21.JPG,AFSA21.JPG,AFNE25.JPG,,,,,,,,,,,,,,,,,0,5,5,2,,,,,,,AFSA04.jpg,AFNE03.jpg,AFNE13.jpg,AFSA05.jpg,AFNE03.jpg,FN,3,num_6,16,num_6,0.600152479718,,,2017_May_30_1614,60.0043688543,FEMA4ImagesEEG,001,200204,
AMNE22.JPG,AMSA24.JPG,AMSA22.JPG,AMNE25.JPG,AMNE24.JPG,AMSA25.JPG,,,,,,,,,,,,,,,,,0,6,6,7,,,,,,,AFNE10.jpg,AFNE16.jpg,AFSA16.jpg,AFSA14.jpg,AFSA14.jpg,FS,4,num_4,32,num_8,0.500179453986,,,2017_May_30_1614,60.0043688543,FEMA4ImagesEEG,001,200204,
AFSA21.JPG,AFNE23.JPG,AFNE21.JPG,AFSA25.JPG,AFNE25.JPG,AFSA23.JPG,,,,,,,,,,,,,,,,,0,7,7,4,,,,,,,AFNE17.jpg,AFSA13.jpg,AFNE05.jpg,AFSA03.jpg,AFSA03.jpg,FS,4,num_4,16,num_4,0.499920616858,,,2017_May_30_1614,60.0043688543,FEMA4ImagesEEG,001,200204,
AMNE23.JPG,AMNE24.JPG,AMNE22.JPG,AMSA24.JPG,AMSA22.JPG,AMSA23.JPG,,,,,,,,,,,,,,,,,0,8,8,9,,,,,,,AFNE14.jpg,AFNE05.jpg,AFSA17.jpg,AFSA16.jpg,AFSA17.jpg,FS,4,num_2,32,num_6,0.350264337845,,,2017_May_30_1614,60.0043688543,FEMA4ImagesEEG,001,200204,
AFSA21.JPG,AFNE22.JPG,AFNE21.JPG,AFSA23.JPG,AFSA22.JPG,AFNE23.JPG,,,,,,,,,,,,,,,,,0,9,9,0,,,,,,,AFNE02.jpg,AFSA09.jpg,AFSA13.jpg,AFNE03.jpg,AFNE02.jpg,FN,3,num_8,32,num_6,0.66679774248,,,2017_May_30_1614,60.0043688543,FEMA4ImagesEEG,001,200204,
AFNE23.JPG,AFNE24.JPG,AFNE22.JPG,AFSA24.JPG,AFSA22.JPG,AFSA23.JPG,,,,,,,,,,,,,,,,,,,,,0,0,0,8,,,AMNE04.jpg,AMSA03.jpg,AMSA12.jpg,AMNE20.jpg,AMNE04.jpg,MN,1,num_8,32,num_6,0.733458721312,,,2017_May_30_1614,60.0043688543,FEMA4ImagesEEG,001,200204,
AMSA25.JPG,AMNE24.JPG,AMSA24.JPG,AMNE26.JPG,AMSA21.JPG,AMNE25.JPG,,,,,,,,,,,,,,,,,,,,,0,1,1,3,,,AMSA11.jpg,AMSA15.jpg,AMNE03.jpg,AMNE14.jpg,AMSA11.jpg,MS,2,num_8,16,num_8,0.766759221442,,,2017_May_30_1614,60.0043688543,FEMA4ImagesEEG,001,200204,
AMNE23.JPG,AMNE24.JPG,AMNE22.JPG,AMSA24.JPG,AMSA22.JPG,AMSA23.JPG,,,,,,,,,,,,,,,,,,,,,0,2,2,9,,,AMSA07.jpg,AMNE16.jpg,AMSA12.jpg,AMNE13.jpg,AMNE13.jpg,MN,1,num_4,16,num_4,0.533418372041,,,2017_May_30_1614,60.0043688543,FEMA4ImagesEEG,001,200204,
AFSA21.JPG,AFNE22.JPG,AFNE21.JPG,AFSA23.JPG,AFSA22.JPG,AFNE23.JPG,,,,,,,,,,,,,,,,,,,,,0,3,3,0,,,AMSA02.jpg,AMNE12.jpg,AMNE03.jpg,AMSA05.jpg,AMSA05.jpg,MS,2,num_4,16,num_4,0.600158894435,,,2017_May_30_1614,60.0043688543,FEMA4ImagesEEG,001,200204,
AMSA21.JPG,AMNE23.JPG,AMNE21.JPG,AMSA25.JPG,AMNE25.JPG,AMSA23.JPG,,,,,,,,,,,,,,,,,,,,,0,4,4,5,,,AMNE04.jpg,AMSA19.jpg,AMSA13.jpg,AMNE05.jpg,AMNE04.jpg,MN,1,num_8,32,num_6,0.800092757912,,,2017_May_30_1614,60.0043688543,FEMA4ImagesEEG,001,200204,
AFSA21.JPG,AFNE23.JPG,AFNE21.JPG,AFSA25.JPG,AFNE25.JPG,AFSA23.JPG,,,,,,,,,,,,,,,,,,,,,0,5,5,4,,,AMSA02.jpg,AMSA04.jpg,AMNE06.jpg,AMNE10.jpg,AMNE06.jpg,MN,1,num_2,32,num_8,0.550122506451,,,2017_May_30_1614,60.0043688543,FEMA4ImagesEEG,001,200204,
AFSA25.JPG,AFNE24.JPG,AFSA24.JPG,AFNE21.JPG,AFSA21.JPG,AFNE25.JPG,,,,,,,,,,,,,,,,,,,,,0,6,6,2,,,AMNE16.jpg,AMNE09.jpg,AMSA06.jpg,AMSA04.jpg,AMSA06.jpg,MS,2,num_2,16,num_2,0.78347137454,,,2017_May_30_1614,60.0043688543,FEMA4ImagesEEG,001,200204,
AMSA21.JPG,AMNE22.JPG,AMNE21.JPG,AMSA23.JPG,AMSA22.JPG,AMNE23.JPG,,,,,,,,,,,,,,,,,,,,,0,7,7,1,,,AMNE17.jpg,AMSA20.jpg,AMNE10.jpg,AMSA18.jpg,AMNE10.jpg,MN,1,num_2,32,num_8,0.350153682521,,,2017_May_30_1614,60.0043688543,FEMA4ImagesEEG,001,200204,
AFNE22.JPG,AFSA24.JPG,AFSA22.JPG,AFNE25.JPG,AFNE24.JPG,AFSA25.JPG,,,,,,,,,,,,,,,,,,,,,0,8,8,6,,,AMNE03.jpg,AMSA01.jpg,AMNE06.jpg,AMSA14.jpg,AMNE06.jpg,MN,1,num_2,32,num_6,0.45014370745,,,2017_May_30_1614,60.0043688543,FEMA4ImagesEEG,001,200204,
AMNE22.JPG,AMSA24.JPG,AMSA22.JPG,AMNE25.JPG,AMNE24.JPG,AMSA25.JPG,,,,,,,,,,,,,,,,,,,,,0,9,9,7,,,AMSA20.jpg,AMSA13.jpg,AMNE05.jpg,AMNE14.jpg,AMSA20.jpg,MS,2,num_8,16,num_8,0.316815334838,,,2017_May_30_1614,60.0043688543,FEMA4ImagesEEG,001,200204,
,,,,,,,,,,,,,,,,,,,,,,,,,,,,,,,,,,,,,,,,,,,space,3.16664940026,2017_May_30_1614,60.0043688543,FEMA4ImagesEEG,001,200204,
AFNE01.JPG,AFNE01.JPG,AFNE01.JPG,AFNE01.JPG,AFNE01.JPG,AFNE01.JPG,0,0,0,1,,,,,,,,,,,,,,,,,,,,,,,AFSA07.jpg,AFNE07.jpg,AFNE10.jpg,AFSA20.jpg,AFSA20.jpg,FS,4,num_4,32,num_6,0.866774584865,,,2017_May_30_1614,60.0043688543,FEMA4ImagesEEG,001,200204,
AFNE01.JPG,AFNE01.JPG,AFNE01.JPG,AFNE01.JPG,AFNE01.JPG,AFNE01.JPG,0,1,1,6,,,,,,,,,,,,,,,,,,,,,,,AFSA15.jpg,AFNE14.jpg,AFNE16.jpg,AFSA02.jpg,AFSA15.jpg,FS,4,num_8,16,num_8,0.666851626476,,,2017_May_30_1614,60.0043688543,FEMA4ImagesEEG,001,200204,
AFNE01.JPG,AFNE01.JPG,AFNE01.JPG,AFNE01.JPG,AFNE01.JPG,AFNE01.JPG,0,2,2,7,,,,,,,,,,,,,,,,,,,,,,,AFSA05.jpg,AFSA10.jpg,AFNE11.jpg,AFNE04.jpg,AFNE11.jpg,FN,3,num_2,16,num_2,0.550040076487,,,2017_May_30_1614,60.0043688543,FEMA4ImagesEEG,001,200204,
AFNE01.JPG,AFNE01.JPG,AFNE01.JPG,AFNE01.JPG,AFNE01.JPG,AFNE01.JPG,0,3,3,9,,,,,,,,,,,,,,,,,,,,,,,AFNE10.jpg,AFSA18.jpg,AFSA16.jpg,AFNE12.jpg,AFNE10.jpg,FN,3,num_8,16,num_8,0.583499343134,,,2017_May_30_1614,60.0043688543,FEMA4ImagesEEG,001,200204,
AFNE01.JPG,AFNE01.JPG,AFNE01.JPG,AFNE01.JPG,AFNE01.JPG,AFNE01.JPG,0,4,4,2,,,,,,,,,,,,,,,,,,,,,,,AFNE20.jpg,AFNE04.jpg,AFSA17.jpg,AFSA10.jpg,AFSA17.jpg,FS,4,num_2,32,num_4,0.683464350179,,,2017_May_30_1614,60.0043688543,FEMA4ImagesEEG,001,200204,
AFNE01.JPG,AFNE01.JPG,AFNE01.JPG,AFNE01.JPG,AFNE01.JPG,AFNE01.JPG,0,5,5,8,,,,,,,,,,,,,,,,,,,,,,,AFNE09.jpg,AFNE18.jpg,AFSA19.jpg,AFSA11.jpg,AFSA19.jpg,FS,4,num_2,32,num_6,0.766775900032,,,2017_May_30_1614,60.0043688543,FEMA4ImagesEEG,001,200204,
AFNE01.JPG,AFNE01.JPG,AFNE01.JPG,AFNE01.JPG,AFNE01.JPG,AFNE01.JPG,0,6,6,0,,,,,,,,,,,,,,,,,,,,,,,AFSA09.jpg,AFSA15.jpg,AFNE05.jpg,AFNE12.jpg,AFSA09.jpg,FS,4,num_8,32,num_2,1.03350096266,,,2017_May_30_1614,60.0043688543,FEMA4ImagesEEG,001,200204,
AFNE01.JPG,AFNE01.JPG,AFNE01.JPG,AFNE01.JPG,AFNE01.JPG,AFNE01.JPG,0,7,7,4,,,,,,,,,,,,,,,,,,,,,,,AFNE14.jpg,AFSA17.jpg,AFSA02.jpg,AFNE16.jpg,AFNE14.jpg,FN,3,num_8,16,num_8,0.683469161391,,,2017_May_30_1614,60.0043688543,FEMA4ImagesEEG,001,200204,
AFNE01.JPG,AFNE01.JPG,AFNE01.JPG,AFNE01.JPG,AFNE01.JPG,AFNE01.JPG,0,8,8,5,,,,,,,,,,,,,,,,,,,,,,,AFNE18.jpg,AFSA02.jpg,AFSA03.jpg,AFNE14.jpg,AFSA02.jpg,FS,4,num_6,32,num_8,0.716807508841,,,2017_May_30_1614,60.0043688543,FEMA4ImagesEEG,001,200204,
AFNE01.JPG,AFNE01.JPG,AFNE01.JPG,AFNE01.JPG,AFNE01.JPG,AFNE01.JPG,0,9,9,3,,,,,,,,,,,,,,,,,,,,,,,AFSA06.jpg,AFNE05.jpg,AFNE08.jpg,AFSA13.jpg,AFSA13.jpg,FS,4,num_4,16,num_4,0.783464318141,,,2017_May_30_1614,60.0043688543,FEMA4ImagesEEG,001,200204,
AFNE01.JPG,AFNE01.JPG,AFNE01.JPG,AFNE01.JPG,AFNE01.JPG,AFNE01.JPG,1,0,10,9,,,,,,,,,,,,,,,,,,,,,,,AFNE04.jpg,AFSA09.jpg,AFNE06.jpg,AFSA13.jpg,AFNE04.jpg,FN,3,num_8,32,num_2,0.850160899106,,,2017_May_30_1614,60.0043688543,FEMA4ImagesEEG,001,200204,
AFNE01.JPG,AFNE01.JPG,AFNE01.JPG,AFNE01.JPG,AFNE01.JPG,AFNE01.JPG,1,1,11,3,,,,,,,,,,,,,,,,,,,,,,,AFSA18.jpg,AFNE01.jpg,AFNE14.jpg,AFSA20.jpg,AFNE01.jpg,FN,3,num_6,32,num_8,0.550196597585,,,2017_May_30_1614,60.0043688543,FEMA4ImagesEEG,001,200204,
AFNE01.JPG,AFNE01.JPG,AFNE01.JPG,AFNE01.JPG,AFNE01.JPG,AFNE01.JPG,1,2,12,2,,,,,,,,,,,,,,,,,,,,,,,AFNE15.jpg,AFSA09.jpg,AFNE08.jpg,AFSA05.jpg,AFSA05.jpg,FS,4,num_4,16,num_4,0.500023895176,,,2017_May_30_1614,60.0043688543,FEMA4ImagesEEG,001,200204,
AFNE01.JPG,AFNE01.JPG,AFNE01.JPG,AFNE01.JPG,AFNE01.JPG,AFNE01.JPG,1,3,13,8,,,,,,,,,,,,,,,,,,,,,,,AFSA04.jpg,AFNE12.jpg,AFSA10.jpg,AFNE02.jpg,AFSA10.jpg,FS,4,num_2,32,num_8,0.600151838269,,,2017_May_30_1614,60.0043688543,FEMA4ImagesEEG,001,200204,
AFNE01.JPG,AFNE01.JPG,AFNE01.JPG,AFNE01.JPG,AFNE01.JPG,AFNE01.JPG,1,4,14,6,,,,,,,,,,,,,,,,,,,,,,,AFNE18.jpg,AFNE06.jpg,AFSA18.jpg,AFSA01.jpg,AFNE06.jpg,FN,3,num_6,32,num_4,0.56679103896,,,2017_May_30_1614,60.0043688543,FEMA4ImagesEEG,001,200204,
AFNE01.JPG,AFNE01.JPG,AFNE01.JPG,AFNE01.JPG,AFNE01.JPG,AFNE01.JPG,1,5,15,5,,,,,,,,,,,,,,,,,,,,,,,AFNE03.jpg,AFNE06.jpg,AFSA03.jpg,AFSA10.jpg,AFNE06.jpg,FN,3,num_6,16,num_6,0.666755725397,,,2017_May_30_1614,60.0043688543,FEMA4ImagesEEG,001,200204,
AFNE01.JPG,AFNE01.JPG,AFNE01.JPG,AFNE01.JPG,AFNE01.JPG,AFNE01.JPG,1,6,16,7,,,,,,,,,,,,,,,,,,,,,,,AFSA05.jpg,AFNE17.jpg,AFSA03.jpg,AFNE02.jpg,AFNE17.jpg,FN,3,num_6,32,num_8,0.600122330245,,,2017_May_30_1614,60.0043688543,FEMA4ImagesEEG,001,200204,
AFNE01.JPG,AFNE01.JPG,AFNE01.JPG,AFNE01.JPG,AFNE01.JPG,AFNE01.JPG,1,7,17,4,,,,,,,,,,,,,,,,,,,,,,,AFNE04.jpg,AFNE09.jpg,AFSA16.jpg,AFSA12.jpg,AFNE09.jpg,FN,3,num_6,32,num_2,0.733501700452,,,2017_May_30_1614,60.0043688543,FEMA4ImagesEEG,001,200204,
AFNE01.JPG,AFNE01.JPG,AFNE01.JPG,AFNE01.JPG,AFNE01.JPG,AFNE01.JPG,1,8,18,1,,,,,,,,,,,,,,,,,,,,,,,AFSA02.jpg,AFNE14.jpg,AFSA18.jpg,AFNE10.jpg,AFNE14.jpg,FN,3,num_6,32,num_2,0.583382914308,,,2017_May_30_1614,60.0043688543,FEMA4ImagesEEG,001,200204,
AFNE01.JPG,AFNE01.JPG,AFNE01.JPG,AFNE01.JPG,AFNE01.JPG,AFNE01.JPG,1,9,19,0,,,,,,,,,,,,,,,,,,,,,,,AFNE06.jpg,AFSA03.jpg,AFNE12.jpg,AFSA02.jpg,AFNE12.jpg,FN,3,num_2,16,num_2,0.600155045744,,,2017_May_30_1614,60.0043688543,FEMA4ImagesEEG,001,200204,
AFNE01.JPG,AFNE01.JPG,AFNE01.JPG,AFNE01.JPG,AFNE01.JPG,AFNE01.JPG,2,0,20,6,,,,,,,,,,,,,,,,,,,,,,,AFNE18.jpg,AFSA12.jpg,AFSA17.jpg,AFNE19.jpg,AFSA17.jpg,FS,4,num_2,32,num_6,0.600162743591,,,2017_May_30_1614,60.0043688543,FEMA4ImagesEEG,001,200204,
AFNE01.JPG,AFNE01.JPG,AFNE01.JPG,AFNE01.JPG,AFNE01.JPG,AFNE01.JPG,2,1,21,8,,,,,,,,,,,,,,,,,,,,,,,AFSA13.jpg,AFNE12.jpg,AFNE16.jpg,AFSA08.jpg,AFSA08.jpg,FS,4,num_4,32,num_8,0.516651693499,,,2017_May_30_1614,60.0043688543,FEMA4ImagesEEG,001,200204,
AFNE01.JPG,AFNE01.JPG,AFNE01.JPG,AFNE01.JPG,AFNE01.JPG,AFNE01.JPG,2,2,22,0,,,,,,,,,,,,,,,,,,,,,,,AFSA01.jpg,AFNE08.jpg,AFSA12.jpg,AFNE11.jpg,AFSA01.jpg,FS,4,num_8,32,num_4,0.60015087598,,,2017_May_30_1614,60.0043688543,FEMA4ImagesEEG,001,200204,
AFNE01.JPG,AFNE01.JPG,AFNE01.JPG,AFNE01.JPG,AFNE01.JPG,AFNE01.JPG,2,3,23,7,,,,,,,,,,,,,,,,,,,,,,,AFSA07.jpg,AFNE09.jpg,AFSA03.jpg,AFNE13.jpg,AFNE09.jpg,FN,3,num_6,32,num_8,0.950123661198,,,2017_May_30_1614,60.0043688543,FEMA4ImagesEEG,001,200204,
AFNE01.JPG,AFNE01.JPG,AFNE01.JPG,AFNE01.JPG,AFNE01.JPG,AFNE01.JPG,2,4,24,5,,,,,,,,,,,,,,,,,,,,,,,AFNE07.jpg,AFNE03.jpg,AFSA05.jpg,AFSA12.jpg,AFNE03.jpg,FN,3,num_6,32,num_2,0.683588155778,,,2017_May_30_1614,60.0043688543,FEMA4ImagesEEG,001,200204,
AFNE01.JPG,AFNE01.JPG,AFNE01.JPG,AFNE01.JPG,AFNE01.JPG,AFNE01.JPG,2,5,25,2,,,,,,,,,,,,,,,,,,,,,,,AFSA16.jpg,AFNE01.jpg,AFSA08.jpg,AFNE20.jpg,AFSA16.jpg,FS,4,num_8,32,num_6,0.500133588212,,,2017_May_30_1614,60.0043688543,FEMA4ImagesEEG,001,200204,
AFNE01.JPG,AFNE01.JPG,AFNE01.JPG,AFNE01.JPG,AFNE01.JPG,AFNE01.JPG,2,6,26,4,,,,,,,,,,,,,,,,,,,,,,,AFNE11.jpg,AFSA18.jpg,AFNE03.jpg,AFSA19.jpg,AFSA18.jpg,FS,4,num_6,16,num_6,0.600159536116,,,2017_May_30_1614,60.0043688543,FEMA4ImagesEEG,001,200204,
AFNE01.JPG,AFNE01.JPG,AFNE01.JPG,AFNE01.JPG,AFNE01.JPG,AFNE01.JPG,2,7,27,1,,,,,,,,,,,,,,,,,,,,,,,AFNE12.jpg,AFNE04.jpg,AFSA12.jpg,AFSA01.jpg,AFNE04.jpg,FN,3,num_6,32,num_2,0.60013451823,,,2017_May_30_1614,60.0043688543,FEMA4ImagesEEG,001,200204,
AFNE01.JPG,AFNE01.JPG,AFNE01.JPG,AFNE01.JPG,AFNE01.JPG,AFNE01.JPG,2,8,28,3,,,,,,,,,,,,,,,,,,,,,,,AFSA02.jpg,AFNE13.jpg,AFNE15.jpg,AFSA09.jpg,AFSA09.jpg,FS,4,num_4,16,num_4,0.500172397587,,,2017_May_30_1614,60.0043688543,FEMA4ImagesEEG,001,200204,
AFNE01.JPG,AFNE01.JPG,AFNE01.JPG,AFNE01.JPG,AFNE01.JPG,AFNE01.JPG,2,9,29,9,,,,,,,,,,,,,,,,,,,,,,,AFSA17.jpg,AFNE20.jpg,AFNE10.jpg,AFSA06.jpg,AFSA17.jpg,FS,4,num_8,32,num_6,0.450136009604,,,2017_May_30_1614,60.0043688543,FEMA4ImagesEEG,001,200204,
AFNE01.JPG,AFNE01.JPG,AFNE01.JPG,AFNE01.JPG,AFNE01.JPG,AFNE01.JPG,3,0,30,2,,,,,,,,,,,,,,,,,,,,,,,AFNE04.jpg,AFSA15.jpg,AFNE14.jpg,AFSA12.jpg,AFNE04.jpg,FN,3,num_8,32,num_2,0.500199981267,,,2017_May_30_1614,60.0043688543,FEMA4ImagesEEG,001,200204,
AFNE01.JPG,AFNE01.JPG,AFNE01.JPG,AFNE01.JPG,AFNE01.JPG,AFNE01.JPG,3,1,31,3,,,,,,,,,,,,,,,,,,,,,,,AFNE11.jpg,AFSA09.jpg,AFNE17.jpg,AFSA17.jpg,AFNE11.jpg,FN,3,num_8,16,num_8,0.733453268884,,,2017_May_30_1614,60.0043688543,FEMA4ImagesEEG,001,200204,
AFNE01.JPG,AFNE01.JPG,AFNE01.JPG,AFNE01.JPG,AFNE01.JPG,AFNE01.JPG,3,2,32,9,,,,,,,,,,,,,,,,,,,,,,,AFNE10.jpg,AFNE19.jpg,AFSA03.jpg,AFSA02.jpg,AFSA03.jpg,FS,4,num_2,32,num_6,0.750142007601,,,2017_May_30_1614,60.0043688543,FEMA4ImagesEEG,001,200204,
AFNE01.JPG,AFNE01.JPG,AFNE01.JPG,AFNE01.JPG,AFNE01.JPG,AFNE01.JPG,3,3,33,8,,,,,,,,,,,,,,,,,,,,,,,AFSA01.jpg,AFNE14.jpg,AFSA09.jpg,AFNE07.jpg,AFNE07.jpg,FN,3,num_4,32,num_2,0.683469481999,,,2017_May_30_1614,60.0043688543,FEMA4ImagesEEG,001,200204,
AFNE01.JPG,AFNE01.JPG,AFNE01.JPG,AFNE01.JPG,AFNE01.JPG,AFNE01.JPG,3,4,34,5,,,,,,,,,,,,,,,,,,,,,,,AFNE01.jpg,AFSA05.jpg,AFSA15.jpg,AFNE04.jpg,AFSA15.jpg,FS,4,num_2,16,num_2,0.650124398991,,,2017_May_30_1614,60.0043688543,FEMA4ImagesEEG,001,200204,
AFNE01.JPG,AFNE01.JPG,AFNE01.JPG,AFNE01.JPG,AFNE01.JPG,AFNE01.JPG,3,5,35,7,,,,,,,,,,,,,,,,,,,,,,,AFNE11.jpg,AFNE13.jpg,AFSA06.jpg,AFSA08.jpg,AFNE11.jpg,FN,3,num_8,32,num_6,0.733460325049,,,2017_May_30_1614,60.0043688543,FEMA4ImagesEEG,001,200204,
AFNE01.JPG,AFNE01.JPG,AFNE01.JPG,AFNE01.JPG,AFNE01.JPG,AFNE01.JPG,3,6,36,1,,,,,,,,,,,,,,,,,,,,,,,AFSA15.jpg,AFNE04.jpg,AFSA12.jpg,AFNE11.jpg,AFSA12.jpg,FS,4,num_2,32,num_8,1.88335972489,,,2017_May_30_1614,60.0043688543,FEMA4ImagesEEG,001,200204,
AFNE01.JPG,AFNE01.JPG,AFNE01.JPG,AFNE01.JPG,AFNE01.JPG,AFNE01.JPG,3,7,37,6,,,,,,,,,,,,,,,,,,,,,,,AFSA06.jpg,AFNE10.jpg,AFNE02.jpg,AFSA07.jpg,AFNE02.jpg,FN,3,num_2,32,num_6,0.600113028893,,,2017_May_30_1614,60.0043688543,FEMA4ImagesEEG,001,200204,
AFNE01.JPG,AFNE01.JPG,AFNE01.JPG,AFNE01.JPG,AFNE01.JPG,AFNE01.JPG,3,8,38,0,,,,,,,,,,,,,,,,,,,,,,,AFNE09.jpg,AFSA12.jpg,AFSA10.jpg,AFNE16.jpg,AFNE09.jpg,FN,3,num_8,16,num_8,0.583515059203,,,2017_May_30_1614,60.0043688543,FEMA4ImagesEEG,001,200204,
AFNE01.JPG,AFNE01.JPG,AFNE01.JPG,AFNE01.JPG,AFNE01.JPG,AFNE01.JPG,3,9,39,4,,,,,,,,,,,,,,,,,,,,,,,AFNE16.jpg,AFSA01.jpg,AFNE01.jpg,AFSA11.jpg,AFNE01.jpg,FN,3,num_2,32,num_8,0.683509574505,,,2017_May_30_1614,60.0043688543,FEMA4ImagesEEG,001,200204,
AFNE01.JPG,AFNE01.JPG,AFNE01.JPG,AFNE01.JPG,AFNE01.JPG,AFNE01.JPG,4,0,40,6,,,,,,,,,,,,,,,,,,,,,,,AFNE01.jpg,AFNE15.jpg,AFSA18.jpg,AFSA16.jpg,AFSA18.jpg,FS,4,num_2,16,num_2,0.666833344381,,,2017_May_30_1614,60.0043688543,FEMA4ImagesEEG,001,200204,
AFNE01.JPG,AFNE01.JPG,AFNE01.JPG,AFNE01.JPG,AFNE01.JPG,AFNE01.JPG,4,1,41,5,,,,,,,,,,,,,,,,,,,,,,,AFNE08.jpg,AFSA08.jpg,AFSA11.jpg,AFNE10.jpg,AFNE10.jpg,FN,3,num_4,32,num_6,0.716744643869,,,2017_May_30_1614,60.0043688543,FEMA4ImagesEEG,001,200204,
AFNE01.JPG,AFNE01.JPG,AFNE01.JPG,AFNE01.JPG,AFNE01.JPG,AFNE01.JPG,4,2,42,7,,,,,,,,,,,,,,,,,,,,,,,AFNE19.jpg,AFSA01.jpg,AFSA08.jpg,AFNE15.jpg,AFNE15.jpg,FN,3,num_4,16,num_4,0.350162021816,,,2017_May_30_1614,60.0043688543,FEMA4ImagesEEG,001,200204,
AFNE01.JPG,AFNE01.JPG,AFNE01.JPG,AFNE01.JPG,AFNE01.JPG,AFNE01.JPG,4,3,43,1,,,,,,,,,,,,,,,,,,,,,,,AFSA20.jpg,AFSA17.jpg,AFNE17.jpg,AFNE16.jpg,AFNE16.jpg,FN,3,num_4,16,num_4,3.51655130181,,,2017_May_30_1614,60.0043688543,FEMA4ImagesEEG,001,200204,
AFNE01.JPG,AFNE01.JPG,AFNE01.JPG,AFNE01.JPG,AFNE01.JPG,AFNE01.JPG,4,4,44,4,,,,,,,,,,,,,,,,,,,,,,,AFNE10.jpg,AFSA03.jpg,AFNE12.jpg,AFSA09.jpg,AFNE12.jpg,FN,3,num_2,32,num_8,0.48348814901,,,2017_May_30_1614,60.0043688543,FEMA4ImagesEEG,001,200204,
AFNE01.JPG,AFNE01.JPG,AFNE01.JPG,AFNE01.JPG,AFNE01.JPG,AFNE01.JPG,4,5,45,8,,,,,,,,,,,,,,,,,,,,,,,AFNE10.jpg,AFSA12.jpg,AFNE17.jpg,AFSA10.jpg,AFSA12.jpg,FS,4,num_6,16,num_6,0.65026937332,,,2017_May_30_1614,60.0043688543,FEMA4ImagesEEG,001,200204,
AFNE01.JPG,AFNE01.JPG,AFNE01.JPG,AFNE01.JPG,AFNE01.JPG,AFNE01.JPG,4,6,46,9,,,,,,,,,,,,,,,,,,,,,,,AFSA10.jpg,AFNE10.jpg,AFSA04.jpg,AFNE08.jpg,AFNE08.jpg,FN,3,num_4,32,num_8,0.46687670867,,,2017_May_30_1614,60.0043688543,FEMA4ImagesEEG,001,200204,
AFNE01.JPG,AFNE01.JPG,AFNE01.JPG,AFNE01.JPG,AFNE01.JPG,AFNE01.JPG,4,7,47,3,,,,,,,,,,,,,,,,,,,,,,,AFSA15.jpg,AFSA11.jpg,AFNE12.jpg,AFNE08.jpg,AFNE08.jpg,FN,3,num_4,16,num_4,0.450130557176,,,2017_May_30_1614,60.0043688543,FEMA4ImagesEEG,001,200204,
AFNE01.JPG,AFNE01.JPG,AFNE01.JPG,AFNE01.JPG,AFNE01.JPG,AFNE01.JPG,4,8,48,0,,,,,,,,,,,,,,,,,,,,,,,AFNE06.jpg,AFSA02.jpg,AFNE13.jpg,AFSA11.jpg,AFNE06.jpg,FN,3,num_8,32,num_2,0.300233402522,,,2017_May_30_1614,60.0043688543,FEMA4ImagesEEG,001,200204,
AFNE01.JPG,AFNE01.JPG,AFNE01.JPG,AFNE01.JPG,AFNE01.JPG,AFNE01.JPG,4,9,49,2,,,,,,,,,,,,,,,,,,,,,,,AFNE04.jpg,AFSA12.jpg,AFSA17.jpg,AFNE05.jpg,AFSA17.jpg,FS,4,num_2,32,num_6,0.383525066311,,,2017_May_30_1614,60.0043688543,FEMA4ImagesEEG,001,200204,
AFNE01.JPG,AFNE01.JPG,AFNE01.JPG,AFNE01.JPG,AFNE01.JPG,AFNE01.JPG,5,0,50,3,,,,,,,,,,,,,,,,,,,,,,,AFSA19.jpg,AFSA07.jpg,AFNE10.jpg,AFNE06.jpg,AFNE06.jpg,FN,3,num_4,16,num_4,0.25022780546,,,2017_May_30_1614,60.0043688543,FEMA4ImagesEEG,001,200204,
AFNE01.JPG,AFNE01.JPG,AFNE01.JPG,AFNE01.JPG,AFNE01.JPG,AFNE01.JPG,5,1,51,9,,,,,,,,,,,,,,,,,,,,,,,AFSA01.jpg,AFNE16.jpg,AFSA05.jpg,AFNE12.jpg,AFSA01.jpg,FS,4,num_8,16,num_8,0.283611698076,,,2017_May_30_1614,60.0043688543,FEMA4ImagesEEG,001,200204,
AFNE01.JPG,AFNE01.JPG,AFNE01.JPG,AFNE01.JPG,AFNE01.JPG,AFNE01.JPG,5,2,52,5,,,,,,,,,,,,,,,,,,,,,,,AFNE04.jpg,AFSA01.jpg,AFSA15.jpg,AFNE19.jpg,AFNE04.jpg,FN,3,num_8,32,num_6,0.266822567675,,,2017_May_30_1614,60.0043688543,FEMA4ImagesEEG,001,200204,
AFNE01.JPG,AFNE01.JPG,AFNE01.JPG,AFNE01.JPG,AFNE01.JPG,AFNE01.JPG,5,3,53,4,,,,,,,,,,,,,,,,,,,,,,,AFNE11.jpg,AFNE16.jpg,AFSA09.jpg,AFSA18.jpg,AFSA09.jpg,FS,4,num_2,16,num_2,0.283559417352,,,2017_May_30_1614,60.0043688543,FEMA4ImagesEEG,001,200204,
AFNE01.JPG,AFNE01.JPG,AFNE01.JPG,AFNE01.JPG,AFNE01.JPG,AFNE01.JPG,5,4,54,6,,,,,,,,,,,,,,,,,,,,,,,AFNE10.jpg,AFSA01.jpg,AFSA20.jpg,AFNE01.jpg,AFSA20.jpg,FS,4,num_2,32,num_4,0.316791600315,,,2017_May_30_1614,60.0043688543,FEMA4ImagesEEG,001,200204,
AFNE01.JPG,AFNE01.JPG,AFNE01.JPG,AFNE01.JPG,AFNE01.JPG,AFNE01.JPG,5,5,55,2,,,,,,,,,,,,,,,,,,,,,,,AFSA06.jpg,AFNE19.jpg,AFNE07.jpg,AFSA04.jpg,AFSA06.jpg,FS,4,num_8,32,num_6,0.516802441329,,,2017_May_30_1614,60.0043688543,FEMA4ImagesEEG,001,200204,
AFNE01.JPG,AFNE01.JPG,AFNE01.JPG,AFNE01.JPG,AFNE01.JPG,AFNE01.JPG,5,6,56,8,,,,,,,,,,,,,,,,,,,,,,,AFNE08.jpg,AFNE02.jpg,AFSA18.jpg,AFSA20.jpg,AFSA18.jpg,FS,4,num_2,32,num_4,0.500174001325,,,2017_May_30_1614,60.0043688543,FEMA4ImagesEEG,001,200204,
AFNE01.JPG,AFNE01.JPG,AFNE01.JPG,AFNE01.JPG,AFNE01.JPG,AFNE01.JPG,5,7,57,7,,,,,,,,,,,,,,,,,,,,,,,AFSA02.jpg,AFNE17.jpg,AFSA13.jpg,AFNE04.jpg,AFNE04.jpg,FN,3,num_4,32,num_6,0.483506431337,,,2017_May_30_1614,60.0043688543,FEMA4ImagesEEG,001,200204,
AFNE01.JPG,AFNE01.JPG,AFNE01.JPG,AFNE01.JPG,AFNE01.JPG,AFNE01.JPG,5,8,58,0,,,,,,,,,,,,,,,,,,,,,,,AFSA04.jpg,AFNE17.jpg,AFSA07.jpg,AFNE18.jpg,AFNE18.jpg,FN,3,num_4,16,num_4,0.466904292116,,,2017_May_30_1614,60.0043688543,FEMA4ImagesEEG,001,200204,
AFNE01.JPG,AFNE01.JPG,AFNE01.JPG,AFNE01.JPG,AFNE01.JPG,AFNE01.JPG,5,9,59,1,,,,,,,,,,,,,,,,,,,,,,,AFNE07.jpg,AFNE20.jpg,AFSA12.jpg,AFSA07.jpg,AFSA12.jpg,FS,4,num_2,32,num_4,0.583532699849,,,2017_May_30_1614,60.0043688543,FEMA4ImagesEEG,001,200204,
,,,,,,,,,,,,,,,,,,,,,,,,,,,,,,,,,,,,,,,,,,,space,1.60003412678,2017_May_30_1614,60.0043688543,FEMA4ImagesEEG,001,200204,
AFNE01.JPG,AFNE01.JPG,AFNE01.JPG,AFNE01.JPG,AFNE01.JPG,AFNE01.JPG,,,,,0,0,0,6,,,,,,,,,,,,,,,,,,,AMSA13.jpg,AMSA04.jpg,AMNE08.jpg,AMNE09.jpg,AMSA13.jpg,MS,2,num_8,32,num_2,0.71676549199,,,2017_May_30_1614,60.0043688543,FEMA4ImagesEEG,001,200204,
AFNE01.JPG,AFNE01.JPG,AFNE01.JPG,AFNE01.JPG,AFNE01.JPG,AFNE01.JPG,,,,,0,1,1,1,,,,,,,,,,,,,,,,,,,AMNE08.jpg,AMNE07.jpg,AMSA11.jpg,AMSA07.jpg,AMSA11.jpg,MS,2,num_2,32,num_6,0.600181025686,,,2017_May_30_1614,60.0043688543,FEMA4ImagesEEG,001,200204,
AFNE01.JPG,AFNE01.JPG,AFNE01.JPG,AFNE01.JPG,AFNE01.JPG,AFNE01.JPG,,,,,0,2,2,2,,,,,,,,,,,,,,,,,,,AMSA01.jpg,AMNE06.jpg,AMNE07.jpg,AMSA17.jpg,AMSA01.jpg,MS,2,num_8,16,num_8,0.316806033487,,,2017_May_30_1614,60.0043688543,FEMA4ImagesEEG,001,200204,
AFNE01.JPG,AFNE01.JPG,AFNE01.JPG,AFNE01.JPG,AFNE01.JPG,AFNE01.JPG,,,,,0,3,3,0,,,,,,,,,,,,,,,,,,,AMSA13.jpg,AMSA02.jpg,AMNE12.jpg,AMNE19.jpg,AMNE19.jpg,MN,1,num_4,32,num_6,2.33333311952,,,2017_May_30_1614,60.0043688543,FEMA4ImagesEEG,001,200204,
AFNE01.JPG,AFNE01.JPG,AFNE01.JPG,AFNE01.JPG,AFNE01.JPG,AFNE01.JPG,,,,,0,4,4,4,,,,,,,,,,,,,,,,,,,AMNE19.jpg,AMSA03.jpg,AMNE13.jpg,AMSA13.jpg,AMNE19.jpg,MN,1,num_8,16,num_8,0.483449019026,,,2017_May_30_1614,60.0043688543,FEMA4ImagesEEG,001,200204,
AFNE01.JPG,AFNE01.JPG,AFNE01.JPG,AFNE01.JPG,AFNE01.JPG,AFNE01.JPG,,,,,0,5,5,5,,,,,,,,,,,,,,,,,,,AMNE13.jpg,AMSA01.jpg,AMSA15.jpg,AMNE16.jpg,AMNE16.jpg,MN,1,num_4,32,num_2,0.616769693559,,,2017_May_30_1614,60.0043688543,FEMA4ImagesEEG,001,200204,
AFNE01.JPG,AFNE01.JPG,AFNE01.JPG,AFNE01.JPG,AFNE01.JPG,AFNE01.JPG,,,,,0,6,6,8,,,,,,,,,,,,,,,,,,,AMNE18.jpg,AMSA12.jpg,AMSA10.jpg,AMNE11.jpg,AMSA12.jpg,MS,2,num_6,16,num_6,0.466772788903,,,2017_May_30_1614,60.0043688543,FEMA4ImagesEEG,001,200204,
AFNE01.JPG,AFNE01.JPG,AFNE01.JPG,AFNE01.JPG,AFNE01.JPG,AFNE01.JPG,,,,,0,7,7,7,,,,,,,,,,,,,,,,,,,AMSA18.jpg,AMNE04.jpg,AMSA14.jpg,AMNE08.jpg,AMNE08.jpg,MN,1,num_4,16,num_4,0.60022560833,,,2017_May_30_1614,60.0043688543,FEMA4ImagesEEG,001,200204,
AFNE01.JPG,AFNE01.JPG,AFNE01.JPG,AFNE01.JPG,AFNE01.JPG,AFNE01.JPG,,,,,0,8,8,9,,,,,,,,,,,,,,,,,,,AMNE12.jpg,AMSA12.jpg,AMSA03.jpg,AMNE11.jpg,AMSA03.jpg,MS,2,num_2,16,num_2,1.3498053588,,,2017_May_30_1614,60.0043688543,FEMA4ImagesEEG,001,200204,
AFNE01.JPG,AFNE01.JPG,AFNE01.JPG,AFNE01.JPG,AFNE01.JPG,AFNE01.JPG,,,,,0,9,9,3,,,,,,,,,,,,,,,,,,,AMSA15.jpg,AMNE07.jpg,AMSA04.jpg,AMNE12.jpg,AMNE07.jpg,MN,1,num_6,16,num_6,0.516818799078,,,2017_May_30_1614,60.0043688543,FEMA4ImagesEEG,001,200204,
AFNE01.JPG,AFNE01.JPG,AFNE01.JPG,AFNE01.JPG,AFNE01.JPG,AFNE01.JPG,,,,,1,0,10,7,,,,,,,,,,,,,,,,,,,AMSA02.jpg,AMSA10.jpg,AMNE20.jpg,AMNE03.jpg,AMSA10.jpg,MS,2,num_6,32,num_8,0.266836359631,,,2017_May_30_1614,60.0043688543,FEMA4ImagesEEG,001,200204,
AFNE01.JPG,AFNE01.JPG,AFNE01.JPG,AFNE01.JPG,AFNE01.JPG,AFNE01.JPG,,,,,1,1,11,3,,,,,,,,,,,,,,,,,,,AMNE06.jpg,AMSA19.jpg,AMNE07.jpg,AMSA05.jpg,AMNE06.jpg,MN,1,num_8,32,num_2,1.95005181548,,,2017_May_30_1614,60.0043688543,FEMA4ImagesEEG,001,200204,
AFNE01.JPG,AFNE01.JPG,AFNE01.JPG,AFNE01.JPG,AFNE01.JPG,AFNE01.JPG,,,,,1,2,12,4,,,,,,,,,,,,,,,,,,,AMSA03.jpg,AMNE10.jpg,AMSA17.jpg,AMNE03.jpg,AMNE03.jpg,MN,1,num_4,32,num_6,0.483438113704,,,2017_May_30_1614,60.0043688543,FEMA4ImagesEEG,001,200204,
AFNE01.JPG,AFNE01.JPG,AFNE01.JPG,AFNE01.JPG,AFNE01.JPG,AFNE01.JPG,,,,,1,3,13,2,,,,,,,,,,,,,,,,,,,AMSA02.jpg,AMNE04.jpg,AMSA05.jpg,AMNE07.jpg,AMSA05.jpg,MS,2,num_2,16,num_2,0.816756158369,,,2017_May_30_1614,60.0043688543,FEMA4ImagesEEG,001,200204,
AFNE01.JPG,AFNE01.JPG,AFNE01.JPG,AFNE01.JPG,AFNE01.JPG,AFNE01.JPG,,,,,1,4,14,1,,,,,,,,,,,,,,,,,,,AMSA04.jpg,AMNE19.jpg,AMSA03.jpg,AMNE18.jpg,AMSA04.jpg,MS,2,num_8,16,num_8,3.51656701812,,,2017_May_30_1614,60.0043688543,FEMA4ImagesEEG,001,200204,
AFNE01.JPG,AFNE01.JPG,AFNE01.JPG,AFNE01.JPG,AFNE01.JPG,AFNE01.JPG,,,,,1,5,15,6,,,,,,,,,,,,,,,,,,,AMSA10.jpg,AMSA07.jpg,AMNE15.jpg,AMNE06.jpg,AMSA07.jpg,MS,2,num_6,16,num_6,0.316912839888,,,2017_May_30_1614,60.0043688543,FEMA4ImagesEEG,001,200204,
AFNE01.JPG,AFNE01.JPG,AFNE01.JPG,AFNE01.JPG,AFNE01.JPG,AFNE01.JPG,,,,,1,6,16,0,,,,,,,,,,,,,,,,,,,AMNE13.jpg,AMSA10.jpg,AMNE19.jpg,AMSA19.jpg,AMNE19.jpg,MN,1,num_2,32,num_4,0.23354419833,,,2017_May_30_1614,60.0043688543,FEMA4ImagesEEG,001,200204,
AFNE01.JPG,AFNE01.JPG,AFNE01.JPG,AFNE01.JPG,AFNE01.JPG,AFNE01.JPG,,,,,1,7,17,5,,,,,,,,,,,,,,,,,,,AMNE20.jpg,AMSA03.jpg,AMNE04.jpg,AMSA09.jpg,AMSA03.jpg,MS,2,num_6,32,num_2,0.283520928817,,,2017_May_30_1614,60.0043688543,FEMA4ImagesEEG,001,200204,
AFNE01.JPG,AFNE01.JPG,AFNE01.JPG,AFNE01.JPG,AFNE01.JPG,AFNE01.JPG,,,,,1,8,18,8,,,,,,,,,,,,,,,,,,,AMNE19.jpg,AMNE03.jpg,AMSA04.jpg,AMSA05.jpg,AMSA04.jpg,MS,2,num_2,16,num_2,0.366786933271,,,2017_May_30_1614,60.0043688543,FEMA4ImagesEEG,001,200204,
AFNE01.JPG,AFNE01.JPG,AFNE01.JPG,AFNE01.JPG,AFNE01.JPG,AFNE01.JPG,,,,,1,9,19,9,,,,,,,,,,,,,,,,,,,AMNE05.jpg,AMSA07.jpg,AMNE17.jpg,AMSA01.jpg,AMNE05.jpg,MN,1,num_8,16,num_8,0.433534512063,,,2017_May_30_1614,60.0043688543,FEMA4ImagesEEG,001,200204,
AFNE01.JPG,AFNE01.JPG,AFNE01.JPG,AFNE01.JPG,AFNE01.JPG,AFNE01.JPG,,,,,2,0,20,4,,,,,,,,,,,,,,,,,,,AMSA09.jpg,AMNE07.jpg,AMSA13.jpg,AMNE15.jpg,AMSA13.jpg,MS,2,num_2,32,num_4,0.28349302453,,,2017_May_30_1614,60.0043688543,FEMA4ImagesEEG,001,200204,
AFNE01.JPG,AFNE01.JPG,AFNE01.JPG,AFNE01.JPG,AFNE01.JPG,AFNE01.JPG,,,,,2,1,21,7,,,,,,,,,,,,,,,,,,,AMNE16.jpg,AMSA09.jpg,AMSA08.jpg,AMNE20.jpg,AMSA08.jpg,MS,2,num_2,32,num_6,0.483477885369,,,2017_May_30_1614,60.0043688543,FEMA4ImagesEEG,001,200204,
AFNE01.JPG,AFNE01.JPG,AFNE01.JPG,AFNE01.JPG,AFNE01.JPG,AFNE01.JPG,,,,,2,2,22,8,,,,,,,,,,,,,,,,,,,AMSA16.jpg,AMSA12.jpg,AMNE17.jpg,AMNE14.jpg,AMSA12.jpg,MS,2,num_6,32,num_4,2.55011095991,,,2017_May_30_1614,60.0043688543,FEMA4ImagesEEG,001,200204,
AFNE01.JPG,AFNE01.JPG,AFNE01.JPG,AFNE01.JPG,AFNE01.JPG,AFNE01.JPG,,,,,2,3,23,0,,,,,,,,,,,,,,,,,,,AMSA17.jpg,AMNE16.jpg,AMNE07.jpg,AMSA18.jpg,AMSA18.jpg,MS,2,num_4,32,num_6,0.483481734293,,,2017_May_30_1614,60.0043688543,FEMA4ImagesEEG,001,200204,
AFNE01.JPG,AFNE01.JPG,AFNE01.JPG,AFNE01.JPG,AFNE01.JPG,AFNE01.JPG,,,,,2,4,24,3,,,,,,,,,,,,,,,,,,,AMNE04.jpg,AMSA12.jpg,AMNE03.jpg,AMSA20.jpg,AMNE03.jpg,MN,1,num_2,16,num_2,0.616638511186,,,2017_May_30_1614,60.0043688543,FEMA4ImagesEEG,001,200204,
AFNE01.JPG,AFNE01.JPG,AFNE01.JPG,AFNE01.JPG,AFNE01.JPG,AFNE01.JPG,,,,,2,5,25,2,,,,,,,,,,,,,,,,,,,AMSA09.jpg,AMSA03.jpg,AMNE02.jpg,AMNE15.jpg,AMSA03.jpg,MS,2,num_6,32,num_2,0.700179389678,,,2017_May_30_1614,60.0043688543,FEMA4ImagesEEG,001,200204,
AFNE01.JPG,AFNE01.JPG,AFNE01.JPG,AFNE01.JPG,AFNE01.JPG,AFNE01.JPG,,,,,2,6,26,1,,,,,,,,,,,,,,,,,,,AMNE19.jpg,AMSA09.jpg,AMSA17.jpg,AMNE04.jpg,AMNE04.jpg,MN,1,num_4,16,num_4,0.783453413052,,,2017_May_30_1614,60.0043688543,FEMA4ImagesEEG,001,200204,
AFNE01.JPG,AFNE01.JPG,AFNE01.JPG,AFNE01.JPG,AFNE01.JPG,AFNE01.JPG,,,,,2,7,27,9,,,,,,,,,,,,,,,,,,,AMNE16.jpg,AMNE01.jpg,AMSA12.jpg,AMSA20.jpg,AMSA20.jpg,MS,2,num_4,32,num_6,1.01679137559,,,2017_May_30_1614,60.0043688543,FEMA4ImagesEEG,001,200204,
AFNE01.JPG,AFNE01.JPG,AFNE01.JPG,AFNE01.JPG,AFNE01.JPG,AFNE01.JPG,,,,,2,8,28,6,,,,,,,,,,,,,,,,,,,AMNE02.jpg,AMSA15.jpg,AMNE17.jpg,AMSA09.jpg,AMSA15.jpg,MS,2,num_6,32,num_2,0.616818766808,,,2017_May_30_1614,60.0043688543,FEMA4ImagesEEG,001,200204,
AFNE01.JPG,AFNE01.JPG,AFNE01.JPG,AFNE01.JPG,AFNE01.JPG,AFNE01.JPG,,,,,2,9,29,5,,,,,,,,,,,,,,,,,,,AMSA07.jpg,AMSA12.jpg,AMNE06.jpg,AMNE19.jpg,AMSA07.jpg,MS,2,num_8,32,num_4,1.20006568753,,,2017_May_30_1614,60.0043688543,FEMA4ImagesEEG,001,200204,
AFNE01.JPG,AFNE01.JPG,AFNE01.JPG,AFNE01.JPG,AFNE01.JPG,AFNE01.JPG,,,,,3,0,30,3,,,,,,,,,,,,,,,,,,,AMSA20.jpg,AMSA04.jpg,AMNE09.jpg,AMNE03.jpg,AMSA04.jpg,MS,2,num_6,32,num_4,0.666804157197,,,2017_May_30_1614,60.0043688543,FEMA4ImagesEEG,001,200204,
AFNE01.JPG,AFNE01.JPG,AFNE01.JPG,AFNE01.JPG,AFNE01.JPG,AFNE01.JPG,,,,,3,1,31,1,,,,,,,,,,,,,,,,,,,AMNE12.jpg,AMSA20.jpg,AMNE15.jpg,AMSA15.jpg,AMNE12.jpg,MN,1,num_8,32,num_2,0.483459282666,,,2017_May_30_1614,60.0043688543,FEMA4ImagesEEG,001,200204,
AFNE01.JPG,AFNE01.JPG,AFNE01.JPG,AFNE01.JPG,AFNE01.JPG,AFNE01.JPG,,,,,3,2,32,2,,,,,,,,,,,,,,,,,,,AMNE06.jpg,AMSA06.jpg,AMNE18.jpg,AMSA19.jpg,AMSA06.jpg,MS,2,num_6,16,num_6,0.266850151354,,,2017_May_30_1614,60.0043688543,FEMA4ImagesEEG,001,200204,
AFNE01.JPG,AFNE01.JPG,AFNE01.JPG,AFNE01.JPG,AFNE01.JPG,AFNE01.JPG,,,,,3,3,33,4,,,,,,,,,,,,,,,,,,,AMSA18.jpg,AMSA14.jpg,AMNE11.jpg,AMNE07.jpg,AMNE11.jpg,MN,1,num_2,32,num_8,0.749943469651,,,2017_May_30_1614,60.0043688543,FEMA4ImagesEEG,001,200204,
AFNE01.JPG,AFNE01.JPG,AFNE01.JPG,AFNE01.JPG,AFNE01.JPG,AFNE01.JPG,,,,,3,4,34,7,,,,,,,,,,,,,,,,,,,AMSA01.jpg,AMSA10.jpg,AMNE01.jpg,AMNE20.jpg,AMNE20.jpg,MN,1,num_4,16,num_4,1.88335234788,,,2017_May_30_1614,60.0043688543,FEMA4ImagesEEG,001,200204,
AFNE01.JPG,AFNE01.JPG,AFNE01.JPG,AFNE01.JPG,AFNE01.JPG,AFNE01.JPG,,,,,3,5,35,8,,,,,,,,,,,,,,,,,,,AMNE12.jpg,AMSA09.jpg,AMNE10.jpg,AMSA20.jpg,AMSA20.jpg,MS,2,num_4,16,num_4,0.88348802086,,,2017_May_30_1614,60.0043688543,FEMA4ImagesEEG,001,200204,
AFNE01.JPG,AFNE01.JPG,AFNE01.JPG,AFNE01.JPG,AFNE01.JPG,AFNE01.JPG,,,,,3,6,36,5,,,,,,,,,,,,,,,,,,,AMSA15.jpg,AMNE02.jpg,AMNE07.jpg,AMSA16.jpg,AMSA16.jpg,MS,2,num_4,16,num_4,0.58344160975,,,2017_May_30_1614,60.0043688543,FEMA4ImagesEEG,001,200204,
AFNE01.JPG,AFNE01.JPG,AFNE01.JPG,AFNE01.JPG,AFNE01.JPG,AFNE01.JPG,,,,,3,7,37,0,,,,,,,,,,,,,,,,,,,AMSA12.jpg,AMNE10.jpg,AMSA08.jpg,AMNE08.jpg,AMSA12.jpg,MS,2,num_8,16,num_8,1.23341429885,,,2017_May_30_1614,60.0043688543,FEMA4ImagesEEG,001,200204,
AFNE01.JPG,AFNE01.JPG,AFNE01.JPG,AFNE01.JPG,AFNE01.JPG,AFNE01.JPG,,,,,3,8,38,6,,,,,,,,,,,,,,,,,,,AMNE10.jpg,AMSA01.jpg,AMNE11.jpg,AMSA13.jpg,AMNE11.jpg,MN,1,num_2,32,num_8,0.66676951712,,,2017_May_30_1614,60.0043688543,FEMA4ImagesEEG,001,200204,
AFNE01.JPG,AFNE01.JPG,AFNE01.JPG,AFNE01.JPG,AFNE01.JPG,AFNE01.JPG,,,,,3,9,39,9,,,,,,,,,,,,,,,,,,,AMNE14.jpg,AMSA08.jpg,AMNE11.jpg,AMSA10.jpg,AMSA10.jpg,MS,2,num_4,32,num_8,0.583489399869,,,2017_May_30_1614,60.0043688543,FEMA4ImagesEEG,001,200204,
AFNE01.JPG,AFNE01.JPG,AFNE01.JPG,AFNE01.JPG,AFNE01.JPG,AFNE01.JPG,,,,,4,0,40,7,,,,,,,,,,,,,,,,,,,AMNE03.jpg,AMSA17.jpg,AMNE18.jpg,AMSA02.jpg,AMSA02.jpg,MS,2,num_4,16,num_4,0.550230916822,,,2017_May_30_1614,60.0043688543,FEMA4ImagesEEG,001,200204,
AFNE01.JPG,AFNE01.JPG,AFNE01.JPG,AFNE01.JPG,AFNE01.JPG,AFNE01.JPG,,,,,4,1,41,5,,,,,,,,,,,,,,,,,,,AMSA09.jpg,AMNE14.jpg,AMNE09.jpg,AMSA17.jpg,AMSA17.jpg,MS,2,num_4,32,num_2,0.466813522857,,,2017_May_30_1614,60.0043688543,FEMA4ImagesEEG,001,200204,
AFNE01.JPG,AFNE01.JPG,AFNE01.JPG,AFNE01.JPG,AFNE01.JPG,AFNE01.JPG,,,,,4,2,42,0,,,,,,,,,,,,,,,,,,,AMNE18.jpg,AMSA08.jpg,AMNE02.jpg,AMSA06.jpg,AMNE02.jpg,MN,1,num_2,32,num_8,0.316805071197,,,2017_May_30_1614,60.0043688543,FEMA4ImagesEEG,001,200204,
AFNE01.JPG,AFNE01.JPG,AFNE01.JPG,AFNE01.JPG,AFNE01.JPG,AFNE01.JPG,,,,,4,3,43,4,,,,,,,,,,,,,,,,,,,AMNE20.jpg,AMSA17.jpg,AMNE06.jpg,AMSA10.jpg,AMSA17.jpg,MS,2,num_6,32,num_4,4.23318144144,,,2017_May_30_1614,60.0043688543,FEMA4ImagesEEG,001,200204,
AFNE01.JPG,AFNE01.JPG,AFNE01.JPG,AFNE01.JPG,AFNE01.JPG,AFNE01.JPG,,,,,4,4,44,3,,,,,,,,,,,,,,,,,,,AMSA10.jpg,AMSA11.jpg,AMNE06.jpg,AMNE11.jpg,AMSA11.jpg,MS,2,num_6,32,num_8,0.400137469172,,,2017_May_30_1614,60.0043688543,FEMA4ImagesEEG,001,200204,
AFNE01.JPG,AFNE01.JPG,AFNE01.JPG,AFNE01.JPG,AFNE01.JPG,AFNE01.JPG,,,,,4,5,45,2,,,,,,,,,,,,,,,,,,,AMNE19.jpg,AMSA03.jpg,AMNE07.jpg,AMSA05.jpg,AMSA03.jpg,MS,2,num_6,16,num_6,1.81697426178,,,2017_May_30_1614,60.0043688543,FEMA4ImagesEEG,001,200204,
AFNE01.JPG,AFNE01.JPG,AFNE01.JPG,AFNE01.JPG,AFNE01.JPG,AFNE01.JPG,,,,,4,6,46,9,,,,,,,,,,,,,,,,,,,AMSA11.jpg,AMSA13.jpg,AMNE08.jpg,AMNE16.jpg,AMNE16.jpg,MN,1,num_4,32,num_6,0.266784399748,,,2017_May_30_1614,60.0043688543,FEMA4ImagesEEG,001,200204,
AFNE01.JPG,AFNE01.JPG,AFNE01.JPG,AFNE01.JPG,AFNE01.JPG,AFNE01.JPG,,,,,4,7,47,8,,,,,,,,,,,,,,,,,,,AMSA02.jpg,AMSA20.jpg,AMNE15.jpg,AMNE01.jpg,AMSA02.jpg,MS,2,num_8,32,num_4,0.233511803672,,,2017_May_30_1614,60.0043688543,FEMA4ImagesEEG,001,200204,
AFNE01.JPG,AFNE01.JPG,AFNE01.JPG,AFNE01.JPG,AFNE01.JPG,AFNE01.JPG,,,,,4,8,48,6,,,,,,,,,,,,,,,,,,,AMNE07.jpg,AMSA14.jpg,AMSA07.jpg,AMNE02.jpg,AMNE07.jpg,MN,1,num_8,32,num_6,0.516778064892,,,2017_May_30_1614,60.0043688543,FEMA4ImagesEEG,001,200204,
AFNE01.JPG,AFNE01.JPG,AFNE01.JPG,AFNE01.JPG,AFNE01.JPG,AFNE01.JPG,,,,,4,9,49,1,,,,,,,,,,,,,,,,,,,AMSA18.jpg,AMNE12.jpg,AMSA01.jpg,AMNE02.jpg,AMNE12.jpg,MN,1,num_6,16,num_6,0.450143066002,,,2017_May_30_1614,60.0043688543,FEMA4ImagesEEG,001,200204,
AFNE01.JPG,AFNE01.JPG,AFNE01.JPG,AFNE01.JPG,AFNE01.JPG,AFNE01.JPG,,,,,5,0,50,0,,,,,,,,,,,,,,,,,,,AMSA05.jpg,AMNE18.jpg,AMNE12.jpg,AMSA14.jpg,AMNE18.jpg,MN,1,num_6,32,num_2,0.716769020073,,,2017_May_30_1614,60.0043688543,FEMA4ImagesEEG,001,200204,
AFNE01.JPG,AFNE01.JPG,AFNE01.JPG,AFNE01.JPG,AFNE01.JPG,AFNE01.JPG,,,,,5,1,51,8,,,,,,,,,,,,,,,,,,,AMSA11.jpg,AMNE18.jpg,AMNE14.jpg,AMSA01.jpg,AMNE14.jpg,MN,1,num_2,32,num_4,0.983436349779,,,2017_May_30_1614,60.0043688543,FEMA4ImagesEEG,001,200204,
AFNE01.JPG,AFNE01.JPG,AFNE01.JPG,AFNE01.JPG,AFNE01.JPG,AFNE01.JPG,,,,,5,2,52,6,,,,,,,,,,,,,,,,,,,AMSA02.jpg,AMSA14.jpg,AMNE19.jpg,AMNE05.jpg,AMSA14.jpg,MS,2,num_6,32,num_8,0.916733674472,,,2017_May_30_1614,60.0043688543,FEMA4ImagesEEG,001,200204,
AFNE01.JPG,AFNE01.JPG,AFNE01.JPG,AFNE01.JPG,AFNE01.JPG,AFNE01.JPG,,,,,5,3,53,2,,,,,,,,,,,,,,,,,,,AMNE19.jpg,AMSA15.jpg,AMSA02.jpg,AMNE13.jpg,AMSA02.jpg,MS,2,num_2,32,num_6,0.700112996623,,,2017_May_30_1614,60.0043688543,FEMA4ImagesEEG,001,200204,
AFNE01.JPG,AFNE01.JPG,AFNE01.JPG,AFNE01.JPG,AFNE01.JPG,AFNE01.JPG,,,,,5,4,54,3,,,,,,,,,,,,,,,,,,,AMNE06.jpg,AMSA15.jpg,AMNE16.jpg,AMSA11.jpg,AMNE16.jpg,MN,1,num_2,16,num_2,0.533469369868,,,2017_May_30_1614,60.0043688543,FEMA4ImagesEEG,001,200204,
AFNE01.JPG,AFNE01.JPG,AFNE01.JPG,AFNE01.JPG,AFNE01.JPG,AFNE01.JPG,,,,,5,5,55,5,,,,,,,,,,,,,,,,,,,AMNE10.jpg,AMSA14.jpg,AMSA19.jpg,AMNE02.jpg,AMSA14.jpg,MS,2,num_6,32,num_8,0.700150523335,,,2017_May_30_1614,60.0043688543,FEMA4ImagesEEG,001,200204,
AFNE01.JPG,AFNE01.JPG,AFNE01.JPG,AFNE01.JPG,AFNE01.JPG,AFNE01.JPG,,,,,5,6,56,1,,,,,,,,,,,,,,,,,,,AMNE20.jpg,AMNE14.jpg,AMSA06.jpg,AMSA14.jpg,AMNE20.jpg,MN,1,num_8,32,num_4,1.61678156117,,,2017_May_30_1614,60.0043688543,FEMA4ImagesEEG,001,200204,
AFNE01.JPG,AFNE01.JPG,AFNE01.JPG,AFNE01.JPG,AFNE01.JPG,AFNE01.JPG,,,,,5,7,57,7,,,,,,,,,,,,,,,,,,,AMSA14.jpg,AMSA03.jpg,AMNE15.jpg,AMNE08.jpg,AMSA14.jpg,MS,2,num_8,16,num_8,0.483551334823,,,2017_May_30_1614,60.0043688543,FEMA4ImagesEEG,001,200204,
AFNE01.JPG,AFNE01.JPG,AFNE01.JPG,AFNE01.JPG,AFNE01.JPG,AFNE01.JPG,,,,,5,8,58,4,,,,,,,,,,,,,,,,,,,AMNE14.jpg,AMSA20.jpg,AMNE12.jpg,AMSA11.jpg,AMNE12.jpg,MN,1,num_2,16,num_2,0.616786372149,,,2017_May_30_1614,60.0043688543,FEMA4ImagesEEG,001,200204,
AFNE01.JPG,AFNE01.JPG,AFNE01.JPG,AFNE01.JPG,AFNE01.JPG,AFNE01.JPG,,,,,5,9,59,9,,,,,,,,,,,,,,,,,,,AMSA16.jpg,AMNE15.jpg,AMSA09.jpg,AMNE11.jpg,AMNE15.jpg,MN,1,num_6,32,num_4,1.38328771875,,,2017_May_30_1614,60.0043688543,FEMA4ImagesEEG,001,200204,
,,,,,,,,,,,,,,,,,,,,,,,,,,,,,,,,,,,,,,,,,,,space,2.83331307303,2017_May_30_1614,60.0043688543,FEMA4ImagesEEG,001,200204,
AFNE01.JPG,AFNE01.JPG,AFNE01.JPG,AFNE01.JPG,AFNE01.JPG,AFNE01.JPG,,,,,,,,,0,0,0,2,,,,,,,,,,,,,,,AFNE03.jpg,AFNE05.jpg,AFSA19.jpg,AFSA14.jpg,AFNE05.jpg,FN,3,num_6,32,num_4,0.550479490077,,,2017_May_30_1614,60.0043688543,FEMA4ImagesEEG,001,200204,
AFNE01.JPG,AFNE01.JPG,AFNE01.JPG,AFNE01.JPG,AFNE01.JPG,AFNE01.JPG,,,,,,,,,0,1,1,3,,,,,,,,,,,,,,,AFSA12.jpg,AFNE09.jpg,AFSA10.jpg,AFNE03.jpg,AFNE03.jpg,FN,3,num_4,16,num_4,0.516756896162,,,2017_May_30_1614,60.0043688543,FEMA4ImagesEEG,001,200204,
AFNE01.JPG,AFNE01.JPG,AFNE01.JPG,AFNE01.JPG,AFNE01.JPG,AFNE01.JPG,,,,,,,,,0,2,2,1,,,,,,,,,,,,,,,AFNE20.jpg,AFSA07.jpg,AFNE05.jpg,AFSA01.jpg,AFSA07.jpg,FS,4,num_6,16,num_6,0.400141317863,,,2017_May_30_1614,60.0043688543,FEMA4ImagesEEG,001,200204,
AFNE01.JPG,AFNE01.JPG,AFNE01.JPG,AFNE01.JPG,AFNE01.JPG,AFNE01.JPG,,,,,,,,,0,3,3,4,,,,,,,,,,,,,,,AFNE06.jpg,AFSA13.jpg,AFSA17.jpg,AFNE08.jpg,AFSA13.jpg,FS,4,num_6,32,num_2,0.783339229645,,,2017_May_30_1614,60.0043688543,FEMA4ImagesEEG,001,200204,
AFNE01.JPG,AFNE01.JPG,AFNE01.JPG,AFNE01.JPG,AFNE01.JPG,AFNE01.JPG,,,,,,,,,0,4,4,6,,,,,,,,,,,,,,,AFNE06.jpg,AFNE12.jpg,AFSA05.jpg,AFSA20.jpg,AFNE06.jpg,FN,3,num_8,32,num_2,0.63352899556,,,2017_May_30_1614,60.0043688543,FEMA4ImagesEEG,001,200204,
AFNE01.JPG,AFNE01.JPG,AFNE01.JPG,AFNE01.JPG,AFNE01.JPG,AFNE01.JPG,,,,,,,,,0,5,5,7,,,,,,,,,,,,,,,AFSA10.jpg,AFNE14.jpg,AFSA20.jpg,AFNE09.jpg,AFSA20.jpg,FS,4,num_2,32,num_6,0.466870935168,,,2017_May_30_1614,60.0043688543,FEMA4ImagesEEG,001,200204,
AFNE01.JPG,AFNE01.JPG,AFNE01.JPG,AFNE01.JPG,AFNE01.JPG,AFNE01.JPG,,,,,,,,,0,6,6,0,,,,,,,,,,,,,,,AFSA19.jpg,AFSA01.jpg,AFNE20.jpg,AFNE06.jpg,AFNE20.jpg,FN,3,num_2,32,num_4,0.533545705955,,,2017_May_30_1614,60.0043688543,FEMA4ImagesEEG,001,200204,
AFNE01.JPG,AFNE01.JPG,AFNE01.JPG,AFNE01.JPG,AFNE01.JPG,AFNE01.JPG,,,,,,,,,0,7,7,5,,,,,,,,,,,,,,,AFSA06.jpg,AFNE13.jpg,AFSA02.jpg,AFNE08.jpg,AFNE13.jpg,FN,3,num_6,32,num_8,0.350104930112,,,2017_May_30_1614,60.0043688543,FEMA4ImagesEEG,001,200204,
AFNE01.JPG,AFNE01.JPG,AFNE01.JPG,AFNE01.JPG,AFNE01.JPG,AFNE01.JPG,,,,,,,,,0,8,8,8,,,,,,,,,,,,,,,AFSA02.jpg,AFNE07.jpg,AFNE15.jpg,AFSA18.jpg,AFNE07.jpg,FN,3,num_6,32,num_8,0.533474501688,,,2017_May_30_1614,60.0043688543,FEMA4ImagesEEG,001,200204,
AFNE01.JPG,AFNE01.JPG,AFNE01.JPG,AFNE01.JPG,AFNE01.JPG,AFNE01.JPG,,,,,,,,,0,9,9,9,,,,,,,,,,,,,,,AFSA03.jpg,AFNE12.jpg,AFNE15.jpg,AFSA08.jpg,AFSA03.jpg,FS,4,num_8,32,num_4,0.4835048276,,,2017_May_30_1614,60.0043688543,FEMA4ImagesEEG,001,200204,
AFNE01.JPG,AFNE01.JPG,AFNE01.JPG,AFNE01.JPG,AFNE01.JPG,AFNE01.JPG,,,,,,,,,1,0,10,5,,,,,,,,,,,,,,,AFSA02.jpg,AFSA06.jpg,AFNE03.jpg,AFNE14.jpg,AFSA02.jpg,FS,4,num_8,32,num_2,0.350265941583,,,2017_May_30_1614,60.0043688543,FEMA4ImagesEEG,001,200204,
AFNE01.JPG,AFNE01.JPG,AFNE01.JPG,AFNE01.JPG,AFNE01.JPG,AFNE01.JPG,,,,,,,,,1,1,11,7,,,,,,,,,,,,,,,AFSA20.jpg,AFNE01.jpg,AFSA07.jpg,AFNE07.jpg,AFNE07.jpg,FN,3,num_4,16,num_4,0.716805263655,,,2017_May_30_1614,60.0043688543,FEMA4ImagesEEG,001,200204,
AFNE01.JPG,AFNE01.JPG,AFNE01.JPG,AFNE01.JPG,AFNE01.JPG,AFNE01.JPG,,,,,,,,,1,2,12,2,,,,,,,,,,,,,,,AFNE15.jpg,AFSA09.jpg,AFSA18.jpg,AFNE10.jpg,AFSA18.jpg,FS,4,num_2,32,num_8,1.8667845279,,,2017_May_30_1614,60.0043688543,FEMA4ImagesEEG,001,200204,
AFNE01.JPG,AFNE01.JPG,AFNE01.JPG,AFNE01.JPG,AFNE01.JPG,AFNE01.JPG,,,,,,,,,1,3,13,8,,,,,,,,,,,,,,,AFNE05.jpg,AFSA16.jpg,AFNE06.jpg,AFSA17.jpg,AFNE05.jpg,FN,3,num_8,32,num_4,0.416756607359,,,2017_May_30_1614,60.0043688543,FEMA4ImagesEEG,001,200204,
AFNE01.JPG,AFNE01.JPG,AFNE01.JPG,AFNE01.JPG,AFNE01.JPG,AFNE01.JPG,,,,,,,,,1,4,14,4,,,,,,,,,,,,,,,AFSA05.jpg,AFNE11.jpg,AFSA18.jpg,AFNE01.jpg,AFSA05.jpg,FS,4,num_8,16,num_8,0.400193598587,,,2017_May_30_1614,60.0043688543,FEMA4ImagesEEG,001,200204,
AFNE01.JPG,AFNE01.JPG,AFNE01.JPG,AFNE01.JPG,AFNE01.JPG,AFNE01.JPG,,,,,,,,,1,5,15,3,,,,,,,,,,,,,,,AFNE15.jpg,AFSA04.jpg,AFNE11.jpg,AFSA17.jpg,AFNE11.jpg,FN,3,num_2,32,num_6,0.616804654477,,,2017_May_30_1614,60.0043688543,FEMA4ImagesEEG,001,200204,
AFNE01.JPG,AFNE01.JPG,AFNE01.JPG,AFNE01.JPG,AFNE01.JPG,AFNE01.JPG,,,,,,,,,1,6,16,1,,,,,,,,,,,,,,,AFNE18.jpg,AFSA03.jpg,AFNE15.jpg,AFSA12.jpg,AFSA12.jpg,FS,4,num_4,16,num_4,0.433498268481,,,2017_May_30_1614,60.0043688543,FEMA4ImagesEEG,001,200204,
AFNE01.JPG,AFNE01.JPG,AFNE01.JPG,AFNE01.JPG,AFNE01.JPG,AFNE01.JPG,,,,,,,,,1,7,17,6,,,,,,,,,,,,,,,AFNE14.jpg,AFSA16.jpg,AFNE09.jpg,AFSA11.jpg,AFNE14.jpg,FN,3,num_8,16,num_8,0.500249695964,,,2017_May_30_1614,60.0043688543,FEMA4ImagesEEG,001,200204,
AFNE01.JPG,AFNE01.JPG,AFNE01.JPG,AFNE01.JPG,AFNE01.JPG,AFNE01.JPG,,,,,,,,,1,8,18,0,,,,,,,,,,,,,,,AFSA10.jpg,AFNE09.jpg,AFNE03.jpg,AFSA08.jpg,AFSA10.jpg,FS,4,num_8,16,num_8,0.533509141533,,,2017_May_30_1614,60.0043688543,FEMA4ImagesEEG,001,200204,
AFNE01.JPG,AFNE01.JPG,AFNE01.JPG,AFNE01.JPG,AFNE01.JPG,AFNE01.JPG,,,,,,,,,1,9,19,9,,,,,,,,,,,,,,,AFSA11.jpg,AFSA10.jpg,AFNE11.jpg,AFNE01.jpg,AFNE01.jpg,FN,3,num_4,32,num_8,0.23351244512,,,2017_May_30_1614,60.0043688543,FEMA4ImagesEEG,001,200204,
AFNE01.JPG,AFNE01.JPG,AFNE01.JPG,AFNE01.JPG,AFNE01.JPG,AFNE01.JPG,,,,,,,,,2,0,20,5,,,,,,,,,,,,,,,AFSA14.jpg,AFSA07.jpg,AFNE03.jpg,AFNE11.jpg,AFSA14.jpg,FS,4,num_8,32,num_2,0.583470155718,,,2017_May_30_1614,60.0043688543,FEMA4ImagesEEG,001,200204,
AFNE01.JPG,AFNE01.JPG,AFNE01.JPG,AFNE01.JPG,AFNE01.JPG,AFNE01.JPG,,,,,,,,,2,1,21,4,,,,,,,,,,,,,,,AFSA18.jpg,AFNE03.jpg,AFNE08.jpg,AFSA03.jpg,AFSA03.jpg,FS,4,num_4,32,num_8,0.60010789684,,,2017_May_30_1614,60.0043688543,FEMA4ImagesEEG,001,200204,
AFNE01.JPG,AFNE01.JPG,AFNE01.JPG,AFNE01.JPG,AFNE01.JPG,AFNE01.JPG,,,,,,,,,2,2,22,7,,,,,,,,,,,,,,,AFNE08.jpg,AFSA11.jpg,AFNE05.jpg,AFSA04.jpg,AFSA11.jpg,FS,4,num_6,32,num_2,0.683444785187,,,2017_May_30_1614,60.0043688543,FEMA4ImagesEEG,001,200204,
AFNE01.JPG,AFNE01.JPG,AFNE01.JPG,AFNE01.JPG,AFNE01.JPG,AFNE01.JPG,,,,,,,,,2,3,23,6,,,,,,,,,,,,,,,AFSA10.jpg,AFSA04.jpg,AFNE09.jpg,AFNE12.jpg,AFNE09.jpg,FN,3,num_2,32,num_6,0.56634039944,,,2017_May_30_1614,60.0043688543,FEMA4ImagesEEG,001,200204,
AFNE01.JPG,AFNE01.JPG,AFNE01.JPG,AFNE01.JPG,AFNE01.JPG,AFNE01.JPG,,,,,,,,,2,4,24,8,,,,,,,,,,,,,,,AFSA14.jpg,AFNE09.jpg,AFSA17.jpg,AFNE19.jpg,AFNE09.jpg,FN,3,num_6,32,num_2,0.666755404789,,,2017_May_30_1614,60.0043688543,FEMA4ImagesEEG,001,200204,
AFNE01.JPG,AFNE01.JPG,AFNE01.JPG,AFNE01.JPG,AFNE01.JPG,AFNE01.JPG,,,,,,,,,2,5,25,3,,,,,,,,,,,,,,,AFSA20.jpg,AFNE06.jpg,AFSA08.jpg,AFNE18.jpg,AFSA20.jpg,FS,4,num_8,16,num_8,0.483470187755,,,2017_May_30_1614,60.0043688543,FEMA4ImagesEEG,001,200204,
AFNE01.JPG,AFNE01.JPG,AFNE01.JPG,AFNE01.JPG,AFNE01.JPG,AFNE01.JPG,,,,,,,,,2,6,26,1,,,,,,,,,,,,,,,AFNE02.jpg,AFNE06.jpg,AFSA01.jpg,AFSA11.jpg,AFSA11.jpg,FS,4,num_4,16,num_4,0.466766694793,,,2017_May_30_1614,60.0043688543,FEMA4ImagesEEG,001,200204,
AFNE01.JPG,AFNE01.JPG,AFNE01.JPG,AFNE01.JPG,AFNE01.JPG,AFNE01.JPG,,,,,,,,,2,7,27,9,,,,,,,,,,,,,,,AFNE01.jpg,AFNE07.jpg,AFSA13.jpg,AFSA19.jpg,AFSA19.jpg,FS,4,num_4,32,num_2,1.05008610245,,,2017_May_30_1614,60.0043688543,FEMA4ImagesEEG,001,200204,
AFNE01.JPG,AFNE01.JPG,AFNE01.JPG,AFNE01.JPG,AFNE01.JPG,AFNE01.JPG,,,,,,,,,2,8,28,2,,,,,,,,,,,,,,,AFSA08.jpg,AFSA20.jpg,AFNE18.jpg,AFNE14.jpg,AFSA20.jpg,FS,4,num_6,32,num_4,1.06672384404,,,2017_May_30_1614,60.0043688543,FEMA4ImagesEEG,001,200204,
AFNE01.JPG,AFNE01.JPG,AFNE01.JPG,AFNE01.JPG,AFNE01.JPG,AFNE01.JPG,,,,,,,,,2,9,29,0,,,,,,,,,,,,,,,AFSA19.jpg,AFSA17.jpg,AFNE11.jpg,AFNE15.jpg,AFSA19.jpg,FS,4,num_8,16,num_8,0.233540670248,,,2017_May_30_1614,60.0043688543,FEMA4ImagesEEG,001,200204,
AFNE01.JPG,AFNE01.JPG,AFNE01.JPG,AFNE01.JPG,AFNE01.JPG,AFNE01.JPG,,,,,,,,,3,0,30,5,,,,,,,,,,,,,,,AFNE11.jpg,AFSA10.jpg,AFNE16.jpg,AFSA03.jpg,AFSA03.jpg,FS,4,num_4,32,num_6,0.750019484898,,,2017_May_30_1614,60.0043688543,FEMA4ImagesEEG,001,200204,
AFNE01.JPG,AFNE01.JPG,AFNE01.JPG,AFNE01.JPG,AFNE01.JPG,AFNE01.JPG,,,,,,,,,3,1,31,0,,,,,,,,,,,,,,,AFNE17.jpg,AFSA14.jpg,AFNE11.jpg,AFSA10.jpg,AFNE17.jpg,FN,3,num_8,32,num_2,0.366769934073,,,2017_May_30_1614,60.0043688543,FEMA4ImagesEEG,001,200204,
AFNE01.JPG,AFNE01.JPG,AFNE01.JPG,AFNE01.JPG,AFNE01.JPG,AFNE01.JPG,,,,,,,,,3,2,32,8,,,,,,,,,,,,,,,AFSA07.jpg,AFSA18.jpg,AFNE03.jpg,AFNE14.jpg,AFSA18.jpg,FS,4,num_6,32,num_4,0.533506255131,,,2017_May_30_1614,60.0043688543,FEMA4ImagesEEG,001,200204,
AFNE01.JPG,AFNE01.JPG,AFNE01.JPG,AFNE01.JPG,AFNE01.JPG,AFNE01.JPG,,,,,,,,,3,3,33,6,,,,,,,,,,,,,,,AFSA03.jpg,AFNE19.jpg,AFNE15.jpg,AFSA14.jpg,AFNE19.jpg,FN,3,num_6,16,num_6,0.433516229969,,,2017_May_30_1614,60.0043688543,FEMA4ImagesEEG,001,200204,
AFNE01.JPG,AFNE01.JPG,AFNE01.JPG,AFNE01.JPG,AFNE01.JPG,AFNE01.JPG,,,,,,,,,3,4,34,4,,,,,,,,,,,,,,,AFSA19.jpg,AFSA02.jpg,AFNE02.jpg,AFNE05.jpg,AFNE05.jpg,FN,3,num_4,16,num_4,0.500176246511,,,2017_May_30_1614,60.0043688543,FEMA4ImagesEEG,001,200204,
AFNE01.JPG,AFNE01.JPG,AFNE01.JPG,AFNE01.JPG,AFNE01.JPG,AFNE01.JPG,,,,,,,,,3,5,35,2,,,,,,,,,,,,,,,AFSA12.jpg,AFNE14.jpg,AFSA20.jpg,AFNE07.jpg,AFNE07.jpg,FN,3,num_4,32,num_6,2.75003231457,,,2017_May_30_1614,60.0043688543,FEMA4ImagesEEG,001,200204,
AFNE01.JPG,AFNE01.JPG,AFNE01.JPG,AFNE01.JPG,AFNE01.JPG,AFNE01.JPG,,,,,,,,,3,6,36,1,,,,,,,,,,,,,,,AFNE08.jpg,AFNE05.jpg,AFSA17.jpg,AFSA11.jpg,AFNE05.jpg,FN,3,num_6,32,num_4,0.500187793048,,,2017_May_30_1614,60.0043688543,FEMA4ImagesEEG,001,200204,
AFNE01.JPG,AFNE01.JPG,AFNE01.JPG,AFNE01.JPG,AFNE01.JPG,AFNE01.JPG,,,,,,,,,3,7,37,7,,,,,,,,,,,,,,,AFSA15.jpg,AFNE20.jpg,AFSA02.jpg,AFNE10.jpg,AFNE20.jpg,FN,3,num_6,32,num_4,2.03353079152,,,2017_May_30_1614,60.0043688543,FEMA4ImagesEEG,001,200204,
AFNE01.JPG,AFNE01.JPG,AFNE01.JPG,AFNE01.JPG,AFNE01.JPG,AFNE01.JPG,,,,,,,,,3,8,38,9,,,,,,,,,,,,,,,AFSA20.jpg,AFNE10.jpg,AFSA02.jpg,AFNE15.jpg,AFNE15.jpg,FN,3,num_4,32,num_2,0.483322968008,,,2017_May_30_1614,60.0043688543,FEMA4ImagesEEG,001,200204,
AFNE01.JPG,AFNE01.JPG,AFNE01.JPG,AFNE01.JPG,AFNE01.JPG,AFNE01.JPG,,,,,,,,,3,9,39,3,,,,,,,,,,,,,,,AFNE19.jpg,AFNE07.jpg,AFSA20.jpg,AFSA15.jpg,AFSA15.jpg,FS,4,num_4,32,num_8,0.516792818904,,,2017_May_30_1614,60.0043688543,FEMA4ImagesEEG,001,200204,
AFNE01.JPG,AFNE01.JPG,AFNE01.JPG,AFNE01.JPG,AFNE01.JPG,AFNE01.JPG,,,,,,,,,4,0,40,8,,,,,,,,,,,,,,,AFSA05.jpg,AFNE18.jpg,AFNE09.jpg,AFSA04.jpg,AFSA04.jpg,FS,4,num_4,16,num_4,0.583487475757,,,2017_May_30_1614,60.0043688543,FEMA4ImagesEEG,001,200204,
AFNE01.JPG,AFNE01.JPG,AFNE01.JPG,AFNE01.JPG,AFNE01.JPG,AFNE01.JPG,,,,,,,,,4,1,41,1,,,,,,,,,,,,,,,AFNE04.jpg,AFSA17.jpg,AFSA01.jpg,AFNE20.jpg,AFNE20.jpg,FN,3,num_4,32,num_2,0.616781560937,,,2017_May_30_1614,60.0043688543,FEMA4ImagesEEG,001,200204,
AFNE01.JPG,AFNE01.JPG,AFNE01.JPG,AFNE01.JPG,AFNE01.JPG,AFNE01.JPG,,,,,,,,,4,2,42,9,,,,,,,,,,,,,,,AFNE14.jpg,AFNE11.jpg,AFSA17.jpg,AFSA07.jpg,AFNE14.jpg,FN,3,num_8,16,num_8,0.566859356593,,,2017_May_30_1614,60.0043688543,FEMA4ImagesEEG,001,200204,
AFNE01.JPG,AFNE01.JPG,AFNE01.JPG,AFNE01.JPG,AFNE01.JPG,AFNE01.JPG,,,,,,,,,4,3,43,0,,,,,,,,,,,,,,,AFSA08.jpg,AFNE07.jpg,AFSA18.jpg,AFNE06.jpg,AFSA08.jpg,FS,4,num_8,32,num_2,0.500121399993,,,2017_May_30_1614,60.0043688543,FEMA4ImagesEEG,001,200204,
AFNE01.JPG,AFNE01.JPG,AFNE01.JPG,AFNE01.JPG,AFNE01.JPG,AFNE01.JPG,,,,,,,,,4,4,44,5,,,,,,,,,,,,,,,AFSA09.jpg,AFNE07.jpg,AFNE15.jpg,AFSA14.jpg,AFNE15.jpg,FN,3,num_2,16,num_2,0.633530599065,,,2017_May_30_1614,60.0043688543,FEMA4ImagesEEG,001,200204,
AFNE01.JPG,AFNE01.JPG,AFNE01.JPG,AFNE01.JPG,AFNE01.JPG,AFNE01.JPG,,,,,,,,,4,5,45,3,,,,,,,,,,,,,,,AFSA18.jpg,AFNE01.jpg,AFSA15.jpg,AFNE04.jpg,AFNE04.jpg,FN,3,num_4,32,num_8,0.499991821125,,,2017_May_30_1614,60.0043688543,FEMA4ImagesEEG,001,200204,
AFNE01.JPG,AFNE01.JPG,AFNE01.JPG,AFNE01.JPG,AFNE01.JPG,AFNE01.JPG,,,,,,,,,4,6,46,4,,,,,,,,,,,,,,,AFNE06.jpg,AFNE19.jpg,AFSA18.jpg,AFSA09.jpg,AFSA09.jpg,FS,4,num_4,16,num_4,0.400161845377,,,2017_May_30_1614,60.0043688543,FEMA4ImagesEEG,001,200204,
AFNE01.JPG,AFNE01.JPG,AFNE01.JPG,AFNE01.JPG,AFNE01.JPG,AFNE01.JPG,,,,,,,,,4,7,47,6,,,,,,,,,,,,,,,AFNE05.jpg,AFNE13.jpg,AFSA03.jpg,AFSA17.jpg,AFNE05.jpg,FN,3,num_8,32,num_6,0.35013700393,,,2017_May_30_1614,60.0043688543,FEMA4ImagesEEG,001,200204,
AFNE01.JPG,AFNE01.JPG,AFNE01.JPG,AFNE01.JPG,AFNE01.JPG,AFNE01.JPG,,,,,,,,,4,8,48,7,,,,,,,,,,,,,,,AFNE11.jpg,AFNE14.jpg,AFSA19.jpg,AFSA02.jpg,AFSA19.jpg,FS,4,num_2,32,num_8,0.416813378455,,,2017_May_30_1614,60.0043688543,FEMA4ImagesEEG,001,200204,
AFNE01.JPG,AFNE01.JPG,AFNE01.JPG,AFNE01.JPG,AFNE01.JPG,AFNE01.JPG,,,,,,,,,4,9,49,2,,,,,,,,,,,,,,,AFSA04.jpg,AFSA10.jpg,AFNE14.jpg,AFNE07.jpg,AFNE07.jpg,FN,3,num_4,32,num_6,0.749874831177,,,2017_May_30_1614,60.0043688543,FEMA4ImagesEEG,001,200204,
AFNE01.JPG,AFNE01.JPG,AFNE01.JPG,AFNE01.JPG,AFNE01.JPG,AFNE01.JPG,,,,,,,,,5,0,50,9,,,,,,,,,,,,,,,AFSA12.jpg,AFNE15.jpg,AFNE20.jpg,AFSA13.jpg,AFSA13.jpg,FS,4,num_4,32,num_2,0.666790044634,,,2017_May_30_1614,60.0043688543,FEMA4ImagesEEG,001,200204,
AFNE01.JPG,AFNE01.JPG,AFNE01.JPG,AFNE01.JPG,AFNE01.JPG,AFNE01.JPG,,,,,,,,,5,1,51,5,,,,,,,,,,,,,,,AFNE17.jpg,AFSA19.jpg,AFSA03.jpg,AFNE10.jpg,AFSA03.jpg,FS,4,num_2,32,num_4,0.350125136785,,,2017_May_30_1614,60.0043688543,FEMA4ImagesEEG,001,200204,
AFNE01.JPG,AFNE01.JPG,AFNE01.JPG,AFNE01.JPG,AFNE01.JPG,AFNE01.JPG,,,,,,,,,5,2,52,4,,,,,,,,,,,,,,,AFNE09.jpg,AFNE11.jpg,AFSA08.jpg,AFSA07.jpg,AFNE09.jpg,FN,3,num_8,16,num_8,0.266832189867,,,2017_May_30_1614,60.0043688543,FEMA4ImagesEEG,001,200204,
AFNE01.JPG,AFNE01.JPG,AFNE01.JPG,AFNE01.JPG,AFNE01.JPG,AFNE01.JPG,,,,,,,,,5,3,53,3,,,,,,,,,,,,,,,AFSA10.jpg,AFSA16.jpg,AFNE01.jpg,AFNE08.jpg,AFNE01.jpg,FN,3,num_2,32,num_6,0.500113702379,,,2017_May_30_1614,60.0043688543,FEMA4ImagesEEG,001,200204,
AFNE01.JPG,AFNE01.JPG,AFNE01.JPG,AFNE01.JPG,AFNE01.JPG,AFNE01.JPG,,,,,,,,,5,4,54,2,,,,,,,,,,,,,,,AFSA05.jpg,AFNE16.jpg,AFNE20.jpg,AFSA11.jpg,AFSA05.jpg,FS,4,num_8,32,num_4,0.51680147904,,,2017_May_30_1614,60.0043688543,FEMA4ImagesEEG,001,200204,
AFNE01.JPG,AFNE01.JPG,AFNE01.JPG,AFNE01.JPG,AFNE01.JPG,AFNE01.JPG,,,,,,,,,5,5,55,8,,,,,,,,,,,,,,,AFNE09.jpg,AFSA18.jpg,AFSA09.jpg,AFNE06.jpg,AFSA09.jpg,FS,4,num_2,16,num_2,0.283516117604,,,2017_May_30_1614,60.0043688543,FEMA4ImagesEEG,001,200204,
AFNE01.JPG,AFNE01.JPG,AFNE01.JPG,AFNE01.JPG,AFNE01.JPG,AFNE01.JPG,,,,,,,,,5,6,56,6,,,,,,,,,,,,,,,AFNE07.jpg,AFNE18.jpg,AFSA10.jpg,AFSA02.jpg,AFSA10.jpg,FS,4,num_2,16,num_2,0.533480274957,,,2017_May_30_1614,60.0043688543,FEMA4ImagesEEG,001,200204,
AFNE01.JPG,AFNE01.JPG,AFNE01.JPG,AFNE01.JPG,AFNE01.JPG,AFNE01.JPG,,,,,,,,,5,7,57,7,,,,,,,,,,,,,,,AFNE02.jpg,AFSA14.jpg,AFNE10.jpg,AFSA19.jpg,AFSA19.jpg,FS,4,num_4,16,num_4,0.900135705015,,,2017_May_30_1614,60.0043688543,FEMA4ImagesEEG,001,200204,
AFNE01.JPG,AFNE01.JPG,AFNE01.JPG,AFNE01.JPG,AFNE01.JPG,AFNE01.JPG,,,,,,,,,5,8,58,0,,,,,,,,,,,,,,,AFSA20.jpg,AFNE19.jpg,AFNE08.jpg,AFSA19.jpg,AFNE19.jpg,FN,3,num_6,16,num_6,0.416789002251,,,2017_May_30_1614,60.0043688543,FEMA4ImagesEEG,001,200204,
AFNE01.JPG,AFNE01.JPG,AFNE01.JPG,AFNE01.JPG,AFNE01.JPG,AFNE01.JPG,,,,,,,,,5,9,59,1,,,,,,,,,,,,,,,AFSA06.jpg,AFNE20.jpg,AFSA12.jpg,AFNE01.jpg,AFSA12.jpg,FS,4,num_2,32,num_8,0.416786436224,,,2017_May_30_1614,60.0043688543,FEMA4ImagesEEG,001,200204,
,,,,,,,,,,,,,,,,,,,,,,,,,,,,,,,,,,,,,,,,,,,space,3.56657582265,2017_May_30_1614,60.0043688543,FEMA4ImagesEEG,001,200204,
AFNE01.JPG,AFNE01.JPG,AFNE01.JPG,AFNE01.JPG,AFNE01.JPG,AFNE01.JPG,,,,,,,,,,,,,0,0,0,1,,,,,,,,,,,AMNE06.jpg,AMSA11.jpg,AMSA04.jpg,AMNE02.jpg,AMSA04.jpg,MS,2,num_2,32,num_6,0.483471791493,,,2017_May_30_1614,60.0043688543,FEMA4ImagesEEG,001,200204,
AFNE01.JPG,AFNE01.JPG,AFNE01.JPG,AFNE01.JPG,AFNE01.JPG,AFNE01.JPG,,,,,,,,,,,,,0,1,1,0,,,,,,,,,,,AMNE06.jpg,AMSA13.jpg,AMNE16.jpg,AMSA16.jpg,AMSA16.jpg,MS,2,num_4,32,num_6,0.516735085985,,,2017_May_30_1614,60.0043688543,FEMA4ImagesEEG,001,200204,
AFNE01.JPG,AFNE01.JPG,AFNE01.JPG,AFNE01.JPG,AFNE01.JPG,AFNE01.JPG,,,,,,,,,,,,,0,2,2,6,,,,,,,,,,,AMNE16.jpg,AMNE02.jpg,AMSA18.jpg,AMSA17.jpg,AMNE02.jpg,MN,1,num_6,16,num_6,0.683528498281,,,2017_May_30_1614,60.0043688543,FEMA4ImagesEEG,001,200204,
AFNE01.JPG,AFNE01.JPG,AFNE01.JPG,AFNE01.JPG,AFNE01.JPG,AFNE01.JPG,,,,,,,,,,,,,0,3,3,7,,,,,,,,,,,AMNE07.jpg,AMNE01.jpg,AMSA14.jpg,AMSA11.jpg,AMNE01.jpg,MN,1,num_6,32,num_4,0.583472721511,,,2017_May_30_1614,60.0043688543,FEMA4ImagesEEG,001,200204,
AFNE01.JPG,AFNE01.JPG,AFNE01.JPG,AFNE01.JPG,AFNE01.JPG,AFNE01.JPG,,,,,,,,,,,,,0,4,4,4,,,,,,,,,,,AMNE17.jpg,AMNE14.jpg,AMSA08.jpg,AMSA18.jpg,AMSA08.jpg,MS,2,num_2,16,num_2,0.76647119713,,,2017_May_30_1614,60.0043688543,FEMA4ImagesEEG,001,200204,
AFNE01.JPG,AFNE01.JPG,AFNE01.JPG,AFNE01.JPG,AFNE01.JPG,AFNE01.JPG,,,,,,,,,,,,,0,5,5,5,,,,,,,,,,,AMSA07.jpg,AMNE20.jpg,AMSA04.jpg,AMNE17.jpg,AMSA04.jpg,MS,2,num_2,16,num_2,0.533496632706,,,2017_May_30_1614,60.0043688543,FEMA4ImagesEEG,001,200204,
AFNE01.JPG,AFNE01.JPG,AFNE01.JPG,AFNE01.JPG,AFNE01.JPG,AFNE01.JPG,,,,,,,,,,,,,0,6,6,8,,,,,,,,,,,AMNE17.jpg,AMSA09.jpg,AMNE01.jpg,AMSA05.jpg,AMNE01.jpg,MN,1,num_2,32,num_4,0.616825502366,,,2017_May_30_1614,60.0043688543,FEMA4ImagesEEG,001,200204,
AFNE01.JPG,AFNE01.JPG,AFNE01.JPG,AFNE01.JPG,AFNE01.JPG,AFNE01.JPG,,,,,,,,,,,,,0,7,7,9,,,,,,,,,,,AMSA20.jpg,AMNE11.jpg,AMSA08.jpg,AMNE12.jpg,AMSA20.jpg,MS,2,num_8,32,num_6,0.600096670911,,,2017_May_30_1614,60.0043688543,FEMA4ImagesEEG,001,200204,
AFNE01.JPG,AFNE01.JPG,AFNE01.JPG,AFNE01.JPG,AFNE01.JPG,AFNE01.JPG,,,,,,,,,,,,,0,8,8,2,,,,,,,,,,,AMSA20.jpg,AMNE06.jpg,AMSA15.jpg,AMNE08.jpg,AMSA20.jpg,MS,2,num_8,16,num_8,0.516775499098,,,2017_May_30_1614,60.0043688543,FEMA4ImagesEEG,001,200204,
AFNE01.JPG,AFNE01.JPG,AFNE01.JPG,AFNE01.JPG,AFNE01.JPG,AFNE01.JPG,,,,,,,,,,,,,0,9,9,3,,,,,,,,,,,AMNE01.jpg,AMNE09.jpg,AMSA17.jpg,AMSA12.jpg,AMNE01.jpg,MN,1,num_8,16,num_8,0.533509462373,,,2017_May_30_1614,60.0043688543,FEMA4ImagesEEG,001,200204,
AFNE01.JPG,AFNE01.JPG,AFNE01.JPG,AFNE01.JPG,AFNE01.JPG,AFNE01.JPG,,,,,,,,,,,,,1,0,10,2,,,,,,,,,,,AMSA07.jpg,AMSA20.jpg,AMNE12.jpg,AMNE01.jpg,AMSA20.jpg,MS,2,num_6,32,num_8,0.533479954349,,,2017_May_30_1614,60.0043688543,FEMA4ImagesEEG,001,200204,
AFNE01.JPG,AFNE01.JPG,AFNE01.JPG,AFNE01.JPG,AFNE01.JPG,AFNE01.JPG,,,,,,,,,,,,,1,1,11,0,,,,,,,,,,,AMSA12.jpg,AMNE13.jpg,AMNE02.jpg,AMSA18.jpg,AMNE13.jpg,MN,1,num_6,16,num_6,0.516771329334,,,2017_May_30_1614,60.0043688543,FEMA4ImagesEEG,001,200204,
AFNE01.JPG,AFNE01.JPG,AFNE01.JPG,AFNE01.JPG,AFNE01.JPG,AFNE01.JPG,,,,,,,,,,,,,1,2,12,5,,,,,,,,,,,AMSA10.jpg,AMNE15.jpg,AMNE05.jpg,AMSA03.jpg,AMNE15.jpg,MN,1,num_6,16,num_6,0.650124719832,,,2017_May_30_1614,60.0043688543,FEMA4ImagesEEG,001,200204,
AFNE01.JPG,AFNE01.JPG,AFNE01.JPG,AFNE01.JPG,AFNE01.JPG,AFNE01.JPG,,,,,,,,,,,,,1,3,13,9,,,,,,,,,,,AMNE02.jpg,AMNE06.jpg,AMSA16.jpg,AMSA19.jpg,AMSA16.jpg,MS,2,num_2,16,num_2,0.366783726029,,,2017_May_30_1614,60.0043688543,FEMA4ImagesEEG,001,200204,
AFNE01.JPG,AFNE01.JPG,AFNE01.JPG,AFNE01.JPG,AFNE01.JPG,AFNE01.JPG,,,,,,,,,,,,,1,4,14,3,,,,,,,,,,,AMNE05.jpg,AMNE19.jpg,AMSA20.jpg,AMSA17.jpg,AMNE19.jpg,MN,1,num_6,32,num_4,0.500189717626,,,2017_May_30_1614,60.0043688543,FEMA4ImagesEEG,001,200204,
AFNE01.JPG,AFNE01.JPG,AFNE01.JPG,AFNE01.JPG,AFNE01.JPG,AFNE01.JPG,,,,,,,,,,,,,1,5,15,7,,,,,,,,,,,AMNE16.jpg,AMSA09.jpg,AMNE02.jpg,AMSA05.jpg,AMNE16.jpg,MN,1,num_8,16,num_8,0.533512028167,,,2017_May_30_1614,60.0043688543,FEMA4ImagesEEG,001,200204,
AFNE01.JPG,AFNE01.JPG,AFNE01.JPG,AFNE01.JPG,AFNE01.JPG,AFNE01.JPG,,,,,,,,,,,,,1,6,16,1,,,,,,,,,,,AMNE01.jpg,AMNE20.jpg,AMSA20.jpg,AMSA14.jpg,AMSA14.jpg,MS,2,num_4,16,num_4,0.716774793575,,,2017_May_30_1614,60.0043688543,FEMA4ImagesEEG,001,200204,
AFNE01.JPG,AFNE01.JPG,AFNE01.JPG,AFNE01.JPG,AFNE01.JPG,AFNE01.JPG,,,,,,,,,,,,,1,7,17,8,,,,,,,,,,,AMNE03.jpg,AMNE14.jpg,AMSA17.jpg,AMSA05.jpg,AMNE03.jpg,MN,1,num_8,32,num_2,0.516682805261,,,2017_May_30_1614,60.0043688543,FEMA4ImagesEEG,001,200204,
AFNE01.JPG,AFNE01.JPG,AFNE01.JPG,AFNE01.JPG,AFNE01.JPG,AFNE01.JPG,,,,,,,,,,,,,1,8,18,4,,,,,,,,,,,AMSA15.jpg,AMNE05.jpg,AMSA02.jpg,AMNE02.jpg,AMNE05.jpg,MN,1,num_6,32,num_8,0.483483017422,,,2017_May_30_1614,60.0043688543,FEMA4ImagesEEG,001,200204,
AFNE01.JPG,AFNE01.JPG,AFNE01.JPG,AFNE01.JPG,AFNE01.JPG,AFNE01.JPG,,,,,,,,,,,,,1,9,19,6,,,,,,,,,,,AMSA04.jpg,AMNE06.jpg,AMSA17.jpg,AMNE15.jpg,AMSA17.jpg,MS,2,num_2,32,num_6,0.466866445029,,,2017_May_30_1614,60.0043688543,FEMA4ImagesEEG,001,200204,
AFNE01.JPG,AFNE01.JPG,AFNE01.JPG,AFNE01.JPG,AFNE01.JPG,AFNE01.JPG,,,,,,,,,,,,,2,0,20,4,,,,,,,,,,,AMNE15.jpg,AMSA09.jpg,AMSA13.jpg,AMNE03.jpg,AMNE15.jpg,MN,1,num_8,32,num_2,0.650162246311,,,2017_May_30_1614,60.0043688543,FEMA4ImagesEEG,001,200204,
AFNE01.JPG,AFNE01.JPG,AFNE01.JPG,AFNE01.JPG,AFNE01.JPG,AFNE01.JPG,,,,,,,,,,,,,2,1,21,7,,,,,,,,,,,AMNE06.jpg,AMSA14.jpg,AMSA02.jpg,AMNE11.jpg,AMSA02.jpg,MS,2,num_2,32,num_8,0.550148807233,,,2017_May_30_1614,60.0043688543,FEMA4ImagesEEG,001,200204,
AFNE01.JPG,AFNE01.JPG,AFNE01.JPG,AFNE01.JPG,AFNE01.JPG,AFNE01.JPG,,,,,,,,,,,,,2,2,22,6,,,,,,,,,,,AMNE06.jpg,AMSA18.jpg,AMSA08.jpg,AMNE09.jpg,AMSA18.jpg,MS,2,num_6,32,num_2,0.300146481954,,,2017_May_30_1614,60.0043688543,FEMA4ImagesEEG,001,200204,
AFNE01.JPG,AFNE01.JPG,AFNE01.JPG,AFNE01.JPG,AFNE01.JPG,AFNE01.JPG,,,,,,,,,,,,,2,3,23,2,,,,,,,,,,,AMNE18.jpg,AMNE07.jpg,AMSA17.jpg,AMSA05.jpg,AMNE18.jpg,MN,1,num_8,32,num_4,0.566744531505,,,2017_May_30_1614,60.0043688543,FEMA4ImagesEEG,001,200204,
AFNE01.JPG,AFNE01.JPG,AFNE01.JPG,AFNE01.JPG,AFNE01.JPG,AFNE01.JPG,,,,,,,,,,,,,2,4,24,8,,,,,,,,,,,AMNE13.jpg,AMSA16.jpg,AMNE02.jpg,AMSA18.jpg,AMNE13.jpg,MN,1,num_8,32,num_4,0.600163705647,,,2017_May_30_1614,60.0043688543,FEMA4ImagesEEG,001,200204,
AFNE01.JPG,AFNE01.JPG,AFNE01.JPG,AFNE01.JPG,AFNE01.JPG,AFNE01.JPG,,,,,,,,,,,,,2,5,25,5,,,,,,,,,,,AMSA08.jpg,AMSA18.jpg,AMNE19.jpg,AMNE04.jpg,AMSA18.jpg,MS,2,num_6,16,num_6,0.466827956261,,,2017_May_30_1614,60.0043688543,FEMA4ImagesEEG,001,200204,
AFNE01.JPG,AFNE01.JPG,AFNE01.JPG,AFNE01.JPG,AFNE01.JPG,AFNE01.JPG,,,,,,,,,,,,,2,6,26,9,,,,,,,,,,,AMSA19.jpg,AMNE07.jpg,AMNE11.jpg,AMSA08.jpg,AMSA19.jpg,MS,2,num_8,16,num_8,0.250233578729,,,2017_May_30_1614,60.0043688543,FEMA4ImagesEEG,001,200204,
AFNE01.JPG,AFNE01.JPG,AFNE01.JPG,AFNE01.JPG,AFNE01.JPG,AFNE01.JPG,,,,,,,,,,,,,2,7,27,0,,,,,,,,,,,AMNE20.jpg,AMSA11.jpg,AMNE13.jpg,AMSA02.jpg,AMNE13.jpg,MN,1,num_2,16,num_2,0.500181057723,,,2017_May_30_1614,60.0043688543,FEMA4ImagesEEG,001,200204,
AFNE01.JPG,AFNE01.JPG,AFNE01.JPG,AFNE01.JPG,AFNE01.JPG,AFNE01.JPG,,,,,,,,,,,,,2,8,28,3,,,,,,,,,,,AMSA07.jpg,AMSA10.jpg,AMNE07.jpg,AMNE11.jpg,AMNE11.jpg,MN,1,num_4,32,num_8,0.50019228342,,,2017_May_30_1614,60.0043688543,FEMA4ImagesEEG,001,200204,
AFNE01.JPG,AFNE01.JPG,AFNE01.JPG,AFNE01.JPG,AFNE01.JPG,AFNE01.JPG,,,,,,,,,,,,,2,9,29,1,,,,,,,,,,,AMSA13.jpg,AMNE01.jpg,AMNE09.jpg,AMSA12.jpg,AMNE09.jpg,MN,1,num_2,32,num_6,0.533509462373,,,2017_May_30_1614,60.0043688543,FEMA4ImagesEEG,001,200204,
AFNE01.JPG,AFNE01.JPG,AFNE01.JPG,AFNE01.JPG,AFNE01.JPG,AFNE01.JPG,,,,,,,,,,,,,3,0,30,3,,,,,,,,,,,AMNE02.jpg,AMSA07.jpg,AMNE10.jpg,AMSA03.jpg,AMSA03.jpg,MS,2,num_4,16,num_4,0.433515588287,,,2017_May_30_1614,60.0043688543,FEMA4ImagesEEG,001,200204,
AFNE01.JPG,AFNE01.JPG,AFNE01.JPG,AFNE01.JPG,AFNE01.JPG,AFNE01.JPG,,,,,,,,,,,,,3,1,31,6,,,,,,,,,,,AMSA04.jpg,AMNE17.jpg,AMSA11.jpg,AMNE04.jpg,AMNE04.jpg,MN,1,num_4,32,num_2,0.500127173495,,,2017_May_30_1614,60.0043688543,FEMA4ImagesEEG,001,200204,
AFNE01.JPG,AFNE01.JPG,AFNE01.JPG,AFNE01.JPG,AFNE01.JPG,AFNE01.JPG,,,,,,,,,,,,,3,2,32,8,,,,,,,,,,,AMNE12.jpg,AMSA07.jpg,AMNE07.jpg,AMSA04.jpg,AMSA07.jpg,MS,2,num_6,16,num_6,0.66679742164,,,2017_May_30_1614,60.0043688543,FEMA4ImagesEEG,001,200204,
AFNE01.JPG,AFNE01.JPG,AFNE01.JPG,AFNE01.JPG,AFNE01.JPG,AFNE01.JPG,,,,,,,,,,,,,3,3,33,7,,,,,,,,,,,AMSA03.jpg,AMSA08.jpg,AMNE05.jpg,AMNE04.jpg,AMSA08.jpg,MS,2,num_6,32,num_8,0.516786404187,,,2017_May_30_1614,60.0043688543,FEMA4ImagesEEG,001,200204,
AFNE01.JPG,AFNE01.JPG,AFNE01.JPG,AFNE01.JPG,AFNE01.JPG,AFNE01.JPG,,,,,,,,,,,,,3,4,34,9,,,,,,,,,,,AMSA15.jpg,AMSA16.jpg,AMNE10.jpg,AMNE04.jpg,AMNE10.jpg,MN,1,num_2,16,num_2,0.71675041737,,,2017_May_30_1614,60.0043688543,FEMA4ImagesEEG,001,200204,
AFNE01.JPG,AFNE01.JPG,AFNE01.JPG,AFNE01.JPG,AFNE01.JPG,AFNE01.JPG,,,,,,,,,,,,,3,5,35,5,,,,,,,,,,,AMNE01.jpg,AMSA08.jpg,AMSA17.jpg,AMNE17.jpg,AMSA17.jpg,MS,2,num_2,16,num_2,0.533480916405,,,2017_May_30_1614,60.0043688543,FEMA4ImagesEEG,001,200204,
AFNE01.JPG,AFNE01.JPG,AFNE01.JPG,AFNE01.JPG,AFNE01.JPG,AFNE01.JPG,,,,,,,,,,,,,3,6,36,0,,,,,,,,,,,AMSA17.jpg,AMNE02.jpg,AMSA11.jpg,AMNE07.jpg,AMSA17.jpg,MS,2,num_8,32,num_6,0.583490362158,,,2017_May_30_1614,60.0043688543,FEMA4ImagesEEG,001,200204,
AFNE01.JPG,AFNE01.JPG,AFNE01.JPG,AFNE01.JPG,AFNE01.JPG,AFNE01.JPG,,,,,,,,,,,,,3,7,37,2,,,,,,,,,,,AMSA04.jpg,AMNE07.jpg,AMSA08.jpg,AMNE12.jpg,AMSA04.jpg,MS,2,num_8,16,num_8,0.333353646798,,,2017_May_30_1614,60.0043688543,FEMA4ImagesEEG,001,200204,
AFNE01.JPG,AFNE01.JPG,AFNE01.JPG,AFNE01.JPG,AFNE01.JPG,AFNE01.JPG,,,,,,,,,,,,,3,8,38,1,,,,,,,,,,,AMNE07.jpg,AMSA09.jpg,AMNE04.jpg,AMSA04.jpg,AMNE04.jpg,MN,1,num_2,16,num_2,0.61679695663,,,2017_May_30_1614,60.0043688543,FEMA4ImagesEEG,001,200204,
AFNE01.JPG,AFNE01.JPG,AFNE01.JPG,AFNE01.JPG,AFNE01.JPG,AFNE01.JPG,,,,,,,,,,,,,3,9,39,4,,,,,,,,,,,AMSA16.jpg,AMNE13.jpg,AMSA06.jpg,AMNE01.jpg,AMNE01.jpg,MN,1,num_4,16,num_4,0.433844667627,,,2017_May_30_1614,60.0043688543,FEMA4ImagesEEG,001,200204,
AFNE01.JPG,AFNE01.JPG,AFNE01.JPG,AFNE01.JPG,AFNE01.JPG,AFNE01.JPG,,,,,,,,,,,,,4,0,40,2,,,,,,,,,,,AMNE03.jpg,AMNE20.jpg,AMSA16.jpg,AMSA10.jpg,AMSA16.jpg,MS,2,num_2,16,num_2,0.716774793342,,,2017_May_30_1614,60.0043688543,FEMA4ImagesEEG,001,200204,
AFNE01.JPG,AFNE01.JPG,AFNE01.JPG,AFNE01.JPG,AFNE01.JPG,AFNE01.JPG,,,,,,,,,,,,,4,1,41,6,,,,,,,,,,,AMNE11.jpg,AMNE12.jpg,AMSA06.jpg,AMSA01.jpg,AMNE11.jpg,MN,1,num_8,16,num_8,0.583479136229,,,2017_May_30_1614,60.0043688543,FEMA4ImagesEEG,001,200204,
AFNE01.JPG,AFNE01.JPG,AFNE01.JPG,AFNE01.JPG,AFNE01.JPG,AFNE01.JPG,,,,,,,,,,,,,4,2,42,8,,,,,,,,,,,AMSA16.jpg,AMSA04.jpg,AMNE14.jpg,AMNE10.jpg,AMNE14.jpg,MN,1,num_2,16,num_2,0.616800805321,,,2017_May_30_1614,60.0043688543,FEMA4ImagesEEG,001,200204,
AFNE01.JPG,AFNE01.JPG,AFNE01.JPG,AFNE01.JPG,AFNE01.JPG,AFNE01.JPG,,,,,,,,,,,,,4,3,43,9,,,,,,,,,,,AMSA05.jpg,AMNE14.jpg,AMNE10.jpg,AMSA06.jpg,AMSA06.jpg,MS,2,num_4,32,num_2,0.616790221073,,,2017_May_30_1614,60.0043688543,FEMA4ImagesEEG,001,200204,
AFNE01.JPG,AFNE01.JPG,AFNE01.JPG,AFNE01.JPG,AFNE01.JPG,AFNE01.JPG,,,,,,,,,,,,,4,4,44,3,,,,,,,,,,,AMNE02.jpg,AMSA19.jpg,AMSA15.jpg,AMNE10.jpg,AMSA15.jpg,MS,2,num_2,16,num_2,0.616803371347,,,2017_May_30_1614,60.0043688543,FEMA4ImagesEEG,001,200204,
AFNE01.JPG,AFNE01.JPG,AFNE01.JPG,AFNE01.JPG,AFNE01.JPG,AFNE01.JPG,,,,,,,,,,,,,4,5,45,4,,,,,,,,,,,AMSA01.jpg,AMNE20.jpg,AMNE17.jpg,AMSA18.jpg,AMNE17.jpg,MN,1,num_2,32,num_8,0.566855828278,,,2017_May_30_1614,60.0043688543,FEMA4ImagesEEG,001,200204,
AFNE01.JPG,AFNE01.JPG,AFNE01.JPG,AFNE01.JPG,AFNE01.JPG,AFNE01.JPG,,,,,,,,,,,,,4,6,46,7,,,,,,,,,,,AMNE14.jpg,AMSA10.jpg,AMSA11.jpg,AMNE19.jpg,AMNE14.jpg,MN,1,num_8,32,num_6,0.63351744879,,,2017_May_30_1614,60.0043688543,FEMA4ImagesEEG,001,200204,
AFNE01.JPG,AFNE01.JPG,AFNE01.JPG,AFNE01.JPG,AFNE01.JPG,AFNE01.JPG,,,,,,,,,,,,,4,7,47,1,,,,,,,,,,,AMSA06.jpg,AMSA17.jpg,AMNE10.jpg,AMNE19.jpg,AMNE10.jpg,MN,1,num_2,16,num_2,0.50012781471,,,2017_May_30_1614,60.0043688543,FEMA4ImagesEEG,001,200204,
AFNE01.JPG,AFNE01.JPG,AFNE01.JPG,AFNE01.JPG,AFNE01.JPG,AFNE01.JPG,,,,,,,,,,,,,4,8,48,5,,,,,,,,,,,AMNE10.jpg,AMSA08.jpg,AMSA19.jpg,AMNE18.jpg,AMSA19.jpg,MS,2,num_2,16,num_2,0.633459073957,,,2017_May_30_1614,60.0043688543,FEMA4ImagesEEG,001,200204,
AFNE01.JPG,AFNE01.JPG,AFNE01.JPG,AFNE01.JPG,AFNE01.JPG,AFNE01.JPG,,,,,,,,,,,,,4,9,49,0,,,,,,,,,,,AMSA20.jpg,AMSA19.jpg,AMNE04.jpg,AMNE10.jpg,AMNE04.jpg,MN,1,num_2,16,num_2,0.616733770818,,,2017_May_30_1614,60.0043688543,FEMA4ImagesEEG,001,200204,
AFNE01.JPG,AFNE01.JPG,AFNE01.JPG,AFNE01.JPG,AFNE01.JPG,AFNE01.JPG,,,,,,,,,,,,,5,0,50,3,,,,,,,,,,,AMSA07.jpg,AMNE05.jpg,AMSA18.jpg,AMNE13.jpg,AMSA18.jpg,MS,2,num_2,16,num_2,0.483451263979,,,2017_May_30_1614,60.0043688543,FEMA4ImagesEEG,001,200204,
AFNE01.JPG,AFNE01.JPG,AFNE01.JPG,AFNE01.JPG,AFNE01.JPG,AFNE01.JPG,,,,,,,,,,,,,5,1,51,0,,,,,,,,,,,AMSA01.jpg,AMNE14.jpg,AMNE04.jpg,AMSA18.jpg,AMSA01.jpg,MS,2,num_8,16,num_8,0.766745429719,,,2017_May_30_1614,60.0043688543,FEMA4ImagesEEG,001,200204,
AFNE01.JPG,AFNE01.JPG,AFNE01.JPG,AFNE01.JPG,AFNE01.JPG,AFNE01.JPG,,,,,,,,,,,,,5,2,52,8,,,,,,,,,,,AMNE15.jpg,AMSA16.jpg,AMNE09.jpg,AMSA07.jpg,AMNE15.jpg,MN,1,num_8,32,num_4,0.583479136229,,,2017_May_30_1614,60.0043688543,FEMA4ImagesEEG,001,200204,
AFNE01.JPG,AFNE01.JPG,AFNE01.JPG,AFNE01.JPG,AFNE01.JPG,AFNE01.JPG,,,,,,,,,,,,,5,3,53,9,,,,,,,,,,,AMSA11.jpg,AMNE08.jpg,AMSA15.jpg,AMNE03.jpg,AMSA11.jpg,MS,2,num_8,16,num_8,0.716507617151,,,2017_May_30_1614,60.0043688543,FEMA4ImagesEEG,001,200204,
AFNE01.JPG,AFNE01.JPG,AFNE01.JPG,AFNE01.JPG,AFNE01.JPG,AFNE01.JPG,,,,,,,,,,,,,5,4,54,7,,,,,,,,,,,AMSA12.jpg,AMNE13.jpg,AMNE14.jpg,AMSA11.jpg,AMNE14.jpg,MN,1,num_2,16,num_2,0.366826705169,,,2017_May_30_1614,60.0043688543,FEMA4ImagesEEG,001,200204,
AFNE01.JPG,AFNE01.JPG,AFNE01.JPG,AFNE01.JPG,AFNE01.JPG,AFNE01.JPG,,,,,,,,,,,,,5,5,55,2,,,,,,,,,,,AMSA10.jpg,AMSA08.jpg,AMNE11.jpg,AMNE20.jpg,AMSA08.jpg,MS,2,num_6,16,num_6,0.433481590124,,,2017_May_30_1614,60.0043688543,FEMA4ImagesEEG,001,200204,
AFNE01.JPG,AFNE01.JPG,AFNE01.JPG,AFNE01.JPG,AFNE01.JPG,AFNE01.JPG,,,,,,,,,,,,,5,6,56,4,,,,,,,,,,,AMNE05.jpg,AMSA11.jpg,AMSA17.jpg,AMNE13.jpg,AMSA17.jpg,MS,2,num_2,16,num_2,0.683817805722,,,2017_May_30_1614,60.0043688543,FEMA4ImagesEEG,001,200204,
AFNE01.JPG,AFNE01.JPG,AFNE01.JPG,AFNE01.JPG,AFNE01.JPG,AFNE01.JPG,,,,,,,,,,,,,5,7,57,6,,,,,,,,,,,AMNE05.jpg,AMSA02.jpg,AMNE17.jpg,AMSA06.jpg,AMNE17.jpg,MN,1,num_2,32,num_8,0.650167057524,,,2017_May_30_1614,60.0043688543,FEMA4ImagesEEG,001,200204,
AFNE01.JPG,AFNE01.JPG,AFNE01.JPG,AFNE01.JPG,AFNE01.JPG,AFNE01.JPG,,,,,,,,,,,,,5,8,58,1,,,,,,,,,,,AMSA10.jpg,AMSA19.jpg,AMNE01.jpg,AMNE07.jpg,AMSA19.jpg,MS,2,num_6,32,num_8,0.466841747984,,,2017_May_30_1614,60.0043688543,FEMA4ImagesEEG,001,200204,
AFNE01.JPG,AFNE01.JPG,AFNE01.JPG,AFNE01.JPG,AFNE01.JPG,AFNE01.JPG,,,,,,,,,,,,,5,9,59,5,,,,,,,,,,,AMSA03.jpg,AMNE12.jpg,AMNE08.jpg,AMSA16.jpg,AMSA16.jpg,MS,2,num_4,16,num_4,0.450210742187,,,2017_May_30_1614,60.0043688543,FEMA4ImagesEEG,001,200204,
,,,,,,,,,,,,,,,,,,,,,,,,,,,,,,,,,,,,,,,,,,,space,1.98338214448,2017_May_30_1614,60.0043688543,FEMA4ImagesEEG,001,200204,
AFNE01.JPG,AFNE01.JPG,AFNE01.JPG,AFNE01.JPG,AFNE01.JPG,AFNE01.JPG,,,,,,,,,,,,,,,,,0,0,0,2,,,,,,,AFNE17.jpg,AFSA13.jpg,AFNE12.jpg,AFSA11.jpg,AFNE12.jpg,FN,3,num_2,16,num_2,0.583530775504,,,2017_May_30_1614,60.0043688543,FEMA4ImagesEEG,001,200204,
AFNE01.JPG,AFNE01.JPG,AFNE01.JPG,AFNE01.JPG,AFNE01.JPG,AFNE01.JPG,,,,,,,,,,,,,,,,,0,1,1,9,,,,,,,AFSA06.jpg,AFNE05.jpg,AFNE06.jpg,AFSA05.jpg,AFSA05.jpg,FS,4,num_4,16,num_4,0.400174995651,,,2017_May_30_1614,60.0043688543,FEMA4ImagesEEG,001,200204,
AFNE01.JPG,AFNE01.JPG,AFNE01.JPG,AFNE01.JPG,AFNE01.JPG,AFNE01.JPG,,,,,,,,,,,,,,,,,0,2,2,7,,,,,,,AFNE17.jpg,AFSA07.jpg,AFNE18.jpg,AFSA01.jpg,AFNE18.jpg,FN,3,num_2,16,num_2,0.783465601271,,,2017_May_30_1614,60.0043688543,FEMA4ImagesEEG,001,200204,
AFNE01.JPG,AFNE01.JPG,AFNE01.JPG,AFNE01.JPG,AFNE01.JPG,AFNE01.JPG,,,,,,,,,,,,,,,,,0,3,3,5,,,,,,,AFNE01.jpg,AFSA13.jpg,AFSA10.jpg,AFNE10.jpg,AFSA10.jpg,FS,4,num_2,32,num_6,0.533503047423,,,2017_May_30_1614,60.0043688543,FEMA4ImagesEEG,001,200204,
AFNE01.JPG,AFNE01.JPG,AFNE01.JPG,AFNE01.JPG,AFNE01.JPG,AFNE01.JPG,,,,,,,,,,,,,,,,,0,4,4,8,,,,,,,AFSA14.jpg,AFNE06.jpg,AFNE10.jpg,AFSA16.jpg,AFSA16.jpg,FS,4,num_4,16,num_4,0.766621623887,,,2017_May_30_1614,60.0043688543,FEMA4ImagesEEG,001,200204,
AFNE01.JPG,AFNE01.JPG,AFNE01.JPG,AFNE01.JPG,AFNE01.JPG,AFNE01.JPG,,,,,,,,,,,,,,,,,0,5,5,1,,,,,,,AFNE11.jpg,AFSA08.jpg,AFSA13.jpg,AFNE09.jpg,AFSA08.jpg,FS,4,num_6,32,num_2,0.533501764527,,,2017_May_30_1614,60.0043688543,FEMA4ImagesEEG,001,200204,
AFNE01.JPG,AFNE01.JPG,AFNE01.JPG,AFNE01.JPG,AFNE01.JPG,AFNE01.JPG,,,,,,,,,,,,,,,,,0,6,6,3,,,,,,,AFNE03.jpg,AFNE12.jpg,AFSA10.jpg,AFSA17.jpg,AFNE03.jpg,FN,3,num_8,16,num_8,0.550155222183,,,2017_May_30_1614,60.0043688543,FEMA4ImagesEEG,001,200204,
AFNE01.JPG,AFNE01.JPG,AFNE01.JPG,AFNE01.JPG,AFNE01.JPG,AFNE01.JPG,,,,,,,,,,,,,,,,,0,7,7,0,,,,,,,AFSA06.jpg,AFNE03.jpg,AFSA04.jpg,AFNE14.jpg,AFNE03.jpg,FN,3,num_6,32,num_4,0.58349485253,,,2017_May_30_1614,60.0043688543,FEMA4ImagesEEG,001,200204,
AFNE01.JPG,AFNE01.JPG,AFNE01.JPG,AFNE01.JPG,AFNE01.JPG,AFNE01.JPG,,,,,,,,,,,,,,,,,0,8,8,6,,,,,,,AFNE05.jpg,AFSA15.jpg,AFSA11.jpg,AFNE04.jpg,AFNE04.jpg,FN,3,num_4,32,num_8,0.500166303711,,,2017_May_30_1614,60.0043688543,FEMA4ImagesEEG,001,200204,
AFNE01.JPG,AFNE01.JPG,AFNE01.JPG,AFNE01.JPG,AFNE01.JPG,AFNE01.JPG,,,,,,,,,,,,,,,,,0,9,9,4,,,,,,,AFSA05.jpg,AFNE13.jpg,AFNE17.jpg,AFSA02.jpg,AFNE13.jpg,FN,3,num_6,16,num_6,0.450189573457,,,2017_May_30_1614,60.0043688543,FEMA4ImagesEEG,001,200204,
AFNE01.JPG,AFNE01.JPG,AFNE01.JPG,AFNE01.JPG,AFNE01.JPG,AFNE01.JPG,,,,,,,,,,,,,,,,,1,0,10,3,,,,,,,AFNE15.jpg,AFSA19.jpg,AFNE06.jpg,AFSA04.jpg,AFSA04.jpg,FS,4,num_4,16,num_4,0.633477997733,,,2017_May_30_1614,60.0043688543,FEMA4ImagesEEG,001,200204,
AFNE01.JPG,AFNE01.JPG,AFNE01.JPG,AFNE01.JPG,AFNE01.JPG,AFNE01.JPG,,,,,,,,,,,,,,,,,1,1,11,5,,,,,,,AFSA10.jpg,AFNE12.jpg,AFNE11.jpg,AFSA04.jpg,AFNE11.jpg,FN,3,num_2,16,num_2,0.816823513713,,,2017_May_30_1614,60.0043688543,FEMA4ImagesEEG,001,200204,
AFNE01.JPG,AFNE01.JPG,AFNE01.JPG,AFNE01.JPG,AFNE01.JPG,AFNE01.JPG,,,,,,,,,,,,,,,,,1,2,12,6,,,,,,,AFSA05.jpg,AFNE16.jpg,AFSA11.jpg,AFNE13.jpg,AFSA11.jpg,FS,4,num_2,16,num_2,0.516869476065,,,2017_May_30_1614,60.0043688543,FEMA4ImagesEEG,001,200204,
AFNE01.JPG,AFNE01.JPG,AFNE01.JPG,AFNE01.JPG,AFNE01.JPG,AFNE01.JPG,,,,,,,,,,,,,,,,,1,3,13,0,,,,,,,AFSA05.jpg,AFNE08.jpg,AFSA11.jpg,AFNE04.jpg,AFNE04.jpg,FN,3,num_4,32,num_8,0.566779171582,,,2017_May_30_1614,60.0043688543,FEMA4ImagesEEG,001,200204,
AFNE01.JPG,AFNE01.JPG,AFNE01.JPG,AFNE01.JPG,AFNE01.JPG,AFNE01.JPG,,,,,,,,,,,,,,,,,1,4,14,9,,,,,,,AFSA05.jpg,AFNE01.jpg,AFNE03.jpg,AFSA04.jpg,AFNE03.jpg,FN,3,num_2,32,num_6,0.70009311079,,,2017_May_30_1614,60.0043688543,FEMA4ImagesEEG,001,200204,
AFNE01.JPG,AFNE01.JPG,AFNE01.JPG,AFNE01.JPG,AFNE01.JPG,AFNE01.JPG,,,,,,,,,,,,,,,,,1,5,15,1,,,,,,,AFNE01.jpg,AFSA19.jpg,AFNE13.jpg,AFSA05.jpg,AFSA19.jpg,FS,4,num_6,16,num_6,0.5334793129,,,2017_May_30_1614,60.0043688543,FEMA4ImagesEEG,001,200204,
AFNE01.JPG,AFNE01.JPG,AFNE01.JPG,AFNE01.JPG,AFNE01.JPG,AFNE01.JPG,,,,,,,,,,,,,,,,,1,6,16,7,,,,,,,AFNE13.jpg,AFSA08.jpg,AFNE16.jpg,AFSA11.jpg,AFSA11.jpg,FS,4,num_4,16,num_4,0.616795673734,,,2017_May_30_1614,60.0043688543,FEMA4ImagesEEG,001,200204,
AFNE01.JPG,AFNE01.JPG,AFNE01.JPG,AFNE01.JPG,AFNE01.JPG,AFNE01.JPG,,,,,,,,,,,,,,,,,1,7,17,4,,,,,,,AFNE06.jpg,AFNE19.jpg,AFSA20.jpg,AFSA10.jpg,AFNE06.jpg,FN,3,num_8,16,num_8,0.500140323769,,,2017_May_30_1614,60.0043688543,FEMA4ImagesEEG,001,200204,
AFNE01.JPG,AFNE01.JPG,AFNE01.JPG,AFNE01.JPG,AFNE01.JPG,AFNE01.JPG,,,,,,,,,,,,,,,,,1,8,18,2,,,,,,,AFSA11.jpg,AFNE13.jpg,AFNE02.jpg,AFSA15.jpg,AFNE13.jpg,FN,3,num_6,32,num_4,0.466837578453,,,2017_May_30_1614,60.0043688543,FEMA4ImagesEEG,001,200204,
AFNE01.JPG,AFNE01.JPG,AFNE01.JPG,AFNE01.JPG,AFNE01.JPG,AFNE01.JPG,,,,,,,,,,,,,,,,,1,9,19,8,,,,,,,AFNE19.jpg,AFNE18.jpg,AFSA12.jpg,AFSA13.jpg,AFSA12.jpg,FS,4,num_2,16,num_2,0.550110959914,,,2017_May_30_1614,60.0043688543,FEMA4ImagesEEG,001,200204,
AFNE01.JPG,AFNE01.JPG,AFNE01.JPG,AFNE01.JPG,AFNE01.JPG,AFNE01.JPG,,,,,,,,,,,,,,,,,2,0,20,8,,,,,,,AFNE09.jpg,AFSA15.jpg,AFNE14.jpg,AFSA13.jpg,AFSA15.jpg,FS,4,num_6,32,num_4,0.516822648002,,,2017_May_30_1614,60.0043688543,FEMA4ImagesEEG,001,200204,
AFNE01.JPG,AFNE01.JPG,AFNE01.JPG,AFNE01.JPG,AFNE01.JPG,AFNE01.JPG,,,,,,,,,,,,,,,,,2,1,21,1,,,,,,,AFSA20.jpg,AFNE14.jpg,AFNE15.jpg,AFSA06.jpg,AFSA06.jpg,FS,4,num_4,32,num_8,0.500118834199,,,2017_May_30_1614,60.0043688543,FEMA4ImagesEEG,001,200204,
AFNE01.JPG,AFNE01.JPG,AFNE01.JPG,AFNE01.JPG,AFNE01.JPG,AFNE01.JPG,,,,,,,,,,,,,,,,,2,2,22,2,,,,,,,AFSA18.jpg,AFSA01.jpg,AFNE07.jpg,AFNE02.jpg,AFSA01.jpg,FS,4,num_6,32,num_2,0.666752518155,,,2017_May_30_1614,60.0043688543,FEMA4ImagesEEG,001,200204,
AFNE01.JPG,AFNE01.JPG,AFNE01.JPG,AFNE01.JPG,AFNE01.JPG,AFNE01.JPG,,,,,,,,,,,,,,,,,2,3,23,0,,,,,,,AFNE09.jpg,AFSA14.jpg,AFNE15.jpg,AFSA11.jpg,AFNE09.jpg,FN,3,num_8,32,num_6,0.516763310879,,,2017_May_30_1614,60.0043688543,FEMA4ImagesEEG,001,200204,
AFNE01.JPG,AFNE01.JPG,AFNE01.JPG,AFNE01.JPG,AFNE01.JPG,AFNE01.JPG,,,,,,,,,,,,,,,,,2,4,24,3,,,,,,,AFNE11.jpg,AFSA15.jpg,AFSA11.jpg,AFNE17.jpg,AFSA11.jpg,FS,4,num_2,32,num_8,0.433497306192,,,2017_May_30_1614,60.0043688543,FEMA4ImagesEEG,001,200204,
AFNE01.JPG,AFNE01.JPG,AFNE01.JPG,AFNE01.JPG,AFNE01.JPG,AFNE01.JPG,,,,,,,,,,,,,,,,,2,5,25,9,,,,,,,AFNE07.jpg,AFSA19.jpg,AFSA14.jpg,AFNE12.jpg,AFNE07.jpg,FN,3,num_8,32,num_6,0.80016396218,,,2017_May_30_1614,60.0043688543,FEMA4ImagesEEG,001,200204,
AFNE01.JPG,AFNE01.JPG,AFNE01.JPG,AFNE01.JPG,AFNE01.JPG,AFNE01.JPG,,,,,,,,,,,,,,,,,2,6,26,5,,,,,,,AFSA18.jpg,AFNE17.jpg,AFSA09.jpg,AFNE15.jpg,AFNE17.jpg,FN,3,num_6,32,num_2,0.733481493779,,,2017_May_30_1614,60.0043688543,FEMA4ImagesEEG,001,200204,
AFNE01.JPG,AFNE01.JPG,AFNE01.JPG,AFNE01.JPG,AFNE01.JPG,AFNE01.JPG,,,,,,,,,,,,,,,,,2,7,27,4,,,,,,,AFNE07.jpg,AFNE08.jpg,AFSA20.jpg,AFSA01.jpg,AFNE07.jpg,FN,3,num_8,32,num_4,0.600138687994,,,2017_May_30_1614,60.0043688543,FEMA4ImagesEEG,001,200204,
AFNE01.JPG,AFNE01.JPG,AFNE01.JPG,AFNE01.JPG,AFNE01.JPG,AFNE01.JPG,,,,,,,,,,,,,,,,,2,8,28,7,,,,,,,AFNE09.jpg,AFSA14.jpg,AFNE02.jpg,AFSA07.jpg,AFNE02.jpg,FN,3,num_2,32,num_4,0.600183912087,,,2017_May_30_1614,60.0043688543,FEMA4ImagesEEG,001,200204,
AFNE01.JPG,AFNE01.JPG,AFNE01.JPG,AFNE01.JPG,AFNE01.JPG,AFNE01.JPG,,,,,,,,,,,,,,,,,2,9,29,6,,,,,,,AFSA17.jpg,AFSA06.jpg,AFNE18.jpg,AFNE08.jpg,AFSA06.jpg,FS,4,num_6,32,num_8,0.616498026997,,,2017_May_30_1614,60.0043688543,FEMA4ImagesEEG,001,200204,
AFNE01.JPG,AFNE01.JPG,AFNE01.JPG,AFNE01.JPG,AFNE01.JPG,AFNE01.JPG,,,,,,,,,,,,,,,,,3,0,30,3,,,,,,,AFSA18.jpg,AFNE20.jpg,AFSA07.jpg,AFNE18.jpg,AFNE20.jpg,FN,3,num_6,16,num_6,0.483432981884,,,2017_May_30_1614,60.0043688543,FEMA4ImagesEEG,001,200204,
AFNE01.JPG,AFNE01.JPG,AFNE01.JPG,AFNE01.JPG,AFNE01.JPG,AFNE01.JPG,,,,,,,,,,,,,,,,,3,1,31,5,,,,,,,AFNE12.jpg,AFSA04.jpg,AFSA07.jpg,AFNE20.jpg,AFSA07.jpg,FS,4,num_2,32,num_8,0.766866990132,,,2017_May_30_1614,60.0043688543,FEMA4ImagesEEG,001,200204,
AFNE01.JPG,AFNE01.JPG,AFNE01.JPG,AFNE01.JPG,AFNE01.JPG,AFNE01.JPG,,,,,,,,,,,,,,,,,3,2,32,9,,,,,,,AFNE20.jpg,AFSA04.jpg,AFNE04.jpg,AFSA07.jpg,AFSA04.jpg,FS,4,num_6,16,num_6,0.566840111976,,,2017_May_30_1614,60.0043688543,FEMA4ImagesEEG,001,200204,
AFNE01.JPG,AFNE01.JPG,AFNE01.JPG,AFNE01.JPG,AFNE01.JPG,AFNE01.JPG,,,,,,,,,,,,,,,,,3,3,33,2,,,,,,,AFSA06.jpg,AFNE01.jpg,AFNE06.jpg,AFSA17.jpg,AFNE01.jpg,FN,3,num_6,32,num_2,0.516800516751,,,2017_May_30_1614,60.0043688543,FEMA4ImagesEEG,001,200204,
AFNE01.JPG,AFNE01.JPG,AFNE01.JPG,AFNE01.JPG,AFNE01.JPG,AFNE01.JPG,,,,,,,,,,,,,,,,,3,4,34,8,,,,,,,AFSA04.jpg,AFSA18.jpg,AFNE09.jpg,AFNE14.jpg,AFSA04.jpg,FS,4,num_8,32,num_6,0.433484155918,,,2017_May_30_1614,60.0043688543,FEMA4ImagesEEG,001,200204,
AFNE01.JPG,AFNE01.JPG,AFNE01.JPG,AFNE01.JPG,AFNE01.JPG,AFNE01.JPG,,,,,,,,,,,,,,,,,3,5,35,6,,,,,,,AFSA08.jpg,AFNE01.jpg,AFSA01.jpg,AFNE16.jpg,AFNE16.jpg,FN,3,num_4,16,num_4,0.566797453677,,,2017_May_30_1614,60.0043688543,FEMA4ImagesEEG,001,200204,
AFNE01.JPG,AFNE01.JPG,AFNE01.JPG,AFNE01.JPG,AFNE01.JPG,AFNE01.JPG,,,,,,,,,,,,,,,,,3,6,36,0,,,,,,,AFNE05.jpg,AFSA15.jpg,AFNE10.jpg,AFSA01.jpg,AFNE05.jpg,FN,3,num_8,16,num_8,0.616821653675,,,2017_May_30_1614,60.0043688543,FEMA4ImagesEEG,001,200204,
AFNE01.JPG,AFNE01.JPG,AFNE01.JPG,AFNE01.JPG,AFNE01.JPG,AFNE01.JPG,,,,,,,,,,,,,,,,,3,7,37,7,,,,,,,AFSA11.jpg,AFNE04.jpg,AFSA04.jpg,AFNE07.jpg,AFSA04.jpg,FS,4,num_2,16,num_2,0.716770944651,,,2017_May_30_1614,60.0043688543,FEMA4ImagesEEG,001,200204,
AFNE01.JPG,AFNE01.JPG,AFNE01.JPG,AFNE01.JPG,AFNE01.JPG,AFNE01.JPG,,,,,,,,,,,,,,,,,3,8,38,4,,,,,,,AFNE10.jpg,AFSA17.jpg,AFNE19.jpg,AFSA09.jpg,AFNE19.jpg,FN,3,num_2,16,num_2,0.566759606358,,,2017_May_30_1614,60.0043688543,FEMA4ImagesEEG,001,200204,
AFNE01.JPG,AFNE01.JPG,AFNE01.JPG,AFNE01.JPG,AFNE01.JPG,AFNE01.JPG,,,,,,,,,,,,,,,,,3,9,39,1,,,,,,,AFNE15.jpg,AFSA01.jpg,AFSA20.jpg,AFNE08.jpg,AFNE08.jpg,FN,3,num_4,16,num_4,0.383468936896,,,2017_May_30_1614,60.0043688543,FEMA4ImagesEEG,001,200204,
AFNE01.JPG,AFNE01.JPG,AFNE01.JPG,AFNE01.JPG,AFNE01.JPG,AFNE01.JPG,,,,,,,,,,,,,,,,,4,0,40,5,,,,,,,AFNE11.jpg,AFNE15.jpg,AFSA03.jpg,AFSA15.jpg,AFNE15.jpg,FN,3,num_6,32,num_4,1.08350238996,,,2017_May_30_1614,60.0043688543,FEMA4ImagesEEG,001,200204,
AFNE01.JPG,AFNE01.JPG,AFNE01.JPG,AFNE01.JPG,AFNE01.JPG,AFNE01.JPG,,,,,,,,,,,,,,,,,4,1,41,8,,,,,,,AFSA10.jpg,AFNE14.jpg,AFNE12.jpg,AFSA18.jpg,AFNE14.jpg,FN,3,num_6,16,num_6,0.600176855922,,,2017_May_30_1614,60.0043688543,FEMA4ImagesEEG,001,200204,
AFNE01.JPG,AFNE01.JPG,AFNE01.JPG,AFNE01.JPG,AFNE01.JPG,AFNE01.JPG,,,,,,,,,,,,,,,,,4,2,42,2,,,,,,,AFSA04.jpg,AFNE10.jpg,AFSA05.jpg,AFNE01.jpg,AFSA05.jpg,FS,4,num_2,32,num_8,0.500233979896,,,2017_May_30_1614,60.0043688543,FEMA4ImagesEEG,001,200204,
AFNE01.JPG,AFNE01.JPG,AFNE01.JPG,AFNE01.JPG,AFNE01.JPG,AFNE01.JPG,,,,,,,,,,,,,,,,,4,3,43,6,,,,,,,AFNE03.jpg,AFNE10.jpg,AFSA12.jpg,AFSA19.jpg,AFNE10.jpg,FN,3,num_6,32,num_4,0.550152335316,,,2017_May_30_1614,60.0043688543,FEMA4ImagesEEG,001,200204,
AFNE01.JPG,AFNE01.JPG,AFNE01.JPG,AFNE01.JPG,AFNE01.JPG,AFNE01.JPG,,,,,,,,,,,,,,,,,4,4,44,0,,,,,,,AFNE09.jpg,AFNE05.jpg,AFSA03.jpg,AFSA17.jpg,AFNE05.jpg,FN,3,num_6,32,num_2,0.667055937927,,,2017_May_30_1614,60.0043688543,FEMA4ImagesEEG,001,200204,
AFNE01.JPG,AFNE01.JPG,AFNE01.JPG,AFNE01.JPG,AFNE01.JPG,AFNE01.JPG,,,,,,,,,,,,,,,,,4,5,45,3,,,,,,,AFSA16.jpg,AFNE18.jpg,AFSA02.jpg,AFNE05.jpg,AFNE18.jpg,FN,3,num_6,32,num_4,0.416787077673,,,2017_May_30_1614,60.0043688543,FEMA4ImagesEEG,001,200204,
AFNE01.JPG,AFNE01.JPG,AFNE01.JPG,AFNE01.JPG,AFNE01.JPG,AFNE01.JPG,,,,,,,,,,,,,,,,,4,6,46,4,,,,,,,AFNE12.jpg,AFNE20.jpg,AFSA17.jpg,AFSA20.jpg,AFSA20.jpg,FS,4,num_4,32,num_2,0.600131631829,,,2017_May_30_1614,60.0043688543,FEMA4ImagesEEG,001,200204,
AFNE01.JPG,AFNE01.JPG,AFNE01.JPG,AFNE01.JPG,AFNE01.JPG,AFNE01.JPG,,,,,,,,,,,,,,,,,4,7,47,7,,,,,,,AFNE06.jpg,AFSA09.jpg,AFSA11.jpg,AFNE08.jpg,AFSA09.jpg,FS,4,num_6,16,num_6,0.533508179244,,,2017_May_30_1614,60.0043688543,FEMA4ImagesEEG,001,200204,
AFNE01.JPG,AFNE01.JPG,AFNE01.JPG,AFNE01.JPG,AFNE01.JPG,AFNE01.JPG,,,,,,,,,,,,,,,,,4,8,48,9,,,,,,,AFNE10.jpg,AFNE11.jpg,AFSA05.jpg,AFSA14.jpg,AFNE11.jpg,FN,3,num_6,32,num_2,0.550158429425,,,2017_May_30_1614,60.0043688543,FEMA4ImagesEEG,001,200204,
AFNE01.JPG,AFNE01.JPG,AFNE01.JPG,AFNE01.JPG,AFNE01.JPG,AFNE01.JPG,,,,,,,,,,,,,,,,,4,9,49,1,,,,,,,AFSA18.jpg,AFNE13.jpg,AFSA11.jpg,AFNE03.jpg,AFNE13.jpg,FN,3,num_6,16,num_6,0.783478109865,,,2017_May_30_1614,60.0043688543,FEMA4ImagesEEG,001,200204,
AFNE01.JPG,AFNE01.JPG,AFNE01.JPG,AFNE01.JPG,AFNE01.JPG,AFNE01.JPG,,,,,,,,,,,,,,,,,5,0,50,9,,,,,,,AFSA11.jpg,AFSA07.jpg,AFNE17.jpg,AFNE14.jpg,AFSA11.jpg,FS,4,num_8,32,num_2,0.616628888994,,,2017_May_30_1614,60.0043688543,FEMA4ImagesEEG,001,200204,
AFNE01.JPG,AFNE01.JPG,AFNE01.JPG,AFNE01.JPG,AFNE01.JPG,AFNE01.JPG,,,,,,,,,,,,,,,,,5,1,51,5,,,,,,,AFSA17.jpg,AFSA19.jpg,AFNE12.jpg,AFNE14.jpg,AFSA19.jpg,FS,4,num_6,16,num_6,0.716762605356,,,2017_May_30_1614,60.0043688543,FEMA4ImagesEEG,001,200204,
AFNE01.JPG,AFNE01.JPG,AFNE01.JPG,AFNE01.JPG,AFNE01.JPG,AFNE01.JPG,,,,,,,,,,,,,,,,,5,2,52,4,,,,,,,AFNE12.jpg,AFNE18.jpg,AFSA19.jpg,AFSA13.jpg,AFNE18.jpg,FN,3,num_6,32,num_4,0.666802232852,,,2017_May_30_1614,60.0043688543,FEMA4ImagesEEG,001,200204,
AFNE01.JPG,AFNE01.JPG,AFNE01.JPG,AFNE01.JPG,AFNE01.JPG,AFNE01.JPG,,,,,,,,,,,,,,,,,5,3,53,3,,,,,,,AFNE16.jpg,AFSA18.jpg,AFNE10.jpg,AFSA09.jpg,AFSA18.jpg,FS,4,num_6,16,num_6,0.60026473878,,,2017_May_30_1614,60.0043688543,FEMA4ImagesEEG,001,200204,
AFNE01.JPG,AFNE01.JPG,AFNE01.JPG,AFNE01.JPG,AFNE01.JPG,AFNE01.JPG,,,,,,,,,,,,,,,,,5,4,54,2,,,,,,,AFNE16.jpg,AFSA10.jpg,AFNE18.jpg,AFSA01.jpg,AFSA10.jpg,FS,4,num_6,16,num_6,0.583513134858,,,2017_May_30_1614,60.0043688543,FEMA4ImagesEEG,001,200204,
AFNE01.JPG,AFNE01.JPG,AFNE01.JPG,AFNE01.JPG,AFNE01.JPG,AFNE01.JPG,,,,,,,,,,,,,,,,,5,5,55,1,,,,,,,AFNE04.jpg,AFSA17.jpg,AFNE16.jpg,AFSA14.jpg,AFSA14.jpg,FS,4,num_4,16,num_4,0.533526782179,,,2017_May_30_1614,60.0043688543,FEMA4ImagesEEG,001,200204,
AFNE01.JPG,AFNE01.JPG,AFNE01.JPG,AFNE01.JPG,AFNE01.JPG,AFNE01.JPG,,,,,,,,,,,,,,,,,5,6,56,6,,,,,,,AFNE15.jpg,AFNE13.jpg,AFSA07.jpg,AFSA09.jpg,AFNE13.jpg,FN,3,num_6,32,num_2,0.550163882086,,,2017_May_30_1614,60.0043688543,FEMA4ImagesEEG,001,200204,
AFNE01.JPG,AFNE01.JPG,AFNE01.JPG,AFNE01.JPG,AFNE01.JPG,AFNE01.JPG,,,,,,,,,,,,,,,,,5,7,57,8,,,,,,,AFSA03.jpg,AFNE10.jpg,AFSA11.jpg,AFNE12.jpg,AFSA11.jpg,FS,4,num_2,16,num_2,0.666794535005,,,2017_May_30_1614,60.0043688543,FEMA4ImagesEEG,001,200204,
AFNE01.JPG,AFNE01.JPG,AFNE01.JPG,AFNE01.JPG,AFNE01.JPG,AFNE01.JPG,,,,,,,,,,,,,,,,,5,8,58,0,,,,,,,AFSA03.jpg,AFNE13.jpg,AFNE07.jpg,AFSA17.jpg,AFNE07.jpg,FN,3,num_2,32,num_8,0.850150314858,,,2017_May_30_1614,60.0043688543,FEMA4ImagesEEG,001,200204,
AFNE01.JPG,AFNE01.JPG,AFNE01.JPG,AFNE01.JPG,AFNE01.JPG,AFNE01.JPG,,,,,,,,,,,,,,,,,5,9,59,7,,,,,,,AFNE03.jpg,AFSA15.jpg,AFNE12.jpg,AFSA10.jpg,AFNE03.jpg,FN,3,num_8,32,num_6,0.500155077782,,,2017_May_30_1614,60.0043688543,FEMA4ImagesEEG,001,200204,
,,,,,,,,,,,,,,,,,,,,,,,,,,,,,,,,,,,,,,,,,,,space,1.91657747421,2017_May_30_1614,60.0043688543,FEMA4ImagesEEG,001,200204,
AFNE01.JPG,AFNE01.JPG,AFNE01.JPG,AFNE01.JPG,AFNE01.JPG,AFNE01.JPG,,,,,,,,,,,,,,,,,,,,,0,0,0,0,,,AMSA07.jpg,AMSA01.jpg,AMNE15.jpg,AMNE06.jpg,AMSA01.jpg,MS,2,num_6,16,num_6,0.516775178257,,,2017_May_30_1614,60.0043688543,FEMA4ImagesEEG,001,200204,
AFNE01.JPG,AFNE01.JPG,AFNE01.JPG,AFNE01.JPG,AFNE01.JPG,AFNE01.JPG,,,,,,,,,,,,,,,,,,,,,0,1,1,4,,,AMNE11.jpg,AMNE12.jpg,AMSA02.jpg,AMSA03.jpg,AMNE12.jpg,MN,1,num_6,32,num_8,0.250005853362,,,2017_May_30_1614,60.0043688543,FEMA4ImagesEEG,001,200204,
AFNE01.JPG,AFNE01.JPG,AFNE01.JPG,AFNE01.JPG,AFNE01.JPG,AFNE01.JPG,,,,,,,,,,,,,,,,,,,,,0,2,2,1,,,AMNE16.jpg,AMNE05.jpg,AMSA07.jpg,AMSA17.jpg,AMSA17.jpg,MS,2,num_4,16,num_4,0.683451199904,,,2017_May_30_1614,60.0043688543,FEMA4ImagesEEG,001,200204,
AFNE01.JPG,AFNE01.JPG,AFNE01.JPG,AFNE01.JPG,AFNE01.JPG,AFNE01.JPG,,,,,,,,,,,,,,,,,,,,,0,3,3,3,,,AMNE17.jpg,AMNE14.jpg,AMSA07.jpg,AMSA15.jpg,AMNE17.jpg,MN,1,num_8,32,num_6,0.666767271934,,,2017_May_30_1614,60.0043688543,FEMA4ImagesEEG,001,200204,
AFNE01.JPG,AFNE01.JPG,AFNE01.JPG,AFNE01.JPG,AFNE01.JPG,AFNE01.JPG,,,,,,,,,,,,,,,,,,,,,0,4,4,7,,,AMNE19.jpg,AMSA10.jpg,AMNE16.jpg,AMSA06.jpg,AMSA06.jpg,MS,2,num_4,32,num_2,0.700205369852,,,2017_May_30_1614,60.0043688543,FEMA4ImagesEEG,001,200204,
AFNE01.JPG,AFNE01.JPG,AFNE01.JPG,AFNE01.JPG,AFNE01.JPG,AFNE01.JPG,,,,,,,,,,,,,,,,,,,,,0,5,5,8,,,AMSA15.jpg,AMNE13.jpg,AMSA01.jpg,AMNE17.jpg,AMNE17.jpg,MN,1,num_4,32,num_6,0.30019587581,,,2017_May_30_1614,60.0043688543,FEMA4ImagesEEG,001,200204,
AFNE01.JPG,AFNE01.JPG,AFNE01.JPG,AFNE01.JPG,AFNE01.JPG,AFNE01.JPG,,,,,,,,,,,,,,,,,,,,,0,6,6,5,,,AMNE18.jpg,AMSA11.jpg,AMNE15.jpg,AMSA09.jpg,AMSA11.jpg,MS,2,num_6,32,num_4,0.266799794976,,,2017_May_30_1614,60.0043688543,FEMA4ImagesEEG,001,200204,
AFNE01.JPG,AFNE01.JPG,AFNE01.JPG,AFNE01.JPG,AFNE01.JPG,AFNE01.JPG,,,,,,,,,,,,,,,,,,,,,0,7,7,6,,,AMNE02.jpg,AMSA10.jpg,AMNE01.jpg,AMSA04.jpg,AMSA04.jpg,MS,2,num_4,16,num_4,0.416775210528,,,2017_May_30_1614,60.0043688543,FEMA4ImagesEEG,001,200204,
AFNE01.JPG,AFNE01.JPG,AFNE01.JPG,AFNE01.JPG,AFNE01.JPG,AFNE01.JPG,,,,,,,,,,,,,,,,,,,,,0,8,8,9,,,AMNE10.jpg,AMSA03.jpg,AMSA08.jpg,AMNE08.jpg,AMSA03.jpg,MS,2,num_6,32,num_2,0.417093705153,,,2017_May_30_1614,60.0043688543,FEMA4ImagesEEG,001,200204,
AFNE01.JPG,AFNE01.JPG,AFNE01.JPG,AFNE01.JPG,AFNE01.JPG,AFNE01.JPG,,,,,,,,,,,,,,,,,,,,,0,9,9,2,,,AMNE06.jpg,AMSA04.jpg,AMSA19.jpg,AMNE04.jpg,AMNE04.jpg,MN,1,num_4,16,num_4,0.400181089761,,,2017_May_30_1614,60.0043688543,FEMA4ImagesEEG,001,200204,
AFNE01.JPG,AFNE01.JPG,AFNE01.JPG,AFNE01.JPG,AFNE01.JPG,AFNE01.JPG,,,,,,,,,,,,,,,,,,,,,1,0,10,2,,,AMNE08.jpg,AMSA01.jpg,AMSA19.jpg,AMNE18.jpg,AMNE18.jpg,MN,1,num_4,32,num_2,0.583452515071,,,2017_May_30_1614,60.0043688543,FEMA4ImagesEEG,001,200204,
AFNE01.JPG,AFNE01.JPG,AFNE01.JPG,AFNE01.JPG,AFNE01.JPG,AFNE01.JPG,,,,,,,,,,,,,,,,,,,,,1,1,11,8,,,AMSA02.jpg,AMSA11.jpg,AMNE04.jpg,AMNE14.jpg,AMSA11.jpg,MS,2,num_6,16,num_6,0.516765876673,,,2017_May_30_1614,60.0043688543,FEMA4ImagesEEG,001,200204,
AFNE01.JPG,AFNE01.JPG,AFNE01.JPG,AFNE01.JPG,AFNE01.JPG,AFNE01.JPG,,,,,,,,,,,,,,,,,,,,,1,2,12,7,,,AMSA20.jpg,AMSA03.jpg,AMNE07.jpg,AMNE12.jpg,AMSA03.jpg,MS,2,num_6,32,num_8,0.483468584018,,,2017_May_30_1614,60.0043688543,FEMA4ImagesEEG,001,200204,
AFNE01.JPG,AFNE01.JPG,AFNE01.JPG,AFNE01.JPG,AFNE01.JPG,AFNE01.JPG,,,,,,,,,,,,,,,,,,,,,1,3,13,4,,,AMSA02.jpg,AMNE04.jpg,AMNE18.jpg,AMSA09.jpg,AMNE18.jpg,MN,1,num_2,16,num_2,1.10022224067,,,2017_May_30_1614,60.0043688543,FEMA4ImagesEEG,001,200204,
AFNE01.JPG,AFNE01.JPG,AFNE01.JPG,AFNE01.JPG,AFNE01.JPG,AFNE01.JPG,,,,,,,,,,,,,,,,,,,,,1,4,14,9,,,AMSA02.jpg,AMNE11.jpg,AMSA20.jpg,AMNE01.jpg,AMSA20.jpg,MS,2,num_2,32,num_6,0.633467092644,,,2017_May_30_1614,60.0043688543,FEMA4ImagesEEG,001,200204,
AFNE01.JPG,AFNE01.JPG,AFNE01.JPG,AFNE01.JPG,AFNE01.JPG,AFNE01.JPG,,,,,,,,,,,,,,,,,,,,,1,5,15,5,,,AMSA11.jpg,AMSA09.jpg,AMNE11.jpg,AMNE10.jpg,AMSA11.jpg,MS,2,num_8,32,num_4,0.683492254699,,,2017_May_30_1614,60.0043688543,FEMA4ImagesEEG,001,200204,
AFNE01.JPG,AFNE01.JPG,AFNE01.JPG,AFNE01.JPG,AFNE01.JPG,AFNE01.JPG,,,,,,,,,,,,,,,,,,,,,1,6,16,6,,,AMSA01.jpg,AMSA11.jpg,AMNE02.jpg,AMNE17.jpg,AMNE17.jpg,MN,1,num_4,32,num_8,0.533469369868,,,2017_May_30_1614,60.0043688543,FEMA4ImagesEEG,001,200204,
AFNE01.JPG,AFNE01.JPG,AFNE01.JPG,AFNE01.JPG,AFNE01.JPG,AFNE01.JPG,,,,,,,,,,,,,,,,,,,,,1,7,17,0,,,AMSA11.jpg,AMSA06.jpg,AMNE12.jpg,AMNE04.jpg,AMSA11.jpg,MS,2,num_8,16,num_8,0.900186702842,,,2017_May_30_1614,60.0043688543,FEMA4ImagesEEG,001,200204,
AFNE01.JPG,AFNE01.JPG,AFNE01.JPG,AFNE01.JPG,AFNE01.JPG,AFNE01.JPG,,,,,,,,,,,,,,,,,,,,,1,8,18,3,,,AMSA16.jpg,AMNE06.jpg,AMNE11.jpg,AMSA03.jpg,AMSA03.jpg,MS,2,num_4,16,num_4,0.78341684863,,,2017_May_30_1614,60.0043688543,FEMA4ImagesEEG,001,200204,
AFNE01.JPG,AFNE01.JPG,AFNE01.JPG,AFNE01.JPG,AFNE01.JPG,AFNE01.JPG,,,,,,,,,,,,,,,,,,,,,1,9,19,1,,,AMNE11.jpg,AMNE07.jpg,AMSA03.jpg,AMSA16.jpg,AMSA03.jpg,MS,2,num_2,32,num_6,0.683494179044,,,2017_May_30_1614,60.0043688543,FEMA4ImagesEEG,001,200204,
AFNE01.JPG,AFNE01.JPG,AFNE01.JPG,AFNE01.JPG,AFNE01.JPG,AFNE01.JPG,,,,,,,,,,,,,,,,,,,,,2,0,20,7,,,AMSA07.jpg,AMSA14.jpg,AMNE09.jpg,AMNE04.jpg,AMNE09.jpg,MN,1,num_2,32,num_8,0.766816633986,,,2017_May_30_1614,60.0043688543,FEMA4ImagesEEG,001,200204,
AFNE01.JPG,AFNE01.JPG,AFNE01.JPG,AFNE01.JPG,AFNE01.JPG,AFNE01.JPG,,,,,,,,,,,,,,,,,,,,,2,1,21,0,,,AMSA13.jpg,AMSA18.jpg,AMNE12.jpg,AMNE14.jpg,AMSA13.jpg,MS,2,num_8,32,num_6,0.466801655479,,,2017_May_30_1614,60.0043688543,FEMA4ImagesEEG,001,200204,
AFNE01.JPG,AFNE01.JPG,AFNE01.JPG,AFNE01.JPG,AFNE01.JPG,AFNE01.JPG,,,,,,,,,,,,,,,,,,,,,2,2,22,6,,,AMNE15.jpg,AMSA13.jpg,AMSA14.jpg,AMNE08.jpg,AMSA14.jpg,MS,2,num_2,16,num_2,0.566758644069,,,2017_May_30_1614,60.0043688543,FEMA4ImagesEEG,001,200204,
AFNE01.JPG,AFNE01.JPG,AFNE01.JPG,AFNE01.JPG,AFNE01.JPG,AFNE01.JPG,,,,,,,,,,,,,,,,,,,,,2,3,23,2,,,AMNE05.jpg,AMNE03.jpg,AMSA08.jpg,AMSA06.jpg,AMSA06.jpg,MS,2,num_4,32,num_6,0.63351712795,,,2017_May_30_1614,60.0043688543,FEMA4ImagesEEG,001,200204,
AFNE01.JPG,AFNE01.JPG,AFNE01.JPG,AFNE01.JPG,AFNE01.JPG,AFNE01.JPG,,,,,,,,,,,,,,,,,,,,,2,4,24,1,,,AMSA11.jpg,AMNE03.jpg,AMSA17.jpg,AMNE05.jpg,AMSA17.jpg,MS,2,num_2,32,num_8,0.433482552413,,,2017_May_30_1614,60.0043688543,FEMA4ImagesEEG,001,200204,
AFNE01.JPG,AFNE01.JPG,AFNE01.JPG,AFNE01.JPG,AFNE01.JPG,AFNE01.JPG,,,,,,,,,,,,,,,,,,,,,2,5,25,5,,,AMNE13.jpg,AMSA16.jpg,AMNE19.jpg,AMSA02.jpg,AMSA16.jpg,MS,2,num_6,32,num_8,0.533529027598,,,2017_May_30_1614,60.0043688543,FEMA4ImagesEEG,001,200204,
AFNE01.JPG,AFNE01.JPG,AFNE01.JPG,AFNE01.JPG,AFNE01.JPG,AFNE01.JPG,,,,,,,,,,,,,,,,,,,,,2,6,26,4,,,AMSA20.jpg,AMNE20.jpg,AMNE13.jpg,AMSA18.jpg,AMSA18.jpg,MS,2,num_4,16,num_4,0.383527311496,,,2017_May_30_1614,60.0043688543,FEMA4ImagesEEG,001,200204,
AFNE01.JPG,AFNE01.JPG,AFNE01.JPG,AFNE01.JPG,AFNE01.JPG,AFNE01.JPG,,,,,,,,,,,,,,,,,,,,,2,7,27,9,,,AMSA01.jpg,AMSA02.jpg,AMNE03.jpg,AMNE01.jpg,AMSA01.jpg,MS,2,num_8,32,num_4,0.516783517553,,,2017_May_30_1614,60.0043688543,FEMA4ImagesEEG,001,200204,
AFNE01.JPG,AFNE01.JPG,AFNE01.JPG,AFNE01.JPG,AFNE01.JPG,AFNE01.JPG,,,,,,,,,,,,,,,,,,,,,2,8,28,8,,,AMSA17.jpg,AMNE04.jpg,AMSA12.jpg,AMNE18.jpg,AMNE18.jpg,MN,1,num_4,16,num_4,0.700135448482,,,2017_May_30_1614,60.0043688543,FEMA4ImagesEEG,001,200204,
AFNE01.JPG,AFNE01.JPG,AFNE01.JPG,AFNE01.JPG,AFNE01.JPG,AFNE01.JPG,,,,,,,,,,,,,,,,,,,,,2,9,29,3,,,AMNE02.jpg,AMNE03.jpg,AMSA05.jpg,AMSA02.jpg,AMSA02.jpg,MS,2,num_4,32,num_6,0.516789611429,,,2017_May_30_1614,60.0043688543,FEMA4ImagesEEG,001,200204,
AFNE01.JPG,AFNE01.JPG,AFNE01.JPG,AFNE01.JPG,AFNE01.JPG,AFNE01.JPG,,,,,,,,,,,,,,,,,,,,,3,0,30,9,,,AMSA04.jpg,AMSA01.jpg,AMNE08.jpg,AMNE02.jpg,AMSA04.jpg,MS,2,num_8,16,num_8,0.28344491357,,,2017_May_30_1614,60.0043688543,FEMA4ImagesEEG,001,200204,
AFNE01.JPG,AFNE01.JPG,AFNE01.JPG,AFNE01.JPG,AFNE01.JPG,AFNE01.JPG,,,,,,,,,,,,,,,,,,,,,3,1,31,4,,,AMNE04.jpg,AMSA03.jpg,AMSA19.jpg,AMNE01.jpg,AMNE01.jpg,MN,1,num_4,16,num_4,0.450195025885,,,2017_May_30_1614,60.0043688543,FEMA4ImagesEEG,001,200204,
AFNE01.JPG,AFNE01.JPG,AFNE01.JPG,AFNE01.JPG,AFNE01.JPG,AFNE01.JPG,,,,,,,,,,,,,,,,,,,,,3,2,32,5,,,AMNE20.jpg,AMSA18.jpg,AMNE07.jpg,AMSA13.jpg,AMSA13.jpg,MS,2,num_4,32,num_6,0.300172141055,,,2017_May_30_1614,60.0043688543,FEMA4ImagesEEG,001,200204,
AFNE01.JPG,AFNE01.JPG,AFNE01.JPG,AFNE01.JPG,AFNE01.JPG,AFNE01.JPG,,,,,,,,,,,,,,,,,,,,,3,3,33,1,,,AMNE20.jpg,AMSA16.jpg,AMNE09.jpg,AMSA15.jpg,AMNE09.jpg,MN,1,num_2,16,num_2,0.600439541973,,,2017_May_30_1614,60.0043688543,FEMA4ImagesEEG,001,200204,
AFNE01.JPG,AFNE01.JPG,AFNE01.JPG,AFNE01.JPG,AFNE01.JPG,AFNE01.JPG,,,,,,,,,,,,,,,,,,,,,3,4,34,0,,,AMSA17.jpg,AMSA10.jpg,AMNE18.jpg,AMNE11.jpg,AMNE18.jpg,MN,1,num_2,32,num_4,0.533494708361,,,2017_May_30_1614,60.0043688543,FEMA4ImagesEEG,001,200204,
AFNE01.JPG,AFNE01.JPG,AFNE01.JPG,AFNE01.JPG,AFNE01.JPG,AFNE01.JPG,,,,,,,,,,,,,,,,,,,,,3,5,35,8,,,AMSA08.jpg,AMNE17.jpg,AMNE11.jpg,AMSA18.jpg,AMSA08.jpg,MS,2,num_8,16,num_8,0.416812736774,,,2017_May_30_1614,60.0043688543,FEMA4ImagesEEG,001,200204,
AFNE01.JPG,AFNE01.JPG,AFNE01.JPG,AFNE01.JPG,AFNE01.JPG,AFNE01.JPG,,,,,,,,,,,,,,,,,,,,,3,6,36,6,,,AMNE17.jpg,AMNE18.jpg,AMSA11.jpg,AMSA04.jpg,AMNE18.jpg,MN,1,num_6,32,num_8,0.250236144755,,,2017_May_30_1614,60.0043688543,FEMA4ImagesEEG,001,200204,
AFNE01.JPG,AFNE01.JPG,AFNE01.JPG,AFNE01.JPG,AFNE01.JPG,AFNE01.JPG,,,,,,,,,,,,,,,,,,,,,3,7,37,2,,,AMSA17.jpg,AMSA13.jpg,AMNE12.jpg,AMNE03.jpg,AMNE12.jpg,MN,1,num_2,32,num_6,0.383499407209,,,2017_May_30_1614,60.0043688543,FEMA4ImagesEEG,001,200204,
AFNE01.JPG,AFNE01.JPG,AFNE01.JPG,AFNE01.JPG,AFNE01.JPG,AFNE01.JPG,,,,,,,,,,,,,,,,,,,,,3,8,38,7,,,AMSA01.jpg,AMNE20.jpg,AMSA04.jpg,AMNE17.jpg,AMSA04.jpg,MS,2,num_2,16,num_2,0.566795529099,,,2017_May_30_1614,60.0043688543,FEMA4ImagesEEG,001,200204,
