IPosition2,IPosition3,IPosition1,IPosition6,IPosition4,IPosition5,TrialsM1.thisRepN,TrialsM1.thisTrialN,TrialsM1.thisN,TrialsM1.thisIndex,TrialsF1.thisRepN,TrialsF1.thisTrialN,TrialsF1.thisN,TrialsF1.thisIndex,TrialsM2.thisRepN,TrialsM2.thisTrialN,TrialsM2.thisN,TrialsM2.thisIndex,TrialsF2.thisRepN,TrialsF2.thisTrialN,TrialsF2.thisN,TrialsF2.thisIndex,TrialsM3.thisRepN,TrialsM3.thisTrialN,TrialsM3.thisN,TrialsM3.thisIndex,TrialsF3.thisRepN,TrialsF3.thisTrialN,TrialsF3.thisN,TrialsF3.thisIndex,InstrKey_resp.keys,InstrKey_resp.rt,Image0 _Position,Image1 _Position,Image2 _Position,Image3 _Position,Center_image,condition,code,correct_answer,accuracy,Key_Resp.keys,Key_Resp.rt,BreakKey_resp.keys,BreakKey_resp.rt,date,frameRate,expName,session,participant,
,,,,,,,,,,,,,,,,,,,,,,,,,,,,,,space,15.5826782486,,,,,,,,,,,,,,2017_May_30_1410,60.0069095514,MAFE4ImagesEEG,001,200279,
AMSA21.JPG,AMNE23.JPG,AMNE21.JPG,AMSA25.JPG,AMNE25.JPG,AMSA23.JPG,0,0,0,5,,,,,,,,,,,,,,,,,,,,,,,AMSA14.jpg,AMNE02.jpg,AMNE09.jpg,AMSA12.jpg,AMSA14.jpg,MS,2,num_8,32,num_4,2.88326735189,,,2017_May_30_1410,60.0069095514,MAFE4ImagesEEG,001,200279,
AMNE23.JPG,AMNE24.JPG,AMNE22.JPG,AMSA24.JPG,AMSA22.JPG,AMSA23.JPG,0,1,1,9,,,,,,,,,,,,,,,,,,,,,,,AMSA14.jpg,AMNE17.jpg,AMSA04.jpg,AMNE05.jpg,AMSA04.jpg,MS,2,num_2,32,num_6,1.80003791139,,,2017_May_30_1410,60.0069095514,MAFE4ImagesEEG,001,200279,
AMSA21.JPG,AMNE22.JPG,AMNE21.JPG,AMSA23.JPG,AMSA22.JPG,AMNE23.JPG,0,2,2,1,,,,,,,,,,,,,,,,,,,,,,,AMSA16.jpg,AMSA17.jpg,AMNE13.jpg,AMNE06.jpg,AMSA17.jpg,MS,2,num_6,16,num_6,1.78340626415,,,2017_May_30_1410,60.0069095514,MAFE4ImagesEEG,001,200279,
AFNE22.JPG,AFSA24.JPG,AFSA22.JPG,AFNE25.JPG,AFNE24.JPG,AFSA25.JPG,0,3,3,6,,,,,,,,,,,,,,,,,,,,,,,AMSA14.jpg,AMNE10.jpg,AMSA10.jpg,AMNE16.jpg,AMSA14.jpg,MS,2,num_8,16,num_8,0.966764930636,,,2017_May_30_1410,60.0069095514,MAFE4ImagesEEG,001,200279,
AFNE23.JPG,AFNE24.JPG,AFNE22.JPG,AFSA24.JPG,AFSA22.JPG,AFSA23.JPG,0,4,4,8,,,,,,,,,,,,,,,,,,,,,,,AMNE03.jpg,AMSA05.jpg,AMSA07.jpg,AMNE19.jpg,AMSA07.jpg,MS,2,num_2,32,num_4,1.51676042425,,,2017_May_30_1410,60.0069095514,MAFE4ImagesEEG,001,200279,
AFSA21.JPG,AFNE23.JPG,AFNE21.JPG,AFSA25.JPG,AFNE25.JPG,AFSA23.JPG,0,5,5,4,,,,,,,,,,,,,,,,,,,,,,,AMSA16.jpg,AMNE11.jpg,AMSA17.jpg,AMNE20.jpg,AMSA17.jpg,MS,2,num_2,32,num_4,1.06678446382,,,2017_May_30_1410,60.0069095514,MAFE4ImagesEEG,001,200279,
AFSA21.JPG,AFNE22.JPG,AFNE21.JPG,AFSA23.JPG,AFSA22.JPG,AFNE23.JPG,0,6,6,0,,,,,,,,,,,,,,,,,,,,,,,AMNE08.jpg,AMSA20.jpg,AMNE20.jpg,AMSA01.jpg,AMSA01.jpg,MS,2,num_4,16,num_4,0.833472480997,,,2017_May_30_1410,60.0069095514,MAFE4ImagesEEG,001,200279,
AFSA25.JPG,AFNE24.JPG,AFSA24.JPG,AFNE21.JPG,AFSA21.JPG,AFNE25.JPG,0,7,7,2,,,,,,,,,,,,,,,,,,,,,,,AMSA12.jpg,AMNE16.jpg,AMSA18.jpg,AMNE06.jpg,AMSA12.jpg,MS,2,num_8,16,num_8,2.41669406323,,,2017_May_30_1410,60.0069095514,MAFE4ImagesEEG,001,200279,
AMSA25.JPG,AMNE24.JPG,AMSA24.JPG,AMNE26.JPG,AMSA21.JPG,AMNE25.JPG,0,8,8,3,,,,,,,,,,,,,,,,,,,,,,,AMNE17.jpg,AMSA17.jpg,AMSA03.jpg,AMNE10.jpg,AMNE10.jpg,MN,1,num_4,32,num_8,1.41667930898,,,2017_May_30_1410,60.0069095514,MAFE4ImagesEEG,001,200279,
AMNE22.JPG,AMSA24.JPG,AMSA22.JPG,AMNE25.JPG,AMNE24.JPG,AMSA25.JPG,0,9,9,7,,,,,,,,,,,,,,,,,,,,,,,AMNE20.jpg,AMNE10.jpg,AMSA02.jpg,AMSA12.jpg,AMNE20.jpg,MN,1,num_8,16,num_8,1.33345884969,,,2017_May_30_1410,60.0069095514,MAFE4ImagesEEG,001,200279,
AMSA25.JPG,AMNE24.JPG,AMSA24.JPG,AMNE26.JPG,AMSA21.JPG,AMNE25.JPG,,,,,0,0,0,3,,,,,,,,,,,,,,,,,,,AFNE14.jpg,AFSA20.jpg,AFNE02.jpg,AFSA17.jpg,AFSA17.jpg,FS,4,num_4,16,num_4,1.35016298387,,,2017_May_30_1410,60.0069095514,MAFE4ImagesEEG,001,200279,
AFSA25.JPG,AFNE24.JPG,AFSA24.JPG,AFNE21.JPG,AFSA21.JPG,AFNE25.JPG,,,,,0,1,1,2,,,,,,,,,,,,,,,,,,,AFNE13.jpg,AFSA13.jpg,AFNE03.jpg,AFSA06.jpg,AFNE03.jpg,FN,3,num_2,32,num_6,1.20006857417,,,2017_May_30_1410,60.0069095514,MAFE4ImagesEEG,001,200279,
AMSA21.JPG,AMNE23.JPG,AMNE21.JPG,AMSA25.JPG,AMNE25.JPG,AMSA23.JPG,,,,,0,2,2,5,,,,,,,,,,,,,,,,,,,AFSA14.jpg,AFNE01.jpg,AFSA15.jpg,AFNE11.jpg,AFSA15.jpg,FS,4,num_2,16,num_2,1.85011342959,,,2017_May_30_1410,60.0069095514,MAFE4ImagesEEG,001,200279,
AFSA21.JPG,AFNE23.JPG,AFNE21.JPG,AFSA25.JPG,AFNE25.JPG,AFSA23.JPG,,,,,0,3,3,4,,,,,,,,,,,,,,,,,,,AFNE06.jpg,AFSA09.jpg,AFSA05.jpg,AFNE05.jpg,AFSA05.jpg,FS,4,num_2,16,num_2,1.31675503589,,,2017_May_30_1410,60.0069095514,MAFE4ImagesEEG,001,200279,
AMSA21.JPG,AMNE22.JPG,AMNE21.JPG,AMSA23.JPG,AMSA22.JPG,AMNE23.JPG,,,,,0,4,4,1,,,,,,,,,,,,,,,,,,,AFSA05.jpg,AFNE05.jpg,AFNE06.jpg,AFSA14.jpg,AFSA14.jpg,FS,4,num_4,16,num_4,1.28342695185,,,2017_May_30_1410,60.0069095514,MAFE4ImagesEEG,001,200279,
AFNE23.JPG,AFNE24.JPG,AFNE22.JPG,AFSA24.JPG,AFSA22.JPG,AFSA23.JPG,,,,,0,5,5,8,,,,,,,,,,,,,,,,,,,AFSA15.jpg,AFNE19.jpg,AFNE07.jpg,AFSA03.jpg,AFNE19.jpg,FN,3,num_6,32,num_4,0.983445971739,,,2017_May_30_1410,60.0069095514,MAFE4ImagesEEG,001,200279,
AFNE22.JPG,AFSA24.JPG,AFSA22.JPG,AFNE25.JPG,AFNE24.JPG,AFSA25.JPG,,,,,0,6,6,6,,,,,,,,,,,,,,,,,,,AFSA07.jpg,AFNE04.jpg,AFSA10.jpg,AFNE05.jpg,AFSA07.jpg,FS,4,num_8,32,num_2,1.63350622286,,,2017_May_30_1410,60.0069095514,MAFE4ImagesEEG,001,200279,
AMNE22.JPG,AMSA24.JPG,AMSA22.JPG,AMNE25.JPG,AMNE24.JPG,AMSA25.JPG,,,,,0,7,7,7,,,,,,,,,,,,,,,,,,,AFNE14.jpg,AFSA15.jpg,AFSA14.jpg,AFNE15.jpg,AFSA15.jpg,FS,4,num_6,32,num_4,1.00017159595,,,2017_May_30_1410,60.0069095514,MAFE4ImagesEEG,001,200279,
AFSA21.JPG,AFNE22.JPG,AFNE21.JPG,AFSA23.JPG,AFSA22.JPG,AFNE23.JPG,,,,,0,8,8,0,,,,,,,,,,,,,,,,,,,AFNE03.jpg,AFNE06.jpg,AFSA16.jpg,AFSA05.jpg,AFSA16.jpg,FS,4,num_2,32,num_8,1.13370556268,,,2017_May_30_1410,60.0069095514,MAFE4ImagesEEG,001,200279,
AMNE23.JPG,AMNE24.JPG,AMNE22.JPG,AMSA24.JPG,AMSA22.JPG,AMSA23.JPG,,,,,0,9,9,9,,,,,,,,,,,,,,,,,,,AFSA17.jpg,AFNE19.jpg,AFNE18.jpg,AFSA15.jpg,AFSA15.jpg,FS,4,num_4,16,num_4,1.06672448548,,,2017_May_30_1410,60.0069095514,MAFE4ImagesEEG,001,200279,
AMSA21.JPG,AMNE23.JPG,AMNE21.JPG,AMSA25.JPG,AMNE25.JPG,AMSA23.JPG,,,,,,,,,0,0,0,5,,,,,,,,,,,,,,,AMNE04.jpg,AMNE03.jpg,AMSA11.jpg,AMSA16.jpg,AMSA11.jpg,MS,2,num_2,16,num_2,1.98338438966,,,2017_May_30_1410,60.0069095514,MAFE4ImagesEEG,001,200279,
AMNE22.JPG,AMSA24.JPG,AMSA22.JPG,AMNE25.JPG,AMNE24.JPG,AMSA25.JPG,,,,,,,,,0,1,1,7,,,,,,,,,,,,,,,AMNE01.jpg,AMSA08.jpg,AMSA01.jpg,AMNE18.jpg,AMSA08.jpg,MS,2,num_6,16,num_6,1.3668222148,,,2017_May_30_1410,60.0069095514,MAFE4ImagesEEG,001,200279,
AFSA21.JPG,AFNE22.JPG,AFNE21.JPG,AFSA23.JPG,AFSA22.JPG,AFNE23.JPG,,,,,,,,,0,2,2,0,,,,,,,,,,,,,,,AMSA06.jpg,AMNE18.jpg,AMSA15.jpg,AMNE07.jpg,AMSA06.jpg,MS,2,num_8,32,num_4,1.11676728819,,,2017_May_30_1410,60.0069095514,MAFE4ImagesEEG,001,200279,
AFSA21.JPG,AFNE23.JPG,AFNE21.JPG,AFSA25.JPG,AFNE25.JPG,AFSA23.JPG,,,,,,,,,0,3,3,4,,,,,,,,,,,,,,,AMSA14.jpg,AMNE11.jpg,AMSA03.jpg,AMNE03.jpg,AMNE03.jpg,MN,1,num_4,16,num_4,0.916738485685,,,2017_May_30_1410,60.0069095514,MAFE4ImagesEEG,001,200279,
AMNE23.JPG,AMNE24.JPG,AMNE22.JPG,AMSA24.JPG,AMSA22.JPG,AMSA23.JPG,,,,,,,,,0,4,4,9,,,,,,,,,,,,,,,AMNE20.jpg,AMSA05.jpg,AMSA13.jpg,AMNE16.jpg,AMNE16.jpg,MN,1,num_4,32,num_6,0.900100744329,,,2017_May_30_1410,60.0069095514,MAFE4ImagesEEG,001,200279,
AFSA25.JPG,AFNE24.JPG,AFSA24.JPG,AFNE21.JPG,AFSA21.JPG,AFNE25.JPG,,,,,,,,,0,5,5,2,,,,,,,,,,,,,,,AMSA15.jpg,AMNE20.jpg,AMNE10.jpg,AMSA12.jpg,AMSA15.jpg,MS,2,num_8,32,num_4,1.28339968901,,,2017_May_30_1410,60.0069095514,MAFE4ImagesEEG,001,200279,
AMSA25.JPG,AMNE24.JPG,AMSA24.JPG,AMNE26.JPG,AMSA21.JPG,AMNE25.JPG,,,,,,,,,0,6,6,3,,,,,,,,,,,,,,,AMSA17.jpg,AMNE06.jpg,AMNE20.jpg,AMSA04.jpg,AMNE06.jpg,MN,1,num_6,16,num_6,1.31626302074,,,2017_May_30_1410,60.0069095514,MAFE4ImagesEEG,001,200279,
AFNE22.JPG,AFSA24.JPG,AFSA22.JPG,AFNE25.JPG,AFNE24.JPG,AFSA25.JPG,,,,,,,,,0,7,7,6,,,,,,,,,,,,,,,AMNE05.jpg,AMNE18.jpg,AMSA05.jpg,AMSA03.jpg,AMSA03.jpg,MS,2,num_4,16,num_4,1.30023917556,,,2017_May_30_1410,60.0069095514,MAFE4ImagesEEG,001,200279,
AMSA21.JPG,AMNE22.JPG,AMNE21.JPG,AMSA23.JPG,AMSA22.JPG,AMNE23.JPG,,,,,,,,,0,8,8,1,,,,,,,,,,,,,,,AMSA19.jpg,AMSA06.jpg,AMNE10.jpg,AMNE14.jpg,AMSA06.jpg,MS,2,num_6,32,num_2,1.55008401768,,,2017_May_30_1410,60.0069095514,MAFE4ImagesEEG,001,200279,
AFNE23.JPG,AFNE24.JPG,AFNE22.JPG,AFSA24.JPG,AFSA22.JPG,AFSA23.JPG,,,,,,,,,0,9,9,8,,,,,,,,,,,,,,,AMNE01.jpg,AMSA12.jpg,AMNE04.jpg,AMSA17.jpg,AMSA17.jpg,MS,2,num_4,32,num_6,0.683750770986,,,2017_May_30_1410,60.0069095514,MAFE4ImagesEEG,001,200279,
AFSA21.JPG,AFNE22.JPG,AFNE21.JPG,AFSA23.JPG,AFSA22.JPG,AFNE23.JPG,,,,,,,,,,,,,0,0,0,0,,,,,,,,,,,AFSA04.jpg,AFNE11.jpg,AFSA11.jpg,AFNE13.jpg,AFNE11.jpg,FN,3,num_6,32,num_2,1.43345913826,,,2017_May_30_1410,60.0069095514,MAFE4ImagesEEG,001,200279,
AFSA21.JPG,AFNE23.JPG,AFNE21.JPG,AFSA25.JPG,AFNE25.JPG,AFSA23.JPG,,,,,,,,,,,,,0,1,1,4,,,,,,,,,,,AFNE15.jpg,AFNE11.jpg,AFSA20.jpg,AFSA08.jpg,AFSA20.jpg,FS,4,num_2,32,num_8,0.966783212731,,,2017_May_30_1410,60.0069095514,MAFE4ImagesEEG,001,200279,
AMSA21.JPG,AMNE22.JPG,AMNE21.JPG,AMSA23.JPG,AMSA22.JPG,AMNE23.JPG,,,,,,,,,,,,,0,2,2,1,,,,,,,,,,,AFSA10.jpg,AFNE12.jpg,AFSA18.jpg,AFNE15.jpg,AFSA18.jpg,FS,4,num_2,32,num_6,0.500139682321,,,2017_May_30_1410,60.0069095514,MAFE4ImagesEEG,001,200279,
AMSA21.JPG,AMNE23.JPG,AMNE21.JPG,AMSA25.JPG,AMNE25.JPG,AMSA23.JPG,,,,,,,,,,,,,0,3,3,5,,,,,,,,,,,AFSA12.jpg,AFNE14.jpg,AFSA07.jpg,AFNE17.jpg,AFNE17.jpg,FN,3,num_4,32,num_6,0.483363701962,,,2017_May_30_1410,60.0069095514,MAFE4ImagesEEG,001,200279,
AMSA25.JPG,AMNE24.JPG,AMSA24.JPG,AMNE26.JPG,AMSA21.JPG,AMNE25.JPG,,,,,,,,,,,,,0,4,4,3,,,,,,,,,,,AFNE07.jpg,AFNE12.jpg,AFSA15.jpg,AFSA08.jpg,AFNE07.jpg,FN,3,num_8,16,num_8,0.700155975996,,,2017_May_30_1410,60.0069095514,MAFE4ImagesEEG,001,200279,
AFNE23.JPG,AFNE24.JPG,AFNE22.JPG,AFSA24.JPG,AFSA22.JPG,AFSA23.JPG,,,,,,,,,,,,,0,5,5,8,,,,,,,,,,,AFNE11.jpg,AFSA03.jpg,AFNE16.jpg,AFSA17.jpg,AFSA03.jpg,FS,4,num_6,32,num_4,0.700126788579,,,2017_May_30_1410,60.0069095514,MAFE4ImagesEEG,001,200279,
AMNE23.JPG,AMNE24.JPG,AMNE22.JPG,AMSA24.JPG,AMSA22.JPG,AMSA23.JPG,,,,,,,,,,,,,0,6,6,9,,,,,,,,,,,AFNE16.jpg,AFSA19.jpg,AFNE18.jpg,AFSA02.jpg,AFNE16.jpg,FN,3,num_8,32,num_6,0.950139056658,,,2017_May_30_1410,60.0069095514,MAFE4ImagesEEG,001,200279,
AMNE22.JPG,AMSA24.JPG,AMSA22.JPG,AMNE25.JPG,AMNE24.JPG,AMSA25.JPG,,,,,,,,,,,,,0,7,7,7,,,,,,,,,,,AFNE02.jpg,AFSA06.jpg,AFNE09.jpg,AFSA19.jpg,AFNE09.jpg,FN,3,num_2,16,num_2,1.46646359563,,,2017_May_30_1410,60.0069095514,MAFE4ImagesEEG,001,200279,
AFNE22.JPG,AFSA24.JPG,AFSA22.JPG,AFNE25.JPG,AFNE24.JPG,AFSA25.JPG,,,,,,,,,,,,,0,8,8,6,,,,,,,,,,,AFSA11.jpg,AFSA04.jpg,AFNE09.jpg,AFNE06.jpg,AFSA11.jpg,FS,4,num_8,16,num_8,0.98337540892,,,2017_May_30_1410,60.0069095514,MAFE4ImagesEEG,001,200279,
AFSA25.JPG,AFNE24.JPG,AFSA24.JPG,AFNE21.JPG,AFSA21.JPG,AFNE25.JPG,,,,,,,,,,,,,0,9,9,2,,,,,,,,,,,AFNE13.jpg,AFSA01.jpg,AFSA08.jpg,AFNE02.jpg,AFNE13.jpg,FN,3,num_8,32,num_4,0.966769741848,,,2017_May_30_1410,60.0069095514,MAFE4ImagesEEG,001,200279,
AMSA21.JPG,AMNE23.JPG,AMNE21.JPG,AMSA25.JPG,AMNE25.JPG,AMSA23.JPG,,,,,,,,,,,,,,,,,0,0,0,5,,,,,,,AMNE04.jpg,AMSA06.jpg,AMNE02.jpg,AMSA03.jpg,AMSA06.jpg,MS,2,num_6,16,num_6,0.96675755363,,,2017_May_30_1410,60.0069095514,MAFE4ImagesEEG,001,200279,
AFSA21.JPG,AFNE23.JPG,AFNE21.JPG,AFSA25.JPG,AFNE25.JPG,AFSA23.JPG,,,,,,,,,,,,,,,,,0,1,1,4,,,,,,,AMNE06.jpg,AMNE03.jpg,AMSA04.jpg,AMSA08.jpg,AMSA08.jpg,MS,2,num_4,32,num_2,1.30008489988,,,2017_May_30_1410,60.0069095514,MAFE4ImagesEEG,001,200279,
AMSA25.JPG,AMNE24.JPG,AMSA24.JPG,AMNE26.JPG,AMSA21.JPG,AMNE25.JPG,,,,,,,,,,,,,,,,,0,2,2,3,,,,,,,AMSA08.jpg,AMSA13.jpg,AMNE06.jpg,AMNE08.jpg,AMSA13.jpg,MS,2,num_6,32,num_4,1.11675413791,,,2017_May_30_1410,60.0069095514,MAFE4ImagesEEG,001,200279,
AFNE22.JPG,AFSA24.JPG,AFSA22.JPG,AFNE25.JPG,AFNE24.JPG,AFSA25.JPG,,,,,,,,,,,,,,,,,0,3,3,6,,,,,,,AMNE03.jpg,AMSA09.jpg,AMNE20.jpg,AMSA12.jpg,AMSA09.jpg,MS,2,num_6,16,num_6,0.68349161325,,,2017_May_30_1410,60.0069095514,MAFE4ImagesEEG,001,200279,
AMNE23.JPG,AMNE24.JPG,AMNE22.JPG,AMSA24.JPG,AMSA22.JPG,AMSA23.JPG,,,,,,,,,,,,,,,,,0,4,4,9,,,,,,,AMNE12.jpg,AMNE10.jpg,AMSA06.jpg,AMSA13.jpg,AMNE10.jpg,MN,1,num_6,32,num_2,1.01678848919,,,2017_May_30_1410,60.0069095514,MAFE4ImagesEEG,001,200279,
AMNE22.JPG,AMSA24.JPG,AMSA22.JPG,AMNE25.JPG,AMNE24.JPG,AMSA25.JPG,,,,,,,,,,,,,,,,,0,5,5,7,,,,,,,AMSA03.jpg,AMNE01.jpg,AMSA18.jpg,AMNE05.jpg,AMNE01.jpg,MN,1,num_6,32,num_4,0.733467702055,,,2017_May_30_1410,60.0069095514,MAFE4ImagesEEG,001,200279,
AFNE23.JPG,AFNE24.JPG,AFNE22.JPG,AFSA24.JPG,AFSA22.JPG,AFSA23.JPG,,,,,,,,,,,,,,,,,0,6,6,8,,,,,,,AMNE05.jpg,AMSA11.jpg,AMSA20.jpg,AMNE10.jpg,AMSA11.jpg,MS,2,num_6,16,num_6,1.08350271056,,,2017_May_30_1410,60.0069095514,MAFE4ImagesEEG,001,200279,
AMSA21.JPG,AMNE22.JPG,AMNE21.JPG,AMSA23.JPG,AMSA22.JPG,AMNE23.JPG,,,,,,,,,,,,,,,,,0,7,7,1,,,,,,,AMNE15.jpg,AMNE07.jpg,AMSA03.jpg,AMSA13.jpg,AMNE07.jpg,MN,1,num_6,32,num_8,1.06690025073,,,2017_May_30_1410,60.0069095514,MAFE4ImagesEEG,001,200279,
AFSA25.JPG,AFNE24.JPG,AFSA24.JPG,AFNE21.JPG,AFSA21.JPG,AFNE25.JPG,,,,,,,,,,,,,,,,,0,8,8,2,,,,,,,AMNE11.jpg,AMSA02.jpg,AMNE04.jpg,AMSA06.jpg,AMSA06.jpg,MS,2,num_4,32,num_2,0.566947239218,,,2017_May_30_1410,60.0069095514,MAFE4ImagesEEG,001,200279,
AFSA21.JPG,AFNE22.JPG,AFNE21.JPG,AFSA23.JPG,AFSA22.JPG,AFNE23.JPG,,,,,,,,,,,,,,,,,0,9,9,0,,,,,,,AMNE20.jpg,AMSA16.jpg,AMNE03.jpg,AMSA13.jpg,AMSA16.jpg,MS,2,num_6,16,num_6,0.75010383944,,,2017_May_30_1410,60.0069095514,MAFE4ImagesEEG,001,200279,
AFSA21.JPG,AFNE22.JPG,AFNE21.JPG,AFSA23.JPG,AFSA22.JPG,AFNE23.JPG,,,,,,,,,,,,,,,,,,,,,0,0,0,0,,,AFSA01.jpg,AFSA17.jpg,AFNE19.jpg,AFNE20.jpg,AFNE20.jpg,FN,3,num_4,16,num_4,0.900118064368,,,2017_May_30_1410,60.0069095514,MAFE4ImagesEEG,001,200279,
AMNE23.JPG,AMNE24.JPG,AMNE22.JPG,AMSA24.JPG,AMSA22.JPG,AMSA23.JPG,,,,,,,,,,,,,,,,,,,,,0,1,1,9,,,AFNE08.jpg,AFSA06.jpg,AFNE18.jpg,AFSA18.jpg,AFSA06.jpg,FS,4,num_6,32,num_8,0.950110511156,,,2017_May_30_1410,60.0069095514,MAFE4ImagesEEG,001,200279,
AFNE22.JPG,AFSA24.JPG,AFSA22.JPG,AFNE25.JPG,AFNE24.JPG,AFSA25.JPG,,,,,,,,,,,,,,,,,,,,,0,2,2,6,,,AFSA03.jpg,AFNE04.jpg,AFNE01.jpg,AFSA13.jpg,AFNE04.jpg,FN,3,num_6,16,num_6,0.983448858373,,,2017_May_30_1410,60.0069095514,MAFE4ImagesEEG,001,200279,
AMSA21.JPG,AMNE22.JPG,AMNE21.JPG,AMSA23.JPG,AMSA22.JPG,AMNE23.JPG,,,,,,,,,,,,,,,,,,,,,0,3,3,1,,,AFNE09.jpg,AFSA11.jpg,AFSA07.jpg,AFNE07.jpg,AFSA07.jpg,FS,4,num_2,16,num_2,1.1834317951,,,2017_May_30_1410,60.0069095514,MAFE4ImagesEEG,001,200279,
AMSA21.JPG,AMNE23.JPG,AMNE21.JPG,AMSA25.JPG,AMNE25.JPG,AMSA23.JPG,,,,,,,,,,,,,,,,,,,,,0,4,4,5,,,AFSA11.jpg,AFSA07.jpg,AFNE04.jpg,AFNE09.jpg,AFNE09.jpg,FN,3,num_4,32,num_6,0.516699804459,,,2017_May_30_1410,60.0069095514,MAFE4ImagesEEG,001,200279,
AMNE22.JPG,AMSA24.JPG,AMSA22.JPG,AMNE25.JPG,AMNE24.JPG,AMSA25.JPG,,,,,,,,,,,,,,,,,,,,,0,5,5,7,,,AFNE13.jpg,AFNE11.jpg,AFSA18.jpg,AFSA11.jpg,AFSA18.jpg,FS,4,num_2,32,num_4,0.75024945545,,,2017_May_30_1410,60.0069095514,MAFE4ImagesEEG,001,200279,
AFNE23.JPG,AFNE24.JPG,AFNE22.JPG,AFSA24.JPG,AFSA22.JPG,AFSA23.JPG,,,,,,,,,,,,,,,,,,,,,0,6,6,8,,,AFNE11.jpg,AFNE06.jpg,AFSA06.jpg,AFSA05.jpg,AFNE06.jpg,FN,3,num_6,32,num_2,0.483498733491,,,2017_May_30_1410,60.0069095514,MAFE4ImagesEEG,001,200279,
AFSA25.JPG,AFNE24.JPG,AFSA24.JPG,AFNE21.JPG,AFSA21.JPG,AFNE25.JPG,,,,,,,,,,,,,,,,,,,,,0,7,7,2,,,AFSA05.jpg,AFNE09.jpg,AFNE16.jpg,AFSA03.jpg,AFNE16.jpg,FN,3,num_2,32,num_8,0.533450125251,,,2017_May_30_1410,60.0069095514,MAFE4ImagesEEG,001,200279,
AMSA25.JPG,AMNE24.JPG,AMSA24.JPG,AMNE26.JPG,AMSA21.JPG,AMNE25.JPG,,,,,,,,,,,,,,,,,,,,,0,8,8,3,,,AFSA20.jpg,AFNE08.jpg,AFNE07.jpg,AFSA11.jpg,AFNE07.jpg,FN,3,num_2,16,num_2,0.96680085361,,,2017_May_30_1410,60.0069095514,MAFE4ImagesEEG,001,200279,
AFSA21.JPG,AFNE23.JPG,AFNE21.JPG,AFSA25.JPG,AFNE25.JPG,AFSA23.JPG,,,,,,,,,,,,,,,,,,,,,0,9,9,4,,,AFSA08.jpg,AFSA05.jpg,AFNE18.jpg,AFNE02.jpg,AFSA05.jpg,FS,4,num_6,16,num_6,0.550112884492,,,2017_May_30_1410,60.0069095514,MAFE4ImagesEEG,001,200279,
,,,,,,,,,,,,,,,,,,,,,,,,,,,,,,,,,,,,,,,,,,,space,28.3979343066,2017_May_30_1410,60.0069095514,MAFE4ImagesEEG,001,200279,
AFNE01.JPG,AFNE01.JPG,AFNE01.JPG,AFNE01.JPG,AFNE01.JPG,AFNE01.JPG,0,0,0,4,,,,,,,,,,,,,,,,,,,,,,,AMSA01.jpg,AMNE16.jpg,AMSA12.jpg,AMNE18.jpg,AMSA01.jpg,MS,2,num_8,32,num_4,1.0167464721,,,2017_May_30_1410,60.0069095514,MAFE4ImagesEEG,001,200279,
AFNE01.JPG,AFNE01.JPG,AFNE01.JPG,AFNE01.JPG,AFNE01.JPG,AFNE01.JPG,0,1,1,8,,,,,,,,,,,,,,,,,,,,,,,AMNE09.jpg,AMSA19.jpg,AMSA14.jpg,AMNE05.jpg,AMSA14.jpg,MS,2,num_2,32,num_6,0.90019857022,,,2017_May_30_1410,60.0069095514,MAFE4ImagesEEG,001,200279,
AFNE01.JPG,AFNE01.JPG,AFNE01.JPG,AFNE01.JPG,AFNE01.JPG,AFNE01.JPG,0,2,2,5,,,,,,,,,,,,,,,,,,,,,,,AMSA04.jpg,AMSA19.jpg,AMNE14.jpg,AMNE04.jpg,AMNE14.jpg,MN,1,num_2,16,num_2,1.06677901116,,,2017_May_30_1410,60.0069095514,MAFE4ImagesEEG,001,200279,
AFNE01.JPG,AFNE01.JPG,AFNE01.JPG,AFNE01.JPG,AFNE01.JPG,AFNE01.JPG,0,3,3,0,,,,,,,,,,,,,,,,,,,,,,,AMNE18.jpg,AMSA18.jpg,AMNE08.jpg,AMSA03.jpg,AMSA03.jpg,MS,2,num_4,16,num_4,0.750130140223,,,2017_May_30_1410,60.0069095514,MAFE4ImagesEEG,001,200279,
AFNE01.JPG,AFNE01.JPG,AFNE01.JPG,AFNE01.JPG,AFNE01.JPG,AFNE01.JPG,0,4,4,6,,,,,,,,,,,,,,,,,,,,,,,AMSA19.jpg,AMSA15.jpg,AMNE15.jpg,AMNE01.jpg,AMNE01.jpg,MN,1,num_4,32,num_6,0.833460934227,,,2017_May_30_1410,60.0069095514,MAFE4ImagesEEG,001,200279,
AFNE01.JPG,AFNE01.JPG,AFNE01.JPG,AFNE01.JPG,AFNE01.JPG,AFNE01.JPG,0,5,5,9,,,,,,,,,,,,,,,,,,,,,,,AMNE01.jpg,AMSA20.jpg,AMNE14.jpg,AMSA06.jpg,AMSA20.jpg,MS,2,num_6,16,num_6,1.01677662157,,,2017_May_30_1410,60.0069095514,MAFE4ImagesEEG,001,200279,
AFNE01.JPG,AFNE01.JPG,AFNE01.JPG,AFNE01.JPG,AFNE01.JPG,AFNE01.JPG,0,6,6,7,,,,,,,,,,,,,,,,,,,,,,,AMSA05.jpg,AMNE01.jpg,AMSA17.jpg,AMNE10.jpg,AMNE10.jpg,MN,1,num_4,16,num_4,0.666831740877,,,2017_May_30_1410,60.0069095514,MAFE4ImagesEEG,001,200279,
AFNE01.JPG,AFNE01.JPG,AFNE01.JPG,AFNE01.JPG,AFNE01.JPG,AFNE01.JPG,0,7,7,2,,,,,,,,,,,,,,,,,,,,,,,AMNE07.jpg,AMSA04.jpg,AMNE15.jpg,AMSA17.jpg,AMNE07.jpg,MN,1,num_8,32,num_2,0.883528434206,,,2017_May_30_1410,60.0069095514,MAFE4ImagesEEG,001,200279,
AFNE01.JPG,AFNE01.JPG,AFNE01.JPG,AFNE01.JPG,AFNE01.JPG,AFNE01.JPG,0,8,8,1,,,,,,,,,,,,,,,,,,,,,,,AMSA15.jpg,AMNE02.jpg,AMNE16.jpg,AMSA08.jpg,AMSA08.jpg,MS,2,num_4,16,num_4,1.03342398512,,,2017_May_30_1410,60.0069095514,MAFE4ImagesEEG,001,200279,
AFNE01.JPG,AFNE01.JPG,AFNE01.JPG,AFNE01.JPG,AFNE01.JPG,AFNE01.JPG,0,9,9,3,,,,,,,,,,,,,,,,,,,,,,,AMNE11.jpg,AMSA11.jpg,AMSA05.jpg,AMNE17.jpg,AMNE17.jpg,MN,1,num_4,32,num_2,0.966804381693,,,2017_May_30_1410,60.0069095514,MAFE4ImagesEEG,001,200279,
AFNE01.JPG,AFNE01.JPG,AFNE01.JPG,AFNE01.JPG,AFNE01.JPG,AFNE01.JPG,1,0,10,9,,,,,,,,,,,,,,,,,,,,,,,AMSA07.jpg,AMNE20.jpg,AMSA13.jpg,AMNE16.jpg,AMSA07.jpg,MS,2,num_8,16,num_8,0.850093543762,,,2017_May_30_1410,60.0069095514,MAFE4ImagesEEG,001,200279,
AFNE01.JPG,AFNE01.JPG,AFNE01.JPG,AFNE01.JPG,AFNE01.JPG,AFNE01.JPG,1,1,11,5,,,,,,,,,,,,,,,,,,,,,,,AMSA16.jpg,AMNE13.jpg,AMNE16.jpg,AMSA19.jpg,AMSA16.jpg,MS,2,num_8,32,num_6,1.00007377006,,,2017_May_30_1410,60.0069095514,MAFE4ImagesEEG,001,200279,
AFNE01.JPG,AFNE01.JPG,AFNE01.JPG,AFNE01.JPG,AFNE01.JPG,AFNE01.JPG,1,2,12,0,,,,,,,,,,,,,,,,,,,,,,,AMNE04.jpg,AMSA07.jpg,AMSA17.jpg,AMNE17.jpg,AMSA17.jpg,MS,2,num_2,32,num_8,1.1001253773,,,2017_May_30_1410,60.0069095514,MAFE4ImagesEEG,001,200279,
AFNE01.JPG,AFNE01.JPG,AFNE01.JPG,AFNE01.JPG,AFNE01.JPG,AFNE01.JPG,1,3,13,4,,,,,,,,,,,,,,,,,,,,,,,AMNE11.jpg,AMSA02.jpg,AMSA15.jpg,AMNE08.jpg,AMSA02.jpg,MS,2,num_6,16,num_6,0.733599526109,,,2017_May_30_1410,60.0069095514,MAFE4ImagesEEG,001,200279,
AFNE01.JPG,AFNE01.JPG,AFNE01.JPG,AFNE01.JPG,AFNE01.JPG,AFNE01.JPG,1,4,14,8,,,,,,,,,,,,,,,,,,,,,,,AMSA20.jpg,AMNE12.jpg,AMSA15.jpg,AMNE08.jpg,AMSA15.jpg,MS,2,num_2,32,num_8,1.03328125598,,,2017_May_30_1410,60.0069095514,MAFE4ImagesEEG,001,200279,
AFNE01.JPG,AFNE01.JPG,AFNE01.JPG,AFNE01.JPG,AFNE01.JPG,AFNE01.JPG,1,5,15,6,,,,,,,,,,,,,,,,,,,,,,,AMSA03.jpg,AMNE04.jpg,AMSA01.jpg,AMNE10.jpg,AMNE04.jpg,MN,1,num_6,32,num_8,0.866743473103,,,2017_May_30_1410,60.0069095514,MAFE4ImagesEEG,001,200279,
AFNE01.JPG,AFNE01.JPG,AFNE01.JPG,AFNE01.JPG,AFNE01.JPG,AFNE01.JPG,1,6,16,7,,,,,,,,,,,,,,,,,,,,,,,AMSA08.jpg,AMNE15.jpg,AMNE06.jpg,AMSA04.jpg,AMNE15.jpg,MN,1,num_6,16,num_6,1.10006026691,,,2017_May_30_1410,60.0069095514,MAFE4ImagesEEG,001,200279,
AFNE01.JPG,AFNE01.JPG,AFNE01.JPG,AFNE01.JPG,AFNE01.JPG,AFNE01.JPG,1,7,17,2,,,,,,,,,,,,,,,,,,,,,,,AMNE02.jpg,AMSA07.jpg,AMNE04.jpg,AMSA11.jpg,AMNE04.jpg,MN,1,num_2,16,num_2,2.28331629676,,,2017_May_30_1410,60.0069095514,MAFE4ImagesEEG,001,200279,
AFNE01.JPG,AFNE01.JPG,AFNE01.JPG,AFNE01.JPG,AFNE01.JPG,AFNE01.JPG,1,8,18,3,,,,,,,,,,,,,,,,,,,,,,,AMSA07.jpg,AMNE11.jpg,AMNE03.jpg,AMSA03.jpg,AMSA07.jpg,MS,2,num_8,32,num_4,0.683439973975,,,2017_May_30_1410,60.0069095514,MAFE4ImagesEEG,001,200279,
AFNE01.JPG,AFNE01.JPG,AFNE01.JPG,AFNE01.JPG,AFNE01.JPG,AFNE01.JPG,1,9,19,1,,,,,,,,,,,,,,,,,,,,,,,AMSA14.jpg,AMSA08.jpg,AMNE19.jpg,AMNE08.jpg,AMSA14.jpg,MS,2,num_8,32,num_4,2.64998680167,,,2017_May_30_1410,60.0069095514,MAFE4ImagesEEG,001,200279,
AFNE01.JPG,AFNE01.JPG,AFNE01.JPG,AFNE01.JPG,AFNE01.JPG,AFNE01.JPG,2,0,20,9,,,,,,,,,,,,,,,,,,,,,,,AMNE04.jpg,AMSA14.jpg,AMNE10.jpg,AMSA07.jpg,AMSA07.jpg,MS,2,num_4,16,num_4,0.700308647938,,,2017_May_30_1410,60.0069095514,MAFE4ImagesEEG,001,200279,
AFNE01.JPG,AFNE01.JPG,AFNE01.JPG,AFNE01.JPG,AFNE01.JPG,AFNE01.JPG,2,1,21,6,,,,,,,,,,,,,,,,,,,,,,,AMSA15.jpg,AMNE09.jpg,AMNE03.jpg,AMSA02.jpg,AMNE03.jpg,MN,1,num_2,32,num_8,0.916776012164,,,2017_May_30_1410,60.0069095514,MAFE4ImagesEEG,001,200279,
AFNE01.JPG,AFNE01.JPG,AFNE01.JPG,AFNE01.JPG,AFNE01.JPG,AFNE01.JPG,2,2,22,8,,,,,,,,,,,,,,,,,,,,,,,AMSA14.jpg,AMNE08.jpg,AMSA03.jpg,AMNE03.jpg,AMNE03.jpg,MN,1,num_4,16,num_4,0.866790942615,,,2017_May_30_1410,60.0069095514,MAFE4ImagesEEG,001,200279,
AFNE01.JPG,AFNE01.JPG,AFNE01.JPG,AFNE01.JPG,AFNE01.JPG,AFNE01.JPG,2,3,23,3,,,,,,,,,,,,,,,,,,,,,,,AMNE11.jpg,AMNE04.jpg,AMSA03.jpg,AMSA15.jpg,AMNE04.jpg,MN,1,num_6,16,num_6,2.21654915297,,,2017_May_30_1410,60.0069095514,MAFE4ImagesEEG,001,200279,
AFNE01.JPG,AFNE01.JPG,AFNE01.JPG,AFNE01.JPG,AFNE01.JPG,AFNE01.JPG,2,4,24,0,,,,,,,,,,,,,,,,,,,,,,,AMSA06.jpg,AMSA16.jpg,AMNE20.jpg,AMNE14.jpg,AMNE14.jpg,MN,1,num_4,32,num_8,0.816876115277,,,2017_May_30_1410,60.0069095514,MAFE4ImagesEEG,001,200279,
AFNE01.JPG,AFNE01.JPG,AFNE01.JPG,AFNE01.JPG,AFNE01.JPG,AFNE01.JPG,2,5,25,1,,,,,,,,,,,,,,,,,,,,,,,AMSA04.jpg,AMNE02.jpg,AMSA20.jpg,AMNE17.jpg,AMNE17.jpg,MN,1,num_4,32,num_2,2.01673235954,,,2017_May_30_1410,60.0069095514,MAFE4ImagesEEG,001,200279,
AFNE01.JPG,AFNE01.JPG,AFNE01.JPG,AFNE01.JPG,AFNE01.JPG,AFNE01.JPG,2,6,26,2,,,,,,,,,,,,,,,,,,,,,,,AMSA12.jpg,AMNE07.jpg,AMNE04.jpg,AMSA04.jpg,AMNE04.jpg,MN,1,num_2,32,num_4,0.766755372752,,,2017_May_30_1410,60.0069095514,MAFE4ImagesEEG,001,200279,
AFNE01.JPG,AFNE01.JPG,AFNE01.JPG,AFNE01.JPG,AFNE01.JPG,AFNE01.JPG,2,7,27,5,,,,,,,,,,,,,,,,,,,,,,,AMNE12.jpg,AMSA09.jpg,AMSA12.jpg,AMNE19.jpg,AMSA12.jpg,MS,2,num_2,32,num_8,1.2334659379,,,2017_May_30_1410,60.0069095514,MAFE4ImagesEEG,001,200279,
AFNE01.JPG,AFNE01.JPG,AFNE01.JPG,AFNE01.JPG,AFNE01.JPG,AFNE01.JPG,2,8,28,7,,,,,,,,,,,,,,,,,,,,,,,AMSA18.jpg,AMSA07.jpg,AMNE01.jpg,AMNE08.jpg,AMSA07.jpg,MS,2,num_6,32,num_8,1.03350673616,,,2017_May_30_1410,60.0069095514,MAFE4ImagesEEG,001,200279,
AFNE01.JPG,AFNE01.JPG,AFNE01.JPG,AFNE01.JPG,AFNE01.JPG,AFNE01.JPG,2,9,29,4,,,,,,,,,,,,,,,,,,,,,,,AMNE13.jpg,AMSA15.jpg,AMSA19.jpg,AMNE11.jpg,AMSA19.jpg,MS,2,num_2,32,num_8,1.3669947728,,,2017_May_30_1410,60.0069095514,MAFE4ImagesEEG,001,200279,
AFNE01.JPG,AFNE01.JPG,AFNE01.JPG,AFNE01.JPG,AFNE01.JPG,AFNE01.JPG,3,0,30,1,,,,,,,,,,,,,,,,,,,,,,,AMNE05.jpg,AMSA15.jpg,AMNE14.jpg,AMSA14.jpg,AMNE14.jpg,MN,1,num_2,32,num_4,0.58345828834,,,2017_May_30_1410,60.0069095514,MAFE4ImagesEEG,001,200279,
AFNE01.JPG,AFNE01.JPG,AFNE01.JPG,AFNE01.JPG,AFNE01.JPG,AFNE01.JPG,3,1,31,8,,,,,,,,,,,,,,,,,,,,,,,AMNE16.jpg,AMSA05.jpg,AMSA13.jpg,AMNE15.jpg,AMSA05.jpg,MS,2,num_6,32,num_2,1.45009014383,,,2017_May_30_1410,60.0069095514,MAFE4ImagesEEG,001,200279,
AFNE01.JPG,AFNE01.JPG,AFNE01.JPG,AFNE01.JPG,AFNE01.JPG,AFNE01.JPG,3,2,32,4,,,,,,,,,,,,,,,,,,,,,,,AMSA09.jpg,AMSA02.jpg,AMNE19.jpg,AMNE11.jpg,AMSA09.jpg,MS,2,num_8,16,num_8,0.966854416998,,,2017_May_30_1410,60.0069095514,MAFE4ImagesEEG,001,200279,
AFNE01.JPG,AFNE01.JPG,AFNE01.JPG,AFNE01.JPG,AFNE01.JPG,AFNE01.JPG,3,3,33,5,,,,,,,,,,,,,,,,,,,,,,,AMNE01.jpg,AMNE06.jpg,AMSA01.jpg,AMSA17.jpg,AMSA01.jpg,MS,2,num_2,32,num_8,0.883492511231,,,2017_May_30_1410,60.0069095514,MAFE4ImagesEEG,001,200279,
AFNE01.JPG,AFNE01.JPG,AFNE01.JPG,AFNE01.JPG,AFNE01.JPG,AFNE01.JPG,3,4,34,2,,,,,,,,,,,,,,,,,,,,,,,AMSA17.jpg,AMNE12.jpg,AMNE18.jpg,AMSA14.jpg,AMNE18.jpg,MN,1,num_2,16,num_2,1.28342470666,,,2017_May_30_1410,60.0069095514,MAFE4ImagesEEG,001,200279,
AFNE01.JPG,AFNE01.JPG,AFNE01.JPG,AFNE01.JPG,AFNE01.JPG,AFNE01.JPG,3,5,35,3,,,,,,,,,,,,,,,,,,,,,,,AMNE12.jpg,AMSA01.jpg,AMSA10.jpg,AMNE05.jpg,AMNE05.jpg,MN,1,num_4,32,num_8,1.10011062329,,,2017_May_30_1410,60.0069095514,MAFE4ImagesEEG,001,200279,
AFNE01.JPG,AFNE01.JPG,AFNE01.JPG,AFNE01.JPG,AFNE01.JPG,AFNE01.JPG,3,6,36,6,,,,,,,,,,,,,,,,,,,,,,,AMSA20.jpg,AMNE04.jpg,AMNE05.jpg,AMSA07.jpg,AMNE04.jpg,MN,1,num_6,32,num_4,1.30013750121,,,2017_May_30_1410,60.0069095514,MAFE4ImagesEEG,001,200279,
AFNE01.JPG,AFNE01.JPG,AFNE01.JPG,AFNE01.JPG,AFNE01.JPG,AFNE01.JPG,3,7,37,9,,,,,,,,,,,,,,,,,,,,,,,AMNE20.jpg,AMNE13.jpg,AMSA15.jpg,AMSA09.jpg,AMSA09.jpg,MS,2,num_4,32,num_8,1.06679472746,,,2017_May_30_1410,60.0069095514,MAFE4ImagesEEG,001,200279,
AFNE01.JPG,AFNE01.JPG,AFNE01.JPG,AFNE01.JPG,AFNE01.JPG,AFNE01.JPG,3,8,38,7,,,,,,,,,,,,,,,,,,,,,,,AMNE03.jpg,AMNE18.jpg,AMSA05.jpg,AMSA08.jpg,AMNE18.jpg,MN,1,num_6,32,num_8,1.03347369982,,,2017_May_30_1410,60.0069095514,MAFE4ImagesEEG,001,200279,
AFNE01.JPG,AFNE01.JPG,AFNE01.JPG,AFNE01.JPG,AFNE01.JPG,AFNE01.JPG,3,9,39,0,,,,,,,,,,,,,,,,,,,,,,,AMNE13.jpg,AMNE15.jpg,AMSA04.jpg,AMSA07.jpg,AMNE13.jpg,MN,1,num_8,32,num_6,0.800103342393,,,2017_May_30_1410,60.0069095514,MAFE4ImagesEEG,001,200279,
AFNE01.JPG,AFNE01.JPG,AFNE01.JPG,AFNE01.JPG,AFNE01.JPG,AFNE01.JPG,4,0,40,6,,,,,,,,,,,,,,,,,,,,,,,AMNE11.jpg,AMNE08.jpg,AMSA20.jpg,AMSA12.jpg,AMSA20.jpg,MS,2,num_2,32,num_8,0.616753977258,,,2017_May_30_1410,60.0069095514,MAFE4ImagesEEG,001,200279,
AFNE01.JPG,AFNE01.JPG,AFNE01.JPG,AFNE01.JPG,AFNE01.JPG,AFNE01.JPG,4,1,41,0,,,,,,,,,,,,,,,,,,,,,,,AMNE10.jpg,AMSA03.jpg,AMNE18.jpg,AMSA12.jpg,AMNE10.jpg,MN,1,num_8,32,num_4,0.883488662308,,,2017_May_30_1410,60.0069095514,MAFE4ImagesEEG,001,200279,
AFNE01.JPG,AFNE01.JPG,AFNE01.JPG,AFNE01.JPG,AFNE01.JPG,AFNE01.JPG,4,2,42,1,,,,,,,,,,,,,,,,,,,,,,,AMSA15.jpg,AMNE08.jpg,AMNE13.jpg,AMSA13.jpg,AMSA15.jpg,MS,2,num_8,32,num_6,1.01679779054,,,2017_May_30_1410,60.0069095514,MAFE4ImagesEEG,001,200279,
AFNE01.JPG,AFNE01.JPG,AFNE01.JPG,AFNE01.JPG,AFNE01.JPG,AFNE01.JPG,4,3,43,5,,,,,,,,,,,,,,,,,,,,,,,AMNE11.jpg,AMSA17.jpg,AMNE20.jpg,AMSA04.jpg,AMSA17.jpg,MS,2,num_6,32,num_8,0.783509542467,,,2017_May_30_1410,60.0069095514,MAFE4ImagesEEG,001,200279,
AFNE01.JPG,AFNE01.JPG,AFNE01.JPG,AFNE01.JPG,AFNE01.JPG,AFNE01.JPG,4,4,44,9,,,,,,,,,,,,,,,,,,,,,,,AMSA11.jpg,AMSA13.jpg,AMNE20.jpg,AMNE15.jpg,AMSA13.jpg,MS,2,num_6,32,num_2,1.05009091366,,,2017_May_30_1410,60.0069095514,MAFE4ImagesEEG,001,200279,
AFNE01.JPG,AFNE01.JPG,AFNE01.JPG,AFNE01.JPG,AFNE01.JPG,AFNE01.JPG,4,5,45,8,,,,,,,,,,,,,,,,,,,,,,,AMSA02.jpg,AMNE14.jpg,AMSA01.jpg,AMNE17.jpg,AMNE14.jpg,MN,1,num_6,32,num_2,0.999942587689,,,2017_May_30_1410,60.0069095514,MAFE4ImagesEEG,001,200279,
AFNE01.JPG,AFNE01.JPG,AFNE01.JPG,AFNE01.JPG,AFNE01.JPG,AFNE01.JPG,4,6,46,3,,,,,,,,,,,,,,,,,,,,,,,AMNE18.jpg,AMSA17.jpg,AMNE17.jpg,AMSA18.jpg,AMSA17.jpg,MS,2,num_6,32,num_8,0.750139120733,,,2017_May_30_1410,60.0069095514,MAFE4ImagesEEG,001,200279,
AFNE01.JPG,AFNE01.JPG,AFNE01.JPG,AFNE01.JPG,AFNE01.JPG,AFNE01.JPG,4,7,47,7,,,,,,,,,,,,,,,,,,,,,,,AMSA16.jpg,AMNE08.jpg,AMNE12.jpg,AMSA01.jpg,AMNE08.jpg,MN,1,num_6,16,num_6,0.700163352769,,,2017_May_30_1410,60.0069095514,MAFE4ImagesEEG,001,200279,
AFNE01.JPG,AFNE01.JPG,AFNE01.JPG,AFNE01.JPG,AFNE01.JPG,AFNE01.JPG,4,8,48,4,,,,,,,,,,,,,,,,,,,,,,,AMSA07.jpg,AMNE05.jpg,AMNE17.jpg,AMSA06.jpg,AMSA07.jpg,MS,2,num_8,32,num_2,1.09978956264,,,2017_May_30_1410,60.0069095514,MAFE4ImagesEEG,001,200279,
AFNE01.JPG,AFNE01.JPG,AFNE01.JPG,AFNE01.JPG,AFNE01.JPG,AFNE01.JPG,4,9,49,2,,,,,,,,,,,,,,,,,,,,,,,AMSA10.jpg,AMNE03.jpg,AMNE01.jpg,AMSA01.jpg,AMNE01.jpg,MN,1,num_2,32,num_4,1.88331867033,,,2017_May_30_1410,60.0069095514,MAFE4ImagesEEG,001,200279,
AFNE01.JPG,AFNE01.JPG,AFNE01.JPG,AFNE01.JPG,AFNE01.JPG,AFNE01.JPG,5,0,50,0,,,,,,,,,,,,,,,,,,,,,,,AMNE11.jpg,AMSA20.jpg,AMNE18.jpg,AMSA15.jpg,AMSA20.jpg,MS,2,num_6,32,num_8,0.68350155605,,,2017_May_30_1410,60.0069095514,MAFE4ImagesEEG,001,200279,
AFNE01.JPG,AFNE01.JPG,AFNE01.JPG,AFNE01.JPG,AFNE01.JPG,AFNE01.JPG,5,1,51,8,,,,,,,,,,,,,,,,,,,,,,,AMNE19.jpg,AMSA06.jpg,AMSA20.jpg,AMNE12.jpg,AMSA06.jpg,MS,2,num_6,16,num_6,0.766811502166,,,2017_May_30_1410,60.0069095514,MAFE4ImagesEEG,001,200279,
AFNE01.JPG,AFNE01.JPG,AFNE01.JPG,AFNE01.JPG,AFNE01.JPG,AFNE01.JPG,5,2,52,1,,,,,,,,,,,,,,,,,,,,,,,AMSA12.jpg,AMNE08.jpg,AMSA09.jpg,AMNE11.jpg,AMNE11.jpg,MN,1,num_4,32,num_8,0.566801944049,,,2017_May_30_1410,60.0069095514,MAFE4ImagesEEG,001,200279,
AFNE01.JPG,AFNE01.JPG,AFNE01.JPG,AFNE01.JPG,AFNE01.JPG,AFNE01.JPG,5,3,53,5,,,,,,,,,,,,,,,,,,,,,,,AMSA15.jpg,AMNE10.jpg,AMSA03.jpg,AMNE17.jpg,AMNE10.jpg,MN,1,num_6,32,num_2,0.550127638504,,,2017_May_30_1410,60.0069095514,MAFE4ImagesEEG,001,200279,
AFNE01.JPG,AFNE01.JPG,AFNE01.JPG,AFNE01.JPG,AFNE01.JPG,AFNE01.JPG,5,4,54,3,,,,,,,,,,,,,,,,,,,,,,,AMNE01.jpg,AMNE19.jpg,AMSA06.jpg,AMSA14.jpg,AMNE19.jpg,MN,1,num_6,32,num_4,0.683435162995,,,2017_May_30_1410,60.0069095514,MAFE4ImagesEEG,001,200279,
AFNE01.JPG,AFNE01.JPG,AFNE01.JPG,AFNE01.JPG,AFNE01.JPG,AFNE01.JPG,5,5,55,9,,,,,,,,,,,,,,,,,,,,,,,AMNE10.jpg,AMSA08.jpg,AMSA04.jpg,AMNE13.jpg,AMSA04.jpg,MS,2,num_2,32,num_6,0.633622009773,,,2017_May_30_1410,60.0069095514,MAFE4ImagesEEG,001,200279,
AFNE01.JPG,AFNE01.JPG,AFNE01.JPG,AFNE01.JPG,AFNE01.JPG,AFNE01.JPG,5,6,56,2,,,,,,,,,,,,,,,,,,,,,,,AMNE18.jpg,AMSA18.jpg,AMNE16.jpg,AMSA02.jpg,AMNE16.jpg,MN,1,num_2,32,num_8,0.500107608037,,,2017_May_30_1410,60.0069095514,MAFE4ImagesEEG,001,200279,
AFNE01.JPG,AFNE01.JPG,AFNE01.JPG,AFNE01.JPG,AFNE01.JPG,AFNE01.JPG,5,7,57,7,,,,,,,,,,,,,,,,,,,,,,,AMSA19.jpg,AMNE14.jpg,AMSA12.jpg,AMNE04.jpg,AMSA12.jpg,MS,2,num_2,16,num_2,0.483364985092,,,2017_May_30_1410,60.0069095514,MAFE4ImagesEEG,001,200279,
AFNE01.JPG,AFNE01.JPG,AFNE01.JPG,AFNE01.JPG,AFNE01.JPG,AFNE01.JPG,5,8,58,4,,,,,,,,,,,,,,,,,,,,,,,AMSA14.jpg,AMSA07.jpg,AMNE13.jpg,AMNE01.jpg,AMSA14.jpg,MS,2,num_8,32,num_6,0.650115418248,,,2017_May_30_1410,60.0069095514,MAFE4ImagesEEG,001,200279,
AFNE01.JPG,AFNE01.JPG,AFNE01.JPG,AFNE01.JPG,AFNE01.JPG,AFNE01.JPG,5,9,59,6,,,,,,,,,,,,,,,,,,,,,,,AMNE19.jpg,AMNE02.jpg,AMSA20.jpg,AMSA10.jpg,AMNE02.jpg,MN,1,num_6,32,num_4,1.0001052029,,,2017_May_30_1410,60.0069095514,MAFE4ImagesEEG,001,200279,
,,,,,,,,,,,,,,,,,,,,,,,,,,,,,,,,,,,,,,,,,,,space,16.7152843152,2017_May_30_1410,60.0069095514,MAFE4ImagesEEG,001,200279,
AFNE01.JPG,AFNE01.JPG,AFNE01.JPG,AFNE01.JPG,AFNE01.JPG,AFNE01.JPG,,,,,0,0,0,5,,,,,,,,,,,,,,,,,,,AFNE08.jpg,AFNE07.jpg,AFSA05.jpg,AFSA11.jpg,AFSA05.jpg,FS,4,num_2,32,num_8,0.366786292056,,,2017_May_30_1410,60.0069095514,MAFE4ImagesEEG,001,200279,
AFNE01.JPG,AFNE01.JPG,AFNE01.JPG,AFNE01.JPG,AFNE01.JPG,AFNE01.JPG,,,,,0,1,1,9,,,,,,,,,,,,,,,,,,,AFNE17.jpg,AFSA18.jpg,AFSA14.jpg,AFNE13.jpg,AFSA14.jpg,FS,4,num_2,32,num_6,0.816770270932,,,2017_May_30_1410,60.0069095514,MAFE4ImagesEEG,001,200279,
AFNE01.JPG,AFNE01.JPG,AFNE01.JPG,AFNE01.JPG,AFNE01.JPG,AFNE01.JPG,,,,,0,2,2,1,,,,,,,,,,,,,,,,,,,AFSA03.jpg,AFNE15.jpg,AFNE12.jpg,AFSA08.jpg,AFSA08.jpg,FS,4,num_4,16,num_4,0.616776749957,,,2017_May_30_1410,60.0069095514,MAFE4ImagesEEG,001,200279,
AFNE01.JPG,AFNE01.JPG,AFNE01.JPG,AFNE01.JPG,AFNE01.JPG,AFNE01.JPG,,,,,0,3,3,6,,,,,,,,,,,,,,,,,,,AFSA08.jpg,AFSA17.jpg,AFNE12.jpg,AFNE02.jpg,AFNE02.jpg,FN,3,num_4,32,num_8,0.616744996514,,,2017_May_30_1410,60.0069095514,MAFE4ImagesEEG,001,200279,
AFNE01.JPG,AFNE01.JPG,AFNE01.JPG,AFNE01.JPG,AFNE01.JPG,AFNE01.JPG,,,,,0,4,4,7,,,,,,,,,,,,,,,,,,,AFSA15.jpg,AFNE13.jpg,AFSA18.jpg,AFNE17.jpg,AFSA15.jpg,FS,4,num_8,32,num_2,0.550191465765,,,2017_May_30_1410,60.0069095514,MAFE4ImagesEEG,001,200279,
AFNE01.JPG,AFNE01.JPG,AFNE01.JPG,AFNE01.JPG,AFNE01.JPG,AFNE01.JPG,,,,,0,5,5,3,,,,,,,,,,,,,,,,,,,AFNE03.jpg,AFNE18.jpg,AFSA17.jpg,AFSA16.jpg,AFSA17.jpg,FS,4,num_2,32,num_4,0.550159712322,,,2017_May_30_1410,60.0069095514,MAFE4ImagesEEG,001,200279,
AFNE01.JPG,AFNE01.JPG,AFNE01.JPG,AFNE01.JPG,AFNE01.JPG,AFNE01.JPG,,,,,0,6,6,2,,,,,,,,,,,,,,,,,,,AFNE20.jpg,AFNE08.jpg,AFSA06.jpg,AFSA11.jpg,AFSA11.jpg,FS,4,num_4,32,num_6,0.433454327052,,,2017_May_30_1410,60.0069095514,MAFE4ImagesEEG,001,200279,
AFNE01.JPG,AFNE01.JPG,AFNE01.JPG,AFNE01.JPG,AFNE01.JPG,AFNE01.JPG,,,,,0,7,7,8,,,,,,,,,,,,,,,,,,,AFNE18.jpg,AFSA03.jpg,AFNE03.jpg,AFSA08.jpg,AFSA08.jpg,FS,4,num_4,32,num_8,0.716821942013,,,2017_May_30_1410,60.0069095514,MAFE4ImagesEEG,001,200279,
AFNE01.JPG,AFNE01.JPG,AFNE01.JPG,AFNE01.JPG,AFNE01.JPG,AFNE01.JPG,,,,,0,8,8,0,,,,,,,,,,,,,,,,,,,AFSA15.jpg,AFNE13.jpg,AFSA06.jpg,AFNE04.jpg,AFSA15.jpg,FS,4,num_8,32,num_4,0.683492254466,,,2017_May_30_1410,60.0069095514,MAFE4ImagesEEG,001,200279,
AFNE01.JPG,AFNE01.JPG,AFNE01.JPG,AFNE01.JPG,AFNE01.JPG,AFNE01.JPG,,,,,0,9,9,4,,,,,,,,,,,,,,,,,,,AFSA05.jpg,AFNE02.jpg,AFSA09.jpg,AFNE03.jpg,AFNE03.jpg,FN,3,num_4,32,num_6,0.600168516627,,,2017_May_30_1410,60.0069095514,MAFE4ImagesEEG,001,200279,
AFNE01.JPG,AFNE01.JPG,AFNE01.JPG,AFNE01.JPG,AFNE01.JPG,AFNE01.JPG,,,,,1,0,10,2,,,,,,,,,,,,,,,,,,,AFNE17.jpg,AFNE13.jpg,AFSA02.jpg,AFSA04.jpg,AFSA04.jpg,FS,4,num_4,32,num_8,0.733468022663,,,2017_May_30_1410,60.0069095514,MAFE4ImagesEEG,001,200279,
AFNE01.JPG,AFNE01.JPG,AFNE01.JPG,AFNE01.JPG,AFNE01.JPG,AFNE01.JPG,,,,,1,1,11,8,,,,,,,,,,,,,,,,,,,AFNE17.jpg,AFSA16.jpg,AFSA18.jpg,AFNE11.jpg,AFSA16.jpg,FS,4,num_6,32,num_8,0.400148374261,,,2017_May_30_1410,60.0069095514,MAFE4ImagesEEG,001,200279,
AFNE01.JPG,AFNE01.JPG,AFNE01.JPG,AFNE01.JPG,AFNE01.JPG,AFNE01.JPG,,,,,1,2,12,1,,,,,,,,,,,,,,,,,,,AFSA09.jpg,AFNE17.jpg,AFNE18.jpg,AFSA02.jpg,AFNE17.jpg,FN,3,num_6,32,num_2,0.333535827231,,,2017_May_30_1410,60.0069095514,MAFE4ImagesEEG,001,200279,
AFNE01.JPG,AFNE01.JPG,AFNE01.JPG,AFNE01.JPG,AFNE01.JPG,AFNE01.JPG,,,,,1,3,13,6,,,,,,,,,,,,,,,,,,,AFNE08.jpg,AFSA10.jpg,AFNE11.jpg,AFSA19.jpg,AFNE08.jpg,FN,3,num_8,32,num_6,0.333520110697,,,2017_May_30_1410,60.0069095514,MAFE4ImagesEEG,001,200279,
AFNE01.JPG,AFNE01.JPG,AFNE01.JPG,AFNE01.JPG,AFNE01.JPG,AFNE01.JPG,,,,,1,4,14,4,,,,,,,,,,,,,,,,,,,AFNE07.jpg,AFSA18.jpg,AFNE05.jpg,AFSA03.jpg,AFSA18.jpg,FS,4,num_6,32,num_8,0.499856789596,,,2017_May_30_1410,60.0069095514,MAFE4ImagesEEG,001,200279,
AFNE01.JPG,AFNE01.JPG,AFNE01.JPG,AFNE01.JPG,AFNE01.JPG,AFNE01.JPG,,,,,1,5,15,7,,,,,,,,,,,,,,,,,,,AFNE04.jpg,AFSA14.jpg,AFNE19.jpg,AFSA05.jpg,AFNE04.jpg,FN,3,num_8,32,num_4,0.500163737684,,,2017_May_30_1410,60.0069095514,MAFE4ImagesEEG,001,200279,
AFNE01.JPG,AFNE01.JPG,AFNE01.JPG,AFNE01.JPG,AFNE01.JPG,AFNE01.JPG,,,,,1,6,16,9,,,,,,,,,,,,,,,,,,,AFSA11.jpg,AFSA13.jpg,AFNE16.jpg,AFNE18.jpg,AFNE16.jpg,FN,3,num_2,32,num_6,0.450113557978,,,2017_May_30_1410,60.0069095514,MAFE4ImagesEEG,001,200279,
AFNE01.JPG,AFNE01.JPG,AFNE01.JPG,AFNE01.JPG,AFNE01.JPG,AFNE01.JPG,,,,,1,7,17,5,,,,,,,,,,,,,,,,,,,AFSA16.jpg,AFSA06.jpg,AFNE02.jpg,AFNE01.jpg,AFNE02.jpg,FN,3,num_2,16,num_2,0.383473427268,,,2017_May_30_1410,60.0069095514,MAFE4ImagesEEG,001,200279,
AFNE01.JPG,AFNE01.JPG,AFNE01.JPG,AFNE01.JPG,AFNE01.JPG,AFNE01.JPG,,,,,1,8,18,3,,,,,,,,,,,,,,,,,,,AFNE08.jpg,AFNE19.jpg,AFSA01.jpg,AFSA18.jpg,AFNE19.jpg,FN,3,num_6,32,num_8,0.383591780206,,,2017_May_30_1410,60.0069095514,MAFE4ImagesEEG,001,200279,
AFNE01.JPG,AFNE01.JPG,AFNE01.JPG,AFNE01.JPG,AFNE01.JPG,AFNE01.JPG,,,,,1,9,19,0,,,,,,,,,,,,,,,,,,,AFNE02.jpg,AFNE19.jpg,AFSA04.jpg,AFSA15.jpg,AFNE19.jpg,FN,3,num_6,16,num_6,0.383528273785,,,2017_May_30_1410,60.0069095514,MAFE4ImagesEEG,001,200279,
AFNE01.JPG,AFNE01.JPG,AFNE01.JPG,AFNE01.JPG,AFNE01.JPG,AFNE01.JPG,,,,,2,0,20,8,,,,,,,,,,,,,,,,,,,AFNE16.jpg,AFSA17.jpg,AFNE08.jpg,AFSA20.jpg,AFNE16.jpg,FN,3,num_8,32,num_4,0.583494531689,,,2017_May_30_1410,60.0069095514,MAFE4ImagesEEG,001,200279,
AFNE01.JPG,AFNE01.JPG,AFNE01.JPG,AFNE01.JPG,AFNE01.JPG,AFNE01.JPG,,,,,2,1,21,1,,,,,,,,,,,,,,,,,,,AFNE04.jpg,AFSA08.jpg,AFNE10.jpg,AFSA03.jpg,AFSA03.jpg,FS,4,num_4,32,num_8,0.666753801052,,,2017_May_30_1410,60.0069095514,MAFE4ImagesEEG,001,200279,
AFNE01.JPG,AFNE01.JPG,AFNE01.JPG,AFNE01.JPG,AFNE01.JPG,AFNE01.JPG,,,,,2,2,22,4,,,,,,,,,,,,,,,,,,,AFNE14.jpg,AFSA11.jpg,AFNE11.jpg,AFSA17.jpg,AFNE14.jpg,FN,3,num_8,16,num_8,0.900112611707,,,2017_May_30_1410,60.0069095514,MAFE4ImagesEEG,001,200279,
AFNE01.JPG,AFNE01.JPG,AFNE01.JPG,AFNE01.JPG,AFNE01.JPG,AFNE01.JPG,,,,,2,3,23,5,,,,,,,,,,,,,,,,,,,AFSA18.jpg,AFSA12.jpg,AFNE13.jpg,AFNE10.jpg,AFSA18.jpg,FS,4,num_8,32,num_6,0.950105058495,,,2017_May_30_1410,60.0069095514,MAFE4ImagesEEG,001,200279,
AFNE01.JPG,AFNE01.JPG,AFNE01.JPG,AFNE01.JPG,AFNE01.JPG,AFNE01.JPG,,,,,2,4,24,2,,,,,,,,,,,,,,,,,,,AFSA04.jpg,AFNE15.jpg,AFNE12.jpg,AFSA15.jpg,AFNE15.jpg,FN,3,num_6,32,num_4,0.383522179676,,,2017_May_30_1410,60.0069095514,MAFE4ImagesEEG,001,200279,
AFNE01.JPG,AFNE01.JPG,AFNE01.JPG,AFNE01.JPG,AFNE01.JPG,AFNE01.JPG,,,,,2,5,25,0,,,,,,,,,,,,,,,,,,,AFNE16.jpg,AFSA01.jpg,AFSA10.jpg,AFNE08.jpg,AFNE08.jpg,FN,3,num_4,32,num_8,1.10007534176,,,2017_May_30_1410,60.0069095514,MAFE4ImagesEEG,001,200279,
AFNE01.JPG,AFNE01.JPG,AFNE01.JPG,AFNE01.JPG,AFNE01.JPG,AFNE01.JPG,,,,,2,6,26,7,,,,,,,,,,,,,,,,,,,AFNE13.jpg,AFSA03.jpg,AFSA11.jpg,AFNE03.jpg,AFNE03.jpg,FN,3,num_4,32,num_6,0.633574219653,,,2017_May_30_1410,60.0069095514,MAFE4ImagesEEG,001,200279,
AFNE01.JPG,AFNE01.JPG,AFNE01.JPG,AFNE01.JPG,AFNE01.JPG,AFNE01.JPG,,,,,2,7,27,6,,,,,,,,,,,,,,,,,,,AFNE04.jpg,AFSA02.jpg,AFSA04.jpg,AFNE14.jpg,AFSA02.jpg,FS,4,num_6,32,num_8,0.85014454159,,,2017_May_30_1410,60.0069095514,MAFE4ImagesEEG,001,200279,
AFNE01.JPG,AFNE01.JPG,AFNE01.JPG,AFNE01.JPG,AFNE01.JPG,AFNE01.JPG,,,,,2,8,28,3,,,,,,,,,,,,,,,,,,,AFNE10.jpg,AFSA10.jpg,AFNE05.jpg,AFSA11.jpg,AFNE10.jpg,FN,3,num_8,32,num_6,0.966803740244,,,2017_May_30_1410,60.0069095514,MAFE4ImagesEEG,001,200279,
AFNE01.JPG,AFNE01.JPG,AFNE01.JPG,AFNE01.JPG,AFNE01.JPG,AFNE01.JPG,,,,,2,9,29,9,,,,,,,,,,,,,,,,,,,AFSA15.jpg,AFNE05.jpg,AFNE03.jpg,AFSA17.jpg,AFNE05.jpg,FN,3,num_6,32,num_8,0.616767448373,,,2017_May_30_1410,60.0069095514,MAFE4ImagesEEG,001,200279,
AFNE01.JPG,AFNE01.JPG,AFNE01.JPG,AFNE01.JPG,AFNE01.JPG,AFNE01.JPG,,,,,3,0,30,7,,,,,,,,,,,,,,,,,,,AFSA19.jpg,AFNE07.jpg,AFSA01.jpg,AFNE04.jpg,AFNE04.jpg,FN,3,num_4,16,num_4,0.450112275081,,,2017_May_30_1410,60.0069095514,MAFE4ImagesEEG,001,200279,
AFNE01.JPG,AFNE01.JPG,AFNE01.JPG,AFNE01.JPG,AFNE01.JPG,AFNE01.JPG,,,,,3,1,31,4,,,,,,,,,,,,,,,,,,,AFSA19.jpg,AFSA06.jpg,AFNE11.jpg,AFNE08.jpg,AFNE08.jpg,FN,3,num_4,32,num_8,0.483454150613,,,2017_May_30_1410,60.0069095514,MAFE4ImagesEEG,001,200279,
AFNE01.JPG,AFNE01.JPG,AFNE01.JPG,AFNE01.JPG,AFNE01.JPG,AFNE01.JPG,,,,,3,2,32,8,,,,,,,,,,,,,,,,,,,AFNE04.jpg,AFSA01.jpg,AFSA15.jpg,AFNE11.jpg,AFSA15.jpg,FS,4,num_2,16,num_2,0.933325550053,,,2017_May_30_1410,60.0069095514,MAFE4ImagesEEG,001,200279,
AFNE01.JPG,AFNE01.JPG,AFNE01.JPG,AFNE01.JPG,AFNE01.JPG,AFNE01.JPG,,,,,3,3,33,9,,,,,,,,,,,,,,,,,,,AFSA15.jpg,AFNE15.jpg,AFSA02.jpg,AFNE18.jpg,AFNE18.jpg,FN,3,num_4,32,num_8,1.00012957887,,,2017_May_30_1410,60.0069095514,MAFE4ImagesEEG,001,200279,
AFNE01.JPG,AFNE01.JPG,AFNE01.JPG,AFNE01.JPG,AFNE01.JPG,AFNE01.JPG,,,,,3,4,34,3,,,,,,,,,,,,,,,,,,,AFNE18.jpg,AFSA16.jpg,AFSA07.jpg,AFNE13.jpg,AFSA07.jpg,FS,4,num_2,32,num_4,0.583510889672,,,2017_May_30_1410,60.0069095514,MAFE4ImagesEEG,001,200279,
AFNE01.JPG,AFNE01.JPG,AFNE01.JPG,AFNE01.JPG,AFNE01.JPG,AFNE01.JPG,,,,,3,5,35,2,,,,,,,,,,,,,,,,,,,AFSA02.jpg,AFSA09.jpg,AFNE05.jpg,AFNE06.jpg,AFSA09.jpg,FS,4,num_6,32,num_4,0.750165421516,,,2017_May_30_1410,60.0069095514,MAFE4ImagesEEG,001,200279,
AFNE01.JPG,AFNE01.JPG,AFNE01.JPG,AFNE01.JPG,AFNE01.JPG,AFNE01.JPG,,,,,3,6,36,1,,,,,,,,,,,,,,,,,,,AFSA16.jpg,AFNE07.jpg,AFSA15.jpg,AFNE13.jpg,AFNE07.jpg,FN,3,num_6,16,num_6,0.383499406977,,,2017_May_30_1410,60.0069095514,MAFE4ImagesEEG,001,200279,
AFNE01.JPG,AFNE01.JPG,AFNE01.JPG,AFNE01.JPG,AFNE01.JPG,AFNE01.JPG,,,,,3,7,37,0,,,,,,,,,,,,,,,,,,,AFSA12.jpg,AFNE04.jpg,AFNE01.jpg,AFSA16.jpg,AFNE01.jpg,FN,3,num_2,32,num_8,0.400169863831,,,2017_May_30_1410,60.0069095514,MAFE4ImagesEEG,001,200279,
AFNE01.JPG,AFNE01.JPG,AFNE01.JPG,AFNE01.JPG,AFNE01.JPG,AFNE01.JPG,,,,,3,8,38,5,,,,,,,,,,,,,,,,,,,AFNE16.jpg,AFSA20.jpg,AFNE20.jpg,AFSA13.jpg,AFNE20.jpg,FN,3,num_2,32,num_4,0.466808711644,,,2017_May_30_1410,60.0069095514,MAFE4ImagesEEG,001,200279,
AFNE01.JPG,AFNE01.JPG,AFNE01.JPG,AFNE01.JPG,AFNE01.JPG,AFNE01.JPG,,,,,3,9,39,6,,,,,,,,,,,,,,,,,,,AFSA19.jpg,AFNE18.jpg,AFSA01.jpg,AFNE12.jpg,AFNE18.jpg,FN,3,num_6,16,num_6,0.333518506959,,,2017_May_30_1410,60.0069095514,MAFE4ImagesEEG,001,200279,
AFNE01.JPG,AFNE01.JPG,AFNE01.JPG,AFNE01.JPG,AFNE01.JPG,AFNE01.JPG,,,,,4,0,40,5,,,,,,,,,,,,,,,,,,,AFNE02.jpg,AFSA05.jpg,AFNE07.jpg,AFSA07.jpg,AFSA07.jpg,FS,4,num_4,32,num_2,0.300257778727,,,2017_May_30_1410,60.0069095514,MAFE4ImagesEEG,001,200279,
AFNE01.JPG,AFNE01.JPG,AFNE01.JPG,AFNE01.JPG,AFNE01.JPG,AFNE01.JPG,,,,,4,1,41,9,,,,,,,,,,,,,,,,,,,AFSA05.jpg,AFNE14.jpg,AFSA20.jpg,AFNE03.jpg,AFNE14.jpg,FN,3,num_6,32,num_8,0.700215633493,,,2017_May_30_1410,60.0069095514,MAFE4ImagesEEG,001,200279,
AFNE01.JPG,AFNE01.JPG,AFNE01.JPG,AFNE01.JPG,AFNE01.JPG,AFNE01.JPG,,,,,4,2,42,7,,,,,,,,,,,,,,,,,,,AFSA14.jpg,AFNE03.jpg,AFNE06.jpg,AFSA10.jpg,AFSA10.jpg,FS,4,num_4,16,num_4,0.333473603474,,,2017_May_30_1410,60.0069095514,MAFE4ImagesEEG,001,200279,
AFNE01.JPG,AFNE01.JPG,AFNE01.JPG,AFNE01.JPG,AFNE01.JPG,AFNE01.JPG,,,,,4,3,43,6,,,,,,,,,,,,,,,,,,,AFSA05.jpg,AFNE12.jpg,AFNE11.jpg,AFSA06.jpg,AFSA05.jpg,FS,4,num_8,32,num_6,0.633483771002,,,2017_May_30_1410,60.0069095514,MAFE4ImagesEEG,001,200279,
AFNE01.JPG,AFNE01.JPG,AFNE01.JPG,AFNE01.JPG,AFNE01.JPG,AFNE01.JPG,,,,,4,4,44,2,,,,,,,,,,,,,,,,,,,AFNE11.jpg,AFNE02.jpg,AFSA08.jpg,AFSA15.jpg,AFSA15.jpg,FS,4,num_4,32,num_8,0.766491082963,,,2017_May_30_1410,60.0069095514,MAFE4ImagesEEG,001,200279,
AFNE01.JPG,AFNE01.JPG,AFNE01.JPG,AFNE01.JPG,AFNE01.JPG,AFNE01.JPG,,,,,4,5,45,0,,,,,,,,,,,,,,,,,,,AFNE10.jpg,AFNE07.jpg,AFSA13.jpg,AFSA07.jpg,AFSA13.jpg,FS,4,num_2,16,num_2,0.983448858606,,,2017_May_30_1410,60.0069095514,MAFE4ImagesEEG,001,200279,
AFNE01.JPG,AFNE01.JPG,AFNE01.JPG,AFNE01.JPG,AFNE01.JPG,AFNE01.JPG,,,,,4,6,46,4,,,,,,,,,,,,,,,,,,,AFSA07.jpg,AFNE10.jpg,AFNE07.jpg,AFSA06.jpg,AFNE10.jpg,FN,3,num_6,32,num_4,1.033403137,,,2017_May_30_1410,60.0069095514,MAFE4ImagesEEG,001,200279,
AFNE01.JPG,AFNE01.JPG,AFNE01.JPG,AFNE01.JPG,AFNE01.JPG,AFNE01.JPG,,,,,4,7,47,8,,,,,,,,,,,,,,,,,,,AFNE14.jpg,AFNE09.jpg,AFSA05.jpg,AFSA20.jpg,AFNE09.jpg,FN,3,num_6,16,num_6,0.616844105301,,,2017_May_30_1410,60.0069095514,MAFE4ImagesEEG,001,200279,
AFNE01.JPG,AFNE01.JPG,AFNE01.JPG,AFNE01.JPG,AFNE01.JPG,AFNE01.JPG,,,,,4,8,48,1,,,,,,,,,,,,,,,,,,,AFNE10.jpg,AFSA19.jpg,AFNE01.jpg,AFSA03.jpg,AFNE01.jpg,FN,3,num_2,32,num_8,0.483468584018,,,2017_May_30_1410,60.0069095514,MAFE4ImagesEEG,001,200279,
AFNE01.JPG,AFNE01.JPG,AFNE01.JPG,AFNE01.JPG,AFNE01.JPG,AFNE01.JPG,,,,,4,9,49,3,,,,,,,,,,,,,,,,,,,AFSA02.jpg,AFNE13.jpg,AFNE18.jpg,AFSA05.jpg,AFSA02.jpg,FS,4,num_8,32,num_4,0.500178171089,,,2017_May_30_1410,60.0069095514,MAFE4ImagesEEG,001,200279,
AFNE01.JPG,AFNE01.JPG,AFNE01.JPG,AFNE01.JPG,AFNE01.JPG,AFNE01.JPG,,,,,5,0,50,3,,,,,,,,,,,,,,,,,,,AFNE12.jpg,AFSA11.jpg,AFNE14.jpg,AFSA10.jpg,AFNE12.jpg,FN,3,num_8,32,num_6,0.683457294013,,,2017_May_30_1410,60.0069095514,MAFE4ImagesEEG,001,200279,
AFNE01.JPG,AFNE01.JPG,AFNE01.JPG,AFNE01.JPG,AFNE01.JPG,AFNE01.JPG,,,,,5,1,51,2,,,,,,,,,,,,,,,,,,,AFNE16.jpg,AFNE05.jpg,AFSA08.jpg,AFSA03.jpg,AFNE05.jpg,FN,3,num_6,32,num_8,1.21674801176,,,2017_May_30_1410,60.0069095514,MAFE4ImagesEEG,001,200279,
AFNE01.JPG,AFNE01.JPG,AFNE01.JPG,AFNE01.JPG,AFNE01.JPG,AFNE01.JPG,,,,,5,2,52,5,,,,,,,,,,,,,,,,,,,AFSA11.jpg,AFSA09.jpg,AFNE05.jpg,AFNE16.jpg,AFNE05.jpg,FN,3,num_2,32,num_6,0.450198553968,,,2017_May_30_1410,60.0069095514,MAFE4ImagesEEG,001,200279,
AFNE01.JPG,AFNE01.JPG,AFNE01.JPG,AFNE01.JPG,AFNE01.JPG,AFNE01.JPG,,,,,5,3,53,7,,,,,,,,,,,,,,,,,,,AFSA18.jpg,AFNE19.jpg,AFSA17.jpg,AFNE16.jpg,AFSA17.jpg,FS,4,num_2,32,num_4,0.816791760502,,,2017_May_30_1410,60.0069095514,MAFE4ImagesEEG,001,200279,
AFNE01.JPG,AFNE01.JPG,AFNE01.JPG,AFNE01.JPG,AFNE01.JPG,AFNE01.JPG,,,,,5,4,54,1,,,,,,,,,,,,,,,,,,,AFSA10.jpg,AFNE10.jpg,AFNE18.jpg,AFSA19.jpg,AFNE10.jpg,FN,3,num_6,32,num_4,0.650217734277,,,2017_May_30_1410,60.0069095514,MAFE4ImagesEEG,001,200279,
AFNE01.JPG,AFNE01.JPG,AFNE01.JPG,AFNE01.JPG,AFNE01.JPG,AFNE01.JPG,,,,,5,5,55,9,,,,,,,,,,,,,,,,,,,AFSA10.jpg,AFNE19.jpg,AFSA16.jpg,AFNE20.jpg,AFNE19.jpg,FN,3,num_6,16,num_6,0.516763310879,,,2017_May_30_1410,60.0069095514,MAFE4ImagesEEG,001,200279,
AFNE01.JPG,AFNE01.JPG,AFNE01.JPG,AFNE01.JPG,AFNE01.JPG,AFNE01.JPG,,,,,5,6,56,0,,,,,,,,,,,,,,,,,,,AFSA12.jpg,AFNE12.jpg,AFNE19.jpg,AFSA17.jpg,AFNE12.jpg,FN,3,num_6,32,num_2,1.13352915575,,,2017_May_30_1410,60.0069095514,MAFE4ImagesEEG,001,200279,
AFNE01.JPG,AFNE01.JPG,AFNE01.JPG,AFNE01.JPG,AFNE01.JPG,AFNE01.JPG,,,,,5,7,57,6,,,,,,,,,,,,,,,,,,,AFNE05.jpg,AFSA19.jpg,AFNE20.jpg,AFSA13.jpg,AFSA19.jpg,FS,4,num_6,32,num_8,0.500180095434,,,2017_May_30_1410,60.0069095514,MAFE4ImagesEEG,001,200279,
AFNE01.JPG,AFNE01.JPG,AFNE01.JPG,AFNE01.JPG,AFNE01.JPG,AFNE01.JPG,,,,,5,8,58,4,,,,,,,,,,,,,,,,,,,AFSA17.jpg,AFNE11.jpg,AFNE09.jpg,AFSA18.jpg,AFSA18.jpg,FS,4,num_4,32,num_6,0.400165373459,,,2017_May_30_1410,60.0069095514,MAFE4ImagesEEG,001,200279,
AFNE01.JPG,AFNE01.JPG,AFNE01.JPG,AFNE01.JPG,AFNE01.JPG,AFNE01.JPG,,,,,5,9,59,8,,,,,,,,,,,,,,,,,,,AFNE01.jpg,AFSA04.jpg,AFSA10.jpg,AFNE13.jpg,AFNE01.jpg,FN,3,num_8,32,num_4,0.61674852483,,,2017_May_30_1410,60.0069095514,MAFE4ImagesEEG,001,200279,
,,,,,,,,,,,,,,,,,,,,,,,,,,,,,,,,,,,,,,,,,,,space,9.74944600184,2017_May_30_1410,60.0069095514,MAFE4ImagesEEG,001,200279,
AFNE01.JPG,AFNE01.JPG,AFNE01.JPG,AFNE01.JPG,AFNE01.JPG,AFNE01.JPG,,,,,,,,,0,0,0,2,,,,,,,,,,,,,,,AMNE06.jpg,AMSA07.jpg,AMSA09.jpg,AMNE10.jpg,AMSA09.jpg,MS,2,num_2,32,num_4,0.750132385409,,,2017_May_30_1410,60.0069095514,MAFE4ImagesEEG,001,200279,
AFNE01.JPG,AFNE01.JPG,AFNE01.JPG,AFNE01.JPG,AFNE01.JPG,AFNE01.JPG,,,,,,,,,0,1,1,3,,,,,,,,,,,,,,,AMSA05.jpg,AMSA14.jpg,AMNE01.jpg,AMNE08.jpg,AMNE08.jpg,MN,1,num_4,32,num_6,0.550118978368,,,2017_May_30_1410,60.0069095514,MAFE4ImagesEEG,001,200279,
AFNE01.JPG,AFNE01.JPG,AFNE01.JPG,AFNE01.JPG,AFNE01.JPG,AFNE01.JPG,,,,,,,,,0,2,2,4,,,,,,,,,,,,,,,AMSA15.jpg,AMNE17.jpg,AMSA11.jpg,AMNE06.jpg,AMSA11.jpg,MS,2,num_2,32,num_8,0.466812239727,,,2017_May_30_1410,60.0069095514,MAFE4ImagesEEG,001,200279,
AFNE01.JPG,AFNE01.JPG,AFNE01.JPG,AFNE01.JPG,AFNE01.JPG,AFNE01.JPG,,,,,,,,,0,3,3,9,,,,,,,,,,,,,,,AMNE20.jpg,AMSA20.jpg,AMSA13.jpg,AMNE11.jpg,AMNE20.jpg,MN,1,num_8,32,num_2,0.516817836789,,,2017_May_30_1410,60.0069095514,MAFE4ImagesEEG,001,200279,
AFNE01.JPG,AFNE01.JPG,AFNE01.JPG,AFNE01.JPG,AFNE01.JPG,AFNE01.JPG,,,,,,,,,0,4,4,6,,,,,,,,,,,,,,,AMSA11.jpg,AMNE17.jpg,AMSA07.jpg,AMNE01.jpg,AMNE17.jpg,MN,1,num_6,32,num_4,0.600137084257,,,2017_May_30_1410,60.0069095514,MAFE4ImagesEEG,001,200279,
AFNE01.JPG,AFNE01.JPG,AFNE01.JPG,AFNE01.JPG,AFNE01.JPG,AFNE01.JPG,,,,,,,,,0,5,5,8,,,,,,,,,,,,,,,AMNE10.jpg,AMSA11.jpg,AMSA05.jpg,AMNE08.jpg,AMSA11.jpg,MS,2,num_6,32,num_4,0.650174434297,,,2017_May_30_1410,60.0069095514,MAFE4ImagesEEG,001,200279,
AFNE01.JPG,AFNE01.JPG,AFNE01.JPG,AFNE01.JPG,AFNE01.JPG,AFNE01.JPG,,,,,,,,,0,6,6,1,,,,,,,,,,,,,,,AMNE07.jpg,AMNE09.jpg,AMSA01.jpg,AMSA06.jpg,AMSA06.jpg,MS,2,num_4,16,num_4,0.650134021183,,,2017_May_30_1410,60.0069095514,MAFE4ImagesEEG,001,200279,
AFNE01.JPG,AFNE01.JPG,AFNE01.JPG,AFNE01.JPG,AFNE01.JPG,AFNE01.JPG,,,,,,,,,0,7,7,5,,,,,,,,,,,,,,,AMNE17.jpg,AMSA03.jpg,AMNE20.jpg,AMSA14.jpg,AMNE17.jpg,MN,1,num_8,16,num_8,0.35020307661,,,2017_May_30_1410,60.0069095514,MAFE4ImagesEEG,001,200279,
AFNE01.JPG,AFNE01.JPG,AFNE01.JPG,AFNE01.JPG,AFNE01.JPG,AFNE01.JPG,,,,,,,,,0,8,8,7,,,,,,,,,,,,,,,AMNE15.jpg,AMNE06.jpg,AMSA13.jpg,AMSA08.jpg,AMSA08.jpg,MS,2,num_4,32,num_2,0.533534800634,,,2017_May_30_1410,60.0069095514,MAFE4ImagesEEG,001,200279,
AFNE01.JPG,AFNE01.JPG,AFNE01.JPG,AFNE01.JPG,AFNE01.JPG,AFNE01.JPG,,,,,,,,,0,9,9,0,,,,,,,,,,,,,,,AMSA15.jpg,AMSA20.jpg,AMNE09.jpg,AMNE20.jpg,AMNE09.jpg,MN,1,num_2,32,num_6,0.450193101307,,,2017_May_30_1410,60.0069095514,MAFE4ImagesEEG,001,200279,
AFNE01.JPG,AFNE01.JPG,AFNE01.JPG,AFNE01.JPG,AFNE01.JPG,AFNE01.JPG,,,,,,,,,1,0,10,0,,,,,,,,,,,,,,,AMNE03.jpg,AMSA13.jpg,AMSA05.jpg,AMNE01.jpg,AMNE01.jpg,MN,1,num_4,32,num_8,0.550136619247,,,2017_May_30_1410,60.0069095514,MAFE4ImagesEEG,001,200279,
AFNE01.JPG,AFNE01.JPG,AFNE01.JPG,AFNE01.JPG,AFNE01.JPG,AFNE01.JPG,,,,,,,,,1,1,11,5,,,,,,,,,,,,,,,AMNE14.jpg,AMSA14.jpg,AMNE12.jpg,AMSA18.jpg,AMSA14.jpg,MS,2,num_6,32,num_4,0.516880060313,,,2017_May_30_1410,60.0069095514,MAFE4ImagesEEG,001,200279,
AFNE01.JPG,AFNE01.JPG,AFNE01.JPG,AFNE01.JPG,AFNE01.JPG,AFNE01.JPG,,,,,,,,,1,2,12,2,,,,,,,,,,,,,,,AMSA07.jpg,AMSA10.jpg,AMNE04.jpg,AMNE20.jpg,AMNE04.jpg,MN,1,num_2,32,num_8,0.650156152202,,,2017_May_30_1410,60.0069095514,MAFE4ImagesEEG,001,200279,
AFNE01.JPG,AFNE01.JPG,AFNE01.JPG,AFNE01.JPG,AFNE01.JPG,AFNE01.JPG,,,,,,,,,1,3,13,7,,,,,,,,,,,,,,,AMSA01.jpg,AMSA12.jpg,AMNE03.jpg,AMNE02.jpg,AMNE03.jpg,MN,1,num_2,32,num_6,0.683536195895,,,2017_May_30_1410,60.0069095514,MAFE4ImagesEEG,001,200279,
AFNE01.JPG,AFNE01.JPG,AFNE01.JPG,AFNE01.JPG,AFNE01.JPG,AFNE01.JPG,,,,,,,,,1,4,14,8,,,,,,,,,,,,,,,AMNE06.jpg,AMSA18.jpg,AMNE12.jpg,AMSA03.jpg,AMSA18.jpg,MS,2,num_6,32,num_4,0.416887469357,,,2017_May_30_1410,60.0069095514,MAFE4ImagesEEG,001,200279,
AFNE01.JPG,AFNE01.JPG,AFNE01.JPG,AFNE01.JPG,AFNE01.JPG,AFNE01.JPG,,,,,,,,,1,5,15,6,,,,,,,,,,,,,,,AMNE09.jpg,AMSA02.jpg,AMNE04.jpg,AMSA06.jpg,AMNE09.jpg,MN,1,num_8,16,num_8,0.466835333034,,,2017_May_30_1410,60.0069095514,MAFE4ImagesEEG,001,200279,
AFNE01.JPG,AFNE01.JPG,AFNE01.JPG,AFNE01.JPG,AFNE01.JPG,AFNE01.JPG,,,,,,,,,1,6,16,9,,,,,,,,,,,,,,,AMSA14.jpg,AMNE01.jpg,AMNE14.jpg,AMSA13.jpg,AMNE01.jpg,MN,1,num_6,16,num_6,0.716891222168,,,2017_May_30_1410,60.0069095514,MAFE4ImagesEEG,001,200279,
AFNE01.JPG,AFNE01.JPG,AFNE01.JPG,AFNE01.JPG,AFNE01.JPG,AFNE01.JPG,,,,,,,,,1,7,17,3,,,,,,,,,,,,,,,AMSA12.jpg,AMNE03.jpg,AMNE07.jpg,AMSA13.jpg,AMNE07.jpg,MN,1,num_2,32,num_4,0.800105266972,,,2017_May_30_1410,60.0069095514,MAFE4ImagesEEG,001,200279,
AFNE01.JPG,AFNE01.JPG,AFNE01.JPG,AFNE01.JPG,AFNE01.JPG,AFNE01.JPG,,,,,,,,,1,8,18,4,,,,,,,,,,,,,,,AMSA10.jpg,AMSA07.jpg,AMNE08.jpg,AMNE18.jpg,AMNE08.jpg,MN,1,num_2,32,num_4,1.01677822531,,,2017_May_30_1410,60.0069095514,MAFE4ImagesEEG,001,200279,
AFNE01.JPG,AFNE01.JPG,AFNE01.JPG,AFNE01.JPG,AFNE01.JPG,AFNE01.JPG,,,,,,,,,1,9,19,1,,,,,,,,,,,,,,,AMSA02.jpg,AMSA08.jpg,AMNE03.jpg,AMNE05.jpg,AMSA08.jpg,MS,2,num_6,32,num_2,1.38344231527,,,2017_May_30_1410,60.0069095514,MAFE4ImagesEEG,001,200279,
AFNE01.JPG,AFNE01.JPG,AFNE01.JPG,AFNE01.JPG,AFNE01.JPG,AFNE01.JPG,,,,,,,,,2,0,20,6,,,,,,,,,,,,,,,AMNE19.jpg,AMNE05.jpg,AMSA09.jpg,AMSA06.jpg,AMNE05.jpg,MN,1,num_6,16,num_6,0.850307156565,,,2017_May_30_1410,60.0069095514,MAFE4ImagesEEG,001,200279,
AFNE01.JPG,AFNE01.JPG,AFNE01.JPG,AFNE01.JPG,AFNE01.JPG,AFNE01.JPG,,,,,,,,,2,1,21,9,,,,,,,,,,,,,,,AMSA07.jpg,AMNE08.jpg,AMNE20.jpg,AMSA13.jpg,AMNE08.jpg,MN,1,num_6,32,num_4,0.81673883833,,,2017_May_30_1410,60.0069095514,MAFE4ImagesEEG,001,200279,
AFNE01.JPG,AFNE01.JPG,AFNE01.JPG,AFNE01.JPG,AFNE01.JPG,AFNE01.JPG,,,,,,,,,2,2,22,5,,,,,,,,,,,,,,,AMSA19.jpg,AMSA09.jpg,AMNE18.jpg,AMNE06.jpg,AMSA19.jpg,MS,2,num_8,32,num_2,0.533462954918,,,2017_May_30_1410,60.0069095514,MAFE4ImagesEEG,001,200279,
AFNE01.JPG,AFNE01.JPG,AFNE01.JPG,AFNE01.JPG,AFNE01.JPG,AFNE01.JPG,,,,,,,,,2,3,23,8,,,,,,,,,,,,,,,AMNE14.jpg,AMNE05.jpg,AMSA20.jpg,AMSA05.jpg,AMSA05.jpg,MS,2,num_4,32,num_8,0.516737651778,,,2017_May_30_1410,60.0069095514,MAFE4ImagesEEG,001,200279,
AFNE01.JPG,AFNE01.JPG,AFNE01.JPG,AFNE01.JPG,AFNE01.JPG,AFNE01.JPG,,,,,,,,,2,4,24,7,,,,,,,,,,,,,,,AMSA05.jpg,AMSA06.jpg,AMNE08.jpg,AMNE11.jpg,AMNE08.jpg,MN,1,num_2,32,num_4,0.433505324647,,,2017_May_30_1410,60.0069095514,MAFE4ImagesEEG,001,200279,
AFNE01.JPG,AFNE01.JPG,AFNE01.JPG,AFNE01.JPG,AFNE01.JPG,AFNE01.JPG,,,,,,,,,2,5,25,4,,,,,,,,,,,,,,,AMSA02.jpg,AMNE09.jpg,AMSA16.jpg,AMNE04.jpg,AMSA02.jpg,MS,2,num_8,32,num_6,0.5334991985,,,2017_May_30_1410,60.0069095514,MAFE4ImagesEEG,001,200279,
AFNE01.JPG,AFNE01.JPG,AFNE01.JPG,AFNE01.JPG,AFNE01.JPG,AFNE01.JPG,,,,,,,,,2,6,26,2,,,,,,,,,,,,,,,AMNE09.jpg,AMSA12.jpg,AMSA14.jpg,AMNE12.jpg,AMSA14.jpg,MS,2,num_2,32,num_8,0.616487121908,,,2017_May_30_1410,60.0069095514,MAFE4ImagesEEG,001,200279,
AFNE01.JPG,AFNE01.JPG,AFNE01.JPG,AFNE01.JPG,AFNE01.JPG,AFNE01.JPG,,,,,,,,,2,7,27,1,,,,,,,,,,,,,,,AMNE03.jpg,AMSA19.jpg,AMNE19.jpg,AMSA07.jpg,AMSA19.jpg,MS,2,num_6,32,num_4,0.50014930428,,,2017_May_30_1410,60.0069095514,MAFE4ImagesEEG,001,200279,
AFNE01.JPG,AFNE01.JPG,AFNE01.JPG,AFNE01.JPG,AFNE01.JPG,AFNE01.JPG,,,,,,,,,2,8,28,3,,,,,,,,,,,,,,,AMSA18.jpg,AMNE17.jpg,AMNE03.jpg,AMSA07.jpg,AMSA18.jpg,MS,2,num_8,16,num_8,0.633692251984,,,2017_May_30_1410,60.0069095514,MAFE4ImagesEEG,001,200279,
AFNE01.JPG,AFNE01.JPG,AFNE01.JPG,AFNE01.JPG,AFNE01.JPG,AFNE01.JPG,,,,,,,,,2,9,29,0,,,,,,,,,,,,,,,AMNE08.jpg,AMSA13.jpg,AMSA16.jpg,AMNE14.jpg,AMSA16.jpg,MS,2,num_2,32,num_6,0.666777856415,,,2017_May_30_1410,60.0069095514,MAFE4ImagesEEG,001,200279,
AFNE01.JPG,AFNE01.JPG,AFNE01.JPG,AFNE01.JPG,AFNE01.JPG,AFNE01.JPG,,,,,,,,,3,0,30,4,,,,,,,,,,,,,,,AMSA05.jpg,AMSA03.jpg,AMNE01.jpg,AMNE18.jpg,AMSA05.jpg,MS,2,num_8,32,num_2,0.700155013707,,,2017_May_30_1410,60.0069095514,MAFE4ImagesEEG,001,200279,
AFNE01.JPG,AFNE01.JPG,AFNE01.JPG,AFNE01.JPG,AFNE01.JPG,AFNE01.JPG,,,,,,,,,3,1,31,1,,,,,,,,,,,,,,,AMSA08.jpg,AMSA11.jpg,AMNE13.jpg,AMNE12.jpg,AMNE13.jpg,MN,1,num_2,32,num_4,0.666681955336,,,2017_May_30_1410,60.0069095514,MAFE4ImagesEEG,001,200279,
AFNE01.JPG,AFNE01.JPG,AFNE01.JPG,AFNE01.JPG,AFNE01.JPG,AFNE01.JPG,,,,,,,,,3,2,32,3,,,,,,,,,,,,,,,AMSA14.jpg,AMNE09.jpg,AMSA13.jpg,AMNE17.jpg,AMNE09.jpg,MN,1,num_6,16,num_6,0.433623998426,,,2017_May_30_1410,60.0069095514,MAFE4ImagesEEG,001,200279,
AFNE01.JPG,AFNE01.JPG,AFNE01.JPG,AFNE01.JPG,AFNE01.JPG,AFNE01.JPG,,,,,,,,,3,3,33,8,,,,,,,,,,,,,,,AMSA08.jpg,AMSA04.jpg,AMNE08.jpg,AMNE03.jpg,AMSA04.jpg,MS,2,num_6,32,num_8,0.533726603026,,,2017_May_30_1410,60.0069095514,MAFE4ImagesEEG,001,200279,
AFNE01.JPG,AFNE01.JPG,AFNE01.JPG,AFNE01.JPG,AFNE01.JPG,AFNE01.JPG,,,,,,,,,3,4,34,7,,,,,,,,,,,,,,,AMSA09.jpg,AMSA15.jpg,AMNE05.jpg,AMNE20.jpg,AMSA15.jpg,MS,2,num_6,32,num_4,0.583450911101,,,2017_May_30_1410,60.0069095514,MAFE4ImagesEEG,001,200279,
AFNE01.JPG,AFNE01.JPG,AFNE01.JPG,AFNE01.JPG,AFNE01.JPG,AFNE01.JPG,,,,,,,,,3,5,35,2,,,,,,,,,,,,,,,AMSA19.jpg,AMNE14.jpg,AMSA15.jpg,AMNE19.jpg,AMNE14.jpg,MN,1,num_6,16,num_6,0.483501299284,,,2017_May_30_1410,60.0069095514,MAFE4ImagesEEG,001,200279,
AFNE01.JPG,AFNE01.JPG,AFNE01.JPG,AFNE01.JPG,AFNE01.JPG,AFNE01.JPG,,,,,,,,,3,6,36,6,,,,,,,,,,,,,,,AMSA02.jpg,AMSA15.jpg,AMNE08.jpg,AMNE07.jpg,AMSA02.jpg,MS,2,num_8,16,num_8,0.350151757943,,,2017_May_30_1410,60.0069095514,MAFE4ImagesEEG,001,200279,
AFNE01.JPG,AFNE01.JPG,AFNE01.JPG,AFNE01.JPG,AFNE01.JPG,AFNE01.JPG,,,,,,,,,3,7,37,5,,,,,,,,,,,,,,,AMNE17.jpg,AMNE01.jpg,AMSA11.jpg,AMSA10.jpg,AMNE01.jpg,MN,1,num_6,32,num_2,0.466642568586,,,2017_May_30_1410,60.0069095514,MAFE4ImagesEEG,001,200279,
AFNE01.JPG,AFNE01.JPG,AFNE01.JPG,AFNE01.JPG,AFNE01.JPG,AFNE01.JPG,,,,,,,,,3,8,38,9,,,,,,,,,,,,,,,AMNE06.jpg,AMSA04.jpg,AMSA20.jpg,AMNE12.jpg,AMSA04.jpg,MS,2,num_6,16,num_6,0.650178604061,,,2017_May_30_1410,60.0069095514,MAFE4ImagesEEG,001,200279,
AFNE01.JPG,AFNE01.JPG,AFNE01.JPG,AFNE01.JPG,AFNE01.JPG,AFNE01.JPG,,,,,,,,,3,9,39,0,,,,,,,,,,,,,,,AMSA01.jpg,AMNE10.jpg,AMNE20.jpg,AMSA19.jpg,AMNE10.jpg,MN,1,num_6,32,num_4,0.600274681812,,,2017_May_30_1410,60.0069095514,MAFE4ImagesEEG,001,200279,
AFNE01.JPG,AFNE01.JPG,AFNE01.JPG,AFNE01.JPG,AFNE01.JPG,AFNE01.JPG,,,,,,,,,4,0,40,5,,,,,,,,,,,,,,,AMNE11.jpg,AMSA15.jpg,AMSA18.jpg,AMNE10.jpg,AMNE11.jpg,MN,1,num_8,16,num_8,0.566688402323,,,2017_May_30_1410,60.0069095514,MAFE4ImagesEEG,001,200279,
AFNE01.JPG,AFNE01.JPG,AFNE01.JPG,AFNE01.JPG,AFNE01.JPG,AFNE01.JPG,,,,,,,,,4,1,41,9,,,,,,,,,,,,,,,AMSA15.jpg,AMNE10.jpg,AMSA16.jpg,AMNE17.jpg,AMNE17.jpg,MN,1,num_4,32,num_6,0.383492350811,,,2017_May_30_1410,60.0069095514,MAFE4ImagesEEG,001,200279,
AFNE01.JPG,AFNE01.JPG,AFNE01.JPG,AFNE01.JPG,AFNE01.JPG,AFNE01.JPG,,,,,,,,,4,2,42,0,,,,,,,,,,,,,,,AMNE15.jpg,AMSA20.jpg,AMNE04.jpg,AMSA08.jpg,AMSA20.jpg,MS,2,num_6,32,num_4,0.600130027859,,,2017_May_30_1410,60.0069095514,MAFE4ImagesEEG,001,200279,
AFNE01.JPG,AFNE01.JPG,AFNE01.JPG,AFNE01.JPG,AFNE01.JPG,AFNE01.JPG,,,,,,,,,4,3,43,6,,,,,,,,,,,,,,,AMSA01.jpg,AMSA20.jpg,AMNE04.jpg,AMNE08.jpg,AMNE08.jpg,MN,1,num_4,32,num_2,0.450126387645,,,2017_May_30_1410,60.0069095514,MAFE4ImagesEEG,001,200279,
AFNE01.JPG,AFNE01.JPG,AFNE01.JPG,AFNE01.JPG,AFNE01.JPG,AFNE01.JPG,,,,,,,,,4,4,44,8,,,,,,,,,,,,,,,AMNE19.jpg,AMSA20.jpg,AMSA09.jpg,AMNE04.jpg,AMNE04.jpg,MN,1,num_4,32,num_8,0.550143675646,,,2017_May_30_1410,60.0069095514,MAFE4ImagesEEG,001,200279,
AFNE01.JPG,AFNE01.JPG,AFNE01.JPG,AFNE01.JPG,AFNE01.JPG,AFNE01.JPG,,,,,,,,,4,5,45,4,,,,,,,,,,,,,,,AMSA08.jpg,AMSA13.jpg,AMNE03.jpg,AMNE02.jpg,AMSA08.jpg,MS,2,num_8,32,num_4,0.516792177455,,,2017_May_30_1410,60.0069095514,MAFE4ImagesEEG,001,200279,
AFNE01.JPG,AFNE01.JPG,AFNE01.JPG,AFNE01.JPG,AFNE01.JPG,AFNE01.JPG,,,,,,,,,4,6,46,3,,,,,,,,,,,,,,,AMNE08.jpg,AMSA08.jpg,AMSA19.jpg,AMNE20.jpg,AMNE08.jpg,MN,1,num_8,32,num_6,0.533467124682,,,2017_May_30_1410,60.0069095514,MAFE4ImagesEEG,001,200279,
AFNE01.JPG,AFNE01.JPG,AFNE01.JPG,AFNE01.JPG,AFNE01.JPG,AFNE01.JPG,,,,,,,,,4,7,47,2,,,,,,,,,,,,,,,AMNE13.jpg,AMNE05.jpg,AMSA17.jpg,AMSA11.jpg,AMSA17.jpg,MS,2,num_2,16,num_2,0.366792706773,,,2017_May_30_1410,60.0069095514,MAFE4ImagesEEG,001,200279,
AFNE01.JPG,AFNE01.JPG,AFNE01.JPG,AFNE01.JPG,AFNE01.JPG,AFNE01.JPG,,,,,,,,,4,8,48,1,,,,,,,,,,,,,,,AMNE09.jpg,AMSA04.jpg,AMNE16.jpg,AMSA02.jpg,AMSA02.jpg,MS,2,num_4,16,num_4,0.400196164381,,,2017_May_30_1410,60.0069095514,MAFE4ImagesEEG,001,200279,
AFNE01.JPG,AFNE01.JPG,AFNE01.JPG,AFNE01.JPG,AFNE01.JPG,AFNE01.JPG,,,,,,,,,4,9,49,7,,,,,,,,,,,,,,,AMNE16.jpg,AMSA10.jpg,AMSA19.jpg,AMNE02.jpg,AMSA19.jpg,MS,2,num_2,32,num_6,0.48344003805,,,2017_May_30_1410,60.0069095514,MAFE4ImagesEEG,001,200279,
AFNE01.JPG,AFNE01.JPG,AFNE01.JPG,AFNE01.JPG,AFNE01.JPG,AFNE01.JPG,,,,,,,,,5,0,50,6,,,,,,,,,,,,,,,AMNE09.jpg,AMSA03.jpg,AMNE03.jpg,AMSA08.jpg,AMSA03.jpg,MS,2,num_6,32,num_8,0.416930127889,,,2017_May_30_1410,60.0069095514,MAFE4ImagesEEG,001,200279,
AFNE01.JPG,AFNE01.JPG,AFNE01.JPG,AFNE01.JPG,AFNE01.JPG,AFNE01.JPG,,,,,,,,,5,1,51,7,,,,,,,,,,,,,,,AMNE11.jpg,AMSA19.jpg,AMNE14.jpg,AMSA20.jpg,AMSA20.jpg,MS,2,num_4,16,num_4,0.48346184846,,,2017_May_30_1410,60.0069095514,MAFE4ImagesEEG,001,200279,
AFNE01.JPG,AFNE01.JPG,AFNE01.JPG,AFNE01.JPG,AFNE01.JPG,AFNE01.JPG,,,,,,,,,5,2,52,9,,,,,,,,,,,,,,,AMNE10.jpg,AMNE14.jpg,AMSA01.jpg,AMSA03.jpg,AMNE10.jpg,MN,1,num_8,32,num_2,0.350191209,,,2017_May_30_1410,60.0069095514,MAFE4ImagesEEG,001,200279,
AFNE01.JPG,AFNE01.JPG,AFNE01.JPG,AFNE01.JPG,AFNE01.JPG,AFNE01.JPG,,,,,,,,,5,3,53,2,,,,,,,,,,,,,,,AMSA08.jpg,AMSA20.jpg,AMNE18.jpg,AMNE07.jpg,AMNE18.jpg,MN,1,num_2,32,num_6,0.516777423676,,,2017_May_30_1410,60.0069095514,MAFE4ImagesEEG,001,200279,
AFNE01.JPG,AFNE01.JPG,AFNE01.JPG,AFNE01.JPG,AFNE01.JPG,AFNE01.JPG,,,,,,,,,5,4,54,8,,,,,,,,,,,,,,,AMNE11.jpg,AMSA14.jpg,AMNE01.jpg,AMSA09.jpg,AMSA09.jpg,MS,2,num_4,32,num_8,0.566794887884,,,2017_May_30_1410,60.0069095514,MAFE4ImagesEEG,001,200279,
AFNE01.JPG,AFNE01.JPG,AFNE01.JPG,AFNE01.JPG,AFNE01.JPG,AFNE01.JPG,,,,,,,,,5,5,55,5,,,,,,,,,,,,,,,AMNE06.jpg,AMSA14.jpg,AMNE07.jpg,AMSA05.jpg,AMSA05.jpg,MS,2,num_4,16,num_4,0.600146385841,,,2017_May_30_1410,60.0069095514,MAFE4ImagesEEG,001,200279,
AFNE01.JPG,AFNE01.JPG,AFNE01.JPG,AFNE01.JPG,AFNE01.JPG,AFNE01.JPG,,,,,,,,,5,6,56,3,,,,,,,,,,,,,,,AMNE08.jpg,AMSA11.jpg,AMSA01.jpg,AMNE19.jpg,AMNE08.jpg,MN,1,num_8,32,num_6,0.850134277716,,,2017_May_30_1410,60.0069095514,MAFE4ImagesEEG,001,200279,
AFNE01.JPG,AFNE01.JPG,AFNE01.JPG,AFNE01.JPG,AFNE01.JPG,AFNE01.JPG,,,,,,,,,5,7,57,0,,,,,,,,,,,,,,,AMSA16.jpg,AMSA13.jpg,AMNE01.jpg,AMNE13.jpg,AMSA16.jpg,MS,2,num_8,16,num_8,0.616861746181,,,2017_May_30_1410,60.0069095514,MAFE4ImagesEEG,001,200279,
AFNE01.JPG,AFNE01.JPG,AFNE01.JPG,AFNE01.JPG,AFNE01.JPG,AFNE01.JPG,,,,,,,,,5,8,58,1,,,,,,,,,,,,,,,AMSA20.jpg,AMSA05.jpg,AMNE03.jpg,AMNE07.jpg,AMNE03.jpg,MN,1,num_2,16,num_2,0.516797950957,,,2017_May_30_1410,60.0069095514,MAFE4ImagesEEG,001,200279,
AFNE01.JPG,AFNE01.JPG,AFNE01.JPG,AFNE01.JPG,AFNE01.JPG,AFNE01.JPG,,,,,,,,,5,9,59,4,,,,,,,,,,,,,,,AMNE19.jpg,AMSA13.jpg,AMSA01.jpg,AMNE02.jpg,AMSA13.jpg,MS,2,num_6,16,num_6,0.516890003113,,,2017_May_30_1410,60.0069095514,MAFE4ImagesEEG,001,200279,
,,,,,,,,,,,,,,,,,,,,,,,,,,,,,,,,,,,,,,,,,,,space,16.6822179549,2017_May_30_1410,60.0069095514,MAFE4ImagesEEG,001,200279,
AFNE01.JPG,AFNE01.JPG,AFNE01.JPG,AFNE01.JPG,AFNE01.JPG,AFNE01.JPG,,,,,,,,,,,,,0,0,0,3,,,,,,,,,,,AFNE07.jpg,AFSA04.jpg,AFSA06.jpg,AFNE17.jpg,AFSA06.jpg,FS,4,num_2,32,num_6,0.366794631118,,,2017_May_30_1410,60.0069095514,MAFE4ImagesEEG,001,200279,
AFNE01.JPG,AFNE01.JPG,AFNE01.JPG,AFNE01.JPG,AFNE01.JPG,AFNE01.JPG,,,,,,,,,,,,,0,1,1,5,,,,,,,,,,,AFNE19.jpg,AFSA20.jpg,AFSA15.jpg,AFNE05.jpg,AFSA15.jpg,FS,4,num_2,32,num_4,0.683495462174,,,2017_May_30_1410,60.0069095514,MAFE4ImagesEEG,001,200279,
AFNE01.JPG,AFNE01.JPG,AFNE01.JPG,AFNE01.JPG,AFNE01.JPG,AFNE01.JPG,,,,,,,,,,,,,0,2,2,6,,,,,,,,,,,AFSA05.jpg,AFSA19.jpg,AFNE19.jpg,AFNE07.jpg,AFNE07.jpg,FN,3,num_4,32,num_8,0.516779347789,,,2017_May_30_1410,60.0069095514,MAFE4ImagesEEG,001,200279,
AFNE01.JPG,AFNE01.JPG,AFNE01.JPG,AFNE01.JPG,AFNE01.JPG,AFNE01.JPG,,,,,,,,,,,,,0,3,3,8,,,,,,,,,,,AFNE03.jpg,AFSA10.jpg,AFNE10.jpg,AFSA14.jpg,AFSA10.jpg,FS,4,num_6,32,num_2,0.516794102034,,,2017_May_30_1410,60.0069095514,MAFE4ImagesEEG,001,200279,
AFNE01.JPG,AFNE01.JPG,AFNE01.JPG,AFNE01.JPG,AFNE01.JPG,AFNE01.JPG,,,,,,,,,,,,,0,4,4,7,,,,,,,,,,,AFSA12.jpg,AFSA20.jpg,AFNE03.jpg,AFNE12.jpg,AFSA12.jpg,FS,4,num_8,32,num_4,0.333495413885,,,2017_May_30_1410,60.0069095514,MAFE4ImagesEEG,001,200279,
AFNE01.JPG,AFNE01.JPG,AFNE01.JPG,AFNE01.JPG,AFNE01.JPG,AFNE01.JPG,,,,,,,,,,,,,0,5,5,1,,,,,,,,,,,AFSA18.jpg,AFNE13.jpg,AFSA04.jpg,AFNE14.jpg,AFNE13.jpg,FN,3,num_6,32,num_4,0.550122506451,,,2017_May_30_1410,60.0069095514,MAFE4ImagesEEG,001,200279,
AFNE01.JPG,AFNE01.JPG,AFNE01.JPG,AFNE01.JPG,AFNE01.JPG,AFNE01.JPG,,,,,,,,,,,,,0,6,6,9,,,,,,,,,,,AFSA11.jpg,AFNE15.jpg,AFNE08.jpg,AFSA18.jpg,AFSA18.jpg,FS,4,num_4,32,num_6,0.433887646766,,,2017_May_30_1410,60.0069095514,MAFE4ImagesEEG,001,200279,
AFNE01.JPG,AFNE01.JPG,AFNE01.JPG,AFNE01.JPG,AFNE01.JPG,AFNE01.JPG,,,,,,,,,,,,,0,7,7,2,,,,,,,,,,,AFNE02.jpg,AFNE10.jpg,AFSA20.jpg,AFSA09.jpg,AFSA20.jpg,FS,4,num_2,32,num_8,0.516842212994,,,2017_May_30_1410,60.0069095514,MAFE4ImagesEEG,001,200279,
AFNE01.JPG,AFNE01.JPG,AFNE01.JPG,AFNE01.JPG,AFNE01.JPG,AFNE01.JPG,,,,,,,,,,,,,0,8,8,0,,,,,,,,,,,AFNE03.jpg,AFSA20.jpg,AFNE12.jpg,AFSA17.jpg,AFNE03.jpg,FN,3,num_8,32,num_2,1.56673907908,,,2017_May_30_1410,60.0069095514,MAFE4ImagesEEG,001,200279,
AFNE01.JPG,AFNE01.JPG,AFNE01.JPG,AFNE01.JPG,AFNE01.JPG,AFNE01.JPG,,,,,,,,,,,,,0,9,9,4,,,,,,,,,,,AFSA07.jpg,AFNE07.jpg,AFSA06.jpg,AFNE15.jpg,AFNE15.jpg,FN,3,num_4,32,num_8,0.366806819336,,,2017_May_30_1410,60.0069095514,MAFE4ImagesEEG,001,200279,
AFNE01.JPG,AFNE01.JPG,AFNE01.JPG,AFNE01.JPG,AFNE01.JPG,AFNE01.JPG,,,,,,,,,,,,,1,0,10,3,,,,,,,,,,,AFSA14.jpg,AFSA06.jpg,AFNE19.jpg,AFNE06.jpg,AFSA14.jpg,FS,4,num_8,32,num_6,0.366753255716,,,2017_May_30_1410,60.0069095514,MAFE4ImagesEEG,001,200279,
AFNE01.JPG,AFNE01.JPG,AFNE01.JPG,AFNE01.JPG,AFNE01.JPG,AFNE01.JPG,,,,,,,,,,,,,1,1,11,2,,,,,,,,,,,AFNE16.jpg,AFNE14.jpg,AFSA19.jpg,AFSA05.jpg,AFSA19.jpg,FS,4,num_2,32,num_4,0.366822535638,,,2017_May_30_1410,60.0069095514,MAFE4ImagesEEG,001,200279,
AFNE01.JPG,AFNE01.JPG,AFNE01.JPG,AFNE01.JPG,AFNE01.JPG,AFNE01.JPG,,,,,,,,,,,,,1,2,12,6,,,,,,,,,,,AFNE10.jpg,AFNE16.jpg,AFSA06.jpg,AFSA05.jpg,AFSA06.jpg,FS,4,num_2,32,num_8,0.816792401951,,,2017_May_30_1410,60.0069095514,MAFE4ImagesEEG,001,200279,
AFNE01.JPG,AFNE01.JPG,AFNE01.JPG,AFNE01.JPG,AFNE01.JPG,AFNE01.JPG,,,,,,,,,,,,,1,3,13,8,,,,,,,,,,,AFNE07.jpg,AFNE10.jpg,AFSA13.jpg,AFSA04.jpg,AFNE10.jpg,FN,3,num_6,32,num_2,0.450223251013,,,2017_May_30_1410,60.0069095514,MAFE4ImagesEEG,001,200279,
AFNE01.JPG,AFNE01.JPG,AFNE01.JPG,AFNE01.JPG,AFNE01.JPG,AFNE01.JPG,,,,,,,,,,,,,1,4,14,7,,,,,,,,,,,AFSA14.jpg,AFNE05.jpg,AFSA19.jpg,AFNE19.jpg,AFNE05.jpg,FN,3,num_6,32,num_4,0.583441930357,,,2017_May_30_1410,60.0069095514,MAFE4ImagesEEG,001,200279,
AFNE01.JPG,AFNE01.JPG,AFNE01.JPG,AFNE01.JPG,AFNE01.JPG,AFNE01.JPG,,,,,,,,,,,,,1,5,15,9,,,,,,,,,,,AFSA14.jpg,AFSA16.jpg,AFNE01.jpg,AFNE07.jpg,AFSA14.jpg,FS,4,num_8,16,num_8,0.533484444721,,,2017_May_30_1410,60.0069095514,MAFE4ImagesEEG,001,200279,
AFNE01.JPG,AFNE01.JPG,AFNE01.JPG,AFNE01.JPG,AFNE01.JPG,AFNE01.JPG,,,,,,,,,,,,,1,6,16,1,,,,,,,,,,,AFNE15.jpg,AFSA16.jpg,AFSA14.jpg,AFNE13.jpg,AFNE15.jpg,FN,3,num_8,32,num_6,0.450196629623,,,2017_May_30_1410,60.0069095514,MAFE4ImagesEEG,001,200279,
AFNE01.JPG,AFNE01.JPG,AFNE01.JPG,AFNE01.JPG,AFNE01.JPG,AFNE01.JPG,,,,,,,,,,,,,1,7,17,4,,,,,,,,,,,AFSA13.jpg,AFSA16.jpg,AFNE17.jpg,AFNE11.jpg,AFSA13.jpg,FS,4,num_8,32,num_2,0.366787895793,,,2017_May_30_1410,60.0069095514,MAFE4ImagesEEG,001,200279,
AFNE01.JPG,AFNE01.JPG,AFNE01.JPG,AFNE01.JPG,AFNE01.JPG,AFNE01.JPG,,,,,,,,,,,,,1,8,18,0,,,,,,,,,,,AFNE15.jpg,AFSA15.jpg,AFNE05.jpg,AFSA16.jpg,AFNE05.jpg,FN,3,num_2,32,num_4,0.616799522424,,,2017_May_30_1410,60.0069095514,MAFE4ImagesEEG,001,200279,
AFNE01.JPG,AFNE01.JPG,AFNE01.JPG,AFNE01.JPG,AFNE01.JPG,AFNE01.JPG,,,,,,,,,,,,,1,9,19,5,,,,,,,,,,,AFSA01.jpg,AFNE07.jpg,AFNE12.jpg,AFSA05.jpg,AFNE07.jpg,FN,3,num_6,32,num_8,0.516701408196,,,2017_May_30_1410,60.0069095514,MAFE4ImagesEEG,001,200279,
AFNE01.JPG,AFNE01.JPG,AFNE01.JPG,AFNE01.JPG,AFNE01.JPG,AFNE01.JPG,,,,,,,,,,,,,2,0,20,4,,,,,,,,,,,AFSA17.jpg,AFNE05.jpg,AFSA15.jpg,AFNE17.jpg,AFSA15.jpg,FS,4,num_2,32,num_6,0.550188899972,,,2017_May_30_1410,60.0069095514,MAFE4ImagesEEG,001,200279,
AFNE01.JPG,AFNE01.JPG,AFNE01.JPG,AFNE01.JPG,AFNE01.JPG,AFNE01.JPG,,,,,,,,,,,,,2,1,21,5,,,,,,,,,,,AFSA04.jpg,AFNE06.jpg,AFNE12.jpg,AFSA11.jpg,AFSA04.jpg,FS,4,num_8,32,num_4,0.566796170548,,,2017_May_30_1410,60.0069095514,MAFE4ImagesEEG,001,200279,
AFNE01.JPG,AFNE01.JPG,AFNE01.JPG,AFNE01.JPG,AFNE01.JPG,AFNE01.JPG,,,,,,,,,,,,,2,2,22,3,,,,,,,,,,,AFSA19.jpg,AFSA11.jpg,AFNE12.jpg,AFNE07.jpg,AFSA11.jpg,FS,4,num_6,32,num_2,0.366814196343,,,2017_May_30_1410,60.0069095514,MAFE4ImagesEEG,001,200279,
AFNE01.JPG,AFNE01.JPG,AFNE01.JPG,AFNE01.JPG,AFNE01.JPG,AFNE01.JPG,,,,,,,,,,,,,2,3,23,7,,,,,,,,,,,AFSA08.jpg,AFSA15.jpg,AFNE18.jpg,AFNE05.jpg,AFNE05.jpg,FN,3,num_4,32,num_8,0.400048944866,,,2017_May_30_1410,60.0069095514,MAFE4ImagesEEG,001,200279,
AFNE01.JPG,AFNE01.JPG,AFNE01.JPG,AFNE01.JPG,AFNE01.JPG,AFNE01.JPG,,,,,,,,,,,,,2,4,24,8,,,,,,,,,,,AFSA20.jpg,AFSA16.jpg,AFNE09.jpg,AFNE03.jpg,AFNE03.jpg,FN,3,num_4,16,num_4,0.633484091843,,,2017_May_30_1410,60.0069095514,MAFE4ImagesEEG,001,200279,
AFNE01.JPG,AFNE01.JPG,AFNE01.JPG,AFNE01.JPG,AFNE01.JPG,AFNE01.JPG,,,,,,,,,,,,,2,5,25,1,,,,,,,,,,,AFSA04.jpg,AFSA07.jpg,AFNE06.jpg,AFNE03.jpg,AFSA04.jpg,FS,4,num_8,32,num_2,0.38355649868,,,2017_May_30_1410,60.0069095514,MAFE4ImagesEEG,001,200279,
AFNE01.JPG,AFNE01.JPG,AFNE01.JPG,AFNE01.JPG,AFNE01.JPG,AFNE01.JPG,,,,,,,,,,,,,2,6,26,0,,,,,,,,,,,AFNE13.jpg,AFSA11.jpg,AFSA15.jpg,AFNE11.jpg,AFSA11.jpg,FS,4,num_6,16,num_6,0.450188290328,,,2017_May_30_1410,60.0069095514,MAFE4ImagesEEG,001,200279,
AFNE01.JPG,AFNE01.JPG,AFNE01.JPG,AFNE01.JPG,AFNE01.JPG,AFNE01.JPG,,,,,,,,,,,,,2,7,27,6,,,,,,,,,,,AFNE05.jpg,AFNE18.jpg,AFSA11.jpg,AFSA01.jpg,AFSA11.jpg,FS,4,num_2,32,num_8,0.733208544087,,,2017_May_30_1410,60.0069095514,MAFE4ImagesEEG,001,200279,
AFNE01.JPG,AFNE01.JPG,AFNE01.JPG,AFNE01.JPG,AFNE01.JPG,AFNE01.JPG,,,,,,,,,,,,,2,8,28,9,,,,,,,,,,,AFSA13.jpg,AFNE06.jpg,AFSA02.jpg,AFNE03.jpg,AFSA13.jpg,FS,4,num_8,32,num_4,0.383499086369,,,2017_May_30_1410,60.0069095514,MAFE4ImagesEEG,001,200279,
AFNE01.JPG,AFNE01.JPG,AFNE01.JPG,AFNE01.JPG,AFNE01.JPG,AFNE01.JPG,,,,,,,,,,,,,2,9,29,2,,,,,,,,,,,AFNE18.jpg,AFSA16.jpg,AFSA03.jpg,AFNE08.jpg,AFSA16.jpg,FS,4,num_6,32,num_2,0.350170681719,,,2017_May_30_1410,60.0069095514,MAFE4ImagesEEG,001,200279,
AFNE01.JPG,AFNE01.JPG,AFNE01.JPG,AFNE01.JPG,AFNE01.JPG,AFNE01.JPG,,,,,,,,,,,,,3,0,30,6,,,,,,,,,,,AFSA14.jpg,AFNE17.jpg,AFSA12.jpg,AFNE20.jpg,AFSA14.jpg,FS,4,num_8,16,num_8,0.383567083161,,,2017_May_30_1410,60.0069095514,MAFE4ImagesEEG,001,200279,
AFNE01.JPG,AFNE01.JPG,AFNE01.JPG,AFNE01.JPG,AFNE01.JPG,AFNE01.JPG,,,,,,,,,,,,,3,1,31,8,,,,,,,,,,,AFNE04.jpg,AFSA14.jpg,AFSA04.jpg,AFNE16.jpg,AFSA04.jpg,FS,4,num_2,32,num_4,0.550135977566,,,2017_May_30_1410,60.0069095514,MAFE4ImagesEEG,001,200279,
AFNE01.JPG,AFNE01.JPG,AFNE01.JPG,AFNE01.JPG,AFNE01.JPG,AFNE01.JPG,,,,,,,,,,,,,3,2,32,7,,,,,,,,,,,AFSA09.jpg,AFNE15.jpg,AFNE18.jpg,AFSA08.jpg,AFSA08.jpg,FS,4,num_4,32,num_2,0.733423440019,,,2017_May_30_1410,60.0069095514,MAFE4ImagesEEG,001,200279,
AFNE01.JPG,AFNE01.JPG,AFNE01.JPG,AFNE01.JPG,AFNE01.JPG,AFNE01.JPG,,,,,,,,,,,,,3,3,33,9,,,,,,,,,,,AFSA01.jpg,AFNE17.jpg,AFNE03.jpg,AFSA08.jpg,AFNE17.jpg,FN,3,num_6,32,num_8,0.350192492129,,,2017_May_30_1410,60.0069095514,MAFE4ImagesEEG,001,200279,
AFNE01.JPG,AFNE01.JPG,AFNE01.JPG,AFNE01.JPG,AFNE01.JPG,AFNE01.JPG,,,,,,,,,,,,,3,4,34,3,,,,,,,,,,,AFNE01.jpg,AFNE10.jpg,AFSA20.jpg,AFSA02.jpg,AFSA02.jpg,FS,4,num_4,32,num_2,0.416793171782,,,2017_May_30_1410,60.0069095514,MAFE4ImagesEEG,001,200279,
AFNE01.JPG,AFNE01.JPG,AFNE01.JPG,AFNE01.JPG,AFNE01.JPG,AFNE01.JPG,,,,,,,,,,,,,3,5,35,1,,,,,,,,,,,AFSA02.jpg,AFNE17.jpg,AFSA16.jpg,AFNE09.jpg,AFSA02.jpg,FS,4,num_8,32,num_6,0.75015323353,,,2017_May_30_1410,60.0069095514,MAFE4ImagesEEG,001,200279,
AFNE01.JPG,AFNE01.JPG,AFNE01.JPG,AFNE01.JPG,AFNE01.JPG,AFNE01.JPG,,,,,,,,,,,,,3,6,36,5,,,,,,,,,,,AFNE05.jpg,AFSA07.jpg,AFSA12.jpg,AFNE06.jpg,AFNE06.jpg,FN,3,num_4,16,num_4,0.600180384004,,,2017_May_30_1410,60.0069095514,MAFE4ImagesEEG,001,200279,
AFNE01.JPG,AFNE01.JPG,AFNE01.JPG,AFNE01.JPG,AFNE01.JPG,AFNE01.JPG,,,,,,,,,,,,,3,7,37,0,,,,,,,,,,,AFNE02.jpg,AFSA03.jpg,AFSA18.jpg,AFNE03.jpg,AFSA03.jpg,FS,4,num_6,32,num_8,0.783420056105,,,2017_May_30_1410,60.0069095514,MAFE4ImagesEEG,001,200279,
AFNE01.JPG,AFNE01.JPG,AFNE01.JPG,AFNE01.JPG,AFNE01.JPG,AFNE01.JPG,,,,,,,,,,,,,3,8,38,2,,,,,,,,,,,AFNE19.jpg,AFSA05.jpg,AFNE09.jpg,AFSA09.jpg,AFNE09.jpg,FN,3,num_2,32,num_4,0.600143178133,,,2017_May_30_1410,60.0069095514,MAFE4ImagesEEG,001,200279,
AFNE01.JPG,AFNE01.JPG,AFNE01.JPG,AFNE01.JPG,AFNE01.JPG,AFNE01.JPG,,,,,,,,,,,,,3,9,39,4,,,,,,,,,,,AFSA16.jpg,AFNE05.jpg,AFSA06.jpg,AFNE18.jpg,AFNE05.jpg,FN,3,num_6,32,num_4,0.766815671697,,,2017_May_30_1410,60.0069095514,MAFE4ImagesEEG,001,200279,
AFNE01.JPG,AFNE01.JPG,AFNE01.JPG,AFNE01.JPG,AFNE01.JPG,AFNE01.JPG,,,,,,,,,,,,,4,0,40,2,,,,,,,,,,,AFNE16.jpg,AFNE11.jpg,AFSA12.jpg,AFSA10.jpg,AFSA10.jpg,FS,4,num_4,16,num_4,0.650182773825,,,2017_May_30_1410,60.0069095514,MAFE4ImagesEEG,001,200279,
AFNE01.JPG,AFNE01.JPG,AFNE01.JPG,AFNE01.JPG,AFNE01.JPG,AFNE01.JPG,,,,,,,,,,,,,4,1,41,7,,,,,,,,,,,AFNE07.jpg,AFSA10.jpg,AFSA03.jpg,AFNE01.jpg,AFNE07.jpg,FN,3,num_8,32,num_6,0.583474004408,,,2017_May_30_1410,60.0069095514,MAFE4ImagesEEG,001,200279,
AFNE01.JPG,AFNE01.JPG,AFNE01.JPG,AFNE01.JPG,AFNE01.JPG,AFNE01.JPG,,,,,,,,,,,,,4,2,42,3,,,,,,,,,,,AFSA05.jpg,AFNE19.jpg,AFNE04.jpg,AFSA02.jpg,AFSA05.jpg,FS,4,num_8,32,num_4,0.516817515949,,,2017_May_30_1410,60.0069095514,MAFE4ImagesEEG,001,200279,
AFNE01.JPG,AFNE01.JPG,AFNE01.JPG,AFNE01.JPG,AFNE01.JPG,AFNE01.JPG,,,,,,,,,,,,,4,3,43,1,,,,,,,,,,,AFNE09.jpg,AFSA07.jpg,AFSA18.jpg,AFNE17.jpg,AFSA07.jpg,FS,4,num_6,32,num_8,0.58355964208,,,2017_May_30_1410,60.0069095514,MAFE4ImagesEEG,001,200279,
AFNE01.JPG,AFNE01.JPG,AFNE01.JPG,AFNE01.JPG,AFNE01.JPG,AFNE01.JPG,,,,,,,,,,,,,4,4,44,8,,,,,,,,,,,AFNE16.jpg,AFNE19.jpg,AFSA17.jpg,AFSA02.jpg,AFSA02.jpg,FS,4,num_4,32,num_6,0.450158140855,,,2017_May_30_1410,60.0069095514,MAFE4ImagesEEG,001,200279,
AFNE01.JPG,AFNE01.JPG,AFNE01.JPG,AFNE01.JPG,AFNE01.JPG,AFNE01.JPG,,,,,,,,,,,,,4,5,45,6,,,,,,,,,,,AFSA03.jpg,AFSA13.jpg,AFNE09.jpg,AFNE04.jpg,AFNE09.jpg,FN,3,num_2,32,num_4,0.633475111099,,,2017_May_30_1410,60.0069095514,MAFE4ImagesEEG,001,200279,
AFNE01.JPG,AFNE01.JPG,AFNE01.JPG,AFNE01.JPG,AFNE01.JPG,AFNE01.JPG,,,,,,,,,,,,,4,6,46,0,,,,,,,,,,,AFSA06.jpg,AFNE15.jpg,AFSA19.jpg,AFNE11.jpg,AFSA06.jpg,FS,4,num_8,32,num_4,0.650128568523,,,2017_May_30_1410,60.0069095514,MAFE4ImagesEEG,001,200279,
AFNE01.JPG,AFNE01.JPG,AFNE01.JPG,AFNE01.JPG,AFNE01.JPG,AFNE01.JPG,,,,,,,,,,,,,4,7,47,5,,,,,,,,,,,AFSA02.jpg,AFNE07.jpg,AFSA19.jpg,AFNE16.jpg,AFSA19.jpg,FS,4,num_2,16,num_2,0.566766983364,,,2017_May_30_1410,60.0069095514,MAFE4ImagesEEG,001,200279,
AFNE01.JPG,AFNE01.JPG,AFNE01.JPG,AFNE01.JPG,AFNE01.JPG,AFNE01.JPG,,,,,,,,,,,,,4,8,48,4,,,,,,,,,,,AFSA11.jpg,AFNE05.jpg,AFNE06.jpg,AFSA19.jpg,AFSA19.jpg,FS,4,num_4,32,num_8,0.983460725984,,,2017_May_30_1410,60.0069095514,MAFE4ImagesEEG,001,200279,
AFNE01.JPG,AFNE01.JPG,AFNE01.JPG,AFNE01.JPG,AFNE01.JPG,AFNE01.JPG,,,,,,,,,,,,,4,9,49,9,,,,,,,,,,,AFNE17.jpg,AFSA17.jpg,AFNE20.jpg,AFSA06.jpg,AFSA06.jpg,FS,4,num_4,32,num_6,0.71677030297,,,2017_May_30_1410,60.0069095514,MAFE4ImagesEEG,001,200279,
AFNE01.JPG,AFNE01.JPG,AFNE01.JPG,AFNE01.JPG,AFNE01.JPG,AFNE01.JPG,,,,,,,,,,,,,5,0,50,6,,,,,,,,,,,AFNE05.jpg,AFSA19.jpg,AFSA11.jpg,AFNE09.jpg,AFNE09.jpg,FN,3,num_4,16,num_4,0.683477500454,,,2017_May_30_1410,60.0069095514,MAFE4ImagesEEG,001,200279,
AFNE01.JPG,AFNE01.JPG,AFNE01.JPG,AFNE01.JPG,AFNE01.JPG,AFNE01.JPG,,,,,,,,,,,,,5,1,51,1,,,,,,,,,,,AFSA11.jpg,AFSA20.jpg,AFNE13.jpg,AFNE19.jpg,AFNE13.jpg,FN,3,num_2,32,num_6,0.583521153312,,,2017_May_30_1410,60.0069095514,MAFE4ImagesEEG,001,200279,
AFNE01.JPG,AFNE01.JPG,AFNE01.JPG,AFNE01.JPG,AFNE01.JPG,AFNE01.JPG,,,,,,,,,,,,,5,2,52,0,,,,,,,,,,,AFSA04.jpg,AFSA13.jpg,AFNE13.jpg,AFNE07.jpg,AFNE13.jpg,FN,3,num_2,32,num_8,0.950140018947,,,2017_May_30_1410,60.0069095514,MAFE4ImagesEEG,001,200279,
AFNE01.JPG,AFNE01.JPG,AFNE01.JPG,AFNE01.JPG,AFNE01.JPG,AFNE01.JPG,,,,,,,,,,,,,5,3,53,2,,,,,,,,,,,AFSA06.jpg,AFSA11.jpg,AFNE03.jpg,AFNE06.jpg,AFSA06.jpg,FS,4,num_8,16,num_8,0.616871047532,,,2017_May_30_1410,60.0069095514,MAFE4ImagesEEG,001,200279,
AFNE01.JPG,AFNE01.JPG,AFNE01.JPG,AFNE01.JPG,AFNE01.JPG,AFNE01.JPG,,,,,,,,,,,,,5,4,54,5,,,,,,,,,,,AFSA06.jpg,AFNE12.jpg,AFNE03.jpg,AFSA03.jpg,AFSA06.jpg,FS,4,num_8,32,num_2,0.450148839271,,,2017_May_30_1410,60.0069095514,MAFE4ImagesEEG,001,200279,
AFNE01.JPG,AFNE01.JPG,AFNE01.JPG,AFNE01.JPG,AFNE01.JPG,AFNE01.JPG,,,,,,,,,,,,,5,5,55,3,,,,,,,,,,,AFNE13.jpg,AFSA16.jpg,AFSA08.jpg,AFNE14.jpg,AFNE14.jpg,FN,3,num_4,16,num_4,0.666779460153,,,2017_May_30_1410,60.0069095514,MAFE4ImagesEEG,001,200279,
AFNE01.JPG,AFNE01.JPG,AFNE01.JPG,AFNE01.JPG,AFNE01.JPG,AFNE01.JPG,,,,,,,,,,,,,5,6,56,7,,,,,,,,,,,AFNE17.jpg,AFSA10.jpg,AFNE05.jpg,AFSA07.jpg,AFSA07.jpg,FS,4,num_4,16,num_4,0.666745461756,,,2017_May_30_1410,60.0069095514,MAFE4ImagesEEG,001,200279,
AFNE01.JPG,AFNE01.JPG,AFNE01.JPG,AFNE01.JPG,AFNE01.JPG,AFNE01.JPG,,,,,,,,,,,,,5,7,57,8,,,,,,,,,,,AFSA04.jpg,AFNE10.jpg,AFNE19.jpg,AFSA10.jpg,AFNE10.jpg,FN,3,num_6,16,num_6,0.750171195017,,,2017_May_30_1410,60.0069095514,MAFE4ImagesEEG,001,200279,
AFNE01.JPG,AFNE01.JPG,AFNE01.JPG,AFNE01.JPG,AFNE01.JPG,AFNE01.JPG,,,,,,,,,,,,,5,8,58,9,,,,,,,,,,,AFSA02.jpg,AFNE12.jpg,AFSA20.jpg,AFNE20.jpg,AFSA20.jpg,FS,4,num_2,32,num_4,0.666775290621,,,2017_May_30_1410,60.0069095514,MAFE4ImagesEEG,001,200279,
AFNE01.JPG,AFNE01.JPG,AFNE01.JPG,AFNE01.JPG,AFNE01.JPG,AFNE01.JPG,,,,,,,,,,,,,5,9,59,4,,,,,,,,,,,AFSA19.jpg,AFNE13.jpg,AFNE03.jpg,AFSA11.jpg,AFSA19.jpg,FS,4,num_8,32,num_6,0.583440968301,,,2017_May_30_1410,60.0069095514,MAFE4ImagesEEG,001,200279,
,,,,,,,,,,,,,,,,,,,,,,,,,,,,,,,,,,,,,,,,,,,space,27.4646315293,2017_May_30_1410,60.0069095514,MAFE4ImagesEEG,001,200279,
AFNE01.JPG,AFNE01.JPG,AFNE01.JPG,AFNE01.JPG,AFNE01.JPG,AFNE01.JPG,,,,,,,,,,,,,,,,,0,0,0,2,,,,,,,AMNE17.jpg,AMSA08.jpg,AMNE03.jpg,AMSA01.jpg,AMNE17.jpg,MN,1,num_8,32,num_6,0.517102653626,,,2017_May_30_1410,60.0069095514,MAFE4ImagesEEG,001,200279,
AFNE01.JPG,AFNE01.JPG,AFNE01.JPG,AFNE01.JPG,AFNE01.JPG,AFNE01.JPG,,,,,,,,,,,,,,,,,0,1,1,9,,,,,,,AMNE01.jpg,AMNE08.jpg,AMSA11.jpg,AMSA07.jpg,AMSA07.jpg,MS,2,num_4,16,num_4,0.783520447556,,,2017_May_30_1410,60.0069095514,MAFE4ImagesEEG,001,200279,
AFNE01.JPG,AFNE01.JPG,AFNE01.JPG,AFNE01.JPG,AFNE01.JPG,AFNE01.JPG,,,,,,,,,,,,,,,,,0,2,2,5,,,,,,,AMSA11.jpg,AMSA18.jpg,AMNE10.jpg,AMNE09.jpg,AMSA11.jpg,MS,2,num_8,16,num_8,0.43347228854,,,2017_May_30_1410,60.0069095514,MAFE4ImagesEEG,001,200279,
AFNE01.JPG,AFNE01.JPG,AFNE01.JPG,AFNE01.JPG,AFNE01.JPG,AFNE01.JPG,,,,,,,,,,,,,,,,,0,3,3,3,,,,,,,AMSA11.jpg,AMNE10.jpg,AMNE11.jpg,AMSA07.jpg,AMSA11.jpg,MS,2,num_8,32,num_2,0.666787157767,,,2017_May_30_1410,60.0069095514,MAFE4ImagesEEG,001,200279,
AFNE01.JPG,AFNE01.JPG,AFNE01.JPG,AFNE01.JPG,AFNE01.JPG,AFNE01.JPG,,,,,,,,,,,,,,,,,0,4,4,7,,,,,,,AMSA11.jpg,AMNE03.jpg,AMSA08.jpg,AMNE02.jpg,AMSA11.jpg,MS,2,num_8,16,num_8,0.750178251183,,,2017_May_30_1410,60.0069095514,MAFE4ImagesEEG,001,200279,
AFNE01.JPG,AFNE01.JPG,AFNE01.JPG,AFNE01.JPG,AFNE01.JPG,AFNE01.JPG,,,,,,,,,,,,,,,,,0,5,5,4,,,,,,,AMSA14.jpg,AMNE05.jpg,AMNE03.jpg,AMSA18.jpg,AMSA18.jpg,MS,2,num_4,32,num_8,0.716858827276,,,2017_May_30_1410,60.0069095514,MAFE4ImagesEEG,001,200279,
AFNE01.JPG,AFNE01.JPG,AFNE01.JPG,AFNE01.JPG,AFNE01.JPG,AFNE01.JPG,,,,,,,,,,,,,,,,,0,6,6,8,,,,,,,AMSA02.jpg,AMNE13.jpg,AMNE15.jpg,AMSA05.jpg,AMNE13.jpg,MN,1,num_6,16,num_6,0.650177321164,,,2017_May_30_1410,60.0069095514,MAFE4ImagesEEG,001,200279,
AFNE01.JPG,AFNE01.JPG,AFNE01.JPG,AFNE01.JPG,AFNE01.JPG,AFNE01.JPG,,,,,,,,,,,,,,,,,0,7,7,0,,,,,,,AMSA03.jpg,AMSA12.jpg,AMNE15.jpg,AMNE12.jpg,AMSA12.jpg,MS,2,num_6,32,num_8,0.583506078459,,,2017_May_30_1410,60.0069095514,MAFE4ImagesEEG,001,200279,
AFNE01.JPG,AFNE01.JPG,AFNE01.JPG,AFNE01.JPG,AFNE01.JPG,AFNE01.JPG,,,,,,,,,,,,,,,,,0,8,8,6,,,,,,,AMNE13.jpg,AMNE08.jpg,AMSA10.jpg,AMSA03.jpg,AMNE13.jpg,MN,1,num_8,32,num_2,0.383618401596,,,2017_May_30_1410,60.0069095514,MAFE4ImagesEEG,001,200279,
AFNE01.JPG,AFNE01.JPG,AFNE01.JPG,AFNE01.JPG,AFNE01.JPG,AFNE01.JPG,,,,,,,,,,,,,,,,,0,9,9,1,,,,,,,AMNE04.jpg,AMSA08.jpg,AMSA02.jpg,AMNE02.jpg,AMNE04.jpg,MN,1,num_8,32,num_4,0.700031528715,,,2017_May_30_1410,60.0069095514,MAFE4ImagesEEG,001,200279,
AFNE01.JPG,AFNE01.JPG,AFNE01.JPG,AFNE01.JPG,AFNE01.JPG,AFNE01.JPG,,,,,,,,,,,,,,,,,1,0,10,5,,,,,,,AMSA01.jpg,AMSA02.jpg,AMNE14.jpg,AMNE05.jpg,AMNE14.jpg,MN,1,num_2,32,num_6,0.60014093318,,,2017_May_30_1410,60.0069095514,MAFE4ImagesEEG,001,200279,
AFNE01.JPG,AFNE01.JPG,AFNE01.JPG,AFNE01.JPG,AFNE01.JPG,AFNE01.JPG,,,,,,,,,,,,,,,,,1,1,11,4,,,,,,,AMNE09.jpg,AMSA14.jpg,AMSA19.jpg,AMNE17.jpg,AMNE09.jpg,MN,1,num_8,32,num_2,0.616790541681,,,2017_May_30_1410,60.0069095514,MAFE4ImagesEEG,001,200279,
AFNE01.JPG,AFNE01.JPG,AFNE01.JPG,AFNE01.JPG,AFNE01.JPG,AFNE01.JPG,,,,,,,,,,,,,,,,,1,2,12,9,,,,,,,AMSA12.jpg,AMNE11.jpg,AMNE07.jpg,AMSA18.jpg,AMSA12.jpg,MS,2,num_8,32,num_4,1.01660278067,,,2017_May_30_1410,60.0069095514,MAFE4ImagesEEG,001,200279,
AFNE01.JPG,AFNE01.JPG,AFNE01.JPG,AFNE01.JPG,AFNE01.JPG,AFNE01.JPG,,,,,,,,,,,,,,,,,1,3,13,2,,,,,,,AMSA02.jpg,AMNE17.jpg,AMSA08.jpg,AMNE18.jpg,AMNE17.jpg,MN,1,num_6,16,num_6,0.83342148317,,,2017_May_30_1410,60.0069095514,MAFE4ImagesEEG,001,200279,
AFNE01.JPG,AFNE01.JPG,AFNE01.JPG,AFNE01.JPG,AFNE01.JPG,AFNE01.JPG,,,,,,,,,,,,,,,,,1,4,14,8,,,,,,,AMSA11.jpg,AMNE12.jpg,AMNE15.jpg,AMSA17.jpg,AMNE12.jpg,MN,1,num_6,32,num_8,1.40004092641,,,2017_May_30_1410,60.0069095514,MAFE4ImagesEEG,001,200279,
AFNE01.JPG,AFNE01.JPG,AFNE01.JPG,AFNE01.JPG,AFNE01.JPG,AFNE01.JPG,,,,,,,,,,,,,,,,,1,5,15,1,,,,,,,AMSA20.jpg,AMNE16.jpg,AMNE18.jpg,AMSA17.jpg,AMSA20.jpg,MS,2,num_8,32,num_4,1.03344868193,,,2017_May_30_1410,60.0069095514,MAFE4ImagesEEG,001,200279,
AFNE01.JPG,AFNE01.JPG,AFNE01.JPG,AFNE01.JPG,AFNE01.JPG,AFNE01.JPG,,,,,,,,,,,,,,,,,1,6,16,0,,,,,,,AMSA20.jpg,AMSA06.jpg,AMNE13.jpg,AMNE12.jpg,AMSA20.jpg,MS,2,num_8,32,num_2,0.800136699341,,,2017_May_30_1410,60.0069095514,MAFE4ImagesEEG,001,200279,
AFNE01.JPG,AFNE01.JPG,AFNE01.JPG,AFNE01.JPG,AFNE01.JPG,AFNE01.JPG,,,,,,,,,,,,,,,,,1,7,17,7,,,,,,,AMSA03.jpg,AMSA12.jpg,AMNE01.jpg,AMNE04.jpg,AMSA12.jpg,MS,2,num_6,32,num_8,0.366755501134,,,2017_May_30_1410,60.0069095514,MAFE4ImagesEEG,001,200279,
AFNE01.JPG,AFNE01.JPG,AFNE01.JPG,AFNE01.JPG,AFNE01.JPG,AFNE01.JPG,,,,,,,,,,,,,,,,,1,8,18,6,,,,,,,AMNE17.jpg,AMSA05.jpg,AMNE14.jpg,AMSA13.jpg,AMNE14.jpg,MN,1,num_2,32,num_4,1.10014622542,,,2017_May_30_1410,60.0069095514,MAFE4ImagesEEG,001,200279,
AFNE01.JPG,AFNE01.JPG,AFNE01.JPG,AFNE01.JPG,AFNE01.JPG,AFNE01.JPG,,,,,,,,,,,,,,,,,1,9,19,3,,,,,,,AMNE16.jpg,AMSA18.jpg,AMNE09.jpg,AMSA03.jpg,AMSA03.jpg,MS,2,num_4,32,num_6,0.583419799339,,,2017_May_30_1410,60.0069095514,MAFE4ImagesEEG,001,200279,
AFNE01.JPG,AFNE01.JPG,AFNE01.JPG,AFNE01.JPG,AFNE01.JPG,AFNE01.JPG,,,,,,,,,,,,,,,,,2,0,20,1,,,,,,,AMSA09.jpg,AMNE10.jpg,AMSA17.jpg,AMNE17.jpg,AMSA09.jpg,MS,2,num_8,16,num_8,0.616816201014,,,2017_May_30_1410,60.0069095514,MAFE4ImagesEEG,001,200279,
AFNE01.JPG,AFNE01.JPG,AFNE01.JPG,AFNE01.JPG,AFNE01.JPG,AFNE01.JPG,,,,,,,,,,,,,,,,,2,1,21,9,,,,,,,AMSA13.jpg,AMNE09.jpg,AMSA06.jpg,AMNE11.jpg,AMNE11.jpg,MN,1,num_4,16,num_4,0.683391542174,,,2017_May_30_1410,60.0069095514,MAFE4ImagesEEG,001,200279,
AFNE01.JPG,AFNE01.JPG,AFNE01.JPG,AFNE01.JPG,AFNE01.JPG,AFNE01.JPG,,,,,,,,,,,,,,,,,2,2,22,8,,,,,,,AMSA13.jpg,AMSA07.jpg,AMNE20.jpg,AMNE07.jpg,AMNE20.jpg,MN,1,num_2,32,num_6,0.900108121568,,,2017_May_30_1410,60.0069095514,MAFE4ImagesEEG,001,200279,
AFNE01.JPG,AFNE01.JPG,AFNE01.JPG,AFNE01.JPG,AFNE01.JPG,AFNE01.JPG,,,,,,,,,,,,,,,,,2,3,23,5,,,,,,,AMSA06.jpg,AMNE19.jpg,AMNE08.jpg,AMSA17.jpg,AMSA17.jpg,MS,2,num_4,32,num_8,0.433506607544,,,2017_May_30_1410,60.0069095514,MAFE4ImagesEEG,001,200279,
AFNE01.JPG,AFNE01.JPG,AFNE01.JPG,AFNE01.JPG,AFNE01.JPG,AFNE01.JPG,,,,,,,,,,,,,,,,,2,4,24,3,,,,,,,AMNE01.jpg,AMSA12.jpg,AMSA13.jpg,AMNE16.jpg,AMNE16.jpg,MN,1,num_4,32,num_6,0.716763567412,,,2017_May_30_1410,60.0069095514,MAFE4ImagesEEG,001,200279,
AFNE01.JPG,AFNE01.JPG,AFNE01.JPG,AFNE01.JPG,AFNE01.JPG,AFNE01.JPG,,,,,,,,,,,,,,,,,2,5,25,0,,,,,,,AMSA03.jpg,AMSA18.jpg,AMNE03.jpg,AMNE04.jpg,AMSA03.jpg,MS,2,num_8,32,num_4,0.566805472132,,,2017_May_30_1410,60.0069095514,MAFE4ImagesEEG,001,200279,
AFNE01.JPG,AFNE01.JPG,AFNE01.JPG,AFNE01.JPG,AFNE01.JPG,AFNE01.JPG,,,,,,,,,,,,,,,,,2,6,26,7,,,,,,,AMSA06.jpg,AMNE08.jpg,AMSA04.jpg,AMNE03.jpg,AMSA06.jpg,MS,2,num_8,16,num_8,0.650110286428,,,2017_May_30_1410,60.0069095514,MAFE4ImagesEEG,001,200279,
AFNE01.JPG,AFNE01.JPG,AFNE01.JPG,AFNE01.JPG,AFNE01.JPG,AFNE01.JPG,,,,,,,,,,,,,,,,,2,7,27,6,,,,,,,AMSA05.jpg,AMNE03.jpg,AMNE04.jpg,AMSA02.jpg,AMNE04.jpg,MN,1,num_2,16,num_2,0.450235759839,,,2017_May_30_1410,60.0069095514,MAFE4ImagesEEG,001,200279,
AFNE01.JPG,AFNE01.JPG,AFNE01.JPG,AFNE01.JPG,AFNE01.JPG,AFNE01.JPG,,,,,,,,,,,,,,,,,2,8,28,4,,,,,,,AMNE03.jpg,AMNE18.jpg,AMSA14.jpg,AMSA10.jpg,AMNE03.jpg,MN,1,num_8,32,num_4,0.550121223554,,,2017_May_30_1410,60.0069095514,MAFE4ImagesEEG,001,200279,
AFNE01.JPG,AFNE01.JPG,AFNE01.JPG,AFNE01.JPG,AFNE01.JPG,AFNE01.JPG,,,,,,,,,,,,,,,,,2,9,29,2,,,,,,,AMNE14.jpg,AMSA09.jpg,AMSA18.jpg,AMNE18.jpg,AMNE18.jpg,MN,1,num_4,32,num_6,0.650150378933,,,2017_May_30_1410,60.0069095514,MAFE4ImagesEEG,001,200279,
AFNE01.JPG,AFNE01.JPG,AFNE01.JPG,AFNE01.JPG,AFNE01.JPG,AFNE01.JPG,,,,,,,,,,,,,,,,,3,0,30,8,,,,,,,AMSA13.jpg,AMNE11.jpg,AMNE06.jpg,AMSA10.jpg,AMSA10.jpg,MS,2,num_4,32,num_8,0.683435162995,,,2017_May_30_1410,60.0069095514,MAFE4ImagesEEG,001,200279,
AFNE01.JPG,AFNE01.JPG,AFNE01.JPG,AFNE01.JPG,AFNE01.JPG,AFNE01.JPG,,,,,,,,,,,,,,,,,3,1,31,6,,,,,,,AMNE02.jpg,AMNE04.jpg,AMSA01.jpg,AMSA06.jpg,AMNE02.jpg,MN,1,num_8,32,num_4,0.550155542791,,,2017_May_30_1410,60.0069095514,MAFE4ImagesEEG,001,200279,
AFNE01.JPG,AFNE01.JPG,AFNE01.JPG,AFNE01.JPG,AFNE01.JPG,AFNE01.JPG,,,,,,,,,,,,,,,,,3,2,32,4,,,,,,,AMNE16.jpg,AMNE20.jpg,AMSA02.jpg,AMSA17.jpg,AMSA02.jpg,MS,2,num_2,16,num_2,1.3664495151,,,2017_May_30_1410,60.0069095514,MAFE4ImagesEEG,001,200279,
AFNE01.JPG,AFNE01.JPG,AFNE01.JPG,AFNE01.JPG,AFNE01.JPG,AFNE01.JPG,,,,,,,,,,,,,,,,,3,3,33,5,,,,,,,AMSA15.jpg,AMNE09.jpg,AMNE19.jpg,AMSA17.jpg,AMSA15.jpg,MS,2,num_8,32,num_4,0.616791183362,,,2017_May_30_1410,60.0069095514,MAFE4ImagesEEG,001,200279,
AFNE01.JPG,AFNE01.JPG,AFNE01.JPG,AFNE01.JPG,AFNE01.JPG,AFNE01.JPG,,,,,,,,,,,,,,,,,3,4,34,9,,,,,,,AMSA05.jpg,AMNE15.jpg,AMSA08.jpg,AMNE02.jpg,AMNE02.jpg,MN,1,num_4,32,num_8,0.616787334206,,,2017_May_30_1410,60.0069095514,MAFE4ImagesEEG,001,200279,
AFNE01.JPG,AFNE01.JPG,AFNE01.JPG,AFNE01.JPG,AFNE01.JPG,AFNE01.JPG,,,,,,,,,,,,,,,,,3,5,35,1,,,,,,,AMNE12.jpg,AMSA06.jpg,AMSA19.jpg,AMNE01.jpg,AMNE01.jpg,MN,1,num_4,32,num_6,0.866801847937,,,2017_May_30_1410,60.0069095514,MAFE4ImagesEEG,001,200279,
AFNE01.JPG,AFNE01.JPG,AFNE01.JPG,AFNE01.JPG,AFNE01.JPG,AFNE01.JPG,,,,,,,,,,,,,,,,,3,6,36,2,,,,,,,AMSA01.jpg,AMNE09.jpg,AMSA13.jpg,AMNE03.jpg,AMSA01.jpg,MS,2,num_8,32,num_2,0.466825390235,,,2017_May_30_1410,60.0069095514,MAFE4ImagesEEG,001,200279,
AFNE01.JPG,AFNE01.JPG,AFNE01.JPG,AFNE01.JPG,AFNE01.JPG,AFNE01.JPG,,,,,,,,,,,,,,,,,3,7,37,7,,,,,,,AMNE13.jpg,AMSA03.jpg,AMNE11.jpg,AMSA19.jpg,AMNE13.jpg,MN,1,num_8,32,num_4,0.400146770524,,,2017_May_30_1410,60.0069095514,MAFE4ImagesEEG,001,200279,
AFNE01.JPG,AFNE01.JPG,AFNE01.JPG,AFNE01.JPG,AFNE01.JPG,AFNE01.JPG,,,,,,,,,,,,,,,,,3,8,38,3,,,,,,,AMNE12.jpg,AMNE08.jpg,AMSA12.jpg,AMSA18.jpg,AMNE08.jpg,MN,1,num_6,32,num_8,0.616776429117,,,2017_May_30_1410,60.0069095514,MAFE4ImagesEEG,001,200279,
AFNE01.JPG,AFNE01.JPG,AFNE01.JPG,AFNE01.JPG,AFNE01.JPG,AFNE01.JPG,,,,,,,,,,,,,,,,,3,9,39,0,,,,,,,AMSA17.jpg,AMNE14.jpg,AMSA05.jpg,AMNE07.jpg,AMNE14.jpg,MN,1,num_6,16,num_6,0.950134566519,,,2017_May_30_1410,60.0069095514,MAFE4ImagesEEG,001,200279,
AFNE01.JPG,AFNE01.JPG,AFNE01.JPG,AFNE01.JPG,AFNE01.JPG,AFNE01.JPG,,,,,,,,,,,,,,,,,4,0,40,9,,,,,,,AMSA08.jpg,AMNE13.jpg,AMSA14.jpg,AMNE01.jpg,AMNE01.jpg,MN,1,num_4,16,num_4,0.566820546985,,,2017_May_30_1410,60.0069095514,MAFE4ImagesEEG,001,200279,
AFNE01.JPG,AFNE01.JPG,AFNE01.JPG,AFNE01.JPG,AFNE01.JPG,AFNE01.JPG,,,,,,,,,,,,,,,,,4,1,41,1,,,,,,,AMNE06.jpg,AMSA07.jpg,AMSA06.jpg,AMNE05.jpg,AMNE05.jpg,MN,1,num_4,32,num_2,0.58344193059,,,2017_May_30_1410,60.0069095514,MAFE4ImagesEEG,001,200279,
AFNE01.JPG,AFNE01.JPG,AFNE01.JPG,AFNE01.JPG,AFNE01.JPG,AFNE01.JPG,,,,,,,,,,,,,,,,,4,2,42,6,,,,,,,AMNE04.jpg,AMNE01.jpg,AMSA02.jpg,AMSA05.jpg,AMNE04.jpg,MN,1,num_8,32,num_6,0.583564132452,,,2017_May_30_1410,60.0069095514,MAFE4ImagesEEG,001,200279,
AFNE01.JPG,AFNE01.JPG,AFNE01.JPG,AFNE01.JPG,AFNE01.JPG,AFNE01.JPG,,,,,,,,,,,,,,,,,4,3,43,3,,,,,,,AMNE09.jpg,AMSA20.jpg,AMSA13.jpg,AMNE05.jpg,AMSA13.jpg,MS,2,num_2,32,num_4,0.433533549774,,,2017_May_30_1410,60.0069095514,MAFE4ImagesEEG,001,200279,
AFNE01.JPG,AFNE01.JPG,AFNE01.JPG,AFNE01.JPG,AFNE01.JPG,AFNE01.JPG,,,,,,,,,,,,,,,,,4,4,44,7,,,,,,,AMNE14.jpg,AMSA03.jpg,AMNE10.jpg,AMSA01.jpg,AMSA01.jpg,MS,2,num_4,32,num_8,0.499874109635,,,2017_May_30_1410,60.0069095514,MAFE4ImagesEEG,001,200279,
AFNE01.JPG,AFNE01.JPG,AFNE01.JPG,AFNE01.JPG,AFNE01.JPG,AFNE01.JPG,,,,,,,,,,,,,,,,,4,5,45,0,,,,,,,AMSA18.jpg,AMSA10.jpg,AMNE15.jpg,AMNE18.jpg,AMSA18.jpg,MS,2,num_8,32,num_2,1.06656154967,,,2017_May_30_1410,60.0069095514,MAFE4ImagesEEG,001,200279,
AFNE01.JPG,AFNE01.JPG,AFNE01.JPG,AFNE01.JPG,AFNE01.JPG,AFNE01.JPG,,,,,,,,,,,,,,,,,4,6,46,4,,,,,,,AMNE20.jpg,AMSA18.jpg,AMNE05.jpg,AMSA01.jpg,AMSA18.jpg,MS,2,num_6,16,num_6,0.483513487503,,,2017_May_30_1410,60.0069095514,MAFE4ImagesEEG,001,200279,
AFNE01.JPG,AFNE01.JPG,AFNE01.JPG,AFNE01.JPG,AFNE01.JPG,AFNE01.JPG,,,,,,,,,,,,,,,,,4,7,47,5,,,,,,,AMSA14.jpg,AMNE14.jpg,AMSA09.jpg,AMNE07.jpg,AMNE07.jpg,MN,1,num_4,32,num_8,0.583495814819,,,2017_May_30_1410,60.0069095514,MAFE4ImagesEEG,001,200279,
AFNE01.JPG,AFNE01.JPG,AFNE01.JPG,AFNE01.JPG,AFNE01.JPG,AFNE01.JPG,,,,,,,,,,,,,,,,,4,8,48,2,,,,,,,AMNE14.jpg,AMSA05.jpg,AMSA10.jpg,AMNE02.jpg,AMSA10.jpg,MS,2,num_2,32,num_4,0.500166303711,,,2017_May_30_1410,60.0069095514,MAFE4ImagesEEG,001,200279,
AFNE01.JPG,AFNE01.JPG,AFNE01.JPG,AFNE01.JPG,AFNE01.JPG,AFNE01.JPG,,,,,,,,,,,,,,,,,4,9,49,8,,,,,,,AMSA20.jpg,AMNE14.jpg,AMSA09.jpg,AMNE05.jpg,AMSA20.jpg,MS,2,num_8,32,num_6,0.666809609858,,,2017_May_30_1410,60.0069095514,MAFE4ImagesEEG,001,200279,
AFNE01.JPG,AFNE01.JPG,AFNE01.JPG,AFNE01.JPG,AFNE01.JPG,AFNE01.JPG,,,,,,,,,,,,,,,,,5,0,50,1,,,,,,,AMSA13.jpg,AMNE01.jpg,AMSA07.jpg,AMNE19.jpg,AMNE01.jpg,MN,1,num_6,32,num_2,0.450151726138,,,2017_May_30_1410,60.0069095514,MAFE4ImagesEEG,001,200279,
AFNE01.JPG,AFNE01.JPG,AFNE01.JPG,AFNE01.JPG,AFNE01.JPG,AFNE01.JPG,,,,,,,,,,,,,,,,,5,1,51,5,,,,,,,AMSA03.jpg,AMNE04.jpg,AMSA08.jpg,AMNE10.jpg,AMNE04.jpg,MN,1,num_6,16,num_6,0.666757970583,,,2017_May_30_1410,60.0069095514,MAFE4ImagesEEG,001,200279,
AFNE01.JPG,AFNE01.JPG,AFNE01.JPG,AFNE01.JPG,AFNE01.JPG,AFNE01.JPG,,,,,,,,,,,,,,,,,5,2,52,8,,,,,,,AMSA18.jpg,AMSA14.jpg,AMNE19.jpg,AMNE10.jpg,AMNE10.jpg,MN,1,num_4,32,num_8,0.500210886355,,,2017_May_30_1410,60.0069095514,MAFE4ImagesEEG,001,200279,
AFNE01.JPG,AFNE01.JPG,AFNE01.JPG,AFNE01.JPG,AFNE01.JPG,AFNE01.JPG,,,,,,,,,,,,,,,,,5,3,53,4,,,,,,,AMSA10.jpg,AMNE08.jpg,AMSA01.jpg,AMNE02.jpg,AMSA10.jpg,MS,2,num_8,32,num_6,0.500145134749,,,2017_May_30_1410,60.0069095514,MAFE4ImagesEEG,001,200279,
AFNE01.JPG,AFNE01.JPG,AFNE01.JPG,AFNE01.JPG,AFNE01.JPG,AFNE01.JPG,,,,,,,,,,,,,,,,,5,4,54,7,,,,,,,AMSA10.jpg,AMNE04.jpg,AMNE17.jpg,AMSA17.jpg,AMNE17.jpg,MN,1,num_2,32,num_4,0.516820402583,,,2017_May_30_1410,60.0069095514,MAFE4ImagesEEG,001,200279,
AFNE01.JPG,AFNE01.JPG,AFNE01.JPG,AFNE01.JPG,AFNE01.JPG,AFNE01.JPG,,,,,,,,,,,,,,,,,5,5,55,6,,,,,,,AMSA04.jpg,AMNE10.jpg,AMNE11.jpg,AMSA17.jpg,AMNE11.jpg,MN,1,num_2,32,num_6,0.533379562665,,,2017_May_30_1410,60.0069095514,MAFE4ImagesEEG,001,200279,
AFNE01.JPG,AFNE01.JPG,AFNE01.JPG,AFNE01.JPG,AFNE01.JPG,AFNE01.JPG,,,,,,,,,,,,,,,,,5,6,56,9,,,,,,,AMSA10.jpg,AMNE18.jpg,AMSA15.jpg,AMNE20.jpg,AMNE18.jpg,MN,1,num_6,32,num_4,0.650129209971,,,2017_May_30_1410,60.0069095514,MAFE4ImagesEEG,001,200279,
AFNE01.JPG,AFNE01.JPG,AFNE01.JPG,AFNE01.JPG,AFNE01.JPG,AFNE01.JPG,,,,,,,,,,,,,,,,,5,7,57,3,,,,,,,AMSA19.jpg,AMNE11.jpg,AMNE08.jpg,AMSA15.jpg,AMSA19.jpg,MS,2,num_8,16,num_8,0.366846911842,,,2017_May_30_1410,60.0069095514,MAFE4ImagesEEG,001,200279,
AFNE01.JPG,AFNE01.JPG,AFNE01.JPG,AFNE01.JPG,AFNE01.JPG,AFNE01.JPG,,,,,,,,,,,,,,,,,5,8,58,0,,,,,,,AMSA04.jpg,AMSA02.jpg,AMNE02.jpg,AMNE15.jpg,AMSA04.jpg,MS,2,num_8,32,num_2,0.433476458304,,,2017_May_30_1410,60.0069095514,MAFE4ImagesEEG,001,200279,
AFNE01.JPG,AFNE01.JPG,AFNE01.JPG,AFNE01.JPG,AFNE01.JPG,AFNE01.JPG,,,,,,,,,,,,,,,,,5,9,59,2,,,,,,,AMNE05.jpg,AMSA19.jpg,AMSA01.jpg,AMNE06.jpg,AMSA01.jpg,MS,2,num_2,32,num_6,0.466868369374,,,2017_May_30_1410,60.0069095514,MAFE4ImagesEEG,001,200279,
,,,,,,,,,,,,,,,,,,,,,,,,,,,,,,,,,,,,,,,,,,,space,3.333508885,2017_May_30_1410,60.0069095514,MAFE4ImagesEEG,001,200279,
AFNE01.JPG,AFNE01.JPG,AFNE01.JPG,AFNE01.JPG,AFNE01.JPG,AFNE01.JPG,,,,,,,,,,,,,,,,,,,,,0,0,0,8,,,AFNE05.jpg,AFNE20.jpg,AFSA18.jpg,AFSA17.jpg,AFSA18.jpg,FS,4,num_2,32,num_4,0.650121512357,,,2017_May_30_1410,60.0069095514,MAFE4ImagesEEG,001,200279,
AFNE01.JPG,AFNE01.JPG,AFNE01.JPG,AFNE01.JPG,AFNE01.JPG,AFNE01.JPG,,,,,,,,,,,,,,,,,,,,,0,1,1,9,,,AFNE14.jpg,AFSA07.jpg,AFNE02.jpg,AFSA02.jpg,AFNE14.jpg,FN,3,num_8,32,num_6,0.433522323845,,,2017_May_30_1410,60.0069095514,MAFE4ImagesEEG,001,200279,
AFNE01.JPG,AFNE01.JPG,AFNE01.JPG,AFNE01.JPG,AFNE01.JPG,AFNE01.JPG,,,,,,,,,,,,,,,,,,,,,0,2,2,2,,,AFNE10.jpg,AFSA11.jpg,AFNE13.jpg,AFSA05.jpg,AFSA11.jpg,FS,4,num_6,32,num_8,0.60006620083,,,2017_May_30_1410,60.0069095514,MAFE4ImagesEEG,001,200279,
AFNE01.JPG,AFNE01.JPG,AFNE01.JPG,AFNE01.JPG,AFNE01.JPG,AFNE01.JPG,,,,,,,,,,,,,,,,,,,,,0,3,3,3,,,AFSA11.jpg,AFNE15.jpg,AFSA10.jpg,AFNE18.jpg,AFNE18.jpg,FN,3,num_4,32,num_2,0.416778096929,,,2017_May_30_1410,60.0069095514,MAFE4ImagesEEG,001,200279,
AFNE01.JPG,AFNE01.JPG,AFNE01.JPG,AFNE01.JPG,AFNE01.JPG,AFNE01.JPG,,,,,,,,,,,,,,,,,,,,,0,4,4,0,,,AFNE01.jpg,AFNE08.jpg,AFSA04.jpg,AFSA05.jpg,AFSA04.jpg,FS,4,num_2,32,num_6,0.600102444412,,,2017_May_30_1410,60.0069095514,MAFE4ImagesEEG,001,200279,
AFNE01.JPG,AFNE01.JPG,AFNE01.JPG,AFNE01.JPG,AFNE01.JPG,AFNE01.JPG,,,,,,,,,,,,,,,,,,,,,0,5,5,4,,,AFNE11.jpg,AFSA02.jpg,AFSA11.jpg,AFNE05.jpg,AFSA11.jpg,FS,4,num_2,32,num_4,0.700101450086,,,2017_May_30_1410,60.0069095514,MAFE4ImagesEEG,001,200279,
AFNE01.JPG,AFNE01.JPG,AFNE01.JPG,AFNE01.JPG,AFNE01.JPG,AFNE01.JPG,,,,,,,,,,,,,,,,,,,,,0,6,6,5,,,AFSA19.jpg,AFSA10.jpg,AFNE12.jpg,AFNE07.jpg,AFNE12.jpg,FN,3,num_2,32,num_8,0.533520046622,,,2017_May_30_1410,60.0069095514,MAFE4ImagesEEG,001,200279,
AFNE01.JPG,AFNE01.JPG,AFNE01.JPG,AFNE01.JPG,AFNE01.JPG,AFNE01.JPG,,,,,,,,,,,,,,,,,,,,,0,7,7,1,,,AFSA04.jpg,AFNE10.jpg,AFNE05.jpg,AFSA19.jpg,AFSA19.jpg,FS,4,num_4,32,num_2,0.533458143938,,,2017_May_30_1410,60.0069095514,MAFE4ImagesEEG,001,200279,
AFNE01.JPG,AFNE01.JPG,AFNE01.JPG,AFNE01.JPG,AFNE01.JPG,AFNE01.JPG,,,,,,,,,,,,,,,,,,,,,0,8,8,7,,,AFNE06.jpg,AFNE12.jpg,AFSA02.jpg,AFSA16.jpg,AFNE12.jpg,FN,3,num_6,16,num_6,0.583496777108,,,2017_May_30_1410,60.0069095514,MAFE4ImagesEEG,001,200279,
AFNE01.JPG,AFNE01.JPG,AFNE01.JPG,AFNE01.JPG,AFNE01.JPG,AFNE01.JPG,,,,,,,,,,,,,,,,,,,,,0,9,9,6,,,AFSA05.jpg,AFNE20.jpg,AFNE15.jpg,AFSA07.jpg,AFNE20.jpg,FN,3,num_6,32,num_8,0.616804012796,,,2017_May_30_1410,60.0069095514,MAFE4ImagesEEG,001,200279,
AFNE01.JPG,AFNE01.JPG,AFNE01.JPG,AFNE01.JPG,AFNE01.JPG,AFNE01.JPG,,,,,,,,,,,,,,,,,,,,,1,0,10,2,,,AFNE12.jpg,AFSA10.jpg,AFSA01.jpg,AFNE18.jpg,AFNE18.jpg,FN,3,num_4,16,num_4,0.550347986864,,,2017_May_30_1410,60.0069095514,MAFE4ImagesEEG,001,200279,
AFNE01.JPG,AFNE01.JPG,AFNE01.JPG,AFNE01.JPG,AFNE01.JPG,AFNE01.JPG,,,,,,,,,,,,,,,,,,,,,1,1,11,6,,,AFSA01.jpg,AFNE11.jpg,AFSA02.jpg,AFNE02.jpg,AFNE11.jpg,FN,3,num_6,32,num_2,1.11660403153,,,2017_May_30_1410,60.0069095514,MAFE4ImagesEEG,001,200279,
AFNE01.JPG,AFNE01.JPG,AFNE01.JPG,AFNE01.JPG,AFNE01.JPG,AFNE01.JPG,,,,,,,,,,,,,,,,,,,,,1,2,12,8,,,AFNE03.jpg,AFSA10.jpg,AFNE15.jpg,AFSA09.jpg,AFSA10.jpg,FS,4,num_6,32,num_4,0.716778321424,,,2017_May_30_1410,60.0069095514,MAFE4ImagesEEG,001,200279,
AFNE01.JPG,AFNE01.JPG,AFNE01.JPG,AFNE01.JPG,AFNE01.JPG,AFNE01.JPG,,,,,,,,,,,,,,,,,,,,,1,3,13,7,,,AFSA19.jpg,AFSA02.jpg,AFNE15.jpg,AFNE10.jpg,AFSA02.jpg,FS,4,num_6,16,num_6,0.550124110188,,,2017_May_30_1410,60.0069095514,MAFE4ImagesEEG,001,200279,
AFNE01.JPG,AFNE01.JPG,AFNE01.JPG,AFNE01.JPG,AFNE01.JPG,AFNE01.JPG,,,,,,,,,,,,,,,,,,,,,1,4,14,5,,,AFNE01.jpg,AFSA11.jpg,AFSA14.jpg,AFNE07.jpg,AFNE01.jpg,FN,3,num_8,32,num_6,0.700093431631,,,2017_May_30_1410,60.0069095514,MAFE4ImagesEEG,001,200279,
AFNE01.JPG,AFNE01.JPG,AFNE01.JPG,AFNE01.JPG,AFNE01.JPG,AFNE01.JPG,,,,,,,,,,,,,,,,,,,,,1,5,15,3,,,AFNE05.jpg,AFSA07.jpg,AFSA19.jpg,AFNE06.jpg,AFSA07.jpg,FS,4,num_6,32,num_2,0.56685037585,,,2017_May_30_1410,60.0069095514,MAFE4ImagesEEG,001,200279,
AFNE01.JPG,AFNE01.JPG,AFNE01.JPG,AFNE01.JPG,AFNE01.JPG,AFNE01.JPG,,,,,,,,,,,,,,,,,,,,,1,6,16,4,,,AFSA02.jpg,AFSA11.jpg,AFNE09.jpg,AFNE06.jpg,AFSA02.jpg,FS,4,num_8,16,num_8,0.550130525138,,,2017_May_30_1410,60.0069095514,MAFE4ImagesEEG,001,200279,
AFNE01.JPG,AFNE01.JPG,AFNE01.JPG,AFNE01.JPG,AFNE01.JPG,AFNE01.JPG,,,,,,,,,,,,,,,,,,,,,1,7,17,0,,,AFSA13.jpg,AFNE03.jpg,AFNE01.jpg,AFSA08.jpg,AFSA13.jpg,FS,4,num_8,32,num_6,0.416806963505,,,2017_May_30_1410,60.0069095514,MAFE4ImagesEEG,001,200279,
AFNE01.JPG,AFNE01.JPG,AFNE01.JPG,AFNE01.JPG,AFNE01.JPG,AFNE01.JPG,,,,,,,,,,,,,,,,,,,,,1,8,18,9,,,AFSA18.jpg,AFNE16.jpg,AFSA12.jpg,AFNE04.jpg,AFNE16.jpg,FN,3,num_6,32,num_2,0.500169190345,,,2017_May_30_1410,60.0069095514,MAFE4ImagesEEG,001,200279,
AFNE01.JPG,AFNE01.JPG,AFNE01.JPG,AFNE01.JPG,AFNE01.JPG,AFNE01.JPG,,,,,,,,,,,,,,,,,,,,,1,9,19,1,,,AFNE12.jpg,AFSA18.jpg,AFSA09.jpg,AFNE02.jpg,AFSA09.jpg,FS,4,num_2,32,num_4,0.516817195341,,,2017_May_30_1410,60.0069095514,MAFE4ImagesEEG,001,200279,
AFNE01.JPG,AFNE01.JPG,AFNE01.JPG,AFNE01.JPG,AFNE01.JPG,AFNE01.JPG,,,,,,,,,,,,,,,,,,,,,2,0,20,8,,,AFNE09.jpg,AFSA05.jpg,AFNE14.jpg,AFSA11.jpg,AFNE09.jpg,FN,3,num_8,32,num_6,0.466780807357,,,2017_May_30_1410,60.0069095514,MAFE4ImagesEEG,001,200279,
AFNE01.JPG,AFNE01.JPG,AFNE01.JPG,AFNE01.JPG,AFNE01.JPG,AFNE01.JPG,,,,,,,,,,,,,,,,,,,,,2,1,21,3,,,AFNE03.jpg,AFNE10.jpg,AFSA14.jpg,AFSA07.jpg,AFSA14.jpg,FS,4,num_2,16,num_2,0.566702835495,,,2017_May_30_1410,60.0069095514,MAFE4ImagesEEG,001,200279,
AFNE01.JPG,AFNE01.JPG,AFNE01.JPG,AFNE01.JPG,AFNE01.JPG,AFNE01.JPG,,,,,,,,,,,,,,,,,,,,,2,2,22,9,,,AFSA16.jpg,AFNE09.jpg,AFNE12.jpg,AFSA01.jpg,AFSA16.jpg,FS,4,num_8,16,num_8,0.400128488196,,,2017_May_30_1410,60.0069095514,MAFE4ImagesEEG,001,200279,
AFNE01.JPG,AFNE01.JPG,AFNE01.JPG,AFNE01.JPG,AFNE01.JPG,AFNE01.JPG,,,,,,,,,,,,,,,,,,,,,2,3,23,2,,,AFNE11.jpg,AFSA06.jpg,AFSA05.jpg,AFNE16.jpg,AFSA05.jpg,FS,4,num_2,32,num_6,0.333503111731,,,2017_May_30_1410,60.0069095514,MAFE4ImagesEEG,001,200279,
AFNE01.JPG,AFNE01.JPG,AFNE01.JPG,AFNE01.JPG,AFNE01.JPG,AFNE01.JPG,,,,,,,,,,,,,,,,,,,,,2,4,24,4,,,AFNE10.jpg,AFSA06.jpg,AFSA12.jpg,AFNE06.jpg,AFSA06.jpg,FS,4,num_6,32,num_2,0.450195346726,,,2017_May_30_1410,60.0069095514,MAFE4ImagesEEG,001,200279,
AFNE01.JPG,AFNE01.JPG,AFNE01.JPG,AFNE01.JPG,AFNE01.JPG,AFNE01.JPG,,,,,,,,,,,,,,,,,,,,,2,5,25,7,,,AFSA02.jpg,AFNE15.jpg,AFNE18.jpg,AFSA10.jpg,AFNE15.jpg,FN,3,num_6,32,num_4,0.500212169252,,,2017_May_30_1410,60.0069095514,MAFE4ImagesEEG,001,200279,
AFNE01.JPG,AFNE01.JPG,AFNE01.JPG,AFNE01.JPG,AFNE01.JPG,AFNE01.JPG,,,,,,,,,,,,,,,,,,,,,2,6,26,0,,,AFSA06.jpg,AFNE04.jpg,AFNE15.jpg,AFSA18.jpg,AFNE15.jpg,FN,3,num_2,32,num_8,0.566793283913,,,2017_May_30_1410,60.0069095514,MAFE4ImagesEEG,001,200279,
AFNE01.JPG,AFNE01.JPG,AFNE01.JPG,AFNE01.JPG,AFNE01.JPG,AFNE01.JPG,,,,,,,,,,,,,,,,,,,,,2,7,27,5,,,AFSA16.jpg,AFNE20.jpg,AFNE07.jpg,AFSA10.jpg,AFSA10.jpg,FS,4,num_4,32,num_6,0.5835974894,,,2017_May_30_1410,60.0069095514,MAFE4ImagesEEG,001,200279,
AFNE01.JPG,AFNE01.JPG,AFNE01.JPG,AFNE01.JPG,AFNE01.JPG,AFNE01.JPG,,,,,,,,,,,,,,,,,,,,,2,8,28,1,,,AFSA04.jpg,AFNE20.jpg,AFNE18.jpg,AFSA09.jpg,AFNE18.jpg,FN,3,num_2,16,num_2,1.50008098688,,,2017_May_30_1410,60.0069095514,MAFE4ImagesEEG,001,200279,
AFNE01.JPG,AFNE01.JPG,AFNE01.JPG,AFNE01.JPG,AFNE01.JPG,AFNE01.JPG,,,,,,,,,,,,,,,,,,,,,2,9,29,6,,,AFNE06.jpg,AFSA14.jpg,AFSA12.jpg,AFNE03.jpg,AFNE06.jpg,FN,3,num_8,32,num_4,0.566863205517,,,2017_May_30_1410,60.0069095514,MAFE4ImagesEEG,001,200279,
AFNE01.JPG,AFNE01.JPG,AFNE01.JPG,AFNE01.JPG,AFNE01.JPG,AFNE01.JPG,,,,,,,,,,,,,,,,,,,,,3,0,30,9,,,AFSA18.jpg,AFSA04.jpg,AFNE01.jpg,AFNE15.jpg,AFSA18.jpg,FS,4,num_8,16,num_8,0.733436269453,,,2017_May_30_1410,60.0069095514,MAFE4ImagesEEG,001,200279,
AFNE01.JPG,AFNE01.JPG,AFNE01.JPG,AFNE01.JPG,AFNE01.JPG,AFNE01.JPG,,,,,,,,,,,,,,,,,,,,,3,1,31,8,,,AFSA16.jpg,AFNE06.jpg,AFNE03.jpg,AFSA20.jpg,AFSA16.jpg,FS,4,num_8,32,num_6,0.483486224664,,,2017_May_30_1410,60.0069095514,MAFE4ImagesEEG,001,200279,
AFNE01.JPG,AFNE01.JPG,AFNE01.JPG,AFNE01.JPG,AFNE01.JPG,AFNE01.JPG,,,,,,,,,,,,,,,,,,,,,3,2,32,2,,,AFNE13.jpg,AFSA20.jpg,AFNE19.jpg,AFSA01.jpg,AFSA20.jpg,FS,4,num_6,32,num_2,0.600179742789,,,2017_May_30_1410,60.0069095514,MAFE4ImagesEEG,001,200279,
AFNE01.JPG,AFNE01.JPG,AFNE01.JPG,AFNE01.JPG,AFNE01.JPG,AFNE01.JPG,,,,,,,,,,,,,,,,,,,,,3,3,33,7,,,AFSA20.jpg,AFSA12.jpg,AFNE15.jpg,AFNE16.jpg,AFNE15.jpg,FN,3,num_2,32,num_4,0.566854224773,,,2017_May_30_1410,60.0069095514,MAFE4ImagesEEG,001,200279,
AFNE01.JPG,AFNE01.JPG,AFNE01.JPG,AFNE01.JPG,AFNE01.JPG,AFNE01.JPG,,,,,,,,,,,,,,,,,,,,,3,4,34,5,,,AFNE07.jpg,AFSA11.jpg,AFNE16.jpg,AFSA07.jpg,AFNE16.jpg,FN,3,num_2,32,num_8,0.633490185952,,,2017_May_30_1410,60.0069095514,MAFE4ImagesEEG,001,200279,
AFNE01.JPG,AFNE01.JPG,AFNE01.JPG,AFNE01.JPG,AFNE01.JPG,AFNE01.JPG,,,,,,,,,,,,,,,,,,,,,3,5,35,1,,,AFSA13.jpg,AFNE12.jpg,AFNE19.jpg,AFSA10.jpg,AFSA13.jpg,FS,4,num_8,32,num_4,0.500266053714,,,2017_May_30_1410,60.0069095514,MAFE4ImagesEEG,001,200279,
AFNE01.JPG,AFNE01.JPG,AFNE01.JPG,AFNE01.JPG,AFNE01.JPG,AFNE01.JPG,,,,,,,,,,,,,,,,,,,,,3,6,36,6,,,AFNE12.jpg,AFNE03.jpg,AFSA01.jpg,AFSA09.jpg,AFSA09.jpg,FS,4,num_4,32,num_6,0.566783982795,,,2017_May_30_1410,60.0069095514,MAFE4ImagesEEG,001,200279,
AFNE01.JPG,AFNE01.JPG,AFNE01.JPG,AFNE01.JPG,AFNE01.JPG,AFNE01.JPG,,,,,,,,,,,,,,,,,,,,,3,7,37,4,,,AFNE19.jpg,AFSA06.jpg,AFSA17.jpg,AFNE10.jpg,AFNE19.jpg,FN,3,num_8,32,num_2,0.350204680115,,,2017_May_30_1410,60.0069095514,MAFE4ImagesEEG,001,200279,
AFNE01.JPG,AFNE01.JPG,AFNE01.JPG,AFNE01.JPG,AFNE01.JPG,AFNE01.JPG,,,,,,,,,,,,,,,,,,,,,3,8,38,0,,,AFSA15.jpg,AFNE14.jpg,AFSA14.jpg,AFNE10.jpg,AFSA15.jpg,FS,4,num_8,16,num_8,0.750176326837,,,2017_May_30_1410,60.0069095514,MAFE4ImagesEEG,001,200279,
