IPosition2,IPosition3,IPosition1,IPosition6,IPosition4,IPosition5,TrialsM1.thisRepN,TrialsM1.thisTrialN,TrialsM1.thisN,TrialsM1.thisIndex,TrialsF1.thisRepN,TrialsF1.thisTrialN,TrialsF1.thisN,TrialsF1.thisIndex,TrialsM2.thisRepN,TrialsM2.thisTrialN,TrialsM2.thisN,TrialsM2.thisIndex,TrialsF2.thisRepN,TrialsF2.thisTrialN,TrialsF2.thisN,TrialsF2.thisIndex,TrialsM3.thisRepN,TrialsM3.thisTrialN,TrialsM3.thisN,TrialsM3.thisIndex,TrialsF3.thisRepN,TrialsF3.thisTrialN,TrialsF3.thisN,TrialsF3.thisIndex,InstrKey_resp.keys,InstrKey_resp.rt,Image0 _Position,Image1 _Position,Image2 _Position,Image3 _Position,Center_image,condition,code,correct_answer,accuracy,Key_Resp.keys,Key_Resp.rt,BreakKey_resp.keys,BreakKey_resp.rt,date,frameRate,expName,session,participant,
,,,,,,,,,,,,,,,,,,,,,,,,,,,,,,space,50.9295304155,,,,,,,,,,,,,,2017_Apr_28_1437,59.9890519775,MAFE4ImagesEEG,001,200221,
AFSA21.JPG,AFNE22.JPG,AFNE21.JPG,AFSA23.JPG,AFSA22.JPG,AFNE23.JPG,0,0,0,0,,,,,,,,,,,,,,,,,,,,,,,AMSA15.jpg,AMSA20.jpg,AMNE18.jpg,AMNE07.jpg,AMNE07.jpg,MN,1,num_4,16,num_4,0.716809518519,,,2017_Apr_28_1437,59.9890519775,MAFE4ImagesEEG,001,200221,
AFSA21.JPG,AFNE23.JPG,AFNE21.JPG,AFSA25.JPG,AFNE25.JPG,AFSA23.JPG,0,1,1,4,,,,,,,,,,,,,,,,,,,,,,,AMNE17.jpg,AMSA03.jpg,AMNE07.jpg,AMSA08.jpg,AMNE17.jpg,MN,1,num_8,16,num_8,0.91683203436,,,2017_Apr_28_1437,59.9890519775,MAFE4ImagesEEG,001,200221,
AMSA21.JPG,AMNE22.JPG,AMNE21.JPG,AMSA23.JPG,AMSA22.JPG,AMNE23.JPG,0,2,2,1,,,,,,,,,,,,,,,,,,,,,,,AMNE15.jpg,AMNE07.jpg,AMSA16.jpg,AMSA13.jpg,AMSA13.jpg,MS,2,num_4,32,num_6,1.15036472841,,,2017_Apr_28_1437,59.9890519775,MAFE4ImagesEEG,001,200221,
AFSA25.JPG,AFNE24.JPG,AFSA24.JPG,AFNE21.JPG,AFSA21.JPG,AFNE25.JPG,0,3,3,2,,,,,,,,,,,,,,,,,,,,,,,AMNE20.jpg,AMSA11.jpg,AMNE07.jpg,AMSA09.jpg,AMNE20.jpg,MN,1,num_8,16,num_8,0.683434692211,,,2017_Apr_28_1437,59.9890519775,MAFE4ImagesEEG,001,200221,
AFNE23.JPG,AFNE24.JPG,AFNE22.JPG,AFSA24.JPG,AFSA22.JPG,AFSA23.JPG,0,4,4,8,,,,,,,,,,,,,,,,,,,,,,,AMSA02.jpg,AMNE02.jpg,AMNE07.jpg,AMSA03.jpg,AMSA03.jpg,MS,2,num_4,32,num_6,0.783462628606,,,2017_Apr_28_1437,59.9890519775,MAFE4ImagesEEG,001,200221,
AFNE22.JPG,AFSA24.JPG,AFSA22.JPG,AFNE25.JPG,AFNE24.JPG,AFSA25.JPG,0,5,5,6,,,,,,,,,,,,,,,,,,,,,,,AMNE13.jpg,AMSA04.jpg,AMNE11.jpg,AMSA03.jpg,AMNE13.jpg,MN,1,num_8,16,num_8,0.766778743593,,,2017_Apr_28_1437,59.9890519775,MAFE4ImagesEEG,001,200221,
AMNE23.JPG,AMNE24.JPG,AMNE22.JPG,AMSA24.JPG,AMSA22.JPG,AMSA23.JPG,0,6,6,9,,,,,,,,,,,,,,,,,,,,,,,AMSA05.jpg,AMSA14.jpg,AMNE14.jpg,AMNE10.jpg,AMNE10.jpg,MN,1,num_4,16,num_4,0.883462981321,,,2017_Apr_28_1437,59.9890519775,MAFE4ImagesEEG,001,200221,
AMSA25.JPG,AMNE24.JPG,AMSA24.JPG,AMNE26.JPG,AMSA21.JPG,AMNE25.JPG,0,7,7,3,,,,,,,,,,,,,,,,,,,,,,,AMNE20.jpg,AMSA20.jpg,AMNE02.jpg,AMSA16.jpg,AMNE02.jpg,MN,1,num_2,32,num_4,1.10009914043,,,2017_Apr_28_1437,59.9890519775,MAFE4ImagesEEG,001,200221,
AMSA21.JPG,AMNE23.JPG,AMNE21.JPG,AMSA25.JPG,AMNE25.JPG,AMSA23.JPG,0,8,8,5,,,,,,,,,,,,,,,,,,,,,,,AMNE08.jpg,AMSA05.jpg,AMNE07.jpg,AMSA07.jpg,AMNE07.jpg,MN,1,num_2,32,num_6,2.5833297784,,,2017_Apr_28_1437,59.9890519775,MAFE4ImagesEEG,001,200221,
AMNE22.JPG,AMSA24.JPG,AMSA22.JPG,AMNE25.JPG,AMNE24.JPG,AMSA25.JPG,0,9,9,7,,,,,,,,,,,,,,,,,,,,,,,AMSA01.jpg,AMNE09.jpg,AMNE05.jpg,AMSA17.jpg,AMNE05.jpg,MN,1,num_2,32,num_6,0.81664404925,,,2017_Apr_28_1437,59.9890519775,MAFE4ImagesEEG,001,200221,
AMSA25.JPG,AMNE24.JPG,AMSA24.JPG,AMNE26.JPG,AMSA21.JPG,AMNE25.JPG,,,,,0,0,0,3,,,,,,,,,,,,,,,,,,,AFNE06.jpg,AFSA01.jpg,AFNE01.jpg,AFSA11.jpg,AFSA11.jpg,FS,4,num_4,32,num_6,1.43345674302,,,2017_Apr_28_1437,59.9890519775,MAFE4ImagesEEG,001,200221,
AFSA25.JPG,AFNE24.JPG,AFSA24.JPG,AFNE21.JPG,AFSA21.JPG,AFNE25.JPG,,,,,0,1,1,2,,,,,,,,,,,,,,,,,,,AFNE09.jpg,AFSA20.jpg,AFSA12.jpg,AFNE16.jpg,AFNE09.jpg,FN,3,num_8,32,num_4,1.6667581842,,,2017_Apr_28_1437,59.9890519775,MAFE4ImagesEEG,001,200221,
AMSA21.JPG,AMNE23.JPG,AMNE21.JPG,AMSA25.JPG,AMNE25.JPG,AMSA23.JPG,,,,,0,2,2,5,,,,,,,,,,,,,,,,,,,AFSA04.jpg,AFNE05.jpg,AFSA19.jpg,AFNE13.jpg,AFSA04.jpg,FS,4,num_8,32,num_4,3.01690006314,,,2017_Apr_28_1437,59.9890519775,MAFE4ImagesEEG,001,200221,
AFNE23.JPG,AFNE24.JPG,AFNE22.JPG,AFSA24.JPG,AFSA22.JPG,AFSA23.JPG,,,,,0,3,3,8,,,,,,,,,,,,,,,,,,,AFSA08.jpg,AFNE02.jpg,AFSA12.jpg,AFNE06.jpg,AFSA08.jpg,FS,4,num_8,32,num_4,0.833464569063,,,2017_Apr_28_1437,59.9890519775,MAFE4ImagesEEG,001,200221,
AFSA21.JPG,AFNE22.JPG,AFNE21.JPG,AFSA23.JPG,AFSA22.JPG,AFNE23.JPG,,,,,0,4,4,0,,,,,,,,,,,,,,,,,,,AFNE01.jpg,AFNE04.jpg,AFSA15.jpg,AFSA14.jpg,AFNE01.jpg,FN,3,num_8,32,num_6,1.23328668717,,,2017_Apr_28_1437,59.9890519775,MAFE4ImagesEEG,001,200221,
AMNE22.JPG,AMSA24.JPG,AMSA22.JPG,AMNE25.JPG,AMNE24.JPG,AMSA25.JPG,,,,,0,5,5,7,,,,,,,,,,,,,,,,,,,AFSA06.jpg,AFSA01.jpg,AFNE11.jpg,AFNE15.jpg,AFNE15.jpg,FN,3,num_4,32,num_2,2.36665641365,,,2017_Apr_28_1437,59.9890519775,MAFE4ImagesEEG,001,200221,
AFSA21.JPG,AFNE23.JPG,AFNE21.JPG,AFSA25.JPG,AFNE25.JPG,AFSA23.JPG,,,,,0,6,6,4,,,,,,,,,,,,,,,,,,,AFNE02.jpg,AFSA17.jpg,AFSA04.jpg,AFNE15.jpg,AFNE15.jpg,FN,3,num_4,16,num_4,0.51682549133,,,2017_Apr_28_1437,59.9890519775,MAFE4ImagesEEG,001,200221,
AMSA21.JPG,AMNE22.JPG,AMNE21.JPG,AMSA23.JPG,AMSA22.JPG,AMNE23.JPG,,,,,0,7,7,1,,,,,,,,,,,,,,,,,,,AFSA16.jpg,AFNE10.jpg,AFSA19.jpg,AFNE04.jpg,AFNE10.jpg,FN,3,num_6,16,num_6,0.900128263514,,,2017_Apr_28_1437,59.9890519775,MAFE4ImagesEEG,001,200221,
AMNE23.JPG,AMNE24.JPG,AMNE22.JPG,AMSA24.JPG,AMSA22.JPG,AMSA23.JPG,,,,,0,8,8,9,,,,,,,,,,,,,,,,,,,AFSA15.jpg,AFNE16.jpg,AFNE19.jpg,AFSA14.jpg,AFSA14.jpg,FS,4,num_4,16,num_4,0.566806904506,,,2017_Apr_28_1437,59.9890519775,MAFE4ImagesEEG,001,200221,
AFNE22.JPG,AFSA24.JPG,AFSA22.JPG,AFNE25.JPG,AFNE24.JPG,AFSA25.JPG,,,,,0,9,9,6,,,,,,,,,,,,,,,,,,,AFNE19.jpg,AFNE03.jpg,AFSA14.jpg,AFSA05.jpg,AFNE19.jpg,FN,3,num_8,32,num_6,1.21664642263,,,2017_Apr_28_1437,59.9890519775,MAFE4ImagesEEG,001,200221,
AMSA25.JPG,AMNE24.JPG,AMSA24.JPG,AMNE26.JPG,AMSA21.JPG,AMNE25.JPG,,,,,,,,,0,0,0,3,,,,,,,,,,,,,,,AMSA05.jpg,AMNE04.jpg,AMSA18.jpg,AMNE20.jpg,AMSA18.jpg,MS,2,num_2,16,num_2,1.35009633389,,,2017_Apr_28_1437,59.9890519775,MAFE4ImagesEEG,001,200221,
AFSA25.JPG,AFNE24.JPG,AFSA24.JPG,AFNE21.JPG,AFSA21.JPG,AFNE25.JPG,,,,,,,,,0,1,1,2,,,,,,,,,,,,,,,AMSA04.jpg,AMSA16.jpg,AMNE11.jpg,AMNE05.jpg,AMNE11.jpg,MN,1,num_2,48,None,,,,2017_Apr_28_1437,59.9890519775,MAFE4ImagesEEG,001,200221,
AMNE22.JPG,AMSA24.JPG,AMSA22.JPG,AMNE25.JPG,AMNE24.JPG,AMSA25.JPG,,,,,,,,,0,2,2,7,,,,,,,,,,,,,,,AMSA06.jpg,AMNE13.jpg,AMSA19.jpg,AMNE17.jpg,AMNE17.jpg,MN,1,num_4,32,num_6,0.366812934284,,,2017_Apr_28_1437,59.9890519775,MAFE4ImagesEEG,001,200221,
AMSA21.JPG,AMNE23.JPG,AMNE21.JPG,AMSA25.JPG,AMNE25.JPG,AMSA23.JPG,,,,,,,,,0,3,3,5,,,,,,,,,,,,,,,AMSA12.jpg,AMNE15.jpg,AMNE04.jpg,AMSA13.jpg,AMNE15.jpg,MN,1,num_6,16,num_6,0.616802109405,,,2017_Apr_28_1437,59.9890519775,MAFE4ImagesEEG,001,200221,
AFNE23.JPG,AFNE24.JPG,AFNE22.JPG,AFSA24.JPG,AFSA22.JPG,AFSA23.JPG,,,,,,,,,0,4,4,8,,,,,,,,,,,,,,,AMSA08.jpg,AMNE20.jpg,AMNE06.jpg,AMSA16.jpg,AMNE20.jpg,MN,1,num_6,32,num_2,0.766818515258,,,2017_Apr_28_1437,59.9890519775,MAFE4ImagesEEG,001,200221,
AFSA21.JPG,AFNE23.JPG,AFNE21.JPG,AFSA25.JPG,AFNE25.JPG,AFSA23.JPG,,,,,,,,,0,5,5,4,,,,,,,,,,,,,,,AMNE18.jpg,AMSA05.jpg,AMSA19.jpg,AMNE11.jpg,AMSA05.jpg,MS,2,num_6,16,num_6,1.1834746243,,,2017_Apr_28_1437,59.9890519775,MAFE4ImagesEEG,001,200221,
AFNE22.JPG,AFSA24.JPG,AFSA22.JPG,AFNE25.JPG,AFNE24.JPG,AFSA25.JPG,,,,,,,,,0,6,6,6,,,,,,,,,,,,,,,AMNE01.jpg,AMSA09.jpg,AMNE04.jpg,AMSA04.jpg,AMNE04.jpg,MN,1,num_2,32,num_8,1.68325956864,,,2017_Apr_28_1437,59.9890519775,MAFE4ImagesEEG,001,200221,
AMNE23.JPG,AMNE24.JPG,AMNE22.JPG,AMSA24.JPG,AMSA22.JPG,AMSA23.JPG,,,,,,,,,0,7,7,9,,,,,,,,,,,,,,,AMNE07.jpg,AMSA15.jpg,AMNE06.jpg,AMSA17.jpg,AMNE07.jpg,MN,1,num_8,32,num_6,1.03348900937,,,2017_Apr_28_1437,59.9890519775,MAFE4ImagesEEG,001,200221,
AFSA21.JPG,AFNE22.JPG,AFNE21.JPG,AFSA23.JPG,AFSA22.JPG,AFNE23.JPG,,,,,,,,,0,8,8,0,,,,,,,,,,,,,,,AMNE03.jpg,AMSA11.jpg,AMSA07.jpg,AMNE17.jpg,AMSA07.jpg,MS,2,num_2,16,num_2,2.24998596765,,,2017_Apr_28_1437,59.9890519775,MAFE4ImagesEEG,001,200221,
AMSA21.JPG,AMNE22.JPG,AMNE21.JPG,AMSA23.JPG,AMSA22.JPG,AMNE23.JPG,,,,,,,,,0,9,9,1,,,,,,,,,,,,,,,AMNE09.jpg,AMNE04.jpg,AMSA02.jpg,AMSA08.jpg,AMSA02.jpg,MS,2,num_2,32,num_6,2.53337081696,,,2017_Apr_28_1437,59.9890519775,MAFE4ImagesEEG,001,200221,
AMSA25.JPG,AMNE24.JPG,AMSA24.JPG,AMNE26.JPG,AMSA21.JPG,AMNE25.JPG,,,,,,,,,,,,,0,0,0,3,,,,,,,,,,,AFSA13.jpg,AFNE02.jpg,AFNE15.jpg,AFSA07.jpg,AFNE02.jpg,FN,3,num_6,48,None,,,,2017_Apr_28_1437,59.9890519775,MAFE4ImagesEEG,001,200221,
AFSA21.JPG,AFNE23.JPG,AFNE21.JPG,AFSA25.JPG,AFNE25.JPG,AFSA23.JPG,,,,,,,,,,,,,0,1,1,4,,,,,,,,,,,AFSA19.jpg,AFSA14.jpg,AFNE01.jpg,AFNE09.jpg,AFNE01.jpg,FN,3,num_2,48,None,,,,2017_Apr_28_1437,59.9890519775,MAFE4ImagesEEG,001,200221,
AMSA21.JPG,AMNE22.JPG,AMNE21.JPG,AMSA23.JPG,AMSA22.JPG,AMNE23.JPG,,,,,,,,,,,,,0,2,2,1,,,,,,,,,,,AFNE02.jpg,AFSA19.jpg,AFSA12.jpg,AFNE17.jpg,AFNE17.jpg,FN,3,num_4,16,num_4,0.550123660942,,,2017_Apr_28_1437,59.9890519775,MAFE4ImagesEEG,001,200221,
AFNE23.JPG,AFNE24.JPG,AFNE22.JPG,AFSA24.JPG,AFSA22.JPG,AFSA23.JPG,,,,,,,,,,,,,0,3,3,8,,,,,,,,,,,AFSA04.jpg,AFNE14.jpg,AFSA13.jpg,AFNE02.jpg,AFNE02.jpg,FN,3,num_4,32,num_2,1.06675253925,,,2017_Apr_28_1437,59.9890519775,MAFE4ImagesEEG,001,200221,
AFSA21.JPG,AFNE22.JPG,AFNE21.JPG,AFSA23.JPG,AFSA22.JPG,AFNE23.JPG,,,,,,,,,,,,,0,4,4,0,,,,,,,,,,,AFSA17.jpg,AFSA13.jpg,AFNE12.jpg,AFNE04.jpg,AFSA13.jpg,FS,4,num_6,16,num_6,1.60008230165,,,2017_Apr_28_1437,59.9890519775,MAFE4ImagesEEG,001,200221,
AMNE22.JPG,AMSA24.JPG,AMSA22.JPG,AMNE25.JPG,AMNE24.JPG,AMSA25.JPG,,,,,,,,,,,,,0,5,5,7,,,,,,,,,,,AFSA06.jpg,AFNE12.jpg,AFSA17.jpg,AFNE03.jpg,AFSA06.jpg,FS,4,num_8,16,num_8,0.916741585941,,,2017_Apr_28_1437,59.9890519775,MAFE4ImagesEEG,001,200221,
AMNE23.JPG,AMNE24.JPG,AMNE22.JPG,AMSA24.JPG,AMSA22.JPG,AMSA23.JPG,,,,,,,,,,,,,0,6,6,9,,,,,,,,,,,AFSA09.jpg,AFNE04.jpg,AFSA18.jpg,AFNE03.jpg,AFSA18.jpg,FS,4,num_2,32,num_6,4.76647789031,,,2017_Apr_28_1437,59.9890519775,MAFE4ImagesEEG,001,200221,
AMSA21.JPG,AMNE23.JPG,AMNE21.JPG,AMSA25.JPG,AMNE25.JPG,AMSA23.JPG,,,,,,,,,,,,,0,7,7,5,,,,,,,,,,,AFNE11.jpg,AFNE03.jpg,AFSA04.jpg,AFSA14.jpg,AFSA04.jpg,FS,4,num_2,16,num_2,2.11665954092,,,2017_Apr_28_1437,59.9890519775,MAFE4ImagesEEG,001,200221,
AFNE22.JPG,AFSA24.JPG,AFSA22.JPG,AFNE25.JPG,AFNE24.JPG,AFSA25.JPG,,,,,,,,,,,,,0,8,8,6,,,,,,,,,,,AFSA10.jpg,AFNE02.jpg,AFSA04.jpg,AFNE14.jpg,AFNE02.jpg,FN,3,num_6,32,num_2,2.35003539361,,,2017_Apr_28_1437,59.9890519775,MAFE4ImagesEEG,001,200221,
AFSA25.JPG,AFNE24.JPG,AFSA24.JPG,AFNE21.JPG,AFSA21.JPG,AFNE25.JPG,,,,,,,,,,,,,0,9,9,2,,,,,,,,,,,AFSA08.jpg,AFNE03.jpg,AFNE07.jpg,AFSA06.jpg,AFSA06.jpg,FS,4,num_4,48,None,,,,2017_Apr_28_1437,59.9890519775,MAFE4ImagesEEG,001,200221,
AMSA21.JPG,AMNE22.JPG,AMNE21.JPG,AMSA23.JPG,AMSA22.JPG,AMNE23.JPG,,,,,,,,,,,,,,,,,0,0,0,1,,,,,,,AMSA20.jpg,AMSA18.jpg,AMNE19.jpg,AMNE15.jpg,AMSA20.jpg,MS,2,num_8,48,None,,,,2017_Apr_28_1437,59.9890519775,MAFE4ImagesEEG,001,200221,
AFNE23.JPG,AFNE24.JPG,AFNE22.JPG,AFSA24.JPG,AFSA22.JPG,AFSA23.JPG,,,,,,,,,,,,,,,,,0,1,1,8,,,,,,,AMSA19.jpg,AMNE20.jpg,AMSA20.jpg,AMNE17.jpg,AMSA20.jpg,MS,2,num_2,32,num_6,4.44984554802,,,2017_Apr_28_1437,59.9890519775,MAFE4ImagesEEG,001,200221,
AMSA21.JPG,AMNE23.JPG,AMNE21.JPG,AMSA25.JPG,AMNE25.JPG,AMSA23.JPG,,,,,,,,,,,,,,,,,0,2,2,5,,,,,,,AMSA15.jpg,AMNE19.jpg,AMNE20.jpg,AMSA12.jpg,AMNE19.jpg,MN,1,num_6,32,num_2,1.68327528494,,,2017_Apr_28_1437,59.9890519775,MAFE4ImagesEEG,001,200221,
AMSA25.JPG,AMNE24.JPG,AMSA24.JPG,AMNE26.JPG,AMSA21.JPG,AMNE25.JPG,,,,,,,,,,,,,,,,,0,3,3,3,,,,,,,AMNE02.jpg,AMNE12.jpg,AMSA04.jpg,AMSA10.jpg,AMSA04.jpg,MS,2,num_2,16,num_2,1.73342925566,,,2017_Apr_28_1437,59.9890519775,MAFE4ImagesEEG,001,200221,
AMNE22.JPG,AMSA24.JPG,AMSA22.JPG,AMNE25.JPG,AMNE24.JPG,AMSA25.JPG,,,,,,,,,,,,,,,,,0,4,4,7,,,,,,,AMSA04.jpg,AMSA14.jpg,AMNE09.jpg,AMNE14.jpg,AMNE14.jpg,MN,1,num_4,32,num_8,1.10624642577,,,2017_Apr_28_1437,59.9890519775,MAFE4ImagesEEG,001,200221,
AMNE23.JPG,AMNE24.JPG,AMNE22.JPG,AMSA24.JPG,AMSA22.JPG,AMSA23.JPG,,,,,,,,,,,,,,,,,0,5,5,9,,,,,,,AMSA06.jpg,AMSA17.jpg,AMNE04.jpg,AMNE19.jpg,AMNE04.jpg,MN,1,num_2,16,num_2,1.39998152538,,,2017_Apr_28_1437,59.9890519775,MAFE4ImagesEEG,001,200221,
AFSA21.JPG,AFNE23.JPG,AFNE21.JPG,AFSA25.JPG,AFNE25.JPG,AFSA23.JPG,,,,,,,,,,,,,,,,,0,6,6,4,,,,,,,AMNE10.jpg,AMNE14.jpg,AMSA08.jpg,AMSA16.jpg,AMSA16.jpg,MS,2,num_4,16,num_4,1.10014693055,,,2017_Apr_28_1437,59.9890519775,MAFE4ImagesEEG,001,200221,
AFNE22.JPG,AFSA24.JPG,AFSA22.JPG,AFNE25.JPG,AFNE24.JPG,AFSA25.JPG,,,,,,,,,,,,,,,,,0,7,7,6,,,,,,,AMNE15.jpg,AMNE03.jpg,AMSA19.jpg,AMSA15.jpg,AMNE03.jpg,MN,1,num_6,48,None,,,,2017_Apr_28_1437,59.9890519775,MAFE4ImagesEEG,001,200221,
AFSA21.JPG,AFNE22.JPG,AFNE21.JPG,AFSA23.JPG,AFSA22.JPG,AFNE23.JPG,,,,,,,,,,,,,,,,,0,8,8,0,,,,,,,AMNE07.jpg,AMSA20.jpg,AMSA07.jpg,AMNE02.jpg,AMNE07.jpg,MN,1,num_8,32,num_6,1.0501597441,,,2017_Apr_28_1437,59.9890519775,MAFE4ImagesEEG,001,200221,
AFSA25.JPG,AFNE24.JPG,AFSA24.JPG,AFNE21.JPG,AFSA21.JPG,AFNE25.JPG,,,,,,,,,,,,,,,,,0,9,9,2,,,,,,,AMSA13.jpg,AMNE17.jpg,AMSA01.jpg,AMNE07.jpg,AMSA13.jpg,MS,2,num_8,48,None,,,,2017_Apr_28_1437,59.9890519775,MAFE4ImagesEEG,001,200221,
AFSA25.JPG,AFNE24.JPG,AFSA24.JPG,AFNE21.JPG,AFSA21.JPG,AFNE25.JPG,,,,,,,,,,,,,,,,,,,,,0,0,0,2,,,AFSA20.jpg,AFNE04.jpg,AFNE03.jpg,AFSA01.jpg,AFSA20.jpg,FS,4,num_8,16,num_8,1.90004775801,,,2017_Apr_28_1437,59.9890519775,MAFE4ImagesEEG,001,200221,
AMSA21.JPG,AMNE23.JPG,AMNE21.JPG,AMSA25.JPG,AMNE25.JPG,AMSA23.JPG,,,,,,,,,,,,,,,,,,,,,0,1,1,5,,,AFSA17.jpg,AFNE01.jpg,AFNE14.jpg,AFSA18.jpg,AFNE01.jpg,FN,3,num_6,48,None,,,,2017_Apr_28_1437,59.9890519775,MAFE4ImagesEEG,001,200221,
AFNE23.JPG,AFNE24.JPG,AFNE22.JPG,AFSA24.JPG,AFSA22.JPG,AFSA23.JPG,,,,,,,,,,,,,,,,,,,,,0,2,2,8,,,AFNE03.jpg,AFSA18.jpg,AFSA06.jpg,AFNE06.jpg,AFSA06.jpg,FS,4,num_2,32,num_6,1.35011654056,,,2017_Apr_28_1437,59.9890519775,MAFE4ImagesEEG,001,200221,
AMSA25.JPG,AMNE24.JPG,AMSA24.JPG,AMNE26.JPG,AMSA21.JPG,AMNE25.JPG,,,,,,,,,,,,,,,,,,,,,0,3,3,3,,,AFNE07.jpg,AFSA15.jpg,AFNE12.jpg,AFSA14.jpg,AFNE12.jpg,FN,3,num_2,48,None,,,,2017_Apr_28_1437,59.9890519775,MAFE4ImagesEEG,001,200221,
AMSA21.JPG,AMNE22.JPG,AMNE21.JPG,AMSA23.JPG,AMSA22.JPG,AMNE23.JPG,,,,,,,,,,,,,,,,,,,,,0,4,4,1,,,AFSA09.jpg,AFNE05.jpg,AFSA11.jpg,AFNE11.jpg,AFSA11.jpg,FS,4,num_2,32,num_8,3.28325174272,,,2017_Apr_28_1437,59.9890519775,MAFE4ImagesEEG,001,200221,
AFSA21.JPG,AFNE22.JPG,AFNE21.JPG,AFSA23.JPG,AFSA22.JPG,AFNE23.JPG,,,,,,,,,,,,,,,,,,,,,0,5,5,0,,,AFNE19.jpg,AFSA09.jpg,AFNE16.jpg,AFSA06.jpg,AFNE19.jpg,FN,3,num_8,48,None,,,,2017_Apr_28_1437,59.9890519775,MAFE4ImagesEEG,001,200221,
AFNE22.JPG,AFSA24.JPG,AFSA22.JPG,AFNE25.JPG,AFNE24.JPG,AFSA25.JPG,,,,,,,,,,,,,,,,,,,,,0,6,6,6,,,AFNE18.jpg,AFSA03.jpg,AFSA10.jpg,AFNE14.jpg,AFNE18.jpg,FN,3,num_8,32,num_4,2.0333466013,,,2017_Apr_28_1437,59.9890519775,MAFE4ImagesEEG,001,200221,
AMNE22.JPG,AMSA24.JPG,AMSA22.JPG,AMNE25.JPG,AMNE24.JPG,AMSA25.JPG,,,,,,,,,,,,,,,,,,,,,0,7,7,7,,,AFSA18.jpg,AFNE03.jpg,AFSA10.jpg,AFNE01.jpg,AFSA10.jpg,FS,4,num_2,16,num_2,1.40007133235,,,2017_Apr_28_1437,59.9890519775,MAFE4ImagesEEG,001,200221,
AFSA21.JPG,AFNE23.JPG,AFNE21.JPG,AFSA25.JPG,AFNE25.JPG,AFSA23.JPG,,,,,,,,,,,,,,,,,,,,,0,8,8,4,,,AFSA15.jpg,AFNE06.jpg,AFNE20.jpg,AFSA03.jpg,AFNE06.jpg,FN,3,num_6,32,num_2,1.71667384577,,,2017_Apr_28_1437,59.9890519775,MAFE4ImagesEEG,001,200221,
AMNE23.JPG,AMNE24.JPG,AMNE22.JPG,AMSA24.JPG,AMSA22.JPG,AMSA23.JPG,,,,,,,,,,,,,,,,,,,,,0,9,9,9,,,AFSA11.jpg,AFNE01.jpg,AFSA03.jpg,AFNE07.jpg,AFSA11.jpg,FS,4,num_8,32,num_6,1.36678952037,,,2017_Apr_28_1437,59.9890519775,MAFE4ImagesEEG,001,200221,
,,,,,,,,,,,,,,,,,,,,,,,,,,,,,,,,,,,,,,,,,,,space,35.1139958027,2017_Apr_28_1437,59.9890519775,MAFE4ImagesEEG,001,200221,
AFNE01.JPG,AFNE01.JPG,AFNE01.JPG,AFNE01.JPG,AFNE01.JPG,AFNE01.JPG,0,0,0,2,,,,,,,,,,,,,,,,,,,,,,,AMSA08.jpg,AMNE06.jpg,AMSA11.jpg,AMNE16.jpg,AMSA11.jpg,MS,2,num_2,32,num_8,1.81667355727,,,2017_Apr_28_1437,59.9890519775,MAFE4ImagesEEG,001,200221,
AFNE01.JPG,AFNE01.JPG,AFNE01.JPG,AFNE01.JPG,AFNE01.JPG,AFNE01.JPG,0,1,1,9,,,,,,,,,,,,,,,,,,,,,,,AMSA05.jpg,AMNE08.jpg,AMSA03.jpg,AMNE11.jpg,AMNE11.jpg,MN,1,num_4,32,num_8,0.883473565802,,,2017_Apr_28_1437,59.9890519775,MAFE4ImagesEEG,001,200221,
AFNE01.JPG,AFNE01.JPG,AFNE01.JPG,AFNE01.JPG,AFNE01.JPG,AFNE01.JPG,0,2,2,4,,,,,,,,,,,,,,,,,,,,,,,AMNE07.jpg,AMSA04.jpg,AMNE06.jpg,AMSA08.jpg,AMSA04.jpg,MS,2,num_6,32,num_4,0.533436247846,,,2017_Apr_28_1437,59.9890519775,MAFE4ImagesEEG,001,200221,
AFNE01.JPG,AFNE01.JPG,AFNE01.JPG,AFNE01.JPG,AFNE01.JPG,AFNE01.JPG,0,3,3,3,,,,,,,,,,,,,,,,,,,,,,,AMNE07.jpg,AMSA19.jpg,AMSA08.jpg,AMNE10.jpg,AMNE07.jpg,MN,1,num_8,32,num_4,1.15012192901,,,2017_Apr_28_1437,59.9890519775,MAFE4ImagesEEG,001,200221,
AFNE01.JPG,AFNE01.JPG,AFNE01.JPG,AFNE01.JPG,AFNE01.JPG,AFNE01.JPG,0,4,4,7,,,,,,,,,,,,,,,,,,,,,,,AMSA04.jpg,AMNE15.jpg,AMNE05.jpg,AMSA13.jpg,AMSA13.jpg,MS,2,num_4,32,num_2,2.63331760641,,,2017_Apr_28_1437,59.9890519775,MAFE4ImagesEEG,001,200221,
AFNE01.JPG,AFNE01.JPG,AFNE01.JPG,AFNE01.JPG,AFNE01.JPG,AFNE01.JPG,0,5,5,8,,,,,,,,,,,,,,,,,,,,,,,AMSA11.jpg,AMNE07.jpg,AMNE05.jpg,AMSA14.jpg,AMNE05.jpg,MN,1,num_2,16,num_2,1.15009338316,,,2017_Apr_28_1437,59.9890519775,MAFE4ImagesEEG,001,200221,
AFNE01.JPG,AFNE01.JPG,AFNE01.JPG,AFNE01.JPG,AFNE01.JPG,AFNE01.JPG,0,6,6,5,,,,,,,,,,,,,,,,,,,,,,,AMSA19.jpg,AMNE04.jpg,AMNE01.jpg,AMSA07.jpg,AMNE01.jpg,MN,1,num_2,16,num_2,0.833429929218,,,2017_Apr_28_1437,59.9890519775,MAFE4ImagesEEG,001,200221,
AFNE01.JPG,AFNE01.JPG,AFNE01.JPG,AFNE01.JPG,AFNE01.JPG,AFNE01.JPG,0,7,7,0,,,,,,,,,,,,,,,,,,,,,,,AMNE03.jpg,AMSA10.jpg,AMNE15.jpg,AMSA01.jpg,AMSA01.jpg,MS,2,num_4,16,num_4,0.766804723418,,,2017_Apr_28_1437,59.9890519775,MAFE4ImagesEEG,001,200221,
AFNE01.JPG,AFNE01.JPG,AFNE01.JPG,AFNE01.JPG,AFNE01.JPG,AFNE01.JPG,0,8,8,1,,,,,,,,,,,,,,,,,,,,,,,AMSA19.jpg,AMNE08.jpg,AMNE11.jpg,AMSA02.jpg,AMNE11.jpg,MN,1,num_2,48,None,,,,2017_Apr_28_1437,59.9890519775,MAFE4ImagesEEG,001,200221,
AFNE01.JPG,AFNE01.JPG,AFNE01.JPG,AFNE01.JPG,AFNE01.JPG,AFNE01.JPG,0,9,9,6,,,,,,,,,,,,,,,,,,,,,,,AMSA07.jpg,AMSA17.jpg,AMNE16.jpg,AMNE10.jpg,AMSA07.jpg,MS,2,num_8,32,num_6,1.63341831847,,,2017_Apr_28_1437,59.9890519775,MAFE4ImagesEEG,001,200221,
AFNE01.JPG,AFNE01.JPG,AFNE01.JPG,AFNE01.JPG,AFNE01.JPG,AFNE01.JPG,1,0,10,5,,,,,,,,,,,,,,,,,,,,,,,AMSA18.jpg,AMSA04.jpg,AMNE05.jpg,AMNE06.jpg,AMNE06.jpg,MN,1,num_4,16,num_4,0.833462003153,,,2017_Apr_28_1437,59.9890519775,MAFE4ImagesEEG,001,200221,
AFNE01.JPG,AFNE01.JPG,AFNE01.JPG,AFNE01.JPG,AFNE01.JPG,AFNE01.JPG,1,1,11,7,,,,,,,,,,,,,,,,,,,,,,,AMNE18.jpg,AMSA13.jpg,AMNE19.jpg,AMSA19.jpg,AMSA13.jpg,MS,2,num_6,32,num_4,3.86653020291,,,2017_Apr_28_1437,59.9890519775,MAFE4ImagesEEG,001,200221,
AFNE01.JPG,AFNE01.JPG,AFNE01.JPG,AFNE01.JPG,AFNE01.JPG,AFNE01.JPG,1,2,12,4,,,,,,,,,,,,,,,,,,,,,,,AMSA05.jpg,AMNE05.jpg,AMNE01.jpg,AMSA12.jpg,AMSA12.jpg,MS,2,num_4,32,num_6,1.13343515724,,,2017_Apr_28_1437,59.9890519775,MAFE4ImagesEEG,001,200221,
AFNE01.JPG,AFNE01.JPG,AFNE01.JPG,AFNE01.JPG,AFNE01.JPG,AFNE01.JPG,1,3,13,6,,,,,,,,,,,,,,,,,,,,,,,AMNE03.jpg,AMNE20.jpg,AMSA04.jpg,AMSA14.jpg,AMSA14.jpg,MS,2,num_4,16,num_4,0.900121207233,,,2017_Apr_28_1437,59.9890519775,MAFE4ImagesEEG,001,200221,
AFNE01.JPG,AFNE01.JPG,AFNE01.JPG,AFNE01.JPG,AFNE01.JPG,AFNE01.JPG,1,4,14,0,,,,,,,,,,,,,,,,,,,,,,,AMNE09.jpg,AMNE12.jpg,AMSA19.jpg,AMSA20.jpg,AMSA20.jpg,MS,2,num_4,48,None,,,,2017_Apr_28_1437,59.9890519775,MAFE4ImagesEEG,001,200221,
AFNE01.JPG,AFNE01.JPG,AFNE01.JPG,AFNE01.JPG,AFNE01.JPG,AFNE01.JPG,1,5,15,1,,,,,,,,,,,,,,,,,,,,,,,AMNE09.jpg,AMSA10.jpg,AMNE11.jpg,AMSA20.jpg,AMSA10.jpg,MS,2,num_6,32,num_8,1.433427235,,,2017_Apr_28_1437,59.9890519775,MAFE4ImagesEEG,001,200221,
AFNE01.JPG,AFNE01.JPG,AFNE01.JPG,AFNE01.JPG,AFNE01.JPG,AFNE01.JPG,1,6,16,2,,,,,,,,,,,,,,,,,,,,,,,AMSA03.jpg,AMNE16.jpg,AMSA18.jpg,AMNE15.jpg,AMSA03.jpg,MS,2,num_8,16,num_8,1.83337925246,,,2017_Apr_28_1437,59.9890519775,MAFE4ImagesEEG,001,200221,
AFNE01.JPG,AFNE01.JPG,AFNE01.JPG,AFNE01.JPG,AFNE01.JPG,AFNE01.JPG,1,7,17,3,,,,,,,,,,,,,,,,,,,,,,,AMSA10.jpg,AMSA13.jpg,AMNE07.jpg,AMNE16.jpg,AMSA13.jpg,MS,2,num_6,32,num_2,2.66662347375,,,2017_Apr_28_1437,59.9890519775,MAFE4ImagesEEG,001,200221,
AFNE01.JPG,AFNE01.JPG,AFNE01.JPG,AFNE01.JPG,AFNE01.JPG,AFNE01.JPG,1,8,18,9,,,,,,,,,,,,,,,,,,,,,,,AMNE09.jpg,AMSA06.jpg,AMSA19.jpg,AMNE04.jpg,AMNE04.jpg,MN,1,num_4,48,None,,,,2017_Apr_28_1437,59.9890519775,MAFE4ImagesEEG,001,200221,
AFNE01.JPG,AFNE01.JPG,AFNE01.JPG,AFNE01.JPG,AFNE01.JPG,AFNE01.JPG,1,9,19,8,,,,,,,,,,,,,,,,,,,,,,,AMNE14.jpg,AMSA03.jpg,AMSA20.jpg,AMNE18.jpg,AMNE18.jpg,MN,1,num_4,16,num_4,0.633505559526,,,2017_Apr_28_1437,59.9890519775,MAFE4ImagesEEG,001,200221,
AFNE01.JPG,AFNE01.JPG,AFNE01.JPG,AFNE01.JPG,AFNE01.JPG,AFNE01.JPG,2,0,20,3,,,,,,,,,,,,,,,,,,,,,,,AMSA02.jpg,AMNE04.jpg,AMSA10.jpg,AMNE08.jpg,AMNE04.jpg,MN,1,num_6,48,None,,,,2017_Apr_28_1437,59.9890519775,MAFE4ImagesEEG,001,200221,
AFNE01.JPG,AFNE01.JPG,AFNE01.JPG,AFNE01.JPG,AFNE01.JPG,AFNE01.JPG,2,1,21,9,,,,,,,,,,,,,,,,,,,,,,,AMSA08.jpg,AMNE01.jpg,AMSA10.jpg,AMNE10.jpg,AMNE01.jpg,MN,1,num_6,48,None,,,,2017_Apr_28_1437,59.9890519775,MAFE4ImagesEEG,001,200221,
AFNE01.JPG,AFNE01.JPG,AFNE01.JPG,AFNE01.JPG,AFNE01.JPG,AFNE01.JPG,2,2,22,7,,,,,,,,,,,,,,,,,,,,,,,AMSA15.jpg,AMSA14.jpg,AMNE13.jpg,AMNE16.jpg,AMSA14.jpg,MS,2,num_6,16,num_6,0.483292861376,,,2017_Apr_28_1437,59.9890519775,MAFE4ImagesEEG,001,200221,
AFNE01.JPG,AFNE01.JPG,AFNE01.JPG,AFNE01.JPG,AFNE01.JPG,AFNE01.JPG,2,3,23,8,,,,,,,,,,,,,,,,,,,,,,,AMNE14.jpg,AMSA13.jpg,AMSA03.jpg,AMNE18.jpg,AMSA03.jpg,MS,2,num_2,48,None,,,,2017_Apr_28_1437,59.9890519775,MAFE4ImagesEEG,001,200221,
AFNE01.JPG,AFNE01.JPG,AFNE01.JPG,AFNE01.JPG,AFNE01.JPG,AFNE01.JPG,2,4,24,1,,,,,,,,,,,,,,,,,,,,,,,AMSA05.jpg,AMSA10.jpg,AMNE16.jpg,AMNE18.jpg,AMSA05.jpg,MS,2,num_8,48,None,,,,2017_Apr_28_1437,59.9890519775,MAFE4ImagesEEG,001,200221,
AFNE01.JPG,AFNE01.JPG,AFNE01.JPG,AFNE01.JPG,AFNE01.JPG,AFNE01.JPG,2,5,25,5,,,,,,,,,,,,,,,,,,,,,,,AMSA15.jpg,AMNE08.jpg,AMSA03.jpg,AMNE16.jpg,AMSA15.jpg,MS,2,num_8,32,num_4,3.73327947059,,,2017_Apr_28_1437,59.9890519775,MAFE4ImagesEEG,001,200221,
AFNE01.JPG,AFNE01.JPG,AFNE01.JPG,AFNE01.JPG,AFNE01.JPG,AFNE01.JPG,2,6,26,4,,,,,,,,,,,,,,,,,,,,,,,AMNE04.jpg,AMSA01.jpg,AMSA08.jpg,AMNE11.jpg,AMNE04.jpg,MN,1,num_8,16,num_8,3.2165825956,,,2017_Apr_28_1437,59.9890519775,MAFE4ImagesEEG,001,200221,
AFNE01.JPG,AFNE01.JPG,AFNE01.JPG,AFNE01.JPG,AFNE01.JPG,AFNE01.JPG,2,7,27,0,,,,,,,,,,,,,,,,,,,,,,,AMNE12.jpg,AMSA18.jpg,AMSA10.jpg,AMNE06.jpg,AMSA18.jpg,MS,2,num_6,48,None,,,,2017_Apr_28_1437,59.9890519775,MAFE4ImagesEEG,001,200221,
AFNE01.JPG,AFNE01.JPG,AFNE01.JPG,AFNE01.JPG,AFNE01.JPG,AFNE01.JPG,2,8,28,6,,,,,,,,,,,,,,,,,,,,,,,AMNE20.jpg,AMSA08.jpg,AMNE13.jpg,AMSA09.jpg,AMSA08.jpg,MS,2,num_6,48,None,,,,2017_Apr_28_1437,59.9890519775,MAFE4ImagesEEG,001,200221,
AFNE01.JPG,AFNE01.JPG,AFNE01.JPG,AFNE01.JPG,AFNE01.JPG,AFNE01.JPG,2,9,29,2,,,,,,,,,,,,,,,,,,,,,,,AMSA08.jpg,AMSA12.jpg,AMNE15.jpg,AMNE09.jpg,AMNE09.jpg,MN,1,num_4,16,num_4,0.416803969652,,,2017_Apr_28_1437,59.9890519775,MAFE4ImagesEEG,001,200221,
AFNE01.JPG,AFNE01.JPG,AFNE01.JPG,AFNE01.JPG,AFNE01.JPG,AFNE01.JPG,3,0,30,0,,,,,,,,,,,,,,,,,,,,,,,AMSA03.jpg,AMSA12.jpg,AMNE04.jpg,AMNE16.jpg,AMNE04.jpg,MN,1,num_2,48,None,,,,2017_Apr_28_1437,59.9890519775,MAFE4ImagesEEG,001,200221,
AFNE01.JPG,AFNE01.JPG,AFNE01.JPG,AFNE01.JPG,AFNE01.JPG,AFNE01.JPG,3,1,31,2,,,,,,,,,,,,,,,,,,,,,,,AMSA06.jpg,AMNE06.jpg,AMSA20.jpg,AMNE13.jpg,AMSA06.jpg,MS,2,num_8,48,None,,,,2017_Apr_28_1437,59.9890519775,MAFE4ImagesEEG,001,200221,
AFNE01.JPG,AFNE01.JPG,AFNE01.JPG,AFNE01.JPG,AFNE01.JPG,AFNE01.JPG,3,2,32,5,,,,,,,,,,,,,,,,,,,,,,,AMSA15.jpg,AMNE02.jpg,AMSA02.jpg,AMNE17.jpg,AMNE17.jpg,MN,1,num_4,48,None,,,,2017_Apr_28_1437,59.9890519775,MAFE4ImagesEEG,001,200221,
AFNE01.JPG,AFNE01.JPG,AFNE01.JPG,AFNE01.JPG,AFNE01.JPG,AFNE01.JPG,3,3,33,8,,,,,,,,,,,,,,,,,,,,,,,AMSA20.jpg,AMNE20.jpg,AMNE05.jpg,AMSA04.jpg,AMNE20.jpg,MN,1,num_6,32,num_4,0.616661946406,,,2017_Apr_28_1437,59.9890519775,MAFE4ImagesEEG,001,200221,
AFNE01.JPG,AFNE01.JPG,AFNE01.JPG,AFNE01.JPG,AFNE01.JPG,AFNE01.JPG,3,4,34,1,,,,,,,,,,,,,,,,,,,,,,,AMSA03.jpg,AMSA20.jpg,AMNE12.jpg,AMNE11.jpg,AMNE11.jpg,MN,1,num_4,48,None,,,,2017_Apr_28_1437,59.9890519775,MAFE4ImagesEEG,001,200221,
AFNE01.JPG,AFNE01.JPG,AFNE01.JPG,AFNE01.JPG,AFNE01.JPG,AFNE01.JPG,3,5,35,3,,,,,,,,,,,,,,,,,,,,,,,AMSA12.jpg,AMNE18.jpg,AMSA07.jpg,AMNE02.jpg,AMSA07.jpg,MS,2,num_2,48,None,,,,2017_Apr_28_1437,59.9890519775,MAFE4ImagesEEG,001,200221,
AFNE01.JPG,AFNE01.JPG,AFNE01.JPG,AFNE01.JPG,AFNE01.JPG,AFNE01.JPG,3,6,36,4,,,,,,,,,,,,,,,,,,,,,,,AMNE05.jpg,AMSA20.jpg,AMNE04.jpg,AMSA10.jpg,AMSA10.jpg,MS,2,num_4,16,num_4,1.51676230575,,,2017_Apr_28_1437,59.9890519775,MAFE4ImagesEEG,001,200221,
AFNE01.JPG,AFNE01.JPG,AFNE01.JPG,AFNE01.JPG,AFNE01.JPG,AFNE01.JPG,3,7,37,9,,,,,,,,,,,,,,,,,,,,,,,AMSA03.jpg,AMSA11.jpg,AMNE03.jpg,AMNE05.jpg,AMNE03.jpg,MN,1,num_2,48,None,,,,2017_Apr_28_1437,59.9890519775,MAFE4ImagesEEG,001,200221,
AFNE01.JPG,AFNE01.JPG,AFNE01.JPG,AFNE01.JPG,AFNE01.JPG,AFNE01.JPG,3,8,38,6,,,,,,,,,,,,,,,,,,,,,,,AMNE01.jpg,AMSA03.jpg,AMSA13.jpg,AMNE08.jpg,AMSA13.jpg,MS,2,num_2,48,None,,,,2017_Apr_28_1437,59.9890519775,MAFE4ImagesEEG,001,200221,
AFNE01.JPG,AFNE01.JPG,AFNE01.JPG,AFNE01.JPG,AFNE01.JPG,AFNE01.JPG,3,9,39,7,,,,,,,,,,,,,,,,,,,,,,,AMNE12.jpg,AMSA11.jpg,AMSA06.jpg,AMNE03.jpg,AMSA11.jpg,MS,2,num_6,48,None,,,,2017_Apr_28_1437,59.9890519775,MAFE4ImagesEEG,001,200221,
AFNE01.JPG,AFNE01.JPG,AFNE01.JPG,AFNE01.JPG,AFNE01.JPG,AFNE01.JPG,4,0,40,2,,,,,,,,,,,,,,,,,,,,,,,AMSA08.jpg,AMSA20.jpg,AMNE15.jpg,AMNE04.jpg,AMNE15.jpg,MN,1,num_2,32,num_8,4.53312962118,,,2017_Apr_28_1437,59.9890519775,MAFE4ImagesEEG,001,200221,
AFNE01.JPG,AFNE01.JPG,AFNE01.JPG,AFNE01.JPG,AFNE01.JPG,AFNE01.JPG,4,1,41,3,,,,,,,,,,,,,,,,,,,,,,,AMNE02.jpg,AMSA16.jpg,AMSA11.jpg,AMNE04.jpg,AMNE02.jpg,MN,1,num_8,48,None,,,,2017_Apr_28_1437,59.9890519775,MAFE4ImagesEEG,001,200221,
AFNE01.JPG,AFNE01.JPG,AFNE01.JPG,AFNE01.JPG,AFNE01.JPG,AFNE01.JPG,4,2,42,6,,,,,,,,,,,,,,,,,,,,,,,AMNE17.jpg,AMSA11.jpg,AMSA07.jpg,AMNE06.jpg,AMNE06.jpg,MN,1,num_4,48,None,,,,2017_Apr_28_1437,59.9890519775,MAFE4ImagesEEG,001,200221,
AFNE01.JPG,AFNE01.JPG,AFNE01.JPG,AFNE01.JPG,AFNE01.JPG,AFNE01.JPG,4,3,43,1,,,,,,,,,,,,,,,,,,,,,,,AMNE06.jpg,AMNE20.jpg,AMSA19.jpg,AMSA05.jpg,AMSA19.jpg,MS,2,num_2,48,None,,,,2017_Apr_28_1437,59.9890519775,MAFE4ImagesEEG,001,200221,
AFNE01.JPG,AFNE01.JPG,AFNE01.JPG,AFNE01.JPG,AFNE01.JPG,AFNE01.JPG,4,4,44,4,,,,,,,,,,,,,,,,,,,,,,,AMNE05.jpg,AMNE07.jpg,AMSA07.jpg,AMSA03.jpg,AMSA07.jpg,MS,2,num_2,48,None,,,,2017_Apr_28_1437,59.9890519775,MAFE4ImagesEEG,001,200221,
AFNE01.JPG,AFNE01.JPG,AFNE01.JPG,AFNE01.JPG,AFNE01.JPG,AFNE01.JPG,4,5,45,5,,,,,,,,,,,,,,,,,,,,,,,AMSA06.jpg,AMNE10.jpg,AMSA15.jpg,AMNE02.jpg,AMNE10.jpg,MN,1,num_6,32,num_4,0.983431581059,,,2017_Apr_28_1437,59.9890519775,MAFE4ImagesEEG,001,200221,
AFNE01.JPG,AFNE01.JPG,AFNE01.JPG,AFNE01.JPG,AFNE01.JPG,AFNE01.JPG,4,6,46,9,,,,,,,,,,,,,,,,,,,,,,,AMSA01.jpg,AMSA10.jpg,AMNE17.jpg,AMNE03.jpg,AMNE17.jpg,MN,1,num_2,48,None,,,,2017_Apr_28_1437,59.9890519775,MAFE4ImagesEEG,001,200221,
AFNE01.JPG,AFNE01.JPG,AFNE01.JPG,AFNE01.JPG,AFNE01.JPG,AFNE01.JPG,4,7,47,7,,,,,,,,,,,,,,,,,,,,,,,AMSA07.jpg,AMSA01.jpg,AMNE14.jpg,AMNE15.jpg,AMNE14.jpg,MN,1,num_2,48,None,,,,2017_Apr_28_1437,59.9890519775,MAFE4ImagesEEG,001,200221,
AFNE01.JPG,AFNE01.JPG,AFNE01.JPG,AFNE01.JPG,AFNE01.JPG,AFNE01.JPG,4,8,48,8,,,,,,,,,,,,,,,,,,,,,,,AMNE08.jpg,AMNE15.jpg,AMSA12.jpg,AMSA07.jpg,AMNE08.jpg,MN,1,num_8,32,num_4,0.966784901801,,,2017_Apr_28_1437,59.9890519775,MAFE4ImagesEEG,001,200221,
AFNE01.JPG,AFNE01.JPG,AFNE01.JPG,AFNE01.JPG,AFNE01.JPG,AFNE01.JPG,4,9,49,0,,,,,,,,,,,,,,,,,,,,,,,AMNE12.jpg,AMSA06.jpg,AMSA14.jpg,AMNE20.jpg,AMNE12.jpg,MN,1,num_8,16,num_8,0.700148405973,,,2017_Apr_28_1437,59.9890519775,MAFE4ImagesEEG,001,200221,
AFNE01.JPG,AFNE01.JPG,AFNE01.JPG,AFNE01.JPG,AFNE01.JPG,AFNE01.JPG,5,0,50,0,,,,,,,,,,,,,,,,,,,,,,,AMSA08.jpg,AMNE05.jpg,AMNE04.jpg,AMSA17.jpg,AMNE05.jpg,MN,1,num_6,32,num_8,2.11671887769,,,2017_Apr_28_1437,59.9890519775,MAFE4ImagesEEG,001,200221,
AFNE01.JPG,AFNE01.JPG,AFNE01.JPG,AFNE01.JPG,AFNE01.JPG,AFNE01.JPG,5,1,51,3,,,,,,,,,,,,,,,,,,,,,,,AMNE18.jpg,AMSA05.jpg,AMNE06.jpg,AMSA04.jpg,AMNE18.jpg,MN,1,num_8,48,None,,,,2017_Apr_28_1437,59.9890519775,MAFE4ImagesEEG,001,200221,
AFNE01.JPG,AFNE01.JPG,AFNE01.JPG,AFNE01.JPG,AFNE01.JPG,AFNE01.JPG,5,2,52,4,,,,,,,,,,,,,,,,,,,,,,,AMSA07.jpg,AMSA09.jpg,AMNE13.jpg,AMNE15.jpg,AMNE15.jpg,MN,1,num_4,16,num_4,0.816807946889,,,2017_Apr_28_1437,59.9890519775,MAFE4ImagesEEG,001,200221,
AFNE01.JPG,AFNE01.JPG,AFNE01.JPG,AFNE01.JPG,AFNE01.JPG,AFNE01.JPG,5,3,53,5,,,,,,,,,,,,,,,,,,,,,,,AMNE15.jpg,AMSA15.jpg,AMNE11.jpg,AMSA08.jpg,AMSA08.jpg,MS,2,num_4,16,num_4,0.816757590859,,,2017_Apr_28_1437,59.9890519775,MAFE4ImagesEEG,001,200221,
AFNE01.JPG,AFNE01.JPG,AFNE01.JPG,AFNE01.JPG,AFNE01.JPG,AFNE01.JPG,5,4,54,2,,,,,,,,,,,,,,,,,,,,,,,AMNE03.jpg,AMSA20.jpg,AMSA09.jpg,AMNE15.jpg,AMSA09.jpg,MS,2,num_2,32,num_4,0.783442422049,,,2017_Apr_28_1437,59.9890519775,MAFE4ImagesEEG,001,200221,
AFNE01.JPG,AFNE01.JPG,AFNE01.JPG,AFNE01.JPG,AFNE01.JPG,AFNE01.JPG,5,5,55,7,,,,,,,,,,,,,,,,,,,,,,,AMSA12.jpg,AMNE16.jpg,AMSA16.jpg,AMNE15.jpg,AMSA12.jpg,MS,2,num_8,32,num_6,2.20001257292,,,2017_Apr_28_1437,59.9890519775,MAFE4ImagesEEG,001,200221,
AFNE01.JPG,AFNE01.JPG,AFNE01.JPG,AFNE01.JPG,AFNE01.JPG,AFNE01.JPG,5,6,56,8,,,,,,,,,,,,,,,,,,,,,,,AMSA17.jpg,AMNE15.jpg,AMSA05.jpg,AMNE09.jpg,AMNE09.jpg,MN,1,num_4,48,None,,,,2017_Apr_28_1437,59.9890519775,MAFE4ImagesEEG,001,200221,
AFNE01.JPG,AFNE01.JPG,AFNE01.JPG,AFNE01.JPG,AFNE01.JPG,AFNE01.JPG,5,7,57,9,,,,,,,,,,,,,,,,,,,,,,,AMNE07.jpg,AMNE03.jpg,AMSA18.jpg,AMSA12.jpg,AMSA18.jpg,MS,2,num_2,48,None,,,,2017_Apr_28_1437,59.9890519775,MAFE4ImagesEEG,001,200221,
AFNE01.JPG,AFNE01.JPG,AFNE01.JPG,AFNE01.JPG,AFNE01.JPG,AFNE01.JPG,5,8,58,6,,,,,,,,,,,,,,,,,,,,,,,AMSA08.jpg,AMNE10.jpg,AMNE15.jpg,AMSA07.jpg,AMSA08.jpg,MS,2,num_8,32,num_6,1.39998344984,,,2017_Apr_28_1437,59.9890519775,MAFE4ImagesEEG,001,200221,
AFNE01.JPG,AFNE01.JPG,AFNE01.JPG,AFNE01.JPG,AFNE01.JPG,AFNE01.JPG,5,9,59,1,,,,,,,,,,,,,,,,,,,,,,,AMNE08.jpg,AMSA20.jpg,AMSA06.jpg,AMNE17.jpg,AMSA20.jpg,MS,2,num_6,48,None,,,,2017_Apr_28_1437,59.9890519775,MAFE4ImagesEEG,001,200221,
,,,,,,,,,,,,,,,,,,,,,,,,,,,,,,,,,,,,,,,,,,,space,44.3133216733,2017_Apr_28_1437,59.9890519775,MAFE4ImagesEEG,001,200221,
AFNE01.JPG,AFNE01.JPG,AFNE01.JPG,AFNE01.JPG,AFNE01.JPG,AFNE01.JPG,,,,,0,0,0,2,,,,,,,,,,,,,,,,,,,AFSA03.jpg,AFSA12.jpg,AFNE12.jpg,AFNE18.jpg,AFNE12.jpg,FN,3,num_2,32,num_4,0.516796945478,,,2017_Apr_28_1437,59.9890519775,MAFE4ImagesEEG,001,200221,
AFNE01.JPG,AFNE01.JPG,AFNE01.JPG,AFNE01.JPG,AFNE01.JPG,AFNE01.JPG,,,,,0,1,1,8,,,,,,,,,,,,,,,,,,,AFSA04.jpg,AFNE13.jpg,AFNE18.jpg,AFSA05.jpg,AFSA04.jpg,FS,4,num_8,32,num_6,0.483515775064,,,2017_Apr_28_1437,59.9890519775,MAFE4ImagesEEG,001,200221,
AFNE01.JPG,AFNE01.JPG,AFNE01.JPG,AFNE01.JPG,AFNE01.JPG,AFNE01.JPG,,,,,0,2,2,3,,,,,,,,,,,,,,,,,,,AFNE04.jpg,AFNE12.jpg,AFSA17.jpg,AFSA06.jpg,AFSA17.jpg,FS,4,num_2,16,num_2,4.54986097559,,,2017_Apr_28_1437,59.9890519775,MAFE4ImagesEEG,001,200221,
AFNE01.JPG,AFNE01.JPG,AFNE01.JPG,AFNE01.JPG,AFNE01.JPG,AFNE01.JPG,,,,,0,3,3,5,,,,,,,,,,,,,,,,,,,AFNE14.jpg,AFSA17.jpg,AFNE19.jpg,AFSA05.jpg,AFSA05.jpg,FS,4,num_4,16,num_4,0.583527995273,,,2017_Apr_28_1437,59.9890519775,MAFE4ImagesEEG,001,200221,
AFNE01.JPG,AFNE01.JPG,AFNE01.JPG,AFNE01.JPG,AFNE01.JPG,AFNE01.JPG,,,,,0,4,4,7,,,,,,,,,,,,,,,,,,,AFNE13.jpg,AFSA06.jpg,AFNE20.jpg,AFSA14.jpg,AFNE20.jpg,FN,3,num_2,32,num_8,1.55007330491,,,2017_Apr_28_1437,59.9890519775,MAFE4ImagesEEG,001,200221,
AFNE01.JPG,AFNE01.JPG,AFNE01.JPG,AFNE01.JPG,AFNE01.JPG,AFNE01.JPG,,,,,0,5,5,9,,,,,,,,,,,,,,,,,,,AFSA07.jpg,AFSA15.jpg,AFNE19.jpg,AFNE16.jpg,AFNE16.jpg,FN,3,num_4,32,num_6,1.03331420664,,,2017_Apr_28_1437,59.9890519775,MAFE4ImagesEEG,001,200221,
AFNE01.JPG,AFNE01.JPG,AFNE01.JPG,AFNE01.JPG,AFNE01.JPG,AFNE01.JPG,,,,,0,6,6,4,,,,,,,,,,,,,,,,,,,AFSA11.jpg,AFSA01.jpg,AFNE13.jpg,AFNE05.jpg,AFSA11.jpg,FS,4,num_8,16,num_8,1.55014450906,,,2017_Apr_28_1437,59.9890519775,MAFE4ImagesEEG,001,200221,
AFNE01.JPG,AFNE01.JPG,AFNE01.JPG,AFNE01.JPG,AFNE01.JPG,AFNE01.JPG,,,,,0,7,7,0,,,,,,,,,,,,,,,,,,,AFSA08.jpg,AFSA04.jpg,AFNE02.jpg,AFNE16.jpg,AFSA08.jpg,FS,4,num_8,48,None,,,,2017_Apr_28_1437,59.9890519775,MAFE4ImagesEEG,001,200221,
AFNE01.JPG,AFNE01.JPG,AFNE01.JPG,AFNE01.JPG,AFNE01.JPG,AFNE01.JPG,,,,,0,8,8,1,,,,,,,,,,,,,,,,,,,AFSA13.jpg,AFNE15.jpg,AFNE03.jpg,AFSA20.jpg,AFNE03.jpg,FN,3,num_2,32,num_8,4.7834273472,,,2017_Apr_28_1437,59.9890519775,MAFE4ImagesEEG,001,200221,
AFNE01.JPG,AFNE01.JPG,AFNE01.JPG,AFNE01.JPG,AFNE01.JPG,AFNE01.JPG,,,,,0,9,9,6,,,,,,,,,,,,,,,,,,,AFSA12.jpg,AFSA13.jpg,AFNE16.jpg,AFNE02.jpg,AFSA13.jpg,FS,4,num_6,48,None,,,,2017_Apr_28_1437,59.9890519775,MAFE4ImagesEEG,001,200221,
AFNE01.JPG,AFNE01.JPG,AFNE01.JPG,AFNE01.JPG,AFNE01.JPG,AFNE01.JPG,,,,,1,0,10,0,,,,,,,,,,,,,,,,,,,AFSA07.jpg,AFNE17.jpg,AFNE09.jpg,AFSA20.jpg,AFNE17.jpg,FN,3,num_6,32,num_4,3.19992148317,,,2017_Apr_28_1437,59.9890519775,MAFE4ImagesEEG,001,200221,
AFNE01.JPG,AFNE01.JPG,AFNE01.JPG,AFNE01.JPG,AFNE01.JPG,AFNE01.JPG,,,,,1,1,11,7,,,,,,,,,,,,,,,,,,,AFNE20.jpg,AFNE15.jpg,AFSA17.jpg,AFSA01.jpg,AFSA17.jpg,FS,4,num_2,16,num_2,4.39985130541,,,2017_Apr_28_1437,59.9890519775,MAFE4ImagesEEG,001,200221,
AFNE01.JPG,AFNE01.JPG,AFNE01.JPG,AFNE01.JPG,AFNE01.JPG,AFNE01.JPG,,,,,1,2,12,8,,,,,,,,,,,,,,,,,,,AFSA19.jpg,AFNE09.jpg,AFSA13.jpg,AFNE15.jpg,AFSA13.jpg,FS,4,num_2,32,num_6,2.76666712633,,,2017_Apr_28_1437,59.9890519775,MAFE4ImagesEEG,001,200221,
AFNE01.JPG,AFNE01.JPG,AFNE01.JPG,AFNE01.JPG,AFNE01.JPG,AFNE01.JPG,,,,,1,3,13,2,,,,,,,,,,,,,,,,,,,AFNE12.jpg,AFSA05.jpg,AFSA03.jpg,AFNE17.jpg,AFNE12.jpg,FN,3,num_8,16,num_8,1.21649150574,,,2017_Apr_28_1437,59.9890519775,MAFE4ImagesEEG,001,200221,
AFNE01.JPG,AFNE01.JPG,AFNE01.JPG,AFNE01.JPG,AFNE01.JPG,AFNE01.JPG,,,,,1,4,14,9,,,,,,,,,,,,,,,,,,,AFSA09.jpg,AFNE12.jpg,AFNE11.jpg,AFSA01.jpg,AFSA09.jpg,FS,4,num_8,32,num_4,1.96683172963,,,2017_Apr_28_1437,59.9890519775,MAFE4ImagesEEG,001,200221,
AFNE01.JPG,AFNE01.JPG,AFNE01.JPG,AFNE01.JPG,AFNE01.JPG,AFNE01.JPG,,,,,1,5,15,4,,,,,,,,,,,,,,,,,,,AFSA20.jpg,AFNE08.jpg,AFNE12.jpg,AFSA15.jpg,AFSA15.jpg,FS,4,num_4,32,num_8,1.45017623005,,,2017_Apr_28_1437,59.9890519775,MAFE4ImagesEEG,001,200221,
AFNE01.JPG,AFNE01.JPG,AFNE01.JPG,AFNE01.JPG,AFNE01.JPG,AFNE01.JPG,,,,,1,6,16,1,,,,,,,,,,,,,,,,,,,AFSA02.jpg,AFNE03.jpg,AFNE12.jpg,AFSA15.jpg,AFSA15.jpg,FS,4,num_4,32,num_8,2.18332868791,,,2017_Apr_28_1437,59.9890519775,MAFE4ImagesEEG,001,200221,
AFNE01.JPG,AFNE01.JPG,AFNE01.JPG,AFNE01.JPG,AFNE01.JPG,AFNE01.JPG,,,,,1,7,17,6,,,,,,,,,,,,,,,,,,,AFSA04.jpg,AFSA19.jpg,AFNE02.jpg,AFNE03.jpg,AFSA19.jpg,FS,4,num_6,16,num_6,4.68315757369,,,2017_Apr_28_1437,59.9890519775,MAFE4ImagesEEG,001,200221,
AFNE01.JPG,AFNE01.JPG,AFNE01.JPG,AFNE01.JPG,AFNE01.JPG,AFNE01.JPG,,,,,1,8,18,3,,,,,,,,,,,,,,,,,,,AFNE19.jpg,AFSA01.jpg,AFNE07.jpg,AFSA13.jpg,AFSA13.jpg,FS,4,num_4,16,num_4,0.466824833886,,,2017_Apr_28_1437,59.9890519775,MAFE4ImagesEEG,001,200221,
AFNE01.JPG,AFNE01.JPG,AFNE01.JPG,AFNE01.JPG,AFNE01.JPG,AFNE01.JPG,,,,,1,9,19,5,,,,,,,,,,,,,,,,,,,AFNE12.jpg,AFSA08.jpg,AFNE17.jpg,AFSA14.jpg,AFSA14.jpg,FS,4,num_4,16,num_4,0.600120469579,,,2017_Apr_28_1437,59.9890519775,MAFE4ImagesEEG,001,200221,
AFNE01.JPG,AFNE01.JPG,AFNE01.JPG,AFNE01.JPG,AFNE01.JPG,AFNE01.JPG,,,,,2,0,20,0,,,,,,,,,,,,,,,,,,,AFSA16.jpg,AFNE20.jpg,AFSA07.jpg,AFNE13.jpg,AFNE20.jpg,FN,3,num_6,32,num_2,2.25002766377,,,2017_Apr_28_1437,59.9890519775,MAFE4ImagesEEG,001,200221,
AFNE01.JPG,AFNE01.JPG,AFNE01.JPG,AFNE01.JPG,AFNE01.JPG,AFNE01.JPG,,,,,2,1,21,5,,,,,,,,,,,,,,,,,,,AFNE14.jpg,AFNE03.jpg,AFSA16.jpg,AFSA07.jpg,AFSA07.jpg,FS,4,num_4,32,num_6,4.39983398549,,,2017_Apr_28_1437,59.9890519775,MAFE4ImagesEEG,001,200221,
AFNE01.JPG,AFNE01.JPG,AFNE01.JPG,AFNE01.JPG,AFNE01.JPG,AFNE01.JPG,,,,,2,2,22,3,,,,,,,,,,,,,,,,,,,AFNE15.jpg,AFSA16.jpg,AFNE06.jpg,AFSA17.jpg,AFSA16.jpg,FS,4,num_6,48,None,,,,2017_Apr_28_1437,59.9890519775,MAFE4ImagesEEG,001,200221,
AFNE01.JPG,AFNE01.JPG,AFNE01.JPG,AFNE01.JPG,AFNE01.JPG,AFNE01.JPG,,,,,2,3,23,7,,,,,,,,,,,,,,,,,,,AFSA18.jpg,AFSA16.jpg,AFNE15.jpg,AFNE04.jpg,AFSA18.jpg,FS,4,num_8,32,num_4,1.28341852699,,,2017_Apr_28_1437,59.9890519775,MAFE4ImagesEEG,001,200221,
AFNE01.JPG,AFNE01.JPG,AFNE01.JPG,AFNE01.JPG,AFNE01.JPG,AFNE01.JPG,,,,,2,4,24,9,,,,,,,,,,,,,,,,,,,AFSA05.jpg,AFNE12.jpg,AFSA02.jpg,AFNE10.jpg,AFNE12.jpg,FN,3,num_6,32,num_8,2.75026837841,,,2017_Apr_28_1437,59.9890519775,MAFE4ImagesEEG,001,200221,
AFNE01.JPG,AFNE01.JPG,AFNE01.JPG,AFNE01.JPG,AFNE01.JPG,AFNE01.JPG,,,,,2,5,25,2,,,,,,,,,,,,,,,,,,,AFNE10.jpg,AFSA14.jpg,AFSA07.jpg,AFNE06.jpg,AFSA07.jpg,FS,4,num_2,48,None,,,,2017_Apr_28_1437,59.9890519775,MAFE4ImagesEEG,001,200221,
AFNE01.JPG,AFNE01.JPG,AFNE01.JPG,AFNE01.JPG,AFNE01.JPG,AFNE01.JPG,,,,,2,6,26,8,,,,,,,,,,,,,,,,,,,AFSA10.jpg,AFNE01.jpg,AFNE18.jpg,AFSA02.jpg,AFNE01.jpg,FN,3,num_6,16,num_6,1.33346280502,,,2017_Apr_28_1437,59.9890519775,MAFE4ImagesEEG,001,200221,
AFNE01.JPG,AFNE01.JPG,AFNE01.JPG,AFNE01.JPG,AFNE01.JPG,AFNE01.JPG,,,,,2,7,27,6,,,,,,,,,,,,,,,,,,,AFSA11.jpg,AFSA15.jpg,AFNE04.jpg,AFNE13.jpg,AFSA11.jpg,FS,4,num_8,32,num_6,1.6333480766,,,2017_Apr_28_1437,59.9890519775,MAFE4ImagesEEG,001,200221,
AFNE01.JPG,AFNE01.JPG,AFNE01.JPG,AFNE01.JPG,AFNE01.JPG,AFNE01.JPG,,,,,2,8,28,4,,,,,,,,,,,,,,,,,,,AFSA15.jpg,AFNE11.jpg,AFSA14.jpg,AFNE13.jpg,AFNE13.jpg,FN,3,num_4,48,None,,,,2017_Apr_28_1437,59.9890519775,MAFE4ImagesEEG,001,200221,
AFNE01.JPG,AFNE01.JPG,AFNE01.JPG,AFNE01.JPG,AFNE01.JPG,AFNE01.JPG,,,,,2,9,29,1,,,,,,,,,,,,,,,,,,,AFNE04.jpg,AFSA15.jpg,AFSA17.jpg,AFNE20.jpg,AFSA17.jpg,FS,4,num_2,32,num_6,0.833479323075,,,2017_Apr_28_1437,59.9890519775,MAFE4ImagesEEG,001,200221,
AFNE01.JPG,AFNE01.JPG,AFNE01.JPG,AFNE01.JPG,AFNE01.JPG,AFNE01.JPG,,,,,3,0,30,6,,,,,,,,,,,,,,,,,,,AFSA12.jpg,AFNE17.jpg,AFNE03.jpg,AFSA06.jpg,AFNE03.jpg,FN,3,num_2,48,None,,,,2017_Apr_28_1437,59.9890519775,MAFE4ImagesEEG,001,200221,
AFNE01.JPG,AFNE01.JPG,AFNE01.JPG,AFNE01.JPG,AFNE01.JPG,AFNE01.JPG,,,,,3,1,31,8,,,,,,,,,,,,,,,,,,,AFSA07.jpg,AFNE16.jpg,AFNE09.jpg,AFSA13.jpg,AFNE09.jpg,FN,3,num_2,16,num_2,2.1003207711,,,2017_Apr_28_1437,59.9890519775,MAFE4ImagesEEG,001,200221,
AFNE01.JPG,AFNE01.JPG,AFNE01.JPG,AFNE01.JPG,AFNE01.JPG,AFNE01.JPG,,,,,3,2,32,5,,,,,,,,,,,,,,,,,,,AFNE08.jpg,AFSA01.jpg,AFNE19.jpg,AFSA19.jpg,AFSA19.jpg,FS,4,num_4,32,num_6,0.433478553314,,,2017_Apr_28_1437,59.9890519775,MAFE4ImagesEEG,001,200221,
AFNE01.JPG,AFNE01.JPG,AFNE01.JPG,AFNE01.JPG,AFNE01.JPG,AFNE01.JPG,,,,,3,3,33,2,,,,,,,,,,,,,,,,,,,AFSA13.jpg,AFNE14.jpg,AFNE05.jpg,AFSA04.jpg,AFNE14.jpg,FN,3,num_6,16,num_6,2.88330517779,,,2017_Apr_28_1437,59.9890519775,MAFE4ImagesEEG,001,200221,
AFNE01.JPG,AFNE01.JPG,AFNE01.JPG,AFNE01.JPG,AFNE01.JPG,AFNE01.JPG,,,,,3,4,34,0,,,,,,,,,,,,,,,,,,,AFNE01.jpg,AFSA15.jpg,AFSA11.jpg,AFNE06.jpg,AFNE06.jpg,FN,3,num_4,32,num_8,1.91667230637,,,2017_Apr_28_1437,59.9890519775,MAFE4ImagesEEG,001,200221,
AFNE01.JPG,AFNE01.JPG,AFNE01.JPG,AFNE01.JPG,AFNE01.JPG,AFNE01.JPG,,,,,3,5,35,4,,,,,,,,,,,,,,,,,,,AFSA16.jpg,AFNE10.jpg,AFSA13.jpg,AFNE13.jpg,AFSA16.jpg,FS,4,num_8,32,num_4,0.816762722679,,,2017_Apr_28_1437,59.9890519775,MAFE4ImagesEEG,001,200221,
AFNE01.JPG,AFNE01.JPG,AFNE01.JPG,AFNE01.JPG,AFNE01.JPG,AFNE01.JPG,,,,,3,6,36,3,,,,,,,,,,,,,,,,,,,AFNE02.jpg,AFSA11.jpg,AFNE14.jpg,AFSA15.jpg,AFSA11.jpg,FS,4,num_6,16,num_6,0.483468626509,,,2017_Apr_28_1437,59.9890519775,MAFE4ImagesEEG,001,200221,
AFNE01.JPG,AFNE01.JPG,AFNE01.JPG,AFNE01.JPG,AFNE01.JPG,AFNE01.JPG,,,,,3,7,37,9,,,,,,,,,,,,,,,,,,,AFNE01.jpg,AFSA16.jpg,AFSA03.jpg,AFNE04.jpg,AFNE01.jpg,FN,3,num_8,16,num_8,1.3834015599,,,2017_Apr_28_1437,59.9890519775,MAFE4ImagesEEG,001,200221,
AFNE01.JPG,AFNE01.JPG,AFNE01.JPG,AFNE01.JPG,AFNE01.JPG,AFNE01.JPG,,,,,3,8,38,1,,,,,,,,,,,,,,,,,,,AFNE13.jpg,AFNE09.jpg,AFSA01.jpg,AFSA18.jpg,AFNE13.jpg,FN,3,num_8,16,num_8,2.03333120572,,,2017_Apr_28_1437,59.9890519775,MAFE4ImagesEEG,001,200221,
AFNE01.JPG,AFNE01.JPG,AFNE01.JPG,AFNE01.JPG,AFNE01.JPG,AFNE01.JPG,,,,,3,9,39,7,,,,,,,,,,,,,,,,,,,AFNE11.jpg,AFSA17.jpg,AFSA08.jpg,AFNE20.jpg,AFNE20.jpg,FN,3,num_4,32,num_2,2.05008886068,,,2017_Apr_28_1437,59.9890519775,MAFE4ImagesEEG,001,200221,
AFNE01.JPG,AFNE01.JPG,AFNE01.JPG,AFNE01.JPG,AFNE01.JPG,AFNE01.JPG,,,,,4,0,40,5,,,,,,,,,,,,,,,,,,,AFSA15.jpg,AFNE19.jpg,AFNE07.jpg,AFSA08.jpg,AFSA15.jpg,FS,4,num_8,32,num_6,0.300163352396,,,2017_Apr_28_1437,59.9890519775,MAFE4ImagesEEG,001,200221,
AFNE01.JPG,AFNE01.JPG,AFNE01.JPG,AFNE01.JPG,AFNE01.JPG,AFNE01.JPG,,,,,4,1,41,9,,,,,,,,,,,,,,,,,,,AFNE18.jpg,AFSA12.jpg,AFSA04.jpg,AFNE09.jpg,AFSA04.jpg,FS,4,num_2,32,num_4,2.81667900982,,,2017_Apr_28_1437,59.9890519775,MAFE4ImagesEEG,001,200221,
AFNE01.JPG,AFNE01.JPG,AFNE01.JPG,AFNE01.JPG,AFNE01.JPG,AFNE01.JPG,,,,,4,2,42,6,,,,,,,,,,,,,,,,,,,AFNE05.jpg,AFSA03.jpg,AFNE02.jpg,AFSA15.jpg,AFNE05.jpg,FN,3,num_8,16,num_8,0.550171771785,,,2017_Apr_28_1437,59.9890519775,MAFE4ImagesEEG,001,200221,
AFNE01.JPG,AFNE01.JPG,AFNE01.JPG,AFNE01.JPG,AFNE01.JPG,AFNE01.JPG,,,,,4,3,43,3,,,,,,,,,,,,,,,,,,,AFNE03.jpg,AFSA12.jpg,AFSA19.jpg,AFNE20.jpg,AFSA12.jpg,FS,4,num_6,16,num_6,0.533347082324,,,2017_Apr_28_1437,59.9890519775,MAFE4ImagesEEG,001,200221,
AFNE01.JPG,AFNE01.JPG,AFNE01.JPG,AFNE01.JPG,AFNE01.JPG,AFNE01.JPG,,,,,4,4,44,2,,,,,,,,,,,,,,,,,,,AFNE03.jpg,AFSA03.jpg,AFSA16.jpg,AFNE05.jpg,AFNE05.jpg,FN,3,num_4,32,num_8,1.41672025679,,,2017_Apr_28_1437,59.9890519775,MAFE4ImagesEEG,001,200221,
AFNE01.JPG,AFNE01.JPG,AFNE01.JPG,AFNE01.JPG,AFNE01.JPG,AFNE01.JPG,,,,,4,5,45,0,,,,,,,,,,,,,,,,,,,AFNE03.jpg,AFSA11.jpg,AFSA03.jpg,AFNE16.jpg,AFNE16.jpg,FN,3,num_4,32,num_2,4.19987176848,,,2017_Apr_28_1437,59.9890519775,MAFE4ImagesEEG,001,200221,
AFNE01.JPG,AFNE01.JPG,AFNE01.JPG,AFNE01.JPG,AFNE01.JPG,AFNE01.JPG,,,,,4,6,46,7,,,,,,,,,,,,,,,,,,,AFNE16.jpg,AFNE05.jpg,AFSA17.jpg,AFSA07.jpg,AFNE16.jpg,FN,3,num_8,16,num_8,2.43333550368,,,2017_Apr_28_1437,59.9890519775,MAFE4ImagesEEG,001,200221,
AFNE01.JPG,AFNE01.JPG,AFNE01.JPG,AFNE01.JPG,AFNE01.JPG,AFNE01.JPG,,,,,4,7,47,4,,,,,,,,,,,,,,,,,,,AFSA08.jpg,AFNE17.jpg,AFSA09.jpg,AFNE14.jpg,AFSA08.jpg,FS,4,num_8,48,None,,,,2017_Apr_28_1437,59.9890519775,MAFE4ImagesEEG,001,200221,
AFNE01.JPG,AFNE01.JPG,AFNE01.JPG,AFNE01.JPG,AFNE01.JPG,AFNE01.JPG,,,,,4,8,48,1,,,,,,,,,,,,,,,,,,,AFSA09.jpg,AFSA18.jpg,AFNE01.jpg,AFNE13.jpg,AFNE01.jpg,FN,3,num_2,32,num_8,1.63340933772,,,2017_Apr_28_1437,59.9890519775,MAFE4ImagesEEG,001,200221,
AFNE01.JPG,AFNE01.JPG,AFNE01.JPG,AFNE01.JPG,AFNE01.JPG,AFNE01.JPG,,,,,4,9,49,8,,,,,,,,,,,,,,,,,,,AFSA05.jpg,AFNE18.jpg,AFSA03.jpg,AFNE19.jpg,AFNE19.jpg,FN,3,num_4,32,num_8,1.56674436037,,,2017_Apr_28_1437,59.9890519775,MAFE4ImagesEEG,001,200221,
AFNE01.JPG,AFNE01.JPG,AFNE01.JPG,AFNE01.JPG,AFNE01.JPG,AFNE01.JPG,,,,,5,0,50,3,,,,,,,,,,,,,,,,,,,AFSA14.jpg,AFSA10.jpg,AFNE11.jpg,AFNE04.jpg,AFNE04.jpg,FN,3,num_4,16,num_4,1.4667215558,,,2017_Apr_28_1437,59.9890519775,MAFE4ImagesEEG,001,200221,
AFNE01.JPG,AFNE01.JPG,AFNE01.JPG,AFNE01.JPG,AFNE01.JPG,AFNE01.JPG,,,,,5,1,51,8,,,,,,,,,,,,,,,,,,,AFSA20.jpg,AFSA01.jpg,AFNE10.jpg,AFNE06.jpg,AFSA20.jpg,FS,4,num_8,32,num_4,2.116636127,,,2017_Apr_28_1437,59.9890519775,MAFE4ImagesEEG,001,200221,
AFNE01.JPG,AFNE01.JPG,AFNE01.JPG,AFNE01.JPG,AFNE01.JPG,AFNE01.JPG,,,,,5,2,52,0,,,,,,,,,,,,,,,,,,,AFSA03.jpg,AFNE08.jpg,AFSA15.jpg,AFNE03.jpg,AFNE08.jpg,FN,3,num_6,16,num_6,1.38343042636,,,2017_Apr_28_1437,59.9890519775,MAFE4ImagesEEG,001,200221,
AFNE01.JPG,AFNE01.JPG,AFNE01.JPG,AFNE01.JPG,AFNE01.JPG,AFNE01.JPG,,,,,5,3,53,1,,,,,,,,,,,,,,,,,,,AFSA08.jpg,AFNE14.jpg,AFNE01.jpg,AFSA05.jpg,AFSA05.jpg,FS,4,num_4,32,num_8,1.41673084116,,,2017_Apr_28_1437,59.9890519775,MAFE4ImagesEEG,001,200221,
AFNE01.JPG,AFNE01.JPG,AFNE01.JPG,AFNE01.JPG,AFNE01.JPG,AFNE01.JPG,,,,,5,4,54,5,,,,,,,,,,,,,,,,,,,AFSA20.jpg,AFSA19.jpg,AFNE02.jpg,AFNE20.jpg,AFNE20.jpg,FN,3,num_4,16,num_4,1.45005050034,,,2017_Apr_28_1437,59.9890519775,MAFE4ImagesEEG,001,200221,
AFNE01.JPG,AFNE01.JPG,AFNE01.JPG,AFNE01.JPG,AFNE01.JPG,AFNE01.JPG,,,,,5,5,55,9,,,,,,,,,,,,,,,,,,,AFNE08.jpg,AFSA15.jpg,AFNE16.jpg,AFSA09.jpg,AFNE16.jpg,FN,3,num_2,32,num_8,1.05009944516,,,2017_Apr_28_1437,59.9890519775,MAFE4ImagesEEG,001,200221,
AFNE01.JPG,AFNE01.JPG,AFNE01.JPG,AFNE01.JPG,AFNE01.JPG,AFNE01.JPG,,,,,5,6,56,7,,,,,,,,,,,,,,,,,,,AFNE15.jpg,AFSA14.jpg,AFNE09.jpg,AFSA06.jpg,AFNE09.jpg,FN,3,num_2,32,num_4,1.06675253925,,,2017_Apr_28_1437,59.9890519775,MAFE4ImagesEEG,001,200221,
AFNE01.JPG,AFNE01.JPG,AFNE01.JPG,AFNE01.JPG,AFNE01.JPG,AFNE01.JPG,,,,,5,7,57,2,,,,,,,,,,,,,,,,,,,AFSA12.jpg,AFNE06.jpg,AFSA11.jpg,AFNE14.jpg,AFSA12.jpg,FS,4,num_8,32,num_6,1.18342394743,,,2017_Apr_28_1437,59.9890519775,MAFE4ImagesEEG,001,200221,
AFNE01.JPG,AFNE01.JPG,AFNE01.JPG,AFNE01.JPG,AFNE01.JPG,AFNE01.JPG,,,,,5,8,58,6,,,,,,,,,,,,,,,,,,,AFSA12.jpg,AFSA07.jpg,AFNE01.jpg,AFNE06.jpg,AFNE01.jpg,FN,3,num_2,32,num_6,2.03337033594,,,2017_Apr_28_1437,59.9890519775,MAFE4ImagesEEG,001,200221,
AFNE01.JPG,AFNE01.JPG,AFNE01.JPG,AFNE01.JPG,AFNE01.JPG,AFNE01.JPG,,,,,5,9,59,4,,,,,,,,,,,,,,,,,,,AFSA01.jpg,AFNE04.jpg,AFNE13.jpg,AFSA17.jpg,AFSA17.jpg,FS,4,num_4,16,num_4,1.38342433237,,,2017_Apr_28_1437,59.9890519775,MAFE4ImagesEEG,001,200221,
,,,,,,,,,,,,,,,,,,,,,,,,,,,,,,,,,,,,,,,,,,,space,1.83340234566,2017_Apr_28_1437,59.9890519775,MAFE4ImagesEEG,001,200221,
AFNE01.JPG,AFNE01.JPG,AFNE01.JPG,AFNE01.JPG,AFNE01.JPG,AFNE01.JPG,,,,,,,,,0,0,0,1,,,,,,,,,,,,,,,AMSA14.jpg,AMNE03.jpg,AMNE05.jpg,AMSA08.jpg,AMSA08.jpg,MS,2,num_4,16,num_4,0.950339005096,,,2017_Apr_28_1437,59.9890519775,MAFE4ImagesEEG,001,200221,
AFNE01.JPG,AFNE01.JPG,AFNE01.JPG,AFNE01.JPG,AFNE01.JPG,AFNE01.JPG,,,,,,,,,0,1,1,8,,,,,,,,,,,,,,,AMSA19.jpg,AMSA01.jpg,AMNE13.jpg,AMNE01.jpg,AMNE13.jpg,MN,1,num_2,16,num_2,1.60010475339,,,2017_Apr_28_1437,59.9890519775,MAFE4ImagesEEG,001,200221,
AFNE01.JPG,AFNE01.JPG,AFNE01.JPG,AFNE01.JPG,AFNE01.JPG,AFNE01.JPG,,,,,,,,,0,2,2,4,,,,,,,,,,,,,,,AMNE05.jpg,AMNE04.jpg,AMSA02.jpg,AMSA10.jpg,AMSA02.jpg,MS,2,num_2,32,num_6,0.766745707486,,,2017_Apr_28_1437,59.9890519775,MAFE4ImagesEEG,001,200221,
AFNE01.JPG,AFNE01.JPG,AFNE01.JPG,AFNE01.JPG,AFNE01.JPG,AFNE01.JPG,,,,,,,,,0,3,3,2,,,,,,,,,,,,,,,AMNE07.jpg,AMSA05.jpg,AMNE10.jpg,AMSA13.jpg,AMNE10.jpg,MN,1,num_2,32,num_6,1.30012358073,,,2017_Apr_28_1437,59.9890519775,MAFE4ImagesEEG,001,200221,
AFNE01.JPG,AFNE01.JPG,AFNE01.JPG,AFNE01.JPG,AFNE01.JPG,AFNE01.JPG,,,,,,,,,0,4,4,7,,,,,,,,,,,,,,,AMSA16.jpg,AMSA11.jpg,AMNE19.jpg,AMNE05.jpg,AMSA16.jpg,MS,2,num_8,16,num_8,2.28334507777,,,2017_Apr_28_1437,59.9890519775,MAFE4ImagesEEG,001,200221,
AFNE01.JPG,AFNE01.JPG,AFNE01.JPG,AFNE01.JPG,AFNE01.JPG,AFNE01.JPG,,,,,,,,,0,5,5,9,,,,,,,,,,,,,,,AMSA12.jpg,AMNE15.jpg,AMNE02.jpg,AMSA11.jpg,AMNE15.jpg,MN,1,num_6,16,num_6,1.25009469816,,,2017_Apr_28_1437,59.9890519775,MAFE4ImagesEEG,001,200221,
AFNE01.JPG,AFNE01.JPG,AFNE01.JPG,AFNE01.JPG,AFNE01.JPG,AFNE01.JPG,,,,,,,,,0,6,6,0,,,,,,,,,,,,,,,AMSA06.jpg,AMNE16.jpg,AMSA11.jpg,AMNE14.jpg,AMSA06.jpg,MS,2,num_8,32,num_6,2.88326861348,,,2017_Apr_28_1437,59.9890519775,MAFE4ImagesEEG,001,200221,
AFNE01.JPG,AFNE01.JPG,AFNE01.JPG,AFNE01.JPG,AFNE01.JPG,AFNE01.JPG,,,,,,,,,0,7,7,5,,,,,,,,,,,,,,,AMNE01.jpg,AMNE15.jpg,AMSA17.jpg,AMSA20.jpg,AMSA17.jpg,MS,2,num_2,32,num_4,4.59947001073,,,2017_Apr_28_1437,59.9890519775,MAFE4ImagesEEG,001,200221,
AFNE01.JPG,AFNE01.JPG,AFNE01.JPG,AFNE01.JPG,AFNE01.JPG,AFNE01.JPG,,,,,,,,,0,8,8,6,,,,,,,,,,,,,,,AMSA12.jpg,AMNE05.jpg,AMNE14.jpg,AMSA11.jpg,AMSA11.jpg,MS,2,num_4,32,num_2,1.66670686589,,,2017_Apr_28_1437,59.9890519775,MAFE4ImagesEEG,001,200221,
AFNE01.JPG,AFNE01.JPG,AFNE01.JPG,AFNE01.JPG,AFNE01.JPG,AFNE01.JPG,,,,,,,,,0,9,9,3,,,,,,,,,,,,,,,AMSA08.jpg,AMSA18.jpg,AMNE16.jpg,AMNE10.jpg,AMSA08.jpg,MS,2,num_8,32,num_4,0.833497926011,,,2017_Apr_28_1437,59.9890519775,MAFE4ImagesEEG,001,200221,
AFNE01.JPG,AFNE01.JPG,AFNE01.JPG,AFNE01.JPG,AFNE01.JPG,AFNE01.JPG,,,,,,,,,1,0,10,4,,,,,,,,,,,,,,,AMSA06.jpg,AMNE06.jpg,AMNE16.jpg,AMSA13.jpg,AMNE06.jpg,MN,1,num_6,48,None,,,,2017_Apr_28_1437,59.9890519775,MAFE4ImagesEEG,001,200221,
AFNE01.JPG,AFNE01.JPG,AFNE01.JPG,AFNE01.JPG,AFNE01.JPG,AFNE01.JPG,,,,,,,,,1,1,11,5,,,,,,,,,,,,,,,AMNE02.jpg,AMNE01.jpg,AMSA19.jpg,AMSA11.jpg,AMSA19.jpg,MS,2,num_2,32,num_8,0.683490180061,,,2017_Apr_28_1437,59.9890519775,MAFE4ImagesEEG,001,200221,
AFNE01.JPG,AFNE01.JPG,AFNE01.JPG,AFNE01.JPG,AFNE01.JPG,AFNE01.JPG,,,,,,,,,1,2,12,3,,,,,,,,,,,,,,,AMNE08.jpg,AMNE18.jpg,AMSA10.jpg,AMSA15.jpg,AMSA10.jpg,MS,2,num_2,16,num_2,3.33326202235,,,2017_Apr_28_1437,59.9890519775,MAFE4ImagesEEG,001,200221,
AFNE01.JPG,AFNE01.JPG,AFNE01.JPG,AFNE01.JPG,AFNE01.JPG,AFNE01.JPG,,,,,,,,,1,3,13,1,,,,,,,,,,,,,,,AMSA02.jpg,AMNE05.jpg,AMNE03.jpg,AMSA06.jpg,AMNE05.jpg,MN,1,num_6,16,num_6,0.566807866679,,,2017_Apr_28_1437,59.9890519775,MAFE4ImagesEEG,001,200221,
AFNE01.JPG,AFNE01.JPG,AFNE01.JPG,AFNE01.JPG,AFNE01.JPG,AFNE01.JPG,,,,,,,,,1,4,14,0,,,,,,,,,,,,,,,AMNE09.jpg,AMNE10.jpg,AMSA07.jpg,AMSA06.jpg,AMNE09.jpg,MN,1,num_8,16,num_8,0.600150939776,,,2017_Apr_28_1437,59.9890519775,MAFE4ImagesEEG,001,200221,
AFNE01.JPG,AFNE01.JPG,AFNE01.JPG,AFNE01.JPG,AFNE01.JPG,AFNE01.JPG,,,,,,,,,1,5,15,8,,,,,,,,,,,,,,,AMSA03.jpg,AMSA06.jpg,AMNE09.jpg,AMNE05.jpg,AMSA03.jpg,MS,2,num_8,32,num_2,1.15016234212,,,2017_Apr_28_1437,59.9890519775,MAFE4ImagesEEG,001,200221,
AFNE01.JPG,AFNE01.JPG,AFNE01.JPG,AFNE01.JPG,AFNE01.JPG,AFNE01.JPG,,,,,,,,,1,6,16,2,,,,,,,,,,,,,,,AMSA01.jpg,AMNE19.jpg,AMNE20.jpg,AMSA13.jpg,AMNE20.jpg,MN,1,num_2,32,num_4,1.28313050326,,,2017_Apr_28_1437,59.9890519775,MAFE4ImagesEEG,001,200221,
AFNE01.JPG,AFNE01.JPG,AFNE01.JPG,AFNE01.JPG,AFNE01.JPG,AFNE01.JPG,,,,,,,,,1,7,17,9,,,,,,,,,,,,,,,AMNE09.jpg,AMSA02.jpg,AMSA06.jpg,AMNE06.jpg,AMSA06.jpg,MS,2,num_2,32,num_4,0.933468449977,,,2017_Apr_28_1437,59.9890519775,MAFE4ImagesEEG,001,200221,
AFNE01.JPG,AFNE01.JPG,AFNE01.JPG,AFNE01.JPG,AFNE01.JPG,AFNE01.JPG,,,,,,,,,1,8,18,7,,,,,,,,,,,,,,,AMSA16.jpg,AMNE02.jpg,AMSA19.jpg,AMNE16.jpg,AMSA19.jpg,MS,2,num_2,16,num_2,1.41675457591,,,2017_Apr_28_1437,59.9890519775,MAFE4ImagesEEG,001,200221,
AFNE01.JPG,AFNE01.JPG,AFNE01.JPG,AFNE01.JPG,AFNE01.JPG,AFNE01.JPG,,,,,,,,,1,9,19,6,,,,,,,,,,,,,,,AMSA05.jpg,AMNE19.jpg,AMSA04.jpg,AMNE12.jpg,AMNE19.jpg,MN,1,num_6,32,num_4,1.03374592145,,,2017_Apr_28_1437,59.9890519775,MAFE4ImagesEEG,001,200221,
AFNE01.JPG,AFNE01.JPG,AFNE01.JPG,AFNE01.JPG,AFNE01.JPG,AFNE01.JPG,,,,,,,,,2,0,20,9,,,,,,,,,,,,,,,AMNE09.jpg,AMSA11.jpg,AMSA12.jpg,AMNE18.jpg,AMSA11.jpg,MS,2,num_6,32,num_2,0.866765304701,,,2017_Apr_28_1437,59.9890519775,MAFE4ImagesEEG,001,200221,
AFNE01.JPG,AFNE01.JPG,AFNE01.JPG,AFNE01.JPG,AFNE01.JPG,AFNE01.JPG,,,,,,,,,2,1,21,2,,,,,,,,,,,,,,,AMNE02.jpg,AMSA08.jpg,AMNE13.jpg,AMSA05.jpg,AMNE13.jpg,MN,1,num_2,32,num_4,0.833468097262,,,2017_Apr_28_1437,59.9890519775,MAFE4ImagesEEG,001,200221,
AFNE01.JPG,AFNE01.JPG,AFNE01.JPG,AFNE01.JPG,AFNE01.JPG,AFNE01.JPG,,,,,,,,,2,2,22,5,,,,,,,,,,,,,,,AMNE13.jpg,AMNE02.jpg,AMSA11.jpg,AMSA14.jpg,AMNE02.jpg,MN,1,num_6,16,num_6,1.38343106781,,,2017_Apr_28_1437,59.9890519775,MAFE4ImagesEEG,001,200221,
AFNE01.JPG,AFNE01.JPG,AFNE01.JPG,AFNE01.JPG,AFNE01.JPG,AFNE01.JPG,,,,,,,,,2,3,23,6,,,,,,,,,,,,,,,AMSA18.jpg,AMSA04.jpg,AMNE13.jpg,AMNE09.jpg,AMNE13.jpg,MN,1,num_2,48,None,,,,2017_Apr_28_1437,59.9890519775,MAFE4ImagesEEG,001,200221,
AFNE01.JPG,AFNE01.JPG,AFNE01.JPG,AFNE01.JPG,AFNE01.JPG,AFNE01.JPG,,,,,,,,,2,4,24,7,,,,,,,,,,,,,,,AMNE10.jpg,AMSA04.jpg,AMSA01.jpg,AMNE08.jpg,AMNE10.jpg,MN,1,num_8,16,num_8,0.883468754706,,,2017_Apr_28_1437,59.9890519775,MAFE4ImagesEEG,001,200221,
AFNE01.JPG,AFNE01.JPG,AFNE01.JPG,AFNE01.JPG,AFNE01.JPG,AFNE01.JPG,,,,,,,,,2,5,25,8,,,,,,,,,,,,,,,AMSA09.jpg,AMSA06.jpg,AMNE05.jpg,AMNE19.jpg,AMNE19.jpg,MN,1,num_4,16,num_4,0.833548923372,,,2017_Apr_28_1437,59.9890519775,MAFE4ImagesEEG,001,200221,
AFNE01.JPG,AFNE01.JPG,AFNE01.JPG,AFNE01.JPG,AFNE01.JPG,AFNE01.JPG,,,,,,,,,2,6,26,3,,,,,,,,,,,,,,,AMNE02.jpg,AMSA09.jpg,AMSA20.jpg,AMNE16.jpg,AMSA20.jpg,MS,2,num_2,32,num_8,3.03305248357,,,2017_Apr_28_1437,59.9890519775,MAFE4ImagesEEG,001,200221,
AFNE01.JPG,AFNE01.JPG,AFNE01.JPG,AFNE01.JPG,AFNE01.JPG,AFNE01.JPG,,,,,,,,,2,7,27,1,,,,,,,,,,,,,,,AMSA05.jpg,AMSA13.jpg,AMNE14.jpg,AMNE13.jpg,AMSA05.jpg,MS,2,num_8,32,num_4,1.61660838302,,,2017_Apr_28_1437,59.9890519775,MAFE4ImagesEEG,001,200221,
AFNE01.JPG,AFNE01.JPG,AFNE01.JPG,AFNE01.JPG,AFNE01.JPG,AFNE01.JPG,,,,,,,,,2,8,28,0,,,,,,,,,,,,,,,AMNE16.jpg,AMSA12.jpg,AMSA05.jpg,AMNE01.jpg,AMSA12.jpg,MS,2,num_6,48,None,,,,2017_Apr_28_1437,59.9890519775,MAFE4ImagesEEG,001,200221,
AFNE01.JPG,AFNE01.JPG,AFNE01.JPG,AFNE01.JPG,AFNE01.JPG,AFNE01.JPG,,,,,,,,,2,9,29,4,,,,,,,,,,,,,,,AMSA14.jpg,AMNE08.jpg,AMSA12.jpg,AMNE05.jpg,AMSA14.jpg,MS,2,num_8,32,num_2,1.90002947592,,,2017_Apr_28_1437,59.9890519775,MAFE4ImagesEEG,001,200221,
AFNE01.JPG,AFNE01.JPG,AFNE01.JPG,AFNE01.JPG,AFNE01.JPG,AFNE01.JPG,,,,,,,,,3,0,30,3,,,,,,,,,,,,,,,AMNE06.jpg,AMSA11.jpg,AMSA16.jpg,AMNE15.jpg,AMNE15.jpg,MN,1,num_4,48,None,,,,2017_Apr_28_1437,59.9890519775,MAFE4ImagesEEG,001,200221,
AFNE01.JPG,AFNE01.JPG,AFNE01.JPG,AFNE01.JPG,AFNE01.JPG,AFNE01.JPG,,,,,,,,,3,1,31,7,,,,,,,,,,,,,,,AMSA07.jpg,AMNE09.jpg,AMSA15.jpg,AMNE20.jpg,AMSA15.jpg,MS,2,num_2,32,num_8,4.89984408871,,,2017_Apr_28_1437,59.9890519775,MAFE4ImagesEEG,001,200221,
AFNE01.JPG,AFNE01.JPG,AFNE01.JPG,AFNE01.JPG,AFNE01.JPG,AFNE01.JPG,,,,,,,,,3,2,32,5,,,,,,,,,,,,,,,AMSA10.jpg,AMSA04.jpg,AMNE03.jpg,AMNE12.jpg,AMNE12.jpg,MN,1,num_4,32,num_8,4.33314944291,,,2017_Apr_28_1437,59.9890519775,MAFE4ImagesEEG,001,200221,
AFNE01.JPG,AFNE01.JPG,AFNE01.JPG,AFNE01.JPG,AFNE01.JPG,AFNE01.JPG,,,,,,,,,3,3,33,4,,,,,,,,,,,,,,,AMNE11.jpg,AMSA09.jpg,AMNE12.jpg,AMSA08.jpg,AMSA08.jpg,MS,2,num_4,16,num_4,0.866490751971,,,2017_Apr_28_1437,59.9890519775,MAFE4ImagesEEG,001,200221,
AFNE01.JPG,AFNE01.JPG,AFNE01.JPG,AFNE01.JPG,AFNE01.JPG,AFNE01.JPG,,,,,,,,,3,4,34,0,,,,,,,,,,,,,,,AMNE20.jpg,AMSA08.jpg,AMSA02.jpg,AMNE19.jpg,AMSA08.jpg,MS,2,num_6,16,num_6,0.666804049863,,,2017_Apr_28_1437,59.9890519775,MAFE4ImagesEEG,001,200221,
AFNE01.JPG,AFNE01.JPG,AFNE01.JPG,AFNE01.JPG,AFNE01.JPG,AFNE01.JPG,,,,,,,,,3,5,35,6,,,,,,,,,,,,,,,AMSA02.jpg,AMNE10.jpg,AMNE08.jpg,AMSA03.jpg,AMSA02.jpg,MS,2,num_8,32,num_4,1.43340959435,,,2017_Apr_28_1437,59.9890519775,MAFE4ImagesEEG,001,200221,
AFNE01.JPG,AFNE01.JPG,AFNE01.JPG,AFNE01.JPG,AFNE01.JPG,AFNE01.JPG,,,,,,,,,3,6,36,1,,,,,,,,,,,,,,,AMNE13.jpg,AMNE04.jpg,AMSA09.jpg,AMSA02.jpg,AMSA09.jpg,MS,2,num_2,16,num_2,0.616838994436,,,2017_Apr_28_1437,59.9890519775,MAFE4ImagesEEG,001,200221,
AFNE01.JPG,AFNE01.JPG,AFNE01.JPG,AFNE01.JPG,AFNE01.JPG,AFNE01.JPG,,,,,,,,,3,7,37,8,,,,,,,,,,,,,,,AMSA16.jpg,AMSA04.jpg,AMNE05.jpg,AMNE03.jpg,AMNE03.jpg,MN,1,num_4,32,num_6,1.18341817416,,,2017_Apr_28_1437,59.9890519775,MAFE4ImagesEEG,001,200221,
AFNE01.JPG,AFNE01.JPG,AFNE01.JPG,AFNE01.JPG,AFNE01.JPG,AFNE01.JPG,,,,,,,,,3,8,38,9,,,,,,,,,,,,,,,AMNE06.jpg,AMSA04.jpg,AMNE12.jpg,AMSA09.jpg,AMNE06.jpg,MN,1,num_8,32,num_4,2.71660969802,,,2017_Apr_28_1437,59.9890519775,MAFE4ImagesEEG,001,200221,
AFNE01.JPG,AFNE01.JPG,AFNE01.JPG,AFNE01.JPG,AFNE01.JPG,AFNE01.JPG,,,,,,,,,3,9,39,2,,,,,,,,,,,,,,,AMSA11.jpg,AMNE03.jpg,AMNE13.jpg,AMSA14.jpg,AMSA11.jpg,MS,2,num_8,16,num_8,0.983486106619,,,2017_Apr_28_1437,59.9890519775,MAFE4ImagesEEG,001,200221,
AFNE01.JPG,AFNE01.JPG,AFNE01.JPG,AFNE01.JPG,AFNE01.JPG,AFNE01.JPG,,,,,,,,,4,0,40,9,,,,,,,,,,,,,,,AMSA14.jpg,AMNE01.jpg,AMSA12.jpg,AMNE11.jpg,AMNE01.jpg,MN,1,num_6,16,num_6,1.18349130265,,,2017_Apr_28_1437,59.9890519775,MAFE4ImagesEEG,001,200221,
AFNE01.JPG,AFNE01.JPG,AFNE01.JPG,AFNE01.JPG,AFNE01.JPG,AFNE01.JPG,,,,,,,,,4,1,41,2,,,,,,,,,,,,,,,AMNE12.jpg,AMSA05.jpg,AMNE18.jpg,AMSA20.jpg,AMNE12.jpg,MN,1,num_8,48,None,,,,2017_Apr_28_1437,59.9890519775,MAFE4ImagesEEG,001,200221,
AFNE01.JPG,AFNE01.JPG,AFNE01.JPG,AFNE01.JPG,AFNE01.JPG,AFNE01.JPG,,,,,,,,,4,2,42,4,,,,,,,,,,,,,,,AMSA03.jpg,AMNE17.jpg,AMNE10.jpg,AMSA19.jpg,AMNE17.jpg,MN,1,num_6,48,None,,,,2017_Apr_28_1437,59.9890519775,MAFE4ImagesEEG,001,200221,
AFNE01.JPG,AFNE01.JPG,AFNE01.JPG,AFNE01.JPG,AFNE01.JPG,AFNE01.JPG,,,,,,,,,4,3,43,6,,,,,,,,,,,,,,,AMNE05.jpg,AMNE12.jpg,AMSA20.jpg,AMSA15.jpg,AMNE12.jpg,MN,1,num_6,32,num_8,1.06677787763,,,2017_Apr_28_1437,59.9890519775,MAFE4ImagesEEG,001,200221,
AFNE01.JPG,AFNE01.JPG,AFNE01.JPG,AFNE01.JPG,AFNE01.JPG,AFNE01.JPG,,,,,,,,,4,4,44,8,,,,,,,,,,,,,,,AMSA10.jpg,AMNE18.jpg,AMNE16.jpg,AMSA16.jpg,AMNE18.jpg,MN,1,num_6,32,num_8,1.81676657149,,,2017_Apr_28_1437,59.9890519775,MAFE4ImagesEEG,001,200221,
AFNE01.JPG,AFNE01.JPG,AFNE01.JPG,AFNE01.JPG,AFNE01.JPG,AFNE01.JPG,,,,,,,,,4,5,45,3,,,,,,,,,,,,,,,AMNE05.jpg,AMSA18.jpg,AMNE14.jpg,AMSA19.jpg,AMNE14.jpg,MN,1,num_2,32,num_8,1.0501218969,,,2017_Apr_28_1437,59.9890519775,MAFE4ImagesEEG,001,200221,
AFNE01.JPG,AFNE01.JPG,AFNE01.JPG,AFNE01.JPG,AFNE01.JPG,AFNE01.JPG,,,,,,,,,4,6,46,1,,,,,,,,,,,,,,,AMNE07.jpg,AMSA14.jpg,AMNE10.jpg,AMSA06.jpg,AMSA14.jpg,MS,2,num_6,16,num_6,0.58351644862,,,2017_Apr_28_1437,59.9890519775,MAFE4ImagesEEG,001,200221,
AFNE01.JPG,AFNE01.JPG,AFNE01.JPG,AFNE01.JPG,AFNE01.JPG,AFNE01.JPG,,,,,,,,,4,7,47,7,,,,,,,,,,,,,,,AMSA13.jpg,AMNE17.jpg,AMSA20.jpg,AMNE07.jpg,AMNE17.jpg,MN,1,num_6,32,num_2,0.716757558752,,,2017_Apr_28_1437,59.9890519775,MAFE4ImagesEEG,001,200221,
AFNE01.JPG,AFNE01.JPG,AFNE01.JPG,AFNE01.JPG,AFNE01.JPG,AFNE01.JPG,,,,,,,,,4,8,48,0,,,,,,,,,,,,,,,AMNE17.jpg,AMNE03.jpg,AMSA01.jpg,AMSA16.jpg,AMNE17.jpg,MN,1,num_8,16,num_8,0.516805926338,,,2017_Apr_28_1437,59.9890519775,MAFE4ImagesEEG,001,200221,
AFNE01.JPG,AFNE01.JPG,AFNE01.JPG,AFNE01.JPG,AFNE01.JPG,AFNE01.JPG,,,,,,,,,4,9,49,5,,,,,,,,,,,,,,,AMSA15.jpg,AMSA04.jpg,AMNE04.jpg,AMNE08.jpg,AMSA15.jpg,MS,2,num_8,16,num_8,0.816774910782,,,2017_Apr_28_1437,59.9890519775,MAFE4ImagesEEG,001,200221,
AFNE01.JPG,AFNE01.JPG,AFNE01.JPG,AFNE01.JPG,AFNE01.JPG,AFNE01.JPG,,,,,,,,,5,0,50,4,,,,,,,,,,,,,,,AMNE06.jpg,AMSA03.jpg,AMNE09.jpg,AMSA12.jpg,AMNE06.jpg,MN,1,num_8,48,None,,,,2017_Apr_28_1437,59.9890519775,MAFE4ImagesEEG,001,200221,
AFNE01.JPG,AFNE01.JPG,AFNE01.JPG,AFNE01.JPG,AFNE01.JPG,AFNE01.JPG,,,,,,,,,5,1,51,2,,,,,,,,,,,,,,,AMSA14.jpg,AMNE15.jpg,AMSA07.jpg,AMNE06.jpg,AMSA07.jpg,MS,2,num_2,32,num_8,0.766753084492,,,2017_Apr_28_1437,59.9890519775,MAFE4ImagesEEG,001,200221,
AFNE01.JPG,AFNE01.JPG,AFNE01.JPG,AFNE01.JPG,AFNE01.JPG,AFNE01.JPG,,,,,,,,,5,2,52,6,,,,,,,,,,,,,,,AMSA18.jpg,AMNE20.jpg,AMSA06.jpg,AMNE16.jpg,AMSA06.jpg,MS,2,num_2,32,num_8,4.49941994331,,,2017_Apr_28_1437,59.9890519775,MAFE4ImagesEEG,001,200221,
AFNE01.JPG,AFNE01.JPG,AFNE01.JPG,AFNE01.JPG,AFNE01.JPG,AFNE01.JPG,,,,,,,,,5,3,53,0,,,,,,,,,,,,,,,AMNE06.jpg,AMSA09.jpg,AMNE04.jpg,AMSA12.jpg,AMNE04.jpg,MN,1,num_2,32,num_6,2.91659019713,,,2017_Apr_28_1437,59.9890519775,MAFE4ImagesEEG,001,200221,
AFNE01.JPG,AFNE01.JPG,AFNE01.JPG,AFNE01.JPG,AFNE01.JPG,AFNE01.JPG,,,,,,,,,5,4,54,5,,,,,,,,,,,,,,,AMNE18.jpg,AMNE05.jpg,AMSA13.jpg,AMSA20.jpg,AMNE05.jpg,MN,1,num_6,16,num_6,1.36697458685,,,2017_Apr_28_1437,59.9890519775,MAFE4ImagesEEG,001,200221,
AFNE01.JPG,AFNE01.JPG,AFNE01.JPG,AFNE01.JPG,AFNE01.JPG,AFNE01.JPG,,,,,,,,,5,5,55,8,,,,,,,,,,,,,,,AMSA14.jpg,AMNE14.jpg,AMNE01.jpg,AMSA18.jpg,AMSA14.jpg,MS,2,num_8,32,num_6,0.883499545627,,,2017_Apr_28_1437,59.9890519775,MAFE4ImagesEEG,001,200221,
AFNE01.JPG,AFNE01.JPG,AFNE01.JPG,AFNE01.JPG,AFNE01.JPG,AFNE01.JPG,,,,,,,,,5,6,56,3,,,,,,,,,,,,,,,AMSA11.jpg,AMNE03.jpg,AMNE13.jpg,AMSA14.jpg,AMNE03.jpg,MN,1,num_6,32,num_8,1.78335870919,,,2017_Apr_28_1437,59.9890519775,MAFE4ImagesEEG,001,200221,
AFNE01.JPG,AFNE01.JPG,AFNE01.JPG,AFNE01.JPG,AFNE01.JPG,AFNE01.JPG,,,,,,,,,5,7,57,7,,,,,,,,,,,,,,,AMNE16.jpg,AMSA19.jpg,AMSA17.jpg,AMNE03.jpg,AMNE03.jpg,MN,1,num_4,16,num_4,4.36646942282,,,2017_Apr_28_1437,59.9890519775,MAFE4ImagesEEG,001,200221,
AFNE01.JPG,AFNE01.JPG,AFNE01.JPG,AFNE01.JPG,AFNE01.JPG,AFNE01.JPG,,,,,,,,,5,8,58,9,,,,,,,,,,,,,,,AMNE19.jpg,AMSA20.jpg,AMSA08.jpg,AMNE01.jpg,AMSA20.jpg,MS,2,num_6,48,None,,,,2017_Apr_28_1437,59.9890519775,MAFE4ImagesEEG,001,200221,
AFNE01.JPG,AFNE01.JPG,AFNE01.JPG,AFNE01.JPG,AFNE01.JPG,AFNE01.JPG,,,,,,,,,5,9,59,1,,,,,,,,,,,,,,,AMSA16.jpg,AMSA12.jpg,AMNE14.jpg,AMNE04.jpg,AMSA12.jpg,MS,2,num_6,32,num_4,2.8000012188,,,2017_Apr_28_1437,59.9890519775,MAFE4ImagesEEG,001,200221,
,,,,,,,,,,,,,,,,,,,,,,,,,,,,,,,,,,,,,,,,,,,space,4.29958249384,2017_Apr_28_1437,59.9890519775,MAFE4ImagesEEG,001,200221,
AFNE01.JPG,AFNE01.JPG,AFNE01.JPG,AFNE01.JPG,AFNE01.JPG,AFNE01.JPG,,,,,,,,,,,,,0,0,0,2,,,,,,,,,,,AFNE03.jpg,AFSA13.jpg,AFSA16.jpg,AFNE05.jpg,AFNE03.jpg,FN,3,num_8,32,num_2,1.41671865317,,,2017_Apr_28_1437,59.9890519775,MAFE4ImagesEEG,001,200221,
AFNE01.JPG,AFNE01.JPG,AFNE01.JPG,AFNE01.JPG,AFNE01.JPG,AFNE01.JPG,,,,,,,,,,,,,0,1,1,8,,,,,,,,,,,AFSA08.jpg,AFNE20.jpg,AFNE09.jpg,AFSA20.jpg,AFNE20.jpg,FN,3,num_6,16,num_6,0.883444699226,,,2017_Apr_28_1437,59.9890519775,MAFE4ImagesEEG,001,200221,
AFNE01.JPG,AFNE01.JPG,AFNE01.JPG,AFNE01.JPG,AFNE01.JPG,AFNE01.JPG,,,,,,,,,,,,,0,2,2,4,,,,,,,,,,,AFSA01.jpg,AFSA10.jpg,AFNE10.jpg,AFNE14.jpg,AFSA01.jpg,FS,4,num_8,16,num_8,0.950488790288,,,2017_Apr_28_1437,59.9890519775,MAFE4ImagesEEG,001,200221,
AFNE01.JPG,AFNE01.JPG,AFNE01.JPG,AFNE01.JPG,AFNE01.JPG,AFNE01.JPG,,,,,,,,,,,,,0,3,3,0,,,,,,,,,,,AFNE18.jpg,AFNE13.jpg,AFSA04.jpg,AFSA12.jpg,AFSA04.jpg,FS,4,num_2,16,num_2,1.33343169338,,,2017_Apr_28_1437,59.9890519775,MAFE4ImagesEEG,001,200221,
AFNE01.JPG,AFNE01.JPG,AFNE01.JPG,AFNE01.JPG,AFNE01.JPG,AFNE01.JPG,,,,,,,,,,,,,0,4,4,9,,,,,,,,,,,AFNE10.jpg,AFSA11.jpg,AFNE13.jpg,AFSA18.jpg,AFNE13.jpg,FN,3,num_2,32,num_4,2.39999820385,,,2017_Apr_28_1437,59.9890519775,MAFE4ImagesEEG,001,200221,
AFNE01.JPG,AFNE01.JPG,AFNE01.JPG,AFNE01.JPG,AFNE01.JPG,AFNE01.JPG,,,,,,,,,,,,,0,5,5,3,,,,,,,,,,,AFNE12.jpg,AFNE17.jpg,AFSA08.jpg,AFSA07.jpg,AFNE17.jpg,FN,3,num_6,16,num_6,0.700141028967,,,2017_Apr_28_1437,59.9890519775,MAFE4ImagesEEG,001,200221,
AFNE01.JPG,AFNE01.JPG,AFNE01.JPG,AFNE01.JPG,AFNE01.JPG,AFNE01.JPG,,,,,,,,,,,,,0,6,6,7,,,,,,,,,,,AFNE06.jpg,AFSA15.jpg,AFSA03.jpg,AFNE16.jpg,AFSA15.jpg,FS,4,num_6,32,num_2,2.0833504661,,,2017_Apr_28_1437,59.9890519775,MAFE4ImagesEEG,001,200221,
AFNE01.JPG,AFNE01.JPG,AFNE01.JPG,AFNE01.JPG,AFNE01.JPG,AFNE01.JPG,,,,,,,,,,,,,0,7,7,6,,,,,,,,,,,AFSA14.jpg,AFNE08.jpg,AFSA19.jpg,AFNE13.jpg,AFSA19.jpg,FS,4,num_2,32,num_4,0.816785495146,,,2017_Apr_28_1437,59.9890519775,MAFE4ImagesEEG,001,200221,
AFNE01.JPG,AFNE01.JPG,AFNE01.JPG,AFNE01.JPG,AFNE01.JPG,AFNE01.JPG,,,,,,,,,,,,,0,8,8,5,,,,,,,,,,,AFNE03.jpg,AFNE09.jpg,AFSA13.jpg,AFSA03.jpg,AFSA03.jpg,FS,4,num_4,32,num_2,1.23348586622,,,2017_Apr_28_1437,59.9890519775,MAFE4ImagesEEG,001,200221,
AFNE01.JPG,AFNE01.JPG,AFNE01.JPG,AFNE01.JPG,AFNE01.JPG,AFNE01.JPG,,,,,,,,,,,,,0,9,9,1,,,,,,,,,,,AFNE16.jpg,AFSA01.jpg,AFSA19.jpg,AFNE02.jpg,AFNE02.jpg,FN,3,num_4,16,num_4,2.24969794392,,,2017_Apr_28_1437,59.9890519775,MAFE4ImagesEEG,001,200221,
AFNE01.JPG,AFNE01.JPG,AFNE01.JPG,AFNE01.JPG,AFNE01.JPG,AFNE01.JPG,,,,,,,,,,,,,1,0,10,6,,,,,,,,,,,AFNE03.jpg,AFNE11.jpg,AFSA11.jpg,AFSA03.jpg,AFSA11.jpg,FS,4,num_2,16,num_2,2.16670413967,,,2017_Apr_28_1437,59.9890519775,MAFE4ImagesEEG,001,200221,
AFNE01.JPG,AFNE01.JPG,AFNE01.JPG,AFNE01.JPG,AFNE01.JPG,AFNE01.JPG,,,,,,,,,,,,,1,1,11,3,,,,,,,,,,,AFNE09.jpg,AFNE11.jpg,AFSA20.jpg,AFSA07.jpg,AFSA07.jpg,FS,4,num_4,32,num_8,1.50009798585,,,2017_Apr_28_1437,59.9890519775,MAFE4ImagesEEG,001,200221,
AFNE01.JPG,AFNE01.JPG,AFNE01.JPG,AFNE01.JPG,AFNE01.JPG,AFNE01.JPG,,,,,,,,,,,,,1,2,12,2,,,,,,,,,,,AFNE04.jpg,AFSA18.jpg,AFNE13.jpg,AFSA02.jpg,AFNE04.jpg,FN,3,num_8,32,num_2,2.5500024216,,,2017_Apr_28_1437,59.9890519775,MAFE4ImagesEEG,001,200221,
AFNE01.JPG,AFNE01.JPG,AFNE01.JPG,AFNE01.JPG,AFNE01.JPG,AFNE01.JPG,,,,,,,,,,,,,1,3,13,0,,,,,,,,,,,AFNE13.jpg,AFSA14.jpg,AFNE01.jpg,AFSA06.jpg,AFSA06.jpg,FS,4,num_4,32,num_6,2.91662098805,,,2017_Apr_28_1437,59.9890519775,MAFE4ImagesEEG,001,200221,
AFNE01.JPG,AFNE01.JPG,AFNE01.JPG,AFNE01.JPG,AFNE01.JPG,AFNE01.JPG,,,,,,,,,,,,,1,4,14,9,,,,,,,,,,,AFSA06.jpg,AFSA17.jpg,AFNE16.jpg,AFNE09.jpg,AFSA06.jpg,FS,4,num_8,16,num_8,0.650168596534,,,2017_Apr_28_1437,59.9890519775,MAFE4ImagesEEG,001,200221,
AFNE01.JPG,AFNE01.JPG,AFNE01.JPG,AFNE01.JPG,AFNE01.JPG,AFNE01.JPG,,,,,,,,,,,,,1,5,15,1,,,,,,,,,,,AFNE18.jpg,AFSA14.jpg,AFSA18.jpg,AFNE09.jpg,AFNE09.jpg,FN,3,num_4,32,num_2,1.28342782846,,,2017_Apr_28_1437,59.9890519775,MAFE4ImagesEEG,001,200221,
AFNE01.JPG,AFNE01.JPG,AFNE01.JPG,AFNE01.JPG,AFNE01.JPG,AFNE01.JPG,,,,,,,,,,,,,1,6,16,4,,,,,,,,,,,AFNE01.jpg,AFSA05.jpg,AFNE11.jpg,AFSA03.jpg,AFNE11.jpg,FN,3,num_2,32,num_6,0.48353694391,,,2017_Apr_28_1437,59.9890519775,MAFE4ImagesEEG,001,200221,
AFNE01.JPG,AFNE01.JPG,AFNE01.JPG,AFNE01.JPG,AFNE01.JPG,AFNE01.JPG,,,,,,,,,,,,,1,7,17,7,,,,,,,,,,,AFSA20.jpg,AFNE04.jpg,AFNE08.jpg,AFSA04.jpg,AFSA04.jpg,FS,4,num_4,32,num_2,2.55003257107,,,2017_Apr_28_1437,59.9890519775,MAFE4ImagesEEG,001,200221,
AFNE01.JPG,AFNE01.JPG,AFNE01.JPG,AFNE01.JPG,AFNE01.JPG,AFNE01.JPG,,,,,,,,,,,,,1,8,18,5,,,,,,,,,,,AFSA09.jpg,AFNE08.jpg,AFNE17.jpg,AFSA10.jpg,AFSA09.jpg,FS,4,num_8,16,num_8,1.53340962646,,,2017_Apr_28_1437,59.9890519775,MAFE4ImagesEEG,001,200221,
AFNE01.JPG,AFNE01.JPG,AFNE01.JPG,AFNE01.JPG,AFNE01.JPG,AFNE01.JPG,,,,,,,,,,,,,1,9,19,8,,,,,,,,,,,AFSA06.jpg,AFNE14.jpg,AFSA16.jpg,AFNE04.jpg,AFNE14.jpg,FN,3,num_6,16,num_6,3.26655727334,,,2017_Apr_28_1437,59.9890519775,MAFE4ImagesEEG,001,200221,
AFNE01.JPG,AFNE01.JPG,AFNE01.JPG,AFNE01.JPG,AFNE01.JPG,AFNE01.JPG,,,,,,,,,,,,,2,0,20,1,,,,,,,,,,,AFNE19.jpg,AFNE07.jpg,AFSA16.jpg,AFSA08.jpg,AFSA16.jpg,FS,4,num_2,32,num_4,0.650167313637,,,2017_Apr_28_1437,59.9890519775,MAFE4ImagesEEG,001,200221,
AFNE01.JPG,AFNE01.JPG,AFNE01.JPG,AFNE01.JPG,AFNE01.JPG,AFNE01.JPG,,,,,,,,,,,,,2,1,21,4,,,,,,,,,,,AFNE06.jpg,AFSA16.jpg,AFSA06.jpg,AFNE13.jpg,AFSA16.jpg,FS,4,num_6,32,num_4,1.050161027,,,2017_Apr_28_1437,59.9890519775,MAFE4ImagesEEG,001,200221,
AFNE01.JPG,AFNE01.JPG,AFNE01.JPG,AFNE01.JPG,AFNE01.JPG,AFNE01.JPG,,,,,,,,,,,,,2,2,22,2,,,,,,,,,,,AFSA05.jpg,AFNE07.jpg,AFNE16.jpg,AFSA02.jpg,AFNE07.jpg,FN,3,num_6,32,num_8,4.71661162248,,,2017_Apr_28_1437,59.9890519775,MAFE4ImagesEEG,001,200221,
AFNE01.JPG,AFNE01.JPG,AFNE01.JPG,AFNE01.JPG,AFNE01.JPG,AFNE01.JPG,,,,,,,,,,,,,2,3,23,7,,,,,,,,,,,AFNE01.jpg,AFNE06.jpg,AFSA01.jpg,AFSA14.jpg,AFNE01.jpg,FN,3,num_8,32,num_6,0.883503394551,,,2017_Apr_28_1437,59.9890519775,MAFE4ImagesEEG,001,200221,
AFNE01.JPG,AFNE01.JPG,AFNE01.JPG,AFNE01.JPG,AFNE01.JPG,AFNE01.JPG,,,,,,,,,,,,,2,4,24,5,,,,,,,,,,,AFSA14.jpg,AFNE04.jpg,AFNE12.jpg,AFSA04.jpg,AFNE04.jpg,FN,3,num_6,16,num_6,0.616796336137,,,2017_Apr_28_1437,59.9890519775,MAFE4ImagesEEG,001,200221,
AFNE01.JPG,AFNE01.JPG,AFNE01.JPG,AFNE01.JPG,AFNE01.JPG,AFNE01.JPG,,,,,,,,,,,,,2,5,25,3,,,,,,,,,,,AFNE09.jpg,AFSA15.jpg,AFSA03.jpg,AFNE12.jpg,AFNE09.jpg,FN,3,num_8,16,num_8,2.13338351832,,,2017_Apr_28_1437,59.9890519775,MAFE4ImagesEEG,001,200221,
AFNE01.JPG,AFNE01.JPG,AFNE01.JPG,AFNE01.JPG,AFNE01.JPG,AFNE01.JPG,,,,,,,,,,,,,2,6,26,0,,,,,,,,,,,AFNE14.jpg,AFSA19.jpg,AFNE20.jpg,AFSA15.jpg,AFNE20.jpg,FN,3,num_2,32,num_4,1.28347080748,,,2017_Apr_28_1437,59.9890519775,MAFE4ImagesEEG,001,200221,
AFNE01.JPG,AFNE01.JPG,AFNE01.JPG,AFNE01.JPG,AFNE01.JPG,AFNE01.JPG,,,,,,,,,,,,,2,7,27,6,,,,,,,,,,,AFSA11.jpg,AFSA17.jpg,AFNE19.jpg,AFNE03.jpg,AFSA17.jpg,FS,4,num_6,16,num_6,1.98333151056,,,2017_Apr_28_1437,59.9890519775,MAFE4ImagesEEG,001,200221,
AFNE01.JPG,AFNE01.JPG,AFNE01.JPG,AFNE01.JPG,AFNE01.JPG,AFNE01.JPG,,,,,,,,,,,,,2,8,28,8,,,,,,,,,,,AFSA08.jpg,AFNE01.jpg,AFSA07.jpg,AFNE08.jpg,AFNE01.jpg,FN,3,num_6,32,num_8,1.5167372881,,,2017_Apr_28_1437,59.9890519775,MAFE4ImagesEEG,001,200221,
AFNE01.JPG,AFNE01.JPG,AFNE01.JPG,AFNE01.JPG,AFNE01.JPG,AFNE01.JPG,,,,,,,,,,,,,2,9,29,9,,,,,,,,,,,AFSA10.jpg,AFNE19.jpg,AFNE17.jpg,AFSA14.jpg,AFNE19.jpg,FN,3,num_6,32,num_4,1.83332985872,,,2017_Apr_28_1437,59.9890519775,MAFE4ImagesEEG,001,200221,
AFNE01.JPG,AFNE01.JPG,AFNE01.JPG,AFNE01.JPG,AFNE01.JPG,AFNE01.JPG,,,,,,,,,,,,,3,0,30,7,,,,,,,,,,,AFSA12.jpg,AFNE18.jpg,AFSA02.jpg,AFNE20.jpg,AFNE20.jpg,FN,3,num_4,16,num_4,4.11681189202,,,2017_Apr_28_1437,59.9890519775,MAFE4ImagesEEG,001,200221,
AFNE01.JPG,AFNE01.JPG,AFNE01.JPG,AFNE01.JPG,AFNE01.JPG,AFNE01.JPG,,,,,,,,,,,,,3,1,31,4,,,,,,,,,,,AFSA09.jpg,AFNE20.jpg,AFNE11.jpg,AFSA18.jpg,AFNE20.jpg,FN,3,num_6,16,num_6,1.05011163326,,,2017_Apr_28_1437,59.9890519775,MAFE4ImagesEEG,001,200221,
AFNE01.JPG,AFNE01.JPG,AFNE01.JPG,AFNE01.JPG,AFNE01.JPG,AFNE01.JPG,,,,,,,,,,,,,3,2,32,1,,,,,,,,,,,AFSA18.jpg,AFNE17.jpg,AFNE12.jpg,AFSA04.jpg,AFNE12.jpg,FN,3,num_2,16,num_2,0.700131727615,,,2017_Apr_28_1437,59.9890519775,MAFE4ImagesEEG,001,200221,
AFNE01.JPG,AFNE01.JPG,AFNE01.JPG,AFNE01.JPG,AFNE01.JPG,AFNE01.JPG,,,,,,,,,,,,,3,3,33,5,,,,,,,,,,,AFNE15.jpg,AFSA07.jpg,AFSA13.jpg,AFNE12.jpg,AFNE12.jpg,FN,3,num_4,16,num_4,0.78346294933,,,2017_Apr_28_1437,59.9890519775,MAFE4ImagesEEG,001,200221,
AFNE01.JPG,AFNE01.JPG,AFNE01.JPG,AFNE01.JPG,AFNE01.JPG,AFNE01.JPG,,,,,,,,,,,,,3,4,34,6,,,,,,,,,,,AFNE14.jpg,AFSA18.jpg,AFNE17.jpg,AFSA20.jpg,AFSA18.jpg,FS,4,num_6,48,None,,,,2017_Apr_28_1437,59.9890519775,MAFE4ImagesEEG,001,200221,
AFNE01.JPG,AFNE01.JPG,AFNE01.JPG,AFNE01.JPG,AFNE01.JPG,AFNE01.JPG,,,,,,,,,,,,,3,5,35,3,,,,,,,,,,,AFNE04.jpg,AFNE01.jpg,AFSA19.jpg,AFSA12.jpg,AFNE01.jpg,FN,3,num_6,48,None,,,,2017_Apr_28_1437,59.9890519775,MAFE4ImagesEEG,001,200221,
AFNE01.JPG,AFNE01.JPG,AFNE01.JPG,AFNE01.JPG,AFNE01.JPG,AFNE01.JPG,,,,,,,,,,,,,3,6,36,0,,,,,,,,,,,AFNE11.jpg,AFSA03.jpg,AFSA17.jpg,AFNE20.jpg,AFNE20.jpg,FN,3,num_4,32,num_8,3.59965732228,,,2017_Apr_28_1437,59.9890519775,MAFE4ImagesEEG,001,200221,
AFNE01.JPG,AFNE01.JPG,AFNE01.JPG,AFNE01.JPG,AFNE01.JPG,AFNE01.JPG,,,,,,,,,,,,,3,7,37,9,,,,,,,,,,,AFNE10.jpg,AFNE09.jpg,AFSA08.jpg,AFSA10.jpg,AFSA10.jpg,FS,4,num_4,32,num_6,0.566807866679,,,2017_Apr_28_1437,59.9890519775,MAFE4ImagesEEG,001,200221,
AFNE01.JPG,AFNE01.JPG,AFNE01.JPG,AFNE01.JPG,AFNE01.JPG,AFNE01.JPG,,,,,,,,,,,,,3,8,38,2,,,,,,,,,,,AFNE05.jpg,AFSA06.jpg,AFSA02.jpg,AFNE14.jpg,AFSA02.jpg,FS,4,num_2,32,num_6,1.50004474318,,,2017_Apr_28_1437,59.9890519775,MAFE4ImagesEEG,001,200221,
AFNE01.JPG,AFNE01.JPG,AFNE01.JPG,AFNE01.JPG,AFNE01.JPG,AFNE01.JPG,,,,,,,,,,,,,3,9,39,8,,,,,,,,,,,AFSA18.jpg,AFNE15.jpg,AFSA08.jpg,AFNE06.jpg,AFSA08.jpg,FS,4,num_2,32,num_8,1.5000293476,,,2017_Apr_28_1437,59.9890519775,MAFE4ImagesEEG,001,200221,
AFNE01.JPG,AFNE01.JPG,AFNE01.JPG,AFNE01.JPG,AFNE01.JPG,AFNE01.JPG,,,,,,,,,,,,,4,0,40,1,,,,,,,,,,,AFNE03.jpg,AFSA03.jpg,AFNE16.jpg,AFSA07.jpg,AFNE16.jpg,FN,3,num_2,48,None,,,,2017_Apr_28_1437,59.9890519775,MAFE4ImagesEEG,001,200221,
AFNE01.JPG,AFNE01.JPG,AFNE01.JPG,AFNE01.JPG,AFNE01.JPG,AFNE01.JPG,,,,,,,,,,,,,4,1,41,6,,,,,,,,,,,AFNE15.jpg,AFNE05.jpg,AFSA07.jpg,AFSA19.jpg,AFSA07.jpg,FS,4,num_2,32,num_4,1.10031756375,,,2017_Apr_28_1437,59.9890519775,MAFE4ImagesEEG,001,200221,
AFNE01.JPG,AFNE01.JPG,AFNE01.JPG,AFNE01.JPG,AFNE01.JPG,AFNE01.JPG,,,,,,,,,,,,,4,2,42,9,,,,,,,,,,,AFNE02.jpg,AFNE04.jpg,AFSA04.jpg,AFSA06.jpg,AFSA04.jpg,FS,4,num_2,32,num_6,0.750147139071,,,2017_Apr_28_1437,59.9890519775,MAFE4ImagesEEG,001,200221,
AFNE01.JPG,AFNE01.JPG,AFNE01.JPG,AFNE01.JPG,AFNE01.JPG,AFNE01.JPG,,,,,,,,,,,,,4,3,43,4,,,,,,,,,,,AFNE01.jpg,AFNE05.jpg,AFSA07.jpg,AFSA19.jpg,AFSA07.jpg,FS,4,num_2,16,num_2,1.11676602636,,,2017_Apr_28_1437,59.9890519775,MAFE4ImagesEEG,001,200221,
AFNE01.JPG,AFNE01.JPG,AFNE01.JPG,AFNE01.JPG,AFNE01.JPG,AFNE01.JPG,,,,,,,,,,,,,4,4,44,0,,,,,,,,,,,AFNE13.jpg,AFNE08.jpg,AFSA10.jpg,AFSA12.jpg,AFSA12.jpg,FS,4,num_4,32,num_2,1.58338686998,,,2017_Apr_28_1437,59.9890519775,MAFE4ImagesEEG,001,200221,
AFNE01.JPG,AFNE01.JPG,AFNE01.JPG,AFNE01.JPG,AFNE01.JPG,AFNE01.JPG,,,,,,,,,,,,,4,5,45,7,,,,,,,,,,,AFNE13.jpg,AFSA19.jpg,AFNE01.jpg,AFSA11.jpg,AFNE13.jpg,FN,3,num_8,32,num_2,1.33344965475,,,2017_Apr_28_1437,59.9890519775,MAFE4ImagesEEG,001,200221,
AFNE01.JPG,AFNE01.JPG,AFNE01.JPG,AFNE01.JPG,AFNE01.JPG,AFNE01.JPG,,,,,,,,,,,,,4,6,46,8,,,,,,,,,,,AFNE18.jpg,AFNE06.jpg,AFSA17.jpg,AFSA06.jpg,AFSA06.jpg,FS,4,num_4,48,None,,,,2017_Apr_28_1437,59.9890519775,MAFE4ImagesEEG,001,200221,
AFNE01.JPG,AFNE01.JPG,AFNE01.JPG,AFNE01.JPG,AFNE01.JPG,AFNE01.JPG,,,,,,,,,,,,,4,7,47,2,,,,,,,,,,,AFNE14.jpg,AFSA09.jpg,AFNE01.jpg,AFSA05.jpg,AFSA09.jpg,FS,4,num_6,32,num_8,1.01678106899,,,2017_Apr_28_1437,59.9890519775,MAFE4ImagesEEG,001,200221,
AFNE01.JPG,AFNE01.JPG,AFNE01.JPG,AFNE01.JPG,AFNE01.JPG,AFNE01.JPG,,,,,,,,,,,,,4,8,48,5,,,,,,,,,,,AFSA04.jpg,AFNE08.jpg,AFNE03.jpg,AFSA17.jpg,AFSA04.jpg,FS,4,num_8,32,num_6,1.4500732728,,,2017_Apr_28_1437,59.9890519775,MAFE4ImagesEEG,001,200221,
AFNE01.JPG,AFNE01.JPG,AFNE01.JPG,AFNE01.JPG,AFNE01.JPG,AFNE01.JPG,,,,,,,,,,,,,4,9,49,3,,,,,,,,,,,AFNE08.jpg,AFSA13.jpg,AFSA20.jpg,AFNE20.jpg,AFSA13.jpg,FS,4,num_6,48,None,,,,2017_Apr_28_1437,59.9890519775,MAFE4ImagesEEG,001,200221,
AFNE01.JPG,AFNE01.JPG,AFNE01.JPG,AFNE01.JPG,AFNE01.JPG,AFNE01.JPG,,,,,,,,,,,,,5,0,50,3,,,,,,,,,,,AFNE16.jpg,AFSA03.jpg,AFNE17.jpg,AFSA13.jpg,AFSA13.jpg,FS,4,num_4,48,None,,,,2017_Apr_28_1437,59.9890519775,MAFE4ImagesEEG,001,200221,
AFNE01.JPG,AFNE01.JPG,AFNE01.JPG,AFNE01.JPG,AFNE01.JPG,AFNE01.JPG,,,,,,,,,,,,,5,1,51,1,,,,,,,,,,,AFNE20.jpg,AFSA08.jpg,AFSA05.jpg,AFNE03.jpg,AFNE20.jpg,FN,3,num_8,16,num_8,0.850118304603,,,2017_Apr_28_1437,59.9890519775,MAFE4ImagesEEG,001,200221,
AFNE01.JPG,AFNE01.JPG,AFNE01.JPG,AFNE01.JPG,AFNE01.JPG,AFNE01.JPG,,,,,,,,,,,,,5,2,52,4,,,,,,,,,,,AFSA04.jpg,AFNE12.jpg,AFNE20.jpg,AFSA19.jpg,AFSA04.jpg,FS,4,num_8,16,num_8,1.86661551951,,,2017_Apr_28_1437,59.9890519775,MAFE4ImagesEEG,001,200221,
AFNE01.JPG,AFNE01.JPG,AFNE01.JPG,AFNE01.JPG,AFNE01.JPG,AFNE01.JPG,,,,,,,,,,,,,5,3,53,0,,,,,,,,,,,AFSA19.jpg,AFNE09.jpg,AFSA11.jpg,AFNE15.jpg,AFNE09.jpg,FN,3,num_6,32,num_8,3.16661304981,,,2017_Apr_28_1437,59.9890519775,MAFE4ImagesEEG,001,200221,
AFNE01.JPG,AFNE01.JPG,AFNE01.JPG,AFNE01.JPG,AFNE01.JPG,AFNE01.JPG,,,,,,,,,,,,,5,4,54,5,,,,,,,,,,,AFSA01.jpg,AFSA17.jpg,AFNE17.jpg,AFNE14.jpg,AFNE17.jpg,FN,3,num_2,48,None,,,,2017_Apr_28_1437,59.9890519775,MAFE4ImagesEEG,001,200221,
AFNE01.JPG,AFNE01.JPG,AFNE01.JPG,AFNE01.JPG,AFNE01.JPG,AFNE01.JPG,,,,,,,,,,,,,5,5,55,2,,,,,,,,,,,AFSA14.jpg,AFSA12.jpg,AFNE01.jpg,AFNE15.jpg,AFSA14.jpg,FS,4,num_8,16,num_8,0.950074395398,,,2017_Apr_28_1437,59.9890519775,MAFE4ImagesEEG,001,200221,
AFNE01.JPG,AFNE01.JPG,AFNE01.JPG,AFNE01.JPG,AFNE01.JPG,AFNE01.JPG,,,,,,,,,,,,,5,6,56,7,,,,,,,,,,,AFNE14.jpg,AFSA19.jpg,AFNE04.jpg,AFSA08.jpg,AFSA19.jpg,FS,4,num_6,48,None,,,,2017_Apr_28_1437,59.9890519775,MAFE4ImagesEEG,001,200221,
AFNE01.JPG,AFNE01.JPG,AFNE01.JPG,AFNE01.JPG,AFNE01.JPG,AFNE01.JPG,,,,,,,,,,,,,5,7,57,8,,,,,,,,,,,AFNE10.jpg,AFSA06.jpg,AFSA16.jpg,AFNE08.jpg,AFSA06.jpg,FS,4,num_6,48,None,,,,2017_Apr_28_1437,59.9890519775,MAFE4ImagesEEG,001,200221,
AFNE01.JPG,AFNE01.JPG,AFNE01.JPG,AFNE01.JPG,AFNE01.JPG,AFNE01.JPG,,,,,,,,,,,,,5,8,58,6,,,,,,,,,,,AFSA18.jpg,AFNE08.jpg,AFSA16.jpg,AFNE04.jpg,AFNE04.jpg,FN,3,num_4,48,None,,,,2017_Apr_28_1437,59.9890519775,MAFE4ImagesEEG,001,200221,
AFNE01.JPG,AFNE01.JPG,AFNE01.JPG,AFNE01.JPG,AFNE01.JPG,AFNE01.JPG,,,,,,,,,,,,,5,9,59,9,,,,,,,,,,,AFNE20.jpg,AFSA07.jpg,AFNE12.jpg,AFSA03.jpg,AFNE12.jpg,FN,3,num_2,48,None,,,,2017_Apr_28_1437,59.9890519775,MAFE4ImagesEEG,001,200221,
,,,,,,,,,,,,,,,,,,,,,,,,,,,,,,,,,,,,,,,,,,,space,23.1482722266,2017_Apr_28_1437,59.9890519775,MAFE4ImagesEEG,001,200221,
AFNE01.JPG,AFNE01.JPG,AFNE01.JPG,AFNE01.JPG,AFNE01.JPG,AFNE01.JPG,,,,,,,,,,,,,,,,,0,0,0,2,,,,,,,AMNE17.jpg,AMSA13.jpg,AMNE20.jpg,AMSA07.jpg,AMSA13.jpg,MS,2,num_6,32,num_2,2.01671563811,,,2017_Apr_28_1437,59.9890519775,MAFE4ImagesEEG,001,200221,
AFNE01.JPG,AFNE01.JPG,AFNE01.JPG,AFNE01.JPG,AFNE01.JPG,AFNE01.JPG,,,,,,,,,,,,,,,,,0,1,1,4,,,,,,,AMNE10.jpg,AMNE17.jpg,AMSA15.jpg,AMSA05.jpg,AMNE17.jpg,MN,1,num_6,32,num_4,4.48315013247,,,2017_Apr_28_1437,59.9890519775,MAFE4ImagesEEG,001,200221,
AFNE01.JPG,AFNE01.JPG,AFNE01.JPG,AFNE01.JPG,AFNE01.JPG,AFNE01.JPG,,,,,,,,,,,,,,,,,0,2,2,7,,,,,,,AMNE08.jpg,AMSA12.jpg,AMNE10.jpg,AMSA06.jpg,AMNE10.jpg,MN,1,num_2,32,num_8,4.91645805258,,,2017_Apr_28_1437,59.9890519775,MAFE4ImagesEEG,001,200221,
AFNE01.JPG,AFNE01.JPG,AFNE01.JPG,AFNE01.JPG,AFNE01.JPG,AFNE01.JPG,,,,,,,,,,,,,,,,,0,3,3,9,,,,,,,AMSA20.jpg,AMNE05.jpg,AMSA02.jpg,AMNE17.jpg,AMSA02.jpg,MS,2,num_2,16,num_2,3.19990704989,,,2017_Apr_28_1437,59.9890519775,MAFE4ImagesEEG,001,200221,
AFNE01.JPG,AFNE01.JPG,AFNE01.JPG,AFNE01.JPG,AFNE01.JPG,AFNE01.JPG,,,,,,,,,,,,,,,,,0,4,4,1,,,,,,,AMNE15.jpg,AMNE06.jpg,AMSA20.jpg,AMSA06.jpg,AMNE06.jpg,MN,1,num_6,32,num_2,1.96669284964,,,2017_Apr_28_1437,59.9890519775,MAFE4ImagesEEG,001,200221,
AFNE01.JPG,AFNE01.JPG,AFNE01.JPG,AFNE01.JPG,AFNE01.JPG,AFNE01.JPG,,,,,,,,,,,,,,,,,0,5,5,0,,,,,,,AMNE05.jpg,AMSA19.jpg,AMNE18.jpg,AMSA07.jpg,AMNE05.jpg,MN,1,num_8,16,num_8,0.583451980026,,,2017_Apr_28_1437,59.9890519775,MAFE4ImagesEEG,001,200221,
AFNE01.JPG,AFNE01.JPG,AFNE01.JPG,AFNE01.JPG,AFNE01.JPG,AFNE01.JPG,,,,,,,,,,,,,,,,,0,6,6,5,,,,,,,AMNE01.jpg,AMSA04.jpg,AMSA13.jpg,AMNE18.jpg,AMSA04.jpg,MS,2,num_6,16,num_6,0.516808492132,,,2017_Apr_28_1437,59.9890519775,MAFE4ImagesEEG,001,200221,
AFNE01.JPG,AFNE01.JPG,AFNE01.JPG,AFNE01.JPG,AFNE01.JPG,AFNE01.JPG,,,,,,,,,,,,,,,,,0,7,7,6,,,,,,,AMNE05.jpg,AMSA13.jpg,AMSA17.jpg,AMNE16.jpg,AMSA13.jpg,MS,2,num_6,16,num_6,1.2167654169,,,2017_Apr_28_1437,59.9890519775,MAFE4ImagesEEG,001,200221,
AFNE01.JPG,AFNE01.JPG,AFNE01.JPG,AFNE01.JPG,AFNE01.JPG,AFNE01.JPG,,,,,,,,,,,,,,,,,0,8,8,3,,,,,,,AMSA15.jpg,AMNE07.jpg,AMNE03.jpg,AMSA17.jpg,AMSA15.jpg,MS,2,num_8,32,num_2,2.04998975236,,,2017_Apr_28_1437,59.9890519775,MAFE4ImagesEEG,001,200221,
AFNE01.JPG,AFNE01.JPG,AFNE01.JPG,AFNE01.JPG,AFNE01.JPG,AFNE01.JPG,,,,,,,,,,,,,,,,,0,9,9,8,,,,,,,AMSA09.jpg,AMNE11.jpg,AMSA17.jpg,AMNE02.jpg,AMSA09.jpg,MS,2,num_8,16,num_8,0.600162165705,,,2017_Apr_28_1437,59.9890519775,MAFE4ImagesEEG,001,200221,
AFNE01.JPG,AFNE01.JPG,AFNE01.JPG,AFNE01.JPG,AFNE01.JPG,AFNE01.JPG,,,,,,,,,,,,,,,,,1,0,10,8,,,,,,,AMNE08.jpg,AMSA04.jpg,AMNE01.jpg,AMSA18.jpg,AMSA04.jpg,MS,2,num_6,16,num_6,1.41669491853,,,2017_Apr_28_1437,59.9890519775,MAFE4ImagesEEG,001,200221,
AFNE01.JPG,AFNE01.JPG,AFNE01.JPG,AFNE01.JPG,AFNE01.JPG,AFNE01.JPG,,,,,,,,,,,,,,,,,1,1,11,7,,,,,,,AMNE07.jpg,AMNE05.jpg,AMSA12.jpg,AMSA10.jpg,AMNE05.jpg,MN,1,num_6,16,num_6,1.33344516438,,,2017_Apr_28_1437,59.9890519775,MAFE4ImagesEEG,001,200221,
AFNE01.JPG,AFNE01.JPG,AFNE01.JPG,AFNE01.JPG,AFNE01.JPG,AFNE01.JPG,,,,,,,,,,,,,,,,,1,2,12,4,,,,,,,AMSA03.jpg,AMNE11.jpg,AMSA01.jpg,AMNE02.jpg,AMNE02.jpg,MN,1,num_4,32,num_2,2.3000427545,,,2017_Apr_28_1437,59.9890519775,MAFE4ImagesEEG,001,200221,
AFNE01.JPG,AFNE01.JPG,AFNE01.JPG,AFNE01.JPG,AFNE01.JPG,AFNE01.JPG,,,,,,,,,,,,,,,,,1,3,13,3,,,,,,,AMNE08.jpg,AMSA19.jpg,AMNE12.jpg,AMSA12.jpg,AMNE12.jpg,MN,1,num_2,16,num_2,1.31676801492,,,2017_Apr_28_1437,59.9890519775,MAFE4ImagesEEG,001,200221,
AFNE01.JPG,AFNE01.JPG,AFNE01.JPG,AFNE01.JPG,AFNE01.JPG,AFNE01.JPG,,,,,,,,,,,,,,,,,1,4,14,0,,,,,,,AMNE13.jpg,AMSA14.jpg,AMSA07.jpg,AMNE16.jpg,AMNE13.jpg,MN,1,num_8,32,num_4,1.5500864553,,,2017_Apr_28_1437,59.9890519775,MAFE4ImagesEEG,001,200221,
AFNE01.JPG,AFNE01.JPG,AFNE01.JPG,AFNE01.JPG,AFNE01.JPG,AFNE01.JPG,,,,,,,,,,,,,,,,,1,5,15,1,,,,,,,AMSA04.jpg,AMNE18.jpg,AMSA07.jpg,AMNE07.jpg,AMSA07.jpg,MS,2,num_2,16,num_2,1.5667568692,,,2017_Apr_28_1437,59.9890519775,MAFE4ImagesEEG,001,200221,
AFNE01.JPG,AFNE01.JPG,AFNE01.JPG,AFNE01.JPG,AFNE01.JPG,AFNE01.JPG,,,,,,,,,,,,,,,,,1,6,16,5,,,,,,,AMSA08.jpg,AMNE20.jpg,AMSA16.jpg,AMNE08.jpg,AMSA16.jpg,MS,2,num_2,32,num_4,1.60036358982,,,2017_Apr_28_1437,59.9890519775,MAFE4ImagesEEG,001,200221,
AFNE01.JPG,AFNE01.JPG,AFNE01.JPG,AFNE01.JPG,AFNE01.JPG,AFNE01.JPG,,,,,,,,,,,,,,,,,1,7,17,2,,,,,,,AMNE18.jpg,AMNE14.jpg,AMSA09.jpg,AMSA18.jpg,AMSA09.jpg,MS,2,num_2,16,num_2,1.21672596596,,,2017_Apr_28_1437,59.9890519775,MAFE4ImagesEEG,001,200221,
AFNE01.JPG,AFNE01.JPG,AFNE01.JPG,AFNE01.JPG,AFNE01.JPG,AFNE01.JPG,,,,,,,,,,,,,,,,,1,8,18,9,,,,,,,AMSA19.jpg,AMNE05.jpg,AMNE19.jpg,AMSA09.jpg,AMSA19.jpg,MS,2,num_8,32,num_6,4.71646055439,,,2017_Apr_28_1437,59.9890519775,MAFE4ImagesEEG,001,200221,
AFNE01.JPG,AFNE01.JPG,AFNE01.JPG,AFNE01.JPG,AFNE01.JPG,AFNE01.JPG,,,,,,,,,,,,,,,,,1,9,19,6,,,,,,,AMNE14.jpg,AMSA14.jpg,AMSA12.jpg,AMNE03.jpg,AMSA14.jpg,MS,2,num_6,16,num_6,0.8501195875,,,2017_Apr_28_1437,59.9890519775,MAFE4ImagesEEG,001,200221,
AFNE01.JPG,AFNE01.JPG,AFNE01.JPG,AFNE01.JPG,AFNE01.JPG,AFNE01.JPG,,,,,,,,,,,,,,,,,2,0,20,5,,,,,,,AMSA14.jpg,AMNE09.jpg,AMSA15.jpg,AMNE01.jpg,AMSA14.jpg,MS,2,num_8,16,num_8,0.750406616949,,,2017_Apr_28_1437,59.9890519775,MAFE4ImagesEEG,001,200221,
AFNE01.JPG,AFNE01.JPG,AFNE01.JPG,AFNE01.JPG,AFNE01.JPG,AFNE01.JPG,,,,,,,,,,,,,,,,,2,1,21,1,,,,,,,AMSA10.jpg,AMNE01.jpg,AMSA14.jpg,AMNE06.jpg,AMSA10.jpg,MS,2,num_8,32,num_4,0.983452108339,,,2017_Apr_28_1437,59.9890519775,MAFE4ImagesEEG,001,200221,
AFNE01.JPG,AFNE01.JPG,AFNE01.JPG,AFNE01.JPG,AFNE01.JPG,AFNE01.JPG,,,,,,,,,,,,,,,,,2,2,22,3,,,,,,,AMNE15.jpg,AMNE19.jpg,AMSA15.jpg,AMSA17.jpg,AMNE19.jpg,MN,1,num_6,32,num_8,0.616809486412,,,2017_Apr_28_1437,59.9890519775,MAFE4ImagesEEG,001,200221,
AFNE01.JPG,AFNE01.JPG,AFNE01.JPG,AFNE01.JPG,AFNE01.JPG,AFNE01.JPG,,,,,,,,,,,,,,,,,2,3,23,2,,,,,,,AMNE06.jpg,AMSA03.jpg,AMSA13.jpg,AMNE18.jpg,AMSA13.jpg,MS,2,num_2,16,num_2,0.783459100523,,,2017_Apr_28_1437,59.9890519775,MAFE4ImagesEEG,001,200221,
AFNE01.JPG,AFNE01.JPG,AFNE01.JPG,AFNE01.JPG,AFNE01.JPG,AFNE01.JPG,,,,,,,,,,,,,,,,,2,4,24,0,,,,,,,AMNE01.jpg,AMSA18.jpg,AMNE18.jpg,AMSA01.jpg,AMNE18.jpg,MN,1,num_2,16,num_2,2.96658411901,,,2017_Apr_28_1437,59.9890519775,MAFE4ImagesEEG,001,200221,
AFNE01.JPG,AFNE01.JPG,AFNE01.JPG,AFNE01.JPG,AFNE01.JPG,AFNE01.JPG,,,,,,,,,,,,,,,,,2,5,25,4,,,,,,,AMNE08.jpg,AMSA08.jpg,AMNE11.jpg,AMSA10.jpg,AMNE11.jpg,MN,1,num_2,32,num_8,2.40000173205,,,2017_Apr_28_1437,59.9890519775,MAFE4ImagesEEG,001,200221,
AFNE01.JPG,AFNE01.JPG,AFNE01.JPG,AFNE01.JPG,AFNE01.JPG,AFNE01.JPG,,,,,,,,,,,,,,,,,2,6,26,8,,,,,,,AMNE02.jpg,AMNE13.jpg,AMSA05.jpg,AMSA01.jpg,AMNE02.jpg,MN,1,num_8,16,num_8,1.833644183,,,2017_Apr_28_1437,59.9890519775,MAFE4ImagesEEG,001,200221,
AFNE01.JPG,AFNE01.JPG,AFNE01.JPG,AFNE01.JPG,AFNE01.JPG,AFNE01.JPG,,,,,,,,,,,,,,,,,2,7,27,9,,,,,,,AMNE17.jpg,AMSA04.jpg,AMSA05.jpg,AMNE05.jpg,AMSA04.jpg,MS,2,num_6,16,num_6,0.86674702249,,,2017_Apr_28_1437,59.9890519775,MAFE4ImagesEEG,001,200221,
AFNE01.JPG,AFNE01.JPG,AFNE01.JPG,AFNE01.JPG,AFNE01.JPG,AFNE01.JPG,,,,,,,,,,,,,,,,,2,8,28,7,,,,,,,AMSA14.jpg,AMSA15.jpg,AMNE20.jpg,AMNE05.jpg,AMNE20.jpg,MN,1,num_2,16,num_2,0.616788638406,,,2017_Apr_28_1437,59.9890519775,MAFE4ImagesEEG,001,200221,
AFNE01.JPG,AFNE01.JPG,AFNE01.JPG,AFNE01.JPG,AFNE01.JPG,AFNE01.JPG,,,,,,,,,,,,,,,,,2,9,29,6,,,,,,,AMNE03.jpg,AMNE17.jpg,AMSA16.jpg,AMSA12.jpg,AMSA16.jpg,MS,2,num_2,32,num_6,1.31677218445,,,2017_Apr_28_1437,59.9890519775,MAFE4ImagesEEG,001,200221,
AFNE01.JPG,AFNE01.JPG,AFNE01.JPG,AFNE01.JPG,AFNE01.JPG,AFNE01.JPG,,,,,,,,,,,,,,,,,3,0,30,7,,,,,,,AMNE17.jpg,AMNE13.jpg,AMSA10.jpg,AMSA18.jpg,AMSA10.jpg,MS,2,num_2,16,num_2,2.50008676003,,,2017_Apr_28_1437,59.9890519775,MAFE4ImagesEEG,001,200221,
AFNE01.JPG,AFNE01.JPG,AFNE01.JPG,AFNE01.JPG,AFNE01.JPG,AFNE01.JPG,,,,,,,,,,,,,,,,,3,1,31,6,,,,,,,AMNE11.jpg,AMSA09.jpg,AMSA03.jpg,AMNE07.jpg,AMSA09.jpg,MS,2,num_6,32,num_2,1.38343523757,,,2017_Apr_28_1437,59.9890519775,MAFE4ImagesEEG,001,200221,
AFNE01.JPG,AFNE01.JPG,AFNE01.JPG,AFNE01.JPG,AFNE01.JPG,AFNE01.JPG,,,,,,,,,,,,,,,,,3,2,32,4,,,,,,,AMSA05.jpg,AMSA20.jpg,AMNE16.jpg,AMNE04.jpg,AMNE16.jpg,MN,1,num_2,16,num_2,2.43334448442,,,2017_Apr_28_1437,59.9890519775,MAFE4ImagesEEG,001,200221,
AFNE01.JPG,AFNE01.JPG,AFNE01.JPG,AFNE01.JPG,AFNE01.JPG,AFNE01.JPG,,,,,,,,,,,,,,,,,3,3,33,3,,,,,,,AMSA11.jpg,AMNE07.jpg,AMNE11.jpg,AMSA16.jpg,AMNE07.jpg,MN,1,num_6,16,num_6,0.700199403451,,,2017_Apr_28_1437,59.9890519775,MAFE4ImagesEEG,001,200221,
AFNE01.JPG,AFNE01.JPG,AFNE01.JPG,AFNE01.JPG,AFNE01.JPG,AFNE01.JPG,,,,,,,,,,,,,,,,,3,4,34,9,,,,,,,AMSA14.jpg,AMSA20.jpg,AMNE20.jpg,AMNE09.jpg,AMNE20.jpg,MN,1,num_2,32,num_6,0.816859265091,,,2017_Apr_28_1437,59.9890519775,MAFE4ImagesEEG,001,200221,
AFNE01.JPG,AFNE01.JPG,AFNE01.JPG,AFNE01.JPG,AFNE01.JPG,AFNE01.JPG,,,,,,,,,,,,,,,,,3,5,35,1,,,,,,,AMSA12.jpg,AMNE15.jpg,AMSA17.jpg,AMNE01.jpg,AMNE01.jpg,MN,1,num_4,16,num_4,3.15007285599,,,2017_Apr_28_1437,59.9890519775,MAFE4ImagesEEG,001,200221,
AFNE01.JPG,AFNE01.JPG,AFNE01.JPG,AFNE01.JPG,AFNE01.JPG,AFNE01.JPG,,,,,,,,,,,,,,,,,3,6,36,2,,,,,,,AMNE11.jpg,AMNE06.jpg,AMSA10.jpg,AMSA14.jpg,AMNE06.jpg,MN,1,num_6,16,num_6,1.90005064465,,,2017_Apr_28_1437,59.9890519775,MAFE4ImagesEEG,001,200221,
AFNE01.JPG,AFNE01.JPG,AFNE01.JPG,AFNE01.JPG,AFNE01.JPG,AFNE01.JPG,,,,,,,,,,,,,,,,,3,7,37,0,,,,,,,AMNE19.jpg,AMSA17.jpg,AMNE04.jpg,AMSA16.jpg,AMNE19.jpg,MN,1,num_8,32,num_2,1.00010873051,,,2017_Apr_28_1437,59.9890519775,MAFE4ImagesEEG,001,200221,
AFNE01.JPG,AFNE01.JPG,AFNE01.JPG,AFNE01.JPG,AFNE01.JPG,AFNE01.JPG,,,,,,,,,,,,,,,,,3,8,38,5,,,,,,,AMNE20.jpg,AMNE02.jpg,AMSA18.jpg,AMSA15.jpg,AMSA18.jpg,MS,2,num_2,32,num_6,1.98329205951,,,2017_Apr_28_1437,59.9890519775,MAFE4ImagesEEG,001,200221,
AFNE01.JPG,AFNE01.JPG,AFNE01.JPG,AFNE01.JPG,AFNE01.JPG,AFNE01.JPG,,,,,,,,,,,,,,,,,3,9,39,8,,,,,,,AMNE18.jpg,AMSA14.jpg,AMNE20.jpg,AMSA16.jpg,AMNE20.jpg,MN,1,num_2,32,num_8,1.28342462098,,,2017_Apr_28_1437,59.9890519775,MAFE4ImagesEEG,001,200221,
AFNE01.JPG,AFNE01.JPG,AFNE01.JPG,AFNE01.JPG,AFNE01.JPG,AFNE01.JPG,,,,,,,,,,,,,,,,,4,0,40,8,,,,,,,AMSA08.jpg,AMNE19.jpg,AMNE16.jpg,AMSA01.jpg,AMNE19.jpg,MN,1,num_6,16,num_6,1.05006288097,,,2017_Apr_28_1437,59.9890519775,MAFE4ImagesEEG,001,200221,
AFNE01.JPG,AFNE01.JPG,AFNE01.JPG,AFNE01.JPG,AFNE01.JPG,AFNE01.JPG,,,,,,,,,,,,,,,,,4,1,41,9,,,,,,,AMSA09.jpg,AMNE14.jpg,AMNE19.jpg,AMSA02.jpg,AMNE19.jpg,MN,1,num_2,16,num_2,1.10019439994,,,2017_Apr_28_1437,59.9890519775,MAFE4ImagesEEG,001,200221,
AFNE01.JPG,AFNE01.JPG,AFNE01.JPG,AFNE01.JPG,AFNE01.JPG,AFNE01.JPG,,,,,,,,,,,,,,,,,4,2,42,4,,,,,,,AMNE06.jpg,AMNE08.jpg,AMSA11.jpg,AMSA02.jpg,AMSA02.jpg,MS,2,num_4,32,num_2,1.48344649549,,,2017_Apr_28_1437,59.9890519775,MAFE4ImagesEEG,001,200221,
AFNE01.JPG,AFNE01.JPG,AFNE01.JPG,AFNE01.JPG,AFNE01.JPG,AFNE01.JPG,,,,,,,,,,,,,,,,,4,3,43,6,,,,,,,AMSA15.jpg,AMNE12.jpg,AMSA08.jpg,AMNE03.jpg,AMSA15.jpg,MS,2,num_8,16,num_8,1.00014080445,,,2017_Apr_28_1437,59.9890519775,MAFE4ImagesEEG,001,200221,
AFNE01.JPG,AFNE01.JPG,AFNE01.JPG,AFNE01.JPG,AFNE01.JPG,AFNE01.JPG,,,,,,,,,,,,,,,,,4,4,44,2,,,,,,,AMNE10.jpg,AMSA18.jpg,AMNE04.jpg,AMSA16.jpg,AMSA18.jpg,MS,2,num_6,32,num_2,3.49990907044,,,2017_Apr_28_1437,59.9890519775,MAFE4ImagesEEG,001,200221,
AFNE01.JPG,AFNE01.JPG,AFNE01.JPG,AFNE01.JPG,AFNE01.JPG,AFNE01.JPG,,,,,,,,,,,,,,,,,4,5,45,3,,,,,,,AMSA14.jpg,AMNE17.jpg,AMSA16.jpg,AMNE11.jpg,AMSA14.jpg,MS,2,num_8,16,num_8,0.450149288052,,,2017_Apr_28_1437,59.9890519775,MAFE4ImagesEEG,001,200221,
AFNE01.JPG,AFNE01.JPG,AFNE01.JPG,AFNE01.JPG,AFNE01.JPG,AFNE01.JPG,,,,,,,,,,,,,,,,,4,6,46,1,,,,,,,AMNE01.jpg,AMSA05.jpg,AMNE15.jpg,AMSA13.jpg,AMNE01.jpg,MN,1,num_8,16,num_8,0.966764695244,,,2017_Apr_28_1437,59.9890519775,MAFE4ImagesEEG,001,200221,
AFNE01.JPG,AFNE01.JPG,AFNE01.JPG,AFNE01.JPG,AFNE01.JPG,AFNE01.JPG,,,,,,,,,,,,,,,,,4,7,47,0,,,,,,,AMSA16.jpg,AMNE01.jpg,AMSA17.jpg,AMNE15.jpg,AMSA16.jpg,MS,2,num_8,16,num_8,1.40011174558,,,2017_Apr_28_1437,59.9890519775,MAFE4ImagesEEG,001,200221,
AFNE01.JPG,AFNE01.JPG,AFNE01.JPG,AFNE01.JPG,AFNE01.JPG,AFNE01.JPG,,,,,,,,,,,,,,,,,4,8,48,7,,,,,,,AMNE02.jpg,AMNE19.jpg,AMSA04.jpg,AMSA13.jpg,AMNE19.jpg,MN,1,num_6,32,num_2,2.05000226118,,,2017_Apr_28_1437,59.9890519775,MAFE4ImagesEEG,001,200221,
AFNE01.JPG,AFNE01.JPG,AFNE01.JPG,AFNE01.JPG,AFNE01.JPG,AFNE01.JPG,,,,,,,,,,,,,,,,,4,9,49,5,,,,,,,AMSA14.jpg,AMNE04.jpg,AMSA05.jpg,AMNE02.jpg,AMSA05.jpg,MS,2,num_2,16,num_2,0.550091907731,,,2017_Apr_28_1437,59.9890519775,MAFE4ImagesEEG,001,200221,
AFNE01.JPG,AFNE01.JPG,AFNE01.JPG,AFNE01.JPG,AFNE01.JPG,AFNE01.JPG,,,,,,,,,,,,,,,,,5,0,50,2,,,,,,,AMSA10.jpg,AMNE06.jpg,AMNE03.jpg,AMSA12.jpg,AMNE03.jpg,MN,1,num_2,16,num_2,1.83341004339,,,2017_Apr_28_1437,59.9890519775,MAFE4ImagesEEG,001,200221,
AFNE01.JPG,AFNE01.JPG,AFNE01.JPG,AFNE01.JPG,AFNE01.JPG,AFNE01.JPG,,,,,,,,,,,,,,,,,5,1,51,4,,,,,,,AMNE18.jpg,AMSA06.jpg,AMNE19.jpg,AMSA02.jpg,AMSA06.jpg,MS,2,num_6,48,None,,,,2017_Apr_28_1437,59.9890519775,MAFE4ImagesEEG,001,200221,
AFNE01.JPG,AFNE01.JPG,AFNE01.JPG,AFNE01.JPG,AFNE01.JPG,AFNE01.JPG,,,,,,,,,,,,,,,,,5,2,52,7,,,,,,,AMNE06.jpg,AMSA18.jpg,AMNE11.jpg,AMSA06.jpg,AMNE11.jpg,MN,1,num_2,16,num_2,2.78300685843,,,2017_Apr_28_1437,59.9890519775,MAFE4ImagesEEG,001,200221,
AFNE01.JPG,AFNE01.JPG,AFNE01.JPG,AFNE01.JPG,AFNE01.JPG,AFNE01.JPG,,,,,,,,,,,,,,,,,5,3,53,0,,,,,,,AMNE02.jpg,AMSA07.jpg,AMSA03.jpg,AMNE19.jpg,AMNE02.jpg,MN,1,num_8,32,num_2,0.98351048294,,,2017_Apr_28_1437,59.9890519775,MAFE4ImagesEEG,001,200221,
AFNE01.JPG,AFNE01.JPG,AFNE01.JPG,AFNE01.JPG,AFNE01.JPG,AFNE01.JPG,,,,,,,,,,,,,,,,,5,4,54,8,,,,,,,AMNE16.jpg,AMSA13.jpg,AMNE14.jpg,AMSA11.jpg,AMSA11.jpg,MS,2,num_4,16,num_4,1.81653179054,,,2017_Apr_28_1437,59.9890519775,MAFE4ImagesEEG,001,200221,
AFNE01.JPG,AFNE01.JPG,AFNE01.JPG,AFNE01.JPG,AFNE01.JPG,AFNE01.JPG,,,,,,,,,,,,,,,,,5,5,55,9,,,,,,,AMSA05.jpg,AMNE12.jpg,AMSA18.jpg,AMNE13.jpg,AMNE13.jpg,MN,1,num_4,32,num_6,1.45011208218,,,2017_Apr_28_1437,59.9890519775,MAFE4ImagesEEG,001,200221,
AFNE01.JPG,AFNE01.JPG,AFNE01.JPG,AFNE01.JPG,AFNE01.JPG,AFNE01.JPG,,,,,,,,,,,,,,,,,5,6,56,6,,,,,,,AMSA18.jpg,AMNE03.jpg,AMNE15.jpg,AMSA08.jpg,AMNE15.jpg,MN,1,num_2,16,num_2,0.53349462233,,,2017_Apr_28_1437,59.9890519775,MAFE4ImagesEEG,001,200221,
AFNE01.JPG,AFNE01.JPG,AFNE01.JPG,AFNE01.JPG,AFNE01.JPG,AFNE01.JPG,,,,,,,,,,,,,,,,,5,7,57,1,,,,,,,AMSA03.jpg,AMSA10.jpg,AMNE18.jpg,AMNE12.jpg,AMNE12.jpg,MN,1,num_4,32,num_6,0.766770404298,,,2017_Apr_28_1437,59.9890519775,MAFE4ImagesEEG,001,200221,
AFNE01.JPG,AFNE01.JPG,AFNE01.JPG,AFNE01.JPG,AFNE01.JPG,AFNE01.JPG,,,,,,,,,,,,,,,,,5,8,58,5,,,,,,,AMSA16.jpg,AMNE14.jpg,AMSA01.jpg,AMNE13.jpg,AMSA16.jpg,MS,2,num_8,32,num_2,1.10007861315,,,2017_Apr_28_1437,59.9890519775,MAFE4ImagesEEG,001,200221,
AFNE01.JPG,AFNE01.JPG,AFNE01.JPG,AFNE01.JPG,AFNE01.JPG,AFNE01.JPG,,,,,,,,,,,,,,,,,5,9,59,3,,,,,,,AMNE06.jpg,AMSA14.jpg,AMNE02.jpg,AMSA19.jpg,AMNE02.jpg,MN,1,num_2,48,None,,,,2017_Apr_28_1437,59.9890519775,MAFE4ImagesEEG,001,200221,
,,,,,,,,,,,,,,,,,,,,,,,,,,,,,,,,,,,,,,,,,,,space,9.39948758727,2017_Apr_28_1437,59.9890519775,MAFE4ImagesEEG,001,200221,
AFNE01.JPG,AFNE01.JPG,AFNE01.JPG,AFNE01.JPG,AFNE01.JPG,AFNE01.JPG,,,,,,,,,,,,,,,,,,,,,0,0,0,6,,,AFSA18.jpg,AFNE20.jpg,AFNE01.jpg,AFSA11.jpg,AFSA11.jpg,FS,4,num_4,16,num_4,0.633169424953,,,2017_Apr_28_1437,59.9890519775,MAFE4ImagesEEG,001,200221,
AFNE01.JPG,AFNE01.JPG,AFNE01.JPG,AFNE01.JPG,AFNE01.JPG,AFNE01.JPG,,,,,,,,,,,,,,,,,,,,,0,1,1,8,,,AFSA07.jpg,AFNE19.jpg,AFSA08.jpg,AFNE12.jpg,AFNE19.jpg,FN,3,num_6,32,num_2,0.733457160066,,,2017_Apr_28_1437,59.9890519775,MAFE4ImagesEEG,001,200221,
AFNE01.JPG,AFNE01.JPG,AFNE01.JPG,AFNE01.JPG,AFNE01.JPG,AFNE01.JPG,,,,,,,,,,,,,,,,,,,,,0,2,2,1,,,AFNE13.jpg,AFSA20.jpg,AFNE14.jpg,AFSA13.jpg,AFNE13.jpg,FN,3,num_8,32,num_2,0.633477013675,,,2017_Apr_28_1437,59.9890519775,MAFE4ImagesEEG,001,200221,
AFNE01.JPG,AFNE01.JPG,AFNE01.JPG,AFNE01.JPG,AFNE01.JPG,AFNE01.JPG,,,,,,,,,,,,,,,,,,,,,0,3,3,0,,,AFNE02.jpg,AFSA08.jpg,AFSA15.jpg,AFNE05.jpg,AFNE02.jpg,FN,3,num_8,32,num_2,1.13342200697,,,2017_Apr_28_1437,59.9890519775,MAFE4ImagesEEG,001,200221,
AFNE01.JPG,AFNE01.JPG,AFNE01.JPG,AFNE01.JPG,AFNE01.JPG,AFNE01.JPG,,,,,,,,,,,,,,,,,,,,,0,4,4,3,,,AFNE11.jpg,AFSA07.jpg,AFNE09.jpg,AFSA03.jpg,AFSA03.jpg,FS,4,num_4,32,num_8,1.08344540501,,,2017_Apr_28_1437,59.9890519775,MAFE4ImagesEEG,001,200221,
AFNE01.JPG,AFNE01.JPG,AFNE01.JPG,AFNE01.JPG,AFNE01.JPG,AFNE01.JPG,,,,,,,,,,,,,,,,,,,,,0,5,5,7,,,AFSA09.jpg,AFNE08.jpg,AFNE05.jpg,AFSA10.jpg,AFSA09.jpg,FS,4,num_8,32,num_4,0.950135015184,,,2017_Apr_28_1437,59.9890519775,MAFE4ImagesEEG,001,200221,
AFNE01.JPG,AFNE01.JPG,AFNE01.JPG,AFNE01.JPG,AFNE01.JPG,AFNE01.JPG,,,,,,,,,,,,,,,,,,,,,0,6,6,9,,,AFSA02.jpg,AFNE20.jpg,AFSA01.jpg,AFNE15.jpg,AFSA01.jpg,FS,4,num_2,32,num_8,1.13345568464,,,2017_Apr_28_1437,59.9890519775,MAFE4ImagesEEG,001,200221,
AFNE01.JPG,AFNE01.JPG,AFNE01.JPG,AFNE01.JPG,AFNE01.JPG,AFNE01.JPG,,,,,,,,,,,,,,,,,,,,,0,7,7,2,,,AFSA18.jpg,AFNE14.jpg,AFNE09.jpg,AFSA07.jpg,AFNE09.jpg,FN,3,num_2,16,num_2,1.46674240392,,,2017_Apr_28_1437,59.9890519775,MAFE4ImagesEEG,001,200221,
AFNE01.JPG,AFNE01.JPG,AFNE01.JPG,AFNE01.JPG,AFNE01.JPG,AFNE01.JPG,,,,,,,,,,,,,,,,,,,,,0,8,8,5,,,AFSA06.jpg,AFNE14.jpg,AFSA08.jpg,AFNE07.jpg,AFNE14.jpg,FN,3,num_6,16,num_6,1.18343100371,,,2017_Apr_28_1437,59.9890519775,MAFE4ImagesEEG,001,200221,
AFNE01.JPG,AFNE01.JPG,AFNE01.JPG,AFNE01.JPG,AFNE01.JPG,AFNE01.JPG,,,,,,,,,,,,,,,,,,,,,0,9,9,4,,,AFNE12.jpg,AFSA17.jpg,AFSA09.jpg,AFNE10.jpg,AFNE10.jpg,FN,3,num_4,32,num_8,0.766820760444,,,2017_Apr_28_1437,59.9890519775,MAFE4ImagesEEG,001,200221,
AFNE01.JPG,AFNE01.JPG,AFNE01.JPG,AFNE01.JPG,AFNE01.JPG,AFNE01.JPG,,,,,,,,,,,,,,,,,,,,,1,0,10,6,,,AFSA05.jpg,AFNE15.jpg,AFSA20.jpg,AFNE05.jpg,AFNE15.jpg,FN,3,num_6,16,num_6,0.466784099932,,,2017_Apr_28_1437,59.9890519775,MAFE4ImagesEEG,001,200221,
AFNE01.JPG,AFNE01.JPG,AFNE01.JPG,AFNE01.JPG,AFNE01.JPG,AFNE01.JPG,,,,,,,,,,,,,,,,,,,,,1,1,11,7,,,AFNE04.jpg,AFSA19.jpg,AFNE03.jpg,AFSA14.jpg,AFSA19.jpg,FS,4,num_6,32,num_4,1.35011782357,,,2017_Apr_28_1437,59.9890519775,MAFE4ImagesEEG,001,200221,
AFNE01.JPG,AFNE01.JPG,AFNE01.JPG,AFNE01.JPG,AFNE01.JPG,AFNE01.JPG,,,,,,,,,,,,,,,,,,,,,1,2,12,5,,,AFNE19.jpg,AFNE11.jpg,AFSA08.jpg,AFSA13.jpg,AFSA13.jpg,FS,4,num_4,32,num_2,0.966773675871,,,2017_Apr_28_1437,59.9890519775,MAFE4ImagesEEG,001,200221,
AFNE01.JPG,AFNE01.JPG,AFNE01.JPG,AFNE01.JPG,AFNE01.JPG,AFNE01.JPG,,,,,,,,,,,,,,,,,,,,,1,3,13,0,,,AFNE03.jpg,AFSA12.jpg,AFSA13.jpg,AFNE06.jpg,AFNE03.jpg,FN,3,num_8,32,num_6,2.91659981932,,,2017_Apr_28_1437,59.9890519775,MAFE4ImagesEEG,001,200221,
AFNE01.JPG,AFNE01.JPG,AFNE01.JPG,AFNE01.JPG,AFNE01.JPG,AFNE01.JPG,,,,,,,,,,,,,,,,,,,,,1,4,14,9,,,AFSA11.jpg,AFNE01.jpg,AFNE12.jpg,AFSA12.jpg,AFNE01.jpg,FN,3,num_6,32,num_4,1.35006009054,,,2017_Apr_28_1437,59.9890519775,MAFE4ImagesEEG,001,200221,
AFNE01.JPG,AFNE01.JPG,AFNE01.JPG,AFNE01.JPG,AFNE01.JPG,AFNE01.JPG,,,,,,,,,,,,,,,,,,,,,1,5,15,3,,,AFNE10.jpg,AFSA19.jpg,AFNE19.jpg,AFSA03.jpg,AFSA03.jpg,FS,4,num_4,16,num_4,3.41655090661,,,2017_Apr_28_1437,59.9890519775,MAFE4ImagesEEG,001,200221,
AFNE01.JPG,AFNE01.JPG,AFNE01.JPG,AFNE01.JPG,AFNE01.JPG,AFNE01.JPG,,,,,,,,,,,,,,,,,,,,,1,6,16,8,,,AFNE09.jpg,AFNE18.jpg,AFSA01.jpg,AFSA10.jpg,AFNE09.jpg,FN,3,num_8,16,num_8,2.31668077374,,,2017_Apr_28_1437,59.9890519775,MAFE4ImagesEEG,001,200221,
AFNE01.JPG,AFNE01.JPG,AFNE01.JPG,AFNE01.JPG,AFNE01.JPG,AFNE01.JPG,,,,,,,,,,,,,,,,,,,,,1,7,17,2,,,AFNE16.jpg,AFSA19.jpg,AFSA01.jpg,AFNE08.jpg,AFNE08.jpg,FN,3,num_4,16,num_4,2.14999619918,,,2017_Apr_28_1437,59.9890519775,MAFE4ImagesEEG,001,200221,
AFNE01.JPG,AFNE01.JPG,AFNE01.JPG,AFNE01.JPG,AFNE01.JPG,AFNE01.JPG,,,,,,,,,,,,,,,,,,,,,1,8,18,4,,,AFNE04.jpg,AFSA17.jpg,AFSA02.jpg,AFNE20.jpg,AFNE04.jpg,FN,3,num_8,16,num_8,1.08344989526,,,2017_Apr_28_1437,59.9890519775,MAFE4ImagesEEG,001,200221,
AFNE01.JPG,AFNE01.JPG,AFNE01.JPG,AFNE01.JPG,AFNE01.JPG,AFNE01.JPG,,,,,,,,,,,,,,,,,,,,,1,9,19,1,,,AFSA07.jpg,AFSA01.jpg,AFNE15.jpg,AFNE08.jpg,AFNE15.jpg,FN,3,num_2,16,num_2,1.01677786151,,,2017_Apr_28_1437,59.9890519775,MAFE4ImagesEEG,001,200221,
AFNE01.JPG,AFNE01.JPG,AFNE01.JPG,AFNE01.JPG,AFNE01.JPG,AFNE01.JPG,,,,,,,,,,,,,,,,,,,,,2,0,20,5,,,AFNE06.jpg,AFSA11.jpg,AFSA02.jpg,AFNE05.jpg,AFSA11.jpg,FS,4,num_6,16,num_6,1.11675383814,,,2017_Apr_28_1437,59.9890519775,MAFE4ImagesEEG,001,200221,
AFNE01.JPG,AFNE01.JPG,AFNE01.JPG,AFNE01.JPG,AFNE01.JPG,AFNE01.JPG,,,,,,,,,,,,,,,,,,,,,2,1,21,6,,,AFSA04.jpg,AFNE11.jpg,AFSA19.jpg,AFNE03.jpg,AFNE03.jpg,FN,3,num_4,32,num_2,0.816835851176,,,2017_Apr_28_1437,59.9890519775,MAFE4ImagesEEG,001,200221,
AFNE01.JPG,AFNE01.JPG,AFNE01.JPG,AFNE01.JPG,AFNE01.JPG,AFNE01.JPG,,,,,,,,,,,,,,,,,,,,,2,2,22,4,,,AFNE11.jpg,AFNE01.jpg,AFSA06.jpg,AFSA15.jpg,AFSA15.jpg,FS,4,num_4,16,num_4,0.983293663361,,,2017_Apr_28_1437,59.9890519775,MAFE4ImagesEEG,001,200221,
AFNE01.JPG,AFNE01.JPG,AFNE01.JPG,AFNE01.JPG,AFNE01.JPG,AFNE01.JPG,,,,,,,,,,,,,,,,,,,,,2,3,23,3,,,AFNE19.jpg,AFNE14.jpg,AFSA08.jpg,AFSA03.jpg,AFSA08.jpg,FS,4,num_2,48,None,,,,2017_Apr_28_1437,59.9890519775,MAFE4ImagesEEG,001,200221,
AFNE01.JPG,AFNE01.JPG,AFNE01.JPG,AFNE01.JPG,AFNE01.JPG,AFNE01.JPG,,,,,,,,,,,,,,,,,,,,,2,4,24,8,,,AFSA15.jpg,AFNE07.jpg,AFNE01.jpg,AFSA16.jpg,AFNE07.jpg,FN,3,num_6,16,num_6,0.533487245324,,,2017_Apr_28_1437,59.9890519775,MAFE4ImagesEEG,001,200221,
AFNE01.JPG,AFNE01.JPG,AFNE01.JPG,AFNE01.JPG,AFNE01.JPG,AFNE01.JPG,,,,,,,,,,,,,,,,,,,,,2,5,25,2,,,AFNE14.jpg,AFSA17.jpg,AFSA08.jpg,AFNE12.jpg,AFNE12.jpg,FN,3,num_4,32,num_8,1.31659962679,,,2017_Apr_28_1437,59.9890519775,MAFE4ImagesEEG,001,200221,
AFNE01.JPG,AFNE01.JPG,AFNE01.JPG,AFNE01.JPG,AFNE01.JPG,AFNE01.JPG,,,,,,,,,,,,,,,,,,,,,2,6,26,1,,,AFSA18.jpg,AFSA01.jpg,AFNE13.jpg,AFNE18.jpg,AFSA01.jpg,FS,4,num_6,16,num_6,0.833453984698,,,2017_Apr_28_1437,59.9890519775,MAFE4ImagesEEG,001,200221,
AFNE01.JPG,AFNE01.JPG,AFNE01.JPG,AFNE01.JPG,AFNE01.JPG,AFNE01.JPG,,,,,,,,,,,,,,,,,,,,,2,7,27,9,,,AFNE15.jpg,AFSA04.jpg,AFSA17.jpg,AFNE18.jpg,AFSA17.jpg,FS,4,num_2,16,num_2,0.483489153674,,,2017_Apr_28_1437,59.9890519775,MAFE4ImagesEEG,001,200221,
AFNE01.JPG,AFNE01.JPG,AFNE01.JPG,AFNE01.JPG,AFNE01.JPG,AFNE01.JPG,,,,,,,,,,,,,,,,,,,,,2,8,28,7,,,AFSA06.jpg,AFSA12.jpg,AFNE11.jpg,AFNE13.jpg,AFSA06.jpg,FS,4,num_8,32,num_2,0.900135640521,,,2017_Apr_28_1437,59.9890519775,MAFE4ImagesEEG,001,200221,
AFNE01.JPG,AFNE01.JPG,AFNE01.JPG,AFNE01.JPG,AFNE01.JPG,AFNE01.JPG,,,,,,,,,,,,,,,,,,,,,2,9,29,0,,,AFNE06.jpg,AFNE17.jpg,AFSA07.jpg,AFSA18.jpg,AFNE06.jpg,FN,3,num_8,32,num_2,1.78337282175,,,2017_Apr_28_1437,59.9890519775,MAFE4ImagesEEG,001,200221,
AFNE01.JPG,AFNE01.JPG,AFNE01.JPG,AFNE01.JPG,AFNE01.JPG,AFNE01.JPG,,,,,,,,,,,,,,,,,,,,,3,0,30,4,,,AFNE18.jpg,AFSA06.jpg,AFNE10.jpg,AFSA17.jpg,AFSA06.jpg,FS,4,num_6,32,num_8,0.650205802289,,,2017_Apr_28_1437,59.9890519775,MAFE4ImagesEEG,001,200221,
AFNE01.JPG,AFNE01.JPG,AFNE01.JPG,AFNE01.JPG,AFNE01.JPG,AFNE01.JPG,,,,,,,,,,,,,,,,,,,,,3,1,31,8,,,AFNE08.jpg,AFNE14.jpg,AFSA08.jpg,AFSA16.jpg,AFNE08.jpg,FN,3,num_8,16,num_8,0.750108008855,,,2017_Apr_28_1437,59.9890519775,MAFE4ImagesEEG,001,200221,
AFNE01.JPG,AFNE01.JPG,AFNE01.JPG,AFNE01.JPG,AFNE01.JPG,AFNE01.JPG,,,,,,,,,,,,,,,,,,,,,3,2,32,1,,,AFSA03.jpg,AFSA16.jpg,AFNE20.jpg,AFNE16.jpg,AFSA03.jpg,FS,4,num_8,48,None,,,,2017_Apr_28_1437,59.9890519775,MAFE4ImagesEEG,001,200221,
AFNE01.JPG,AFNE01.JPG,AFNE01.JPG,AFNE01.JPG,AFNE01.JPG,AFNE01.JPG,,,,,,,,,,,,,,,,,,,,,3,3,33,6,,,AFNE06.jpg,AFSA02.jpg,AFSA12.jpg,AFNE07.jpg,AFNE06.jpg,FN,3,num_8,32,num_4,0.883466830244,,,2017_Apr_28_1437,59.9890519775,MAFE4ImagesEEG,001,200221,
AFNE01.JPG,AFNE01.JPG,AFNE01.JPG,AFNE01.JPG,AFNE01.JPG,AFNE01.JPG,,,,,,,,,,,,,,,,,,,,,3,4,34,9,,,AFNE17.jpg,AFSA11.jpg,AFNE18.jpg,AFSA03.jpg,AFSA11.jpg,FS,4,num_6,16,num_6,1.03343865334,,,2017_Apr_28_1437,59.9890519775,MAFE4ImagesEEG,001,200221,
AFNE01.JPG,AFNE01.JPG,AFNE01.JPG,AFNE01.JPG,AFNE01.JPG,AFNE01.JPG,,,,,,,,,,,,,,,,,,,,,3,5,35,5,,,AFNE20.jpg,AFSA01.jpg,AFSA12.jpg,AFNE11.jpg,AFSA12.jpg,FS,4,num_2,16,num_2,0.966754110879,,,2017_Apr_28_1437,59.9890519775,MAFE4ImagesEEG,001,200221,
AFNE01.JPG,AFNE01.JPG,AFNE01.JPG,AFNE01.JPG,AFNE01.JPG,AFNE01.JPG,,,,,,,,,,,,,,,,,,,,,3,6,36,2,,,AFNE02.jpg,AFSA19.jpg,AFSA02.jpg,AFNE05.jpg,AFSA19.jpg,FS,4,num_6,16,num_6,1.30007290398,,,2017_Apr_28_1437,59.9890519775,MAFE4ImagesEEG,001,200221,
AFNE01.JPG,AFNE01.JPG,AFNE01.JPG,AFNE01.JPG,AFNE01.JPG,AFNE01.JPG,,,,,,,,,,,,,,,,,,,,,3,7,37,7,,,AFNE08.jpg,AFSA16.jpg,AFSA20.jpg,AFNE07.jpg,AFSA20.jpg,FS,4,num_2,16,num_2,4.01652800583,,,2017_Apr_28_1437,59.9890519775,MAFE4ImagesEEG,001,200221,
AFNE01.JPG,AFNE01.JPG,AFNE01.JPG,AFNE01.JPG,AFNE01.JPG,AFNE01.JPG,,,,,,,,,,,,,,,,,,,,,3,8,38,3,,,AFSA02.jpg,AFNE06.jpg,AFNE09.jpg,AFSA15.jpg,AFSA02.jpg,FS,4,num_8,32,num_6,1.45006397145,,,2017_Apr_28_1437,59.9890519775,MAFE4ImagesEEG,001,200221,
AFNE01.JPG,AFNE01.JPG,AFNE01.JPG,AFNE01.JPG,AFNE01.JPG,AFNE01.JPG,,,,,,,,,,,,,,,,,,,,,3,9,39,0,,,AFNE12.jpg,AFSA05.jpg,AFSA03.jpg,AFNE15.jpg,AFNE12.jpg,FN,3,num_8,16,num_8,3.76659912965,,,2017_Apr_28_1437,59.9890519775,MAFE4ImagesEEG,001,200221,
AFNE01.JPG,AFNE01.JPG,AFNE01.JPG,AFNE01.JPG,AFNE01.JPG,AFNE01.JPG,,,,,,,,,,,,,,,,,,,,,4,0,40,8,,,AFSA13.jpg,AFSA02.jpg,AFNE11.jpg,AFNE19.jpg,AFNE11.jpg,FN,3,num_2,32,num_6,1.71669180726,,,2017_Apr_28_1437,59.9890519775,MAFE4ImagesEEG,001,200221,
AFNE01.JPG,AFNE01.JPG,AFNE01.JPG,AFNE01.JPG,AFNE01.JPG,AFNE01.JPG,,,,,,,,,,,,,,,,,,,,,4,1,41,5,,,AFSA13.jpg,AFSA08.jpg,AFNE01.jpg,AFNE04.jpg,AFSA13.jpg,FS,4,num_8,16,num_8,2.69998771569,,,2017_Apr_28_1437,59.9890519775,MAFE4ImagesEEG,001,200221,
AFNE01.JPG,AFNE01.JPG,AFNE01.JPG,AFNE01.JPG,AFNE01.JPG,AFNE01.JPG,,,,,,,,,,,,,,,,,,,,,4,2,42,4,,,AFNE01.jpg,AFSA18.jpg,AFSA03.jpg,AFNE07.jpg,AFSA03.jpg,FS,4,num_2,32,num_6,2.00031304138,,,2017_Apr_28_1437,59.9890519775,MAFE4ImagesEEG,001,200221,
