IPosition2,IPosition3,IPosition1,IPosition6,IPosition4,IPosition5,TrialsM1.thisRepN,TrialsM1.thisTrialN,TrialsM1.thisN,TrialsM1.thisIndex,TrialsF1.thisRepN,TrialsF1.thisTrialN,TrialsF1.thisN,TrialsF1.thisIndex,TrialsM2.thisRepN,TrialsM2.thisTrialN,TrialsM2.thisN,TrialsM2.thisIndex,TrialsF2.thisRepN,TrialsF2.thisTrialN,TrialsF2.thisN,TrialsF2.thisIndex,TrialsM3.thisRepN,TrialsM3.thisTrialN,TrialsM3.thisN,TrialsM3.thisIndex,TrialsF3.thisRepN,TrialsF3.thisTrialN,TrialsF3.thisN,TrialsF3.thisIndex,InstrKey_resp.keys,InstrKey_resp.rt,Image0 _Position,Image1 _Position,Image2 _Position,Image3 _Position,Center_image,condition,code,correct_answer,accuracy,Key_Resp.keys,Key_Resp.rt,BreakKey_resp.keys,BreakKey_resp.rt,date,frameRate,expName,session,participant,
,,,,,,,,,,,,,,,,,,,,,,,,,,,,,,space,87.1771175757,,,,,,,,,,,,,,2017_May_02_1935,60.0038299081,MAFE4ImagesEEG,001,200263,
AMSA25.JPG,AMNE24.JPG,AMSA24.JPG,AMNE26.JPG,AMSA21.JPG,AMNE25.JPG,0,0,0,3,,,,,,,,,,,,,,,,,,,,,,,AMSA09.jpg,AMSA15.jpg,AMNE19.jpg,AMNE07.jpg,AMNE07.jpg,MN,1,num_4,16,num_4,2.64999186923,,,2017_May_02_1935,60.0038299081,MAFE4ImagesEEG,001,200263,
AFSA25.JPG,AFNE24.JPG,AFSA24.JPG,AFNE21.JPG,AFSA21.JPG,AFNE25.JPG,0,1,1,2,,,,,,,,,,,,,,,,,,,,,,,AMNE16.jpg,AMSA08.jpg,AMNE02.jpg,AMSA10.jpg,AMNE16.jpg,MN,1,num_8,32,num_6,1.19982590294,,,2017_May_02_1935,60.0038299081,MAFE4ImagesEEG,001,200263,
AFNE22.JPG,AFSA24.JPG,AFSA22.JPG,AFNE25.JPG,AFNE24.JPG,AFSA25.JPG,0,2,2,6,,,,,,,,,,,,,,,,,,,,,,,AMNE04.jpg,AMSA18.jpg,AMSA04.jpg,AMNE16.jpg,AMSA04.jpg,MS,2,num_2,32,num_6,1.16675834451,,,2017_May_02_1935,60.0038299081,MAFE4ImagesEEG,001,200263,
AMSA21.JPG,AMNE22.JPG,AMNE21.JPG,AMSA23.JPG,AMSA22.JPG,AMNE23.JPG,0,3,3,1,,,,,,,,,,,,,,,,,,,,,,,AMNE09.jpg,AMNE13.jpg,AMSA11.jpg,AMSA18.jpg,AMNE09.jpg,MN,1,num_8,16,num_8,0.866803472629,,,2017_May_02_1935,60.0038299081,MAFE4ImagesEEG,001,200263,
AMNE23.JPG,AMNE24.JPG,AMNE22.JPG,AMSA24.JPG,AMSA22.JPG,AMSA23.JPG,0,4,4,9,,,,,,,,,,,,,,,,,,,,,,,AMNE13.jpg,AMSA07.jpg,AMNE05.jpg,AMSA18.jpg,AMNE05.jpg,MN,1,num_2,32,num_8,0.816747647943,,,2017_May_02_1935,60.0038299081,MAFE4ImagesEEG,001,200263,
AFSA21.JPG,AFNE23.JPG,AFNE21.JPG,AFSA25.JPG,AFNE25.JPG,AFSA23.JPG,0,5,5,4,,,,,,,,,,,,,,,,,,,,,,,AMSA11.jpg,AMSA17.jpg,AMNE02.jpg,AMNE13.jpg,AMSA11.jpg,MS,2,num_8,32,num_2,2.10006161407,,,2017_May_02_1935,60.0038299081,MAFE4ImagesEEG,001,200263,
AMSA21.JPG,AMNE23.JPG,AMNE21.JPG,AMSA25.JPG,AMNE25.JPG,AMSA23.JPG,0,6,6,5,,,,,,,,,,,,,,,,,,,,,,,AMSA02.jpg,AMNE13.jpg,AMSA17.jpg,AMNE10.jpg,AMSA02.jpg,MS,2,num_8,16,num_8,0.866756323958,,,2017_May_02_1935,60.0038299081,MAFE4ImagesEEG,001,200263,
AMNE22.JPG,AMSA24.JPG,AMSA22.JPG,AMNE25.JPG,AMNE24.JPG,AMSA25.JPG,0,7,7,7,,,,,,,,,,,,,,,,,,,,,,,AMSA20.jpg,AMNE05.jpg,AMNE01.jpg,AMSA10.jpg,AMSA20.jpg,MS,2,num_8,32,num_6,0.616767790401,,,2017_May_02_1935,60.0038299081,MAFE4ImagesEEG,001,200263,
AFNE23.JPG,AFNE24.JPG,AFNE22.JPG,AFSA24.JPG,AFSA22.JPG,AFSA23.JPG,0,8,8,8,,,,,,,,,,,,,,,,,,,,,,,AMNE03.jpg,AMSA19.jpg,AMNE13.jpg,AMSA03.jpg,AMSA19.jpg,MS,2,num_6,32,num_2,0.816753742052,,,2017_May_02_1935,60.0038299081,MAFE4ImagesEEG,001,200263,
AFSA21.JPG,AFNE22.JPG,AFNE21.JPG,AFSA23.JPG,AFSA22.JPG,AFNE23.JPG,0,9,9,0,,,,,,,,,,,,,,,,,,,,,,,AMSA14.jpg,AMNE06.jpg,AMNE19.jpg,AMSA16.jpg,AMNE19.jpg,MN,1,num_2,32,num_6,1.68340229755,,,2017_May_02_1935,60.0038299081,MAFE4ImagesEEG,001,200263,
AMSA25.JPG,AMNE24.JPG,AMSA24.JPG,AMNE26.JPG,AMSA21.JPG,AMNE25.JPG,,,,,0,0,0,3,,,,,,,,,,,,,,,,,,,AFSA07.jpg,AFSA06.jpg,AFNE19.jpg,AFNE06.jpg,AFNE06.jpg,FN,3,num_4,32,num_8,0.950143995928,,,2017_May_02_1935,60.0038299081,MAFE4ImagesEEG,001,200263,
AMNE22.JPG,AMSA24.JPG,AMSA22.JPG,AMNE25.JPG,AMNE24.JPG,AMSA25.JPG,,,,,0,1,1,7,,,,,,,,,,,,,,,,,,,AFSA06.jpg,AFNE02.jpg,AFNE04.jpg,AFSA12.jpg,AFSA12.jpg,FS,4,num_4,16,num_4,1.41672410583,,,2017_May_02_1935,60.0038299081,MAFE4ImagesEEG,001,200263,
AMSA21.JPG,AMNE23.JPG,AMNE21.JPG,AMSA25.JPG,AMNE25.JPG,AMSA23.JPG,,,,,0,2,2,5,,,,,,,,,,,,,,,,,,,AFNE01.jpg,AFSA09.jpg,AFSA16.jpg,AFNE14.jpg,AFSA16.jpg,FS,4,num_2,32,num_6,0.850151020102,,,2017_May_02_1935,60.0038299081,MAFE4ImagesEEG,001,200263,
AFNE23.JPG,AFNE24.JPG,AFNE22.JPG,AFSA24.JPG,AFSA22.JPG,AFSA23.JPG,,,,,0,3,3,8,,,,,,,,,,,,,,,,,,,AFSA03.jpg,AFNE12.jpg,AFNE07.jpg,AFSA20.jpg,AFSA20.jpg,FS,4,num_4,32,num_6,1.53337659035,,,2017_May_02_1935,60.0038299081,MAFE4ImagesEEG,001,200263,
AFNE22.JPG,AFSA24.JPG,AFSA22.JPG,AFNE25.JPG,AFNE24.JPG,AFSA25.JPG,,,,,0,4,4,6,,,,,,,,,,,,,,,,,,,AFSA14.jpg,AFNE16.jpg,AFSA01.jpg,AFNE09.jpg,AFSA01.jpg,FS,4,num_2,16,num_2,1.55020031775,,,2017_May_02_1935,60.0038299081,MAFE4ImagesEEG,001,200263,
AFSA25.JPG,AFNE24.JPG,AFSA24.JPG,AFNE21.JPG,AFSA21.JPG,AFNE25.JPG,,,,,0,5,5,2,,,,,,,,,,,,,,,,,,,AFSA06.jpg,AFNE19.jpg,AFSA10.jpg,AFNE11.jpg,AFSA06.jpg,FS,4,num_8,32,num_4,0.916685777251,,,2017_May_02_1935,60.0038299081,MAFE4ImagesEEG,001,200263,
AFSA21.JPG,AFNE22.JPG,AFNE21.JPG,AFSA23.JPG,AFSA22.JPG,AFNE23.JPG,,,,,0,6,6,0,,,,,,,,,,,,,,,,,,,AFSA08.jpg,AFNE17.jpg,AFNE12.jpg,AFSA06.jpg,AFSA08.jpg,FS,4,num_8,16,num_8,1.40038661892,,,2017_May_02_1935,60.0038299081,MAFE4ImagesEEG,001,200263,
AMSA21.JPG,AMNE22.JPG,AMNE21.JPG,AMSA23.JPG,AMSA22.JPG,AMNE23.JPG,,,,,0,7,7,1,,,,,,,,,,,,,,,,,,,AFNE08.jpg,AFSA05.jpg,AFNE09.jpg,AFSA16.jpg,AFSA05.jpg,FS,4,num_6,16,num_6,0.700167970965,,,2017_May_02_1935,60.0038299081,MAFE4ImagesEEG,001,200263,
AFSA21.JPG,AFNE23.JPG,AFNE21.JPG,AFSA25.JPG,AFNE25.JPG,AFSA23.JPG,,,,,0,8,8,4,,,,,,,,,,,,,,,,,,,AFSA09.jpg,AFSA06.jpg,AFNE18.jpg,AFNE12.jpg,AFSA09.jpg,FS,4,num_8,16,num_8,1.36668977048,,,2017_May_02_1935,60.0038299081,MAFE4ImagesEEG,001,200263,
AMNE23.JPG,AMNE24.JPG,AMNE22.JPG,AMSA24.JPG,AMSA22.JPG,AMSA23.JPG,,,,,0,9,9,9,,,,,,,,,,,,,,,,,,,AFNE14.jpg,AFSA17.jpg,AFSA06.jpg,AFNE02.jpg,AFSA06.jpg,FS,4,num_2,16,num_2,1.51670168596,,,2017_May_02_1935,60.0038299081,MAFE4ImagesEEG,001,200263,
AFNE23.JPG,AFNE24.JPG,AFNE22.JPG,AFSA24.JPG,AFSA22.JPG,AFSA23.JPG,,,,,,,,,0,0,0,8,,,,,,,,,,,,,,,AMNE19.jpg,AMNE06.jpg,AMSA04.jpg,AMSA14.jpg,AMNE19.jpg,MN,1,num_8,16,num_8,1.13342617662,,,2017_May_02_1935,60.0038299081,MAFE4ImagesEEG,001,200263,
AFSA21.JPG,AFNE22.JPG,AFNE21.JPG,AFSA23.JPG,AFSA22.JPG,AFNE23.JPG,,,,,,,,,0,1,1,0,,,,,,,,,,,,,,,AMNE07.jpg,AMNE02.jpg,AMSA17.jpg,AMSA01.jpg,AMNE07.jpg,MN,1,num_8,32,num_6,0.966797089903,,,2017_May_02_1935,60.0038299081,MAFE4ImagesEEG,001,200263,
AMNE22.JPG,AMSA24.JPG,AMSA22.JPG,AMNE25.JPG,AMNE24.JPG,AMSA25.JPG,,,,,,,,,0,2,2,7,,,,,,,,,,,,,,,AMSA18.jpg,AMNE11.jpg,AMSA17.jpg,AMNE15.jpg,AMSA17.jpg,MS,2,num_2,16,num_2,2.29971880815,,,2017_May_02_1935,60.0038299081,MAFE4ImagesEEG,001,200263,
AMSA21.JPG,AMNE22.JPG,AMNE21.JPG,AMSA23.JPG,AMSA22.JPG,AMNE23.JPG,,,,,,,,,0,3,3,1,,,,,,,,,,,,,,,AMNE19.jpg,AMSA09.jpg,AMSA14.jpg,AMNE06.jpg,AMSA09.jpg,MS,2,num_6,32,num_8,3.79987709271,,,2017_May_02_1935,60.0038299081,MAFE4ImagesEEG,001,200263,
AMSA25.JPG,AMNE24.JPG,AMSA24.JPG,AMNE26.JPG,AMSA21.JPG,AMNE25.JPG,,,,,,,,,0,4,4,3,,,,,,,,,,,,,,,AMSA09.jpg,AMNE02.jpg,AMNE10.jpg,AMSA07.jpg,AMNE02.jpg,MN,1,num_6,32,num_8,1.05040093977,,,2017_May_02_1935,60.0038299081,MAFE4ImagesEEG,001,200263,
AFNE22.JPG,AFSA24.JPG,AFSA22.JPG,AFNE25.JPG,AFNE24.JPG,AFSA25.JPG,,,,,,,,,0,5,5,6,,,,,,,,,,,,,,,AMSA12.jpg,AMSA01.jpg,AMNE10.jpg,AMNE05.jpg,AMSA12.jpg,MS,2,num_8,32,num_2,3.03327956656,,,2017_May_02_1935,60.0038299081,MAFE4ImagesEEG,001,200263,
AMNE23.JPG,AMNE24.JPG,AMNE22.JPG,AMSA24.JPG,AMSA22.JPG,AMSA23.JPG,,,,,,,,,0,6,6,9,,,,,,,,,,,,,,,AMNE14.jpg,AMNE09.jpg,AMSA13.jpg,AMSA04.jpg,AMSA04.jpg,MS,2,num_4,16,num_4,0.616810128093,,,2017_May_02_1935,60.0038299081,MAFE4ImagesEEG,001,200263,
AFSA21.JPG,AFNE23.JPG,AFNE21.JPG,AFSA25.JPG,AFNE25.JPG,AFSA23.JPG,,,,,,,,,0,7,7,4,,,,,,,,,,,,,,,AMNE05.jpg,AMSA08.jpg,AMSA18.jpg,AMNE14.jpg,AMSA18.jpg,MS,2,num_2,32,num_6,1.05012029316,,,2017_May_02_1935,60.0038299081,MAFE4ImagesEEG,001,200263,
AFSA25.JPG,AFNE24.JPG,AFSA24.JPG,AFNE21.JPG,AFSA21.JPG,AFNE25.JPG,,,,,,,,,0,8,8,2,,,,,,,,,,,,,,,AMSA20.jpg,AMSA18.jpg,AMNE16.jpg,AMNE03.jpg,AMSA18.jpg,MS,2,num_6,16,num_6,0.616849258076,,,2017_May_02_1935,60.0038299081,MAFE4ImagesEEG,001,200263,
AMSA21.JPG,AMNE23.JPG,AMNE21.JPG,AMSA25.JPG,AMNE25.JPG,AMSA23.JPG,,,,,,,,,0,9,9,5,,,,,,,,,,,,,,,AMNE13.jpg,AMNE01.jpg,AMSA08.jpg,AMSA06.jpg,AMSA06.jpg,MS,2,num_4,32,num_2,1.60010731919,,,2017_May_02_1935,60.0038299081,MAFE4ImagesEEG,001,200263,
AFNE23.JPG,AFNE24.JPG,AFNE22.JPG,AFSA24.JPG,AFSA22.JPG,AFSA23.JPG,,,,,,,,,,,,,0,0,0,8,,,,,,,,,,,AFSA09.jpg,AFNE14.jpg,AFNE11.jpg,AFSA04.jpg,AFSA09.jpg,FS,4,num_8,32,num_4,1.04995767842,,,2017_May_02_1935,60.0038299081,MAFE4ImagesEEG,001,200263,
AMSA25.JPG,AMNE24.JPG,AMSA24.JPG,AMNE26.JPG,AMSA21.JPG,AMNE25.JPG,,,,,,,,,,,,,0,1,1,3,,,,,,,,,,,AFSA13.jpg,AFSA12.jpg,AFNE20.jpg,AFNE12.jpg,AFSA13.jpg,FS,4,num_8,16,num_8,1.58342824527,,,2017_May_02_1935,60.0038299081,MAFE4ImagesEEG,001,200263,
AMSA21.JPG,AMNE22.JPG,AMNE21.JPG,AMSA23.JPG,AMSA22.JPG,AMNE23.JPG,,,,,,,,,,,,,0,2,2,1,,,,,,,,,,,AFSA10.jpg,AFNE02.jpg,AFNE01.jpg,AFSA20.jpg,AFNE01.jpg,FN,3,num_2,32,num_8,2.06667748606,,,2017_May_02_1935,60.0038299081,MAFE4ImagesEEG,001,200263,
AFSA25.JPG,AFNE24.JPG,AFSA24.JPG,AFNE21.JPG,AFSA21.JPG,AFNE25.JPG,,,,,,,,,,,,,0,3,3,2,,,,,,,,,,,AFNE07.jpg,AFSA10.jpg,AFNE06.jpg,AFSA12.jpg,AFNE06.jpg,FN,3,num_2,32,num_6,0.733443047618,,,2017_May_02_1935,60.0038299081,MAFE4ImagesEEG,001,200263,
AFNE22.JPG,AFSA24.JPG,AFSA22.JPG,AFNE25.JPG,AFNE24.JPG,AFSA25.JPG,,,,,,,,,,,,,0,4,4,6,,,,,,,,,,,AFNE08.jpg,AFSA04.jpg,AFNE10.jpg,AFSA15.jpg,AFNE08.jpg,FN,3,num_8,32,num_6,1.01678138948,,,2017_May_02_1935,60.0038299081,MAFE4ImagesEEG,001,200263,
AFSA21.JPG,AFNE22.JPG,AFNE21.JPG,AFSA23.JPG,AFSA22.JPG,AFNE23.JPG,,,,,,,,,,,,,0,5,5,0,,,,,,,,,,,AFNE06.jpg,AFSA10.jpg,AFSA03.jpg,AFNE15.jpg,AFSA03.jpg,FS,4,num_2,16,num_2,2.00005773315,,,2017_May_02_1935,60.0038299081,MAFE4ImagesEEG,001,200263,
AFSA21.JPG,AFNE23.JPG,AFNE21.JPG,AFSA25.JPG,AFNE25.JPG,AFSA23.JPG,,,,,,,,,,,,,0,6,6,4,,,,,,,,,,,AFSA17.jpg,AFNE18.jpg,AFSA02.jpg,AFNE06.jpg,AFNE18.jpg,FN,3,num_6,16,num_6,1.98335973546,,,2017_May_02_1935,60.0038299081,MAFE4ImagesEEG,001,200263,
AMNE22.JPG,AMSA24.JPG,AMSA22.JPG,AMNE25.JPG,AMNE24.JPG,AMSA25.JPG,,,,,,,,,,,,,0,7,7,7,,,,,,,,,,,AFNE20.jpg,AFSA13.jpg,AFNE07.jpg,AFSA19.jpg,AFSA19.jpg,FS,4,num_4,32,num_8,2.98328115442,,,2017_May_02_1935,60.0038299081,MAFE4ImagesEEG,001,200263,
AMNE23.JPG,AMNE24.JPG,AMNE22.JPG,AMSA24.JPG,AMSA22.JPG,AMSA23.JPG,,,,,,,,,,,,,0,8,8,9,,,,,,,,,,,AFSA03.jpg,AFSA16.jpg,AFNE04.jpg,AFNE02.jpg,AFSA03.jpg,FS,4,num_8,32,num_6,1.28347273194,,,2017_May_02_1935,60.0038299081,MAFE4ImagesEEG,001,200263,
AMSA21.JPG,AMNE23.JPG,AMNE21.JPG,AMSA25.JPG,AMNE25.JPG,AMSA23.JPG,,,,,,,,,,,,,0,9,9,5,,,,,,,,,,,AFNE19.jpg,AFSA19.jpg,AFNE03.jpg,AFSA01.jpg,AFSA19.jpg,FS,4,num_6,16,num_6,1.8833738158,,,2017_May_02_1935,60.0038299081,MAFE4ImagesEEG,001,200263,
AMSA25.JPG,AMNE24.JPG,AMSA24.JPG,AMNE26.JPG,AMSA21.JPG,AMNE25.JPG,,,,,,,,,,,,,,,,,0,0,0,3,,,,,,,AMNE05.jpg,AMSA11.jpg,AMSA05.jpg,AMNE10.jpg,AMSA11.jpg,MS,2,num_6,16,num_6,0.683490179945,,,2017_May_02_1935,60.0038299081,MAFE4ImagesEEG,001,200263,
AMNE23.JPG,AMNE24.JPG,AMNE22.JPG,AMSA24.JPG,AMSA22.JPG,AMSA23.JPG,,,,,,,,,,,,,,,,,0,1,1,9,,,,,,,AMNE01.jpg,AMSA09.jpg,AMSA08.jpg,AMNE10.jpg,AMSA08.jpg,MS,2,num_2,16,num_2,1.21660183999,,,2017_May_02_1935,60.0038299081,MAFE4ImagesEEG,001,200263,
AFSA25.JPG,AFNE24.JPG,AFSA24.JPG,AFNE21.JPG,AFSA21.JPG,AFNE25.JPG,,,,,,,,,,,,,,,,,0,2,2,2,,,,,,,AMSA12.jpg,AMNE10.jpg,AMNE13.jpg,AMSA08.jpg,AMSA08.jpg,MS,2,num_4,16,num_4,2.06667171302,,,2017_May_02_1935,60.0038299081,MAFE4ImagesEEG,001,200263,
AFSA21.JPG,AFNE22.JPG,AFNE21.JPG,AFSA23.JPG,AFSA22.JPG,AFNE23.JPG,,,,,,,,,,,,,,,,,0,3,3,0,,,,,,,AMSA19.jpg,AMSA07.jpg,AMNE01.jpg,AMNE16.jpg,AMSA19.jpg,MS,2,num_8,16,num_8,2.19999878132,,,2017_May_02_1935,60.0038299081,MAFE4ImagesEEG,001,200263,
AFSA21.JPG,AFNE23.JPG,AFNE21.JPG,AFSA25.JPG,AFNE25.JPG,AFSA23.JPG,,,,,,,,,,,,,,,,,0,4,4,4,,,,,,,AMNE04.jpg,AMSA02.jpg,AMNE05.jpg,AMSA04.jpg,AMSA04.jpg,MS,2,num_4,32,num_6,1.66668409342,,,2017_May_02_1935,60.0038299081,MAFE4ImagesEEG,001,200263,
AFNE22.JPG,AFSA24.JPG,AFSA22.JPG,AFNE25.JPG,AFNE24.JPG,AFSA25.JPG,,,,,,,,,,,,,,,,,0,5,5,6,,,,,,,AMNE19.jpg,AMSA13.jpg,AMSA10.jpg,AMNE11.jpg,AMSA10.jpg,MS,2,num_2,16,num_2,3.13331199344,,,2017_May_02_1935,60.0038299081,MAFE4ImagesEEG,001,200263,
AMSA21.JPG,AMNE22.JPG,AMNE21.JPG,AMSA23.JPG,AMSA22.JPG,AMNE23.JPG,,,,,,,,,,,,,,,,,0,6,6,1,,,,,,,AMSA12.jpg,AMNE03.jpg,AMNE20.jpg,AMSA11.jpg,AMSA11.jpg,MS,2,num_4,16,num_4,1.38341150293,,,2017_May_02_1935,60.0038299081,MAFE4ImagesEEG,001,200263,
AFNE23.JPG,AFNE24.JPG,AFNE22.JPG,AFSA24.JPG,AFSA22.JPG,AFSA23.JPG,,,,,,,,,,,,,,,,,0,7,7,8,,,,,,,AMNE13.jpg,AMNE16.jpg,AMSA05.jpg,AMSA12.jpg,AMSA05.jpg,MS,2,num_2,32,num_8,2.26677665859,,,2017_May_02_1935,60.0038299081,MAFE4ImagesEEG,001,200263,
AMSA21.JPG,AMNE23.JPG,AMNE21.JPG,AMSA25.JPG,AMNE25.JPG,AMSA23.JPG,,,,,,,,,,,,,,,,,0,8,8,5,,,,,,,AMNE11.jpg,AMSA17.jpg,AMSA09.jpg,AMNE20.jpg,AMNE20.jpg,MN,1,num_4,32,num_6,1.85009970167,,,2017_May_02_1935,60.0038299081,MAFE4ImagesEEG,001,200263,
AMNE22.JPG,AMSA24.JPG,AMSA22.JPG,AMNE25.JPG,AMNE24.JPG,AMSA25.JPG,,,,,,,,,,,,,,,,,0,9,9,7,,,,,,,AMSA15.jpg,AMNE17.jpg,AMNE07.jpg,AMSA06.jpg,AMSA06.jpg,MS,2,num_4,32,num_2,1.48340961058,,,2017_May_02_1935,60.0038299081,MAFE4ImagesEEG,001,200263,
AFNE23.JPG,AFNE24.JPG,AFNE22.JPG,AFSA24.JPG,AFSA22.JPG,AFSA23.JPG,,,,,,,,,,,,,,,,,,,,,0,0,0,8,,,AFNE06.jpg,AFSA18.jpg,AFNE03.jpg,AFSA08.jpg,AFSA08.jpg,FS,4,num_4,32,num_2,1.23339862516,,,2017_May_02_1935,60.0038299081,MAFE4ImagesEEG,001,200263,
AFSA21.JPG,AFNE23.JPG,AFNE21.JPG,AFSA25.JPG,AFNE25.JPG,AFSA23.JPG,,,,,,,,,,,,,,,,,,,,,0,1,1,4,,,AFNE03.jpg,AFSA16.jpg,AFSA11.jpg,AFNE18.jpg,AFSA16.jpg,FS,4,num_6,16,num_6,2.31665607705,,,2017_May_02_1935,60.0038299081,MAFE4ImagesEEG,001,200263,
AMNE23.JPG,AMNE24.JPG,AMNE22.JPG,AMSA24.JPG,AMSA22.JPG,AMSA23.JPG,,,,,,,,,,,,,,,,,,,,,0,2,2,9,,,AFSA16.jpg,AFSA10.jpg,AFNE11.jpg,AFNE05.jpg,AFSA16.jpg,FS,4,num_8,32,num_6,0.966744809411,,,2017_May_02_1935,60.0038299081,MAFE4ImagesEEG,001,200263,
AMSA21.JPG,AMNE22.JPG,AMNE21.JPG,AMSA23.JPG,AMSA22.JPG,AMNE23.JPG,,,,,,,,,,,,,,,,,,,,,0,3,3,1,,,AFNE19.jpg,AFSA13.jpg,AFSA20.jpg,AFNE17.jpg,AFSA13.jpg,FS,4,num_6,16,num_6,0.600139393006,,,2017_May_02_1935,60.0038299081,MAFE4ImagesEEG,001,200263,
AMNE22.JPG,AMSA24.JPG,AMSA22.JPG,AMNE25.JPG,AMNE24.JPG,AMSA25.JPG,,,,,,,,,,,,,,,,,,,,,0,4,4,7,,,AFSA05.jpg,AFSA13.jpg,AFNE09.jpg,AFNE06.jpg,AFSA05.jpg,FS,4,num_8,16,num_8,0.983459164621,,,2017_May_02_1935,60.0038299081,MAFE4ImagesEEG,001,200263,
AMSA21.JPG,AMNE23.JPG,AMNE21.JPG,AMSA25.JPG,AMNE25.JPG,AMSA23.JPG,,,,,,,,,,,,,,,,,,,,,0,5,5,5,,,AFNE09.jpg,AFSA07.jpg,AFNE12.jpg,AFSA08.jpg,AFSA07.jpg,FS,4,num_6,16,num_6,1.33328704,,,2017_May_02_1935,60.0038299081,MAFE4ImagesEEG,001,200263,
AFSA25.JPG,AFNE24.JPG,AFSA24.JPG,AFNE21.JPG,AFSA21.JPG,AFNE25.JPG,,,,,,,,,,,,,,,,,,,,,0,6,6,2,,,AFNE11.jpg,AFSA07.jpg,AFSA04.jpg,AFNE18.jpg,AFSA04.jpg,FS,4,num_2,32,num_8,1.63342665765,,,2017_May_02_1935,60.0038299081,MAFE4ImagesEEG,001,200263,
AMSA25.JPG,AMNE24.JPG,AMSA24.JPG,AMNE26.JPG,AMSA21.JPG,AMNE25.JPG,,,,,,,,,,,,,,,,,,,,,0,7,7,3,,,AFSA02.jpg,AFSA07.jpg,AFNE07.jpg,AFNE16.jpg,AFSA07.jpg,FS,4,num_6,16,num_6,1.20007768297,,,2017_May_02_1935,60.0038299081,MAFE4ImagesEEG,001,200263,
AFNE22.JPG,AFSA24.JPG,AFSA22.JPG,AFNE25.JPG,AFNE24.JPG,AFSA25.JPG,,,,,,,,,,,,,,,,,,,,,0,8,8,6,,,AFNE09.jpg,AFNE18.jpg,AFSA19.jpg,AFSA17.jpg,AFSA19.jpg,FS,4,num_2,32,num_4,2.89997976134,,,2017_May_02_1935,60.0038299081,MAFE4ImagesEEG,001,200263,
AFSA21.JPG,AFNE22.JPG,AFNE21.JPG,AFSA23.JPG,AFSA22.JPG,AFNE23.JPG,,,,,,,,,,,,,,,,,,,,,0,9,9,0,,,AFNE02.jpg,AFNE04.jpg,AFSA11.jpg,AFSA03.jpg,AFNE02.jpg,FN,3,num_8,16,num_8,1.08347170544,,,2017_May_02_1935,60.0038299081,MAFE4ImagesEEG,001,200263,
,,,,,,,,,,,,,,,,,,,,,,,,,,,,,,,,,,,,,,,,,,,space,80.7270394915,2017_May_02_1935,60.0038299081,MAFE4ImagesEEG,001,200263,
AFNE01.JPG,AFNE01.JPG,AFNE01.JPG,AFNE01.JPG,AFNE01.JPG,AFNE01.JPG,0,0,0,6,,,,,,,,,,,,,,,,,,,,,,,AMNE18.jpg,AMSA20.jpg,AMSA01.jpg,AMNE13.jpg,AMNE18.jpg,MN,1,num_8,16,num_8,1.11675223452,,,2017_May_02_1935,60.0038299081,MAFE4ImagesEEG,001,200263,
AFNE01.JPG,AFNE01.JPG,AFNE01.JPG,AFNE01.JPG,AFNE01.JPG,AFNE01.JPG,0,1,1,5,,,,,,,,,,,,,,,,,,,,,,,AMSA02.jpg,AMSA16.jpg,AMNE02.jpg,AMNE10.jpg,AMSA16.jpg,MS,2,num_6,32,num_2,0.916619384428,,,2017_May_02_1935,60.0038299081,MAFE4ImagesEEG,001,200263,
AFNE01.JPG,AFNE01.JPG,AFNE01.JPG,AFNE01.JPG,AFNE01.JPG,AFNE01.JPG,0,2,2,3,,,,,,,,,,,,,,,,,,,,,,,AMSA10.jpg,AMNE06.jpg,AMNE18.jpg,AMSA01.jpg,AMSA10.jpg,MS,2,num_8,16,num_8,1.46676613856,,,2017_May_02_1935,60.0038299081,MAFE4ImagesEEG,001,200263,
AFNE01.JPG,AFNE01.JPG,AFNE01.JPG,AFNE01.JPG,AFNE01.JPG,AFNE01.JPG,0,3,3,4,,,,,,,,,,,,,,,,,,,,,,,AMNE05.jpg,AMSA14.jpg,AMSA08.jpg,AMNE09.jpg,AMSA08.jpg,MS,2,num_2,16,num_2,1.81666104845,,,2017_May_02_1935,60.0038299081,MAFE4ImagesEEG,001,200263,
AFNE01.JPG,AFNE01.JPG,AFNE01.JPG,AFNE01.JPG,AFNE01.JPG,AFNE01.JPG,0,4,4,7,,,,,,,,,,,,,,,,,,,,,,,AMSA03.jpg,AMNE20.jpg,AMNE05.jpg,AMSA14.jpg,AMSA03.jpg,MS,2,num_8,16,num_8,0.633469636785,,,2017_May_02_1935,60.0038299081,MAFE4ImagesEEG,001,200263,
AFNE01.JPG,AFNE01.JPG,AFNE01.JPG,AFNE01.JPG,AFNE01.JPG,AFNE01.JPG,0,5,5,2,,,,,,,,,,,,,,,,,,,,,,,AMNE13.jpg,AMNE19.jpg,AMSA20.jpg,AMSA18.jpg,AMSA20.jpg,MS,2,num_2,32,num_8,0.999779652338,,,2017_May_02_1935,60.0038299081,MAFE4ImagesEEG,001,200263,
AFNE01.JPG,AFNE01.JPG,AFNE01.JPG,AFNE01.JPG,AFNE01.JPG,AFNE01.JPG,0,6,6,0,,,,,,,,,,,,,,,,,,,,,,,AMNE12.jpg,AMNE18.jpg,AMSA03.jpg,AMSA17.jpg,AMSA17.jpg,MS,2,num_4,32,num_2,1.08340627491,,,2017_May_02_1935,60.0038299081,MAFE4ImagesEEG,001,200263,
AFNE01.JPG,AFNE01.JPG,AFNE01.JPG,AFNE01.JPG,AFNE01.JPG,AFNE01.JPG,0,7,7,9,,,,,,,,,,,,,,,,,,,,,,,AMSA03.jpg,AMNE19.jpg,AMNE11.jpg,AMSA12.jpg,AMNE11.jpg,MN,1,num_2,32,num_6,0.833506906638,,,2017_May_02_1935,60.0038299081,MAFE4ImagesEEG,001,200263,
AFNE01.JPG,AFNE01.JPG,AFNE01.JPG,AFNE01.JPG,AFNE01.JPG,AFNE01.JPG,0,8,8,1,,,,,,,,,,,,,,,,,,,,,,,AMSA19.jpg,AMNE19.jpg,AMNE18.jpg,AMSA08.jpg,AMNE18.jpg,MN,1,num_2,32,num_8,0.93347967579,,,2017_May_02_1935,60.0038299081,MAFE4ImagesEEG,001,200263,
AFNE01.JPG,AFNE01.JPG,AFNE01.JPG,AFNE01.JPG,AFNE01.JPG,AFNE01.JPG,0,9,9,8,,,,,,,,,,,,,,,,,,,,,,,AMNE03.jpg,AMSA13.jpg,AMNE19.jpg,AMSA02.jpg,AMNE03.jpg,MN,1,num_8,16,num_8,1.01673135441,,,2017_May_02_1935,60.0038299081,MAFE4ImagesEEG,001,200263,
AFNE01.JPG,AFNE01.JPG,AFNE01.JPG,AFNE01.JPG,AFNE01.JPG,AFNE01.JPG,1,0,10,9,,,,,,,,,,,,,,,,,,,,,,,AMSA06.jpg,AMNE11.jpg,AMNE14.jpg,AMSA05.jpg,AMNE14.jpg,MN,1,num_2,16,num_2,1.18342811707,,,2017_May_02_1935,60.0038299081,MAFE4ImagesEEG,001,200263,
AFNE01.JPG,AFNE01.JPG,AFNE01.JPG,AFNE01.JPG,AFNE01.JPG,AFNE01.JPG,1,1,11,8,,,,,,,,,,,,,,,,,,,,,,,AMNE20.jpg,AMNE10.jpg,AMSA06.jpg,AMSA12.jpg,AMSA12.jpg,MS,2,num_4,16,num_4,1.33342816518,,,2017_May_02_1935,60.0038299081,MAFE4ImagesEEG,001,200263,
AFNE01.JPG,AFNE01.JPG,AFNE01.JPG,AFNE01.JPG,AFNE01.JPG,AFNE01.JPG,1,2,12,7,,,,,,,,,,,,,,,,,,,,,,,AMNE11.jpg,AMNE08.jpg,AMSA03.jpg,AMSA08.jpg,AMSA03.jpg,MS,2,num_2,32,num_4,2.20006453269,,,2017_May_02_1935,60.0038299081,MAFE4ImagesEEG,001,200263,
AFNE01.JPG,AFNE01.JPG,AFNE01.JPG,AFNE01.JPG,AFNE01.JPG,AFNE01.JPG,1,3,13,4,,,,,,,,,,,,,,,,,,,,,,,AMNE12.jpg,AMNE10.jpg,AMSA06.jpg,AMSA14.jpg,AMSA14.jpg,MS,2,num_4,16,num_4,0.983484823722,,,2017_May_02_1935,60.0038299081,MAFE4ImagesEEG,001,200263,
AFNE01.JPG,AFNE01.JPG,AFNE01.JPG,AFNE01.JPG,AFNE01.JPG,AFNE01.JPG,1,4,14,3,,,,,,,,,,,,,,,,,,,,,,,AMSA01.jpg,AMNE07.jpg,AMSA18.jpg,AMNE02.jpg,AMNE07.jpg,MN,1,num_6,16,num_6,0.966785863973,,,2017_May_02_1935,60.0038299081,MAFE4ImagesEEG,001,200263,
AFNE01.JPG,AFNE01.JPG,AFNE01.JPG,AFNE01.JPG,AFNE01.JPG,AFNE01.JPG,1,5,15,0,,,,,,,,,,,,,,,,,,,,,,,AMSA11.jpg,AMNE05.jpg,AMNE03.jpg,AMSA03.jpg,AMSA11.jpg,MS,2,num_8,32,num_4,1.20007319283,,,2017_May_02_1935,60.0038299081,MAFE4ImagesEEG,001,200263,
AFNE01.JPG,AFNE01.JPG,AFNE01.JPG,AFNE01.JPG,AFNE01.JPG,AFNE01.JPG,1,6,16,5,,,,,,,,,,,,,,,,,,,,,,,AMSA16.jpg,AMNE02.jpg,AMNE12.jpg,AMSA08.jpg,AMNE12.jpg,MN,1,num_2,16,num_2,2.66663822788,,,2017_May_02_1935,60.0038299081,MAFE4ImagesEEG,001,200263,
AFNE01.JPG,AFNE01.JPG,AFNE01.JPG,AFNE01.JPG,AFNE01.JPG,AFNE01.JPG,1,7,17,2,,,,,,,,,,,,,,,,,,,,,,,AMSA20.jpg,AMNE05.jpg,AMNE07.jpg,AMSA10.jpg,AMSA10.jpg,MS,2,num_4,16,num_4,3.19994682143,,,2017_May_02_1935,60.0038299081,MAFE4ImagesEEG,001,200263,
AFNE01.JPG,AFNE01.JPG,AFNE01.JPG,AFNE01.JPG,AFNE01.JPG,AFNE01.JPG,1,8,18,6,,,,,,,,,,,,,,,,,,,,,,,AMSA07.jpg,AMNE03.jpg,AMNE19.jpg,AMSA19.jpg,AMNE03.jpg,MN,1,num_6,48,None,,,,2017_May_02_1935,60.0038299081,MAFE4ImagesEEG,001,200263,
AFNE01.JPG,AFNE01.JPG,AFNE01.JPG,AFNE01.JPG,AFNE01.JPG,AFNE01.JPG,1,9,19,1,,,,,,,,,,,,,,,,,,,,,,,AMSA15.jpg,AMSA03.jpg,AMNE04.jpg,AMNE20.jpg,AMSA03.jpg,MS,2,num_6,16,num_6,0.933570765657,,,2017_May_02_1935,60.0038299081,MAFE4ImagesEEG,001,200263,
AFNE01.JPG,AFNE01.JPG,AFNE01.JPG,AFNE01.JPG,AFNE01.JPG,AFNE01.JPG,2,0,20,1,,,,,,,,,,,,,,,,,,,,,,,AMNE18.jpg,AMNE16.jpg,AMSA02.jpg,AMSA01.jpg,AMSA02.jpg,MS,2,num_2,32,num_4,2.06669833441,,,2017_May_02_1935,60.0038299081,MAFE4ImagesEEG,001,200263,
AFNE01.JPG,AFNE01.JPG,AFNE01.JPG,AFNE01.JPG,AFNE01.JPG,AFNE01.JPG,2,1,21,4,,,,,,,,,,,,,,,,,,,,,,,AMNE16.jpg,AMSA19.jpg,AMNE09.jpg,AMSA18.jpg,AMNE09.jpg,MN,1,num_2,16,num_2,2.11670027464,,,2017_May_02_1935,60.0038299081,MAFE4ImagesEEG,001,200263,
AFNE01.JPG,AFNE01.JPG,AFNE01.JPG,AFNE01.JPG,AFNE01.JPG,AFNE01.JPG,2,2,22,9,,,,,,,,,,,,,,,,,,,,,,,AMSA19.jpg,AMNE15.jpg,AMNE20.jpg,AMSA05.jpg,AMSA05.jpg,MS,2,num_4,48,None,,,,2017_May_02_1935,60.0038299081,MAFE4ImagesEEG,001,200263,
AFNE01.JPG,AFNE01.JPG,AFNE01.JPG,AFNE01.JPG,AFNE01.JPG,AFNE01.JPG,2,3,23,6,,,,,,,,,,,,,,,,,,,,,,,AMSA05.jpg,AMNE09.jpg,AMNE18.jpg,AMSA06.jpg,AMSA05.jpg,MS,2,num_8,32,num_6,1.26707013487,,,2017_May_02_1935,60.0038299081,MAFE4ImagesEEG,001,200263,
AFNE01.JPG,AFNE01.JPG,AFNE01.JPG,AFNE01.JPG,AFNE01.JPG,AFNE01.JPG,2,4,24,5,,,,,,,,,,,,,,,,,,,,,,,AMNE01.jpg,AMSA11.jpg,AMNE12.jpg,AMSA17.jpg,AMNE01.jpg,MN,1,num_8,16,num_8,0.950077282265,,,2017_May_02_1935,60.0038299081,MAFE4ImagesEEG,001,200263,
AFNE01.JPG,AFNE01.JPG,AFNE01.JPG,AFNE01.JPG,AFNE01.JPG,AFNE01.JPG,2,5,25,0,,,,,,,,,,,,,,,,,,,,,,,AMNE05.jpg,AMNE11.jpg,AMSA05.jpg,AMSA18.jpg,AMNE05.jpg,MN,1,num_8,32,num_2,1.6333907349,,,2017_May_02_1935,60.0038299081,MAFE4ImagesEEG,001,200263,
AFNE01.JPG,AFNE01.JPG,AFNE01.JPG,AFNE01.JPG,AFNE01.JPG,AFNE01.JPG,2,6,26,8,,,,,,,,,,,,,,,,,,,,,,,AMNE19.jpg,AMNE05.jpg,AMSA06.jpg,AMSA02.jpg,AMSA06.jpg,MS,2,num_2,32,num_6,1.61675752676,,,2017_May_02_1935,60.0038299081,MAFE4ImagesEEG,001,200263,
AFNE01.JPG,AFNE01.JPG,AFNE01.JPG,AFNE01.JPG,AFNE01.JPG,AFNE01.JPG,2,7,27,2,,,,,,,,,,,,,,,,,,,,,,,AMNE20.jpg,AMNE12.jpg,AMSA13.jpg,AMSA03.jpg,AMNE20.jpg,MN,1,num_8,16,num_8,1.83337925235,,,2017_May_02_1935,60.0038299081,MAFE4ImagesEEG,001,200263,
AFNE01.JPG,AFNE01.JPG,AFNE01.JPG,AFNE01.JPG,AFNE01.JPG,AFNE01.JPG,2,8,28,7,,,,,,,,,,,,,,,,,,,,,,,AMNE13.jpg,AMSA06.jpg,AMSA03.jpg,AMNE16.jpg,AMNE16.jpg,MN,1,num_4,32,num_6,1.35010274895,,,2017_May_02_1935,60.0038299081,MAFE4ImagesEEG,001,200263,
AFNE01.JPG,AFNE01.JPG,AFNE01.JPG,AFNE01.JPG,AFNE01.JPG,AFNE01.JPG,2,9,29,3,,,,,,,,,,,,,,,,,,,,,,,AMNE18.jpg,AMSA10.jpg,AMSA03.jpg,AMNE02.jpg,AMSA03.jpg,MS,2,num_2,32,num_4,1.10014404403,,,2017_May_02_1935,60.0038299081,MAFE4ImagesEEG,001,200263,
AFNE01.JPG,AFNE01.JPG,AFNE01.JPG,AFNE01.JPG,AFNE01.JPG,AFNE01.JPG,3,0,30,6,,,,,,,,,,,,,,,,,,,,,,,AMSA16.jpg,AMSA20.jpg,AMNE04.jpg,AMNE19.jpg,AMNE19.jpg,MN,1,num_4,32,num_2,1.65006211097,,,2017_May_02_1935,60.0038299081,MAFE4ImagesEEG,001,200263,
AFNE01.JPG,AFNE01.JPG,AFNE01.JPG,AFNE01.JPG,AFNE01.JPG,AFNE01.JPG,3,1,31,8,,,,,,,,,,,,,,,,,,,,,,,AMSA03.jpg,AMNE01.jpg,AMNE20.jpg,AMSA18.jpg,AMNE01.jpg,MN,1,num_6,48,None,,,,2017_May_02_1935,60.0038299081,MAFE4ImagesEEG,001,200263,
AFNE01.JPG,AFNE01.JPG,AFNE01.JPG,AFNE01.JPG,AFNE01.JPG,AFNE01.JPG,3,2,32,3,,,,,,,,,,,,,,,,,,,,,,,AMSA09.jpg,AMSA14.jpg,AMNE19.jpg,AMNE02.jpg,AMNE02.jpg,MN,1,num_4,32,num_2,1.7833978394,,,2017_May_02_1935,60.0038299081,MAFE4ImagesEEG,001,200263,
AFNE01.JPG,AFNE01.JPG,AFNE01.JPG,AFNE01.JPG,AFNE01.JPG,AFNE01.JPG,3,3,33,1,,,,,,,,,,,,,,,,,,,,,,,AMSA18.jpg,AMSA05.jpg,AMNE06.jpg,AMNE03.jpg,AMNE03.jpg,MN,1,num_4,32,num_8,2.6000155881,,,2017_May_02_1935,60.0038299081,MAFE4ImagesEEG,001,200263,
AFNE01.JPG,AFNE01.JPG,AFNE01.JPG,AFNE01.JPG,AFNE01.JPG,AFNE01.JPG,3,4,34,9,,,,,,,,,,,,,,,,,,,,,,,AMNE02.jpg,AMNE15.jpg,AMSA15.jpg,AMSA06.jpg,AMSA15.jpg,MS,2,num_2,32,num_4,1.50005725189,,,2017_May_02_1935,60.0038299081,MAFE4ImagesEEG,001,200263,
AFNE01.JPG,AFNE01.JPG,AFNE01.JPG,AFNE01.JPG,AFNE01.JPG,AFNE01.JPG,3,5,35,7,,,,,,,,,,,,,,,,,,,,,,,AMNE17.jpg,AMSA04.jpg,AMNE20.jpg,AMSA01.jpg,AMNE20.jpg,MN,1,num_2,32,num_4,3.4335164004,,,2017_May_02_1935,60.0038299081,MAFE4ImagesEEG,001,200263,
AFNE01.JPG,AFNE01.JPG,AFNE01.JPG,AFNE01.JPG,AFNE01.JPG,AFNE01.JPG,3,6,36,0,,,,,,,,,,,,,,,,,,,,,,,AMNE05.jpg,AMSA15.jpg,AMSA06.jpg,AMNE18.jpg,AMNE05.jpg,MN,1,num_8,48,None,,,,2017_May_02_1935,60.0038299081,MAFE4ImagesEEG,001,200263,
AFNE01.JPG,AFNE01.JPG,AFNE01.JPG,AFNE01.JPG,AFNE01.JPG,AFNE01.JPG,3,7,37,5,,,,,,,,,,,,,,,,,,,,,,,AMNE18.jpg,AMSA18.jpg,AMSA15.jpg,AMNE06.jpg,AMSA15.jpg,MS,2,num_2,32,num_6,1.05009078537,,,2017_May_02_1935,60.0038299081,MAFE4ImagesEEG,001,200263,
AFNE01.JPG,AFNE01.JPG,AFNE01.JPG,AFNE01.JPG,AFNE01.JPG,AFNE01.JPG,3,8,38,2,,,,,,,,,,,,,,,,,,,,,,,AMNE18.jpg,AMSA01.jpg,AMSA16.jpg,AMNE03.jpg,AMSA01.jpg,MS,2,num_6,32,num_8,2.88334719464,,,2017_May_02_1935,60.0038299081,MAFE4ImagesEEG,001,200263,
AFNE01.JPG,AFNE01.JPG,AFNE01.JPG,AFNE01.JPG,AFNE01.JPG,AFNE01.JPG,3,9,39,4,,,,,,,,,,,,,,,,,,,,,,,AMNE13.jpg,AMNE12.jpg,AMSA06.jpg,AMSA16.jpg,AMSA06.jpg,MS,2,num_2,48,None,,,,2017_May_02_1935,60.0038299081,MAFE4ImagesEEG,001,200263,
AFNE01.JPG,AFNE01.JPG,AFNE01.JPG,AFNE01.JPG,AFNE01.JPG,AFNE01.JPG,4,0,40,0,,,,,,,,,,,,,,,,,,,,,,,AMNE06.jpg,AMSA13.jpg,AMSA20.jpg,AMNE11.jpg,AMNE06.jpg,MN,1,num_8,48,None,,,,2017_May_02_1935,60.0038299081,MAFE4ImagesEEG,001,200263,
AFNE01.JPG,AFNE01.JPG,AFNE01.JPG,AFNE01.JPG,AFNE01.JPG,AFNE01.JPG,4,1,41,9,,,,,,,,,,,,,,,,,,,,,,,AMSA06.jpg,AMNE12.jpg,AMSA19.jpg,AMNE03.jpg,AMNE03.jpg,MN,1,num_4,32,num_8,1.90009875572,,,2017_May_02_1935,60.0038299081,MAFE4ImagesEEG,001,200263,
AFNE01.JPG,AFNE01.JPG,AFNE01.JPG,AFNE01.JPG,AFNE01.JPG,AFNE01.JPG,4,2,42,2,,,,,,,,,,,,,,,,,,,,,,,AMNE20.jpg,AMSA04.jpg,AMNE06.jpg,AMSA07.jpg,AMSA04.jpg,MS,2,num_6,32,num_2,2.08334405115,,,2017_May_02_1935,60.0038299081,MAFE4ImagesEEG,001,200263,
AFNE01.JPG,AFNE01.JPG,AFNE01.JPG,AFNE01.JPG,AFNE01.JPG,AFNE01.JPG,4,3,43,3,,,,,,,,,,,,,,,,,,,,,,,AMSA07.jpg,AMSA05.jpg,AMNE02.jpg,AMNE08.jpg,AMSA05.jpg,MS,2,num_6,48,None,,,,2017_May_02_1935,60.0038299081,MAFE4ImagesEEG,001,200263,
AFNE01.JPG,AFNE01.JPG,AFNE01.JPG,AFNE01.JPG,AFNE01.JPG,AFNE01.JPG,4,4,44,5,,,,,,,,,,,,,,,,,,,,,,,AMSA09.jpg,AMNE15.jpg,AMNE14.jpg,AMSA13.jpg,AMNE15.jpg,MN,1,num_6,16,num_6,1.150093704,,,2017_May_02_1935,60.0038299081,MAFE4ImagesEEG,001,200263,
AFNE01.JPG,AFNE01.JPG,AFNE01.JPG,AFNE01.JPG,AFNE01.JPG,AFNE01.JPG,4,5,45,8,,,,,,,,,,,,,,,,,,,,,,,AMNE07.jpg,AMNE02.jpg,AMSA07.jpg,AMSA08.jpg,AMNE02.jpg,MN,1,num_6,16,num_6,3.24990738672,,,2017_May_02_1935,60.0038299081,MAFE4ImagesEEG,001,200263,
AFNE01.JPG,AFNE01.JPG,AFNE01.JPG,AFNE01.JPG,AFNE01.JPG,AFNE01.JPG,4,6,46,7,,,,,,,,,,,,,,,,,,,,,,,AMNE17.jpg,AMSA18.jpg,AMNE15.jpg,AMSA17.jpg,AMSA18.jpg,MS,2,num_6,48,None,,,,2017_May_02_1935,60.0038299081,MAFE4ImagesEEG,001,200263,
AFNE01.JPG,AFNE01.JPG,AFNE01.JPG,AFNE01.JPG,AFNE01.JPG,AFNE01.JPG,4,7,47,1,,,,,,,,,,,,,,,,,,,,,,,AMNE18.jpg,AMSA03.jpg,AMSA14.jpg,AMNE10.jpg,AMNE10.jpg,MN,1,num_4,16,num_4,0.900116716977,,,2017_May_02_1935,60.0038299081,MAFE4ImagesEEG,001,200263,
AFNE01.JPG,AFNE01.JPG,AFNE01.JPG,AFNE01.JPG,AFNE01.JPG,AFNE01.JPG,4,8,48,4,,,,,,,,,,,,,,,,,,,,,,,AMNE16.jpg,AMNE15.jpg,AMSA08.jpg,AMSA13.jpg,AMSA13.jpg,MS,2,num_4,48,None,,,,2017_May_02_1935,60.0038299081,MAFE4ImagesEEG,001,200263,
AFNE01.JPG,AFNE01.JPG,AFNE01.JPG,AFNE01.JPG,AFNE01.JPG,AFNE01.JPG,4,9,49,6,,,,,,,,,,,,,,,,,,,,,,,AMSA05.jpg,AMNE19.jpg,AMNE18.jpg,AMSA19.jpg,AMNE19.jpg,MN,1,num_6,32,num_4,2.71671041008,,,2017_May_02_1935,60.0038299081,MAFE4ImagesEEG,001,200263,
AFNE01.JPG,AFNE01.JPG,AFNE01.JPG,AFNE01.JPG,AFNE01.JPG,AFNE01.JPG,5,0,50,8,,,,,,,,,,,,,,,,,,,,,,,AMSA05.jpg,AMNE16.jpg,AMSA16.jpg,AMNE11.jpg,AMSA05.jpg,MS,2,num_8,48,None,,,,2017_May_02_1935,60.0038299081,MAFE4ImagesEEG,001,200263,
AFNE01.JPG,AFNE01.JPG,AFNE01.JPG,AFNE01.JPG,AFNE01.JPG,AFNE01.JPG,5,1,51,3,,,,,,,,,,,,,,,,,,,,,,,AMNE16.jpg,AMNE11.jpg,AMSA07.jpg,AMSA18.jpg,AMNE16.jpg,MN,1,num_8,48,None,,,,2017_May_02_1935,60.0038299081,MAFE4ImagesEEG,001,200263,
AFNE01.JPG,AFNE01.JPG,AFNE01.JPG,AFNE01.JPG,AFNE01.JPG,AFNE01.JPG,5,2,52,4,,,,,,,,,,,,,,,,,,,,,,,AMSA20.jpg,AMNE14.jpg,AMNE20.jpg,AMSA05.jpg,AMSA05.jpg,MS,2,num_4,16,num_4,1.15016137995,,,2017_May_02_1935,60.0038299081,MAFE4ImagesEEG,001,200263,
AFNE01.JPG,AFNE01.JPG,AFNE01.JPG,AFNE01.JPG,AFNE01.JPG,AFNE01.JPG,5,3,53,5,,,,,,,,,,,,,,,,,,,,,,,AMSA04.jpg,AMNE15.jpg,AMSA09.jpg,AMNE03.jpg,AMSA04.jpg,MS,2,num_8,48,None,,,,2017_May_02_1935,60.0038299081,MAFE4ImagesEEG,001,200263,
AFNE01.JPG,AFNE01.JPG,AFNE01.JPG,AFNE01.JPG,AFNE01.JPG,AFNE01.JPG,5,4,54,6,,,,,,,,,,,,,,,,,,,,,,,AMNE12.jpg,AMNE08.jpg,AMSA03.jpg,AMSA20.jpg,AMNE08.jpg,MN,1,num_6,16,num_6,1.06673457776,,,2017_May_02_1935,60.0038299081,MAFE4ImagesEEG,001,200263,
AFNE01.JPG,AFNE01.JPG,AFNE01.JPG,AFNE01.JPG,AFNE01.JPG,AFNE01.JPG,5,5,55,1,,,,,,,,,,,,,,,,,,,,,,,AMNE04.jpg,AMNE10.jpg,AMSA08.jpg,AMSA11.jpg,AMSA08.jpg,MS,2,num_2,48,None,,,,2017_May_02_1935,60.0038299081,MAFE4ImagesEEG,001,200263,
AFNE01.JPG,AFNE01.JPG,AFNE01.JPG,AFNE01.JPG,AFNE01.JPG,AFNE01.JPG,5,6,56,7,,,,,,,,,,,,,,,,,,,,,,,AMNE11.jpg,AMSA05.jpg,AMSA08.jpg,AMNE04.jpg,AMSA08.jpg,MS,2,num_2,16,num_2,1.05009238888,,,2017_May_02_1935,60.0038299081,MAFE4ImagesEEG,001,200263,
AFNE01.JPG,AFNE01.JPG,AFNE01.JPG,AFNE01.JPG,AFNE01.JPG,AFNE01.JPG,5,7,57,2,,,,,,,,,,,,,,,,,,,,,,,AMSA03.jpg,AMNE05.jpg,AMSA06.jpg,AMNE11.jpg,AMNE05.jpg,MN,1,num_6,16,num_6,1.11675351765,,,2017_May_02_1935,60.0038299081,MAFE4ImagesEEG,001,200263,
AFNE01.JPG,AFNE01.JPG,AFNE01.JPG,AFNE01.JPG,AFNE01.JPG,AFNE01.JPG,5,8,58,0,,,,,,,,,,,,,,,,,,,,,,,AMNE08.jpg,AMSA03.jpg,AMNE02.jpg,AMSA17.jpg,AMSA17.jpg,MS,2,num_4,48,None,,,,2017_May_02_1935,60.0038299081,MAFE4ImagesEEG,001,200263,
AFNE01.JPG,AFNE01.JPG,AFNE01.JPG,AFNE01.JPG,AFNE01.JPG,AFNE01.JPG,5,9,59,9,,,,,,,,,,,,,,,,,,,,,,,AMSA07.jpg,AMSA09.jpg,AMNE13.jpg,AMNE16.jpg,AMNE16.jpg,MN,1,num_4,48,None,,,,2017_May_02_1935,60.0038299081,MAFE4ImagesEEG,001,200263,
,,,,,,,,,,,,,,,,,,,,,,,,,,,,,,,,,,,,,,,,,,,space,73.4438140495,2017_May_02_1935,60.0038299081,MAFE4ImagesEEG,001,200263,
AFNE01.JPG,AFNE01.JPG,AFNE01.JPG,AFNE01.JPG,AFNE01.JPG,AFNE01.JPG,,,,,0,0,0,0,,,,,,,,,,,,,,,,,,,AFNE01.jpg,AFSA14.jpg,AFNE19.jpg,AFSA10.jpg,AFNE19.jpg,FN,3,num_2,32,num_8,0.700152254896,,,2017_May_02_1935,60.0038299081,MAFE4ImagesEEG,001,200263,
AFNE01.JPG,AFNE01.JPG,AFNE01.JPG,AFNE01.JPG,AFNE01.JPG,AFNE01.JPG,,,,,0,1,1,9,,,,,,,,,,,,,,,,,,,AFSA10.jpg,AFSA18.jpg,AFNE20.jpg,AFNE12.jpg,AFNE20.jpg,FN,3,num_2,32,num_4,1.08351949556,,,2017_May_02_1935,60.0038299081,MAFE4ImagesEEG,001,200263,
AFNE01.JPG,AFNE01.JPG,AFNE01.JPG,AFNE01.JPG,AFNE01.JPG,AFNE01.JPG,,,,,0,2,2,1,,,,,,,,,,,,,,,,,,,AFNE06.jpg,AFSA15.jpg,AFSA11.jpg,AFNE04.jpg,AFSA15.jpg,FS,4,num_6,32,num_8,0.600089678774,,,2017_May_02_1935,60.0038299081,MAFE4ImagesEEG,001,200263,
AFNE01.JPG,AFNE01.JPG,AFNE01.JPG,AFNE01.JPG,AFNE01.JPG,AFNE01.JPG,,,,,0,3,3,3,,,,,,,,,,,,,,,,,,,AFSA05.jpg,AFNE13.jpg,AFNE15.jpg,AFSA01.jpg,AFSA01.jpg,FS,4,num_4,16,num_4,0.850169623038,,,2017_May_02_1935,60.0038299081,MAFE4ImagesEEG,001,200263,
AFNE01.JPG,AFNE01.JPG,AFNE01.JPG,AFNE01.JPG,AFNE01.JPG,AFNE01.JPG,,,,,0,4,4,8,,,,,,,,,,,,,,,,,,,AFNE06.jpg,AFSA15.jpg,AFSA01.jpg,AFNE20.jpg,AFNE20.jpg,FN,3,num_4,32,num_6,0.550173054915,,,2017_May_02_1935,60.0038299081,MAFE4ImagesEEG,001,200263,
AFNE01.JPG,AFNE01.JPG,AFNE01.JPG,AFNE01.JPG,AFNE01.JPG,AFNE01.JPG,,,,,0,5,5,2,,,,,,,,,,,,,,,,,,,AFSA05.jpg,AFNE18.jpg,AFNE13.jpg,AFSA02.jpg,AFSA02.jpg,FS,4,num_4,16,num_4,0.633496578783,,,2017_May_02_1935,60.0038299081,MAFE4ImagesEEG,001,200263,
AFNE01.JPG,AFNE01.JPG,AFNE01.JPG,AFNE01.JPG,AFNE01.JPG,AFNE01.JPG,,,,,0,6,6,7,,,,,,,,,,,,,,,,,,,AFSA13.jpg,AFNE20.jpg,AFSA14.jpg,AFNE09.jpg,AFNE09.jpg,FN,3,num_4,32,num_6,0.800123099703,,,2017_May_02_1935,60.0038299081,MAFE4ImagesEEG,001,200263,
AFNE01.JPG,AFNE01.JPG,AFNE01.JPG,AFNE01.JPG,AFNE01.JPG,AFNE01.JPG,,,,,0,7,7,4,,,,,,,,,,,,,,,,,,,AFSA05.jpg,AFSA08.jpg,AFNE08.jpg,AFNE04.jpg,AFNE08.jpg,FN,3,num_2,32,num_4,0.766696955077,,,2017_May_02_1935,60.0038299081,MAFE4ImagesEEG,001,200263,
AFNE01.JPG,AFNE01.JPG,AFNE01.JPG,AFNE01.JPG,AFNE01.JPG,AFNE01.JPG,,,,,0,8,8,6,,,,,,,,,,,,,,,,,,,AFNE04.jpg,AFSA03.jpg,AFSA04.jpg,AFNE03.jpg,AFSA03.jpg,FS,4,num_6,32,num_4,0.766461532796,,,2017_May_02_1935,60.0038299081,MAFE4ImagesEEG,001,200263,
AFNE01.JPG,AFNE01.JPG,AFNE01.JPG,AFNE01.JPG,AFNE01.JPG,AFNE01.JPG,,,,,0,9,9,5,,,,,,,,,,,,,,,,,,,AFSA13.jpg,AFNE05.jpg,AFNE09.jpg,AFSA01.jpg,AFNE09.jpg,FN,3,num_2,32,num_6,0.933418093948,,,2017_May_02_1935,60.0038299081,MAFE4ImagesEEG,001,200263,
AFNE01.JPG,AFNE01.JPG,AFNE01.JPG,AFNE01.JPG,AFNE01.JPG,AFNE01.JPG,,,,,1,0,10,6,,,,,,,,,,,,,,,,,,,AFSA16.jpg,AFNE15.jpg,AFNE05.jpg,AFSA19.jpg,AFSA16.jpg,FS,4,num_8,32,num_4,1.10021396494,,,2017_May_02_1935,60.0038299081,MAFE4ImagesEEG,001,200263,
AFNE01.JPG,AFNE01.JPG,AFNE01.JPG,AFNE01.JPG,AFNE01.JPG,AFNE01.JPG,,,,,1,1,11,0,,,,,,,,,,,,,,,,,,,AFNE20.jpg,AFSA04.jpg,AFSA03.jpg,AFNE07.jpg,AFSA03.jpg,FS,4,num_2,32,num_8,0.983437675051,,,2017_May_02_1935,60.0038299081,MAFE4ImagesEEG,001,200263,
AFNE01.JPG,AFNE01.JPG,AFNE01.JPG,AFNE01.JPG,AFNE01.JPG,AFNE01.JPG,,,,,1,2,12,1,,,,,,,,,,,,,,,,,,,AFNE04.jpg,AFSA18.jpg,AFNE09.jpg,AFSA07.jpg,AFNE04.jpg,FN,3,num_8,16,num_8,1.45013870345,,,2017_May_02_1935,60.0038299081,MAFE4ImagesEEG,001,200263,
AFNE01.JPG,AFNE01.JPG,AFNE01.JPG,AFNE01.JPG,AFNE01.JPG,AFNE01.JPG,,,,,1,3,13,4,,,,,,,,,,,,,,,,,,,AFSA20.jpg,AFSA12.jpg,AFNE05.jpg,AFNE02.jpg,AFSA12.jpg,FS,4,num_6,16,num_6,0.55013841507,,,2017_May_02_1935,60.0038299081,MAFE4ImagesEEG,001,200263,
AFNE01.JPG,AFNE01.JPG,AFNE01.JPG,AFNE01.JPG,AFNE01.JPG,AFNE01.JPG,,,,,1,4,14,9,,,,,,,,,,,,,,,,,,,AFNE16.jpg,AFNE17.jpg,AFSA08.jpg,AFSA11.jpg,AFNE16.jpg,FN,3,num_8,16,num_8,1.56674147351,,,2017_May_02_1935,60.0038299081,MAFE4ImagesEEG,001,200263,
AFNE01.JPG,AFNE01.JPG,AFNE01.JPG,AFNE01.JPG,AFNE01.JPG,AFNE01.JPG,,,,,1,5,15,8,,,,,,,,,,,,,,,,,,,AFSA06.jpg,AFSA20.jpg,AFNE06.jpg,AFNE16.jpg,AFSA06.jpg,FS,4,num_8,16,num_8,1.41671704943,,,2017_May_02_1935,60.0038299081,MAFE4ImagesEEG,001,200263,
AFNE01.JPG,AFNE01.JPG,AFNE01.JPG,AFNE01.JPG,AFNE01.JPG,AFNE01.JPG,,,,,1,6,16,5,,,,,,,,,,,,,,,,,,,AFNE09.jpg,AFNE11.jpg,AFSA13.jpg,AFSA01.jpg,AFSA13.jpg,FS,4,num_2,32,num_8,3.98319680011,,,2017_May_02_1935,60.0038299081,MAFE4ImagesEEG,001,200263,
AFNE01.JPG,AFNE01.JPG,AFNE01.JPG,AFNE01.JPG,AFNE01.JPG,AFNE01.JPG,,,,,1,7,17,7,,,,,,,,,,,,,,,,,,,AFNE10.jpg,AFNE05.jpg,AFSA17.jpg,AFSA11.jpg,AFNE10.jpg,FN,3,num_8,48,None,,,,2017_May_02_1935,60.0038299081,MAFE4ImagesEEG,001,200263,
AFNE01.JPG,AFNE01.JPG,AFNE01.JPG,AFNE01.JPG,AFNE01.JPG,AFNE01.JPG,,,,,1,8,18,3,,,,,,,,,,,,,,,,,,,AFSA02.jpg,AFSA15.jpg,AFNE02.jpg,AFNE13.jpg,AFSA02.jpg,FS,4,num_8,32,num_6,0.916657231748,,,2017_May_02_1935,60.0038299081,MAFE4ImagesEEG,001,200263,
AFNE01.JPG,AFNE01.JPG,AFNE01.JPG,AFNE01.JPG,AFNE01.JPG,AFNE01.JPG,,,,,1,9,19,2,,,,,,,,,,,,,,,,,,,AFSA20.jpg,AFNE20.jpg,AFSA19.jpg,AFNE05.jpg,AFNE05.jpg,FN,3,num_4,16,num_4,2.3496735997,,,2017_May_02_1935,60.0038299081,MAFE4ImagesEEG,001,200263,
AFNE01.JPG,AFNE01.JPG,AFNE01.JPG,AFNE01.JPG,AFNE01.JPG,AFNE01.JPG,,,,,2,0,20,3,,,,,,,,,,,,,,,,,,,AFNE18.jpg,AFSA04.jpg,AFNE06.jpg,AFSA08.jpg,AFSA04.jpg,FS,4,num_6,32,num_4,0.88343251124,,,2017_May_02_1935,60.0038299081,MAFE4ImagesEEG,001,200263,
AFNE01.JPG,AFNE01.JPG,AFNE01.JPG,AFNE01.JPG,AFNE01.JPG,AFNE01.JPG,,,,,2,1,21,8,,,,,,,,,,,,,,,,,,,AFSA01.jpg,AFNE08.jpg,AFSA05.jpg,AFNE13.jpg,AFNE13.jpg,FN,3,num_4,32,num_6,0.983454353642,,,2017_May_02_1935,60.0038299081,MAFE4ImagesEEG,001,200263,
AFNE01.JPG,AFNE01.JPG,AFNE01.JPG,AFNE01.JPG,AFNE01.JPG,AFNE01.JPG,,,,,2,2,22,9,,,,,,,,,,,,,,,,,,,AFNE17.jpg,AFNE04.jpg,AFSA15.jpg,AFSA09.jpg,AFSA09.jpg,FS,4,num_4,32,num_8,3.03355860966,,,2017_May_02_1935,60.0038299081,MAFE4ImagesEEG,001,200263,
AFNE01.JPG,AFNE01.JPG,AFNE01.JPG,AFNE01.JPG,AFNE01.JPG,AFNE01.JPG,,,,,2,3,23,2,,,,,,,,,,,,,,,,,,,AFNE05.jpg,AFSA01.jpg,AFSA18.jpg,AFNE08.jpg,AFSA18.jpg,FS,4,num_2,48,None,,,,2017_May_02_1935,60.0038299081,MAFE4ImagesEEG,001,200263,
AFNE01.JPG,AFNE01.JPG,AFNE01.JPG,AFNE01.JPG,AFNE01.JPG,AFNE01.JPG,,,,,2,4,24,4,,,,,,,,,,,,,,,,,,,AFNE04.jpg,AFNE18.jpg,AFSA13.jpg,AFSA06.jpg,AFNE04.jpg,FN,3,num_8,16,num_8,0.900087208953,,,2017_May_02_1935,60.0038299081,MAFE4ImagesEEG,001,200263,
AFNE01.JPG,AFNE01.JPG,AFNE01.JPG,AFNE01.JPG,AFNE01.JPG,AFNE01.JPG,,,,,2,5,25,1,,,,,,,,,,,,,,,,,,,AFSA07.jpg,AFSA05.jpg,AFNE02.jpg,AFNE18.jpg,AFNE02.jpg,FN,3,num_2,32,num_6,1.26678596041,,,2017_May_02_1935,60.0038299081,MAFE4ImagesEEG,001,200263,
AFNE01.JPG,AFNE01.JPG,AFNE01.JPG,AFNE01.JPG,AFNE01.JPG,AFNE01.JPG,,,,,2,6,26,6,,,,,,,,,,,,,,,,,,,AFSA01.jpg,AFNE20.jpg,AFSA04.jpg,AFNE03.jpg,AFSA01.jpg,FS,4,num_8,32,num_2,2.94995700475,,,2017_May_02_1935,60.0038299081,MAFE4ImagesEEG,001,200263,
AFNE01.JPG,AFNE01.JPG,AFNE01.JPG,AFNE01.JPG,AFNE01.JPG,AFNE01.JPG,,,,,2,7,27,5,,,,,,,,,,,,,,,,,,,AFNE13.jpg,AFSA17.jpg,AFNE14.jpg,AFSA06.jpg,AFNE13.jpg,FN,3,num_8,16,num_8,1.16674776026,,,2017_May_02_1935,60.0038299081,MAFE4ImagesEEG,001,200263,
AFNE01.JPG,AFNE01.JPG,AFNE01.JPG,AFNE01.JPG,AFNE01.JPG,AFNE01.JPG,,,,,2,8,28,7,,,,,,,,,,,,,,,,,,,AFNE17.jpg,AFNE19.jpg,AFSA18.jpg,AFSA14.jpg,AFSA18.jpg,FS,4,num_2,32,num_8,0.766774253454,,,2017_May_02_1935,60.0038299081,MAFE4ImagesEEG,001,200263,
AFNE01.JPG,AFNE01.JPG,AFNE01.JPG,AFNE01.JPG,AFNE01.JPG,AFNE01.JPG,,,,,2,9,29,0,,,,,,,,,,,,,,,,,,,AFSA05.jpg,AFSA19.jpg,AFNE10.jpg,AFNE14.jpg,AFNE10.jpg,FN,3,num_2,16,num_2,0.850116059417,,,2017_May_02_1935,60.0038299081,MAFE4ImagesEEG,001,200263,
AFNE01.JPG,AFNE01.JPG,AFNE01.JPG,AFNE01.JPG,AFNE01.JPG,AFNE01.JPG,,,,,3,0,30,9,,,,,,,,,,,,,,,,,,,AFSA06.jpg,AFSA15.jpg,AFNE04.jpg,AFNE10.jpg,AFNE04.jpg,FN,3,num_2,16,num_2,1.1500767048,,,2017_May_02_1935,60.0038299081,MAFE4ImagesEEG,001,200263,
AFNE01.JPG,AFNE01.JPG,AFNE01.JPG,AFNE01.JPG,AFNE01.JPG,AFNE01.JPG,,,,,3,1,31,1,,,,,,,,,,,,,,,,,,,AFNE11.jpg,AFNE17.jpg,AFSA14.jpg,AFSA10.jpg,AFNE11.jpg,FN,3,num_8,16,num_8,0.933407830307,,,2017_May_02_1935,60.0038299081,MAFE4ImagesEEG,001,200263,
AFNE01.JPG,AFNE01.JPG,AFNE01.JPG,AFNE01.JPG,AFNE01.JPG,AFNE01.JPG,,,,,3,2,32,8,,,,,,,,,,,,,,,,,,,AFNE06.jpg,AFNE17.jpg,AFSA04.jpg,AFSA17.jpg,AFSA17.jpg,FS,4,num_4,16,num_4,1.23343518935,,,2017_May_02_1935,60.0038299081,MAFE4ImagesEEG,001,200263,
AFNE01.JPG,AFNE01.JPG,AFNE01.JPG,AFNE01.JPG,AFNE01.JPG,AFNE01.JPG,,,,,3,3,33,4,,,,,,,,,,,,,,,,,,,AFSA04.jpg,AFNE19.jpg,AFSA20.jpg,AFNE08.jpg,AFNE08.jpg,FN,3,num_4,32,num_2,1.20007543778,,,2017_May_02_1935,60.0038299081,MAFE4ImagesEEG,001,200263,
AFNE01.JPG,AFNE01.JPG,AFNE01.JPG,AFNE01.JPG,AFNE01.JPG,AFNE01.JPG,,,,,3,4,34,2,,,,,,,,,,,,,,,,,,,AFSA02.jpg,AFNE13.jpg,AFSA10.jpg,AFNE08.jpg,AFNE08.jpg,FN,3,num_4,32,num_8,0.933432527119,,,2017_May_02_1935,60.0038299081,MAFE4ImagesEEG,001,200263,
AFNE01.JPG,AFNE01.JPG,AFNE01.JPG,AFNE01.JPG,AFNE01.JPG,AFNE01.JPG,,,,,3,5,35,3,,,,,,,,,,,,,,,,,,,AFNE07.jpg,AFNE14.jpg,AFSA09.jpg,AFSA19.jpg,AFSA09.jpg,FS,4,num_2,32,num_6,0.966746733757,,,2017_May_02_1935,60.0038299081,MAFE4ImagesEEG,001,200263,
AFNE01.JPG,AFNE01.JPG,AFNE01.JPG,AFNE01.JPG,AFNE01.JPG,AFNE01.JPG,,,,,3,6,36,6,,,,,,,,,,,,,,,,,,,AFSA09.jpg,AFSA18.jpg,AFNE05.jpg,AFNE13.jpg,AFNE13.jpg,FN,3,num_4,32,num_2,1.01677882392,,,2017_May_02_1935,60.0038299081,MAFE4ImagesEEG,001,200263,
AFNE01.JPG,AFNE01.JPG,AFNE01.JPG,AFNE01.JPG,AFNE01.JPG,AFNE01.JPG,,,,,3,7,37,0,,,,,,,,,,,,,,,,,,,AFSA08.jpg,AFNE11.jpg,AFSA18.jpg,AFNE17.jpg,AFSA08.jpg,FS,4,num_8,32,num_2,1.03347650054,,,2017_May_02_1935,60.0038299081,MAFE4ImagesEEG,001,200263,
AFNE01.JPG,AFNE01.JPG,AFNE01.JPG,AFNE01.JPG,AFNE01.JPG,AFNE01.JPG,,,,,3,8,38,5,,,,,,,,,,,,,,,,,,,AFNE10.jpg,AFSA03.jpg,AFSA04.jpg,AFNE07.jpg,AFNE07.jpg,FN,3,num_4,32,num_8,0.650141333696,,,2017_May_02_1935,60.0038299081,MAFE4ImagesEEG,001,200263,
AFNE01.JPG,AFNE01.JPG,AFNE01.JPG,AFNE01.JPG,AFNE01.JPG,AFNE01.JPG,,,,,3,9,39,7,,,,,,,,,,,,,,,,,,,AFNE15.jpg,AFSA09.jpg,AFNE02.jpg,AFSA10.jpg,AFNE15.jpg,FN,3,num_8,16,num_8,0.666781598236,,,2017_May_02_1935,60.0038299081,MAFE4ImagesEEG,001,200263,
AFNE01.JPG,AFNE01.JPG,AFNE01.JPG,AFNE01.JPG,AFNE01.JPG,AFNE01.JPG,,,,,4,0,40,6,,,,,,,,,,,,,,,,,,,AFSA03.jpg,AFNE08.jpg,AFNE01.jpg,AFSA02.jpg,AFNE01.jpg,FN,3,num_2,32,num_4,0.866932088742,,,2017_May_02_1935,60.0038299081,MAFE4ImagesEEG,001,200263,
AFNE01.JPG,AFNE01.JPG,AFNE01.JPG,AFNE01.JPG,AFNE01.JPG,AFNE01.JPG,,,,,4,1,41,9,,,,,,,,,,,,,,,,,,,AFNE06.jpg,AFNE02.jpg,AFSA07.jpg,AFSA06.jpg,AFSA06.jpg,FS,4,num_4,32,num_2,1.21679877373,,,2017_May_02_1935,60.0038299081,MAFE4ImagesEEG,001,200263,
AFNE01.JPG,AFNE01.JPG,AFNE01.JPG,AFNE01.JPG,AFNE01.JPG,AFNE01.JPG,,,,,4,2,42,0,,,,,,,,,,,,,,,,,,,AFSA10.jpg,AFSA12.jpg,AFNE09.jpg,AFNE08.jpg,AFNE08.jpg,FN,3,num_4,16,num_4,0.833441796713,,,2017_May_02_1935,60.0038299081,MAFE4ImagesEEG,001,200263,
AFNE01.JPG,AFNE01.JPG,AFNE01.JPG,AFNE01.JPG,AFNE01.JPG,AFNE01.JPG,,,,,4,3,43,1,,,,,,,,,,,,,,,,,,,AFNE05.jpg,AFSA05.jpg,AFSA08.jpg,AFNE03.jpg,AFSA05.jpg,FS,4,num_6,32,num_2,3.38325049193,,,2017_May_02_1935,60.0038299081,MAFE4ImagesEEG,001,200263,
AFNE01.JPG,AFNE01.JPG,AFNE01.JPG,AFNE01.JPG,AFNE01.JPG,AFNE01.JPG,,,,,4,4,44,2,,,,,,,,,,,,,,,,,,,AFSA08.jpg,AFNE11.jpg,AFNE12.jpg,AFSA13.jpg,AFSA08.jpg,FS,4,num_8,16,num_8,1.33342175046,,,2017_May_02_1935,60.0038299081,MAFE4ImagesEEG,001,200263,
AFNE01.JPG,AFNE01.JPG,AFNE01.JPG,AFNE01.JPG,AFNE01.JPG,AFNE01.JPG,,,,,4,5,45,8,,,,,,,,,,,,,,,,,,,AFSA02.jpg,AFNE01.jpg,AFSA10.jpg,AFNE20.jpg,AFNE20.jpg,FN,3,num_4,16,num_4,1.06677723606,,,2017_May_02_1935,60.0038299081,MAFE4ImagesEEG,001,200263,
AFNE01.JPG,AFNE01.JPG,AFNE01.JPG,AFNE01.JPG,AFNE01.JPG,AFNE01.JPG,,,,,4,6,46,4,,,,,,,,,,,,,,,,,,,AFSA19.jpg,AFNE05.jpg,AFSA10.jpg,AFNE11.jpg,AFNE05.jpg,FN,3,num_6,16,num_6,0.666773579782,,,2017_May_02_1935,60.0038299081,MAFE4ImagesEEG,001,200263,
AFNE01.JPG,AFNE01.JPG,AFNE01.JPG,AFNE01.JPG,AFNE01.JPG,AFNE01.JPG,,,,,4,7,47,7,,,,,,,,,,,,,,,,,,,AFNE13.jpg,AFNE05.jpg,AFSA07.jpg,AFSA04.jpg,AFNE05.jpg,FN,3,num_6,16,num_6,0.566752699669,,,2017_May_02_1935,60.0038299081,MAFE4ImagesEEG,001,200263,
AFNE01.JPG,AFNE01.JPG,AFNE01.JPG,AFNE01.JPG,AFNE01.JPG,AFNE01.JPG,,,,,4,8,48,5,,,,,,,,,,,,,,,,,,,AFSA05.jpg,AFSA19.jpg,AFNE01.jpg,AFNE19.jpg,AFSA05.jpg,FS,4,num_8,32,num_4,1.68339139246,,,2017_May_02_1935,60.0038299081,MAFE4ImagesEEG,001,200263,
AFNE01.JPG,AFNE01.JPG,AFNE01.JPG,AFNE01.JPG,AFNE01.JPG,AFNE01.JPG,,,,,4,9,49,3,,,,,,,,,,,,,,,,,,,AFNE08.jpg,AFSA05.jpg,AFNE18.jpg,AFSA20.jpg,AFNE08.jpg,FN,3,num_8,32,num_4,1.13344477955,,,2017_May_02_1935,60.0038299081,MAFE4ImagesEEG,001,200263,
AFNE01.JPG,AFNE01.JPG,AFNE01.JPG,AFNE01.JPG,AFNE01.JPG,AFNE01.JPG,,,,,5,0,50,6,,,,,,,,,,,,,,,,,,,AFNE08.jpg,AFSA06.jpg,AFNE09.jpg,AFSA11.jpg,AFNE09.jpg,FN,3,num_2,32,num_8,2.1166444663,,,2017_May_02_1935,60.0038299081,MAFE4ImagesEEG,001,200263,
AFNE01.JPG,AFNE01.JPG,AFNE01.JPG,AFNE01.JPG,AFNE01.JPG,AFNE01.JPG,,,,,5,1,51,5,,,,,,,,,,,,,,,,,,,AFSA05.jpg,AFSA14.jpg,AFNE02.jpg,AFNE08.jpg,AFNE08.jpg,FN,3,num_4,32,num_6,1.11656460213,,,2017_May_02_1935,60.0038299081,MAFE4ImagesEEG,001,200263,
AFNE01.JPG,AFNE01.JPG,AFNE01.JPG,AFNE01.JPG,AFNE01.JPG,AFNE01.JPG,,,,,5,2,52,3,,,,,,,,,,,,,,,,,,,AFSA13.jpg,AFNE14.jpg,AFNE19.jpg,AFSA04.jpg,AFNE14.jpg,FN,3,num_6,16,num_6,1.08378699189,,,2017_May_02_1935,60.0038299081,MAFE4ImagesEEG,001,200263,
AFNE01.JPG,AFNE01.JPG,AFNE01.JPG,AFNE01.JPG,AFNE01.JPG,AFNE01.JPG,,,,,5,3,53,7,,,,,,,,,,,,,,,,,,,AFNE18.jpg,AFSA19.jpg,AFNE12.jpg,AFSA14.jpg,AFSA19.jpg,FS,4,num_6,48,None,,,,2017_May_02_1935,60.0038299081,MAFE4ImagesEEG,001,200263,
AFNE01.JPG,AFNE01.JPG,AFNE01.JPG,AFNE01.JPG,AFNE01.JPG,AFNE01.JPG,,,,,5,4,54,4,,,,,,,,,,,,,,,,,,,AFNE14.jpg,AFNE05.jpg,AFSA16.jpg,AFSA07.jpg,AFNE14.jpg,FN,3,num_8,48,None,,,,2017_May_02_1935,60.0038299081,MAFE4ImagesEEG,001,200263,
AFNE01.JPG,AFNE01.JPG,AFNE01.JPG,AFNE01.JPG,AFNE01.JPG,AFNE01.JPG,,,,,5,5,55,1,,,,,,,,,,,,,,,,,,,AFNE11.jpg,AFSA02.jpg,AFSA15.jpg,AFNE04.jpg,AFNE04.jpg,FN,3,num_4,16,num_4,1.00010424014,,,2017_May_02_1935,60.0038299081,MAFE4ImagesEEG,001,200263,
AFNE01.JPG,AFNE01.JPG,AFNE01.JPG,AFNE01.JPG,AFNE01.JPG,AFNE01.JPG,,,,,5,6,56,8,,,,,,,,,,,,,,,,,,,AFNE09.jpg,AFSA06.jpg,AFSA18.jpg,AFNE05.jpg,AFSA06.jpg,FS,4,num_6,16,num_6,1.20008153189,,,2017_May_02_1935,60.0038299081,MAFE4ImagesEEG,001,200263,
AFNE01.JPG,AFNE01.JPG,AFNE01.JPG,AFNE01.JPG,AFNE01.JPG,AFNE01.JPG,,,,,5,7,57,2,,,,,,,,,,,,,,,,,,,AFNE18.jpg,AFSA16.jpg,AFSA04.jpg,AFNE04.jpg,AFNE04.jpg,FN,3,num_4,16,num_4,0.816639558878,,,2017_May_02_1935,60.0038299081,MAFE4ImagesEEG,001,200263,
AFNE01.JPG,AFNE01.JPG,AFNE01.JPG,AFNE01.JPG,AFNE01.JPG,AFNE01.JPG,,,,,5,8,58,9,,,,,,,,,,,,,,,,,,,AFNE14.jpg,AFNE01.jpg,AFSA07.jpg,AFSA13.jpg,AFNE01.jpg,FN,3,num_6,48,None,,,,2017_May_02_1935,60.0038299081,MAFE4ImagesEEG,001,200263,
AFNE01.JPG,AFNE01.JPG,AFNE01.JPG,AFNE01.JPG,AFNE01.JPG,AFNE01.JPG,,,,,5,9,59,0,,,,,,,,,,,,,,,,,,,AFSA11.jpg,AFNE19.jpg,AFSA15.jpg,AFNE02.jpg,AFNE02.jpg,FN,3,num_4,16,num_4,1.10010523442,,,2017_May_02_1935,60.0038299081,MAFE4ImagesEEG,001,200263,
,,,,,,,,,,,,,,,,,,,,,,,,,,,,,,,,,,,,,,,,,,,space,30.5979881962,2017_May_02_1935,60.0038299081,MAFE4ImagesEEG,001,200263,
AFNE01.JPG,AFNE01.JPG,AFNE01.JPG,AFNE01.JPG,AFNE01.JPG,AFNE01.JPG,,,,,,,,,0,0,0,5,,,,,,,,,,,,,,,AMSA12.jpg,AMSA09.jpg,AMNE18.jpg,AMNE09.jpg,AMSA09.jpg,MS,2,num_6,32,num_8,0.650160257239,,,2017_May_02_1935,60.0038299081,MAFE4ImagesEEG,001,200263,
AFNE01.JPG,AFNE01.JPG,AFNE01.JPG,AFNE01.JPG,AFNE01.JPG,AFNE01.JPG,,,,,,,,,0,1,1,1,,,,,,,,,,,,,,,AMNE03.jpg,AMSA04.jpg,AMNE08.jpg,AMSA17.jpg,AMNE08.jpg,MN,1,num_2,16,num_2,1.18347590719,,,2017_May_02_1935,60.0038299081,MAFE4ImagesEEG,001,200263,
AFNE01.JPG,AFNE01.JPG,AFNE01.JPG,AFNE01.JPG,AFNE01.JPG,AFNE01.JPG,,,,,,,,,0,2,2,6,,,,,,,,,,,,,,,AMSA07.jpg,AMNE20.jpg,AMSA02.jpg,AMNE01.jpg,AMSA07.jpg,MS,2,num_8,16,num_8,0.883442133199,,,2017_May_02_1935,60.0038299081,MAFE4ImagesEEG,001,200263,
AFNE01.JPG,AFNE01.JPG,AFNE01.JPG,AFNE01.JPG,AFNE01.JPG,AFNE01.JPG,,,,,,,,,0,3,3,4,,,,,,,,,,,,,,,AMNE18.jpg,AMNE19.jpg,AMSA12.jpg,AMSA04.jpg,AMNE19.jpg,MN,1,num_6,16,num_6,0.633586706594,,,2017_May_02_1935,60.0038299081,MAFE4ImagesEEG,001,200263,
AFNE01.JPG,AFNE01.JPG,AFNE01.JPG,AFNE01.JPG,AFNE01.JPG,AFNE01.JPG,,,,,,,,,0,4,4,2,,,,,,,,,,,,,,,AMNE19.jpg,AMNE05.jpg,AMSA02.jpg,AMSA08.jpg,AMNE05.jpg,MN,1,num_6,32,num_8,1.11678462918,,,2017_May_02_1935,60.0038299081,MAFE4ImagesEEG,001,200263,
AFNE01.JPG,AFNE01.JPG,AFNE01.JPG,AFNE01.JPG,AFNE01.JPG,AFNE01.JPG,,,,,,,,,0,5,5,8,,,,,,,,,,,,,,,AMSA16.jpg,AMNE01.jpg,AMSA13.jpg,AMNE12.jpg,AMNE12.jpg,MN,1,num_4,32,num_8,0.950190182077,,,2017_May_02_1935,60.0038299081,MAFE4ImagesEEG,001,200263,
AFNE01.JPG,AFNE01.JPG,AFNE01.JPG,AFNE01.JPG,AFNE01.JPG,AFNE01.JPG,,,,,,,,,0,6,6,0,,,,,,,,,,,,,,,AMNE15.jpg,AMSA05.jpg,AMNE06.jpg,AMSA03.jpg,AMNE06.jpg,MN,1,num_2,32,num_8,1.3333976951,,,2017_May_02_1935,60.0038299081,MAFE4ImagesEEG,001,200263,
AFNE01.JPG,AFNE01.JPG,AFNE01.JPG,AFNE01.JPG,AFNE01.JPG,AFNE01.JPG,,,,,,,,,0,7,7,9,,,,,,,,,,,,,,,AMSA05.jpg,AMNE12.jpg,AMNE02.jpg,AMSA02.jpg,AMNE12.jpg,MN,1,num_6,16,num_6,0.583453904605,,,2017_May_02_1935,60.0038299081,MAFE4ImagesEEG,001,200263,
AFNE01.JPG,AFNE01.JPG,AFNE01.JPG,AFNE01.JPG,AFNE01.JPG,AFNE01.JPG,,,,,,,,,0,8,8,7,,,,,,,,,,,,,,,AMSA07.jpg,AMSA14.jpg,AMNE12.jpg,AMNE20.jpg,AMSA14.jpg,MS,2,num_6,16,num_6,0.51679405896,,,2017_May_02_1935,60.0038299081,MAFE4ImagesEEG,001,200263,
AFNE01.JPG,AFNE01.JPG,AFNE01.JPG,AFNE01.JPG,AFNE01.JPG,AFNE01.JPG,,,,,,,,,0,9,9,3,,,,,,,,,,,,,,,AMSA19.jpg,AMNE02.jpg,AMNE01.jpg,AMSA03.jpg,AMSA03.jpg,MS,2,num_4,16,num_4,0.700140387518,,,2017_May_02_1935,60.0038299081,MAFE4ImagesEEG,001,200263,
AFNE01.JPG,AFNE01.JPG,AFNE01.JPG,AFNE01.JPG,AFNE01.JPG,AFNE01.JPG,,,,,,,,,1,0,10,9,,,,,,,,,,,,,,,AMNE03.jpg,AMNE14.jpg,AMSA05.jpg,AMSA16.jpg,AMNE03.jpg,MN,1,num_8,16,num_8,1.08342519822,,,2017_May_02_1935,60.0038299081,MAFE4ImagesEEG,001,200263,
AFNE01.JPG,AFNE01.JPG,AFNE01.JPG,AFNE01.JPG,AFNE01.JPG,AFNE01.JPG,,,,,,,,,1,1,11,1,,,,,,,,,,,,,,,AMSA03.jpg,AMNE19.jpg,AMSA17.jpg,AMNE11.jpg,AMSA03.jpg,MS,2,num_8,32,num_2,1.20009853109,,,2017_May_02_1935,60.0038299081,MAFE4ImagesEEG,001,200263,
AFNE01.JPG,AFNE01.JPG,AFNE01.JPG,AFNE01.JPG,AFNE01.JPG,AFNE01.JPG,,,,,,,,,1,2,12,8,,,,,,,,,,,,,,,AMSA15.jpg,AMSA14.jpg,AMNE18.jpg,AMNE16.jpg,AMNE18.jpg,MN,1,num_2,32,num_4,3.48321620468,,,2017_May_02_1935,60.0038299081,MAFE4ImagesEEG,001,200263,
AFNE01.JPG,AFNE01.JPG,AFNE01.JPG,AFNE01.JPG,AFNE01.JPG,AFNE01.JPG,,,,,,,,,1,3,13,0,,,,,,,,,,,,,,,AMSA01.jpg,AMNE18.jpg,AMNE20.jpg,AMSA03.jpg,AMSA03.jpg,MS,2,num_4,32,num_2,4.63315467094,,,2017_May_02_1935,60.0038299081,MAFE4ImagesEEG,001,200263,
AFNE01.JPG,AFNE01.JPG,AFNE01.JPG,AFNE01.JPG,AFNE01.JPG,AFNE01.JPG,,,,,,,,,1,4,14,5,,,,,,,,,,,,,,,AMSA13.jpg,AMNE08.jpg,AMNE10.jpg,AMSA18.jpg,AMNE10.jpg,MN,1,num_2,32,num_6,0.766759178368,,,2017_May_02_1935,60.0038299081,MAFE4ImagesEEG,001,200263,
AFNE01.JPG,AFNE01.JPG,AFNE01.JPG,AFNE01.JPG,AFNE01.JPG,AFNE01.JPG,,,,,,,,,1,5,15,6,,,,,,,,,,,,,,,AMSA09.jpg,AMSA14.jpg,AMNE12.jpg,AMNE09.jpg,AMSA09.jpg,MS,2,num_8,16,num_8,0.683502368163,,,2017_May_02_1935,60.0038299081,MAFE4ImagesEEG,001,200263,
AFNE01.JPG,AFNE01.JPG,AFNE01.JPG,AFNE01.JPG,AFNE01.JPG,AFNE01.JPG,,,,,,,,,1,6,16,2,,,,,,,,,,,,,,,AMSA16.jpg,AMNE12.jpg,AMSA09.jpg,AMNE05.jpg,AMSA09.jpg,MS,2,num_2,32,num_6,0.48346638144,,,2017_May_02_1935,60.0038299081,MAFE4ImagesEEG,001,200263,
AFNE01.JPG,AFNE01.JPG,AFNE01.JPG,AFNE01.JPG,AFNE01.JPG,AFNE01.JPG,,,,,,,,,1,7,17,3,,,,,,,,,,,,,,,AMNE14.jpg,AMSA12.jpg,AMNE13.jpg,AMSA15.jpg,AMSA12.jpg,MS,2,num_6,16,num_6,0.683411919745,,,2017_May_02_1935,60.0038299081,MAFE4ImagesEEG,001,200263,
AFNE01.JPG,AFNE01.JPG,AFNE01.JPG,AFNE01.JPG,AFNE01.JPG,AFNE01.JPG,,,,,,,,,1,8,18,4,,,,,,,,,,,,,,,AMNE06.jpg,AMSA15.jpg,AMSA11.jpg,AMNE01.jpg,AMNE01.jpg,MN,1,num_4,16,num_4,1.1001158189,,,2017_May_02_1935,60.0038299081,MAFE4ImagesEEG,001,200263,
AFNE01.JPG,AFNE01.JPG,AFNE01.JPG,AFNE01.JPG,AFNE01.JPG,AFNE01.JPG,,,,,,,,,1,9,19,7,,,,,,,,,,,,,,,AMNE08.jpg,AMNE12.jpg,AMSA17.jpg,AMSA06.jpg,AMNE12.jpg,MN,1,num_6,16,num_6,0.866730664857,,,2017_May_02_1935,60.0038299081,MAFE4ImagesEEG,001,200263,
AFNE01.JPG,AFNE01.JPG,AFNE01.JPG,AFNE01.JPG,AFNE01.JPG,AFNE01.JPG,,,,,,,,,2,0,20,1,,,,,,,,,,,,,,,AMNE07.jpg,AMNE03.jpg,AMSA10.jpg,AMSA17.jpg,AMNE03.jpg,MN,1,num_6,16,num_6,0.650130428607,,,2017_May_02_1935,60.0038299081,MAFE4ImagesEEG,001,200263,
AFNE01.JPG,AFNE01.JPG,AFNE01.JPG,AFNE01.JPG,AFNE01.JPG,AFNE01.JPG,,,,,,,,,2,1,21,2,,,,,,,,,,,,,,,AMNE15.jpg,AMSA05.jpg,AMNE20.jpg,AMSA08.jpg,AMNE15.jpg,MN,1,num_8,32,num_6,2.03338573151,,,2017_May_02_1935,60.0038299081,MAFE4ImagesEEG,001,200263,
AFNE01.JPG,AFNE01.JPG,AFNE01.JPG,AFNE01.JPG,AFNE01.JPG,AFNE01.JPG,,,,,,,,,2,2,22,5,,,,,,,,,,,,,,,AMNE07.jpg,AMSA19.jpg,AMNE01.jpg,AMSA07.jpg,AMNE01.jpg,MN,1,num_2,16,num_2,0.500147379469,,,2017_May_02_1935,60.0038299081,MAFE4ImagesEEG,001,200263,
AFNE01.JPG,AFNE01.JPG,AFNE01.JPG,AFNE01.JPG,AFNE01.JPG,AFNE01.JPG,,,,,,,,,2,3,23,6,,,,,,,,,,,,,,,AMSA01.jpg,AMNE14.jpg,AMSA09.jpg,AMNE17.jpg,AMSA01.jpg,MS,2,num_8,32,num_6,3.7829237869,,,2017_May_02_1935,60.0038299081,MAFE4ImagesEEG,001,200263,
AFNE01.JPG,AFNE01.JPG,AFNE01.JPG,AFNE01.JPG,AFNE01.JPG,AFNE01.JPG,,,,,,,,,2,4,24,4,,,,,,,,,,,,,,,AMSA10.jpg,AMSA08.jpg,AMNE06.jpg,AMNE11.jpg,AMNE06.jpg,MN,1,num_2,32,num_4,4.21649439237,,,2017_May_02_1935,60.0038299081,MAFE4ImagesEEG,001,200263,
AFNE01.JPG,AFNE01.JPG,AFNE01.JPG,AFNE01.JPG,AFNE01.JPG,AFNE01.JPG,,,,,,,,,2,5,25,8,,,,,,,,,,,,,,,AMNE14.jpg,AMNE09.jpg,AMSA12.jpg,AMSA05.jpg,AMNE14.jpg,MN,1,num_8,16,num_8,1.88336579734,,,2017_May_02_1935,60.0038299081,MAFE4ImagesEEG,001,200263,
AFNE01.JPG,AFNE01.JPG,AFNE01.JPG,AFNE01.JPG,AFNE01.JPG,AFNE01.JPG,,,,,,,,,2,6,26,0,,,,,,,,,,,,,,,AMNE03.jpg,AMSA05.jpg,AMNE05.jpg,AMSA01.jpg,AMNE05.jpg,MN,1,num_2,32,num_6,1.700051222,,,2017_May_02_1935,60.0038299081,MAFE4ImagesEEG,001,200263,
AFNE01.JPG,AFNE01.JPG,AFNE01.JPG,AFNE01.JPG,AFNE01.JPG,AFNE01.JPG,,,,,,,,,2,7,27,7,,,,,,,,,,,,,,,AMNE14.jpg,AMSA18.jpg,AMSA11.jpg,AMNE04.jpg,AMSA18.jpg,MS,2,num_6,16,num_6,0.533515791176,,,2017_May_02_1935,60.0038299081,MAFE4ImagesEEG,001,200263,
AFNE01.JPG,AFNE01.JPG,AFNE01.JPG,AFNE01.JPG,AFNE01.JPG,AFNE01.JPG,,,,,,,,,2,8,28,3,,,,,,,,,,,,,,,AMNE14.jpg,AMSA14.jpg,AMNE17.jpg,AMSA02.jpg,AMSA02.jpg,MS,2,num_4,32,num_6,1.0334322385,,,2017_May_02_1935,60.0038299081,MAFE4ImagesEEG,001,200263,
AFNE01.JPG,AFNE01.JPG,AFNE01.JPG,AFNE01.JPG,AFNE01.JPG,AFNE01.JPG,,,,,,,,,2,9,29,9,,,,,,,,,,,,,,,AMNE12.jpg,AMSA20.jpg,AMSA08.jpg,AMNE16.jpg,AMNE12.jpg,MN,1,num_8,16,num_8,0.766760782106,,,2017_May_02_1935,60.0038299081,MAFE4ImagesEEG,001,200263,
AFNE01.JPG,AFNE01.JPG,AFNE01.JPG,AFNE01.JPG,AFNE01.JPG,AFNE01.JPG,,,,,,,,,3,0,30,6,,,,,,,,,,,,,,,AMNE19.jpg,AMSA12.jpg,AMSA14.jpg,AMNE12.jpg,AMSA14.jpg,MS,2,num_2,16,num_2,0.883459774079,,,2017_May_02_1935,60.0038299081,MAFE4ImagesEEG,001,200263,
AFNE01.JPG,AFNE01.JPG,AFNE01.JPG,AFNE01.JPG,AFNE01.JPG,AFNE01.JPG,,,,,,,,,3,1,31,2,,,,,,,,,,,,,,,AMNE19.jpg,AMSA09.jpg,AMSA05.jpg,AMNE13.jpg,AMSA09.jpg,MS,2,num_6,16,num_6,0.700127237244,,,2017_May_02_1935,60.0038299081,MAFE4ImagesEEG,001,200263,
AFNE01.JPG,AFNE01.JPG,AFNE01.JPG,AFNE01.JPG,AFNE01.JPG,AFNE01.JPG,,,,,,,,,3,2,32,7,,,,,,,,,,,,,,,AMSA07.jpg,AMNE11.jpg,AMSA19.jpg,AMNE03.jpg,AMNE03.jpg,MN,1,num_4,32,num_2,1.93337736023,,,2017_May_02_1935,60.0038299081,MAFE4ImagesEEG,001,200263,
AFNE01.JPG,AFNE01.JPG,AFNE01.JPG,AFNE01.JPG,AFNE01.JPG,AFNE01.JPG,,,,,,,,,3,3,33,8,,,,,,,,,,,,,,,AMNE20.jpg,AMSA02.jpg,AMSA01.jpg,AMNE15.jpg,AMNE15.jpg,MN,1,num_4,16,num_4,1.6833843363,,,2017_May_02_1935,60.0038299081,MAFE4ImagesEEG,001,200263,
AFNE01.JPG,AFNE01.JPG,AFNE01.JPG,AFNE01.JPG,AFNE01.JPG,AFNE01.JPG,,,,,,,,,3,4,34,9,,,,,,,,,,,,,,,AMNE02.jpg,AMNE13.jpg,AMSA01.jpg,AMSA15.jpg,AMNE13.jpg,MN,1,num_6,16,num_6,0.866802830948,,,2017_May_02_1935,60.0038299081,MAFE4ImagesEEG,001,200263,
AFNE01.JPG,AFNE01.JPG,AFNE01.JPG,AFNE01.JPG,AFNE01.JPG,AFNE01.JPG,,,,,,,,,3,5,35,0,,,,,,,,,,,,,,,AMNE16.jpg,AMNE19.jpg,AMSA08.jpg,AMSA03.jpg,AMSA08.jpg,MS,2,num_2,32,num_8,1.000161011,,,2017_May_02_1935,60.0038299081,MAFE4ImagesEEG,001,200263,
AFNE01.JPG,AFNE01.JPG,AFNE01.JPG,AFNE01.JPG,AFNE01.JPG,AFNE01.JPG,,,,,,,,,3,6,36,4,,,,,,,,,,,,,,,AMSA15.jpg,AMNE20.jpg,AMNE02.jpg,AMSA06.jpg,AMNE20.jpg,MN,1,num_6,16,num_6,0.900115754921,,,2017_May_02_1935,60.0038299081,MAFE4ImagesEEG,001,200263,
AFNE01.JPG,AFNE01.JPG,AFNE01.JPG,AFNE01.JPG,AFNE01.JPG,AFNE01.JPG,,,,,,,,,3,7,37,1,,,,,,,,,,,,,,,AMSA10.jpg,AMSA04.jpg,AMNE15.jpg,AMNE04.jpg,AMNE15.jpg,MN,1,num_2,32,num_6,0.816756307846,,,2017_May_02_1935,60.0038299081,MAFE4ImagesEEG,001,200263,
AFNE01.JPG,AFNE01.JPG,AFNE01.JPG,AFNE01.JPG,AFNE01.JPG,AFNE01.JPG,,,,,,,,,3,8,38,3,,,,,,,,,,,,,,,AMSA13.jpg,AMSA03.jpg,AMNE11.jpg,AMNE14.jpg,AMNE11.jpg,MN,1,num_2,32,num_8,1.03346880269,,,2017_May_02_1935,60.0038299081,MAFE4ImagesEEG,001,200263,
AFNE01.JPG,AFNE01.JPG,AFNE01.JPG,AFNE01.JPG,AFNE01.JPG,AFNE01.JPG,,,,,,,,,3,9,39,5,,,,,,,,,,,,,,,AMNE03.jpg,AMSA08.jpg,AMNE06.jpg,AMSA15.jpg,AMNE03.jpg,MN,1,num_8,32,num_4,0.650139409117,,,2017_May_02_1935,60.0038299081,MAFE4ImagesEEG,001,200263,
AFNE01.JPG,AFNE01.JPG,AFNE01.JPG,AFNE01.JPG,AFNE01.JPG,AFNE01.JPG,,,,,,,,,4,0,40,3,,,,,,,,,,,,,,,AMSA03.jpg,AMSA05.jpg,AMNE19.jpg,AMNE14.jpg,AMSA03.jpg,MS,2,num_8,16,num_8,0.816771382466,,,2017_May_02_1935,60.0038299081,MAFE4ImagesEEG,001,200263,
AFNE01.JPG,AFNE01.JPG,AFNE01.JPG,AFNE01.JPG,AFNE01.JPG,AFNE01.JPG,,,,,,,,,4,1,41,6,,,,,,,,,,,,,,,AMSA17.jpg,AMSA04.jpg,AMNE04.jpg,AMNE07.jpg,AMSA17.jpg,MS,2,num_8,16,num_8,3.96637788392,,,2017_May_02_1935,60.0038299081,MAFE4ImagesEEG,001,200263,
AFNE01.JPG,AFNE01.JPG,AFNE01.JPG,AFNE01.JPG,AFNE01.JPG,AFNE01.JPG,,,,,,,,,4,2,42,5,,,,,,,,,,,,,,,AMSA15.jpg,AMNE18.jpg,AMNE20.jpg,AMSA01.jpg,AMNE20.jpg,MN,1,num_2,32,num_6,0.950091715204,,,2017_May_02_1935,60.0038299081,MAFE4ImagesEEG,001,200263,
AFNE01.JPG,AFNE01.JPG,AFNE01.JPG,AFNE01.JPG,AFNE01.JPG,AFNE01.JPG,,,,,,,,,4,3,43,4,,,,,,,,,,,,,,,AMSA17.jpg,AMNE17.jpg,AMNE01.jpg,AMSA08.jpg,AMSA17.jpg,MS,2,num_8,16,num_8,1.93305918691,,,2017_May_02_1935,60.0038299081,MAFE4ImagesEEG,001,200263,
AFNE01.JPG,AFNE01.JPG,AFNE01.JPG,AFNE01.JPG,AFNE01.JPG,AFNE01.JPG,,,,,,,,,4,4,44,2,,,,,,,,,,,,,,,AMSA18.jpg,AMSA10.jpg,AMNE11.jpg,AMNE01.jpg,AMNE01.jpg,MN,1,num_4,16,num_4,2.98329526675,,,2017_May_02_1935,60.0038299081,MAFE4ImagesEEG,001,200263,
AFNE01.JPG,AFNE01.JPG,AFNE01.JPG,AFNE01.JPG,AFNE01.JPG,AFNE01.JPG,,,,,,,,,4,5,45,0,,,,,,,,,,,,,,,AMNE06.jpg,AMSA06.jpg,AMSA15.jpg,AMNE12.jpg,AMSA15.jpg,MS,2,num_2,32,num_6,1.01678074826,,,2017_May_02_1935,60.0038299081,MAFE4ImagesEEG,001,200263,
AFNE01.JPG,AFNE01.JPG,AFNE01.JPG,AFNE01.JPG,AFNE01.JPG,AFNE01.JPG,,,,,,,,,4,6,46,8,,,,,,,,,,,,,,,AMSA03.jpg,AMSA02.jpg,AMNE08.jpg,AMNE20.jpg,AMSA03.jpg,MS,2,num_8,32,num_4,4.83314350923,,,2017_May_02_1935,60.0038299081,MAFE4ImagesEEG,001,200263,
AFNE01.JPG,AFNE01.JPG,AFNE01.JPG,AFNE01.JPG,AFNE01.JPG,AFNE01.JPG,,,,,,,,,4,7,47,7,,,,,,,,,,,,,,,AMNE07.jpg,AMSA06.jpg,AMNE05.jpg,AMSA16.jpg,AMSA06.jpg,MS,2,num_6,48,None,,,,2017_May_02_1935,60.0038299081,MAFE4ImagesEEG,001,200263,
AFNE01.JPG,AFNE01.JPG,AFNE01.JPG,AFNE01.JPG,AFNE01.JPG,AFNE01.JPG,,,,,,,,,4,8,48,9,,,,,,,,,,,,,,,AMNE16.jpg,AMSA10.jpg,AMNE05.jpg,AMSA18.jpg,AMNE05.jpg,MN,1,num_2,32,num_8,1.16678304155,,,2017_May_02_1935,60.0038299081,MAFE4ImagesEEG,001,200263,
AFNE01.JPG,AFNE01.JPG,AFNE01.JPG,AFNE01.JPG,AFNE01.JPG,AFNE01.JPG,,,,,,,,,4,9,49,1,,,,,,,,,,,,,,,AMSA19.jpg,AMNE01.jpg,AMNE14.jpg,AMSA18.jpg,AMNE14.jpg,MN,1,num_2,16,num_2,2.94996534404,,,2017_May_02_1935,60.0038299081,MAFE4ImagesEEG,001,200263,
AFNE01.JPG,AFNE01.JPG,AFNE01.JPG,AFNE01.JPG,AFNE01.JPG,AFNE01.JPG,,,,,,,,,5,0,50,3,,,,,,,,,,,,,,,AMNE15.jpg,AMSA17.jpg,AMSA13.jpg,AMNE12.jpg,AMNE12.jpg,MN,1,num_4,48,None,,,,2017_May_02_1935,60.0038299081,MAFE4ImagesEEG,001,200263,
AFNE01.JPG,AFNE01.JPG,AFNE01.JPG,AFNE01.JPG,AFNE01.JPG,AFNE01.JPG,,,,,,,,,5,1,51,7,,,,,,,,,,,,,,,AMNE09.jpg,AMSA01.jpg,AMNE03.jpg,AMSA09.jpg,AMSA01.jpg,MS,2,num_6,48,None,,,,2017_May_02_1935,60.0038299081,MAFE4ImagesEEG,001,200263,
AFNE01.JPG,AFNE01.JPG,AFNE01.JPG,AFNE01.JPG,AFNE01.JPG,AFNE01.JPG,,,,,,,,,5,2,52,4,,,,,,,,,,,,,,,AMNE14.jpg,AMSA06.jpg,AMSA15.jpg,AMNE16.jpg,AMNE16.jpg,MN,1,num_4,16,num_4,0.700117935659,,,2017_May_02_1935,60.0038299081,MAFE4ImagesEEG,001,200263,
AFNE01.JPG,AFNE01.JPG,AFNE01.JPG,AFNE01.JPG,AFNE01.JPG,AFNE01.JPG,,,,,,,,,5,3,53,0,,,,,,,,,,,,,,,AMNE07.jpg,AMNE11.jpg,AMSA14.jpg,AMSA04.jpg,AMNE07.jpg,MN,1,num_8,48,None,,,,2017_May_02_1935,60.0038299081,MAFE4ImagesEEG,001,200263,
AFNE01.JPG,AFNE01.JPG,AFNE01.JPG,AFNE01.JPG,AFNE01.JPG,AFNE01.JPG,,,,,,,,,5,4,54,9,,,,,,,,,,,,,,,AMNE07.jpg,AMSA10.jpg,AMNE04.jpg,AMSA09.jpg,AMSA09.jpg,MS,2,num_4,16,num_4,1.33342014672,,,2017_May_02_1935,60.0038299081,MAFE4ImagesEEG,001,200263,
AFNE01.JPG,AFNE01.JPG,AFNE01.JPG,AFNE01.JPG,AFNE01.JPG,AFNE01.JPG,,,,,,,,,5,5,55,5,,,,,,,,,,,,,,,AMNE09.jpg,AMSA04.jpg,AMSA10.jpg,AMNE18.jpg,AMSA10.jpg,MS,2,num_2,32,num_4,3.4332931661,,,2017_May_02_1935,60.0038299081,MAFE4ImagesEEG,001,200263,
AFNE01.JPG,AFNE01.JPG,AFNE01.JPG,AFNE01.JPG,AFNE01.JPG,AFNE01.JPG,,,,,,,,,5,6,56,6,,,,,,,,,,,,,,,AMNE12.jpg,AMSA12.jpg,AMNE04.jpg,AMSA05.jpg,AMSA12.jpg,MS,2,num_6,32,num_4,3.56670651305,,,2017_May_02_1935,60.0038299081,MAFE4ImagesEEG,001,200263,
AFNE01.JPG,AFNE01.JPG,AFNE01.JPG,AFNE01.JPG,AFNE01.JPG,AFNE01.JPG,,,,,,,,,5,7,57,2,,,,,,,,,,,,,,,AMNE08.jpg,AMNE01.jpg,AMSA03.jpg,AMSA12.jpg,AMNE01.jpg,MN,1,num_6,16,num_6,0.55019646883,,,2017_May_02_1935,60.0038299081,MAFE4ImagesEEG,001,200263,
AFNE01.JPG,AFNE01.JPG,AFNE01.JPG,AFNE01.JPG,AFNE01.JPG,AFNE01.JPG,,,,,,,,,5,8,58,1,,,,,,,,,,,,,,,AMSA07.jpg,AMNE05.jpg,AMSA14.jpg,AMNE11.jpg,AMNE05.jpg,MN,1,num_6,32,num_4,1.08346240409,,,2017_May_02_1935,60.0038299081,MAFE4ImagesEEG,001,200263,
AFNE01.JPG,AFNE01.JPG,AFNE01.JPG,AFNE01.JPG,AFNE01.JPG,AFNE01.JPG,,,,,,,,,5,9,59,8,,,,,,,,,,,,,,,AMNE12.jpg,AMSA19.jpg,AMNE15.jpg,AMSA14.jpg,AMNE12.jpg,MN,1,num_8,32,num_6,0.816779401153,,,2017_May_02_1935,60.0038299081,MAFE4ImagesEEG,001,200263,
,,,,,,,,,,,,,,,,,,,,,,,,,,,,,,,,,,,,,,,,,,,space,2.6499694176,2017_May_02_1935,60.0038299081,MAFE4ImagesEEG,001,200263,
AFNE01.JPG,AFNE01.JPG,AFNE01.JPG,AFNE01.JPG,AFNE01.JPG,AFNE01.JPG,,,,,,,,,,,,,0,0,0,5,,,,,,,,,,,AFSA07.jpg,AFSA09.jpg,AFNE07.jpg,AFNE16.jpg,AFNE07.jpg,FN,3,num_2,16,num_2,0.633482145611,,,2017_May_02_1935,60.0038299081,MAFE4ImagesEEG,001,200263,
AFNE01.JPG,AFNE01.JPG,AFNE01.JPG,AFNE01.JPG,AFNE01.JPG,AFNE01.JPG,,,,,,,,,,,,,0,1,1,3,,,,,,,,,,,AFNE09.jpg,AFNE07.jpg,AFSA06.jpg,AFSA20.jpg,AFSA06.jpg,FS,4,num_2,32,num_4,0.733463254059,,,2017_May_02_1935,60.0038299081,MAFE4ImagesEEG,001,200263,
AFNE01.JPG,AFNE01.JPG,AFNE01.JPG,AFNE01.JPG,AFNE01.JPG,AFNE01.JPG,,,,,,,,,,,,,0,2,2,6,,,,,,,,,,,AFSA12.jpg,AFNE03.jpg,AFSA07.jpg,AFNE17.jpg,AFNE17.jpg,FN,3,num_4,32,num_2,0.883436039323,,,2017_May_02_1935,60.0038299081,MAFE4ImagesEEG,001,200263,
AFNE01.JPG,AFNE01.JPG,AFNE01.JPG,AFNE01.JPG,AFNE01.JPG,AFNE01.JPG,,,,,,,,,,,,,0,3,3,4,,,,,,,,,,,AFSA15.jpg,AFNE02.jpg,AFNE09.jpg,AFSA01.jpg,AFSA01.jpg,FS,4,num_4,16,num_4,1.83337251702,,,2017_May_02_1935,60.0038299081,MAFE4ImagesEEG,001,200263,
AFNE01.JPG,AFNE01.JPG,AFNE01.JPG,AFNE01.JPG,AFNE01.JPG,AFNE01.JPG,,,,,,,,,,,,,0,4,4,9,,,,,,,,,,,AFNE11.jpg,AFSA13.jpg,AFSA16.jpg,AFNE07.jpg,AFSA16.jpg,FS,4,num_2,32,num_6,0.633483749349,,,2017_May_02_1935,60.0038299081,MAFE4ImagesEEG,001,200263,
AFNE01.JPG,AFNE01.JPG,AFNE01.JPG,AFNE01.JPG,AFNE01.JPG,AFNE01.JPG,,,,,,,,,,,,,0,5,5,8,,,,,,,,,,,AFNE01.jpg,AFSA07.jpg,AFSA15.jpg,AFNE06.jpg,AFSA07.jpg,FS,4,num_6,16,num_6,0.566782207694,,,2017_May_02_1935,60.0038299081,MAFE4ImagesEEG,001,200263,
AFNE01.JPG,AFNE01.JPG,AFNE01.JPG,AFNE01.JPG,AFNE01.JPG,AFNE01.JPG,,,,,,,,,,,,,0,6,6,0,,,,,,,,,,,AFNE04.jpg,AFSA12.jpg,AFNE09.jpg,AFSA13.jpg,AFNE04.jpg,FN,3,num_8,32,num_4,0.68347189785,,,2017_May_02_1935,60.0038299081,MAFE4ImagesEEG,001,200263,
AFNE01.JPG,AFNE01.JPG,AFNE01.JPG,AFNE01.JPG,AFNE01.JPG,AFNE01.JPG,,,,,,,,,,,,,0,7,7,7,,,,,,,,,,,AFSA10.jpg,AFNE17.jpg,AFNE09.jpg,AFSA04.jpg,AFSA04.jpg,FS,4,num_4,16,num_4,4.51651629875,,,2017_May_02_1935,60.0038299081,MAFE4ImagesEEG,001,200263,
AFNE01.JPG,AFNE01.JPG,AFNE01.JPG,AFNE01.JPG,AFNE01.JPG,AFNE01.JPG,,,,,,,,,,,,,0,8,8,2,,,,,,,,,,,AFNE08.jpg,AFSA20.jpg,AFSA03.jpg,AFNE17.jpg,AFSA03.jpg,FS,4,num_2,16,num_2,1.85001502675,,,2017_May_02_1935,60.0038299081,MAFE4ImagesEEG,001,200263,
AFNE01.JPG,AFNE01.JPG,AFNE01.JPG,AFNE01.JPG,AFNE01.JPG,AFNE01.JPG,,,,,,,,,,,,,0,9,9,1,,,,,,,,,,,AFSA20.jpg,AFSA13.jpg,AFNE01.jpg,AFNE02.jpg,AFNE01.jpg,FN,3,num_2,32,num_4,3.19996895245,,,2017_May_02_1935,60.0038299081,MAFE4ImagesEEG,001,200263,
AFNE01.JPG,AFNE01.JPG,AFNE01.JPG,AFNE01.JPG,AFNE01.JPG,AFNE01.JPG,,,,,,,,,,,,,1,0,10,0,,,,,,,,,,,AFSA02.jpg,AFNE02.jpg,AFSA05.jpg,AFNE13.jpg,AFNE13.jpg,FN,3,num_4,32,num_6,4.35013674712,,,2017_May_02_1935,60.0038299081,MAFE4ImagesEEG,001,200263,
AFNE01.JPG,AFNE01.JPG,AFNE01.JPG,AFNE01.JPG,AFNE01.JPG,AFNE01.JPG,,,,,,,,,,,,,1,1,11,9,,,,,,,,,,,AFNE06.jpg,AFSA10.jpg,AFNE18.jpg,AFSA03.jpg,AFNE06.jpg,FN,3,num_8,48,None,,,,2017_May_02_1935,60.0038299081,MAFE4ImagesEEG,001,200263,
AFNE01.JPG,AFNE01.JPG,AFNE01.JPG,AFNE01.JPG,AFNE01.JPG,AFNE01.JPG,,,,,,,,,,,,,1,2,12,4,,,,,,,,,,,AFNE06.jpg,AFSA17.jpg,AFNE09.jpg,AFSA03.jpg,AFNE09.jpg,FN,3,num_2,48,None,,,,2017_May_02_1935,60.0038299081,MAFE4ImagesEEG,001,200263,
AFNE01.JPG,AFNE01.JPG,AFNE01.JPG,AFNE01.JPG,AFNE01.JPG,AFNE01.JPG,,,,,,,,,,,,,1,3,13,2,,,,,,,,,,,AFSA19.jpg,AFSA14.jpg,AFNE14.jpg,AFNE09.jpg,AFSA14.jpg,FS,4,num_6,32,num_8,3.34997092513,,,2017_May_02_1935,60.0038299081,MAFE4ImagesEEG,001,200263,
AFNE01.JPG,AFNE01.JPG,AFNE01.JPG,AFNE01.JPG,AFNE01.JPG,AFNE01.JPG,,,,,,,,,,,,,1,4,14,5,,,,,,,,,,,AFSA14.jpg,AFNE03.jpg,AFSA11.jpg,AFNE02.jpg,AFSA14.jpg,FS,4,num_8,32,num_6,1.36672248598,,,2017_May_02_1935,60.0038299081,MAFE4ImagesEEG,001,200263,
AFNE01.JPG,AFNE01.JPG,AFNE01.JPG,AFNE01.JPG,AFNE01.JPG,AFNE01.JPG,,,,,,,,,,,,,1,5,15,7,,,,,,,,,,,AFSA13.jpg,AFSA15.jpg,AFNE04.jpg,AFNE02.jpg,AFNE04.jpg,FN,3,num_2,48,None,,,,2017_May_02_1935,60.0038299081,MAFE4ImagesEEG,001,200263,
AFNE01.JPG,AFNE01.JPG,AFNE01.JPG,AFNE01.JPG,AFNE01.JPG,AFNE01.JPG,,,,,,,,,,,,,1,6,16,6,,,,,,,,,,,AFSA08.jpg,AFNE05.jpg,AFSA01.jpg,AFNE03.jpg,AFSA01.jpg,FS,4,num_2,48,None,,,,2017_May_02_1935,60.0038299081,MAFE4ImagesEEG,001,200263,
AFNE01.JPG,AFNE01.JPG,AFNE01.JPG,AFNE01.JPG,AFNE01.JPG,AFNE01.JPG,,,,,,,,,,,,,1,7,17,3,,,,,,,,,,,AFNE03.jpg,AFSA02.jpg,AFNE06.jpg,AFSA11.jpg,AFSA02.jpg,FS,4,num_6,16,num_6,0.550137131941,,,2017_May_02_1935,60.0038299081,MAFE4ImagesEEG,001,200263,
AFNE01.JPG,AFNE01.JPG,AFNE01.JPG,AFNE01.JPG,AFNE01.JPG,AFNE01.JPG,,,,,,,,,,,,,1,8,18,1,,,,,,,,,,,AFSA20.jpg,AFSA19.jpg,AFNE09.jpg,AFNE01.jpg,AFNE01.jpg,FN,3,num_4,48,None,,,,2017_May_02_1935,60.0038299081,MAFE4ImagesEEG,001,200263,
AFNE01.JPG,AFNE01.JPG,AFNE01.JPG,AFNE01.JPG,AFNE01.JPG,AFNE01.JPG,,,,,,,,,,,,,1,9,19,8,,,,,,,,,,,AFSA19.jpg,AFSA09.jpg,AFNE02.jpg,AFNE04.jpg,AFSA09.jpg,FS,4,num_6,32,num_4,0.950163560919,,,2017_May_02_1935,60.0038299081,MAFE4ImagesEEG,001,200263,
AFNE01.JPG,AFNE01.JPG,AFNE01.JPG,AFNE01.JPG,AFNE01.JPG,AFNE01.JPG,,,,,,,,,,,,,2,0,20,7,,,,,,,,,,,AFSA08.jpg,AFNE06.jpg,AFNE10.jpg,AFSA16.jpg,AFSA08.jpg,FS,4,num_8,48,None,,,,2017_May_02_1935,60.0038299081,MAFE4ImagesEEG,001,200263,
AFNE01.JPG,AFNE01.JPG,AFNE01.JPG,AFNE01.JPG,AFNE01.JPG,AFNE01.JPG,,,,,,,,,,,,,2,1,21,1,,,,,,,,,,,AFSA18.jpg,AFNE13.jpg,AFNE19.jpg,AFSA14.jpg,AFNE13.jpg,FN,3,num_6,48,None,,,,2017_May_02_1935,60.0038299081,MAFE4ImagesEEG,001,200263,
AFNE01.JPG,AFNE01.JPG,AFNE01.JPG,AFNE01.JPG,AFNE01.JPG,AFNE01.JPG,,,,,,,,,,,,,2,2,22,2,,,,,,,,,,,AFSA20.jpg,AFNE19.jpg,AFSA06.jpg,AFNE09.jpg,AFNE09.jpg,FN,3,num_4,16,num_4,0.650127541972,,,2017_May_02_1935,60.0038299081,MAFE4ImagesEEG,001,200263,
AFNE01.JPG,AFNE01.JPG,AFNE01.JPG,AFNE01.JPG,AFNE01.JPG,AFNE01.JPG,,,,,,,,,,,,,2,3,23,3,,,,,,,,,,,AFNE15.jpg,AFNE18.jpg,AFSA18.jpg,AFSA01.jpg,AFSA01.jpg,FS,4,num_4,32,num_2,0.850133379456,,,2017_May_02_1935,60.0038299081,MAFE4ImagesEEG,001,200263,
AFNE01.JPG,AFNE01.JPG,AFNE01.JPG,AFNE01.JPG,AFNE01.JPG,AFNE01.JPG,,,,,,,,,,,,,2,4,24,9,,,,,,,,,,,AFNE10.jpg,AFNE02.jpg,AFSA08.jpg,AFSA18.jpg,AFNE10.jpg,FN,3,num_8,48,None,,,,2017_May_02_1935,60.0038299081,MAFE4ImagesEEG,001,200263,
AFNE01.JPG,AFNE01.JPG,AFNE01.JPG,AFNE01.JPG,AFNE01.JPG,AFNE01.JPG,,,,,,,,,,,,,2,5,25,8,,,,,,,,,,,AFSA16.jpg,AFSA06.jpg,AFNE08.jpg,AFNE12.jpg,AFSA06.jpg,FS,4,num_6,32,num_8,0.683468690608,,,2017_May_02_1935,60.0038299081,MAFE4ImagesEEG,001,200263,
AFNE01.JPG,AFNE01.JPG,AFNE01.JPG,AFNE01.JPG,AFNE01.JPG,AFNE01.JPG,,,,,,,,,,,,,2,6,26,4,,,,,,,,,,,AFSA08.jpg,AFNE14.jpg,AFSA19.jpg,AFNE13.jpg,AFSA19.jpg,FS,4,num_2,16,num_2,3.76651413389,,,2017_May_02_1935,60.0038299081,MAFE4ImagesEEG,001,200263,
AFNE01.JPG,AFNE01.JPG,AFNE01.JPG,AFNE01.JPG,AFNE01.JPG,AFNE01.JPG,,,,,,,,,,,,,2,7,27,0,,,,,,,,,,,AFSA03.jpg,AFSA10.jpg,AFNE01.jpg,AFNE16.jpg,AFSA10.jpg,FS,4,num_6,32,num_8,4.94982389826,,,2017_May_02_1935,60.0038299081,MAFE4ImagesEEG,001,200263,
AFNE01.JPG,AFNE01.JPG,AFNE01.JPG,AFNE01.JPG,AFNE01.JPG,AFNE01.JPG,,,,,,,,,,,,,2,8,28,6,,,,,,,,,,,AFNE02.jpg,AFSA17.jpg,AFSA10.jpg,AFNE15.jpg,AFSA17.jpg,FS,4,num_6,16,num_6,0.650172766065,,,2017_May_02_1935,60.0038299081,MAFE4ImagesEEG,001,200263,
AFNE01.JPG,AFNE01.JPG,AFNE01.JPG,AFNE01.JPG,AFNE01.JPG,AFNE01.JPG,,,,,,,,,,,,,2,9,29,5,,,,,,,,,,,AFNE05.jpg,AFSA09.jpg,AFSA03.jpg,AFNE15.jpg,AFNE05.jpg,FN,3,num_8,16,num_8,0.466904697707,,,2017_May_02_1935,60.0038299081,MAFE4ImagesEEG,001,200263,
AFNE01.JPG,AFNE01.JPG,AFNE01.JPG,AFNE01.JPG,AFNE01.JPG,AFNE01.JPG,,,,,,,,,,,,,3,0,30,7,,,,,,,,,,,AFSA19.jpg,AFNE09.jpg,AFSA14.jpg,AFNE16.jpg,AFSA19.jpg,FS,4,num_8,32,num_2,0.983498294838,,,2017_May_02_1935,60.0038299081,MAFE4ImagesEEG,001,200263,
AFNE01.JPG,AFNE01.JPG,AFNE01.JPG,AFNE01.JPG,AFNE01.JPG,AFNE01.JPG,,,,,,,,,,,,,3,1,31,3,,,,,,,,,,,AFSA15.jpg,AFNE08.jpg,AFSA06.jpg,AFNE06.jpg,AFNE08.jpg,FN,3,num_6,16,num_6,0.66681078542,,,2017_May_02_1935,60.0038299081,MAFE4ImagesEEG,001,200263,
AFNE01.JPG,AFNE01.JPG,AFNE01.JPG,AFNE01.JPG,AFNE01.JPG,AFNE01.JPG,,,,,,,,,,,,,3,2,32,2,,,,,,,,,,,AFSA04.jpg,AFNE03.jpg,AFSA02.jpg,AFNE10.jpg,AFNE03.jpg,FN,3,num_6,32,num_2,0.566728002625,,,2017_May_02_1935,60.0038299081,MAFE4ImagesEEG,001,200263,
AFNE01.JPG,AFNE01.JPG,AFNE01.JPG,AFNE01.JPG,AFNE01.JPG,AFNE01.JPG,,,,,,,,,,,,,3,3,33,1,,,,,,,,,,,AFNE20.jpg,AFSA13.jpg,AFNE07.jpg,AFSA10.jpg,AFNE07.jpg,FN,3,num_2,32,num_6,0.616801788798,,,2017_May_02_1935,60.0038299081,MAFE4ImagesEEG,001,200263,
AFNE01.JPG,AFNE01.JPG,AFNE01.JPG,AFNE01.JPG,AFNE01.JPG,AFNE01.JPG,,,,,,,,,,,,,3,4,34,9,,,,,,,,,,,AFSA18.jpg,AFNE18.jpg,AFNE17.jpg,AFSA05.jpg,AFSA05.jpg,FS,4,num_4,32,num_6,1.33339577052,,,2017_May_02_1935,60.0038299081,MAFE4ImagesEEG,001,200263,
AFNE01.JPG,AFNE01.JPG,AFNE01.JPG,AFNE01.JPG,AFNE01.JPG,AFNE01.JPG,,,,,,,,,,,,,3,5,35,0,,,,,,,,,,,AFNE02.jpg,AFSA09.jpg,AFSA06.jpg,AFNE16.jpg,AFSA09.jpg,FS,4,num_6,32,num_2,0.816772024147,,,2017_May_02_1935,60.0038299081,MAFE4ImagesEEG,001,200263,
AFNE01.JPG,AFNE01.JPG,AFNE01.JPG,AFNE01.JPG,AFNE01.JPG,AFNE01.JPG,,,,,,,,,,,,,3,6,36,6,,,,,,,,,,,AFNE10.jpg,AFNE17.jpg,AFSA02.jpg,AFSA13.jpg,AFSA02.jpg,FS,4,num_2,32,num_6,1.60006337822,,,2017_May_02_1935,60.0038299081,MAFE4ImagesEEG,001,200263,
AFNE01.JPG,AFNE01.JPG,AFNE01.JPG,AFNE01.JPG,AFNE01.JPG,AFNE01.JPG,,,,,,,,,,,,,3,7,37,8,,,,,,,,,,,AFSA12.jpg,AFNE20.jpg,AFNE16.jpg,AFSA17.jpg,AFNE16.jpg,FN,3,num_2,16,num_2,2.24996415735,,,2017_May_02_1935,60.0038299081,MAFE4ImagesEEG,001,200263,
AFNE01.JPG,AFNE01.JPG,AFNE01.JPG,AFNE01.JPG,AFNE01.JPG,AFNE01.JPG,,,,,,,,,,,,,3,8,38,5,,,,,,,,,,,AFNE05.jpg,AFNE14.jpg,AFSA11.jpg,AFSA20.jpg,AFSA20.jpg,FS,4,num_4,16,num_4,1.23345988616,,,2017_May_02_1935,60.0038299081,MAFE4ImagesEEG,001,200263,
AFNE01.JPG,AFNE01.JPG,AFNE01.JPG,AFNE01.JPG,AFNE01.JPG,AFNE01.JPG,,,,,,,,,,,,,3,9,39,4,,,,,,,,,,,AFNE02.jpg,AFSA01.jpg,AFSA11.jpg,AFNE15.jpg,AFNE02.jpg,FN,3,num_8,32,num_2,0.950094602071,,,2017_May_02_1935,60.0038299081,MAFE4ImagesEEG,001,200263,
AFNE01.JPG,AFNE01.JPG,AFNE01.JPG,AFNE01.JPG,AFNE01.JPG,AFNE01.JPG,,,,,,,,,,,,,4,0,40,1,,,,,,,,,,,AFSA20.jpg,AFSA03.jpg,AFNE10.jpg,AFNE16.jpg,AFNE16.jpg,FN,3,num_4,32,num_2,0.933425470954,,,2017_May_02_1935,60.0038299081,MAFE4ImagesEEG,001,200263,
AFNE01.JPG,AFNE01.JPG,AFNE01.JPG,AFNE01.JPG,AFNE01.JPG,AFNE01.JPG,,,,,,,,,,,,,4,1,41,5,,,,,,,,,,,AFSA20.jpg,AFNE08.jpg,AFNE19.jpg,AFSA11.jpg,AFNE08.jpg,FN,3,num_6,32,num_8,0.866824641358,,,2017_May_02_1935,60.0038299081,MAFE4ImagesEEG,001,200263,
AFNE01.JPG,AFNE01.JPG,AFNE01.JPG,AFNE01.JPG,AFNE01.JPG,AFNE01.JPG,,,,,,,,,,,,,4,2,42,4,,,,,,,,,,,AFNE10.jpg,AFSA06.jpg,AFSA02.jpg,AFNE02.jpg,AFSA02.jpg,FS,4,num_2,32,num_8,0.600182372378,,,2017_May_02_1935,60.0038299081,MAFE4ImagesEEG,001,200263,
AFNE01.JPG,AFNE01.JPG,AFNE01.JPG,AFNE01.JPG,AFNE01.JPG,AFNE01.JPG,,,,,,,,,,,,,4,3,43,9,,,,,,,,,,,AFSA13.jpg,AFNE11.jpg,AFNE03.jpg,AFSA06.jpg,AFSA06.jpg,FS,4,num_4,32,num_6,0.766767517664,,,2017_May_02_1935,60.0038299081,MAFE4ImagesEEG,001,200263,
AFNE01.JPG,AFNE01.JPG,AFNE01.JPG,AFNE01.JPG,AFNE01.JPG,AFNE01.JPG,,,,,,,,,,,,,4,4,44,0,,,,,,,,,,,AFSA20.jpg,AFSA01.jpg,AFNE03.jpg,AFNE10.jpg,AFNE10.jpg,FN,3,num_4,16,num_4,0.583523184061,,,2017_May_02_1935,60.0038299081,MAFE4ImagesEEG,001,200263,
AFNE01.JPG,AFNE01.JPG,AFNE01.JPG,AFNE01.JPG,AFNE01.JPG,AFNE01.JPG,,,,,,,,,,,,,4,5,45,2,,,,,,,,,,,AFNE16.jpg,AFNE02.jpg,AFSA10.jpg,AFSA18.jpg,AFSA18.jpg,FS,4,num_4,32,num_8,0.833442117553,,,2017_May_02_1935,60.0038299081,MAFE4ImagesEEG,001,200263,
AFNE01.JPG,AFNE01.JPG,AFNE01.JPG,AFNE01.JPG,AFNE01.JPG,AFNE01.JPG,,,,,,,,,,,,,4,6,46,3,,,,,,,,,,,AFNE02.jpg,AFSA16.jpg,AFNE17.jpg,AFSA02.jpg,AFSA16.jpg,FS,4,num_6,32,num_8,1.11675319681,,,2017_May_02_1935,60.0038299081,MAFE4ImagesEEG,001,200263,
AFNE01.JPG,AFNE01.JPG,AFNE01.JPG,AFNE01.JPG,AFNE01.JPG,AFNE01.JPG,,,,,,,,,,,,,4,7,47,8,,,,,,,,,,,AFNE17.jpg,AFSA01.jpg,AFSA19.jpg,AFNE07.jpg,AFSA19.jpg,FS,4,num_2,32,num_8,1.33356255479,,,2017_May_02_1935,60.0038299081,MAFE4ImagesEEG,001,200263,
AFNE01.JPG,AFNE01.JPG,AFNE01.JPG,AFNE01.JPG,AFNE01.JPG,AFNE01.JPG,,,,,,,,,,,,,4,8,48,6,,,,,,,,,,,AFSA18.jpg,AFSA15.jpg,AFNE13.jpg,AFNE08.jpg,AFSA15.jpg,FS,4,num_6,16,num_6,0.483509360114,,,2017_May_02_1935,60.0038299081,MAFE4ImagesEEG,001,200263,
AFNE01.JPG,AFNE01.JPG,AFNE01.JPG,AFNE01.JPG,AFNE01.JPG,AFNE01.JPG,,,,,,,,,,,,,4,9,49,7,,,,,,,,,,,AFSA13.jpg,AFSA01.jpg,AFNE01.jpg,AFNE03.jpg,AFSA13.jpg,FS,4,num_8,32,num_2,0.950135336025,,,2017_May_02_1935,60.0038299081,MAFE4ImagesEEG,001,200263,
AFNE01.JPG,AFNE01.JPG,AFNE01.JPG,AFNE01.JPG,AFNE01.JPG,AFNE01.JPG,,,,,,,,,,,,,5,0,50,4,,,,,,,,,,,AFNE11.jpg,AFSA09.jpg,AFSA16.jpg,AFNE10.jpg,AFNE10.jpg,FN,3,num_4,32,num_6,1.06676344434,,,2017_May_02_1935,60.0038299081,MAFE4ImagesEEG,001,200263,
AFNE01.JPG,AFNE01.JPG,AFNE01.JPG,AFNE01.JPG,AFNE01.JPG,AFNE01.JPG,,,,,,,,,,,,,5,1,51,3,,,,,,,,,,,AFNE07.jpg,AFSA07.jpg,AFSA16.jpg,AFNE17.jpg,AFSA16.jpg,FS,4,num_2,32,num_8,0.850135945249,,,2017_May_02_1935,60.0038299081,MAFE4ImagesEEG,001,200263,
AFNE01.JPG,AFNE01.JPG,AFNE01.JPG,AFNE01.JPG,AFNE01.JPG,AFNE01.JPG,,,,,,,,,,,,,5,2,52,5,,,,,,,,,,,AFNE05.jpg,AFNE06.jpg,AFSA14.jpg,AFSA18.jpg,AFNE06.jpg,FN,3,num_6,16,num_6,0.616779657546,,,2017_May_02_1935,60.0038299081,MAFE4ImagesEEG,001,200263,
AFNE01.JPG,AFNE01.JPG,AFNE01.JPG,AFNE01.JPG,AFNE01.JPG,AFNE01.JPG,,,,,,,,,,,,,5,3,53,2,,,,,,,,,,,AFSA08.jpg,AFNE02.jpg,AFSA05.jpg,AFNE14.jpg,AFNE02.jpg,FN,3,num_6,32,num_4,1.26673688716,,,2017_May_02_1935,60.0038299081,MAFE4ImagesEEG,001,200263,
AFNE01.JPG,AFNE01.JPG,AFNE01.JPG,AFNE01.JPG,AFNE01.JPG,AFNE01.JPG,,,,,,,,,,,,,5,4,54,9,,,,,,,,,,,AFSA07.jpg,AFNE15.jpg,AFSA19.jpg,AFNE13.jpg,AFNE15.jpg,FN,3,num_6,16,num_6,0.666491329437,,,2017_May_02_1935,60.0038299081,MAFE4ImagesEEG,001,200263,
AFNE01.JPG,AFNE01.JPG,AFNE01.JPG,AFNE01.JPG,AFNE01.JPG,AFNE01.JPG,,,,,,,,,,,,,5,5,55,0,,,,,,,,,,,AFNE11.jpg,AFSA10.jpg,AFSA03.jpg,AFNE14.jpg,AFSA10.jpg,FS,4,num_6,32,num_2,1.0167849178,,,2017_May_02_1935,60.0038299081,MAFE4ImagesEEG,001,200263,
AFNE01.JPG,AFNE01.JPG,AFNE01.JPG,AFNE01.JPG,AFNE01.JPG,AFNE01.JPG,,,,,,,,,,,,,5,6,56,6,,,,,,,,,,,AFSA16.jpg,AFNE17.jpg,AFSA15.jpg,AFNE10.jpg,AFSA15.jpg,FS,4,num_2,32,num_4,2.08335623937,,,2017_May_02_1935,60.0038299081,MAFE4ImagesEEG,001,200263,
AFNE01.JPG,AFNE01.JPG,AFNE01.JPG,AFNE01.JPG,AFNE01.JPG,AFNE01.JPG,,,,,,,,,,,,,5,7,57,1,,,,,,,,,,,AFNE14.jpg,AFSA14.jpg,AFNE16.jpg,AFSA17.jpg,AFSA14.jpg,FS,4,num_6,32,num_2,1.13366448577,,,2017_May_02_1935,60.0038299081,MAFE4ImagesEEG,001,200263,
AFNE01.JPG,AFNE01.JPG,AFNE01.JPG,AFNE01.JPG,AFNE01.JPG,AFNE01.JPG,,,,,,,,,,,,,5,8,58,8,,,,,,,,,,,AFSA06.jpg,AFNE04.jpg,AFSA04.jpg,AFNE05.jpg,AFNE05.jpg,FN,3,num_4,16,num_4,0.650166993029,,,2017_May_02_1935,60.0038299081,MAFE4ImagesEEG,001,200263,
AFNE01.JPG,AFNE01.JPG,AFNE01.JPG,AFNE01.JPG,AFNE01.JPG,AFNE01.JPG,,,,,,,,,,,,,5,9,59,7,,,,,,,,,,,AFSA14.jpg,AFSA03.jpg,AFNE13.jpg,AFNE07.jpg,AFSA03.jpg,FS,4,num_6,32,num_2,1.03340016468,,,2017_May_02_1935,60.0038299081,MAFE4ImagesEEG,001,200263,
,,,,,,,,,,,,,,,,,,,,,,,,,,,,,,,,,,,,,,,,,,,space,2.2166422531,2017_May_02_1935,60.0038299081,MAFE4ImagesEEG,001,200263,
AFNE01.JPG,AFNE01.JPG,AFNE01.JPG,AFNE01.JPG,AFNE01.JPG,AFNE01.JPG,,,,,,,,,,,,,,,,,0,0,0,3,,,,,,,AMNE15.jpg,AMSA06.jpg,AMSA05.jpg,AMNE16.jpg,AMNE16.jpg,MN,1,num_4,32,num_2,1.48342308146,,,2017_May_02_1935,60.0038299081,MAFE4ImagesEEG,001,200263,
AFNE01.JPG,AFNE01.JPG,AFNE01.JPG,AFNE01.JPG,AFNE01.JPG,AFNE01.JPG,,,,,,,,,,,,,,,,,0,1,1,6,,,,,,,AMNE08.jpg,AMNE20.jpg,AMSA20.jpg,AMSA15.jpg,AMNE20.jpg,MN,1,num_6,16,num_6,0.466772874119,,,2017_May_02_1935,60.0038299081,MAFE4ImagesEEG,001,200263,
AFNE01.JPG,AFNE01.JPG,AFNE01.JPG,AFNE01.JPG,AFNE01.JPG,AFNE01.JPG,,,,,,,,,,,,,,,,,0,2,2,2,,,,,,,AMSA13.jpg,AMSA07.jpg,AMNE02.jpg,AMNE16.jpg,AMNE16.jpg,MN,1,num_4,16,num_4,1.10005423683,,,2017_May_02_1935,60.0038299081,MAFE4ImagesEEG,001,200263,
AFNE01.JPG,AFNE01.JPG,AFNE01.JPG,AFNE01.JPG,AFNE01.JPG,AFNE01.JPG,,,,,,,,,,,,,,,,,0,3,3,5,,,,,,,AMSA18.jpg,AMSA13.jpg,AMNE16.jpg,AMNE14.jpg,AMSA13.jpg,MS,2,num_6,32,num_2,2.03335269541,,,2017_May_02_1935,60.0038299081,MAFE4ImagesEEG,001,200263,
AFNE01.JPG,AFNE01.JPG,AFNE01.JPG,AFNE01.JPG,AFNE01.JPG,AFNE01.JPG,,,,,,,,,,,,,,,,,0,4,4,4,,,,,,,AMSA20.jpg,AMNE15.jpg,AMNE10.jpg,AMSA06.jpg,AMNE15.jpg,MN,1,num_6,32,num_2,1.38307921705,,,2017_May_02_1935,60.0038299081,MAFE4ImagesEEG,001,200263,
AFNE01.JPG,AFNE01.JPG,AFNE01.JPG,AFNE01.JPG,AFNE01.JPG,AFNE01.JPG,,,,,,,,,,,,,,,,,0,5,5,0,,,,,,,AMSA09.jpg,AMSA08.jpg,AMNE16.jpg,AMNE05.jpg,AMSA09.jpg,MS,2,num_8,32,num_2,1.45008706464,,,2017_May_02_1935,60.0038299081,MAFE4ImagesEEG,001,200263,
AFNE01.JPG,AFNE01.JPG,AFNE01.JPG,AFNE01.JPG,AFNE01.JPG,AFNE01.JPG,,,,,,,,,,,,,,,,,0,6,6,9,,,,,,,AMSA14.jpg,AMNE08.jpg,AMSA11.jpg,AMNE19.jpg,AMSA14.jpg,MS,2,num_8,32,num_2,0.716796368361,,,2017_May_02_1935,60.0038299081,MAFE4ImagesEEG,001,200263,
AFNE01.JPG,AFNE01.JPG,AFNE01.JPG,AFNE01.JPG,AFNE01.JPG,AFNE01.JPG,,,,,,,,,,,,,,,,,0,7,7,7,,,,,,,AMSA14.jpg,AMNE17.jpg,AMSA16.jpg,AMNE20.jpg,AMNE17.jpg,MN,1,num_6,16,num_6,0.599666623864,,,2017_May_02_1935,60.0038299081,MAFE4ImagesEEG,001,200263,
AFNE01.JPG,AFNE01.JPG,AFNE01.JPG,AFNE01.JPG,AFNE01.JPG,AFNE01.JPG,,,,,,,,,,,,,,,,,0,8,8,8,,,,,,,AMNE15.jpg,AMSA04.jpg,AMSA06.jpg,AMNE03.jpg,AMNE03.jpg,MN,1,num_4,16,num_4,0.750125007937,,,2017_May_02_1935,60.0038299081,MAFE4ImagesEEG,001,200263,
AFNE01.JPG,AFNE01.JPG,AFNE01.JPG,AFNE01.JPG,AFNE01.JPG,AFNE01.JPG,,,,,,,,,,,,,,,,,0,9,9,1,,,,,,,AMSA12.jpg,AMNE10.jpg,AMSA10.jpg,AMNE14.jpg,AMSA12.jpg,MS,2,num_8,32,num_4,4.13321384741,,,2017_May_02_1935,60.0038299081,MAFE4ImagesEEG,001,200263,
AFNE01.JPG,AFNE01.JPG,AFNE01.JPG,AFNE01.JPG,AFNE01.JPG,AFNE01.JPG,,,,,,,,,,,,,,,,,1,0,10,5,,,,,,,AMSA17.jpg,AMNE08.jpg,AMNE07.jpg,AMSA07.jpg,AMNE08.jpg,MN,1,num_6,32,num_8,1.76672806684,,,2017_May_02_1935,60.0038299081,MAFE4ImagesEEG,001,200263,
AFNE01.JPG,AFNE01.JPG,AFNE01.JPG,AFNE01.JPG,AFNE01.JPG,AFNE01.JPG,,,,,,,,,,,,,,,,,1,1,11,8,,,,,,,AMSA07.jpg,AMNE03.jpg,AMNE05.jpg,AMSA19.jpg,AMNE05.jpg,MN,1,num_2,32,num_4,2.96657834575,,,2017_May_02_1935,60.0038299081,MAFE4ImagesEEG,001,200263,
AFNE01.JPG,AFNE01.JPG,AFNE01.JPG,AFNE01.JPG,AFNE01.JPG,AFNE01.JPG,,,,,,,,,,,,,,,,,1,2,12,6,,,,,,,AMNE05.jpg,AMSA09.jpg,AMNE11.jpg,AMSA15.jpg,AMSA09.jpg,MS,2,num_6,32,num_2,2.26666536229,,,2017_May_02_1935,60.0038299081,MAFE4ImagesEEG,001,200263,
AFNE01.JPG,AFNE01.JPG,AFNE01.JPG,AFNE01.JPG,AFNE01.JPG,AFNE01.JPG,,,,,,,,,,,,,,,,,1,3,13,2,,,,,,,AMNE18.jpg,AMSA20.jpg,AMSA16.jpg,AMNE15.jpg,AMSA20.jpg,MS,2,num_6,32,num_8,1.05008950224,,,2017_May_02_1935,60.0038299081,MAFE4ImagesEEG,001,200263,
AFNE01.JPG,AFNE01.JPG,AFNE01.JPG,AFNE01.JPG,AFNE01.JPG,AFNE01.JPG,,,,,,,,,,,,,,,,,1,4,14,4,,,,,,,AMSA16.jpg,AMSA09.jpg,AMNE18.jpg,AMNE06.jpg,AMSA16.jpg,MS,2,num_8,16,num_8,4.84980237647,,,2017_May_02_1935,60.0038299081,MAFE4ImagesEEG,001,200263,
AFNE01.JPG,AFNE01.JPG,AFNE01.JPG,AFNE01.JPG,AFNE01.JPG,AFNE01.JPG,,,,,,,,,,,,,,,,,1,5,15,0,,,,,,,AMNE02.jpg,AMSA19.jpg,AMNE12.jpg,AMSA07.jpg,AMSA07.jpg,MS,2,num_4,32,num_8,1.55008805892,,,2017_May_02_1935,60.0038299081,MAFE4ImagesEEG,001,200263,
AFNE01.JPG,AFNE01.JPG,AFNE01.JPG,AFNE01.JPG,AFNE01.JPG,AFNE01.JPG,,,,,,,,,,,,,,,,,1,6,16,9,,,,,,,AMSA19.jpg,AMNE13.jpg,AMSA03.jpg,AMNE06.jpg,AMSA03.jpg,MS,2,num_2,32,num_8,0.56664044084,,,2017_May_02_1935,60.0038299081,MAFE4ImagesEEG,001,200263,
AFNE01.JPG,AFNE01.JPG,AFNE01.JPG,AFNE01.JPG,AFNE01.JPG,AFNE01.JPG,,,,,,,,,,,,,,,,,1,7,17,7,,,,,,,AMSA09.jpg,AMNE02.jpg,AMNE17.jpg,AMSA03.jpg,AMNE02.jpg,MN,1,num_6,16,num_6,0.550085493131,,,2017_May_02_1935,60.0038299081,MAFE4ImagesEEG,001,200263,
AFNE01.JPG,AFNE01.JPG,AFNE01.JPG,AFNE01.JPG,AFNE01.JPG,AFNE01.JPG,,,,,,,,,,,,,,,,,1,8,18,3,,,,,,,AMSA20.jpg,AMNE10.jpg,AMSA04.jpg,AMNE12.jpg,AMNE10.jpg,MN,1,num_6,32,num_2,1.0001436912,,,2017_May_02_1935,60.0038299081,MAFE4ImagesEEG,001,200263,
AFNE01.JPG,AFNE01.JPG,AFNE01.JPG,AFNE01.JPG,AFNE01.JPG,AFNE01.JPG,,,,,,,,,,,,,,,,,1,9,19,1,,,,,,,AMNE16.jpg,AMSA20.jpg,AMSA04.jpg,AMNE18.jpg,AMSA04.jpg,MS,2,num_2,16,num_2,0.850140435621,,,2017_May_02_1935,60.0038299081,MAFE4ImagesEEG,001,200263,
AFNE01.JPG,AFNE01.JPG,AFNE01.JPG,AFNE01.JPG,AFNE01.JPG,AFNE01.JPG,,,,,,,,,,,,,,,,,2,0,20,6,,,,,,,AMSA05.jpg,AMNE13.jpg,AMNE05.jpg,AMSA18.jpg,AMSA18.jpg,MS,2,num_4,16,num_4,0.68345714407,,,2017_May_02_1935,60.0038299081,MAFE4ImagesEEG,001,200263,
AFNE01.JPG,AFNE01.JPG,AFNE01.JPG,AFNE01.JPG,AFNE01.JPG,AFNE01.JPG,,,,,,,,,,,,,,,,,2,1,21,0,,,,,,,AMNE18.jpg,AMNE02.jpg,AMSA18.jpg,AMSA17.jpg,AMSA17.jpg,MS,2,num_4,48,None,,,,2017_May_02_1935,60.0038299081,MAFE4ImagesEEG,001,200263,
AFNE01.JPG,AFNE01.JPG,AFNE01.JPG,AFNE01.JPG,AFNE01.JPG,AFNE01.JPG,,,,,,,,,,,,,,,,,2,2,22,3,,,,,,,AMSA12.jpg,AMSA17.jpg,AMNE19.jpg,AMNE14.jpg,AMNE19.jpg,MN,1,num_2,48,None,,,,2017_May_02_1935,60.0038299081,MAFE4ImagesEEG,001,200263,
AFNE01.JPG,AFNE01.JPG,AFNE01.JPG,AFNE01.JPG,AFNE01.JPG,AFNE01.JPG,,,,,,,,,,,,,,,,,2,3,23,7,,,,,,,AMNE14.jpg,AMSA18.jpg,AMNE09.jpg,AMSA16.jpg,AMNE09.jpg,MN,1,num_2,16,num_2,0.700104785385,,,2017_May_02_1935,60.0038299081,MAFE4ImagesEEG,001,200263,
AFNE01.JPG,AFNE01.JPG,AFNE01.JPG,AFNE01.JPG,AFNE01.JPG,AFNE01.JPG,,,,,,,,,,,,,,,,,2,4,24,4,,,,,,,AMSA15.jpg,AMSA09.jpg,AMNE01.jpg,AMNE12.jpg,AMSA15.jpg,MS,2,num_8,48,None,,,,2017_May_02_1935,60.0038299081,MAFE4ImagesEEG,001,200263,
AFNE01.JPG,AFNE01.JPG,AFNE01.JPG,AFNE01.JPG,AFNE01.JPG,AFNE01.JPG,,,,,,,,,,,,,,,,,2,5,25,2,,,,,,,AMSA05.jpg,AMNE04.jpg,AMNE12.jpg,AMSA12.jpg,AMNE12.jpg,MN,1,num_2,32,num_8,0.950130845653,,,2017_May_02_1935,60.0038299081,MAFE4ImagesEEG,001,200263,
AFNE01.JPG,AFNE01.JPG,AFNE01.JPG,AFNE01.JPG,AFNE01.JPG,AFNE01.JPG,,,,,,,,,,,,,,,,,2,6,26,9,,,,,,,AMSA12.jpg,AMSA02.jpg,AMNE07.jpg,AMNE15.jpg,AMSA02.jpg,MS,2,num_6,32,num_4,4.44986158493,,,2017_May_02_1935,60.0038299081,MAFE4ImagesEEG,001,200263,
AFNE01.JPG,AFNE01.JPG,AFNE01.JPG,AFNE01.JPG,AFNE01.JPG,AFNE01.JPG,,,,,,,,,,,,,,,,,2,7,27,1,,,,,,,AMSA13.jpg,AMNE04.jpg,AMSA12.jpg,AMNE03.jpg,AMSA13.jpg,MS,2,num_8,16,num_8,1.23349516746,,,2017_May_02_1935,60.0038299081,MAFE4ImagesEEG,001,200263,
AFNE01.JPG,AFNE01.JPG,AFNE01.JPG,AFNE01.JPG,AFNE01.JPG,AFNE01.JPG,,,,,,,,,,,,,,,,,2,8,28,8,,,,,,,AMNE02.jpg,AMSA20.jpg,AMNE03.jpg,AMSA16.jpg,AMNE03.jpg,MN,1,num_2,32,num_6,3.99992398475,,,2017_May_02_1935,60.0038299081,MAFE4ImagesEEG,001,200263,
AFNE01.JPG,AFNE01.JPG,AFNE01.JPG,AFNE01.JPG,AFNE01.JPG,AFNE01.JPG,,,,,,,,,,,,,,,,,2,9,29,5,,,,,,,AMNE07.jpg,AMSA15.jpg,AMSA02.jpg,AMNE03.jpg,AMNE03.jpg,MN,1,num_4,48,None,,,,2017_May_02_1935,60.0038299081,MAFE4ImagesEEG,001,200263,
AFNE01.JPG,AFNE01.JPG,AFNE01.JPG,AFNE01.JPG,AFNE01.JPG,AFNE01.JPG,,,,,,,,,,,,,,,,,3,0,30,5,,,,,,,AMSA10.jpg,AMNE11.jpg,AMSA13.jpg,AMNE19.jpg,AMSA10.jpg,MS,2,num_8,16,num_8,2.23302945448,,,2017_May_02_1935,60.0038299081,MAFE4ImagesEEG,001,200263,
AFNE01.JPG,AFNE01.JPG,AFNE01.JPG,AFNE01.JPG,AFNE01.JPG,AFNE01.JPG,,,,,,,,,,,,,,,,,3,1,31,6,,,,,,,AMNE16.jpg,AMSA10.jpg,AMNE05.jpg,AMSA12.jpg,AMNE05.jpg,MN,1,num_2,48,None,,,,2017_May_02_1935,60.0038299081,MAFE4ImagesEEG,001,200263,
AFNE01.JPG,AFNE01.JPG,AFNE01.JPG,AFNE01.JPG,AFNE01.JPG,AFNE01.JPG,,,,,,,,,,,,,,,,,3,2,32,9,,,,,,,AMSA16.jpg,AMSA19.jpg,AMNE15.jpg,AMNE03.jpg,AMSA16.jpg,MS,2,num_8,48,None,,,,2017_May_02_1935,60.0038299081,MAFE4ImagesEEG,001,200263,
AFNE01.JPG,AFNE01.JPG,AFNE01.JPG,AFNE01.JPG,AFNE01.JPG,AFNE01.JPG,,,,,,,,,,,,,,,,,3,3,33,8,,,,,,,AMSA01.jpg,AMNE03.jpg,AMNE18.jpg,AMSA12.jpg,AMNE18.jpg,MN,1,num_2,48,None,,,,2017_May_02_1935,60.0038299081,MAFE4ImagesEEG,001,200263,
AFNE01.JPG,AFNE01.JPG,AFNE01.JPG,AFNE01.JPG,AFNE01.JPG,AFNE01.JPG,,,,,,,,,,,,,,,,,3,4,34,4,,,,,,,AMSA15.jpg,AMSA09.jpg,AMNE09.jpg,AMNE07.jpg,AMNE09.jpg,MN,1,num_2,48,None,,,,2017_May_02_1935,60.0038299081,MAFE4ImagesEEG,001,200263,
AFNE01.JPG,AFNE01.JPG,AFNE01.JPG,AFNE01.JPG,AFNE01.JPG,AFNE01.JPG,,,,,,,,,,,,,,,,,3,5,35,7,,,,,,,AMNE19.jpg,AMSA18.jpg,AMSA12.jpg,AMNE03.jpg,AMSA12.jpg,MS,2,num_2,16,num_2,2.84998134896,,,2017_May_02_1935,60.0038299081,MAFE4ImagesEEG,001,200263,
AFNE01.JPG,AFNE01.JPG,AFNE01.JPG,AFNE01.JPG,AFNE01.JPG,AFNE01.JPG,,,,,,,,,,,,,,,,,3,6,36,2,,,,,,,AMNE16.jpg,AMSA16.jpg,AMNE19.jpg,AMSA17.jpg,AMNE16.jpg,MN,1,num_8,32,num_2,1.03342518234,,,2017_May_02_1935,60.0038299081,MAFE4ImagesEEG,001,200263,
AFNE01.JPG,AFNE01.JPG,AFNE01.JPG,AFNE01.JPG,AFNE01.JPG,AFNE01.JPG,,,,,,,,,,,,,,,,,3,7,37,1,,,,,,,AMNE13.jpg,AMNE11.jpg,AMSA19.jpg,AMSA07.jpg,AMNE13.jpg,MN,1,num_8,32,num_2,0.666530780261,,,2017_May_02_1935,60.0038299081,MAFE4ImagesEEG,001,200263,
AFNE01.JPG,AFNE01.JPG,AFNE01.JPG,AFNE01.JPG,AFNE01.JPG,AFNE01.JPG,,,,,,,,,,,,,,,,,3,8,38,0,,,,,,,AMNE02.jpg,AMNE11.jpg,AMSA11.jpg,AMSA08.jpg,AMSA08.jpg,MS,2,num_4,16,num_4,1.20007575862,,,2017_May_02_1935,60.0038299081,MAFE4ImagesEEG,001,200263,
AFNE01.JPG,AFNE01.JPG,AFNE01.JPG,AFNE01.JPG,AFNE01.JPG,AFNE01.JPG,,,,,,,,,,,,,,,,,3,9,39,3,,,,,,,AMSA14.jpg,AMNE19.jpg,AMNE05.jpg,AMSA15.jpg,AMNE05.jpg,MN,1,num_2,32,num_6,1.25014922395,,,2017_May_02_1935,60.0038299081,MAFE4ImagesEEG,001,200263,
AFNE01.JPG,AFNE01.JPG,AFNE01.JPG,AFNE01.JPG,AFNE01.JPG,AFNE01.JPG,,,,,,,,,,,,,,,,,4,0,40,5,,,,,,,AMSA16.jpg,AMSA19.jpg,AMNE17.jpg,AMNE10.jpg,AMSA16.jpg,MS,2,num_8,16,num_8,0.800504458603,,,2017_May_02_1935,60.0038299081,MAFE4ImagesEEG,001,200263,
AFNE01.JPG,AFNE01.JPG,AFNE01.JPG,AFNE01.JPG,AFNE01.JPG,AFNE01.JPG,,,,,,,,,,,,,,,,,4,1,41,7,,,,,,,AMNE12.jpg,AMSA14.jpg,AMNE16.jpg,AMSA10.jpg,AMNE12.jpg,MN,1,num_8,16,num_8,0.916758264415,,,2017_May_02_1935,60.0038299081,MAFE4ImagesEEG,001,200263,
AFNE01.JPG,AFNE01.JPG,AFNE01.JPG,AFNE01.JPG,AFNE01.JPG,AFNE01.JPG,,,,,,,,,,,,,,,,,4,2,42,3,,,,,,,AMSA12.jpg,AMSA04.jpg,AMNE05.jpg,AMNE01.jpg,AMNE05.jpg,MN,1,num_2,32,num_8,0.950136298081,,,2017_May_02_1935,60.0038299081,MAFE4ImagesEEG,001,200263,
AFNE01.JPG,AFNE01.JPG,AFNE01.JPG,AFNE01.JPG,AFNE01.JPG,AFNE01.JPG,,,,,,,,,,,,,,,,,4,3,43,6,,,,,,,AMNE06.jpg,AMNE18.jpg,AMSA14.jpg,AMSA05.jpg,AMSA14.jpg,MS,2,num_2,16,num_2,0.666770372307,,,2017_May_02_1935,60.0038299081,MAFE4ImagesEEG,001,200263,
AFNE01.JPG,AFNE01.JPG,AFNE01.JPG,AFNE01.JPG,AFNE01.JPG,AFNE01.JPG,,,,,,,,,,,,,,,,,4,4,44,1,,,,,,,AMNE01.jpg,AMSA15.jpg,AMNE04.jpg,AMSA14.jpg,AMNE04.jpg,MN,1,num_2,48,None,,,,2017_May_02_1935,60.0038299081,MAFE4ImagesEEG,001,200263,
AFNE01.JPG,AFNE01.JPG,AFNE01.JPG,AFNE01.JPG,AFNE01.JPG,AFNE01.JPG,,,,,,,,,,,,,,,,,4,5,45,2,,,,,,,AMSA04.jpg,AMNE05.jpg,AMNE18.jpg,AMSA14.jpg,AMSA14.jpg,MS,2,num_4,32,num_6,2.78334106831,,,2017_May_02_1935,60.0038299081,MAFE4ImagesEEG,001,200263,
AFNE01.JPG,AFNE01.JPG,AFNE01.JPG,AFNE01.JPG,AFNE01.JPG,AFNE01.JPG,,,,,,,,,,,,,,,,,4,6,46,4,,,,,,,AMNE05.jpg,AMSA05.jpg,AMNE11.jpg,AMSA11.jpg,AMSA11.jpg,MS,2,num_4,32,num_6,0.666801163228,,,2017_May_02_1935,60.0038299081,MAFE4ImagesEEG,001,200263,
AFNE01.JPG,AFNE01.JPG,AFNE01.JPG,AFNE01.JPG,AFNE01.JPG,AFNE01.JPG,,,,,,,,,,,,,,,,,4,7,47,9,,,,,,,AMNE20.jpg,AMSA11.jpg,AMSA14.jpg,AMNE11.jpg,AMNE20.jpg,MN,1,num_8,16,num_8,0.733191587962,,,2017_May_02_1935,60.0038299081,MAFE4ImagesEEG,001,200263,
AFNE01.JPG,AFNE01.JPG,AFNE01.JPG,AFNE01.JPG,AFNE01.JPG,AFNE01.JPG,,,,,,,,,,,,,,,,,4,8,48,0,,,,,,,AMSA06.jpg,AMSA11.jpg,AMNE07.jpg,AMNE10.jpg,AMNE07.jpg,MN,1,num_2,48,None,,,,2017_May_02_1935,60.0038299081,MAFE4ImagesEEG,001,200263,
AFNE01.JPG,AFNE01.JPG,AFNE01.JPG,AFNE01.JPG,AFNE01.JPG,AFNE01.JPG,,,,,,,,,,,,,,,,,4,9,49,8,,,,,,,AMSA10.jpg,AMSA08.jpg,AMNE12.jpg,AMNE10.jpg,AMNE12.jpg,MN,1,num_2,32,num_4,3.3667119015,,,2017_May_02_1935,60.0038299081,MAFE4ImagesEEG,001,200263,
AFNE01.JPG,AFNE01.JPG,AFNE01.JPG,AFNE01.JPG,AFNE01.JPG,AFNE01.JPG,,,,,,,,,,,,,,,,,5,0,50,9,,,,,,,AMNE07.jpg,AMNE17.jpg,AMSA05.jpg,AMSA09.jpg,AMNE07.jpg,MN,1,num_8,32,num_4,3.88327117939,,,2017_May_02_1935,60.0038299081,MAFE4ImagesEEG,001,200263,
AFNE01.JPG,AFNE01.JPG,AFNE01.JPG,AFNE01.JPG,AFNE01.JPG,AFNE01.JPG,,,,,,,,,,,,,,,,,5,1,51,6,,,,,,,AMNE09.jpg,AMSA01.jpg,AMSA14.jpg,AMNE17.jpg,AMNE09.jpg,MN,1,num_8,16,num_8,1.33341341116,,,2017_May_02_1935,60.0038299081,MAFE4ImagesEEG,001,200263,
AFNE01.JPG,AFNE01.JPG,AFNE01.JPG,AFNE01.JPG,AFNE01.JPG,AFNE01.JPG,,,,,,,,,,,,,,,,,5,2,52,4,,,,,,,AMSA16.jpg,AMNE06.jpg,AMSA10.jpg,AMNE19.jpg,AMSA10.jpg,MS,2,num_2,32,num_4,1.11675063078,,,2017_May_02_1935,60.0038299081,MAFE4ImagesEEG,001,200263,
AFNE01.JPG,AFNE01.JPG,AFNE01.JPG,AFNE01.JPG,AFNE01.JPG,AFNE01.JPG,,,,,,,,,,,,,,,,,5,3,53,5,,,,,,,AMSA08.jpg,AMNE03.jpg,AMNE06.jpg,AMSA14.jpg,AMSA08.jpg,MS,2,num_8,32,num_4,4.94982710551,,,2017_May_02_1935,60.0038299081,MAFE4ImagesEEG,001,200263,
AFNE01.JPG,AFNE01.JPG,AFNE01.JPG,AFNE01.JPG,AFNE01.JPG,AFNE01.JPG,,,,,,,,,,,,,,,,,5,4,54,1,,,,,,,AMNE20.jpg,AMSA05.jpg,AMNE12.jpg,AMSA02.jpg,AMNE12.jpg,MN,1,num_2,16,num_2,1.13348455122,,,2017_May_02_1935,60.0038299081,MAFE4ImagesEEG,001,200263,
AFNE01.JPG,AFNE01.JPG,AFNE01.JPG,AFNE01.JPG,AFNE01.JPG,AFNE01.JPG,,,,,,,,,,,,,,,,,5,5,55,2,,,,,,,AMNE12.jpg,AMNE16.jpg,AMSA03.jpg,AMSA05.jpg,AMNE16.jpg,MN,1,num_6,48,None,,,,2017_May_02_1935,60.0038299081,MAFE4ImagesEEG,001,200263,
AFNE01.JPG,AFNE01.JPG,AFNE01.JPG,AFNE01.JPG,AFNE01.JPG,AFNE01.JPG,,,,,,,,,,,,,,,,,5,6,56,7,,,,,,,AMSA08.jpg,AMNE14.jpg,AMNE01.jpg,AMSA17.jpg,AMNE01.jpg,MN,1,num_2,48,None,,,,2017_May_02_1935,60.0038299081,MAFE4ImagesEEG,001,200263,
AFNE01.JPG,AFNE01.JPG,AFNE01.JPG,AFNE01.JPG,AFNE01.JPG,AFNE01.JPG,,,,,,,,,,,,,,,,,5,7,57,8,,,,,,,AMNE17.jpg,AMNE15.jpg,AMSA05.jpg,AMSA08.jpg,AMSA08.jpg,MS,2,num_4,48,None,,,,2017_May_02_1935,60.0038299081,MAFE4ImagesEEG,001,200263,
AFNE01.JPG,AFNE01.JPG,AFNE01.JPG,AFNE01.JPG,AFNE01.JPG,AFNE01.JPG,,,,,,,,,,,,,,,,,5,8,58,0,,,,,,,AMNE03.jpg,AMSA01.jpg,AMNE15.jpg,AMSA19.jpg,AMSA01.jpg,MS,2,num_6,16,num_6,1.71666646888,,,2017_May_02_1935,60.0038299081,MAFE4ImagesEEG,001,200263,
AFNE01.JPG,AFNE01.JPG,AFNE01.JPG,AFNE01.JPG,AFNE01.JPG,AFNE01.JPG,,,,,,,,,,,,,,,,,5,9,59,3,,,,,,,AMSA20.jpg,AMSA12.jpg,AMNE13.jpg,AMNE19.jpg,AMNE13.jpg,MN,1,num_2,48,None,,,,2017_May_02_1935,60.0038299081,MAFE4ImagesEEG,001,200263,
,,,,,,,,,,,,,,,,,,,,,,,,,,,,,,,,,,,,,,,,,,,space,31.4976680665,2017_May_02_1935,60.0038299081,MAFE4ImagesEEG,001,200263,
AFNE01.JPG,AFNE01.JPG,AFNE01.JPG,AFNE01.JPG,AFNE01.JPG,AFNE01.JPG,,,,,,,,,,,,,,,,,,,,,0,0,0,6,,,AFSA02.jpg,AFNE14.jpg,AFNE11.jpg,AFSA11.jpg,AFNE14.jpg,FN,3,num_6,16,num_6,0.683474143269,,,2017_May_02_1935,60.0038299081,MAFE4ImagesEEG,001,200263,
AFNE01.JPG,AFNE01.JPG,AFNE01.JPG,AFNE01.JPG,AFNE01.JPG,AFNE01.JPG,,,,,,,,,,,,,,,,,,,,,0,1,1,2,,,AFNE19.jpg,AFSA03.jpg,AFSA18.jpg,AFNE20.jpg,AFNE19.jpg,FN,3,num_8,32,num_2,0.533476981567,,,2017_May_02_1935,60.0038299081,MAFE4ImagesEEG,001,200263,
AFNE01.JPG,AFNE01.JPG,AFNE01.JPG,AFNE01.JPG,AFNE01.JPG,AFNE01.JPG,,,,,,,,,,,,,,,,,,,,,0,2,2,7,,,AFSA18.jpg,AFNE19.jpg,AFSA03.jpg,AFNE11.jpg,AFSA18.jpg,FS,4,num_8,16,num_8,0.500201584538,,,2017_May_02_1935,60.0038299081,MAFE4ImagesEEG,001,200263,
AFNE01.JPG,AFNE01.JPG,AFNE01.JPG,AFNE01.JPG,AFNE01.JPG,AFNE01.JPG,,,,,,,,,,,,,,,,,,,,,0,3,3,4,,,AFNE19.jpg,AFSA19.jpg,AFNE05.jpg,AFSA10.jpg,AFNE05.jpg,FN,3,num_2,32,num_6,0.583471545018,,,2017_May_02_1935,60.0038299081,MAFE4ImagesEEG,001,200263,
AFNE01.JPG,AFNE01.JPG,AFNE01.JPG,AFNE01.JPG,AFNE01.JPG,AFNE01.JPG,,,,,,,,,,,,,,,,,,,,,0,4,4,9,,,AFNE06.jpg,AFNE02.jpg,AFSA20.jpg,AFSA06.jpg,AFSA20.jpg,FS,4,num_2,48,None,,,,2017_May_02_1935,60.0038299081,MAFE4ImagesEEG,001,200263,
AFNE01.JPG,AFNE01.JPG,AFNE01.JPG,AFNE01.JPG,AFNE01.JPG,AFNE01.JPG,,,,,,,,,,,,,,,,,,,,,0,5,5,0,,,AFNE01.jpg,AFSA19.jpg,AFNE14.jpg,AFSA07.jpg,AFSA07.jpg,FS,4,num_4,16,num_4,0.616759771714,,,2017_May_02_1935,60.0038299081,MAFE4ImagesEEG,001,200263,
AFNE01.JPG,AFNE01.JPG,AFNE01.JPG,AFNE01.JPG,AFNE01.JPG,AFNE01.JPG,,,,,,,,,,,,,,,,,,,,,0,6,6,8,,,AFNE05.jpg,AFNE02.jpg,AFSA10.jpg,AFSA17.jpg,AFSA17.jpg,FS,4,num_4,32,num_8,1.36648770515,,,2017_May_02_1935,60.0038299081,MAFE4ImagesEEG,001,200263,
AFNE01.JPG,AFNE01.JPG,AFNE01.JPG,AFNE01.JPG,AFNE01.JPG,AFNE01.JPG,,,,,,,,,,,,,,,,,,,,,0,7,7,1,,,AFNE18.jpg,AFNE11.jpg,AFSA09.jpg,AFSA01.jpg,AFSA09.jpg,FS,4,num_2,32,num_6,0.516779946396,,,2017_May_02_1935,60.0038299081,MAFE4ImagesEEG,001,200263,
AFNE01.JPG,AFNE01.JPG,AFNE01.JPG,AFNE01.JPG,AFNE01.JPG,AFNE01.JPG,,,,,,,,,,,,,,,,,,,,,0,8,8,5,,,AFNE17.jpg,AFSA13.jpg,AFSA09.jpg,AFNE09.jpg,AFNE17.jpg,FN,3,num_8,16,num_8,0.966785543133,,,2017_May_02_1935,60.0038299081,MAFE4ImagesEEG,001,200263,
AFNE01.JPG,AFNE01.JPG,AFNE01.JPG,AFNE01.JPG,AFNE01.JPG,AFNE01.JPG,,,,,,,,,,,,,,,,,,,,,0,9,9,3,,,AFNE16.jpg,AFSA07.jpg,AFNE09.jpg,AFSA17.jpg,AFSA07.jpg,FS,4,num_6,16,num_6,0.833434419706,,,2017_May_02_1935,60.0038299081,MAFE4ImagesEEG,001,200263,
AFNE01.JPG,AFNE01.JPG,AFNE01.JPG,AFNE01.JPG,AFNE01.JPG,AFNE01.JPG,,,,,,,,,,,,,,,,,,,,,1,0,10,2,,,AFNE07.jpg,AFSA15.jpg,AFNE01.jpg,AFSA19.jpg,AFSA15.jpg,FS,4,num_6,32,num_2,0.783455572324,,,2017_May_02_1935,60.0038299081,MAFE4ImagesEEG,001,200263,
AFNE01.JPG,AFNE01.JPG,AFNE01.JPG,AFNE01.JPG,AFNE01.JPG,AFNE01.JPG,,,,,,,,,,,,,,,,,,,,,1,1,11,6,,,AFSA12.jpg,AFNE01.jpg,AFNE06.jpg,AFSA05.jpg,AFSA05.jpg,FS,4,num_4,16,num_4,1.11676923372,,,2017_May_02_1935,60.0038299081,MAFE4ImagesEEG,001,200263,
AFNE01.JPG,AFNE01.JPG,AFNE01.JPG,AFNE01.JPG,AFNE01.JPG,AFNE01.JPG,,,,,,,,,,,,,,,,,,,,,1,2,12,3,,,AFSA19.jpg,AFNE04.jpg,AFNE01.jpg,AFSA18.jpg,AFSA19.jpg,FS,4,num_8,32,num_2,2.73333463771,,,2017_May_02_1935,60.0038299081,MAFE4ImagesEEG,001,200263,
AFNE01.JPG,AFNE01.JPG,AFNE01.JPG,AFNE01.JPG,AFNE01.JPG,AFNE01.JPG,,,,,,,,,,,,,,,,,,,,,1,3,13,4,,,AFSA12.jpg,AFNE02.jpg,AFSA11.jpg,AFNE19.jpg,AFNE02.jpg,FN,3,num_6,32,num_8,1.33340475126,,,2017_May_02_1935,60.0038299081,MAFE4ImagesEEG,001,200263,
AFNE01.JPG,AFNE01.JPG,AFNE01.JPG,AFNE01.JPG,AFNE01.JPG,AFNE01.JPG,,,,,,,,,,,,,,,,,,,,,1,4,14,1,,,AFSA17.jpg,AFNE03.jpg,AFNE06.jpg,AFSA05.jpg,AFNE06.jpg,FN,3,num_2,32,num_8,0.80024562194,,,2017_May_02_1935,60.0038299081,MAFE4ImagesEEG,001,200263,
AFNE01.JPG,AFNE01.JPG,AFNE01.JPG,AFNE01.JPG,AFNE01.JPG,AFNE01.JPG,,,,,,,,,,,,,,,,,,,,,1,5,15,8,,,AFNE14.jpg,AFSA09.jpg,AFNE12.jpg,AFSA03.jpg,AFNE14.jpg,FN,3,num_8,16,num_8,0.749983562157,,,2017_May_02_1935,60.0038299081,MAFE4ImagesEEG,001,200263,
AFNE01.JPG,AFNE01.JPG,AFNE01.JPG,AFNE01.JPG,AFNE01.JPG,AFNE01.JPG,,,,,,,,,,,,,,,,,,,,,1,6,16,9,,,AFSA14.jpg,AFNE09.jpg,AFSA06.jpg,AFNE05.jpg,AFSA14.jpg,FS,4,num_8,16,num_8,1.05010521854,,,2017_May_02_1935,60.0038299081,MAFE4ImagesEEG,001,200263,
AFNE01.JPG,AFNE01.JPG,AFNE01.JPG,AFNE01.JPG,AFNE01.JPG,AFNE01.JPG,,,,,,,,,,,,,,,,,,,,,1,7,17,0,,,AFNE05.jpg,AFSA06.jpg,AFNE13.jpg,AFSA15.jpg,AFNE13.jpg,FN,3,num_2,32,num_6,0.716599113774,,,2017_May_02_1935,60.0038299081,MAFE4ImagesEEG,001,200263,
AFNE01.JPG,AFNE01.JPG,AFNE01.JPG,AFNE01.JPG,AFNE01.JPG,AFNE01.JPG,,,,,,,,,,,,,,,,,,,,,1,8,18,5,,,AFNE10.jpg,AFSA05.jpg,AFSA04.jpg,AFNE19.jpg,AFSA05.jpg,FS,4,num_6,32,num_8,0.550166960806,,,2017_May_02_1935,60.0038299081,MAFE4ImagesEEG,001,200263,
AFNE01.JPG,AFNE01.JPG,AFNE01.JPG,AFNE01.JPG,AFNE01.JPG,AFNE01.JPG,,,,,,,,,,,,,,,,,,,,,1,9,19,7,,,AFSA06.jpg,AFSA13.jpg,AFNE08.jpg,AFNE19.jpg,AFSA13.jpg,FS,4,num_6,32,num_8,0.950127637945,,,2017_May_02_1935,60.0038299081,MAFE4ImagesEEG,001,200263,
AFNE01.JPG,AFNE01.JPG,AFNE01.JPG,AFNE01.JPG,AFNE01.JPG,AFNE01.JPG,,,,,,,,,,,,,,,,,,,,,2,0,20,0,,,AFSA18.jpg,AFNE04.jpg,AFSA04.jpg,AFNE13.jpg,AFSA18.jpg,FS,4,num_8,32,num_2,1.26701111905,,,2017_May_02_1935,60.0038299081,MAFE4ImagesEEG,001,200263,
AFNE01.JPG,AFNE01.JPG,AFNE01.JPG,AFNE01.JPG,AFNE01.JPG,AFNE01.JPG,,,,,,,,,,,,,,,,,,,,,2,1,21,9,,,AFNE06.jpg,AFSA19.jpg,AFSA18.jpg,AFNE07.jpg,AFNE06.jpg,FN,3,num_8,32,num_4,1.0667348986,,,2017_May_02_1935,60.0038299081,MAFE4ImagesEEG,001,200263,
AFNE01.JPG,AFNE01.JPG,AFNE01.JPG,AFNE01.JPG,AFNE01.JPG,AFNE01.JPG,,,,,,,,,,,,,,,,,,,,,2,2,22,1,,,AFSA14.jpg,AFNE11.jpg,AFSA06.jpg,AFNE13.jpg,AFNE13.jpg,FN,3,num_4,32,num_6,0.450139665743,,,2017_May_02_1935,60.0038299081,MAFE4ImagesEEG,001,200263,
AFNE01.JPG,AFNE01.JPG,AFNE01.JPG,AFNE01.JPG,AFNE01.JPG,AFNE01.JPG,,,,,,,,,,,,,,,,,,,,,2,3,23,6,,,AFNE19.jpg,AFSA10.jpg,AFNE18.jpg,AFSA02.jpg,AFSA02.jpg,FS,4,num_4,48,None,,,,2017_May_02_1935,60.0038299081,MAFE4ImagesEEG,001,200263,
AFNE01.JPG,AFNE01.JPG,AFNE01.JPG,AFNE01.JPG,AFNE01.JPG,AFNE01.JPG,,,,,,,,,,,,,,,,,,,,,2,4,24,3,,,AFSA15.jpg,AFNE09.jpg,AFSA17.jpg,AFNE18.jpg,AFSA17.jpg,FS,4,num_2,32,num_8,1.80040118028,,,2017_May_02_1935,60.0038299081,MAFE4ImagesEEG,001,200263,
AFNE01.JPG,AFNE01.JPG,AFNE01.JPG,AFNE01.JPG,AFNE01.JPG,AFNE01.JPG,,,,,,,,,,,,,,,,,,,,,2,5,25,8,,,AFSA10.jpg,AFSA11.jpg,AFNE01.jpg,AFNE15.jpg,AFSA10.jpg,FS,4,num_8,32,num_2,0.416842137696,,,2017_May_02_1935,60.0038299081,MAFE4ImagesEEG,001,200263,
AFNE01.JPG,AFNE01.JPG,AFNE01.JPG,AFNE01.JPG,AFNE01.JPG,AFNE01.JPG,,,,,,,,,,,,,,,,,,,,,2,6,26,7,,,AFSA12.jpg,AFNE04.jpg,AFNE18.jpg,AFSA02.jpg,AFNE04.jpg,FN,3,num_6,32,num_8,4.14985539485,,,2017_May_02_1935,60.0038299081,MAFE4ImagesEEG,001,200263,
AFNE01.JPG,AFNE01.JPG,AFNE01.JPG,AFNE01.JPG,AFNE01.JPG,AFNE01.JPG,,,,,,,,,,,,,,,,,,,,,2,7,27,5,,,AFNE01.jpg,AFSA18.jpg,AFSA02.jpg,AFNE08.jpg,AFSA18.jpg,FS,4,num_6,32,num_4,0.816806663992,,,2017_May_02_1935,60.0038299081,MAFE4ImagesEEG,001,200263,
AFNE01.JPG,AFNE01.JPG,AFNE01.JPG,AFNE01.JPG,AFNE01.JPG,AFNE01.JPG,,,,,,,,,,,,,,,,,,,,,2,8,28,4,,,AFNE05.jpg,AFNE11.jpg,AFSA16.jpg,AFSA07.jpg,AFSA07.jpg,FS,4,num_4,32,num_8,4.91658057482,,,2017_May_02_1935,60.0038299081,MAFE4ImagesEEG,001,200263,
AFNE01.JPG,AFNE01.JPG,AFNE01.JPG,AFNE01.JPG,AFNE01.JPG,AFNE01.JPG,,,,,,,,,,,,,,,,,,,,,2,9,29,2,,,AFSA19.jpg,AFSA16.jpg,AFNE08.jpg,AFNE06.jpg,AFNE06.jpg,FN,3,num_4,16,num_4,1.11675736634,,,2017_May_02_1935,60.0038299081,MAFE4ImagesEEG,001,200263,
AFNE01.JPG,AFNE01.JPG,AFNE01.JPG,AFNE01.JPG,AFNE01.JPG,AFNE01.JPG,,,,,,,,,,,,,,,,,,,,,3,0,30,1,,,AFNE02.jpg,AFSA18.jpg,AFSA20.jpg,AFNE10.jpg,AFSA18.jpg,FS,4,num_6,16,num_6,0.850094569847,,,2017_May_02_1935,60.0038299081,MAFE4ImagesEEG,001,200263,
AFNE01.JPG,AFNE01.JPG,AFNE01.JPG,AFNE01.JPG,AFNE01.JPG,AFNE01.JPG,,,,,,,,,,,,,,,,,,,,,3,1,31,3,,,AFSA14.jpg,AFNE07.jpg,AFNE16.jpg,AFSA19.jpg,AFSA14.jpg,FS,4,num_8,32,num_4,0.516807209235,,,2017_May_02_1935,60.0038299081,MAFE4ImagesEEG,001,200263,
AFNE01.JPG,AFNE01.JPG,AFNE01.JPG,AFNE01.JPG,AFNE01.JPG,AFNE01.JPG,,,,,,,,,,,,,,,,,,,,,3,2,32,6,,,AFSA15.jpg,AFNE13.jpg,AFNE14.jpg,AFSA04.jpg,AFNE14.jpg,FN,3,num_2,32,num_8,1.38344774628,,,2017_May_02_1935,60.0038299081,MAFE4ImagesEEG,001,200263,
AFNE01.JPG,AFNE01.JPG,AFNE01.JPG,AFNE01.JPG,AFNE01.JPG,AFNE01.JPG,,,,,,,,,,,,,,,,,,,,,3,3,33,9,,,AFNE14.jpg,AFSA09.jpg,AFSA12.jpg,AFNE11.jpg,AFSA12.jpg,FS,4,num_2,32,num_6,1.31673145061,,,2017_May_02_1935,60.0038299081,MAFE4ImagesEEG,001,200263,
AFNE01.JPG,AFNE01.JPG,AFNE01.JPG,AFNE01.JPG,AFNE01.JPG,AFNE01.JPG,,,,,,,,,,,,,,,,,,,,,3,4,34,0,,,AFSA13.jpg,AFSA16.jpg,AFNE03.jpg,AFNE08.jpg,AFSA16.jpg,FS,4,num_6,32,num_4,1.0000952594,,,2017_May_02_1935,60.0038299081,MAFE4ImagesEEG,001,200263,
AFNE01.JPG,AFNE01.JPG,AFNE01.JPG,AFNE01.JPG,AFNE01.JPG,AFNE01.JPG,,,,,,,,,,,,,,,,,,,,,3,5,35,2,,,AFNE03.jpg,AFSA13.jpg,AFSA10.jpg,AFNE18.jpg,AFNE18.jpg,FN,3,num_4,16,num_4,1.26678756392,,,2017_May_02_1935,60.0038299081,MAFE4ImagesEEG,001,200263,
AFNE01.JPG,AFNE01.JPG,AFNE01.JPG,AFNE01.JPG,AFNE01.JPG,AFNE01.JPG,,,,,,,,,,,,,,,,,,,,,3,6,36,4,,,AFSA17.jpg,AFNE15.jpg,AFSA16.jpg,AFNE10.jpg,AFNE15.jpg,FN,3,num_6,16,num_6,1.10011742241,,,2017_May_02_1935,60.0038299081,MAFE4ImagesEEG,001,200263,
AFNE01.JPG,AFNE01.JPG,AFNE01.JPG,AFNE01.JPG,AFNE01.JPG,AFNE01.JPG,,,,,,,,,,,,,,,,,,,,,3,7,37,5,,,AFSA10.jpg,AFNE07.jpg,AFNE02.jpg,AFSA15.jpg,AFSA15.jpg,FS,4,num_4,32,num_6,0.68345714407,,,2017_May_02_1935,60.0038299081,MAFE4ImagesEEG,001,200263,
AFNE01.JPG,AFNE01.JPG,AFNE01.JPG,AFNE01.JPG,AFNE01.JPG,AFNE01.JPG,,,,,,,,,,,,,,,,,,,,,3,8,38,7,,,AFNE03.jpg,AFNE01.jpg,AFSA20.jpg,AFSA15.jpg,AFNE03.jpg,FN,3,num_8,48,None,,,,2017_May_02_1935,60.0038299081,MAFE4ImagesEEG,001,200263,
AFNE01.JPG,AFNE01.JPG,AFNE01.JPG,AFNE01.JPG,AFNE01.JPG,AFNE01.JPG,,,,,,,,,,,,,,,,,,,,,3,9,39,8,,,AFNE10.jpg,AFSA17.jpg,AFSA15.jpg,AFNE05.jpg,AFNE05.jpg,FN,3,num_4,16,num_4,2.64997294545,,,2017_May_02_1935,60.0038299081,MAFE4ImagesEEG,001,200263,
AFNE01.JPG,AFNE01.JPG,AFNE01.JPG,AFNE01.JPG,AFNE01.JPG,AFNE01.JPG,,,,,,,,,,,,,,,,,,,,,4,0,40,0,,,AFSA14.jpg,AFNE06.jpg,AFNE15.jpg,AFSA05.jpg,AFSA14.jpg,FS,4,num_8,32,num_6,0.833416458219,,,2017_May_02_1935,60.0038299081,MAFE4ImagesEEG,001,200263,
AFNE01.JPG,AFNE01.JPG,AFNE01.JPG,AFNE01.JPG,AFNE01.JPG,AFNE01.JPG,,,,,,,,,,,,,,,,,,,,,4,1,41,9,,,AFNE05.jpg,AFSA18.jpg,AFSA01.jpg,AFNE09.jpg,AFNE05.jpg,FN,3,num_8,48,None,,,,2017_May_02_1935,60.0038299081,MAFE4ImagesEEG,001,200263,
