IPosition2,IPosition3,IPosition1,IPosition6,IPosition4,IPosition5,TrialsM1.thisRepN,TrialsM1.thisTrialN,TrialsM1.thisN,TrialsM1.thisIndex,TrialsF1.thisRepN,TrialsF1.thisTrialN,TrialsF1.thisN,TrialsF1.thisIndex,TrialsM2.thisRepN,TrialsM2.thisTrialN,TrialsM2.thisN,TrialsM2.thisIndex,TrialsF2.thisRepN,TrialsF2.thisTrialN,TrialsF2.thisN,TrialsF2.thisIndex,TrialsM3.thisRepN,TrialsM3.thisTrialN,TrialsM3.thisN,TrialsM3.thisIndex,TrialsF3.thisRepN,TrialsF3.thisTrialN,TrialsF3.thisN,TrialsF3.thisIndex,InstrKey_resp.keys,InstrKey_resp.rt,Image0 _Position,Image1 _Position,Image2 _Position,Image3 _Position,Center_image,condition,code,correct_answer,accuracy,Key_Resp.keys,Key_Resp.rt,BreakKey_resp.keys,BreakKey_resp.rt,date,frameRate,expName,session,participant,
,,,,,,,,,,,,,,,,,,,,,,,,,,,,,,space,17.8324629009,,,,,,,,,,,,,,2017_Apr_25_1316,60.0034834418,MAFE4ImagesEEG,001,200232,
AFNE22.JPG,AFSA24.JPG,AFSA22.JPG,AFNE25.JPG,AFNE24.JPG,AFSA25.JPG,0,0,0,6,,,,,,,,,,,,,,,,,,,,,,,AMSA13.jpg,AMNE02.jpg,AMSA06.jpg,AMNE16.jpg,AMNE16.jpg,MN,1,num_4,16,num_4,1.06678525452,,,2017_Apr_25_1316,60.0034834418,MAFE4ImagesEEG,001,200232,
AFSA25.JPG,AFNE24.JPG,AFSA24.JPG,AFNE21.JPG,AFSA21.JPG,AFNE25.JPG,0,1,1,2,,,,,,,,,,,,,,,,,,,,,,,AMSA10.jpg,AMNE02.jpg,AMNE07.jpg,AMSA07.jpg,AMSA10.jpg,MS,2,num_8,16,num_8,0.633443015395,,,2017_Apr_25_1316,60.0034834418,MAFE4ImagesEEG,001,200232,
AMNE22.JPG,AMSA24.JPG,AMSA22.JPG,AMNE25.JPG,AMNE24.JPG,AMSA25.JPG,0,2,2,7,,,,,,,,,,,,,,,,,,,,,,,AMNE14.jpg,AMSA01.jpg,AMSA10.jpg,AMNE10.jpg,AMSA01.jpg,MS,2,num_6,16,num_6,1.30024097126,,,2017_Apr_25_1316,60.0034834418,MAFE4ImagesEEG,001,200232,
AFSA21.JPG,AFNE22.JPG,AFNE21.JPG,AFSA23.JPG,AFSA22.JPG,AFNE23.JPG,0,3,3,0,,,,,,,,,,,,,,,,,,,,,,,AMNE10.jpg,AMSA20.jpg,AMNE07.jpg,AMSA16.jpg,AMSA16.jpg,MS,2,num_4,16,num_4,1.06675959553,,,2017_Apr_25_1316,60.0034834418,MAFE4ImagesEEG,001,200232,
AMNE23.JPG,AMNE24.JPG,AMNE22.JPG,AMSA24.JPG,AMSA22.JPG,AMSA23.JPG,0,4,4,9,,,,,,,,,,,,,,,,,,,,,,,AMSA11.jpg,AMNE04.jpg,AMNE13.jpg,AMSA13.jpg,AMNE13.jpg,MN,1,num_2,32,num_4,1.50004474318,,,2017_Apr_25_1316,60.0034834418,MAFE4ImagesEEG,001,200232,
AMSA21.JPG,AMNE22.JPG,AMNE21.JPG,AMSA23.JPG,AMSA22.JPG,AMNE23.JPG,0,5,5,1,,,,,,,,,,,,,,,,,,,,,,,AMNE12.jpg,AMSA15.jpg,AMSA01.jpg,AMNE10.jpg,AMNE10.jpg,MN,1,num_4,16,num_4,1.25008700043,,,2017_Apr_25_1316,60.0034834418,MAFE4ImagesEEG,001,200232,
AFSA21.JPG,AFNE23.JPG,AFNE21.JPG,AFSA25.JPG,AFNE25.JPG,AFSA23.JPG,0,6,6,4,,,,,,,,,,,,,,,,,,,,,,,AMNE01.jpg,AMNE05.jpg,AMSA09.jpg,AMSA06.jpg,AMNE01.jpg,MN,1,num_8,16,num_8,0.733439198579,,,2017_Apr_25_1316,60.0034834418,MAFE4ImagesEEG,001,200232,
AFNE23.JPG,AFNE24.JPG,AFNE22.JPG,AFSA24.JPG,AFSA22.JPG,AFSA23.JPG,0,7,7,8,,,,,,,,,,,,,,,,,,,,,,,AMNE10.jpg,AMSA15.jpg,AMNE13.jpg,AMSA03.jpg,AMNE13.jpg,MN,1,num_2,32,num_8,1.30006552697,,,2017_Apr_25_1316,60.0034834418,MAFE4ImagesEEG,001,200232,
AMSA21.JPG,AMNE23.JPG,AMNE21.JPG,AMSA25.JPG,AMNE25.JPG,AMSA23.JPG,0,8,8,5,,,,,,,,,,,,,,,,,,,,,,,AMSA14.jpg,AMNE11.jpg,AMSA15.jpg,AMNE16.jpg,AMSA15.jpg,MS,2,num_2,32,num_8,1.4002207967,,,2017_Apr_25_1316,60.0034834418,MAFE4ImagesEEG,001,200232,
AMSA25.JPG,AMNE24.JPG,AMSA24.JPG,AMNE26.JPG,AMSA21.JPG,AMNE25.JPG,0,9,9,3,,,,,,,,,,,,,,,,,,,,,,,AMSA13.jpg,AMSA11.jpg,AMNE01.jpg,AMNE15.jpg,AMNE15.jpg,MN,1,num_4,16,num_4,1.56686175079,,,2017_Apr_25_1316,60.0034834418,MAFE4ImagesEEG,001,200232,
AMSA21.JPG,AMNE23.JPG,AMNE21.JPG,AMSA25.JPG,AMNE25.JPG,AMSA23.JPG,,,,,0,0,0,5,,,,,,,,,,,,,,,,,,,AFNE05.jpg,AFNE15.jpg,AFSA10.jpg,AFSA04.jpg,AFNE15.jpg,FN,3,num_6,16,num_6,0.683454898885,,,2017_Apr_25_1316,60.0034834418,MAFE4ImagesEEG,001,200232,
AFSA21.JPG,AFNE22.JPG,AFNE21.JPG,AFSA23.JPG,AFSA22.JPG,AFNE23.JPG,,,,,0,1,1,0,,,,,,,,,,,,,,,,,,,AFSA06.jpg,AFNE18.jpg,AFSA13.jpg,AFNE16.jpg,AFNE16.jpg,FN,3,num_4,16,num_4,0.850171547267,,,2017_Apr_25_1316,60.0034834418,MAFE4ImagesEEG,001,200232,
AFSA25.JPG,AFNE24.JPG,AFSA24.JPG,AFNE21.JPG,AFSA21.JPG,AFNE25.JPG,,,,,0,2,2,2,,,,,,,,,,,,,,,,,,,AFNE12.jpg,AFNE03.jpg,AFSA20.jpg,AFSA07.jpg,AFNE03.jpg,FN,3,num_6,16,num_6,1.26668236149,,,2017_Apr_25_1316,60.0034834418,MAFE4ImagesEEG,001,200232,
AFNE23.JPG,AFNE24.JPG,AFNE22.JPG,AFSA24.JPG,AFSA22.JPG,AFSA23.JPG,,,,,0,3,3,8,,,,,,,,,,,,,,,,,,,AFSA20.jpg,AFNE16.jpg,AFNE07.jpg,AFSA03.jpg,AFSA03.jpg,FS,4,num_4,32,num_8,1.13348487183,,,2017_Apr_25_1316,60.0034834418,MAFE4ImagesEEG,001,200232,
AMNE23.JPG,AMNE24.JPG,AMNE22.JPG,AMSA24.JPG,AMSA22.JPG,AMSA23.JPG,,,,,0,4,4,9,,,,,,,,,,,,,,,,,,,AFSA07.jpg,AFNE05.jpg,AFSA10.jpg,AFNE02.jpg,AFSA10.jpg,FS,4,num_2,32,num_8,1.55008228554,,,2017_Apr_25_1316,60.0034834418,MAFE4ImagesEEG,001,200232,
AMSA25.JPG,AMNE24.JPG,AMSA24.JPG,AMNE26.JPG,AMSA21.JPG,AMNE25.JPG,,,,,0,5,5,3,,,,,,,,,,,,,,,,,,,AFNE19.jpg,AFNE16.jpg,AFSA17.jpg,AFSA03.jpg,AFSA03.jpg,FS,4,num_4,16,num_4,1.38331816776,,,2017_Apr_25_1316,60.0034834418,MAFE4ImagesEEG,001,200232,
AFSA21.JPG,AFNE23.JPG,AFNE21.JPG,AFSA25.JPG,AFNE25.JPG,AFSA23.JPG,,,,,0,6,6,4,,,,,,,,,,,,,,,,,,,AFNE05.jpg,AFSA10.jpg,AFNE16.jpg,AFSA14.jpg,AFSA10.jpg,FS,4,num_6,16,num_6,1.53311133909,,,2017_Apr_25_1316,60.0034834418,MAFE4ImagesEEG,001,200232,
AMSA21.JPG,AMNE22.JPG,AMNE21.JPG,AMSA23.JPG,AMSA22.JPG,AMNE23.JPG,,,,,0,7,7,1,,,,,,,,,,,,,,,,,,,AFSA18.jpg,AFNE20.jpg,AFNE12.jpg,AFSA04.jpg,AFNE12.jpg,FN,3,num_2,16,num_2,1.18345537991,,,2017_Apr_25_1316,60.0034834418,MAFE4ImagesEEG,001,200232,
AFNE22.JPG,AFSA24.JPG,AFSA22.JPG,AFNE25.JPG,AFNE24.JPG,AFSA25.JPG,,,,,0,8,8,6,,,,,,,,,,,,,,,,,,,AFSA09.jpg,AFNE10.jpg,AFSA12.jpg,AFNE02.jpg,AFSA09.jpg,FS,4,num_8,32,num_6,1.25008283078,,,2017_Apr_25_1316,60.0034834418,MAFE4ImagesEEG,001,200232,
AMNE22.JPG,AMSA24.JPG,AMSA22.JPG,AMNE25.JPG,AMNE24.JPG,AMSA25.JPG,,,,,0,9,9,7,,,,,,,,,,,,,,,,,,,AFSA14.jpg,AFNE06.jpg,AFSA16.jpg,AFNE16.jpg,AFSA16.jpg,FS,4,num_2,16,num_2,1.35009088146,,,2017_Apr_25_1316,60.0034834418,MAFE4ImagesEEG,001,200232,
AMSA21.JPG,AMNE22.JPG,AMNE21.JPG,AMSA23.JPG,AMSA22.JPG,AMNE23.JPG,,,,,,,,,0,0,0,1,,,,,,,,,,,,,,,AMSA10.jpg,AMNE08.jpg,AMSA09.jpg,AMNE01.jpg,AMNE08.jpg,MN,1,num_6,16,num_6,0.816807626165,,,2017_Apr_25_1316,60.0034834418,MAFE4ImagesEEG,001,200232,
AMSA21.JPG,AMNE23.JPG,AMNE21.JPG,AMSA25.JPG,AMNE25.JPG,AMSA23.JPG,,,,,,,,,0,1,1,5,,,,,,,,,,,,,,,AMNE05.jpg,AMSA12.jpg,AMNE08.jpg,AMSA04.jpg,AMSA12.jpg,MS,2,num_6,16,num_6,0.950166447554,,,2017_Apr_25_1316,60.0034834418,MAFE4ImagesEEG,001,200232,
AFSA25.JPG,AFNE24.JPG,AFSA24.JPG,AFNE21.JPG,AFSA21.JPG,AFNE25.JPG,,,,,,,,,0,2,2,2,,,,,,,,,,,,,,,AMSA12.jpg,AMNE18.jpg,AMNE01.jpg,AMSA10.jpg,AMNE18.jpg,MN,1,num_6,16,num_6,0.617109377403,,,2017_Apr_25_1316,60.0034834418,MAFE4ImagesEEG,001,200232,
AFSA21.JPG,AFNE23.JPG,AFNE21.JPG,AFSA25.JPG,AFNE25.JPG,AFSA23.JPG,,,,,,,,,0,3,3,4,,,,,,,,,,,,,,,AMSA13.jpg,AMSA18.jpg,AMNE12.jpg,AMNE03.jpg,AMSA13.jpg,MS,2,num_8,16,num_8,1.11671823612,,,2017_Apr_25_1316,60.0034834418,MAFE4ImagesEEG,001,200232,
AMNE22.JPG,AMSA24.JPG,AMSA22.JPG,AMNE25.JPG,AMNE24.JPG,AMSA25.JPG,,,,,,,,,0,4,4,7,,,,,,,,,,,,,,,AMSA16.jpg,AMSA11.jpg,AMNE06.jpg,AMNE20.jpg,AMSA11.jpg,MS,2,num_6,32,num_8,1.31672535662,,,2017_Apr_25_1316,60.0034834418,MAFE4ImagesEEG,001,200232,
AMSA25.JPG,AMNE24.JPG,AMSA24.JPG,AMNE26.JPG,AMSA21.JPG,AMNE25.JPG,,,,,,,,,0,5,5,3,,,,,,,,,,,,,,,AMNE10.jpg,AMSA02.jpg,AMNE06.jpg,AMSA04.jpg,AMNE10.jpg,MN,1,num_8,32,num_2,0.950127958902,,,2017_Apr_25_1316,60.0034834418,MAFE4ImagesEEG,001,200232,
AFSA21.JPG,AFNE22.JPG,AFNE21.JPG,AFSA23.JPG,AFSA22.JPG,AFNE23.JPG,,,,,,,,,0,6,6,0,,,,,,,,,,,,,,,AMSA19.jpg,AMSA16.jpg,AMNE04.jpg,AMNE16.jpg,AMSA19.jpg,MS,2,num_8,16,num_8,1.60010539484,,,2017_Apr_25_1316,60.0034834418,MAFE4ImagesEEG,001,200232,
AFNE23.JPG,AFNE24.JPG,AFNE22.JPG,AFSA24.JPG,AFSA22.JPG,AFSA23.JPG,,,,,,,,,0,7,7,8,,,,,,,,,,,,,,,AMSA15.jpg,AMNE01.jpg,AMSA02.jpg,AMNE13.jpg,AMNE01.jpg,MN,1,num_6,16,num_6,1.10015302454,,,2017_Apr_25_1316,60.0034834418,MAFE4ImagesEEG,001,200232,
AFNE22.JPG,AFSA24.JPG,AFSA22.JPG,AFNE25.JPG,AFNE24.JPG,AFSA25.JPG,,,,,,,,,0,8,8,6,,,,,,,,,,,,,,,AMSA12.jpg,AMNE20.jpg,AMSA17.jpg,AMNE01.jpg,AMNE20.jpg,MN,1,num_6,16,num_6,0.633599215304,,,2017_Apr_25_1316,60.0034834418,MAFE4ImagesEEG,001,200232,
AMNE23.JPG,AMNE24.JPG,AMNE22.JPG,AMSA24.JPG,AMSA22.JPG,AMSA23.JPG,,,,,,,,,0,9,9,9,,,,,,,,,,,,,,,AMSA18.jpg,AMSA08.jpg,AMNE19.jpg,AMNE08.jpg,AMNE19.jpg,MN,1,num_2,16,num_2,2.43325499818,,,2017_Apr_25_1316,60.0034834418,MAFE4ImagesEEG,001,200232,
AMSA21.JPG,AMNE22.JPG,AMNE21.JPG,AMSA23.JPG,AMSA22.JPG,AMNE23.JPG,,,,,,,,,,,,,0,0,0,1,,,,,,,,,,,AFSA11.jpg,AFNE04.jpg,AFNE07.jpg,AFSA02.jpg,AFNE04.jpg,FN,3,num_6,16,num_6,0.666789295967,,,2017_Apr_25_1316,60.0034834418,MAFE4ImagesEEG,001,200232,
AMSA21.JPG,AMNE23.JPG,AMNE21.JPG,AMSA25.JPG,AMNE25.JPG,AMSA23.JPG,,,,,,,,,,,,,0,1,1,5,,,,,,,,,,,AFNE14.jpg,AFNE07.jpg,AFSA10.jpg,AFSA02.jpg,AFNE07.jpg,FN,3,num_6,16,num_6,1.10009465017,,,2017_Apr_25_1316,60.0034834418,MAFE4ImagesEEG,001,200232,
AFSA21.JPG,AFNE22.JPG,AFNE21.JPG,AFSA23.JPG,AFSA22.JPG,AFNE23.JPG,,,,,,,,,,,,,0,2,2,0,,,,,,,,,,,AFSA02.jpg,AFNE05.jpg,AFNE14.jpg,AFSA03.jpg,AFNE05.jpg,FN,3,num_6,16,num_6,1.13342457288,,,2017_Apr_25_1316,60.0034834418,MAFE4ImagesEEG,001,200232,
AMNE23.JPG,AMNE24.JPG,AMNE22.JPG,AMSA24.JPG,AMSA22.JPG,AMSA23.JPG,,,,,,,,,,,,,0,3,3,9,,,,,,,,,,,AFNE17.jpg,AFNE07.jpg,AFSA05.jpg,AFSA02.jpg,AFSA05.jpg,FS,4,num_2,32,num_6,1.23356957908,,,2017_Apr_25_1316,60.0034834418,MAFE4ImagesEEG,001,200232,
AMSA25.JPG,AMNE24.JPG,AMSA24.JPG,AMNE26.JPG,AMSA21.JPG,AMNE25.JPG,,,,,,,,,,,,,0,4,4,3,,,,,,,,,,,AFNE05.jpg,AFNE19.jpg,AFSA08.jpg,AFSA03.jpg,AFSA03.jpg,FS,4,num_4,32,num_6,0.91671849275,,,2017_Apr_25_1316,60.0034834418,MAFE4ImagesEEG,001,200232,
AFSA25.JPG,AFNE24.JPG,AFSA24.JPG,AFNE21.JPG,AFSA21.JPG,AFNE25.JPG,,,,,,,,,,,,,0,5,5,2,,,,,,,,,,,AFNE17.jpg,AFSA02.jpg,AFSA17.jpg,AFNE20.jpg,AFNE20.jpg,FN,3,num_4,16,num_4,0.866758889868,,,2017_Apr_25_1316,60.0034834418,MAFE4ImagesEEG,001,200232,
AMNE22.JPG,AMSA24.JPG,AMSA22.JPG,AMNE25.JPG,AMNE24.JPG,AMSA25.JPG,,,,,,,,,,,,,0,6,6,7,,,,,,,,,,,AFSA07.jpg,AFNE01.jpg,AFNE16.jpg,AFSA17.jpg,AFSA17.jpg,FS,4,num_4,32,num_6,1.3166996974,,,2017_Apr_25_1316,60.0034834418,MAFE4ImagesEEG,001,200232,
AFNE23.JPG,AFNE24.JPG,AFNE22.JPG,AFSA24.JPG,AFSA22.JPG,AFSA23.JPG,,,,,,,,,,,,,0,7,7,8,,,,,,,,,,,AFSA07.jpg,AFNE04.jpg,AFNE03.jpg,AFSA05.jpg,AFSA05.jpg,FS,4,num_4,16,num_4,0.816761760507,,,2017_Apr_25_1316,60.0034834418,MAFE4ImagesEEG,001,200232,
AFNE22.JPG,AFSA24.JPG,AFSA22.JPG,AFNE25.JPG,AFNE24.JPG,AFSA25.JPG,,,,,,,,,,,,,0,8,8,6,,,,,,,,,,,AFSA19.jpg,AFSA09.jpg,AFNE06.jpg,AFNE18.jpg,AFNE18.jpg,FN,3,num_4,32,num_6,0.81681468233,,,2017_Apr_25_1316,60.0034834418,MAFE4ImagesEEG,001,200232,
AFSA21.JPG,AFNE23.JPG,AFNE21.JPG,AFSA25.JPG,AFNE25.JPG,AFSA23.JPG,,,,,,,,,,,,,0,9,9,4,,,,,,,,,,,AFNE05.jpg,AFNE06.jpg,AFSA12.jpg,AFSA13.jpg,AFNE05.jpg,FN,3,num_8,32,num_6,0.950105186435,,,2017_Apr_25_1316,60.0034834418,MAFE4ImagesEEG,001,200232,
AFNE22.JPG,AFSA24.JPG,AFSA22.JPG,AFNE25.JPG,AFNE24.JPG,AFSA25.JPG,,,,,,,,,,,,,,,,,0,0,0,6,,,,,,,AMNE17.jpg,AMNE05.jpg,AMSA19.jpg,AMSA17.jpg,AMNE05.jpg,MN,1,num_6,32,num_4,1.35007163708,,,2017_Apr_25_1316,60.0034834418,MAFE4ImagesEEG,001,200232,
AMNE22.JPG,AMSA24.JPG,AMSA22.JPG,AMNE25.JPG,AMNE24.JPG,AMSA25.JPG,,,,,,,,,,,,,,,,,0,1,1,7,,,,,,,AMNE08.jpg,AMSA03.jpg,AMSA15.jpg,AMNE17.jpg,AMNE08.jpg,MN,1,num_8,16,num_8,1.1501110238,,,2017_Apr_25_1316,60.0034834418,MAFE4ImagesEEG,001,200232,
AMSA25.JPG,AMNE24.JPG,AMSA24.JPG,AMNE26.JPG,AMSA21.JPG,AMNE25.JPG,,,,,,,,,,,,,,,,,0,2,2,3,,,,,,,AMSA20.jpg,AMNE15.jpg,AMSA07.jpg,AMNE17.jpg,AMSA20.jpg,MS,2,num_8,32,num_4,1.21674328588,,,2017_Apr_25_1316,60.0034834418,MAFE4ImagesEEG,001,200232,
AMSA21.JPG,AMNE22.JPG,AMNE21.JPG,AMSA23.JPG,AMSA22.JPG,AMNE23.JPG,,,,,,,,,,,,,,,,,0,3,3,1,,,,,,,AMSA04.jpg,AMNE13.jpg,AMNE08.jpg,AMSA07.jpg,AMNE08.jpg,MN,1,num_2,16,num_2,1.11670476513,,,2017_Apr_25_1316,60.0034834418,MAFE4ImagesEEG,001,200232,
AMNE23.JPG,AMNE24.JPG,AMNE22.JPG,AMSA24.JPG,AMSA22.JPG,AMSA23.JPG,,,,,,,,,,,,,,,,,0,4,4,9,,,,,,,AMNE02.jpg,AMSA10.jpg,AMNE08.jpg,AMSA13.jpg,AMSA10.jpg,MS,2,num_6,16,num_6,0.950101658236,,,2017_Apr_25_1316,60.0034834418,MAFE4ImagesEEG,001,200232,
AFSA21.JPG,AFNE22.JPG,AFNE21.JPG,AFSA23.JPG,AFSA22.JPG,AFNE23.JPG,,,,,,,,,,,,,,,,,0,5,5,0,,,,,,,AMSA02.jpg,AMNE18.jpg,AMSA08.jpg,AMNE13.jpg,AMSA02.jpg,MS,2,num_8,16,num_8,1.28342397953,,,2017_Apr_25_1316,60.0034834418,MAFE4ImagesEEG,001,200232,
AMSA21.JPG,AMNE23.JPG,AMNE21.JPG,AMSA25.JPG,AMNE25.JPG,AMSA23.JPG,,,,,,,,,,,,,,,,,0,6,6,5,,,,,,,AMNE09.jpg,AMNE14.jpg,AMSA14.jpg,AMSA13.jpg,AMNE09.jpg,MN,1,num_8,32,num_4,1.1834271549,,,2017_Apr_25_1316,60.0034834418,MAFE4ImagesEEG,001,200232,
AFSA21.JPG,AFNE23.JPG,AFNE21.JPG,AFSA25.JPG,AFNE25.JPG,AFSA23.JPG,,,,,,,,,,,,,,,,,0,7,7,4,,,,,,,AMNE06.jpg,AMSA14.jpg,AMNE11.jpg,AMSA05.jpg,AMNE11.jpg,MN,1,num_2,32,num_8,1.0834223117,,,2017_Apr_25_1316,60.0034834418,MAFE4ImagesEEG,001,200232,
AFNE23.JPG,AFNE24.JPG,AFNE22.JPG,AFSA24.JPG,AFSA22.JPG,AFSA23.JPG,,,,,,,,,,,,,,,,,0,8,8,8,,,,,,,AMSA14.jpg,AMNE17.jpg,AMNE20.jpg,AMSA12.jpg,AMSA14.jpg,MS,2,num_8,16,num_8,0.883471641457,,,2017_Apr_25_1316,60.0034834418,MAFE4ImagesEEG,001,200232,
AFSA25.JPG,AFNE24.JPG,AFSA24.JPG,AFNE21.JPG,AFSA21.JPG,AFNE25.JPG,,,,,,,,,,,,,,,,,0,9,9,2,,,,,,,AMSA20.jpg,AMNE07.jpg,AMSA11.jpg,AMNE03.jpg,AMSA11.jpg,MS,2,num_2,32,num_6,1.45008353656,,,2017_Apr_25_1316,60.0034834418,MAFE4ImagesEEG,001,200232,
AFSA21.JPG,AFNE23.JPG,AFNE21.JPG,AFSA25.JPG,AFNE25.JPG,AFSA23.JPG,,,,,,,,,,,,,,,,,,,,,0,0,0,4,,,AFNE01.jpg,AFSA01.jpg,AFSA15.jpg,AFNE07.jpg,AFNE01.jpg,FN,3,num_8,32,num_6,1.00007377006,,,2017_Apr_25_1316,60.0034834418,MAFE4ImagesEEG,001,200232,
AFSA25.JPG,AFNE24.JPG,AFSA24.JPG,AFNE21.JPG,AFSA21.JPG,AFNE25.JPG,,,,,,,,,,,,,,,,,,,,,0,1,1,2,,,AFSA10.jpg,AFNE08.jpg,AFNE18.jpg,AFSA01.jpg,AFNE08.jpg,FN,3,num_6,32,num_8,1.0503351884,,,2017_Apr_25_1316,60.0034834418,MAFE4ImagesEEG,001,200232,
AMSA21.JPG,AMNE23.JPG,AMNE21.JPG,AMSA25.JPG,AMNE25.JPG,AMSA23.JPG,,,,,,,,,,,,,,,,,,,,,0,2,2,5,,,AFNE12.jpg,AFNE03.jpg,AFSA05.jpg,AFSA09.jpg,AFSA09.jpg,FS,4,num_4,32,num_6,0.966739356867,,,2017_Apr_25_1316,60.0034834418,MAFE4ImagesEEG,001,200232,
AFSA21.JPG,AFNE22.JPG,AFNE21.JPG,AFSA23.JPG,AFSA22.JPG,AFNE23.JPG,,,,,,,,,,,,,,,,,,,,,0,3,3,0,,,AFSA05.jpg,AFSA09.jpg,AFNE01.jpg,AFNE05.jpg,AFSA05.jpg,FS,4,num_8,32,num_4,1.18344287109,,,2017_Apr_25_1316,60.0034834418,MAFE4ImagesEEG,001,200232,
AMSA25.JPG,AMNE24.JPG,AMSA24.JPG,AMNE26.JPG,AMSA21.JPG,AMNE25.JPG,,,,,,,,,,,,,,,,,,,,,0,4,4,3,,,AFNE01.jpg,AFSA20.jpg,AFSA12.jpg,AFNE03.jpg,AFNE01.jpg,FN,3,num_8,32,num_6,0.900113830343,,,2017_Apr_25_1316,60.0034834418,MAFE4ImagesEEG,001,200232,
AFNE22.JPG,AFSA24.JPG,AFSA22.JPG,AFNE25.JPG,AFNE24.JPG,AFSA25.JPG,,,,,,,,,,,,,,,,,,,,,0,5,5,6,,,AFSA08.jpg,AFNE07.jpg,AFSA13.jpg,AFNE03.jpg,AFSA08.jpg,FS,4,num_8,16,num_8,0.983439278789,,,2017_Apr_25_1316,60.0034834418,MAFE4ImagesEEG,001,200232,
AMNE23.JPG,AMNE24.JPG,AMNE22.JPG,AMSA24.JPG,AMSA22.JPG,AMSA23.JPG,,,,,,,,,,,,,,,,,,,,,0,6,6,9,,,AFNE12.jpg,AFSA09.jpg,AFSA04.jpg,AFNE18.jpg,AFNE18.jpg,FN,3,num_4,16,num_4,0.766754046665,,,2017_Apr_25_1316,60.0034834418,MAFE4ImagesEEG,001,200232,
AFNE23.JPG,AFNE24.JPG,AFNE22.JPG,AFSA24.JPG,AFSA22.JPG,AFSA23.JPG,,,,,,,,,,,,,,,,,,,,,0,7,7,8,,,AFSA15.jpg,AFNE06.jpg,AFNE14.jpg,AFSA07.jpg,AFSA15.jpg,FS,4,num_8,16,num_8,0.85012728523,,,2017_Apr_25_1316,60.0034834418,MAFE4ImagesEEG,001,200232,
AMSA21.JPG,AMNE22.JPG,AMNE21.JPG,AMSA23.JPG,AMSA22.JPG,AMNE23.JPG,,,,,,,,,,,,,,,,,,,,,0,8,8,1,,,AFSA08.jpg,AFNE01.jpg,AFNE20.jpg,AFSA04.jpg,AFNE20.jpg,FN,3,num_2,16,num_2,1.1500597056,,,2017_Apr_25_1316,60.0034834418,MAFE4ImagesEEG,001,200232,
AMNE22.JPG,AMSA24.JPG,AMSA22.JPG,AMNE25.JPG,AMNE24.JPG,AMSA25.JPG,,,,,,,,,,,,,,,,,,,,,0,9,9,7,,,AFNE06.jpg,AFSA10.jpg,AFSA11.jpg,AFNE18.jpg,AFSA10.jpg,FS,4,num_6,32,num_8,1.06684459129,,,2017_Apr_25_1316,60.0034834418,MAFE4ImagesEEG,001,200232,
,,,,,,,,,,,,,,,,,,,,,,,,,,,,,,,,,,,,,,,,,,,space,9.34911358939,2017_Apr_25_1316,60.0034834418,MAFE4ImagesEEG,001,200232,
AFNE01.JPG,AFNE01.JPG,AFNE01.JPG,AFNE01.JPG,AFNE01.JPG,AFNE01.JPG,0,0,0,9,,,,,,,,,,,,,,,,,,,,,,,AMSA12.jpg,AMSA09.jpg,AMNE20.jpg,AMNE05.jpg,AMNE05.jpg,MN,1,num_4,32,num_8,1.43339612335,,,2017_Apr_25_1316,60.0034834418,MAFE4ImagesEEG,001,200232,
AFNE01.JPG,AFNE01.JPG,AFNE01.JPG,AFNE01.JPG,AFNE01.JPG,AFNE01.JPG,0,1,1,6,,,,,,,,,,,,,,,,,,,,,,,AMNE06.jpg,AMSA05.jpg,AMNE17.jpg,AMSA01.jpg,AMSA01.jpg,MS,2,num_4,16,num_4,1.31675743056,,,2017_Apr_25_1316,60.0034834418,MAFE4ImagesEEG,001,200232,
AFNE01.JPG,AFNE01.JPG,AFNE01.JPG,AFNE01.JPG,AFNE01.JPG,AFNE01.JPG,0,2,2,0,,,,,,,,,,,,,,,,,,,,,,,AMNE12.jpg,AMSA13.jpg,AMSA08.jpg,AMNE05.jpg,AMSA08.jpg,MS,2,num_2,32,num_4,0.883481263532,,,2017_Apr_25_1316,60.0034834418,MAFE4ImagesEEG,001,200232,
AFNE01.JPG,AFNE01.JPG,AFNE01.JPG,AFNE01.JPG,AFNE01.JPG,AFNE01.JPG,0,3,3,2,,,,,,,,,,,,,,,,,,,,,,,AMNE07.jpg,AMSA19.jpg,AMSA02.jpg,AMNE11.jpg,AMNE07.jpg,MN,1,num_8,32,num_4,1.26676511217,,,2017_Apr_25_1316,60.0034834418,MAFE4ImagesEEG,001,200232,
AFNE01.JPG,AFNE01.JPG,AFNE01.JPG,AFNE01.JPG,AFNE01.JPG,AFNE01.JPG,0,4,4,3,,,,,,,,,,,,,,,,,,,,,,,AMSA09.jpg,AMNE13.jpg,AMSA18.jpg,AMNE03.jpg,AMNE03.jpg,MN,1,num_4,16,num_4,1.08349030837,,,2017_Apr_25_1316,60.0034834418,MAFE4ImagesEEG,001,200232,
AFNE01.JPG,AFNE01.JPG,AFNE01.JPG,AFNE01.JPG,AFNE01.JPG,AFNE01.JPG,0,5,5,7,,,,,,,,,,,,,,,,,,,,,,,AMSA07.jpg,AMSA19.jpg,AMNE03.jpg,AMNE19.jpg,AMNE03.jpg,MN,1,num_2,32,num_4,0.916905162856,,,2017_Apr_25_1316,60.0034834418,MAFE4ImagesEEG,001,200232,
AFNE01.JPG,AFNE01.JPG,AFNE01.JPG,AFNE01.JPG,AFNE01.JPG,AFNE01.JPG,0,6,6,8,,,,,,,,,,,,,,,,,,,,,,,AMSA12.jpg,AMNE11.jpg,AMNE18.jpg,AMSA09.jpg,AMSA12.jpg,MS,2,num_8,32,num_2,1.26671988796,,,2017_Apr_25_1316,60.0034834418,MAFE4ImagesEEG,001,200232,
AFNE01.JPG,AFNE01.JPG,AFNE01.JPG,AFNE01.JPG,AFNE01.JPG,AFNE01.JPG,0,7,7,1,,,,,,,,,,,,,,,,,,,,,,,AMNE14.jpg,AMNE06.jpg,AMSA08.jpg,AMSA01.jpg,AMNE14.jpg,MN,1,num_8,16,num_8,0.883433152689,,,2017_Apr_25_1316,60.0034834418,MAFE4ImagesEEG,001,200232,
AFNE01.JPG,AFNE01.JPG,AFNE01.JPG,AFNE01.JPG,AFNE01.JPG,AFNE01.JPG,0,8,8,4,,,,,,,,,,,,,,,,,,,,,,,AMNE11.jpg,AMSA08.jpg,AMNE19.jpg,AMSA17.jpg,AMNE11.jpg,MN,1,num_8,32,num_6,1.33126253495,,,2017_Apr_25_1316,60.0034834418,MAFE4ImagesEEG,001,200232,
AFNE01.JPG,AFNE01.JPG,AFNE01.JPG,AFNE01.JPG,AFNE01.JPG,AFNE01.JPG,0,9,9,5,,,,,,,,,,,,,,,,,,,,,,,AMNE06.jpg,AMSA20.jpg,AMSA11.jpg,AMNE11.jpg,AMNE11.jpg,MN,1,num_4,32,num_8,1.11674261233,,,2017_Apr_25_1316,60.0034834418,MAFE4ImagesEEG,001,200232,
AFNE01.JPG,AFNE01.JPG,AFNE01.JPG,AFNE01.JPG,AFNE01.JPG,AFNE01.JPG,1,0,10,4,,,,,,,,,,,,,,,,,,,,,,,AMNE16.jpg,AMSA12.jpg,AMSA11.jpg,AMNE07.jpg,AMSA11.jpg,MS,2,num_2,32,num_6,0.900248219958,,,2017_Apr_25_1316,60.0034834418,MAFE4ImagesEEG,001,200232,
AFNE01.JPG,AFNE01.JPG,AFNE01.JPG,AFNE01.JPG,AFNE01.JPG,AFNE01.JPG,1,1,11,9,,,,,,,,,,,,,,,,,,,,,,,AMSA20.jpg,AMNE19.jpg,AMSA18.jpg,AMNE09.jpg,AMNE19.jpg,MN,1,num_6,32,num_4,1.50009445776,,,2017_Apr_25_1316,60.0034834418,MAFE4ImagesEEG,001,200232,
AFNE01.JPG,AFNE01.JPG,AFNE01.JPG,AFNE01.JPG,AFNE01.JPG,AFNE01.JPG,1,2,12,6,,,,,,,,,,,,,,,,,,,,,,,AMNE02.jpg,AMSA14.jpg,AMNE04.jpg,AMSA02.jpg,AMNE02.jpg,MN,1,num_8,32,num_4,1.23340953025,,,2017_Apr_25_1316,60.0034834418,MAFE4ImagesEEG,001,200232,
AFNE01.JPG,AFNE01.JPG,AFNE01.JPG,AFNE01.JPG,AFNE01.JPG,AFNE01.JPG,1,3,13,7,,,,,,,,,,,,,,,,,,,,,,,AMSA09.jpg,AMNE05.jpg,AMNE15.jpg,AMSA03.jpg,AMNE05.jpg,MN,1,num_6,32,num_2,1.46671065071,,,2017_Apr_25_1316,60.0034834418,MAFE4ImagesEEG,001,200232,
AFNE01.JPG,AFNE01.JPG,AFNE01.JPG,AFNE01.JPG,AFNE01.JPG,AFNE01.JPG,1,4,14,3,,,,,,,,,,,,,,,,,,,,,,,AMNE17.jpg,AMNE16.jpg,AMSA08.jpg,AMSA10.jpg,AMNE17.jpg,MN,1,num_8,16,num_8,0.900099717779,,,2017_Apr_25_1316,60.0034834418,MAFE4ImagesEEG,001,200232,
AFNE01.JPG,AFNE01.JPG,AFNE01.JPG,AFNE01.JPG,AFNE01.JPG,AFNE01.JPG,1,5,15,8,,,,,,,,,,,,,,,,,,,,,,,AMSA14.jpg,AMNE18.jpg,AMNE16.jpg,AMSA15.jpg,AMSA15.jpg,MS,2,num_4,16,num_4,1.03349029238,,,2017_Apr_25_1316,60.0034834418,MAFE4ImagesEEG,001,200232,
AFNE01.JPG,AFNE01.JPG,AFNE01.JPG,AFNE01.JPG,AFNE01.JPG,AFNE01.JPG,1,6,16,2,,,,,,,,,,,,,,,,,,,,,,,AMNE04.jpg,AMSA11.jpg,AMNE11.jpg,AMSA12.jpg,AMSA12.jpg,MS,2,num_4,16,num_4,1.35021276225,,,2017_Apr_25_1316,60.0034834418,MAFE4ImagesEEG,001,200232,
AFNE01.JPG,AFNE01.JPG,AFNE01.JPG,AFNE01.JPG,AFNE01.JPG,AFNE01.JPG,1,7,17,0,,,,,,,,,,,,,,,,,,,,,,,AMSA13.jpg,AMNE14.jpg,AMSA08.jpg,AMNE05.jpg,AMSA13.jpg,MS,2,num_8,16,num_8,1.20010751183,,,2017_Apr_25_1316,60.0034834418,MAFE4ImagesEEG,001,200232,
AFNE01.JPG,AFNE01.JPG,AFNE01.JPG,AFNE01.JPG,AFNE01.JPG,AFNE01.JPG,1,8,18,1,,,,,,,,,,,,,,,,,,,,,,,AMNE05.jpg,AMSA14.jpg,AMSA12.jpg,AMNE01.jpg,AMNE01.jpg,MN,1,num_4,16,num_4,0.916739982204,,,2017_Apr_25_1316,60.0034834418,MAFE4ImagesEEG,001,200232,
AFNE01.JPG,AFNE01.JPG,AFNE01.JPG,AFNE01.JPG,AFNE01.JPG,AFNE01.JPG,1,9,19,5,,,,,,,,,,,,,,,,,,,,,,,AMNE04.jpg,AMNE17.jpg,AMSA20.jpg,AMSA19.jpg,AMNE17.jpg,MN,1,num_6,32,num_8,0.783489891444,,,2017_Apr_25_1316,60.0034834418,MAFE4ImagesEEG,001,200232,
AFNE01.JPG,AFNE01.JPG,AFNE01.JPG,AFNE01.JPG,AFNE01.JPG,AFNE01.JPG,2,0,20,4,,,,,,,,,,,,,,,,,,,,,,,AMNE09.jpg,AMSA17.jpg,AMSA06.jpg,AMNE03.jpg,AMNE09.jpg,MN,1,num_8,16,num_8,0.666778711602,,,2017_Apr_25_1316,60.0034834418,MAFE4ImagesEEG,001,200232,
AFNE01.JPG,AFNE01.JPG,AFNE01.JPG,AFNE01.JPG,AFNE01.JPG,AFNE01.JPG,2,1,21,6,,,,,,,,,,,,,,,,,,,,,,,AMNE17.jpg,AMNE01.jpg,AMSA03.jpg,AMSA15.jpg,AMSA15.jpg,MS,2,num_4,16,num_4,0.883748118416,,,2017_Apr_25_1316,60.0034834418,MAFE4ImagesEEG,001,200232,
AFNE01.JPG,AFNE01.JPG,AFNE01.JPG,AFNE01.JPG,AFNE01.JPG,AFNE01.JPG,2,2,22,7,,,,,,,,,,,,,,,,,,,,,,,AMSA18.jpg,AMSA12.jpg,AMNE13.jpg,AMNE11.jpg,AMNE13.jpg,MN,1,num_2,16,num_2,1.56682101695,,,2017_Apr_25_1316,60.0034834418,MAFE4ImagesEEG,001,200232,
AFNE01.JPG,AFNE01.JPG,AFNE01.JPG,AFNE01.JPG,AFNE01.JPG,AFNE01.JPG,2,3,23,3,,,,,,,,,,,,,,,,,,,,,,,AMNE11.jpg,AMNE03.jpg,AMSA12.jpg,AMSA17.jpg,AMSA17.jpg,MS,2,num_4,16,num_4,0.733485384961,,,2017_Apr_25_1316,60.0034834418,MAFE4ImagesEEG,001,200232,
AFNE01.JPG,AFNE01.JPG,AFNE01.JPG,AFNE01.JPG,AFNE01.JPG,AFNE01.JPG,2,4,24,2,,,,,,,,,,,,,,,,,,,,,,,AMSA09.jpg,AMSA15.jpg,AMNE20.jpg,AMNE07.jpg,AMSA09.jpg,MS,2,num_8,32,num_4,1.63343018584,,,2017_Apr_25_1316,60.0034834418,MAFE4ImagesEEG,001,200232,
AFNE01.JPG,AFNE01.JPG,AFNE01.JPG,AFNE01.JPG,AFNE01.JPG,AFNE01.JPG,2,5,25,1,,,,,,,,,,,,,,,,,,,,,,,AMNE14.jpg,AMSA11.jpg,AMSA02.jpg,AMNE12.jpg,AMSA11.jpg,MS,2,num_6,32,num_2,1.05006769195,,,2017_Apr_25_1316,60.0034834418,MAFE4ImagesEEG,001,200232,
AFNE01.JPG,AFNE01.JPG,AFNE01.JPG,AFNE01.JPG,AFNE01.JPG,AFNE01.JPG,2,6,26,8,,,,,,,,,,,,,,,,,,,,,,,AMSA13.jpg,AMNE19.jpg,AMNE08.jpg,AMSA18.jpg,AMSA18.jpg,MS,2,num_4,16,num_4,0.633470278233,,,2017_Apr_25_1316,60.0034834418,MAFE4ImagesEEG,001,200232,
AFNE01.JPG,AFNE01.JPG,AFNE01.JPG,AFNE01.JPG,AFNE01.JPG,AFNE01.JPG,2,7,27,5,,,,,,,,,,,,,,,,,,,,,,,AMNE17.jpg,AMNE19.jpg,AMSA17.jpg,AMSA11.jpg,AMNE19.jpg,MN,1,num_6,16,num_6,1.43339580263,,,2017_Apr_25_1316,60.0034834418,MAFE4ImagesEEG,001,200232,
AFNE01.JPG,AFNE01.JPG,AFNE01.JPG,AFNE01.JPG,AFNE01.JPG,AFNE01.JPG,2,8,28,0,,,,,,,,,,,,,,,,,,,,,,,AMNE06.jpg,AMSA03.jpg,AMSA18.jpg,AMNE19.jpg,AMSA18.jpg,MS,2,num_2,16,num_2,1.10008951824,,,2017_Apr_25_1316,60.0034834418,MAFE4ImagesEEG,001,200232,
AFNE01.JPG,AFNE01.JPG,AFNE01.JPG,AFNE01.JPG,AFNE01.JPG,AFNE01.JPG,2,9,29,9,,,,,,,,,,,,,,,,,,,,,,,AMSA13.jpg,AMNE12.jpg,AMNE04.jpg,AMSA18.jpg,AMNE04.jpg,MN,1,num_2,16,num_2,1.33349712403,,,2017_Apr_25_1316,60.0034834418,MAFE4ImagesEEG,001,200232,
AFNE01.JPG,AFNE01.JPG,AFNE01.JPG,AFNE01.JPG,AFNE01.JPG,AFNE01.JPG,3,0,30,5,,,,,,,,,,,,,,,,,,,,,,,AMSA10.jpg,AMNE17.jpg,AMSA20.jpg,AMNE05.jpg,AMNE05.jpg,MN,1,num_4,32,num_8,1.23342781235,,,2017_Apr_25_1316,60.0034834418,MAFE4ImagesEEG,001,200232,
AFNE01.JPG,AFNE01.JPG,AFNE01.JPG,AFNE01.JPG,AFNE01.JPG,AFNE01.JPG,3,1,31,3,,,,,,,,,,,,,,,,,,,,,,,AMSA03.jpg,AMNE09.jpg,AMNE02.jpg,AMSA04.jpg,AMNE02.jpg,MN,1,num_2,32,num_6,1.65006852592,,,2017_Apr_25_1316,60.0034834418,MAFE4ImagesEEG,001,200232,
AFNE01.JPG,AFNE01.JPG,AFNE01.JPG,AFNE01.JPG,AFNE01.JPG,AFNE01.JPG,3,2,32,1,,,,,,,,,,,,,,,,,,,,,,,AMSA12.jpg,AMNE07.jpg,AMSA06.jpg,AMNE01.jpg,AMSA06.jpg,MS,2,num_2,16,num_2,1.48366844689,,,2017_Apr_25_1316,60.0034834418,MAFE4ImagesEEG,001,200232,
AFNE01.JPG,AFNE01.JPG,AFNE01.JPG,AFNE01.JPG,AFNE01.JPG,AFNE01.JPG,3,3,33,4,,,,,,,,,,,,,,,,,,,,,,,AMNE10.jpg,AMNE13.jpg,AMSA10.jpg,AMSA03.jpg,AMSA10.jpg,MS,2,num_2,32,num_8,1.85016513243,,,2017_Apr_25_1316,60.0034834418,MAFE4ImagesEEG,001,200232,
AFNE01.JPG,AFNE01.JPG,AFNE01.JPG,AFNE01.JPG,AFNE01.JPG,AFNE01.JPG,3,4,34,6,,,,,,,,,,,,,,,,,,,,,,,AMSA03.jpg,AMSA13.jpg,AMNE11.jpg,AMNE13.jpg,AMSA13.jpg,MS,2,num_6,32,num_4,1.28351346578,,,2017_Apr_25_1316,60.0034834418,MAFE4ImagesEEG,001,200232,
AFNE01.JPG,AFNE01.JPG,AFNE01.JPG,AFNE01.JPG,AFNE01.JPG,AFNE01.JPG,3,5,35,8,,,,,,,,,,,,,,,,,,,,,,,AMSA20.jpg,AMSA02.jpg,AMNE17.jpg,AMNE05.jpg,AMSA20.jpg,MS,2,num_8,16,num_8,0.933521692757,,,2017_Apr_25_1316,60.0034834418,MAFE4ImagesEEG,001,200232,
AFNE01.JPG,AFNE01.JPG,AFNE01.JPG,AFNE01.JPG,AFNE01.JPG,AFNE01.JPG,3,6,36,7,,,,,,,,,,,,,,,,,,,,,,,AMNE16.jpg,AMSA18.jpg,AMSA17.jpg,AMNE10.jpg,AMSA17.jpg,MS,2,num_2,16,num_2,1.01673905202,,,2017_Apr_25_1316,60.0034834418,MAFE4ImagesEEG,001,200232,
AFNE01.JPG,AFNE01.JPG,AFNE01.JPG,AFNE01.JPG,AFNE01.JPG,AFNE01.JPG,3,7,37,2,,,,,,,,,,,,,,,,,,,,,,,AMSA06.jpg,AMNE20.jpg,AMNE07.jpg,AMSA01.jpg,AMSA06.jpg,MS,2,num_8,16,num_8,0.983472314896,,,2017_Apr_25_1316,60.0034834418,MAFE4ImagesEEG,001,200232,
AFNE01.JPG,AFNE01.JPG,AFNE01.JPG,AFNE01.JPG,AFNE01.JPG,AFNE01.JPG,3,8,38,9,,,,,,,,,,,,,,,,,,,,,,,AMNE18.jpg,AMSA05.jpg,AMSA18.jpg,AMNE05.jpg,AMSA05.jpg,MS,2,num_6,32,num_8,0.916747038602,,,2017_Apr_25_1316,60.0034834418,MAFE4ImagesEEG,001,200232,
AFNE01.JPG,AFNE01.JPG,AFNE01.JPG,AFNE01.JPG,AFNE01.JPG,AFNE01.JPG,3,9,39,0,,,,,,,,,,,,,,,,,,,,,,,AMSA07.jpg,AMSA17.jpg,AMNE11.jpg,AMNE09.jpg,AMSA17.jpg,MS,2,num_6,16,num_6,0.583497204236,,,2017_Apr_25_1316,60.0034834418,MAFE4ImagesEEG,001,200232,
AFNE01.JPG,AFNE01.JPG,AFNE01.JPG,AFNE01.JPG,AFNE01.JPG,AFNE01.JPG,4,0,40,6,,,,,,,,,,,,,,,,,,,,,,,AMNE01.jpg,AMNE03.jpg,AMSA06.jpg,AMSA12.jpg,AMSA12.jpg,MS,2,num_4,16,num_4,0.966510349186,,,2017_Apr_25_1316,60.0034834418,MAFE4ImagesEEG,001,200232,
AFNE01.JPG,AFNE01.JPG,AFNE01.JPG,AFNE01.JPG,AFNE01.JPG,AFNE01.JPG,4,1,41,5,,,,,,,,,,,,,,,,,,,,,,,AMNE11.jpg,AMNE12.jpg,AMSA01.jpg,AMSA09.jpg,AMSA01.jpg,MS,2,num_2,16,num_2,0.700119218789,,,2017_Apr_25_1316,60.0034834418,MAFE4ImagesEEG,001,200232,
AFNE01.JPG,AFNE01.JPG,AFNE01.JPG,AFNE01.JPG,AFNE01.JPG,AFNE01.JPG,4,2,42,1,,,,,,,,,,,,,,,,,,,,,,,AMNE03.jpg,AMSA18.jpg,AMSA10.jpg,AMNE08.jpg,AMSA10.jpg,MS,2,num_2,32,num_4,1.03352525295,,,2017_Apr_25_1316,60.0034834418,MAFE4ImagesEEG,001,200232,
AFNE01.JPG,AFNE01.JPG,AFNE01.JPG,AFNE01.JPG,AFNE01.JPG,AFNE01.JPG,4,3,43,3,,,,,,,,,,,,,,,,,,,,,,,AMNE08.jpg,AMSA02.jpg,AMNE17.jpg,AMSA08.jpg,AMSA08.jpg,MS,2,num_4,32,num_8,0.800070498488,,,2017_Apr_25_1316,60.0034834418,MAFE4ImagesEEG,001,200232,
AFNE01.JPG,AFNE01.JPG,AFNE01.JPG,AFNE01.JPG,AFNE01.JPG,AFNE01.JPG,4,4,44,2,,,,,,,,,,,,,,,,,,,,,,,AMSA13.jpg,AMNE08.jpg,AMNE02.jpg,AMSA01.jpg,AMNE08.jpg,MN,1,num_6,16,num_6,1.35012840794,,,2017_Apr_25_1316,60.0034834418,MAFE4ImagesEEG,001,200232,
AFNE01.JPG,AFNE01.JPG,AFNE01.JPG,AFNE01.JPG,AFNE01.JPG,AFNE01.JPG,4,5,45,7,,,,,,,,,,,,,,,,,,,,,,,AMNE02.jpg,AMNE13.jpg,AMSA06.jpg,AMSA14.jpg,AMNE13.jpg,MN,1,num_6,16,num_6,0.716822668794,,,2017_Apr_25_1316,60.0034834418,MAFE4ImagesEEG,001,200232,
AFNE01.JPG,AFNE01.JPG,AFNE01.JPG,AFNE01.JPG,AFNE01.JPG,AFNE01.JPG,4,6,46,8,,,,,,,,,,,,,,,,,,,,,,,AMNE05.jpg,AMSA13.jpg,AMSA01.jpg,AMNE18.jpg,AMSA01.jpg,MS,2,num_2,32,num_8,1.48356067855,,,2017_Apr_25_1316,60.0034834418,MAFE4ImagesEEG,001,200232,
AFNE01.JPG,AFNE01.JPG,AFNE01.JPG,AFNE01.JPG,AFNE01.JPG,AFNE01.JPG,4,7,47,0,,,,,,,,,,,,,,,,,,,,,,,AMSA19.jpg,AMNE06.jpg,AMSA13.jpg,AMNE19.jpg,AMNE06.jpg,MN,1,num_6,16,num_6,0.983566291514,,,2017_Apr_25_1316,60.0034834418,MAFE4ImagesEEG,001,200232,
AFNE01.JPG,AFNE01.JPG,AFNE01.JPG,AFNE01.JPG,AFNE01.JPG,AFNE01.JPG,4,8,48,4,,,,,,,,,,,,,,,,,,,,,,,AMNE03.jpg,AMSA14.jpg,AMNE09.jpg,AMSA02.jpg,AMNE09.jpg,MN,1,num_2,32,num_8,0.933472619625,,,2017_Apr_25_1316,60.0034834418,MAFE4ImagesEEG,001,200232,
AFNE01.JPG,AFNE01.JPG,AFNE01.JPG,AFNE01.JPG,AFNE01.JPG,AFNE01.JPG,4,9,49,9,,,,,,,,,,,,,,,,,,,,,,,AMSA19.jpg,AMNE02.jpg,AMSA12.jpg,AMNE08.jpg,AMNE02.jpg,MN,1,num_6,16,num_6,1.48340030899,,,2017_Apr_25_1316,60.0034834418,MAFE4ImagesEEG,001,200232,
AFNE01.JPG,AFNE01.JPG,AFNE01.JPG,AFNE01.JPG,AFNE01.JPG,AFNE01.JPG,5,0,50,9,,,,,,,,,,,,,,,,,,,,,,,AMNE09.jpg,AMSA12.jpg,AMNE20.jpg,AMSA18.jpg,AMNE09.jpg,MN,1,num_8,32,num_6,1.10007412278,,,2017_Apr_25_1316,60.0034834418,MAFE4ImagesEEG,001,200232,
AFNE01.JPG,AFNE01.JPG,AFNE01.JPG,AFNE01.JPG,AFNE01.JPG,AFNE01.JPG,5,1,51,0,,,,,,,,,,,,,,,,,,,,,,,AMNE07.jpg,AMNE17.jpg,AMSA18.jpg,AMSA06.jpg,AMNE17.jpg,MN,1,num_6,16,num_6,0.783436007216,,,2017_Apr_25_1316,60.0034834418,MAFE4ImagesEEG,001,200232,
AFNE01.JPG,AFNE01.JPG,AFNE01.JPG,AFNE01.JPG,AFNE01.JPG,AFNE01.JPG,5,2,52,2,,,,,,,,,,,,,,,,,,,,,,,AMNE18.jpg,AMSA02.jpg,AMNE10.jpg,AMSA05.jpg,AMSA05.jpg,MS,2,num_4,32,num_8,0.916740623768,,,2017_Apr_25_1316,60.0034834418,MAFE4ImagesEEG,001,200232,
AFNE01.JPG,AFNE01.JPG,AFNE01.JPG,AFNE01.JPG,AFNE01.JPG,AFNE01.JPG,5,3,53,7,,,,,,,,,,,,,,,,,,,,,,,AMNE15.jpg,AMNE19.jpg,AMSA04.jpg,AMSA01.jpg,AMSA04.jpg,MS,2,num_2,16,num_2,0.716789632686,,,2017_Apr_25_1316,60.0034834418,MAFE4ImagesEEG,001,200232,
AFNE01.JPG,AFNE01.JPG,AFNE01.JPG,AFNE01.JPG,AFNE01.JPG,AFNE01.JPG,5,4,54,8,,,,,,,,,,,,,,,,,,,,,,,AMNE10.jpg,AMSA13.jpg,AMNE17.jpg,AMSA11.jpg,AMNE10.jpg,MN,1,num_8,16,num_8,0.866817264352,,,2017_Apr_25_1316,60.0034834418,MAFE4ImagesEEG,001,200232,
AFNE01.JPG,AFNE01.JPG,AFNE01.JPG,AFNE01.JPG,AFNE01.JPG,AFNE01.JPG,5,5,55,1,,,,,,,,,,,,,,,,,,,,,,,AMNE05.jpg,AMNE07.jpg,AMSA11.jpg,AMSA16.jpg,AMNE05.jpg,MN,1,num_8,32,num_6,0.83342062775,,,2017_Apr_25_1316,60.0034834418,MAFE4ImagesEEG,001,200232,
AFNE01.JPG,AFNE01.JPG,AFNE01.JPG,AFNE01.JPG,AFNE01.JPG,AFNE01.JPG,5,6,56,3,,,,,,,,,,,,,,,,,,,,,,,AMNE04.jpg,AMSA03.jpg,AMNE06.jpg,AMSA02.jpg,AMSA03.jpg,MS,2,num_6,16,num_6,0.616784468759,,,2017_Apr_25_1316,60.0034834418,MAFE4ImagesEEG,001,200232,
AFNE01.JPG,AFNE01.JPG,AFNE01.JPG,AFNE01.JPG,AFNE01.JPG,AFNE01.JPG,5,7,57,6,,,,,,,,,,,,,,,,,,,,,,,AMSA11.jpg,AMSA07.jpg,AMNE06.jpg,AMNE19.jpg,AMNE19.jpg,MN,1,num_4,16,num_4,0.583477318403,,,2017_Apr_25_1316,60.0034834418,MAFE4ImagesEEG,001,200232,
AFNE01.JPG,AFNE01.JPG,AFNE01.JPG,AFNE01.JPG,AFNE01.JPG,AFNE01.JPG,5,8,58,5,,,,,,,,,,,,,,,,,,,,,,,AMSA05.jpg,AMSA20.jpg,AMNE01.jpg,AMNE11.jpg,AMNE11.jpg,MN,1,num_4,32,num_8,1.41675938701,,,2017_Apr_25_1316,60.0034834418,MAFE4ImagesEEG,001,200232,
AFNE01.JPG,AFNE01.JPG,AFNE01.JPG,AFNE01.JPG,AFNE01.JPG,AFNE01.JPG,5,9,59,4,,,,,,,,,,,,,,,,,,,,,,,AMNE06.jpg,AMSA15.jpg,AMNE16.jpg,AMSA11.jpg,AMSA11.jpg,MS,2,num_4,16,num_4,0.683486972703,,,2017_Apr_25_1316,60.0034834418,MAFE4ImagesEEG,001,200232,
,,,,,,,,,,,,,,,,,,,,,,,,,,,,,,,,,,,,,,,,,,,space,8.58280087973,2017_Apr_25_1316,60.0034834418,MAFE4ImagesEEG,001,200232,
AFNE01.JPG,AFNE01.JPG,AFNE01.JPG,AFNE01.JPG,AFNE01.JPG,AFNE01.JPG,,,,,0,0,0,4,,,,,,,,,,,,,,,,,,,AFNE20.jpg,AFNE18.jpg,AFSA16.jpg,AFSA20.jpg,AFSA20.jpg,FS,4,num_4,16,num_4,1.01673648623,,,2017_Apr_25_1316,60.0034834418,MAFE4ImagesEEG,001,200232,
AFNE01.JPG,AFNE01.JPG,AFNE01.JPG,AFNE01.JPG,AFNE01.JPG,AFNE01.JPG,,,,,0,1,1,7,,,,,,,,,,,,,,,,,,,AFSA12.jpg,AFSA04.jpg,AFNE11.jpg,AFNE12.jpg,AFSA04.jpg,FS,4,num_6,16,num_6,0.816803135793,,,2017_Apr_25_1316,60.0034834418,MAFE4ImagesEEG,001,200232,
AFNE01.JPG,AFNE01.JPG,AFNE01.JPG,AFNE01.JPG,AFNE01.JPG,AFNE01.JPG,,,,,0,2,2,1,,,,,,,,,,,,,,,,,,,AFNE08.jpg,AFSA07.jpg,AFSA13.jpg,AFNE13.jpg,AFSA13.jpg,FS,4,num_2,16,num_2,0.566884523374,,,2017_Apr_25_1316,60.0034834418,MAFE4ImagesEEG,001,200232,
AFNE01.JPG,AFNE01.JPG,AFNE01.JPG,AFNE01.JPG,AFNE01.JPG,AFNE01.JPG,,,,,0,3,3,0,,,,,,,,,,,,,,,,,,,AFNE17.jpg,AFSA12.jpg,AFNE18.jpg,AFSA03.jpg,AFSA03.jpg,FS,4,num_4,16,num_4,1.16704668908,,,2017_Apr_25_1316,60.0034834418,MAFE4ImagesEEG,001,200232,
AFNE01.JPG,AFNE01.JPG,AFNE01.JPG,AFNE01.JPG,AFNE01.JPG,AFNE01.JPG,,,,,0,4,4,9,,,,,,,,,,,,,,,,,,,AFSA18.jpg,AFNE05.jpg,AFSA06.jpg,AFNE19.jpg,AFNE19.jpg,FN,3,num_4,16,num_4,0.900119282771,,,2017_Apr_25_1316,60.0034834418,MAFE4ImagesEEG,001,200232,
AFNE01.JPG,AFNE01.JPG,AFNE01.JPG,AFNE01.JPG,AFNE01.JPG,AFNE01.JPG,,,,,0,5,5,5,,,,,,,,,,,,,,,,,,,AFNE15.jpg,AFSA09.jpg,AFNE10.jpg,AFSA12.jpg,AFSA12.jpg,FS,4,num_4,16,num_4,0.616773242946,,,2017_Apr_25_1316,60.0034834418,MAFE4ImagesEEG,001,200232,
AFNE01.JPG,AFNE01.JPG,AFNE01.JPG,AFNE01.JPG,AFNE01.JPG,AFNE01.JPG,,,,,0,6,6,6,,,,,,,,,,,,,,,,,,,AFNE19.jpg,AFNE05.jpg,AFSA03.jpg,AFSA18.jpg,AFNE05.jpg,FN,3,num_6,32,num_8,1.03342518234,,,2017_Apr_25_1316,60.0034834418,MAFE4ImagesEEG,001,200232,
AFNE01.JPG,AFNE01.JPG,AFNE01.JPG,AFNE01.JPG,AFNE01.JPG,AFNE01.JPG,,,,,0,7,7,2,,,,,,,,,,,,,,,,,,,AFNE12.jpg,AFSA12.jpg,AFNE01.jpg,AFSA02.jpg,AFSA02.jpg,FS,4,num_4,32,num_2,1.25009950926,,,2017_Apr_25_1316,60.0034834418,MAFE4ImagesEEG,001,200232,
AFNE01.JPG,AFNE01.JPG,AFNE01.JPG,AFNE01.JPG,AFNE01.JPG,AFNE01.JPG,,,,,0,8,8,3,,,,,,,,,,,,,,,,,,,AFSA19.jpg,AFNE07.jpg,AFNE20.jpg,AFSA16.jpg,AFNE07.jpg,FN,3,num_6,16,num_6,0.733476404333,,,2017_Apr_25_1316,60.0034834418,MAFE4ImagesEEG,001,200232,
AFNE01.JPG,AFNE01.JPG,AFNE01.JPG,AFNE01.JPG,AFNE01.JPG,AFNE01.JPG,,,,,0,9,9,8,,,,,,,,,,,,,,,,,,,AFNE04.jpg,AFSA13.jpg,AFNE10.jpg,AFSA03.jpg,AFNE04.jpg,FN,3,num_8,16,num_8,1.00008339214,,,2017_Apr_25_1316,60.0034834418,MAFE4ImagesEEG,001,200232,
AFNE01.JPG,AFNE01.JPG,AFNE01.JPG,AFNE01.JPG,AFNE01.JPG,AFNE01.JPG,,,,,1,0,10,9,,,,,,,,,,,,,,,,,,,AFSA04.jpg,AFSA14.jpg,AFNE03.jpg,AFNE16.jpg,AFSA04.jpg,FS,4,num_8,16,num_8,1.25009598117,,,2017_Apr_25_1316,60.0034834418,MAFE4ImagesEEG,001,200232,
AFNE01.JPG,AFNE01.JPG,AFNE01.JPG,AFNE01.JPG,AFNE01.JPG,AFNE01.JPG,,,,,1,1,11,8,,,,,,,,,,,,,,,,,,,AFSA05.jpg,AFSA01.jpg,AFNE15.jpg,AFNE13.jpg,AFNE13.jpg,FN,3,num_4,32,num_8,1.31670418789,,,2017_Apr_25_1316,60.0034834418,MAFE4ImagesEEG,001,200232,
AFNE01.JPG,AFNE01.JPG,AFNE01.JPG,AFNE01.JPG,AFNE01.JPG,AFNE01.JPG,,,,,1,2,12,6,,,,,,,,,,,,,,,,,,,AFNE11.jpg,AFSA05.jpg,AFNE10.jpg,AFSA16.jpg,AFSA05.jpg,FS,4,num_6,16,num_6,0.78346294933,,,2017_Apr_25_1316,60.0034834418,MAFE4ImagesEEG,001,200232,
AFNE01.JPG,AFNE01.JPG,AFNE01.JPG,AFNE01.JPG,AFNE01.JPG,AFNE01.JPG,,,,,1,3,13,0,,,,,,,,,,,,,,,,,,,AFNE06.jpg,AFSA03.jpg,AFNE01.jpg,AFSA14.jpg,AFNE06.jpg,FN,3,num_8,16,num_8,1.01905254321,,,2017_Apr_25_1316,60.0034834418,MAFE4ImagesEEG,001,200232,
AFNE01.JPG,AFNE01.JPG,AFNE01.JPG,AFNE01.JPG,AFNE01.JPG,AFNE01.JPG,,,,,1,4,14,2,,,,,,,,,,,,,,,,,,,AFSA13.jpg,AFSA04.jpg,AFNE06.jpg,AFNE15.jpg,AFSA13.jpg,FS,4,num_8,16,num_8,1.13344253437,,,2017_Apr_25_1316,60.0034834418,MAFE4ImagesEEG,001,200232,
AFNE01.JPG,AFNE01.JPG,AFNE01.JPG,AFNE01.JPG,AFNE01.JPG,AFNE01.JPG,,,,,1,5,15,3,,,,,,,,,,,,,,,,,,,AFNE04.jpg,AFNE03.jpg,AFSA10.jpg,AFSA07.jpg,AFNE04.jpg,FN,3,num_8,16,num_8,0.733625227236,,,2017_Apr_25_1316,60.0034834418,MAFE4ImagesEEG,001,200232,
AFNE01.JPG,AFNE01.JPG,AFNE01.JPG,AFNE01.JPG,AFNE01.JPG,AFNE01.JPG,,,,,1,6,16,1,,,,,,,,,,,,,,,,,,,AFSA15.jpg,AFNE14.jpg,AFNE01.jpg,AFSA04.jpg,AFNE01.jpg,FN,3,num_2,32,num_6,0.966766298981,,,2017_Apr_25_1316,60.0034834418,MAFE4ImagesEEG,001,200232,
AFNE01.JPG,AFNE01.JPG,AFNE01.JPG,AFNE01.JPG,AFNE01.JPG,AFNE01.JPG,,,,,1,7,17,7,,,,,,,,,,,,,,,,,,,AFNE06.jpg,AFSA01.jpg,AFNE01.jpg,AFSA04.jpg,AFSA04.jpg,FS,4,num_4,16,num_4,0.950124430703,,,2017_Apr_25_1316,60.0034834418,MAFE4ImagesEEG,001,200232,
AFNE01.JPG,AFNE01.JPG,AFNE01.JPG,AFNE01.JPG,AFNE01.JPG,AFNE01.JPG,,,,,1,8,18,4,,,,,,,,,,,,,,,,,,,AFSA08.jpg,AFSA07.jpg,AFNE19.jpg,AFNE08.jpg,AFNE19.jpg,FN,3,num_2,16,num_2,0.566808187519,,,2017_Apr_25_1316,60.0034834418,MAFE4ImagesEEG,001,200232,
AFNE01.JPG,AFNE01.JPG,AFNE01.JPG,AFNE01.JPG,AFNE01.JPG,AFNE01.JPG,,,,,1,9,19,5,,,,,,,,,,,,,,,,,,,AFSA12.jpg,AFSA19.jpg,AFNE17.jpg,AFNE16.jpg,AFNE16.jpg,FN,3,num_4,32,num_8,1.16663550155,,,2017_Apr_25_1316,60.0034834418,MAFE4ImagesEEG,001,200232,
AFNE01.JPG,AFNE01.JPG,AFNE01.JPG,AFNE01.JPG,AFNE01.JPG,AFNE01.JPG,,,,,2,0,20,1,,,,,,,,,,,,,,,,,,,AFNE02.jpg,AFNE04.jpg,AFSA10.jpg,AFSA03.jpg,AFSA10.jpg,FS,4,num_2,32,num_6,1.30007963954,,,2017_Apr_25_1316,60.0034834418,MAFE4ImagesEEG,001,200232,
AFNE01.JPG,AFNE01.JPG,AFNE01.JPG,AFNE01.JPG,AFNE01.JPG,AFNE01.JPG,,,,,2,1,21,3,,,,,,,,,,,,,,,,,,,AFSA20.jpg,AFNE17.jpg,AFSA17.jpg,AFNE04.jpg,AFSA20.jpg,FS,4,num_8,32,num_4,1.48338427208,,,2017_Apr_25_1316,60.0034834418,MAFE4ImagesEEG,001,200232,
AFNE01.JPG,AFNE01.JPG,AFNE01.JPG,AFNE01.JPG,AFNE01.JPG,AFNE01.JPG,,,,,2,2,22,7,,,,,,,,,,,,,,,,,,,AFNE19.jpg,AFSA18.jpg,AFSA04.jpg,AFNE11.jpg,AFSA04.jpg,FS,4,num_2,16,num_2,1.08343546197,,,2017_Apr_25_1316,60.0034834418,MAFE4ImagesEEG,001,200232,
AFNE01.JPG,AFNE01.JPG,AFNE01.JPG,AFNE01.JPG,AFNE01.JPG,AFNE01.JPG,,,,,2,3,23,5,,,,,,,,,,,,,,,,,,,AFNE11.jpg,AFNE02.jpg,AFSA16.jpg,AFSA04.jpg,AFNE11.jpg,FN,3,num_8,16,num_8,0.600179806352,,,2017_Apr_25_1316,60.0034834418,MAFE4ImagesEEG,001,200232,
AFNE01.JPG,AFNE01.JPG,AFNE01.JPG,AFNE01.JPG,AFNE01.JPG,AFNE01.JPG,,,,,2,4,24,2,,,,,,,,,,,,,,,,,,,AFSA03.jpg,AFNE07.jpg,AFNE06.jpg,AFSA04.jpg,AFSA03.jpg,FS,4,num_8,32,num_2,1.33344227774,,,2017_Apr_25_1316,60.0034834418,MAFE4ImagesEEG,001,200232,
AFNE01.JPG,AFNE01.JPG,AFNE01.JPG,AFNE01.JPG,AFNE01.JPG,AFNE01.JPG,,,,,2,5,25,0,,,,,,,,,,,,,,,,,,,AFNE06.jpg,AFSA14.jpg,AFNE15.jpg,AFSA16.jpg,AFNE06.jpg,FN,3,num_8,16,num_8,1.03358651407,,,2017_Apr_25_1316,60.0034834418,MAFE4ImagesEEG,001,200232,
AFNE01.JPG,AFNE01.JPG,AFNE01.JPG,AFNE01.JPG,AFNE01.JPG,AFNE01.JPG,,,,,2,6,26,4,,,,,,,,,,,,,,,,,,,AFNE16.jpg,AFSA01.jpg,AFSA04.jpg,AFNE01.jpg,AFSA04.jpg,FS,4,num_2,16,num_2,1.35014059604,,,2017_Apr_25_1316,60.0034834418,MAFE4ImagesEEG,001,200232,
AFNE01.JPG,AFNE01.JPG,AFNE01.JPG,AFNE01.JPG,AFNE01.JPG,AFNE01.JPG,,,,,2,7,27,8,,,,,,,,,,,,,,,,,,,AFSA04.jpg,AFNE14.jpg,AFNE16.jpg,AFSA02.jpg,AFNE16.jpg,FN,3,num_2,32,num_4,0.983500860748,,,2017_Apr_25_1316,60.0034834418,MAFE4ImagesEEG,001,200232,
AFNE01.JPG,AFNE01.JPG,AFNE01.JPG,AFNE01.JPG,AFNE01.JPG,AFNE01.JPG,,,,,2,8,28,9,,,,,,,,,,,,,,,,,,,AFSA02.jpg,AFSA08.jpg,AFNE10.jpg,AFNE07.jpg,AFSA02.jpg,FS,4,num_8,32,num_6,0.76674602821,,,2017_Apr_25_1316,60.0034834418,MAFE4ImagesEEG,001,200232,
AFNE01.JPG,AFNE01.JPG,AFNE01.JPG,AFNE01.JPG,AFNE01.JPG,AFNE01.JPG,,,,,2,9,29,6,,,,,,,,,,,,,,,,,,,AFSA17.jpg,AFNE15.jpg,AFNE14.jpg,AFSA15.jpg,AFNE15.jpg,FN,3,num_6,32,num_4,1.31672407361,,,2017_Apr_25_1316,60.0034834418,MAFE4ImagesEEG,001,200232,
AFNE01.JPG,AFNE01.JPG,AFNE01.JPG,AFNE01.JPG,AFNE01.JPG,AFNE01.JPG,,,,,3,0,30,2,,,,,,,,,,,,,,,,,,,AFNE05.jpg,AFSA10.jpg,AFNE07.jpg,AFSA18.jpg,AFSA18.jpg,FS,4,num_4,32,num_8,0.850123757147,,,2017_Apr_25_1316,60.0034834418,MAFE4ImagesEEG,001,200232,
AFNE01.JPG,AFNE01.JPG,AFNE01.JPG,AFNE01.JPG,AFNE01.JPG,AFNE01.JPG,,,,,3,1,31,9,,,,,,,,,,,,,,,,,,,AFNE18.jpg,AFSA02.jpg,AFSA04.jpg,AFNE04.jpg,AFSA04.jpg,FS,4,num_2,16,num_2,0.96675314859,,,2017_Apr_25_1316,60.0034834418,MAFE4ImagesEEG,001,200232,
AFNE01.JPG,AFNE01.JPG,AFNE01.JPG,AFNE01.JPG,AFNE01.JPG,AFNE01.JPG,,,,,3,2,32,6,,,,,,,,,,,,,,,,,,,AFNE14.jpg,AFSA19.jpg,AFSA08.jpg,AFNE10.jpg,AFNE14.jpg,FN,3,num_8,32,num_6,0.766781309503,,,2017_Apr_25_1316,60.0034834418,MAFE4ImagesEEG,001,200232,
AFNE01.JPG,AFNE01.JPG,AFNE01.JPG,AFNE01.JPG,AFNE01.JPG,AFNE01.JPG,,,,,3,3,33,5,,,,,,,,,,,,,,,,,,,AFNE10.jpg,AFNE13.jpg,AFSA01.jpg,AFSA02.jpg,AFSA01.jpg,FS,4,num_2,32,num_6,0.700138463057,,,2017_Apr_25_1316,60.0034834418,MAFE4ImagesEEG,001,200232,
AFNE01.JPG,AFNE01.JPG,AFNE01.JPG,AFNE01.JPG,AFNE01.JPG,AFNE01.JPG,,,,,3,4,34,8,,,,,,,,,,,,,,,,,,,AFNE14.jpg,AFSA19.jpg,AFNE08.jpg,AFSA15.jpg,AFSA15.jpg,FS,4,num_4,16,num_4,0.683506217087,,,2017_Apr_25_1316,60.0034834418,MAFE4ImagesEEG,001,200232,
AFNE01.JPG,AFNE01.JPG,AFNE01.JPG,AFNE01.JPG,AFNE01.JPG,AFNE01.JPG,,,,,3,5,35,3,,,,,,,,,,,,,,,,,,,AFNE11.jpg,AFSA05.jpg,AFNE15.jpg,AFSA03.jpg,AFSA05.jpg,FS,4,num_6,16,num_6,0.800090384204,,,2017_Apr_25_1316,60.0034834418,MAFE4ImagesEEG,001,200232,
AFNE01.JPG,AFNE01.JPG,AFNE01.JPG,AFNE01.JPG,AFNE01.JPG,AFNE01.JPG,,,,,3,6,36,0,,,,,,,,,,,,,,,,,,,AFNE17.jpg,AFSA01.jpg,AFNE15.jpg,AFSA02.jpg,AFNE17.jpg,FN,3,num_8,32,num_4,0.883396267658,,,2017_Apr_25_1316,60.0034834418,MAFE4ImagesEEG,001,200232,
AFNE01.JPG,AFNE01.JPG,AFNE01.JPG,AFNE01.JPG,AFNE01.JPG,AFNE01.JPG,,,,,3,7,37,1,,,,,,,,,,,,,,,,,,,AFNE04.jpg,AFSA20.jpg,AFNE17.jpg,AFSA02.jpg,AFSA20.jpg,FS,4,num_6,16,num_6,0.650273798849,,,2017_Apr_25_1316,60.0034834418,MAFE4ImagesEEG,001,200232,
AFNE01.JPG,AFNE01.JPG,AFNE01.JPG,AFNE01.JPG,AFNE01.JPG,AFNE01.JPG,,,,,3,8,38,4,,,,,,,,,,,,,,,,,,,AFSA14.jpg,AFNE11.jpg,AFSA07.jpg,AFNE07.jpg,AFNE11.jpg,FN,3,num_6,32,num_8,1.68336284661,,,2017_Apr_25_1316,60.0034834418,MAFE4ImagesEEG,001,200232,
AFNE01.JPG,AFNE01.JPG,AFNE01.JPG,AFNE01.JPG,AFNE01.JPG,AFNE01.JPG,,,,,3,9,39,7,,,,,,,,,,,,,,,,,,,AFSA20.jpg,AFNE05.jpg,AFSA04.jpg,AFNE06.jpg,AFNE05.jpg,FN,3,num_6,32,num_4,1.05014242418,,,2017_Apr_25_1316,60.0034834418,MAFE4ImagesEEG,001,200232,
AFNE01.JPG,AFNE01.JPG,AFNE01.JPG,AFNE01.JPG,AFNE01.JPG,AFNE01.JPG,,,,,4,0,40,9,,,,,,,,,,,,,,,,,,,AFSA17.jpg,AFSA02.jpg,AFNE02.jpg,AFNE15.jpg,AFSA02.jpg,FS,4,num_6,32,num_2,1.00003175321,,,2017_Apr_25_1316,60.0034834418,MAFE4ImagesEEG,001,200232,
AFNE01.JPG,AFNE01.JPG,AFNE01.JPG,AFNE01.JPG,AFNE01.JPG,AFNE01.JPG,,,,,4,1,41,3,,,,,,,,,,,,,,,,,,,AFSA02.jpg,AFSA12.jpg,AFNE01.jpg,AFNE17.jpg,AFNE01.jpg,FN,3,num_2,32,num_8,0.76679895015,,,2017_Apr_25_1316,60.0034834418,MAFE4ImagesEEG,001,200232,
AFNE01.JPG,AFNE01.JPG,AFNE01.JPG,AFNE01.JPG,AFNE01.JPG,AFNE01.JPG,,,,,4,2,42,4,,,,,,,,,,,,,,,,,,,AFSA10.jpg,AFNE02.jpg,AFNE17.jpg,AFSA02.jpg,AFNE02.jpg,FN,3,num_6,16,num_6,0.783469043323,,,2017_Apr_25_1316,60.0034834418,MAFE4ImagesEEG,001,200232,
AFNE01.JPG,AFNE01.JPG,AFNE01.JPG,AFNE01.JPG,AFNE01.JPG,AFNE01.JPG,,,,,4,3,43,7,,,,,,,,,,,,,,,,,,,AFSA11.jpg,AFNE18.jpg,AFSA07.jpg,AFNE19.jpg,AFSA07.jpg,FS,4,num_2,16,num_2,1.916667816,,,2017_Apr_25_1316,60.0034834418,MAFE4ImagesEEG,001,200232,
AFNE01.JPG,AFNE01.JPG,AFNE01.JPG,AFNE01.JPG,AFNE01.JPG,AFNE01.JPG,,,,,4,4,44,0,,,,,,,,,,,,,,,,,,,AFNE04.jpg,AFSA09.jpg,AFSA17.jpg,AFNE16.jpg,AFSA17.jpg,FS,4,num_2,16,num_2,1.16674872232,,,2017_Apr_25_1316,60.0034834418,MAFE4ImagesEEG,001,200232,
AFNE01.JPG,AFNE01.JPG,AFNE01.JPG,AFNE01.JPG,AFNE01.JPG,AFNE01.JPG,,,,,4,5,45,5,,,,,,,,,,,,,,,,,,,AFSA18.jpg,AFSA08.jpg,AFNE14.jpg,AFNE03.jpg,AFSA08.jpg,FS,4,num_6,32,num_8,0.966779449256,,,2017_Apr_25_1316,60.0034834418,MAFE4ImagesEEG,001,200232,
AFNE01.JPG,AFNE01.JPG,AFNE01.JPG,AFNE01.JPG,AFNE01.JPG,AFNE01.JPG,,,,,4,6,46,2,,,,,,,,,,,,,,,,,,,AFNE11.jpg,AFSA15.jpg,AFSA18.jpg,AFNE18.jpg,AFNE11.jpg,FN,3,num_8,16,num_8,1.53340866428,,,2017_Apr_25_1316,60.0034834418,MAFE4ImagesEEG,001,200232,
AFNE01.JPG,AFNE01.JPG,AFNE01.JPG,AFNE01.JPG,AFNE01.JPG,AFNE01.JPG,,,,,4,7,47,6,,,,,,,,,,,,,,,,,,,AFSA15.jpg,AFSA06.jpg,AFNE01.jpg,AFNE17.jpg,AFSA15.jpg,FS,4,num_8,16,num_8,0.566820375621,,,2017_Apr_25_1316,60.0034834418,MAFE4ImagesEEG,001,200232,
AFNE01.JPG,AFNE01.JPG,AFNE01.JPG,AFNE01.JPG,AFNE01.JPG,AFNE01.JPG,,,,,4,8,48,8,,,,,,,,,,,,,,,,,,,AFNE05.jpg,AFSA04.jpg,AFNE18.jpg,AFSA03.jpg,AFSA03.jpg,FS,4,num_4,16,num_4,0.766757895472,,,2017_Apr_25_1316,60.0034834418,MAFE4ImagesEEG,001,200232,
AFNE01.JPG,AFNE01.JPG,AFNE01.JPG,AFNE01.JPG,AFNE01.JPG,AFNE01.JPG,,,,,4,9,49,1,,,,,,,,,,,,,,,,,,,AFSA13.jpg,AFNE07.jpg,AFSA09.jpg,AFNE17.jpg,AFNE07.jpg,FN,3,num_6,16,num_6,0.716633432661,,,2017_Apr_25_1316,60.0034834418,MAFE4ImagesEEG,001,200232,
AFNE01.JPG,AFNE01.JPG,AFNE01.JPG,AFNE01.JPG,AFNE01.JPG,AFNE01.JPG,,,,,5,0,50,5,,,,,,,,,,,,,,,,,,,AFNE19.jpg,AFSA14.jpg,AFSA10.jpg,AFNE14.jpg,AFNE14.jpg,FN,3,num_4,32,num_6,0.583612028859,,,2017_Apr_25_1316,60.0034834418,MAFE4ImagesEEG,001,200232,
AFNE01.JPG,AFNE01.JPG,AFNE01.JPG,AFNE01.JPG,AFNE01.JPG,AFNE01.JPG,,,,,5,1,51,3,,,,,,,,,,,,,,,,,,,AFNE04.jpg,AFNE10.jpg,AFSA07.jpg,AFSA16.jpg,AFSA16.jpg,FS,4,num_4,16,num_4,0.600263839937,,,2017_Apr_25_1316,60.0034834418,MAFE4ImagesEEG,001,200232,
AFNE01.JPG,AFNE01.JPG,AFNE01.JPG,AFNE01.JPG,AFNE01.JPG,AFNE01.JPG,,,,,5,2,52,6,,,,,,,,,,,,,,,,,,,AFSA04.jpg,AFNE08.jpg,AFNE02.jpg,AFSA05.jpg,AFNE08.jpg,FN,3,num_6,16,num_6,1.43341761292,,,2017_Apr_25_1316,60.0034834418,MAFE4ImagesEEG,001,200232,
AFNE01.JPG,AFNE01.JPG,AFNE01.JPG,AFNE01.JPG,AFNE01.JPG,AFNE01.JPG,,,,,5,3,53,2,,,,,,,,,,,,,,,,,,,AFNE01.jpg,AFNE12.jpg,AFSA19.jpg,AFSA06.jpg,AFSA19.jpg,FS,4,num_2,32,num_4,1.2665534243,,,2017_Apr_25_1316,60.0034834418,MAFE4ImagesEEG,001,200232,
AFNE01.JPG,AFNE01.JPG,AFNE01.JPG,AFNE01.JPG,AFNE01.JPG,AFNE01.JPG,,,,,5,4,54,0,,,,,,,,,,,,,,,,,,,AFNE13.jpg,AFNE01.jpg,AFSA05.jpg,AFSA19.jpg,AFNE13.jpg,FN,3,num_8,16,num_8,0.766762065119,,,2017_Apr_25_1316,60.0034834418,MAFE4ImagesEEG,001,200232,
AFNE01.JPG,AFNE01.JPG,AFNE01.JPG,AFNE01.JPG,AFNE01.JPG,AFNE01.JPG,,,,,5,5,55,8,,,,,,,,,,,,,,,,,,,AFNE01.jpg,AFSA05.jpg,AFNE02.jpg,AFSA10.jpg,AFNE02.jpg,FN,3,num_2,32,num_8,1.13341174333,,,2017_Apr_25_1316,60.0034834418,MAFE4ImagesEEG,001,200232,
AFNE01.JPG,AFNE01.JPG,AFNE01.JPG,AFNE01.JPG,AFNE01.JPG,AFNE01.JPG,,,,,5,6,56,1,,,,,,,,,,,,,,,,,,,AFSA06.jpg,AFNE15.jpg,AFNE18.jpg,AFSA19.jpg,AFNE15.jpg,FN,3,num_6,16,num_6,0.600070755114,,,2017_Apr_25_1316,60.0034834418,MAFE4ImagesEEG,001,200232,
AFNE01.JPG,AFNE01.JPG,AFNE01.JPG,AFNE01.JPG,AFNE01.JPG,AFNE01.JPG,,,,,5,7,57,7,,,,,,,,,,,,,,,,,,,AFNE02.jpg,AFNE04.jpg,AFSA06.jpg,AFSA04.jpg,AFNE02.jpg,FN,3,num_8,32,num_6,1.11676634708,,,2017_Apr_25_1316,60.0034834418,MAFE4ImagesEEG,001,200232,
AFNE01.JPG,AFNE01.JPG,AFNE01.JPG,AFNE01.JPG,AFNE01.JPG,AFNE01.JPG,,,,,5,8,58,9,,,,,,,,,,,,,,,,,,,AFSA10.jpg,AFSA02.jpg,AFNE04.jpg,AFNE03.jpg,AFSA10.jpg,FS,4,num_8,32,num_2,1.1000731606,,,2017_Apr_25_1316,60.0034834418,MAFE4ImagesEEG,001,200232,
AFNE01.JPG,AFNE01.JPG,AFNE01.JPG,AFNE01.JPG,AFNE01.JPG,AFNE01.JPG,,,,,5,9,59,4,,,,,,,,,,,,,,,,,,,AFSA05.jpg,AFSA08.jpg,AFNE15.jpg,AFNE20.jpg,AFNE15.jpg,FN,3,num_2,16,num_2,0.91701421421,,,2017_Apr_25_1316,60.0034834418,MAFE4ImagesEEG,001,200232,
,,,,,,,,,,,,,,,,,,,,,,,,,,,,,,,,,,,,,,,,,,,space,13.2824380276,2017_Apr_25_1316,60.0034834418,MAFE4ImagesEEG,001,200232,
AFNE01.JPG,AFNE01.JPG,AFNE01.JPG,AFNE01.JPG,AFNE01.JPG,AFNE01.JPG,,,,,,,,,0,0,0,7,,,,,,,,,,,,,,,AMSA05.jpg,AMSA02.jpg,AMNE13.jpg,AMNE20.jpg,AMSA05.jpg,MS,2,num_8,16,num_8,0.800092308782,,,2017_Apr_25_1316,60.0034834418,MAFE4ImagesEEG,001,200232,
AFNE01.JPG,AFNE01.JPG,AFNE01.JPG,AFNE01.JPG,AFNE01.JPG,AFNE01.JPG,,,,,,,,,0,1,1,1,,,,,,,,,,,,,,,AMSA13.jpg,AMNE09.jpg,AMSA19.jpg,AMNE14.jpg,AMSA19.jpg,MS,2,num_2,16,num_2,1.41677446163,,,2017_Apr_25_1316,60.0034834418,MAFE4ImagesEEG,001,200232,
AFNE01.JPG,AFNE01.JPG,AFNE01.JPG,AFNE01.JPG,AFNE01.JPG,AFNE01.JPG,,,,,,,,,0,2,2,0,,,,,,,,,,,,,,,AMSA05.jpg,AMNE07.jpg,AMSA08.jpg,AMNE09.jpg,AMSA08.jpg,MS,2,num_2,32,num_6,0.916737416293,,,2017_Apr_25_1316,60.0034834418,MAFE4ImagesEEG,001,200232,
AFNE01.JPG,AFNE01.JPG,AFNE01.JPG,AFNE01.JPG,AFNE01.JPG,AFNE01.JPG,,,,,,,,,0,3,3,3,,,,,,,,,,,,,,,AMNE12.jpg,AMSA04.jpg,AMNE03.jpg,AMSA03.jpg,AMNE12.jpg,MN,1,num_8,16,num_8,0.916822733008,,,2017_Apr_25_1316,60.0034834418,MAFE4ImagesEEG,001,200232,
AFNE01.JPG,AFNE01.JPG,AFNE01.JPG,AFNE01.JPG,AFNE01.JPG,AFNE01.JPG,,,,,,,,,0,4,4,6,,,,,,,,,,,,,,,AMSA07.jpg,AMNE12.jpg,AMSA18.jpg,AMNE15.jpg,AMSA07.jpg,MS,2,num_8,16,num_8,0.916829147725,,,2017_Apr_25_1316,60.0034834418,MAFE4ImagesEEG,001,200232,
AFNE01.JPG,AFNE01.JPG,AFNE01.JPG,AFNE01.JPG,AFNE01.JPG,AFNE01.JPG,,,,,,,,,0,5,5,2,,,,,,,,,,,,,,,AMSA20.jpg,AMSA03.jpg,AMNE10.jpg,AMNE06.jpg,AMSA03.jpg,MS,2,num_6,32,num_8,0.866747664055,,,2017_Apr_25_1316,60.0034834418,MAFE4ImagesEEG,001,200232,
AFNE01.JPG,AFNE01.JPG,AFNE01.JPG,AFNE01.JPG,AFNE01.JPG,AFNE01.JPG,,,,,,,,,0,6,6,8,,,,,,,,,,,,,,,AMSA11.jpg,AMNE01.jpg,AMSA15.jpg,AMNE18.jpg,AMSA15.jpg,MS,2,num_2,32,num_8,0.966756997514,,,2017_Apr_25_1316,60.0034834418,MAFE4ImagesEEG,001,200232,
AFNE01.JPG,AFNE01.JPG,AFNE01.JPG,AFNE01.JPG,AFNE01.JPG,AFNE01.JPG,,,,,,,,,0,7,7,9,,,,,,,,,,,,,,,AMNE15.jpg,AMSA18.jpg,AMNE06.jpg,AMSA12.jpg,AMNE15.jpg,MN,1,num_8,32,num_4,0.816812116536,,,2017_Apr_25_1316,60.0034834418,MAFE4ImagesEEG,001,200232,
AFNE01.JPG,AFNE01.JPG,AFNE01.JPG,AFNE01.JPG,AFNE01.JPG,AFNE01.JPG,,,,,,,,,0,8,8,4,,,,,,,,,,,,,,,AMNE20.jpg,AMNE06.jpg,AMSA11.jpg,AMSA19.jpg,AMSA19.jpg,MS,2,num_4,16,num_4,1.05010233179,,,2017_Apr_25_1316,60.0034834418,MAFE4ImagesEEG,001,200232,
AFNE01.JPG,AFNE01.JPG,AFNE01.JPG,AFNE01.JPG,AFNE01.JPG,AFNE01.JPG,,,,,,,,,0,9,9,5,,,,,,,,,,,,,,,AMNE03.jpg,AMNE18.jpg,AMSA13.jpg,AMSA06.jpg,AMSA06.jpg,MS,2,num_4,32,num_8,0.850114455796,,,2017_Apr_25_1316,60.0034834418,MAFE4ImagesEEG,001,200232,
AFNE01.JPG,AFNE01.JPG,AFNE01.JPG,AFNE01.JPG,AFNE01.JPG,AFNE01.JPG,,,,,,,,,1,0,10,3,,,,,,,,,,,,,,,AMNE08.jpg,AMSA19.jpg,AMSA20.jpg,AMNE01.jpg,AMNE08.jpg,MN,1,num_8,16,num_8,0.966780732153,,,2017_Apr_25_1316,60.0034834418,MAFE4ImagesEEG,001,200232,
AFNE01.JPG,AFNE01.JPG,AFNE01.JPG,AFNE01.JPG,AFNE01.JPG,AFNE01.JPG,,,,,,,,,1,1,11,7,,,,,,,,,,,,,,,AMNE19.jpg,AMNE03.jpg,AMSA18.jpg,AMSA11.jpg,AMSA11.jpg,MS,2,num_4,16,num_4,0.716797971865,,,2017_Apr_25_1316,60.0034834418,MAFE4ImagesEEG,001,200232,
AFNE01.JPG,AFNE01.JPG,AFNE01.JPG,AFNE01.JPG,AFNE01.JPG,AFNE01.JPG,,,,,,,,,1,2,12,5,,,,,,,,,,,,,,,AMSA04.jpg,AMNE17.jpg,AMNE02.jpg,AMSA03.jpg,AMNE02.jpg,MN,1,num_2,16,num_2,1.61670011445,,,2017_Apr_25_1316,60.0034834418,MAFE4ImagesEEG,001,200232,
AFNE01.JPG,AFNE01.JPG,AFNE01.JPG,AFNE01.JPG,AFNE01.JPG,AFNE01.JPG,,,,,,,,,1,3,13,8,,,,,,,,,,,,,,,AMSA08.jpg,AMNE19.jpg,AMSA16.jpg,AMNE12.jpg,AMNE12.jpg,MN,1,num_4,32,num_2,2.99986625183,,,2017_Apr_25_1316,60.0034834418,MAFE4ImagesEEG,001,200232,
AFNE01.JPG,AFNE01.JPG,AFNE01.JPG,AFNE01.JPG,AFNE01.JPG,AFNE01.JPG,,,,,,,,,1,4,14,9,,,,,,,,,,,,,,,AMNE09.jpg,AMNE14.jpg,AMSA05.jpg,AMSA18.jpg,AMSA05.jpg,MS,2,num_2,32,num_4,1.05021298677,,,2017_Apr_25_1316,60.0034834418,MAFE4ImagesEEG,001,200232,
AFNE01.JPG,AFNE01.JPG,AFNE01.JPG,AFNE01.JPG,AFNE01.JPG,AFNE01.JPG,,,,,,,,,1,5,15,0,,,,,,,,,,,,,,,AMSA11.jpg,AMNE11.jpg,AMSA02.jpg,AMNE13.jpg,AMSA11.jpg,MS,2,num_8,16,num_8,1.03347874573,,,2017_Apr_25_1316,60.0034834418,MAFE4ImagesEEG,001,200232,
AFNE01.JPG,AFNE01.JPG,AFNE01.JPG,AFNE01.JPG,AFNE01.JPG,AFNE01.JPG,,,,,,,,,1,6,16,6,,,,,,,,,,,,,,,AMSA17.jpg,AMNE13.jpg,AMSA04.jpg,AMNE01.jpg,AMNE01.jpg,MN,1,num_4,32,num_8,2.23334281659,,,2017_Apr_25_1316,60.0034834418,MAFE4ImagesEEG,001,200232,
AFNE01.JPG,AFNE01.JPG,AFNE01.JPG,AFNE01.JPG,AFNE01.JPG,AFNE01.JPG,,,,,,,,,1,7,17,2,,,,,,,,,,,,,,,AMSA20.jpg,AMNE05.jpg,AMSA12.jpg,AMNE09.jpg,AMSA12.jpg,MS,2,num_2,16,num_2,1.38345416111,,,2017_Apr_25_1316,60.0034834418,MAFE4ImagesEEG,001,200232,
AFNE01.JPG,AFNE01.JPG,AFNE01.JPG,AFNE01.JPG,AFNE01.JPG,AFNE01.JPG,,,,,,,,,1,8,18,1,,,,,,,,,,,,,,,AMSA15.jpg,AMNE06.jpg,AMSA02.jpg,AMNE02.jpg,AMNE06.jpg,MN,1,num_6,32,num_8,1.63344846806,,,2017_Apr_25_1316,60.0034834418,MAFE4ImagesEEG,001,200232,
AFNE01.JPG,AFNE01.JPG,AFNE01.JPG,AFNE01.JPG,AFNE01.JPG,AFNE01.JPG,,,,,,,,,1,9,19,4,,,,,,,,,,,,,,,AMNE18.jpg,AMSA17.jpg,AMNE10.jpg,AMSA14.jpg,AMNE10.jpg,MN,1,num_2,16,num_2,2.15018832195,,,2017_Apr_25_1316,60.0034834418,MAFE4ImagesEEG,001,200232,
AFNE01.JPG,AFNE01.JPG,AFNE01.JPG,AFNE01.JPG,AFNE01.JPG,AFNE01.JPG,,,,,,,,,2,0,20,7,,,,,,,,,,,,,,,AMSA19.jpg,AMNE04.jpg,AMSA16.jpg,AMNE12.jpg,AMSA19.jpg,MS,2,num_8,16,num_8,1.10011164926,,,2017_Apr_25_1316,60.0034834418,MAFE4ImagesEEG,001,200232,
AFNE01.JPG,AFNE01.JPG,AFNE01.JPG,AFNE01.JPG,AFNE01.JPG,AFNE01.JPG,,,,,,,,,2,1,21,5,,,,,,,,,,,,,,,AMSA04.jpg,AMNE01.jpg,AMNE11.jpg,AMSA03.jpg,AMSA04.jpg,MS,2,num_8,16,num_8,0.850124719436,,,2017_Apr_25_1316,60.0034834418,MAFE4ImagesEEG,001,200232,
AFNE01.JPG,AFNE01.JPG,AFNE01.JPG,AFNE01.JPG,AFNE01.JPG,AFNE01.JPG,,,,,,,,,2,2,22,1,,,,,,,,,,,,,,,AMSA02.jpg,AMNE08.jpg,AMSA20.jpg,AMNE13.jpg,AMSA20.jpg,MS,2,num_2,16,num_2,0.583510675351,,,2017_Apr_25_1316,60.0034834418,MAFE4ImagesEEG,001,200232,
AFNE01.JPG,AFNE01.JPG,AFNE01.JPG,AFNE01.JPG,AFNE01.JPG,AFNE01.JPG,,,,,,,,,2,3,23,2,,,,,,,,,,,,,,,AMNE01.jpg,AMNE06.jpg,AMSA09.jpg,AMSA02.jpg,AMNE01.jpg,MN,1,num_8,16,num_8,0.933572048787,,,2017_Apr_25_1316,60.0034834418,MAFE4ImagesEEG,001,200232,
AFNE01.JPG,AFNE01.JPG,AFNE01.JPG,AFNE01.JPG,AFNE01.JPG,AFNE01.JPG,,,,,,,,,2,4,24,3,,,,,,,,,,,,,,,AMNE12.jpg,AMSA11.jpg,AMSA04.jpg,AMNE04.jpg,AMNE12.jpg,MN,1,num_8,16,num_8,0.633473806432,,,2017_Apr_25_1316,60.0034834418,MAFE4ImagesEEG,001,200232,
AFNE01.JPG,AFNE01.JPG,AFNE01.JPG,AFNE01.JPG,AFNE01.JPG,AFNE01.JPG,,,,,,,,,2,5,25,6,,,,,,,,,,,,,,,AMSA11.jpg,AMSA12.jpg,AMNE10.jpg,AMNE04.jpg,AMNE10.jpg,MN,1,num_2,32,num_8,0.849817130598,,,2017_Apr_25_1316,60.0034834418,MAFE4ImagesEEG,001,200232,
AFNE01.JPG,AFNE01.JPG,AFNE01.JPG,AFNE01.JPG,AFNE01.JPG,AFNE01.JPG,,,,,,,,,2,6,26,9,,,,,,,,,,,,,,,AMNE02.jpg,AMSA16.jpg,AMSA02.jpg,AMNE11.jpg,AMNE02.jpg,MN,1,num_8,16,num_8,0.54999536532,,,2017_Apr_25_1316,60.0034834418,MAFE4ImagesEEG,001,200232,
AFNE01.JPG,AFNE01.JPG,AFNE01.JPG,AFNE01.JPG,AFNE01.JPG,AFNE01.JPG,,,,,,,,,2,7,27,4,,,,,,,,,,,,,,,AMNE13.jpg,AMNE01.jpg,AMSA17.jpg,AMSA09.jpg,AMNE01.jpg,MN,1,num_6,16,num_6,0.500140644144,,,2017_Apr_25_1316,60.0034834418,MAFE4ImagesEEG,001,200232,
AFNE01.JPG,AFNE01.JPG,AFNE01.JPG,AFNE01.JPG,AFNE01.JPG,AFNE01.JPG,,,,,,,,,2,8,28,0,,,,,,,,,,,,,,,AMNE03.jpg,AMSA17.jpg,AMNE06.jpg,AMSA15.jpg,AMNE03.jpg,MN,1,num_8,32,num_6,1.51672862819,,,2017_Apr_25_1316,60.0034834418,MAFE4ImagesEEG,001,200232,
AFNE01.JPG,AFNE01.JPG,AFNE01.JPG,AFNE01.JPG,AFNE01.JPG,AFNE01.JPG,,,,,,,,,2,9,29,8,,,,,,,,,,,,,,,AMNE14.jpg,AMSA14.jpg,AMSA01.jpg,AMNE07.jpg,AMNE14.jpg,MN,1,num_8,32,num_6,0.666783522698,,,2017_Apr_25_1316,60.0034834418,MAFE4ImagesEEG,001,200232,
AFNE01.JPG,AFNE01.JPG,AFNE01.JPG,AFNE01.JPG,AFNE01.JPG,AFNE01.JPG,,,,,,,,,3,0,30,9,,,,,,,,,,,,,,,AMNE17.jpg,AMNE14.jpg,AMSA05.jpg,AMSA08.jpg,AMSA08.jpg,MS,2,num_4,32,num_8,0.750139762065,,,2017_Apr_25_1316,60.0034834418,MAFE4ImagesEEG,001,200232,
AFNE01.JPG,AFNE01.JPG,AFNE01.JPG,AFNE01.JPG,AFNE01.JPG,AFNE01.JPG,,,,,,,,,3,1,31,8,,,,,,,,,,,,,,,AMNE03.jpg,AMSA18.jpg,AMNE06.jpg,AMSA03.jpg,AMNE06.jpg,MN,1,num_2,16,num_2,1.16678881482,,,2017_Apr_25_1316,60.0034834418,MAFE4ImagesEEG,001,200232,
AFNE01.JPG,AFNE01.JPG,AFNE01.JPG,AFNE01.JPG,AFNE01.JPG,AFNE01.JPG,,,,,,,,,3,2,32,5,,,,,,,,,,,,,,,AMSA13.jpg,AMNE04.jpg,AMSA08.jpg,AMNE15.jpg,AMSA08.jpg,MS,2,num_2,32,num_8,0.866707892274,,,2017_Apr_25_1316,60.0034834418,MAFE4ImagesEEG,001,200232,
AFNE01.JPG,AFNE01.JPG,AFNE01.JPG,AFNE01.JPG,AFNE01.JPG,AFNE01.JPG,,,,,,,,,3,3,33,3,,,,,,,,,,,,,,,AMNE20.jpg,AMSA12.jpg,AMNE03.jpg,AMSA04.jpg,AMSA12.jpg,MS,2,num_6,32,num_2,1.00015331327,,,2017_Apr_25_1316,60.0034834418,MAFE4ImagesEEG,001,200232,
AFNE01.JPG,AFNE01.JPG,AFNE01.JPG,AFNE01.JPG,AFNE01.JPG,AFNE01.JPG,,,,,,,,,3,4,34,6,,,,,,,,,,,,,,,AMNE01.jpg,AMSA04.jpg,AMSA13.jpg,AMNE13.jpg,AMNE01.jpg,MN,1,num_8,16,num_8,0.833454946987,,,2017_Apr_25_1316,60.0034834418,MAFE4ImagesEEG,001,200232,
AFNE01.JPG,AFNE01.JPG,AFNE01.JPG,AFNE01.JPG,AFNE01.JPG,AFNE01.JPG,,,,,,,,,3,5,35,4,,,,,,,,,,,,,,,AMNE01.jpg,AMSA11.jpg,AMNE19.jpg,AMSA18.jpg,AMNE01.jpg,MN,1,num_8,16,num_8,0.949936798424,,,2017_Apr_25_1316,60.0034834418,MAFE4ImagesEEG,001,200232,
AFNE01.JPG,AFNE01.JPG,AFNE01.JPG,AFNE01.JPG,AFNE01.JPG,AFNE01.JPG,,,,,,,,,3,6,36,1,,,,,,,,,,,,,,,AMNE10.jpg,AMNE08.jpg,AMSA08.jpg,AMSA17.jpg,AMSA08.jpg,MS,2,num_2,16,num_2,0.65014422033,,,2017_Apr_25_1316,60.0034834418,MAFE4ImagesEEG,001,200232,
AFNE01.JPG,AFNE01.JPG,AFNE01.JPG,AFNE01.JPG,AFNE01.JPG,AFNE01.JPG,,,,,,,,,3,7,37,7,,,,,,,,,,,,,,,AMSA03.jpg,AMNE19.jpg,AMNE03.jpg,AMSA02.jpg,AMNE03.jpg,MN,1,num_2,32,num_4,1.11659603461,,,2017_Apr_25_1316,60.0034834418,MAFE4ImagesEEG,001,200232,
AFNE01.JPG,AFNE01.JPG,AFNE01.JPG,AFNE01.JPG,AFNE01.JPG,AFNE01.JPG,,,,,,,,,3,8,38,0,,,,,,,,,,,,,,,AMNE20.jpg,AMNE10.jpg,AMSA15.jpg,AMSA20.jpg,AMSA20.jpg,MS,2,num_4,32,num_8,0.66665009514,,,2017_Apr_25_1316,60.0034834418,MAFE4ImagesEEG,001,200232,
AFNE01.JPG,AFNE01.JPG,AFNE01.JPG,AFNE01.JPG,AFNE01.JPG,AFNE01.JPG,,,,,,,,,3,9,39,2,,,,,,,,,,,,,,,AMNE11.jpg,AMNE13.jpg,AMSA07.jpg,AMSA09.jpg,AMSA09.jpg,MS,2,num_4,32,num_2,1.38375854248,,,2017_Apr_25_1316,60.0034834418,MAFE4ImagesEEG,001,200232,
AFNE01.JPG,AFNE01.JPG,AFNE01.JPG,AFNE01.JPG,AFNE01.JPG,AFNE01.JPG,,,,,,,,,4,0,40,1,,,,,,,,,,,,,,,AMSA06.jpg,AMNE15.jpg,AMSA14.jpg,AMNE08.jpg,AMNE08.jpg,MN,1,num_4,32,num_6,0.8501195875,,,2017_Apr_25_1316,60.0034834418,MAFE4ImagesEEG,001,200232,
AFNE01.JPG,AFNE01.JPG,AFNE01.JPG,AFNE01.JPG,AFNE01.JPG,AFNE01.JPG,,,,,,,,,4,1,41,3,,,,,,,,,,,,,,,AMNE07.jpg,AMSA13.jpg,AMNE19.jpg,AMSA10.jpg,AMSA13.jpg,MS,2,num_6,16,num_6,0.616814618232,,,2017_Apr_25_1316,60.0034834418,MAFE4ImagesEEG,001,200232,
AFNE01.JPG,AFNE01.JPG,AFNE01.JPG,AFNE01.JPG,AFNE01.JPG,AFNE01.JPG,,,,,,,,,4,2,42,0,,,,,,,,,,,,,,,AMSA13.jpg,AMNE20.jpg,AMSA11.jpg,AMNE06.jpg,AMNE20.jpg,MN,1,num_6,16,num_6,1.05009431334,,,2017_Apr_25_1316,60.0034834418,MAFE4ImagesEEG,001,200232,
AFNE01.JPG,AFNE01.JPG,AFNE01.JPG,AFNE01.JPG,AFNE01.JPG,AFNE01.JPG,,,,,,,,,4,3,43,4,,,,,,,,,,,,,,,AMSA15.jpg,AMNE05.jpg,AMSA14.jpg,AMNE11.jpg,AMSA15.jpg,MS,2,num_8,16,num_8,1.23343230272,,,2017_Apr_25_1316,60.0034834418,MAFE4ImagesEEG,001,200232,
AFNE01.JPG,AFNE01.JPG,AFNE01.JPG,AFNE01.JPG,AFNE01.JPG,AFNE01.JPG,,,,,,,,,4,4,44,5,,,,,,,,,,,,,,,AMSA17.jpg,AMSA08.jpg,AMNE08.jpg,AMNE15.jpg,AMSA17.jpg,MS,2,num_8,16,num_8,0.716631508316,,,2017_Apr_25_1316,60.0034834418,MAFE4ImagesEEG,001,200232,
AFNE01.JPG,AFNE01.JPG,AFNE01.JPG,AFNE01.JPG,AFNE01.JPG,AFNE01.JPG,,,,,,,,,4,5,45,2,,,,,,,,,,,,,,,AMSA10.jpg,AMSA02.jpg,AMNE20.jpg,AMNE18.jpg,AMNE18.jpg,MN,1,num_4,16,num_4,1.05014242418,,,2017_Apr_25_1316,60.0034834418,MAFE4ImagesEEG,001,200232,
AFNE01.JPG,AFNE01.JPG,AFNE01.JPG,AFNE01.JPG,AFNE01.JPG,AFNE01.JPG,,,,,,,,,4,6,46,8,,,,,,,,,,,,,,,AMSA08.jpg,AMNE16.jpg,AMSA10.jpg,AMNE05.jpg,AMNE16.jpg,MN,1,num_6,16,num_6,0.733580965316,,,2017_Apr_25_1316,60.0034834418,MAFE4ImagesEEG,001,200232,
AFNE01.JPG,AFNE01.JPG,AFNE01.JPG,AFNE01.JPG,AFNE01.JPG,AFNE01.JPG,,,,,,,,,4,7,47,7,,,,,,,,,,,,,,,AMNE03.jpg,AMSA03.jpg,AMSA13.jpg,AMNE10.jpg,AMSA13.jpg,MS,2,num_2,32,num_6,1.01676022098,,,2017_Apr_25_1316,60.0034834418,MAFE4ImagesEEG,001,200232,
AFNE01.JPG,AFNE01.JPG,AFNE01.JPG,AFNE01.JPG,AFNE01.JPG,AFNE01.JPG,,,,,,,,,4,8,48,9,,,,,,,,,,,,,,,AMNE15.jpg,AMSA16.jpg,AMSA07.jpg,AMNE04.jpg,AMNE15.jpg,MN,1,num_8,16,num_8,0.96677976998,,,2017_Apr_25_1316,60.0034834418,MAFE4ImagesEEG,001,200232,
AFNE01.JPG,AFNE01.JPG,AFNE01.JPG,AFNE01.JPG,AFNE01.JPG,AFNE01.JPG,,,,,,,,,4,9,49,6,,,,,,,,,,,,,,,AMSA14.jpg,AMSA18.jpg,AMNE13.jpg,AMNE11.jpg,AMSA14.jpg,MS,2,num_8,16,num_8,1.2500841138,,,2017_Apr_25_1316,60.0034834418,MAFE4ImagesEEG,001,200232,
AFNE01.JPG,AFNE01.JPG,AFNE01.JPG,AFNE01.JPG,AFNE01.JPG,AFNE01.JPG,,,,,,,,,5,0,50,6,,,,,,,,,,,,,,,AMSA07.jpg,AMNE01.jpg,AMSA12.jpg,AMNE11.jpg,AMSA07.jpg,MS,2,num_8,16,num_8,1.40016659186,,,2017_Apr_25_1316,60.0034834418,MAFE4ImagesEEG,001,200232,
AFNE01.JPG,AFNE01.JPG,AFNE01.JPG,AFNE01.JPG,AFNE01.JPG,AFNE01.JPG,,,,,,,,,5,1,51,3,,,,,,,,,,,,,,,AMNE13.jpg,AMNE15.jpg,AMSA20.jpg,AMSA05.jpg,AMNE13.jpg,MN,1,num_8,32,num_4,1.00009686314,,,2017_Apr_25_1316,60.0034834418,MAFE4ImagesEEG,001,200232,
AFNE01.JPG,AFNE01.JPG,AFNE01.JPG,AFNE01.JPG,AFNE01.JPG,AFNE01.JPG,,,,,,,,,5,2,52,8,,,,,,,,,,,,,,,AMNE01.jpg,AMSA03.jpg,AMNE10.jpg,AMSA10.jpg,AMNE01.jpg,MN,1,num_8,16,num_8,0.750116027426,,,2017_Apr_25_1316,60.0034834418,MAFE4ImagesEEG,001,200232,
AFNE01.JPG,AFNE01.JPG,AFNE01.JPG,AFNE01.JPG,AFNE01.JPG,AFNE01.JPG,,,,,,,,,5,3,53,2,,,,,,,,,,,,,,,AMSA08.jpg,AMNE04.jpg,AMNE20.jpg,AMSA14.jpg,AMSA14.jpg,MS,2,num_4,16,num_4,0.800122458139,,,2017_Apr_25_1316,60.0034834418,MAFE4ImagesEEG,001,200232,
AFNE01.JPG,AFNE01.JPG,AFNE01.JPG,AFNE01.JPG,AFNE01.JPG,AFNE01.JPG,,,,,,,,,5,4,54,9,,,,,,,,,,,,,,,AMSA01.jpg,AMSA16.jpg,AMNE09.jpg,AMNE12.jpg,AMSA01.jpg,MS,2,num_8,16,num_8,0.866757927579,,,2017_Apr_25_1316,60.0034834418,MAFE4ImagesEEG,001,200232,
AFNE01.JPG,AFNE01.JPG,AFNE01.JPG,AFNE01.JPG,AFNE01.JPG,AFNE01.JPG,,,,,,,,,5,5,55,7,,,,,,,,,,,,,,,AMNE03.jpg,AMNE04.jpg,AMSA10.jpg,AMSA09.jpg,AMNE03.jpg,MN,1,num_8,16,num_8,1.08359743527,,,2017_Apr_25_1316,60.0034834418,MAFE4ImagesEEG,001,200232,
AFNE01.JPG,AFNE01.JPG,AFNE01.JPG,AFNE01.JPG,AFNE01.JPG,AFNE01.JPG,,,,,,,,,5,6,56,5,,,,,,,,,,,,,,,AMSA08.jpg,AMNE16.jpg,AMNE06.jpg,AMSA11.jpg,AMNE16.jpg,MN,1,num_6,16,num_6,0.633537954185,,,2017_Apr_25_1316,60.0034834418,MAFE4ImagesEEG,001,200232,
AFNE01.JPG,AFNE01.JPG,AFNE01.JPG,AFNE01.JPG,AFNE01.JPG,AFNE01.JPG,,,,,,,,,5,7,57,4,,,,,,,,,,,,,,,AMSA14.jpg,AMNE14.jpg,AMNE13.jpg,AMSA02.jpg,AMSA14.jpg,MS,2,num_8,16,num_8,1.05023800442,,,2017_Apr_25_1316,60.0034834418,MAFE4ImagesEEG,001,200232,
AFNE01.JPG,AFNE01.JPG,AFNE01.JPG,AFNE01.JPG,AFNE01.JPG,AFNE01.JPG,,,,,,,,,5,8,58,0,,,,,,,,,,,,,,,AMNE16.jpg,AMNE15.jpg,AMSA02.jpg,AMSA17.jpg,AMSA02.jpg,MS,2,num_2,16,num_2,0.866614236496,,,2017_Apr_25_1316,60.0034834418,MAFE4ImagesEEG,001,200232,
AFNE01.JPG,AFNE01.JPG,AFNE01.JPG,AFNE01.JPG,AFNE01.JPG,AFNE01.JPG,,,,,,,,,5,9,59,1,,,,,,,,,,,,,,,AMSA17.jpg,AMSA20.jpg,AMNE04.jpg,AMNE01.jpg,AMSA17.jpg,MS,2,num_8,16,num_8,0.716776803136,,,2017_Apr_25_1316,60.0034834418,MAFE4ImagesEEG,001,200232,
,,,,,,,,,,,,,,,,,,,,,,,,,,,,,,,,,,,,,,,,,,,space,16.0158563781,2017_Apr_25_1316,60.0034834418,MAFE4ImagesEEG,001,200232,
AFNE01.JPG,AFNE01.JPG,AFNE01.JPG,AFNE01.JPG,AFNE01.JPG,AFNE01.JPG,,,,,,,,,,,,,0,0,0,5,,,,,,,,,,,AFSA20.jpg,AFNE18.jpg,AFSA10.jpg,AFNE11.jpg,AFNE11.jpg,FN,3,num_4,16,num_4,1.26676350855,,,2017_Apr_25_1316,60.0034834418,MAFE4ImagesEEG,001,200232,
AFNE01.JPG,AFNE01.JPG,AFNE01.JPG,AFNE01.JPG,AFNE01.JPG,AFNE01.JPG,,,,,,,,,,,,,0,1,1,7,,,,,,,,,,,AFNE10.jpg,AFSA02.jpg,AFNE20.jpg,AFSA03.jpg,AFSA03.jpg,FS,4,num_4,16,num_4,0.866738041746,,,2017_Apr_25_1316,60.0034834418,MAFE4ImagesEEG,001,200232,
AFNE01.JPG,AFNE01.JPG,AFNE01.JPG,AFNE01.JPG,AFNE01.JPG,AFNE01.JPG,,,,,,,,,,,,,0,2,2,1,,,,,,,,,,,AFNE07.jpg,AFSA01.jpg,AFSA15.jpg,AFNE02.jpg,AFNE07.jpg,FN,3,num_8,16,num_8,0.63334262406,,,2017_Apr_25_1316,60.0034834418,MAFE4ImagesEEG,001,200232,
AFNE01.JPG,AFNE01.JPG,AFNE01.JPG,AFNE01.JPG,AFNE01.JPG,AFNE01.JPG,,,,,,,,,,,,,0,3,3,6,,,,,,,,,,,AFSA17.jpg,AFNE20.jpg,AFNE06.jpg,AFSA07.jpg,AFSA07.jpg,FS,4,num_4,16,num_4,0.816409268184,,,2017_Apr_25_1316,60.0034834418,MAFE4ImagesEEG,001,200232,
AFNE01.JPG,AFNE01.JPG,AFNE01.JPG,AFNE01.JPG,AFNE01.JPG,AFNE01.JPG,,,,,,,,,,,,,0,4,4,4,,,,,,,,,,,AFSA11.jpg,AFNE05.jpg,AFSA10.jpg,AFNE14.jpg,AFNE14.jpg,FN,3,num_4,16,num_4,0.800154211349,,,2017_Apr_25_1316,60.0034834418,MAFE4ImagesEEG,001,200232,
AFNE01.JPG,AFNE01.JPG,AFNE01.JPG,AFNE01.JPG,AFNE01.JPG,AFNE01.JPG,,,,,,,,,,,,,0,5,5,2,,,,,,,,,,,AFNE15.jpg,AFSA05.jpg,AFSA12.jpg,AFNE12.jpg,AFSA12.jpg,FS,4,num_2,16,num_2,1.05009303044,,,2017_Apr_25_1316,60.0034834418,MAFE4ImagesEEG,001,200232,
AFNE01.JPG,AFNE01.JPG,AFNE01.JPG,AFNE01.JPG,AFNE01.JPG,AFNE01.JPG,,,,,,,,,,,,,0,6,6,3,,,,,,,,,,,AFSA04.jpg,AFNE14.jpg,AFSA09.jpg,AFNE03.jpg,AFNE14.jpg,FN,3,num_6,32,num_2,1.28343488462,,,2017_Apr_25_1316,60.0034834418,MAFE4ImagesEEG,001,200232,
AFNE01.JPG,AFNE01.JPG,AFNE01.JPG,AFNE01.JPG,AFNE01.JPG,AFNE01.JPG,,,,,,,,,,,,,0,7,7,0,,,,,,,,,,,AFNE18.jpg,AFNE17.jpg,AFSA19.jpg,AFSA09.jpg,AFSA09.jpg,FS,4,num_4,16,num_4,1.2500963019,,,2017_Apr_25_1316,60.0034834418,MAFE4ImagesEEG,001,200232,
AFNE01.JPG,AFNE01.JPG,AFNE01.JPG,AFNE01.JPG,AFNE01.JPG,AFNE01.JPG,,,,,,,,,,,,,0,8,8,8,,,,,,,,,,,AFNE09.jpg,AFSA07.jpg,AFSA12.jpg,AFNE02.jpg,AFSA12.jpg,FS,4,num_2,16,num_2,1.13347845699,,,2017_Apr_25_1316,60.0034834418,MAFE4ImagesEEG,001,200232,
AFNE01.JPG,AFNE01.JPG,AFNE01.JPG,AFNE01.JPG,AFNE01.JPG,AFNE01.JPG,,,,,,,,,,,,,0,9,9,9,,,,,,,,,,,AFSA16.jpg,AFNE04.jpg,AFNE18.jpg,AFSA01.jpg,AFNE04.jpg,FN,3,num_6,16,num_6,0.600034511532,,,2017_Apr_25_1316,60.0034834418,MAFE4ImagesEEG,001,200232,
AFNE01.JPG,AFNE01.JPG,AFNE01.JPG,AFNE01.JPG,AFNE01.JPG,AFNE01.JPG,,,,,,,,,,,,,1,0,10,6,,,,,,,,,,,AFSA11.jpg,AFSA13.jpg,AFNE16.jpg,AFNE12.jpg,AFNE12.jpg,FN,3,num_4,16,num_4,0.533482113504,,,2017_Apr_25_1316,60.0034834418,MAFE4ImagesEEG,001,200232,
AFNE01.JPG,AFNE01.JPG,AFNE01.JPG,AFNE01.JPG,AFNE01.JPG,AFNE01.JPG,,,,,,,,,,,,,1,1,11,9,,,,,,,,,,,AFNE02.jpg,AFSA19.jpg,AFNE01.jpg,AFSA12.jpg,AFNE01.jpg,FN,3,num_2,32,num_6,1.16675609944,,,2017_Apr_25_1316,60.0034834418,MAFE4ImagesEEG,001,200232,
AFNE01.JPG,AFNE01.JPG,AFNE01.JPG,AFNE01.JPG,AFNE01.JPG,AFNE01.JPG,,,,,,,,,,,,,1,2,12,5,,,,,,,,,,,AFNE12.jpg,AFSA11.jpg,AFSA02.jpg,AFNE14.jpg,AFSA02.jpg,FS,4,num_2,32,num_8,2.31670835742,,,2017_Apr_25_1316,60.0034834418,MAFE4ImagesEEG,001,200232,
AFNE01.JPG,AFNE01.JPG,AFNE01.JPG,AFNE01.JPG,AFNE01.JPG,AFNE01.JPG,,,,,,,,,,,,,1,3,13,7,,,,,,,,,,,AFSA08.jpg,AFNE01.jpg,AFSA11.jpg,AFNE13.jpg,AFSA08.jpg,FS,4,num_8,32,num_6,1.13352303975,,,2017_Apr_25_1316,60.0034834418,MAFE4ImagesEEG,001,200232,
AFNE01.JPG,AFNE01.JPG,AFNE01.JPG,AFNE01.JPG,AFNE01.JPG,AFNE01.JPG,,,,,,,,,,,,,1,4,14,0,,,,,,,,,,,AFNE06.jpg,AFSA07.jpg,AFNE03.jpg,AFSA05.jpg,AFSA05.jpg,FS,4,num_4,32,num_8,1.20009115397,,,2017_Apr_25_1316,60.0034834418,MAFE4ImagesEEG,001,200232,
AFNE01.JPG,AFNE01.JPG,AFNE01.JPG,AFNE01.JPG,AFNE01.JPG,AFNE01.JPG,,,,,,,,,,,,,1,5,15,3,,,,,,,,,,,AFSA02.jpg,AFNE07.jpg,AFSA04.jpg,AFNE13.jpg,AFSA02.jpg,FS,4,num_8,16,num_8,1.28343616764,,,2017_Apr_25_1316,60.0034834418,MAFE4ImagesEEG,001,200232,
AFNE01.JPG,AFNE01.JPG,AFNE01.JPG,AFNE01.JPG,AFNE01.JPG,AFNE01.JPG,,,,,,,,,,,,,1,6,16,1,,,,,,,,,,,AFNE02.jpg,AFNE11.jpg,AFSA03.jpg,AFSA15.jpg,AFNE11.jpg,FN,3,num_6,16,num_6,1.09997501445,,,2017_Apr_25_1316,60.0034834418,MAFE4ImagesEEG,001,200232,
AFNE01.JPG,AFNE01.JPG,AFNE01.JPG,AFNE01.JPG,AFNE01.JPG,AFNE01.JPG,,,,,,,,,,,,,1,7,17,2,,,,,,,,,,,AFSA08.jpg,AFNE17.jpg,AFSA12.jpg,AFNE04.jpg,AFNE04.jpg,FN,3,num_4,16,num_4,0.983437354444,,,2017_Apr_25_1316,60.0034834418,MAFE4ImagesEEG,001,200232,
AFNE01.JPG,AFNE01.JPG,AFNE01.JPG,AFNE01.JPG,AFNE01.JPG,AFNE01.JPG,,,,,,,,,,,,,1,8,18,8,,,,,,,,,,,AFNE03.jpg,AFSA11.jpg,AFNE18.jpg,AFSA08.jpg,AFNE18.jpg,FN,3,num_2,32,num_8,0.783485080348,,,2017_Apr_25_1316,60.0034834418,MAFE4ImagesEEG,001,200232,
AFNE01.JPG,AFNE01.JPG,AFNE01.JPG,AFNE01.JPG,AFNE01.JPG,AFNE01.JPG,,,,,,,,,,,,,1,9,19,4,,,,,,,,,,,AFNE09.jpg,AFSA15.jpg,AFSA19.jpg,AFNE12.jpg,AFSA19.jpg,FS,4,num_2,16,num_2,1.26657555532,,,2017_Apr_25_1316,60.0034834418,MAFE4ImagesEEG,001,200232,
AFNE01.JPG,AFNE01.JPG,AFNE01.JPG,AFNE01.JPG,AFNE01.JPG,AFNE01.JPG,,,,,,,,,,,,,2,0,20,3,,,,,,,,,,,AFNE02.jpg,AFSA09.jpg,AFSA08.jpg,AFNE20.jpg,AFNE20.jpg,FN,3,num_4,16,num_4,0.833843041211,,,2017_Apr_25_1316,60.0034834418,MAFE4ImagesEEG,001,200232,
AFNE01.JPG,AFNE01.JPG,AFNE01.JPG,AFNE01.JPG,AFNE01.JPG,AFNE01.JPG,,,,,,,,,,,,,2,1,21,2,,,,,,,,,,,AFSA04.jpg,AFSA19.jpg,AFNE16.jpg,AFNE06.jpg,AFNE06.jpg,FN,3,num_4,16,num_4,1.38341182354,,,2017_Apr_25_1316,60.0034834418,MAFE4ImagesEEG,001,200232,
AFNE01.JPG,AFNE01.JPG,AFNE01.JPG,AFNE01.JPG,AFNE01.JPG,AFNE01.JPG,,,,,,,,,,,,,2,2,22,0,,,,,,,,,,,AFSA07.jpg,AFNE02.jpg,AFSA06.jpg,AFNE15.jpg,AFNE02.jpg,FN,3,num_6,32,num_8,0.933458827902,,,2017_Apr_25_1316,60.0034834418,MAFE4ImagesEEG,001,200232,
AFNE01.JPG,AFNE01.JPG,AFNE01.JPG,AFNE01.JPG,AFNE01.JPG,AFNE01.JPG,,,,,,,,,,,,,2,3,23,9,,,,,,,,,,,AFNE10.jpg,AFSA16.jpg,AFSA19.jpg,AFNE15.jpg,AFSA16.jpg,FS,4,num_6,32,num_2,1.0502072135,,,2017_Apr_25_1316,60.0034834418,MAFE4ImagesEEG,001,200232,
AFNE01.JPG,AFNE01.JPG,AFNE01.JPG,AFNE01.JPG,AFNE01.JPG,AFNE01.JPG,,,,,,,,,,,,,2,4,24,6,,,,,,,,,,,AFSA17.jpg,AFNE02.jpg,AFNE06.jpg,AFSA16.jpg,AFSA16.jpg,FS,4,num_4,16,num_4,0.566899918835,,,2017_Apr_25_1316,60.0034834418,MAFE4ImagesEEG,001,200232,
AFNE01.JPG,AFNE01.JPG,AFNE01.JPG,AFNE01.JPG,AFNE01.JPG,AFNE01.JPG,,,,,,,,,,,,,2,5,25,5,,,,,,,,,,,AFSA02.jpg,AFNE12.jpg,AFNE02.jpg,AFSA03.jpg,AFNE12.jpg,FN,3,num_6,16,num_6,1.00017768948,,,2017_Apr_25_1316,60.0034834418,MAFE4ImagesEEG,001,200232,
AFNE01.JPG,AFNE01.JPG,AFNE01.JPG,AFNE01.JPG,AFNE01.JPG,AFNE01.JPG,,,,,,,,,,,,,2,6,26,1,,,,,,,,,,,AFNE13.jpg,AFSA10.jpg,AFSA17.jpg,AFNE03.jpg,AFSA10.jpg,FS,4,num_6,32,num_2,1.26684433466,,,2017_Apr_25_1316,60.0034834418,MAFE4ImagesEEG,001,200232,
AFNE01.JPG,AFNE01.JPG,AFNE01.JPG,AFNE01.JPG,AFNE01.JPG,AFNE01.JPG,,,,,,,,,,,,,2,7,27,4,,,,,,,,,,,AFSA01.jpg,AFNE07.jpg,AFSA13.jpg,AFNE17.jpg,AFNE07.jpg,FN,3,num_6,16,num_6,0.733600209584,,,2017_Apr_25_1316,60.0034834418,MAFE4ImagesEEG,001,200232,
AFNE01.JPG,AFNE01.JPG,AFNE01.JPG,AFNE01.JPG,AFNE01.JPG,AFNE01.JPG,,,,,,,,,,,,,2,8,28,8,,,,,,,,,,,AFSA14.jpg,AFNE19.jpg,AFSA02.jpg,AFNE01.jpg,AFNE19.jpg,FN,3,num_6,16,num_6,1.13314232253,,,2017_Apr_25_1316,60.0034834418,MAFE4ImagesEEG,001,200232,
AFNE01.JPG,AFNE01.JPG,AFNE01.JPG,AFNE01.JPG,AFNE01.JPG,AFNE01.JPG,,,,,,,,,,,,,2,9,29,7,,,,,,,,,,,AFNE11.jpg,AFSA10.jpg,AFSA20.jpg,AFNE12.jpg,AFSA20.jpg,FS,4,num_2,16,num_2,0.900147828623,,,2017_Apr_25_1316,60.0034834418,MAFE4ImagesEEG,001,200232,
AFNE01.JPG,AFNE01.JPG,AFNE01.JPG,AFNE01.JPG,AFNE01.JPG,AFNE01.JPG,,,,,,,,,,,,,3,0,30,1,,,,,,,,,,,AFSA04.jpg,AFNE10.jpg,AFNE16.jpg,AFSA18.jpg,AFNE16.jpg,FN,3,num_2,16,num_2,1.1167262547,,,2017_Apr_25_1316,60.0034834418,MAFE4ImagesEEG,001,200232,
AFNE01.JPG,AFNE01.JPG,AFNE01.JPG,AFNE01.JPG,AFNE01.JPG,AFNE01.JPG,,,,,,,,,,,,,3,1,31,3,,,,,,,,,,,AFNE20.jpg,AFNE18.jpg,AFSA17.jpg,AFSA18.jpg,AFNE20.jpg,FN,3,num_8,16,num_8,0.983302964712,,,2017_Apr_25_1316,60.0034834418,MAFE4ImagesEEG,001,200232,
AFNE01.JPG,AFNE01.JPG,AFNE01.JPG,AFNE01.JPG,AFNE01.JPG,AFNE01.JPG,,,,,,,,,,,,,3,2,32,9,,,,,,,,,,,AFNE18.jpg,AFSA12.jpg,AFNE03.jpg,AFSA15.jpg,AFNE03.jpg,FN,3,num_2,32,num_8,0.766419836553,,,2017_Apr_25_1316,60.0034834418,MAFE4ImagesEEG,001,200232,
AFNE01.JPG,AFNE01.JPG,AFNE01.JPG,AFNE01.JPG,AFNE01.JPG,AFNE01.JPG,,,,,,,,,,,,,3,3,33,2,,,,,,,,,,,AFNE09.jpg,AFNE08.jpg,AFSA10.jpg,AFSA14.jpg,AFNE09.jpg,FN,3,num_8,16,num_8,0.816739629488,,,2017_Apr_25_1316,60.0034834418,MAFE4ImagesEEG,001,200232,
AFNE01.JPG,AFNE01.JPG,AFNE01.JPG,AFNE01.JPG,AFNE01.JPG,AFNE01.JPG,,,,,,,,,,,,,3,4,34,6,,,,,,,,,,,AFNE05.jpg,AFSA03.jpg,AFNE07.jpg,AFSA14.jpg,AFSA14.jpg,FS,4,num_4,16,num_4,1.25009918853,,,2017_Apr_25_1316,60.0034834418,MAFE4ImagesEEG,001,200232,
AFNE01.JPG,AFNE01.JPG,AFNE01.JPG,AFNE01.JPG,AFNE01.JPG,AFNE01.JPG,,,,,,,,,,,,,3,5,35,5,,,,,,,,,,,AFNE18.jpg,AFSA09.jpg,AFSA13.jpg,AFNE11.jpg,AFNE11.jpg,FN,3,num_4,16,num_4,1.35005399643,,,2017_Apr_25_1316,60.0034834418,MAFE4ImagesEEG,001,200232,
AFNE01.JPG,AFNE01.JPG,AFNE01.JPG,AFNE01.JPG,AFNE01.JPG,AFNE01.JPG,,,,,,,,,,,,,3,6,36,8,,,,,,,,,,,AFNE07.jpg,AFSA18.jpg,AFSA05.jpg,AFNE04.jpg,AFSA05.jpg,FS,4,num_2,32,num_6,1.0501318397,,,2017_Apr_25_1316,60.0034834418,MAFE4ImagesEEG,001,200232,
AFNE01.JPG,AFNE01.JPG,AFNE01.JPG,AFNE01.JPG,AFNE01.JPG,AFNE01.JPG,,,,,,,,,,,,,3,7,37,4,,,,,,,,,,,AFSA16.jpg,AFNE16.jpg,AFSA06.jpg,AFNE09.jpg,AFSA06.jpg,FS,4,num_2,16,num_2,0.683431805577,,,2017_Apr_25_1316,60.0034834418,MAFE4ImagesEEG,001,200232,
AFNE01.JPG,AFNE01.JPG,AFNE01.JPG,AFNE01.JPG,AFNE01.JPG,AFNE01.JPG,,,,,,,,,,,,,3,8,38,7,,,,,,,,,,,AFNE08.jpg,AFNE04.jpg,AFSA08.jpg,AFSA09.jpg,AFNE04.jpg,FN,3,num_6,16,num_6,0.533539846539,,,2017_Apr_25_1316,60.0034834418,MAFE4ImagesEEG,001,200232,
AFNE01.JPG,AFNE01.JPG,AFNE01.JPG,AFNE01.JPG,AFNE01.JPG,AFNE01.JPG,,,,,,,,,,,,,3,9,39,0,,,,,,,,,,,AFSA04.jpg,AFNE15.jpg,AFSA01.jpg,AFNE12.jpg,AFNE12.jpg,FN,3,num_4,16,num_4,0.583451980026,,,2017_Apr_25_1316,60.0034834418,MAFE4ImagesEEG,001,200232,
AFNE01.JPG,AFNE01.JPG,AFNE01.JPG,AFNE01.JPG,AFNE01.JPG,AFNE01.JPG,,,,,,,,,,,,,4,0,40,0,,,,,,,,,,,AFSA10.jpg,AFNE12.jpg,AFSA12.jpg,AFNE18.jpg,AFNE18.jpg,FN,3,num_4,32,num_6,1.20010077616,,,2017_Apr_25_1316,60.0034834418,MAFE4ImagesEEG,001,200232,
AFNE01.JPG,AFNE01.JPG,AFNE01.JPG,AFNE01.JPG,AFNE01.JPG,AFNE01.JPG,,,,,,,,,,,,,4,1,41,7,,,,,,,,,,,AFNE08.jpg,AFNE20.jpg,AFSA15.jpg,AFSA18.jpg,AFNE08.jpg,FN,3,num_8,16,num_8,1.11678591219,,,2017_Apr_25_1316,60.0034834418,MAFE4ImagesEEG,001,200232,
AFNE01.JPG,AFNE01.JPG,AFNE01.JPG,AFNE01.JPG,AFNE01.JPG,AFNE01.JPG,,,,,,,,,,,,,4,2,42,3,,,,,,,,,,,AFNE02.jpg,AFSA17.jpg,AFSA12.jpg,AFNE20.jpg,AFSA17.jpg,FS,4,num_6,16,num_6,1.03347201028,,,2017_Apr_25_1316,60.0034834418,MAFE4ImagesEEG,001,200232,
AFNE01.JPG,AFNE01.JPG,AFNE01.JPG,AFNE01.JPG,AFNE01.JPG,AFNE01.JPG,,,,,,,,,,,,,4,3,43,9,,,,,,,,,,,AFNE19.jpg,AFSA15.jpg,AFNE14.jpg,AFSA18.jpg,AFSA18.jpg,FS,4,num_4,16,num_4,0.983547688578,,,2017_Apr_25_1316,60.0034834418,MAFE4ImagesEEG,001,200232,
AFNE01.JPG,AFNE01.JPG,AFNE01.JPG,AFNE01.JPG,AFNE01.JPG,AFNE01.JPG,,,,,,,,,,,,,4,4,44,6,,,,,,,,,,,AFNE01.jpg,AFNE15.jpg,AFSA08.jpg,AFSA19.jpg,AFSA08.jpg,FS,4,num_2,32,num_4,1.25008443464,,,2017_Apr_25_1316,60.0034834418,MAFE4ImagesEEG,001,200232,
AFNE01.JPG,AFNE01.JPG,AFNE01.JPG,AFNE01.JPG,AFNE01.JPG,AFNE01.JPG,,,,,,,,,,,,,4,5,45,8,,,,,,,,,,,AFSA09.jpg,AFSA18.jpg,AFNE12.jpg,AFNE05.jpg,AFNE05.jpg,FN,3,num_4,16,num_4,0.800292770611,,,2017_Apr_25_1316,60.0034834418,MAFE4ImagesEEG,001,200232,
AFNE01.JPG,AFNE01.JPG,AFNE01.JPG,AFNE01.JPG,AFNE01.JPG,AFNE01.JPG,,,,,,,,,,,,,4,6,46,4,,,,,,,,,,,AFNE14.jpg,AFSA10.jpg,AFNE09.jpg,AFSA13.jpg,AFNE09.jpg,FN,3,num_2,32,num_6,1.10010234779,,,2017_Apr_25_1316,60.0034834418,MAFE4ImagesEEG,001,200232,
AFNE01.JPG,AFNE01.JPG,AFNE01.JPG,AFNE01.JPG,AFNE01.JPG,AFNE01.JPG,,,,,,,,,,,,,4,7,47,1,,,,,,,,,,,AFNE16.jpg,AFSA02.jpg,AFNE19.jpg,AFSA14.jpg,AFNE19.jpg,FN,3,num_2,32,num_6,0.833434098866,,,2017_Apr_25_1316,60.0034834418,MAFE4ImagesEEG,001,200232,
AFNE01.JPG,AFNE01.JPG,AFNE01.JPG,AFNE01.JPG,AFNE01.JPG,AFNE01.JPG,,,,,,,,,,,,,4,8,48,2,,,,,,,,,,,AFSA16.jpg,AFNE01.jpg,AFSA10.jpg,AFNE12.jpg,AFSA10.jpg,FS,4,num_2,16,num_2,0.933414565865,,,2017_Apr_25_1316,60.0034834418,MAFE4ImagesEEG,001,200232,
AFNE01.JPG,AFNE01.JPG,AFNE01.JPG,AFNE01.JPG,AFNE01.JPG,AFNE01.JPG,,,,,,,,,,,,,4,9,49,5,,,,,,,,,,,AFSA02.jpg,AFNE01.jpg,AFSA04.jpg,AFNE02.jpg,AFSA02.jpg,FS,4,num_8,32,num_4,0.71679348161,,,2017_Apr_25_1316,60.0034834418,MAFE4ImagesEEG,001,200232,
AFNE01.JPG,AFNE01.JPG,AFNE01.JPG,AFNE01.JPG,AFNE01.JPG,AFNE01.JPG,,,,,,,,,,,,,5,0,50,5,,,,,,,,,,,AFSA17.jpg,AFNE10.jpg,AFNE03.jpg,AFSA16.jpg,AFNE03.jpg,FN,3,num_2,32,num_8,1.0334187675,,,2017_Apr_25_1316,60.0034834418,MAFE4ImagesEEG,001,200232,
AFNE01.JPG,AFNE01.JPG,AFNE01.JPG,AFNE01.JPG,AFNE01.JPG,AFNE01.JPG,,,,,,,,,,,,,5,1,51,2,,,,,,,,,,,AFNE10.jpg,AFSA03.jpg,AFNE18.jpg,AFSA20.jpg,AFSA03.jpg,FS,4,num_6,16,num_6,0.884131080937,,,2017_Apr_25_1316,60.0034834418,MAFE4ImagesEEG,001,200232,
AFNE01.JPG,AFNE01.JPG,AFNE01.JPG,AFNE01.JPG,AFNE01.JPG,AFNE01.JPG,,,,,,,,,,,,,5,2,52,1,,,,,,,,,,,AFSA16.jpg,AFNE06.jpg,AFSA05.jpg,AFNE09.jpg,AFNE06.jpg,FN,3,num_6,16,num_6,1.13342200697,,,2017_Apr_25_1316,60.0034834418,MAFE4ImagesEEG,001,200232,
AFNE01.JPG,AFNE01.JPG,AFNE01.JPG,AFNE01.JPG,AFNE01.JPG,AFNE01.JPG,,,,,,,,,,,,,5,3,53,9,,,,,,,,,,,AFSA01.jpg,AFNE03.jpg,AFSA17.jpg,AFNE13.jpg,AFNE03.jpg,FN,3,num_6,16,num_6,1.01675220241,,,2017_Apr_25_1316,60.0034834418,MAFE4ImagesEEG,001,200232,
AFNE01.JPG,AFNE01.JPG,AFNE01.JPG,AFNE01.JPG,AFNE01.JPG,AFNE01.JPG,,,,,,,,,,,,,5,4,54,7,,,,,,,,,,,AFSA07.jpg,AFNE10.jpg,AFSA09.jpg,AFNE14.jpg,AFNE14.jpg,FN,3,num_4,16,num_4,0.950129883247,,,2017_Apr_25_1316,60.0034834418,MAFE4ImagesEEG,001,200232,
AFNE01.JPG,AFNE01.JPG,AFNE01.JPG,AFNE01.JPG,AFNE01.JPG,AFNE01.JPG,,,,,,,,,,,,,5,5,55,0,,,,,,,,,,,AFNE09.jpg,AFSA14.jpg,AFNE20.jpg,AFSA10.jpg,AFNE09.jpg,FN,3,num_8,16,num_8,1.06679327309,,,2017_Apr_25_1316,60.0034834418,MAFE4ImagesEEG,001,200232,
AFNE01.JPG,AFNE01.JPG,AFNE01.JPG,AFNE01.JPG,AFNE01.JPG,AFNE01.JPG,,,,,,,,,,,,,5,6,56,8,,,,,,,,,,,AFNE08.jpg,AFNE16.jpg,AFSA10.jpg,AFSA04.jpg,AFNE08.jpg,FN,3,num_8,32,num_2,1.23347784777,,,2017_Apr_25_1316,60.0034834418,MAFE4ImagesEEG,001,200232,
AFNE01.JPG,AFNE01.JPG,AFNE01.JPG,AFNE01.JPG,AFNE01.JPG,AFNE01.JPG,,,,,,,,,,,,,5,7,57,6,,,,,,,,,,,AFNE13.jpg,AFSA15.jpg,AFNE02.jpg,AFSA05.jpg,AFSA15.jpg,FS,4,num_6,16,num_6,0.816669387626,,,2017_Apr_25_1316,60.0034834418,MAFE4ImagesEEG,001,200232,
AFNE01.JPG,AFNE01.JPG,AFNE01.JPG,AFNE01.JPG,AFNE01.JPG,AFNE01.JPG,,,,,,,,,,,,,5,8,58,4,,,,,,,,,,,AFNE04.jpg,AFNE05.jpg,AFSA20.jpg,AFSA02.jpg,AFSA02.jpg,FS,4,num_4,16,num_4,1.00007216621,,,2017_Apr_25_1316,60.0034834418,MAFE4ImagesEEG,001,200232,
AFNE01.JPG,AFNE01.JPG,AFNE01.JPG,AFNE01.JPG,AFNE01.JPG,AFNE01.JPG,,,,,,,,,,,,,5,9,59,3,,,,,,,,,,,AFSA20.jpg,AFNE13.jpg,AFNE05.jpg,AFSA09.jpg,AFNE13.jpg,FN,3,num_6,32,num_4,0.866899052868,,,2017_Apr_25_1316,60.0034834418,MAFE4ImagesEEG,001,200232,
,,,,,,,,,,,,,,,,,,,,,,,,,,,,,,,,,,,,,,,,,,,space,8.98274263344,2017_Apr_25_1316,60.0034834418,MAFE4ImagesEEG,001,200232,
AFNE01.JPG,AFNE01.JPG,AFNE01.JPG,AFNE01.JPG,AFNE01.JPG,AFNE01.JPG,,,,,,,,,,,,,,,,,0,0,0,4,,,,,,,AMNE05.jpg,AMSA06.jpg,AMSA17.jpg,AMNE08.jpg,AMNE08.jpg,MN,1,num_4,16,num_4,0.883508205647,,,2017_Apr_25_1316,60.0034834418,MAFE4ImagesEEG,001,200232,
AFNE01.JPG,AFNE01.JPG,AFNE01.JPG,AFNE01.JPG,AFNE01.JPG,AFNE01.JPG,,,,,,,,,,,,,,,,,0,1,1,5,,,,,,,AMNE12.jpg,AMSA20.jpg,AMSA18.jpg,AMNE02.jpg,AMSA18.jpg,MS,2,num_2,16,num_2,0.75016927009,,,2017_Apr_25_1316,60.0034834418,MAFE4ImagesEEG,001,200232,
AFNE01.JPG,AFNE01.JPG,AFNE01.JPG,AFNE01.JPG,AFNE01.JPG,AFNE01.JPG,,,,,,,,,,,,,,,,,0,2,2,8,,,,,,,AMNE10.jpg,AMSA01.jpg,AMSA11.jpg,AMNE14.jpg,AMSA11.jpg,MS,2,num_2,32,num_6,0.667109393515,,,2017_Apr_25_1316,60.0034834418,MAFE4ImagesEEG,001,200232,
AFNE01.JPG,AFNE01.JPG,AFNE01.JPG,AFNE01.JPG,AFNE01.JPG,AFNE01.JPG,,,,,,,,,,,,,,,,,0,3,3,2,,,,,,,AMSA09.jpg,AMNE14.jpg,AMNE05.jpg,AMSA01.jpg,AMNE05.jpg,MN,1,num_2,32,num_8,0.916776867351,,,2017_Apr_25_1316,60.0034834418,MAFE4ImagesEEG,001,200232,
AFNE01.JPG,AFNE01.JPG,AFNE01.JPG,AFNE01.JPG,AFNE01.JPG,AFNE01.JPG,,,,,,,,,,,,,,,,,0,4,4,3,,,,,,,AMSA14.jpg,AMNE03.jpg,AMNE20.jpg,AMSA05.jpg,AMNE20.jpg,MN,1,num_2,32,num_8,0.933457865613,,,2017_Apr_25_1316,60.0034834418,MAFE4ImagesEEG,001,200232,
AFNE01.JPG,AFNE01.JPG,AFNE01.JPG,AFNE01.JPG,AFNE01.JPG,AFNE01.JPG,,,,,,,,,,,,,,,,,0,5,5,7,,,,,,,AMSA16.jpg,AMNE08.jpg,AMNE17.jpg,AMSA18.jpg,AMSA18.jpg,MS,2,num_4,16,num_4,0.666829388356,,,2017_Apr_25_1316,60.0034834418,MAFE4ImagesEEG,001,200232,
AFNE01.JPG,AFNE01.JPG,AFNE01.JPG,AFNE01.JPG,AFNE01.JPG,AFNE01.JPG,,,,,,,,,,,,,,,,,0,6,6,0,,,,,,,AMSA19.jpg,AMNE12.jpg,AMSA13.jpg,AMNE07.jpg,AMSA19.jpg,MS,2,num_8,16,num_8,1.03352974332,,,2017_Apr_25_1316,60.0034834418,MAFE4ImagesEEG,001,200232,
AFNE01.JPG,AFNE01.JPG,AFNE01.JPG,AFNE01.JPG,AFNE01.JPG,AFNE01.JPG,,,,,,,,,,,,,,,,,0,7,7,6,,,,,,,AMNE06.jpg,AMSA09.jpg,AMNE07.jpg,AMSA12.jpg,AMSA09.jpg,MS,2,num_6,16,num_6,0.866767549771,,,2017_Apr_25_1316,60.0034834418,MAFE4ImagesEEG,001,200232,
AFNE01.JPG,AFNE01.JPG,AFNE01.JPG,AFNE01.JPG,AFNE01.JPG,AFNE01.JPG,,,,,,,,,,,,,,,,,0,8,8,1,,,,,,,AMSA11.jpg,AMNE10.jpg,AMSA09.jpg,AMNE19.jpg,AMSA09.jpg,MS,2,num_2,32,num_6,0.950130524696,,,2017_Apr_25_1316,60.0034834418,MAFE4ImagesEEG,001,200232,
AFNE01.JPG,AFNE01.JPG,AFNE01.JPG,AFNE01.JPG,AFNE01.JPG,AFNE01.JPG,,,,,,,,,,,,,,,,,0,9,9,9,,,,,,,AMSA13.jpg,AMNE01.jpg,AMSA08.jpg,AMNE12.jpg,AMNE01.jpg,MN,1,num_6,32,num_8,0.833462003153,,,2017_Apr_25_1316,60.0034834418,MAFE4ImagesEEG,001,200232,
AFNE01.JPG,AFNE01.JPG,AFNE01.JPG,AFNE01.JPG,AFNE01.JPG,AFNE01.JPG,,,,,,,,,,,,,,,,,1,0,10,1,,,,,,,AMNE10.jpg,AMNE03.jpg,AMSA07.jpg,AMSA11.jpg,AMSA11.jpg,MS,2,num_4,16,num_4,0.816686386708,,,2017_Apr_25_1316,60.0034834418,MAFE4ImagesEEG,001,200232,
AFNE01.JPG,AFNE01.JPG,AFNE01.JPG,AFNE01.JPG,AFNE01.JPG,AFNE01.JPG,,,,,,,,,,,,,,,,,1,1,11,9,,,,,,,AMSA16.jpg,AMSA10.jpg,AMNE07.jpg,AMNE20.jpg,AMSA16.jpg,MS,2,num_8,16,num_8,0.950151372817,,,2017_Apr_25_1316,60.0034834418,MAFE4ImagesEEG,001,200232,
AFNE01.JPG,AFNE01.JPG,AFNE01.JPG,AFNE01.JPG,AFNE01.JPG,AFNE01.JPG,,,,,,,,,,,,,,,,,1,2,12,0,,,,,,,AMSA13.jpg,AMSA12.jpg,AMNE07.jpg,AMNE05.jpg,AMSA12.jpg,MS,2,num_6,16,num_6,0.916808620444,,,2017_Apr_25_1316,60.0034834418,MAFE4ImagesEEG,001,200232,
AFNE01.JPG,AFNE01.JPG,AFNE01.JPG,AFNE01.JPG,AFNE01.JPG,AFNE01.JPG,,,,,,,,,,,,,,,,,1,3,13,4,,,,,,,AMNE17.jpg,AMNE04.jpg,AMSA19.jpg,AMSA11.jpg,AMNE17.jpg,MN,1,num_8,16,num_8,0.833390799118,,,2017_Apr_25_1316,60.0034834418,MAFE4ImagesEEG,001,200232,
AFNE01.JPG,AFNE01.JPG,AFNE01.JPG,AFNE01.JPG,AFNE01.JPG,AFNE01.JPG,,,,,,,,,,,,,,,,,1,4,14,5,,,,,,,AMNE19.jpg,AMNE09.jpg,AMSA11.jpg,AMSA10.jpg,AMNE09.jpg,MN,1,num_6,16,num_6,0.683735224768,,,2017_Apr_25_1316,60.0034834418,MAFE4ImagesEEG,001,200232,
AFNE01.JPG,AFNE01.JPG,AFNE01.JPG,AFNE01.JPG,AFNE01.JPG,AFNE01.JPG,,,,,,,,,,,,,,,,,1,5,15,2,,,,,,,AMNE16.jpg,AMNE19.jpg,AMSA12.jpg,AMSA05.jpg,AMSA05.jpg,MS,2,num_4,16,num_4,1.00009974977,,,2017_Apr_25_1316,60.0034834418,MAFE4ImagesEEG,001,200232,
AFNE01.JPG,AFNE01.JPG,AFNE01.JPG,AFNE01.JPG,AFNE01.JPG,AFNE01.JPG,,,,,,,,,,,,,,,,,1,6,16,6,,,,,,,AMSA13.jpg,AMNE13.jpg,AMNE03.jpg,AMSA18.jpg,AMNE13.jpg,MN,1,num_6,16,num_6,0.666910214582,,,2017_Apr_25_1316,60.0034834418,MAFE4ImagesEEG,001,200232,
AFNE01.JPG,AFNE01.JPG,AFNE01.JPG,AFNE01.JPG,AFNE01.JPG,AFNE01.JPG,,,,,,,,,,,,,,,,,1,7,17,8,,,,,,,AMNE08.jpg,AMSA14.jpg,AMSA13.jpg,AMNE14.jpg,AMSA13.jpg,MS,2,num_2,32,num_4,1.05012959463,,,2017_Apr_25_1316,60.0034834418,MAFE4ImagesEEG,001,200232,
AFNE01.JPG,AFNE01.JPG,AFNE01.JPG,AFNE01.JPG,AFNE01.JPG,AFNE01.JPG,,,,,,,,,,,,,,,,,1,8,18,7,,,,,,,AMSA10.jpg,AMNE01.jpg,AMSA19.jpg,AMNE14.jpg,AMSA19.jpg,MS,2,num_2,16,num_2,1.10017740075,,,2017_Apr_25_1316,60.0034834418,MAFE4ImagesEEG,001,200232,
AFNE01.JPG,AFNE01.JPG,AFNE01.JPG,AFNE01.JPG,AFNE01.JPG,AFNE01.JPG,,,,,,,,,,,,,,,,,1,9,19,3,,,,,,,AMNE13.jpg,AMNE06.jpg,AMSA19.jpg,AMSA12.jpg,AMNE06.jpg,MN,1,num_6,16,num_6,0.583509071614,,,2017_Apr_25_1316,60.0034834418,MAFE4ImagesEEG,001,200232,
AFNE01.JPG,AFNE01.JPG,AFNE01.JPG,AFNE01.JPG,AFNE01.JPG,AFNE01.JPG,,,,,,,,,,,,,,,,,2,0,20,7,,,,,,,AMSA14.jpg,AMSA10.jpg,AMNE12.jpg,AMNE01.jpg,AMSA14.jpg,MS,2,num_8,16,num_8,0.683442389942,,,2017_Apr_25_1316,60.0034834418,MAFE4ImagesEEG,001,200232,
AFNE01.JPG,AFNE01.JPG,AFNE01.JPG,AFNE01.JPG,AFNE01.JPG,AFNE01.JPG,,,,,,,,,,,,,,,,,2,1,21,6,,,,,,,AMSA15.jpg,AMNE05.jpg,AMSA02.jpg,AMNE19.jpg,AMSA15.jpg,MS,2,num_8,16,num_8,0.850251090596,,,2017_Apr_25_1316,60.0034834418,MAFE4ImagesEEG,001,200232,
AFNE01.JPG,AFNE01.JPG,AFNE01.JPG,AFNE01.JPG,AFNE01.JPG,AFNE01.JPG,,,,,,,,,,,,,,,,,2,2,22,0,,,,,,,AMNE14.jpg,AMSA13.jpg,AMNE17.jpg,AMSA16.jpg,AMSA16.jpg,MS,2,num_4,32,num_2,1.23314363754,,,2017_Apr_25_1316,60.0034834418,MAFE4ImagesEEG,001,200232,
AFNE01.JPG,AFNE01.JPG,AFNE01.JPG,AFNE01.JPG,AFNE01.JPG,AFNE01.JPG,,,,,,,,,,,,,,,,,2,3,23,2,,,,,,,AMSA07.jpg,AMSA14.jpg,AMNE15.jpg,AMNE16.jpg,AMNE16.jpg,MN,1,num_4,32,num_2,0.916751849698,,,2017_Apr_25_1316,60.0034834418,MAFE4ImagesEEG,001,200232,
AFNE01.JPG,AFNE01.JPG,AFNE01.JPG,AFNE01.JPG,AFNE01.JPG,AFNE01.JPG,,,,,,,,,,,,,,,,,2,4,24,4,,,,,,,AMNE20.jpg,AMSA19.jpg,AMNE07.jpg,AMSA11.jpg,AMSA11.jpg,MS,2,num_4,16,num_4,1.0480300365,,,2017_Apr_25_1316,60.0034834418,MAFE4ImagesEEG,001,200232,
AFNE01.JPG,AFNE01.JPG,AFNE01.JPG,AFNE01.JPG,AFNE01.JPG,AFNE01.JPG,,,,,,,,,,,,,,,,,2,5,25,9,,,,,,,AMSA05.jpg,AMNE16.jpg,AMNE06.jpg,AMSA09.jpg,AMSA05.jpg,MS,2,num_8,16,num_8,0.966817296459,,,2017_Apr_25_1316,60.0034834418,MAFE4ImagesEEG,001,200232,
AFNE01.JPG,AFNE01.JPG,AFNE01.JPG,AFNE01.JPG,AFNE01.JPG,AFNE01.JPG,,,,,,,,,,,,,,,,,2,6,26,1,,,,,,,AMNE07.jpg,AMSA03.jpg,AMSA10.jpg,AMNE19.jpg,AMNE19.jpg,MN,1,num_4,16,num_4,1.28340665961,,,2017_Apr_25_1316,60.0034834418,MAFE4ImagesEEG,001,200232,
AFNE01.JPG,AFNE01.JPG,AFNE01.JPG,AFNE01.JPG,AFNE01.JPG,AFNE01.JPG,,,,,,,,,,,,,,,,,2,7,27,5,,,,,,,AMSA07.jpg,AMSA19.jpg,AMNE09.jpg,AMNE17.jpg,AMSA19.jpg,MS,2,num_6,16,num_6,0.983431901899,,,2017_Apr_25_1316,60.0034834418,MAFE4ImagesEEG,001,200232,
AFNE01.JPG,AFNE01.JPG,AFNE01.JPG,AFNE01.JPG,AFNE01.JPG,AFNE01.JPG,,,,,,,,,,,,,,,,,2,8,28,3,,,,,,,AMNE09.jpg,AMSA04.jpg,AMSA20.jpg,AMNE13.jpg,AMNE13.jpg,MN,1,num_4,32,num_8,1.19992116233,,,2017_Apr_25_1316,60.0034834418,MAFE4ImagesEEG,001,200232,
AFNE01.JPG,AFNE01.JPG,AFNE01.JPG,AFNE01.JPG,AFNE01.JPG,AFNE01.JPG,,,,,,,,,,,,,,,,,2,9,29,8,,,,,,,AMSA20.jpg,AMNE08.jpg,AMNE15.jpg,AMSA02.jpg,AMNE15.jpg,MN,1,num_2,32,num_8,0.833426401136,,,2017_Apr_25_1316,60.0034834418,MAFE4ImagesEEG,001,200232,
AFNE01.JPG,AFNE01.JPG,AFNE01.JPG,AFNE01.JPG,AFNE01.JPG,AFNE01.JPG,,,,,,,,,,,,,,,,,3,0,30,7,,,,,,,AMSA05.jpg,AMNE01.jpg,AMNE16.jpg,AMSA19.jpg,AMNE16.jpg,MN,1,num_2,16,num_2,1.48341185565,,,2017_Apr_25_1316,60.0034834418,MAFE4ImagesEEG,001,200232,
AFNE01.JPG,AFNE01.JPG,AFNE01.JPG,AFNE01.JPG,AFNE01.JPG,AFNE01.JPG,,,,,,,,,,,,,,,,,3,1,31,2,,,,,,,AMNE08.jpg,AMNE09.jpg,AMSA10.jpg,AMSA15.jpg,AMNE08.jpg,MN,1,num_8,16,num_8,0.666886159102,,,2017_Apr_25_1316,60.0034834418,MAFE4ImagesEEG,001,200232,
AFNE01.JPG,AFNE01.JPG,AFNE01.JPG,AFNE01.JPG,AFNE01.JPG,AFNE01.JPG,,,,,,,,,,,,,,,,,3,2,32,0,,,,,,,AMNE04.jpg,AMSA14.jpg,AMSA13.jpg,AMNE19.jpg,AMNE04.jpg,MN,1,num_8,32,num_2,1.13328537217,,,2017_Apr_25_1316,60.0034834418,MAFE4ImagesEEG,001,200232,
AFNE01.JPG,AFNE01.JPG,AFNE01.JPG,AFNE01.JPG,AFNE01.JPG,AFNE01.JPG,,,,,,,,,,,,,,,,,3,3,33,1,,,,,,,AMNE20.jpg,AMSA13.jpg,AMNE05.jpg,AMSA04.jpg,AMSA04.jpg,MS,2,num_4,16,num_4,0.916527011548,,,2017_Apr_25_1316,60.0034834418,MAFE4ImagesEEG,001,200232,
AFNE01.JPG,AFNE01.JPG,AFNE01.JPG,AFNE01.JPG,AFNE01.JPG,AFNE01.JPG,,,,,,,,,,,,,,,,,3,4,34,9,,,,,,,AMNE03.jpg,AMSA13.jpg,AMNE16.jpg,AMSA11.jpg,AMNE03.jpg,MN,1,num_8,16,num_8,1.18347077537,,,2017_Apr_25_1316,60.0034834418,MAFE4ImagesEEG,001,200232,
AFNE01.JPG,AFNE01.JPG,AFNE01.JPG,AFNE01.JPG,AFNE01.JPG,AFNE01.JPG,,,,,,,,,,,,,,,,,3,5,35,6,,,,,,,AMNE16.jpg,AMSA06.jpg,AMNE09.jpg,AMSA19.jpg,AMSA06.jpg,MS,2,num_6,16,num_6,0.816837775637,,,2017_Apr_25_1316,60.0034834418,MAFE4ImagesEEG,001,200232,
AFNE01.JPG,AFNE01.JPG,AFNE01.JPG,AFNE01.JPG,AFNE01.JPG,AFNE01.JPG,,,,,,,,,,,,,,,,,3,6,36,8,,,,,,,AMNE18.jpg,AMSA01.jpg,AMNE06.jpg,AMSA05.jpg,AMSA01.jpg,MS,2,num_6,32,num_4,1.41694798158,,,2017_Apr_25_1316,60.0034834418,MAFE4ImagesEEG,001,200232,
AFNE01.JPG,AFNE01.JPG,AFNE01.JPG,AFNE01.JPG,AFNE01.JPG,AFNE01.JPG,,,,,,,,,,,,,,,,,3,7,37,4,,,,,,,AMNE11.jpg,AMSA06.jpg,AMNE15.jpg,AMSA13.jpg,AMNE15.jpg,MN,1,num_2,16,num_2,0.616792166606,,,2017_Apr_25_1316,60.0034834418,MAFE4ImagesEEG,001,200232,
AFNE01.JPG,AFNE01.JPG,AFNE01.JPG,AFNE01.JPG,AFNE01.JPG,AFNE01.JPG,,,,,,,,,,,,,,,,,3,8,38,3,,,,,,,AMNE13.jpg,AMNE01.jpg,AMSA05.jpg,AMSA06.jpg,AMNE01.jpg,MN,1,num_6,16,num_6,0.583453904488,,,2017_Apr_25_1316,60.0034834418,MAFE4ImagesEEG,001,200232,
AFNE01.JPG,AFNE01.JPG,AFNE01.JPG,AFNE01.JPG,AFNE01.JPG,AFNE01.JPG,,,,,,,,,,,,,,,,,3,9,39,5,,,,,,,AMNE13.jpg,AMSA15.jpg,AMNE02.jpg,AMSA16.jpg,AMNE13.jpg,MN,1,num_8,32,num_4,0.750121479854,,,2017_Apr_25_1316,60.0034834418,MAFE4ImagesEEG,001,200232,
AFNE01.JPG,AFNE01.JPG,AFNE01.JPG,AFNE01.JPG,AFNE01.JPG,AFNE01.JPG,,,,,,,,,,,,,,,,,4,0,40,4,,,,,,,AMSA19.jpg,AMNE01.jpg,AMNE15.jpg,AMSA08.jpg,AMNE15.jpg,MN,1,num_2,32,num_8,0.916807337548,,,2017_Apr_25_1316,60.0034834418,MAFE4ImagesEEG,001,200232,
AFNE01.JPG,AFNE01.JPG,AFNE01.JPG,AFNE01.JPG,AFNE01.JPG,AFNE01.JPG,,,,,,,,,,,,,,,,,4,1,41,2,,,,,,,AMNE11.jpg,AMNE09.jpg,AMSA03.jpg,AMSA02.jpg,AMNE11.jpg,MN,1,num_8,32,num_2,0.900131150265,,,2017_Apr_25_1316,60.0034834418,MAFE4ImagesEEG,001,200232,
AFNE01.JPG,AFNE01.JPG,AFNE01.JPG,AFNE01.JPG,AFNE01.JPG,AFNE01.JPG,,,,,,,,,,,,,,,,,4,2,42,5,,,,,,,AMSA12.jpg,AMNE14.jpg,AMNE13.jpg,AMSA01.jpg,AMSA12.jpg,MS,2,num_8,16,num_8,0.933778604725,,,2017_Apr_25_1316,60.0034834418,MAFE4ImagesEEG,001,200232,
AFNE01.JPG,AFNE01.JPG,AFNE01.JPG,AFNE01.JPG,AFNE01.JPG,AFNE01.JPG,,,,,,,,,,,,,,,,,4,3,43,6,,,,,,,AMSA18.jpg,AMSA05.jpg,AMNE07.jpg,AMNE09.jpg,AMSA05.jpg,MS,2,num_6,16,num_6,0.800151324715,,,2017_Apr_25_1316,60.0034834418,MAFE4ImagesEEG,001,200232,
AFNE01.JPG,AFNE01.JPG,AFNE01.JPG,AFNE01.JPG,AFNE01.JPG,AFNE01.JPG,,,,,,,,,,,,,,,,,4,4,44,0,,,,,,,AMNE10.jpg,AMSA07.jpg,AMSA14.jpg,AMNE19.jpg,AMNE10.jpg,MN,1,num_8,16,num_8,1.53310877318,,,2017_Apr_25_1316,60.0034834418,MAFE4ImagesEEG,001,200232,
AFNE01.JPG,AFNE01.JPG,AFNE01.JPG,AFNE01.JPG,AFNE01.JPG,AFNE01.JPG,,,,,,,,,,,,,,,,,4,5,45,1,,,,,,,AMNE11.jpg,AMNE10.jpg,AMSA19.jpg,AMSA17.jpg,AMNE10.jpg,MN,1,num_6,16,num_6,1.15007285599,,,2017_Apr_25_1316,60.0034834418,MAFE4ImagesEEG,001,200232,
AFNE01.JPG,AFNE01.JPG,AFNE01.JPG,AFNE01.JPG,AFNE01.JPG,AFNE01.JPG,,,,,,,,,,,,,,,,,4,6,46,3,,,,,,,AMNE13.jpg,AMSA19.jpg,AMSA02.jpg,AMNE07.jpg,AMSA19.jpg,MS,2,num_6,32,num_4,1.48339966743,,,2017_Apr_25_1316,60.0034834418,MAFE4ImagesEEG,001,200232,
AFNE01.JPG,AFNE01.JPG,AFNE01.JPG,AFNE01.JPG,AFNE01.JPG,AFNE01.JPG,,,,,,,,,,,,,,,,,4,7,47,7,,,,,,,AMSA17.jpg,AMNE19.jpg,AMSA04.jpg,AMNE07.jpg,AMNE07.jpg,MN,1,num_4,32,num_6,1.11664157955,,,2017_Apr_25_1316,60.0034834418,MAFE4ImagesEEG,001,200232,
AFNE01.JPG,AFNE01.JPG,AFNE01.JPG,AFNE01.JPG,AFNE01.JPG,AFNE01.JPG,,,,,,,,,,,,,,,,,4,8,48,9,,,,,,,AMNE13.jpg,AMSA13.jpg,AMSA12.jpg,AMNE08.jpg,AMSA12.jpg,MS,2,num_2,32,num_6,0.733491799794,,,2017_Apr_25_1316,60.0034834418,MAFE4ImagesEEG,001,200232,
AFNE01.JPG,AFNE01.JPG,AFNE01.JPG,AFNE01.JPG,AFNE01.JPG,AFNE01.JPG,,,,,,,,,,,,,,,,,4,9,49,8,,,,,,,AMSA05.jpg,AMSA07.jpg,AMNE19.jpg,AMNE05.jpg,AMNE19.jpg,MN,1,num_2,32,num_8,0.983464617166,,,2017_Apr_25_1316,60.0034834418,MAFE4ImagesEEG,001,200232,
AFNE01.JPG,AFNE01.JPG,AFNE01.JPG,AFNE01.JPG,AFNE01.JPG,AFNE01.JPG,,,,,,,,,,,,,,,,,5,0,50,6,,,,,,,AMSA19.jpg,AMSA05.jpg,AMNE13.jpg,AMNE05.jpg,AMSA05.jpg,MS,2,num_6,16,num_6,1.10049878142,,,2017_Apr_25_1316,60.0034834418,MAFE4ImagesEEG,001,200232,
AFNE01.JPG,AFNE01.JPG,AFNE01.JPG,AFNE01.JPG,AFNE01.JPG,AFNE01.JPG,,,,,,,,,,,,,,,,,5,1,51,2,,,,,,,AMNE12.jpg,AMSA17.jpg,AMSA02.jpg,AMNE09.jpg,AMNE09.jpg,MN,1,num_4,32,num_6,0.933444715338,,,2017_Apr_25_1316,60.0034834418,MAFE4ImagesEEG,001,200232,
AFNE01.JPG,AFNE01.JPG,AFNE01.JPG,AFNE01.JPG,AFNE01.JPG,AFNE01.JPG,,,,,,,,,,,,,,,,,5,2,52,7,,,,,,,AMNE10.jpg,AMNE09.jpg,AMSA09.jpg,AMSA08.jpg,AMSA09.jpg,MS,2,num_2,16,num_2,1.53338332579,,,2017_Apr_25_1316,60.0034834418,MAFE4ImagesEEG,001,200232,
AFNE01.JPG,AFNE01.JPG,AFNE01.JPG,AFNE01.JPG,AFNE01.JPG,AFNE01.JPG,,,,,,,,,,,,,,,,,5,3,53,3,,,,,,,AMNE09.jpg,AMSA09.jpg,AMNE16.jpg,AMSA15.jpg,AMNE16.jpg,MN,1,num_2,32,num_6,0.983310341719,,,2017_Apr_25_1316,60.0034834418,MAFE4ImagesEEG,001,200232,
AFNE01.JPG,AFNE01.JPG,AFNE01.JPG,AFNE01.JPG,AFNE01.JPG,AFNE01.JPG,,,,,,,,,,,,,,,,,5,4,54,0,,,,,,,AMNE13.jpg,AMNE08.jpg,AMSA12.jpg,AMSA17.jpg,AMNE13.jpg,MN,1,num_8,16,num_8,0.616863691364,,,2017_Apr_25_1316,60.0034834418,MAFE4ImagesEEG,001,200232,
AFNE01.JPG,AFNE01.JPG,AFNE01.JPG,AFNE01.JPG,AFNE01.JPG,AFNE01.JPG,,,,,,,,,,,,,,,,,5,5,55,8,,,,,,,AMNE03.jpg,AMSA04.jpg,AMNE06.jpg,AMSA14.jpg,AMSA14.jpg,MS,2,num_4,16,num_4,0.666516026249,,,2017_Apr_25_1316,60.0034834418,MAFE4ImagesEEG,001,200232,
AFNE01.JPG,AFNE01.JPG,AFNE01.JPG,AFNE01.JPG,AFNE01.JPG,AFNE01.JPG,,,,,,,,,,,,,,,,,5,6,56,4,,,,,,,AMNE03.jpg,AMNE07.jpg,AMSA13.jpg,AMSA16.jpg,AMSA16.jpg,MS,2,num_4,16,num_4,0.816753100604,,,2017_Apr_25_1316,60.0034834418,MAFE4ImagesEEG,001,200232,
AFNE01.JPG,AFNE01.JPG,AFNE01.JPG,AFNE01.JPG,AFNE01.JPG,AFNE01.JPG,,,,,,,,,,,,,,,,,5,7,57,5,,,,,,,AMNE17.jpg,AMNE11.jpg,AMSA14.jpg,AMSA16.jpg,AMNE11.jpg,MN,1,num_6,16,num_6,1.0834223117,,,2017_Apr_25_1316,60.0034834418,MAFE4ImagesEEG,001,200232,
AFNE01.JPG,AFNE01.JPG,AFNE01.JPG,AFNE01.JPG,AFNE01.JPG,AFNE01.JPG,,,,,,,,,,,,,,,,,5,8,58,9,,,,,,,AMSA20.jpg,AMNE15.jpg,AMNE14.jpg,AMSA03.jpg,AMNE15.jpg,MN,1,num_6,16,num_6,0.71678225568,,,2017_Apr_25_1316,60.0034834418,MAFE4ImagesEEG,001,200232,
AFNE01.JPG,AFNE01.JPG,AFNE01.JPG,AFNE01.JPG,AFNE01.JPG,AFNE01.JPG,,,,,,,,,,,,,,,,,5,9,59,1,,,,,,,AMSA08.jpg,AMSA06.jpg,AMNE01.jpg,AMNE18.jpg,AMSA06.jpg,MS,2,num_6,32,num_4,1.21671955124,,,2017_Apr_25_1316,60.0034834418,MAFE4ImagesEEG,001,200232,
,,,,,,,,,,,,,,,,,,,,,,,,,,,,,,,,,,,,,,,,,,,space,13.8823798456,2017_Apr_25_1316,60.0034834418,MAFE4ImagesEEG,001,200232,
AFNE01.JPG,AFNE01.JPG,AFNE01.JPG,AFNE01.JPG,AFNE01.JPG,AFNE01.JPG,,,,,,,,,,,,,,,,,,,,,0,0,0,5,,,AFSA11.jpg,AFSA19.jpg,AFNE02.jpg,AFNE07.jpg,AFNE02.jpg,FN,3,num_2,32,num_8,3.83325063612,,,2017_Apr_25_1316,60.0034834418,MAFE4ImagesEEG,001,200232,
AFNE01.JPG,AFNE01.JPG,AFNE01.JPG,AFNE01.JPG,AFNE01.JPG,AFNE01.JPG,,,,,,,,,,,,,,,,,,,,,0,1,1,3,,,AFNE12.jpg,AFNE16.jpg,AFSA09.jpg,AFSA07.jpg,AFNE16.jpg,FN,3,num_6,16,num_6,1.01672173222,,,2017_Apr_25_1316,60.0034834418,MAFE4ImagesEEG,001,200232,
AFNE01.JPG,AFNE01.JPG,AFNE01.JPG,AFNE01.JPG,AFNE01.JPG,AFNE01.JPG,,,,,,,,,,,,,,,,,,,,,0,2,2,8,,,AFSA02.jpg,AFSA20.jpg,AFNE16.jpg,AFNE20.jpg,AFSA20.jpg,FS,4,num_6,16,num_6,1.23326808435,,,2017_Apr_25_1316,60.0034834418,MAFE4ImagesEEG,001,200232,
AFNE01.JPG,AFNE01.JPG,AFNE01.JPG,AFNE01.JPG,AFNE01.JPG,AFNE01.JPG,,,,,,,,,,,,,,,,,,,,,0,3,3,0,,,AFSA09.jpg,AFNE10.jpg,AFNE13.jpg,AFSA13.jpg,AFSA09.jpg,FS,4,num_8,16,num_8,0.883459453238,,,2017_Apr_25_1316,60.0034834418,MAFE4ImagesEEG,001,200232,
AFNE01.JPG,AFNE01.JPG,AFNE01.JPG,AFNE01.JPG,AFNE01.JPG,AFNE01.JPG,,,,,,,,,,,,,,,,,,,,,0,4,4,1,,,AFNE07.jpg,AFNE11.jpg,AFSA15.jpg,AFSA20.jpg,AFSA15.jpg,FS,4,num_2,16,num_2,1.9334087926,,,2017_Apr_25_1316,60.0034834418,MAFE4ImagesEEG,001,200232,
AFNE01.JPG,AFNE01.JPG,AFNE01.JPG,AFNE01.JPG,AFNE01.JPG,AFNE01.JPG,,,,,,,,,,,,,,,,,,,,,0,5,5,2,,,AFSA12.jpg,AFSA07.jpg,AFNE18.jpg,AFNE17.jpg,AFSA07.jpg,FS,4,num_6,32,num_8,0.80009006348,,,2017_Apr_25_1316,60.0034834418,MAFE4ImagesEEG,001,200232,
AFNE01.JPG,AFNE01.JPG,AFNE01.JPG,AFNE01.JPG,AFNE01.JPG,AFNE01.JPG,,,,,,,,,,,,,,,,,,,,,0,6,6,9,,,AFNE13.jpg,AFSA02.jpg,AFNE18.jpg,AFSA17.jpg,AFSA17.jpg,FS,4,num_4,32,num_6,0.866733872215,,,2017_Apr_25_1316,60.0034834418,MAFE4ImagesEEG,001,200232,
AFNE01.JPG,AFNE01.JPG,AFNE01.JPG,AFNE01.JPG,AFNE01.JPG,AFNE01.JPG,,,,,,,,,,,,,,,,,,,,,0,7,7,7,,,AFNE11.jpg,AFSA10.jpg,AFNE06.jpg,AFSA03.jpg,AFNE11.jpg,FN,3,num_8,16,num_8,0.683357714792,,,2017_Apr_25_1316,60.0034834418,MAFE4ImagesEEG,001,200232,
AFNE01.JPG,AFNE01.JPG,AFNE01.JPG,AFNE01.JPG,AFNE01.JPG,AFNE01.JPG,,,,,,,,,,,,,,,,,,,,,0,8,8,6,,,AFSA13.jpg,AFNE03.jpg,AFNE11.jpg,AFSA14.jpg,AFNE03.jpg,FN,3,num_6,16,num_6,0.733454594039,,,2017_Apr_25_1316,60.0034834418,MAFE4ImagesEEG,001,200232,
AFNE01.JPG,AFNE01.JPG,AFNE01.JPG,AFNE01.JPG,AFNE01.JPG,AFNE01.JPG,,,,,,,,,,,,,,,,,,,,,0,9,9,4,,,AFSA05.jpg,AFNE03.jpg,AFSA15.jpg,AFNE06.jpg,AFSA15.jpg,FS,4,num_2,32,num_4,0.716952888877,,,2017_Apr_25_1316,60.0034834418,MAFE4ImagesEEG,001,200232,
AFNE01.JPG,AFNE01.JPG,AFNE01.JPG,AFNE01.JPG,AFNE01.JPG,AFNE01.JPG,,,,,,,,,,,,,,,,,,,,,1,0,10,7,,,AFSA14.jpg,AFNE08.jpg,AFSA10.jpg,AFNE20.jpg,AFSA10.jpg,FS,4,num_2,16,num_2,1.1501437393,,,2017_Apr_25_1316,60.0034834418,MAFE4ImagesEEG,001,200232,
AFNE01.JPG,AFNE01.JPG,AFNE01.JPG,AFNE01.JPG,AFNE01.JPG,AFNE01.JPG,,,,,,,,,,,,,,,,,,,,,1,1,11,4,,,AFNE07.jpg,AFSA05.jpg,AFSA10.jpg,AFNE01.jpg,AFNE01.jpg,FN,3,num_4,32,num_8,1.4500681411,,,2017_Apr_25_1316,60.0034834418,MAFE4ImagesEEG,001,200232,
AFNE01.JPG,AFNE01.JPG,AFNE01.JPG,AFNE01.JPG,AFNE01.JPG,AFNE01.JPG,,,,,,,,,,,,,,,,,,,,,1,2,12,6,,,AFNE03.jpg,AFSA18.jpg,AFSA01.jpg,AFNE13.jpg,AFNE03.jpg,FN,3,num_8,32,num_6,1.41639021621,,,2017_Apr_25_1316,60.0034834418,MAFE4ImagesEEG,001,200232,
AFNE01.JPG,AFNE01.JPG,AFNE01.JPG,AFNE01.JPG,AFNE01.JPG,AFNE01.JPG,,,,,,,,,,,,,,,,,,,,,1,3,13,8,,,AFSA10.jpg,AFSA05.jpg,AFNE14.jpg,AFNE13.jpg,AFNE13.jpg,FN,3,num_4,32,num_8,1.01685163158,,,2017_Apr_25_1316,60.0034834418,MAFE4ImagesEEG,001,200232,
AFNE01.JPG,AFNE01.JPG,AFNE01.JPG,AFNE01.JPG,AFNE01.JPG,AFNE01.JPG,,,,,,,,,,,,,,,,,,,,,1,4,14,9,,,AFNE09.jpg,AFNE07.jpg,AFSA09.jpg,AFSA01.jpg,AFNE07.jpg,FN,3,num_6,16,num_6,0.81671236665,,,2017_Apr_25_1316,60.0034834418,MAFE4ImagesEEG,001,200232,
AFNE01.JPG,AFNE01.JPG,AFNE01.JPG,AFNE01.JPG,AFNE01.JPG,AFNE01.JPG,,,,,,,,,,,,,,,,,,,,,1,5,15,2,,,AFNE18.jpg,AFSA02.jpg,AFSA16.jpg,AFNE10.jpg,AFSA02.jpg,FS,4,num_6,16,num_6,1.05009495479,,,2017_Apr_25_1316,60.0034834418,MAFE4ImagesEEG,001,200232,
AFNE01.JPG,AFNE01.JPG,AFNE01.JPG,AFNE01.JPG,AFNE01.JPG,AFNE01.JPG,,,,,,,,,,,,,,,,,,,,,1,6,16,3,,,AFNE10.jpg,AFSA03.jpg,AFNE16.jpg,AFSA01.jpg,AFSA03.jpg,FS,4,num_6,16,num_6,0.800120213069,,,2017_Apr_25_1316,60.0034834418,MAFE4ImagesEEG,001,200232,
AFNE01.JPG,AFNE01.JPG,AFNE01.JPG,AFNE01.JPG,AFNE01.JPG,AFNE01.JPG,,,,,,,,,,,,,,,,,,,,,1,7,17,5,,,AFNE16.jpg,AFNE13.jpg,AFSA15.jpg,AFSA02.jpg,AFNE13.jpg,FN,3,num_6,32,num_8,0.96672171622,,,2017_Apr_25_1316,60.0034834418,MAFE4ImagesEEG,001,200232,
AFNE01.JPG,AFNE01.JPG,AFNE01.JPG,AFNE01.JPG,AFNE01.JPG,AFNE01.JPG,,,,,,,,,,,,,,,,,,,,,1,8,18,1,,,AFSA14.jpg,AFNE19.jpg,AFSA05.jpg,AFNE10.jpg,AFSA05.jpg,FS,4,num_2,16,num_2,1.10017996666,,,2017_Apr_25_1316,60.0034834418,MAFE4ImagesEEG,001,200232,
AFNE01.JPG,AFNE01.JPG,AFNE01.JPG,AFNE01.JPG,AFNE01.JPG,AFNE01.JPG,,,,,,,,,,,,,,,,,,,,,1,9,19,0,,,AFNE14.jpg,AFNE19.jpg,AFSA01.jpg,AFSA04.jpg,AFSA01.jpg,FS,4,num_2,16,num_2,1.10008855606,,,2017_Apr_25_1316,60.0034834418,MAFE4ImagesEEG,001,200232,
AFNE01.JPG,AFNE01.JPG,AFNE01.JPG,AFNE01.JPG,AFNE01.JPG,AFNE01.JPG,,,,,,,,,,,,,,,,,,,,,2,0,20,5,,,AFNE14.jpg,AFSA10.jpg,AFSA16.jpg,AFNE07.jpg,AFNE14.jpg,FN,3,num_8,32,num_6,0.916769490228,,,2017_Apr_25_1316,60.0034834418,MAFE4ImagesEEG,001,200232,
AFNE01.JPG,AFNE01.JPG,AFNE01.JPG,AFNE01.JPG,AFNE01.JPG,AFNE01.JPG,,,,,,,,,,,,,,,,,,,,,2,1,21,9,,,AFSA12.jpg,AFSA08.jpg,AFNE14.jpg,AFNE08.jpg,AFSA12.jpg,FS,4,num_8,16,num_8,0.583476035506,,,2017_Apr_25_1316,60.0034834418,MAFE4ImagesEEG,001,200232,
AFNE01.JPG,AFNE01.JPG,AFNE01.JPG,AFNE01.JPG,AFNE01.JPG,AFNE01.JPG,,,,,,,,,,,,,,,,,,,,,2,2,22,1,,,AFSA18.jpg,AFSA07.jpg,AFNE12.jpg,AFNE02.jpg,AFNE12.jpg,FN,3,num_2,16,num_2,0.800111873774,,,2017_Apr_25_1316,60.0034834418,MAFE4ImagesEEG,001,200232,
AFNE01.JPG,AFNE01.JPG,AFNE01.JPG,AFNE01.JPG,AFNE01.JPG,AFNE01.JPG,,,,,,,,,,,,,,,,,,,,,2,3,23,0,,,AFNE15.jpg,AFNE05.jpg,AFSA09.jpg,AFSA15.jpg,AFNE15.jpg,FN,3,num_8,16,num_8,0.56674403965,,,2017_Apr_25_1316,60.0034834418,MAFE4ImagesEEG,001,200232,
AFNE01.JPG,AFNE01.JPG,AFNE01.JPG,AFNE01.JPG,AFNE01.JPG,AFNE01.JPG,,,,,,,,,,,,,,,,,,,,,2,4,24,6,,,AFSA13.jpg,AFNE16.jpg,AFSA03.jpg,AFNE05.jpg,AFSA13.jpg,FS,4,num_8,32,num_2,0.933449847158,,,2017_Apr_25_1316,60.0034834418,MAFE4ImagesEEG,001,200232,
AFNE01.JPG,AFNE01.JPG,AFNE01.JPG,AFNE01.JPG,AFNE01.JPG,AFNE01.JPG,,,,,,,,,,,,,,,,,,,,,2,5,25,3,,,AFSA13.jpg,AFSA02.jpg,AFNE16.jpg,AFNE10.jpg,AFNE16.jpg,FN,3,num_2,16,num_2,0.766765272594,,,2017_Apr_25_1316,60.0034834418,MAFE4ImagesEEG,001,200232,
AFNE01.JPG,AFNE01.JPG,AFNE01.JPG,AFNE01.JPG,AFNE01.JPG,AFNE01.JPG,,,,,,,,,,,,,,,,,,,,,2,6,26,7,,,AFSA10.jpg,AFSA13.jpg,AFNE09.jpg,AFNE13.jpg,AFSA13.jpg,FS,4,num_6,16,num_6,0.900080152787,,,2017_Apr_25_1316,60.0034834418,MAFE4ImagesEEG,001,200232,
AFNE01.JPG,AFNE01.JPG,AFNE01.JPG,AFNE01.JPG,AFNE01.JPG,AFNE01.JPG,,,,,,,,,,,,,,,,,,,,,2,7,27,2,,,AFNE19.jpg,AFNE09.jpg,AFSA13.jpg,AFSA05.jpg,AFSA13.jpg,FS,4,num_2,16,num_2,0.633525766083,,,2017_Apr_25_1316,60.0034834418,MAFE4ImagesEEG,001,200232,
AFNE01.JPG,AFNE01.JPG,AFNE01.JPG,AFNE01.JPG,AFNE01.JPG,AFNE01.JPG,,,,,,,,,,,,,,,,,,,,,2,8,28,4,,,AFNE11.jpg,AFSA13.jpg,AFNE17.jpg,AFSA16.jpg,AFNE11.jpg,FN,3,num_8,32,num_2,1.13344125135,,,2017_Apr_25_1316,60.0034834418,MAFE4ImagesEEG,001,200232,
AFNE01.JPG,AFNE01.JPG,AFNE01.JPG,AFNE01.JPG,AFNE01.JPG,AFNE01.JPG,,,,,,,,,,,,,,,,,,,,,2,9,29,8,,,AFSA15.jpg,AFSA09.jpg,AFNE12.jpg,AFNE18.jpg,AFNE12.jpg,FN,3,num_2,16,num_2,0.933500523912,,,2017_Apr_25_1316,60.0034834418,MAFE4ImagesEEG,001,200232,
AFNE01.JPG,AFNE01.JPG,AFNE01.JPG,AFNE01.JPG,AFNE01.JPG,AFNE01.JPG,,,,,,,,,,,,,,,,,,,,,3,0,30,1,,,AFSA06.jpg,AFNE03.jpg,AFSA11.jpg,AFNE06.jpg,AFSA06.jpg,FS,4,num_8,32,num_4,1.41672506789,,,2017_Apr_25_1316,60.0034834418,MAFE4ImagesEEG,001,200232,
AFNE01.JPG,AFNE01.JPG,AFNE01.JPG,AFNE01.JPG,AFNE01.JPG,AFNE01.JPG,,,,,,,,,,,,,,,,,,,,,3,1,31,7,,,AFSA11.jpg,AFNE09.jpg,AFSA20.jpg,AFNE10.jpg,AFSA11.jpg,FS,4,num_8,16,num_8,1.13338063168,,,2017_Apr_25_1316,60.0034834418,MAFE4ImagesEEG,001,200232,
AFNE01.JPG,AFNE01.JPG,AFNE01.JPG,AFNE01.JPG,AFNE01.JPG,AFNE01.JPG,,,,,,,,,,,,,,,,,,,,,3,2,32,6,,,AFSA10.jpg,AFSA19.jpg,AFNE05.jpg,AFNE09.jpg,AFNE09.jpg,FN,3,num_4,16,num_4,1.06669384404,,,2017_Apr_25_1316,60.0034834418,MAFE4ImagesEEG,001,200232,
AFNE01.JPG,AFNE01.JPG,AFNE01.JPG,AFNE01.JPG,AFNE01.JPG,AFNE01.JPG,,,,,,,,,,,,,,,,,,,,,3,3,33,9,,,AFNE10.jpg,AFSA15.jpg,AFSA10.jpg,AFNE16.jpg,AFSA15.jpg,FS,4,num_6,16,num_6,0.666774541955,,,2017_Apr_25_1316,60.0034834418,MAFE4ImagesEEG,001,200232,
AFNE01.JPG,AFNE01.JPG,AFNE01.JPG,AFNE01.JPG,AFNE01.JPG,AFNE01.JPG,,,,,,,,,,,,,,,,,,,,,3,4,34,4,,,AFNE01.jpg,AFNE02.jpg,AFSA08.jpg,AFSA17.jpg,AFSA08.jpg,FS,4,num_2,32,num_6,0.716778727598,,,2017_Apr_25_1316,60.0034834418,MAFE4ImagesEEG,001,200232,
AFNE01.JPG,AFNE01.JPG,AFNE01.JPG,AFNE01.JPG,AFNE01.JPG,AFNE01.JPG,,,,,,,,,,,,,,,,,,,,,3,5,35,5,,,AFSA17.jpg,AFNE14.jpg,AFNE18.jpg,AFSA15.jpg,AFSA15.jpg,FS,4,num_4,32,num_8,0.900241805241,,,2017_Apr_25_1316,60.0034834418,MAFE4ImagesEEG,001,200232,
AFNE01.JPG,AFNE01.JPG,AFNE01.JPG,AFNE01.JPG,AFNE01.JPG,AFNE01.JPG,,,,,,,,,,,,,,,,,,,,,3,6,36,2,,,AFSA14.jpg,AFNE06.jpg,AFNE03.jpg,AFSA18.jpg,AFNE03.jpg,FN,3,num_2,32,num_4,0.933538050391,,,2017_Apr_25_1316,60.0034834418,MAFE4ImagesEEG,001,200232,
AFNE01.JPG,AFNE01.JPG,AFNE01.JPG,AFNE01.JPG,AFNE01.JPG,AFNE01.JPG,,,,,,,,,,,,,,,,,,,,,3,7,37,3,,,AFSA16.jpg,AFSA19.jpg,AFNE14.jpg,AFNE04.jpg,AFSA16.jpg,FS,4,num_8,16,num_8,0.733475442161,,,2017_Apr_25_1316,60.0034834418,MAFE4ImagesEEG,001,200232,
AFNE01.JPG,AFNE01.JPG,AFNE01.JPG,AFNE01.JPG,AFNE01.JPG,AFNE01.JPG,,,,,,,,,,,,,,,,,,,,,3,8,38,8,,,AFSA01.jpg,AFNE17.jpg,AFSA04.jpg,AFNE15.jpg,AFNE15.jpg,FN,3,num_4,16,num_4,0.750130781322,,,2017_Apr_25_1316,60.0034834418,MAFE4ImagesEEG,001,200232,
