IPosition2,IPosition3,IPosition1,IPosition6,IPosition4,IPosition5,TrialsF1.thisRepN,TrialsF1.thisTrialN,TrialsF1.thisN,TrialsF1.thisIndex,TrialsM1.thisRepN,TrialsM1.thisTrialN,TrialsM1.thisN,TrialsM1.thisIndex,TrialsF2.thisRepN,TrialsF2.thisTrialN,TrialsF2.thisN,TrialsF2.thisIndex,TrialsM2.thisRepN,TrialsM2.thisTrialN,TrialsM2.thisN,TrialsM2.thisIndex,TrialsF3.thisRepN,TrialsF3.thisTrialN,TrialsF3.thisN,TrialsF3.thisIndex,TrialsM3.thisRepN,TrialsM3.thisTrialN,TrialsM3.thisN,TrialsM3.thisIndex,InstrKey_resp.keys,InstrKey_resp.rt,Image0 _Position,Image1 _Position,Image2 _Position,Image3 _Position,Center_image,condition,code,correct_answer,accuracy,Key_Resp.keys,Key_Resp.rt,BreakKey_resp.keys,BreakKey_resp.rt,date,frameRate,expName,session,participant,
,,,,,,,,,,,,,,,,,,,,,,,,,,,,,,space,18.0990653983,,,,,,,,,,,,,,2017_May_05_1648,60.0063705595,FEMA4ImagesEEG,001,200214,
AMNE22.JPG,AMSA24.JPG,AMSA22.JPG,AMNE25.JPG,AMNE24.JPG,AMSA25.JPG,0,0,0,7,,,,,,,,,,,,,,,,,,,,,,,AFNE06.jpg,AFSA11.jpg,AFSA17.jpg,AFNE17.jpg,AFNE06.jpg,FN,3,num_8,32,num_4,0.816791268531,,,2017_May_05_1648,60.0063705595,FEMA4ImagesEEG,001,200214,
AFSA25.JPG,AFNE24.JPG,AFSA24.JPG,AFNE21.JPG,AFSA21.JPG,AFNE25.JPG,0,1,1,2,,,,,,,,,,,,,,,,,,,,,,,AFSA19.jpg,AFNE10.jpg,AFSA01.jpg,AFNE12.jpg,AFNE10.jpg,FN,3,num_6,32,num_8,0.616779336939,,,2017_May_05_1648,60.0063705595,FEMA4ImagesEEG,001,200214,
AMSA21.JPG,AMNE23.JPG,AMNE21.JPG,AMSA25.JPG,AMNE25.JPG,AMSA23.JPG,0,2,2,5,,,,,,,,,,,,,,,,,,,,,,,AFNE16.jpg,AFSA19.jpg,AFNE10.jpg,AFSA16.jpg,AFNE16.jpg,FN,3,num_8,16,num_8,0.683447201038,,,2017_May_05_1648,60.0063705595,FEMA4ImagesEEG,001,200214,
AFSA21.JPG,AFNE22.JPG,AFNE21.JPG,AFSA23.JPG,AFSA22.JPG,AFNE23.JPG,0,3,3,0,,,,,,,,,,,,,,,,,,,,,,,AFNE06.jpg,AFSA12.jpg,AFSA15.jpg,AFNE16.jpg,AFSA15.jpg,FS,4,num_2,32,num_8,0.666779994266,,,2017_May_05_1648,60.0063705595,FEMA4ImagesEEG,001,200214,
AMNE23.JPG,AMNE24.JPG,AMNE22.JPG,AMSA24.JPG,AMSA22.JPG,AMSA23.JPG,0,4,4,9,,,,,,,,,,,,,,,,,,,,,,,AFNE17.jpg,AFSA06.jpg,AFSA09.jpg,AFNE09.jpg,AFNE09.jpg,FN,3,num_4,32,num_8,3.54990010592,,,2017_May_05_1648,60.0063705595,FEMA4ImagesEEG,001,200214,
AFSA21.JPG,AFNE23.JPG,AFNE21.JPG,AFSA25.JPG,AFNE25.JPG,AFSA23.JPG,0,5,5,4,,,,,,,,,,,,,,,,,,,,,,,AFSA02.jpg,AFNE16.jpg,AFNE14.jpg,AFSA20.jpg,AFNE16.jpg,FN,3,num_6,32,num_8,3.29960366269,,,2017_May_05_1648,60.0063705595,FEMA4ImagesEEG,001,200214,
AMSA25.JPG,AMNE24.JPG,AMSA24.JPG,AMNE26.JPG,AMSA21.JPG,AMNE25.JPG,0,6,6,3,,,,,,,,,,,,,,,,,,,,,,,AFSA17.jpg,AFNE15.jpg,AFNE07.jpg,AFSA11.jpg,AFSA17.jpg,FS,4,num_8,32,num_2,0.98348642746,,,2017_May_05_1648,60.0063705595,FEMA4ImagesEEG,001,200214,
AFNE23.JPG,AFNE24.JPG,AFNE22.JPG,AFSA24.JPG,AFSA22.JPG,AFSA23.JPG,0,7,7,8,,,,,,,,,,,,,,,,,,,,,,,AFSA10.jpg,AFSA20.jpg,AFNE02.jpg,AFNE04.jpg,AFSA20.jpg,FS,4,num_6,32,num_4,0.733345222194,,,2017_May_05_1648,60.0063705595,FEMA4ImagesEEG,001,200214,
AFNE22.JPG,AFSA24.JPG,AFSA22.JPG,AFNE25.JPG,AFNE24.JPG,AFSA25.JPG,0,8,8,6,,,,,,,,,,,,,,,,,,,,,,,AFSA07.jpg,AFSA13.jpg,AFNE16.jpg,AFNE03.jpg,AFSA13.jpg,FS,4,num_6,32,num_8,3.68354470585,,,2017_May_05_1648,60.0063705595,FEMA4ImagesEEG,001,200214,
AMSA21.JPG,AMNE22.JPG,AMNE21.JPG,AMSA23.JPG,AMSA22.JPG,AMNE23.JPG,0,9,9,1,,,,,,,,,,,,,,,,,,,,,,,AFSA19.jpg,AFNE05.jpg,AFNE06.jpg,AFSA20.jpg,AFNE06.jpg,FN,3,num_2,16,num_2,1.20010398375,,,2017_May_05_1648,60.0063705595,FEMA4ImagesEEG,001,200214,
AMSA25.JPG,AMNE24.JPG,AMSA24.JPG,AMNE26.JPG,AMSA21.JPG,AMNE25.JPG,,,,,0,0,0,3,,,,,,,,,,,,,,,,,,,AMSA08.jpg,AMSA14.jpg,AMNE16.jpg,AMNE15.jpg,AMSA08.jpg,MS,2,num_8,32,num_2,0.80016094679,,,2017_May_05_1648,60.0063705595,FEMA4ImagesEEG,001,200214,
AMNE23.JPG,AMNE24.JPG,AMNE22.JPG,AMSA24.JPG,AMSA22.JPG,AMSA23.JPG,,,,,0,1,1,9,,,,,,,,,,,,,,,,,,,AMSA08.jpg,AMNE06.jpg,AMSA09.jpg,AMNE14.jpg,AMSA08.jpg,MS,2,num_8,32,num_4,1.533394231,,,2017_May_05_1648,60.0063705595,FEMA4ImagesEEG,001,200214,
AFSA21.JPG,AFNE23.JPG,AFNE21.JPG,AFSA25.JPG,AFNE25.JPG,AFSA23.JPG,,,,,0,2,2,4,,,,,,,,,,,,,,,,,,,AMNE10.jpg,AMSA15.jpg,AMNE09.jpg,AMSA08.jpg,AMNE09.jpg,MN,1,num_2,16,num_2,0.78349085385,,,2017_May_05_1648,60.0063705595,FEMA4ImagesEEG,001,200214,
AFSA25.JPG,AFNE24.JPG,AFSA24.JPG,AFNE21.JPG,AFSA21.JPG,AFNE25.JPG,,,,,0,3,3,2,,,,,,,,,,,,,,,,,,,AMNE17.jpg,AMNE12.jpg,AMSA18.jpg,AMSA12.jpg,AMNE17.jpg,MN,1,num_8,16,num_8,2.03336039302,,,2017_May_05_1648,60.0063705595,FEMA4ImagesEEG,001,200214,
AMSA21.JPG,AMNE23.JPG,AMNE21.JPG,AMSA25.JPG,AMNE25.JPG,AMSA23.JPG,,,,,0,4,4,5,,,,,,,,,,,,,,,,,,,AMSA12.jpg,AMNE10.jpg,AMSA19.jpg,AMNE03.jpg,AMSA12.jpg,MS,2,num_8,32,num_6,1.78335678484,,,2017_May_05_1648,60.0063705595,FEMA4ImagesEEG,001,200214,
AFSA21.JPG,AFNE22.JPG,AFNE21.JPG,AFSA23.JPG,AFSA22.JPG,AFNE23.JPG,,,,,0,5,5,0,,,,,,,,,,,,,,,,,,,AMSA15.jpg,AMNE09.jpg,AMNE06.jpg,AMSA14.jpg,AMNE06.jpg,MN,1,num_2,32,num_8,0.766788686626,,,2017_May_05_1648,60.0063705595,FEMA4ImagesEEG,001,200214,
AFNE22.JPG,AFSA24.JPG,AFSA22.JPG,AFNE25.JPG,AFNE24.JPG,AFSA25.JPG,,,,,0,6,6,6,,,,,,,,,,,,,,,,,,,AMSA05.jpg,AMSA03.jpg,AMNE12.jpg,AMNE03.jpg,AMSA03.jpg,MS,2,num_6,32,num_8,3.56652176729,,,2017_May_05_1648,60.0063705595,FEMA4ImagesEEG,001,200214,
AFNE23.JPG,AFNE24.JPG,AFNE22.JPG,AFSA24.JPG,AFSA22.JPG,AFSA23.JPG,,,,,0,7,7,8,,,,,,,,,,,,,,,,,,,AMSA01.jpg,AMNE01.jpg,AMNE14.jpg,AMSA06.jpg,AMNE14.jpg,MN,1,num_2,32,num_4,1.10009785765,,,2017_May_05_1648,60.0063705595,FEMA4ImagesEEG,001,200214,
AMSA21.JPG,AMNE22.JPG,AMNE21.JPG,AMSA23.JPG,AMSA22.JPG,AMNE23.JPG,,,,,0,8,8,1,,,,,,,,,,,,,,,,,,,AMSA15.jpg,AMNE12.jpg,AMNE01.jpg,AMSA11.jpg,AMSA15.jpg,MS,2,num_8,16,num_8,0.983499577735,,,2017_May_05_1648,60.0063705595,FEMA4ImagesEEG,001,200214,
AMNE22.JPG,AMSA24.JPG,AMSA22.JPG,AMNE25.JPG,AMNE24.JPG,AMSA25.JPG,,,,,0,9,9,7,,,,,,,,,,,,,,,,,,,AMSA16.jpg,AMSA10.jpg,AMNE09.jpg,AMNE16.jpg,AMNE16.jpg,MN,1,num_4,32,num_6,0.550140339416,,,2017_May_05_1648,60.0063705595,FEMA4ImagesEEG,001,200214,
AMSA25.JPG,AMNE24.JPG,AMSA24.JPG,AMNE26.JPG,AMSA21.JPG,AMNE25.JPG,,,,,,,,,0,0,0,3,,,,,,,,,,,,,,,AFNE09.jpg,AFNE01.jpg,AFSA06.jpg,AFSA08.jpg,AFNE09.jpg,FN,3,num_8,32,num_2,0.60015895823,,,2017_May_05_1648,60.0063705595,FEMA4ImagesEEG,001,200214,
AFNE22.JPG,AFSA24.JPG,AFSA22.JPG,AFNE25.JPG,AFNE24.JPG,AFSA25.JPG,,,,,,,,,0,1,1,6,,,,,,,,,,,,,,,AFSA06.jpg,AFNE01.jpg,AFNE08.jpg,AFSA16.jpg,AFNE01.jpg,FN,3,num_6,16,num_6,3.66652532783,,,2017_May_05_1648,60.0063705595,FEMA4ImagesEEG,001,200214,
AFNE23.JPG,AFNE24.JPG,AFNE22.JPG,AFSA24.JPG,AFSA22.JPG,AFSA23.JPG,,,,,,,,,0,2,2,8,,,,,,,,,,,,,,,AFNE16.jpg,AFSA19.jpg,AFSA14.jpg,AFNE19.jpg,AFNE16.jpg,FN,3,num_8,32,num_6,0.733461650321,,,2017_May_05_1648,60.0063705595,FEMA4ImagesEEG,001,200214,
AMNE23.JPG,AMNE24.JPG,AMNE22.JPG,AMSA24.JPG,AMSA22.JPG,AMSA23.JPG,,,,,,,,,0,3,3,9,,,,,,,,,,,,,,,AFNE03.jpg,AFSA06.jpg,AFSA20.jpg,AFNE09.jpg,AFNE09.jpg,FN,3,num_4,32,num_6,1.38340476737,,,2017_May_05_1648,60.0063705595,FEMA4ImagesEEG,001,200214,
AFSA21.JPG,AFNE22.JPG,AFNE21.JPG,AFSA23.JPG,AFSA22.JPG,AFNE23.JPG,,,,,,,,,0,4,4,0,,,,,,,,,,,,,,,AFSA19.jpg,AFSA16.jpg,AFNE09.jpg,AFNE04.jpg,AFSA19.jpg,FS,4,num_8,16,num_8,3.43332010834,,,2017_May_05_1648,60.0063705595,FEMA4ImagesEEG,001,200214,
AMSA21.JPG,AMNE23.JPG,AMNE21.JPG,AMSA25.JPG,AMNE25.JPG,AMSA23.JPG,,,,,,,,,0,5,5,5,,,,,,,,,,,,,,,AFSA08.jpg,AFSA18.jpg,AFNE06.jpg,AFNE16.jpg,AFNE16.jpg,FN,3,num_4,48,None,,,,2017_May_05_1648,60.0063705595,FEMA4ImagesEEG,001,200214,
AFSA25.JPG,AFNE24.JPG,AFSA24.JPG,AFNE21.JPG,AFSA21.JPG,AFNE25.JPG,,,,,,,,,0,6,6,2,,,,,,,,,,,,,,,AFSA16.jpg,AFNE10.jpg,AFNE17.jpg,AFSA06.jpg,AFSA16.jpg,FS,4,num_8,16,num_8,4.91678296123,,,2017_May_05_1648,60.0063705595,FEMA4ImagesEEG,001,200214,
AMNE22.JPG,AMSA24.JPG,AMSA22.JPG,AMNE25.JPG,AMNE24.JPG,AMSA25.JPG,,,,,,,,,0,7,7,7,,,,,,,,,,,,,,,AFSA13.jpg,AFNE04.jpg,AFNE07.jpg,AFSA18.jpg,AFSA18.jpg,FS,4,num_4,16,num_4,0.433544946136,,,2017_May_05_1648,60.0063705595,FEMA4ImagesEEG,001,200214,
AMSA21.JPG,AMNE22.JPG,AMNE21.JPG,AMSA23.JPG,AMSA22.JPG,AMNE23.JPG,,,,,,,,,0,8,8,1,,,,,,,,,,,,,,,AFNE08.jpg,AFSA16.jpg,AFNE06.jpg,AFSA02.jpg,AFNE06.jpg,FN,3,num_2,32,num_6,0.700116011314,,,2017_May_05_1648,60.0063705595,FEMA4ImagesEEG,001,200214,
AFSA21.JPG,AFNE23.JPG,AFNE21.JPG,AFSA25.JPG,AFNE25.JPG,AFSA23.JPG,,,,,,,,,0,9,9,4,,,,,,,,,,,,,,,AFNE04.jpg,AFNE18.jpg,AFSA19.jpg,AFSA18.jpg,AFSA19.jpg,FS,4,num_2,32,num_8,0.533483717358,,,2017_May_05_1648,60.0063705595,FEMA4ImagesEEG,001,200214,
AMNE23.JPG,AMNE24.JPG,AMNE22.JPG,AMSA24.JPG,AMSA22.JPG,AMSA23.JPG,,,,,,,,,,,,,0,0,0,9,,,,,,,,,,,AMNE10.jpg,AMSA13.jpg,AMSA05.jpg,AMNE09.jpg,AMNE09.jpg,MN,1,num_4,32,num_8,0.783308673883,,,2017_May_05_1648,60.0063705595,FEMA4ImagesEEG,001,200214,
AMSA25.JPG,AMNE24.JPG,AMSA24.JPG,AMNE26.JPG,AMSA21.JPG,AMNE25.JPG,,,,,,,,,,,,,0,1,1,3,,,,,,,,,,,AMSA17.jpg,AMSA01.jpg,AMNE05.jpg,AMNE10.jpg,AMSA17.jpg,MS,2,num_8,32,num_4,1.5000890051,,,2017_May_05_1648,60.0063705595,FEMA4ImagesEEG,001,200214,
AMNE22.JPG,AMSA24.JPG,AMSA22.JPG,AMNE25.JPG,AMNE24.JPG,AMSA25.JPG,,,,,,,,,,,,,0,2,2,7,,,,,,,,,,,AMSA10.jpg,AMNE13.jpg,AMNE05.jpg,AMSA19.jpg,AMSA10.jpg,MS,2,num_8,32,num_6,0.716789953411,,,2017_May_05_1648,60.0063705595,FEMA4ImagesEEG,001,200214,
AFSA21.JPG,AFNE23.JPG,AFNE21.JPG,AFSA25.JPG,AFNE25.JPG,AFSA23.JPG,,,,,,,,,,,,,0,3,3,4,,,,,,,,,,,AMNE15.jpg,AMSA02.jpg,AMSA16.jpg,AMNE02.jpg,AMNE02.jpg,MN,1,num_4,32,num_2,1.0001295784,,,2017_May_05_1648,60.0063705595,FEMA4ImagesEEG,001,200214,
AMSA21.JPG,AMNE22.JPG,AMNE21.JPG,AMSA23.JPG,AMSA22.JPG,AMNE23.JPG,,,,,,,,,,,,,0,4,4,1,,,,,,,,,,,AMSA09.jpg,AMSA13.jpg,AMNE16.jpg,AMNE06.jpg,AMNE06.jpg,MN,1,num_4,32,num_2,2.23310322431,,,2017_May_05_1648,60.0063705595,FEMA4ImagesEEG,001,200214,
AFSA25.JPG,AFNE24.JPG,AFSA24.JPG,AFNE21.JPG,AFSA21.JPG,AFNE25.JPG,,,,,,,,,,,,,0,5,5,2,,,,,,,,,,,AMNE12.jpg,AMSA14.jpg,AMSA08.jpg,AMNE17.jpg,AMSA08.jpg,MS,2,num_2,32,num_8,1.23342685006,,,2017_May_05_1648,60.0063705595,FEMA4ImagesEEG,001,200214,
AFSA21.JPG,AFNE22.JPG,AFNE21.JPG,AFSA23.JPG,AFSA22.JPG,AFNE23.JPG,,,,,,,,,,,,,0,6,6,0,,,,,,,,,,,AMNE11.jpg,AMSA19.jpg,AMNE13.jpg,AMSA09.jpg,AMNE11.jpg,MN,1,num_8,16,num_8,1.00008307141,,,2017_May_05_1648,60.0063705595,FEMA4ImagesEEG,001,200214,
AFNE23.JPG,AFNE24.JPG,AFNE22.JPG,AFSA24.JPG,AFSA22.JPG,AFSA23.JPG,,,,,,,,,,,,,0,7,7,8,,,,,,,,,,,AMSA09.jpg,AMNE18.jpg,AMNE08.jpg,AMSA10.jpg,AMSA10.jpg,MS,2,num_4,16,num_4,0.550100888358,,,2017_May_05_1648,60.0063705595,FEMA4ImagesEEG,001,200214,
AMSA21.JPG,AMNE23.JPG,AMNE21.JPG,AMSA25.JPG,AMNE25.JPG,AMSA23.JPG,,,,,,,,,,,,,0,8,8,5,,,,,,,,,,,AMSA12.jpg,AMNE09.jpg,AMNE03.jpg,AMSA14.jpg,AMSA12.jpg,MS,2,num_8,32,num_6,2.1664619816,,,2017_May_05_1648,60.0063705595,FEMA4ImagesEEG,001,200214,
AFNE22.JPG,AFSA24.JPG,AFSA22.JPG,AFNE25.JPG,AFNE24.JPG,AFSA25.JPG,,,,,,,,,,,,,0,9,9,6,,,,,,,,,,,AMNE12.jpg,AMSA11.jpg,AMSA05.jpg,AMNE19.jpg,AMNE12.jpg,MN,1,num_8,16,num_8,0.600152543513,,,2017_May_05_1648,60.0063705595,FEMA4ImagesEEG,001,200214,
AFNE23.JPG,AFNE24.JPG,AFNE22.JPG,AFSA24.JPG,AFSA22.JPG,AFSA23.JPG,,,,,,,,,,,,,,,,,0,0,0,8,,,,,,,AFNE03.jpg,AFNE19.jpg,AFSA05.jpg,AFSA15.jpg,AFSA15.jpg,FS,4,num_4,32,num_8,1.05008918163,,,2017_May_05_1648,60.0063705595,FEMA4ImagesEEG,001,200214,
AMSA21.JPG,AMNE22.JPG,AMNE21.JPG,AMSA23.JPG,AMSA22.JPG,AMNE23.JPG,,,,,,,,,,,,,,,,,0,1,1,1,,,,,,,AFSA01.jpg,AFNE11.jpg,AFNE17.jpg,AFSA05.jpg,AFNE11.jpg,FN,3,num_6,16,num_6,0.916756660677,,,2017_May_05_1648,60.0063705595,FEMA4ImagesEEG,001,200214,
AMSA25.JPG,AMNE24.JPG,AMSA24.JPG,AMNE26.JPG,AMSA21.JPG,AMNE25.JPG,,,,,,,,,,,,,,,,,0,2,2,3,,,,,,,AFSA07.jpg,AFNE15.jpg,AFSA06.jpg,AFNE12.jpg,AFNE15.jpg,FN,3,num_6,48,None,,,,2017_May_05_1648,60.0063705595,FEMA4ImagesEEG,001,200214,
AMNE22.JPG,AMSA24.JPG,AMSA22.JPG,AMNE25.JPG,AMNE24.JPG,AMSA25.JPG,,,,,,,,,,,,,,,,,0,3,3,7,,,,,,,AFNE10.jpg,AFSA17.jpg,AFSA09.jpg,AFNE08.jpg,AFNE08.jpg,FN,3,num_4,48,None,,,,2017_May_05_1648,60.0063705595,FEMA4ImagesEEG,001,200214,
AFSA21.JPG,AFNE23.JPG,AFNE21.JPG,AFSA25.JPG,AFNE25.JPG,AFSA23.JPG,,,,,,,,,,,,,,,,,0,4,4,4,,,,,,,AFNE18.jpg,AFSA13.jpg,AFSA14.jpg,AFNE11.jpg,AFNE18.jpg,FN,3,num_8,32,num_6,0.466810079757,,,2017_May_05_1648,60.0063705595,FEMA4ImagesEEG,001,200214,
AMSA21.JPG,AMNE23.JPG,AMNE21.JPG,AMSA25.JPG,AMNE25.JPG,AMSA23.JPG,,,,,,,,,,,,,,,,,0,5,5,5,,,,,,,AFSA04.jpg,AFNE11.jpg,AFSA01.jpg,AFNE02.jpg,AFSA04.jpg,FS,4,num_8,32,num_4,0.666812709766,,,2017_May_05_1648,60.0063705595,FEMA4ImagesEEG,001,200214,
AFSA21.JPG,AFNE22.JPG,AFNE21.JPG,AFSA23.JPG,AFSA22.JPG,AFNE23.JPG,,,,,,,,,,,,,,,,,0,6,6,0,,,,,,,AFNE03.jpg,AFNE07.jpg,AFSA04.jpg,AFSA19.jpg,AFNE07.jpg,FN,3,num_6,32,num_2,2.06698090537,,,2017_May_05_1648,60.0063705595,FEMA4ImagesEEG,001,200214,
AFSA25.JPG,AFNE24.JPG,AFSA24.JPG,AFNE21.JPG,AFSA21.JPG,AFNE25.JPG,,,,,,,,,,,,,,,,,0,7,7,2,,,,,,,AFSA05.jpg,AFSA14.jpg,AFNE04.jpg,AFNE09.jpg,AFNE09.jpg,FN,3,num_4,32,num_8,0.566672835499,,,2017_May_05_1648,60.0063705595,FEMA4ImagesEEG,001,200214,
AMNE23.JPG,AMNE24.JPG,AMNE22.JPG,AMSA24.JPG,AMSA22.JPG,AMSA23.JPG,,,,,,,,,,,,,,,,,0,8,8,9,,,,,,,AFSA05.jpg,AFNE07.jpg,AFNE08.jpg,AFSA01.jpg,AFNE07.jpg,FN,3,num_6,32,num_8,2.88332089409,,,2017_May_05_1648,60.0063705595,FEMA4ImagesEEG,001,200214,
AFNE22.JPG,AFSA24.JPG,AFSA22.JPG,AFNE25.JPG,AFNE24.JPG,AFSA25.JPG,,,,,,,,,,,,,,,,,0,9,9,6,,,,,,,AFNE03.jpg,AFSA15.jpg,AFSA13.jpg,AFNE15.jpg,AFSA13.jpg,FS,4,num_2,32,num_6,2.51661765249,,,2017_May_05_1648,60.0063705595,FEMA4ImagesEEG,001,200214,
AFNE23.JPG,AFNE24.JPG,AFNE22.JPG,AFSA24.JPG,AFSA22.JPG,AFSA23.JPG,,,,,,,,,,,,,,,,,,,,,0,0,0,8,,,AMNE19.jpg,AMNE18.jpg,AMSA19.jpg,AMSA17.jpg,AMSA17.jpg,MS,2,num_4,32,num_8,4.48318862123,,,2017_May_05_1648,60.0063705595,FEMA4ImagesEEG,001,200214,
AMNE23.JPG,AMNE24.JPG,AMNE22.JPG,AMSA24.JPG,AMSA22.JPG,AMSA23.JPG,,,,,,,,,,,,,,,,,,,,,0,1,1,9,,,AMNE14.jpg,AMNE07.jpg,AMSA09.jpg,AMSA12.jpg,AMSA12.jpg,MS,2,num_4,32,num_6,1.50007874146,,,2017_May_05_1648,60.0063705595,FEMA4ImagesEEG,001,200214,
AFSA21.JPG,AFNE23.JPG,AFNE21.JPG,AFSA25.JPG,AFNE25.JPG,AFSA23.JPG,,,,,,,,,,,,,,,,,,,,,0,2,2,4,,,AMSA16.jpg,AMSA17.jpg,AMNE20.jpg,AMNE08.jpg,AMSA17.jpg,MS,2,num_6,32,num_8,0.0168580464087,,,2017_May_05_1648,60.0063705595,FEMA4ImagesEEG,001,200214,
AFNE22.JPG,AFSA24.JPG,AFSA22.JPG,AFNE25.JPG,AFNE24.JPG,AFSA25.JPG,,,,,,,,,,,,,,,,,,,,,0,3,3,6,,,AMSA16.jpg,AMNE09.jpg,AMNE07.jpg,AMSA03.jpg,AMSA16.jpg,MS,2,num_8,16,num_8,2.48330761539,,,2017_May_05_1648,60.0063705595,FEMA4ImagesEEG,001,200214,
AFSA21.JPG,AFNE22.JPG,AFNE21.JPG,AFSA23.JPG,AFSA22.JPG,AFNE23.JPG,,,,,,,,,,,,,,,,,,,,,0,4,4,0,,,AMSA20.jpg,AMNE14.jpg,AMNE01.jpg,AMSA15.jpg,AMNE01.jpg,MN,1,num_2,32,num_4,0.550176582998,,,2017_May_05_1648,60.0063705595,FEMA4ImagesEEG,001,200214,
AMSA25.JPG,AMNE24.JPG,AMSA24.JPG,AMNE26.JPG,AMSA21.JPG,AMNE25.JPG,,,,,,,,,,,,,,,,,,,,,0,5,5,3,,,AMSA17.jpg,AMNE03.jpg,AMSA01.jpg,AMNE18.jpg,AMNE18.jpg,MN,1,num_4,32,num_6,0.550231429283,,,2017_May_05_1648,60.0063705595,FEMA4ImagesEEG,001,200214,
AMNE22.JPG,AMSA24.JPG,AMSA22.JPG,AMNE25.JPG,AMNE24.JPG,AMSA25.JPG,,,,,,,,,,,,,,,,,,,,,0,6,6,7,,,AMNE20.jpg,AMSA06.jpg,AMSA07.jpg,AMNE11.jpg,AMSA06.jpg,MS,2,num_6,32,num_4,1.08344732923,,,2017_May_05_1648,60.0063705595,FEMA4ImagesEEG,001,200214,
AFSA25.JPG,AFNE24.JPG,AFSA24.JPG,AFNE21.JPG,AFSA21.JPG,AFNE25.JPG,,,,,,,,,,,,,,,,,,,,,0,7,7,2,,,AMNE05.jpg,AMSA13.jpg,AMNE07.jpg,AMSA11.jpg,AMNE05.jpg,MN,1,num_8,16,num_8,0.816792872269,,,2017_May_05_1648,60.0063705595,FEMA4ImagesEEG,001,200214,
AMSA21.JPG,AMNE22.JPG,AMNE21.JPG,AMSA23.JPG,AMSA22.JPG,AMNE23.JPG,,,,,,,,,,,,,,,,,,,,,0,8,8,1,,,AMSA18.jpg,AMSA14.jpg,AMNE18.jpg,AMNE09.jpg,AMNE09.jpg,MN,1,num_4,32,num_8,0.749991901219,,,2017_May_05_1648,60.0063705595,FEMA4ImagesEEG,001,200214,
AMSA21.JPG,AMNE23.JPG,AMNE21.JPG,AMSA25.JPG,AMNE25.JPG,AMSA23.JPG,,,,,,,,,,,,,,,,,,,,,0,9,9,5,,,AMNE20.jpg,AMNE01.jpg,AMSA05.jpg,AMSA02.jpg,AMNE01.jpg,MN,1,num_6,32,num_8,0.550160866696,,,2017_May_05_1648,60.0063705595,FEMA4ImagesEEG,001,200214,
,,,,,,,,,,,,,,,,,,,,,,,,,,,,,,,,,,,,,,,,,,,space,50.2461553807,2017_May_05_1648,60.0063705595,FEMA4ImagesEEG,001,200214,
AFNE01.JPG,AFNE01.JPG,AFNE01.JPG,AFNE01.JPG,AFNE01.JPG,AFNE01.JPG,0,0,0,0,,,,,,,,,,,,,,,,,,,,,,,AFSA06.jpg,AFSA18.jpg,AFNE10.jpg,AFNE05.jpg,AFSA18.jpg,FS,4,num_6,32,num_8,0.666804370703,,,2017_May_05_1648,60.0063705595,FEMA4ImagesEEG,001,200214,
AFNE01.JPG,AFNE01.JPG,AFNE01.JPG,AFNE01.JPG,AFNE01.JPG,AFNE01.JPG,0,1,1,6,,,,,,,,,,,,,,,,,,,,,,,AFNE13.jpg,AFSA03.jpg,AFSA14.jpg,AFNE20.jpg,AFSA14.jpg,FS,4,num_2,16,num_2,1.71672099456,,,2017_May_05_1648,60.0063705595,FEMA4ImagesEEG,001,200214,
AFNE01.JPG,AFNE01.JPG,AFNE01.JPG,AFNE01.JPG,AFNE01.JPG,AFNE01.JPG,0,2,2,5,,,,,,,,,,,,,,,,,,,,,,,AFNE20.jpg,AFNE07.jpg,AFSA09.jpg,AFSA13.jpg,AFSA09.jpg,FS,4,num_2,32,num_4,0.800303034252,,,2017_May_05_1648,60.0063705595,FEMA4ImagesEEG,001,200214,
AFNE01.JPG,AFNE01.JPG,AFNE01.JPG,AFNE01.JPG,AFNE01.JPG,AFNE01.JPG,0,3,3,7,,,,,,,,,,,,,,,,,,,,,,,AFNE15.jpg,AFSA01.jpg,AFNE14.jpg,AFSA02.jpg,AFNE14.jpg,FN,3,num_2,16,num_2,1.0334906131,,,2017_May_05_1648,60.0063705595,FEMA4ImagesEEG,001,200214,
AFNE01.JPG,AFNE01.JPG,AFNE01.JPG,AFNE01.JPG,AFNE01.JPG,AFNE01.JPG,0,4,4,2,,,,,,,,,,,,,,,,,,,,,,,AFSA06.jpg,AFSA02.jpg,AFNE08.jpg,AFNE19.jpg,AFNE08.jpg,FN,3,num_2,16,num_2,0.816781646339,,,2017_May_05_1648,60.0063705595,FEMA4ImagesEEG,001,200214,
AFNE01.JPG,AFNE01.JPG,AFNE01.JPG,AFNE01.JPG,AFNE01.JPG,AFNE01.JPG,0,5,5,1,,,,,,,,,,,,,,,,,,,,,,,AFNE13.jpg,AFSA09.jpg,AFSA20.jpg,AFNE16.jpg,AFSA09.jpg,FS,4,num_6,32,num_2,0.633498823969,,,2017_May_05_1648,60.0063705595,FEMA4ImagesEEG,001,200214,
AFNE01.JPG,AFNE01.JPG,AFNE01.JPG,AFNE01.JPG,AFNE01.JPG,AFNE01.JPG,0,6,6,9,,,,,,,,,,,,,,,,,,,,,,,AFSA06.jpg,AFNE18.jpg,AFSA08.jpg,AFNE09.jpg,AFNE18.jpg,FN,3,num_6,32,num_8,0.91678167833,,,2017_May_05_1648,60.0063705595,FEMA4ImagesEEG,001,200214,
AFNE01.JPG,AFNE01.JPG,AFNE01.JPG,AFNE01.JPG,AFNE01.JPG,AFNE01.JPG,0,7,7,8,,,,,,,,,,,,,,,,,,,,,,,AFNE04.jpg,AFNE01.jpg,AFSA13.jpg,AFSA03.jpg,AFSA03.jpg,FS,4,num_4,32,num_2,1.78328333539,,,2017_May_05_1648,60.0063705595,FEMA4ImagesEEG,001,200214,
AFNE01.JPG,AFNE01.JPG,AFNE01.JPG,AFNE01.JPG,AFNE01.JPG,AFNE01.JPG,0,8,8,4,,,,,,,,,,,,,,,,,,,,,,,AFSA02.jpg,AFSA06.jpg,AFNE14.jpg,AFNE19.jpg,AFNE19.jpg,FN,3,num_4,32,num_2,1.25012645149,,,2017_May_05_1648,60.0063705595,FEMA4ImagesEEG,001,200214,
AFNE01.JPG,AFNE01.JPG,AFNE01.JPG,AFNE01.JPG,AFNE01.JPG,AFNE01.JPG,0,9,9,3,,,,,,,,,,,,,,,,,,,,,,,AFSA07.jpg,AFNE04.jpg,AFNE18.jpg,AFSA12.jpg,AFSA12.jpg,FS,4,num_4,16,num_4,1.28346214746,,,2017_May_05_1648,60.0063705595,FEMA4ImagesEEG,001,200214,
AFNE01.JPG,AFNE01.JPG,AFNE01.JPG,AFNE01.JPG,AFNE01.JPG,AFNE01.JPG,1,0,10,1,,,,,,,,,,,,,,,,,,,,,,,AFSA05.jpg,AFNE11.jpg,AFNE10.jpg,AFSA11.jpg,AFNE11.jpg,FN,3,num_6,16,num_6,0.550157659221,,,2017_May_05_1648,60.0063705595,FEMA4ImagesEEG,001,200214,
AFNE01.JPG,AFNE01.JPG,AFNE01.JPG,AFNE01.JPG,AFNE01.JPG,AFNE01.JPG,1,1,11,7,,,,,,,,,,,,,,,,,,,,,,,AFNE05.jpg,AFNE04.jpg,AFSA18.jpg,AFSA17.jpg,AFSA18.jpg,FS,4,num_2,32,num_8,0.633450392401,,,2017_May_05_1648,60.0063705595,FEMA4ImagesEEG,001,200214,
AFNE01.JPG,AFNE01.JPG,AFNE01.JPG,AFNE01.JPG,AFNE01.JPG,AFNE01.JPG,1,2,12,8,,,,,,,,,,,,,,,,,,,,,,,AFNE16.jpg,AFSA05.jpg,AFSA10.jpg,AFNE07.jpg,AFSA10.jpg,FS,4,num_2,32,num_4,0.950139826164,,,2017_May_05_1648,60.0063705595,FEMA4ImagesEEG,001,200214,
AFNE01.JPG,AFNE01.JPG,AFNE01.JPG,AFNE01.JPG,AFNE01.JPG,AFNE01.JPG,1,3,13,6,,,,,,,,,,,,,,,,,,,,,,,AFSA02.jpg,AFNE17.jpg,AFSA08.jpg,AFNE11.jpg,AFNE11.jpg,FN,3,num_4,32,num_6,1.71673639002,,,2017_May_05_1648,60.0063705595,FEMA4ImagesEEG,001,200214,
AFNE01.JPG,AFNE01.JPG,AFNE01.JPG,AFNE01.JPG,AFNE01.JPG,AFNE01.JPG,1,4,14,3,,,,,,,,,,,,,,,,,,,,,,,AFNE05.jpg,AFSA06.jpg,AFNE06.jpg,AFSA04.jpg,AFNE06.jpg,FN,3,num_2,32,num_4,0.650133635849,,,2017_May_05_1648,60.0063705595,FEMA4ImagesEEG,001,200214,
AFNE01.JPG,AFNE01.JPG,AFNE01.JPG,AFNE01.JPG,AFNE01.JPG,AFNE01.JPG,1,5,15,9,,,,,,,,,,,,,,,,,,,,,,,AFSA01.jpg,AFNE13.jpg,AFSA19.jpg,AFNE12.jpg,AFSA01.jpg,FS,4,num_8,32,num_6,0.883489602944,,,2017_May_05_1648,60.0063705595,FEMA4ImagesEEG,001,200214,
AFNE01.JPG,AFNE01.JPG,AFNE01.JPG,AFNE01.JPG,AFNE01.JPG,AFNE01.JPG,1,6,16,0,,,,,,,,,,,,,,,,,,,,,,,AFNE03.jpg,AFSA12.jpg,AFSA05.jpg,AFNE13.jpg,AFSA05.jpg,FS,4,num_2,16,num_2,1.06676857616,,,2017_May_05_1648,60.0063705595,FEMA4ImagesEEG,001,200214,
AFNE01.JPG,AFNE01.JPG,AFNE01.JPG,AFNE01.JPG,AFNE01.JPG,AFNE01.JPG,1,7,17,4,,,,,,,,,,,,,,,,,,,,,,,AFSA06.jpg,AFNE10.jpg,AFSA02.jpg,AFNE19.jpg,AFSA06.jpg,FS,4,num_8,32,num_4,2.06673201197,,,2017_May_05_1648,60.0063705595,FEMA4ImagesEEG,001,200214,
AFNE01.JPG,AFNE01.JPG,AFNE01.JPG,AFNE01.JPG,AFNE01.JPG,AFNE01.JPG,1,8,18,2,,,,,,,,,,,,,,,,,,,,,,,AFNE12.jpg,AFNE11.jpg,AFSA07.jpg,AFSA16.jpg,AFNE11.jpg,FN,3,num_6,16,num_6,0.750446709339,,,2017_May_05_1648,60.0063705595,FEMA4ImagesEEG,001,200214,
AFNE01.JPG,AFNE01.JPG,AFNE01.JPG,AFNE01.JPG,AFNE01.JPG,AFNE01.JPG,1,9,19,5,,,,,,,,,,,,,,,,,,,,,,,AFSA07.jpg,AFNE11.jpg,AFNE13.jpg,AFSA19.jpg,AFNE13.jpg,FN,3,num_2,32,num_6,1.86670917529,,,2017_May_05_1648,60.0063705595,FEMA4ImagesEEG,001,200214,
AFNE01.JPG,AFNE01.JPG,AFNE01.JPG,AFNE01.JPG,AFNE01.JPG,AFNE01.JPG,2,0,20,5,,,,,,,,,,,,,,,,,,,,,,,AFSA04.jpg,AFNE10.jpg,AFSA03.jpg,AFNE13.jpg,AFNE10.jpg,FN,3,num_6,32,num_8,0.233548410237,,,2017_May_05_1648,60.0063705595,FEMA4ImagesEEG,001,200214,
AFNE01.JPG,AFNE01.JPG,AFNE01.JPG,AFNE01.JPG,AFNE01.JPG,AFNE01.JPG,2,1,21,2,,,,,,,,,,,,,,,,,,,,,,,AFSA16.jpg,AFNE15.jpg,AFSA11.jpg,AFNE11.jpg,AFSA11.jpg,FS,4,num_2,32,num_8,2.26664964599,,,2017_May_05_1648,60.0063705595,FEMA4ImagesEEG,001,200214,
AFNE01.JPG,AFNE01.JPG,AFNE01.JPG,AFNE01.JPG,AFNE01.JPG,AFNE01.JPG,2,2,22,7,,,,,,,,,,,,,,,,,,,,,,,AFNE10.jpg,AFNE17.jpg,AFSA07.jpg,AFSA01.jpg,AFSA01.jpg,FS,4,num_4,16,num_4,1.18345217244,,,2017_May_05_1648,60.0063705595,FEMA4ImagesEEG,001,200214,
AFNE01.JPG,AFNE01.JPG,AFNE01.JPG,AFNE01.JPG,AFNE01.JPG,AFNE01.JPG,2,3,23,4,,,,,,,,,,,,,,,,,,,,,,,AFNE14.jpg,AFSA11.jpg,AFNE12.jpg,AFSA10.jpg,AFSA10.jpg,FS,4,num_4,32,num_8,0.566791509045,,,2017_May_05_1648,60.0063705595,FEMA4ImagesEEG,001,200214,
AFNE01.JPG,AFNE01.JPG,AFNE01.JPG,AFNE01.JPG,AFNE01.JPG,AFNE01.JPG,2,4,24,9,,,,,,,,,,,,,,,,,,,,,,,AFSA03.jpg,AFSA08.jpg,AFNE04.jpg,AFNE02.jpg,AFSA03.jpg,FS,4,num_8,16,num_8,0.683464521077,,,2017_May_05_1648,60.0063705595,FEMA4ImagesEEG,001,200214,
AFNE01.JPG,AFNE01.JPG,AFNE01.JPG,AFNE01.JPG,AFNE01.JPG,AFNE01.JPG,2,5,25,8,,,,,,,,,,,,,,,,,,,,,,,AFSA18.jpg,AFSA14.jpg,AFNE02.jpg,AFNE09.jpg,AFNE02.jpg,FN,3,num_2,32,num_8,0.666783843189,,,2017_May_05_1648,60.0063705595,FEMA4ImagesEEG,001,200214,
AFNE01.JPG,AFNE01.JPG,AFNE01.JPG,AFNE01.JPG,AFNE01.JPG,AFNE01.JPG,2,6,26,6,,,,,,,,,,,,,,,,,,,,,,,AFSA11.jpg,AFNE14.jpg,AFNE04.jpg,AFSA09.jpg,AFNE14.jpg,FN,3,num_6,16,num_6,0.816800890723,,,2017_May_05_1648,60.0063705595,FEMA4ImagesEEG,001,200214,
AFNE01.JPG,AFNE01.JPG,AFNE01.JPG,AFNE01.JPG,AFNE01.JPG,AFNE01.JPG,2,7,27,0,,,,,,,,,,,,,,,,,,,,,,,AFSA06.jpg,AFNE18.jpg,AFSA01.jpg,AFNE03.jpg,AFSA01.jpg,FS,4,num_2,32,num_4,0.650152880233,,,2017_May_05_1648,60.0063705595,FEMA4ImagesEEG,001,200214,
AFNE01.JPG,AFNE01.JPG,AFNE01.JPG,AFNE01.JPG,AFNE01.JPG,AFNE01.JPG,2,8,28,1,,,,,,,,,,,,,,,,,,,,,,,AFSA15.jpg,AFSA16.jpg,AFNE11.jpg,AFNE14.jpg,AFNE14.jpg,FN,3,num_4,32,num_8,0.700471390272,,,2017_May_05_1648,60.0063705595,FEMA4ImagesEEG,001,200214,
AFNE01.JPG,AFNE01.JPG,AFNE01.JPG,AFNE01.JPG,AFNE01.JPG,AFNE01.JPG,2,9,29,3,,,,,,,,,,,,,,,,,,,,,,,AFSA08.jpg,AFNE05.jpg,AFSA12.jpg,AFNE14.jpg,AFNE05.jpg,FN,3,num_6,32,num_4,1.41676131147,,,2017_May_05_1648,60.0063705595,FEMA4ImagesEEG,001,200214,
AFNE01.JPG,AFNE01.JPG,AFNE01.JPG,AFNE01.JPG,AFNE01.JPG,AFNE01.JPG,3,0,30,3,,,,,,,,,,,,,,,,,,,,,,,AFNE07.jpg,AFSA12.jpg,AFNE05.jpg,AFSA02.jpg,AFSA12.jpg,FS,4,num_6,32,num_2,2.73331026151,,,2017_May_05_1648,60.0063705595,FEMA4ImagesEEG,001,200214,
AFNE01.JPG,AFNE01.JPG,AFNE01.JPG,AFNE01.JPG,AFNE01.JPG,AFNE01.JPG,3,1,31,8,,,,,,,,,,,,,,,,,,,,,,,AFSA05.jpg,AFSA16.jpg,AFNE15.jpg,AFNE18.jpg,AFSA05.jpg,FS,4,num_8,16,num_8,0.366810689215,,,2017_May_05_1648,60.0063705595,FEMA4ImagesEEG,001,200214,
AFNE01.JPG,AFNE01.JPG,AFNE01.JPG,AFNE01.JPG,AFNE01.JPG,AFNE01.JPG,3,2,32,5,,,,,,,,,,,,,,,,,,,,,,,AFSA02.jpg,AFNE18.jpg,AFNE12.jpg,AFSA05.jpg,AFNE18.jpg,FN,3,num_6,32,num_8,1.28343360173,,,2017_May_05_1648,60.0063705595,FEMA4ImagesEEG,001,200214,
AFNE01.JPG,AFNE01.JPG,AFNE01.JPG,AFNE01.JPG,AFNE01.JPG,AFNE01.JPG,3,3,33,1,,,,,,,,,,,,,,,,,,,,,,,AFNE10.jpg,AFSA04.jpg,AFSA12.jpg,AFNE20.jpg,AFSA12.jpg,FS,4,num_2,32,num_4,1.0001706332,,,2017_May_05_1648,60.0063705595,FEMA4ImagesEEG,001,200214,
AFNE01.JPG,AFNE01.JPG,AFNE01.JPG,AFNE01.JPG,AFNE01.JPG,AFNE01.JPG,3,4,34,4,,,,,,,,,,,,,,,,,,,,,,,AFSA19.jpg,AFNE03.jpg,AFNE05.jpg,AFSA12.jpg,AFSA12.jpg,FS,4,num_4,32,num_8,1.11676506395,,,2017_May_05_1648,60.0063705595,FEMA4ImagesEEG,001,200214,
AFNE01.JPG,AFNE01.JPG,AFNE01.JPG,AFNE01.JPG,AFNE01.JPG,AFNE01.JPG,3,5,35,9,,,,,,,,,,,,,,,,,,,,,,,AFSA10.jpg,AFSA08.jpg,AFNE06.jpg,AFNE14.jpg,AFNE14.jpg,FN,3,num_4,32,num_2,3.61649740743,,,2017_May_05_1648,60.0063705595,FEMA4ImagesEEG,001,200214,
AFNE01.JPG,AFNE01.JPG,AFNE01.JPG,AFNE01.JPG,AFNE01.JPG,AFNE01.JPG,3,6,36,0,,,,,,,,,,,,,,,,,,,,,,,AFSA13.jpg,AFNE02.jpg,AFNE12.jpg,AFSA03.jpg,AFSA13.jpg,FS,4,num_8,32,num_4,3.16662042658,,,2017_May_05_1648,60.0063705595,FEMA4ImagesEEG,001,200214,
AFNE01.JPG,AFNE01.JPG,AFNE01.JPG,AFNE01.JPG,AFNE01.JPG,AFNE01.JPG,3,7,37,6,,,,,,,,,,,,,,,,,,,,,,,AFNE16.jpg,AFSA14.jpg,AFSA06.jpg,AFNE19.jpg,AFNE16.jpg,FN,3,num_8,32,num_4,1.6333977913,,,2017_May_05_1648,60.0063705595,FEMA4ImagesEEG,001,200214,
AFNE01.JPG,AFNE01.JPG,AFNE01.JPG,AFNE01.JPG,AFNE01.JPG,AFNE01.JPG,3,8,38,2,,,,,,,,,,,,,,,,,,,,,,,AFSA02.jpg,AFNE06.jpg,AFSA11.jpg,AFNE05.jpg,AFSA11.jpg,FS,4,num_2,32,num_6,0.967055284884,,,2017_May_05_1648,60.0063705595,FEMA4ImagesEEG,001,200214,
AFNE01.JPG,AFNE01.JPG,AFNE01.JPG,AFNE01.JPG,AFNE01.JPG,AFNE01.JPG,3,9,39,7,,,,,,,,,,,,,,,,,,,,,,,AFNE14.jpg,AFNE11.jpg,AFSA11.jpg,AFSA15.jpg,AFSA11.jpg,FS,4,num_2,32,num_6,0.633479579585,,,2017_May_05_1648,60.0063705595,FEMA4ImagesEEG,001,200214,
AFNE01.JPG,AFNE01.JPG,AFNE01.JPG,AFNE01.JPG,AFNE01.JPG,AFNE01.JPG,4,0,40,5,,,,,,,,,,,,,,,,,,,,,,,AFNE12.jpg,AFSA04.jpg,AFSA15.jpg,AFNE13.jpg,AFSA15.jpg,FS,4,num_2,32,num_6,1.33332007611,,,2017_May_05_1648,60.0063705595,FEMA4ImagesEEG,001,200214,
AFNE01.JPG,AFNE01.JPG,AFNE01.JPG,AFNE01.JPG,AFNE01.JPG,AFNE01.JPG,4,1,41,4,,,,,,,,,,,,,,,,,,,,,,,AFSA16.jpg,AFNE18.jpg,AFNE10.jpg,AFSA11.jpg,AFSA16.jpg,FS,4,num_8,16,num_8,1.13340180041,,,2017_May_05_1648,60.0063705595,FEMA4ImagesEEG,001,200214,
AFNE01.JPG,AFNE01.JPG,AFNE01.JPG,AFNE01.JPG,AFNE01.JPG,AFNE01.JPG,4,2,42,9,,,,,,,,,,,,,,,,,,,,,,,AFNE14.jpg,AFSA13.jpg,AFNE08.jpg,AFSA14.jpg,AFSA13.jpg,FS,4,num_6,32,num_2,0.80017217272,,,2017_May_05_1648,60.0063705595,FEMA4ImagesEEG,001,200214,
AFNE01.JPG,AFNE01.JPG,AFNE01.JPG,AFNE01.JPG,AFNE01.JPG,AFNE01.JPG,4,3,43,2,,,,,,,,,,,,,,,,,,,,,,,AFNE15.jpg,AFNE16.jpg,AFSA20.jpg,AFSA08.jpg,AFNE16.jpg,FN,3,num_6,32,num_8,4.28322159336,,,2017_May_05_1648,60.0063705595,FEMA4ImagesEEG,001,200214,
AFNE01.JPG,AFNE01.JPG,AFNE01.JPG,AFNE01.JPG,AFNE01.JPG,AFNE01.JPG,4,4,44,3,,,,,,,,,,,,,,,,,,,,,,,AFNE16.jpg,AFSA01.jpg,AFSA17.jpg,AFNE01.jpg,AFNE16.jpg,FN,3,num_8,32,num_6,1.4833977432,,,2017_May_05_1648,60.0063705595,FEMA4ImagesEEG,001,200214,
AFNE01.JPG,AFNE01.JPG,AFNE01.JPG,AFNE01.JPG,AFNE01.JPG,AFNE01.JPG,4,5,45,7,,,,,,,,,,,,,,,,,,,,,,,AFSA17.jpg,AFSA16.jpg,AFNE12.jpg,AFNE01.jpg,AFNE12.jpg,FN,3,num_2,16,num_2,2.44967042445,,,2017_May_05_1648,60.0063705595,FEMA4ImagesEEG,001,200214,
AFNE01.JPG,AFNE01.JPG,AFNE01.JPG,AFNE01.JPG,AFNE01.JPG,AFNE01.JPG,4,6,46,8,,,,,,,,,,,,,,,,,,,,,,,AFSA04.jpg,AFSA18.jpg,AFNE17.jpg,AFNE03.jpg,AFSA04.jpg,FS,4,num_8,32,num_4,0.866774926661,,,2017_May_05_1648,60.0063705595,FEMA4ImagesEEG,001,200214,
AFNE01.JPG,AFNE01.JPG,AFNE01.JPG,AFNE01.JPG,AFNE01.JPG,AFNE01.JPG,4,7,47,6,,,,,,,,,,,,,,,,,,,,,,,AFNE19.jpg,AFSA02.jpg,AFNE10.jpg,AFSA05.jpg,AFSA05.jpg,FS,4,num_4,16,num_4,3.70022570412,,,2017_May_05_1648,60.0063705595,FEMA4ImagesEEG,001,200214,
AFNE01.JPG,AFNE01.JPG,AFNE01.JPG,AFNE01.JPG,AFNE01.JPG,AFNE01.JPG,4,8,48,1,,,,,,,,,,,,,,,,,,,,,,,AFSA06.jpg,AFNE05.jpg,AFNE14.jpg,AFSA11.jpg,AFNE14.jpg,FN,3,num_2,16,num_2,1.13343323278,,,2017_May_05_1648,60.0063705595,FEMA4ImagesEEG,001,200214,
AFNE01.JPG,AFNE01.JPG,AFNE01.JPG,AFNE01.JPG,AFNE01.JPG,AFNE01.JPG,4,9,49,0,,,,,,,,,,,,,,,,,,,,,,,AFSA05.jpg,AFNE06.jpg,AFNE02.jpg,AFSA08.jpg,AFSA08.jpg,FS,4,num_4,32,num_8,1.10010812129,,,2017_May_05_1648,60.0063705595,FEMA4ImagesEEG,001,200214,
AFNE01.JPG,AFNE01.JPG,AFNE01.JPG,AFNE01.JPG,AFNE01.JPG,AFNE01.JPG,5,0,50,8,,,,,,,,,,,,,,,,,,,,,,,AFSA13.jpg,AFNE02.jpg,AFSA19.jpg,AFNE12.jpg,AFNE12.jpg,FN,3,num_4,16,num_4,3.1665543546,,,2017_May_05_1648,60.0063705595,FEMA4ImagesEEG,001,200214,
AFNE01.JPG,AFNE01.JPG,AFNE01.JPG,AFNE01.JPG,AFNE01.JPG,AFNE01.JPG,5,1,51,3,,,,,,,,,,,,,,,,,,,,,,,AFSA10.jpg,AFNE15.jpg,AFSA19.jpg,AFNE10.jpg,AFSA19.jpg,FS,4,num_2,32,num_6,0.733456197893,,,2017_May_05_1648,60.0063705595,FEMA4ImagesEEG,001,200214,
AFNE01.JPG,AFNE01.JPG,AFNE01.JPG,AFNE01.JPG,AFNE01.JPG,AFNE01.JPG,5,2,52,7,,,,,,,,,,,,,,,,,,,,,,,AFNE02.jpg,AFSA11.jpg,AFNE09.jpg,AFSA08.jpg,AFSA11.jpg,FS,4,num_6,32,num_8,0.783475137549,,,2017_May_05_1648,60.0063705595,FEMA4ImagesEEG,001,200214,
AFNE01.JPG,AFNE01.JPG,AFNE01.JPG,AFNE01.JPG,AFNE01.JPG,AFNE01.JPG,5,3,53,5,,,,,,,,,,,,,,,,,,,,,,,AFSA09.jpg,AFSA08.jpg,AFNE19.jpg,AFNE07.jpg,AFSA09.jpg,FS,4,num_8,32,num_4,1.1667609103,,,2017_May_05_1648,60.0063705595,FEMA4ImagesEEG,001,200214,
AFNE01.JPG,AFNE01.JPG,AFNE01.JPG,AFNE01.JPG,AFNE01.JPG,AFNE01.JPG,5,4,54,2,,,,,,,,,,,,,,,,,,,,,,,AFNE12.jpg,AFNE11.jpg,AFSA11.jpg,AFSA18.jpg,AFSA18.jpg,FS,4,num_4,16,num_4,1.15008793049,,,2017_May_05_1648,60.0063705595,FEMA4ImagesEEG,001,200214,
AFNE01.JPG,AFNE01.JPG,AFNE01.JPG,AFNE01.JPG,AFNE01.JPG,AFNE01.JPG,5,5,55,6,,,,,,,,,,,,,,,,,,,,,,,AFNE15.jpg,AFSA16.jpg,AFSA10.jpg,AFNE18.jpg,AFSA10.jpg,FS,4,num_2,32,num_8,1.10011293227,,,2017_May_05_1648,60.0063705595,FEMA4ImagesEEG,001,200214,
AFNE01.JPG,AFNE01.JPG,AFNE01.JPG,AFNE01.JPG,AFNE01.JPG,AFNE01.JPG,5,6,56,9,,,,,,,,,,,,,,,,,,,,,,,AFSA12.jpg,AFNE03.jpg,AFSA17.jpg,AFNE18.jpg,AFSA12.jpg,FS,4,num_8,48,None,,,,2017_May_05_1648,60.0063705595,FEMA4ImagesEEG,001,200214,
AFNE01.JPG,AFNE01.JPG,AFNE01.JPG,AFNE01.JPG,AFNE01.JPG,AFNE01.JPG,5,7,57,1,,,,,,,,,,,,,,,,,,,,,,,AFSA10.jpg,AFNE01.jpg,AFNE04.jpg,AFSA19.jpg,AFSA10.jpg,FS,4,num_8,32,num_2,3.40015761112,,,2017_May_05_1648,60.0063705595,FEMA4ImagesEEG,001,200214,
AFNE01.JPG,AFNE01.JPG,AFNE01.JPG,AFNE01.JPG,AFNE01.JPG,AFNE01.JPG,5,8,58,0,,,,,,,,,,,,,,,,,,,,,,,AFNE06.jpg,AFNE03.jpg,AFSA16.jpg,AFSA18.jpg,AFNE03.jpg,FN,3,num_6,16,num_6,0.650107014691,,,2017_May_05_1648,60.0063705595,FEMA4ImagesEEG,001,200214,
AFNE01.JPG,AFNE01.JPG,AFNE01.JPG,AFNE01.JPG,AFNE01.JPG,AFNE01.JPG,5,9,59,4,,,,,,,,,,,,,,,,,,,,,,,AFNE05.jpg,AFNE09.jpg,AFSA07.jpg,AFSA01.jpg,AFSA01.jpg,FS,4,num_4,32,num_8,1.46671032999,,,2017_May_05_1648,60.0063705595,FEMA4ImagesEEG,001,200214,
,,,,,,,,,,,,,,,,,,,,,,,,,,,,,,,,,,,,,,,,,,,space,46.1131775975,2017_May_05_1648,60.0063705595,FEMA4ImagesEEG,001,200214,
AFNE01.JPG,AFNE01.JPG,AFNE01.JPG,AFNE01.JPG,AFNE01.JPG,AFNE01.JPG,,,,,0,0,0,3,,,,,,,,,,,,,,,,,,,AMSA12.jpg,AMSA11.jpg,AMNE02.jpg,AMNE13.jpg,AMSA11.jpg,MS,2,num_6,32,num_8,0.63349946565,,,2017_May_05_1648,60.0063705595,FEMA4ImagesEEG,001,200214,
AFNE01.JPG,AFNE01.JPG,AFNE01.JPG,AFNE01.JPG,AFNE01.JPG,AFNE01.JPG,,,,,0,1,1,0,,,,,,,,,,,,,,,,,,,AMNE05.jpg,AMSA01.jpg,AMSA18.jpg,AMNE02.jpg,AMNE02.jpg,MN,1,num_4,32,num_6,0.583501373883,,,2017_May_05_1648,60.0063705595,FEMA4ImagesEEG,001,200214,
AFNE01.JPG,AFNE01.JPG,AFNE01.JPG,AFNE01.JPG,AFNE01.JPG,AFNE01.JPG,,,,,0,2,2,6,,,,,,,,,,,,,,,,,,,AMNE09.jpg,AMNE03.jpg,AMSA17.jpg,AMSA15.jpg,AMSA17.jpg,MS,2,num_2,16,num_2,0.46668723668,,,2017_May_05_1648,60.0063705595,FEMA4ImagesEEG,001,200214,
AFNE01.JPG,AFNE01.JPG,AFNE01.JPG,AFNE01.JPG,AFNE01.JPG,AFNE01.JPG,,,,,0,3,3,7,,,,,,,,,,,,,,,,,,,AMSA05.jpg,AMSA19.jpg,AMNE02.jpg,AMNE04.jpg,AMSA19.jpg,MS,2,num_6,32,num_8,0.733463254059,,,2017_May_05_1648,60.0063705595,FEMA4ImagesEEG,001,200214,
AFNE01.JPG,AFNE01.JPG,AFNE01.JPG,AFNE01.JPG,AFNE01.JPG,AFNE01.JPG,,,,,0,4,4,4,,,,,,,,,,,,,,,,,,,AMNE17.jpg,AMSA09.jpg,AMSA18.jpg,AMNE04.jpg,AMSA18.jpg,MS,2,num_2,32,num_4,0.750183703378,,,2017_May_05_1648,60.0063705595,FEMA4ImagesEEG,001,200214,
AFNE01.JPG,AFNE01.JPG,AFNE01.JPG,AFNE01.JPG,AFNE01.JPG,AFNE01.JPG,,,,,0,5,5,1,,,,,,,,,,,,,,,,,,,AMSA01.jpg,AMSA08.jpg,AMNE11.jpg,AMNE19.jpg,AMNE19.jpg,MN,1,num_4,32,num_8,0.616780619835,,,2017_May_05_1648,60.0063705595,FEMA4ImagesEEG,001,200214,
AFNE01.JPG,AFNE01.JPG,AFNE01.JPG,AFNE01.JPG,AFNE01.JPG,AFNE01.JPG,,,,,0,6,6,2,,,,,,,,,,,,,,,,,,,AMSA13.jpg,AMNE13.jpg,AMNE19.jpg,AMSA01.jpg,AMNE13.jpg,MN,1,num_6,32,num_2,1.53334612027,,,2017_May_05_1648,60.0063705595,FEMA4ImagesEEG,001,200214,
AFNE01.JPG,AFNE01.JPG,AFNE01.JPG,AFNE01.JPG,AFNE01.JPG,AFNE01.JPG,,,,,0,7,7,8,,,,,,,,,,,,,,,,,,,AMNE19.jpg,AMNE10.jpg,AMSA07.jpg,AMSA14.jpg,AMSA07.jpg,MS,2,num_2,32,num_4,0.516797587043,,,2017_May_05_1648,60.0063705595,FEMA4ImagesEEG,001,200214,
AFNE01.JPG,AFNE01.JPG,AFNE01.JPG,AFNE01.JPG,AFNE01.JPG,AFNE01.JPG,,,,,0,8,8,5,,,,,,,,,,,,,,,,,,,AMSA19.jpg,AMSA15.jpg,AMNE07.jpg,AMNE10.jpg,AMNE07.jpg,MN,1,num_2,16,num_2,3.71658885013,,,2017_May_05_1648,60.0063705595,FEMA4ImagesEEG,001,200214,
AFNE01.JPG,AFNE01.JPG,AFNE01.JPG,AFNE01.JPG,AFNE01.JPG,AFNE01.JPG,,,,,0,9,9,9,,,,,,,,,,,,,,,,,,,AMSA03.jpg,AMNE10.jpg,AMSA18.jpg,AMNE11.jpg,AMNE10.jpg,MN,1,num_6,32,num_4,0.866769474233,,,2017_May_05_1648,60.0063705595,FEMA4ImagesEEG,001,200214,
AFNE01.JPG,AFNE01.JPG,AFNE01.JPG,AFNE01.JPG,AFNE01.JPG,AFNE01.JPG,,,,,1,0,10,9,,,,,,,,,,,,,,,,,,,AMNE07.jpg,AMSA18.jpg,AMSA14.jpg,AMNE15.jpg,AMNE15.jpg,MN,1,num_4,32,num_6,0.850133700063,,,2017_May_05_1648,60.0063705595,FEMA4ImagesEEG,001,200214,
AFNE01.JPG,AFNE01.JPG,AFNE01.JPG,AFNE01.JPG,AFNE01.JPG,AFNE01.JPG,,,,,1,1,11,8,,,,,,,,,,,,,,,,,,,AMNE14.jpg,AMSA13.jpg,AMNE03.jpg,AMSA09.jpg,AMNE14.jpg,MN,1,num_8,16,num_8,0.933463318273,,,2017_May_05_1648,60.0063705595,FEMA4ImagesEEG,001,200214,
AFNE01.JPG,AFNE01.JPG,AFNE01.JPG,AFNE01.JPG,AFNE01.JPG,AFNE01.JPG,,,,,1,2,12,6,,,,,,,,,,,,,,,,,,,AMNE12.jpg,AMSA14.jpg,AMNE17.jpg,AMSA19.jpg,AMSA14.jpg,MS,2,num_6,16,num_6,1.05014563142,,,2017_May_05_1648,60.0063705595,FEMA4ImagesEEG,001,200214,
AFNE01.JPG,AFNE01.JPG,AFNE01.JPG,AFNE01.JPG,AFNE01.JPG,AFNE01.JPG,,,,,1,3,13,0,,,,,,,,,,,,,,,,,,,AMNE15.jpg,AMNE03.jpg,AMSA15.jpg,AMSA18.jpg,AMNE03.jpg,MN,1,num_6,32,num_2,2.15001127403,,,2017_May_05_1648,60.0063705595,FEMA4ImagesEEG,001,200214,
AFNE01.JPG,AFNE01.JPG,AFNE01.JPG,AFNE01.JPG,AFNE01.JPG,AFNE01.JPG,,,,,1,4,14,5,,,,,,,,,,,,,,,,,,,AMSA16.jpg,AMSA15.jpg,AMNE16.jpg,AMNE08.jpg,AMSA15.jpg,MS,2,num_6,32,num_8,2.98329045577,,,2017_May_05_1648,60.0063705595,FEMA4ImagesEEG,001,200214,
AFNE01.JPG,AFNE01.JPG,AFNE01.JPG,AFNE01.JPG,AFNE01.JPG,AFNE01.JPG,,,,,1,5,15,4,,,,,,,,,,,,,,,,,,,AMSA07.jpg,AMNE17.jpg,AMNE12.jpg,AMSA16.jpg,AMNE17.jpg,MN,1,num_6,32,num_4,3.14964017877,,,2017_May_05_1648,60.0063705595,FEMA4ImagesEEG,001,200214,
AFNE01.JPG,AFNE01.JPG,AFNE01.JPG,AFNE01.JPG,AFNE01.JPG,AFNE01.JPG,,,,,1,6,16,7,,,,,,,,,,,,,,,,,,,AMNE18.jpg,AMSA19.jpg,AMSA10.jpg,AMNE19.jpg,AMSA19.jpg,MS,2,num_6,32,num_4,0.850133379456,,,2017_May_05_1648,60.0063705595,FEMA4ImagesEEG,001,200214,
AFNE01.JPG,AFNE01.JPG,AFNE01.JPG,AFNE01.JPG,AFNE01.JPG,AFNE01.JPG,,,,,1,7,17,2,,,,,,,,,,,,,,,,,,,AMSA18.jpg,AMNE13.jpg,AMSA09.jpg,AMNE17.jpg,AMNE13.jpg,MN,1,num_6,32,num_4,0.983413940296,,,2017_May_05_1648,60.0063705595,FEMA4ImagesEEG,001,200214,
AFNE01.JPG,AFNE01.JPG,AFNE01.JPG,AFNE01.JPG,AFNE01.JPG,AFNE01.JPG,,,,,1,8,18,3,,,,,,,,,,,,,,,,,,,AMNE13.jpg,AMSA06.jpg,AMNE05.jpg,AMSA04.jpg,AMNE05.jpg,MN,1,num_2,16,num_2,1.81674925145,,,2017_May_05_1648,60.0063705595,FEMA4ImagesEEG,001,200214,
AFNE01.JPG,AFNE01.JPG,AFNE01.JPG,AFNE01.JPG,AFNE01.JPG,AFNE01.JPG,,,,,1,9,19,1,,,,,,,,,,,,,,,,,,,AMSA05.jpg,AMNE12.jpg,AMSA18.jpg,AMNE04.jpg,AMSA05.jpg,MS,2,num_8,16,num_8,2.00025049737,,,2017_May_05_1648,60.0063705595,FEMA4ImagesEEG,001,200214,
AFNE01.JPG,AFNE01.JPG,AFNE01.JPG,AFNE01.JPG,AFNE01.JPG,AFNE01.JPG,,,,,2,0,20,1,,,,,,,,,,,,,,,,,,,AMSA15.jpg,AMNE03.jpg,AMNE05.jpg,AMSA11.jpg,AMNE05.jpg,MN,1,num_2,16,num_2,2.26663553366,,,2017_May_05_1648,60.0063705595,FEMA4ImagesEEG,001,200214,
AFNE01.JPG,AFNE01.JPG,AFNE01.JPG,AFNE01.JPG,AFNE01.JPG,AFNE01.JPG,,,,,2,1,21,5,,,,,,,,,,,,,,,,,,,AMSA11.jpg,AMSA20.jpg,AMNE12.jpg,AMNE02.jpg,AMSA20.jpg,MS,2,num_6,16,num_6,0.683466124581,,,2017_May_05_1648,60.0063705595,FEMA4ImagesEEG,001,200214,
AFNE01.JPG,AFNE01.JPG,AFNE01.JPG,AFNE01.JPG,AFNE01.JPG,AFNE01.JPG,,,,,2,2,22,2,,,,,,,,,,,,,,,,,,,AMSA16.jpg,AMNE14.jpg,AMNE13.jpg,AMSA06.jpg,AMNE13.jpg,MN,1,num_2,32,num_8,1.01677465416,,,2017_May_05_1648,60.0063705595,FEMA4ImagesEEG,001,200214,
AFNE01.JPG,AFNE01.JPG,AFNE01.JPG,AFNE01.JPG,AFNE01.JPG,AFNE01.JPG,,,,,2,3,23,4,,,,,,,,,,,,,,,,,,,AMSA02.jpg,AMSA20.jpg,AMNE02.jpg,AMNE08.jpg,AMNE08.jpg,MN,1,num_4,32,num_2,1.48343430739,,,2017_May_05_1648,60.0063705595,FEMA4ImagesEEG,001,200214,
AFNE01.JPG,AFNE01.JPG,AFNE01.JPG,AFNE01.JPG,AFNE01.JPG,AFNE01.JPG,,,,,2,4,24,9,,,,,,,,,,,,,,,,,,,AMNE12.jpg,AMSA09.jpg,AMSA08.jpg,AMNE03.jpg,AMNE12.jpg,MN,1,num_8,32,num_6,0.833473870531,,,2017_May_05_1648,60.0063705595,FEMA4ImagesEEG,001,200214,
AFNE01.JPG,AFNE01.JPG,AFNE01.JPG,AFNE01.JPG,AFNE01.JPG,AFNE01.JPG,,,,,2,5,25,7,,,,,,,,,,,,,,,,,,,AMNE06.jpg,AMSA14.jpg,AMNE04.jpg,AMSA18.jpg,AMSA18.jpg,MS,2,num_4,48,None,,,,2017_May_05_1648,60.0063705595,FEMA4ImagesEEG,001,200214,
AFNE01.JPG,AFNE01.JPG,AFNE01.JPG,AFNE01.JPG,AFNE01.JPG,AFNE01.JPG,,,,,2,6,26,6,,,,,,,,,,,,,,,,,,,AMSA04.jpg,AMNE07.jpg,AMSA17.jpg,AMNE16.jpg,AMSA17.jpg,MS,2,num_2,32,num_8,1.26682412811,,,2017_May_05_1648,60.0063705595,FEMA4ImagesEEG,001,200214,
AFNE01.JPG,AFNE01.JPG,AFNE01.JPG,AFNE01.JPG,AFNE01.JPG,AFNE01.JPG,,,,,2,7,27,8,,,,,,,,,,,,,,,,,,,AMSA03.jpg,AMNE05.jpg,AMNE08.jpg,AMSA14.jpg,AMSA03.jpg,MS,2,num_8,16,num_8,0.466868774965,,,2017_May_05_1648,60.0063705595,FEMA4ImagesEEG,001,200214,
AFNE01.JPG,AFNE01.JPG,AFNE01.JPG,AFNE01.JPG,AFNE01.JPG,AFNE01.JPG,,,,,2,8,28,3,,,,,,,,,,,,,,,,,,,AMSA01.jpg,AMNE01.jpg,AMSA04.jpg,AMNE16.jpg,AMSA01.jpg,MS,2,num_8,32,num_4,1.0667432379,,,2017_May_05_1648,60.0063705595,FEMA4ImagesEEG,001,200214,
AFNE01.JPG,AFNE01.JPG,AFNE01.JPG,AFNE01.JPG,AFNE01.JPG,AFNE01.JPG,,,,,2,9,29,0,,,,,,,,,,,,,,,,,,,AMSA09.jpg,AMNE11.jpg,AMSA19.jpg,AMNE09.jpg,AMNE11.jpg,MN,1,num_6,16,num_6,1.55006047525,,,2017_May_05_1648,60.0063705595,FEMA4ImagesEEG,001,200214,
AFNE01.JPG,AFNE01.JPG,AFNE01.JPG,AFNE01.JPG,AFNE01.JPG,AFNE01.JPG,,,,,3,0,30,1,,,,,,,,,,,,,,,,,,,AMSA17.jpg,AMNE20.jpg,AMSA10.jpg,AMNE19.jpg,AMSA10.jpg,MS,2,num_2,32,num_6,1.36674012663,,,2017_May_05_1648,60.0063705595,FEMA4ImagesEEG,001,200214,
AFNE01.JPG,AFNE01.JPG,AFNE01.JPG,AFNE01.JPG,AFNE01.JPG,AFNE01.JPG,,,,,3,1,31,5,,,,,,,,,,,,,,,,,,,AMSA14.jpg,AMNE19.jpg,AMSA04.jpg,AMNE09.jpg,AMSA04.jpg,MS,2,num_2,32,num_8,0.983419713564,,,2017_May_05_1648,60.0063705595,FEMA4ImagesEEG,001,200214,
AFNE01.JPG,AFNE01.JPG,AFNE01.JPG,AFNE01.JPG,AFNE01.JPG,AFNE01.JPG,,,,,3,2,32,8,,,,,,,,,,,,,,,,,,,AMNE10.jpg,AMNE05.jpg,AMSA19.jpg,AMSA05.jpg,AMSA19.jpg,MS,2,num_2,32,num_8,4.34980895184,,,2017_May_05_1648,60.0063705595,FEMA4ImagesEEG,001,200214,
AFNE01.JPG,AFNE01.JPG,AFNE01.JPG,AFNE01.JPG,AFNE01.JPG,AFNE01.JPG,,,,,3,3,33,7,,,,,,,,,,,,,,,,,,,AMNE19.jpg,AMSA10.jpg,AMNE17.jpg,AMSA05.jpg,AMSA05.jpg,MS,2,num_4,32,num_8,1.10013474245,,,2017_May_05_1648,60.0063705595,FEMA4ImagesEEG,001,200214,
AFNE01.JPG,AFNE01.JPG,AFNE01.JPG,AFNE01.JPG,AFNE01.JPG,AFNE01.JPG,,,,,3,4,34,0,,,,,,,,,,,,,,,,,,,AMNE15.jpg,AMSA04.jpg,AMNE03.jpg,AMSA06.jpg,AMNE03.jpg,MN,1,num_2,32,num_4,0.900127942907,,,2017_May_05_1648,60.0063705595,FEMA4ImagesEEG,001,200214,
AFNE01.JPG,AFNE01.JPG,AFNE01.JPG,AFNE01.JPG,AFNE01.JPG,AFNE01.JPG,,,,,3,5,35,3,,,,,,,,,,,,,,,,,,,AMSA19.jpg,AMNE13.jpg,AMSA03.jpg,AMNE10.jpg,AMSA03.jpg,MS,2,num_2,48,None,,,,2017_May_05_1648,60.0063705595,FEMA4ImagesEEG,001,200214,
AFNE01.JPG,AFNE01.JPG,AFNE01.JPG,AFNE01.JPG,AFNE01.JPG,AFNE01.JPG,,,,,3,6,36,6,,,,,,,,,,,,,,,,,,,AMSA13.jpg,AMNE19.jpg,AMNE03.jpg,AMSA07.jpg,AMSA07.jpg,MS,2,num_4,32,num_8,0.0669286251068,,,2017_May_05_1648,60.0063705595,FEMA4ImagesEEG,001,200214,
AFNE01.JPG,AFNE01.JPG,AFNE01.JPG,AFNE01.JPG,AFNE01.JPG,AFNE01.JPG,,,,,3,7,37,9,,,,,,,,,,,,,,,,,,,AMSA13.jpg,AMSA09.jpg,AMNE16.jpg,AMNE04.jpg,AMNE04.jpg,MN,1,num_4,32,num_2,0.466769666644,,,2017_May_05_1648,60.0063705595,FEMA4ImagesEEG,001,200214,
AFNE01.JPG,AFNE01.JPG,AFNE01.JPG,AFNE01.JPG,AFNE01.JPG,AFNE01.JPG,,,,,3,8,38,2,,,,,,,,,,,,,,,,,,,AMNE17.jpg,AMSA11.jpg,AMNE14.jpg,AMSA20.jpg,AMSA20.jpg,MS,2,num_4,32,num_6,0.716974378331,,,2017_May_05_1648,60.0063705595,FEMA4ImagesEEG,001,200214,
AFNE01.JPG,AFNE01.JPG,AFNE01.JPG,AFNE01.JPG,AFNE01.JPG,AFNE01.JPG,,,,,3,9,39,4,,,,,,,,,,,,,,,,,,,AMNE10.jpg,AMNE01.jpg,AMSA15.jpg,AMSA08.jpg,AMNE10.jpg,MN,1,num_8,48,None,,,,2017_May_05_1648,60.0063705595,FEMA4ImagesEEG,001,200214,
AFNE01.JPG,AFNE01.JPG,AFNE01.JPG,AFNE01.JPG,AFNE01.JPG,AFNE01.JPG,,,,,4,0,40,2,,,,,,,,,,,,,,,,,,,AMNE06.jpg,AMSA13.jpg,AMNE10.jpg,AMSA09.jpg,AMSA09.jpg,MS,2,num_4,48,None,,,,2017_May_05_1648,60.0063705595,FEMA4ImagesEEG,001,200214,
AFNE01.JPG,AFNE01.JPG,AFNE01.JPG,AFNE01.JPG,AFNE01.JPG,AFNE01.JPG,,,,,4,1,41,1,,,,,,,,,,,,,,,,,,,AMNE05.jpg,AMSA05.jpg,AMSA08.jpg,AMNE15.jpg,AMSA08.jpg,MS,2,num_2,48,None,,,,2017_May_05_1648,60.0063705595,FEMA4ImagesEEG,001,200214,
AFNE01.JPG,AFNE01.JPG,AFNE01.JPG,AFNE01.JPG,AFNE01.JPG,AFNE01.JPG,,,,,4,2,42,4,,,,,,,,,,,,,,,,,,,AMNE12.jpg,AMSA13.jpg,AMNE08.jpg,AMSA10.jpg,AMSA10.jpg,MS,2,num_4,32,num_2,0.83345366409,,,2017_May_05_1648,60.0063705595,FEMA4ImagesEEG,001,200214,
AFNE01.JPG,AFNE01.JPG,AFNE01.JPG,AFNE01.JPG,AFNE01.JPG,AFNE01.JPG,,,,,4,3,43,6,,,,,,,,,,,,,,,,,,,AMSA20.jpg,AMNE05.jpg,AMNE16.jpg,AMSA13.jpg,AMSA13.jpg,MS,2,num_4,32,num_6,0.983478729846,,,2017_May_05_1648,60.0063705595,FEMA4ImagesEEG,001,200214,
AFNE01.JPG,AFNE01.JPG,AFNE01.JPG,AFNE01.JPG,AFNE01.JPG,AFNE01.JPG,,,,,4,4,44,3,,,,,,,,,,,,,,,,,,,AMNE14.jpg,AMSA04.jpg,AMNE04.jpg,AMSA07.jpg,AMNE14.jpg,MN,1,num_8,32,num_4,4.51647620648,,,2017_May_05_1648,60.0063705595,FEMA4ImagesEEG,001,200214,
AFNE01.JPG,AFNE01.JPG,AFNE01.JPG,AFNE01.JPG,AFNE01.JPG,AFNE01.JPG,,,,,4,5,45,7,,,,,,,,,,,,,,,,,,,AMNE05.jpg,AMSA03.jpg,AMSA15.jpg,AMNE11.jpg,AMSA15.jpg,MS,2,num_2,48,None,,,,2017_May_05_1648,60.0063705595,FEMA4ImagesEEG,001,200214,
AFNE01.JPG,AFNE01.JPG,AFNE01.JPG,AFNE01.JPG,AFNE01.JPG,AFNE01.JPG,,,,,4,6,46,5,,,,,,,,,,,,,,,,,,,AMSA04.jpg,AMNE10.jpg,AMNE09.jpg,AMSA13.jpg,AMSA04.jpg,MS,2,num_8,48,None,,,,2017_May_05_1648,60.0063705595,FEMA4ImagesEEG,001,200214,
AFNE01.JPG,AFNE01.JPG,AFNE01.JPG,AFNE01.JPG,AFNE01.JPG,AFNE01.JPG,,,,,4,7,47,9,,,,,,,,,,,,,,,,,,,AMNE01.jpg,AMNE13.jpg,AMSA10.jpg,AMSA03.jpg,AMSA10.jpg,MS,2,num_2,32,num_8,0.683504292509,,,2017_May_05_1648,60.0063705595,FEMA4ImagesEEG,001,200214,
AFNE01.JPG,AFNE01.JPG,AFNE01.JPG,AFNE01.JPG,AFNE01.JPG,AFNE01.JPG,,,,,4,8,48,0,,,,,,,,,,,,,,,,,,,AMNE20.jpg,AMSA04.jpg,AMNE13.jpg,AMSA05.jpg,AMSA04.jpg,MS,2,num_6,32,num_4,0.866773964604,,,2017_May_05_1648,60.0063705595,FEMA4ImagesEEG,001,200214,
AFNE01.JPG,AFNE01.JPG,AFNE01.JPG,AFNE01.JPG,AFNE01.JPG,AFNE01.JPG,,,,,4,9,49,8,,,,,,,,,,,,,,,,,,,AMSA08.jpg,AMNE14.jpg,AMSA03.jpg,AMNE01.jpg,AMSA03.jpg,MS,2,num_2,48,None,,,,2017_May_05_1648,60.0063705595,FEMA4ImagesEEG,001,200214,
AFNE01.JPG,AFNE01.JPG,AFNE01.JPG,AFNE01.JPG,AFNE01.JPG,AFNE01.JPG,,,,,5,0,50,6,,,,,,,,,,,,,,,,,,,AMSA08.jpg,AMSA05.jpg,AMNE03.jpg,AMNE09.jpg,AMNE03.jpg,MN,1,num_2,48,None,,,,2017_May_05_1648,60.0063705595,FEMA4ImagesEEG,001,200214,
AFNE01.JPG,AFNE01.JPG,AFNE01.JPG,AFNE01.JPG,AFNE01.JPG,AFNE01.JPG,,,,,5,1,51,2,,,,,,,,,,,,,,,,,,,AMSA05.jpg,AMSA06.jpg,AMNE11.jpg,AMNE15.jpg,AMSA06.jpg,MS,2,num_6,32,num_2,0.466796929482,,,2017_May_05_1648,60.0063705595,FEMA4ImagesEEG,001,200214,
AFNE01.JPG,AFNE01.JPG,AFNE01.JPG,AFNE01.JPG,AFNE01.JPG,AFNE01.JPG,,,,,5,2,52,5,,,,,,,,,,,,,,,,,,,AMSA04.jpg,AMNE12.jpg,AMSA14.jpg,AMNE20.jpg,AMSA04.jpg,MS,2,num_8,16,num_8,3.83355116867,,,2017_May_05_1648,60.0063705595,FEMA4ImagesEEG,001,200214,
AFNE01.JPG,AFNE01.JPG,AFNE01.JPG,AFNE01.JPG,AFNE01.JPG,AFNE01.JPG,,,,,5,3,53,7,,,,,,,,,,,,,,,,,,,AMNE16.jpg,AMNE20.jpg,AMSA10.jpg,AMSA04.jpg,AMSA04.jpg,MS,2,num_4,32,num_2,3.28328991053,,,2017_May_05_1648,60.0063705595,FEMA4ImagesEEG,001,200214,
AFNE01.JPG,AFNE01.JPG,AFNE01.JPG,AFNE01.JPG,AFNE01.JPG,AFNE01.JPG,,,,,5,4,54,8,,,,,,,,,,,,,,,,,,,AMSA05.jpg,AMNE11.jpg,AMSA10.jpg,AMNE18.jpg,AMSA10.jpg,MS,2,num_2,32,num_6,0.683501085266,,,2017_May_05_1648,60.0063705595,FEMA4ImagesEEG,001,200214,
AFNE01.JPG,AFNE01.JPG,AFNE01.JPG,AFNE01.JPG,AFNE01.JPG,AFNE01.JPG,,,,,5,5,55,0,,,,,,,,,,,,,,,,,,,AMNE02.jpg,AMSA05.jpg,AMNE14.jpg,AMSA15.jpg,AMNE14.jpg,MN,1,num_2,32,num_8,1.40007229452,,,2017_May_05_1648,60.0063705595,FEMA4ImagesEEG,001,200214,
AFNE01.JPG,AFNE01.JPG,AFNE01.JPG,AFNE01.JPG,AFNE01.JPG,AFNE01.JPG,,,,,5,6,56,9,,,,,,,,,,,,,,,,,,,AMNE16.jpg,AMNE02.jpg,AMSA16.jpg,AMSA09.jpg,AMSA09.jpg,MS,2,num_4,32,num_8,3.24993881886,,,2017_May_05_1648,60.0063705595,FEMA4ImagesEEG,001,200214,
AFNE01.JPG,AFNE01.JPG,AFNE01.JPG,AFNE01.JPG,AFNE01.JPG,AFNE01.JPG,,,,,5,7,57,3,,,,,,,,,,,,,,,,,,,AMNE02.jpg,AMSA03.jpg,AMNE07.jpg,AMSA14.jpg,AMSA03.jpg,MS,2,num_6,32,num_2,3.0165960025,,,2017_May_05_1648,60.0063705595,FEMA4ImagesEEG,001,200214,
AFNE01.JPG,AFNE01.JPG,AFNE01.JPG,AFNE01.JPG,AFNE01.JPG,AFNE01.JPG,,,,,5,8,58,4,,,,,,,,,,,,,,,,,,,AMNE12.jpg,AMSA08.jpg,AMSA10.jpg,AMNE17.jpg,AMNE17.jpg,MN,1,num_4,32,num_6,0.80049451557,,,2017_May_05_1648,60.0063705595,FEMA4ImagesEEG,001,200214,
AFNE01.JPG,AFNE01.JPG,AFNE01.JPG,AFNE01.JPG,AFNE01.JPG,AFNE01.JPG,,,,,5,9,59,1,,,,,,,,,,,,,,,,,,,AMSA02.jpg,AMNE05.jpg,AMSA16.jpg,AMNE11.jpg,AMSA02.jpg,MS,2,num_8,16,num_8,1.93333790917,,,2017_May_05_1648,60.0063705595,FEMA4ImagesEEG,001,200214,
,,,,,,,,,,,,,,,,,,,,,,,,,,,,,,,,,,,,,,,,,,,space,47.8962983182,2017_May_05_1648,60.0063705595,FEMA4ImagesEEG,001,200214,
AFNE01.JPG,AFNE01.JPG,AFNE01.JPG,AFNE01.JPG,AFNE01.JPG,AFNE01.JPG,,,,,,,,,0,0,0,6,,,,,,,,,,,,,,,AFNE07.jpg,AFSA20.jpg,AFNE10.jpg,AFSA07.jpg,AFNE10.jpg,FN,3,num_2,32,num_8,0.46680847602,,,2017_May_05_1648,60.0063705595,FEMA4ImagesEEG,001,200214,
AFNE01.JPG,AFNE01.JPG,AFNE01.JPG,AFNE01.JPG,AFNE01.JPG,AFNE01.JPG,,,,,,,,,0,1,1,9,,,,,,,,,,,,,,,AFSA13.jpg,AFNE07.jpg,AFNE13.jpg,AFSA11.jpg,AFNE13.jpg,FN,3,num_2,32,num_4,0.333525028313,,,2017_May_05_1648,60.0063705595,FEMA4ImagesEEG,001,200214,
AFNE01.JPG,AFNE01.JPG,AFNE01.JPG,AFNE01.JPG,AFNE01.JPG,AFNE01.JPG,,,,,,,,,0,2,2,3,,,,,,,,,,,,,,,AFNE01.jpg,AFSA20.jpg,AFNE03.jpg,AFSA05.jpg,AFSA05.jpg,FS,4,num_4,32,num_6,0.26678531873,,,2017_May_05_1648,60.0063705595,FEMA4ImagesEEG,001,200214,
AFNE01.JPG,AFNE01.JPG,AFNE01.JPG,AFNE01.JPG,AFNE01.JPG,AFNE01.JPG,,,,,,,,,0,3,3,2,,,,,,,,,,,,,,,AFNE12.jpg,AFSA18.jpg,AFSA08.jpg,AFNE20.jpg,AFNE12.jpg,FN,3,num_8,32,num_2,0.350128407823,,,2017_May_05_1648,60.0063705595,FEMA4ImagesEEG,001,200214,
AFNE01.JPG,AFNE01.JPG,AFNE01.JPG,AFNE01.JPG,AFNE01.JPG,AFNE01.JPG,,,,,,,,,0,4,4,1,,,,,,,,,,,,,,,AFNE01.jpg,AFSA06.jpg,AFNE14.jpg,AFSA12.jpg,AFNE01.jpg,FN,3,num_8,16,num_8,0.633514219429,,,2017_May_05_1648,60.0063705595,FEMA4ImagesEEG,001,200214,
AFNE01.JPG,AFNE01.JPG,AFNE01.JPG,AFNE01.JPG,AFNE01.JPG,AFNE01.JPG,,,,,,,,,0,5,5,8,,,,,,,,,,,,,,,AFNE03.jpg,AFSA03.jpg,AFSA05.jpg,AFNE16.jpg,AFSA05.jpg,FS,4,num_2,32,num_8,2.49983979086,,,2017_May_05_1648,60.0063705595,FEMA4ImagesEEG,001,200214,
AFNE01.JPG,AFNE01.JPG,AFNE01.JPG,AFNE01.JPG,AFNE01.JPG,AFNE01.JPG,,,,,,,,,0,6,6,4,,,,,,,,,,,,,,,AFSA18.jpg,AFNE11.jpg,AFSA08.jpg,AFNE19.jpg,AFSA18.jpg,FS,4,num_8,16,num_8,1.31673882762,,,2017_May_05_1648,60.0063705595,FEMA4ImagesEEG,001,200214,
AFNE01.JPG,AFNE01.JPG,AFNE01.JPG,AFNE01.JPG,AFNE01.JPG,AFNE01.JPG,,,,,,,,,0,7,7,0,,,,,,,,,,,,,,,AFNE19.jpg,AFNE10.jpg,AFSA18.jpg,AFSA14.jpg,AFNE10.jpg,FN,3,num_6,32,num_4,1.33342431625,,,2017_May_05_1648,60.0063705595,FEMA4ImagesEEG,001,200214,
AFNE01.JPG,AFNE01.JPG,AFNE01.JPG,AFNE01.JPG,AFNE01.JPG,AFNE01.JPG,,,,,,,,,0,8,8,7,,,,,,,,,,,,,,,AFNE20.jpg,AFSA06.jpg,AFNE08.jpg,AFSA01.jpg,AFNE08.jpg,FN,3,num_2,32,num_6,0.650153200841,,,2017_May_05_1648,60.0063705595,FEMA4ImagesEEG,001,200214,
AFNE01.JPG,AFNE01.JPG,AFNE01.JPG,AFNE01.JPG,AFNE01.JPG,AFNE01.JPG,,,,,,,,,0,9,9,5,,,,,,,,,,,,,,,AFNE12.jpg,AFSA03.jpg,AFSA04.jpg,AFNE15.jpg,AFSA03.jpg,FS,4,num_6,32,num_8,0.850149737205,,,2017_May_05_1648,60.0063705595,FEMA4ImagesEEG,001,200214,
AFNE01.JPG,AFNE01.JPG,AFNE01.JPG,AFNE01.JPG,AFNE01.JPG,AFNE01.JPG,,,,,,,,,1,0,10,1,,,,,,,,,,,,,,,AFNE03.jpg,AFSA09.jpg,AFSA10.jpg,AFNE08.jpg,AFNE03.jpg,FN,3,num_8,32,num_2,0.766766555607,,,2017_May_05_1648,60.0063705595,FEMA4ImagesEEG,001,200214,
AFNE01.JPG,AFNE01.JPG,AFNE01.JPG,AFNE01.JPG,AFNE01.JPG,AFNE01.JPG,,,,,,,,,1,1,11,4,,,,,,,,,,,,,,,AFNE14.jpg,AFSA03.jpg,AFSA20.jpg,AFNE04.jpg,AFNE04.jpg,FN,3,num_4,32,num_6,1.16674551507,,,2017_May_05_1648,60.0063705595,FEMA4ImagesEEG,001,200214,
AFNE01.JPG,AFNE01.JPG,AFNE01.JPG,AFNE01.JPG,AFNE01.JPG,AFNE01.JPG,,,,,,,,,1,2,12,8,,,,,,,,,,,,,,,AFSA10.jpg,AFSA07.jpg,AFNE10.jpg,AFNE16.jpg,AFSA10.jpg,FS,4,num_8,16,num_8,0.750110574998,,,2017_May_05_1648,60.0063705595,FEMA4ImagesEEG,001,200214,
AFNE01.JPG,AFNE01.JPG,AFNE01.JPG,AFNE01.JPG,AFNE01.JPG,AFNE01.JPG,,,,,,,,,1,3,13,9,,,,,,,,,,,,,,,AFSA04.jpg,AFSA19.jpg,AFNE03.jpg,AFNE11.jpg,AFNE11.jpg,FN,3,num_4,32,num_2,0.783514908981,,,2017_May_05_1648,60.0063705595,FEMA4ImagesEEG,001,200214,
AFNE01.JPG,AFNE01.JPG,AFNE01.JPG,AFNE01.JPG,AFNE01.JPG,AFNE01.JPG,,,,,,,,,1,4,14,7,,,,,,,,,,,,,,,AFNE10.jpg,AFNE14.jpg,AFSA09.jpg,AFSA16.jpg,AFNE10.jpg,FN,3,num_8,32,num_6,0.916752491146,,,2017_May_05_1648,60.0063705595,FEMA4ImagesEEG,001,200214,
AFNE01.JPG,AFNE01.JPG,AFNE01.JPG,AFNE01.JPG,AFNE01.JPG,AFNE01.JPG,,,,,,,,,1,5,15,0,,,,,,,,,,,,,,,AFNE16.jpg,AFNE12.jpg,AFSA17.jpg,AFSA15.jpg,AFNE16.jpg,FN,3,num_8,32,num_4,1.38342497405,,,2017_May_05_1648,60.0063705595,FEMA4ImagesEEG,001,200214,
AFNE01.JPG,AFNE01.JPG,AFNE01.JPG,AFNE01.JPG,AFNE01.JPG,AFNE01.JPG,,,,,,,,,1,6,16,5,,,,,,,,,,,,,,,AFNE07.jpg,AFNE12.jpg,AFSA12.jpg,AFSA17.jpg,AFSA12.jpg,FS,4,num_2,32,num_6,1.5834381883,,,2017_May_05_1648,60.0063705595,FEMA4ImagesEEG,001,200214,
AFNE01.JPG,AFNE01.JPG,AFNE01.JPG,AFNE01.JPG,AFNE01.JPG,AFNE01.JPG,,,,,,,,,1,7,17,6,,,,,,,,,,,,,,,AFSA14.jpg,AFNE20.jpg,AFNE03.jpg,AFSA04.jpg,AFSA14.jpg,FS,4,num_8,16,num_8,0.78343664878,,,2017_May_05_1648,60.0063705595,FEMA4ImagesEEG,001,200214,
AFNE01.JPG,AFNE01.JPG,AFNE01.JPG,AFNE01.JPG,AFNE01.JPG,AFNE01.JPG,,,,,,,,,1,8,18,3,,,,,,,,,,,,,,,AFSA15.jpg,AFSA05.jpg,AFNE14.jpg,AFNE15.jpg,AFSA05.jpg,FS,4,num_6,16,num_6,0.650130107766,,,2017_May_05_1648,60.0063705595,FEMA4ImagesEEG,001,200214,
AFNE01.JPG,AFNE01.JPG,AFNE01.JPG,AFNE01.JPG,AFNE01.JPG,AFNE01.JPG,,,,,,,,,1,9,19,2,,,,,,,,,,,,,,,AFNE14.jpg,AFNE04.jpg,AFSA17.jpg,AFSA13.jpg,AFSA13.jpg,FS,4,num_4,32,num_2,0.566809149692,,,2017_May_05_1648,60.0063705595,FEMA4ImagesEEG,001,200214,
AFNE01.JPG,AFNE01.JPG,AFNE01.JPG,AFNE01.JPG,AFNE01.JPG,AFNE01.JPG,,,,,,,,,2,0,20,3,,,,,,,,,,,,,,,AFNE20.jpg,AFNE07.jpg,AFSA07.jpg,AFSA17.jpg,AFNE07.jpg,FN,3,num_6,16,num_6,0.583481808892,,,2017_May_05_1648,60.0063705595,FEMA4ImagesEEG,001,200214,
AFNE01.JPG,AFNE01.JPG,AFNE01.JPG,AFNE01.JPG,AFNE01.JPG,AFNE01.JPG,,,,,,,,,2,1,21,7,,,,,,,,,,,,,,,AFSA17.jpg,AFNE11.jpg,AFSA16.jpg,AFNE02.jpg,AFNE11.jpg,FN,3,num_6,32,num_8,0.533516432624,,,2017_May_05_1648,60.0063705595,FEMA4ImagesEEG,001,200214,
AFNE01.JPG,AFNE01.JPG,AFNE01.JPG,AFNE01.JPG,AFNE01.JPG,AFNE01.JPG,,,,,,,,,2,2,22,1,,,,,,,,,,,,,,,AFSA12.jpg,AFSA03.jpg,AFNE13.jpg,AFNE19.jpg,AFSA03.jpg,FS,4,num_6,32,num_8,0.766787403729,,,2017_May_05_1648,60.0063705595,FEMA4ImagesEEG,001,200214,
AFNE01.JPG,AFNE01.JPG,AFNE01.JPG,AFNE01.JPG,AFNE01.JPG,AFNE01.JPG,,,,,,,,,2,3,23,8,,,,,,,,,,,,,,,AFNE10.jpg,AFSA03.jpg,AFSA14.jpg,AFNE02.jpg,AFNE02.jpg,FN,3,num_4,32,num_8,2.73339044629,,,2017_May_05_1648,60.0063705595,FEMA4ImagesEEG,001,200214,
AFNE01.JPG,AFNE01.JPG,AFNE01.JPG,AFNE01.JPG,AFNE01.JPG,AFNE01.JPG,,,,,,,,,2,4,24,9,,,,,,,,,,,,,,,AFNE09.jpg,AFSA03.jpg,AFNE07.jpg,AFSA17.jpg,AFSA03.jpg,FS,4,num_6,32,num_4,2.3169473079,,,2017_May_05_1648,60.0063705595,FEMA4ImagesEEG,001,200214,
AFNE01.JPG,AFNE01.JPG,AFNE01.JPG,AFNE01.JPG,AFNE01.JPG,AFNE01.JPG,,,,,,,,,2,5,25,6,,,,,,,,,,,,,,,AFSA14.jpg,AFNE01.jpg,AFSA19.jpg,AFNE02.jpg,AFSA19.jpg,FS,4,num_2,32,num_6,0.750141365919,,,2017_May_05_1648,60.0063705595,FEMA4ImagesEEG,001,200214,
AFNE01.JPG,AFNE01.JPG,AFNE01.JPG,AFNE01.JPG,AFNE01.JPG,AFNE01.JPG,,,,,,,,,2,6,26,0,,,,,,,,,,,,,,,AFSA14.jpg,AFSA04.jpg,AFNE07.jpg,AFNE05.jpg,AFNE07.jpg,FN,3,num_2,32,num_6,0.95014239219,,,2017_May_05_1648,60.0063705595,FEMA4ImagesEEG,001,200214,
AFNE01.JPG,AFNE01.JPG,AFNE01.JPG,AFNE01.JPG,AFNE01.JPG,AFNE01.JPG,,,,,,,,,2,7,27,4,,,,,,,,,,,,,,,AFNE03.jpg,AFSA15.jpg,AFNE13.jpg,AFSA01.jpg,AFSA01.jpg,FS,4,num_4,16,num_4,0.800166078843,,,2017_May_05_1648,60.0063705595,FEMA4ImagesEEG,001,200214,
AFNE01.JPG,AFNE01.JPG,AFNE01.JPG,AFNE01.JPG,AFNE01.JPG,AFNE01.JPG,,,,,,,,,2,8,28,5,,,,,,,,,,,,,,,AFSA02.jpg,AFNE06.jpg,AFNE08.jpg,AFSA07.jpg,AFNE08.jpg,FN,3,num_2,16,num_2,0.450175267877,,,2017_May_05_1648,60.0063705595,FEMA4ImagesEEG,001,200214,
AFNE01.JPG,AFNE01.JPG,AFNE01.JPG,AFNE01.JPG,AFNE01.JPG,AFNE01.JPG,,,,,,,,,2,9,29,2,,,,,,,,,,,,,,,AFNE05.jpg,AFNE20.jpg,AFSA03.jpg,AFSA18.jpg,AFNE20.jpg,FN,3,num_6,32,num_8,0.766836797586,,,2017_May_05_1648,60.0063705595,FEMA4ImagesEEG,001,200214,
AFNE01.JPG,AFNE01.JPG,AFNE01.JPG,AFNE01.JPG,AFNE01.JPG,AFNE01.JPG,,,,,,,,,3,0,30,6,,,,,,,,,,,,,,,AFSA05.jpg,AFNE09.jpg,AFNE11.jpg,AFSA12.jpg,AFSA05.jpg,FS,4,num_8,32,num_4,0.800116043538,,,2017_May_05_1648,60.0063705595,FEMA4ImagesEEG,001,200214,
AFNE01.JPG,AFNE01.JPG,AFNE01.JPG,AFNE01.JPG,AFNE01.JPG,AFNE01.JPG,,,,,,,,,3,1,31,0,,,,,,,,,,,,,,,AFSA16.jpg,AFSA08.jpg,AFNE04.jpg,AFNE19.jpg,AFSA08.jpg,FS,4,num_6,16,num_6,0.800146834459,,,2017_May_05_1648,60.0063705595,FEMA4ImagesEEG,001,200214,
AFNE01.JPG,AFNE01.JPG,AFNE01.JPG,AFNE01.JPG,AFNE01.JPG,AFNE01.JPG,,,,,,,,,3,2,32,4,,,,,,,,,,,,,,,AFNE13.jpg,AFSA03.jpg,AFSA18.jpg,AFNE08.jpg,AFNE08.jpg,FN,3,num_4,32,num_2,0.566777075874,,,2017_May_05_1648,60.0063705595,FEMA4ImagesEEG,001,200214,
AFNE01.JPG,AFNE01.JPG,AFNE01.JPG,AFNE01.JPG,AFNE01.JPG,AFNE01.JPG,,,,,,,,,3,3,33,9,,,,,,,,,,,,,,,AFNE12.jpg,AFSA15.jpg,AFSA07.jpg,AFNE05.jpg,AFSA07.jpg,FS,4,num_2,32,num_6,0.583482771181,,,2017_May_05_1648,60.0063705595,FEMA4ImagesEEG,001,200214,
AFNE01.JPG,AFNE01.JPG,AFNE01.JPG,AFNE01.JPG,AFNE01.JPG,AFNE01.JPG,,,,,,,,,3,4,34,5,,,,,,,,,,,,,,,AFSA16.jpg,AFNE18.jpg,AFNE07.jpg,AFSA13.jpg,AFNE07.jpg,FN,3,num_2,16,num_2,0.833490549121,,,2017_May_05_1648,60.0063705595,FEMA4ImagesEEG,001,200214,
AFNE01.JPG,AFNE01.JPG,AFNE01.JPG,AFNE01.JPG,AFNE01.JPG,AFNE01.JPG,,,,,,,,,3,5,35,2,,,,,,,,,,,,,,,AFSA09.jpg,AFNE18.jpg,AFNE13.jpg,AFSA12.jpg,AFSA12.jpg,FS,4,num_4,16,num_4,1.16703193518,,,2017_May_05_1648,60.0063705595,FEMA4ImagesEEG,001,200214,
AFNE01.JPG,AFNE01.JPG,AFNE01.JPG,AFNE01.JPG,AFNE01.JPG,AFNE01.JPG,,,,,,,,,3,6,36,8,,,,,,,,,,,,,,,AFSA18.jpg,AFNE08.jpg,AFSA01.jpg,AFNE18.jpg,AFNE18.jpg,FN,3,num_4,32,num_2,0.700144236209,,,2017_May_05_1648,60.0063705595,FEMA4ImagesEEG,001,200214,
AFNE01.JPG,AFNE01.JPG,AFNE01.JPG,AFNE01.JPG,AFNE01.JPG,AFNE01.JPG,,,,,,,,,3,7,37,1,,,,,,,,,,,,,,,AFSA02.jpg,AFNE03.jpg,AFSA14.jpg,AFNE19.jpg,AFNE03.jpg,FN,3,num_6,32,num_8,0.416804290377,,,2017_May_05_1648,60.0063705595,FEMA4ImagesEEG,001,200214,
AFNE01.JPG,AFNE01.JPG,AFNE01.JPG,AFNE01.JPG,AFNE01.JPG,AFNE01.JPG,,,,,,,,,3,8,38,7,,,,,,,,,,,,,,,AFSA03.jpg,AFSA19.jpg,AFNE02.jpg,AFNE14.jpg,AFNE14.jpg,FN,3,num_4,32,num_6,1.20009372011,,,2017_May_05_1648,60.0063705595,FEMA4ImagesEEG,001,200214,
AFNE01.JPG,AFNE01.JPG,AFNE01.JPG,AFNE01.JPG,AFNE01.JPG,AFNE01.JPG,,,,,,,,,3,9,39,3,,,,,,,,,,,,,,,AFNE17.jpg,AFSA03.jpg,AFSA07.jpg,AFNE05.jpg,AFNE17.jpg,FN,3,num_8,32,num_2,2.38334831712,,,2017_May_05_1648,60.0063705595,FEMA4ImagesEEG,001,200214,
AFNE01.JPG,AFNE01.JPG,AFNE01.JPG,AFNE01.JPG,AFNE01.JPG,AFNE01.JPG,,,,,,,,,4,0,40,7,,,,,,,,,,,,,,,AFNE12.jpg,AFNE09.jpg,AFSA07.jpg,AFSA17.jpg,AFSA17.jpg,FS,4,num_4,32,num_2,1.48342596833,,,2017_May_05_1648,60.0063705595,FEMA4ImagesEEG,001,200214,
AFNE01.JPG,AFNE01.JPG,AFNE01.JPG,AFNE01.JPG,AFNE01.JPG,AFNE01.JPG,,,,,,,,,4,1,41,2,,,,,,,,,,,,,,,AFNE05.jpg,AFSA18.jpg,AFSA17.jpg,AFNE10.jpg,AFNE05.jpg,FN,3,num_8,32,num_4,2.43333871104,,,2017_May_05_1648,60.0063705595,FEMA4ImagesEEG,001,200214,
AFNE01.JPG,AFNE01.JPG,AFNE01.JPG,AFNE01.JPG,AFNE01.JPG,AFNE01.JPG,,,,,,,,,4,2,42,1,,,,,,,,,,,,,,,AFNE08.jpg,AFSA14.jpg,AFSA03.jpg,AFNE13.jpg,AFSA03.jpg,FS,4,num_2,32,num_8,0.65020227409,,,2017_May_05_1648,60.0063705595,FEMA4ImagesEEG,001,200214,
AFNE01.JPG,AFNE01.JPG,AFNE01.JPG,AFNE01.JPG,AFNE01.JPG,AFNE01.JPG,,,,,,,,,4,3,43,4,,,,,,,,,,,,,,,AFSA07.jpg,AFNE01.jpg,AFNE12.jpg,AFSA14.jpg,AFNE01.jpg,FN,3,num_6,32,num_8,0.433202397078,,,2017_May_05_1648,60.0063705595,FEMA4ImagesEEG,001,200214,
AFNE01.JPG,AFNE01.JPG,AFNE01.JPG,AFNE01.JPG,AFNE01.JPG,AFNE01.JPG,,,,,,,,,4,4,44,8,,,,,,,,,,,,,,,AFNE07.jpg,AFNE20.jpg,AFSA18.jpg,AFSA01.jpg,AFSA18.jpg,FS,4,num_2,32,num_6,0.850106757833,,,2017_May_05_1648,60.0063705595,FEMA4ImagesEEG,001,200214,
AFNE01.JPG,AFNE01.JPG,AFNE01.JPG,AFNE01.JPG,AFNE01.JPG,AFNE01.JPG,,,,,,,,,4,5,45,5,,,,,,,,,,,,,,,AFSA06.jpg,AFSA03.jpg,AFNE09.jpg,AFNE06.jpg,AFNE06.jpg,FN,3,num_4,16,num_4,0.833466172684,,,2017_May_05_1648,60.0063705595,FEMA4ImagesEEG,001,200214,
AFNE01.JPG,AFNE01.JPG,AFNE01.JPG,AFNE01.JPG,AFNE01.JPG,AFNE01.JPG,,,,,,,,,4,6,46,3,,,,,,,,,,,,,,,AFNE08.jpg,AFNE19.jpg,AFSA14.jpg,AFSA04.jpg,AFNE19.jpg,FN,3,num_6,16,num_6,0.999991340097,,,2017_May_05_1648,60.0063705595,FEMA4ImagesEEG,001,200214,
AFNE01.JPG,AFNE01.JPG,AFNE01.JPG,AFNE01.JPG,AFNE01.JPG,AFNE01.JPG,,,,,,,,,4,7,47,9,,,,,,,,,,,,,,,AFNE14.jpg,AFSA17.jpg,AFNE13.jpg,AFSA15.jpg,AFSA17.jpg,FS,4,num_6,32,num_2,0.566790226148,,,2017_May_05_1648,60.0063705595,FEMA4ImagesEEG,001,200214,
AFNE01.JPG,AFNE01.JPG,AFNE01.JPG,AFNE01.JPG,AFNE01.JPG,AFNE01.JPG,,,,,,,,,4,8,48,6,,,,,,,,,,,,,,,AFSA06.jpg,AFSA10.jpg,AFNE04.jpg,AFNE20.jpg,AFSA06.jpg,FS,4,num_8,32,num_6,1.03344025696,,,2017_May_05_1648,60.0063705595,FEMA4ImagesEEG,001,200214,
AFNE01.JPG,AFNE01.JPG,AFNE01.JPG,AFNE01.JPG,AFNE01.JPG,AFNE01.JPG,,,,,,,,,4,9,49,0,,,,,,,,,,,,,,,AFNE17.jpg,AFNE03.jpg,AFSA19.jpg,AFSA12.jpg,AFNE17.jpg,FN,3,num_8,32,num_2,0.816760477377,,,2017_May_05_1648,60.0063705595,FEMA4ImagesEEG,001,200214,
AFNE01.JPG,AFNE01.JPG,AFNE01.JPG,AFNE01.JPG,AFNE01.JPG,AFNE01.JPG,,,,,,,,,5,0,50,2,,,,,,,,,,,,,,,AFNE08.jpg,AFSA13.jpg,AFSA09.jpg,AFNE11.jpg,AFSA13.jpg,FS,4,num_6,32,num_2,0.450176550774,,,2017_May_05_1648,60.0063705595,FEMA4ImagesEEG,001,200214,
AFNE01.JPG,AFNE01.JPG,AFNE01.JPG,AFNE01.JPG,AFNE01.JPG,AFNE01.JPG,,,,,,,,,5,1,51,1,,,,,,,,,,,,,,,AFNE14.jpg,AFSA16.jpg,AFNE19.jpg,AFSA15.jpg,AFNE14.jpg,FN,3,num_8,32,num_6,0.833490869729,,,2017_May_05_1648,60.0063705595,FEMA4ImagesEEG,001,200214,
AFNE01.JPG,AFNE01.JPG,AFNE01.JPG,AFNE01.JPG,AFNE01.JPG,AFNE01.JPG,,,,,,,,,5,2,52,5,,,,,,,,,,,,,,,AFSA02.jpg,AFNE17.jpg,AFSA20.jpg,AFNE19.jpg,AFSA02.jpg,FS,4,num_8,32,num_6,1.14996252162,,,2017_May_05_1648,60.0063705595,FEMA4ImagesEEG,001,200214,
AFNE01.JPG,AFNE01.JPG,AFNE01.JPG,AFNE01.JPG,AFNE01.JPG,AFNE01.JPG,,,,,,,,,5,3,53,3,,,,,,,,,,,,,,,AFNE20.jpg,AFNE17.jpg,AFSA13.jpg,AFSA11.jpg,AFSA13.jpg,FS,4,num_2,32,num_6,2.6833432815,,,2017_May_05_1648,60.0063705595,FEMA4ImagesEEG,001,200214,
AFNE01.JPG,AFNE01.JPG,AFNE01.JPG,AFNE01.JPG,AFNE01.JPG,AFNE01.JPG,,,,,,,,,5,4,54,9,,,,,,,,,,,,,,,AFNE16.jpg,AFSA14.jpg,AFNE17.jpg,AFSA12.jpg,AFNE16.jpg,FN,3,num_8,32,num_2,0.749834739137,,,2017_May_05_1648,60.0063705595,FEMA4ImagesEEG,001,200214,
AFNE01.JPG,AFNE01.JPG,AFNE01.JPG,AFNE01.JPG,AFNE01.JPG,AFNE01.JPG,,,,,,,,,5,5,55,0,,,,,,,,,,,,,,,AFSA07.jpg,AFNE04.jpg,AFSA17.jpg,AFNE05.jpg,AFSA17.jpg,FS,4,num_2,16,num_2,0.90010003862,,,2017_May_05_1648,60.0063705595,FEMA4ImagesEEG,001,200214,
AFNE01.JPG,AFNE01.JPG,AFNE01.JPG,AFNE01.JPG,AFNE01.JPG,AFNE01.JPG,,,,,,,,,5,6,56,7,,,,,,,,,,,,,,,AFSA11.jpg,AFNE19.jpg,AFNE18.jpg,AFSA03.jpg,AFSA11.jpg,FS,4,num_8,32,num_2,0.900154564064,,,2017_May_05_1648,60.0063705595,FEMA4ImagesEEG,001,200214,
AFNE01.JPG,AFNE01.JPG,AFNE01.JPG,AFNE01.JPG,AFNE01.JPG,AFNE01.JPG,,,,,,,,,5,7,57,8,,,,,,,,,,,,,,,AFSA13.jpg,AFNE01.jpg,AFNE11.jpg,AFSA17.jpg,AFSA13.jpg,FS,4,num_8,32,num_6,0.900143017527,,,2017_May_05_1648,60.0063705595,FEMA4ImagesEEG,001,200214,
AFNE01.JPG,AFNE01.JPG,AFNE01.JPG,AFNE01.JPG,AFNE01.JPG,AFNE01.JPG,,,,,,,,,5,8,58,6,,,,,,,,,,,,,,,AFNE09.jpg,AFNE20.jpg,AFSA03.jpg,AFSA16.jpg,AFNE20.jpg,FN,3,num_6,16,num_6,0.73332084599,,,2017_May_05_1648,60.0063705595,FEMA4ImagesEEG,001,200214,
AFNE01.JPG,AFNE01.JPG,AFNE01.JPG,AFNE01.JPG,AFNE01.JPG,AFNE01.JPG,,,,,,,,,5,9,59,4,,,,,,,,,,,,,,,AFNE18.jpg,AFSA19.jpg,AFSA14.jpg,AFNE19.jpg,AFSA14.jpg,FS,4,num_2,16,num_2,0.566810111748,,,2017_May_05_1648,60.0063705595,FEMA4ImagesEEG,001,200214,
,,,,,,,,,,,,,,,,,,,,,,,,,,,,,,,,,,,,,,,,,,,space,39.580065296,2017_May_05_1648,60.0063705595,FEMA4ImagesEEG,001,200214,
AFNE01.JPG,AFNE01.JPG,AFNE01.JPG,AFNE01.JPG,AFNE01.JPG,AFNE01.JPG,,,,,,,,,,,,,0,0,0,2,,,,,,,,,,,AMNE02.jpg,AMNE01.jpg,AMSA17.jpg,AMSA16.jpg,AMSA17.jpg,MS,2,num_2,32,num_4,0.833449494326,,,2017_May_05_1648,60.0063705595,FEMA4ImagesEEG,001,200214,
AFNE01.JPG,AFNE01.JPG,AFNE01.JPG,AFNE01.JPG,AFNE01.JPG,AFNE01.JPG,,,,,,,,,,,,,0,1,1,5,,,,,,,,,,,AMNE01.jpg,AMNE08.jpg,AMSA07.jpg,AMSA10.jpg,AMSA10.jpg,MS,2,num_4,32,num_6,1.30008605425,,,2017_May_05_1648,60.0063705595,FEMA4ImagesEEG,001,200214,
AFNE01.JPG,AFNE01.JPG,AFNE01.JPG,AFNE01.JPG,AFNE01.JPG,AFNE01.JPG,,,,,,,,,,,,,0,2,2,9,,,,,,,,,,,AMSA13.jpg,AMNE01.jpg,AMNE15.jpg,AMSA06.jpg,AMNE15.jpg,MN,1,num_2,32,num_8,1.35007644817,,,2017_May_05_1648,60.0063705595,FEMA4ImagesEEG,001,200214,
AFNE01.JPG,AFNE01.JPG,AFNE01.JPG,AFNE01.JPG,AFNE01.JPG,AFNE01.JPG,,,,,,,,,,,,,0,3,3,8,,,,,,,,,,,AMSA16.jpg,AMNE14.jpg,AMNE07.jpg,AMSA04.jpg,AMSA04.jpg,MS,2,num_4,32,num_8,0.683476067614,,,2017_May_05_1648,60.0063705595,FEMA4ImagesEEG,001,200214,
AFNE01.JPG,AFNE01.JPG,AFNE01.JPG,AFNE01.JPG,AFNE01.JPG,AFNE01.JPG,,,,,,,,,,,,,0,4,4,0,,,,,,,,,,,AMSA12.jpg,AMNE09.jpg,AMNE15.jpg,AMSA14.jpg,AMSA14.jpg,MS,2,num_4,32,num_8,1.30007867725,,,2017_May_05_1648,60.0063705595,FEMA4ImagesEEG,001,200214,
AFNE01.JPG,AFNE01.JPG,AFNE01.JPG,AFNE01.JPG,AFNE01.JPG,AFNE01.JPG,,,,,,,,,,,,,0,5,5,3,,,,,,,,,,,AMSA02.jpg,AMNE08.jpg,AMSA09.jpg,AMNE18.jpg,AMNE08.jpg,MN,1,num_6,32,num_8,0.533374345163,,,2017_May_05_1648,60.0063705595,FEMA4ImagesEEG,001,200214,
AFNE01.JPG,AFNE01.JPG,AFNE01.JPG,AFNE01.JPG,AFNE01.JPG,AFNE01.JPG,,,,,,,,,,,,,0,6,6,7,,,,,,,,,,,AMNE01.jpg,AMSA08.jpg,AMNE03.jpg,AMSA06.jpg,AMSA08.jpg,MS,2,num_6,32,num_8,0.566795999417,,,2017_May_05_1648,60.0063705595,FEMA4ImagesEEG,001,200214,
AFNE01.JPG,AFNE01.JPG,AFNE01.JPG,AFNE01.JPG,AFNE01.JPG,AFNE01.JPG,,,,,,,,,,,,,0,7,7,4,,,,,,,,,,,AMNE05.jpg,AMNE04.jpg,AMSA02.jpg,AMSA18.jpg,AMSA18.jpg,MS,2,num_4,32,num_6,1.0501119541,,,2017_May_05_1648,60.0063705595,FEMA4ImagesEEG,001,200214,
AFNE01.JPG,AFNE01.JPG,AFNE01.JPG,AFNE01.JPG,AFNE01.JPG,AFNE01.JPG,,,,,,,,,,,,,0,8,8,1,,,,,,,,,,,AMSA19.jpg,AMNE11.jpg,AMSA13.jpg,AMNE04.jpg,AMSA13.jpg,MS,2,num_2,32,num_6,0.516808492132,,,2017_May_05_1648,60.0063705595,FEMA4ImagesEEG,001,200214,
AFNE01.JPG,AFNE01.JPG,AFNE01.JPG,AFNE01.JPG,AFNE01.JPG,AFNE01.JPG,,,,,,,,,,,,,0,9,9,6,,,,,,,,,,,AMSA17.jpg,AMSA14.jpg,AMNE19.jpg,AMNE06.jpg,AMNE19.jpg,MN,1,num_2,32,num_6,0.566861430183,,,2017_May_05_1648,60.0063705595,FEMA4ImagesEEG,001,200214,
AFNE01.JPG,AFNE01.JPG,AFNE01.JPG,AFNE01.JPG,AFNE01.JPG,AFNE01.JPG,,,,,,,,,,,,,1,0,10,1,,,,,,,,,,,AMNE03.jpg,AMSA09.jpg,AMSA20.jpg,AMNE08.jpg,AMSA09.jpg,MS,2,num_6,16,num_6,0.733451707289,,,2017_May_05_1648,60.0063705595,FEMA4ImagesEEG,001,200214,
AFNE01.JPG,AFNE01.JPG,AFNE01.JPG,AFNE01.JPG,AFNE01.JPG,AFNE01.JPG,,,,,,,,,,,,,1,1,11,2,,,,,,,,,,,AMNE01.jpg,AMNE08.jpg,AMSA04.jpg,AMSA12.jpg,AMSA04.jpg,MS,2,num_2,32,num_6,0.600145166507,,,2017_May_05_1648,60.0063705595,FEMA4ImagesEEG,001,200214,
AFNE01.JPG,AFNE01.JPG,AFNE01.JPG,AFNE01.JPG,AFNE01.JPG,AFNE01.JPG,,,,,,,,,,,,,1,2,12,0,,,,,,,,,,,AMSA06.jpg,AMSA05.jpg,AMNE19.jpg,AMNE16.jpg,AMNE19.jpg,MN,1,num_2,32,num_6,0.566804338479,,,2017_May_05_1648,60.0063705595,FEMA4ImagesEEG,001,200214,
AFNE01.JPG,AFNE01.JPG,AFNE01.JPG,AFNE01.JPG,AFNE01.JPG,AFNE01.JPG,,,,,,,,,,,,,1,3,13,6,,,,,,,,,,,AMNE03.jpg,AMSA20.jpg,AMNE17.jpg,AMSA18.jpg,AMSA20.jpg,MS,2,num_6,32,num_8,0.333497444866,,,2017_May_05_1648,60.0063705595,FEMA4ImagesEEG,001,200214,
AFNE01.JPG,AFNE01.JPG,AFNE01.JPG,AFNE01.JPG,AFNE01.JPG,AFNE01.JPG,,,,,,,,,,,,,1,4,14,7,,,,,,,,,,,AMSA19.jpg,AMSA10.jpg,AMNE12.jpg,AMNE05.jpg,AMNE12.jpg,MN,1,num_2,16,num_2,0.850108040962,,,2017_May_05_1648,60.0063705595,FEMA4ImagesEEG,001,200214,
AFNE01.JPG,AFNE01.JPG,AFNE01.JPG,AFNE01.JPG,AFNE01.JPG,AFNE01.JPG,,,,,,,,,,,,,1,5,15,9,,,,,,,,,,,AMSA01.jpg,AMNE12.jpg,AMSA07.jpg,AMNE15.jpg,AMSA01.jpg,MS,2,num_8,32,num_2,0.816732573323,,,2017_May_05_1648,60.0063705595,FEMA4ImagesEEG,001,200214,
AFNE01.JPG,AFNE01.JPG,AFNE01.JPG,AFNE01.JPG,AFNE01.JPG,AFNE01.JPG,,,,,,,,,,,,,1,6,16,4,,,,,,,,,,,AMNE20.jpg,AMSA09.jpg,AMSA05.jpg,AMNE04.jpg,AMSA05.jpg,MS,2,num_2,16,num_2,0.716783217853,,,2017_May_05_1648,60.0063705595,FEMA4ImagesEEG,001,200214,
AFNE01.JPG,AFNE01.JPG,AFNE01.JPG,AFNE01.JPG,AFNE01.JPG,AFNE01.JPG,,,,,,,,,,,,,1,7,17,8,,,,,,,,,,,AMNE16.jpg,AMNE09.jpg,AMSA08.jpg,AMSA03.jpg,AMNE16.jpg,MN,1,num_8,32,num_2,0.816799928434,,,2017_May_05_1648,60.0063705595,FEMA4ImagesEEG,001,200214,
AFNE01.JPG,AFNE01.JPG,AFNE01.JPG,AFNE01.JPG,AFNE01.JPG,AFNE01.JPG,,,,,,,,,,,,,1,8,18,5,,,,,,,,,,,AMNE02.jpg,AMNE16.jpg,AMSA02.jpg,AMSA14.jpg,AMSA14.jpg,MS,2,num_4,32,num_2,0.4667934014,,,2017_May_05_1648,60.0063705595,FEMA4ImagesEEG,001,200214,
AFNE01.JPG,AFNE01.JPG,AFNE01.JPG,AFNE01.JPG,AFNE01.JPG,AFNE01.JPG,,,,,,,,,,,,,1,9,19,3,,,,,,,,,,,AMNE15.jpg,AMSA19.jpg,AMNE19.jpg,AMSA16.jpg,AMSA19.jpg,MS,2,num_6,16,num_6,0.316819653846,,,2017_May_05_1648,60.0063705595,FEMA4ImagesEEG,001,200214,
AFNE01.JPG,AFNE01.JPG,AFNE01.JPG,AFNE01.JPG,AFNE01.JPG,AFNE01.JPG,,,,,,,,,,,,,2,0,20,8,,,,,,,,,,,AMSA14.jpg,AMNE14.jpg,AMSA19.jpg,AMNE11.jpg,AMNE11.jpg,MN,1,num_4,32,num_6,2.98332637851,,,2017_May_05_1648,60.0063705595,FEMA4ImagesEEG,001,200214,
AFNE01.JPG,AFNE01.JPG,AFNE01.JPG,AFNE01.JPG,AFNE01.JPG,AFNE01.JPG,,,,,,,,,,,,,2,1,21,5,,,,,,,,,,,AMSA01.jpg,AMSA13.jpg,AMNE01.jpg,AMNE13.jpg,AMSA01.jpg,MS,2,num_8,32,num_2,0.450129081262,,,2017_May_05_1648,60.0063705595,FEMA4ImagesEEG,001,200214,
AFNE01.JPG,AFNE01.JPG,AFNE01.JPG,AFNE01.JPG,AFNE01.JPG,AFNE01.JPG,,,,,,,,,,,,,2,2,22,3,,,,,,,,,,,AMSA03.jpg,AMNE15.jpg,AMSA15.jpg,AMNE12.jpg,AMNE12.jpg,MN,1,num_4,32,num_2,0.766830382403,,,2017_May_05_1648,60.0063705595,FEMA4ImagesEEG,001,200214,
AFNE01.JPG,AFNE01.JPG,AFNE01.JPG,AFNE01.JPG,AFNE01.JPG,AFNE01.JPG,,,,,,,,,,,,,2,3,23,2,,,,,,,,,,,AMNE01.jpg,AMSA16.jpg,AMSA20.jpg,AMNE06.jpg,AMNE01.jpg,MN,1,num_8,32,num_2,0.400190647226,,,2017_May_05_1648,60.0063705595,FEMA4ImagesEEG,001,200214,
AFNE01.JPG,AFNE01.JPG,AFNE01.JPG,AFNE01.JPG,AFNE01.JPG,AFNE01.JPG,,,,,,,,,,,,,2,4,24,9,,,,,,,,,,,AMNE08.jpg,AMSA10.jpg,AMNE15.jpg,AMSA11.jpg,AMNE15.jpg,MN,1,num_2,16,num_2,0.55014835787,,,2017_May_05_1648,60.0063705595,FEMA4ImagesEEG,001,200214,
AFNE01.JPG,AFNE01.JPG,AFNE01.JPG,AFNE01.JPG,AFNE01.JPG,AFNE01.JPG,,,,,,,,,,,,,2,5,25,4,,,,,,,,,,,AMSA19.jpg,AMSA06.jpg,AMNE17.jpg,AMNE11.jpg,AMSA06.jpg,MS,2,num_6,32,num_2,0.533517394913,,,2017_May_05_1648,60.0063705595,FEMA4ImagesEEG,001,200214,
AFNE01.JPG,AFNE01.JPG,AFNE01.JPG,AFNE01.JPG,AFNE01.JPG,AFNE01.JPG,,,,,,,,,,,,,2,6,26,7,,,,,,,,,,,AMNE20.jpg,AMNE16.jpg,AMSA08.jpg,AMSA05.jpg,AMSA08.jpg,MS,2,num_2,16,num_2,0.416856570868,,,2017_May_05_1648,60.0063705595,FEMA4ImagesEEG,001,200214,
AFNE01.JPG,AFNE01.JPG,AFNE01.JPG,AFNE01.JPG,AFNE01.JPG,AFNE01.JPG,,,,,,,,,,,,,2,7,27,0,,,,,,,,,,,AMNE05.jpg,AMSA18.jpg,AMSA04.jpg,AMNE18.jpg,AMSA18.jpg,MS,2,num_6,16,num_6,0.433529871516,,,2017_May_05_1648,60.0063705595,FEMA4ImagesEEG,001,200214,
AFNE01.JPG,AFNE01.JPG,AFNE01.JPG,AFNE01.JPG,AFNE01.JPG,AFNE01.JPG,,,,,,,,,,,,,2,8,28,6,,,,,,,,,,,AMNE17.jpg,AMSA19.jpg,AMSA17.jpg,AMNE16.jpg,AMSA17.jpg,MS,2,num_2,16,num_2,0.483609110117,,,2017_May_05_1648,60.0063705595,FEMA4ImagesEEG,001,200214,
AFNE01.JPG,AFNE01.JPG,AFNE01.JPG,AFNE01.JPG,AFNE01.JPG,AFNE01.JPG,,,,,,,,,,,,,2,9,29,1,,,,,,,,,,,AMNE06.jpg,AMNE07.jpg,AMSA06.jpg,AMSA19.jpg,AMSA06.jpg,MS,2,num_2,32,num_6,0.283497749362,,,2017_May_05_1648,60.0063705595,FEMA4ImagesEEG,001,200214,
AFNE01.JPG,AFNE01.JPG,AFNE01.JPG,AFNE01.JPG,AFNE01.JPG,AFNE01.JPG,,,,,,,,,,,,,3,0,30,7,,,,,,,,,,,AMNE05.jpg,AMNE16.jpg,AMSA02.jpg,AMSA18.jpg,AMNE16.jpg,MN,1,num_6,32,num_2,0.86679737852,,,2017_May_05_1648,60.0063705595,FEMA4ImagesEEG,001,200214,
AFNE01.JPG,AFNE01.JPG,AFNE01.JPG,AFNE01.JPG,AFNE01.JPG,AFNE01.JPG,,,,,,,,,,,,,3,1,31,9,,,,,,,,,,,AMSA16.jpg,AMNE09.jpg,AMNE17.jpg,AMSA19.jpg,AMSA19.jpg,MS,2,num_4,32,num_6,0.400187119143,,,2017_May_05_1648,60.0063705595,FEMA4ImagesEEG,001,200214,
AFNE01.JPG,AFNE01.JPG,AFNE01.JPG,AFNE01.JPG,AFNE01.JPG,AFNE01.JPG,,,,,,,,,,,,,3,2,32,4,,,,,,,,,,,AMSA13.jpg,AMNE16.jpg,AMSA06.jpg,AMNE02.jpg,AMSA06.jpg,MS,2,num_2,16,num_2,0.71687559085,,,2017_May_05_1648,60.0063705595,FEMA4ImagesEEG,001,200214,
AFNE01.JPG,AFNE01.JPG,AFNE01.JPG,AFNE01.JPG,AFNE01.JPG,AFNE01.JPG,,,,,,,,,,,,,3,3,33,1,,,,,,,,,,,AMSA11.jpg,AMSA06.jpg,AMNE14.jpg,AMNE10.jpg,AMNE10.jpg,MN,1,num_4,32,num_6,0.333503538743,,,2017_May_05_1648,60.0063705595,FEMA4ImagesEEG,001,200214,
AFNE01.JPG,AFNE01.JPG,AFNE01.JPG,AFNE01.JPG,AFNE01.JPG,AFNE01.JPG,,,,,,,,,,,,,3,4,34,5,,,,,,,,,,,AMNE17.jpg,AMSA16.jpg,AMSA11.jpg,AMNE05.jpg,AMNE05.jpg,MN,1,num_4,32,num_8,0.466799816117,,,2017_May_05_1648,60.0063705595,FEMA4ImagesEEG,001,200214,
AFNE01.JPG,AFNE01.JPG,AFNE01.JPG,AFNE01.JPG,AFNE01.JPG,AFNE01.JPG,,,,,,,,,,,,,3,5,35,0,,,,,,,,,,,AMSA11.jpg,AMNE05.jpg,AMSA10.jpg,AMNE17.jpg,AMNE05.jpg,MN,1,num_6,16,num_6,0.316837294493,,,2017_May_05_1648,60.0063705595,FEMA4ImagesEEG,001,200214,
AFNE01.JPG,AFNE01.JPG,AFNE01.JPG,AFNE01.JPG,AFNE01.JPG,AFNE01.JPG,,,,,,,,,,,,,3,6,36,8,,,,,,,,,,,AMNE06.jpg,AMSA01.jpg,AMSA03.jpg,AMNE08.jpg,AMSA01.jpg,MS,2,num_6,16,num_6,0.333451579325,,,2017_May_05_1648,60.0063705595,FEMA4ImagesEEG,001,200214,
AFNE01.JPG,AFNE01.JPG,AFNE01.JPG,AFNE01.JPG,AFNE01.JPG,AFNE01.JPG,,,,,,,,,,,,,3,7,37,6,,,,,,,,,,,AMSA06.jpg,AMSA15.jpg,AMNE19.jpg,AMNE06.jpg,AMNE06.jpg,MN,1,num_4,32,num_8,0.416784404777,,,2017_May_05_1648,60.0063705595,FEMA4ImagesEEG,001,200214,
AFNE01.JPG,AFNE01.JPG,AFNE01.JPG,AFNE01.JPG,AFNE01.JPG,AFNE01.JPG,,,,,,,,,,,,,3,8,38,2,,,,,,,,,,,AMSA14.jpg,AMSA13.jpg,AMNE12.jpg,AMNE19.jpg,AMNE12.jpg,MN,1,num_2,16,num_2,0.466797250323,,,2017_May_05_1648,60.0063705595,FEMA4ImagesEEG,001,200214,
AFNE01.JPG,AFNE01.JPG,AFNE01.JPG,AFNE01.JPG,AFNE01.JPG,AFNE01.JPG,,,,,,,,,,,,,3,9,39,3,,,,,,,,,,,AMNE15.jpg,AMSA05.jpg,AMSA14.jpg,AMNE11.jpg,AMSA14.jpg,MS,2,num_2,32,num_6,0.716790594859,,,2017_May_05_1648,60.0063705595,FEMA4ImagesEEG,001,200214,
AFNE01.JPG,AFNE01.JPG,AFNE01.JPG,AFNE01.JPG,AFNE01.JPG,AFNE01.JPG,,,,,,,,,,,,,4,0,40,6,,,,,,,,,,,AMSA18.jpg,AMNE06.jpg,AMNE14.jpg,AMSA06.jpg,AMSA06.jpg,MS,2,num_4,16,num_4,0.783346521202,,,2017_May_05_1648,60.0063705595,FEMA4ImagesEEG,001,200214,
AFNE01.JPG,AFNE01.JPG,AFNE01.JPG,AFNE01.JPG,AFNE01.JPG,AFNE01.JPG,,,,,,,,,,,,,4,1,41,9,,,,,,,,,,,AMNE13.jpg,AMSA13.jpg,AMNE15.jpg,AMSA03.jpg,AMNE15.jpg,MN,1,num_2,16,num_2,0.583491431084,,,2017_May_05_1648,60.0063705595,FEMA4ImagesEEG,001,200214,
AFNE01.JPG,AFNE01.JPG,AFNE01.JPG,AFNE01.JPG,AFNE01.JPG,AFNE01.JPG,,,,,,,,,,,,,4,2,42,0,,,,,,,,,,,AMSA15.jpg,AMSA07.jpg,AMNE08.jpg,AMNE07.jpg,AMSA15.jpg,MS,2,num_8,32,num_2,0.366814858746,,,2017_May_05_1648,60.0063705595,FEMA4ImagesEEG,001,200214,
AFNE01.JPG,AFNE01.JPG,AFNE01.JPG,AFNE01.JPG,AFNE01.JPG,AFNE01.JPG,,,,,,,,,,,,,4,3,43,3,,,,,,,,,,,AMSA08.jpg,AMSA17.jpg,AMNE19.jpg,AMNE09.jpg,AMNE19.jpg,MN,1,num_2,16,num_2,0.450104705291,,,2017_May_05_1648,60.0063705595,FEMA4ImagesEEG,001,200214,
AFNE01.JPG,AFNE01.JPG,AFNE01.JPG,AFNE01.JPG,AFNE01.JPG,AFNE01.JPG,,,,,,,,,,,,,4,4,44,1,,,,,,,,,,,AMNE20.jpg,AMSA14.jpg,AMSA13.jpg,AMNE14.jpg,AMSA13.jpg,MS,2,num_2,32,num_6,0.699861023808,,,2017_May_05_1648,60.0063705595,FEMA4ImagesEEG,001,200214,
AFNE01.JPG,AFNE01.JPG,AFNE01.JPG,AFNE01.JPG,AFNE01.JPG,AFNE01.JPG,,,,,,,,,,,,,4,5,45,5,,,,,,,,,,,AMSA15.jpg,AMSA01.jpg,AMNE10.jpg,AMNE13.jpg,AMNE13.jpg,MN,1,num_4,32,num_2,0.916803488508,,,2017_May_05_1648,60.0063705595,FEMA4ImagesEEG,001,200214,
AFNE01.JPG,AFNE01.JPG,AFNE01.JPG,AFNE01.JPG,AFNE01.JPG,AFNE01.JPG,,,,,,,,,,,,,4,6,46,7,,,,,,,,,,,AMSA02.jpg,AMSA16.jpg,AMNE16.jpg,AMNE13.jpg,AMNE16.jpg,MN,1,num_2,32,num_8,0.366775728762,,,2017_May_05_1648,60.0063705595,FEMA4ImagesEEG,001,200214,
AFNE01.JPG,AFNE01.JPG,AFNE01.JPG,AFNE01.JPG,AFNE01.JPG,AFNE01.JPG,,,,,,,,,,,,,4,7,47,8,,,,,,,,,,,AMNE12.jpg,AMSA14.jpg,AMSA17.jpg,AMNE02.jpg,AMNE02.jpg,MN,1,num_4,32,num_8,0.53349718824,,,2017_May_05_1648,60.0063705595,FEMA4ImagesEEG,001,200214,
AFNE01.JPG,AFNE01.JPG,AFNE01.JPG,AFNE01.JPG,AFNE01.JPG,AFNE01.JPG,,,,,,,,,,,,,4,8,48,2,,,,,,,,,,,AMNE12.jpg,AMNE13.jpg,AMSA08.jpg,AMSA11.jpg,AMNE12.jpg,MN,1,num_8,16,num_8,0.500185547629,,,2017_May_05_1648,60.0063705595,FEMA4ImagesEEG,001,200214,
AFNE01.JPG,AFNE01.JPG,AFNE01.JPG,AFNE01.JPG,AFNE01.JPG,AFNE01.JPG,,,,,,,,,,,,,4,9,49,4,,,,,,,,,,,AMNE17.jpg,AMNE19.jpg,AMSA08.jpg,AMSA13.jpg,AMSA08.jpg,MS,2,num_2,32,num_8,0.450175909325,,,2017_May_05_1648,60.0063705595,FEMA4ImagesEEG,001,200214,
AFNE01.JPG,AFNE01.JPG,AFNE01.JPG,AFNE01.JPG,AFNE01.JPG,AFNE01.JPG,,,,,,,,,,,,,5,0,50,6,,,,,,,,,,,AMNE03.jpg,AMNE04.jpg,AMSA19.jpg,AMSA10.jpg,AMSA19.jpg,MS,2,num_2,32,num_8,0.733496611007,,,2017_May_05_1648,60.0063705595,FEMA4ImagesEEG,001,200214,
AFNE01.JPG,AFNE01.JPG,AFNE01.JPG,AFNE01.JPG,AFNE01.JPG,AFNE01.JPG,,,,,,,,,,,,,5,1,51,0,,,,,,,,,,,AMNE11.jpg,AMSA08.jpg,AMNE02.jpg,AMSA16.jpg,AMSA16.jpg,MS,2,num_4,32,num_8,0.633471881738,,,2017_May_05_1648,60.0063705595,FEMA4ImagesEEG,001,200214,
AFNE01.JPG,AFNE01.JPG,AFNE01.JPG,AFNE01.JPG,AFNE01.JPG,AFNE01.JPG,,,,,,,,,,,,,5,2,52,9,,,,,,,,,,,AMNE11.jpg,AMSA08.jpg,AMSA03.jpg,AMNE18.jpg,AMSA08.jpg,MS,2,num_6,32,num_8,0.833465210628,,,2017_May_05_1648,60.0063705595,FEMA4ImagesEEG,001,200214,
AFNE01.JPG,AFNE01.JPG,AFNE01.JPG,AFNE01.JPG,AFNE01.JPG,AFNE01.JPG,,,,,,,,,,,,,5,3,53,8,,,,,,,,,,,AMNE09.jpg,AMSA01.jpg,AMSA13.jpg,AMNE02.jpg,AMNE09.jpg,MN,1,num_8,16,num_8,0.683500122977,,,2017_May_05_1648,60.0063705595,FEMA4ImagesEEG,001,200214,
AFNE01.JPG,AFNE01.JPG,AFNE01.JPG,AFNE01.JPG,AFNE01.JPG,AFNE01.JPG,,,,,,,,,,,,,5,4,54,4,,,,,,,,,,,AMSA09.jpg,AMNE01.jpg,AMSA06.jpg,AMNE04.jpg,AMNE04.jpg,MN,1,num_4,32,num_8,0.700124029769,,,2017_May_05_1648,60.0063705595,FEMA4ImagesEEG,001,200214,
AFNE01.JPG,AFNE01.JPG,AFNE01.JPG,AFNE01.JPG,AFNE01.JPG,AFNE01.JPG,,,,,,,,,,,,,5,5,55,3,,,,,,,,,,,AMNE06.jpg,AMSA10.jpg,AMSA09.jpg,AMNE08.jpg,AMSA10.jpg,MS,2,num_6,16,num_6,0.983466541627,,,2017_May_05_1648,60.0063705595,FEMA4ImagesEEG,001,200214,
AFNE01.JPG,AFNE01.JPG,AFNE01.JPG,AFNE01.JPG,AFNE01.JPG,AFNE01.JPG,,,,,,,,,,,,,5,6,56,7,,,,,,,,,,,AMSA03.jpg,AMNE05.jpg,AMNE18.jpg,AMSA14.jpg,AMSA03.jpg,MS,2,num_8,16,num_8,0.800150683383,,,2017_May_05_1648,60.0063705595,FEMA4ImagesEEG,001,200214,
AFNE01.JPG,AFNE01.JPG,AFNE01.JPG,AFNE01.JPG,AFNE01.JPG,AFNE01.JPG,,,,,,,,,,,,,5,7,57,5,,,,,,,,,,,AMNE18.jpg,AMSA09.jpg,AMNE11.jpg,AMSA08.jpg,AMSA08.jpg,MS,2,num_4,16,num_4,0.850105474936,,,2017_May_05_1648,60.0063705595,FEMA4ImagesEEG,001,200214,
AFNE01.JPG,AFNE01.JPG,AFNE01.JPG,AFNE01.JPG,AFNE01.JPG,AFNE01.JPG,,,,,,,,,,,,,5,8,58,2,,,,,,,,,,,AMNE18.jpg,AMSA10.jpg,AMSA14.jpg,AMNE16.jpg,AMSA10.jpg,MS,2,num_6,32,num_8,0.700114086969,,,2017_May_05_1648,60.0063705595,FEMA4ImagesEEG,001,200214,
AFNE01.JPG,AFNE01.JPG,AFNE01.JPG,AFNE01.JPG,AFNE01.JPG,AFNE01.JPG,,,,,,,,,,,,,5,9,59,1,,,,,,,,,,,AMSA15.jpg,AMNE10.jpg,AMSA05.jpg,AMNE01.jpg,AMNE10.jpg,MN,1,num_6,32,num_8,0.533497829689,,,2017_May_05_1648,60.0063705595,FEMA4ImagesEEG,001,200214,
,,,,,,,,,,,,,,,,,,,,,,,,,,,,,,,,,,,,,,,,,,,space,55.2790625694,2017_May_05_1648,60.0063705595,FEMA4ImagesEEG,001,200214,
AFNE01.JPG,AFNE01.JPG,AFNE01.JPG,AFNE01.JPG,AFNE01.JPG,AFNE01.JPG,,,,,,,,,,,,,,,,,0,0,0,3,,,,,,,AFSA15.jpg,AFNE10.jpg,AFSA06.jpg,AFNE17.jpg,AFSA06.jpg,FS,4,num_2,32,num_8,1.35007805191,,,2017_May_05_1648,60.0063705595,FEMA4ImagesEEG,001,200214,
AFNE01.JPG,AFNE01.JPG,AFNE01.JPG,AFNE01.JPG,AFNE01.JPG,AFNE01.JPG,,,,,,,,,,,,,,,,,0,1,1,8,,,,,,,AFNE12.jpg,AFSA13.jpg,AFNE04.jpg,AFSA06.jpg,AFSA13.jpg,FS,4,num_6,16,num_6,0.466785382945,,,2017_May_05_1648,60.0063705595,FEMA4ImagesEEG,001,200214,
AFNE01.JPG,AFNE01.JPG,AFNE01.JPG,AFNE01.JPG,AFNE01.JPG,AFNE01.JPG,,,,,,,,,,,,,,,,,0,2,2,7,,,,,,,AFSA13.jpg,AFNE01.jpg,AFSA07.jpg,AFNE08.jpg,AFSA13.jpg,FS,4,num_8,32,num_6,1.46667023748,,,2017_May_05_1648,60.0063705595,FEMA4ImagesEEG,001,200214,
AFNE01.JPG,AFNE01.JPG,AFNE01.JPG,AFNE01.JPG,AFNE01.JPG,AFNE01.JPG,,,,,,,,,,,,,,,,,0,3,3,1,,,,,,,AFSA14.jpg,AFNE16.jpg,AFNE18.jpg,AFSA13.jpg,AFSA14.jpg,FS,4,num_8,32,num_2,0.650155125419,,,2017_May_05_1648,60.0063705595,FEMA4ImagesEEG,001,200214,
AFNE01.JPG,AFNE01.JPG,AFNE01.JPG,AFNE01.JPG,AFNE01.JPG,AFNE01.JPG,,,,,,,,,,,,,,,,,0,4,4,0,,,,,,,AFNE05.jpg,AFSA01.jpg,AFNE04.jpg,AFSA09.jpg,AFSA09.jpg,FS,4,num_4,32,num_2,0.883400437422,,,2017_May_05_1648,60.0063705595,FEMA4ImagesEEG,001,200214,
AFNE01.JPG,AFNE01.JPG,AFNE01.JPG,AFNE01.JPG,AFNE01.JPG,AFNE01.JPG,,,,,,,,,,,,,,,,,0,5,5,4,,,,,,,AFNE14.jpg,AFNE01.jpg,AFSA16.jpg,AFSA13.jpg,AFNE14.jpg,FN,3,num_8,32,num_2,0.766778422985,,,2017_May_05_1648,60.0063705595,FEMA4ImagesEEG,001,200214,
AFNE01.JPG,AFNE01.JPG,AFNE01.JPG,AFNE01.JPG,AFNE01.JPG,AFNE01.JPG,,,,,,,,,,,,,,,,,0,6,6,5,,,,,,,AFNE06.jpg,AFSA05.jpg,AFNE07.jpg,AFSA19.jpg,AFSA05.jpg,FS,4,num_6,32,num_2,0.75022988976,,,2017_May_05_1648,60.0063705595,FEMA4ImagesEEG,001,200214,
AFNE01.JPG,AFNE01.JPG,AFNE01.JPG,AFNE01.JPG,AFNE01.JPG,AFNE01.JPG,,,,,,,,,,,,,,,,,0,7,7,2,,,,,,,AFNE03.jpg,AFNE01.jpg,AFSA16.jpg,AFSA09.jpg,AFSA09.jpg,FS,4,num_4,32,num_6,0.550149640767,,,2017_May_05_1648,60.0063705595,FEMA4ImagesEEG,001,200214,
AFNE01.JPG,AFNE01.JPG,AFNE01.JPG,AFNE01.JPG,AFNE01.JPG,AFNE01.JPG,,,,,,,,,,,,,,,,,0,8,8,6,,,,,,,AFSA19.jpg,AFNE01.jpg,AFNE04.jpg,AFSA03.jpg,AFNE04.jpg,FN,3,num_2,32,num_6,1.43340574554,,,2017_May_05_1648,60.0063705595,FEMA4ImagesEEG,001,200214,
AFNE01.JPG,AFNE01.JPG,AFNE01.JPG,AFNE01.JPG,AFNE01.JPG,AFNE01.JPG,,,,,,,,,,,,,,,,,0,9,9,9,,,,,,,AFSA20.jpg,AFNE10.jpg,AFSA05.jpg,AFNE09.jpg,AFSA20.jpg,FS,4,num_8,32,num_6,2.59998896648,,,2017_May_05_1648,60.0063705595,FEMA4ImagesEEG,001,200214,
AFNE01.JPG,AFNE01.JPG,AFNE01.JPG,AFNE01.JPG,AFNE01.JPG,AFNE01.JPG,,,,,,,,,,,,,,,,,1,0,10,5,,,,,,,AFNE07.jpg,AFNE17.jpg,AFSA14.jpg,AFSA01.jpg,AFNE07.jpg,FN,3,num_8,16,num_8,0.816706913989,,,2017_May_05_1648,60.0063705595,FEMA4ImagesEEG,001,200214,
AFNE01.JPG,AFNE01.JPG,AFNE01.JPG,AFNE01.JPG,AFNE01.JPG,AFNE01.JPG,,,,,,,,,,,,,,,,,1,1,11,8,,,,,,,AFSA09.jpg,AFSA15.jpg,AFNE02.jpg,AFNE10.jpg,AFNE02.jpg,FN,3,num_2,16,num_2,1.3667545598,,,2017_May_05_1648,60.0063705595,FEMA4ImagesEEG,001,200214,
AFNE01.JPG,AFNE01.JPG,AFNE01.JPG,AFNE01.JPG,AFNE01.JPG,AFNE01.JPG,,,,,,,,,,,,,,,,,1,2,12,4,,,,,,,AFNE08.jpg,AFSA18.jpg,AFNE10.jpg,AFSA03.jpg,AFSA03.jpg,FS,4,num_4,32,num_6,0.516826774227,,,2017_May_05_1648,60.0063705595,FEMA4ImagesEEG,001,200214,
AFNE01.JPG,AFNE01.JPG,AFNE01.JPG,AFNE01.JPG,AFNE01.JPG,AFNE01.JPG,,,,,,,,,,,,,,,,,1,3,13,7,,,,,,,AFNE05.jpg,AFSA10.jpg,AFSA15.jpg,AFNE02.jpg,AFSA15.jpg,FS,4,num_2,32,num_8,0.333491992438,,,2017_May_05_1648,60.0063705595,FEMA4ImagesEEG,001,200214,
AFNE01.JPG,AFNE01.JPG,AFNE01.JPG,AFNE01.JPG,AFNE01.JPG,AFNE01.JPG,,,,,,,,,,,,,,,,,1,4,14,6,,,,,,,AFSA07.jpg,AFNE04.jpg,AFSA16.jpg,AFNE01.jpg,AFNE01.jpg,FN,3,num_4,32,num_2,0.300211142749,,,2017_May_05_1648,60.0063705595,FEMA4ImagesEEG,001,200214,
AFNE01.JPG,AFNE01.JPG,AFNE01.JPG,AFNE01.JPG,AFNE01.JPG,AFNE01.JPG,,,,,,,,,,,,,,,,,1,5,15,0,,,,,,,AFNE18.jpg,AFSA19.jpg,AFNE06.jpg,AFSA20.jpg,AFNE06.jpg,FN,3,num_2,16,num_2,0.70009291824,,,2017_May_05_1648,60.0063705595,FEMA4ImagesEEG,001,200214,
AFNE01.JPG,AFNE01.JPG,AFNE01.JPG,AFNE01.JPG,AFNE01.JPG,AFNE01.JPG,,,,,,,,,,,,,,,,,1,6,16,1,,,,,,,AFNE13.jpg,AFSA07.jpg,AFSA20.jpg,AFNE06.jpg,AFNE13.jpg,FN,3,num_8,32,num_6,0.933450809447,,,2017_May_05_1648,60.0063705595,FEMA4ImagesEEG,001,200214,
AFNE01.JPG,AFNE01.JPG,AFNE01.JPG,AFNE01.JPG,AFNE01.JPG,AFNE01.JPG,,,,,,,,,,,,,,,,,1,7,17,3,,,,,,,AFSA07.jpg,AFSA14.jpg,AFNE15.jpg,AFNE16.jpg,AFSA14.jpg,FS,4,num_6,32,num_8,0.666773258941,,,2017_May_05_1648,60.0063705595,FEMA4ImagesEEG,001,200214,
AFNE01.JPG,AFNE01.JPG,AFNE01.JPG,AFNE01.JPG,AFNE01.JPG,AFNE01.JPG,,,,,,,,,,,,,,,,,1,8,18,2,,,,,,,AFSA03.jpg,AFSA13.jpg,AFNE08.jpg,AFNE17.jpg,AFSA03.jpg,FS,4,num_8,16,num_8,2.28332006023,,,2017_May_05_1648,60.0063705595,FEMA4ImagesEEG,001,200214,
AFNE01.JPG,AFNE01.JPG,AFNE01.JPG,AFNE01.JPG,AFNE01.JPG,AFNE01.JPG,,,,,,,,,,,,,,,,,1,9,19,9,,,,,,,AFSA12.jpg,AFSA17.jpg,AFNE14.jpg,AFNE20.jpg,AFNE20.jpg,FN,3,num_4,32,num_8,0.616825843928,,,2017_May_05_1648,60.0063705595,FEMA4ImagesEEG,001,200214,
AFNE01.JPG,AFNE01.JPG,AFNE01.JPG,AFNE01.JPG,AFNE01.JPG,AFNE01.JPG,,,,,,,,,,,,,,,,,2,0,20,5,,,,,,,AFSA04.jpg,AFNE02.jpg,AFNE13.jpg,AFSA02.jpg,AFSA02.jpg,FS,4,num_4,32,num_8,0.533484037966,,,2017_May_05_1648,60.0063705595,FEMA4ImagesEEG,001,200214,
AFNE01.JPG,AFNE01.JPG,AFNE01.JPG,AFNE01.JPG,AFNE01.JPG,AFNE01.JPG,,,,,,,,,,,,,,,,,2,1,21,0,,,,,,,AFNE03.jpg,AFNE09.jpg,AFSA12.jpg,AFSA02.jpg,AFSA12.jpg,FS,4,num_2,32,num_8,0.566670590313,,,2017_May_05_1648,60.0063705595,FEMA4ImagesEEG,001,200214,
AFNE01.JPG,AFNE01.JPG,AFNE01.JPG,AFNE01.JPG,AFNE01.JPG,AFNE01.JPG,,,,,,,,,,,,,,,,,2,2,22,9,,,,,,,AFNE08.jpg,AFNE04.jpg,AFSA18.jpg,AFSA11.jpg,AFNE04.jpg,FN,3,num_6,32,num_4,0.550169526599,,,2017_May_05_1648,60.0063705595,FEMA4ImagesEEG,001,200214,
AFNE01.JPG,AFNE01.JPG,AFNE01.JPG,AFNE01.JPG,AFNE01.JPG,AFNE01.JPG,,,,,,,,,,,,,,,,,2,3,23,2,,,,,,,AFNE10.jpg,AFNE07.jpg,AFSA19.jpg,AFSA11.jpg,AFSA11.jpg,FS,4,num_4,16,num_4,0.633494012989,,,2017_May_05_1648,60.0063705595,FEMA4ImagesEEG,001,200214,
AFNE01.JPG,AFNE01.JPG,AFNE01.JPG,AFNE01.JPG,AFNE01.JPG,AFNE01.JPG,,,,,,,,,,,,,,,,,2,4,24,1,,,,,,,AFSA20.jpg,AFNE05.jpg,AFNE10.jpg,AFSA16.jpg,AFNE05.jpg,FN,3,num_6,32,num_2,0.450183286332,,,2017_May_05_1648,60.0063705595,FEMA4ImagesEEG,001,200214,
AFNE01.JPG,AFNE01.JPG,AFNE01.JPG,AFNE01.JPG,AFNE01.JPG,AFNE01.JPG,,,,,,,,,,,,,,,,,2,5,25,3,,,,,,,AFNE04.jpg,AFSA15.jpg,AFNE19.jpg,AFSA14.jpg,AFNE04.jpg,FN,3,num_8,32,num_2,0.450146722142,,,2017_May_05_1648,60.0063705595,FEMA4ImagesEEG,001,200214,
AFNE01.JPG,AFNE01.JPG,AFNE01.JPG,AFNE01.JPG,AFNE01.JPG,AFNE01.JPG,,,,,,,,,,,,,,,,,2,6,26,4,,,,,,,AFNE04.jpg,AFNE08.jpg,AFSA06.jpg,AFSA03.jpg,AFNE04.jpg,FN,3,num_8,32,num_6,0.516788606299,,,2017_May_05_1648,60.0063705595,FEMA4ImagesEEG,001,200214,
AFNE01.JPG,AFNE01.JPG,AFNE01.JPG,AFNE01.JPG,AFNE01.JPG,AFNE01.JPG,,,,,,,,,,,,,,,,,2,7,27,7,,,,,,,AFSA10.jpg,AFNE07.jpg,AFNE09.jpg,AFSA14.jpg,AFNE09.jpg,FN,3,num_2,16,num_2,0.650089694653,,,2017_May_05_1648,60.0063705595,FEMA4ImagesEEG,001,200214,
AFNE01.JPG,AFNE01.JPG,AFNE01.JPG,AFNE01.JPG,AFNE01.JPG,AFNE01.JPG,,,,,,,,,,,,,,,,,2,8,28,8,,,,,,,AFSA09.jpg,AFNE15.jpg,AFSA01.jpg,AFNE09.jpg,AFSA09.jpg,FS,4,num_8,32,num_2,0.566840261221,,,2017_May_05_1648,60.0063705595,FEMA4ImagesEEG,001,200214,
AFNE01.JPG,AFNE01.JPG,AFNE01.JPG,AFNE01.JPG,AFNE01.JPG,AFNE01.JPG,,,,,,,,,,,,,,,,,2,9,29,6,,,,,,,AFNE09.jpg,AFSA15.jpg,AFNE19.jpg,AFSA04.jpg,AFSA04.jpg,FS,4,num_4,32,num_2,1.64975933335,,,2017_May_05_1648,60.0063705595,FEMA4ImagesEEG,001,200214,
AFNE01.JPG,AFNE01.JPG,AFNE01.JPG,AFNE01.JPG,AFNE01.JPG,AFNE01.JPG,,,,,,,,,,,,,,,,,3,0,30,7,,,,,,,AFNE13.jpg,AFSA01.jpg,AFNE02.jpg,AFSA11.jpg,AFSA11.jpg,FS,4,num_4,32,num_2,0.350172028411,,,2017_May_05_1648,60.0063705595,FEMA4ImagesEEG,001,200214,
AFNE01.JPG,AFNE01.JPG,AFNE01.JPG,AFNE01.JPG,AFNE01.JPG,AFNE01.JPG,,,,,,,,,,,,,,,,,3,1,31,1,,,,,,,AFNE11.jpg,AFSA19.jpg,AFNE04.jpg,AFSA07.jpg,AFNE11.jpg,FN,3,num_8,32,num_4,0.65012273076,,,2017_May_05_1648,60.0063705595,FEMA4ImagesEEG,001,200214,
AFNE01.JPG,AFNE01.JPG,AFNE01.JPG,AFNE01.JPG,AFNE01.JPG,AFNE01.JPG,,,,,,,,,,,,,,,,,3,2,32,0,,,,,,,AFSA05.jpg,AFSA01.jpg,AFNE13.jpg,AFNE20.jpg,AFSA05.jpg,FS,4,num_8,16,num_8,0.533459020313,,,2017_May_05_1648,60.0063705595,FEMA4ImagesEEG,001,200214,
AFNE01.JPG,AFNE01.JPG,AFNE01.JPG,AFNE01.JPG,AFNE01.JPG,AFNE01.JPG,,,,,,,,,,,,,,,,,3,3,33,5,,,,,,,AFNE17.jpg,AFSA01.jpg,AFSA12.jpg,AFNE07.jpg,AFSA01.jpg,FS,4,num_6,32,num_8,0.650136201875,,,2017_May_05_1648,60.0063705595,FEMA4ImagesEEG,001,200214,
AFNE01.JPG,AFNE01.JPG,AFNE01.JPG,AFNE01.JPG,AFNE01.JPG,AFNE01.JPG,,,,,,,,,,,,,,,,,3,4,34,9,,,,,,,AFSA14.jpg,AFNE08.jpg,AFNE12.jpg,AFSA13.jpg,AFNE08.jpg,FN,3,num_6,16,num_6,1.08341365191,,,2017_May_05_1648,60.0063705595,FEMA4ImagesEEG,001,200214,
AFNE01.JPG,AFNE01.JPG,AFNE01.JPG,AFNE01.JPG,AFNE01.JPG,AFNE01.JPG,,,,,,,,,,,,,,,,,3,5,35,6,,,,,,,AFNE14.jpg,AFNE18.jpg,AFSA07.jpg,AFSA02.jpg,AFSA07.jpg,FS,4,num_2,16,num_2,0.633444298524,,,2017_May_05_1648,60.0063705595,FEMA4ImagesEEG,001,200214,
AFNE01.JPG,AFNE01.JPG,AFNE01.JPG,AFNE01.JPG,AFNE01.JPG,AFNE01.JPG,,,,,,,,,,,,,,,,,3,6,36,3,,,,,,,AFSA08.jpg,AFNE09.jpg,AFSA07.jpg,AFNE10.jpg,AFSA07.jpg,FS,4,num_2,32,num_8,0.516759419115,,,2017_May_05_1648,60.0063705595,FEMA4ImagesEEG,001,200214,
AFNE01.JPG,AFNE01.JPG,AFNE01.JPG,AFNE01.JPG,AFNE01.JPG,AFNE01.JPG,,,,,,,,,,,,,,,,,3,7,37,8,,,,,,,AFSA04.jpg,AFSA06.jpg,AFNE09.jpg,AFNE20.jpg,AFNE20.jpg,FN,3,num_4,32,num_2,0.566797282314,,,2017_May_05_1648,60.0063705595,FEMA4ImagesEEG,001,200214,
AFNE01.JPG,AFNE01.JPG,AFNE01.JPG,AFNE01.JPG,AFNE01.JPG,AFNE01.JPG,,,,,,,,,,,,,,,,,3,8,38,2,,,,,,,AFSA16.jpg,AFNE18.jpg,AFSA08.jpg,AFNE03.jpg,AFNE03.jpg,FN,3,num_4,32,num_2,0.550117566949,,,2017_May_05_1648,60.0063705595,FEMA4ImagesEEG,001,200214,
AFNE01.JPG,AFNE01.JPG,AFNE01.JPG,AFNE01.JPG,AFNE01.JPG,AFNE01.JPG,,,,,,,,,,,,,,,,,3,9,39,4,,,,,,,AFNE03.jpg,AFNE17.jpg,AFSA01.jpg,AFSA06.jpg,AFNE17.jpg,FN,3,num_6,16,num_6,0.85009200382,,,2017_May_05_1648,60.0063705595,FEMA4ImagesEEG,001,200214,
AFNE01.JPG,AFNE01.JPG,AFNE01.JPG,AFNE01.JPG,AFNE01.JPG,AFNE01.JPG,,,,,,,,,,,,,,,,,4,0,40,5,,,,,,,AFSA11.jpg,AFSA19.jpg,AFNE16.jpg,AFNE01.jpg,AFNE01.jpg,FN,3,num_4,16,num_4,0.716773916502,,,2017_May_05_1648,60.0063705595,FEMA4ImagesEEG,001,200214,
AFNE01.JPG,AFNE01.JPG,AFNE01.JPG,AFNE01.JPG,AFNE01.JPG,AFNE01.JPG,,,,,,,,,,,,,,,,,4,1,41,2,,,,,,,AFNE16.jpg,AFSA11.jpg,AFNE06.jpg,AFSA13.jpg,AFNE06.jpg,FN,3,num_2,32,num_6,0.700130765326,,,2017_May_05_1648,60.0063705595,FEMA4ImagesEEG,001,200214,
AFNE01.JPG,AFNE01.JPG,AFNE01.JPG,AFNE01.JPG,AFNE01.JPG,AFNE01.JPG,,,,,,,,,,,,,,,,,4,2,42,3,,,,,,,AFSA05.jpg,AFSA10.jpg,AFNE19.jpg,AFNE15.jpg,AFSA10.jpg,FS,4,num_6,32,num_8,1.800031689,,,2017_May_05_1648,60.0063705595,FEMA4ImagesEEG,001,200214,
AFNE01.JPG,AFNE01.JPG,AFNE01.JPG,AFNE01.JPG,AFNE01.JPG,AFNE01.JPG,,,,,,,,,,,,,,,,,4,3,43,9,,,,,,,AFNE14.jpg,AFSA06.jpg,AFNE18.jpg,AFSA14.jpg,AFSA14.jpg,FS,4,num_4,32,num_2,2.16700948332,,,2017_May_05_1648,60.0063705595,FEMA4ImagesEEG,001,200214,
AFNE01.JPG,AFNE01.JPG,AFNE01.JPG,AFNE01.JPG,AFNE01.JPG,AFNE01.JPG,,,,,,,,,,,,,,,,,4,4,44,0,,,,,,,AFSA04.jpg,AFSA17.jpg,AFNE12.jpg,AFNE11.jpg,AFSA04.jpg,FS,4,num_8,32,num_2,2.65001688688,,,2017_May_05_1648,60.0063705595,FEMA4ImagesEEG,001,200214,
AFNE01.JPG,AFNE01.JPG,AFNE01.JPG,AFNE01.JPG,AFNE01.JPG,AFNE01.JPG,,,,,,,,,,,,,,,,,4,5,45,8,,,,,,,AFNE09.jpg,AFSA20.jpg,AFNE12.jpg,AFSA07.jpg,AFSA20.jpg,FS,4,num_6,32,num_2,3.3499282666,,,2017_May_05_1648,60.0063705595,FEMA4ImagesEEG,001,200214,
AFNE01.JPG,AFNE01.JPG,AFNE01.JPG,AFNE01.JPG,AFNE01.JPG,AFNE01.JPG,,,,,,,,,,,,,,,,,4,6,46,7,,,,,,,AFSA01.jpg,AFSA12.jpg,AFNE12.jpg,AFNE02.jpg,AFNE02.jpg,FN,3,num_4,32,num_2,3.78326697787,,,2017_May_05_1648,60.0063705595,FEMA4ImagesEEG,001,200214,
AFNE01.JPG,AFNE01.JPG,AFNE01.JPG,AFNE01.JPG,AFNE01.JPG,AFNE01.JPG,,,,,,,,,,,,,,,,,4,7,47,4,,,,,,,AFSA18.jpg,AFSA11.jpg,AFNE05.jpg,AFNE20.jpg,AFSA11.jpg,FS,4,num_6,32,num_2,0.466795004904,,,2017_May_05_1648,60.0063705595,FEMA4ImagesEEG,001,200214,
AFNE01.JPG,AFNE01.JPG,AFNE01.JPG,AFNE01.JPG,AFNE01.JPG,AFNE01.JPG,,,,,,,,,,,,,,,,,4,8,48,1,,,,,,,AFNE11.jpg,AFSA14.jpg,AFSA12.jpg,AFNE12.jpg,AFNE12.jpg,FN,3,num_4,32,num_6,0.800146513619,,,2017_May_05_1648,60.0063705595,FEMA4ImagesEEG,001,200214,
AFNE01.JPG,AFNE01.JPG,AFNE01.JPG,AFNE01.JPG,AFNE01.JPG,AFNE01.JPG,,,,,,,,,,,,,,,,,4,9,49,6,,,,,,,AFSA18.jpg,AFSA13.jpg,AFNE05.jpg,AFNE02.jpg,AFNE02.jpg,FN,3,num_4,32,num_6,0.633333964041,,,2017_May_05_1648,60.0063705595,FEMA4ImagesEEG,001,200214,
AFNE01.JPG,AFNE01.JPG,AFNE01.JPG,AFNE01.JPG,AFNE01.JPG,AFNE01.JPG,,,,,,,,,,,,,,,,,5,0,50,1,,,,,,,AFNE08.jpg,AFSA02.jpg,AFSA09.jpg,AFNE13.jpg,AFNE13.jpg,FN,3,num_4,32,num_2,0.833428967046,,,2017_May_05_1648,60.0063705595,FEMA4ImagesEEG,001,200214,
AFNE01.JPG,AFNE01.JPG,AFNE01.JPG,AFNE01.JPG,AFNE01.JPG,AFNE01.JPG,,,,,,,,,,,,,,,,,5,1,51,7,,,,,,,AFSA03.jpg,AFSA12.jpg,AFNE01.jpg,AFNE16.jpg,AFSA12.jpg,FS,4,num_6,32,num_4,0.500200622249,,,2017_May_05_1648,60.0063705595,FEMA4ImagesEEG,001,200214,
AFNE01.JPG,AFNE01.JPG,AFNE01.JPG,AFNE01.JPG,AFNE01.JPG,AFNE01.JPG,,,,,,,,,,,,,,,,,5,2,52,0,,,,,,,AFSA09.jpg,AFNE18.jpg,AFNE17.jpg,AFSA19.jpg,AFNE18.jpg,FN,3,num_6,32,num_8,0.333521179389,,,2017_May_05_1648,60.0063705595,FEMA4ImagesEEG,001,200214,
AFNE01.JPG,AFNE01.JPG,AFNE01.JPG,AFNE01.JPG,AFNE01.JPG,AFNE01.JPG,,,,,,,,,,,,,,,,,5,3,53,3,,,,,,,AFNE10.jpg,AFSA08.jpg,AFSA12.jpg,AFNE07.jpg,AFSA12.jpg,FS,4,num_2,16,num_2,0.716765898047,,,2017_May_05_1648,60.0063705595,FEMA4ImagesEEG,001,200214,
AFNE01.JPG,AFNE01.JPG,AFNE01.JPG,AFNE01.JPG,AFNE01.JPG,AFNE01.JPG,,,,,,,,,,,,,,,,,5,4,54,2,,,,,,,AFSA05.jpg,AFNE16.jpg,AFNE11.jpg,AFSA04.jpg,AFSA04.jpg,FS,4,num_4,32,num_6,0.416807497852,,,2017_May_05_1648,60.0063705595,FEMA4ImagesEEG,001,200214,
AFNE01.JPG,AFNE01.JPG,AFNE01.JPG,AFNE01.JPG,AFNE01.JPG,AFNE01.JPG,,,,,,,,,,,,,,,,,5,5,55,9,,,,,,,AFNE16.jpg,AFSA05.jpg,AFNE05.jpg,AFSA08.jpg,AFNE05.jpg,FN,3,num_2,16,num_2,0.550128792878,,,2017_May_05_1648,60.0063705595,FEMA4ImagesEEG,001,200214,
AFNE01.JPG,AFNE01.JPG,AFNE01.JPG,AFNE01.JPG,AFNE01.JPG,AFNE01.JPG,,,,,,,,,,,,,,,,,5,6,56,5,,,,,,,AFSA12.jpg,AFNE20.jpg,AFNE07.jpg,AFSA16.jpg,AFNE07.jpg,FN,3,num_2,32,num_6,0.78344274289,,,2017_May_05_1648,60.0063705595,FEMA4ImagesEEG,001,200214,
AFNE01.JPG,AFNE01.JPG,AFNE01.JPG,AFNE01.JPG,AFNE01.JPG,AFNE01.JPG,,,,,,,,,,,,,,,,,5,7,57,8,,,,,,,AFNE11.jpg,AFSA05.jpg,AFSA09.jpg,AFNE15.jpg,AFNE15.jpg,FN,3,num_4,32,num_2,0.416829308029,,,2017_May_05_1648,60.0063705595,FEMA4ImagesEEG,001,200214,
AFNE01.JPG,AFNE01.JPG,AFNE01.JPG,AFNE01.JPG,AFNE01.JPG,AFNE01.JPG,,,,,,,,,,,,,,,,,5,8,58,6,,,,,,,AFNE01.jpg,AFSA15.jpg,AFNE20.jpg,AFSA20.jpg,AFSA15.jpg,FS,4,num_6,32,num_2,0.616811090149,,,2017_May_05_1648,60.0063705595,FEMA4ImagesEEG,001,200214,
AFNE01.JPG,AFNE01.JPG,AFNE01.JPG,AFNE01.JPG,AFNE01.JPG,AFNE01.JPG,,,,,,,,,,,,,,,,,5,9,59,4,,,,,,,AFNE18.jpg,AFSA20.jpg,AFNE15.jpg,AFSA11.jpg,AFSA20.jpg,FS,4,num_6,16,num_6,0.600134902867,,,2017_May_05_1648,60.0063705595,FEMA4ImagesEEG,001,200214,
,,,,,,,,,,,,,,,,,,,,,,,,,,,,,,,,,,,,,,,,,,,space,36.6305746457,2017_May_05_1648,60.0063705595,FEMA4ImagesEEG,001,200214,
AFNE01.JPG,AFNE01.JPG,AFNE01.JPG,AFNE01.JPG,AFNE01.JPG,AFNE01.JPG,,,,,,,,,,,,,,,,,,,,,0,0,0,2,,,AMSA06.jpg,AMNE02.jpg,AMNE15.jpg,AMSA01.jpg,AMNE02.jpg,MN,1,num_6,32,num_4,1.200121945,,,2017_May_05_1648,60.0063705595,FEMA4ImagesEEG,001,200214,
AFNE01.JPG,AFNE01.JPG,AFNE01.JPG,AFNE01.JPG,AFNE01.JPG,AFNE01.JPG,,,,,,,,,,,,,,,,,,,,,0,1,1,6,,,AMSA02.jpg,AMNE16.jpg,AMSA06.jpg,AMNE19.jpg,AMNE16.jpg,MN,1,num_6,16,num_6,0.316827031085,,,2017_May_05_1648,60.0063705595,FEMA4ImagesEEG,001,200214,
AFNE01.JPG,AFNE01.JPG,AFNE01.JPG,AFNE01.JPG,AFNE01.JPG,AFNE01.JPG,,,,,,,,,,,,,,,,,,,,,0,2,2,9,,,AMNE17.jpg,AMNE20.jpg,AMSA20.jpg,AMSA06.jpg,AMSA06.jpg,MS,2,num_4,32,num_2,0.933495712932,,,2017_May_05_1648,60.0063705595,FEMA4ImagesEEG,001,200214,
AFNE01.JPG,AFNE01.JPG,AFNE01.JPG,AFNE01.JPG,AFNE01.JPG,AFNE01.JPG,,,,,,,,,,,,,,,,,,,,,0,3,3,0,,,AMNE19.jpg,AMSA19.jpg,AMSA10.jpg,AMNE13.jpg,AMNE19.jpg,MN,1,num_8,32,num_4,0.566780283349,,,2017_May_05_1648,60.0063705595,FEMA4ImagesEEG,001,200214,
AFNE01.JPG,AFNE01.JPG,AFNE01.JPG,AFNE01.JPG,AFNE01.JPG,AFNE01.JPG,,,,,,,,,,,,,,,,,,,,,0,4,4,1,,,AMNE07.jpg,AMSA16.jpg,AMNE17.jpg,AMSA14.jpg,AMSA14.jpg,MS,2,num_4,32,num_6,0.533518998418,,,2017_May_05_1648,60.0063705595,FEMA4ImagesEEG,001,200214,
AFNE01.JPG,AFNE01.JPG,AFNE01.JPG,AFNE01.JPG,AFNE01.JPG,AFNE01.JPG,,,,,,,,,,,,,,,,,,,,,0,5,5,4,,,AMSA12.jpg,AMSA14.jpg,AMNE18.jpg,AMNE14.jpg,AMSA12.jpg,MS,2,num_8,16,num_8,0.600151902065,,,2017_May_05_1648,60.0063705595,FEMA4ImagesEEG,001,200214,
AFNE01.JPG,AFNE01.JPG,AFNE01.JPG,AFNE01.JPG,AFNE01.JPG,AFNE01.JPG,,,,,,,,,,,,,,,,,,,,,0,6,6,7,,,AMSA11.jpg,AMNE07.jpg,AMSA17.jpg,AMNE09.jpg,AMSA17.jpg,MS,2,num_2,32,num_8,2.66662315303,,,2017_May_05_1648,60.0063705595,FEMA4ImagesEEG,001,200214,
AFNE01.JPG,AFNE01.JPG,AFNE01.JPG,AFNE01.JPG,AFNE01.JPG,AFNE01.JPG,,,,,,,,,,,,,,,,,,,,,0,7,7,3,,,AMSA19.jpg,AMSA20.jpg,AMNE03.jpg,AMNE06.jpg,AMNE06.jpg,MN,1,num_4,32,num_8,0.450194512028,,,2017_May_05_1648,60.0063705595,FEMA4ImagesEEG,001,200214,
AFNE01.JPG,AFNE01.JPG,AFNE01.JPG,AFNE01.JPG,AFNE01.JPG,AFNE01.JPG,,,,,,,,,,,,,,,,,,,,,0,8,8,5,,,AMSA15.jpg,AMSA09.jpg,AMNE03.jpg,AMNE06.jpg,AMNE03.jpg,MN,1,num_2,32,num_8,0.61678863829,,,2017_May_05_1648,60.0063705595,FEMA4ImagesEEG,001,200214,
AFNE01.JPG,AFNE01.JPG,AFNE01.JPG,AFNE01.JPG,AFNE01.JPG,AFNE01.JPG,,,,,,,,,,,,,,,,,,,,,0,9,9,8,,,AMNE02.jpg,AMNE03.jpg,AMSA03.jpg,AMSA16.jpg,AMNE02.jpg,MN,1,num_8,16,num_8,0.566805942217,,,2017_May_05_1648,60.0063705595,FEMA4ImagesEEG,001,200214,
AFNE01.JPG,AFNE01.JPG,AFNE01.JPG,AFNE01.JPG,AFNE01.JPG,AFNE01.JPG,,,,,,,,,,,,,,,,,,,,,1,0,10,4,,,AMSA09.jpg,AMNE03.jpg,AMNE20.jpg,AMSA03.jpg,AMSA03.jpg,MS,2,num_4,32,num_8,0.650137805613,,,2017_May_05_1648,60.0063705595,FEMA4ImagesEEG,001,200214,
AFNE01.JPG,AFNE01.JPG,AFNE01.JPG,AFNE01.JPG,AFNE01.JPG,AFNE01.JPG,,,,,,,,,,,,,,,,,,,,,1,1,11,6,,,AMNE14.jpg,AMNE16.jpg,AMSA20.jpg,AMSA16.jpg,AMNE16.jpg,MN,1,num_6,32,num_8,1.78338950011,,,2017_May_05_1648,60.0063705595,FEMA4ImagesEEG,001,200214,
AFNE01.JPG,AFNE01.JPG,AFNE01.JPG,AFNE01.JPG,AFNE01.JPG,AFNE01.JPG,,,,,,,,,,,,,,,,,,,,,1,2,12,7,,,AMNE16.jpg,AMNE20.jpg,AMSA04.jpg,AMSA19.jpg,AMSA19.jpg,MS,2,num_4,32,num_8,0.966694132658,,,2017_May_05_1648,60.0063705595,FEMA4ImagesEEG,001,200214,
AFNE01.JPG,AFNE01.JPG,AFNE01.JPG,AFNE01.JPG,AFNE01.JPG,AFNE01.JPG,,,,,,,,,,,,,,,,,,,,,1,3,13,2,,,AMNE12.jpg,AMNE16.jpg,AMSA02.jpg,AMSA07.jpg,AMNE12.jpg,MN,1,num_8,32,num_6,0.516879054718,,,2017_May_05_1648,60.0063705595,FEMA4ImagesEEG,001,200214,
AFNE01.JPG,AFNE01.JPG,AFNE01.JPG,AFNE01.JPG,AFNE01.JPG,AFNE01.JPG,,,,,,,,,,,,,,,,,,,,,1,4,14,1,,,AMSA10.jpg,AMNE08.jpg,AMNE19.jpg,AMSA19.jpg,AMSA10.jpg,MS,2,num_8,32,num_6,0.783526455751,,,2017_May_05_1648,60.0063705595,FEMA4ImagesEEG,001,200214,
AFNE01.JPG,AFNE01.JPG,AFNE01.JPG,AFNE01.JPG,AFNE01.JPG,AFNE01.JPG,,,,,,,,,,,,,,,,,,,,,1,5,15,9,,,AMSA09.jpg,AMNE09.jpg,AMSA15.jpg,AMNE01.jpg,AMNE01.jpg,MN,1,num_4,32,num_8,0.600156713277,,,2017_May_05_1648,60.0063705595,FEMA4ImagesEEG,001,200214,
AFNE01.JPG,AFNE01.JPG,AFNE01.JPG,AFNE01.JPG,AFNE01.JPG,AFNE01.JPG,,,,,,,,,,,,,,,,,,,,,1,6,16,0,,,AMNE01.jpg,AMSA03.jpg,AMSA10.jpg,AMNE11.jpg,AMSA10.jpg,MS,2,num_2,16,num_2,1.31670996104,,,2017_May_05_1648,60.0063705595,FEMA4ImagesEEG,001,200214,
AFNE01.JPG,AFNE01.JPG,AFNE01.JPG,AFNE01.JPG,AFNE01.JPG,AFNE01.JPG,,,,,,,,,,,,,,,,,,,,,1,7,17,8,,,AMSA15.jpg,AMNE04.jpg,AMNE19.jpg,AMSA10.jpg,AMSA10.jpg,MS,2,num_4,32,num_6,0.950168371899,,,2017_May_05_1648,60.0063705595,FEMA4ImagesEEG,001,200214,
AFNE01.JPG,AFNE01.JPG,AFNE01.JPG,AFNE01.JPG,AFNE01.JPG,AFNE01.JPG,,,,,,,,,,,,,,,,,,,,,1,8,18,5,,,AMSA14.jpg,AMNE13.jpg,AMNE08.jpg,AMSA18.jpg,AMSA18.jpg,MS,2,num_4,32,num_2,1.06678974489,,,2017_May_05_1648,60.0063705595,FEMA4ImagesEEG,001,200214,
AFNE01.JPG,AFNE01.JPG,AFNE01.JPG,AFNE01.JPG,AFNE01.JPG,AFNE01.JPG,,,,,,,,,,,,,,,,,,,,,1,9,19,3,,,AMNE15.jpg,AMSA01.jpg,AMSA11.jpg,AMNE14.jpg,AMSA01.jpg,MS,2,num_6,32,num_4,0.650102844927,,,2017_May_05_1648,60.0063705595,FEMA4ImagesEEG,001,200214,
AFNE01.JPG,AFNE01.JPG,AFNE01.JPG,AFNE01.JPG,AFNE01.JPG,AFNE01.JPG,,,,,,,,,,,,,,,,,,,,,2,0,20,0,,,AMNE12.jpg,AMNE07.jpg,AMSA04.jpg,AMSA02.jpg,AMSA04.jpg,MS,2,num_2,32,num_8,0.600146128796,,,2017_May_05_1648,60.0063705595,FEMA4ImagesEEG,001,200214,
AFNE01.JPG,AFNE01.JPG,AFNE01.JPG,AFNE01.JPG,AFNE01.JPG,AFNE01.JPG,,,,,,,,,,,,,,,,,,,,,2,1,21,8,,,AMNE02.jpg,AMSA19.jpg,AMSA06.jpg,AMNE07.jpg,AMNE02.jpg,MN,1,num_8,32,num_4,0.050219722325,,,2017_May_05_1648,60.0063705595,FEMA4ImagesEEG,001,200214,
AFNE01.JPG,AFNE01.JPG,AFNE01.JPG,AFNE01.JPG,AFNE01.JPG,AFNE01.JPG,,,,,,,,,,,,,,,,,,,,,2,2,22,6,,,AMNE07.jpg,AMNE10.jpg,AMSA20.jpg,AMSA10.jpg,AMSA10.jpg,MS,2,num_4,16,num_4,0.566805621376,,,2017_May_05_1648,60.0063705595,FEMA4ImagesEEG,001,200214,
AFNE01.JPG,AFNE01.JPG,AFNE01.JPG,AFNE01.JPG,AFNE01.JPG,AFNE01.JPG,,,,,,,,,,,,,,,,,,,,,2,3,23,5,,,AMNE01.jpg,AMSA06.jpg,AMSA17.jpg,AMNE04.jpg,AMSA06.jpg,MS,2,num_6,32,num_8,0.40020508063,,,2017_May_05_1648,60.0063705595,FEMA4ImagesEEG,001,200214,
AFNE01.JPG,AFNE01.JPG,AFNE01.JPG,AFNE01.JPG,AFNE01.JPG,AFNE01.JPG,,,,,,,,,,,,,,,,,,,,,2,4,24,1,,,AMNE11.jpg,AMSA06.jpg,AMNE19.jpg,AMSA05.jpg,AMNE11.jpg,MN,1,num_8,16,num_8,0.583508109441,,,2017_May_05_1648,60.0063705595,FEMA4ImagesEEG,001,200214,
AFNE01.JPG,AFNE01.JPG,AFNE01.JPG,AFNE01.JPG,AFNE01.JPG,AFNE01.JPG,,,,,,,,,,,,,,,,,,,,,2,5,25,2,,,AMSA05.jpg,AMNE18.jpg,AMNE10.jpg,AMSA13.jpg,AMSA05.jpg,MS,2,num_8,32,num_4,0.583477959968,,,2017_May_05_1648,60.0063705595,FEMA4ImagesEEG,001,200214,
AFNE01.JPG,AFNE01.JPG,AFNE01.JPG,AFNE01.JPG,AFNE01.JPG,AFNE01.JPG,,,,,,,,,,,,,,,,,,,,,2,6,26,7,,,AMSA11.jpg,AMNE19.jpg,AMSA07.jpg,AMNE02.jpg,AMNE19.jpg,MN,1,num_6,32,num_2,0.683500764426,,,2017_May_05_1648,60.0063705595,FEMA4ImagesEEG,001,200214,
AFNE01.JPG,AFNE01.JPG,AFNE01.JPG,AFNE01.JPG,AFNE01.JPG,AFNE01.JPG,,,,,,,,,,,,,,,,,,,,,2,7,27,4,,,AMNE14.jpg,AMNE04.jpg,AMSA13.jpg,AMSA11.jpg,AMSA11.jpg,MS,2,num_4,32,num_6,0.366826405516,,,2017_May_05_1648,60.0063705595,FEMA4ImagesEEG,001,200214,
AFNE01.JPG,AFNE01.JPG,AFNE01.JPG,AFNE01.JPG,AFNE01.JPG,AFNE01.JPG,,,,,,,,,,,,,,,,,,,,,2,8,28,3,,,AMNE15.jpg,AMNE13.jpg,AMSA04.jpg,AMSA19.jpg,AMSA19.jpg,MS,2,num_4,32,num_8,0.633616214618,,,2017_May_05_1648,60.0063705595,FEMA4ImagesEEG,001,200214,
AFNE01.JPG,AFNE01.JPG,AFNE01.JPG,AFNE01.JPG,AFNE01.JPG,AFNE01.JPG,,,,,,,,,,,,,,,,,,,,,2,9,29,9,,,AMSA09.jpg,AMNE12.jpg,AMSA11.jpg,AMNE09.jpg,AMSA09.jpg,MS,2,num_8,16,num_8,0.500183302443,,,2017_May_05_1648,60.0063705595,FEMA4ImagesEEG,001,200214,
AFNE01.JPG,AFNE01.JPG,AFNE01.JPG,AFNE01.JPG,AFNE01.JPG,AFNE01.JPG,,,,,,,,,,,,,,,,,,,,,3,0,30,7,,,AMNE05.jpg,AMNE10.jpg,AMSA20.jpg,AMSA13.jpg,AMSA13.jpg,MS,2,num_4,16,num_4,0.45014255261,,,2017_May_05_1648,60.0063705595,FEMA4ImagesEEG,001,200214,
AFNE01.JPG,AFNE01.JPG,AFNE01.JPG,AFNE01.JPG,AFNE01.JPG,AFNE01.JPG,,,,,,,,,,,,,,,,,,,,,3,1,31,2,,,AMNE08.jpg,AMNE20.jpg,AMSA02.jpg,AMSA01.jpg,AMNE20.jpg,MN,1,num_6,32,num_8,0.400175893214,,,2017_May_05_1648,60.0063705595,FEMA4ImagesEEG,001,200214,
AFNE01.JPG,AFNE01.JPG,AFNE01.JPG,AFNE01.JPG,AFNE01.JPG,AFNE01.JPG,,,,,,,,,,,,,,,,,,,,,3,2,32,1,,,AMSA01.jpg,AMSA06.jpg,AMNE02.jpg,AMNE07.jpg,AMSA01.jpg,MS,2,num_8,32,num_2,0.516773531679,,,2017_May_05_1648,60.0063705595,FEMA4ImagesEEG,001,200214,
AFNE01.JPG,AFNE01.JPG,AFNE01.JPG,AFNE01.JPG,AFNE01.JPG,AFNE01.JPG,,,,,,,,,,,,,,,,,,,,,3,3,33,8,,,AMNE13.jpg,AMSA20.jpg,AMSA12.jpg,AMNE09.jpg,AMNE13.jpg,MN,1,num_8,32,num_2,0.250190599123,,,2017_May_05_1648,60.0063705595,FEMA4ImagesEEG,001,200214,
AFNE01.JPG,AFNE01.JPG,AFNE01.JPG,AFNE01.JPG,AFNE01.JPG,AFNE01.JPG,,,,,,,,,,,,,,,,,,,,,3,4,34,0,,,AMNE19.jpg,AMNE01.jpg,AMSA09.jpg,AMSA04.jpg,AMNE01.jpg,MN,1,num_6,16,num_6,0.616779337171,,,2017_May_05_1648,60.0063705595,FEMA4ImagesEEG,001,200214,
AFNE01.JPG,AFNE01.JPG,AFNE01.JPG,AFNE01.JPG,AFNE01.JPG,AFNE01.JPG,,,,,,,,,,,,,,,,,,,,,3,5,35,6,,,AMSA10.jpg,AMNE16.jpg,AMNE10.jpg,AMSA09.jpg,AMSA10.jpg,MS,2,num_8,32,num_2,0.599853614578,,,2017_May_05_1648,60.0063705595,FEMA4ImagesEEG,001,200214,
AFNE01.JPG,AFNE01.JPG,AFNE01.JPG,AFNE01.JPG,AFNE01.JPG,AFNE01.JPG,,,,,,,,,,,,,,,,,,,,,3,6,36,3,,,AMSA09.jpg,AMSA17.jpg,AMNE05.jpg,AMNE12.jpg,AMNE12.jpg,MN,1,num_4,32,num_6,0.450204455061,,,2017_May_05_1648,60.0063705595,FEMA4ImagesEEG,001,200214,
AFNE01.JPG,AFNE01.JPG,AFNE01.JPG,AFNE01.JPG,AFNE01.JPG,AFNE01.JPG,,,,,,,,,,,,,,,,,,,,,3,7,37,5,,,AMSA14.jpg,AMSA10.jpg,AMNE16.jpg,AMNE14.jpg,AMNE14.jpg,MN,1,num_4,32,num_8,0.450151853962,,,2017_May_05_1648,60.0063705595,FEMA4ImagesEEG,001,200214,
AFNE01.JPG,AFNE01.JPG,AFNE01.JPG,AFNE01.JPG,AFNE01.JPG,AFNE01.JPG,,,,,,,,,,,,,,,,,,,,,3,8,38,9,,,AMSA15.jpg,AMSA06.jpg,AMNE09.jpg,AMNE11.jpg,AMNE09.jpg,MN,1,num_2,32,num_8,0.583452942315,,,2017_May_05_1648,60.0063705595,FEMA4ImagesEEG,001,200214,
AFNE01.JPG,AFNE01.JPG,AFNE01.JPG,AFNE01.JPG,AFNE01.JPG,AFNE01.JPG,,,,,,,,,,,,,,,,,,,,,3,9,39,4,,,AMNE05.jpg,AMSA06.jpg,AMNE04.jpg,AMSA13.jpg,AMNE04.jpg,MN,1,num_2,16,num_2,0.666791541036,,,2017_May_05_1648,60.0063705595,FEMA4ImagesEEG,001,200214,
