IPosition2,IPosition3,IPosition1,IPosition6,IPosition4,IPosition5,TrialsM1.thisRepN,TrialsM1.thisTrialN,TrialsM1.thisN,TrialsM1.thisIndex,TrialsF1.thisRepN,TrialsF1.thisTrialN,TrialsF1.thisN,TrialsF1.thisIndex,TrialsM2.thisRepN,TrialsM2.thisTrialN,TrialsM2.thisN,TrialsM2.thisIndex,TrialsF2.thisRepN,TrialsF2.thisTrialN,TrialsF2.thisN,TrialsF2.thisIndex,TrialsM3.thisRepN,TrialsM3.thisTrialN,TrialsM3.thisN,TrialsM3.thisIndex,TrialsF3.thisRepN,TrialsF3.thisTrialN,TrialsF3.thisN,TrialsF3.thisIndex,InstrKey_resp.keys,InstrKey_resp.rt,Image0 _Position,Image1 _Position,Image2 _Position,Image3 _Position,Center_image,condition,code,correct_answer,accuracy,Key_Resp.keys,Key_Resp.rt,BreakKey_resp.keys,BreakKey_resp.rt,date,frameRate,expName,session,participant,
,,,,,,,,,,,,,,,,,,,,,,,,,,,,,,space,15.1160058747,,,,,,,,,,,,,,2017_Apr_19_1803,60.0032524735,MAFE4ImagesEEG,001,200209,
AFSA21.JPG,AFNE23.JPG,AFNE21.JPG,AFSA25.JPG,AFNE25.JPG,AFSA23.JPG,0,0,0,4,,,,,,,,,,,,,,,,,,,,,,,AMSA12.jpg,AMNE19.jpg,AMNE12.jpg,AMSA02.jpg,AMSA12.jpg,MS,2,num_8,32,num_2,1.03347297243,,,2017_Apr_19_1803,60.0032524735,MAFE4ImagesEEG,001,200209,
AMNE23.JPG,AMNE24.JPG,AMNE22.JPG,AMSA24.JPG,AMSA22.JPG,AMSA23.JPG,0,1,1,9,,,,,,,,,,,,,,,,,,,,,,,AMSA14.jpg,AMNE14.jpg,AMSA19.jpg,AMNE01.jpg,AMNE14.jpg,MN,1,num_6,32,num_8,0.650178218668,,,2017_Apr_19_1803,60.0032524735,MAFE4ImagesEEG,001,200209,
AMSA21.JPG,AMNE23.JPG,AMNE21.JPG,AMSA25.JPG,AMNE25.JPG,AMSA23.JPG,0,2,2,5,,,,,,,,,,,,,,,,,,,,,,,AMNE10.jpg,AMSA01.jpg,AMNE09.jpg,AMSA19.jpg,AMSA19.jpg,MS,2,num_4,32,num_6,1.16673332694,,,2017_Apr_19_1803,60.0032524735,MAFE4ImagesEEG,001,200209,
AMNE22.JPG,AMSA24.JPG,AMSA22.JPG,AMNE25.JPG,AMNE24.JPG,AMSA25.JPG,0,3,3,7,,,,,,,,,,,,,,,,,,,,,,,AMSA06.jpg,AMNE09.jpg,AMSA12.jpg,AMNE15.jpg,AMNE15.jpg,MN,1,num_4,16,num_4,0.733457160008,,,2017_Apr_19_1803,60.0032524735,MAFE4ImagesEEG,001,200209,
AFSA25.JPG,AFNE24.JPG,AFSA24.JPG,AFNE21.JPG,AFSA21.JPG,AFNE25.JPG,0,4,4,2,,,,,,,,,,,,,,,,,,,,,,,AMNE10.jpg,AMNE15.jpg,AMSA03.jpg,AMSA16.jpg,AMNE15.jpg,MN,1,num_6,32,num_8,0.60002232343,,,2017_Apr_19_1803,60.0032524735,MAFE4ImagesEEG,001,200209,
AFSA21.JPG,AFNE22.JPG,AFNE21.JPG,AFSA23.JPG,AFSA22.JPG,AFNE23.JPG,0,5,5,0,,,,,,,,,,,,,,,,,,,,,,,AMNE15.jpg,AMSA11.jpg,AMSA05.jpg,AMNE13.jpg,AMNE13.jpg,MN,1,num_4,32,num_2,0.783580660587,,,2017_Apr_19_1803,60.0032524735,MAFE4ImagesEEG,001,200209,
AMSA21.JPG,AMNE22.JPG,AMNE21.JPG,AMSA23.JPG,AMSA22.JPG,AMNE23.JPG,0,6,6,1,,,,,,,,,,,,,,,,,,,,,,,AMSA17.jpg,AMNE06.jpg,AMNE12.jpg,AMSA10.jpg,AMSA17.jpg,MS,2,num_8,16,num_8,0.600129450293,,,2017_Apr_19_1803,60.0032524735,MAFE4ImagesEEG,001,200209,
AFNE23.JPG,AFNE24.JPG,AFNE22.JPG,AFSA24.JPG,AFSA22.JPG,AFSA23.JPG,0,7,7,8,,,,,,,,,,,,,,,,,,,,,,,AMNE16.jpg,AMSA01.jpg,AMSA15.jpg,AMNE03.jpg,AMNE16.jpg,MN,1,num_8,32,num_4,1.03343704966,,,2017_Apr_19_1803,60.0032524735,MAFE4ImagesEEG,001,200209,
AMSA25.JPG,AMNE24.JPG,AMSA24.JPG,AMNE26.JPG,AMSA21.JPG,AMNE25.JPG,0,8,8,3,,,,,,,,,,,,,,,,,,,,,,,AMNE19.jpg,AMSA12.jpg,AMSA06.jpg,AMNE20.jpg,AMSA06.jpg,MS,2,num_2,32,num_6,1.10007476425,,,2017_Apr_19_1803,60.0032524735,MAFE4ImagesEEG,001,200209,
AFNE22.JPG,AFSA24.JPG,AFSA22.JPG,AFNE25.JPG,AFNE24.JPG,AFSA25.JPG,0,9,9,6,,,,,,,,,,,,,,,,,,,,,,,AMNE01.jpg,AMSA12.jpg,AMNE08.jpg,AMSA07.jpg,AMSA07.jpg,MS,2,num_4,16,num_4,0.416778631363,,,2017_Apr_19_1803,60.0032524735,MAFE4ImagesEEG,001,200209,
AMSA25.JPG,AMNE24.JPG,AMSA24.JPG,AMNE26.JPG,AMSA21.JPG,AMNE25.JPG,,,,,0,0,0,3,,,,,,,,,,,,,,,,,,,AFNE09.jpg,AFSA01.jpg,AFSA06.jpg,AFNE01.jpg,AFSA06.jpg,FS,4,num_2,16,num_2,0.817032143503,,,2017_Apr_19_1803,60.0032524735,MAFE4ImagesEEG,001,200209,
AFNE22.JPG,AFSA24.JPG,AFSA22.JPG,AFNE25.JPG,AFNE24.JPG,AFSA25.JPG,,,,,0,1,1,6,,,,,,,,,,,,,,,,,,,AFNE01.jpg,AFSA02.jpg,AFNE17.jpg,AFSA19.jpg,AFNE01.jpg,FN,3,num_8,16,num_8,0.533460623992,,,2017_Apr_19_1803,60.0032524735,MAFE4ImagesEEG,001,200209,
AMNE22.JPG,AMSA24.JPG,AMSA22.JPG,AMNE25.JPG,AMNE24.JPG,AMSA25.JPG,,,,,0,2,2,7,,,,,,,,,,,,,,,,,,,AFSA12.jpg,AFSA19.jpg,AFNE03.jpg,AFNE11.jpg,AFNE03.jpg,FN,3,num_2,32,num_6,0.63345809016,,,2017_Apr_19_1803,60.0032524735,MAFE4ImagesEEG,001,200209,
AMSA21.JPG,AMNE23.JPG,AMNE21.JPG,AMSA25.JPG,AMNE25.JPG,AMSA23.JPG,,,,,0,3,3,5,,,,,,,,,,,,,,,,,,,AFNE02.jpg,AFSA01.jpg,AFNE19.jpg,AFSA09.jpg,AFNE02.jpg,FN,3,num_8,32,num_4,0.366749428038,,,2017_Apr_19_1803,60.0032524735,MAFE4ImagesEEG,001,200209,
AMNE23.JPG,AMNE24.JPG,AMNE22.JPG,AMSA24.JPG,AMSA22.JPG,AMSA23.JPG,,,,,0,4,4,9,,,,,,,,,,,,,,,,,,,AFSA17.jpg,AFSA10.jpg,AFNE09.jpg,AFNE19.jpg,AFSA10.jpg,FS,4,num_6,32,num_2,1.08341365177,,,2017_Apr_19_1803,60.0032524735,MAFE4ImagesEEG,001,200209,
AFSA21.JPG,AFNE23.JPG,AFNE21.JPG,AFSA25.JPG,AFNE25.JPG,AFSA23.JPG,,,,,0,5,5,4,,,,,,,,,,,,,,,,,,,AFSA20.jpg,AFNE02.jpg,AFNE04.jpg,AFSA02.jpg,AFNE02.jpg,FN,3,num_6,16,num_6,1.18338096846,,,2017_Apr_19_1803,60.0032524735,MAFE4ImagesEEG,001,200209,
AMSA21.JPG,AMNE22.JPG,AMNE21.JPG,AMSA23.JPG,AMSA22.JPG,AMNE23.JPG,,,,,0,6,6,1,,,,,,,,,,,,,,,,,,,AFSA04.jpg,AFNE03.jpg,AFNE08.jpg,AFSA16.jpg,AFNE08.jpg,FN,3,num_2,32,num_8,0.316828634561,,,2017_Apr_19_1803,60.0032524735,MAFE4ImagesEEG,001,200209,
AFSA25.JPG,AFNE24.JPG,AFSA24.JPG,AFNE21.JPG,AFSA21.JPG,AFNE25.JPG,,,,,0,7,7,2,,,,,,,,,,,,,,,,,,,AFNE19.jpg,AFSA15.jpg,AFNE17.jpg,AFSA07.jpg,AFSA15.jpg,FS,4,num_6,16,num_6,0.583491110243,,,2017_Apr_19_1803,60.0032524735,MAFE4ImagesEEG,001,200209,
AFSA21.JPG,AFNE22.JPG,AFNE21.JPG,AFSA23.JPG,AFSA22.JPG,AFNE23.JPG,,,,,0,8,8,0,,,,,,,,,,,,,,,,,,,AFSA09.jpg,AFSA14.jpg,AFNE15.jpg,AFNE18.jpg,AFNE15.jpg,FN,3,num_2,32,num_8,1.59998030661,,,2017_Apr_19_1803,60.0032524735,MAFE4ImagesEEG,001,200209,
AFNE23.JPG,AFNE24.JPG,AFNE22.JPG,AFSA24.JPG,AFSA22.JPG,AFSA23.JPG,,,,,0,9,9,8,,,,,,,,,,,,,,,,,,,AFNE06.jpg,AFNE01.jpg,AFSA14.jpg,AFSA07.jpg,AFNE06.jpg,FN,3,num_8,32,num_2,0.583442037139,,,2017_Apr_19_1803,60.0032524735,MAFE4ImagesEEG,001,200209,
AMSA25.JPG,AMNE24.JPG,AMSA24.JPG,AMNE26.JPG,AMSA21.JPG,AMNE25.JPG,,,,,,,,,0,0,0,3,,,,,,,,,,,,,,,AMSA09.jpg,AMSA20.jpg,AMNE09.jpg,AMNE18.jpg,AMSA09.jpg,MS,2,num_8,32,num_6,0.616783506557,,,2017_Apr_19_1803,60.0032524735,MAFE4ImagesEEG,001,200209,
AMNE23.JPG,AMNE24.JPG,AMNE22.JPG,AMSA24.JPG,AMSA22.JPG,AMSA23.JPG,,,,,,,,,0,1,1,9,,,,,,,,,,,,,,,AMSA03.jpg,AMNE15.jpg,AMNE10.jpg,AMSA09.jpg,AMSA09.jpg,MS,2,num_4,32,num_8,0.250131583191,,,2017_Apr_19_1803,60.0032524735,MAFE4ImagesEEG,001,200209,
AFSA21.JPG,AFNE22.JPG,AFNE21.JPG,AFSA23.JPG,AFSA22.JPG,AFNE23.JPG,,,,,,,,,0,2,2,0,,,,,,,,,,,,,,,AMNE10.jpg,AMSA17.jpg,AMNE03.jpg,AMSA13.jpg,AMSA13.jpg,MS,2,num_4,32,num_2,1.5000652704,,,2017_Apr_19_1803,60.0032524735,MAFE4ImagesEEG,001,200209,
AMSA21.JPG,AMNE22.JPG,AMNE21.JPG,AMSA23.JPG,AMSA22.JPG,AMNE23.JPG,,,,,,,,,0,3,3,1,,,,,,,,,,,,,,,AMNE17.jpg,AMNE13.jpg,AMSA17.jpg,AMSA07.jpg,AMSA17.jpg,MS,2,num_2,32,num_4,0.733461971075,,,2017_Apr_19_1803,60.0032524735,MAFE4ImagesEEG,001,200209,
AMSA21.JPG,AMNE23.JPG,AMNE21.JPG,AMSA25.JPG,AMNE25.JPG,AMSA23.JPG,,,,,,,,,0,4,4,5,,,,,,,,,,,,,,,AMNE12.jpg,AMSA12.jpg,AMSA13.jpg,AMNE07.jpg,AMSA12.jpg,MS,2,num_6,32,num_8,0.416823855543,,,2017_Apr_19_1803,60.0032524735,MAFE4ImagesEEG,001,200209,
AFNE22.JPG,AFSA24.JPG,AFSA22.JPG,AFNE25.JPG,AFNE24.JPG,AFSA25.JPG,,,,,,,,,0,5,5,6,,,,,,,,,,,,,,,AMNE09.jpg,AMNE08.jpg,AMSA17.jpg,AMSA01.jpg,AMSA01.jpg,MS,2,num_4,16,num_4,0.583436263842,,,2017_Apr_19_1803,60.0032524735,MAFE4ImagesEEG,001,200209,
AFSA25.JPG,AFNE24.JPG,AFSA24.JPG,AFNE21.JPG,AFSA21.JPG,AFNE25.JPG,,,,,,,,,0,6,6,2,,,,,,,,,,,,,,,AMNE16.jpg,AMSA03.jpg,AMNE08.jpg,AMSA10.jpg,AMSA03.jpg,MS,2,num_6,16,num_6,0.616823598946,,,2017_Apr_19_1803,60.0032524735,MAFE4ImagesEEG,001,200209,
AFNE23.JPG,AFNE24.JPG,AFNE22.JPG,AFSA24.JPG,AFSA22.JPG,AFSA23.JPG,,,,,,,,,0,7,7,8,,,,,,,,,,,,,,,AMSA08.jpg,AMSA03.jpg,AMNE18.jpg,AMNE10.jpg,AMNE18.jpg,MN,1,num_2,16,num_2,0.566635629802,,,2017_Apr_19_1803,60.0032524735,MAFE4ImagesEEG,001,200209,
AMNE22.JPG,AMSA24.JPG,AMSA22.JPG,AMNE25.JPG,AMNE24.JPG,AMSA25.JPG,,,,,,,,,0,8,8,7,,,,,,,,,,,,,,,AMSA07.jpg,AMNE03.jpg,AMNE09.jpg,AMSA13.jpg,AMSA13.jpg,MS,2,num_4,32,num_8,0.233501903102,,,2017_Apr_19_1803,60.0032524735,MAFE4ImagesEEG,001,200209,
AFSA21.JPG,AFNE23.JPG,AFNE21.JPG,AFSA25.JPG,AFNE25.JPG,AFSA23.JPG,,,,,,,,,0,9,9,4,,,,,,,,,,,,,,,AMSA07.jpg,AMSA05.jpg,AMNE12.jpg,AMNE01.jpg,AMSA05.jpg,MS,2,num_6,32,num_8,0.766790610942,,,2017_Apr_19_1803,60.0032524735,MAFE4ImagesEEG,001,200209,
AFSA25.JPG,AFNE24.JPG,AFSA24.JPG,AFNE21.JPG,AFSA21.JPG,AFNE25.JPG,,,,,,,,,,,,,0,0,0,2,,,,,,,,,,,AFNE15.jpg,AFSA08.jpg,AFSA20.jpg,AFNE20.jpg,AFNE20.jpg,FN,3,num_4,32,num_2,1.06677980203,,,2017_Apr_19_1803,60.0032524735,MAFE4ImagesEEG,001,200209,
AFNE22.JPG,AFSA24.JPG,AFSA22.JPG,AFNE25.JPG,AFNE24.JPG,AFSA25.JPG,,,,,,,,,,,,,0,1,1,6,,,,,,,,,,,AFSA04.jpg,AFNE02.jpg,AFNE12.jpg,AFSA05.jpg,AFSA05.jpg,FS,4,num_4,16,num_4,0.783610168583,,,2017_Apr_19_1803,60.0032524735,MAFE4ImagesEEG,001,200209,
AMSA25.JPG,AMNE24.JPG,AMSA24.JPG,AMNE26.JPG,AMSA21.JPG,AMNE25.JPG,,,,,,,,,,,,,0,2,2,3,,,,,,,,,,,AFSA05.jpg,AFNE04.jpg,AFNE01.jpg,AFSA11.jpg,AFNE04.jpg,FN,3,num_6,32,num_8,1.21672981486,,,2017_Apr_19_1803,60.0032524735,MAFE4ImagesEEG,001,200209,
AFSA21.JPG,AFNE22.JPG,AFNE21.JPG,AFSA23.JPG,AFSA22.JPG,AFNE23.JPG,,,,,,,,,,,,,0,3,3,0,,,,,,,,,,,AFNE07.jpg,AFSA10.jpg,AFSA04.jpg,AFNE03.jpg,AFSA10.jpg,FS,4,num_6,32,num_8,0.883492810157,,,2017_Apr_19_1803,60.0032524735,MAFE4ImagesEEG,001,200209,
AMSA21.JPG,AMNE22.JPG,AMNE21.JPG,AMSA23.JPG,AMSA22.JPG,AMNE23.JPG,,,,,,,,,,,,,0,4,4,1,,,,,,,,,,,AFNE07.jpg,AFNE01.jpg,AFSA04.jpg,AFSA18.jpg,AFNE01.jpg,FN,3,num_6,32,num_4,0.433446158626,,,2017_Apr_19_1803,60.0032524735,MAFE4ImagesEEG,001,200209,
AMNE23.JPG,AMNE24.JPG,AMNE22.JPG,AMSA24.JPG,AMSA22.JPG,AMSA23.JPG,,,,,,,,,,,,,0,5,5,9,,,,,,,,,,,AFSA05.jpg,AFSA09.jpg,AFNE07.jpg,AFNE09.jpg,AFSA05.jpg,FS,4,num_8,32,num_4,0.83344724917,,,2017_Apr_19_1803,60.0032524735,MAFE4ImagesEEG,001,200209,
AFSA21.JPG,AFNE23.JPG,AFNE21.JPG,AFSA25.JPG,AFNE25.JPG,AFSA23.JPG,,,,,,,,,,,,,0,6,6,4,,,,,,,,,,,AFSA16.jpg,AFNE09.jpg,AFSA10.jpg,AFNE19.jpg,AFNE09.jpg,FN,3,num_6,32,num_4,0.966745450889,,,2017_Apr_19_1803,60.0032524735,MAFE4ImagesEEG,001,200209,
AFNE23.JPG,AFNE24.JPG,AFNE22.JPG,AFSA24.JPG,AFSA22.JPG,AFSA23.JPG,,,,,,,,,,,,,0,7,7,8,,,,,,,,,,,AFSA05.jpg,AFNE10.jpg,AFSA18.jpg,AFNE11.jpg,AFSA18.jpg,FS,4,num_2,16,num_2,1.05010265255,,,2017_Apr_19_1803,60.0032524735,MAFE4ImagesEEG,001,200209,
AMNE22.JPG,AMSA24.JPG,AMSA22.JPG,AMNE25.JPG,AMNE24.JPG,AMSA25.JPG,,,,,,,,,,,,,0,8,8,7,,,,,,,,,,,AFNE15.jpg,AFSA18.jpg,AFSA09.jpg,AFNE08.jpg,AFNE15.jpg,FN,3,num_8,32,num_6,0.450139345106,,,2017_Apr_19_1803,60.0032524735,MAFE4ImagesEEG,001,200209,
AMSA21.JPG,AMNE23.JPG,AMNE21.JPG,AMSA25.JPG,AMNE25.JPG,AMSA23.JPG,,,,,,,,,,,,,0,9,9,5,,,,,,,,,,,AFSA11.jpg,AFSA15.jpg,AFNE15.jpg,AFNE08.jpg,AFNE15.jpg,FN,3,num_2,32,num_4,0.616774525872,,,2017_Apr_19_1803,60.0032524735,MAFE4ImagesEEG,001,200209,
AFSA21.JPG,AFNE22.JPG,AFNE21.JPG,AFSA23.JPG,AFSA22.JPG,AFNE23.JPG,,,,,,,,,,,,,,,,,0,0,0,0,,,,,,,AMSA14.jpg,AMSA07.jpg,AMNE04.jpg,AMNE09.jpg,AMSA07.jpg,MS,2,num_6,16,num_6,0.783473854477,,,2017_Apr_19_1803,60.0032524735,MAFE4ImagesEEG,001,200209,
AFNE22.JPG,AFSA24.JPG,AFSA22.JPG,AFNE25.JPG,AFNE24.JPG,AFSA25.JPG,,,,,,,,,,,,,,,,,0,1,1,6,,,,,,,AMNE03.jpg,AMNE11.jpg,AMSA09.jpg,AMSA15.jpg,AMSA15.jpg,MS,2,num_4,32,num_2,0.366787595995,,,2017_Apr_19_1803,60.0032524735,MAFE4ImagesEEG,001,200209,
AFSA25.JPG,AFNE24.JPG,AFSA24.JPG,AFNE21.JPG,AFSA21.JPG,AFNE25.JPG,,,,,,,,,,,,,,,,,0,2,2,2,,,,,,,AMNE08.jpg,AMSA16.jpg,AMNE12.jpg,AMSA18.jpg,AMSA18.jpg,MS,2,num_4,16,num_4,0.583504581271,,,2017_Apr_19_1803,60.0032524735,MAFE4ImagesEEG,001,200209,
AMNE22.JPG,AMSA24.JPG,AMSA22.JPG,AMNE25.JPG,AMNE24.JPG,AMSA25.JPG,,,,,,,,,,,,,,,,,0,3,3,7,,,,,,,AMSA08.jpg,AMSA07.jpg,AMNE03.jpg,AMNE16.jpg,AMNE03.jpg,MN,1,num_2,32,num_6,0.266836636991,,,2017_Apr_19_1803,60.0032524735,MAFE4ImagesEEG,001,200209,
AMSA21.JPG,AMNE22.JPG,AMNE21.JPG,AMSA23.JPG,AMSA22.JPG,AMNE23.JPG,,,,,,,,,,,,,,,,,0,4,4,1,,,,,,,AMSA16.jpg,AMNE03.jpg,AMNE16.jpg,AMSA08.jpg,AMNE16.jpg,MN,1,num_2,16,num_2,0.933402377763,,,2017_Apr_19_1803,60.0032524735,MAFE4ImagesEEG,001,200209,
AFNE23.JPG,AFNE24.JPG,AFNE22.JPG,AFSA24.JPG,AFSA22.JPG,AFSA23.JPG,,,,,,,,,,,,,,,,,0,5,5,8,,,,,,,AMSA11.jpg,AMNE02.jpg,AMNE16.jpg,AMSA10.jpg,AMSA10.jpg,MS,2,num_4,32,num_6,1.7833747461,,,2017_Apr_19_1803,60.0032524735,MAFE4ImagesEEG,001,200209,
AMSA25.JPG,AMNE24.JPG,AMSA24.JPG,AMNE26.JPG,AMSA21.JPG,AMNE25.JPG,,,,,,,,,,,,,,,,,0,6,6,3,,,,,,,AMNE19.jpg,AMSA15.jpg,AMNE04.jpg,AMSA10.jpg,AMNE04.jpg,MN,1,num_2,16,num_2,0.433509344235,,,2017_Apr_19_1803,60.0032524735,MAFE4ImagesEEG,001,200209,
AMSA21.JPG,AMNE23.JPG,AMNE21.JPG,AMSA25.JPG,AMNE25.JPG,AMSA23.JPG,,,,,,,,,,,,,,,,,0,7,7,5,,,,,,,AMSA07.jpg,AMSA17.jpg,AMNE17.jpg,AMNE07.jpg,AMNE17.jpg,MN,1,num_2,32,num_4,0.883491527202,,,2017_Apr_19_1803,60.0032524735,MAFE4ImagesEEG,001,200209,
AMNE23.JPG,AMNE24.JPG,AMNE22.JPG,AMSA24.JPG,AMSA22.JPG,AMSA23.JPG,,,,,,,,,,,,,,,,,0,8,8,9,,,,,,,AMNE10.jpg,AMNE19.jpg,AMSA10.jpg,AMSA07.jpg,AMNE10.jpg,MN,1,num_8,32,num_6,0.533511942223,,,2017_Apr_19_1803,60.0032524735,MAFE4ImagesEEG,001,200209,
AFSA21.JPG,AFNE23.JPG,AFNE21.JPG,AFSA25.JPG,AFNE25.JPG,AFSA23.JPG,,,,,,,,,,,,,,,,,0,9,9,4,,,,,,,AMNE16.jpg,AMSA10.jpg,AMNE11.jpg,AMSA05.jpg,AMSA05.jpg,MS,2,num_4,32,num_8,0.650146144762,,,2017_Apr_19_1803,60.0032524735,MAFE4ImagesEEG,001,200209,
AMNE23.JPG,AMNE24.JPG,AMNE22.JPG,AMSA24.JPG,AMSA22.JPG,AMSA23.JPG,,,,,,,,,,,,,,,,,,,,,0,0,0,9,,,AFNE10.jpg,AFSA18.jpg,AFNE07.jpg,AFSA15.jpg,AFNE10.jpg,FN,3,num_8,32,num_4,0.816720705858,,,2017_Apr_19_1803,60.0032524735,MAFE4ImagesEEG,001,200209,
AFSA25.JPG,AFNE24.JPG,AFSA24.JPG,AFNE21.JPG,AFSA21.JPG,AFNE25.JPG,,,,,,,,,,,,,,,,,,,,,0,1,1,2,,,AFSA09.jpg,AFNE04.jpg,AFNE10.jpg,AFSA08.jpg,AFSA08.jpg,FS,4,num_4,32,num_8,0.85001983773,,,2017_Apr_19_1803,60.0032524735,MAFE4ImagesEEG,001,200209,
AFNE22.JPG,AFSA24.JPG,AFSA22.JPG,AFNE25.JPG,AFNE24.JPG,AFSA25.JPG,,,,,,,,,,,,,,,,,,,,,0,2,2,6,,,AFSA09.jpg,AFNE07.jpg,AFSA17.jpg,AFNE11.jpg,AFNE11.jpg,FN,3,num_4,32,num_2,0.533476981684,,,2017_Apr_19_1803,60.0032524735,MAFE4ImagesEEG,001,200209,
AFSA21.JPG,AFNE23.JPG,AFNE21.JPG,AFSA25.JPG,AFNE25.JPG,AFSA23.JPG,,,,,,,,,,,,,,,,,,,,,0,3,3,4,,,AFSA12.jpg,AFSA20.jpg,AFNE09.jpg,AFNE02.jpg,AFNE09.jpg,FN,3,num_2,32,num_4,0.983482899319,,,2017_Apr_19_1803,60.0032524735,MAFE4ImagesEEG,001,200209,
AMNE22.JPG,AMSA24.JPG,AMSA22.JPG,AMNE25.JPG,AMNE24.JPG,AMSA25.JPG,,,,,,,,,,,,,,,,,,,,,0,4,4,7,,,AFSA11.jpg,AFNE17.jpg,AFSA03.jpg,AFNE11.jpg,AFNE11.jpg,FN,3,num_4,32,num_6,0.416878060438,,,2017_Apr_19_1803,60.0032524735,MAFE4ImagesEEG,001,200209,
AMSA21.JPG,AMNE22.JPG,AMNE21.JPG,AMSA23.JPG,AMSA22.JPG,AMNE23.JPG,,,,,,,,,,,,,,,,,,,,,0,5,5,1,,,AFSA11.jpg,AFSA06.jpg,AFNE17.jpg,AFNE16.jpg,AFSA06.jpg,FS,4,num_6,32,num_4,1.08348325212,,,2017_Apr_19_1803,60.0032524735,MAFE4ImagesEEG,001,200209,
AMSA25.JPG,AMNE24.JPG,AMSA24.JPG,AMNE26.JPG,AMSA21.JPG,AMNE25.JPG,,,,,,,,,,,,,,,,,,,,,0,6,6,3,,,AFSA14.jpg,AFSA09.jpg,AFNE04.jpg,AFNE17.jpg,AFSA14.jpg,FS,4,num_8,32,num_4,1.18331553767,,,2017_Apr_19_1803,60.0032524735,MAFE4ImagesEEG,001,200209,
AFNE23.JPG,AFNE24.JPG,AFNE22.JPG,AFSA24.JPG,AFSA22.JPG,AFSA23.JPG,,,,,,,,,,,,,,,,,,,,,0,7,7,8,,,AFSA17.jpg,AFNE15.jpg,AFSA20.jpg,AFNE20.jpg,AFNE20.jpg,FN,3,num_4,32,num_2,0.383503875637,,,2017_Apr_19_1803,60.0032524735,MAFE4ImagesEEG,001,200209,
AFSA21.JPG,AFNE22.JPG,AFNE21.JPG,AFSA23.JPG,AFSA22.JPG,AFNE23.JPG,,,,,,,,,,,,,,,,,,,,,0,8,8,0,,,AFNE09.jpg,AFNE18.jpg,AFSA20.jpg,AFSA11.jpg,AFSA11.jpg,FS,4,num_4,32,num_8,0.96671979173,,,2017_Apr_19_1803,60.0032524735,MAFE4ImagesEEG,001,200209,
AMSA21.JPG,AMNE23.JPG,AMNE21.JPG,AMSA25.JPG,AMNE25.JPG,AMSA23.JPG,,,,,,,,,,,,,,,,,,,,,0,9,9,5,,,AFSA09.jpg,AFNE09.jpg,AFNE14.jpg,AFSA16.jpg,AFNE14.jpg,FN,3,num_2,16,num_2,0.533455812896,,,2017_Apr_19_1803,60.0032524735,MAFE4ImagesEEG,001,200209,
,,,,,,,,,,,,,,,,,,,,,,,,,,,,,,,,,,,,,,,,,,,space,20.1319097222,2017_Apr_19_1803,60.0032524735,MAFE4ImagesEEG,001,200209,
AFNE01.JPG,AFNE01.JPG,AFNE01.JPG,AFNE01.JPG,AFNE01.JPG,AFNE01.JPG,0,0,0,9,,,,,,,,,,,,,,,,,,,,,,,AMSA07.jpg,AMSA20.jpg,AMNE07.jpg,AMNE13.jpg,AMNE13.jpg,MN,1,num_4,16,num_4,0.883451114089,,,2017_Apr_19_1803,60.0032524735,MAFE4ImagesEEG,001,200209,
AFNE01.JPG,AFNE01.JPG,AFNE01.JPG,AFNE01.JPG,AFNE01.JPG,AFNE01.JPG,0,1,1,8,,,,,,,,,,,,,,,,,,,,,,,AMNE08.jpg,AMNE03.jpg,AMSA14.jpg,AMSA11.jpg,AMSA14.jpg,MS,2,num_2,16,num_2,1.00012765417,,,2017_Apr_19_1803,60.0032524735,MAFE4ImagesEEG,001,200209,
AFNE01.JPG,AFNE01.JPG,AFNE01.JPG,AFNE01.JPG,AFNE01.JPG,AFNE01.JPG,0,2,2,1,,,,,,,,,,,,,,,,,,,,,,,AMNE01.jpg,AMSA15.jpg,AMSA03.jpg,AMNE17.jpg,AMNE17.jpg,MN,1,num_4,32,num_8,0.650108939037,,,2017_Apr_19_1803,60.0032524735,MAFE4ImagesEEG,001,200209,
AFNE01.JPG,AFNE01.JPG,AFNE01.JPG,AFNE01.JPG,AFNE01.JPG,AFNE01.JPG,0,3,3,0,,,,,,,,,,,,,,,,,,,,,,,AMSA09.jpg,AMNE11.jpg,AMSA20.jpg,AMNE12.jpg,AMSA09.jpg,MS,2,num_8,32,num_2,0.933440866444,,,2017_Apr_19_1803,60.0032524735,MAFE4ImagesEEG,001,200209,
AFNE01.JPG,AFNE01.JPG,AFNE01.JPG,AFNE01.JPG,AFNE01.JPG,AFNE01.JPG,0,4,4,6,,,,,,,,,,,,,,,,,,,,,,,AMNE14.jpg,AMSA15.jpg,AMNE08.jpg,AMSA06.jpg,AMNE08.jpg,MN,1,num_2,32,num_8,0.650147427717,,,2017_Apr_19_1803,60.0032524735,MAFE4ImagesEEG,001,200209,
AFNE01.JPG,AFNE01.JPG,AFNE01.JPG,AFNE01.JPG,AFNE01.JPG,AFNE01.JPG,0,5,5,5,,,,,,,,,,,,,,,,,,,,,,,AMSA18.jpg,AMNE06.jpg,AMSA13.jpg,AMNE17.jpg,AMNE17.jpg,MN,1,num_4,32,num_2,0.35017363209,,,2017_Apr_19_1803,60.0032524735,MAFE4ImagesEEG,001,200209,
AFNE01.JPG,AFNE01.JPG,AFNE01.JPG,AFNE01.JPG,AFNE01.JPG,AFNE01.JPG,0,6,6,7,,,,,,,,,,,,,,,,,,,,,,,AMSA06.jpg,AMNE02.jpg,AMNE07.jpg,AMSA09.jpg,AMNE07.jpg,MN,1,num_2,32,num_4,0.683460992848,,,2017_Apr_19_1803,60.0032524735,MAFE4ImagesEEG,001,200209,
AFNE01.JPG,AFNE01.JPG,AFNE01.JPG,AFNE01.JPG,AFNE01.JPG,AFNE01.JPG,0,7,7,3,,,,,,,,,,,,,,,,,,,,,,,AMSA05.jpg,AMNE17.jpg,AMNE07.jpg,AMSA13.jpg,AMSA05.jpg,MS,2,num_8,16,num_8,0.916846467648,,,2017_Apr_19_1803,60.0032524735,MAFE4ImagesEEG,001,200209,
AFNE01.JPG,AFNE01.JPG,AFNE01.JPG,AFNE01.JPG,AFNE01.JPG,AFNE01.JPG,0,8,8,4,,,,,,,,,,,,,,,,,,,,,,,AMSA10.jpg,AMNE02.jpg,AMNE15.jpg,AMSA04.jpg,AMSA10.jpg,MS,2,num_8,16,num_8,1.11676859218,,,2017_Apr_19_1803,60.0032524735,MAFE4ImagesEEG,001,200209,
AFNE01.JPG,AFNE01.JPG,AFNE01.JPG,AFNE01.JPG,AFNE01.JPG,AFNE01.JPG,0,9,9,2,,,,,,,,,,,,,,,,,,,,,,,AMNE08.jpg,AMSA07.jpg,AMSA12.jpg,AMNE15.jpg,AMSA07.jpg,MS,2,num_6,16,num_6,0.55010730325,,,2017_Apr_19_1803,60.0032524735,MAFE4ImagesEEG,001,200209,
AFNE01.JPG,AFNE01.JPG,AFNE01.JPG,AFNE01.JPG,AFNE01.JPG,AFNE01.JPG,1,0,10,1,,,,,,,,,,,,,,,,,,,,,,,AMNE01.jpg,AMNE16.jpg,AMSA09.jpg,AMSA16.jpg,AMSA16.jpg,MS,2,num_4,16,num_4,0.700175668811,,,2017_Apr_19_1803,60.0032524735,MAFE4ImagesEEG,001,200209,
AFNE01.JPG,AFNE01.JPG,AFNE01.JPG,AFNE01.JPG,AFNE01.JPG,AFNE01.JPG,1,1,11,3,,,,,,,,,,,,,,,,,,,,,,,AMNE17.jpg,AMSA08.jpg,AMNE02.jpg,AMSA15.jpg,AMSA08.jpg,MS,2,num_6,32,num_8,0.616768752545,,,2017_Apr_19_1803,60.0032524735,MAFE4ImagesEEG,001,200209,
AFNE01.JPG,AFNE01.JPG,AFNE01.JPG,AFNE01.JPG,AFNE01.JPG,AFNE01.JPG,1,2,12,7,,,,,,,,,,,,,,,,,,,,,,,AMSA15.jpg,AMSA14.jpg,AMNE02.jpg,AMNE03.jpg,AMNE03.jpg,MN,1,num_4,16,num_4,0.93301075534,,,2017_Apr_19_1803,60.0032524735,MAFE4ImagesEEG,001,200209,
AFNE01.JPG,AFNE01.JPG,AFNE01.JPG,AFNE01.JPG,AFNE01.JPG,AFNE01.JPG,1,3,13,2,,,,,,,,,,,,,,,,,,,,,,,AMNE08.jpg,AMSA14.jpg,AMSA09.jpg,AMNE02.jpg,AMNE02.jpg,MN,1,num_4,32,num_8,1.48327040966,,,2017_Apr_19_1803,60.0032524735,MAFE4ImagesEEG,001,200209,
AFNE01.JPG,AFNE01.JPG,AFNE01.JPG,AFNE01.JPG,AFNE01.JPG,AFNE01.JPG,1,4,14,0,,,,,,,,,,,,,,,,,,,,,,,AMSA04.jpg,AMNE06.jpg,AMNE17.jpg,AMSA05.jpg,AMSA04.jpg,MS,2,num_8,32,num_2,0.633471881913,,,2017_Apr_19_1803,60.0032524735,MAFE4ImagesEEG,001,200209,
AFNE01.JPG,AFNE01.JPG,AFNE01.JPG,AFNE01.JPG,AFNE01.JPG,AFNE01.JPG,1,5,15,4,,,,,,,,,,,,,,,,,,,,,,,AMSA02.jpg,AMSA18.jpg,AMNE04.jpg,AMNE03.jpg,AMSA18.jpg,MS,2,num_6,32,num_4,0.666786088521,,,2017_Apr_19_1803,60.0032524735,MAFE4ImagesEEG,001,200209,
AFNE01.JPG,AFNE01.JPG,AFNE01.JPG,AFNE01.JPG,AFNE01.JPG,AFNE01.JPG,1,6,16,8,,,,,,,,,,,,,,,,,,,,,,,AMSA08.jpg,AMSA02.jpg,AMNE06.jpg,AMNE19.jpg,AMNE06.jpg,MN,1,num_2,32,num_6,0.733536703308,,,2017_Apr_19_1803,60.0032524735,MAFE4ImagesEEG,001,200209,
AFNE01.JPG,AFNE01.JPG,AFNE01.JPG,AFNE01.JPG,AFNE01.JPG,AFNE01.JPG,1,7,17,6,,,,,,,,,,,,,,,,,,,,,,,AMNE13.jpg,AMSA09.jpg,AMNE18.jpg,AMSA01.jpg,AMNE13.jpg,MN,1,num_8,32,num_4,0.8834546422,,,2017_Apr_19_1803,60.0032524735,MAFE4ImagesEEG,001,200209,
AFNE01.JPG,AFNE01.JPG,AFNE01.JPG,AFNE01.JPG,AFNE01.JPG,AFNE01.JPG,1,8,18,9,,,,,,,,,,,,,,,,,,,,,,,AMSA13.jpg,AMNE01.jpg,AMNE20.jpg,AMSA02.jpg,AMSA02.jpg,MS,2,num_4,16,num_4,0.90013403687,,,2017_Apr_19_1803,60.0032524735,MAFE4ImagesEEG,001,200209,
AFNE01.JPG,AFNE01.JPG,AFNE01.JPG,AFNE01.JPG,AFNE01.JPG,AFNE01.JPG,1,9,19,5,,,,,,,,,,,,,,,,,,,,,,,AMNE08.jpg,AMSA15.jpg,AMNE13.jpg,AMSA08.jpg,AMSA15.jpg,MS,2,num_6,32,num_8,0.550147716363,,,2017_Apr_19_1803,60.0032524735,MAFE4ImagesEEG,001,200209,
AFNE01.JPG,AFNE01.JPG,AFNE01.JPG,AFNE01.JPG,AFNE01.JPG,AFNE01.JPG,2,0,20,3,,,,,,,,,,,,,,,,,,,,,,,AMSA12.jpg,AMNE03.jpg,AMSA07.jpg,AMNE08.jpg,AMNE08.jpg,MN,1,num_4,32,num_6,1.00005709156,,,2017_Apr_19_1803,60.0032524735,MAFE4ImagesEEG,001,200209,
AFNE01.JPG,AFNE01.JPG,AFNE01.JPG,AFNE01.JPG,AFNE01.JPG,AFNE01.JPG,2,1,21,7,,,,,,,,,,,,,,,,,,,,,,,AMNE06.jpg,AMSA04.jpg,AMSA10.jpg,AMNE11.jpg,AMSA04.jpg,MS,2,num_6,16,num_6,0.633466429368,,,2017_Apr_19_1803,60.0032524735,MAFE4ImagesEEG,001,200209,
AFNE01.JPG,AFNE01.JPG,AFNE01.JPG,AFNE01.JPG,AFNE01.JPG,AFNE01.JPG,2,2,22,4,,,,,,,,,,,,,,,,,,,,,,,AMSA06.jpg,AMNE18.jpg,AMSA20.jpg,AMNE10.jpg,AMSA20.jpg,MS,2,num_2,32,num_8,0.750185306999,,,2017_Apr_19_1803,60.0032524735,MAFE4ImagesEEG,001,200209,
AFNE01.JPG,AFNE01.JPG,AFNE01.JPG,AFNE01.JPG,AFNE01.JPG,AFNE01.JPG,2,3,23,2,,,,,,,,,,,,,,,,,,,,,,,AMSA01.jpg,AMNE07.jpg,AMNE06.jpg,AMSA14.jpg,AMSA14.jpg,MS,2,num_4,16,num_4,0.933424508752,,,2017_Apr_19_1803,60.0032524735,MAFE4ImagesEEG,001,200209,
AFNE01.JPG,AFNE01.JPG,AFNE01.JPG,AFNE01.JPG,AFNE01.JPG,AFNE01.JPG,2,4,24,8,,,,,,,,,,,,,,,,,,,,,,,AMSA06.jpg,AMNE18.jpg,AMNE13.jpg,AMSA14.jpg,AMNE13.jpg,MN,1,num_2,32,num_6,0.633452958311,,,2017_Apr_19_1803,60.0032524735,MAFE4ImagesEEG,001,200209,
AFNE01.JPG,AFNE01.JPG,AFNE01.JPG,AFNE01.JPG,AFNE01.JPG,AFNE01.JPG,2,5,25,1,,,,,,,,,,,,,,,,,,,,,,,AMSA03.jpg,AMSA16.jpg,AMNE15.jpg,AMNE01.jpg,AMNE01.jpg,MN,1,num_4,32,num_8,0.68343629592,,,2017_Apr_19_1803,60.0032524735,MAFE4ImagesEEG,001,200209,
AFNE01.JPG,AFNE01.JPG,AFNE01.JPG,AFNE01.JPG,AFNE01.JPG,AFNE01.JPG,2,6,26,0,,,,,,,,,,,,,,,,,,,,,,,AMNE05.jpg,AMNE04.jpg,AMSA02.jpg,AMSA03.jpg,AMSA03.jpg,MS,2,num_4,16,num_4,1.36681036849,,,2017_Apr_19_1803,60.0032524735,MAFE4ImagesEEG,001,200209,
AFNE01.JPG,AFNE01.JPG,AFNE01.JPG,AFNE01.JPG,AFNE01.JPG,AFNE01.JPG,2,7,27,9,,,,,,,,,,,,,,,,,,,,,,,AMSA17.jpg,AMSA10.jpg,AMNE04.jpg,AMNE15.jpg,AMSA10.jpg,MS,2,num_6,16,num_6,0.866631877172,,,2017_Apr_19_1803,60.0032524735,MAFE4ImagesEEG,001,200209,
AFNE01.JPG,AFNE01.JPG,AFNE01.JPG,AFNE01.JPG,AFNE01.JPG,AFNE01.JPG,2,8,28,5,,,,,,,,,,,,,,,,,,,,,,,AMSA09.jpg,AMSA08.jpg,AMNE15.jpg,AMNE14.jpg,AMSA08.jpg,MS,2,num_6,32,num_8,0.683485369023,,,2017_Apr_19_1803,60.0032524735,MAFE4ImagesEEG,001,200209,
AFNE01.JPG,AFNE01.JPG,AFNE01.JPG,AFNE01.JPG,AFNE01.JPG,AFNE01.JPG,2,9,29,6,,,,,,,,,,,,,,,,,,,,,,,AMNE01.jpg,AMSA17.jpg,AMNE12.jpg,AMSA18.jpg,AMNE01.jpg,MN,1,num_8,16,num_8,0.583485657669,,,2017_Apr_19_1803,60.0032524735,MAFE4ImagesEEG,001,200209,
AFNE01.JPG,AFNE01.JPG,AFNE01.JPG,AFNE01.JPG,AFNE01.JPG,AFNE01.JPG,3,0,30,4,,,,,,,,,,,,,,,,,,,,,,,AMSA17.jpg,AMNE18.jpg,AMSA09.jpg,AMNE15.jpg,AMNE15.jpg,MN,1,num_4,16,num_4,0.833477077889,,,2017_Apr_19_1803,60.0032524735,MAFE4ImagesEEG,001,200209,
AFNE01.JPG,AFNE01.JPG,AFNE01.JPG,AFNE01.JPG,AFNE01.JPG,AFNE01.JPG,3,1,31,5,,,,,,,,,,,,,,,,,,,,,,,AMSA04.jpg,AMSA16.jpg,AMNE12.jpg,AMNE01.jpg,AMNE12.jpg,MN,1,num_2,16,num_2,1.31671605515,,,2017_Apr_19_1803,60.0032524735,MAFE4ImagesEEG,001,200209,
AFNE01.JPG,AFNE01.JPG,AFNE01.JPG,AFNE01.JPG,AFNE01.JPG,AFNE01.JPG,3,2,32,8,,,,,,,,,,,,,,,,,,,,,,,AMSA16.jpg,AMNE18.jpg,AMSA05.jpg,AMNE16.jpg,AMNE16.jpg,MN,1,num_4,32,num_8,0.733462612581,,,2017_Apr_19_1803,60.0032524735,MAFE4ImagesEEG,001,200209,
AFNE01.JPG,AFNE01.JPG,AFNE01.JPG,AFNE01.JPG,AFNE01.JPG,AFNE01.JPG,3,3,33,2,,,,,,,,,,,,,,,,,,,,,,,AMNE11.jpg,AMSA16.jpg,AMNE20.jpg,AMSA20.jpg,AMSA20.jpg,MS,2,num_4,32,num_6,0.31683793597,,,2017_Apr_19_1803,60.0032524735,MAFE4ImagesEEG,001,200209,
AFNE01.JPG,AFNE01.JPG,AFNE01.JPG,AFNE01.JPG,AFNE01.JPG,AFNE01.JPG,3,4,34,7,,,,,,,,,,,,,,,,,,,,,,,AMNE16.jpg,AMSA03.jpg,AMNE09.jpg,AMSA11.jpg,AMSA03.jpg,MS,2,num_6,32,num_2,0.483450985776,,,2017_Apr_19_1803,60.0032524735,MAFE4ImagesEEG,001,200209,
AFNE01.JPG,AFNE01.JPG,AFNE01.JPG,AFNE01.JPG,AFNE01.JPG,AFNE01.JPG,3,5,35,3,,,,,,,,,,,,,,,,,,,,,,,AMNE03.jpg,AMSA04.jpg,AMSA10.jpg,AMNE17.jpg,AMSA04.jpg,MS,2,num_6,32,num_4,0.650099316845,,,2017_Apr_19_1803,60.0032524735,MAFE4ImagesEEG,001,200209,
AFNE01.JPG,AFNE01.JPG,AFNE01.JPG,AFNE01.JPG,AFNE01.JPG,AFNE01.JPG,3,6,36,6,,,,,,,,,,,,,,,,,,,,,,,AMNE04.jpg,AMSA14.jpg,AMNE15.jpg,AMSA10.jpg,AMNE04.jpg,MN,1,num_8,16,num_8,0.616759130382,,,2017_Apr_19_1803,60.0032524735,MAFE4ImagesEEG,001,200209,
AFNE01.JPG,AFNE01.JPG,AFNE01.JPG,AFNE01.JPG,AFNE01.JPG,AFNE01.JPG,3,7,37,0,,,,,,,,,,,,,,,,,,,,,,,AMNE03.jpg,AMNE11.jpg,AMSA18.jpg,AMSA12.jpg,AMSA12.jpg,MS,2,num_4,32,num_2,0.366836027591,,,2017_Apr_19_1803,60.0032524735,MAFE4ImagesEEG,001,200209,
AFNE01.JPG,AFNE01.JPG,AFNE01.JPG,AFNE01.JPG,AFNE01.JPG,AFNE01.JPG,3,8,38,9,,,,,,,,,,,,,,,,,,,,,,,AMNE07.jpg,AMNE02.jpg,AMSA09.jpg,AMSA03.jpg,AMSA03.jpg,MS,2,num_4,32,num_6,0.683494670433,,,2017_Apr_19_1803,60.0032524735,MAFE4ImagesEEG,001,200209,
AFNE01.JPG,AFNE01.JPG,AFNE01.JPG,AFNE01.JPG,AFNE01.JPG,AFNE01.JPG,3,9,39,1,,,,,,,,,,,,,,,,,,,,,,,AMSA10.jpg,AMNE11.jpg,AMNE19.jpg,AMSA07.jpg,AMNE19.jpg,MN,1,num_2,32,num_4,0.88348190501,,,2017_Apr_19_1803,60.0032524735,MAFE4ImagesEEG,001,200209,
AFNE01.JPG,AFNE01.JPG,AFNE01.JPG,AFNE01.JPG,AFNE01.JPG,AFNE01.JPG,4,0,40,7,,,,,,,,,,,,,,,,,,,,,,,AMNE17.jpg,AMNE01.jpg,AMSA07.jpg,AMSA12.jpg,AMSA12.jpg,MS,2,num_4,32,num_2,1.05008404967,,,2017_Apr_19_1803,60.0032524735,MAFE4ImagesEEG,001,200209,
AFNE01.JPG,AFNE01.JPG,AFNE01.JPG,AFNE01.JPG,AFNE01.JPG,AFNE01.JPG,4,1,41,6,,,,,,,,,,,,,,,,,,,,,,,AMSA06.jpg,AMNE05.jpg,AMSA04.jpg,AMNE10.jpg,AMSA06.jpg,MS,2,num_8,32,num_4,1.100141478,,,2017_Apr_19_1803,60.0032524735,MAFE4ImagesEEG,001,200209,
AFNE01.JPG,AFNE01.JPG,AFNE01.JPG,AFNE01.JPG,AFNE01.JPG,AFNE01.JPG,4,2,42,3,,,,,,,,,,,,,,,,,,,,,,,AMSA04.jpg,AMNE12.jpg,AMNE16.jpg,AMSA07.jpg,AMSA04.jpg,MS,2,num_8,16,num_8,0.716763011354,,,2017_Apr_19_1803,60.0032524735,MAFE4ImagesEEG,001,200209,
AFNE01.JPG,AFNE01.JPG,AFNE01.JPG,AFNE01.JPG,AFNE01.JPG,AFNE01.JPG,4,3,43,4,,,,,,,,,,,,,,,,,,,,,,,AMSA16.jpg,AMNE13.jpg,AMSA18.jpg,AMNE17.jpg,AMNE13.jpg,MN,1,num_6,32,num_2,1.20008858814,,,2017_Apr_19_1803,60.0032524735,MAFE4ImagesEEG,001,200209,
AFNE01.JPG,AFNE01.JPG,AFNE01.JPG,AFNE01.JPG,AFNE01.JPG,AFNE01.JPG,4,4,44,5,,,,,,,,,,,,,,,,,,,,,,,AMSA01.jpg,AMNE12.jpg,AMNE05.jpg,AMSA06.jpg,AMNE12.jpg,MN,1,num_6,16,num_6,1.33340924158,,,2017_Apr_19_1803,60.0032524735,MAFE4ImagesEEG,001,200209,
AFNE01.JPG,AFNE01.JPG,AFNE01.JPG,AFNE01.JPG,AFNE01.JPG,AFNE01.JPG,4,5,45,2,,,,,,,,,,,,,,,,,,,,,,,AMSA10.jpg,AMNE18.jpg,AMNE07.jpg,AMSA16.jpg,AMNE18.jpg,MN,1,num_6,16,num_6,0.916751528886,,,2017_Apr_19_1803,60.0032524735,MAFE4ImagesEEG,001,200209,
AFNE01.JPG,AFNE01.JPG,AFNE01.JPG,AFNE01.JPG,AFNE01.JPG,AFNE01.JPG,4,6,46,9,,,,,,,,,,,,,,,,,,,,,,,AMNE14.jpg,AMSA20.jpg,AMNE18.jpg,AMSA09.jpg,AMSA20.jpg,MS,2,num_6,16,num_6,1.36659034147,,,2017_Apr_19_1803,60.0032524735,MAFE4ImagesEEG,001,200209,
AFNE01.JPG,AFNE01.JPG,AFNE01.JPG,AFNE01.JPG,AFNE01.JPG,AFNE01.JPG,4,7,47,0,,,,,,,,,,,,,,,,,,,,,,,AMNE09.jpg,AMSA11.jpg,AMSA19.jpg,AMNE02.jpg,AMSA11.jpg,MS,2,num_6,32,num_4,0.666773579695,,,2017_Apr_19_1803,60.0032524735,MAFE4ImagesEEG,001,200209,
AFNE01.JPG,AFNE01.JPG,AFNE01.JPG,AFNE01.JPG,AFNE01.JPG,AFNE01.JPG,4,8,48,1,,,,,,,,,,,,,,,,,,,,,,,AMSA11.jpg,AMNE06.jpg,AMNE15.jpg,AMSA17.jpg,AMSA11.jpg,MS,2,num_8,16,num_8,0.833470983838,,,2017_Apr_19_1803,60.0032524735,MAFE4ImagesEEG,001,200209,
AFNE01.JPG,AFNE01.JPG,AFNE01.JPG,AFNE01.JPG,AFNE01.JPG,AFNE01.JPG,4,9,49,8,,,,,,,,,,,,,,,,,,,,,,,AMSA01.jpg,AMNE19.jpg,AMSA13.jpg,AMNE05.jpg,AMNE05.jpg,MN,1,num_4,32,num_2,0.650276044093,,,2017_Apr_19_1803,60.0032524735,MAFE4ImagesEEG,001,200209,
AFNE01.JPG,AFNE01.JPG,AFNE01.JPG,AFNE01.JPG,AFNE01.JPG,AFNE01.JPG,5,0,50,5,,,,,,,,,,,,,,,,,,,,,,,AMNE19.jpg,AMNE09.jpg,AMSA19.jpg,AMSA16.jpg,AMSA16.jpg,MS,2,num_4,32,num_6,0.300135768863,,,2017_Apr_19_1803,60.0032524735,MAFE4ImagesEEG,001,200209,
AFNE01.JPG,AFNE01.JPG,AFNE01.JPG,AFNE01.JPG,AFNE01.JPG,AFNE01.JPG,5,1,51,4,,,,,,,,,,,,,,,,,,,,,,,AMSA12.jpg,AMNE14.jpg,AMNE18.jpg,AMSA11.jpg,AMNE14.jpg,MN,1,num_6,32,num_8,0.716781293479,,,2017_Apr_19_1803,60.0032524735,MAFE4ImagesEEG,001,200209,
AFNE01.JPG,AFNE01.JPG,AFNE01.JPG,AFNE01.JPG,AFNE01.JPG,AFNE01.JPG,5,2,52,0,,,,,,,,,,,,,,,,,,,,,,,AMSA13.jpg,AMNE16.jpg,AMNE06.jpg,AMSA04.jpg,AMSA04.jpg,MS,2,num_4,16,num_4,0.916829468479,,,2017_Apr_19_1803,60.0032524735,MAFE4ImagesEEG,001,200209,
AFNE01.JPG,AFNE01.JPG,AFNE01.JPG,AFNE01.JPG,AFNE01.JPG,AFNE01.JPG,5,3,53,7,,,,,,,,,,,,,,,,,,,,,,,AMSA10.jpg,AMNE11.jpg,AMNE07.jpg,AMSA05.jpg,AMNE11.jpg,MN,1,num_6,32,num_2,0.850143643009,,,2017_Apr_19_1803,60.0032524735,MAFE4ImagesEEG,001,200209,
AFNE01.JPG,AFNE01.JPG,AFNE01.JPG,AFNE01.JPG,AFNE01.JPG,AFNE01.JPG,5,4,54,1,,,,,,,,,,,,,,,,,,,,,,,AMNE16.jpg,AMSA06.jpg,AMSA14.jpg,AMNE05.jpg,AMSA14.jpg,MS,2,num_2,32,num_6,0.816800249129,,,2017_Apr_19_1803,60.0032524735,MAFE4ImagesEEG,001,200209,
AFNE01.JPG,AFNE01.JPG,AFNE01.JPG,AFNE01.JPG,AFNE01.JPG,AFNE01.JPG,5,5,55,2,,,,,,,,,,,,,,,,,,,,,,,AMNE18.jpg,AMSA16.jpg,AMSA13.jpg,AMNE10.jpg,AMSA13.jpg,MS,2,num_2,32,num_8,0.65011695752,,,2017_Apr_19_1803,60.0032524735,MAFE4ImagesEEG,001,200209,
AFNE01.JPG,AFNE01.JPG,AFNE01.JPG,AFNE01.JPG,AFNE01.JPG,AFNE01.JPG,5,6,56,9,,,,,,,,,,,,,,,,,,,,,,,AMNE14.jpg,AMSA05.jpg,AMNE15.jpg,AMSA10.jpg,AMNE14.jpg,MN,1,num_8,32,num_2,0.749812928931,,,2017_Apr_19_1803,60.0032524735,MAFE4ImagesEEG,001,200209,
AFNE01.JPG,AFNE01.JPG,AFNE01.JPG,AFNE01.JPG,AFNE01.JPG,AFNE01.JPG,5,7,57,6,,,,,,,,,,,,,,,,,,,,,,,AMNE17.jpg,AMNE19.jpg,AMSA14.jpg,AMSA13.jpg,AMNE19.jpg,MN,1,num_6,16,num_6,0.733471593267,,,2017_Apr_19_1803,60.0032524735,MAFE4ImagesEEG,001,200209,
AFNE01.JPG,AFNE01.JPG,AFNE01.JPG,AFNE01.JPG,AFNE01.JPG,AFNE01.JPG,5,8,58,3,,,,,,,,,,,,,,,,,,,,,,,AMSA06.jpg,AMNE15.jpg,AMNE02.jpg,AMSA07.jpg,AMNE15.jpg,MN,1,num_6,32,num_8,0.616654248704,,,2017_Apr_19_1803,60.0032524735,MAFE4ImagesEEG,001,200209,
AFNE01.JPG,AFNE01.JPG,AFNE01.JPG,AFNE01.JPG,AFNE01.JPG,AFNE01.JPG,5,9,59,8,,,,,,,,,,,,,,,,,,,,,,,AMNE09.jpg,AMSA11.jpg,AMNE06.jpg,AMSA06.jpg,AMSA11.jpg,MS,2,num_6,32,num_4,0.783490853617,,,2017_Apr_19_1803,60.0032524735,MAFE4ImagesEEG,001,200209,
,,,,,,,,,,,,,,,,,,,,,,,,,,,,,,,,,,,,,,,,,,,space,29.6147548319,2017_Apr_19_1803,60.0032524735,MAFE4ImagesEEG,001,200209,
AFNE01.JPG,AFNE01.JPG,AFNE01.JPG,AFNE01.JPG,AFNE01.JPG,AFNE01.JPG,,,,,0,0,0,5,,,,,,,,,,,,,,,,,,,AFSA18.jpg,AFNE09.jpg,AFNE03.jpg,AFSA03.jpg,AFNE03.jpg,FN,3,num_2,32,num_8,1.01673007142,,,2017_Apr_19_1803,60.0032524735,MAFE4ImagesEEG,001,200209,
AFNE01.JPG,AFNE01.JPG,AFNE01.JPG,AFNE01.JPG,AFNE01.JPG,AFNE01.JPG,,,,,0,1,1,0,,,,,,,,,,,,,,,,,,,AFSA01.jpg,AFNE01.jpg,AFSA16.jpg,AFNE06.jpg,AFNE06.jpg,FN,3,num_4,16,num_4,0.566759114357,,,2017_Apr_19_1803,60.0032524735,MAFE4ImagesEEG,001,200209,
AFNE01.JPG,AFNE01.JPG,AFNE01.JPG,AFNE01.JPG,AFNE01.JPG,AFNE01.JPG,,,,,0,2,2,9,,,,,,,,,,,,,,,,,,,AFSA18.jpg,AFSA02.jpg,AFNE14.jpg,AFNE13.jpg,AFNE14.jpg,FN,3,num_2,16,num_2,0.650109259761,,,2017_Apr_19_1803,60.0032524735,MAFE4ImagesEEG,001,200209,
AFNE01.JPG,AFNE01.JPG,AFNE01.JPG,AFNE01.JPG,AFNE01.JPG,AFNE01.JPG,,,,,0,3,3,1,,,,,,,,,,,,,,,,,,,AFNE16.jpg,AFNE08.jpg,AFSA04.jpg,AFSA15.jpg,AFNE16.jpg,FN,3,num_8,32,num_6,0.249909631762,,,2017_Apr_19_1803,60.0032524735,MAFE4ImagesEEG,001,200209,
AFNE01.JPG,AFNE01.JPG,AFNE01.JPG,AFNE01.JPG,AFNE01.JPG,AFNE01.JPG,,,,,0,4,4,2,,,,,,,,,,,,,,,,,,,AFSA16.jpg,AFSA18.jpg,AFNE03.jpg,AFNE06.jpg,AFSA16.jpg,FS,4,num_8,32,num_2,1.21672019269,,,2017_Apr_19_1803,60.0032524735,MAFE4ImagesEEG,001,200209,
AFNE01.JPG,AFNE01.JPG,AFNE01.JPG,AFNE01.JPG,AFNE01.JPG,AFNE01.JPG,,,,,0,5,5,4,,,,,,,,,,,,,,,,,,,AFNE08.jpg,AFSA01.jpg,AFNE15.jpg,AFSA15.jpg,AFSA01.jpg,FS,4,num_6,16,num_6,0.283493579918,,,2017_Apr_19_1803,60.0032524735,MAFE4ImagesEEG,001,200209,
AFNE01.JPG,AFNE01.JPG,AFNE01.JPG,AFNE01.JPG,AFNE01.JPG,AFNE01.JPG,,,,,0,6,6,8,,,,,,,,,,,,,,,,,,,AFSA04.jpg,AFNE17.jpg,AFNE10.jpg,AFSA06.jpg,AFNE10.jpg,FN,3,num_2,32,num_4,0.516792134469,,,2017_Apr_19_1803,60.0032524735,MAFE4ImagesEEG,001,200209,
AFNE01.JPG,AFNE01.JPG,AFNE01.JPG,AFNE01.JPG,AFNE01.JPG,AFNE01.JPG,,,,,0,7,7,3,,,,,,,,,,,,,,,,,,,AFSA02.jpg,AFNE11.jpg,AFSA15.jpg,AFNE14.jpg,AFNE14.jpg,FN,3,num_4,32,num_8,0.283575689129,,,2017_Apr_19_1803,60.0032524735,MAFE4ImagesEEG,001,200209,
AFNE01.JPG,AFNE01.JPG,AFNE01.JPG,AFNE01.JPG,AFNE01.JPG,AFNE01.JPG,,,,,0,8,8,6,,,,,,,,,,,,,,,,,,,AFSA05.jpg,AFNE10.jpg,AFSA18.jpg,AFNE13.jpg,AFNE13.jpg,FN,3,num_4,32,num_8,1.35005656234,,,2017_Apr_19_1803,60.0032524735,MAFE4ImagesEEG,001,200209,
AFNE01.JPG,AFNE01.JPG,AFNE01.JPG,AFNE01.JPG,AFNE01.JPG,AFNE01.JPG,,,,,0,9,9,7,,,,,,,,,,,,,,,,,,,AFNE02.jpg,AFSA12.jpg,AFSA15.jpg,AFNE18.jpg,AFNE18.jpg,FN,3,num_4,16,num_4,2.01665982959,,,2017_Apr_19_1803,60.0032524735,MAFE4ImagesEEG,001,200209,
AFNE01.JPG,AFNE01.JPG,AFNE01.JPG,AFNE01.JPG,AFNE01.JPG,AFNE01.JPG,,,,,1,0,10,9,,,,,,,,,,,,,,,,,,,AFNE09.jpg,AFSA07.jpg,AFSA12.jpg,AFNE18.jpg,AFNE18.jpg,FN,3,num_4,32,num_6,0.550175941433,,,2017_Apr_19_1803,60.0032524735,MAFE4ImagesEEG,001,200209,
AFNE01.JPG,AFNE01.JPG,AFNE01.JPG,AFNE01.JPG,AFNE01.JPG,AFNE01.JPG,,,,,1,1,11,3,,,,,,,,,,,,,,,,,,,AFSA06.jpg,AFNE15.jpg,AFNE16.jpg,AFSA04.jpg,AFSA06.jpg,FS,4,num_8,32,num_2,0.400150875648,,,2017_Apr_19_1803,60.0032524735,MAFE4ImagesEEG,001,200209,
AFNE01.JPG,AFNE01.JPG,AFNE01.JPG,AFNE01.JPG,AFNE01.JPG,AFNE01.JPG,,,,,1,2,12,2,,,,,,,,,,,,,,,,,,,AFSA18.jpg,AFNE15.jpg,AFNE09.jpg,AFSA14.jpg,AFNE15.jpg,FN,3,num_6,16,num_6,0.683490821568,,,2017_Apr_19_1803,60.0032524735,MAFE4ImagesEEG,001,200209,
AFNE01.JPG,AFNE01.JPG,AFNE01.JPG,AFNE01.JPG,AFNE01.JPG,AFNE01.JPG,,,,,1,3,13,7,,,,,,,,,,,,,,,,,,,AFSA07.jpg,AFNE04.jpg,AFNE14.jpg,AFSA01.jpg,AFNE04.jpg,FN,3,num_6,32,num_8,0.483458362753,,,2017_Apr_19_1803,60.0032524735,MAFE4ImagesEEG,001,200209,
AFNE01.JPG,AFNE01.JPG,AFNE01.JPG,AFNE01.JPG,AFNE01.JPG,AFNE01.JPG,,,,,1,4,14,5,,,,,,,,,,,,,,,,,,,AFSA12.jpg,AFNE12.jpg,AFNE08.jpg,AFSA14.jpg,AFNE08.jpg,FN,3,num_2,32,num_4,0.683430201898,,,2017_Apr_19_1803,60.0032524735,MAFE4ImagesEEG,001,200209,
AFNE01.JPG,AFNE01.JPG,AFNE01.JPG,AFNE01.JPG,AFNE01.JPG,AFNE01.JPG,,,,,1,5,15,8,,,,,,,,,,,,,,,,,,,AFNE18.jpg,AFNE10.jpg,AFSA20.jpg,AFSA14.jpg,AFSA20.jpg,FS,4,num_2,32,num_4,0.566790546785,,,2017_Apr_19_1803,60.0032524735,MAFE4ImagesEEG,001,200209,
AFNE01.JPG,AFNE01.JPG,AFNE01.JPG,AFNE01.JPG,AFNE01.JPG,AFNE01.JPG,,,,,1,6,16,4,,,,,,,,,,,,,,,,,,,AFSA04.jpg,AFSA13.jpg,AFNE10.jpg,AFNE09.jpg,AFNE10.jpg,FN,3,num_2,16,num_2,0.883446302993,,,2017_Apr_19_1803,60.0032524735,MAFE4ImagesEEG,001,200209,
AFNE01.JPG,AFNE01.JPG,AFNE01.JPG,AFNE01.JPG,AFNE01.JPG,AFNE01.JPG,,,,,1,7,17,6,,,,,,,,,,,,,,,,,,,AFSA07.jpg,AFNE16.jpg,AFNE19.jpg,AFSA04.jpg,AFSA04.jpg,FS,4,num_4,32,num_8,0.300154050987,,,2017_Apr_19_1803,60.0032524735,MAFE4ImagesEEG,001,200209,
AFNE01.JPG,AFNE01.JPG,AFNE01.JPG,AFNE01.JPG,AFNE01.JPG,AFNE01.JPG,,,,,1,8,18,0,,,,,,,,,,,,,,,,,,,AFNE13.jpg,AFNE06.jpg,AFSA02.jpg,AFSA01.jpg,AFNE06.jpg,FN,3,num_6,16,num_6,0.48348305971,,,2017_Apr_19_1803,60.0032524735,MAFE4ImagesEEG,001,200209,
AFNE01.JPG,AFNE01.JPG,AFNE01.JPG,AFNE01.JPG,AFNE01.JPG,AFNE01.JPG,,,,,1,9,19,1,,,,,,,,,,,,,,,,,,,AFNE20.jpg,AFNE11.jpg,AFSA02.jpg,AFSA16.jpg,AFSA02.jpg,FS,4,num_2,32,num_4,1.23344160416,,,2017_Apr_19_1803,60.0032524735,MAFE4ImagesEEG,001,200209,
AFNE01.JPG,AFNE01.JPG,AFNE01.JPG,AFNE01.JPG,AFNE01.JPG,AFNE01.JPG,,,,,2,0,20,0,,,,,,,,,,,,,,,,,,,AFSA13.jpg,AFSA08.jpg,AFNE06.jpg,AFNE15.jpg,AFSA13.jpg,FS,4,num_8,16,num_8,0.900126980589,,,2017_Apr_19_1803,60.0032524735,MAFE4ImagesEEG,001,200209,
AFNE01.JPG,AFNE01.JPG,AFNE01.JPG,AFNE01.JPG,AFNE01.JPG,AFNE01.JPG,,,,,2,1,21,9,,,,,,,,,,,,,,,,,,,AFSA06.jpg,AFNE14.jpg,AFSA01.jpg,AFNE16.jpg,AFNE14.jpg,FN,3,num_6,16,num_6,1.16673364767,,,2017_Apr_19_1803,60.0032524735,MAFE4ImagesEEG,001,200209,
AFNE01.JPG,AFNE01.JPG,AFNE01.JPG,AFNE01.JPG,AFNE01.JPG,AFNE01.JPG,,,,,2,2,22,3,,,,,,,,,,,,,,,,,,,AFNE01.jpg,AFSA11.jpg,AFSA10.jpg,AFNE02.jpg,AFSA11.jpg,FS,4,num_6,32,num_4,0.716731258173,,,2017_Apr_19_1803,60.0032524735,MAFE4ImagesEEG,001,200209,
AFNE01.JPG,AFNE01.JPG,AFNE01.JPG,AFNE01.JPG,AFNE01.JPG,AFNE01.JPG,,,,,2,3,23,8,,,,,,,,,,,,,,,,,,,AFSA08.jpg,AFSA12.jpg,AFNE04.jpg,AFNE19.jpg,AFSA12.jpg,FS,4,num_6,32,num_2,1.16677630597,,,2017_Apr_19_1803,60.0032524735,MAFE4ImagesEEG,001,200209,
AFNE01.JPG,AFNE01.JPG,AFNE01.JPG,AFNE01.JPG,AFNE01.JPG,AFNE01.JPG,,,,,2,4,24,1,,,,,,,,,,,,,,,,,,,AFSA03.jpg,AFNE05.jpg,AFNE17.jpg,AFSA15.jpg,AFNE05.jpg,FN,3,num_6,32,num_8,0.616783185833,,,2017_Apr_19_1803,60.0032524735,MAFE4ImagesEEG,001,200209,
AFNE01.JPG,AFNE01.JPG,AFNE01.JPG,AFNE01.JPG,AFNE01.JPG,AFNE01.JPG,,,,,2,5,25,4,,,,,,,,,,,,,,,,,,,AFNE03.jpg,AFNE12.jpg,AFSA03.jpg,AFSA14.jpg,AFSA03.jpg,FS,4,num_2,32,num_6,0.500165341015,,,2017_Apr_19_1803,60.0032524735,MAFE4ImagesEEG,001,200209,
AFNE01.JPG,AFNE01.JPG,AFNE01.JPG,AFNE01.JPG,AFNE01.JPG,AFNE01.JPG,,,,,2,6,26,2,,,,,,,,,,,,,,,,,,,AFNE14.jpg,AFNE13.jpg,AFSA14.jpg,AFSA03.jpg,AFSA14.jpg,FS,4,num_2,32,num_4,0.63343916653,,,2017_Apr_19_1803,60.0032524735,MAFE4ImagesEEG,001,200209,
AFNE01.JPG,AFNE01.JPG,AFNE01.JPG,AFNE01.JPG,AFNE01.JPG,AFNE01.JPG,,,,,2,7,27,5,,,,,,,,,,,,,,,,,,,AFSA19.jpg,AFSA12.jpg,AFNE03.jpg,AFNE13.jpg,AFSA19.jpg,FS,4,num_8,16,num_8,0.766789327987,,,2017_Apr_19_1803,60.0032524735,MAFE4ImagesEEG,001,200209,
AFNE01.JPG,AFNE01.JPG,AFNE01.JPG,AFNE01.JPG,AFNE01.JPG,AFNE01.JPG,,,,,2,8,28,7,,,,,,,,,,,,,,,,,,,AFNE17.jpg,AFSA17.jpg,AFNE12.jpg,AFSA11.jpg,AFNE17.jpg,FN,3,num_8,32,num_2,0.799974276713,,,2017_Apr_19_1803,60.0032524735,MAFE4ImagesEEG,001,200209,
AFNE01.JPG,AFNE01.JPG,AFNE01.JPG,AFNE01.JPG,AFNE01.JPG,AFNE01.JPG,,,,,2,9,29,6,,,,,,,,,,,,,,,,,,,AFNE05.jpg,AFNE17.jpg,AFSA01.jpg,AFSA10.jpg,AFSA10.jpg,FS,4,num_4,32,num_6,0.483491398889,,,2017_Apr_19_1803,60.0032524735,MAFE4ImagesEEG,001,200209,
AFNE01.JPG,AFNE01.JPG,AFNE01.JPG,AFNE01.JPG,AFNE01.JPG,AFNE01.JPG,,,,,3,0,30,3,,,,,,,,,,,,,,,,,,,AFNE06.jpg,AFSA15.jpg,AFNE09.jpg,AFSA02.jpg,AFSA02.jpg,FS,4,num_4,16,num_4,0.850139152637,,,2017_Apr_19_1803,60.0032524735,MAFE4ImagesEEG,001,200209,
AFNE01.JPG,AFNE01.JPG,AFNE01.JPG,AFNE01.JPG,AFNE01.JPG,AFNE01.JPG,,,,,3,1,31,7,,,,,,,,,,,,,,,,,,,AFSA04.jpg,AFNE11.jpg,AFSA20.jpg,AFNE13.jpg,AFSA20.jpg,FS,4,num_2,16,num_2,1.31669007527,,,2017_Apr_19_1803,60.0032524735,MAFE4ImagesEEG,001,200209,
AFNE01.JPG,AFNE01.JPG,AFNE01.JPG,AFNE01.JPG,AFNE01.JPG,AFNE01.JPG,,,,,3,2,32,5,,,,,,,,,,,,,,,,,,,AFNE01.jpg,AFNE07.jpg,AFSA03.jpg,AFSA19.jpg,AFSA19.jpg,FS,4,num_4,16,num_4,1.23345571666,,,2017_Apr_19_1803,60.0032524735,MAFE4ImagesEEG,001,200209,
AFNE01.JPG,AFNE01.JPG,AFNE01.JPG,AFNE01.JPG,AFNE01.JPG,AFNE01.JPG,,,,,3,3,33,6,,,,,,,,,,,,,,,,,,,AFSA01.jpg,AFNE06.jpg,AFNE03.jpg,AFSA18.jpg,AFSA01.jpg,FS,4,num_8,32,num_6,0.633475089329,,,2017_Apr_19_1803,60.0032524735,MAFE4ImagesEEG,001,200209,
AFNE01.JPG,AFNE01.JPG,AFNE01.JPG,AFNE01.JPG,AFNE01.JPG,AFNE01.JPG,,,,,3,4,34,0,,,,,,,,,,,,,,,,,,,AFSA03.jpg,AFNE16.jpg,AFSA07.jpg,AFNE06.jpg,AFSA03.jpg,FS,4,num_8,32,num_2,0.350146048557,,,2017_Apr_19_1803,60.0032524735,MAFE4ImagesEEG,001,200209,
AFNE01.JPG,AFNE01.JPG,AFNE01.JPG,AFNE01.JPG,AFNE01.JPG,AFNE01.JPG,,,,,3,5,35,2,,,,,,,,,,,,,,,,,,,AFSA20.jpg,AFNE11.jpg,AFNE05.jpg,AFSA05.jpg,AFNE05.jpg,FN,3,num_2,32,num_4,0.466746573453,,,2017_Apr_19_1803,60.0032524735,MAFE4ImagesEEG,001,200209,
AFNE01.JPG,AFNE01.JPG,AFNE01.JPG,AFNE01.JPG,AFNE01.JPG,AFNE01.JPG,,,,,3,6,36,8,,,,,,,,,,,,,,,,,,,AFNE16.jpg,AFNE09.jpg,AFSA11.jpg,AFSA06.jpg,AFSA11.jpg,FS,4,num_2,32,num_8,0.533465435088,,,2017_Apr_19_1803,60.0032524735,MAFE4ImagesEEG,001,200209,
AFNE01.JPG,AFNE01.JPG,AFNE01.JPG,AFNE01.JPG,AFNE01.JPG,AFNE01.JPG,,,,,3,7,37,4,,,,,,,,,,,,,,,,,,,AFNE14.jpg,AFNE02.jpg,AFSA04.jpg,AFSA08.jpg,AFNE02.jpg,FN,3,num_6,16,num_6,0.666787050752,,,2017_Apr_19_1803,60.0032524735,MAFE4ImagesEEG,001,200209,
AFNE01.JPG,AFNE01.JPG,AFNE01.JPG,AFNE01.JPG,AFNE01.JPG,AFNE01.JPG,,,,,3,8,38,1,,,,,,,,,,,,,,,,,,,AFNE19.jpg,AFSA18.jpg,AFSA03.jpg,AFNE10.jpg,AFNE19.jpg,FN,3,num_8,32,num_2,0.350164651405,,,2017_Apr_19_1803,60.0032524735,MAFE4ImagesEEG,001,200209,
AFNE01.JPG,AFNE01.JPG,AFNE01.JPG,AFNE01.JPG,AFNE01.JPG,AFNE01.JPG,,,,,3,9,39,9,,,,,,,,,,,,,,,,,,,AFSA03.jpg,AFSA10.jpg,AFNE15.jpg,AFNE04.jpg,AFNE04.jpg,FN,3,num_4,32,num_6,0.583470262209,,,2017_Apr_19_1803,60.0032524735,MAFE4ImagesEEG,001,200209,
AFNE01.JPG,AFNE01.JPG,AFNE01.JPG,AFNE01.JPG,AFNE01.JPG,AFNE01.JPG,,,,,4,0,40,1,,,,,,,,,,,,,,,,,,,AFSA10.jpg,AFNE20.jpg,AFSA18.jpg,AFNE04.jpg,AFSA10.jpg,FS,4,num_8,32,num_6,0.890970200475,,,2017_Apr_19_1803,60.0032524735,MAFE4ImagesEEG,001,200209,
AFNE01.JPG,AFNE01.JPG,AFNE01.JPG,AFNE01.JPG,AFNE01.JPG,AFNE01.JPG,,,,,4,1,41,3,,,,,,,,,,,,,,,,,,,AFSA18.jpg,AFNE03.jpg,AFNE07.jpg,AFSA15.jpg,AFSA15.jpg,FS,4,num_4,32,num_6,0.816797362495,,,2017_Apr_19_1803,60.0032524735,MAFE4ImagesEEG,001,200209,
AFNE01.JPG,AFNE01.JPG,AFNE01.JPG,AFNE01.JPG,AFNE01.JPG,AFNE01.JPG,,,,,4,2,42,0,,,,,,,,,,,,,,,,,,,AFSA02.jpg,AFSA12.jpg,AFNE10.jpg,AFNE09.jpg,AFNE09.jpg,FN,3,num_4,32,num_2,1.46676613856,,,2017_Apr_19_1803,60.0032524735,MAFE4ImagesEEG,001,200209,
AFNE01.JPG,AFNE01.JPG,AFNE01.JPG,AFNE01.JPG,AFNE01.JPG,AFNE01.JPG,,,,,4,3,43,7,,,,,,,,,,,,,,,,,,,AFNE10.jpg,AFSA01.jpg,AFSA13.jpg,AFNE15.jpg,AFNE15.jpg,FN,3,num_4,16,num_4,0.533485641645,,,2017_Apr_19_1803,60.0032524735,MAFE4ImagesEEG,001,200209,
AFNE01.JPG,AFNE01.JPG,AFNE01.JPG,AFNE01.JPG,AFNE01.JPG,AFNE01.JPG,,,,,4,4,44,2,,,,,,,,,,,,,,,,,,,AFSA19.jpg,AFSA10.jpg,AFNE19.jpg,AFNE10.jpg,AFSA19.jpg,FS,4,num_8,16,num_8,0.55010986916,,,2017_Apr_19_1803,60.0032524735,MAFE4ImagesEEG,001,200209,
AFNE01.JPG,AFNE01.JPG,AFNE01.JPG,AFNE01.JPG,AFNE01.JPG,AFNE01.JPG,,,,,4,5,45,4,,,,,,,,,,,,,,,,,,,AFSA05.jpg,AFSA19.jpg,AFNE04.jpg,AFNE10.jpg,AFSA19.jpg,FS,4,num_6,16,num_6,0.732991446857,,,2017_Apr_19_1803,60.0032524735,MAFE4ImagesEEG,001,200209,
AFNE01.JPG,AFNE01.JPG,AFNE01.JPG,AFNE01.JPG,AFNE01.JPG,AFNE01.JPG,,,,,4,6,46,5,,,,,,,,,,,,,,,,,,,AFSA12.jpg,AFSA10.jpg,AFNE03.jpg,AFNE17.jpg,AFSA12.jpg,FS,4,num_8,16,num_8,0.416787291295,,,2017_Apr_19_1803,60.0032524735,MAFE4ImagesEEG,001,200209,
AFNE01.JPG,AFNE01.JPG,AFNE01.JPG,AFNE01.JPG,AFNE01.JPG,AFNE01.JPG,,,,,4,7,47,6,,,,,,,,,,,,,,,,,,,AFNE09.jpg,AFSA09.jpg,AFNE01.jpg,AFSA10.jpg,AFNE09.jpg,FN,3,num_8,16,num_8,1.21678498198,,,2017_Apr_19_1803,60.0032524735,MAFE4ImagesEEG,001,200209,
AFNE01.JPG,AFNE01.JPG,AFNE01.JPG,AFNE01.JPG,AFNE01.JPG,AFNE01.JPG,,,,,4,8,48,8,,,,,,,,,,,,,,,,,,,AFSA18.jpg,AFNE16.jpg,AFSA16.jpg,AFNE07.jpg,AFSA18.jpg,FS,4,num_8,32,num_2,0.983499577764,,,2017_Apr_19_1803,60.0032524735,MAFE4ImagesEEG,001,200209,
AFNE01.JPG,AFNE01.JPG,AFNE01.JPG,AFNE01.JPG,AFNE01.JPG,AFNE01.JPG,,,,,4,9,49,9,,,,,,,,,,,,,,,,,,,AFSA17.jpg,AFNE18.jpg,AFNE10.jpg,AFSA06.jpg,AFSA17.jpg,FS,4,num_8,32,num_6,0.533458058082,,,2017_Apr_19_1803,60.0032524735,MAFE4ImagesEEG,001,200209,
AFNE01.JPG,AFNE01.JPG,AFNE01.JPG,AFNE01.JPG,AFNE01.JPG,AFNE01.JPG,,,,,5,0,50,7,,,,,,,,,,,,,,,,,,,AFSA07.jpg,AFNE02.jpg,AFSA09.jpg,AFNE20.jpg,AFSA09.jpg,FS,4,num_2,32,num_4,0.616759771889,,,2017_Apr_19_1803,60.0032524735,MAFE4ImagesEEG,001,200209,
AFNE01.JPG,AFNE01.JPG,AFNE01.JPG,AFNE01.JPG,AFNE01.JPG,AFNE01.JPG,,,,,5,1,51,1,,,,,,,,,,,,,,,,,,,AFNE15.jpg,AFSA12.jpg,AFSA04.jpg,AFNE01.jpg,AFNE15.jpg,FN,3,num_8,32,num_2,0.350161444017,,,2017_Apr_19_1803,60.0032524735,MAFE4ImagesEEG,001,200209,
AFNE01.JPG,AFNE01.JPG,AFNE01.JPG,AFNE01.JPG,AFNE01.JPG,AFNE01.JPG,,,,,5,2,52,3,,,,,,,,,,,,,,,,,,,AFSA17.jpg,AFNE17.jpg,AFNE09.jpg,AFSA02.jpg,AFNE09.jpg,FN,3,num_2,32,num_4,1.45006012256,,,2017_Apr_19_1803,60.0032524735,MAFE4ImagesEEG,001,200209,
AFNE01.JPG,AFNE01.JPG,AFNE01.JPG,AFNE01.JPG,AFNE01.JPG,AFNE01.JPG,,,,,5,3,53,0,,,,,,,,,,,,,,,,,,,AFSA03.jpg,AFNE13.jpg,AFSA10.jpg,AFNE05.jpg,AFNE05.jpg,FN,3,num_4,32,num_6,0.550121736509,,,2017_Apr_19_1803,60.0032524735,MAFE4ImagesEEG,001,200209,
AFNE01.JPG,AFNE01.JPG,AFNE01.JPG,AFNE01.JPG,AFNE01.JPG,AFNE01.JPG,,,,,5,4,54,5,,,,,,,,,,,,,,,,,,,AFSA16.jpg,AFNE12.jpg,AFSA11.jpg,AFNE04.jpg,AFNE12.jpg,FN,3,num_6,32,num_8,0.266832788126,,,2017_Apr_19_1803,60.0032524735,MAFE4ImagesEEG,001,200209,
AFNE01.JPG,AFNE01.JPG,AFNE01.JPG,AFNE01.JPG,AFNE01.JPG,AFNE01.JPG,,,,,5,5,55,4,,,,,,,,,,,,,,,,,,,AFNE15.jpg,AFSA04.jpg,AFSA03.jpg,AFNE19.jpg,AFSA04.jpg,FS,4,num_6,32,num_4,0.400160818594,,,2017_Apr_19_1803,60.0032524735,MAFE4ImagesEEG,001,200209,
AFNE01.JPG,AFNE01.JPG,AFNE01.JPG,AFNE01.JPG,AFNE01.JPG,AFNE01.JPG,,,,,5,6,56,2,,,,,,,,,,,,,,,,,,,AFNE01.jpg,AFSA15.jpg,AFNE08.jpg,AFSA12.jpg,AFSA12.jpg,FS,4,num_4,32,num_8,0.600115658541,,,2017_Apr_19_1803,60.0032524735,MAFE4ImagesEEG,001,200209,
AFNE01.JPG,AFNE01.JPG,AFNE01.JPG,AFNE01.JPG,AFNE01.JPG,AFNE01.JPG,,,,,5,7,57,9,,,,,,,,,,,,,,,,,,,AFSA20.jpg,AFNE06.jpg,AFSA02.jpg,AFNE02.jpg,AFNE06.jpg,FN,3,num_6,16,num_6,1.01676503199,,,2017_Apr_19_1803,60.0032524735,MAFE4ImagesEEG,001,200209,
AFNE01.JPG,AFNE01.JPG,AFNE01.JPG,AFNE01.JPG,AFNE01.JPG,AFNE01.JPG,,,,,5,8,58,6,,,,,,,,,,,,,,,,,,,AFSA08.jpg,AFNE19.jpg,AFSA07.jpg,AFNE03.jpg,AFNE03.jpg,FN,3,num_4,16,num_4,1.08345470636,,,2017_Apr_19_1803,60.0032524735,MAFE4ImagesEEG,001,200209,
AFNE01.JPG,AFNE01.JPG,AFNE01.JPG,AFNE01.JPG,AFNE01.JPG,AFNE01.JPG,,,,,5,9,59,8,,,,,,,,,,,,,,,,,,,AFNE09.jpg,AFSA17.jpg,AFNE19.jpg,AFSA03.jpg,AFNE09.jpg,FN,3,num_8,16,num_8,0.933474223304,,,2017_Apr_19_1803,60.0032524735,MAFE4ImagesEEG,001,200209,
,,,,,,,,,,,,,,,,,,,,,,,,,,,,,,,,,,,,,,,,,,,space,30.6476828686,2017_Apr_19_1803,60.0032524735,MAFE4ImagesEEG,001,200209,
AFNE01.JPG,AFNE01.JPG,AFNE01.JPG,AFNE01.JPG,AFNE01.JPG,AFNE01.JPG,,,,,,,,,0,0,0,2,,,,,,,,,,,,,,,AMNE02.jpg,AMSA04.jpg,AMNE12.jpg,AMSA17.jpg,AMSA17.jpg,MS,2,num_4,16,num_4,0.766786441323,,,2017_Apr_19_1803,60.0032524735,MAFE4ImagesEEG,001,200209,
AFNE01.JPG,AFNE01.JPG,AFNE01.JPG,AFNE01.JPG,AFNE01.JPG,AFNE01.JPG,,,,,,,,,0,1,1,8,,,,,,,,,,,,,,,AMSA13.jpg,AMNE14.jpg,AMNE13.jpg,AMSA18.jpg,AMSA18.jpg,MS,2,num_4,32,num_8,0.250152751978,,,2017_Apr_19_1803,60.0032524735,MAFE4ImagesEEG,001,200209,
AFNE01.JPG,AFNE01.JPG,AFNE01.JPG,AFNE01.JPG,AFNE01.JPG,AFNE01.JPG,,,,,,,,,0,2,2,6,,,,,,,,,,,,,,,AMNE02.jpg,AMNE20.jpg,AMSA04.jpg,AMSA02.jpg,AMSA04.jpg,MS,2,num_2,32,num_4,0.616772601439,,,2017_Apr_19_1803,60.0032524735,MAFE4ImagesEEG,001,200209,
AFNE01.JPG,AFNE01.JPG,AFNE01.JPG,AFNE01.JPG,AFNE01.JPG,AFNE01.JPG,,,,,,,,,0,3,3,1,,,,,,,,,,,,,,,AMSA19.jpg,AMSA17.jpg,AMNE03.jpg,AMNE20.jpg,AMNE20.jpg,MN,1,num_4,32,num_2,0.916764037713,,,2017_Apr_19_1803,60.0032524735,MAFE4ImagesEEG,001,200209,
AFNE01.JPG,AFNE01.JPG,AFNE01.JPG,AFNE01.JPG,AFNE01.JPG,AFNE01.JPG,,,,,,,,,0,4,4,3,,,,,,,,,,,,,,,AMSA15.jpg,AMSA20.jpg,AMNE15.jpg,AMNE16.jpg,AMNE16.jpg,MN,1,num_4,32,num_8,0.2667955824,,,2017_Apr_19_1803,60.0032524735,MAFE4ImagesEEG,001,200209,
AFNE01.JPG,AFNE01.JPG,AFNE01.JPG,AFNE01.JPG,AFNE01.JPG,AFNE01.JPG,,,,,,,,,0,5,5,0,,,,,,,,,,,,,,,AMNE14.jpg,AMNE06.jpg,AMSA12.jpg,AMSA08.jpg,AMSA12.jpg,MS,2,num_2,16,num_2,0.750105442974,,,2017_Apr_19_1803,60.0032524735,MAFE4ImagesEEG,001,200209,
AFNE01.JPG,AFNE01.JPG,AFNE01.JPG,AFNE01.JPG,AFNE01.JPG,AFNE01.JPG,,,,,,,,,0,6,6,4,,,,,,,,,,,,,,,AMSA05.jpg,AMNE06.jpg,AMSA03.jpg,AMNE12.jpg,AMNE12.jpg,MN,1,num_4,16,num_4,0.600126242905,,,2017_Apr_19_1803,60.0032524735,MAFE4ImagesEEG,001,200209,
AFNE01.JPG,AFNE01.JPG,AFNE01.JPG,AFNE01.JPG,AFNE01.JPG,AFNE01.JPG,,,,,,,,,0,7,7,5,,,,,,,,,,,,,,,AMNE08.jpg,AMSA16.jpg,AMSA09.jpg,AMNE12.jpg,AMNE08.jpg,MN,1,num_8,16,num_8,0.366779256787,,,2017_Apr_19_1803,60.0032524735,MAFE4ImagesEEG,001,200209,
AFNE01.JPG,AFNE01.JPG,AFNE01.JPG,AFNE01.JPG,AFNE01.JPG,AFNE01.JPG,,,,,,,,,0,8,8,7,,,,,,,,,,,,,,,AMSA01.jpg,AMNE18.jpg,AMNE13.jpg,AMSA16.jpg,AMNE13.jpg,MN,1,num_2,32,num_6,0.866787435632,,,2017_Apr_19_1803,60.0032524735,MAFE4ImagesEEG,001,200209,
AFNE01.JPG,AFNE01.JPG,AFNE01.JPG,AFNE01.JPG,AFNE01.JPG,AFNE01.JPG,,,,,,,,,0,9,9,9,,,,,,,,,,,,,,,AMSA12.jpg,AMNE15.jpg,AMSA01.jpg,AMNE02.jpg,AMNE02.jpg,MN,1,num_4,16,num_4,0.683495311911,,,2017_Apr_19_1803,60.0032524735,MAFE4ImagesEEG,001,200209,
AFNE01.JPG,AFNE01.JPG,AFNE01.JPG,AFNE01.JPG,AFNE01.JPG,AFNE01.JPG,,,,,,,,,1,0,10,2,,,,,,,,,,,,,,,AMSA18.jpg,AMNE18.jpg,AMSA07.jpg,AMNE11.jpg,AMNE18.jpg,MN,1,num_6,32,num_8,0.749966883683,,,2017_Apr_19_1803,60.0032524735,MAFE4ImagesEEG,001,200209,
AFNE01.JPG,AFNE01.JPG,AFNE01.JPG,AFNE01.JPG,AFNE01.JPG,AFNE01.JPG,,,,,,,,,1,1,11,8,,,,,,,,,,,,,,,AMSA04.jpg,AMNE04.jpg,AMSA13.jpg,AMNE03.jpg,AMNE04.jpg,MN,1,num_6,32,num_2,1.10005584068,,,2017_Apr_19_1803,60.0032524735,MAFE4ImagesEEG,001,200209,
AFNE01.JPG,AFNE01.JPG,AFNE01.JPG,AFNE01.JPG,AFNE01.JPG,AFNE01.JPG,,,,,,,,,1,2,12,5,,,,,,,,,,,,,,,AMNE03.jpg,AMSA04.jpg,AMNE01.jpg,AMSA19.jpg,AMNE01.jpg,MN,1,num_2,32,num_8,0.666773900448,,,2017_Apr_19_1803,60.0032524735,MAFE4ImagesEEG,001,200209,
AFNE01.JPG,AFNE01.JPG,AFNE01.JPG,AFNE01.JPG,AFNE01.JPG,AFNE01.JPG,,,,,,,,,1,3,13,0,,,,,,,,,,,,,,,AMNE11.jpg,AMSA14.jpg,AMSA05.jpg,AMNE01.jpg,AMNE11.jpg,MN,1,num_8,32,num_6,1.55000594971,,,2017_Apr_19_1803,60.0032524735,MAFE4ImagesEEG,001,200209,
AFNE01.JPG,AFNE01.JPG,AFNE01.JPG,AFNE01.JPG,AFNE01.JPG,AFNE01.JPG,,,,,,,,,1,4,14,9,,,,,,,,,,,,,,,AMNE12.jpg,AMSA20.jpg,AMNE18.jpg,AMSA07.jpg,AMSA20.jpg,MS,2,num_6,32,num_4,0.800005067693,,,2017_Apr_19_1803,60.0032524735,MAFE4ImagesEEG,001,200209,
AFNE01.JPG,AFNE01.JPG,AFNE01.JPG,AFNE01.JPG,AFNE01.JPG,AFNE01.JPG,,,,,,,,,1,5,15,7,,,,,,,,,,,,,,,AMNE08.jpg,AMNE15.jpg,AMSA03.jpg,AMSA04.jpg,AMNE15.jpg,MN,1,num_6,32,num_8,0.566776113526,,,2017_Apr_19_1803,60.0032524735,MAFE4ImagesEEG,001,200209,
AFNE01.JPG,AFNE01.JPG,AFNE01.JPG,AFNE01.JPG,AFNE01.JPG,AFNE01.JPG,,,,,,,,,1,6,16,3,,,,,,,,,,,,,,,AMSA20.jpg,AMNE17.jpg,AMSA03.jpg,AMNE04.jpg,AMNE17.jpg,MN,1,num_6,32,num_2,0.43347727033,,,2017_Apr_19_1803,60.0032524735,MAFE4ImagesEEG,001,200209,
AFNE01.JPG,AFNE01.JPG,AFNE01.JPG,AFNE01.JPG,AFNE01.JPG,AFNE01.JPG,,,,,,,,,1,7,17,6,,,,,,,,,,,,,,,AMSA16.jpg,AMSA12.jpg,AMNE09.jpg,AMNE02.jpg,AMSA12.jpg,MS,2,num_6,16,num_6,0.583500411652,,,2017_Apr_19_1803,60.0032524735,MAFE4ImagesEEG,001,200209,
AFNE01.JPG,AFNE01.JPG,AFNE01.JPG,AFNE01.JPG,AFNE01.JPG,AFNE01.JPG,,,,,,,,,1,8,18,1,,,,,,,,,,,,,,,AMSA11.jpg,AMNE04.jpg,AMNE07.jpg,AMSA06.jpg,AMSA11.jpg,MS,2,num_8,16,num_8,0.466775119246,,,2017_Apr_19_1803,60.0032524735,MAFE4ImagesEEG,001,200209,
AFNE01.JPG,AFNE01.JPG,AFNE01.JPG,AFNE01.JPG,AFNE01.JPG,AFNE01.JPG,,,,,,,,,1,9,19,4,,,,,,,,,,,,,,,AMNE11.jpg,AMSA11.jpg,AMSA06.jpg,AMNE10.jpg,AMSA11.jpg,MS,2,num_6,32,num_4,0.400161780795,,,2017_Apr_19_1803,60.0032524735,MAFE4ImagesEEG,001,200209,
AFNE01.JPG,AFNE01.JPG,AFNE01.JPG,AFNE01.JPG,AFNE01.JPG,AFNE01.JPG,,,,,,,,,2,0,20,5,,,,,,,,,,,,,,,AMSA06.jpg,AMNE05.jpg,AMNE08.jpg,AMSA12.jpg,AMSA06.jpg,MS,2,num_8,32,num_2,0.600135865068,,,2017_Apr_19_1803,60.0032524735,MAFE4ImagesEEG,001,200209,
AFNE01.JPG,AFNE01.JPG,AFNE01.JPG,AFNE01.JPG,AFNE01.JPG,AFNE01.JPG,,,,,,,,,2,1,21,9,,,,,,,,,,,,,,,AMSA18.jpg,AMNE18.jpg,AMNE20.jpg,AMSA09.jpg,AMSA09.jpg,MS,2,num_4,32,num_8,0.350151501101,,,2017_Apr_19_1803,60.0032524735,MAFE4ImagesEEG,001,200209,
AFNE01.JPG,AFNE01.JPG,AFNE01.JPG,AFNE01.JPG,AFNE01.JPG,AFNE01.JPG,,,,,,,,,2,2,22,1,,,,,,,,,,,,,,,AMNE14.jpg,AMSA01.jpg,AMNE16.jpg,AMSA16.jpg,AMNE14.jpg,MN,1,num_8,16,num_8,0.533455171419,,,2017_Apr_19_1803,60.0032524735,MAFE4ImagesEEG,001,200209,
AFNE01.JPG,AFNE01.JPG,AFNE01.JPG,AFNE01.JPG,AFNE01.JPG,AFNE01.JPG,,,,,,,,,2,3,23,0,,,,,,,,,,,,,,,AMSA20.jpg,AMNE10.jpg,AMSA06.jpg,AMNE20.jpg,AMSA20.jpg,MS,2,num_8,32,num_2,0.383516063739,,,2017_Apr_19_1803,60.0032524735,MAFE4ImagesEEG,001,200209,
AFNE01.JPG,AFNE01.JPG,AFNE01.JPG,AFNE01.JPG,AFNE01.JPG,AFNE01.JPG,,,,,,,,,2,4,24,8,,,,,,,,,,,,,,,AMSA18.jpg,AMNE10.jpg,AMNE02.jpg,AMSA20.jpg,AMSA20.jpg,MS,2,num_4,32,num_6,0.333471785707,,,2017_Apr_19_1803,60.0032524735,MAFE4ImagesEEG,001,200209,
AFNE01.JPG,AFNE01.JPG,AFNE01.JPG,AFNE01.JPG,AFNE01.JPG,AFNE01.JPG,,,,,,,,,2,5,25,6,,,,,,,,,,,,,,,AMSA08.jpg,AMNE16.jpg,AMNE02.jpg,AMSA09.jpg,AMSA08.jpg,MS,2,num_8,32,num_2,0.983430298103,,,2017_Apr_19_1803,60.0032524735,MAFE4ImagesEEG,001,200209,
AFNE01.JPG,AFNE01.JPG,AFNE01.JPG,AFNE01.JPG,AFNE01.JPG,AFNE01.JPG,,,,,,,,,2,6,26,2,,,,,,,,,,,,,,,AMSA11.jpg,AMNE03.jpg,AMSA08.jpg,AMNE18.jpg,AMNE18.jpg,MN,1,num_4,32,num_6,0.500159567688,,,2017_Apr_19_1803,60.0032524735,MAFE4ImagesEEG,001,200209,
AFNE01.JPG,AFNE01.JPG,AFNE01.JPG,AFNE01.JPG,AFNE01.JPG,AFNE01.JPG,,,,,,,,,2,7,27,4,,,,,,,,,,,,,,,AMSA01.jpg,AMNE18.jpg,AMSA12.jpg,AMNE04.jpg,AMSA12.jpg,MS,2,num_2,32,num_4,0.500154756621,,,2017_Apr_19_1803,60.0032524735,MAFE4ImagesEEG,001,200209,
AFNE01.JPG,AFNE01.JPG,AFNE01.JPG,AFNE01.JPG,AFNE01.JPG,AFNE01.JPG,,,,,,,,,2,8,28,7,,,,,,,,,,,,,,,AMSA07.jpg,AMNE09.jpg,AMSA18.jpg,AMNE16.jpg,AMNE16.jpg,MN,1,num_4,16,num_4,0.500286580354,,,2017_Apr_19_1803,60.0032524735,MAFE4ImagesEEG,001,200209,
AFNE01.JPG,AFNE01.JPG,AFNE01.JPG,AFNE01.JPG,AFNE01.JPG,AFNE01.JPG,,,,,,,,,2,9,29,3,,,,,,,,,,,,,,,AMNE07.jpg,AMSA11.jpg,AMSA20.jpg,AMNE06.jpg,AMSA11.jpg,MS,2,num_6,32,num_8,0.26682797703,,,2017_Apr_19_1803,60.0032524735,MAFE4ImagesEEG,001,200209,
AFNE01.JPG,AFNE01.JPG,AFNE01.JPG,AFNE01.JPG,AFNE01.JPG,AFNE01.JPG,,,,,,,,,3,0,30,4,,,,,,,,,,,,,,,AMNE11.jpg,AMSA06.jpg,AMSA11.jpg,AMNE17.jpg,AMNE17.jpg,MN,1,num_4,32,num_2,0.366807802551,,,2017_Apr_19_1803,60.0032524735,MAFE4ImagesEEG,001,200209,
AFNE01.JPG,AFNE01.JPG,AFNE01.JPG,AFNE01.JPG,AFNE01.JPG,AFNE01.JPG,,,,,,,,,3,1,31,7,,,,,,,,,,,,,,,AMSA13.jpg,AMNE09.jpg,AMSA17.jpg,AMNE14.jpg,AMSA13.jpg,MS,2,num_8,32,num_6,0.266801997175,,,2017_Apr_19_1803,60.0032524735,MAFE4ImagesEEG,001,200209,
AFNE01.JPG,AFNE01.JPG,AFNE01.JPG,AFNE01.JPG,AFNE01.JPG,AFNE01.JPG,,,,,,,,,3,2,32,5,,,,,,,,,,,,,,,AMNE06.jpg,AMSA18.jpg,AMNE09.jpg,AMSA20.jpg,AMSA18.jpg,MS,2,num_6,32,num_8,0.316858784034,,,2017_Apr_19_1803,60.0032524735,MAFE4ImagesEEG,001,200209,
AFNE01.JPG,AFNE01.JPG,AFNE01.JPG,AFNE01.JPG,AFNE01.JPG,AFNE01.JPG,,,,,,,,,3,3,33,1,,,,,,,,,,,,,,,AMSA17.jpg,AMNE03.jpg,AMNE18.jpg,AMSA20.jpg,AMSA17.jpg,MS,2,num_8,32,num_4,0.900129546528,,,2017_Apr_19_1803,60.0032524735,MAFE4ImagesEEG,001,200209,
AFNE01.JPG,AFNE01.JPG,AFNE01.JPG,AFNE01.JPG,AFNE01.JPG,AFNE01.JPG,,,,,,,,,3,4,34,3,,,,,,,,,,,,,,,AMSA16.jpg,AMSA05.jpg,AMNE20.jpg,AMNE13.jpg,AMSA05.jpg,MS,2,num_6,32,num_2,0.433489137678,,,2017_Apr_19_1803,60.0032524735,MAFE4ImagesEEG,001,200209,
AFNE01.JPG,AFNE01.JPG,AFNE01.JPG,AFNE01.JPG,AFNE01.JPG,AFNE01.JPG,,,,,,,,,3,5,35,6,,,,,,,,,,,,,,,AMSA05.jpg,AMNE10.jpg,AMNE13.jpg,AMSA01.jpg,AMNE13.jpg,MN,1,num_2,32,num_6,0.783493098803,,,2017_Apr_19_1803,60.0032524735,MAFE4ImagesEEG,001,200209,
AFNE01.JPG,AFNE01.JPG,AFNE01.JPG,AFNE01.JPG,AFNE01.JPG,AFNE01.JPG,,,,,,,,,3,6,36,9,,,,,,,,,,,,,,,AMNE16.jpg,AMNE10.jpg,AMSA20.jpg,AMSA03.jpg,AMNE10.jpg,MN,1,num_6,32,num_8,0.33349423742,,,2017_Apr_19_1803,60.0032524735,MAFE4ImagesEEG,001,200209,
AFNE01.JPG,AFNE01.JPG,AFNE01.JPG,AFNE01.JPG,AFNE01.JPG,AFNE01.JPG,,,,,,,,,3,7,37,8,,,,,,,,,,,,,,,AMSA13.jpg,AMNE19.jpg,AMNE18.jpg,AMSA15.jpg,AMNE19.jpg,MN,1,num_6,32,num_2,0.533458058082,,,2017_Apr_19_1803,60.0032524735,MAFE4ImagesEEG,001,200209,
AFNE01.JPG,AFNE01.JPG,AFNE01.JPG,AFNE01.JPG,AFNE01.JPG,AFNE01.JPG,,,,,,,,,3,8,38,2,,,,,,,,,,,,,,,AMNE02.jpg,AMSA18.jpg,AMNE20.jpg,AMSA12.jpg,AMSA18.jpg,MS,2,num_6,32,num_4,1.4001274617,,,2017_Apr_19_1803,60.0032524735,MAFE4ImagesEEG,001,200209,
AFNE01.JPG,AFNE01.JPG,AFNE01.JPG,AFNE01.JPG,AFNE01.JPG,AFNE01.JPG,,,,,,,,,3,9,39,0,,,,,,,,,,,,,,,AMSA08.jpg,AMNE09.jpg,AMNE01.jpg,AMSA11.jpg,AMNE09.jpg,MN,1,num_6,16,num_6,0.266799751989,,,2017_Apr_19_1803,60.0032524735,MAFE4ImagesEEG,001,200209,
AFNE01.JPG,AFNE01.JPG,AFNE01.JPG,AFNE01.JPG,AFNE01.JPG,AFNE01.JPG,,,,,,,,,4,0,40,4,,,,,,,,,,,,,,,AMSA09.jpg,AMNE19.jpg,AMNE04.jpg,AMSA08.jpg,AMSA09.jpg,MS,2,num_8,16,num_8,0.183525942499,,,2017_Apr_19_1803,60.0032524735,MAFE4ImagesEEG,001,200209,
AFNE01.JPG,AFNE01.JPG,AFNE01.JPG,AFNE01.JPG,AFNE01.JPG,AFNE01.JPG,,,,,,,,,4,1,41,5,,,,,,,,,,,,,,,AMSA04.jpg,AMNE16.jpg,AMNE05.jpg,AMSA03.jpg,AMSA04.jpg,MS,2,num_8,16,num_8,0.383483027603,,,2017_Apr_19_1803,60.0032524735,MAFE4ImagesEEG,001,200209,
AFNE01.JPG,AFNE01.JPG,AFNE01.JPG,AFNE01.JPG,AFNE01.JPG,AFNE01.JPG,,,,,,,,,4,2,42,1,,,,,,,,,,,,,,,AMSA14.jpg,AMNE20.jpg,AMNE16.jpg,AMSA15.jpg,AMNE20.jpg,MN,1,num_6,16,num_6,0.600134582113,,,2017_Apr_19_1803,60.0032524735,MAFE4ImagesEEG,001,200209,
AFNE01.JPG,AFNE01.JPG,AFNE01.JPG,AFNE01.JPG,AFNE01.JPG,AFNE01.JPG,,,,,,,,,4,3,43,3,,,,,,,,,,,,,,,AMSA05.jpg,AMNE11.jpg,AMNE02.jpg,AMSA16.jpg,AMNE11.jpg,MN,1,num_6,32,num_8,0.683443352173,,,2017_Apr_19_1803,60.0032524735,MAFE4ImagesEEG,001,200209,
AFNE01.JPG,AFNE01.JPG,AFNE01.JPG,AFNE01.JPG,AFNE01.JPG,AFNE01.JPG,,,,,,,,,4,4,44,6,,,,,,,,,,,,,,,AMNE02.jpg,AMSA15.jpg,AMNE08.jpg,AMSA03.jpg,AMNE02.jpg,MN,1,num_8,32,num_2,0.516787644097,,,2017_Apr_19_1803,60.0032524735,MAFE4ImagesEEG,001,200209,
AFNE01.JPG,AFNE01.JPG,AFNE01.JPG,AFNE01.JPG,AFNE01.JPG,AFNE01.JPG,,,,,,,,,4,5,45,2,,,,,,,,,,,,,,,AMNE01.jpg,AMSA14.jpg,AMSA13.jpg,AMNE08.jpg,AMSA13.jpg,MS,2,num_2,32,num_4,0.733461329626,,,2017_Apr_19_1803,60.0032524735,MAFE4ImagesEEG,001,200209,
AFNE01.JPG,AFNE01.JPG,AFNE01.JPG,AFNE01.JPG,AFNE01.JPG,AFNE01.JPG,,,,,,,,,4,6,46,7,,,,,,,,,,,,,,,AMSA19.jpg,AMNE14.jpg,AMNE02.jpg,AMSA20.jpg,AMNE14.jpg,MN,1,num_6,16,num_6,0.350148293714,,,2017_Apr_19_1803,60.0032524735,MAFE4ImagesEEG,001,200209,
AFNE01.JPG,AFNE01.JPG,AFNE01.JPG,AFNE01.JPG,AFNE01.JPG,AFNE01.JPG,,,,,,,,,4,7,47,8,,,,,,,,,,,,,,,AMSA16.jpg,AMNE02.jpg,AMNE18.jpg,AMSA02.jpg,AMNE02.jpg,MN,1,num_6,32,num_4,0.616770356253,,,2017_Apr_19_1803,60.0032524735,MAFE4ImagesEEG,001,200209,
AFNE01.JPG,AFNE01.JPG,AFNE01.JPG,AFNE01.JPG,AFNE01.JPG,AFNE01.JPG,,,,,,,,,4,8,48,9,,,,,,,,,,,,,,,AMSA08.jpg,AMSA15.jpg,AMNE16.jpg,AMNE14.jpg,AMSA15.jpg,MS,2,num_6,32,num_8,0.616767148866,,,2017_Apr_19_1803,60.0032524735,MAFE4ImagesEEG,001,200209,
AFNE01.JPG,AFNE01.JPG,AFNE01.JPG,AFNE01.JPG,AFNE01.JPG,AFNE01.JPG,,,,,,,,,4,9,49,0,,,,,,,,,,,,,,,AMNE17.jpg,AMNE02.jpg,AMSA09.jpg,AMSA02.jpg,AMNE02.jpg,MN,1,num_6,32,num_2,2.01667618725,,,2017_Apr_19_1803,60.0032524735,MAFE4ImagesEEG,001,200209,
AFNE01.JPG,AFNE01.JPG,AFNE01.JPG,AFNE01.JPG,AFNE01.JPG,AFNE01.JPG,,,,,,,,,5,0,50,4,,,,,,,,,,,,,,,AMSA17.jpg,AMNE03.jpg,AMSA09.jpg,AMNE14.jpg,AMNE14.jpg,MN,1,num_4,32,num_8,0.316811956145,,,2017_Apr_19_1803,60.0032524735,MAFE4ImagesEEG,001,200209,
AFNE01.JPG,AFNE01.JPG,AFNE01.JPG,AFNE01.JPG,AFNE01.JPG,AFNE01.JPG,,,,,,,,,5,1,51,7,,,,,,,,,,,,,,,AMNE10.jpg,AMNE01.jpg,AMSA01.jpg,AMSA13.jpg,AMSA01.jpg,MS,2,num_2,32,num_6,0.366769313841,,,2017_Apr_19_1803,60.0032524735,MAFE4ImagesEEG,001,200209,
AFNE01.JPG,AFNE01.JPG,AFNE01.JPG,AFNE01.JPG,AFNE01.JPG,AFNE01.JPG,,,,,,,,,5,2,52,1,,,,,,,,,,,,,,,AMSA18.jpg,AMSA11.jpg,AMNE17.jpg,AMNE04.jpg,AMNE17.jpg,MN,1,num_2,32,num_4,0.383508045255,,,2017_Apr_19_1803,60.0032524735,MAFE4ImagesEEG,001,200209,
AFNE01.JPG,AFNE01.JPG,AFNE01.JPG,AFNE01.JPG,AFNE01.JPG,AFNE01.JPG,,,,,,,,,5,3,53,3,,,,,,,,,,,,,,,AMNE18.jpg,AMNE11.jpg,AMSA06.jpg,AMSA17.jpg,AMNE18.jpg,MN,1,num_8,32,num_2,0.300199595949,,,2017_Apr_19_1803,60.0032524735,MAFE4ImagesEEG,001,200209,
AFNE01.JPG,AFNE01.JPG,AFNE01.JPG,AFNE01.JPG,AFNE01.JPG,AFNE01.JPG,,,,,,,,,5,4,54,5,,,,,,,,,,,,,,,AMNE08.jpg,AMNE11.jpg,AMSA10.jpg,AMSA03.jpg,AMNE08.jpg,MN,1,num_8,16,num_8,0.283480750368,,,2017_Apr_19_1803,60.0032524735,MAFE4ImagesEEG,001,200209,
AFNE01.JPG,AFNE01.JPG,AFNE01.JPG,AFNE01.JPG,AFNE01.JPG,AFNE01.JPG,,,,,,,,,5,5,55,2,,,,,,,,,,,,,,,AMNE07.jpg,AMSA12.jpg,AMSA08.jpg,AMNE02.jpg,AMSA08.jpg,MS,2,num_2,32,num_6,0.333454145031,,,2017_Apr_19_1803,60.0032524735,MAFE4ImagesEEG,001,200209,
AFNE01.JPG,AFNE01.JPG,AFNE01.JPG,AFNE01.JPG,AFNE01.JPG,AFNE01.JPG,,,,,,,,,5,6,56,0,,,,,,,,,,,,,,,AMSA09.jpg,AMNE06.jpg,AMSA03.jpg,AMNE17.jpg,AMSA03.jpg,MS,2,num_2,16,num_2,0.316814522055,,,2017_Apr_19_1803,60.0032524735,MAFE4ImagesEEG,001,200209,
AFNE01.JPG,AFNE01.JPG,AFNE01.JPG,AFNE01.JPG,AFNE01.JPG,AFNE01.JPG,,,,,,,,,5,7,57,9,,,,,,,,,,,,,,,AMNE12.jpg,AMSA11.jpg,AMSA10.jpg,AMNE01.jpg,AMNE12.jpg,MN,1,num_8,32,num_4,0.566830959928,,,2017_Apr_19_1803,60.0032524735,MAFE4ImagesEEG,001,200209,
AFNE01.JPG,AFNE01.JPG,AFNE01.JPG,AFNE01.JPG,AFNE01.JPG,AFNE01.JPG,,,,,,,,,5,8,58,6,,,,,,,,,,,,,,,AMNE02.jpg,AMSA10.jpg,AMNE10.jpg,AMSA04.jpg,AMSA10.jpg,MS,2,num_6,32,num_8,0.250406456587,,,2017_Apr_19_1803,60.0032524735,MAFE4ImagesEEG,001,200209,
AFNE01.JPG,AFNE01.JPG,AFNE01.JPG,AFNE01.JPG,AFNE01.JPG,AFNE01.JPG,,,,,,,,,5,9,59,8,,,,,,,,,,,,,,,AMNE16.jpg,AMSA08.jpg,AMSA12.jpg,AMNE07.jpg,AMSA12.jpg,MS,2,num_2,32,num_6,0.333485898242,,,2017_Apr_19_1803,60.0032524735,MAFE4ImagesEEG,001,200209,
,,,,,,,,,,,,,,,,,,,,,,,,,,,,,,,,,,,,,,,,,,,space,46.9962380513,2017_Apr_19_1803,60.0032524735,MAFE4ImagesEEG,001,200209,
AFNE01.JPG,AFNE01.JPG,AFNE01.JPG,AFNE01.JPG,AFNE01.JPG,AFNE01.JPG,,,,,,,,,,,,,0,0,0,9,,,,,,,,,,,AFNE15.jpg,AFNE08.jpg,AFSA02.jpg,AFSA05.jpg,AFSA02.jpg,FS,4,num_2,16,num_2,0.33347210646,,,2017_Apr_19_1803,60.0032524735,MAFE4ImagesEEG,001,200209,
AFNE01.JPG,AFNE01.JPG,AFNE01.JPG,AFNE01.JPG,AFNE01.JPG,AFNE01.JPG,,,,,,,,,,,,,0,1,1,6,,,,,,,,,,,AFSA09.jpg,AFSA17.jpg,AFNE10.jpg,AFNE16.jpg,AFSA09.jpg,FS,4,num_8,16,num_8,0.400120405451,,,2017_Apr_19_1803,60.0032524735,MAFE4ImagesEEG,001,200209,
AFNE01.JPG,AFNE01.JPG,AFNE01.JPG,AFNE01.JPG,AFNE01.JPG,AFNE01.JPG,,,,,,,,,,,,,0,2,2,5,,,,,,,,,,,AFNE09.jpg,AFSA13.jpg,AFSA06.jpg,AFNE05.jpg,AFNE05.jpg,FN,3,num_4,32,num_6,0.300138014019,,,2017_Apr_19_1803,60.0032524735,MAFE4ImagesEEG,001,200209,
AFNE01.JPG,AFNE01.JPG,AFNE01.JPG,AFNE01.JPG,AFNE01.JPG,AFNE01.JPG,,,,,,,,,,,,,0,3,3,4,,,,,,,,,,,AFNE09.jpg,AFSA17.jpg,AFSA13.jpg,AFNE06.jpg,AFSA17.jpg,FS,4,num_6,32,num_4,0.183492264885,,,2017_Apr_19_1803,60.0032524735,MAFE4ImagesEEG,001,200209,
AFNE01.JPG,AFNE01.JPG,AFNE01.JPG,AFNE01.JPG,AFNE01.JPG,AFNE01.JPG,,,,,,,,,,,,,0,4,4,1,,,,,,,,,,,AFNE17.jpg,AFNE01.jpg,AFSA11.jpg,AFSA16.jpg,AFNE01.jpg,FN,3,num_6,32,num_8,0.266805204592,,,2017_Apr_19_1803,60.0032524735,MAFE4ImagesEEG,001,200209,
AFNE01.JPG,AFNE01.JPG,AFNE01.JPG,AFNE01.JPG,AFNE01.JPG,AFNE01.JPG,,,,,,,,,,,,,0,5,5,3,,,,,,,,,,,AFNE14.jpg,AFSA02.jpg,AFSA14.jpg,AFNE01.jpg,AFSA02.jpg,FS,4,num_6,32,num_2,0.33351476473,,,2017_Apr_19_1803,60.0032524735,MAFE4ImagesEEG,001,200209,
AFNE01.JPG,AFNE01.JPG,AFNE01.JPG,AFNE01.JPG,AFNE01.JPG,AFNE01.JPG,,,,,,,,,,,,,0,6,6,7,,,,,,,,,,,AFNE11.jpg,AFSA08.jpg,AFNE20.jpg,AFSA12.jpg,AFSA12.jpg,FS,4,num_4,16,num_4,0.483526680211,,,2017_Apr_19_1803,60.0032524735,MAFE4ImagesEEG,001,200209,
AFNE01.JPG,AFNE01.JPG,AFNE01.JPG,AFNE01.JPG,AFNE01.JPG,AFNE01.JPG,,,,,,,,,,,,,0,7,7,0,,,,,,,,,,,AFSA20.jpg,AFSA02.jpg,AFNE15.jpg,AFNE12.jpg,AFSA02.jpg,FS,4,num_6,32,num_2,0.350123917538,,,2017_Apr_19_1803,60.0032524735,MAFE4ImagesEEG,001,200209,
AFNE01.JPG,AFNE01.JPG,AFNE01.JPG,AFNE01.JPG,AFNE01.JPG,AFNE01.JPG,,,,,,,,,,,,,0,8,8,8,,,,,,,,,,,AFSA15.jpg,AFNE03.jpg,AFNE13.jpg,AFSA18.jpg,AFSA15.jpg,FS,4,num_8,16,num_8,0.316895027558,,,2017_Apr_19_1803,60.0032524735,MAFE4ImagesEEG,001,200209,
AFNE01.JPG,AFNE01.JPG,AFNE01.JPG,AFNE01.JPG,AFNE01.JPG,AFNE01.JPG,,,,,,,,,,,,,0,9,9,2,,,,,,,,,,,AFNE19.jpg,AFSA12.jpg,AFNE12.jpg,AFSA01.jpg,AFNE19.jpg,FN,3,num_8,32,num_2,0.683481520158,,,2017_Apr_19_1803,60.0032524735,MAFE4ImagesEEG,001,200209,
AFNE01.JPG,AFNE01.JPG,AFNE01.JPG,AFNE01.JPG,AFNE01.JPG,AFNE01.JPG,,,,,,,,,,,,,1,0,10,3,,,,,,,,,,,AFSA09.jpg,AFNE06.jpg,AFNE01.jpg,AFSA20.jpg,AFNE06.jpg,FN,3,num_6,32,num_4,0.300157579128,,,2017_Apr_19_1803,60.0032524735,MAFE4ImagesEEG,001,200209,
AFNE01.JPG,AFNE01.JPG,AFNE01.JPG,AFNE01.JPG,AFNE01.JPG,AFNE01.JPG,,,,,,,,,,,,,1,1,11,7,,,,,,,,,,,AFSA13.jpg,AFSA20.jpg,AFNE05.jpg,AFNE08.jpg,AFSA13.jpg,FS,4,num_8,32,num_6,0.433472138538,,,2017_Apr_19_1803,60.0032524735,MAFE4ImagesEEG,001,200209,
AFNE01.JPG,AFNE01.JPG,AFNE01.JPG,AFNE01.JPG,AFNE01.JPG,AFNE01.JPG,,,,,,,,,,,,,1,2,12,9,,,,,,,,,,,AFSA20.jpg,AFSA14.jpg,AFNE19.jpg,AFNE01.jpg,AFSA14.jpg,FS,4,num_6,32,num_2,0.783469043381,,,2017_Apr_19_1803,60.0032524735,MAFE4ImagesEEG,001,200209,
AFNE01.JPG,AFNE01.JPG,AFNE01.JPG,AFNE01.JPG,AFNE01.JPG,AFNE01.JPG,,,,,,,,,,,,,1,3,13,6,,,,,,,,,,,AFSA02.jpg,AFNE09.jpg,AFNE07.jpg,AFSA14.jpg,AFNE07.jpg,FN,3,num_2,32,num_8,0.433544625557,,,2017_Apr_19_1803,60.0032524735,MAFE4ImagesEEG,001,200209,
AFNE01.JPG,AFNE01.JPG,AFNE01.JPG,AFNE01.JPG,AFNE01.JPG,AFNE01.JPG,,,,,,,,,,,,,1,4,14,1,,,,,,,,,,,AFSA17.jpg,AFNE12.jpg,AFNE16.jpg,AFSA04.jpg,AFSA17.jpg,FS,4,num_8,32,num_4,0.483439759904,,,2017_Apr_19_1803,60.0032524735,MAFE4ImagesEEG,001,200209,
AFNE01.JPG,AFNE01.JPG,AFNE01.JPG,AFNE01.JPG,AFNE01.JPG,AFNE01.JPG,,,,,,,,,,,,,1,5,15,5,,,,,,,,,,,AFSA06.jpg,AFNE13.jpg,AFSA07.jpg,AFNE03.jpg,AFNE13.jpg,FN,3,num_6,32,num_8,0.300154692464,,,2017_Apr_19_1803,60.0032524735,MAFE4ImagesEEG,001,200209,
AFNE01.JPG,AFNE01.JPG,AFNE01.JPG,AFNE01.JPG,AFNE01.JPG,AFNE01.JPG,,,,,,,,,,,,,1,6,16,2,,,,,,,,,,,AFNE12.jpg,AFSA04.jpg,AFSA17.jpg,AFNE02.jpg,AFNE02.jpg,FN,3,num_4,32,num_2,0.400123292115,,,2017_Apr_19_1803,60.0032524735,MAFE4ImagesEEG,001,200209,
AFNE01.JPG,AFNE01.JPG,AFNE01.JPG,AFNE01.JPG,AFNE01.JPG,AFNE01.JPG,,,,,,,,,,,,,1,7,17,4,,,,,,,,,,,AFNE01.jpg,AFSA20.jpg,AFNE07.jpg,AFSA17.jpg,AFNE01.jpg,FN,3,num_8,32,num_6,0.400174289622,,,2017_Apr_19_1803,60.0032524735,MAFE4ImagesEEG,001,200209,
AFNE01.JPG,AFNE01.JPG,AFNE01.JPG,AFNE01.JPG,AFNE01.JPG,AFNE01.JPG,,,,,,,,,,,,,1,8,18,8,,,,,,,,,,,AFSA03.jpg,AFNE02.jpg,AFNE17.jpg,AFSA20.jpg,AFNE17.jpg,FN,3,num_2,32,num_4,0.883451755566,,,2017_Apr_19_1803,60.0032524735,MAFE4ImagesEEG,001,200209,
AFNE01.JPG,AFNE01.JPG,AFNE01.JPG,AFNE01.JPG,AFNE01.JPG,AFNE01.JPG,,,,,,,,,,,,,1,9,19,0,,,,,,,,,,,AFSA09.jpg,AFSA05.jpg,AFNE18.jpg,AFNE20.jpg,AFSA05.jpg,FS,4,num_6,32,num_2,0.31682254051,,,2017_Apr_19_1803,60.0032524735,MAFE4ImagesEEG,001,200209,
AFNE01.JPG,AFNE01.JPG,AFNE01.JPG,AFNE01.JPG,AFNE01.JPG,AFNE01.JPG,,,,,,,,,,,,,2,0,20,4,,,,,,,,,,,AFNE11.jpg,AFNE15.jpg,AFSA01.jpg,AFSA17.jpg,AFSA17.jpg,FS,4,num_4,16,num_4,0.316786938492,,,2017_Apr_19_1803,60.0032524735,MAFE4ImagesEEG,001,200209,
AFNE01.JPG,AFNE01.JPG,AFNE01.JPG,AFNE01.JPG,AFNE01.JPG,AFNE01.JPG,,,,,,,,,,,,,2,1,21,5,,,,,,,,,,,AFNE12.jpg,AFSA03.jpg,AFSA19.jpg,AFNE18.jpg,AFSA03.jpg,FS,4,num_6,16,num_6,0.550152206735,,,2017_Apr_19_1803,60.0032524735,MAFE4ImagesEEG,001,200209,
AFNE01.JPG,AFNE01.JPG,AFNE01.JPG,AFNE01.JPG,AFNE01.JPG,AFNE01.JPG,,,,,,,,,,,,,2,2,22,7,,,,,,,,,,,AFNE09.jpg,AFNE19.jpg,AFSA18.jpg,AFSA11.jpg,AFSA18.jpg,FS,4,num_2,16,num_2,0.833443721029,,,2017_Apr_19_1803,60.0032524735,MAFE4ImagesEEG,001,200209,
AFNE01.JPG,AFNE01.JPG,AFNE01.JPG,AFNE01.JPG,AFNE01.JPG,AFNE01.JPG,,,,,,,,,,,,,2,3,23,2,,,,,,,,,,,AFNE12.jpg,AFSA03.jpg,AFNE06.jpg,AFSA09.jpg,AFNE12.jpg,FN,3,num_8,16,num_8,0.300198954443,,,2017_Apr_19_1803,60.0032524735,MAFE4ImagesEEG,001,200209,
AFNE01.JPG,AFNE01.JPG,AFNE01.JPG,AFNE01.JPG,AFNE01.JPG,AFNE01.JPG,,,,,,,,,,,,,2,4,24,3,,,,,,,,,,,AFSA10.jpg,AFSA02.jpg,AFNE03.jpg,AFNE12.jpg,AFNE03.jpg,FN,3,num_2,16,num_2,0.450128119206,,,2017_Apr_19_1803,60.0032524735,MAFE4ImagesEEG,001,200209,
AFNE01.JPG,AFNE01.JPG,AFNE01.JPG,AFNE01.JPG,AFNE01.JPG,AFNE01.JPG,,,,,,,,,,,,,2,5,25,9,,,,,,,,,,,AFSA13.jpg,AFNE06.jpg,AFSA10.jpg,AFNE09.jpg,AFSA13.jpg,FS,4,num_8,32,num_4,0.816748289421,,,2017_Apr_19_1803,60.0032524735,MAFE4ImagesEEG,001,200209,
AFNE01.JPG,AFNE01.JPG,AFNE01.JPG,AFNE01.JPG,AFNE01.JPG,AFNE01.JPG,,,,,,,,,,,,,2,6,26,6,,,,,,,,,,,AFNE06.jpg,AFSA18.jpg,AFNE10.jpg,AFSA01.jpg,AFSA18.jpg,FS,4,num_6,16,num_6,0.31683280415,,,2017_Apr_19_1803,60.0032524735,MAFE4ImagesEEG,001,200209,
AFNE01.JPG,AFNE01.JPG,AFNE01.JPG,AFNE01.JPG,AFNE01.JPG,AFNE01.JPG,,,,,,,,,,,,,2,7,27,0,,,,,,,,,,,AFSA02.jpg,AFNE14.jpg,AFSA10.jpg,AFNE12.jpg,AFSA02.jpg,FS,4,num_8,16,num_8,0.683463558758,,,2017_Apr_19_1803,60.0032524735,MAFE4ImagesEEG,001,200209,
AFNE01.JPG,AFNE01.JPG,AFNE01.JPG,AFNE01.JPG,AFNE01.JPG,AFNE01.JPG,,,,,,,,,,,,,2,8,28,8,,,,,,,,,,,AFNE08.jpg,AFNE05.jpg,AFSA01.jpg,AFSA14.jpg,AFSA01.jpg,FS,4,num_2,16,num_2,0.316786617739,,,2017_Apr_19_1803,60.0032524735,MAFE4ImagesEEG,001,200209,
AFNE01.JPG,AFNE01.JPG,AFNE01.JPG,AFNE01.JPG,AFNE01.JPG,AFNE01.JPG,,,,,,,,,,,,,2,9,29,1,,,,,,,,,,,AFSA17.jpg,AFNE01.jpg,AFSA18.jpg,AFNE16.jpg,AFNE01.jpg,FN,3,num_6,32,num_4,0.333521821012,,,2017_Apr_19_1803,60.0032524735,MAFE4ImagesEEG,001,200209,
AFNE01.JPG,AFNE01.JPG,AFNE01.JPG,AFNE01.JPG,AFNE01.JPG,AFNE01.JPG,,,,,,,,,,,,,3,0,30,9,,,,,,,,,,,AFSA03.jpg,AFNE13.jpg,AFNE16.jpg,AFSA01.jpg,AFNE13.jpg,FN,3,num_6,32,num_8,0.783470326336,,,2017_Apr_19_1803,60.0032524735,MAFE4ImagesEEG,001,200209,
AFNE01.JPG,AFNE01.JPG,AFNE01.JPG,AFNE01.JPG,AFNE01.JPG,AFNE01.JPG,,,,,,,,,,,,,3,1,31,1,,,,,,,,,,,AFNE17.jpg,AFSA13.jpg,AFNE16.jpg,AFSA02.jpg,AFNE17.jpg,FN,3,num_8,32,num_2,0.500149304018,,,2017_Apr_19_1803,60.0032524735,MAFE4ImagesEEG,001,200209,
AFNE01.JPG,AFNE01.JPG,AFNE01.JPG,AFNE01.JPG,AFNE01.JPG,AFNE01.JPG,,,,,,,,,,,,,3,2,32,0,,,,,,,,,,,AFSA13.jpg,AFNE13.jpg,AFSA17.jpg,AFNE18.jpg,AFNE18.jpg,FN,3,num_4,32,num_6,0.916742868925,,,2017_Apr_19_1803,60.0032524735,MAFE4ImagesEEG,001,200209,
AFNE01.JPG,AFNE01.JPG,AFNE01.JPG,AFNE01.JPG,AFNE01.JPG,AFNE01.JPG,,,,,,,,,,,,,3,3,33,2,,,,,,,,,,,AFNE19.jpg,AFSA19.jpg,AFSA09.jpg,AFNE20.jpg,AFSA09.jpg,FS,4,num_2,32,num_8,0.36678887895,,,2017_Apr_19_1803,60.0032524735,MAFE4ImagesEEG,001,200209,
AFNE01.JPG,AFNE01.JPG,AFNE01.JPG,AFNE01.JPG,AFNE01.JPG,AFNE01.JPG,,,,,,,,,,,,,3,4,34,8,,,,,,,,,,,AFNE01.jpg,AFSA19.jpg,AFSA08.jpg,AFNE08.jpg,AFNE01.jpg,FN,3,num_8,32,num_2,1.06682310181,,,2017_Apr_19_1803,60.0032524735,MAFE4ImagesEEG,001,200209,
AFNE01.JPG,AFNE01.JPG,AFNE01.JPG,AFNE01.JPG,AFNE01.JPG,AFNE01.JPG,,,,,,,,,,,,,3,5,35,6,,,,,,,,,,,AFSA07.jpg,AFNE07.jpg,AFSA15.jpg,AFNE06.jpg,AFSA15.jpg,FS,4,num_2,16,num_2,1.0667409926,,,2017_Apr_19_1803,60.0032524735,MAFE4ImagesEEG,001,200209,
AFNE01.JPG,AFNE01.JPG,AFNE01.JPG,AFNE01.JPG,AFNE01.JPG,AFNE01.JPG,,,,,,,,,,,,,3,6,36,7,,,,,,,,,,,AFSA14.jpg,AFNE12.jpg,AFSA16.jpg,AFNE18.jpg,AFNE18.jpg,FN,3,num_4,32,num_8,1.51671291189,,,2017_Apr_19_1803,60.0032524735,MAFE4ImagesEEG,001,200209,
AFNE01.JPG,AFNE01.JPG,AFNE01.JPG,AFNE01.JPG,AFNE01.JPG,AFNE01.JPG,,,,,,,,,,,,,3,7,37,5,,,,,,,,,,,AFSA20.jpg,AFSA08.jpg,AFNE14.jpg,AFNE03.jpg,AFSA20.jpg,FS,4,num_8,32,num_4,0.950101658236,,,2017_Apr_19_1803,60.0032524735,MAFE4ImagesEEG,001,200209,
AFNE01.JPG,AFNE01.JPG,AFNE01.JPG,AFNE01.JPG,AFNE01.JPG,AFNE01.JPG,,,,,,,,,,,,,3,8,38,4,,,,,,,,,,,AFSA13.jpg,AFNE08.jpg,AFNE02.jpg,AFSA06.jpg,AFNE08.jpg,FN,3,num_6,32,num_2,0.983459806099,,,2017_Apr_19_1803,60.0032524735,MAFE4ImagesEEG,001,200209,
AFNE01.JPG,AFNE01.JPG,AFNE01.JPG,AFNE01.JPG,AFNE01.JPG,AFNE01.JPG,,,,,,,,,,,,,3,9,39,3,,,,,,,,,,,AFNE09.jpg,AFSA12.jpg,AFSA11.jpg,AFNE20.jpg,AFNE09.jpg,FN,3,num_8,32,num_4,1.28338164199,,,2017_Apr_19_1803,60.0032524735,MAFE4ImagesEEG,001,200209,
AFNE01.JPG,AFNE01.JPG,AFNE01.JPG,AFNE01.JPG,AFNE01.JPG,AFNE01.JPG,,,,,,,,,,,,,4,0,40,0,,,,,,,,,,,AFNE03.jpg,AFSA19.jpg,AFSA10.jpg,AFNE05.jpg,AFSA10.jpg,FS,4,num_2,32,num_6,0.516814586212,,,2017_Apr_19_1803,60.0032524735,MAFE4ImagesEEG,001,200209,
AFNE01.JPG,AFNE01.JPG,AFNE01.JPG,AFNE01.JPG,AFNE01.JPG,AFNE01.JPG,,,,,,,,,,,,,4,1,41,2,,,,,,,,,,,AFNE20.jpg,AFSA08.jpg,AFSA09.jpg,AFNE01.jpg,AFNE01.jpg,FN,3,num_4,32,num_2,0.383504837868,,,2017_Apr_19_1803,60.0032524735,MAFE4ImagesEEG,001,200209,
AFNE01.JPG,AFNE01.JPG,AFNE01.JPG,AFNE01.JPG,AFNE01.JPG,AFNE01.JPG,,,,,,,,,,,,,4,2,42,1,,,,,,,,,,,AFNE04.jpg,AFSA08.jpg,AFSA17.jpg,AFNE11.jpg,AFSA08.jpg,FS,4,num_6,32,num_8,0.400143498671,,,2017_Apr_19_1803,60.0032524735,MAFE4ImagesEEG,001,200209,
AFNE01.JPG,AFNE01.JPG,AFNE01.JPG,AFNE01.JPG,AFNE01.JPG,AFNE01.JPG,,,,,,,,,,,,,4,3,43,5,,,,,,,,,,,AFSA09.jpg,AFNE17.jpg,AFSA17.jpg,AFNE15.jpg,AFNE15.jpg,FN,3,num_4,32,num_2,0.300161427993,,,2017_Apr_19_1803,60.0032524735,MAFE4ImagesEEG,001,200209,
AFNE01.JPG,AFNE01.JPG,AFNE01.JPG,AFNE01.JPG,AFNE01.JPG,AFNE01.JPG,,,,,,,,,,,,,4,4,44,8,,,,,,,,,,,AFNE18.jpg,AFSA16.jpg,AFNE19.jpg,AFSA08.jpg,AFSA16.jpg,FS,4,num_6,16,num_6,0.650231782085,,,2017_Apr_19_1803,60.0032524735,MAFE4ImagesEEG,001,200209,
AFNE01.JPG,AFNE01.JPG,AFNE01.JPG,AFNE01.JPG,AFNE01.JPG,AFNE01.JPG,,,,,,,,,,,,,4,5,45,3,,,,,,,,,,,AFNE19.jpg,AFSA04.jpg,AFNE17.jpg,AFSA07.jpg,AFNE17.jpg,FN,3,num_2,32,num_4,1.78339719784,,,2017_Apr_19_1803,60.0032524735,MAFE4ImagesEEG,001,200209,
AFNE01.JPG,AFNE01.JPG,AFNE01.JPG,AFNE01.JPG,AFNE01.JPG,AFNE01.JPG,,,,,,,,,,,,,4,6,46,4,,,,,,,,,,,AFNE20.jpg,AFSA05.jpg,AFNE05.jpg,AFSA01.jpg,AFSA05.jpg,FS,4,num_6,32,num_8,0.433503570937,,,2017_Apr_19_1803,60.0032524735,MAFE4ImagesEEG,001,200209,
AFNE01.JPG,AFNE01.JPG,AFNE01.JPG,AFNE01.JPG,AFNE01.JPG,AFNE01.JPG,,,,,,,,,,,,,4,7,47,9,,,,,,,,,,,AFSA19.jpg,AFNE04.jpg,AFNE13.jpg,AFSA01.jpg,AFNE04.jpg,FN,3,num_6,16,num_6,0.53347152911,,,2017_Apr_19_1803,60.0032524735,MAFE4ImagesEEG,001,200209,
AFNE01.JPG,AFNE01.JPG,AFNE01.JPG,AFNE01.JPG,AFNE01.JPG,AFNE01.JPG,,,,,,,,,,,,,4,8,48,7,,,,,,,,,,,AFNE05.jpg,AFSA13.jpg,AFSA01.jpg,AFNE02.jpg,AFSA13.jpg,FS,4,num_6,32,num_4,0.800159343198,,,2017_Apr_19_1803,60.0032524735,MAFE4ImagesEEG,001,200209,
AFNE01.JPG,AFNE01.JPG,AFNE01.JPG,AFNE01.JPG,AFNE01.JPG,AFNE01.JPG,,,,,,,,,,,,,4,9,49,6,,,,,,,,,,,AFNE15.jpg,AFSA18.jpg,AFNE10.jpg,AFSA13.jpg,AFNE10.jpg,FN,3,num_2,16,num_2,0.400107255147,,,2017_Apr_19_1803,60.0032524735,MAFE4ImagesEEG,001,200209,
AFNE01.JPG,AFNE01.JPG,AFNE01.JPG,AFNE01.JPG,AFNE01.JPG,AFNE01.JPG,,,,,,,,,,,,,5,0,50,1,,,,,,,,,,,AFSA11.jpg,AFNE03.jpg,AFNE11.jpg,AFSA12.jpg,AFSA11.jpg,FS,4,num_8,32,num_6,0.83342672186,,,2017_Apr_19_1803,60.0032524735,MAFE4ImagesEEG,001,200209,
AFNE01.JPG,AFNE01.JPG,AFNE01.JPG,AFNE01.JPG,AFNE01.JPG,AFNE01.JPG,,,,,,,,,,,,,5,1,51,4,,,,,,,,,,,AFSA19.jpg,AFNE12.jpg,AFSA13.jpg,AFNE08.jpg,AFNE12.jpg,FN,3,num_6,32,num_8,0.316826710128,,,2017_Apr_19_1803,60.0032524735,MAFE4ImagesEEG,001,200209,
AFNE01.JPG,AFNE01.JPG,AFNE01.JPG,AFNE01.JPG,AFNE01.JPG,AFNE01.JPG,,,,,,,,,,,,,5,2,52,3,,,,,,,,,,,AFNE02.jpg,AFNE13.jpg,AFSA05.jpg,AFSA12.jpg,AFSA05.jpg,FS,4,num_2,16,num_2,0.783421574015,,,2017_Apr_19_1803,60.0032524735,MAFE4ImagesEEG,001,200209,
AFNE01.JPG,AFNE01.JPG,AFNE01.JPG,AFNE01.JPG,AFNE01.JPG,AFNE01.JPG,,,,,,,,,,,,,5,3,53,5,,,,,,,,,,,AFNE11.jpg,AFSA07.jpg,AFNE01.jpg,AFSA12.jpg,AFNE01.jpg,FN,3,num_2,32,num_6,0.650155125448,,,2017_Apr_19_1803,60.0032524735,MAFE4ImagesEEG,001,200209,
AFNE01.JPG,AFNE01.JPG,AFNE01.JPG,AFNE01.JPG,AFNE01.JPG,AFNE01.JPG,,,,,,,,,,,,,5,4,54,6,,,,,,,,,,,AFSA08.jpg,AFNE06.jpg,AFSA11.jpg,AFNE10.jpg,AFSA11.jpg,FS,4,num_2,32,num_4,0.266774092888,,,2017_Apr_19_1803,60.0032524735,MAFE4ImagesEEG,001,200209,
AFNE01.JPG,AFNE01.JPG,AFNE01.JPG,AFNE01.JPG,AFNE01.JPG,AFNE01.JPG,,,,,,,,,,,,,5,5,55,2,,,,,,,,,,,AFSA17.jpg,AFNE05.jpg,AFSA06.jpg,AFNE03.jpg,AFSA06.jpg,FS,4,num_2,16,num_2,1.0667721043,,,2017_Apr_19_1803,60.0032524735,MAFE4ImagesEEG,001,200209,
AFNE01.JPG,AFNE01.JPG,AFNE01.JPG,AFNE01.JPG,AFNE01.JPG,AFNE01.JPG,,,,,,,,,,,,,5,6,56,7,,,,,,,,,,,AFSA02.jpg,AFNE19.jpg,AFSA19.jpg,AFNE03.jpg,AFSA19.jpg,FS,4,num_2,32,num_6,0.383475650597,,,2017_Apr_19_1803,60.0032524735,MAFE4ImagesEEG,001,200209,
AFNE01.JPG,AFNE01.JPG,AFNE01.JPG,AFNE01.JPG,AFNE01.JPG,AFNE01.JPG,,,,,,,,,,,,,5,7,57,9,,,,,,,,,,,AFSA20.jpg,AFSA04.jpg,AFNE05.jpg,AFNE02.jpg,AFSA04.jpg,FS,4,num_6,32,num_8,0.333366583276,,,2017_Apr_19_1803,60.0032524735,MAFE4ImagesEEG,001,200209,
AFNE01.JPG,AFNE01.JPG,AFNE01.JPG,AFNE01.JPG,AFNE01.JPG,AFNE01.JPG,,,,,,,,,,,,,5,8,58,8,,,,,,,,,,,AFNE08.jpg,AFSA03.jpg,AFNE07.jpg,AFSA18.jpg,AFNE07.jpg,FN,3,num_2,16,num_2,0.666751448705,,,2017_Apr_19_1803,60.0032524735,MAFE4ImagesEEG,001,200209,
AFNE01.JPG,AFNE01.JPG,AFNE01.JPG,AFNE01.JPG,AFNE01.JPG,AFNE01.JPG,,,,,,,,,,,,,5,9,59,0,,,,,,,,,,,AFSA07.jpg,AFNE02.jpg,AFNE13.jpg,AFSA18.jpg,AFSA07.jpg,FS,4,num_8,32,num_4,0.566857260535,,,2017_Apr_19_1803,60.0032524735,MAFE4ImagesEEG,001,200209,
,,,,,,,,,,,,,,,,,,,,,,,,,,,,,,,,,,,,,,,,,,,space,27.848256735,2017_Apr_19_1803,60.0032524735,MAFE4ImagesEEG,001,200209,
AFNE01.JPG,AFNE01.JPG,AFNE01.JPG,AFNE01.JPG,AFNE01.JPG,AFNE01.JPG,,,,,,,,,,,,,,,,,0,0,0,5,,,,,,,AMSA01.jpg,AMNE20.jpg,AMNE14.jpg,AMSA10.jpg,AMNE14.jpg,MN,1,num_2,16,num_2,0.666769089352,,,2017_Apr_19_1803,60.0032524735,MAFE4ImagesEEG,001,200209,
AFNE01.JPG,AFNE01.JPG,AFNE01.JPG,AFNE01.JPG,AFNE01.JPG,AFNE01.JPG,,,,,,,,,,,,,,,,,0,1,1,0,,,,,,,AMSA14.jpg,AMSA08.jpg,AMNE13.jpg,AMNE16.jpg,AMNE13.jpg,MN,1,num_2,32,num_6,0.283482354076,,,2017_Apr_19_1803,60.0032524735,MAFE4ImagesEEG,001,200209,
AFNE01.JPG,AFNE01.JPG,AFNE01.JPG,AFNE01.JPG,AFNE01.JPG,AFNE01.JPG,,,,,,,,,,,,,,,,,0,2,2,3,,,,,,,AMNE11.jpg,AMSA15.jpg,AMNE02.jpg,AMSA20.jpg,AMSA15.jpg,MS,2,num_6,32,num_4,0.316522649489,,,2017_Apr_19_1803,60.0032524735,MAFE4ImagesEEG,001,200209,
AFNE01.JPG,AFNE01.JPG,AFNE01.JPG,AFNE01.JPG,AFNE01.JPG,AFNE01.JPG,,,,,,,,,,,,,,,,,0,3,3,1,,,,,,,AMSA10.jpg,AMNE11.jpg,AMNE07.jpg,AMSA12.jpg,AMNE07.jpg,MN,1,num_2,16,num_2,0.266860371688,,,2017_Apr_19_1803,60.0032524735,MAFE4ImagesEEG,001,200209,
AFNE01.JPG,AFNE01.JPG,AFNE01.JPG,AFNE01.JPG,AFNE01.JPG,AFNE01.JPG,,,,,,,,,,,,,,,,,0,4,4,4,,,,,,,AMSA18.jpg,AMNE17.jpg,AMSA10.jpg,AMNE14.jpg,AMNE14.jpg,MN,1,num_4,32,num_8,0.51678700262,,,2017_Apr_19_1803,60.0032524735,MAFE4ImagesEEG,001,200209,
AFNE01.JPG,AFNE01.JPG,AFNE01.JPG,AFNE01.JPG,AFNE01.JPG,AFNE01.JPG,,,,,,,,,,,,,,,,,0,5,5,2,,,,,,,AMNE01.jpg,AMSA20.jpg,AMSA05.jpg,AMNE14.jpg,AMSA05.jpg,MS,2,num_2,32,num_6,0.233496450557,,,2017_Apr_19_1803,60.0032524735,MAFE4ImagesEEG,001,200209,
AFNE01.JPG,AFNE01.JPG,AFNE01.JPG,AFNE01.JPG,AFNE01.JPG,AFNE01.JPG,,,,,,,,,,,,,,,,,0,6,6,8,,,,,,,AMNE06.jpg,AMSA11.jpg,AMSA13.jpg,AMNE03.jpg,AMNE03.jpg,MN,1,num_4,32,num_2,0.0168038414267,,,2017_Apr_19_1803,60.0032524735,MAFE4ImagesEEG,001,200209,
AFNE01.JPG,AFNE01.JPG,AFNE01.JPG,AFNE01.JPG,AFNE01.JPG,AFNE01.JPG,,,,,,,,,,,,,,,,,0,7,7,6,,,,,,,AMSA15.jpg,AMNE20.jpg,AMNE04.jpg,AMSA08.jpg,AMSA15.jpg,MS,2,num_8,16,num_8,0.566818451101,,,2017_Apr_19_1803,60.0032524735,MAFE4ImagesEEG,001,200209,
AFNE01.JPG,AFNE01.JPG,AFNE01.JPG,AFNE01.JPG,AFNE01.JPG,AFNE01.JPG,,,,,,,,,,,,,,,,,0,8,8,9,,,,,,,AMSA16.jpg,AMNE08.jpg,AMNE09.jpg,AMSA19.jpg,AMNE09.jpg,MN,1,num_2,32,num_6,1.0167412973,,,2017_Apr_19_1803,60.0032524735,MAFE4ImagesEEG,001,200209,
AFNE01.JPG,AFNE01.JPG,AFNE01.JPG,AFNE01.JPG,AFNE01.JPG,AFNE01.JPG,,,,,,,,,,,,,,,,,0,9,9,7,,,,,,,AMSA05.jpg,AMNE20.jpg,AMNE04.jpg,AMSA17.jpg,AMSA05.jpg,MS,2,num_8,32,num_2,0.300177144207,,,2017_Apr_19_1803,60.0032524735,MAFE4ImagesEEG,001,200209,
AFNE01.JPG,AFNE01.JPG,AFNE01.JPG,AFNE01.JPG,AFNE01.JPG,AFNE01.JPG,,,,,,,,,,,,,,,,,1,0,10,5,,,,,,,AMSA14.jpg,AMNE10.jpg,AMSA13.jpg,AMNE17.jpg,AMSA14.jpg,MS,2,num_8,16,num_8,0.3168312005,,,2017_Apr_19_1803,60.0032524735,MAFE4ImagesEEG,001,200209,
AFNE01.JPG,AFNE01.JPG,AFNE01.JPG,AFNE01.JPG,AFNE01.JPG,AFNE01.JPG,,,,,,,,,,,,,,,,,1,1,11,3,,,,,,,AMNE02.jpg,AMSA06.jpg,AMNE14.jpg,AMSA11.jpg,AMSA11.jpg,MS,2,num_4,32,num_6,0.266817071912,,,2017_Apr_19_1803,60.0032524735,MAFE4ImagesEEG,001,200209,
AFNE01.JPG,AFNE01.JPG,AFNE01.JPG,AFNE01.JPG,AFNE01.JPG,AFNE01.JPG,,,,,,,,,,,,,,,,,1,2,12,0,,,,,,,AMSA11.jpg,AMSA12.jpg,AMNE10.jpg,AMNE04.jpg,AMSA12.jpg,MS,2,num_6,32,num_4,0.283527257532,,,2017_Apr_19_1803,60.0032524735,MAFE4ImagesEEG,001,200209,
AFNE01.JPG,AFNE01.JPG,AFNE01.JPG,AFNE01.JPG,AFNE01.JPG,AFNE01.JPG,,,,,,,,,,,,,,,,,1,3,13,4,,,,,,,AMSA05.jpg,AMNE16.jpg,AMSA11.jpg,AMNE09.jpg,AMSA05.jpg,MS,2,num_8,32,num_6,0.833458795765,,,2017_Apr_19_1803,60.0032524735,MAFE4ImagesEEG,001,200209,
AFNE01.JPG,AFNE01.JPG,AFNE01.JPG,AFNE01.JPG,AFNE01.JPG,AFNE01.JPG,,,,,,,,,,,,,,,,,1,4,14,8,,,,,,,AMSA06.jpg,AMNE13.jpg,AMSA03.jpg,AMNE11.jpg,AMSA03.jpg,MS,2,num_2,16,num_2,0.366846611985,,,2017_Apr_19_1803,60.0032524735,MAFE4ImagesEEG,001,200209,
AFNE01.JPG,AFNE01.JPG,AFNE01.JPG,AFNE01.JPG,AFNE01.JPG,AFNE01.JPG,,,,,,,,,,,,,,,,,1,5,15,2,,,,,,,AMSA09.jpg,AMNE05.jpg,AMNE11.jpg,AMSA14.jpg,AMSA09.jpg,MS,2,num_8,32,num_4,0.383493611997,,,2017_Apr_19_1803,60.0032524735,MAFE4ImagesEEG,001,200209,
AFNE01.JPG,AFNE01.JPG,AFNE01.JPG,AFNE01.JPG,AFNE01.JPG,AFNE01.JPG,,,,,,,,,,,,,,,,,1,6,16,7,,,,,,,AMSA12.jpg,AMNE17.jpg,AMNE09.jpg,AMSA18.jpg,AMNE17.jpg,MN,1,num_6,32,num_8,1.10013442175,,,2017_Apr_19_1803,60.0032524735,MAFE4ImagesEEG,001,200209,
AFNE01.JPG,AFNE01.JPG,AFNE01.JPG,AFNE01.JPG,AFNE01.JPG,AFNE01.JPG,,,,,,,,,,,,,,,,,1,7,17,6,,,,,,,AMSA03.jpg,AMSA09.jpg,AMNE20.jpg,AMNE19.jpg,AMSA09.jpg,MS,2,num_6,16,num_6,0.616803713114,,,2017_Apr_19_1803,60.0032524735,MAFE4ImagesEEG,001,200209,
AFNE01.JPG,AFNE01.JPG,AFNE01.JPG,AFNE01.JPG,AFNE01.JPG,AFNE01.JPG,,,,,,,,,,,,,,,,,1,8,18,9,,,,,,,AMSA10.jpg,AMNE06.jpg,AMSA20.jpg,AMNE13.jpg,AMSA20.jpg,MS,2,num_2,16,num_2,0.733569097938,,,2017_Apr_19_1803,60.0032524735,MAFE4ImagesEEG,001,200209,
AFNE01.JPG,AFNE01.JPG,AFNE01.JPG,AFNE01.JPG,AFNE01.JPG,AFNE01.JPG,,,,,,,,,,,,,,,,,1,9,19,1,,,,,,,AMNE16.jpg,AMNE17.jpg,AMSA02.jpg,AMSA05.jpg,AMNE16.jpg,MN,1,num_8,32,num_4,0.733503346419,,,2017_Apr_19_1803,60.0032524735,MAFE4ImagesEEG,001,200209,
AFNE01.JPG,AFNE01.JPG,AFNE01.JPG,AFNE01.JPG,AFNE01.JPG,AFNE01.JPG,,,,,,,,,,,,,,,,,2,0,20,9,,,,,,,AMNE11.jpg,AMSA15.jpg,AMSA02.jpg,AMNE16.jpg,AMNE11.jpg,MN,1,num_8,32,num_6,0.450158268708,,,2017_Apr_19_1803,60.0032524735,MAFE4ImagesEEG,001,200209,
AFNE01.JPG,AFNE01.JPG,AFNE01.JPG,AFNE01.JPG,AFNE01.JPG,AFNE01.JPG,,,,,,,,,,,,,,,,,2,1,21,8,,,,,,,AMSA20.jpg,AMSA15.jpg,AMNE04.jpg,AMNE12.jpg,AMSA20.jpg,MS,2,num_8,16,num_8,0.983406884159,,,2017_Apr_19_1803,60.0032524735,MAFE4ImagesEEG,001,200209,
AFNE01.JPG,AFNE01.JPG,AFNE01.JPG,AFNE01.JPG,AFNE01.JPG,AFNE01.JPG,,,,,,,,,,,,,,,,,2,2,22,0,,,,,,,AMNE19.jpg,AMNE10.jpg,AMSA18.jpg,AMSA14.jpg,AMSA14.jpg,MS,2,num_4,16,num_4,0.416812308948,,,2017_Apr_19_1803,60.0032524735,MAFE4ImagesEEG,001,200209,
AFNE01.JPG,AFNE01.JPG,AFNE01.JPG,AFNE01.JPG,AFNE01.JPG,AFNE01.JPG,,,,,,,,,,,,,,,,,2,3,23,7,,,,,,,AMSA01.jpg,AMNE14.jpg,AMSA14.jpg,AMNE11.jpg,AMNE11.jpg,MN,1,num_4,32,num_2,0.766785479122,,,2017_Apr_19_1803,60.0032524735,MAFE4ImagesEEG,001,200209,
AFNE01.JPG,AFNE01.JPG,AFNE01.JPG,AFNE01.JPG,AFNE01.JPG,AFNE01.JPG,,,,,,,,,,,,,,,,,2,4,24,4,,,,,,,AMSA12.jpg,AMSA10.jpg,AMNE14.jpg,AMNE06.jpg,AMSA12.jpg,MS,2,num_8,16,num_8,0.600157033856,,,2017_Apr_19_1803,60.0032524735,MAFE4ImagesEEG,001,200209,
AFNE01.JPG,AFNE01.JPG,AFNE01.JPG,AFNE01.JPG,AFNE01.JPG,AFNE01.JPG,,,,,,,,,,,,,,,,,2,5,25,6,,,,,,,AMNE11.jpg,AMSA03.jpg,AMSA04.jpg,AMNE07.jpg,AMSA03.jpg,MS,2,num_6,32,num_4,0.733450103755,,,2017_Apr_19_1803,60.0032524735,MAFE4ImagesEEG,001,200209,
AFNE01.JPG,AFNE01.JPG,AFNE01.JPG,AFNE01.JPG,AFNE01.JPG,AFNE01.JPG,,,,,,,,,,,,,,,,,2,6,26,5,,,,,,,AMSA09.jpg,AMSA04.jpg,AMNE14.jpg,AMNE16.jpg,AMSA09.jpg,MS,2,num_8,32,num_2,1.36670837345,,,2017_Apr_19_1803,60.0032524735,MAFE4ImagesEEG,001,200209,
AFNE01.JPG,AFNE01.JPG,AFNE01.JPG,AFNE01.JPG,AFNE01.JPG,AFNE01.JPG,,,,,,,,,,,,,,,,,2,7,27,2,,,,,,,AMNE02.jpg,AMSA07.jpg,AMNE12.jpg,AMSA10.jpg,AMNE02.jpg,MN,1,num_8,16,num_8,0.416795630503,,,2017_Apr_19_1803,60.0032524735,MAFE4ImagesEEG,001,200209,
AFNE01.JPG,AFNE01.JPG,AFNE01.JPG,AFNE01.JPG,AFNE01.JPG,AFNE01.JPG,,,,,,,,,,,,,,,,,2,8,28,1,,,,,,,AMSA16.jpg,AMNE09.jpg,AMNE04.jpg,AMSA11.jpg,AMSA11.jpg,MS,2,num_4,16,num_4,0.516696874955,,,2017_Apr_19_1803,60.0032524735,MAFE4ImagesEEG,001,200209,
AFNE01.JPG,AFNE01.JPG,AFNE01.JPG,AFNE01.JPG,AFNE01.JPG,AFNE01.JPG,,,,,,,,,,,,,,,,,2,9,29,3,,,,,,,AMNE13.jpg,AMSA18.jpg,AMNE10.jpg,AMSA01.jpg,AMNE10.jpg,MN,1,num_2,32,num_6,0.85009938103,,,2017_Apr_19_1803,60.0032524735,MAFE4ImagesEEG,001,200209,
AFNE01.JPG,AFNE01.JPG,AFNE01.JPG,AFNE01.JPG,AFNE01.JPG,AFNE01.JPG,,,,,,,,,,,,,,,,,3,0,30,7,,,,,,,AMNE15.jpg,AMSA15.jpg,AMSA14.jpg,AMNE06.jpg,AMSA14.jpg,MS,2,num_2,16,num_2,0.400401052146,,,2017_Apr_19_1803,60.0032524735,MAFE4ImagesEEG,001,200209,
AFNE01.JPG,AFNE01.JPG,AFNE01.JPG,AFNE01.JPG,AFNE01.JPG,AFNE01.JPG,,,,,,,,,,,,,,,,,3,1,31,6,,,,,,,AMNE12.jpg,AMSA16.jpg,AMSA19.jpg,AMNE01.jpg,AMNE12.jpg,MN,1,num_8,16,num_8,0.583456470427,,,2017_Apr_19_1803,60.0032524735,MAFE4ImagesEEG,001,200209,
AFNE01.JPG,AFNE01.JPG,AFNE01.JPG,AFNE01.JPG,AFNE01.JPG,AFNE01.JPG,,,,,,,,,,,,,,,,,3,2,32,1,,,,,,,AMNE12.jpg,AMSA01.jpg,AMSA17.jpg,AMNE20.jpg,AMSA01.jpg,MS,2,num_6,32,num_4,0.816732893931,,,2017_Apr_19_1803,60.0032524735,MAFE4ImagesEEG,001,200209,
AFNE01.JPG,AFNE01.JPG,AFNE01.JPG,AFNE01.JPG,AFNE01.JPG,AFNE01.JPG,,,,,,,,,,,,,,,,,3,3,33,4,,,,,,,AMSA19.jpg,AMNE10.jpg,AMNE04.jpg,AMSA03.jpg,AMNE10.jpg,MN,1,num_6,32,num_2,3.54989689842,,,2017_Apr_19_1803,60.0032524735,MAFE4ImagesEEG,001,200209,
AFNE01.JPG,AFNE01.JPG,AFNE01.JPG,AFNE01.JPG,AFNE01.JPG,AFNE01.JPG,,,,,,,,,,,,,,,,,3,4,34,0,,,,,,,AMNE18.jpg,AMSA03.jpg,AMSA02.jpg,AMNE03.jpg,AMSA03.jpg,MS,2,num_6,16,num_6,1.85004806277,,,2017_Apr_19_1803,60.0032524735,MAFE4ImagesEEG,001,200209,
AFNE01.JPG,AFNE01.JPG,AFNE01.JPG,AFNE01.JPG,AFNE01.JPG,AFNE01.JPG,,,,,,,,,,,,,,,,,3,5,35,3,,,,,,,AMNE19.jpg,AMNE13.jpg,AMSA20.jpg,AMSA04.jpg,AMSA20.jpg,MS,2,num_2,16,num_2,0.350138030044,,,2017_Apr_19_1803,60.0032524735,MAFE4ImagesEEG,001,200209,
AFNE01.JPG,AFNE01.JPG,AFNE01.JPG,AFNE01.JPG,AFNE01.JPG,AFNE01.JPG,,,,,,,,,,,,,,,,,3,6,36,9,,,,,,,AMSA08.jpg,AMNE18.jpg,AMNE09.jpg,AMSA18.jpg,AMSA18.jpg,MS,2,num_4,32,num_8,0.266797506833,,,2017_Apr_19_1803,60.0032524735,MAFE4ImagesEEG,001,200209,
AFNE01.JPG,AFNE01.JPG,AFNE01.JPG,AFNE01.JPG,AFNE01.JPG,AFNE01.JPG,,,,,,,,,,,,,,,,,3,7,37,2,,,,,,,AMNE03.jpg,AMSA20.jpg,AMSA18.jpg,AMNE14.jpg,AMSA18.jpg,MS,2,num_2,16,num_2,0.600137468777,,,2017_Apr_19_1803,60.0032524735,MAFE4ImagesEEG,001,200209,
AFNE01.JPG,AFNE01.JPG,AFNE01.JPG,AFNE01.JPG,AFNE01.JPG,AFNE01.JPG,,,,,,,,,,,,,,,,,3,8,38,8,,,,,,,AMNE20.jpg,AMSA19.jpg,AMNE06.jpg,AMSA14.jpg,AMNE06.jpg,MN,1,num_2,32,num_8,2.68319381715,,,2017_Apr_19_1803,60.0032524735,MAFE4ImagesEEG,001,200209,
AFNE01.JPG,AFNE01.JPG,AFNE01.JPG,AFNE01.JPG,AFNE01.JPG,AFNE01.JPG,,,,,,,,,,,,,,,,,3,9,39,5,,,,,,,AMNE07.jpg,AMNE06.jpg,AMSA17.jpg,AMSA05.jpg,AMNE06.jpg,MN,1,num_6,16,num_6,0.600147411693,,,2017_Apr_19_1803,60.0032524735,MAFE4ImagesEEG,001,200209,
AFNE01.JPG,AFNE01.JPG,AFNE01.JPG,AFNE01.JPG,AFNE01.JPG,AFNE01.JPG,,,,,,,,,,,,,,,,,4,0,40,3,,,,,,,AMSA19.jpg,AMNE06.jpg,AMSA04.jpg,AMNE03.jpg,AMSA04.jpg,MS,2,num_2,16,num_2,0.783739426435,,,2017_Apr_19_1803,60.0032524735,MAFE4ImagesEEG,001,200209,
AFNE01.JPG,AFNE01.JPG,AFNE01.JPG,AFNE01.JPG,AFNE01.JPG,AFNE01.JPG,,,,,,,,,,,,,,,,,4,1,41,5,,,,,,,AMNE02.jpg,AMNE08.jpg,AMSA12.jpg,AMSA04.jpg,AMNE08.jpg,MN,1,num_6,32,num_8,0.400277246867,,,2017_Apr_19_1803,60.0032524735,MAFE4ImagesEEG,001,200209,
AFNE01.JPG,AFNE01.JPG,AFNE01.JPG,AFNE01.JPG,AFNE01.JPG,AFNE01.JPG,,,,,,,,,,,,,,,,,4,2,42,0,,,,,,,AMNE09.jpg,AMNE20.jpg,AMSA13.jpg,AMSA06.jpg,AMSA13.jpg,MS,2,num_2,32,num_4,0.51677770121,,,2017_Apr_19_1803,60.0032524735,MAFE4ImagesEEG,001,200209,
AFNE01.JPG,AFNE01.JPG,AFNE01.JPG,AFNE01.JPG,AFNE01.JPG,AFNE01.JPG,,,,,,,,,,,,,,,,,4,3,43,4,,,,,,,AMNE17.jpg,AMNE01.jpg,AMSA01.jpg,AMSA12.jpg,AMNE01.jpg,MN,1,num_6,16,num_6,0.466752026026,,,2017_Apr_19_1803,60.0032524735,MAFE4ImagesEEG,001,200209,
AFNE01.JPG,AFNE01.JPG,AFNE01.JPG,AFNE01.JPG,AFNE01.JPG,AFNE01.JPG,,,,,,,,,,,,,,,,,4,4,44,8,,,,,,,AMNE07.jpg,AMSA19.jpg,AMNE16.jpg,AMSA11.jpg,AMNE16.jpg,MN,1,num_2,32,num_4,1.2167400785,,,2017_Apr_19_1803,60.0032524735,MAFE4ImagesEEG,001,200209,
AFNE01.JPG,AFNE01.JPG,AFNE01.JPG,AFNE01.JPG,AFNE01.JPG,AFNE01.JPG,,,,,,,,,,,,,,,,,4,5,45,9,,,,,,,AMSA13.jpg,AMNE20.jpg,AMSA04.jpg,AMNE08.jpg,AMSA13.jpg,MS,2,num_8,32,num_6,0.800131438882,,,2017_Apr_19_1803,60.0032524735,MAFE4ImagesEEG,001,200209,
AFNE01.JPG,AFNE01.JPG,AFNE01.JPG,AFNE01.JPG,AFNE01.JPG,AFNE01.JPG,,,,,,,,,,,,,,,,,4,6,46,7,,,,,,,AMNE09.jpg,AMSA12.jpg,AMSA13.jpg,AMNE07.jpg,AMSA13.jpg,MS,2,num_2,32,num_8,0.583480205096,,,2017_Apr_19_1803,60.0032524735,MAFE4ImagesEEG,001,200209,
AFNE01.JPG,AFNE01.JPG,AFNE01.JPG,AFNE01.JPG,AFNE01.JPG,AFNE01.JPG,,,,,,,,,,,,,,,,,4,7,47,6,,,,,,,AMNE15.jpg,AMSA05.jpg,AMSA13.jpg,AMNE06.jpg,AMSA13.jpg,MS,2,num_2,16,num_2,0.300170408678,,,2017_Apr_19_1803,60.0032524735,MAFE4ImagesEEG,001,200209,
AFNE01.JPG,AFNE01.JPG,AFNE01.JPG,AFNE01.JPG,AFNE01.JPG,AFNE01.JPG,,,,,,,,,,,,,,,,,4,8,48,1,,,,,,,AMNE03.jpg,AMNE05.jpg,AMSA06.jpg,AMSA08.jpg,AMNE05.jpg,MN,1,num_6,16,num_6,0.666631813016,,,2017_Apr_19_1803,60.0032524735,MAFE4ImagesEEG,001,200209,
AFNE01.JPG,AFNE01.JPG,AFNE01.JPG,AFNE01.JPG,AFNE01.JPG,AFNE01.JPG,,,,,,,,,,,,,,,,,4,9,49,2,,,,,,,AMNE08.jpg,AMSA14.jpg,AMNE19.jpg,AMSA04.jpg,AMSA04.jpg,MS,2,num_4,16,num_4,0.400159535609,,,2017_Apr_19_1803,60.0032524735,MAFE4ImagesEEG,001,200209,
AFNE01.JPG,AFNE01.JPG,AFNE01.JPG,AFNE01.JPG,AFNE01.JPG,AFNE01.JPG,,,,,,,,,,,,,,,,,5,0,50,3,,,,,,,AMNE10.jpg,AMNE06.jpg,AMSA19.jpg,AMSA18.jpg,AMNE10.jpg,MN,1,num_8,16,num_8,0.566834808764,,,2017_Apr_19_1803,60.0032524735,MAFE4ImagesEEG,001,200209,
AFNE01.JPG,AFNE01.JPG,AFNE01.JPG,AFNE01.JPG,AFNE01.JPG,AFNE01.JPG,,,,,,,,,,,,,,,,,5,1,51,2,,,,,,,AMSA03.jpg,AMNE03.jpg,AMSA11.jpg,AMNE01.jpg,AMSA03.jpg,MS,2,num_8,32,num_2,0.483400629746,,,2017_Apr_19_1803,60.0032524735,MAFE4ImagesEEG,001,200209,
AFNE01.JPG,AFNE01.JPG,AFNE01.JPG,AFNE01.JPG,AFNE01.JPG,AFNE01.JPG,,,,,,,,,,,,,,,,,5,2,52,6,,,,,,,AMNE10.jpg,AMNE05.jpg,AMSA01.jpg,AMSA15.jpg,AMNE10.jpg,MN,1,num_8,32,num_4,0.566832563636,,,2017_Apr_19_1803,60.0032524735,MAFE4ImagesEEG,001,200209,
AFNE01.JPG,AFNE01.JPG,AFNE01.JPG,AFNE01.JPG,AFNE01.JPG,AFNE01.JPG,,,,,,,,,,,,,,,,,5,3,53,5,,,,,,,AMNE05.jpg,AMNE10.jpg,AMSA13.jpg,AMSA05.jpg,AMSA13.jpg,MS,2,num_2,32,num_8,0.666823294247,,,2017_Apr_19_1803,60.0032524735,MAFE4ImagesEEG,001,200209,
AFNE01.JPG,AFNE01.JPG,AFNE01.JPG,AFNE01.JPG,AFNE01.JPG,AFNE01.JPG,,,,,,,,,,,,,,,,,5,4,54,7,,,,,,,AMNE05.jpg,AMNE07.jpg,AMSA11.jpg,AMSA12.jpg,AMSA11.jpg,MS,2,num_2,16,num_2,0.833496642997,,,2017_Apr_19_1803,60.0032524735,MAFE4ImagesEEG,001,200209,
AFNE01.JPG,AFNE01.JPG,AFNE01.JPG,AFNE01.JPG,AFNE01.JPG,AFNE01.JPG,,,,,,,,,,,,,,,,,5,5,55,8,,,,,,,AMSA10.jpg,AMSA04.jpg,AMNE20.jpg,AMNE02.jpg,AMNE20.jpg,MN,1,num_2,32,num_8,0.85005319459,,,2017_Apr_19_1803,60.0032524735,MAFE4ImagesEEG,001,200209,
AFNE01.JPG,AFNE01.JPG,AFNE01.JPG,AFNE01.JPG,AFNE01.JPG,AFNE01.JPG,,,,,,,,,,,,,,,,,5,6,56,1,,,,,,,AMNE13.jpg,AMSA06.jpg,AMSA05.jpg,AMNE14.jpg,AMNE13.jpg,MN,1,num_8,32,num_4,1.03341139056,,,2017_Apr_19_1803,60.0032524735,MAFE4ImagesEEG,001,200209,
AFNE01.JPG,AFNE01.JPG,AFNE01.JPG,AFNE01.JPG,AFNE01.JPG,AFNE01.JPG,,,,,,,,,,,,,,,,,5,7,57,4,,,,,,,AMNE02.jpg,AMNE07.jpg,AMSA20.jpg,AMSA05.jpg,AMNE07.jpg,MN,1,num_6,16,num_6,0.616774205118,,,2017_Apr_19_1803,60.0032524735,MAFE4ImagesEEG,001,200209,
AFNE01.JPG,AFNE01.JPG,AFNE01.JPG,AFNE01.JPG,AFNE01.JPG,AFNE01.JPG,,,,,,,,,,,,,,,,,5,8,58,9,,,,,,,AMSA16.jpg,AMNE14.jpg,AMNE03.jpg,AMSA15.jpg,AMNE03.jpg,MN,1,num_2,32,num_4,0.666748562042,,,2017_Apr_19_1803,60.0032524735,MAFE4ImagesEEG,001,200209,
AFNE01.JPG,AFNE01.JPG,AFNE01.JPG,AFNE01.JPG,AFNE01.JPG,AFNE01.JPG,,,,,,,,,,,,,,,,,5,9,59,0,,,,,,,AMNE18.jpg,AMSA04.jpg,AMNE05.jpg,AMSA11.jpg,AMSA04.jpg,MS,2,num_6,16,num_6,0.883461698453,,,2017_Apr_19_1803,60.0032524735,MAFE4ImagesEEG,001,200209,
,,,,,,,,,,,,,,,,,,,,,,,,,,,,,,,,,,,,,,,,,,,space,19.8816065436,2017_Apr_19_1803,60.0032524735,MAFE4ImagesEEG,001,200209,
AFNE01.JPG,AFNE01.JPG,AFNE01.JPG,AFNE01.JPG,AFNE01.JPG,AFNE01.JPG,,,,,,,,,,,,,,,,,,,,,0,0,0,0,,,AFSA01.jpg,AFNE18.jpg,AFNE01.jpg,AFSA06.jpg,AFSA01.jpg,FS,4,num_8,32,num_4,0.400121688406,,,2017_Apr_19_1803,60.0032524735,MAFE4ImagesEEG,001,200209,
AFNE01.JPG,AFNE01.JPG,AFNE01.JPG,AFNE01.JPG,AFNE01.JPG,AFNE01.JPG,,,,,,,,,,,,,,,,,,,,,0,1,1,8,,,AFSA05.jpg,AFNE14.jpg,AFSA17.jpg,AFNE13.jpg,AFNE13.jpg,FN,3,num_4,32,num_6,0.266824448889,,,2017_Apr_19_1803,60.0032524735,MAFE4ImagesEEG,001,200209,
AFNE01.JPG,AFNE01.JPG,AFNE01.JPG,AFNE01.JPG,AFNE01.JPG,AFNE01.JPG,,,,,,,,,,,,,,,,,,,,,0,2,2,3,,,AFSA14.jpg,AFNE08.jpg,AFNE20.jpg,AFSA11.jpg,AFSA11.jpg,FS,4,num_4,32,num_2,0.583410283987,,,2017_Apr_19_1803,60.0032524735,MAFE4ImagesEEG,001,200209,
AFNE01.JPG,AFNE01.JPG,AFNE01.JPG,AFNE01.JPG,AFNE01.JPG,AFNE01.JPG,,,,,,,,,,,,,,,,,,,,,0,3,3,9,,,AFSA14.jpg,AFSA18.jpg,AFNE06.jpg,AFNE13.jpg,AFSA14.jpg,FS,4,num_8,32,num_2,0.633491126267,,,2017_Apr_19_1803,60.0032524735,MAFE4ImagesEEG,001,200209,
AFNE01.JPG,AFNE01.JPG,AFNE01.JPG,AFNE01.JPG,AFNE01.JPG,AFNE01.JPG,,,,,,,,,,,,,,,,,,,,,0,4,4,6,,,AFNE20.jpg,AFSA17.jpg,AFNE08.jpg,AFSA06.jpg,AFSA17.jpg,FS,4,num_6,16,num_6,0.633444298379,,,2017_Apr_19_1803,60.0032524735,MAFE4ImagesEEG,001,200209,
AFNE01.JPG,AFNE01.JPG,AFNE01.JPG,AFNE01.JPG,AFNE01.JPG,AFNE01.JPG,,,,,,,,,,,,,,,,,,,,,0,5,5,7,,,AFNE19.jpg,AFSA16.jpg,AFNE16.jpg,AFSA07.jpg,AFSA16.jpg,FS,4,num_6,32,num_4,0.61690602891,,,2017_Apr_19_1803,60.0032524735,MAFE4ImagesEEG,001,200209,
AFNE01.JPG,AFNE01.JPG,AFNE01.JPG,AFNE01.JPG,AFNE01.JPG,AFNE01.JPG,,,,,,,,,,,,,,,,,,,,,0,6,6,4,,,AFSA19.jpg,AFNE11.jpg,AFSA04.jpg,AFNE06.jpg,AFSA19.jpg,FS,4,num_8,16,num_8,0.500142568519,,,2017_Apr_19_1803,60.0032524735,MAFE4ImagesEEG,001,200209,
AFNE01.JPG,AFNE01.JPG,AFNE01.JPG,AFNE01.JPG,AFNE01.JPG,AFNE01.JPG,,,,,,,,,,,,,,,,,,,,,0,7,7,5,,,AFSA18.jpg,AFSA15.jpg,AFNE14.jpg,AFNE05.jpg,AFSA15.jpg,FS,4,num_6,16,num_6,1.38339642805,,,2017_Apr_19_1803,60.0032524735,MAFE4ImagesEEG,001,200209,
AFNE01.JPG,AFNE01.JPG,AFNE01.JPG,AFNE01.JPG,AFNE01.JPG,AFNE01.JPG,,,,,,,,,,,,,,,,,,,,,0,8,8,2,,,AFSA02.jpg,AFSA01.jpg,AFNE10.jpg,AFNE07.jpg,AFNE10.jpg,FN,3,num_2,32,num_4,0.96681986234,,,2017_Apr_19_1803,60.0032524735,MAFE4ImagesEEG,001,200209,
AFNE01.JPG,AFNE01.JPG,AFNE01.JPG,AFNE01.JPG,AFNE01.JPG,AFNE01.JPG,,,,,,,,,,,,,,,,,,,,,0,9,9,1,,,AFSA13.jpg,AFSA15.jpg,AFNE05.jpg,AFNE20.jpg,AFSA13.jpg,FS,4,num_8,32,num_2,0.517531438032,,,2017_Apr_19_1803,60.0032524735,MAFE4ImagesEEG,001,200209,
AFNE01.JPG,AFNE01.JPG,AFNE01.JPG,AFNE01.JPG,AFNE01.JPG,AFNE01.JPG,,,,,,,,,,,,,,,,,,,,,1,0,10,2,,,AFSA11.jpg,AFNE14.jpg,AFSA01.jpg,AFNE01.jpg,AFNE01.jpg,FN,3,num_4,32,num_8,0.666967626865,,,2017_Apr_19_1803,60.0032524735,MAFE4ImagesEEG,001,200209,
AFNE01.JPG,AFNE01.JPG,AFNE01.JPG,AFNE01.JPG,AFNE01.JPG,AFNE01.JPG,,,,,,,,,,,,,,,,,,,,,1,1,11,1,,,AFSA02.jpg,AFSA14.jpg,AFNE18.jpg,AFNE01.jpg,AFSA02.jpg,FS,4,num_8,32,num_6,0.566771943937,,,2017_Apr_19_1803,60.0032524735,MAFE4ImagesEEG,001,200209,
AFNE01.JPG,AFNE01.JPG,AFNE01.JPG,AFNE01.JPG,AFNE01.JPG,AFNE01.JPG,,,,,,,,,,,,,,,,,,,,,1,2,12,6,,,AFSA06.jpg,AFNE12.jpg,AFNE17.jpg,AFSA09.jpg,AFNE12.jpg,FN,3,num_6,32,num_2,0.333507708478,,,2017_Apr_19_1803,60.0032524735,MAFE4ImagesEEG,001,200209,
AFNE01.JPG,AFNE01.JPG,AFNE01.JPG,AFNE01.JPG,AFNE01.JPG,AFNE01.JPG,,,,,,,,,,,,,,,,,,,,,1,3,13,5,,,AFNE17.jpg,AFSA07.jpg,AFSA15.jpg,AFNE15.jpg,AFNE15.jpg,FN,3,num_4,16,num_4,0.500122361962,,,2017_Apr_19_1803,60.0032524735,MAFE4ImagesEEG,001,200209,
AFNE01.JPG,AFNE01.JPG,AFNE01.JPG,AFNE01.JPG,AFNE01.JPG,AFNE01.JPG,,,,,,,,,,,,,,,,,,,,,1,4,14,4,,,AFSA12.jpg,AFSA13.jpg,AFNE14.jpg,AFNE06.jpg,AFSA13.jpg,FS,4,num_6,32,num_8,0.666857934091,,,2017_Apr_19_1803,60.0032524735,MAFE4ImagesEEG,001,200209,
AFNE01.JPG,AFNE01.JPG,AFNE01.JPG,AFNE01.JPG,AFNE01.JPG,AFNE01.JPG,,,,,,,,,,,,,,,,,,,,,1,5,15,3,,,AFNE05.jpg,AFSA15.jpg,AFNE20.jpg,AFSA01.jpg,AFSA15.jpg,FS,4,num_6,32,num_2,0.56675590697,,,2017_Apr_19_1803,60.0032524735,MAFE4ImagesEEG,001,200209,
AFNE01.JPG,AFNE01.JPG,AFNE01.JPG,AFNE01.JPG,AFNE01.JPG,AFNE01.JPG,,,,,,,,,,,,,,,,,,,,,1,6,16,8,,,AFSA01.jpg,AFNE18.jpg,AFNE08.jpg,AFSA10.jpg,AFSA10.jpg,FS,4,num_4,32,num_6,0.450001427293,,,2017_Apr_19_1803,60.0032524735,MAFE4ImagesEEG,001,200209,
AFNE01.JPG,AFNE01.JPG,AFNE01.JPG,AFNE01.JPG,AFNE01.JPG,AFNE01.JPG,,,,,,,,,,,,,,,,,,,,,1,7,17,0,,,AFNE09.jpg,AFNE08.jpg,AFSA06.jpg,AFSA13.jpg,AFNE09.jpg,FN,3,num_8,32,num_4,0.516755570192,,,2017_Apr_19_1803,60.0032524735,MAFE4ImagesEEG,001,200209,
AFNE01.JPG,AFNE01.JPG,AFNE01.JPG,AFNE01.JPG,AFNE01.JPG,AFNE01.JPG,,,,,,,,,,,,,,,,,,,,,1,8,18,7,,,AFSA06.jpg,AFNE02.jpg,AFSA19.jpg,AFNE12.jpg,AFNE12.jpg,FN,3,num_4,32,num_8,0.333477559005,,,2017_Apr_19_1803,60.0032524735,MAFE4ImagesEEG,001,200209,
AFNE01.JPG,AFNE01.JPG,AFNE01.JPG,AFNE01.JPG,AFNE01.JPG,AFNE01.JPG,,,,,,,,,,,,,,,,,,,,,1,9,19,9,,,AFNE15.jpg,AFSA20.jpg,AFNE17.jpg,AFSA07.jpg,AFSA07.jpg,FS,4,num_4,32,num_6,0.583457432629,,,2017_Apr_19_1803,60.0032524735,MAFE4ImagesEEG,001,200209,
AFNE01.JPG,AFNE01.JPG,AFNE01.JPG,AFNE01.JPG,AFNE01.JPG,AFNE01.JPG,,,,,,,,,,,,,,,,,,,,,2,0,20,6,,,AFSA20.jpg,AFSA12.jpg,AFNE14.jpg,AFNE13.jpg,AFSA12.jpg,FS,4,num_6,32,num_8,0.733390767011,,,2017_Apr_19_1803,60.0032524735,MAFE4ImagesEEG,001,200209,
AFNE01.JPG,AFNE01.JPG,AFNE01.JPG,AFNE01.JPG,AFNE01.JPG,AFNE01.JPG,,,,,,,,,,,,,,,,,,,,,2,1,21,3,,,AFNE03.jpg,AFNE04.jpg,AFSA19.jpg,AFSA08.jpg,AFSA19.jpg,FS,4,num_2,32,num_4,1.316734658,,,2017_Apr_19_1803,60.0032524735,MAFE4ImagesEEG,001,200209,
AFNE01.JPG,AFNE01.JPG,AFNE01.JPG,AFNE01.JPG,AFNE01.JPG,AFNE01.JPG,,,,,,,,,,,,,,,,,,,,,2,2,22,8,,,AFNE05.jpg,AFSA16.jpg,AFNE20.jpg,AFSA06.jpg,AFSA06.jpg,FS,4,num_4,32,num_6,0.783515871299,,,2017_Apr_19_1803,60.0032524735,MAFE4ImagesEEG,001,200209,
AFNE01.JPG,AFNE01.JPG,AFNE01.JPG,AFNE01.JPG,AFNE01.JPG,AFNE01.JPG,,,,,,,,,,,,,,,,,,,,,2,3,23,5,,,AFNE06.jpg,AFSA01.jpg,AFSA12.jpg,AFNE15.jpg,AFNE15.jpg,FN,3,num_4,16,num_4,0.700161556277,,,2017_Apr_19_1803,60.0032524735,MAFE4ImagesEEG,001,200209,
AFNE01.JPG,AFNE01.JPG,AFNE01.JPG,AFNE01.JPG,AFNE01.JPG,AFNE01.JPG,,,,,,,,,,,,,,,,,,,,,2,4,24,1,,,AFSA10.jpg,AFSA02.jpg,AFNE20.jpg,AFNE12.jpg,AFNE20.jpg,FN,3,num_2,32,num_8,0.816762081202,,,2017_Apr_19_1803,60.0032524735,MAFE4ImagesEEG,001,200209,
AFNE01.JPG,AFNE01.JPG,AFNE01.JPG,AFNE01.JPG,AFNE01.JPG,AFNE01.JPG,,,,,,,,,,,,,,,,,,,,,2,5,25,9,,,AFNE01.jpg,AFSA13.jpg,AFNE17.jpg,AFSA18.jpg,AFSA13.jpg,FS,4,num_6,32,num_8,0.833437947731,,,2017_Apr_19_1803,60.0032524735,MAFE4ImagesEEG,001,200209,
AFNE01.JPG,AFNE01.JPG,AFNE01.JPG,AFNE01.JPG,AFNE01.JPG,AFNE01.JPG,,,,,,,,,,,,,,,,,,,,,2,6,26,0,,,AFNE15.jpg,AFSA05.jpg,AFNE11.jpg,AFSA04.jpg,AFNE15.jpg,FN,3,num_8,32,num_2,0.866723608546,,,2017_Apr_19_1803,60.0032524735,MAFE4ImagesEEG,001,200209,
AFNE01.JPG,AFNE01.JPG,AFNE01.JPG,AFNE01.JPG,AFNE01.JPG,AFNE01.JPG,,,,,,,,,,,,,,,,,,,,,2,7,27,2,,,AFNE08.jpg,AFSA16.jpg,AFSA02.jpg,AFNE02.jpg,AFNE08.jpg,FN,3,num_8,32,num_6,0.516823887621,,,2017_Apr_19_1803,60.0032524735,MAFE4ImagesEEG,001,200209,
AFNE01.JPG,AFNE01.JPG,AFNE01.JPG,AFNE01.JPG,AFNE01.JPG,AFNE01.JPG,,,,,,,,,,,,,,,,,,,,,2,8,28,4,,,AFNE17.jpg,AFSA11.jpg,AFNE18.jpg,AFSA17.jpg,AFSA17.jpg,FS,4,num_4,32,num_8,0.699994130468,,,2017_Apr_19_1803,60.0032524735,MAFE4ImagesEEG,001,200209,
AFNE01.JPG,AFNE01.JPG,AFNE01.JPG,AFNE01.JPG,AFNE01.JPG,AFNE01.JPG,,,,,,,,,,,,,,,,,,,,,2,9,29,7,,,AFNE08.jpg,AFSA19.jpg,AFSA10.jpg,AFNE17.jpg,AFSA19.jpg,FS,4,num_6,32,num_4,0.266821882979,,,2017_Apr_19_1803,60.0032524735,MAFE4ImagesEEG,001,200209,
AFNE01.JPG,AFNE01.JPG,AFNE01.JPG,AFNE01.JPG,AFNE01.JPG,AFNE01.JPG,,,,,,,,,,,,,,,,,,,,,3,0,30,4,,,AFNE07.jpg,AFSA15.jpg,AFSA16.jpg,AFNE02.jpg,AFNE02.jpg,FN,3,num_4,32,num_6,0.366827046906,,,2017_Apr_19_1803,60.0032524735,MAFE4ImagesEEG,001,200209,
AFNE01.JPG,AFNE01.JPG,AFNE01.JPG,AFNE01.JPG,AFNE01.JPG,AFNE01.JPG,,,,,,,,,,,,,,,,,,,,,3,1,31,8,,,AFSA13.jpg,AFNE19.jpg,AFNE08.jpg,AFSA02.jpg,AFSA13.jpg,FS,4,num_8,32,num_4,1.99987491177,,,2017_Apr_19_1803,60.0032524735,MAFE4ImagesEEG,001,200209,
AFNE01.JPG,AFNE01.JPG,AFNE01.JPG,AFNE01.JPG,AFNE01.JPG,AFNE01.JPG,,,,,,,,,,,,,,,,,,,,,3,2,32,6,,,AFSA07.jpg,AFNE02.jpg,AFSA18.jpg,AFNE03.jpg,AFSA18.jpg,FS,4,num_2,16,num_2,0.933429961326,,,2017_Apr_19_1803,60.0032524735,MAFE4ImagesEEG,001,200209,
AFNE01.JPG,AFNE01.JPG,AFNE01.JPG,AFNE01.JPG,AFNE01.JPG,AFNE01.JPG,,,,,,,,,,,,,,,,,,,,,3,3,33,3,,,AFSA17.jpg,AFNE15.jpg,AFNE12.jpg,AFSA11.jpg,AFNE12.jpg,FN,3,num_2,32,num_6,0.516794379626,,,2017_Apr_19_1803,60.0032524735,MAFE4ImagesEEG,001,200209,
AFNE01.JPG,AFNE01.JPG,AFNE01.JPG,AFNE01.JPG,AFNE01.JPG,AFNE01.JPG,,,,,,,,,,,,,,,,,,,,,3,4,34,7,,,AFSA08.jpg,AFNE06.jpg,AFNE20.jpg,AFSA20.jpg,AFNE06.jpg,FN,3,num_6,32,num_4,0.683463558729,,,2017_Apr_19_1803,60.0032524735,MAFE4ImagesEEG,001,200209,
AFNE01.JPG,AFNE01.JPG,AFNE01.JPG,AFNE01.JPG,AFNE01.JPG,AFNE01.JPG,,,,,,,,,,,,,,,,,,,,,3,5,35,1,,,AFNE02.jpg,AFSA09.jpg,AFSA10.jpg,AFNE01.jpg,AFNE02.jpg,FN,3,num_8,16,num_8,0.88342898307,,,2017_Apr_19_1803,60.0032524735,MAFE4ImagesEEG,001,200209,
AFNE01.JPG,AFNE01.JPG,AFNE01.JPG,AFNE01.JPG,AFNE01.JPG,AFNE01.JPG,,,,,,,,,,,,,,,,,,,,,3,6,36,5,,,AFSA17.jpg,AFNE01.jpg,AFSA19.jpg,AFNE02.jpg,AFSA17.jpg,FS,4,num_8,32,num_4,1.70005475014,,,2017_Apr_19_1803,60.0032524735,MAFE4ImagesEEG,001,200209,
AFNE01.JPG,AFNE01.JPG,AFNE01.JPG,AFNE01.JPG,AFNE01.JPG,AFNE01.JPG,,,,,,,,,,,,,,,,,,,,,3,7,37,9,,,AFSA13.jpg,AFNE13.jpg,AFNE15.jpg,AFSA08.jpg,AFSA08.jpg,FS,4,num_4,32,num_2,1.00016774653,,,2017_Apr_19_1803,60.0032524735,MAFE4ImagesEEG,001,200209,
AFNE01.JPG,AFNE01.JPG,AFNE01.JPG,AFNE01.JPG,AFNE01.JPG,AFNE01.JPG,,,,,,,,,,,,,,,,,,,,,3,8,38,2,,,AFNE08.jpg,AFNE04.jpg,AFSA02.jpg,AFSA07.jpg,AFNE04.jpg,FN,3,num_6,16,num_6,0.633451033878,,,2017_Apr_19_1803,60.0032524735,MAFE4ImagesEEG,001,200209,
