IPosition2,IPosition3,IPosition1,IPosition6,IPosition4,IPosition5,TrialsM1.thisRepN,TrialsM1.thisTrialN,TrialsM1.thisN,TrialsM1.thisIndex,TrialsF1.thisRepN,TrialsF1.thisTrialN,TrialsF1.thisN,TrialsF1.thisIndex,TrialsM2.thisRepN,TrialsM2.thisTrialN,TrialsM2.thisN,TrialsM2.thisIndex,TrialsF2.thisRepN,TrialsF2.thisTrialN,TrialsF2.thisN,TrialsF2.thisIndex,TrialsM3.thisRepN,TrialsM3.thisTrialN,TrialsM3.thisN,TrialsM3.thisIndex,TrialsF3.thisRepN,TrialsF3.thisTrialN,TrialsF3.thisN,TrialsF3.thisIndex,InstrKey_resp.keys,InstrKey_resp.rt,Image0 _Position,Image1 _Position,Image2 _Position,Image3 _Position,Center_image,condition,code,correct_answer,accuracy,Key_Resp.keys,Key_Resp.rt,BreakKey_resp.keys,BreakKey_resp.rt,date,frameRate,expName,session,participant,
,,,,,,,,,,,,,,,,,,,,,,,,,,,,,,space,9.94951278134,,,,,,,,,,,,,,2017_May_09_1657,59.9992109939,MAFE4ImagesEEG,001,200281,
AFSA25.JPG,AFNE24.JPG,AFSA24.JPG,AFNE21.JPG,AFSA21.JPG,AFNE25.JPG,0,0,0,2,,,,,,,,,,,,,,,,,,,,,,,AMNE03.jpg,AMSA14.jpg,AMNE01.jpg,AMSA10.jpg,AMNE01.jpg,MN,1,num_2,32,num_6,1.0334505206,,,2017_May_09_1657,59.9992109939,MAFE4ImagesEEG,001,200281,
AMSA21.JPG,AMNE22.JPG,AMNE21.JPG,AMSA23.JPG,AMSA22.JPG,AMNE23.JPG,0,1,1,1,,,,,,,,,,,,,,,,,,,,,,,AMSA05.jpg,AMNE13.jpg,AMSA17.jpg,AMNE18.jpg,AMNE13.jpg,MN,1,num_6,32,num_4,1.41672891681,,,2017_May_09_1657,59.9992109939,MAFE4ImagesEEG,001,200281,
AMSA21.JPG,AMNE23.JPG,AMNE21.JPG,AMSA25.JPG,AMNE25.JPG,AMSA23.JPG,0,2,2,5,,,,,,,,,,,,,,,,,,,,,,,AMSA19.jpg,AMNE13.jpg,AMNE19.jpg,AMSA15.jpg,AMNE19.jpg,MN,1,num_2,16,num_2,2.26664868393,,,2017_May_09_1657,59.9992109939,MAFE4ImagesEEG,001,200281,
AMNE22.JPG,AMSA24.JPG,AMSA22.JPG,AMNE25.JPG,AMNE24.JPG,AMSA25.JPG,0,3,3,7,,,,,,,,,,,,,,,,,,,,,,,AMSA17.jpg,AMNE20.jpg,AMNE13.jpg,AMSA18.jpg,AMSA18.jpg,MS,2,num_4,16,num_4,1.01671339292,,,2017_May_09_1657,59.9992109939,MAFE4ImagesEEG,001,200281,
AFNE23.JPG,AFNE24.JPG,AFNE22.JPG,AFSA24.JPG,AFSA22.JPG,AFSA23.JPG,0,4,4,8,,,,,,,,,,,,,,,,,,,,,,,AMNE15.jpg,AMSA06.jpg,AMSA05.jpg,AMNE14.jpg,AMNE14.jpg,MN,1,num_4,16,num_4,0.900090095587,,,2017_May_09_1657,59.9992109939,MAFE4ImagesEEG,001,200281,
AMSA25.JPG,AMNE24.JPG,AMSA24.JPG,AMNE26.JPG,AMSA21.JPG,AMNE25.JPG,0,5,5,3,,,,,,,,,,,,,,,,,,,,,,,AMNE15.jpg,AMNE11.jpg,AMSA17.jpg,AMSA01.jpg,AMSA17.jpg,MS,2,num_2,16,num_2,0.583488544449,,,2017_May_09_1657,59.9992109939,MAFE4ImagesEEG,001,200281,
AFSA21.JPG,AFNE22.JPG,AFNE21.JPG,AFSA23.JPG,AFSA22.JPG,AFNE23.JPG,0,6,6,0,,,,,,,,,,,,,,,,,,,,,,,AMSA05.jpg,AMNE17.jpg,AMNE05.jpg,AMSA02.jpg,AMSA02.jpg,MS,2,num_4,16,num_4,0.766722293338,,,2017_May_09_1657,59.9992109939,MAFE4ImagesEEG,001,200281,
AFNE22.JPG,AFSA24.JPG,AFSA22.JPG,AFNE25.JPG,AFNE24.JPG,AFSA25.JPG,0,7,7,6,,,,,,,,,,,,,,,,,,,,,,,AMSA17.jpg,AMSA19.jpg,AMNE08.jpg,AMNE19.jpg,AMSA17.jpg,MS,2,num_8,16,num_8,1.19982077111,,,2017_May_09_1657,59.9992109939,MAFE4ImagesEEG,001,200281,
AMNE23.JPG,AMNE24.JPG,AMNE22.JPG,AMSA24.JPG,AMSA22.JPG,AMSA23.JPG,0,8,8,9,,,,,,,,,,,,,,,,,,,,,,,AMSA10.jpg,AMSA02.jpg,AMNE07.jpg,AMNE13.jpg,AMNE13.jpg,MN,1,num_4,16,num_4,1.61672192463,,,2017_May_09_1657,59.9992109939,MAFE4ImagesEEG,001,200281,
AFSA21.JPG,AFNE23.JPG,AFNE21.JPG,AFSA25.JPG,AFNE25.JPG,AFSA23.JPG,0,9,9,4,,,,,,,,,,,,,,,,,,,,,,,AMNE17.jpg,AMSA05.jpg,AMSA15.jpg,AMNE15.jpg,AMNE17.jpg,MN,1,num_8,32,num_4,0.766796063632,,,2017_May_09_1657,59.9992109939,MAFE4ImagesEEG,001,200281,
AMSA21.JPG,AMNE22.JPG,AMNE21.JPG,AMSA23.JPG,AMSA22.JPG,AMNE23.JPG,,,,,0,0,0,1,,,,,,,,,,,,,,,,,,,AFNE02.jpg,AFNE06.jpg,AFSA13.jpg,AFSA10.jpg,AFSA10.jpg,FS,4,num_4,32,num_6,0.833102134056,,,2017_May_09_1657,59.9992109939,MAFE4ImagesEEG,001,200281,
AMSA21.JPG,AMNE23.JPG,AMNE21.JPG,AMSA25.JPG,AMNE25.JPG,AMSA23.JPG,,,,,0,1,1,5,,,,,,,,,,,,,,,,,,,AFSA19.jpg,AFSA13.jpg,AFNE12.jpg,AFNE10.jpg,AFSA13.jpg,FS,4,num_6,32,num_2,1.95004937775,,,2017_May_09_1657,59.9992109939,MAFE4ImagesEEG,001,200281,
AMNE22.JPG,AMSA24.JPG,AMSA22.JPG,AMNE25.JPG,AMNE24.JPG,AMSA25.JPG,,,,,0,2,2,7,,,,,,,,,,,,,,,,,,,AFNE12.jpg,AFNE13.jpg,AFSA11.jpg,AFSA06.jpg,AFNE13.jpg,FN,3,num_6,32,num_4,0.700102219591,,,2017_May_09_1657,59.9992109939,MAFE4ImagesEEG,001,200281,
AMSA25.JPG,AMNE24.JPG,AMSA24.JPG,AMNE26.JPG,AMSA21.JPG,AMNE25.JPG,,,,,0,3,3,3,,,,,,,,,,,,,,,,,,,AFNE09.jpg,AFSA11.jpg,AFSA06.jpg,AFNE12.jpg,AFSA11.jpg,FS,4,num_6,16,num_6,0.466818419052,,,2017_May_09_1657,59.9992109939,MAFE4ImagesEEG,001,200281,
AFSA21.JPG,AFNE22.JPG,AFNE21.JPG,AFSA23.JPG,AFSA22.JPG,AFNE23.JPG,,,,,0,4,4,0,,,,,,,,,,,,,,,,,,,AFSA02.jpg,AFSA19.jpg,AFNE16.jpg,AFNE08.jpg,AFSA02.jpg,FS,4,num_8,32,num_4,1.01657258859,,,2017_May_09_1657,59.9992109939,MAFE4ImagesEEG,001,200281,
AFSA21.JPG,AFNE23.JPG,AFNE21.JPG,AFSA25.JPG,AFNE25.JPG,AFSA23.JPG,,,,,0,5,5,4,,,,,,,,,,,,,,,,,,,AFNE13.jpg,AFSA20.jpg,AFNE14.jpg,AFSA02.jpg,AFNE14.jpg,FN,3,num_2,32,num_4,0.683479275089,,,2017_May_09_1657,59.9992109939,MAFE4ImagesEEG,001,200281,
AFSA25.JPG,AFNE24.JPG,AFSA24.JPG,AFNE21.JPG,AFSA21.JPG,AFNE25.JPG,,,,,0,6,6,2,,,,,,,,,,,,,,,,,,,AFSA05.jpg,AFSA16.jpg,AFNE12.jpg,AFNE11.jpg,AFSA16.jpg,FS,4,num_6,16,num_6,0.400132914074,,,2017_May_09_1657,59.9992109939,MAFE4ImagesEEG,001,200281,
AFNE23.JPG,AFNE24.JPG,AFNE22.JPG,AFSA24.JPG,AFSA22.JPG,AFSA23.JPG,,,,,0,7,7,8,,,,,,,,,,,,,,,,,,,AFSA13.jpg,AFSA12.jpg,AFNE10.jpg,AFNE16.jpg,AFNE10.jpg,FN,3,num_2,16,num_2,1.40006395523,,,2017_May_09_1657,59.9992109939,MAFE4ImagesEEG,001,200281,
AFNE22.JPG,AFSA24.JPG,AFSA22.JPG,AFNE25.JPG,AFNE24.JPG,AFSA25.JPG,,,,,0,8,8,6,,,,,,,,,,,,,,,,,,,AFSA05.jpg,AFNE01.jpg,AFSA06.jpg,AFNE16.jpg,AFSA06.jpg,FS,4,num_2,32,num_4,0.633485032246,,,2017_May_09_1657,59.9992109939,MAFE4ImagesEEG,001,200281,
AMNE23.JPG,AMNE24.JPG,AMNE22.JPG,AMSA24.JPG,AMSA22.JPG,AMSA23.JPG,,,,,0,9,9,9,,,,,,,,,,,,,,,,,,,AFSA17.jpg,AFSA05.jpg,AFNE06.jpg,AFNE04.jpg,AFSA17.jpg,FS,4,num_8,32,num_6,0.800107704243,,,2017_May_09_1657,59.9992109939,MAFE4ImagesEEG,001,200281,
AMSA21.JPG,AMNE22.JPG,AMNE21.JPG,AMSA23.JPG,AMSA22.JPG,AMNE23.JPG,,,,,,,,,0,0,0,1,,,,,,,,,,,,,,,AMSA07.jpg,AMNE08.jpg,AMSA15.jpg,AMNE19.jpg,AMSA15.jpg,MS,2,num_2,16,num_2,0.400166271254,,,2017_May_09_1657,59.9992109939,MAFE4ImagesEEG,001,200281,
AMNE23.JPG,AMNE24.JPG,AMNE22.JPG,AMSA24.JPG,AMSA22.JPG,AMSA23.JPG,,,,,,,,,0,1,1,9,,,,,,,,,,,,,,,AMSA11.jpg,AMNE12.jpg,AMSA01.jpg,AMNE06.jpg,AMNE06.jpg,MN,1,num_4,32,num_6,0.800028802361,,,2017_May_09_1657,59.9992109939,MAFE4ImagesEEG,001,200281,
AMSA21.JPG,AMNE23.JPG,AMNE21.JPG,AMSA25.JPG,AMNE25.JPG,AMSA23.JPG,,,,,,,,,0,2,2,5,,,,,,,,,,,,,,,AMNE14.jpg,AMSA08.jpg,AMNE01.jpg,AMSA13.jpg,AMNE01.jpg,MN,1,num_2,16,num_2,1.88349569682,,,2017_May_09_1657,59.9992109939,MAFE4ImagesEEG,001,200281,
AFSA21.JPG,AFNE23.JPG,AFNE21.JPG,AFSA25.JPG,AFNE25.JPG,AFSA23.JPG,,,,,,,,,0,3,3,4,,,,,,,,,,,,,,,AMSA04.jpg,AMNE02.jpg,AMNE13.jpg,AMSA07.jpg,AMSA04.jpg,MS,2,num_8,16,num_8,0.71679476439,,,2017_May_09_1657,59.9992109939,MAFE4ImagesEEG,001,200281,
AFSA21.JPG,AFNE22.JPG,AFNE21.JPG,AFSA23.JPG,AFSA22.JPG,AFNE23.JPG,,,,,,,,,0,4,4,0,,,,,,,,,,,,,,,AMNE05.jpg,AMSA05.jpg,AMSA06.jpg,AMNE18.jpg,AMSA05.jpg,MS,2,num_6,32,num_4,0.783415800659,,,2017_May_09_1657,59.9992109939,MAFE4ImagesEEG,001,200281,
AFNE23.JPG,AFNE24.JPG,AFNE22.JPG,AFSA24.JPG,AFSA22.JPG,AFSA23.JPG,,,,,,,,,0,5,5,8,,,,,,,,,,,,,,,AMSA04.jpg,AMNE06.jpg,AMNE19.jpg,AMSA13.jpg,AMSA13.jpg,MS,2,num_4,32,num_6,0.316774750361,,,2017_May_09_1657,59.9992109939,MAFE4ImagesEEG,001,200281,
AFNE22.JPG,AFSA24.JPG,AFSA22.JPG,AFNE25.JPG,AFNE24.JPG,AFSA25.JPG,,,,,,,,,0,6,6,6,,,,,,,,,,,,,,,AMNE04.jpg,AMSA20.jpg,AMSA07.jpg,AMNE13.jpg,AMNE04.jpg,MN,1,num_8,32,num_2,2.45005627372,,,2017_May_09_1657,59.9992109939,MAFE4ImagesEEG,001,200281,
AMSA25.JPG,AMNE24.JPG,AMSA24.JPG,AMNE26.JPG,AMSA21.JPG,AMNE25.JPG,,,,,,,,,0,7,7,3,,,,,,,,,,,,,,,AMNE09.jpg,AMNE18.jpg,AMSA04.jpg,AMSA10.jpg,AMNE18.jpg,MN,1,num_6,32,num_4,0.666837406578,,,2017_May_09_1657,59.9992109939,MAFE4ImagesEEG,001,200281,
AMNE22.JPG,AMSA24.JPG,AMSA22.JPG,AMNE25.JPG,AMNE24.JPG,AMSA25.JPG,,,,,,,,,0,8,8,7,,,,,,,,,,,,,,,AMSA17.jpg,AMSA19.jpg,AMNE13.jpg,AMNE03.jpg,AMNE13.jpg,MN,1,num_2,32,num_4,0.800118930172,,,2017_May_09_1657,59.9992109939,MAFE4ImagesEEG,001,200281,
AFSA25.JPG,AFNE24.JPG,AFSA24.JPG,AFNE21.JPG,AFSA21.JPG,AFNE25.JPG,,,,,,,,,0,9,9,2,,,,,,,,,,,,,,,AMSA11.jpg,AMSA08.jpg,AMNE16.jpg,AMNE07.jpg,AMNE16.jpg,MN,1,num_2,32,num_8,1.08347427147,,,2017_May_09_1657,59.9992109939,MAFE4ImagesEEG,001,200281,
AFNE23.JPG,AFNE24.JPG,AFNE22.JPG,AFSA24.JPG,AFSA22.JPG,AFSA23.JPG,,,,,,,,,,,,,0,0,0,8,,,,,,,,,,,AFNE15.jpg,AFSA13.jpg,AFSA16.jpg,AFNE14.jpg,AFSA16.jpg,FS,4,num_2,16,num_2,1.55006207922,,,2017_May_09_1657,59.9992109939,MAFE4ImagesEEG,001,200281,
AFNE22.JPG,AFSA24.JPG,AFSA22.JPG,AFNE25.JPG,AFNE24.JPG,AFSA25.JPG,,,,,,,,,,,,,0,1,1,6,,,,,,,,,,,AFSA03.jpg,AFNE16.jpg,AFNE02.jpg,AFSA13.jpg,AFNE16.jpg,FN,3,num_6,32,num_4,1.18347045477,,,2017_May_09_1657,59.9992109939,MAFE4ImagesEEG,001,200281,
AMSA25.JPG,AMNE24.JPG,AMSA24.JPG,AMNE26.JPG,AMSA21.JPG,AMNE25.JPG,,,,,,,,,,,,,0,2,2,3,,,,,,,,,,,AFSA06.jpg,AFNE19.jpg,AFNE10.jpg,AFSA10.jpg,AFSA10.jpg,FS,4,num_4,16,num_4,0.783408423886,,,2017_May_09_1657,59.9992109939,MAFE4ImagesEEG,001,200281,
AMNE22.JPG,AMSA24.JPG,AMSA22.JPG,AMNE25.JPG,AMNE24.JPG,AMSA25.JPG,,,,,,,,,,,,,0,3,3,7,,,,,,,,,,,AFSA05.jpg,AFNE12.jpg,AFNE13.jpg,AFSA19.jpg,AFSA05.jpg,FS,4,num_8,32,num_2,1.21675194567,,,2017_May_09_1657,59.9992109939,MAFE4ImagesEEG,001,200281,
AMSA21.JPG,AMNE22.JPG,AMNE21.JPG,AMSA23.JPG,AMSA22.JPG,AMNE23.JPG,,,,,,,,,,,,,0,4,4,1,,,,,,,,,,,AFSA07.jpg,AFNE18.jpg,AFNE17.jpg,AFSA19.jpg,AFSA07.jpg,FS,4,num_8,16,num_8,0.483448099112,,,2017_May_09_1657,59.9992109939,MAFE4ImagesEEG,001,200281,
AMSA21.JPG,AMNE23.JPG,AMNE21.JPG,AMSA25.JPG,AMNE25.JPG,AMSA23.JPG,,,,,,,,,,,,,0,5,5,5,,,,,,,,,,,AFSA15.jpg,AFNE09.jpg,AFNE01.jpg,AFSA02.jpg,AFNE01.jpg,FN,3,num_2,32,num_4,0.800227981294,,,2017_May_09_1657,59.9992109939,MAFE4ImagesEEG,001,200281,
AFSA25.JPG,AFNE24.JPG,AFSA24.JPG,AFNE21.JPG,AFSA21.JPG,AFNE25.JPG,,,,,,,,,,,,,0,6,6,2,,,,,,,,,,,AFNE02.jpg,AFNE03.jpg,AFSA02.jpg,AFSA11.jpg,AFNE03.jpg,FN,3,num_6,16,num_6,0.633522237884,,,2017_May_09_1657,59.9992109939,MAFE4ImagesEEG,001,200281,
AFSA21.JPG,AFNE22.JPG,AFNE21.JPG,AFSA23.JPG,AFSA22.JPG,AFNE23.JPG,,,,,,,,,,,,,0,7,7,0,,,,,,,,,,,AFNE02.jpg,AFSA13.jpg,AFNE09.jpg,AFSA07.jpg,AFSA13.jpg,FS,4,num_6,16,num_6,2.05024153274,,,2017_May_09_1657,59.9992109939,MAFE4ImagesEEG,001,200281,
AMNE23.JPG,AMNE24.JPG,AMNE22.JPG,AMSA24.JPG,AMSA22.JPG,AMSA23.JPG,,,,,,,,,,,,,0,8,8,9,,,,,,,,,,,AFSA20.jpg,AFNE07.jpg,AFNE16.jpg,AFSA12.jpg,AFSA12.jpg,FS,4,num_4,32,num_6,0.866761455778,,,2017_May_09_1657,59.9992109939,MAFE4ImagesEEG,001,200281,
AFSA21.JPG,AFNE23.JPG,AFNE21.JPG,AFSA25.JPG,AFNE25.JPG,AFSA23.JPG,,,,,,,,,,,,,0,9,9,4,,,,,,,,,,,AFSA20.jpg,AFSA18.jpg,AFNE18.jpg,AFNE09.jpg,AFNE09.jpg,FN,3,num_4,16,num_4,0.833443079609,,,2017_May_09_1657,59.9992109939,MAFE4ImagesEEG,001,200281,
AFNE23.JPG,AFNE24.JPG,AFNE22.JPG,AFSA24.JPG,AFSA22.JPG,AFSA23.JPG,,,,,,,,,,,,,,,,,0,0,0,8,,,,,,,AMSA16.jpg,AMSA17.jpg,AMNE09.jpg,AMNE05.jpg,AMSA17.jpg,MS,2,num_6,32,num_2,1.88304120954,,,2017_May_09_1657,59.9992109939,MAFE4ImagesEEG,001,200281,
AMNE23.JPG,AMNE24.JPG,AMNE22.JPG,AMSA24.JPG,AMSA22.JPG,AMSA23.JPG,,,,,,,,,,,,,,,,,0,1,1,9,,,,,,,AMSA07.jpg,AMNE05.jpg,AMSA05.jpg,AMNE04.jpg,AMNE04.jpg,MN,1,num_4,16,num_4,0.700124350376,,,2017_May_09_1657,59.9992109939,MAFE4ImagesEEG,001,200281,
AMSA21.JPG,AMNE22.JPG,AMNE21.JPG,AMSA23.JPG,AMSA22.JPG,AMNE23.JPG,,,,,,,,,,,,,,,,,0,2,2,1,,,,,,,AMSA20.jpg,AMSA13.jpg,AMNE03.jpg,AMNE01.jpg,AMSA20.jpg,MS,2,num_8,32,num_6,0.983434788417,,,2017_May_09_1657,59.9992109939,MAFE4ImagesEEG,001,200281,
AMSA21.JPG,AMNE23.JPG,AMNE21.JPG,AMSA25.JPG,AMNE25.JPG,AMSA23.JPG,,,,,,,,,,,,,,,,,0,3,3,5,,,,,,,AMSA04.jpg,AMNE07.jpg,AMSA12.jpg,AMNE14.jpg,AMSA12.jpg,MS,2,num_2,32,num_6,0.616788959131,,,2017_May_09_1657,59.9992109939,MAFE4ImagesEEG,001,200281,
AFSA21.JPG,AFNE22.JPG,AFNE21.JPG,AFSA23.JPG,AFSA22.JPG,AFNE23.JPG,,,,,,,,,,,,,,,,,0,4,4,0,,,,,,,AMNE16.jpg,AMSA03.jpg,AMSA05.jpg,AMNE14.jpg,AMNE14.jpg,MN,1,num_4,16,num_4,0.516829019412,,,2017_May_09_1657,59.9992109939,MAFE4ImagesEEG,001,200281,
AMNE22.JPG,AMSA24.JPG,AMSA22.JPG,AMNE25.JPG,AMNE24.JPG,AMSA25.JPG,,,,,,,,,,,,,,,,,0,5,5,7,,,,,,,AMSA12.jpg,AMNE06.jpg,AMSA02.jpg,AMNE07.jpg,AMSA12.jpg,MS,2,num_8,32,num_6,0.683480237145,,,2017_May_09_1657,59.9992109939,MAFE4ImagesEEG,001,200281,
AFSA21.JPG,AFNE23.JPG,AFNE21.JPG,AFSA25.JPG,AFNE25.JPG,AFSA23.JPG,,,,,,,,,,,,,,,,,0,6,6,4,,,,,,,AMNE02.jpg,AMNE15.jpg,AMSA04.jpg,AMSA06.jpg,AMNE15.jpg,MN,1,num_6,16,num_6,0.799858169165,,,2017_May_09_1657,59.9992109939,MAFE4ImagesEEG,001,200281,
AFNE22.JPG,AFSA24.JPG,AFSA22.JPG,AFNE25.JPG,AFNE24.JPG,AFSA25.JPG,,,,,,,,,,,,,,,,,0,7,7,6,,,,,,,AMSA01.jpg,AMNE19.jpg,AMSA18.jpg,AMNE14.jpg,AMSA18.jpg,MS,2,num_2,32,num_8,0.850216771476,,,2017_May_09_1657,59.9992109939,MAFE4ImagesEEG,001,200281,
AMSA25.JPG,AMNE24.JPG,AMSA24.JPG,AMNE26.JPG,AMSA21.JPG,AMNE25.JPG,,,,,,,,,,,,,,,,,0,8,8,3,,,,,,,AMSA07.jpg,AMNE05.jpg,AMNE01.jpg,AMSA02.jpg,AMNE01.jpg,MN,1,num_2,16,num_2,0.350168179488,,,2017_May_09_1657,59.9992109939,MAFE4ImagesEEG,001,200281,
AFSA25.JPG,AFNE24.JPG,AFSA24.JPG,AFNE21.JPG,AFSA21.JPG,AFNE25.JPG,,,,,,,,,,,,,,,,,0,9,9,2,,,,,,,AMNE16.jpg,AMSA10.jpg,AMNE13.jpg,AMSA09.jpg,AMNE13.jpg,MN,1,num_2,32,num_4,0.416647769744,,,2017_May_09_1657,59.9992109939,MAFE4ImagesEEG,001,200281,
AFSA21.JPG,AFNE23.JPG,AFNE21.JPG,AFSA25.JPG,AFNE25.JPG,AFSA23.JPG,,,,,,,,,,,,,,,,,,,,,0,0,0,4,,,AFNE18.jpg,AFNE12.jpg,AFSA09.jpg,AFSA18.jpg,AFNE18.jpg,FN,3,num_8,32,num_6,1.33340571355,,,2017_May_09_1657,59.9992109939,MAFE4ImagesEEG,001,200281,
AFSA25.JPG,AFNE24.JPG,AFSA24.JPG,AFNE21.JPG,AFSA21.JPG,AFNE25.JPG,,,,,,,,,,,,,,,,,,,,,0,1,1,2,,,AFSA16.jpg,AFSA18.jpg,AFNE13.jpg,AFNE19.jpg,AFNE13.jpg,FN,3,num_2,16,num_2,0.93354927632,,,2017_May_09_1657,59.9992109939,MAFE4ImagesEEG,001,200281,
AMSA21.JPG,AMNE23.JPG,AMNE21.JPG,AMSA25.JPG,AMNE25.JPG,AMSA23.JPG,,,,,,,,,,,,,,,,,,,,,0,2,2,5,,,AFNE16.jpg,AFNE03.jpg,AFSA02.jpg,AFSA15.jpg,AFSA02.jpg,FS,4,num_2,32,num_4,0.616839956725,,,2017_May_09_1657,59.9992109939,MAFE4ImagesEEG,001,200281,
AFNE23.JPG,AFNE24.JPG,AFNE22.JPG,AFSA24.JPG,AFSA22.JPG,AFSA23.JPG,,,,,,,,,,,,,,,,,,,,,0,3,3,8,,,AFSA12.jpg,AFSA03.jpg,AFNE05.jpg,AFNE03.jpg,AFSA12.jpg,FS,4,num_8,32,num_6,0.633309267228,,,2017_May_09_1657,59.9992109939,MAFE4ImagesEEG,001,200281,
AMSA25.JPG,AMNE24.JPG,AMSA24.JPG,AMNE26.JPG,AMSA21.JPG,AMNE25.JPG,,,,,,,,,,,,,,,,,,,,,0,4,4,3,,,AFSA15.jpg,AFNE03.jpg,AFSA12.jpg,AFNE17.jpg,AFNE03.jpg,FN,3,num_6,32,num_4,0.583541145548,,,2017_May_09_1657,59.9992109939,MAFE4ImagesEEG,001,200281,
AMSA21.JPG,AMNE22.JPG,AMNE21.JPG,AMSA23.JPG,AMSA22.JPG,AMNE23.JPG,,,,,,,,,,,,,,,,,,,,,0,5,5,1,,,AFSA17.jpg,AFNE03.jpg,AFSA11.jpg,AFNE05.jpg,AFSA17.jpg,FS,4,num_8,32,num_6,0.766752122203,,,2017_May_09_1657,59.9992109939,MAFE4ImagesEEG,001,200281,
AFSA21.JPG,AFNE22.JPG,AFNE21.JPG,AFSA23.JPG,AFSA22.JPG,AFNE23.JPG,,,,,,,,,,,,,,,,,,,,,0,6,6,0,,,AFSA05.jpg,AFSA11.jpg,AFNE18.jpg,AFNE13.jpg,AFSA05.jpg,FS,4,num_8,32,num_4,0.76672710455,,,2017_May_09_1657,59.9992109939,MAFE4ImagesEEG,001,200281,
AMNE22.JPG,AMSA24.JPG,AMSA22.JPG,AMNE25.JPG,AMNE24.JPG,AMSA25.JPG,,,,,,,,,,,,,,,,,,,,,0,7,7,7,,,AFNE12.jpg,AFSA04.jpg,AFNE06.jpg,AFSA07.jpg,AFSA07.jpg,FS,4,num_4,32,num_8,0.566643968923,,,2017_May_09_1657,59.9992109939,MAFE4ImagesEEG,001,200281,
AFNE22.JPG,AFSA24.JPG,AFSA22.JPG,AFNE25.JPG,AFNE24.JPG,AFSA25.JPG,,,,,,,,,,,,,,,,,,,,,0,8,8,6,,,AFNE09.jpg,AFNE10.jpg,AFSA10.jpg,AFSA07.jpg,AFSA07.jpg,FS,4,num_4,32,num_6,0.433659450151,,,2017_May_09_1657,59.9992109939,MAFE4ImagesEEG,001,200281,
AMNE23.JPG,AMNE24.JPG,AMNE22.JPG,AMSA24.JPG,AMSA22.JPG,AMSA23.JPG,,,,,,,,,,,,,,,,,,,,,0,9,9,9,,,AFSA16.jpg,AFNE20.jpg,AFSA03.jpg,AFNE10.jpg,AFSA16.jpg,FS,4,num_8,32,num_4,0.350142841227,,,2017_May_09_1657,59.9992109939,MAFE4ImagesEEG,001,200281,
,,,,,,,,,,,,,,,,,,,,,,,,,,,,,,,,,,,,,,,,,,,space,5.18309037876,2017_May_09_1657,59.9992109939,MAFE4ImagesEEG,001,200281,
AFNE01.JPG,AFNE01.JPG,AFNE01.JPG,AFNE01.JPG,AFNE01.JPG,AFNE01.JPG,0,0,0,8,,,,,,,,,,,,,,,,,,,,,,,AMSA18.jpg,AMSA05.jpg,AMNE19.jpg,AMNE18.jpg,AMSA05.jpg,MS,2,num_6,16,num_6,1.133445421,,,2017_May_09_1657,59.9992109939,MAFE4ImagesEEG,001,200281,
AFNE01.JPG,AFNE01.JPG,AFNE01.JPG,AFNE01.JPG,AFNE01.JPG,AFNE01.JPG,0,1,1,0,,,,,,,,,,,,,,,,,,,,,,,AMNE09.jpg,AMSA08.jpg,AMNE14.jpg,AMSA10.jpg,AMSA08.jpg,MS,2,num_6,32,num_4,0.566747247009,,,2017_May_09_1657,59.9992109939,MAFE4ImagesEEG,001,200281,
AFNE01.JPG,AFNE01.JPG,AFNE01.JPG,AFNE01.JPG,AFNE01.JPG,AFNE01.JPG,0,2,2,9,,,,,,,,,,,,,,,,,,,,,,,AMSA11.jpg,AMNE16.jpg,AMSA17.jpg,AMNE06.jpg,AMSA11.jpg,MS,2,num_8,32,num_6,1.40012842393,,,2017_May_09_1657,59.9992109939,MAFE4ImagesEEG,001,200281,
AFNE01.JPG,AFNE01.JPG,AFNE01.JPG,AFNE01.JPG,AFNE01.JPG,AFNE01.JPG,0,3,3,5,,,,,,,,,,,,,,,,,,,,,,,AMSA07.jpg,AMNE17.jpg,AMNE10.jpg,AMSA09.jpg,AMNE10.jpg,MN,1,num_2,32,num_4,0.800230226479,,,2017_May_09_1657,59.9992109939,MAFE4ImagesEEG,001,200281,
AFNE01.JPG,AFNE01.JPG,AFNE01.JPG,AFNE01.JPG,AFNE01.JPG,AFNE01.JPG,0,4,4,7,,,,,,,,,,,,,,,,,,,,,,,AMSA17.jpg,AMSA14.jpg,AMNE14.jpg,AMNE03.jpg,AMNE14.jpg,MN,1,num_2,32,num_4,0.533480830491,,,2017_May_09_1657,59.9992109939,MAFE4ImagesEEG,001,200281,
AFNE01.JPG,AFNE01.JPG,AFNE01.JPG,AFNE01.JPG,AFNE01.JPG,AFNE01.JPG,0,5,5,1,,,,,,,,,,,,,,,,,,,,,,,AMNE10.jpg,AMSA16.jpg,AMNE16.jpg,AMSA18.jpg,AMNE10.jpg,MN,1,num_8,32,num_6,0.350171707571,,,2017_May_09_1657,59.9992109939,MAFE4ImagesEEG,001,200281,
AFNE01.JPG,AFNE01.JPG,AFNE01.JPG,AFNE01.JPG,AFNE01.JPG,AFNE01.JPG,0,6,6,4,,,,,,,,,,,,,,,,,,,,,,,AMSA17.jpg,AMNE11.jpg,AMSA13.jpg,AMNE13.jpg,AMNE13.jpg,MN,1,num_4,32,num_2,1.25010464108,,,2017_May_09_1657,59.9992109939,MAFE4ImagesEEG,001,200281,
AFNE01.JPG,AFNE01.JPG,AFNE01.JPG,AFNE01.JPG,AFNE01.JPG,AFNE01.JPG,0,7,7,3,,,,,,,,,,,,,,,,,,,,,,,AMNE01.jpg,AMSA16.jpg,AMSA07.jpg,AMNE09.jpg,AMSA16.jpg,MS,2,num_6,32,num_8,0.416918473551,,,2017_May_09_1657,59.9992109939,MAFE4ImagesEEG,001,200281,
AFNE01.JPG,AFNE01.JPG,AFNE01.JPG,AFNE01.JPG,AFNE01.JPG,AFNE01.JPG,0,8,8,6,,,,,,,,,,,,,,,,,,,,,,,AMSA04.jpg,AMNE10.jpg,AMNE03.jpg,AMSA07.jpg,AMSA04.jpg,MS,2,num_8,32,num_4,0.383506120881,,,2017_May_09_1657,59.9992109939,MAFE4ImagesEEG,001,200281,
AFNE01.JPG,AFNE01.JPG,AFNE01.JPG,AFNE01.JPG,AFNE01.JPG,AFNE01.JPG,0,9,9,2,,,,,,,,,,,,,,,,,,,,,,,AMNE13.jpg,AMNE11.jpg,AMSA16.jpg,AMSA20.jpg,AMNE13.jpg,MN,1,num_8,32,num_6,0.333481728565,,,2017_May_09_1657,59.9992109939,MAFE4ImagesEEG,001,200281,
AFNE01.JPG,AFNE01.JPG,AFNE01.JPG,AFNE01.JPG,AFNE01.JPG,AFNE01.JPG,1,0,10,0,,,,,,,,,,,,,,,,,,,,,,,AMNE02.jpg,AMSA05.jpg,AMNE08.jpg,AMSA07.jpg,AMNE08.jpg,MN,1,num_2,32,num_4,0.316776033258,,,2017_May_09_1657,59.9992109939,MAFE4ImagesEEG,001,200281,
AFNE01.JPG,AFNE01.JPG,AFNE01.JPG,AFNE01.JPG,AFNE01.JPG,AFNE01.JPG,1,1,11,9,,,,,,,,,,,,,,,,,,,,,,,AMNE14.jpg,AMNE15.jpg,AMSA20.jpg,AMSA02.jpg,AMSA20.jpg,MS,2,num_2,16,num_2,0.650137164164,,,2017_May_09_1657,59.9992109939,MAFE4ImagesEEG,001,200281,
AFNE01.JPG,AFNE01.JPG,AFNE01.JPG,AFNE01.JPG,AFNE01.JPG,AFNE01.JPG,1,2,12,8,,,,,,,,,,,,,,,,,,,,,,,AMNE11.jpg,AMSA02.jpg,AMSA01.jpg,AMNE07.jpg,AMNE07.jpg,MN,1,num_4,16,num_4,0.750118272612,,,2017_May_09_1657,59.9992109939,MAFE4ImagesEEG,001,200281,
AFNE01.JPG,AFNE01.JPG,AFNE01.JPG,AFNE01.JPG,AFNE01.JPG,AFNE01.JPG,1,3,13,6,,,,,,,,,,,,,,,,,,,,,,,AMNE19.jpg,AMSA14.jpg,AMSA09.jpg,AMNE06.jpg,AMNE06.jpg,MN,1,num_4,32,num_6,0.43349619396,,,2017_May_09_1657,59.9992109939,MAFE4ImagesEEG,001,200281,
AFNE01.JPG,AFNE01.JPG,AFNE01.JPG,AFNE01.JPG,AFNE01.JPG,AFNE01.JPG,1,4,14,5,,,,,,,,,,,,,,,,,,,,,,,AMNE19.jpg,AMSA09.jpg,AMSA05.jpg,AMNE03.jpg,AMNE03.jpg,MN,1,num_4,32,num_6,0.466785703553,,,2017_May_09_1657,59.9992109939,MAFE4ImagesEEG,001,200281,
AFNE01.JPG,AFNE01.JPG,AFNE01.JPG,AFNE01.JPG,AFNE01.JPG,AFNE01.JPG,1,5,15,4,,,,,,,,,,,,,,,,,,,,,,,AMSA16.jpg,AMSA08.jpg,AMNE05.jpg,AMNE14.jpg,AMSA08.jpg,MS,2,num_6,32,num_2,0.716810801299,,,2017_May_09_1657,59.9992109939,MAFE4ImagesEEG,001,200281,
AFNE01.JPG,AFNE01.JPG,AFNE01.JPG,AFNE01.JPG,AFNE01.JPG,AFNE01.JPG,1,6,16,1,,,,,,,,,,,,,,,,,,,,,,,AMNE06.jpg,AMNE03.jpg,AMSA01.jpg,AMSA05.jpg,AMSA05.jpg,MS,2,num_4,32,num_8,0.783446912421,,,2017_May_09_1657,59.9992109939,MAFE4ImagesEEG,001,200281,
AFNE01.JPG,AFNE01.JPG,AFNE01.JPG,AFNE01.JPG,AFNE01.JPG,AFNE01.JPG,1,7,17,7,,,,,,,,,,,,,,,,,,,,,,,AMSA19.jpg,AMNE02.jpg,AMNE17.jpg,AMSA13.jpg,AMSA19.jpg,MS,2,num_8,32,num_6,0.38349681953,,,2017_May_09_1657,59.9992109939,MAFE4ImagesEEG,001,200281,
AFNE01.JPG,AFNE01.JPG,AFNE01.JPG,AFNE01.JPG,AFNE01.JPG,AFNE01.JPG,1,8,18,3,,,,,,,,,,,,,,,,,,,,,,,AMSA18.jpg,AMNE15.jpg,AMNE13.jpg,AMSA14.jpg,AMSA18.jpg,MS,2,num_8,32,num_4,0.433483364293,,,2017_May_09_1657,59.9992109939,MAFE4ImagesEEG,001,200281,
AFNE01.JPG,AFNE01.JPG,AFNE01.JPG,AFNE01.JPG,AFNE01.JPG,AFNE01.JPG,1,9,19,2,,,,,,,,,,,,,,,,,,,,,,,AMNE17.jpg,AMSA01.jpg,AMSA09.jpg,AMNE07.jpg,AMNE17.jpg,MN,1,num_8,32,num_6,0.616801467957,,,2017_May_09_1657,59.9992109939,MAFE4ImagesEEG,001,200281,
AFNE01.JPG,AFNE01.JPG,AFNE01.JPG,AFNE01.JPG,AFNE01.JPG,AFNE01.JPG,2,0,20,6,,,,,,,,,,,,,,,,,,,,,,,AMNE09.jpg,AMSA02.jpg,AMNE03.jpg,AMSA17.jpg,AMNE03.jpg,MN,1,num_2,16,num_2,0.516750438372,,,2017_May_09_1657,59.9992109939,MAFE4ImagesEEG,001,200281,
AFNE01.JPG,AFNE01.JPG,AFNE01.JPG,AFNE01.JPG,AFNE01.JPG,AFNE01.JPG,2,1,21,5,,,,,,,,,,,,,,,,,,,,,,,AMSA15.jpg,AMNE05.jpg,AMSA17.jpg,AMNE01.jpg,AMSA17.jpg,MS,2,num_2,32,num_8,3.14998529409,,,2017_May_09_1657,59.9992109939,MAFE4ImagesEEG,001,200281,
AFNE01.JPG,AFNE01.JPG,AFNE01.JPG,AFNE01.JPG,AFNE01.JPG,AFNE01.JPG,2,2,22,2,,,,,,,,,,,,,,,,,,,,,,,AMNE16.jpg,AMSA12.jpg,AMNE15.jpg,AMSA06.jpg,AMNE16.jpg,MN,1,num_8,32,num_6,0.466757157817,,,2017_May_09_1657,59.9992109939,MAFE4ImagesEEG,001,200281,
AFNE01.JPG,AFNE01.JPG,AFNE01.JPG,AFNE01.JPG,AFNE01.JPG,AFNE01.JPG,2,3,23,0,,,,,,,,,,,,,,,,,,,,,,,AMSA11.jpg,AMNE09.jpg,AMSA09.jpg,AMNE19.jpg,AMSA09.jpg,MS,2,num_2,32,num_4,0.61678382731,,,2017_May_09_1657,59.9992109939,MAFE4ImagesEEG,001,200281,
AFNE01.JPG,AFNE01.JPG,AFNE01.JPG,AFNE01.JPG,AFNE01.JPG,AFNE01.JPG,2,4,24,7,,,,,,,,,,,,,,,,,,,,,,,AMSA07.jpg,AMNE20.jpg,AMNE17.jpg,AMSA03.jpg,AMSA03.jpg,MS,2,num_4,32,num_2,0.683417372406,,,2017_May_09_1657,59.9992109939,MAFE4ImagesEEG,001,200281,
AFNE01.JPG,AFNE01.JPG,AFNE01.JPG,AFNE01.JPG,AFNE01.JPG,AFNE01.JPG,2,5,25,9,,,,,,,,,,,,,,,,,,,,,,,AMNE02.jpg,AMNE08.jpg,AMSA02.jpg,AMSA01.jpg,AMSA02.jpg,MS,2,num_2,32,num_6,0.983466220787,,,2017_May_09_1657,59.9992109939,MAFE4ImagesEEG,001,200281,
AFNE01.JPG,AFNE01.JPG,AFNE01.JPG,AFNE01.JPG,AFNE01.JPG,AFNE01.JPG,2,6,26,4,,,,,,,,,,,,,,,,,,,,,,,AMSA07.jpg,AMSA13.jpg,AMNE07.jpg,AMNE18.jpg,AMNE18.jpg,MN,1,num_4,32,num_8,0.46635014005,,,2017_May_09_1657,59.9992109939,MAFE4ImagesEEG,001,200281,
AFNE01.JPG,AFNE01.JPG,AFNE01.JPG,AFNE01.JPG,AFNE01.JPG,AFNE01.JPG,2,7,27,3,,,,,,,,,,,,,,,,,,,,,,,AMNE16.jpg,AMSA04.jpg,AMNE13.jpg,AMSA16.jpg,AMSA04.jpg,MS,2,num_6,16,num_6,0.466980712954,,,2017_May_09_1657,59.9992109939,MAFE4ImagesEEG,001,200281,
AFNE01.JPG,AFNE01.JPG,AFNE01.JPG,AFNE01.JPG,AFNE01.JPG,AFNE01.JPG,2,8,28,8,,,,,,,,,,,,,,,,,,,,,,,AMSA10.jpg,AMNE08.jpg,AMSA13.jpg,AMNE06.jpg,AMNE08.jpg,MN,1,num_6,32,num_4,0.683333659545,,,2017_May_09_1657,59.9992109939,MAFE4ImagesEEG,001,200281,
AFNE01.JPG,AFNE01.JPG,AFNE01.JPG,AFNE01.JPG,AFNE01.JPG,AFNE01.JPG,2,9,29,1,,,,,,,,,,,,,,,,,,,,,,,AMSA08.jpg,AMNE02.jpg,AMSA07.jpg,AMNE04.jpg,AMSA08.jpg,MS,2,num_8,32,num_2,0.483546886826,,,2017_May_09_1657,59.9992109939,MAFE4ImagesEEG,001,200281,
AFNE01.JPG,AFNE01.JPG,AFNE01.JPG,AFNE01.JPG,AFNE01.JPG,AFNE01.JPG,3,0,30,8,,,,,,,,,,,,,,,,,,,,,,,AMSA18.jpg,AMNE11.jpg,AMSA16.jpg,AMNE14.jpg,AMSA16.jpg,MS,2,num_2,32,num_4,0.866620651213,,,2017_May_09_1657,59.9992109939,MAFE4ImagesEEG,001,200281,
AFNE01.JPG,AFNE01.JPG,AFNE01.JPG,AFNE01.JPG,AFNE01.JPG,AFNE01.JPG,3,1,31,7,,,,,,,,,,,,,,,,,,,,,,,AMNE09.jpg,AMNE17.jpg,AMSA05.jpg,AMSA19.jpg,AMSA05.jpg,MS,2,num_2,16,num_2,2.51665742416,,,2017_May_09_1657,59.9992109939,MAFE4ImagesEEG,001,200281,
AFNE01.JPG,AFNE01.JPG,AFNE01.JPG,AFNE01.JPG,AFNE01.JPG,AFNE01.JPG,3,2,32,3,,,,,,,,,,,,,,,,,,,,,,,AMNE10.jpg,AMSA05.jpg,AMNE13.jpg,AMSA01.jpg,AMSA05.jpg,MS,2,num_6,16,num_6,0.63348278706,,,2017_May_09_1657,59.9992109939,MAFE4ImagesEEG,001,200281,
AFNE01.JPG,AFNE01.JPG,AFNE01.JPG,AFNE01.JPG,AFNE01.JPG,AFNE01.JPG,3,3,33,0,,,,,,,,,,,,,,,,,,,,,,,AMSA15.jpg,AMNE10.jpg,AMNE18.jpg,AMSA01.jpg,AMNE18.jpg,MN,1,num_2,32,num_6,1.03341556014,,,2017_May_09_1657,59.9992109939,MAFE4ImagesEEG,001,200281,
AFNE01.JPG,AFNE01.JPG,AFNE01.JPG,AFNE01.JPG,AFNE01.JPG,AFNE01.JPG,3,4,34,9,,,,,,,,,,,,,,,,,,,,,,,AMNE05.jpg,AMSA17.jpg,AMNE06.jpg,AMSA04.jpg,AMSA04.jpg,MS,2,num_4,32,num_8,0.866735796677,,,2017_May_09_1657,59.9992109939,MAFE4ImagesEEG,001,200281,
AFNE01.JPG,AFNE01.JPG,AFNE01.JPG,AFNE01.JPG,AFNE01.JPG,AFNE01.JPG,3,5,35,6,,,,,,,,,,,,,,,,,,,,,,,AMNE03.jpg,AMNE07.jpg,AMSA16.jpg,AMSA20.jpg,AMSA20.jpg,MS,2,num_4,32,num_6,0.633475730894,,,2017_May_09_1657,59.9992109939,MAFE4ImagesEEG,001,200281,
AFNE01.JPG,AFNE01.JPG,AFNE01.JPG,AFNE01.JPG,AFNE01.JPG,AFNE01.JPG,3,6,36,5,,,,,,,,,,,,,,,,,,,,,,,AMSA13.jpg,AMNE07.jpg,AMNE14.jpg,AMSA16.jpg,AMNE14.jpg,MN,1,num_2,16,num_2,1.68338850583,,,2017_May_09_1657,59.9992109939,MAFE4ImagesEEG,001,200281,
AFNE01.JPG,AFNE01.JPG,AFNE01.JPG,AFNE01.JPG,AFNE01.JPG,AFNE01.JPG,3,7,37,1,,,,,,,,,,,,,,,,,,,,,,,AMSA09.jpg,AMSA19.jpg,AMNE15.jpg,AMNE14.jpg,AMNE15.jpg,MN,1,num_2,32,num_6,0.833495039493,,,2017_May_09_1657,59.9992109939,MAFE4ImagesEEG,001,200281,
AFNE01.JPG,AFNE01.JPG,AFNE01.JPG,AFNE01.JPG,AFNE01.JPG,AFNE01.JPG,3,8,38,4,,,,,,,,,,,,,,,,,,,,,,,AMNE12.jpg,AMSA03.jpg,AMSA15.jpg,AMNE13.jpg,AMSA03.jpg,MS,2,num_6,32,num_4,1.1334309876,,,2017_May_09_1657,59.9992109939,MAFE4ImagesEEG,001,200281,
AFNE01.JPG,AFNE01.JPG,AFNE01.JPG,AFNE01.JPG,AFNE01.JPG,AFNE01.JPG,3,9,39,2,,,,,,,,,,,,,,,,,,,,,,,AMSA03.jpg,AMNE03.jpg,AMNE11.jpg,AMSA02.jpg,AMSA02.jpg,MS,2,num_4,32,num_8,0.749973298283,,,2017_May_09_1657,59.9992109939,MAFE4ImagesEEG,001,200281,
AFNE01.JPG,AFNE01.JPG,AFNE01.JPG,AFNE01.JPG,AFNE01.JPG,AFNE01.JPG,4,0,40,2,,,,,,,,,,,,,,,,,,,,,,,AMSA15.jpg,AMSA11.jpg,AMNE06.jpg,AMNE04.jpg,AMNE04.jpg,MN,1,num_4,32,num_6,0.833433136577,,,2017_May_09_1657,59.9992109939,MAFE4ImagesEEG,001,200281,
AFNE01.JPG,AFNE01.JPG,AFNE01.JPG,AFNE01.JPG,AFNE01.JPG,AFNE01.JPG,4,1,41,3,,,,,,,,,,,,,,,,,,,,,,,AMNE07.jpg,AMNE06.jpg,AMSA02.jpg,AMSA16.jpg,AMNE07.jpg,MN,1,num_8,32,num_6,1.3167154137,,,2017_May_09_1657,59.9992109939,MAFE4ImagesEEG,001,200281,
AFNE01.JPG,AFNE01.JPG,AFNE01.JPG,AFNE01.JPG,AFNE01.JPG,AFNE01.JPG,4,2,42,1,,,,,,,,,,,,,,,,,,,,,,,AMSA03.jpg,AMSA01.jpg,AMNE16.jpg,AMNE03.jpg,AMSA01.jpg,MS,2,num_6,16,num_6,0.633462259779,,,2017_May_09_1657,59.9992109939,MAFE4ImagesEEG,001,200281,
AFNE01.JPG,AFNE01.JPG,AFNE01.JPG,AFNE01.JPG,AFNE01.JPG,AFNE01.JPG,4,3,43,0,,,,,,,,,,,,,,,,,,,,,,,AMSA11.jpg,AMNE13.jpg,AMSA01.jpg,AMNE08.jpg,AMSA01.jpg,MS,2,num_2,16,num_2,0.567071193596,,,2017_May_09_1657,59.9992109939,MAFE4ImagesEEG,001,200281,
AFNE01.JPG,AFNE01.JPG,AFNE01.JPG,AFNE01.JPG,AFNE01.JPG,AFNE01.JPG,4,4,44,8,,,,,,,,,,,,,,,,,,,,,,,AMSA11.jpg,AMNE17.jpg,AMNE11.jpg,AMSA02.jpg,AMNE17.jpg,MN,1,num_6,32,num_4,0.666729638586,,,2017_May_09_1657,59.9992109939,MAFE4ImagesEEG,001,200281,
AFNE01.JPG,AFNE01.JPG,AFNE01.JPG,AFNE01.JPG,AFNE01.JPG,AFNE01.JPG,4,5,45,9,,,,,,,,,,,,,,,,,,,,,,,AMNE05.jpg,AMNE10.jpg,AMSA03.jpg,AMSA02.jpg,AMNE05.jpg,MN,1,num_8,32,num_6,0.616819429444,,,2017_May_09_1657,59.9992109939,MAFE4ImagesEEG,001,200281,
AFNE01.JPG,AFNE01.JPG,AFNE01.JPG,AFNE01.JPG,AFNE01.JPG,AFNE01.JPG,4,6,46,7,,,,,,,,,,,,,,,,,,,,,,,AMNE13.jpg,AMSA12.jpg,AMNE02.jpg,AMSA20.jpg,AMSA20.jpg,MS,2,num_4,32,num_6,0.933451771736,,,2017_May_09_1657,59.9992109939,MAFE4ImagesEEG,001,200281,
AFNE01.JPG,AFNE01.JPG,AFNE01.JPG,AFNE01.JPG,AFNE01.JPG,AFNE01.JPG,4,7,47,5,,,,,,,,,,,,,,,,,,,,,,,AMSA01.jpg,AMSA19.jpg,AMNE14.jpg,AMNE16.jpg,AMSA01.jpg,MS,2,num_8,32,num_4,0.816853492055,,,2017_May_09_1657,59.9992109939,MAFE4ImagesEEG,001,200281,
AFNE01.JPG,AFNE01.JPG,AFNE01.JPG,AFNE01.JPG,AFNE01.JPG,AFNE01.JPG,4,8,48,4,,,,,,,,,,,,,,,,,,,,,,,AMNE09.jpg,AMSA18.jpg,AMSA14.jpg,AMNE15.jpg,AMSA14.jpg,MS,2,num_2,16,num_2,0.733457801398,,,2017_May_09_1657,59.9992109939,MAFE4ImagesEEG,001,200281,
AFNE01.JPG,AFNE01.JPG,AFNE01.JPG,AFNE01.JPG,AFNE01.JPG,AFNE01.JPG,4,9,49,6,,,,,,,,,,,,,,,,,,,,,,,AMNE09.jpg,AMSA11.jpg,AMSA06.jpg,AMNE02.jpg,AMSA06.jpg,MS,2,num_2,32,num_6,0.666798918275,,,2017_May_09_1657,59.9992109939,MAFE4ImagesEEG,001,200281,
AFNE01.JPG,AFNE01.JPG,AFNE01.JPG,AFNE01.JPG,AFNE01.JPG,AFNE01.JPG,5,0,50,9,,,,,,,,,,,,,,,,,,,,,,,AMSA05.jpg,AMNE08.jpg,AMNE07.jpg,AMSA02.jpg,AMSA05.jpg,MS,2,num_8,32,num_6,0.600253897021,,,2017_May_09_1657,59.9992109939,MAFE4ImagesEEG,001,200281,
AFNE01.JPG,AFNE01.JPG,AFNE01.JPG,AFNE01.JPG,AFNE01.JPG,AFNE01.JPG,5,1,51,5,,,,,,,,,,,,,,,,,,,,,,,AMSA16.jpg,AMNE16.jpg,AMNE17.jpg,AMSA09.jpg,AMSA09.jpg,MS,2,num_4,32,num_8,0.650123693049,,,2017_May_09_1657,59.9992109939,MAFE4ImagesEEG,001,200281,
AFNE01.JPG,AFNE01.JPG,AFNE01.JPG,AFNE01.JPG,AFNE01.JPG,AFNE01.JPG,5,2,52,8,,,,,,,,,,,,,,,,,,,,,,,AMSA13.jpg,AMSA15.jpg,AMNE15.jpg,AMNE17.jpg,AMNE15.jpg,MN,1,num_2,16,num_2,0.500135512324,,,2017_May_09_1657,59.9992109939,MAFE4ImagesEEG,001,200281,
AFNE01.JPG,AFNE01.JPG,AFNE01.JPG,AFNE01.JPG,AFNE01.JPG,AFNE01.JPG,5,3,53,6,,,,,,,,,,,,,,,,,,,,,,,AMSA12.jpg,AMNE04.jpg,AMNE12.jpg,AMSA09.jpg,AMSA09.jpg,MS,2,num_4,32,num_6,0.600131053943,,,2017_May_09_1657,59.9992109939,MAFE4ImagesEEG,001,200281,
AFNE01.JPG,AFNE01.JPG,AFNE01.JPG,AFNE01.JPG,AFNE01.JPG,AFNE01.JPG,5,4,54,3,,,,,,,,,,,,,,,,,,,,,,,AMNE08.jpg,AMSA03.jpg,AMSA13.jpg,AMNE06.jpg,AMSA03.jpg,MS,2,num_6,32,num_8,0.583496562904,,,2017_May_09_1657,59.9992109939,MAFE4ImagesEEG,001,200281,
AFNE01.JPG,AFNE01.JPG,AFNE01.JPG,AFNE01.JPG,AFNE01.JPG,AFNE01.JPG,5,5,55,2,,,,,,,,,,,,,,,,,,,,,,,AMNE11.jpg,AMNE01.jpg,AMSA16.jpg,AMSA08.jpg,AMSA08.jpg,MS,2,num_4,16,num_4,0.600123676937,,,2017_May_09_1657,59.9992109939,MAFE4ImagesEEG,001,200281,
AFNE01.JPG,AFNE01.JPG,AFNE01.JPG,AFNE01.JPG,AFNE01.JPG,AFNE01.JPG,5,6,56,1,,,,,,,,,,,,,,,,,,,,,,,AMSA05.jpg,AMNE03.jpg,AMNE11.jpg,AMSA07.jpg,AMSA05.jpg,MS,2,num_8,32,num_2,1.70007046638,,,2017_May_09_1657,59.9992109939,MAFE4ImagesEEG,001,200281,
AFNE01.JPG,AFNE01.JPG,AFNE01.JPG,AFNE01.JPG,AFNE01.JPG,AFNE01.JPG,5,7,57,7,,,,,,,,,,,,,,,,,,,,,,,AMNE19.jpg,AMSA09.jpg,AMNE20.jpg,AMSA08.jpg,AMNE19.jpg,MN,1,num_8,32,num_6,1.25017584534,,,2017_May_09_1657,59.9992109939,MAFE4ImagesEEG,001,200281,
AFNE01.JPG,AFNE01.JPG,AFNE01.JPG,AFNE01.JPG,AFNE01.JPG,AFNE01.JPG,5,8,58,4,,,,,,,,,,,,,,,,,,,,,,,AMSA13.jpg,AMNE12.jpg,AMSA18.jpg,AMNE05.jpg,AMNE12.jpg,MN,1,num_6,32,num_2,0.583520618267,,,2017_May_09_1657,59.9992109939,MAFE4ImagesEEG,001,200281,
AFNE01.JPG,AFNE01.JPG,AFNE01.JPG,AFNE01.JPG,AFNE01.JPG,AFNE01.JPG,5,9,59,0,,,,,,,,,,,,,,,,,,,,,,,AMSA14.jpg,AMNE13.jpg,AMSA04.jpg,AMNE10.jpg,AMNE13.jpg,MN,1,num_6,16,num_6,0.616805958329,,,2017_May_09_1657,59.9992109939,MAFE4ImagesEEG,001,200281,
,,,,,,,,,,,,,,,,,,,,,,,,,,,,,,,,,,,,,,,,,,,space,3.31656755297,2017_May_09_1657,59.9992109939,MAFE4ImagesEEG,001,200281,
AFNE01.JPG,AFNE01.JPG,AFNE01.JPG,AFNE01.JPG,AFNE01.JPG,AFNE01.JPG,,,,,0,0,0,2,,,,,,,,,,,,,,,,,,,AFSA10.jpg,AFNE11.jpg,AFNE12.jpg,AFSA14.jpg,AFSA14.jpg,FS,4,num_4,32,num_2,2.33330596378,,,2017_May_09_1657,59.9992109939,MAFE4ImagesEEG,001,200281,
AFNE01.JPG,AFNE01.JPG,AFNE01.JPG,AFNE01.JPG,AFNE01.JPG,AFNE01.JPG,,,,,0,1,1,3,,,,,,,,,,,,,,,,,,,AFNE13.jpg,AFSA06.jpg,AFSA14.jpg,AFNE18.jpg,AFSA14.jpg,FS,4,num_2,32,num_6,0.516949296463,,,2017_May_09_1657,59.9992109939,MAFE4ImagesEEG,001,200281,
AFNE01.JPG,AFNE01.JPG,AFNE01.JPG,AFNE01.JPG,AFNE01.JPG,AFNE01.JPG,,,,,0,2,2,4,,,,,,,,,,,,,,,,,,,AFSA09.jpg,AFSA05.jpg,AFNE04.jpg,AFNE16.jpg,AFSA09.jpg,FS,4,num_8,32,num_4,0.683730413672,,,2017_May_09_1657,59.9992109939,MAFE4ImagesEEG,001,200281,
AFNE01.JPG,AFNE01.JPG,AFNE01.JPG,AFNE01.JPG,AFNE01.JPG,AFNE01.JPG,,,,,0,3,3,7,,,,,,,,,,,,,,,,,,,AFSA15.jpg,AFSA07.jpg,AFNE02.jpg,AFNE05.jpg,AFSA07.jpg,FS,4,num_6,16,num_6,0.75008716085,,,2017_May_09_1657,59.9992109939,MAFE4ImagesEEG,001,200281,
AFNE01.JPG,AFNE01.JPG,AFNE01.JPG,AFNE01.JPG,AFNE01.JPG,AFNE01.JPG,,,,,0,4,4,0,,,,,,,,,,,,,,,,,,,AFNE14.jpg,AFSA18.jpg,AFSA06.jpg,AFNE16.jpg,AFSA06.jpg,FS,4,num_2,16,num_2,1.00009333505,,,2017_May_09_1657,59.9992109939,MAFE4ImagesEEG,001,200281,
AFNE01.JPG,AFNE01.JPG,AFNE01.JPG,AFNE01.JPG,AFNE01.JPG,AFNE01.JPG,,,,,0,5,5,5,,,,,,,,,,,,,,,,,,,AFNE12.jpg,AFSA08.jpg,AFSA20.jpg,AFNE10.jpg,AFNE12.jpg,FN,3,num_8,16,num_8,0.866883657407,,,2017_May_09_1657,59.9992109939,MAFE4ImagesEEG,001,200281,
AFNE01.JPG,AFNE01.JPG,AFNE01.JPG,AFNE01.JPG,AFNE01.JPG,AFNE01.JPG,,,,,0,6,6,1,,,,,,,,,,,,,,,,,,,AFNE10.jpg,AFSA07.jpg,AFNE13.jpg,AFSA12.jpg,AFNE13.jpg,FN,3,num_2,32,num_4,0.566765849944,,,2017_May_09_1657,59.9992109939,MAFE4ImagesEEG,001,200281,
AFNE01.JPG,AFNE01.JPG,AFNE01.JPG,AFNE01.JPG,AFNE01.JPG,AFNE01.JPG,,,,,0,7,7,9,,,,,,,,,,,,,,,,,,,AFNE08.jpg,AFSA09.jpg,AFNE12.jpg,AFSA06.jpg,AFSA06.jpg,FS,4,num_4,32,num_2,0.433484326582,,,2017_May_09_1657,59.9992109939,MAFE4ImagesEEG,001,200281,
AFNE01.JPG,AFNE01.JPG,AFNE01.JPG,AFNE01.JPG,AFNE01.JPG,AFNE01.JPG,,,,,0,8,8,6,,,,,,,,,,,,,,,,,,,AFSA15.jpg,AFSA09.jpg,AFNE04.jpg,AFNE16.jpg,AFSA09.jpg,FS,4,num_6,16,num_6,0.40006203088,,,2017_May_09_1657,59.9992109939,MAFE4ImagesEEG,001,200281,
AFNE01.JPG,AFNE01.JPG,AFNE01.JPG,AFNE01.JPG,AFNE01.JPG,AFNE01.JPG,,,,,0,9,9,8,,,,,,,,,,,,,,,,,,,AFNE01.jpg,AFSA06.jpg,AFSA02.jpg,AFNE08.jpg,AFNE01.jpg,FN,3,num_8,32,num_4,0.950050340034,,,2017_May_09_1657,59.9992109939,MAFE4ImagesEEG,001,200281,
AFNE01.JPG,AFNE01.JPG,AFNE01.JPG,AFNE01.JPG,AFNE01.JPG,AFNE01.JPG,,,,,1,0,10,0,,,,,,,,,,,,,,,,,,,AFNE20.jpg,AFSA05.jpg,AFNE07.jpg,AFSA02.jpg,AFNE20.jpg,FN,3,num_8,32,num_6,0.966730055399,,,2017_May_09_1657,59.9992109939,MAFE4ImagesEEG,001,200281,
AFNE01.JPG,AFNE01.JPG,AFNE01.JPG,AFNE01.JPG,AFNE01.JPG,AFNE01.JPG,,,,,1,1,11,5,,,,,,,,,,,,,,,,,,,AFSA14.jpg,AFSA03.jpg,AFNE03.jpg,AFNE09.jpg,AFNE09.jpg,FN,3,num_4,32,num_8,1.43307057326,,,2017_May_09_1657,59.9992109939,MAFE4ImagesEEG,001,200281,
AFNE01.JPG,AFNE01.JPG,AFNE01.JPG,AFNE01.JPG,AFNE01.JPG,AFNE01.JPG,,,,,1,2,12,9,,,,,,,,,,,,,,,,,,,AFNE19.jpg,AFSA07.jpg,AFNE14.jpg,AFSA09.jpg,AFSA09.jpg,FS,4,num_4,32,num_2,1.4333881049,,,2017_May_09_1657,59.9992109939,MAFE4ImagesEEG,001,200281,
AFNE01.JPG,AFNE01.JPG,AFNE01.JPG,AFNE01.JPG,AFNE01.JPG,AFNE01.JPG,,,,,1,3,13,3,,,,,,,,,,,,,,,,,,,AFSA16.jpg,AFNE05.jpg,AFSA04.jpg,AFNE12.jpg,AFSA16.jpg,FS,4,num_8,32,num_6,0.500153473811,,,2017_May_09_1657,59.9992109939,MAFE4ImagesEEG,001,200281,
AFNE01.JPG,AFNE01.JPG,AFNE01.JPG,AFNE01.JPG,AFNE01.JPG,AFNE01.JPG,,,,,1,4,14,2,,,,,,,,,,,,,,,,,,,AFNE16.jpg,AFSA03.jpg,AFNE01.jpg,AFSA07.jpg,AFSA03.jpg,FS,4,num_6,16,num_6,0.500186509686,,,2017_May_09_1657,59.9992109939,MAFE4ImagesEEG,001,200281,
AFNE01.JPG,AFNE01.JPG,AFNE01.JPG,AFNE01.JPG,AFNE01.JPG,AFNE01.JPG,,,,,1,5,15,1,,,,,,,,,,,,,,,,,,,AFSA06.jpg,AFNE19.jpg,AFNE04.jpg,AFSA15.jpg,AFSA15.jpg,FS,4,num_4,16,num_4,0.566791188205,,,2017_May_09_1657,59.9992109939,MAFE4ImagesEEG,001,200281,
AFNE01.JPG,AFNE01.JPG,AFNE01.JPG,AFNE01.JPG,AFNE01.JPG,AFNE01.JPG,,,,,1,6,16,6,,,,,,,,,,,,,,,,,,,AFSA19.jpg,AFNE06.jpg,AFNE04.jpg,AFSA11.jpg,AFNE06.jpg,FN,3,num_6,16,num_6,0.366777653107,,,2017_May_09_1657,59.9992109939,MAFE4ImagesEEG,001,200281,
AFNE01.JPG,AFNE01.JPG,AFNE01.JPG,AFNE01.JPG,AFNE01.JPG,AFNE01.JPG,,,,,1,7,17,4,,,,,,,,,,,,,,,,,,,AFSA14.jpg,AFNE02.jpg,AFNE20.jpg,AFSA16.jpg,AFSA14.jpg,FS,4,num_8,16,num_8,0.483572866535,,,2017_May_09_1657,59.9992109939,MAFE4ImagesEEG,001,200281,
AFNE01.JPG,AFNE01.JPG,AFNE01.JPG,AFNE01.JPG,AFNE01.JPG,AFNE01.JPG,,,,,1,8,18,7,,,,,,,,,,,,,,,,,,,AFSA04.jpg,AFNE07.jpg,AFSA20.jpg,AFNE17.jpg,AFSA04.jpg,FS,4,num_8,32,num_4,0.333515085513,,,2017_May_09_1657,59.9992109939,MAFE4ImagesEEG,001,200281,
AFNE01.JPG,AFNE01.JPG,AFNE01.JPG,AFNE01.JPG,AFNE01.JPG,AFNE01.JPG,,,,,1,9,19,8,,,,,,,,,,,,,,,,,,,AFSA07.jpg,AFNE16.jpg,AFNE12.jpg,AFSA09.jpg,AFSA07.jpg,FS,4,num_8,16,num_8,0.600187183358,,,2017_May_09_1657,59.9992109939,MAFE4ImagesEEG,001,200281,
AFNE01.JPG,AFNE01.JPG,AFNE01.JPG,AFNE01.JPG,AFNE01.JPG,AFNE01.JPG,,,,,2,0,20,2,,,,,,,,,,,,,,,,,,,AFSA14.jpg,AFSA16.jpg,AFNE18.jpg,AFNE06.jpg,AFNE06.jpg,FN,3,num_4,32,num_6,0.466799495509,,,2017_May_09_1657,59.9992109939,MAFE4ImagesEEG,001,200281,
AFNE01.JPG,AFNE01.JPG,AFNE01.JPG,AFNE01.JPG,AFNE01.JPG,AFNE01.JPG,,,,,2,1,21,0,,,,,,,,,,,,,,,,,,,AFSA07.jpg,AFNE01.jpg,AFNE02.jpg,AFSA13.jpg,AFNE01.jpg,FN,3,num_6,32,num_4,0.43346957257,,,2017_May_09_1657,59.9992109939,MAFE4ImagesEEG,001,200281,
AFNE01.JPG,AFNE01.JPG,AFNE01.JPG,AFNE01.JPG,AFNE01.JPG,AFNE01.JPG,,,,,2,2,22,4,,,,,,,,,,,,,,,,,,,AFSA01.jpg,AFNE04.jpg,AFSA16.jpg,AFNE16.jpg,AFSA16.jpg,FS,4,num_2,16,num_2,0.43345321482,,,2017_May_09_1657,59.9992109939,MAFE4ImagesEEG,001,200281,
AFNE01.JPG,AFNE01.JPG,AFNE01.JPG,AFNE01.JPG,AFNE01.JPG,AFNE01.JPG,,,,,2,3,23,9,,,,,,,,,,,,,,,,,,,AFSA09.jpg,AFNE11.jpg,AFSA18.jpg,AFNE16.jpg,AFSA09.jpg,FS,4,num_8,32,num_4,0.283227045787,,,2017_May_09_1657,59.9992109939,MAFE4ImagesEEG,001,200281,
AFNE01.JPG,AFNE01.JPG,AFNE01.JPG,AFNE01.JPG,AFNE01.JPG,AFNE01.JPG,,,,,2,4,24,3,,,,,,,,,,,,,,,,,,,AFNE14.jpg,AFSA05.jpg,AFNE15.jpg,AFSA04.jpg,AFSA05.jpg,FS,4,num_6,16,num_6,0.483416025294,,,2017_May_09_1657,59.9992109939,MAFE4ImagesEEG,001,200281,
AFNE01.JPG,AFNE01.JPG,AFNE01.JPG,AFNE01.JPG,AFNE01.JPG,AFNE01.JPG,,,,,2,5,25,5,,,,,,,,,,,,,,,,,,,AFSA15.jpg,AFNE11.jpg,AFSA11.jpg,AFNE10.jpg,AFNE11.jpg,FN,3,num_6,32,num_4,0.583510354627,,,2017_May_09_1657,59.9992109939,MAFE4ImagesEEG,001,200281,
AFNE01.JPG,AFNE01.JPG,AFNE01.JPG,AFNE01.JPG,AFNE01.JPG,AFNE01.JPG,,,,,2,6,26,7,,,,,,,,,,,,,,,,,,,AFNE06.jpg,AFSA14.jpg,AFNE11.jpg,AFSA13.jpg,AFSA13.jpg,FS,4,num_4,32,num_8,0.433521853061,,,2017_May_09_1657,59.9992109939,MAFE4ImagesEEG,001,200281,
AFNE01.JPG,AFNE01.JPG,AFNE01.JPG,AFNE01.JPG,AFNE01.JPG,AFNE01.JPG,,,,,2,7,27,6,,,,,,,,,,,,,,,,,,,AFNE06.jpg,AFSA20.jpg,AFNE13.jpg,AFSA10.jpg,AFSA20.jpg,FS,4,num_6,16,num_6,0.40015312098,,,2017_May_09_1657,59.9992109939,MAFE4ImagesEEG,001,200281,
AFNE01.JPG,AFNE01.JPG,AFNE01.JPG,AFNE01.JPG,AFNE01.JPG,AFNE01.JPG,,,,,2,8,28,1,,,,,,,,,,,,,,,,,,,AFSA14.jpg,AFSA16.jpg,AFNE13.jpg,AFNE15.jpg,AFSA14.jpg,FS,4,num_8,32,num_4,0.283479788108,,,2017_May_09_1657,59.9992109939,MAFE4ImagesEEG,001,200281,
AFNE01.JPG,AFNE01.JPG,AFNE01.JPG,AFNE01.JPG,AFNE01.JPG,AFNE01.JPG,,,,,2,9,29,8,,,,,,,,,,,,,,,,,,,AFNE09.jpg,AFSA10.jpg,AFSA04.jpg,AFNE07.jpg,AFNE07.jpg,FN,3,num_4,32,num_2,0.583445244702,,,2017_May_09_1657,59.9992109939,MAFE4ImagesEEG,001,200281,
AFNE01.JPG,AFNE01.JPG,AFNE01.JPG,AFNE01.JPG,AFNE01.JPG,AFNE01.JPG,,,,,3,0,30,3,,,,,,,,,,,,,,,,,,,AFNE05.jpg,AFSA06.jpg,AFNE20.jpg,AFSA09.jpg,AFSA09.jpg,FS,4,num_4,32,num_6,0.48348626704,,,2017_May_09_1657,59.9992109939,MAFE4ImagesEEG,001,200281,
AFNE01.JPG,AFNE01.JPG,AFNE01.JPG,AFNE01.JPG,AFNE01.JPG,AFNE01.JPG,,,,,3,1,31,9,,,,,,,,,,,,,,,,,,,AFSA12.jpg,AFNE13.jpg,AFSA08.jpg,AFNE09.jpg,AFSA12.jpg,FS,4,num_8,32,num_4,0.666770693148,,,2017_May_09_1657,59.9992109939,MAFE4ImagesEEG,001,200281,
AFNE01.JPG,AFNE01.JPG,AFNE01.JPG,AFNE01.JPG,AFNE01.JPG,AFNE01.JPG,,,,,3,2,32,4,,,,,,,,,,,,,,,,,,,AFNE06.jpg,AFNE18.jpg,AFSA16.jpg,AFSA14.jpg,AFNE18.jpg,FN,3,num_6,32,num_2,0.400114311371,,,2017_May_09_1657,59.9992109939,MAFE4ImagesEEG,001,200281,
AFNE01.JPG,AFNE01.JPG,AFNE01.JPG,AFNE01.JPG,AFNE01.JPG,AFNE01.JPG,,,,,3,3,33,8,,,,,,,,,,,,,,,,,,,AFSA11.jpg,AFNE19.jpg,AFNE13.jpg,AFSA08.jpg,AFNE19.jpg,FN,3,num_6,32,num_8,0.333465049975,,,2017_May_09_1657,59.9992109939,MAFE4ImagesEEG,001,200281,
AFNE01.JPG,AFNE01.JPG,AFNE01.JPG,AFNE01.JPG,AFNE01.JPG,AFNE01.JPG,,,,,3,4,34,1,,,,,,,,,,,,,,,,,,,AFSA15.jpg,AFNE05.jpg,AFNE02.jpg,AFSA05.jpg,AFNE05.jpg,FN,3,num_6,32,num_4,0.533500395715,,,2017_May_09_1657,59.9992109939,MAFE4ImagesEEG,001,200281,
AFNE01.JPG,AFNE01.JPG,AFNE01.JPG,AFNE01.JPG,AFNE01.JPG,AFNE01.JPG,,,,,3,5,35,0,,,,,,,,,,,,,,,,,,,AFNE04.jpg,AFSA08.jpg,AFSA17.jpg,AFNE09.jpg,AFSA17.jpg,FS,4,num_2,32,num_8,0.700152575737,,,2017_May_09_1657,59.9992109939,MAFE4ImagesEEG,001,200281,
AFNE01.JPG,AFNE01.JPG,AFNE01.JPG,AFNE01.JPG,AFNE01.JPG,AFNE01.JPG,,,,,3,6,36,7,,,,,,,,,,,,,,,,,,,AFSA07.jpg,AFNE03.jpg,AFSA18.jpg,AFNE08.jpg,AFSA18.jpg,FS,4,num_2,16,num_2,0.650062752655,,,2017_May_09_1657,59.9992109939,MAFE4ImagesEEG,001,200281,
AFNE01.JPG,AFNE01.JPG,AFNE01.JPG,AFNE01.JPG,AFNE01.JPG,AFNE01.JPG,,,,,3,7,37,2,,,,,,,,,,,,,,,,,,,AFNE10.jpg,AFNE02.jpg,AFSA09.jpg,AFSA03.jpg,AFNE02.jpg,FN,3,num_6,32,num_4,0.666778390761,,,2017_May_09_1657,59.9992109939,MAFE4ImagesEEG,001,200281,
AFNE01.JPG,AFNE01.JPG,AFNE01.JPG,AFNE01.JPG,AFNE01.JPG,AFNE01.JPG,,,,,3,8,38,6,,,,,,,,,,,,,,,,,,,AFNE03.jpg,AFSA09.jpg,AFSA04.jpg,AFNE17.jpg,AFSA04.jpg,FS,4,num_2,32,num_6,0.483486908488,,,2017_May_09_1657,59.9992109939,MAFE4ImagesEEG,001,200281,
AFNE01.JPG,AFNE01.JPG,AFNE01.JPG,AFNE01.JPG,AFNE01.JPG,AFNE01.JPG,,,,,3,9,39,5,,,,,,,,,,,,,,,,,,,AFNE04.jpg,AFNE08.jpg,AFSA15.jpg,AFSA08.jpg,AFSA08.jpg,FS,4,num_4,16,num_4,1.40006555896,,,2017_May_09_1657,59.9992109939,MAFE4ImagesEEG,001,200281,
AFNE01.JPG,AFNE01.JPG,AFNE01.JPG,AFNE01.JPG,AFNE01.JPG,AFNE01.JPG,,,,,4,0,40,8,,,,,,,,,,,,,,,,,,,AFNE07.jpg,AFNE16.jpg,AFSA16.jpg,AFSA09.jpg,AFSA09.jpg,FS,4,num_4,32,num_8,0.283621554729,,,2017_May_09_1657,59.9992109939,MAFE4ImagesEEG,001,200281,
AFNE01.JPG,AFNE01.JPG,AFNE01.JPG,AFNE01.JPG,AFNE01.JPG,AFNE01.JPG,,,,,4,1,41,7,,,,,,,,,,,,,,,,,,,AFNE01.jpg,AFSA12.jpg,AFSA15.jpg,AFNE16.jpg,AFNE16.jpg,FN,3,num_4,32,num_6,0.55015862151,,,2017_May_09_1657,59.9992109939,MAFE4ImagesEEG,001,200281,
AFNE01.JPG,AFNE01.JPG,AFNE01.JPG,AFNE01.JPG,AFNE01.JPG,AFNE01.JPG,,,,,4,2,42,6,,,,,,,,,,,,,,,,,,,AFNE08.jpg,AFSA10.jpg,AFSA20.jpg,AFNE11.jpg,AFSA20.jpg,FS,4,num_2,16,num_2,0.800145551329,,,2017_May_09_1657,59.9992109939,MAFE4ImagesEEG,001,200281,
AFNE01.JPG,AFNE01.JPG,AFNE01.JPG,AFNE01.JPG,AFNE01.JPG,AFNE01.JPG,,,,,4,3,43,5,,,,,,,,,,,,,,,,,,,AFNE16.jpg,AFNE01.jpg,AFSA18.jpg,AFSA13.jpg,AFSA18.jpg,FS,4,num_2,16,num_2,0.850068590138,,,2017_May_09_1657,59.9992109939,MAFE4ImagesEEG,001,200281,
AFNE01.JPG,AFNE01.JPG,AFNE01.JPG,AFNE01.JPG,AFNE01.JPG,AFNE01.JPG,,,,,4,4,44,0,,,,,,,,,,,,,,,,,,,AFNE06.jpg,AFSA19.jpg,AFSA15.jpg,AFNE02.jpg,AFSA19.jpg,FS,4,num_6,16,num_6,0.550066248747,,,2017_May_09_1657,59.9992109939,MAFE4ImagesEEG,001,200281,
AFNE01.JPG,AFNE01.JPG,AFNE01.JPG,AFNE01.JPG,AFNE01.JPG,AFNE01.JPG,,,,,4,5,45,2,,,,,,,,,,,,,,,,,,,AFSA03.jpg,AFNE08.jpg,AFSA05.jpg,AFNE14.jpg,AFSA03.jpg,FS,4,num_8,32,num_2,0.383472763933,,,2017_May_09_1657,59.9992109939,MAFE4ImagesEEG,001,200281,
AFNE01.JPG,AFNE01.JPG,AFNE01.JPG,AFNE01.JPG,AFNE01.JPG,AFNE01.JPG,,,,,4,6,46,1,,,,,,,,,,,,,,,,,,,AFSA01.jpg,AFNE15.jpg,AFNE10.jpg,AFSA09.jpg,AFNE10.jpg,FN,3,num_2,32,num_4,0.316790466662,,,2017_May_09_1657,59.9992109939,MAFE4ImagesEEG,001,200281,
AFNE01.JPG,AFNE01.JPG,AFNE01.JPG,AFNE01.JPG,AFNE01.JPG,AFNE01.JPG,,,,,4,7,47,3,,,,,,,,,,,,,,,,,,,AFNE11.jpg,AFNE17.jpg,AFSA06.jpg,AFSA18.jpg,AFNE17.jpg,FN,3,num_6,32,num_8,0.683486972703,,,2017_May_09_1657,59.9992109939,MAFE4ImagesEEG,001,200281,
AFNE01.JPG,AFNE01.JPG,AFNE01.JPG,AFNE01.JPG,AFNE01.JPG,AFNE01.JPG,,,,,4,8,48,9,,,,,,,,,,,,,,,,,,,AFSA12.jpg,AFNE14.jpg,AFSA11.jpg,AFNE06.jpg,AFSA12.jpg,FS,4,num_8,32,num_2,0.53347569867,,,2017_May_09_1657,59.9992109939,MAFE4ImagesEEG,001,200281,
AFNE01.JPG,AFNE01.JPG,AFNE01.JPG,AFNE01.JPG,AFNE01.JPG,AFNE01.JPG,,,,,4,9,49,4,,,,,,,,,,,,,,,,,,,AFSA15.jpg,AFSA08.jpg,AFNE05.jpg,AFNE16.jpg,AFNE05.jpg,FN,3,num_2,32,num_6,1.95002371864,,,2017_May_09_1657,59.9992109939,MAFE4ImagesEEG,001,200281,
AFNE01.JPG,AFNE01.JPG,AFNE01.JPG,AFNE01.JPG,AFNE01.JPG,AFNE01.JPG,,,,,5,0,50,9,,,,,,,,,,,,,,,,,,,AFNE09.jpg,AFNE01.jpg,AFSA06.jpg,AFSA16.jpg,AFNE01.jpg,FN,3,num_6,32,num_4,0.766798950033,,,2017_May_09_1657,59.9992109939,MAFE4ImagesEEG,001,200281,
AFNE01.JPG,AFNE01.JPG,AFNE01.JPG,AFNE01.JPG,AFNE01.JPG,AFNE01.JPG,,,,,5,1,51,0,,,,,,,,,,,,,,,,,,,AFNE03.jpg,AFSA09.jpg,AFSA05.jpg,AFNE04.jpg,AFSA05.jpg,FS,4,num_2,16,num_2,2.20015562256,,,2017_May_09_1657,59.9992109939,MAFE4ImagesEEG,001,200281,
AFNE01.JPG,AFNE01.JPG,AFNE01.JPG,AFNE01.JPG,AFNE01.JPG,AFNE01.JPG,,,,,5,2,52,5,,,,,,,,,,,,,,,,,,,AFNE15.jpg,AFNE08.jpg,AFSA16.jpg,AFSA08.jpg,AFNE08.jpg,FN,3,num_6,32,num_8,0.633434355492,,,2017_May_09_1657,59.9992109939,MAFE4ImagesEEG,001,200281,
AFNE01.JPG,AFNE01.JPG,AFNE01.JPG,AFNE01.JPG,AFNE01.JPG,AFNE01.JPG,,,,,5,3,53,6,,,,,,,,,,,,,,,,,,,AFNE15.jpg,AFSA09.jpg,AFSA14.jpg,AFNE10.jpg,AFNE10.jpg,FN,3,num_4,16,num_4,0.416642317083,,,2017_May_09_1657,59.9992109939,MAFE4ImagesEEG,001,200281,
AFNE01.JPG,AFNE01.JPG,AFNE01.JPG,AFNE01.JPG,AFNE01.JPG,AFNE01.JPG,,,,,5,4,54,7,,,,,,,,,,,,,,,,,,,AFNE01.jpg,AFSA14.jpg,AFSA12.jpg,AFNE16.jpg,AFNE01.jpg,FN,3,num_8,32,num_6,0.650133636082,,,2017_May_09_1657,59.9992109939,MAFE4ImagesEEG,001,200281,
AFNE01.JPG,AFNE01.JPG,AFNE01.JPG,AFNE01.JPG,AFNE01.JPG,AFNE01.JPG,,,,,5,5,55,8,,,,,,,,,,,,,,,,,,,AFSA09.jpg,AFNE01.jpg,AFNE15.jpg,AFSA18.jpg,AFSA09.jpg,FS,4,num_8,16,num_8,1.1668876023,,,2017_May_09_1657,59.9992109939,MAFE4ImagesEEG,001,200281,
AFNE01.JPG,AFNE01.JPG,AFNE01.JPG,AFNE01.JPG,AFNE01.JPG,AFNE01.JPG,,,,,5,6,56,1,,,,,,,,,,,,,,,,,,,AFSA02.jpg,AFNE13.jpg,AFSA10.jpg,AFNE06.jpg,AFNE13.jpg,FN,3,num_6,32,num_4,0.683595703216,,,2017_May_09_1657,59.9992109939,MAFE4ImagesEEG,001,200281,
AFNE01.JPG,AFNE01.JPG,AFNE01.JPG,AFNE01.JPG,AFNE01.JPG,AFNE01.JPG,,,,,5,7,57,2,,,,,,,,,,,,,,,,,,,AFSA03.jpg,AFNE07.jpg,AFSA12.jpg,AFNE10.jpg,AFSA03.jpg,FS,4,num_8,32,num_6,0.516789247748,,,2017_May_09_1657,59.9992109939,MAFE4ImagesEEG,001,200281,
AFNE01.JPG,AFNE01.JPG,AFNE01.JPG,AFNE01.JPG,AFNE01.JPG,AFNE01.JPG,,,,,5,8,58,3,,,,,,,,,,,,,,,,,,,AFNE13.jpg,AFSA13.jpg,AFSA19.jpg,AFNE16.jpg,AFNE13.jpg,FN,3,num_8,16,num_8,0.833419986302,,,2017_May_09_1657,59.9992109939,MAFE4ImagesEEG,001,200281,
AFNE01.JPG,AFNE01.JPG,AFNE01.JPG,AFNE01.JPG,AFNE01.JPG,AFNE01.JPG,,,,,5,9,59,4,,,,,,,,,,,,,,,,,,,AFSA12.jpg,AFSA02.jpg,AFNE18.jpg,AFNE11.jpg,AFSA02.jpg,FS,4,num_6,32,num_4,1.01661396399,,,2017_May_09_1657,59.9992109939,MAFE4ImagesEEG,001,200281,
,,,,,,,,,,,,,,,,,,,,,,,,,,,,,,,,,,,,,,,,,,,space,5.26645175018,2017_May_09_1657,59.9992109939,MAFE4ImagesEEG,001,200281,
AFNE01.JPG,AFNE01.JPG,AFNE01.JPG,AFNE01.JPG,AFNE01.JPG,AFNE01.JPG,,,,,,,,,0,0,0,7,,,,,,,,,,,,,,,AMNE01.jpg,AMSA07.jpg,AMNE07.jpg,AMSA11.jpg,AMSA11.jpg,MS,2,num_4,32,num_6,0.883768645814,,,2017_May_09_1657,59.9992109939,MAFE4ImagesEEG,001,200281,
AFNE01.JPG,AFNE01.JPG,AFNE01.JPG,AFNE01.JPG,AFNE01.JPG,AFNE01.JPG,,,,,,,,,0,1,1,2,,,,,,,,,,,,,,,AMNE12.jpg,AMSA15.jpg,AMSA20.jpg,AMNE10.jpg,AMNE12.jpg,MN,1,num_8,32,num_4,0.500137116062,,,2017_May_09_1657,59.9992109939,MAFE4ImagesEEG,001,200281,
AFNE01.JPG,AFNE01.JPG,AFNE01.JPG,AFNE01.JPG,AFNE01.JPG,AFNE01.JPG,,,,,,,,,0,2,2,8,,,,,,,,,,,,,,,AMSA14.jpg,AMSA17.jpg,AMNE20.jpg,AMNE14.jpg,AMSA17.jpg,MS,2,num_6,16,num_6,1.13354998198,,,2017_May_09_1657,59.9992109939,MAFE4ImagesEEG,001,200281,
AFNE01.JPG,AFNE01.JPG,AFNE01.JPG,AFNE01.JPG,AFNE01.JPG,AFNE01.JPG,,,,,,,,,0,3,3,3,,,,,,,,,,,,,,,AMSA18.jpg,AMSA10.jpg,AMNE03.jpg,AMNE14.jpg,AMNE03.jpg,MN,1,num_2,32,num_4,0.683464200236,,,2017_May_09_1657,59.9992109939,MAFE4ImagesEEG,001,200281,
AFNE01.JPG,AFNE01.JPG,AFNE01.JPG,AFNE01.JPG,AFNE01.JPG,AFNE01.JPG,,,,,,,,,0,4,4,5,,,,,,,,,,,,,,,AMNE20.jpg,AMSA14.jpg,AMSA12.jpg,AMNE03.jpg,AMNE03.jpg,MN,1,num_4,32,num_8,0.633530577179,,,2017_May_09_1657,59.9992109939,MAFE4ImagesEEG,001,200281,
AFNE01.JPG,AFNE01.JPG,AFNE01.JPG,AFNE01.JPG,AFNE01.JPG,AFNE01.JPG,,,,,,,,,0,5,5,4,,,,,,,,,,,,,,,AMSA18.jpg,AMNE07.jpg,AMSA10.jpg,AMNE13.jpg,AMNE07.jpg,MN,1,num_6,32,num_4,0.616752394941,,,2017_May_09_1657,59.9992109939,MAFE4ImagesEEG,001,200281,
AFNE01.JPG,AFNE01.JPG,AFNE01.JPG,AFNE01.JPG,AFNE01.JPG,AFNE01.JPG,,,,,,,,,0,6,6,9,,,,,,,,,,,,,,,AMNE19.jpg,AMNE04.jpg,AMSA16.jpg,AMSA06.jpg,AMNE19.jpg,MN,1,num_8,32,num_2,0.583350626519,,,2017_May_09_1657,59.9992109939,MAFE4ImagesEEG,001,200281,
AFNE01.JPG,AFNE01.JPG,AFNE01.JPG,AFNE01.JPG,AFNE01.JPG,AFNE01.JPG,,,,,,,,,0,7,7,6,,,,,,,,,,,,,,,AMSA05.jpg,AMNE13.jpg,AMSA04.jpg,AMNE11.jpg,AMSA04.jpg,MS,2,num_2,32,num_6,0.600131695392,,,2017_May_09_1657,59.9992109939,MAFE4ImagesEEG,001,200281,
AFNE01.JPG,AFNE01.JPG,AFNE01.JPG,AFNE01.JPG,AFNE01.JPG,AFNE01.JPG,,,,,,,,,0,8,8,0,,,,,,,,,,,,,,,AMSA04.jpg,AMNE20.jpg,AMNE16.jpg,AMSA13.jpg,AMNE20.jpg,MN,1,num_6,32,num_8,0.516786681954,,,2017_May_09_1657,59.9992109939,MAFE4ImagesEEG,001,200281,
AFNE01.JPG,AFNE01.JPG,AFNE01.JPG,AFNE01.JPG,AFNE01.JPG,AFNE01.JPG,,,,,,,,,0,9,9,1,,,,,,,,,,,,,,,AMNE12.jpg,AMSA06.jpg,AMSA03.jpg,AMNE03.jpg,AMSA06.jpg,MS,2,num_6,16,num_6,0.516899261391,,,2017_May_09_1657,59.9992109939,MAFE4ImagesEEG,001,200281,
AFNE01.JPG,AFNE01.JPG,AFNE01.JPG,AFNE01.JPG,AFNE01.JPG,AFNE01.JPG,,,,,,,,,1,0,10,0,,,,,,,,,,,,,,,AMNE02.jpg,AMSA13.jpg,AMSA03.jpg,AMNE14.jpg,AMNE02.jpg,MN,1,num_8,32,num_2,0.633467712207,,,2017_May_09_1657,59.9992109939,MAFE4ImagesEEG,001,200281,
AFNE01.JPG,AFNE01.JPG,AFNE01.JPG,AFNE01.JPG,AFNE01.JPG,AFNE01.JPG,,,,,,,,,1,1,11,9,,,,,,,,,,,,,,,AMSA06.jpg,AMNE08.jpg,AMNE12.jpg,AMSA12.jpg,AMSA06.jpg,MS,2,num_8,16,num_8,0.900016004918,,,2017_May_09_1657,59.9992109939,MAFE4ImagesEEG,001,200281,
AFNE01.JPG,AFNE01.JPG,AFNE01.JPG,AFNE01.JPG,AFNE01.JPG,AFNE01.JPG,,,,,,,,,1,2,12,1,,,,,,,,,,,,,,,AMSA03.jpg,AMNE07.jpg,AMNE02.jpg,AMSA02.jpg,AMSA02.jpg,MS,2,num_4,32,num_6,0.533573844936,,,2017_May_09_1657,59.9992109939,MAFE4ImagesEEG,001,200281,
AFNE01.JPG,AFNE01.JPG,AFNE01.JPG,AFNE01.JPG,AFNE01.JPG,AFNE01.JPG,,,,,,,,,1,3,13,4,,,,,,,,,,,,,,,AMSA07.jpg,AMSA14.jpg,AMNE12.jpg,AMNE09.jpg,AMSA07.jpg,MS,2,num_8,32,num_2,0.566791829653,,,2017_May_09_1657,59.9992109939,MAFE4ImagesEEG,001,200281,
AFNE01.JPG,AFNE01.JPG,AFNE01.JPG,AFNE01.JPG,AFNE01.JPG,AFNE01.JPG,,,,,,,,,1,4,14,5,,,,,,,,,,,,,,,AMNE06.jpg,AMNE20.jpg,AMSA12.jpg,AMSA19.jpg,AMNE06.jpg,MN,1,num_8,32,num_4,0.533482755069,,,2017_May_09_1657,59.9992109939,MAFE4ImagesEEG,001,200281,
AFNE01.JPG,AFNE01.JPG,AFNE01.JPG,AFNE01.JPG,AFNE01.JPG,AFNE01.JPG,,,,,,,,,1,5,15,3,,,,,,,,,,,,,,,AMNE17.jpg,AMNE05.jpg,AMSA18.jpg,AMSA06.jpg,AMNE17.jpg,MN,1,num_8,32,num_6,0.650138126221,,,2017_May_09_1657,59.9992109939,MAFE4ImagesEEG,001,200281,
AFNE01.JPG,AFNE01.JPG,AFNE01.JPG,AFNE01.JPG,AFNE01.JPG,AFNE01.JPG,,,,,,,,,1,6,16,6,,,,,,,,,,,,,,,AMSA13.jpg,AMSA14.jpg,AMNE16.jpg,AMNE12.jpg,AMNE12.jpg,MN,1,num_4,32,num_2,0.533469604561,,,2017_May_09_1657,59.9992109939,MAFE4ImagesEEG,001,200281,
AFNE01.JPG,AFNE01.JPG,AFNE01.JPG,AFNE01.JPG,AFNE01.JPG,AFNE01.JPG,,,,,,,,,1,7,17,2,,,,,,,,,,,,,,,AMNE12.jpg,AMSA05.jpg,AMNE16.jpg,AMSA13.jpg,AMNE12.jpg,MN,1,num_8,32,num_6,0.450187135255,,,2017_May_09_1657,59.9992109939,MAFE4ImagesEEG,001,200281,
AFNE01.JPG,AFNE01.JPG,AFNE01.JPG,AFNE01.JPG,AFNE01.JPG,AFNE01.JPG,,,,,,,,,1,8,18,7,,,,,,,,,,,,,,,AMNE07.jpg,AMNE04.jpg,AMSA20.jpg,AMSA18.jpg,AMNE04.jpg,MN,1,num_6,32,num_8,0.433468931122,,,2017_May_09_1657,59.9992109939,MAFE4ImagesEEG,001,200281,
AFNE01.JPG,AFNE01.JPG,AFNE01.JPG,AFNE01.JPG,AFNE01.JPG,AFNE01.JPG,,,,,,,,,1,9,19,8,,,,,,,,,,,,,,,AMNE20.jpg,AMNE13.jpg,AMSA09.jpg,AMSA03.jpg,AMNE13.jpg,MN,1,num_6,32,num_4,0.266767036635,,,2017_May_09_1657,59.9992109939,MAFE4ImagesEEG,001,200281,
AFNE01.JPG,AFNE01.JPG,AFNE01.JPG,AFNE01.JPG,AFNE01.JPG,AFNE01.JPG,,,,,,,,,2,0,20,7,,,,,,,,,,,,,,,AMSA18.jpg,AMSA13.jpg,AMNE05.jpg,AMNE06.jpg,AMSA13.jpg,MS,2,num_6,16,num_6,0.450143835507,,,2017_May_09_1657,59.9992109939,MAFE4ImagesEEG,001,200281,
AFNE01.JPG,AFNE01.JPG,AFNE01.JPG,AFNE01.JPG,AFNE01.JPG,AFNE01.JPG,,,,,,,,,2,1,21,5,,,,,,,,,,,,,,,AMSA03.jpg,AMSA13.jpg,AMNE08.jpg,AMNE15.jpg,AMSA13.jpg,MS,2,num_6,32,num_2,0.834386694012,,,2017_May_09_1657,59.9992109939,MAFE4ImagesEEG,001,200281,
AFNE01.JPG,AFNE01.JPG,AFNE01.JPG,AFNE01.JPG,AFNE01.JPG,AFNE01.JPG,,,,,,,,,2,2,22,8,,,,,,,,,,,,,,,AMSA08.jpg,AMSA15.jpg,AMNE11.jpg,AMNE06.jpg,AMSA15.jpg,MS,2,num_6,16,num_6,0.600147411693,,,2017_May_09_1657,59.9992109939,MAFE4ImagesEEG,001,200281,
AFNE01.JPG,AFNE01.JPG,AFNE01.JPG,AFNE01.JPG,AFNE01.JPG,AFNE01.JPG,,,,,,,,,2,3,23,3,,,,,,,,,,,,,,,AMSA01.jpg,AMNE14.jpg,AMNE10.jpg,AMSA14.jpg,AMNE14.jpg,MN,1,num_6,32,num_8,0.716778727481,,,2017_May_09_1657,59.9992109939,MAFE4ImagesEEG,001,200281,
AFNE01.JPG,AFNE01.JPG,AFNE01.JPG,AFNE01.JPG,AFNE01.JPG,AFNE01.JPG,,,,,,,,,2,4,24,6,,,,,,,,,,,,,,,AMSA19.jpg,AMSA15.jpg,AMNE01.jpg,AMNE07.jpg,AMNE07.jpg,MN,1,num_4,16,num_4,0.616780940676,,,2017_May_09_1657,59.9992109939,MAFE4ImagesEEG,001,200281,
AFNE01.JPG,AFNE01.JPG,AFNE01.JPG,AFNE01.JPG,AFNE01.JPG,AFNE01.JPG,,,,,,,,,2,5,25,2,,,,,,,,,,,,,,,AMSA06.jpg,AMNE08.jpg,AMNE03.jpg,AMSA14.jpg,AMSA06.jpg,MS,2,num_8,32,num_6,0.500140002463,,,2017_May_09_1657,59.9992109939,MAFE4ImagesEEG,001,200281,
AFNE01.JPG,AFNE01.JPG,AFNE01.JPG,AFNE01.JPG,AFNE01.JPG,AFNE01.JPG,,,,,,,,,2,6,26,4,,,,,,,,,,,,,,,AMNE13.jpg,AMSA01.jpg,AMSA07.jpg,AMNE02.jpg,AMSA07.jpg,MS,2,num_2,16,num_2,0.483481776668,,,2017_May_09_1657,59.9992109939,MAFE4ImagesEEG,001,200281,
AFNE01.JPG,AFNE01.JPG,AFNE01.JPG,AFNE01.JPG,AFNE01.JPG,AFNE01.JPG,,,,,,,,,2,7,27,9,,,,,,,,,,,,,,,AMSA05.jpg,AMSA11.jpg,AMNE04.jpg,AMNE16.jpg,AMSA05.jpg,MS,2,num_8,32,num_4,0.38351702597,,,2017_May_09_1657,59.9992109939,MAFE4ImagesEEG,001,200281,
AFNE01.JPG,AFNE01.JPG,AFNE01.JPG,AFNE01.JPG,AFNE01.JPG,AFNE01.JPG,,,,,,,,,2,8,28,0,,,,,,,,,,,,,,,AMNE14.jpg,AMSA01.jpg,AMNE07.jpg,AMSA05.jpg,AMSA01.jpg,MS,2,num_6,16,num_6,0.36680780258,,,2017_May_09_1657,59.9992109939,MAFE4ImagesEEG,001,200281,
AFNE01.JPG,AFNE01.JPG,AFNE01.JPG,AFNE01.JPG,AFNE01.JPG,AFNE01.JPG,,,,,,,,,2,9,29,1,,,,,,,,,,,,,,,AMNE15.jpg,AMSA20.jpg,AMSA09.jpg,AMNE02.jpg,AMSA09.jpg,MS,2,num_2,16,num_2,0.716756596696,,,2017_May_09_1657,59.9992109939,MAFE4ImagesEEG,001,200281,
AFNE01.JPG,AFNE01.JPG,AFNE01.JPG,AFNE01.JPG,AFNE01.JPG,AFNE01.JPG,,,,,,,,,3,0,30,9,,,,,,,,,,,,,,,AMSA02.jpg,AMNE01.jpg,AMSA04.jpg,AMNE19.jpg,AMSA02.jpg,MS,2,num_8,32,num_4,0.566771944053,,,2017_May_09_1657,59.9992109939,MAFE4ImagesEEG,001,200281,
AFNE01.JPG,AFNE01.JPG,AFNE01.JPG,AFNE01.JPG,AFNE01.JPG,AFNE01.JPG,,,,,,,,,3,1,31,0,,,,,,,,,,,,,,,AMSA18.jpg,AMNE19.jpg,AMNE15.jpg,AMSA11.jpg,AMNE19.jpg,MN,1,num_6,16,num_6,0.600217653671,,,2017_May_09_1657,59.9992109939,MAFE4ImagesEEG,001,200281,
AFNE01.JPG,AFNE01.JPG,AFNE01.JPG,AFNE01.JPG,AFNE01.JPG,AFNE01.JPG,,,,,,,,,3,2,32,2,,,,,,,,,,,,,,,AMNE16.jpg,AMNE05.jpg,AMSA13.jpg,AMSA10.jpg,AMNE16.jpg,MN,1,num_8,32,num_4,0.616773884278,,,2017_May_09_1657,59.9992109939,MAFE4ImagesEEG,001,200281,
AFNE01.JPG,AFNE01.JPG,AFNE01.JPG,AFNE01.JPG,AFNE01.JPG,AFNE01.JPG,,,,,,,,,3,3,33,8,,,,,,,,,,,,,,,AMNE14.jpg,AMSA17.jpg,AMSA07.jpg,AMNE10.jpg,AMNE10.jpg,MN,1,num_4,32,num_6,0.566897673532,,,2017_May_09_1657,59.9992109939,MAFE4ImagesEEG,001,200281,
AFNE01.JPG,AFNE01.JPG,AFNE01.JPG,AFNE01.JPG,AFNE01.JPG,AFNE01.JPG,,,,,,,,,3,4,34,1,,,,,,,,,,,,,,,AMNE04.jpg,AMSA15.jpg,AMNE11.jpg,AMSA09.jpg,AMSA15.jpg,MS,2,num_6,32,num_2,0.616738602985,,,2017_May_09_1657,59.9992109939,MAFE4ImagesEEG,001,200281,
AFNE01.JPG,AFNE01.JPG,AFNE01.JPG,AFNE01.JPG,AFNE01.JPG,AFNE01.JPG,,,,,,,,,3,5,35,4,,,,,,,,,,,,,,,AMSA17.jpg,AMNE13.jpg,AMSA08.jpg,AMNE05.jpg,AMNE05.jpg,MN,1,num_4,16,num_4,0.483460607938,,,2017_May_09_1657,59.9992109939,MAFE4ImagesEEG,001,200281,
AFNE01.JPG,AFNE01.JPG,AFNE01.JPG,AFNE01.JPG,AFNE01.JPG,AFNE01.JPG,,,,,,,,,3,6,36,5,,,,,,,,,,,,,,,AMSA03.jpg,AMSA13.jpg,AMNE02.jpg,AMNE15.jpg,AMNE15.jpg,MN,1,num_4,32,num_6,0.650244932389,,,2017_May_09_1657,59.9992109939,MAFE4ImagesEEG,001,200281,
AFNE01.JPG,AFNE01.JPG,AFNE01.JPG,AFNE01.JPG,AFNE01.JPG,AFNE01.JPG,,,,,,,,,3,7,37,3,,,,,,,,,,,,,,,AMNE01.jpg,AMSA16.jpg,AMSA07.jpg,AMNE18.jpg,AMNE01.jpg,MN,1,num_8,16,num_8,0.533591806423,,,2017_May_09_1657,59.9992109939,MAFE4ImagesEEG,001,200281,
AFNE01.JPG,AFNE01.JPG,AFNE01.JPG,AFNE01.JPG,AFNE01.JPG,AFNE01.JPG,,,,,,,,,3,8,38,7,,,,,,,,,,,,,,,AMNE15.jpg,AMSA10.jpg,AMNE12.jpg,AMSA15.jpg,AMSA15.jpg,MS,2,num_4,16,num_4,0.983458202332,,,2017_May_09_1657,59.9992109939,MAFE4ImagesEEG,001,200281,
AFNE01.JPG,AFNE01.JPG,AFNE01.JPG,AFNE01.JPG,AFNE01.JPG,AFNE01.JPG,,,,,,,,,3,9,39,6,,,,,,,,,,,,,,,AMNE18.jpg,AMSA09.jpg,AMSA02.jpg,AMNE15.jpg,AMNE15.jpg,MN,1,num_4,32,num_6,0.483578960644,,,2017_May_09_1657,59.9992109939,MAFE4ImagesEEG,001,200281,
AFNE01.JPG,AFNE01.JPG,AFNE01.JPG,AFNE01.JPG,AFNE01.JPG,AFNE01.JPG,,,,,,,,,4,0,40,2,,,,,,,,,,,,,,,AMNE12.jpg,AMNE17.jpg,AMSA03.jpg,AMSA18.jpg,AMSA03.jpg,MS,2,num_2,32,num_4,0.600129771046,,,2017_May_09_1657,59.9992109939,MAFE4ImagesEEG,001,200281,
AFNE01.JPG,AFNE01.JPG,AFNE01.JPG,AFNE01.JPG,AFNE01.JPG,AFNE01.JPG,,,,,,,,,4,1,41,8,,,,,,,,,,,,,,,AMNE14.jpg,AMNE17.jpg,AMSA09.jpg,AMSA15.jpg,AMSA15.jpg,MS,2,num_4,32,num_6,0.583466734039,,,2017_May_09_1657,59.9992109939,MAFE4ImagesEEG,001,200281,
AFNE01.JPG,AFNE01.JPG,AFNE01.JPG,AFNE01.JPG,AFNE01.JPG,AFNE01.JPG,,,,,,,,,4,2,42,7,,,,,,,,,,,,,,,AMNE06.jpg,AMNE09.jpg,AMSA07.jpg,AMSA02.jpg,AMSA02.jpg,MS,2,num_4,32,num_6,0.666754656006,,,2017_May_09_1657,59.9992109939,MAFE4ImagesEEG,001,200281,
AFNE01.JPG,AFNE01.JPG,AFNE01.JPG,AFNE01.JPG,AFNE01.JPG,AFNE01.JPG,,,,,,,,,4,3,43,0,,,,,,,,,,,,,,,AMNE19.jpg,AMSA15.jpg,AMSA04.jpg,AMNE06.jpg,AMSA15.jpg,MS,2,num_6,32,num_4,0.466771590989,,,2017_May_09_1657,59.9992109939,MAFE4ImagesEEG,001,200281,
AFNE01.JPG,AFNE01.JPG,AFNE01.JPG,AFNE01.JPG,AFNE01.JPG,AFNE01.JPG,,,,,,,,,4,4,44,9,,,,,,,,,,,,,,,AMSA15.jpg,AMSA05.jpg,AMNE09.jpg,AMNE18.jpg,AMNE09.jpg,MN,1,num_2,16,num_2,0.400161460042,,,2017_May_09_1657,59.9992109939,MAFE4ImagesEEG,001,200281,
AFNE01.JPG,AFNE01.JPG,AFNE01.JPG,AFNE01.JPG,AFNE01.JPG,AFNE01.JPG,,,,,,,,,4,5,45,4,,,,,,,,,,,,,,,AMSA20.jpg,AMSA11.jpg,AMNE10.jpg,AMNE12.jpg,AMSA11.jpg,MS,2,num_6,16,num_6,0.466816494474,,,2017_May_09_1657,59.9992109939,MAFE4ImagesEEG,001,200281,
AFNE01.JPG,AFNE01.JPG,AFNE01.JPG,AFNE01.JPG,AFNE01.JPG,AFNE01.JPG,,,,,,,,,4,6,46,1,,,,,,,,,,,,,,,AMNE02.jpg,AMSA15.jpg,AMSA05.jpg,AMNE07.jpg,AMNE02.jpg,MN,1,num_8,16,num_8,0.416795630706,,,2017_May_09_1657,59.9992109939,MAFE4ImagesEEG,001,200281,
AFNE01.JPG,AFNE01.JPG,AFNE01.JPG,AFNE01.JPG,AFNE01.JPG,AFNE01.JPG,,,,,,,,,4,7,47,3,,,,,,,,,,,,,,,AMNE08.jpg,AMSA14.jpg,AMSA19.jpg,AMNE01.jpg,AMNE01.jpg,MN,1,num_4,32,num_2,0.450166287133,,,2017_May_09_1657,59.9992109939,MAFE4ImagesEEG,001,200281,
AFNE01.JPG,AFNE01.JPG,AFNE01.JPG,AFNE01.JPG,AFNE01.JPG,AFNE01.JPG,,,,,,,,,4,8,48,6,,,,,,,,,,,,,,,AMNE08.jpg,AMSA14.jpg,AMNE01.jpg,AMSA11.jpg,AMSA11.jpg,MS,2,num_4,16,num_4,2.5832858372,,,2017_May_09_1657,59.9992109939,MAFE4ImagesEEG,001,200281,
AFNE01.JPG,AFNE01.JPG,AFNE01.JPG,AFNE01.JPG,AFNE01.JPG,AFNE01.JPG,,,,,,,,,4,9,49,5,,,,,,,,,,,,,,,AMSA02.jpg,AMNE12.jpg,AMSA12.jpg,AMNE01.jpg,AMSA12.jpg,MS,2,num_2,16,num_2,0.400173648028,,,2017_May_09_1657,59.9992109939,MAFE4ImagesEEG,001,200281,
AFNE01.JPG,AFNE01.JPG,AFNE01.JPG,AFNE01.JPG,AFNE01.JPG,AFNE01.JPG,,,,,,,,,5,0,50,7,,,,,,,,,,,,,,,AMSA08.jpg,AMSA09.jpg,AMNE20.jpg,AMNE19.jpg,AMNE20.jpg,MN,1,num_2,32,num_6,0.333589817863,,,2017_May_09_1657,59.9992109939,MAFE4ImagesEEG,001,200281,
AFNE01.JPG,AFNE01.JPG,AFNE01.JPG,AFNE01.JPG,AFNE01.JPG,AFNE01.JPG,,,,,,,,,5,1,51,1,,,,,,,,,,,,,,,AMSA01.jpg,AMSA15.jpg,AMNE12.jpg,AMNE09.jpg,AMSA15.jpg,MS,2,num_6,16,num_6,0.416793385521,,,2017_May_09_1657,59.9992109939,MAFE4ImagesEEG,001,200281,
AFNE01.JPG,AFNE01.JPG,AFNE01.JPG,AFNE01.JPG,AFNE01.JPG,AFNE01.JPG,,,,,,,,,5,2,52,4,,,,,,,,,,,,,,,AMSA02.jpg,AMNE03.jpg,AMNE02.jpg,AMSA09.jpg,AMSA09.jpg,MS,2,num_4,16,num_4,0.566759114154,,,2017_May_09_1657,59.9992109939,MAFE4ImagesEEG,001,200281,
AFNE01.JPG,AFNE01.JPG,AFNE01.JPG,AFNE01.JPG,AFNE01.JPG,AFNE01.JPG,,,,,,,,,5,3,53,3,,,,,,,,,,,,,,,AMSA17.jpg,AMNE19.jpg,AMNE02.jpg,AMSA02.jpg,AMNE19.jpg,MN,1,num_6,32,num_2,0.750112819951,,,2017_May_09_1657,59.9992109939,MAFE4ImagesEEG,001,200281,
AFNE01.JPG,AFNE01.JPG,AFNE01.JPG,AFNE01.JPG,AFNE01.JPG,AFNE01.JPG,,,,,,,,,5,4,54,8,,,,,,,,,,,,,,,AMNE13.jpg,AMSA11.jpg,AMNE10.jpg,AMSA17.jpg,AMNE13.jpg,MN,1,num_8,32,num_4,0.616733150557,,,2017_May_09_1657,59.9992109939,MAFE4ImagesEEG,001,200281,
AFNE01.JPG,AFNE01.JPG,AFNE01.JPG,AFNE01.JPG,AFNE01.JPG,AFNE01.JPG,,,,,,,,,5,5,55,6,,,,,,,,,,,,,,,AMSA06.jpg,AMNE11.jpg,AMNE18.jpg,AMSA13.jpg,AMSA13.jpg,MS,2,num_4,32,num_2,1.2834409785,,,2017_May_09_1657,59.9992109939,MAFE4ImagesEEG,001,200281,
AFNE01.JPG,AFNE01.JPG,AFNE01.JPG,AFNE01.JPG,AFNE01.JPG,AFNE01.JPG,,,,,,,,,5,6,56,0,,,,,,,,,,,,,,,AMSA11.jpg,AMNE06.jpg,AMSA03.jpg,AMNE03.jpg,AMSA03.jpg,MS,2,num_2,16,num_2,0.816611013142,,,2017_May_09_1657,59.9992109939,MAFE4ImagesEEG,001,200281,
AFNE01.JPG,AFNE01.JPG,AFNE01.JPG,AFNE01.JPG,AFNE01.JPG,AFNE01.JPG,,,,,,,,,5,7,57,5,,,,,,,,,,,,,,,AMNE13.jpg,AMSA04.jpg,AMSA06.jpg,AMNE05.jpg,AMSA04.jpg,MS,2,num_6,16,num_6,0.583499128697,,,2017_May_09_1657,59.9992109939,MAFE4ImagesEEG,001,200281,
AFNE01.JPG,AFNE01.JPG,AFNE01.JPG,AFNE01.JPG,AFNE01.JPG,AFNE01.JPG,,,,,,,,,5,8,58,2,,,,,,,,,,,,,,,AMSA07.jpg,AMNE06.jpg,AMSA09.jpg,AMNE09.jpg,AMNE06.jpg,MN,1,num_6,32,num_2,0.400163384387,,,2017_May_09_1657,59.9992109939,MAFE4ImagesEEG,001,200281,
AFNE01.JPG,AFNE01.JPG,AFNE01.JPG,AFNE01.JPG,AFNE01.JPG,AFNE01.JPG,,,,,,,,,5,9,59,9,,,,,,,,,,,,,,,AMSA12.jpg,AMNE06.jpg,AMNE16.jpg,AMSA04.jpg,AMSA04.jpg,MS,2,num_4,32,num_6,0.383500026772,,,2017_May_09_1657,59.9992109939,MAFE4ImagesEEG,001,200281,
,,,,,,,,,,,,,,,,,,,,,,,,,,,,,,,,,,,,,,,,,,,space,2.49999278341,2017_May_09_1657,59.9992109939,MAFE4ImagesEEG,001,200281,
AFNE01.JPG,AFNE01.JPG,AFNE01.JPG,AFNE01.JPG,AFNE01.JPG,AFNE01.JPG,,,,,,,,,,,,,0,0,0,8,,,,,,,,,,,AFNE05.jpg,AFSA01.jpg,AFNE02.jpg,AFSA13.jpg,AFSA01.jpg,FS,4,num_6,32,num_4,0.533575769281,,,2017_May_09_1657,59.9992109939,MAFE4ImagesEEG,001,200281,
AFNE01.JPG,AFNE01.JPG,AFNE01.JPG,AFNE01.JPG,AFNE01.JPG,AFNE01.JPG,,,,,,,,,,,,,0,1,1,9,,,,,,,,,,,AFNE13.jpg,AFSA07.jpg,AFSA16.jpg,AFNE01.jpg,AFNE01.jpg,FN,3,num_4,32,num_6,0.566766170785,,,2017_May_09_1657,59.9992109939,MAFE4ImagesEEG,001,200281,
AFNE01.JPG,AFNE01.JPG,AFNE01.JPG,AFNE01.JPG,AFNE01.JPG,AFNE01.JPG,,,,,,,,,,,,,0,2,2,5,,,,,,,,,,,AFSA03.jpg,AFSA02.jpg,AFNE15.jpg,AFNE13.jpg,AFSA03.jpg,FS,4,num_8,32,num_4,0.466661256971,,,2017_May_09_1657,59.9992109939,MAFE4ImagesEEG,001,200281,
AFNE01.JPG,AFNE01.JPG,AFNE01.JPG,AFNE01.JPG,AFNE01.JPG,AFNE01.JPG,,,,,,,,,,,,,0,3,3,1,,,,,,,,,,,AFNE20.jpg,AFSA09.jpg,AFNE04.jpg,AFSA07.jpg,AFSA09.jpg,FS,4,num_6,16,num_6,0.383466349216,,,2017_May_09_1657,59.9992109939,MAFE4ImagesEEG,001,200281,
AFNE01.JPG,AFNE01.JPG,AFNE01.JPG,AFNE01.JPG,AFNE01.JPG,AFNE01.JPG,,,,,,,,,,,,,0,4,4,7,,,,,,,,,,,AFSA15.jpg,AFSA05.jpg,AFNE05.jpg,AFNE12.jpg,AFSA15.jpg,FS,4,num_8,32,num_2,0.400172685971,,,2017_May_09_1657,59.9992109939,MAFE4ImagesEEG,001,200281,
AFNE01.JPG,AFNE01.JPG,AFNE01.JPG,AFNE01.JPG,AFNE01.JPG,AFNE01.JPG,,,,,,,,,,,,,0,5,5,2,,,,,,,,,,,AFSA07.jpg,AFNE19.jpg,AFSA02.jpg,AFNE05.jpg,AFNE19.jpg,FN,3,num_6,16,num_6,0.516755249584,,,2017_May_09_1657,59.9992109939,MAFE4ImagesEEG,001,200281,
AFNE01.JPG,AFNE01.JPG,AFNE01.JPG,AFNE01.JPG,AFNE01.JPG,AFNE01.JPG,,,,,,,,,,,,,0,6,6,3,,,,,,,,,,,AFSA02.jpg,AFNE17.jpg,AFNE14.jpg,AFSA18.jpg,AFNE17.jpg,FN,3,num_6,32,num_8,0.417159027886,,,2017_May_09_1657,59.9992109939,MAFE4ImagesEEG,001,200281,
AFNE01.JPG,AFNE01.JPG,AFNE01.JPG,AFNE01.JPG,AFNE01.JPG,AFNE01.JPG,,,,,,,,,,,,,0,7,7,6,,,,,,,,,,,AFSA10.jpg,AFNE14.jpg,AFSA17.jpg,AFNE11.jpg,AFSA10.jpg,FS,4,num_8,32,num_4,0.966776883462,,,2017_May_09_1657,59.9992109939,MAFE4ImagesEEG,001,200281,
AFNE01.JPG,AFNE01.JPG,AFNE01.JPG,AFNE01.JPG,AFNE01.JPG,AFNE01.JPG,,,,,,,,,,,,,0,8,8,0,,,,,,,,,,,AFNE19.jpg,AFNE12.jpg,AFSA01.jpg,AFSA18.jpg,AFSA01.jpg,FS,4,num_2,32,num_4,0.866899373708,,,2017_May_09_1657,59.9992109939,MAFE4ImagesEEG,001,200281,
AFNE01.JPG,AFNE01.JPG,AFNE01.JPG,AFNE01.JPG,AFNE01.JPG,AFNE01.JPG,,,,,,,,,,,,,0,9,9,4,,,,,,,,,,,AFNE03.jpg,AFSA20.jpg,AFSA11.jpg,AFNE01.jpg,AFSA11.jpg,FS,4,num_2,16,num_2,0.466834455961,,,2017_May_09_1657,59.9992109939,MAFE4ImagesEEG,001,200281,
AFNE01.JPG,AFNE01.JPG,AFNE01.JPG,AFNE01.JPG,AFNE01.JPG,AFNE01.JPG,,,,,,,,,,,,,1,0,10,6,,,,,,,,,,,AFSA09.jpg,AFNE05.jpg,AFSA03.jpg,AFNE09.jpg,AFSA09.jpg,FS,4,num_8,16,num_8,0.533529262058,,,2017_May_09_1657,59.9992109939,MAFE4ImagesEEG,001,200281,
AFNE01.JPG,AFNE01.JPG,AFNE01.JPG,AFNE01.JPG,AFNE01.JPG,AFNE01.JPG,,,,,,,,,,,,,1,1,11,1,,,,,,,,,,,AFSA08.jpg,AFNE10.jpg,AFSA13.jpg,AFNE15.jpg,AFSA13.jpg,FS,4,num_2,32,num_4,0.700144557049,,,2017_May_09_1657,59.9992109939,MAFE4ImagesEEG,001,200281,
AFNE01.JPG,AFNE01.JPG,AFNE01.JPG,AFNE01.JPG,AFNE01.JPG,AFNE01.JPG,,,,,,,,,,,,,1,2,12,2,,,,,,,,,,,AFNE17.jpg,AFNE08.jpg,AFSA12.jpg,AFSA13.jpg,AFSA12.jpg,FS,4,num_2,32,num_8,0.600142921321,,,2017_May_09_1657,59.9992109939,MAFE4ImagesEEG,001,200281,
AFNE01.JPG,AFNE01.JPG,AFNE01.JPG,AFNE01.JPG,AFNE01.JPG,AFNE01.JPG,,,,,,,,,,,,,1,3,13,8,,,,,,,,,,,AFNE20.jpg,AFSA15.jpg,AFSA08.jpg,AFNE01.jpg,AFSA15.jpg,FS,4,num_6,32,num_2,0.533453888493,,,2017_May_09_1657,59.9992109939,MAFE4ImagesEEG,001,200281,
AFNE01.JPG,AFNE01.JPG,AFNE01.JPG,AFNE01.JPG,AFNE01.JPG,AFNE01.JPG,,,,,,,,,,,,,1,4,14,0,,,,,,,,,,,AFSA06.jpg,AFSA16.jpg,AFNE17.jpg,AFNE08.jpg,AFSA16.jpg,FS,4,num_6,32,num_4,0.900107094785,,,2017_May_09_1657,59.9992109939,MAFE4ImagesEEG,001,200281,
AFNE01.JPG,AFNE01.JPG,AFNE01.JPG,AFNE01.JPG,AFNE01.JPG,AFNE01.JPG,,,,,,,,,,,,,1,5,15,4,,,,,,,,,,,AFSA04.jpg,AFNE13.jpg,AFNE18.jpg,AFSA19.jpg,AFNE13.jpg,FN,3,num_6,16,num_6,0.550130075775,,,2017_May_09_1657,59.9992109939,MAFE4ImagesEEG,001,200281,
AFNE01.JPG,AFNE01.JPG,AFNE01.JPG,AFNE01.JPG,AFNE01.JPG,AFNE01.JPG,,,,,,,,,,,,,1,6,16,9,,,,,,,,,,,AFSA01.jpg,AFNE02.jpg,AFSA10.jpg,AFNE16.jpg,AFSA10.jpg,FS,4,num_2,32,num_4,0.933422263712,,,2017_May_09_1657,59.9992109939,MAFE4ImagesEEG,001,200281,
AFNE01.JPG,AFNE01.JPG,AFNE01.JPG,AFNE01.JPG,AFNE01.JPG,AFNE01.JPG,,,,,,,,,,,,,1,7,17,5,,,,,,,,,,,AFSA11.jpg,AFNE05.jpg,AFNE01.jpg,AFSA12.jpg,AFSA12.jpg,FS,4,num_4,32,num_8,0.433493307326,,,2017_May_09_1657,59.9992109939,MAFE4ImagesEEG,001,200281,
AFNE01.JPG,AFNE01.JPG,AFNE01.JPG,AFNE01.JPG,AFNE01.JPG,AFNE01.JPG,,,,,,,,,,,,,1,8,18,7,,,,,,,,,,,AFNE18.jpg,AFNE11.jpg,AFSA10.jpg,AFSA20.jpg,AFSA10.jpg,FS,4,num_2,16,num_2,0.350133219035,,,2017_May_09_1657,59.9992109939,MAFE4ImagesEEG,001,200281,
AFNE01.JPG,AFNE01.JPG,AFNE01.JPG,AFNE01.JPG,AFNE01.JPG,AFNE01.JPG,,,,,,,,,,,,,1,9,19,3,,,,,,,,,,,AFSA07.jpg,AFNE04.jpg,AFSA17.jpg,AFNE19.jpg,AFSA07.jpg,FS,4,num_8,32,num_2,0.316795919323,,,2017_May_09_1657,59.9992109939,MAFE4ImagesEEG,001,200281,
AFNE01.JPG,AFNE01.JPG,AFNE01.JPG,AFNE01.JPG,AFNE01.JPG,AFNE01.JPG,,,,,,,,,,,,,2,0,20,2,,,,,,,,,,,AFNE03.jpg,AFSA02.jpg,AFNE08.jpg,AFSA08.jpg,AFSA08.jpg,FS,4,num_4,32,num_6,0.366839876631,,,2017_May_09_1657,59.9992109939,MAFE4ImagesEEG,001,200281,
AFNE01.JPG,AFNE01.JPG,AFNE01.JPG,AFNE01.JPG,AFNE01.JPG,AFNE01.JPG,,,,,,,,,,,,,2,1,21,5,,,,,,,,,,,AFNE08.jpg,AFNE14.jpg,AFSA01.jpg,AFSA14.jpg,AFNE14.jpg,FN,3,num_6,32,num_4,0.483471833868,,,2017_May_09_1657,59.9992109939,MAFE4ImagesEEG,001,200281,
AFNE01.JPG,AFNE01.JPG,AFNE01.JPG,AFNE01.JPG,AFNE01.JPG,AFNE01.JPG,,,,,,,,,,,,,2,2,22,0,,,,,,,,,,,AFNE07.jpg,AFSA08.jpg,AFNE01.jpg,AFSA09.jpg,AFNE07.jpg,FN,3,num_8,16,num_8,0.433439743705,,,2017_May_09_1657,59.9992109939,MAFE4ImagesEEG,001,200281,
AFNE01.JPG,AFNE01.JPG,AFNE01.JPG,AFNE01.JPG,AFNE01.JPG,AFNE01.JPG,,,,,,,,,,,,,2,3,23,3,,,,,,,,,,,AFSA09.jpg,AFNE10.jpg,AFNE17.jpg,AFSA06.jpg,AFSA09.jpg,FS,4,num_8,32,num_4,0.433475345839,,,2017_May_09_1657,59.9992109939,MAFE4ImagesEEG,001,200281,
AFNE01.JPG,AFNE01.JPG,AFNE01.JPG,AFNE01.JPG,AFNE01.JPG,AFNE01.JPG,,,,,,,,,,,,,2,4,24,4,,,,,,,,,,,AFSA19.jpg,AFSA11.jpg,AFNE07.jpg,AFNE12.jpg,AFNE12.jpg,FN,3,num_4,32,num_6,0.46677704365,,,2017_May_09_1657,59.9992109939,MAFE4ImagesEEG,001,200281,
AFNE01.JPG,AFNE01.JPG,AFNE01.JPG,AFNE01.JPG,AFNE01.JPG,AFNE01.JPG,,,,,,,,,,,,,2,5,25,9,,,,,,,,,,,AFSA14.jpg,AFSA08.jpg,AFNE14.jpg,AFNE19.jpg,AFNE19.jpg,FN,3,num_4,16,num_4,0.416790819494,,,2017_May_09_1657,59.9992109939,MAFE4ImagesEEG,001,200281,
AFNE01.JPG,AFNE01.JPG,AFNE01.JPG,AFNE01.JPG,AFNE01.JPG,AFNE01.JPG,,,,,,,,,,,,,2,6,26,8,,,,,,,,,,,AFNE01.jpg,AFSA02.jpg,AFNE20.jpg,AFSA16.jpg,AFNE01.jpg,FN,3,num_8,32,num_2,0.533532790141,,,2017_May_09_1657,59.9992109939,MAFE4ImagesEEG,001,200281,
AFNE01.JPG,AFNE01.JPG,AFNE01.JPG,AFNE01.JPG,AFNE01.JPG,AFNE01.JPG,,,,,,,,,,,,,2,7,27,7,,,,,,,,,,,AFNE12.jpg,AFNE08.jpg,AFSA13.jpg,AFSA16.jpg,AFSA16.jpg,FS,4,num_4,32,num_6,0.483470550971,,,2017_May_09_1657,59.9992109939,MAFE4ImagesEEG,001,200281,
AFNE01.JPG,AFNE01.JPG,AFNE01.JPG,AFNE01.JPG,AFNE01.JPG,AFNE01.JPG,,,,,,,,,,,,,2,8,28,1,,,,,,,,,,,AFSA05.jpg,AFNE17.jpg,AFSA09.jpg,AFNE13.jpg,AFNE17.jpg,FN,3,num_6,32,num_2,1.31669713161,,,2017_May_09_1657,59.9992109939,MAFE4ImagesEEG,001,200281,
AFNE01.JPG,AFNE01.JPG,AFNE01.JPG,AFNE01.JPG,AFNE01.JPG,AFNE01.JPG,,,,,,,,,,,,,2,9,29,6,,,,,,,,,,,AFSA13.jpg,AFSA07.jpg,AFNE01.jpg,AFNE08.jpg,AFSA07.jpg,FS,4,num_6,16,num_6,0.400243890006,,,2017_May_09_1657,59.9992109939,MAFE4ImagesEEG,001,200281,
AFNE01.JPG,AFNE01.JPG,AFNE01.JPG,AFNE01.JPG,AFNE01.JPG,AFNE01.JPG,,,,,,,,,,,,,3,0,30,9,,,,,,,,,,,AFSA04.jpg,AFNE20.jpg,AFSA05.jpg,AFNE08.jpg,AFNE20.jpg,FN,3,num_6,32,num_4,0.400172685971,,,2017_May_09_1657,59.9992109939,MAFE4ImagesEEG,001,200281,
AFNE01.JPG,AFNE01.JPG,AFNE01.JPG,AFNE01.JPG,AFNE01.JPG,AFNE01.JPG,,,,,,,,,,,,,3,1,31,6,,,,,,,,,,,AFSA20.jpg,AFNE07.jpg,AFSA15.jpg,AFNE13.jpg,AFSA20.jpg,FS,4,num_8,32,num_6,0.416789857205,,,2017_May_09_1657,59.9992109939,MAFE4ImagesEEG,001,200281,
AFNE01.JPG,AFNE01.JPG,AFNE01.JPG,AFNE01.JPG,AFNE01.JPG,AFNE01.JPG,,,,,,,,,,,,,3,2,32,1,,,,,,,,,,,AFNE17.jpg,AFNE02.jpg,AFSA13.jpg,AFSA01.jpg,AFNE02.jpg,FN,3,num_6,32,num_8,0.41675489652,,,2017_May_09_1657,59.9992109939,MAFE4ImagesEEG,001,200281,
AFNE01.JPG,AFNE01.JPG,AFNE01.JPG,AFNE01.JPG,AFNE01.JPG,AFNE01.JPG,,,,,,,,,,,,,3,3,33,4,,,,,,,,,,,AFSA17.jpg,AFSA13.jpg,AFNE10.jpg,AFNE01.jpg,AFNE01.jpg,FN,3,num_4,32,num_2,0.800123741152,,,2017_May_09_1657,59.9992109939,MAFE4ImagesEEG,001,200281,
AFNE01.JPG,AFNE01.JPG,AFNE01.JPG,AFNE01.JPG,AFNE01.JPG,AFNE01.JPG,,,,,,,,,,,,,3,4,34,5,,,,,,,,,,,AFNE17.jpg,AFSA06.jpg,AFSA11.jpg,AFNE02.jpg,AFSA11.jpg,FS,4,num_2,16,num_2,0.366798180388,,,2017_May_09_1657,59.9992109939,MAFE4ImagesEEG,001,200281,
AFNE01.JPG,AFNE01.JPG,AFNE01.JPG,AFNE01.JPG,AFNE01.JPG,AFNE01.JPG,,,,,,,,,,,,,3,5,35,3,,,,,,,,,,,AFSA12.jpg,AFNE12.jpg,AFNE17.jpg,AFSA18.jpg,AFSA18.jpg,FS,4,num_4,32,num_6,1.20022073272,,,2017_May_09_1657,59.9992109939,MAFE4ImagesEEG,001,200281,
AFNE01.JPG,AFNE01.JPG,AFNE01.JPG,AFNE01.JPG,AFNE01.JPG,AFNE01.JPG,,,,,,,,,,,,,3,6,36,2,,,,,,,,,,,AFNE09.jpg,AFNE16.jpg,AFSA19.jpg,AFSA11.jpg,AFSA11.jpg,FS,4,num_4,32,num_8,0.100123195909,,,2017_May_09_1657,59.9992109939,MAFE4ImagesEEG,001,200281,
AFNE01.JPG,AFNE01.JPG,AFNE01.JPG,AFNE01.JPG,AFNE01.JPG,AFNE01.JPG,,,,,,,,,,,,,3,7,37,7,,,,,,,,,,,AFSA08.jpg,AFNE10.jpg,AFNE08.jpg,AFSA03.jpg,AFSA08.jpg,FS,4,num_8,32,num_2,0.699967829976,,,2017_May_09_1657,59.9992109939,MAFE4ImagesEEG,001,200281,
AFNE01.JPG,AFNE01.JPG,AFNE01.JPG,AFNE01.JPG,AFNE01.JPG,AFNE01.JPG,,,,,,,,,,,,,3,8,38,0,,,,,,,,,,,AFSA10.jpg,AFNE16.jpg,AFNE19.jpg,AFSA03.jpg,AFSA10.jpg,FS,4,num_8,32,num_6,0.716760124778,,,2017_May_09_1657,59.9992109939,MAFE4ImagesEEG,001,200281,
AFNE01.JPG,AFNE01.JPG,AFNE01.JPG,AFNE01.JPG,AFNE01.JPG,AFNE01.JPG,,,,,,,,,,,,,3,9,39,8,,,,,,,,,,,AFSA10.jpg,AFSA01.jpg,AFNE02.jpg,AFNE19.jpg,AFNE19.jpg,FN,3,num_4,16,num_4,0.500142247882,,,2017_May_09_1657,59.9992109939,MAFE4ImagesEEG,001,200281,
AFNE01.JPG,AFNE01.JPG,AFNE01.JPG,AFNE01.JPG,AFNE01.JPG,AFNE01.JPG,,,,,,,,,,,,,4,0,40,3,,,,,,,,,,,AFNE14.jpg,AFSA10.jpg,AFSA14.jpg,AFNE01.jpg,AFSA14.jpg,FS,4,num_2,32,num_6,0.633510049898,,,2017_May_09_1657,59.9992109939,MAFE4ImagesEEG,001,200281,
AFNE01.JPG,AFNE01.JPG,AFNE01.JPG,AFNE01.JPG,AFNE01.JPG,AFNE01.JPG,,,,,,,,,,,,,4,1,41,4,,,,,,,,,,,AFSA13.jpg,AFSA20.jpg,AFNE01.jpg,AFNE19.jpg,AFSA20.jpg,FS,4,num_6,32,num_2,0.483485304983,,,2017_May_09_1657,59.9992109939,MAFE4ImagesEEG,001,200281,
AFNE01.JPG,AFNE01.JPG,AFNE01.JPG,AFNE01.JPG,AFNE01.JPG,AFNE01.JPG,,,,,,,,,,,,,4,2,42,9,,,,,,,,,,,AFSA14.jpg,AFSA04.jpg,AFNE11.jpg,AFNE08.jpg,AFNE08.jpg,FN,3,num_4,16,num_4,0.366823198041,,,2017_May_09_1657,59.9992109939,MAFE4ImagesEEG,001,200281,
AFNE01.JPG,AFNE01.JPG,AFNE01.JPG,AFNE01.JPG,AFNE01.JPG,AFNE01.JPG,,,,,,,,,,,,,4,3,43,5,,,,,,,,,,,AFSA13.jpg,AFNE12.jpg,AFSA04.jpg,AFNE09.jpg,AFNE09.jpg,FN,3,num_4,32,num_6,0.500148662599,,,2017_May_09_1657,59.9992109939,MAFE4ImagesEEG,001,200281,
AFNE01.JPG,AFNE01.JPG,AFNE01.JPG,AFNE01.JPG,AFNE01.JPG,AFNE01.JPG,,,,,,,,,,,,,4,4,44,0,,,,,,,,,,,AFNE14.jpg,AFNE09.jpg,AFSA08.jpg,AFSA03.jpg,AFSA08.jpg,FS,4,num_2,16,num_2,0.550134886988,,,2017_May_09_1657,59.9992109939,MAFE4ImagesEEG,001,200281,
AFNE01.JPG,AFNE01.JPG,AFNE01.JPG,AFNE01.JPG,AFNE01.JPG,AFNE01.JPG,,,,,,,,,,,,,4,5,45,2,,,,,,,,,,,AFSA16.jpg,AFSA02.jpg,AFNE02.jpg,AFNE01.jpg,AFSA16.jpg,FS,4,num_8,32,num_6,1.28338420787,,,2017_May_09_1657,59.9992109939,MAFE4ImagesEEG,001,200281,
AFNE01.JPG,AFNE01.JPG,AFNE01.JPG,AFNE01.JPG,AFNE01.JPG,AFNE01.JPG,,,,,,,,,,,,,4,6,46,1,,,,,,,,,,,AFNE13.jpg,AFSA20.jpg,AFNE09.jpg,AFSA15.jpg,AFNE13.jpg,FN,3,num_8,32,num_4,0.550118208397,,,2017_May_09_1657,59.9992109939,MAFE4ImagesEEG,001,200281,
AFNE01.JPG,AFNE01.JPG,AFNE01.JPG,AFNE01.JPG,AFNE01.JPG,AFNE01.JPG,,,,,,,,,,,,,4,7,47,8,,,,,,,,,,,AFNE08.jpg,AFNE15.jpg,AFSA12.jpg,AFSA02.jpg,AFSA02.jpg,FS,4,num_4,32,num_6,0.516842811136,,,2017_May_09_1657,59.9992109939,MAFE4ImagesEEG,001,200281,
AFNE01.JPG,AFNE01.JPG,AFNE01.JPG,AFNE01.JPG,AFNE01.JPG,AFNE01.JPG,,,,,,,,,,,,,4,8,48,7,,,,,,,,,,,AFNE20.jpg,AFSA17.jpg,AFSA10.jpg,AFNE09.jpg,AFSA10.jpg,FS,4,num_2,32,num_4,2.13332867203,,,2017_May_09_1657,59.9992109939,MAFE4ImagesEEG,001,200281,
AFNE01.JPG,AFNE01.JPG,AFNE01.JPG,AFNE01.JPG,AFNE01.JPG,AFNE01.JPG,,,,,,,,,,,,,4,9,49,6,,,,,,,,,,,AFSA19.jpg,AFNE04.jpg,AFSA07.jpg,AFNE15.jpg,AFSA07.jpg,FS,4,num_2,32,num_6,0.483473758213,,,2017_May_09_1657,59.9992109939,MAFE4ImagesEEG,001,200281,
AFNE01.JPG,AFNE01.JPG,AFNE01.JPG,AFNE01.JPG,AFNE01.JPG,AFNE01.JPG,,,,,,,,,,,,,5,0,50,1,,,,,,,,,,,AFNE02.jpg,AFSA03.jpg,AFSA01.jpg,AFNE20.jpg,AFNE02.jpg,FN,3,num_8,32,num_2,0.283580500167,,,2017_May_09_1657,59.9992109939,MAFE4ImagesEEG,001,200281,
AFNE01.JPG,AFNE01.JPG,AFNE01.JPG,AFNE01.JPG,AFNE01.JPG,AFNE01.JPG,,,,,,,,,,,,,5,1,51,9,,,,,,,,,,,AFNE01.jpg,AFNE18.jpg,AFSA11.jpg,AFSA05.jpg,AFSA05.jpg,FS,4,num_4,32,num_8,0.566776755033,,,2017_May_09_1657,59.9992109939,MAFE4ImagesEEG,001,200281,
AFNE01.JPG,AFNE01.JPG,AFNE01.JPG,AFNE01.JPG,AFNE01.JPG,AFNE01.JPG,,,,,,,,,,,,,5,2,52,0,,,,,,,,,,,AFNE06.jpg,AFNE20.jpg,AFSA19.jpg,AFSA13.jpg,AFSA19.jpg,FS,4,num_2,32,num_6,0.816757590976,,,2017_May_09_1657,59.9992109939,MAFE4ImagesEEG,001,200281,
AFNE01.JPG,AFNE01.JPG,AFNE01.JPG,AFNE01.JPG,AFNE01.JPG,AFNE01.JPG,,,,,,,,,,,,,5,3,53,6,,,,,,,,,,,AFNE15.jpg,AFSA07.jpg,AFNE08.jpg,AFSA05.jpg,AFNE08.jpg,FN,3,num_2,16,num_2,1.00010712701,,,2017_May_09_1657,59.9992109939,MAFE4ImagesEEG,001,200281,
AFNE01.JPG,AFNE01.JPG,AFNE01.JPG,AFNE01.JPG,AFNE01.JPG,AFNE01.JPG,,,,,,,,,,,,,5,4,54,3,,,,,,,,,,,AFNE02.jpg,AFSA17.jpg,AFNE20.jpg,AFSA18.jpg,AFSA17.jpg,FS,4,num_6,32,num_8,0.516827095067,,,2017_May_09_1657,59.9992109939,MAFE4ImagesEEG,001,200281,
AFNE01.JPG,AFNE01.JPG,AFNE01.JPG,AFNE01.JPG,AFNE01.JPG,AFNE01.JPG,,,,,,,,,,,,,5,5,55,4,,,,,,,,,,,AFSA16.jpg,AFNE12.jpg,AFSA12.jpg,AFNE13.jpg,AFNE13.jpg,FN,3,num_4,16,num_4,0.400180062978,,,2017_May_09_1657,59.9992109939,MAFE4ImagesEEG,001,200281,
AFNE01.JPG,AFNE01.JPG,AFNE01.JPG,AFNE01.JPG,AFNE01.JPG,AFNE01.JPG,,,,,,,,,,,,,5,6,56,7,,,,,,,,,,,AFSA11.jpg,AFNE09.jpg,AFNE17.jpg,AFSA04.jpg,AFSA11.jpg,FS,4,num_8,32,num_6,0.650127221132,,,2017_May_09_1657,59.9992109939,MAFE4ImagesEEG,001,200281,
AFNE01.JPG,AFNE01.JPG,AFNE01.JPG,AFNE01.JPG,AFNE01.JPG,AFNE01.JPG,,,,,,,,,,,,,5,7,57,2,,,,,,,,,,,AFNE14.jpg,AFSA18.jpg,AFSA02.jpg,AFNE09.jpg,AFNE09.jpg,FN,3,num_4,32,num_8,0.566744360374,,,2017_May_09_1657,59.9992109939,MAFE4ImagesEEG,001,200281,
AFNE01.JPG,AFNE01.JPG,AFNE01.JPG,AFNE01.JPG,AFNE01.JPG,AFNE01.JPG,,,,,,,,,,,,,5,8,58,8,,,,,,,,,,,AFSA07.jpg,AFSA11.jpg,AFNE13.jpg,AFNE16.jpg,AFNE13.jpg,FN,3,num_2,32,num_4,0.400171082234,,,2017_May_09_1657,59.9992109939,MAFE4ImagesEEG,001,200281,
AFNE01.JPG,AFNE01.JPG,AFNE01.JPG,AFNE01.JPG,AFNE01.JPG,AFNE01.JPG,,,,,,,,,,,,,5,9,59,5,,,,,,,,,,,AFSA13.jpg,AFNE14.jpg,AFSA20.jpg,AFNE18.jpg,AFSA20.jpg,FS,4,num_2,16,num_2,0.116684237728,,,2017_May_09_1657,59.9992109939,MAFE4ImagesEEG,001,200281,
,,,,,,,,,,,,,,,,,,,,,,,,,,,,,,,,,,,,,,,,,,,space,2.2500501154,2017_May_09_1657,59.9992109939,MAFE4ImagesEEG,001,200281,
AFNE01.JPG,AFNE01.JPG,AFNE01.JPG,AFNE01.JPG,AFNE01.JPG,AFNE01.JPG,,,,,,,,,,,,,,,,,0,0,0,1,,,,,,,AMNE04.jpg,AMSA16.jpg,AMNE06.jpg,AMSA13.jpg,AMNE06.jpg,MN,1,num_2,32,num_6,0.400177497184,,,2017_May_09_1657,59.9992109939,MAFE4ImagesEEG,001,200281,
AFNE01.JPG,AFNE01.JPG,AFNE01.JPG,AFNE01.JPG,AFNE01.JPG,AFNE01.JPG,,,,,,,,,,,,,,,,,0,1,1,3,,,,,,,AMNE05.jpg,AMNE11.jpg,AMSA17.jpg,AMSA02.jpg,AMNE05.jpg,MN,1,num_8,32,num_4,0.46681360784,,,2017_May_09_1657,59.9992109939,MAFE4ImagesEEG,001,200281,
AFNE01.JPG,AFNE01.JPG,AFNE01.JPG,AFNE01.JPG,AFNE01.JPG,AFNE01.JPG,,,,,,,,,,,,,,,,,0,2,2,0,,,,,,,AMSA04.jpg,AMNE04.jpg,AMNE11.jpg,AMSA05.jpg,AMSA05.jpg,MS,2,num_4,32,num_8,0.699986432679,,,2017_May_09_1657,59.9992109939,MAFE4ImagesEEG,001,200281,
AFNE01.JPG,AFNE01.JPG,AFNE01.JPG,AFNE01.JPG,AFNE01.JPG,AFNE01.JPG,,,,,,,,,,,,,,,,,0,3,3,9,,,,,,,AMNE07.jpg,AMNE01.jpg,AMSA04.jpg,AMSA10.jpg,AMSA04.jpg,MS,2,num_2,32,num_6,0.450142552378,,,2017_May_09_1657,59.9992109939,MAFE4ImagesEEG,001,200281,
AFNE01.JPG,AFNE01.JPG,AFNE01.JPG,AFNE01.JPG,AFNE01.JPG,AFNE01.JPG,,,,,,,,,,,,,,,,,0,4,4,2,,,,,,,AMSA10.jpg,AMNE02.jpg,AMSA01.jpg,AMNE05.jpg,AMSA10.jpg,MS,2,num_8,32,num_2,0.500012348406,,,2017_May_09_1657,59.9992109939,MAFE4ImagesEEG,001,200281,
AFNE01.JPG,AFNE01.JPG,AFNE01.JPG,AFNE01.JPG,AFNE01.JPG,AFNE01.JPG,,,,,,,,,,,,,,,,,0,5,5,8,,,,,,,AMSA03.jpg,AMNE14.jpg,AMNE15.jpg,AMSA05.jpg,AMSA03.jpg,MS,2,num_8,32,num_4,0.350150859449,,,2017_May_09_1657,59.9992109939,MAFE4ImagesEEG,001,200281,
AFNE01.JPG,AFNE01.JPG,AFNE01.JPG,AFNE01.JPG,AFNE01.JPG,AFNE01.JPG,,,,,,,,,,,,,,,,,0,6,6,7,,,,,,,AMNE06.jpg,AMSA10.jpg,AMSA06.jpg,AMNE04.jpg,AMSA10.jpg,MS,2,num_6,32,num_8,0.416798517341,,,2017_May_09_1657,59.9992109939,MAFE4ImagesEEG,001,200281,
AFNE01.JPG,AFNE01.JPG,AFNE01.JPG,AFNE01.JPG,AFNE01.JPG,AFNE01.JPG,,,,,,,,,,,,,,,,,0,7,7,4,,,,,,,AMNE14.jpg,AMSA15.jpg,AMNE11.jpg,AMSA19.jpg,AMNE14.jpg,MN,1,num_8,32,num_2,0.950071187923,,,2017_May_09_1657,59.9992109939,MAFE4ImagesEEG,001,200281,
AFNE01.JPG,AFNE01.JPG,AFNE01.JPG,AFNE01.JPG,AFNE01.JPG,AFNE01.JPG,,,,,,,,,,,,,,,,,0,8,8,5,,,,,,,AMSA06.jpg,AMNE04.jpg,AMSA19.jpg,AMNE03.jpg,AMNE04.jpg,MN,1,num_6,32,num_4,0.68342410773,,,2017_May_09_1657,59.9992109939,MAFE4ImagesEEG,001,200281,
AFNE01.JPG,AFNE01.JPG,AFNE01.JPG,AFNE01.JPG,AFNE01.JPG,AFNE01.JPG,,,,,,,,,,,,,,,,,0,9,9,6,,,,,,,AMSA17.jpg,AMNE04.jpg,AMSA15.jpg,AMNE15.jpg,AMNE15.jpg,MN,1,num_4,32,num_2,0.783416762715,,,2017_May_09_1657,59.9992109939,MAFE4ImagesEEG,001,200281,
AFNE01.JPG,AFNE01.JPG,AFNE01.JPG,AFNE01.JPG,AFNE01.JPG,AFNE01.JPG,,,,,,,,,,,,,,,,,1,0,10,2,,,,,,,AMSA12.jpg,AMNE01.jpg,AMSA08.jpg,AMNE03.jpg,AMNE01.jpg,MN,1,num_6,32,num_4,0.383483348181,,,2017_May_09_1657,59.9992109939,MAFE4ImagesEEG,001,200281,
AFNE01.JPG,AFNE01.JPG,AFNE01.JPG,AFNE01.JPG,AFNE01.JPG,AFNE01.JPG,,,,,,,,,,,,,,,,,1,1,11,8,,,,,,,AMSA19.jpg,AMNE20.jpg,AMNE16.jpg,AMSA02.jpg,AMNE20.jpg,MN,1,num_6,16,num_6,0.366818387061,,,2017_May_09_1657,59.9992109939,MAFE4ImagesEEG,001,200281,
AFNE01.JPG,AFNE01.JPG,AFNE01.JPG,AFNE01.JPG,AFNE01.JPG,AFNE01.JPG,,,,,,,,,,,,,,,,,1,2,12,3,,,,,,,AMSA20.jpg,AMNE16.jpg,AMNE05.jpg,AMSA06.jpg,AMNE05.jpg,MN,1,num_2,32,num_8,0.433441347675,,,2017_May_09_1657,59.9992109939,MAFE4ImagesEEG,001,200281,
AFNE01.JPG,AFNE01.JPG,AFNE01.JPG,AFNE01.JPG,AFNE01.JPG,AFNE01.JPG,,,,,,,,,,,,,,,,,1,3,13,6,,,,,,,AMNE12.jpg,AMSA11.jpg,AMSA20.jpg,AMNE08.jpg,AMNE08.jpg,MN,1,num_4,16,num_4,0.650233706459,,,2017_May_09_1657,59.9992109939,MAFE4ImagesEEG,001,200281,
AFNE01.JPG,AFNE01.JPG,AFNE01.JPG,AFNE01.JPG,AFNE01.JPG,AFNE01.JPG,,,,,,,,,,,,,,,,,1,4,14,7,,,,,,,AMNE08.jpg,AMNE16.jpg,AMSA14.jpg,AMSA18.jpg,AMSA14.jpg,MS,2,num_2,32,num_6,0.816793192877,,,2017_May_09_1657,59.9992109939,MAFE4ImagesEEG,001,200281,
AFNE01.JPG,AFNE01.JPG,AFNE01.JPG,AFNE01.JPG,AFNE01.JPG,AFNE01.JPG,,,,,,,,,,,,,,,,,1,5,15,5,,,,,,,AMNE03.jpg,AMSA18.jpg,AMSA07.jpg,AMNE04.jpg,AMSA07.jpg,MS,2,num_2,16,num_2,1.20006774017,,,2017_May_09_1657,59.9992109939,MAFE4ImagesEEG,001,200281,
AFNE01.JPG,AFNE01.JPG,AFNE01.JPG,AFNE01.JPG,AFNE01.JPG,AFNE01.JPG,,,,,,,,,,,,,,,,,1,6,16,4,,,,,,,AMNE04.jpg,AMNE02.jpg,AMSA09.jpg,AMSA07.jpg,AMSA09.jpg,MS,2,num_2,32,num_8,2.88327919785,,,2017_May_09_1657,59.9992109939,MAFE4ImagesEEG,001,200281,
AFNE01.JPG,AFNE01.JPG,AFNE01.JPG,AFNE01.JPG,AFNE01.JPG,AFNE01.JPG,,,,,,,,,,,,,,,,,1,7,17,9,,,,,,,AMNE17.jpg,AMSA12.jpg,AMSA09.jpg,AMNE04.jpg,AMNE17.jpg,MN,1,num_8,16,num_8,0.816695367452,,,2017_May_09_1657,59.9992109939,MAFE4ImagesEEG,001,200281,
AFNE01.JPG,AFNE01.JPG,AFNE01.JPG,AFNE01.JPG,AFNE01.JPG,AFNE01.JPG,,,,,,,,,,,,,,,,,1,8,18,1,,,,,,,AMNE08.jpg,AMSA01.jpg,AMNE15.jpg,AMSA06.jpg,AMSA06.jpg,MS,2,num_4,16,num_4,0.716653960058,,,2017_May_09_1657,59.9992109939,MAFE4ImagesEEG,001,200281,
AFNE01.JPG,AFNE01.JPG,AFNE01.JPG,AFNE01.JPG,AFNE01.JPG,AFNE01.JPG,,,,,,,,,,,,,,,,,1,9,19,0,,,,,,,AMSA18.jpg,AMNE13.jpg,AMNE05.jpg,AMSA03.jpg,AMNE13.jpg,MN,1,num_6,16,num_6,0.533515149495,,,2017_May_09_1657,59.9992109939,MAFE4ImagesEEG,001,200281,
AFNE01.JPG,AFNE01.JPG,AFNE01.JPG,AFNE01.JPG,AFNE01.JPG,AFNE01.JPG,,,,,,,,,,,,,,,,,2,0,20,9,,,,,,,AMSA04.jpg,AMNE20.jpg,AMNE12.jpg,AMSA12.jpg,AMNE20.jpg,MN,1,num_6,16,num_6,1.61655610264,,,2017_May_09_1657,59.9992109939,MAFE4ImagesEEG,001,200281,
AFNE01.JPG,AFNE01.JPG,AFNE01.JPG,AFNE01.JPG,AFNE01.JPG,AFNE01.JPG,,,,,,,,,,,,,,,,,2,1,21,7,,,,,,,AMNE04.jpg,AMSA07.jpg,AMNE01.jpg,AMSA19.jpg,AMSA07.jpg,MS,2,num_6,16,num_6,1.08330588345,,,2017_May_09_1657,59.9992109939,MAFE4ImagesEEG,001,200281,
AFNE01.JPG,AFNE01.JPG,AFNE01.JPG,AFNE01.JPG,AFNE01.JPG,AFNE01.JPG,,,,,,,,,,,,,,,,,2,2,22,1,,,,,,,AMNE20.jpg,AMSA01.jpg,AMSA19.jpg,AMNE02.jpg,AMSA19.jpg,MS,2,num_2,32,num_4,0.733452669578,,,2017_May_09_1657,59.9992109939,MAFE4ImagesEEG,001,200281,
AFNE01.JPG,AFNE01.JPG,AFNE01.JPG,AFNE01.JPG,AFNE01.JPG,AFNE01.JPG,,,,,,,,,,,,,,,,,2,3,23,6,,,,,,,AMSA07.jpg,AMNE08.jpg,AMNE17.jpg,AMSA20.jpg,AMNE08.jpg,MN,1,num_6,32,num_2,0.983480012743,,,2017_May_09_1657,59.9992109939,MAFE4ImagesEEG,001,200281,
AFNE01.JPG,AFNE01.JPG,AFNE01.JPG,AFNE01.JPG,AFNE01.JPG,AFNE01.JPG,,,,,,,,,,,,,,,,,2,4,24,8,,,,,,,AMNE02.jpg,AMSA13.jpg,AMNE11.jpg,AMSA19.jpg,AMSA13.jpg,MS,2,num_6,32,num_8,1.08344027307,,,2017_May_09_1657,59.9992109939,MAFE4ImagesEEG,001,200281,
AFNE01.JPG,AFNE01.JPG,AFNE01.JPG,AFNE01.JPG,AFNE01.JPG,AFNE01.JPG,,,,,,,,,,,,,,,,,2,5,25,3,,,,,,,AMNE05.jpg,AMSA10.jpg,AMSA14.jpg,AMNE09.jpg,AMNE09.jpg,MN,1,num_4,16,num_4,0.483477286296,,,2017_May_09_1657,59.9992109939,MAFE4ImagesEEG,001,200281,
AFNE01.JPG,AFNE01.JPG,AFNE01.JPG,AFNE01.JPG,AFNE01.JPG,AFNE01.JPG,,,,,,,,,,,,,,,,,2,6,26,5,,,,,,,AMSA03.jpg,AMNE20.jpg,AMNE12.jpg,AMSA11.jpg,AMNE12.jpg,MN,1,num_2,32,num_8,1.10010812106,,,2017_May_09_1657,59.9992109939,MAFE4ImagesEEG,001,200281,
AFNE01.JPG,AFNE01.JPG,AFNE01.JPG,AFNE01.JPG,AFNE01.JPG,AFNE01.JPG,,,,,,,,,,,,,,,,,2,7,27,4,,,,,,,AMNE09.jpg,AMSA11.jpg,AMSA15.jpg,AMNE08.jpg,AMNE08.jpg,MN,1,num_4,32,num_8,0.750122762751,,,2017_May_09_1657,59.9992109939,MAFE4ImagesEEG,001,200281,
AFNE01.JPG,AFNE01.JPG,AFNE01.JPG,AFNE01.JPG,AFNE01.JPG,AFNE01.JPG,,,,,,,,,,,,,,,,,2,8,28,0,,,,,,,AMNE16.jpg,AMSA10.jpg,AMSA14.jpg,AMNE06.jpg,AMNE16.jpg,MN,1,num_8,32,num_4,0.883449189598,,,2017_May_09_1657,59.9992109939,MAFE4ImagesEEG,001,200281,
AFNE01.JPG,AFNE01.JPG,AFNE01.JPG,AFNE01.JPG,AFNE01.JPG,AFNE01.JPG,,,,,,,,,,,,,,,,,2,9,29,2,,,,,,,AMNE02.jpg,AMSA06.jpg,AMNE19.jpg,AMSA10.jpg,AMNE02.jpg,MN,1,num_8,32,num_4,0.900136281969,,,2017_May_09_1657,59.9992109939,MAFE4ImagesEEG,001,200281,
AFNE01.JPG,AFNE01.JPG,AFNE01.JPG,AFNE01.JPG,AFNE01.JPG,AFNE01.JPG,,,,,,,,,,,,,,,,,3,0,30,5,,,,,,,AMNE12.jpg,AMSA14.jpg,AMNE02.jpg,AMSA11.jpg,AMSA11.jpg,MS,2,num_4,32,num_8,1.08342038747,,,2017_May_09_1657,59.9992109939,MAFE4ImagesEEG,001,200281,
AFNE01.JPG,AFNE01.JPG,AFNE01.JPG,AFNE01.JPG,AFNE01.JPG,AFNE01.JPG,,,,,,,,,,,,,,,,,3,1,31,1,,,,,,,AMNE19.jpg,AMSA18.jpg,AMSA01.jpg,AMNE17.jpg,AMNE19.jpg,MN,1,num_8,32,num_4,0.80010417616,,,2017_May_09_1657,59.9992109939,MAFE4ImagesEEG,001,200281,
AFNE01.JPG,AFNE01.JPG,AFNE01.JPG,AFNE01.JPG,AFNE01.JPG,AFNE01.JPG,,,,,,,,,,,,,,,,,3,2,32,9,,,,,,,AMNE08.jpg,AMSA01.jpg,AMNE20.jpg,AMSA17.jpg,AMSA01.jpg,MS,2,num_6,16,num_6,0.41678793286,,,2017_May_09_1657,59.9992109939,MAFE4ImagesEEG,001,200281,
AFNE01.JPG,AFNE01.JPG,AFNE01.JPG,AFNE01.JPG,AFNE01.JPG,AFNE01.JPG,,,,,,,,,,,,,,,,,3,3,33,2,,,,,,,AMSA18.jpg,AMNE04.jpg,AMNE17.jpg,AMSA20.jpg,AMSA18.jpg,MS,2,num_8,32,num_4,0.866769474233,,,2017_May_09_1657,59.9992109939,MAFE4ImagesEEG,001,200281,
AFNE01.JPG,AFNE01.JPG,AFNE01.JPG,AFNE01.JPG,AFNE01.JPG,AFNE01.JPG,,,,,,,,,,,,,,,,,3,4,34,4,,,,,,,AMNE06.jpg,AMNE07.jpg,AMSA10.jpg,AMSA18.jpg,AMNE07.jpg,MN,1,num_6,32,num_8,1.24985703034,,,2017_May_09_1657,59.9992109939,MAFE4ImagesEEG,001,200281,
AFNE01.JPG,AFNE01.JPG,AFNE01.JPG,AFNE01.JPG,AFNE01.JPG,AFNE01.JPG,,,,,,,,,,,,,,,,,3,5,35,7,,,,,,,AMSA20.jpg,AMSA02.jpg,AMNE15.jpg,AMNE13.jpg,AMNE15.jpg,MN,1,num_2,16,num_2,0.633846184472,,,2017_May_09_1657,59.9992109939,MAFE4ImagesEEG,001,200281,
AFNE01.JPG,AFNE01.JPG,AFNE01.JPG,AFNE01.JPG,AFNE01.JPG,AFNE01.JPG,,,,,,,,,,,,,,,,,3,6,36,0,,,,,,,AMNE06.jpg,AMSA15.jpg,AMSA13.jpg,AMNE05.jpg,AMNE05.jpg,MN,1,num_4,16,num_4,0.700114728417,,,2017_May_09_1657,59.9992109939,MAFE4ImagesEEG,001,200281,
AFNE01.JPG,AFNE01.JPG,AFNE01.JPG,AFNE01.JPG,AFNE01.JPG,AFNE01.JPG,,,,,,,,,,,,,,,,,3,7,37,6,,,,,,,AMSA02.jpg,AMSA06.jpg,AMNE04.jpg,AMNE11.jpg,AMNE11.jpg,MN,1,num_4,16,num_4,0.90009522764,,,2017_May_09_1657,59.9992109939,MAFE4ImagesEEG,001,200281,
AFNE01.JPG,AFNE01.JPG,AFNE01.JPG,AFNE01.JPG,AFNE01.JPG,AFNE01.JPG,,,,,,,,,,,,,,,,,3,8,38,8,,,,,,,AMNE09.jpg,AMSA09.jpg,AMNE20.jpg,AMSA10.jpg,AMNE20.jpg,MN,1,num_2,32,num_4,1.05010650144,,,2017_May_09_1657,59.9992109939,MAFE4ImagesEEG,001,200281,
AFNE01.JPG,AFNE01.JPG,AFNE01.JPG,AFNE01.JPG,AFNE01.JPG,AFNE01.JPG,,,,,,,,,,,,,,,,,3,9,39,3,,,,,,,AMSA15.jpg,AMNE20.jpg,AMNE03.jpg,AMSA09.jpg,AMSA09.jpg,MS,2,num_4,32,num_8,0.766789969523,,,2017_May_09_1657,59.9992109939,MAFE4ImagesEEG,001,200281,
AFNE01.JPG,AFNE01.JPG,AFNE01.JPG,AFNE01.JPG,AFNE01.JPG,AFNE01.JPG,,,,,,,,,,,,,,,,,4,0,40,7,,,,,,,AMSA14.jpg,AMNE07.jpg,AMNE08.jpg,AMSA01.jpg,AMSA01.jpg,MS,2,num_4,16,num_4,0.966734545771,,,2017_May_09_1657,59.9992109939,MAFE4ImagesEEG,001,200281,
AFNE01.JPG,AFNE01.JPG,AFNE01.JPG,AFNE01.JPG,AFNE01.JPG,AFNE01.JPG,,,,,,,,,,,,,,,,,4,1,41,9,,,,,,,AMNE17.jpg,AMSA15.jpg,AMNE12.jpg,AMSA07.jpg,AMNE17.jpg,MN,1,num_8,32,num_4,0.950078244088,,,2017_May_09_1657,59.9992109939,MAFE4ImagesEEG,001,200281,
AFNE01.JPG,AFNE01.JPG,AFNE01.JPG,AFNE01.JPG,AFNE01.JPG,AFNE01.JPG,,,,,,,,,,,,,,,,,4,2,42,5,,,,,,,AMNE01.jpg,AMSA01.jpg,AMNE03.jpg,AMSA09.jpg,AMNE01.jpg,MN,1,num_8,16,num_8,0.916878220858,,,2017_May_09_1657,59.9992109939,MAFE4ImagesEEG,001,200281,
AFNE01.JPG,AFNE01.JPG,AFNE01.JPG,AFNE01.JPG,AFNE01.JPG,AFNE01.JPG,,,,,,,,,,,,,,,,,4,3,43,8,,,,,,,AMNE10.jpg,AMNE01.jpg,AMSA06.jpg,AMSA18.jpg,AMNE01.jpg,MN,1,num_6,16,num_6,0.93319036928,,,2017_May_09_1657,59.9992109939,MAFE4ImagesEEG,001,200281,
AFNE01.JPG,AFNE01.JPG,AFNE01.JPG,AFNE01.JPG,AFNE01.JPG,AFNE01.JPG,,,,,,,,,,,,,,,,,4,4,44,6,,,,,,,AMSA11.jpg,AMSA19.jpg,AMNE09.jpg,AMNE16.jpg,AMSA11.jpg,MS,2,num_8,32,num_2,0.966645380249,,,2017_May_09_1657,59.9992109939,MAFE4ImagesEEG,001,200281,
AFNE01.JPG,AFNE01.JPG,AFNE01.JPG,AFNE01.JPG,AFNE01.JPG,AFNE01.JPG,,,,,,,,,,,,,,,,,4,5,45,4,,,,,,,AMSA12.jpg,AMNE15.jpg,AMNE06.jpg,AMSA09.jpg,AMSA12.jpg,MS,2,num_8,32,num_4,0.816796400351,,,2017_May_09_1657,59.9992109939,MAFE4ImagesEEG,001,200281,
AFNE01.JPG,AFNE01.JPG,AFNE01.JPG,AFNE01.JPG,AFNE01.JPG,AFNE01.JPG,,,,,,,,,,,,,,,,,4,6,46,3,,,,,,,AMNE09.jpg,AMNE03.jpg,AMSA12.jpg,AMSA19.jpg,AMSA12.jpg,MS,2,num_2,16,num_2,0.500345917186,,,2017_May_09_1657,59.9992109939,MAFE4ImagesEEG,001,200281,
AFNE01.JPG,AFNE01.JPG,AFNE01.JPG,AFNE01.JPG,AFNE01.JPG,AFNE01.JPG,,,,,,,,,,,,,,,,,4,7,47,1,,,,,,,AMNE12.jpg,AMSA09.jpg,AMSA16.jpg,AMNE20.jpg,AMSA16.jpg,MS,2,num_2,16,num_2,1.18342426838,,,2017_May_09_1657,59.9992109939,MAFE4ImagesEEG,001,200281,
AFNE01.JPG,AFNE01.JPG,AFNE01.JPG,AFNE01.JPG,AFNE01.JPG,AFNE01.JPG,,,,,,,,,,,,,,,,,4,8,48,0,,,,,,,AMNE16.jpg,AMSA16.jpg,AMSA19.jpg,AMNE10.jpg,AMSA19.jpg,MS,2,num_2,32,num_8,0.833467134973,,,2017_May_09_1657,59.9992109939,MAFE4ImagesEEG,001,200281,
AFNE01.JPG,AFNE01.JPG,AFNE01.JPG,AFNE01.JPG,AFNE01.JPG,AFNE01.JPG,,,,,,,,,,,,,,,,,4,9,49,2,,,,,,,AMSA15.jpg,AMNE12.jpg,AMSA08.jpg,AMNE03.jpg,AMSA15.jpg,MS,2,num_8,32,num_2,0.450108875055,,,2017_May_09_1657,59.9992109939,MAFE4ImagesEEG,001,200281,
AFNE01.JPG,AFNE01.JPG,AFNE01.JPG,AFNE01.JPG,AFNE01.JPG,AFNE01.JPG,,,,,,,,,,,,,,,,,5,0,50,6,,,,,,,AMSA03.jpg,AMSA13.jpg,AMNE15.jpg,AMNE11.jpg,AMNE15.jpg,MN,1,num_2,32,num_4,1.06674933177,,,2017_May_09_1657,59.9992109939,MAFE4ImagesEEG,001,200281,
AFNE01.JPG,AFNE01.JPG,AFNE01.JPG,AFNE01.JPG,AFNE01.JPG,AFNE01.JPG,,,,,,,,,,,,,,,,,5,1,51,3,,,,,,,AMNE14.jpg,AMNE01.jpg,AMSA01.jpg,AMSA17.jpg,AMSA17.jpg,MS,2,num_4,32,num_6,0.533446190879,,,2017_May_09_1657,59.9992109939,MAFE4ImagesEEG,001,200281,
AFNE01.JPG,AFNE01.JPG,AFNE01.JPG,AFNE01.JPG,AFNE01.JPG,AFNE01.JPG,,,,,,,,,,,,,,,,,5,2,52,7,,,,,,,AMNE06.jpg,AMNE17.jpg,AMSA03.jpg,AMSA10.jpg,AMNE17.jpg,MN,1,num_6,32,num_2,0.600142921321,,,2017_May_09_1657,59.9992109939,MAFE4ImagesEEG,001,200281,
AFNE01.JPG,AFNE01.JPG,AFNE01.JPG,AFNE01.JPG,AFNE01.JPG,AFNE01.JPG,,,,,,,,,,,,,,,,,5,3,53,4,,,,,,,AMSA20.jpg,AMSA12.jpg,AMNE16.jpg,AMNE10.jpg,AMNE10.jpg,MN,1,num_4,32,num_6,0.716787387617,,,2017_May_09_1657,59.9992109939,MAFE4ImagesEEG,001,200281,
AFNE01.JPG,AFNE01.JPG,AFNE01.JPG,AFNE01.JPG,AFNE01.JPG,AFNE01.JPG,,,,,,,,,,,,,,,,,5,4,54,9,,,,,,,AMSA02.jpg,AMNE01.jpg,AMNE12.jpg,AMSA06.jpg,AMSA02.jpg,MS,2,num_8,32,num_4,0.766756291734,,,2017_May_09_1657,59.9992109939,MAFE4ImagesEEG,001,200281,
AFNE01.JPG,AFNE01.JPG,AFNE01.JPG,AFNE01.JPG,AFNE01.JPG,AFNE01.JPG,,,,,,,,,,,,,,,,,5,5,55,5,,,,,,,AMSA09.jpg,AMNE09.jpg,AMSA05.jpg,AMNE20.jpg,AMNE09.jpg,MN,1,num_6,32,num_4,0.683448804775,,,2017_May_09_1657,59.9992109939,MAFE4ImagesEEG,001,200281,
AFNE01.JPG,AFNE01.JPG,AFNE01.JPG,AFNE01.JPG,AFNE01.JPG,AFNE01.JPG,,,,,,,,,,,,,,,,,5,6,56,2,,,,,,,AMSA11.jpg,AMNE15.jpg,AMSA20.jpg,AMNE08.jpg,AMNE08.jpg,MN,1,num_4,16,num_4,1.05011644447,,,2017_May_09_1657,59.9992109939,MAFE4ImagesEEG,001,200281,
AFNE01.JPG,AFNE01.JPG,AFNE01.JPG,AFNE01.JPG,AFNE01.JPG,AFNE01.JPG,,,,,,,,,,,,,,,,,5,7,57,0,,,,,,,AMNE03.jpg,AMSA04.jpg,AMSA11.jpg,AMNE04.jpg,AMSA04.jpg,MS,2,num_6,32,num_4,0.733403917402,,,2017_May_09_1657,59.9992109939,MAFE4ImagesEEG,001,200281,
AFNE01.JPG,AFNE01.JPG,AFNE01.JPG,AFNE01.JPG,AFNE01.JPG,AFNE01.JPG,,,,,,,,,,,,,,,,,5,8,58,1,,,,,,,AMNE05.jpg,AMNE12.jpg,AMSA12.jpg,AMSA03.jpg,AMNE12.jpg,MN,1,num_6,32,num_2,0.550371592399,,,2017_May_09_1657,59.9992109939,MAFE4ImagesEEG,001,200281,
AFNE01.JPG,AFNE01.JPG,AFNE01.JPG,AFNE01.JPG,AFNE01.JPG,AFNE01.JPG,,,,,,,,,,,,,,,,,5,9,59,8,,,,,,,AMNE19.jpg,AMSA08.jpg,AMNE13.jpg,AMSA16.jpg,AMNE19.jpg,MN,1,num_8,32,num_4,0.433347371174,,,2017_May_09_1657,59.9992109939,MAFE4ImagesEEG,001,200281,
,,,,,,,,,,,,,,,,,,,,,,,,,,,,,,,,,,,,,,,,,,,space,2.84991623904,2017_May_09_1657,59.9992109939,MAFE4ImagesEEG,001,200281,
AFNE01.JPG,AFNE01.JPG,AFNE01.JPG,AFNE01.JPG,AFNE01.JPG,AFNE01.JPG,,,,,,,,,,,,,,,,,,,,,0,0,0,7,,,AFSA05.jpg,AFSA15.jpg,AFNE07.jpg,AFNE12.jpg,AFNE12.jpg,FN,3,num_4,32,num_6,0.583278460428,,,2017_May_09_1657,59.9992109939,MAFE4ImagesEEG,001,200281,
AFNE01.JPG,AFNE01.JPG,AFNE01.JPG,AFNE01.JPG,AFNE01.JPG,AFNE01.JPG,,,,,,,,,,,,,,,,,,,,,0,1,1,9,,,AFSA04.jpg,AFSA07.jpg,AFNE15.jpg,AFNE10.jpg,AFNE10.jpg,FN,3,num_4,16,num_4,2.53332206467,,,2017_May_09_1657,59.9992109939,MAFE4ImagesEEG,001,200281,
AFNE01.JPG,AFNE01.JPG,AFNE01.JPG,AFNE01.JPG,AFNE01.JPG,AFNE01.JPG,,,,,,,,,,,,,,,,,,,,,0,2,2,2,,,AFSA03.jpg,AFSA08.jpg,AFNE08.jpg,AFNE14.jpg,AFSA08.jpg,FS,4,num_6,16,num_6,0.516795983305,,,2017_May_09_1657,59.9992109939,MAFE4ImagesEEG,001,200281,
AFNE01.JPG,AFNE01.JPG,AFNE01.JPG,AFNE01.JPG,AFNE01.JPG,AFNE01.JPG,,,,,,,,,,,,,,,,,,,,,0,3,3,6,,,AFNE07.jpg,AFSA09.jpg,AFNE13.jpg,AFSA20.jpg,AFNE07.jpg,FN,3,num_8,16,num_8,0.700122105191,,,2017_May_09_1657,59.9992109939,MAFE4ImagesEEG,001,200281,
AFNE01.JPG,AFNE01.JPG,AFNE01.JPG,AFNE01.JPG,AFNE01.JPG,AFNE01.JPG,,,,,,,,,,,,,,,,,,,,,0,4,4,4,,,AFSA06.jpg,AFSA03.jpg,AFNE03.jpg,AFNE11.jpg,AFSA06.jpg,FS,4,num_8,32,num_2,0.850105475169,,,2017_May_09_1657,59.9992109939,MAFE4ImagesEEG,001,200281,
AFNE01.JPG,AFNE01.JPG,AFNE01.JPG,AFNE01.JPG,AFNE01.JPG,AFNE01.JPG,,,,,,,,,,,,,,,,,,,,,0,5,5,0,,,AFSA17.jpg,AFSA13.jpg,AFNE03.jpg,AFNE15.jpg,AFSA17.jpg,FS,4,num_8,32,num_4,1.16677021212,,,2017_May_09_1657,59.9992109939,MAFE4ImagesEEG,001,200281,
AFNE01.JPG,AFNE01.JPG,AFNE01.JPG,AFNE01.JPG,AFNE01.JPG,AFNE01.JPG,,,,,,,,,,,,,,,,,,,,,0,6,6,5,,,AFSA15.jpg,AFNE16.jpg,AFSA06.jpg,AFNE17.jpg,AFSA06.jpg,FS,4,num_2,32,num_6,0.950078564929,,,2017_May_09_1657,59.9992109939,MAFE4ImagesEEG,001,200281,
AFNE01.JPG,AFNE01.JPG,AFNE01.JPG,AFNE01.JPG,AFNE01.JPG,AFNE01.JPG,,,,,,,,,,,,,,,,,,,,,0,7,7,1,,,AFNE01.jpg,AFSA05.jpg,AFSA10.jpg,AFNE07.jpg,AFNE01.jpg,FN,3,num_8,32,num_2,0.800126306945,,,2017_May_09_1657,59.9992109939,MAFE4ImagesEEG,001,200281,
AFNE01.JPG,AFNE01.JPG,AFNE01.JPG,AFNE01.JPG,AFNE01.JPG,AFNE01.JPG,,,,,,,,,,,,,,,,,,,,,0,8,8,3,,,AFNE15.jpg,AFNE11.jpg,AFSA17.jpg,AFSA11.jpg,AFSA17.jpg,FS,4,num_2,32,num_4,0.616865936434,,,2017_May_09_1657,59.9992109939,MAFE4ImagesEEG,001,200281,
AFNE01.JPG,AFNE01.JPG,AFNE01.JPG,AFNE01.JPG,AFNE01.JPG,AFNE01.JPG,,,,,,,,,,,,,,,,,,,,,0,9,9,8,,,AFNE06.jpg,AFNE03.jpg,AFSA09.jpg,AFSA07.jpg,AFSA09.jpg,FS,4,num_2,32,num_8,0.550161187537,,,2017_May_09_1657,59.9992109939,MAFE4ImagesEEG,001,200281,
AFNE01.JPG,AFNE01.JPG,AFNE01.JPG,AFNE01.JPG,AFNE01.JPG,AFNE01.JPG,,,,,,,,,,,,,,,,,,,,,1,0,10,7,,,AFSA17.jpg,AFNE13.jpg,AFNE20.jpg,AFSA06.jpg,AFSA17.jpg,FS,4,num_8,32,num_4,0.516816510586,,,2017_May_09_1657,59.9992109939,MAFE4ImagesEEG,001,200281,
AFNE01.JPG,AFNE01.JPG,AFNE01.JPG,AFNE01.JPG,AFNE01.JPG,AFNE01.JPG,,,,,,,,,,,,,,,,,,,,,1,1,11,9,,,AFSA14.jpg,AFSA01.jpg,AFNE20.jpg,AFNE02.jpg,AFSA01.jpg,FS,4,num_6,16,num_6,0.500100231031,,,2017_May_09_1657,59.9992109939,MAFE4ImagesEEG,001,200281,
AFNE01.JPG,AFNE01.JPG,AFNE01.JPG,AFNE01.JPG,AFNE01.JPG,AFNE01.JPG,,,,,,,,,,,,,,,,,,,,,1,2,12,2,,,AFNE03.jpg,AFNE20.jpg,AFSA20.jpg,AFSA11.jpg,AFNE03.jpg,FN,3,num_8,32,num_4,0.650148389861,,,2017_May_09_1657,59.9992109939,MAFE4ImagesEEG,001,200281,
AFNE01.JPG,AFNE01.JPG,AFNE01.JPG,AFNE01.JPG,AFNE01.JPG,AFNE01.JPG,,,,,,,,,,,,,,,,,,,,,1,3,13,8,,,AFNE07.jpg,AFNE11.jpg,AFSA19.jpg,AFSA01.jpg,AFSA01.jpg,FS,4,num_4,32,num_6,0.36681261356,,,2017_May_09_1657,59.9992109939,MAFE4ImagesEEG,001,200281,
AFNE01.JPG,AFNE01.JPG,AFNE01.JPG,AFNE01.JPG,AFNE01.JPG,AFNE01.JPG,,,,,,,,,,,,,,,,,,,,,1,4,14,0,,,AFNE17.jpg,AFSA06.jpg,AFSA17.jpg,AFNE11.jpg,AFSA17.jpg,FS,4,num_2,32,num_8,0.950121223461,,,2017_May_09_1657,59.9992109939,MAFE4ImagesEEG,001,200281,
AFNE01.JPG,AFNE01.JPG,AFNE01.JPG,AFNE01.JPG,AFNE01.JPG,AFNE01.JPG,,,,,,,,,,,,,,,,,,,,,1,5,15,5,,,AFNE08.jpg,AFSA12.jpg,AFSA20.jpg,AFNE06.jpg,AFNE08.jpg,FN,3,num_8,32,num_2,1.13342328998,,,2017_May_09_1657,59.9992109939,MAFE4ImagesEEG,001,200281,
AFNE01.JPG,AFNE01.JPG,AFNE01.JPG,AFNE01.JPG,AFNE01.JPG,AFNE01.JPG,,,,,,,,,,,,,,,,,,,,,1,6,16,6,,,AFSA19.jpg,AFNE01.jpg,AFNE06.jpg,AFSA16.jpg,AFSA19.jpg,FS,4,num_8,32,num_4,0.850150378654,,,2017_May_09_1657,59.9992109939,MAFE4ImagesEEG,001,200281,
AFNE01.JPG,AFNE01.JPG,AFNE01.JPG,AFNE01.JPG,AFNE01.JPG,AFNE01.JPG,,,,,,,,,,,,,,,,,,,,,1,7,17,3,,,AFSA19.jpg,AFSA07.jpg,AFNE02.jpg,AFNE18.jpg,AFSA07.jpg,FS,4,num_6,32,num_8,0.766465702327,,,2017_May_09_1657,59.9992109939,MAFE4ImagesEEG,001,200281,
AFNE01.JPG,AFNE01.JPG,AFNE01.JPG,AFNE01.JPG,AFNE01.JPG,AFNE01.JPG,,,,,,,,,,,,,,,,,,,,,1,8,18,1,,,AFSA06.jpg,AFSA13.jpg,AFNE11.jpg,AFNE05.jpg,AFSA13.jpg,FS,4,num_6,32,num_4,0.383503554855,,,2017_May_09_1657,59.9992109939,MAFE4ImagesEEG,001,200281,
AFNE01.JPG,AFNE01.JPG,AFNE01.JPG,AFNE01.JPG,AFNE01.JPG,AFNE01.JPG,,,,,,,,,,,,,,,,,,,,,1,9,19,4,,,AFNE20.jpg,AFSA09.jpg,AFSA06.jpg,AFNE16.jpg,AFSA06.jpg,FS,4,num_2,32,num_6,0.36685430957,,,2017_May_09_1657,59.9992109939,MAFE4ImagesEEG,001,200281,
AFNE01.JPG,AFNE01.JPG,AFNE01.JPG,AFNE01.JPG,AFNE01.JPG,AFNE01.JPG,,,,,,,,,,,,,,,,,,,,,2,0,20,7,,,AFNE13.jpg,AFSA20.jpg,AFNE14.jpg,AFSA19.jpg,AFSA20.jpg,FS,4,num_6,32,num_8,0.550165677676,,,2017_May_09_1657,59.9992109939,MAFE4ImagesEEG,001,200281,
AFNE01.JPG,AFNE01.JPG,AFNE01.JPG,AFNE01.JPG,AFNE01.JPG,AFNE01.JPG,,,,,,,,,,,,,,,,,,,,,2,1,21,5,,,AFNE14.jpg,AFSA12.jpg,AFNE12.jpg,AFSA15.jpg,AFNE14.jpg,FN,3,num_8,32,num_2,0.4833550849,,,2017_May_09_1657,59.9992109939,MAFE4ImagesEEG,001,200281,
AFNE01.JPG,AFNE01.JPG,AFNE01.JPG,AFNE01.JPG,AFNE01.JPG,AFNE01.JPG,,,,,,,,,,,,,,,,,,,,,2,2,22,4,,,AFSA09.jpg,AFNE01.jpg,AFSA19.jpg,AFNE07.jpg,AFSA19.jpg,FS,4,num_2,32,num_8,0.450167570263,,,2017_May_09_1657,59.9992109939,MAFE4ImagesEEG,001,200281,
AFNE01.JPG,AFNE01.JPG,AFNE01.JPG,AFNE01.JPG,AFNE01.JPG,AFNE01.JPG,,,,,,,,,,,,,,,,,,,,,2,3,23,3,,,AFNE01.jpg,AFSA05.jpg,AFSA07.jpg,AFNE07.jpg,AFSA05.jpg,FS,4,num_6,32,num_4,0.333551970311,,,2017_May_09_1657,59.9992109939,MAFE4ImagesEEG,001,200281,
AFNE01.JPG,AFNE01.JPG,AFNE01.JPG,AFNE01.JPG,AFNE01.JPG,AFNE01.JPG,,,,,,,,,,,,,,,,,,,,,2,4,24,8,,,AFSA04.jpg,AFNE04.jpg,AFNE13.jpg,AFSA01.jpg,AFSA01.jpg,FS,4,num_4,32,num_8,0.483479852322,,,2017_May_09_1657,59.9992109939,MAFE4ImagesEEG,001,200281,
AFNE01.JPG,AFNE01.JPG,AFNE01.JPG,AFNE01.JPG,AFNE01.JPG,AFNE01.JPG,,,,,,,,,,,,,,,,,,,,,2,5,25,9,,,AFNE19.jpg,AFSA20.jpg,AFNE16.jpg,AFSA07.jpg,AFNE16.jpg,FN,3,num_2,32,num_6,0.416823855601,,,2017_May_09_1657,59.9992109939,MAFE4ImagesEEG,001,200281,
AFNE01.JPG,AFNE01.JPG,AFNE01.JPG,AFNE01.JPG,AFNE01.JPG,AFNE01.JPG,,,,,,,,,,,,,,,,,,,,,2,6,26,2,,,AFNE16.jpg,AFNE02.jpg,AFSA14.jpg,AFSA06.jpg,AFSA14.jpg,FS,4,num_2,32,num_4,0.950157467043,,,2017_May_09_1657,59.9992109939,MAFE4ImagesEEG,001,200281,
AFNE01.JPG,AFNE01.JPG,AFNE01.JPG,AFNE01.JPG,AFNE01.JPG,AFNE01.JPG,,,,,,,,,,,,,,,,,,,,,2,7,27,0,,,AFSA10.jpg,AFNE03.jpg,AFSA05.jpg,AFNE17.jpg,AFNE17.jpg,FN,3,num_4,32,num_2,0.46678185463,,,2017_May_09_1657,59.9992109939,MAFE4ImagesEEG,001,200281,
AFNE01.JPG,AFNE01.JPG,AFNE01.JPG,AFNE01.JPG,AFNE01.JPG,AFNE01.JPG,,,,,,,,,,,,,,,,,,,,,2,8,28,6,,,AFNE13.jpg,AFSA08.jpg,AFNE11.jpg,AFSA17.jpg,AFNE11.jpg,FN,3,num_2,32,num_8,0.500113060698,,,2017_May_09_1657,59.9992109939,MAFE4ImagesEEG,001,200281,
AFNE01.JPG,AFNE01.JPG,AFNE01.JPG,AFNE01.JPG,AFNE01.JPG,AFNE01.JPG,,,,,,,,,,,,,,,,,,,,,2,9,29,1,,,AFSA09.jpg,AFNE01.jpg,AFNE20.jpg,AFSA14.jpg,AFSA14.jpg,FS,4,num_4,16,num_4,0.416813912569,,,2017_May_09_1657,59.9992109939,MAFE4ImagesEEG,001,200281,
AFNE01.JPG,AFNE01.JPG,AFNE01.JPG,AFNE01.JPG,AFNE01.JPG,AFNE01.JPG,,,,,,,,,,,,,,,,,,,,,3,0,30,1,,,AFNE15.jpg,AFNE18.jpg,AFSA11.jpg,AFSA09.jpg,AFNE15.jpg,FN,3,num_8,32,num_6,0.516846339218,,,2017_May_09_1657,59.9992109939,MAFE4ImagesEEG,001,200281,
AFNE01.JPG,AFNE01.JPG,AFNE01.JPG,AFNE01.JPG,AFNE01.JPG,AFNE01.JPG,,,,,,,,,,,,,,,,,,,,,3,1,31,7,,,AFSA16.jpg,AFNE18.jpg,AFSA02.jpg,AFNE20.jpg,AFNE18.jpg,FN,3,num_6,32,num_2,0.400061389431,,,2017_May_09_1657,59.9992109939,MAFE4ImagesEEG,001,200281,
AFNE01.JPG,AFNE01.JPG,AFNE01.JPG,AFNE01.JPG,AFNE01.JPG,AFNE01.JPG,,,,,,,,,,,,,,,,,,,,,3,2,32,9,,,AFNE07.jpg,AFSA14.jpg,AFSA09.jpg,AFNE02.jpg,AFSA09.jpg,FS,4,num_2,32,num_4,0.51681041671,,,2017_May_09_1657,59.9992109939,MAFE4ImagesEEG,001,200281,
AFNE01.JPG,AFNE01.JPG,AFNE01.JPG,AFNE01.JPG,AFNE01.JPG,AFNE01.JPG,,,,,,,,,,,,,,,,,,,,,3,3,33,8,,,AFSA02.jpg,AFNE03.jpg,AFNE11.jpg,AFSA09.jpg,AFNE03.jpg,FN,3,num_6,32,num_4,0.700364263495,,,2017_May_09_1657,59.9992109939,MAFE4ImagesEEG,001,200281,
AFNE01.JPG,AFNE01.JPG,AFNE01.JPG,AFNE01.JPG,AFNE01.JPG,AFNE01.JPG,,,,,,,,,,,,,,,,,,,,,3,4,34,6,,,AFNE11.jpg,AFNE04.jpg,AFSA12.jpg,AFSA18.jpg,AFNE11.jpg,FN,3,num_8,32,num_6,0.616801147349,,,2017_May_09_1657,59.9992109939,MAFE4ImagesEEG,001,200281,
AFNE01.JPG,AFNE01.JPG,AFNE01.JPG,AFNE01.JPG,AFNE01.JPG,AFNE01.JPG,,,,,,,,,,,,,,,,,,,,,3,5,35,4,,,AFSA09.jpg,AFNE09.jpg,AFSA01.jpg,AFNE08.jpg,AFNE09.jpg,FN,3,num_6,32,num_4,0.48346990929,,,2017_May_09_1657,59.9992109939,MAFE4ImagesEEG,001,200281,
AFNE01.JPG,AFNE01.JPG,AFNE01.JPG,AFNE01.JPG,AFNE01.JPG,AFNE01.JPG,,,,,,,,,,,,,,,,,,,,,3,6,36,3,,,AFNE02.jpg,AFSA03.jpg,AFNE13.jpg,AFSA02.jpg,AFSA03.jpg,FS,4,num_6,32,num_2,0.383465066319,,,2017_May_09_1657,59.9992109939,MAFE4ImagesEEG,001,200281,
AFNE01.JPG,AFNE01.JPG,AFNE01.JPG,AFNE01.JPG,AFNE01.JPG,AFNE01.JPG,,,,,,,,,,,,,,,,,,,,,3,7,37,2,,,AFNE05.jpg,AFSA15.jpg,AFSA19.jpg,AFNE01.jpg,AFNE05.jpg,FN,3,num_8,32,num_6,0.0834970439319,,,2017_May_09_1657,59.9992109939,MAFE4ImagesEEG,001,200281,
AFNE01.JPG,AFNE01.JPG,AFNE01.JPG,AFNE01.JPG,AFNE01.JPG,AFNE01.JPG,,,,,,,,,,,,,,,,,,,,,3,8,38,0,,,AFNE07.jpg,AFSA03.jpg,AFSA14.jpg,AFNE20.jpg,AFSA03.jpg,FS,4,num_6,32,num_4,0.616802750854,,,2017_May_09_1657,59.9992109939,MAFE4ImagesEEG,001,200281,
