IPosition2,IPosition3,IPosition1,IPosition6,IPosition4,IPosition5,TrialsF1.thisRepN,TrialsF1.thisTrialN,TrialsF1.thisN,TrialsF1.thisIndex,TrialsM1.thisRepN,TrialsM1.thisTrialN,TrialsM1.thisN,TrialsM1.thisIndex,TrialsF2.thisRepN,TrialsF2.thisTrialN,TrialsF2.thisN,TrialsF2.thisIndex,TrialsM2.thisRepN,TrialsM2.thisTrialN,TrialsM2.thisN,TrialsM2.thisIndex,TrialsF3.thisRepN,TrialsF3.thisTrialN,TrialsF3.thisN,TrialsF3.thisIndex,TrialsM3.thisRepN,TrialsM3.thisTrialN,TrialsM3.thisN,TrialsM3.thisIndex,InstrKey_resp.keys,InstrKey_resp.rt,Image0 _Position,Image1 _Position,Image2 _Position,Image3 _Position,Center_image,condition,code,correct_answer,accuracy,Key_Resp.keys,Key_Resp.rt,BreakKey_resp.keys,BreakKey_resp.rt,date,frameRate,expName,session,participant,
,,,,,,,,,,,,,,,,,,,,,,,,,,,,,,space,23.5653189961,,,,,,,,,,,,,,2017_May_03_1640,60.004407249,FEMA4ImagesEEG,001,200243,
AMSA25.JPG,AMNE24.JPG,AMSA24.JPG,AMNE26.JPG,AMSA21.JPG,AMNE25.JPG,0,0,0,3,,,,,,,,,,,,,,,,,,,,,,,AFSA15.jpg,AFNE19.jpg,AFNE14.jpg,AFSA05.jpg,AFNE19.jpg,FN,3,num_6,16,num_6,1.18342843791,,,2017_May_03_1640,60.004407249,FEMA4ImagesEEG,001,200243,
AMNE23.JPG,AMNE24.JPG,AMNE22.JPG,AMSA24.JPG,AMSA22.JPG,AMSA23.JPG,0,1,1,9,,,,,,,,,,,,,,,,,,,,,,,AFNE18.jpg,AFSA12.jpg,AFNE15.jpg,AFSA09.jpg,AFSA12.jpg,FS,4,num_6,16,num_6,0.933437659172,,,2017_May_03_1640,60.004407249,FEMA4ImagesEEG,001,200243,
AMSA21.JPG,AMNE23.JPG,AMNE21.JPG,AMSA25.JPG,AMNE25.JPG,AMSA23.JPG,0,2,2,5,,,,,,,,,,,,,,,,,,,,,,,AFSA06.jpg,AFNE16.jpg,AFSA07.jpg,AFNE03.jpg,AFSA07.jpg,FS,4,num_2,32,num_4,1.21678369911,,,2017_May_03_1640,60.004407249,FEMA4ImagesEEG,001,200243,
AMNE22.JPG,AMSA24.JPG,AMSA22.JPG,AMNE25.JPG,AMNE24.JPG,AMSA25.JPG,0,3,3,7,,,,,,,,,,,,,,,,,,,,,,,AFNE01.jpg,AFSA15.jpg,AFSA01.jpg,AFNE11.jpg,AFNE11.jpg,FN,3,num_4,16,num_4,0.833454305306,,,2017_May_03_1640,60.004407249,FEMA4ImagesEEG,001,200243,
AFSA21.JPG,AFNE22.JPG,AFNE21.JPG,AFSA23.JPG,AFSA22.JPG,AFNE23.JPG,0,4,4,0,,,,,,,,,,,,,,,,,,,,,,,AFSA09.jpg,AFSA04.jpg,AFNE12.jpg,AFNE15.jpg,AFSA04.jpg,FS,4,num_6,32,num_2,1.30014795694,,,2017_May_03_1640,60.004407249,FEMA4ImagesEEG,001,200243,
AFNE23.JPG,AFNE24.JPG,AFNE22.JPG,AFSA24.JPG,AFSA22.JPG,AFSA23.JPG,0,5,5,8,,,,,,,,,,,,,,,,,,,,,,,AFSA17.jpg,AFNE17.jpg,AFNE09.jpg,AFSA15.jpg,AFNE09.jpg,FN,3,num_2,32,num_4,1.01685804641,,,2017_May_03_1640,60.004407249,FEMA4ImagesEEG,001,200243,
AFSA21.JPG,AFNE23.JPG,AFNE21.JPG,AFSA25.JPG,AFNE25.JPG,AFSA23.JPG,0,6,6,4,,,,,,,,,,,,,,,,,,,,,,,AFSA19.jpg,AFSA04.jpg,AFNE13.jpg,AFNE10.jpg,AFNE10.jpg,FN,3,num_4,32,num_2,0.916797715472,,,2017_May_03_1640,60.004407249,FEMA4ImagesEEG,001,200243,
AMSA21.JPG,AMNE22.JPG,AMNE21.JPG,AMSA23.JPG,AMSA22.JPG,AMNE23.JPG,0,7,7,1,,,,,,,,,,,,,,,,,,,,,,,AFSA16.jpg,AFSA15.jpg,AFNE07.jpg,AFNE17.jpg,AFSA15.jpg,FS,4,num_6,16,num_6,0.650186878629,,,2017_May_03_1640,60.004407249,FEMA4ImagesEEG,001,200243,
AFNE22.JPG,AFSA24.JPG,AFSA22.JPG,AFNE25.JPG,AFNE24.JPG,AFSA25.JPG,0,8,8,6,,,,,,,,,,,,,,,,,,,,,,,AFSA15.jpg,AFNE18.jpg,AFSA13.jpg,AFNE12.jpg,AFNE18.jpg,FN,3,num_6,32,num_8,1.18340983498,,,2017_May_03_1640,60.004407249,FEMA4ImagesEEG,001,200243,
AFSA25.JPG,AFNE24.JPG,AFSA24.JPG,AFNE21.JPG,AFSA21.JPG,AFNE25.JPG,0,9,9,2,,,,,,,,,,,,,,,,,,,,,,,AFSA06.jpg,AFSA20.jpg,AFNE16.jpg,AFNE19.jpg,AFNE19.jpg,FN,3,num_4,32,num_2,1.26675003744,,,2017_May_03_1640,60.004407249,FEMA4ImagesEEG,001,200243,
AMSA21.JPG,AMNE23.JPG,AMNE21.JPG,AMSA25.JPG,AMNE25.JPG,AMSA23.JPG,,,,,0,0,0,5,,,,,,,,,,,,,,,,,,,AMSA14.jpg,AMSA01.jpg,AMNE05.jpg,AMNE19.jpg,AMSA14.jpg,MS,2,num_8,16,num_8,0.950123789255,,,2017_May_03_1640,60.004407249,FEMA4ImagesEEG,001,200243,
AFNE22.JPG,AFSA24.JPG,AFSA22.JPG,AFNE25.JPG,AFNE24.JPG,AFSA25.JPG,,,,,0,1,1,6,,,,,,,,,,,,,,,,,,,AMSA13.jpg,AMNE15.jpg,AMSA03.jpg,AMNE17.jpg,AMNE17.jpg,MN,1,num_4,32,num_8,0.733429255895,,,2017_May_03_1640,60.004407249,FEMA4ImagesEEG,001,200243,
AFSA25.JPG,AFNE24.JPG,AFSA24.JPG,AFNE21.JPG,AFSA21.JPG,AFNE25.JPG,,,,,0,2,2,2,,,,,,,,,,,,,,,,,,,AMSA07.jpg,AMNE12.jpg,AMSA15.jpg,AMNE11.jpg,AMSA07.jpg,MS,2,num_8,32,num_2,0.566791188205,,,2017_May_03_1640,60.004407249,FEMA4ImagesEEG,001,200243,
AMSA21.JPG,AMNE22.JPG,AMNE21.JPG,AMSA23.JPG,AMSA22.JPG,AMNE23.JPG,,,,,0,3,3,1,,,,,,,,,,,,,,,,,,,AMSA15.jpg,AMNE13.jpg,AMSA10.jpg,AMNE04.jpg,AMNE04.jpg,MN,1,num_4,16,num_4,0.750081387581,,,2017_May_03_1640,60.004407249,FEMA4ImagesEEG,001,200243,
AMNE22.JPG,AMSA24.JPG,AMSA22.JPG,AMNE25.JPG,AMNE24.JPG,AMSA25.JPG,,,,,0,4,4,7,,,,,,,,,,,,,,,,,,,AMSA08.jpg,AMNE09.jpg,AMNE07.jpg,AMSA19.jpg,AMSA19.jpg,MS,2,num_4,32,num_8,0.566771302605,,,2017_May_03_1640,60.004407249,FEMA4ImagesEEG,001,200243,
AFNE23.JPG,AFNE24.JPG,AFNE22.JPG,AFSA24.JPG,AFSA22.JPG,AFSA23.JPG,,,,,0,5,5,8,,,,,,,,,,,,,,,,,,,AMNE17.jpg,AMSA02.jpg,AMNE11.jpg,AMSA10.jpg,AMNE17.jpg,MN,1,num_8,32,num_6,0.733442726778,,,2017_May_03_1640,60.004407249,FEMA4ImagesEEG,001,200243,
AMSA25.JPG,AMNE24.JPG,AMSA24.JPG,AMNE26.JPG,AMSA21.JPG,AMNE25.JPG,,,,,0,6,6,3,,,,,,,,,,,,,,,,,,,AMNE13.jpg,AMSA11.jpg,AMNE01.jpg,AMSA03.jpg,AMSA11.jpg,MS,2,num_6,32,num_4,0.483480493771,,,2017_May_03_1640,60.004407249,FEMA4ImagesEEG,001,200243,
AMNE23.JPG,AMNE24.JPG,AMNE22.JPG,AMSA24.JPG,AMSA22.JPG,AMSA23.JPG,,,,,0,7,7,9,,,,,,,,,,,,,,,,,,,AMNE09.jpg,AMNE11.jpg,AMSA05.jpg,AMSA09.jpg,AMNE09.jpg,MN,1,num_8,16,num_8,1.08345246129,,,2017_May_03_1640,60.004407249,FEMA4ImagesEEG,001,200243,
AFSA21.JPG,AFNE22.JPG,AFNE21.JPG,AFSA23.JPG,AFSA22.JPG,AFNE23.JPG,,,,,0,8,8,0,,,,,,,,,,,,,,,,,,,AMNE17.jpg,AMNE16.jpg,AMSA17.jpg,AMSA19.jpg,AMSA17.jpg,MS,2,num_2,32,num_4,0.783439535415,,,2017_May_03_1640,60.004407249,FEMA4ImagesEEG,001,200243,
AFSA21.JPG,AFNE23.JPG,AFNE21.JPG,AFSA25.JPG,AFNE25.JPG,AFSA23.JPG,,,,,0,9,9,4,,,,,,,,,,,,,,,,,,,AMSA18.jpg,AMSA09.jpg,AMNE09.jpg,AMNE15.jpg,AMNE09.jpg,MN,1,num_2,32,num_6,0.966752507258,,,2017_May_03_1640,60.004407249,FEMA4ImagesEEG,001,200243,
AMSA21.JPG,AMNE22.JPG,AMNE21.JPG,AMSA23.JPG,AMSA22.JPG,AMNE23.JPG,,,,,,,,,0,0,0,1,,,,,,,,,,,,,,,AFSA08.jpg,AFSA10.jpg,AFNE06.jpg,AFNE04.jpg,AFNE04.jpg,FN,3,num_4,16,num_4,0.466782496078,,,2017_May_03_1640,60.004407249,FEMA4ImagesEEG,001,200243,
AFNE22.JPG,AFSA24.JPG,AFSA22.JPG,AFNE25.JPG,AFNE24.JPG,AFSA25.JPG,,,,,,,,,0,1,1,6,,,,,,,,,,,,,,,AFSA17.jpg,AFSA11.jpg,AFNE07.jpg,AFNE01.jpg,AFNE07.jpg,FN,3,num_2,16,num_2,1.06673072907,,,2017_May_03_1640,60.004407249,FEMA4ImagesEEG,001,200243,
AFSA21.JPG,AFNE22.JPG,AFNE21.JPG,AFSA23.JPG,AFSA22.JPG,AFNE23.JPG,,,,,,,,,0,2,2,0,,,,,,,,,,,,,,,AFNE10.jpg,AFNE02.jpg,AFSA11.jpg,AFSA19.jpg,AFNE10.jpg,FN,3,num_8,32,num_2,1.83335615927,,,2017_May_03_1640,60.004407249,FEMA4ImagesEEG,001,200243,
AMNE23.JPG,AMNE24.JPG,AMNE22.JPG,AMSA24.JPG,AMSA22.JPG,AMSA23.JPG,,,,,,,,,0,3,3,9,,,,,,,,,,,,,,,AFSA12.jpg,AFSA02.jpg,AFNE14.jpg,AFNE12.jpg,AFSA12.jpg,FS,4,num_8,16,num_8,0.450224982342,,,2017_May_03_1640,60.004407249,FEMA4ImagesEEG,001,200243,
AMSA25.JPG,AMNE24.JPG,AMSA24.JPG,AMNE26.JPG,AMSA21.JPG,AMNE25.JPG,,,,,,,,,0,4,4,3,,,,,,,,,,,,,,,AFNE06.jpg,AFSA15.jpg,AFNE20.jpg,AFSA08.jpg,AFNE20.jpg,FN,3,num_2,32,num_8,0.716913437936,,,2017_May_03_1640,60.004407249,FEMA4ImagesEEG,001,200243,
AFNE23.JPG,AFNE24.JPG,AFNE22.JPG,AFSA24.JPG,AFSA22.JPG,AFSA23.JPG,,,,,,,,,0,5,5,8,,,,,,,,,,,,,,,AFNE06.jpg,AFSA04.jpg,AFSA01.jpg,AFNE08.jpg,AFSA01.jpg,FS,4,num_2,16,num_2,0.766714275116,,,2017_May_03_1640,60.004407249,FEMA4ImagesEEG,001,200243,
AFSA21.JPG,AFNE23.JPG,AFNE21.JPG,AFSA25.JPG,AFNE25.JPG,AFSA23.JPG,,,,,,,,,0,6,6,4,,,,,,,,,,,,,,,AFSA04.jpg,AFNE06.jpg,AFSA16.jpg,AFNE19.jpg,AFNE06.jpg,FN,3,num_6,32,num_8,1.20006645704,,,2017_May_03_1640,60.004407249,FEMA4ImagesEEG,001,200243,
AMSA21.JPG,AMNE23.JPG,AMNE21.JPG,AMSA25.JPG,AMNE25.JPG,AMSA23.JPG,,,,,,,,,0,7,7,5,,,,,,,,,,,,,,,AFNE12.jpg,AFSA04.jpg,AFNE16.jpg,AFSA12.jpg,AFSA12.jpg,FS,4,num_4,16,num_4,0.649813859258,,,2017_May_03_1640,60.004407249,FEMA4ImagesEEG,001,200243,
AFSA25.JPG,AFNE24.JPG,AFSA24.JPG,AFNE21.JPG,AFSA21.JPG,AFNE25.JPG,,,,,,,,,0,8,8,2,,,,,,,,,,,,,,,AFNE06.jpg,AFNE03.jpg,AFSA12.jpg,AFSA11.jpg,AFSA12.jpg,FS,4,num_2,16,num_2,0.833455267595,,,2017_May_03_1640,60.004407249,FEMA4ImagesEEG,001,200243,
AMNE22.JPG,AMSA24.JPG,AMSA22.JPG,AMNE25.JPG,AMNE24.JPG,AMSA25.JPG,,,,,,,,,0,9,9,7,,,,,,,,,,,,,,,AFSA01.jpg,AFNE03.jpg,AFSA02.jpg,AFNE14.jpg,AFNE03.jpg,FN,3,num_6,16,num_6,0.966751544969,,,2017_May_03_1640,60.004407249,FEMA4ImagesEEG,001,200243,
AMSA21.JPG,AMNE22.JPG,AMNE21.JPG,AMSA23.JPG,AMSA22.JPG,AMNE23.JPG,,,,,,,,,,,,,0,0,0,1,,,,,,,,,,,AMNE15.jpg,AMSA05.jpg,AMNE10.jpg,AMSA01.jpg,AMSA01.jpg,MS,2,num_4,16,num_4,0.583439791808,,,2017_May_03_1640,60.004407249,FEMA4ImagesEEG,001,200243,
AFNE22.JPG,AFSA24.JPG,AFSA22.JPG,AFNE25.JPG,AFNE24.JPG,AFSA25.JPG,,,,,,,,,,,,,0,1,1,6,,,,,,,,,,,AMSA19.jpg,AMSA13.jpg,AMNE18.jpg,AMNE04.jpg,AMNE18.jpg,MN,1,num_2,16,num_2,1.19993655779,,,2017_May_03_1640,60.004407249,FEMA4ImagesEEG,001,200243,
AFSA25.JPG,AFNE24.JPG,AFSA24.JPG,AFNE21.JPG,AFSA21.JPG,AFNE25.JPG,,,,,,,,,,,,,0,2,2,2,,,,,,,,,,,AMNE06.jpg,AMNE07.jpg,AMSA05.jpg,AMSA03.jpg,AMSA05.jpg,MS,2,num_2,16,num_2,0.666758504929,,,2017_May_03_1640,60.004407249,FEMA4ImagesEEG,001,200243,
AMSA21.JPG,AMNE23.JPG,AMNE21.JPG,AMSA25.JPG,AMNE25.JPG,AMSA23.JPG,,,,,,,,,,,,,0,3,3,5,,,,,,,,,,,AMNE04.jpg,AMSA05.jpg,AMNE16.jpg,AMSA18.jpg,AMSA05.jpg,MS,2,num_6,16,num_6,1.60006658547,,,2017_May_03_1640,60.004407249,FEMA4ImagesEEG,001,200243,
AFSA21.JPG,AFNE22.JPG,AFNE21.JPG,AFSA23.JPG,AFSA22.JPG,AFNE23.JPG,,,,,,,,,,,,,0,4,4,0,,,,,,,,,,,AMSA07.jpg,AMSA20.jpg,AMNE05.jpg,AMNE01.jpg,AMNE05.jpg,MN,1,num_2,32,num_8,1.61666162568,,,2017_May_03_1640,60.004407249,FEMA4ImagesEEG,001,200243,
AFNE23.JPG,AFNE24.JPG,AFNE22.JPG,AFSA24.JPG,AFSA22.JPG,AFSA23.JPG,,,,,,,,,,,,,0,5,5,8,,,,,,,,,,,AMSA19.jpg,AMNE01.jpg,AMSA14.jpg,AMNE05.jpg,AMSA19.jpg,MS,2,num_8,32,num_2,0.51677898434,,,2017_May_03_1640,60.004407249,FEMA4ImagesEEG,001,200243,
AMNE22.JPG,AMSA24.JPG,AMSA22.JPG,AMNE25.JPG,AMNE24.JPG,AMSA25.JPG,,,,,,,,,,,,,0,6,6,7,,,,,,,,,,,AMNE06.jpg,AMNE08.jpg,AMSA13.jpg,AMSA04.jpg,AMSA04.jpg,MS,2,num_4,16,num_4,0.46677832678,,,2017_May_03_1640,60.004407249,FEMA4ImagesEEG,001,200243,
AMSA25.JPG,AMNE24.JPG,AMSA24.JPG,AMNE26.JPG,AMSA21.JPG,AMNE25.JPG,,,,,,,,,,,,,0,7,7,3,,,,,,,,,,,AMSA11.jpg,AMNE08.jpg,AMSA13.jpg,AMNE17.jpg,AMNE08.jpg,MN,1,num_6,16,num_6,0.816773307044,,,2017_May_03_1640,60.004407249,FEMA4ImagesEEG,001,200243,
AFSA21.JPG,AFNE23.JPG,AFNE21.JPG,AFSA25.JPG,AFNE25.JPG,AFSA23.JPG,,,,,,,,,,,,,0,8,8,4,,,,,,,,,,,AMNE07.jpg,AMSA09.jpg,AMNE03.jpg,AMSA04.jpg,AMNE03.jpg,MN,1,num_2,32,num_4,1.06674644514,,,2017_May_03_1640,60.004407249,FEMA4ImagesEEG,001,200243,
AMNE23.JPG,AMNE24.JPG,AMNE22.JPG,AMSA24.JPG,AMSA22.JPG,AMSA23.JPG,,,,,,,,,,,,,0,9,9,9,,,,,,,,,,,AMSA06.jpg,AMNE02.jpg,AMSA08.jpg,AMNE01.jpg,AMNE02.jpg,MN,1,num_6,32,num_2,1.03343897429,,,2017_May_03_1640,60.004407249,FEMA4ImagesEEG,001,200243,
AFSA25.JPG,AFNE24.JPG,AFSA24.JPG,AFNE21.JPG,AFSA21.JPG,AFNE25.JPG,,,,,,,,,,,,,,,,,0,0,0,2,,,,,,,AFSA02.jpg,AFSA01.jpg,AFNE01.jpg,AFNE04.jpg,AFNE01.jpg,FN,3,num_2,32,num_4,0.800104496768,,,2017_May_03_1640,60.004407249,FEMA4ImagesEEG,001,200243,
AMNE22.JPG,AMSA24.JPG,AMSA22.JPG,AMNE25.JPG,AMNE24.JPG,AMSA25.JPG,,,,,,,,,,,,,,,,,0,1,1,7,,,,,,,AFSA13.jpg,AFSA15.jpg,AFNE10.jpg,AFNE14.jpg,AFNE14.jpg,FN,3,num_4,16,num_4,2.21708006179,,,2017_May_03_1640,60.004407249,FEMA4ImagesEEG,001,200243,
AMSA21.JPG,AMNE22.JPG,AMNE21.JPG,AMSA23.JPG,AMSA22.JPG,AMNE23.JPG,,,,,,,,,,,,,,,,,0,2,2,1,,,,,,,AFSA01.jpg,AFNE15.jpg,AFSA14.jpg,AFNE12.jpg,AFSA14.jpg,FS,4,num_2,16,num_2,0.666776466416,,,2017_May_03_1640,60.004407249,FEMA4ImagesEEG,001,200243,
AFNE23.JPG,AFNE24.JPG,AFNE22.JPG,AFSA24.JPG,AFSA22.JPG,AFSA23.JPG,,,,,,,,,,,,,,,,,0,3,3,8,,,,,,,AFNE05.jpg,AFSA11.jpg,AFNE19.jpg,AFSA14.jpg,AFSA11.jpg,FS,4,num_6,16,num_6,0.733489554608,,,2017_May_03_1640,60.004407249,FEMA4ImagesEEG,001,200243,
AMSA21.JPG,AMNE23.JPG,AMNE21.JPG,AMSA25.JPG,AMNE25.JPG,AMSA23.JPG,,,,,,,,,,,,,,,,,0,4,4,5,,,,,,,AFSA07.jpg,AFSA03.jpg,AFNE02.jpg,AFNE17.jpg,AFNE17.jpg,FN,3,num_4,16,num_4,0.683453294914,,,2017_May_03_1640,60.004407249,FEMA4ImagesEEG,001,200243,
AFSA21.JPG,AFNE23.JPG,AFNE21.JPG,AFSA25.JPG,AFNE25.JPG,AFSA23.JPG,,,,,,,,,,,,,,,,,0,5,5,4,,,,,,,AFNE18.jpg,AFSA17.jpg,AFSA13.jpg,AFNE20.jpg,AFSA17.jpg,FS,4,num_6,32,num_8,1.95001730393,,,2017_May_03_1640,60.004407249,FEMA4ImagesEEG,001,200243,
AFSA21.JPG,AFNE22.JPG,AFNE21.JPG,AFSA23.JPG,AFSA22.JPG,AFNE23.JPG,,,,,,,,,,,,,,,,,0,6,6,0,,,,,,,AFNE04.jpg,AFNE03.jpg,AFSA02.jpg,AFSA08.jpg,AFSA02.jpg,FS,4,num_2,16,num_2,0.516766475281,,,2017_May_03_1640,60.004407249,FEMA4ImagesEEG,001,200243,
AFNE22.JPG,AFSA24.JPG,AFSA22.JPG,AFNE25.JPG,AFNE24.JPG,AFSA25.JPG,,,,,,,,,,,,,,,,,0,7,7,6,,,,,,,AFSA13.jpg,AFNE11.jpg,AFSA06.jpg,AFNE01.jpg,AFSA13.jpg,FS,4,num_8,32,num_6,0.46667087893,,,2017_May_03_1640,60.004407249,FEMA4ImagesEEG,001,200243,
AMNE23.JPG,AMNE24.JPG,AMNE22.JPG,AMSA24.JPG,AMSA22.JPG,AMSA23.JPG,,,,,,,,,,,,,,,,,0,8,8,9,,,,,,,AFNE02.jpg,AFNE09.jpg,AFSA20.jpg,AFSA05.jpg,AFNE09.jpg,FN,3,num_6,16,num_6,1.06679423549,,,2017_May_03_1640,60.004407249,FEMA4ImagesEEG,001,200243,
AMSA25.JPG,AMNE24.JPG,AMSA24.JPG,AMNE26.JPG,AMSA21.JPG,AMNE25.JPG,,,,,,,,,,,,,,,,,0,9,9,3,,,,,,,AFSA01.jpg,AFNE07.jpg,AFNE02.jpg,AFSA13.jpg,AFNE02.jpg,FN,3,num_2,32,num_4,1.26654540584,,,2017_May_03_1640,60.004407249,FEMA4ImagesEEG,001,200243,
AMNE23.JPG,AMNE24.JPG,AMNE22.JPG,AMSA24.JPG,AMSA22.JPG,AMSA23.JPG,,,,,,,,,,,,,,,,,,,,,0,0,0,9,,,AMNE06.jpg,AMSA15.jpg,AMSA02.jpg,AMNE04.jpg,AMSA02.jpg,MS,2,num_2,16,num_2,0.499976746272,,,2017_May_03_1640,60.004407249,FEMA4ImagesEEG,001,200243,
AFSA21.JPG,AFNE22.JPG,AFNE21.JPG,AFSA23.JPG,AFSA22.JPG,AFNE23.JPG,,,,,,,,,,,,,,,,,,,,,0,1,1,0,,,AMNE04.jpg,AMSA15.jpg,AMNE10.jpg,AMSA10.jpg,AMSA10.jpg,MS,2,num_4,32,num_6,0.750135913258,,,2017_May_03_1640,60.004407249,FEMA4ImagesEEG,001,200243,
AFNE22.JPG,AFSA24.JPG,AFSA22.JPG,AFNE25.JPG,AFNE24.JPG,AFSA25.JPG,,,,,,,,,,,,,,,,,,,,,0,2,2,6,,,AMNE03.jpg,AMSA07.jpg,AMSA20.jpg,AMNE11.jpg,AMSA07.jpg,MS,2,num_6,32,num_8,1.30015212647,,,2017_May_03_1640,60.004407249,FEMA4ImagesEEG,001,200243,
AMSA25.JPG,AMNE24.JPG,AMSA24.JPG,AMNE26.JPG,AMSA21.JPG,AMNE25.JPG,,,,,,,,,,,,,,,,,,,,,0,3,3,3,,,AMSA16.jpg,AMNE04.jpg,AMSA03.jpg,AMNE16.jpg,AMNE16.jpg,MN,1,num_4,32,num_2,0.58348629903,,,2017_May_03_1640,60.004407249,FEMA4ImagesEEG,001,200243,
AMNE22.JPG,AMSA24.JPG,AMSA22.JPG,AMNE25.JPG,AMNE24.JPG,AMSA25.JPG,,,,,,,,,,,,,,,,,,,,,0,4,4,7,,,AMSA09.jpg,AMNE11.jpg,AMSA04.jpg,AMNE13.jpg,AMSA09.jpg,MS,2,num_8,16,num_8,0.533454209333,,,2017_May_03_1640,60.004407249,FEMA4ImagesEEG,001,200243,
AFSA25.JPG,AFNE24.JPG,AFSA24.JPG,AFNE21.JPG,AFSA21.JPG,AFNE25.JPG,,,,,,,,,,,,,,,,,,,,,0,5,5,2,,,AMNE11.jpg,AMSA04.jpg,AMSA09.jpg,AMNE15.jpg,AMSA09.jpg,MS,2,num_2,32,num_4,1.30009439355,,,2017_May_03_1640,60.004407249,FEMA4ImagesEEG,001,200243,
AFSA21.JPG,AFNE23.JPG,AFNE21.JPG,AFSA25.JPG,AFNE25.JPG,AFSA23.JPG,,,,,,,,,,,,,,,,,,,,,0,6,6,4,,,AMNE14.jpg,AMSA17.jpg,AMNE18.jpg,AMSA19.jpg,AMNE14.jpg,MN,1,num_8,32,num_2,1.31672118697,,,2017_May_03_1640,60.004407249,FEMA4ImagesEEG,001,200243,
AMSA21.JPG,AMNE22.JPG,AMNE21.JPG,AMSA23.JPG,AMSA22.JPG,AMNE23.JPG,,,,,,,,,,,,,,,,,,,,,0,7,7,1,,,AMSA12.jpg,AMNE09.jpg,AMNE01.jpg,AMSA17.jpg,AMSA12.jpg,MS,2,num_8,32,num_4,1.23355065542,,,2017_May_03_1640,60.004407249,FEMA4ImagesEEG,001,200243,
AMSA21.JPG,AMNE23.JPG,AMNE21.JPG,AMSA25.JPG,AMNE25.JPG,AMSA23.JPG,,,,,,,,,,,,,,,,,,,,,0,8,8,5,,,AMNE11.jpg,AMSA16.jpg,AMSA19.jpg,AMNE19.jpg,AMSA19.jpg,MS,2,num_2,16,num_2,0.966845842311,,,2017_May_03_1640,60.004407249,FEMA4ImagesEEG,001,200243,
AFNE23.JPG,AFNE24.JPG,AFNE22.JPG,AFSA24.JPG,AFSA22.JPG,AFSA23.JPG,,,,,,,,,,,,,,,,,,,,,0,9,9,8,,,AMNE06.jpg,AMSA20.jpg,AMNE08.jpg,AMSA15.jpg,AMNE06.jpg,MN,1,num_8,16,num_8,0.883442774881,,,2017_May_03_1640,60.004407249,FEMA4ImagesEEG,001,200243,
,,,,,,,,,,,,,,,,,,,,,,,,,,,,,,,,,,,,,,,,,,,space,14.4820381301,2017_May_03_1640,60.004407249,FEMA4ImagesEEG,001,200243,
AFNE01.JPG,AFNE01.JPG,AFNE01.JPG,AFNE01.JPG,AFNE01.JPG,AFNE01.JPG,0,0,0,3,,,,,,,,,,,,,,,,,,,,,,,AFSA20.jpg,AFNE04.jpg,AFSA13.jpg,AFNE09.jpg,AFSA13.jpg,FS,4,num_2,32,num_4,0.683466124581,,,2017_May_03_1640,60.004407249,FEMA4ImagesEEG,001,200243,
AFNE01.JPG,AFNE01.JPG,AFNE01.JPG,AFNE01.JPG,AFNE01.JPG,AFNE01.JPG,0,1,1,5,,,,,,,,,,,,,,,,,,,,,,,AFNE01.jpg,AFSA13.jpg,AFNE07.jpg,AFSA04.jpg,AFSA04.jpg,FS,4,num_4,32,num_2,0.666845104424,,,2017_May_03_1640,60.004407249,FEMA4ImagesEEG,001,200243,
AFNE01.JPG,AFNE01.JPG,AFNE01.JPG,AFNE01.JPG,AFNE01.JPG,AFNE01.JPG,0,2,2,0,,,,,,,,,,,,,,,,,,,,,,,AFNE18.jpg,AFSA10.jpg,AFNE07.jpg,AFSA09.jpg,AFSA10.jpg,FS,4,num_6,16,num_6,0.500194528373,,,2017_May_03_1640,60.004407249,FEMA4ImagesEEG,001,200243,
AFNE01.JPG,AFNE01.JPG,AFNE01.JPG,AFNE01.JPG,AFNE01.JPG,AFNE01.JPG,0,3,3,4,,,,,,,,,,,,,,,,,,,,,,,AFNE15.jpg,AFSA12.jpg,AFSA18.jpg,AFNE13.jpg,AFSA12.jpg,FS,4,num_6,32,num_2,0.600151902065,,,2017_May_03_1640,60.004407249,FEMA4ImagesEEG,001,200243,
AFNE01.JPG,AFNE01.JPG,AFNE01.JPG,AFNE01.JPG,AFNE01.JPG,AFNE01.JPG,0,4,4,1,,,,,,,,,,,,,,,,,,,,,,,AFNE01.jpg,AFNE12.jpg,AFSA10.jpg,AFSA17.jpg,AFSA17.jpg,FS,4,num_4,32,num_8,1.06677499111,,,2017_May_03_1640,60.004407249,FEMA4ImagesEEG,001,200243,
AFNE01.JPG,AFNE01.JPG,AFNE01.JPG,AFNE01.JPG,AFNE01.JPG,AFNE01.JPG,0,5,5,9,,,,,,,,,,,,,,,,,,,,,,,AFSA06.jpg,AFNE05.jpg,AFNE18.jpg,AFSA01.jpg,AFNE05.jpg,FN,3,num_6,32,num_8,0.766839683987,,,2017_May_03_1640,60.004407249,FEMA4ImagesEEG,001,200243,
AFNE01.JPG,AFNE01.JPG,AFNE01.JPG,AFNE01.JPG,AFNE01.JPG,AFNE01.JPG,0,6,6,8,,,,,,,,,,,,,,,,,,,,,,,AFSA04.jpg,AFNE10.jpg,AFNE01.jpg,AFSA15.jpg,AFSA04.jpg,FS,4,num_8,32,num_2,0.700091314502,,,2017_May_03_1640,60.004407249,FEMA4ImagesEEG,001,200243,
AFNE01.JPG,AFNE01.JPG,AFNE01.JPG,AFNE01.JPG,AFNE01.JPG,AFNE01.JPG,0,7,7,7,,,,,,,,,,,,,,,,,,,,,,,AFSA16.jpg,AFNE09.jpg,AFSA17.jpg,AFNE12.jpg,AFNE12.jpg,FN,3,num_4,32,num_6,0.650108297588,,,2017_May_03_1640,60.004407249,FEMA4ImagesEEG,001,200243,
AFNE01.JPG,AFNE01.JPG,AFNE01.JPG,AFNE01.JPG,AFNE01.JPG,AFNE01.JPG,0,8,8,6,,,,,,,,,,,,,,,,,,,,,,,AFNE18.jpg,AFSA17.jpg,AFSA01.jpg,AFNE12.jpg,AFNE12.jpg,FN,3,num_4,16,num_4,0.56664653495,,,2017_May_03_1640,60.004407249,FEMA4ImagesEEG,001,200243,
AFNE01.JPG,AFNE01.JPG,AFNE01.JPG,AFNE01.JPG,AFNE01.JPG,AFNE01.JPG,0,9,9,2,,,,,,,,,,,,,,,,,,,,,,,AFNE18.jpg,AFSA14.jpg,AFNE06.jpg,AFSA13.jpg,AFSA14.jpg,FS,4,num_6,32,num_8,0.916761792498,,,2017_May_03_1640,60.004407249,FEMA4ImagesEEG,001,200243,
AFNE01.JPG,AFNE01.JPG,AFNE01.JPG,AFNE01.JPG,AFNE01.JPG,AFNE01.JPG,1,0,10,9,,,,,,,,,,,,,,,,,,,,,,,AFNE19.jpg,AFNE10.jpg,AFSA16.jpg,AFSA06.jpg,AFSA06.jpg,FS,4,num_4,16,num_4,0.700137821492,,,2017_May_03_1640,60.004407249,FEMA4ImagesEEG,001,200243,
AFNE01.JPG,AFNE01.JPG,AFNE01.JPG,AFNE01.JPG,AFNE01.JPG,AFNE01.JPG,1,1,11,8,,,,,,,,,,,,,,,,,,,,,,,AFNE16.jpg,AFSA17.jpg,AFSA14.jpg,AFNE12.jpg,AFSA14.jpg,FS,4,num_2,16,num_2,1.56669496652,,,2017_May_03_1640,60.004407249,FEMA4ImagesEEG,001,200243,
AFNE01.JPG,AFNE01.JPG,AFNE01.JPG,AFNE01.JPG,AFNE01.JPG,AFNE01.JPG,1,2,12,3,,,,,,,,,,,,,,,,,,,,,,,AFSA20.jpg,AFNE13.jpg,AFSA13.jpg,AFNE12.jpg,AFSA13.jpg,FS,4,num_2,16,num_2,2.20029065362,,,2017_May_03_1640,60.004407249,FEMA4ImagesEEG,001,200243,
AFNE01.JPG,AFNE01.JPG,AFNE01.JPG,AFNE01.JPG,AFNE01.JPG,AFNE01.JPG,1,3,13,0,,,,,,,,,,,,,,,,,,,,,,,AFNE05.jpg,AFSA18.jpg,AFNE03.jpg,AFSA06.jpg,AFNE03.jpg,FN,3,num_2,32,num_8,1.10042052111,,,2017_May_03_1640,60.004407249,FEMA4ImagesEEG,001,200243,
AFNE01.JPG,AFNE01.JPG,AFNE01.JPG,AFNE01.JPG,AFNE01.JPG,AFNE01.JPG,1,4,14,5,,,,,,,,,,,,,,,,,,,,,,,AFSA03.jpg,AFSA18.jpg,AFNE02.jpg,AFNE05.jpg,AFSA03.jpg,FS,4,num_8,16,num_8,1.00011514546,,,2017_May_03_1640,60.004407249,FEMA4ImagesEEG,001,200243,
AFNE01.JPG,AFNE01.JPG,AFNE01.JPG,AFNE01.JPG,AFNE01.JPG,AFNE01.JPG,1,5,15,7,,,,,,,,,,,,,,,,,,,,,,,AFSA12.jpg,AFNE19.jpg,AFNE18.jpg,AFSA18.jpg,AFSA12.jpg,FS,4,num_8,32,num_2,2.16662203032,,,2017_May_03_1640,60.004407249,FEMA4ImagesEEG,001,200243,
AFNE01.JPG,AFNE01.JPG,AFNE01.JPG,AFNE01.JPG,AFNE01.JPG,AFNE01.JPG,1,6,16,6,,,,,,,,,,,,,,,,,,,,,,,AFNE01.jpg,AFSA11.jpg,AFNE07.jpg,AFSA14.jpg,AFSA11.jpg,FS,4,num_6,32,num_4,1.28346214746,,,2017_May_03_1640,60.004407249,FEMA4ImagesEEG,001,200243,
AFNE01.JPG,AFNE01.JPG,AFNE01.JPG,AFNE01.JPG,AFNE01.JPG,AFNE01.JPG,1,7,17,1,,,,,,,,,,,,,,,,,,,,,,,AFNE06.jpg,AFSA01.jpg,AFSA06.jpg,AFNE11.jpg,AFSA06.jpg,FS,4,num_2,16,num_2,1.78338084021,,,2017_May_03_1640,60.004407249,FEMA4ImagesEEG,001,200243,
AFNE01.JPG,AFNE01.JPG,AFNE01.JPG,AFNE01.JPG,AFNE01.JPG,AFNE01.JPG,1,8,18,4,,,,,,,,,,,,,,,,,,,,,,,AFSA06.jpg,AFNE07.jpg,AFNE05.jpg,AFSA08.jpg,AFSA06.jpg,FS,4,num_8,16,num_8,1.06671020156,,,2017_May_03_1640,60.004407249,FEMA4ImagesEEG,001,200243,
AFNE01.JPG,AFNE01.JPG,AFNE01.JPG,AFNE01.JPG,AFNE01.JPG,AFNE01.JPG,1,9,19,2,,,,,,,,,,,,,,,,,,,,,,,AFSA09.jpg,AFNE17.jpg,AFNE06.jpg,AFSA14.jpg,AFNE17.jpg,FN,3,num_6,16,num_6,1.58310269518,,,2017_May_03_1640,60.004407249,FEMA4ImagesEEG,001,200243,
AFNE01.JPG,AFNE01.JPG,AFNE01.JPG,AFNE01.JPG,AFNE01.JPG,AFNE01.JPG,2,0,20,3,,,,,,,,,,,,,,,,,,,,,,,AFSA08.jpg,AFNE11.jpg,AFNE20.jpg,AFSA13.jpg,AFNE11.jpg,FN,3,num_6,16,num_6,0.600125922123,,,2017_May_03_1640,60.004407249,FEMA4ImagesEEG,001,200243,
AFNE01.JPG,AFNE01.JPG,AFNE01.JPG,AFNE01.JPG,AFNE01.JPG,AFNE01.JPG,2,1,21,1,,,,,,,,,,,,,,,,,,,,,,,AFSA20.jpg,AFNE13.jpg,AFNE09.jpg,AFSA08.jpg,AFSA20.jpg,FS,4,num_8,32,num_4,1.03343127645,,,2017_May_03_1640,60.004407249,FEMA4ImagesEEG,001,200243,
AFNE01.JPG,AFNE01.JPG,AFNE01.JPG,AFNE01.JPG,AFNE01.JPG,AFNE01.JPG,2,2,22,5,,,,,,,,,,,,,,,,,,,,,,,AFNE07.jpg,AFSA03.jpg,AFNE12.jpg,AFSA20.jpg,AFSA20.jpg,FS,4,num_4,16,num_4,0.60010699858,,,2017_May_03_1640,60.004407249,FEMA4ImagesEEG,001,200243,
AFNE01.JPG,AFNE01.JPG,AFNE01.JPG,AFNE01.JPG,AFNE01.JPG,AFNE01.JPG,2,3,23,6,,,,,,,,,,,,,,,,,,,,,,,AFSA07.jpg,AFNE04.jpg,AFSA12.jpg,AFNE15.jpg,AFNE04.jpg,FN,3,num_6,32,num_8,1.86666876217,,,2017_May_03_1640,60.004407249,FEMA4ImagesEEG,001,200243,
AFNE01.JPG,AFNE01.JPG,AFNE01.JPG,AFNE01.JPG,AFNE01.JPG,AFNE01.JPG,2,4,24,0,,,,,,,,,,,,,,,,,,,,,,,AFNE14.jpg,AFNE20.jpg,AFSA01.jpg,AFSA08.jpg,AFSA01.jpg,FS,4,num_2,16,num_2,0.733330147341,,,2017_May_03_1640,60.004407249,FEMA4ImagesEEG,001,200243,
AFNE01.JPG,AFNE01.JPG,AFNE01.JPG,AFNE01.JPG,AFNE01.JPG,AFNE01.JPG,2,5,25,8,,,,,,,,,,,,,,,,,,,,,,,AFSA03.jpg,AFSA06.jpg,AFNE06.jpg,AFNE16.jpg,AFSA06.jpg,FS,4,num_6,32,num_8,1.00031945598,,,2017_May_03_1640,60.004407249,FEMA4ImagesEEG,001,200243,
AFNE01.JPG,AFNE01.JPG,AFNE01.JPG,AFNE01.JPG,AFNE01.JPG,AFNE01.JPG,2,6,26,4,,,,,,,,,,,,,,,,,,,,,,,AFSA09.jpg,AFSA13.jpg,AFNE13.jpg,AFNE16.jpg,AFSA09.jpg,FS,4,num_8,32,num_4,0.483617128571,,,2017_May_03_1640,60.004407249,FEMA4ImagesEEG,001,200243,
AFNE01.JPG,AFNE01.JPG,AFNE01.JPG,AFNE01.JPG,AFNE01.JPG,AFNE01.JPG,2,7,27,2,,,,,,,,,,,,,,,,,,,,,,,AFNE02.jpg,AFNE14.jpg,AFSA16.jpg,AFSA03.jpg,AFSA03.jpg,FS,4,num_4,16,num_4,0.616740527563,,,2017_May_03_1640,60.004407249,FEMA4ImagesEEG,001,200243,
AFNE01.JPG,AFNE01.JPG,AFNE01.JPG,AFNE01.JPG,AFNE01.JPG,AFNE01.JPG,2,8,28,9,,,,,,,,,,,,,,,,,,,,,,,AFSA02.jpg,AFSA11.jpg,AFNE18.jpg,AFNE20.jpg,AFSA11.jpg,FS,4,num_6,16,num_6,0.433472779812,,,2017_May_03_1640,60.004407249,FEMA4ImagesEEG,001,200243,
AFNE01.JPG,AFNE01.JPG,AFNE01.JPG,AFNE01.JPG,AFNE01.JPG,AFNE01.JPG,2,9,29,7,,,,,,,,,,,,,,,,,,,,,,,AFNE06.jpg,AFNE04.jpg,AFSA12.jpg,AFSA08.jpg,AFNE04.jpg,FN,3,num_6,32,num_8,1.36676193681,,,2017_May_03_1640,60.004407249,FEMA4ImagesEEG,001,200243,
AFNE01.JPG,AFNE01.JPG,AFNE01.JPG,AFNE01.JPG,AFNE01.JPG,AFNE01.JPG,3,0,30,6,,,,,,,,,,,,,,,,,,,,,,,AFNE16.jpg,AFSA14.jpg,AFSA05.jpg,AFNE08.jpg,AFNE16.jpg,FN,3,num_8,32,num_2,0.516778663499,,,2017_May_03_1640,60.004407249,FEMA4ImagesEEG,001,200243,
AFNE01.JPG,AFNE01.JPG,AFNE01.JPG,AFNE01.JPG,AFNE01.JPG,AFNE01.JPG,3,1,31,7,,,,,,,,,,,,,,,,,,,,,,,AFNE19.jpg,AFNE17.jpg,AFSA06.jpg,AFSA20.jpg,AFNE19.jpg,FN,3,num_8,32,num_4,0.616782544414,,,2017_May_03_1640,60.004407249,FEMA4ImagesEEG,001,200243,
AFNE01.JPG,AFNE01.JPG,AFNE01.JPG,AFNE01.JPG,AFNE01.JPG,AFNE01.JPG,3,2,32,8,,,,,,,,,,,,,,,,,,,,,,,AFNE08.jpg,AFSA10.jpg,AFSA16.jpg,AFNE17.jpg,AFSA10.jpg,FS,4,num_6,32,num_8,1.15010396764,,,2017_May_03_1640,60.004407249,FEMA4ImagesEEG,001,200243,
AFNE01.JPG,AFNE01.JPG,AFNE01.JPG,AFNE01.JPG,AFNE01.JPG,AFNE01.JPG,3,3,33,3,,,,,,,,,,,,,,,,,,,,,,,AFSA13.jpg,AFSA11.jpg,AFNE19.jpg,AFNE07.jpg,AFNE07.jpg,FN,3,num_4,16,num_4,0.533499433426,,,2017_May_03_1640,60.004407249,FEMA4ImagesEEG,001,200243,
AFNE01.JPG,AFNE01.JPG,AFNE01.JPG,AFNE01.JPG,AFNE01.JPG,AFNE01.JPG,3,4,34,9,,,,,,,,,,,,,,,,,,,,,,,AFNE18.jpg,AFNE09.jpg,AFSA13.jpg,AFSA08.jpg,AFSA13.jpg,FS,4,num_2,16,num_2,1.1668093421,,,2017_May_03_1640,60.004407249,FEMA4ImagesEEG,001,200243,
AFNE01.JPG,AFNE01.JPG,AFNE01.JPG,AFNE01.JPG,AFNE01.JPG,AFNE01.JPG,3,5,35,1,,,,,,,,,,,,,,,,,,,,,,,AFSA11.jpg,AFSA01.jpg,AFNE09.jpg,AFNE12.jpg,AFNE12.jpg,FN,3,num_4,16,num_4,0.833494076971,,,2017_May_03_1640,60.004407249,FEMA4ImagesEEG,001,200243,
AFNE01.JPG,AFNE01.JPG,AFNE01.JPG,AFNE01.JPG,AFNE01.JPG,AFNE01.JPG,3,6,36,2,,,,,,,,,,,,,,,,,,,,,,,AFSA05.jpg,AFNE18.jpg,AFSA11.jpg,AFNE17.jpg,AFNE18.jpg,FN,3,num_6,32,num_4,1.01669607311,,,2017_May_03_1640,60.004407249,FEMA4ImagesEEG,001,200243,
AFNE01.JPG,AFNE01.JPG,AFNE01.JPG,AFNE01.JPG,AFNE01.JPG,AFNE01.JPG,3,7,37,5,,,,,,,,,,,,,,,,,,,,,,,AFSA13.jpg,AFSA10.jpg,AFNE11.jpg,AFNE20.jpg,AFSA10.jpg,FS,4,num_6,16,num_6,0.650098033715,,,2017_May_03_1640,60.004407249,FEMA4ImagesEEG,001,200243,
AFNE01.JPG,AFNE01.JPG,AFNE01.JPG,AFNE01.JPG,AFNE01.JPG,AFNE01.JPG,3,8,38,0,,,,,,,,,,,,,,,,,,,,,,,AFSA10.jpg,AFNE15.jpg,AFSA20.jpg,AFNE01.jpg,AFNE15.jpg,FN,3,num_6,16,num_6,0.533474415774,,,2017_May_03_1640,60.004407249,FEMA4ImagesEEG,001,200243,
AFNE01.JPG,AFNE01.JPG,AFNE01.JPG,AFNE01.JPG,AFNE01.JPG,AFNE01.JPG,3,9,39,4,,,,,,,,,,,,,,,,,,,,,,,AFNE11.jpg,AFSA20.jpg,AFSA09.jpg,AFNE20.jpg,AFSA20.jpg,FS,4,num_6,32,num_8,1.08344219741,,,2017_May_03_1640,60.004407249,FEMA4ImagesEEG,001,200243,
AFNE01.JPG,AFNE01.JPG,AFNE01.JPG,AFNE01.JPG,AFNE01.JPG,AFNE01.JPG,4,0,40,9,,,,,,,,,,,,,,,,,,,,,,,AFNE17.jpg,AFSA05.jpg,AFNE01.jpg,AFSA01.jpg,AFSA01.jpg,FS,4,num_4,16,num_4,0.566776113585,,,2017_May_03_1640,60.004407249,FEMA4ImagesEEG,001,200243,
AFNE01.JPG,AFNE01.JPG,AFNE01.JPG,AFNE01.JPG,AFNE01.JPG,AFNE01.JPG,4,1,41,2,,,,,,,,,,,,,,,,,,,,,,,AFSA03.jpg,AFNE15.jpg,AFNE10.jpg,AFSA18.jpg,AFSA18.jpg,FS,4,num_4,16,num_4,0.683464520844,,,2017_May_03_1640,60.004407249,FEMA4ImagesEEG,001,200243,
AFNE01.JPG,AFNE01.JPG,AFNE01.JPG,AFNE01.JPG,AFNE01.JPG,AFNE01.JPG,4,2,42,4,,,,,,,,,,,,,,,,,,,,,,,AFNE11.jpg,AFNE15.jpg,AFSA12.jpg,AFSA11.jpg,AFNE11.jpg,FN,3,num_8,32,num_2,0.900111905765,,,2017_May_03_1640,60.004407249,FEMA4ImagesEEG,001,200243,
AFNE01.JPG,AFNE01.JPG,AFNE01.JPG,AFNE01.JPG,AFNE01.JPG,AFNE01.JPG,4,3,43,6,,,,,,,,,,,,,,,,,,,,,,,AFNE12.jpg,AFSA19.jpg,AFSA13.jpg,AFNE16.jpg,AFSA19.jpg,FS,4,num_6,32,num_2,0.883348156698,,,2017_May_03_1640,60.004407249,FEMA4ImagesEEG,001,200243,
AFNE01.JPG,AFNE01.JPG,AFNE01.JPG,AFNE01.JPG,AFNE01.JPG,AFNE01.JPG,4,4,44,7,,,,,,,,,,,,,,,,,,,,,,,AFSA11.jpg,AFSA14.jpg,AFNE18.jpg,AFNE17.jpg,AFNE17.jpg,FN,3,num_4,16,num_4,0.950137901586,,,2017_May_03_1640,60.004407249,FEMA4ImagesEEG,001,200243,
AFNE01.JPG,AFNE01.JPG,AFNE01.JPG,AFNE01.JPG,AFNE01.JPG,AFNE01.JPG,4,5,45,0,,,,,,,,,,,,,,,,,,,,,,,AFSA13.jpg,AFNE20.jpg,AFNE01.jpg,AFSA04.jpg,AFSA13.jpg,FS,4,num_8,16,num_8,0.733473517699,,,2017_May_03_1640,60.004407249,FEMA4ImagesEEG,001,200243,
AFNE01.JPG,AFNE01.JPG,AFNE01.JPG,AFNE01.JPG,AFNE01.JPG,AFNE01.JPG,4,6,46,1,,,,,,,,,,,,,,,,,,,,,,,AFNE16.jpg,AFSA01.jpg,AFNE06.jpg,AFSA11.jpg,AFNE16.jpg,FN,3,num_8,32,num_6,1.03348612273,,,2017_May_03_1640,60.004407249,FEMA4ImagesEEG,001,200243,
AFNE01.JPG,AFNE01.JPG,AFNE01.JPG,AFNE01.JPG,AFNE01.JPG,AFNE01.JPG,4,7,47,5,,,,,,,,,,,,,,,,,,,,,,,AFSA14.jpg,AFSA16.jpg,AFNE16.jpg,AFNE03.jpg,AFSA14.jpg,FS,4,num_8,32,num_6,2.03335044999,,,2017_May_03_1640,60.004407249,FEMA4ImagesEEG,001,200243,
AFNE01.JPG,AFNE01.JPG,AFNE01.JPG,AFNE01.JPG,AFNE01.JPG,AFNE01.JPG,4,8,48,3,,,,,,,,,,,,,,,,,,,,,,,AFNE06.jpg,AFNE13.jpg,AFSA13.jpg,AFSA15.jpg,AFSA13.jpg,FS,4,num_2,32,num_8,1.11679264763,,,2017_May_03_1640,60.004407249,FEMA4ImagesEEG,001,200243,
AFNE01.JPG,AFNE01.JPG,AFNE01.JPG,AFNE01.JPG,AFNE01.JPG,AFNE01.JPG,4,9,49,8,,,,,,,,,,,,,,,,,,,,,,,AFSA11.jpg,AFNE03.jpg,AFSA17.jpg,AFNE12.jpg,AFSA17.jpg,FS,4,num_2,16,num_2,0.950093318941,,,2017_May_03_1640,60.004407249,FEMA4ImagesEEG,001,200243,
AFNE01.JPG,AFNE01.JPG,AFNE01.JPG,AFNE01.JPG,AFNE01.JPG,AFNE01.JPG,5,0,50,8,,,,,,,,,,,,,,,,,,,,,,,AFSA04.jpg,AFNE18.jpg,AFSA14.jpg,AFNE06.jpg,AFSA14.jpg,FS,4,num_2,32,num_6,0.683488897048,,,2017_May_03_1640,60.004407249,FEMA4ImagesEEG,001,200243,
AFNE01.JPG,AFNE01.JPG,AFNE01.JPG,AFNE01.JPG,AFNE01.JPG,AFNE01.JPG,5,1,51,5,,,,,,,,,,,,,,,,,,,,,,,AFSA16.jpg,AFNE17.jpg,AFSA04.jpg,AFNE16.jpg,AFSA16.jpg,FS,4,num_8,16,num_8,0.533456454519,,,2017_May_03_1640,60.004407249,FEMA4ImagesEEG,001,200243,
AFNE01.JPG,AFNE01.JPG,AFNE01.JPG,AFNE01.JPG,AFNE01.JPG,AFNE01.JPG,5,2,52,4,,,,,,,,,,,,,,,,,,,,,,,AFSA18.jpg,AFNE08.jpg,AFNE07.jpg,AFSA14.jpg,AFSA18.jpg,FS,4,num_8,32,num_2,1.23344801879,,,2017_May_03_1640,60.004407249,FEMA4ImagesEEG,001,200243,
AFNE01.JPG,AFNE01.JPG,AFNE01.JPG,AFNE01.JPG,AFNE01.JPG,AFNE01.JPG,5,3,53,2,,,,,,,,,,,,,,,,,,,,,,,AFNE15.jpg,AFSA11.jpg,AFNE01.jpg,AFSA19.jpg,AFNE15.jpg,FN,3,num_8,32,num_4,0.683473501587,,,2017_May_03_1640,60.004407249,FEMA4ImagesEEG,001,200243,
AFNE01.JPG,AFNE01.JPG,AFNE01.JPG,AFNE01.JPG,AFNE01.JPG,AFNE01.JPG,5,4,54,7,,,,,,,,,,,,,,,,,,,,,,,AFNE05.jpg,AFSA09.jpg,AFSA19.jpg,AFNE03.jpg,AFSA19.jpg,FS,4,num_2,32,num_6,0.650123693049,,,2017_May_03_1640,60.004407249,FEMA4ImagesEEG,001,200243,
AFNE01.JPG,AFNE01.JPG,AFNE01.JPG,AFNE01.JPG,AFNE01.JPG,AFNE01.JPG,5,5,55,1,,,,,,,,,,,,,,,,,,,,,,,AFNE17.jpg,AFSA13.jpg,AFNE09.jpg,AFSA12.jpg,AFNE17.jpg,FN,3,num_8,32,num_2,0.433435895015,,,2017_May_03_1640,60.004407249,FEMA4ImagesEEG,001,200243,
AFNE01.JPG,AFNE01.JPG,AFNE01.JPG,AFNE01.JPG,AFNE01.JPG,AFNE01.JPG,5,6,56,0,,,,,,,,,,,,,,,,,,,,,,,AFNE20.jpg,AFSA11.jpg,AFSA04.jpg,AFNE10.jpg,AFNE10.jpg,FN,3,num_4,16,num_4,0.583483733237,,,2017_May_03_1640,60.004407249,FEMA4ImagesEEG,001,200243,
AFNE01.JPG,AFNE01.JPG,AFNE01.JPG,AFNE01.JPG,AFNE01.JPG,AFNE01.JPG,5,7,57,9,,,,,,,,,,,,,,,,,,,,,,,AFSA12.jpg,AFNE10.jpg,AFSA20.jpg,AFNE13.jpg,AFNE10.jpg,FN,3,num_6,16,num_6,1.09976300597,,,2017_May_03_1640,60.004407249,FEMA4ImagesEEG,001,200243,
AFNE01.JPG,AFNE01.JPG,AFNE01.JPG,AFNE01.JPG,AFNE01.JPG,AFNE01.JPG,5,8,58,3,,,,,,,,,,,,,,,,,,,,,,,AFSA04.jpg,AFNE14.jpg,AFSA01.jpg,AFNE09.jpg,AFSA01.jpg,FS,4,num_2,16,num_2,0.700124350609,,,2017_May_03_1640,60.004407249,FEMA4ImagesEEG,001,200243,
AFNE01.JPG,AFNE01.JPG,AFNE01.JPG,AFNE01.JPG,AFNE01.JPG,AFNE01.JPG,5,9,59,6,,,,,,,,,,,,,,,,,,,,,,,AFSA17.jpg,AFNE05.jpg,AFNE10.jpg,AFSA16.jpg,AFNE10.jpg,FN,3,num_2,16,num_2,0.583330099238,,,2017_May_03_1640,60.004407249,FEMA4ImagesEEG,001,200243,
,,,,,,,,,,,,,,,,,,,,,,,,,,,,,,,,,,,,,,,,,,,space,10.1659818352,2017_May_03_1640,60.004407249,FEMA4ImagesEEG,001,200243,
AFNE01.JPG,AFNE01.JPG,AFNE01.JPG,AFNE01.JPG,AFNE01.JPG,AFNE01.JPG,,,,,0,0,0,9,,,,,,,,,,,,,,,,,,,AMNE15.jpg,AMSA03.jpg,AMSA18.jpg,AMNE20.jpg,AMSA18.jpg,MS,2,num_2,16,num_2,0.600170825608,,,2017_May_03_1640,60.004407249,FEMA4ImagesEEG,001,200243,
AFNE01.JPG,AFNE01.JPG,AFNE01.JPG,AFNE01.JPG,AFNE01.JPG,AFNE01.JPG,,,,,0,1,1,7,,,,,,,,,,,,,,,,,,,AMSA02.jpg,AMNE12.jpg,AMNE04.jpg,AMSA03.jpg,AMNE12.jpg,MN,1,num_6,32,num_8,1.25007801992,,,2017_May_03_1640,60.004407249,FEMA4ImagesEEG,001,200243,
AFNE01.JPG,AFNE01.JPG,AFNE01.JPG,AFNE01.JPG,AFNE01.JPG,AFNE01.JPG,,,,,0,2,2,0,,,,,,,,,,,,,,,,,,,AMNE11.jpg,AMSA18.jpg,AMSA05.jpg,AMNE05.jpg,AMSA18.jpg,MS,2,num_6,16,num_6,0.733438557014,,,2017_May_03_1640,60.004407249,FEMA4ImagesEEG,001,200243,
AFNE01.JPG,AFNE01.JPG,AFNE01.JPG,AFNE01.JPG,AFNE01.JPG,AFNE01.JPG,,,,,0,3,3,4,,,,,,,,,,,,,,,,,,,AMNE17.jpg,AMSA10.jpg,AMNE14.jpg,AMSA12.jpg,AMSA10.jpg,MS,2,num_6,32,num_4,0.950151693542,,,2017_May_03_1640,60.004407249,FEMA4ImagesEEG,001,200243,
AFNE01.JPG,AFNE01.JPG,AFNE01.JPG,AFNE01.JPG,AFNE01.JPG,AFNE01.JPG,,,,,0,4,4,2,,,,,,,,,,,,,,,,,,,AMSA16.jpg,AMNE16.jpg,AMNE18.jpg,AMSA06.jpg,AMSA16.jpg,MS,2,num_8,16,num_8,0.500128455926,,,2017_May_03_1640,60.004407249,FEMA4ImagesEEG,001,200243,
AFNE01.JPG,AFNE01.JPG,AFNE01.JPG,AFNE01.JPG,AFNE01.JPG,AFNE01.JPG,,,,,0,5,5,5,,,,,,,,,,,,,,,,,,,AMSA20.jpg,AMNE12.jpg,AMSA09.jpg,AMNE10.jpg,AMNE12.jpg,MN,1,num_6,16,num_6,1.05041024135,,,2017_May_03_1640,60.004407249,FEMA4ImagesEEG,001,200243,
AFNE01.JPG,AFNE01.JPG,AFNE01.JPG,AFNE01.JPG,AFNE01.JPG,AFNE01.JPG,,,,,0,6,6,3,,,,,,,,,,,,,,,,,,,AMNE13.jpg,AMNE10.jpg,AMSA09.jpg,AMSA15.jpg,AMSA09.jpg,MS,2,num_2,32,num_4,0.650150314439,,,2017_May_03_1640,60.004407249,FEMA4ImagesEEG,001,200243,
AFNE01.JPG,AFNE01.JPG,AFNE01.JPG,AFNE01.JPG,AFNE01.JPG,AFNE01.JPG,,,,,0,7,7,1,,,,,,,,,,,,,,,,,,,AMSA15.jpg,AMNE06.jpg,AMSA04.jpg,AMNE17.jpg,AMSA15.jpg,MS,2,num_8,32,num_2,0.700179517735,,,2017_May_03_1640,60.004407249,FEMA4ImagesEEG,001,200243,
AFNE01.JPG,AFNE01.JPG,AFNE01.JPG,AFNE01.JPG,AFNE01.JPG,AFNE01.JPG,,,,,0,8,8,8,,,,,,,,,,,,,,,,,,,AMNE12.jpg,AMNE13.jpg,AMSA13.jpg,AMSA08.jpg,AMNE12.jpg,MN,1,num_8,16,num_8,0.800142985536,,,2017_May_03_1640,60.004407249,FEMA4ImagesEEG,001,200243,
AFNE01.JPG,AFNE01.JPG,AFNE01.JPG,AFNE01.JPG,AFNE01.JPG,AFNE01.JPG,,,,,0,9,9,6,,,,,,,,,,,,,,,,,,,AMNE02.jpg,AMSA08.jpg,AMNE19.jpg,AMSA18.jpg,AMNE19.jpg,MN,1,num_2,32,num_8,1.2167262868,,,2017_May_03_1640,60.004407249,FEMA4ImagesEEG,001,200243,
AFNE01.JPG,AFNE01.JPG,AFNE01.JPG,AFNE01.JPG,AFNE01.JPG,AFNE01.JPG,,,,,1,0,10,9,,,,,,,,,,,,,,,,,,,AMNE11.jpg,AMSA03.jpg,AMNE15.jpg,AMSA12.jpg,AMNE11.jpg,MN,1,num_8,32,num_2,0.983456598595,,,2017_May_03_1640,60.004407249,FEMA4ImagesEEG,001,200243,
AFNE01.JPG,AFNE01.JPG,AFNE01.JPG,AFNE01.JPG,AFNE01.JPG,AFNE01.JPG,,,,,1,1,11,2,,,,,,,,,,,,,,,,,,,AMNE19.jpg,AMNE05.jpg,AMSA01.jpg,AMSA17.jpg,AMSA01.jpg,MS,2,num_2,16,num_2,0.866722967243,,,2017_May_03_1640,60.004407249,FEMA4ImagesEEG,001,200243,
AFNE01.JPG,AFNE01.JPG,AFNE01.JPG,AFNE01.JPG,AFNE01.JPG,AFNE01.JPG,,,,,1,2,12,1,,,,,,,,,,,,,,,,,,,AMNE03.jpg,AMNE07.jpg,AMSA05.jpg,AMSA08.jpg,AMSA05.jpg,MS,2,num_2,32,num_6,0.516808492132,,,2017_May_03_1640,60.004407249,FEMA4ImagesEEG,001,200243,
AFNE01.JPG,AFNE01.JPG,AFNE01.JPG,AFNE01.JPG,AFNE01.JPG,AFNE01.JPG,,,,,1,3,13,3,,,,,,,,,,,,,,,,,,,AMNE17.jpg,AMSA20.jpg,AMSA11.jpg,AMNE12.jpg,AMSA11.jpg,MS,2,num_2,32,num_4,1.70007816399,,,2017_May_03_1640,60.004407249,FEMA4ImagesEEG,001,200243,
AFNE01.JPG,AFNE01.JPG,AFNE01.JPG,AFNE01.JPG,AFNE01.JPG,AFNE01.JPG,,,,,1,4,14,5,,,,,,,,,,,,,,,,,,,AMNE15.jpg,AMSA15.jpg,AMNE01.jpg,AMSA10.jpg,AMSA10.jpg,MS,2,num_4,16,num_4,0.750136875315,,,2017_May_03_1640,60.004407249,FEMA4ImagesEEG,001,200243,
AFNE01.JPG,AFNE01.JPG,AFNE01.JPG,AFNE01.JPG,AFNE01.JPG,AFNE01.JPG,,,,,1,5,15,8,,,,,,,,,,,,,,,,,,,AMSA12.jpg,AMNE05.jpg,AMSA19.jpg,AMNE03.jpg,AMSA12.jpg,MS,2,num_8,32,num_6,1.03340882459,,,2017_May_03_1640,60.004407249,FEMA4ImagesEEG,001,200243,
AFNE01.JPG,AFNE01.JPG,AFNE01.JPG,AFNE01.JPG,AFNE01.JPG,AFNE01.JPG,,,,,1,6,16,0,,,,,,,,,,,,,,,,,,,AMNE01.jpg,AMSA09.jpg,AMSA05.jpg,AMNE12.jpg,AMSA09.jpg,MS,2,num_6,32,num_2,0.816787740448,,,2017_May_03_1640,60.004407249,FEMA4ImagesEEG,001,200243,
AFNE01.JPG,AFNE01.JPG,AFNE01.JPG,AFNE01.JPG,AFNE01.JPG,AFNE01.JPG,,,,,1,7,17,7,,,,,,,,,,,,,,,,,,,AMSA11.jpg,AMNE10.jpg,AMSA16.jpg,AMNE16.jpg,AMSA11.jpg,MS,2,num_8,16,num_8,0.833441155031,,,2017_May_03_1640,60.004407249,FEMA4ImagesEEG,001,200243,
AFNE01.JPG,AFNE01.JPG,AFNE01.JPG,AFNE01.JPG,AFNE01.JPG,AFNE01.JPG,,,,,1,8,18,4,,,,,,,,,,,,,,,,,,,AMSA13.jpg,AMNE15.jpg,AMNE16.jpg,AMSA19.jpg,AMNE15.jpg,MN,1,num_6,16,num_6,0.750130460598,,,2017_May_03_1640,60.004407249,FEMA4ImagesEEG,001,200243,
AFNE01.JPG,AFNE01.JPG,AFNE01.JPG,AFNE01.JPG,AFNE01.JPG,AFNE01.JPG,,,,,1,9,19,6,,,,,,,,,,,,,,,,,,,AMSA09.jpg,AMNE05.jpg,AMNE20.jpg,AMSA06.jpg,AMNE05.jpg,MN,1,num_6,32,num_8,0.833954658359,,,2017_May_03_1640,60.004407249,FEMA4ImagesEEG,001,200243,
AFNE01.JPG,AFNE01.JPG,AFNE01.JPG,AFNE01.JPG,AFNE01.JPG,AFNE01.JPG,,,,,2,0,20,2,,,,,,,,,,,,,,,,,,,AMSA05.jpg,AMSA09.jpg,AMNE18.jpg,AMNE13.jpg,AMNE13.jpg,MN,1,num_4,32,num_8,0.650114070857,,,2017_May_03_1640,60.004407249,FEMA4ImagesEEG,001,200243,
AFNE01.JPG,AFNE01.JPG,AFNE01.JPG,AFNE01.JPG,AFNE01.JPG,AFNE01.JPG,,,,,2,1,21,1,,,,,,,,,,,,,,,,,,,AMNE06.jpg,AMNE03.jpg,AMSA07.jpg,AMSA16.jpg,AMNE03.jpg,MN,1,num_6,32,num_4,0.800094553735,,,2017_May_03_1640,60.004407249,FEMA4ImagesEEG,001,200243,
AFNE01.JPG,AFNE01.JPG,AFNE01.JPG,AFNE01.JPG,AFNE01.JPG,AFNE01.JPG,,,,,2,2,22,9,,,,,,,,,,,,,,,,,,,AMSA19.jpg,AMSA14.jpg,AMNE02.jpg,AMNE17.jpg,AMSA14.jpg,MS,2,num_6,16,num_6,0.483495247783,,,2017_May_03_1640,60.004407249,FEMA4ImagesEEG,001,200243,
AFNE01.JPG,AFNE01.JPG,AFNE01.JPG,AFNE01.JPG,AFNE01.JPG,AFNE01.JPG,,,,,2,3,23,3,,,,,,,,,,,,,,,,,,,AMNE10.jpg,AMNE06.jpg,AMSA10.jpg,AMSA14.jpg,AMSA10.jpg,MS,2,num_2,16,num_2,0.85015647253,,,2017_May_03_1640,60.004407249,FEMA4ImagesEEG,001,200243,
AFNE01.JPG,AFNE01.JPG,AFNE01.JPG,AFNE01.JPG,AFNE01.JPG,AFNE01.JPG,,,,,2,4,24,6,,,,,,,,,,,,,,,,,,,AMSA04.jpg,AMNE13.jpg,AMNE20.jpg,AMSA09.jpg,AMSA04.jpg,MS,2,num_8,16,num_8,0.983458202332,,,2017_May_03_1640,60.004407249,FEMA4ImagesEEG,001,200243,
AFNE01.JPG,AFNE01.JPG,AFNE01.JPG,AFNE01.JPG,AFNE01.JPG,AFNE01.JPG,,,,,2,5,25,8,,,,,,,,,,,,,,,,,,,AMNE02.jpg,AMNE14.jpg,AMSA08.jpg,AMSA13.jpg,AMSA13.jpg,MS,2,num_4,16,num_4,0.94980337075,,,2017_May_03_1640,60.004407249,FEMA4ImagesEEG,001,200243,
AFNE01.JPG,AFNE01.JPG,AFNE01.JPG,AFNE01.JPG,AFNE01.JPG,AFNE01.JPG,,,,,2,6,26,7,,,,,,,,,,,,,,,,,,,AMNE02.jpg,AMSA06.jpg,AMNE13.jpg,AMSA02.jpg,AMSA02.jpg,MS,2,num_4,16,num_4,0.533508093329,,,2017_May_03_1640,60.004407249,FEMA4ImagesEEG,001,200243,
AFNE01.JPG,AFNE01.JPG,AFNE01.JPG,AFNE01.JPG,AFNE01.JPG,AFNE01.JPG,,,,,2,7,27,0,,,,,,,,,,,,,,,,,,,AMSA08.jpg,AMSA05.jpg,AMNE14.jpg,AMNE02.jpg,AMNE02.jpg,MN,1,num_4,32,num_8,0.866738683311,,,2017_May_03_1640,60.004407249,FEMA4ImagesEEG,001,200243,
AFNE01.JPG,AFNE01.JPG,AFNE01.JPG,AFNE01.JPG,AFNE01.JPG,AFNE01.JPG,,,,,2,8,28,4,,,,,,,,,,,,,,,,,,,AMNE07.jpg,AMNE02.jpg,AMSA10.jpg,AMSA09.jpg,AMNE02.jpg,MN,1,num_6,16,num_6,2.20028038998,,,2017_May_03_1640,60.004407249,FEMA4ImagesEEG,001,200243,
AFNE01.JPG,AFNE01.JPG,AFNE01.JPG,AFNE01.JPG,AFNE01.JPG,AFNE01.JPG,,,,,2,9,29,5,,,,,,,,,,,,,,,,,,,AMNE10.jpg,AMSA10.jpg,AMSA15.jpg,AMNE03.jpg,AMNE03.jpg,MN,1,num_4,32,num_8,0.983558593784,,,2017_May_03_1640,60.004407249,FEMA4ImagesEEG,001,200243,
AFNE01.JPG,AFNE01.JPG,AFNE01.JPG,AFNE01.JPG,AFNE01.JPG,AFNE01.JPG,,,,,3,0,30,2,,,,,,,,,,,,,,,,,,,AMNE01.jpg,AMSA06.jpg,AMNE06.jpg,AMSA16.jpg,AMNE06.jpg,MN,1,num_2,16,num_2,1.0001026364,,,2017_May_03_1640,60.004407249,FEMA4ImagesEEG,001,200243,
AFNE01.JPG,AFNE01.JPG,AFNE01.JPG,AFNE01.JPG,AFNE01.JPG,AFNE01.JPG,,,,,3,1,31,1,,,,,,,,,,,,,,,,,,,AMSA07.jpg,AMNE17.jpg,AMNE15.jpg,AMSA02.jpg,AMSA02.jpg,MS,2,num_4,16,num_4,1.06670506997,,,2017_May_03_1640,60.004407249,FEMA4ImagesEEG,001,200243,
AFNE01.JPG,AFNE01.JPG,AFNE01.JPG,AFNE01.JPG,AFNE01.JPG,AFNE01.JPG,,,,,3,2,32,4,,,,,,,,,,,,,,,,,,,AMNE20.jpg,AMSA16.jpg,AMSA15.jpg,AMNE13.jpg,AMNE20.jpg,MN,1,num_8,16,num_8,0.666769089177,,,2017_May_03_1640,60.004407249,FEMA4ImagesEEG,001,200243,
AFNE01.JPG,AFNE01.JPG,AFNE01.JPG,AFNE01.JPG,AFNE01.JPG,AFNE01.JPG,,,,,3,3,33,6,,,,,,,,,,,,,,,,,,,AMSA11.jpg,AMSA05.jpg,AMNE02.jpg,AMNE14.jpg,AMNE14.jpg,MN,1,num_4,16,num_4,1.30004660343,,,2017_May_03_1640,60.004407249,FEMA4ImagesEEG,001,200243,
AFNE01.JPG,AFNE01.JPG,AFNE01.JPG,AFNE01.JPG,AFNE01.JPG,AFNE01.JPG,,,,,3,4,34,5,,,,,,,,,,,,,,,,,,,AMNE19.jpg,AMNE12.jpg,AMSA09.jpg,AMSA19.jpg,AMNE12.jpg,MN,1,num_6,16,num_6,0.616826806217,,,2017_May_03_1640,60.004407249,FEMA4ImagesEEG,001,200243,
AFNE01.JPG,AFNE01.JPG,AFNE01.JPG,AFNE01.JPG,AFNE01.JPG,AFNE01.JPG,,,,,3,5,35,7,,,,,,,,,,,,,,,,,,,AMSA04.jpg,AMNE11.jpg,AMSA17.jpg,AMNE07.jpg,AMSA17.jpg,MS,2,num_2,32,num_8,0.783496306045,,,2017_May_03_1640,60.004407249,FEMA4ImagesEEG,001,200243,
AFNE01.JPG,AFNE01.JPG,AFNE01.JPG,AFNE01.JPG,AFNE01.JPG,AFNE01.JPG,,,,,3,6,36,8,,,,,,,,,,,,,,,,,,,AMSA10.jpg,AMSA20.jpg,AMNE02.jpg,AMNE12.jpg,AMNE12.jpg,MN,1,num_4,32,num_2,1.36643799045,,,2017_May_03_1640,60.004407249,FEMA4ImagesEEG,001,200243,
AFNE01.JPG,AFNE01.JPG,AFNE01.JPG,AFNE01.JPG,AFNE01.JPG,AFNE01.JPG,,,,,3,7,37,0,,,,,,,,,,,,,,,,,,,AMNE12.jpg,AMSA16.jpg,AMNE08.jpg,AMSA20.jpg,AMNE08.jpg,MN,1,num_2,32,num_8,1.16677983408,,,2017_May_03_1640,60.004407249,FEMA4ImagesEEG,001,200243,
AFNE01.JPG,AFNE01.JPG,AFNE01.JPG,AFNE01.JPG,AFNE01.JPG,AFNE01.JPG,,,,,3,8,38,3,,,,,,,,,,,,,,,,,,,AMSA20.jpg,AMNE08.jpg,AMSA01.jpg,AMNE05.jpg,AMNE05.jpg,MN,1,num_4,32,num_8,1.05008629477,,,2017_May_03_1640,60.004407249,FEMA4ImagesEEG,001,200243,
AFNE01.JPG,AFNE01.JPG,AFNE01.JPG,AFNE01.JPG,AFNE01.JPG,AFNE01.JPG,,,,,3,9,39,9,,,,,,,,,,,,,,,,,,,AMSA03.jpg,AMNE13.jpg,AMNE06.jpg,AMSA02.jpg,AMNE13.jpg,MN,1,num_6,16,num_6,0.966770468513,,,2017_May_03_1640,60.004407249,FEMA4ImagesEEG,001,200243,
AFNE01.JPG,AFNE01.JPG,AFNE01.JPG,AFNE01.JPG,AFNE01.JPG,AFNE01.JPG,,,,,4,0,40,7,,,,,,,,,,,,,,,,,,,AMNE11.jpg,AMNE01.jpg,AMSA09.jpg,AMSA01.jpg,AMSA01.jpg,MS,2,num_4,16,num_4,1.63340677205,,,2017_May_03_1640,60.004407249,FEMA4ImagesEEG,001,200243,
AFNE01.JPG,AFNE01.JPG,AFNE01.JPG,AFNE01.JPG,AFNE01.JPG,AFNE01.JPG,,,,,4,1,41,8,,,,,,,,,,,,,,,,,,,AMNE11.jpg,AMSA13.jpg,AMSA17.jpg,AMNE07.jpg,AMSA17.jpg,MS,2,num_2,16,num_2,0.950186012778,,,2017_May_03_1640,60.004407249,FEMA4ImagesEEG,001,200243,
AFNE01.JPG,AFNE01.JPG,AFNE01.JPG,AFNE01.JPG,AFNE01.JPG,AFNE01.JPG,,,,,4,2,42,9,,,,,,,,,,,,,,,,,,,AMNE11.jpg,AMNE05.jpg,AMSA09.jpg,AMSA11.jpg,AMSA11.jpg,MS,2,num_4,32,num_8,1.28344194102,,,2017_May_03_1640,60.004407249,FEMA4ImagesEEG,001,200243,
AFNE01.JPG,AFNE01.JPG,AFNE01.JPG,AFNE01.JPG,AFNE01.JPG,AFNE01.JPG,,,,,4,3,43,6,,,,,,,,,,,,,,,,,,,AMSA09.jpg,AMNE18.jpg,AMSA14.jpg,AMNE07.jpg,AMNE18.jpg,MN,1,num_6,16,num_6,0.883452397073,,,2017_May_03_1640,60.004407249,FEMA4ImagesEEG,001,200243,
AFNE01.JPG,AFNE01.JPG,AFNE01.JPG,AFNE01.JPG,AFNE01.JPG,AFNE01.JPG,,,,,4,4,44,5,,,,,,,,,,,,,,,,,,,AMSA07.jpg,AMNE05.jpg,AMNE15.jpg,AMSA02.jpg,AMNE15.jpg,MN,1,num_2,32,num_6,0.650127221132,,,2017_May_03_1640,60.004407249,FEMA4ImagesEEG,001,200243,
AFNE01.JPG,AFNE01.JPG,AFNE01.JPG,AFNE01.JPG,AFNE01.JPG,AFNE01.JPG,,,,,4,5,45,1,,,,,,,,,,,,,,,,,,,AMSA02.jpg,AMNE04.jpg,AMSA06.jpg,AMNE15.jpg,AMSA02.jpg,MS,2,num_8,32,num_2,0.816801852779,,,2017_May_03_1640,60.004407249,FEMA4ImagesEEG,001,200243,
AFNE01.JPG,AFNE01.JPG,AFNE01.JPG,AFNE01.JPG,AFNE01.JPG,AFNE01.JPG,,,,,4,6,46,2,,,,,,,,,,,,,,,,,,,AMNE19.jpg,AMSA12.jpg,AMSA17.jpg,AMNE17.jpg,AMNE19.jpg,MN,1,num_8,32,num_4,0.850171867991,,,2017_May_03_1640,60.004407249,FEMA4ImagesEEG,001,200243,
AFNE01.JPG,AFNE01.JPG,AFNE01.JPG,AFNE01.JPG,AFNE01.JPG,AFNE01.JPG,,,,,4,7,47,4,,,,,,,,,,,,,,,,,,,AMNE18.jpg,AMSA02.jpg,AMNE09.jpg,AMSA18.jpg,AMNE09.jpg,MN,1,num_2,16,num_2,1.01642087894,,,2017_May_03_1640,60.004407249,FEMA4ImagesEEG,001,200243,
AFNE01.JPG,AFNE01.JPG,AFNE01.JPG,AFNE01.JPG,AFNE01.JPG,AFNE01.JPG,,,,,4,8,48,0,,,,,,,,,,,,,,,,,,,AMSA01.jpg,AMNE08.jpg,AMNE01.jpg,AMSA20.jpg,AMSA20.jpg,MS,2,num_4,32,num_6,1.00010905135,,,2017_May_03_1640,60.004407249,FEMA4ImagesEEG,001,200243,
AFNE01.JPG,AFNE01.JPG,AFNE01.JPG,AFNE01.JPG,AFNE01.JPG,AFNE01.JPG,,,,,4,9,49,3,,,,,,,,,,,,,,,,,,,AMNE09.jpg,AMSA08.jpg,AMNE16.jpg,AMSA13.jpg,AMSA08.jpg,MS,2,num_6,32,num_4,0.783500475809,,,2017_May_03_1640,60.004407249,FEMA4ImagesEEG,001,200243,
AFNE01.JPG,AFNE01.JPG,AFNE01.JPG,AFNE01.JPG,AFNE01.JPG,AFNE01.JPG,,,,,5,0,50,1,,,,,,,,,,,,,,,,,,,AMSA09.jpg,AMSA19.jpg,AMNE03.jpg,AMNE20.jpg,AMNE03.jpg,MN,1,num_2,16,num_2,1.70032834052,,,2017_May_03_1640,60.004407249,FEMA4ImagesEEG,001,200243,
AFNE01.JPG,AFNE01.JPG,AFNE01.JPG,AFNE01.JPG,AFNE01.JPG,AFNE01.JPG,,,,,5,1,51,2,,,,,,,,,,,,,,,,,,,AMNE09.jpg,AMSA16.jpg,AMSA20.jpg,AMNE13.jpg,AMSA16.jpg,MS,2,num_6,32,num_8,0.66676427843,,,2017_May_03_1640,60.004407249,FEMA4ImagesEEG,001,200243,
AFNE01.JPG,AFNE01.JPG,AFNE01.JPG,AFNE01.JPG,AFNE01.JPG,AFNE01.JPG,,,,,5,2,52,7,,,,,,,,,,,,,,,,,,,AMNE14.jpg,AMSA14.jpg,AMSA17.jpg,AMNE07.jpg,AMSA14.jpg,MS,2,num_6,16,num_6,0.750133347465,,,2017_May_03_1640,60.004407249,FEMA4ImagesEEG,001,200243,
AFNE01.JPG,AFNE01.JPG,AFNE01.JPG,AFNE01.JPG,AFNE01.JPG,AFNE01.JPG,,,,,5,3,53,8,,,,,,,,,,,,,,,,,,,AMNE12.jpg,AMNE20.jpg,AMSA18.jpg,AMSA01.jpg,AMNE20.jpg,MN,1,num_6,16,num_6,1.68336316734,,,2017_May_03_1640,60.004407249,FEMA4ImagesEEG,001,200243,
AFNE01.JPG,AFNE01.JPG,AFNE01.JPG,AFNE01.JPG,AFNE01.JPG,AFNE01.JPG,,,,,5,4,54,4,,,,,,,,,,,,,,,,,,,AMSA05.jpg,AMNE02.jpg,AMSA01.jpg,AMNE14.jpg,AMNE14.jpg,MN,1,num_4,16,num_4,2.01672173222,,,2017_May_03_1640,60.004407249,FEMA4ImagesEEG,001,200243,
AFNE01.JPG,AFNE01.JPG,AFNE01.JPG,AFNE01.JPG,AFNE01.JPG,AFNE01.JPG,,,,,5,5,55,0,,,,,,,,,,,,,,,,,,,AMNE05.jpg,AMSA14.jpg,AMNE20.jpg,AMSA20.jpg,AMNE20.jpg,MN,1,num_2,32,num_8,1.78337667068,,,2017_May_03_1640,60.004407249,FEMA4ImagesEEG,001,200243,
AFNE01.JPG,AFNE01.JPG,AFNE01.JPG,AFNE01.JPG,AFNE01.JPG,AFNE01.JPG,,,,,5,6,56,3,,,,,,,,,,,,,,,,,,,AMSA06.jpg,AMNE15.jpg,AMSA02.jpg,AMNE13.jpg,AMSA02.jpg,MS,2,num_2,16,num_2,1.33337973361,,,2017_May_03_1640,60.004407249,FEMA4ImagesEEG,001,200243,
AFNE01.JPG,AFNE01.JPG,AFNE01.JPG,AFNE01.JPG,AFNE01.JPG,AFNE01.JPG,,,,,5,7,57,5,,,,,,,,,,,,,,,,,,,AMSA10.jpg,AMNE01.jpg,AMSA13.jpg,AMNE18.jpg,AMSA13.jpg,MS,2,num_2,32,num_4,1.05010874639,,,2017_May_03_1640,60.004407249,FEMA4ImagesEEG,001,200243,
AFNE01.JPG,AFNE01.JPG,AFNE01.JPG,AFNE01.JPG,AFNE01.JPG,AFNE01.JPG,,,,,5,8,58,9,,,,,,,,,,,,,,,,,,,AMNE15.jpg,AMSA06.jpg,AMNE09.jpg,AMSA20.jpg,AMSA06.jpg,MS,2,num_6,16,num_6,0.633475089213,,,2017_May_03_1640,60.004407249,FEMA4ImagesEEG,001,200243,
AFNE01.JPG,AFNE01.JPG,AFNE01.JPG,AFNE01.JPG,AFNE01.JPG,AFNE01.JPG,,,,,5,9,59,6,,,,,,,,,,,,,,,,,,,AMNE09.jpg,AMNE15.jpg,AMSA19.jpg,AMSA02.jpg,AMNE15.jpg,MN,1,num_6,32,num_8,0.900146545609,,,2017_May_03_1640,60.004407249,FEMA4ImagesEEG,001,200243,
,,,,,,,,,,,,,,,,,,,,,,,,,,,,,,,,,,,,,,,,,,,space,31.6312462734,2017_May_03_1640,60.004407249,FEMA4ImagesEEG,001,200243,
AFNE01.JPG,AFNE01.JPG,AFNE01.JPG,AFNE01.JPG,AFNE01.JPG,AFNE01.JPG,,,,,,,,,0,0,0,0,,,,,,,,,,,,,,,AFSA17.jpg,AFNE01.jpg,AFNE17.jpg,AFSA05.jpg,AFNE01.jpg,FN,3,num_6,32,num_8,0.78330995678,,,2017_May_03_1640,60.004407249,FEMA4ImagesEEG,001,200243,
AFNE01.JPG,AFNE01.JPG,AFNE01.JPG,AFNE01.JPG,AFNE01.JPG,AFNE01.JPG,,,,,,,,,0,1,1,1,,,,,,,,,,,,,,,AFNE07.jpg,AFSA20.jpg,AFSA12.jpg,AFNE04.jpg,AFNE04.jpg,FN,3,num_4,32,num_8,0.850135624409,,,2017_May_03_1640,60.004407249,FEMA4ImagesEEG,001,200243,
AFNE01.JPG,AFNE01.JPG,AFNE01.JPG,AFNE01.JPG,AFNE01.JPG,AFNE01.JPG,,,,,,,,,0,2,2,6,,,,,,,,,,,,,,,AFSA19.jpg,AFNE01.jpg,AFSA06.jpg,AFNE14.jpg,AFNE01.jpg,FN,3,num_6,32,num_4,0.583535692887,,,2017_May_03_1640,60.004407249,FEMA4ImagesEEG,001,200243,
AFNE01.JPG,AFNE01.JPG,AFNE01.JPG,AFNE01.JPG,AFNE01.JPG,AFNE01.JPG,,,,,,,,,0,3,3,7,,,,,,,,,,,,,,,AFNE11.jpg,AFSA15.jpg,AFNE12.jpg,AFSA13.jpg,AFNE11.jpg,FN,3,num_8,16,num_8,1.31671733805,,,2017_May_03_1640,60.004407249,FEMA4ImagesEEG,001,200243,
AFNE01.JPG,AFNE01.JPG,AFNE01.JPG,AFNE01.JPG,AFNE01.JPG,AFNE01.JPG,,,,,,,,,0,4,4,4,,,,,,,,,,,,,,,AFNE09.jpg,AFSA08.jpg,AFNE16.jpg,AFSA17.jpg,AFNE16.jpg,FN,3,num_2,16,num_2,0.803282059031,,,2017_May_03_1640,60.004407249,FEMA4ImagesEEG,001,200243,
AFNE01.JPG,AFNE01.JPG,AFNE01.JPG,AFNE01.JPG,AFNE01.JPG,AFNE01.JPG,,,,,,,,,0,5,5,5,,,,,,,,,,,,,,,AFNE04.jpg,AFSA05.jpg,AFNE08.jpg,AFSA17.jpg,AFNE08.jpg,FN,3,num_2,32,num_8,0.733468065038,,,2017_May_03_1640,60.004407249,FEMA4ImagesEEG,001,200243,
AFNE01.JPG,AFNE01.JPG,AFNE01.JPG,AFNE01.JPG,AFNE01.JPG,AFNE01.JPG,,,,,,,,,0,6,6,2,,,,,,,,,,,,,,,AFNE10.jpg,AFSA05.jpg,AFNE02.jpg,AFSA10.jpg,AFSA05.jpg,FS,4,num_6,32,num_4,0.583617481403,,,2017_May_03_1640,60.004407249,FEMA4ImagesEEG,001,200243,
AFNE01.JPG,AFNE01.JPG,AFNE01.JPG,AFNE01.JPG,AFNE01.JPG,AFNE01.JPG,,,,,,,,,0,7,7,3,,,,,,,,,,,,,,,AFSA08.jpg,AFSA16.jpg,AFNE04.jpg,AFNE03.jpg,AFSA08.jpg,FS,4,num_8,32,num_6,0.650122410152,,,2017_May_03_1640,60.004407249,FEMA4ImagesEEG,001,200243,
AFNE01.JPG,AFNE01.JPG,AFNE01.JPG,AFNE01.JPG,AFNE01.JPG,AFNE01.JPG,,,,,,,,,0,8,8,8,,,,,,,,,,,,,,,AFNE15.jpg,AFSA16.jpg,AFSA17.jpg,AFNE02.jpg,AFSA17.jpg,FS,4,num_2,32,num_8,0.683450087672,,,2017_May_03_1640,60.004407249,FEMA4ImagesEEG,001,200243,
AFNE01.JPG,AFNE01.JPG,AFNE01.JPG,AFNE01.JPG,AFNE01.JPG,AFNE01.JPG,,,,,,,,,0,9,9,9,,,,,,,,,,,,,,,AFSA14.jpg,AFNE06.jpg,AFSA16.jpg,AFNE07.jpg,AFNE07.jpg,FN,3,num_4,16,num_4,0.55010666186,,,2017_May_03_1640,60.004407249,FEMA4ImagesEEG,001,200243,
AFNE01.JPG,AFNE01.JPG,AFNE01.JPG,AFNE01.JPG,AFNE01.JPG,AFNE01.JPG,,,,,,,,,1,0,10,1,,,,,,,,,,,,,,,AFNE09.jpg,AFNE17.jpg,AFSA18.jpg,AFSA01.jpg,AFSA18.jpg,FS,4,num_2,32,num_4,0.816754383501,,,2017_May_03_1640,60.004407249,FEMA4ImagesEEG,001,200243,
AFNE01.JPG,AFNE01.JPG,AFNE01.JPG,AFNE01.JPG,AFNE01.JPG,AFNE01.JPG,,,,,,,,,1,1,11,9,,,,,,,,,,,,,,,AFSA01.jpg,AFSA15.jpg,AFNE12.jpg,AFNE02.jpg,AFSA01.jpg,FS,4,num_8,32,num_4,2.11666146549,,,2017_May_03_1640,60.004407249,FEMA4ImagesEEG,001,200243,
AFNE01.JPG,AFNE01.JPG,AFNE01.JPG,AFNE01.JPG,AFNE01.JPG,AFNE01.JPG,,,,,,,,,1,2,12,0,,,,,,,,,,,,,,,AFNE11.jpg,AFSA06.jpg,AFNE16.jpg,AFSA10.jpg,AFSA10.jpg,FS,4,num_4,16,num_4,1.08346689446,,,2017_May_03_1640,60.004407249,FEMA4ImagesEEG,001,200243,
AFNE01.JPG,AFNE01.JPG,AFNE01.JPG,AFNE01.JPG,AFNE01.JPG,AFNE01.JPG,,,,,,,,,1,3,13,5,,,,,,,,,,,,,,,AFSA17.jpg,AFSA19.jpg,AFNE19.jpg,AFNE15.jpg,AFSA17.jpg,FS,4,num_8,32,num_6,0.850088475971,,,2017_May_03_1640,60.004407249,FEMA4ImagesEEG,001,200243,
AFNE01.JPG,AFNE01.JPG,AFNE01.JPG,AFNE01.JPG,AFNE01.JPG,AFNE01.JPG,,,,,,,,,1,4,14,7,,,,,,,,,,,,,,,AFNE06.jpg,AFNE18.jpg,AFSA09.jpg,AFSA16.jpg,AFSA16.jpg,FS,4,num_4,32,num_2,0.633443336235,,,2017_May_03_1640,60.004407249,FEMA4ImagesEEG,001,200243,
AFNE01.JPG,AFNE01.JPG,AFNE01.JPG,AFNE01.JPG,AFNE01.JPG,AFNE01.JPG,,,,,,,,,1,5,15,2,,,,,,,,,,,,,,,AFNE13.jpg,AFSA20.jpg,AFSA03.jpg,AFNE09.jpg,AFNE13.jpg,FN,3,num_8,16,num_8,1.06660756515,,,2017_May_03_1640,60.004407249,FEMA4ImagesEEG,001,200243,
AFNE01.JPG,AFNE01.JPG,AFNE01.JPG,AFNE01.JPG,AFNE01.JPG,AFNE01.JPG,,,,,,,,,1,6,16,3,,,,,,,,,,,,,,,AFNE13.jpg,AFSA15.jpg,AFSA08.jpg,AFNE01.jpg,AFSA08.jpg,FS,4,num_2,32,num_4,0.666813351214,,,2017_May_03_1640,60.004407249,FEMA4ImagesEEG,001,200243,
AFNE01.JPG,AFNE01.JPG,AFNE01.JPG,AFNE01.JPG,AFNE01.JPG,AFNE01.JPG,,,,,,,,,1,7,17,4,,,,,,,,,,,,,,,AFNE06.jpg,AFSA09.jpg,AFNE11.jpg,AFSA03.jpg,AFNE06.jpg,FN,3,num_8,16,num_8,0.566829035524,,,2017_May_03_1640,60.004407249,FEMA4ImagesEEG,001,200243,
AFNE01.JPG,AFNE01.JPG,AFNE01.JPG,AFNE01.JPG,AFNE01.JPG,AFNE01.JPG,,,,,,,,,1,8,18,8,,,,,,,,,,,,,,,AFNE01.jpg,AFSA12.jpg,AFSA13.jpg,AFNE04.jpg,AFSA12.jpg,FS,4,num_6,16,num_6,0.66676908941,,,2017_May_03_1640,60.004407249,FEMA4ImagesEEG,001,200243,
AFNE01.JPG,AFNE01.JPG,AFNE01.JPG,AFNE01.JPG,AFNE01.JPG,AFNE01.JPG,,,,,,,,,1,9,19,6,,,,,,,,,,,,,,,AFNE16.jpg,AFNE02.jpg,AFSA19.jpg,AFSA03.jpg,AFNE16.jpg,FN,3,num_8,32,num_6,0.700138142332,,,2017_May_03_1640,60.004407249,FEMA4ImagesEEG,001,200243,
AFNE01.JPG,AFNE01.JPG,AFNE01.JPG,AFNE01.JPG,AFNE01.JPG,AFNE01.JPG,,,,,,,,,2,0,20,9,,,,,,,,,,,,,,,AFSA16.jpg,AFSA06.jpg,AFNE10.jpg,AFNE16.jpg,AFSA16.jpg,FS,4,num_8,32,num_4,0.983436071314,,,2017_May_03_1640,60.004407249,FEMA4ImagesEEG,001,200243,
AFNE01.JPG,AFNE01.JPG,AFNE01.JPG,AFNE01.JPG,AFNE01.JPG,AFNE01.JPG,,,,,,,,,2,1,21,3,,,,,,,,,,,,,,,AFNE12.jpg,AFSA04.jpg,AFSA07.jpg,AFNE15.jpg,AFNE15.jpg,FN,3,num_4,16,num_4,0.566824545152,,,2017_May_03_1640,60.004407249,FEMA4ImagesEEG,001,200243,
AFNE01.JPG,AFNE01.JPG,AFNE01.JPG,AFNE01.JPG,AFNE01.JPG,AFNE01.JPG,,,,,,,,,2,2,22,6,,,,,,,,,,,,,,,AFNE13.jpg,AFNE17.jpg,AFSA17.jpg,AFSA16.jpg,AFNE17.jpg,FN,3,num_6,32,num_8,1.80019173794,,,2017_May_03_1640,60.004407249,FEMA4ImagesEEG,001,200243,
AFNE01.JPG,AFNE01.JPG,AFNE01.JPG,AFNE01.JPG,AFNE01.JPG,AFNE01.JPG,,,,,,,,,2,3,23,2,,,,,,,,,,,,,,,AFSA06.jpg,AFSA19.jpg,AFNE14.jpg,AFNE01.jpg,AFSA06.jpg,FS,4,num_8,32,num_4,1.01676631486,,,2017_May_03_1640,60.004407249,FEMA4ImagesEEG,001,200243,
AFNE01.JPG,AFNE01.JPG,AFNE01.JPG,AFNE01.JPG,AFNE01.JPG,AFNE01.JPG,,,,,,,,,2,4,24,8,,,,,,,,,,,,,,,AFNE19.jpg,AFSA16.jpg,AFSA20.jpg,AFNE11.jpg,AFSA16.jpg,FS,4,num_6,16,num_6,0.750108329579,,,2017_May_03_1640,60.004407249,FEMA4ImagesEEG,001,200243,
AFNE01.JPG,AFNE01.JPG,AFNE01.JPG,AFNE01.JPG,AFNE01.JPG,AFNE01.JPG,,,,,,,,,2,5,25,4,,,,,,,,,,,,,,,AFNE03.jpg,AFNE16.jpg,AFSA06.jpg,AFSA07.jpg,AFNE03.jpg,FN,3,num_8,32,num_4,0.550142584601,,,2017_May_03_1640,60.004407249,FEMA4ImagesEEG,001,200243,
AFNE01.JPG,AFNE01.JPG,AFNE01.JPG,AFNE01.JPG,AFNE01.JPG,AFNE01.JPG,,,,,,,,,2,6,26,0,,,,,,,,,,,,,,,AFNE03.jpg,AFNE20.jpg,AFSA02.jpg,AFSA17.jpg,AFNE20.jpg,FN,3,num_6,16,num_6,0.766782271676,,,2017_May_03_1640,60.004407249,FEMA4ImagesEEG,001,200243,
AFNE01.JPG,AFNE01.JPG,AFNE01.JPG,AFNE01.JPG,AFNE01.JPG,AFNE01.JPG,,,,,,,,,2,7,27,7,,,,,,,,,,,,,,,AFNE03.jpg,AFNE01.jpg,AFSA20.jpg,AFSA06.jpg,AFSA20.jpg,FS,4,num_2,32,num_4,0.950163560919,,,2017_May_03_1640,60.004407249,FEMA4ImagesEEG,001,200243,
AFNE01.JPG,AFNE01.JPG,AFNE01.JPG,AFNE01.JPG,AFNE01.JPG,AFNE01.JPG,,,,,,,,,2,8,28,1,,,,,,,,,,,,,,,AFSA17.jpg,AFSA04.jpg,AFNE18.jpg,AFNE04.jpg,AFNE18.jpg,FN,3,num_2,32,num_4,0.63342986512,,,2017_May_03_1640,60.004407249,FEMA4ImagesEEG,001,200243,
AFNE01.JPG,AFNE01.JPG,AFNE01.JPG,AFNE01.JPG,AFNE01.JPG,AFNE01.JPG,,,,,,,,,2,9,29,5,,,,,,,,,,,,,,,AFNE06.jpg,AFSA10.jpg,AFSA16.jpg,AFNE16.jpg,AFSA10.jpg,FS,4,num_6,32,num_8,0.516810095869,,,2017_May_03_1640,60.004407249,FEMA4ImagesEEG,001,200243,
AFNE01.JPG,AFNE01.JPG,AFNE01.JPG,AFNE01.JPG,AFNE01.JPG,AFNE01.JPG,,,,,,,,,3,0,30,4,,,,,,,,,,,,,,,AFNE13.jpg,AFSA09.jpg,AFNE04.jpg,AFSA17.jpg,AFSA09.jpg,FS,4,num_6,32,num_4,0.566776113585,,,2017_May_03_1640,60.004407249,FEMA4ImagesEEG,001,200243,
AFNE01.JPG,AFNE01.JPG,AFNE01.JPG,AFNE01.JPG,AFNE01.JPG,AFNE01.JPG,,,,,,,,,3,1,31,7,,,,,,,,,,,,,,,AFSA13.jpg,AFSA19.jpg,AFNE05.jpg,AFNE07.jpg,AFNE07.jpg,FN,3,num_4,32,num_8,0.800125665497,,,2017_May_03_1640,60.004407249,FEMA4ImagesEEG,001,200243,
AFNE01.JPG,AFNE01.JPG,AFNE01.JPG,AFNE01.JPG,AFNE01.JPG,AFNE01.JPG,,,,,,,,,3,2,32,3,,,,,,,,,,,,,,,AFSA19.jpg,AFNE03.jpg,AFNE20.jpg,AFSA17.jpg,AFSA17.jpg,FS,4,num_4,16,num_4,0.433470214019,,,2017_May_03_1640,60.004407249,FEMA4ImagesEEG,001,200243,
AFNE01.JPG,AFNE01.JPG,AFNE01.JPG,AFNE01.JPG,AFNE01.JPG,AFNE01.JPG,,,,,,,,,3,3,33,2,,,,,,,,,,,,,,,AFNE04.jpg,AFNE09.jpg,AFSA14.jpg,AFSA03.jpg,AFNE04.jpg,FN,3,num_8,32,num_6,0.850094249239,,,2017_May_03_1640,60.004407249,FEMA4ImagesEEG,001,200243,
AFNE01.JPG,AFNE01.JPG,AFNE01.JPG,AFNE01.JPG,AFNE01.JPG,AFNE01.JPG,,,,,,,,,3,4,34,8,,,,,,,,,,,,,,,AFSA08.jpg,AFNE06.jpg,AFNE07.jpg,AFSA18.jpg,AFNE07.jpg,FN,3,num_2,16,num_2,1.10016168468,,,2017_May_03_1640,60.004407249,FEMA4ImagesEEG,001,200243,
AFNE01.JPG,AFNE01.JPG,AFNE01.JPG,AFNE01.JPG,AFNE01.JPG,AFNE01.JPG,,,,,,,,,3,5,35,9,,,,,,,,,,,,,,,AFSA12.jpg,AFNE05.jpg,AFNE06.jpg,AFSA11.jpg,AFSA12.jpg,FS,4,num_8,16,num_8,0.583486940712,,,2017_May_03_1640,60.004407249,FEMA4ImagesEEG,001,200243,
AFNE01.JPG,AFNE01.JPG,AFNE01.JPG,AFNE01.JPG,AFNE01.JPG,AFNE01.JPG,,,,,,,,,3,6,36,5,,,,,,,,,,,,,,,AFSA07.jpg,AFNE06.jpg,AFNE08.jpg,AFSA11.jpg,AFNE06.jpg,FN,3,num_6,32,num_8,1.08311600587,,,2017_May_03_1640,60.004407249,FEMA4ImagesEEG,001,200243,
AFNE01.JPG,AFNE01.JPG,AFNE01.JPG,AFNE01.JPG,AFNE01.JPG,AFNE01.JPG,,,,,,,,,3,7,37,0,,,,,,,,,,,,,,,AFNE01.jpg,AFSA07.jpg,AFNE06.jpg,AFSA04.jpg,AFSA07.jpg,FS,4,num_6,32,num_2,0.966759563424,,,2017_May_03_1640,60.004407249,FEMA4ImagesEEG,001,200243,
AFNE01.JPG,AFNE01.JPG,AFNE01.JPG,AFNE01.JPG,AFNE01.JPG,AFNE01.JPG,,,,,,,,,3,8,38,6,,,,,,,,,,,,,,,AFSA19.jpg,AFNE11.jpg,AFSA11.jpg,AFNE03.jpg,AFNE03.jpg,FN,3,num_4,16,num_4,0.833446607692,,,2017_May_03_1640,60.004407249,FEMA4ImagesEEG,001,200243,
AFNE01.JPG,AFNE01.JPG,AFNE01.JPG,AFNE01.JPG,AFNE01.JPG,AFNE01.JPG,,,,,,,,,3,9,39,1,,,,,,,,,,,,,,,AFSA12.jpg,AFSA11.jpg,AFNE08.jpg,AFNE01.jpg,AFNE01.jpg,FN,3,num_4,32,num_8,0.616753036389,,,2017_May_03_1640,60.004407249,FEMA4ImagesEEG,001,200243,
AFNE01.JPG,AFNE01.JPG,AFNE01.JPG,AFNE01.JPG,AFNE01.JPG,AFNE01.JPG,,,,,,,,,4,0,40,6,,,,,,,,,,,,,,,AFSA09.jpg,AFNE03.jpg,AFSA01.jpg,AFNE06.jpg,AFNE03.jpg,FN,3,num_6,32,num_2,0.900074700126,,,2017_May_03_1640,60.004407249,FEMA4ImagesEEG,001,200243,
AFNE01.JPG,AFNE01.JPG,AFNE01.JPG,AFNE01.JPG,AFNE01.JPG,AFNE01.JPG,,,,,,,,,4,1,41,5,,,,,,,,,,,,,,,AFSA20.jpg,AFSA06.jpg,AFNE02.jpg,AFNE19.jpg,AFNE19.jpg,FN,3,num_4,16,num_4,0.733440160751,,,2017_May_03_1640,60.004407249,FEMA4ImagesEEG,001,200243,
AFNE01.JPG,AFNE01.JPG,AFNE01.JPG,AFNE01.JPG,AFNE01.JPG,AFNE01.JPG,,,,,,,,,4,2,42,8,,,,,,,,,,,,,,,AFNE03.jpg,AFSA09.jpg,AFSA14.jpg,AFNE12.jpg,AFNE03.jpg,FN,3,num_8,16,num_8,0.7001766311,,,2017_May_03_1640,60.004407249,FEMA4ImagesEEG,001,200243,
AFNE01.JPG,AFNE01.JPG,AFNE01.JPG,AFNE01.JPG,AFNE01.JPG,AFNE01.JPG,,,,,,,,,4,3,43,2,,,,,,,,,,,,,,,AFNE13.jpg,AFNE16.jpg,AFSA04.jpg,AFSA20.jpg,AFSA20.jpg,FS,4,num_4,32,num_6,0.300185804022,,,2017_May_03_1640,60.004407249,FEMA4ImagesEEG,001,200243,
AFNE01.JPG,AFNE01.JPG,AFNE01.JPG,AFNE01.JPG,AFNE01.JPG,AFNE01.JPG,,,,,,,,,4,4,44,9,,,,,,,,,,,,,,,AFSA02.jpg,AFSA18.jpg,AFNE17.jpg,AFNE03.jpg,AFSA02.jpg,FS,4,num_8,32,num_6,0.533539205091,,,2017_May_03_1640,60.004407249,FEMA4ImagesEEG,001,200243,
AFNE01.JPG,AFNE01.JPG,AFNE01.JPG,AFNE01.JPG,AFNE01.JPG,AFNE01.JPG,,,,,,,,,4,5,45,1,,,,,,,,,,,,,,,AFNE06.jpg,AFSA17.jpg,AFSA11.jpg,AFNE02.jpg,AFSA17.jpg,FS,4,num_6,32,num_2,0.400225928752,,,2017_May_03_1640,60.004407249,FEMA4ImagesEEG,001,200243,
AFNE01.JPG,AFNE01.JPG,AFNE01.JPG,AFNE01.JPG,AFNE01.JPG,AFNE01.JPG,,,,,,,,,4,6,46,0,,,,,,,,,,,,,,,AFSA06.jpg,AFNE01.jpg,AFNE19.jpg,AFSA16.jpg,AFSA06.jpg,FS,4,num_8,16,num_8,0.800141381798,,,2017_May_03_1640,60.004407249,FEMA4ImagesEEG,001,200243,
AFNE01.JPG,AFNE01.JPG,AFNE01.JPG,AFNE01.JPG,AFNE01.JPG,AFNE01.JPG,,,,,,,,,4,7,47,3,,,,,,,,,,,,,,,AFSA14.jpg,AFNE04.jpg,AFNE10.jpg,AFSA03.jpg,AFNE04.jpg,FN,3,num_6,32,num_2,0.733471272513,,,2017_May_03_1640,60.004407249,FEMA4ImagesEEG,001,200243,
AFNE01.JPG,AFNE01.JPG,AFNE01.JPG,AFNE01.JPG,AFNE01.JPG,AFNE01.JPG,,,,,,,,,4,8,48,7,,,,,,,,,,,,,,,AFSA15.jpg,AFNE09.jpg,AFNE02.jpg,AFSA06.jpg,AFSA15.jpg,FS,4,num_8,32,num_6,0.250181939453,,,2017_May_03_1640,60.004407249,FEMA4ImagesEEG,001,200243,
AFNE01.JPG,AFNE01.JPG,AFNE01.JPG,AFNE01.JPG,AFNE01.JPG,AFNE01.JPG,,,,,,,,,4,9,49,4,,,,,,,,,,,,,,,AFNE19.jpg,AFSA20.jpg,AFSA18.jpg,AFNE01.jpg,AFNE01.jpg,FN,3,num_4,32,num_6,0.750167024788,,,2017_May_03_1640,60.004407249,FEMA4ImagesEEG,001,200243,
AFNE01.JPG,AFNE01.JPG,AFNE01.JPG,AFNE01.JPG,AFNE01.JPG,AFNE01.JPG,,,,,,,,,5,0,50,5,,,,,,,,,,,,,,,AFNE06.jpg,AFSA05.jpg,AFSA09.jpg,AFNE09.jpg,AFNE09.jpg,FN,3,num_4,16,num_4,0.566807866562,,,2017_May_03_1640,60.004407249,FEMA4ImagesEEG,001,200243,
AFNE01.JPG,AFNE01.JPG,AFNE01.JPG,AFNE01.JPG,AFNE01.JPG,AFNE01.JPG,,,,,,,,,5,1,51,9,,,,,,,,,,,,,,,AFNE04.jpg,AFSA12.jpg,AFNE12.jpg,AFSA09.jpg,AFNE04.jpg,FN,3,num_8,32,num_2,0.833434740314,,,2017_May_03_1640,60.004407249,FEMA4ImagesEEG,001,200243,
AFNE01.JPG,AFNE01.JPG,AFNE01.JPG,AFNE01.JPG,AFNE01.JPG,AFNE01.JPG,,,,,,,,,5,2,52,3,,,,,,,,,,,,,,,AFSA01.jpg,AFSA03.jpg,AFNE08.jpg,AFNE17.jpg,AFSA03.jpg,FS,4,num_6,32,num_8,0.266816430492,,,2017_May_03_1640,60.004407249,FEMA4ImagesEEG,001,200243,
AFNE01.JPG,AFNE01.JPG,AFNE01.JPG,AFNE01.JPG,AFNE01.JPG,AFNE01.JPG,,,,,,,,,5,3,53,2,,,,,,,,,,,,,,,AFSA01.jpg,AFNE03.jpg,AFNE15.jpg,AFSA14.jpg,AFNE15.jpg,FN,3,num_2,32,num_4,1.01642055809,,,2017_May_03_1640,60.004407249,FEMA4ImagesEEG,001,200243,
AFNE01.JPG,AFNE01.JPG,AFNE01.JPG,AFNE01.JPG,AFNE01.JPG,AFNE01.JPG,,,,,,,,,5,4,54,8,,,,,,,,,,,,,,,AFSA06.jpg,AFSA17.jpg,AFNE02.jpg,AFNE09.jpg,AFNE09.jpg,FN,3,num_4,16,num_4,0.7667534051,,,2017_May_03_1640,60.004407249,FEMA4ImagesEEG,001,200243,
AFNE01.JPG,AFNE01.JPG,AFNE01.JPG,AFNE01.JPG,AFNE01.JPG,AFNE01.JPG,,,,,,,,,5,5,55,1,,,,,,,,,,,,,,,AFSA18.jpg,AFSA01.jpg,AFNE01.jpg,AFNE13.jpg,AFSA18.jpg,FS,4,num_8,16,num_8,1.08343802788,,,2017_May_03_1640,60.004407249,FEMA4ImagesEEG,001,200243,
AFNE01.JPG,AFNE01.JPG,AFNE01.JPG,AFNE01.JPG,AFNE01.JPG,AFNE01.JPG,,,,,,,,,5,6,56,7,,,,,,,,,,,,,,,AFNE14.jpg,AFSA07.jpg,AFSA09.jpg,AFNE11.jpg,AFSA09.jpg,FS,4,num_2,32,num_4,2.66660583322,,,2017_May_03_1640,60.004407249,FEMA4ImagesEEG,001,200243,
AFNE01.JPG,AFNE01.JPG,AFNE01.JPG,AFNE01.JPG,AFNE01.JPG,AFNE01.JPG,,,,,,,,,5,7,57,0,,,,,,,,,,,,,,,AFSA12.jpg,AFNE09.jpg,AFSA10.jpg,AFNE19.jpg,AFSA12.jpg,FS,4,num_8,16,num_8,0.883423851337,,,2017_May_03_1640,60.004407249,FEMA4ImagesEEG,001,200243,
AFNE01.JPG,AFNE01.JPG,AFNE01.JPG,AFNE01.JPG,AFNE01.JPG,AFNE01.JPG,,,,,,,,,5,8,58,4,,,,,,,,,,,,,,,AFNE09.jpg,AFSA09.jpg,AFNE20.jpg,AFSA07.jpg,AFNE20.jpg,FN,3,num_2,16,num_2,0.683582232334,,,2017_May_03_1640,60.004407249,FEMA4ImagesEEG,001,200243,
AFNE01.JPG,AFNE01.JPG,AFNE01.JPG,AFNE01.JPG,AFNE01.JPG,AFNE01.JPG,,,,,,,,,5,9,59,6,,,,,,,,,,,,,,,AFSA02.jpg,AFNE18.jpg,AFNE02.jpg,AFSA03.jpg,AFNE02.jpg,FN,3,num_2,32,num_8,1.2830968257,,,2017_May_03_1640,60.004407249,FEMA4ImagesEEG,001,200243,
,,,,,,,,,,,,,,,,,,,,,,,,,,,,,,,,,,,,,,,,,,,space,6.69965510932,2017_May_03_1640,60.004407249,FEMA4ImagesEEG,001,200243,
AFNE01.JPG,AFNE01.JPG,AFNE01.JPG,AFNE01.JPG,AFNE01.JPG,AFNE01.JPG,,,,,,,,,,,,,0,0,0,1,,,,,,,,,,,AMNE17.jpg,AMSA15.jpg,AMNE14.jpg,AMSA20.jpg,AMNE14.jpg,MN,1,num_2,32,num_8,1.31732064835,,,2017_May_03_1640,60.004407249,FEMA4ImagesEEG,001,200243,
AFNE01.JPG,AFNE01.JPG,AFNE01.JPG,AFNE01.JPG,AFNE01.JPG,AFNE01.JPG,,,,,,,,,,,,,0,1,1,0,,,,,,,,,,,AMSA15.jpg,AMSA02.jpg,AMNE14.jpg,AMNE19.jpg,AMNE14.jpg,MN,1,num_2,16,num_2,1.11687732278,,,2017_May_03_1640,60.004407249,FEMA4ImagesEEG,001,200243,
AFNE01.JPG,AFNE01.JPG,AFNE01.JPG,AFNE01.JPG,AFNE01.JPG,AFNE01.JPG,,,,,,,,,,,,,0,2,2,6,,,,,,,,,,,AMSA18.jpg,AMSA03.jpg,AMNE06.jpg,AMNE20.jpg,AMNE06.jpg,MN,1,num_2,32,num_8,1.16675609932,,,2017_May_03_1640,60.004407249,FEMA4ImagesEEG,001,200243,
AFNE01.JPG,AFNE01.JPG,AFNE01.JPG,AFNE01.JPG,AFNE01.JPG,AFNE01.JPG,,,,,,,,,,,,,0,3,3,4,,,,,,,,,,,AMNE02.jpg,AMNE05.jpg,AMSA05.jpg,AMSA04.jpg,AMNE02.jpg,MN,1,num_8,32,num_4,1.23343262356,,,2017_May_03_1640,60.004407249,FEMA4ImagesEEG,001,200243,
AFNE01.JPG,AFNE01.JPG,AFNE01.JPG,AFNE01.JPG,AFNE01.JPG,AFNE01.JPG,,,,,,,,,,,,,0,4,4,5,,,,,,,,,,,AMSA10.jpg,AMNE12.jpg,AMSA06.jpg,AMNE11.jpg,AMSA06.jpg,MS,2,num_2,32,num_6,0.766766555374,,,2017_May_03_1640,60.004407249,FEMA4ImagesEEG,001,200243,
AFNE01.JPG,AFNE01.JPG,AFNE01.JPG,AFNE01.JPG,AFNE01.JPG,AFNE01.JPG,,,,,,,,,,,,,0,5,5,2,,,,,,,,,,,AMNE14.jpg,AMSA02.jpg,AMSA06.jpg,AMNE03.jpg,AMSA06.jpg,MS,2,num_2,32,num_6,0.950097809313,,,2017_May_03_1640,60.004407249,FEMA4ImagesEEG,001,200243,
AFNE01.JPG,AFNE01.JPG,AFNE01.JPG,AFNE01.JPG,AFNE01.JPG,AFNE01.JPG,,,,,,,,,,,,,0,6,6,9,,,,,,,,,,,AMNE11.jpg,AMSA15.jpg,AMNE02.jpg,AMSA09.jpg,AMSA15.jpg,MS,2,num_6,32,num_4,0.416794668185,,,2017_May_03_1640,60.004407249,FEMA4ImagesEEG,001,200243,
AFNE01.JPG,AFNE01.JPG,AFNE01.JPG,AFNE01.JPG,AFNE01.JPG,AFNE01.JPG,,,,,,,,,,,,,0,7,7,7,,,,,,,,,,,AMSA12.jpg,AMNE11.jpg,AMSA15.jpg,AMNE15.jpg,AMNE15.jpg,MN,1,num_4,16,num_4,0.916752491146,,,2017_May_03_1640,60.004407249,FEMA4ImagesEEG,001,200243,
AFNE01.JPG,AFNE01.JPG,AFNE01.JPG,AFNE01.JPG,AFNE01.JPG,AFNE01.JPG,,,,,,,,,,,,,0,8,8,3,,,,,,,,,,,AMSA08.jpg,AMNE18.jpg,AMSA02.jpg,AMNE07.jpg,AMSA08.jpg,MS,2,num_8,32,num_2,0.966753469314,,,2017_May_03_1640,60.004407249,FEMA4ImagesEEG,001,200243,
AFNE01.JPG,AFNE01.JPG,AFNE01.JPG,AFNE01.JPG,AFNE01.JPG,AFNE01.JPG,,,,,,,,,,,,,0,9,9,8,,,,,,,,,,,AMNE10.jpg,AMSA01.jpg,AMNE01.jpg,AMSA07.jpg,AMSA07.jpg,MS,2,num_4,16,num_4,0.700116652763,,,2017_May_03_1640,60.004407249,FEMA4ImagesEEG,001,200243,
AFNE01.JPG,AFNE01.JPG,AFNE01.JPG,AFNE01.JPG,AFNE01.JPG,AFNE01.JPG,,,,,,,,,,,,,1,0,10,5,,,,,,,,,,,AMNE20.jpg,AMSA19.jpg,AMSA17.jpg,AMNE17.jpg,AMSA17.jpg,MS,2,num_2,16,num_2,2.56663659192,,,2017_May_03_1640,60.004407249,FEMA4ImagesEEG,001,200243,
AFNE01.JPG,AFNE01.JPG,AFNE01.JPG,AFNE01.JPG,AFNE01.JPG,AFNE01.JPG,,,,,,,,,,,,,1,1,11,6,,,,,,,,,,,AMSA16.jpg,AMNE06.jpg,AMNE11.jpg,AMSA19.jpg,AMNE11.jpg,MN,1,num_2,32,num_6,0.800183078041,,,2017_May_03_1640,60.004407249,FEMA4ImagesEEG,001,200243,
AFNE01.JPG,AFNE01.JPG,AFNE01.JPG,AFNE01.JPG,AFNE01.JPG,AFNE01.JPG,,,,,,,,,,,,,1,2,12,0,,,,,,,,,,,AMSA16.jpg,AMNE12.jpg,AMNE15.jpg,AMSA09.jpg,AMNE12.jpg,MN,1,num_6,16,num_6,0.816759194713,,,2017_May_03_1640,60.004407249,FEMA4ImagesEEG,001,200243,
AFNE01.JPG,AFNE01.JPG,AFNE01.JPG,AFNE01.JPG,AFNE01.JPG,AFNE01.JPG,,,,,,,,,,,,,1,3,13,4,,,,,,,,,,,AMNE15.jpg,AMSA19.jpg,AMNE19.jpg,AMSA11.jpg,AMSA19.jpg,MS,2,num_6,16,num_6,0.733488592319,,,2017_May_03_1640,60.004407249,FEMA4ImagesEEG,001,200243,
AFNE01.JPG,AFNE01.JPG,AFNE01.JPG,AFNE01.JPG,AFNE01.JPG,AFNE01.JPG,,,,,,,,,,,,,1,4,14,2,,,,,,,,,,,AMSA05.jpg,AMNE18.jpg,AMNE02.jpg,AMSA19.jpg,AMSA19.jpg,MS,2,num_4,32,num_8,1.71670752345,,,2017_May_03_1640,60.004407249,FEMA4ImagesEEG,001,200243,
AFNE01.JPG,AFNE01.JPG,AFNE01.JPG,AFNE01.JPG,AFNE01.JPG,AFNE01.JPG,,,,,,,,,,,,,1,5,15,8,,,,,,,,,,,AMSA02.jpg,AMNE11.jpg,AMSA14.jpg,AMNE06.jpg,AMNE11.jpg,MN,1,num_6,32,num_4,0.783464232227,,,2017_May_03_1640,60.004407249,FEMA4ImagesEEG,001,200243,
AFNE01.JPG,AFNE01.JPG,AFNE01.JPG,AFNE01.JPG,AFNE01.JPG,AFNE01.JPG,,,,,,,,,,,,,1,6,16,3,,,,,,,,,,,AMSA10.jpg,AMNE14.jpg,AMNE12.jpg,AMSA01.jpg,AMSA01.jpg,MS,2,num_4,16,num_4,0.833449173486,,,2017_May_03_1640,60.004407249,FEMA4ImagesEEG,001,200243,
AFNE01.JPG,AFNE01.JPG,AFNE01.JPG,AFNE01.JPG,AFNE01.JPG,AFNE01.JPG,,,,,,,,,,,,,1,7,17,7,,,,,,,,,,,AMNE10.jpg,AMSA08.jpg,AMNE08.jpg,AMSA04.jpg,AMNE08.jpg,MN,1,num_2,32,num_8,1.11681798613,,,2017_May_03_1640,60.004407249,FEMA4ImagesEEG,001,200243,
AFNE01.JPG,AFNE01.JPG,AFNE01.JPG,AFNE01.JPG,AFNE01.JPG,AFNE01.JPG,,,,,,,,,,,,,1,8,18,9,,,,,,,,,,,AMSA07.jpg,AMSA17.jpg,AMNE09.jpg,AMNE17.jpg,AMSA07.jpg,MS,2,num_8,16,num_8,0.916806054534,,,2017_May_03_1640,60.004407249,FEMA4ImagesEEG,001,200243,
AFNE01.JPG,AFNE01.JPG,AFNE01.JPG,AFNE01.JPG,AFNE01.JPG,AFNE01.JPG,,,,,,,,,,,,,1,9,19,1,,,,,,,,,,,AMNE20.jpg,AMNE09.jpg,AMSA12.jpg,AMSA15.jpg,AMSA15.jpg,MS,2,num_4,16,num_4,0.850103871431,,,2017_May_03_1640,60.004407249,FEMA4ImagesEEG,001,200243,
AFNE01.JPG,AFNE01.JPG,AFNE01.JPG,AFNE01.JPG,AFNE01.JPG,AFNE01.JPG,,,,,,,,,,,,,2,0,20,2,,,,,,,,,,,AMNE15.jpg,AMSA05.jpg,AMSA19.jpg,AMNE18.jpg,AMNE18.jpg,MN,1,num_4,32,num_6,0.68353636656,,,2017_May_03_1640,60.004407249,FEMA4ImagesEEG,001,200243,
AFNE01.JPG,AFNE01.JPG,AFNE01.JPG,AFNE01.JPG,AFNE01.JPG,AFNE01.JPG,,,,,,,,,,,,,2,1,21,4,,,,,,,,,,,AMNE19.jpg,AMSA14.jpg,AMNE20.jpg,AMSA17.jpg,AMSA14.jpg,MS,2,num_6,16,num_6,0.483430458466,,,2017_May_03_1640,60.004407249,FEMA4ImagesEEG,001,200243,
AFNE01.JPG,AFNE01.JPG,AFNE01.JPG,AFNE01.JPG,AFNE01.JPG,AFNE01.JPG,,,,,,,,,,,,,2,2,22,1,,,,,,,,,,,AMSA11.jpg,AMSA01.jpg,AMNE17.jpg,AMNE03.jpg,AMSA01.jpg,MS,2,num_6,16,num_6,0.483514812775,,,2017_May_03_1640,60.004407249,FEMA4ImagesEEG,001,200243,
AFNE01.JPG,AFNE01.JPG,AFNE01.JPG,AFNE01.JPG,AFNE01.JPG,AFNE01.JPG,,,,,,,,,,,,,2,3,23,7,,,,,,,,,,,AMNE14.jpg,AMSA17.jpg,AMNE19.jpg,AMSA08.jpg,AMSA08.jpg,MS,2,num_4,16,num_4,0.583484054077,,,2017_May_03_1640,60.004407249,FEMA4ImagesEEG,001,200243,
AFNE01.JPG,AFNE01.JPG,AFNE01.JPG,AFNE01.JPG,AFNE01.JPG,AFNE01.JPG,,,,,,,,,,,,,2,4,24,8,,,,,,,,,,,AMNE19.jpg,AMSA19.jpg,AMNE16.jpg,AMSA13.jpg,AMNE16.jpg,MN,1,num_2,16,num_2,0.933429319877,,,2017_May_03_1640,60.004407249,FEMA4ImagesEEG,001,200243,
AFNE01.JPG,AFNE01.JPG,AFNE01.JPG,AFNE01.JPG,AFNE01.JPG,AFNE01.JPG,,,,,,,,,,,,,2,5,25,9,,,,,,,,,,,AMSA01.jpg,AMNE15.jpg,AMNE13.jpg,AMSA07.jpg,AMNE15.jpg,MN,1,num_6,16,num_6,0.516777059762,,,2017_May_03_1640,60.004407249,FEMA4ImagesEEG,001,200243,
AFNE01.JPG,AFNE01.JPG,AFNE01.JPG,AFNE01.JPG,AFNE01.JPG,AFNE01.JPG,,,,,,,,,,,,,2,6,26,6,,,,,,,,,,,AMSA06.jpg,AMSA17.jpg,AMNE03.jpg,AMNE12.jpg,AMNE12.jpg,MN,1,num_4,16,num_4,0.566744360374,,,2017_May_03_1640,60.004407249,FEMA4ImagesEEG,001,200243,
AFNE01.JPG,AFNE01.JPG,AFNE01.JPG,AFNE01.JPG,AFNE01.JPG,AFNE01.JPG,,,,,,,,,,,,,2,7,27,0,,,,,,,,,,,AMNE14.jpg,AMNE05.jpg,AMSA16.jpg,AMSA12.jpg,AMNE05.jpg,MN,1,num_6,16,num_6,0.916760830209,,,2017_May_03_1640,60.004407249,FEMA4ImagesEEG,001,200243,
AFNE01.JPG,AFNE01.JPG,AFNE01.JPG,AFNE01.JPG,AFNE01.JPG,AFNE01.JPG,,,,,,,,,,,,,2,8,28,3,,,,,,,,,,,AMNE17.jpg,AMSA15.jpg,AMSA13.jpg,AMNE04.jpg,AMNE04.jpg,MN,1,num_4,32,num_8,1.18340213713,,,2017_May_03_1640,60.004407249,FEMA4ImagesEEG,001,200243,
AFNE01.JPG,AFNE01.JPG,AFNE01.JPG,AFNE01.JPG,AFNE01.JPG,AFNE01.JPG,,,,,,,,,,,,,2,9,29,5,,,,,,,,,,,AMNE19.jpg,AMSA02.jpg,AMSA07.jpg,AMNE08.jpg,AMSA02.jpg,MS,2,num_6,32,num_2,0.96673550806,,,2017_May_03_1640,60.004407249,FEMA4ImagesEEG,001,200243,
AFNE01.JPG,AFNE01.JPG,AFNE01.JPG,AFNE01.JPG,AFNE01.JPG,AFNE01.JPG,,,,,,,,,,,,,3,0,30,5,,,,,,,,,,,AMNE18.jpg,AMSA10.jpg,AMNE16.jpg,AMSA14.jpg,AMNE18.jpg,MN,1,num_8,32,num_6,0.766804082086,,,2017_May_03_1640,60.004407249,FEMA4ImagesEEG,001,200243,
AFNE01.JPG,AFNE01.JPG,AFNE01.JPG,AFNE01.JPG,AFNE01.JPG,AFNE01.JPG,,,,,,,,,,,,,3,1,31,8,,,,,,,,,,,AMNE09.jpg,AMNE11.jpg,AMSA13.jpg,AMSA10.jpg,AMNE11.jpg,MN,1,num_6,32,num_8,1.11671823636,,,2017_May_03_1640,60.004407249,FEMA4ImagesEEG,001,200243,
AFNE01.JPG,AFNE01.JPG,AFNE01.JPG,AFNE01.JPG,AFNE01.JPG,AFNE01.JPG,,,,,,,,,,,,,3,2,32,0,,,,,,,,,,,AMNE15.jpg,AMSA03.jpg,AMNE14.jpg,AMSA17.jpg,AMNE14.jpg,MN,1,num_2,16,num_2,2.01667458354,,,2017_May_03_1640,60.004407249,FEMA4ImagesEEG,001,200243,
AFNE01.JPG,AFNE01.JPG,AFNE01.JPG,AFNE01.JPG,AFNE01.JPG,AFNE01.JPG,,,,,,,,,,,,,3,3,33,2,,,,,,,,,,,AMNE13.jpg,AMNE06.jpg,AMSA14.jpg,AMSA04.jpg,AMNE06.jpg,MN,1,num_6,16,num_6,0.550121415639,,,2017_May_03_1640,60.004407249,FEMA4ImagesEEG,001,200243,
AFNE01.JPG,AFNE01.JPG,AFNE01.JPG,AFNE01.JPG,AFNE01.JPG,AFNE01.JPG,,,,,,,,,,,,,3,4,34,3,,,,,,,,,,,AMNE17.jpg,AMNE08.jpg,AMSA05.jpg,AMSA11.jpg,AMNE17.jpg,MN,1,num_8,32,num_4,0.833523905836,,,2017_May_03_1640,60.004407249,FEMA4ImagesEEG,001,200243,
AFNE01.JPG,AFNE01.JPG,AFNE01.JPG,AFNE01.JPG,AFNE01.JPG,AFNE01.JPG,,,,,,,,,,,,,3,5,35,4,,,,,,,,,,,AMNE10.jpg,AMSA05.jpg,AMNE01.jpg,AMSA09.jpg,AMSA05.jpg,MS,2,num_6,16,num_6,0.966755393893,,,2017_May_03_1640,60.004407249,FEMA4ImagesEEG,001,200243,
AFNE01.JPG,AFNE01.JPG,AFNE01.JPG,AFNE01.JPG,AFNE01.JPG,AFNE01.JPG,,,,,,,,,,,,,3,6,36,1,,,,,,,,,,,AMNE06.jpg,AMNE05.jpg,AMSA07.jpg,AMSA03.jpg,AMNE05.jpg,MN,1,num_6,16,num_6,0.516796945594,,,2017_May_03_1640,60.004407249,FEMA4ImagesEEG,001,200243,
AFNE01.JPG,AFNE01.JPG,AFNE01.JPG,AFNE01.JPG,AFNE01.JPG,AFNE01.JPG,,,,,,,,,,,,,3,7,37,9,,,,,,,,,,,AMNE17.jpg,AMNE09.jpg,AMSA17.jpg,AMSA10.jpg,AMSA10.jpg,MS,2,num_4,32,num_6,0.600130733103,,,2017_May_03_1640,60.004407249,FEMA4ImagesEEG,001,200243,
AFNE01.JPG,AFNE01.JPG,AFNE01.JPG,AFNE01.JPG,AFNE01.JPG,AFNE01.JPG,,,,,,,,,,,,,3,8,38,6,,,,,,,,,,,AMSA20.jpg,AMNE07.jpg,AMNE20.jpg,AMSA09.jpg,AMSA20.jpg,MS,2,num_8,32,num_2,1.03348836792,,,2017_May_03_1640,60.004407249,FEMA4ImagesEEG,001,200243,
AFNE01.JPG,AFNE01.JPG,AFNE01.JPG,AFNE01.JPG,AFNE01.JPG,AFNE01.JPG,,,,,,,,,,,,,3,9,39,7,,,,,,,,,,,AMSA14.jpg,AMSA19.jpg,AMNE20.jpg,AMNE05.jpg,AMNE20.jpg,MN,1,num_2,32,num_8,1.03344378504,,,2017_May_03_1640,60.004407249,FEMA4ImagesEEG,001,200243,
AFNE01.JPG,AFNE01.JPG,AFNE01.JPG,AFNE01.JPG,AFNE01.JPG,AFNE01.JPG,,,,,,,,,,,,,4,0,40,8,,,,,,,,,,,AMSA12.jpg,AMNE14.jpg,AMNE07.jpg,AMSA18.jpg,AMNE14.jpg,MN,1,num_6,16,num_6,0.666739581386,,,2017_May_03_1640,60.004407249,FEMA4ImagesEEG,001,200243,
AFNE01.JPG,AFNE01.JPG,AFNE01.JPG,AFNE01.JPG,AFNE01.JPG,AFNE01.JPG,,,,,,,,,,,,,4,1,41,1,,,,,,,,,,,AMNE07.jpg,AMNE03.jpg,AMSA02.jpg,AMSA18.jpg,AMNE07.jpg,MN,1,num_8,32,num_2,0.750150987878,,,2017_May_03_1640,60.004407249,FEMA4ImagesEEG,001,200243,
AFNE01.JPG,AFNE01.JPG,AFNE01.JPG,AFNE01.JPG,AFNE01.JPG,AFNE01.JPG,,,,,,,,,,,,,4,2,42,5,,,,,,,,,,,AMSA01.jpg,AMNE11.jpg,AMSA16.jpg,AMNE07.jpg,AMSA16.jpg,MS,2,num_2,32,num_8,0.500128456159,,,2017_May_03_1640,60.004407249,FEMA4ImagesEEG,001,200243,
AFNE01.JPG,AFNE01.JPG,AFNE01.JPG,AFNE01.JPG,AFNE01.JPG,AFNE01.JPG,,,,,,,,,,,,,4,3,43,7,,,,,,,,,,,AMNE08.jpg,AMNE12.jpg,AMSA04.jpg,AMSA07.jpg,AMNE08.jpg,MN,1,num_8,32,num_4,1.43343621586,,,2017_May_03_1640,60.004407249,FEMA4ImagesEEG,001,200243,
AFNE01.JPG,AFNE01.JPG,AFNE01.JPG,AFNE01.JPG,AFNE01.JPG,AFNE01.JPG,,,,,,,,,,,,,4,4,44,2,,,,,,,,,,,AMNE17.jpg,AMSA09.jpg,AMSA02.jpg,AMNE03.jpg,AMSA09.jpg,MS,2,num_6,16,num_6,0.650120164733,,,2017_May_03_1640,60.004407249,FEMA4ImagesEEG,001,200243,
AFNE01.JPG,AFNE01.JPG,AFNE01.JPG,AFNE01.JPG,AFNE01.JPG,AFNE01.JPG,,,,,,,,,,,,,4,5,45,3,,,,,,,,,,,AMSA14.jpg,AMNE08.jpg,AMSA05.jpg,AMNE02.jpg,AMNE02.jpg,MN,1,num_4,32,num_2,0.766808251617,,,2017_May_03_1640,60.004407249,FEMA4ImagesEEG,001,200243,
AFNE01.JPG,AFNE01.JPG,AFNE01.JPG,AFNE01.JPG,AFNE01.JPG,AFNE01.JPG,,,,,,,,,,,,,4,6,46,9,,,,,,,,,,,AMSA18.jpg,AMNE14.jpg,AMSA06.jpg,AMNE18.jpg,AMSA06.jpg,MS,2,num_2,16,num_2,0.933424188057,,,2017_May_03_1640,60.004407249,FEMA4ImagesEEG,001,200243,
AFNE01.JPG,AFNE01.JPG,AFNE01.JPG,AFNE01.JPG,AFNE01.JPG,AFNE01.JPG,,,,,,,,,,,,,4,7,47,4,,,,,,,,,,,AMNE16.jpg,AMNE10.jpg,AMSA05.jpg,AMSA03.jpg,AMNE10.jpg,MN,1,num_6,16,num_6,0.616772601381,,,2017_May_03_1640,60.004407249,FEMA4ImagesEEG,001,200243,
AFNE01.JPG,AFNE01.JPG,AFNE01.JPG,AFNE01.JPG,AFNE01.JPG,AFNE01.JPG,,,,,,,,,,,,,4,8,48,0,,,,,,,,,,,AMNE10.jpg,AMSA15.jpg,AMSA04.jpg,AMNE03.jpg,AMSA15.jpg,MS,2,num_6,16,num_6,0.483492681757,,,2017_May_03_1640,60.004407249,FEMA4ImagesEEG,001,200243,
AFNE01.JPG,AFNE01.JPG,AFNE01.JPG,AFNE01.JPG,AFNE01.JPG,AFNE01.JPG,,,,,,,,,,,,,4,9,49,6,,,,,,,,,,,AMSA17.jpg,AMNE10.jpg,AMSA10.jpg,AMNE17.jpg,AMSA17.jpg,MS,2,num_8,32,num_4,0.833444362506,,,2017_May_03_1640,60.004407249,FEMA4ImagesEEG,001,200243,
AFNE01.JPG,AFNE01.JPG,AFNE01.JPG,AFNE01.JPG,AFNE01.JPG,AFNE01.JPG,,,,,,,,,,,,,5,0,50,1,,,,,,,,,,,AMSA15.jpg,AMSA13.jpg,AMNE15.jpg,AMNE01.jpg,AMNE01.jpg,MN,1,num_4,16,num_4,0.433320108103,,,2017_May_03_1640,60.004407249,FEMA4ImagesEEG,001,200243,
AFNE01.JPG,AFNE01.JPG,AFNE01.JPG,AFNE01.JPG,AFNE01.JPG,AFNE01.JPG,,,,,,,,,,,,,5,1,51,0,,,,,,,,,,,AMSA13.jpg,AMNE08.jpg,AMNE01.jpg,AMSA02.jpg,AMNE08.jpg,MN,1,num_6,32,num_2,0.816736742854,,,2017_May_03_1640,60.004407249,FEMA4ImagesEEG,001,200243,
AFNE01.JPG,AFNE01.JPG,AFNE01.JPG,AFNE01.JPG,AFNE01.JPG,AFNE01.JPG,,,,,,,,,,,,,5,2,52,9,,,,,,,,,,,AMNE10.jpg,AMSA15.jpg,AMSA09.jpg,AMNE09.jpg,AMSA09.jpg,MS,2,num_2,16,num_2,1.35003250698,,,2017_May_03_1640,60.004407249,FEMA4ImagesEEG,001,200243,
AFNE01.JPG,AFNE01.JPG,AFNE01.JPG,AFNE01.JPG,AFNE01.JPG,AFNE01.JPG,,,,,,,,,,,,,5,3,53,3,,,,,,,,,,,AMSA02.jpg,AMNE14.jpg,AMNE08.jpg,AMSA05.jpg,AMNE14.jpg,MN,1,num_6,16,num_6,0.933445677394,,,2017_May_03_1640,60.004407249,FEMA4ImagesEEG,001,200243,
AFNE01.JPG,AFNE01.JPG,AFNE01.JPG,AFNE01.JPG,AFNE01.JPG,AFNE01.JPG,,,,,,,,,,,,,5,4,54,4,,,,,,,,,,,AMSA15.jpg,AMSA08.jpg,AMNE09.jpg,AMNE08.jpg,AMSA08.jpg,MS,2,num_6,16,num_6,1.13313205889,,,2017_May_03_1640,60.004407249,FEMA4ImagesEEG,001,200243,
AFNE01.JPG,AFNE01.JPG,AFNE01.JPG,AFNE01.JPG,AFNE01.JPG,AFNE01.JPG,,,,,,,,,,,,,5,5,55,5,,,,,,,,,,,AMNE07.jpg,AMSA13.jpg,AMSA15.jpg,AMNE02.jpg,AMSA15.jpg,MS,2,num_2,16,num_2,0.816747327102,,,2017_May_03_1640,60.004407249,FEMA4ImagesEEG,001,200243,
AFNE01.JPG,AFNE01.JPG,AFNE01.JPG,AFNE01.JPG,AFNE01.JPG,AFNE01.JPG,,,,,,,,,,,,,5,6,56,6,,,,,,,,,,,AMSA12.jpg,AMNE20.jpg,AMSA15.jpg,AMNE09.jpg,AMSA15.jpg,MS,2,num_2,32,num_8,1.08341910434,,,2017_May_03_1640,60.004407249,FEMA4ImagesEEG,001,200243,
AFNE01.JPG,AFNE01.JPG,AFNE01.JPG,AFNE01.JPG,AFNE01.JPG,AFNE01.JPG,,,,,,,,,,,,,5,7,57,7,,,,,,,,,,,AMNE15.jpg,AMSA05.jpg,AMNE20.jpg,AMSA12.jpg,AMNE20.jpg,MN,1,num_2,32,num_4,1.76698946906,,,2017_May_03_1640,60.004407249,FEMA4ImagesEEG,001,200243,
AFNE01.JPG,AFNE01.JPG,AFNE01.JPG,AFNE01.JPG,AFNE01.JPG,AFNE01.JPG,,,,,,,,,,,,,5,8,58,2,,,,,,,,,,,AMSA03.jpg,AMSA13.jpg,AMNE17.jpg,AMNE14.jpg,AMNE14.jpg,MN,1,num_4,32,num_6,1.6166837567,,,2017_May_03_1640,60.004407249,FEMA4ImagesEEG,001,200243,
AFNE01.JPG,AFNE01.JPG,AFNE01.JPG,AFNE01.JPG,AFNE01.JPG,AFNE01.JPG,,,,,,,,,,,,,5,9,59,8,,,,,,,,,,,AMSA11.jpg,AMNE13.jpg,AMSA06.jpg,AMNE05.jpg,AMNE05.jpg,MN,1,num_4,32,num_8,0.783476099838,,,2017_May_03_1640,60.004407249,FEMA4ImagesEEG,001,200243,
,,,,,,,,,,,,,,,,,,,,,,,,,,,,,,,,,,,,,,,,,,,space,20.6151984138,2017_May_03_1640,60.004407249,FEMA4ImagesEEG,001,200243,
AFNE01.JPG,AFNE01.JPG,AFNE01.JPG,AFNE01.JPG,AFNE01.JPG,AFNE01.JPG,,,,,,,,,,,,,,,,,0,0,0,0,,,,,,,AFSA11.jpg,AFNE19.jpg,AFNE05.jpg,AFSA09.jpg,AFNE05.jpg,FN,3,num_2,16,num_2,0.966843917733,,,2017_May_03_1640,60.004407249,FEMA4ImagesEEG,001,200243,
AFNE01.JPG,AFNE01.JPG,AFNE01.JPG,AFNE01.JPG,AFNE01.JPG,AFNE01.JPG,,,,,,,,,,,,,,,,,0,1,1,7,,,,,,,AFSA17.jpg,AFNE01.jpg,AFNE11.jpg,AFSA20.jpg,AFSA20.jpg,FS,4,num_4,16,num_4,0.533433040604,,,2017_May_03_1640,60.004407249,FEMA4ImagesEEG,001,200243,
AFNE01.JPG,AFNE01.JPG,AFNE01.JPG,AFNE01.JPG,AFNE01.JPG,AFNE01.JPG,,,,,,,,,,,,,,,,,0,2,2,2,,,,,,,AFNE13.jpg,AFSA20.jpg,AFSA13.jpg,AFNE05.jpg,AFNE13.jpg,FN,3,num_8,16,num_8,1.08349094982,,,2017_May_03_1640,60.004407249,FEMA4ImagesEEG,001,200243,
AFNE01.JPG,AFNE01.JPG,AFNE01.JPG,AFNE01.JPG,AFNE01.JPG,AFNE01.JPG,,,,,,,,,,,,,,,,,0,3,3,1,,,,,,,AFNE06.jpg,AFSA03.jpg,AFNE09.jpg,AFSA17.jpg,AFNE09.jpg,FN,3,num_2,16,num_2,0.750100631965,,,2017_May_03_1640,60.004407249,FEMA4ImagesEEG,001,200243,
AFNE01.JPG,AFNE01.JPG,AFNE01.JPG,AFNE01.JPG,AFNE01.JPG,AFNE01.JPG,,,,,,,,,,,,,,,,,0,4,4,5,,,,,,,AFSA17.jpg,AFNE13.jpg,AFNE15.jpg,AFSA13.jpg,AFNE15.jpg,FN,3,num_2,16,num_2,0.533447152935,,,2017_May_03_1640,60.004407249,FEMA4ImagesEEG,001,200243,
AFNE01.JPG,AFNE01.JPG,AFNE01.JPG,AFNE01.JPG,AFNE01.JPG,AFNE01.JPG,,,,,,,,,,,,,,,,,0,5,5,6,,,,,,,AFNE02.jpg,AFSA06.jpg,AFSA20.jpg,AFNE01.jpg,AFNE02.jpg,FN,3,num_8,16,num_8,0.833501453977,,,2017_May_03_1640,60.004407249,FEMA4ImagesEEG,001,200243,
AFNE01.JPG,AFNE01.JPG,AFNE01.JPG,AFNE01.JPG,AFNE01.JPG,AFNE01.JPG,,,,,,,,,,,,,,,,,0,6,6,9,,,,,,,AFNE09.jpg,AFSA04.jpg,AFSA18.jpg,AFNE10.jpg,AFSA04.jpg,FS,4,num_6,32,num_8,0.883464585058,,,2017_May_03_1640,60.004407249,FEMA4ImagesEEG,001,200243,
AFNE01.JPG,AFNE01.JPG,AFNE01.JPG,AFNE01.JPG,AFNE01.JPG,AFNE01.JPG,,,,,,,,,,,,,,,,,0,7,7,3,,,,,,,AFNE10.jpg,AFSA02.jpg,AFSA11.jpg,AFNE03.jpg,AFNE10.jpg,FN,3,num_8,32,num_2,0.750134309521,,,2017_May_03_1640,60.004407249,FEMA4ImagesEEG,001,200243,
AFNE01.JPG,AFNE01.JPG,AFNE01.JPG,AFNE01.JPG,AFNE01.JPG,AFNE01.JPG,,,,,,,,,,,,,,,,,0,8,8,4,,,,,,,AFNE05.jpg,AFNE17.jpg,AFSA01.jpg,AFSA18.jpg,AFSA18.jpg,FS,4,num_4,16,num_4,1.23351056315,,,2017_May_03_1640,60.004407249,FEMA4ImagesEEG,001,200243,
AFNE01.JPG,AFNE01.JPG,AFNE01.JPG,AFNE01.JPG,AFNE01.JPG,AFNE01.JPG,,,,,,,,,,,,,,,,,0,9,9,8,,,,,,,AFNE05.jpg,AFNE01.jpg,AFSA14.jpg,AFSA19.jpg,AFNE01.jpg,FN,3,num_6,32,num_8,1.10006995313,,,2017_May_03_1640,60.004407249,FEMA4ImagesEEG,001,200243,
AFNE01.JPG,AFNE01.JPG,AFNE01.JPG,AFNE01.JPG,AFNE01.JPG,AFNE01.JPG,,,,,,,,,,,,,,,,,1,0,10,3,,,,,,,AFSA03.jpg,AFNE18.jpg,AFSA08.jpg,AFNE10.jpg,AFNE10.jpg,FN,3,num_4,32,num_6,1.25005909614,,,2017_May_03_1640,60.004407249,FEMA4ImagesEEG,001,200243,
AFNE01.JPG,AFNE01.JPG,AFNE01.JPG,AFNE01.JPG,AFNE01.JPG,AFNE01.JPG,,,,,,,,,,,,,,,,,1,1,11,6,,,,,,,AFNE19.jpg,AFSA18.jpg,AFNE05.jpg,AFSA04.jpg,AFSA04.jpg,FS,4,num_4,16,num_4,0.800080441404,,,2017_May_03_1640,60.004407249,FEMA4ImagesEEG,001,200243,
AFNE01.JPG,AFNE01.JPG,AFNE01.JPG,AFNE01.JPG,AFNE01.JPG,AFNE01.JPG,,,,,,,,,,,,,,,,,1,2,12,2,,,,,,,AFNE16.jpg,AFSA01.jpg,AFNE02.jpg,AFSA10.jpg,AFNE02.jpg,FN,3,num_2,16,num_2,1.13342168625,,,2017_May_03_1640,60.004407249,FEMA4ImagesEEG,001,200243,
AFNE01.JPG,AFNE01.JPG,AFNE01.JPG,AFNE01.JPG,AFNE01.JPG,AFNE01.JPG,,,,,,,,,,,,,,,,,1,3,13,8,,,,,,,AFNE04.jpg,AFSA07.jpg,AFNE17.jpg,AFSA20.jpg,AFSA20.jpg,FS,4,num_4,32,num_8,0.783489891561,,,2017_May_03_1640,60.004407249,FEMA4ImagesEEG,001,200243,
AFNE01.JPG,AFNE01.JPG,AFNE01.JPG,AFNE01.JPG,AFNE01.JPG,AFNE01.JPG,,,,,,,,,,,,,,,,,1,4,14,4,,,,,,,AFSA06.jpg,AFSA11.jpg,AFNE06.jpg,AFNE08.jpg,AFNE08.jpg,FN,3,num_4,16,num_4,0.716782255797,,,2017_May_03_1640,60.004407249,FEMA4ImagesEEG,001,200243,
AFNE01.JPG,AFNE01.JPG,AFNE01.JPG,AFNE01.JPG,AFNE01.JPG,AFNE01.JPG,,,,,,,,,,,,,,,,,1,5,15,9,,,,,,,AFNE01.jpg,AFSA04.jpg,AFSA14.jpg,AFNE03.jpg,AFNE01.jpg,FN,3,num_8,32,num_4,1.16669932869,,,2017_May_03_1640,60.004407249,FEMA4ImagesEEG,001,200243,
AFNE01.JPG,AFNE01.JPG,AFNE01.JPG,AFNE01.JPG,AFNE01.JPG,AFNE01.JPG,,,,,,,,,,,,,,,,,1,6,16,0,,,,,,,AFSA18.jpg,AFNE01.jpg,AFNE19.jpg,AFSA03.jpg,AFNE01.jpg,FN,3,num_6,32,num_8,0.750182741089,,,2017_May_03_1640,60.004407249,FEMA4ImagesEEG,001,200243,
AFNE01.JPG,AFNE01.JPG,AFNE01.JPG,AFNE01.JPG,AFNE01.JPG,AFNE01.JPG,,,,,,,,,,,,,,,,,1,7,17,1,,,,,,,AFSA14.jpg,AFSA05.jpg,AFNE11.jpg,AFNE19.jpg,AFSA05.jpg,FS,4,num_6,16,num_6,1.05012221774,,,2017_May_03_1640,60.004407249,FEMA4ImagesEEG,001,200243,
AFNE01.JPG,AFNE01.JPG,AFNE01.JPG,AFNE01.JPG,AFNE01.JPG,AFNE01.JPG,,,,,,,,,,,,,,,,,1,8,18,5,,,,,,,AFSA08.jpg,AFNE01.jpg,AFSA19.jpg,AFNE17.jpg,AFSA19.jpg,FS,4,num_2,16,num_2,1.80005638604,,,2017_May_03_1640,60.004407249,FEMA4ImagesEEG,001,200243,
AFNE01.JPG,AFNE01.JPG,AFNE01.JPG,AFNE01.JPG,AFNE01.JPG,AFNE01.JPG,,,,,,,,,,,,,,,,,1,9,19,7,,,,,,,AFNE15.jpg,AFNE03.jpg,AFSA06.jpg,AFSA11.jpg,AFSA11.jpg,FS,4,num_4,16,num_4,1.11674165027,,,2017_May_03_1640,60.004407249,FEMA4ImagesEEG,001,200243,
AFNE01.JPG,AFNE01.JPG,AFNE01.JPG,AFNE01.JPG,AFNE01.JPG,AFNE01.JPG,,,,,,,,,,,,,,,,,2,0,20,3,,,,,,,AFNE09.jpg,AFSA11.jpg,AFSA02.jpg,AFNE17.jpg,AFSA11.jpg,FS,4,num_6,32,num_2,1.48338812077,,,2017_May_03_1640,60.004407249,FEMA4ImagesEEG,001,200243,
AFNE01.JPG,AFNE01.JPG,AFNE01.JPG,AFNE01.JPG,AFNE01.JPG,AFNE01.JPG,,,,,,,,,,,,,,,,,2,1,21,8,,,,,,,AFSA11.jpg,AFNE08.jpg,AFSA08.jpg,AFNE10.jpg,AFSA08.jpg,FS,4,num_2,32,num_8,0.783474175259,,,2017_May_03_1640,60.004407249,FEMA4ImagesEEG,001,200243,
AFNE01.JPG,AFNE01.JPG,AFNE01.JPG,AFNE01.JPG,AFNE01.JPG,AFNE01.JPG,,,,,,,,,,,,,,,,,2,2,22,6,,,,,,,AFSA06.jpg,AFNE02.jpg,AFNE12.jpg,AFSA15.jpg,AFSA06.jpg,FS,4,num_8,16,num_8,0.850158076268,,,2017_May_03_1640,60.004407249,FEMA4ImagesEEG,001,200243,
AFNE01.JPG,AFNE01.JPG,AFNE01.JPG,AFNE01.JPG,AFNE01.JPG,AFNE01.JPG,,,,,,,,,,,,,,,,,2,3,23,0,,,,,,,AFNE09.jpg,AFSA06.jpg,AFNE08.jpg,AFSA18.jpg,AFNE08.jpg,FN,3,num_2,16,num_2,0.86677620979,,,2017_May_03_1640,60.004407249,FEMA4ImagesEEG,001,200243,
AFNE01.JPG,AFNE01.JPG,AFNE01.JPG,AFNE01.JPG,AFNE01.JPG,AFNE01.JPG,,,,,,,,,,,,,,,,,2,4,24,5,,,,,,,AFNE01.jpg,AFNE19.jpg,AFSA02.jpg,AFSA17.jpg,AFNE19.jpg,FN,3,num_6,16,num_6,0.783445308683,,,2017_May_03_1640,60.004407249,FEMA4ImagesEEG,001,200243,
AFNE01.JPG,AFNE01.JPG,AFNE01.JPG,AFNE01.JPG,AFNE01.JPG,AFNE01.JPG,,,,,,,,,,,,,,,,,2,5,25,7,,,,,,,AFSA06.jpg,AFNE11.jpg,AFSA18.jpg,AFNE01.jpg,AFSA06.jpg,FS,4,num_8,32,num_4,0.650182067649,,,2017_May_03_1640,60.004407249,FEMA4ImagesEEG,001,200243,
AFNE01.JPG,AFNE01.JPG,AFNE01.JPG,AFNE01.JPG,AFNE01.JPG,AFNE01.JPG,,,,,,,,,,,,,,,,,2,6,26,1,,,,,,,AFNE14.jpg,AFSA09.jpg,AFSA11.jpg,AFNE07.jpg,AFNE14.jpg,FN,3,num_8,32,num_4,1.9333735113,,,2017_May_03_1640,60.004407249,FEMA4ImagesEEG,001,200243,
AFNE01.JPG,AFNE01.JPG,AFNE01.JPG,AFNE01.JPG,AFNE01.JPG,AFNE01.JPG,,,,,,,,,,,,,,,,,2,7,27,9,,,,,,,AFNE12.jpg,AFSA06.jpg,AFNE01.jpg,AFSA07.jpg,AFNE01.jpg,FN,3,num_2,32,num_8,0.716774878791,,,2017_May_03_1640,60.004407249,FEMA4ImagesEEG,001,200243,
AFNE01.JPG,AFNE01.JPG,AFNE01.JPG,AFNE01.JPG,AFNE01.JPG,AFNE01.JPG,,,,,,,,,,,,,,,,,2,8,28,2,,,,,,,AFSA07.jpg,AFNE17.jpg,AFSA15.jpg,AFNE04.jpg,AFSA15.jpg,FS,4,num_2,16,num_2,2.5667142109,,,2017_May_03_1640,60.004407249,FEMA4ImagesEEG,001,200243,
AFNE01.JPG,AFNE01.JPG,AFNE01.JPG,AFNE01.JPG,AFNE01.JPG,AFNE01.JPG,,,,,,,,,,,,,,,,,2,9,29,4,,,,,,,AFSA10.jpg,AFNE12.jpg,AFSA14.jpg,AFNE15.jpg,AFNE12.jpg,FN,3,num_6,16,num_6,0.483133133501,,,2017_May_03_1640,60.004407249,FEMA4ImagesEEG,001,200243,
AFNE01.JPG,AFNE01.JPG,AFNE01.JPG,AFNE01.JPG,AFNE01.JPG,AFNE01.JPG,,,,,,,,,,,,,,,,,3,0,30,4,,,,,,,AFNE09.jpg,AFSA03.jpg,AFNE19.jpg,AFSA16.jpg,AFNE19.jpg,FN,3,num_2,16,num_2,0.78345813835,,,2017_May_03_1640,60.004407249,FEMA4ImagesEEG,001,200243,
AFNE01.JPG,AFNE01.JPG,AFNE01.JPG,AFNE01.JPG,AFNE01.JPG,AFNE01.JPG,,,,,,,,,,,,,,,,,3,1,31,9,,,,,,,AFSA08.jpg,AFNE01.jpg,AFNE16.jpg,AFSA13.jpg,AFNE16.jpg,FN,3,num_2,16,num_2,3.14991825959,,,2017_May_03_1640,60.004407249,FEMA4ImagesEEG,001,200243,
AFNE01.JPG,AFNE01.JPG,AFNE01.JPG,AFNE01.JPG,AFNE01.JPG,AFNE01.JPG,,,,,,,,,,,,,,,,,3,2,32,5,,,,,,,AFSA15.jpg,AFNE13.jpg,AFSA13.jpg,AFNE06.jpg,AFNE13.jpg,FN,3,num_6,16,num_6,0.566773547558,,,2017_May_03_1640,60.004407249,FEMA4ImagesEEG,001,200243,
AFNE01.JPG,AFNE01.JPG,AFNE01.JPG,AFNE01.JPG,AFNE01.JPG,AFNE01.JPG,,,,,,,,,,,,,,,,,3,3,33,1,,,,,,,AFNE04.jpg,AFSA10.jpg,AFSA14.jpg,AFNE09.jpg,AFNE09.jpg,FN,3,num_4,16,num_4,1.06674772804,,,2017_May_03_1640,60.004407249,FEMA4ImagesEEG,001,200243,
AFNE01.JPG,AFNE01.JPG,AFNE01.JPG,AFNE01.JPG,AFNE01.JPG,AFNE01.JPG,,,,,,,,,,,,,,,,,3,4,34,7,,,,,,,AFSA17.jpg,AFNE09.jpg,AFNE10.jpg,AFSA11.jpg,AFSA17.jpg,FS,4,num_8,16,num_8,0.950084659038,,,2017_May_03_1640,60.004407249,FEMA4ImagesEEG,001,200243,
AFNE01.JPG,AFNE01.JPG,AFNE01.JPG,AFNE01.JPG,AFNE01.JPG,AFNE01.JPG,,,,,,,,,,,,,,,,,3,5,35,0,,,,,,,AFSA08.jpg,AFNE20.jpg,AFSA10.jpg,AFNE17.jpg,AFNE17.jpg,FN,3,num_4,16,num_4,0.816644369857,,,2017_May_03_1640,60.004407249,FEMA4ImagesEEG,001,200243,
AFNE01.JPG,AFNE01.JPG,AFNE01.JPG,AFNE01.JPG,AFNE01.JPG,AFNE01.JPG,,,,,,,,,,,,,,,,,3,6,36,3,,,,,,,AFSA02.jpg,AFSA13.jpg,AFNE15.jpg,AFNE12.jpg,AFNE15.jpg,FN,3,num_2,32,num_8,1.13368982426,,,2017_May_03_1640,60.004407249,FEMA4ImagesEEG,001,200243,
AFNE01.JPG,AFNE01.JPG,AFNE01.JPG,AFNE01.JPG,AFNE01.JPG,AFNE01.JPG,,,,,,,,,,,,,,,,,3,7,37,8,,,,,,,AFNE15.jpg,AFSA09.jpg,AFNE11.jpg,AFSA08.jpg,AFNE15.jpg,FN,3,num_8,32,num_2,1.18335755449,,,2017_May_03_1640,60.004407249,FEMA4ImagesEEG,001,200243,
AFNE01.JPG,AFNE01.JPG,AFNE01.JPG,AFNE01.JPG,AFNE01.JPG,AFNE01.JPG,,,,,,,,,,,,,,,,,3,8,38,6,,,,,,,AFNE12.jpg,AFSA15.jpg,AFNE14.jpg,AFSA14.jpg,AFSA14.jpg,FS,4,num_4,16,num_4,0.883399475133,,,2017_May_03_1640,60.004407249,FEMA4ImagesEEG,001,200243,
AFNE01.JPG,AFNE01.JPG,AFNE01.JPG,AFNE01.JPG,AFNE01.JPG,AFNE01.JPG,,,,,,,,,,,,,,,,,3,9,39,2,,,,,,,AFNE11.jpg,AFSA15.jpg,AFSA03.jpg,AFNE12.jpg,AFNE11.jpg,FN,3,num_8,16,num_8,0.700101257302,,,2017_May_03_1640,60.004407249,FEMA4ImagesEEG,001,200243,
AFNE01.JPG,AFNE01.JPG,AFNE01.JPG,AFNE01.JPG,AFNE01.JPG,AFNE01.JPG,,,,,,,,,,,,,,,,,4,0,40,7,,,,,,,AFNE10.jpg,AFSA07.jpg,AFSA05.jpg,AFNE14.jpg,AFSA07.jpg,FS,4,num_6,16,num_6,0.83343185368,,,2017_May_03_1640,60.004407249,FEMA4ImagesEEG,001,200243,
AFNE01.JPG,AFNE01.JPG,AFNE01.JPG,AFNE01.JPG,AFNE01.JPG,AFNE01.JPG,,,,,,,,,,,,,,,,,4,1,41,1,,,,,,,AFNE05.jpg,AFNE18.jpg,AFSA07.jpg,AFSA05.jpg,AFSA07.jpg,FS,4,num_2,16,num_2,1.2167375125,,,2017_May_03_1640,60.004407249,FEMA4ImagesEEG,001,200243,
AFNE01.JPG,AFNE01.JPG,AFNE01.JPG,AFNE01.JPG,AFNE01.JPG,AFNE01.JPG,,,,,,,,,,,,,,,,,4,2,42,4,,,,,,,AFNE13.jpg,AFSA09.jpg,AFSA20.jpg,AFNE16.jpg,AFNE16.jpg,FN,3,num_4,32,num_8,0.633548538433,,,2017_May_03_1640,60.004407249,FEMA4ImagesEEG,001,200243,
AFNE01.JPG,AFNE01.JPG,AFNE01.JPG,AFNE01.JPG,AFNE01.JPG,AFNE01.JPG,,,,,,,,,,,,,,,,,4,3,43,2,,,,,,,AFSA10.jpg,AFSA17.jpg,AFNE03.jpg,AFNE04.jpg,AFNE03.jpg,FN,3,num_2,32,num_8,0.51678924798,,,2017_May_03_1640,60.004407249,FEMA4ImagesEEG,001,200243,
AFNE01.JPG,AFNE01.JPG,AFNE01.JPG,AFNE01.JPG,AFNE01.JPG,AFNE01.JPG,,,,,,,,,,,,,,,,,4,4,44,5,,,,,,,AFSA17.jpg,AFNE07.jpg,AFNE03.jpg,AFSA10.jpg,AFSA17.jpg,FS,4,num_8,32,num_6,0.616891916376,,,2017_May_03_1640,60.004407249,FEMA4ImagesEEG,001,200243,
AFNE01.JPG,AFNE01.JPG,AFNE01.JPG,AFNE01.JPG,AFNE01.JPG,AFNE01.JPG,,,,,,,,,,,,,,,,,4,5,45,6,,,,,,,AFSA02.jpg,AFNE01.jpg,AFSA18.jpg,AFNE11.jpg,AFNE01.jpg,FN,3,num_6,32,num_4,1.03353423369,,,2017_May_03_1640,60.004407249,FEMA4ImagesEEG,001,200243,
AFNE01.JPG,AFNE01.JPG,AFNE01.JPG,AFNE01.JPG,AFNE01.JPG,AFNE01.JPG,,,,,,,,,,,,,,,,,4,6,46,8,,,,,,,AFSA05.jpg,AFNE01.jpg,AFSA20.jpg,AFNE17.jpg,AFNE17.jpg,FN,3,num_4,32,num_2,1.28344065789,,,2017_May_03_1640,60.004407249,FEMA4ImagesEEG,001,200243,
AFNE01.JPG,AFNE01.JPG,AFNE01.JPG,AFNE01.JPG,AFNE01.JPG,AFNE01.JPG,,,,,,,,,,,,,,,,,4,7,47,9,,,,,,,AFNE16.jpg,AFSA14.jpg,AFNE06.jpg,AFSA20.jpg,AFSA14.jpg,FS,4,num_6,32,num_4,0.666755297687,,,2017_May_03_1640,60.004407249,FEMA4ImagesEEG,001,200243,
AFNE01.JPG,AFNE01.JPG,AFNE01.JPG,AFNE01.JPG,AFNE01.JPG,AFNE01.JPG,,,,,,,,,,,,,,,,,4,8,48,0,,,,,,,AFSA05.jpg,AFSA17.jpg,AFNE20.jpg,AFNE06.jpg,AFNE06.jpg,FN,3,num_4,32,num_8,0.766768159345,,,2017_May_03_1640,60.004407249,FEMA4ImagesEEG,001,200243,
AFNE01.JPG,AFNE01.JPG,AFNE01.JPG,AFNE01.JPG,AFNE01.JPG,AFNE01.JPG,,,,,,,,,,,,,,,,,4,9,49,3,,,,,,,AFSA16.jpg,AFNE14.jpg,AFSA10.jpg,AFNE13.jpg,AFSA16.jpg,FS,4,num_8,32,num_2,0.866743815131,,,2017_May_03_1640,60.004407249,FEMA4ImagesEEG,001,200243,
AFNE01.JPG,AFNE01.JPG,AFNE01.JPG,AFNE01.JPG,AFNE01.JPG,AFNE01.JPG,,,,,,,,,,,,,,,,,5,0,50,9,,,,,,,AFNE17.jpg,AFSA10.jpg,AFNE06.jpg,AFSA07.jpg,AFNE17.jpg,FN,3,num_8,32,num_4,0.733441764489,,,2017_May_03_1640,60.004407249,FEMA4ImagesEEG,001,200243,
AFNE01.JPG,AFNE01.JPG,AFNE01.JPG,AFNE01.JPG,AFNE01.JPG,AFNE01.JPG,,,,,,,,,,,,,,,,,5,1,51,0,,,,,,,AFSA15.jpg,AFSA09.jpg,AFNE14.jpg,AFNE05.jpg,AFNE05.jpg,FN,3,num_4,16,num_4,0.916758585256,,,2017_May_03_1640,60.004407249,FEMA4ImagesEEG,001,200243,
AFNE01.JPG,AFNE01.JPG,AFNE01.JPG,AFNE01.JPG,AFNE01.JPG,AFNE01.JPG,,,,,,,,,,,,,,,,,5,2,52,3,,,,,,,AFNE06.jpg,AFNE01.jpg,AFSA19.jpg,AFSA02.jpg,AFNE01.jpg,FN,3,num_6,16,num_6,0.733577758074,,,2017_May_03_1640,60.004407249,FEMA4ImagesEEG,001,200243,
AFNE01.JPG,AFNE01.JPG,AFNE01.JPG,AFNE01.JPG,AFNE01.JPG,AFNE01.JPG,,,,,,,,,,,,,,,,,5,3,53,7,,,,,,,AFNE10.jpg,AFSA13.jpg,AFNE13.jpg,AFSA15.jpg,AFNE10.jpg,FN,3,num_8,16,num_8,0.750165741891,,,2017_May_03_1640,60.004407249,FEMA4ImagesEEG,001,200243,
AFNE01.JPG,AFNE01.JPG,AFNE01.JPG,AFNE01.JPG,AFNE01.JPG,AFNE01.JPG,,,,,,,,,,,,,,,,,5,4,54,8,,,,,,,AFNE18.jpg,AFSA08.jpg,AFNE01.jpg,AFSA14.jpg,AFNE01.jpg,FN,3,num_2,32,num_8,0.866743173683,,,2017_May_03_1640,60.004407249,FEMA4ImagesEEG,001,200243,
AFNE01.JPG,AFNE01.JPG,AFNE01.JPG,AFNE01.JPG,AFNE01.JPG,AFNE01.JPG,,,,,,,,,,,,,,,,,5,5,55,6,,,,,,,AFSA19.jpg,AFNE05.jpg,AFNE08.jpg,AFSA14.jpg,AFNE08.jpg,FN,3,num_2,32,num_4,0.733444971964,,,2017_May_03_1640,60.004407249,FEMA4ImagesEEG,001,200243,
AFNE01.JPG,AFNE01.JPG,AFNE01.JPG,AFNE01.JPG,AFNE01.JPG,AFNE01.JPG,,,,,,,,,,,,,,,,,5,6,56,1,,,,,,,AFSA11.jpg,AFSA16.jpg,AFNE07.jpg,AFNE03.jpg,AFSA11.jpg,FS,4,num_8,32,num_2,0.61682007066,,,2017_May_03_1640,60.004407249,FEMA4ImagesEEG,001,200243,
AFNE01.JPG,AFNE01.JPG,AFNE01.JPG,AFNE01.JPG,AFNE01.JPG,AFNE01.JPG,,,,,,,,,,,,,,,,,5,7,57,5,,,,,,,AFNE15.jpg,AFNE04.jpg,AFSA20.jpg,AFSA15.jpg,AFNE15.jpg,FN,3,num_8,32,num_4,0.850107399514,,,2017_May_03_1640,60.004407249,FEMA4ImagesEEG,001,200243,
AFNE01.JPG,AFNE01.JPG,AFNE01.JPG,AFNE01.JPG,AFNE01.JPG,AFNE01.JPG,,,,,,,,,,,,,,,,,5,8,58,2,,,,,,,AFSA15.jpg,AFNE18.jpg,AFSA01.jpg,AFNE11.jpg,AFSA15.jpg,FS,4,num_8,16,num_8,0.966695415555,,,2017_May_03_1640,60.004407249,FEMA4ImagesEEG,001,200243,
AFNE01.JPG,AFNE01.JPG,AFNE01.JPG,AFNE01.JPG,AFNE01.JPG,AFNE01.JPG,,,,,,,,,,,,,,,,,5,9,59,4,,,,,,,AFNE03.jpg,AFNE09.jpg,AFSA17.jpg,AFSA11.jpg,AFNE03.jpg,FN,3,num_8,32,num_6,0.916746717645,,,2017_May_03_1640,60.004407249,FEMA4ImagesEEG,001,200243,
,,,,,,,,,,,,,,,,,,,,,,,,,,,,,,,,,,,,,,,,,,,space,14.1823924505,2017_May_03_1640,60.004407249,FEMA4ImagesEEG,001,200243,
AFNE01.JPG,AFNE01.JPG,AFNE01.JPG,AFNE01.JPG,AFNE01.JPG,AFNE01.JPG,,,,,,,,,,,,,,,,,,,,,0,0,0,2,,,AMNE15.jpg,AMSA15.jpg,AMSA14.jpg,AMNE04.jpg,AMSA14.jpg,MS,2,num_2,16,num_2,0.850104833487,,,2017_May_03_1640,60.004407249,FEMA4ImagesEEG,001,200243,
AFNE01.JPG,AFNE01.JPG,AFNE01.JPG,AFNE01.JPG,AFNE01.JPG,AFNE01.JPG,,,,,,,,,,,,,,,,,,,,,0,1,1,6,,,AMNE01.jpg,AMSA02.jpg,AMNE05.jpg,AMSA12.jpg,AMSA02.jpg,MS,2,num_6,32,num_8,0.783427988878,,,2017_May_03_1640,60.004407249,FEMA4ImagesEEG,001,200243,
AFNE01.JPG,AFNE01.JPG,AFNE01.JPG,AFNE01.JPG,AFNE01.JPG,AFNE01.JPG,,,,,,,,,,,,,,,,,,,,,0,2,2,8,,,AMNE02.jpg,AMSA09.jpg,AMSA18.jpg,AMNE20.jpg,AMSA09.jpg,MS,2,num_6,16,num_6,0.550168243703,,,2017_May_03_1640,60.004407249,FEMA4ImagesEEG,001,200243,
AFNE01.JPG,AFNE01.JPG,AFNE01.JPG,AFNE01.JPG,AFNE01.JPG,AFNE01.JPG,,,,,,,,,,,,,,,,,,,,,0,3,3,9,,,AMNE19.jpg,AMSA17.jpg,AMNE02.jpg,AMSA19.jpg,AMSA19.jpg,MS,2,num_4,16,num_4,0.783443063498,,,2017_May_03_1640,60.004407249,FEMA4ImagesEEG,001,200243,
AFNE01.JPG,AFNE01.JPG,AFNE01.JPG,AFNE01.JPG,AFNE01.JPG,AFNE01.JPG,,,,,,,,,,,,,,,,,,,,,0,4,4,1,,,AMNE16.jpg,AMNE03.jpg,AMSA17.jpg,AMSA12.jpg,AMSA12.jpg,MS,2,num_4,32,num_2,1.1833893077,,,2017_May_03_1640,60.004407249,FEMA4ImagesEEG,001,200243,
AFNE01.JPG,AFNE01.JPG,AFNE01.JPG,AFNE01.JPG,AFNE01.JPG,AFNE01.JPG,,,,,,,,,,,,,,,,,,,,,0,5,5,0,,,AMNE01.jpg,AMSA15.jpg,AMNE13.jpg,AMSA08.jpg,AMSA15.jpg,MS,2,num_6,16,num_6,0.500193886925,,,2017_May_03_1640,60.004407249,FEMA4ImagesEEG,001,200243,
AFNE01.JPG,AFNE01.JPG,AFNE01.JPG,AFNE01.JPG,AFNE01.JPG,AFNE01.JPG,,,,,,,,,,,,,,,,,,,,,0,6,6,7,,,AMSA14.jpg,AMSA13.jpg,AMNE13.jpg,AMNE06.jpg,AMNE13.jpg,MN,1,num_2,32,num_8,0.766767517664,,,2017_May_03_1640,60.004407249,FEMA4ImagesEEG,001,200243,
AFNE01.JPG,AFNE01.JPG,AFNE01.JPG,AFNE01.JPG,AFNE01.JPG,AFNE01.JPG,,,,,,,,,,,,,,,,,,,,,0,7,7,4,,,AMNE05.jpg,AMSA10.jpg,AMNE02.jpg,AMSA17.jpg,AMNE02.jpg,MN,1,num_2,32,num_4,0.816733214539,,,2017_May_03_1640,60.004407249,FEMA4ImagesEEG,001,200243,
AFNE01.JPG,AFNE01.JPG,AFNE01.JPG,AFNE01.JPG,AFNE01.JPG,AFNE01.JPG,,,,,,,,,,,,,,,,,,,,,0,8,8,5,,,AMSA13.jpg,AMNE06.jpg,AMNE11.jpg,AMSA14.jpg,AMSA14.jpg,MS,2,num_4,32,num_2,0.816766250879,,,2017_May_03_1640,60.004407249,FEMA4ImagesEEG,001,200243,
AFNE01.JPG,AFNE01.JPG,AFNE01.JPG,AFNE01.JPG,AFNE01.JPG,AFNE01.JPG,,,,,,,,,,,,,,,,,,,,,0,9,9,3,,,AMSA19.jpg,AMSA03.jpg,AMNE18.jpg,AMNE13.jpg,AMSA03.jpg,MS,2,num_6,16,num_6,0.483432383044,,,2017_May_03_1640,60.004407249,FEMA4ImagesEEG,001,200243,
AFNE01.JPG,AFNE01.JPG,AFNE01.JPG,AFNE01.JPG,AFNE01.JPG,AFNE01.JPG,,,,,,,,,,,,,,,,,,,,,1,0,10,7,,,AMSA06.jpg,AMNE19.jpg,AMSA18.jpg,AMNE07.jpg,AMSA06.jpg,MS,2,num_8,32,num_4,0.900140451733,,,2017_May_03_1640,60.004407249,FEMA4ImagesEEG,001,200243,
AFNE01.JPG,AFNE01.JPG,AFNE01.JPG,AFNE01.JPG,AFNE01.JPG,AFNE01.JPG,,,,,,,,,,,,,,,,,,,,,1,1,11,9,,,AMSA14.jpg,AMSA08.jpg,AMNE08.jpg,AMNE11.jpg,AMSA14.jpg,MS,2,num_8,16,num_8,0.433504533023,,,2017_May_03_1640,60.004407249,FEMA4ImagesEEG,001,200243,
AFNE01.JPG,AFNE01.JPG,AFNE01.JPG,AFNE01.JPG,AFNE01.JPG,AFNE01.JPG,,,,,,,,,,,,,,,,,,,,,1,2,12,0,,,AMSA18.jpg,AMNE10.jpg,AMSA19.jpg,AMNE17.jpg,AMNE17.jpg,MN,1,num_4,32,num_6,0.833444683114,,,2017_May_03_1640,60.004407249,FEMA4ImagesEEG,001,200243,
AFNE01.JPG,AFNE01.JPG,AFNE01.JPG,AFNE01.JPG,AFNE01.JPG,AFNE01.JPG,,,,,,,,,,,,,,,,,,,,,1,3,13,8,,,AMNE14.jpg,AMSA15.jpg,AMNE10.jpg,AMSA01.jpg,AMNE10.jpg,MN,1,num_2,16,num_2,1.15010011871,,,2017_May_03_1640,60.004407249,FEMA4ImagesEEG,001,200243,
AFNE01.JPG,AFNE01.JPG,AFNE01.JPG,AFNE01.JPG,AFNE01.JPG,AFNE01.JPG,,,,,,,,,,,,,,,,,,,,,1,4,14,5,,,AMSA01.jpg,AMNE12.jpg,AMNE13.jpg,AMSA07.jpg,AMSA01.jpg,MS,2,num_8,16,num_8,0.73342059576,,,2017_May_03_1640,60.004407249,FEMA4ImagesEEG,001,200243,
AFNE01.JPG,AFNE01.JPG,AFNE01.JPG,AFNE01.JPG,AFNE01.JPG,AFNE01.JPG,,,,,,,,,,,,,,,,,,,,,1,5,15,3,,,AMSA11.jpg,AMNE02.jpg,AMSA08.jpg,AMNE08.jpg,AMNE02.jpg,MN,1,num_6,32,num_4,0.700240778737,,,2017_May_03_1640,60.004407249,FEMA4ImagesEEG,001,200243,
AFNE01.JPG,AFNE01.JPG,AFNE01.JPG,AFNE01.JPG,AFNE01.JPG,AFNE01.JPG,,,,,,,,,,,,,,,,,,,,,1,6,16,6,,,AMSA12.jpg,AMNE09.jpg,AMNE02.jpg,AMSA14.jpg,AMNE02.jpg,MN,1,num_2,16,num_2,0.816796400351,,,2017_May_03_1640,60.004407249,FEMA4ImagesEEG,001,200243,
AFNE01.JPG,AFNE01.JPG,AFNE01.JPG,AFNE01.JPG,AFNE01.JPG,AFNE01.JPG,,,,,,,,,,,,,,,,,,,,,1,7,17,4,,,AMSA18.jpg,AMSA07.jpg,AMNE16.jpg,AMNE09.jpg,AMSA07.jpg,MS,2,num_6,16,num_6,0.700112483231,,,2017_May_03_1640,60.004407249,FEMA4ImagesEEG,001,200243,
AFNE01.JPG,AFNE01.JPG,AFNE01.JPG,AFNE01.JPG,AFNE01.JPG,AFNE01.JPG,,,,,,,,,,,,,,,,,,,,,1,8,18,2,,,AMSA07.jpg,AMNE04.jpg,AMSA03.jpg,AMNE07.jpg,AMNE04.jpg,MN,1,num_6,16,num_6,0.533471208299,,,2017_May_03_1640,60.004407249,FEMA4ImagesEEG,001,200243,
AFNE01.JPG,AFNE01.JPG,AFNE01.JPG,AFNE01.JPG,AFNE01.JPG,AFNE01.JPG,,,,,,,,,,,,,,,,,,,,,1,9,19,1,,,AMNE01.jpg,AMNE09.jpg,AMSA11.jpg,AMSA07.jpg,AMNE09.jpg,MN,1,num_6,32,num_8,0.733443368226,,,2017_May_03_1640,60.004407249,FEMA4ImagesEEG,001,200243,
AFNE01.JPG,AFNE01.JPG,AFNE01.JPG,AFNE01.JPG,AFNE01.JPG,AFNE01.JPG,,,,,,,,,,,,,,,,,,,,,2,0,20,9,,,AMSA17.jpg,AMSA05.jpg,AMNE18.jpg,AMNE15.jpg,AMSA05.jpg,MS,2,num_6,32,num_4,1.01674610842,,,2017_May_03_1640,60.004407249,FEMA4ImagesEEG,001,200243,
AFNE01.JPG,AFNE01.JPG,AFNE01.JPG,AFNE01.JPG,AFNE01.JPG,AFNE01.JPG,,,,,,,,,,,,,,,,,,,,,2,1,21,0,,,AMNE18.jpg,AMSA19.jpg,AMSA18.jpg,AMNE12.jpg,AMNE18.jpg,MN,1,num_8,16,num_8,0.633438204182,,,2017_May_03_1640,60.004407249,FEMA4ImagesEEG,001,200243,
AFNE01.JPG,AFNE01.JPG,AFNE01.JPG,AFNE01.JPG,AFNE01.JPG,AFNE01.JPG,,,,,,,,,,,,,,,,,,,,,2,2,22,4,,,AMNE11.jpg,AMNE14.jpg,AMSA13.jpg,AMSA02.jpg,AMSA02.jpg,MS,2,num_4,16,num_4,0.783436007099,,,2017_May_03_1640,60.004407249,FEMA4ImagesEEG,001,200243,
AFNE01.JPG,AFNE01.JPG,AFNE01.JPG,AFNE01.JPG,AFNE01.JPG,AFNE01.JPG,,,,,,,,,,,,,,,,,,,,,2,3,23,5,,,AMSA04.jpg,AMNE17.jpg,AMNE04.jpg,AMSA12.jpg,AMNE04.jpg,MN,1,num_2,32,num_8,1.0835041001,,,2017_May_03_1640,60.004407249,FEMA4ImagesEEG,001,200243,
AFNE01.JPG,AFNE01.JPG,AFNE01.JPG,AFNE01.JPG,AFNE01.JPG,AFNE01.JPG,,,,,,,,,,,,,,,,,,,,,2,4,24,6,,,AMNE03.jpg,AMSA19.jpg,AMSA12.jpg,AMNE08.jpg,AMSA12.jpg,MS,2,num_2,32,num_8,1.41672667162,,,2017_May_03_1640,60.004407249,FEMA4ImagesEEG,001,200243,
AFNE01.JPG,AFNE01.JPG,AFNE01.JPG,AFNE01.JPG,AFNE01.JPG,AFNE01.JPG,,,,,,,,,,,,,,,,,,,,,2,5,25,7,,,AMSA12.jpg,AMNE11.jpg,AMNE15.jpg,AMSA16.jpg,AMSA12.jpg,MS,2,num_8,16,num_8,0.749963355483,,,2017_May_03_1640,60.004407249,FEMA4ImagesEEG,001,200243,
AFNE01.JPG,AFNE01.JPG,AFNE01.JPG,AFNE01.JPG,AFNE01.JPG,AFNE01.JPG,,,,,,,,,,,,,,,,,,,,,2,6,26,2,,,AMNE06.jpg,AMSA09.jpg,AMSA04.jpg,AMNE09.jpg,AMSA04.jpg,MS,2,num_2,16,num_2,0.88332249783,,,2017_May_03_1640,60.004407249,FEMA4ImagesEEG,001,200243,
AFNE01.JPG,AFNE01.JPG,AFNE01.JPG,AFNE01.JPG,AFNE01.JPG,AFNE01.JPG,,,,,,,,,,,,,,,,,,,,,2,7,27,1,,,AMNE10.jpg,AMNE05.jpg,AMSA02.jpg,AMSA18.jpg,AMSA02.jpg,MS,2,num_2,32,num_4,0.933446639916,,,2017_May_03_1640,60.004407249,FEMA4ImagesEEG,001,200243,
AFNE01.JPG,AFNE01.JPG,AFNE01.JPG,AFNE01.JPG,AFNE01.JPG,AFNE01.JPG,,,,,,,,,,,,,,,,,,,,,2,8,28,3,,,AMSA09.jpg,AMNE11.jpg,AMSA06.jpg,AMNE14.jpg,AMSA06.jpg,MS,2,num_2,32,num_6,1.18340342026,,,2017_May_03_1640,60.004407249,FEMA4ImagesEEG,001,200243,
AFNE01.JPG,AFNE01.JPG,AFNE01.JPG,AFNE01.JPG,AFNE01.JPG,AFNE01.JPG,,,,,,,,,,,,,,,,,,,,,2,9,29,8,,,AMNE15.jpg,AMSA16.jpg,AMSA12.jpg,AMNE17.jpg,AMSA16.jpg,MS,2,num_6,16,num_6,0.650153842522,,,2017_May_03_1640,60.004407249,FEMA4ImagesEEG,001,200243,
AFNE01.JPG,AFNE01.JPG,AFNE01.JPG,AFNE01.JPG,AFNE01.JPG,AFNE01.JPG,,,,,,,,,,,,,,,,,,,,,3,0,30,0,,,AMSA06.jpg,AMNE01.jpg,AMNE06.jpg,AMSA07.jpg,AMNE01.jpg,MN,1,num_6,16,num_6,0.900319744833,,,2017_May_03_1640,60.004407249,FEMA4ImagesEEG,001,200243,
AFNE01.JPG,AFNE01.JPG,AFNE01.JPG,AFNE01.JPG,AFNE01.JPG,AFNE01.JPG,,,,,,,,,,,,,,,,,,,,,3,1,31,8,,,AMSA08.jpg,AMNE03.jpg,AMSA02.jpg,AMNE20.jpg,AMNE20.jpg,MN,1,num_4,32,num_2,0.683441106929,,,2017_May_03_1640,60.004407249,FEMA4ImagesEEG,001,200243,
AFNE01.JPG,AFNE01.JPG,AFNE01.JPG,AFNE01.JPG,AFNE01.JPG,AFNE01.JPG,,,,,,,,,,,,,,,,,,,,,3,2,32,9,,,AMNE07.jpg,AMSA12.jpg,AMNE03.jpg,AMSA07.jpg,AMNE07.jpg,MN,1,num_8,16,num_8,0.86675472022,,,2017_May_03_1640,60.004407249,FEMA4ImagesEEG,001,200243,
AFNE01.JPG,AFNE01.JPG,AFNE01.JPG,AFNE01.JPG,AFNE01.JPG,AFNE01.JPG,,,,,,,,,,,,,,,,,,,,,3,3,33,4,,,AMSA17.jpg,AMNE19.jpg,AMSA07.jpg,AMNE02.jpg,AMSA17.jpg,MS,2,num_8,32,num_2,1.0500622394,,,2017_May_03_1640,60.004407249,FEMA4ImagesEEG,001,200243,
AFNE01.JPG,AFNE01.JPG,AFNE01.JPG,AFNE01.JPG,AFNE01.JPG,AFNE01.JPG,,,,,,,,,,,,,,,,,,,,,3,4,34,3,,,AMNE08.jpg,AMNE02.jpg,AMSA18.jpg,AMSA06.jpg,AMNE08.jpg,MN,1,num_8,32,num_4,0.966744809411,,,2017_May_03_1640,60.004407249,FEMA4ImagesEEG,001,200243,
AFNE01.JPG,AFNE01.JPG,AFNE01.JPG,AFNE01.JPG,AFNE01.JPG,AFNE01.JPG,,,,,,,,,,,,,,,,,,,,,3,5,35,2,,,AMSA10.jpg,AMNE06.jpg,AMNE15.jpg,AMSA18.jpg,AMSA10.jpg,MS,2,num_8,32,num_4,0.683499160921,,,2017_May_03_1640,60.004407249,FEMA4ImagesEEG,001,200243,
AFNE01.JPG,AFNE01.JPG,AFNE01.JPG,AFNE01.JPG,AFNE01.JPG,AFNE01.JPG,,,,,,,,,,,,,,,,,,,,,3,6,36,1,,,AMNE16.jpg,AMNE14.jpg,AMSA17.jpg,AMSA07.jpg,AMSA07.jpg,MS,2,num_4,16,num_4,0.933437338332,,,2017_May_03_1640,60.004407249,FEMA4ImagesEEG,001,200243,
AFNE01.JPG,AFNE01.JPG,AFNE01.JPG,AFNE01.JPG,AFNE01.JPG,AFNE01.JPG,,,,,,,,,,,,,,,,,,,,,3,7,37,6,,,AMSA05.jpg,AMSA15.jpg,AMNE12.jpg,AMNE17.jpg,AMSA05.jpg,MS,2,num_8,32,num_2,1.01676856028,,,2017_May_03_1640,60.004407249,FEMA4ImagesEEG,001,200243,
AFNE01.JPG,AFNE01.JPG,AFNE01.JPG,AFNE01.JPG,AFNE01.JPG,AFNE01.JPG,,,,,,,,,,,,,,,,,,,,,3,8,38,5,,,AMSA15.jpg,AMNE20.jpg,AMNE09.jpg,AMSA02.jpg,AMNE09.jpg,MN,1,num_2,32,num_8,0.600135865156,,,2017_May_03_1640,60.004407249,FEMA4ImagesEEG,001,200243,
AFNE01.JPG,AFNE01.JPG,AFNE01.JPG,AFNE01.JPG,AFNE01.JPG,AFNE01.JPG,,,,,,,,,,,,,,,,,,,,,3,9,39,7,,,AMSA16.jpg,AMNE06.jpg,AMSA10.jpg,AMNE02.jpg,AMNE06.jpg,MN,1,num_6,16,num_6,0.716671921313,,,2017_May_03_1640,60.004407249,FEMA4ImagesEEG,001,200243,
AFNE01.JPG,AFNE01.JPG,AFNE01.JPG,AFNE01.JPG,AFNE01.JPG,AFNE01.JPG,,,,,,,,,,,,,,,,,,,,,4,0,40,6,,,AMNE19.jpg,AMSA03.jpg,AMNE14.jpg,AMSA08.jpg,AMNE19.jpg,MN,1,num_8,16,num_8,0.716781934956,,,2017_May_03_1640,60.004407249,FEMA4ImagesEEG,001,200243,
