IPosition2,IPosition3,IPosition1,IPosition6,IPosition4,IPosition5,TrialsF1.thisRepN,TrialsF1.thisTrialN,TrialsF1.thisN,TrialsF1.thisIndex,TrialsM1.thisRepN,TrialsM1.thisTrialN,TrialsM1.thisN,TrialsM1.thisIndex,TrialsF2.thisRepN,TrialsF2.thisTrialN,TrialsF2.thisN,TrialsF2.thisIndex,TrialsM2.thisRepN,TrialsM2.thisTrialN,TrialsM2.thisN,TrialsM2.thisIndex,TrialsF3.thisRepN,TrialsF3.thisTrialN,TrialsF3.thisN,TrialsF3.thisIndex,TrialsM3.thisRepN,TrialsM3.thisTrialN,TrialsM3.thisN,TrialsM3.thisIndex,InstrKey_resp.keys,InstrKey_resp.rt,Image0 _Position,Image1 _Position,Image2 _Position,Image3 _Position,Center_image,condition,code,correct_answer,accuracy,Key_Resp.keys,Key_Resp.rt,BreakKey_resp.keys,BreakKey_resp.rt,date,frameRate,expName,session,participant,
,,,,,,,,,,,,,,,,,,,,,,,,,,,,,,space,4.54996746102,,,,,,,,,,,,,,2017_Apr_18_1630,60.0137628658,FEMA4ImagesEEG,001,200200,
AFSA25.JPG,AFNE24.JPG,AFSA24.JPG,AFNE21.JPG,AFSA21.JPG,AFNE25.JPG,0,0,0,2,,,,,,,,,,,,,,,,,,,,,,,AFNE05.jpg,AFSA18.jpg,AFSA10.jpg,AFNE12.jpg,AFNE05.jpg,FN,3,num_8,32,num_4,0.816804418748,,,2017_Apr_18_1630,60.0137628658,FEMA4ImagesEEG,001,200200,
AMNE23.JPG,AMNE24.JPG,AMNE22.JPG,AMSA24.JPG,AMSA22.JPG,AMSA23.JPG,0,1,1,9,,,,,,,,,,,,,,,,,,,,,,,AFNE10.jpg,AFSA05.jpg,AFSA02.jpg,AFNE04.jpg,AFNE04.jpg,FN,3,num_4,16,num_4,0.550534848473,,,2017_Apr_18_1630,60.0137628658,FEMA4ImagesEEG,001,200200,
AMSA21.JPG,AMNE23.JPG,AMNE21.JPG,AMSA25.JPG,AMNE25.JPG,AMSA23.JPG,0,2,2,5,,,,,,,,,,,,,,,,,,,,,,,AFNE01.jpg,AFNE09.jpg,AFSA02.jpg,AFSA18.jpg,AFSA02.jpg,FS,4,num_2,16,num_2,0.900250785882,,,2017_Apr_18_1630,60.0137628658,FEMA4ImagesEEG,001,200200,
AMSA21.JPG,AMNE22.JPG,AMNE21.JPG,AMSA23.JPG,AMSA22.JPG,AMNE23.JPG,0,3,3,1,,,,,,,,,,,,,,,,,,,,,,,AFNE17.jpg,AFNE16.jpg,AFSA18.jpg,AFSA14.jpg,AFSA18.jpg,FS,4,num_2,16,num_2,0.700139746012,,,2017_Apr_18_1630,60.0137628658,FEMA4ImagesEEG,001,200200,
AFNE23.JPG,AFNE24.JPG,AFNE22.JPG,AFSA24.JPG,AFSA22.JPG,AFSA23.JPG,0,4,4,8,,,,,,,,,,,,,,,,,,,,,,,AFSA03.jpg,AFSA14.jpg,AFNE12.jpg,AFNE19.jpg,AFSA14.jpg,FS,4,num_6,32,num_8,0.850144605225,,,2017_Apr_18_1630,60.0137628658,FEMA4ImagesEEG,001,200200,
AFSA21.JPG,AFNE22.JPG,AFNE21.JPG,AFSA23.JPG,AFSA22.JPG,AFNE23.JPG,0,5,5,0,,,,,,,,,,,,,,,,,,,,,,,AFSA05.jpg,AFNE12.jpg,AFNE04.jpg,AFSA03.jpg,AFSA05.jpg,FS,4,num_8,16,num_8,0.833452060251,,,2017_Apr_18_1630,60.0137628658,FEMA4ImagesEEG,001,200200,
AMSA25.JPG,AMNE24.JPG,AMSA24.JPG,AMNE26.JPG,AMSA21.JPG,AMNE25.JPG,0,6,6,3,,,,,,,,,,,,,,,,,,,,,,,AFSA12.jpg,AFNE09.jpg,AFNE03.jpg,AFSA14.jpg,AFNE03.jpg,FN,3,num_2,32,num_6,1.05011612359,,,2017_Apr_18_1630,60.0137628658,FEMA4ImagesEEG,001,200200,
AFNE22.JPG,AFSA24.JPG,AFSA22.JPG,AFNE25.JPG,AFNE24.JPG,AFSA25.JPG,0,7,7,6,,,,,,,,,,,,,,,,,,,,,,,AFNE10.jpg,AFNE14.jpg,AFSA06.jpg,AFSA15.jpg,AFNE14.jpg,FN,3,num_6,32,num_4,1.4501008564,,,2017_Apr_18_1630,60.0137628658,FEMA4ImagesEEG,001,200200,
AMNE22.JPG,AMSA24.JPG,AMSA22.JPG,AMNE25.JPG,AMNE24.JPG,AMSA25.JPG,0,8,8,7,,,,,,,,,,,,,,,,,,,,,,,AFNE13.jpg,AFSA13.jpg,AFNE05.jpg,AFSA17.jpg,AFNE05.jpg,FN,3,num_2,16,num_2,0.666815596502,,,2017_Apr_18_1630,60.0137628658,FEMA4ImagesEEG,001,200200,
AFSA21.JPG,AFNE23.JPG,AFNE21.JPG,AFSA25.JPG,AFNE25.JPG,AFSA23.JPG,0,9,9,4,,,,,,,,,,,,,,,,,,,,,,,AFNE09.jpg,AFNE11.jpg,AFSA17.jpg,AFSA13.jpg,AFNE09.jpg,FN,3,num_8,16,num_8,0.716502250463,,,2017_Apr_18_1630,60.0137628658,FEMA4ImagesEEG,001,200200,
AFSA21.JPG,AFNE22.JPG,AFNE21.JPG,AFSA23.JPG,AFSA22.JPG,AFNE23.JPG,,,,,0,0,0,0,,,,,,,,,,,,,,,,,,,AMNE14.jpg,AMSA16.jpg,AMNE17.jpg,AMSA20.jpg,AMSA16.jpg,MS,2,num_6,16,num_6,1.31675422309,,,2017_Apr_18_1630,60.0137628658,FEMA4ImagesEEG,001,200200,
AMSA21.JPG,AMNE23.JPG,AMNE21.JPG,AMSA25.JPG,AMNE25.JPG,AMSA23.JPG,,,,,0,1,1,5,,,,,,,,,,,,,,,,,,,AMNE02.jpg,AMNE06.jpg,AMSA02.jpg,AMSA13.jpg,AMSA02.jpg,MS,2,num_2,16,num_2,0.550227901156,,,2017_Apr_18_1630,60.0137628658,FEMA4ImagesEEG,001,200200,
AMNE22.JPG,AMSA24.JPG,AMSA22.JPG,AMNE25.JPG,AMNE24.JPG,AMSA25.JPG,,,,,0,2,2,7,,,,,,,,,,,,,,,,,,,AMSA20.jpg,AMNE19.jpg,AMSA02.jpg,AMNE08.jpg,AMNE08.jpg,MN,1,num_4,16,num_4,0.583459357076,,,2017_Apr_18_1630,60.0137628658,FEMA4ImagesEEG,001,200200,
AMSA25.JPG,AMNE24.JPG,AMSA24.JPG,AMNE26.JPG,AMSA21.JPG,AMNE25.JPG,,,,,0,3,3,3,,,,,,,,,,,,,,,,,,,AMNE03.jpg,AMNE01.jpg,AMSA12.jpg,AMSA01.jpg,AMSA01.jpg,MS,2,num_4,16,num_4,0.600151260558,,,2017_Apr_18_1630,60.0137628658,FEMA4ImagesEEG,001,200200,
AFSA21.JPG,AFNE23.JPG,AFNE21.JPG,AFSA25.JPG,AFNE25.JPG,AFSA23.JPG,,,,,0,4,4,4,,,,,,,,,,,,,,,,,,,AMSA03.jpg,AMSA19.jpg,AMNE03.jpg,AMNE01.jpg,AMSA19.jpg,MS,2,num_6,32,num_4,1.41674142559,,,2017_Apr_18_1630,60.0137628658,FEMA4ImagesEEG,001,200200,
AMNE23.JPG,AMNE24.JPG,AMNE22.JPG,AMSA24.JPG,AMSA22.JPG,AMSA23.JPG,,,,,0,5,5,9,,,,,,,,,,,,,,,,,,,AMSA09.jpg,AMSA14.jpg,AMNE10.jpg,AMNE04.jpg,AMNE10.jpg,MN,1,num_2,16,num_2,0.566787339398,,,2017_Apr_18_1630,60.0137628658,FEMA4ImagesEEG,001,200200,
AFNE23.JPG,AFNE24.JPG,AFNE22.JPG,AFSA24.JPG,AFSA22.JPG,AFSA23.JPG,,,,,0,6,6,8,,,,,,,,,,,,,,,,,,,AMNE20.jpg,AMNE03.jpg,AMSA06.jpg,AMSA17.jpg,AMSA06.jpg,MS,2,num_2,32,num_6,1.45005050037,,,2017_Apr_18_1630,60.0137628658,FEMA4ImagesEEG,001,200200,
AFSA25.JPG,AFNE24.JPG,AFSA24.JPG,AFNE21.JPG,AFSA21.JPG,AFNE25.JPG,,,,,0,7,7,2,,,,,,,,,,,,,,,,,,,AMSA12.jpg,AMNE01.jpg,AMSA05.jpg,AMNE09.jpg,AMNE09.jpg,MN,1,num_4,16,num_4,0.500168227649,,,2017_Apr_18_1630,60.0137628658,FEMA4ImagesEEG,001,200200,
AFNE22.JPG,AFSA24.JPG,AFSA22.JPG,AFNE25.JPG,AFNE24.JPG,AFSA25.JPG,,,,,0,8,8,6,,,,,,,,,,,,,,,,,,,AMSA15.jpg,AMNE06.jpg,AMSA16.jpg,AMNE01.jpg,AMNE01.jpg,MN,1,num_4,16,num_4,0.53329383966,,,2017_Apr_18_1630,60.0137628658,FEMA4ImagesEEG,001,200200,
AMSA21.JPG,AMNE22.JPG,AMNE21.JPG,AMSA23.JPG,AMSA22.JPG,AMNE23.JPG,,,,,0,9,9,1,,,,,,,,,,,,,,,,,,,AMSA12.jpg,AMSA03.jpg,AMNE08.jpg,AMNE17.jpg,AMSA03.jpg,MS,2,num_6,16,num_6,0.86685254566,,,2017_Apr_18_1630,60.0137628658,FEMA4ImagesEEG,001,200200,
AFNE22.JPG,AFSA24.JPG,AFSA22.JPG,AFNE25.JPG,AFNE24.JPG,AFSA25.JPG,,,,,,,,,0,0,0,6,,,,,,,,,,,,,,,AFSA08.jpg,AFNE19.jpg,AFSA17.jpg,AFNE17.jpg,AFSA17.jpg,FS,4,num_2,16,num_2,0.750127573978,,,2017_Apr_18_1630,60.0137628658,FEMA4ImagesEEG,001,200200,
AMNE22.JPG,AMSA24.JPG,AMSA22.JPG,AMNE25.JPG,AMNE24.JPG,AMSA25.JPG,,,,,,,,,0,1,1,7,,,,,,,,,,,,,,,AFSA02.jpg,AFNE13.jpg,AFSA06.jpg,AFNE05.jpg,AFNE05.jpg,FN,3,num_4,16,num_4,0.966758601178,,,2017_Apr_18_1630,60.0137628658,FEMA4ImagesEEG,001,200200,
AFNE23.JPG,AFNE24.JPG,AFNE22.JPG,AFSA24.JPG,AFSA22.JPG,AFSA23.JPG,,,,,,,,,0,2,2,8,,,,,,,,,,,,,,,AFNE08.jpg,AFNE01.jpg,AFSA10.jpg,AFSA05.jpg,AFSA05.jpg,FS,4,num_4,32,num_6,1.10016553344,,,2017_Apr_18_1630,60.0137628658,FEMA4ImagesEEG,001,200200,
AFSA21.JPG,AFNE23.JPG,AFNE21.JPG,AFSA25.JPG,AFNE25.JPG,AFSA23.JPG,,,,,,,,,0,3,3,4,,,,,,,,,,,,,,,AFNE07.jpg,AFSA18.jpg,AFSA20.jpg,AFNE02.jpg,AFSA18.jpg,FS,4,num_6,32,num_2,0.950136298081,,,2017_Apr_18_1630,60.0137628658,FEMA4ImagesEEG,001,200200,
AMSA21.JPG,AMNE22.JPG,AMNE21.JPG,AMSA23.JPG,AMSA22.JPG,AMNE23.JPG,,,,,,,,,0,4,4,1,,,,,,,,,,,,,,,AFNE09.jpg,AFNE19.jpg,AFSA13.jpg,AFSA16.jpg,AFSA13.jpg,FS,4,num_2,16,num_2,1.0502229297,,,2017_Apr_18_1630,60.0137628658,FEMA4ImagesEEG,001,200200,
AFSA21.JPG,AFNE22.JPG,AFNE21.JPG,AFSA23.JPG,AFSA22.JPG,AFNE23.JPG,,,,,,,,,0,5,5,0,,,,,,,,,,,,,,,AFNE18.jpg,AFSA04.jpg,AFSA11.jpg,AFNE16.jpg,AFSA04.jpg,FS,4,num_6,32,num_2,2.48333968931,,,2017_Apr_18_1630,60.0137628658,FEMA4ImagesEEG,001,200200,
AMSA21.JPG,AMNE23.JPG,AMNE21.JPG,AMSA25.JPG,AMNE25.JPG,AMSA23.JPG,,,,,,,,,0,6,6,5,,,,,,,,,,,,,,,AFNE18.jpg,AFNE01.jpg,AFSA16.jpg,AFSA20.jpg,AFSA20.jpg,FS,4,num_4,16,num_4,0.68347350166,,,2017_Apr_18_1630,60.0137628658,FEMA4ImagesEEG,001,200200,
AMSA25.JPG,AMNE24.JPG,AMSA24.JPG,AMNE26.JPG,AMSA21.JPG,AMNE25.JPG,,,,,,,,,0,7,7,3,,,,,,,,,,,,,,,AFSA14.jpg,AFNE13.jpg,AFSA17.jpg,AFNE01.jpg,AFSA14.jpg,FS,4,num_8,32,num_2,2.26678146988,,,2017_Apr_18_1630,60.0137628658,FEMA4ImagesEEG,001,200200,
AMNE23.JPG,AMNE24.JPG,AMNE22.JPG,AMSA24.JPG,AMSA22.JPG,AMSA23.JPG,,,,,,,,,0,8,8,9,,,,,,,,,,,,,,,AFSA05.jpg,AFSA09.jpg,AFNE06.jpg,AFNE02.jpg,AFSA09.jpg,FS,4,num_6,32,num_8,1.0668558172,,,2017_Apr_18_1630,60.0137628658,FEMA4ImagesEEG,001,200200,
AFSA25.JPG,AFNE24.JPG,AFSA24.JPG,AFNE21.JPG,AFSA21.JPG,AFNE25.JPG,,,,,,,,,0,9,9,2,,,,,,,,,,,,,,,AFSA20.jpg,AFSA14.jpg,AFNE17.jpg,AFNE05.jpg,AFNE05.jpg,FN,3,num_4,16,num_4,0.650000849957,,,2017_Apr_18_1630,60.0137628658,FEMA4ImagesEEG,001,200200,
AMNE23.JPG,AMNE24.JPG,AMNE22.JPG,AMSA24.JPG,AMSA22.JPG,AMSA23.JPG,,,,,,,,,,,,,0,0,0,9,,,,,,,,,,,AMNE08.jpg,AMSA17.jpg,AMSA07.jpg,AMNE06.jpg,AMNE06.jpg,MN,1,num_4,16,num_4,0.983493804451,,,2017_Apr_18_1630,60.0137628658,FEMA4ImagesEEG,001,200200,
AFNE23.JPG,AFNE24.JPG,AFNE22.JPG,AFSA24.JPG,AFSA22.JPG,AFSA23.JPG,,,,,,,,,,,,,0,1,1,8,,,,,,,,,,,AMSA11.jpg,AMNE07.jpg,AMNE06.jpg,AMSA10.jpg,AMSA11.jpg,MS,2,num_8,32,num_4,0.833475153457,,,2017_Apr_18_1630,60.0137628658,FEMA4ImagesEEG,001,200200,
AMSA21.JPG,AMNE23.JPG,AMNE21.JPG,AMSA25.JPG,AMNE25.JPG,AMSA23.JPG,,,,,,,,,,,,,0,2,2,5,,,,,,,,,,,AMSA07.jpg,AMNE09.jpg,AMNE01.jpg,AMSA06.jpg,AMNE09.jpg,MN,1,num_6,16,num_6,0.950144637289,,,2017_Apr_18_1630,60.0137628658,FEMA4ImagesEEG,001,200200,
AMNE22.JPG,AMSA24.JPG,AMSA22.JPG,AMNE25.JPG,AMNE24.JPG,AMSA25.JPG,,,,,,,,,,,,,0,3,3,7,,,,,,,,,,,AMNE13.jpg,AMNE18.jpg,AMSA05.jpg,AMSA01.jpg,AMSA05.jpg,MS,2,num_2,16,num_2,1.0667384267,,,2017_Apr_18_1630,60.0137628658,FEMA4ImagesEEG,001,200200,
AFSA21.JPG,AFNE23.JPG,AFNE21.JPG,AFSA25.JPG,AFNE25.JPG,AFSA23.JPG,,,,,,,,,,,,,0,4,4,4,,,,,,,,,,,AMNE15.jpg,AMSA07.jpg,AMSA06.jpg,AMNE07.jpg,AMSA06.jpg,MS,2,num_2,32,num_6,0.900118320656,,,2017_Apr_18_1630,60.0137628658,FEMA4ImagesEEG,001,200200,
AFSA21.JPG,AFNE22.JPG,AFNE21.JPG,AFSA23.JPG,AFSA22.JPG,AFNE23.JPG,,,,,,,,,,,,,0,5,5,0,,,,,,,,,,,AMNE07.jpg,AMSA15.jpg,AMNE09.jpg,AMSA14.jpg,AMNE07.jpg,MN,1,num_8,16,num_8,0.61682905152,,,2017_Apr_18_1630,60.0137628658,FEMA4ImagesEEG,001,200200,
AFNE22.JPG,AFSA24.JPG,AFSA22.JPG,AFNE25.JPG,AFNE24.JPG,AFSA25.JPG,,,,,,,,,,,,,0,6,6,6,,,,,,,,,,,AMNE06.jpg,AMSA11.jpg,AMSA03.jpg,AMNE02.jpg,AMSA11.jpg,MS,2,num_6,16,num_6,1.15007894993,,,2017_Apr_18_1630,60.0137628658,FEMA4ImagesEEG,001,200200,
AMSA25.JPG,AMNE24.JPG,AMSA24.JPG,AMNE26.JPG,AMSA21.JPG,AMNE25.JPG,,,,,,,,,,,,,0,7,7,3,,,,,,,,,,,AMNE01.jpg,AMSA05.jpg,AMNE09.jpg,AMSA09.jpg,AMSA05.jpg,MS,2,num_6,16,num_6,0.899958913331,,,2017_Apr_18_1630,60.0137628658,FEMA4ImagesEEG,001,200200,
AMSA21.JPG,AMNE22.JPG,AMNE21.JPG,AMSA23.JPG,AMSA22.JPG,AMNE23.JPG,,,,,,,,,,,,,0,8,8,1,,,,,,,,,,,AMSA18.jpg,AMSA19.jpg,AMNE16.jpg,AMNE19.jpg,AMSA18.jpg,MS,2,num_8,16,num_8,1.08343738643,,,2017_Apr_18_1630,60.0137628658,FEMA4ImagesEEG,001,200200,
AFSA25.JPG,AFNE24.JPG,AFSA24.JPG,AFNE21.JPG,AFSA21.JPG,AFNE25.JPG,,,,,,,,,,,,,0,9,9,2,,,,,,,,,,,AMNE10.jpg,AMSA15.jpg,AMNE07.jpg,AMSA12.jpg,AMSA15.jpg,MS,2,num_6,32,num_2,1.00016614285,,,2017_Apr_18_1630,60.0137628658,FEMA4ImagesEEG,001,200200,
AMSA21.JPG,AMNE23.JPG,AMNE21.JPG,AMSA25.JPG,AMNE25.JPG,AMSA23.JPG,,,,,,,,,,,,,,,,,0,0,0,5,,,,,,,AFNE01.jpg,AFNE18.jpg,AFSA20.jpg,AFSA07.jpg,AFNE18.jpg,FN,3,num_6,16,num_6,0.850097777322,,,2017_Apr_18_1630,60.0137628658,FEMA4ImagesEEG,001,200200,
AMSA21.JPG,AMNE22.JPG,AMNE21.JPG,AMSA23.JPG,AMSA22.JPG,AMNE23.JPG,,,,,,,,,,,,,,,,,0,1,1,1,,,,,,,AFNE13.jpg,AFNE15.jpg,AFSA16.jpg,AFSA18.jpg,AFNE13.jpg,FN,3,num_8,32,num_4,0.916730360099,,,2017_Apr_18_1630,60.0137628658,FEMA4ImagesEEG,001,200200,
AFNE22.JPG,AFSA24.JPG,AFSA22.JPG,AFNE25.JPG,AFNE24.JPG,AFSA25.JPG,,,,,,,,,,,,,,,,,0,2,2,6,,,,,,,AFSA12.jpg,AFNE10.jpg,AFNE15.jpg,AFSA13.jpg,AFSA13.jpg,FS,4,num_4,32,num_2,0.900116396209,,,2017_Apr_18_1630,60.0137628658,FEMA4ImagesEEG,001,200200,
AFSA21.JPG,AFNE23.JPG,AFNE21.JPG,AFSA25.JPG,AFNE25.JPG,AFSA23.JPG,,,,,,,,,,,,,,,,,0,3,3,4,,,,,,,AFNE03.jpg,AFSA11.jpg,AFSA05.jpg,AFNE01.jpg,AFSA11.jpg,FS,4,num_6,32,num_2,0.916782961314,,,2017_Apr_18_1630,60.0137628658,FEMA4ImagesEEG,001,200200,
AFSA25.JPG,AFNE24.JPG,AFSA24.JPG,AFNE21.JPG,AFSA21.JPG,AFNE25.JPG,,,,,,,,,,,,,,,,,0,4,4,2,,,,,,,AFNE01.jpg,AFNE20.jpg,AFSA04.jpg,AFSA01.jpg,AFNE01.jpg,FN,3,num_8,32,num_6,0.633469636756,,,2017_Apr_18_1630,60.0137628658,FEMA4ImagesEEG,001,200200,
AMSA25.JPG,AMNE24.JPG,AMSA24.JPG,AMNE26.JPG,AMSA21.JPG,AMNE25.JPG,,,,,,,,,,,,,,,,,0,5,5,3,,,,,,,AFSA08.jpg,AFNE08.jpg,AFSA13.jpg,AFNE09.jpg,AFNE08.jpg,FN,3,num_6,16,num_6,1.00015491698,,,2017_Apr_18_1630,60.0137628658,FEMA4ImagesEEG,001,200200,
AMNE23.JPG,AMNE24.JPG,AMNE22.JPG,AMSA24.JPG,AMSA22.JPG,AMSA23.JPG,,,,,,,,,,,,,,,,,0,6,6,9,,,,,,,AFSA09.jpg,AFSA01.jpg,AFNE15.jpg,AFNE13.jpg,AFSA01.jpg,FS,4,num_6,32,num_4,0.583488865057,,,2017_Apr_18_1630,60.0137628658,FEMA4ImagesEEG,001,200200,
AMNE22.JPG,AMSA24.JPG,AMSA22.JPG,AMNE25.JPG,AMNE24.JPG,AMSA25.JPG,,,,,,,,,,,,,,,,,0,7,7,7,,,,,,,AFSA04.jpg,AFNE03.jpg,AFNE05.jpg,AFSA18.jpg,AFSA04.jpg,FS,4,num_8,16,num_8,0.583491751706,,,2017_Apr_18_1630,60.0137628658,FEMA4ImagesEEG,001,200200,
AFSA21.JPG,AFNE22.JPG,AFNE21.JPG,AFSA23.JPG,AFSA22.JPG,AFNE23.JPG,,,,,,,,,,,,,,,,,0,8,8,0,,,,,,,AFSA02.jpg,AFSA04.jpg,AFNE11.jpg,AFNE05.jpg,AFNE05.jpg,FN,3,num_4,16,num_4,1.01674322173,,,2017_Apr_18_1630,60.0137628658,FEMA4ImagesEEG,001,200200,
AFNE23.JPG,AFNE24.JPG,AFNE22.JPG,AFSA24.JPG,AFSA22.JPG,AFSA23.JPG,,,,,,,,,,,,,,,,,0,9,9,8,,,,,,,AFNE12.jpg,AFNE20.jpg,AFSA09.jpg,AFSA11.jpg,AFSA11.jpg,FS,4,num_4,16,num_4,0.750184344797,,,2017_Apr_18_1630,60.0137628658,FEMA4ImagesEEG,001,200200,
AMSA25.JPG,AMNE24.JPG,AMSA24.JPG,AMNE26.JPG,AMSA21.JPG,AMNE25.JPG,,,,,,,,,,,,,,,,,,,,,0,0,0,3,,,AMSA19.jpg,AMSA07.jpg,AMNE19.jpg,AMNE06.jpg,AMSA19.jpg,MS,2,num_8,16,num_8,0.583447489713,,,2017_Apr_18_1630,60.0137628658,FEMA4ImagesEEG,001,200200,
AMSA21.JPG,AMNE23.JPG,AMNE21.JPG,AMSA25.JPG,AMNE25.JPG,AMSA23.JPG,,,,,,,,,,,,,,,,,,,,,0,1,1,5,,,AMSA16.jpg,AMNE15.jpg,AMNE11.jpg,AMSA03.jpg,AMSA03.jpg,MS,2,num_4,16,num_4,0.50015764327,,,2017_Apr_18_1630,60.0137628658,FEMA4ImagesEEG,001,200200,
AMNE22.JPG,AMSA24.JPG,AMSA22.JPG,AMNE25.JPG,AMNE24.JPG,AMSA25.JPG,,,,,,,,,,,,,,,,,,,,,0,2,2,7,,,AMSA19.jpg,AMNE20.jpg,AMSA02.jpg,AMNE04.jpg,AMSA02.jpg,MS,2,num_2,16,num_2,0.800114439713,,,2017_Apr_18_1630,60.0137628658,FEMA4ImagesEEG,001,200200,
AMSA21.JPG,AMNE22.JPG,AMNE21.JPG,AMSA23.JPG,AMSA22.JPG,AMNE23.JPG,,,,,,,,,,,,,,,,,,,,,0,3,3,1,,,AMNE19.jpg,AMSA10.jpg,AMNE06.jpg,AMSA04.jpg,AMSA10.jpg,MS,2,num_6,16,num_6,1.16673172325,,,2017_Apr_18_1630,60.0137628658,FEMA4ImagesEEG,001,200200,
AFSA21.JPG,AFNE23.JPG,AFNE21.JPG,AFSA25.JPG,AFNE25.JPG,AFSA23.JPG,,,,,,,,,,,,,,,,,,,,,0,4,4,4,,,AMNE10.jpg,AMSA07.jpg,AMSA15.jpg,AMNE08.jpg,AMNE08.jpg,MN,1,num_4,32,num_2,0.916461580739,,,2017_Apr_18_1630,60.0137628658,FEMA4ImagesEEG,001,200200,
AFSA25.JPG,AFNE24.JPG,AFSA24.JPG,AFNE21.JPG,AFSA21.JPG,AFNE25.JPG,,,,,,,,,,,,,,,,,,,,,0,5,5,2,,,AMSA05.jpg,AMNE18.jpg,AMNE05.jpg,AMSA16.jpg,AMSA05.jpg,MS,2,num_8,16,num_8,0.883464905855,,,2017_Apr_18_1630,60.0137628658,FEMA4ImagesEEG,001,200200,
AMNE23.JPG,AMNE24.JPG,AMNE22.JPG,AMSA24.JPG,AMSA22.JPG,AMSA23.JPG,,,,,,,,,,,,,,,,,,,,,0,6,6,9,,,AMNE17.jpg,AMNE03.jpg,AMSA13.jpg,AMSA04.jpg,AMSA04.jpg,MS,2,num_4,16,num_4,0.600163448646,,,2017_Apr_18_1630,60.0137628658,FEMA4ImagesEEG,001,200200,
AFNE23.JPG,AFNE24.JPG,AFNE22.JPG,AFSA24.JPG,AFSA22.JPG,AFSA23.JPG,,,,,,,,,,,,,,,,,,,,,0,7,7,8,,,AMSA02.jpg,AMSA19.jpg,AMNE04.jpg,AMNE17.jpg,AMNE04.jpg,MN,1,num_2,16,num_2,1.30008220542,,,2017_Apr_18_1630,60.0137628658,FEMA4ImagesEEG,001,200200,
AFNE22.JPG,AFSA24.JPG,AFSA22.JPG,AFNE25.JPG,AFNE24.JPG,AFSA25.JPG,,,,,,,,,,,,,,,,,,,,,0,8,8,6,,,AMNE06.jpg,AMNE03.jpg,AMSA11.jpg,AMSA17.jpg,AMSA17.jpg,MS,2,num_4,16,num_4,0.566808508185,,,2017_Apr_18_1630,60.0137628658,FEMA4ImagesEEG,001,200200,
AFSA21.JPG,AFNE22.JPG,AFNE21.JPG,AFSA23.JPG,AFSA22.JPG,AFNE23.JPG,,,,,,,,,,,,,,,,,,,,,0,9,9,0,,,AMSA16.jpg,AMNE12.jpg,AMSA18.jpg,AMNE17.jpg,AMNE17.jpg,MN,1,num_4,16,num_4,0.633619421904,,,2017_Apr_18_1630,60.0137628658,FEMA4ImagesEEG,001,200200,
,,,,,,,,,,,,,,,,,,,,,,,,,,,,,,,,,,,,,,,,,,,space,3.46657305361,2017_Apr_18_1630,60.0137628658,FEMA4ImagesEEG,001,200200,
AFNE01.JPG,AFNE01.JPG,AFNE01.JPG,AFNE01.JPG,AFNE01.JPG,AFNE01.JPG,0,0,0,5,,,,,,,,,,,,,,,,,,,,,,,AFNE01.jpg,AFNE07.jpg,AFSA01.jpg,AFSA15.jpg,AFNE01.jpg,FN,3,num_8,16,num_8,0.583619726604,,,2017_Apr_18_1630,60.0137628658,FEMA4ImagesEEG,001,200200,
AFNE01.JPG,AFNE01.JPG,AFNE01.JPG,AFNE01.JPG,AFNE01.JPG,AFNE01.JPG,0,1,1,7,,,,,,,,,,,,,,,,,,,,,,,AFSA02.jpg,AFNE07.jpg,AFSA13.jpg,AFNE16.jpg,AFSA13.jpg,FS,4,num_2,16,num_2,0.883489602769,,,2017_Apr_18_1630,60.0137628658,FEMA4ImagesEEG,001,200200,
AFNE01.JPG,AFNE01.JPG,AFNE01.JPG,AFNE01.JPG,AFNE01.JPG,AFNE01.JPG,0,2,2,4,,,,,,,,,,,,,,,,,,,,,,,AFSA19.jpg,AFSA17.jpg,AFNE02.jpg,AFNE16.jpg,AFSA17.jpg,FS,4,num_6,16,num_6,0.61645699419,,,2017_Apr_18_1630,60.0137628658,FEMA4ImagesEEG,001,200200,
AFNE01.JPG,AFNE01.JPG,AFNE01.JPG,AFNE01.JPG,AFNE01.JPG,AFNE01.JPG,0,3,3,6,,,,,,,,,,,,,,,,,,,,,,,AFSA19.jpg,AFNE15.jpg,AFSA03.jpg,AFNE02.jpg,AFSA03.jpg,FS,4,num_2,16,num_2,1.18344287107,,,2017_Apr_18_1630,60.0137628658,FEMA4ImagesEEG,001,200200,
AFNE01.JPG,AFNE01.JPG,AFNE01.JPG,AFNE01.JPG,AFNE01.JPG,AFNE01.JPG,0,4,4,8,,,,,,,,,,,,,,,,,,,,,,,AFNE02.jpg,AFSA07.jpg,AFNE17.jpg,AFSA12.jpg,AFNE17.jpg,FN,3,num_2,32,num_4,1.51675268354,,,2017_Apr_18_1630,60.0137628658,FEMA4ImagesEEG,001,200200,
AFNE01.JPG,AFNE01.JPG,AFNE01.JPG,AFNE01.JPG,AFNE01.JPG,AFNE01.JPG,0,5,5,9,,,,,,,,,,,,,,,,,,,,,,,AFSA10.jpg,AFNE01.jpg,AFNE16.jpg,AFSA15.jpg,AFSA15.jpg,FS,4,num_4,16,num_4,1.16677694744,,,2017_Apr_18_1630,60.0137628658,FEMA4ImagesEEG,001,200200,
AFNE01.JPG,AFNE01.JPG,AFNE01.JPG,AFNE01.JPG,AFNE01.JPG,AFNE01.JPG,0,6,6,2,,,,,,,,,,,,,,,,,,,,,,,AFSA20.jpg,AFNE01.jpg,AFNE04.jpg,AFSA09.jpg,AFSA09.jpg,FS,4,num_4,32,num_6,1.36661471763,,,2017_Apr_18_1630,60.0137628658,FEMA4ImagesEEG,001,200200,
AFNE01.JPG,AFNE01.JPG,AFNE01.JPG,AFNE01.JPG,AFNE01.JPG,AFNE01.JPG,0,7,7,0,,,,,,,,,,,,,,,,,,,,,,,AFNE02.jpg,AFSA02.jpg,AFNE12.jpg,AFSA18.jpg,AFNE12.jpg,FN,3,num_2,16,num_2,1.10013217658,,,2017_Apr_18_1630,60.0137628658,FEMA4ImagesEEG,001,200200,
AFNE01.JPG,AFNE01.JPG,AFNE01.JPG,AFNE01.JPG,AFNE01.JPG,AFNE01.JPG,0,8,8,1,,,,,,,,,,,,,,,,,,,,,,,AFNE02.jpg,AFSA11.jpg,AFNE10.jpg,AFSA17.jpg,AFSA11.jpg,FS,4,num_6,16,num_6,1.38338808884,,,2017_Apr_18_1630,60.0137628658,FEMA4ImagesEEG,001,200200,
AFNE01.JPG,AFNE01.JPG,AFNE01.JPG,AFNE01.JPG,AFNE01.JPG,AFNE01.JPG,0,9,9,3,,,,,,,,,,,,,,,,,,,,,,,AFSA10.jpg,AFNE09.jpg,AFSA20.jpg,AFNE04.jpg,AFSA10.jpg,FS,4,num_8,16,num_8,1.00012669193,,,2017_Apr_18_1630,60.0137628658,FEMA4ImagesEEG,001,200200,
AFNE01.JPG,AFNE01.JPG,AFNE01.JPG,AFNE01.JPG,AFNE01.JPG,AFNE01.JPG,1,0,10,2,,,,,,,,,,,,,,,,,,,,,,,AFNE06.jpg,AFSA06.jpg,AFNE18.jpg,AFSA11.jpg,AFNE18.jpg,FN,3,num_2,16,num_2,1.05012253836,,,2017_Apr_18_1630,60.0137628658,FEMA4ImagesEEG,001,200200,
AFNE01.JPG,AFNE01.JPG,AFNE01.JPG,AFNE01.JPG,AFNE01.JPG,AFNE01.JPG,1,1,11,6,,,,,,,,,,,,,,,,,,,,,,,AFNE02.jpg,AFSA12.jpg,AFSA07.jpg,AFNE03.jpg,AFSA12.jpg,FS,4,num_6,16,num_6,1.21672019268,,,2017_Apr_18_1630,60.0137628658,FEMA4ImagesEEG,001,200200,
AFNE01.JPG,AFNE01.JPG,AFNE01.JPG,AFNE01.JPG,AFNE01.JPG,AFNE01.JPG,1,2,12,0,,,,,,,,,,,,,,,,,,,,,,,AFSA08.jpg,AFNE03.jpg,AFSA02.jpg,AFNE01.jpg,AFNE01.jpg,FN,3,num_4,32,num_2,1.08344251825,,,2017_Apr_18_1630,60.0137628658,FEMA4ImagesEEG,001,200200,
AFNE01.JPG,AFNE01.JPG,AFNE01.JPG,AFNE01.JPG,AFNE01.JPG,AFNE01.JPG,1,3,13,5,,,,,,,,,,,,,,,,,,,,,,,AFNE14.jpg,AFNE02.jpg,AFSA06.jpg,AFSA18.jpg,AFSA06.jpg,FS,4,num_2,16,num_2,0.966756356007,,,2017_Apr_18_1630,60.0137628658,FEMA4ImagesEEG,001,200200,
AFNE01.JPG,AFNE01.JPG,AFNE01.JPG,AFNE01.JPG,AFNE01.JPG,AFNE01.JPG,1,4,14,1,,,,,,,,,,,,,,,,,,,,,,,AFSA05.jpg,AFSA02.jpg,AFNE12.jpg,AFNE19.jpg,AFSA05.jpg,FS,4,num_8,16,num_8,0.683477029786,,,2017_Apr_18_1630,60.0137628658,FEMA4ImagesEEG,001,200200,
AFNE01.JPG,AFNE01.JPG,AFNE01.JPG,AFNE01.JPG,AFNE01.JPG,AFNE01.JPG,1,5,15,8,,,,,,,,,,,,,,,,,,,,,,,AFSA19.jpg,AFSA03.jpg,AFNE12.jpg,AFNE20.jpg,AFNE12.jpg,FN,3,num_2,16,num_2,0.81678709884,,,2017_Apr_18_1630,60.0137628658,FEMA4ImagesEEG,001,200200,
AFNE01.JPG,AFNE01.JPG,AFNE01.JPG,AFNE01.JPG,AFNE01.JPG,AFNE01.JPG,1,6,16,7,,,,,,,,,,,,,,,,,,,,,,,AFNE19.jpg,AFNE03.jpg,AFSA09.jpg,AFSA17.jpg,AFSA09.jpg,FS,4,num_2,32,num_6,1.00010295724,,,2017_Apr_18_1630,60.0137628658,FEMA4ImagesEEG,001,200200,
AFNE01.JPG,AFNE01.JPG,AFNE01.JPG,AFNE01.JPG,AFNE01.JPG,AFNE01.JPG,1,7,17,4,,,,,,,,,,,,,,,,,,,,,,,AFSA18.jpg,AFSA05.jpg,AFNE20.jpg,AFNE01.jpg,AFNE01.jpg,FN,3,num_4,16,num_4,0.900082077133,,,2017_Apr_18_1630,60.0137628658,FEMA4ImagesEEG,001,200200,
AFNE01.JPG,AFNE01.JPG,AFNE01.JPG,AFNE01.JPG,AFNE01.JPG,AFNE01.JPG,1,8,18,3,,,,,,,,,,,,,,,,,,,,,,,AFNE01.jpg,AFNE17.jpg,AFSA14.jpg,AFSA03.jpg,AFNE01.jpg,FN,3,num_8,16,num_8,0.817035992368,,,2017_Apr_18_1630,60.0137628658,FEMA4ImagesEEG,001,200200,
AFNE01.JPG,AFNE01.JPG,AFNE01.JPG,AFNE01.JPG,AFNE01.JPG,AFNE01.JPG,1,9,19,9,,,,,,,,,,,,,,,,,,,,,,,AFNE16.jpg,AFSA09.jpg,AFSA17.jpg,AFNE17.jpg,AFSA09.jpg,FS,4,num_6,32,num_2,1.28340954629,,,2017_Apr_18_1630,60.0137628658,FEMA4ImagesEEG,001,200200,
AFNE01.JPG,AFNE01.JPG,AFNE01.JPG,AFNE01.JPG,AFNE01.JPG,AFNE01.JPG,2,0,20,5,,,,,,,,,,,,,,,,,,,,,,,AFSA10.jpg,AFSA05.jpg,AFNE04.jpg,AFNE20.jpg,AFNE04.jpg,FN,3,num_2,16,num_2,1.20009756883,,,2017_Apr_18_1630,60.0137628658,FEMA4ImagesEEG,001,200200,
AFNE01.JPG,AFNE01.JPG,AFNE01.JPG,AFNE01.JPG,AFNE01.JPG,AFNE01.JPG,2,1,21,0,,,,,,,,,,,,,,,,,,,,,,,AFNE05.jpg,AFNE06.jpg,AFSA11.jpg,AFSA17.jpg,AFSA17.jpg,FS,4,num_4,16,num_4,1.13345568461,,,2017_Apr_18_1630,60.0137628658,FEMA4ImagesEEG,001,200200,
AFNE01.JPG,AFNE01.JPG,AFNE01.JPG,AFNE01.JPG,AFNE01.JPG,AFNE01.JPG,2,2,22,6,,,,,,,,,,,,,,,,,,,,,,,AFSA14.jpg,AFSA10.jpg,AFNE20.jpg,AFNE17.jpg,AFNE20.jpg,FN,3,num_2,16,num_2,0.716792198597,,,2017_Apr_18_1630,60.0137628658,FEMA4ImagesEEG,001,200200,
AFNE01.JPG,AFNE01.JPG,AFNE01.JPG,AFNE01.JPG,AFNE01.JPG,AFNE01.JPG,2,3,23,2,,,,,,,,,,,,,,,,,,,,,,,AFSA15.jpg,AFNE20.jpg,AFNE17.jpg,AFSA08.jpg,AFSA08.jpg,FS,4,num_4,32,num_2,1.51659487991,,,2017_Apr_18_1630,60.0137628658,FEMA4ImagesEEG,001,200200,
AFNE01.JPG,AFNE01.JPG,AFNE01.JPG,AFNE01.JPG,AFNE01.JPG,AFNE01.JPG,2,4,24,3,,,,,,,,,,,,,,,,,,,,,,,AFSA10.jpg,AFSA17.jpg,AFNE03.jpg,AFNE17.jpg,AFSA10.jpg,FS,4,num_8,16,num_8,0.750198136564,,,2017_Apr_18_1630,60.0137628658,FEMA4ImagesEEG,001,200200,
AFNE01.JPG,AFNE01.JPG,AFNE01.JPG,AFNE01.JPG,AFNE01.JPG,AFNE01.JPG,2,5,25,4,,,,,,,,,,,,,,,,,,,,,,,AFNE09.jpg,AFNE16.jpg,AFSA20.jpg,AFSA13.jpg,AFSA20.jpg,FS,4,num_2,32,num_4,0.80013977809,,,2017_Apr_18_1630,60.0137628658,FEMA4ImagesEEG,001,200200,
AFNE01.JPG,AFNE01.JPG,AFNE01.JPG,AFNE01.JPG,AFNE01.JPG,AFNE01.JPG,2,6,26,9,,,,,,,,,,,,,,,,,,,,,,,AFNE18.jpg,AFSA11.jpg,AFNE19.jpg,AFSA20.jpg,AFNE18.jpg,FN,3,num_8,32,num_2,1.16676924973,,,2017_Apr_18_1630,60.0137628658,FEMA4ImagesEEG,001,200200,
AFNE01.JPG,AFNE01.JPG,AFNE01.JPG,AFNE01.JPG,AFNE01.JPG,AFNE01.JPG,2,7,27,8,,,,,,,,,,,,,,,,,,,,,,,AFSA10.jpg,AFNE12.jpg,AFSA01.jpg,AFNE03.jpg,AFNE12.jpg,FN,3,num_6,16,num_6,0.516806888438,,,2017_Apr_18_1630,60.0137628658,FEMA4ImagesEEG,001,200200,
AFNE01.JPG,AFNE01.JPG,AFNE01.JPG,AFNE01.JPG,AFNE01.JPG,AFNE01.JPG,2,8,28,1,,,,,,,,,,,,,,,,,,,,,,,AFNE07.jpg,AFNE14.jpg,AFSA20.jpg,AFSA12.jpg,AFSA20.jpg,FS,4,num_2,16,num_2,1.08343097166,,,2017_Apr_18_1630,60.0137628658,FEMA4ImagesEEG,001,200200,
AFNE01.JPG,AFNE01.JPG,AFNE01.JPG,AFNE01.JPG,AFNE01.JPG,AFNE01.JPG,2,9,29,7,,,,,,,,,,,,,,,,,,,,,,,AFNE06.jpg,AFSA13.jpg,AFSA16.jpg,AFNE05.jpg,AFSA13.jpg,FS,4,num_6,32,num_2,1.0502040061,,,2017_Apr_18_1630,60.0137628658,FEMA4ImagesEEG,001,200200,
AFNE01.JPG,AFNE01.JPG,AFNE01.JPG,AFNE01.JPG,AFNE01.JPG,AFNE01.JPG,3,0,30,4,,,,,,,,,,,,,,,,,,,,,,,AFSA02.jpg,AFNE13.jpg,AFNE09.jpg,AFSA20.jpg,AFNE09.jpg,FN,3,num_2,16,num_2,1.46682611675,,,2017_Apr_18_1630,60.0137628658,FEMA4ImagesEEG,001,200200,
AFNE01.JPG,AFNE01.JPG,AFNE01.JPG,AFNE01.JPG,AFNE01.JPG,AFNE01.JPG,3,1,31,3,,,,,,,,,,,,,,,,,,,,,,,AFNE18.jpg,AFSA05.jpg,AFSA13.jpg,AFNE14.jpg,AFSA13.jpg,FS,4,num_2,16,num_2,0.916766924362,,,2017_Apr_18_1630,60.0137628658,FEMA4ImagesEEG,001,200200,
AFNE01.JPG,AFNE01.JPG,AFNE01.JPG,AFNE01.JPG,AFNE01.JPG,AFNE01.JPG,3,2,32,9,,,,,,,,,,,,,,,,,,,,,,,AFNE02.jpg,AFSA11.jpg,AFNE10.jpg,AFSA17.jpg,AFSA17.jpg,FS,4,num_4,16,num_4,1.28340441445,,,2017_Apr_18_1630,60.0137628658,FEMA4ImagesEEG,001,200200,
AFNE01.JPG,AFNE01.JPG,AFNE01.JPG,AFNE01.JPG,AFNE01.JPG,AFNE01.JPG,3,3,33,5,,,,,,,,,,,,,,,,,,,,,,,AFNE16.jpg,AFNE20.jpg,AFSA04.jpg,AFSA09.jpg,AFSA04.jpg,FS,4,num_2,16,num_2,1.33344869249,,,2017_Apr_18_1630,60.0137628658,FEMA4ImagesEEG,001,200200,
AFNE01.JPG,AFNE01.JPG,AFNE01.JPG,AFNE01.JPG,AFNE01.JPG,AFNE01.JPG,3,4,34,6,,,,,,,,,,,,,,,,,,,,,,,AFNE17.jpg,AFSA05.jpg,AFNE16.jpg,AFSA01.jpg,AFSA01.jpg,FS,4,num_4,16,num_4,0.683599872864,,,2017_Apr_18_1630,60.0137628658,FEMA4ImagesEEG,001,200200,
AFNE01.JPG,AFNE01.JPG,AFNE01.JPG,AFNE01.JPG,AFNE01.JPG,AFNE01.JPG,3,5,35,1,,,,,,,,,,,,,,,,,,,,,,,AFSA16.jpg,AFNE02.jpg,AFNE08.jpg,AFSA03.jpg,AFSA03.jpg,FS,4,num_4,32,num_6,1.84988448581,,,2017_Apr_18_1630,60.0137628658,FEMA4ImagesEEG,001,200200,
AFNE01.JPG,AFNE01.JPG,AFNE01.JPG,AFNE01.JPG,AFNE01.JPG,AFNE01.JPG,3,6,36,8,,,,,,,,,,,,,,,,,,,,,,,AFNE14.jpg,AFSA17.jpg,AFNE13.jpg,AFSA12.jpg,AFNE14.jpg,FN,3,num_8,16,num_8,1.2334181902,,,2017_Apr_18_1630,60.0137628658,FEMA4ImagesEEG,001,200200,
AFNE01.JPG,AFNE01.JPG,AFNE01.JPG,AFNE01.JPG,AFNE01.JPG,AFNE01.JPG,3,7,37,7,,,,,,,,,,,,,,,,,,,,,,,AFSA11.jpg,AFNE18.jpg,AFNE06.jpg,AFSA06.jpg,AFNE06.jpg,FN,3,num_2,16,num_2,0.583154654931,,,2017_Apr_18_1630,60.0137628658,FEMA4ImagesEEG,001,200200,
AFNE01.JPG,AFNE01.JPG,AFNE01.JPG,AFNE01.JPG,AFNE01.JPG,AFNE01.JPG,3,8,38,0,,,,,,,,,,,,,,,,,,,,,,,AFSA04.jpg,AFNE17.jpg,AFSA20.jpg,AFNE05.jpg,AFNE05.jpg,FN,3,num_4,16,num_4,0.616779978445,,,2017_Apr_18_1630,60.0137628658,FEMA4ImagesEEG,001,200200,
AFNE01.JPG,AFNE01.JPG,AFNE01.JPG,AFNE01.JPG,AFNE01.JPG,AFNE01.JPG,3,9,39,2,,,,,,,,,,,,,,,,,,,,,,,AFSA16.jpg,AFNE01.jpg,AFNE14.jpg,AFSA11.jpg,AFNE01.jpg,FN,3,num_6,32,num_2,1.1667256292,,,2017_Apr_18_1630,60.0137628658,FEMA4ImagesEEG,001,200200,
AFNE01.JPG,AFNE01.JPG,AFNE01.JPG,AFNE01.JPG,AFNE01.JPG,AFNE01.JPG,4,0,40,9,,,,,,,,,,,,,,,,,,,,,,,AFSA11.jpg,AFNE07.jpg,AFSA05.jpg,AFNE12.jpg,AFSA11.jpg,FS,4,num_8,16,num_8,0.733465819969,,,2017_Apr_18_1630,60.0137628658,FEMA4ImagesEEG,001,200200,
AFNE01.JPG,AFNE01.JPG,AFNE01.JPG,AFNE01.JPG,AFNE01.JPG,AFNE01.JPG,4,1,41,7,,,,,,,,,,,,,,,,,,,,,,,AFNE14.jpg,AFSA04.jpg,AFSA07.jpg,AFNE04.jpg,AFNE14.jpg,FN,3,num_8,16,num_8,0.716794764521,,,2017_Apr_18_1630,60.0137628658,FEMA4ImagesEEG,001,200200,
AFNE01.JPG,AFNE01.JPG,AFNE01.JPG,AFNE01.JPG,AFNE01.JPG,AFNE01.JPG,4,2,42,8,,,,,,,,,,,,,,,,,,,,,,,AFSA05.jpg,AFSA19.jpg,AFNE14.jpg,AFNE01.jpg,AFSA05.jpg,FS,4,num_8,32,num_6,0.766724859437,,,2017_Apr_18_1630,60.0137628658,FEMA4ImagesEEG,001,200200,
AFNE01.JPG,AFNE01.JPG,AFNE01.JPG,AFNE01.JPG,AFNE01.JPG,AFNE01.JPG,4,3,43,0,,,,,,,,,,,,,,,,,,,,,,,AFSA16.jpg,AFNE12.jpg,AFSA07.jpg,AFNE11.jpg,AFSA16.jpg,FS,4,num_8,32,num_4,0.76676014073,,,2017_Apr_18_1630,60.0137628658,FEMA4ImagesEEG,001,200200,
AFNE01.JPG,AFNE01.JPG,AFNE01.JPG,AFNE01.JPG,AFNE01.JPG,AFNE01.JPG,4,4,44,3,,,,,,,,,,,,,,,,,,,,,,,AFSA17.jpg,AFNE09.jpg,AFSA18.jpg,AFNE17.jpg,AFSA17.jpg,FS,4,num_8,32,num_2,1.60007749056,,,2017_Apr_18_1630,60.0137628658,FEMA4ImagesEEG,001,200200,
AFNE01.JPG,AFNE01.JPG,AFNE01.JPG,AFNE01.JPG,AFNE01.JPG,AFNE01.JPG,4,5,45,5,,,,,,,,,,,,,,,,,,,,,,,AFNE05.jpg,AFSA06.jpg,AFNE12.jpg,AFSA17.jpg,AFSA06.jpg,FS,4,num_6,32,num_8,0.833464569077,,,2017_Apr_18_1630,60.0137628658,FEMA4ImagesEEG,001,200200,
AFNE01.JPG,AFNE01.JPG,AFNE01.JPG,AFNE01.JPG,AFNE01.JPG,AFNE01.JPG,4,6,46,1,,,,,,,,,,,,,,,,,,,,,,,AFNE12.jpg,AFNE19.jpg,AFSA15.jpg,AFSA04.jpg,AFSA15.jpg,FS,4,num_2,32,num_8,1.21675419102,,,2017_Apr_18_1630,60.0137628658,FEMA4ImagesEEG,001,200200,
AFNE01.JPG,AFNE01.JPG,AFNE01.JPG,AFNE01.JPG,AFNE01.JPG,AFNE01.JPG,4,7,47,6,,,,,,,,,,,,,,,,,,,,,,,AFNE02.jpg,AFNE15.jpg,AFSA09.jpg,AFSA05.jpg,AFNE02.jpg,FN,3,num_8,32,num_2,1.2000940407,,,2017_Apr_18_1630,60.0137628658,FEMA4ImagesEEG,001,200200,
AFNE01.JPG,AFNE01.JPG,AFNE01.JPG,AFNE01.JPG,AFNE01.JPG,AFNE01.JPG,4,8,48,4,,,,,,,,,,,,,,,,,,,,,,,AFSA14.jpg,AFSA19.jpg,AFNE09.jpg,AFNE19.jpg,AFSA19.jpg,FS,4,num_6,16,num_6,0.750136233924,,,2017_Apr_18_1630,60.0137628658,FEMA4ImagesEEG,001,200200,
AFNE01.JPG,AFNE01.JPG,AFNE01.JPG,AFNE01.JPG,AFNE01.JPG,AFNE01.JPG,4,9,49,2,,,,,,,,,,,,,,,,,,,,,,,AFSA11.jpg,AFSA03.jpg,AFNE04.jpg,AFNE12.jpg,AFNE04.jpg,FN,3,num_2,16,num_2,1.48342853405,,,2017_Apr_18_1630,60.0137628658,FEMA4ImagesEEG,001,200200,
AFNE01.JPG,AFNE01.JPG,AFNE01.JPG,AFNE01.JPG,AFNE01.JPG,AFNE01.JPG,5,0,50,6,,,,,,,,,,,,,,,,,,,,,,,AFSA19.jpg,AFSA15.jpg,AFNE08.jpg,AFNE18.jpg,AFNE18.jpg,FN,3,num_4,32,num_2,0.900111264389,,,2017_Apr_18_1630,60.0137628658,FEMA4ImagesEEG,001,200200,
AFNE01.JPG,AFNE01.JPG,AFNE01.JPG,AFNE01.JPG,AFNE01.JPG,AFNE01.JPG,5,1,51,0,,,,,,,,,,,,,,,,,,,,,,,AFSA01.jpg,AFNE05.jpg,AFNE15.jpg,AFSA02.jpg,AFSA01.jpg,FS,4,num_8,32,num_2,1.20011617169,,,2017_Apr_18_1630,60.0137628658,FEMA4ImagesEEG,001,200200,
AFNE01.JPG,AFNE01.JPG,AFNE01.JPG,AFNE01.JPG,AFNE01.JPG,AFNE01.JPG,5,2,52,2,,,,,,,,,,,,,,,,,,,,,,,AFNE14.jpg,AFNE18.jpg,AFSA13.jpg,AFSA14.jpg,AFNE18.jpg,FN,3,num_6,16,num_6,0.816814682417,,,2017_Apr_18_1630,60.0137628658,FEMA4ImagesEEG,001,200200,
AFNE01.JPG,AFNE01.JPG,AFNE01.JPG,AFNE01.JPG,AFNE01.JPG,AFNE01.JPG,5,3,53,8,,,,,,,,,,,,,,,,,,,,,,,AFSA01.jpg,AFSA12.jpg,AFNE12.jpg,AFNE17.jpg,AFNE17.jpg,FN,3,num_4,16,num_4,1.01673039218,,,2017_Apr_18_1630,60.0137628658,FEMA4ImagesEEG,001,200200,
AFNE01.JPG,AFNE01.JPG,AFNE01.JPG,AFNE01.JPG,AFNE01.JPG,AFNE01.JPG,5,4,54,3,,,,,,,,,,,,,,,,,,,,,,,AFNE02.jpg,AFSA10.jpg,AFNE06.jpg,AFSA13.jpg,AFSA13.jpg,FS,4,num_4,32,num_2,1.06685100611,,,2017_Apr_18_1630,60.0137628658,FEMA4ImagesEEG,001,200200,
AFNE01.JPG,AFNE01.JPG,AFNE01.JPG,AFNE01.JPG,AFNE01.JPG,AFNE01.JPG,5,5,55,7,,,,,,,,,,,,,,,,,,,,,,,AFSA09.jpg,AFNE06.jpg,AFSA08.jpg,AFNE04.jpg,AFNE04.jpg,FN,3,num_4,16,num_4,0.766764631087,,,2017_Apr_18_1630,60.0137628658,FEMA4ImagesEEG,001,200200,
AFNE01.JPG,AFNE01.JPG,AFNE01.JPG,AFNE01.JPG,AFNE01.JPG,AFNE01.JPG,5,6,56,1,,,,,,,,,,,,,,,,,,,,,,,AFSA14.jpg,AFNE04.jpg,AFNE18.jpg,AFSA17.jpg,AFSA17.jpg,FS,4,num_4,16,num_4,0.833598958765,,,2017_Apr_18_1630,60.0137628658,FEMA4ImagesEEG,001,200200,
AFNE01.JPG,AFNE01.JPG,AFNE01.JPG,AFNE01.JPG,AFNE01.JPG,AFNE01.JPG,5,7,57,4,,,,,,,,,,,,,,,,,,,,,,,AFSA07.jpg,AFNE20.jpg,AFSA05.jpg,AFNE17.jpg,AFSA07.jpg,FS,4,num_8,32,num_2,0.833440192902,,,2017_Apr_18_1630,60.0137628658,FEMA4ImagesEEG,001,200200,
AFNE01.JPG,AFNE01.JPG,AFNE01.JPG,AFNE01.JPG,AFNE01.JPG,AFNE01.JPG,5,8,58,5,,,,,,,,,,,,,,,,,,,,,,,AFNE10.jpg,AFNE13.jpg,AFSA08.jpg,AFSA20.jpg,AFNE13.jpg,FN,3,num_6,32,num_2,1.11670957621,,,2017_Apr_18_1630,60.0137628658,FEMA4ImagesEEG,001,200200,
AFNE01.JPG,AFNE01.JPG,AFNE01.JPG,AFNE01.JPG,AFNE01.JPG,AFNE01.JPG,5,9,59,9,,,,,,,,,,,,,,,,,,,,,,,AFSA05.jpg,AFNE13.jpg,AFSA20.jpg,AFNE15.jpg,AFNE13.jpg,FN,3,num_6,32,num_2,0.900109339957,,,2017_Apr_18_1630,60.0137628658,FEMA4ImagesEEG,001,200200,
,,,,,,,,,,,,,,,,,,,,,,,,,,,,,,,,,,,,,,,,,,,space,4.33285372148,2017_Apr_18_1630,60.0137628658,FEMA4ImagesEEG,001,200200,
AFNE01.JPG,AFNE01.JPG,AFNE01.JPG,AFNE01.JPG,AFNE01.JPG,AFNE01.JPG,,,,,0,0,0,1,,,,,,,,,,,,,,,,,,,AMSA12.jpg,AMSA08.jpg,AMNE02.jpg,AMNE09.jpg,AMNE09.jpg,MN,1,num_4,16,num_4,0.550138094201,,,2017_Apr_18_1630,60.0137628658,FEMA4ImagesEEG,001,200200,
AFNE01.JPG,AFNE01.JPG,AFNE01.JPG,AFNE01.JPG,AFNE01.JPG,AFNE01.JPG,,,,,0,1,1,8,,,,,,,,,,,,,,,,,,,AMNE15.jpg,AMSA03.jpg,AMNE07.jpg,AMSA16.jpg,AMSA03.jpg,MS,2,num_6,32,num_2,0.700429373406,,,2017_Apr_18_1630,60.0137628658,FEMA4ImagesEEG,001,200200,
AFNE01.JPG,AFNE01.JPG,AFNE01.JPG,AFNE01.JPG,AFNE01.JPG,AFNE01.JPG,,,,,0,2,2,5,,,,,,,,,,,,,,,,,,,AMSA19.jpg,AMSA16.jpg,AMNE02.jpg,AMNE13.jpg,AMNE13.jpg,MN,1,num_4,32,num_8,1.9333459277,,,2017_Apr_18_1630,60.0137628658,FEMA4ImagesEEG,001,200200,
AFNE01.JPG,AFNE01.JPG,AFNE01.JPG,AFNE01.JPG,AFNE01.JPG,AFNE01.JPG,,,,,0,3,3,4,,,,,,,,,,,,,,,,,,,AMNE14.jpg,AMNE13.jpg,AMSA14.jpg,AMSA05.jpg,AMNE14.jpg,MN,1,num_8,16,num_8,0.633603064212,,,2017_Apr_18_1630,60.0137628658,FEMA4ImagesEEG,001,200200,
AFNE01.JPG,AFNE01.JPG,AFNE01.JPG,AFNE01.JPG,AFNE01.JPG,AFNE01.JPG,,,,,0,4,4,0,,,,,,,,,,,,,,,,,,,AMSA09.jpg,AMNE14.jpg,AMSA02.jpg,AMNE03.jpg,AMSA02.jpg,MS,2,num_2,16,num_2,0.800118930056,,,2017_Apr_18_1630,60.0137628658,FEMA4ImagesEEG,001,200200,
AFNE01.JPG,AFNE01.JPG,AFNE01.JPG,AFNE01.JPG,AFNE01.JPG,AFNE01.JPG,,,,,0,5,5,6,,,,,,,,,,,,,,,,,,,AMNE17.jpg,AMSA06.jpg,AMSA17.jpg,AMNE06.jpg,AMNE06.jpg,MN,1,num_4,16,num_4,1.06678974495,,,2017_Apr_18_1630,60.0137628658,FEMA4ImagesEEG,001,200200,
AFNE01.JPG,AFNE01.JPG,AFNE01.JPG,AFNE01.JPG,AFNE01.JPG,AFNE01.JPG,,,,,0,6,6,7,,,,,,,,,,,,,,,,,,,AMSA02.jpg,AMNE10.jpg,AMNE15.jpg,AMSA04.jpg,AMNE10.jpg,MN,1,num_6,32,num_2,4.38319532466,,,2017_Apr_18_1630,60.0137628658,FEMA4ImagesEEG,001,200200,
AFNE01.JPG,AFNE01.JPG,AFNE01.JPG,AFNE01.JPG,AFNE01.JPG,AFNE01.JPG,,,,,0,7,7,3,,,,,,,,,,,,,,,,,,,AMNE05.jpg,AMSA15.jpg,AMNE13.jpg,AMSA06.jpg,AMSA15.jpg,MS,2,num_6,32,num_4,1.00012380529,,,2017_Apr_18_1630,60.0137628658,FEMA4ImagesEEG,001,200200,
AFNE01.JPG,AFNE01.JPG,AFNE01.JPG,AFNE01.JPG,AFNE01.JPG,AFNE01.JPG,,,,,0,8,8,9,,,,,,,,,,,,,,,,,,,AMNE12.jpg,AMNE16.jpg,AMSA10.jpg,AMSA08.jpg,AMSA08.jpg,MS,2,num_4,32,num_2,1.03344378519,,,2017_Apr_18_1630,60.0137628658,FEMA4ImagesEEG,001,200200,
AFNE01.JPG,AFNE01.JPG,AFNE01.JPG,AFNE01.JPG,AFNE01.JPG,AFNE01.JPG,,,,,0,9,9,2,,,,,,,,,,,,,,,,,,,AMNE03.jpg,AMSA02.jpg,AMNE19.jpg,AMSA12.jpg,AMSA02.jpg,MS,2,num_6,16,num_6,0.950227387977,,,2017_Apr_18_1630,60.0137628658,FEMA4ImagesEEG,001,200200,
AFNE01.JPG,AFNE01.JPG,AFNE01.JPG,AFNE01.JPG,AFNE01.JPG,AFNE01.JPG,,,,,1,0,10,3,,,,,,,,,,,,,,,,,,,AMSA06.jpg,AMNE08.jpg,AMNE11.jpg,AMSA13.jpg,AMSA06.jpg,MS,2,num_8,32,num_4,1.23340728508,,,2017_Apr_18_1630,60.0137628658,FEMA4ImagesEEG,001,200200,
AFNE01.JPG,AFNE01.JPG,AFNE01.JPG,AFNE01.JPG,AFNE01.JPG,AFNE01.JPG,,,,,1,1,11,4,,,,,,,,,,,,,,,,,,,AMNE06.jpg,AMSA17.jpg,AMNE19.jpg,AMSA11.jpg,AMNE19.jpg,MN,1,num_2,16,num_2,0.666782239656,,,2017_Apr_18_1630,60.0137628658,FEMA4ImagesEEG,001,200200,
AFNE01.JPG,AFNE01.JPG,AFNE01.JPG,AFNE01.JPG,AFNE01.JPG,AFNE01.JPG,,,,,1,2,12,9,,,,,,,,,,,,,,,,,,,AMSA01.jpg,AMNE06.jpg,AMSA19.jpg,AMNE20.jpg,AMSA01.jpg,MS,2,num_8,16,num_8,0.817156911013,,,2017_Apr_18_1630,60.0137628658,FEMA4ImagesEEG,001,200200,
AFNE01.JPG,AFNE01.JPG,AFNE01.JPG,AFNE01.JPG,AFNE01.JPG,AFNE01.JPG,,,,,1,3,13,5,,,,,,,,,,,,,,,,,,,AMNE10.jpg,AMSA07.jpg,AMSA17.jpg,AMNE01.jpg,AMNE10.jpg,MN,1,num_8,32,num_6,1.03351563074,,,2017_Apr_18_1630,60.0137628658,FEMA4ImagesEEG,001,200200,
AFNE01.JPG,AFNE01.JPG,AFNE01.JPG,AFNE01.JPG,AFNE01.JPG,AFNE01.JPG,,,,,1,4,14,0,,,,,,,,,,,,,,,,,,,AMSA19.jpg,AMSA15.jpg,AMNE06.jpg,AMNE02.jpg,AMSA15.jpg,MS,2,num_6,16,num_6,0.633421205159,,,2017_Apr_18_1630,60.0137628658,FEMA4ImagesEEG,001,200200,
AFNE01.JPG,AFNE01.JPG,AFNE01.JPG,AFNE01.JPG,AFNE01.JPG,AFNE01.JPG,,,,,1,5,15,1,,,,,,,,,,,,,,,,,,,AMNE13.jpg,AMSA11.jpg,AMNE19.jpg,AMSA20.jpg,AMSA20.jpg,MS,2,num_4,32,num_2,0.950141429901,,,2017_Apr_18_1630,60.0137628658,FEMA4ImagesEEG,001,200200,
AFNE01.JPG,AFNE01.JPG,AFNE01.JPG,AFNE01.JPG,AFNE01.JPG,AFNE01.JPG,,,,,1,6,16,6,,,,,,,,,,,,,,,,,,,AMNE09.jpg,AMSA15.jpg,AMNE20.jpg,AMSA01.jpg,AMNE09.jpg,MN,1,num_8,16,num_8,0.583441395676,,,2017_Apr_18_1630,60.0137628658,FEMA4ImagesEEG,001,200200,
AFNE01.JPG,AFNE01.JPG,AFNE01.JPG,AFNE01.JPG,AFNE01.JPG,AFNE01.JPG,,,,,1,7,17,7,,,,,,,,,,,,,,,,,,,AMNE10.jpg,AMSA04.jpg,AMSA13.jpg,AMNE06.jpg,AMNE10.jpg,MN,1,num_8,16,num_8,1.08343449979,,,2017_Apr_18_1630,60.0137628658,FEMA4ImagesEEG,001,200200,
AFNE01.JPG,AFNE01.JPG,AFNE01.JPG,AFNE01.JPG,AFNE01.JPG,AFNE01.JPG,,,,,1,8,18,8,,,,,,,,,,,,,,,,,,,AMSA20.jpg,AMNE09.jpg,AMSA03.jpg,AMNE08.jpg,AMSA20.jpg,MS,2,num_8,32,num_6,1.95035440066,,,2017_Apr_18_1630,60.0137628658,FEMA4ImagesEEG,001,200200,
AFNE01.JPG,AFNE01.JPG,AFNE01.JPG,AFNE01.JPG,AFNE01.JPG,AFNE01.JPG,,,,,1,9,19,2,,,,,,,,,,,,,,,,,,,AMSA06.jpg,AMNE05.jpg,AMSA01.jpg,AMNE19.jpg,AMNE05.jpg,MN,1,num_6,32,num_4,0.816896791614,,,2017_Apr_18_1630,60.0137628658,FEMA4ImagesEEG,001,200200,
AFNE01.JPG,AFNE01.JPG,AFNE01.JPG,AFNE01.JPG,AFNE01.JPG,AFNE01.JPG,,,,,2,0,20,3,,,,,,,,,,,,,,,,,,,AMSA17.jpg,AMNE12.jpg,AMSA07.jpg,AMNE02.jpg,AMNE12.jpg,MN,1,num_6,16,num_6,0.616791525055,,,2017_Apr_18_1630,60.0137628658,FEMA4ImagesEEG,001,200200,
AFNE01.JPG,AFNE01.JPG,AFNE01.JPG,AFNE01.JPG,AFNE01.JPG,AFNE01.JPG,,,,,2,1,21,0,,,,,,,,,,,,,,,,,,,AMSA14.jpg,AMNE07.jpg,AMNE08.jpg,AMSA13.jpg,AMNE07.jpg,MN,1,num_6,16,num_6,1.15010653349,,,2017_Apr_18_1630,60.0137628658,FEMA4ImagesEEG,001,200200,
AFNE01.JPG,AFNE01.JPG,AFNE01.JPG,AFNE01.JPG,AFNE01.JPG,AFNE01.JPG,,,,,2,2,22,1,,,,,,,,,,,,,,,,,,,AMSA13.jpg,AMNE19.jpg,AMNE06.jpg,AMSA04.jpg,AMSA04.jpg,MS,2,num_4,16,num_4,0.733468385864,,,2017_Apr_18_1630,60.0137628658,FEMA4ImagesEEG,001,200200,
AFNE01.JPG,AFNE01.JPG,AFNE01.JPG,AFNE01.JPG,AFNE01.JPG,AFNE01.JPG,,,,,2,3,23,5,,,,,,,,,,,,,,,,,,,AMSA08.jpg,AMNE20.jpg,AMSA15.jpg,AMNE04.jpg,AMNE20.jpg,MN,1,num_6,32,num_2,0.750205192831,,,2017_Apr_18_1630,60.0137628658,FEMA4ImagesEEG,001,200200,
AFNE01.JPG,AFNE01.JPG,AFNE01.JPG,AFNE01.JPG,AFNE01.JPG,AFNE01.JPG,,,,,2,4,24,2,,,,,,,,,,,,,,,,,,,AMNE04.jpg,AMSA01.jpg,AMSA05.jpg,AMNE11.jpg,AMSA01.jpg,MS,2,num_6,32,num_2,0.833496642983,,,2017_Apr_18_1630,60.0137628658,FEMA4ImagesEEG,001,200200,
AFNE01.JPG,AFNE01.JPG,AFNE01.JPG,AFNE01.JPG,AFNE01.JPG,AFNE01.JPG,,,,,2,5,25,8,,,,,,,,,,,,,,,,,,,AMNE14.jpg,AMSA05.jpg,AMNE01.jpg,AMSA16.jpg,AMNE14.jpg,MN,1,num_8,16,num_8,0.700146160802,,,2017_Apr_18_1630,60.0137628658,FEMA4ImagesEEG,001,200200,
AFNE01.JPG,AFNE01.JPG,AFNE01.JPG,AFNE01.JPG,AFNE01.JPG,AFNE01.JPG,,,,,2,6,26,9,,,,,,,,,,,,,,,,,,,AMNE19.jpg,AMSA03.jpg,AMNE18.jpg,AMSA20.jpg,AMSA03.jpg,MS,2,num_6,32,num_2,1.08350249648,,,2017_Apr_18_1630,60.0137628658,FEMA4ImagesEEG,001,200200,
AFNE01.JPG,AFNE01.JPG,AFNE01.JPG,AFNE01.JPG,AFNE01.JPG,AFNE01.JPG,,,,,2,7,27,4,,,,,,,,,,,,,,,,,,,AMNE03.jpg,AMSA08.jpg,AMNE01.jpg,AMSA06.jpg,AMSA08.jpg,MS,2,num_6,16,num_6,0.966776241825,,,2017_Apr_18_1630,60.0137628658,FEMA4ImagesEEG,001,200200,
AFNE01.JPG,AFNE01.JPG,AFNE01.JPG,AFNE01.JPG,AFNE01.JPG,AFNE01.JPG,,,,,2,8,28,6,,,,,,,,,,,,,,,,,,,AMSA02.jpg,AMSA07.jpg,AMNE18.jpg,AMNE09.jpg,AMNE09.jpg,MN,1,num_4,16,num_4,0.616772922178,,,2017_Apr_18_1630,60.0137628658,FEMA4ImagesEEG,001,200200,
AFNE01.JPG,AFNE01.JPG,AFNE01.JPG,AFNE01.JPG,AFNE01.JPG,AFNE01.JPG,,,,,2,9,29,7,,,,,,,,,,,,,,,,,,,AMSA20.jpg,AMSA11.jpg,AMNE16.jpg,AMNE05.jpg,AMSA20.jpg,MS,2,num_8,16,num_8,1.550063362,,,2017_Apr_18_1630,60.0137628658,FEMA4ImagesEEG,001,200200,
AFNE01.JPG,AFNE01.JPG,AFNE01.JPG,AFNE01.JPG,AFNE01.JPG,AFNE01.JPG,,,,,3,0,30,9,,,,,,,,,,,,,,,,,,,AMNE12.jpg,AMNE05.jpg,AMSA20.jpg,AMSA04.jpg,AMNE12.jpg,MN,1,num_8,16,num_8,1.40010693441,,,2017_Apr_18_1630,60.0137628658,FEMA4ImagesEEG,001,200200,
AFNE01.JPG,AFNE01.JPG,AFNE01.JPG,AFNE01.JPG,AFNE01.JPG,AFNE01.JPG,,,,,3,1,31,4,,,,,,,,,,,,,,,,,,,AMSA14.jpg,AMNE14.jpg,AMNE11.jpg,AMSA17.jpg,AMNE14.jpg,MN,1,num_6,32,num_8,1.41644987377,,,2017_Apr_18_1630,60.0137628658,FEMA4ImagesEEG,001,200200,
AFNE01.JPG,AFNE01.JPG,AFNE01.JPG,AFNE01.JPG,AFNE01.JPG,AFNE01.JPG,,,,,3,2,32,7,,,,,,,,,,,,,,,,,,,AMNE02.jpg,AMSA15.jpg,AMSA07.jpg,AMNE14.jpg,AMNE02.jpg,MN,1,num_8,32,num_4,0.983455315756,,,2017_Apr_18_1630,60.0137628658,FEMA4ImagesEEG,001,200200,
AFNE01.JPG,AFNE01.JPG,AFNE01.JPG,AFNE01.JPG,AFNE01.JPG,AFNE01.JPG,,,,,3,3,33,5,,,,,,,,,,,,,,,,,,,AMSA06.jpg,AMSA13.jpg,AMNE01.jpg,AMNE06.jpg,AMNE06.jpg,MN,1,num_4,16,num_4,0.800159663922,,,2017_Apr_18_1630,60.0137628658,FEMA4ImagesEEG,001,200200,
AFNE01.JPG,AFNE01.JPG,AFNE01.JPG,AFNE01.JPG,AFNE01.JPG,AFNE01.JPG,,,,,3,4,34,0,,,,,,,,,,,,,,,,,,,AMNE10.jpg,AMSA01.jpg,AMNE04.jpg,AMSA20.jpg,AMNE04.jpg,MN,1,num_2,16,num_2,0.800097119805,,,2017_Apr_18_1630,60.0137628658,FEMA4ImagesEEG,001,200200,
AFNE01.JPG,AFNE01.JPG,AFNE01.JPG,AFNE01.JPG,AFNE01.JPG,AFNE01.JPG,,,,,3,5,35,8,,,,,,,,,,,,,,,,,,,AMNE04.jpg,AMSA09.jpg,AMSA14.jpg,AMNE01.jpg,AMNE04.jpg,MN,1,num_8,16,num_8,0.683505575566,,,2017_Apr_18_1630,60.0137628658,FEMA4ImagesEEG,001,200200,
AFNE01.JPG,AFNE01.JPG,AFNE01.JPG,AFNE01.JPG,AFNE01.JPG,AFNE01.JPG,,,,,3,6,36,2,,,,,,,,,,,,,,,,,,,AMNE19.jpg,AMNE18.jpg,AMSA19.jpg,AMSA01.jpg,AMSA01.jpg,MS,2,num_4,16,num_4,0.783472250783,,,2017_Apr_18_1630,60.0137628658,FEMA4ImagesEEG,001,200200,
AFNE01.JPG,AFNE01.JPG,AFNE01.JPG,AFNE01.JPG,AFNE01.JPG,AFNE01.JPG,,,,,3,7,37,6,,,,,,,,,,,,,,,,,,,AMNE19.jpg,AMNE02.jpg,AMSA09.jpg,AMSA16.jpg,AMNE02.jpg,MN,1,num_6,16,num_6,0.750238870431,,,2017_Apr_18_1630,60.0137628658,FEMA4ImagesEEG,001,200200,
AFNE01.JPG,AFNE01.JPG,AFNE01.JPG,AFNE01.JPG,AFNE01.JPG,AFNE01.JPG,,,,,3,8,38,3,,,,,,,,,,,,,,,,,,,AMSA07.jpg,AMNE10.jpg,AMNE16.jpg,AMSA17.jpg,AMNE10.jpg,MN,1,num_6,32,num_2,1.56688420261,,,2017_Apr_18_1630,60.0137628658,FEMA4ImagesEEG,001,200200,
AFNE01.JPG,AFNE01.JPG,AFNE01.JPG,AFNE01.JPG,AFNE01.JPG,AFNE01.JPG,,,,,3,9,39,1,,,,,,,,,,,,,,,,,,,AMNE12.jpg,AMSA04.jpg,AMSA06.jpg,AMNE11.jpg,AMSA04.jpg,MS,2,num_6,32,num_4,1.01677208825,,,2017_Apr_18_1630,60.0137628658,FEMA4ImagesEEG,001,200200,
AFNE01.JPG,AFNE01.JPG,AFNE01.JPG,AFNE01.JPG,AFNE01.JPG,AFNE01.JPG,,,,,4,0,40,0,,,,,,,,,,,,,,,,,,,AMSA19.jpg,AMNE05.jpg,AMNE06.jpg,AMSA20.jpg,AMNE06.jpg,MN,1,num_2,32,num_6,1.05008854003,,,2017_Apr_18_1630,60.0137628658,FEMA4ImagesEEG,001,200200,
AFNE01.JPG,AFNE01.JPG,AFNE01.JPG,AFNE01.JPG,AFNE01.JPG,AFNE01.JPG,,,,,4,1,41,5,,,,,,,,,,,,,,,,,,,AMNE06.jpg,AMSA15.jpg,AMSA16.jpg,AMNE04.jpg,AMSA15.jpg,MS,2,num_6,32,num_2,1.15010076019,,,2017_Apr_18_1630,60.0137628658,FEMA4ImagesEEG,001,200200,
AFNE01.JPG,AFNE01.JPG,AFNE01.JPG,AFNE01.JPG,AFNE01.JPG,AFNE01.JPG,,,,,4,2,42,9,,,,,,,,,,,,,,,,,,,AMSA09.jpg,AMSA01.jpg,AMNE03.jpg,AMNE16.jpg,AMSA01.jpg,MS,2,num_6,16,num_6,1.14980920835,,,2017_Apr_18_1630,60.0137628658,FEMA4ImagesEEG,001,200200,
AFNE01.JPG,AFNE01.JPG,AFNE01.JPG,AFNE01.JPG,AFNE01.JPG,AFNE01.JPG,,,,,4,3,43,8,,,,,,,,,,,,,,,,,,,AMNE17.jpg,AMNE01.jpg,AMSA08.jpg,AMSA02.jpg,AMNE17.jpg,MN,1,num_8,16,num_8,0.883469075459,,,2017_Apr_18_1630,60.0137628658,FEMA4ImagesEEG,001,200200,
AFNE01.JPG,AFNE01.JPG,AFNE01.JPG,AFNE01.JPG,AFNE01.JPG,AFNE01.JPG,,,,,4,4,44,6,,,,,,,,,,,,,,,,,,,AMNE07.jpg,AMNE02.jpg,AMSA14.jpg,AMSA08.jpg,AMSA14.jpg,MS,2,num_2,16,num_2,0.916772056182,,,2017_Apr_18_1630,60.0137628658,FEMA4ImagesEEG,001,200200,
AFNE01.JPG,AFNE01.JPG,AFNE01.JPG,AFNE01.JPG,AFNE01.JPG,AFNE01.JPG,,,,,4,5,45,4,,,,,,,,,,,,,,,,,,,AMSA19.jpg,AMSA07.jpg,AMNE03.jpg,AMNE05.jpg,AMNE05.jpg,MN,1,num_4,32,num_6,1.05011131251,,,2017_Apr_18_1630,60.0137628658,FEMA4ImagesEEG,001,200200,
AFNE01.JPG,AFNE01.JPG,AFNE01.JPG,AFNE01.JPG,AFNE01.JPG,AFNE01.JPG,,,,,4,6,46,1,,,,,,,,,,,,,,,,,,,AMNE08.jpg,AMSA20.jpg,AMNE15.jpg,AMSA19.jpg,AMSA20.jpg,MS,2,num_6,32,num_4,1.05008148376,,,2017_Apr_18_1630,60.0137628658,FEMA4ImagesEEG,001,200200,
AFNE01.JPG,AFNE01.JPG,AFNE01.JPG,AFNE01.JPG,AFNE01.JPG,AFNE01.JPG,,,,,4,7,47,7,,,,,,,,,,,,,,,,,,,AMNE07.jpg,AMNE04.jpg,AMSA19.jpg,AMSA09.jpg,AMNE07.jpg,MN,1,num_8,32,num_2,0.85023473289,,,2017_Apr_18_1630,60.0137628658,FEMA4ImagesEEG,001,200200,
AFNE01.JPG,AFNE01.JPG,AFNE01.JPG,AFNE01.JPG,AFNE01.JPG,AFNE01.JPG,,,,,4,8,48,3,,,,,,,,,,,,,,,,,,,AMNE06.jpg,AMSA04.jpg,AMSA07.jpg,AMNE19.jpg,AMNE06.jpg,MN,1,num_8,32,num_4,1.33342848593,,,2017_Apr_18_1630,60.0137628658,FEMA4ImagesEEG,001,200200,
AFNE01.JPG,AFNE01.JPG,AFNE01.JPG,AFNE01.JPG,AFNE01.JPG,AFNE01.JPG,,,,,4,9,49,2,,,,,,,,,,,,,,,,,,,AMNE16.jpg,AMNE18.jpg,AMSA02.jpg,AMSA10.jpg,AMSA02.jpg,MS,2,num_2,16,num_2,1.21674456884,,,2017_Apr_18_1630,60.0137628658,FEMA4ImagesEEG,001,200200,
AFNE01.JPG,AFNE01.JPG,AFNE01.JPG,AFNE01.JPG,AFNE01.JPG,AFNE01.JPG,,,,,5,0,50,2,,,,,,,,,,,,,,,,,,,AMSA11.jpg,AMSA19.jpg,AMNE04.jpg,AMNE20.jpg,AMNE04.jpg,MN,1,num_2,16,num_2,1.1168718702,,,2017_Apr_18_1630,60.0137628658,FEMA4ImagesEEG,001,200200,
AFNE01.JPG,AFNE01.JPG,AFNE01.JPG,AFNE01.JPG,AFNE01.JPG,AFNE01.JPG,,,,,5,1,51,1,,,,,,,,,,,,,,,,,,,AMSA04.jpg,AMNE07.jpg,AMSA08.jpg,AMNE11.jpg,AMSA08.jpg,MS,2,num_2,16,num_2,1.08346593221,,,2017_Apr_18_1630,60.0137628658,FEMA4ImagesEEG,001,200200,
AFNE01.JPG,AFNE01.JPG,AFNE01.JPG,AFNE01.JPG,AFNE01.JPG,AFNE01.JPG,,,,,5,2,52,7,,,,,,,,,,,,,,,,,,,AMSA17.jpg,AMSA13.jpg,AMNE03.jpg,AMNE11.jpg,AMNE11.jpg,MN,1,num_4,48,None,,,,2017_Apr_18_1630,60.0137628658,FEMA4ImagesEEG,001,200200,
AFNE01.JPG,AFNE01.JPG,AFNE01.JPG,AFNE01.JPG,AFNE01.JPG,AFNE01.JPG,,,,,5,3,53,5,,,,,,,,,,,,,,,,,,,AMNE10.jpg,AMSA17.jpg,AMSA10.jpg,AMNE18.jpg,AMSA10.jpg,MS,2,num_2,32,num_8,0.733433746049,,,2017_Apr_18_1630,60.0137628658,FEMA4ImagesEEG,001,200200,
AFNE01.JPG,AFNE01.JPG,AFNE01.JPG,AFNE01.JPG,AFNE01.JPG,AFNE01.JPG,,,,,5,4,54,8,,,,,,,,,,,,,,,,,,,AMNE05.jpg,AMSA11.jpg,AMNE10.jpg,AMSA14.jpg,AMNE05.jpg,MN,1,num_8,32,num_2,1.08349351579,,,2017_Apr_18_1630,60.0137628658,FEMA4ImagesEEG,001,200200,
AFNE01.JPG,AFNE01.JPG,AFNE01.JPG,AFNE01.JPG,AFNE01.JPG,AFNE01.JPG,,,,,5,5,55,0,,,,,,,,,,,,,,,,,,,AMNE08.jpg,AMNE15.jpg,AMSA17.jpg,AMSA08.jpg,AMNE15.jpg,MN,1,num_6,16,num_6,0.700153537808,,,2017_Apr_18_1630,60.0137628658,FEMA4ImagesEEG,001,200200,
AFNE01.JPG,AFNE01.JPG,AFNE01.JPG,AFNE01.JPG,AFNE01.JPG,AFNE01.JPG,,,,,5,6,56,9,,,,,,,,,,,,,,,,,,,AMNE08.jpg,AMSA05.jpg,AMSA15.jpg,AMNE04.jpg,AMNE04.jpg,MN,1,num_4,32,num_2,0.633577725821,,,2017_Apr_18_1630,60.0137628658,FEMA4ImagesEEG,001,200200,
AFNE01.JPG,AFNE01.JPG,AFNE01.JPG,AFNE01.JPG,AFNE01.JPG,AFNE01.JPG,,,,,5,7,57,6,,,,,,,,,,,,,,,,,,,AMSA14.jpg,AMNE08.jpg,AMNE06.jpg,AMSA06.jpg,AMSA14.jpg,MS,2,num_8,16,num_8,0.783442742773,,,2017_Apr_18_1630,60.0137628658,FEMA4ImagesEEG,001,200200,
AFNE01.JPG,AFNE01.JPG,AFNE01.JPG,AFNE01.JPG,AFNE01.JPG,AFNE01.JPG,,,,,5,8,58,3,,,,,,,,,,,,,,,,,,,AMNE07.jpg,AMSA11.jpg,AMNE14.jpg,AMSA07.jpg,AMNE07.jpg,MN,1,num_8,32,num_2,0.833505623668,,,2017_Apr_18_1630,60.0137628658,FEMA4ImagesEEG,001,200200,
AFNE01.JPG,AFNE01.JPG,AFNE01.JPG,AFNE01.JPG,AFNE01.JPG,AFNE01.JPG,,,,,5,9,59,4,,,,,,,,,,,,,,,,,,,AMSA10.jpg,AMNE09.jpg,AMSA01.jpg,AMNE05.jpg,AMSA10.jpg,MS,2,num_8,32,num_6,1.03363462494,,,2017_Apr_18_1630,60.0137628658,FEMA4ImagesEEG,001,200200,
,,,,,,,,,,,,,,,,,,,,,,,,,,,,,,,,,,,,,,,,,,,space,8.41623786524,2017_Apr_18_1630,60.0137628658,FEMA4ImagesEEG,001,200200,
AFNE01.JPG,AFNE01.JPG,AFNE01.JPG,AFNE01.JPG,AFNE01.JPG,AFNE01.JPG,,,,,,,,,0,0,0,0,,,,,,,,,,,,,,,AFSA13.jpg,AFNE16.jpg,AFNE04.jpg,AFSA01.jpg,AFNE16.jpg,FN,3,num_6,16,num_6,0.833447890647,,,2017_Apr_18_1630,60.0137628658,FEMA4ImagesEEG,001,200200,
AFNE01.JPG,AFNE01.JPG,AFNE01.JPG,AFNE01.JPG,AFNE01.JPG,AFNE01.JPG,,,,,,,,,0,1,1,9,,,,,,,,,,,,,,,AFNE11.jpg,AFSA12.jpg,AFNE12.jpg,AFSA16.jpg,AFSA12.jpg,FS,4,num_6,32,num_2,0.566837695442,,,2017_Apr_18_1630,60.0137628658,FEMA4ImagesEEG,001,200200,
AFNE01.JPG,AFNE01.JPG,AFNE01.JPG,AFNE01.JPG,AFNE01.JPG,AFNE01.JPG,,,,,,,,,0,2,2,3,,,,,,,,,,,,,,,AFNE19.jpg,AFNE03.jpg,AFSA10.jpg,AFSA14.jpg,AFNE03.jpg,FN,3,num_6,16,num_6,0.866777171963,,,2017_Apr_18_1630,60.0137628658,FEMA4ImagesEEG,001,200200,
AFNE01.JPG,AFNE01.JPG,AFNE01.JPG,AFNE01.JPG,AFNE01.JPG,AFNE01.JPG,,,,,,,,,0,3,3,6,,,,,,,,,,,,,,,AFSA12.jpg,AFNE03.jpg,AFSA18.jpg,AFNE08.jpg,AFSA12.jpg,FS,4,num_8,32,num_4,1.03344859627,,,2017_Apr_18_1630,60.0137628658,FEMA4ImagesEEG,001,200200,
AFNE01.JPG,AFNE01.JPG,AFNE01.JPG,AFNE01.JPG,AFNE01.JPG,AFNE01.JPG,,,,,,,,,0,4,4,1,,,,,,,,,,,,,,,AFSA08.jpg,AFNE05.jpg,AFSA19.jpg,AFNE07.jpg,AFSA08.jpg,FS,4,num_8,16,num_8,1.01674931578,,,2017_Apr_18_1630,60.0137628658,FEMA4ImagesEEG,001,200200,
AFNE01.JPG,AFNE01.JPG,AFNE01.JPG,AFNE01.JPG,AFNE01.JPG,AFNE01.JPG,,,,,,,,,0,5,5,2,,,,,,,,,,,,,,,AFNE13.jpg,AFSA06.jpg,AFSA02.jpg,AFNE08.jpg,AFNE13.jpg,FN,3,num_8,32,num_4,1.20007768301,,,2017_Apr_18_1630,60.0137628658,FEMA4ImagesEEG,001,200200,
AFNE01.JPG,AFNE01.JPG,AFNE01.JPG,AFNE01.JPG,AFNE01.JPG,AFNE01.JPG,,,,,,,,,0,6,6,7,,,,,,,,,,,,,,,AFSA12.jpg,AFNE02.jpg,AFSA14.jpg,AFNE17.jpg,AFNE17.jpg,FN,3,num_4,16,num_4,1.00014176668,,,2017_Apr_18_1630,60.0137628658,FEMA4ImagesEEG,001,200200,
AFNE01.JPG,AFNE01.JPG,AFNE01.JPG,AFNE01.JPG,AFNE01.JPG,AFNE01.JPG,,,,,,,,,0,7,7,4,,,,,,,,,,,,,,,AFNE13.jpg,AFNE02.jpg,AFSA13.jpg,AFSA18.jpg,AFSA18.jpg,FS,4,num_4,32,num_2,2.20003630765,,,2017_Apr_18_1630,60.0137628658,FEMA4ImagesEEG,001,200200,
AFNE01.JPG,AFNE01.JPG,AFNE01.JPG,AFNE01.JPG,AFNE01.JPG,AFNE01.JPG,,,,,,,,,0,8,8,5,,,,,,,,,,,,,,,AFNE01.jpg,AFSA16.jpg,AFNE08.jpg,AFSA02.jpg,AFSA16.jpg,FS,4,num_6,32,num_4,0.883411021685,,,2017_Apr_18_1630,60.0137628658,FEMA4ImagesEEG,001,200200,
AFNE01.JPG,AFNE01.JPG,AFNE01.JPG,AFNE01.JPG,AFNE01.JPG,AFNE01.JPG,,,,,,,,,0,9,9,8,,,,,,,,,,,,,,,AFNE06.jpg,AFNE15.jpg,AFSA05.jpg,AFSA10.jpg,AFNE06.jpg,FN,3,num_8,32,num_6,0.716841592424,,,2017_Apr_18_1630,60.0137628658,FEMA4ImagesEEG,001,200200,
AFNE01.JPG,AFNE01.JPG,AFNE01.JPG,AFNE01.JPG,AFNE01.JPG,AFNE01.JPG,,,,,,,,,1,0,10,0,,,,,,,,,,,,,,,AFSA20.jpg,AFNE16.jpg,AFSA17.jpg,AFNE01.jpg,AFNE01.jpg,FN,3,num_4,32,num_2,1.85006955227,,,2017_Apr_18_1630,60.0137628658,FEMA4ImagesEEG,001,200200,
AFNE01.JPG,AFNE01.JPG,AFNE01.JPG,AFNE01.JPG,AFNE01.JPG,AFNE01.JPG,,,,,,,,,1,1,11,4,,,,,,,,,,,,,,,AFNE04.jpg,AFSA16.jpg,AFNE15.jpg,AFSA04.jpg,AFSA04.jpg,FS,4,num_4,32,num_2,1.15006387519,,,2017_Apr_18_1630,60.0137628658,FEMA4ImagesEEG,001,200200,
AFNE01.JPG,AFNE01.JPG,AFNE01.JPG,AFNE01.JPG,AFNE01.JPG,AFNE01.JPG,,,,,,,,,1,2,12,9,,,,,,,,,,,,,,,AFSA03.jpg,AFNE18.jpg,AFSA09.jpg,AFNE01.jpg,AFSA09.jpg,FS,4,num_2,16,num_2,1.76665012722,,,2017_Apr_18_1630,60.0137628658,FEMA4ImagesEEG,001,200200,
AFNE01.JPG,AFNE01.JPG,AFNE01.JPG,AFNE01.JPG,AFNE01.JPG,AFNE01.JPG,,,,,,,,,1,3,13,6,,,,,,,,,,,,,,,AFSA18.jpg,AFNE14.jpg,AFNE15.jpg,AFSA11.jpg,AFSA11.jpg,FS,4,num_4,16,num_4,0.53348820754,,,2017_Apr_18_1630,60.0137628658,FEMA4ImagesEEG,001,200200,
AFNE01.JPG,AFNE01.JPG,AFNE01.JPG,AFNE01.JPG,AFNE01.JPG,AFNE01.JPG,,,,,,,,,1,4,14,5,,,,,,,,,,,,,,,AFSA16.jpg,AFNE09.jpg,AFSA13.jpg,AFNE01.jpg,AFSA16.jpg,FS,4,num_8,32,num_2,0.9334969958,,,2017_Apr_18_1630,60.0137628658,FEMA4ImagesEEG,001,200200,
AFNE01.JPG,AFNE01.JPG,AFNE01.JPG,AFNE01.JPG,AFNE01.JPG,AFNE01.JPG,,,,,,,,,1,5,15,2,,,,,,,,,,,,,,,AFNE13.jpg,AFSA02.jpg,AFNE06.jpg,AFSA10.jpg,AFSA10.jpg,FS,4,num_4,16,num_4,1.8501173424,,,2017_Apr_18_1630,60.0137628658,FEMA4ImagesEEG,001,200200,
AFNE01.JPG,AFNE01.JPG,AFNE01.JPG,AFNE01.JPG,AFNE01.JPG,AFNE01.JPG,,,,,,,,,1,6,16,1,,,,,,,,,,,,,,,AFSA05.jpg,AFNE03.jpg,AFNE06.jpg,AFSA03.jpg,AFNE03.jpg,FN,3,num_6,16,num_6,0.900100359257,,,2017_Apr_18_1630,60.0137628658,FEMA4ImagesEEG,001,200200,
AFNE01.JPG,AFNE01.JPG,AFNE01.JPG,AFNE01.JPG,AFNE01.JPG,AFNE01.JPG,,,,,,,,,1,7,17,3,,,,,,,,,,,,,,,AFNE16.jpg,AFSA03.jpg,AFSA01.jpg,AFNE14.jpg,AFNE16.jpg,FN,3,num_8,16,num_8,1.44991707291,,,2017_Apr_18_1630,60.0137628658,FEMA4ImagesEEG,001,200200,
AFNE01.JPG,AFNE01.JPG,AFNE01.JPG,AFNE01.JPG,AFNE01.JPG,AFNE01.JPG,,,,,,,,,1,8,18,8,,,,,,,,,,,,,,,AFNE03.jpg,AFNE07.jpg,AFSA20.jpg,AFSA06.jpg,AFNE07.jpg,FN,3,num_6,16,num_6,0.933430923542,,,2017_Apr_18_1630,60.0137628658,FEMA4ImagesEEG,001,200200,
AFNE01.JPG,AFNE01.JPG,AFNE01.JPG,AFNE01.JPG,AFNE01.JPG,AFNE01.JPG,,,,,,,,,1,9,19,7,,,,,,,,,,,,,,,AFNE16.jpg,AFNE20.jpg,AFSA16.jpg,AFSA10.jpg,AFNE20.jpg,FN,3,num_6,16,num_6,1.61672384909,,,2017_Apr_18_1630,60.0137628658,FEMA4ImagesEEG,001,200200,
AFNE01.JPG,AFNE01.JPG,AFNE01.JPG,AFNE01.JPG,AFNE01.JPG,AFNE01.JPG,,,,,,,,,2,0,20,3,,,,,,,,,,,,,,,AFNE09.jpg,AFSA05.jpg,AFNE08.jpg,AFSA02.jpg,AFSA05.jpg,FS,4,num_6,32,num_4,3.09984639805,,,2017_Apr_18_1630,60.0137628658,FEMA4ImagesEEG,001,200200,
AFNE01.JPG,AFNE01.JPG,AFNE01.JPG,AFNE01.JPG,AFNE01.JPG,AFNE01.JPG,,,,,,,,,2,1,21,2,,,,,,,,,,,,,,,AFSA15.jpg,AFNE12.jpg,AFNE14.jpg,AFSA09.jpg,AFNE12.jpg,FN,3,num_6,16,num_6,0.883536109934,,,2017_Apr_18_1630,60.0137628658,FEMA4ImagesEEG,001,200200,
AFNE01.JPG,AFNE01.JPG,AFNE01.JPG,AFNE01.JPG,AFNE01.JPG,AFNE01.JPG,,,,,,,,,2,2,22,1,,,,,,,,,,,,,,,AFNE12.jpg,AFSA08.jpg,AFSA13.jpg,AFNE14.jpg,AFNE12.jpg,FN,3,num_8,16,num_8,0.766770725124,,,2017_Apr_18_1630,60.0137628658,FEMA4ImagesEEG,001,200200,
AFNE01.JPG,AFNE01.JPG,AFNE01.JPG,AFNE01.JPG,AFNE01.JPG,AFNE01.JPG,,,,,,,,,2,3,23,6,,,,,,,,,,,,,,,AFNE19.jpg,AFSA18.jpg,AFNE05.jpg,AFSA14.jpg,AFSA14.jpg,FS,4,num_4,32,num_6,1.29985255624,,,2017_Apr_18_1630,60.0137628658,FEMA4ImagesEEG,001,200200,
AFNE01.JPG,AFNE01.JPG,AFNE01.JPG,AFNE01.JPG,AFNE01.JPG,AFNE01.JPG,,,,,,,,,2,4,24,7,,,,,,,,,,,,,,,AFSA08.jpg,AFSA20.jpg,AFNE04.jpg,AFNE11.jpg,AFSA08.jpg,FS,4,num_8,32,num_4,0.949955401229,,,2017_Apr_18_1630,60.0137628658,FEMA4ImagesEEG,001,200200,
AFNE01.JPG,AFNE01.JPG,AFNE01.JPG,AFNE01.JPG,AFNE01.JPG,AFNE01.JPG,,,,,,,,,2,5,25,9,,,,,,,,,,,,,,,AFSA04.jpg,AFNE05.jpg,AFSA18.jpg,AFNE14.jpg,AFSA18.jpg,FS,4,num_2,32,num_6,1.06678012277,,,2017_Apr_18_1630,60.0137628658,FEMA4ImagesEEG,001,200200,
AFNE01.JPG,AFNE01.JPG,AFNE01.JPG,AFNE01.JPG,AFNE01.JPG,AFNE01.JPG,,,,,,,,,2,6,26,4,,,,,,,,,,,,,,,AFSA08.jpg,AFNE15.jpg,AFSA02.jpg,AFNE07.jpg,AFNE15.jpg,FN,3,num_6,32,num_4,0.716808556288,,,2017_Apr_18_1630,60.0137628658,FEMA4ImagesEEG,001,200200,
AFNE01.JPG,AFNE01.JPG,AFNE01.JPG,AFNE01.JPG,AFNE01.JPG,AFNE01.JPG,,,,,,,,,2,7,27,8,,,,,,,,,,,,,,,AFNE02.jpg,AFSA20.jpg,AFNE19.jpg,AFSA19.jpg,AFNE02.jpg,FN,3,num_8,16,num_8,0.816806663934,,,2017_Apr_18_1630,60.0137628658,FEMA4ImagesEEG,001,200200,
AFNE01.JPG,AFNE01.JPG,AFNE01.JPG,AFNE01.JPG,AFNE01.JPG,AFNE01.JPG,,,,,,,,,2,8,28,5,,,,,,,,,,,,,,,AFSA17.jpg,AFNE05.jpg,AFSA18.jpg,AFNE06.jpg,AFSA17.jpg,FS,4,num_8,32,num_2,1.18341015569,,,2017_Apr_18_1630,60.0137628658,FEMA4ImagesEEG,001,200200,
AFNE01.JPG,AFNE01.JPG,AFNE01.JPG,AFNE01.JPG,AFNE01.JPG,AFNE01.JPG,,,,,,,,,2,9,29,0,,,,,,,,,,,,,,,AFNE08.jpg,AFNE12.jpg,AFSA14.jpg,AFSA15.jpg,AFNE08.jpg,FN,3,num_8,16,num_8,0.983416827061,,,2017_Apr_18_1630,60.0137628658,FEMA4ImagesEEG,001,200200,
AFNE01.JPG,AFNE01.JPG,AFNE01.JPG,AFNE01.JPG,AFNE01.JPG,AFNE01.JPG,,,,,,,,,3,0,30,9,,,,,,,,,,,,,,,AFSA02.jpg,AFSA14.jpg,AFNE07.jpg,AFNE15.jpg,AFNE07.jpg,FN,3,num_2,16,num_2,0.766772008079,,,2017_Apr_18_1630,60.0137628658,FEMA4ImagesEEG,001,200200,
AFNE01.JPG,AFNE01.JPG,AFNE01.JPG,AFNE01.JPG,AFNE01.JPG,AFNE01.JPG,,,,,,,,,3,1,31,1,,,,,,,,,,,,,,,AFSA06.jpg,AFNE09.jpg,AFSA08.jpg,AFNE11.jpg,AFNE11.jpg,FN,3,num_4,16,num_4,0.866757286145,,,2017_Apr_18_1630,60.0137628658,FEMA4ImagesEEG,001,200200,
AFNE01.JPG,AFNE01.JPG,AFNE01.JPG,AFNE01.JPG,AFNE01.JPG,AFNE01.JPG,,,,,,,,,3,2,32,0,,,,,,,,,,,,,,,AFNE18.jpg,AFNE09.jpg,AFSA18.jpg,AFSA17.jpg,AFNE18.jpg,FN,3,num_8,16,num_8,0.999899608665,,,2017_Apr_18_1630,60.0137628658,FEMA4ImagesEEG,001,200200,
AFNE01.JPG,AFNE01.JPG,AFNE01.JPG,AFNE01.JPG,AFNE01.JPG,AFNE01.JPG,,,,,,,,,3,3,33,4,,,,,,,,,,,,,,,AFNE20.jpg,AFSA16.jpg,AFNE03.jpg,AFSA05.jpg,AFNE03.jpg,FN,3,num_2,32,num_6,0.983437033632,,,2017_Apr_18_1630,60.0137628658,FEMA4ImagesEEG,001,200200,
AFNE01.JPG,AFNE01.JPG,AFNE01.JPG,AFNE01.JPG,AFNE01.JPG,AFNE01.JPG,,,,,,,,,3,4,34,8,,,,,,,,,,,,,,,AFNE02.jpg,AFSA17.jpg,AFNE20.jpg,AFSA12.jpg,AFSA17.jpg,FS,4,num_6,32,num_4,1.31673145061,,,2017_Apr_18_1630,60.0137628658,FEMA4ImagesEEG,001,200200,
AFNE01.JPG,AFNE01.JPG,AFNE01.JPG,AFNE01.JPG,AFNE01.JPG,AFNE01.JPG,,,,,,,,,3,5,35,5,,,,,,,,,,,,,,,AFNE10.jpg,AFNE03.jpg,AFSA15.jpg,AFSA02.jpg,AFNE10.jpg,FN,3,num_8,16,num_8,0.750123083621,,,2017_Apr_18_1630,60.0137628658,FEMA4ImagesEEG,001,200200,
AFNE01.JPG,AFNE01.JPG,AFNE01.JPG,AFNE01.JPG,AFNE01.JPG,AFNE01.JPG,,,,,,,,,3,6,36,6,,,,,,,,,,,,,,,AFNE11.jpg,AFSA15.jpg,AFNE07.jpg,AFSA18.jpg,AFNE11.jpg,FN,3,num_8,32,num_6,0.933482562541,,,2017_Apr_18_1630,60.0137628658,FEMA4ImagesEEG,001,200200,
AFNE01.JPG,AFNE01.JPG,AFNE01.JPG,AFNE01.JPG,AFNE01.JPG,AFNE01.JPG,,,,,,,,,3,7,37,7,,,,,,,,,,,,,,,AFSA03.jpg,AFNE16.jpg,AFSA10.jpg,AFNE18.jpg,AFNE16.jpg,FN,3,num_6,32,num_2,1.23344160416,,,2017_Apr_18_1630,60.0137628658,FEMA4ImagesEEG,001,200200,
AFNE01.JPG,AFNE01.JPG,AFNE01.JPG,AFNE01.JPG,AFNE01.JPG,AFNE01.JPG,,,,,,,,,3,8,38,2,,,,,,,,,,,,,,,AFSA01.jpg,AFSA07.jpg,AFNE10.jpg,AFNE16.jpg,AFNE16.jpg,FN,3,num_4,32,num_8,1.00012123938,,,2017_Apr_18_1630,60.0137628658,FEMA4ImagesEEG,001,200200,
AFNE01.JPG,AFNE01.JPG,AFNE01.JPG,AFNE01.JPG,AFNE01.JPG,AFNE01.JPG,,,,,,,,,3,9,39,3,,,,,,,,,,,,,,,AFSA02.jpg,AFSA09.jpg,AFNE10.jpg,AFNE01.jpg,AFNE01.jpg,FN,3,num_4,16,num_4,1.13356024554,,,2017_Apr_18_1630,60.0137628658,FEMA4ImagesEEG,001,200200,
AFNE01.JPG,AFNE01.JPG,AFNE01.JPG,AFNE01.JPG,AFNE01.JPG,AFNE01.JPG,,,,,,,,,4,0,40,9,,,,,,,,,,,,,,,AFSA07.jpg,AFNE04.jpg,AFSA14.jpg,AFNE10.jpg,AFNE04.jpg,FN,3,num_6,32,num_4,0.883422247556,,,2017_Apr_18_1630,60.0137628658,FEMA4ImagesEEG,001,200200,
AFNE01.JPG,AFNE01.JPG,AFNE01.JPG,AFNE01.JPG,AFNE01.JPG,AFNE01.JPG,,,,,,,,,4,1,41,8,,,,,,,,,,,,,,,AFSA04.jpg,AFNE09.jpg,AFSA18.jpg,AFNE02.jpg,AFNE02.jpg,FN,3,num_4,16,num_4,1.25019220289,,,2017_Apr_18_1630,60.0137628658,FEMA4ImagesEEG,001,200200,
AFNE01.JPG,AFNE01.JPG,AFNE01.JPG,AFNE01.JPG,AFNE01.JPG,AFNE01.JPG,,,,,,,,,4,2,42,6,,,,,,,,,,,,,,,AFNE14.jpg,AFSA11.jpg,AFSA13.jpg,AFNE11.jpg,AFNE14.jpg,FN,3,num_8,32,num_2,1.1667378173,,,2017_Apr_18_1630,60.0137628658,FEMA4ImagesEEG,001,200200,
AFNE01.JPG,AFNE01.JPG,AFNE01.JPG,AFNE01.JPG,AFNE01.JPG,AFNE01.JPG,,,,,,,,,4,3,43,0,,,,,,,,,,,,,,,AFSA08.jpg,AFSA10.jpg,AFNE18.jpg,AFNE20.jpg,AFNE18.jpg,FN,3,num_2,16,num_2,0.950093319043,,,2017_Apr_18_1630,60.0137628658,FEMA4ImagesEEG,001,200200,
AFNE01.JPG,AFNE01.JPG,AFNE01.JPG,AFNE01.JPG,AFNE01.JPG,AFNE01.JPG,,,,,,,,,4,4,44,1,,,,,,,,,,,,,,,AFNE13.jpg,AFSA20.jpg,AFNE11.jpg,AFSA11.jpg,AFNE11.jpg,FN,3,num_2,16,num_2,1.10009978192,,,2017_Apr_18_1630,60.0137628658,FEMA4ImagesEEG,001,200200,
AFNE01.JPG,AFNE01.JPG,AFNE01.JPG,AFNE01.JPG,AFNE01.JPG,AFNE01.JPG,,,,,,,,,4,5,45,4,,,,,,,,,,,,,,,AFNE17.jpg,AFSA17.jpg,AFSA20.jpg,AFNE15.jpg,AFSA20.jpg,FS,4,num_2,16,num_2,1.36672537262,,,2017_Apr_18_1630,60.0137628658,FEMA4ImagesEEG,001,200200,
AFNE01.JPG,AFNE01.JPG,AFNE01.JPG,AFNE01.JPG,AFNE01.JPG,AFNE01.JPG,,,,,,,,,4,6,46,2,,,,,,,,,,,,,,,AFNE19.jpg,AFSA07.jpg,AFSA09.jpg,AFNE06.jpg,AFNE06.jpg,FN,3,num_4,32,num_8,2.58330668526,,,2017_Apr_18_1630,60.0137628658,FEMA4ImagesEEG,001,200200,
AFNE01.JPG,AFNE01.JPG,AFNE01.JPG,AFNE01.JPG,AFNE01.JPG,AFNE01.JPG,,,,,,,,,4,7,47,5,,,,,,,,,,,,,,,AFNE14.jpg,AFSA12.jpg,AFNE19.jpg,AFSA14.jpg,AFSA14.jpg,FS,4,num_4,32,num_6,1.03373501627,,,2017_Apr_18_1630,60.0137628658,FEMA4ImagesEEG,001,200200,
AFNE01.JPG,AFNE01.JPG,AFNE01.JPG,AFNE01.JPG,AFNE01.JPG,AFNE01.JPG,,,,,,,,,4,8,48,3,,,,,,,,,,,,,,,AFNE06.jpg,AFNE10.jpg,AFSA12.jpg,AFSA06.jpg,AFSA06.jpg,FS,4,num_4,32,num_2,1.20009275773,,,2017_Apr_18_1630,60.0137628658,FEMA4ImagesEEG,001,200200,
AFNE01.JPG,AFNE01.JPG,AFNE01.JPG,AFNE01.JPG,AFNE01.JPG,AFNE01.JPG,,,,,,,,,4,9,49,7,,,,,,,,,,,,,,,AFSA19.jpg,AFNE02.jpg,AFSA15.jpg,AFNE08.jpg,AFSA15.jpg,FS,4,num_2,32,num_6,2.23348971503,,,2017_Apr_18_1630,60.0137628658,FEMA4ImagesEEG,001,200200,
AFNE01.JPG,AFNE01.JPG,AFNE01.JPG,AFNE01.JPG,AFNE01.JPG,AFNE01.JPG,,,,,,,,,5,0,50,1,,,,,,,,,,,,,,,AFSA15.jpg,AFNE14.jpg,AFNE08.jpg,AFSA18.jpg,AFNE14.jpg,FN,3,num_6,16,num_6,1.00008339217,,,2017_Apr_18_1630,60.0137628658,FEMA4ImagesEEG,001,200200,
AFNE01.JPG,AFNE01.JPG,AFNE01.JPG,AFNE01.JPG,AFNE01.JPG,AFNE01.JPG,,,,,,,,,5,1,51,3,,,,,,,,,,,,,,,AFSA10.jpg,AFNE01.jpg,AFNE18.jpg,AFSA06.jpg,AFSA06.jpg,FS,4,num_4,16,num_4,1.41671576648,,,2017_Apr_18_1630,60.0137628658,FEMA4ImagesEEG,001,200200,
AFNE01.JPG,AFNE01.JPG,AFNE01.JPG,AFNE01.JPG,AFNE01.JPG,AFNE01.JPG,,,,,,,,,5,2,52,6,,,,,,,,,,,,,,,AFSA06.jpg,AFNE07.jpg,AFSA11.jpg,AFNE17.jpg,AFSA11.jpg,FS,4,num_2,16,num_2,1.41670325765,,,2017_Apr_18_1630,60.0137628658,FEMA4ImagesEEG,001,200200,
AFNE01.JPG,AFNE01.JPG,AFNE01.JPG,AFNE01.JPG,AFNE01.JPG,AFNE01.JPG,,,,,,,,,5,3,53,5,,,,,,,,,,,,,,,AFSA19.jpg,AFNE14.jpg,AFNE06.jpg,AFSA06.jpg,AFNE06.jpg,FN,3,num_2,32,num_6,0.783556925904,,,2017_Apr_18_1630,60.0137628658,FEMA4ImagesEEG,001,200200,
AFNE01.JPG,AFNE01.JPG,AFNE01.JPG,AFNE01.JPG,AFNE01.JPG,AFNE01.JPG,,,,,,,,,5,4,54,8,,,,,,,,,,,,,,,AFSA01.jpg,AFSA06.jpg,AFNE18.jpg,AFNE07.jpg,AFSA06.jpg,FS,4,num_6,32,num_8,2.98301077138,,,2017_Apr_18_1630,60.0137628658,FEMA4ImagesEEG,001,200200,
AFNE01.JPG,AFNE01.JPG,AFNE01.JPG,AFNE01.JPG,AFNE01.JPG,AFNE01.JPG,,,,,,,,,5,5,55,0,,,,,,,,,,,,,,,AFSA03.jpg,AFSA13.jpg,AFNE20.jpg,AFNE12.jpg,AFSA13.jpg,FS,4,num_6,16,num_6,0.766771045848,,,2017_Apr_18_1630,60.0137628658,FEMA4ImagesEEG,001,200200,
AFNE01.JPG,AFNE01.JPG,AFNE01.JPG,AFNE01.JPG,AFNE01.JPG,AFNE01.JPG,,,,,,,,,5,6,56,4,,,,,,,,,,,,,,,AFSA15.jpg,AFNE01.jpg,AFNE10.jpg,AFSA14.jpg,AFSA14.jpg,FS,4,num_4,16,num_4,0.650134277428,,,2017_Apr_18_1630,60.0137628658,FEMA4ImagesEEG,001,200200,
AFNE01.JPG,AFNE01.JPG,AFNE01.JPG,AFNE01.JPG,AFNE01.JPG,AFNE01.JPG,,,,,,,,,5,7,57,7,,,,,,,,,,,,,,,AFNE09.jpg,AFSA01.jpg,AFSA14.jpg,AFNE19.jpg,AFSA01.jpg,FS,4,num_6,16,num_6,1.21676285096,,,2017_Apr_18_1630,60.0137628658,FEMA4ImagesEEG,001,200200,
AFNE01.JPG,AFNE01.JPG,AFNE01.JPG,AFNE01.JPG,AFNE01.JPG,AFNE01.JPG,,,,,,,,,5,8,58,9,,,,,,,,,,,,,,,AFSA12.jpg,AFNE01.jpg,AFNE06.jpg,AFSA10.jpg,AFNE01.jpg,FN,3,num_6,16,num_6,0.683493387478,,,2017_Apr_18_1630,60.0137628658,FEMA4ImagesEEG,001,200200,
AFNE01.JPG,AFNE01.JPG,AFNE01.JPG,AFNE01.JPG,AFNE01.JPG,AFNE01.JPG,,,,,,,,,5,9,59,2,,,,,,,,,,,,,,,AFSA17.jpg,AFNE19.jpg,AFSA02.jpg,AFNE08.jpg,AFSA17.jpg,FS,4,num_8,32,num_2,0.683448804746,,,2017_Apr_18_1630,60.0137628658,FEMA4ImagesEEG,001,200200,
,,,,,,,,,,,,,,,,,,,,,,,,,,,,,,,,,,,,,,,,,,,space,1.46670263221,2017_Apr_18_1630,60.0137628658,FEMA4ImagesEEG,001,200200,
AFNE01.JPG,AFNE01.JPG,AFNE01.JPG,AFNE01.JPG,AFNE01.JPG,AFNE01.JPG,,,,,,,,,,,,,0,0,0,6,,,,,,,,,,,AMNE04.jpg,AMNE01.jpg,AMSA10.jpg,AMSA01.jpg,AMSA01.jpg,MS,2,num_4,16,num_4,0.566822620691,,,2017_Apr_18_1630,60.0137628658,FEMA4ImagesEEG,001,200200,
AFNE01.JPG,AFNE01.JPG,AFNE01.JPG,AFNE01.JPG,AFNE01.JPG,AFNE01.JPG,,,,,,,,,,,,,0,1,1,8,,,,,,,,,,,AMSA13.jpg,AMNE12.jpg,AMSA01.jpg,AMNE16.jpg,AMNE16.jpg,MN,1,num_4,32,num_6,1.06677755686,,,2017_Apr_18_1630,60.0137628658,FEMA4ImagesEEG,001,200200,
AFNE01.JPG,AFNE01.JPG,AFNE01.JPG,AFNE01.JPG,AFNE01.JPG,AFNE01.JPG,,,,,,,,,,,,,0,2,2,3,,,,,,,,,,,AMNE08.jpg,AMSA16.jpg,AMNE06.jpg,AMSA15.jpg,AMNE08.jpg,MN,1,num_8,16,num_8,0.516822604666,,,2017_Apr_18_1630,60.0137628658,FEMA4ImagesEEG,001,200200,
AFNE01.JPG,AFNE01.JPG,AFNE01.JPG,AFNE01.JPG,AFNE01.JPG,AFNE01.JPG,,,,,,,,,,,,,0,3,3,2,,,,,,,,,,,AMNE04.jpg,AMSA11.jpg,AMNE17.jpg,AMSA07.jpg,AMSA11.jpg,MS,2,num_6,32,num_2,0.733443688965,,,2017_Apr_18_1630,60.0137628658,FEMA4ImagesEEG,001,200200,
AFNE01.JPG,AFNE01.JPG,AFNE01.JPG,AFNE01.JPG,AFNE01.JPG,AFNE01.JPG,,,,,,,,,,,,,0,4,4,1,,,,,,,,,,,AMSA14.jpg,AMNE10.jpg,AMSA15.jpg,AMNE12.jpg,AMSA14.jpg,MS,2,num_8,32,num_2,0.883440208941,,,2017_Apr_18_1630,60.0137628658,FEMA4ImagesEEG,001,200200,
AFNE01.JPG,AFNE01.JPG,AFNE01.JPG,AFNE01.JPG,AFNE01.JPG,AFNE01.JPG,,,,,,,,,,,,,0,5,5,4,,,,,,,,,,,AMNE18.jpg,AMSA04.jpg,AMNE14.jpg,AMSA17.jpg,AMNE18.jpg,MN,1,num_8,32,num_6,1.41675489664,,,2017_Apr_18_1630,60.0137628658,FEMA4ImagesEEG,001,200200,
AFNE01.JPG,AFNE01.JPG,AFNE01.JPG,AFNE01.JPG,AFNE01.JPG,AFNE01.JPG,,,,,,,,,,,,,0,6,6,7,,,,,,,,,,,AMNE04.jpg,AMSA05.jpg,AMNE12.jpg,AMSA10.jpg,AMNE04.jpg,MN,1,num_8,32,num_4,0.733486988742,,,2017_Apr_18_1630,60.0137628658,FEMA4ImagesEEG,001,200200,
AFNE01.JPG,AFNE01.JPG,AFNE01.JPG,AFNE01.JPG,AFNE01.JPG,AFNE01.JPG,,,,,,,,,,,,,0,7,7,5,,,,,,,,,,,AMSA09.jpg,AMNE03.jpg,AMSA06.jpg,AMNE07.jpg,AMNE03.jpg,MN,1,num_6,32,num_2,1.18344094664,,,2017_Apr_18_1630,60.0137628658,FEMA4ImagesEEG,001,200200,
AFNE01.JPG,AFNE01.JPG,AFNE01.JPG,AFNE01.JPG,AFNE01.JPG,AFNE01.JPG,,,,,,,,,,,,,0,8,8,0,,,,,,,,,,,AMNE11.jpg,AMNE19.jpg,AMSA08.jpg,AMSA01.jpg,AMSA08.jpg,MS,2,num_2,32,num_8,1.18346788872,,,2017_Apr_18_1630,60.0137628658,FEMA4ImagesEEG,001,200200,
AFNE01.JPG,AFNE01.JPG,AFNE01.JPG,AFNE01.JPG,AFNE01.JPG,AFNE01.JPG,,,,,,,,,,,,,0,9,9,9,,,,,,,,,,,AMSA11.jpg,AMNE02.jpg,AMSA15.jpg,AMNE08.jpg,AMSA15.jpg,MS,2,num_2,16,num_2,0.950233482014,,,2017_Apr_18_1630,60.0137628658,FEMA4ImagesEEG,001,200200,
AFNE01.JPG,AFNE01.JPG,AFNE01.JPG,AFNE01.JPG,AFNE01.JPG,AFNE01.JPG,,,,,,,,,,,,,1,0,10,0,,,,,,,,,,,AMSA03.jpg,AMNE18.jpg,AMNE10.jpg,AMSA06.jpg,AMNE10.jpg,MN,1,num_2,16,num_2,0.866831056148,,,2017_Apr_18_1630,60.0137628658,FEMA4ImagesEEG,001,200200,
AFNE01.JPG,AFNE01.JPG,AFNE01.JPG,AFNE01.JPG,AFNE01.JPG,AFNE01.JPG,,,,,,,,,,,,,1,1,11,1,,,,,,,,,,,AMSA05.jpg,AMNE13.jpg,AMSA12.jpg,AMNE15.jpg,AMSA12.jpg,MS,2,num_2,32,num_8,1.03329720742,,,2017_Apr_18_1630,60.0137628658,FEMA4ImagesEEG,001,200200,
AFNE01.JPG,AFNE01.JPG,AFNE01.JPG,AFNE01.JPG,AFNE01.JPG,AFNE01.JPG,,,,,,,,,,,,,1,2,12,6,,,,,,,,,,,AMSA14.jpg,AMSA06.jpg,AMNE07.jpg,AMNE13.jpg,AMNE07.jpg,MN,1,num_2,16,num_2,1.40006652128,,,2017_Apr_18_1630,60.0137628658,FEMA4ImagesEEG,001,200200,
AFNE01.JPG,AFNE01.JPG,AFNE01.JPG,AFNE01.JPG,AFNE01.JPG,AFNE01.JPG,,,,,,,,,,,,,1,3,13,4,,,,,,,,,,,AMNE13.jpg,AMNE05.jpg,AMSA01.jpg,AMSA02.jpg,AMSA02.jpg,MS,2,num_4,16,num_4,0.650140692189,,,2017_Apr_18_1630,60.0137628658,FEMA4ImagesEEG,001,200200,
AFNE01.JPG,AFNE01.JPG,AFNE01.JPG,AFNE01.JPG,AFNE01.JPG,AFNE01.JPG,,,,,,,,,,,,,1,4,14,5,,,,,,,,,,,AMNE06.jpg,AMNE07.jpg,AMSA18.jpg,AMSA01.jpg,AMSA18.jpg,MS,2,num_2,32,num_6,2.79994605169,,,2017_Apr_18_1630,60.0137628658,FEMA4ImagesEEG,001,200200,
AFNE01.JPG,AFNE01.JPG,AFNE01.JPG,AFNE01.JPG,AFNE01.JPG,AFNE01.JPG,,,,,,,,,,,,,1,5,15,7,,,,,,,,,,,AMNE20.jpg,AMNE19.jpg,AMSA03.jpg,AMSA12.jpg,AMSA03.jpg,MS,2,num_2,16,num_2,1.84992938928,,,2017_Apr_18_1630,60.0137628658,FEMA4ImagesEEG,001,200200,
AFNE01.JPG,AFNE01.JPG,AFNE01.JPG,AFNE01.JPG,AFNE01.JPG,AFNE01.JPG,,,,,,,,,,,,,1,6,16,8,,,,,,,,,,,AMNE12.jpg,AMNE08.jpg,AMSA07.jpg,AMSA20.jpg,AMNE12.jpg,MN,1,num_8,16,num_8,0.78345108201,,,2017_Apr_18_1630,60.0137628658,FEMA4ImagesEEG,001,200200,
AFNE01.JPG,AFNE01.JPG,AFNE01.JPG,AFNE01.JPG,AFNE01.JPG,AFNE01.JPG,,,,,,,,,,,,,1,7,17,9,,,,,,,,,,,AMSA01.jpg,AMNE08.jpg,AMNE19.jpg,AMSA03.jpg,AMSA01.jpg,MS,2,num_8,32,num_2,1.21676349246,,,2017_Apr_18_1630,60.0137628658,FEMA4ImagesEEG,001,200200,
AFNE01.JPG,AFNE01.JPG,AFNE01.JPG,AFNE01.JPG,AFNE01.JPG,AFNE01.JPG,,,,,,,,,,,,,1,8,18,3,,,,,,,,,,,AMNE13.jpg,AMNE04.jpg,AMSA10.jpg,AMSA07.jpg,AMNE04.jpg,MN,1,num_6,32,num_2,1.10010074415,,,2017_Apr_18_1630,60.0137628658,FEMA4ImagesEEG,001,200200,
AFNE01.JPG,AFNE01.JPG,AFNE01.JPG,AFNE01.JPG,AFNE01.JPG,AFNE01.JPG,,,,,,,,,,,,,1,9,19,2,,,,,,,,,,,AMSA19.jpg,AMNE19.jpg,AMNE14.jpg,AMSA11.jpg,AMSA11.jpg,MS,2,num_4,16,num_4,1.21669196764,,,2017_Apr_18_1630,60.0137628658,FEMA4ImagesEEG,001,200200,
AFNE01.JPG,AFNE01.JPG,AFNE01.JPG,AFNE01.JPG,AFNE01.JPG,AFNE01.JPG,,,,,,,,,,,,,2,0,20,9,,,,,,,,,,,AMSA09.jpg,AMNE03.jpg,AMNE09.jpg,AMSA02.jpg,AMSA09.jpg,MS,2,num_8,16,num_8,1.53343304043,,,2017_Apr_18_1630,60.0137628658,FEMA4ImagesEEG,001,200200,
AFNE01.JPG,AFNE01.JPG,AFNE01.JPG,AFNE01.JPG,AFNE01.JPG,AFNE01.JPG,,,,,,,,,,,,,2,1,21,0,,,,,,,,,,,AMSA05.jpg,AMSA03.jpg,AMNE06.jpg,AMNE08.jpg,AMNE08.jpg,MN,1,num_4,16,num_4,0.616826164871,,,2017_Apr_18_1630,60.0137628658,FEMA4ImagesEEG,001,200200,
AFNE01.JPG,AFNE01.JPG,AFNE01.JPG,AFNE01.JPG,AFNE01.JPG,AFNE01.JPG,,,,,,,,,,,,,2,2,22,7,,,,,,,,,,,AMSA01.jpg,AMNE09.jpg,AMNE13.jpg,AMSA17.jpg,AMSA01.jpg,MS,2,num_8,16,num_8,1.38342657752,,,2017_Apr_18_1630,60.0137628658,FEMA4ImagesEEG,001,200200,
AFNE01.JPG,AFNE01.JPG,AFNE01.JPG,AFNE01.JPG,AFNE01.JPG,AFNE01.JPG,,,,,,,,,,,,,2,3,23,4,,,,,,,,,,,AMSA20.jpg,AMNE12.jpg,AMSA07.jpg,AMNE09.jpg,AMNE09.jpg,MN,1,num_4,16,num_4,1.11677083737,,,2017_Apr_18_1630,60.0137628658,FEMA4ImagesEEG,001,200200,
AFNE01.JPG,AFNE01.JPG,AFNE01.JPG,AFNE01.JPG,AFNE01.JPG,AFNE01.JPG,,,,,,,,,,,,,2,4,24,3,,,,,,,,,,,AMSA12.jpg,AMNE16.jpg,AMNE06.jpg,AMSA05.jpg,AMSA12.jpg,MS,2,num_8,32,num_6,0.950214558412,,,2017_Apr_18_1630,60.0137628658,FEMA4ImagesEEG,001,200200,
AFNE01.JPG,AFNE01.JPG,AFNE01.JPG,AFNE01.JPG,AFNE01.JPG,AFNE01.JPG,,,,,,,,,,,,,2,5,25,2,,,,,,,,,,,AMNE02.jpg,AMSA05.jpg,AMNE05.jpg,AMSA01.jpg,AMSA01.jpg,MS,2,num_4,16,num_4,0.816764005634,,,2017_Apr_18_1630,60.0137628658,FEMA4ImagesEEG,001,200200,
AFNE01.JPG,AFNE01.JPG,AFNE01.JPG,AFNE01.JPG,AFNE01.JPG,AFNE01.JPG,,,,,,,,,,,,,2,6,26,5,,,,,,,,,,,AMNE04.jpg,AMSA09.jpg,AMSA12.jpg,AMNE01.jpg,AMNE04.jpg,MN,1,num_8,16,num_8,1.01676214534,,,2017_Apr_18_1630,60.0137628658,FEMA4ImagesEEG,001,200200,
AFNE01.JPG,AFNE01.JPG,AFNE01.JPG,AFNE01.JPG,AFNE01.JPG,AFNE01.JPG,,,,,,,,,,,,,2,7,27,8,,,,,,,,,,,AMNE18.jpg,AMSA17.jpg,AMNE19.jpg,AMSA01.jpg,AMNE18.jpg,MN,1,num_8,32,num_6,1.16676540085,,,2017_Apr_18_1630,60.0137628658,FEMA4ImagesEEG,001,200200,
AFNE01.JPG,AFNE01.JPG,AFNE01.JPG,AFNE01.JPG,AFNE01.JPG,AFNE01.JPG,,,,,,,,,,,,,2,8,28,1,,,,,,,,,,,AMNE04.jpg,AMSA20.jpg,AMSA18.jpg,AMNE14.jpg,AMNE14.jpg,MN,1,num_4,16,num_4,0.866874676649,,,2017_Apr_18_1630,60.0137628658,FEMA4ImagesEEG,001,200200,
AFNE01.JPG,AFNE01.JPG,AFNE01.JPG,AFNE01.JPG,AFNE01.JPG,AFNE01.JPG,,,,,,,,,,,,,2,9,29,6,,,,,,,,,,,AMNE08.jpg,AMSA08.jpg,AMNE05.jpg,AMSA09.jpg,AMNE08.jpg,MN,1,num_8,16,num_8,0.683507500013,,,2017_Apr_18_1630,60.0137628658,FEMA4ImagesEEG,001,200200,
AFNE01.JPG,AFNE01.JPG,AFNE01.JPG,AFNE01.JPG,AFNE01.JPG,AFNE01.JPG,,,,,,,,,,,,,3,0,30,9,,,,,,,,,,,AMSA06.jpg,AMSA20.jpg,AMNE07.jpg,AMNE18.jpg,AMNE18.jpg,MN,1,num_4,16,num_4,0.833503699236,,,2017_Apr_18_1630,60.0137628658,FEMA4ImagesEEG,001,200200,
AFNE01.JPG,AFNE01.JPG,AFNE01.JPG,AFNE01.JPG,AFNE01.JPG,AFNE01.JPG,,,,,,,,,,,,,3,1,31,3,,,,,,,,,,,AMSA03.jpg,AMSA08.jpg,AMNE01.jpg,AMNE06.jpg,AMNE01.jpg,MN,1,num_2,16,num_2,0.866803472585,,,2017_Apr_18_1630,60.0137628658,FEMA4ImagesEEG,001,200200,
AFNE01.JPG,AFNE01.JPG,AFNE01.JPG,AFNE01.JPG,AFNE01.JPG,AFNE01.JPG,,,,,,,,,,,,,3,2,32,8,,,,,,,,,,,AMSA10.jpg,AMNE07.jpg,AMSA09.jpg,AMNE02.jpg,AMSA10.jpg,MS,2,num_8,16,num_8,1.16682056797,,,2017_Apr_18_1630,60.0137628658,FEMA4ImagesEEG,001,200200,
AFNE01.JPG,AFNE01.JPG,AFNE01.JPG,AFNE01.JPG,AFNE01.JPG,AFNE01.JPG,,,,,,,,,,,,,3,3,33,1,,,,,,,,,,,AMNE19.jpg,AMSA10.jpg,AMNE03.jpg,AMSA09.jpg,AMSA09.jpg,MS,2,num_4,32,num_6,1.01663417045,,,2017_Apr_18_1630,60.0137628658,FEMA4ImagesEEG,001,200200,
AFNE01.JPG,AFNE01.JPG,AFNE01.JPG,AFNE01.JPG,AFNE01.JPG,AFNE01.JPG,,,,,,,,,,,,,3,4,34,6,,,,,,,,,,,AMNE10.jpg,AMNE15.jpg,AMSA06.jpg,AMSA04.jpg,AMNE10.jpg,MN,1,num_8,32,num_2,0.900239880764,,,2017_Apr_18_1630,60.0137628658,FEMA4ImagesEEG,001,200200,
AFNE01.JPG,AFNE01.JPG,AFNE01.JPG,AFNE01.JPG,AFNE01.JPG,AFNE01.JPG,,,,,,,,,,,,,3,5,35,2,,,,,,,,,,,AMSA01.jpg,AMNE05.jpg,AMNE07.jpg,AMSA13.jpg,AMNE05.jpg,MN,1,num_6,16,num_6,0.8167768352,,,2017_Apr_18_1630,60.0137628658,FEMA4ImagesEEG,001,200200,
AFNE01.JPG,AFNE01.JPG,AFNE01.JPG,AFNE01.JPG,AFNE01.JPG,AFNE01.JPG,,,,,,,,,,,,,3,6,36,7,,,,,,,,,,,AMSA02.jpg,AMNE18.jpg,AMNE16.jpg,AMSA07.jpg,AMNE16.jpg,MN,1,num_2,32,num_6,0.750116668845,,,2017_Apr_18_1630,60.0137628658,FEMA4ImagesEEG,001,200200,
AFNE01.JPG,AFNE01.JPG,AFNE01.JPG,AFNE01.JPG,AFNE01.JPG,AFNE01.JPG,,,,,,,,,,,,,3,7,37,5,,,,,,,,,,,AMNE08.jpg,AMSA20.jpg,AMNE19.jpg,AMSA15.jpg,AMNE08.jpg,MN,1,num_8,16,num_8,1.2167484177,,,2017_Apr_18_1630,60.0137628658,FEMA4ImagesEEG,001,200200,
AFNE01.JPG,AFNE01.JPG,AFNE01.JPG,AFNE01.JPG,AFNE01.JPG,AFNE01.JPG,,,,,,,,,,,,,3,8,38,4,,,,,,,,,,,AMNE04.jpg,AMNE08.jpg,AMSA09.jpg,AMSA01.jpg,AMNE08.jpg,MN,1,num_6,16,num_6,0.866790963759,,,2017_Apr_18_1630,60.0137628658,FEMA4ImagesEEG,001,200200,
AFNE01.JPG,AFNE01.JPG,AFNE01.JPG,AFNE01.JPG,AFNE01.JPG,AFNE01.JPG,,,,,,,,,,,,,3,9,39,0,,,,,,,,,,,AMSA02.jpg,AMNE15.jpg,AMNE07.jpg,AMSA03.jpg,AMSA03.jpg,MS,2,num_4,32,num_8,1.06678429239,,,2017_Apr_18_1630,60.0137628658,FEMA4ImagesEEG,001,200200,
AFNE01.JPG,AFNE01.JPG,AFNE01.JPG,AFNE01.JPG,AFNE01.JPG,AFNE01.JPG,,,,,,,,,,,,,4,0,40,8,,,,,,,,,,,AMNE01.jpg,AMSA14.jpg,AMNE20.jpg,AMSA07.jpg,AMSA14.jpg,MS,2,num_6,16,num_6,0.650132352981,,,2017_Apr_18_1630,60.0137628658,FEMA4ImagesEEG,001,200200,
AFNE01.JPG,AFNE01.JPG,AFNE01.JPG,AFNE01.JPG,AFNE01.JPG,AFNE01.JPG,,,,,,,,,,,,,4,1,41,1,,,,,,,,,,,AMNE10.jpg,AMNE16.jpg,AMSA20.jpg,AMSA18.jpg,AMSA18.jpg,MS,2,num_4,16,num_4,0.450216963945,,,2017_Apr_18_1630,60.0137628658,FEMA4ImagesEEG,001,200200,
AFNE01.JPG,AFNE01.JPG,AFNE01.JPG,AFNE01.JPG,AFNE01.JPG,AFNE01.JPG,,,,,,,,,,,,,4,2,42,2,,,,,,,,,,,AMSA20.jpg,AMNE01.jpg,AMSA09.jpg,AMNE19.jpg,AMSA09.jpg,MS,2,num_2,32,num_8,1.45004697223,,,2017_Apr_18_1630,60.0137628658,FEMA4ImagesEEG,001,200200,
AFNE01.JPG,AFNE01.JPG,AFNE01.JPG,AFNE01.JPG,AFNE01.JPG,AFNE01.JPG,,,,,,,,,,,,,4,3,43,4,,,,,,,,,,,AMSA07.jpg,AMSA10.jpg,AMNE07.jpg,AMNE05.jpg,AMNE05.jpg,MN,1,num_4,16,num_4,1.28343648837,,,2017_Apr_18_1630,60.0137628658,FEMA4ImagesEEG,001,200200,
AFNE01.JPG,AFNE01.JPG,AFNE01.JPG,AFNE01.JPG,AFNE01.JPG,AFNE01.JPG,,,,,,,,,,,,,4,4,44,9,,,,,,,,,,,AMSA20.jpg,AMNE10.jpg,AMNE18.jpg,AMSA10.jpg,AMNE18.jpg,MN,1,num_2,32,num_6,1.06671501274,,,2017_Apr_18_1630,60.0137628658,FEMA4ImagesEEG,001,200200,
AFNE01.JPG,AFNE01.JPG,AFNE01.JPG,AFNE01.JPG,AFNE01.JPG,AFNE01.JPG,,,,,,,,,,,,,4,5,45,0,,,,,,,,,,,AMSA16.jpg,AMSA13.jpg,AMNE04.jpg,AMNE12.jpg,AMNE12.jpg,MN,1,num_4,32,num_2,0.88356016537,,,2017_Apr_18_1630,60.0137628658,FEMA4ImagesEEG,001,200200,
AFNE01.JPG,AFNE01.JPG,AFNE01.JPG,AFNE01.JPG,AFNE01.JPG,AFNE01.JPG,,,,,,,,,,,,,4,6,46,7,,,,,,,,,,,AMSA12.jpg,AMNE18.jpg,AMSA19.jpg,AMNE13.jpg,AMNE18.jpg,MN,1,num_6,16,num_6,0.733493082778,,,2017_Apr_18_1630,60.0137628658,FEMA4ImagesEEG,001,200200,
AFNE01.JPG,AFNE01.JPG,AFNE01.JPG,AFNE01.JPG,AFNE01.JPG,AFNE01.JPG,,,,,,,,,,,,,4,7,47,6,,,,,,,,,,,AMSA17.jpg,AMSA03.jpg,AMNE15.jpg,AMNE03.jpg,AMNE15.jpg,MN,1,num_2,32,num_8,0.883439246725,,,2017_Apr_18_1630,60.0137628658,FEMA4ImagesEEG,001,200200,
AFNE01.JPG,AFNE01.JPG,AFNE01.JPG,AFNE01.JPG,AFNE01.JPG,AFNE01.JPG,,,,,,,,,,,,,4,8,48,3,,,,,,,,,,,AMSA14.jpg,AMSA20.jpg,AMNE13.jpg,AMNE07.jpg,AMNE07.jpg,MN,1,num_4,32,num_6,0.966432088797,,,2017_Apr_18_1630,60.0137628658,FEMA4ImagesEEG,001,200200,
AFNE01.JPG,AFNE01.JPG,AFNE01.JPG,AFNE01.JPG,AFNE01.JPG,AFNE01.JPG,,,,,,,,,,,,,4,9,49,5,,,,,,,,,,,AMNE02.jpg,AMSA12.jpg,AMSA18.jpg,AMNE18.jpg,AMSA18.jpg,MS,2,num_2,32,num_8,1.16677534375,,,2017_Apr_18_1630,60.0137628658,FEMA4ImagesEEG,001,200200,
AFNE01.JPG,AFNE01.JPG,AFNE01.JPG,AFNE01.JPG,AFNE01.JPG,AFNE01.JPG,,,,,,,,,,,,,5,0,50,9,,,,,,,,,,,AMSA10.jpg,AMNE18.jpg,AMNE11.jpg,AMSA15.jpg,AMNE11.jpg,MN,1,num_2,32,num_8,1.00021714036,,,2017_Apr_18_1630,60.0137628658,FEMA4ImagesEEG,001,200200,
AFNE01.JPG,AFNE01.JPG,AFNE01.JPG,AFNE01.JPG,AFNE01.JPG,AFNE01.JPG,,,,,,,,,,,,,5,1,51,2,,,,,,,,,,,AMNE02.jpg,AMSA13.jpg,AMNE19.jpg,AMSA11.jpg,AMSA13.jpg,MS,2,num_6,16,num_6,0.716757558781,,,2017_Apr_18_1630,60.0137628658,FEMA4ImagesEEG,001,200200,
AFNE01.JPG,AFNE01.JPG,AFNE01.JPG,AFNE01.JPG,AFNE01.JPG,AFNE01.JPG,,,,,,,,,,,,,5,2,52,3,,,,,,,,,,,AMNE18.jpg,AMSA01.jpg,AMSA09.jpg,AMNE15.jpg,AMNE15.jpg,MN,1,num_4,32,num_2,0.767009034258,,,2017_Apr_18_1630,60.0137628658,FEMA4ImagesEEG,001,200200,
AFNE01.JPG,AFNE01.JPG,AFNE01.JPG,AFNE01.JPG,AFNE01.JPG,AFNE01.JPG,,,,,,,,,,,,,5,3,53,4,,,,,,,,,,,AMNE19.jpg,AMSA05.jpg,AMSA04.jpg,AMNE13.jpg,AMNE13.jpg,MN,1,num_4,32,num_6,0.883471320631,,,2017_Apr_18_1630,60.0137628658,FEMA4ImagesEEG,001,200200,
AFNE01.JPG,AFNE01.JPG,AFNE01.JPG,AFNE01.JPG,AFNE01.JPG,AFNE01.JPG,,,,,,,,,,,,,5,4,54,6,,,,,,,,,,,AMSA20.jpg,AMSA09.jpg,AMNE20.jpg,AMNE14.jpg,AMSA20.jpg,MS,2,num_8,32,num_2,0.766782592458,,,2017_Apr_18_1630,60.0137628658,FEMA4ImagesEEG,001,200200,
AFNE01.JPG,AFNE01.JPG,AFNE01.JPG,AFNE01.JPG,AFNE01.JPG,AFNE01.JPG,,,,,,,,,,,,,5,5,55,0,,,,,,,,,,,AMSA17.jpg,AMNE07.jpg,AMNE15.jpg,AMSA07.jpg,AMSA07.jpg,MS,2,num_4,32,num_8,1.40008929376,,,2017_Apr_18_1630,60.0137628658,FEMA4ImagesEEG,001,200200,
AFNE01.JPG,AFNE01.JPG,AFNE01.JPG,AFNE01.JPG,AFNE01.JPG,AFNE01.JPG,,,,,,,,,,,,,5,6,56,5,,,,,,,,,,,AMNE04.jpg,AMSA06.jpg,AMNE18.jpg,AMSA01.jpg,AMSA01.jpg,MS,2,num_4,16,num_4,1.10010010267,,,2017_Apr_18_1630,60.0137628658,FEMA4ImagesEEG,001,200200,
AFNE01.JPG,AFNE01.JPG,AFNE01.JPG,AFNE01.JPG,AFNE01.JPG,AFNE01.JPG,,,,,,,,,,,,,5,7,57,1,,,,,,,,,,,AMSA15.jpg,AMSA06.jpg,AMNE18.jpg,AMNE03.jpg,AMNE03.jpg,MN,1,num_4,32,num_8,0.866762097241,,,2017_Apr_18_1630,60.0137628658,FEMA4ImagesEEG,001,200200,
AFNE01.JPG,AFNE01.JPG,AFNE01.JPG,AFNE01.JPG,AFNE01.JPG,AFNE01.JPG,,,,,,,,,,,,,5,8,58,8,,,,,,,,,,,AMNE16.jpg,AMNE15.jpg,AMSA08.jpg,AMSA16.jpg,AMNE16.jpg,MN,1,num_8,16,num_8,0.850232487734,,,2017_Apr_18_1630,60.0137628658,FEMA4ImagesEEG,001,200200,
AFNE01.JPG,AFNE01.JPG,AFNE01.JPG,AFNE01.JPG,AFNE01.JPG,AFNE01.JPG,,,,,,,,,,,,,5,9,59,7,,,,,,,,,,,AMNE19.jpg,AMSA07.jpg,AMNE10.jpg,AMSA01.jpg,AMNE19.jpg,MN,1,num_8,16,num_8,1.06661333845,,,2017_Apr_18_1630,60.0137628658,FEMA4ImagesEEG,001,200200,
,,,,,,,,,,,,,,,,,,,,,,,,,,,,,,,,,,,,,,,,,,,space,7.01600327667,2017_Apr_18_1630,60.0137628658,FEMA4ImagesEEG,001,200200,
AFNE01.JPG,AFNE01.JPG,AFNE01.JPG,AFNE01.JPG,AFNE01.JPG,AFNE01.JPG,,,,,,,,,,,,,,,,,0,0,0,7,,,,,,,AFNE17.jpg,AFSA02.jpg,AFSA19.jpg,AFNE12.jpg,AFSA02.jpg,FS,4,num_6,32,num_8,0.916732605285,,,2017_Apr_18_1630,60.0137628658,FEMA4ImagesEEG,001,200200,
AFNE01.JPG,AFNE01.JPG,AFNE01.JPG,AFNE01.JPG,AFNE01.JPG,AFNE01.JPG,,,,,,,,,,,,,,,,,0,1,1,9,,,,,,,AFSA16.jpg,AFNE15.jpg,AFSA19.jpg,AFNE03.jpg,AFSA16.jpg,FS,4,num_8,32,num_2,0.917136415781,,,2017_Apr_18_1630,60.0137628658,FEMA4ImagesEEG,001,200200,
AFNE01.JPG,AFNE01.JPG,AFNE01.JPG,AFNE01.JPG,AFNE01.JPG,AFNE01.JPG,,,,,,,,,,,,,,,,,0,2,2,4,,,,,,,AFNE06.jpg,AFSA02.jpg,AFSA15.jpg,AFNE09.jpg,AFNE09.jpg,FN,3,num_4,16,num_4,0.533450360337,,,2017_Apr_18_1630,60.0137628658,FEMA4ImagesEEG,001,200200,
AFNE01.JPG,AFNE01.JPG,AFNE01.JPG,AFNE01.JPG,AFNE01.JPG,AFNE01.JPG,,,,,,,,,,,,,,,,,0,3,3,3,,,,,,,AFSA15.jpg,AFNE07.jpg,AFNE05.jpg,AFSA04.jpg,AFSA04.jpg,FS,4,num_4,16,num_4,0.95011609151,,,2017_Apr_18_1630,60.0137628658,FEMA4ImagesEEG,001,200200,
AFNE01.JPG,AFNE01.JPG,AFNE01.JPG,AFNE01.JPG,AFNE01.JPG,AFNE01.JPG,,,,,,,,,,,,,,,,,0,4,4,8,,,,,,,AFSA02.jpg,AFNE16.jpg,AFNE06.jpg,AFSA01.jpg,AFSA02.jpg,FS,4,num_8,16,num_8,1.06675061479,,,2017_Apr_18_1630,60.0137628658,FEMA4ImagesEEG,001,200200,
AFNE01.JPG,AFNE01.JPG,AFNE01.JPG,AFNE01.JPG,AFNE01.JPG,AFNE01.JPG,,,,,,,,,,,,,,,,,0,5,5,6,,,,,,,AFSA15.jpg,AFNE17.jpg,AFNE06.jpg,AFSA01.jpg,AFNE06.jpg,FN,3,num_2,16,num_2,0.850170905818,,,2017_Apr_18_1630,60.0137628658,FEMA4ImagesEEG,001,200200,
AFNE01.JPG,AFNE01.JPG,AFNE01.JPG,AFNE01.JPG,AFNE01.JPG,AFNE01.JPG,,,,,,,,,,,,,,,,,0,6,6,2,,,,,,,AFNE10.jpg,AFNE07.jpg,AFSA08.jpg,AFSA15.jpg,AFSA08.jpg,FS,4,num_2,32,num_6,0.85014588818,,,2017_Apr_18_1630,60.0137628658,FEMA4ImagesEEG,001,200200,
AFNE01.JPG,AFNE01.JPG,AFNE01.JPG,AFNE01.JPG,AFNE01.JPG,AFNE01.JPG,,,,,,,,,,,,,,,,,0,7,7,5,,,,,,,AFNE08.jpg,AFNE10.jpg,AFSA18.jpg,AFSA02.jpg,AFSA02.jpg,FS,4,num_4,16,num_4,1.08337003122,,,2017_Apr_18_1630,60.0137628658,FEMA4ImagesEEG,001,200200,
AFNE01.JPG,AFNE01.JPG,AFNE01.JPG,AFNE01.JPG,AFNE01.JPG,AFNE01.JPG,,,,,,,,,,,,,,,,,0,8,8,0,,,,,,,AFSA19.jpg,AFSA20.jpg,AFNE05.jpg,AFNE07.jpg,AFNE05.jpg,FN,3,num_2,16,num_2,2.65000052923,,,2017_Apr_18_1630,60.0137628658,FEMA4ImagesEEG,001,200200,
AFNE01.JPG,AFNE01.JPG,AFNE01.JPG,AFNE01.JPG,AFNE01.JPG,AFNE01.JPG,,,,,,,,,,,,,,,,,0,9,9,1,,,,,,,AFNE02.jpg,AFSA05.jpg,AFNE12.jpg,AFSA01.jpg,AFSA05.jpg,FS,4,num_6,32,num_4,0.933483524757,,,2017_Apr_18_1630,60.0137628658,FEMA4ImagesEEG,001,200200,
AFNE01.JPG,AFNE01.JPG,AFNE01.JPG,AFNE01.JPG,AFNE01.JPG,AFNE01.JPG,,,,,,,,,,,,,,,,,1,0,10,5,,,,,,,AFSA13.jpg,AFNE18.jpg,AFSA02.jpg,AFNE09.jpg,AFNE09.jpg,FN,3,num_4,16,num_4,0.983608629045,,,2017_Apr_18_1630,60.0137628658,FEMA4ImagesEEG,001,200200,
AFNE01.JPG,AFNE01.JPG,AFNE01.JPG,AFNE01.JPG,AFNE01.JPG,AFNE01.JPG,,,,,,,,,,,,,,,,,1,1,11,3,,,,,,,AFSA18.jpg,AFNE14.jpg,AFSA10.jpg,AFNE05.jpg,AFNE05.jpg,FN,3,num_4,16,num_4,0.683550158297,,,2017_Apr_18_1630,60.0137628658,FEMA4ImagesEEG,001,200200,
AFNE01.JPG,AFNE01.JPG,AFNE01.JPG,AFNE01.JPG,AFNE01.JPG,AFNE01.JPG,,,,,,,,,,,,,,,,,1,2,12,6,,,,,,,AFNE20.jpg,AFNE16.jpg,AFSA11.jpg,AFSA16.jpg,AFSA11.jpg,FS,4,num_2,16,num_2,0.916836203993,,,2017_Apr_18_1630,60.0137628658,FEMA4ImagesEEG,001,200200,
AFNE01.JPG,AFNE01.JPG,AFNE01.JPG,AFNE01.JPG,AFNE01.JPG,AFNE01.JPG,,,,,,,,,,,,,,,,,1,3,13,9,,,,,,,AFNE03.jpg,AFSA04.jpg,AFNE01.jpg,AFSA07.jpg,AFNE03.jpg,FN,3,num_8,16,num_8,0.766800553843,,,2017_Apr_18_1630,60.0137628658,FEMA4ImagesEEG,001,200200,
AFNE01.JPG,AFNE01.JPG,AFNE01.JPG,AFNE01.JPG,AFNE01.JPG,AFNE01.JPG,,,,,,,,,,,,,,,,,1,4,14,8,,,,,,,AFNE10.jpg,AFNE01.jpg,AFSA08.jpg,AFSA11.jpg,AFSA11.jpg,FS,4,num_4,16,num_4,0.850089438085,,,2017_Apr_18_1630,60.0137628658,FEMA4ImagesEEG,001,200200,
AFNE01.JPG,AFNE01.JPG,AFNE01.JPG,AFNE01.JPG,AFNE01.JPG,AFNE01.JPG,,,,,,,,,,,,,,,,,1,5,15,0,,,,,,,AFSA20.jpg,AFNE04.jpg,AFNE05.jpg,AFSA08.jpg,AFSA08.jpg,FS,4,num_4,32,num_6,0.983434467707,,,2017_Apr_18_1630,60.0137628658,FEMA4ImagesEEG,001,200200,
AFNE01.JPG,AFNE01.JPG,AFNE01.JPG,AFNE01.JPG,AFNE01.JPG,AFNE01.JPG,,,,,,,,,,,,,,,,,1,6,16,1,,,,,,,AFSA01.jpg,AFSA13.jpg,AFNE03.jpg,AFNE12.jpg,AFSA01.jpg,FS,4,num_8,32,num_6,1.73336061754,,,2017_Apr_18_1630,60.0137628658,FEMA4ImagesEEG,001,200200,
AFNE01.JPG,AFNE01.JPG,AFNE01.JPG,AFNE01.JPG,AFNE01.JPG,AFNE01.JPG,,,,,,,,,,,,,,,,,1,7,17,4,,,,,,,AFSA11.jpg,AFSA20.jpg,AFNE13.jpg,AFNE02.jpg,AFNE13.jpg,FN,3,num_2,16,num_2,1.35009665473,,,2017_Apr_18_1630,60.0137628658,FEMA4ImagesEEG,001,200200,
AFNE01.JPG,AFNE01.JPG,AFNE01.JPG,AFNE01.JPG,AFNE01.JPG,AFNE01.JPG,,,,,,,,,,,,,,,,,1,8,18,2,,,,,,,AFSA05.jpg,AFNE15.jpg,AFSA13.jpg,AFNE08.jpg,AFNE08.jpg,FN,3,num_4,16,num_4,1.10019247553,,,2017_Apr_18_1630,60.0137628658,FEMA4ImagesEEG,001,200200,
AFNE01.JPG,AFNE01.JPG,AFNE01.JPG,AFNE01.JPG,AFNE01.JPG,AFNE01.JPG,,,,,,,,,,,,,,,,,1,9,19,7,,,,,,,AFNE16.jpg,AFSA17.jpg,AFSA10.jpg,AFNE06.jpg,AFSA10.jpg,FS,4,num_2,32,num_4,1.18341496678,,,2017_Apr_18_1630,60.0137628658,FEMA4ImagesEEG,001,200200,
AFNE01.JPG,AFNE01.JPG,AFNE01.JPG,AFNE01.JPG,AFNE01.JPG,AFNE01.JPG,,,,,,,,,,,,,,,,,2,0,20,1,,,,,,,AFSA05.jpg,AFNE06.jpg,AFNE01.jpg,AFSA20.jpg,AFNE06.jpg,FN,3,num_6,16,num_6,1.0167297507,,,2017_Apr_18_1630,60.0137628658,FEMA4ImagesEEG,001,200200,
AFNE01.JPG,AFNE01.JPG,AFNE01.JPG,AFNE01.JPG,AFNE01.JPG,AFNE01.JPG,,,,,,,,,,,,,,,,,2,1,21,4,,,,,,,AFNE02.jpg,AFSA18.jpg,AFNE14.jpg,AFSA07.jpg,AFSA18.jpg,FS,4,num_6,32,num_4,0.666822652769,,,2017_Apr_18_1630,60.0137628658,FEMA4ImagesEEG,001,200200,
AFNE01.JPG,AFNE01.JPG,AFNE01.JPG,AFNE01.JPG,AFNE01.JPG,AFNE01.JPG,,,,,,,,,,,,,,,,,2,2,22,5,,,,,,,AFNE02.jpg,AFNE04.jpg,AFSA02.jpg,AFSA09.jpg,AFSA02.jpg,FS,4,num_2,32,num_6,0.583490468751,,,2017_Apr_18_1630,60.0137628658,FEMA4ImagesEEG,001,200200,
AFNE01.JPG,AFNE01.JPG,AFNE01.JPG,AFNE01.JPG,AFNE01.JPG,AFNE01.JPG,,,,,,,,,,,,,,,,,2,3,23,7,,,,,,,AFNE12.jpg,AFNE09.jpg,AFSA12.jpg,AFSA18.jpg,AFNE09.jpg,FN,3,num_6,16,num_6,0.600449868638,,,2017_Apr_18_1630,60.0137628658,FEMA4ImagesEEG,001,200200,
AFNE01.JPG,AFNE01.JPG,AFNE01.JPG,AFNE01.JPG,AFNE01.JPG,AFNE01.JPG,,,,,,,,,,,,,,,,,2,4,24,0,,,,,,,AFNE18.jpg,AFSA19.jpg,AFSA18.jpg,AFNE04.jpg,AFNE18.jpg,FN,3,num_8,32,num_4,0.483342575957,,,2017_Apr_18_1630,60.0137628658,FEMA4ImagesEEG,001,200200,
AFNE01.JPG,AFNE01.JPG,AFNE01.JPG,AFNE01.JPG,AFNE01.JPG,AFNE01.JPG,,,,,,,,,,,,,,,,,2,5,25,2,,,,,,,AFNE10.jpg,AFSA09.jpg,AFSA19.jpg,AFNE04.jpg,AFNE04.jpg,FN,3,num_4,16,num_4,0.633468995278,,,2017_Apr_18_1630,60.0137628658,FEMA4ImagesEEG,001,200200,
AFNE01.JPG,AFNE01.JPG,AFNE01.JPG,AFNE01.JPG,AFNE01.JPG,AFNE01.JPG,,,,,,,,,,,,,,,,,2,6,26,6,,,,,,,AFNE19.jpg,AFSA20.jpg,AFNE04.jpg,AFSA06.jpg,AFSA06.jpg,FS,4,num_4,16,num_4,1.3001697672,,,2017_Apr_18_1630,60.0137628658,FEMA4ImagesEEG,001,200200,
AFNE01.JPG,AFNE01.JPG,AFNE01.JPG,AFNE01.JPG,AFNE01.JPG,AFNE01.JPG,,,,,,,,,,,,,,,,,2,7,27,9,,,,,,,AFNE02.jpg,AFSA04.jpg,AFSA05.jpg,AFNE17.jpg,AFSA05.jpg,FS,4,num_2,16,num_2,0.833510755503,,,2017_Apr_18_1630,60.0137628658,FEMA4ImagesEEG,001,200200,
AFNE01.JPG,AFNE01.JPG,AFNE01.JPG,AFNE01.JPG,AFNE01.JPG,AFNE01.JPG,,,,,,,,,,,,,,,,,2,8,28,3,,,,,,,AFSA20.jpg,AFNE13.jpg,AFNE09.jpg,AFSA03.jpg,AFSA03.jpg,FS,4,num_4,16,num_4,0.616796015398,,,2017_Apr_18_1630,60.0137628658,FEMA4ImagesEEG,001,200200,
AFNE01.JPG,AFNE01.JPG,AFNE01.JPG,AFNE01.JPG,AFNE01.JPG,AFNE01.JPG,,,,,,,,,,,,,,,,,2,9,29,8,,,,,,,AFNE11.jpg,AFSA17.jpg,AFSA10.jpg,AFNE07.jpg,AFSA17.jpg,FS,4,num_6,32,num_8,1.00014433259,,,2017_Apr_18_1630,60.0137628658,FEMA4ImagesEEG,001,200200,
AFNE01.JPG,AFNE01.JPG,AFNE01.JPG,AFNE01.JPG,AFNE01.JPG,AFNE01.JPG,,,,,,,,,,,,,,,,,3,0,30,5,,,,,,,AFSA13.jpg,AFNE07.jpg,AFNE03.jpg,AFSA14.jpg,AFNE03.jpg,FN,3,num_2,32,num_6,1.53338557103,,,2017_Apr_18_1630,60.0137628658,FEMA4ImagesEEG,001,200200,
AFNE01.JPG,AFNE01.JPG,AFNE01.JPG,AFNE01.JPG,AFNE01.JPG,AFNE01.JPG,,,,,,,,,,,,,,,,,3,1,31,2,,,,,,,AFNE02.jpg,AFNE19.jpg,AFSA15.jpg,AFSA10.jpg,AFSA10.jpg,FS,4,num_4,32,num_8,0.800000577336,,,2017_Apr_18_1630,60.0137628658,FEMA4ImagesEEG,001,200200,
AFNE01.JPG,AFNE01.JPG,AFNE01.JPG,AFNE01.JPG,AFNE01.JPG,AFNE01.JPG,,,,,,,,,,,,,,,,,3,2,32,6,,,,,,,AFNE19.jpg,AFSA19.jpg,AFSA14.jpg,AFNE05.jpg,AFSA19.jpg,FS,4,num_6,16,num_6,1.0667573503,,,2017_Apr_18_1630,60.0137628658,FEMA4ImagesEEG,001,200200,
AFNE01.JPG,AFNE01.JPG,AFNE01.JPG,AFNE01.JPG,AFNE01.JPG,AFNE01.JPG,,,,,,,,,,,,,,,,,3,3,33,1,,,,,,,AFNE04.jpg,AFNE20.jpg,AFSA09.jpg,AFSA15.jpg,AFSA15.jpg,FS,4,num_4,16,num_4,0.666794748482,,,2017_Apr_18_1630,60.0137628658,FEMA4ImagesEEG,001,200200,
AFNE01.JPG,AFNE01.JPG,AFNE01.JPG,AFNE01.JPG,AFNE01.JPG,AFNE01.JPG,,,,,,,,,,,,,,,,,3,4,34,8,,,,,,,AFSA17.jpg,AFNE05.jpg,AFNE07.jpg,AFSA20.jpg,AFSA17.jpg,FS,4,num_8,32,num_2,0.900022098926,,,2017_Apr_18_1630,60.0137628658,FEMA4ImagesEEG,001,200200,
AFNE01.JPG,AFNE01.JPG,AFNE01.JPG,AFNE01.JPG,AFNE01.JPG,AFNE01.JPG,,,,,,,,,,,,,,,,,3,5,35,0,,,,,,,AFNE08.jpg,AFSA20.jpg,AFNE14.jpg,AFSA13.jpg,AFNE08.jpg,FN,3,num_8,16,num_8,0.850364952974,,,2017_Apr_18_1630,60.0137628658,FEMA4ImagesEEG,001,200200,
AFNE01.JPG,AFNE01.JPG,AFNE01.JPG,AFNE01.JPG,AFNE01.JPG,AFNE01.JPG,,,,,,,,,,,,,,,,,3,6,36,4,,,,,,,AFNE09.jpg,AFNE05.jpg,AFSA15.jpg,AFSA20.jpg,AFSA15.jpg,FS,4,num_2,16,num_2,1.28339639599,,,2017_Apr_18_1630,60.0137628658,FEMA4ImagesEEG,001,200200,
AFNE01.JPG,AFNE01.JPG,AFNE01.JPG,AFNE01.JPG,AFNE01.JPG,AFNE01.JPG,,,,,,,,,,,,,,,,,3,7,37,9,,,,,,,AFNE04.jpg,AFNE20.jpg,AFSA02.jpg,AFSA17.jpg,AFSA02.jpg,FS,4,num_2,16,num_2,0.966744488658,,,2017_Apr_18_1630,60.0137628658,FEMA4ImagesEEG,001,200200,
AFNE01.JPG,AFNE01.JPG,AFNE01.JPG,AFNE01.JPG,AFNE01.JPG,AFNE01.JPG,,,,,,,,,,,,,,,,,3,8,38,7,,,,,,,AFNE17.jpg,AFNE18.jpg,AFSA19.jpg,AFSA06.jpg,AFNE17.jpg,FN,3,num_8,32,num_2,0.883470358414,,,2017_Apr_18_1630,60.0137628658,FEMA4ImagesEEG,001,200200,
AFNE01.JPG,AFNE01.JPG,AFNE01.JPG,AFNE01.JPG,AFNE01.JPG,AFNE01.JPG,,,,,,,,,,,,,,,,,3,9,39,3,,,,,,,AFNE20.jpg,AFNE08.jpg,AFSA13.jpg,AFSA03.jpg,AFNE08.jpg,FN,3,num_6,16,num_6,0.616769394052,,,2017_Apr_18_1630,60.0137628658,FEMA4ImagesEEG,001,200200,
AFNE01.JPG,AFNE01.JPG,AFNE01.JPG,AFNE01.JPG,AFNE01.JPG,AFNE01.JPG,,,,,,,,,,,,,,,,,4,0,40,7,,,,,,,AFSA15.jpg,AFNE07.jpg,AFSA18.jpg,AFNE01.jpg,AFSA15.jpg,FS,4,num_8,32,num_2,0.700157386673,,,2017_Apr_18_1630,60.0137628658,FEMA4ImagesEEG,001,200200,
AFNE01.JPG,AFNE01.JPG,AFNE01.JPG,AFNE01.JPG,AFNE01.JPG,AFNE01.JPG,,,,,,,,,,,,,,,,,4,1,41,2,,,,,,,AFSA01.jpg,AFNE05.jpg,AFSA04.jpg,AFNE11.jpg,AFSA01.jpg,FS,4,num_8,16,num_8,0.733431821616,,,2017_Apr_18_1630,60.0137628658,FEMA4ImagesEEG,001,200200,
AFNE01.JPG,AFNE01.JPG,AFNE01.JPG,AFNE01.JPG,AFNE01.JPG,AFNE01.JPG,,,,,,,,,,,,,,,,,4,2,42,4,,,,,,,AFSA05.jpg,AFSA16.jpg,AFNE02.jpg,AFNE06.jpg,AFNE02.jpg,FN,3,num_2,16,num_2,1.16671440334,,,2017_Apr_18_1630,60.0137628658,FEMA4ImagesEEG,001,200200,
AFNE01.JPG,AFNE01.JPG,AFNE01.JPG,AFNE01.JPG,AFNE01.JPG,AFNE01.JPG,,,,,,,,,,,,,,,,,4,3,43,0,,,,,,,AFNE15.jpg,AFNE18.jpg,AFSA06.jpg,AFSA09.jpg,AFSA09.jpg,FS,4,num_4,16,num_4,1.06647542065,,,2017_Apr_18_1630,60.0137628658,FEMA4ImagesEEG,001,200200,
AFNE01.JPG,AFNE01.JPG,AFNE01.JPG,AFNE01.JPG,AFNE01.JPG,AFNE01.JPG,,,,,,,,,,,,,,,,,4,4,44,6,,,,,,,AFNE11.jpg,AFSA05.jpg,AFNE05.jpg,AFSA14.jpg,AFNE11.jpg,FN,3,num_8,32,num_4,0.833461361675,,,2017_Apr_18_1630,60.0137628658,FEMA4ImagesEEG,001,200200,
AFNE01.JPG,AFNE01.JPG,AFNE01.JPG,AFNE01.JPG,AFNE01.JPG,AFNE01.JPG,,,,,,,,,,,,,,,,,4,5,45,3,,,,,,,AFSA19.jpg,AFSA01.jpg,AFNE01.jpg,AFNE03.jpg,AFNE01.jpg,FN,3,num_2,16,num_2,1.03346046362,,,2017_Apr_18_1630,60.0137628658,FEMA4ImagesEEG,001,200200,
AFNE01.JPG,AFNE01.JPG,AFNE01.JPG,AFNE01.JPG,AFNE01.JPG,AFNE01.JPG,,,,,,,,,,,,,,,,,4,6,46,9,,,,,,,AFSA02.jpg,AFNE11.jpg,AFNE10.jpg,AFSA09.jpg,AFSA02.jpg,FS,4,num_8,32,num_6,1.1665655804,,,2017_Apr_18_1630,60.0137628658,FEMA4ImagesEEG,001,200200,
AFNE01.JPG,AFNE01.JPG,AFNE01.JPG,AFNE01.JPG,AFNE01.JPG,AFNE01.JPG,,,,,,,,,,,,,,,,,4,7,47,5,,,,,,,AFSA11.jpg,AFNE20.jpg,AFNE05.jpg,AFSA09.jpg,AFNE05.jpg,FN,3,num_2,32,num_6,0.683503971872,,,2017_Apr_18_1630,60.0137628658,FEMA4ImagesEEG,001,200200,
AFNE01.JPG,AFNE01.JPG,AFNE01.JPG,AFNE01.JPG,AFNE01.JPG,AFNE01.JPG,,,,,,,,,,,,,,,,,4,8,48,8,,,,,,,AFNE18.jpg,AFSA05.jpg,AFSA17.jpg,AFNE08.jpg,AFNE18.jpg,FN,3,num_8,32,num_4,1.61671839653,,,2017_Apr_18_1630,60.0137628658,FEMA4ImagesEEG,001,200200,
AFNE01.JPG,AFNE01.JPG,AFNE01.JPG,AFNE01.JPG,AFNE01.JPG,AFNE01.JPG,,,,,,,,,,,,,,,,,4,9,49,1,,,,,,,AFSA02.jpg,AFNE15.jpg,AFNE05.jpg,AFSA17.jpg,AFNE05.jpg,FN,3,num_2,16,num_2,0.85012022905,,,2017_Apr_18_1630,60.0137628658,FEMA4ImagesEEG,001,200200,
AFNE01.JPG,AFNE01.JPG,AFNE01.JPG,AFNE01.JPG,AFNE01.JPG,AFNE01.JPG,,,,,,,,,,,,,,,,,5,0,50,6,,,,,,,AFNE15.jpg,AFNE12.jpg,AFSA18.jpg,AFSA13.jpg,AFNE15.jpg,FN,3,num_8,32,num_6,0.866726815933,,,2017_Apr_18_1630,60.0137628658,FEMA4ImagesEEG,001,200200,
AFNE01.JPG,AFNE01.JPG,AFNE01.JPG,AFNE01.JPG,AFNE01.JPG,AFNE01.JPG,,,,,,,,,,,,,,,,,5,1,51,9,,,,,,,AFNE08.jpg,AFSA16.jpg,AFNE15.jpg,AFSA15.jpg,AFSA16.jpg,FS,4,num_6,32,num_4,1.23337456968,,,2017_Apr_18_1630,60.0137628658,FEMA4ImagesEEG,001,200200,
AFNE01.JPG,AFNE01.JPG,AFNE01.JPG,AFNE01.JPG,AFNE01.JPG,AFNE01.JPG,,,,,,,,,,,,,,,,,5,2,52,3,,,,,,,AFNE04.jpg,AFNE03.jpg,AFSA11.jpg,AFSA05.jpg,AFSA05.jpg,FS,4,num_4,16,num_4,1.08341814209,,,2017_Apr_18_1630,60.0137628658,FEMA4ImagesEEG,001,200200,
AFNE01.JPG,AFNE01.JPG,AFNE01.JPG,AFNE01.JPG,AFNE01.JPG,AFNE01.JPG,,,,,,,,,,,,,,,,,5,3,53,4,,,,,,,AFNE20.jpg,AFSA12.jpg,AFNE14.jpg,AFSA01.jpg,AFNE14.jpg,FN,3,num_2,16,num_2,2.98326768339,,,2017_Apr_18_1630,60.0137628658,FEMA4ImagesEEG,001,200200,
AFNE01.JPG,AFNE01.JPG,AFNE01.JPG,AFNE01.JPG,AFNE01.JPG,AFNE01.JPG,,,,,,,,,,,,,,,,,5,4,54,8,,,,,,,AFNE19.jpg,AFSA20.jpg,AFNE01.jpg,AFSA13.jpg,AFNE01.jpg,FN,3,num_2,16,num_2,1.46669942481,,,2017_Apr_18_1630,60.0137628658,FEMA4ImagesEEG,001,200200,
AFNE01.JPG,AFNE01.JPG,AFNE01.JPG,AFNE01.JPG,AFNE01.JPG,AFNE01.JPG,,,,,,,,,,,,,,,,,5,5,55,0,,,,,,,AFSA03.jpg,AFNE11.jpg,AFSA18.jpg,AFNE06.jpg,AFSA18.jpg,FS,4,num_2,32,num_4,0.916721058675,,,2017_Apr_18_1630,60.0137628658,FEMA4ImagesEEG,001,200200,
AFNE01.JPG,AFNE01.JPG,AFNE01.JPG,AFNE01.JPG,AFNE01.JPG,AFNE01.JPG,,,,,,,,,,,,,,,,,5,6,56,7,,,,,,,AFNE15.jpg,AFSA08.jpg,AFNE12.jpg,AFSA01.jpg,AFSA01.jpg,FS,4,num_4,16,num_4,0.583624216961,,,2017_Apr_18_1630,60.0137628658,FEMA4ImagesEEG,001,200200,
AFNE01.JPG,AFNE01.JPG,AFNE01.JPG,AFNE01.JPG,AFNE01.JPG,AFNE01.JPG,,,,,,,,,,,,,,,,,5,7,57,1,,,,,,,AFNE14.jpg,AFSA16.jpg,AFSA19.jpg,AFNE20.jpg,AFSA19.jpg,FS,4,num_2,16,num_2,1.78339495265,,,2017_Apr_18_1630,60.0137628658,FEMA4ImagesEEG,001,200200,
AFNE01.JPG,AFNE01.JPG,AFNE01.JPG,AFNE01.JPG,AFNE01.JPG,AFNE01.JPG,,,,,,,,,,,,,,,,,5,8,58,2,,,,,,,AFSA03.jpg,AFNE18.jpg,AFSA10.jpg,AFNE06.jpg,AFNE18.jpg,FN,3,num_6,32,num_4,0.900111264389,,,2017_Apr_18_1630,60.0137628658,FEMA4ImagesEEG,001,200200,
AFNE01.JPG,AFNE01.JPG,AFNE01.JPG,AFNE01.JPG,AFNE01.JPG,AFNE01.JPG,,,,,,,,,,,,,,,,,5,9,59,5,,,,,,,AFNE03.jpg,AFSA11.jpg,AFNE02.jpg,AFSA19.jpg,AFSA19.jpg,FS,4,num_4,16,num_4,2.63338432016,,,2017_Apr_18_1630,60.0137628658,FEMA4ImagesEEG,001,200200,
,,,,,,,,,,,,,,,,,,,,,,,,,,,,,,,,,,,,,,,,,,,space,2.40002739112,2017_Apr_18_1630,60.0137628658,FEMA4ImagesEEG,001,200200,
AFNE01.JPG,AFNE01.JPG,AFNE01.JPG,AFNE01.JPG,AFNE01.JPG,AFNE01.JPG,,,,,,,,,,,,,,,,,,,,,0,0,0,9,,,AMSA03.jpg,AMNE06.jpg,AMSA20.jpg,AMNE20.jpg,AMNE06.jpg,MN,1,num_6,32,num_2,1.03345918066,,,2017_Apr_18_1630,60.0137628658,FEMA4ImagesEEG,001,200200,
AFNE01.JPG,AFNE01.JPG,AFNE01.JPG,AFNE01.JPG,AFNE01.JPG,AFNE01.JPG,,,,,,,,,,,,,,,,,,,,,0,1,1,1,,,AMSA09.jpg,AMSA08.jpg,AMNE09.jpg,AMNE19.jpg,AMSA09.jpg,MS,2,num_8,32,num_2,0.98343639214,,,2017_Apr_18_1630,60.0137628658,FEMA4ImagesEEG,001,200200,
AFNE01.JPG,AFNE01.JPG,AFNE01.JPG,AFNE01.JPG,AFNE01.JPG,AFNE01.JPG,,,,,,,,,,,,,,,,,,,,,0,2,2,7,,,AMNE20.jpg,AMSA17.jpg,AMSA10.jpg,AMNE19.jpg,AMSA10.jpg,MS,2,num_2,32,num_6,0.600174674502,,,2017_Apr_18_1630,60.0137628658,FEMA4ImagesEEG,001,200200,
AFNE01.JPG,AFNE01.JPG,AFNE01.JPG,AFNE01.JPG,AFNE01.JPG,AFNE01.JPG,,,,,,,,,,,,,,,,,,,,,0,3,3,2,,,AMSA02.jpg,AMNE10.jpg,AMSA11.jpg,AMNE02.jpg,AMNE10.jpg,MN,1,num_6,16,num_6,0.71675146473,,,2017_Apr_18_1630,60.0137628658,FEMA4ImagesEEG,001,200200,
AFNE01.JPG,AFNE01.JPG,AFNE01.JPG,AFNE01.JPG,AFNE01.JPG,AFNE01.JPG,,,,,,,,,,,,,,,,,,,,,0,4,4,3,,,AMNE02.jpg,AMNE12.jpg,AMSA02.jpg,AMSA20.jpg,AMSA20.jpg,MS,2,num_4,32,num_2,1.05012478353,,,2017_Apr_18_1630,60.0137628658,FEMA4ImagesEEG,001,200200,
AFNE01.JPG,AFNE01.JPG,AFNE01.JPG,AFNE01.JPG,AFNE01.JPG,AFNE01.JPG,,,,,,,,,,,,,,,,,,,,,0,5,5,6,,,AMSA02.jpg,AMNE06.jpg,AMSA01.jpg,AMNE15.jpg,AMNE06.jpg,MN,1,num_6,16,num_6,0.616762979262,,,2017_Apr_18_1630,60.0137628658,FEMA4ImagesEEG,001,200200,
AFNE01.JPG,AFNE01.JPG,AFNE01.JPG,AFNE01.JPG,AFNE01.JPG,AFNE01.JPG,,,,,,,,,,,,,,,,,,,,,0,6,6,8,,,AMSA11.jpg,AMSA16.jpg,AMNE03.jpg,AMNE17.jpg,AMNE03.jpg,MN,1,num_2,16,num_2,0.883465547333,,,2017_Apr_18_1630,60.0137628658,FEMA4ImagesEEG,001,200200,
AFNE01.JPG,AFNE01.JPG,AFNE01.JPG,AFNE01.JPG,AFNE01.JPG,AFNE01.JPG,,,,,,,,,,,,,,,,,,,,,0,7,7,5,,,AMNE04.jpg,AMSA16.jpg,AMSA15.jpg,AMNE18.jpg,AMNE04.jpg,MN,1,num_8,32,num_2,0.750195570668,,,2017_Apr_18_1630,60.0137628658,FEMA4ImagesEEG,001,200200,
AFNE01.JPG,AFNE01.JPG,AFNE01.JPG,AFNE01.JPG,AFNE01.JPG,AFNE01.JPG,,,,,,,,,,,,,,,,,,,,,0,8,8,4,,,AMSA17.jpg,AMNE09.jpg,AMSA08.jpg,AMNE19.jpg,AMNE09.jpg,MN,1,num_6,16,num_6,0.950107431563,,,2017_Apr_18_1630,60.0137628658,FEMA4ImagesEEG,001,200200,
AFNE01.JPG,AFNE01.JPG,AFNE01.JPG,AFNE01.JPG,AFNE01.JPG,AFNE01.JPG,,,,,,,,,,,,,,,,,,,,,0,9,9,0,,,AMSA08.jpg,AMNE04.jpg,AMNE05.jpg,AMSA14.jpg,AMSA14.jpg,MS,2,num_4,16,num_4,0.466792439154,,,2017_Apr_18_1630,60.0137628658,FEMA4ImagesEEG,001,200200,
AFNE01.JPG,AFNE01.JPG,AFNE01.JPG,AFNE01.JPG,AFNE01.JPG,AFNE01.JPG,,,,,,,,,,,,,,,,,,,,,1,0,10,0,,,AMNE16.jpg,AMSA17.jpg,AMSA15.jpg,AMNE04.jpg,AMNE04.jpg,MN,1,num_4,16,num_4,0.716796688954,,,2017_Apr_18_1630,60.0137628658,FEMA4ImagesEEG,001,200200,
AFNE01.JPG,AFNE01.JPG,AFNE01.JPG,AFNE01.JPG,AFNE01.JPG,AFNE01.JPG,,,,,,,,,,,,,,,,,,,,,1,1,11,2,,,AMNE18.jpg,AMSA08.jpg,AMNE15.jpg,AMSA11.jpg,AMNE18.jpg,MN,1,num_8,32,num_4,0.98343126032,,,2017_Apr_18_1630,60.0137628658,FEMA4ImagesEEG,001,200200,
AFNE01.JPG,AFNE01.JPG,AFNE01.JPG,AFNE01.JPG,AFNE01.JPG,AFNE01.JPG,,,,,,,,,,,,,,,,,,,,,1,2,12,9,,,AMNE17.jpg,AMSA15.jpg,AMNE06.jpg,AMSA19.jpg,AMNE17.jpg,MN,1,num_8,32,num_4,0.616809807179,,,2017_Apr_18_1630,60.0137628658,FEMA4ImagesEEG,001,200200,
AFNE01.JPG,AFNE01.JPG,AFNE01.JPG,AFNE01.JPG,AFNE01.JPG,AFNE01.JPG,,,,,,,,,,,,,,,,,,,,,1,3,13,3,,,AMSA08.jpg,AMNE03.jpg,AMSA13.jpg,AMNE19.jpg,AMNE03.jpg,MN,1,num_6,32,num_4,2.51663529302,,,2017_Apr_18_1630,60.0137628658,FEMA4ImagesEEG,001,200200,
AFNE01.JPG,AFNE01.JPG,AFNE01.JPG,AFNE01.JPG,AFNE01.JPG,AFNE01.JPG,,,,,,,,,,,,,,,,,,,,,1,4,14,8,,,AMSA20.jpg,AMNE08.jpg,AMSA18.jpg,AMNE01.jpg,AMNE01.jpg,MN,1,num_4,16,num_4,0.566848279836,,,2017_Apr_18_1630,60.0137628658,FEMA4ImagesEEG,001,200200,
AFNE01.JPG,AFNE01.JPG,AFNE01.JPG,AFNE01.JPG,AFNE01.JPG,AFNE01.JPG,,,,,,,,,,,,,,,,,,,,,1,5,15,7,,,AMNE12.jpg,AMSA17.jpg,AMNE04.jpg,AMSA19.jpg,AMNE04.jpg,MN,1,num_2,32,num_4,1.15011968379,,,2017_Apr_18_1630,60.0137628658,FEMA4ImagesEEG,001,200200,
AFNE01.JPG,AFNE01.JPG,AFNE01.JPG,AFNE01.JPG,AFNE01.JPG,AFNE01.JPG,,,,,,,,,,,,,,,,,,,,,1,6,16,5,,,AMSA06.jpg,AMNE16.jpg,AMSA16.jpg,AMNE11.jpg,AMSA16.jpg,MS,2,num_2,16,num_2,1.2667340005,,,2017_Apr_18_1630,60.0137628658,FEMA4ImagesEEG,001,200200,
AFNE01.JPG,AFNE01.JPG,AFNE01.JPG,AFNE01.JPG,AFNE01.JPG,AFNE01.JPG,,,,,,,,,,,,,,,,,,,,,1,7,17,4,,,AMSA12.jpg,AMSA14.jpg,AMNE18.jpg,AMNE01.jpg,AMNE18.jpg,MN,1,num_2,32,num_8,1.53339294804,,,2017_Apr_18_1630,60.0137628658,FEMA4ImagesEEG,001,200200,
AFNE01.JPG,AFNE01.JPG,AFNE01.JPG,AFNE01.JPG,AFNE01.JPG,AFNE01.JPG,,,,,,,,,,,,,,,,,,,,,1,8,18,1,,,AMSA05.jpg,AMNE14.jpg,AMNE03.jpg,AMSA04.jpg,AMNE14.jpg,MN,1,num_6,16,num_6,0.833465210555,,,2017_Apr_18_1630,60.0137628658,FEMA4ImagesEEG,001,200200,
AFNE01.JPG,AFNE01.JPG,AFNE01.JPG,AFNE01.JPG,AFNE01.JPG,AFNE01.JPG,,,,,,,,,,,,,,,,,,,,,1,9,19,6,,,AMSA07.jpg,AMNE01.jpg,AMNE14.jpg,AMSA20.jpg,AMNE01.jpg,MN,1,num_6,16,num_6,0.933608933745,,,2017_Apr_18_1630,60.0137628658,FEMA4ImagesEEG,001,200200,
AFNE01.JPG,AFNE01.JPG,AFNE01.JPG,AFNE01.JPG,AFNE01.JPG,AFNE01.JPG,,,,,,,,,,,,,,,,,,,,,2,0,20,7,,,AMNE19.jpg,AMNE20.jpg,AMSA08.jpg,AMSA04.jpg,AMSA08.jpg,MS,2,num_2,32,num_8,0.933461073015,,,2017_Apr_18_1630,60.0137628658,FEMA4ImagesEEG,001,200200,
AFNE01.JPG,AFNE01.JPG,AFNE01.JPG,AFNE01.JPG,AFNE01.JPG,AFNE01.JPG,,,,,,,,,,,,,,,,,,,,,2,1,21,1,,,AMNE04.jpg,AMSA08.jpg,AMSA13.jpg,AMNE03.jpg,AMSA13.jpg,MS,2,num_2,32,num_6,1.00009846689,,,2017_Apr_18_1630,60.0137628658,FEMA4ImagesEEG,001,200200,
AFNE01.JPG,AFNE01.JPG,AFNE01.JPG,AFNE01.JPG,AFNE01.JPG,AFNE01.JPG,,,,,,,,,,,,,,,,,,,,,2,2,22,3,,,AMNE17.jpg,AMSA05.jpg,AMNE15.jpg,AMSA08.jpg,AMNE15.jpg,MN,1,num_2,16,num_2,0.666788012953,,,2017_Apr_18_1630,60.0137628658,FEMA4ImagesEEG,001,200200,
AFNE01.JPG,AFNE01.JPG,AFNE01.JPG,AFNE01.JPG,AFNE01.JPG,AFNE01.JPG,,,,,,,,,,,,,,,,,,,,,2,3,23,0,,,AMNE05.jpg,AMSA06.jpg,AMSA10.jpg,AMNE19.jpg,AMNE19.jpg,MN,1,num_4,16,num_4,0.733634528719,,,2017_Apr_18_1630,60.0137628658,FEMA4ImagesEEG,001,200200,
AFNE01.JPG,AFNE01.JPG,AFNE01.JPG,AFNE01.JPG,AFNE01.JPG,AFNE01.JPG,,,,,,,,,,,,,,,,,,,,,2,4,24,6,,,AMSA14.jpg,AMNE05.jpg,AMNE02.jpg,AMSA07.jpg,AMNE02.jpg,MN,1,num_2,32,num_4,0.833432495157,,,2017_Apr_18_1630,60.0137628658,FEMA4ImagesEEG,001,200200,
AFNE01.JPG,AFNE01.JPG,AFNE01.JPG,AFNE01.JPG,AFNE01.JPG,AFNE01.JPG,,,,,,,,,,,,,,,,,,,,,2,5,25,8,,,AMSA18.jpg,AMNE06.jpg,AMNE16.jpg,AMSA08.jpg,AMNE16.jpg,MN,1,num_2,32,num_6,0.950083376127,,,2017_Apr_18_1630,60.0137628658,FEMA4ImagesEEG,001,200200,
AFNE01.JPG,AFNE01.JPG,AFNE01.JPG,AFNE01.JPG,AFNE01.JPG,AFNE01.JPG,,,,,,,,,,,,,,,,,,,,,2,6,26,5,,,AMNE10.jpg,AMSA04.jpg,AMSA01.jpg,AMNE01.jpg,AMNE01.jpg,MN,1,num_4,16,num_4,1.08321543499,,,2017_Apr_18_1630,60.0137628658,FEMA4ImagesEEG,001,200200,
AFNE01.JPG,AFNE01.JPG,AFNE01.JPG,AFNE01.JPG,AFNE01.JPG,AFNE01.JPG,,,,,,,,,,,,,,,,,,,,,2,7,27,4,,,AMNE06.jpg,AMNE05.jpg,AMSA13.jpg,AMSA08.jpg,AMNE05.jpg,MN,1,num_6,16,num_6,0.716625735018,,,2017_Apr_18_1630,60.0137628658,FEMA4ImagesEEG,001,200200,
AFNE01.JPG,AFNE01.JPG,AFNE01.JPG,AFNE01.JPG,AFNE01.JPG,AFNE01.JPG,,,,,,,,,,,,,,,,,,,,,2,8,28,9,,,AMSA01.jpg,AMNE14.jpg,AMSA12.jpg,AMNE06.jpg,AMNE06.jpg,MN,1,num_4,32,num_6,1.48341217634,,,2017_Apr_18_1630,60.0137628658,FEMA4ImagesEEG,001,200200,
AFNE01.JPG,AFNE01.JPG,AFNE01.JPG,AFNE01.JPG,AFNE01.JPG,AFNE01.JPG,,,,,,,,,,,,,,,,,,,,,2,9,29,2,,,AMNE15.jpg,AMSA01.jpg,AMNE10.jpg,AMSA12.jpg,AMSA01.jpg,MS,2,num_6,16,num_6,0.750096783013,,,2017_Apr_18_1630,60.0137628658,FEMA4ImagesEEG,001,200200,
AFNE01.JPG,AFNE01.JPG,AFNE01.JPG,AFNE01.JPG,AFNE01.JPG,AFNE01.JPG,,,,,,,,,,,,,,,,,,,,,3,0,30,5,,,AMSA15.jpg,AMNE18.jpg,AMNE05.jpg,AMSA12.jpg,AMSA15.jpg,MS,2,num_8,32,num_4,1.03343384227,,,2017_Apr_18_1630,60.0137628658,FEMA4ImagesEEG,001,200200,
AFNE01.JPG,AFNE01.JPG,AFNE01.JPG,AFNE01.JPG,AFNE01.JPG,AFNE01.JPG,,,,,,,,,,,,,,,,,,,,,3,1,31,1,,,AMSA16.jpg,AMNE10.jpg,AMSA03.jpg,AMNE17.jpg,AMNE17.jpg,MN,1,num_4,32,num_2,1.15010974088,,,2017_Apr_18_1630,60.0137628658,FEMA4ImagesEEG,001,200200,
AFNE01.JPG,AFNE01.JPG,AFNE01.JPG,AFNE01.JPG,AFNE01.JPG,AFNE01.JPG,,,,,,,,,,,,,,,,,,,,,3,2,32,0,,,AMSA09.jpg,AMSA16.jpg,AMNE13.jpg,AMNE09.jpg,AMSA16.jpg,MS,2,num_6,16,num_6,0.566790546785,,,2017_Apr_18_1630,60.0137628658,FEMA4ImagesEEG,001,200200,
AFNE01.JPG,AFNE01.JPG,AFNE01.JPG,AFNE01.JPG,AFNE01.JPG,AFNE01.JPG,,,,,,,,,,,,,,,,,,,,,3,3,33,4,,,AMSA09.jpg,AMNE19.jpg,AMNE01.jpg,AMSA19.jpg,AMNE19.jpg,MN,1,num_6,32,num_4,0.583556541009,,,2017_Apr_18_1630,60.0137628658,FEMA4ImagesEEG,001,200200,
AFNE01.JPG,AFNE01.JPG,AFNE01.JPG,AFNE01.JPG,AFNE01.JPG,AFNE01.JPG,,,,,,,,,,,,,,,,,,,,,3,4,34,8,,,AMNE20.jpg,AMSA09.jpg,AMNE02.jpg,AMSA14.jpg,AMNE02.jpg,MN,1,num_2,16,num_2,1.03347778352,,,2017_Apr_18_1630,60.0137628658,FEMA4ImagesEEG,001,200200,
AFNE01.JPG,AFNE01.JPG,AFNE01.JPG,AFNE01.JPG,AFNE01.JPG,AFNE01.JPG,,,,,,,,,,,,,,,,,,,,,3,5,35,3,,,AMNE17.jpg,AMNE14.jpg,AMSA17.jpg,AMSA04.jpg,AMSA04.jpg,MS,2,num_4,16,num_4,0.550160545958,,,2017_Apr_18_1630,60.0137628658,FEMA4ImagesEEG,001,200200,
AFNE01.JPG,AFNE01.JPG,AFNE01.JPG,AFNE01.JPG,AFNE01.JPG,AFNE01.JPG,,,,,,,,,,,,,,,,,,,,,3,6,36,2,,,AMSA11.jpg,AMNE12.jpg,AMNE20.jpg,AMSA10.jpg,AMNE20.jpg,MN,1,num_2,32,num_8,0.783448195347,,,2017_Apr_18_1630,60.0137628658,FEMA4ImagesEEG,001,200200,
AFNE01.JPG,AFNE01.JPG,AFNE01.JPG,AFNE01.JPG,AFNE01.JPG,AFNE01.JPG,,,,,,,,,,,,,,,,,,,,,3,7,37,6,,,AMSA08.jpg,AMSA06.jpg,AMNE02.jpg,AMNE15.jpg,AMNE15.jpg,MN,1,num_4,32,num_6,1.06674965256,,,2017_Apr_18_1630,60.0137628658,FEMA4ImagesEEG,001,200200,
AFNE01.JPG,AFNE01.JPG,AFNE01.JPG,AFNE01.JPG,AFNE01.JPG,AFNE01.JPG,,,,,,,,,,,,,,,,,,,,,3,8,38,9,,,AMNE11.jpg,AMSA17.jpg,AMNE04.jpg,AMSA06.jpg,AMNE04.jpg,MN,1,num_2,16,num_2,1.5667110035,,,2017_Apr_18_1630,60.0137628658,FEMA4ImagesEEG,001,200200,
