IPosition2,IPosition3,IPosition1,IPosition6,IPosition4,IPosition5,TrialsF1.thisRepN,TrialsF1.thisTrialN,TrialsF1.thisN,TrialsF1.thisIndex,TrialsM1.thisRepN,TrialsM1.thisTrialN,TrialsM1.thisN,TrialsM1.thisIndex,TrialsF2.thisRepN,TrialsF2.thisTrialN,TrialsF2.thisN,TrialsF2.thisIndex,TrialsM2.thisRepN,TrialsM2.thisTrialN,TrialsM2.thisN,TrialsM2.thisIndex,TrialsF3.thisRepN,TrialsF3.thisTrialN,TrialsF3.thisN,TrialsF3.thisIndex,TrialsM3.thisRepN,TrialsM3.thisTrialN,TrialsM3.thisN,TrialsM3.thisIndex,InstrKey_resp.keys,InstrKey_resp.rt,Image0 _Position,Image1 _Position,Image2 _Position,Image3 _Position,Center_image,condition,code,correct_answer,accuracy,Key_Resp.keys,Key_Resp.rt,BreakKey_resp.keys,BreakKey_resp.rt,date,frameRate,expName,session,participant,
,,,,,,,,,,,,,,,,,,,,,,,,,,,,,,space,4.93314386206,,,,,,,,,,,,,,2017_May_04_1247,60.0019822738,FEMA4ImagesEEG,001,200287,
AFNE23.JPG,AFNE24.JPG,AFNE22.JPG,AFSA24.JPG,AFSA22.JPG,AFSA23.JPG,0,0,0,8,,,,,,,,,,,,,,,,,,,,,,,AFNE08.jpg,AFSA16.jpg,AFNE05.jpg,AFSA13.jpg,AFNE08.jpg,FN,3,num_8,16,num_8,1.01665052818,,,2017_May_04_1247,60.0019822738,FEMA4ImagesEEG,001,200287,
AMSA21.JPG,AMNE23.JPG,AMNE21.JPG,AMSA25.JPG,AMNE25.JPG,AMSA23.JPG,0,1,1,5,,,,,,,,,,,,,,,,,,,,,,,AFNE11.jpg,AFSA05.jpg,AFNE09.jpg,AFSA06.jpg,AFSA05.jpg,FS,4,num_6,32,num_2,0.583489185665,,,2017_May_04_1247,60.0019822738,FEMA4ImagesEEG,001,200287,
AFNE22.JPG,AFSA24.JPG,AFSA22.JPG,AFNE25.JPG,AFNE24.JPG,AFSA25.JPG,0,2,2,6,,,,,,,,,,,,,,,,,,,,,,,AFNE07.jpg,AFSA17.jpg,AFNE11.jpg,AFSA03.jpg,AFSA17.jpg,FS,4,num_6,16,num_6,0.316766731907,,,2017_May_04_1247,60.0019822738,FEMA4ImagesEEG,001,200287,
AFSA21.JPG,AFNE22.JPG,AFNE21.JPG,AFSA23.JPG,AFSA22.JPG,AFNE23.JPG,0,3,3,0,,,,,,,,,,,,,,,,,,,,,,,AFSA12.jpg,AFNE04.jpg,AFSA13.jpg,AFNE11.jpg,AFNE11.jpg,FN,3,num_4,16,num_4,0.550139377126,,,2017_May_04_1247,60.0019822738,FEMA4ImagesEEG,001,200287,
AMNE22.JPG,AMSA24.JPG,AMSA22.JPG,AMNE25.JPG,AMNE24.JPG,AMSA25.JPG,0,4,4,7,,,,,,,,,,,,,,,,,,,,,,,AFNE03.jpg,AFSA11.jpg,AFSA09.jpg,AFNE20.jpg,AFSA09.jpg,FS,4,num_2,32,num_8,0.666764599038,,,2017_May_04_1247,60.0019822738,FEMA4ImagesEEG,001,200287,
AFSA21.JPG,AFNE23.JPG,AFNE21.JPG,AFSA25.JPG,AFNE25.JPG,AFSA23.JPG,0,5,5,4,,,,,,,,,,,,,,,,,,,,,,,AFSA01.jpg,AFNE02.jpg,AFSA13.jpg,AFNE09.jpg,AFNE02.jpg,FN,3,num_6,32,num_2,1.45012587402,,,2017_May_04_1247,60.0019822738,FEMA4ImagesEEG,001,200287,
AMSA25.JPG,AMNE24.JPG,AMSA24.JPG,AMNE26.JPG,AMSA21.JPG,AMNE25.JPG,0,6,6,3,,,,,,,,,,,,,,,,,,,,,,,AFNE02.jpg,AFNE15.jpg,AFSA08.jpg,AFSA17.jpg,AFNE15.jpg,FN,3,num_6,32,num_8,0.216824753676,,,2017_May_04_1247,60.0019822738,FEMA4ImagesEEG,001,200287,
AMSA21.JPG,AMNE22.JPG,AMNE21.JPG,AMSA23.JPG,AMSA22.JPG,AMNE23.JPG,0,7,7,1,,,,,,,,,,,,,,,,,,,,,,,AFNE10.jpg,AFSA17.jpg,AFNE03.jpg,AFSA14.jpg,AFSA14.jpg,FS,4,num_4,16,num_4,0.300158220576,,,2017_May_04_1247,60.0019822738,FEMA4ImagesEEG,001,200287,
AMNE23.JPG,AMNE24.JPG,AMNE22.JPG,AMSA24.JPG,AMSA22.JPG,AMSA23.JPG,0,8,8,9,,,,,,,,,,,,,,,,,,,,,,,AFNE16.jpg,AFSA07.jpg,AFNE09.jpg,AFSA03.jpg,AFNE09.jpg,FN,3,num_2,32,num_8,0.650115995435,,,2017_May_04_1247,60.0019822738,FEMA4ImagesEEG,001,200287,
AFSA25.JPG,AFNE24.JPG,AFSA24.JPG,AFNE21.JPG,AFSA21.JPG,AFNE25.JPG,0,9,9,2,,,,,,,,,,,,,,,,,,,,,,,AFSA15.jpg,AFSA16.jpg,AFNE16.jpg,AFNE03.jpg,AFSA15.jpg,FS,4,num_8,32,num_6,0.533451643307,,,2017_May_04_1247,60.0019822738,FEMA4ImagesEEG,001,200287,
AFSA21.JPG,AFNE23.JPG,AFNE21.JPG,AFSA25.JPG,AFNE25.JPG,AFSA23.JPG,,,,,0,0,0,4,,,,,,,,,,,,,,,,,,,AMSA08.jpg,AMNE16.jpg,AMNE08.jpg,AMSA09.jpg,AMSA09.jpg,MS,2,num_4,16,num_4,0.333485256881,,,2017_May_04_1247,60.0019822738,FEMA4ImagesEEG,001,200287,
AFNE23.JPG,AFNE24.JPG,AFNE22.JPG,AFSA24.JPG,AFSA22.JPG,AFSA23.JPG,,,,,0,1,1,8,,,,,,,,,,,,,,,,,,,AMSA07.jpg,AMNE03.jpg,AMNE20.jpg,AMSA18.jpg,AMSA07.jpg,MS,2,num_8,16,num_8,0.550137452781,,,2017_May_04_1247,60.0019822738,FEMA4ImagesEEG,001,200287,
AMNE22.JPG,AMSA24.JPG,AMSA22.JPG,AMNE25.JPG,AMNE24.JPG,AMSA25.JPG,,,,,0,2,2,7,,,,,,,,,,,,,,,,,,,AMNE17.jpg,AMSA18.jpg,AMSA16.jpg,AMNE05.jpg,AMNE17.jpg,MN,1,num_8,32,num_2,0.883431548951,,,2017_May_04_1247,60.0019822738,FEMA4ImagesEEG,001,200287,
AMNE23.JPG,AMNE24.JPG,AMNE22.JPG,AMSA24.JPG,AMSA22.JPG,AMSA23.JPG,,,,,0,3,3,9,,,,,,,,,,,,,,,,,,,AMNE09.jpg,AMSA14.jpg,AMNE07.jpg,AMSA16.jpg,AMSA16.jpg,MS,2,num_4,16,num_4,0.466742403805,,,2017_May_04_1247,60.0019822738,FEMA4ImagesEEG,001,200287,
AFSA25.JPG,AFNE24.JPG,AFSA24.JPG,AFNE21.JPG,AFSA21.JPG,AFNE25.JPG,,,,,0,4,4,2,,,,,,,,,,,,,,,,,,,AMNE03.jpg,AMNE09.jpg,AMSA07.jpg,AMSA16.jpg,AMSA16.jpg,MS,2,num_4,32,num_8,0.266815468203,,,2017_May_04_1247,60.0019822738,FEMA4ImagesEEG,001,200287,
AMSA21.JPG,AMNE22.JPG,AMNE21.JPG,AMSA23.JPG,AMSA22.JPG,AMNE23.JPG,,,,,0,5,5,1,,,,,,,,,,,,,,,,,,,AMNE12.jpg,AMSA16.jpg,AMSA07.jpg,AMNE20.jpg,AMSA07.jpg,MS,2,num_2,16,num_2,0.633480541874,,,2017_May_04_1247,60.0019822738,FEMA4ImagesEEG,001,200287,
AFSA21.JPG,AFNE22.JPG,AFNE21.JPG,AFSA23.JPG,AFSA22.JPG,AFNE23.JPG,,,,,0,6,6,0,,,,,,,,,,,,,,,,,,,AMSA13.jpg,AMNE20.jpg,AMSA06.jpg,AMNE13.jpg,AMSA13.jpg,MS,2,num_8,32,num_6,0.350178763736,,,2017_May_04_1247,60.0019822738,FEMA4ImagesEEG,001,200287,
AMSA21.JPG,AMNE23.JPG,AMNE21.JPG,AMSA25.JPG,AMNE25.JPG,AMSA23.JPG,,,,,0,7,7,5,,,,,,,,,,,,,,,,,,,AMSA10.jpg,AMNE09.jpg,AMNE17.jpg,AMSA11.jpg,AMNE17.jpg,MN,1,num_2,32,num_8,0.450146721909,,,2017_May_04_1247,60.0019822738,FEMA4ImagesEEG,001,200287,
AFNE22.JPG,AFSA24.JPG,AFSA22.JPG,AFNE25.JPG,AFNE24.JPG,AFSA25.JPG,,,,,0,8,8,6,,,,,,,,,,,,,,,,,,,AMNE06.jpg,AMSA15.jpg,AMSA11.jpg,AMNE05.jpg,AMNE05.jpg,MN,1,num_4,16,num_4,0.700133331353,,,2017_May_04_1247,60.0019822738,FEMA4ImagesEEG,001,200287,
AMSA25.JPG,AMNE24.JPG,AMSA24.JPG,AMNE26.JPG,AMSA21.JPG,AMNE25.JPG,,,,,0,9,9,3,,,,,,,,,,,,,,,,,,,AMNE12.jpg,AMSA02.jpg,AMNE03.jpg,AMSA06.jpg,AMNE03.jpg,MN,1,num_2,32,num_8,0.900099076331,,,2017_May_04_1247,60.0019822738,FEMA4ImagesEEG,001,200287,
AFSA21.JPG,AFNE22.JPG,AFNE21.JPG,AFSA23.JPG,AFSA22.JPG,AFNE23.JPG,,,,,,,,,0,0,0,0,,,,,,,,,,,,,,,AFSA01.jpg,AFSA08.jpg,AFNE02.jpg,AFNE17.jpg,AFNE17.jpg,FN,3,num_4,16,num_4,0.633380792104,,,2017_May_04_1247,60.0019822738,FEMA4ImagesEEG,001,200287,
AMNE23.JPG,AMNE24.JPG,AMNE22.JPG,AMSA24.JPG,AMSA22.JPG,AMSA23.JPG,,,,,,,,,0,1,1,9,,,,,,,,,,,,,,,AFSA15.jpg,AFNE08.jpg,AFSA11.jpg,AFNE14.jpg,AFSA11.jpg,FS,4,num_2,32,num_8,0.90010901913,,,2017_May_04_1247,60.0019822738,FEMA4ImagesEEG,001,200287,
AFNE23.JPG,AFNE24.JPG,AFNE22.JPG,AFSA24.JPG,AFSA22.JPG,AFSA23.JPG,,,,,,,,,0,2,2,8,,,,,,,,,,,,,,,AFSA04.jpg,AFNE04.jpg,AFNE13.jpg,AFSA03.jpg,AFSA04.jpg,FS,4,num_8,32,num_2,0.533459982602,,,2017_May_04_1247,60.0019822738,FEMA4ImagesEEG,001,200287,
AFSA25.JPG,AFNE24.JPG,AFSA24.JPG,AFNE21.JPG,AFSA21.JPG,AFNE25.JPG,,,,,,,,,0,3,3,2,,,,,,,,,,,,,,,AFSA07.jpg,AFNE02.jpg,AFNE09.jpg,AFSA02.jpg,AFNE02.jpg,FN,3,num_6,16,num_6,0.283532068832,,,2017_May_04_1247,60.0019822738,FEMA4ImagesEEG,001,200287,
AFSA21.JPG,AFNE23.JPG,AFNE21.JPG,AFSA25.JPG,AFNE25.JPG,AFSA23.JPG,,,,,,,,,0,4,4,4,,,,,,,,,,,,,,,AFNE09.jpg,AFSA01.jpg,AFSA02.jpg,AFNE02.jpg,AFSA01.jpg,FS,4,num_6,32,num_4,0.300198633689,,,2017_May_04_1247,60.0019822738,FEMA4ImagesEEG,001,200287,
AFNE22.JPG,AFSA24.JPG,AFSA22.JPG,AFNE25.JPG,AFNE24.JPG,AFSA25.JPG,,,,,,,,,0,5,5,6,,,,,,,,,,,,,,,AFSA10.jpg,AFNE14.jpg,AFNE20.jpg,AFSA16.jpg,AFNE14.jpg,FN,3,num_6,32,num_2,0.850147812627,,,2017_May_04_1247,60.0019822738,FEMA4ImagesEEG,001,200287,
AMSA21.JPG,AMNE22.JPG,AMNE21.JPG,AMSA23.JPG,AMSA22.JPG,AMNE23.JPG,,,,,,,,,0,6,6,1,,,,,,,,,,,,,,,AFNE19.jpg,AFSA20.jpg,AFSA01.jpg,AFNE02.jpg,AFNE02.jpg,FN,3,num_4,32,num_8,0.93346973299,,,2017_May_04_1247,60.0019822738,FEMA4ImagesEEG,001,200287,
AMNE22.JPG,AMSA24.JPG,AMSA22.JPG,AMNE25.JPG,AMNE24.JPG,AMSA25.JPG,,,,,,,,,0,7,7,7,,,,,,,,,,,,,,,AFNE15.jpg,AFSA04.jpg,AFNE09.jpg,AFSA20.jpg,AFNE09.jpg,FN,3,num_2,32,num_4,0.700188498246,,,2017_May_04_1247,60.0019822738,FEMA4ImagesEEG,001,200287,
AMSA25.JPG,AMNE24.JPG,AMSA24.JPG,AMNE26.JPG,AMSA21.JPG,AMNE25.JPG,,,,,,,,,0,8,8,3,,,,,,,,,,,,,,,AFNE02.jpg,AFSA07.jpg,AFNE09.jpg,AFSA08.jpg,AFSA07.jpg,FS,4,num_6,16,num_6,0.466774157016,,,2017_May_04_1247,60.0019822738,FEMA4ImagesEEG,001,200287,
AMSA21.JPG,AMNE23.JPG,AMNE21.JPG,AMSA25.JPG,AMNE25.JPG,AMSA23.JPG,,,,,,,,,0,9,9,5,,,,,,,,,,,,,,,AFNE01.jpg,AFSA12.jpg,AFNE02.jpg,AFSA04.jpg,AFSA04.jpg,FS,4,num_4,32,num_8,0.400118480902,,,2017_May_04_1247,60.0019822738,FEMA4ImagesEEG,001,200287,
AFNE23.JPG,AFNE24.JPG,AFNE22.JPG,AFSA24.JPG,AFSA22.JPG,AFSA23.JPG,,,,,,,,,,,,,0,0,0,8,,,,,,,,,,,AMSA07.jpg,AMNE08.jpg,AMNE16.jpg,AMSA13.jpg,AMNE16.jpg,MN,1,num_2,32,num_4,0.566795999417,,,2017_May_04_1247,60.0019822738,FEMA4ImagesEEG,001,200287,
AMNE23.JPG,AMNE24.JPG,AMNE22.JPG,AMSA24.JPG,AMSA22.JPG,AMSA23.JPG,,,,,,,,,,,,,0,1,1,9,,,,,,,,,,,AMNE11.jpg,AMSA17.jpg,AMSA19.jpg,AMNE19.jpg,AMSA19.jpg,MS,2,num_2,16,num_2,0.933429319877,,,2017_May_04_1247,60.0019822738,FEMA4ImagesEEG,001,200287,
AMSA21.JPG,AMNE23.JPG,AMNE21.JPG,AMSA25.JPG,AMNE25.JPG,AMSA23.JPG,,,,,,,,,,,,,0,2,2,5,,,,,,,,,,,AMNE11.jpg,AMSA07.jpg,AMSA04.jpg,AMNE05.jpg,AMSA07.jpg,MS,2,num_6,32,num_8,1.73339910619,,,2017_May_04_1247,60.0019822738,FEMA4ImagesEEG,001,200287,
AMSA25.JPG,AMNE24.JPG,AMSA24.JPG,AMNE26.JPG,AMSA21.JPG,AMNE25.JPG,,,,,,,,,,,,,0,3,3,3,,,,,,,,,,,AMNE06.jpg,AMSA06.jpg,AMNE18.jpg,AMSA07.jpg,AMSA07.jpg,MS,2,num_4,16,num_4,0.599795239978,,,2017_May_04_1247,60.0019822738,FEMA4ImagesEEG,001,200287,
AFSA21.JPG,AFNE23.JPG,AFNE21.JPG,AFSA25.JPG,AFNE25.JPG,AFSA23.JPG,,,,,,,,,,,,,0,4,4,4,,,,,,,,,,,AMNE15.jpg,AMSA12.jpg,AMSA16.jpg,AMNE20.jpg,AMNE15.jpg,MN,1,num_8,32,num_6,0.916767886374,,,2017_May_04_1247,60.0019822738,FEMA4ImagesEEG,001,200287,
AFNE22.JPG,AFSA24.JPG,AFSA22.JPG,AFNE25.JPG,AFNE24.JPG,AFSA25.JPG,,,,,,,,,,,,,0,5,5,6,,,,,,,,,,,AMSA04.jpg,AMNE17.jpg,AMNE11.jpg,AMSA06.jpg,AMNE17.jpg,MN,1,num_6,32,num_8,0.683419938199,,,2017_May_04_1247,60.0019822738,FEMA4ImagesEEG,001,200287,
AFSA21.JPG,AFNE22.JPG,AFNE21.JPG,AFSA23.JPG,AFSA22.JPG,AFNE23.JPG,,,,,,,,,,,,,0,6,6,0,,,,,,,,,,,AMSA10.jpg,AMNE13.jpg,AMSA06.jpg,AMNE15.jpg,AMNE15.jpg,MN,1,num_4,16,num_4,0.516778984107,,,2017_May_04_1247,60.0019822738,FEMA4ImagesEEG,001,200287,
AFSA25.JPG,AFNE24.JPG,AFSA24.JPG,AFNE21.JPG,AFSA21.JPG,AFNE25.JPG,,,,,,,,,,,,,0,7,7,2,,,,,,,,,,,AMNE02.jpg,AMSA07.jpg,AMNE11.jpg,AMSA05.jpg,AMSA07.jpg,MS,2,num_6,32,num_8,0.400150875794,,,2017_May_04_1247,60.0019822738,FEMA4ImagesEEG,001,200287,
AMNE22.JPG,AMSA24.JPG,AMSA22.JPG,AMNE25.JPG,AMNE24.JPG,AMSA25.JPG,,,,,,,,,,,,,0,8,8,7,,,,,,,,,,,AMSA11.jpg,AMNE16.jpg,AMNE04.jpg,AMSA17.jpg,AMSA17.jpg,MS,2,num_4,32,num_6,0.300155013101,,,2017_May_04_1247,60.0019822738,FEMA4ImagesEEG,001,200287,
AMSA21.JPG,AMNE22.JPG,AMNE21.JPG,AMSA23.JPG,AMSA22.JPG,AMNE23.JPG,,,,,,,,,,,,,0,9,9,1,,,,,,,,,,,AMNE18.jpg,AMSA09.jpg,AMSA01.jpg,AMNE20.jpg,AMSA01.jpg,MS,2,num_2,16,num_2,0.416799800238,,,2017_May_04_1247,60.0019822738,FEMA4ImagesEEG,001,200287,
AMNE22.JPG,AMSA24.JPG,AMSA22.JPG,AMNE25.JPG,AMNE24.JPG,AMSA25.JPG,,,,,,,,,,,,,,,,,0,0,0,7,,,,,,,AFNE18.jpg,AFNE14.jpg,AFSA05.jpg,AFSA10.jpg,AFSA05.jpg,FS,4,num_2,32,num_8,0.300158541417,,,2017_May_04_1247,60.0019822738,FEMA4ImagesEEG,001,200287,
AFNE22.JPG,AFSA24.JPG,AFSA22.JPG,AFNE25.JPG,AFNE24.JPG,AFSA25.JPG,,,,,,,,,,,,,,,,,0,1,1,6,,,,,,,AFSA18.jpg,AFNE09.jpg,AFSA03.jpg,AFNE18.jpg,AFNE18.jpg,FN,3,num_4,16,num_4,0.550157659454,,,2017_May_04_1247,60.0019822738,FEMA4ImagesEEG,001,200287,
AFSA21.JPG,AFNE22.JPG,AFNE21.JPG,AFSA23.JPG,AFSA22.JPG,AFNE23.JPG,,,,,,,,,,,,,,,,,0,2,2,0,,,,,,,AFNE17.jpg,AFSA16.jpg,AFSA06.jpg,AFNE07.jpg,AFNE17.jpg,FN,3,num_8,16,num_8,0.48352315207,,,2017_May_04_1247,60.0019822738,FEMA4ImagesEEG,001,200287,
AMSA21.JPG,AMNE23.JPG,AMNE21.JPG,AMSA25.JPG,AMNE25.JPG,AMSA23.JPG,,,,,,,,,,,,,,,,,0,3,3,5,,,,,,,AFNE03.jpg,AFSA15.jpg,AFSA06.jpg,AFNE13.jpg,AFSA06.jpg,FS,4,num_2,32,num_6,0.583626141306,,,2017_May_04_1247,60.0019822738,FEMA4ImagesEEG,001,200287,
AFSA25.JPG,AFNE24.JPG,AFSA24.JPG,AFNE21.JPG,AFSA21.JPG,AFNE25.JPG,,,,,,,,,,,,,,,,,0,4,4,2,,,,,,,AFSA19.jpg,AFSA12.jpg,AFNE09.jpg,AFNE20.jpg,AFSA19.jpg,FS,4,num_8,32,num_4,0.516776738921,,,2017_May_04_1247,60.0019822738,FEMA4ImagesEEG,001,200287,
AFNE23.JPG,AFNE24.JPG,AFNE22.JPG,AFSA24.JPG,AFSA22.JPG,AFSA23.JPG,,,,,,,,,,,,,,,,,0,5,5,8,,,,,,,AFSA02.jpg,AFNE06.jpg,AFSA17.jpg,AFNE12.jpg,AFSA17.jpg,FS,4,num_2,32,num_8,0.46683541825,,,2017_May_04_1247,60.0019822738,FEMA4ImagesEEG,001,200287,
AFSA21.JPG,AFNE23.JPG,AFNE21.JPG,AFSA25.JPG,AFNE25.JPG,AFSA23.JPG,,,,,,,,,,,,,,,,,0,6,6,4,,,,,,,AFNE15.jpg,AFSA01.jpg,AFSA10.jpg,AFNE04.jpg,AFNE04.jpg,FN,3,num_4,32,num_6,0.300149560673,,,2017_May_04_1247,60.0019822738,FEMA4ImagesEEG,001,200287,
AMSA25.JPG,AMNE24.JPG,AMSA24.JPG,AMNE26.JPG,AMSA21.JPG,AMNE25.JPG,,,,,,,,,,,,,,,,,0,7,7,3,,,,,,,AFNE10.jpg,AFSA02.jpg,AFNE12.jpg,AFSA06.jpg,AFNE12.jpg,FN,3,num_2,32,num_4,0.366784709506,,,2017_May_04_1247,60.0019822738,FEMA4ImagesEEG,001,200287,
AMSA21.JPG,AMNE22.JPG,AMNE21.JPG,AMSA23.JPG,AMSA22.JPG,AMNE23.JPG,,,,,,,,,,,,,,,,,0,8,8,1,,,,,,,AFNE07.jpg,AFSA19.jpg,AFSA12.jpg,AFNE01.jpg,AFNE07.jpg,FN,3,num_8,16,num_8,0.316840501968,,,2017_May_04_1247,60.0019822738,FEMA4ImagesEEG,001,200287,
AMNE23.JPG,AMNE24.JPG,AMNE22.JPG,AMSA24.JPG,AMSA22.JPG,AMSA23.JPG,,,,,,,,,,,,,,,,,0,9,9,9,,,,,,,AFNE09.jpg,AFNE03.jpg,AFSA19.jpg,AFSA15.jpg,AFSA15.jpg,FS,4,num_4,32,num_6,0.550098964013,,,2017_May_04_1247,60.0019822738,FEMA4ImagesEEG,001,200287,
AMSA21.JPG,AMNE22.JPG,AMNE21.JPG,AMSA23.JPG,AMSA22.JPG,AMNE23.JPG,,,,,,,,,,,,,,,,,,,,,0,0,0,1,,,AMSA13.jpg,AMNE18.jpg,AMNE07.jpg,AMSA04.jpg,AMNE07.jpg,MN,1,num_2,32,num_4,0.916792262811,,,2017_May_04_1247,60.0019822738,FEMA4ImagesEEG,001,200287,
AMNE23.JPG,AMNE24.JPG,AMNE22.JPG,AMSA24.JPG,AMSA22.JPG,AMSA23.JPG,,,,,,,,,,,,,,,,,,,,,0,1,1,9,,,AMNE18.jpg,AMSA13.jpg,AMNE01.jpg,AMSA11.jpg,AMSA11.jpg,MS,2,num_4,32,num_6,0.400130669121,,,2017_May_04_1247,60.0019822738,FEMA4ImagesEEG,001,200287,
AFSA25.JPG,AFNE24.JPG,AFSA24.JPG,AFNE21.JPG,AFSA21.JPG,AFNE25.JPG,,,,,,,,,,,,,,,,,,,,,0,2,2,2,,,AMSA13.jpg,AMNE07.jpg,AMSA11.jpg,AMNE04.jpg,AMSA11.jpg,MS,2,num_2,16,num_2,0.566801451845,,,2017_May_04_1247,60.0019822738,FEMA4ImagesEEG,001,200287,
AFNE22.JPG,AFSA24.JPG,AFSA22.JPG,AFNE25.JPG,AFNE24.JPG,AFSA25.JPG,,,,,,,,,,,,,,,,,,,,,0,3,3,6,,,AMNE02.jpg,AMSA06.jpg,AMSA02.jpg,AMNE16.jpg,AMNE16.jpg,MN,1,num_4,16,num_4,1.01673327875,,,2017_May_04_1247,60.0019822738,FEMA4ImagesEEG,001,200287,
AMSA25.JPG,AMNE24.JPG,AMSA24.JPG,AMNE26.JPG,AMSA21.JPG,AMNE25.JPG,,,,,,,,,,,,,,,,,,,,,0,4,4,3,,,AMSA19.jpg,AMNE09.jpg,AMNE16.jpg,AMSA12.jpg,AMNE09.jpg,MN,1,num_6,16,num_6,0.600112451008,,,2017_May_04_1247,60.0019822738,FEMA4ImagesEEG,001,200287,
AFSA21.JPG,AFNE23.JPG,AFNE21.JPG,AFSA25.JPG,AFNE25.JPG,AFSA23.JPG,,,,,,,,,,,,,,,,,,,,,0,5,5,4,,,AMNE05.jpg,AMSA08.jpg,AMSA13.jpg,AMNE20.jpg,AMNE05.jpg,MN,1,num_8,16,num_8,0.300162069499,,,2017_May_04_1247,60.0019822738,FEMA4ImagesEEG,001,200287,
AMSA21.JPG,AMNE23.JPG,AMNE21.JPG,AMSA25.JPG,AMNE25.JPG,AMSA23.JPG,,,,,,,,,,,,,,,,,,,,,0,6,6,5,,,AMSA15.jpg,AMNE18.jpg,AMNE09.jpg,AMSA08.jpg,AMNE18.jpg,MN,1,num_6,32,num_2,0.666739901993,,,2017_May_04_1247,60.0019822738,FEMA4ImagesEEG,001,200287,
AMNE22.JPG,AMSA24.JPG,AMSA22.JPG,AMNE25.JPG,AMNE24.JPG,AMSA25.JPG,,,,,,,,,,,,,,,,,,,,,0,7,7,7,,,AMSA09.jpg,AMNE20.jpg,AMNE06.jpg,AMSA17.jpg,AMNE20.jpg,MN,1,num_6,16,num_6,0.783434724435,,,2017_May_04_1247,60.0019822738,FEMA4ImagesEEG,001,200287,
AFNE23.JPG,AFNE24.JPG,AFNE22.JPG,AFSA24.JPG,AFSA22.JPG,AFSA23.JPG,,,,,,,,,,,,,,,,,,,,,0,8,8,8,,,AMNE03.jpg,AMSA19.jpg,AMSA20.jpg,AMNE16.jpg,AMSA20.jpg,MS,2,num_2,32,num_4,1.15003661253,,,2017_May_04_1247,60.0019822738,FEMA4ImagesEEG,001,200287,
AFSA21.JPG,AFNE22.JPG,AFNE21.JPG,AFSA23.JPG,AFSA22.JPG,AFNE23.JPG,,,,,,,,,,,,,,,,,,,,,0,9,9,0,,,AMNE17.jpg,AMNE19.jpg,AMSA03.jpg,AMSA10.jpg,AMSA10.jpg,MS,2,num_4,16,num_4,1.01672750548,,,2017_May_04_1247,60.0019822738,FEMA4ImagesEEG,001,200287,
,,,,,,,,,,,,,,,,,,,,,,,,,,,,,,,,,,,,,,,,,,,space,5.60008807504,2017_May_04_1247,60.0019822738,FEMA4ImagesEEG,001,200287,
AFNE01.JPG,AFNE01.JPG,AFNE01.JPG,AFNE01.JPG,AFNE01.JPG,AFNE01.JPG,0,0,0,4,,,,,,,,,,,,,,,,,,,,,,,AFSA07.jpg,AFNE16.jpg,AFSA20.jpg,AFNE14.jpg,AFSA07.jpg,FS,4,num_8,16,num_8,0.533398079919,,,2017_May_04_1247,60.0019822738,FEMA4ImagesEEG,001,200287,
AFNE01.JPG,AFNE01.JPG,AFNE01.JPG,AFNE01.JPG,AFNE01.JPG,AFNE01.JPG,0,1,1,7,,,,,,,,,,,,,,,,,,,,,,,AFNE07.jpg,AFSA11.jpg,AFNE09.jpg,AFSA18.jpg,AFNE07.jpg,FN,3,num_8,32,num_6,0.300113317091,,,2017_May_04_1247,60.0019822738,FEMA4ImagesEEG,001,200287,
AFNE01.JPG,AFNE01.JPG,AFNE01.JPG,AFNE01.JPG,AFNE01.JPG,AFNE01.JPG,0,2,2,5,,,,,,,,,,,,,,,,,,,,,,,AFNE10.jpg,AFSA03.jpg,AFNE04.jpg,AFSA14.jpg,AFNE04.jpg,FN,3,num_2,16,num_2,0.950079847826,,,2017_May_04_1247,60.0019822738,FEMA4ImagesEEG,001,200287,
AFNE01.JPG,AFNE01.JPG,AFNE01.JPG,AFNE01.JPG,AFNE01.JPG,AFNE01.JPG,0,3,3,8,,,,,,,,,,,,,,,,,,,,,,,AFNE14.jpg,AFNE19.jpg,AFSA14.jpg,AFSA04.jpg,AFNE14.jpg,FN,3,num_8,32,num_4,0.316789183766,,,2017_May_04_1247,60.0019822738,FEMA4ImagesEEG,001,200287,
AFNE01.JPG,AFNE01.JPG,AFNE01.JPG,AFNE01.JPG,AFNE01.JPG,AFNE01.JPG,0,4,4,2,,,,,,,,,,,,,,,,,,,,,,,AFNE18.jpg,AFSA08.jpg,AFSA15.jpg,AFNE16.jpg,AFNE16.jpg,FN,3,num_4,32,num_8,0.450146080693,,,2017_May_04_1247,60.0019822738,FEMA4ImagesEEG,001,200287,
AFNE01.JPG,AFNE01.JPG,AFNE01.JPG,AFNE01.JPG,AFNE01.JPG,AFNE01.JPG,0,5,5,9,,,,,,,,,,,,,,,,,,,,,,,AFNE11.jpg,AFNE12.jpg,AFSA18.jpg,AFSA10.jpg,AFNE12.jpg,FN,3,num_6,16,num_6,0.283471769653,,,2017_May_04_1247,60.0019822738,FEMA4ImagesEEG,001,200287,
AFNE01.JPG,AFNE01.JPG,AFNE01.JPG,AFNE01.JPG,AFNE01.JPG,AFNE01.JPG,0,6,6,6,,,,,,,,,,,,,,,,,,,,,,,AFSA19.jpg,AFNE02.jpg,AFSA11.jpg,AFNE13.jpg,AFSA19.jpg,FS,4,num_8,32,num_4,1.10010908358,,,2017_May_04_1247,60.0019822738,FEMA4ImagesEEG,001,200287,
AFNE01.JPG,AFNE01.JPG,AFNE01.JPG,AFNE01.JPG,AFNE01.JPG,AFNE01.JPG,0,7,7,3,,,,,,,,,,,,,,,,,,,,,,,AFSA03.jpg,AFSA16.jpg,AFNE16.jpg,AFNE05.jpg,AFNE16.jpg,FN,3,num_2,32,num_8,0.750103197759,,,2017_May_04_1247,60.0019822738,FEMA4ImagesEEG,001,200287,
AFNE01.JPG,AFNE01.JPG,AFNE01.JPG,AFNE01.JPG,AFNE01.JPG,AFNE01.JPG,0,8,8,1,,,,,,,,,,,,,,,,,,,,,,,AFNE01.jpg,AFNE14.jpg,AFSA20.jpg,AFSA19.jpg,AFNE14.jpg,FN,3,num_6,32,num_2,1.06645810092,,,2017_May_04_1247,60.0019822738,FEMA4ImagesEEG,001,200287,
AFNE01.JPG,AFNE01.JPG,AFNE01.JPG,AFNE01.JPG,AFNE01.JPG,AFNE01.JPG,0,9,9,0,,,,,,,,,,,,,,,,,,,,,,,AFSA10.jpg,AFSA07.jpg,AFNE02.jpg,AFNE09.jpg,AFNE09.jpg,FN,3,num_4,32,num_6,0.36685944139,,,2017_May_04_1247,60.0019822738,FEMA4ImagesEEG,001,200287,
AFNE01.JPG,AFNE01.JPG,AFNE01.JPG,AFNE01.JPG,AFNE01.JPG,AFNE01.JPG,1,0,10,4,,,,,,,,,,,,,,,,,,,,,,,AFNE07.jpg,AFSA11.jpg,AFNE04.jpg,AFSA06.jpg,AFSA11.jpg,FS,4,num_6,32,num_8,0.266832146561,,,2017_May_04_1247,60.0019822738,FEMA4ImagesEEG,001,200287,
AFNE01.JPG,AFNE01.JPG,AFNE01.JPG,AFNE01.JPG,AFNE01.JPG,AFNE01.JPG,1,1,11,7,,,,,,,,,,,,,,,,,,,,,,,AFSA14.jpg,AFSA11.jpg,AFNE10.jpg,AFNE01.jpg,AFNE01.jpg,FN,3,num_4,32,num_2,0.40030964138,,,2017_May_04_1247,60.0019822738,FEMA4ImagesEEG,001,200287,
AFNE01.JPG,AFNE01.JPG,AFNE01.JPG,AFNE01.JPG,AFNE01.JPG,AFNE01.JPG,1,2,12,3,,,,,,,,,,,,,,,,,,,,,,,AFSA05.jpg,AFNE05.jpg,AFNE17.jpg,AFSA18.jpg,AFNE17.jpg,FN,3,num_2,32,num_4,0.450189701049,,,2017_May_04_1247,60.0019822738,FEMA4ImagesEEG,001,200287,
AFNE01.JPG,AFNE01.JPG,AFNE01.JPG,AFNE01.JPG,AFNE01.JPG,AFNE01.JPG,1,3,13,9,,,,,,,,,,,,,,,,,,,,,,,AFSA01.jpg,AFNE18.jpg,AFNE03.jpg,AFSA06.jpg,AFSA01.jpg,FS,4,num_8,16,num_8,0.366794652306,,,2017_May_04_1247,60.0019822738,FEMA4ImagesEEG,001,200287,
AFNE01.JPG,AFNE01.JPG,AFNE01.JPG,AFNE01.JPG,AFNE01.JPG,AFNE01.JPG,1,4,14,6,,,,,,,,,,,,,,,,,,,,,,,AFSA06.jpg,AFSA18.jpg,AFNE01.jpg,AFNE11.jpg,AFNE01.jpg,FN,3,num_2,32,num_6,0.316812597448,,,2017_May_04_1247,60.0019822738,FEMA4ImagesEEG,001,200287,
AFNE01.JPG,AFNE01.JPG,AFNE01.JPG,AFNE01.JPG,AFNE01.JPG,AFNE01.JPG,1,5,15,5,,,,,,,,,,,,,,,,,,,,,,,AFNE04.jpg,AFNE06.jpg,AFSA11.jpg,AFSA04.jpg,AFSA11.jpg,FS,4,num_2,32,num_8,0.666813351447,,,2017_May_04_1247,60.0019822738,FEMA4ImagesEEG,001,200287,
AFNE01.JPG,AFNE01.JPG,AFNE01.JPG,AFNE01.JPG,AFNE01.JPG,AFNE01.JPG,1,6,16,0,,,,,,,,,,,,,,,,,,,,,,,AFNE07.jpg,AFNE18.jpg,AFSA15.jpg,AFSA12.jpg,AFSA15.jpg,FS,4,num_2,16,num_2,1.33374024439,,,2017_May_04_1247,60.0019822738,FEMA4ImagesEEG,001,200287,
AFNE01.JPG,AFNE01.JPG,AFNE01.JPG,AFNE01.JPG,AFNE01.JPG,AFNE01.JPG,1,7,17,8,,,,,,,,,,,,,,,,,,,,,,,AFSA01.jpg,AFNE09.jpg,AFNE01.jpg,AFSA09.jpg,AFNE01.jpg,FN,3,num_2,32,num_4,0.783439214574,,,2017_May_04_1247,60.0019822738,FEMA4ImagesEEG,001,200287,
AFNE01.JPG,AFNE01.JPG,AFNE01.JPG,AFNE01.JPG,AFNE01.JPG,AFNE01.JPG,1,8,18,1,,,,,,,,,,,,,,,,,,,,,,,AFSA19.jpg,AFNE05.jpg,AFNE08.jpg,AFSA05.jpg,AFSA19.jpg,FS,4,num_8,32,num_6,0.533486283151,,,2017_May_04_1247,60.0019822738,FEMA4ImagesEEG,001,200287,
AFNE01.JPG,AFNE01.JPG,AFNE01.JPG,AFNE01.JPG,AFNE01.JPG,AFNE01.JPG,1,9,19,2,,,,,,,,,,,,,,,,,,,,,,,AFNE09.jpg,AFSA07.jpg,AFNE08.jpg,AFSA02.jpg,AFSA07.jpg,FS,4,num_6,32,num_4,1.15008825134,,,2017_May_04_1247,60.0019822738,FEMA4ImagesEEG,001,200287,
AFNE01.JPG,AFNE01.JPG,AFNE01.JPG,AFNE01.JPG,AFNE01.JPG,AFNE01.JPG,2,0,20,2,,,,,,,,,,,,,,,,,,,,,,,AFNE18.jpg,AFNE08.jpg,AFSA09.jpg,AFSA01.jpg,AFNE18.jpg,FN,3,num_8,16,num_8,0.316779882414,,,2017_May_04_1247,60.0019822738,FEMA4ImagesEEG,001,200287,
AFNE01.JPG,AFNE01.JPG,AFNE01.JPG,AFNE01.JPG,AFNE01.JPG,AFNE01.JPG,2,1,21,3,,,,,,,,,,,,,,,,,,,,,,,AFNE12.jpg,AFSA11.jpg,AFNE01.jpg,AFSA17.jpg,AFNE12.jpg,FN,3,num_8,32,num_2,0.799999294337,,,2017_May_04_1247,60.0019822738,FEMA4ImagesEEG,001,200287,
AFNE01.JPG,AFNE01.JPG,AFNE01.JPG,AFNE01.JPG,AFNE01.JPG,AFNE01.JPG,2,2,22,0,,,,,,,,,,,,,,,,,,,,,,,AFNE06.jpg,AFSA08.jpg,AFSA10.jpg,AFNE18.jpg,AFSA08.jpg,FS,4,num_6,32,num_4,0.550125264795,,,2017_May_04_1247,60.0019822738,FEMA4ImagesEEG,001,200287,
AFNE01.JPG,AFNE01.JPG,AFNE01.JPG,AFNE01.JPG,AFNE01.JPG,AFNE01.JPG,2,3,23,8,,,,,,,,,,,,,,,,,,,,,,,AFNE02.jpg,AFNE07.jpg,AFSA01.jpg,AFSA16.jpg,AFNE07.jpg,FN,3,num_6,32,num_8,0.383491046261,,,2017_May_04_1247,60.0019822738,FEMA4ImagesEEG,001,200287,
AFNE01.JPG,AFNE01.JPG,AFNE01.JPG,AFNE01.JPG,AFNE01.JPG,AFNE01.JPG,2,4,24,1,,,,,,,,,,,,,,,,,,,,,,,AFSA19.jpg,AFNE20.jpg,AFSA04.jpg,AFNE15.jpg,AFSA19.jpg,FS,4,num_8,32,num_6,0.43351255171,,,2017_May_04_1247,60.0019822738,FEMA4ImagesEEG,001,200287,
AFNE01.JPG,AFNE01.JPG,AFNE01.JPG,AFNE01.JPG,AFNE01.JPG,AFNE01.JPG,2,5,25,4,,,,,,,,,,,,,,,,,,,,,,,AFNE08.jpg,AFSA16.jpg,AFSA09.jpg,AFNE02.jpg,AFNE08.jpg,FN,3,num_8,32,num_6,0.9001632242,,,2017_May_04_1247,60.0019822738,FEMA4ImagesEEG,001,200287,
AFNE01.JPG,AFNE01.JPG,AFNE01.JPG,AFNE01.JPG,AFNE01.JPG,AFNE01.JPG,2,6,26,5,,,,,,,,,,,,,,,,,,,,,,,AFSA08.jpg,AFNE09.jpg,AFSA13.jpg,AFNE18.jpg,AFNE18.jpg,FN,3,num_4,16,num_4,0.416793385288,,,2017_May_04_1247,60.0019822738,FEMA4ImagesEEG,001,200287,
AFNE01.JPG,AFNE01.JPG,AFNE01.JPG,AFNE01.JPG,AFNE01.JPG,AFNE01.JPG,2,7,27,9,,,,,,,,,,,,,,,,,,,,,,,AFNE13.jpg,AFSA06.jpg,AFNE12.jpg,AFSA08.jpg,AFNE12.jpg,FN,3,num_2,32,num_8,0.683488897048,,,2017_May_04_1247,60.0019822738,FEMA4ImagesEEG,001,200287,
AFNE01.JPG,AFNE01.JPG,AFNE01.JPG,AFNE01.JPG,AFNE01.JPG,AFNE01.JPG,2,8,28,6,,,,,,,,,,,,,,,,,,,,,,,AFNE16.jpg,AFSA03.jpg,AFSA07.jpg,AFNE03.jpg,AFNE03.jpg,FN,3,num_4,32,num_2,0.666770051466,,,2017_May_04_1247,60.0019822738,FEMA4ImagesEEG,001,200287,
AFNE01.JPG,AFNE01.JPG,AFNE01.JPG,AFNE01.JPG,AFNE01.JPG,AFNE01.JPG,2,9,29,7,,,,,,,,,,,,,,,,,,,,,,,AFNE19.jpg,AFSA04.jpg,AFNE08.jpg,AFSA05.jpg,AFSA04.jpg,FS,4,num_6,16,num_6,0.55001076078,,,2017_May_04_1247,60.0019822738,FEMA4ImagesEEG,001,200287,
AFNE01.JPG,AFNE01.JPG,AFNE01.JPG,AFNE01.JPG,AFNE01.JPG,AFNE01.JPG,3,0,30,4,,,,,,,,,,,,,,,,,,,,,,,AFNE10.jpg,AFNE02.jpg,AFSA17.jpg,AFSA18.jpg,AFSA18.jpg,FS,4,num_4,32,num_8,0.600166014628,,,2017_May_04_1247,60.0019822738,FEMA4ImagesEEG,001,200287,
AFNE01.JPG,AFNE01.JPG,AFNE01.JPG,AFNE01.JPG,AFNE01.JPG,AFNE01.JPG,3,1,31,2,,,,,,,,,,,,,,,,,,,,,,,AFSA13.jpg,AFSA10.jpg,AFNE07.jpg,AFNE18.jpg,AFSA10.jpg,FS,4,num_6,32,num_4,0.483473116765,,,2017_May_04_1247,60.0019822738,FEMA4ImagesEEG,001,200287,
AFNE01.JPG,AFNE01.JPG,AFNE01.JPG,AFNE01.JPG,AFNE01.JPG,AFNE01.JPG,3,2,32,1,,,,,,,,,,,,,,,,,,,,,,,AFSA18.jpg,AFNE06.jpg,AFNE12.jpg,AFSA06.jpg,AFSA06.jpg,FS,4,num_4,32,num_8,0.616749187466,,,2017_May_04_1247,60.0019822738,FEMA4ImagesEEG,001,200287,
AFNE01.JPG,AFNE01.JPG,AFNE01.JPG,AFNE01.JPG,AFNE01.JPG,AFNE01.JPG,3,3,33,3,,,,,,,,,,,,,,,,,,,,,,,AFSA13.jpg,AFNE04.jpg,AFNE02.jpg,AFSA15.jpg,AFSA13.jpg,FS,4,num_8,32,num_2,1.53342053178,,,2017_May_04_1247,60.0019822738,FEMA4ImagesEEG,001,200287,
AFNE01.JPG,AFNE01.JPG,AFNE01.JPG,AFNE01.JPG,AFNE01.JPG,AFNE01.JPG,3,4,34,6,,,,,,,,,,,,,,,,,,,,,,,AFSA06.jpg,AFNE12.jpg,AFSA12.jpg,AFNE16.jpg,AFSA12.jpg,FS,4,num_2,32,num_6,0.900094585959,,,2017_May_04_1247,60.0019822738,FEMA4ImagesEEG,001,200287,
AFNE01.JPG,AFNE01.JPG,AFNE01.JPG,AFNE01.JPG,AFNE01.JPG,AFNE01.JPG,3,5,35,9,,,,,,,,,,,,,,,,,,,,,,,AFNE09.jpg,AFSA06.jpg,AFNE17.jpg,AFSA02.jpg,AFSA06.jpg,FS,4,num_6,32,num_4,0.600114375586,,,2017_May_04_1247,60.0019822738,FEMA4ImagesEEG,001,200287,
AFNE01.JPG,AFNE01.JPG,AFNE01.JPG,AFNE01.JPG,AFNE01.JPG,AFNE01.JPG,3,6,36,5,,,,,,,,,,,,,,,,,,,,,,,AFSA01.jpg,AFNE09.jpg,AFNE12.jpg,AFSA07.jpg,AFNE12.jpg,FN,3,num_2,32,num_8,0.533485962544,,,2017_May_04_1247,60.0019822738,FEMA4ImagesEEG,001,200287,
AFNE01.JPG,AFNE01.JPG,AFNE01.JPG,AFNE01.JPG,AFNE01.JPG,AFNE01.JPG,3,7,37,0,,,,,,,,,,,,,,,,,,,,,,,AFSA10.jpg,AFNE16.jpg,AFSA13.jpg,AFNE10.jpg,AFSA10.jpg,FS,4,num_8,32,num_2,1.03345597326,,,2017_May_04_1247,60.0019822738,FEMA4ImagesEEG,001,200287,
AFNE01.JPG,AFNE01.JPG,AFNE01.JPG,AFNE01.JPG,AFNE01.JPG,AFNE01.JPG,3,8,38,8,,,,,,,,,,,,,,,,,,,,,,,AFSA17.jpg,AFNE16.jpg,AFNE09.jpg,AFSA03.jpg,AFNE16.jpg,FN,3,num_6,32,num_4,0.483125756495,,,2017_May_04_1247,60.0019822738,FEMA4ImagesEEG,001,200287,
AFNE01.JPG,AFNE01.JPG,AFNE01.JPG,AFNE01.JPG,AFNE01.JPG,AFNE01.JPG,3,9,39,7,,,,,,,,,,,,,,,,,,,,,,,AFSA12.jpg,AFNE02.jpg,AFNE16.jpg,AFSA19.jpg,AFNE02.jpg,FN,3,num_6,16,num_6,0.716760765994,,,2017_May_04_1247,60.0019822738,FEMA4ImagesEEG,001,200287,
AFNE01.JPG,AFNE01.JPG,AFNE01.JPG,AFNE01.JPG,AFNE01.JPG,AFNE01.JPG,4,0,40,6,,,,,,,,,,,,,,,,,,,,,,,AFNE19.jpg,AFSA11.jpg,AFSA12.jpg,AFNE06.jpg,AFNE06.jpg,FN,3,num_4,16,num_4,0.583585086744,,,2017_May_04_1247,60.0019822738,FEMA4ImagesEEG,001,200287,
AFNE01.JPG,AFNE01.JPG,AFNE01.JPG,AFNE01.JPG,AFNE01.JPG,AFNE01.JPG,4,1,41,5,,,,,,,,,,,,,,,,,,,,,,,AFSA11.jpg,AFNE15.jpg,AFNE05.jpg,AFSA09.jpg,AFSA11.jpg,FS,4,num_8,32,num_2,0.866729702568,,,2017_May_04_1247,60.0019822738,FEMA4ImagesEEG,001,200287,
AFNE01.JPG,AFNE01.JPG,AFNE01.JPG,AFNE01.JPG,AFNE01.JPG,AFNE01.JPG,4,2,42,7,,,,,,,,,,,,,,,,,,,,,,,AFSA03.jpg,AFNE10.jpg,AFSA14.jpg,AFNE03.jpg,AFSA03.jpg,FS,4,num_8,32,num_6,0.833273408469,,,2017_May_04_1247,60.0019822738,FEMA4ImagesEEG,001,200287,
AFNE01.JPG,AFNE01.JPG,AFNE01.JPG,AFNE01.JPG,AFNE01.JPG,AFNE01.JPG,4,3,43,1,,,,,,,,,,,,,,,,,,,,,,,AFSA10.jpg,AFNE04.jpg,AFSA16.jpg,AFNE05.jpg,AFSA10.jpg,FS,4,num_8,32,num_2,0.866758248303,,,2017_May_04_1247,60.0019822738,FEMA4ImagesEEG,001,200287,
AFNE01.JPG,AFNE01.JPG,AFNE01.JPG,AFNE01.JPG,AFNE01.JPG,AFNE01.JPG,4,4,44,8,,,,,,,,,,,,,,,,,,,,,,,AFSA09.jpg,AFNE17.jpg,AFSA13.jpg,AFNE05.jpg,AFNE17.jpg,FN,3,num_6,32,num_8,0.466831569327,,,2017_May_04_1247,60.0019822738,FEMA4ImagesEEG,001,200287,
AFNE01.JPG,AFNE01.JPG,AFNE01.JPG,AFNE01.JPG,AFNE01.JPG,AFNE01.JPG,4,5,45,3,,,,,,,,,,,,,,,,,,,,,,,AFSA17.jpg,AFSA11.jpg,AFNE07.jpg,AFNE16.jpg,AFNE16.jpg,FN,3,num_4,16,num_4,0.400164667517,,,2017_May_04_1247,60.0019822738,FEMA4ImagesEEG,001,200287,
AFNE01.JPG,AFNE01.JPG,AFNE01.JPG,AFNE01.JPG,AFNE01.JPG,AFNE01.JPG,4,6,46,0,,,,,,,,,,,,,,,,,,,,,,,AFNE15.jpg,AFSA18.jpg,AFNE09.jpg,AFSA06.jpg,AFSA06.jpg,FS,4,num_4,32,num_6,0.48346509831,,,2017_May_04_1247,60.0019822738,FEMA4ImagesEEG,001,200287,
AFNE01.JPG,AFNE01.JPG,AFNE01.JPG,AFNE01.JPG,AFNE01.JPG,AFNE01.JPG,4,7,47,9,,,,,,,,,,,,,,,,,,,,,,,AFNE04.jpg,AFSA01.jpg,AFSA05.jpg,AFNE20.jpg,AFSA01.jpg,FS,4,num_6,32,num_8,0.466791156214,,,2017_May_04_1247,60.0019822738,FEMA4ImagesEEG,001,200287,
AFNE01.JPG,AFNE01.JPG,AFNE01.JPG,AFNE01.JPG,AFNE01.JPG,AFNE01.JPG,4,8,48,4,,,,,,,,,,,,,,,,,,,,,,,AFSA04.jpg,AFSA14.jpg,AFNE03.jpg,AFNE16.jpg,AFSA14.jpg,FS,4,num_6,32,num_2,1.65005088528,,,2017_May_04_1247,60.0019822738,FEMA4ImagesEEG,001,200287,
AFNE01.JPG,AFNE01.JPG,AFNE01.JPG,AFNE01.JPG,AFNE01.JPG,AFNE01.JPG,4,9,49,2,,,,,,,,,,,,,,,,,,,,,,,AFSA18.jpg,AFSA06.jpg,AFNE20.jpg,AFNE14.jpg,AFSA18.jpg,FS,4,num_8,32,num_4,0.733495969558,,,2017_May_04_1247,60.0019822738,FEMA4ImagesEEG,001,200287,
AFNE01.JPG,AFNE01.JPG,AFNE01.JPG,AFNE01.JPG,AFNE01.JPG,AFNE01.JPG,5,0,50,1,,,,,,,,,,,,,,,,,,,,,,,AFNE03.jpg,AFNE01.jpg,AFSA08.jpg,AFSA16.jpg,AFSA16.jpg,FS,4,num_4,32,num_8,0.416786008282,,,2017_May_04_1247,60.0019822738,FEMA4ImagesEEG,001,200287,
AFNE01.JPG,AFNE01.JPG,AFNE01.JPG,AFNE01.JPG,AFNE01.JPG,AFNE01.JPG,5,1,51,2,,,,,,,,,,,,,,,,,,,,,,,AFSA09.jpg,AFNE04.jpg,AFNE01.jpg,AFSA02.jpg,AFSA02.jpg,FS,4,num_4,32,num_6,0.55013328325,,,2017_May_04_1247,60.0019822738,FEMA4ImagesEEG,001,200287,
AFNE01.JPG,AFNE01.JPG,AFNE01.JPG,AFNE01.JPG,AFNE01.JPG,AFNE01.JPG,5,2,52,5,,,,,,,,,,,,,,,,,,,,,,,AFSA02.jpg,AFNE11.jpg,AFSA10.jpg,AFNE03.jpg,AFNE03.jpg,FN,3,num_4,16,num_4,1.1166104679,,,2017_May_04_1247,60.0019822738,FEMA4ImagesEEG,001,200287,
AFNE01.JPG,AFNE01.JPG,AFNE01.JPG,AFNE01.JPG,AFNE01.JPG,AFNE01.JPG,5,3,53,3,,,,,,,,,,,,,,,,,,,,,,,AFNE03.jpg,AFNE17.jpg,AFSA09.jpg,AFSA06.jpg,AFSA06.jpg,FS,4,num_4,32,num_8,0.400148630375,,,2017_May_04_1247,60.0019822738,FEMA4ImagesEEG,001,200287,
AFNE01.JPG,AFNE01.JPG,AFNE01.JPG,AFNE01.JPG,AFNE01.JPG,AFNE01.JPG,5,4,54,7,,,,,,,,,,,,,,,,,,,,,,,AFNE10.jpg,AFSA20.jpg,AFSA02.jpg,AFNE14.jpg,AFSA02.jpg,FS,4,num_2,32,num_8,0.266771206399,,,2017_May_04_1247,60.0019822738,FEMA4ImagesEEG,001,200287,
AFNE01.JPG,AFNE01.JPG,AFNE01.JPG,AFNE01.JPG,AFNE01.JPG,AFNE01.JPG,5,5,55,9,,,,,,,,,,,,,,,,,,,,,,,AFSA01.jpg,AFSA17.jpg,AFNE05.jpg,AFNE18.jpg,AFNE05.jpg,FN,3,num_2,32,num_6,0.566774509847,,,2017_May_04_1247,60.0019822738,FEMA4ImagesEEG,001,200287,
AFNE01.JPG,AFNE01.JPG,AFNE01.JPG,AFNE01.JPG,AFNE01.JPG,AFNE01.JPG,5,6,56,8,,,,,,,,,,,,,,,,,,,,,,,AFSA06.jpg,AFNE08.jpg,AFSA20.jpg,AFNE03.jpg,AFSA06.jpg,FS,4,num_8,32,num_2,0.900202995865,,,2017_May_04_1247,60.0019822738,FEMA4ImagesEEG,001,200287,
AFNE01.JPG,AFNE01.JPG,AFNE01.JPG,AFNE01.JPG,AFNE01.JPG,AFNE01.JPG,5,7,57,4,,,,,,,,,,,,,,,,,,,,,,,AFNE19.jpg,AFNE08.jpg,AFSA14.jpg,AFSA18.jpg,AFNE08.jpg,FN,3,num_6,16,num_6,0.400186157087,,,2017_May_04_1247,60.0019822738,FEMA4ImagesEEG,001,200287,
AFNE01.JPG,AFNE01.JPG,AFNE01.JPG,AFNE01.JPG,AFNE01.JPG,AFNE01.JPG,5,8,58,0,,,,,,,,,,,,,,,,,,,,,,,AFNE05.jpg,AFNE19.jpg,AFSA13.jpg,AFSA19.jpg,AFNE19.jpg,FN,3,num_6,32,num_8,0.550136169884,,,2017_May_04_1247,60.0019822738,FEMA4ImagesEEG,001,200287,
AFNE01.JPG,AFNE01.JPG,AFNE01.JPG,AFNE01.JPG,AFNE01.JPG,AFNE01.JPG,5,9,59,6,,,,,,,,,,,,,,,,,,,,,,,AFNE01.jpg,AFNE11.jpg,AFSA10.jpg,AFSA12.jpg,AFSA10.jpg,FS,4,num_2,32,num_4,0.516805605497,,,2017_May_04_1247,60.0019822738,FEMA4ImagesEEG,001,200287,
,,,,,,,,,,,,,,,,,,,,,,,,,,,,,,,,,,,,,,,,,,,space,2.53360046633,2017_May_04_1247,60.0019822738,FEMA4ImagesEEG,001,200287,
AFNE01.JPG,AFNE01.JPG,AFNE01.JPG,AFNE01.JPG,AFNE01.JPG,AFNE01.JPG,,,,,0,0,0,0,,,,,,,,,,,,,,,,,,,AMSA03.jpg,AMNE10.jpg,AMNE11.jpg,AMSA12.jpg,AMSA12.jpg,MS,2,num_4,32,num_6,0.53347056685,,,2017_May_04_1247,60.0019822738,FEMA4ImagesEEG,001,200287,
AFNE01.JPG,AFNE01.JPG,AFNE01.JPG,AFNE01.JPG,AFNE01.JPG,AFNE01.JPG,,,,,0,1,1,7,,,,,,,,,,,,,,,,,,,AMSA11.jpg,AMNE07.jpg,AMNE09.jpg,AMSA07.jpg,AMNE07.jpg,MN,1,num_6,32,num_8,0.250141526107,,,2017_May_04_1247,60.0019822738,FEMA4ImagesEEG,001,200287,
AFNE01.JPG,AFNE01.JPG,AFNE01.JPG,AFNE01.JPG,AFNE01.JPG,AFNE01.JPG,,,,,0,2,2,3,,,,,,,,,,,,,,,,,,,AMNE11.jpg,AMSA02.jpg,AMSA19.jpg,AMNE03.jpg,AMSA19.jpg,MS,2,num_2,16,num_2,0.883540279465,,,2017_May_04_1247,60.0019822738,FEMA4ImagesEEG,001,200287,
AFNE01.JPG,AFNE01.JPG,AFNE01.JPG,AFNE01.JPG,AFNE01.JPG,AFNE01.JPG,,,,,0,3,3,5,,,,,,,,,,,,,,,,,,,AMSA15.jpg,AMNE09.jpg,AMNE06.jpg,AMSA04.jpg,AMSA04.jpg,MS,2,num_4,16,num_4,0.550133283017,,,2017_May_04_1247,60.0019822738,FEMA4ImagesEEG,001,200287,
AFNE01.JPG,AFNE01.JPG,AFNE01.JPG,AFNE01.JPG,AFNE01.JPG,AFNE01.JPG,,,,,0,4,4,8,,,,,,,,,,,,,,,,,,,AMSA02.jpg,AMNE07.jpg,AMNE16.jpg,AMSA13.jpg,AMNE16.jpg,MN,1,num_2,32,num_8,0.650166351348,,,2017_May_04_1247,60.0019822738,FEMA4ImagesEEG,001,200287,
AFNE01.JPG,AFNE01.JPG,AFNE01.JPG,AFNE01.JPG,AFNE01.JPG,AFNE01.JPG,,,,,0,5,5,2,,,,,,,,,,,,,,,,,,,AMSA02.jpg,AMNE16.jpg,AMNE07.jpg,AMSA07.jpg,AMNE16.jpg,MN,1,num_6,32,num_2,0.466747535858,,,2017_May_04_1247,60.0019822738,FEMA4ImagesEEG,001,200287,
AFNE01.JPG,AFNE01.JPG,AFNE01.JPG,AFNE01.JPG,AFNE01.JPG,AFNE01.JPG,,,,,0,6,6,9,,,,,,,,,,,,,,,,,,,AMSA04.jpg,AMNE04.jpg,AMNE12.jpg,AMSA10.jpg,AMNE04.jpg,MN,1,num_6,16,num_6,0.50009092968,,,2017_May_04_1247,60.0019822738,FEMA4ImagesEEG,001,200287,
AFNE01.JPG,AFNE01.JPG,AFNE01.JPG,AFNE01.JPG,AFNE01.JPG,AFNE01.JPG,,,,,0,7,7,1,,,,,,,,,,,,,,,,,,,AMSA08.jpg,AMSA12.jpg,AMNE17.jpg,AMNE05.jpg,AMSA12.jpg,MS,2,num_6,32,num_8,0.48348626704,,,2017_May_04_1247,60.0019822738,FEMA4ImagesEEG,001,200287,
AFNE01.JPG,AFNE01.JPG,AFNE01.JPG,AFNE01.JPG,AFNE01.JPG,AFNE01.JPG,,,,,0,8,8,4,,,,,,,,,,,,,,,,,,,AMSA09.jpg,AMNE06.jpg,AMSA19.jpg,AMNE04.jpg,AMNE04.jpg,MN,1,num_4,32,num_2,0.333433617838,,,2017_May_04_1247,60.0019822738,FEMA4ImagesEEG,001,200287,
AFNE01.JPG,AFNE01.JPG,AFNE01.JPG,AFNE01.JPG,AFNE01.JPG,AFNE01.JPG,,,,,0,9,9,6,,,,,,,,,,,,,,,,,,,AMNE16.jpg,AMSA12.jpg,AMSA19.jpg,AMNE01.jpg,AMNE16.jpg,MN,1,num_8,32,num_4,0.25019316515,,,2017_May_04_1247,60.0019822738,FEMA4ImagesEEG,001,200287,
AFNE01.JPG,AFNE01.JPG,AFNE01.JPG,AFNE01.JPG,AFNE01.JPG,AFNE01.JPG,,,,,1,0,10,5,,,,,,,,,,,,,,,,,,,AMSA13.jpg,AMSA07.jpg,AMNE13.jpg,AMNE20.jpg,AMSA13.jpg,MS,2,num_8,32,num_6,0.650115353754,,,2017_May_04_1247,60.0019822738,FEMA4ImagesEEG,001,200287,
AFNE01.JPG,AFNE01.JPG,AFNE01.JPG,AFNE01.JPG,AFNE01.JPG,AFNE01.JPG,,,,,1,1,11,1,,,,,,,,,,,,,,,,,,,AMNE07.jpg,AMSA07.jpg,AMSA05.jpg,AMNE05.jpg,AMNE07.jpg,MN,1,num_8,32,num_6,0.283465354936,,,2017_May_04_1247,60.0019822738,FEMA4ImagesEEG,001,200287,
AFNE01.JPG,AFNE01.JPG,AFNE01.JPG,AFNE01.JPG,AFNE01.JPG,AFNE01.JPG,,,,,1,2,12,7,,,,,,,,,,,,,,,,,,,AMSA06.jpg,AMSA14.jpg,AMNE16.jpg,AMNE18.jpg,AMNE18.jpg,MN,1,num_4,32,num_8,0.500128135318,,,2017_May_04_1247,60.0019822738,FEMA4ImagesEEG,001,200287,
AFNE01.JPG,AFNE01.JPG,AFNE01.JPG,AFNE01.JPG,AFNE01.JPG,AFNE01.JPG,,,,,1,3,13,6,,,,,,,,,,,,,,,,,,,AMSA03.jpg,AMNE09.jpg,AMNE05.jpg,AMSA16.jpg,AMNE05.jpg,MN,1,num_2,32,num_8,0.550148678711,,,2017_May_04_1247,60.0019822738,FEMA4ImagesEEG,001,200287,
AFNE01.JPG,AFNE01.JPG,AFNE01.JPG,AFNE01.JPG,AFNE01.JPG,AFNE01.JPG,,,,,1,4,14,8,,,,,,,,,,,,,,,,,,,AMSA13.jpg,AMSA14.jpg,AMNE03.jpg,AMNE02.jpg,AMSA14.jpg,MS,2,num_6,32,num_4,0.833467455581,,,2017_May_04_1247,60.0019822738,FEMA4ImagesEEG,001,200287,
AFNE01.JPG,AFNE01.JPG,AFNE01.JPG,AFNE01.JPG,AFNE01.JPG,AFNE01.JPG,,,,,1,5,15,0,,,,,,,,,,,,,,,,,,,AMSA13.jpg,AMNE19.jpg,AMSA15.jpg,AMNE09.jpg,AMNE19.jpg,MN,1,num_6,32,num_2,0.350237138337,,,2017_May_04_1247,60.0019822738,FEMA4ImagesEEG,001,200287,
AFNE01.JPG,AFNE01.JPG,AFNE01.JPG,AFNE01.JPG,AFNE01.JPG,AFNE01.JPG,,,,,1,6,16,3,,,,,,,,,,,,,,,,,,,AMNE16.jpg,AMSA11.jpg,AMNE15.jpg,AMSA06.jpg,AMSA11.jpg,MS,2,num_6,32,num_8,0.30011427938,,,2017_May_04_1247,60.0019822738,FEMA4ImagesEEG,001,200287,
AFNE01.JPG,AFNE01.JPG,AFNE01.JPG,AFNE01.JPG,AFNE01.JPG,AFNE01.JPG,,,,,1,7,17,2,,,,,,,,,,,,,,,,,,,AMNE12.jpg,AMSA11.jpg,AMNE20.jpg,AMSA08.jpg,AMSA11.jpg,MS,2,num_6,32,num_4,0.583510675235,,,2017_May_04_1247,60.0019822738,FEMA4ImagesEEG,001,200287,
AFNE01.JPG,AFNE01.JPG,AFNE01.JPG,AFNE01.JPG,AFNE01.JPG,AFNE01.JPG,,,,,1,8,18,9,,,,,,,,,,,,,,,,,,,AMNE14.jpg,AMSA03.jpg,AMNE03.jpg,AMSA06.jpg,AMSA06.jpg,MS,2,num_4,32,num_6,0.316804578993,,,2017_May_04_1247,60.0019822738,FEMA4ImagesEEG,001,200287,
AFNE01.JPG,AFNE01.JPG,AFNE01.JPG,AFNE01.JPG,AFNE01.JPG,AFNE01.JPG,,,,,1,9,19,4,,,,,,,,,,,,,,,,,,,AMNE20.jpg,AMNE10.jpg,AMSA18.jpg,AMSA08.jpg,AMSA18.jpg,MS,2,num_2,32,num_8,0.000216819811612,,,2017_May_04_1247,60.0019822738,FEMA4ImagesEEG,001,200287,
AFNE01.JPG,AFNE01.JPG,AFNE01.JPG,AFNE01.JPG,AFNE01.JPG,AFNE01.JPG,,,,,2,0,20,9,,,,,,,,,,,,,,,,,,,AMNE14.jpg,AMSA07.jpg,AMNE03.jpg,AMSA03.jpg,AMNE14.jpg,MN,1,num_8,32,num_4,0.366780218901,,,2017_May_04_1247,60.0019822738,FEMA4ImagesEEG,001,200287,
AFNE01.JPG,AFNE01.JPG,AFNE01.JPG,AFNE01.JPG,AFNE01.JPG,AFNE01.JPG,,,,,2,1,21,3,,,,,,,,,,,,,,,,,,,AMSA12.jpg,AMNE07.jpg,AMNE10.jpg,AMSA16.jpg,AMNE10.jpg,MN,1,num_2,16,num_2,0.4168081393,,,2017_May_04_1247,60.0019822738,FEMA4ImagesEEG,001,200287,
AFNE01.JPG,AFNE01.JPG,AFNE01.JPG,AFNE01.JPG,AFNE01.JPG,AFNE01.JPG,,,,,2,2,22,6,,,,,,,,,,,,,,,,,,,AMNE03.jpg,AMSA03.jpg,AMNE05.jpg,AMSA14.jpg,AMSA14.jpg,MS,2,num_4,32,num_6,0.333492633887,,,2017_May_04_1247,60.0019822738,FEMA4ImagesEEG,001,200287,
AFNE01.JPG,AFNE01.JPG,AFNE01.JPG,AFNE01.JPG,AFNE01.JPG,AFNE01.JPG,,,,,2,3,23,7,,,,,,,,,,,,,,,,,,,AMNE20.jpg,AMNE12.jpg,AMSA11.jpg,AMSA16.jpg,AMSA16.jpg,MS,2,num_4,16,num_4,0.733531571459,,,2017_May_04_1247,60.0019822738,FEMA4ImagesEEG,001,200287,
AFNE01.JPG,AFNE01.JPG,AFNE01.JPG,AFNE01.JPG,AFNE01.JPG,AFNE01.JPG,,,,,2,4,24,2,,,,,,,,,,,,,,,,,,,AMNE15.jpg,AMSA15.jpg,AMNE04.jpg,AMSA09.jpg,AMNE15.jpg,MN,1,num_8,16,num_8,0.36684949859,,,2017_May_04_1247,60.0019822738,FEMA4ImagesEEG,001,200287,
AFNE01.JPG,AFNE01.JPG,AFNE01.JPG,AFNE01.JPG,AFNE01.JPG,AFNE01.JPG,,,,,2,5,25,8,,,,,,,,,,,,,,,,,,,AMSA08.jpg,AMNE05.jpg,AMNE06.jpg,AMSA17.jpg,AMSA17.jpg,MS,2,num_4,32,num_6,0.450138703687,,,2017_May_04_1247,60.0019822738,FEMA4ImagesEEG,001,200287,
AFNE01.JPG,AFNE01.JPG,AFNE01.JPG,AFNE01.JPG,AFNE01.JPG,AFNE01.JPG,,,,,2,6,26,0,,,,,,,,,,,,,,,,,,,AMSA07.jpg,AMSA04.jpg,AMNE03.jpg,AMNE18.jpg,AMSA04.jpg,MS,2,num_6,32,num_8,0.533436247846,,,2017_May_04_1247,60.0019822738,FEMA4ImagesEEG,001,200287,
AFNE01.JPG,AFNE01.JPG,AFNE01.JPG,AFNE01.JPG,AFNE01.JPG,AFNE01.JPG,,,,,2,7,27,1,,,,,,,,,,,,,,,,,,,AMSA04.jpg,AMNE13.jpg,AMNE19.jpg,AMSA16.jpg,AMSA16.jpg,MS,2,num_4,16,num_4,0.700116011314,,,2017_May_04_1247,60.0019822738,FEMA4ImagesEEG,001,200287,
AFNE01.JPG,AFNE01.JPG,AFNE01.JPG,AFNE01.JPG,AFNE01.JPG,AFNE01.JPG,,,,,2,8,28,5,,,,,,,,,,,,,,,,,,,AMNE04.jpg,AMNE03.jpg,AMSA08.jpg,AMSA06.jpg,AMSA08.jpg,MS,2,num_2,32,num_6,0.766758216312,,,2017_May_04_1247,60.0019822738,FEMA4ImagesEEG,001,200287,
AFNE01.JPG,AFNE01.JPG,AFNE01.JPG,AFNE01.JPG,AFNE01.JPG,AFNE01.JPG,,,,,2,9,29,4,,,,,,,,,,,,,,,,,,,AMSA20.jpg,AMNE16.jpg,AMSA05.jpg,AMNE05.jpg,AMNE16.jpg,MN,1,num_6,32,num_4,0.450158268679,,,2017_May_04_1247,60.0019822738,FEMA4ImagesEEG,001,200287,
AFNE01.JPG,AFNE01.JPG,AFNE01.JPG,AFNE01.JPG,AFNE01.JPG,AFNE01.JPG,,,,,3,0,30,1,,,,,,,,,,,,,,,,,,,AMSA16.jpg,AMNE06.jpg,AMNE19.jpg,AMSA03.jpg,AMSA03.jpg,MS,2,num_4,32,num_6,0.550136811333,,,2017_May_04_1247,60.0019822738,FEMA4ImagesEEG,001,200287,
AFNE01.JPG,AFNE01.JPG,AFNE01.JPG,AFNE01.JPG,AFNE01.JPG,AFNE01.JPG,,,,,3,1,31,0,,,,,,,,,,,,,,,,,,,AMSA07.jpg,AMNE14.jpg,AMSA11.jpg,AMNE16.jpg,AMNE16.jpg,MN,1,num_4,32,num_2,0.683467728319,,,2017_May_04_1247,60.0019822738,FEMA4ImagesEEG,001,200287,
AFNE01.JPG,AFNE01.JPG,AFNE01.JPG,AFNE01.JPG,AFNE01.JPG,AFNE01.JPG,,,,,3,2,32,4,,,,,,,,,,,,,,,,,,,AMNE13.jpg,AMSA01.jpg,AMNE16.jpg,AMSA03.jpg,AMSA01.jpg,MS,2,num_6,32,num_4,0.550161187304,,,2017_May_04_1247,60.0019822738,FEMA4ImagesEEG,001,200287,
AFNE01.JPG,AFNE01.JPG,AFNE01.JPG,AFNE01.JPG,AFNE01.JPG,AFNE01.JPG,,,,,3,3,33,5,,,,,,,,,,,,,,,,,,,AMNE16.jpg,AMSA05.jpg,AMNE08.jpg,AMSA09.jpg,AMSA05.jpg,MS,2,num_6,32,num_8,0.533488207497,,,2017_May_04_1247,60.0019822738,FEMA4ImagesEEG,001,200287,
AFNE01.JPG,AFNE01.JPG,AFNE01.JPG,AFNE01.JPG,AFNE01.JPG,AFNE01.JPG,,,,,3,4,34,7,,,,,,,,,,,,,,,,,,,AMNE13.jpg,AMNE09.jpg,AMSA10.jpg,AMSA06.jpg,AMSA06.jpg,MS,2,num_4,32,num_6,0.350142520387,,,2017_May_04_1247,60.0019822738,FEMA4ImagesEEG,001,200287,
AFNE01.JPG,AFNE01.JPG,AFNE01.JPG,AFNE01.JPG,AFNE01.JPG,AFNE01.JPG,,,,,3,5,35,9,,,,,,,,,,,,,,,,,,,AMSA02.jpg,AMNE14.jpg,AMNE19.jpg,AMSA17.jpg,AMSA17.jpg,MS,2,num_4,32,num_8,0.500120437471,,,2017_May_04_1247,60.0019822738,FEMA4ImagesEEG,001,200287,
AFNE01.JPG,AFNE01.JPG,AFNE01.JPG,AFNE01.JPG,AFNE01.JPG,AFNE01.JPG,,,,,3,6,36,3,,,,,,,,,,,,,,,,,,,AMNE09.jpg,AMSA07.jpg,AMSA06.jpg,AMNE05.jpg,AMNE05.jpg,MN,1,num_4,32,num_8,0.417075635633,,,2017_May_04_1247,60.0019822738,FEMA4ImagesEEG,001,200287,
AFNE01.JPG,AFNE01.JPG,AFNE01.JPG,AFNE01.JPG,AFNE01.JPG,AFNE01.JPG,,,,,3,7,37,8,,,,,,,,,,,,,,,,,,,AMNE07.jpg,AMSA06.jpg,AMNE12.jpg,AMSA11.jpg,AMSA11.jpg,MS,2,num_4,16,num_4,0.500346879242,,,2017_May_04_1247,60.0019822738,FEMA4ImagesEEG,001,200287,
AFNE01.JPG,AFNE01.JPG,AFNE01.JPG,AFNE01.JPG,AFNE01.JPG,AFNE01.JPG,,,,,3,8,38,2,,,,,,,,,,,,,,,,,,,AMNE02.jpg,AMSA13.jpg,AMNE06.jpg,AMSA05.jpg,AMSA05.jpg,MS,2,num_4,32,num_2,0.600125601515,,,2017_May_04_1247,60.0019822738,FEMA4ImagesEEG,001,200287,
AFNE01.JPG,AFNE01.JPG,AFNE01.JPG,AFNE01.JPG,AFNE01.JPG,AFNE01.JPG,,,,,3,9,39,6,,,,,,,,,,,,,,,,,,,AMNE12.jpg,AMSA05.jpg,AMSA14.jpg,AMNE19.jpg,AMSA05.jpg,MS,2,num_6,16,num_6,0.650138767902,,,2017_May_04_1247,60.0019822738,FEMA4ImagesEEG,001,200287,
AFNE01.JPG,AFNE01.JPG,AFNE01.JPG,AFNE01.JPG,AFNE01.JPG,AFNE01.JPG,,,,,4,0,40,5,,,,,,,,,,,,,,,,,,,AMSA08.jpg,AMNE14.jpg,AMNE15.jpg,AMSA13.jpg,AMNE14.jpg,MN,1,num_6,32,num_8,0.299984700745,,,2017_May_04_1247,60.0019822738,FEMA4ImagesEEG,001,200287,
AFNE01.JPG,AFNE01.JPG,AFNE01.JPG,AFNE01.JPG,AFNE01.JPG,AFNE01.JPG,,,,,4,1,41,4,,,,,,,,,,,,,,,,,,,AMSA15.jpg,AMNE13.jpg,AMNE08.jpg,AMSA19.jpg,AMSA19.jpg,MS,2,num_4,16,num_4,0.53371432866,,,2017_May_04_1247,60.0019822738,FEMA4ImagesEEG,001,200287,
AFNE01.JPG,AFNE01.JPG,AFNE01.JPG,AFNE01.JPG,AFNE01.JPG,AFNE01.JPG,,,,,4,2,42,7,,,,,,,,,,,,,,,,,,,AMSA10.jpg,AMNE11.jpg,AMNE04.jpg,AMSA06.jpg,AMSA10.jpg,MS,2,num_8,16,num_8,0.683476067614,,,2017_May_04_1247,60.0019822738,FEMA4ImagesEEG,001,200287,
AFNE01.JPG,AFNE01.JPG,AFNE01.JPG,AFNE01.JPG,AFNE01.JPG,AFNE01.JPG,,,,,4,3,43,2,,,,,,,,,,,,,,,,,,,AMSA12.jpg,AMNE15.jpg,AMSA06.jpg,AMNE04.jpg,AMSA12.jpg,MS,2,num_8,16,num_8,0.533471208299,,,2017_May_04_1247,60.0019822738,FEMA4ImagesEEG,001,200287,
AFNE01.JPG,AFNE01.JPG,AFNE01.JPG,AFNE01.JPG,AFNE01.JPG,AFNE01.JPG,,,,,4,4,44,9,,,,,,,,,,,,,,,,,,,AMSA13.jpg,AMNE13.jpg,AMSA17.jpg,AMNE07.jpg,AMNE07.jpg,MN,1,num_4,32,num_6,0.333492633654,,,2017_May_04_1247,60.0019822738,FEMA4ImagesEEG,001,200287,
AFNE01.JPG,AFNE01.JPG,AFNE01.JPG,AFNE01.JPG,AFNE01.JPG,AFNE01.JPG,,,,,4,5,45,6,,,,,,,,,,,,,,,,,,,AMSA11.jpg,AMSA09.jpg,AMNE06.jpg,AMNE19.jpg,AMSA09.jpg,MS,2,num_6,32,num_4,0.400145743974,,,2017_May_04_1247,60.0019822738,FEMA4ImagesEEG,001,200287,
AFNE01.JPG,AFNE01.JPG,AFNE01.JPG,AFNE01.JPG,AFNE01.JPG,AFNE01.JPG,,,,,4,6,46,1,,,,,,,,,,,,,,,,,,,AMNE20.jpg,AMSA19.jpg,AMNE14.jpg,AMSA11.jpg,AMNE20.jpg,MN,1,num_8,16,num_8,0.383568344405,,,2017_May_04_1247,60.0019822738,FEMA4ImagesEEG,001,200287,
AFNE01.JPG,AFNE01.JPG,AFNE01.JPG,AFNE01.JPG,AFNE01.JPG,AFNE01.JPG,,,,,4,7,47,8,,,,,,,,,,,,,,,,,,,AMNE18.jpg,AMSA10.jpg,AMNE09.jpg,AMSA08.jpg,AMNE09.jpg,MN,1,num_2,32,num_6,0.283486844506,,,2017_May_04_1247,60.0019822738,FEMA4ImagesEEG,001,200287,
AFNE01.JPG,AFNE01.JPG,AFNE01.JPG,AFNE01.JPG,AFNE01.JPG,AFNE01.JPG,,,,,4,8,48,0,,,,,,,,,,,,,,,,,,,AMSA07.jpg,AMNE11.jpg,AMSA01.jpg,AMNE17.jpg,AMSA01.jpg,MS,2,num_2,16,num_2,0.65016089892,,,2017_May_04_1247,60.0019822738,FEMA4ImagesEEG,001,200287,
AFNE01.JPG,AFNE01.JPG,AFNE01.JPG,AFNE01.JPG,AFNE01.JPG,AFNE01.JPG,,,,,4,9,49,3,,,,,,,,,,,,,,,,,,,AMNE01.jpg,AMNE12.jpg,AMSA01.jpg,AMSA03.jpg,AMSA03.jpg,MS,2,num_4,32,num_8,0.466647465248,,,2017_May_04_1247,60.0019822738,FEMA4ImagesEEG,001,200287,
AFNE01.JPG,AFNE01.JPG,AFNE01.JPG,AFNE01.JPG,AFNE01.JPG,AFNE01.JPG,,,,,5,0,50,8,,,,,,,,,,,,,,,,,,,AMSA01.jpg,AMNE06.jpg,AMSA16.jpg,AMNE12.jpg,AMNE06.jpg,MN,1,num_6,32,num_8,0.383560004877,,,2017_May_04_1247,60.0019822738,FEMA4ImagesEEG,001,200287,
AFNE01.JPG,AFNE01.JPG,AFNE01.JPG,AFNE01.JPG,AFNE01.JPG,AFNE01.JPG,,,,,5,1,51,1,,,,,,,,,,,,,,,,,,,AMSA14.jpg,AMNE01.jpg,AMSA09.jpg,AMNE04.jpg,AMNE04.jpg,MN,1,num_4,32,num_6,0.433486250928,,,2017_May_04_1247,60.0019822738,FEMA4ImagesEEG,001,200287,
AFNE01.JPG,AFNE01.JPG,AFNE01.JPG,AFNE01.JPG,AFNE01.JPG,AFNE01.JPG,,,,,5,2,52,3,,,,,,,,,,,,,,,,,,,AMNE16.jpg,AMSA02.jpg,AMSA17.jpg,AMNE04.jpg,AMNE04.jpg,MN,1,num_4,32,num_6,0.333617721917,,,2017_May_04_1247,60.0019822738,FEMA4ImagesEEG,001,200287,
AFNE01.JPG,AFNE01.JPG,AFNE01.JPG,AFNE01.JPG,AFNE01.JPG,AFNE01.JPG,,,,,5,3,53,7,,,,,,,,,,,,,,,,,,,AMNE07.jpg,AMSA18.jpg,AMNE14.jpg,AMSA17.jpg,AMNE07.jpg,MN,1,num_8,32,num_4,0.450133892475,,,2017_May_04_1247,60.0019822738,FEMA4ImagesEEG,001,200287,
AFNE01.JPG,AFNE01.JPG,AFNE01.JPG,AFNE01.JPG,AFNE01.JPG,AFNE01.JPG,,,,,5,4,54,6,,,,,,,,,,,,,,,,,,,AMNE08.jpg,AMNE01.jpg,AMSA09.jpg,AMSA03.jpg,AMNE08.jpg,MN,1,num_8,16,num_8,0.283529181965,,,2017_May_04_1247,60.0019822738,FEMA4ImagesEEG,001,200287,
AFNE01.JPG,AFNE01.JPG,AFNE01.JPG,AFNE01.JPG,AFNE01.JPG,AFNE01.JPG,,,,,5,5,55,9,,,,,,,,,,,,,,,,,,,AMNE19.jpg,AMSA18.jpg,AMSA07.jpg,AMNE06.jpg,AMSA07.jpg,MS,2,num_2,16,num_2,0.400225928752,,,2017_May_04_1247,60.0019822738,FEMA4ImagesEEG,001,200287,
AFNE01.JPG,AFNE01.JPG,AFNE01.JPG,AFNE01.JPG,AFNE01.JPG,AFNE01.JPG,,,,,5,6,56,2,,,,,,,,,,,,,,,,,,,AMSA02.jpg,AMSA15.jpg,AMNE14.jpg,AMNE11.jpg,AMNE14.jpg,MN,1,num_2,32,num_4,0.433555210009,,,2017_May_04_1247,60.0019822738,FEMA4ImagesEEG,001,200287,
AFNE01.JPG,AFNE01.JPG,AFNE01.JPG,AFNE01.JPG,AFNE01.JPG,AFNE01.JPG,,,,,5,7,57,4,,,,,,,,,,,,,,,,,,,AMNE12.jpg,AMSA07.jpg,AMNE02.jpg,AMSA17.jpg,AMNE12.jpg,MN,1,num_8,32,num_6,0.233522751136,,,2017_May_04_1247,60.0019822738,FEMA4ImagesEEG,001,200287,
AFNE01.JPG,AFNE01.JPG,AFNE01.JPG,AFNE01.JPG,AFNE01.JPG,AFNE01.JPG,,,,,5,8,58,5,,,,,,,,,,,,,,,,,,,AMSA04.jpg,AMNE16.jpg,AMNE19.jpg,AMSA19.jpg,AMSA04.jpg,MS,2,num_8,16,num_8,0.283504164312,,,2017_May_04_1247,60.0019822738,FEMA4ImagesEEG,001,200287,
AFNE01.JPG,AFNE01.JPG,AFNE01.JPG,AFNE01.JPG,AFNE01.JPG,AFNE01.JPG,,,,,5,9,59,0,,,,,,,,,,,,,,,,,,,AMNE03.jpg,AMNE08.jpg,AMSA16.jpg,AMSA05.jpg,AMSA05.jpg,MS,2,num_4,32,num_6,0.316830238095,,,2017_May_04_1247,60.0019822738,FEMA4ImagesEEG,001,200287,
,,,,,,,,,,,,,,,,,,,,,,,,,,,,,,,,,,,,,,,,,,,space,1.61678895913,2017_May_04_1247,60.0019822738,FEMA4ImagesEEG,001,200287,
AFNE01.JPG,AFNE01.JPG,AFNE01.JPG,AFNE01.JPG,AFNE01.JPG,AFNE01.JPG,,,,,,,,,0,0,0,7,,,,,,,,,,,,,,,AFNE15.jpg,AFSA07.jpg,AFNE07.jpg,AFSA20.jpg,AFSA07.jpg,FS,4,num_6,32,num_4,0.333576987963,,,2017_May_04_1247,60.0019822738,FEMA4ImagesEEG,001,200287,
AFNE01.JPG,AFNE01.JPG,AFNE01.JPG,AFNE01.JPG,AFNE01.JPG,AFNE01.JPG,,,,,,,,,0,1,1,2,,,,,,,,,,,,,,,AFNE14.jpg,AFSA12.jpg,AFNE02.jpg,AFSA20.jpg,AFNE02.jpg,FN,3,num_2,32,num_6,0.266813543858,,,2017_May_04_1247,60.0019822738,FEMA4ImagesEEG,001,200287,
AFNE01.JPG,AFNE01.JPG,AFNE01.JPG,AFNE01.JPG,AFNE01.JPG,AFNE01.JPG,,,,,,,,,0,2,2,5,,,,,,,,,,,,,,,AFNE15.jpg,AFSA13.jpg,AFNE06.jpg,AFSA20.jpg,AFSA13.jpg,FS,4,num_6,32,num_8,0.266789167654,,,2017_May_04_1247,60.0019822738,FEMA4ImagesEEG,001,200287,
AFNE01.JPG,AFNE01.JPG,AFNE01.JPG,AFNE01.JPG,AFNE01.JPG,AFNE01.JPG,,,,,,,,,0,3,3,9,,,,,,,,,,,,,,,AFNE06.jpg,AFSA18.jpg,AFSA04.jpg,AFNE10.jpg,AFNE10.jpg,FN,3,num_4,32,num_2,0.250171034131,,,2017_May_04_1247,60.0019822738,FEMA4ImagesEEG,001,200287,
AFNE01.JPG,AFNE01.JPG,AFNE01.JPG,AFNE01.JPG,AFNE01.JPG,AFNE01.JPG,,,,,,,,,0,4,4,0,,,,,,,,,,,,,,,AFNE04.jpg,AFNE12.jpg,AFSA01.jpg,AFSA10.jpg,AFSA01.jpg,FS,4,num_2,32,num_4,0.483550414676,,,2017_May_04_1247,60.0019822738,FEMA4ImagesEEG,001,200287,
AFNE01.JPG,AFNE01.JPG,AFNE01.JPG,AFNE01.JPG,AFNE01.JPG,AFNE01.JPG,,,,,,,,,0,5,5,6,,,,,,,,,,,,,,,AFNE10.jpg,AFSA09.jpg,AFSA02.jpg,AFNE05.jpg,AFNE10.jpg,FN,3,num_8,32,num_4,0.400139329024,,,2017_May_04_1247,60.0019822738,FEMA4ImagesEEG,001,200287,
AFNE01.JPG,AFNE01.JPG,AFNE01.JPG,AFNE01.JPG,AFNE01.JPG,AFNE01.JPG,,,,,,,,,0,6,6,4,,,,,,,,,,,,,,,AFSA01.jpg,AFNE17.jpg,AFNE05.jpg,AFSA11.jpg,AFNE17.jpg,FN,3,num_6,16,num_6,0.26677505509,,,2017_May_04_1247,60.0019822738,FEMA4ImagesEEG,001,200287,
AFNE01.JPG,AFNE01.JPG,AFNE01.JPG,AFNE01.JPG,AFNE01.JPG,AFNE01.JPG,,,,,,,,,0,7,7,1,,,,,,,,,,,,,,,AFSA03.jpg,AFNE16.jpg,AFNE03.jpg,AFSA07.jpg,AFSA03.jpg,FS,4,num_8,16,num_8,0.233464055927,,,2017_May_04_1247,60.0019822738,FEMA4ImagesEEG,001,200287,
AFNE01.JPG,AFNE01.JPG,AFNE01.JPG,AFNE01.JPG,AFNE01.JPG,AFNE01.JPG,,,,,,,,,0,8,8,3,,,,,,,,,,,,,,,AFSA09.jpg,AFNE03.jpg,AFSA03.jpg,AFNE13.jpg,AFSA09.jpg,FS,4,num_8,32,num_4,0.350148614496,,,2017_May_04_1247,60.0019822738,FEMA4ImagesEEG,001,200287,
AFNE01.JPG,AFNE01.JPG,AFNE01.JPG,AFNE01.JPG,AFNE01.JPG,AFNE01.JPG,,,,,,,,,0,9,9,8,,,,,,,,,,,,,,,AFNE05.jpg,AFSA03.jpg,AFSA16.jpg,AFNE12.jpg,AFNE12.jpg,FN,3,num_4,32,num_2,0.60007556621,,,2017_May_04_1247,60.0019822738,FEMA4ImagesEEG,001,200287,
AFNE01.JPG,AFNE01.JPG,AFNE01.JPG,AFNE01.JPG,AFNE01.JPG,AFNE01.JPG,,,,,,,,,1,0,10,7,,,,,,,,,,,,,,,AFSA19.jpg,AFNE18.jpg,AFNE15.jpg,AFSA09.jpg,AFSA09.jpg,FS,4,num_4,32,num_6,0.300199916819,,,2017_May_04_1247,60.0019822738,FEMA4ImagesEEG,001,200287,
AFNE01.JPG,AFNE01.JPG,AFNE01.JPG,AFNE01.JPG,AFNE01.JPG,AFNE01.JPG,,,,,,,,,1,1,11,9,,,,,,,,,,,,,,,AFNE07.jpg,AFNE04.jpg,AFSA03.jpg,AFSA20.jpg,AFNE04.jpg,FN,3,num_6,32,num_8,0.383452557493,,,2017_May_04_1247,60.0019822738,FEMA4ImagesEEG,001,200287,
AFNE01.JPG,AFNE01.JPG,AFNE01.JPG,AFNE01.JPG,AFNE01.JPG,AFNE01.JPG,,,,,,,,,1,2,12,0,,,,,,,,,,,,,,,AFNE03.jpg,AFSA15.jpg,AFSA09.jpg,AFNE19.jpg,AFSA09.jpg,FS,4,num_2,32,num_4,0.300149881281,,,2017_May_04_1247,60.0019822738,FEMA4ImagesEEG,001,200287,
AFNE01.JPG,AFNE01.JPG,AFNE01.JPG,AFNE01.JPG,AFNE01.JPG,AFNE01.JPG,,,,,,,,,1,3,13,4,,,,,,,,,,,,,,,AFSA04.jpg,AFNE09.jpg,AFNE05.jpg,AFSA13.jpg,AFNE05.jpg,FN,3,num_2,32,num_6,0.533778797137,,,2017_May_04_1247,60.0019822738,FEMA4ImagesEEG,001,200287,
AFNE01.JPG,AFNE01.JPG,AFNE01.JPG,AFNE01.JPG,AFNE01.JPG,AFNE01.JPG,,,,,,,,,1,4,14,5,,,,,,,,,,,,,,,AFNE18.jpg,AFSA03.jpg,AFNE14.jpg,AFSA12.jpg,AFNE18.jpg,FN,3,num_8,32,num_6,1.10006353841,,,2017_May_04_1247,60.0019822738,FEMA4ImagesEEG,001,200287,
AFNE01.JPG,AFNE01.JPG,AFNE01.JPG,AFNE01.JPG,AFNE01.JPG,AFNE01.JPG,,,,,,,,,1,5,15,1,,,,,,,,,,,,,,,AFNE16.jpg,AFNE02.jpg,AFSA09.jpg,AFSA06.jpg,AFNE02.jpg,FN,3,num_6,32,num_4,0.333493595943,,,2017_May_04_1247,60.0019822738,FEMA4ImagesEEG,001,200287,
AFNE01.JPG,AFNE01.JPG,AFNE01.JPG,AFNE01.JPG,AFNE01.JPG,AFNE01.JPG,,,,,,,,,1,6,16,2,,,,,,,,,,,,,,,AFSA09.jpg,AFNE19.jpg,AFNE17.jpg,AFSA18.jpg,AFNE19.jpg,FN,3,num_6,32,num_8,0.350230082171,,,2017_May_04_1247,60.0019822738,FEMA4ImagesEEG,001,200287,
AFNE01.JPG,AFNE01.JPG,AFNE01.JPG,AFNE01.JPG,AFNE01.JPG,AFNE01.JPG,,,,,,,,,1,7,17,8,,,,,,,,,,,,,,,AFSA13.jpg,AFNE06.jpg,AFSA15.jpg,AFNE02.jpg,AFNE02.jpg,FN,3,num_4,16,num_4,0.433483043686,,,2017_May_04_1247,60.0019822738,FEMA4ImagesEEG,001,200287,
AFNE01.JPG,AFNE01.JPG,AFNE01.JPG,AFNE01.JPG,AFNE01.JPG,AFNE01.JPG,,,,,,,,,1,8,18,3,,,,,,,,,,,,,,,AFSA09.jpg,AFNE19.jpg,AFNE20.jpg,AFSA16.jpg,AFNE20.jpg,FN,3,num_2,16,num_2,0.383381032618,,,2017_May_04_1247,60.0019822738,FEMA4ImagesEEG,001,200287,
AFNE01.JPG,AFNE01.JPG,AFNE01.JPG,AFNE01.JPG,AFNE01.JPG,AFNE01.JPG,,,,,,,,,1,9,19,6,,,,,,,,,,,,,,,AFNE19.jpg,AFNE08.jpg,AFSA14.jpg,AFSA03.jpg,AFNE19.jpg,FN,3,num_8,16,num_8,0.083505383227,,,2017_May_04_1247,60.0019822738,FEMA4ImagesEEG,001,200287,
AFNE01.JPG,AFNE01.JPG,AFNE01.JPG,AFNE01.JPG,AFNE01.JPG,AFNE01.JPG,,,,,,,,,2,0,20,4,,,,,,,,,,,,,,,AFSA17.jpg,AFNE06.jpg,AFNE09.jpg,AFSA20.jpg,AFSA20.jpg,FS,4,num_4,32,num_6,0.383526648162,,,2017_May_04_1247,60.0019822738,FEMA4ImagesEEG,001,200287,
AFNE01.JPG,AFNE01.JPG,AFNE01.JPG,AFNE01.JPG,AFNE01.JPG,AFNE01.JPG,,,,,,,,,2,1,21,7,,,,,,,,,,,,,,,AFSA12.jpg,AFSA16.jpg,AFNE05.jpg,AFNE04.jpg,AFNE05.jpg,FN,3,num_2,32,num_4,0.333475313848,,,2017_May_04_1247,60.0019822738,FEMA4ImagesEEG,001,200287,
AFNE01.JPG,AFNE01.JPG,AFNE01.JPG,AFNE01.JPG,AFNE01.JPG,AFNE01.JPG,,,,,,,,,2,2,22,0,,,,,,,,,,,,,,,AFSA06.jpg,AFSA02.jpg,AFNE06.jpg,AFNE02.jpg,AFSA02.jpg,FS,4,num_6,32,num_8,0.416814233409,,,2017_May_04_1247,60.0019822738,FEMA4ImagesEEG,001,200287,
AFNE01.JPG,AFNE01.JPG,AFNE01.JPG,AFNE01.JPG,AFNE01.JPG,AFNE01.JPG,,,,,,,,,2,3,23,3,,,,,,,,,,,,,,,AFSA14.jpg,AFNE13.jpg,AFNE05.jpg,AFSA09.jpg,AFSA09.jpg,FS,4,num_4,32,num_2,0.416827063076,,,2017_May_04_1247,60.0019822738,FEMA4ImagesEEG,001,200287,
AFNE01.JPG,AFNE01.JPG,AFNE01.JPG,AFNE01.JPG,AFNE01.JPG,AFNE01.JPG,,,,,,,,,2,4,24,9,,,,,,,,,,,,,,,AFNE05.jpg,AFNE18.jpg,AFSA17.jpg,AFSA19.jpg,AFSA17.jpg,FS,4,num_2,32,num_6,0.333457672969,,,2017_May_04_1247,60.0019822738,FEMA4ImagesEEG,001,200287,
AFNE01.JPG,AFNE01.JPG,AFNE01.JPG,AFNE01.JPG,AFNE01.JPG,AFNE01.JPG,,,,,,,,,2,5,25,1,,,,,,,,,,,,,,,AFSA04.jpg,AFNE19.jpg,AFNE09.jpg,AFSA19.jpg,AFNE19.jpg,FN,3,num_6,32,num_2,0.283483637031,,,2017_May_04_1247,60.0019822738,FEMA4ImagesEEG,001,200287,
AFNE01.JPG,AFNE01.JPG,AFNE01.JPG,AFNE01.JPG,AFNE01.JPG,AFNE01.JPG,,,,,,,,,2,6,26,2,,,,,,,,,,,,,,,AFNE15.jpg,AFSA16.jpg,AFSA06.jpg,AFNE06.jpg,AFSA16.jpg,FS,4,num_6,32,num_8,0.266850749496,,,2017_May_04_1247,60.0019822738,FEMA4ImagesEEG,001,200287,
AFNE01.JPG,AFNE01.JPG,AFNE01.JPG,AFNE01.JPG,AFNE01.JPG,AFNE01.JPG,,,,,,,,,2,7,27,5,,,,,,,,,,,,,,,AFSA06.jpg,AFNE05.jpg,AFNE04.jpg,AFSA19.jpg,AFNE04.jpg,FN,3,num_2,32,num_4,0.333502255846,,,2017_May_04_1247,60.0019822738,FEMA4ImagesEEG,001,200287,
AFNE01.JPG,AFNE01.JPG,AFNE01.JPG,AFNE01.JPG,AFNE01.JPG,AFNE01.JPG,,,,,,,,,2,8,28,8,,,,,,,,,,,,,,,AFSA18.jpg,AFNE09.jpg,AFNE19.jpg,AFSA17.jpg,AFNE19.jpg,FN,3,num_2,32,num_8,0.550107944757,,,2017_May_04_1247,60.0019822738,FEMA4ImagesEEG,001,200287,
AFNE01.JPG,AFNE01.JPG,AFNE01.JPG,AFNE01.JPG,AFNE01.JPG,AFNE01.JPG,,,,,,,,,2,9,29,6,,,,,,,,,,,,,,,AFNE06.jpg,AFSA06.jpg,AFSA09.jpg,AFNE12.jpg,AFSA09.jpg,FS,4,num_2,32,num_6,0.366841480136,,,2017_May_04_1247,60.0019822738,FEMA4ImagesEEG,001,200287,
AFNE01.JPG,AFNE01.JPG,AFNE01.JPG,AFNE01.JPG,AFNE01.JPG,AFNE01.JPG,,,,,,,,,3,0,30,4,,,,,,,,,,,,,,,AFSA04.jpg,AFNE17.jpg,AFSA18.jpg,AFNE02.jpg,AFSA04.jpg,FS,4,num_8,32,num_2,0.350153425476,,,2017_May_04_1247,60.0019822738,FEMA4ImagesEEG,001,200287,
AFNE01.JPG,AFNE01.JPG,AFNE01.JPG,AFNE01.JPG,AFNE01.JPG,AFNE01.JPG,,,,,,,,,3,1,31,6,,,,,,,,,,,,,,,AFSA02.jpg,AFNE19.jpg,AFNE18.jpg,AFSA05.jpg,AFNE18.jpg,FN,3,num_2,32,num_8,0.400142215891,,,2017_May_04_1247,60.0019822738,FEMA4ImagesEEG,001,200287,
AFNE01.JPG,AFNE01.JPG,AFNE01.JPG,AFNE01.JPG,AFNE01.JPG,AFNE01.JPG,,,,,,,,,3,2,32,2,,,,,,,,,,,,,,,AFNE11.jpg,AFNE14.jpg,AFSA13.jpg,AFSA04.jpg,AFSA04.jpg,FS,4,num_4,16,num_4,0.300142504275,,,2017_May_04_1247,60.0019822738,FEMA4ImagesEEG,001,200287,
AFNE01.JPG,AFNE01.JPG,AFNE01.JPG,AFNE01.JPG,AFNE01.JPG,AFNE01.JPG,,,,,,,,,3,3,33,8,,,,,,,,,,,,,,,AFNE17.jpg,AFNE01.jpg,AFSA12.jpg,AFSA16.jpg,AFNE01.jpg,FN,3,num_6,16,num_6,0.700121463975,,,2017_May_04_1247,60.0019822738,FEMA4ImagesEEG,001,200287,
AFNE01.JPG,AFNE01.JPG,AFNE01.JPG,AFNE01.JPG,AFNE01.JPG,AFNE01.JPG,,,,,,,,,3,4,34,3,,,,,,,,,,,,,,,AFNE01.jpg,AFSA16.jpg,AFSA03.jpg,AFNE10.jpg,AFNE10.jpg,FN,3,num_4,32,num_8,0.433690241072,,,2017_May_04_1247,60.0019822738,FEMA4ImagesEEG,001,200287,
AFNE01.JPG,AFNE01.JPG,AFNE01.JPG,AFNE01.JPG,AFNE01.JPG,AFNE01.JPG,,,,,,,,,3,5,35,0,,,,,,,,,,,,,,,AFNE10.jpg,AFSA20.jpg,AFNE06.jpg,AFSA15.jpg,AFNE06.jpg,FN,3,num_2,16,num_2,0.50015796395,,,2017_May_04_1247,60.0019822738,FEMA4ImagesEEG,001,200287,
AFNE01.JPG,AFNE01.JPG,AFNE01.JPG,AFNE01.JPG,AFNE01.JPG,AFNE01.JPG,,,,,,,,,3,6,36,9,,,,,,,,,,,,,,,AFNE19.jpg,AFNE03.jpg,AFSA02.jpg,AFSA08.jpg,AFSA02.jpg,FS,4,num_2,32,num_4,0.333489105571,,,2017_May_04_1247,60.0019822738,FEMA4ImagesEEG,001,200287,
AFNE01.JPG,AFNE01.JPG,AFNE01.JPG,AFNE01.JPG,AFNE01.JPG,AFNE01.JPG,,,,,,,,,3,7,37,5,,,,,,,,,,,,,,,AFNE13.jpg,AFNE20.jpg,AFSA15.jpg,AFSA05.jpg,AFNE20.jpg,FN,3,num_6,16,num_6,0.800073705846,,,2017_May_04_1247,60.0019822738,FEMA4ImagesEEG,001,200287,
AFNE01.JPG,AFNE01.JPG,AFNE01.JPG,AFNE01.JPG,AFNE01.JPG,AFNE01.JPG,,,,,,,,,3,8,38,1,,,,,,,,,,,,,,,AFSA18.jpg,AFNE20.jpg,AFNE17.jpg,AFSA11.jpg,AFNE17.jpg,FN,3,num_2,32,num_8,0.416796592763,,,2017_May_04_1247,60.0019822738,FEMA4ImagesEEG,001,200287,
AFNE01.JPG,AFNE01.JPG,AFNE01.JPG,AFNE01.JPG,AFNE01.JPG,AFNE01.JPG,,,,,,,,,3,9,39,7,,,,,,,,,,,,,,,AFSA20.jpg,AFNE13.jpg,AFNE17.jpg,AFSA07.jpg,AFNE13.jpg,FN,3,num_6,32,num_2,0.333524707705,,,2017_May_04_1247,60.0019822738,FEMA4ImagesEEG,001,200287,
AFNE01.JPG,AFNE01.JPG,AFNE01.JPG,AFNE01.JPG,AFNE01.JPG,AFNE01.JPG,,,,,,,,,4,0,40,2,,,,,,,,,,,,,,,AFNE12.jpg,AFSA18.jpg,AFNE10.jpg,AFSA11.jpg,AFNE10.jpg,FN,3,num_2,32,num_4,0.333485256881,,,2017_May_04_1247,60.0019822738,FEMA4ImagesEEG,001,200287,
AFNE01.JPG,AFNE01.JPG,AFNE01.JPG,AFNE01.JPG,AFNE01.JPG,AFNE01.JPG,,,,,,,,,4,1,41,8,,,,,,,,,,,,,,,AFSA18.jpg,AFSA15.jpg,AFNE07.jpg,AFNE08.jpg,AFSA18.jpg,FS,4,num_8,32,num_6,0.466756516369,,,2017_May_04_1247,60.0019822738,FEMA4ImagesEEG,001,200287,
AFNE01.JPG,AFNE01.JPG,AFNE01.JPG,AFNE01.JPG,AFNE01.JPG,AFNE01.JPG,,,,,,,,,4,2,42,0,,,,,,,,,,,,,,,AFSA04.jpg,AFNE08.jpg,AFNE14.jpg,AFSA20.jpg,AFNE14.jpg,FN,3,num_2,32,num_8,0.516743061366,,,2017_May_04_1247,60.0019822738,FEMA4ImagesEEG,001,200287,
AFNE01.JPG,AFNE01.JPG,AFNE01.JPG,AFNE01.JPG,AFNE01.JPG,AFNE01.JPG,,,,,,,,,4,3,43,5,,,,,,,,,,,,,,,AFNE12.jpg,AFNE16.jpg,AFSA19.jpg,AFSA07.jpg,AFNE16.jpg,FN,3,num_6,32,num_4,0.300132882083,,,2017_May_04_1247,60.0019822738,FEMA4ImagesEEG,001,200287,
AFNE01.JPG,AFNE01.JPG,AFNE01.JPG,AFNE01.JPG,AFNE01.JPG,AFNE01.JPG,,,,,,,,,4,4,44,3,,,,,,,,,,,,,,,AFNE07.jpg,AFSA18.jpg,AFNE05.jpg,AFSA11.jpg,AFSA11.jpg,FS,4,num_4,32,num_6,0.383448387729,,,2017_May_04_1247,60.0019822738,FEMA4ImagesEEG,001,200287,
AFNE01.JPG,AFNE01.JPG,AFNE01.JPG,AFNE01.JPG,AFNE01.JPG,AFNE01.JPG,,,,,,,,,4,5,45,7,,,,,,,,,,,,,,,AFNE12.jpg,AFNE14.jpg,AFSA19.jpg,AFSA16.jpg,AFNE14.jpg,FN,3,num_6,32,num_2,0.400155045092,,,2017_May_04_1247,60.0019822738,FEMA4ImagesEEG,001,200287,
AFNE01.JPG,AFNE01.JPG,AFNE01.JPG,AFNE01.JPG,AFNE01.JPG,AFNE01.JPG,,,,,,,,,4,6,46,9,,,,,,,,,,,,,,,AFNE06.jpg,AFSA04.jpg,AFSA06.jpg,AFNE16.jpg,AFNE16.jpg,FN,3,num_4,16,num_4,0.466802061303,,,2017_May_04_1247,60.0019822738,FEMA4ImagesEEG,001,200287,
AFNE01.JPG,AFNE01.JPG,AFNE01.JPG,AFNE01.JPG,AFNE01.JPG,AFNE01.JPG,,,,,,,,,4,7,47,1,,,,,,,,,,,,,,,AFSA03.jpg,AFNE10.jpg,AFNE02.jpg,AFSA01.jpg,AFNE10.jpg,FN,3,num_6,32,num_8,0.350081259152,,,2017_May_04_1247,60.0019822738,FEMA4ImagesEEG,001,200287,
AFNE01.JPG,AFNE01.JPG,AFNE01.JPG,AFNE01.JPG,AFNE01.JPG,AFNE01.JPG,,,,,,,,,4,8,48,4,,,,,,,,,,,,,,,AFSA03.jpg,AFNE16.jpg,AFSA12.jpg,AFNE01.jpg,AFNE01.jpg,FN,3,num_4,32,num_6,0.266878332943,,,2017_May_04_1247,60.0019822738,FEMA4ImagesEEG,001,200287,
AFNE01.JPG,AFNE01.JPG,AFNE01.JPG,AFNE01.JPG,AFNE01.JPG,AFNE01.JPG,,,,,,,,,4,9,49,6,,,,,,,,,,,,,,,AFNE15.jpg,AFSA14.jpg,AFNE07.jpg,AFSA11.jpg,AFSA14.jpg,FS,4,num_6,32,num_2,0.483474720502,,,2017_May_04_1247,60.0019822738,FEMA4ImagesEEG,001,200287,
AFNE01.JPG,AFNE01.JPG,AFNE01.JPG,AFNE01.JPG,AFNE01.JPG,AFNE01.JPG,,,,,,,,,5,0,50,1,,,,,,,,,,,,,,,AFNE07.jpg,AFSA11.jpg,AFNE14.jpg,AFSA05.jpg,AFNE07.jpg,FN,3,num_8,16,num_8,0.416769971373,,,2017_May_04_1247,60.0019822738,FEMA4ImagesEEG,001,200287,
AFNE01.JPG,AFNE01.JPG,AFNE01.JPG,AFNE01.JPG,AFNE01.JPG,AFNE01.JPG,,,,,,,,,5,1,51,9,,,,,,,,,,,,,,,AFSA02.jpg,AFSA12.jpg,AFNE09.jpg,AFNE19.jpg,AFSA02.jpg,FS,4,num_8,32,num_4,0.333542989567,,,2017_May_04_1247,60.0019822738,FEMA4ImagesEEG,001,200287,
AFNE01.JPG,AFNE01.JPG,AFNE01.JPG,AFNE01.JPG,AFNE01.JPG,AFNE01.JPG,,,,,,,,,5,2,52,3,,,,,,,,,,,,,,,AFSA08.jpg,AFNE02.jpg,AFNE18.jpg,AFSA12.jpg,AFNE18.jpg,FN,3,num_2,32,num_6,0.366780860582,,,2017_May_04_1247,60.0019822738,FEMA4ImagesEEG,001,200287,
AFNE01.JPG,AFNE01.JPG,AFNE01.JPG,AFNE01.JPG,AFNE01.JPG,AFNE01.JPG,,,,,,,,,5,3,53,7,,,,,,,,,,,,,,,AFNE17.jpg,AFSA01.jpg,AFNE01.jpg,AFSA14.jpg,AFSA01.jpg,FS,4,num_6,32,num_8,0.383493291214,,,2017_May_04_1247,60.0019822738,FEMA4ImagesEEG,001,200287,
AFNE01.JPG,AFNE01.JPG,AFNE01.JPG,AFNE01.JPG,AFNE01.JPG,AFNE01.JPG,,,,,,,,,5,4,54,6,,,,,,,,,,,,,,,AFNE12.jpg,AFNE13.jpg,AFSA11.jpg,AFSA16.jpg,AFSA16.jpg,FS,4,num_4,32,num_2,0.550157659221,,,2017_May_04_1247,60.0019822738,FEMA4ImagesEEG,001,200287,
AFNE01.JPG,AFNE01.JPG,AFNE01.JPG,AFNE01.JPG,AFNE01.JPG,AFNE01.JPG,,,,,,,,,5,5,55,0,,,,,,,,,,,,,,,AFSA13.jpg,AFNE14.jpg,AFSA12.jpg,AFNE13.jpg,AFNE13.jpg,FN,3,num_4,16,num_4,0.483480173163,,,2017_May_04_1247,60.0019822738,FEMA4ImagesEEG,001,200287,
AFNE01.JPG,AFNE01.JPG,AFNE01.JPG,AFNE01.JPG,AFNE01.JPG,AFNE01.JPG,,,,,,,,,5,6,56,8,,,,,,,,,,,,,,,AFSA03.jpg,AFSA17.jpg,AFNE05.jpg,AFNE01.jpg,AFNE05.jpg,FN,3,num_2,32,num_6,0.383455443894,,,2017_May_04_1247,60.0019822738,FEMA4ImagesEEG,001,200287,
AFNE01.JPG,AFNE01.JPG,AFNE01.JPG,AFNE01.JPG,AFNE01.JPG,AFNE01.JPG,,,,,,,,,5,7,57,4,,,,,,,,,,,,,,,AFSA17.jpg,AFNE17.jpg,AFSA19.jpg,AFNE19.jpg,AFSA17.jpg,FS,4,num_8,16,num_8,0.283479788108,,,2017_May_04_1247,60.0019822738,FEMA4ImagesEEG,001,200287,
AFNE01.JPG,AFNE01.JPG,AFNE01.JPG,AFNE01.JPG,AFNE01.JPG,AFNE01.JPG,,,,,,,,,5,8,58,2,,,,,,,,,,,,,,,AFSA14.jpg,AFSA18.jpg,AFNE15.jpg,AFNE11.jpg,AFSA18.jpg,FS,4,num_6,32,num_4,0.300166559638,,,2017_May_04_1247,60.0019822738,FEMA4ImagesEEG,001,200287,
AFNE01.JPG,AFNE01.JPG,AFNE01.JPG,AFNE01.JPG,AFNE01.JPG,AFNE01.JPG,,,,,,,,,5,9,59,5,,,,,,,,,,,,,,,AFNE11.jpg,AFNE01.jpg,AFSA06.jpg,AFSA19.jpg,AFNE11.jpg,FN,3,num_8,32,num_2,0.650115033146,,,2017_May_04_1247,60.0019822738,FEMA4ImagesEEG,001,200287,
,,,,,,,,,,,,,,,,,,,,,,,,,,,,,,,,,,,,,,,,,,,space,10.4490581336,2017_May_04_1247,60.0019822738,FEMA4ImagesEEG,001,200287,
AFNE01.JPG,AFNE01.JPG,AFNE01.JPG,AFNE01.JPG,AFNE01.JPG,AFNE01.JPG,,,,,,,,,,,,,0,0,0,9,,,,,,,,,,,AMNE15.jpg,AMSA08.jpg,AMNE11.jpg,AMSA17.jpg,AMNE11.jpg,MN,1,num_2,32,num_8,0.516791172326,,,2017_May_04_1247,60.0019822738,FEMA4ImagesEEG,001,200287,
AFNE01.JPG,AFNE01.JPG,AFNE01.JPG,AFNE01.JPG,AFNE01.JPG,AFNE01.JPG,,,,,,,,,,,,,0,1,1,7,,,,,,,,,,,AMNE15.jpg,AMSA20.jpg,AMSA02.jpg,AMNE03.jpg,AMNE15.jpg,MN,1,num_8,32,num_4,0.500433799578,,,2017_May_04_1247,60.0019822738,FEMA4ImagesEEG,001,200287,
AFNE01.JPG,AFNE01.JPG,AFNE01.JPG,AFNE01.JPG,AFNE01.JPG,AFNE01.JPG,,,,,,,,,,,,,0,2,2,6,,,,,,,,,,,AMNE11.jpg,AMSA20.jpg,AMSA11.jpg,AMNE03.jpg,AMSA11.jpg,MS,2,num_2,16,num_2,1.45006333012,,,2017_May_04_1247,60.0019822738,FEMA4ImagesEEG,001,200287,
AFNE01.JPG,AFNE01.JPG,AFNE01.JPG,AFNE01.JPG,AFNE01.JPG,AFNE01.JPG,,,,,,,,,,,,,0,3,3,8,,,,,,,,,,,AMSA16.jpg,AMSA04.jpg,AMNE18.jpg,AMNE04.jpg,AMSA04.jpg,MS,2,num_6,16,num_6,0.366657376057,,,2017_May_04_1247,60.0019822738,FEMA4ImagesEEG,001,200287,
AFNE01.JPG,AFNE01.JPG,AFNE01.JPG,AFNE01.JPG,AFNE01.JPG,AFNE01.JPG,,,,,,,,,,,,,0,4,4,4,,,,,,,,,,,AMNE18.jpg,AMSA14.jpg,AMSA19.jpg,AMNE19.jpg,AMNE19.jpg,MN,1,num_4,32,num_8,0.366853026906,,,2017_May_04_1247,60.0019822738,FEMA4ImagesEEG,001,200287,
AFNE01.JPG,AFNE01.JPG,AFNE01.JPG,AFNE01.JPG,AFNE01.JPG,AFNE01.JPG,,,,,,,,,,,,,0,5,5,0,,,,,,,,,,,AMSA09.jpg,AMNE18.jpg,AMSA07.jpg,AMNE09.jpg,AMSA09.jpg,MS,2,num_8,32,num_4,0.316810352262,,,2017_May_04_1247,60.0019822738,FEMA4ImagesEEG,001,200287,
AFNE01.JPG,AFNE01.JPG,AFNE01.JPG,AFNE01.JPG,AFNE01.JPG,AFNE01.JPG,,,,,,,,,,,,,0,6,6,3,,,,,,,,,,,AMNE04.jpg,AMNE07.jpg,AMSA19.jpg,AMSA13.jpg,AMSA19.jpg,MS,2,num_2,16,num_2,0.716802141396,,,2017_May_04_1247,60.0019822738,FEMA4ImagesEEG,001,200287,
AFNE01.JPG,AFNE01.JPG,AFNE01.JPG,AFNE01.JPG,AFNE01.JPG,AFNE01.JPG,,,,,,,,,,,,,0,7,7,2,,,,,,,,,,,AMNE09.jpg,AMSA10.jpg,AMNE06.jpg,AMSA09.jpg,AMNE06.jpg,MN,1,num_2,32,num_6,0.333524707705,,,2017_May_04_1247,60.0019822738,FEMA4ImagesEEG,001,200287,
AFNE01.JPG,AFNE01.JPG,AFNE01.JPG,AFNE01.JPG,AFNE01.JPG,AFNE01.JPG,,,,,,,,,,,,,0,8,8,5,,,,,,,,,,,AMSA08.jpg,AMSA15.jpg,AMNE13.jpg,AMNE10.jpg,AMNE10.jpg,MN,1,num_4,32,num_8,0.383455444127,,,2017_May_04_1247,60.0019822738,FEMA4ImagesEEG,001,200287,
AFNE01.JPG,AFNE01.JPG,AFNE01.JPG,AFNE01.JPG,AFNE01.JPG,AFNE01.JPG,,,,,,,,,,,,,0,9,9,1,,,,,,,,,,,AMSA14.jpg,AMNE17.jpg,AMNE11.jpg,AMSA20.jpg,AMNE17.jpg,MN,1,num_6,32,num_4,3.34995135991,,,2017_May_04_1247,60.0019822738,FEMA4ImagesEEG,001,200287,
AFNE01.JPG,AFNE01.JPG,AFNE01.JPG,AFNE01.JPG,AFNE01.JPG,AFNE01.JPG,,,,,,,,,,,,,1,0,10,1,,,,,,,,,,,AMNE05.jpg,AMSA13.jpg,AMSA01.jpg,AMNE01.jpg,AMSA01.jpg,MS,2,num_2,16,num_2,0.500139361015,,,2017_May_04_1247,60.0019822738,FEMA4ImagesEEG,001,200287,
AFNE01.JPG,AFNE01.JPG,AFNE01.JPG,AFNE01.JPG,AFNE01.JPG,AFNE01.JPG,,,,,,,,,,,,,1,1,11,8,,,,,,,,,,,AMSA20.jpg,AMNE07.jpg,AMNE04.jpg,AMSA13.jpg,AMSA13.jpg,MS,2,num_4,32,num_6,0.283507371787,,,2017_May_04_1247,60.0019822738,FEMA4ImagesEEG,001,200287,
AFNE01.JPG,AFNE01.JPG,AFNE01.JPG,AFNE01.JPG,AFNE01.JPG,AFNE01.JPG,,,,,,,,,,,,,1,2,12,6,,,,,,,,,,,AMSA14.jpg,AMSA15.jpg,AMNE02.jpg,AMNE16.jpg,AMNE16.jpg,MN,1,num_4,16,num_4,0.483476324007,,,2017_May_04_1247,60.0019822738,FEMA4ImagesEEG,001,200287,
AFNE01.JPG,AFNE01.JPG,AFNE01.JPG,AFNE01.JPG,AFNE01.JPG,AFNE01.JPG,,,,,,,,,,,,,1,3,13,7,,,,,,,,,,,AMSA19.jpg,AMNE06.jpg,AMSA08.jpg,AMNE16.jpg,AMNE16.jpg,MN,1,num_4,32,num_2,0.616703642532,,,2017_May_04_1247,60.0019822738,FEMA4ImagesEEG,001,200287,
AFNE01.JPG,AFNE01.JPG,AFNE01.JPG,AFNE01.JPG,AFNE01.JPG,AFNE01.JPG,,,,,,,,,,,,,1,4,14,5,,,,,,,,,,,AMSA12.jpg,AMSA07.jpg,AMNE15.jpg,AMNE05.jpg,AMSA07.jpg,MS,2,num_6,32,num_8,0.41677157511,,,2017_May_04_1247,60.0019822738,FEMA4ImagesEEG,001,200287,
AFNE01.JPG,AFNE01.JPG,AFNE01.JPG,AFNE01.JPG,AFNE01.JPG,AFNE01.JPG,,,,,,,,,,,,,1,5,15,3,,,,,,,,,,,AMNE14.jpg,AMNE05.jpg,AMSA04.jpg,AMSA10.jpg,AMSA10.jpg,MS,2,num_4,32,num_6,0.283457657089,,,2017_May_04_1247,60.0019822738,FEMA4ImagesEEG,001,200287,
AFNE01.JPG,AFNE01.JPG,AFNE01.JPG,AFNE01.JPG,AFNE01.JPG,AFNE01.JPG,,,,,,,,,,,,,1,6,16,9,,,,,,,,,,,AMNE14.jpg,AMSA19.jpg,AMNE17.jpg,AMSA08.jpg,AMSA08.jpg,MS,2,num_4,32,num_8,0.450259622186,,,2017_May_04_1247,60.0019822738,FEMA4ImagesEEG,001,200287,
AFNE01.JPG,AFNE01.JPG,AFNE01.JPG,AFNE01.JPG,AFNE01.JPG,AFNE01.JPG,,,,,,,,,,,,,1,7,17,0,,,,,,,,,,,AMNE13.jpg,AMSA05.jpg,AMNE12.jpg,AMSA14.jpg,AMNE12.jpg,MN,1,num_2,32,num_4,0.700084578944,,,2017_May_04_1247,60.0019822738,FEMA4ImagesEEG,001,200287,
AFNE01.JPG,AFNE01.JPG,AFNE01.JPG,AFNE01.JPG,AFNE01.JPG,AFNE01.JPG,,,,,,,,,,,,,1,8,18,2,,,,,,,,,,,AMSA01.jpg,AMNE01.jpg,AMSA16.jpg,AMNE02.jpg,AMSA16.jpg,MS,2,num_2,16,num_2,0.100211719982,,,2017_May_04_1247,60.0019822738,FEMA4ImagesEEG,001,200287,
AFNE01.JPG,AFNE01.JPG,AFNE01.JPG,AFNE01.JPG,AFNE01.JPG,AFNE01.JPG,,,,,,,,,,,,,1,9,19,4,,,,,,,,,,,AMNE03.jpg,AMSA18.jpg,AMSA10.jpg,AMNE15.jpg,AMSA18.jpg,MS,2,num_6,32,num_8,0.350139313145,,,2017_May_04_1247,60.0019822738,FEMA4ImagesEEG,001,200287,
AFNE01.JPG,AFNE01.JPG,AFNE01.JPG,AFNE01.JPG,AFNE01.JPG,AFNE01.JPG,,,,,,,,,,,,,2,0,20,9,,,,,,,,,,,AMSA08.jpg,AMSA19.jpg,AMNE01.jpg,AMNE19.jpg,AMNE01.jpg,MN,1,num_2,32,num_6,0.250151469139,,,2017_May_04_1247,60.0019822738,FEMA4ImagesEEG,001,200287,
AFNE01.JPG,AFNE01.JPG,AFNE01.JPG,AFNE01.JPG,AFNE01.JPG,AFNE01.JPG,,,,,,,,,,,,,2,1,21,0,,,,,,,,,,,AMSA13.jpg,AMNE11.jpg,AMSA06.jpg,AMNE03.jpg,AMSA13.jpg,MS,2,num_8,32,num_4,0.216821867041,,,2017_May_04_1247,60.0019822738,FEMA4ImagesEEG,001,200287,
AFNE01.JPG,AFNE01.JPG,AFNE01.JPG,AFNE01.JPG,AFNE01.JPG,AFNE01.JPG,,,,,,,,,,,,,2,2,22,3,,,,,,,,,,,AMSA11.jpg,AMNE02.jpg,AMNE14.jpg,AMSA17.jpg,AMSA17.jpg,MS,2,num_4,32,num_6,0.400153762195,,,2017_May_04_1247,60.0019822738,FEMA4ImagesEEG,001,200287,
AFNE01.JPG,AFNE01.JPG,AFNE01.JPG,AFNE01.JPG,AFNE01.JPG,AFNE01.JPG,,,,,,,,,,,,,2,3,23,8,,,,,,,,,,,AMSA17.jpg,AMNE18.jpg,AMSA20.jpg,AMNE10.jpg,AMSA17.jpg,MS,2,num_8,32,num_6,0.716797009809,,,2017_May_04_1247,60.0019822738,FEMA4ImagesEEG,001,200287,
AFNE01.JPG,AFNE01.JPG,AFNE01.JPG,AFNE01.JPG,AFNE01.JPG,AFNE01.JPG,,,,,,,,,,,,,2,4,24,6,,,,,,,,,,,AMSA01.jpg,AMNE07.jpg,AMSA07.jpg,AMNE03.jpg,AMSA01.jpg,MS,2,num_8,32,num_4,0.316813239129,,,2017_May_04_1247,60.0019822738,FEMA4ImagesEEG,001,200287,
AFNE01.JPG,AFNE01.JPG,AFNE01.JPG,AFNE01.JPG,AFNE01.JPG,AFNE01.JPG,,,,,,,,,,,,,2,5,25,4,,,,,,,,,,,AMNE17.jpg,AMSA16.jpg,AMNE10.jpg,AMSA09.jpg,AMNE17.jpg,MN,1,num_8,32,num_2,0.483474079054,,,2017_May_04_1247,60.0019822738,FEMA4ImagesEEG,001,200287,
AFNE01.JPG,AFNE01.JPG,AFNE01.JPG,AFNE01.JPG,AFNE01.JPG,AFNE01.JPG,,,,,,,,,,,,,2,6,26,5,,,,,,,,,,,AMSA02.jpg,AMNE09.jpg,AMSA05.jpg,AMNE12.jpg,AMNE09.jpg,MN,1,num_6,32,num_8,0.283590122359,,,2017_May_04_1247,60.0019822738,FEMA4ImagesEEG,001,200287,
AFNE01.JPG,AFNE01.JPG,AFNE01.JPG,AFNE01.JPG,AFNE01.JPG,AFNE01.JPG,,,,,,,,,,,,,2,7,27,2,,,,,,,,,,,AMSA10.jpg,AMSA16.jpg,AMNE18.jpg,AMNE17.jpg,AMNE17.jpg,MN,1,num_4,32,num_6,0.283446752001,,,2017_May_04_1247,60.0019822738,FEMA4ImagesEEG,001,200287,
AFNE01.JPG,AFNE01.JPG,AFNE01.JPG,AFNE01.JPG,AFNE01.JPG,AFNE01.JPG,,,,,,,,,,,,,2,8,28,1,,,,,,,,,,,AMSA07.jpg,AMNE02.jpg,AMNE19.jpg,AMSA03.jpg,AMSA07.jpg,MS,2,num_8,16,num_8,0.63344622287,,,2017_May_04_1247,60.0019822738,FEMA4ImagesEEG,001,200287,
AFNE01.JPG,AFNE01.JPG,AFNE01.JPG,AFNE01.JPG,AFNE01.JPG,AFNE01.JPG,,,,,,,,,,,,,2,9,29,7,,,,,,,,,,,AMSA05.jpg,AMSA10.jpg,AMNE20.jpg,AMNE18.jpg,AMNE20.jpg,MN,1,num_2,32,num_4,0.433482722845,,,2017_May_04_1247,60.0019822738,FEMA4ImagesEEG,001,200287,
AFNE01.JPG,AFNE01.JPG,AFNE01.JPG,AFNE01.JPG,AFNE01.JPG,AFNE01.JPG,,,,,,,,,,,,,3,0,30,1,,,,,,,,,,,AMNE01.jpg,AMNE08.jpg,AMSA08.jpg,AMSA16.jpg,AMNE08.jpg,MN,1,num_6,32,num_8,0.283455732744,,,2017_May_04_1247,60.0019822738,FEMA4ImagesEEG,001,200287,
AFNE01.JPG,AFNE01.JPG,AFNE01.JPG,AFNE01.JPG,AFNE01.JPG,AFNE01.JPG,,,,,,,,,,,,,3,1,31,7,,,,,,,,,,,AMNE17.jpg,AMNE12.jpg,AMSA15.jpg,AMSA18.jpg,AMSA18.jpg,MS,2,num_4,32,num_2,0.78345813835,,,2017_May_04_1247,60.0019822738,FEMA4ImagesEEG,001,200287,
AFNE01.JPG,AFNE01.JPG,AFNE01.JPG,AFNE01.JPG,AFNE01.JPG,AFNE01.JPG,,,,,,,,,,,,,3,2,32,3,,,,,,,,,,,AMNE05.jpg,AMSA05.jpg,AMSA16.jpg,AMNE14.jpg,AMNE14.jpg,MN,1,num_4,32,num_6,0.416835081531,,,2017_May_04_1247,60.0019822738,FEMA4ImagesEEG,001,200287,
AFNE01.JPG,AFNE01.JPG,AFNE01.JPG,AFNE01.JPG,AFNE01.JPG,AFNE01.JPG,,,,,,,,,,,,,3,3,33,6,,,,,,,,,,,AMSA10.jpg,AMNE20.jpg,AMNE11.jpg,AMSA20.jpg,AMNE20.jpg,MN,1,num_6,32,num_4,0.516785719665,,,2017_May_04_1247,60.0019822738,FEMA4ImagesEEG,001,200287,
AFNE01.JPG,AFNE01.JPG,AFNE01.JPG,AFNE01.JPG,AFNE01.JPG,AFNE01.JPG,,,,,,,,,,,,,3,4,34,5,,,,,,,,,,,AMSA01.jpg,AMSA10.jpg,AMNE17.jpg,AMNE11.jpg,AMSA01.jpg,MS,2,num_8,16,num_8,0.533533110982,,,2017_May_04_1247,60.0019822738,FEMA4ImagesEEG,001,200287,
AFNE01.JPG,AFNE01.JPG,AFNE01.JPG,AFNE01.JPG,AFNE01.JPG,AFNE01.JPG,,,,,,,,,,,,,3,5,35,8,,,,,,,,,,,AMSA07.jpg,AMNE04.jpg,AMSA11.jpg,AMNE02.jpg,AMNE02.jpg,MN,1,num_4,32,num_6,0.699811629951,,,2017_May_04_1247,60.0019822738,FEMA4ImagesEEG,001,200287,
AFNE01.JPG,AFNE01.JPG,AFNE01.JPG,AFNE01.JPG,AFNE01.JPG,AFNE01.JPG,,,,,,,,,,,,,3,6,36,4,,,,,,,,,,,AMSA11.jpg,AMNE04.jpg,AMNE14.jpg,AMSA02.jpg,AMSA11.jpg,MS,2,num_8,32,num_2,0.41676516016,,,2017_May_04_1247,60.0019822738,FEMA4ImagesEEG,001,200287,
AFNE01.JPG,AFNE01.JPG,AFNE01.JPG,AFNE01.JPG,AFNE01.JPG,AFNE01.JPG,,,,,,,,,,,,,3,7,37,9,,,,,,,,,,,AMSA18.jpg,AMSA05.jpg,AMNE18.jpg,AMNE16.jpg,AMNE18.jpg,MN,1,num_2,32,num_4,0.483504549135,,,2017_May_04_1247,60.0019822738,FEMA4ImagesEEG,001,200287,
AFNE01.JPG,AFNE01.JPG,AFNE01.JPG,AFNE01.JPG,AFNE01.JPG,AFNE01.JPG,,,,,,,,,,,,,3,8,38,0,,,,,,,,,,,AMSA13.jpg,AMNE11.jpg,AMSA03.jpg,AMNE19.jpg,AMNE19.jpg,MN,1,num_4,32,num_8,0.383683489636,,,2017_May_04_1247,60.0019822738,FEMA4ImagesEEG,001,200287,
AFNE01.JPG,AFNE01.JPG,AFNE01.JPG,AFNE01.JPG,AFNE01.JPG,AFNE01.JPG,,,,,,,,,,,,,3,9,39,2,,,,,,,,,,,AMSA08.jpg,AMNE01.jpg,AMSA20.jpg,AMNE17.jpg,AMSA20.jpg,MS,2,num_2,32,num_6,0.533486283151,,,2017_May_04_1247,60.0019822738,FEMA4ImagesEEG,001,200287,
AFNE01.JPG,AFNE01.JPG,AFNE01.JPG,AFNE01.JPG,AFNE01.JPG,AFNE01.JPG,,,,,,,,,,,,,4,0,40,1,,,,,,,,,,,AMSA08.jpg,AMNE19.jpg,AMNE05.jpg,AMSA12.jpg,AMSA12.jpg,MS,2,num_4,16,num_4,0.40014157421,,,2017_May_04_1247,60.0019822738,FEMA4ImagesEEG,001,200287,
AFNE01.JPG,AFNE01.JPG,AFNE01.JPG,AFNE01.JPG,AFNE01.JPG,AFNE01.JPG,,,,,,,,,,,,,4,1,41,0,,,,,,,,,,,AMNE19.jpg,AMSA05.jpg,AMSA16.jpg,AMNE12.jpg,AMNE19.jpg,MN,1,num_8,16,num_8,0.416779272724,,,2017_May_04_1247,60.0019822738,FEMA4ImagesEEG,001,200287,
AFNE01.JPG,AFNE01.JPG,AFNE01.JPG,AFNE01.JPG,AFNE01.JPG,AFNE01.JPG,,,,,,,,,,,,,4,2,42,4,,,,,,,,,,,AMSA04.jpg,AMSA17.jpg,AMNE03.jpg,AMNE11.jpg,AMSA17.jpg,MS,2,num_6,16,num_6,0.366863611154,,,2017_May_04_1247,60.0019822738,FEMA4ImagesEEG,001,200287,
AFNE01.JPG,AFNE01.JPG,AFNE01.JPG,AFNE01.JPG,AFNE01.JPG,AFNE01.JPG,,,,,,,,,,,,,4,3,43,7,,,,,,,,,,,AMNE10.jpg,AMSA15.jpg,AMSA02.jpg,AMNE04.jpg,AMSA02.jpg,MS,2,num_2,16,num_2,0.366769313812,,,2017_May_04_1247,60.0019822738,FEMA4ImagesEEG,001,200287,
AFNE01.JPG,AFNE01.JPG,AFNE01.JPG,AFNE01.JPG,AFNE01.JPG,AFNE01.JPG,,,,,,,,,,,,,4,4,44,6,,,,,,,,,,,AMSA03.jpg,AMNE03.jpg,AMSA10.jpg,AMNE11.jpg,AMNE11.jpg,MN,1,num_4,16,num_4,0.283531427151,,,2017_May_04_1247,60.0019822738,FEMA4ImagesEEG,001,200287,
AFNE01.JPG,AFNE01.JPG,AFNE01.JPG,AFNE01.JPG,AFNE01.JPG,AFNE01.JPG,,,,,,,,,,,,,4,5,45,8,,,,,,,,,,,AMNE14.jpg,AMNE16.jpg,AMSA06.jpg,AMSA07.jpg,AMNE16.jpg,MN,1,num_6,32,num_8,0.350198328961,,,2017_May_04_1247,60.0019822738,FEMA4ImagesEEG,001,200287,
AFNE01.JPG,AFNE01.JPG,AFNE01.JPG,AFNE01.JPG,AFNE01.JPG,AFNE01.JPG,,,,,,,,,,,,,4,6,46,2,,,,,,,,,,,AMNE03.jpg,AMNE12.jpg,AMSA10.jpg,AMSA02.jpg,AMSA02.jpg,MS,2,num_4,16,num_4,0.500045705354,,,2017_May_04_1247,60.0019822738,FEMA4ImagesEEG,001,200287,
AFNE01.JPG,AFNE01.JPG,AFNE01.JPG,AFNE01.JPG,AFNE01.JPG,AFNE01.JPG,,,,,,,,,,,,,4,7,47,9,,,,,,,,,,,AMNE17.jpg,AMSA04.jpg,AMSA17.jpg,AMNE04.jpg,AMSA04.jpg,MS,2,num_6,32,num_8,0.716815933352,,,2017_May_04_1247,60.0019822738,FEMA4ImagesEEG,001,200287,
AFNE01.JPG,AFNE01.JPG,AFNE01.JPG,AFNE01.JPG,AFNE01.JPG,AFNE01.JPG,,,,,,,,,,,,,4,8,48,3,,,,,,,,,,,AMSA03.jpg,AMSA08.jpg,AMNE11.jpg,AMNE05.jpg,AMNE05.jpg,MN,1,num_4,32,num_8,2.51657884289,,,2017_May_04_1247,60.0019822738,FEMA4ImagesEEG,001,200287,
AFNE01.JPG,AFNE01.JPG,AFNE01.JPG,AFNE01.JPG,AFNE01.JPG,AFNE01.JPG,,,,,,,,,,,,,4,9,49,5,,,,,,,,,,,AMSA18.jpg,AMNE01.jpg,AMSA16.jpg,AMNE19.jpg,AMNE01.jpg,MN,1,num_6,32,num_4,1.76669278555,,,2017_May_04_1247,60.0019822738,FEMA4ImagesEEG,001,200287,
AFNE01.JPG,AFNE01.JPG,AFNE01.JPG,AFNE01.JPG,AFNE01.JPG,AFNE01.JPG,,,,,,,,,,,,,5,0,50,5,,,,,,,,,,,AMNE09.jpg,AMNE06.jpg,AMSA03.jpg,AMSA09.jpg,AMSA09.jpg,MS,2,num_4,32,num_8,1.00014465326,,,2017_May_04_1247,60.0019822738,FEMA4ImagesEEG,001,200287,
AFNE01.JPG,AFNE01.JPG,AFNE01.JPG,AFNE01.JPG,AFNE01.JPG,AFNE01.JPG,,,,,,,,,,,,,5,1,51,9,,,,,,,,,,,AMNE01.jpg,AMSA16.jpg,AMSA01.jpg,AMNE09.jpg,AMNE09.jpg,MN,1,num_4,32,num_6,0.316810352262,,,2017_May_04_1247,60.0019822738,FEMA4ImagesEEG,001,200287,
AFNE01.JPG,AFNE01.JPG,AFNE01.JPG,AFNE01.JPG,AFNE01.JPG,AFNE01.JPG,,,,,,,,,,,,,5,2,52,1,,,,,,,,,,,AMSA06.jpg,AMNE16.jpg,AMNE06.jpg,AMSA16.jpg,AMSA06.jpg,MS,2,num_8,16,num_8,0.316793353297,,,2017_May_04_1247,60.0019822738,FEMA4ImagesEEG,001,200287,
AFNE01.JPG,AFNE01.JPG,AFNE01.JPG,AFNE01.JPG,AFNE01.JPG,AFNE01.JPG,,,,,,,,,,,,,5,3,53,8,,,,,,,,,,,AMNE16.jpg,AMNE10.jpg,AMSA04.jpg,AMSA16.jpg,AMSA16.jpg,MS,2,num_4,32,num_2,1.2500744916,,,2017_May_04_1247,60.0019822738,FEMA4ImagesEEG,001,200287,
AFNE01.JPG,AFNE01.JPG,AFNE01.JPG,AFNE01.JPG,AFNE01.JPG,AFNE01.JPG,,,,,,,,,,,,,5,4,54,3,,,,,,,,,,,AMSA03.jpg,AMNE19.jpg,AMNE10.jpg,AMSA13.jpg,AMSA03.jpg,MS,2,num_8,32,num_4,0.299994322937,,,2017_May_04_1247,60.0019822738,FEMA4ImagesEEG,001,200287,
AFNE01.JPG,AFNE01.JPG,AFNE01.JPG,AFNE01.JPG,AFNE01.JPG,AFNE01.JPG,,,,,,,,,,,,,5,5,55,7,,,,,,,,,,,AMSA15.jpg,AMSA04.jpg,AMNE17.jpg,AMNE19.jpg,AMSA15.jpg,MS,2,num_8,32,num_6,0.366779577453,,,2017_May_04_1247,60.0019822738,FEMA4ImagesEEG,001,200287,
AFNE01.JPG,AFNE01.JPG,AFNE01.JPG,AFNE01.JPG,AFNE01.JPG,AFNE01.JPG,,,,,,,,,,,,,5,6,56,2,,,,,,,,,,,AMSA07.jpg,AMNE01.jpg,AMSA16.jpg,AMNE06.jpg,AMSA07.jpg,MS,2,num_8,16,num_8,0.400192571804,,,2017_May_04_1247,60.0019822738,FEMA4ImagesEEG,001,200287,
AFNE01.JPG,AFNE01.JPG,AFNE01.JPG,AFNE01.JPG,AFNE01.JPG,AFNE01.JPG,,,,,,,,,,,,,5,7,57,6,,,,,,,,,,,AMSA09.jpg,AMSA19.jpg,AMNE13.jpg,AMNE10.jpg,AMSA09.jpg,MS,2,num_8,32,num_4,0.283510258421,,,2017_May_04_1247,60.0019822738,FEMA4ImagesEEG,001,200287,
AFNE01.JPG,AFNE01.JPG,AFNE01.JPG,AFNE01.JPG,AFNE01.JPG,AFNE01.JPG,,,,,,,,,,,,,5,8,58,0,,,,,,,,,,,AMNE10.jpg,AMNE03.jpg,AMSA14.jpg,AMSA06.jpg,AMNE10.jpg,MN,1,num_8,32,num_6,0.300175861223,,,2017_May_04_1247,60.0019822738,FEMA4ImagesEEG,001,200287,
AFNE01.JPG,AFNE01.JPG,AFNE01.JPG,AFNE01.JPG,AFNE01.JPG,AFNE01.JPG,,,,,,,,,,,,,5,9,59,4,,,,,,,,,,,AMSA16.jpg,AMNE11.jpg,AMSA06.jpg,AMNE09.jpg,AMSA16.jpg,MS,2,num_8,16,num_8,0.283487806795,,,2017_May_04_1247,60.0019822738,FEMA4ImagesEEG,001,200287,
,,,,,,,,,,,,,,,,,,,,,,,,,,,,,,,,,,,,,,,,,,,space,5.39942504303,2017_May_04_1247,60.0019822738,FEMA4ImagesEEG,001,200287,
AFNE01.JPG,AFNE01.JPG,AFNE01.JPG,AFNE01.JPG,AFNE01.JPG,AFNE01.JPG,,,,,,,,,,,,,,,,,0,0,0,0,,,,,,,AFSA20.jpg,AFNE04.jpg,AFNE13.jpg,AFSA09.jpg,AFNE04.jpg,FN,3,num_6,16,num_6,0.616944838315,,,2017_May_04_1247,60.0019822738,FEMA4ImagesEEG,001,200287,
AFNE01.JPG,AFNE01.JPG,AFNE01.JPG,AFNE01.JPG,AFNE01.JPG,AFNE01.JPG,,,,,,,,,,,,,,,,,0,1,1,5,,,,,,,AFNE08.jpg,AFNE11.jpg,AFSA20.jpg,AFSA05.jpg,AFSA05.jpg,FS,4,num_4,32,num_2,0.416862985818,,,2017_May_04_1247,60.0019822738,FEMA4ImagesEEG,001,200287,
AFNE01.JPG,AFNE01.JPG,AFNE01.JPG,AFNE01.JPG,AFNE01.JPG,AFNE01.JPG,,,,,,,,,,,,,,,,,0,2,2,9,,,,,,,AFSA04.jpg,AFNE08.jpg,AFSA11.jpg,AFNE15.jpg,AFSA11.jpg,FS,4,num_2,32,num_4,0.266814505914,,,2017_May_04_1247,60.0019822738,FEMA4ImagesEEG,001,200287,
AFNE01.JPG,AFNE01.JPG,AFNE01.JPG,AFNE01.JPG,AFNE01.JPG,AFNE01.JPG,,,,,,,,,,,,,,,,,0,3,3,4,,,,,,,AFSA04.jpg,AFNE13.jpg,AFSA03.jpg,AFNE17.jpg,AFSA03.jpg,FS,4,num_2,32,num_8,0.33345318283,,,2017_May_04_1247,60.0019822738,FEMA4ImagesEEG,001,200287,
AFNE01.JPG,AFNE01.JPG,AFNE01.JPG,AFNE01.JPG,AFNE01.JPG,AFNE01.JPG,,,,,,,,,,,,,,,,,0,4,4,8,,,,,,,AFSA20.jpg,AFNE07.jpg,AFSA01.jpg,AFNE11.jpg,AFNE07.jpg,FN,3,num_6,16,num_6,0.400116877165,,,2017_May_04_1247,60.0019822738,FEMA4ImagesEEG,001,200287,
AFNE01.JPG,AFNE01.JPG,AFNE01.JPG,AFNE01.JPG,AFNE01.JPG,AFNE01.JPG,,,,,,,,,,,,,,,,,0,5,5,1,,,,,,,AFNE15.jpg,AFSA14.jpg,AFNE02.jpg,AFSA09.jpg,AFNE15.jpg,FN,3,num_8,32,num_4,0.666767806513,,,2017_May_04_1247,60.0019822738,FEMA4ImagesEEG,001,200287,
AFNE01.JPG,AFNE01.JPG,AFNE01.JPG,AFNE01.JPG,AFNE01.JPG,AFNE01.JPG,,,,,,,,,,,,,,,,,0,6,6,2,,,,,,,AFSA06.jpg,AFNE17.jpg,AFNE10.jpg,AFSA10.jpg,AFNE17.jpg,FN,3,num_6,16,num_6,0.850123115582,,,2017_May_04_1247,60.0019822738,FEMA4ImagesEEG,001,200287,
AFNE01.JPG,AFNE01.JPG,AFNE01.JPG,AFNE01.JPG,AFNE01.JPG,AFNE01.JPG,,,,,,,,,,,,,,,,,0,7,7,3,,,,,,,AFSA04.jpg,AFSA17.jpg,AFNE06.jpg,AFNE13.jpg,AFNE13.jpg,FN,3,num_4,32,num_8,0.43351255171,,,2017_May_04_1247,60.0019822738,FEMA4ImagesEEG,001,200287,
AFNE01.JPG,AFNE01.JPG,AFNE01.JPG,AFNE01.JPG,AFNE01.JPG,AFNE01.JPG,,,,,,,,,,,,,,,,,0,8,8,6,,,,,,,AFSA16.jpg,AFSA14.jpg,AFNE06.jpg,AFNE20.jpg,AFNE20.jpg,FN,3,num_4,16,num_4,0.48346509831,,,2017_May_04_1247,60.0019822738,FEMA4ImagesEEG,001,200287,
AFNE01.JPG,AFNE01.JPG,AFNE01.JPG,AFNE01.JPG,AFNE01.JPG,AFNE01.JPG,,,,,,,,,,,,,,,,,0,9,9,7,,,,,,,AFSA06.jpg,AFNE20.jpg,AFNE10.jpg,AFSA10.jpg,AFNE10.jpg,FN,3,num_2,32,num_8,0.350137388567,,,2017_May_04_1247,60.0019822738,FEMA4ImagesEEG,001,200287,
AFNE01.JPG,AFNE01.JPG,AFNE01.JPG,AFNE01.JPG,AFNE01.JPG,AFNE01.JPG,,,,,,,,,,,,,,,,,1,0,10,9,,,,,,,AFSA18.jpg,AFSA15.jpg,AFNE16.jpg,AFNE13.jpg,AFNE16.jpg,FN,3,num_2,16,num_2,0.600173712242,,,2017_May_04_1247,60.0019822738,FEMA4ImagesEEG,001,200287,
AFNE01.JPG,AFNE01.JPG,AFNE01.JPG,AFNE01.JPG,AFNE01.JPG,AFNE01.JPG,,,,,,,,,,,,,,,,,1,1,11,2,,,,,,,AFNE01.jpg,AFNE05.jpg,AFSA15.jpg,AFSA19.jpg,AFNE05.jpg,FN,3,num_6,16,num_6,0.316861670697,,,2017_May_04_1247,60.0019822738,FEMA4ImagesEEG,001,200287,
AFNE01.JPG,AFNE01.JPG,AFNE01.JPG,AFNE01.JPG,AFNE01.JPG,AFNE01.JPG,,,,,,,,,,,,,,,,,1,2,12,8,,,,,,,AFSA17.jpg,AFNE10.jpg,AFNE12.jpg,AFSA18.jpg,AFSA17.jpg,FS,4,num_8,32,num_2,0.683470935794,,,2017_May_04_1247,60.0019822738,FEMA4ImagesEEG,001,200287,
AFNE01.JPG,AFNE01.JPG,AFNE01.JPG,AFNE01.JPG,AFNE01.JPG,AFNE01.JPG,,,,,,,,,,,,,,,,,1,3,13,4,,,,,,,AFNE10.jpg,AFNE04.jpg,AFSA18.jpg,AFSA20.jpg,AFNE10.jpg,FN,3,num_8,32,num_4,0.683494991157,,,2017_May_04_1247,60.0019822738,FEMA4ImagesEEG,001,200287,
AFNE01.JPG,AFNE01.JPG,AFNE01.JPG,AFNE01.JPG,AFNE01.JPG,AFNE01.JPG,,,,,,,,,,,,,,,,,1,4,14,0,,,,,,,AFNE07.jpg,AFNE08.jpg,AFSA07.jpg,AFSA16.jpg,AFSA16.jpg,FS,4,num_4,32,num_8,0.35010948428,,,2017_May_04_1247,60.0019822738,FEMA4ImagesEEG,001,200287,
AFNE01.JPG,AFNE01.JPG,AFNE01.JPG,AFNE01.JPG,AFNE01.JPG,AFNE01.JPG,,,,,,,,,,,,,,,,,1,5,15,3,,,,,,,AFNE19.jpg,AFSA13.jpg,AFSA16.jpg,AFNE12.jpg,AFNE19.jpg,FN,3,num_8,32,num_6,0.300264385296,,,2017_May_04_1247,60.0019822738,FEMA4ImagesEEG,001,200287,
AFNE01.JPG,AFNE01.JPG,AFNE01.JPG,AFNE01.JPG,AFNE01.JPG,AFNE01.JPG,,,,,,,,,,,,,,,,,1,6,16,6,,,,,,,AFSA14.jpg,AFNE01.jpg,AFNE13.jpg,AFSA09.jpg,AFNE01.jpg,FN,3,num_6,32,num_4,0.283453487558,,,2017_May_04_1247,60.0019822738,FEMA4ImagesEEG,001,200287,
AFNE01.JPG,AFNE01.JPG,AFNE01.JPG,AFNE01.JPG,AFNE01.JPG,AFNE01.JPG,,,,,,,,,,,,,,,,,1,7,17,1,,,,,,,AFSA04.jpg,AFNE03.jpg,AFSA20.jpg,AFNE05.jpg,AFNE03.jpg,FN,3,num_6,32,num_8,0.28347433568,,,2017_May_04_1247,60.0019822738,FEMA4ImagesEEG,001,200287,
AFNE01.JPG,AFNE01.JPG,AFNE01.JPG,AFNE01.JPG,AFNE01.JPG,AFNE01.JPG,,,,,,,,,,,,,,,,,1,8,18,5,,,,,,,AFNE16.jpg,AFSA17.jpg,AFSA08.jpg,AFNE20.jpg,AFNE16.jpg,FN,3,num_8,32,num_6,0.28352597449,,,2017_May_04_1247,60.0019822738,FEMA4ImagesEEG,001,200287,
AFNE01.JPG,AFNE01.JPG,AFNE01.JPG,AFNE01.JPG,AFNE01.JPG,AFNE01.JPG,,,,,,,,,,,,,,,,,1,9,19,7,,,,,,,AFSA12.jpg,AFSA15.jpg,AFNE18.jpg,AFNE16.jpg,AFNE16.jpg,FN,3,num_4,16,num_4,0.300163673004,,,2017_May_04_1247,60.0019822738,FEMA4ImagesEEG,001,200287,
AFNE01.JPG,AFNE01.JPG,AFNE01.JPG,AFNE01.JPG,AFNE01.JPG,AFNE01.JPG,,,,,,,,,,,,,,,,,2,0,20,6,,,,,,,AFSA16.jpg,AFNE06.jpg,AFSA09.jpg,AFNE05.jpg,AFNE06.jpg,FN,3,num_6,32,num_8,0.866757286247,,,2017_May_04_1247,60.0019822738,FEMA4ImagesEEG,001,200287,
AFNE01.JPG,AFNE01.JPG,AFNE01.JPG,AFNE01.JPG,AFNE01.JPG,AFNE01.JPG,,,,,,,,,,,,,,,,,2,1,21,9,,,,,,,AFNE01.jpg,AFNE07.jpg,AFSA08.jpg,AFSA12.jpg,AFSA12.jpg,FS,4,num_4,32,num_6,0.316799447406,,,2017_May_04_1247,60.0019822738,FEMA4ImagesEEG,001,200287,
AFNE01.JPG,AFNE01.JPG,AFNE01.JPG,AFNE01.JPG,AFNE01.JPG,AFNE01.JPG,,,,,,,,,,,,,,,,,2,2,22,5,,,,,,,AFSA10.jpg,AFNE01.jpg,AFSA08.jpg,AFNE15.jpg,AFSA08.jpg,FS,4,num_2,32,num_4,0.366763219703,,,2017_May_04_1247,60.0019822738,FEMA4ImagesEEG,001,200287,
AFNE01.JPG,AFNE01.JPG,AFNE01.JPG,AFNE01.JPG,AFNE01.JPG,AFNE01.JPG,,,,,,,,,,,,,,,,,2,3,23,8,,,,,,,AFNE13.jpg,AFNE02.jpg,AFSA19.jpg,AFSA14.jpg,AFNE02.jpg,FN,3,num_6,32,num_8,0.683436295949,,,2017_May_04_1247,60.0019822738,FEMA4ImagesEEG,001,200287,
AFNE01.JPG,AFNE01.JPG,AFNE01.JPG,AFNE01.JPG,AFNE01.JPG,AFNE01.JPG,,,,,,,,,,,,,,,,,2,4,24,2,,,,,,,AFNE07.jpg,AFSA20.jpg,AFSA14.jpg,AFNE14.jpg,AFNE07.jpg,FN,3,num_8,32,num_6,0.366901458241,,,2017_May_04_1247,60.0019822738,FEMA4ImagesEEG,001,200287,
AFNE01.JPG,AFNE01.JPG,AFNE01.JPG,AFNE01.JPG,AFNE01.JPG,AFNE01.JPG,,,,,,,,,,,,,,,,,2,5,25,4,,,,,,,AFNE06.jpg,AFNE04.jpg,AFSA08.jpg,AFSA10.jpg,AFSA08.jpg,FS,4,num_2,32,num_6,0.283519238932,,,2017_May_04_1247,60.0019822738,FEMA4ImagesEEG,001,200287,
AFNE01.JPG,AFNE01.JPG,AFNE01.JPG,AFNE01.JPG,AFNE01.JPG,AFNE01.JPG,,,,,,,,,,,,,,,,,2,6,26,3,,,,,,,AFNE01.jpg,AFNE12.jpg,AFSA20.jpg,AFSA11.jpg,AFSA20.jpg,FS,4,num_2,32,num_8,0.450273734983,,,2017_May_04_1247,60.0019822738,FEMA4ImagesEEG,001,200287,
AFNE01.JPG,AFNE01.JPG,AFNE01.JPG,AFNE01.JPG,AFNE01.JPG,AFNE01.JPG,,,,,,,,,,,,,,,,,2,7,27,1,,,,,,,AFSA10.jpg,AFNE19.jpg,AFSA20.jpg,AFNE07.jpg,AFNE19.jpg,FN,3,num_6,32,num_8,0.283532710047,,,2017_May_04_1247,60.0019822738,FEMA4ImagesEEG,001,200287,
AFNE01.JPG,AFNE01.JPG,AFNE01.JPG,AFNE01.JPG,AFNE01.JPG,AFNE01.JPG,,,,,,,,,,,,,,,,,2,8,28,0,,,,,,,AFSA20.jpg,AFNE09.jpg,AFSA15.jpg,AFNE18.jpg,AFNE09.jpg,FN,3,num_6,32,num_4,0.613827574998,,,2017_May_04_1247,60.0019822738,FEMA4ImagesEEG,001,200287,
AFNE01.JPG,AFNE01.JPG,AFNE01.JPG,AFNE01.JPG,AFNE01.JPG,AFNE01.JPG,,,,,,,,,,,,,,,,,2,9,29,7,,,,,,,AFSA01.jpg,AFSA11.jpg,AFNE10.jpg,AFNE15.jpg,AFNE10.jpg,FN,3,num_2,32,num_6,0.366774445632,,,2017_May_04_1247,60.0019822738,FEMA4ImagesEEG,001,200287,
AFNE01.JPG,AFNE01.JPG,AFNE01.JPG,AFNE01.JPG,AFNE01.JPG,AFNE01.JPG,,,,,,,,,,,,,,,,,3,0,30,6,,,,,,,AFNE16.jpg,AFNE10.jpg,AFSA15.jpg,AFSA19.jpg,AFNE10.jpg,FN,3,num_6,32,num_4,0.483516416512,,,2017_May_04_1247,60.0019822738,FEMA4ImagesEEG,001,200287,
AFNE01.JPG,AFNE01.JPG,AFNE01.JPG,AFNE01.JPG,AFNE01.JPG,AFNE01.JPG,,,,,,,,,,,,,,,,,3,1,31,3,,,,,,,AFNE19.jpg,AFSA17.jpg,AFNE18.jpg,AFSA10.jpg,AFSA10.jpg,FS,4,num_4,32,num_2,0.266822845209,,,2017_May_04_1247,60.0019822738,FEMA4ImagesEEG,001,200287,
AFNE01.JPG,AFNE01.JPG,AFNE01.JPG,AFNE01.JPG,AFNE01.JPG,AFNE01.JPG,,,,,,,,,,,,,,,,,3,2,32,7,,,,,,,AFNE11.jpg,AFSA10.jpg,AFNE03.jpg,AFSA17.jpg,AFSA10.jpg,FS,4,num_6,32,num_8,0.516761343693,,,2017_May_04_1247,60.0019822738,FEMA4ImagesEEG,001,200287,
AFNE01.JPG,AFNE01.JPG,AFNE01.JPG,AFNE01.JPG,AFNE01.JPG,AFNE01.JPG,,,,,,,,,,,,,,,,,3,3,33,4,,,,,,,AFSA13.jpg,AFNE09.jpg,AFNE07.jpg,AFSA11.jpg,AFSA11.jpg,FS,4,num_4,32,num_6,0.0835210992955,,,2017_May_04_1247,60.0019822738,FEMA4ImagesEEG,001,200287,
AFNE01.JPG,AFNE01.JPG,AFNE01.JPG,AFNE01.JPG,AFNE01.JPG,AFNE01.JPG,,,,,,,,,,,,,,,,,3,4,34,8,,,,,,,AFNE06.jpg,AFSA10.jpg,AFNE10.jpg,AFSA12.jpg,AFSA10.jpg,FS,4,num_6,32,num_4,0.616819429211,,,2017_May_04_1247,60.0019822738,FEMA4ImagesEEG,001,200287,
AFNE01.JPG,AFNE01.JPG,AFNE01.JPG,AFNE01.JPG,AFNE01.JPG,AFNE01.JPG,,,,,,,,,,,,,,,,,3,5,35,1,,,,,,,AFNE09.jpg,AFSA06.jpg,AFSA02.jpg,AFNE16.jpg,AFSA02.jpg,FS,4,num_2,32,num_8,0.266805525171,,,2017_May_04_1247,60.0019822738,FEMA4ImagesEEG,001,200287,
AFNE01.JPG,AFNE01.JPG,AFNE01.JPG,AFNE01.JPG,AFNE01.JPG,AFNE01.JPG,,,,,,,,,,,,,,,,,3,6,36,9,,,,,,,AFSA04.jpg,AFSA15.jpg,AFNE06.jpg,AFNE03.jpg,AFSA04.jpg,FS,4,num_8,32,num_4,0.716733503388,,,2017_May_04_1247,60.0019822738,FEMA4ImagesEEG,001,200287,
AFNE01.JPG,AFNE01.JPG,AFNE01.JPG,AFNE01.JPG,AFNE01.JPG,AFNE01.JPG,,,,,,,,,,,,,,,,,3,7,37,0,,,,,,,AFSA06.jpg,AFSA19.jpg,AFNE06.jpg,AFNE11.jpg,AFSA06.jpg,FS,4,num_8,32,num_6,0.300136731006,,,2017_May_04_1247,60.0019822738,FEMA4ImagesEEG,001,200287,
AFNE01.JPG,AFNE01.JPG,AFNE01.JPG,AFNE01.JPG,AFNE01.JPG,AFNE01.JPG,,,,,,,,,,,,,,,,,3,8,38,5,,,,,,,AFSA01.jpg,AFSA15.jpg,AFNE16.jpg,AFNE12.jpg,AFSA15.jpg,FS,4,num_6,32,num_8,0.250288745388,,,2017_May_04_1247,60.0019822738,FEMA4ImagesEEG,001,200287,
AFNE01.JPG,AFNE01.JPG,AFNE01.JPG,AFNE01.JPG,AFNE01.JPG,AFNE01.JPG,,,,,,,,,,,,,,,,,3,9,39,2,,,,,,,AFNE04.jpg,AFSA16.jpg,AFSA08.jpg,AFNE05.jpg,AFNE05.jpg,FN,3,num_4,16,num_4,0.366768992972,,,2017_May_04_1247,60.0019822738,FEMA4ImagesEEG,001,200287,
AFNE01.JPG,AFNE01.JPG,AFNE01.JPG,AFNE01.JPG,AFNE01.JPG,AFNE01.JPG,,,,,,,,,,,,,,,,,4,0,40,5,,,,,,,AFSA10.jpg,AFNE18.jpg,AFSA05.jpg,AFNE04.jpg,AFNE04.jpg,FN,3,num_4,32,num_6,0.366768993204,,,2017_May_04_1247,60.0019822738,FEMA4ImagesEEG,001,200287,
AFNE01.JPG,AFNE01.JPG,AFNE01.JPG,AFNE01.JPG,AFNE01.JPG,AFNE01.JPG,,,,,,,,,,,,,,,,,4,1,41,6,,,,,,,AFSA02.jpg,AFNE17.jpg,AFSA03.jpg,AFNE08.jpg,AFSA03.jpg,FS,4,num_2,32,num_8,0.700149368262,,,2017_May_04_1247,60.0019822738,FEMA4ImagesEEG,001,200287,
AFNE01.JPG,AFNE01.JPG,AFNE01.JPG,AFNE01.JPG,AFNE01.JPG,AFNE01.JPG,,,,,,,,,,,,,,,,,4,2,42,4,,,,,,,AFNE03.jpg,AFSA12.jpg,AFSA17.jpg,AFNE15.jpg,AFSA17.jpg,FS,4,num_2,32,num_8,0.316802333808,,,2017_May_04_1247,60.0019822738,FEMA4ImagesEEG,001,200287,
AFNE01.JPG,AFNE01.JPG,AFNE01.JPG,AFNE01.JPG,AFNE01.JPG,AFNE01.JPG,,,,,,,,,,,,,,,,,4,3,43,8,,,,,,,AFSA05.jpg,AFNE06.jpg,AFSA08.jpg,AFNE16.jpg,AFNE06.jpg,FN,3,num_6,16,num_6,1.25013094186,,,2017_May_04_1247,60.0019822738,FEMA4ImagesEEG,001,200287,
AFNE01.JPG,AFNE01.JPG,AFNE01.JPG,AFNE01.JPG,AFNE01.JPG,AFNE01.JPG,,,,,,,,,,,,,,,,,4,4,44,7,,,,,,,AFSA19.jpg,AFSA06.jpg,AFNE08.jpg,AFNE19.jpg,AFSA06.jpg,FS,4,num_6,16,num_6,0.466865246883,,,2017_May_04_1247,60.0019822738,FEMA4ImagesEEG,001,200287,
AFNE01.JPG,AFNE01.JPG,AFNE01.JPG,AFNE01.JPG,AFNE01.JPG,AFNE01.JPG,,,,,,,,,,,,,,,,,4,5,45,0,,,,,,,AFSA05.jpg,AFNE03.jpg,AFSA02.jpg,AFNE19.jpg,AFSA02.jpg,FS,4,num_2,32,num_4,0.600169542478,,,2017_May_04_1247,60.0019822738,FEMA4ImagesEEG,001,200287,
AFNE01.JPG,AFNE01.JPG,AFNE01.JPG,AFNE01.JPG,AFNE01.JPG,AFNE01.JPG,,,,,,,,,,,,,,,,,4,6,46,1,,,,,,,AFSA06.jpg,AFNE07.jpg,AFNE14.jpg,AFSA19.jpg,AFSA19.jpg,FS,4,num_4,32,num_8,0.300146032358,,,2017_May_04_1247,60.0019822738,FEMA4ImagesEEG,001,200287,
AFNE01.JPG,AFNE01.JPG,AFNE01.JPG,AFNE01.JPG,AFNE01.JPG,AFNE01.JPG,,,,,,,,,,,,,,,,,4,7,47,2,,,,,,,AFNE11.jpg,AFNE04.jpg,AFSA16.jpg,AFSA11.jpg,AFSA11.jpg,FS,4,num_4,16,num_4,0.416821610415,,,2017_May_04_1247,60.0019822738,FEMA4ImagesEEG,001,200287,
AFNE01.JPG,AFNE01.JPG,AFNE01.JPG,AFNE01.JPG,AFNE01.JPG,AFNE01.JPG,,,,,,,,,,,,,,,,,4,8,48,9,,,,,,,AFNE20.jpg,AFNE09.jpg,AFSA18.jpg,AFSA03.jpg,AFSA03.jpg,FS,4,num_4,32,num_6,0.250073850155,,,2017_May_04_1247,60.0019822738,FEMA4ImagesEEG,001,200287,
AFNE01.JPG,AFNE01.JPG,AFNE01.JPG,AFNE01.JPG,AFNE01.JPG,AFNE01.JPG,,,,,,,,,,,,,,,,,4,9,49,3,,,,,,,AFNE02.jpg,AFNE17.jpg,AFSA09.jpg,AFSA18.jpg,AFNE17.jpg,FN,3,num_6,32,num_8,0.733444651123,,,2017_May_04_1247,60.0019822738,FEMA4ImagesEEG,001,200287,
AFNE01.JPG,AFNE01.JPG,AFNE01.JPG,AFNE01.JPG,AFNE01.JPG,AFNE01.JPG,,,,,,,,,,,,,,,,,5,0,50,4,,,,,,,AFNE08.jpg,AFSA17.jpg,AFSA13.jpg,AFNE05.jpg,AFSA17.jpg,FS,4,num_6,32,num_8,0.466791797662,,,2017_May_04_1247,60.0019822738,FEMA4ImagesEEG,001,200287,
AFNE01.JPG,AFNE01.JPG,AFNE01.JPG,AFNE01.JPG,AFNE01.JPG,AFNE01.JPG,,,,,,,,,,,,,,,,,5,1,51,7,,,,,,,AFNE08.jpg,AFNE15.jpg,AFSA10.jpg,AFSA15.jpg,AFSA15.jpg,FS,4,num_4,32,num_6,0.566736983368,,,2017_May_04_1247,60.0019822738,FEMA4ImagesEEG,001,200287,
AFNE01.JPG,AFNE01.JPG,AFNE01.JPG,AFNE01.JPG,AFNE01.JPG,AFNE01.JPG,,,,,,,,,,,,,,,,,5,2,52,6,,,,,,,AFNE10.jpg,AFSA11.jpg,AFSA08.jpg,AFNE15.jpg,AFSA08.jpg,FS,4,num_2,32,num_6,0.350138992304,,,2017_May_04_1247,60.0019822738,FEMA4ImagesEEG,001,200287,
AFNE01.JPG,AFNE01.JPG,AFNE01.JPG,AFNE01.JPG,AFNE01.JPG,AFNE01.JPG,,,,,,,,,,,,,,,,,5,3,53,0,,,,,,,AFSA18.jpg,AFNE04.jpg,AFSA07.jpg,AFNE09.jpg,AFSA07.jpg,FS,4,num_2,32,num_4,1.48338266835,,,2017_May_04_1247,60.0019822738,FEMA4ImagesEEG,001,200287,
AFNE01.JPG,AFNE01.JPG,AFNE01.JPG,AFNE01.JPG,AFNE01.JPG,AFNE01.JPG,,,,,,,,,,,,,,,,,5,4,54,8,,,,,,,AFNE20.jpg,AFSA12.jpg,AFSA07.jpg,AFNE02.jpg,AFSA07.jpg,FS,4,num_2,32,num_4,0.716808876954,,,2017_May_04_1247,60.0019822738,FEMA4ImagesEEG,001,200287,
AFNE01.JPG,AFNE01.JPG,AFNE01.JPG,AFNE01.JPG,AFNE01.JPG,AFNE01.JPG,,,,,,,,,,,,,,,,,5,5,55,5,,,,,,,AFSA17.jpg,AFSA08.jpg,AFNE17.jpg,AFNE18.jpg,AFSA08.jpg,FS,4,num_6,32,num_8,0.700198762119,,,2017_May_04_1247,60.0019822738,FEMA4ImagesEEG,001,200287,
AFNE01.JPG,AFNE01.JPG,AFNE01.JPG,AFNE01.JPG,AFNE01.JPG,AFNE01.JPG,,,,,,,,,,,,,,,,,5,6,56,2,,,,,,,AFNE18.jpg,AFSA17.jpg,AFNE07.jpg,AFSA20.jpg,AFSA17.jpg,FS,4,num_6,16,num_6,0.933454978978,,,2017_May_04_1247,60.0019822738,FEMA4ImagesEEG,001,200287,
AFNE01.JPG,AFNE01.JPG,AFNE01.JPG,AFNE01.JPG,AFNE01.JPG,AFNE01.JPG,,,,,,,,,,,,,,,,,5,7,57,9,,,,,,,AFSA12.jpg,AFNE07.jpg,AFSA11.jpg,AFNE18.jpg,AFNE07.jpg,FN,3,num_6,16,num_6,1.23336013639,,,2017_May_04_1247,60.0019822738,FEMA4ImagesEEG,001,200287,
AFNE01.JPG,AFNE01.JPG,AFNE01.JPG,AFNE01.JPG,AFNE01.JPG,AFNE01.JPG,,,,,,,,,,,,,,,,,5,8,58,1,,,,,,,AFNE04.jpg,AFNE09.jpg,AFSA13.jpg,AFSA17.jpg,AFSA17.jpg,FS,4,num_4,32,num_8,0.716762369731,,,2017_May_04_1247,60.0019822738,FEMA4ImagesEEG,001,200287,
AFNE01.JPG,AFNE01.JPG,AFNE01.JPG,AFNE01.JPG,AFNE01.JPG,AFNE01.JPG,,,,,,,,,,,,,,,,,5,9,59,3,,,,,,,AFSA13.jpg,AFNE08.jpg,AFNE01.jpg,AFSA08.jpg,AFNE08.jpg,FN,3,num_6,32,num_4,0.516761664068,,,2017_May_04_1247,60.0019822738,FEMA4ImagesEEG,001,200287,
,,,,,,,,,,,,,,,,,,,,,,,,,,,,,,,,,,,,,,,,,,,space,4.24952827301,2017_May_04_1247,60.0019822738,FEMA4ImagesEEG,001,200287,
AFNE01.JPG,AFNE01.JPG,AFNE01.JPG,AFNE01.JPG,AFNE01.JPG,AFNE01.JPG,,,,,,,,,,,,,,,,,,,,,0,0,0,4,,,AMNE06.jpg,AMSA05.jpg,AMNE19.jpg,AMSA02.jpg,AMSA02.jpg,MS,2,num_4,16,num_4,0.833452701801,,,2017_May_04_1247,60.0019822738,FEMA4ImagesEEG,001,200287,
AFNE01.JPG,AFNE01.JPG,AFNE01.JPG,AFNE01.JPG,AFNE01.JPG,AFNE01.JPG,,,,,,,,,,,,,,,,,,,,,0,1,1,2,,,AMSA14.jpg,AMNE13.jpg,AMNE14.jpg,AMSA11.jpg,AMNE14.jpg,MN,1,num_2,32,num_6,1.23339541792,,,2017_May_04_1247,60.0019822738,FEMA4ImagesEEG,001,200287,
AFNE01.JPG,AFNE01.JPG,AFNE01.JPG,AFNE01.JPG,AFNE01.JPG,AFNE01.JPG,,,,,,,,,,,,,,,,,,,,,0,2,2,0,,,AMSA02.jpg,AMNE18.jpg,AMNE16.jpg,AMSA04.jpg,AMSA02.jpg,MS,2,num_8,32,num_6,0.450180720538,,,2017_May_04_1247,60.0019822738,FEMA4ImagesEEG,001,200287,
AFNE01.JPG,AFNE01.JPG,AFNE01.JPG,AFNE01.JPG,AFNE01.JPG,AFNE01.JPG,,,,,,,,,,,,,,,,,,,,,0,3,3,8,,,AMSA02.jpg,AMSA01.jpg,AMNE13.jpg,AMNE10.jpg,AMNE10.jpg,MN,1,num_4,16,num_4,0.433504853863,,,2017_May_04_1247,60.0019822738,FEMA4ImagesEEG,001,200287,
AFNE01.JPG,AFNE01.JPG,AFNE01.JPG,AFNE01.JPG,AFNE01.JPG,AFNE01.JPG,,,,,,,,,,,,,,,,,,,,,0,4,4,9,,,AMSA02.jpg,AMNE14.jpg,AMSA07.jpg,AMNE11.jpg,AMNE11.jpg,MN,1,num_4,16,num_4,1.10012832773,,,2017_May_04_1247,60.0019822738,FEMA4ImagesEEG,001,200287,
AFNE01.JPG,AFNE01.JPG,AFNE01.JPG,AFNE01.JPG,AFNE01.JPG,AFNE01.JPG,,,,,,,,,,,,,,,,,,,,,0,5,5,5,,,AMSA14.jpg,AMNE15.jpg,AMNE17.jpg,AMSA04.jpg,AMNE15.jpg,MN,1,num_6,48,None,,,,2017_May_04_1247,60.0019822738,FEMA4ImagesEEG,001,200287,
AFNE01.JPG,AFNE01.JPG,AFNE01.JPG,AFNE01.JPG,AFNE01.JPG,AFNE01.JPG,,,,,,,,,,,,,,,,,,,,,0,6,6,6,,,AMNE18.jpg,AMNE15.jpg,AMSA07.jpg,AMSA16.jpg,AMNE18.jpg,MN,1,num_8,16,num_8,0.783129380783,,,2017_May_04_1247,60.0019822738,FEMA4ImagesEEG,001,200287,
AFNE01.JPG,AFNE01.JPG,AFNE01.JPG,AFNE01.JPG,AFNE01.JPG,AFNE01.JPG,,,,,,,,,,,,,,,,,,,,,0,7,7,1,,,AMSA18.jpg,AMNE07.jpg,AMNE04.jpg,AMSA07.jpg,AMNE04.jpg,MN,1,num_2,32,num_4,1.05012478353,,,2017_May_04_1247,60.0019822738,FEMA4ImagesEEG,001,200287,
AFNE01.JPG,AFNE01.JPG,AFNE01.JPG,AFNE01.JPG,AFNE01.JPG,AFNE01.JPG,,,,,,,,,,,,,,,,,,,,,0,8,8,3,,,AMSA11.jpg,AMSA16.jpg,AMNE16.jpg,AMNE06.jpg,AMSA16.jpg,MS,2,num_6,32,num_4,0.733465178404,,,2017_May_04_1247,60.0019822738,FEMA4ImagesEEG,001,200287,
AFNE01.JPG,AFNE01.JPG,AFNE01.JPG,AFNE01.JPG,AFNE01.JPG,AFNE01.JPG,,,,,,,,,,,,,,,,,,,,,0,9,9,7,,,AMSA18.jpg,AMSA08.jpg,AMNE17.jpg,AMNE02.jpg,AMNE17.jpg,MN,1,num_2,32,num_4,0.716756917303,,,2017_May_04_1247,60.0019822738,FEMA4ImagesEEG,001,200287,
AFNE01.JPG,AFNE01.JPG,AFNE01.JPG,AFNE01.JPG,AFNE01.JPG,AFNE01.JPG,,,,,,,,,,,,,,,,,,,,,1,0,10,1,,,AMSA09.jpg,AMNE15.jpg,AMSA02.jpg,AMNE03.jpg,AMNE03.jpg,MN,1,num_4,16,num_4,0.76678515831,,,2017_May_04_1247,60.0019822738,FEMA4ImagesEEG,001,200287,
AFNE01.JPG,AFNE01.JPG,AFNE01.JPG,AFNE01.JPG,AFNE01.JPG,AFNE01.JPG,,,,,,,,,,,,,,,,,,,,,1,1,11,2,,,AMNE01.jpg,AMSA15.jpg,AMNE05.jpg,AMSA01.jpg,AMNE05.jpg,MN,1,num_2,32,num_6,0.716694694012,,,2017_May_04_1247,60.0019822738,FEMA4ImagesEEG,001,200287,
AFNE01.JPG,AFNE01.JPG,AFNE01.JPG,AFNE01.JPG,AFNE01.JPG,AFNE01.JPG,,,,,,,,,,,,,,,,,,,,,1,2,12,0,,,AMNE06.jpg,AMSA04.jpg,AMSA15.jpg,AMNE03.jpg,AMSA04.jpg,MS,2,num_6,32,num_4,0.516842169687,,,2017_May_04_1247,60.0019822738,FEMA4ImagesEEG,001,200287,
AFNE01.JPG,AFNE01.JPG,AFNE01.JPG,AFNE01.JPG,AFNE01.JPG,AFNE01.JPG,,,,,,,,,,,,,,,,,,,,,1,3,13,8,,,AMSA05.jpg,AMSA10.jpg,AMNE03.jpg,AMNE09.jpg,AMSA05.jpg,MS,2,num_8,32,num_4,0.500179774361,,,2017_May_04_1247,60.0019822738,FEMA4ImagesEEG,001,200287,
AFNE01.JPG,AFNE01.JPG,AFNE01.JPG,AFNE01.JPG,AFNE01.JPG,AFNE01.JPG,,,,,,,,,,,,,,,,,,,,,1,4,14,4,,,AMNE08.jpg,AMNE13.jpg,AMSA14.jpg,AMSA01.jpg,AMSA01.jpg,MS,2,num_4,32,num_6,2.06665856275,,,2017_May_04_1247,60.0019822738,FEMA4ImagesEEG,001,200287,
AFNE01.JPG,AFNE01.JPG,AFNE01.JPG,AFNE01.JPG,AFNE01.JPG,AFNE01.JPG,,,,,,,,,,,,,,,,,,,,,1,5,15,3,,,AMSA12.jpg,AMNE10.jpg,AMSA09.jpg,AMNE08.jpg,AMSA12.jpg,MS,2,num_8,16,num_8,0.400106934365,,,2017_May_04_1247,60.0019822738,FEMA4ImagesEEG,001,200287,
AFNE01.JPG,AFNE01.JPG,AFNE01.JPG,AFNE01.JPG,AFNE01.JPG,AFNE01.JPG,,,,,,,,,,,,,,,,,,,,,1,6,16,7,,,AMNE15.jpg,AMSA11.jpg,AMNE11.jpg,AMSA12.jpg,AMSA11.jpg,MS,2,num_6,32,num_4,0.733479290968,,,2017_May_04_1247,60.0019822738,FEMA4ImagesEEG,001,200287,
AFNE01.JPG,AFNE01.JPG,AFNE01.JPG,AFNE01.JPG,AFNE01.JPG,AFNE01.JPG,,,,,,,,,,,,,,,,,,,,,1,7,17,6,,,AMNE11.jpg,AMNE12.jpg,AMSA15.jpg,AMSA17.jpg,AMSA15.jpg,MS,2,num_2,32,num_4,0.400151196402,,,2017_May_04_1247,60.0019822738,FEMA4ImagesEEG,001,200287,
AFNE01.JPG,AFNE01.JPG,AFNE01.JPG,AFNE01.JPG,AFNE01.JPG,AFNE01.JPG,,,,,,,,,,,,,,,,,,,,,1,8,18,5,,,AMNE19.jpg,AMSA09.jpg,AMSA14.jpg,AMNE06.jpg,AMSA09.jpg,MS,2,num_6,32,num_4,0.950133411447,,,2017_May_04_1247,60.0019822738,FEMA4ImagesEEG,001,200287,
AFNE01.JPG,AFNE01.JPG,AFNE01.JPG,AFNE01.JPG,AFNE01.JPG,AFNE01.JPG,,,,,,,,,,,,,,,,,,,,,1,9,19,9,,,AMSA13.jpg,AMSA10.jpg,AMNE20.jpg,AMNE19.jpg,AMNE20.jpg,MN,1,num_2,32,num_4,0.80014074035,,,2017_May_04_1247,60.0019822738,FEMA4ImagesEEG,001,200287,
AFNE01.JPG,AFNE01.JPG,AFNE01.JPG,AFNE01.JPG,AFNE01.JPG,AFNE01.JPG,,,,,,,,,,,,,,,,,,,,,2,0,20,3,,,AMNE03.jpg,AMSA03.jpg,AMNE05.jpg,AMSA01.jpg,AMSA01.jpg,MS,2,num_4,32,num_6,0.716761407442,,,2017_May_04_1247,60.0019822738,FEMA4ImagesEEG,001,200287,
AFNE01.JPG,AFNE01.JPG,AFNE01.JPG,AFNE01.JPG,AFNE01.JPG,AFNE01.JPG,,,,,,,,,,,,,,,,,,,,,2,1,21,6,,,AMNE20.jpg,AMSA18.jpg,AMSA17.jpg,AMNE09.jpg,AMNE09.jpg,MN,1,num_4,32,num_6,0.400139329024,,,2017_May_04_1247,60.0019822738,FEMA4ImagesEEG,001,200287,
AFNE01.JPG,AFNE01.JPG,AFNE01.JPG,AFNE01.JPG,AFNE01.JPG,AFNE01.JPG,,,,,,,,,,,,,,,,,,,,,2,2,22,7,,,AMSA11.jpg,AMNE02.jpg,AMSA01.jpg,AMNE10.jpg,AMNE02.jpg,MN,1,num_6,32,num_4,0.716824593255,,,2017_May_04_1247,60.0019822738,FEMA4ImagesEEG,001,200287,
AFNE01.JPG,AFNE01.JPG,AFNE01.JPG,AFNE01.JPG,AFNE01.JPG,AFNE01.JPG,,,,,,,,,,,,,,,,,,,,,2,3,23,8,,,AMSA07.jpg,AMSA10.jpg,AMNE13.jpg,AMNE06.jpg,AMSA10.jpg,MS,2,num_6,32,num_8,0.483481776668,,,2017_May_04_1247,60.0019822738,FEMA4ImagesEEG,001,200287,
AFNE01.JPG,AFNE01.JPG,AFNE01.JPG,AFNE01.JPG,AFNE01.JPG,AFNE01.JPG,,,,,,,,,,,,,,,,,,,,,2,4,24,2,,,AMSA13.jpg,AMNE18.jpg,AMSA03.jpg,AMNE10.jpg,AMNE10.jpg,MN,1,num_4,32,num_6,0.816795438062,,,2017_May_04_1247,60.0019822738,FEMA4ImagesEEG,001,200287,
AFNE01.JPG,AFNE01.JPG,AFNE01.JPG,AFNE01.JPG,AFNE01.JPG,AFNE01.JPG,,,,,,,,,,,,,,,,,,,,,2,5,25,5,,,AMSA03.jpg,AMNE17.jpg,AMNE10.jpg,AMSA18.jpg,AMSA03.jpg,MS,2,num_8,32,num_4,0.433475024998,,,2017_May_04_1247,60.0019822738,FEMA4ImagesEEG,001,200287,
AFNE01.JPG,AFNE01.JPG,AFNE01.JPG,AFNE01.JPG,AFNE01.JPG,AFNE01.JPG,,,,,,,,,,,,,,,,,,,,,2,6,26,9,,,AMSA19.jpg,AMNE05.jpg,AMSA06.jpg,AMNE12.jpg,AMNE12.jpg,MN,1,num_4,16,num_4,0.583451980026,,,2017_May_04_1247,60.0019822738,FEMA4ImagesEEG,001,200287,
AFNE01.JPG,AFNE01.JPG,AFNE01.JPG,AFNE01.JPG,AFNE01.JPG,AFNE01.JPG,,,,,,,,,,,,,,,,,,,,,2,7,27,4,,,AMSA18.jpg,AMSA19.jpg,AMNE19.jpg,AMNE09.jpg,AMSA19.jpg,MS,2,num_6,32,num_8,0.400176214054,,,2017_May_04_1247,60.0019822738,FEMA4ImagesEEG,001,200287,
AFNE01.JPG,AFNE01.JPG,AFNE01.JPG,AFNE01.JPG,AFNE01.JPG,AFNE01.JPG,,,,,,,,,,,,,,,,,,,,,2,8,28,1,,,AMSA01.jpg,AMSA11.jpg,AMNE01.jpg,AMNE04.jpg,AMNE04.jpg,MN,1,num_4,32,num_6,0.350133539876,,,2017_May_04_1247,60.0019822738,FEMA4ImagesEEG,001,200287,
AFNE01.JPG,AFNE01.JPG,AFNE01.JPG,AFNE01.JPG,AFNE01.JPG,AFNE01.JPG,,,,,,,,,,,,,,,,,,,,,2,9,29,0,,,AMNE07.jpg,AMSA09.jpg,AMSA14.jpg,AMNE17.jpg,AMSA09.jpg,MS,2,num_6,32,num_2,0.783376670675,,,2017_May_04_1247,60.0019822738,FEMA4ImagesEEG,001,200287,
AFNE01.JPG,AFNE01.JPG,AFNE01.JPG,AFNE01.JPG,AFNE01.JPG,AFNE01.JPG,,,,,,,,,,,,,,,,,,,,,3,0,30,1,,,AMSA02.jpg,AMSA08.jpg,AMNE05.jpg,AMNE12.jpg,AMSA08.jpg,MS,2,num_6,32,num_4,0.333541386062,,,2017_May_04_1247,60.0019822738,FEMA4ImagesEEG,001,200287,
AFNE01.JPG,AFNE01.JPG,AFNE01.JPG,AFNE01.JPG,AFNE01.JPG,AFNE01.JPG,,,,,,,,,,,,,,,,,,,,,3,1,31,7,,,AMSA03.jpg,AMNE20.jpg,AMNE01.jpg,AMSA02.jpg,AMNE01.jpg,MN,1,num_2,32,num_4,0.866770115681,,,2017_May_04_1247,60.0019822738,FEMA4ImagesEEG,001,200287,
AFNE01.JPG,AFNE01.JPG,AFNE01.JPG,AFNE01.JPG,AFNE01.JPG,AFNE01.JPG,,,,,,,,,,,,,,,,,,,,,3,2,32,3,,,AMSA10.jpg,AMNE02.jpg,AMNE19.jpg,AMSA13.jpg,AMSA10.jpg,MS,2,num_8,32,num_6,0.550170168048,,,2017_May_04_1247,60.0019822738,FEMA4ImagesEEG,001,200287,
AFNE01.JPG,AFNE01.JPG,AFNE01.JPG,AFNE01.JPG,AFNE01.JPG,AFNE01.JPG,,,,,,,,,,,,,,,,,,,,,3,3,33,4,,,AMNE17.jpg,AMSA20.jpg,AMNE06.jpg,AMSA18.jpg,AMNE06.jpg,MN,1,num_2,32,num_4,0.633453599876,,,2017_May_04_1247,60.0019822738,FEMA4ImagesEEG,001,200287,
AFNE01.JPG,AFNE01.JPG,AFNE01.JPG,AFNE01.JPG,AFNE01.JPG,AFNE01.JPG,,,,,,,,,,,,,,,,,,,,,3,4,34,0,,,AMSA07.jpg,AMNE11.jpg,AMSA19.jpg,AMNE14.jpg,AMNE11.jpg,MN,1,num_6,32,num_4,0.533450360177,,,2017_May_04_1247,60.0019822738,FEMA4ImagesEEG,001,200287,
AFNE01.JPG,AFNE01.JPG,AFNE01.JPG,AFNE01.JPG,AFNE01.JPG,AFNE01.JPG,,,,,,,,,,,,,,,,,,,,,3,5,35,6,,,AMSA07.jpg,AMNE03.jpg,AMSA11.jpg,AMNE06.jpg,AMSA11.jpg,MS,2,num_2,32,num_8,0.466794042848,,,2017_May_04_1247,60.0019822738,FEMA4ImagesEEG,001,200287,
AFNE01.JPG,AFNE01.JPG,AFNE01.JPG,AFNE01.JPG,AFNE01.JPG,AFNE01.JPG,,,,,,,,,,,,,,,,,,,,,3,6,36,2,,,AMSA01.jpg,AMNE08.jpg,AMNE13.jpg,AMSA17.jpg,AMSA17.jpg,MS,2,num_4,32,num_6,0.3501928763,,,2017_May_04_1247,60.0019822738,FEMA4ImagesEEG,001,200287,
AFNE01.JPG,AFNE01.JPG,AFNE01.JPG,AFNE01.JPG,AFNE01.JPG,AFNE01.JPG,,,,,,,,,,,,,,,,,,,,,3,7,37,8,,,AMNE20.jpg,AMSA12.jpg,AMSA08.jpg,AMNE16.jpg,AMNE20.jpg,MN,1,num_8,16,num_8,0.416756821098,,,2017_May_04_1247,60.0019822738,FEMA4ImagesEEG,001,200287,
AFNE01.JPG,AFNE01.JPG,AFNE01.JPG,AFNE01.JPG,AFNE01.JPG,AFNE01.JPG,,,,,,,,,,,,,,,,,,,,,3,8,38,9,,,AMNE13.jpg,AMNE16.jpg,AMSA18.jpg,AMSA10.jpg,AMSA18.jpg,MS,2,num_2,32,num_4,0.516775135184,,,2017_May_04_1247,60.0019822738,FEMA4ImagesEEG,001,200287,
