IPosition2,IPosition3,IPosition1,IPosition6,IPosition4,IPosition5,TrialsF1.thisRepN,TrialsF1.thisTrialN,TrialsF1.thisN,TrialsF1.thisIndex,TrialsM1.thisRepN,TrialsM1.thisTrialN,TrialsM1.thisN,TrialsM1.thisIndex,TrialsF2.thisRepN,TrialsF2.thisTrialN,TrialsF2.thisN,TrialsF2.thisIndex,TrialsM2.thisRepN,TrialsM2.thisTrialN,TrialsM2.thisN,TrialsM2.thisIndex,TrialsF3.thisRepN,TrialsF3.thisTrialN,TrialsF3.thisN,TrialsF3.thisIndex,TrialsM3.thisRepN,TrialsM3.thisTrialN,TrialsM3.thisN,TrialsM3.thisIndex,InstrKey_resp.keys,InstrKey_resp.rt,Image0 _Position,Image1 _Position,Image2 _Position,Image3 _Position,Center_image,condition,code,correct_answer,accuracy,Key_Resp.keys,Key_Resp.rt,BreakKey_resp.keys,BreakKey_resp.rt,date,frameRate,expName,session,participant,
,,,,,,,,,,,,,,,,,,,,,,,,,,,,,,space,77.9610186545,,,,,,,,,,,,,,2017_Apr_26_1521,59.9967863549,FEMA4ImagesEEG,001,200216,
AMNE22.JPG,AMSA24.JPG,AMSA22.JPG,AMNE25.JPG,AMNE24.JPG,AMSA25.JPG,0,0,0,7,,,,,,,,,,,,,,,,,,,,,,,AFNE19.jpg,AFSA01.jpg,AFSA02.jpg,AFNE12.jpg,AFSA02.jpg,FS,4,num_2,16,num_2,1.8000608763,,,2017_Apr_26_1521,59.9967863549,FEMA4ImagesEEG,001,200216,
AMNE23.JPG,AMNE24.JPG,AMNE22.JPG,AMSA24.JPG,AMSA22.JPG,AMSA23.JPG,0,1,1,9,,,,,,,,,,,,,,,,,,,,,,,AFNE18.jpg,AFNE20.jpg,AFSA20.jpg,AFSA17.jpg,AFSA17.jpg,FS,4,num_4,32,num_2,0.95012058178,,,2017_Apr_26_1521,59.9967863549,FEMA4ImagesEEG,001,200216,
AFSA21.JPG,AFNE23.JPG,AFNE21.JPG,AFSA25.JPG,AFNE25.JPG,AFSA23.JPG,0,2,2,4,,,,,,,,,,,,,,,,,,,,,,,AFNE03.jpg,AFSA03.jpg,AFNE10.jpg,AFSA16.jpg,AFNE03.jpg,FN,3,num_8,32,num_6,0.733445934136,,,2017_Apr_26_1521,59.9967863549,FEMA4ImagesEEG,001,200216,
AFSA21.JPG,AFNE22.JPG,AFNE21.JPG,AFSA23.JPG,AFSA22.JPG,AFNE23.JPG,0,3,3,0,,,,,,,,,,,,,,,,,,,,,,,AFSA14.jpg,AFNE07.jpg,AFNE20.jpg,AFSA05.jpg,AFNE07.jpg,FN,3,num_6,16,num_6,0.766761744395,,,2017_Apr_26_1521,59.9967863549,FEMA4ImagesEEG,001,200216,
AFNE23.JPG,AFNE24.JPG,AFNE22.JPG,AFSA24.JPG,AFSA22.JPG,AFSA23.JPG,0,4,4,8,,,,,,,,,,,,,,,,,,,,,,,AFNE17.jpg,AFSA15.jpg,AFNE13.jpg,AFSA20.jpg,AFNE13.jpg,FN,3,num_2,32,num_8,0.733451386681,,,2017_Apr_26_1521,59.9967863549,FEMA4ImagesEEG,001,200216,
AFNE22.JPG,AFSA24.JPG,AFSA22.JPG,AFNE25.JPG,AFNE24.JPG,AFSA25.JPG,0,5,5,6,,,,,,,,,,,,,,,,,,,,,,,AFSA16.jpg,AFNE13.jpg,AFNE02.jpg,AFSA14.jpg,AFNE02.jpg,FN,3,num_2,32,num_6,0.633442373946,,,2017_Apr_26_1521,59.9967863549,FEMA4ImagesEEG,001,200216,
AMSA25.JPG,AMNE24.JPG,AMSA24.JPG,AMNE26.JPG,AMSA21.JPG,AMNE25.JPG,0,6,6,3,,,,,,,,,,,,,,,,,,,,,,,AFNE09.jpg,AFSA17.jpg,AFNE20.jpg,AFSA02.jpg,AFNE09.jpg,FN,3,num_8,32,num_2,1.18354101724,,,2017_Apr_26_1521,59.9967863549,FEMA4ImagesEEG,001,200216,
AFSA25.JPG,AFNE24.JPG,AFSA24.JPG,AFNE21.JPG,AFSA21.JPG,AFNE25.JPG,0,7,7,2,,,,,,,,,,,,,,,,,,,,,,,AFSA16.jpg,AFNE19.jpg,AFNE05.jpg,AFSA12.jpg,AFSA16.jpg,FS,4,num_8,16,num_8,2.83328784187,,,2017_Apr_26_1521,59.9967863549,FEMA4ImagesEEG,001,200216,
AMSA21.JPG,AMNE22.JPG,AMNE21.JPG,AMSA23.JPG,AMSA22.JPG,AMNE23.JPG,0,8,8,1,,,,,,,,,,,,,,,,,,,,,,,AFNE10.jpg,AFNE09.jpg,AFSA15.jpg,AFSA05.jpg,AFSA15.jpg,FS,4,num_2,16,num_2,1.08342648123,,,2017_Apr_26_1521,59.9967863549,FEMA4ImagesEEG,001,200216,
AMSA21.JPG,AMNE23.JPG,AMNE21.JPG,AMSA25.JPG,AMNE25.JPG,AMSA23.JPG,0,9,9,5,,,,,,,,,,,,,,,,,,,,,,,AFSA12.jpg,AFNE16.jpg,AFNE01.jpg,AFSA13.jpg,AFNE16.jpg,FN,3,num_6,16,num_6,0.916753774043,,,2017_Apr_26_1521,59.9967863549,FEMA4ImagesEEG,001,200216,
AMSA25.JPG,AMNE24.JPG,AMSA24.JPG,AMNE26.JPG,AMSA21.JPG,AMNE25.JPG,,,,,0,0,0,3,,,,,,,,,,,,,,,,,,,AMNE16.jpg,AMSA06.jpg,AMSA18.jpg,AMNE13.jpg,AMNE13.jpg,MN,1,num_4,16,num_4,0.783459100523,,,2017_Apr_26_1521,59.9967863549,FEMA4ImagesEEG,001,200216,
AFSA25.JPG,AFNE24.JPG,AFSA24.JPG,AFNE21.JPG,AFSA21.JPG,AFNE25.JPG,,,,,0,1,1,2,,,,,,,,,,,,,,,,,,,AMSA13.jpg,AMNE16.jpg,AMSA08.jpg,AMNE13.jpg,AMSA13.jpg,MS,2,num_8,16,num_8,1.08343482052,,,2017_Apr_26_1521,59.9967863549,FEMA4ImagesEEG,001,200216,
AFSA21.JPG,AFNE22.JPG,AFNE21.JPG,AFSA23.JPG,AFSA22.JPG,AFNE23.JPG,,,,,0,2,2,0,,,,,,,,,,,,,,,,,,,AMSA06.jpg,AMNE09.jpg,AMNE19.jpg,AMSA05.jpg,AMSA05.jpg,MS,2,num_4,16,num_4,1.38340444653,,,2017_Apr_26_1521,59.9967863549,FEMA4ImagesEEG,001,200216,
AMSA21.JPG,AMNE22.JPG,AMNE21.JPG,AMSA23.JPG,AMSA22.JPG,AMNE23.JPG,,,,,0,3,3,1,,,,,,,,,,,,,,,,,,,AMSA16.jpg,AMSA13.jpg,AMNE15.jpg,AMNE06.jpg,AMSA13.jpg,MS,2,num_6,16,num_6,1.2500780198,,,2017_Apr_26_1521,59.9967863549,FEMA4ImagesEEG,001,200216,
AFSA21.JPG,AFNE23.JPG,AFNE21.JPG,AFSA25.JPG,AFNE25.JPG,AFSA23.JPG,,,,,0,4,4,4,,,,,,,,,,,,,,,,,,,AMNE16.jpg,AMNE05.jpg,AMSA02.jpg,AMSA12.jpg,AMSA02.jpg,MS,2,num_2,32,num_4,0.916732926038,,,2017_Apr_26_1521,59.9967863549,FEMA4ImagesEEG,001,200216,
AFNE22.JPG,AFSA24.JPG,AFSA22.JPG,AFNE25.JPG,AFNE24.JPG,AFSA25.JPG,,,,,0,5,5,6,,,,,,,,,,,,,,,,,,,AMNE09.jpg,AMSA19.jpg,AMNE01.jpg,AMSA11.jpg,AMNE09.jpg,MN,1,num_8,16,num_8,0.966763732955,,,2017_Apr_26_1521,59.9967863549,FEMA4ImagesEEG,001,200216,
AFNE23.JPG,AFNE24.JPG,AFNE22.JPG,AFSA24.JPG,AFSA22.JPG,AFSA23.JPG,,,,,0,6,6,8,,,,,,,,,,,,,,,,,,,AMSA11.jpg,AMNE10.jpg,AMSA01.jpg,AMNE16.jpg,AMSA01.jpg,MS,2,num_2,16,num_2,0.850134020788,,,2017_Apr_26_1521,59.9967863549,FEMA4ImagesEEG,001,200216,
AMNE23.JPG,AMNE24.JPG,AMNE22.JPG,AMSA24.JPG,AMSA22.JPG,AMSA23.JPG,,,,,0,7,7,9,,,,,,,,,,,,,,,,,,,AMNE17.jpg,AMNE08.jpg,AMSA07.jpg,AMSA05.jpg,AMSA07.jpg,MS,2,num_2,32,num_4,1.30010048754,,,2017_Apr_26_1521,59.9967863549,FEMA4ImagesEEG,001,200216,
AMSA21.JPG,AMNE23.JPG,AMNE21.JPG,AMSA25.JPG,AMNE25.JPG,AMSA23.JPG,,,,,0,8,8,5,,,,,,,,,,,,,,,,,,,AMNE03.jpg,AMNE12.jpg,AMSA17.jpg,AMSA12.jpg,AMNE03.jpg,MN,1,num_8,32,num_6,0.616769394022,,,2017_Apr_26_1521,59.9967863549,FEMA4ImagesEEG,001,200216,
AMNE22.JPG,AMSA24.JPG,AMSA22.JPG,AMNE25.JPG,AMNE24.JPG,AMSA25.JPG,,,,,0,9,9,7,,,,,,,,,,,,,,,,,,,AMNE06.jpg,AMSA01.jpg,AMNE11.jpg,AMSA08.jpg,AMNE06.jpg,MN,1,num_8,16,num_8,1.01676920161,,,2017_Apr_26_1521,59.9967863549,FEMA4ImagesEEG,001,200216,
AFNE23.JPG,AFNE24.JPG,AFNE22.JPG,AFSA24.JPG,AFSA22.JPG,AFSA23.JPG,,,,,,,,,0,0,0,8,,,,,,,,,,,,,,,AFNE15.jpg,AFSA19.jpg,AFNE01.jpg,AFSA09.jpg,AFSA09.jpg,FS,4,num_4,16,num_4,0.783445308683,,,2017_Apr_26_1521,59.9967863549,FEMA4ImagesEEG,001,200216,
AMNE22.JPG,AMSA24.JPG,AMSA22.JPG,AMNE25.JPG,AMNE24.JPG,AMSA25.JPG,,,,,,,,,0,1,1,7,,,,,,,,,,,,,,,AFNE13.jpg,AFSA05.jpg,AFSA19.jpg,AFNE07.jpg,AFNE07.jpg,FN,3,num_4,32,num_8,1.1667323648,,,2017_Apr_26_1521,59.9967863549,FEMA4ImagesEEG,001,200216,
AFSA21.JPG,AFNE22.JPG,AFNE21.JPG,AFSA23.JPG,AFSA22.JPG,AFNE23.JPG,,,,,,,,,0,2,2,0,,,,,,,,,,,,,,,AFSA07.jpg,AFSA06.jpg,AFNE10.jpg,AFNE06.jpg,AFNE06.jpg,FN,3,num_4,16,num_4,0.933463959605,,,2017_Apr_26_1521,59.9967863549,FEMA4ImagesEEG,001,200216,
AMNE23.JPG,AMNE24.JPG,AMNE22.JPG,AMSA24.JPG,AMSA22.JPG,AMSA23.JPG,,,,,,,,,0,3,3,9,,,,,,,,,,,,,,,AFNE04.jpg,AFSA08.jpg,AFSA16.jpg,AFNE17.jpg,AFNE04.jpg,FN,3,num_8,16,num_8,1.10010780045,,,2017_Apr_26_1521,59.9967863549,FEMA4ImagesEEG,001,200216,
AMSA25.JPG,AMNE24.JPG,AMSA24.JPG,AMNE26.JPG,AMSA21.JPG,AMNE25.JPG,,,,,,,,,0,4,4,3,,,,,,,,,,,,,,,AFNE01.jpg,AFSA05.jpg,AFSA07.jpg,AFNE13.jpg,AFSA07.jpg,FS,4,num_2,16,num_2,1.60006690619,,,2017_Apr_26_1521,59.9967863549,FEMA4ImagesEEG,001,200216,
AFSA25.JPG,AFNE24.JPG,AFSA24.JPG,AFNE21.JPG,AFSA21.JPG,AFNE25.JPG,,,,,,,,,0,5,5,2,,,,,,,,,,,,,,,AFSA18.jpg,AFNE07.jpg,AFNE18.jpg,AFSA11.jpg,AFNE07.jpg,FN,3,num_6,16,num_6,0.733522269991,,,2017_Apr_26_1521,59.9967863549,FEMA4ImagesEEG,001,200216,
AMSA21.JPG,AMNE23.JPG,AMNE21.JPG,AMSA25.JPG,AMNE25.JPG,AMSA23.JPG,,,,,,,,,0,6,6,5,,,,,,,,,,,,,,,AFNE01.jpg,AFNE06.jpg,AFSA03.jpg,AFSA14.jpg,AFSA14.jpg,FS,4,num_4,16,num_4,1.05006737134,,,2017_Apr_26_1521,59.9967863549,FEMA4ImagesEEG,001,200216,
AMSA21.JPG,AMNE22.JPG,AMNE21.JPG,AMSA23.JPG,AMSA22.JPG,AMNE23.JPG,,,,,,,,,0,7,7,1,,,,,,,,,,,,,,,AFSA08.jpg,AFNE05.jpg,AFSA03.jpg,AFNE08.jpg,AFSA08.jpg,FS,4,num_8,16,num_8,0.566795357852,,,2017_Apr_26_1521,59.9967863549,FEMA4ImagesEEG,001,200216,
AFSA21.JPG,AFNE23.JPG,AFNE21.JPG,AFSA25.JPG,AFNE25.JPG,AFSA23.JPG,,,,,,,,,0,8,8,4,,,,,,,,,,,,,,,AFNE03.jpg,AFSA03.jpg,AFNE20.jpg,AFSA11.jpg,AFSA11.jpg,FS,4,num_4,16,num_4,0.800142344087,,,2017_Apr_26_1521,59.9967863549,FEMA4ImagesEEG,001,200216,
AFNE22.JPG,AFSA24.JPG,AFSA22.JPG,AFNE25.JPG,AFNE24.JPG,AFSA25.JPG,,,,,,,,,0,9,9,6,,,,,,,,,,,,,,,AFNE10.jpg,AFNE12.jpg,AFSA14.jpg,AFSA10.jpg,AFNE12.jpg,FN,3,num_6,32,num_8,0.70009163511,,,2017_Apr_26_1521,59.9967863549,FEMA4ImagesEEG,001,200216,
AFNE23.JPG,AFNE24.JPG,AFNE22.JPG,AFSA24.JPG,AFSA22.JPG,AFSA23.JPG,,,,,,,,,,,,,0,0,0,8,,,,,,,,,,,AMNE10.jpg,AMSA16.jpg,AMNE04.jpg,AMSA05.jpg,AMNE04.jpg,MN,1,num_2,16,num_2,1.84999257489,,,2017_Apr_26_1521,59.9967863549,FEMA4ImagesEEG,001,200216,
AMSA25.JPG,AMNE24.JPG,AMSA24.JPG,AMNE26.JPG,AMSA21.JPG,AMNE25.JPG,,,,,,,,,,,,,0,1,1,3,,,,,,,,,,,AMNE13.jpg,AMSA02.jpg,AMNE18.jpg,AMSA13.jpg,AMNE13.jpg,MN,1,num_8,16,num_8,0.766834552167,,,2017_Apr_26_1521,59.9967863549,FEMA4ImagesEEG,001,200216,
AFSA25.JPG,AFNE24.JPG,AFSA24.JPG,AFNE21.JPG,AFSA21.JPG,AFNE25.JPG,,,,,,,,,,,,,0,2,2,2,,,,,,,,,,,AMNE20.jpg,AMNE06.jpg,AMSA15.jpg,AMSA13.jpg,AMNE06.jpg,MN,1,num_6,16,num_6,0.766766555491,,,2017_Apr_26_1521,59.9967863549,FEMA4ImagesEEG,001,200216,
AMSA21.JPG,AMNE22.JPG,AMNE21.JPG,AMSA23.JPG,AMSA22.JPG,AMNE23.JPG,,,,,,,,,,,,,0,3,3,1,,,,,,,,,,,AMSA12.jpg,AMNE18.jpg,AMSA02.jpg,AMNE14.jpg,AMSA12.jpg,MS,2,num_8,16,num_8,1.21673302213,,,2017_Apr_26_1521,59.9967863549,FEMA4ImagesEEG,001,200216,
AMNE22.JPG,AMSA24.JPG,AMSA22.JPG,AMNE25.JPG,AMNE24.JPG,AMSA25.JPG,,,,,,,,,,,,,0,4,4,7,,,,,,,,,,,AMSA01.jpg,AMNE11.jpg,AMNE01.jpg,AMSA04.jpg,AMNE11.jpg,MN,1,num_6,16,num_6,1.11670476513,,,2017_Apr_26_1521,59.9967863549,FEMA4ImagesEEG,001,200216,
AFSA21.JPG,AFNE23.JPG,AFNE21.JPG,AFSA25.JPG,AFNE25.JPG,AFSA23.JPG,,,,,,,,,,,,,0,5,5,4,,,,,,,,,,,AMSA14.jpg,AMNE09.jpg,AMNE14.jpg,AMSA12.jpg,AMNE09.jpg,MN,1,num_6,32,num_4,0.983435429982,,,2017_Apr_26_1521,59.9967863549,FEMA4ImagesEEG,001,200216,
AMNE23.JPG,AMNE24.JPG,AMNE22.JPG,AMSA24.JPG,AMSA22.JPG,AMSA23.JPG,,,,,,,,,,,,,0,6,6,9,,,,,,,,,,,AMSA02.jpg,AMSA13.jpg,AMNE02.jpg,AMNE03.jpg,AMNE03.jpg,MN,1,num_4,16,num_4,1.20005458978,,,2017_Apr_26_1521,59.9967863549,FEMA4ImagesEEG,001,200216,
AMSA21.JPG,AMNE23.JPG,AMNE21.JPG,AMSA25.JPG,AMNE25.JPG,AMSA23.JPG,,,,,,,,,,,,,0,7,7,5,,,,,,,,,,,AMSA03.jpg,AMSA06.jpg,AMNE18.jpg,AMNE14.jpg,AMNE18.jpg,MN,1,num_2,32,num_6,0.783376349835,,,2017_Apr_26_1521,59.9967863549,FEMA4ImagesEEG,001,200216,
AFNE22.JPG,AFSA24.JPG,AFSA22.JPG,AFNE25.JPG,AFNE24.JPG,AFSA25.JPG,,,,,,,,,,,,,0,8,8,6,,,,,,,,,,,AMSA10.jpg,AMSA12.jpg,AMNE14.jpg,AMNE15.jpg,AMSA12.jpg,MS,2,num_6,32,num_8,0.999971774989,,,2017_Apr_26_1521,59.9967863549,FEMA4ImagesEEG,001,200216,
AFSA21.JPG,AFNE22.JPG,AFNE21.JPG,AFSA23.JPG,AFSA22.JPG,AFNE23.JPG,,,,,,,,,,,,,0,9,9,0,,,,,,,,,,,AMNE08.jpg,AMNE15.jpg,AMSA01.jpg,AMSA02.jpg,AMSA01.jpg,MS,2,num_2,16,num_2,1.85004004429,,,2017_Apr_26_1521,59.9967863549,FEMA4ImagesEEG,001,200216,
AMSA21.JPG,AMNE22.JPG,AMNE21.JPG,AMSA23.JPG,AMSA22.JPG,AMNE23.JPG,,,,,,,,,,,,,,,,,0,0,0,1,,,,,,,AFSA01.jpg,AFNE19.jpg,AFSA05.jpg,AFNE04.jpg,AFSA01.jpg,FS,4,num_8,16,num_8,0.46688834019,,,2017_Apr_26_1521,59.9967863549,FEMA4ImagesEEG,001,200216,
AFSA21.JPG,AFNE23.JPG,AFNE21.JPG,AFSA25.JPG,AFNE25.JPG,AFSA23.JPG,,,,,,,,,,,,,,,,,0,1,1,4,,,,,,,AFSA04.jpg,AFNE15.jpg,AFSA03.jpg,AFNE19.jpg,AFNE19.jpg,FN,3,num_4,32,num_2,1.26676030108,,,2017_Apr_26_1521,59.9967863549,FEMA4ImagesEEG,001,200216,
AFNE23.JPG,AFNE24.JPG,AFNE22.JPG,AFSA24.JPG,AFSA22.JPG,AFSA23.JPG,,,,,,,,,,,,,,,,,0,2,2,8,,,,,,,AFSA07.jpg,AFNE11.jpg,AFNE02.jpg,AFSA20.jpg,AFSA07.jpg,FS,4,num_8,16,num_8,0.766766234767,,,2017_Apr_26_1521,59.9967863549,FEMA4ImagesEEG,001,200216,
AFSA25.JPG,AFNE24.JPG,AFSA24.JPG,AFNE21.JPG,AFSA21.JPG,AFNE25.JPG,,,,,,,,,,,,,,,,,0,3,3,2,,,,,,,AFSA11.jpg,AFSA05.jpg,AFNE04.jpg,AFNE12.jpg,AFNE12.jpg,FN,3,num_4,16,num_4,1.06678461307,,,2017_Apr_26_1521,59.9967863549,FEMA4ImagesEEG,001,200216,
AFSA21.JPG,AFNE22.JPG,AFNE21.JPG,AFSA23.JPG,AFSA22.JPG,AFNE23.JPG,,,,,,,,,,,,,,,,,0,4,4,0,,,,,,,AFNE18.jpg,AFNE01.jpg,AFSA08.jpg,AFSA09.jpg,AFSA09.jpg,FS,4,num_4,32,num_8,0.583479242865,,,2017_Apr_26_1521,59.9967863549,FEMA4ImagesEEG,001,200216,
AFNE22.JPG,AFSA24.JPG,AFSA22.JPG,AFNE25.JPG,AFNE24.JPG,AFSA25.JPG,,,,,,,,,,,,,,,,,0,5,5,6,,,,,,,AFNE07.jpg,AFSA18.jpg,AFSA04.jpg,AFNE05.jpg,AFNE07.jpg,FN,3,num_8,16,num_8,0.983437033603,,,2017_Apr_26_1521,59.9967863549,FEMA4ImagesEEG,001,200216,
AMNE23.JPG,AMNE24.JPG,AMNE22.JPG,AMSA24.JPG,AMSA22.JPG,AMSA23.JPG,,,,,,,,,,,,,,,,,0,6,6,9,,,,,,,AFNE17.jpg,AFSA13.jpg,AFNE16.jpg,AFSA01.jpg,AFNE16.jpg,FN,3,num_2,32,num_6,0.883454000694,,,2017_Apr_26_1521,59.9967863549,FEMA4ImagesEEG,001,200216,
AMSA21.JPG,AMNE23.JPG,AMNE21.JPG,AMSA25.JPG,AMNE25.JPG,AMSA23.JPG,,,,,,,,,,,,,,,,,0,7,7,5,,,,,,,AFSA09.jpg,AFNE17.jpg,AFNE20.jpg,AFSA04.jpg,AFNE17.jpg,FN,3,num_6,32,num_8,0.91672362457,,,2017_Apr_26_1521,59.9967863549,FEMA4ImagesEEG,001,200216,
AMNE22.JPG,AMSA24.JPG,AMSA22.JPG,AMNE25.JPG,AMNE24.JPG,AMSA25.JPG,,,,,,,,,,,,,,,,,0,8,8,7,,,,,,,AFSA04.jpg,AFNE02.jpg,AFSA18.jpg,AFNE01.jpg,AFNE02.jpg,FN,3,num_6,32,num_2,0.46674561128,,,2017_Apr_26_1521,59.9967863549,FEMA4ImagesEEG,001,200216,
AMSA25.JPG,AMNE24.JPG,AMSA24.JPG,AMNE26.JPG,AMSA21.JPG,AMNE25.JPG,,,,,,,,,,,,,,,,,0,9,9,3,,,,,,,AFNE13.jpg,AFSA12.jpg,AFNE02.jpg,AFSA19.jpg,AFSA19.jpg,FS,4,num_4,16,num_4,0.583403869299,,,2017_Apr_26_1521,59.9967863549,FEMA4ImagesEEG,001,200216,
AMNE22.JPG,AMSA24.JPG,AMSA22.JPG,AMNE25.JPG,AMNE24.JPG,AMSA25.JPG,,,,,,,,,,,,,,,,,,,,,0,0,0,7,,,AMSA13.jpg,AMNE13.jpg,AMNE02.jpg,AMSA15.jpg,AMNE02.jpg,MN,1,num_2,16,num_2,0.933730493882,,,2017_Apr_26_1521,59.9967863549,FEMA4ImagesEEG,001,200216,
AMSA25.JPG,AMNE24.JPG,AMSA24.JPG,AMNE26.JPG,AMSA21.JPG,AMNE25.JPG,,,,,,,,,,,,,,,,,,,,,0,1,1,3,,,AMSA11.jpg,AMNE07.jpg,AMSA17.jpg,AMNE18.jpg,AMSA17.jpg,MS,2,num_2,16,num_2,0.833473229082,,,2017_Apr_26_1521,59.9967863549,FEMA4ImagesEEG,001,200216,
AFSA21.JPG,AFNE23.JPG,AFNE21.JPG,AFSA25.JPG,AFNE25.JPG,AFSA23.JPG,,,,,,,,,,,,,,,,,,,,,0,2,2,4,,,AMSA13.jpg,AMSA11.jpg,AMNE17.jpg,AMNE10.jpg,AMNE10.jpg,MN,1,num_4,32,num_8,0.800151966163,,,2017_Apr_26_1521,59.9967863549,FEMA4ImagesEEG,001,200216,
AFSA25.JPG,AFNE24.JPG,AFSA24.JPG,AFNE21.JPG,AFSA21.JPG,AFNE25.JPG,,,,,,,,,,,,,,,,,,,,,0,3,3,2,,,AMSA19.jpg,AMNE19.jpg,AMSA11.jpg,AMNE17.jpg,AMSA11.jpg,MS,2,num_2,16,num_2,1.16671985597,,,2017_Apr_26_1521,59.9967863549,FEMA4ImagesEEG,001,200216,
AMSA21.JPG,AMNE23.JPG,AMNE21.JPG,AMSA25.JPG,AMNE25.JPG,AMSA23.JPG,,,,,,,,,,,,,,,,,,,,,0,4,4,5,,,AMNE20.jpg,AMSA13.jpg,AMNE06.jpg,AMSA18.jpg,AMNE06.jpg,MN,1,num_2,32,num_8,0.833481568261,,,2017_Apr_26_1521,59.9967863549,FEMA4ImagesEEG,001,200216,
AMNE23.JPG,AMNE24.JPG,AMNE22.JPG,AMSA24.JPG,AMSA22.JPG,AMSA23.JPG,,,,,,,,,,,,,,,,,,,,,0,5,5,9,,,AMSA07.jpg,AMNE12.jpg,AMSA17.jpg,AMNE13.jpg,AMSA17.jpg,MS,2,num_2,32,num_6,0.916784564964,,,2017_Apr_26_1521,59.9967863549,FEMA4ImagesEEG,001,200216,
AFNE23.JPG,AFNE24.JPG,AFNE22.JPG,AFSA24.JPG,AFSA22.JPG,AFSA23.JPG,,,,,,,,,,,,,,,,,,,,,0,6,6,8,,,AMNE09.jpg,AMSA03.jpg,AMNE05.jpg,AMSA08.jpg,AMSA08.jpg,MS,2,num_4,32,num_8,0.36679240712,,,2017_Apr_26_1521,59.9967863549,FEMA4ImagesEEG,001,200216,
AFSA21.JPG,AFNE22.JPG,AFNE21.JPG,AFSA23.JPG,AFSA22.JPG,AFNE23.JPG,,,,,,,,,,,,,,,,,,,,,0,7,7,0,,,AMNE15.jpg,AMSA10.jpg,AMNE02.jpg,AMSA11.jpg,AMNE02.jpg,MN,1,num_2,16,num_2,1.53344362485,,,2017_Apr_26_1521,59.9967863549,FEMA4ImagesEEG,001,200216,
AMSA21.JPG,AMNE22.JPG,AMNE21.JPG,AMSA23.JPG,AMSA22.JPG,AMNE23.JPG,,,,,,,,,,,,,,,,,,,,,0,8,8,1,,,AMNE12.jpg,AMSA19.jpg,AMSA08.jpg,AMNE19.jpg,AMNE12.jpg,MN,1,num_8,16,num_8,0.800144268433,,,2017_Apr_26_1521,59.9967863549,FEMA4ImagesEEG,001,200216,
AFNE22.JPG,AFSA24.JPG,AFSA22.JPG,AFNE25.JPG,AFNE24.JPG,AFSA25.JPG,,,,,,,,,,,,,,,,,,,,,0,9,9,6,,,AMSA11.jpg,AMSA02.jpg,AMNE15.jpg,AMNE12.jpg,AMSA02.jpg,MS,2,num_6,16,num_6,0.516818114324,,,2017_Apr_26_1521,59.9967863549,FEMA4ImagesEEG,001,200216,
,,,,,,,,,,,,,,,,,,,,,,,,,,,,,,,,,,,,,,,,,,,space,9.19941792276,2017_Apr_26_1521,59.9967863549,FEMA4ImagesEEG,001,200216,
AFNE01.JPG,AFNE01.JPG,AFNE01.JPG,AFNE01.JPG,AFNE01.JPG,AFNE01.JPG,0,0,0,7,,,,,,,,,,,,,,,,,,,,,,,AFNE06.jpg,AFNE13.jpg,AFSA18.jpg,AFSA13.jpg,AFNE06.jpg,FN,3,num_8,32,num_6,0.733751919237,,,2017_Apr_26_1521,59.9967863549,FEMA4ImagesEEG,001,200216,
AFNE01.JPG,AFNE01.JPG,AFNE01.JPG,AFNE01.JPG,AFNE01.JPG,AFNE01.JPG,0,1,1,1,,,,,,,,,,,,,,,,,,,,,,,AFNE17.jpg,AFSA17.jpg,AFSA04.jpg,AFNE09.jpg,AFNE17.jpg,FN,3,num_8,16,num_8,0.916784565081,,,2017_Apr_26_1521,59.9967863549,FEMA4ImagesEEG,001,200216,
AFNE01.JPG,AFNE01.JPG,AFNE01.JPG,AFNE01.JPG,AFNE01.JPG,AFNE01.JPG,0,2,2,0,,,,,,,,,,,,,,,,,,,,,,,AFNE16.jpg,AFSA02.jpg,AFSA06.jpg,AFNE03.jpg,AFNE03.jpg,FN,3,num_4,32,num_6,0.599991853232,,,2017_Apr_26_1521,59.9967863549,FEMA4ImagesEEG,001,200216,
AFNE01.JPG,AFNE01.JPG,AFNE01.JPG,AFNE01.JPG,AFNE01.JPG,AFNE01.JPG,0,3,3,9,,,,,,,,,,,,,,,,,,,,,,,AFNE03.jpg,AFSA09.jpg,AFSA04.jpg,AFNE10.jpg,AFSA04.jpg,FS,4,num_2,16,num_2,1.70013301051,,,2017_Apr_26_1521,59.9967863549,FEMA4ImagesEEG,001,200216,
AFNE01.JPG,AFNE01.JPG,AFNE01.JPG,AFNE01.JPG,AFNE01.JPG,AFNE01.JPG,0,4,4,2,,,,,,,,,,,,,,,,,,,,,,,AFSA13.jpg,AFNE15.jpg,AFSA01.jpg,AFNE16.jpg,AFNE15.jpg,FN,3,num_6,16,num_6,0.750132064335,,,2017_Apr_26_1521,59.9967863549,FEMA4ImagesEEG,001,200216,
AFNE01.JPG,AFNE01.JPG,AFNE01.JPG,AFNE01.JPG,AFNE01.JPG,AFNE01.JPG,0,5,5,3,,,,,,,,,,,,,,,,,,,,,,,AFSA02.jpg,AFSA03.jpg,AFNE11.jpg,AFNE05.jpg,AFNE05.jpg,FN,3,num_4,32,num_8,0.433718145359,,,2017_Apr_26_1521,59.9967863549,FEMA4ImagesEEG,001,200216,
AFNE01.JPG,AFNE01.JPG,AFNE01.JPG,AFNE01.JPG,AFNE01.JPG,AFNE01.JPG,0,6,6,5,,,,,,,,,,,,,,,,,,,,,,,AFNE11.jpg,AFSA15.jpg,AFSA07.jpg,AFNE14.jpg,AFNE14.jpg,FN,3,num_4,32,num_8,0.950102941249,,,2017_Apr_26_1521,59.9967863549,FEMA4ImagesEEG,001,200216,
AFNE01.JPG,AFNE01.JPG,AFNE01.JPG,AFNE01.JPG,AFNE01.JPG,AFNE01.JPG,0,7,7,8,,,,,,,,,,,,,,,,,,,,,,,AFSA02.jpg,AFSA06.jpg,AFNE16.jpg,AFNE03.jpg,AFNE16.jpg,FN,3,num_2,32,num_4,0.916766924434,,,2017_Apr_26_1521,59.9967863549,FEMA4ImagesEEG,001,200216,
AFNE01.JPG,AFNE01.JPG,AFNE01.JPG,AFNE01.JPG,AFNE01.JPG,AFNE01.JPG,0,8,8,6,,,,,,,,,,,,,,,,,,,,,,,AFNE13.jpg,AFSA20.jpg,AFNE07.jpg,AFSA07.jpg,AFNE07.jpg,FN,3,num_2,16,num_2,1.49974356918,,,2017_Apr_26_1521,59.9967863549,FEMA4ImagesEEG,001,200216,
AFNE01.JPG,AFNE01.JPG,AFNE01.JPG,AFNE01.JPG,AFNE01.JPG,AFNE01.JPG,0,9,9,4,,,,,,,,,,,,,,,,,,,,,,,AFNE05.jpg,AFNE06.jpg,AFSA03.jpg,AFSA18.jpg,AFSA18.jpg,FS,4,num_4,16,num_4,0.583451980143,,,2017_Apr_26_1521,59.9967863549,FEMA4ImagesEEG,001,200216,
AFNE01.JPG,AFNE01.JPG,AFNE01.JPG,AFNE01.JPG,AFNE01.JPG,AFNE01.JPG,1,0,10,5,,,,,,,,,,,,,,,,,,,,,,,AFSA13.jpg,AFNE03.jpg,AFSA04.jpg,AFNE07.jpg,AFSA13.jpg,FS,4,num_8,16,num_8,0.583353833877,,,2017_Apr_26_1521,59.9967863549,FEMA4ImagesEEG,001,200216,
AFNE01.JPG,AFNE01.JPG,AFNE01.JPG,AFNE01.JPG,AFNE01.JPG,AFNE01.JPG,1,1,11,4,,,,,,,,,,,,,,,,,,,,,,,AFSA19.jpg,AFNE12.jpg,AFNE10.jpg,AFSA02.jpg,AFNE10.jpg,FN,3,num_2,16,num_2,1.23343326501,,,2017_Apr_26_1521,59.9967863549,FEMA4ImagesEEG,001,200216,
AFNE01.JPG,AFNE01.JPG,AFNE01.JPG,AFNE01.JPG,AFNE01.JPG,AFNE01.JPG,1,2,12,7,,,,,,,,,,,,,,,,,,,,,,,AFSA17.jpg,AFNE06.jpg,AFSA20.jpg,AFNE16.jpg,AFNE16.jpg,FN,3,num_4,16,num_4,1.25009181164,,,2017_Apr_26_1521,59.9967863549,FEMA4ImagesEEG,001,200216,
AFNE01.JPG,AFNE01.JPG,AFNE01.JPG,AFNE01.JPG,AFNE01.JPG,AFNE01.JPG,1,3,13,8,,,,,,,,,,,,,,,,,,,,,,,AFNE06.jpg,AFNE08.jpg,AFSA11.jpg,AFSA09.jpg,AFSA09.jpg,FS,4,num_4,16,num_4,1.40009955748,,,2017_Apr_26_1521,59.9967863549,FEMA4ImagesEEG,001,200216,
AFNE01.JPG,AFNE01.JPG,AFNE01.JPG,AFNE01.JPG,AFNE01.JPG,AFNE01.JPG,1,4,14,0,,,,,,,,,,,,,,,,,,,,,,,AFNE20.jpg,AFSA02.jpg,AFSA10.jpg,AFNE05.jpg,AFSA02.jpg,FS,4,num_6,16,num_6,0.8167678545,,,2017_Apr_26_1521,59.9967863549,FEMA4ImagesEEG,001,200216,
AFNE01.JPG,AFNE01.JPG,AFNE01.JPG,AFNE01.JPG,AFNE01.JPG,AFNE01.JPG,1,5,15,1,,,,,,,,,,,,,,,,,,,,,,,AFSA14.jpg,AFSA20.jpg,AFNE05.jpg,AFNE06.jpg,AFNE06.jpg,FN,3,num_4,32,num_8,0.7834844389,,,2017_Apr_26_1521,59.9967863549,FEMA4ImagesEEG,001,200216,
AFNE01.JPG,AFNE01.JPG,AFNE01.JPG,AFNE01.JPG,AFNE01.JPG,AFNE01.JPG,1,6,16,9,,,,,,,,,,,,,,,,,,,,,,,AFNE05.jpg,AFSA01.jpg,AFNE12.jpg,AFSA04.jpg,AFSA04.jpg,FS,4,num_4,16,num_4,1.3003035154,,,2017_Apr_26_1521,59.9967863549,FEMA4ImagesEEG,001,200216,
AFNE01.JPG,AFNE01.JPG,AFNE01.JPG,AFNE01.JPG,AFNE01.JPG,AFNE01.JPG,1,7,17,3,,,,,,,,,,,,,,,,,,,,,,,AFNE04.jpg,AFNE03.jpg,AFSA04.jpg,AFSA02.jpg,AFSA04.jpg,FS,4,num_2,32,num_4,1.10038459825,,,2017_Apr_26_1521,59.9967863549,FEMA4ImagesEEG,001,200216,
AFNE01.JPG,AFNE01.JPG,AFNE01.JPG,AFNE01.JPG,AFNE01.JPG,AFNE01.JPG,1,8,18,6,,,,,,,,,,,,,,,,,,,,,,,AFSA11.jpg,AFNE04.jpg,AFSA06.jpg,AFNE08.jpg,AFSA11.jpg,FS,4,num_8,16,num_8,0.800260375952,,,2017_Apr_26_1521,59.9967863549,FEMA4ImagesEEG,001,200216,
AFNE01.JPG,AFNE01.JPG,AFNE01.JPG,AFNE01.JPG,AFNE01.JPG,AFNE01.JPG,1,9,19,2,,,,,,,,,,,,,,,,,,,,,,,AFSA20.jpg,AFSA05.jpg,AFNE19.jpg,AFNE10.jpg,AFNE10.jpg,FN,3,num_4,16,num_4,0.566637875047,,,2017_Apr_26_1521,59.9967863549,FEMA4ImagesEEG,001,200216,
AFNE01.JPG,AFNE01.JPG,AFNE01.JPG,AFNE01.JPG,AFNE01.JPG,AFNE01.JPG,2,0,20,5,,,,,,,,,,,,,,,,,,,,,,,AFNE08.jpg,AFSA17.jpg,AFSA05.jpg,AFNE20.jpg,AFSA17.jpg,FS,4,num_6,16,num_6,0.716752427048,,,2017_Apr_26_1521,59.9967863549,FEMA4ImagesEEG,001,200216,
AFNE01.JPG,AFNE01.JPG,AFNE01.JPG,AFNE01.JPG,AFNE01.JPG,AFNE01.JPG,2,1,21,4,,,,,,,,,,,,,,,,,,,,,,,AFNE17.jpg,AFSA10.jpg,AFSA18.jpg,AFNE13.jpg,AFNE17.jpg,FN,3,num_8,16,num_8,1.51671996817,,,2017_Apr_26_1521,59.9967863549,FEMA4ImagesEEG,001,200216,
AFNE01.JPG,AFNE01.JPG,AFNE01.JPG,AFNE01.JPG,AFNE01.JPG,AFNE01.JPG,2,2,22,8,,,,,,,,,,,,,,,,,,,,,,,AFNE20.jpg,AFSA20.jpg,AFNE04.jpg,AFSA09.jpg,AFNE20.jpg,FN,3,num_8,32,num_2,1.51694256114,,,2017_Apr_26_1521,59.9967863549,FEMA4ImagesEEG,001,200216,
AFNE01.JPG,AFNE01.JPG,AFNE01.JPG,AFNE01.JPG,AFNE01.JPG,AFNE01.JPG,2,3,23,2,,,,,,,,,,,,,,,,,,,,,,,AFNE17.jpg,AFNE05.jpg,AFSA03.jpg,AFSA18.jpg,AFSA03.jpg,FS,4,num_2,32,num_4,0.516789889312,,,2017_Apr_26_1521,59.9967863549,FEMA4ImagesEEG,001,200216,
AFNE01.JPG,AFNE01.JPG,AFNE01.JPG,AFNE01.JPG,AFNE01.JPG,AFNE01.JPG,2,4,24,3,,,,,,,,,,,,,,,,,,,,,,,AFSA11.jpg,AFNE05.jpg,AFSA09.jpg,AFNE19.jpg,AFNE19.jpg,FN,3,num_4,32,num_6,0.950133090722,,,2017_Apr_26_1521,59.9967863549,FEMA4ImagesEEG,001,200216,
AFNE01.JPG,AFNE01.JPG,AFNE01.JPG,AFNE01.JPG,AFNE01.JPG,AFNE01.JPG,2,5,25,1,,,,,,,,,,,,,,,,,,,,,,,AFSA13.jpg,AFNE19.jpg,AFNE12.jpg,AFSA10.jpg,AFSA13.jpg,FS,4,num_8,16,num_8,0.916746397037,,,2017_Apr_26_1521,59.9967863549,FEMA4ImagesEEG,001,200216,
AFNE01.JPG,AFNE01.JPG,AFNE01.JPG,AFNE01.JPG,AFNE01.JPG,AFNE01.JPG,2,6,26,0,,,,,,,,,,,,,,,,,,,,,,,AFSA09.jpg,AFNE10.jpg,AFNE16.jpg,AFSA06.jpg,AFSA06.jpg,FS,4,num_4,16,num_4,1.28339864116,,,2017_Apr_26_1521,59.9967863549,FEMA4ImagesEEG,001,200216,
AFNE01.JPG,AFNE01.JPG,AFNE01.JPG,AFNE01.JPG,AFNE01.JPG,AFNE01.JPG,2,7,27,6,,,,,,,,,,,,,,,,,,,,,,,AFNE12.jpg,AFSA19.jpg,AFNE16.jpg,AFSA06.jpg,AFNE16.jpg,FN,3,num_2,16,num_2,1.0834393109,,,2017_Apr_26_1521,59.9967863549,FEMA4ImagesEEG,001,200216,
AFNE01.JPG,AFNE01.JPG,AFNE01.JPG,AFNE01.JPG,AFNE01.JPG,AFNE01.JPG,2,8,28,9,,,,,,,,,,,,,,,,,,,,,,,AFSA14.jpg,AFNE19.jpg,AFSA01.jpg,AFNE07.jpg,AFNE07.jpg,FN,3,num_4,16,num_4,0.766778422752,,,2017_Apr_26_1521,59.9967863549,FEMA4ImagesEEG,001,200216,
AFNE01.JPG,AFNE01.JPG,AFNE01.JPG,AFNE01.JPG,AFNE01.JPG,AFNE01.JPG,2,9,29,7,,,,,,,,,,,,,,,,,,,,,,,AFNE16.jpg,AFNE13.jpg,AFSA04.jpg,AFSA13.jpg,AFNE13.jpg,FN,3,num_6,16,num_6,0.983411053778,,,2017_Apr_26_1521,59.9967863549,FEMA4ImagesEEG,001,200216,
AFNE01.JPG,AFNE01.JPG,AFNE01.JPG,AFNE01.JPG,AFNE01.JPG,AFNE01.JPG,3,0,30,9,,,,,,,,,,,,,,,,,,,,,,,AFNE13.jpg,AFSA09.jpg,AFNE12.jpg,AFSA15.jpg,AFNE12.jpg,FN,3,num_2,16,num_2,1.13339121605,,,2017_Apr_26_1521,59.9967863549,FEMA4ImagesEEG,001,200216,
AFNE01.JPG,AFNE01.JPG,AFNE01.JPG,AFNE01.JPG,AFNE01.JPG,AFNE01.JPG,3,1,31,1,,,,,,,,,,,,,,,,,,,,,,,AFNE03.jpg,AFSA20.jpg,AFSA01.jpg,AFNE07.jpg,AFNE03.jpg,FN,3,num_8,32,num_2,1.94987585791,,,2017_Apr_26_1521,59.9967863549,FEMA4ImagesEEG,001,200216,
AFNE01.JPG,AFNE01.JPG,AFNE01.JPG,AFNE01.JPG,AFNE01.JPG,AFNE01.JPG,3,2,32,5,,,,,,,,,,,,,,,,,,,,,,,AFSA03.jpg,AFSA15.jpg,AFNE19.jpg,AFNE10.jpg,AFSA03.jpg,FS,4,num_8,16,num_8,1.55004187243,,,2017_Apr_26_1521,59.9967863549,FEMA4ImagesEEG,001,200216,
AFNE01.JPG,AFNE01.JPG,AFNE01.JPG,AFNE01.JPG,AFNE01.JPG,AFNE01.JPG,3,3,33,6,,,,,,,,,,,,,,,,,,,,,,,AFSA16.jpg,AFNE04.jpg,AFNE10.jpg,AFSA06.jpg,AFSA16.jpg,FS,4,num_8,32,num_4,0.900163544808,,,2017_Apr_26_1521,59.9967863549,FEMA4ImagesEEG,001,200216,
AFNE01.JPG,AFNE01.JPG,AFNE01.JPG,AFNE01.JPG,AFNE01.JPG,AFNE01.JPG,3,4,34,7,,,,,,,,,,,,,,,,,,,,,,,AFSA15.jpg,AFSA06.jpg,AFNE16.jpg,AFNE15.jpg,AFSA06.jpg,FS,4,num_6,16,num_6,0.699835043983,,,2017_Apr_26_1521,59.9967863549,FEMA4ImagesEEG,001,200216,
AFNE01.JPG,AFNE01.JPG,AFNE01.JPG,AFNE01.JPG,AFNE01.JPG,AFNE01.JPG,3,5,35,3,,,,,,,,,,,,,,,,,,,,,,,AFSA12.jpg,AFNE15.jpg,AFSA09.jpg,AFNE16.jpg,AFSA09.jpg,FS,4,num_2,32,num_8,0.966715942835,,,2017_Apr_26_1521,59.9967863549,FEMA4ImagesEEG,001,200216,
AFNE01.JPG,AFNE01.JPG,AFNE01.JPG,AFNE01.JPG,AFNE01.JPG,AFNE01.JPG,3,6,36,2,,,,,,,,,,,,,,,,,,,,,,,AFNE16.jpg,AFNE01.jpg,AFSA05.jpg,AFSA19.jpg,AFNE01.jpg,FN,3,num_6,32,num_2,1.65006628074,,,2017_Apr_26_1521,59.9967863549,FEMA4ImagesEEG,001,200216,
AFNE01.JPG,AFNE01.JPG,AFNE01.JPG,AFNE01.JPG,AFNE01.JPG,AFNE01.JPG,3,7,37,8,,,,,,,,,,,,,,,,,,,,,,,AFNE17.jpg,AFNE11.jpg,AFSA11.jpg,AFSA01.jpg,AFSA11.jpg,FS,4,num_2,16,num_2,1.16672659141,,,2017_Apr_26_1521,59.9967863549,FEMA4ImagesEEG,001,200216,
AFNE01.JPG,AFNE01.JPG,AFNE01.JPG,AFNE01.JPG,AFNE01.JPG,AFNE01.JPG,3,8,38,4,,,,,,,,,,,,,,,,,,,,,,,AFSA20.jpg,AFNE08.jpg,AFNE10.jpg,AFSA15.jpg,AFSA20.jpg,FS,4,num_8,16,num_8,0.650070129661,,,2017_Apr_26_1521,59.9967863549,FEMA4ImagesEEG,001,200216,
AFNE01.JPG,AFNE01.JPG,AFNE01.JPG,AFNE01.JPG,AFNE01.JPG,AFNE01.JPG,3,9,39,0,,,,,,,,,,,,,,,,,,,,,,,AFSA14.jpg,AFNE08.jpg,AFSA07.jpg,AFNE09.jpg,AFSA07.jpg,FS,4,num_2,16,num_2,0.91682465747,,,2017_Apr_26_1521,59.9967863549,FEMA4ImagesEEG,001,200216,
AFNE01.JPG,AFNE01.JPG,AFNE01.JPG,AFNE01.JPG,AFNE01.JPG,AFNE01.JPG,4,0,40,6,,,,,,,,,,,,,,,,,,,,,,,AFSA20.jpg,AFNE02.jpg,AFNE08.jpg,AFSA04.jpg,AFSA20.jpg,FS,4,num_8,32,num_4,0.783467760426,,,2017_Apr_26_1521,59.9967863549,FEMA4ImagesEEG,001,200216,
AFNE01.JPG,AFNE01.JPG,AFNE01.JPG,AFNE01.JPG,AFNE01.JPG,AFNE01.JPG,4,1,41,0,,,,,,,,,,,,,,,,,,,,,,,AFNE11.jpg,AFNE13.jpg,AFSA15.jpg,AFSA08.jpg,AFSA15.jpg,FS,4,num_2,16,num_2,1.10014083656,,,2017_Apr_26_1521,59.9967863549,FEMA4ImagesEEG,001,200216,
AFNE01.JPG,AFNE01.JPG,AFNE01.JPG,AFNE01.JPG,AFNE01.JPG,AFNE01.JPG,4,2,42,1,,,,,,,,,,,,,,,,,,,,,,,AFSA05.jpg,AFSA12.jpg,AFNE20.jpg,AFNE15.jpg,AFNE15.jpg,FN,3,num_4,16,num_4,0.800134004792,,,2017_Apr_26_1521,59.9967863549,FEMA4ImagesEEG,001,200216,
AFNE01.JPG,AFNE01.JPG,AFNE01.JPG,AFNE01.JPG,AFNE01.JPG,AFNE01.JPG,4,3,43,3,,,,,,,,,,,,,,,,,,,,,,,AFSA18.jpg,AFSA08.jpg,AFNE04.jpg,AFNE19.jpg,AFNE04.jpg,FN,3,num_2,32,num_8,1.36683346168,,,2017_Apr_26_1521,59.9967863549,FEMA4ImagesEEG,001,200216,
AFNE01.JPG,AFNE01.JPG,AFNE01.JPG,AFNE01.JPG,AFNE01.JPG,AFNE01.JPG,4,4,44,2,,,,,,,,,,,,,,,,,,,,,,,AFNE10.jpg,AFSA10.jpg,AFSA05.jpg,AFNE17.jpg,AFNE17.jpg,FN,3,num_4,16,num_4,1.20032401057,,,2017_Apr_26_1521,59.9967863549,FEMA4ImagesEEG,001,200216,
AFNE01.JPG,AFNE01.JPG,AFNE01.JPG,AFNE01.JPG,AFNE01.JPG,AFNE01.JPG,4,5,45,4,,,,,,,,,,,,,,,,,,,,,,,AFNE12.jpg,AFSA09.jpg,AFSA17.jpg,AFNE07.jpg,AFSA17.jpg,FS,4,num_2,32,num_6,0.96677976998,,,2017_Apr_26_1521,59.9967863549,FEMA4ImagesEEG,001,200216,
AFNE01.JPG,AFNE01.JPG,AFNE01.JPG,AFNE01.JPG,AFNE01.JPG,AFNE01.JPG,4,6,46,8,,,,,,,,,,,,,,,,,,,,,,,AFSA03.jpg,AFNE11.jpg,AFSA18.jpg,AFNE03.jpg,AFSA18.jpg,FS,4,num_2,16,num_2,0.950077602756,,,2017_Apr_26_1521,59.9967863549,FEMA4ImagesEEG,001,200216,
AFNE01.JPG,AFNE01.JPG,AFNE01.JPG,AFNE01.JPG,AFNE01.JPG,AFNE01.JPG,4,7,47,9,,,,,,,,,,,,,,,,,,,,,,,AFNE13.jpg,AFNE11.jpg,AFSA01.jpg,AFSA05.jpg,AFSA05.jpg,FS,4,num_4,16,num_4,1.01674514625,,,2017_Apr_26_1521,59.9967863549,FEMA4ImagesEEG,001,200216,
AFNE01.JPG,AFNE01.JPG,AFNE01.JPG,AFNE01.JPG,AFNE01.JPG,AFNE01.JPG,4,8,48,5,,,,,,,,,,,,,,,,,,,,,,,AFNE04.jpg,AFNE10.jpg,AFSA18.jpg,AFSA02.jpg,AFSA18.jpg,FS,4,num_2,16,num_2,0.966623570072,,,2017_Apr_26_1521,59.9967863549,FEMA4ImagesEEG,001,200216,
AFNE01.JPG,AFNE01.JPG,AFNE01.JPG,AFNE01.JPG,AFNE01.JPG,AFNE01.JPG,4,9,49,7,,,,,,,,,,,,,,,,,,,,,,,AFSA13.jpg,AFSA04.jpg,AFNE08.jpg,AFNE20.jpg,AFNE20.jpg,FN,3,num_4,16,num_4,0.716809197795,,,2017_Apr_26_1521,59.9967863549,FEMA4ImagesEEG,001,200216,
AFNE01.JPG,AFNE01.JPG,AFNE01.JPG,AFNE01.JPG,AFNE01.JPG,AFNE01.JPG,5,0,50,3,,,,,,,,,,,,,,,,,,,,,,,AFSA08.jpg,AFSA06.jpg,AFNE01.jpg,AFNE14.jpg,AFNE01.jpg,FN,3,num_2,32,num_4,0.883462339989,,,2017_Apr_26_1521,59.9967863549,FEMA4ImagesEEG,001,200216,
AFNE01.JPG,AFNE01.JPG,AFNE01.JPG,AFNE01.JPG,AFNE01.JPG,AFNE01.JPG,5,1,51,4,,,,,,,,,,,,,,,,,,,,,,,AFSA17.jpg,AFNE09.jpg,AFNE02.jpg,AFSA09.jpg,AFNE02.jpg,FN,3,num_2,32,num_6,1.0000962218,,,2017_Apr_26_1521,59.9967863549,FEMA4ImagesEEG,001,200216,
AFNE01.JPG,AFNE01.JPG,AFNE01.JPG,AFNE01.JPG,AFNE01.JPG,AFNE01.JPG,5,2,52,7,,,,,,,,,,,,,,,,,,,,,,,AFNE09.jpg,AFSA06.jpg,AFNE03.jpg,AFSA18.jpg,AFNE03.jpg,FN,3,num_2,16,num_2,0.81649522623,,,2017_Apr_26_1521,59.9967863549,FEMA4ImagesEEG,001,200216,
AFNE01.JPG,AFNE01.JPG,AFNE01.JPG,AFNE01.JPG,AFNE01.JPG,AFNE01.JPG,5,3,53,6,,,,,,,,,,,,,,,,,,,,,,,AFNE13.jpg,AFSA18.jpg,AFSA03.jpg,AFNE10.jpg,AFNE10.jpg,FN,3,num_4,32,num_8,1.16674872243,,,2017_Apr_26_1521,59.9967863549,FEMA4ImagesEEG,001,200216,
AFNE01.JPG,AFNE01.JPG,AFNE01.JPG,AFNE01.JPG,AFNE01.JPG,AFNE01.JPG,5,4,54,5,,,,,,,,,,,,,,,,,,,,,,,AFSA14.jpg,AFNE14.jpg,AFNE18.jpg,AFSA08.jpg,AFSA08.jpg,FS,4,num_4,32,num_8,1.76674570749,,,2017_Apr_26_1521,59.9967863549,FEMA4ImagesEEG,001,200216,
AFNE01.JPG,AFNE01.JPG,AFNE01.JPG,AFNE01.JPG,AFNE01.JPG,AFNE01.JPG,5,5,55,8,,,,,,,,,,,,,,,,,,,,,,,AFSA01.jpg,AFNE03.jpg,AFSA09.jpg,AFNE11.jpg,AFNE03.jpg,FN,3,num_6,32,num_2,1.01676567353,,,2017_Apr_26_1521,59.9967863549,FEMA4ImagesEEG,001,200216,
AFNE01.JPG,AFNE01.JPG,AFNE01.JPG,AFNE01.JPG,AFNE01.JPG,AFNE01.JPG,5,6,56,1,,,,,,,,,,,,,,,,,,,,,,,AFSA19.jpg,AFNE14.jpg,AFSA17.jpg,AFNE03.jpg,AFSA19.jpg,FS,4,num_8,16,num_8,0.500132304966,,,2017_Apr_26_1521,59.9967863549,FEMA4ImagesEEG,001,200216,
AFNE01.JPG,AFNE01.JPG,AFNE01.JPG,AFNE01.JPG,AFNE01.JPG,AFNE01.JPG,5,7,57,9,,,,,,,,,,,,,,,,,,,,,,,AFSA18.jpg,AFNE08.jpg,AFNE17.jpg,AFSA15.jpg,AFSA18.jpg,FS,4,num_8,32,num_6,0.316819653846,,,2017_Apr_26_1521,59.9967863549,FEMA4ImagesEEG,001,200216,
AFNE01.JPG,AFNE01.JPG,AFNE01.JPG,AFNE01.JPG,AFNE01.JPG,AFNE01.JPG,5,8,58,2,,,,,,,,,,,,,,,,,,,,,,,AFNE19.jpg,AFSA16.jpg,AFNE03.jpg,AFSA01.jpg,AFSA01.jpg,FS,4,num_4,32,num_2,1.53337466589,,,2017_Apr_26_1521,59.9967863549,FEMA4ImagesEEG,001,200216,
AFNE01.JPG,AFNE01.JPG,AFNE01.JPG,AFNE01.JPG,AFNE01.JPG,AFNE01.JPG,5,9,59,0,,,,,,,,,,,,,,,,,,,,,,,AFSA04.jpg,AFNE19.jpg,AFSA09.jpg,AFNE06.jpg,AFNE19.jpg,FN,3,num_6,32,num_8,0.800086535397,,,2017_Apr_26_1521,59.9967863549,FEMA4ImagesEEG,001,200216,
,,,,,,,,,,,,,,,,,,,,,,,,,,,,,,,,,,,,,,,,,,,space,23.2313725164,2017_Apr_26_1521,59.9967863549,FEMA4ImagesEEG,001,200216,
AFNE01.JPG,AFNE01.JPG,AFNE01.JPG,AFNE01.JPG,AFNE01.JPG,AFNE01.JPG,,,,,0,0,0,4,,,,,,,,,,,,,,,,,,,AMSA19.jpg,AMNE16.jpg,AMSA10.jpg,AMNE04.jpg,AMSA10.jpg,MS,2,num_2,32,num_6,0.916906766593,,,2017_Apr_26_1521,59.9967863549,FEMA4ImagesEEG,001,200216,
AFNE01.JPG,AFNE01.JPG,AFNE01.JPG,AFNE01.JPG,AFNE01.JPG,AFNE01.JPG,,,,,0,1,1,1,,,,,,,,,,,,,,,,,,,AMSA06.jpg,AMNE14.jpg,AMNE01.jpg,AMSA07.jpg,AMNE01.jpg,MN,1,num_2,16,num_2,1.00036211452,,,2017_Apr_26_1521,59.9967863549,FEMA4ImagesEEG,001,200216,
AFNE01.JPG,AFNE01.JPG,AFNE01.JPG,AFNE01.JPG,AFNE01.JPG,AFNE01.JPG,,,,,0,2,2,5,,,,,,,,,,,,,,,,,,,AMNE09.jpg,AMSA09.jpg,AMNE14.jpg,AMSA07.jpg,AMNE09.jpg,MN,1,num_8,32,num_6,0.899815863697,,,2017_Apr_26_1521,59.9967863549,FEMA4ImagesEEG,001,200216,
AFNE01.JPG,AFNE01.JPG,AFNE01.JPG,AFNE01.JPG,AFNE01.JPG,AFNE01.JPG,,,,,0,3,3,7,,,,,,,,,,,,,,,,,,,AMNE01.jpg,AMSA04.jpg,AMNE19.jpg,AMSA02.jpg,AMSA04.jpg,MS,2,num_6,16,num_6,0.650140692247,,,2017_Apr_26_1521,59.9967863549,FEMA4ImagesEEG,001,200216,
AFNE01.JPG,AFNE01.JPG,AFNE01.JPG,AFNE01.JPG,AFNE01.JPG,AFNE01.JPG,,,,,0,4,4,0,,,,,,,,,,,,,,,,,,,AMNE14.jpg,AMSA14.jpg,AMSA08.jpg,AMNE13.jpg,AMSA08.jpg,MS,2,num_2,16,num_2,1.28357055725,,,2017_Apr_26_1521,59.9967863549,FEMA4ImagesEEG,001,200216,
AFNE01.JPG,AFNE01.JPG,AFNE01.JPG,AFNE01.JPG,AFNE01.JPG,AFNE01.JPG,,,,,0,5,5,9,,,,,,,,,,,,,,,,,,,AMSA17.jpg,AMNE12.jpg,AMSA20.jpg,AMNE19.jpg,AMNE12.jpg,MN,1,num_6,32,num_2,1.1001376292,,,2017_Apr_26_1521,59.9967863549,FEMA4ImagesEEG,001,200216,
AFNE01.JPG,AFNE01.JPG,AFNE01.JPG,AFNE01.JPG,AFNE01.JPG,AFNE01.JPG,,,,,0,6,6,3,,,,,,,,,,,,,,,,,,,AMSA18.jpg,AMNE19.jpg,AMNE06.jpg,AMSA08.jpg,AMNE06.jpg,MN,1,num_2,32,num_6,0.533481151331,,,2017_Apr_26_1521,59.9967863549,FEMA4ImagesEEG,001,200216,
AFNE01.JPG,AFNE01.JPG,AFNE01.JPG,AFNE01.JPG,AFNE01.JPG,AFNE01.JPG,,,,,0,7,7,2,,,,,,,,,,,,,,,,,,,AMSA20.jpg,AMNE19.jpg,AMNE16.jpg,AMSA18.jpg,AMNE16.jpg,MN,1,num_2,16,num_2,1.50006398745,,,2017_Apr_26_1521,59.9967863549,FEMA4ImagesEEG,001,200216,
AFNE01.JPG,AFNE01.JPG,AFNE01.JPG,AFNE01.JPG,AFNE01.JPG,AFNE01.JPG,,,,,0,8,8,8,,,,,,,,,,,,,,,,,,,AMNE03.jpg,AMSA09.jpg,AMNE02.jpg,AMSA10.jpg,AMSA10.jpg,MS,2,num_4,32,num_6,0.766744424473,,,2017_Apr_26_1521,59.9967863549,FEMA4ImagesEEG,001,200216,
AFNE01.JPG,AFNE01.JPG,AFNE01.JPG,AFNE01.JPG,AFNE01.JPG,AFNE01.JPG,,,,,0,9,9,6,,,,,,,,,,,,,,,,,,,AMNE12.jpg,AMSA12.jpg,AMNE16.jpg,AMSA08.jpg,AMSA08.jpg,MS,2,num_4,16,num_4,0.749802023754,,,2017_Apr_26_1521,59.9967863549,FEMA4ImagesEEG,001,200216,
AFNE01.JPG,AFNE01.JPG,AFNE01.JPG,AFNE01.JPG,AFNE01.JPG,AFNE01.JPG,,,,,1,0,10,6,,,,,,,,,,,,,,,,,,,AMNE09.jpg,AMSA10.jpg,AMNE13.jpg,AMSA07.jpg,AMNE13.jpg,MN,1,num_2,32,num_8,1.38341310644,,,2017_Apr_26_1521,59.9967863549,FEMA4ImagesEEG,001,200216,
AFNE01.JPG,AFNE01.JPG,AFNE01.JPG,AFNE01.JPG,AFNE01.JPG,AFNE01.JPG,,,,,1,1,11,1,,,,,,,,,,,,,,,,,,,AMSA20.jpg,AMNE02.jpg,AMNE18.jpg,AMSA12.jpg,AMNE02.jpg,MN,1,num_6,16,num_6,0.916778150247,,,2017_Apr_26_1521,59.9967863549,FEMA4ImagesEEG,001,200216,
AFNE01.JPG,AFNE01.JPG,AFNE01.JPG,AFNE01.JPG,AFNE01.JPG,AFNE01.JPG,,,,,1,2,12,8,,,,,,,,,,,,,,,,,,,AMSA04.jpg,AMNE12.jpg,AMSA09.jpg,AMNE16.jpg,AMNE12.jpg,MN,1,num_6,32,num_4,0.916731963865,,,2017_Apr_26_1521,59.9967863549,FEMA4ImagesEEG,001,200216,
AFNE01.JPG,AFNE01.JPG,AFNE01.JPG,AFNE01.JPG,AFNE01.JPG,AFNE01.JPG,,,,,1,3,13,2,,,,,,,,,,,,,,,,,,,AMSA13.jpg,AMSA19.jpg,AMNE16.jpg,AMNE14.jpg,AMNE16.jpg,MN,1,num_2,32,num_8,0.866784869693,,,2017_Apr_26_1521,59.9967863549,FEMA4ImagesEEG,001,200216,
AFNE01.JPG,AFNE01.JPG,AFNE01.JPG,AFNE01.JPG,AFNE01.JPG,AFNE01.JPG,,,,,1,4,14,5,,,,,,,,,,,,,,,,,,,AMSA17.jpg,AMSA06.jpg,AMNE15.jpg,AMNE05.jpg,AMSA17.jpg,MS,2,num_8,32,num_6,0.866790963802,,,2017_Apr_26_1521,59.9967863549,FEMA4ImagesEEG,001,200216,
AFNE01.JPG,AFNE01.JPG,AFNE01.JPG,AFNE01.JPG,AFNE01.JPG,AFNE01.JPG,,,,,1,5,15,9,,,,,,,,,,,,,,,,,,,AMSA11.jpg,AMSA01.jpg,AMNE13.jpg,AMNE12.jpg,AMNE12.jpg,MN,1,num_4,16,num_4,0.6835174429,,,2017_Apr_26_1521,59.9967863549,FEMA4ImagesEEG,001,200216,
AFNE01.JPG,AFNE01.JPG,AFNE01.JPG,AFNE01.JPG,AFNE01.JPG,AFNE01.JPG,,,,,1,6,16,4,,,,,,,,,,,,,,,,,,,AMNE20.jpg,AMSA07.jpg,AMNE10.jpg,AMSA17.jpg,AMSA07.jpg,MS,2,num_6,16,num_6,0.600225992734,,,2017_Apr_26_1521,59.9967863549,FEMA4ImagesEEG,001,200216,
AFNE01.JPG,AFNE01.JPG,AFNE01.JPG,AFNE01.JPG,AFNE01.JPG,AFNE01.JPG,,,,,1,7,17,0,,,,,,,,,,,,,,,,,,,AMNE18.jpg,AMNE17.jpg,AMSA02.jpg,AMSA16.jpg,AMNE18.jpg,MN,1,num_8,32,num_6,1.25011105591,,,2017_Apr_26_1521,59.9967863549,FEMA4ImagesEEG,001,200216,
AFNE01.JPG,AFNE01.JPG,AFNE01.JPG,AFNE01.JPG,AFNE01.JPG,AFNE01.JPG,,,,,1,8,18,3,,,,,,,,,,,,,,,,,,,AMSA17.jpg,AMNE01.jpg,AMNE02.jpg,AMSA06.jpg,AMNE02.jpg,MN,1,num_2,16,num_2,0.966805749922,,,2017_Apr_26_1521,59.9967863549,FEMA4ImagesEEG,001,200216,
AFNE01.JPG,AFNE01.JPG,AFNE01.JPG,AFNE01.JPG,AFNE01.JPG,AFNE01.JPG,,,,,1,9,19,7,,,,,,,,,,,,,,,,,,,AMNE08.jpg,AMSA14.jpg,AMNE11.jpg,AMSA09.jpg,AMNE08.jpg,MN,1,num_8,16,num_8,0.833422873053,,,2017_Apr_26_1521,59.9967863549,FEMA4ImagesEEG,001,200216,
AFNE01.JPG,AFNE01.JPG,AFNE01.JPG,AFNE01.JPG,AFNE01.JPG,AFNE01.JPG,,,,,2,0,20,3,,,,,,,,,,,,,,,,,,,AMSA10.jpg,AMSA18.jpg,AMNE13.jpg,AMNE02.jpg,AMSA10.jpg,MS,2,num_8,32,num_2,1.30005782924,,,2017_Apr_26_1521,59.9967863549,FEMA4ImagesEEG,001,200216,
AFNE01.JPG,AFNE01.JPG,AFNE01.JPG,AFNE01.JPG,AFNE01.JPG,AFNE01.JPG,,,,,2,1,21,5,,,,,,,,,,,,,,,,,,,AMNE19.jpg,AMNE11.jpg,AMSA20.jpg,AMSA02.jpg,AMNE11.jpg,MN,1,num_6,16,num_6,1.13347877783,,,2017_Apr_26_1521,59.9967863549,FEMA4ImagesEEG,001,200216,
AFNE01.JPG,AFNE01.JPG,AFNE01.JPG,AFNE01.JPG,AFNE01.JPG,AFNE01.JPG,,,,,2,2,22,8,,,,,,,,,,,,,,,,,,,AMNE18.jpg,AMSA11.jpg,AMSA09.jpg,AMNE07.jpg,AMNE18.jpg,MN,1,num_8,32,num_4,1.15010749572,,,2017_Apr_26_1521,59.9967863549,FEMA4ImagesEEG,001,200216,
AFNE01.JPG,AFNE01.JPG,AFNE01.JPG,AFNE01.JPG,AFNE01.JPG,AFNE01.JPG,,,,,2,3,23,7,,,,,,,,,,,,,,,,,,,AMNE19.jpg,AMSA16.jpg,AMNE12.jpg,AMSA14.jpg,AMSA14.jpg,MS,2,num_4,16,num_4,0.733527401811,,,2017_Apr_26_1521,59.9967863549,FEMA4ImagesEEG,001,200216,
AFNE01.JPG,AFNE01.JPG,AFNE01.JPG,AFNE01.JPG,AFNE01.JPG,AFNE01.JPG,,,,,2,4,24,1,,,,,,,,,,,,,,,,,,,AMSA04.jpg,AMSA18.jpg,AMNE16.jpg,AMNE13.jpg,AMSA04.jpg,MS,2,num_8,16,num_8,0.999959586887,,,2017_Apr_26_1521,59.9967863549,FEMA4ImagesEEG,001,200216,
AFNE01.JPG,AFNE01.JPG,AFNE01.JPG,AFNE01.JPG,AFNE01.JPG,AFNE01.JPG,,,,,2,5,25,0,,,,,,,,,,,,,,,,,,,AMNE08.jpg,AMSA10.jpg,AMNE10.jpg,AMSA02.jpg,AMSA02.jpg,MS,2,num_4,16,num_4,0.616848295904,,,2017_Apr_26_1521,59.9967863549,FEMA4ImagesEEG,001,200216,
AFNE01.JPG,AFNE01.JPG,AFNE01.JPG,AFNE01.JPG,AFNE01.JPG,AFNE01.JPG,,,,,2,6,26,9,,,,,,,,,,,,,,,,,,,AMSA07.jpg,AMSA12.jpg,AMNE12.jpg,AMNE06.jpg,AMSA12.jpg,MS,2,num_6,32,num_2,0.333477879758,,,2017_Apr_26_1521,59.9967863549,FEMA4ImagesEEG,001,200216,
AFNE01.JPG,AFNE01.JPG,AFNE01.JPG,AFNE01.JPG,AFNE01.JPG,AFNE01.JPG,,,,,2,7,27,4,,,,,,,,,,,,,,,,,,,AMNE18.jpg,AMSA06.jpg,AMSA10.jpg,AMNE03.jpg,AMSA10.jpg,MS,2,num_2,32,num_8,1.00013663492,,,2017_Apr_26_1521,59.9967863549,FEMA4ImagesEEG,001,200216,
AFNE01.JPG,AFNE01.JPG,AFNE01.JPG,AFNE01.JPG,AFNE01.JPG,AFNE01.JPG,,,,,2,8,28,2,,,,,,,,,,,,,,,,,,,AMSA09.jpg,AMSA13.jpg,AMNE05.jpg,AMNE03.jpg,AMSA13.jpg,MS,2,num_6,32,num_8,0.533481151331,,,2017_Apr_26_1521,59.9967863549,FEMA4ImagesEEG,001,200216,
AFNE01.JPG,AFNE01.JPG,AFNE01.JPG,AFNE01.JPG,AFNE01.JPG,AFNE01.JPG,,,,,2,9,29,6,,,,,,,,,,,,,,,,,,,AMNE07.jpg,AMSA04.jpg,AMNE11.jpg,AMSA13.jpg,AMSA04.jpg,MS,2,num_6,16,num_6,0.700141991256,,,2017_Apr_26_1521,59.9967863549,FEMA4ImagesEEG,001,200216,
AFNE01.JPG,AFNE01.JPG,AFNE01.JPG,AFNE01.JPG,AFNE01.JPG,AFNE01.JPG,,,,,3,0,30,3,,,,,,,,,,,,,,,,,,,AMNE10.jpg,AMNE07.jpg,AMSA06.jpg,AMSA16.jpg,AMSA06.jpg,MS,2,num_2,32,num_6,1.26660378044,,,2017_Apr_26_1521,59.9967863549,FEMA4ImagesEEG,001,200216,
AFNE01.JPG,AFNE01.JPG,AFNE01.JPG,AFNE01.JPG,AFNE01.JPG,AFNE01.JPG,,,,,3,1,31,7,,,,,,,,,,,,,,,,,,,AMNE01.jpg,AMNE12.jpg,AMSA17.jpg,AMSA10.jpg,AMNE01.jpg,MN,1,num_8,16,num_8,1.66668345197,,,2017_Apr_26_1521,59.9967863549,FEMA4ImagesEEG,001,200216,
AFNE01.JPG,AFNE01.JPG,AFNE01.JPG,AFNE01.JPG,AFNE01.JPG,AFNE01.JPG,,,,,3,2,32,4,,,,,,,,,,,,,,,,,,,AMNE08.jpg,AMNE02.jpg,AMSA13.jpg,AMSA08.jpg,AMNE02.jpg,MN,1,num_6,32,num_4,0.866788077052,,,2017_Apr_26_1521,59.9967863549,FEMA4ImagesEEG,001,200216,
AFNE01.JPG,AFNE01.JPG,AFNE01.JPG,AFNE01.JPG,AFNE01.JPG,AFNE01.JPG,,,,,3,3,33,1,,,,,,,,,,,,,,,,,,,AMSA01.jpg,AMNE20.jpg,AMNE13.jpg,AMSA10.jpg,AMSA10.jpg,MS,2,num_4,32,num_2,1.28342173435,,,2017_Apr_26_1521,59.9967863549,FEMA4ImagesEEG,001,200216,
AFNE01.JPG,AFNE01.JPG,AFNE01.JPG,AFNE01.JPG,AFNE01.JPG,AFNE01.JPG,,,,,3,4,34,2,,,,,,,,,,,,,,,,,,,AMNE13.jpg,AMSA15.jpg,AMSA13.jpg,AMNE04.jpg,AMNE04.jpg,MN,1,num_4,16,num_4,0.700111841667,,,2017_Apr_26_1521,59.9967863549,FEMA4ImagesEEG,001,200216,
AFNE01.JPG,AFNE01.JPG,AFNE01.JPG,AFNE01.JPG,AFNE01.JPG,AFNE01.JPG,,,,,3,5,35,5,,,,,,,,,,,,,,,,,,,AMNE20.jpg,AMSA08.jpg,AMNE06.jpg,AMSA04.jpg,AMSA04.jpg,MS,2,num_4,16,num_4,1.33347755903,,,2017_Apr_26_1521,59.9967863549,FEMA4ImagesEEG,001,200216,
AFNE01.JPG,AFNE01.JPG,AFNE01.JPG,AFNE01.JPG,AFNE01.JPG,AFNE01.JPG,,,,,3,6,36,9,,,,,,,,,,,,,,,,,,,AMSA02.jpg,AMNE17.jpg,AMSA12.jpg,AMNE11.jpg,AMSA02.jpg,MS,2,num_8,32,num_6,0.816798966262,,,2017_Apr_26_1521,59.9967863549,FEMA4ImagesEEG,001,200216,
AFNE01.JPG,AFNE01.JPG,AFNE01.JPG,AFNE01.JPG,AFNE01.JPG,AFNE01.JPG,,,,,3,7,37,6,,,,,,,,,,,,,,,,,,,AMNE01.jpg,AMNE07.jpg,AMSA18.jpg,AMSA12.jpg,AMSA18.jpg,MS,2,num_2,16,num_2,1.61672064161,,,2017_Apr_26_1521,59.9967863549,FEMA4ImagesEEG,001,200216,
AFNE01.JPG,AFNE01.JPG,AFNE01.JPG,AFNE01.JPG,AFNE01.JPG,AFNE01.JPG,,,,,3,8,38,0,,,,,,,,,,,,,,,,,,,AMNE01.jpg,AMNE06.jpg,AMSA01.jpg,AMSA16.jpg,AMSA01.jpg,MS,2,num_2,16,num_2,1.66666901868,,,2017_Apr_26_1521,59.9967863549,FEMA4ImagesEEG,001,200216,
AFNE01.JPG,AFNE01.JPG,AFNE01.JPG,AFNE01.JPG,AFNE01.JPG,AFNE01.JPG,,,,,3,9,39,8,,,,,,,,,,,,,,,,,,,AMSA19.jpg,AMNE18.jpg,AMSA12.jpg,AMNE14.jpg,AMSA19.jpg,MS,2,num_8,16,num_8,1.2667192464,,,2017_Apr_26_1521,59.9967863549,FEMA4ImagesEEG,001,200216,
AFNE01.JPG,AFNE01.JPG,AFNE01.JPG,AFNE01.JPG,AFNE01.JPG,AFNE01.JPG,,,,,4,0,40,1,,,,,,,,,,,,,,,,,,,AMSA14.jpg,AMNE10.jpg,AMSA07.jpg,AMNE05.jpg,AMNE10.jpg,MN,1,num_6,16,num_6,2.05001541146,,,2017_Apr_26_1521,59.9967863549,FEMA4ImagesEEG,001,200216,
AFNE01.JPG,AFNE01.JPG,AFNE01.JPG,AFNE01.JPG,AFNE01.JPG,AFNE01.JPG,,,,,4,1,41,3,,,,,,,,,,,,,,,,,,,AMNE08.jpg,AMSA16.jpg,AMNE14.jpg,AMSA10.jpg,AMNE14.jpg,MN,1,num_2,16,num_2,0.633459693752,,,2017_Apr_26_1521,59.9967863549,FEMA4ImagesEEG,001,200216,
AFNE01.JPG,AFNE01.JPG,AFNE01.JPG,AFNE01.JPG,AFNE01.JPG,AFNE01.JPG,,,,,4,2,42,9,,,,,,,,,,,,,,,,,,,AMNE17.jpg,AMSA05.jpg,AMNE05.jpg,AMSA10.jpg,AMNE05.jpg,MN,1,num_2,16,num_2,1.21630868444,,,2017_Apr_26_1521,59.9967863549,FEMA4ImagesEEG,001,200216,
AFNE01.JPG,AFNE01.JPG,AFNE01.JPG,AFNE01.JPG,AFNE01.JPG,AFNE01.JPG,,,,,4,3,43,8,,,,,,,,,,,,,,,,,,,AMSA07.jpg,AMSA13.jpg,AMNE14.jpg,AMNE08.jpg,AMNE14.jpg,MN,1,num_2,16,num_2,0.800134004792,,,2017_Apr_26_1521,59.9967863549,FEMA4ImagesEEG,001,200216,
AFNE01.JPG,AFNE01.JPG,AFNE01.JPG,AFNE01.JPG,AFNE01.JPG,AFNE01.JPG,,,,,4,4,44,6,,,,,,,,,,,,,,,,,,,AMSA01.jpg,AMSA18.jpg,AMNE11.jpg,AMNE10.jpg,AMSA01.jpg,MS,2,num_8,32,num_2,1.31673978979,,,2017_Apr_26_1521,59.9967863549,FEMA4ImagesEEG,001,200216,
AFNE01.JPG,AFNE01.JPG,AFNE01.JPG,AFNE01.JPG,AFNE01.JPG,AFNE01.JPG,,,,,4,5,45,2,,,,,,,,,,,,,,,,,,,AMNE17.jpg,AMSA18.jpg,AMSA02.jpg,AMNE13.jpg,AMNE17.jpg,MN,1,num_8,16,num_8,0.733692582464,,,2017_Apr_26_1521,59.9967863549,FEMA4ImagesEEG,001,200216,
AFNE01.JPG,AFNE01.JPG,AFNE01.JPG,AFNE01.JPG,AFNE01.JPG,AFNE01.JPG,,,,,4,6,46,7,,,,,,,,,,,,,,,,,,,AMSA19.jpg,AMNE04.jpg,AMSA17.jpg,AMNE07.jpg,AMSA17.jpg,MS,2,num_2,32,num_4,0.583483412513,,,2017_Apr_26_1521,59.9967863549,FEMA4ImagesEEG,001,200216,
AFNE01.JPG,AFNE01.JPG,AFNE01.JPG,AFNE01.JPG,AFNE01.JPG,AFNE01.JPG,,,,,4,7,47,0,,,,,,,,,,,,,,,,,,,AMNE16.jpg,AMSA20.jpg,AMNE11.jpg,AMSA11.jpg,AMSA11.jpg,MS,2,num_4,32,num_2,1.38338840951,,,2017_Apr_26_1521,59.9967863549,FEMA4ImagesEEG,001,200216,
AFNE01.JPG,AFNE01.JPG,AFNE01.JPG,AFNE01.JPG,AFNE01.JPG,AFNE01.JPG,,,,,4,8,48,4,,,,,,,,,,,,,,,,,,,AMSA12.jpg,AMNE01.jpg,AMSA08.jpg,AMNE04.jpg,AMNE01.jpg,MN,1,num_6,32,num_2,1.01655655156,,,2017_Apr_26_1521,59.9967863549,FEMA4ImagesEEG,001,200216,
AFNE01.JPG,AFNE01.JPG,AFNE01.JPG,AFNE01.JPG,AFNE01.JPG,AFNE01.JPG,,,,,4,9,49,5,,,,,,,,,,,,,,,,,,,AMNE16.jpg,AMNE15.jpg,AMSA12.jpg,AMSA17.jpg,AMNE15.jpg,MN,1,num_6,16,num_6,0.683349375613,,,2017_Apr_26_1521,59.9967863549,FEMA4ImagesEEG,001,200216,
AFNE01.JPG,AFNE01.JPG,AFNE01.JPG,AFNE01.JPG,AFNE01.JPG,AFNE01.JPG,,,,,5,0,50,4,,,,,,,,,,,,,,,,,,,AMSA17.jpg,AMNE20.jpg,AMNE05.jpg,AMSA11.jpg,AMSA11.jpg,MS,2,num_4,16,num_4,0.766730953474,,,2017_Apr_26_1521,59.9967863549,FEMA4ImagesEEG,001,200216,
AFNE01.JPG,AFNE01.JPG,AFNE01.JPG,AFNE01.JPG,AFNE01.JPG,AFNE01.JPG,,,,,5,1,51,2,,,,,,,,,,,,,,,,,,,AMNE14.jpg,AMSA18.jpg,AMSA05.jpg,AMNE16.jpg,AMSA05.jpg,MS,2,num_2,16,num_2,1.3667410888,,,2017_Apr_26_1521,59.9967863549,FEMA4ImagesEEG,001,200216,
AFNE01.JPG,AFNE01.JPG,AFNE01.JPG,AFNE01.JPG,AFNE01.JPG,AFNE01.JPG,,,,,5,2,52,5,,,,,,,,,,,,,,,,,,,AMSA02.jpg,AMNE01.jpg,AMSA04.jpg,AMNE04.jpg,AMNE01.jpg,MN,1,num_6,16,num_6,0.516867508064,,,2017_Apr_26_1521,59.9967863549,FEMA4ImagesEEG,001,200216,
AFNE01.JPG,AFNE01.JPG,AFNE01.JPG,AFNE01.JPG,AFNE01.JPG,AFNE01.JPG,,,,,5,3,53,8,,,,,,,,,,,,,,,,,,,AMSA03.jpg,AMNE15.jpg,AMNE18.jpg,AMSA07.jpg,AMSA07.jpg,MS,2,num_4,16,num_4,0.683513914817,,,2017_Apr_26_1521,59.9967863549,FEMA4ImagesEEG,001,200216,
AFNE01.JPG,AFNE01.JPG,AFNE01.JPG,AFNE01.JPG,AFNE01.JPG,AFNE01.JPG,,,,,5,4,54,1,,,,,,,,,,,,,,,,,,,AMNE16.jpg,AMSA15.jpg,AMNE17.jpg,AMSA10.jpg,AMSA10.jpg,MS,2,num_4,16,num_4,0.883572032675,,,2017_Apr_26_1521,59.9967863549,FEMA4ImagesEEG,001,200216,
AFNE01.JPG,AFNE01.JPG,AFNE01.JPG,AFNE01.JPG,AFNE01.JPG,AFNE01.JPG,,,,,5,5,55,6,,,,,,,,,,,,,,,,,,,AMNE16.jpg,AMNE01.jpg,AMSA04.jpg,AMSA19.jpg,AMNE16.jpg,MN,1,num_8,16,num_8,0.716800217051,,,2017_Apr_26_1521,59.9967863549,FEMA4ImagesEEG,001,200216,
AFNE01.JPG,AFNE01.JPG,AFNE01.JPG,AFNE01.JPG,AFNE01.JPG,AFNE01.JPG,,,,,5,6,56,7,,,,,,,,,,,,,,,,,,,AMNE07.jpg,AMSA04.jpg,AMSA20.jpg,AMNE12.jpg,AMSA20.jpg,MS,2,num_2,16,num_2,1.73340231355,,,2017_Apr_26_1521,59.9967863549,FEMA4ImagesEEG,001,200216,
AFNE01.JPG,AFNE01.JPG,AFNE01.JPG,AFNE01.JPG,AFNE01.JPG,AFNE01.JPG,,,,,5,7,57,9,,,,,,,,,,,,,,,,,,,AMNE16.jpg,AMSA05.jpg,AMNE01.jpg,AMSA20.jpg,AMSA05.jpg,MS,2,num_6,16,num_6,0.716608415125,,,2017_Apr_26_1521,59.9967863549,FEMA4ImagesEEG,001,200216,
AFNE01.JPG,AFNE01.JPG,AFNE01.JPG,AFNE01.JPG,AFNE01.JPG,AFNE01.JPG,,,,,5,8,58,3,,,,,,,,,,,,,,,,,,,AMNE13.jpg,AMNE11.jpg,AMSA02.jpg,AMSA12.jpg,AMNE13.jpg,MN,1,num_8,16,num_8,1.03342389944,,,2017_Apr_26_1521,59.9967863549,FEMA4ImagesEEG,001,200216,
AFNE01.JPG,AFNE01.JPG,AFNE01.JPG,AFNE01.JPG,AFNE01.JPG,AFNE01.JPG,,,,,5,9,59,0,,,,,,,,,,,,,,,,,,,AMSA08.jpg,AMNE20.jpg,AMNE17.jpg,AMSA12.jpg,AMNE17.jpg,MN,1,num_2,32,num_6,0.583545956644,,,2017_Apr_26_1521,59.9967863549,FEMA4ImagesEEG,001,200216,
,,,,,,,,,,,,,,,,,,,,,,,,,,,,,,,,,,,,,,,,,,,space,40.1969389303,2017_Apr_26_1521,59.9967863549,FEMA4ImagesEEG,001,200216,
AFNE01.JPG,AFNE01.JPG,AFNE01.JPG,AFNE01.JPG,AFNE01.JPG,AFNE01.JPG,,,,,,,,,0,0,0,4,,,,,,,,,,,,,,,AFSA19.jpg,AFSA10.jpg,AFNE14.jpg,AFNE08.jpg,AFSA10.jpg,FS,4,num_6,16,num_6,1.18342138152,,,2017_Apr_26_1521,59.9967863549,FEMA4ImagesEEG,001,200216,
AFNE01.JPG,AFNE01.JPG,AFNE01.JPG,AFNE01.JPG,AFNE01.JPG,AFNE01.JPG,,,,,,,,,0,1,1,7,,,,,,,,,,,,,,,AFNE19.jpg,AFNE13.jpg,AFSA05.jpg,AFSA14.jpg,AFSA14.jpg,FS,4,num_4,32,num_6,0.716765577206,,,2017_Apr_26_1521,59.9967863549,FEMA4ImagesEEG,001,200216,
AFNE01.JPG,AFNE01.JPG,AFNE01.JPG,AFNE01.JPG,AFNE01.JPG,AFNE01.JPG,,,,,,,,,0,2,2,1,,,,,,,,,,,,,,,AFSA18.jpg,AFNE01.jpg,AFSA15.jpg,AFNE12.jpg,AFSA18.jpg,FS,4,num_8,16,num_8,0.666825218592,,,2017_Apr_26_1521,59.9967863549,FEMA4ImagesEEG,001,200216,
AFNE01.JPG,AFNE01.JPG,AFNE01.JPG,AFNE01.JPG,AFNE01.JPG,AFNE01.JPG,,,,,,,,,0,3,3,0,,,,,,,,,,,,,,,AFSA09.jpg,AFNE13.jpg,AFSA17.jpg,AFNE11.jpg,AFNE13.jpg,FN,3,num_6,16,num_6,0.816724554752,,,2017_Apr_26_1521,59.9967863549,FEMA4ImagesEEG,001,200216,
AFNE01.JPG,AFNE01.JPG,AFNE01.JPG,AFNE01.JPG,AFNE01.JPG,AFNE01.JPG,,,,,,,,,0,4,4,5,,,,,,,,,,,,,,,AFSA16.jpg,AFNE09.jpg,AFSA08.jpg,AFNE05.jpg,AFSA08.jpg,FS,4,num_2,32,num_4,0.666838368983,,,2017_Apr_26_1521,59.9967863549,FEMA4ImagesEEG,001,200216,
AFNE01.JPG,AFNE01.JPG,AFNE01.JPG,AFNE01.JPG,AFNE01.JPG,AFNE01.JPG,,,,,,,,,0,5,5,9,,,,,,,,,,,,,,,AFSA15.jpg,AFSA02.jpg,AFNE20.jpg,AFNE19.jpg,AFSA15.jpg,FS,4,num_8,16,num_8,0.783434403595,,,2017_Apr_26_1521,59.9967863549,FEMA4ImagesEEG,001,200216,
AFNE01.JPG,AFNE01.JPG,AFNE01.JPG,AFNE01.JPG,AFNE01.JPG,AFNE01.JPG,,,,,,,,,0,6,6,6,,,,,,,,,,,,,,,AFSA17.jpg,AFSA01.jpg,AFNE07.jpg,AFNE19.jpg,AFSA17.jpg,FS,4,num_8,32,num_6,1.0834819692,,,2017_Apr_26_1521,59.9967863549,FEMA4ImagesEEG,001,200216,
AFNE01.JPG,AFNE01.JPG,AFNE01.JPG,AFNE01.JPG,AFNE01.JPG,AFNE01.JPG,,,,,,,,,0,7,7,2,,,,,,,,,,,,,,,AFSA10.jpg,AFNE03.jpg,AFNE10.jpg,AFSA06.jpg,AFSA10.jpg,FS,4,num_8,16,num_8,0.933454016806,,,2017_Apr_26_1521,59.9967863549,FEMA4ImagesEEG,001,200216,
AFNE01.JPG,AFNE01.JPG,AFNE01.JPG,AFNE01.JPG,AFNE01.JPG,AFNE01.JPG,,,,,,,,,0,8,8,8,,,,,,,,,,,,,,,AFNE02.jpg,AFSA01.jpg,AFNE16.jpg,AFSA06.jpg,AFNE02.jpg,FN,3,num_8,32,num_4,0.650099316845,,,2017_Apr_26_1521,59.9967863549,FEMA4ImagesEEG,001,200216,
AFNE01.JPG,AFNE01.JPG,AFNE01.JPG,AFNE01.JPG,AFNE01.JPG,AFNE01.JPG,,,,,,,,,0,9,9,3,,,,,,,,,,,,,,,AFSA03.jpg,AFNE16.jpg,AFSA07.jpg,AFNE11.jpg,AFNE11.jpg,FN,3,num_4,16,num_4,0.91682722338,,,2017_Apr_26_1521,59.9967863549,FEMA4ImagesEEG,001,200216,
AFNE01.JPG,AFNE01.JPG,AFNE01.JPG,AFNE01.JPG,AFNE01.JPG,AFNE01.JPG,,,,,,,,,1,0,10,6,,,,,,,,,,,,,,,AFNE15.jpg,AFSA19.jpg,AFSA09.jpg,AFNE04.jpg,AFNE15.jpg,FN,3,num_8,16,num_8,0.583475394058,,,2017_Apr_26_1521,59.9967863549,FEMA4ImagesEEG,001,200216,
AFNE01.JPG,AFNE01.JPG,AFNE01.JPG,AFNE01.JPG,AFNE01.JPG,AFNE01.JPG,,,,,,,,,1,1,11,8,,,,,,,,,,,,,,,AFNE02.jpg,AFSA16.jpg,AFNE20.jpg,AFSA06.jpg,AFNE20.jpg,FN,3,num_2,16,num_2,1.18340406171,,,2017_Apr_26_1521,59.9967863549,FEMA4ImagesEEG,001,200216,
AFNE01.JPG,AFNE01.JPG,AFNE01.JPG,AFNE01.JPG,AFNE01.JPG,AFNE01.JPG,,,,,,,,,1,2,12,3,,,,,,,,,,,,,,,AFNE07.jpg,AFSA16.jpg,AFNE10.jpg,AFSA01.jpg,AFSA16.jpg,FS,4,num_6,32,num_8,0.416850797599,,,2017_Apr_26_1521,59.9967863549,FEMA4ImagesEEG,001,200216,
AFNE01.JPG,AFNE01.JPG,AFNE01.JPG,AFNE01.JPG,AFNE01.JPG,AFNE01.JPG,,,,,,,,,1,3,13,0,,,,,,,,,,,,,,,AFSA15.jpg,AFNE03.jpg,AFSA19.jpg,AFNE17.jpg,AFNE17.jpg,FN,3,num_4,32,num_8,1.01674065588,,,2017_Apr_26_1521,59.9967863549,FEMA4ImagesEEG,001,200216,
AFNE01.JPG,AFNE01.JPG,AFNE01.JPG,AFNE01.JPG,AFNE01.JPG,AFNE01.JPG,,,,,,,,,1,4,14,1,,,,,,,,,,,,,,,AFSA17.jpg,AFSA20.jpg,AFNE12.jpg,AFNE17.jpg,AFSA17.jpg,FS,4,num_8,16,num_8,0.833450135775,,,2017_Apr_26_1521,59.9967863549,FEMA4ImagesEEG,001,200216,
AFNE01.JPG,AFNE01.JPG,AFNE01.JPG,AFNE01.JPG,AFNE01.JPG,AFNE01.JPG,,,,,,,,,1,5,15,7,,,,,,,,,,,,,,,AFNE11.jpg,AFNE01.jpg,AFSA17.jpg,AFSA14.jpg,AFSA14.jpg,FS,4,num_4,16,num_4,0.633510691347,,,2017_Apr_26_1521,59.9967863549,FEMA4ImagesEEG,001,200216,
AFNE01.JPG,AFNE01.JPG,AFNE01.JPG,AFNE01.JPG,AFNE01.JPG,AFNE01.JPG,,,,,,,,,1,6,16,4,,,,,,,,,,,,,,,AFSA17.jpg,AFNE13.jpg,AFSA05.jpg,AFNE08.jpg,AFNE13.jpg,FN,3,num_6,16,num_6,1.11672593385,,,2017_Apr_26_1521,59.9967863549,FEMA4ImagesEEG,001,200216,
AFNE01.JPG,AFNE01.JPG,AFNE01.JPG,AFNE01.JPG,AFNE01.JPG,AFNE01.JPG,,,,,,,,,1,7,17,5,,,,,,,,,,,,,,,AFNE01.jpg,AFSA18.jpg,AFSA13.jpg,AFNE10.jpg,AFSA18.jpg,FS,4,num_6,16,num_6,0.616824561264,,,2017_Apr_26_1521,59.9967863549,FEMA4ImagesEEG,001,200216,
AFNE01.JPG,AFNE01.JPG,AFNE01.JPG,AFNE01.JPG,AFNE01.JPG,AFNE01.JPG,,,,,,,,,1,8,18,2,,,,,,,,,,,,,,,AFNE18.jpg,AFSA08.jpg,AFNE08.jpg,AFSA09.jpg,AFSA08.jpg,FS,4,num_6,16,num_6,0.733411294408,,,2017_Apr_26_1521,59.9967863549,FEMA4ImagesEEG,001,200216,
AFNE01.JPG,AFNE01.JPG,AFNE01.JPG,AFNE01.JPG,AFNE01.JPG,AFNE01.JPG,,,,,,,,,1,9,19,9,,,,,,,,,,,,,,,AFSA18.jpg,AFNE12.jpg,AFNE10.jpg,AFSA13.jpg,AFNE12.jpg,FN,3,num_6,32,num_2,1.2000940406,,,2017_Apr_26_1521,59.9967863549,FEMA4ImagesEEG,001,200216,
AFNE01.JPG,AFNE01.JPG,AFNE01.JPG,AFNE01.JPG,AFNE01.JPG,AFNE01.JPG,,,,,,,,,2,0,20,1,,,,,,,,,,,,,,,AFNE09.jpg,AFSA19.jpg,AFNE07.jpg,AFSA02.jpg,AFNE09.jpg,FN,3,num_8,16,num_8,0.633466750034,,,2017_Apr_26_1521,59.9967863549,FEMA4ImagesEEG,001,200216,
AFNE01.JPG,AFNE01.JPG,AFNE01.JPG,AFNE01.JPG,AFNE01.JPG,AFNE01.JPG,,,,,,,,,2,1,21,2,,,,,,,,,,,,,,,AFNE12.jpg,AFSA19.jpg,AFSA15.jpg,AFNE20.jpg,AFSA19.jpg,FS,4,num_6,16,num_6,0.76685475884,,,2017_Apr_26_1521,59.9967863549,FEMA4ImagesEEG,001,200216,
AFNE01.JPG,AFNE01.JPG,AFNE01.JPG,AFNE01.JPG,AFNE01.JPG,AFNE01.JPG,,,,,,,,,2,2,22,6,,,,,,,,,,,,,,,AFNE14.jpg,AFNE08.jpg,AFSA05.jpg,AFSA14.jpg,AFNE08.jpg,FN,3,num_6,32,num_8,0.683498198632,,,2017_Apr_26_1521,59.9967863549,FEMA4ImagesEEG,001,200216,
AFNE01.JPG,AFNE01.JPG,AFNE01.JPG,AFNE01.JPG,AFNE01.JPG,AFNE01.JPG,,,,,,,,,2,3,23,3,,,,,,,,,,,,,,,AFNE16.jpg,AFSA13.jpg,AFNE07.jpg,AFSA12.jpg,AFNE16.jpg,FN,3,num_8,32,num_4,0.78340232966,,,2017_Apr_26_1521,59.9967863549,FEMA4ImagesEEG,001,200216,
AFNE01.JPG,AFNE01.JPG,AFNE01.JPG,AFNE01.JPG,AFNE01.JPG,AFNE01.JPG,,,,,,,,,2,4,24,9,,,,,,,,,,,,,,,AFSA02.jpg,AFSA07.jpg,AFNE17.jpg,AFNE15.jpg,AFSA07.jpg,FS,4,num_6,16,num_6,0.850190470926,,,2017_Apr_26_1521,59.9967863549,FEMA4ImagesEEG,001,200216,
AFNE01.JPG,AFNE01.JPG,AFNE01.JPG,AFNE01.JPG,AFNE01.JPG,AFNE01.JPG,,,,,,,,,2,5,25,7,,,,,,,,,,,,,,,AFNE19.jpg,AFSA18.jpg,AFSA11.jpg,AFNE14.jpg,AFSA18.jpg,FS,4,num_6,32,num_2,1.2834246211,,,2017_Apr_26_1521,59.9967863549,FEMA4ImagesEEG,001,200216,
AFNE01.JPG,AFNE01.JPG,AFNE01.JPG,AFNE01.JPG,AFNE01.JPG,AFNE01.JPG,,,,,,,,,2,6,26,5,,,,,,,,,,,,,,,AFSA02.jpg,AFNE12.jpg,AFSA11.jpg,AFNE20.jpg,AFNE12.jpg,FN,3,num_6,16,num_6,0.616736678639,,,2017_Apr_26_1521,59.9967863549,FEMA4ImagesEEG,001,200216,
AFNE01.JPG,AFNE01.JPG,AFNE01.JPG,AFNE01.JPG,AFNE01.JPG,AFNE01.JPG,,,,,,,,,2,7,27,8,,,,,,,,,,,,,,,AFSA07.jpg,AFNE10.jpg,AFNE07.jpg,AFSA01.jpg,AFSA01.jpg,FS,4,num_4,16,num_4,0.866762097226,,,2017_Apr_26_1521,59.9967863549,FEMA4ImagesEEG,001,200216,
AFNE01.JPG,AFNE01.JPG,AFNE01.JPG,AFNE01.JPG,AFNE01.JPG,AFNE01.JPG,,,,,,,,,2,8,28,0,,,,,,,,,,,,,,,AFNE10.jpg,AFSA07.jpg,AFSA13.jpg,AFNE11.jpg,AFSA13.jpg,FS,4,num_2,16,num_2,0.933498278726,,,2017_Apr_26_1521,59.9967863549,FEMA4ImagesEEG,001,200216,
AFNE01.JPG,AFNE01.JPG,AFNE01.JPG,AFNE01.JPG,AFNE01.JPG,AFNE01.JPG,,,,,,,,,2,9,29,4,,,,,,,,,,,,,,,AFNE01.jpg,AFSA03.jpg,AFNE04.jpg,AFSA11.jpg,AFSA03.jpg,FS,4,num_6,16,num_6,0.65012048569,,,2017_Apr_26_1521,59.9967863549,FEMA4ImagesEEG,001,200216,
AFNE01.JPG,AFNE01.JPG,AFNE01.JPG,AFNE01.JPG,AFNE01.JPG,AFNE01.JPG,,,,,,,,,3,0,30,4,,,,,,,,,,,,,,,AFSA06.jpg,AFNE10.jpg,AFNE17.jpg,AFSA04.jpg,AFNE17.jpg,FN,3,num_2,32,num_6,1.23343037826,,,2017_Apr_26_1521,59.9967863549,FEMA4ImagesEEG,001,200216,
AFNE01.JPG,AFNE01.JPG,AFNE01.JPG,AFNE01.JPG,AFNE01.JPG,AFNE01.JPG,,,,,,,,,3,1,31,8,,,,,,,,,,,,,,,AFSA19.jpg,AFNE06.jpg,AFSA06.jpg,AFNE04.jpg,AFNE04.jpg,FN,3,num_4,16,num_4,1.06653315376,,,2017_Apr_26_1521,59.9967863549,FEMA4ImagesEEG,001,200216,
AFNE01.JPG,AFNE01.JPG,AFNE01.JPG,AFNE01.JPG,AFNE01.JPG,AFNE01.JPG,,,,,,,,,3,2,32,2,,,,,,,,,,,,,,,AFSA20.jpg,AFNE15.jpg,AFNE09.jpg,AFSA17.jpg,AFNE15.jpg,FN,3,num_6,16,num_6,1.21677952947,,,2017_Apr_26_1521,59.9967863549,FEMA4ImagesEEG,001,200216,
AFNE01.JPG,AFNE01.JPG,AFNE01.JPG,AFNE01.JPG,AFNE01.JPG,AFNE01.JPG,,,,,,,,,3,3,33,3,,,,,,,,,,,,,,,AFSA07.jpg,AFNE12.jpg,AFNE04.jpg,AFSA10.jpg,AFSA07.jpg,FS,4,num_8,32,num_4,0.566854373901,,,2017_Apr_26_1521,59.9967863549,FEMA4ImagesEEG,001,200216,
AFNE01.JPG,AFNE01.JPG,AFNE01.JPG,AFNE01.JPG,AFNE01.JPG,AFNE01.JPG,,,,,,,,,3,4,34,7,,,,,,,,,,,,,,,AFNE20.jpg,AFSA09.jpg,AFSA15.jpg,AFNE14.jpg,AFNE20.jpg,FN,3,num_8,32,num_4,0.933564351057,,,2017_Apr_26_1521,59.9967863549,FEMA4ImagesEEG,001,200216,
AFNE01.JPG,AFNE01.JPG,AFNE01.JPG,AFNE01.JPG,AFNE01.JPG,AFNE01.JPG,,,,,,,,,3,5,35,6,,,,,,,,,,,,,,,AFNE14.jpg,AFSA18.jpg,AFSA08.jpg,AFNE06.jpg,AFNE06.jpg,FN,3,num_4,32,num_8,0.766789969406,,,2017_Apr_26_1521,59.9967863549,FEMA4ImagesEEG,001,200216,
AFNE01.JPG,AFNE01.JPG,AFNE01.JPG,AFNE01.JPG,AFNE01.JPG,AFNE01.JPG,,,,,,,,,3,6,36,0,,,,,,,,,,,,,,,AFNE12.jpg,AFSA09.jpg,AFSA16.jpg,AFNE11.jpg,AFSA16.jpg,FS,4,num_2,16,num_2,0.866842282005,,,2017_Apr_26_1521,59.9967863549,FEMA4ImagesEEG,001,200216,
AFNE01.JPG,AFNE01.JPG,AFNE01.JPG,AFNE01.JPG,AFNE01.JPG,AFNE01.JPG,,,,,,,,,3,7,37,9,,,,,,,,,,,,,,,AFNE08.jpg,AFNE20.jpg,AFSA17.jpg,AFSA16.jpg,AFSA16.jpg,FS,4,num_4,32,num_2,1.7666886159,,,2017_Apr_26_1521,59.9967863549,FEMA4ImagesEEG,001,200216,
AFNE01.JPG,AFNE01.JPG,AFNE01.JPG,AFNE01.JPG,AFNE01.JPG,AFNE01.JPG,,,,,,,,,3,8,38,1,,,,,,,,,,,,,,,AFSA04.jpg,AFNE12.jpg,AFNE15.jpg,AFSA09.jpg,AFNE15.jpg,FN,3,num_2,32,num_8,0.683488897164,,,2017_Apr_26_1521,59.9967863549,FEMA4ImagesEEG,001,200216,
AFNE01.JPG,AFNE01.JPG,AFNE01.JPG,AFNE01.JPG,AFNE01.JPG,AFNE01.JPG,,,,,,,,,3,9,39,5,,,,,,,,,,,,,,,AFSA17.jpg,AFSA03.jpg,AFNE14.jpg,AFNE10.jpg,AFNE10.jpg,FN,3,num_4,16,num_4,1.16674423206,,,2017_Apr_26_1521,59.9967863549,FEMA4ImagesEEG,001,200216,
AFNE01.JPG,AFNE01.JPG,AFNE01.JPG,AFNE01.JPG,AFNE01.JPG,AFNE01.JPG,,,,,,,,,4,0,40,1,,,,,,,,,,,,,,,AFNE19.jpg,AFNE14.jpg,AFSA08.jpg,AFSA01.jpg,AFNE14.jpg,FN,3,num_6,32,num_2,1.16678239999,,,2017_Apr_26_1521,59.9967863549,FEMA4ImagesEEG,001,200216,
AFNE01.JPG,AFNE01.JPG,AFNE01.JPG,AFNE01.JPG,AFNE01.JPG,AFNE01.JPG,,,,,,,,,4,1,41,4,,,,,,,,,,,,,,,AFNE07.jpg,AFSA13.jpg,AFSA09.jpg,AFNE03.jpg,AFSA09.jpg,FS,4,num_2,32,num_8,0.750081066857,,,2017_Apr_26_1521,59.9967863549,FEMA4ImagesEEG,001,200216,
AFNE01.JPG,AFNE01.JPG,AFNE01.JPG,AFNE01.JPG,AFNE01.JPG,AFNE01.JPG,,,,,,,,,4,2,42,2,,,,,,,,,,,,,,,AFSA17.jpg,AFSA08.jpg,AFNE15.jpg,AFNE16.jpg,AFNE15.jpg,FN,3,num_2,16,num_2,2.30004115077,,,2017_Apr_26_1521,59.9967863549,FEMA4ImagesEEG,001,200216,
AFNE01.JPG,AFNE01.JPG,AFNE01.JPG,AFNE01.JPG,AFNE01.JPG,AFNE01.JPG,,,,,,,,,4,3,43,6,,,,,,,,,,,,,,,AFNE06.jpg,AFSA18.jpg,AFNE18.jpg,AFSA05.jpg,AFNE06.jpg,FN,3,num_8,16,num_8,0.666777749313,,,2017_Apr_26_1521,59.9967863549,FEMA4ImagesEEG,001,200216,
AFNE01.JPG,AFNE01.JPG,AFNE01.JPG,AFNE01.JPG,AFNE01.JPG,AFNE01.JPG,,,,,,,,,4,4,44,0,,,,,,,,,,,,,,,AFNE19.jpg,AFSA11.jpg,AFSA18.jpg,AFNE03.jpg,AFNE19.jpg,FN,3,num_8,32,num_6,0.500106325024,,,2017_Apr_26_1521,59.9967863549,FEMA4ImagesEEG,001,200216,
AFNE01.JPG,AFNE01.JPG,AFNE01.JPG,AFNE01.JPG,AFNE01.JPG,AFNE01.JPG,,,,,,,,,4,5,45,9,,,,,,,,,,,,,,,AFNE06.jpg,AFSA16.jpg,AFSA05.jpg,AFNE04.jpg,AFNE04.jpg,FN,3,num_4,16,num_4,0.866765946033,,,2017_Apr_26_1521,59.9967863549,FEMA4ImagesEEG,001,200216,
AFNE01.JPG,AFNE01.JPG,AFNE01.JPG,AFNE01.JPG,AFNE01.JPG,AFNE01.JPG,,,,,,,,,4,6,46,3,,,,,,,,,,,,,,,AFSA12.jpg,AFNE12.jpg,AFSA11.jpg,AFNE13.jpg,AFNE13.jpg,FN,3,num_4,32,num_6,1.00007697742,,,2017_Apr_26_1521,59.9967863549,FEMA4ImagesEEG,001,200216,
AFNE01.JPG,AFNE01.JPG,AFNE01.JPG,AFNE01.JPG,AFNE01.JPG,AFNE01.JPG,,,,,,,,,4,7,47,7,,,,,,,,,,,,,,,AFNE04.jpg,AFNE12.jpg,AFSA03.jpg,AFSA01.jpg,AFSA03.jpg,FS,4,num_2,32,num_4,0.833467776538,,,2017_Apr_26_1521,59.9967863549,FEMA4ImagesEEG,001,200216,
AFNE01.JPG,AFNE01.JPG,AFNE01.JPG,AFNE01.JPG,AFNE01.JPG,AFNE01.JPG,,,,,,,,,4,8,48,8,,,,,,,,,,,,,,,AFSA16.jpg,AFNE07.jpg,AFNE08.jpg,AFSA18.jpg,AFSA18.jpg,FS,4,num_4,32,num_8,1.25015211047,,,2017_Apr_26_1521,59.9967863549,FEMA4ImagesEEG,001,200216,
AFNE01.JPG,AFNE01.JPG,AFNE01.JPG,AFNE01.JPG,AFNE01.JPG,AFNE01.JPG,,,,,,,,,4,9,49,5,,,,,,,,,,,,,,,AFSA08.jpg,AFNE02.jpg,AFNE05.jpg,AFSA05.jpg,AFSA05.jpg,FS,4,num_4,32,num_8,1.11678751581,,,2017_Apr_26_1521,59.9967863549,FEMA4ImagesEEG,001,200216,
AFNE01.JPG,AFNE01.JPG,AFNE01.JPG,AFNE01.JPG,AFNE01.JPG,AFNE01.JPG,,,,,,,,,5,0,50,3,,,,,,,,,,,,,,,AFNE01.jpg,AFNE08.jpg,AFSA16.jpg,AFSA15.jpg,AFNE01.jpg,FN,3,num_8,32,num_6,1.01674514613,,,2017_Apr_26_1521,59.9967863549,FEMA4ImagesEEG,001,200216,
AFNE01.JPG,AFNE01.JPG,AFNE01.JPG,AFNE01.JPG,AFNE01.JPG,AFNE01.JPG,,,,,,,,,5,1,51,4,,,,,,,,,,,,,,,AFSA15.jpg,AFNE05.jpg,AFNE07.jpg,AFSA17.jpg,AFNE05.jpg,FN,3,num_6,32,num_2,1.3167253565,,,2017_Apr_26_1521,59.9967863549,FEMA4ImagesEEG,001,200216,
AFNE01.JPG,AFNE01.JPG,AFNE01.JPG,AFNE01.JPG,AFNE01.JPG,AFNE01.JPG,,,,,,,,,5,2,52,1,,,,,,,,,,,,,,,AFNE15.jpg,AFSA12.jpg,AFNE16.jpg,AFSA07.jpg,AFSA07.jpg,FS,4,num_4,16,num_4,1.16673877952,,,2017_Apr_26_1521,59.9967863549,FEMA4ImagesEEG,001,200216,
AFNE01.JPG,AFNE01.JPG,AFNE01.JPG,AFNE01.JPG,AFNE01.JPG,AFNE01.JPG,,,,,,,,,5,3,53,5,,,,,,,,,,,,,,,AFSA05.jpg,AFNE10.jpg,AFNE07.jpg,AFSA06.jpg,AFSA05.jpg,FS,4,num_8,32,num_4,0.716846082709,,,2017_Apr_26_1521,59.9967863549,FEMA4ImagesEEG,001,200216,
AFNE01.JPG,AFNE01.JPG,AFNE01.JPG,AFNE01.JPG,AFNE01.JPG,AFNE01.JPG,,,,,,,,,5,4,54,8,,,,,,,,,,,,,,,AFNE14.jpg,AFSA05.jpg,AFSA09.jpg,AFNE18.jpg,AFSA09.jpg,FS,4,num_2,32,num_8,2.26666375867,,,2017_Apr_26_1521,59.9967863549,FEMA4ImagesEEG,001,200216,
AFNE01.JPG,AFNE01.JPG,AFNE01.JPG,AFNE01.JPG,AFNE01.JPG,AFNE01.JPG,,,,,,,,,5,5,55,2,,,,,,,,,,,,,,,AFNE20.jpg,AFNE04.jpg,AFSA20.jpg,AFSA19.jpg,AFSA20.jpg,FS,4,num_2,16,num_2,0.866764021688,,,2017_Apr_26_1521,59.9967863549,FEMA4ImagesEEG,001,200216,
AFNE01.JPG,AFNE01.JPG,AFNE01.JPG,AFNE01.JPG,AFNE01.JPG,AFNE01.JPG,,,,,,,,,5,6,56,6,,,,,,,,,,,,,,,AFNE13.jpg,AFNE01.jpg,AFSA01.jpg,AFSA17.jpg,AFSA01.jpg,FS,4,num_2,16,num_2,1.61674116901,,,2017_Apr_26_1521,59.9967863549,FEMA4ImagesEEG,001,200216,
AFNE01.JPG,AFNE01.JPG,AFNE01.JPG,AFNE01.JPG,AFNE01.JPG,AFNE01.JPG,,,,,,,,,5,7,57,9,,,,,,,,,,,,,,,AFNE18.jpg,AFSA19.jpg,AFNE01.jpg,AFSA12.jpg,AFSA19.jpg,FS,4,num_6,16,num_6,0.866756965406,,,2017_Apr_26_1521,59.9967863549,FEMA4ImagesEEG,001,200216,
AFNE01.JPG,AFNE01.JPG,AFNE01.JPG,AFNE01.JPG,AFNE01.JPG,AFNE01.JPG,,,,,,,,,5,8,58,0,,,,,,,,,,,,,,,AFNE05.jpg,AFSA13.jpg,AFSA03.jpg,AFNE08.jpg,AFSA03.jpg,FS,4,num_2,32,num_6,0.800125024049,,,2017_Apr_26_1521,59.9967863549,FEMA4ImagesEEG,001,200216,
AFNE01.JPG,AFNE01.JPG,AFNE01.JPG,AFNE01.JPG,AFNE01.JPG,AFNE01.JPG,,,,,,,,,5,9,59,7,,,,,,,,,,,,,,,AFNE07.jpg,AFSA16.jpg,AFSA08.jpg,AFNE04.jpg,AFSA08.jpg,FS,4,num_2,32,num_4,0.633512936532,,,2017_Apr_26_1521,59.9967863549,FEMA4ImagesEEG,001,200216,
,,,,,,,,,,,,,,,,,,,,,,,,,,,,,,,,,,,,,,,,,,,space,59.7955220975,2017_Apr_26_1521,59.9967863549,FEMA4ImagesEEG,001,200216,
AFNE01.JPG,AFNE01.JPG,AFNE01.JPG,AFNE01.JPG,AFNE01.JPG,AFNE01.JPG,,,,,,,,,,,,,0,0,0,6,,,,,,,,,,,AMSA13.jpg,AMSA02.jpg,AMNE10.jpg,AMNE08.jpg,AMSA13.jpg,MS,2,num_8,16,num_8,1.46642423072,,,2017_Apr_26_1521,59.9967863549,FEMA4ImagesEEG,001,200216,
AFNE01.JPG,AFNE01.JPG,AFNE01.JPG,AFNE01.JPG,AFNE01.JPG,AFNE01.JPG,,,,,,,,,,,,,0,1,1,4,,,,,,,,,,,AMSA04.jpg,AMSA12.jpg,AMNE18.jpg,AMNE13.jpg,AMNE18.jpg,MN,1,num_2,16,num_2,1.20008666371,,,2017_Apr_26_1521,59.9967863549,FEMA4ImagesEEG,001,200216,
AFNE01.JPG,AFNE01.JPG,AFNE01.JPG,AFNE01.JPG,AFNE01.JPG,AFNE01.JPG,,,,,,,,,,,,,0,2,2,2,,,,,,,,,,,AMSA10.jpg,AMNE19.jpg,AMSA01.jpg,AMNE18.jpg,AMSA10.jpg,MS,2,num_8,16,num_8,0.966760525596,,,2017_Apr_26_1521,59.9967863549,FEMA4ImagesEEG,001,200216,
AFNE01.JPG,AFNE01.JPG,AFNE01.JPG,AFNE01.JPG,AFNE01.JPG,AFNE01.JPG,,,,,,,,,,,,,0,3,3,1,,,,,,,,,,,AMNE12.jpg,AMNE01.jpg,AMSA07.jpg,AMSA11.jpg,AMSA11.jpg,MS,2,num_4,32,num_6,0.683480878593,,,2017_Apr_26_1521,59.9967863549,FEMA4ImagesEEG,001,200216,
AFNE01.JPG,AFNE01.JPG,AFNE01.JPG,AFNE01.JPG,AFNE01.JPG,AFNE01.JPG,,,,,,,,,,,,,0,4,4,3,,,,,,,,,,,AMSA16.jpg,AMNE11.jpg,AMSA02.jpg,AMNE07.jpg,AMSA02.jpg,MS,2,num_2,16,num_2,1.08349928912,,,2017_Apr_26_1521,59.9967863549,FEMA4ImagesEEG,001,200216,
AFNE01.JPG,AFNE01.JPG,AFNE01.JPG,AFNE01.JPG,AFNE01.JPG,AFNE01.JPG,,,,,,,,,,,,,0,5,5,0,,,,,,,,,,,AMSA13.jpg,AMNE04.jpg,AMNE12.jpg,AMSA10.jpg,AMSA10.jpg,MS,2,num_4,32,num_8,1.0000769773,,,2017_Apr_26_1521,59.9967863549,FEMA4ImagesEEG,001,200216,
AFNE01.JPG,AFNE01.JPG,AFNE01.JPG,AFNE01.JPG,AFNE01.JPG,AFNE01.JPG,,,,,,,,,,,,,0,6,6,9,,,,,,,,,,,AMNE12.jpg,AMNE17.jpg,AMSA16.jpg,AMSA06.jpg,AMNE17.jpg,MN,1,num_6,16,num_6,0.700129482313,,,2017_Apr_26_1521,59.9967863549,FEMA4ImagesEEG,001,200216,
AFNE01.JPG,AFNE01.JPG,AFNE01.JPG,AFNE01.JPG,AFNE01.JPG,AFNE01.JPG,,,,,,,,,,,,,0,7,7,8,,,,,,,,,,,AMSA18.jpg,AMNE13.jpg,AMNE11.jpg,AMSA09.jpg,AMNE13.jpg,MN,1,num_6,16,num_6,0.716769746854,,,2017_Apr_26_1521,59.9967863549,FEMA4ImagesEEG,001,200216,
AFNE01.JPG,AFNE01.JPG,AFNE01.JPG,AFNE01.JPG,AFNE01.JPG,AFNE01.JPG,,,,,,,,,,,,,0,8,8,7,,,,,,,,,,,AMNE05.jpg,AMSA14.jpg,AMNE15.jpg,AMSA01.jpg,AMSA14.jpg,MS,2,num_6,16,num_6,1.00010552316,,,2017_Apr_26_1521,59.9967863549,FEMA4ImagesEEG,001,200216,
AFNE01.JPG,AFNE01.JPG,AFNE01.JPG,AFNE01.JPG,AFNE01.JPG,AFNE01.JPG,,,,,,,,,,,,,0,9,9,5,,,,,,,,,,,AMNE03.jpg,AMSA19.jpg,AMNE16.jpg,AMSA13.jpg,AMNE03.jpg,MN,1,num_8,16,num_8,0.983444731333,,,2017_Apr_26_1521,59.9967863549,FEMA4ImagesEEG,001,200216,
AFNE01.JPG,AFNE01.JPG,AFNE01.JPG,AFNE01.JPG,AFNE01.JPG,AFNE01.JPG,,,,,,,,,,,,,1,0,10,6,,,,,,,,,,,AMNE05.jpg,AMSA07.jpg,AMNE04.jpg,AMSA10.jpg,AMNE04.jpg,MN,1,num_2,32,num_4,0.866750871413,,,2017_Apr_26_1521,59.9967863549,FEMA4ImagesEEG,001,200216,
AFNE01.JPG,AFNE01.JPG,AFNE01.JPG,AFNE01.JPG,AFNE01.JPG,AFNE01.JPG,,,,,,,,,,,,,1,1,11,7,,,,,,,,,,,AMNE06.jpg,AMSA20.jpg,AMSA19.jpg,AMNE13.jpg,AMSA20.jpg,MS,2,num_6,16,num_6,0.850113493507,,,2017_Apr_26_1521,59.9967863549,FEMA4ImagesEEG,001,200216,
AFNE01.JPG,AFNE01.JPG,AFNE01.JPG,AFNE01.JPG,AFNE01.JPG,AFNE01.JPG,,,,,,,,,,,,,1,2,12,3,,,,,,,,,,,AMSA09.jpg,AMNE17.jpg,AMSA14.jpg,AMNE19.jpg,AMSA09.jpg,MS,2,num_8,16,num_8,0.700077522662,,,2017_Apr_26_1521,59.9967863549,FEMA4ImagesEEG,001,200216,
AFNE01.JPG,AFNE01.JPG,AFNE01.JPG,AFNE01.JPG,AFNE01.JPG,AFNE01.JPG,,,,,,,,,,,,,1,3,13,9,,,,,,,,,,,AMNE12.jpg,AMSA08.jpg,AMNE14.jpg,AMSA19.jpg,AMNE12.jpg,MN,1,num_8,16,num_8,0.983417147771,,,2017_Apr_26_1521,59.9967863549,FEMA4ImagesEEG,001,200216,
AFNE01.JPG,AFNE01.JPG,AFNE01.JPG,AFNE01.JPG,AFNE01.JPG,AFNE01.JPG,,,,,,,,,,,,,1,4,14,0,,,,,,,,,,,AMSA14.jpg,AMSA19.jpg,AMNE11.jpg,AMNE13.jpg,AMSA19.jpg,MS,2,num_6,16,num_6,0.867055573501,,,2017_Apr_26_1521,59.9967863549,FEMA4ImagesEEG,001,200216,
AFNE01.JPG,AFNE01.JPG,AFNE01.JPG,AFNE01.JPG,AFNE01.JPG,AFNE01.JPG,,,,,,,,,,,,,1,5,15,2,,,,,,,,,,,AMSA15.jpg,AMNE07.jpg,AMNE04.jpg,AMSA08.jpg,AMSA15.jpg,MS,2,num_8,32,num_6,1.23342396342,,,2017_Apr_26_1521,59.9967863549,FEMA4ImagesEEG,001,200216,
AFNE01.JPG,AFNE01.JPG,AFNE01.JPG,AFNE01.JPG,AFNE01.JPG,AFNE01.JPG,,,,,,,,,,,,,1,6,16,1,,,,,,,,,,,AMSA03.jpg,AMNE19.jpg,AMNE16.jpg,AMSA20.jpg,AMSA20.jpg,MS,2,num_4,16,num_4,0.583352550864,,,2017_Apr_26_1521,59.9967863549,FEMA4ImagesEEG,001,200216,
AFNE01.JPG,AFNE01.JPG,AFNE01.JPG,AFNE01.JPG,AFNE01.JPG,AFNE01.JPG,,,,,,,,,,,,,1,7,17,5,,,,,,,,,,,AMNE05.jpg,AMNE10.jpg,AMSA01.jpg,AMSA17.jpg,AMNE10.jpg,MN,1,num_6,16,num_6,0.600168901146,,,2017_Apr_26_1521,59.9967863549,FEMA4ImagesEEG,001,200216,
AFNE01.JPG,AFNE01.JPG,AFNE01.JPG,AFNE01.JPG,AFNE01.JPG,AFNE01.JPG,,,,,,,,,,,,,1,8,18,8,,,,,,,,,,,AMSA01.jpg,AMSA12.jpg,AMNE16.jpg,AMNE08.jpg,AMSA01.jpg,MS,2,num_8,16,num_8,0.583491430967,,,2017_Apr_26_1521,59.9967863549,FEMA4ImagesEEG,001,200216,
AFNE01.JPG,AFNE01.JPG,AFNE01.JPG,AFNE01.JPG,AFNE01.JPG,AFNE01.JPG,,,,,,,,,,,,,1,9,19,4,,,,,,,,,,,AMSA10.jpg,AMNE09.jpg,AMNE14.jpg,AMSA12.jpg,AMSA12.jpg,MS,2,num_4,16,num_4,0.76679029013,,,2017_Apr_26_1521,59.9967863549,FEMA4ImagesEEG,001,200216,
AFNE01.JPG,AFNE01.JPG,AFNE01.JPG,AFNE01.JPG,AFNE01.JPG,AFNE01.JPG,,,,,,,,,,,,,2,0,20,9,,,,,,,,,,,AMSA05.jpg,AMNE10.jpg,AMSA02.jpg,AMNE01.jpg,AMNE01.jpg,MN,1,num_4,16,num_4,0.633425374748,,,2017_Apr_26_1521,59.9967863549,FEMA4ImagesEEG,001,200216,
AFNE01.JPG,AFNE01.JPG,AFNE01.JPG,AFNE01.JPG,AFNE01.JPG,AFNE01.JPG,,,,,,,,,,,,,2,1,21,4,,,,,,,,,,,AMNE10.jpg,AMNE01.jpg,AMSA20.jpg,AMSA09.jpg,AMNE10.jpg,MN,1,num_8,16,num_8,0.866761135054,,,2017_Apr_26_1521,59.9967863549,FEMA4ImagesEEG,001,200216,
AFNE01.JPG,AFNE01.JPG,AFNE01.JPG,AFNE01.JPG,AFNE01.JPG,AFNE01.JPG,,,,,,,,,,,,,2,2,22,2,,,,,,,,,,,AMNE16.jpg,AMSA14.jpg,AMSA12.jpg,AMNE08.jpg,AMNE08.jpg,MN,1,num_4,32,num_8,0.733858725289,,,2017_Apr_26_1521,59.9967863549,FEMA4ImagesEEG,001,200216,
AFNE01.JPG,AFNE01.JPG,AFNE01.JPG,AFNE01.JPG,AFNE01.JPG,AFNE01.JPG,,,,,,,,,,,,,2,3,23,1,,,,,,,,,,,AMNE10.jpg,AMSA18.jpg,AMSA16.jpg,AMNE13.jpg,AMNE10.jpg,MN,1,num_8,32,num_4,1.05030568037,,,2017_Apr_26_1521,59.9967863549,FEMA4ImagesEEG,001,200216,
AFNE01.JPG,AFNE01.JPG,AFNE01.JPG,AFNE01.JPG,AFNE01.JPG,AFNE01.JPG,,,,,,,,,,,,,2,4,24,7,,,,,,,,,,,AMSA11.jpg,AMSA12.jpg,AMNE19.jpg,AMNE02.jpg,AMSA12.jpg,MS,2,num_6,32,num_8,0.833451418788,,,2017_Apr_26_1521,59.9967863549,FEMA4ImagesEEG,001,200216,
AFNE01.JPG,AFNE01.JPG,AFNE01.JPG,AFNE01.JPG,AFNE01.JPG,AFNE01.JPG,,,,,,,,,,,,,2,5,25,8,,,,,,,,,,,AMNE08.jpg,AMSA18.jpg,AMNE16.jpg,AMSA05.jpg,AMNE08.jpg,MN,1,num_8,16,num_8,0.883456887328,,,2017_Apr_26_1521,59.9967863549,FEMA4ImagesEEG,001,200216,
AFNE01.JPG,AFNE01.JPG,AFNE01.JPG,AFNE01.JPG,AFNE01.JPG,AFNE01.JPG,,,,,,,,,,,,,2,6,26,5,,,,,,,,,,,AMNE10.jpg,AMSA02.jpg,AMSA20.jpg,AMNE19.jpg,AMSA02.jpg,MS,2,num_6,16,num_6,1.01674161805,,,2017_Apr_26_1521,59.9967863549,FEMA4ImagesEEG,001,200216,
AFNE01.JPG,AFNE01.JPG,AFNE01.JPG,AFNE01.JPG,AFNE01.JPG,AFNE01.JPG,,,,,,,,,,,,,2,7,27,0,,,,,,,,,,,AMSA11.jpg,AMNE08.jpg,AMNE09.jpg,AMSA07.jpg,AMSA11.jpg,MS,2,num_8,32,num_4,0.90012537688,,,2017_Apr_26_1521,59.9967863549,FEMA4ImagesEEG,001,200216,
AFNE01.JPG,AFNE01.JPG,AFNE01.JPG,AFNE01.JPG,AFNE01.JPG,AFNE01.JPG,,,,,,,,,,,,,2,8,28,3,,,,,,,,,,,AMNE14.jpg,AMSA13.jpg,AMNE05.jpg,AMSA19.jpg,AMSA19.jpg,MS,2,num_4,16,num_4,0.883375098929,,,2017_Apr_26_1521,59.9967863549,FEMA4ImagesEEG,001,200216,
AFNE01.JPG,AFNE01.JPG,AFNE01.JPG,AFNE01.JPG,AFNE01.JPG,AFNE01.JPG,,,,,,,,,,,,,2,9,29,6,,,,,,,,,,,AMSA05.jpg,AMSA08.jpg,AMNE08.jpg,AMNE10.jpg,AMNE10.jpg,MN,1,num_4,16,num_4,0.866900656489,,,2017_Apr_26_1521,59.9967863549,FEMA4ImagesEEG,001,200216,
AFNE01.JPG,AFNE01.JPG,AFNE01.JPG,AFNE01.JPG,AFNE01.JPG,AFNE01.JPG,,,,,,,,,,,,,3,0,30,8,,,,,,,,,,,AMNE05.jpg,AMSA18.jpg,AMNE01.jpg,AMSA02.jpg,AMNE05.jpg,MN,1,num_8,16,num_8,0.916767245042,,,2017_Apr_26_1521,59.9967863549,FEMA4ImagesEEG,001,200216,
AFNE01.JPG,AFNE01.JPG,AFNE01.JPG,AFNE01.JPG,AFNE01.JPG,AFNE01.JPG,,,,,,,,,,,,,3,1,31,1,,,,,,,,,,,AMNE03.jpg,AMSA14.jpg,AMNE20.jpg,AMSA04.jpg,AMNE03.jpg,MN,1,num_8,16,num_8,1.08344572561,,,2017_Apr_26_1521,59.9967863549,FEMA4ImagesEEG,001,200216,
AFNE01.JPG,AFNE01.JPG,AFNE01.JPG,AFNE01.JPG,AFNE01.JPG,AFNE01.JPG,,,,,,,,,,,,,3,2,32,0,,,,,,,,,,,AMNE13.jpg,AMSA16.jpg,AMNE03.jpg,AMSA11.jpg,AMNE13.jpg,MN,1,num_8,16,num_8,1.31677699566,,,2017_Apr_26_1521,59.9967863549,FEMA4ImagesEEG,001,200216,
AFNE01.JPG,AFNE01.JPG,AFNE01.JPG,AFNE01.JPG,AFNE01.JPG,AFNE01.JPG,,,,,,,,,,,,,3,3,33,4,,,,,,,,,,,AMNE06.jpg,AMSA03.jpg,AMNE04.jpg,AMSA05.jpg,AMSA05.jpg,MS,2,num_4,16,num_4,0.533324951306,,,2017_Apr_26_1521,59.9967863549,FEMA4ImagesEEG,001,200216,
AFNE01.JPG,AFNE01.JPG,AFNE01.JPG,AFNE01.JPG,AFNE01.JPG,AFNE01.JPG,,,,,,,,,,,,,3,4,34,6,,,,,,,,,,,AMSA04.jpg,AMNE01.jpg,AMSA08.jpg,AMNE05.jpg,AMNE01.jpg,MN,1,num_6,16,num_6,0.366819990682,,,2017_Apr_26_1521,59.9967863549,FEMA4ImagesEEG,001,200216,
AFNE01.JPG,AFNE01.JPG,AFNE01.JPG,AFNE01.JPG,AFNE01.JPG,AFNE01.JPG,,,,,,,,,,,,,3,5,35,2,,,,,,,,,,,AMNE09.jpg,AMSA17.jpg,AMNE11.jpg,AMSA20.jpg,AMSA17.jpg,MS,2,num_6,16,num_6,0.76676751778,,,2017_Apr_26_1521,59.9967863549,FEMA4ImagesEEG,001,200216,
AFNE01.JPG,AFNE01.JPG,AFNE01.JPG,AFNE01.JPG,AFNE01.JPG,AFNE01.JPG,,,,,,,,,,,,,3,6,36,3,,,,,,,,,,,AMNE20.jpg,AMSA01.jpg,AMSA06.jpg,AMNE02.jpg,AMSA01.jpg,MS,2,num_6,16,num_6,0.70012595423,,,2017_Apr_26_1521,59.9967863549,FEMA4ImagesEEG,001,200216,
AFNE01.JPG,AFNE01.JPG,AFNE01.JPG,AFNE01.JPG,AFNE01.JPG,AFNE01.JPG,,,,,,,,,,,,,3,7,37,7,,,,,,,,,,,AMNE07.jpg,AMNE09.jpg,AMSA08.jpg,AMSA03.jpg,AMSA03.jpg,MS,2,num_4,16,num_4,0.48373419838,,,2017_Apr_26_1521,59.9967863549,FEMA4ImagesEEG,001,200216,
AFNE01.JPG,AFNE01.JPG,AFNE01.JPG,AFNE01.JPG,AFNE01.JPG,AFNE01.JPG,,,,,,,,,,,,,3,8,38,9,,,,,,,,,,,AMSA05.jpg,AMNE06.jpg,AMNE17.jpg,AMSA18.jpg,AMSA18.jpg,MS,2,num_4,16,num_4,0.616761054727,,,2017_Apr_26_1521,59.9967863549,FEMA4ImagesEEG,001,200216,
AFNE01.JPG,AFNE01.JPG,AFNE01.JPG,AFNE01.JPG,AFNE01.JPG,AFNE01.JPG,,,,,,,,,,,,,3,9,39,5,,,,,,,,,,,AMNE17.jpg,AMSA17.jpg,AMSA18.jpg,AMNE19.jpg,AMNE19.jpg,MN,1,num_4,32,num_2,1.94998747518,,,2017_Apr_26_1521,59.9967863549,FEMA4ImagesEEG,001,200216,
AFNE01.JPG,AFNE01.JPG,AFNE01.JPG,AFNE01.JPG,AFNE01.JPG,AFNE01.JPG,,,,,,,,,,,,,4,0,40,2,,,,,,,,,,,AMNE06.jpg,AMSA16.jpg,AMSA14.jpg,AMNE05.jpg,AMSA16.jpg,MS,2,num_6,16,num_6,0.700143274153,,,2017_Apr_26_1521,59.9967863549,FEMA4ImagesEEG,001,200216,
AFNE01.JPG,AFNE01.JPG,AFNE01.JPG,AFNE01.JPG,AFNE01.JPG,AFNE01.JPG,,,,,,,,,,,,,4,1,41,8,,,,,,,,,,,AMNE06.jpg,AMSA19.jpg,AMSA02.jpg,AMNE08.jpg,AMSA19.jpg,MS,2,num_6,16,num_6,0.816820455715,,,2017_Apr_26_1521,59.9967863549,FEMA4ImagesEEG,001,200216,
AFNE01.JPG,AFNE01.JPG,AFNE01.JPG,AFNE01.JPG,AFNE01.JPG,AFNE01.JPG,,,,,,,,,,,,,4,2,42,5,,,,,,,,,,,AMSA08.jpg,AMNE16.jpg,AMNE13.jpg,AMSA13.jpg,AMSA13.jpg,MS,2,num_4,16,num_4,1.01674290106,,,2017_Apr_26_1521,59.9967863549,FEMA4ImagesEEG,001,200216,
AFNE01.JPG,AFNE01.JPG,AFNE01.JPG,AFNE01.JPG,AFNE01.JPG,AFNE01.JPG,,,,,,,,,,,,,4,3,43,0,,,,,,,,,,,AMNE15.jpg,AMSA20.jpg,AMSA10.jpg,AMNE11.jpg,AMNE15.jpg,MN,1,num_8,16,num_8,0.816732893931,,,2017_Apr_26_1521,59.9967863549,FEMA4ImagesEEG,001,200216,
AFNE01.JPG,AFNE01.JPG,AFNE01.JPG,AFNE01.JPG,AFNE01.JPG,AFNE01.JPG,,,,,,,,,,,,,4,4,44,3,,,,,,,,,,,AMSA17.jpg,AMNE20.jpg,AMNE02.jpg,AMSA08.jpg,AMNE20.jpg,MN,1,num_6,32,num_8,1.61668536044,,,2017_Apr_26_1521,59.9967863549,FEMA4ImagesEEG,001,200216,
AFNE01.JPG,AFNE01.JPG,AFNE01.JPG,AFNE01.JPG,AFNE01.JPG,AFNE01.JPG,,,,,,,,,,,,,4,5,45,9,,,,,,,,,,,AMNE16.jpg,AMNE17.jpg,AMSA07.jpg,AMSA01.jpg,AMSA01.jpg,MS,2,num_4,16,num_4,0.683647342259,,,2017_Apr_26_1521,59.9967863549,FEMA4ImagesEEG,001,200216,
AFNE01.JPG,AFNE01.JPG,AFNE01.JPG,AFNE01.JPG,AFNE01.JPG,AFNE01.JPG,,,,,,,,,,,,,4,6,46,7,,,,,,,,,,,AMSA15.jpg,AMNE01.jpg,AMSA19.jpg,AMNE06.jpg,AMNE01.jpg,MN,1,num_6,16,num_6,0.933419697569,,,2017_Apr_26_1521,59.9967863549,FEMA4ImagesEEG,001,200216,
AFNE01.JPG,AFNE01.JPG,AFNE01.JPG,AFNE01.JPG,AFNE01.JPG,AFNE01.JPG,,,,,,,,,,,,,4,7,47,6,,,,,,,,,,,AMNE10.jpg,AMSA09.jpg,AMSA06.jpg,AMNE08.jpg,AMSA06.jpg,MS,2,num_2,32,num_6,0.750098707504,,,2017_Apr_26_1521,59.9967863549,FEMA4ImagesEEG,001,200216,
AFNE01.JPG,AFNE01.JPG,AFNE01.JPG,AFNE01.JPG,AFNE01.JPG,AFNE01.JPG,,,,,,,,,,,,,4,8,48,4,,,,,,,,,,,AMSA14.jpg,AMNE16.jpg,AMSA01.jpg,AMNE09.jpg,AMNE09.jpg,MN,1,num_4,16,num_4,0.716834856896,,,2017_Apr_26_1521,59.9967863549,FEMA4ImagesEEG,001,200216,
AFNE01.JPG,AFNE01.JPG,AFNE01.JPG,AFNE01.JPG,AFNE01.JPG,AFNE01.JPG,,,,,,,,,,,,,4,9,49,1,,,,,,,,,,,AMNE12.jpg,AMNE04.jpg,AMSA05.jpg,AMSA03.jpg,AMNE12.jpg,MN,1,num_8,16,num_8,0.566755265463,,,2017_Apr_26_1521,59.9967863549,FEMA4ImagesEEG,001,200216,
AFNE01.JPG,AFNE01.JPG,AFNE01.JPG,AFNE01.JPG,AFNE01.JPG,AFNE01.JPG,,,,,,,,,,,,,5,0,50,5,,,,,,,,,,,AMNE14.jpg,AMNE18.jpg,AMSA06.jpg,AMSA19.jpg,AMNE18.jpg,MN,1,num_6,16,num_6,1.16660438979,,,2017_Apr_26_1521,59.9967863549,FEMA4ImagesEEG,001,200216,
AFNE01.JPG,AFNE01.JPG,AFNE01.JPG,AFNE01.JPG,AFNE01.JPG,AFNE01.JPG,,,,,,,,,,,,,5,1,51,2,,,,,,,,,,,AMSA20.jpg,AMSA01.jpg,AMNE12.jpg,AMNE01.jpg,AMSA01.jpg,MS,2,num_6,32,num_4,0.633517747629,,,2017_Apr_26_1521,59.9967863549,FEMA4ImagesEEG,001,200216,
AFNE01.JPG,AFNE01.JPG,AFNE01.JPG,AFNE01.JPG,AFNE01.JPG,AFNE01.JPG,,,,,,,,,,,,,5,2,52,4,,,,,,,,,,,AMNE19.jpg,AMSA05.jpg,AMSA13.jpg,AMNE05.jpg,AMSA13.jpg,MS,2,num_2,32,num_4,1.00014625699,,,2017_Apr_26_1521,59.9967863549,FEMA4ImagesEEG,001,200216,
AFNE01.JPG,AFNE01.JPG,AFNE01.JPG,AFNE01.JPG,AFNE01.JPG,AFNE01.JPG,,,,,,,,,,,,,5,3,53,9,,,,,,,,,,,AMSA15.jpg,AMNE07.jpg,AMSA10.jpg,AMNE12.jpg,AMSA10.jpg,MS,2,num_2,16,num_2,1.26671603916,,,2017_Apr_26_1521,59.9967863549,FEMA4ImagesEEG,001,200216,
AFNE01.JPG,AFNE01.JPG,AFNE01.JPG,AFNE01.JPG,AFNE01.JPG,AFNE01.JPG,,,,,,,,,,,,,5,4,54,0,,,,,,,,,,,AMSA20.jpg,AMNE02.jpg,AMSA17.jpg,AMNE12.jpg,AMNE12.jpg,MN,1,num_4,16,num_4,0.850134341512,,,2017_Apr_26_1521,59.9967863549,FEMA4ImagesEEG,001,200216,
AFNE01.JPG,AFNE01.JPG,AFNE01.JPG,AFNE01.JPG,AFNE01.JPG,AFNE01.JPG,,,,,,,,,,,,,5,5,55,3,,,,,,,,,,,AMSA12.jpg,AMNE11.jpg,AMNE13.jpg,AMSA01.jpg,AMSA12.jpg,MS,2,num_8,16,num_8,1.66668954608,,,2017_Apr_26_1521,59.9967863549,FEMA4ImagesEEG,001,200216,
AFNE01.JPG,AFNE01.JPG,AFNE01.JPG,AFNE01.JPG,AFNE01.JPG,AFNE01.JPG,,,,,,,,,,,,,5,6,56,8,,,,,,,,,,,AMSA09.jpg,AMNE01.jpg,AMNE12.jpg,AMSA06.jpg,AMNE01.jpg,MN,1,num_6,16,num_6,0.500139361131,,,2017_Apr_26_1521,59.9967863549,FEMA4ImagesEEG,001,200216,
AFNE01.JPG,AFNE01.JPG,AFNE01.JPG,AFNE01.JPG,AFNE01.JPG,AFNE01.JPG,,,,,,,,,,,,,5,7,57,6,,,,,,,,,,,AMNE03.jpg,AMSA02.jpg,AMNE05.jpg,AMSA19.jpg,AMSA02.jpg,MS,2,num_6,32,num_4,0.80013560853,,,2017_Apr_26_1521,59.9967863549,FEMA4ImagesEEG,001,200216,
AFNE01.JPG,AFNE01.JPG,AFNE01.JPG,AFNE01.JPG,AFNE01.JPG,AFNE01.JPG,,,,,,,,,,,,,5,8,58,7,,,,,,,,,,,AMSA04.jpg,AMSA10.jpg,AMNE19.jpg,AMNE01.jpg,AMNE01.jpg,MN,1,num_4,16,num_4,0.71677199204,,,2017_Apr_26_1521,59.9967863549,FEMA4ImagesEEG,001,200216,
AFNE01.JPG,AFNE01.JPG,AFNE01.JPG,AFNE01.JPG,AFNE01.JPG,AFNE01.JPG,,,,,,,,,,,,,5,9,59,1,,,,,,,,,,,AMSA08.jpg,AMNE18.jpg,AMSA09.jpg,AMNE09.jpg,AMNE09.jpg,MN,1,num_4,32,num_8,1.15454171353,,,2017_Apr_26_1521,59.9967863549,FEMA4ImagesEEG,001,200216,
,,,,,,,,,,,,,,,,,,,,,,,,,,,,,,,,,,,,,,,,,,,space,19.7291961412,2017_Apr_26_1521,59.9967863549,FEMA4ImagesEEG,001,200216,
AFNE01.JPG,AFNE01.JPG,AFNE01.JPG,AFNE01.JPG,AFNE01.JPG,AFNE01.JPG,,,,,,,,,,,,,,,,,0,0,0,9,,,,,,,AFNE11.jpg,AFSA11.jpg,AFSA07.jpg,AFNE05.jpg,AFSA11.jpg,FS,4,num_6,16,num_6,0.500182340154,,,2017_Apr_26_1521,59.9967863549,FEMA4ImagesEEG,001,200216,
AFNE01.JPG,AFNE01.JPG,AFNE01.JPG,AFNE01.JPG,AFNE01.JPG,AFNE01.JPG,,,,,,,,,,,,,,,,,0,1,1,8,,,,,,,AFNE17.jpg,AFSA07.jpg,AFNE19.jpg,AFSA03.jpg,AFSA07.jpg,FS,4,num_6,16,num_6,0.583511958364,,,2017_Apr_26_1521,59.9967863549,FEMA4ImagesEEG,001,200216,
AFNE01.JPG,AFNE01.JPG,AFNE01.JPG,AFNE01.JPG,AFNE01.JPG,AFNE01.JPG,,,,,,,,,,,,,,,,,0,2,2,4,,,,,,,AFNE19.jpg,AFSA15.jpg,AFSA08.jpg,AFNE17.jpg,AFSA08.jpg,FS,4,num_2,32,num_8,0.783468722599,,,2017_Apr_26_1521,59.9967863549,FEMA4ImagesEEG,001,200216,
AFNE01.JPG,AFNE01.JPG,AFNE01.JPG,AFNE01.JPG,AFNE01.JPG,AFNE01.JPG,,,,,,,,,,,,,,,,,0,3,3,5,,,,,,,AFSA19.jpg,AFNE14.jpg,AFNE19.jpg,AFSA11.jpg,AFNE19.jpg,FN,3,num_2,16,num_2,1.48344585404,,,2017_Apr_26_1521,59.9967863549,FEMA4ImagesEEG,001,200216,
AFNE01.JPG,AFNE01.JPG,AFNE01.JPG,AFNE01.JPG,AFNE01.JPG,AFNE01.JPG,,,,,,,,,,,,,,,,,0,4,4,0,,,,,,,AFNE18.jpg,AFNE20.jpg,AFSA08.jpg,AFSA14.jpg,AFSA08.jpg,FS,4,num_2,32,num_4,0.50015539804,,,2017_Apr_26_1521,59.9967863549,FEMA4ImagesEEG,001,200216,
AFNE01.JPG,AFNE01.JPG,AFNE01.JPG,AFNE01.JPG,AFNE01.JPG,AFNE01.JPG,,,,,,,,,,,,,,,,,0,5,5,7,,,,,,,AFNE10.jpg,AFSA20.jpg,AFSA10.jpg,AFNE01.jpg,AFNE10.jpg,FN,3,num_8,16,num_8,0.683457143954,,,2017_Apr_26_1521,59.9967863549,FEMA4ImagesEEG,001,200216,
AFNE01.JPG,AFNE01.JPG,AFNE01.JPG,AFNE01.JPG,AFNE01.JPG,AFNE01.JPG,,,,,,,,,,,,,,,,,0,6,6,2,,,,,,,AFNE20.jpg,AFNE10.jpg,AFSA03.jpg,AFSA12.jpg,AFNE20.jpg,FN,3,num_8,16,num_8,0.76684577798,,,2017_Apr_26_1521,59.9967863549,FEMA4ImagesEEG,001,200216,
AFNE01.JPG,AFNE01.JPG,AFNE01.JPG,AFNE01.JPG,AFNE01.JPG,AFNE01.JPG,,,,,,,,,,,,,,,,,0,7,7,3,,,,,,,AFNE03.jpg,AFSA06.jpg,AFSA03.jpg,AFNE13.jpg,AFSA03.jpg,FS,4,num_2,32,num_6,0.600433510961,,,2017_Apr_26_1521,59.9967863549,FEMA4ImagesEEG,001,200216,
AFNE01.JPG,AFNE01.JPG,AFNE01.JPG,AFNE01.JPG,AFNE01.JPG,AFNE01.JPG,,,,,,,,,,,,,,,,,0,8,8,6,,,,,,,AFNE09.jpg,AFNE05.jpg,AFSA02.jpg,AFSA20.jpg,AFSA20.jpg,FS,4,num_4,16,num_4,0.983432863955,,,2017_Apr_26_1521,59.9967863549,FEMA4ImagesEEG,001,200216,
AFNE01.JPG,AFNE01.JPG,AFNE01.JPG,AFNE01.JPG,AFNE01.JPG,AFNE01.JPG,,,,,,,,,,,,,,,,,0,9,9,1,,,,,,,AFNE02.jpg,AFSA07.jpg,AFNE08.jpg,AFSA09.jpg,AFNE08.jpg,FN,3,num_2,32,num_8,1.4000841619,,,2017_Apr_26_1521,59.9967863549,FEMA4ImagesEEG,001,200216,
AFNE01.JPG,AFNE01.JPG,AFNE01.JPG,AFNE01.JPG,AFNE01.JPG,AFNE01.JPG,,,,,,,,,,,,,,,,,1,0,10,8,,,,,,,AFNE10.jpg,AFNE03.jpg,AFSA13.jpg,AFSA10.jpg,AFNE10.jpg,FN,3,num_8,16,num_8,0.916747038485,,,2017_Apr_26_1521,59.9967863549,FEMA4ImagesEEG,001,200216,
AFNE01.JPG,AFNE01.JPG,AFNE01.JPG,AFNE01.JPG,AFNE01.JPG,AFNE01.JPG,,,,,,,,,,,,,,,,,1,1,11,1,,,,,,,AFSA11.jpg,AFSA02.jpg,AFNE05.jpg,AFNE03.jpg,AFSA11.jpg,FS,4,num_8,16,num_8,0.76674602821,,,2017_Apr_26_1521,59.9967863549,FEMA4ImagesEEG,001,200216,
AFNE01.JPG,AFNE01.JPG,AFNE01.JPG,AFNE01.JPG,AFNE01.JPG,AFNE01.JPG,,,,,,,,,,,,,,,,,1,2,12,7,,,,,,,AFNE02.jpg,AFSA03.jpg,AFNE06.jpg,AFSA09.jpg,AFNE06.jpg,FN,3,num_2,16,num_2,0.700135897147,,,2017_Apr_26_1521,59.9967863549,FEMA4ImagesEEG,001,200216,
AFNE01.JPG,AFNE01.JPG,AFNE01.JPG,AFNE01.JPG,AFNE01.JPG,AFNE01.JPG,,,,,,,,,,,,,,,,,1,3,13,4,,,,,,,AFNE14.jpg,AFSA03.jpg,AFNE06.jpg,AFSA06.jpg,AFNE06.jpg,FN,3,num_2,16,num_2,1.61671486846,,,2017_Apr_26_1521,59.9967863549,FEMA4ImagesEEG,001,200216,
AFNE01.JPG,AFNE01.JPG,AFNE01.JPG,AFNE01.JPG,AFNE01.JPG,AFNE01.JPG,,,,,,,,,,,,,,,,,1,4,14,3,,,,,,,AFSA13.jpg,AFSA02.jpg,AFNE03.jpg,AFNE06.jpg,AFSA02.jpg,FS,4,num_6,16,num_6,0.800122458255,,,2017_Apr_26_1521,59.9967863549,FEMA4ImagesEEG,001,200216,
AFNE01.JPG,AFNE01.JPG,AFNE01.JPG,AFNE01.JPG,AFNE01.JPG,AFNE01.JPG,,,,,,,,,,,,,,,,,1,5,15,2,,,,,,,AFNE14.jpg,AFNE04.jpg,AFSA16.jpg,AFSA08.jpg,AFSA08.jpg,FS,4,num_4,32,num_6,0.866671648924,,,2017_Apr_26_1521,59.9967863549,FEMA4ImagesEEG,001,200216,
AFNE01.JPG,AFNE01.JPG,AFNE01.JPG,AFNE01.JPG,AFNE01.JPG,AFNE01.JPG,,,,,,,,,,,,,,,,,1,6,16,6,,,,,,,AFSA14.jpg,AFNE06.jpg,AFSA03.jpg,AFNE10.jpg,AFNE06.jpg,FN,3,num_6,32,num_4,0.950166447554,,,2017_Apr_26_1521,59.9967863549,FEMA4ImagesEEG,001,200216,
AFNE01.JPG,AFNE01.JPG,AFNE01.JPG,AFNE01.JPG,AFNE01.JPG,AFNE01.JPG,,,,,,,,,,,,,,,,,1,7,17,9,,,,,,,AFNE13.jpg,AFSA12.jpg,AFSA01.jpg,AFNE15.jpg,AFSA12.jpg,FS,4,num_6,16,num_6,0.600122714764,,,2017_Apr_26_1521,59.9967863549,FEMA4ImagesEEG,001,200216,
AFNE01.JPG,AFNE01.JPG,AFNE01.JPG,AFNE01.JPG,AFNE01.JPG,AFNE01.JPG,,,,,,,,,,,,,,,,,1,8,18,5,,,,,,,AFSA04.jpg,AFNE16.jpg,AFNE01.jpg,AFSA13.jpg,AFSA13.jpg,FS,4,num_4,16,num_4,1.25004337996,,,2017_Apr_26_1521,59.9967863549,FEMA4ImagesEEG,001,200216,
AFNE01.JPG,AFNE01.JPG,AFNE01.JPG,AFNE01.JPG,AFNE01.JPG,AFNE01.JPG,,,,,,,,,,,,,,,,,1,9,19,0,,,,,,,AFSA09.jpg,AFNE19.jpg,AFSA10.jpg,AFNE14.jpg,AFNE14.jpg,FN,3,num_4,16,num_4,1.00009461807,,,2017_Apr_26_1521,59.9967863549,FEMA4ImagesEEG,001,200216,
AFNE01.JPG,AFNE01.JPG,AFNE01.JPG,AFNE01.JPG,AFNE01.JPG,AFNE01.JPG,,,,,,,,,,,,,,,,,2,0,20,3,,,,,,,AFSA19.jpg,AFNE02.jpg,AFNE07.jpg,AFSA03.jpg,AFSA19.jpg,FS,4,num_8,32,num_6,0.866804755526,,,2017_Apr_26_1521,59.9967863549,FEMA4ImagesEEG,001,200216,
AFNE01.JPG,AFNE01.JPG,AFNE01.JPG,AFNE01.JPG,AFNE01.JPG,AFNE01.JPG,,,,,,,,,,,,,,,,,2,1,21,8,,,,,,,AFSA17.jpg,AFNE03.jpg,AFNE09.jpg,AFSA12.jpg,AFSA12.jpg,FS,4,num_4,16,num_4,1.31672279071,,,2017_Apr_26_1521,59.9967863549,FEMA4ImagesEEG,001,200216,
AFNE01.JPG,AFNE01.JPG,AFNE01.JPG,AFNE01.JPG,AFNE01.JPG,AFNE01.JPG,,,,,,,,,,,,,,,,,2,2,22,0,,,,,,,AFSA20.jpg,AFNE09.jpg,AFSA16.jpg,AFNE08.jpg,AFNE09.jpg,FN,3,num_6,16,num_6,0.716909268405,,,2017_Apr_26_1521,59.9967863549,FEMA4ImagesEEG,001,200216,
AFNE01.JPG,AFNE01.JPG,AFNE01.JPG,AFNE01.JPG,AFNE01.JPG,AFNE01.JPG,,,,,,,,,,,,,,,,,2,3,23,1,,,,,,,AFSA07.jpg,AFNE17.jpg,AFSA01.jpg,AFNE02.jpg,AFNE17.jpg,FN,3,num_6,32,num_8,0.800131118158,,,2017_Apr_26_1521,59.9967863549,FEMA4ImagesEEG,001,200216,
AFNE01.JPG,AFNE01.JPG,AFNE01.JPG,AFNE01.JPG,AFNE01.JPG,AFNE01.JPG,,,,,,,,,,,,,,,,,2,4,24,2,,,,,,,AFNE06.jpg,AFSA11.jpg,AFSA10.jpg,AFNE20.jpg,AFSA11.jpg,FS,4,num_6,16,num_6,0.500226602191,,,2017_Apr_26_1521,59.9967863549,FEMA4ImagesEEG,001,200216,
AFNE01.JPG,AFNE01.JPG,AFNE01.JPG,AFNE01.JPG,AFNE01.JPG,AFNE01.JPG,,,,,,,,,,,,,,,,,2,5,25,5,,,,,,,AFSA05.jpg,AFSA04.jpg,AFNE14.jpg,AFNE09.jpg,AFNE09.jpg,FN,3,num_4,32,num_8,1.05012574582,,,2017_Apr_26_1521,59.9967863549,FEMA4ImagesEEG,001,200216,
AFNE01.JPG,AFNE01.JPG,AFNE01.JPG,AFNE01.JPG,AFNE01.JPG,AFNE01.JPG,,,,,,,,,,,,,,,,,2,6,26,6,,,,,,,AFNE16.jpg,AFNE15.jpg,AFSA11.jpg,AFSA20.jpg,AFSA11.jpg,FS,4,num_2,16,num_2,0.999813329778,,,2017_Apr_26_1521,59.9967863549,FEMA4ImagesEEG,001,200216,
AFNE01.JPG,AFNE01.JPG,AFNE01.JPG,AFNE01.JPG,AFNE01.JPG,AFNE01.JPG,,,,,,,,,,,,,,,,,2,7,27,4,,,,,,,AFSA10.jpg,AFNE10.jpg,AFSA12.jpg,AFNE18.jpg,AFNE10.jpg,FN,3,num_6,32,num_8,0.650190727436,,,2017_Apr_26_1521,59.9967863549,FEMA4ImagesEEG,001,200216,
AFNE01.JPG,AFNE01.JPG,AFNE01.JPG,AFNE01.JPG,AFNE01.JPG,AFNE01.JPG,,,,,,,,,,,,,,,,,2,8,28,9,,,,,,,AFNE12.jpg,AFNE17.jpg,AFSA07.jpg,AFSA08.jpg,AFSA08.jpg,FS,4,num_4,32,num_6,0.61678382731,,,2017_Apr_26_1521,59.9967863549,FEMA4ImagesEEG,001,200216,
AFNE01.JPG,AFNE01.JPG,AFNE01.JPG,AFNE01.JPG,AFNE01.JPG,AFNE01.JPG,,,,,,,,,,,,,,,,,2,9,29,7,,,,,,,AFNE17.jpg,AFSA11.jpg,AFNE08.jpg,AFSA15.jpg,AFNE08.jpg,FN,3,num_2,32,num_8,1.16685360414,,,2017_Apr_26_1521,59.9967863549,FEMA4ImagesEEG,001,200216,
AFNE01.JPG,AFNE01.JPG,AFNE01.JPG,AFNE01.JPG,AFNE01.JPG,AFNE01.JPG,,,,,,,,,,,,,,,,,3,0,30,3,,,,,,,AFSA12.jpg,AFNE08.jpg,AFNE13.jpg,AFSA19.jpg,AFNE13.jpg,FN,3,num_2,32,num_4,0.916738378583,,,2017_Apr_26_1521,59.9967863549,FEMA4ImagesEEG,001,200216,
AFNE01.JPG,AFNE01.JPG,AFNE01.JPG,AFNE01.JPG,AFNE01.JPG,AFNE01.JPG,,,,,,,,,,,,,,,,,3,1,31,1,,,,,,,AFSA13.jpg,AFSA02.jpg,AFNE06.jpg,AFNE15.jpg,AFSA13.jpg,FS,4,num_8,16,num_8,0.866490110522,,,2017_Apr_26_1521,59.9967863549,FEMA4ImagesEEG,001,200216,
AFNE01.JPG,AFNE01.JPG,AFNE01.JPG,AFNE01.JPG,AFNE01.JPG,AFNE01.JPG,,,,,,,,,,,,,,,,,3,2,32,8,,,,,,,AFSA18.jpg,AFNE08.jpg,AFSA16.jpg,AFNE04.jpg,AFNE04.jpg,FN,3,num_4,16,num_4,1.08340178442,,,2017_Apr_26_1521,59.9967863549,FEMA4ImagesEEG,001,200216,
AFNE01.JPG,AFNE01.JPG,AFNE01.JPG,AFNE01.JPG,AFNE01.JPG,AFNE01.JPG,,,,,,,,,,,,,,,,,3,3,33,5,,,,,,,AFSA12.jpg,AFNE02.jpg,AFSA03.jpg,AFNE19.jpg,AFSA03.jpg,FS,4,num_2,32,num_8,0.783438893966,,,2017_Apr_26_1521,59.9967863549,FEMA4ImagesEEG,001,200216,
AFNE01.JPG,AFNE01.JPG,AFNE01.JPG,AFNE01.JPG,AFNE01.JPG,AFNE01.JPG,,,,,,,,,,,,,,,,,3,4,34,0,,,,,,,AFSA04.jpg,AFSA19.jpg,AFNE07.jpg,AFNE10.jpg,AFSA04.jpg,FS,4,num_8,32,num_4,1.75007144455,,,2017_Apr_26_1521,59.9967863549,FEMA4ImagesEEG,001,200216,
AFNE01.JPG,AFNE01.JPG,AFNE01.JPG,AFNE01.JPG,AFNE01.JPG,AFNE01.JPG,,,,,,,,,,,,,,,,,3,5,35,2,,,,,,,AFSA16.jpg,AFNE04.jpg,AFNE06.jpg,AFSA07.jpg,AFNE06.jpg,FN,3,num_2,32,num_6,1.20016235812,,,2017_Apr_26_1521,59.9967863549,FEMA4ImagesEEG,001,200216,
AFNE01.JPG,AFNE01.JPG,AFNE01.JPG,AFNE01.JPG,AFNE01.JPG,AFNE01.JPG,,,,,,,,,,,,,,,,,3,6,36,6,,,,,,,AFSA08.jpg,AFNE12.jpg,AFSA14.jpg,AFNE07.jpg,AFSA14.jpg,FS,4,num_2,16,num_2,0.900200750562,,,2017_Apr_26_1521,59.9967863549,FEMA4ImagesEEG,001,200216,
AFNE01.JPG,AFNE01.JPG,AFNE01.JPG,AFNE01.JPG,AFNE01.JPG,AFNE01.JPG,,,,,,,,,,,,,,,,,3,7,37,4,,,,,,,AFNE06.jpg,AFSA11.jpg,AFSA18.jpg,AFNE09.jpg,AFSA11.jpg,FS,4,num_6,16,num_6,0.683482482331,,,2017_Apr_26_1521,59.9967863549,FEMA4ImagesEEG,001,200216,
AFNE01.JPG,AFNE01.JPG,AFNE01.JPG,AFNE01.JPG,AFNE01.JPG,AFNE01.JPG,,,,,,,,,,,,,,,,,3,8,38,7,,,,,,,AFSA07.jpg,AFNE06.jpg,AFSA20.jpg,AFNE17.jpg,AFNE06.jpg,FN,3,num_6,32,num_4,0.71677455795,,,2017_Apr_26_1521,59.9967863549,FEMA4ImagesEEG,001,200216,
AFNE01.JPG,AFNE01.JPG,AFNE01.JPG,AFNE01.JPG,AFNE01.JPG,AFNE01.JPG,,,,,,,,,,,,,,,,,3,9,39,9,,,,,,,AFSA16.jpg,AFNE09.jpg,AFSA15.jpg,AFNE05.jpg,AFSA16.jpg,FS,4,num_8,32,num_6,1.36671318451,,,2017_Apr_26_1521,59.9967863549,FEMA4ImagesEEG,001,200216,
AFNE01.JPG,AFNE01.JPG,AFNE01.JPG,AFNE01.JPG,AFNE01.JPG,AFNE01.JPG,,,,,,,,,,,,,,,,,4,0,40,9,,,,,,,AFNE19.jpg,AFSA16.jpg,AFSA07.jpg,AFNE04.jpg,AFSA07.jpg,FS,4,num_2,32,num_4,1.21673141851,,,2017_Apr_26_1521,59.9967863549,FEMA4ImagesEEG,001,200216,
AFNE01.JPG,AFNE01.JPG,AFNE01.JPG,AFNE01.JPG,AFNE01.JPG,AFNE01.JPG,,,,,,,,,,,,,,,,,4,1,41,4,,,,,,,AFNE13.jpg,AFSA08.jpg,AFSA05.jpg,AFNE09.jpg,AFSA08.jpg,FS,4,num_6,32,num_2,1.3000610366,,,2017_Apr_26_1521,59.9967863549,FEMA4ImagesEEG,001,200216,
AFNE01.JPG,AFNE01.JPG,AFNE01.JPG,AFNE01.JPG,AFNE01.JPG,AFNE01.JPG,,,,,,,,,,,,,,,,,4,2,42,3,,,,,,,AFNE11.jpg,AFNE03.jpg,AFSA04.jpg,AFSA06.jpg,AFSA04.jpg,FS,4,num_2,32,num_8,0.583530561067,,,2017_Apr_26_1521,59.9967863549,FEMA4ImagesEEG,001,200216,
AFNE01.JPG,AFNE01.JPG,AFNE01.JPG,AFNE01.JPG,AFNE01.JPG,AFNE01.JPG,,,,,,,,,,,,,,,,,4,3,43,5,,,,,,,AFNE16.jpg,AFSA10.jpg,AFSA11.jpg,AFNE11.jpg,AFSA11.jpg,FS,4,num_2,32,num_4,0.683501085266,,,2017_Apr_26_1521,59.9967863549,FEMA4ImagesEEG,001,200216,
AFNE01.JPG,AFNE01.JPG,AFNE01.JPG,AFNE01.JPG,AFNE01.JPG,AFNE01.JPG,,,,,,,,,,,,,,,,,4,4,44,2,,,,,,,AFNE15.jpg,AFNE14.jpg,AFSA07.jpg,AFSA13.jpg,AFSA07.jpg,FS,4,num_2,32,num_8,0.850074042566,,,2017_Apr_26_1521,59.9967863549,FEMA4ImagesEEG,001,200216,
AFNE01.JPG,AFNE01.JPG,AFNE01.JPG,AFNE01.JPG,AFNE01.JPG,AFNE01.JPG,,,,,,,,,,,,,,,,,4,5,45,7,,,,,,,AFNE16.jpg,AFSA05.jpg,AFSA13.jpg,AFNE18.jpg,AFNE18.jpg,FN,3,num_4,32,num_6,0.200148887117,,,2017_Apr_26_1521,59.9967863549,FEMA4ImagesEEG,001,200216,
AFNE01.JPG,AFNE01.JPG,AFNE01.JPG,AFNE01.JPG,AFNE01.JPG,AFNE01.JPG,,,,,,,,,,,,,,,,,4,6,46,8,,,,,,,AFNE04.jpg,AFSA16.jpg,AFNE09.jpg,AFSA10.jpg,AFNE04.jpg,FN,3,num_8,32,num_4,1.23354167468,,,2017_Apr_26_1521,59.9967863549,FEMA4ImagesEEG,001,200216,
AFNE01.JPG,AFNE01.JPG,AFNE01.JPG,AFNE01.JPG,AFNE01.JPG,AFNE01.JPG,,,,,,,,,,,,,,,,,4,7,47,6,,,,,,,AFSA06.jpg,AFSA04.jpg,AFNE17.jpg,AFNE04.jpg,AFNE04.jpg,FN,3,num_4,16,num_4,0.75014008279,,,2017_Apr_26_1521,59.9967863549,FEMA4ImagesEEG,001,200216,
AFNE01.JPG,AFNE01.JPG,AFNE01.JPG,AFNE01.JPG,AFNE01.JPG,AFNE01.JPG,,,,,,,,,,,,,,,,,4,8,48,1,,,,,,,AFNE18.jpg,AFSA01.jpg,AFSA20.jpg,AFNE09.jpg,AFSA01.jpg,FS,4,num_6,16,num_6,1.03342774813,,,2017_Apr_26_1521,59.9967863549,FEMA4ImagesEEG,001,200216,
AFNE01.JPG,AFNE01.JPG,AFNE01.JPG,AFNE01.JPG,AFNE01.JPG,AFNE01.JPG,,,,,,,,,,,,,,,,,4,9,49,0,,,,,,,AFNE04.jpg,AFSA03.jpg,AFSA02.jpg,AFNE14.jpg,AFSA02.jpg,FS,4,num_2,32,num_4,1.37272191048,,,2017_Apr_26_1521,59.9967863549,FEMA4ImagesEEG,001,200216,
AFNE01.JPG,AFNE01.JPG,AFNE01.JPG,AFNE01.JPG,AFNE01.JPG,AFNE01.JPG,,,,,,,,,,,,,,,,,5,0,50,7,,,,,,,AFSA14.jpg,AFNE17.jpg,AFNE01.jpg,AFSA13.jpg,AFSA13.jpg,FS,4,num_4,16,num_4,0.716809839243,,,2017_Apr_26_1521,59.9967863549,FEMA4ImagesEEG,001,200216,
AFNE01.JPG,AFNE01.JPG,AFNE01.JPG,AFNE01.JPG,AFNE01.JPG,AFNE01.JPG,,,,,,,,,,,,,,,,,5,1,51,6,,,,,,,AFNE09.jpg,AFNE08.jpg,AFSA19.jpg,AFSA13.jpg,AFSA13.jpg,FS,4,num_4,32,num_6,1.21687350597,,,2017_Apr_26_1521,59.9967863549,FEMA4ImagesEEG,001,200216,
AFNE01.JPG,AFNE01.JPG,AFNE01.JPG,AFNE01.JPG,AFNE01.JPG,AFNE01.JPG,,,,,,,,,,,,,,,,,5,2,52,4,,,,,,,AFSA11.jpg,AFNE13.jpg,AFNE02.jpg,AFSA13.jpg,AFNE13.jpg,FN,3,num_6,16,num_6,1.23348297947,,,2017_Apr_26_1521,59.9967863549,FEMA4ImagesEEG,001,200216,
AFNE01.JPG,AFNE01.JPG,AFNE01.JPG,AFNE01.JPG,AFNE01.JPG,AFNE01.JPG,,,,,,,,,,,,,,,,,5,3,53,8,,,,,,,AFNE12.jpg,AFSA10.jpg,AFNE20.jpg,AFSA03.jpg,AFSA03.jpg,FS,4,num_4,16,num_4,1.80006376293,,,2017_Apr_26_1521,59.9967863549,FEMA4ImagesEEG,001,200216,
AFNE01.JPG,AFNE01.JPG,AFNE01.JPG,AFNE01.JPG,AFNE01.JPG,AFNE01.JPG,,,,,,,,,,,,,,,,,5,4,54,5,,,,,,,AFNE01.jpg,AFSA02.jpg,AFNE12.jpg,AFSA18.jpg,AFSA18.jpg,FS,4,num_4,16,num_4,1.23343262344,,,2017_Apr_26_1521,59.9967863549,FEMA4ImagesEEG,001,200216,
AFNE01.JPG,AFNE01.JPG,AFNE01.JPG,AFNE01.JPG,AFNE01.JPG,AFNE01.JPG,,,,,,,,,,,,,,,,,5,5,55,9,,,,,,,AFNE09.jpg,AFNE03.jpg,AFSA05.jpg,AFSA08.jpg,AFSA08.jpg,FS,4,num_4,32,num_2,1.23343005765,,,2017_Apr_26_1521,59.9967863549,FEMA4ImagesEEG,001,200216,
AFNE01.JPG,AFNE01.JPG,AFNE01.JPG,AFNE01.JPG,AFNE01.JPG,AFNE01.JPG,,,,,,,,,,,,,,,,,5,6,56,2,,,,,,,AFSA01.jpg,AFSA19.jpg,AFNE19.jpg,AFNE03.jpg,AFSA19.jpg,FS,4,num_6,16,num_6,0.583457111963,,,2017_Apr_26_1521,59.9967863549,FEMA4ImagesEEG,001,200216,
AFNE01.JPG,AFNE01.JPG,AFNE01.JPG,AFNE01.JPG,AFNE01.JPG,AFNE01.JPG,,,,,,,,,,,,,,,,,5,7,57,0,,,,,,,AFSA16.jpg,AFNE13.jpg,AFNE04.jpg,AFSA02.jpg,AFNE13.jpg,FN,3,num_6,16,num_6,0.700189460651,,,2017_Apr_26_1521,59.9967863549,FEMA4ImagesEEG,001,200216,
AFNE01.JPG,AFNE01.JPG,AFNE01.JPG,AFNE01.JPG,AFNE01.JPG,AFNE01.JPG,,,,,,,,,,,,,,,,,5,8,58,1,,,,,,,AFSA07.jpg,AFNE16.jpg,AFSA16.jpg,AFNE17.jpg,AFNE17.jpg,FN,3,num_4,16,num_4,0.850126964622,,,2017_Apr_26_1521,59.9967863549,FEMA4ImagesEEG,001,200216,
AFNE01.JPG,AFNE01.JPG,AFNE01.JPG,AFNE01.JPG,AFNE01.JPG,AFNE01.JPG,,,,,,,,,,,,,,,,,5,9,59,3,,,,,,,AFSA15.jpg,AFNE15.jpg,AFSA01.jpg,AFNE01.jpg,AFNE15.jpg,FN,3,num_6,16,num_6,0.88344630308,,,2017_Apr_26_1521,59.9967863549,FEMA4ImagesEEG,001,200216,
,,,,,,,,,,,,,,,,,,,,,,,,,,,,,,,,,,,,,,,,,,,space,28.4149026284,2017_Apr_26_1521,59.9967863549,FEMA4ImagesEEG,001,200216,
AFNE01.JPG,AFNE01.JPG,AFNE01.JPG,AFNE01.JPG,AFNE01.JPG,AFNE01.JPG,,,,,,,,,,,,,,,,,,,,,0,0,0,3,,,AMNE16.jpg,AMSA17.jpg,AMSA14.jpg,AMNE20.jpg,AMSA14.jpg,MS,2,num_2,16,num_2,1.20011136064,,,2017_Apr_26_1521,59.9967863549,FEMA4ImagesEEG,001,200216,
AFNE01.JPG,AFNE01.JPG,AFNE01.JPG,AFNE01.JPG,AFNE01.JPG,AFNE01.JPG,,,,,,,,,,,,,,,,,,,,,0,1,1,7,,,AMNE15.jpg,AMNE20.jpg,AMSA14.jpg,AMSA01.jpg,AMNE20.jpg,MN,1,num_6,16,num_6,0.833449815051,,,2017_Apr_26_1521,59.9967863549,FEMA4ImagesEEG,001,200216,
AFNE01.JPG,AFNE01.JPG,AFNE01.JPG,AFNE01.JPG,AFNE01.JPG,AFNE01.JPG,,,,,,,,,,,,,,,,,,,,,0,2,2,6,,,AMNE16.jpg,AMSA17.jpg,AMSA11.jpg,AMNE19.jpg,AMSA17.jpg,MS,2,num_6,16,num_6,0.69997296168,,,2017_Apr_26_1521,59.9967863549,FEMA4ImagesEEG,001,200216,
AFNE01.JPG,AFNE01.JPG,AFNE01.JPG,AFNE01.JPG,AFNE01.JPG,AFNE01.JPG,,,,,,,,,,,,,,,,,,,,,0,3,3,4,,,AMSA05.jpg,AMSA06.jpg,AMNE04.jpg,AMNE18.jpg,AMSA06.jpg,MS,2,num_6,32,num_4,1.28327130782,,,2017_Apr_26_1521,59.9967863549,FEMA4ImagesEEG,001,200216,
AFNE01.JPG,AFNE01.JPG,AFNE01.JPG,AFNE01.JPG,AFNE01.JPG,AFNE01.JPG,,,,,,,,,,,,,,,,,,,,,0,4,4,9,,,AMNE19.jpg,AMSA09.jpg,AMSA12.jpg,AMNE04.jpg,AMSA12.jpg,MS,2,num_2,32,num_6,1.41649060766,,,2017_Apr_26_1521,59.9967863549,FEMA4ImagesEEG,001,200216,
AFNE01.JPG,AFNE01.JPG,AFNE01.JPG,AFNE01.JPG,AFNE01.JPG,AFNE01.JPG,,,,,,,,,,,,,,,,,,,,,0,5,5,2,,,AMNE12.jpg,AMSA02.jpg,AMNE14.jpg,AMSA05.jpg,AMSA05.jpg,MS,2,num_4,32,num_8,1.66672354436,,,2017_Apr_26_1521,59.9967863549,FEMA4ImagesEEG,001,200216,
AFNE01.JPG,AFNE01.JPG,AFNE01.JPG,AFNE01.JPG,AFNE01.JPG,AFNE01.JPG,,,,,,,,,,,,,,,,,,,,,0,6,6,0,,,AMNE04.jpg,AMNE13.jpg,AMSA16.jpg,AMSA13.jpg,AMNE04.jpg,MN,1,num_8,16,num_8,1.14995514462,,,2017_Apr_26_1521,59.9967863549,FEMA4ImagesEEG,001,200216,
AFNE01.JPG,AFNE01.JPG,AFNE01.JPG,AFNE01.JPG,AFNE01.JPG,AFNE01.JPG,,,,,,,,,,,,,,,,,,,,,0,7,7,8,,,AMNE01.jpg,AMNE13.jpg,AMSA04.jpg,AMSA02.jpg,AMNE13.jpg,MN,1,num_6,16,num_6,1.3169922115,,,2017_Apr_26_1521,59.9967863549,FEMA4ImagesEEG,001,200216,
AFNE01.JPG,AFNE01.JPG,AFNE01.JPG,AFNE01.JPG,AFNE01.JPG,AFNE01.JPG,,,,,,,,,,,,,,,,,,,,,0,8,8,1,,,AMSA19.jpg,AMNE15.jpg,AMNE20.jpg,AMSA15.jpg,AMNE15.jpg,MN,1,num_6,16,num_6,0.96677207225,,,2017_Apr_26_1521,59.9967863549,FEMA4ImagesEEG,001,200216,
AFNE01.JPG,AFNE01.JPG,AFNE01.JPG,AFNE01.JPG,AFNE01.JPG,AFNE01.JPG,,,,,,,,,,,,,,,,,,,,,0,9,9,5,,,AMSA05.jpg,AMNE05.jpg,AMNE18.jpg,AMSA15.jpg,AMSA15.jpg,MS,2,num_4,16,num_4,0.816762722679,,,2017_Apr_26_1521,59.9967863549,FEMA4ImagesEEG,001,200216,
AFNE01.JPG,AFNE01.JPG,AFNE01.JPG,AFNE01.JPG,AFNE01.JPG,AFNE01.JPG,,,,,,,,,,,,,,,,,,,,,1,0,10,3,,,AMNE03.jpg,AMSA11.jpg,AMSA07.jpg,AMNE05.jpg,AMNE03.jpg,MN,1,num_8,16,num_8,2.3500414876,,,2017_Apr_26_1521,59.9967863549,FEMA4ImagesEEG,001,200216,
AFNE01.JPG,AFNE01.JPG,AFNE01.JPG,AFNE01.JPG,AFNE01.JPG,AFNE01.JPG,,,,,,,,,,,,,,,,,,,,,1,1,11,8,,,AMNE08.jpg,AMNE09.jpg,AMSA12.jpg,AMSA14.jpg,AMNE08.jpg,MN,1,num_8,32,num_6,1.00008884468,,,2017_Apr_26_1521,59.9967863549,FEMA4ImagesEEG,001,200216,
AFNE01.JPG,AFNE01.JPG,AFNE01.JPG,AFNE01.JPG,AFNE01.JPG,AFNE01.JPG,,,,,,,,,,,,,,,,,,,,,1,2,12,5,,,AMSA06.jpg,AMSA07.jpg,AMNE19.jpg,AMNE16.jpg,AMSA07.jpg,MS,2,num_6,32,num_8,0.86678134161,,,2017_Apr_26_1521,59.9967863549,FEMA4ImagesEEG,001,200216,
AFNE01.JPG,AFNE01.JPG,AFNE01.JPG,AFNE01.JPG,AFNE01.JPG,AFNE01.JPG,,,,,,,,,,,,,,,,,,,,,1,3,13,1,,,AMSA10.jpg,AMSA08.jpg,AMNE05.jpg,AMNE11.jpg,AMNE05.jpg,MN,1,num_2,32,num_4,1.30004403752,,,2017_Apr_26_1521,59.9967863549,FEMA4ImagesEEG,001,200216,
AFNE01.JPG,AFNE01.JPG,AFNE01.JPG,AFNE01.JPG,AFNE01.JPG,AFNE01.JPG,,,,,,,,,,,,,,,,,,,,,1,4,14,7,,,AMSA12.jpg,AMSA20.jpg,AMNE18.jpg,AMNE19.jpg,AMNE19.jpg,MN,1,num_4,32,num_6,0.900110302144,,,2017_Apr_26_1521,59.9967863549,FEMA4ImagesEEG,001,200216,
AFNE01.JPG,AFNE01.JPG,AFNE01.JPG,AFNE01.JPG,AFNE01.JPG,AFNE01.JPG,,,,,,,,,,,,,,,,,,,,,1,5,15,4,,,AMSA06.jpg,AMNE03.jpg,AMSA11.jpg,AMNE02.jpg,AMSA06.jpg,MS,2,num_8,32,num_6,0.950124751544,,,2017_Apr_26_1521,59.9967863549,FEMA4ImagesEEG,001,200216,
AFNE01.JPG,AFNE01.JPG,AFNE01.JPG,AFNE01.JPG,AFNE01.JPG,AFNE01.JPG,,,,,,,,,,,,,,,,,,,,,1,6,16,2,,,AMSA04.jpg,AMNE03.jpg,AMSA19.jpg,AMNE05.jpg,AMSA04.jpg,MS,2,num_8,32,num_4,0.966770468513,,,2017_Apr_26_1521,59.9967863549,FEMA4ImagesEEG,001,200216,
AFNE01.JPG,AFNE01.JPG,AFNE01.JPG,AFNE01.JPG,AFNE01.JPG,AFNE01.JPG,,,,,,,,,,,,,,,,,,,,,1,7,17,6,,,AMNE18.jpg,AMSA13.jpg,AMSA18.jpg,AMNE02.jpg,AMSA13.jpg,MS,2,num_6,32,num_2,1.08344059379,,,2017_Apr_26_1521,59.9967863549,FEMA4ImagesEEG,001,200216,
AFNE01.JPG,AFNE01.JPG,AFNE01.JPG,AFNE01.JPG,AFNE01.JPG,AFNE01.JPG,,,,,,,,,,,,,,,,,,,,,1,8,18,0,,,AMNE17.jpg,AMSA18.jpg,AMSA06.jpg,AMNE15.jpg,AMNE15.jpg,MN,1,num_4,32,num_8,1.6334042059,,,2017_Apr_26_1521,59.9967863549,FEMA4ImagesEEG,001,200216,
AFNE01.JPG,AFNE01.JPG,AFNE01.JPG,AFNE01.JPG,AFNE01.JPG,AFNE01.JPG,,,,,,,,,,,,,,,,,,,,,1,9,19,9,,,AMSA08.jpg,AMSA05.jpg,AMNE15.jpg,AMNE11.jpg,AMNE15.jpg,MN,1,num_2,16,num_2,1.16671472404,,,2017_Apr_26_1521,59.9967863549,FEMA4ImagesEEG,001,200216,
AFNE01.JPG,AFNE01.JPG,AFNE01.JPG,AFNE01.JPG,AFNE01.JPG,AFNE01.JPG,,,,,,,,,,,,,,,,,,,,,2,0,20,5,,,AMNE20.jpg,AMSA07.jpg,AMSA06.jpg,AMNE06.jpg,AMNE20.jpg,MN,1,num_8,16,num_8,0.749785345397,,,2017_Apr_26_1521,59.9967863549,FEMA4ImagesEEG,001,200216,
AFNE01.JPG,AFNE01.JPG,AFNE01.JPG,AFNE01.JPG,AFNE01.JPG,AFNE01.JPG,,,,,,,,,,,,,,,,,,,,,2,1,21,7,,,AMNE11.jpg,AMSA02.jpg,AMNE04.jpg,AMSA20.jpg,AMNE11.jpg,MN,1,num_8,32,num_6,1.51670521416,,,2017_Apr_26_1521,59.9967863549,FEMA4ImagesEEG,001,200216,
AFNE01.JPG,AFNE01.JPG,AFNE01.JPG,AFNE01.JPG,AFNE01.JPG,AFNE01.JPG,,,,,,,,,,,,,,,,,,,,,2,2,22,9,,,AMSA14.jpg,AMNE13.jpg,AMNE17.jpg,AMSA02.jpg,AMSA02.jpg,MS,2,num_4,16,num_4,0.650079431012,,,2017_Apr_26_1521,59.9967863549,FEMA4ImagesEEG,001,200216,
AFNE01.JPG,AFNE01.JPG,AFNE01.JPG,AFNE01.JPG,AFNE01.JPG,AFNE01.JPG,,,,,,,,,,,,,,,,,,,,,2,3,23,3,,,AMSA12.jpg,AMSA16.jpg,AMNE04.jpg,AMNE10.jpg,AMNE10.jpg,MN,1,num_4,32,num_6,0.649940551026,,,2017_Apr_26_1521,59.9967863549,FEMA4ImagesEEG,001,200216,
AFNE01.JPG,AFNE01.JPG,AFNE01.JPG,AFNE01.JPG,AFNE01.JPG,AFNE01.JPG,,,,,,,,,,,,,,,,,,,,,2,4,24,2,,,AMNE16.jpg,AMSA04.jpg,AMNE17.jpg,AMSA07.jpg,AMSA07.jpg,MS,2,num_4,16,num_4,0.833452380961,,,2017_Apr_26_1521,59.9967863549,FEMA4ImagesEEG,001,200216,
AFNE01.JPG,AFNE01.JPG,AFNE01.JPG,AFNE01.JPG,AFNE01.JPG,AFNE01.JPG,,,,,,,,,,,,,,,,,,,,,2,5,25,8,,,AMSA17.jpg,AMNE07.jpg,AMNE11.jpg,AMSA11.jpg,AMSA17.jpg,MS,2,num_8,16,num_8,0.88347164134,,,2017_Apr_26_1521,59.9967863549,FEMA4ImagesEEG,001,200216,
AFNE01.JPG,AFNE01.JPG,AFNE01.JPG,AFNE01.JPG,AFNE01.JPG,AFNE01.JPG,,,,,,,,,,,,,,,,,,,,,2,6,26,6,,,AMSA04.jpg,AMNE03.jpg,AMSA08.jpg,AMNE17.jpg,AMSA04.jpg,MS,2,num_8,32,num_6,1.2166605352,,,2017_Apr_26_1521,59.9967863549,FEMA4ImagesEEG,001,200216,
AFNE01.JPG,AFNE01.JPG,AFNE01.JPG,AFNE01.JPG,AFNE01.JPG,AFNE01.JPG,,,,,,,,,,,,,,,,,,,,,2,7,27,4,,,AMSA19.jpg,AMNE11.jpg,AMSA12.jpg,AMNE19.jpg,AMSA19.jpg,MS,2,num_8,32,num_4,1.10013666691,,,2017_Apr_26_1521,59.9967863549,FEMA4ImagesEEG,001,200216,
AFNE01.JPG,AFNE01.JPG,AFNE01.JPG,AFNE01.JPG,AFNE01.JPG,AFNE01.JPG,,,,,,,,,,,,,,,,,,,,,2,8,28,0,,,AMSA05.jpg,AMSA08.jpg,AMNE11.jpg,AMNE13.jpg,AMSA05.jpg,MS,2,num_8,16,num_8,0.516781870741,,,2017_Apr_26_1521,59.9967863549,FEMA4ImagesEEG,001,200216,
AFNE01.JPG,AFNE01.JPG,AFNE01.JPG,AFNE01.JPG,AFNE01.JPG,AFNE01.JPG,,,,,,,,,,,,,,,,,,,,,2,9,29,1,,,AMNE03.jpg,AMNE02.jpg,AMSA01.jpg,AMSA09.jpg,AMNE02.jpg,MN,1,num_6,32,num_2,0.916740623768,,,2017_Apr_26_1521,59.9967863549,FEMA4ImagesEEG,001,200216,
AFNE01.JPG,AFNE01.JPG,AFNE01.JPG,AFNE01.JPG,AFNE01.JPG,AFNE01.JPG,,,,,,,,,,,,,,,,,,,,,3,0,30,0,,,AMSA02.jpg,AMSA07.jpg,AMNE16.jpg,AMNE05.jpg,AMNE16.jpg,MN,1,num_2,16,num_2,1.03343929478,,,2017_Apr_26_1521,59.9967863549,FEMA4ImagesEEG,001,200216,
AFNE01.JPG,AFNE01.JPG,AFNE01.JPG,AFNE01.JPG,AFNE01.JPG,AFNE01.JPG,,,,,,,,,,,,,,,,,,,,,3,1,31,5,,,AMNE05.jpg,AMSA15.jpg,AMSA14.jpg,AMNE19.jpg,AMNE05.jpg,MN,1,num_8,32,num_6,0.91672619048,,,2017_Apr_26_1521,59.9967863549,FEMA4ImagesEEG,001,200216,
AFNE01.JPG,AFNE01.JPG,AFNE01.JPG,AFNE01.JPG,AFNE01.JPG,AFNE01.JPG,,,,,,,,,,,,,,,,,,,,,3,2,32,9,,,AMNE12.jpg,AMNE01.jpg,AMSA02.jpg,AMSA08.jpg,AMNE01.jpg,MN,1,num_6,32,num_2,1.41672570934,,,2017_Apr_26_1521,59.9967863549,FEMA4ImagesEEG,001,200216,
AFNE01.JPG,AFNE01.JPG,AFNE01.JPG,AFNE01.JPG,AFNE01.JPG,AFNE01.JPG,,,,,,,,,,,,,,,,,,,,,3,3,33,4,,,AMSA03.jpg,AMNE03.jpg,AMNE16.jpg,AMSA12.jpg,AMNE03.jpg,MN,1,num_6,16,num_6,0.716763332137,,,2017_Apr_26_1521,59.9967863549,FEMA4ImagesEEG,001,200216,
AFNE01.JPG,AFNE01.JPG,AFNE01.JPG,AFNE01.JPG,AFNE01.JPG,AFNE01.JPG,,,,,,,,,,,,,,,,,,,,,3,4,34,7,,,AMNE11.jpg,AMSA11.jpg,AMNE03.jpg,AMSA02.jpg,AMSA11.jpg,MS,2,num_6,32,num_4,0.316902725259,,,2017_Apr_26_1521,59.9967863549,FEMA4ImagesEEG,001,200216,
AFNE01.JPG,AFNE01.JPG,AFNE01.JPG,AFNE01.JPG,AFNE01.JPG,AFNE01.JPG,,,,,,,,,,,,,,,,,,,,,3,5,35,1,,,AMNE07.jpg,AMSA19.jpg,AMSA11.jpg,AMNE02.jpg,AMNE02.jpg,MN,1,num_4,32,num_8,2.33333290566,,,2017_Apr_26_1521,59.9967863549,FEMA4ImagesEEG,001,200216,
AFNE01.JPG,AFNE01.JPG,AFNE01.JPG,AFNE01.JPG,AFNE01.JPG,AFNE01.JPG,,,,,,,,,,,,,,,,,,,,,3,6,36,2,,,AMSA14.jpg,AMSA06.jpg,AMNE13.jpg,AMNE06.jpg,AMSA14.jpg,MS,2,num_8,16,num_8,0.816764967865,,,2017_Apr_26_1521,59.9967863549,FEMA4ImagesEEG,001,200216,
AFNE01.JPG,AFNE01.JPG,AFNE01.JPG,AFNE01.JPG,AFNE01.JPG,AFNE01.JPG,,,,,,,,,,,,,,,,,,,,,3,7,37,8,,,AMNE09.jpg,AMNE13.jpg,AMSA07.jpg,AMSA12.jpg,AMNE09.jpg,MN,1,num_8,32,num_6,0.633418318466,,,2017_Apr_26_1521,59.9967863549,FEMA4ImagesEEG,001,200216,
AFNE01.JPG,AFNE01.JPG,AFNE01.JPG,AFNE01.JPG,AFNE01.JPG,AFNE01.JPG,,,,,,,,,,,,,,,,,,,,,3,8,38,6,,,AMSA16.jpg,AMNE11.jpg,AMSA08.jpg,AMNE10.jpg,AMNE10.jpg,MN,1,num_4,32,num_6,0.616823278251,,,2017_Apr_26_1521,59.9967863549,FEMA4ImagesEEG,001,200216,
