IPosition2,IPosition3,IPosition1,IPosition6,IPosition4,IPosition5,TrialsM1.thisRepN,TrialsM1.thisTrialN,TrialsM1.thisN,TrialsM1.thisIndex,TrialsF1.thisRepN,TrialsF1.thisTrialN,TrialsF1.thisN,TrialsF1.thisIndex,TrialsM2.thisRepN,TrialsM2.thisTrialN,TrialsM2.thisN,TrialsM2.thisIndex,TrialsF2.thisRepN,TrialsF2.thisTrialN,TrialsF2.thisN,TrialsF2.thisIndex,TrialsM3.thisRepN,TrialsM3.thisTrialN,TrialsM3.thisN,TrialsM3.thisIndex,TrialsF3.thisRepN,TrialsF3.thisTrialN,TrialsF3.thisN,TrialsF3.thisIndex,InstrKey_resp.keys,InstrKey_resp.rt,Image0 _Position,Image1 _Position,Image2 _Position,Image3 _Position,Center_image,condition,code,correct_answer,accuracy,Key_Resp.keys,Key_Resp.rt,BreakKey_resp.keys,BreakKey_resp.rt,date,frameRate,expName,session,participant,
,,,,,,,,,,,,,,,,,,,,,,,,,,,,,,space,63.4787755723,,,,,,,,,,,,,,2017_May_05_1238,60.0151491407,MAFE4ImagesEEG,001,200277,
AFSA21.JPG,AFNE23.JPG,AFNE21.JPG,AFSA25.JPG,AFNE25.JPG,AFSA23.JPG,0,0,0,4,,,,,,,,,,,,,,,,,,,,,,,AMNE04.jpg,AMSA06.jpg,AMNE18.jpg,AMSA05.jpg,AMSA05.jpg,MS,2,num_4,32,num_2,3.11659122352,,,2017_May_05_1238,60.0151491407,MAFE4ImagesEEG,001,200277,
AMSA25.JPG,AMNE24.JPG,AMSA24.JPG,AMNE26.JPG,AMSA21.JPG,AMNE25.JPG,0,1,1,3,,,,,,,,,,,,,,,,,,,,,,,AMSA08.jpg,AMNE17.jpg,AMNE06.jpg,AMSA13.jpg,AMSA08.jpg,MS,2,num_8,16,num_8,1.73339782329,,,2017_May_05_1238,60.0151491407,MAFE4ImagesEEG,001,200277,
AMSA21.JPG,AMNE23.JPG,AMNE21.JPG,AMSA25.JPG,AMNE25.JPG,AMSA23.JPG,0,2,2,5,,,,,,,,,,,,,,,,,,,,,,,AMSA20.jpg,AMSA02.jpg,AMNE01.jpg,AMNE15.jpg,AMNE01.jpg,MN,1,num_2,32,num_6,1.03345629387,,,2017_May_05_1238,60.0151491407,MAFE4ImagesEEG,001,200277,
AMNE22.JPG,AMSA24.JPG,AMSA22.JPG,AMNE25.JPG,AMNE24.JPG,AMSA25.JPG,0,3,3,7,,,,,,,,,,,,,,,,,,,,,,,AMNE06.jpg,AMSA17.jpg,AMSA15.jpg,AMNE12.jpg,AMSA15.jpg,MS,2,num_2,16,num_2,0.983362301486,,,2017_May_05_1238,60.0151491407,MAFE4ImagesEEG,001,200277,
AMNE23.JPG,AMNE24.JPG,AMNE22.JPG,AMSA24.JPG,AMSA22.JPG,AMSA23.JPG,0,4,4,9,,,,,,,,,,,,,,,,,,,,,,,AMSA08.jpg,AMNE11.jpg,AMSA11.jpg,AMNE19.jpg,AMSA11.jpg,MS,2,num_2,32,num_4,0.850153906504,,,2017_May_05_1238,60.0151491407,MAFE4ImagesEEG,001,200277,
AFSA25.JPG,AFNE24.JPG,AFSA24.JPG,AFNE21.JPG,AFSA21.JPG,AFNE25.JPG,0,5,5,2,,,,,,,,,,,,,,,,,,,,,,,AMNE15.jpg,AMNE19.jpg,AMSA11.jpg,AMSA04.jpg,AMSA04.jpg,MS,2,num_4,16,num_4,1.7834273472,,,2017_May_05_1238,60.0151491407,MAFE4ImagesEEG,001,200277,
AFNE23.JPG,AFNE24.JPG,AFNE22.JPG,AFSA24.JPG,AFSA22.JPG,AFSA23.JPG,0,6,6,8,,,,,,,,,,,,,,,,,,,,,,,AMNE17.jpg,AMSA17.jpg,AMSA07.jpg,AMNE18.jpg,AMNE18.jpg,MN,1,num_4,32,num_8,1.49977949192,,,2017_May_05_1238,60.0151491407,MAFE4ImagesEEG,001,200277,
AFSA21.JPG,AFNE22.JPG,AFNE21.JPG,AFSA23.JPG,AFSA22.JPG,AFNE23.JPG,0,7,7,0,,,,,,,,,,,,,,,,,,,,,,,AMSA11.jpg,AMNE15.jpg,AMSA10.jpg,AMNE18.jpg,AMNE18.jpg,MN,1,num_4,32,num_6,1.35017010383,,,2017_May_05_1238,60.0151491407,MAFE4ImagesEEG,001,200277,
AFNE22.JPG,AFSA24.JPG,AFSA22.JPG,AFNE25.JPG,AFNE24.JPG,AFSA25.JPG,0,8,8,6,,,,,,,,,,,,,,,,,,,,,,,AMNE20.jpg,AMSA01.jpg,AMSA05.jpg,AMNE07.jpg,AMSA01.jpg,MS,2,num_6,32,num_2,1.3666846389,,,2017_May_05_1238,60.0151491407,MAFE4ImagesEEG,001,200277,
AMSA21.JPG,AMNE22.JPG,AMNE21.JPG,AMSA23.JPG,AMSA22.JPG,AMNE23.JPG,0,9,9,1,,,,,,,,,,,,,,,,,,,,,,,AMNE09.jpg,AMNE08.jpg,AMSA07.jpg,AMSA18.jpg,AMSA07.jpg,MS,2,num_2,16,num_2,2.48337240471,,,2017_May_05_1238,60.0151491407,MAFE4ImagesEEG,001,200277,
AMSA21.JPG,AMNE23.JPG,AMNE21.JPG,AMSA25.JPG,AMNE25.JPG,AMSA23.JPG,,,,,0,0,0,5,,,,,,,,,,,,,,,,,,,AFSA09.jpg,AFNE11.jpg,AFSA05.jpg,AFNE15.jpg,AFSA09.jpg,FS,4,num_8,32,num_4,1.73338531447,,,2017_May_05_1238,60.0151491407,MAFE4ImagesEEG,001,200277,
AMSA25.JPG,AMNE24.JPG,AMSA24.JPG,AMNE26.JPG,AMSA21.JPG,AMNE25.JPG,,,,,0,1,1,3,,,,,,,,,,,,,,,,,,,AFNE15.jpg,AFSA02.jpg,AFNE20.jpg,AFSA10.jpg,AFSA10.jpg,FS,4,num_4,16,num_4,1.88344502007,,,2017_May_05_1238,60.0151491407,MAFE4ImagesEEG,001,200277,
AMSA21.JPG,AMNE22.JPG,AMNE21.JPG,AMSA23.JPG,AMSA22.JPG,AMNE23.JPG,,,,,0,2,2,1,,,,,,,,,,,,,,,,,,,AFNE13.jpg,AFSA10.jpg,AFSA12.jpg,AFNE04.jpg,AFSA12.jpg,FS,4,num_2,16,num_2,1.86681149108,,,2017_May_05_1238,60.0151491407,MAFE4ImagesEEG,001,200277,
AFNE22.JPG,AFSA24.JPG,AFSA22.JPG,AFNE25.JPG,AFNE24.JPG,AFSA25.JPG,,,,,0,3,3,6,,,,,,,,,,,,,,,,,,,AFSA02.jpg,AFNE19.jpg,AFSA06.jpg,AFNE12.jpg,AFSA06.jpg,FS,4,num_2,32,num_8,2.59984784131,,,2017_May_05_1238,60.0151491407,MAFE4ImagesEEG,001,200277,
AFSA21.JPG,AFNE22.JPG,AFNE21.JPG,AFSA23.JPG,AFSA22.JPG,AFNE23.JPG,,,,,0,4,4,0,,,,,,,,,,,,,,,,,,,AFNE11.jpg,AFSA15.jpg,AFSA19.jpg,AFNE04.jpg,AFSA19.jpg,FS,4,num_2,16,num_2,2.16662620008,,,2017_May_05_1238,60.0151491407,MAFE4ImagesEEG,001,200277,
AMNE23.JPG,AMNE24.JPG,AMNE22.JPG,AMSA24.JPG,AMSA22.JPG,AMSA23.JPG,,,,,0,5,5,9,,,,,,,,,,,,,,,,,,,AFSA10.jpg,AFNE14.jpg,AFSA11.jpg,AFNE19.jpg,AFSA11.jpg,FS,4,num_2,16,num_2,1.56658912264,,,2017_May_05_1238,60.0151491407,MAFE4ImagesEEG,001,200277,
AFNE23.JPG,AFNE24.JPG,AFNE22.JPG,AFSA24.JPG,AFSA22.JPG,AFSA23.JPG,,,,,0,6,6,8,,,,,,,,,,,,,,,,,,,AFSA15.jpg,AFNE03.jpg,AFSA01.jpg,AFNE19.jpg,AFSA01.jpg,FS,4,num_2,32,num_4,2.86660108622,,,2017_May_05_1238,60.0151491407,MAFE4ImagesEEG,001,200277,
AFSA21.JPG,AFNE23.JPG,AFNE21.JPG,AFSA25.JPG,AFNE25.JPG,AFSA23.JPG,,,,,0,7,7,4,,,,,,,,,,,,,,,,,,,AFNE19.jpg,AFSA13.jpg,AFSA08.jpg,AFNE15.jpg,AFNE15.jpg,FN,3,num_4,32,num_8,2.91704885405,,,2017_May_05_1238,60.0151491407,MAFE4ImagesEEG,001,200277,
AMNE22.JPG,AMSA24.JPG,AMSA22.JPG,AMNE25.JPG,AMNE24.JPG,AMSA25.JPG,,,,,0,8,8,7,,,,,,,,,,,,,,,,,,,AFNE02.jpg,AFNE04.jpg,AFSA02.jpg,AFSA03.jpg,AFSA02.jpg,FS,4,num_2,32,num_4,2.21664064936,,,2017_May_05_1238,60.0151491407,MAFE4ImagesEEG,001,200277,
AFSA25.JPG,AFNE24.JPG,AFSA24.JPG,AFNE21.JPG,AFSA21.JPG,AFNE25.JPG,,,,,0,9,9,2,,,,,,,,,,,,,,,,,,,AFNE17.jpg,AFSA09.jpg,AFNE18.jpg,AFSA08.jpg,AFSA09.jpg,FS,4,num_6,32,num_4,2.18331746222,,,2017_May_05_1238,60.0151491407,MAFE4ImagesEEG,001,200277,
AFNE23.JPG,AFNE24.JPG,AFNE22.JPG,AFSA24.JPG,AFSA22.JPG,AFSA23.JPG,,,,,,,,,0,0,0,8,,,,,,,,,,,,,,,AMSA03.jpg,AMNE02.jpg,AMNE10.jpg,AMSA16.jpg,AMNE02.jpg,MN,1,num_6,16,num_6,0.966919612372,,,2017_May_05_1238,60.0151491407,MAFE4ImagesEEG,001,200277,
AFSA21.JPG,AFNE23.JPG,AFNE21.JPG,AFSA25.JPG,AFNE25.JPG,AFSA23.JPG,,,,,,,,,0,1,1,4,,,,,,,,,,,,,,,AMSA03.jpg,AMSA06.jpg,AMNE14.jpg,AMNE10.jpg,AMSA06.jpg,MS,2,num_6,16,num_6,0.816767213168,,,2017_May_05_1238,60.0151491407,MAFE4ImagesEEG,001,200277,
AMNE23.JPG,AMNE24.JPG,AMNE22.JPG,AMSA24.JPG,AMSA22.JPG,AMSA23.JPG,,,,,,,,,0,2,2,9,,,,,,,,,,,,,,,AMSA14.jpg,AMNE18.jpg,AMSA06.jpg,AMNE07.jpg,AMSA06.jpg,MS,2,num_2,16,num_2,3.49987924169,,,2017_May_05_1238,60.0151491407,MAFE4ImagesEEG,001,200277,
AFSA21.JPG,AFNE22.JPG,AFNE21.JPG,AFSA23.JPG,AFSA22.JPG,AFNE23.JPG,,,,,,,,,0,3,3,0,,,,,,,,,,,,,,,AMSA15.jpg,AMNE11.jpg,AMSA12.jpg,AMNE01.jpg,AMNE01.jpg,MN,1,num_4,16,num_4,1.1168324193,,,2017_May_05_1238,60.0151491407,MAFE4ImagesEEG,001,200277,
AMSA21.JPG,AMNE22.JPG,AMNE21.JPG,AMSA23.JPG,AMSA22.JPG,AMNE23.JPG,,,,,,,,,0,4,4,1,,,,,,,,,,,,,,,AMSA19.jpg,AMNE10.jpg,AMSA12.jpg,AMNE19.jpg,AMSA19.jpg,MS,2,num_8,16,num_8,1.66667671641,,,2017_May_05_1238,60.0151491407,MAFE4ImagesEEG,001,200277,
AMNE22.JPG,AMSA24.JPG,AMSA22.JPG,AMNE25.JPG,AMNE24.JPG,AMSA25.JPG,,,,,,,,,0,5,5,7,,,,,,,,,,,,,,,AMSA10.jpg,AMNE02.jpg,AMNE17.jpg,AMSA06.jpg,AMSA06.jpg,MS,2,num_4,32,num_2,2.46666318132,,,2017_May_05_1238,60.0151491407,MAFE4ImagesEEG,001,200277,
AFSA25.JPG,AFNE24.JPG,AFSA24.JPG,AFNE21.JPG,AFSA21.JPG,AFNE25.JPG,,,,,,,,,0,6,6,2,,,,,,,,,,,,,,,AMSA14.jpg,AMSA05.jpg,AMNE10.jpg,AMNE19.jpg,AMSA05.jpg,MS,2,num_6,32,num_4,1.70003967546,,,2017_May_05_1238,60.0151491407,MAFE4ImagesEEG,001,200277,
AMSA21.JPG,AMNE23.JPG,AMNE21.JPG,AMSA25.JPG,AMNE25.JPG,AMSA23.JPG,,,,,,,,,0,7,7,5,,,,,,,,,,,,,,,AMSA14.jpg,AMNE02.jpg,AMSA03.jpg,AMNE08.jpg,AMNE08.jpg,MN,1,num_4,32,num_8,1.58342343429,,,2017_May_05_1238,60.0151491407,MAFE4ImagesEEG,001,200277,
AMSA25.JPG,AMNE24.JPG,AMSA24.JPG,AMNE26.JPG,AMSA21.JPG,AMNE25.JPG,,,,,,,,,0,8,8,3,,,,,,,,,,,,,,,AMSA14.jpg,AMNE13.jpg,AMSA08.jpg,AMNE04.jpg,AMSA14.jpg,MS,2,num_8,32,num_6,1.76667418261,,,2017_May_05_1238,60.0151491407,MAFE4ImagesEEG,001,200277,
AFNE22.JPG,AFSA24.JPG,AFSA22.JPG,AFNE25.JPG,AFNE24.JPG,AFSA25.JPG,,,,,,,,,0,9,9,6,,,,,,,,,,,,,,,AMNE03.jpg,AMSA09.jpg,AMNE01.jpg,AMSA07.jpg,AMSA07.jpg,MS,2,num_4,32,num_2,2.25008186861,,,2017_May_05_1238,60.0151491407,MAFE4ImagesEEG,001,200277,
AMNE23.JPG,AMNE24.JPG,AMNE22.JPG,AMSA24.JPG,AMSA22.JPG,AMSA23.JPG,,,,,,,,,,,,,0,0,0,9,,,,,,,,,,,AFNE10.jpg,AFSA17.jpg,AFNE20.jpg,AFSA10.jpg,AFNE20.jpg,FN,3,num_2,32,num_4,2.0166569429,,,2017_May_05_1238,60.0151491407,MAFE4ImagesEEG,001,200277,
AFNE22.JPG,AFSA24.JPG,AFSA22.JPG,AFNE25.JPG,AFNE24.JPG,AFSA25.JPG,,,,,,,,,,,,,0,1,1,6,,,,,,,,,,,AFNE20.jpg,AFSA20.jpg,AFNE08.jpg,AFSA05.jpg,AFNE20.jpg,FN,3,num_8,16,num_8,1.13347589108,,,2017_May_05_1238,60.0151491407,MAFE4ImagesEEG,001,200277,
AMNE22.JPG,AMSA24.JPG,AMSA22.JPG,AMNE25.JPG,AMNE24.JPG,AMSA25.JPG,,,,,,,,,,,,,0,2,2,7,,,,,,,,,,,AFNE10.jpg,AFNE19.jpg,AFSA14.jpg,AFSA03.jpg,AFNE19.jpg,FN,3,num_6,32,num_2,2.48331787926,,,2017_May_05_1238,60.0151491407,MAFE4ImagesEEG,001,200277,
AMSA25.JPG,AMNE24.JPG,AMSA24.JPG,AMNE26.JPG,AMSA21.JPG,AMNE25.JPG,,,,,,,,,,,,,0,3,3,3,,,,,,,,,,,AFSA01.jpg,AFSA02.jpg,AFNE18.jpg,AFNE12.jpg,AFNE18.jpg,FN,3,num_2,32,num_8,2.86655201297,,,2017_May_05_1238,60.0151491407,MAFE4ImagesEEG,001,200277,
AFSA21.JPG,AFNE22.JPG,AFNE21.JPG,AFSA23.JPG,AFSA22.JPG,AFNE23.JPG,,,,,,,,,,,,,0,4,4,0,,,,,,,,,,,AFNE11.jpg,AFSA01.jpg,AFNE18.jpg,AFSA03.jpg,AFNE18.jpg,FN,3,num_2,32,num_4,1.0834601589,,,2017_May_05_1238,60.0151491407,MAFE4ImagesEEG,001,200277,
AFNE23.JPG,AFNE24.JPG,AFNE22.JPG,AFSA24.JPG,AFSA22.JPG,AFSA23.JPG,,,,,,,,,,,,,0,5,5,8,,,,,,,,,,,AFNE14.jpg,AFNE11.jpg,AFSA18.jpg,AFSA14.jpg,AFSA14.jpg,FS,4,num_4,16,num_4,0.833468097262,,,2017_May_05_1238,60.0151491407,MAFE4ImagesEEG,001,200277,
AMSA21.JPG,AMNE23.JPG,AMNE21.JPG,AMSA25.JPG,AMNE25.JPG,AMSA23.JPG,,,,,,,,,,,,,0,6,6,5,,,,,,,,,,,AFNE18.jpg,AFSA12.jpg,AFSA17.jpg,AFNE20.jpg,AFSA12.jpg,FS,4,num_6,16,num_6,0.766759499209,,,2017_May_05_1238,60.0151491407,MAFE4ImagesEEG,001,200277,
AFSA21.JPG,AFNE23.JPG,AFNE21.JPG,AFSA25.JPG,AFNE25.JPG,AFSA23.JPG,,,,,,,,,,,,,0,7,7,4,,,,,,,,,,,AFSA11.jpg,AFSA13.jpg,AFNE20.jpg,AFNE02.jpg,AFSA11.jpg,FS,4,num_8,32,num_2,2.06662680954,,,2017_May_05_1238,60.0151491407,MAFE4ImagesEEG,001,200277,
AFSA25.JPG,AFNE24.JPG,AFSA24.JPG,AFNE21.JPG,AFSA21.JPG,AFNE25.JPG,,,,,,,,,,,,,0,8,8,2,,,,,,,,,,,AFSA06.jpg,AFNE09.jpg,AFNE11.jpg,AFSA02.jpg,AFSA06.jpg,FS,4,num_8,16,num_8,3.23324370827,,,2017_May_05_1238,60.0151491407,MAFE4ImagesEEG,001,200277,
AMSA21.JPG,AMNE22.JPG,AMNE21.JPG,AMSA23.JPG,AMSA22.JPG,AMNE23.JPG,,,,,,,,,,,,,0,9,9,1,,,,,,,,,,,AFNE03.jpg,AFSA20.jpg,AFSA13.jpg,AFNE17.jpg,AFNE03.jpg,FN,3,num_8,32,num_4,3.21655918169,,,2017_May_05_1238,60.0151491407,MAFE4ImagesEEG,001,200277,
AFSA21.JPG,AFNE22.JPG,AFNE21.JPG,AFSA23.JPG,AFSA22.JPG,AFNE23.JPG,,,,,,,,,,,,,,,,,0,0,0,0,,,,,,,AMSA04.jpg,AMSA18.jpg,AMNE03.jpg,AMNE20.jpg,AMNE03.jpg,MN,1,num_2,32,num_4,2.166656991,,,2017_May_05_1238,60.0151491407,MAFE4ImagesEEG,001,200277,
AFNE23.JPG,AFNE24.JPG,AFNE22.JPG,AFSA24.JPG,AFSA22.JPG,AFSA23.JPG,,,,,,,,,,,,,,,,,0,1,1,8,,,,,,,AMNE13.jpg,AMSA04.jpg,AMNE05.jpg,AMSA15.jpg,AMNE05.jpg,MN,1,num_2,16,num_2,1.71667095926,,,2017_May_05_1238,60.0151491407,MAFE4ImagesEEG,001,200277,
AFNE22.JPG,AFSA24.JPG,AFSA22.JPG,AFNE25.JPG,AFNE24.JPG,AFSA25.JPG,,,,,,,,,,,,,,,,,0,2,2,6,,,,,,,AMNE05.jpg,AMSA16.jpg,AMNE17.jpg,AMSA13.jpg,AMSA13.jpg,MS,2,num_4,16,num_4,1.71669437317,,,2017_May_05_1238,60.0151491407,MAFE4ImagesEEG,001,200277,
AFSA25.JPG,AFNE24.JPG,AFSA24.JPG,AFNE21.JPG,AFSA21.JPG,AFNE25.JPG,,,,,,,,,,,,,,,,,0,3,3,2,,,,,,,AMSA17.jpg,AMSA15.jpg,AMNE02.jpg,AMNE16.jpg,AMSA15.jpg,MS,2,num_6,16,num_6,2.1166800682,,,2017_May_05_1238,60.0151491407,MAFE4ImagesEEG,001,200277,
AMSA25.JPG,AMNE24.JPG,AMSA24.JPG,AMNE26.JPG,AMSA21.JPG,AMNE25.JPG,,,,,,,,,,,,,,,,,0,4,4,3,,,,,,,AMNE09.jpg,AMNE01.jpg,AMSA11.jpg,AMSA06.jpg,AMNE09.jpg,MN,1,num_8,16,num_8,1.03342325776,,,2017_May_05_1238,60.0151491407,MAFE4ImagesEEG,001,200277,
AMSA21.JPG,AMNE23.JPG,AMNE21.JPG,AMSA25.JPG,AMNE25.JPG,AMSA23.JPG,,,,,,,,,,,,,,,,,0,5,5,5,,,,,,,AMSA12.jpg,AMNE08.jpg,AMSA19.jpg,AMNE07.jpg,AMSA19.jpg,MS,2,num_2,32,num_4,2.46685241722,,,2017_May_05_1238,60.0151491407,MAFE4ImagesEEG,001,200277,
AMNE23.JPG,AMNE24.JPG,AMNE22.JPG,AMSA24.JPG,AMSA22.JPG,AMSA23.JPG,,,,,,,,,,,,,,,,,0,6,6,9,,,,,,,AMSA15.jpg,AMNE04.jpg,AMNE14.jpg,AMSA09.jpg,AMNE14.jpg,MN,1,num_2,16,num_2,1.76669599279,,,2017_May_05_1238,60.0151491407,MAFE4ImagesEEG,001,200277,
AMSA21.JPG,AMNE22.JPG,AMNE21.JPG,AMSA23.JPG,AMSA22.JPG,AMNE23.JPG,,,,,,,,,,,,,,,,,0,7,7,1,,,,,,,AMSA01.jpg,AMSA13.jpg,AMNE12.jpg,AMNE02.jpg,AMSA01.jpg,MS,2,num_8,16,num_8,1.6333676416,,,2017_May_05_1238,60.0151491407,MAFE4ImagesEEG,001,200277,
AMNE22.JPG,AMSA24.JPG,AMSA22.JPG,AMNE25.JPG,AMNE24.JPG,AMSA25.JPG,,,,,,,,,,,,,,,,,0,8,8,7,,,,,,,AMNE16.jpg,AMNE06.jpg,AMSA15.jpg,AMSA11.jpg,AMNE16.jpg,MN,1,num_8,32,num_6,2.7332955075,,,2017_May_05_1238,60.0151491407,MAFE4ImagesEEG,001,200277,
AFSA21.JPG,AFNE23.JPG,AFNE21.JPG,AFSA25.JPG,AFNE25.JPG,AFSA23.JPG,,,,,,,,,,,,,,,,,0,9,9,4,,,,,,,AMNE06.jpg,AMSA10.jpg,AMNE18.jpg,AMSA20.jpg,AMSA10.jpg,MS,2,num_6,16,num_6,1.58336666343,,,2017_May_05_1238,60.0151491407,MAFE4ImagesEEG,001,200277,
AFSA21.JPG,AFNE22.JPG,AFNE21.JPG,AFSA23.JPG,AFSA22.JPG,AFNE23.JPG,,,,,,,,,,,,,,,,,,,,,0,0,0,0,,,AFSA20.jpg,AFNE17.jpg,AFNE04.jpg,AFSA17.jpg,AFNE04.jpg,FN,3,num_2,16,num_2,1.5333846088,,,2017_May_05_1238,60.0151491407,MAFE4ImagesEEG,001,200277,
AMSA21.JPG,AMNE23.JPG,AMNE21.JPG,AMSA25.JPG,AMNE25.JPG,AMSA23.JPG,,,,,,,,,,,,,,,,,,,,,0,1,1,5,,,AFNE16.jpg,AFSA01.jpg,AFNE03.jpg,AFSA09.jpg,AFSA09.jpg,FS,4,num_4,32,num_8,3.78317909525,,,2017_May_05_1238,60.0151491407,MAFE4ImagesEEG,001,200277,
AMSA25.JPG,AMNE24.JPG,AMSA24.JPG,AMNE26.JPG,AMSA21.JPG,AMNE25.JPG,,,,,,,,,,,,,,,,,,,,,0,2,2,3,,,AFSA06.jpg,AFNE05.jpg,AFSA15.jpg,AFNE17.jpg,AFSA06.jpg,FS,4,num_8,32,num_4,4.04982200591,,,2017_May_05_1238,60.0151491407,MAFE4ImagesEEG,001,200277,
AMNE23.JPG,AMNE24.JPG,AMNE22.JPG,AMSA24.JPG,AMSA22.JPG,AMSA23.JPG,,,,,,,,,,,,,,,,,,,,,0,3,3,9,,,AFSA13.jpg,AFNE17.jpg,AFSA19.jpg,AFNE20.jpg,AFSA13.jpg,FS,4,num_8,32,num_6,2.13341719587,,,2017_May_05_1238,60.0151491407,MAFE4ImagesEEG,001,200277,
AFNE23.JPG,AFNE24.JPG,AFNE22.JPG,AFSA24.JPG,AFSA22.JPG,AFSA23.JPG,,,,,,,,,,,,,,,,,,,,,0,4,4,8,,,AFSA03.jpg,AFNE15.jpg,AFNE06.jpg,AFSA04.jpg,AFSA03.jpg,FS,4,num_8,32,num_4,1.56664364832,,,2017_May_05_1238,60.0151491407,MAFE4ImagesEEG,001,200277,
AMSA21.JPG,AMNE22.JPG,AMNE21.JPG,AMSA23.JPG,AMSA22.JPG,AMNE23.JPG,,,,,,,,,,,,,,,,,,,,,0,5,5,1,,,AFSA04.jpg,AFNE03.jpg,AFSA03.jpg,AFNE20.jpg,AFNE20.jpg,FN,3,num_4,32,num_8,3.5332149379,,,2017_May_05_1238,60.0151491407,MAFE4ImagesEEG,001,200277,
AFNE22.JPG,AFSA24.JPG,AFSA22.JPG,AFNE25.JPG,AFNE24.JPG,AFSA25.JPG,,,,,,,,,,,,,,,,,,,,,0,6,6,6,,,AFSA06.jpg,AFNE09.jpg,AFSA02.jpg,AFNE02.jpg,AFSA06.jpg,FS,4,num_8,16,num_8,1.7166542809,,,2017_May_05_1238,60.0151491407,MAFE4ImagesEEG,001,200277,
AMNE22.JPG,AMSA24.JPG,AMSA22.JPG,AMNE25.JPG,AMNE24.JPG,AMSA25.JPG,,,,,,,,,,,,,,,,,,,,,0,7,7,7,,,AFSA20.jpg,AFNE16.jpg,AFSA18.jpg,AFNE01.jpg,AFSA18.jpg,FS,4,num_2,32,num_4,2.36661022739,,,2017_May_05_1238,60.0151491407,MAFE4ImagesEEG,001,200277,
AFSA21.JPG,AFNE23.JPG,AFNE21.JPG,AFSA25.JPG,AFNE25.JPG,AFSA23.JPG,,,,,,,,,,,,,,,,,,,,,0,8,8,4,,,AFNE01.jpg,AFNE17.jpg,AFSA01.jpg,AFSA17.jpg,AFSA01.jpg,FS,4,num_2,32,num_6,3.59973494126,,,2017_May_05_1238,60.0151491407,MAFE4ImagesEEG,001,200277,
AFSA25.JPG,AFNE24.JPG,AFSA24.JPG,AFNE21.JPG,AFSA21.JPG,AFNE25.JPG,,,,,,,,,,,,,,,,,,,,,0,9,9,2,,,AFSA13.jpg,AFNE19.jpg,AFSA03.jpg,AFNE01.jpg,AFNE01.jpg,FN,3,num_4,32,num_6,1.00012444681,,,2017_May_05_1238,60.0151491407,MAFE4ImagesEEG,001,200277,
,,,,,,,,,,,,,,,,,,,,,,,,,,,,,,,,,,,,,,,,,,,space,16.4152310651,2017_May_05_1238,60.0151491407,MAFE4ImagesEEG,001,200277,
AFNE01.JPG,AFNE01.JPG,AFNE01.JPG,AFNE01.JPG,AFNE01.JPG,AFNE01.JPG,0,0,0,1,,,,,,,,,,,,,,,,,,,,,,,AMNE06.jpg,AMSA12.jpg,AMSA09.jpg,AMNE01.jpg,AMSA12.jpg,MS,2,num_6,16,num_6,0.68346708687,,,2017_May_05_1238,60.0151491407,MAFE4ImagesEEG,001,200277,
AFNE01.JPG,AFNE01.JPG,AFNE01.JPG,AFNE01.JPG,AFNE01.JPG,AFNE01.JPG,0,1,1,5,,,,,,,,,,,,,,,,,,,,,,,AMNE19.jpg,AMSA13.jpg,AMSA05.jpg,AMNE20.jpg,AMSA13.jpg,MS,2,num_6,32,num_2,1.15022296179,,,2017_May_05_1238,60.0151491407,MAFE4ImagesEEG,001,200277,
AFNE01.JPG,AFNE01.JPG,AFNE01.JPG,AFNE01.JPG,AFNE01.JPG,AFNE01.JPG,0,2,2,4,,,,,,,,,,,,,,,,,,,,,,,AMSA13.jpg,AMSA19.jpg,AMNE09.jpg,AMNE03.jpg,AMNE09.jpg,MN,1,num_2,32,num_8,1.46672861208,,,2017_May_05_1238,60.0151491407,MAFE4ImagesEEG,001,200277,
AFNE01.JPG,AFNE01.JPG,AFNE01.JPG,AFNE01.JPG,AFNE01.JPG,AFNE01.JPG,0,3,3,6,,,,,,,,,,,,,,,,,,,,,,,AMSA14.jpg,AMNE14.jpg,AMSA19.jpg,AMNE02.jpg,AMSA14.jpg,MS,2,num_8,32,num_4,1.08328182809,,,2017_May_05_1238,60.0151491407,MAFE4ImagesEEG,001,200277,
AFNE01.JPG,AFNE01.JPG,AFNE01.JPG,AFNE01.JPG,AFNE01.JPG,AFNE01.JPG,0,4,4,3,,,,,,,,,,,,,,,,,,,,,,,AMNE06.jpg,AMSA20.jpg,AMSA14.jpg,AMNE09.jpg,AMNE06.jpg,MN,1,num_8,16,num_8,1.7333638249,,,2017_May_05_1238,60.0151491407,MAFE4ImagesEEG,001,200277,
AFNE01.JPG,AFNE01.JPG,AFNE01.JPG,AFNE01.JPG,AFNE01.JPG,AFNE01.JPG,0,5,5,0,,,,,,,,,,,,,,,,,,,,,,,AMSA14.jpg,AMNE10.jpg,AMSA11.jpg,AMNE08.jpg,AMSA14.jpg,MS,2,num_8,32,num_4,1.88337317435,,,2017_May_05_1238,60.0151491407,MAFE4ImagesEEG,001,200277,
AFNE01.JPG,AFNE01.JPG,AFNE01.JPG,AFNE01.JPG,AFNE01.JPG,AFNE01.JPG,0,6,6,8,,,,,,,,,,,,,,,,,,,,,,,AMSA13.jpg,AMNE18.jpg,AMSA12.jpg,AMNE09.jpg,AMSA13.jpg,MS,2,num_8,32,num_6,1.10011389432,,,2017_May_05_1238,60.0151491407,MAFE4ImagesEEG,001,200277,
AFNE01.JPG,AFNE01.JPG,AFNE01.JPG,AFNE01.JPG,AFNE01.JPG,AFNE01.JPG,0,7,7,2,,,,,,,,,,,,,,,,,,,,,,,AMNE16.jpg,AMNE19.jpg,AMSA14.jpg,AMSA11.jpg,AMNE19.jpg,MN,1,num_6,32,num_8,1.51676230575,,,2017_May_05_1238,60.0151491407,MAFE4ImagesEEG,001,200277,
AFNE01.JPG,AFNE01.JPG,AFNE01.JPG,AFNE01.JPG,AFNE01.JPG,AFNE01.JPG,0,8,8,9,,,,,,,,,,,,,,,,,,,,,,,AMSA17.jpg,AMNE17.jpg,AMNE19.jpg,AMSA19.jpg,AMNE17.jpg,MN,1,num_6,16,num_6,1.50007745856,,,2017_May_05_1238,60.0151491407,MAFE4ImagesEEG,001,200277,
AFNE01.JPG,AFNE01.JPG,AFNE01.JPG,AFNE01.JPG,AFNE01.JPG,AFNE01.JPG,0,9,9,7,,,,,,,,,,,,,,,,,,,,,,,AMSA08.jpg,AMNE05.jpg,AMNE17.jpg,AMSA12.jpg,AMSA12.jpg,MS,2,num_4,32,num_2,2.31695596781,,,2017_May_05_1238,60.0151491407,MAFE4ImagesEEG,001,200277,
AFNE01.JPG,AFNE01.JPG,AFNE01.JPG,AFNE01.JPG,AFNE01.JPG,AFNE01.JPG,1,0,10,6,,,,,,,,,,,,,,,,,,,,,,,AMNE13.jpg,AMNE15.jpg,AMSA18.jpg,AMSA04.jpg,AMNE13.jpg,MN,1,num_8,16,num_8,1.31685012416,,,2017_May_05_1238,60.0151491407,MAFE4ImagesEEG,001,200277,
AFNE01.JPG,AFNE01.JPG,AFNE01.JPG,AFNE01.JPG,AFNE01.JPG,AFNE01.JPG,1,1,11,3,,,,,,,,,,,,,,,,,,,,,,,AMSA09.jpg,AMNE19.jpg,AMNE15.jpg,AMSA05.jpg,AMSA09.jpg,MS,2,num_8,48,None,,,,2017_May_05_1238,60.0151491407,MAFE4ImagesEEG,001,200277,
AFNE01.JPG,AFNE01.JPG,AFNE01.JPG,AFNE01.JPG,AFNE01.JPG,AFNE01.JPG,1,2,12,7,,,,,,,,,,,,,,,,,,,,,,,AMNE05.jpg,AMSA15.jpg,AMSA13.jpg,AMNE13.jpg,AMSA15.jpg,MS,2,num_6,32,num_4,4.78313483321,,,2017_May_05_1238,60.0151491407,MAFE4ImagesEEG,001,200277,
AFNE01.JPG,AFNE01.JPG,AFNE01.JPG,AFNE01.JPG,AFNE01.JPG,AFNE01.JPG,1,3,13,8,,,,,,,,,,,,,,,,,,,,,,,AMSA13.jpg,AMNE02.jpg,AMSA09.jpg,AMNE05.jpg,AMSA09.jpg,MS,2,num_2,32,num_4,1.21672083414,,,2017_May_05_1238,60.0151491407,MAFE4ImagesEEG,001,200277,
AFNE01.JPG,AFNE01.JPG,AFNE01.JPG,AFNE01.JPG,AFNE01.JPG,AFNE01.JPG,1,4,14,1,,,,,,,,,,,,,,,,,,,,,,,AMSA07.jpg,AMSA08.jpg,AMNE18.jpg,AMNE07.jpg,AMSA07.jpg,MS,2,num_8,16,num_8,1.58354627737,,,2017_May_05_1238,60.0151491407,MAFE4ImagesEEG,001,200277,
AFNE01.JPG,AFNE01.JPG,AFNE01.JPG,AFNE01.JPG,AFNE01.JPG,AFNE01.JPG,1,5,15,5,,,,,,,,,,,,,,,,,,,,,,,AMSA19.jpg,AMSA05.jpg,AMNE12.jpg,AMNE05.jpg,AMNE12.jpg,MN,1,num_2,32,num_4,1.8665362969,,,2017_May_05_1238,60.0151491407,MAFE4ImagesEEG,001,200277,
AFNE01.JPG,AFNE01.JPG,AFNE01.JPG,AFNE01.JPG,AFNE01.JPG,AFNE01.JPG,1,6,16,9,,,,,,,,,,,,,,,,,,,,,,,AMSA01.jpg,AMNE06.jpg,AMNE17.jpg,AMSA15.jpg,AMNE06.jpg,MN,1,num_6,32,num_2,1.3333749224,,,2017_May_05_1238,60.0151491407,MAFE4ImagesEEG,001,200277,
AFNE01.JPG,AFNE01.JPG,AFNE01.JPG,AFNE01.JPG,AFNE01.JPG,AFNE01.JPG,1,7,17,2,,,,,,,,,,,,,,,,,,,,,,,AMSA18.jpg,AMSA12.jpg,AMNE20.jpg,AMNE02.jpg,AMNE20.jpg,MN,1,num_2,32,num_4,2.18333285744,,,2017_May_05_1238,60.0151491407,MAFE4ImagesEEG,001,200277,
AFNE01.JPG,AFNE01.JPG,AFNE01.JPG,AFNE01.JPG,AFNE01.JPG,AFNE01.JPG,1,8,18,0,,,,,,,,,,,,,,,,,,,,,,,AMNE08.jpg,AMSA02.jpg,AMNE01.jpg,AMSA09.jpg,AMSA09.jpg,MS,2,num_4,16,num_4,2.23318469222,,,2017_May_05_1238,60.0151491407,MAFE4ImagesEEG,001,200277,
AFNE01.JPG,AFNE01.JPG,AFNE01.JPG,AFNE01.JPG,AFNE01.JPG,AFNE01.JPG,1,9,19,4,,,,,,,,,,,,,,,,,,,,,,,AMNE15.jpg,AMNE03.jpg,AMSA11.jpg,AMSA18.jpg,AMSA18.jpg,MS,2,num_4,16,num_4,1.41674784035,,,2017_May_05_1238,60.0151491407,MAFE4ImagesEEG,001,200277,
AFNE01.JPG,AFNE01.JPG,AFNE01.JPG,AFNE01.JPG,AFNE01.JPG,AFNE01.JPG,2,0,20,1,,,,,,,,,,,,,,,,,,,,,,,AMNE13.jpg,AMNE11.jpg,AMSA02.jpg,AMSA17.jpg,AMSA17.jpg,MS,2,num_4,32,num_6,2.81659241021,,,2017_May_05_1238,60.0151491407,MAFE4ImagesEEG,001,200277,
AFNE01.JPG,AFNE01.JPG,AFNE01.JPG,AFNE01.JPG,AFNE01.JPG,AFNE01.JPG,2,1,21,3,,,,,,,,,,,,,,,,,,,,,,,AMSA01.jpg,AMNE11.jpg,AMNE07.jpg,AMSA17.jpg,AMSA17.jpg,MS,2,num_4,16,num_4,1.31672471529,,,2017_May_05_1238,60.0151491407,MAFE4ImagesEEG,001,200277,
AFNE01.JPG,AFNE01.JPG,AFNE01.JPG,AFNE01.JPG,AFNE01.JPG,AFNE01.JPG,2,2,22,5,,,,,,,,,,,,,,,,,,,,,,,AMNE20.jpg,AMSA01.jpg,AMSA07.jpg,AMNE07.jpg,AMSA01.jpg,MS,2,num_6,32,num_2,3.51653746748,,,2017_May_05_1238,60.0151491407,MAFE4ImagesEEG,001,200277,
AFNE01.JPG,AFNE01.JPG,AFNE01.JPG,AFNE01.JPG,AFNE01.JPG,AFNE01.JPG,2,3,23,7,,,,,,,,,,,,,,,,,,,,,,,AMSA17.jpg,AMNE15.jpg,AMNE04.jpg,AMSA15.jpg,AMNE04.jpg,MN,1,num_2,16,num_2,2.68330960395,,,2017_May_05_1238,60.0151491407,MAFE4ImagesEEG,001,200277,
AFNE01.JPG,AFNE01.JPG,AFNE01.JPG,AFNE01.JPG,AFNE01.JPG,AFNE01.JPG,2,4,24,0,,,,,,,,,,,,,,,,,,,,,,,AMSA10.jpg,AMSA02.jpg,AMNE17.jpg,AMNE19.jpg,AMNE17.jpg,MN,1,num_2,32,num_4,1.18311988679,,,2017_May_05_1238,60.0151491407,MAFE4ImagesEEG,001,200277,
AFNE01.JPG,AFNE01.JPG,AFNE01.JPG,AFNE01.JPG,AFNE01.JPG,AFNE01.JPG,2,5,25,8,,,,,,,,,,,,,,,,,,,,,,,AMSA16.jpg,AMNE13.jpg,AMSA05.jpg,AMNE06.jpg,AMNE13.jpg,MN,1,num_6,32,num_4,1.416731162,,,2017_May_05_1238,60.0151491407,MAFE4ImagesEEG,001,200277,
AFNE01.JPG,AFNE01.JPG,AFNE01.JPG,AFNE01.JPG,AFNE01.JPG,AFNE01.JPG,2,6,26,2,,,,,,,,,,,,,,,,,,,,,,,AMNE14.jpg,AMNE17.jpg,AMSA10.jpg,AMSA05.jpg,AMSA10.jpg,MS,2,num_2,32,num_6,1.58337211609,,,2017_May_05_1238,60.0151491407,MAFE4ImagesEEG,001,200277,
AFNE01.JPG,AFNE01.JPG,AFNE01.JPG,AFNE01.JPG,AFNE01.JPG,AFNE01.JPG,2,7,27,9,,,,,,,,,,,,,,,,,,,,,,,AMNE11.jpg,AMSA11.jpg,AMSA06.jpg,AMNE01.jpg,AMSA11.jpg,MS,2,num_6,32,num_8,1.4333614835,,,2017_May_05_1238,60.0151491407,MAFE4ImagesEEG,001,200277,
AFNE01.JPG,AFNE01.JPG,AFNE01.JPG,AFNE01.JPG,AFNE01.JPG,AFNE01.JPG,2,8,28,4,,,,,,,,,,,,,,,,,,,,,,,AMNE17.jpg,AMNE08.jpg,AMSA15.jpg,AMSA09.jpg,AMSA15.jpg,MS,2,num_2,32,num_4,2.59997870284,,,2017_May_05_1238,60.0151491407,MAFE4ImagesEEG,001,200277,
AFNE01.JPG,AFNE01.JPG,AFNE01.JPG,AFNE01.JPG,AFNE01.JPG,AFNE01.JPG,2,9,29,6,,,,,,,,,,,,,,,,,,,,,,,AMSA14.jpg,AMNE20.jpg,AMSA20.jpg,AMNE10.jpg,AMNE10.jpg,MN,1,num_4,16,num_4,1.08348100679,,,2017_May_05_1238,60.0151491407,MAFE4ImagesEEG,001,200277,
AFNE01.JPG,AFNE01.JPG,AFNE01.JPG,AFNE01.JPG,AFNE01.JPG,AFNE01.JPG,3,0,30,7,,,,,,,,,,,,,,,,,,,,,,,AMNE19.jpg,AMSA01.jpg,AMSA16.jpg,AMNE02.jpg,AMNE02.jpg,MN,1,num_4,32,num_6,2.10002537025,,,2017_May_05_1238,60.0151491407,MAFE4ImagesEEG,001,200277,
AFNE01.JPG,AFNE01.JPG,AFNE01.JPG,AFNE01.JPG,AFNE01.JPG,AFNE01.JPG,3,1,31,8,,,,,,,,,,,,,,,,,,,,,,,AMNE10.jpg,AMSA03.jpg,AMSA10.jpg,AMNE17.jpg,AMNE17.jpg,MN,1,num_4,32,num_8,3.44975574105,,,2017_May_05_1238,60.0151491407,MAFE4ImagesEEG,001,200277,
AFNE01.JPG,AFNE01.JPG,AFNE01.JPG,AFNE01.JPG,AFNE01.JPG,AFNE01.JPG,3,2,32,0,,,,,,,,,,,,,,,,,,,,,,,AMNE14.jpg,AMSA06.jpg,AMSA05.jpg,AMNE13.jpg,AMSA05.jpg,MS,2,num_2,32,num_4,1.03997499519,,,2017_May_05_1238,60.0151491407,MAFE4ImagesEEG,001,200277,
AFNE01.JPG,AFNE01.JPG,AFNE01.JPG,AFNE01.JPG,AFNE01.JPG,AFNE01.JPG,3,3,33,5,,,,,,,,,,,,,,,,,,,,,,,AMSA11.jpg,AMSA12.jpg,AMNE02.jpg,AMNE01.jpg,AMSA11.jpg,MS,2,num_8,32,num_6,3.03331292374,,,2017_May_05_1238,60.0151491407,MAFE4ImagesEEG,001,200277,
AFNE01.JPG,AFNE01.JPG,AFNE01.JPG,AFNE01.JPG,AFNE01.JPG,AFNE01.JPG,3,4,34,1,,,,,,,,,,,,,,,,,,,,,,,AMNE08.jpg,AMSA17.jpg,AMSA09.jpg,AMNE03.jpg,AMSA09.jpg,MS,2,num_2,16,num_2,3.33326522983,,,2017_May_05_1238,60.0151491407,MAFE4ImagesEEG,001,200277,
AFNE01.JPG,AFNE01.JPG,AFNE01.JPG,AFNE01.JPG,AFNE01.JPG,AFNE01.JPG,3,5,35,6,,,,,,,,,,,,,,,,,,,,,,,AMNE12.jpg,AMSA13.jpg,AMSA12.jpg,AMNE18.jpg,AMNE18.jpg,MN,1,num_4,32,num_2,1.01670986484,,,2017_May_05_1238,60.0151491407,MAFE4ImagesEEG,001,200277,
AFNE01.JPG,AFNE01.JPG,AFNE01.JPG,AFNE01.JPG,AFNE01.JPG,AFNE01.JPG,3,6,36,9,,,,,,,,,,,,,,,,,,,,,,,AMSA16.jpg,AMSA18.jpg,AMNE18.jpg,AMNE16.jpg,AMNE16.jpg,MN,1,num_4,16,num_4,1.08343225461,,,2017_May_05_1238,60.0151491407,MAFE4ImagesEEG,001,200277,
AFNE01.JPG,AFNE01.JPG,AFNE01.JPG,AFNE01.JPG,AFNE01.JPG,AFNE01.JPG,3,7,37,3,,,,,,,,,,,,,,,,,,,,,,,AMSA12.jpg,AMSA17.jpg,AMNE09.jpg,AMNE10.jpg,AMNE10.jpg,MN,1,num_4,32,num_2,1.88360827626,,,2017_May_05_1238,60.0151491407,MAFE4ImagesEEG,001,200277,
AFNE01.JPG,AFNE01.JPG,AFNE01.JPG,AFNE01.JPG,AFNE01.JPG,AFNE01.JPG,3,8,38,2,,,,,,,,,,,,,,,,,,,,,,,AMNE08.jpg,AMSA05.jpg,AMSA06.jpg,AMNE12.jpg,AMNE12.jpg,MN,1,num_4,16,num_4,1.36655730521,,,2017_May_05_1238,60.0151491407,MAFE4ImagesEEG,001,200277,
AFNE01.JPG,AFNE01.JPG,AFNE01.JPG,AFNE01.JPG,AFNE01.JPG,AFNE01.JPG,3,9,39,4,,,,,,,,,,,,,,,,,,,,,,,AMNE13.jpg,AMSA15.jpg,AMNE05.jpg,AMSA06.jpg,AMSA06.jpg,MS,2,num_4,16,num_4,1.00025370461,,,2017_May_05_1238,60.0151491407,MAFE4ImagesEEG,001,200277,
AFNE01.JPG,AFNE01.JPG,AFNE01.JPG,AFNE01.JPG,AFNE01.JPG,AFNE01.JPG,4,0,40,1,,,,,,,,,,,,,,,,,,,,,,,AMSA17.jpg,AMNE20.jpg,AMNE08.jpg,AMSA08.jpg,AMSA17.jpg,MS,2,num_8,16,num_8,1.91667070263,,,2017_May_05_1238,60.0151491407,MAFE4ImagesEEG,001,200277,
AFNE01.JPG,AFNE01.JPG,AFNE01.JPG,AFNE01.JPG,AFNE01.JPG,AFNE01.JPG,4,1,41,6,,,,,,,,,,,,,,,,,,,,,,,AMSA19.jpg,AMSA06.jpg,AMNE20.jpg,AMNE18.jpg,AMNE20.jpg,MN,1,num_2,32,num_4,1.73340552091,,,2017_May_05_1238,60.0151491407,MAFE4ImagesEEG,001,200277,
AFNE01.JPG,AFNE01.JPG,AFNE01.JPG,AFNE01.JPG,AFNE01.JPG,AFNE01.JPG,4,2,42,8,,,,,,,,,,,,,,,,,,,,,,,AMNE09.jpg,AMNE11.jpg,AMSA04.jpg,AMSA06.jpg,AMSA04.jpg,MS,2,num_2,32,num_6,0.966788750608,,,2017_May_05_1238,60.0151491407,MAFE4ImagesEEG,001,200277,
AFNE01.JPG,AFNE01.JPG,AFNE01.JPG,AFNE01.JPG,AFNE01.JPG,AFNE01.JPG,4,3,43,9,,,,,,,,,,,,,,,,,,,,,,,AMNE11.jpg,AMSA13.jpg,AMNE10.jpg,AMSA06.jpg,AMNE11.jpg,MN,1,num_8,32,num_6,1.71647113888,,,2017_May_05_1238,60.0151491407,MAFE4ImagesEEG,001,200277,
AFNE01.JPG,AFNE01.JPG,AFNE01.JPG,AFNE01.JPG,AFNE01.JPG,AFNE01.JPG,4,4,44,0,,,,,,,,,,,,,,,,,,,,,,,AMNE06.jpg,AMSA06.jpg,AMNE16.jpg,AMSA17.jpg,AMSA17.jpg,MS,2,num_4,16,num_4,1.93338024686,,,2017_May_05_1238,60.0151491407,MAFE4ImagesEEG,001,200277,
AFNE01.JPG,AFNE01.JPG,AFNE01.JPG,AFNE01.JPG,AFNE01.JPG,AFNE01.JPG,4,5,45,5,,,,,,,,,,,,,,,,,,,,,,,AMSA10.jpg,AMSA08.jpg,AMNE06.jpg,AMNE10.jpg,AMSA08.jpg,MS,2,num_6,32,num_2,2.23338130536,,,2017_May_05_1238,60.0151491407,MAFE4ImagesEEG,001,200277,
AFNE01.JPG,AFNE01.JPG,AFNE01.JPG,AFNE01.JPG,AFNE01.JPG,AFNE01.JPG,4,6,46,3,,,,,,,,,,,,,,,,,,,,,,,AMSA14.jpg,AMNE20.jpg,AMNE16.jpg,AMSA01.jpg,AMNE20.jpg,MN,1,num_6,16,num_6,1.06673457776,,,2017_May_05_1238,60.0151491407,MAFE4ImagesEEG,001,200277,
AFNE01.JPG,AFNE01.JPG,AFNE01.JPG,AFNE01.JPG,AFNE01.JPG,AFNE01.JPG,4,7,47,2,,,,,,,,,,,,,,,,,,,,,,,AMNE01.jpg,AMSA11.jpg,AMNE15.jpg,AMSA14.jpg,AMNE01.jpg,MN,1,num_8,32,num_4,1.23340471904,,,2017_May_05_1238,60.0151491407,MAFE4ImagesEEG,001,200277,
AFNE01.JPG,AFNE01.JPG,AFNE01.JPG,AFNE01.JPG,AFNE01.JPG,AFNE01.JPG,4,8,48,4,,,,,,,,,,,,,,,,,,,,,,,AMNE19.jpg,AMSA16.jpg,AMNE12.jpg,AMSA12.jpg,AMNE12.jpg,MN,1,num_2,32,num_6,1.93352586241,,,2017_May_05_1238,60.0151491407,MAFE4ImagesEEG,001,200277,
AFNE01.JPG,AFNE01.JPG,AFNE01.JPG,AFNE01.JPG,AFNE01.JPG,AFNE01.JPG,4,9,49,7,,,,,,,,,,,,,,,,,,,,,,,AMSA05.jpg,AMNE06.jpg,AMSA10.jpg,AMNE14.jpg,AMNE06.jpg,MN,1,num_6,16,num_6,1.18341849488,,,2017_May_05_1238,60.0151491407,MAFE4ImagesEEG,001,200277,
AFNE01.JPG,AFNE01.JPG,AFNE01.JPG,AFNE01.JPG,AFNE01.JPG,AFNE01.JPG,5,0,50,6,,,,,,,,,,,,,,,,,,,,,,,AMSA12.jpg,AMSA13.jpg,AMNE09.jpg,AMNE07.jpg,AMSA12.jpg,MS,2,num_8,32,num_2,1.98325517471,,,2017_May_05_1238,60.0151491407,MAFE4ImagesEEG,001,200277,
AFNE01.JPG,AFNE01.JPG,AFNE01.JPG,AFNE01.JPG,AFNE01.JPG,AFNE01.JPG,5,1,51,7,,,,,,,,,,,,,,,,,,,,,,,AMNE03.jpg,AMSA10.jpg,AMSA11.jpg,AMNE10.jpg,AMNE10.jpg,MN,1,num_4,32,num_2,3.53323257854,,,2017_May_05_1238,60.0151491407,MAFE4ImagesEEG,001,200277,
AFNE01.JPG,AFNE01.JPG,AFNE01.JPG,AFNE01.JPG,AFNE01.JPG,AFNE01.JPG,5,2,52,8,,,,,,,,,,,,,,,,,,,,,,,AMNE03.jpg,AMNE01.jpg,AMSA09.jpg,AMSA12.jpg,AMSA12.jpg,MS,2,num_4,32,num_2,2.83283527894,,,2017_May_05_1238,60.0151491407,MAFE4ImagesEEG,001,200277,
AFNE01.JPG,AFNE01.JPG,AFNE01.JPG,AFNE01.JPG,AFNE01.JPG,AFNE01.JPG,5,3,53,2,,,,,,,,,,,,,,,,,,,,,,,AMNE20.jpg,AMNE04.jpg,AMSA18.jpg,AMSA07.jpg,AMSA18.jpg,MS,2,num_2,32,num_6,1.25002573919,,,2017_May_05_1238,60.0151491407,MAFE4ImagesEEG,001,200277,
AFNE01.JPG,AFNE01.JPG,AFNE01.JPG,AFNE01.JPG,AFNE01.JPG,AFNE01.JPG,5,4,54,9,,,,,,,,,,,,,,,,,,,,,,,AMNE18.jpg,AMSA12.jpg,AMNE16.jpg,AMSA09.jpg,AMNE16.jpg,MN,1,num_2,32,num_4,1.60008005658,,,2017_May_05_1238,60.0151491407,MAFE4ImagesEEG,001,200277,
AFNE01.JPG,AFNE01.JPG,AFNE01.JPG,AFNE01.JPG,AFNE01.JPG,AFNE01.JPG,5,5,55,4,,,,,,,,,,,,,,,,,,,,,,,AMSA14.jpg,AMNE10.jpg,AMNE20.jpg,AMSA10.jpg,AMNE20.jpg,MN,1,num_2,16,num_2,1.31671990408,,,2017_May_05_1238,60.0151491407,MAFE4ImagesEEG,001,200277,
AFNE01.JPG,AFNE01.JPG,AFNE01.JPG,AFNE01.JPG,AFNE01.JPG,AFNE01.JPG,5,6,56,0,,,,,,,,,,,,,,,,,,,,,,,AMSA08.jpg,AMNE11.jpg,AMSA06.jpg,AMNE13.jpg,AMSA08.jpg,MS,2,num_8,16,num_8,1.91666492936,,,2017_May_05_1238,60.0151491407,MAFE4ImagesEEG,001,200277,
AFNE01.JPG,AFNE01.JPG,AFNE01.JPG,AFNE01.JPG,AFNE01.JPG,AFNE01.JPG,5,7,57,3,,,,,,,,,,,,,,,,,,,,,,,AMSA04.jpg,AMNE09.jpg,AMNE05.jpg,AMSA07.jpg,AMSA07.jpg,MS,2,num_4,16,num_4,0.916877900017,,,2017_May_05_1238,60.0151491407,MAFE4ImagesEEG,001,200277,
AFNE01.JPG,AFNE01.JPG,AFNE01.JPG,AFNE01.JPG,AFNE01.JPG,AFNE01.JPG,5,8,58,5,,,,,,,,,,,,,,,,,,,,,,,AMSA07.jpg,AMNE09.jpg,AMNE18.jpg,AMSA18.jpg,AMNE18.jpg,MN,1,num_2,32,num_6,1.1167201607,,,2017_May_05_1238,60.0151491407,MAFE4ImagesEEG,001,200277,
AFNE01.JPG,AFNE01.JPG,AFNE01.JPG,AFNE01.JPG,AFNE01.JPG,AFNE01.JPG,5,9,59,1,,,,,,,,,,,,,,,,,,,,,,,AMNE02.jpg,AMSA19.jpg,AMNE07.jpg,AMSA15.jpg,AMNE07.jpg,MN,1,num_2,16,num_2,0.89995730971,,,2017_May_05_1238,60.0151491407,MAFE4ImagesEEG,001,200277,
,,,,,,,,,,,,,,,,,,,,,,,,,,,,,,,,,,,,,,,,,,,space,41.830139467,2017_May_05_1238,60.0151491407,MAFE4ImagesEEG,001,200277,
AFNE01.JPG,AFNE01.JPG,AFNE01.JPG,AFNE01.JPG,AFNE01.JPG,AFNE01.JPG,,,,,0,0,0,0,,,,,,,,,,,,,,,,,,,AFNE17.jpg,AFSA10.jpg,AFNE05.jpg,AFSA13.jpg,AFNE17.jpg,FN,3,num_8,32,num_4,1.25006807689,,,2017_May_05_1238,60.0151491407,MAFE4ImagesEEG,001,200277,
AFNE01.JPG,AFNE01.JPG,AFNE01.JPG,AFNE01.JPG,AFNE01.JPG,AFNE01.JPG,,,,,0,1,1,4,,,,,,,,,,,,,,,,,,,AFNE20.jpg,AFSA05.jpg,AFNE16.jpg,AFSA04.jpg,AFSA05.jpg,FS,4,num_6,16,num_6,0.900100359228,,,2017_May_05_1238,60.0151491407,MAFE4ImagesEEG,001,200277,
AFNE01.JPG,AFNE01.JPG,AFNE01.JPG,AFNE01.JPG,AFNE01.JPG,AFNE01.JPG,,,,,0,2,2,2,,,,,,,,,,,,,,,,,,,AFNE11.jpg,AFSA11.jpg,AFNE17.jpg,AFSA19.jpg,AFNE11.jpg,FN,3,num_8,32,num_2,1.1499243537,,,2017_May_05_1238,60.0151491407,MAFE4ImagesEEG,001,200277,
AFNE01.JPG,AFNE01.JPG,AFNE01.JPG,AFNE01.JPG,AFNE01.JPG,AFNE01.JPG,,,,,0,3,3,1,,,,,,,,,,,,,,,,,,,AFNE20.jpg,AFSA10.jpg,AFSA15.jpg,AFNE02.jpg,AFSA10.jpg,FS,4,num_6,16,num_6,1.91667455155,,,2017_May_05_1238,60.0151491407,MAFE4ImagesEEG,001,200277,
AFNE01.JPG,AFNE01.JPG,AFNE01.JPG,AFNE01.JPG,AFNE01.JPG,AFNE01.JPG,,,,,0,4,4,7,,,,,,,,,,,,,,,,,,,AFSA15.jpg,AFNE06.jpg,AFNE01.jpg,AFSA06.jpg,AFSA15.jpg,FS,4,num_8,16,num_8,0.783323427895,,,2017_May_05_1238,60.0151491407,MAFE4ImagesEEG,001,200277,
AFNE01.JPG,AFNE01.JPG,AFNE01.JPG,AFNE01.JPG,AFNE01.JPG,AFNE01.JPG,,,,,0,5,5,6,,,,,,,,,,,,,,,,,,,AFSA02.jpg,AFSA20.jpg,AFNE10.jpg,AFNE11.jpg,AFSA02.jpg,FS,4,num_8,32,num_6,1.45008161222,,,2017_May_05_1238,60.0151491407,MAFE4ImagesEEG,001,200277,
AFNE01.JPG,AFNE01.JPG,AFNE01.JPG,AFNE01.JPG,AFNE01.JPG,AFNE01.JPG,,,,,0,6,6,5,,,,,,,,,,,,,,,,,,,AFNE03.jpg,AFSA19.jpg,AFNE11.jpg,AFSA08.jpg,AFSA08.jpg,FS,4,num_4,32,num_2,2.04999969527,,,2017_May_05_1238,60.0151491407,MAFE4ImagesEEG,001,200277,
AFNE01.JPG,AFNE01.JPG,AFNE01.JPG,AFNE01.JPG,AFNE01.JPG,AFNE01.JPG,,,,,0,7,7,9,,,,,,,,,,,,,,,,,,,AFSA15.jpg,AFNE13.jpg,AFNE17.jpg,AFSA18.jpg,AFNE17.jpg,FN,3,num_2,32,num_4,0.933453696081,,,2017_May_05_1238,60.0151491407,MAFE4ImagesEEG,001,200277,
AFNE01.JPG,AFNE01.JPG,AFNE01.JPG,AFNE01.JPG,AFNE01.JPG,AFNE01.JPG,,,,,0,8,8,8,,,,,,,,,,,,,,,,,,,AFNE08.jpg,AFSA09.jpg,AFNE16.jpg,AFSA08.jpg,AFNE16.jpg,FN,3,num_2,32,num_6,0.733460688032,,,2017_May_05_1238,60.0151491407,MAFE4ImagesEEG,001,200277,
AFNE01.JPG,AFNE01.JPG,AFNE01.JPG,AFNE01.JPG,AFNE01.JPG,AFNE01.JPG,,,,,0,9,9,3,,,,,,,,,,,,,,,,,,,AFSA05.jpg,AFNE16.jpg,AFNE20.jpg,AFSA19.jpg,AFNE16.jpg,FN,3,num_6,16,num_6,1.05010874663,,,2017_May_05_1238,60.0151491407,MAFE4ImagesEEG,001,200277,
AFNE01.JPG,AFNE01.JPG,AFNE01.JPG,AFNE01.JPG,AFNE01.JPG,AFNE01.JPG,,,,,1,0,10,1,,,,,,,,,,,,,,,,,,,AFNE16.jpg,AFSA12.jpg,AFSA17.jpg,AFNE06.jpg,AFNE16.jpg,FN,3,num_8,32,num_6,0.833470983896,,,2017_May_05_1238,60.0151491407,MAFE4ImagesEEG,001,200277,
AFNE01.JPG,AFNE01.JPG,AFNE01.JPG,AFNE01.JPG,AFNE01.JPG,AFNE01.JPG,,,,,1,1,11,2,,,,,,,,,,,,,,,,,,,AFSA06.jpg,AFSA01.jpg,AFNE05.jpg,AFNE18.jpg,AFNE05.jpg,FN,3,num_2,16,num_2,1.00013984228,,,2017_May_05_1238,60.0151491407,MAFE4ImagesEEG,001,200277,
AFNE01.JPG,AFNE01.JPG,AFNE01.JPG,AFNE01.JPG,AFNE01.JPG,AFNE01.JPG,,,,,1,2,12,0,,,,,,,,,,,,,,,,,,,AFNE01.jpg,AFSA16.jpg,AFSA20.jpg,AFNE13.jpg,AFNE13.jpg,FN,3,num_4,16,num_4,1.56667925045,,,2017_May_05_1238,60.0151491407,MAFE4ImagesEEG,001,200277,
AFNE01.JPG,AFNE01.JPG,AFNE01.JPG,AFNE01.JPG,AFNE01.JPG,AFNE01.JPG,,,,,1,3,13,7,,,,,,,,,,,,,,,,,,,AFNE13.jpg,AFSA18.jpg,AFNE11.jpg,AFSA16.jpg,AFNE11.jpg,FN,3,num_2,16,num_2,1.96666558692,,,2017_May_05_1238,60.0151491407,MAFE4ImagesEEG,001,200277,
AFNE01.JPG,AFNE01.JPG,AFNE01.JPG,AFNE01.JPG,AFNE01.JPG,AFNE01.JPG,,,,,1,4,14,4,,,,,,,,,,,,,,,,,,,AFNE02.jpg,AFSA13.jpg,AFNE05.jpg,AFSA15.jpg,AFSA15.jpg,FS,4,num_4,16,num_4,1.000061261,,,2017_May_05_1238,60.0151491407,MAFE4ImagesEEG,001,200277,
AFNE01.JPG,AFNE01.JPG,AFNE01.JPG,AFNE01.JPG,AFNE01.JPG,AFNE01.JPG,,,,,1,5,15,6,,,,,,,,,,,,,,,,,,,AFSA09.jpg,AFNE11.jpg,AFNE05.jpg,AFSA14.jpg,AFNE05.jpg,FN,3,num_2,32,num_6,0.833445003955,,,2017_May_05_1238,60.0151491407,MAFE4ImagesEEG,001,200277,
AFNE01.JPG,AFNE01.JPG,AFNE01.JPG,AFNE01.JPG,AFNE01.JPG,AFNE01.JPG,,,,,1,6,16,8,,,,,,,,,,,,,,,,,,,AFNE17.jpg,AFNE16.jpg,AFSA14.jpg,AFSA12.jpg,AFSA14.jpg,FS,4,num_2,32,num_6,0.833393685753,,,2017_May_05_1238,60.0151491407,MAFE4ImagesEEG,001,200277,
AFNE01.JPG,AFNE01.JPG,AFNE01.JPG,AFNE01.JPG,AFNE01.JPG,AFNE01.JPG,,,,,1,7,17,9,,,,,,,,,,,,,,,,,,,AFNE13.jpg,AFSA16.jpg,AFNE15.jpg,AFSA17.jpg,AFNE15.jpg,FN,3,num_2,32,num_8,1.55017016805,,,2017_May_05_1238,60.0151491407,MAFE4ImagesEEG,001,200277,
AFNE01.JPG,AFNE01.JPG,AFNE01.JPG,AFNE01.JPG,AFNE01.JPG,AFNE01.JPG,,,,,1,8,18,3,,,,,,,,,,,,,,,,,,,AFSA02.jpg,AFNE02.jpg,AFSA10.jpg,AFNE14.jpg,AFNE14.jpg,FN,3,num_4,32,num_2,1.08341301023,,,2017_May_05_1238,60.0151491407,MAFE4ImagesEEG,001,200277,
AFNE01.JPG,AFNE01.JPG,AFNE01.JPG,AFNE01.JPG,AFNE01.JPG,AFNE01.JPG,,,,,1,9,19,5,,,,,,,,,,,,,,,,,,,AFSA08.jpg,AFNE16.jpg,AFNE05.jpg,AFSA13.jpg,AFNE05.jpg,FN,3,num_2,32,num_4,0.966747375205,,,2017_May_05_1238,60.0151491407,MAFE4ImagesEEG,001,200277,
AFNE01.JPG,AFNE01.JPG,AFNE01.JPG,AFNE01.JPG,AFNE01.JPG,AFNE01.JPG,,,,,2,0,20,7,,,,,,,,,,,,,,,,,,,AFNE20.jpg,AFSA01.jpg,AFSA10.jpg,AFNE05.jpg,AFNE20.jpg,FN,3,num_8,32,num_2,1.26674458478,,,2017_May_05_1238,60.0151491407,MAFE4ImagesEEG,001,200277,
AFNE01.JPG,AFNE01.JPG,AFNE01.JPG,AFNE01.JPG,AFNE01.JPG,AFNE01.JPG,,,,,2,1,21,3,,,,,,,,,,,,,,,,,,,AFNE06.jpg,AFSA08.jpg,AFNE09.jpg,AFSA04.jpg,AFNE09.jpg,FN,3,num_2,32,num_8,1.33354170667,,,2017_May_05_1238,60.0151491407,MAFE4ImagesEEG,001,200277,
AFNE01.JPG,AFNE01.JPG,AFNE01.JPG,AFNE01.JPG,AFNE01.JPG,AFNE01.JPG,,,,,2,2,22,1,,,,,,,,,,,,,,,,,,,AFSA13.jpg,AFNE02.jpg,AFSA12.jpg,AFNE07.jpg,AFSA12.jpg,FS,4,num_2,32,num_4,1.23346245219,,,2017_May_05_1238,60.0151491407,MAFE4ImagesEEG,001,200277,
AFNE01.JPG,AFNE01.JPG,AFNE01.JPG,AFNE01.JPG,AFNE01.JPG,AFNE01.JPG,,,,,2,3,23,5,,,,,,,,,,,,,,,,,,,AFSA18.jpg,AFNE14.jpg,AFNE12.jpg,AFSA13.jpg,AFNE12.jpg,FN,3,num_2,32,num_6,2.03334018635,,,2017_May_05_1238,60.0151491407,MAFE4ImagesEEG,001,200277,
AFNE01.JPG,AFNE01.JPG,AFNE01.JPG,AFNE01.JPG,AFNE01.JPG,AFNE01.JPG,,,,,2,4,24,9,,,,,,,,,,,,,,,,,,,AFSA20.jpg,AFNE14.jpg,AFSA12.jpg,AFNE19.jpg,AFSA20.jpg,FS,4,num_8,32,num_2,3.13325009076,,,2017_May_05_1238,60.0151491407,MAFE4ImagesEEG,001,200277,
AFNE01.JPG,AFNE01.JPG,AFNE01.JPG,AFNE01.JPG,AFNE01.JPG,AFNE01.JPG,,,,,2,5,25,8,,,,,,,,,,,,,,,,,,,AFSA07.jpg,AFSA10.jpg,AFNE07.jpg,AFNE12.jpg,AFSA10.jpg,FS,4,num_6,16,num_6,2.15000229329,,,2017_May_05_1238,60.0151491407,MAFE4ImagesEEG,001,200277,
AFNE01.JPG,AFNE01.JPG,AFNE01.JPG,AFNE01.JPG,AFNE01.JPG,AFNE01.JPG,,,,,2,6,26,0,,,,,,,,,,,,,,,,,,,AFNE14.jpg,AFSA12.jpg,AFNE16.jpg,AFSA07.jpg,AFNE16.jpg,FN,3,num_2,32,num_8,2.56672190852,,,2017_May_05_1238,60.0151491407,MAFE4ImagesEEG,001,200277,
AFNE01.JPG,AFNE01.JPG,AFNE01.JPG,AFNE01.JPG,AFNE01.JPG,AFNE01.JPG,,,,,2,7,27,6,,,,,,,,,,,,,,,,,,,AFNE17.jpg,AFSA08.jpg,AFNE10.jpg,AFSA12.jpg,AFNE10.jpg,FN,3,num_2,32,num_4,1.31681388058,,,2017_May_05_1238,60.0151491407,MAFE4ImagesEEG,001,200277,
AFNE01.JPG,AFNE01.JPG,AFNE01.JPG,AFNE01.JPG,AFNE01.JPG,AFNE01.JPG,,,,,2,8,28,4,,,,,,,,,,,,,,,,,,,AFNE17.jpg,AFSA19.jpg,AFSA04.jpg,AFNE02.jpg,AFSA19.jpg,FS,4,num_6,32,num_2,2.26664547645,,,2017_May_05_1238,60.0151491407,MAFE4ImagesEEG,001,200277,
AFNE01.JPG,AFNE01.JPG,AFNE01.JPG,AFNE01.JPG,AFNE01.JPG,AFNE01.JPG,,,,,2,9,29,2,,,,,,,,,,,,,,,,,,,AFSA20.jpg,AFNE16.jpg,AFNE05.jpg,AFSA02.jpg,AFNE05.jpg,FN,3,num_2,32,num_4,0.916768207448,,,2017_May_05_1238,60.0151491407,MAFE4ImagesEEG,001,200277,
AFNE01.JPG,AFNE01.JPG,AFNE01.JPG,AFNE01.JPG,AFNE01.JPG,AFNE01.JPG,,,,,3,0,30,9,,,,,,,,,,,,,,,,,,,AFSA08.jpg,AFNE19.jpg,AFNE20.jpg,AFSA14.jpg,AFNE19.jpg,FN,3,num_6,16,num_6,1.20010911534,,,2017_May_05_1238,60.0151491407,MAFE4ImagesEEG,001,200277,
AFNE01.JPG,AFNE01.JPG,AFNE01.JPG,AFNE01.JPG,AFNE01.JPG,AFNE01.JPG,,,,,3,1,31,6,,,,,,,,,,,,,,,,,,,AFSA11.jpg,AFNE15.jpg,AFNE14.jpg,AFSA14.jpg,AFNE14.jpg,FN,3,num_2,32,num_4,1.48342019483,,,2017_May_05_1238,60.0151491407,MAFE4ImagesEEG,001,200277,
AFNE01.JPG,AFNE01.JPG,AFNE01.JPG,AFNE01.JPG,AFNE01.JPG,AFNE01.JPG,,,,,3,2,32,7,,,,,,,,,,,,,,,,,,,AFNE07.jpg,AFSA14.jpg,AFSA04.jpg,AFNE16.jpg,AFNE07.jpg,FN,3,num_8,16,num_8,1.80000153952,,,2017_May_05_1238,60.0151491407,MAFE4ImagesEEG,001,200277,
AFNE01.JPG,AFNE01.JPG,AFNE01.JPG,AFNE01.JPG,AFNE01.JPG,AFNE01.JPG,,,,,3,3,33,1,,,,,,,,,,,,,,,,,,,AFSA12.jpg,AFNE15.jpg,AFNE04.jpg,AFSA09.jpg,AFSA12.jpg,FS,4,num_8,32,num_4,0.866776530398,,,2017_May_05_1238,60.0151491407,MAFE4ImagesEEG,001,200277,
AFNE01.JPG,AFNE01.JPG,AFNE01.JPG,AFNE01.JPG,AFNE01.JPG,AFNE01.JPG,,,,,3,4,34,3,,,,,,,,,,,,,,,,,,,AFSA01.jpg,AFNE13.jpg,AFSA20.jpg,AFNE01.jpg,AFNE01.jpg,FN,3,num_4,32,num_6,1.36671607126,,,2017_May_05_1238,60.0151491407,MAFE4ImagesEEG,001,200277,
AFNE01.JPG,AFNE01.JPG,AFNE01.JPG,AFNE01.JPG,AFNE01.JPG,AFNE01.JPG,,,,,3,5,35,2,,,,,,,,,,,,,,,,,,,AFSA08.jpg,AFNE06.jpg,AFSA02.jpg,AFNE15.jpg,AFNE06.jpg,FN,3,num_6,16,num_6,1.05010169046,,,2017_May_05_1238,60.0151491407,MAFE4ImagesEEG,001,200277,
AFNE01.JPG,AFNE01.JPG,AFNE01.JPG,AFNE01.JPG,AFNE01.JPG,AFNE01.JPG,,,,,3,6,36,8,,,,,,,,,,,,,,,,,,,AFNE03.jpg,AFNE20.jpg,AFSA12.jpg,AFSA04.jpg,AFNE20.jpg,FN,3,num_6,16,num_6,0.83343666466,,,2017_May_05_1238,60.0151491407,MAFE4ImagesEEG,001,200277,
AFNE01.JPG,AFNE01.JPG,AFNE01.JPG,AFNE01.JPG,AFNE01.JPG,AFNE01.JPG,,,,,3,7,37,4,,,,,,,,,,,,,,,,,,,AFSA17.jpg,AFSA10.jpg,AFNE13.jpg,AFNE09.jpg,AFSA17.jpg,FS,4,num_8,32,num_2,1.63338784827,,,2017_May_05_1238,60.0151491407,MAFE4ImagesEEG,001,200277,
AFNE01.JPG,AFNE01.JPG,AFNE01.JPG,AFNE01.JPG,AFNE01.JPG,AFNE01.JPG,,,,,3,8,38,0,,,,,,,,,,,,,,,,,,,AFNE05.jpg,AFSA05.jpg,AFNE01.jpg,AFSA16.jpg,AFNE05.jpg,FN,3,num_8,16,num_8,3.99984957348,,,2017_May_05_1238,60.0151491407,MAFE4ImagesEEG,001,200277,
AFNE01.JPG,AFNE01.JPG,AFNE01.JPG,AFNE01.JPG,AFNE01.JPG,AFNE01.JPG,,,,,3,9,39,5,,,,,,,,,,,,,,,,,,,AFNE03.jpg,AFSA04.jpg,AFSA05.jpg,AFNE14.jpg,AFSA04.jpg,FS,4,num_6,16,num_6,0.816834888887,,,2017_May_05_1238,60.0151491407,MAFE4ImagesEEG,001,200277,
AFNE01.JPG,AFNE01.JPG,AFNE01.JPG,AFNE01.JPG,AFNE01.JPG,AFNE01.JPG,,,,,4,0,40,6,,,,,,,,,,,,,,,,,,,AFSA15.jpg,AFNE11.jpg,AFSA17.jpg,AFNE06.jpg,AFNE06.jpg,FN,3,num_4,32,num_8,2.40001873113,,,2017_May_05_1238,60.0151491407,MAFE4ImagesEEG,001,200277,
AFNE01.JPG,AFNE01.JPG,AFNE01.JPG,AFNE01.JPG,AFNE01.JPG,AFNE01.JPG,,,,,4,1,41,5,,,,,,,,,,,,,,,,,,,AFSA12.jpg,AFNE07.jpg,AFSA05.jpg,AFNE09.jpg,AFSA12.jpg,FS,4,num_8,32,num_2,0.950101337396,,,2017_May_05_1238,60.0151491407,MAFE4ImagesEEG,001,200277,
AFNE01.JPG,AFNE01.JPG,AFNE01.JPG,AFNE01.JPG,AFNE01.JPG,AFNE01.JPG,,,,,4,2,42,1,,,,,,,,,,,,,,,,,,,AFNE09.jpg,AFNE06.jpg,AFSA16.jpg,AFSA09.jpg,AFNE06.jpg,FN,3,num_6,16,num_6,1.20023099612,,,2017_May_05_1238,60.0151491407,MAFE4ImagesEEG,001,200277,
AFNE01.JPG,AFNE01.JPG,AFNE01.JPG,AFNE01.JPG,AFNE01.JPG,AFNE01.JPG,,,,,4,3,43,2,,,,,,,,,,,,,,,,,,,AFSA03.jpg,AFNE02.jpg,AFSA04.jpg,AFNE09.jpg,AFSA03.jpg,FS,4,num_8,32,num_4,2.53324155905,,,2017_May_05_1238,60.0151491407,MAFE4ImagesEEG,001,200277,
AFNE01.JPG,AFNE01.JPG,AFNE01.JPG,AFNE01.JPG,AFNE01.JPG,AFNE01.JPG,,,,,4,4,44,8,,,,,,,,,,,,,,,,,,,AFNE12.jpg,AFSA16.jpg,AFNE11.jpg,AFSA06.jpg,AFNE11.jpg,FN,3,num_2,16,num_2,2.16636479786,,,2017_May_05_1238,60.0151491407,MAFE4ImagesEEG,001,200277,
AFNE01.JPG,AFNE01.JPG,AFNE01.JPG,AFNE01.JPG,AFNE01.JPG,AFNE01.JPG,,,,,4,5,45,7,,,,,,,,,,,,,,,,,,,AFNE03.jpg,AFNE08.jpg,AFSA04.jpg,AFSA07.jpg,AFNE08.jpg,FN,3,num_6,16,num_6,0.783429913223,,,2017_May_05_1238,60.0151491407,MAFE4ImagesEEG,001,200277,
AFNE01.JPG,AFNE01.JPG,AFNE01.JPG,AFNE01.JPG,AFNE01.JPG,AFNE01.JPG,,,,,4,6,46,3,,,,,,,,,,,,,,,,,,,AFSA15.jpg,AFSA16.jpg,AFNE01.jpg,AFNE13.jpg,AFNE01.jpg,FN,3,num_2,16,num_2,1.65005313046,,,2017_May_05_1238,60.0151491407,MAFE4ImagesEEG,001,200277,
AFNE01.JPG,AFNE01.JPG,AFNE01.JPG,AFNE01.JPG,AFNE01.JPG,AFNE01.JPG,,,,,4,7,47,9,,,,,,,,,,,,,,,,,,,AFSA17.jpg,AFSA01.jpg,AFNE12.jpg,AFNE11.jpg,AFSA01.jpg,FS,4,num_6,32,num_4,1.38338103262,,,2017_May_05_1238,60.0151491407,MAFE4ImagesEEG,001,200277,
AFNE01.JPG,AFNE01.JPG,AFNE01.JPG,AFNE01.JPG,AFNE01.JPG,AFNE01.JPG,,,,,4,8,48,0,,,,,,,,,,,,,,,,,,,AFSA11.jpg,AFNE10.jpg,AFSA16.jpg,AFNE11.jpg,AFNE10.jpg,FN,3,num_6,16,num_6,1.05012638727,,,2017_May_05_1238,60.0151491407,MAFE4ImagesEEG,001,200277,
AFNE01.JPG,AFNE01.JPG,AFNE01.JPG,AFNE01.JPG,AFNE01.JPG,AFNE01.JPG,,,,,4,9,49,4,,,,,,,,,,,,,,,,,,,AFSA05.jpg,AFNE07.jpg,AFSA12.jpg,AFNE10.jpg,AFNE10.jpg,FN,3,num_4,16,num_4,0.666800200939,,,2017_May_05_1238,60.0151491407,MAFE4ImagesEEG,001,200277,
AFNE01.JPG,AFNE01.JPG,AFNE01.JPG,AFNE01.JPG,AFNE01.JPG,AFNE01.JPG,,,,,5,0,50,7,,,,,,,,,,,,,,,,,,,AFSA03.jpg,AFNE14.jpg,AFSA11.jpg,AFNE11.jpg,AFSA11.jpg,FS,4,num_2,32,num_4,1.88360731397,,,2017_May_05_1238,60.0151491407,MAFE4ImagesEEG,001,200277,
AFNE01.JPG,AFNE01.JPG,AFNE01.JPG,AFNE01.JPG,AFNE01.JPG,AFNE01.JPG,,,,,5,1,51,6,,,,,,,,,,,,,,,,,,,AFNE19.jpg,AFSA06.jpg,AFNE20.jpg,AFSA02.jpg,AFSA02.jpg,FS,4,num_4,32,num_6,1.50003800751,,,2017_May_05_1238,60.0151491407,MAFE4ImagesEEG,001,200277,
AFNE01.JPG,AFNE01.JPG,AFNE01.JPG,AFNE01.JPG,AFNE01.JPG,AFNE01.JPG,,,,,5,2,52,1,,,,,,,,,,,,,,,,,,,AFNE20.jpg,AFNE12.jpg,AFSA03.jpg,AFSA02.jpg,AFSA02.jpg,FS,4,num_4,32,num_6,0.950146240881,,,2017_May_05_1238,60.0151491407,MAFE4ImagesEEG,001,200277,
AFNE01.JPG,AFNE01.JPG,AFNE01.JPG,AFNE01.JPG,AFNE01.JPG,AFNE01.JPG,,,,,5,3,53,5,,,,,,,,,,,,,,,,,,,AFSA14.jpg,AFNE17.jpg,AFNE06.jpg,AFSA01.jpg,AFNE06.jpg,FN,3,num_2,32,num_6,1.45004665153,,,2017_May_05_1238,60.0151491407,MAFE4ImagesEEG,001,200277,
AFNE01.JPG,AFNE01.JPG,AFNE01.JPG,AFNE01.JPG,AFNE01.JPG,AFNE01.JPG,,,,,5,4,54,2,,,,,,,,,,,,,,,,,,,AFNE08.jpg,AFSA04.jpg,AFSA09.jpg,AFNE05.jpg,AFSA04.jpg,FS,4,num_6,32,num_2,3.38294611033,,,2017_May_05_1238,60.0151491407,MAFE4ImagesEEG,001,200277,
AFNE01.JPG,AFNE01.JPG,AFNE01.JPG,AFNE01.JPG,AFNE01.JPG,AFNE01.JPG,,,,,5,5,55,9,,,,,,,,,,,,,,,,,,,AFNE05.jpg,AFNE02.jpg,AFSA03.jpg,AFSA08.jpg,AFNE05.jpg,FN,3,num_8,32,num_4,1.4500636505,,,2017_May_05_1238,60.0151491407,MAFE4ImagesEEG,001,200277,
AFNE01.JPG,AFNE01.JPG,AFNE01.JPG,AFNE01.JPG,AFNE01.JPG,AFNE01.JPG,,,,,5,6,56,4,,,,,,,,,,,,,,,,,,,AFNE20.jpg,AFSA14.jpg,AFSA08.jpg,AFNE02.jpg,AFNE20.jpg,FN,3,num_8,32,num_2,1.816721668,,,2017_May_05_1238,60.0151491407,MAFE4ImagesEEG,001,200277,
AFNE01.JPG,AFNE01.JPG,AFNE01.JPG,AFNE01.JPG,AFNE01.JPG,AFNE01.JPG,,,,,5,7,57,3,,,,,,,,,,,,,,,,,,,AFNE18.jpg,AFSA08.jpg,AFSA12.jpg,AFNE16.jpg,AFSA08.jpg,FS,4,num_6,32,num_4,1.16674326989,,,2017_May_05_1238,60.0151491407,MAFE4ImagesEEG,001,200277,
AFNE01.JPG,AFNE01.JPG,AFNE01.JPG,AFNE01.JPG,AFNE01.JPG,AFNE01.JPG,,,,,5,8,58,0,,,,,,,,,,,,,,,,,,,AFNE06.jpg,AFSA20.jpg,AFSA08.jpg,AFNE14.jpg,AFNE14.jpg,FN,3,num_4,16,num_4,1.20015658485,,,2017_May_05_1238,60.0151491407,MAFE4ImagesEEG,001,200277,
AFNE01.JPG,AFNE01.JPG,AFNE01.JPG,AFNE01.JPG,AFNE01.JPG,AFNE01.JPG,,,,,5,9,59,8,,,,,,,,,,,,,,,,,,,AFNE08.jpg,AFNE17.jpg,AFSA01.jpg,AFSA04.jpg,AFNE17.jpg,FN,3,num_6,32,num_4,2.01661909581,,,2017_May_05_1238,60.0151491407,MAFE4ImagesEEG,001,200277,
,,,,,,,,,,,,,,,,,,,,,,,,,,,,,,,,,,,,,,,,,,,space,78.97689556,2017_May_05_1238,60.0151491407,MAFE4ImagesEEG,001,200277,
AFNE01.JPG,AFNE01.JPG,AFNE01.JPG,AFNE01.JPG,AFNE01.JPG,AFNE01.JPG,,,,,,,,,0,0,0,6,,,,,,,,,,,,,,,AMSA04.jpg,AMNE01.jpg,AMSA02.jpg,AMNE03.jpg,AMSA04.jpg,MS,2,num_8,16,num_8,0.733450745232,,,2017_May_05_1238,60.0151491407,MAFE4ImagesEEG,001,200277,
AFNE01.JPG,AFNE01.JPG,AFNE01.JPG,AFNE01.JPG,AFNE01.JPG,AFNE01.JPG,,,,,,,,,0,1,1,3,,,,,,,,,,,,,,,AMNE07.jpg,AMSA11.jpg,AMSA14.jpg,AMNE08.jpg,AMNE08.jpg,MN,1,num_4,16,num_4,2.61689223722,,,2017_May_05_1238,60.0151491407,MAFE4ImagesEEG,001,200277,
AFNE01.JPG,AFNE01.JPG,AFNE01.JPG,AFNE01.JPG,AFNE01.JPG,AFNE01.JPG,,,,,,,,,0,2,2,5,,,,,,,,,,,,,,,AMSA06.jpg,AMNE08.jpg,AMSA08.jpg,AMNE13.jpg,AMSA08.jpg,MS,2,num_2,32,num_6,0.900095227407,,,2017_May_05_1238,60.0151491407,MAFE4ImagesEEG,001,200277,
AFNE01.JPG,AFNE01.JPG,AFNE01.JPG,AFNE01.JPG,AFNE01.JPG,AFNE01.JPG,,,,,,,,,0,3,3,0,,,,,,,,,,,,,,,AMSA15.jpg,AMNE11.jpg,AMSA06.jpg,AMNE12.jpg,AMSA15.jpg,MS,2,num_8,32,num_4,1.8333702716,,,2017_May_05_1238,60.0151491407,MAFE4ImagesEEG,001,200277,
AFNE01.JPG,AFNE01.JPG,AFNE01.JPG,AFNE01.JPG,AFNE01.JPG,AFNE01.JPG,,,,,,,,,0,4,4,4,,,,,,,,,,,,,,,AMNE11.jpg,AMNE19.jpg,AMSA07.jpg,AMSA04.jpg,AMNE19.jpg,MN,1,num_6,32,num_2,1.20003598696,,,2017_May_05_1238,60.0151491407,MAFE4ImagesEEG,001,200277,
AFNE01.JPG,AFNE01.JPG,AFNE01.JPG,AFNE01.JPG,AFNE01.JPG,AFNE01.JPG,,,,,,,,,0,5,5,7,,,,,,,,,,,,,,,AMSA07.jpg,AMNE19.jpg,AMSA17.jpg,AMNE14.jpg,AMNE14.jpg,MN,1,num_4,32,num_2,1.51669527125,,,2017_May_05_1238,60.0151491407,MAFE4ImagesEEG,001,200277,
AFNE01.JPG,AFNE01.JPG,AFNE01.JPG,AFNE01.JPG,AFNE01.JPG,AFNE01.JPG,,,,,,,,,0,6,6,1,,,,,,,,,,,,,,,AMSA01.jpg,AMNE13.jpg,AMNE11.jpg,AMSA10.jpg,AMSA01.jpg,MS,2,num_8,32,num_4,1.30008060182,,,2017_May_05_1238,60.0151491407,MAFE4ImagesEEG,001,200277,
AFNE01.JPG,AFNE01.JPG,AFNE01.JPG,AFNE01.JPG,AFNE01.JPG,AFNE01.JPG,,,,,,,,,0,7,7,2,,,,,,,,,,,,,,,AMSA18.jpg,AMSA20.jpg,AMNE17.jpg,AMNE05.jpg,AMNE17.jpg,MN,1,num_2,16,num_2,1.15010492969,,,2017_May_05_1238,60.0151491407,MAFE4ImagesEEG,001,200277,
AFNE01.JPG,AFNE01.JPG,AFNE01.JPG,AFNE01.JPG,AFNE01.JPG,AFNE01.JPG,,,,,,,,,0,8,8,9,,,,,,,,,,,,,,,AMNE15.jpg,AMSA12.jpg,AMSA15.jpg,AMNE07.jpg,AMSA15.jpg,MS,2,num_2,32,num_6,0.799806530355,,,2017_May_05_1238,60.0151491407,MAFE4ImagesEEG,001,200277,
AFNE01.JPG,AFNE01.JPG,AFNE01.JPG,AFNE01.JPG,AFNE01.JPG,AFNE01.JPG,,,,,,,,,0,9,9,8,,,,,,,,,,,,,,,AMNE06.jpg,AMSA18.jpg,AMNE19.jpg,AMSA01.jpg,AMSA18.jpg,MS,2,num_6,32,num_2,2.54996168776,,,2017_May_05_1238,60.0151491407,MAFE4ImagesEEG,001,200277,
AFNE01.JPG,AFNE01.JPG,AFNE01.JPG,AFNE01.JPG,AFNE01.JPG,AFNE01.JPG,,,,,,,,,1,0,10,2,,,,,,,,,,,,,,,AMNE04.jpg,AMSA07.jpg,AMSA11.jpg,AMNE09.jpg,AMNE04.jpg,MN,1,num_8,32,num_4,0.900128263514,,,2017_May_05_1238,60.0151491407,MAFE4ImagesEEG,001,200277,
AFNE01.JPG,AFNE01.JPG,AFNE01.JPG,AFNE01.JPG,AFNE01.JPG,AFNE01.JPG,,,,,,,,,1,1,11,8,,,,,,,,,,,,,,,AMNE11.jpg,AMSA10.jpg,AMNE17.jpg,AMSA08.jpg,AMNE11.jpg,MN,1,num_8,32,num_2,1.25027399138,,,2017_May_05_1238,60.0151491407,MAFE4ImagesEEG,001,200277,
AFNE01.JPG,AFNE01.JPG,AFNE01.JPG,AFNE01.JPG,AFNE01.JPG,AFNE01.JPG,,,,,,,,,1,2,12,6,,,,,,,,,,,,,,,AMSA02.jpg,AMNE10.jpg,AMNE12.jpg,AMSA05.jpg,AMSA02.jpg,MS,2,num_8,32,num_6,1.80004836735,,,2017_May_05_1238,60.0151491407,MAFE4ImagesEEG,001,200277,
AFNE01.JPG,AFNE01.JPG,AFNE01.JPG,AFNE01.JPG,AFNE01.JPG,AFNE01.JPG,,,,,,,,,1,3,13,5,,,,,,,,,,,,,,,AMSA05.jpg,AMSA02.jpg,AMNE10.jpg,AMNE15.jpg,AMSA02.jpg,MS,2,num_6,16,num_6,0.800202322192,,,2017_May_05_1238,60.0151491407,MAFE4ImagesEEG,001,200277,
AFNE01.JPG,AFNE01.JPG,AFNE01.JPG,AFNE01.JPG,AFNE01.JPG,AFNE01.JPG,,,,,,,,,1,4,14,0,,,,,,,,,,,,,,,AMNE04.jpg,AMSA09.jpg,AMSA04.jpg,AMNE17.jpg,AMSA09.jpg,MS,2,num_6,32,num_4,1.36672697635,,,2017_May_05_1238,60.0151491407,MAFE4ImagesEEG,001,200277,
AFNE01.JPG,AFNE01.JPG,AFNE01.JPG,AFNE01.JPG,AFNE01.JPG,AFNE01.JPG,,,,,,,,,1,5,15,1,,,,,,,,,,,,,,,AMSA03.jpg,AMNE08.jpg,AMNE15.jpg,AMSA05.jpg,AMSA05.jpg,MS,2,num_4,32,num_2,2.71664273436,,,2017_May_05_1238,60.0151491407,MAFE4ImagesEEG,001,200277,
AFNE01.JPG,AFNE01.JPG,AFNE01.JPG,AFNE01.JPG,AFNE01.JPG,AFNE01.JPG,,,,,,,,,1,6,16,3,,,,,,,,,,,,,,,AMSA14.jpg,AMSA06.jpg,AMNE14.jpg,AMNE10.jpg,AMSA06.jpg,MS,2,num_6,32,num_2,3.03338733502,,,2017_May_05_1238,60.0151491407,MAFE4ImagesEEG,001,200277,
AFNE01.JPG,AFNE01.JPG,AFNE01.JPG,AFNE01.JPG,AFNE01.JPG,AFNE01.JPG,,,,,,,,,1,7,17,9,,,,,,,,,,,,,,,AMSA04.jpg,AMSA16.jpg,AMNE10.jpg,AMNE20.jpg,AMNE20.jpg,MN,1,num_4,32,num_6,0.850134341512,,,2017_May_05_1238,60.0151491407,MAFE4ImagesEEG,001,200277,
AFNE01.JPG,AFNE01.JPG,AFNE01.JPG,AFNE01.JPG,AFNE01.JPG,AFNE01.JPG,,,,,,,,,1,8,18,7,,,,,,,,,,,,,,,AMSA10.jpg,AMSA16.jpg,AMNE12.jpg,AMNE02.jpg,AMSA16.jpg,MS,2,num_6,32,num_4,1.03342967271,,,2017_May_05_1238,60.0151491407,MAFE4ImagesEEG,001,200277,
AFNE01.JPG,AFNE01.JPG,AFNE01.JPG,AFNE01.JPG,AFNE01.JPG,AFNE01.JPG,,,,,,,,,1,9,19,4,,,,,,,,,,,,,,,AMNE01.jpg,AMNE05.jpg,AMSA14.jpg,AMSA12.jpg,AMNE05.jpg,MN,1,num_6,32,num_4,0.766794459894,,,2017_May_05_1238,60.0151491407,MAFE4ImagesEEG,001,200277,
AFNE01.JPG,AFNE01.JPG,AFNE01.JPG,AFNE01.JPG,AFNE01.JPG,AFNE01.JPG,,,,,,,,,2,0,20,1,,,,,,,,,,,,,,,AMNE08.jpg,AMSA12.jpg,AMNE15.jpg,AMSA14.jpg,AMNE15.jpg,MN,1,num_2,16,num_2,2.26666889037,,,2017_May_05_1238,60.0151491407,MAFE4ImagesEEG,001,200277,
AFNE01.JPG,AFNE01.JPG,AFNE01.JPG,AFNE01.JPG,AFNE01.JPG,AFNE01.JPG,,,,,,,,,2,1,21,8,,,,,,,,,,,,,,,AMSA01.jpg,AMNE19.jpg,AMNE14.jpg,AMSA07.jpg,AMSA01.jpg,MS,2,num_8,32,num_4,1.41689538048,,,2017_May_05_1238,60.0151491407,MAFE4ImagesEEG,001,200277,
AFNE01.JPG,AFNE01.JPG,AFNE01.JPG,AFNE01.JPG,AFNE01.JPG,AFNE01.JPG,,,,,,,,,2,2,22,5,,,,,,,,,,,,,,,AMNE06.jpg,AMSA01.jpg,AMNE07.jpg,AMSA17.jpg,AMSA01.jpg,MS,2,num_6,16,num_6,0.450129402103,,,2017_May_05_1238,60.0151491407,MAFE4ImagesEEG,001,200277,
AFNE01.JPG,AFNE01.JPG,AFNE01.JPG,AFNE01.JPG,AFNE01.JPG,AFNE01.JPG,,,,,,,,,2,3,23,0,,,,,,,,,,,,,,,AMSA01.jpg,AMNE01.jpg,AMNE18.jpg,AMSA16.jpg,AMNE01.jpg,MN,1,num_6,32,num_8,2.58334004204,,,2017_May_05_1238,60.0151491407,MAFE4ImagesEEG,001,200277,
AFNE01.JPG,AFNE01.JPG,AFNE01.JPG,AFNE01.JPG,AFNE01.JPG,AFNE01.JPG,,,,,,,,,2,4,24,4,,,,,,,,,,,,,,,AMSA17.jpg,AMNE18.jpg,AMSA15.jpg,AMNE04.jpg,AMSA17.jpg,MS,2,num_8,32,num_4,0.900124414824,,,2017_May_05_1238,60.0151491407,MAFE4ImagesEEG,001,200277,
AFNE01.JPG,AFNE01.JPG,AFNE01.JPG,AFNE01.JPG,AFNE01.JPG,AFNE01.JPG,,,,,,,,,2,5,25,9,,,,,,,,,,,,,,,AMSA02.jpg,AMNE14.jpg,AMSA07.jpg,AMNE18.jpg,AMSA07.jpg,MS,2,num_2,16,num_2,1.38373641134,,,2017_May_05_1238,60.0151491407,MAFE4ImagesEEG,001,200277,
AFNE01.JPG,AFNE01.JPG,AFNE01.JPG,AFNE01.JPG,AFNE01.JPG,AFNE01.JPG,,,,,,,,,2,6,26,6,,,,,,,,,,,,,,,AMNE07.jpg,AMNE17.jpg,AMSA15.jpg,AMSA04.jpg,AMNE07.jpg,MN,1,num_8,16,num_8,0.733526439639,,,2017_May_05_1238,60.0151491407,MAFE4ImagesEEG,001,200277,
AFNE01.JPG,AFNE01.JPG,AFNE01.JPG,AFNE01.JPG,AFNE01.JPG,AFNE01.JPG,,,,,,,,,2,7,27,2,,,,,,,,,,,,,,,AMNE15.jpg,AMNE05.jpg,AMSA03.jpg,AMSA04.jpg,AMNE05.jpg,MN,1,num_6,16,num_6,0.700145519339,,,2017_May_05_1238,60.0151491407,MAFE4ImagesEEG,001,200277,
AFNE01.JPG,AFNE01.JPG,AFNE01.JPG,AFNE01.JPG,AFNE01.JPG,AFNE01.JPG,,,,,,,,,2,8,28,7,,,,,,,,,,,,,,,AMSA09.jpg,AMNE08.jpg,AMSA07.jpg,AMNE03.jpg,AMSA09.jpg,MS,2,num_8,32,num_4,3.11626823922,,,2017_May_05_1238,60.0151491407,MAFE4ImagesEEG,001,200277,
AFNE01.JPG,AFNE01.JPG,AFNE01.JPG,AFNE01.JPG,AFNE01.JPG,AFNE01.JPG,,,,,,,,,2,9,29,3,,,,,,,,,,,,,,,AMSA02.jpg,AMSA03.jpg,AMNE16.jpg,AMNE09.jpg,AMSA03.jpg,MS,2,num_6,32,num_8,1.51662951964,,,2017_May_05_1238,60.0151491407,MAFE4ImagesEEG,001,200277,
AFNE01.JPG,AFNE01.JPG,AFNE01.JPG,AFNE01.JPG,AFNE01.JPG,AFNE01.JPG,,,,,,,,,3,0,30,6,,,,,,,,,,,,,,,AMNE07.jpg,AMSA20.jpg,AMNE05.jpg,AMSA10.jpg,AMNE05.jpg,MN,1,num_2,16,num_2,1.31673209206,,,2017_May_05_1238,60.0151491407,MAFE4ImagesEEG,001,200277,
AFNE01.JPG,AFNE01.JPG,AFNE01.JPG,AFNE01.JPG,AFNE01.JPG,AFNE01.JPG,,,,,,,,,3,1,31,2,,,,,,,,,,,,,,,AMNE03.jpg,AMSA14.jpg,AMSA13.jpg,AMNE19.jpg,AMSA13.jpg,MS,2,num_2,32,num_6,0.950091715436,,,2017_May_05_1238,60.0151491407,MAFE4ImagesEEG,001,200277,
AFNE01.JPG,AFNE01.JPG,AFNE01.JPG,AFNE01.JPG,AFNE01.JPG,AFNE01.JPG,,,,,,,,,3,2,32,0,,,,,,,,,,,,,,,AMNE10.jpg,AMSA05.jpg,AMNE17.jpg,AMSA19.jpg,AMNE17.jpg,MN,1,num_2,32,num_6,0.866777172079,,,2017_May_05_1238,60.0151491407,MAFE4ImagesEEG,001,200277,
AFNE01.JPG,AFNE01.JPG,AFNE01.JPG,AFNE01.JPG,AFNE01.JPG,AFNE01.JPG,,,,,,,,,3,3,33,5,,,,,,,,,,,,,,,AMNE16.jpg,AMSA11.jpg,AMNE03.jpg,AMSA20.jpg,AMSA20.jpg,MS,2,num_4,32,num_2,1.66670365864,,,2017_May_05_1238,60.0151491407,MAFE4ImagesEEG,001,200277,
AFNE01.JPG,AFNE01.JPG,AFNE01.JPG,AFNE01.JPG,AFNE01.JPG,AFNE01.JPG,,,,,,,,,3,4,34,8,,,,,,,,,,,,,,,AMSA15.jpg,AMSA06.jpg,AMNE09.jpg,AMNE13.jpg,AMSA15.jpg,MS,2,num_8,32,num_4,1.73344080243,,,2017_May_05_1238,60.0151491407,MAFE4ImagesEEG,001,200277,
AFNE01.JPG,AFNE01.JPG,AFNE01.JPG,AFNE01.JPG,AFNE01.JPG,AFNE01.JPG,,,,,,,,,3,5,35,9,,,,,,,,,,,,,,,AMNE15.jpg,AMSA20.jpg,AMNE11.jpg,AMSA13.jpg,AMNE11.jpg,MN,1,num_2,32,num_6,2.31661534309,,,2017_May_05_1238,60.0151491407,MAFE4ImagesEEG,001,200277,
AFNE01.JPG,AFNE01.JPG,AFNE01.JPG,AFNE01.JPG,AFNE01.JPG,AFNE01.JPG,,,,,,,,,3,6,36,3,,,,,,,,,,,,,,,AMNE18.jpg,AMSA14.jpg,AMSA04.jpg,AMNE02.jpg,AMSA04.jpg,MS,2,num_2,16,num_2,1.88333468582,,,2017_May_05_1238,60.0151491407,MAFE4ImagesEEG,001,200277,
AFNE01.JPG,AFNE01.JPG,AFNE01.JPG,AFNE01.JPG,AFNE01.JPG,AFNE01.JPG,,,,,,,,,3,7,37,7,,,,,,,,,,,,,,,AMNE06.jpg,AMSA18.jpg,AMNE14.jpg,AMSA06.jpg,AMSA06.jpg,MS,2,num_4,32,num_2,1.36673948518,,,2017_May_05_1238,60.0151491407,MAFE4ImagesEEG,001,200277,
AFNE01.JPG,AFNE01.JPG,AFNE01.JPG,AFNE01.JPG,AFNE01.JPG,AFNE01.JPG,,,,,,,,,3,8,38,1,,,,,,,,,,,,,,,AMNE18.jpg,AMSA03.jpg,AMSA11.jpg,AMNE20.jpg,AMNE18.jpg,MN,1,num_8,32,num_4,1.20013862359,,,2017_May_05_1238,60.0151491407,MAFE4ImagesEEG,001,200277,
AFNE01.JPG,AFNE01.JPG,AFNE01.JPG,AFNE01.JPG,AFNE01.JPG,AFNE01.JPG,,,,,,,,,3,9,39,4,,,,,,,,,,,,,,,AMNE18.jpg,AMSA17.jpg,AMNE13.jpg,AMSA06.jpg,AMNE18.jpg,MN,1,num_8,32,num_6,2.98328981455,,,2017_May_05_1238,60.0151491407,MAFE4ImagesEEG,001,200277,
AFNE01.JPG,AFNE01.JPG,AFNE01.JPG,AFNE01.JPG,AFNE01.JPG,AFNE01.JPG,,,,,,,,,4,0,40,3,,,,,,,,,,,,,,,AMSA02.jpg,AMSA06.jpg,AMNE01.jpg,AMNE18.jpg,AMSA02.jpg,MS,2,num_8,32,num_4,2.65002298099,,,2017_May_05_1238,60.0151491407,MAFE4ImagesEEG,001,200277,
AFNE01.JPG,AFNE01.JPG,AFNE01.JPG,AFNE01.JPG,AFNE01.JPG,AFNE01.JPG,,,,,,,,,4,1,41,1,,,,,,,,,,,,,,,AMNE10.jpg,AMSA14.jpg,AMSA04.jpg,AMNE20.jpg,AMSA04.jpg,MS,2,num_2,32,num_4,3.28326040274,,,2017_May_05_1238,60.0151491407,MAFE4ImagesEEG,001,200277,
AFNE01.JPG,AFNE01.JPG,AFNE01.JPG,AFNE01.JPG,AFNE01.JPG,AFNE01.JPG,,,,,,,,,4,2,42,2,,,,,,,,,,,,,,,AMNE10.jpg,AMSA08.jpg,AMNE07.jpg,AMSA12.jpg,AMNE07.jpg,MN,1,num_2,32,num_4,1.15008760989,,,2017_May_05_1238,60.0151491407,MAFE4ImagesEEG,001,200277,
AFNE01.JPG,AFNE01.JPG,AFNE01.JPG,AFNE01.JPG,AFNE01.JPG,AFNE01.JPG,,,,,,,,,4,3,43,9,,,,,,,,,,,,,,,AMNE03.jpg,AMSA11.jpg,AMNE10.jpg,AMSA06.jpg,AMSA06.jpg,MS,2,num_4,16,num_4,0.850101947086,,,2017_May_05_1238,60.0151491407,MAFE4ImagesEEG,001,200277,
AFNE01.JPG,AFNE01.JPG,AFNE01.JPG,AFNE01.JPG,AFNE01.JPG,AFNE01.JPG,,,,,,,,,4,4,44,6,,,,,,,,,,,,,,,AMNE14.jpg,AMNE10.jpg,AMSA20.jpg,AMSA09.jpg,AMSA09.jpg,MS,2,num_4,32,num_6,1.45013228874,,,2017_May_05_1238,60.0151491407,MAFE4ImagesEEG,001,200277,
AFNE01.JPG,AFNE01.JPG,AFNE01.JPG,AFNE01.JPG,AFNE01.JPG,AFNE01.JPG,,,,,,,,,4,5,45,5,,,,,,,,,,,,,,,AMNE05.jpg,AMNE19.jpg,AMSA03.jpg,AMSA08.jpg,AMSA08.jpg,MS,2,num_4,16,num_4,1.1667593068,,,2017_May_05_1238,60.0151491407,MAFE4ImagesEEG,001,200277,
AFNE01.JPG,AFNE01.JPG,AFNE01.JPG,AFNE01.JPG,AFNE01.JPG,AFNE01.JPG,,,,,,,,,4,6,46,4,,,,,,,,,,,,,,,AMSA14.jpg,AMNE10.jpg,AMSA06.jpg,AMNE18.jpg,AMNE10.jpg,MN,1,num_6,16,num_6,1.050047806,,,2017_May_05_1238,60.0151491407,MAFE4ImagesEEG,001,200277,
AFNE01.JPG,AFNE01.JPG,AFNE01.JPG,AFNE01.JPG,AFNE01.JPG,AFNE01.JPG,,,,,,,,,4,7,47,0,,,,,,,,,,,,,,,AMSA17.jpg,AMNE06.jpg,AMNE19.jpg,AMSA11.jpg,AMNE19.jpg,MN,1,num_2,32,num_6,1.36672344827,,,2017_May_05_1238,60.0151491407,MAFE4ImagesEEG,001,200277,
AFNE01.JPG,AFNE01.JPG,AFNE01.JPG,AFNE01.JPG,AFNE01.JPG,AFNE01.JPG,,,,,,,,,4,8,48,8,,,,,,,,,,,,,,,AMSA14.jpg,AMNE13.jpg,AMNE04.jpg,AMSA06.jpg,AMNE13.jpg,MN,1,num_6,32,num_2,2.01665052818,,,2017_May_05_1238,60.0151491407,MAFE4ImagesEEG,001,200277,
AFNE01.JPG,AFNE01.JPG,AFNE01.JPG,AFNE01.JPG,AFNE01.JPG,AFNE01.JPG,,,,,,,,,4,9,49,7,,,,,,,,,,,,,,,AMNE16.jpg,AMSA05.jpg,AMNE07.jpg,AMSA13.jpg,AMNE07.jpg,MN,1,num_2,16,num_2,1.05012574559,,,2017_May_05_1238,60.0151491407,MAFE4ImagesEEG,001,200277,
AFNE01.JPG,AFNE01.JPG,AFNE01.JPG,AFNE01.JPG,AFNE01.JPG,AFNE01.JPG,,,,,,,,,5,0,50,2,,,,,,,,,,,,,,,AMSA10.jpg,AMSA07.jpg,AMNE11.jpg,AMNE12.jpg,AMSA10.jpg,MS,2,num_8,32,num_2,1.58337949309,,,2017_May_05_1238,60.0151491407,MAFE4ImagesEEG,001,200277,
AFNE01.JPG,AFNE01.JPG,AFNE01.JPG,AFNE01.JPG,AFNE01.JPG,AFNE01.JPG,,,,,,,,,5,1,51,3,,,,,,,,,,,,,,,AMSA18.jpg,AMSA13.jpg,AMNE18.jpg,AMNE09.jpg,AMNE09.jpg,MN,1,num_4,16,num_4,1.56665968522,,,2017_May_05_1238,60.0151491407,MAFE4ImagesEEG,001,200277,
AFNE01.JPG,AFNE01.JPG,AFNE01.JPG,AFNE01.JPG,AFNE01.JPG,AFNE01.JPG,,,,,,,,,5,2,52,7,,,,,,,,,,,,,,,AMSA15.jpg,AMNE15.jpg,AMNE16.jpg,AMSA14.jpg,AMNE16.jpg,MN,1,num_2,16,num_2,0.966815051157,,,2017_May_05_1238,60.0151491407,MAFE4ImagesEEG,001,200277,
AFNE01.JPG,AFNE01.JPG,AFNE01.JPG,AFNE01.JPG,AFNE01.JPG,AFNE01.JPG,,,,,,,,,5,3,53,0,,,,,,,,,,,,,,,AMSA13.jpg,AMSA07.jpg,AMNE01.jpg,AMNE20.jpg,AMNE01.jpg,MN,1,num_2,16,num_2,1.18344607856,,,2017_May_05_1238,60.0151491407,MAFE4ImagesEEG,001,200277,
AFNE01.JPG,AFNE01.JPG,AFNE01.JPG,AFNE01.JPG,AFNE01.JPG,AFNE01.JPG,,,,,,,,,5,4,54,8,,,,,,,,,,,,,,,AMNE12.jpg,AMNE13.jpg,AMSA13.jpg,AMSA11.jpg,AMNE13.jpg,MN,1,num_6,16,num_6,0.933450809447,,,2017_May_05_1238,60.0151491407,MAFE4ImagesEEG,001,200277,
AFNE01.JPG,AFNE01.JPG,AFNE01.JPG,AFNE01.JPG,AFNE01.JPG,AFNE01.JPG,,,,,,,,,5,5,55,9,,,,,,,,,,,,,,,AMNE08.jpg,AMSA14.jpg,AMNE03.jpg,AMSA16.jpg,AMSA14.jpg,MS,2,num_6,16,num_6,0.51679919078,,,2017_May_05_1238,60.0151491407,MAFE4ImagesEEG,001,200277,
AFNE01.JPG,AFNE01.JPG,AFNE01.JPG,AFNE01.JPG,AFNE01.JPG,AFNE01.JPG,,,,,,,,,5,6,56,6,,,,,,,,,,,,,,,AMNE11.jpg,AMNE12.jpg,AMSA01.jpg,AMSA16.jpg,AMNE12.jpg,MN,1,num_6,32,num_4,1.79998710635,,,2017_May_05_1238,60.0151491407,MAFE4ImagesEEG,001,200277,
AFNE01.JPG,AFNE01.JPG,AFNE01.JPG,AFNE01.JPG,AFNE01.JPG,AFNE01.JPG,,,,,,,,,5,7,57,5,,,,,,,,,,,,,,,AMSA04.jpg,AMSA15.jpg,AMNE17.jpg,AMNE12.jpg,AMSA04.jpg,MS,2,num_8,32,num_6,2.15009434544,,,2017_May_05_1238,60.0151491407,MAFE4ImagesEEG,001,200277,
AFNE01.JPG,AFNE01.JPG,AFNE01.JPG,AFNE01.JPG,AFNE01.JPG,AFNE01.JPG,,,,,,,,,5,8,58,1,,,,,,,,,,,,,,,AMNE06.jpg,AMSA18.jpg,AMSA04.jpg,AMNE04.jpg,AMSA04.jpg,MS,2,num_2,16,num_2,1.01671050652,,,2017_May_05_1238,60.0151491407,MAFE4ImagesEEG,001,200277,
AFNE01.JPG,AFNE01.JPG,AFNE01.JPG,AFNE01.JPG,AFNE01.JPG,AFNE01.JPG,,,,,,,,,5,9,59,4,,,,,,,,,,,,,,,AMNE13.jpg,AMSA05.jpg,AMSA16.jpg,AMNE06.jpg,AMNE13.jpg,MN,1,num_8,32,num_6,1.83335904591,,,2017_May_05_1238,60.0151491407,MAFE4ImagesEEG,001,200277,
,,,,,,,,,,,,,,,,,,,,,,,,,,,,,,,,,,,,,,,,,,,space,53.2125582823,2017_May_05_1238,60.0151491407,MAFE4ImagesEEG,001,200277,
AFNE01.JPG,AFNE01.JPG,AFNE01.JPG,AFNE01.JPG,AFNE01.JPG,AFNE01.JPG,,,,,,,,,,,,,0,0,0,1,,,,,,,,,,,AFNE08.jpg,AFSA09.jpg,AFSA18.jpg,AFNE12.jpg,AFSA09.jpg,FS,4,num_6,16,num_6,0.766768159112,,,2017_May_05_1238,60.0151491407,MAFE4ImagesEEG,001,200277,
AFNE01.JPG,AFNE01.JPG,AFNE01.JPG,AFNE01.JPG,AFNE01.JPG,AFNE01.JPG,,,,,,,,,,,,,0,1,1,8,,,,,,,,,,,AFNE06.jpg,AFSA05.jpg,AFSA16.jpg,AFNE04.jpg,AFSA16.jpg,FS,4,num_2,32,num_4,0.866780700162,,,2017_May_05_1238,60.0151491407,MAFE4ImagesEEG,001,200277,
AFNE01.JPG,AFNE01.JPG,AFNE01.JPG,AFNE01.JPG,AFNE01.JPG,AFNE01.JPG,,,,,,,,,,,,,0,2,2,2,,,,,,,,,,,AFSA09.jpg,AFNE03.jpg,AFNE10.jpg,AFSA20.jpg,AFNE10.jpg,FN,3,num_2,16,num_2,1.63338496163,,,2017_May_05_1238,60.0151491407,MAFE4ImagesEEG,001,200277,
AFNE01.JPG,AFNE01.JPG,AFNE01.JPG,AFNE01.JPG,AFNE01.JPG,AFNE01.JPG,,,,,,,,,,,,,0,3,3,0,,,,,,,,,,,AFSA02.jpg,AFSA15.jpg,AFNE16.jpg,AFNE19.jpg,AFNE19.jpg,FN,3,num_4,32,num_6,0.916732284706,,,2017_May_05_1238,60.0151491407,MAFE4ImagesEEG,001,200277,
AFNE01.JPG,AFNE01.JPG,AFNE01.JPG,AFNE01.JPG,AFNE01.JPG,AFNE01.JPG,,,,,,,,,,,,,0,4,4,5,,,,,,,,,,,AFSA15.jpg,AFSA20.jpg,AFNE17.jpg,AFNE01.jpg,AFSA20.jpg,FS,4,num_6,32,num_2,1.66651955433,,,2017_May_05_1238,60.0151491407,MAFE4ImagesEEG,001,200277,
AFNE01.JPG,AFNE01.JPG,AFNE01.JPG,AFNE01.JPG,AFNE01.JPG,AFNE01.JPG,,,,,,,,,,,,,0,5,5,6,,,,,,,,,,,AFNE14.jpg,AFNE11.jpg,AFSA11.jpg,AFSA10.jpg,AFNE14.jpg,FN,3,num_8,32,num_4,1.10020498419,,,2017_May_05_1238,60.0151491407,MAFE4ImagesEEG,001,200277,
AFNE01.JPG,AFNE01.JPG,AFNE01.JPG,AFNE01.JPG,AFNE01.JPG,AFNE01.JPG,,,,,,,,,,,,,0,6,6,7,,,,,,,,,,,AFNE06.jpg,AFSA08.jpg,AFNE08.jpg,AFSA02.jpg,AFNE06.jpg,FN,3,num_8,16,num_8,2.01686830982,,,2017_May_05_1238,60.0151491407,MAFE4ImagesEEG,001,200277,
AFNE01.JPG,AFNE01.JPG,AFNE01.JPG,AFNE01.JPG,AFNE01.JPG,AFNE01.JPG,,,,,,,,,,,,,0,7,7,4,,,,,,,,,,,AFSA03.jpg,AFNE06.jpg,AFSA05.jpg,AFNE03.jpg,AFSA05.jpg,FS,4,num_2,16,num_2,1.18342811707,,,2017_May_05_1238,60.0151491407,MAFE4ImagesEEG,001,200277,
AFNE01.JPG,AFNE01.JPG,AFNE01.JPG,AFNE01.JPG,AFNE01.JPG,AFNE01.JPG,,,,,,,,,,,,,0,8,8,3,,,,,,,,,,,AFSA14.jpg,AFSA01.jpg,AFNE20.jpg,AFNE08.jpg,AFSA01.jpg,FS,4,num_6,32,num_4,2.39984906022,,,2017_May_05_1238,60.0151491407,MAFE4ImagesEEG,001,200277,
AFNE01.JPG,AFNE01.JPG,AFNE01.JPG,AFNE01.JPG,AFNE01.JPG,AFNE01.JPG,,,,,,,,,,,,,0,9,9,9,,,,,,,,,,,AFNE01.jpg,AFSA05.jpg,AFSA03.jpg,AFNE16.jpg,AFSA05.jpg,FS,4,num_6,16,num_6,0.633630006341,,,2017_May_05_1238,60.0151491407,MAFE4ImagesEEG,001,200277,
AFNE01.JPG,AFNE01.JPG,AFNE01.JPG,AFNE01.JPG,AFNE01.JPG,AFNE01.JPG,,,,,,,,,,,,,1,0,10,8,,,,,,,,,,,AFSA11.jpg,AFNE07.jpg,AFNE08.jpg,AFSA20.jpg,AFNE08.jpg,FN,3,num_2,32,num_6,0.933361002477,,,2017_May_05_1238,60.0151491407,MAFE4ImagesEEG,001,200277,
AFNE01.JPG,AFNE01.JPG,AFNE01.JPG,AFNE01.JPG,AFNE01.JPG,AFNE01.JPG,,,,,,,,,,,,,1,1,11,0,,,,,,,,,,,AFSA12.jpg,AFNE05.jpg,AFSA20.jpg,AFNE12.jpg,AFNE12.jpg,FN,3,num_4,16,num_4,1.31674780813,,,2017_May_05_1238,60.0151491407,MAFE4ImagesEEG,001,200277,
AFNE01.JPG,AFNE01.JPG,AFNE01.JPG,AFNE01.JPG,AFNE01.JPG,AFNE01.JPG,,,,,,,,,,,,,1,2,12,5,,,,,,,,,,,AFSA18.jpg,AFNE13.jpg,AFSA12.jpg,AFNE02.jpg,AFNE13.jpg,FN,3,num_6,16,num_6,0.816734497668,,,2017_May_05_1238,60.0151491407,MAFE4ImagesEEG,001,200277,
AFNE01.JPG,AFNE01.JPG,AFNE01.JPG,AFNE01.JPG,AFNE01.JPG,AFNE01.JPG,,,,,,,,,,,,,1,3,13,1,,,,,,,,,,,AFNE13.jpg,AFSA18.jpg,AFNE04.jpg,AFSA14.jpg,AFNE13.jpg,FN,3,num_8,16,num_8,1.06676504808,,,2017_May_05_1238,60.0151491407,MAFE4ImagesEEG,001,200277,
AFNE01.JPG,AFNE01.JPG,AFNE01.JPG,AFNE01.JPG,AFNE01.JPG,AFNE01.JPG,,,,,,,,,,,,,1,4,14,9,,,,,,,,,,,AFSA06.jpg,AFNE04.jpg,AFNE13.jpg,AFSA04.jpg,AFNE13.jpg,FN,3,num_2,16,num_2,1.43343525357,,,2017_May_05_1238,60.0151491407,MAFE4ImagesEEG,001,200277,
AFNE01.JPG,AFNE01.JPG,AFNE01.JPG,AFNE01.JPG,AFNE01.JPG,AFNE01.JPG,,,,,,,,,,,,,1,5,15,7,,,,,,,,,,,AFNE20.jpg,AFSA04.jpg,AFSA09.jpg,AFNE16.jpg,AFNE20.jpg,FN,3,num_8,32,num_2,4.01670120494,,,2017_May_05_1238,60.0151491407,MAFE4ImagesEEG,001,200277,
AFNE01.JPG,AFNE01.JPG,AFNE01.JPG,AFNE01.JPG,AFNE01.JPG,AFNE01.JPG,,,,,,,,,,,,,1,6,16,6,,,,,,,,,,,AFNE03.jpg,AFSA12.jpg,AFSA09.jpg,AFNE19.jpg,AFSA09.jpg,FS,4,num_2,32,num_6,1.53355203476,,,2017_May_05_1238,60.0151491407,MAFE4ImagesEEG,001,200277,
AFNE01.JPG,AFNE01.JPG,AFNE01.JPG,AFNE01.JPG,AFNE01.JPG,AFNE01.JPG,,,,,,,,,,,,,1,7,17,3,,,,,,,,,,,AFSA20.jpg,AFNE12.jpg,AFNE06.jpg,AFSA11.jpg,AFNE12.jpg,FN,3,num_6,16,num_6,0.583437226247,,,2017_May_05_1238,60.0151491407,MAFE4ImagesEEG,001,200277,
AFNE01.JPG,AFNE01.JPG,AFNE01.JPG,AFNE01.JPG,AFNE01.JPG,AFNE01.JPG,,,,,,,,,,,,,1,8,18,2,,,,,,,,,,,AFSA07.jpg,AFNE18.jpg,AFSA13.jpg,AFNE14.jpg,AFNE18.jpg,FN,3,num_6,32,num_4,1.98334947182,,,2017_May_05_1238,60.0151491407,MAFE4ImagesEEG,001,200277,
AFNE01.JPG,AFNE01.JPG,AFNE01.JPG,AFNE01.JPG,AFNE01.JPG,AFNE01.JPG,,,,,,,,,,,,,1,9,19,4,,,,,,,,,,,AFNE13.jpg,AFSA13.jpg,AFSA12.jpg,AFNE06.jpg,AFSA13.jpg,FS,4,num_6,16,num_6,1.30010112911,,,2017_May_05_1238,60.0151491407,MAFE4ImagesEEG,001,200277,
AFNE01.JPG,AFNE01.JPG,AFNE01.JPG,AFNE01.JPG,AFNE01.JPG,AFNE01.JPG,,,,,,,,,,,,,2,0,20,0,,,,,,,,,,,AFNE20.jpg,AFNE15.jpg,AFSA08.jpg,AFSA07.jpg,AFNE20.jpg,FN,3,num_8,32,num_4,1.0836904496,,,2017_May_05_1238,60.0151491407,MAFE4ImagesEEG,001,200277,
AFNE01.JPG,AFNE01.JPG,AFNE01.JPG,AFNE01.JPG,AFNE01.JPG,AFNE01.JPG,,,,,,,,,,,,,2,1,21,9,,,,,,,,,,,AFNE13.jpg,AFSA02.jpg,AFNE20.jpg,AFSA17.jpg,AFNE20.jpg,FN,3,num_2,16,num_2,1.43341729231,,,2017_May_05_1238,60.0151491407,MAFE4ImagesEEG,001,200277,
AFNE01.JPG,AFNE01.JPG,AFNE01.JPG,AFNE01.JPG,AFNE01.JPG,AFNE01.JPG,,,,,,,,,,,,,2,2,22,8,,,,,,,,,,,AFNE17.jpg,AFSA18.jpg,AFNE09.jpg,AFSA04.jpg,AFNE17.jpg,FN,3,num_8,32,num_4,0.91674511414,,,2017_May_05_1238,60.0151491407,MAFE4ImagesEEG,001,200277,
AFNE01.JPG,AFNE01.JPG,AFNE01.JPG,AFNE01.JPG,AFNE01.JPG,AFNE01.JPG,,,,,,,,,,,,,2,3,23,1,,,,,,,,,,,AFNE08.jpg,AFSA01.jpg,AFSA17.jpg,AFNE03.jpg,AFNE08.jpg,FN,3,num_8,32,num_6,1.71683325316,,,2017_May_05_1238,60.0151491407,MAFE4ImagesEEG,001,200277,
AFNE01.JPG,AFNE01.JPG,AFNE01.JPG,AFNE01.JPG,AFNE01.JPG,AFNE01.JPG,,,,,,,,,,,,,2,4,24,7,,,,,,,,,,,AFSA03.jpg,AFSA14.jpg,AFNE18.jpg,AFNE01.jpg,AFSA14.jpg,FS,4,num_6,32,num_2,1.33345510741,,,2017_May_05_1238,60.0151491407,MAFE4ImagesEEG,001,200277,
AFNE01.JPG,AFNE01.JPG,AFNE01.JPG,AFNE01.JPG,AFNE01.JPG,AFNE01.JPG,,,,,,,,,,,,,2,5,25,5,,,,,,,,,,,AFSA12.jpg,AFNE09.jpg,AFSA19.jpg,AFNE17.jpg,AFSA19.jpg,FS,4,num_2,16,num_2,0.966748337494,,,2017_May_05_1238,60.0151491407,MAFE4ImagesEEG,001,200277,
AFNE01.JPG,AFNE01.JPG,AFNE01.JPG,AFNE01.JPG,AFNE01.JPG,AFNE01.JPG,,,,,,,,,,,,,2,6,26,6,,,,,,,,,,,AFSA06.jpg,AFNE02.jpg,AFNE06.jpg,AFSA08.jpg,AFNE06.jpg,FN,3,num_2,32,num_6,0.966731017455,,,2017_May_05_1238,60.0151491407,MAFE4ImagesEEG,001,200277,
AFNE01.JPG,AFNE01.JPG,AFNE01.JPG,AFNE01.JPG,AFNE01.JPG,AFNE01.JPG,,,,,,,,,,,,,2,7,27,2,,,,,,,,,,,AFSA14.jpg,AFNE19.jpg,AFSA03.jpg,AFNE06.jpg,AFNE19.jpg,FN,3,num_6,32,num_4,1.26669839839,,,2017_May_05_1238,60.0151491407,MAFE4ImagesEEG,001,200277,
AFNE01.JPG,AFNE01.JPG,AFNE01.JPG,AFNE01.JPG,AFNE01.JPG,AFNE01.JPG,,,,,,,,,,,,,2,8,28,3,,,,,,,,,,,AFSA02.jpg,AFNE03.jpg,AFSA14.jpg,AFNE09.jpg,AFNE09.jpg,FN,3,num_4,32,num_2,1.41673853877,,,2017_May_05_1238,60.0151491407,MAFE4ImagesEEG,001,200277,
AFNE01.JPG,AFNE01.JPG,AFNE01.JPG,AFNE01.JPG,AFNE01.JPG,AFNE01.JPG,,,,,,,,,,,,,2,9,29,4,,,,,,,,,,,AFSA08.jpg,AFNE13.jpg,AFSA10.jpg,AFNE02.jpg,AFNE13.jpg,FN,3,num_6,32,num_4,1.1167384428,,,2017_May_05_1238,60.0151491407,MAFE4ImagesEEG,001,200277,
AFNE01.JPG,AFNE01.JPG,AFNE01.JPG,AFNE01.JPG,AFNE01.JPG,AFNE01.JPG,,,,,,,,,,,,,3,0,30,9,,,,,,,,,,,AFNE06.jpg,AFSA09.jpg,AFSA14.jpg,AFNE20.jpg,AFNE20.jpg,FN,3,num_4,32,num_6,0.88374459045,,,2017_May_05_1238,60.0151491407,MAFE4ImagesEEG,001,200277,
AFNE01.JPG,AFNE01.JPG,AFNE01.JPG,AFNE01.JPG,AFNE01.JPG,AFNE01.JPG,,,,,,,,,,,,,3,1,31,2,,,,,,,,,,,AFNE12.jpg,AFNE18.jpg,AFSA19.jpg,AFSA13.jpg,AFNE18.jpg,FN,3,num_6,32,num_2,1.05014691455,,,2017_May_05_1238,60.0151491407,MAFE4ImagesEEG,001,200277,
AFNE01.JPG,AFNE01.JPG,AFNE01.JPG,AFNE01.JPG,AFNE01.JPG,AFNE01.JPG,,,,,,,,,,,,,3,2,32,3,,,,,,,,,,,AFSA02.jpg,AFSA14.jpg,AFNE08.jpg,AFNE16.jpg,AFNE16.jpg,FN,3,num_4,32,num_2,1.5334599826,,,2017_May_05_1238,60.0151491407,MAFE4ImagesEEG,001,200277,
AFNE01.JPG,AFNE01.JPG,AFNE01.JPG,AFNE01.JPG,AFNE01.JPG,AFNE01.JPG,,,,,,,,,,,,,3,3,33,6,,,,,,,,,,,AFSA16.jpg,AFSA14.jpg,AFNE17.jpg,AFNE19.jpg,AFNE19.jpg,FN,3,num_4,16,num_4,1.1000731606,,,2017_May_05_1238,60.0151491407,MAFE4ImagesEEG,001,200277,
AFNE01.JPG,AFNE01.JPG,AFNE01.JPG,AFNE01.JPG,AFNE01.JPG,AFNE01.JPG,,,,,,,,,,,,,3,4,34,7,,,,,,,,,,,AFNE04.jpg,AFSA01.jpg,AFSA10.jpg,AFNE10.jpg,AFSA10.jpg,FS,4,num_2,32,num_6,1.23344416986,,,2017_May_05_1238,60.0151491407,MAFE4ImagesEEG,001,200277,
AFNE01.JPG,AFNE01.JPG,AFNE01.JPG,AFNE01.JPG,AFNE01.JPG,AFNE01.JPG,,,,,,,,,,,,,3,5,35,4,,,,,,,,,,,AFNE15.jpg,AFSA13.jpg,AFSA16.jpg,AFNE16.jpg,AFSA16.jpg,FS,4,num_2,32,num_6,0.750059577171,,,2017_May_05_1238,60.0151491407,MAFE4ImagesEEG,001,200277,
AFNE01.JPG,AFNE01.JPG,AFNE01.JPG,AFNE01.JPG,AFNE01.JPG,AFNE01.JPG,,,,,,,,,,,,,3,6,36,0,,,,,,,,,,,AFNE14.jpg,AFNE03.jpg,AFSA18.jpg,AFSA19.jpg,AFNE14.jpg,FN,3,num_8,32,num_6,2.84991206927,,,2017_May_05_1238,60.0151491407,MAFE4ImagesEEG,001,200277,
AFNE01.JPG,AFNE01.JPG,AFNE01.JPG,AFNE01.JPG,AFNE01.JPG,AFNE01.JPG,,,,,,,,,,,,,3,7,37,5,,,,,,,,,,,AFSA06.jpg,AFSA08.jpg,AFNE18.jpg,AFNE10.jpg,AFNE10.jpg,FN,3,num_4,32,num_2,2.55001428886,,,2017_May_05_1238,60.0151491407,MAFE4ImagesEEG,001,200277,
AFNE01.JPG,AFNE01.JPG,AFNE01.JPG,AFNE01.JPG,AFNE01.JPG,AFNE01.JPG,,,,,,,,,,,,,3,8,38,1,,,,,,,,,,,AFNE13.jpg,AFNE15.jpg,AFSA11.jpg,AFSA08.jpg,AFSA11.jpg,FS,4,num_2,32,num_8,2.40003476827,,,2017_May_05_1238,60.0151491407,MAFE4ImagesEEG,001,200277,
AFNE01.JPG,AFNE01.JPG,AFNE01.JPG,AFNE01.JPG,AFNE01.JPG,AFNE01.JPG,,,,,,,,,,,,,3,9,39,8,,,,,,,,,,,AFSA19.jpg,AFSA05.jpg,AFNE20.jpg,AFNE11.jpg,AFSA19.jpg,FS,4,num_8,32,num_4,1.86670725094,,,2017_May_05_1238,60.0151491407,MAFE4ImagesEEG,001,200277,
AFNE01.JPG,AFNE01.JPG,AFNE01.JPG,AFNE01.JPG,AFNE01.JPG,AFNE01.JPG,,,,,,,,,,,,,4,0,40,7,,,,,,,,,,,AFSA19.jpg,AFNE12.jpg,AFNE14.jpg,AFSA04.jpg,AFSA04.jpg,FS,4,num_4,16,num_4,1.7504707647,,,2017_May_05_1238,60.0151491407,MAFE4ImagesEEG,001,200277,
AFNE01.JPG,AFNE01.JPG,AFNE01.JPG,AFNE01.JPG,AFNE01.JPG,AFNE01.JPG,,,,,,,,,,,,,4,1,41,0,,,,,,,,,,,AFSA16.jpg,AFNE13.jpg,AFSA05.jpg,AFNE01.jpg,AFSA16.jpg,FS,4,num_8,16,num_8,1.08342551906,,,2017_May_05_1238,60.0151491407,MAFE4ImagesEEG,001,200277,
AFNE01.JPG,AFNE01.JPG,AFNE01.JPG,AFNE01.JPG,AFNE01.JPG,AFNE01.JPG,,,,,,,,,,,,,4,2,42,6,,,,,,,,,,,AFNE17.jpg,AFNE06.jpg,AFSA03.jpg,AFSA12.jpg,AFNE06.jpg,FN,3,num_6,16,num_6,1.15008279867,,,2017_May_05_1238,60.0151491407,MAFE4ImagesEEG,001,200277,
AFNE01.JPG,AFNE01.JPG,AFNE01.JPG,AFNE01.JPG,AFNE01.JPG,AFNE01.JPG,,,,,,,,,,,,,4,3,43,5,,,,,,,,,,,AFNE01.jpg,AFSA19.jpg,AFSA17.jpg,AFNE02.jpg,AFNE01.jpg,FN,3,num_8,32,num_4,1.25007352931,,,2017_May_05_1238,60.0151491407,MAFE4ImagesEEG,001,200277,
AFNE01.JPG,AFNE01.JPG,AFNE01.JPG,AFNE01.JPG,AFNE01.JPG,AFNE01.JPG,,,,,,,,,,,,,4,4,44,3,,,,,,,,,,,AFNE18.jpg,AFNE16.jpg,AFSA20.jpg,AFSA03.jpg,AFSA03.jpg,FS,4,num_4,32,num_6,1.71668571304,,,2017_May_05_1238,60.0151491407,MAFE4ImagesEEG,001,200277,
AFNE01.JPG,AFNE01.JPG,AFNE01.JPG,AFNE01.JPG,AFNE01.JPG,AFNE01.JPG,,,,,,,,,,,,,4,5,45,4,,,,,,,,,,,AFSA17.jpg,AFNE03.jpg,AFNE08.jpg,AFSA05.jpg,AFSA17.jpg,FS,4,num_8,32,num_4,0.866810208187,,,2017_May_05_1238,60.0151491407,MAFE4ImagesEEG,001,200277,
AFNE01.JPG,AFNE01.JPG,AFNE01.JPG,AFNE01.JPG,AFNE01.JPG,AFNE01.JPG,,,,,,,,,,,,,4,6,46,9,,,,,,,,,,,AFSA07.jpg,AFNE15.jpg,AFNE17.jpg,AFSA15.jpg,AFNE17.jpg,FN,3,num_2,16,num_2,2.15002282057,,,2017_May_05_1238,60.0151491407,MAFE4ImagesEEG,001,200277,
AFNE01.JPG,AFNE01.JPG,AFNE01.JPG,AFNE01.JPG,AFNE01.JPG,AFNE01.JPG,,,,,,,,,,,,,4,7,47,1,,,,,,,,,,,AFSA05.jpg,AFSA11.jpg,AFNE08.jpg,AFNE10.jpg,AFSA05.jpg,FS,4,num_8,32,num_4,1.41668529622,,,2017_May_05_1238,60.0151491407,MAFE4ImagesEEG,001,200277,
AFNE01.JPG,AFNE01.JPG,AFNE01.JPG,AFNE01.JPG,AFNE01.JPG,AFNE01.JPG,,,,,,,,,,,,,4,8,48,8,,,,,,,,,,,AFNE09.jpg,AFSA01.jpg,AFSA08.jpg,AFNE10.jpg,AFSA08.jpg,FS,4,num_2,32,num_6,2.21664417745,,,2017_May_05_1238,60.0151491407,MAFE4ImagesEEG,001,200277,
AFNE01.JPG,AFNE01.JPG,AFNE01.JPG,AFNE01.JPG,AFNE01.JPG,AFNE01.JPG,,,,,,,,,,,,,4,9,49,2,,,,,,,,,,,AFNE03.jpg,AFSA04.jpg,AFNE01.jpg,AFSA14.jpg,AFNE03.jpg,FN,3,num_8,32,num_4,1.00011257944,,,2017_May_05_1238,60.0151491407,MAFE4ImagesEEG,001,200277,
AFNE01.JPG,AFNE01.JPG,AFNE01.JPG,AFNE01.JPG,AFNE01.JPG,AFNE01.JPG,,,,,,,,,,,,,5,0,50,0,,,,,,,,,,,AFNE15.jpg,AFNE01.jpg,AFSA14.jpg,AFSA09.jpg,AFSA09.jpg,FS,4,num_4,16,num_4,1.03344153985,,,2017_May_05_1238,60.0151491407,MAFE4ImagesEEG,001,200277,
AFNE01.JPG,AFNE01.JPG,AFNE01.JPG,AFNE01.JPG,AFNE01.JPG,AFNE01.JPG,,,,,,,,,,,,,5,1,51,2,,,,,,,,,,,AFNE16.jpg,AFSA07.jpg,AFSA11.jpg,AFNE04.jpg,AFNE16.jpg,FN,3,num_8,32,num_6,1.46670134924,,,2017_May_05_1238,60.0151491407,MAFE4ImagesEEG,001,200277,
AFNE01.JPG,AFNE01.JPG,AFNE01.JPG,AFNE01.JPG,AFNE01.JPG,AFNE01.JPG,,,,,,,,,,,,,5,2,52,7,,,,,,,,,,,AFSA04.jpg,AFNE08.jpg,AFSA12.jpg,AFNE10.jpg,AFSA12.jpg,FS,4,num_2,16,num_2,2.31664613402,,,2017_May_05_1238,60.0151491407,MAFE4ImagesEEG,001,200277,
AFNE01.JPG,AFNE01.JPG,AFNE01.JPG,AFNE01.JPG,AFNE01.JPG,AFNE01.JPG,,,,,,,,,,,,,5,3,53,5,,,,,,,,,,,AFSA09.jpg,AFNE03.jpg,AFSA12.jpg,AFNE02.jpg,AFNE03.jpg,FN,3,num_6,48,None,,,,2017_May_05_1238,60.0151491407,MAFE4ImagesEEG,001,200277,
AFNE01.JPG,AFNE01.JPG,AFNE01.JPG,AFNE01.JPG,AFNE01.JPG,AFNE01.JPG,,,,,,,,,,,,,5,4,54,6,,,,,,,,,,,AFNE13.jpg,AFNE11.jpg,AFSA03.jpg,AFSA01.jpg,AFNE11.jpg,FN,3,num_6,32,num_4,3.43324345164,,,2017_May_05_1238,60.0151491407,MAFE4ImagesEEG,001,200277,
AFNE01.JPG,AFNE01.JPG,AFNE01.JPG,AFNE01.JPG,AFNE01.JPG,AFNE01.JPG,,,,,,,,,,,,,5,5,55,4,,,,,,,,,,,AFNE05.jpg,AFSA03.jpg,AFSA17.jpg,AFNE06.jpg,AFSA17.jpg,FS,4,num_2,32,num_6,0.683455219492,,,2017_May_05_1238,60.0151491407,MAFE4ImagesEEG,001,200277,
AFNE01.JPG,AFNE01.JPG,AFNE01.JPG,AFNE01.JPG,AFNE01.JPG,AFNE01.JPG,,,,,,,,,,,,,5,6,56,3,,,,,,,,,,,AFSA19.jpg,AFNE09.jpg,AFNE18.jpg,AFSA02.jpg,AFSA19.jpg,FS,4,num_8,32,num_4,1.36670837342,,,2017_May_05_1238,60.0151491407,MAFE4ImagesEEG,001,200277,
AFNE01.JPG,AFNE01.JPG,AFNE01.JPG,AFNE01.JPG,AFNE01.JPG,AFNE01.JPG,,,,,,,,,,,,,5,7,57,8,,,,,,,,,,,AFSA09.jpg,AFSA19.jpg,AFNE10.jpg,AFNE17.jpg,AFNE10.jpg,FN,3,num_2,16,num_2,1.28356702905,,,2017_May_05_1238,60.0151491407,MAFE4ImagesEEG,001,200277,
AFNE01.JPG,AFNE01.JPG,AFNE01.JPG,AFNE01.JPG,AFNE01.JPG,AFNE01.JPG,,,,,,,,,,,,,5,8,58,1,,,,,,,,,,,AFSA19.jpg,AFNE06.jpg,AFSA14.jpg,AFNE10.jpg,AFSA14.jpg,FS,4,num_2,32,num_6,1.10010106489,,,2017_May_05_1238,60.0151491407,MAFE4ImagesEEG,001,200277,
AFNE01.JPG,AFNE01.JPG,AFNE01.JPG,AFNE01.JPG,AFNE01.JPG,AFNE01.JPG,,,,,,,,,,,,,5,9,59,9,,,,,,,,,,,AFSA02.jpg,AFNE04.jpg,AFSA12.jpg,AFNE16.jpg,AFSA02.jpg,FS,4,num_8,32,num_6,1.36674205097,,,2017_May_05_1238,60.0151491407,MAFE4ImagesEEG,001,200277,
,,,,,,,,,,,,,,,,,,,,,,,,,,,,,,,,,,,,,,,,,,,space,61.3288614822,2017_May_05_1238,60.0151491407,MAFE4ImagesEEG,001,200277,
AFNE01.JPG,AFNE01.JPG,AFNE01.JPG,AFNE01.JPG,AFNE01.JPG,AFNE01.JPG,,,,,,,,,,,,,,,,,0,0,0,8,,,,,,,AMSA04.jpg,AMSA14.jpg,AMNE17.jpg,AMNE14.jpg,AMNE17.jpg,MN,1,num_2,32,num_6,0.96676180861,,,2017_May_05_1238,60.0151491407,MAFE4ImagesEEG,001,200277,
AFNE01.JPG,AFNE01.JPG,AFNE01.JPG,AFNE01.JPG,AFNE01.JPG,AFNE01.JPG,,,,,,,,,,,,,,,,,0,1,1,4,,,,,,,AMSA02.jpg,AMSA03.jpg,AMNE07.jpg,AMNE02.jpg,AMNE07.jpg,MN,1,num_2,16,num_2,1.216743286,,,2017_May_05_1238,60.0151491407,MAFE4ImagesEEG,001,200277,
AFNE01.JPG,AFNE01.JPG,AFNE01.JPG,AFNE01.JPG,AFNE01.JPG,AFNE01.JPG,,,,,,,,,,,,,,,,,0,2,2,6,,,,,,,AMNE15.jpg,AMNE17.jpg,AMSA14.jpg,AMSA18.jpg,AMNE15.jpg,MN,1,num_8,32,num_6,1.16673781746,,,2017_May_05_1238,60.0151491407,MAFE4ImagesEEG,001,200277,
AFNE01.JPG,AFNE01.JPG,AFNE01.JPG,AFNE01.JPG,AFNE01.JPG,AFNE01.JPG,,,,,,,,,,,,,,,,,0,3,3,5,,,,,,,AMSA02.jpg,AMNE20.jpg,AMNE13.jpg,AMSA10.jpg,AMSA10.jpg,MS,2,num_4,16,num_4,0.883516224101,,,2017_May_05_1238,60.0151491407,MAFE4ImagesEEG,001,200277,
AFNE01.JPG,AFNE01.JPG,AFNE01.JPG,AFNE01.JPG,AFNE01.JPG,AFNE01.JPG,,,,,,,,,,,,,,,,,0,4,4,7,,,,,,,AMSA17.jpg,AMNE17.jpg,AMNE10.jpg,AMSA06.jpg,AMNE17.jpg,MN,1,num_6,32,num_8,1.73340969044,,,2017_May_05_1238,60.0151491407,MAFE4ImagesEEG,001,200277,
AFNE01.JPG,AFNE01.JPG,AFNE01.JPG,AFNE01.JPG,AFNE01.JPG,AFNE01.JPG,,,,,,,,,,,,,,,,,0,5,5,1,,,,,,,AMSA18.jpg,AMSA12.jpg,AMNE08.jpg,AMNE07.jpg,AMSA18.jpg,MS,2,num_8,32,num_6,0.800138815772,,,2017_May_05_1238,60.0151491407,MAFE4ImagesEEG,001,200277,
AFNE01.JPG,AFNE01.JPG,AFNE01.JPG,AFNE01.JPG,AFNE01.JPG,AFNE01.JPG,,,,,,,,,,,,,,,,,0,6,6,0,,,,,,,AMSA12.jpg,AMSA10.jpg,AMNE08.jpg,AMNE04.jpg,AMSA12.jpg,MS,2,num_8,32,num_2,1.60016152426,,,2017_May_05_1238,60.0151491407,MAFE4ImagesEEG,001,200277,
AFNE01.JPG,AFNE01.JPG,AFNE01.JPG,AFNE01.JPG,AFNE01.JPG,AFNE01.JPG,,,,,,,,,,,,,,,,,0,7,7,2,,,,,,,AMSA07.jpg,AMNE08.jpg,AMSA01.jpg,AMNE09.jpg,AMSA07.jpg,MS,2,num_8,32,num_6,1.0001353519,,,2017_May_05_1238,60.0151491407,MAFE4ImagesEEG,001,200277,
AFNE01.JPG,AFNE01.JPG,AFNE01.JPG,AFNE01.JPG,AFNE01.JPG,AFNE01.JPG,,,,,,,,,,,,,,,,,0,8,8,9,,,,,,,AMNE17.jpg,AMSA13.jpg,AMNE20.jpg,AMSA07.jpg,AMNE20.jpg,MN,1,num_2,16,num_2,1.96676180861,,,2017_May_05_1238,60.0151491407,MAFE4ImagesEEG,001,200277,
AFNE01.JPG,AFNE01.JPG,AFNE01.JPG,AFNE01.JPG,AFNE01.JPG,AFNE01.JPG,,,,,,,,,,,,,,,,,0,9,9,3,,,,,,,AMNE10.jpg,AMNE02.jpg,AMSA03.jpg,AMSA11.jpg,AMNE10.jpg,MN,1,num_8,32,num_4,1.18343645637,,,2017_May_05_1238,60.0151491407,MAFE4ImagesEEG,001,200277,
AFNE01.JPG,AFNE01.JPG,AFNE01.JPG,AFNE01.JPG,AFNE01.JPG,AFNE01.JPG,,,,,,,,,,,,,,,,,1,0,10,7,,,,,,,AMNE03.jpg,AMSA11.jpg,AMSA04.jpg,AMNE20.jpg,AMSA11.jpg,MS,2,num_6,16,num_6,1.94998811674,,,2017_May_05_1238,60.0151491407,MAFE4ImagesEEG,001,200277,
AFNE01.JPG,AFNE01.JPG,AFNE01.JPG,AFNE01.JPG,AFNE01.JPG,AFNE01.JPG,,,,,,,,,,,,,,,,,1,1,11,5,,,,,,,AMSA02.jpg,AMSA04.jpg,AMNE15.jpg,AMNE01.jpg,AMSA02.jpg,MS,2,num_8,32,num_2,1.30007643206,,,2017_May_05_1238,60.0151491407,MAFE4ImagesEEG,001,200277,
AFNE01.JPG,AFNE01.JPG,AFNE01.JPG,AFNE01.JPG,AFNE01.JPG,AFNE01.JPG,,,,,,,,,,,,,,,,,1,2,12,3,,,,,,,AMSA20.jpg,AMNE05.jpg,AMNE16.jpg,AMSA10.jpg,AMNE16.jpg,MN,1,num_2,32,num_6,1.66669147043,,,2017_May_05_1238,60.0151491407,MAFE4ImagesEEG,001,200277,
AFNE01.JPG,AFNE01.JPG,AFNE01.JPG,AFNE01.JPG,AFNE01.JPG,AFNE01.JPG,,,,,,,,,,,,,,,,,1,3,13,1,,,,,,,AMSA17.jpg,AMSA08.jpg,AMNE06.jpg,AMNE16.jpg,AMSA17.jpg,MS,2,num_8,32,num_4,1.86668319535,,,2017_May_05_1238,60.0151491407,MAFE4ImagesEEG,001,200277,
AFNE01.JPG,AFNE01.JPG,AFNE01.JPG,AFNE01.JPG,AFNE01.JPG,AFNE01.JPG,,,,,,,,,,,,,,,,,1,4,14,0,,,,,,,AMSA17.jpg,AMSA06.jpg,AMNE09.jpg,AMNE18.jpg,AMNE18.jpg,MN,1,num_4,16,num_4,1.6833602807,,,2017_May_05_1238,60.0151491407,MAFE4ImagesEEG,001,200277,
AFNE01.JPG,AFNE01.JPG,AFNE01.JPG,AFNE01.JPG,AFNE01.JPG,AFNE01.JPG,,,,,,,,,,,,,,,,,1,5,15,2,,,,,,,AMSA07.jpg,AMSA05.jpg,AMNE18.jpg,AMNE05.jpg,AMSA05.jpg,MS,2,num_6,16,num_6,1.50005725189,,,2017_May_05_1238,60.0151491407,MAFE4ImagesEEG,001,200277,
AFNE01.JPG,AFNE01.JPG,AFNE01.JPG,AFNE01.JPG,AFNE01.JPG,AFNE01.JPG,,,,,,,,,,,,,,,,,1,6,16,4,,,,,,,AMNE17.jpg,AMSA01.jpg,AMSA15.jpg,AMNE06.jpg,AMNE17.jpg,MN,1,num_8,32,num_4,1.01675220253,,,2017_May_05_1238,60.0151491407,MAFE4ImagesEEG,001,200277,
AFNE01.JPG,AFNE01.JPG,AFNE01.JPG,AFNE01.JPG,AFNE01.JPG,AFNE01.JPG,,,,,,,,,,,,,,,,,1,7,17,8,,,,,,,AMNE20.jpg,AMSA10.jpg,AMSA11.jpg,AMNE05.jpg,AMSA10.jpg,MS,2,num_6,16,num_6,0.916751849465,,,2017_May_05_1238,60.0151491407,MAFE4ImagesEEG,001,200277,
AFNE01.JPG,AFNE01.JPG,AFNE01.JPG,AFNE01.JPG,AFNE01.JPG,AFNE01.JPG,,,,,,,,,,,,,,,,,1,8,18,9,,,,,,,AMSA20.jpg,AMNE13.jpg,AMNE06.jpg,AMSA04.jpg,AMSA04.jpg,MS,2,num_4,16,num_4,0.983606063295,,,2017_May_05_1238,60.0151491407,MAFE4ImagesEEG,001,200277,
AFNE01.JPG,AFNE01.JPG,AFNE01.JPG,AFNE01.JPG,AFNE01.JPG,AFNE01.JPG,,,,,,,,,,,,,,,,,1,9,19,6,,,,,,,AMSA18.jpg,AMNE15.jpg,AMNE13.jpg,AMSA04.jpg,AMNE15.jpg,MN,1,num_6,32,num_2,1.49996199249,,,2017_May_05_1238,60.0151491407,MAFE4ImagesEEG,001,200277,
AFNE01.JPG,AFNE01.JPG,AFNE01.JPG,AFNE01.JPG,AFNE01.JPG,AFNE01.JPG,,,,,,,,,,,,,,,,,2,0,20,4,,,,,,,AMNE05.jpg,AMSA09.jpg,AMSA10.jpg,AMNE10.jpg,AMSA09.jpg,MS,2,num_6,32,num_4,1.7000768811,,,2017_May_05_1238,60.0151491407,MAFE4ImagesEEG,001,200277,
AFNE01.JPG,AFNE01.JPG,AFNE01.JPG,AFNE01.JPG,AFNE01.JPG,AFNE01.JPG,,,,,,,,,,,,,,,,,2,1,21,2,,,,,,,AMSA08.jpg,AMSA03.jpg,AMNE04.jpg,AMNE06.jpg,AMSA08.jpg,MS,2,num_8,32,num_6,1.08339440753,,,2017_May_05_1238,60.0151491407,MAFE4ImagesEEG,001,200277,
AFNE01.JPG,AFNE01.JPG,AFNE01.JPG,AFNE01.JPG,AFNE01.JPG,AFNE01.JPG,,,,,,,,,,,,,,,,,2,2,22,7,,,,,,,AMNE14.jpg,AMSA07.jpg,AMSA09.jpg,AMNE17.jpg,AMSA09.jpg,MS,2,num_2,32,num_4,1.65004671551,,,2017_May_05_1238,60.0151491407,MAFE4ImagesEEG,001,200277,
AFNE01.JPG,AFNE01.JPG,AFNE01.JPG,AFNE01.JPG,AFNE01.JPG,AFNE01.JPG,,,,,,,,,,,,,,,,,2,3,23,6,,,,,,,AMNE04.jpg,AMNE02.jpg,AMSA20.jpg,AMSA04.jpg,AMNE02.jpg,MN,1,num_6,32,num_8,2.05005165492,,,2017_May_05_1238,60.0151491407,MAFE4ImagesEEG,001,200277,
AFNE01.JPG,AFNE01.JPG,AFNE01.JPG,AFNE01.JPG,AFNE01.JPG,AFNE01.JPG,,,,,,,,,,,,,,,,,2,4,24,9,,,,,,,AMSA17.jpg,AMNE09.jpg,AMNE01.jpg,AMSA19.jpg,AMNE01.jpg,MN,1,num_2,32,num_8,1.15007510106,,,2017_May_05_1238,60.0151491407,MAFE4ImagesEEG,001,200277,
AFNE01.JPG,AFNE01.JPG,AFNE01.JPG,AFNE01.JPG,AFNE01.JPG,AFNE01.JPG,,,,,,,,,,,,,,,,,2,5,25,8,,,,,,,AMNE16.jpg,AMSA20.jpg,AMNE11.jpg,AMSA14.jpg,AMSA14.jpg,MS,2,num_4,16,num_4,0.666829067748,,,2017_May_05_1238,60.0151491407,MAFE4ImagesEEG,001,200277,
AFNE01.JPG,AFNE01.JPG,AFNE01.JPG,AFNE01.JPG,AFNE01.JPG,AFNE01.JPG,,,,,,,,,,,,,,,,,2,6,26,1,,,,,,,AMSA11.jpg,AMSA13.jpg,AMNE20.jpg,AMNE08.jpg,AMNE08.jpg,MN,1,num_4,32,num_2,2.79996850342,,,2017_May_05_1238,60.0151491407,MAFE4ImagesEEG,001,200277,
AFNE01.JPG,AFNE01.JPG,AFNE01.JPG,AFNE01.JPG,AFNE01.JPG,AFNE01.JPG,,,,,,,,,,,,,,,,,2,7,27,5,,,,,,,AMNE01.jpg,AMSA19.jpg,AMNE10.jpg,AMSA07.jpg,AMNE10.jpg,MN,1,num_2,32,num_6,2.00000032084,,,2017_May_05_1238,60.0151491407,MAFE4ImagesEEG,001,200277,
AFNE01.JPG,AFNE01.JPG,AFNE01.JPG,AFNE01.JPG,AFNE01.JPG,AFNE01.JPG,,,,,,,,,,,,,,,,,2,8,28,0,,,,,,,AMSA09.jpg,AMSA16.jpg,AMNE20.jpg,AMNE11.jpg,AMSA16.jpg,MS,2,num_6,16,num_6,2.25004658755,,,2017_May_05_1238,60.0151491407,MAFE4ImagesEEG,001,200277,
AFNE01.JPG,AFNE01.JPG,AFNE01.JPG,AFNE01.JPG,AFNE01.JPG,AFNE01.JPG,,,,,,,,,,,,,,,,,2,9,29,3,,,,,,,AMSA19.jpg,AMNE06.jpg,AMSA05.jpg,AMNE03.jpg,AMNE03.jpg,MN,1,num_4,32,num_2,1.86665112129,,,2017_May_05_1238,60.0151491407,MAFE4ImagesEEG,001,200277,
AFNE01.JPG,AFNE01.JPG,AFNE01.JPG,AFNE01.JPG,AFNE01.JPG,AFNE01.JPG,,,,,,,,,,,,,,,,,3,0,30,6,,,,,,,AMNE10.jpg,AMNE20.jpg,AMSA11.jpg,AMSA20.jpg,AMNE20.jpg,MN,1,num_6,16,num_6,1.16688022553,,,2017_May_05_1238,60.0151491407,MAFE4ImagesEEG,001,200277,
AFNE01.JPG,AFNE01.JPG,AFNE01.JPG,AFNE01.JPG,AFNE01.JPG,AFNE01.JPG,,,,,,,,,,,,,,,,,3,1,31,9,,,,,,,AMNE16.jpg,AMSA14.jpg,AMSA10.jpg,AMNE08.jpg,AMNE16.jpg,MN,1,num_8,32,num_2,1.13342585578,,,2017_May_05_1238,60.0151491407,MAFE4ImagesEEG,001,200277,
AFNE01.JPG,AFNE01.JPG,AFNE01.JPG,AFNE01.JPG,AFNE01.JPG,AFNE01.JPG,,,,,,,,,,,,,,,,,3,2,32,4,,,,,,,AMSA06.jpg,AMNE15.jpg,AMNE05.jpg,AMSA08.jpg,AMNE05.jpg,MN,1,num_2,16,num_2,2.28334187041,,,2017_May_05_1238,60.0151491407,MAFE4ImagesEEG,001,200277,
AFNE01.JPG,AFNE01.JPG,AFNE01.JPG,AFNE01.JPG,AFNE01.JPG,AFNE01.JPG,,,,,,,,,,,,,,,,,3,3,33,0,,,,,,,AMNE20.jpg,AMSA03.jpg,AMNE01.jpg,AMSA10.jpg,AMSA03.jpg,MS,2,num_6,32,num_2,2.16665731184,,,2017_May_05_1238,60.0151491407,MAFE4ImagesEEG,001,200277,
AFNE01.JPG,AFNE01.JPG,AFNE01.JPG,AFNE01.JPG,AFNE01.JPG,AFNE01.JPG,,,,,,,,,,,,,,,,,3,4,34,5,,,,,,,AMNE03.jpg,AMSA07.jpg,AMNE17.jpg,AMSA19.jpg,AMSA19.jpg,MS,2,num_4,16,num_4,0.7497221597,,,2017_May_05_1238,60.0151491407,MAFE4ImagesEEG,001,200277,
AFNE01.JPG,AFNE01.JPG,AFNE01.JPG,AFNE01.JPG,AFNE01.JPG,AFNE01.JPG,,,,,,,,,,,,,,,,,3,5,35,3,,,,,,,AMSA13.jpg,AMNE01.jpg,AMNE10.jpg,AMSA18.jpg,AMNE01.jpg,MN,1,num_6,16,num_6,0.800207133172,,,2017_May_05_1238,60.0151491407,MAFE4ImagesEEG,001,200277,
AFNE01.JPG,AFNE01.JPG,AFNE01.JPG,AFNE01.JPG,AFNE01.JPG,AFNE01.JPG,,,,,,,,,,,,,,,,,3,6,36,2,,,,,,,AMSA20.jpg,AMNE15.jpg,AMNE19.jpg,AMSA04.jpg,AMNE19.jpg,MN,1,num_2,32,num_4,1.11684011715,,,2017_May_05_1238,60.0151491407,MAFE4ImagesEEG,001,200277,
AFNE01.JPG,AFNE01.JPG,AFNE01.JPG,AFNE01.JPG,AFNE01.JPG,AFNE01.JPG,,,,,,,,,,,,,,,,,3,7,37,8,,,,,,,AMNE01.jpg,AMNE04.jpg,AMSA07.jpg,AMSA06.jpg,AMSA07.jpg,MS,2,num_2,32,num_8,3.06656394457,,,2017_May_05_1238,60.0151491407,MAFE4ImagesEEG,001,200277,
AFNE01.JPG,AFNE01.JPG,AFNE01.JPG,AFNE01.JPG,AFNE01.JPG,AFNE01.JPG,,,,,,,,,,,,,,,,,3,8,38,1,,,,,,,AMNE20.jpg,AMSA12.jpg,AMSA06.jpg,AMNE03.jpg,AMNE20.jpg,MN,1,num_8,32,num_6,0.966737432405,,,2017_May_05_1238,60.0151491407,MAFE4ImagesEEG,001,200277,
AFNE01.JPG,AFNE01.JPG,AFNE01.JPG,AFNE01.JPG,AFNE01.JPG,AFNE01.JPG,,,,,,,,,,,,,,,,,3,9,39,7,,,,,,,AMNE14.jpg,AMNE13.jpg,AMSA16.jpg,AMSA03.jpg,AMNE14.jpg,MN,1,num_8,32,num_2,1.63339298009,,,2017_May_05_1238,60.0151491407,MAFE4ImagesEEG,001,200277,
AFNE01.JPG,AFNE01.JPG,AFNE01.JPG,AFNE01.JPG,AFNE01.JPG,AFNE01.JPG,,,,,,,,,,,,,,,,,4,0,40,2,,,,,,,AMNE08.jpg,AMSA05.jpg,AMNE01.jpg,AMSA11.jpg,AMSA05.jpg,MS,2,num_6,32,num_4,0.750274151796,,,2017_May_05_1238,60.0151491407,MAFE4ImagesEEG,001,200277,
AFNE01.JPG,AFNE01.JPG,AFNE01.JPG,AFNE01.JPG,AFNE01.JPG,AFNE01.JPG,,,,,,,,,,,,,,,,,4,1,41,6,,,,,,,AMSA09.jpg,AMSA14.jpg,AMNE02.jpg,AMNE14.jpg,AMNE02.jpg,MN,1,num_2,16,num_2,0.983454353642,,,2017_May_05_1238,60.0151491407,MAFE4ImagesEEG,001,200277,
AFNE01.JPG,AFNE01.JPG,AFNE01.JPG,AFNE01.JPG,AFNE01.JPG,AFNE01.JPG,,,,,,,,,,,,,,,,,4,2,42,1,,,,,,,AMSA01.jpg,AMNE17.jpg,AMSA16.jpg,AMNE15.jpg,AMSA01.jpg,MS,2,num_8,16,num_8,1.10013923282,,,2017_May_05_1238,60.0151491407,MAFE4ImagesEEG,001,200277,
AFNE01.JPG,AFNE01.JPG,AFNE01.JPG,AFNE01.JPG,AFNE01.JPG,AFNE01.JPG,,,,,,,,,,,,,,,,,4,3,43,5,,,,,,,AMNE09.jpg,AMNE17.jpg,AMSA05.jpg,AMSA02.jpg,AMNE09.jpg,MN,1,num_8,32,num_6,1.99999775481,,,2017_May_05_1238,60.0151491407,MAFE4ImagesEEG,001,200277,
AFNE01.JPG,AFNE01.JPG,AFNE01.JPG,AFNE01.JPG,AFNE01.JPG,AFNE01.JPG,,,,,,,,,,,,,,,,,4,4,44,4,,,,,,,AMNE03.jpg,AMSA06.jpg,AMNE09.jpg,AMSA07.jpg,AMSA06.jpg,MS,2,num_6,32,num_4,1.90004070173,,,2017_May_05_1238,60.0151491407,MAFE4ImagesEEG,001,200277,
AFNE01.JPG,AFNE01.JPG,AFNE01.JPG,AFNE01.JPG,AFNE01.JPG,AFNE01.JPG,,,,,,,,,,,,,,,,,4,5,45,9,,,,,,,AMNE08.jpg,AMNE13.jpg,AMSA12.jpg,AMSA18.jpg,AMNE13.jpg,MN,1,num_6,32,num_4,1.00012733322,,,2017_May_05_1238,60.0151491407,MAFE4ImagesEEG,001,200277,
AFNE01.JPG,AFNE01.JPG,AFNE01.JPG,AFNE01.JPG,AFNE01.JPG,AFNE01.JPG,,,,,,,,,,,,,,,,,4,6,46,0,,,,,,,AMNE17.jpg,AMSA19.jpg,AMNE01.jpg,AMSA10.jpg,AMSA10.jpg,MS,2,num_4,32,num_6,1.18329821783,,,2017_May_05_1238,60.0151491407,MAFE4ImagesEEG,001,200277,
AFNE01.JPG,AFNE01.JPG,AFNE01.JPG,AFNE01.JPG,AFNE01.JPG,AFNE01.JPG,,,,,,,,,,,,,,,,,4,7,47,3,,,,,,,AMSA15.jpg,AMNE07.jpg,AMNE15.jpg,AMSA18.jpg,AMNE07.jpg,MN,1,num_6,32,num_4,1.51675781538,,,2017_May_05_1238,60.0151491407,MAFE4ImagesEEG,001,200277,
AFNE01.JPG,AFNE01.JPG,AFNE01.JPG,AFNE01.JPG,AFNE01.JPG,AFNE01.JPG,,,,,,,,,,,,,,,,,4,8,48,8,,,,,,,AMSA13.jpg,AMNE13.jpg,AMNE19.jpg,AMSA20.jpg,AMSA20.jpg,MS,2,num_4,32,num_2,1.03342774813,,,2017_May_05_1238,60.0151491407,MAFE4ImagesEEG,001,200277,
AFNE01.JPG,AFNE01.JPG,AFNE01.JPG,AFNE01.JPG,AFNE01.JPG,AFNE01.JPG,,,,,,,,,,,,,,,,,4,9,49,7,,,,,,,AMNE10.jpg,AMSA07.jpg,AMNE06.jpg,AMSA14.jpg,AMSA14.jpg,MS,2,num_4,32,num_8,1.30013993848,,,2017_May_05_1238,60.0151491407,MAFE4ImagesEEG,001,200277,
AFNE01.JPG,AFNE01.JPG,AFNE01.JPG,AFNE01.JPG,AFNE01.JPG,AFNE01.JPG,,,,,,,,,,,,,,,,,5,0,50,4,,,,,,,AMNE10.jpg,AMNE08.jpg,AMSA11.jpg,AMSA16.jpg,AMNE10.jpg,MN,1,num_8,32,num_6,0.750232776394,,,2017_May_05_1238,60.0151491407,MAFE4ImagesEEG,001,200277,
AFNE01.JPG,AFNE01.JPG,AFNE01.JPG,AFNE01.JPG,AFNE01.JPG,AFNE01.JPG,,,,,,,,,,,,,,,,,5,1,51,9,,,,,,,AMNE18.jpg,AMSA15.jpg,AMSA17.jpg,AMNE02.jpg,AMSA17.jpg,MS,2,num_2,16,num_2,1.46669333079,,,2017_May_05_1238,60.0151491407,MAFE4ImagesEEG,001,200277,
AFNE01.JPG,AFNE01.JPG,AFNE01.JPG,AFNE01.JPG,AFNE01.JPG,AFNE01.JPG,,,,,,,,,,,,,,,,,5,2,52,5,,,,,,,AMNE10.jpg,AMSA18.jpg,AMNE09.jpg,AMSA09.jpg,AMSA09.jpg,MS,2,num_4,32,num_6,1.91674703849,,,2017_May_05_1238,60.0151491407,MAFE4ImagesEEG,001,200277,
AFNE01.JPG,AFNE01.JPG,AFNE01.JPG,AFNE01.JPG,AFNE01.JPG,AFNE01.JPG,,,,,,,,,,,,,,,,,5,3,53,0,,,,,,,AMNE04.jpg,AMNE08.jpg,AMSA12.jpg,AMSA11.jpg,AMNE04.jpg,MN,1,num_8,32,num_4,1.4833993467,,,2017_May_05_1238,60.0151491407,MAFE4ImagesEEG,001,200277,
AFNE01.JPG,AFNE01.JPG,AFNE01.JPG,AFNE01.JPG,AFNE01.JPG,AFNE01.JPG,,,,,,,,,,,,,,,,,5,4,54,7,,,,,,,AMNE07.jpg,AMSA14.jpg,AMNE08.jpg,AMSA19.jpg,AMSA19.jpg,MS,2,num_4,32,num_6,1.65006275242,,,2017_May_05_1238,60.0151491407,MAFE4ImagesEEG,001,200277,
AFNE01.JPG,AFNE01.JPG,AFNE01.JPG,AFNE01.JPG,AFNE01.JPG,AFNE01.JPG,,,,,,,,,,,,,,,,,5,5,55,3,,,,,,,AMNE15.jpg,AMSA10.jpg,AMNE17.jpg,AMSA18.jpg,AMSA18.jpg,MS,2,num_4,32,num_6,1.00008980697,,,2017_May_05_1238,60.0151491407,MAFE4ImagesEEG,001,200277,
AFNE01.JPG,AFNE01.JPG,AFNE01.JPG,AFNE01.JPG,AFNE01.JPG,AFNE01.JPG,,,,,,,,,,,,,,,,,5,6,56,6,,,,,,,AMNE07.jpg,AMNE12.jpg,AMSA04.jpg,AMSA06.jpg,AMNE12.jpg,MN,1,num_6,16,num_6,1.33340090257,,,2017_May_05_1238,60.0151491407,MAFE4ImagesEEG,001,200277,
AFNE01.JPG,AFNE01.JPG,AFNE01.JPG,AFNE01.JPG,AFNE01.JPG,AFNE01.JPG,,,,,,,,,,,,,,,,,5,7,57,8,,,,,,,AMNE05.jpg,AMSA03.jpg,AMNE01.jpg,AMSA04.jpg,AMNE01.jpg,MN,1,num_2,16,num_2,1.36677925661,,,2017_May_05_1238,60.0151491407,MAFE4ImagesEEG,001,200277,
AFNE01.JPG,AFNE01.JPG,AFNE01.JPG,AFNE01.JPG,AFNE01.JPG,AFNE01.JPG,,,,,,,,,,,,,,,,,5,8,58,2,,,,,,,AMSA12.jpg,AMNE13.jpg,AMSA16.jpg,AMNE18.jpg,AMSA12.jpg,MS,2,num_8,32,num_6,1.65009546792,,,2017_May_05_1238,60.0151491407,MAFE4ImagesEEG,001,200277,
AFNE01.JPG,AFNE01.JPG,AFNE01.JPG,AFNE01.JPG,AFNE01.JPG,AFNE01.JPG,,,,,,,,,,,,,,,,,5,9,59,1,,,,,,,AMNE18.jpg,AMNE16.jpg,AMSA10.jpg,AMSA18.jpg,AMNE18.jpg,MN,1,num_8,32,num_2,1.18344030506,,,2017_May_05_1238,60.0151491407,MAFE4ImagesEEG,001,200277,
,,,,,,,,,,,,,,,,,,,,,,,,,,,,,,,,,,,,,,,,,,,space,58.112129743,2017_May_05_1238,60.0151491407,MAFE4ImagesEEG,001,200277,
AFNE01.JPG,AFNE01.JPG,AFNE01.JPG,AFNE01.JPG,AFNE01.JPG,AFNE01.JPG,,,,,,,,,,,,,,,,,,,,,0,0,0,8,,,AFSA06.jpg,AFSA19.jpg,AFNE20.jpg,AFNE02.jpg,AFNE20.jpg,FN,3,num_2,32,num_4,0.833468738711,,,2017_May_05_1238,60.0151491407,MAFE4ImagesEEG,001,200277,
AFNE01.JPG,AFNE01.JPG,AFNE01.JPG,AFNE01.JPG,AFNE01.JPG,AFNE01.JPG,,,,,,,,,,,,,,,,,,,,,0,1,1,3,,,AFSA20.jpg,AFNE01.jpg,AFNE18.jpg,AFSA12.jpg,AFSA12.jpg,FS,4,num_4,32,num_2,1.71687110048,,,2017_May_05_1238,60.0151491407,MAFE4ImagesEEG,001,200277,
AFNE01.JPG,AFNE01.JPG,AFNE01.JPG,AFNE01.JPG,AFNE01.JPG,AFNE01.JPG,,,,,,,,,,,,,,,,,,,,,0,2,2,4,,,AFSA01.jpg,AFNE13.jpg,AFNE11.jpg,AFSA08.jpg,AFNE13.jpg,FN,3,num_6,16,num_6,0.633440770209,,,2017_May_05_1238,60.0151491407,MAFE4ImagesEEG,001,200277,
AFNE01.JPG,AFNE01.JPG,AFNE01.JPG,AFNE01.JPG,AFNE01.JPG,AFNE01.JPG,,,,,,,,,,,,,,,,,,,,,0,3,3,2,,,AFNE10.jpg,AFSA17.jpg,AFSA11.jpg,AFNE03.jpg,AFSA11.jpg,FS,4,num_2,32,num_6,1.01676406991,,,2017_May_05_1238,60.0151491407,MAFE4ImagesEEG,001,200277,
AFNE01.JPG,AFNE01.JPG,AFNE01.JPG,AFNE01.JPG,AFNE01.JPG,AFNE01.JPG,,,,,,,,,,,,,,,,,,,,,0,4,4,7,,,AFNE06.jpg,AFSA11.jpg,AFNE19.jpg,AFSA01.jpg,AFSA11.jpg,FS,4,num_6,16,num_6,0.566944180988,,,2017_May_05_1238,60.0151491407,MAFE4ImagesEEG,001,200277,
AFNE01.JPG,AFNE01.JPG,AFNE01.JPG,AFNE01.JPG,AFNE01.JPG,AFNE01.JPG,,,,,,,,,,,,,,,,,,,,,0,5,5,0,,,AFSA20.jpg,AFNE13.jpg,AFSA03.jpg,AFNE12.jpg,AFSA03.jpg,FS,4,num_2,32,num_6,1.99990826868,,,2017_May_05_1238,60.0151491407,MAFE4ImagesEEG,001,200277,
AFNE01.JPG,AFNE01.JPG,AFNE01.JPG,AFNE01.JPG,AFNE01.JPG,AFNE01.JPG,,,,,,,,,,,,,,,,,,,,,0,6,6,1,,,AFSA10.jpg,AFNE18.jpg,AFNE19.jpg,AFSA15.jpg,AFNE19.jpg,FN,3,num_2,32,num_6,2.26675484842,,,2017_May_05_1238,60.0151491407,MAFE4ImagesEEG,001,200277,
AFNE01.JPG,AFNE01.JPG,AFNE01.JPG,AFNE01.JPG,AFNE01.JPG,AFNE01.JPG,,,,,,,,,,,,,,,,,,,,,0,7,7,9,,,AFSA07.jpg,AFSA13.jpg,AFNE06.jpg,AFNE02.jpg,AFSA07.jpg,FS,4,num_8,32,num_2,1.10018317425,,,2017_May_05_1238,60.0151491407,MAFE4ImagesEEG,001,200277,
AFNE01.JPG,AFNE01.JPG,AFNE01.JPG,AFNE01.JPG,AFNE01.JPG,AFNE01.JPG,,,,,,,,,,,,,,,,,,,,,0,8,8,6,,,AFNE05.jpg,AFSA04.jpg,AFSA19.jpg,AFNE07.jpg,AFSA19.jpg,FS,4,num_2,16,num_2,0.983708058251,,,2017_May_05_1238,60.0151491407,MAFE4ImagesEEG,001,200277,
AFNE01.JPG,AFNE01.JPG,AFNE01.JPG,AFNE01.JPG,AFNE01.JPG,AFNE01.JPG,,,,,,,,,,,,,,,,,,,,,0,9,9,5,,,AFNE09.jpg,AFSA16.jpg,AFSA19.jpg,AFNE20.jpg,AFSA16.jpg,FS,4,num_6,16,num_6,1.03340112674,,,2017_May_05_1238,60.0151491407,MAFE4ImagesEEG,001,200277,
AFNE01.JPG,AFNE01.JPG,AFNE01.JPG,AFNE01.JPG,AFNE01.JPG,AFNE01.JPG,,,,,,,,,,,,,,,,,,,,,1,0,10,4,,,AFNE14.jpg,AFSA06.jpg,AFSA18.jpg,AFNE03.jpg,AFNE03.jpg,FN,3,num_4,32,num_2,2.63343050657,,,2017_May_05_1238,60.0151491407,MAFE4ImagesEEG,001,200277,
AFNE01.JPG,AFNE01.JPG,AFNE01.JPG,AFNE01.JPG,AFNE01.JPG,AFNE01.JPG,,,,,,,,,,,,,,,,,,,,,1,1,11,0,,,AFNE02.jpg,AFSA01.jpg,AFNE13.jpg,AFSA15.jpg,AFSA01.jpg,FS,4,num_6,32,num_8,1.75005316269,,,2017_May_05_1238,60.0151491407,MAFE4ImagesEEG,001,200277,
AFNE01.JPG,AFNE01.JPG,AFNE01.JPG,AFNE01.JPG,AFNE01.JPG,AFNE01.JPG,,,,,,,,,,,,,,,,,,,,,1,2,12,8,,,AFSA11.jpg,AFNE06.jpg,AFSA06.jpg,AFNE09.jpg,AFNE06.jpg,FN,3,num_6,16,num_6,0.833481247537,,,2017_May_05_1238,60.0151491407,MAFE4ImagesEEG,001,200277,
AFNE01.JPG,AFNE01.JPG,AFNE01.JPG,AFNE01.JPG,AFNE01.JPG,AFNE01.JPG,,,,,,,,,,,,,,,,,,,,,1,3,13,7,,,AFSA19.jpg,AFSA13.jpg,AFNE18.jpg,AFNE09.jpg,AFSA19.jpg,FS,4,num_8,32,num_2,1.90008303919,,,2017_May_05_1238,60.0151491407,MAFE4ImagesEEG,001,200277,
AFNE01.JPG,AFNE01.JPG,AFNE01.JPG,AFNE01.JPG,AFNE01.JPG,AFNE01.JPG,,,,,,,,,,,,,,,,,,,,,1,4,14,6,,,AFNE17.jpg,AFNE19.jpg,AFSA13.jpg,AFSA10.jpg,AFSA13.jpg,FS,4,num_2,16,num_2,1.21686677053,,,2017_May_05_1238,60.0151491407,MAFE4ImagesEEG,001,200277,
AFNE01.JPG,AFNE01.JPG,AFNE01.JPG,AFNE01.JPG,AFNE01.JPG,AFNE01.JPG,,,,,,,,,,,,,,,,,,,,,1,5,15,9,,,AFNE01.jpg,AFNE02.jpg,AFSA01.jpg,AFSA18.jpg,AFNE02.jpg,FN,3,num_6,16,num_6,1.25006935978,,,2017_May_05_1238,60.0151491407,MAFE4ImagesEEG,001,200277,
AFNE01.JPG,AFNE01.JPG,AFNE01.JPG,AFNE01.JPG,AFNE01.JPG,AFNE01.JPG,,,,,,,,,,,,,,,,,,,,,1,6,16,1,,,AFSA16.jpg,AFNE11.jpg,AFSA11.jpg,AFNE13.jpg,AFSA16.jpg,FS,4,num_8,32,num_6,1.28328028833,,,2017_May_05_1238,60.0151491407,MAFE4ImagesEEG,001,200277,
AFNE01.JPG,AFNE01.JPG,AFNE01.JPG,AFNE01.JPG,AFNE01.JPG,AFNE01.JPG,,,,,,,,,,,,,,,,,,,,,1,7,17,3,,,AFSA05.jpg,AFNE09.jpg,AFSA04.jpg,AFNE15.jpg,AFSA05.jpg,FS,4,num_8,32,num_2,1.66677454207,,,2017_May_05_1238,60.0151491407,MAFE4ImagesEEG,001,200277,
AFNE01.JPG,AFNE01.JPG,AFNE01.JPG,AFNE01.JPG,AFNE01.JPG,AFNE01.JPG,,,,,,,,,,,,,,,,,,,,,1,8,18,5,,,AFSA19.jpg,AFNE13.jpg,AFNE14.jpg,AFSA18.jpg,AFSA19.jpg,FS,4,num_8,32,num_2,2.15009306232,,,2017_May_05_1238,60.0151491407,MAFE4ImagesEEG,001,200277,
AFNE01.JPG,AFNE01.JPG,AFNE01.JPG,AFNE01.JPG,AFNE01.JPG,AFNE01.JPG,,,,,,,,,,,,,,,,,,,,,1,9,19,2,,,AFSA09.jpg,AFNE04.jpg,AFNE15.jpg,AFSA12.jpg,AFSA09.jpg,FS,4,num_8,16,num_8,1.9666703979,,,2017_May_05_1238,60.0151491407,MAFE4ImagesEEG,001,200277,
AFNE01.JPG,AFNE01.JPG,AFNE01.JPG,AFNE01.JPG,AFNE01.JPG,AFNE01.JPG,,,,,,,,,,,,,,,,,,,,,2,0,20,8,,,AFSA18.jpg,AFSA08.jpg,AFNE19.jpg,AFNE09.jpg,AFNE19.jpg,FN,3,num_2,16,num_2,1.18342779623,,,2017_May_05_1238,60.0151491407,MAFE4ImagesEEG,001,200277,
AFNE01.JPG,AFNE01.JPG,AFNE01.JPG,AFNE01.JPG,AFNE01.JPG,AFNE01.JPG,,,,,,,,,,,,,,,,,,,,,2,1,21,0,,,AFSA04.jpg,AFNE16.jpg,AFSA13.jpg,AFNE06.jpg,AFNE06.jpg,FN,3,num_4,32,num_6,0.950090753147,,,2017_May_05_1238,60.0151491407,MAFE4ImagesEEG,001,200277,
AFNE01.JPG,AFNE01.JPG,AFNE01.JPG,AFNE01.JPG,AFNE01.JPG,AFNE01.JPG,,,,,,,,,,,,,,,,,,,,,2,2,22,2,,,AFSA10.jpg,AFNE12.jpg,AFSA12.jpg,AFNE07.jpg,AFNE12.jpg,FN,3,num_6,16,num_6,0.800113156904,,,2017_May_05_1238,60.0151491407,MAFE4ImagesEEG,001,200277,
AFNE01.JPG,AFNE01.JPG,AFNE01.JPG,AFNE01.JPG,AFNE01.JPG,AFNE01.JPG,,,,,,,,,,,,,,,,,,,,,2,3,23,9,,,AFNE17.jpg,AFSA19.jpg,AFNE08.jpg,AFSA20.jpg,AFNE17.jpg,FN,3,num_8,32,num_4,2.18331425474,,,2017_May_05_1238,60.0151491407,MAFE4ImagesEEG,001,200277,
AFNE01.JPG,AFNE01.JPG,AFNE01.JPG,AFNE01.JPG,AFNE01.JPG,AFNE01.JPG,,,,,,,,,,,,,,,,,,,,,2,4,24,1,,,AFNE02.jpg,AFSA09.jpg,AFNE13.jpg,AFSA05.jpg,AFNE02.jpg,FN,3,num_8,16,num_8,1.86670660949,,,2017_May_05_1238,60.0151491407,MAFE4ImagesEEG,001,200277,
AFNE01.JPG,AFNE01.JPG,AFNE01.JPG,AFNE01.JPG,AFNE01.JPG,AFNE01.JPG,,,,,,,,,,,,,,,,,,,,,2,5,25,7,,,AFNE19.jpg,AFSA09.jpg,AFNE04.jpg,AFSA20.jpg,AFNE04.jpg,FN,3,num_2,16,num_2,1.58336441824,,,2017_May_05_1238,60.0151491407,MAFE4ImagesEEG,001,200277,
AFNE01.JPG,AFNE01.JPG,AFNE01.JPG,AFNE01.JPG,AFNE01.JPG,AFNE01.JPG,,,,,,,,,,,,,,,,,,,,,2,6,26,4,,,AFSA04.jpg,AFNE01.jpg,AFSA16.jpg,AFNE12.jpg,AFNE01.jpg,FN,3,num_6,16,num_6,1.01699436037,,,2017_May_05_1238,60.0151491407,MAFE4ImagesEEG,001,200277,
AFNE01.JPG,AFNE01.JPG,AFNE01.JPG,AFNE01.JPG,AFNE01.JPG,AFNE01.JPG,,,,,,,,,,,,,,,,,,,,,2,7,27,3,,,AFNE14.jpg,AFSA09.jpg,AFSA05.jpg,AFNE16.jpg,AFSA05.jpg,FS,4,num_2,32,num_4,1.56672575767,,,2017_May_05_1238,60.0151491407,MAFE4ImagesEEG,001,200277,
AFNE01.JPG,AFNE01.JPG,AFNE01.JPG,AFNE01.JPG,AFNE01.JPG,AFNE01.JPG,,,,,,,,,,,,,,,,,,,,,2,8,28,6,,,AFSA06.jpg,AFSA05.jpg,AFNE04.jpg,AFNE13.jpg,AFNE04.jpg,FN,3,num_2,32,num_4,1.10006065178,,,2017_May_05_1238,60.0151491407,MAFE4ImagesEEG,001,200277,
AFNE01.JPG,AFNE01.JPG,AFNE01.JPG,AFNE01.JPG,AFNE01.JPG,AFNE01.JPG,,,,,,,,,,,,,,,,,,,,,2,9,29,5,,,AFSA10.jpg,AFNE01.jpg,AFNE14.jpg,AFSA06.jpg,AFNE01.jpg,FN,3,num_6,32,num_4,1.79999448312,,,2017_May_05_1238,60.0151491407,MAFE4ImagesEEG,001,200277,
AFNE01.JPG,AFNE01.JPG,AFNE01.JPG,AFNE01.JPG,AFNE01.JPG,AFNE01.JPG,,,,,,,,,,,,,,,,,,,,,3,0,30,1,,,AFNE08.jpg,AFNE06.jpg,AFSA03.jpg,AFSA11.jpg,AFSA11.jpg,FS,4,num_4,16,num_4,0.466901169624,,,2017_May_05_1238,60.0151491407,MAFE4ImagesEEG,001,200277,
AFNE01.JPG,AFNE01.JPG,AFNE01.JPG,AFNE01.JPG,AFNE01.JPG,AFNE01.JPG,,,,,,,,,,,,,,,,,,,,,3,1,31,6,,,AFNE19.jpg,AFNE15.jpg,AFSA13.jpg,AFSA02.jpg,AFSA02.jpg,FS,4,num_4,32,num_2,1.31670162175,,,2017_May_05_1238,60.0151491407,MAFE4ImagesEEG,001,200277,
AFNE01.JPG,AFNE01.JPG,AFNE01.JPG,AFNE01.JPG,AFNE01.JPG,AFNE01.JPG,,,,,,,,,,,,,,,,,,,,,3,2,32,8,,,AFNE08.jpg,AFNE12.jpg,AFSA19.jpg,AFSA01.jpg,AFSA19.jpg,FS,4,num_2,32,num_4,0.983413619688,,,2017_May_05_1238,60.0151491407,MAFE4ImagesEEG,001,200277,
AFNE01.JPG,AFNE01.JPG,AFNE01.JPG,AFNE01.JPG,AFNE01.JPG,AFNE01.JPG,,,,,,,,,,,,,,,,,,,,,3,3,33,3,,,AFNE02.jpg,AFSA17.jpg,AFSA01.jpg,AFNE18.jpg,AFNE02.jpg,FN,3,num_8,16,num_8,4.29939871049,,,2017_May_05_1238,60.0151491407,MAFE4ImagesEEG,001,200277,
AFNE01.JPG,AFNE01.JPG,AFNE01.JPG,AFNE01.JPG,AFNE01.JPG,AFNE01.JPG,,,,,,,,,,,,,,,,,,,,,3,4,34,7,,,AFNE09.jpg,AFSA05.jpg,AFSA02.jpg,AFNE12.jpg,AFSA02.jpg,FS,4,num_2,32,num_6,4.66645444441,,,2017_May_05_1238,60.0151491407,MAFE4ImagesEEG,001,200277,
AFNE01.JPG,AFNE01.JPG,AFNE01.JPG,AFNE01.JPG,AFNE01.JPG,AFNE01.JPG,,,,,,,,,,,,,,,,,,,,,3,5,35,4,,,AFNE20.jpg,AFSA12.jpg,AFSA07.jpg,AFNE10.jpg,AFNE20.jpg,FN,3,num_8,32,num_4,1.31672407361,,,2017_May_05_1238,60.0151491407,MAFE4ImagesEEG,001,200277,
AFNE01.JPG,AFNE01.JPG,AFNE01.JPG,AFNE01.JPG,AFNE01.JPG,AFNE01.JPG,,,,,,,,,,,,,,,,,,,,,3,6,36,2,,,AFSA02.jpg,AFNE16.jpg,AFNE18.jpg,AFSA16.jpg,AFSA16.jpg,FS,4,num_4,16,num_4,1.48338106484,,,2017_May_05_1238,60.0151491407,MAFE4ImagesEEG,001,200277,
AFNE01.JPG,AFNE01.JPG,AFNE01.JPG,AFNE01.JPG,AFNE01.JPG,AFNE01.JPG,,,,,,,,,,,,,,,,,,,,,3,7,37,5,,,AFSA03.jpg,AFNE15.jpg,AFSA13.jpg,AFNE20.jpg,AFNE20.jpg,FN,3,num_4,32,num_8,1.33344869246,,,2017_May_05_1238,60.0151491407,MAFE4ImagesEEG,001,200277,
AFNE01.JPG,AFNE01.JPG,AFNE01.JPG,AFNE01.JPG,AFNE01.JPG,AFNE01.JPG,,,,,,,,,,,,,,,,,,,,,3,8,38,9,,,AFSA18.jpg,AFNE17.jpg,AFNE15.jpg,AFSA19.jpg,AFNE17.jpg,FN,3,num_6,32,num_4,2.28338420787,,,2017_May_05_1238,60.0151491407,MAFE4ImagesEEG,001,200277,
AFNE01.JPG,AFNE01.JPG,AFNE01.JPG,AFNE01.JPG,AFNE01.JPG,AFNE01.JPG,,,,,,,,,,,,,,,,,,,,,3,9,39,0,,,AFSA07.jpg,AFSA18.jpg,AFNE17.jpg,AFNE06.jpg,AFNE06.jpg,FN,3,num_4,32,num_6,3.31659481581,,,2017_May_05_1238,60.0151491407,MAFE4ImagesEEG,001,200277,
