IPosition2,IPosition3,IPosition1,IPosition6,IPosition4,IPosition5,TrialsF1.thisRepN,TrialsF1.thisTrialN,TrialsF1.thisN,TrialsF1.thisIndex,TrialsM1.thisRepN,TrialsM1.thisTrialN,TrialsM1.thisN,TrialsM1.thisIndex,TrialsF2.thisRepN,TrialsF2.thisTrialN,TrialsF2.thisN,TrialsF2.thisIndex,TrialsM2.thisRepN,TrialsM2.thisTrialN,TrialsM2.thisN,TrialsM2.thisIndex,TrialsF3.thisRepN,TrialsF3.thisTrialN,TrialsF3.thisN,TrialsF3.thisIndex,TrialsM3.thisRepN,TrialsM3.thisTrialN,TrialsM3.thisN,TrialsM3.thisIndex,InstrKey_resp.keys,InstrKey_resp.rt,Image0 _Position,Image1 _Position,Image2 _Position,Image3 _Position,Center_image,condition,code,correct_answer,accuracy,Key_Resp.keys,Key_Resp.rt,BreakKey_resp.keys,BreakKey_resp.rt,date,frameRate,expName,session,participant,
,,,,,,,,,,,,,,,,,,,,,,,,,,,,,,space,52.4127363567,,,,,,,,,,,,,,2017_May_03_1106,60.0225436049,FEMA4ImagesEEG,001,200280,
AFNE23.JPG,AFNE24.JPG,AFNE22.JPG,AFSA24.JPG,AFSA22.JPG,AFSA23.JPG,0,0,0,8,,,,,,,,,,,,,,,,,,,,,,,AFNE03.jpg,AFNE11.jpg,AFSA15.jpg,AFSA16.jpg,AFSA16.jpg,FS,4,num_4,32,num_8,1.30004981067,,,2017_May_03_1106,60.0225436049,FEMA4ImagesEEG,001,200280,
AFNE22.JPG,AFSA24.JPG,AFSA22.JPG,AFNE25.JPG,AFNE24.JPG,AFSA25.JPG,0,1,1,6,,,,,,,,,,,,,,,,,,,,,,,AFNE08.jpg,AFSA14.jpg,AFSA15.jpg,AFNE03.jpg,AFNE08.jpg,FN,3,num_8,32,num_6,1.317031021,,,2017_May_03_1106,60.0225436049,FEMA4ImagesEEG,001,200280,
AMNE23.JPG,AMNE24.JPG,AMNE22.JPG,AMSA24.JPG,AMSA22.JPG,AMSA23.JPG,0,2,2,9,,,,,,,,,,,,,,,,,,,,,,,AFNE16.jpg,AFNE03.jpg,AFSA19.jpg,AFSA12.jpg,AFNE16.jpg,FN,3,num_8,32,num_2,1.46676421422,,,2017_May_03_1106,60.0225436049,FEMA4ImagesEEG,001,200280,
AFSA21.JPG,AFNE23.JPG,AFNE21.JPG,AFSA25.JPG,AFNE25.JPG,AFSA23.JPG,0,3,3,4,,,,,,,,,,,,,,,,,,,,,,,AFNE13.jpg,AFSA13.jpg,AFNE12.jpg,AFSA20.jpg,AFNE12.jpg,FN,3,num_2,16,num_2,3.34994815243,,,2017_May_03_1106,60.0225436049,FEMA4ImagesEEG,001,200280,
AMSA21.JPG,AMNE23.JPG,AMNE21.JPG,AMSA25.JPG,AMNE25.JPG,AMSA23.JPG,0,4,4,5,,,,,,,,,,,,,,,,,,,,,,,AFSA16.jpg,AFSA11.jpg,AFNE05.jpg,AFNE03.jpg,AFNE05.jpg,FN,3,num_2,32,num_8,1.21678883093,,,2017_May_03_1106,60.0225436049,FEMA4ImagesEEG,001,200280,
AMNE22.JPG,AMSA24.JPG,AMSA22.JPG,AMNE25.JPG,AMNE24.JPG,AMSA25.JPG,0,5,5,7,,,,,,,,,,,,,,,,,,,,,,,AFSA06.jpg,AFNE09.jpg,AFNE19.jpg,AFSA13.jpg,AFNE19.jpg,FN,3,num_2,32,num_6,0.883520073025,,,2017_May_03_1106,60.0225436049,FEMA4ImagesEEG,001,200280,
AMSA25.JPG,AMNE24.JPG,AMSA24.JPG,AMNE26.JPG,AMSA21.JPG,AMNE25.JPG,0,6,6,3,,,,,,,,,,,,,,,,,,,,,,,AFSA20.jpg,AFSA15.jpg,AFNE13.jpg,AFNE07.jpg,AFSA15.jpg,FS,4,num_6,32,num_2,1.10017194808,,,2017_May_03_1106,60.0225436049,FEMA4ImagesEEG,001,200280,
AFSA25.JPG,AFNE24.JPG,AFSA24.JPG,AFNE21.JPG,AFSA21.JPG,AFNE25.JPG,0,7,7,2,,,,,,,,,,,,,,,,,,,,,,,AFNE04.jpg,AFSA19.jpg,AFNE15.jpg,AFSA15.jpg,AFNE15.jpg,FN,3,num_2,16,num_2,0.966722357785,,,2017_May_03_1106,60.0225436049,FEMA4ImagesEEG,001,200280,
AMSA21.JPG,AMNE22.JPG,AMNE21.JPG,AMSA23.JPG,AMSA22.JPG,AMNE23.JPG,0,8,8,1,,,,,,,,,,,,,,,,,,,,,,,AFNE07.jpg,AFSA16.jpg,AFSA02.jpg,AFNE15.jpg,AFSA16.jpg,FS,4,num_6,16,num_6,1.08342038747,,,2017_May_03_1106,60.0225436049,FEMA4ImagesEEG,001,200280,
AFSA21.JPG,AFNE22.JPG,AFNE21.JPG,AFSA23.JPG,AFSA22.JPG,AFNE23.JPG,0,9,9,0,,,,,,,,,,,,,,,,,,,,,,,AFNE05.jpg,AFSA16.jpg,AFSA10.jpg,AFNE02.jpg,AFNE02.jpg,FN,3,num_4,32,num_8,1.15008279891,,,2017_May_03_1106,60.0225436049,FEMA4ImagesEEG,001,200280,
AFNE23.JPG,AFNE24.JPG,AFNE22.JPG,AFSA24.JPG,AFSA22.JPG,AFSA23.JPG,,,,,0,0,0,8,,,,,,,,,,,,,,,,,,,AMSA10.jpg,AMNE14.jpg,AMSA08.jpg,AMNE02.jpg,AMNE02.jpg,MN,1,num_4,32,num_2,1.53327684035,,,2017_May_03_1106,60.0225436049,FEMA4ImagesEEG,001,200280,
AFSA21.JPG,AFNE23.JPG,AFNE21.JPG,AFSA25.JPG,AFNE25.JPG,AFSA23.JPG,,,,,0,1,1,4,,,,,,,,,,,,,,,,,,,AMNE01.jpg,AMSA16.jpg,AMSA07.jpg,AMNE14.jpg,AMSA07.jpg,MS,2,num_2,16,num_2,2.0336955653,,,2017_May_03_1106,60.0225436049,FEMA4ImagesEEG,001,200280,
AFSA21.JPG,AFNE22.JPG,AFNE21.JPG,AFSA23.JPG,AFSA22.JPG,AFNE23.JPG,,,,,0,2,2,0,,,,,,,,,,,,,,,,,,,AMNE20.jpg,AMSA12.jpg,AMSA15.jpg,AMNE04.jpg,AMNE04.jpg,MN,1,num_4,32,num_8,0.933482562657,,,2017_May_03_1106,60.0225436049,FEMA4ImagesEEG,001,200280,
AMNE23.JPG,AMNE24.JPG,AMNE22.JPG,AMSA24.JPG,AMSA22.JPG,AMSA23.JPG,,,,,0,3,3,9,,,,,,,,,,,,,,,,,,,AMSA20.jpg,AMSA09.jpg,AMNE11.jpg,AMNE14.jpg,AMSA09.jpg,MS,2,num_6,16,num_6,0.916761792731,,,2017_May_03_1106,60.0225436049,FEMA4ImagesEEG,001,200280,
AFNE22.JPG,AFSA24.JPG,AFSA22.JPG,AFNE25.JPG,AFNE24.JPG,AFSA25.JPG,,,,,0,4,4,6,,,,,,,,,,,,,,,,,,,AMNE12.jpg,AMSA08.jpg,AMSA04.jpg,AMNE07.jpg,AMSA04.jpg,MS,2,num_2,32,num_8,0.550212826347,,,2017_May_03_1106,60.0225436049,FEMA4ImagesEEG,001,200280,
AMSA21.JPG,AMNE22.JPG,AMNE21.JPG,AMSA23.JPG,AMSA22.JPG,AMNE23.JPG,,,,,0,5,5,1,,,,,,,,,,,,,,,,,,,AMNE03.jpg,AMNE18.jpg,AMSA06.jpg,AMSA16.jpg,AMNE18.jpg,MN,1,num_6,32,num_8,0.933547351742,,,2017_May_03_1106,60.0225436049,FEMA4ImagesEEG,001,200280,
AMSA25.JPG,AMNE24.JPG,AMSA24.JPG,AMNE26.JPG,AMSA21.JPG,AMNE25.JPG,,,,,0,6,6,3,,,,,,,,,,,,,,,,,,,AMSA07.jpg,AMSA11.jpg,AMNE10.jpg,AMNE17.jpg,AMSA07.jpg,MS,2,num_8,16,num_8,1.4333784827,,,2017_May_03_1106,60.0225436049,FEMA4ImagesEEG,001,200280,
AMNE22.JPG,AMSA24.JPG,AMSA22.JPG,AMNE25.JPG,AMNE24.JPG,AMSA25.JPG,,,,,0,7,7,7,,,,,,,,,,,,,,,,,,,AMSA15.jpg,AMSA07.jpg,AMNE15.jpg,AMNE13.jpg,AMSA07.jpg,MS,2,num_6,32,num_2,1.41674238793,,,2017_May_03_1106,60.0225436049,FEMA4ImagesEEG,001,200280,
AFSA25.JPG,AFNE24.JPG,AFSA24.JPG,AFNE21.JPG,AFSA21.JPG,AFNE25.JPG,,,,,0,8,8,2,,,,,,,,,,,,,,,,,,,AMSA19.jpg,AMSA16.jpg,AMNE11.jpg,AMNE13.jpg,AMNE13.jpg,MN,1,num_4,32,num_6,0.733512647683,,,2017_May_03_1106,60.0225436049,FEMA4ImagesEEG,001,200280,
AMSA21.JPG,AMNE23.JPG,AMNE21.JPG,AMSA25.JPG,AMNE25.JPG,AMSA23.JPG,,,,,0,9,9,5,,,,,,,,,,,,,,,,,,,AMSA02.jpg,AMSA04.jpg,AMNE11.jpg,AMNE04.jpg,AMNE11.jpg,MN,1,num_2,16,num_2,2.76665173075,,,2017_May_03_1106,60.0225436049,FEMA4ImagesEEG,001,200280,
AFSA25.JPG,AFNE24.JPG,AFSA24.JPG,AFNE21.JPG,AFSA21.JPG,AFNE25.JPG,,,,,,,,,0,0,0,2,,,,,,,,,,,,,,,AFNE01.jpg,AFSA07.jpg,AFNE08.jpg,AFSA08.jpg,AFNE01.jpg,FN,3,num_8,32,num_2,1.80002655718,,,2017_May_03_1106,60.0225436049,FEMA4ImagesEEG,001,200280,
AFSA21.JPG,AFNE22.JPG,AFNE21.JPG,AFSA23.JPG,AFSA22.JPG,AFNE23.JPG,,,,,,,,,0,1,1,0,,,,,,,,,,,,,,,AFSA18.jpg,AFNE01.jpg,AFNE09.jpg,AFSA11.jpg,AFSA11.jpg,FS,4,num_4,32,num_8,0.917272730032,,,2017_May_03_1106,60.0225436049,FEMA4ImagesEEG,001,200280,
AMNE23.JPG,AMNE24.JPG,AMNE22.JPG,AMSA24.JPG,AMSA22.JPG,AMSA23.JPG,,,,,,,,,0,2,2,9,,,,,,,,,,,,,,,AFNE15.jpg,AFNE18.jpg,AFSA11.jpg,AFSA18.jpg,AFSA11.jpg,FS,4,num_2,16,num_2,1.21674136142,,,2017_May_03_1106,60.0225436049,FEMA4ImagesEEG,001,200280,
AMSA21.JPG,AMNE22.JPG,AMNE21.JPG,AMSA23.JPG,AMSA22.JPG,AMNE23.JPG,,,,,,,,,0,3,3,1,,,,,,,,,,,,,,,AFSA10.jpg,AFNE19.jpg,AFSA09.jpg,AFNE09.jpg,AFNE19.jpg,FN,3,num_6,32,num_4,2.21665700688,,,2017_May_03_1106,60.0225436049,FEMA4ImagesEEG,001,200280,
AMNE22.JPG,AMSA24.JPG,AMSA22.JPG,AMNE25.JPG,AMNE24.JPG,AMSA25.JPG,,,,,,,,,0,4,4,7,,,,,,,,,,,,,,,AFNE16.jpg,AFSA08.jpg,AFSA15.jpg,AFNE12.jpg,AFNE12.jpg,FN,3,num_4,32,num_6,0.616770997643,,,2017_May_03_1106,60.0225436049,FEMA4ImagesEEG,001,200280,
AFNE22.JPG,AFSA24.JPG,AFSA22.JPG,AFNE25.JPG,AFNE24.JPG,AFSA25.JPG,,,,,,,,,0,5,5,6,,,,,,,,,,,,,,,AFNE09.jpg,AFNE18.jpg,AFSA02.jpg,AFSA19.jpg,AFSA19.jpg,FS,4,num_4,32,num_2,1.95004905714,,,2017_May_03_1106,60.0225436049,FEMA4ImagesEEG,001,200280,
AMSA25.JPG,AMNE24.JPG,AMSA24.JPG,AMNE26.JPG,AMSA21.JPG,AMNE25.JPG,,,,,,,,,0,6,6,3,,,,,,,,,,,,,,,AFSA20.jpg,AFNE03.jpg,AFSA07.jpg,AFNE02.jpg,AFSA20.jpg,FS,4,num_8,32,num_4,0.800147796748,,,2017_May_03_1106,60.0225436049,FEMA4ImagesEEG,001,200280,
AFSA21.JPG,AFNE23.JPG,AFNE21.JPG,AFSA25.JPG,AFNE25.JPG,AFSA23.JPG,,,,,,,,,0,7,7,4,,,,,,,,,,,,,,,AFNE02.jpg,AFSA15.jpg,AFSA07.jpg,AFNE11.jpg,AFNE11.jpg,FN,3,num_4,32,num_8,0.66677550436,,,2017_May_03_1106,60.0225436049,FEMA4ImagesEEG,001,200280,
AMSA21.JPG,AMNE23.JPG,AMNE21.JPG,AMSA25.JPG,AMNE25.JPG,AMSA23.JPG,,,,,,,,,0,8,8,5,,,,,,,,,,,,,,,AFNE01.jpg,AFNE20.jpg,AFSA04.jpg,AFSA03.jpg,AFNE20.jpg,FN,3,num_6,16,num_6,1.183458908,,,2017_May_03_1106,60.0225436049,FEMA4ImagesEEG,001,200280,
AFNE23.JPG,AFNE24.JPG,AFNE22.JPG,AFSA24.JPG,AFSA22.JPG,AFSA23.JPG,,,,,,,,,0,9,9,8,,,,,,,,,,,,,,,AFSA18.jpg,AFSA07.jpg,AFNE19.jpg,AFNE03.jpg,AFSA18.jpg,FS,4,num_8,32,num_2,0.616500614677,,,2017_May_03_1106,60.0225436049,FEMA4ImagesEEG,001,200280,
AFNE22.JPG,AFSA24.JPG,AFSA22.JPG,AFNE25.JPG,AFNE24.JPG,AFSA25.JPG,,,,,,,,,,,,,0,0,0,6,,,,,,,,,,,AMSA03.jpg,AMNE20.jpg,AMNE11.jpg,AMSA04.jpg,AMNE20.jpg,MN,1,num_6,32,num_2,0.999982359353,,,2017_May_03_1106,60.0225436049,FEMA4ImagesEEG,001,200280,
AFSA25.JPG,AFNE24.JPG,AFSA24.JPG,AFNE21.JPG,AFSA21.JPG,AFNE25.JPG,,,,,,,,,,,,,0,1,1,2,,,,,,,,,,,AMSA10.jpg,AMNE19.jpg,AMSA14.jpg,AMNE06.jpg,AMNE19.jpg,MN,1,num_6,32,num_8,0.850147812627,,,2017_May_03_1106,60.0225436049,FEMA4ImagesEEG,001,200280,
AMNE23.JPG,AMNE24.JPG,AMNE22.JPG,AMSA24.JPG,AMSA22.JPG,AMSA23.JPG,,,,,,,,,,,,,0,2,2,9,,,,,,,,,,,AMNE02.jpg,AMNE05.jpg,AMSA04.jpg,AMSA10.jpg,AMSA10.jpg,MS,2,num_4,32,num_8,1.466663823,,,2017_May_03_1106,60.0225436049,FEMA4ImagesEEG,001,200280,
AMSA21.JPG,AMNE23.JPG,AMNE21.JPG,AMSA25.JPG,AMNE25.JPG,AMSA23.JPG,,,,,,,,,,,,,0,3,3,5,,,,,,,,,,,AMSA15.jpg,AMSA18.jpg,AMNE06.jpg,AMNE17.jpg,AMNE06.jpg,MN,1,num_2,32,num_8,0.800126627786,,,2017_May_03_1106,60.0225436049,FEMA4ImagesEEG,001,200280,
AFNE23.JPG,AFNE24.JPG,AFNE22.JPG,AFSA24.JPG,AFSA22.JPG,AFSA23.JPG,,,,,,,,,,,,,0,4,4,8,,,,,,,,,,,AMNE20.jpg,AMSA03.jpg,AMSA06.jpg,AMNE17.jpg,AMSA03.jpg,MS,2,num_6,32,num_2,0.56675783149,,,2017_May_03_1106,60.0225436049,FEMA4ImagesEEG,001,200280,
AMSA21.JPG,AMNE22.JPG,AMNE21.JPG,AMSA23.JPG,AMSA22.JPG,AMNE23.JPG,,,,,,,,,,,,,0,5,5,1,,,,,,,,,,,AMNE10.jpg,AMSA06.jpg,AMSA10.jpg,AMNE03.jpg,AMNE10.jpg,MN,1,num_8,32,num_2,1.70002428,,,2017_May_03_1106,60.0225436049,FEMA4ImagesEEG,001,200280,
AFSA21.JPG,AFNE23.JPG,AFNE21.JPG,AFSA25.JPG,AFNE25.JPG,AFSA23.JPG,,,,,,,,,,,,,0,6,6,4,,,,,,,,,,,AMSA08.jpg,AMNE07.jpg,AMNE01.jpg,AMSA19.jpg,AMNE07.jpg,MN,1,num_6,32,num_2,3.15007029008,,,2017_May_03_1106,60.0225436049,FEMA4ImagesEEG,001,200280,
AFSA21.JPG,AFNE22.JPG,AFNE21.JPG,AFSA23.JPG,AFSA22.JPG,AFNE23.JPG,,,,,,,,,,,,,0,7,7,0,,,,,,,,,,,AMNE08.jpg,AMNE19.jpg,AMSA02.jpg,AMSA13.jpg,AMSA13.jpg,MS,2,num_4,16,num_4,0.466764534824,,,2017_May_03_1106,60.0225436049,FEMA4ImagesEEG,001,200280,
AMSA25.JPG,AMNE24.JPG,AMSA24.JPG,AMNE26.JPG,AMSA21.JPG,AMNE25.JPG,,,,,,,,,,,,,0,8,8,3,,,,,,,,,,,AMSA01.jpg,AMNE05.jpg,AMSA14.jpg,AMNE06.jpg,AMNE05.jpg,MN,1,num_6,32,num_2,0.9334431116,,,2017_May_03_1106,60.0225436049,FEMA4ImagesEEG,001,200280,
AMNE22.JPG,AMSA24.JPG,AMSA22.JPG,AMNE25.JPG,AMNE24.JPG,AMSA25.JPG,,,,,,,,,,,,,0,9,9,7,,,,,,,,,,,AMSA20.jpg,AMSA15.jpg,AMNE08.jpg,AMNE04.jpg,AMNE04.jpg,MN,1,num_4,32,num_8,0.516753645614,,,2017_May_03_1106,60.0225436049,FEMA4ImagesEEG,001,200280,
AMSA21.JPG,AMNE23.JPG,AMNE21.JPG,AMSA25.JPG,AMNE25.JPG,AMSA23.JPG,,,,,,,,,,,,,,,,,0,0,0,5,,,,,,,AFSA18.jpg,AFSA13.jpg,AFNE14.jpg,AFNE03.jpg,AFNE14.jpg,FN,3,num_2,16,num_2,0.483525076415,,,2017_May_03_1106,60.0225436049,FEMA4ImagesEEG,001,200280,
AMNE23.JPG,AMNE24.JPG,AMNE22.JPG,AMSA24.JPG,AMSA22.JPG,AMSA23.JPG,,,,,,,,,,,,,,,,,0,1,1,9,,,,,,,AFSA18.jpg,AFSA03.jpg,AFNE18.jpg,AFNE08.jpg,AFNE08.jpg,FN,3,num_4,32,num_8,0.883478697855,,,2017_May_03_1106,60.0225436049,FEMA4ImagesEEG,001,200280,
AFNE22.JPG,AFSA24.JPG,AFSA22.JPG,AFNE25.JPG,AFNE24.JPG,AFSA25.JPG,,,,,,,,,,,,,,,,,0,2,2,6,,,,,,,AFSA01.jpg,AFSA17.jpg,AFNE13.jpg,AFNE17.jpg,AFNE17.jpg,FN,3,num_4,32,num_2,0.600121431751,,,2017_May_03_1106,60.0225436049,FEMA4ImagesEEG,001,200280,
AMSA21.JPG,AMNE22.JPG,AMNE21.JPG,AMSA23.JPG,AMSA22.JPG,AMNE23.JPG,,,,,,,,,,,,,,,,,0,3,3,1,,,,,,,AFNE11.jpg,AFSA07.jpg,AFNE04.jpg,AFSA16.jpg,AFNE04.jpg,FN,3,num_2,32,num_6,0.650160577847,,,2017_May_03_1106,60.0225436049,FEMA4ImagesEEG,001,200280,
AFSA21.JPG,AFNE22.JPG,AFNE21.JPG,AFSA23.JPG,AFSA22.JPG,AFNE23.JPG,,,,,,,,,,,,,,,,,0,4,4,0,,,,,,,AFSA01.jpg,AFSA09.jpg,AFNE09.jpg,AFNE07.jpg,AFSA01.jpg,FS,4,num_8,16,num_8,0.483521869173,,,2017_May_03_1106,60.0225436049,FEMA4ImagesEEG,001,200280,
AFSA21.JPG,AFNE23.JPG,AFNE21.JPG,AFSA25.JPG,AFNE25.JPG,AFSA23.JPG,,,,,,,,,,,,,,,,,0,5,5,4,,,,,,,AFSA14.jpg,AFSA08.jpg,AFNE15.jpg,AFNE16.jpg,AFNE16.jpg,FN,3,num_4,32,num_2,3.18326389883,,,2017_May_03_1106,60.0225436049,FEMA4ImagesEEG,001,200280,
AMSA25.JPG,AMNE24.JPG,AMSA24.JPG,AMNE26.JPG,AMSA21.JPG,AMNE25.JPG,,,,,,,,,,,,,,,,,0,6,6,3,,,,,,,AFSA08.jpg,AFNE01.jpg,AFNE10.jpg,AFSA14.jpg,AFSA14.jpg,FS,4,num_4,32,num_2,0.700133972801,,,2017_May_03_1106,60.0225436049,FEMA4ImagesEEG,001,200280,
AMNE22.JPG,AMSA24.JPG,AMSA22.JPG,AMNE25.JPG,AMNE24.JPG,AMSA25.JPG,,,,,,,,,,,,,,,,,0,7,7,7,,,,,,,AFSA08.jpg,AFSA02.jpg,AFNE05.jpg,AFNE15.jpg,AFSA02.jpg,FS,4,num_6,16,num_6,1.45006621676,,,2017_May_03_1106,60.0225436049,FEMA4ImagesEEG,001,200280,
AFSA25.JPG,AFNE24.JPG,AFSA24.JPG,AFNE21.JPG,AFSA21.JPG,AFNE25.JPG,,,,,,,,,,,,,,,,,0,8,8,2,,,,,,,AFNE03.jpg,AFNE16.jpg,AFSA05.jpg,AFSA08.jpg,AFNE03.jpg,FN,3,num_8,16,num_8,0.683476067614,,,2017_May_03_1106,60.0225436049,FEMA4ImagesEEG,001,200280,
AFNE23.JPG,AFNE24.JPG,AFNE22.JPG,AFSA24.JPG,AFSA22.JPG,AFSA23.JPG,,,,,,,,,,,,,,,,,0,9,9,8,,,,,,,AFSA02.jpg,AFNE02.jpg,AFNE19.jpg,AFSA14.jpg,AFSA14.jpg,FS,4,num_4,32,num_2,1.20007543778,,,2017_May_03_1106,60.0225436049,FEMA4ImagesEEG,001,200280,
AFNE23.JPG,AFNE24.JPG,AFNE22.JPG,AFSA24.JPG,AFSA22.JPG,AFSA23.JPG,,,,,,,,,,,,,,,,,,,,,0,0,0,8,,,AMSA13.jpg,AMNE05.jpg,AMSA03.jpg,AMNE07.jpg,AMNE05.jpg,MN,1,num_6,32,num_4,1.40009602928,,,2017_May_03_1106,60.0225436049,FEMA4ImagesEEG,001,200280,
AFNE22.JPG,AFSA24.JPG,AFSA22.JPG,AFNE25.JPG,AFNE24.JPG,AFSA25.JPG,,,,,,,,,,,,,,,,,,,,,0,1,1,6,,,AMNE06.jpg,AMNE13.jpg,AMSA05.jpg,AMSA03.jpg,AMNE13.jpg,MN,1,num_6,16,num_6,0.916758585023,,,2017_May_03_1106,60.0225436049,FEMA4ImagesEEG,001,200280,
AMSA25.JPG,AMNE24.JPG,AMSA24.JPG,AMNE26.JPG,AMSA21.JPG,AMNE25.JPG,,,,,,,,,,,,,,,,,,,,,0,2,2,3,,,AMSA14.jpg,AMSA13.jpg,AMNE19.jpg,AMNE05.jpg,AMSA13.jpg,MS,2,num_6,32,num_4,1.00010391953,,,2017_May_03_1106,60.0225436049,FEMA4ImagesEEG,001,200280,
AMNE22.JPG,AMSA24.JPG,AMSA22.JPG,AMNE25.JPG,AMNE24.JPG,AMSA25.JPG,,,,,,,,,,,,,,,,,,,,,0,3,3,7,,,AMSA04.jpg,AMNE17.jpg,AMSA11.jpg,AMNE01.jpg,AMSA11.jpg,MS,2,num_2,32,num_8,0.866714627715,,,2017_May_03_1106,60.0225436049,FEMA4ImagesEEG,001,200280,
AMSA21.JPG,AMNE23.JPG,AMNE21.JPG,AMSA25.JPG,AMNE25.JPG,AMSA23.JPG,,,,,,,,,,,,,,,,,,,,,0,4,4,5,,,AMSA06.jpg,AMNE18.jpg,AMNE10.jpg,AMSA18.jpg,AMSA18.jpg,MS,2,num_4,16,num_4,0.983726981794,,,2017_May_03_1106,60.0225436049,FEMA4ImagesEEG,001,200280,
AMSA21.JPG,AMNE22.JPG,AMNE21.JPG,AMSA23.JPG,AMSA22.JPG,AMNE23.JPG,,,,,,,,,,,,,,,,,,,,,0,5,5,1,,,AMSA20.jpg,AMNE07.jpg,AMSA19.jpg,AMNE04.jpg,AMSA20.jpg,MS,2,num_8,16,num_8,0.683470614953,,,2017_May_03_1106,60.0225436049,FEMA4ImagesEEG,001,200280,
AFSA25.JPG,AFNE24.JPG,AFSA24.JPG,AFNE21.JPG,AFSA21.JPG,AFNE25.JPG,,,,,,,,,,,,,,,,,,,,,0,6,6,2,,,AMSA07.jpg,AMNE12.jpg,AMNE11.jpg,AMSA09.jpg,AMSA07.jpg,MS,2,num_8,32,num_2,0.600188787095,,,2017_May_03_1106,60.0225436049,FEMA4ImagesEEG,001,200280,
AFSA21.JPG,AFNE23.JPG,AFNE21.JPG,AFSA25.JPG,AFNE25.JPG,AFSA23.JPG,,,,,,,,,,,,,,,,,,,,,0,7,7,4,,,AMNE13.jpg,AMNE20.jpg,AMSA13.jpg,AMSA14.jpg,AMNE20.jpg,MN,1,num_6,32,num_8,0.983442486264,,,2017_May_03_1106,60.0225436049,FEMA4ImagesEEG,001,200280,
AFSA21.JPG,AFNE22.JPG,AFNE21.JPG,AFSA23.JPG,AFSA22.JPG,AFNE23.JPG,,,,,,,,,,,,,,,,,,,,,0,8,8,0,,,AMSA15.jpg,AMNE18.jpg,AMNE01.jpg,AMSA19.jpg,AMNE18.jpg,MN,1,num_6,32,num_4,1.26675196202,,,2017_May_03_1106,60.0225436049,FEMA4ImagesEEG,001,200280,
AMNE23.JPG,AMNE24.JPG,AMNE22.JPG,AMSA24.JPG,AMSA22.JPG,AMSA23.JPG,,,,,,,,,,,,,,,,,,,,,0,9,9,9,,,AMNE17.jpg,AMNE07.jpg,AMSA10.jpg,AMSA13.jpg,AMSA13.jpg,MS,2,num_4,16,num_4,0.700148405973,,,2017_May_03_1106,60.0225436049,FEMA4ImagesEEG,001,200280,
,,,,,,,,,,,,,,,,,,,,,,,,,,,,,,,,,,,,,,,,,,,space,11.1159029175,2017_May_03_1106,60.0225436049,FEMA4ImagesEEG,001,200280,
AFNE01.JPG,AFNE01.JPG,AFNE01.JPG,AFNE01.JPG,AFNE01.JPG,AFNE01.JPG,0,0,0,6,,,,,,,,,,,,,,,,,,,,,,,AFSA13.jpg,AFSA09.jpg,AFNE09.jpg,AFNE14.jpg,AFSA09.jpg,FS,4,num_6,32,num_8,0.733428935055,,,2017_May_03_1106,60.0225436049,FEMA4ImagesEEG,001,200280,
AFNE01.JPG,AFNE01.JPG,AFNE01.JPG,AFNE01.JPG,AFNE01.JPG,AFNE01.JPG,0,1,1,7,,,,,,,,,,,,,,,,,,,,,,,AFNE08.jpg,AFNE02.jpg,AFSA07.jpg,AFSA09.jpg,AFSA09.jpg,FS,4,num_4,32,num_8,0.600125280675,,,2017_May_03_1106,60.0225436049,FEMA4ImagesEEG,001,200280,
AFNE01.JPG,AFNE01.JPG,AFNE01.JPG,AFNE01.JPG,AFNE01.JPG,AFNE01.JPG,0,2,2,4,,,,,,,,,,,,,,,,,,,,,,,AFNE02.jpg,AFSA18.jpg,AFNE07.jpg,AFSA12.jpg,AFNE02.jpg,FN,3,num_8,16,num_8,0.900101321517,,,2017_May_03_1106,60.0225436049,FEMA4ImagesEEG,001,200280,
AFNE01.JPG,AFNE01.JPG,AFNE01.JPG,AFNE01.JPG,AFNE01.JPG,AFNE01.JPG,0,3,3,9,,,,,,,,,,,,,,,,,,,,,,,AFSA18.jpg,AFSA20.jpg,AFNE10.jpg,AFNE13.jpg,AFSA18.jpg,FS,4,num_8,32,num_6,0.73351425142,,,2017_May_03_1106,60.0225436049,FEMA4ImagesEEG,001,200280,
AFNE01.JPG,AFNE01.JPG,AFNE01.JPG,AFNE01.JPG,AFNE01.JPG,AFNE01.JPG,0,4,4,2,,,,,,,,,,,,,,,,,,,,,,,AFSA04.jpg,AFNE17.jpg,AFNE16.jpg,AFSA20.jpg,AFSA20.jpg,FS,4,num_4,16,num_4,1.05015204637,,,2017_May_03_1106,60.0225436049,FEMA4ImagesEEG,001,200280,
AFNE01.JPG,AFNE01.JPG,AFNE01.JPG,AFNE01.JPG,AFNE01.JPG,AFNE01.JPG,0,5,5,8,,,,,,,,,,,,,,,,,,,,,,,AFNE04.jpg,AFSA19.jpg,AFNE16.jpg,AFSA12.jpg,AFSA19.jpg,FS,4,num_6,32,num_8,0.900141093181,,,2017_May_03_1106,60.0225436049,FEMA4ImagesEEG,001,200280,
AFNE01.JPG,AFNE01.JPG,AFNE01.JPG,AFNE01.JPG,AFNE01.JPG,AFNE01.JPG,0,6,6,5,,,,,,,,,,,,,,,,,,,,,,,AFNE15.jpg,AFNE02.jpg,AFSA12.jpg,AFSA10.jpg,AFNE15.jpg,FN,3,num_8,32,num_6,1.16673300602,,,2017_May_03_1106,60.0225436049,FEMA4ImagesEEG,001,200280,
AFNE01.JPG,AFNE01.JPG,AFNE01.JPG,AFNE01.JPG,AFNE01.JPG,AFNE01.JPG,0,7,7,3,,,,,,,,,,,,,,,,,,,,,,,AFSA20.jpg,AFNE02.jpg,AFSA15.jpg,AFNE08.jpg,AFNE08.jpg,FN,3,num_4,32,num_8,0.866759210592,,,2017_May_03_1106,60.0225436049,FEMA4ImagesEEG,001,200280,
AFNE01.JPG,AFNE01.JPG,AFNE01.JPG,AFNE01.JPG,AFNE01.JPG,AFNE01.JPG,0,8,8,0,,,,,,,,,,,,,,,,,,,,,,,AFSA17.jpg,AFNE12.jpg,AFNE20.jpg,AFSA05.jpg,AFNE12.jpg,FN,3,num_6,32,num_2,1.00013342756,,,2017_May_03_1106,60.0225436049,FEMA4ImagesEEG,001,200280,
AFNE01.JPG,AFNE01.JPG,AFNE01.JPG,AFNE01.JPG,AFNE01.JPG,AFNE01.JPG,0,9,9,1,,,,,,,,,,,,,,,,,,,,,,,AFNE06.jpg,AFNE03.jpg,AFSA14.jpg,AFSA15.jpg,AFNE03.jpg,FN,3,num_6,32,num_4,0.367127579404,,,2017_May_03_1106,60.0225436049,FEMA4ImagesEEG,001,200280,
AFNE01.JPG,AFNE01.JPG,AFNE01.JPG,AFNE01.JPG,AFNE01.JPG,AFNE01.JPG,1,0,10,8,,,,,,,,,,,,,,,,,,,,,,,AFNE18.jpg,AFSA17.jpg,AFSA19.jpg,AFNE03.jpg,AFNE18.jpg,FN,3,num_8,32,num_6,0.8501680193,,,2017_May_03_1106,60.0225436049,FEMA4ImagesEEG,001,200280,
AFNE01.JPG,AFNE01.JPG,AFNE01.JPG,AFNE01.JPG,AFNE01.JPG,AFNE01.JPG,1,1,11,5,,,,,,,,,,,,,,,,,,,,,,,AFNE20.jpg,AFSA02.jpg,AFNE04.jpg,AFSA13.jpg,AFNE04.jpg,FN,3,num_2,16,num_2,0.60014356277,,,2017_May_03_1106,60.0225436049,FEMA4ImagesEEG,001,200280,
AFNE01.JPG,AFNE01.JPG,AFNE01.JPG,AFNE01.JPG,AFNE01.JPG,AFNE01.JPG,1,2,12,2,,,,,,,,,,,,,,,,,,,,,,,AFSA01.jpg,AFSA19.jpg,AFNE20.jpg,AFNE11.jpg,AFNE20.jpg,FN,3,num_2,32,num_4,0.600212842459,,,2017_May_03_1106,60.0225436049,FEMA4ImagesEEG,001,200280,
AFNE01.JPG,AFNE01.JPG,AFNE01.JPG,AFNE01.JPG,AFNE01.JPG,AFNE01.JPG,1,3,13,1,,,,,,,,,,,,,,,,,,,,,,,AFSA11.jpg,AFSA05.jpg,AFNE05.jpg,AFNE16.jpg,AFSA05.jpg,FS,4,num_6,16,num_6,0.300133203156,,,2017_May_03_1106,60.0225436049,FEMA4ImagesEEG,001,200280,
AFNE01.JPG,AFNE01.JPG,AFNE01.JPG,AFNE01.JPG,AFNE01.JPG,AFNE01.JPG,1,4,14,0,,,,,,,,,,,,,,,,,,,,,,,AFSA12.jpg,AFNE11.jpg,AFNE18.jpg,AFSA03.jpg,AFNE18.jpg,FN,3,num_2,32,num_8,0.733494365821,,,2017_May_03_1106,60.0225436049,FEMA4ImagesEEG,001,200280,
AFNE01.JPG,AFNE01.JPG,AFNE01.JPG,AFNE01.JPG,AFNE01.JPG,AFNE01.JPG,1,5,15,3,,,,,,,,,,,,,,,,,,,,,,,AFSA10.jpg,AFSA05.jpg,AFNE04.jpg,AFNE08.jpg,AFSA10.jpg,FS,4,num_8,32,num_2,0.500177208334,,,2017_May_03_1106,60.0225436049,FEMA4ImagesEEG,001,200280,
AFNE01.JPG,AFNE01.JPG,AFNE01.JPG,AFNE01.JPG,AFNE01.JPG,AFNE01.JPG,1,6,16,7,,,,,,,,,,,,,,,,,,,,,,,AFSA01.jpg,AFNE19.jpg,AFSA15.jpg,AFNE01.jpg,AFNE01.jpg,FN,3,num_4,32,num_8,0.716792198597,,,2017_May_03_1106,60.0225436049,FEMA4ImagesEEG,001,200280,
AFNE01.JPG,AFNE01.JPG,AFNE01.JPG,AFNE01.JPG,AFNE01.JPG,AFNE01.JPG,1,7,17,4,,,,,,,,,,,,,,,,,,,,,,,AFSA07.jpg,AFNE03.jpg,AFSA05.jpg,AFNE01.jpg,AFSA07.jpg,FS,4,num_8,32,num_6,0.56683128071,,,2017_May_03_1106,60.0225436049,FEMA4ImagesEEG,001,200280,
AFNE01.JPG,AFNE01.JPG,AFNE01.JPG,AFNE01.JPG,AFNE01.JPG,AFNE01.JPG,1,8,18,6,,,,,,,,,,,,,,,,,,,,,,,AFSA01.jpg,AFNE15.jpg,AFNE02.jpg,AFSA07.jpg,AFNE02.jpg,FN,3,num_2,32,num_4,0.466849530581,,,2017_May_03_1106,60.0225436049,FEMA4ImagesEEG,001,200280,
AFNE01.JPG,AFNE01.JPG,AFNE01.JPG,AFNE01.JPG,AFNE01.JPG,AFNE01.JPG,1,9,19,9,,,,,,,,,,,,,,,,,,,,,,,AFNE06.jpg,AFSA12.jpg,AFSA10.jpg,AFNE14.jpg,AFSA10.jpg,FS,4,num_2,16,num_2,0.950043604476,,,2017_May_03_1106,60.0225436049,FEMA4ImagesEEG,001,200280,
AFNE01.JPG,AFNE01.JPG,AFNE01.JPG,AFNE01.JPG,AFNE01.JPG,AFNE01.JPG,2,0,20,1,,,,,,,,,,,,,,,,,,,,,,,AFNE12.jpg,AFSA02.jpg,AFNE19.jpg,AFSA08.jpg,AFSA08.jpg,FS,4,num_4,32,num_8,1.08330107224,,,2017_May_03_1106,60.0225436049,FEMA4ImagesEEG,001,200280,
AFNE01.JPG,AFNE01.JPG,AFNE01.JPG,AFNE01.JPG,AFNE01.JPG,AFNE01.JPG,2,1,21,2,,,,,,,,,,,,,,,,,,,,,,,AFSA19.jpg,AFSA16.jpg,AFNE15.jpg,AFNE09.jpg,AFNE15.jpg,FN,3,num_2,16,num_2,2.48333327449,,,2017_May_03_1106,60.0225436049,FEMA4ImagesEEG,001,200280,
AFNE01.JPG,AFNE01.JPG,AFNE01.JPG,AFNE01.JPG,AFNE01.JPG,AFNE01.JPG,2,2,22,7,,,,,,,,,,,,,,,,,,,,,,,AFSA13.jpg,AFNE19.jpg,AFNE10.jpg,AFSA20.jpg,AFSA13.jpg,FS,4,num_8,16,num_8,1.23342556716,,,2017_May_03_1106,60.0225436049,FEMA4ImagesEEG,001,200280,
AFNE01.JPG,AFNE01.JPG,AFNE01.JPG,AFNE01.JPG,AFNE01.JPG,AFNE01.JPG,2,3,23,5,,,,,,,,,,,,,,,,,,,,,,,AFNE17.jpg,AFSA05.jpg,AFNE12.jpg,AFSA19.jpg,AFSA05.jpg,FS,4,num_6,32,num_4,0.616773884511,,,2017_May_03_1106,60.0225436049,FEMA4ImagesEEG,001,200280,
AFNE01.JPG,AFNE01.JPG,AFNE01.JPG,AFNE01.JPG,AFNE01.JPG,AFNE01.JPG,2,4,24,6,,,,,,,,,,,,,,,,,,,,,,,AFSA11.jpg,AFNE05.jpg,AFNE20.jpg,AFSA05.jpg,AFNE20.jpg,FN,3,num_2,32,num_6,0.633563933894,,,2017_May_03_1106,60.0225436049,FEMA4ImagesEEG,001,200280,
AFNE01.JPG,AFNE01.JPG,AFNE01.JPG,AFNE01.JPG,AFNE01.JPG,AFNE01.JPG,2,5,25,9,,,,,,,,,,,,,,,,,,,,,,,AFNE06.jpg,AFSA11.jpg,AFNE04.jpg,AFSA10.jpg,AFNE06.jpg,FN,3,num_8,48,None,,,,2017_May_03_1106,60.0225436049,FEMA4ImagesEEG,001,200280,
AFNE01.JPG,AFNE01.JPG,AFNE01.JPG,AFNE01.JPG,AFNE01.JPG,AFNE01.JPG,2,6,26,8,,,,,,,,,,,,,,,,,,,,,,,AFSA14.jpg,AFSA11.jpg,AFNE15.jpg,AFNE01.jpg,AFNE15.jpg,FN,3,num_2,32,num_6,0.666780315107,,,2017_May_03_1106,60.0225436049,FEMA4ImagesEEG,001,200280,
AFNE01.JPG,AFNE01.JPG,AFNE01.JPG,AFNE01.JPG,AFNE01.JPG,AFNE01.JPG,2,7,27,3,,,,,,,,,,,,,,,,,,,,,,,AFNE10.jpg,AFSA08.jpg,AFSA18.jpg,AFNE05.jpg,AFSA18.jpg,FS,4,num_2,32,num_8,0.916641515214,,,2017_May_03_1106,60.0225436049,FEMA4ImagesEEG,001,200280,
AFNE01.JPG,AFNE01.JPG,AFNE01.JPG,AFNE01.JPG,AFNE01.JPG,AFNE01.JPG,2,8,28,0,,,,,,,,,,,,,,,,,,,,,,,AFNE18.jpg,AFSA03.jpg,AFSA11.jpg,AFNE09.jpg,AFSA03.jpg,FS,4,num_6,32,num_2,1.01680384134,,,2017_May_03_1106,60.0225436049,FEMA4ImagesEEG,001,200280,
AFNE01.JPG,AFNE01.JPG,AFNE01.JPG,AFNE01.JPG,AFNE01.JPG,AFNE01.JPG,2,9,29,4,,,,,,,,,,,,,,,,,,,,,,,AFSA13.jpg,AFNE11.jpg,AFSA06.jpg,AFNE13.jpg,AFSA13.jpg,FS,4,num_8,32,num_2,0.866755682277,,,2017_May_03_1106,60.0225436049,FEMA4ImagesEEG,001,200280,
AFNE01.JPG,AFNE01.JPG,AFNE01.JPG,AFNE01.JPG,AFNE01.JPG,AFNE01.JPG,3,0,30,0,,,,,,,,,,,,,,,,,,,,,,,AFSA06.jpg,AFNE07.jpg,AFNE11.jpg,AFSA12.jpg,AFNE11.jpg,FN,3,num_2,32,num_8,0.550135528436,,,2017_May_03_1106,60.0225436049,FEMA4ImagesEEG,001,200280,
AFNE01.JPG,AFNE01.JPG,AFNE01.JPG,AFNE01.JPG,AFNE01.JPG,AFNE01.JPG,3,1,31,3,,,,,,,,,,,,,,,,,,,,,,,AFNE06.jpg,AFSA06.jpg,AFNE05.jpg,AFSA16.jpg,AFNE05.jpg,FN,3,num_2,32,num_8,1.0001792931,,,2017_May_03_1106,60.0225436049,FEMA4ImagesEEG,001,200280,
AFNE01.JPG,AFNE01.JPG,AFNE01.JPG,AFNE01.JPG,AFNE01.JPG,AFNE01.JPG,3,2,32,6,,,,,,,,,,,,,,,,,,,,,,,AFNE01.jpg,AFNE17.jpg,AFSA05.jpg,AFSA01.jpg,AFSA01.jpg,FS,4,num_4,32,num_6,0.816739629488,,,2017_May_03_1106,60.0225436049,FEMA4ImagesEEG,001,200280,
AFNE01.JPG,AFNE01.JPG,AFNE01.JPG,AFNE01.JPG,AFNE01.JPG,AFNE01.JPG,3,3,33,1,,,,,,,,,,,,,,,,,,,,,,,AFSA16.jpg,AFSA08.jpg,AFNE19.jpg,AFNE13.jpg,AFSA08.jpg,FS,4,num_6,48,None,,,,2017_May_03_1106,60.0225436049,FEMA4ImagesEEG,001,200280,
AFNE01.JPG,AFNE01.JPG,AFNE01.JPG,AFNE01.JPG,AFNE01.JPG,AFNE01.JPG,3,4,34,8,,,,,,,,,,,,,,,,,,,,,,,AFNE01.jpg,AFSA11.jpg,AFSA15.jpg,AFNE19.jpg,AFNE01.jpg,FN,3,num_8,48,None,,,,2017_May_03_1106,60.0225436049,FEMA4ImagesEEG,001,200280,
AFNE01.JPG,AFNE01.JPG,AFNE01.JPG,AFNE01.JPG,AFNE01.JPG,AFNE01.JPG,3,5,35,5,,,,,,,,,,,,,,,,,,,,,,,AFSA20.jpg,AFNE12.jpg,AFSA18.jpg,AFNE09.jpg,AFNE12.jpg,FN,3,num_6,32,num_8,2.03341010748,,,2017_May_03_1106,60.0225436049,FEMA4ImagesEEG,001,200280,
AFNE01.JPG,AFNE01.JPG,AFNE01.JPG,AFNE01.JPG,AFNE01.JPG,AFNE01.JPG,3,6,36,9,,,,,,,,,,,,,,,,,,,,,,,AFNE16.jpg,AFSA03.jpg,AFSA18.jpg,AFNE14.jpg,AFNE16.jpg,FN,3,num_8,32,num_2,1.18344607856,,,2017_May_03_1106,60.0225436049,FEMA4ImagesEEG,001,200280,
AFNE01.JPG,AFNE01.JPG,AFNE01.JPG,AFNE01.JPG,AFNE01.JPG,AFNE01.JPG,3,7,37,4,,,,,,,,,,,,,,,,,,,,,,,AFNE07.jpg,AFNE16.jpg,AFSA08.jpg,AFSA13.jpg,AFSA08.jpg,FS,4,num_2,32,num_6,1.01687215897,,,2017_May_03_1106,60.0225436049,FEMA4ImagesEEG,001,200280,
AFNE01.JPG,AFNE01.JPG,AFNE01.JPG,AFNE01.JPG,AFNE01.JPG,AFNE01.JPG,3,8,38,7,,,,,,,,,,,,,,,,,,,,,,,AFSA19.jpg,AFNE02.jpg,AFSA11.jpg,AFNE03.jpg,AFSA19.jpg,FS,4,num_8,16,num_8,1.03343640827,,,2017_May_03_1106,60.0225436049,FEMA4ImagesEEG,001,200280,
AFNE01.JPG,AFNE01.JPG,AFNE01.JPG,AFNE01.JPG,AFNE01.JPG,AFNE01.JPG,3,9,39,2,,,,,,,,,,,,,,,,,,,,,,,AFSA03.jpg,AFSA17.jpg,AFNE07.jpg,AFNE14.jpg,AFNE14.jpg,FN,3,num_4,32,num_2,0.983450825326,,,2017_May_03_1106,60.0225436049,FEMA4ImagesEEG,001,200280,
AFNE01.JPG,AFNE01.JPG,AFNE01.JPG,AFNE01.JPG,AFNE01.JPG,AFNE01.JPG,4,0,40,9,,,,,,,,,,,,,,,,,,,,,,,AFNE04.jpg,AFSA20.jpg,AFSA15.jpg,AFNE17.jpg,AFNE04.jpg,FN,3,num_8,32,num_6,0.800115722697,,,2017_May_03_1106,60.0225436049,FEMA4ImagesEEG,001,200280,
AFNE01.JPG,AFNE01.JPG,AFNE01.JPG,AFNE01.JPG,AFNE01.JPG,AFNE01.JPG,4,1,41,8,,,,,,,,,,,,,,,,,,,,,,,AFNE15.jpg,AFSA15.jpg,AFNE09.jpg,AFSA16.jpg,AFSA15.jpg,FS,4,num_6,32,num_8,0.933413282968,,,2017_May_03_1106,60.0225436049,FEMA4ImagesEEG,001,200280,
AFNE01.JPG,AFNE01.JPG,AFNE01.JPG,AFNE01.JPG,AFNE01.JPG,AFNE01.JPG,4,2,42,4,,,,,,,,,,,,,,,,,,,,,,,AFNE04.jpg,AFSA15.jpg,AFSA08.jpg,AFNE18.jpg,AFNE04.jpg,FN,3,num_8,32,num_4,1.16642573825,,,2017_May_03_1106,60.0225436049,FEMA4ImagesEEG,001,200280,
AFNE01.JPG,AFNE01.JPG,AFNE01.JPG,AFNE01.JPG,AFNE01.JPG,AFNE01.JPG,4,3,43,7,,,,,,,,,,,,,,,,,,,,,,,AFSA19.jpg,AFNE05.jpg,AFNE09.jpg,AFSA10.jpg,AFNE09.jpg,FN,3,num_2,32,num_6,0.933458827902,,,2017_May_03_1106,60.0225436049,FEMA4ImagesEEG,001,200280,
AFNE01.JPG,AFNE01.JPG,AFNE01.JPG,AFNE01.JPG,AFNE01.JPG,AFNE01.JPG,4,4,44,5,,,,,,,,,,,,,,,,,,,,,,,AFNE02.jpg,AFSA07.jpg,AFSA06.jpg,AFNE09.jpg,AFNE09.jpg,FN,3,num_4,32,num_6,3.08329529897,,,2017_May_03_1106,60.0225436049,FEMA4ImagesEEG,001,200280,
AFNE01.JPG,AFNE01.JPG,AFNE01.JPG,AFNE01.JPG,AFNE01.JPG,AFNE01.JPG,4,5,45,0,,,,,,,,,,,,,,,,,,,,,,,AFNE13.jpg,AFSA13.jpg,AFNE18.jpg,AFSA09.jpg,AFNE13.jpg,FN,3,num_8,16,num_8,1.13339442341,,,2017_May_03_1106,60.0225436049,FEMA4ImagesEEG,001,200280,
AFNE01.JPG,AFNE01.JPG,AFNE01.JPG,AFNE01.JPG,AFNE01.JPG,AFNE01.JPG,4,6,46,3,,,,,,,,,,,,,,,,,,,,,,,AFNE11.jpg,AFSA10.jpg,AFNE04.jpg,AFSA12.jpg,AFNE04.jpg,FN,3,num_2,32,num_8,1.03344538901,,,2017_May_03_1106,60.0225436049,FEMA4ImagesEEG,001,200280,
AFNE01.JPG,AFNE01.JPG,AFNE01.JPG,AFNE01.JPG,AFNE01.JPG,AFNE01.JPG,4,7,47,1,,,,,,,,,,,,,,,,,,,,,,,AFNE20.jpg,AFSA17.jpg,AFSA20.jpg,AFNE09.jpg,AFNE09.jpg,FN,3,num_4,16,num_4,0.533605277305,,,2017_May_03_1106,60.0225436049,FEMA4ImagesEEG,001,200280,
AFNE01.JPG,AFNE01.JPG,AFNE01.JPG,AFNE01.JPG,AFNE01.JPG,AFNE01.JPG,4,8,48,2,,,,,,,,,,,,,,,,,,,,,,,AFNE08.jpg,AFNE14.jpg,AFSA03.jpg,AFSA05.jpg,AFSA03.jpg,FS,4,num_2,16,num_2,1.69995435886,,,2017_May_03_1106,60.0225436049,FEMA4ImagesEEG,001,200280,
AFNE01.JPG,AFNE01.JPG,AFNE01.JPG,AFNE01.JPG,AFNE01.JPG,AFNE01.JPG,4,9,49,6,,,,,,,,,,,,,,,,,,,,,,,AFSA10.jpg,AFNE12.jpg,AFNE13.jpg,AFSA03.jpg,AFSA10.jpg,FS,4,num_8,16,num_8,0.816772344988,,,2017_May_03_1106,60.0225436049,FEMA4ImagesEEG,001,200280,
AFNE01.JPG,AFNE01.JPG,AFNE01.JPG,AFNE01.JPG,AFNE01.JPG,AFNE01.JPG,5,0,50,2,,,,,,,,,,,,,,,,,,,,,,,AFNE15.jpg,AFNE20.jpg,AFSA18.jpg,AFSA19.jpg,AFSA18.jpg,FS,4,num_2,32,num_6,3.6332197811,,,2017_May_03_1106,60.0225436049,FEMA4ImagesEEG,001,200280,
AFNE01.JPG,AFNE01.JPG,AFNE01.JPG,AFNE01.JPG,AFNE01.JPG,AFNE01.JPG,5,1,51,6,,,,,,,,,,,,,,,,,,,,,,,AFNE08.jpg,AFSA06.jpg,AFNE09.jpg,AFSA01.jpg,AFSA01.jpg,FS,4,num_4,32,num_2,0.500146417413,,,2017_May_03_1106,60.0225436049,FEMA4ImagesEEG,001,200280,
AFNE01.JPG,AFNE01.JPG,AFNE01.JPG,AFNE01.JPG,AFNE01.JPG,AFNE01.JPG,5,2,52,9,,,,,,,,,,,,,,,,,,,,,,,AFNE09.jpg,AFSA09.jpg,AFNE13.jpg,AFSA12.jpg,AFNE09.jpg,FN,3,num_8,16,num_8,0.766551980982,,,2017_May_03_1106,60.0225436049,FEMA4ImagesEEG,001,200280,
AFNE01.JPG,AFNE01.JPG,AFNE01.JPG,AFNE01.JPG,AFNE01.JPG,AFNE01.JPG,5,3,53,4,,,,,,,,,,,,,,,,,,,,,,,AFNE20.jpg,AFSA07.jpg,AFSA08.jpg,AFNE14.jpg,AFSA07.jpg,FS,4,num_6,16,num_6,1.20012515248,,,2017_May_03_1106,60.0225436049,FEMA4ImagesEEG,001,200280,
AFNE01.JPG,AFNE01.JPG,AFNE01.JPG,AFNE01.JPG,AFNE01.JPG,AFNE01.JPG,5,4,54,1,,,,,,,,,,,,,,,,,,,,,,,AFNE06.jpg,AFSA04.jpg,AFNE04.jpg,AFSA19.jpg,AFSA19.jpg,FS,4,num_4,32,num_8,0.666786409216,,,2017_May_03_1106,60.0225436049,FEMA4ImagesEEG,001,200280,
AFNE01.JPG,AFNE01.JPG,AFNE01.JPG,AFNE01.JPG,AFNE01.JPG,AFNE01.JPG,5,5,55,8,,,,,,,,,,,,,,,,,,,,,,,AFSA09.jpg,AFSA14.jpg,AFNE18.jpg,AFNE06.jpg,AFNE18.jpg,FN,3,num_2,16,num_2,1.81667099148,,,2017_May_03_1106,60.0225436049,FEMA4ImagesEEG,001,200280,
AFNE01.JPG,AFNE01.JPG,AFNE01.JPG,AFNE01.JPG,AFNE01.JPG,AFNE01.JPG,5,6,56,3,,,,,,,,,,,,,,,,,,,,,,,AFNE15.jpg,AFSA04.jpg,AFSA09.jpg,AFNE03.jpg,AFSA04.jpg,FS,4,num_6,48,None,,,,2017_May_03_1106,60.0225436049,FEMA4ImagesEEG,001,200280,
AFNE01.JPG,AFNE01.JPG,AFNE01.JPG,AFNE01.JPG,AFNE01.JPG,AFNE01.JPG,5,7,57,5,,,,,,,,,,,,,,,,,,,,,,,AFSA07.jpg,AFNE17.jpg,AFSA11.jpg,AFNE08.jpg,AFSA07.jpg,FS,4,num_8,32,num_4,0.567128285067,,,2017_May_03_1106,60.0225436049,FEMA4ImagesEEG,001,200280,
AFNE01.JPG,AFNE01.JPG,AFNE01.JPG,AFNE01.JPG,AFNE01.JPG,AFNE01.JPG,5,8,58,0,,,,,,,,,,,,,,,,,,,,,,,AFSA11.jpg,AFNE19.jpg,AFSA05.jpg,AFNE15.jpg,AFNE15.jpg,FN,3,num_4,32,num_6,0.566762642469,,,2017_May_03_1106,60.0225436049,FEMA4ImagesEEG,001,200280,
AFNE01.JPG,AFNE01.JPG,AFNE01.JPG,AFNE01.JPG,AFNE01.JPG,AFNE01.JPG,5,9,59,7,,,,,,,,,,,,,,,,,,,,,,,AFNE08.jpg,AFNE11.jpg,AFSA14.jpg,AFSA05.jpg,AFSA14.jpg,FS,4,num_2,16,num_2,0.400185836013,,,2017_May_03_1106,60.0225436049,FEMA4ImagesEEG,001,200280,
,,,,,,,,,,,,,,,,,,,,,,,,,,,,,,,,,,,,,,,,,,,space,9.66606891574,2017_May_03_1106,60.0225436049,FEMA4ImagesEEG,001,200280,
AFNE01.JPG,AFNE01.JPG,AFNE01.JPG,AFNE01.JPG,AFNE01.JPG,AFNE01.JPG,,,,,0,0,0,3,,,,,,,,,,,,,,,,,,,AMNE03.jpg,AMSA11.jpg,AMNE10.jpg,AMSA12.jpg,AMNE10.jpg,MN,1,num_2,16,num_2,1.21675675688,,,2017_May_03_1106,60.0225436049,FEMA4ImagesEEG,001,200280,
AFNE01.JPG,AFNE01.JPG,AFNE01.JPG,AFNE01.JPG,AFNE01.JPG,AFNE01.JPG,,,,,0,1,1,0,,,,,,,,,,,,,,,,,,,AMNE18.jpg,AMSA01.jpg,AMNE05.jpg,AMSA10.jpg,AMNE05.jpg,MN,1,num_2,16,num_2,0.800219321391,,,2017_May_03_1106,60.0225436049,FEMA4ImagesEEG,001,200280,
AFNE01.JPG,AFNE01.JPG,AFNE01.JPG,AFNE01.JPG,AFNE01.JPG,AFNE01.JPG,,,,,0,2,2,1,,,,,,,,,,,,,,,,,,,AMNE19.jpg,AMSA20.jpg,AMSA06.jpg,AMNE11.jpg,AMSA06.jpg,MS,2,num_2,32,num_6,0.866636046907,,,2017_May_03_1106,60.0225436049,FEMA4ImagesEEG,001,200280,
AFNE01.JPG,AFNE01.JPG,AFNE01.JPG,AFNE01.JPG,AFNE01.JPG,AFNE01.JPG,,,,,0,3,3,4,,,,,,,,,,,,,,,,,,,AMSA20.jpg,AMNE14.jpg,AMNE20.jpg,AMSA04.jpg,AMNE20.jpg,MN,1,num_2,16,num_2,4.05021523195,,,2017_May_03_1106,60.0225436049,FEMA4ImagesEEG,001,200280,
AFNE01.JPG,AFNE01.JPG,AFNE01.JPG,AFNE01.JPG,AFNE01.JPG,AFNE01.JPG,,,,,0,4,4,7,,,,,,,,,,,,,,,,,,,AMNE07.jpg,AMNE18.jpg,AMSA02.jpg,AMSA11.jpg,AMSA11.jpg,MS,2,num_4,32,num_8,0.883474848932,,,2017_May_03_1106,60.0225436049,FEMA4ImagesEEG,001,200280,
AFNE01.JPG,AFNE01.JPG,AFNE01.JPG,AFNE01.JPG,AFNE01.JPG,AFNE01.JPG,,,,,0,5,5,5,,,,,,,,,,,,,,,,,,,AMSA15.jpg,AMNE09.jpg,AMSA02.jpg,AMNE01.jpg,AMSA02.jpg,MS,2,num_2,16,num_2,0.899989704369,,,2017_May_03_1106,60.0225436049,FEMA4ImagesEEG,001,200280,
AFNE01.JPG,AFNE01.JPG,AFNE01.JPG,AFNE01.JPG,AFNE01.JPG,AFNE01.JPG,,,,,0,6,6,8,,,,,,,,,,,,,,,,,,,AMNE03.jpg,AMNE17.jpg,AMSA13.jpg,AMSA02.jpg,AMNE03.jpg,MN,1,num_8,32,num_2,1.28341147071,,,2017_May_03_1106,60.0225436049,FEMA4ImagesEEG,001,200280,
AFNE01.JPG,AFNE01.JPG,AFNE01.JPG,AFNE01.JPG,AFNE01.JPG,AFNE01.JPG,,,,,0,7,7,2,,,,,,,,,,,,,,,,,,,AMNE07.jpg,AMSA19.jpg,AMSA13.jpg,AMNE09.jpg,AMNE07.jpg,MN,1,num_8,16,num_8,0.733515534317,,,2017_May_03_1106,60.0225436049,FEMA4ImagesEEG,001,200280,
AFNE01.JPG,AFNE01.JPG,AFNE01.JPG,AFNE01.JPG,AFNE01.JPG,AFNE01.JPG,,,,,0,8,8,6,,,,,,,,,,,,,,,,,,,AMSA15.jpg,AMNE02.jpg,AMNE17.jpg,AMSA10.jpg,AMSA10.jpg,MS,2,num_4,32,num_8,1.1667153656,,,2017_May_03_1106,60.0225436049,FEMA4ImagesEEG,001,200280,
AFNE01.JPG,AFNE01.JPG,AFNE01.JPG,AFNE01.JPG,AFNE01.JPG,AFNE01.JPG,,,,,0,9,9,9,,,,,,,,,,,,,,,,,,,AMSA20.jpg,AMNE09.jpg,AMSA08.jpg,AMNE11.jpg,AMSA20.jpg,MS,2,num_8,16,num_8,0.733512968523,,,2017_May_03_1106,60.0225436049,FEMA4ImagesEEG,001,200280,
AFNE01.JPG,AFNE01.JPG,AFNE01.JPG,AFNE01.JPG,AFNE01.JPG,AFNE01.JPG,,,,,1,0,10,5,,,,,,,,,,,,,,,,,,,AMNE17.jpg,AMSA01.jpg,AMNE04.jpg,AMSA14.jpg,AMNE04.jpg,MN,1,num_2,32,num_8,4.03294311161,,,2017_May_03_1106,60.0225436049,FEMA4ImagesEEG,001,200280,
AFNE01.JPG,AFNE01.JPG,AFNE01.JPG,AFNE01.JPG,AFNE01.JPG,AFNE01.JPG,,,,,1,1,11,7,,,,,,,,,,,,,,,,,,,AMNE06.jpg,AMSA04.jpg,AMSA15.jpg,AMNE12.jpg,AMSA15.jpg,MS,2,num_2,32,num_8,1.11675030994,,,2017_May_03_1106,60.0225436049,FEMA4ImagesEEG,001,200280,
AFNE01.JPG,AFNE01.JPG,AFNE01.JPG,AFNE01.JPG,AFNE01.JPG,AFNE01.JPG,,,,,1,2,12,8,,,,,,,,,,,,,,,,,,,AMNE14.jpg,AMSA13.jpg,AMNE15.jpg,AMSA17.jpg,AMNE14.jpg,MN,1,num_8,32,num_6,0.416756179649,,,2017_May_03_1106,60.0225436049,FEMA4ImagesEEG,001,200280,
AFNE01.JPG,AFNE01.JPG,AFNE01.JPG,AFNE01.JPG,AFNE01.JPG,AFNE01.JPG,,,,,1,3,13,0,,,,,,,,,,,,,,,,,,,AMSA08.jpg,AMNE17.jpg,AMSA16.jpg,AMNE05.jpg,AMSA16.jpg,MS,2,num_2,16,num_2,0.516784115927,,,2017_May_03_1106,60.0225436049,FEMA4ImagesEEG,001,200280,
AFNE01.JPG,AFNE01.JPG,AFNE01.JPG,AFNE01.JPG,AFNE01.JPG,AFNE01.JPG,,,,,1,4,14,2,,,,,,,,,,,,,,,,,,,AMNE09.jpg,AMSA16.jpg,AMNE13.jpg,AMSA02.jpg,AMSA02.jpg,MS,2,num_4,32,num_8,0.716734144837,,,2017_May_03_1106,60.0225436049,FEMA4ImagesEEG,001,200280,
AFNE01.JPG,AFNE01.JPG,AFNE01.JPG,AFNE01.JPG,AFNE01.JPG,AFNE01.JPG,,,,,1,5,15,6,,,,,,,,,,,,,,,,,,,AMNE16.jpg,AMNE19.jpg,AMSA18.jpg,AMSA20.jpg,AMNE19.jpg,MN,1,num_6,32,num_2,0.933433168801,,,2017_May_03_1106,60.0225436049,FEMA4ImagesEEG,001,200280,
AFNE01.JPG,AFNE01.JPG,AFNE01.JPG,AFNE01.JPG,AFNE01.JPG,AFNE01.JPG,,,,,1,6,16,9,,,,,,,,,,,,,,,,,,,AMSA16.jpg,AMSA17.jpg,AMNE03.jpg,AMNE19.jpg,AMSA17.jpg,MS,2,num_6,48,None,,,,2017_May_03_1106,60.0225436049,FEMA4ImagesEEG,001,200280,
AFNE01.JPG,AFNE01.JPG,AFNE01.JPG,AFNE01.JPG,AFNE01.JPG,AFNE01.JPG,,,,,1,7,17,1,,,,,,,,,,,,,,,,,,,AMNE03.jpg,AMSA15.jpg,AMNE12.jpg,AMSA12.jpg,AMNE12.jpg,MN,1,num_2,32,num_8,1.30013737269,,,2017_May_03_1106,60.0225436049,FEMA4ImagesEEG,001,200280,
AFNE01.JPG,AFNE01.JPG,AFNE01.JPG,AFNE01.JPG,AFNE01.JPG,AFNE01.JPG,,,,,1,8,18,4,,,,,,,,,,,,,,,,,,,AMSA12.jpg,AMNE14.jpg,AMNE12.jpg,AMSA17.jpg,AMSA17.jpg,MS,2,num_4,32,num_8,1.05015108408,,,2017_May_03_1106,60.0225436049,FEMA4ImagesEEG,001,200280,
AFNE01.JPG,AFNE01.JPG,AFNE01.JPG,AFNE01.JPG,AFNE01.JPG,AFNE01.JPG,,,,,1,9,19,3,,,,,,,,,,,,,,,,,,,AMSA04.jpg,AMSA09.jpg,AMNE10.jpg,AMNE11.jpg,AMSA04.jpg,MS,2,num_8,32,num_2,1.13345889212,,,2017_May_03_1106,60.0225436049,FEMA4ImagesEEG,001,200280,
AFNE01.JPG,AFNE01.JPG,AFNE01.JPG,AFNE01.JPG,AFNE01.JPG,AFNE01.JPG,,,,,2,0,20,9,,,,,,,,,,,,,,,,,,,AMNE16.jpg,AMSA12.jpg,AMSA16.jpg,AMNE18.jpg,AMNE16.jpg,MN,1,num_8,32,num_6,4.48284478905,,,2017_May_03_1106,60.0225436049,FEMA4ImagesEEG,001,200280,
AFNE01.JPG,AFNE01.JPG,AFNE01.JPG,AFNE01.JPG,AFNE01.JPG,AFNE01.JPG,,,,,2,1,21,0,,,,,,,,,,,,,,,,,,,AMSA16.jpg,AMSA20.jpg,AMNE16.jpg,AMNE07.jpg,AMNE07.jpg,MN,1,num_4,32,num_2,1.58342150995,,,2017_May_03_1106,60.0225436049,FEMA4ImagesEEG,001,200280,
AFNE01.JPG,AFNE01.JPG,AFNE01.JPG,AFNE01.JPG,AFNE01.JPG,AFNE01.JPG,,,,,2,2,22,4,,,,,,,,,,,,,,,,,,,AMSA20.jpg,AMNE20.jpg,AMNE04.jpg,AMSA17.jpg,AMSA17.jpg,MS,2,num_4,16,num_4,1.30012293928,,,2017_May_03_1106,60.0225436049,FEMA4ImagesEEG,001,200280,
AFNE01.JPG,AFNE01.JPG,AFNE01.JPG,AFNE01.JPG,AFNE01.JPG,AFNE01.JPG,,,,,2,3,23,5,,,,,,,,,,,,,,,,,,,AMNE12.jpg,AMNE10.jpg,AMSA08.jpg,AMSA02.jpg,AMNE10.jpg,MN,1,num_6,16,num_6,1.25009309454,,,2017_May_03_1106,60.0225436049,FEMA4ImagesEEG,001,200280,
AFNE01.JPG,AFNE01.JPG,AFNE01.JPG,AFNE01.JPG,AFNE01.JPG,AFNE01.JPG,,,,,2,4,24,3,,,,,,,,,,,,,,,,,,,AMNE03.jpg,AMNE06.jpg,AMSA03.jpg,AMSA13.jpg,AMSA13.jpg,MS,2,num_4,32,num_8,0.833462323993,,,2017_May_03_1106,60.0225436049,FEMA4ImagesEEG,001,200280,
AFNE01.JPG,AFNE01.JPG,AFNE01.JPG,AFNE01.JPG,AFNE01.JPG,AFNE01.JPG,,,,,2,5,25,2,,,,,,,,,,,,,,,,,,,AMNE12.jpg,AMNE01.jpg,AMSA14.jpg,AMSA19.jpg,AMNE12.jpg,MN,1,num_8,16,num_8,0.716780010611,,,2017_May_03_1106,60.0225436049,FEMA4ImagesEEG,001,200280,
AFNE01.JPG,AFNE01.JPG,AFNE01.JPG,AFNE01.JPG,AFNE01.JPG,AFNE01.JPG,,,,,2,6,26,6,,,,,,,,,,,,,,,,,,,AMSA04.jpg,AMNE01.jpg,AMNE08.jpg,AMSA16.jpg,AMNE01.jpg,MN,1,num_6,16,num_6,0.75011859322,,,2017_May_03_1106,60.0225436049,FEMA4ImagesEEG,001,200280,
AFNE01.JPG,AFNE01.JPG,AFNE01.JPG,AFNE01.JPG,AFNE01.JPG,AFNE01.JPG,,,,,2,7,27,1,,,,,,,,,,,,,,,,,,,AMSA03.jpg,AMNE09.jpg,AMSA13.jpg,AMNE18.jpg,AMSA03.jpg,MS,2,num_8,48,None,,,,2017_May_03_1106,60.0225436049,FEMA4ImagesEEG,001,200280,
AFNE01.JPG,AFNE01.JPG,AFNE01.JPG,AFNE01.JPG,AFNE01.JPG,AFNE01.JPG,,,,,2,8,28,7,,,,,,,,,,,,,,,,,,,AMNE15.jpg,AMNE12.jpg,AMSA04.jpg,AMSA10.jpg,AMSA10.jpg,MS,2,num_4,16,num_4,1.6001021876,,,2017_May_03_1106,60.0225436049,FEMA4ImagesEEG,001,200280,
AFNE01.JPG,AFNE01.JPG,AFNE01.JPG,AFNE01.JPG,AFNE01.JPG,AFNE01.JPG,,,,,2,9,29,8,,,,,,,,,,,,,,,,,,,AMNE18.jpg,AMSA11.jpg,AMNE08.jpg,AMSA05.jpg,AMSA05.jpg,MS,2,num_4,32,num_8,0.816757590743,,,2017_May_03_1106,60.0225436049,FEMA4ImagesEEG,001,200280,
AFNE01.JPG,AFNE01.JPG,AFNE01.JPG,AFNE01.JPG,AFNE01.JPG,AFNE01.JPG,,,,,3,0,30,9,,,,,,,,,,,,,,,,,,,AMNE17.jpg,AMNE02.jpg,AMSA09.jpg,AMSA16.jpg,AMSA09.jpg,MS,2,num_2,16,num_2,0.400267624762,,,2017_May_03_1106,60.0225436049,FEMA4ImagesEEG,001,200280,
AFNE01.JPG,AFNE01.JPG,AFNE01.JPG,AFNE01.JPG,AFNE01.JPG,AFNE01.JPG,,,,,3,1,31,0,,,,,,,,,,,,,,,,,,,AMSA03.jpg,AMNE20.jpg,AMSA16.jpg,AMNE12.jpg,AMNE12.jpg,MN,1,num_4,48,None,,,,2017_May_03_1106,60.0225436049,FEMA4ImagesEEG,001,200280,
AFNE01.JPG,AFNE01.JPG,AFNE01.JPG,AFNE01.JPG,AFNE01.JPG,AFNE01.JPG,,,,,3,2,32,8,,,,,,,,,,,,,,,,,,,AMNE03.jpg,AMSA12.jpg,AMSA01.jpg,AMNE18.jpg,AMNE18.jpg,MN,1,num_4,32,num_6,1.35015919898,,,2017_May_03_1106,60.0225436049,FEMA4ImagesEEG,001,200280,
AFNE01.JPG,AFNE01.JPG,AFNE01.JPG,AFNE01.JPG,AFNE01.JPG,AFNE01.JPG,,,,,3,3,33,4,,,,,,,,,,,,,,,,,,,AMSA11.jpg,AMNE05.jpg,AMNE18.jpg,AMSA04.jpg,AMSA11.jpg,MS,2,num_8,32,num_2,0.800128231524,,,2017_May_03_1106,60.0225436049,FEMA4ImagesEEG,001,200280,
AFNE01.JPG,AFNE01.JPG,AFNE01.JPG,AFNE01.JPG,AFNE01.JPG,AFNE01.JPG,,,,,3,4,34,1,,,,,,,,,,,,,,,,,,,AMSA12.jpg,AMNE04.jpg,AMSA03.jpg,AMNE17.jpg,AMNE17.jpg,MN,1,num_4,16,num_4,0.850153906504,,,2017_May_03_1106,60.0225436049,FEMA4ImagesEEG,001,200280,
AFNE01.JPG,AFNE01.JPG,AFNE01.JPG,AFNE01.JPG,AFNE01.JPG,AFNE01.JPG,,,,,3,5,35,5,,,,,,,,,,,,,,,,,,,AMSA16.jpg,AMNE09.jpg,AMNE03.jpg,AMSA11.jpg,AMSA11.jpg,MS,2,num_4,32,num_8,0.750136875315,,,2017_May_03_1106,60.0225436049,FEMA4ImagesEEG,001,200280,
AFNE01.JPG,AFNE01.JPG,AFNE01.JPG,AFNE01.JPG,AFNE01.JPG,AFNE01.JPG,,,,,3,6,36,6,,,,,,,,,,,,,,,,,,,AMNE11.jpg,AMSA13.jpg,AMSA20.jpg,AMNE19.jpg,AMNE19.jpg,MN,1,num_4,32,num_6,3.84986876952,,,2017_May_03_1106,60.0225436049,FEMA4ImagesEEG,001,200280,
AFNE01.JPG,AFNE01.JPG,AFNE01.JPG,AFNE01.JPG,AFNE01.JPG,AFNE01.JPG,,,,,3,7,37,2,,,,,,,,,,,,,,,,,,,AMSA12.jpg,AMNE12.jpg,AMNE13.jpg,AMSA01.jpg,AMNE12.jpg,MN,1,num_6,16,num_6,0.650282779476,,,2017_May_03_1106,60.0225436049,FEMA4ImagesEEG,001,200280,
AFNE01.JPG,AFNE01.JPG,AFNE01.JPG,AFNE01.JPG,AFNE01.JPG,AFNE01.JPG,,,,,3,8,38,7,,,,,,,,,,,,,,,,,,,AMNE18.jpg,AMSA01.jpg,AMSA16.jpg,AMNE15.jpg,AMNE15.jpg,MN,1,num_4,32,num_8,0.750172798056,,,2017_May_03_1106,60.0225436049,FEMA4ImagesEEG,001,200280,
AFNE01.JPG,AFNE01.JPG,AFNE01.JPG,AFNE01.JPG,AFNE01.JPG,AFNE01.JPG,,,,,3,9,39,3,,,,,,,,,,,,,,,,,,,AMNE20.jpg,AMNE16.jpg,AMSA14.jpg,AMSA06.jpg,AMNE16.jpg,MN,1,num_6,32,num_4,0.85011349339,,,2017_May_03_1106,60.0225436049,FEMA4ImagesEEG,001,200280,
AFNE01.JPG,AFNE01.JPG,AFNE01.JPG,AFNE01.JPG,AFNE01.JPG,AFNE01.JPG,,,,,4,0,40,5,,,,,,,,,,,,,,,,,,,AMNE06.jpg,AMSA02.jpg,AMNE18.jpg,AMSA14.jpg,AMNE06.jpg,MN,1,num_8,48,None,,,,2017_May_03_1106,60.0225436049,FEMA4ImagesEEG,001,200280,
AFNE01.JPG,AFNE01.JPG,AFNE01.JPG,AFNE01.JPG,AFNE01.JPG,AFNE01.JPG,,,,,4,1,41,6,,,,,,,,,,,,,,,,,,,AMSA14.jpg,AMSA04.jpg,AMNE20.jpg,AMNE19.jpg,AMNE19.jpg,MN,1,num_4,32,num_2,0.95015233499,,,2017_May_03_1106,60.0225436049,FEMA4ImagesEEG,001,200280,
AFNE01.JPG,AFNE01.JPG,AFNE01.JPG,AFNE01.JPG,AFNE01.JPG,AFNE01.JPG,,,,,4,2,42,2,,,,,,,,,,,,,,,,,,,AMNE01.jpg,AMNE18.jpg,AMSA20.jpg,AMSA08.jpg,AMNE01.jpg,MN,1,num_8,32,num_2,0.850106758066,,,2017_May_03_1106,60.0225436049,FEMA4ImagesEEG,001,200280,
AFNE01.JPG,AFNE01.JPG,AFNE01.JPG,AFNE01.JPG,AFNE01.JPG,AFNE01.JPG,,,,,4,3,43,9,,,,,,,,,,,,,,,,,,,AMSA10.jpg,AMNE04.jpg,AMSA07.jpg,AMNE11.jpg,AMSA07.jpg,MS,2,num_2,32,num_8,0.733528364217,,,2017_May_03_1106,60.0225436049,FEMA4ImagesEEG,001,200280,
AFNE01.JPG,AFNE01.JPG,AFNE01.JPG,AFNE01.JPG,AFNE01.JPG,AFNE01.JPG,,,,,4,4,44,4,,,,,,,,,,,,,,,,,,,AMSA01.jpg,AMNE20.jpg,AMNE05.jpg,AMSA18.jpg,AMNE20.jpg,MN,1,num_6,16,num_6,3.19989165431,,,2017_May_03_1106,60.0225436049,FEMA4ImagesEEG,001,200280,
AFNE01.JPG,AFNE01.JPG,AFNE01.JPG,AFNE01.JPG,AFNE01.JPG,AFNE01.JPG,,,,,4,5,45,1,,,,,,,,,,,,,,,,,,,AMSA07.jpg,AMNE12.jpg,AMSA11.jpg,AMNE02.jpg,AMSA07.jpg,MS,2,num_8,16,num_8,0.766793176997,,,2017_May_03_1106,60.0225436049,FEMA4ImagesEEG,001,200280,
AFNE01.JPG,AFNE01.JPG,AFNE01.JPG,AFNE01.JPG,AFNE01.JPG,AFNE01.JPG,,,,,4,6,46,0,,,,,,,,,,,,,,,,,,,AMSA14.jpg,AMSA06.jpg,AMNE12.jpg,AMNE11.jpg,AMNE12.jpg,MN,1,num_2,16,num_2,0.966731017688,,,2017_May_03_1106,60.0225436049,FEMA4ImagesEEG,001,200280,
AFNE01.JPG,AFNE01.JPG,AFNE01.JPG,AFNE01.JPG,AFNE01.JPG,AFNE01.JPG,,,,,4,7,47,8,,,,,,,,,,,,,,,,,,,AMSA17.jpg,AMSA20.jpg,AMNE14.jpg,AMNE10.jpg,AMSA17.jpg,MS,2,num_8,16,num_8,0.733510081889,,,2017_May_03_1106,60.0225436049,FEMA4ImagesEEG,001,200280,
AFNE01.JPG,AFNE01.JPG,AFNE01.JPG,AFNE01.JPG,AFNE01.JPG,AFNE01.JPG,,,,,4,8,48,7,,,,,,,,,,,,,,,,,,,AMSA01.jpg,AMSA10.jpg,AMNE20.jpg,AMNE09.jpg,AMNE20.jpg,MN,1,num_2,32,num_8,1.0497645936,,,2017_May_03_1106,60.0225436049,FEMA4ImagesEEG,001,200280,
AFNE01.JPG,AFNE01.JPG,AFNE01.JPG,AFNE01.JPG,AFNE01.JPG,AFNE01.JPG,,,,,4,9,49,3,,,,,,,,,,,,,,,,,,,AMSA04.jpg,AMSA07.jpg,AMNE06.jpg,AMNE17.jpg,AMSA04.jpg,MS,2,num_8,16,num_8,4.49954984267,,,2017_May_03_1106,60.0225436049,FEMA4ImagesEEG,001,200280,
AFNE01.JPG,AFNE01.JPG,AFNE01.JPG,AFNE01.JPG,AFNE01.JPG,AFNE01.JPG,,,,,5,0,50,6,,,,,,,,,,,,,,,,,,,AMNE20.jpg,AMSA16.jpg,AMNE04.jpg,AMSA13.jpg,AMNE04.jpg,MN,1,num_2,16,num_2,0.800133042736,,,2017_May_03_1106,60.0225436049,FEMA4ImagesEEG,001,200280,
AFNE01.JPG,AFNE01.JPG,AFNE01.JPG,AFNE01.JPG,AFNE01.JPG,AFNE01.JPG,,,,,5,1,51,3,,,,,,,,,,,,,,,,,,,AMSA15.jpg,AMNE18.jpg,AMNE20.jpg,AMSA07.jpg,AMSA07.jpg,MS,2,num_4,32,num_8,0.700153216952,,,2017_May_03_1106,60.0225436049,FEMA4ImagesEEG,001,200280,
AFNE01.JPG,AFNE01.JPG,AFNE01.JPG,AFNE01.JPG,AFNE01.JPG,AFNE01.JPG,,,,,5,2,52,2,,,,,,,,,,,,,,,,,,,AMNE15.jpg,AMSA07.jpg,AMNE07.jpg,AMSA15.jpg,AMSA15.jpg,MS,2,num_4,32,num_8,0.683340074029,,,2017_May_03_1106,60.0225436049,FEMA4ImagesEEG,001,200280,
AFNE01.JPG,AFNE01.JPG,AFNE01.JPG,AFNE01.JPG,AFNE01.JPG,AFNE01.JPG,,,,,5,3,53,1,,,,,,,,,,,,,,,,,,,AMNE09.jpg,AMSA02.jpg,AMSA03.jpg,AMNE11.jpg,AMNE09.jpg,MN,1,num_8,16,num_8,0.833428325364,,,2017_May_03_1106,60.0225436049,FEMA4ImagesEEG,001,200280,
AFNE01.JPG,AFNE01.JPG,AFNE01.JPG,AFNE01.JPG,AFNE01.JPG,AFNE01.JPG,,,,,5,4,54,5,,,,,,,,,,,,,,,,,,,AMNE17.jpg,AMSA01.jpg,AMNE02.jpg,AMSA19.jpg,AMNE02.jpg,MN,1,num_2,32,num_8,2.41666188231,,,2017_May_03_1106,60.0225436049,FEMA4ImagesEEG,001,200280,
AFNE01.JPG,AFNE01.JPG,AFNE01.JPG,AFNE01.JPG,AFNE01.JPG,AFNE01.JPG,,,,,5,5,55,8,,,,,,,,,,,,,,,,,,,AMSA07.jpg,AMNE11.jpg,AMNE02.jpg,AMSA06.jpg,AMNE11.jpg,MN,1,num_6,48,None,,,,2017_May_03_1106,60.0225436049,FEMA4ImagesEEG,001,200280,
AFNE01.JPG,AFNE01.JPG,AFNE01.JPG,AFNE01.JPG,AFNE01.JPG,AFNE01.JPG,,,,,5,6,56,9,,,,,,,,,,,,,,,,,,,AMSA04.jpg,AMNE17.jpg,AMSA20.jpg,AMNE04.jpg,AMNE04.jpg,MN,1,num_4,32,num_8,0.583479563473,,,2017_May_03_1106,60.0225436049,FEMA4ImagesEEG,001,200280,
AFNE01.JPG,AFNE01.JPG,AFNE01.JPG,AFNE01.JPG,AFNE01.JPG,AFNE01.JPG,,,,,5,7,57,4,,,,,,,,,,,,,,,,,,,AMNE15.jpg,AMSA17.jpg,AMSA20.jpg,AMNE20.jpg,AMSA17.jpg,MS,2,num_6,32,num_8,0.816762081115,,,2017_May_03_1106,60.0225436049,FEMA4ImagesEEG,001,200280,
AFNE01.JPG,AFNE01.JPG,AFNE01.JPG,AFNE01.JPG,AFNE01.JPG,AFNE01.JPG,,,,,5,8,58,0,,,,,,,,,,,,,,,,,,,AMNE13.jpg,AMNE01.jpg,AMSA02.jpg,AMSA15.jpg,AMNE01.jpg,MN,1,num_6,32,num_2,0.516806888627,,,2017_May_03_1106,60.0225436049,FEMA4ImagesEEG,001,200280,
AFNE01.JPG,AFNE01.JPG,AFNE01.JPG,AFNE01.JPG,AFNE01.JPG,AFNE01.JPG,,,,,5,9,59,7,,,,,,,,,,,,,,,,,,,AMNE15.jpg,AMSA16.jpg,AMSA06.jpg,AMNE07.jpg,AMSA16.jpg,MS,2,num_6,16,num_6,1.65009097755,,,2017_May_03_1106,60.0225436049,FEMA4ImagesEEG,001,200280,
,,,,,,,,,,,,,,,,,,,,,,,,,,,,,,,,,,,,,,,,,,,space,11.2826330368,2017_May_03_1106,60.0225436049,FEMA4ImagesEEG,001,200280,
AFNE01.JPG,AFNE01.JPG,AFNE01.JPG,AFNE01.JPG,AFNE01.JPG,AFNE01.JPG,,,,,,,,,0,0,0,5,,,,,,,,,,,,,,,AFSA17.jpg,AFNE06.jpg,AFNE12.jpg,AFSA02.jpg,AFNE12.jpg,FN,3,num_2,16,num_2,0.700168291805,,,2017_May_03_1106,60.0225436049,FEMA4ImagesEEG,001,200280,
AFNE01.JPG,AFNE01.JPG,AFNE01.JPG,AFNE01.JPG,AFNE01.JPG,AFNE01.JPG,,,,,,,,,0,1,1,2,,,,,,,,,,,,,,,AFSA09.jpg,AFSA05.jpg,AFNE02.jpg,AFNE15.jpg,AFNE02.jpg,FN,3,num_2,32,num_8,0.966731017688,,,2017_May_03_1106,60.0225436049,FEMA4ImagesEEG,001,200280,
AFNE01.JPG,AFNE01.JPG,AFNE01.JPG,AFNE01.JPG,AFNE01.JPG,AFNE01.JPG,,,,,,,,,0,2,2,8,,,,,,,,,,,,,,,AFNE10.jpg,AFSA05.jpg,AFNE15.jpg,AFSA04.jpg,AFNE15.jpg,FN,3,num_2,32,num_6,0.766763027292,,,2017_May_03_1106,60.0225436049,FEMA4ImagesEEG,001,200280,
AFNE01.JPG,AFNE01.JPG,AFNE01.JPG,AFNE01.JPG,AFNE01.JPG,AFNE01.JPG,,,,,,,,,0,3,3,4,,,,,,,,,,,,,,,AFSA03.jpg,AFSA19.jpg,AFNE20.jpg,AFNE05.jpg,AFSA03.jpg,FS,4,num_8,16,num_8,0.683488255832,,,2017_May_03_1106,60.0225436049,FEMA4ImagesEEG,001,200280,
AFNE01.JPG,AFNE01.JPG,AFNE01.JPG,AFNE01.JPG,AFNE01.JPG,AFNE01.JPG,,,,,,,,,0,4,4,7,,,,,,,,,,,,,,,AFNE06.jpg,AFNE19.jpg,AFSA01.jpg,AFSA02.jpg,AFSA01.jpg,FS,4,num_2,16,num_2,1.20013413299,,,2017_May_03_1106,60.0225436049,FEMA4ImagesEEG,001,200280,
AFNE01.JPG,AFNE01.JPG,AFNE01.JPG,AFNE01.JPG,AFNE01.JPG,AFNE01.JPG,,,,,,,,,0,5,5,3,,,,,,,,,,,,,,,AFNE10.jpg,AFSA08.jpg,AFNE20.jpg,AFSA16.jpg,AFNE20.jpg,FN,3,num_2,48,None,,,,2017_May_03_1106,60.0225436049,FEMA4ImagesEEG,001,200280,
AFNE01.JPG,AFNE01.JPG,AFNE01.JPG,AFNE01.JPG,AFNE01.JPG,AFNE01.JPG,,,,,,,,,0,6,6,1,,,,,,,,,,,,,,,AFSA08.jpg,AFNE11.jpg,AFNE19.jpg,AFSA03.jpg,AFSA08.jpg,FS,4,num_8,32,num_4,3.36632509017,,,2017_May_03_1106,60.0225436049,FEMA4ImagesEEG,001,200280,
AFNE01.JPG,AFNE01.JPG,AFNE01.JPG,AFNE01.JPG,AFNE01.JPG,AFNE01.JPG,,,,,,,,,0,7,7,0,,,,,,,,,,,,,,,AFNE03.jpg,AFSA06.jpg,AFNE13.jpg,AFSA03.jpg,AFNE13.jpg,FN,3,num_2,32,num_8,0.633495295886,,,2017_May_03_1106,60.0225436049,FEMA4ImagesEEG,001,200280,
AFNE01.JPG,AFNE01.JPG,AFNE01.JPG,AFNE01.JPG,AFNE01.JPG,AFNE01.JPG,,,,,,,,,0,8,8,6,,,,,,,,,,,,,,,AFNE13.jpg,AFNE06.jpg,AFSA13.jpg,AFSA02.jpg,AFNE13.jpg,FN,3,num_8,32,num_2,0.566812036326,,,2017_May_03_1106,60.0225436049,FEMA4ImagesEEG,001,200280,
AFNE01.JPG,AFNE01.JPG,AFNE01.JPG,AFNE01.JPG,AFNE01.JPG,AFNE01.JPG,,,,,,,,,0,9,9,9,,,,,,,,,,,,,,,AFSA18.jpg,AFNE12.jpg,AFSA16.jpg,AFNE10.jpg,AFSA16.jpg,FS,4,num_2,48,None,,,,2017_May_03_1106,60.0225436049,FEMA4ImagesEEG,001,200280,
AFNE01.JPG,AFNE01.JPG,AFNE01.JPG,AFNE01.JPG,AFNE01.JPG,AFNE01.JPG,,,,,,,,,1,0,10,5,,,,,,,,,,,,,,,AFSA11.jpg,AFNE20.jpg,AFSA14.jpg,AFNE16.jpg,AFSA14.jpg,FS,4,num_2,32,num_4,2.13341430924,,,2017_May_03_1106,60.0225436049,FEMA4ImagesEEG,001,200280,
AFNE01.JPG,AFNE01.JPG,AFNE01.JPG,AFNE01.JPG,AFNE01.JPG,AFNE01.JPG,,,,,,,,,1,1,11,7,,,,,,,,,,,,,,,AFSA20.jpg,AFSA04.jpg,AFNE09.jpg,AFNE10.jpg,AFSA20.jpg,FS,4,num_8,32,num_2,0.983120464254,,,2017_May_03_1106,60.0225436049,FEMA4ImagesEEG,001,200280,
AFNE01.JPG,AFNE01.JPG,AFNE01.JPG,AFNE01.JPG,AFNE01.JPG,AFNE01.JPG,,,,,,,,,1,2,12,1,,,,,,,,,,,,,,,AFNE04.jpg,AFSA13.jpg,AFNE17.jpg,AFSA09.jpg,AFNE17.jpg,FN,3,num_2,32,num_4,1.56665776088,,,2017_May_03_1106,60.0225436049,FEMA4ImagesEEG,001,200280,
AFNE01.JPG,AFNE01.JPG,AFNE01.JPG,AFNE01.JPG,AFNE01.JPG,AFNE01.JPG,,,,,,,,,1,3,13,3,,,,,,,,,,,,,,,AFSA08.jpg,AFNE15.jpg,AFSA17.jpg,AFNE09.jpg,AFSA17.jpg,FS,4,num_2,32,num_6,1.43336212495,,,2017_May_03_1106,60.0225436049,FEMA4ImagesEEG,001,200280,
AFNE01.JPG,AFNE01.JPG,AFNE01.JPG,AFNE01.JPG,AFNE01.JPG,AFNE01.JPG,,,,,,,,,1,4,14,4,,,,,,,,,,,,,,,AFNE17.jpg,AFSA09.jpg,AFNE15.jpg,AFSA06.jpg,AFNE17.jpg,FN,3,num_8,16,num_8,0.833446287084,,,2017_May_03_1106,60.0225436049,FEMA4ImagesEEG,001,200280,
AFNE01.JPG,AFNE01.JPG,AFNE01.JPG,AFNE01.JPG,AFNE01.JPG,AFNE01.JPG,,,,,,,,,1,5,15,8,,,,,,,,,,,,,,,AFSA13.jpg,AFNE19.jpg,AFSA19.jpg,AFNE08.jpg,AFNE08.jpg,FN,3,num_4,16,num_4,0.73386417795,,,2017_May_03_1106,60.0225436049,FEMA4ImagesEEG,001,200280,
AFNE01.JPG,AFNE01.JPG,AFNE01.JPG,AFNE01.JPG,AFNE01.JPG,AFNE01.JPG,,,,,,,,,1,6,16,6,,,,,,,,,,,,,,,AFNE17.jpg,AFSA04.jpg,AFNE01.jpg,AFSA06.jpg,AFSA06.jpg,FS,4,num_4,32,num_6,0.79981358652,,,2017_May_03_1106,60.0225436049,FEMA4ImagesEEG,001,200280,
AFNE01.JPG,AFNE01.JPG,AFNE01.JPG,AFNE01.JPG,AFNE01.JPG,AFNE01.JPG,,,,,,,,,1,7,17,0,,,,,,,,,,,,,,,AFSA02.jpg,AFNE10.jpg,AFNE16.jpg,AFSA14.jpg,AFNE16.jpg,FN,3,num_2,16,num_2,0.883575881599,,,2017_May_03_1106,60.0225436049,FEMA4ImagesEEG,001,200280,
AFNE01.JPG,AFNE01.JPG,AFNE01.JPG,AFNE01.JPG,AFNE01.JPG,AFNE01.JPG,,,,,,,,,1,8,18,9,,,,,,,,,,,,,,,AFSA05.jpg,AFSA15.jpg,AFNE18.jpg,AFNE09.jpg,AFNE09.jpg,FN,3,num_4,16,num_4,0.633477655239,,,2017_May_03_1106,60.0225436049,FEMA4ImagesEEG,001,200280,
AFNE01.JPG,AFNE01.JPG,AFNE01.JPG,AFNE01.JPG,AFNE01.JPG,AFNE01.JPG,,,,,,,,,1,9,19,2,,,,,,,,,,,,,,,AFNE15.jpg,AFSA06.jpg,AFNE20.jpg,AFSA05.jpg,AFSA05.jpg,FS,4,num_4,16,num_4,0.733469989616,,,2017_May_03_1106,60.0225436049,FEMA4ImagesEEG,001,200280,
AFNE01.JPG,AFNE01.JPG,AFNE01.JPG,AFNE01.JPG,AFNE01.JPG,AFNE01.JPG,,,,,,,,,2,0,20,4,,,,,,,,,,,,,,,AFSA12.jpg,AFNE09.jpg,AFSA05.jpg,AFNE18.jpg,AFSA05.jpg,FS,4,num_2,32,num_6,1.26673335908,,,2017_May_03_1106,60.0225436049,FEMA4ImagesEEG,001,200280,
AFNE01.JPG,AFNE01.JPG,AFNE01.JPG,AFNE01.JPG,AFNE01.JPG,AFNE01.JPG,,,,,,,,,2,1,21,2,,,,,,,,,,,,,,,AFNE19.jpg,AFSA17.jpg,AFSA11.jpg,AFNE05.jpg,AFSA17.jpg,FS,4,num_6,32,num_2,1.08345053671,,,2017_May_03_1106,60.0225436049,FEMA4ImagesEEG,001,200280,
AFNE01.JPG,AFNE01.JPG,AFNE01.JPG,AFNE01.JPG,AFNE01.JPG,AFNE01.JPG,,,,,,,,,2,2,22,8,,,,,,,,,,,,,,,AFNE04.jpg,AFSA11.jpg,AFSA20.jpg,AFNE09.jpg,AFSA11.jpg,FS,4,num_6,48,None,,,,2017_May_03_1106,60.0225436049,FEMA4ImagesEEG,001,200280,
AFNE01.JPG,AFNE01.JPG,AFNE01.JPG,AFNE01.JPG,AFNE01.JPG,AFNE01.JPG,,,,,,,,,2,3,23,3,,,,,,,,,,,,,,,AFNE12.jpg,AFSA14.jpg,AFSA03.jpg,AFNE07.jpg,AFSA03.jpg,FS,4,num_2,16,num_2,1.25008283067,,,2017_May_03_1106,60.0225436049,FEMA4ImagesEEG,001,200280,
AFNE01.JPG,AFNE01.JPG,AFNE01.JPG,AFNE01.JPG,AFNE01.JPG,AFNE01.JPG,,,,,,,,,2,4,24,9,,,,,,,,,,,,,,,AFSA17.jpg,AFNE15.jpg,AFNE05.jpg,AFSA12.jpg,AFSA17.jpg,FS,4,num_8,32,num_2,1.08346496988,,,2017_May_03_1106,60.0225436049,FEMA4ImagesEEG,001,200280,
AFNE01.JPG,AFNE01.JPG,AFNE01.JPG,AFNE01.JPG,AFNE01.JPG,AFNE01.JPG,,,,,,,,,2,5,25,5,,,,,,,,,,,,,,,AFSA05.jpg,AFNE11.jpg,AFSA06.jpg,AFNE02.jpg,AFSA05.jpg,FS,4,num_8,48,None,,,,2017_May_03_1106,60.0225436049,FEMA4ImagesEEG,001,200280,
AFNE01.JPG,AFNE01.JPG,AFNE01.JPG,AFNE01.JPG,AFNE01.JPG,AFNE01.JPG,,,,,,,,,2,6,26,6,,,,,,,,,,,,,,,AFNE20.jpg,AFSA16.jpg,AFSA20.jpg,AFNE18.jpg,AFSA16.jpg,FS,4,num_6,32,num_2,0.900143017527,,,2017_May_03_1106,60.0225436049,FEMA4ImagesEEG,001,200280,
AFNE01.JPG,AFNE01.JPG,AFNE01.JPG,AFNE01.JPG,AFNE01.JPG,AFNE01.JPG,,,,,,,,,2,7,27,1,,,,,,,,,,,,,,,AFNE18.jpg,AFNE09.jpg,AFSA19.jpg,AFSA02.jpg,AFSA19.jpg,FS,4,num_2,16,num_2,1.46674817707,,,2017_May_03_1106,60.0225436049,FEMA4ImagesEEG,001,200280,
AFNE01.JPG,AFNE01.JPG,AFNE01.JPG,AFNE01.JPG,AFNE01.JPG,AFNE01.JPG,,,,,,,,,2,8,28,7,,,,,,,,,,,,,,,AFSA09.jpg,AFNE05.jpg,AFNE09.jpg,AFSA13.jpg,AFSA09.jpg,FS,4,num_8,48,None,,,,2017_May_03_1106,60.0225436049,FEMA4ImagesEEG,001,200280,
AFNE01.JPG,AFNE01.JPG,AFNE01.JPG,AFNE01.JPG,AFNE01.JPG,AFNE01.JPG,,,,,,,,,2,9,29,0,,,,,,,,,,,,,,,AFNE08.jpg,AFSA20.jpg,AFSA18.jpg,AFNE02.jpg,AFNE08.jpg,FN,3,num_8,16,num_8,0.783471288392,,,2017_May_03_1106,60.0225436049,FEMA4ImagesEEG,001,200280,
AFNE01.JPG,AFNE01.JPG,AFNE01.JPG,AFNE01.JPG,AFNE01.JPG,AFNE01.JPG,,,,,,,,,3,0,30,3,,,,,,,,,,,,,,,AFSA04.jpg,AFNE17.jpg,AFSA19.jpg,AFNE14.jpg,AFNE17.jpg,FN,3,num_6,16,num_6,0.733489875449,,,2017_May_03_1106,60.0225436049,FEMA4ImagesEEG,001,200280,
AFNE01.JPG,AFNE01.JPG,AFNE01.JPG,AFNE01.JPG,AFNE01.JPG,AFNE01.JPG,,,,,,,,,3,1,31,0,,,,,,,,,,,,,,,AFNE15.jpg,AFNE13.jpg,AFSA06.jpg,AFSA05.jpg,AFSA06.jpg,FS,4,num_2,16,num_2,1.51671259128,,,2017_May_03_1106,60.0225436049,FEMA4ImagesEEG,001,200280,
AFNE01.JPG,AFNE01.JPG,AFNE01.JPG,AFNE01.JPG,AFNE01.JPG,AFNE01.JPG,,,,,,,,,3,2,32,9,,,,,,,,,,,,,,,AFNE19.jpg,AFNE01.jpg,AFSA03.jpg,AFSA12.jpg,AFNE01.jpg,FN,3,num_6,32,num_4,0.73350398778,,,2017_May_03_1106,60.0225436049,FEMA4ImagesEEG,001,200280,
AFNE01.JPG,AFNE01.JPG,AFNE01.JPG,AFNE01.JPG,AFNE01.JPG,AFNE01.JPG,,,,,,,,,3,3,33,5,,,,,,,,,,,,,,,AFSA18.jpg,AFNE15.jpg,AFNE08.jpg,AFSA13.jpg,AFNE08.jpg,FN,3,num_2,32,num_6,4.73315566522,,,2017_May_03_1106,60.0225436049,FEMA4ImagesEEG,001,200280,
AFNE01.JPG,AFNE01.JPG,AFNE01.JPG,AFNE01.JPG,AFNE01.JPG,AFNE01.JPG,,,,,,,,,3,4,34,7,,,,,,,,,,,,,,,AFNE20.jpg,AFSA07.jpg,AFNE09.jpg,AFSA12.jpg,AFSA12.jpg,FS,4,num_4,16,num_4,0.766874644672,,,2017_May_03_1106,60.0225436049,FEMA4ImagesEEG,001,200280,
AFNE01.JPG,AFNE01.JPG,AFNE01.JPG,AFNE01.JPG,AFNE01.JPG,AFNE01.JPG,,,,,,,,,3,5,35,8,,,,,,,,,,,,,,,AFNE08.jpg,AFSA17.jpg,AFNE14.jpg,AFSA06.jpg,AFSA17.jpg,FS,4,num_6,32,num_4,1.0167993512,,,2017_May_03_1106,60.0225436049,FEMA4ImagesEEG,001,200280,
AFNE01.JPG,AFNE01.JPG,AFNE01.JPG,AFNE01.JPG,AFNE01.JPG,AFNE01.JPG,,,,,,,,,3,6,36,2,,,,,,,,,,,,,,,AFNE14.jpg,AFNE02.jpg,AFSA03.jpg,AFSA06.jpg,AFNE14.jpg,FN,3,num_8,16,num_8,0.833437626949,,,2017_May_03_1106,60.0225436049,FEMA4ImagesEEG,001,200280,
AFNE01.JPG,AFNE01.JPG,AFNE01.JPG,AFNE01.JPG,AFNE01.JPG,AFNE01.JPG,,,,,,,,,3,7,37,6,,,,,,,,,,,,,,,AFNE01.jpg,AFSA18.jpg,AFSA04.jpg,AFNE11.jpg,AFNE01.jpg,FN,3,num_8,32,num_4,0.950136618689,,,2017_May_03_1106,60.0225436049,FEMA4ImagesEEG,001,200280,
AFNE01.JPG,AFNE01.JPG,AFNE01.JPG,AFNE01.JPG,AFNE01.JPG,AFNE01.JPG,,,,,,,,,3,8,38,4,,,,,,,,,,,,,,,AFSA06.jpg,AFNE11.jpg,AFSA15.jpg,AFNE10.jpg,AFNE10.jpg,FN,3,num_4,48,None,,,,2017_May_03_1106,60.0225436049,FEMA4ImagesEEG,001,200280,
AFNE01.JPG,AFNE01.JPG,AFNE01.JPG,AFNE01.JPG,AFNE01.JPG,AFNE01.JPG,,,,,,,,,3,9,39,1,,,,,,,,,,,,,,,AFSA12.jpg,AFNE10.jpg,AFSA05.jpg,AFNE15.jpg,AFSA12.jpg,FS,4,num_8,32,num_6,0.983462051256,,,2017_May_03_1106,60.0225436049,FEMA4ImagesEEG,001,200280,
AFNE01.JPG,AFNE01.JPG,AFNE01.JPG,AFNE01.JPG,AFNE01.JPG,AFNE01.JPG,,,,,,,,,4,0,40,4,,,,,,,,,,,,,,,AFNE10.jpg,AFSA16.jpg,AFSA14.jpg,AFNE16.jpg,AFSA14.jpg,FS,4,num_2,16,num_2,0.950153617887,,,2017_May_03_1106,60.0225436049,FEMA4ImagesEEG,001,200280,
AFNE01.JPG,AFNE01.JPG,AFNE01.JPG,AFNE01.JPG,AFNE01.JPG,AFNE01.JPG,,,,,,,,,4,1,41,3,,,,,,,,,,,,,,,AFNE05.jpg,AFSA19.jpg,AFNE04.jpg,AFSA16.jpg,AFSA19.jpg,FS,4,num_6,32,num_4,0.866660102038,,,2017_May_03_1106,60.0225436049,FEMA4ImagesEEG,001,200280,
AFNE01.JPG,AFNE01.JPG,AFNE01.JPG,AFNE01.JPG,AFNE01.JPG,AFNE01.JPG,,,,,,,,,4,2,42,8,,,,,,,,,,,,,,,AFSA05.jpg,AFSA03.jpg,AFNE13.jpg,AFNE12.jpg,AFSA03.jpg,FS,4,num_6,32,num_2,1.0000696003,,,2017_May_03_1106,60.0225436049,FEMA4ImagesEEG,001,200280,
AFNE01.JPG,AFNE01.JPG,AFNE01.JPG,AFNE01.JPG,AFNE01.JPG,AFNE01.JPG,,,,,,,,,4,3,43,0,,,,,,,,,,,,,,,AFSA15.jpg,AFNE04.jpg,AFNE08.jpg,AFSA01.jpg,AFNE08.jpg,FN,3,num_2,48,None,,,,2017_May_03_1106,60.0225436049,FEMA4ImagesEEG,001,200280,
AFNE01.JPG,AFNE01.JPG,AFNE01.JPG,AFNE01.JPG,AFNE01.JPG,AFNE01.JPG,,,,,,,,,4,4,44,6,,,,,,,,,,,,,,,AFNE09.jpg,AFSA11.jpg,AFSA07.jpg,AFNE19.jpg,AFNE09.jpg,FN,3,num_8,32,num_6,0.499854865717,,,2017_May_03_1106,60.0225436049,FEMA4ImagesEEG,001,200280,
AFNE01.JPG,AFNE01.JPG,AFNE01.JPG,AFNE01.JPG,AFNE01.JPG,AFNE01.JPG,,,,,,,,,4,5,45,9,,,,,,,,,,,,,,,AFSA01.jpg,AFNE05.jpg,AFSA15.jpg,AFNE16.jpg,AFNE05.jpg,FN,3,num_6,32,num_2,0.633439487312,,,2017_May_03_1106,60.0225436049,FEMA4ImagesEEG,001,200280,
AFNE01.JPG,AFNE01.JPG,AFNE01.JPG,AFNE01.JPG,AFNE01.JPG,AFNE01.JPG,,,,,,,,,4,6,46,2,,,,,,,,,,,,,,,AFNE02.jpg,AFSA05.jpg,AFNE07.jpg,AFSA16.jpg,AFSA16.jpg,FS,4,num_4,32,num_8,1.96672267839,,,2017_May_03_1106,60.0225436049,FEMA4ImagesEEG,001,200280,
AFNE01.JPG,AFNE01.JPG,AFNE01.JPG,AFNE01.JPG,AFNE01.JPG,AFNE01.JPG,,,,,,,,,4,7,47,7,,,,,,,,,,,,,,,AFSA20.jpg,AFNE18.jpg,AFSA12.jpg,AFNE20.jpg,AFSA20.jpg,FS,4,num_8,32,num_2,0.950211030198,,,2017_May_03_1106,60.0225436049,FEMA4ImagesEEG,001,200280,
AFNE01.JPG,AFNE01.JPG,AFNE01.JPG,AFNE01.JPG,AFNE01.JPG,AFNE01.JPG,,,,,,,,,4,8,48,1,,,,,,,,,,,,,,,AFSA02.jpg,AFNE04.jpg,AFSA09.jpg,AFNE15.jpg,AFSA09.jpg,FS,4,num_2,16,num_2,0.816763684852,,,2017_May_03_1106,60.0225436049,FEMA4ImagesEEG,001,200280,
AFNE01.JPG,AFNE01.JPG,AFNE01.JPG,AFNE01.JPG,AFNE01.JPG,AFNE01.JPG,,,,,,,,,4,9,49,5,,,,,,,,,,,,,,,AFNE10.jpg,AFSA15.jpg,AFNE12.jpg,AFSA06.jpg,AFSA06.jpg,FS,4,num_4,32,num_2,1.51673279773,,,2017_May_03_1106,60.0225436049,FEMA4ImagesEEG,001,200280,
AFNE01.JPG,AFNE01.JPG,AFNE01.JPG,AFNE01.JPG,AFNE01.JPG,AFNE01.JPG,,,,,,,,,5,0,50,5,,,,,,,,,,,,,,,AFSA15.jpg,AFNE17.jpg,AFSA13.jpg,AFNE10.jpg,AFNE17.jpg,FN,3,num_6,16,num_6,0.566774509847,,,2017_May_03_1106,60.0225436049,FEMA4ImagesEEG,001,200280,
AFNE01.JPG,AFNE01.JPG,AFNE01.JPG,AFNE01.JPG,AFNE01.JPG,AFNE01.JPG,,,,,,,,,5,1,51,2,,,,,,,,,,,,,,,AFSA08.jpg,AFSA15.jpg,AFNE20.jpg,AFNE02.jpg,AFSA08.jpg,FS,4,num_8,32,num_2,1.01675573061,,,2017_May_03_1106,60.0225436049,FEMA4ImagesEEG,001,200280,
AFNE01.JPG,AFNE01.JPG,AFNE01.JPG,AFNE01.JPG,AFNE01.JPG,AFNE01.JPG,,,,,,,,,5,2,52,9,,,,,,,,,,,,,,,AFNE05.jpg,AFSA20.jpg,AFSA11.jpg,AFNE18.jpg,AFSA20.jpg,FS,4,num_6,32,num_8,0.966749941232,,,2017_May_03_1106,60.0225436049,FEMA4ImagesEEG,001,200280,
AFNE01.JPG,AFNE01.JPG,AFNE01.JPG,AFNE01.JPG,AFNE01.JPG,AFNE01.JPG,,,,,,,,,5,3,53,1,,,,,,,,,,,,,,,AFSA10.jpg,AFNE09.jpg,AFNE14.jpg,AFSA16.jpg,AFNE14.jpg,FN,3,num_2,16,num_2,3.53324316302,,,2017_May_03_1106,60.0225436049,FEMA4ImagesEEG,001,200280,
AFNE01.JPG,AFNE01.JPG,AFNE01.JPG,AFNE01.JPG,AFNE01.JPG,AFNE01.JPG,,,,,,,,,5,4,54,8,,,,,,,,,,,,,,,AFSA15.jpg,AFNE12.jpg,AFNE02.jpg,AFSA20.jpg,AFSA15.jpg,FS,4,num_8,16,num_8,0.78352741804,,,2017_May_03_1106,60.0225436049,FEMA4ImagesEEG,001,200280,
AFNE01.JPG,AFNE01.JPG,AFNE01.JPG,AFNE01.JPG,AFNE01.JPG,AFNE01.JPG,,,,,,,,,5,5,55,3,,,,,,,,,,,,,,,AFSA07.jpg,AFNE19.jpg,AFNE05.jpg,AFSA20.jpg,AFNE05.jpg,FN,3,num_2,32,num_6,0.700101257302,,,2017_May_03_1106,60.0225436049,FEMA4ImagesEEG,001,200280,
AFNE01.JPG,AFNE01.JPG,AFNE01.JPG,AFNE01.JPG,AFNE01.JPG,AFNE01.JPG,,,,,,,,,5,6,56,0,,,,,,,,,,,,,,,AFNE13.jpg,AFSA19.jpg,AFNE18.jpg,AFSA11.jpg,AFNE13.jpg,FN,3,num_8,32,num_6,3.53320403257,,,2017_May_03_1106,60.0225436049,FEMA4ImagesEEG,001,200280,
AFNE01.JPG,AFNE01.JPG,AFNE01.JPG,AFNE01.JPG,AFNE01.JPG,AFNE01.JPG,,,,,,,,,5,7,57,7,,,,,,,,,,,,,,,AFSA15.jpg,AFSA10.jpg,AFNE03.jpg,AFNE14.jpg,AFNE03.jpg,FN,3,num_2,32,num_8,0.616790883476,,,2017_May_03_1106,60.0225436049,FEMA4ImagesEEG,001,200280,
AFNE01.JPG,AFNE01.JPG,AFNE01.JPG,AFNE01.JPG,AFNE01.JPG,AFNE01.JPG,,,,,,,,,5,8,58,4,,,,,,,,,,,,,,,AFNE11.jpg,AFNE01.jpg,AFSA14.jpg,AFSA10.jpg,AFNE01.jpg,FN,3,num_6,32,num_2,1.08348549739,,,2017_May_03_1106,60.0225436049,FEMA4ImagesEEG,001,200280,
AFNE01.JPG,AFNE01.JPG,AFNE01.JPG,AFNE01.JPG,AFNE01.JPG,AFNE01.JPG,,,,,,,,,5,9,59,6,,,,,,,,,,,,,,,AFSA15.jpg,AFNE11.jpg,AFSA11.jpg,AFNE20.jpg,AFNE20.jpg,FN,3,num_4,48,None,,,,2017_May_03_1106,60.0225436049,FEMA4ImagesEEG,001,200280,
,,,,,,,,,,,,,,,,,,,,,,,,,,,,,,,,,,,,,,,,,,,space,6.59967335919,2017_May_03_1106,60.0225436049,FEMA4ImagesEEG,001,200280,
AFNE01.JPG,AFNE01.JPG,AFNE01.JPG,AFNE01.JPG,AFNE01.JPG,AFNE01.JPG,,,,,,,,,,,,,0,0,0,6,,,,,,,,,,,AMSA17.jpg,AMNE14.jpg,AMSA14.jpg,AMNE12.jpg,AMNE14.jpg,MN,1,num_6,16,num_6,0.700024279766,,,2017_May_03_1106,60.0225436049,FEMA4ImagesEEG,001,200280,
AFNE01.JPG,AFNE01.JPG,AFNE01.JPG,AFNE01.JPG,AFNE01.JPG,AFNE01.JPG,,,,,,,,,,,,,0,1,1,4,,,,,,,,,,,AMSA14.jpg,AMNE02.jpg,AMNE16.jpg,AMSA19.jpg,AMNE02.jpg,MN,1,num_6,16,num_6,0.833447249141,,,2017_May_03_1106,60.0225436049,FEMA4ImagesEEG,001,200280,
AFNE01.JPG,AFNE01.JPG,AFNE01.JPG,AFNE01.JPG,AFNE01.JPG,AFNE01.JPG,,,,,,,,,,,,,0,2,2,8,,,,,,,,,,,AMSA11.jpg,AMNE02.jpg,AMNE11.jpg,AMSA04.jpg,AMNE11.jpg,MN,1,num_2,16,num_2,0.883437963901,,,2017_May_03_1106,60.0225436049,FEMA4ImagesEEG,001,200280,
AFNE01.JPG,AFNE01.JPG,AFNE01.JPG,AFNE01.JPG,AFNE01.JPG,AFNE01.JPG,,,,,,,,,,,,,0,3,3,2,,,,,,,,,,,AMSA13.jpg,AMSA07.jpg,AMNE19.jpg,AMNE17.jpg,AMNE19.jpg,MN,1,num_2,32,num_6,0.733277225401,,,2017_May_03_1106,60.0225436049,FEMA4ImagesEEG,001,200280,
AFNE01.JPG,AFNE01.JPG,AFNE01.JPG,AFNE01.JPG,AFNE01.JPG,AFNE01.JPG,,,,,,,,,,,,,0,4,4,7,,,,,,,,,,,AMSA05.jpg,AMNE15.jpg,AMSA02.jpg,AMNE09.jpg,AMSA02.jpg,MS,2,num_2,32,num_8,0.61683546612,,,2017_May_03_1106,60.0225436049,FEMA4ImagesEEG,001,200280,
AFNE01.JPG,AFNE01.JPG,AFNE01.JPG,AFNE01.JPG,AFNE01.JPG,AFNE01.JPG,,,,,,,,,,,,,0,5,5,9,,,,,,,,,,,AMSA20.jpg,AMNE12.jpg,AMSA02.jpg,AMNE09.jpg,AMSA20.jpg,MS,2,num_8,16,num_8,0.9001305087,,,2017_May_03_1106,60.0225436049,FEMA4ImagesEEG,001,200280,
AFNE01.JPG,AFNE01.JPG,AFNE01.JPG,AFNE01.JPG,AFNE01.JPG,AFNE01.JPG,,,,,,,,,,,,,0,6,6,3,,,,,,,,,,,AMNE05.jpg,AMSA19.jpg,AMNE09.jpg,AMSA07.jpg,AMNE05.jpg,MN,1,num_8,32,num_4,1.01674290118,,,2017_May_03_1106,60.0225436049,FEMA4ImagesEEG,001,200280,
AFNE01.JPG,AFNE01.JPG,AFNE01.JPG,AFNE01.JPG,AFNE01.JPG,AFNE01.JPG,,,,,,,,,,,,,0,7,7,5,,,,,,,,,,,AMNE12.jpg,AMSA07.jpg,AMNE11.jpg,AMSA18.jpg,AMNE12.jpg,MN,1,num_8,48,None,,,,2017_May_03_1106,60.0225436049,FEMA4ImagesEEG,001,200280,
AFNE01.JPG,AFNE01.JPG,AFNE01.JPG,AFNE01.JPG,AFNE01.JPG,AFNE01.JPG,,,,,,,,,,,,,0,8,8,1,,,,,,,,,,,AMSA14.jpg,AMNE14.jpg,AMNE01.jpg,AMSA01.jpg,AMNE01.jpg,MN,1,num_2,16,num_2,0.600275386591,,,2017_May_03_1106,60.0225436049,FEMA4ImagesEEG,001,200280,
AFNE01.JPG,AFNE01.JPG,AFNE01.JPG,AFNE01.JPG,AFNE01.JPG,AFNE01.JPG,,,,,,,,,,,,,0,9,9,0,,,,,,,,,,,AMSA15.jpg,AMSA03.jpg,AMNE14.jpg,AMNE17.jpg,AMSA03.jpg,MS,2,num_6,32,num_2,0.833472908242,,,2017_May_03_1106,60.0225436049,FEMA4ImagesEEG,001,200280,
AFNE01.JPG,AFNE01.JPG,AFNE01.JPG,AFNE01.JPG,AFNE01.JPG,AFNE01.JPG,,,,,,,,,,,,,1,0,10,8,,,,,,,,,,,AMNE19.jpg,AMSA01.jpg,AMSA06.jpg,AMNE20.jpg,AMNE20.jpg,MN,1,num_4,32,num_6,1.00014144578,,,2017_May_03_1106,60.0225436049,FEMA4ImagesEEG,001,200280,
AFNE01.JPG,AFNE01.JPG,AFNE01.JPG,AFNE01.JPG,AFNE01.JPG,AFNE01.JPG,,,,,,,,,,,,,1,1,11,4,,,,,,,,,,,AMSA03.jpg,AMNE17.jpg,AMNE02.jpg,AMSA05.jpg,AMSA03.jpg,MS,2,num_8,32,num_2,0.816735780565,,,2017_May_03_1106,60.0225436049,FEMA4ImagesEEG,001,200280,
AFNE01.JPG,AFNE01.JPG,AFNE01.JPG,AFNE01.JPG,AFNE01.JPG,AFNE01.JPG,,,,,,,,,,,,,1,2,12,9,,,,,,,,,,,AMSA09.jpg,AMNE19.jpg,AMSA19.jpg,AMNE17.jpg,AMNE19.jpg,MN,1,num_6,16,num_6,0.750152271008,,,2017_May_03_1106,60.0225436049,FEMA4ImagesEEG,001,200280,
AFNE01.JPG,AFNE01.JPG,AFNE01.JPG,AFNE01.JPG,AFNE01.JPG,AFNE01.JPG,,,,,,,,,,,,,1,3,13,6,,,,,,,,,,,AMSA02.jpg,AMNE14.jpg,AMSA04.jpg,AMNE07.jpg,AMSA02.jpg,MS,2,num_8,48,None,,,,2017_May_03_1106,60.0225436049,FEMA4ImagesEEG,001,200280,
AFNE01.JPG,AFNE01.JPG,AFNE01.JPG,AFNE01.JPG,AFNE01.JPG,AFNE01.JPG,,,,,,,,,,,,,1,4,14,0,,,,,,,,,,,AMSA15.jpg,AMNE13.jpg,AMNE02.jpg,AMSA19.jpg,AMSA15.jpg,MS,2,num_8,16,num_8,0.73332084599,,,2017_May_03_1106,60.0225436049,FEMA4ImagesEEG,001,200280,
AFNE01.JPG,AFNE01.JPG,AFNE01.JPG,AFNE01.JPG,AFNE01.JPG,AFNE01.JPG,,,,,,,,,,,,,1,5,15,3,,,,,,,,,,,AMNE15.jpg,AMSA06.jpg,AMSA09.jpg,AMNE08.jpg,AMSA06.jpg,MS,2,num_6,16,num_6,0.833452701801,,,2017_May_03_1106,60.0225436049,FEMA4ImagesEEG,001,200280,
AFNE01.JPG,AFNE01.JPG,AFNE01.JPG,AFNE01.JPG,AFNE01.JPG,AFNE01.JPG,,,,,,,,,,,,,1,6,16,1,,,,,,,,,,,AMSA11.jpg,AMSA07.jpg,AMNE08.jpg,AMNE04.jpg,AMNE04.jpg,MN,1,num_4,32,num_2,1.03335814783,,,2017_May_03_1106,60.0225436049,FEMA4ImagesEEG,001,200280,
AFNE01.JPG,AFNE01.JPG,AFNE01.JPG,AFNE01.JPG,AFNE01.JPG,AFNE01.JPG,,,,,,,,,,,,,1,7,17,5,,,,,,,,,,,AMSA14.jpg,AMNE05.jpg,AMSA13.jpg,AMNE03.jpg,AMSA13.jpg,MS,2,num_2,48,None,,,,2017_May_03_1106,60.0225436049,FEMA4ImagesEEG,001,200280,
AFNE01.JPG,AFNE01.JPG,AFNE01.JPG,AFNE01.JPG,AFNE01.JPG,AFNE01.JPG,,,,,,,,,,,,,1,8,18,2,,,,,,,,,,,AMSA18.jpg,AMNE13.jpg,AMSA16.jpg,AMNE04.jpg,AMSA16.jpg,MS,2,num_2,16,num_2,3.94984763279,,,2017_May_03_1106,60.0225436049,FEMA4ImagesEEG,001,200280,
AFNE01.JPG,AFNE01.JPG,AFNE01.JPG,AFNE01.JPG,AFNE01.JPG,AFNE01.JPG,,,,,,,,,,,,,1,9,19,7,,,,,,,,,,,AMSA09.jpg,AMNE20.jpg,AMNE01.jpg,AMSA17.jpg,AMSA09.jpg,MS,2,num_8,16,num_8,1.25007834053,,,2017_May_03_1106,60.0225436049,FEMA4ImagesEEG,001,200280,
AFNE01.JPG,AFNE01.JPG,AFNE01.JPG,AFNE01.JPG,AFNE01.JPG,AFNE01.JPG,,,,,,,,,,,,,2,0,20,1,,,,,,,,,,,AMSA01.jpg,AMSA16.jpg,AMNE16.jpg,AMNE15.jpg,AMNE16.jpg,MN,1,num_2,16,num_2,0.916748642223,,,2017_May_03_1106,60.0225436049,FEMA4ImagesEEG,001,200280,
AFNE01.JPG,AFNE01.JPG,AFNE01.JPG,AFNE01.JPG,AFNE01.JPG,AFNE01.JPG,,,,,,,,,,,,,2,1,21,8,,,,,,,,,,,AMSA13.jpg,AMSA04.jpg,AMNE19.jpg,AMNE17.jpg,AMSA13.jpg,MS,2,num_8,32,num_2,1.16676443862,,,2017_May_03_1106,60.0225436049,FEMA4ImagesEEG,001,200280,
AFNE01.JPG,AFNE01.JPG,AFNE01.JPG,AFNE01.JPG,AFNE01.JPG,AFNE01.JPG,,,,,,,,,,,,,2,2,22,0,,,,,,,,,,,AMSA15.jpg,AMNE06.jpg,AMSA13.jpg,AMNE12.jpg,AMNE06.jpg,MN,1,num_6,16,num_6,0.683477991959,,,2017_May_03_1106,60.0225436049,FEMA4ImagesEEG,001,200280,
AFNE01.JPG,AFNE01.JPG,AFNE01.JPG,AFNE01.JPG,AFNE01.JPG,AFNE01.JPG,,,,,,,,,,,,,2,3,23,5,,,,,,,,,,,AMSA11.jpg,AMNE05.jpg,AMSA15.jpg,AMNE02.jpg,AMSA15.jpg,MS,2,num_2,32,num_8,2.93333470193,,,2017_May_03_1106,60.0225436049,FEMA4ImagesEEG,001,200280,
AFNE01.JPG,AFNE01.JPG,AFNE01.JPG,AFNE01.JPG,AFNE01.JPG,AFNE01.JPG,,,,,,,,,,,,,2,4,24,7,,,,,,,,,,,AMSA12.jpg,AMNE08.jpg,AMNE20.jpg,AMSA07.jpg,AMNE20.jpg,MN,1,num_2,32,num_6,0.76681691152,,,2017_May_03_1106,60.0225436049,FEMA4ImagesEEG,001,200280,
AFNE01.JPG,AFNE01.JPG,AFNE01.JPG,AFNE01.JPG,AFNE01.JPG,AFNE01.JPG,,,,,,,,,,,,,2,5,25,2,,,,,,,,,,,AMSA02.jpg,AMNE08.jpg,AMNE04.jpg,AMSA09.jpg,AMSA09.jpg,MS,2,num_4,32,num_2,1.00037847226,,,2017_May_03_1106,60.0225436049,FEMA4ImagesEEG,001,200280,
AFNE01.JPG,AFNE01.JPG,AFNE01.JPG,AFNE01.JPG,AFNE01.JPG,AFNE01.JPG,,,,,,,,,,,,,2,6,26,3,,,,,,,,,,,AMNE12.jpg,AMSA15.jpg,AMNE01.jpg,AMSA16.jpg,AMNE01.jpg,MN,1,num_2,32,num_6,2.31669007521,,,2017_May_03_1106,60.0225436049,FEMA4ImagesEEG,001,200280,
AFNE01.JPG,AFNE01.JPG,AFNE01.JPG,AFNE01.JPG,AFNE01.JPG,AFNE01.JPG,,,,,,,,,,,,,2,7,27,4,,,,,,,,,,,AMSA09.jpg,AMNE01.jpg,AMNE18.jpg,AMSA05.jpg,AMSA09.jpg,MS,2,num_8,16,num_8,0.683508462273,,,2017_May_03_1106,60.0225436049,FEMA4ImagesEEG,001,200280,
AFNE01.JPG,AFNE01.JPG,AFNE01.JPG,AFNE01.JPG,AFNE01.JPG,AFNE01.JPG,,,,,,,,,,,,,2,8,28,9,,,,,,,,,,,AMNE11.jpg,AMSA19.jpg,AMNE19.jpg,AMSA12.jpg,AMNE19.jpg,MN,1,num_2,32,num_6,1.05011965171,,,2017_May_03_1106,60.0225436049,FEMA4ImagesEEG,001,200280,
AFNE01.JPG,AFNE01.JPG,AFNE01.JPG,AFNE01.JPG,AFNE01.JPG,AFNE01.JPG,,,,,,,,,,,,,2,9,29,6,,,,,,,,,,,AMNE18.jpg,AMSA02.jpg,AMNE06.jpg,AMSA15.jpg,AMSA02.jpg,MS,2,num_6,32,num_8,4.03319040127,,,2017_May_03_1106,60.0225436049,FEMA4ImagesEEG,001,200280,
AFNE01.JPG,AFNE01.JPG,AFNE01.JPG,AFNE01.JPG,AFNE01.JPG,AFNE01.JPG,,,,,,,,,,,,,3,0,30,1,,,,,,,,,,,AMSA19.jpg,AMNE09.jpg,AMNE13.jpg,AMSA14.jpg,AMNE13.jpg,MN,1,num_2,16,num_2,0.816674198722,,,2017_May_03_1106,60.0225436049,FEMA4ImagesEEG,001,200280,
AFNE01.JPG,AFNE01.JPG,AFNE01.JPG,AFNE01.JPG,AFNE01.JPG,AFNE01.JPG,,,,,,,,,,,,,3,1,31,7,,,,,,,,,,,AMNE13.jpg,AMSA19.jpg,AMSA06.jpg,AMNE18.jpg,AMSA06.jpg,MS,2,num_2,48,None,,,,2017_May_03_1106,60.0225436049,FEMA4ImagesEEG,001,200280,
AFNE01.JPG,AFNE01.JPG,AFNE01.JPG,AFNE01.JPG,AFNE01.JPG,AFNE01.JPG,,,,,,,,,,,,,3,2,32,0,,,,,,,,,,,AMSA05.jpg,AMNE14.jpg,AMNE03.jpg,AMSA09.jpg,AMSA09.jpg,MS,2,num_4,32,num_2,0.98345499509,,,2017_May_03_1106,60.0225436049,FEMA4ImagesEEG,001,200280,
AFNE01.JPG,AFNE01.JPG,AFNE01.JPG,AFNE01.JPG,AFNE01.JPG,AFNE01.JPG,,,,,,,,,,,,,3,3,33,5,,,,,,,,,,,AMNE15.jpg,AMNE10.jpg,AMSA13.jpg,AMSA17.jpg,AMNE10.jpg,MN,1,num_6,16,num_6,0.816811795812,,,2017_May_03_1106,60.0225436049,FEMA4ImagesEEG,001,200280,
AFNE01.JPG,AFNE01.JPG,AFNE01.JPG,AFNE01.JPG,AFNE01.JPG,AFNE01.JPG,,,,,,,,,,,,,3,4,34,9,,,,,,,,,,,AMSA18.jpg,AMNE06.jpg,AMSA02.jpg,AMNE01.jpg,AMSA02.jpg,MS,2,num_2,48,None,,,,2017_May_03_1106,60.0225436049,FEMA4ImagesEEG,001,200280,
AFNE01.JPG,AFNE01.JPG,AFNE01.JPG,AFNE01.JPG,AFNE01.JPG,AFNE01.JPG,,,,,,,,,,,,,3,5,35,8,,,,,,,,,,,AMNE12.jpg,AMSA16.jpg,AMNE10.jpg,AMSA07.jpg,AMSA16.jpg,MS,2,num_6,32,num_2,0.800101930974,,,2017_May_03_1106,60.0225436049,FEMA4ImagesEEG,001,200280,
AFNE01.JPG,AFNE01.JPG,AFNE01.JPG,AFNE01.JPG,AFNE01.JPG,AFNE01.JPG,,,,,,,,,,,,,3,6,36,2,,,,,,,,,,,AMSA10.jpg,AMSA20.jpg,AMNE14.jpg,AMNE07.jpg,AMNE07.jpg,MN,1,num_4,32,num_2,0.733502704883,,,2017_May_03_1106,60.0225436049,FEMA4ImagesEEG,001,200280,
AFNE01.JPG,AFNE01.JPG,AFNE01.JPG,AFNE01.JPG,AFNE01.JPG,AFNE01.JPG,,,,,,,,,,,,,3,7,37,6,,,,,,,,,,,AMNE10.jpg,AMSA09.jpg,AMSA11.jpg,AMNE05.jpg,AMNE10.jpg,MN,1,num_8,48,None,,,,2017_May_03_1106,60.0225436049,FEMA4ImagesEEG,001,200280,
AFNE01.JPG,AFNE01.JPG,AFNE01.JPG,AFNE01.JPG,AFNE01.JPG,AFNE01.JPG,,,,,,,,,,,,,3,8,38,4,,,,,,,,,,,AMNE07.jpg,AMSA18.jpg,AMNE02.jpg,AMSA17.jpg,AMSA17.jpg,MS,2,num_4,32,num_2,0.883433473529,,,2017_May_03_1106,60.0225436049,FEMA4ImagesEEG,001,200280,
AFNE01.JPG,AFNE01.JPG,AFNE01.JPG,AFNE01.JPG,AFNE01.JPG,AFNE01.JPG,,,,,,,,,,,,,3,9,39,3,,,,,,,,,,,AMNE17.jpg,AMSA07.jpg,AMSA10.jpg,AMNE14.jpg,AMNE17.jpg,MN,1,num_8,16,num_8,0.850112852175,,,2017_May_03_1106,60.0225436049,FEMA4ImagesEEG,001,200280,
AFNE01.JPG,AFNE01.JPG,AFNE01.JPG,AFNE01.JPG,AFNE01.JPG,AFNE01.JPG,,,,,,,,,,,,,4,0,40,3,,,,,,,,,,,AMNE06.jpg,AMNE02.jpg,AMSA18.jpg,AMSA05.jpg,AMSA18.jpg,MS,2,num_2,48,None,,,,2017_May_03_1106,60.0225436049,FEMA4ImagesEEG,001,200280,
AFNE01.JPG,AFNE01.JPG,AFNE01.JPG,AFNE01.JPG,AFNE01.JPG,AFNE01.JPG,,,,,,,,,,,,,4,1,41,5,,,,,,,,,,,AMNE18.jpg,AMNE19.jpg,AMSA19.jpg,AMSA02.jpg,AMNE18.jpg,MN,1,num_8,32,num_2,2.16671985574,,,2017_May_03_1106,60.0225436049,FEMA4ImagesEEG,001,200280,
AFNE01.JPG,AFNE01.JPG,AFNE01.JPG,AFNE01.JPG,AFNE01.JPG,AFNE01.JPG,,,,,,,,,,,,,4,2,42,4,,,,,,,,,,,AMSA06.jpg,AMNE11.jpg,AMNE18.jpg,AMSA16.jpg,AMNE11.jpg,MN,1,num_6,32,num_8,0.883487998974,,,2017_May_03_1106,60.0225436049,FEMA4ImagesEEG,001,200280,
AFNE01.JPG,AFNE01.JPG,AFNE01.JPG,AFNE01.JPG,AFNE01.JPG,AFNE01.JPG,,,,,,,,,,,,,4,3,43,6,,,,,,,,,,,AMSA06.jpg,AMNE13.jpg,AMSA13.jpg,AMNE10.jpg,AMSA06.jpg,MS,2,num_8,16,num_8,1.0000596575,,,2017_May_03_1106,60.0225436049,FEMA4ImagesEEG,001,200280,
AFNE01.JPG,AFNE01.JPG,AFNE01.JPG,AFNE01.JPG,AFNE01.JPG,AFNE01.JPG,,,,,,,,,,,,,4,4,44,8,,,,,,,,,,,AMSA12.jpg,AMNE18.jpg,AMNE08.jpg,AMSA03.jpg,AMNE08.jpg,MN,1,num_2,32,num_6,0.900151998037,,,2017_May_03_1106,60.0225436049,FEMA4ImagesEEG,001,200280,
AFNE01.JPG,AFNE01.JPG,AFNE01.JPG,AFNE01.JPG,AFNE01.JPG,AFNE01.JPG,,,,,,,,,,,,,4,5,45,0,,,,,,,,,,,AMSA04.jpg,AMSA19.jpg,AMNE03.jpg,AMNE19.jpg,AMSA19.jpg,MS,2,num_6,48,None,,,,2017_May_03_1106,60.0225436049,FEMA4ImagesEEG,001,200280,
AFNE01.JPG,AFNE01.JPG,AFNE01.JPG,AFNE01.JPG,AFNE01.JPG,AFNE01.JPG,,,,,,,,,,,,,4,6,46,1,,,,,,,,,,,AMNE14.jpg,AMSA02.jpg,AMNE17.jpg,AMSA09.jpg,AMNE14.jpg,MN,1,num_8,16,num_8,4.21650946699,,,2017_May_03_1106,60.0225436049,FEMA4ImagesEEG,001,200280,
AFNE01.JPG,AFNE01.JPG,AFNE01.JPG,AFNE01.JPG,AFNE01.JPG,AFNE01.JPG,,,,,,,,,,,,,4,7,47,9,,,,,,,,,,,AMNE17.jpg,AMNE06.jpg,AMSA05.jpg,AMSA13.jpg,AMNE17.jpg,MN,1,num_8,32,num_4,1.41683123261,,,2017_May_03_1106,60.0225436049,FEMA4ImagesEEG,001,200280,
AFNE01.JPG,AFNE01.JPG,AFNE01.JPG,AFNE01.JPG,AFNE01.JPG,AFNE01.JPG,,,,,,,,,,,,,4,8,48,7,,,,,,,,,,,AMSA17.jpg,AMNE19.jpg,AMNE04.jpg,AMSA18.jpg,AMNE19.jpg,MN,1,num_6,32,num_2,0.933596104151,,,2017_May_03_1106,60.0225436049,FEMA4ImagesEEG,001,200280,
AFNE01.JPG,AFNE01.JPG,AFNE01.JPG,AFNE01.JPG,AFNE01.JPG,AFNE01.JPG,,,,,,,,,,,,,4,9,49,2,,,,,,,,,,,AMSA13.jpg,AMNE03.jpg,AMSA01.jpg,AMNE20.jpg,AMNE03.jpg,MN,1,num_6,32,num_8,0.966655323282,,,2017_May_03_1106,60.0225436049,FEMA4ImagesEEG,001,200280,
AFNE01.JPG,AFNE01.JPG,AFNE01.JPG,AFNE01.JPG,AFNE01.JPG,AFNE01.JPG,,,,,,,,,,,,,5,0,50,3,,,,,,,,,,,AMSA01.jpg,AMNE20.jpg,AMNE19.jpg,AMSA18.jpg,AMSA01.jpg,MS,2,num_8,16,num_8,1.63333075657,,,2017_May_03_1106,60.0225436049,FEMA4ImagesEEG,001,200280,
AFNE01.JPG,AFNE01.JPG,AFNE01.JPG,AFNE01.JPG,AFNE01.JPG,AFNE01.JPG,,,,,,,,,,,,,5,1,51,1,,,,,,,,,,,AMSA05.jpg,AMNE08.jpg,AMSA10.jpg,AMNE19.jpg,AMSA05.jpg,MS,2,num_8,32,num_2,0.950032057939,,,2017_May_03_1106,60.0225436049,FEMA4ImagesEEG,001,200280,
AFNE01.JPG,AFNE01.JPG,AFNE01.JPG,AFNE01.JPG,AFNE01.JPG,AFNE01.JPG,,,,,,,,,,,,,5,2,52,2,,,,,,,,,,,AMSA02.jpg,AMSA05.jpg,AMNE04.jpg,AMNE06.jpg,AMSA05.jpg,MS,2,num_6,32,num_8,3.39990743482,,,2017_May_03_1106,60.0225436049,FEMA4ImagesEEG,001,200280,
AFNE01.JPG,AFNE01.JPG,AFNE01.JPG,AFNE01.JPG,AFNE01.JPG,AFNE01.JPG,,,,,,,,,,,,,5,3,53,9,,,,,,,,,,,AMSA07.jpg,AMNE18.jpg,AMSA13.jpg,AMNE09.jpg,AMSA07.jpg,MS,2,num_8,32,num_2,0.816773307044,,,2017_May_03_1106,60.0225436049,FEMA4ImagesEEG,001,200280,
AFNE01.JPG,AFNE01.JPG,AFNE01.JPG,AFNE01.JPG,AFNE01.JPG,AFNE01.JPG,,,,,,,,,,,,,5,4,54,5,,,,,,,,,,,AMSA12.jpg,AMNE14.jpg,AMSA15.jpg,AMNE20.jpg,AMNE14.jpg,MN,1,num_6,32,num_8,0.816726478981,,,2017_May_03_1106,60.0225436049,FEMA4ImagesEEG,001,200280,
AFNE01.JPG,AFNE01.JPG,AFNE01.JPG,AFNE01.JPG,AFNE01.JPG,AFNE01.JPG,,,,,,,,,,,,,5,5,55,8,,,,,,,,,,,AMNE09.jpg,AMSA09.jpg,AMNE06.jpg,AMSA20.jpg,AMSA20.jpg,MS,2,num_4,32,num_8,0.850133058615,,,2017_May_03_1106,60.0225436049,FEMA4ImagesEEG,001,200280,
AFNE01.JPG,AFNE01.JPG,AFNE01.JPG,AFNE01.JPG,AFNE01.JPG,AFNE01.JPG,,,,,,,,,,,,,5,6,56,7,,,,,,,,,,,AMSA09.jpg,AMSA18.jpg,AMNE05.jpg,AMNE12.jpg,AMSA18.jpg,MS,2,num_6,32,num_8,4.64977665339,,,2017_May_03_1106,60.0225436049,FEMA4ImagesEEG,001,200280,
AFNE01.JPG,AFNE01.JPG,AFNE01.JPG,AFNE01.JPG,AFNE01.JPG,AFNE01.JPG,,,,,,,,,,,,,5,7,57,4,,,,,,,,,,,AMSA05.jpg,AMNE10.jpg,AMNE13.jpg,AMSA13.jpg,AMSA13.jpg,MS,2,num_4,32,num_8,1.06674099248,,,2017_May_03_1106,60.0225436049,FEMA4ImagesEEG,001,200280,
AFNE01.JPG,AFNE01.JPG,AFNE01.JPG,AFNE01.JPG,AFNE01.JPG,AFNE01.JPG,,,,,,,,,,,,,5,8,58,6,,,,,,,,,,,AMSA04.jpg,AMSA19.jpg,AMNE15.jpg,AMNE19.jpg,AMSA04.jpg,MS,2,num_8,16,num_8,1.38343363372,,,2017_May_03_1106,60.0225436049,FEMA4ImagesEEG,001,200280,
AFNE01.JPG,AFNE01.JPG,AFNE01.JPG,AFNE01.JPG,AFNE01.JPG,AFNE01.JPG,,,,,,,,,,,,,5,9,59,0,,,,,,,,,,,AMNE02.jpg,AMSA07.jpg,AMNE19.jpg,AMSA06.jpg,AMNE02.jpg,MN,1,num_8,16,num_8,3.8665433533,,,2017_May_03_1106,60.0225436049,FEMA4ImagesEEG,001,200280,
,,,,,,,,,,,,,,,,,,,,,,,,,,,,,,,,,,,,,,,,,,,space,3.16662363405,2017_May_03_1106,60.0225436049,FEMA4ImagesEEG,001,200280,
AFNE01.JPG,AFNE01.JPG,AFNE01.JPG,AFNE01.JPG,AFNE01.JPG,AFNE01.JPG,,,,,,,,,,,,,,,,,0,0,0,6,,,,,,,AFSA06.jpg,AFNE07.jpg,AFSA14.jpg,AFNE01.jpg,AFSA06.jpg,FS,4,num_8,16,num_8,0.866753757931,,,2017_May_03_1106,60.0225436049,FEMA4ImagesEEG,001,200280,
AFNE01.JPG,AFNE01.JPG,AFNE01.JPG,AFNE01.JPG,AFNE01.JPG,AFNE01.JPG,,,,,,,,,,,,,,,,,0,1,1,7,,,,,,,AFNE02.jpg,AFSA14.jpg,AFNE11.jpg,AFSA07.jpg,AFNE11.jpg,FN,3,num_2,32,num_8,1.31674075196,,,2017_May_03_1106,60.0225436049,FEMA4ImagesEEG,001,200280,
AFNE01.JPG,AFNE01.JPG,AFNE01.JPG,AFNE01.JPG,AFNE01.JPG,AFNE01.JPG,,,,,,,,,,,,,,,,,0,2,2,9,,,,,,,AFNE02.jpg,AFSA07.jpg,AFNE12.jpg,AFSA20.jpg,AFNE02.jpg,FN,3,num_8,32,num_2,0.683394920779,,,2017_May_03_1106,60.0225436049,FEMA4ImagesEEG,001,200280,
AFNE01.JPG,AFNE01.JPG,AFNE01.JPG,AFNE01.JPG,AFNE01.JPG,AFNE01.JPG,,,,,,,,,,,,,,,,,0,3,3,8,,,,,,,AFNE20.jpg,AFSA11.jpg,AFSA16.jpg,AFNE06.jpg,AFSA16.jpg,FS,4,num_2,32,num_6,1.01675925869,,,2017_May_03_1106,60.0225436049,FEMA4ImagesEEG,001,200280,
AFNE01.JPG,AFNE01.JPG,AFNE01.JPG,AFNE01.JPG,AFNE01.JPG,AFNE01.JPG,,,,,,,,,,,,,,,,,0,4,4,0,,,,,,,AFSA08.jpg,AFNE02.jpg,AFNE07.jpg,AFSA16.jpg,AFNE07.jpg,FN,3,num_2,32,num_8,0.900133395335,,,2017_May_03_1106,60.0225436049,FEMA4ImagesEEG,001,200280,
AFNE01.JPG,AFNE01.JPG,AFNE01.JPG,AFNE01.JPG,AFNE01.JPG,AFNE01.JPG,,,,,,,,,,,,,,,,,0,5,5,2,,,,,,,AFNE02.jpg,AFNE05.jpg,AFSA13.jpg,AFSA10.jpg,AFSA13.jpg,FS,4,num_2,32,num_8,3.79989312962,,,2017_May_03_1106,60.0225436049,FEMA4ImagesEEG,001,200280,
AFNE01.JPG,AFNE01.JPG,AFNE01.JPG,AFNE01.JPG,AFNE01.JPG,AFNE01.JPG,,,,,,,,,,,,,,,,,0,6,6,5,,,,,,,AFNE06.jpg,AFSA03.jpg,AFNE11.jpg,AFSA01.jpg,AFNE11.jpg,FN,3,num_2,16,num_2,1.80005831039,,,2017_May_03_1106,60.0225436049,FEMA4ImagesEEG,001,200280,
AFNE01.JPG,AFNE01.JPG,AFNE01.JPG,AFNE01.JPG,AFNE01.JPG,AFNE01.JPG,,,,,,,,,,,,,,,,,0,7,7,3,,,,,,,AFNE05.jpg,AFSA18.jpg,AFSA05.jpg,AFNE20.jpg,AFSA05.jpg,FS,4,num_2,16,num_2,0.600135865156,,,2017_May_03_1106,60.0225436049,FEMA4ImagesEEG,001,200280,
AFNE01.JPG,AFNE01.JPG,AFNE01.JPG,AFNE01.JPG,AFNE01.JPG,AFNE01.JPG,,,,,,,,,,,,,,,,,0,8,8,1,,,,,,,AFSA11.jpg,AFNE10.jpg,AFSA18.jpg,AFNE20.jpg,AFSA11.jpg,FS,4,num_8,16,num_8,1.46659903345,,,2017_May_03_1106,60.0225436049,FEMA4ImagesEEG,001,200280,
AFNE01.JPG,AFNE01.JPG,AFNE01.JPG,AFNE01.JPG,AFNE01.JPG,AFNE01.JPG,,,,,,,,,,,,,,,,,0,9,9,4,,,,,,,AFSA17.jpg,AFNE16.jpg,AFSA04.jpg,AFNE02.jpg,AFSA17.jpg,FS,4,num_8,32,num_4,0.86681277398,,,2017_May_03_1106,60.0225436049,FEMA4ImagesEEG,001,200280,
AFNE01.JPG,AFNE01.JPG,AFNE01.JPG,AFNE01.JPG,AFNE01.JPG,AFNE01.JPG,,,,,,,,,,,,,,,,,1,0,10,4,,,,,,,AFSA18.jpg,AFNE07.jpg,AFNE19.jpg,AFSA17.jpg,AFSA18.jpg,FS,4,num_8,16,num_8,0.783683297224,,,2017_May_03_1106,60.0225436049,FEMA4ImagesEEG,001,200280,
AFNE01.JPG,AFNE01.JPG,AFNE01.JPG,AFNE01.JPG,AFNE01.JPG,AFNE01.JPG,,,,,,,,,,,,,,,,,1,1,11,6,,,,,,,AFNE20.jpg,AFSA16.jpg,AFNE09.jpg,AFSA02.jpg,AFSA16.jpg,FS,4,num_6,32,num_8,1.31672439422,,,2017_May_03_1106,60.0225436049,FEMA4ImagesEEG,001,200280,
AFNE01.JPG,AFNE01.JPG,AFNE01.JPG,AFNE01.JPG,AFNE01.JPG,AFNE01.JPG,,,,,,,,,,,,,,,,,1,2,12,2,,,,,,,AFNE01.jpg,AFSA05.jpg,AFSA12.jpg,AFNE09.jpg,AFNE01.jpg,FN,3,num_8,32,num_2,1.11677436554,,,2017_May_03_1106,60.0225436049,FEMA4ImagesEEG,001,200280,
AFNE01.JPG,AFNE01.JPG,AFNE01.JPG,AFNE01.JPG,AFNE01.JPG,AFNE01.JPG,,,,,,,,,,,,,,,,,1,3,13,3,,,,,,,AFSA17.jpg,AFNE11.jpg,AFNE07.jpg,AFSA06.jpg,AFSA17.jpg,FS,4,num_8,16,num_8,0.800095195416,,,2017_May_03_1106,60.0225436049,FEMA4ImagesEEG,001,200280,
AFNE01.JPG,AFNE01.JPG,AFNE01.JPG,AFNE01.JPG,AFNE01.JPG,AFNE01.JPG,,,,,,,,,,,,,,,,,1,4,14,1,,,,,,,AFNE20.jpg,AFSA01.jpg,AFNE08.jpg,AFSA06.jpg,AFNE08.jpg,FN,3,num_2,32,num_8,2.91696161311,,,2017_May_03_1106,60.0225436049,FEMA4ImagesEEG,001,200280,
AFNE01.JPG,AFNE01.JPG,AFNE01.JPG,AFNE01.JPG,AFNE01.JPG,AFNE01.JPG,,,,,,,,,,,,,,,,,1,5,15,7,,,,,,,AFNE08.jpg,AFSA10.jpg,AFNE01.jpg,AFSA03.jpg,AFSA10.jpg,FS,4,num_6,48,None,,,,2017_May_03_1106,60.0225436049,FEMA4ImagesEEG,001,200280,
AFNE01.JPG,AFNE01.JPG,AFNE01.JPG,AFNE01.JPG,AFNE01.JPG,AFNE01.JPG,,,,,,,,,,,,,,,,,1,6,16,9,,,,,,,AFNE11.jpg,AFNE17.jpg,AFSA08.jpg,AFSA13.jpg,AFNE17.jpg,FN,3,num_6,32,num_8,0.633510049898,,,2017_May_03_1106,60.0225436049,FEMA4ImagesEEG,001,200280,
AFNE01.JPG,AFNE01.JPG,AFNE01.JPG,AFNE01.JPG,AFNE01.JPG,AFNE01.JPG,,,,,,,,,,,,,,,,,1,7,17,5,,,,,,,AFSA05.jpg,AFNE06.jpg,AFSA12.jpg,AFNE12.jpg,AFNE12.jpg,FN,3,num_4,32,num_2,0.983461730648,,,2017_May_03_1106,60.0225436049,FEMA4ImagesEEG,001,200280,
AFNE01.JPG,AFNE01.JPG,AFNE01.JPG,AFNE01.JPG,AFNE01.JPG,AFNE01.JPG,,,,,,,,,,,,,,,,,1,8,18,0,,,,,,,AFNE16.jpg,AFNE12.jpg,AFSA20.jpg,AFSA02.jpg,AFNE16.jpg,FN,3,num_8,16,num_8,0.716795726679,,,2017_May_03_1106,60.0225436049,FEMA4ImagesEEG,001,200280,
AFNE01.JPG,AFNE01.JPG,AFNE01.JPG,AFNE01.JPG,AFNE01.JPG,AFNE01.JPG,,,,,,,,,,,,,,,,,1,9,19,8,,,,,,,AFNE20.jpg,AFSA19.jpg,AFSA05.jpg,AFNE05.jpg,AFNE20.jpg,FN,3,num_8,32,num_4,0.816807626281,,,2017_May_03_1106,60.0225436049,FEMA4ImagesEEG,001,200280,
AFNE01.JPG,AFNE01.JPG,AFNE01.JPG,AFNE01.JPG,AFNE01.JPG,AFNE01.JPG,,,,,,,,,,,,,,,,,2,0,20,9,,,,,,,AFSA02.jpg,AFNE02.jpg,AFNE04.jpg,AFSA04.jpg,AFNE04.jpg,FN,3,num_2,32,num_6,1.31672086637,,,2017_May_03_1106,60.0225436049,FEMA4ImagesEEG,001,200280,
AFNE01.JPG,AFNE01.JPG,AFNE01.JPG,AFNE01.JPG,AFNE01.JPG,AFNE01.JPG,,,,,,,,,,,,,,,,,2,1,21,4,,,,,,,AFSA05.jpg,AFNE11.jpg,AFSA08.jpg,AFNE07.jpg,AFNE11.jpg,FN,3,num_6,16,num_6,2.73329614918,,,2017_May_03_1106,60.0225436049,FEMA4ImagesEEG,001,200280,
AFNE01.JPG,AFNE01.JPG,AFNE01.JPG,AFNE01.JPG,AFNE01.JPG,AFNE01.JPG,,,,,,,,,,,,,,,,,2,2,22,6,,,,,,,AFSA11.jpg,AFSA06.jpg,AFNE15.jpg,AFNE02.jpg,AFSA11.jpg,FS,4,num_8,16,num_8,0.600086471299,,,2017_May_03_1106,60.0225436049,FEMA4ImagesEEG,001,200280,
AFNE01.JPG,AFNE01.JPG,AFNE01.JPG,AFNE01.JPG,AFNE01.JPG,AFNE01.JPG,,,,,,,,,,,,,,,,,2,3,23,0,,,,,,,AFNE20.jpg,AFNE05.jpg,AFSA18.jpg,AFSA12.jpg,AFSA12.jpg,FS,4,num_4,16,num_4,0.683474784717,,,2017_May_03_1106,60.0225436049,FEMA4ImagesEEG,001,200280,
AFNE01.JPG,AFNE01.JPG,AFNE01.JPG,AFNE01.JPG,AFNE01.JPG,AFNE01.JPG,,,,,,,,,,,,,,,,,2,4,24,5,,,,,,,AFSA05.jpg,AFSA08.jpg,AFNE14.jpg,AFNE10.jpg,AFNE10.jpg,FN,3,num_4,32,num_6,0.133484230377,,,2017_May_03_1106,60.0225436049,FEMA4ImagesEEG,001,200280,
AFNE01.JPG,AFNE01.JPG,AFNE01.JPG,AFNE01.JPG,AFNE01.JPG,AFNE01.JPG,,,,,,,,,,,,,,,,,2,5,25,2,,,,,,,AFSA01.jpg,AFNE01.jpg,AFNE03.jpg,AFSA09.jpg,AFNE01.jpg,FN,3,num_6,16,num_6,0.716788991122,,,2017_May_03_1106,60.0225436049,FEMA4ImagesEEG,001,200280,
AFNE01.JPG,AFNE01.JPG,AFNE01.JPG,AFNE01.JPG,AFNE01.JPG,AFNE01.JPG,,,,,,,,,,,,,,,,,2,6,26,7,,,,,,,AFNE07.jpg,AFSA08.jpg,AFNE16.jpg,AFSA02.jpg,AFNE07.jpg,FN,3,num_8,16,num_8,0.600138110109,,,2017_May_03_1106,60.0225436049,FEMA4ImagesEEG,001,200280,
AFNE01.JPG,AFNE01.JPG,AFNE01.JPG,AFNE01.JPG,AFNE01.JPG,AFNE01.JPG,,,,,,,,,,,,,,,,,2,7,27,3,,,,,,,AFNE14.jpg,AFNE19.jpg,AFSA02.jpg,AFSA07.jpg,AFNE19.jpg,FN,3,num_6,32,num_2,1.116636127,,,2017_May_03_1106,60.0225436049,FEMA4ImagesEEG,001,200280,
AFNE01.JPG,AFNE01.JPG,AFNE01.JPG,AFNE01.JPG,AFNE01.JPG,AFNE01.JPG,,,,,,,,,,,,,,,,,2,8,28,8,,,,,,,AFNE15.jpg,AFSA01.jpg,AFSA10.jpg,AFNE19.jpg,AFNE19.jpg,FN,3,num_4,48,None,,,,2017_May_03_1106,60.0225436049,FEMA4ImagesEEG,001,200280,
AFNE01.JPG,AFNE01.JPG,AFNE01.JPG,AFNE01.JPG,AFNE01.JPG,AFNE01.JPG,,,,,,,,,,,,,,,,,2,9,29,1,,,,,,,AFNE07.jpg,AFNE01.jpg,AFSA13.jpg,AFSA12.jpg,AFNE07.jpg,FN,3,num_8,32,num_2,2.36666186643,,,2017_May_03_1106,60.0225436049,FEMA4ImagesEEG,001,200280,
AFNE01.JPG,AFNE01.JPG,AFNE01.JPG,AFNE01.JPG,AFNE01.JPG,AFNE01.JPG,,,,,,,,,,,,,,,,,3,0,30,0,,,,,,,AFNE12.jpg,AFNE02.jpg,AFSA06.jpg,AFSA09.jpg,AFSA06.jpg,FS,4,num_2,32,num_6,0.633523841621,,,2017_May_03_1106,60.0225436049,FEMA4ImagesEEG,001,200280,
AFNE01.JPG,AFNE01.JPG,AFNE01.JPG,AFNE01.JPG,AFNE01.JPG,AFNE01.JPG,,,,,,,,,,,,,,,,,3,1,31,3,,,,,,,AFNE07.jpg,AFNE04.jpg,AFSA20.jpg,AFSA09.jpg,AFSA09.jpg,FS,4,num_4,32,num_8,1.30012101494,,,2017_May_03_1106,60.0225436049,FEMA4ImagesEEG,001,200280,
AFNE01.JPG,AFNE01.JPG,AFNE01.JPG,AFNE01.JPG,AFNE01.JPG,AFNE01.JPG,,,,,,,,,,,,,,,,,3,2,32,4,,,,,,,AFSA16.jpg,AFSA03.jpg,AFNE06.jpg,AFNE05.jpg,AFNE06.jpg,FN,3,num_2,48,None,,,,2017_May_03_1106,60.0225436049,FEMA4ImagesEEG,001,200280,
AFNE01.JPG,AFNE01.JPG,AFNE01.JPG,AFNE01.JPG,AFNE01.JPG,AFNE01.JPG,,,,,,,,,,,,,,,,,3,3,33,1,,,,,,,AFNE11.jpg,AFNE19.jpg,AFSA02.jpg,AFSA14.jpg,AFSA14.jpg,FS,4,num_4,16,num_4,0.683594420319,,,2017_May_03_1106,60.0225436049,FEMA4ImagesEEG,001,200280,
AFNE01.JPG,AFNE01.JPG,AFNE01.JPG,AFNE01.JPG,AFNE01.JPG,AFNE01.JPG,,,,,,,,,,,,,,,,,3,4,34,6,,,,,,,AFNE17.jpg,AFSA16.jpg,AFSA09.jpg,AFNE05.jpg,AFSA16.jpg,FS,4,num_6,32,num_8,0.700151934056,,,2017_May_03_1106,60.0225436049,FEMA4ImagesEEG,001,200280,
AFNE01.JPG,AFNE01.JPG,AFNE01.JPG,AFNE01.JPG,AFNE01.JPG,AFNE01.JPG,,,,,,,,,,,,,,,,,3,5,35,8,,,,,,,AFNE19.jpg,AFNE17.jpg,AFSA04.jpg,AFSA20.jpg,AFNE17.jpg,FN,3,num_6,48,None,,,,2017_May_03_1106,60.0225436049,FEMA4ImagesEEG,001,200280,
AFNE01.JPG,AFNE01.JPG,AFNE01.JPG,AFNE01.JPG,AFNE01.JPG,AFNE01.JPG,,,,,,,,,,,,,,,,,3,6,36,9,,,,,,,AFSA20.jpg,AFSA19.jpg,AFNE01.jpg,AFNE14.jpg,AFSA19.jpg,FS,4,num_6,16,num_6,1.08340306743,,,2017_May_03_1106,60.0225436049,FEMA4ImagesEEG,001,200280,
AFNE01.JPG,AFNE01.JPG,AFNE01.JPG,AFNE01.JPG,AFNE01.JPG,AFNE01.JPG,,,,,,,,,,,,,,,,,3,7,37,2,,,,,,,AFNE18.jpg,AFNE15.jpg,AFSA08.jpg,AFSA19.jpg,AFNE18.jpg,FN,3,num_8,16,num_8,0.800149400253,,,2017_May_03_1106,60.0225436049,FEMA4ImagesEEG,001,200280,
AFNE01.JPG,AFNE01.JPG,AFNE01.JPG,AFNE01.JPG,AFNE01.JPG,AFNE01.JPG,,,,,,,,,,,,,,,,,3,8,38,5,,,,,,,AFSA11.jpg,AFNE01.jpg,AFSA17.jpg,AFNE12.jpg,AFNE01.jpg,FN,3,num_6,48,None,,,,2017_May_03_1106,60.0225436049,FEMA4ImagesEEG,001,200280,
AFNE01.JPG,AFNE01.JPG,AFNE01.JPG,AFNE01.JPG,AFNE01.JPG,AFNE01.JPG,,,,,,,,,,,,,,,,,3,9,39,7,,,,,,,AFNE20.jpg,AFNE19.jpg,AFSA04.jpg,AFSA02.jpg,AFNE19.jpg,FN,3,num_6,32,num_8,0.650067242794,,,2017_May_03_1106,60.0225436049,FEMA4ImagesEEG,001,200280,
AFNE01.JPG,AFNE01.JPG,AFNE01.JPG,AFNE01.JPG,AFNE01.JPG,AFNE01.JPG,,,,,,,,,,,,,,,,,4,0,40,6,,,,,,,AFSA12.jpg,AFNE16.jpg,AFSA04.jpg,AFNE03.jpg,AFNE16.jpg,FN,3,num_6,16,num_6,0.70012306748,,,2017_May_03_1106,60.0225436049,FEMA4ImagesEEG,001,200280,
AFNE01.JPG,AFNE01.JPG,AFNE01.JPG,AFNE01.JPG,AFNE01.JPG,AFNE01.JPG,,,,,,,,,,,,,,,,,4,1,41,4,,,,,,,AFNE18.jpg,AFNE07.jpg,AFSA01.jpg,AFSA11.jpg,AFSA11.jpg,FS,4,num_4,32,num_8,0.700124029769,,,2017_May_03_1106,60.0225436049,FEMA4ImagesEEG,001,200280,
AFNE01.JPG,AFNE01.JPG,AFNE01.JPG,AFNE01.JPG,AFNE01.JPG,AFNE01.JPG,,,,,,,,,,,,,,,,,4,2,42,2,,,,,,,AFSA12.jpg,AFNE01.jpg,AFSA13.jpg,AFNE12.jpg,AFNE01.jpg,FN,3,num_6,32,num_4,0.700085861841,,,2017_May_03_1106,60.0225436049,FEMA4ImagesEEG,001,200280,
AFNE01.JPG,AFNE01.JPG,AFNE01.JPG,AFNE01.JPG,AFNE01.JPG,AFNE01.JPG,,,,,,,,,,,,,,,,,4,3,43,5,,,,,,,AFNE17.jpg,AFSA02.jpg,AFSA08.jpg,AFNE18.jpg,AFSA02.jpg,FS,4,num_6,48,None,,,,2017_May_03_1106,60.0225436049,FEMA4ImagesEEG,001,200280,
AFNE01.JPG,AFNE01.JPG,AFNE01.JPG,AFNE01.JPG,AFNE01.JPG,AFNE01.JPG,,,,,,,,,,,,,,,,,4,4,44,3,,,,,,,AFSA01.jpg,AFNE13.jpg,AFSA08.jpg,AFNE01.jpg,AFNE01.jpg,FN,3,num_4,32,num_6,0.733518100576,,,2017_May_03_1106,60.0225436049,FEMA4ImagesEEG,001,200280,
AFNE01.JPG,AFNE01.JPG,AFNE01.JPG,AFNE01.JPG,AFNE01.JPG,AFNE01.JPG,,,,,,,,,,,,,,,,,4,5,45,1,,,,,,,AFSA09.jpg,AFNE13.jpg,AFSA08.jpg,AFNE03.jpg,AFNE13.jpg,FN,3,num_6,32,num_2,0.500150586944,,,2017_May_03_1106,60.0225436049,FEMA4ImagesEEG,001,200280,
AFNE01.JPG,AFNE01.JPG,AFNE01.JPG,AFNE01.JPG,AFNE01.JPG,AFNE01.JPG,,,,,,,,,,,,,,,,,4,6,46,8,,,,,,,AFNE10.jpg,AFSA06.jpg,AFSA13.jpg,AFNE06.jpg,AFNE06.jpg,FN,3,num_4,32,num_6,0.983317718608,,,2017_May_03_1106,60.0225436049,FEMA4ImagesEEG,001,200280,
AFNE01.JPG,AFNE01.JPG,AFNE01.JPG,AFNE01.JPG,AFNE01.JPG,AFNE01.JPG,,,,,,,,,,,,,,,,,4,7,47,9,,,,,,,AFNE01.jpg,AFSA10.jpg,AFSA13.jpg,AFNE04.jpg,AFNE01.jpg,FN,3,num_8,16,num_8,3.59991391376,,,2017_May_03_1106,60.0225436049,FEMA4ImagesEEG,001,200280,
AFNE01.JPG,AFNE01.JPG,AFNE01.JPG,AFNE01.JPG,AFNE01.JPG,AFNE01.JPG,,,,,,,,,,,,,,,,,4,8,48,0,,,,,,,AFSA14.jpg,AFSA18.jpg,AFNE19.jpg,AFNE03.jpg,AFSA18.jpg,FS,4,num_6,16,num_6,4.86686377134,,,2017_May_03_1106,60.0225436049,FEMA4ImagesEEG,001,200280,
AFNE01.JPG,AFNE01.JPG,AFNE01.JPG,AFNE01.JPG,AFNE01.JPG,AFNE01.JPG,,,,,,,,,,,,,,,,,4,9,49,7,,,,,,,AFSA11.jpg,AFSA19.jpg,AFNE10.jpg,AFNE19.jpg,AFSA11.jpg,FS,4,num_8,16,num_8,0.500170472777,,,2017_May_03_1106,60.0225436049,FEMA4ImagesEEG,001,200280,
AFNE01.JPG,AFNE01.JPG,AFNE01.JPG,AFNE01.JPG,AFNE01.JPG,AFNE01.JPG,,,,,,,,,,,,,,,,,5,0,50,1,,,,,,,AFNE10.jpg,AFSA19.jpg,AFNE04.jpg,AFSA18.jpg,AFNE10.jpg,FN,3,num_8,48,None,,,,2017_May_03_1106,60.0225436049,FEMA4ImagesEEG,001,200280,
AFNE01.JPG,AFNE01.JPG,AFNE01.JPG,AFNE01.JPG,AFNE01.JPG,AFNE01.JPG,,,,,,,,,,,,,,,,,5,1,51,3,,,,,,,AFNE08.jpg,AFSA11.jpg,AFNE13.jpg,AFSA18.jpg,AFSA11.jpg,FS,4,num_6,32,num_8,0.666763636982,,,2017_May_03_1106,60.0225436049,FEMA4ImagesEEG,001,200280,
AFNE01.JPG,AFNE01.JPG,AFNE01.JPG,AFNE01.JPG,AFNE01.JPG,AFNE01.JPG,,,,,,,,,,,,,,,,,5,2,52,9,,,,,,,AFSA18.jpg,AFNE06.jpg,AFSA09.jpg,AFNE09.jpg,AFSA18.jpg,FS,4,num_8,16,num_8,0.500209282385,,,2017_May_03_1106,60.0225436049,FEMA4ImagesEEG,001,200280,
AFNE01.JPG,AFNE01.JPG,AFNE01.JPG,AFNE01.JPG,AFNE01.JPG,AFNE01.JPG,,,,,,,,,,,,,,,,,5,3,53,0,,,,,,,AFSA16.jpg,AFSA01.jpg,AFNE07.jpg,AFNE05.jpg,AFSA16.jpg,FS,4,num_8,16,num_8,4.58323644358,,,2017_May_03_1106,60.0225436049,FEMA4ImagesEEG,001,200280,
AFNE01.JPG,AFNE01.JPG,AFNE01.JPG,AFNE01.JPG,AFNE01.JPG,AFNE01.JPG,,,,,,,,,,,,,,,,,5,4,54,7,,,,,,,AFSA09.jpg,AFNE12.jpg,AFSA16.jpg,AFNE03.jpg,AFSA09.jpg,FS,4,num_8,32,num_4,0.533590844134,,,2017_May_03_1106,60.0225436049,FEMA4ImagesEEG,001,200280,
AFNE01.JPG,AFNE01.JPG,AFNE01.JPG,AFNE01.JPG,AFNE01.JPG,AFNE01.JPG,,,,,,,,,,,,,,,,,5,5,55,4,,,,,,,AFSA15.jpg,AFNE14.jpg,AFNE13.jpg,AFSA17.jpg,AFSA17.jpg,FS,4,num_4,32,num_8,1.61669626553,,,2017_May_03_1106,60.0225436049,FEMA4ImagesEEG,001,200280,
AFNE01.JPG,AFNE01.JPG,AFNE01.JPG,AFNE01.JPG,AFNE01.JPG,AFNE01.JPG,,,,,,,,,,,,,,,,,5,6,56,6,,,,,,,AFNE06.jpg,AFNE10.jpg,AFSA01.jpg,AFSA14.jpg,AFNE06.jpg,FN,3,num_8,32,num_6,0.300151805859,,,2017_May_03_1106,60.0225436049,FEMA4ImagesEEG,001,200280,
AFNE01.JPG,AFNE01.JPG,AFNE01.JPG,AFNE01.JPG,AFNE01.JPG,AFNE01.JPG,,,,,,,,,,,,,,,,,5,7,57,5,,,,,,,AFNE05.jpg,AFSA05.jpg,AFSA07.jpg,AFNE06.jpg,AFNE05.jpg,FN,3,num_8,16,num_8,1.08342808508,,,2017_May_03_1106,60.0225436049,FEMA4ImagesEEG,001,200280,
AFNE01.JPG,AFNE01.JPG,AFNE01.JPG,AFNE01.JPG,AFNE01.JPG,AFNE01.JPG,,,,,,,,,,,,,,,,,5,8,58,8,,,,,,,AFNE10.jpg,AFSA09.jpg,AFSA06.jpg,AFNE16.jpg,AFSA09.jpg,FS,4,num_6,32,num_2,1.10011164937,,,2017_May_03_1106,60.0225436049,FEMA4ImagesEEG,001,200280,
AFNE01.JPG,AFNE01.JPG,AFNE01.JPG,AFNE01.JPG,AFNE01.JPG,AFNE01.JPG,,,,,,,,,,,,,,,,,5,9,59,2,,,,,,,AFNE10.jpg,AFNE03.jpg,AFSA11.jpg,AFSA20.jpg,AFSA11.jpg,FS,4,num_2,16,num_2,0.500114343595,,,2017_May_03_1106,60.0225436049,FEMA4ImagesEEG,001,200280,
,,,,,,,,,,,,,,,,,,,,,,,,,,,,,,,,,,,,,,,,,,,space,9.13281548931,2017_May_03_1106,60.0225436049,FEMA4ImagesEEG,001,200280,
AFNE01.JPG,AFNE01.JPG,AFNE01.JPG,AFNE01.JPG,AFNE01.JPG,AFNE01.JPG,,,,,,,,,,,,,,,,,,,,,0,0,0,4,,,AMNE11.jpg,AMSA11.jpg,AMNE01.jpg,AMSA18.jpg,AMNE11.jpg,MN,1,num_8,32,num_2,0.933467487805,,,2017_May_03_1106,60.0225436049,FEMA4ImagesEEG,001,200280,
AFNE01.JPG,AFNE01.JPG,AFNE01.JPG,AFNE01.JPG,AFNE01.JPG,AFNE01.JPG,,,,,,,,,,,,,,,,,,,,,0,1,1,2,,,AMNE03.jpg,AMSA09.jpg,AMSA03.jpg,AMNE04.jpg,AMSA03.jpg,MS,2,num_2,32,num_6,0.983456598595,,,2017_May_03_1106,60.0225436049,FEMA4ImagesEEG,001,200280,
AFNE01.JPG,AFNE01.JPG,AFNE01.JPG,AFNE01.JPG,AFNE01.JPG,AFNE01.JPG,,,,,,,,,,,,,,,,,,,,,0,2,2,6,,,AMSA11.jpg,AMNE17.jpg,AMNE09.jpg,AMSA12.jpg,AMNE17.jpg,MN,1,num_6,48,None,,,,2017_May_03_1106,60.0225436049,FEMA4ImagesEEG,001,200280,
AFNE01.JPG,AFNE01.JPG,AFNE01.JPG,AFNE01.JPG,AFNE01.JPG,AFNE01.JPG,,,,,,,,,,,,,,,,,,,,,0,3,3,3,,,AMSA14.jpg,AMNE07.jpg,AMSA08.jpg,AMNE16.jpg,AMNE07.jpg,MN,1,num_6,32,num_8,1.24965368211,,,2017_May_03_1106,60.0225436049,FEMA4ImagesEEG,001,200280,
AFNE01.JPG,AFNE01.JPG,AFNE01.JPG,AFNE01.JPG,AFNE01.JPG,AFNE01.JPG,,,,,,,,,,,,,,,,,,,,,0,4,4,7,,,AMSA08.jpg,AMNE14.jpg,AMNE18.jpg,AMSA02.jpg,AMSA02.jpg,MS,2,num_4,48,None,,,,2017_May_03_1106,60.0225436049,FEMA4ImagesEEG,001,200280,
AFNE01.JPG,AFNE01.JPG,AFNE01.JPG,AFNE01.JPG,AFNE01.JPG,AFNE01.JPG,,,,,,,,,,,,,,,,,,,,,0,5,5,9,,,AMNE18.jpg,AMSA12.jpg,AMSA08.jpg,AMNE06.jpg,AMNE18.jpg,MN,1,num_8,32,num_2,2.0499881485,,,2017_May_03_1106,60.0225436049,FEMA4ImagesEEG,001,200280,
AFNE01.JPG,AFNE01.JPG,AFNE01.JPG,AFNE01.JPG,AFNE01.JPG,AFNE01.JPG,,,,,,,,,,,,,,,,,,,,,0,6,6,8,,,AMSA14.jpg,AMNE02.jpg,AMSA11.jpg,AMNE12.jpg,AMSA11.jpg,MS,2,num_2,32,num_8,1.5502195619,,,2017_May_03_1106,60.0225436049,FEMA4ImagesEEG,001,200280,
AFNE01.JPG,AFNE01.JPG,AFNE01.JPG,AFNE01.JPG,AFNE01.JPG,AFNE01.JPG,,,,,,,,,,,,,,,,,,,,,0,7,7,0,,,AMSA06.jpg,AMSA11.jpg,AMNE05.jpg,AMNE20.jpg,AMNE05.jpg,MN,1,num_2,16,num_2,1.35011365381,,,2017_May_03_1106,60.0225436049,FEMA4ImagesEEG,001,200280,
AFNE01.JPG,AFNE01.JPG,AFNE01.JPG,AFNE01.JPG,AFNE01.JPG,AFNE01.JPG,,,,,,,,,,,,,,,,,,,,,0,8,8,1,,,AMNE13.jpg,AMNE02.jpg,AMSA03.jpg,AMSA13.jpg,AMNE02.jpg,MN,1,num_6,16,num_6,0.600184617331,,,2017_May_03_1106,60.0225436049,FEMA4ImagesEEG,001,200280,
AFNE01.JPG,AFNE01.JPG,AFNE01.JPG,AFNE01.JPG,AFNE01.JPG,AFNE01.JPG,,,,,,,,,,,,,,,,,,,,,0,9,9,5,,,AMNE01.jpg,AMSA06.jpg,AMNE03.jpg,AMSA05.jpg,AMNE01.jpg,MN,1,num_8,48,None,,,,2017_May_03_1106,60.0225436049,FEMA4ImagesEEG,001,200280,
AFNE01.JPG,AFNE01.JPG,AFNE01.JPG,AFNE01.JPG,AFNE01.JPG,AFNE01.JPG,,,,,,,,,,,,,,,,,,,,,1,0,10,2,,,AMNE05.jpg,AMSA05.jpg,AMSA18.jpg,AMNE06.jpg,AMNE06.jpg,MN,1,num_4,48,None,,,,2017_May_03_1106,60.0225436049,FEMA4ImagesEEG,001,200280,
AFNE01.JPG,AFNE01.JPG,AFNE01.JPG,AFNE01.JPG,AFNE01.JPG,AFNE01.JPG,,,,,,,,,,,,,,,,,,,,,1,1,11,5,,,AMNE02.jpg,AMSA14.jpg,AMSA07.jpg,AMNE14.jpg,AMSA14.jpg,MS,2,num_6,32,num_8,4.79949669633,,,2017_May_03_1106,60.0225436049,FEMA4ImagesEEG,001,200280,
AFNE01.JPG,AFNE01.JPG,AFNE01.JPG,AFNE01.JPG,AFNE01.JPG,AFNE01.JPG,,,,,,,,,,,,,,,,,,,,,1,2,12,1,,,AMSA01.jpg,AMNE06.jpg,AMNE14.jpg,AMSA20.jpg,AMSA01.jpg,MS,2,num_8,32,num_4,1.50007649628,,,2017_May_03_1106,60.0225436049,FEMA4ImagesEEG,001,200280,
AFNE01.JPG,AFNE01.JPG,AFNE01.JPG,AFNE01.JPG,AFNE01.JPG,AFNE01.JPG,,,,,,,,,,,,,,,,,,,,,1,3,13,6,,,AMNE09.jpg,AMSA08.jpg,AMNE16.jpg,AMSA11.jpg,AMNE09.jpg,MN,1,num_8,32,num_2,1.01701488765,,,2017_May_03_1106,60.0225436049,FEMA4ImagesEEG,001,200280,
AFNE01.JPG,AFNE01.JPG,AFNE01.JPG,AFNE01.JPG,AFNE01.JPG,AFNE01.JPG,,,,,,,,,,,,,,,,,,,,,1,4,14,9,,,AMNE01.jpg,AMSA12.jpg,AMNE16.jpg,AMSA13.jpg,AMNE16.jpg,MN,1,num_2,32,num_8,4.9497684103,,,2017_May_03_1106,60.0225436049,FEMA4ImagesEEG,001,200280,
AFNE01.JPG,AFNE01.JPG,AFNE01.JPG,AFNE01.JPG,AFNE01.JPG,AFNE01.JPG,,,,,,,,,,,,,,,,,,,,,1,5,15,7,,,AMSA18.jpg,AMNE14.jpg,AMSA19.jpg,AMNE20.jpg,AMSA19.jpg,MS,2,num_2,32,num_8,1.03344089864,,,2017_May_03_1106,60.0225436049,FEMA4ImagesEEG,001,200280,
AFNE01.JPG,AFNE01.JPG,AFNE01.JPG,AFNE01.JPG,AFNE01.JPG,AFNE01.JPG,,,,,,,,,,,,,,,,,,,,,1,6,16,3,,,AMSA15.jpg,AMNE13.jpg,AMSA20.jpg,AMNE03.jpg,AMSA20.jpg,MS,2,num_2,16,num_2,1.40010693436,,,2017_May_03_1106,60.0225436049,FEMA4ImagesEEG,001,200280,
AFNE01.JPG,AFNE01.JPG,AFNE01.JPG,AFNE01.JPG,AFNE01.JPG,AFNE01.JPG,,,,,,,,,,,,,,,,,,,,,1,7,17,4,,,AMSA06.jpg,AMNE19.jpg,AMSA13.jpg,AMNE12.jpg,AMSA13.jpg,MS,2,num_2,32,num_6,1.20012964262,,,2017_May_03_1106,60.0225436049,FEMA4ImagesEEG,001,200280,
AFNE01.JPG,AFNE01.JPG,AFNE01.JPG,AFNE01.JPG,AFNE01.JPG,AFNE01.JPG,,,,,,,,,,,,,,,,,,,,,1,8,18,0,,,AMNE17.jpg,AMSA12.jpg,AMNE18.jpg,AMSA05.jpg,AMSA05.jpg,MS,2,num_4,32,num_6,1.01677272981,,,2017_May_03_1106,60.0225436049,FEMA4ImagesEEG,001,200280,
AFNE01.JPG,AFNE01.JPG,AFNE01.JPG,AFNE01.JPG,AFNE01.JPG,AFNE01.JPG,,,,,,,,,,,,,,,,,,,,,1,9,19,8,,,AMNE16.jpg,AMSA04.jpg,AMSA13.jpg,AMNE08.jpg,AMSA04.jpg,MS,2,num_6,32,num_2,1.43345802603,,,2017_May_03_1106,60.0225436049,FEMA4ImagesEEG,001,200280,
AFNE01.JPG,AFNE01.JPG,AFNE01.JPG,AFNE01.JPG,AFNE01.JPG,AFNE01.JPG,,,,,,,,,,,,,,,,,,,,,2,0,20,4,,,AMSA20.jpg,AMNE13.jpg,AMNE01.jpg,AMSA06.jpg,AMNE13.jpg,MN,1,num_6,32,num_8,0.716410839697,,,2017_May_03_1106,60.0225436049,FEMA4ImagesEEG,001,200280,
AFNE01.JPG,AFNE01.JPG,AFNE01.JPG,AFNE01.JPG,AFNE01.JPG,AFNE01.JPG,,,,,,,,,,,,,,,,,,,,,2,1,21,5,,,AMNE01.jpg,AMSA14.jpg,AMSA03.jpg,AMNE20.jpg,AMNE20.jpg,MN,1,num_4,32,num_8,1.16681351163,,,2017_May_03_1106,60.0225436049,FEMA4ImagesEEG,001,200280,
AFNE01.JPG,AFNE01.JPG,AFNE01.JPG,AFNE01.JPG,AFNE01.JPG,AFNE01.JPG,,,,,,,,,,,,,,,,,,,,,2,2,22,0,,,AMNE19.jpg,AMSA11.jpg,AMNE02.jpg,AMSA05.jpg,AMSA11.jpg,MS,2,num_6,32,num_4,1.33345125848,,,2017_May_03_1106,60.0225436049,FEMA4ImagesEEG,001,200280,
AFNE01.JPG,AFNE01.JPG,AFNE01.JPG,AFNE01.JPG,AFNE01.JPG,AFNE01.JPG,,,,,,,,,,,,,,,,,,,,,2,3,23,8,,,AMSA17.jpg,AMSA08.jpg,AMNE17.jpg,AMNE14.jpg,AMNE14.jpg,MN,1,num_4,32,num_6,3.41652332293,,,2017_May_03_1106,60.0225436049,FEMA4ImagesEEG,001,200280,
AFNE01.JPG,AFNE01.JPG,AFNE01.JPG,AFNE01.JPG,AFNE01.JPG,AFNE01.JPG,,,,,,,,,,,,,,,,,,,,,2,4,24,7,,,AMSA08.jpg,AMNE18.jpg,AMNE05.jpg,AMSA05.jpg,AMNE05.jpg,MN,1,num_2,32,num_8,0.966800297145,,,2017_May_03_1106,60.0225436049,FEMA4ImagesEEG,001,200280,
AFNE01.JPG,AFNE01.JPG,AFNE01.JPG,AFNE01.JPG,AFNE01.JPG,AFNE01.JPG,,,,,,,,,,,,,,,,,,,,,2,5,25,2,,,AMNE10.jpg,AMSA12.jpg,AMNE08.jpg,AMSA02.jpg,AMNE08.jpg,MN,1,num_2,16,num_2,1.03344570962,,,2017_May_03_1106,60.0225436049,FEMA4ImagesEEG,001,200280,
AFNE01.JPG,AFNE01.JPG,AFNE01.JPG,AFNE01.JPG,AFNE01.JPG,AFNE01.JPG,,,,,,,,,,,,,,,,,,,,,2,6,26,3,,,AMSA05.jpg,AMNE18.jpg,AMSA10.jpg,AMNE07.jpg,AMSA05.jpg,MS,2,num_8,16,num_8,1.06673008762,,,2017_May_03_1106,60.0225436049,FEMA4ImagesEEG,001,200280,
AFNE01.JPG,AFNE01.JPG,AFNE01.JPG,AFNE01.JPG,AFNE01.JPG,AFNE01.JPG,,,,,,,,,,,,,,,,,,,,,2,7,27,9,,,AMSA18.jpg,AMNE16.jpg,AMNE03.jpg,AMSA14.jpg,AMSA14.jpg,MS,2,num_4,48,None,,,,2017_May_03_1106,60.0225436049,FEMA4ImagesEEG,001,200280,
AFNE01.JPG,AFNE01.JPG,AFNE01.JPG,AFNE01.JPG,AFNE01.JPG,AFNE01.JPG,,,,,,,,,,,,,,,,,,,,,2,8,28,1,,,AMSA09.jpg,AMNE11.jpg,AMSA10.jpg,AMNE20.jpg,AMSA09.jpg,MS,2,num_8,16,num_8,0.800272563938,,,2017_May_03_1106,60.0225436049,FEMA4ImagesEEG,001,200280,
AFNE01.JPG,AFNE01.JPG,AFNE01.JPG,AFNE01.JPG,AFNE01.JPG,AFNE01.JPG,,,,,,,,,,,,,,,,,,,,,2,9,29,6,,,AMNE13.jpg,AMNE12.jpg,AMSA11.jpg,AMSA08.jpg,AMSA11.jpg,MS,2,num_2,16,num_2,1.05007891799,,,2017_May_03_1106,60.0225436049,FEMA4ImagesEEG,001,200280,
AFNE01.JPG,AFNE01.JPG,AFNE01.JPG,AFNE01.JPG,AFNE01.JPG,AFNE01.JPG,,,,,,,,,,,,,,,,,,,,,3,0,30,8,,,AMNE08.jpg,AMSA08.jpg,AMNE16.jpg,AMSA19.jpg,AMNE08.jpg,MN,1,num_8,32,num_6,1.53340738127,,,2017_May_03_1106,60.0225436049,FEMA4ImagesEEG,001,200280,
AFNE01.JPG,AFNE01.JPG,AFNE01.JPG,AFNE01.JPG,AFNE01.JPG,AFNE01.JPG,,,,,,,,,,,,,,,,,,,,,3,1,31,1,,,AMSA20.jpg,AMNE09.jpg,AMNE13.jpg,AMSA01.jpg,AMNE09.jpg,MN,1,num_6,32,num_8,1.61673860322,,,2017_May_03_1106,60.0225436049,FEMA4ImagesEEG,001,200280,
AFNE01.JPG,AFNE01.JPG,AFNE01.JPG,AFNE01.JPG,AFNE01.JPG,AFNE01.JPG,,,,,,,,,,,,,,,,,,,,,3,2,32,6,,,AMSA11.jpg,AMNE15.jpg,AMNE14.jpg,AMSA01.jpg,AMSA11.jpg,MS,2,num_8,32,num_4,0.816789343953,,,2017_May_03_1106,60.0225436049,FEMA4ImagesEEG,001,200280,
AFNE01.JPG,AFNE01.JPG,AFNE01.JPG,AFNE01.JPG,AFNE01.JPG,AFNE01.JPG,,,,,,,,,,,,,,,,,,,,,3,3,33,7,,,AMNE04.jpg,AMSA11.jpg,AMNE19.jpg,AMSA19.jpg,AMNE19.jpg,MN,1,num_2,32,num_4,2.93327696878,,,2017_May_03_1106,60.0225436049,FEMA4ImagesEEG,001,200280,
AFNE01.JPG,AFNE01.JPG,AFNE01.JPG,AFNE01.JPG,AFNE01.JPG,AFNE01.JPG,,,,,,,,,,,,,,,,,,,,,3,4,34,4,,,AMNE14.jpg,AMSA20.jpg,AMNE12.jpg,AMSA19.jpg,AMSA20.jpg,MS,2,num_6,16,num_6,0.716758520808,,,2017_May_03_1106,60.0225436049,FEMA4ImagesEEG,001,200280,
AFNE01.JPG,AFNE01.JPG,AFNE01.JPG,AFNE01.JPG,AFNE01.JPG,AFNE01.JPG,,,,,,,,,,,,,,,,,,,,,3,5,35,3,,,AMNE10.jpg,AMSA06.jpg,AMNE07.jpg,AMSA01.jpg,AMSA06.jpg,MS,2,num_6,32,num_8,0.700127237244,,,2017_May_03_1106,60.0225436049,FEMA4ImagesEEG,001,200280,
AFNE01.JPG,AFNE01.JPG,AFNE01.JPG,AFNE01.JPG,AFNE01.JPG,AFNE01.JPG,,,,,,,,,,,,,,,,,,,,,3,6,36,2,,,AMNE19.jpg,AMNE08.jpg,AMSA18.jpg,AMSA17.jpg,AMSA17.jpg,MS,2,num_4,32,num_2,0.650164427003,,,2017_May_03_1106,60.0225436049,FEMA4ImagesEEG,001,200280,
AFNE01.JPG,AFNE01.JPG,AFNE01.JPG,AFNE01.JPG,AFNE01.JPG,AFNE01.JPG,,,,,,,,,,,,,,,,,,,,,3,7,37,0,,,AMNE11.jpg,AMSA08.jpg,AMSA06.jpg,AMNE07.jpg,AMSA06.jpg,MS,2,num_2,16,num_2,1.00011578691,,,2017_May_03_1106,60.0225436049,FEMA4ImagesEEG,001,200280,
AFNE01.JPG,AFNE01.JPG,AFNE01.JPG,AFNE01.JPG,AFNE01.JPG,AFNE01.JPG,,,,,,,,,,,,,,,,,,,,,3,8,38,5,,,AMNE14.jpg,AMSA03.jpg,AMNE18.jpg,AMSA15.jpg,AMSA03.jpg,MS,2,num_6,16,num_6,0.71675306838,,,2017_May_03_1106,60.0225436049,FEMA4ImagesEEG,001,200280,
AFNE01.JPG,AFNE01.JPG,AFNE01.JPG,AFNE01.JPG,AFNE01.JPG,AFNE01.JPG,,,,,,,,,,,,,,,,,,,,,3,9,39,9,,,AMNE05.jpg,AMSA11.jpg,AMSA19.jpg,AMNE15.jpg,AMSA11.jpg,MS,2,num_6,48,None,,,,2017_May_03_1106,60.0225436049,FEMA4ImagesEEG,001,200280,
AFNE01.JPG,AFNE01.JPG,AFNE01.JPG,AFNE01.JPG,AFNE01.JPG,AFNE01.JPG,,,,,,,,,,,,,,,,,,,,,4,0,40,5,,,AMNE19.jpg,AMSA10.jpg,AMSA02.jpg,AMNE18.jpg,AMSA10.jpg,MS,2,num_6,32,num_4,0.400051446399,,,2017_May_03_1106,60.0225436049,FEMA4ImagesEEG,001,200280,
