IPosition2,IPosition3,IPosition1,IPosition6,IPosition4,IPosition5,TrialsM1.thisRepN,TrialsM1.thisTrialN,TrialsM1.thisN,TrialsM1.thisIndex,TrialsF1.thisRepN,TrialsF1.thisTrialN,TrialsF1.thisN,TrialsF1.thisIndex,TrialsM2.thisRepN,TrialsM2.thisTrialN,TrialsM2.thisN,TrialsM2.thisIndex,TrialsF2.thisRepN,TrialsF2.thisTrialN,TrialsF2.thisN,TrialsF2.thisIndex,TrialsM3.thisRepN,TrialsM3.thisTrialN,TrialsM3.thisN,TrialsM3.thisIndex,TrialsF3.thisRepN,TrialsF3.thisTrialN,TrialsF3.thisN,TrialsF3.thisIndex,InstrKey_resp.keys,InstrKey_resp.rt,Image0 _Position,Image1 _Position,Image2 _Position,Image3 _Position,Center_image,condition,code,correct_answer,accuracy,Key_Resp.keys,Key_Resp.rt,BreakKey_resp.keys,BreakKey_resp.rt,date,frameRate,expName,session,participant,
,,,,,,,,,,,,,,,,,,,,,,,,,,,,,,space,12.0493341614,,,,,,,,,,,,,,2017_May_12_1541,59.9932076277,MAFE4ImagesEEG,001,200334,
AFNE23.JPG,AFNE24.JPG,AFNE22.JPG,AFSA24.JPG,AFSA22.JPG,AFSA23.JPG,0,0,0,8,,,,,,,,,,,,,,,,,,,,,,,AMNE04.jpg,AMSA20.jpg,AMSA14.jpg,AMNE17.jpg,AMNE17.jpg,MN,1,num_4,16,num_4,1.45014575962,,,2017_May_12_1541,59.9932076277,MAFE4ImagesEEG,001,200334,
AFSA25.JPG,AFNE24.JPG,AFSA24.JPG,AFNE21.JPG,AFSA21.JPG,AFNE25.JPG,0,1,1,2,,,,,,,,,,,,,,,,,,,,,,,AMSA09.jpg,AMNE19.jpg,AMNE07.jpg,AMSA03.jpg,AMSA09.jpg,MS,2,num_8,32,num_2,1.15008279867,,,2017_May_12_1541,59.9932076277,MAFE4ImagesEEG,001,200334,
AMNE23.JPG,AMNE24.JPG,AMNE22.JPG,AMSA24.JPG,AMSA22.JPG,AMSA23.JPG,0,2,2,9,,,,,,,,,,,,,,,,,,,,,,,AMSA04.jpg,AMNE16.jpg,AMNE08.jpg,AMSA12.jpg,AMSA04.jpg,MS,2,num_8,16,num_8,1.56667668419,,,2017_May_12_1541,59.9932076277,MAFE4ImagesEEG,001,200334,
AMSA25.JPG,AMNE24.JPG,AMSA24.JPG,AMNE26.JPG,AMSA21.JPG,AMNE25.JPG,0,3,3,3,,,,,,,,,,,,,,,,,,,,,,,AMSA05.jpg,AMNE20.jpg,AMNE08.jpg,AMSA01.jpg,AMNE20.jpg,MN,1,num_6,16,num_6,0.766773290932,,,2017_May_12_1541,59.9932076277,MAFE4ImagesEEG,001,200334,
AMNE22.JPG,AMSA24.JPG,AMSA22.JPG,AMNE25.JPG,AMNE24.JPG,AMSA25.JPG,0,4,4,7,,,,,,,,,,,,,,,,,,,,,,,AMNE01.jpg,AMSA02.jpg,AMSA17.jpg,AMNE07.jpg,AMSA02.jpg,MS,2,num_6,32,num_2,1.75010383921,,,2017_May_12_1541,59.9932076277,MAFE4ImagesEEG,001,200334,
AMSA21.JPG,AMNE23.JPG,AMNE21.JPG,AMSA25.JPG,AMNE25.JPG,AMSA23.JPG,0,5,5,5,,,,,,,,,,,,,,,,,,,,,,,AMSA04.jpg,AMNE18.jpg,AMSA09.jpg,AMNE13.jpg,AMSA04.jpg,MS,2,num_8,16,num_8,1.26677986607,,,2017_May_12_1541,59.9932076277,MAFE4ImagesEEG,001,200334,
AFSA21.JPG,AFNE22.JPG,AFNE21.JPG,AFSA23.JPG,AFSA22.JPG,AFNE23.JPG,0,6,6,0,,,,,,,,,,,,,,,,,,,,,,,AMSA11.jpg,AMNE18.jpg,AMSA01.jpg,AMNE17.jpg,AMSA11.jpg,MS,2,num_8,32,num_6,0.833461682312,,,2017_May_12_1541,59.9932076277,MAFE4ImagesEEG,001,200334,
AMSA21.JPG,AMNE22.JPG,AMNE21.JPG,AMSA23.JPG,AMSA22.JPG,AMNE23.JPG,0,7,7,1,,,,,,,,,,,,,,,,,,,,,,,AMNE13.jpg,AMSA19.jpg,AMNE18.jpg,AMSA09.jpg,AMNE18.jpg,MN,1,num_2,32,num_4,1.25013992237,,,2017_May_12_1541,59.9932076277,MAFE4ImagesEEG,001,200334,
AFSA21.JPG,AFNE23.JPG,AFNE21.JPG,AFSA25.JPG,AFNE25.JPG,AFSA23.JPG,0,8,8,4,,,,,,,,,,,,,,,,,,,,,,,AMSA07.jpg,AMNE18.jpg,AMNE09.jpg,AMSA05.jpg,AMNE09.jpg,MN,1,num_2,16,num_2,1.70004673162,,,2017_May_12_1541,59.9932076277,MAFE4ImagesEEG,001,200334,
AFNE22.JPG,AFSA24.JPG,AFSA22.JPG,AFNE25.JPG,AFNE24.JPG,AFSA25.JPG,0,9,9,6,,,,,,,,,,,,,,,,,,,,,,,AMSA16.jpg,AMSA14.jpg,AMNE19.jpg,AMNE08.jpg,AMSA16.jpg,MS,2,num_8,16,num_8,1.10007123603,,,2017_May_12_1541,59.9932076277,MAFE4ImagesEEG,001,200334,
AFSA21.JPG,AFNE22.JPG,AFNE21.JPG,AFSA23.JPG,AFSA22.JPG,AFNE23.JPG,,,,,0,0,0,0,,,,,,,,,,,,,,,,,,,AFNE05.jpg,AFNE12.jpg,AFSA05.jpg,AFSA08.jpg,AFSA08.jpg,FS,4,num_4,16,num_4,1.18342298502,,,2017_May_12_1541,59.9932076277,MAFE4ImagesEEG,001,200334,
AMNE23.JPG,AMNE24.JPG,AMNE22.JPG,AMSA24.JPG,AMSA22.JPG,AMSA23.JPG,,,,,0,1,1,9,,,,,,,,,,,,,,,,,,,AFNE04.jpg,AFSA19.jpg,AFNE19.jpg,AFSA13.jpg,AFNE04.jpg,FN,3,num_8,32,num_2,1.5834154156,,,2017_May_12_1541,59.9932076277,MAFE4ImagesEEG,001,200334,
AMSA21.JPG,AMNE23.JPG,AMNE21.JPG,AMSA25.JPG,AMNE25.JPG,AMSA23.JPG,,,,,0,2,2,5,,,,,,,,,,,,,,,,,,,AFSA05.jpg,AFSA06.jpg,AFNE05.jpg,AFNE02.jpg,AFNE02.jpg,FN,3,num_4,16,num_4,0.916757943574,,,2017_May_12_1541,59.9932076277,MAFE4ImagesEEG,001,200334,
AFSA25.JPG,AFNE24.JPG,AFSA24.JPG,AFNE21.JPG,AFSA21.JPG,AFNE25.JPG,,,,,0,3,3,2,,,,,,,,,,,,,,,,,,,AFSA20.jpg,AFSA18.jpg,AFNE04.jpg,AFNE10.jpg,AFSA20.jpg,FS,4,num_8,32,num_4,1.23345796205,,,2017_May_12_1541,59.9932076277,MAFE4ImagesEEG,001,200334,
AMSA21.JPG,AMNE22.JPG,AMNE21.JPG,AMSA23.JPG,AMSA22.JPG,AMNE23.JPG,,,,,0,4,4,1,,,,,,,,,,,,,,,,,,,AFSA14.jpg,AFSA17.jpg,AFNE10.jpg,AFNE03.jpg,AFNE10.jpg,FN,3,num_2,16,num_2,0.833445003722,,,2017_May_12_1541,59.9932076277,MAFE4ImagesEEG,001,200334,
AFNE22.JPG,AFSA24.JPG,AFSA22.JPG,AFNE25.JPG,AFNE24.JPG,AFSA25.JPG,,,,,0,5,5,6,,,,,,,,,,,,,,,,,,,AFNE11.jpg,AFSA01.jpg,AFSA20.jpg,AFNE07.jpg,AFNE11.jpg,FN,3,num_8,16,num_8,2.08333507087,,,2017_May_12_1541,59.9932076277,MAFE4ImagesEEG,001,200334,
AFNE23.JPG,AFNE24.JPG,AFNE22.JPG,AFSA24.JPG,AFSA22.JPG,AFSA23.JPG,,,,,0,6,6,8,,,,,,,,,,,,,,,,,,,AFNE16.jpg,AFSA20.jpg,AFSA16.jpg,AFNE04.jpg,AFNE04.jpg,FN,3,num_4,16,num_4,1.03341556014,,,2017_May_12_1541,59.9932076277,MAFE4ImagesEEG,001,200334,
AMSA25.JPG,AMNE24.JPG,AMSA24.JPG,AMNE26.JPG,AMSA21.JPG,AMNE25.JPG,,,,,0,7,7,3,,,,,,,,,,,,,,,,,,,AFSA09.jpg,AFSA13.jpg,AFNE02.jpg,AFNE11.jpg,AFSA09.jpg,FS,4,num_8,32,num_6,1.3167154137,,,2017_May_12_1541,59.9932076277,MAFE4ImagesEEG,001,200334,
AMNE22.JPG,AMSA24.JPG,AMSA22.JPG,AMNE25.JPG,AMNE24.JPG,AMSA25.JPG,,,,,0,8,8,7,,,,,,,,,,,,,,,,,,,AFNE08.jpg,AFNE05.jpg,AFSA18.jpg,AFSA07.jpg,AFSA18.jpg,FS,4,num_2,16,num_2,1.58339328459,,,2017_May_12_1541,59.9932076277,MAFE4ImagesEEG,001,200334,
AFSA21.JPG,AFNE23.JPG,AFNE21.JPG,AFSA25.JPG,AFNE25.JPG,AFSA23.JPG,,,,,0,9,9,4,,,,,,,,,,,,,,,,,,,AFNE16.jpg,AFSA14.jpg,AFSA03.jpg,AFNE10.jpg,AFSA14.jpg,FS,4,num_6,16,num_6,1.11676249793,,,2017_May_12_1541,59.9932076277,MAFE4ImagesEEG,001,200334,
AFNE22.JPG,AFSA24.JPG,AFSA22.JPG,AFNE25.JPG,AFNE24.JPG,AFSA25.JPG,,,,,,,,,0,0,0,6,,,,,,,,,,,,,,,AMSA05.jpg,AMNE04.jpg,AMNE15.jpg,AMSA02.jpg,AMSA05.jpg,MS,2,num_8,16,num_8,1.18350252835,,,2017_May_12_1541,59.9932076277,MAFE4ImagesEEG,001,200334,
AMNE23.JPG,AMNE24.JPG,AMNE22.JPG,AMSA24.JPG,AMSA22.JPG,AMSA23.JPG,,,,,,,,,0,1,1,9,,,,,,,,,,,,,,,AMSA20.jpg,AMSA07.jpg,AMNE12.jpg,AMNE17.jpg,AMSA07.jpg,MS,2,num_6,16,num_6,0.916735170875,,,2017_May_12_1541,59.9932076277,MAFE4ImagesEEG,001,200334,
AFNE23.JPG,AFNE24.JPG,AFNE22.JPG,AFSA24.JPG,AFSA22.JPG,AFSA23.JPG,,,,,,,,,0,2,2,8,,,,,,,,,,,,,,,AMNE07.jpg,AMNE03.jpg,AMSA12.jpg,AMSA03.jpg,AMNE03.jpg,MN,1,num_6,32,num_4,0.816782929003,,,2017_May_12_1541,59.9932076277,MAFE4ImagesEEG,001,200334,
AFSA21.JPG,AFNE23.JPG,AFNE21.JPG,AFSA25.JPG,AFNE25.JPG,AFSA23.JPG,,,,,,,,,0,3,3,4,,,,,,,,,,,,,,,AMNE03.jpg,AMNE12.jpg,AMSA17.jpg,AMSA03.jpg,AMSA17.jpg,MS,2,num_2,16,num_2,1.61683001369,,,2017_May_12_1541,59.9932076277,MAFE4ImagesEEG,001,200334,
AMSA25.JPG,AMNE24.JPG,AMSA24.JPG,AMNE26.JPG,AMSA21.JPG,AMNE25.JPG,,,,,,,,,0,4,4,3,,,,,,,,,,,,,,,AMSA09.jpg,AMNE14.jpg,AMSA04.jpg,AMNE01.jpg,AMNE01.jpg,MN,1,num_4,16,num_4,0.600134582259,,,2017_May_12_1541,59.9932076277,MAFE4ImagesEEG,001,200334,
AMNE22.JPG,AMSA24.JPG,AMSA22.JPG,AMNE25.JPG,AMNE24.JPG,AMSA25.JPG,,,,,,,,,0,5,5,7,,,,,,,,,,,,,,,AMSA07.jpg,AMNE02.jpg,AMSA06.jpg,AMNE20.jpg,AMNE02.jpg,MN,1,num_6,16,num_6,0.866758248303,,,2017_May_12_1541,59.9932076277,MAFE4ImagesEEG,001,200334,
AMSA21.JPG,AMNE23.JPG,AMNE21.JPG,AMSA25.JPG,AMNE25.JPG,AMSA23.JPG,,,,,,,,,0,6,6,5,,,,,,,,,,,,,,,AMNE02.jpg,AMSA04.jpg,AMNE08.jpg,AMSA18.jpg,AMNE02.jpg,MN,1,num_8,16,num_8,1.13344574161,,,2017_May_12_1541,59.9932076277,MAFE4ImagesEEG,001,200334,
AFSA25.JPG,AFNE24.JPG,AFSA24.JPG,AFNE21.JPG,AFSA21.JPG,AFNE25.JPG,,,,,,,,,0,7,7,2,,,,,,,,,,,,,,,AMNE18.jpg,AMSA15.jpg,AMSA01.jpg,AMNE20.jpg,AMNE20.jpg,MN,1,num_4,32,num_8,1.76669438928,,,2017_May_12_1541,59.9932076277,MAFE4ImagesEEG,001,200334,
AFSA21.JPG,AFNE22.JPG,AFNE21.JPG,AFSA23.JPG,AFSA22.JPG,AFNE23.JPG,,,,,,,,,0,8,8,0,,,,,,,,,,,,,,,AMNE01.jpg,AMSA05.jpg,AMSA06.jpg,AMNE14.jpg,AMSA06.jpg,MS,2,num_2,32,num_6,0.800098402891,,,2017_May_12_1541,59.9932076277,MAFE4ImagesEEG,001,200334,
AMSA21.JPG,AMNE22.JPG,AMNE21.JPG,AMSA23.JPG,AMSA22.JPG,AMNE23.JPG,,,,,,,,,0,9,9,1,,,,,,,,,,,,,,,AMSA07.jpg,AMSA18.jpg,AMNE20.jpg,AMNE15.jpg,AMSA07.jpg,MS,2,num_8,32,num_4,1.01674546674,,,2017_May_12_1541,59.9932076277,MAFE4ImagesEEG,001,200334,
AMSA21.JPG,AMNE22.JPG,AMNE21.JPG,AMSA23.JPG,AMSA22.JPG,AMNE23.JPG,,,,,,,,,,,,,0,0,0,1,,,,,,,,,,,AFSA05.jpg,AFNE09.jpg,AFSA08.jpg,AFNE20.jpg,AFNE20.jpg,FN,3,num_4,32,num_6,0.666767806746,,,2017_May_12_1541,59.9932076277,MAFE4ImagesEEG,001,200334,
AMNE22.JPG,AMSA24.JPG,AMSA22.JPG,AMNE25.JPG,AMNE24.JPG,AMSA25.JPG,,,,,,,,,,,,,0,1,1,7,,,,,,,,,,,AFSA03.jpg,AFNE20.jpg,AFNE01.jpg,AFSA01.jpg,AFNE01.jpg,FN,3,num_2,32,num_6,0.750133347232,,,2017_May_12_1541,59.9932076277,MAFE4ImagesEEG,001,200334,
AFSA21.JPG,AFNE23.JPG,AFNE21.JPG,AFSA25.JPG,AFNE25.JPG,AFSA23.JPG,,,,,,,,,,,,,0,2,2,4,,,,,,,,,,,AFNE03.jpg,AFSA08.jpg,AFNE07.jpg,AFSA18.jpg,AFSA08.jpg,FS,4,num_6,32,num_2,0.950096205808,,,2017_May_12_1541,59.9932076277,MAFE4ImagesEEG,001,200334,
AMSA25.JPG,AMNE24.JPG,AMSA24.JPG,AMNE26.JPG,AMSA21.JPG,AMNE25.JPG,,,,,,,,,,,,,0,3,3,3,,,,,,,,,,,AFSA18.jpg,AFSA06.jpg,AFNE15.jpg,AFNE06.jpg,AFNE06.jpg,FN,3,num_4,32,num_8,0.900124414824,,,2017_May_12_1541,59.9932076277,MAFE4ImagesEEG,001,200334,
AFNE22.JPG,AFSA24.JPG,AFSA22.JPG,AFNE25.JPG,AFNE24.JPG,AFSA25.JPG,,,,,,,,,,,,,0,4,4,6,,,,,,,,,,,AFNE19.jpg,AFSA20.jpg,AFSA13.jpg,AFNE02.jpg,AFSA13.jpg,FS,4,num_2,32,num_6,0.716718107928,,,2017_May_12_1541,59.9932076277,MAFE4ImagesEEG,001,200334,
AFNE23.JPG,AFNE24.JPG,AFNE22.JPG,AFSA24.JPG,AFSA22.JPG,AFSA23.JPG,,,,,,,,,,,,,0,5,5,8,,,,,,,,,,,AFSA16.jpg,AFNE16.jpg,AFSA14.jpg,AFNE12.jpg,AFNE16.jpg,FN,3,num_6,16,num_6,0.516797266435,,,2017_May_12_1541,59.9932076277,MAFE4ImagesEEG,001,200334,
AFSA25.JPG,AFNE24.JPG,AFSA24.JPG,AFNE21.JPG,AFSA21.JPG,AFNE25.JPG,,,,,,,,,,,,,0,6,6,2,,,,,,,,,,,AFSA04.jpg,AFSA13.jpg,AFNE10.jpg,AFNE12.jpg,AFSA13.jpg,FS,4,num_6,32,num_8,1.05014338624,,,2017_May_12_1541,59.9932076277,MAFE4ImagesEEG,001,200334,
AMNE23.JPG,AMNE24.JPG,AMNE22.JPG,AMSA24.JPG,AMSA22.JPG,AMSA23.JPG,,,,,,,,,,,,,0,7,7,9,,,,,,,,,,,AFSA03.jpg,AFSA10.jpg,AFNE08.jpg,AFNE11.jpg,AFSA10.jpg,FS,4,num_6,16,num_6,0.533519319259,,,2017_May_12_1541,59.9932076277,MAFE4ImagesEEG,001,200334,
AMSA21.JPG,AMNE23.JPG,AMNE21.JPG,AMSA25.JPG,AMNE25.JPG,AMSA23.JPG,,,,,,,,,,,,,0,8,8,5,,,,,,,,,,,AFNE05.jpg,AFSA20.jpg,AFSA06.jpg,AFNE04.jpg,AFNE04.jpg,FN,3,num_4,16,num_4,0.516797587276,,,2017_May_12_1541,59.9932076277,MAFE4ImagesEEG,001,200334,
AFSA21.JPG,AFNE22.JPG,AFNE21.JPG,AFSA23.JPG,AFSA22.JPG,AFNE23.JPG,,,,,,,,,,,,,0,9,9,0,,,,,,,,,,,AFNE06.jpg,AFSA09.jpg,AFNE11.jpg,AFSA15.jpg,AFNE11.jpg,FN,3,num_2,16,num_2,0.950178635307,,,2017_May_12_1541,59.9932076277,MAFE4ImagesEEG,001,200334,
AMSA21.JPG,AMNE22.JPG,AMNE21.JPG,AMSA23.JPG,AMSA22.JPG,AMNE23.JPG,,,,,,,,,,,,,,,,,0,0,0,1,,,,,,,AMSA01.jpg,AMNE13.jpg,AMSA08.jpg,AMNE03.jpg,AMNE13.jpg,MN,1,num_6,16,num_6,0.61676843185,,,2017_May_12_1541,59.9932076277,MAFE4ImagesEEG,001,200334,
AMNE23.JPG,AMNE24.JPG,AMNE22.JPG,AMSA24.JPG,AMSA22.JPG,AMSA23.JPG,,,,,,,,,,,,,,,,,0,1,1,9,,,,,,,AMNE06.jpg,AMSA03.jpg,AMSA13.jpg,AMNE04.jpg,AMNE06.jpg,MN,1,num_8,16,num_8,1.31672182819,,,2017_May_12_1541,59.9932076277,MAFE4ImagesEEG,001,200334,
AFNE23.JPG,AFNE24.JPG,AFNE22.JPG,AFSA24.JPG,AFSA22.JPG,AFSA23.JPG,,,,,,,,,,,,,,,,,0,2,2,8,,,,,,,AMSA15.jpg,AMNE12.jpg,AMSA16.jpg,AMNE03.jpg,AMSA16.jpg,MS,2,num_2,32,num_4,0.700104464777,,,2017_May_12_1541,59.9932076277,MAFE4ImagesEEG,001,200334,
AMSA25.JPG,AMNE24.JPG,AMSA24.JPG,AMNE26.JPG,AMSA21.JPG,AMNE25.JPG,,,,,,,,,,,,,,,,,0,3,3,3,,,,,,,AMNE06.jpg,AMSA16.jpg,AMNE19.jpg,AMSA20.jpg,AMNE06.jpg,MN,1,num_8,32,num_2,1.11674998933,,,2017_May_12_1541,59.9932076277,MAFE4ImagesEEG,001,200334,
AFSA25.JPG,AFNE24.JPG,AFSA24.JPG,AFNE21.JPG,AFSA21.JPG,AFNE25.JPG,,,,,,,,,,,,,,,,,0,4,4,2,,,,,,,AMSA12.jpg,AMNE12.jpg,AMNE16.jpg,AMSA18.jpg,AMSA12.jpg,MS,2,num_8,16,num_8,1.16679971991,,,2017_May_12_1541,59.9932076277,MAFE4ImagesEEG,001,200334,
AFSA21.JPG,AFNE23.JPG,AFNE21.JPG,AFSA25.JPG,AFNE25.JPG,AFSA23.JPG,,,,,,,,,,,,,,,,,0,5,5,4,,,,,,,AMSA14.jpg,AMNE01.jpg,AMSA18.jpg,AMNE03.jpg,AMNE01.jpg,MN,1,num_6,16,num_6,0.616817825474,,,2017_May_12_1541,59.9932076277,MAFE4ImagesEEG,001,200334,
AFNE22.JPG,AFSA24.JPG,AFSA22.JPG,AFNE25.JPG,AFNE24.JPG,AFSA25.JPG,,,,,,,,,,,,,,,,,0,6,6,6,,,,,,,AMNE06.jpg,AMNE12.jpg,AMSA08.jpg,AMSA19.jpg,AMNE12.jpg,MN,1,num_6,16,num_6,0.850132096559,,,2017_May_12_1541,59.9932076277,MAFE4ImagesEEG,001,200334,
AFSA21.JPG,AFNE22.JPG,AFNE21.JPG,AFSA23.JPG,AFSA22.JPG,AFNE23.JPG,,,,,,,,,,,,,,,,,0,7,7,0,,,,,,,AMNE03.jpg,AMSA20.jpg,AMSA01.jpg,AMNE02.jpg,AMSA01.jpg,MS,2,num_2,32,num_4,0.900111584924,,,2017_May_12_1541,59.9932076277,MAFE4ImagesEEG,001,200334,
AMSA21.JPG,AMNE23.JPG,AMNE21.JPG,AMSA25.JPG,AMNE25.JPG,AMSA23.JPG,,,,,,,,,,,,,,,,,0,8,8,5,,,,,,,AMSA09.jpg,AMNE08.jpg,AMSA14.jpg,AMNE02.jpg,AMSA14.jpg,MS,2,num_2,16,num_2,0.85009296611,,,2017_May_12_1541,59.9932076277,MAFE4ImagesEEG,001,200334,
AMNE22.JPG,AMSA24.JPG,AMSA22.JPG,AMNE25.JPG,AMNE24.JPG,AMSA25.JPG,,,,,,,,,,,,,,,,,0,9,9,7,,,,,,,AMNE16.jpg,AMSA03.jpg,AMSA07.jpg,AMNE07.jpg,AMNE16.jpg,MN,1,num_8,16,num_8,0.966742884833,,,2017_May_12_1541,59.9932076277,MAFE4ImagesEEG,001,200334,
AMNE23.JPG,AMNE24.JPG,AMNE22.JPG,AMSA24.JPG,AMSA22.JPG,AMSA23.JPG,,,,,,,,,,,,,,,,,,,,,0,0,0,9,,,AFNE06.jpg,AFSA16.jpg,AFSA02.jpg,AFNE03.jpg,AFNE06.jpg,FN,3,num_8,32,num_4,0.666793465614,,,2017_May_12_1541,59.9932076277,MAFE4ImagesEEG,001,200334,
AMSA21.JPG,AMNE23.JPG,AMNE21.JPG,AMSA25.JPG,AMNE25.JPG,AMSA23.JPG,,,,,,,,,,,,,,,,,,,,,0,1,1,5,,,AFSA04.jpg,AFSA01.jpg,AFNE11.jpg,AFNE20.jpg,AFSA04.jpg,FS,4,num_8,16,num_8,1.48339549825,,,2017_May_12_1541,59.9932076277,MAFE4ImagesEEG,001,200334,
AFNE23.JPG,AFNE24.JPG,AFNE22.JPG,AFSA24.JPG,AFSA22.JPG,AFSA23.JPG,,,,,,,,,,,,,,,,,,,,,0,2,2,8,,,AFNE13.jpg,AFNE18.jpg,AFSA11.jpg,AFSA07.jpg,AFNE13.jpg,FN,3,num_8,16,num_8,1.11678045942,,,2017_May_12_1541,59.9932076277,MAFE4ImagesEEG,001,200334,
AMSA25.JPG,AMNE24.JPG,AMSA24.JPG,AMNE26.JPG,AMSA21.JPG,AMNE25.JPG,,,,,,,,,,,,,,,,,,,,,0,3,3,3,,,AFSA12.jpg,AFNE09.jpg,AFSA09.jpg,AFNE11.jpg,AFSA09.jpg,FS,4,num_2,16,num_2,1.35002352623,,,2017_May_12_1541,59.9932076277,MAFE4ImagesEEG,001,200334,
AFNE22.JPG,AFSA24.JPG,AFSA22.JPG,AFNE25.JPG,AFNE24.JPG,AFSA25.JPG,,,,,,,,,,,,,,,,,,,,,0,4,4,6,,,AFNE10.jpg,AFNE01.jpg,AFSA07.jpg,AFSA09.jpg,AFNE01.jpg,FN,3,num_6,32,num_8,2.81659305142,,,2017_May_12_1541,59.9932076277,MAFE4ImagesEEG,001,200334,
AFSA21.JPG,AFNE23.JPG,AFNE21.JPG,AFSA25.JPG,AFNE25.JPG,AFSA23.JPG,,,,,,,,,,,,,,,,,,,,,0,5,5,4,,,AFNE01.jpg,AFSA19.jpg,AFSA17.jpg,AFNE16.jpg,AFSA17.jpg,FS,4,num_2,32,num_6,0.783532228786,,,2017_May_12_1541,59.9932076277,MAFE4ImagesEEG,001,200334,
AFSA21.JPG,AFNE22.JPG,AFNE21.JPG,AFSA23.JPG,AFSA22.JPG,AFNE23.JPG,,,,,,,,,,,,,,,,,,,,,0,6,6,0,,,AFNE15.jpg,AFNE06.jpg,AFSA19.jpg,AFSA04.jpg,AFNE15.jpg,FN,3,num_8,16,num_8,1.46672861185,,,2017_May_12_1541,59.9932076277,MAFE4ImagesEEG,001,200334,
AFSA25.JPG,AFNE24.JPG,AFSA24.JPG,AFNE21.JPG,AFSA21.JPG,AFNE25.JPG,,,,,,,,,,,,,,,,,,,,,0,7,7,2,,,AFNE08.jpg,AFNE13.jpg,AFSA07.jpg,AFSA14.jpg,AFNE08.jpg,FN,3,num_8,32,num_2,1.51670777984,,,2017_May_12_1541,59.9932076277,MAFE4ImagesEEG,001,200334,
AMSA21.JPG,AMNE22.JPG,AMNE21.JPG,AMSA23.JPG,AMSA22.JPG,AMNE23.JPG,,,,,,,,,,,,,,,,,,,,,0,8,8,1,,,AFSA19.jpg,AFNE05.jpg,AFNE18.jpg,AFSA16.jpg,AFNE18.jpg,FN,3,num_2,16,num_2,2.11673074495,,,2017_May_12_1541,59.9932076277,MAFE4ImagesEEG,001,200334,
AMNE22.JPG,AMSA24.JPG,AMSA22.JPG,AMNE25.JPG,AMNE24.JPG,AMSA25.JPG,,,,,,,,,,,,,,,,,,,,,0,9,9,7,,,AFSA02.jpg,AFNE15.jpg,AFSA09.jpg,AFNE13.jpg,AFNE13.jpg,FN,3,num_4,32,num_6,1.33340892056,,,2017_May_12_1541,59.9932076277,MAFE4ImagesEEG,001,200334,
,,,,,,,,,,,,,,,,,,,,,,,,,,,,,,,,,,,,,,,,,,,space,12.9989123736,2017_May_12_1541,59.9932076277,MAFE4ImagesEEG,001,200334,
AFNE01.JPG,AFNE01.JPG,AFNE01.JPG,AFNE01.JPG,AFNE01.JPG,AFNE01.JPG,0,0,0,5,,,,,,,,,,,,,,,,,,,,,,,AMNE11.jpg,AMSA19.jpg,AMSA20.jpg,AMNE14.jpg,AMSA19.jpg,MS,2,num_6,32,num_4,0.650435772259,,,2017_May_12_1541,59.9932076277,MAFE4ImagesEEG,001,200334,
AFNE01.JPG,AFNE01.JPG,AFNE01.JPG,AFNE01.JPG,AFNE01.JPG,AFNE01.JPG,0,1,1,2,,,,,,,,,,,,,,,,,,,,,,,AMSA02.jpg,AMNE13.jpg,AMNE02.jpg,AMSA17.jpg,AMSA02.jpg,MS,2,num_8,16,num_8,0.600119186565,,,2017_May_12_1541,59.9932076277,MAFE4ImagesEEG,001,200334,
AFNE01.JPG,AFNE01.JPG,AFNE01.JPG,AFNE01.JPG,AFNE01.JPG,AFNE01.JPG,0,2,2,1,,,,,,,,,,,,,,,,,,,,,,,AMNE02.jpg,AMNE12.jpg,AMSA03.jpg,AMSA16.jpg,AMNE12.jpg,MN,1,num_6,16,num_6,0.750090368092,,,2017_May_12_1541,59.9932076277,MAFE4ImagesEEG,001,200334,
AFNE01.JPG,AFNE01.JPG,AFNE01.JPG,AFNE01.JPG,AFNE01.JPG,AFNE01.JPG,0,3,3,8,,,,,,,,,,,,,,,,,,,,,,,AMSA20.jpg,AMNE09.jpg,AMNE16.jpg,AMSA14.jpg,AMNE09.jpg,MN,1,num_6,32,num_2,0.933442149311,,,2017_May_12_1541,59.9932076277,MAFE4ImagesEEG,001,200334,
AFNE01.JPG,AFNE01.JPG,AFNE01.JPG,AFNE01.JPG,AFNE01.JPG,AFNE01.JPG,0,4,4,3,,,,,,,,,,,,,,,,,,,,,,,AMNE20.jpg,AMSA07.jpg,AMNE11.jpg,AMSA15.jpg,AMNE20.jpg,MN,1,num_8,16,num_8,1.01677914429,,,2017_May_12_1541,59.9932076277,MAFE4ImagesEEG,001,200334,
AFNE01.JPG,AFNE01.JPG,AFNE01.JPG,AFNE01.JPG,AFNE01.JPG,AFNE01.JPG,0,5,5,0,,,,,,,,,,,,,,,,,,,,,,,AMSA19.jpg,AMNE16.jpg,AMNE01.jpg,AMSA04.jpg,AMSA19.jpg,MS,2,num_8,32,num_2,0.816803456284,,,2017_May_12_1541,59.9932076277,MAFE4ImagesEEG,001,200334,
AFNE01.JPG,AFNE01.JPG,AFNE01.JPG,AFNE01.JPG,AFNE01.JPG,AFNE01.JPG,0,6,6,7,,,,,,,,,,,,,,,,,,,,,,,AMNE11.jpg,AMNE01.jpg,AMSA05.jpg,AMSA09.jpg,AMSA05.jpg,MS,2,num_2,32,num_8,0.833508510143,,,2017_May_12_1541,59.9932076277,MAFE4ImagesEEG,001,200334,
AFNE01.JPG,AFNE01.JPG,AFNE01.JPG,AFNE01.JPG,AFNE01.JPG,AFNE01.JPG,0,7,7,4,,,,,,,,,,,,,,,,,,,,,,,AMSA09.jpg,AMNE14.jpg,AMNE10.jpg,AMSA08.jpg,AMSA08.jpg,MS,2,num_4,32,num_2,0.966731017455,,,2017_May_12_1541,59.9932076277,MAFE4ImagesEEG,001,200334,
AFNE01.JPG,AFNE01.JPG,AFNE01.JPG,AFNE01.JPG,AFNE01.JPG,AFNE01.JPG,0,8,8,9,,,,,,,,,,,,,,,,,,,,,,,AMSA01.jpg,AMSA19.jpg,AMNE07.jpg,AMNE17.jpg,AMNE07.jpg,MN,1,num_2,32,num_6,1.01673905225,,,2017_May_12_1541,59.9932076277,MAFE4ImagesEEG,001,200334,
AFNE01.JPG,AFNE01.JPG,AFNE01.JPG,AFNE01.JPG,AFNE01.JPG,AFNE01.JPG,0,9,9,6,,,,,,,,,,,,,,,,,,,,,,,AMSA04.jpg,AMNE13.jpg,AMNE15.jpg,AMSA05.jpg,AMSA05.jpg,MS,2,num_4,32,num_2,1.18341657054,,,2017_May_12_1541,59.9932076277,MAFE4ImagesEEG,001,200334,
AFNE01.JPG,AFNE01.JPG,AFNE01.JPG,AFNE01.JPG,AFNE01.JPG,AFNE01.JPG,1,0,10,1,,,,,,,,,,,,,,,,,,,,,,,AMNE19.jpg,AMNE05.jpg,AMSA17.jpg,AMSA05.jpg,AMNE05.jpg,MN,1,num_6,32,num_8,2.14999940665,,,2017_May_12_1541,59.9932076277,MAFE4ImagesEEG,001,200334,
AFNE01.JPG,AFNE01.JPG,AFNE01.JPG,AFNE01.JPG,AFNE01.JPG,AFNE01.JPG,1,1,11,6,,,,,,,,,,,,,,,,,,,,,,,AMSA02.jpg,AMNE03.jpg,AMNE19.jpg,AMSA09.jpg,AMNE03.jpg,MN,1,num_6,16,num_6,0.833571375348,,,2017_May_12_1541,59.9932076277,MAFE4ImagesEEG,001,200334,
AFNE01.JPG,AFNE01.JPG,AFNE01.JPG,AFNE01.JPG,AFNE01.JPG,AFNE01.JPG,1,2,12,4,,,,,,,,,,,,,,,,,,,,,,,AMNE07.jpg,AMSA06.jpg,AMSA19.jpg,AMNE01.jpg,AMSA19.jpg,MS,2,num_2,32,num_6,1.0500705787,,,2017_May_12_1541,59.9932076277,MAFE4ImagesEEG,001,200334,
AFNE01.JPG,AFNE01.JPG,AFNE01.JPG,AFNE01.JPG,AFNE01.JPG,AFNE01.JPG,1,3,13,9,,,,,,,,,,,,,,,,,,,,,,,AMSA08.jpg,AMSA12.jpg,AMNE11.jpg,AMNE01.jpg,AMNE01.jpg,MN,1,num_4,16,num_4,0.533515790943,,,2017_May_12_1541,59.9932076277,MAFE4ImagesEEG,001,200334,
AFNE01.JPG,AFNE01.JPG,AFNE01.JPG,AFNE01.JPG,AFNE01.JPG,AFNE01.JPG,1,4,14,7,,,,,,,,,,,,,,,,,,,,,,,AMNE19.jpg,AMSA12.jpg,AMNE16.jpg,AMSA03.jpg,AMSA12.jpg,MS,2,num_6,32,num_8,1.70012851991,,,2017_May_12_1541,59.9932076277,MAFE4ImagesEEG,001,200334,
AFNE01.JPG,AFNE01.JPG,AFNE01.JPG,AFNE01.JPG,AFNE01.JPG,AFNE01.JPG,1,5,15,3,,,,,,,,,,,,,,,,,,,,,,,AMNE02.jpg,AMNE01.jpg,AMSA07.jpg,AMSA06.jpg,AMSA06.jpg,MS,2,num_4,16,num_4,0.883451755159,,,2017_May_12_1541,59.9932076277,MAFE4ImagesEEG,001,200334,
AFNE01.JPG,AFNE01.JPG,AFNE01.JPG,AFNE01.JPG,AFNE01.JPG,AFNE01.JPG,1,6,16,5,,,,,,,,,,,,,,,,,,,,,,,AMNE02.jpg,AMSA18.jpg,AMNE14.jpg,AMSA06.jpg,AMNE14.jpg,MN,1,num_2,16,num_2,0.833508830983,,,2017_May_12_1541,59.9932076277,MAFE4ImagesEEG,001,200334,
AFNE01.JPG,AFNE01.JPG,AFNE01.JPG,AFNE01.JPG,AFNE01.JPG,AFNE01.JPG,1,7,17,8,,,,,,,,,,,,,,,,,,,,,,,AMSA17.jpg,AMNE17.jpg,AMSA10.jpg,AMNE01.jpg,AMSA17.jpg,MS,2,num_8,32,num_6,0.716766218655,,,2017_May_12_1541,59.9932076277,MAFE4ImagesEEG,001,200334,
AFNE01.JPG,AFNE01.JPG,AFNE01.JPG,AFNE01.JPG,AFNE01.JPG,AFNE01.JPG,1,8,18,2,,,,,,,,,,,,,,,,,,,,,,,AMNE07.jpg,AMNE03.jpg,AMSA19.jpg,AMSA14.jpg,AMNE03.jpg,MN,1,num_6,32,num_8,1.16674166638,,,2017_May_12_1541,59.9932076277,MAFE4ImagesEEG,001,200334,
AFNE01.JPG,AFNE01.JPG,AFNE01.JPG,AFNE01.JPG,AFNE01.JPG,AFNE01.JPG,1,9,19,0,,,,,,,,,,,,,,,,,,,,,,,AMSA01.jpg,AMNE05.jpg,AMNE03.jpg,AMSA17.jpg,AMNE03.jpg,MN,1,num_2,32,num_8,1.28342013061,,,2017_May_12_1541,59.9932076277,MAFE4ImagesEEG,001,200334,
AFNE01.JPG,AFNE01.JPG,AFNE01.JPG,AFNE01.JPG,AFNE01.JPG,AFNE01.JPG,2,0,20,6,,,,,,,,,,,,,,,,,,,,,,,AMSA01.jpg,AMNE14.jpg,AMSA10.jpg,AMNE13.jpg,AMNE13.jpg,MN,1,num_4,16,num_4,1.13340725284,,,2017_May_12_1541,59.9932076277,MAFE4ImagesEEG,001,200334,
AFNE01.JPG,AFNE01.JPG,AFNE01.JPG,AFNE01.JPG,AFNE01.JPG,AFNE01.JPG,2,1,21,0,,,,,,,,,,,,,,,,,,,,,,,AMNE08.jpg,AMSA17.jpg,AMNE06.jpg,AMSA10.jpg,AMSA17.jpg,MS,2,num_6,16,num_6,1.28343841247,,,2017_May_12_1541,59.9932076277,MAFE4ImagesEEG,001,200334,
AFNE01.JPG,AFNE01.JPG,AFNE01.JPG,AFNE01.JPG,AFNE01.JPG,AFNE01.JPG,2,2,22,1,,,,,,,,,,,,,,,,,,,,,,,AMNE12.jpg,AMSA04.jpg,AMSA09.jpg,AMNE09.jpg,AMNE09.jpg,MN,1,num_4,16,num_4,0.9838225618,,,2017_May_12_1541,59.9932076277,MAFE4ImagesEEG,001,200334,
AFNE01.JPG,AFNE01.JPG,AFNE01.JPG,AFNE01.JPG,AFNE01.JPG,AFNE01.JPG,2,3,23,8,,,,,,,,,,,,,,,,,,,,,,,AMNE10.jpg,AMNE09.jpg,AMSA20.jpg,AMSA18.jpg,AMSA18.jpg,MS,2,num_4,16,num_4,0.600160561968,,,2017_May_12_1541,59.9932076277,MAFE4ImagesEEG,001,200334,
AFNE01.JPG,AFNE01.JPG,AFNE01.JPG,AFNE01.JPG,AFNE01.JPG,AFNE01.JPG,2,4,24,5,,,,,,,,,,,,,,,,,,,,,,,AMNE08.jpg,AMSA03.jpg,AMNE03.jpg,AMSA02.jpg,AMNE03.jpg,MN,1,num_2,32,num_4,1.10009817826,,,2017_May_12_1541,59.9932076277,MAFE4ImagesEEG,001,200334,
AFNE01.JPG,AFNE01.JPG,AFNE01.JPG,AFNE01.JPG,AFNE01.JPG,AFNE01.JPG,2,5,25,3,,,,,,,,,,,,,,,,,,,,,,,AMSA19.jpg,AMNE15.jpg,AMSA04.jpg,AMNE14.jpg,AMSA04.jpg,MS,2,num_2,16,num_2,1.56667604297,,,2017_May_12_1541,59.9932076277,MAFE4ImagesEEG,001,200334,
AFNE01.JPG,AFNE01.JPG,AFNE01.JPG,AFNE01.JPG,AFNE01.JPG,AFNE01.JPG,2,6,26,7,,,,,,,,,,,,,,,,,,,,,,,AMNE03.jpg,AMSA02.jpg,AMSA05.jpg,AMNE15.jpg,AMSA05.jpg,MS,2,num_2,32,num_8,1.35004533641,,,2017_May_12_1541,59.9932076277,MAFE4ImagesEEG,001,200334,
AFNE01.JPG,AFNE01.JPG,AFNE01.JPG,AFNE01.JPG,AFNE01.JPG,AFNE01.JPG,2,7,27,2,,,,,,,,,,,,,,,,,,,,,,,AMSA16.jpg,AMNE18.jpg,AMSA08.jpg,AMNE06.jpg,AMNE06.jpg,MN,1,num_4,16,num_4,0.733474159148,,,2017_May_12_1541,59.9932076277,MAFE4ImagesEEG,001,200334,
AFNE01.JPG,AFNE01.JPG,AFNE01.JPG,AFNE01.JPG,AFNE01.JPG,AFNE01.JPG,2,8,28,4,,,,,,,,,,,,,,,,,,,,,,,AMNE04.jpg,AMNE11.jpg,AMSA10.jpg,AMSA11.jpg,AMSA10.jpg,MS,2,num_2,16,num_2,1.50003864896,,,2017_May_12_1541,59.9932076277,MAFE4ImagesEEG,001,200334,
AFNE01.JPG,AFNE01.JPG,AFNE01.JPG,AFNE01.JPG,AFNE01.JPG,AFNE01.JPG,2,9,29,9,,,,,,,,,,,,,,,,,,,,,,,AMNE13.jpg,AMNE15.jpg,AMSA02.jpg,AMSA04.jpg,AMSA04.jpg,MS,2,num_4,16,num_4,2.26664066548,,,2017_May_12_1541,59.9932076277,MAFE4ImagesEEG,001,200334,
AFNE01.JPG,AFNE01.JPG,AFNE01.JPG,AFNE01.JPG,AFNE01.JPG,AFNE01.JPG,3,0,30,2,,,,,,,,,,,,,,,,,,,,,,,AMSA04.jpg,AMNE17.jpg,AMSA02.jpg,AMNE03.jpg,AMSA02.jpg,MS,2,num_2,16,num_2,1.39978940273,,,2017_May_12_1541,59.9932076277,MAFE4ImagesEEG,001,200334,
AFNE01.JPG,AFNE01.JPG,AFNE01.JPG,AFNE01.JPG,AFNE01.JPG,AFNE01.JPG,3,1,31,7,,,,,,,,,,,,,,,,,,,,,,,AMSA03.jpg,AMNE05.jpg,AMSA01.jpg,AMNE15.jpg,AMNE05.jpg,MN,1,num_6,16,num_6,0.88341871975,,,2017_May_12_1541,59.9932076277,MAFE4ImagesEEG,001,200334,
AFNE01.JPG,AFNE01.JPG,AFNE01.JPG,AFNE01.JPG,AFNE01.JPG,AFNE01.JPG,3,2,32,6,,,,,,,,,,,,,,,,,,,,,,,AMNE09.jpg,AMNE05.jpg,AMSA14.jpg,AMSA20.jpg,AMNE09.jpg,MN,1,num_8,32,num_6,0.850099380594,,,2017_May_12_1541,59.9932076277,MAFE4ImagesEEG,001,200334,
AFNE01.JPG,AFNE01.JPG,AFNE01.JPG,AFNE01.JPG,AFNE01.JPG,AFNE01.JPG,3,3,33,8,,,,,,,,,,,,,,,,,,,,,,,AMSA13.jpg,AMNE12.jpg,AMSA02.jpg,AMNE18.jpg,AMNE12.jpg,MN,1,num_6,16,num_6,0.916774301324,,,2017_May_12_1541,59.9932076277,MAFE4ImagesEEG,001,200334,
AFNE01.JPG,AFNE01.JPG,AFNE01.JPG,AFNE01.JPG,AFNE01.JPG,AFNE01.JPG,3,4,34,3,,,,,,,,,,,,,,,,,,,,,,,AMNE18.jpg,AMNE07.jpg,AMSA07.jpg,AMSA02.jpg,AMSA02.jpg,MS,2,num_4,16,num_4,0.966760205105,,,2017_May_12_1541,59.9932076277,MAFE4ImagesEEG,001,200334,
AFNE01.JPG,AFNE01.JPG,AFNE01.JPG,AFNE01.JPG,AFNE01.JPG,AFNE01.JPG,3,5,35,9,,,,,,,,,,,,,,,,,,,,,,,AMSA07.jpg,AMNE04.jpg,AMSA10.jpg,AMNE08.jpg,AMSA07.jpg,MS,2,num_8,32,num_2,1.31671348959,,,2017_May_12_1541,59.9932076277,MAFE4ImagesEEG,001,200334,
AFNE01.JPG,AFNE01.JPG,AFNE01.JPG,AFNE01.JPG,AFNE01.JPG,AFNE01.JPG,3,6,36,5,,,,,,,,,,,,,,,,,,,,,,,AMSA08.jpg,AMNE12.jpg,AMNE17.jpg,AMSA05.jpg,AMSA05.jpg,MS,2,num_4,16,num_4,0.866755682509,,,2017_May_12_1541,59.9932076277,MAFE4ImagesEEG,001,200334,
AFNE01.JPG,AFNE01.JPG,AFNE01.JPG,AFNE01.JPG,AFNE01.JPG,AFNE01.JPG,3,7,37,0,,,,,,,,,,,,,,,,,,,,,,,AMSA20.jpg,AMSA14.jpg,AMNE06.jpg,AMNE20.jpg,AMSA14.jpg,MS,2,num_6,16,num_6,0.90016194107,,,2017_May_12_1541,59.9932076277,MAFE4ImagesEEG,001,200334,
AFNE01.JPG,AFNE01.JPG,AFNE01.JPG,AFNE01.JPG,AFNE01.JPG,AFNE01.JPG,3,8,38,1,,,,,,,,,,,,,,,,,,,,,,,AMSA14.jpg,AMSA05.jpg,AMNE18.jpg,AMNE16.jpg,AMSA05.jpg,MS,2,num_6,16,num_6,0.700102219824,,,2017_May_12_1541,59.9932076277,MAFE4ImagesEEG,001,200334,
AFNE01.JPG,AFNE01.JPG,AFNE01.JPG,AFNE01.JPG,AFNE01.JPG,AFNE01.JPG,3,9,39,4,,,,,,,,,,,,,,,,,,,,,,,AMSA11.jpg,AMNE09.jpg,AMSA10.jpg,AMNE06.jpg,AMSA11.jpg,MS,2,num_8,16,num_8,1.48339132825,,,2017_May_12_1541,59.9932076277,MAFE4ImagesEEG,001,200334,
AFNE01.JPG,AFNE01.JPG,AFNE01.JPG,AFNE01.JPG,AFNE01.JPG,AFNE01.JPG,4,0,40,6,,,,,,,,,,,,,,,,,,,,,,,AMNE09.jpg,AMSA08.jpg,AMSA20.jpg,AMNE04.jpg,AMNE09.jpg,MN,1,num_8,16,num_8,0.850128247403,,,2017_May_12_1541,59.9932076277,MAFE4ImagesEEG,001,200334,
AFNE01.JPG,AFNE01.JPG,AFNE01.JPG,AFNE01.JPG,AFNE01.JPG,AFNE01.JPG,4,1,41,1,,,,,,,,,,,,,,,,,,,,,,,AMNE18.jpg,AMSA19.jpg,AMNE10.jpg,AMSA13.jpg,AMSA13.jpg,MS,2,num_4,16,num_4,0.799845660571,,,2017_May_12_1541,59.9932076277,MAFE4ImagesEEG,001,200334,
AFNE01.JPG,AFNE01.JPG,AFNE01.JPG,AFNE01.JPG,AFNE01.JPG,AFNE01.JPG,4,2,42,3,,,,,,,,,,,,,,,,,,,,,,,AMNE06.jpg,AMSA15.jpg,AMSA07.jpg,AMNE14.jpg,AMSA07.jpg,MS,2,num_2,16,num_2,1.03337161895,,,2017_May_12_1541,59.9932076277,MAFE4ImagesEEG,001,200334,
AFNE01.JPG,AFNE01.JPG,AFNE01.JPG,AFNE01.JPG,AFNE01.JPG,AFNE01.JPG,4,3,43,4,,,,,,,,,,,,,,,,,,,,,,,AMSA05.jpg,AMNE02.jpg,AMSA09.jpg,AMNE20.jpg,AMNE20.jpg,MN,1,num_4,16,num_4,0.533497829922,,,2017_May_12_1541,59.9932076277,MAFE4ImagesEEG,001,200334,
AFNE01.JPG,AFNE01.JPG,AFNE01.JPG,AFNE01.JPG,AFNE01.JPG,AFNE01.JPG,4,4,44,8,,,,,,,,,,,,,,,,,,,,,,,AMSA10.jpg,AMNE18.jpg,AMNE20.jpg,AMSA05.jpg,AMSA05.jpg,MS,2,num_4,16,num_4,2.13337870734,,,2017_May_12_1541,59.9932076277,MAFE4ImagesEEG,001,200334,
AFNE01.JPG,AFNE01.JPG,AFNE01.JPG,AFNE01.JPG,AFNE01.JPG,AFNE01.JPG,4,5,45,7,,,,,,,,,,,,,,,,,,,,,,,AMSA02.jpg,AMNE15.jpg,AMNE01.jpg,AMSA17.jpg,AMSA17.jpg,MS,2,num_4,32,num_2,1.7000371092,,,2017_May_12_1541,59.9932076277,MAFE4ImagesEEG,001,200334,
AFNE01.JPG,AFNE01.JPG,AFNE01.JPG,AFNE01.JPG,AFNE01.JPG,AFNE01.JPG,4,6,46,0,,,,,,,,,,,,,,,,,,,,,,,AMSA17.jpg,AMNE15.jpg,AMNE07.jpg,AMSA11.jpg,AMNE15.jpg,MN,1,num_6,16,num_6,0.933463959489,,,2017_May_12_1541,59.9932076277,MAFE4ImagesEEG,001,200334,
AFNE01.JPG,AFNE01.JPG,AFNE01.JPG,AFNE01.JPG,AFNE01.JPG,AFNE01.JPG,4,7,47,5,,,,,,,,,,,,,,,,,,,,,,,AMSA20.jpg,AMNE19.jpg,AMNE05.jpg,AMSA08.jpg,AMNE19.jpg,MN,1,num_6,32,num_8,1.3167253565,,,2017_May_12_1541,59.9932076277,MAFE4ImagesEEG,001,200334,
AFNE01.JPG,AFNE01.JPG,AFNE01.JPG,AFNE01.JPG,AFNE01.JPG,AFNE01.JPG,4,8,48,2,,,,,,,,,,,,,,,,,,,,,,,AMSA11.jpg,AMSA20.jpg,AMNE11.jpg,AMNE20.jpg,AMNE11.jpg,MN,1,num_2,32,num_6,3.64988955343,,,2017_May_12_1541,59.9932076277,MAFE4ImagesEEG,001,200334,
AFNE01.JPG,AFNE01.JPG,AFNE01.JPG,AFNE01.JPG,AFNE01.JPG,AFNE01.JPG,4,9,49,9,,,,,,,,,,,,,,,,,,,,,,,AMNE20.jpg,AMSA09.jpg,AMSA14.jpg,AMNE08.jpg,AMNE20.jpg,MN,1,num_8,32,num_6,0.800122137181,,,2017_May_12_1541,59.9932076277,MAFE4ImagesEEG,001,200334,
AFNE01.JPG,AFNE01.JPG,AFNE01.JPG,AFNE01.JPG,AFNE01.JPG,AFNE01.JPG,5,0,50,0,,,,,,,,,,,,,,,,,,,,,,,AMNE17.jpg,AMSA06.jpg,AMSA19.jpg,AMNE13.jpg,AMNE13.jpg,MN,1,num_4,16,num_4,0.483488833066,,,2017_May_12_1541,59.9932076277,MAFE4ImagesEEG,001,200334,
AFNE01.JPG,AFNE01.JPG,AFNE01.JPG,AFNE01.JPG,AFNE01.JPG,AFNE01.JPG,5,1,51,8,,,,,,,,,,,,,,,,,,,,,,,AMNE05.jpg,AMNE06.jpg,AMSA11.jpg,AMSA05.jpg,AMSA05.jpg,MS,2,num_4,32,num_6,0.800144268665,,,2017_May_12_1541,59.9932076277,MAFE4ImagesEEG,001,200334,
AFNE01.JPG,AFNE01.JPG,AFNE01.JPG,AFNE01.JPG,AFNE01.JPG,AFNE01.JPG,5,2,52,1,,,,,,,,,,,,,,,,,,,,,,,AMSA12.jpg,AMSA17.jpg,AMNE10.jpg,AMNE16.jpg,AMSA12.jpg,MS,2,num_8,32,num_2,0.983434468042,,,2017_May_12_1541,59.9932076277,MAFE4ImagesEEG,001,200334,
AFNE01.JPG,AFNE01.JPG,AFNE01.JPG,AFNE01.JPG,AFNE01.JPG,AFNE01.JPG,5,3,53,3,,,,,,,,,,,,,,,,,,,,,,,AMNE06.jpg,AMNE03.jpg,AMSA09.jpg,AMSA11.jpg,AMNE03.jpg,MN,1,num_6,32,num_8,0.916781999171,,,2017_May_12_1541,59.9932076277,MAFE4ImagesEEG,001,200334,
AFNE01.JPG,AFNE01.JPG,AFNE01.JPG,AFNE01.JPG,AFNE01.JPG,AFNE01.JPG,5,4,54,6,,,,,,,,,,,,,,,,,,,,,,,AMNE17.jpg,AMSA19.jpg,AMSA13.jpg,AMNE01.jpg,AMSA19.jpg,MS,2,num_6,16,num_6,0.800444480032,,,2017_May_12_1541,59.9932076277,MAFE4ImagesEEG,001,200334,
AFNE01.JPG,AFNE01.JPG,AFNE01.JPG,AFNE01.JPG,AFNE01.JPG,AFNE01.JPG,5,5,55,7,,,,,,,,,,,,,,,,,,,,,,,AMNE12.jpg,AMNE14.jpg,AMSA13.jpg,AMSA10.jpg,AMSA10.jpg,MS,2,num_4,16,num_4,1.80004676385,,,2017_May_12_1541,59.9932076277,MAFE4ImagesEEG,001,200334,
AFNE01.JPG,AFNE01.JPG,AFNE01.JPG,AFNE01.JPG,AFNE01.JPG,AFNE01.JPG,5,6,56,2,,,,,,,,,,,,,,,,,,,,,,,AMSA10.jpg,AMNE20.jpg,AMSA01.jpg,AMNE17.jpg,AMNE17.jpg,MN,1,num_4,16,num_4,0.833506265189,,,2017_May_12_1541,59.9932076277,MAFE4ImagesEEG,001,200334,
AFNE01.JPG,AFNE01.JPG,AFNE01.JPG,AFNE01.JPG,AFNE01.JPG,AFNE01.JPG,5,7,57,4,,,,,,,,,,,,,,,,,,,,,,,AMNE02.jpg,AMNE19.jpg,AMSA10.jpg,AMSA11.jpg,AMSA10.jpg,MS,2,num_2,16,num_2,1.08349640248,,,2017_May_12_1541,59.9932076277,MAFE4ImagesEEG,001,200334,
AFNE01.JPG,AFNE01.JPG,AFNE01.JPG,AFNE01.JPG,AFNE01.JPG,AFNE01.JPG,5,8,58,5,,,,,,,,,,,,,,,,,,,,,,,AMNE02.jpg,AMSA10.jpg,AMNE15.jpg,AMSA06.jpg,AMSA10.jpg,MS,2,num_6,16,num_6,0.650131711736,,,2017_May_12_1541,59.9932076277,MAFE4ImagesEEG,001,200334,
AFNE01.JPG,AFNE01.JPG,AFNE01.JPG,AFNE01.JPG,AFNE01.JPG,AFNE01.JPG,5,9,59,9,,,,,,,,,,,,,,,,,,,,,,,AMSA19.jpg,AMNE03.jpg,AMNE17.jpg,AMSA14.jpg,AMSA19.jpg,MS,2,num_8,16,num_8,1.16675706161,,,2017_May_12_1541,59.9932076277,MAFE4ImagesEEG,001,200334,
,,,,,,,,,,,,,,,,,,,,,,,,,,,,,,,,,,,,,,,,,,,space,21.5648237746,2017_May_12_1541,59.9932076277,MAFE4ImagesEEG,001,200334,
AFNE01.JPG,AFNE01.JPG,AFNE01.JPG,AFNE01.JPG,AFNE01.JPG,AFNE01.JPG,,,,,0,0,0,6,,,,,,,,,,,,,,,,,,,AFSA04.jpg,AFNE13.jpg,AFSA18.jpg,AFNE12.jpg,AFNE12.jpg,FN,3,num_4,16,num_4,0.983402393758,,,2017_May_12_1541,59.9932076277,MAFE4ImagesEEG,001,200334,
AFNE01.JPG,AFNE01.JPG,AFNE01.JPG,AFNE01.JPG,AFNE01.JPG,AFNE01.JPG,,,,,0,1,1,0,,,,,,,,,,,,,,,,,,,AFNE04.jpg,AFSA08.jpg,AFSA18.jpg,AFNE16.jpg,AFNE16.jpg,FN,3,num_4,16,num_4,0.616835787427,,,2017_May_12_1541,59.9932076277,MAFE4ImagesEEG,001,200334,
AFNE01.JPG,AFNE01.JPG,AFNE01.JPG,AFNE01.JPG,AFNE01.JPG,AFNE01.JPG,,,,,0,2,2,4,,,,,,,,,,,,,,,,,,,AFNE18.jpg,AFNE06.jpg,AFSA10.jpg,AFSA08.jpg,AFNE06.jpg,FN,3,num_6,16,num_6,0.550107303075,,,2017_May_12_1541,59.9932076277,MAFE4ImagesEEG,001,200334,
AFNE01.JPG,AFNE01.JPG,AFNE01.JPG,AFNE01.JPG,AFNE01.JPG,AFNE01.JPG,,,,,0,3,3,2,,,,,,,,,,,,,,,,,,,AFNE05.jpg,AFSA05.jpg,AFSA18.jpg,AFNE10.jpg,AFNE05.jpg,FN,3,num_8,16,num_8,0.73346902756,,,2017_May_12_1541,59.9932076277,MAFE4ImagesEEG,001,200334,
AFNE01.JPG,AFNE01.JPG,AFNE01.JPG,AFNE01.JPG,AFNE01.JPG,AFNE01.JPG,,,,,0,4,4,7,,,,,,,,,,,,,,,,,,,AFSA02.jpg,AFNE20.jpg,AFSA01.jpg,AFNE14.jpg,AFNE14.jpg,FN,3,num_4,16,num_4,0.450164683163,,,2017_May_12_1541,59.9932076277,MAFE4ImagesEEG,001,200334,
AFNE01.JPG,AFNE01.JPG,AFNE01.JPG,AFNE01.JPG,AFNE01.JPG,AFNE01.JPG,,,,,0,5,5,9,,,,,,,,,,,,,,,,,,,AFNE06.jpg,AFSA07.jpg,AFSA10.jpg,AFNE13.jpg,AFSA10.jpg,FS,4,num_2,16,num_2,1.35011237068,,,2017_May_12_1541,59.9932076277,MAFE4ImagesEEG,001,200334,
AFNE01.JPG,AFNE01.JPG,AFNE01.JPG,AFNE01.JPG,AFNE01.JPG,AFNE01.JPG,,,,,0,6,6,3,,,,,,,,,,,,,,,,,,,AFNE10.jpg,AFSA09.jpg,AFSA12.jpg,AFNE06.jpg,AFSA09.jpg,FS,4,num_6,32,num_2,1.08343802765,,,2017_May_12_1541,59.9932076277,MAFE4ImagesEEG,001,200334,
AFNE01.JPG,AFNE01.JPG,AFNE01.JPG,AFNE01.JPG,AFNE01.JPG,AFNE01.JPG,,,,,0,7,7,5,,,,,,,,,,,,,,,,,,,AFSA13.jpg,AFNE13.jpg,AFSA06.jpg,AFNE11.jpg,AFSA13.jpg,FS,4,num_8,32,num_2,1.28344065789,,,2017_May_12_1541,59.9932076277,MAFE4ImagesEEG,001,200334,
AFNE01.JPG,AFNE01.JPG,AFNE01.JPG,AFNE01.JPG,AFNE01.JPG,AFNE01.JPG,,,,,0,8,8,8,,,,,,,,,,,,,,,,,,,AFNE03.jpg,AFSA17.jpg,AFNE12.jpg,AFSA14.jpg,AFSA17.jpg,FS,4,num_6,16,num_6,0.883496979717,,,2017_May_12_1541,59.9932076277,MAFE4ImagesEEG,001,200334,
AFNE01.JPG,AFNE01.JPG,AFNE01.JPG,AFNE01.JPG,AFNE01.JPG,AFNE01.JPG,,,,,0,9,9,1,,,,,,,,,,,,,,,,,,,AFNE08.jpg,AFSA11.jpg,AFSA15.jpg,AFNE03.jpg,AFSA11.jpg,FS,4,num_6,16,num_6,1.66673060041,,,2017_May_12_1541,59.9932076277,MAFE4ImagesEEG,001,200334,
AFNE01.JPG,AFNE01.JPG,AFNE01.JPG,AFNE01.JPG,AFNE01.JPG,AFNE01.JPG,,,,,1,0,10,4,,,,,,,,,,,,,,,,,,,AFNE09.jpg,AFSA15.jpg,AFSA16.jpg,AFNE11.jpg,AFSA16.jpg,FS,4,num_2,16,num_2,0.766773932613,,,2017_May_12_1541,59.9932076277,MAFE4ImagesEEG,001,200334,
AFNE01.JPG,AFNE01.JPG,AFNE01.JPG,AFNE01.JPG,AFNE01.JPG,AFNE01.JPG,,,,,1,1,11,9,,,,,,,,,,,,,,,,,,,AFNE07.jpg,AFSA01.jpg,AFNE05.jpg,AFSA04.jpg,AFNE07.jpg,FN,3,num_8,16,num_8,0.683443031274,,,2017_May_12_1541,59.9932076277,MAFE4ImagesEEG,001,200334,
AFNE01.JPG,AFNE01.JPG,AFNE01.JPG,AFNE01.JPG,AFNE01.JPG,AFNE01.JPG,,,,,1,2,12,6,,,,,,,,,,,,,,,,,,,AFSA13.jpg,AFNE01.jpg,AFNE08.jpg,AFSA12.jpg,AFSA13.jpg,FS,4,num_8,32,num_6,0.650458865333,,,2017_May_12_1541,59.9932076277,MAFE4ImagesEEG,001,200334,
AFNE01.JPG,AFNE01.JPG,AFNE01.JPG,AFNE01.JPG,AFNE01.JPG,AFNE01.JPG,,,,,1,3,13,5,,,,,,,,,,,,,,,,,,,AFNE03.jpg,AFSA07.jpg,AFSA02.jpg,AFNE09.jpg,AFNE03.jpg,FN,3,num_8,16,num_8,2.51674049534,,,2017_May_12_1541,59.9932076277,MAFE4ImagesEEG,001,200334,
AFNE01.JPG,AFNE01.JPG,AFNE01.JPG,AFNE01.JPG,AFNE01.JPG,AFNE01.JPG,,,,,1,4,14,1,,,,,,,,,,,,,,,,,,,AFSA14.jpg,AFNE20.jpg,AFSA12.jpg,AFNE04.jpg,AFNE20.jpg,FN,3,num_6,32,num_2,1.29990644054,,,2017_May_12_1541,59.9932076277,MAFE4ImagesEEG,001,200334,
AFNE01.JPG,AFNE01.JPG,AFNE01.JPG,AFNE01.JPG,AFNE01.JPG,AFNE01.JPG,,,,,1,5,15,3,,,,,,,,,,,,,,,,,,,AFSA16.jpg,AFNE05.jpg,AFNE11.jpg,AFSA05.jpg,AFNE05.jpg,FN,3,num_6,32,num_4,1.11672593374,,,2017_May_12_1541,59.9932076277,MAFE4ImagesEEG,001,200334,
AFNE01.JPG,AFNE01.JPG,AFNE01.JPG,AFNE01.JPG,AFNE01.JPG,AFNE01.JPG,,,,,1,6,16,8,,,,,,,,,,,,,,,,,,,AFNE19.jpg,AFSA01.jpg,AFSA20.jpg,AFNE09.jpg,AFNE09.jpg,FN,3,num_4,16,num_4,1.0667631235,,,2017_May_12_1541,59.9932076277,MAFE4ImagesEEG,001,200334,
AFNE01.JPG,AFNE01.JPG,AFNE01.JPG,AFNE01.JPG,AFNE01.JPG,AFNE01.JPG,,,,,1,7,17,0,,,,,,,,,,,,,,,,,,,AFSA06.jpg,AFNE15.jpg,AFNE08.jpg,AFSA01.jpg,AFSA06.jpg,FS,4,num_8,16,num_8,1.48338940414,,,2017_May_12_1541,59.9932076277,MAFE4ImagesEEG,001,200334,
AFNE01.JPG,AFNE01.JPG,AFNE01.JPG,AFNE01.JPG,AFNE01.JPG,AFNE01.JPG,,,,,1,8,18,2,,,,,,,,,,,,,,,,,,,AFNE13.jpg,AFNE18.jpg,AFSA09.jpg,AFSA11.jpg,AFSA11.jpg,FS,4,num_4,16,num_4,0.966801259667,,,2017_May_12_1541,59.9932076277,MAFE4ImagesEEG,001,200334,
AFNE01.JPG,AFNE01.JPG,AFNE01.JPG,AFNE01.JPG,AFNE01.JPG,AFNE01.JPG,,,,,1,9,19,7,,,,,,,,,,,,,,,,,,,AFSA16.jpg,AFSA19.jpg,AFNE08.jpg,AFNE10.jpg,AFSA16.jpg,FS,4,num_8,32,num_6,1.31669360353,,,2017_May_12_1541,59.9932076277,MAFE4ImagesEEG,001,200334,
AFNE01.JPG,AFNE01.JPG,AFNE01.JPG,AFNE01.JPG,AFNE01.JPG,AFNE01.JPG,,,,,2,0,20,4,,,,,,,,,,,,,,,,,,,AFSA06.jpg,AFNE04.jpg,AFSA13.jpg,AFNE05.jpg,AFSA06.jpg,FS,4,num_8,32,num_2,1.51669495041,,,2017_May_12_1541,59.9932076277,MAFE4ImagesEEG,001,200334,
AFNE01.JPG,AFNE01.JPG,AFNE01.JPG,AFNE01.JPG,AFNE01.JPG,AFNE01.JPG,,,,,2,1,21,6,,,,,,,,,,,,,,,,,,,AFNE04.jpg,AFNE20.jpg,AFSA07.jpg,AFSA17.jpg,AFSA17.jpg,FS,4,num_4,32,num_6,1.48341987375,,,2017_May_12_1541,59.9932076277,MAFE4ImagesEEG,001,200334,
AFNE01.JPG,AFNE01.JPG,AFNE01.JPG,AFNE01.JPG,AFNE01.JPG,AFNE01.JPG,,,,,2,2,22,1,,,,,,,,,,,,,,,,,,,AFSA02.jpg,AFSA18.jpg,AFNE07.jpg,AFNE16.jpg,AFSA18.jpg,FS,4,num_6,32,num_4,0.583458715584,,,2017_May_12_1541,59.9932076277,MAFE4ImagesEEG,001,200334,
AFNE01.JPG,AFNE01.JPG,AFNE01.JPG,AFNE01.JPG,AFNE01.JPG,AFNE01.JPG,,,,,2,3,23,0,,,,,,,,,,,,,,,,,,,AFSA03.jpg,AFNE16.jpg,AFSA17.jpg,AFNE19.jpg,AFSA17.jpg,FS,4,num_2,16,num_2,1.91671432275,,,2017_May_12_1541,59.9932076277,MAFE4ImagesEEG,001,200334,
AFNE01.JPG,AFNE01.JPG,AFNE01.JPG,AFNE01.JPG,AFNE01.JPG,AFNE01.JPG,,,,,2,4,24,3,,,,,,,,,,,,,,,,,,,AFSA19.jpg,AFNE13.jpg,AFNE02.jpg,AFSA14.jpg,AFSA14.jpg,FS,4,num_4,16,num_4,0.766778102145,,,2017_May_12_1541,59.9932076277,MAFE4ImagesEEG,001,200334,
AFNE01.JPG,AFNE01.JPG,AFNE01.JPG,AFNE01.JPG,AFNE01.JPG,AFNE01.JPG,,,,,2,5,25,9,,,,,,,,,,,,,,,,,,,AFNE10.jpg,AFNE18.jpg,AFSA08.jpg,AFSA14.jpg,AFNE10.jpg,FN,3,num_8,16,num_8,0.783453647979,,,2017_May_12_1541,59.9932076277,MAFE4ImagesEEG,001,200334,
AFNE01.JPG,AFNE01.JPG,AFNE01.JPG,AFNE01.JPG,AFNE01.JPG,AFNE01.JPG,,,,,2,6,26,7,,,,,,,,,,,,,,,,,,,AFNE17.jpg,AFNE10.jpg,AFSA20.jpg,AFSA18.jpg,AFSA20.jpg,FS,4,num_2,32,num_6,1.1667750231,,,2017_May_12_1541,59.9932076277,MAFE4ImagesEEG,001,200334,
AFNE01.JPG,AFNE01.JPG,AFNE01.JPG,AFNE01.JPG,AFNE01.JPG,AFNE01.JPG,,,,,2,7,27,5,,,,,,,,,,,,,,,,,,,AFSA14.jpg,AFNE11.jpg,AFNE02.jpg,AFSA07.jpg,AFSA07.jpg,FS,4,num_4,16,num_4,0.733439519536,,,2017_May_12_1541,59.9932076277,MAFE4ImagesEEG,001,200334,
AFNE01.JPG,AFNE01.JPG,AFNE01.JPG,AFNE01.JPG,AFNE01.JPG,AFNE01.JPG,,,,,2,8,28,8,,,,,,,,,,,,,,,,,,,AFSA12.jpg,AFNE17.jpg,AFSA04.jpg,AFNE09.jpg,AFNE17.jpg,FN,3,num_6,16,num_6,1.28342654556,,,2017_May_12_1541,59.9932076277,MAFE4ImagesEEG,001,200334,
AFNE01.JPG,AFNE01.JPG,AFNE01.JPG,AFNE01.JPG,AFNE01.JPG,AFNE01.JPG,,,,,2,9,29,2,,,,,,,,,,,,,,,,,,,AFNE08.jpg,AFSA03.jpg,AFNE03.jpg,AFSA17.jpg,AFSA17.jpg,FS,4,num_4,16,num_4,0.900138206314,,,2017_May_12_1541,59.9932076277,MAFE4ImagesEEG,001,200334,
AFNE01.JPG,AFNE01.JPG,AFNE01.JPG,AFNE01.JPG,AFNE01.JPG,AFNE01.JPG,,,,,3,0,30,7,,,,,,,,,,,,,,,,,,,AFSA05.jpg,AFNE04.jpg,AFSA10.jpg,AFNE20.jpg,AFSA05.jpg,FS,4,num_8,16,num_8,1.14965493325,,,2017_May_12_1541,59.9932076277,MAFE4ImagesEEG,001,200334,
AFNE01.JPG,AFNE01.JPG,AFNE01.JPG,AFNE01.JPG,AFNE01.JPG,AFNE01.JPG,,,,,3,1,31,8,,,,,,,,,,,,,,,,,,,AFSA06.jpg,AFSA13.jpg,AFNE17.jpg,AFNE08.jpg,AFSA13.jpg,FS,4,num_6,32,num_4,1.65006628074,,,2017_May_12_1541,59.9932076277,MAFE4ImagesEEG,001,200334,
AFNE01.JPG,AFNE01.JPG,AFNE01.JPG,AFNE01.JPG,AFNE01.JPG,AFNE01.JPG,,,,,3,2,32,5,,,,,,,,,,,,,,,,,,,AFNE12.jpg,AFNE03.jpg,AFSA06.jpg,AFSA08.jpg,AFSA08.jpg,FS,4,num_4,32,num_8,0.950090111699,,,2017_May_12_1541,59.9932076277,MAFE4ImagesEEG,001,200334,
AFNE01.JPG,AFNE01.JPG,AFNE01.JPG,AFNE01.JPG,AFNE01.JPG,AFNE01.JPG,,,,,3,3,33,9,,,,,,,,,,,,,,,,,,,AFSA15.jpg,AFNE06.jpg,AFNE13.jpg,AFSA17.jpg,AFSA17.jpg,FS,4,num_4,32,num_6,1.33369502006,,,2017_May_12_1541,59.9932076277,MAFE4ImagesEEG,001,200334,
AFNE01.JPG,AFNE01.JPG,AFNE01.JPG,AFNE01.JPG,AFNE01.JPG,AFNE01.JPG,,,,,3,4,34,0,,,,,,,,,,,,,,,,,,,AFSA14.jpg,AFNE17.jpg,AFSA01.jpg,AFNE05.jpg,AFNE17.jpg,FN,3,num_6,32,num_4,0.73363837786,,,2017_May_12_1541,59.9932076277,MAFE4ImagesEEG,001,200334,
AFNE01.JPG,AFNE01.JPG,AFNE01.JPG,AFNE01.JPG,AFNE01.JPG,AFNE01.JPG,,,,,3,5,35,3,,,,,,,,,,,,,,,,,,,AFSA10.jpg,AFNE11.jpg,AFNE04.jpg,AFSA11.jpg,AFSA11.jpg,FS,4,num_4,16,num_4,1.10007668892,,,2017_May_12_1541,59.9932076277,MAFE4ImagesEEG,001,200334,
AFNE01.JPG,AFNE01.JPG,AFNE01.JPG,AFNE01.JPG,AFNE01.JPG,AFNE01.JPG,,,,,3,6,36,6,,,,,,,,,,,,,,,,,,,AFNE18.jpg,AFNE02.jpg,AFSA10.jpg,AFSA11.jpg,AFNE18.jpg,FN,3,num_8,16,num_8,1.18342138175,,,2017_May_12_1541,59.9932076277,MAFE4ImagesEEG,001,200334,
AFNE01.JPG,AFNE01.JPG,AFNE01.JPG,AFNE01.JPG,AFNE01.JPG,AFNE01.JPG,,,,,3,7,37,4,,,,,,,,,,,,,,,,,,,AFNE17.jpg,AFSA14.jpg,AFNE07.jpg,AFSA01.jpg,AFNE07.jpg,FN,3,num_2,16,num_2,1.10010619648,,,2017_May_12_1541,59.9932076277,MAFE4ImagesEEG,001,200334,
AFNE01.JPG,AFNE01.JPG,AFNE01.JPG,AFNE01.JPG,AFNE01.JPG,AFNE01.JPG,,,,,3,8,38,2,,,,,,,,,,,,,,,,,,,AFNE01.jpg,AFSA01.jpg,AFSA13.jpg,AFNE15.jpg,AFSA01.jpg,FS,4,num_6,32,num_8,1.00009942893,,,2017_May_12_1541,59.9932076277,MAFE4ImagesEEG,001,200334,
AFNE01.JPG,AFNE01.JPG,AFNE01.JPG,AFNE01.JPG,AFNE01.JPG,AFNE01.JPG,,,,,3,9,39,1,,,,,,,,,,,,,,,,,,,AFNE04.jpg,AFSA07.jpg,AFSA10.jpg,AFNE18.jpg,AFNE18.jpg,FN,3,num_4,16,num_4,0.700169254094,,,2017_May_12_1541,59.9932076277,MAFE4ImagesEEG,001,200334,
AFNE01.JPG,AFNE01.JPG,AFNE01.JPG,AFNE01.JPG,AFNE01.JPG,AFNE01.JPG,,,,,4,0,40,3,,,,,,,,,,,,,,,,,,,AFSA16.jpg,AFNE13.jpg,AFSA01.jpg,AFNE11.jpg,AFNE11.jpg,FN,3,num_4,16,num_4,1.38342369068,,,2017_May_12_1541,59.9932076277,MAFE4ImagesEEG,001,200334,
AFNE01.JPG,AFNE01.JPG,AFNE01.JPG,AFNE01.JPG,AFNE01.JPG,AFNE01.JPG,,,,,4,1,41,0,,,,,,,,,,,,,,,,,,,AFNE14.jpg,AFSA05.jpg,AFSA18.jpg,AFNE03.jpg,AFSA18.jpg,FS,4,num_2,16,num_2,0.73344946187,,,2017_May_12_1541,59.9932076277,MAFE4ImagesEEG,001,200334,
AFNE01.JPG,AFNE01.JPG,AFNE01.JPG,AFNE01.JPG,AFNE01.JPG,AFNE01.JPG,,,,,4,2,42,8,,,,,,,,,,,,,,,,,,,AFNE17.jpg,AFNE13.jpg,AFSA16.jpg,AFSA19.jpg,AFSA16.jpg,FS,4,num_2,16,num_2,0.566808187403,,,2017_May_12_1541,59.9932076277,MAFE4ImagesEEG,001,200334,
AFNE01.JPG,AFNE01.JPG,AFNE01.JPG,AFNE01.JPG,AFNE01.JPG,AFNE01.JPG,,,,,4,3,43,9,,,,,,,,,,,,,,,,,,,AFNE01.jpg,AFSA18.jpg,AFNE02.jpg,AFSA06.jpg,AFSA06.jpg,FS,4,num_4,32,num_8,2.88329747971,,,2017_May_12_1541,59.9932076277,MAFE4ImagesEEG,001,200334,
AFNE01.JPG,AFNE01.JPG,AFNE01.JPG,AFNE01.JPG,AFNE01.JPG,AFNE01.JPG,,,,,4,4,44,1,,,,,,,,,,,,,,,,,,,AFNE14.jpg,AFSA13.jpg,AFNE09.jpg,AFSA18.jpg,AFSA13.jpg,FS,4,num_6,32,num_8,1.25013318704,,,2017_May_12_1541,59.9932076277,MAFE4ImagesEEG,001,200334,
AFNE01.JPG,AFNE01.JPG,AFNE01.JPG,AFNE01.JPG,AFNE01.JPG,AFNE01.JPG,,,,,4,5,45,6,,,,,,,,,,,,,,,,,,,AFSA04.jpg,AFSA15.jpg,AFNE08.jpg,AFNE17.jpg,AFSA15.jpg,FS,4,num_6,32,num_2,0.916755698621,,,2017_May_12_1541,59.9932076277,MAFE4ImagesEEG,001,200334,
AFNE01.JPG,AFNE01.JPG,AFNE01.JPG,AFNE01.JPG,AFNE01.JPG,AFNE01.JPG,,,,,4,6,46,7,,,,,,,,,,,,,,,,,,,AFSA05.jpg,AFSA10.jpg,AFNE14.jpg,AFNE10.jpg,AFSA05.jpg,FS,4,num_8,32,num_6,0.850227035582,,,2017_May_12_1541,59.9932076277,MAFE4ImagesEEG,001,200334,
AFNE01.JPG,AFNE01.JPG,AFNE01.JPG,AFNE01.JPG,AFNE01.JPG,AFNE01.JPG,,,,,4,7,47,4,,,,,,,,,,,,,,,,,,,AFNE09.jpg,AFSA12.jpg,AFNE12.jpg,AFSA07.jpg,AFNE09.jpg,FN,3,num_8,16,num_8,1.13331103139,,,2017_May_12_1541,59.9932076277,MAFE4ImagesEEG,001,200334,
AFNE01.JPG,AFNE01.JPG,AFNE01.JPG,AFNE01.JPG,AFNE01.JPG,AFNE01.JPG,,,,,4,8,48,5,,,,,,,,,,,,,,,,,,,AFNE07.jpg,AFSA12.jpg,AFSA10.jpg,AFNE02.jpg,AFSA12.jpg,FS,4,num_6,32,num_8,4.11648698337,,,2017_May_12_1541,59.9932076277,MAFE4ImagesEEG,001,200334,
AFNE01.JPG,AFNE01.JPG,AFNE01.JPG,AFNE01.JPG,AFNE01.JPG,AFNE01.JPG,,,,,4,9,49,2,,,,,,,,,,,,,,,,,,,AFSA03.jpg,AFNE06.jpg,AFSA16.jpg,AFNE03.jpg,AFNE06.jpg,FN,3,num_6,16,num_6,0.900219674222,,,2017_May_12_1541,59.9932076277,MAFE4ImagesEEG,001,200334,
AFNE01.JPG,AFNE01.JPG,AFNE01.JPG,AFNE01.JPG,AFNE01.JPG,AFNE01.JPG,,,,,5,0,50,9,,,,,,,,,,,,,,,,,,,AFNE04.jpg,AFSA07.jpg,AFSA19.jpg,AFNE18.jpg,AFNE04.jpg,FN,3,num_8,16,num_8,1.41671063472,,,2017_May_12_1541,59.9932076277,MAFE4ImagesEEG,001,200334,
AFNE01.JPG,AFNE01.JPG,AFNE01.JPG,AFNE01.JPG,AFNE01.JPG,AFNE01.JPG,,,,,5,1,51,0,,,,,,,,,,,,,,,,,,,AFSA08.jpg,AFNE05.jpg,AFNE03.jpg,AFSA20.jpg,AFNE05.jpg,FN,3,num_6,32,num_4,1.9833360007,,,2017_May_12_1541,59.9932076277,MAFE4ImagesEEG,001,200334,
AFNE01.JPG,AFNE01.JPG,AFNE01.JPG,AFNE01.JPG,AFNE01.JPG,AFNE01.JPG,,,,,5,2,52,7,,,,,,,,,,,,,,,,,,,AFNE20.jpg,AFNE12.jpg,AFSA09.jpg,AFSA11.jpg,AFNE20.jpg,FN,3,num_8,32,num_6,1.06675895397,,,2017_May_12_1541,59.9932076277,MAFE4ImagesEEG,001,200334,
AFNE01.JPG,AFNE01.JPG,AFNE01.JPG,AFNE01.JPG,AFNE01.JPG,AFNE01.JPG,,,,,5,3,53,4,,,,,,,,,,,,,,,,,,,AFSA09.jpg,AFNE08.jpg,AFNE15.jpg,AFSA11.jpg,AFSA09.jpg,FS,4,num_8,32,num_6,0.683447522111,,,2017_May_12_1541,59.9932076277,MAFE4ImagesEEG,001,200334,
AFNE01.JPG,AFNE01.JPG,AFNE01.JPG,AFNE01.JPG,AFNE01.JPG,AFNE01.JPG,,,,,5,4,54,1,,,,,,,,,,,,,,,,,,,AFNE02.jpg,AFSA14.jpg,AFSA11.jpg,AFNE03.jpg,AFNE03.jpg,FN,3,num_4,32,num_8,0.900212618057,,,2017_May_12_1541,59.9932076277,MAFE4ImagesEEG,001,200334,
AFNE01.JPG,AFNE01.JPG,AFNE01.JPG,AFNE01.JPG,AFNE01.JPG,AFNE01.JPG,,,,,5,5,55,5,,,,,,,,,,,,,,,,,,,AFSA10.jpg,AFNE13.jpg,AFSA20.jpg,AFNE04.jpg,AFNE04.jpg,FN,3,num_4,32,num_2,1.18345217267,,,2017_May_12_1541,59.9932076277,MAFE4ImagesEEG,001,200334,
AFNE01.JPG,AFNE01.JPG,AFNE01.JPG,AFNE01.JPG,AFNE01.JPG,AFNE01.JPG,,,,,5,6,56,2,,,,,,,,,,,,,,,,,,,AFNE15.jpg,AFSA13.jpg,AFNE20.jpg,AFSA08.jpg,AFNE15.jpg,FN,3,num_8,32,num_2,1.43344840361,,,2017_May_12_1541,59.9932076277,MAFE4ImagesEEG,001,200334,
AFNE01.JPG,AFNE01.JPG,AFNE01.JPG,AFNE01.JPG,AFNE01.JPG,AFNE01.JPG,,,,,5,7,57,6,,,,,,,,,,,,,,,,,,,AFSA15.jpg,AFSA06.jpg,AFNE16.jpg,AFNE06.jpg,AFSA15.jpg,FS,4,num_8,16,num_8,0.983425486833,,,2017_May_12_1541,59.9932076277,MAFE4ImagesEEG,001,200334,
AFNE01.JPG,AFNE01.JPG,AFNE01.JPG,AFNE01.JPG,AFNE01.JPG,AFNE01.JPG,,,,,5,8,58,8,,,,,,,,,,,,,,,,,,,AFSA12.jpg,AFNE19.jpg,AFNE15.jpg,AFSA02.jpg,AFNE19.jpg,FN,3,num_6,32,num_2,1.55002230778,,,2017_May_12_1541,59.9932076277,MAFE4ImagesEEG,001,200334,
AFNE01.JPG,AFNE01.JPG,AFNE01.JPG,AFNE01.JPG,AFNE01.JPG,AFNE01.JPG,,,,,5,9,59,3,,,,,,,,,,,,,,,,,,,AFNE20.jpg,AFSA08.jpg,AFSA04.jpg,AFNE05.jpg,AFNE20.jpg,FN,3,num_8,32,num_4,1.61673860345,,,2017_May_12_1541,59.9932076277,MAFE4ImagesEEG,001,200334,
,,,,,,,,,,,,,,,,,,,,,,,,,,,,,,,,,,,,,,,,,,,space,32.2309433674,2017_May_12_1541,59.9932076277,MAFE4ImagesEEG,001,200334,
AFNE01.JPG,AFNE01.JPG,AFNE01.JPG,AFNE01.JPG,AFNE01.JPG,AFNE01.JPG,,,,,,,,,0,0,0,8,,,,,,,,,,,,,,,AMSA05.jpg,AMNE12.jpg,AMNE05.jpg,AMSA01.jpg,AMSA05.jpg,MS,2,num_8,32,num_6,0.633431789465,,,2017_May_12_1541,59.9932076277,MAFE4ImagesEEG,001,200334,
AFNE01.JPG,AFNE01.JPG,AFNE01.JPG,AFNE01.JPG,AFNE01.JPG,AFNE01.JPG,,,,,,,,,0,1,1,7,,,,,,,,,,,,,,,AMSA07.jpg,AMSA15.jpg,AMNE11.jpg,AMNE15.jpg,AMSA15.jpg,MS,2,num_6,16,num_6,0.666796031408,,,2017_May_12_1541,59.9932076277,MAFE4ImagesEEG,001,200334,
AFNE01.JPG,AFNE01.JPG,AFNE01.JPG,AFNE01.JPG,AFNE01.JPG,AFNE01.JPG,,,,,,,,,0,2,2,6,,,,,,,,,,,,,,,AMNE03.jpg,AMSA20.jpg,AMNE13.jpg,AMSA12.jpg,AMNE03.jpg,MN,1,num_8,16,num_8,0.750208721031,,,2017_May_12_1541,59.9932076277,MAFE4ImagesEEG,001,200334,
AFNE01.JPG,AFNE01.JPG,AFNE01.JPG,AFNE01.JPG,AFNE01.JPG,AFNE01.JPG,,,,,,,,,0,3,3,4,,,,,,,,,,,,,,,AMNE10.jpg,AMSA04.jpg,AMNE03.jpg,AMSA12.jpg,AMNE10.jpg,MN,1,num_8,32,num_4,0.733431500848,,,2017_May_12_1541,59.9932076277,MAFE4ImagesEEG,001,200334,
AFNE01.JPG,AFNE01.JPG,AFNE01.JPG,AFNE01.JPG,AFNE01.JPG,AFNE01.JPG,,,,,,,,,0,4,4,1,,,,,,,,,,,,,,,AMSA06.jpg,AMSA15.jpg,AMNE13.jpg,AMNE14.jpg,AMSA15.jpg,MS,2,num_6,16,num_6,0.7168791187,,,2017_May_12_1541,59.9932076277,MAFE4ImagesEEG,001,200334,
AFNE01.JPG,AFNE01.JPG,AFNE01.JPG,AFNE01.JPG,AFNE01.JPG,AFNE01.JPG,,,,,,,,,0,5,5,5,,,,,,,,,,,,,,,AMNE02.jpg,AMSA05.jpg,AMNE16.jpg,AMSA13.jpg,AMNE02.jpg,MN,1,num_8,32,num_4,0.717013508547,,,2017_May_12_1541,59.9932076277,MAFE4ImagesEEG,001,200334,
AFNE01.JPG,AFNE01.JPG,AFNE01.JPG,AFNE01.JPG,AFNE01.JPG,AFNE01.JPG,,,,,,,,,0,6,6,3,,,,,,,,,,,,,,,AMSA13.jpg,AMNE13.jpg,AMSA09.jpg,AMNE17.jpg,AMSA09.jpg,MS,2,num_2,16,num_2,1.15010685427,,,2017_May_12_1541,59.9932076277,MAFE4ImagesEEG,001,200334,
AFNE01.JPG,AFNE01.JPG,AFNE01.JPG,AFNE01.JPG,AFNE01.JPG,AFNE01.JPG,,,,,,,,,0,7,7,9,,,,,,,,,,,,,,,AMSA04.jpg,AMNE03.jpg,AMSA11.jpg,AMNE11.jpg,AMSA11.jpg,MS,2,num_2,16,num_2,1.73323585,,,2017_May_12_1541,59.9932076277,MAFE4ImagesEEG,001,200334,
AFNE01.JPG,AFNE01.JPG,AFNE01.JPG,AFNE01.JPG,AFNE01.JPG,AFNE01.JPG,,,,,,,,,0,8,8,2,,,,,,,,,,,,,,,AMNE04.jpg,AMSA19.jpg,AMSA18.jpg,AMNE06.jpg,AMSA18.jpg,MS,2,num_2,16,num_2,0.93351752311,,,2017_May_12_1541,59.9932076277,MAFE4ImagesEEG,001,200334,
AFNE01.JPG,AFNE01.JPG,AFNE01.JPG,AFNE01.JPG,AFNE01.JPG,AFNE01.JPG,,,,,,,,,0,9,9,0,,,,,,,,,,,,,,,AMNE10.jpg,AMNE01.jpg,AMSA10.jpg,AMSA13.jpg,AMNE10.jpg,MN,1,num_8,16,num_8,1.06680738553,,,2017_May_12_1541,59.9932076277,MAFE4ImagesEEG,001,200334,
AFNE01.JPG,AFNE01.JPG,AFNE01.JPG,AFNE01.JPG,AFNE01.JPG,AFNE01.JPG,,,,,,,,,1,0,10,9,,,,,,,,,,,,,,,AMNE16.jpg,AMSA16.jpg,AMSA12.jpg,AMNE01.jpg,AMSA16.jpg,MS,2,num_6,16,num_6,0.733476404101,,,2017_May_12_1541,59.9932076277,MAFE4ImagesEEG,001,200334,
AFNE01.JPG,AFNE01.JPG,AFNE01.JPG,AFNE01.JPG,AFNE01.JPG,AFNE01.JPG,,,,,,,,,1,1,11,5,,,,,,,,,,,,,,,AMNE09.jpg,AMSA12.jpg,AMNE15.jpg,AMSA14.jpg,AMSA12.jpg,MS,2,num_6,16,num_6,0.733546967153,,,2017_May_12_1541,59.9932076277,MAFE4ImagesEEG,001,200334,
AFNE01.JPG,AFNE01.JPG,AFNE01.JPG,AFNE01.JPG,AFNE01.JPG,AFNE01.JPG,,,,,,,,,1,2,12,2,,,,,,,,,,,,,,,AMSA11.jpg,AMNE20.jpg,AMSA17.jpg,AMNE06.jpg,AMNE06.jpg,MN,1,num_4,32,num_6,1.11678174231,,,2017_May_12_1541,59.9932076277,MAFE4ImagesEEG,001,200334,
AFNE01.JPG,AFNE01.JPG,AFNE01.JPG,AFNE01.JPG,AFNE01.JPG,AFNE01.JPG,,,,,,,,,1,3,13,3,,,,,,,,,,,,,,,AMSA16.jpg,AMSA09.jpg,AMNE19.jpg,AMNE02.jpg,AMSA16.jpg,MS,2,num_8,16,num_8,1.00010744762,,,2017_May_12_1541,59.9932076277,MAFE4ImagesEEG,001,200334,
AFNE01.JPG,AFNE01.JPG,AFNE01.JPG,AFNE01.JPG,AFNE01.JPG,AFNE01.JPG,,,,,,,,,1,4,14,7,,,,,,,,,,,,,,,AMSA02.jpg,AMNE20.jpg,AMNE08.jpg,AMSA13.jpg,AMSA02.jpg,MS,2,num_8,16,num_8,1.48337946087,,,2017_May_12_1541,59.9932076277,MAFE4ImagesEEG,001,200334,
AFNE01.JPG,AFNE01.JPG,AFNE01.JPG,AFNE01.JPG,AFNE01.JPG,AFNE01.JPG,,,,,,,,,1,5,15,0,,,,,,,,,,,,,,,AMNE12.jpg,AMSA08.jpg,AMSA17.jpg,AMNE17.jpg,AMNE12.jpg,MN,1,num_8,32,num_4,0.916641194839,,,2017_May_12_1541,59.9932076277,MAFE4ImagesEEG,001,200334,
AFNE01.JPG,AFNE01.JPG,AFNE01.JPG,AFNE01.JPG,AFNE01.JPG,AFNE01.JPG,,,,,,,,,1,6,16,8,,,,,,,,,,,,,,,AMNE01.jpg,AMNE13.jpg,AMSA13.jpg,AMSA08.jpg,AMSA13.jpg,MS,2,num_2,16,num_2,2.4166942765,,,2017_May_12_1541,59.9932076277,MAFE4ImagesEEG,001,200334,
AFNE01.JPG,AFNE01.JPG,AFNE01.JPG,AFNE01.JPG,AFNE01.JPG,AFNE01.JPG,,,,,,,,,1,7,17,4,,,,,,,,,,,,,,,AMSA13.jpg,AMNE19.jpg,AMNE01.jpg,AMSA11.jpg,AMNE19.jpg,MN,1,num_6,16,num_6,1.216835659,,,2017_May_12_1541,59.9932076277,MAFE4ImagesEEG,001,200334,
AFNE01.JPG,AFNE01.JPG,AFNE01.JPG,AFNE01.JPG,AFNE01.JPG,AFNE01.JPG,,,,,,,,,1,8,18,1,,,,,,,,,,,,,,,AMSA16.jpg,AMSA17.jpg,AMNE03.jpg,AMNE10.jpg,AMNE03.jpg,MN,1,num_2,32,num_6,0.883469717111,,,2017_May_12_1541,59.9932076277,MAFE4ImagesEEG,001,200334,
AFNE01.JPG,AFNE01.JPG,AFNE01.JPG,AFNE01.JPG,AFNE01.JPG,AFNE01.JPG,,,,,,,,,1,9,19,6,,,,,,,,,,,,,,,AMNE11.jpg,AMSA05.jpg,AMNE13.jpg,AMSA12.jpg,AMSA12.jpg,MS,2,num_4,32,num_6,1.05019502575,,,2017_May_12_1541,59.9932076277,MAFE4ImagesEEG,001,200334,
AFNE01.JPG,AFNE01.JPG,AFNE01.JPG,AFNE01.JPG,AFNE01.JPG,AFNE01.JPG,,,,,,,,,2,0,20,6,,,,,,,,,,,,,,,AMSA09.jpg,AMSA16.jpg,AMNE01.jpg,AMNE09.jpg,AMNE09.jpg,MN,1,num_4,32,num_8,1.10019472102,,,2017_May_12_1541,59.9932076277,MAFE4ImagesEEG,001,200334,
AFNE01.JPG,AFNE01.JPG,AFNE01.JPG,AFNE01.JPG,AFNE01.JPG,AFNE01.JPG,,,,,,,,,2,1,21,9,,,,,,,,,,,,,,,AMNE18.jpg,AMSA10.jpg,AMSA15.jpg,AMNE13.jpg,AMSA10.jpg,MS,2,num_6,32,num_2,1.38342016283,,,2017_May_12_1541,59.9932076277,MAFE4ImagesEEG,001,200334,
AFNE01.JPG,AFNE01.JPG,AFNE01.JPG,AFNE01.JPG,AFNE01.JPG,AFNE01.JPG,,,,,,,,,2,2,22,3,,,,,,,,,,,,,,,AMSA12.jpg,AMNE20.jpg,AMNE02.jpg,AMSA17.jpg,AMSA12.jpg,MS,2,num_8,16,num_8,2.01670954423,,,2017_May_12_1541,59.9932076277,MAFE4ImagesEEG,001,200334,
AFNE01.JPG,AFNE01.JPG,AFNE01.JPG,AFNE01.JPG,AFNE01.JPG,AFNE01.JPG,,,,,,,,,2,3,23,8,,,,,,,,,,,,,,,AMSA06.jpg,AMSA20.jpg,AMNE03.jpg,AMNE17.jpg,AMSA06.jpg,MS,2,num_8,32,num_6,0.633489201777,,,2017_May_12_1541,59.9932076277,MAFE4ImagesEEG,001,200334,
AFNE01.JPG,AFNE01.JPG,AFNE01.JPG,AFNE01.JPG,AFNE01.JPG,AFNE01.JPG,,,,,,,,,2,4,24,2,,,,,,,,,,,,,,,AMSA15.jpg,AMNE06.jpg,AMNE08.jpg,AMSA19.jpg,AMSA19.jpg,MS,2,num_4,32,num_8,0.783611772582,,,2017_May_12_1541,59.9932076277,MAFE4ImagesEEG,001,200334,
AFNE01.JPG,AFNE01.JPG,AFNE01.JPG,AFNE01.JPG,AFNE01.JPG,AFNE01.JPG,,,,,,,,,2,5,25,0,,,,,,,,,,,,,,,AMNE01.jpg,AMSA06.jpg,AMSA18.jpg,AMNE04.jpg,AMSA06.jpg,MS,2,num_6,16,num_6,0.750127253588,,,2017_May_12_1541,59.9932076277,MAFE4ImagesEEG,001,200334,
AFNE01.JPG,AFNE01.JPG,AFNE01.JPG,AFNE01.JPG,AFNE01.JPG,AFNE01.JPG,,,,,,,,,2,6,26,5,,,,,,,,,,,,,,,AMSA05.jpg,AMSA20.jpg,AMNE19.jpg,AMNE06.jpg,AMNE06.jpg,MN,1,num_4,32,num_8,1.13344542077,,,2017_May_12_1541,59.9932076277,MAFE4ImagesEEG,001,200334,
AFNE01.JPG,AFNE01.JPG,AFNE01.JPG,AFNE01.JPG,AFNE01.JPG,AFNE01.JPG,,,,,,,,,2,7,27,4,,,,,,,,,,,,,,,AMSA05.jpg,AMSA01.jpg,AMNE19.jpg,AMNE14.jpg,AMNE19.jpg,MN,1,num_2,16,num_2,0.89979309123,,,2017_May_12_1541,59.9932076277,MAFE4ImagesEEG,001,200334,
AFNE01.JPG,AFNE01.JPG,AFNE01.JPG,AFNE01.JPG,AFNE01.JPG,AFNE01.JPG,,,,,,,,,2,8,28,1,,,,,,,,,,,,,,,AMSA15.jpg,AMSA17.jpg,AMNE20.jpg,AMNE19.jpg,AMNE19.jpg,MN,1,num_4,16,num_4,0.916768528055,,,2017_May_12_1541,59.9932076277,MAFE4ImagesEEG,001,200334,
AFNE01.JPG,AFNE01.JPG,AFNE01.JPG,AFNE01.JPG,AFNE01.JPG,AFNE01.JPG,,,,,,,,,2,9,29,7,,,,,,,,,,,,,,,AMSA11.jpg,AMSA18.jpg,AMNE17.jpg,AMNE13.jpg,AMNE13.jpg,MN,1,num_4,16,num_4,0.766966055147,,,2017_May_12_1541,59.9932076277,MAFE4ImagesEEG,001,200334,
AFNE01.JPG,AFNE01.JPG,AFNE01.JPG,AFNE01.JPG,AFNE01.JPG,AFNE01.JPG,,,,,,,,,3,0,30,5,,,,,,,,,,,,,,,AMSA16.jpg,AMNE01.jpg,AMNE19.jpg,AMSA11.jpg,AMSA11.jpg,MS,2,num_4,32,num_8,1.56695989706,,,2017_May_12_1541,59.9932076277,MAFE4ImagesEEG,001,200334,
AFNE01.JPG,AFNE01.JPG,AFNE01.JPG,AFNE01.JPG,AFNE01.JPG,AFNE01.JPG,,,,,,,,,3,1,31,4,,,,,,,,,,,,,,,AMSA07.jpg,AMSA04.jpg,AMNE15.jpg,AMNE07.jpg,AMNE15.jpg,MN,1,num_2,16,num_2,1.0667730663,,,2017_May_12_1541,59.9932076277,MAFE4ImagesEEG,001,200334,
AFNE01.JPG,AFNE01.JPG,AFNE01.JPG,AFNE01.JPG,AFNE01.JPG,AFNE01.JPG,,,,,,,,,3,2,32,2,,,,,,,,,,,,,,,AMSA20.jpg,AMSA14.jpg,AMNE02.jpg,AMNE06.jpg,AMNE02.jpg,MN,1,num_2,32,num_6,0.733859367203,,,2017_May_12_1541,59.9932076277,MAFE4ImagesEEG,001,200334,
AFNE01.JPG,AFNE01.JPG,AFNE01.JPG,AFNE01.JPG,AFNE01.JPG,AFNE01.JPG,,,,,,,,,3,3,33,0,,,,,,,,,,,,,,,AMSA19.jpg,AMNE10.jpg,AMSA11.jpg,AMNE16.jpg,AMSA11.jpg,MS,2,num_2,32,num_4,0.700104464777,,,2017_May_12_1541,59.9932076277,MAFE4ImagesEEG,001,200334,
AFNE01.JPG,AFNE01.JPG,AFNE01.JPG,AFNE01.JPG,AFNE01.JPG,AFNE01.JPG,,,,,,,,,3,4,34,7,,,,,,,,,,,,,,,AMSA18.jpg,AMSA15.jpg,AMNE07.jpg,AMNE06.jpg,AMNE06.jpg,MN,1,num_4,32,num_2,1.03342229547,,,2017_May_12_1541,59.9932076277,MAFE4ImagesEEG,001,200334,
AFNE01.JPG,AFNE01.JPG,AFNE01.JPG,AFNE01.JPG,AFNE01.JPG,AFNE01.JPG,,,,,,,,,3,5,35,1,,,,,,,,,,,,,,,AMSA10.jpg,AMSA14.jpg,AMNE05.jpg,AMNE13.jpg,AMSA14.jpg,MS,2,num_6,16,num_6,0.750124687329,,,2017_May_12_1541,59.9932076277,MAFE4ImagesEEG,001,200334,
AFNE01.JPG,AFNE01.JPG,AFNE01.JPG,AFNE01.JPG,AFNE01.JPG,AFNE01.JPG,,,,,,,,,3,6,36,9,,,,,,,,,,,,,,,AMNE09.jpg,AMSA11.jpg,AMNE05.jpg,AMSA03.jpg,AMSA11.jpg,MS,2,num_6,32,num_4,0.550137773156,,,2017_May_12_1541,59.9932076277,MAFE4ImagesEEG,001,200334,
AFNE01.JPG,AFNE01.JPG,AFNE01.JPG,AFNE01.JPG,AFNE01.JPG,AFNE01.JPG,,,,,,,,,3,7,37,6,,,,,,,,,,,,,,,AMNE12.jpg,AMSA16.jpg,AMSA04.jpg,AMNE09.jpg,AMNE12.jpg,MN,1,num_8,32,num_6,0.883611163124,,,2017_May_12_1541,59.9932076277,MAFE4ImagesEEG,001,200334,
AFNE01.JPG,AFNE01.JPG,AFNE01.JPG,AFNE01.JPG,AFNE01.JPG,AFNE01.JPG,,,,,,,,,3,8,38,8,,,,,,,,,,,,,,,AMSA10.jpg,AMNE05.jpg,AMNE11.jpg,AMSA12.jpg,AMNE11.jpg,MN,1,num_2,32,num_6,0.616787355393,,,2017_May_12_1541,59.9932076277,MAFE4ImagesEEG,001,200334,
AFNE01.JPG,AFNE01.JPG,AFNE01.JPG,AFNE01.JPG,AFNE01.JPG,AFNE01.JPG,,,,,,,,,3,9,39,3,,,,,,,,,,,,,,,AMSA02.jpg,AMNE01.jpg,AMSA16.jpg,AMNE17.jpg,AMSA16.jpg,MS,2,num_2,32,num_4,1.86694459803,,,2017_May_12_1541,59.9932076277,MAFE4ImagesEEG,001,200334,
AFNE01.JPG,AFNE01.JPG,AFNE01.JPG,AFNE01.JPG,AFNE01.JPG,AFNE01.JPG,,,,,,,,,4,0,40,8,,,,,,,,,,,,,,,AMSA19.jpg,AMSA18.jpg,AMNE15.jpg,AMNE14.jpg,AMNE14.jpg,MN,1,num_4,16,num_4,0.700202610809,,,2017_May_12_1541,59.9932076277,MAFE4ImagesEEG,001,200334,
AFNE01.JPG,AFNE01.JPG,AFNE01.JPG,AFNE01.JPG,AFNE01.JPG,AFNE01.JPG,,,,,,,,,4,1,41,9,,,,,,,,,,,,,,,AMNE05.jpg,AMNE02.jpg,AMSA08.jpg,AMSA01.jpg,AMNE05.jpg,MN,1,num_8,16,num_8,0.983445052058,,,2017_May_12_1541,59.9932076277,MAFE4ImagesEEG,001,200334,
AFNE01.JPG,AFNE01.JPG,AFNE01.JPG,AFNE01.JPG,AFNE01.JPG,AFNE01.JPG,,,,,,,,,4,2,42,1,,,,,,,,,,,,,,,AMNE01.jpg,AMSA02.jpg,AMNE20.jpg,AMSA05.jpg,AMNE01.jpg,MN,1,num_8,32,num_6,2.11667140806,,,2017_May_12_1541,59.9932076277,MAFE4ImagesEEG,001,200334,
AFNE01.JPG,AFNE01.JPG,AFNE01.JPG,AFNE01.JPG,AFNE01.JPG,AFNE01.JPG,,,,,,,,,4,3,43,4,,,,,,,,,,,,,,,AMNE11.jpg,AMSA05.jpg,AMNE04.jpg,AMSA03.jpg,AMNE04.jpg,MN,1,num_2,16,num_2,0.783489570487,,,2017_May_12_1541,59.9932076277,MAFE4ImagesEEG,001,200334,
AFNE01.JPG,AFNE01.JPG,AFNE01.JPG,AFNE01.JPG,AFNE01.JPG,AFNE01.JPG,,,,,,,,,4,4,44,7,,,,,,,,,,,,,,,AMSA03.jpg,AMSA12.jpg,AMNE09.jpg,AMNE03.jpg,AMNE03.jpg,MN,1,num_4,32,num_6,0.566785736009,,,2017_May_12_1541,59.9932076277,MAFE4ImagesEEG,001,200334,
AFNE01.JPG,AFNE01.JPG,AFNE01.JPG,AFNE01.JPG,AFNE01.JPG,AFNE01.JPG,,,,,,,,,4,5,45,0,,,,,,,,,,,,,,,AMNE10.jpg,AMSA19.jpg,AMSA06.jpg,AMNE09.jpg,AMNE10.jpg,MN,1,num_8,16,num_8,0.850096494425,,,2017_May_12_1541,59.9932076277,MAFE4ImagesEEG,001,200334,
AFNE01.JPG,AFNE01.JPG,AFNE01.JPG,AFNE01.JPG,AFNE01.JPG,AFNE01.JPG,,,,,,,,,4,6,46,5,,,,,,,,,,,,,,,AMSA18.jpg,AMNE11.jpg,AMSA02.jpg,AMNE04.jpg,AMNE04.jpg,MN,1,num_4,16,num_4,0.633444940206,,,2017_May_12_1541,59.9932076277,MAFE4ImagesEEG,001,200334,
AFNE01.JPG,AFNE01.JPG,AFNE01.JPG,AFNE01.JPG,AFNE01.JPG,AFNE01.JPG,,,,,,,,,4,7,47,3,,,,,,,,,,,,,,,AMSA05.jpg,AMSA15.jpg,AMNE12.jpg,AMNE14.jpg,AMNE12.jpg,MN,1,num_2,32,num_8,1.00011578668,,,2017_May_12_1541,59.9932076277,MAFE4ImagesEEG,001,200334,
AFNE01.JPG,AFNE01.JPG,AFNE01.JPG,AFNE01.JPG,AFNE01.JPG,AFNE01.JPG,,,,,,,,,4,8,48,6,,,,,,,,,,,,,,,AMNE17.jpg,AMNE05.jpg,AMSA06.jpg,AMSA04.jpg,AMNE17.jpg,MN,1,num_8,32,num_6,0.866765304934,,,2017_May_12_1541,59.9932076277,MAFE4ImagesEEG,001,200334,
AFNE01.JPG,AFNE01.JPG,AFNE01.JPG,AFNE01.JPG,AFNE01.JPG,AFNE01.JPG,,,,,,,,,4,9,49,2,,,,,,,,,,,,,,,AMSA04.jpg,AMNE12.jpg,AMSA03.jpg,AMNE04.jpg,AMNE12.jpg,MN,1,num_6,16,num_6,1.41672955826,,,2017_May_12_1541,59.9932076277,MAFE4ImagesEEG,001,200334,
AFNE01.JPG,AFNE01.JPG,AFNE01.JPG,AFNE01.JPG,AFNE01.JPG,AFNE01.JPG,,,,,,,,,5,0,50,3,,,,,,,,,,,,,,,AMSA06.jpg,AMNE11.jpg,AMNE19.jpg,AMSA11.jpg,AMSA06.jpg,MS,2,num_8,32,num_4,1.33341854298,,,2017_May_12_1541,59.9932076277,MAFE4ImagesEEG,001,200334,
AFNE01.JPG,AFNE01.JPG,AFNE01.JPG,AFNE01.JPG,AFNE01.JPG,AFNE01.JPG,,,,,,,,,5,1,51,9,,,,,,,,,,,,,,,AMNE15.jpg,AMNE10.jpg,AMSA13.jpg,AMSA08.jpg,AMNE15.jpg,MN,1,num_8,16,num_8,1.8833141583,,,2017_May_12_1541,59.9932076277,MAFE4ImagesEEG,001,200334,
AFNE01.JPG,AFNE01.JPG,AFNE01.JPG,AFNE01.JPG,AFNE01.JPG,AFNE01.JPG,,,,,,,,,5,2,52,7,,,,,,,,,,,,,,,AMNE05.jpg,AMNE20.jpg,AMSA06.jpg,AMSA02.jpg,AMNE20.jpg,MN,1,num_6,16,num_6,0.749926791061,,,2017_May_12_1541,59.9932076277,MAFE4ImagesEEG,001,200334,
AFNE01.JPG,AFNE01.JPG,AFNE01.JPG,AFNE01.JPG,AFNE01.JPG,AFNE01.JPG,,,,,,,,,5,3,53,0,,,,,,,,,,,,,,,AMSA03.jpg,AMNE06.jpg,AMNE17.jpg,AMSA08.jpg,AMSA08.jpg,MS,2,num_4,16,num_4,0.700227949303,,,2017_May_12_1541,59.9932076277,MAFE4ImagesEEG,001,200334,
AFNE01.JPG,AFNE01.JPG,AFNE01.JPG,AFNE01.JPG,AFNE01.JPG,AFNE01.JPG,,,,,,,,,5,4,54,8,,,,,,,,,,,,,,,AMNE08.jpg,AMNE14.jpg,AMSA05.jpg,AMSA06.jpg,AMSA06.jpg,MS,2,num_4,32,num_6,1.59996779775,,,2017_May_12_1541,59.9932076277,MAFE4ImagesEEG,001,200334,
AFNE01.JPG,AFNE01.JPG,AFNE01.JPG,AFNE01.JPG,AFNE01.JPG,AFNE01.JPG,,,,,,,,,5,5,55,1,,,,,,,,,,,,,,,AMSA09.jpg,AMNE14.jpg,AMNE01.jpg,AMSA06.jpg,AMNE01.jpg,MN,1,num_2,32,num_6,1.78339719772,,,2017_May_12_1541,59.9932076277,MAFE4ImagesEEG,001,200334,
AFNE01.JPG,AFNE01.JPG,AFNE01.JPG,AFNE01.JPG,AFNE01.JPG,AFNE01.JPG,,,,,,,,,5,6,56,2,,,,,,,,,,,,,,,AMSA03.jpg,AMNE12.jpg,AMSA07.jpg,AMNE05.jpg,AMNE05.jpg,MN,1,num_4,32,num_6,1.15007798746,,,2017_May_12_1541,59.9932076277,MAFE4ImagesEEG,001,200334,
AFNE01.JPG,AFNE01.JPG,AFNE01.JPG,AFNE01.JPG,AFNE01.JPG,AFNE01.JPG,,,,,,,,,5,7,57,6,,,,,,,,,,,,,,,AMNE16.jpg,AMSA12.jpg,AMNE03.jpg,AMSA20.jpg,AMNE16.jpg,MN,1,num_8,32,num_6,1.46672219737,,,2017_May_12_1541,59.9932076277,MAFE4ImagesEEG,001,200334,
AFNE01.JPG,AFNE01.JPG,AFNE01.JPG,AFNE01.JPG,AFNE01.JPG,AFNE01.JPG,,,,,,,,,5,8,58,4,,,,,,,,,,,,,,,AMSA07.jpg,AMSA05.jpg,AMNE09.jpg,AMNE06.jpg,AMNE06.jpg,MN,1,num_4,32,num_8,0.950108394027,,,2017_May_12_1541,59.9932076277,MAFE4ImagesEEG,001,200334,
AFNE01.JPG,AFNE01.JPG,AFNE01.JPG,AFNE01.JPG,AFNE01.JPG,AFNE01.JPG,,,,,,,,,5,9,59,5,,,,,,,,,,,,,,,AMNE18.jpg,AMNE13.jpg,AMSA14.jpg,AMSA01.jpg,AMSA01.jpg,MS,2,num_4,16,num_4,0.616800826043,,,2017_May_12_1541,59.9932076277,MAFE4ImagesEEG,001,200334,
,,,,,,,,,,,,,,,,,,,,,,,,,,,,,,,,,,,,,,,,,,,space,66.0115286456,2017_May_12_1541,59.9932076277,MAFE4ImagesEEG,001,200334,
AFNE01.JPG,AFNE01.JPG,AFNE01.JPG,AFNE01.JPG,AFNE01.JPG,AFNE01.JPG,,,,,,,,,,,,,0,0,0,5,,,,,,,,,,,AFNE19.jpg,AFSA06.jpg,AFNE09.jpg,AFSA08.jpg,AFNE09.jpg,FN,3,num_2,16,num_2,0.950155542698,,,2017_May_12_1541,59.9932076277,MAFE4ImagesEEG,001,200334,
AFNE01.JPG,AFNE01.JPG,AFNE01.JPG,AFNE01.JPG,AFNE01.JPG,AFNE01.JPG,,,,,,,,,,,,,0,1,1,3,,,,,,,,,,,AFNE07.jpg,AFSA20.jpg,AFSA12.jpg,AFNE01.jpg,AFSA12.jpg,FS,4,num_2,16,num_2,0.783495023381,,,2017_May_12_1541,59.9932076277,MAFE4ImagesEEG,001,200334,
AFNE01.JPG,AFNE01.JPG,AFNE01.JPG,AFNE01.JPG,AFNE01.JPG,AFNE01.JPG,,,,,,,,,,,,,0,2,2,7,,,,,,,,,,,AFNE15.jpg,AFNE12.jpg,AFSA18.jpg,AFSA05.jpg,AFSA18.jpg,FS,4,num_2,16,num_2,0.800142344087,,,2017_May_12_1541,59.9932076277,MAFE4ImagesEEG,001,200334,
AFNE01.JPG,AFNE01.JPG,AFNE01.JPG,AFNE01.JPG,AFNE01.JPG,AFNE01.JPG,,,,,,,,,,,,,0,3,3,1,,,,,,,,,,,AFNE05.jpg,AFSA04.jpg,AFSA13.jpg,AFNE14.jpg,AFNE14.jpg,FN,3,num_4,16,num_4,0.766767196823,,,2017_May_12_1541,59.9932076277,MAFE4ImagesEEG,001,200334,
AFNE01.JPG,AFNE01.JPG,AFNE01.JPG,AFNE01.JPG,AFNE01.JPG,AFNE01.JPG,,,,,,,,,,,,,0,4,4,8,,,,,,,,,,,AFSA03.jpg,AFNE03.jpg,AFNE13.jpg,AFSA19.jpg,AFNE03.jpg,FN,3,num_6,16,num_6,1.30012903316,,,2017_May_12_1541,59.9932076277,MAFE4ImagesEEG,001,200334,
AFNE01.JPG,AFNE01.JPG,AFNE01.JPG,AFNE01.JPG,AFNE01.JPG,AFNE01.JPG,,,,,,,,,,,,,0,5,5,0,,,,,,,,,,,AFSA20.jpg,AFNE10.jpg,AFSA11.jpg,AFNE15.jpg,AFNE15.jpg,FN,3,num_4,16,num_4,0.633482145611,,,2017_May_12_1541,59.9932076277,MAFE4ImagesEEG,001,200334,
AFNE01.JPG,AFNE01.JPG,AFNE01.JPG,AFNE01.JPG,AFNE01.JPG,AFNE01.JPG,,,,,,,,,,,,,0,6,6,2,,,,,,,,,,,AFSA19.jpg,AFNE04.jpg,AFSA15.jpg,AFNE01.jpg,AFNE04.jpg,FN,3,num_6,16,num_6,0.883499866351,,,2017_May_12_1541,59.9932076277,MAFE4ImagesEEG,001,200334,
AFNE01.JPG,AFNE01.JPG,AFNE01.JPG,AFNE01.JPG,AFNE01.JPG,AFNE01.JPG,,,,,,,,,,,,,0,7,7,4,,,,,,,,,,,AFSA05.jpg,AFSA06.jpg,AFNE05.jpg,AFNE19.jpg,AFSA06.jpg,FS,4,num_6,16,num_6,1.21676285099,,,2017_May_12_1541,59.9932076277,MAFE4ImagesEEG,001,200334,
AFNE01.JPG,AFNE01.JPG,AFNE01.JPG,AFNE01.JPG,AFNE01.JPG,AFNE01.JPG,,,,,,,,,,,,,0,8,8,6,,,,,,,,,,,AFNE03.jpg,AFSA12.jpg,AFNE04.jpg,AFSA04.jpg,AFNE03.jpg,FN,3,num_8,16,num_8,1.13349802233,,,2017_May_12_1541,59.9932076277,MAFE4ImagesEEG,001,200334,
AFNE01.JPG,AFNE01.JPG,AFNE01.JPG,AFNE01.JPG,AFNE01.JPG,AFNE01.JPG,,,,,,,,,,,,,0,9,9,9,,,,,,,,,,,AFSA11.jpg,AFNE15.jpg,AFNE02.jpg,AFSA20.jpg,AFNE02.jpg,FN,3,num_2,32,num_4,1.00010071183,,,2017_May_12_1541,59.9932076277,MAFE4ImagesEEG,001,200334,
AFNE01.JPG,AFNE01.JPG,AFNE01.JPG,AFNE01.JPG,AFNE01.JPG,AFNE01.JPG,,,,,,,,,,,,,1,0,10,4,,,,,,,,,,,AFNE14.jpg,AFNE02.jpg,AFSA03.jpg,AFSA12.jpg,AFNE02.jpg,FN,3,num_6,16,num_6,0.850192395505,,,2017_May_12_1541,59.9932076277,MAFE4ImagesEEG,001,200334,
AFNE01.JPG,AFNE01.JPG,AFNE01.JPG,AFNE01.JPG,AFNE01.JPG,AFNE01.JPG,,,,,,,,,,,,,1,1,11,2,,,,,,,,,,,AFSA14.jpg,AFNE04.jpg,AFNE08.jpg,AFSA07.jpg,AFNE04.jpg,FN,3,num_6,16,num_6,1.03349542432,,,2017_May_12_1541,59.9932076277,MAFE4ImagesEEG,001,200334,
AFNE01.JPG,AFNE01.JPG,AFNE01.JPG,AFNE01.JPG,AFNE01.JPG,AFNE01.JPG,,,,,,,,,,,,,1,2,12,1,,,,,,,,,,,AFSA01.jpg,AFNE03.jpg,AFSA11.jpg,AFNE20.jpg,AFNE20.jpg,FN,3,num_4,16,num_4,0.550152527168,,,2017_May_12_1541,59.9932076277,MAFE4ImagesEEG,001,200334,
AFNE01.JPG,AFNE01.JPG,AFNE01.JPG,AFNE01.JPG,AFNE01.JPG,AFNE01.JPG,,,,,,,,,,,,,1,3,13,7,,,,,,,,,,,AFNE06.jpg,AFNE18.jpg,AFSA10.jpg,AFSA16.jpg,AFNE06.jpg,FN,3,num_8,32,num_6,0.93343765894,,,2017_May_12_1541,59.9932076277,MAFE4ImagesEEG,001,200334,
AFNE01.JPG,AFNE01.JPG,AFNE01.JPG,AFNE01.JPG,AFNE01.JPG,AFNE01.JPG,,,,,,,,,,,,,1,4,14,8,,,,,,,,,,,AFSA11.jpg,AFSA18.jpg,AFNE18.jpg,AFNE01.jpg,AFNE01.jpg,FN,3,num_4,32,num_8,1.08342199121,,,2017_May_12_1541,59.9932076277,MAFE4ImagesEEG,001,200334,
AFNE01.JPG,AFNE01.JPG,AFNE01.JPG,AFNE01.JPG,AFNE01.JPG,AFNE01.JPG,,,,,,,,,,,,,1,5,15,5,,,,,,,,,,,AFSA17.jpg,AFNE13.jpg,AFNE08.jpg,AFSA14.jpg,AFNE13.jpg,FN,3,num_6,32,num_2,1.10010395152,,,2017_May_12_1541,59.9932076277,MAFE4ImagesEEG,001,200334,
AFNE01.JPG,AFNE01.JPG,AFNE01.JPG,AFNE01.JPG,AFNE01.JPG,AFNE01.JPG,,,,,,,,,,,,,1,6,16,6,,,,,,,,,,,AFNE12.jpg,AFNE16.jpg,AFSA19.jpg,AFSA16.jpg,AFNE12.jpg,FN,3,num_8,16,num_8,2.01667907415,,,2017_May_12_1541,59.9932076277,MAFE4ImagesEEG,001,200334,
AFNE01.JPG,AFNE01.JPG,AFNE01.JPG,AFNE01.JPG,AFNE01.JPG,AFNE01.JPG,,,,,,,,,,,,,1,7,17,0,,,,,,,,,,,AFSA15.jpg,AFSA14.jpg,AFNE10.jpg,AFNE16.jpg,AFNE10.jpg,FN,3,num_2,16,num_2,1.08346272446,,,2017_May_12_1541,59.9932076277,MAFE4ImagesEEG,001,200334,
AFNE01.JPG,AFNE01.JPG,AFNE01.JPG,AFNE01.JPG,AFNE01.JPG,AFNE01.JPG,,,,,,,,,,,,,1,8,18,3,,,,,,,,,,,AFSA17.jpg,AFNE02.jpg,AFNE16.jpg,AFSA20.jpg,AFSA17.jpg,FS,4,num_8,32,num_4,0.76673833048,,,2017_May_12_1541,59.9932076277,MAFE4ImagesEEG,001,200334,
AFNE01.JPG,AFNE01.JPG,AFNE01.JPG,AFNE01.JPG,AFNE01.JPG,AFNE01.JPG,,,,,,,,,,,,,1,9,19,9,,,,,,,,,,,AFSA04.jpg,AFSA12.jpg,AFNE05.jpg,AFNE15.jpg,AFSA12.jpg,FS,4,num_6,16,num_6,0.883496979717,,,2017_May_12_1541,59.9932076277,MAFE4ImagesEEG,001,200334,
AFNE01.JPG,AFNE01.JPG,AFNE01.JPG,AFNE01.JPG,AFNE01.JPG,AFNE01.JPG,,,,,,,,,,,,,2,0,20,0,,,,,,,,,,,AFSA04.jpg,AFNE12.jpg,AFNE13.jpg,AFSA20.jpg,AFSA20.jpg,FS,4,num_4,32,num_8,1.45009829057,,,2017_May_12_1541,59.9932076277,MAFE4ImagesEEG,001,200334,
AFNE01.JPG,AFNE01.JPG,AFNE01.JPG,AFNE01.JPG,AFNE01.JPG,AFNE01.JPG,,,,,,,,,,,,,2,1,21,6,,,,,,,,,,,AFNE07.jpg,AFNE09.jpg,AFSA12.jpg,AFSA15.jpg,AFSA12.jpg,FS,4,num_2,16,num_2,1.06676472723,,,2017_May_12_1541,59.9932076277,MAFE4ImagesEEG,001,200334,
AFNE01.JPG,AFNE01.JPG,AFNE01.JPG,AFNE01.JPG,AFNE01.JPG,AFNE01.JPG,,,,,,,,,,,,,2,2,22,2,,,,,,,,,,,AFNE06.jpg,AFSA16.jpg,AFNE20.jpg,AFSA04.jpg,AFSA16.jpg,FS,4,num_6,32,num_4,0.850135304034,,,2017_May_12_1541,59.9932076277,MAFE4ImagesEEG,001,200334,
AFNE01.JPG,AFNE01.JPG,AFNE01.JPG,AFNE01.JPG,AFNE01.JPG,AFNE01.JPG,,,,,,,,,,,,,2,3,23,8,,,,,,,,,,,AFNE13.jpg,AFSA13.jpg,AFSA01.jpg,AFNE02.jpg,AFNE13.jpg,FN,3,num_8,32,num_4,0.850088154897,,,2017_May_12_1541,59.9932076277,MAFE4ImagesEEG,001,200334,
AFNE01.JPG,AFNE01.JPG,AFNE01.JPG,AFNE01.JPG,AFNE01.JPG,AFNE01.JPG,,,,,,,,,,,,,2,4,24,3,,,,,,,,,,,AFNE12.jpg,AFSA15.jpg,AFSA20.jpg,AFNE02.jpg,AFSA20.jpg,FS,4,num_2,16,num_2,2.23368151719,,,2017_May_12_1541,59.9932076277,MAFE4ImagesEEG,001,200334,
AFNE01.JPG,AFNE01.JPG,AFNE01.JPG,AFNE01.JPG,AFNE01.JPG,AFNE01.JPG,,,,,,,,,,,,,2,5,25,7,,,,,,,,,,,AFNE12.jpg,AFSA18.jpg,AFSA14.jpg,AFNE02.jpg,AFNE12.jpg,FN,3,num_8,32,num_2,1.566694004,,,2017_May_12_1541,59.9932076277,MAFE4ImagesEEG,001,200334,
AFNE01.JPG,AFNE01.JPG,AFNE01.JPG,AFNE01.JPG,AFNE01.JPG,AFNE01.JPG,,,,,,,,,,,,,2,6,26,1,,,,,,,,,,,AFNE08.jpg,AFNE01.jpg,AFSA19.jpg,AFSA11.jpg,AFNE08.jpg,FN,3,num_8,16,num_8,1.88346843375,,,2017_May_12_1541,59.9932076277,MAFE4ImagesEEG,001,200334,
AFNE01.JPG,AFNE01.JPG,AFNE01.JPG,AFNE01.JPG,AFNE01.JPG,AFNE01.JPG,,,,,,,,,,,,,2,7,27,4,,,,,,,,,,,AFNE15.jpg,AFSA13.jpg,AFNE07.jpg,AFSA11.jpg,AFSA11.jpg,FS,4,num_4,16,num_4,0.633476372343,,,2017_May_12_1541,59.9932076277,MAFE4ImagesEEG,001,200334,
AFNE01.JPG,AFNE01.JPG,AFNE01.JPG,AFNE01.JPG,AFNE01.JPG,AFNE01.JPG,,,,,,,,,,,,,2,8,28,9,,,,,,,,,,,AFNE06.jpg,AFSA03.jpg,AFNE13.jpg,AFSA18.jpg,AFNE13.jpg,FN,3,num_2,32,num_8,0.900142696686,,,2017_May_12_1541,59.9932076277,MAFE4ImagesEEG,001,200334,
AFNE01.JPG,AFNE01.JPG,AFNE01.JPG,AFNE01.JPG,AFNE01.JPG,AFNE01.JPG,,,,,,,,,,,,,2,9,29,5,,,,,,,,,,,AFSA09.jpg,AFNE19.jpg,AFNE06.jpg,AFSA07.jpg,AFNE06.jpg,FN,3,num_2,16,num_2,0.766780668404,,,2017_May_12_1541,59.9932076277,MAFE4ImagesEEG,001,200334,
AFNE01.JPG,AFNE01.JPG,AFNE01.JPG,AFNE01.JPG,AFNE01.JPG,AFNE01.JPG,,,,,,,,,,,,,3,0,30,0,,,,,,,,,,,AFNE08.jpg,AFSA11.jpg,AFSA05.jpg,AFNE17.jpg,AFNE17.jpg,FN,3,num_4,16,num_4,0.45011561038,,,2017_May_12_1541,59.9932076277,MAFE4ImagesEEG,001,200334,
AFNE01.JPG,AFNE01.JPG,AFNE01.JPG,AFNE01.JPG,AFNE01.JPG,AFNE01.JPG,,,,,,,,,,,,,3,1,31,1,,,,,,,,,,,AFNE12.jpg,AFSA12.jpg,AFNE10.jpg,AFSA08.jpg,AFNE10.jpg,FN,3,num_2,16,num_2,1.25021208869,,,2017_May_12_1541,59.9932076277,MAFE4ImagesEEG,001,200334,
AFNE01.JPG,AFNE01.JPG,AFNE01.JPG,AFNE01.JPG,AFNE01.JPG,AFNE01.JPG,,,,,,,,,,,,,3,2,32,2,,,,,,,,,,,AFSA12.jpg,AFNE11.jpg,AFNE10.jpg,AFSA17.jpg,AFSA12.jpg,FS,4,num_8,32,num_2,1.18367219949,,,2017_May_12_1541,59.9932076277,MAFE4ImagesEEG,001,200334,
AFNE01.JPG,AFNE01.JPG,AFNE01.JPG,AFNE01.JPG,AFNE01.JPG,AFNE01.JPG,,,,,,,,,,,,,3,3,33,4,,,,,,,,,,,AFNE14.jpg,AFSA06.jpg,AFSA16.jpg,AFNE10.jpg,AFNE10.jpg,FN,3,num_4,32,num_8,1.11674293317,,,2017_May_12_1541,59.9932076277,MAFE4ImagesEEG,001,200334,
AFNE01.JPG,AFNE01.JPG,AFNE01.JPG,AFNE01.JPG,AFNE01.JPG,AFNE01.JPG,,,,,,,,,,,,,3,4,34,3,,,,,,,,,,,AFNE08.jpg,AFSA02.jpg,AFSA10.jpg,AFNE20.jpg,AFSA10.jpg,FS,4,num_2,16,num_2,0.816775873303,,,2017_May_12_1541,59.9932076277,MAFE4ImagesEEG,001,200334,
AFNE01.JPG,AFNE01.JPG,AFNE01.JPG,AFNE01.JPG,AFNE01.JPG,AFNE01.JPG,,,,,,,,,,,,,3,5,35,9,,,,,,,,,,,AFNE09.jpg,AFSA12.jpg,AFSA06.jpg,AFNE20.jpg,AFNE20.jpg,FN,3,num_4,16,num_4,0.816767212935,,,2017_May_12_1541,59.9932076277,MAFE4ImagesEEG,001,200334,
AFNE01.JPG,AFNE01.JPG,AFNE01.JPG,AFNE01.JPG,AFNE01.JPG,AFNE01.JPG,,,,,,,,,,,,,3,6,36,7,,,,,,,,,,,AFSA07.jpg,AFNE17.jpg,AFSA18.jpg,AFNE05.jpg,AFNE05.jpg,FN,3,num_4,32,num_8,0.983472635504,,,2017_May_12_1541,59.9932076277,MAFE4ImagesEEG,001,200334,
AFNE01.JPG,AFNE01.JPG,AFNE01.JPG,AFNE01.JPG,AFNE01.JPG,AFNE01.JPG,,,,,,,,,,,,,3,7,37,6,,,,,,,,,,,AFSA12.jpg,AFSA09.jpg,AFNE09.jpg,AFNE07.jpg,AFSA12.jpg,FS,4,num_8,16,num_8,1.20009788964,,,2017_May_12_1541,59.9932076277,MAFE4ImagesEEG,001,200334,
AFNE01.JPG,AFNE01.JPG,AFNE01.JPG,AFNE01.JPG,AFNE01.JPG,AFNE01.JPG,,,,,,,,,,,,,3,8,38,5,,,,,,,,,,,AFNE04.jpg,AFNE01.jpg,AFSA18.jpg,AFSA08.jpg,AFNE01.jpg,FN,3,num_6,16,num_6,0.550170809496,,,2017_May_12_1541,59.9932076277,MAFE4ImagesEEG,001,200334,
AFNE01.JPG,AFNE01.JPG,AFNE01.JPG,AFNE01.JPG,AFNE01.JPG,AFNE01.JPG,,,,,,,,,,,,,3,9,39,8,,,,,,,,,,,AFSA11.jpg,AFSA19.jpg,AFNE17.jpg,AFNE03.jpg,AFNE03.jpg,FN,3,num_4,16,num_4,0.566918200813,,,2017_May_12_1541,59.9932076277,MAFE4ImagesEEG,001,200334,
AFNE01.JPG,AFNE01.JPG,AFNE01.JPG,AFNE01.JPG,AFNE01.JPG,AFNE01.JPG,,,,,,,,,,,,,4,0,40,6,,,,,,,,,,,AFNE13.jpg,AFSA14.jpg,AFNE10.jpg,AFSA20.jpg,AFSA20.jpg,FS,4,num_4,32,num_6,0.783444667235,,,2017_May_12_1541,59.9932076277,MAFE4ImagesEEG,001,200334,
AFNE01.JPG,AFNE01.JPG,AFNE01.JPG,AFNE01.JPG,AFNE01.JPG,AFNE01.JPG,,,,,,,,,,,,,4,1,41,5,,,,,,,,,,,AFSA07.jpg,AFNE06.jpg,AFSA06.jpg,AFNE13.jpg,AFSA06.jpg,FS,4,num_2,32,num_6,0.650138446596,,,2017_May_12_1541,59.9932076277,MAFE4ImagesEEG,001,200334,
AFNE01.JPG,AFNE01.JPG,AFNE01.JPG,AFNE01.JPG,AFNE01.JPG,AFNE01.JPG,,,,,,,,,,,,,4,2,42,1,,,,,,,,,,,AFSA17.jpg,AFNE10.jpg,AFNE09.jpg,AFSA07.jpg,AFSA17.jpg,FS,4,num_8,16,num_8,1.11682279734,,,2017_May_12_1541,59.9932076277,MAFE4ImagesEEG,001,200334,
AFNE01.JPG,AFNE01.JPG,AFNE01.JPG,AFNE01.JPG,AFNE01.JPG,AFNE01.JPG,,,,,,,,,,,,,4,3,43,7,,,,,,,,,,,AFSA03.jpg,AFNE04.jpg,AFSA13.jpg,AFNE06.jpg,AFNE06.jpg,FN,3,num_4,16,num_4,1.15009530773,,,2017_May_12_1541,59.9932076277,MAFE4ImagesEEG,001,200334,
AFNE01.JPG,AFNE01.JPG,AFNE01.JPG,AFNE01.JPG,AFNE01.JPG,AFNE01.JPG,,,,,,,,,,,,,4,4,44,2,,,,,,,,,,,AFSA08.jpg,AFNE13.jpg,AFSA06.jpg,AFNE10.jpg,AFSA08.jpg,FS,4,num_8,32,num_2,2.38326556608,,,2017_May_12_1541,59.9932076277,MAFE4ImagesEEG,001,200334,
AFNE01.JPG,AFNE01.JPG,AFNE01.JPG,AFNE01.JPG,AFNE01.JPG,AFNE01.JPG,,,,,,,,,,,,,4,5,45,3,,,,,,,,,,,AFNE09.jpg,AFSA07.jpg,AFNE10.jpg,AFSA20.jpg,AFNE09.jpg,FN,3,num_8,32,num_6,1.25023005018,,,2017_May_12_1541,59.9932076277,MAFE4ImagesEEG,001,200334,
AFNE01.JPG,AFNE01.JPG,AFNE01.JPG,AFNE01.JPG,AFNE01.JPG,AFNE01.JPG,,,,,,,,,,,,,4,6,46,0,,,,,,,,,,,AFNE13.jpg,AFSA17.jpg,AFNE05.jpg,AFSA01.jpg,AFSA17.jpg,FS,4,num_6,32,num_4,1.56672351202,,,2017_May_12_1541,59.9932076277,MAFE4ImagesEEG,001,200334,
AFNE01.JPG,AFNE01.JPG,AFNE01.JPG,AFNE01.JPG,AFNE01.JPG,AFNE01.JPG,,,,,,,,,,,,,4,7,47,4,,,,,,,,,,,AFSA16.jpg,AFSA06.jpg,AFNE12.jpg,AFNE17.jpg,AFNE17.jpg,FN,3,num_4,16,num_4,1.5665275408,,,2017_May_12_1541,59.9932076277,MAFE4ImagesEEG,001,200334,
AFNE01.JPG,AFNE01.JPG,AFNE01.JPG,AFNE01.JPG,AFNE01.JPG,AFNE01.JPG,,,,,,,,,,,,,4,8,48,9,,,,,,,,,,,AFSA01.jpg,AFNE10.jpg,AFNE18.jpg,AFSA19.jpg,AFNE10.jpg,FN,3,num_6,16,num_6,0.666887442116,,,2017_May_12_1541,59.9932076277,MAFE4ImagesEEG,001,200334,
AFNE01.JPG,AFNE01.JPG,AFNE01.JPG,AFNE01.JPG,AFNE01.JPG,AFNE01.JPG,,,,,,,,,,,,,4,9,49,8,,,,,,,,,,,AFSA18.jpg,AFNE15.jpg,AFNE06.jpg,AFSA15.jpg,AFSA15.jpg,FS,4,num_4,16,num_4,1.06680289516,,,2017_May_12_1541,59.9932076277,MAFE4ImagesEEG,001,200334,
AFNE01.JPG,AFNE01.JPG,AFNE01.JPG,AFNE01.JPG,AFNE01.JPG,AFNE01.JPG,,,,,,,,,,,,,5,0,50,4,,,,,,,,,,,AFNE15.jpg,AFSA20.jpg,AFNE03.jpg,AFSA06.jpg,AFSA20.jpg,FS,4,num_6,16,num_6,1.93338088831,,,2017_May_12_1541,59.9932076277,MAFE4ImagesEEG,001,200334,
AFNE01.JPG,AFNE01.JPG,AFNE01.JPG,AFNE01.JPG,AFNE01.JPG,AFNE01.JPG,,,,,,,,,,,,,5,1,51,5,,,,,,,,,,,AFSA06.jpg,AFNE03.jpg,AFNE19.jpg,AFSA03.jpg,AFSA03.jpg,FS,4,num_4,16,num_4,0.700146160554,,,2017_May_12_1541,59.9932076277,MAFE4ImagesEEG,001,200334,
AFNE01.JPG,AFNE01.JPG,AFNE01.JPG,AFNE01.JPG,AFNE01.JPG,AFNE01.JPG,,,,,,,,,,,,,5,2,52,9,,,,,,,,,,,AFSA14.jpg,AFNE06.jpg,AFSA16.jpg,AFNE09.jpg,AFSA14.jpg,FS,4,num_8,32,num_6,3.65003773523,,,2017_May_12_1541,59.9932076277,MAFE4ImagesEEG,001,200334,
AFNE01.JPG,AFNE01.JPG,AFNE01.JPG,AFNE01.JPG,AFNE01.JPG,AFNE01.JPG,,,,,,,,,,,,,5,3,53,7,,,,,,,,,,,AFNE07.jpg,AFNE01.jpg,AFSA15.jpg,AFSA19.jpg,AFSA15.jpg,FS,4,num_2,32,num_8,0.967096660286,,,2017_May_12_1541,59.9932076277,MAFE4ImagesEEG,001,200334,
AFNE01.JPG,AFNE01.JPG,AFNE01.JPG,AFNE01.JPG,AFNE01.JPG,AFNE01.JPG,,,,,,,,,,,,,5,4,54,2,,,,,,,,,,,AFNE07.jpg,AFSA14.jpg,AFSA04.jpg,AFNE19.jpg,AFNE19.jpg,FN,3,num_4,16,num_4,0.749990297481,,,2017_May_12_1541,59.9932076277,MAFE4ImagesEEG,001,200334,
AFNE01.JPG,AFNE01.JPG,AFNE01.JPG,AFNE01.JPG,AFNE01.JPG,AFNE01.JPG,,,,,,,,,,,,,5,5,55,8,,,,,,,,,,,AFSA17.jpg,AFSA13.jpg,AFNE07.jpg,AFNE08.jpg,AFSA17.jpg,FS,4,num_8,16,num_8,1.03349734843,,,2017_May_12_1541,59.9932076277,MAFE4ImagesEEG,001,200334,
AFNE01.JPG,AFNE01.JPG,AFNE01.JPG,AFNE01.JPG,AFNE01.JPG,AFNE01.JPG,,,,,,,,,,,,,5,6,56,3,,,,,,,,,,,AFNE17.jpg,AFSA12.jpg,AFSA15.jpg,AFNE09.jpg,AFNE09.jpg,FN,3,num_4,16,num_4,0.533485962544,,,2017_May_12_1541,59.9932076277,MAFE4ImagesEEG,001,200334,
AFNE01.JPG,AFNE01.JPG,AFNE01.JPG,AFNE01.JPG,AFNE01.JPG,AFNE01.JPG,,,,,,,,,,,,,5,7,57,6,,,,,,,,,,,AFNE05.jpg,AFNE20.jpg,AFSA06.jpg,AFSA12.jpg,AFSA06.jpg,FS,4,num_2,32,num_6,1.05008084234,,,2017_May_12_1541,59.9932076277,MAFE4ImagesEEG,001,200334,
AFNE01.JPG,AFNE01.JPG,AFNE01.JPG,AFNE01.JPG,AFNE01.JPG,AFNE01.JPG,,,,,,,,,,,,,5,8,58,0,,,,,,,,,,,AFNE16.jpg,AFNE05.jpg,AFSA05.jpg,AFSA02.jpg,AFSA05.jpg,FS,4,num_2,16,num_2,0.883312234189,,,2017_May_12_1541,59.9932076277,MAFE4ImagesEEG,001,200334,
AFNE01.JPG,AFNE01.JPG,AFNE01.JPG,AFNE01.JPG,AFNE01.JPG,AFNE01.JPG,,,,,,,,,,,,,5,9,59,1,,,,,,,,,,,AFNE11.jpg,AFNE20.jpg,AFSA12.jpg,AFSA14.jpg,AFNE11.jpg,FN,3,num_8,32,num_6,0.73349564895,,,2017_May_12_1541,59.9932076277,MAFE4ImagesEEG,001,200334,
,,,,,,,,,,,,,,,,,,,,,,,,,,,,,,,,,,,,,,,,,,,space,31.6476633037,2017_May_12_1541,59.9932076277,MAFE4ImagesEEG,001,200334,
AFNE01.JPG,AFNE01.JPG,AFNE01.JPG,AFNE01.JPG,AFNE01.JPG,AFNE01.JPG,,,,,,,,,,,,,,,,,0,0,0,8,,,,,,,AMSA10.jpg,AMSA07.jpg,AMNE15.jpg,AMNE14.jpg,AMSA07.jpg,MS,2,num_6,16,num_6,1.26685267361,,,2017_May_12_1541,59.9932076277,MAFE4ImagesEEG,001,200334,
AFNE01.JPG,AFNE01.JPG,AFNE01.JPG,AFNE01.JPG,AFNE01.JPG,AFNE01.JPG,,,,,,,,,,,,,,,,,0,1,1,1,,,,,,,AMSA01.jpg,AMNE11.jpg,AMSA08.jpg,AMNE16.jpg,AMNE11.jpg,MN,1,num_6,32,num_4,0.533420852385,,,2017_May_12_1541,59.9932076277,MAFE4ImagesEEG,001,200334,
AFNE01.JPG,AFNE01.JPG,AFNE01.JPG,AFNE01.JPG,AFNE01.JPG,AFNE01.JPG,,,,,,,,,,,,,,,,,0,2,2,5,,,,,,,AMSA14.jpg,AMNE02.jpg,AMNE07.jpg,AMSA17.jpg,AMNE02.jpg,MN,1,num_6,32,num_8,0.55987316696,,,2017_May_12_1541,59.9932076277,MAFE4ImagesEEG,001,200334,
AFNE01.JPG,AFNE01.JPG,AFNE01.JPG,AFNE01.JPG,AFNE01.JPG,AFNE01.JPG,,,,,,,,,,,,,,,,,0,3,3,0,,,,,,,AMNE08.jpg,AMSA04.jpg,AMNE09.jpg,AMSA03.jpg,AMNE08.jpg,MN,1,num_8,16,num_8,0.733476404566,,,2017_May_12_1541,59.9932076277,MAFE4ImagesEEG,001,200334,
AFNE01.JPG,AFNE01.JPG,AFNE01.JPG,AFNE01.JPG,AFNE01.JPG,AFNE01.JPG,,,,,,,,,,,,,,,,,0,4,4,7,,,,,,,AMSA18.jpg,AMSA15.jpg,AMNE17.jpg,AMNE06.jpg,AMNE17.jpg,MN,1,num_2,32,num_4,0.850124719553,,,2017_May_12_1541,59.9932076277,MAFE4ImagesEEG,001,200334,
AFNE01.JPG,AFNE01.JPG,AFNE01.JPG,AFNE01.JPG,AFNE01.JPG,AFNE01.JPG,,,,,,,,,,,,,,,,,0,5,5,6,,,,,,,AMNE11.jpg,AMSA18.jpg,AMNE03.jpg,AMSA09.jpg,AMSA18.jpg,MS,2,num_6,16,num_6,0.500119796023,,,2017_May_12_1541,59.9932076277,MAFE4ImagesEEG,001,200334,
AFNE01.JPG,AFNE01.JPG,AFNE01.JPG,AFNE01.JPG,AFNE01.JPG,AFNE01.JPG,,,,,,,,,,,,,,,,,0,6,6,3,,,,,,,AMSA06.jpg,AMNE15.jpg,AMSA08.jpg,AMNE08.jpg,AMNE08.jpg,MN,1,num_4,32,num_2,1.20015113195,,,2017_May_12_1541,59.9932076277,MAFE4ImagesEEG,001,200334,
AFNE01.JPG,AFNE01.JPG,AFNE01.JPG,AFNE01.JPG,AFNE01.JPG,AFNE01.JPG,,,,,,,,,,,,,,,,,0,7,7,2,,,,,,,AMSA20.jpg,AMSA19.jpg,AMNE19.jpg,AMNE06.jpg,AMSA19.jpg,MS,2,num_6,16,num_6,0.483492361382,,,2017_May_12_1541,59.9932076277,MAFE4ImagesEEG,001,200334,
AFNE01.JPG,AFNE01.JPG,AFNE01.JPG,AFNE01.JPG,AFNE01.JPG,AFNE01.JPG,,,,,,,,,,,,,,,,,0,8,8,4,,,,,,,AMNE03.jpg,AMSA01.jpg,AMNE08.jpg,AMSA20.jpg,AMSA20.jpg,MS,2,num_4,16,num_4,1.03346399171,,,2017_May_12_1541,59.9932076277,MAFE4ImagesEEG,001,200334,
AFNE01.JPG,AFNE01.JPG,AFNE01.JPG,AFNE01.JPG,AFNE01.JPG,AFNE01.JPG,,,,,,,,,,,,,,,,,0,9,9,9,,,,,,,AMNE18.jpg,AMSA04.jpg,AMSA02.jpg,AMNE02.jpg,AMSA04.jpg,MS,2,num_6,32,num_2,1.23344192468,,,2017_May_12_1541,59.9932076277,MAFE4ImagesEEG,001,200334,
AFNE01.JPG,AFNE01.JPG,AFNE01.JPG,AFNE01.JPG,AFNE01.JPG,AFNE01.JPG,,,,,,,,,,,,,,,,,1,0,10,8,,,,,,,AMNE01.jpg,AMSA19.jpg,AMNE10.jpg,AMSA12.jpg,AMNE01.jpg,MN,1,num_8,16,num_8,0.983432222623,,,2017_May_12_1541,59.9932076277,MAFE4ImagesEEG,001,200334,
AFNE01.JPG,AFNE01.JPG,AFNE01.JPG,AFNE01.JPG,AFNE01.JPG,AFNE01.JPG,,,,,,,,,,,,,,,,,1,1,11,2,,,,,,,AMNE03.jpg,AMSA14.jpg,AMNE16.jpg,AMSA17.jpg,AMSA14.jpg,MS,2,num_6,16,num_6,1.41676195292,,,2017_May_12_1541,59.9932076277,MAFE4ImagesEEG,001,200334,
AFNE01.JPG,AFNE01.JPG,AFNE01.JPG,AFNE01.JPG,AFNE01.JPG,AFNE01.JPG,,,,,,,,,,,,,,,,,1,2,12,6,,,,,,,AMNE02.jpg,AMSA12.jpg,AMNE05.jpg,AMSA17.jpg,AMNE02.jpg,MN,1,num_8,16,num_8,1.1168824546,,,2017_May_12_1541,59.9932076277,MAFE4ImagesEEG,001,200334,
AFNE01.JPG,AFNE01.JPG,AFNE01.JPG,AFNE01.JPG,AFNE01.JPG,AFNE01.JPG,,,,,,,,,,,,,,,,,1,3,13,1,,,,,,,AMNE12.jpg,AMSA10.jpg,AMNE06.jpg,AMSA12.jpg,AMNE12.jpg,MN,1,num_8,32,num_4,1.11672272626,,,2017_May_12_1541,59.9932076277,MAFE4ImagesEEG,001,200334,
AFNE01.JPG,AFNE01.JPG,AFNE01.JPG,AFNE01.JPG,AFNE01.JPG,AFNE01.JPG,,,,,,,,,,,,,,,,,1,4,14,4,,,,,,,AMNE02.jpg,AMSA03.jpg,AMNE04.jpg,AMSA17.jpg,AMNE02.jpg,MN,1,num_8,16,num_8,0.933471978176,,,2017_May_12_1541,59.9932076277,MAFE4ImagesEEG,001,200334,
AFNE01.JPG,AFNE01.JPG,AFNE01.JPG,AFNE01.JPG,AFNE01.JPG,AFNE01.JPG,,,,,,,,,,,,,,,,,1,5,15,0,,,,,,,AMNE13.jpg,AMSA02.jpg,AMSA03.jpg,AMNE15.jpg,AMSA03.jpg,MS,2,num_2,32,num_6,0.666745675728,,,2017_May_12_1541,59.9932076277,MAFE4ImagesEEG,001,200334,
AFNE01.JPG,AFNE01.JPG,AFNE01.JPG,AFNE01.JPG,AFNE01.JPG,AFNE01.JPG,,,,,,,,,,,,,,,,,1,6,16,5,,,,,,,AMNE11.jpg,AMSA20.jpg,AMNE06.jpg,AMSA18.jpg,AMNE06.jpg,MN,1,num_2,32,num_6,0.966802863404,,,2017_May_12_1541,59.9932076277,MAFE4ImagesEEG,001,200334,
AFNE01.JPG,AFNE01.JPG,AFNE01.JPG,AFNE01.JPG,AFNE01.JPG,AFNE01.JPG,,,,,,,,,,,,,,,,,1,7,17,7,,,,,,,AMNE14.jpg,AMSA17.jpg,AMSA12.jpg,AMNE03.jpg,AMNE14.jpg,MN,1,num_8,16,num_8,0.86674573971,,,2017_May_12_1541,59.9932076277,MAFE4ImagesEEG,001,200334,
AFNE01.JPG,AFNE01.JPG,AFNE01.JPG,AFNE01.JPG,AFNE01.JPG,AFNE01.JPG,,,,,,,,,,,,,,,,,1,8,18,3,,,,,,,AMSA03.jpg,AMNE20.jpg,AMNE19.jpg,AMSA01.jpg,AMSA03.jpg,MS,2,num_8,32,num_4,0.683445276693,,,2017_May_12_1541,59.9932076277,MAFE4ImagesEEG,001,200334,
AFNE01.JPG,AFNE01.JPG,AFNE01.JPG,AFNE01.JPG,AFNE01.JPG,AFNE01.JPG,,,,,,,,,,,,,,,,,1,9,19,9,,,,,,,AMNE09.jpg,AMNE12.jpg,AMSA06.jpg,AMSA17.jpg,AMSA17.jpg,MS,2,num_4,32,num_2,2.5835860488,,,2017_May_12_1541,59.9932076277,MAFE4ImagesEEG,001,200334,
AFNE01.JPG,AFNE01.JPG,AFNE01.JPG,AFNE01.JPG,AFNE01.JPG,AFNE01.JPG,,,,,,,,,,,,,,,,,2,0,20,0,,,,,,,AMNE12.jpg,AMNE03.jpg,AMSA08.jpg,AMSA03.jpg,AMNE12.jpg,MN,1,num_8,16,num_8,0.983336962759,,,2017_May_12_1541,59.9932076277,MAFE4ImagesEEG,001,200334,
AFNE01.JPG,AFNE01.JPG,AFNE01.JPG,AFNE01.JPG,AFNE01.JPG,AFNE01.JPG,,,,,,,,,,,,,,,,,2,1,21,9,,,,,,,AMNE04.jpg,AMSA11.jpg,AMNE07.jpg,AMSA02.jpg,AMNE07.jpg,MN,1,num_2,16,num_2,1.30009984598,,,2017_May_12_1541,59.9932076277,MAFE4ImagesEEG,001,200334,
AFNE01.JPG,AFNE01.JPG,AFNE01.JPG,AFNE01.JPG,AFNE01.JPG,AFNE01.JPG,,,,,,,,,,,,,,,,,2,2,22,6,,,,,,,AMNE17.jpg,AMSA20.jpg,AMNE03.jpg,AMSA03.jpg,AMSA03.jpg,MS,2,num_4,32,num_6,0.850121832453,,,2017_May_12_1541,59.9932076277,MAFE4ImagesEEG,001,200334,
AFNE01.JPG,AFNE01.JPG,AFNE01.JPG,AFNE01.JPG,AFNE01.JPG,AFNE01.JPG,,,,,,,,,,,,,,,,,2,3,23,7,,,,,,,AMSA01.jpg,AMNE20.jpg,AMNE04.jpg,AMSA20.jpg,AMNE04.jpg,MN,1,num_2,32,num_8,0.766774574295,,,2017_May_12_1541,59.9932076277,MAFE4ImagesEEG,001,200334,
AFNE01.JPG,AFNE01.JPG,AFNE01.JPG,AFNE01.JPG,AFNE01.JPG,AFNE01.JPG,,,,,,,,,,,,,,,,,2,4,24,2,,,,,,,AMSA15.jpg,AMNE14.jpg,AMNE11.jpg,AMSA07.jpg,AMNE14.jpg,MN,1,num_6,16,num_6,0.850159680005,,,2017_May_12_1541,59.9932076277,MAFE4ImagesEEG,001,200334,
AFNE01.JPG,AFNE01.JPG,AFNE01.JPG,AFNE01.JPG,AFNE01.JPG,AFNE01.JPG,,,,,,,,,,,,,,,,,2,5,25,8,,,,,,,AMSA04.jpg,AMNE04.jpg,AMSA20.jpg,AMNE16.jpg,AMSA04.jpg,MS,2,num_8,16,num_8,1.50005661044,,,2017_May_12_1541,59.9932076277,MAFE4ImagesEEG,001,200334,
AFNE01.JPG,AFNE01.JPG,AFNE01.JPG,AFNE01.JPG,AFNE01.JPG,AFNE01.JPG,,,,,,,,,,,,,,,,,2,6,26,1,,,,,,,AMNE19.jpg,AMSA08.jpg,AMSA01.jpg,AMNE17.jpg,AMNE17.jpg,MN,1,num_4,16,num_4,0.533515149727,,,2017_May_12_1541,59.9932076277,MAFE4ImagesEEG,001,200334,
AFNE01.JPG,AFNE01.JPG,AFNE01.JPG,AFNE01.JPG,AFNE01.JPG,AFNE01.JPG,,,,,,,,,,,,,,,,,2,7,27,5,,,,,,,AMSA09.jpg,AMNE08.jpg,AMNE19.jpg,AMSA05.jpg,AMNE08.jpg,MN,1,num_6,32,num_8,1.23342781235,,,2017_May_12_1541,59.9932076277,MAFE4ImagesEEG,001,200334,
AFNE01.JPG,AFNE01.JPG,AFNE01.JPG,AFNE01.JPG,AFNE01.JPG,AFNE01.JPG,,,,,,,,,,,,,,,,,2,8,28,4,,,,,,,AMSA19.jpg,AMNE10.jpg,AMNE18.jpg,AMSA05.jpg,AMSA19.jpg,MS,2,num_8,32,num_2,2.41664167587,,,2017_May_12_1541,59.9932076277,MAFE4ImagesEEG,001,200334,
AFNE01.JPG,AFNE01.JPG,AFNE01.JPG,AFNE01.JPG,AFNE01.JPG,AFNE01.JPG,,,,,,,,,,,,,,,,,2,9,29,3,,,,,,,AMSA19.jpg,AMNE07.jpg,AMNE03.jpg,AMSA16.jpg,AMNE07.jpg,MN,1,num_6,16,num_6,0.916816639248,,,2017_May_12_1541,59.9932076277,MAFE4ImagesEEG,001,200334,
AFNE01.JPG,AFNE01.JPG,AFNE01.JPG,AFNE01.JPG,AFNE01.JPG,AFNE01.JPG,,,,,,,,,,,,,,,,,3,0,30,5,,,,,,,AMSA13.jpg,AMNE04.jpg,AMNE05.jpg,AMSA19.jpg,AMSA19.jpg,MS,2,num_4,16,num_4,0.650159936398,,,2017_May_12_1541,59.9932076277,MAFE4ImagesEEG,001,200334,
AFNE01.JPG,AFNE01.JPG,AFNE01.JPG,AFNE01.JPG,AFNE01.JPG,AFNE01.JPG,,,,,,,,,,,,,,,,,3,1,31,4,,,,,,,AMSA10.jpg,AMNE11.jpg,AMSA03.jpg,AMNE01.jpg,AMSA03.jpg,MS,2,num_2,16,num_2,1.93340237765,,,2017_May_12_1541,59.9932076277,MAFE4ImagesEEG,001,200334,
AFNE01.JPG,AFNE01.JPG,AFNE01.JPG,AFNE01.JPG,AFNE01.JPG,AFNE01.JPG,,,,,,,,,,,,,,,,,3,2,32,0,,,,,,,AMSA02.jpg,AMNE16.jpg,AMNE20.jpg,AMSA18.jpg,AMNE16.jpg,MN,1,num_6,16,num_6,0.71690606093,,,2017_May_12_1541,59.9932076277,MAFE4ImagesEEG,001,200334,
AFNE01.JPG,AFNE01.JPG,AFNE01.JPG,AFNE01.JPG,AFNE01.JPG,AFNE01.JPG,,,,,,,,,,,,,,,,,3,3,33,1,,,,,,,AMSA06.jpg,AMNE08.jpg,AMSA18.jpg,AMNE12.jpg,AMNE08.jpg,MN,1,num_6,16,num_6,0.650151918177,,,2017_May_12_1541,59.9932076277,MAFE4ImagesEEG,001,200334,
AFNE01.JPG,AFNE01.JPG,AFNE01.JPG,AFNE01.JPG,AFNE01.JPG,AFNE01.JPG,,,,,,,,,,,,,,,,,3,4,34,9,,,,,,,AMSA17.jpg,AMNE08.jpg,AMNE11.jpg,AMSA19.jpg,AMNE08.jpg,MN,1,num_6,32,num_2,1.21674232371,,,2017_May_12_1541,59.9932076277,MAFE4ImagesEEG,001,200334,
AFNE01.JPG,AFNE01.JPG,AFNE01.JPG,AFNE01.JPG,AFNE01.JPG,AFNE01.JPG,,,,,,,,,,,,,,,,,3,5,35,7,,,,,,,AMNE12.jpg,AMSA14.jpg,AMSA16.jpg,AMNE08.jpg,AMSA14.jpg,MS,2,num_6,16,num_6,1.00002694223,,,2017_May_12_1541,59.9932076277,MAFE4ImagesEEG,001,200334,
AFNE01.JPG,AFNE01.JPG,AFNE01.JPG,AFNE01.JPG,AFNE01.JPG,AFNE01.JPG,,,,,,,,,,,,,,,,,3,6,36,8,,,,,,,AMNE07.jpg,AMNE02.jpg,AMSA18.jpg,AMSA15.jpg,AMNE07.jpg,MN,1,num_8,16,num_8,0.933442470152,,,2017_May_12_1541,59.9932076277,MAFE4ImagesEEG,001,200334,
AFNE01.JPG,AFNE01.JPG,AFNE01.JPG,AFNE01.JPG,AFNE01.JPG,AFNE01.JPG,,,,,,,,,,,,,,,,,3,7,37,6,,,,,,,AMNE16.jpg,AMNE07.jpg,AMSA12.jpg,AMSA20.jpg,AMNE07.jpg,MN,1,num_6,16,num_6,0.816656237468,,,2017_May_12_1541,59.9932076277,MAFE4ImagesEEG,001,200334,
AFNE01.JPG,AFNE01.JPG,AFNE01.JPG,AFNE01.JPG,AFNE01.JPG,AFNE01.JPG,,,,,,,,,,,,,,,,,3,8,38,3,,,,,,,AMSA01.jpg,AMNE10.jpg,AMSA12.jpg,AMNE19.jpg,AMSA12.jpg,MS,2,num_2,32,num_4,1.28331524879,,,2017_May_12_1541,59.9932076277,MAFE4ImagesEEG,001,200334,
AFNE01.JPG,AFNE01.JPG,AFNE01.JPG,AFNE01.JPG,AFNE01.JPG,AFNE01.JPG,,,,,,,,,,,,,,,,,3,9,39,2,,,,,,,AMSA20.jpg,AMNE10.jpg,AMSA19.jpg,AMNE11.jpg,AMSA20.jpg,MS,2,num_8,16,num_8,1.08346817736,,,2017_May_12_1541,59.9932076277,MAFE4ImagesEEG,001,200334,
AFNE01.JPG,AFNE01.JPG,AFNE01.JPG,AFNE01.JPG,AFNE01.JPG,AFNE01.JPG,,,,,,,,,,,,,,,,,4,0,40,5,,,,,,,AMNE11.jpg,AMNE12.jpg,AMSA14.jpg,AMSA13.jpg,AMSA14.jpg,MS,2,num_2,16,num_2,1.1002011355,,,2017_May_12_1541,59.9932076277,MAFE4ImagesEEG,001,200334,
AFNE01.JPG,AFNE01.JPG,AFNE01.JPG,AFNE01.JPG,AFNE01.JPG,AFNE01.JPG,,,,,,,,,,,,,,,,,4,1,41,6,,,,,,,AMNE07.jpg,AMSA06.jpg,AMSA15.jpg,AMNE16.jpg,AMSA15.jpg,MS,2,num_2,32,num_6,0.850147491787,,,2017_May_12_1541,59.9932076277,MAFE4ImagesEEG,001,200334,
AFNE01.JPG,AFNE01.JPG,AFNE01.JPG,AFNE01.JPG,AFNE01.JPG,AFNE01.JPG,,,,,,,,,,,,,,,,,4,2,42,1,,,,,,,AMSA01.jpg,AMNE14.jpg,AMSA15.jpg,AMNE13.jpg,AMSA01.jpg,MS,2,num_8,16,num_8,0.950124430936,,,2017_May_12_1541,59.9932076277,MAFE4ImagesEEG,001,200334,
AFNE01.JPG,AFNE01.JPG,AFNE01.JPG,AFNE01.JPG,AFNE01.JPG,AFNE01.JPG,,,,,,,,,,,,,,,,,4,3,43,0,,,,,,,AMSA10.jpg,AMNE14.jpg,AMNE17.jpg,AMSA19.jpg,AMSA19.jpg,MS,2,num_4,16,num_4,1.46670519793,,,2017_May_12_1541,59.9932076277,MAFE4ImagesEEG,001,200334,
AFNE01.JPG,AFNE01.JPG,AFNE01.JPG,AFNE01.JPG,AFNE01.JPG,AFNE01.JPG,,,,,,,,,,,,,,,,,4,4,44,4,,,,,,,AMNE05.jpg,AMSA12.jpg,AMNE11.jpg,AMSA02.jpg,AMNE05.jpg,MN,1,num_8,16,num_8,1.0335486671,,,2017_May_12_1541,59.9932076277,MAFE4ImagesEEG,001,200334,
AFNE01.JPG,AFNE01.JPG,AFNE01.JPG,AFNE01.JPG,AFNE01.JPG,AFNE01.JPG,,,,,,,,,,,,,,,,,4,5,45,9,,,,,,,AMSA12.jpg,AMNE05.jpg,AMSA17.jpg,AMNE10.jpg,AMNE10.jpg,MN,1,num_4,32,num_8,1.2167076841,,,2017_May_12_1541,59.9932076277,MAFE4ImagesEEG,001,200334,
AFNE01.JPG,AFNE01.JPG,AFNE01.JPG,AFNE01.JPG,AFNE01.JPG,AFNE01.JPG,,,,,,,,,,,,,,,,,4,6,46,8,,,,,,,AMSA06.jpg,AMNE10.jpg,AMSA13.jpg,AMNE06.jpg,AMNE10.jpg,MN,1,num_6,16,num_6,1.00016004872,,,2017_May_12_1541,59.9932076277,MAFE4ImagesEEG,001,200334,
AFNE01.JPG,AFNE01.JPG,AFNE01.JPG,AFNE01.JPG,AFNE01.JPG,AFNE01.JPG,,,,,,,,,,,,,,,,,4,7,47,2,,,,,,,AMNE04.jpg,AMNE08.jpg,AMSA09.jpg,AMSA11.jpg,AMNE04.jpg,MN,1,num_8,16,num_8,0.950106790289,,,2017_May_12_1541,59.9932076277,MAFE4ImagesEEG,001,200334,
AFNE01.JPG,AFNE01.JPG,AFNE01.JPG,AFNE01.JPG,AFNE01.JPG,AFNE01.JPG,,,,,,,,,,,,,,,,,4,8,48,3,,,,,,,AMSA08.jpg,AMNE13.jpg,AMSA14.jpg,AMNE06.jpg,AMSA08.jpg,MS,2,num_8,32,num_6,1.21673334297,,,2017_May_12_1541,59.9932076277,MAFE4ImagesEEG,001,200334,
AFNE01.JPG,AFNE01.JPG,AFNE01.JPG,AFNE01.JPG,AFNE01.JPG,AFNE01.JPG,,,,,,,,,,,,,,,,,4,9,49,7,,,,,,,AMNE17.jpg,AMSA06.jpg,AMSA16.jpg,AMNE03.jpg,AMNE03.jpg,MN,1,num_4,32,num_8,1.44975285465,,,2017_May_12_1541,59.9932076277,MAFE4ImagesEEG,001,200334,
AFNE01.JPG,AFNE01.JPG,AFNE01.JPG,AFNE01.JPG,AFNE01.JPG,AFNE01.JPG,,,,,,,,,,,,,,,,,5,0,50,7,,,,,,,AMSA10.jpg,AMNE11.jpg,AMNE03.jpg,AMSA04.jpg,AMSA04.jpg,MS,2,num_4,16,num_4,1.11676955409,,,2017_May_12_1541,59.9932076277,MAFE4ImagesEEG,001,200334,
AFNE01.JPG,AFNE01.JPG,AFNE01.JPG,AFNE01.JPG,AFNE01.JPG,AFNE01.JPG,,,,,,,,,,,,,,,,,5,1,51,3,,,,,,,AMSA11.jpg,AMSA19.jpg,AMNE14.jpg,AMNE18.jpg,AMSA19.jpg,MS,2,num_6,32,num_8,0.850123757031,,,2017_May_12_1541,59.9932076277,MAFE4ImagesEEG,001,200334,
AFNE01.JPG,AFNE01.JPG,AFNE01.JPG,AFNE01.JPG,AFNE01.JPG,AFNE01.JPG,,,,,,,,,,,,,,,,,5,2,52,0,,,,,,,AMSA04.jpg,AMNE05.jpg,AMNE18.jpg,AMSA17.jpg,AMNE05.jpg,MN,1,num_6,16,num_6,0.883744269609,,,2017_May_12_1541,59.9932076277,MAFE4ImagesEEG,001,200334,
AFNE01.JPG,AFNE01.JPG,AFNE01.JPG,AFNE01.JPG,AFNE01.JPG,AFNE01.JPG,,,,,,,,,,,,,,,,,5,3,53,6,,,,,,,AMNE18.jpg,AMSA13.jpg,AMNE10.jpg,AMSA07.jpg,AMSA07.jpg,MS,2,num_4,16,num_4,1.00022964925,,,2017_May_12_1541,59.9932076277,MAFE4ImagesEEG,001,200334,
AFNE01.JPG,AFNE01.JPG,AFNE01.JPG,AFNE01.JPG,AFNE01.JPG,AFNE01.JPG,,,,,,,,,,,,,,,,,5,4,54,2,,,,,,,AMNE05.jpg,AMNE20.jpg,AMSA18.jpg,AMSA02.jpg,AMSA18.jpg,MS,2,num_2,16,num_2,1.56669304194,,,2017_May_12_1541,59.9932076277,MAFE4ImagesEEG,001,200334,
AFNE01.JPG,AFNE01.JPG,AFNE01.JPG,AFNE01.JPG,AFNE01.JPG,AFNE01.JPG,,,,,,,,,,,,,,,,,5,5,55,1,,,,,,,AMNE06.jpg,AMSA18.jpg,AMNE05.jpg,AMSA14.jpg,AMNE05.jpg,MN,1,num_2,32,num_8,0.783476420213,,,2017_May_12_1541,59.9932076277,MAFE4ImagesEEG,001,200334,
AFNE01.JPG,AFNE01.JPG,AFNE01.JPG,AFNE01.JPG,AFNE01.JPG,AFNE01.JPG,,,,,,,,,,,,,,,,,5,6,56,4,,,,,,,AMNE03.jpg,AMSA11.jpg,AMSA05.jpg,AMNE05.jpg,AMSA05.jpg,MS,2,num_2,32,num_4,0.750144252088,,,2017_May_12_1541,59.9932076277,MAFE4ImagesEEG,001,200334,
AFNE01.JPG,AFNE01.JPG,AFNE01.JPG,AFNE01.JPG,AFNE01.JPG,AFNE01.JPG,,,,,,,,,,,,,,,,,5,7,57,9,,,,,,,AMSA16.jpg,AMNE16.jpg,AMNE06.jpg,AMSA15.jpg,AMSA15.jpg,MS,2,num_4,32,num_8,1.00009750435,,,2017_May_12_1541,59.9932076277,MAFE4ImagesEEG,001,200334,
AFNE01.JPG,AFNE01.JPG,AFNE01.JPG,AFNE01.JPG,AFNE01.JPG,AFNE01.JPG,,,,,,,,,,,,,,,,,5,8,58,8,,,,,,,AMNE12.jpg,AMSA04.jpg,AMNE14.jpg,AMSA17.jpg,AMNE14.jpg,MN,1,num_2,16,num_2,1.50003223401,,,2017_May_12_1541,59.9932076277,MAFE4ImagesEEG,001,200334,
AFNE01.JPG,AFNE01.JPG,AFNE01.JPG,AFNE01.JPG,AFNE01.JPG,AFNE01.JPG,,,,,,,,,,,,,,,,,5,9,59,5,,,,,,,AMNE17.jpg,AMSA11.jpg,AMSA05.jpg,AMNE19.jpg,AMNE19.jpg,MN,1,num_4,32,num_6,1.08348678006,,,2017_May_12_1541,59.9932076277,MAFE4ImagesEEG,001,200334,
,,,,,,,,,,,,,,,,,,,,,,,,,,,,,,,,,,,,,,,,,,,space,30.6810294697,2017_May_12_1541,59.9932076277,MAFE4ImagesEEG,001,200334,
AFNE01.JPG,AFNE01.JPG,AFNE01.JPG,AFNE01.JPG,AFNE01.JPG,AFNE01.JPG,,,,,,,,,,,,,,,,,,,,,0,0,0,0,,,AFSA11.jpg,AFNE19.jpg,AFSA02.jpg,AFNE08.jpg,AFNE19.jpg,FN,3,num_6,16,num_6,0.816748930607,,,2017_May_12_1541,59.9932076277,MAFE4ImagesEEG,001,200334,
AFNE01.JPG,AFNE01.JPG,AFNE01.JPG,AFNE01.JPG,AFNE01.JPG,AFNE01.JPG,,,,,,,,,,,,,,,,,,,,,0,1,1,2,,,AFNE07.jpg,AFSA18.jpg,AFSA13.jpg,AFNE20.jpg,AFNE07.jpg,FN,3,num_8,16,num_8,0.916752491146,,,2017_May_12_1541,59.9932076277,MAFE4ImagesEEG,001,200334,
AFNE01.JPG,AFNE01.JPG,AFNE01.JPG,AFNE01.JPG,AFNE01.JPG,AFNE01.JPG,,,,,,,,,,,,,,,,,,,,,0,2,2,5,,,AFNE04.jpg,AFSA20.jpg,AFNE01.jpg,AFSA02.jpg,AFSA02.jpg,FS,4,num_4,16,num_4,1.01683751913,,,2017_May_12_1541,59.9932076277,MAFE4ImagesEEG,001,200334,
AFNE01.JPG,AFNE01.JPG,AFNE01.JPG,AFNE01.JPG,AFNE01.JPG,AFNE01.JPG,,,,,,,,,,,,,,,,,,,,,0,3,3,4,,,AFSA09.jpg,AFSA01.jpg,AFNE14.jpg,AFNE13.jpg,AFNE13.jpg,FN,3,num_4,32,num_6,2.18332708394,,,2017_May_12_1541,59.9932076277,MAFE4ImagesEEG,001,200334,
AFNE01.JPG,AFNE01.JPG,AFNE01.JPG,AFNE01.JPG,AFNE01.JPG,AFNE01.JPG,,,,,,,,,,,,,,,,,,,,,0,4,4,7,,,AFNE06.jpg,AFSA20.jpg,AFNE10.jpg,AFSA15.jpg,AFNE06.jpg,FN,3,num_8,32,num_6,0.766795421951,,,2017_May_12_1541,59.9932076277,MAFE4ImagesEEG,001,200334,
AFNE01.JPG,AFNE01.JPG,AFNE01.JPG,AFNE01.JPG,AFNE01.JPG,AFNE01.JPG,,,,,,,,,,,,,,,,,,,,,0,5,5,3,,,AFNE18.jpg,AFSA18.jpg,AFSA16.jpg,AFNE19.jpg,AFSA16.jpg,FS,4,num_2,16,num_2,1.81675502472,,,2017_May_12_1541,59.9932076277,MAFE4ImagesEEG,001,200334,
AFNE01.JPG,AFNE01.JPG,AFNE01.JPG,AFNE01.JPG,AFNE01.JPG,AFNE01.JPG,,,,,,,,,,,,,,,,,,,,,0,6,6,1,,,AFNE13.jpg,AFSA02.jpg,AFNE04.jpg,AFSA04.jpg,AFNE04.jpg,FN,3,num_2,32,num_4,0.533474416006,,,2017_May_12_1541,59.9932076277,MAFE4ImagesEEG,001,200334,
AFNE01.JPG,AFNE01.JPG,AFNE01.JPG,AFNE01.JPG,AFNE01.JPG,AFNE01.JPG,,,,,,,,,,,,,,,,,,,,,0,7,7,9,,,AFSA09.jpg,AFNE01.jpg,AFSA13.jpg,AFNE20.jpg,AFSA09.jpg,FS,4,num_8,32,num_6,1.83363135345,,,2017_May_12_1541,59.9932076277,MAFE4ImagesEEG,001,200334,
AFNE01.JPG,AFNE01.JPG,AFNE01.JPG,AFNE01.JPG,AFNE01.JPG,AFNE01.JPG,,,,,,,,,,,,,,,,,,,,,0,8,8,6,,,AFSA16.jpg,AFSA04.jpg,AFNE10.jpg,AFNE16.jpg,AFNE10.jpg,FN,3,num_2,32,num_6,0.750204551499,,,2017_May_12_1541,59.9932076277,MAFE4ImagesEEG,001,200334,
AFNE01.JPG,AFNE01.JPG,AFNE01.JPG,AFNE01.JPG,AFNE01.JPG,AFNE01.JPG,,,,,,,,,,,,,,,,,,,,,0,9,9,8,,,AFSA18.jpg,AFSA09.jpg,AFNE12.jpg,AFNE01.jpg,AFSA09.jpg,FS,4,num_6,16,num_6,1.01677048439,,,2017_May_12_1541,59.9932076277,MAFE4ImagesEEG,001,200334,
AFNE01.JPG,AFNE01.JPG,AFNE01.JPG,AFNE01.JPG,AFNE01.JPG,AFNE01.JPG,,,,,,,,,,,,,,,,,,,,,1,0,10,9,,,AFSA04.jpg,AFNE12.jpg,AFSA17.jpg,AFNE17.jpg,AFNE12.jpg,FN,3,num_6,16,num_6,0.56681331899,,,2017_May_12_1541,59.9932076277,MAFE4ImagesEEG,001,200334,
AFNE01.JPG,AFNE01.JPG,AFNE01.JPG,AFNE01.JPG,AFNE01.JPG,AFNE01.JPG,,,,,,,,,,,,,,,,,,,,,1,1,11,3,,,AFNE14.jpg,AFSA19.jpg,AFNE12.jpg,AFSA16.jpg,AFSA19.jpg,FS,4,num_6,16,num_6,0.633449430112,,,2017_May_12_1541,59.9932076277,MAFE4ImagesEEG,001,200334,
AFNE01.JPG,AFNE01.JPG,AFNE01.JPG,AFNE01.JPG,AFNE01.JPG,AFNE01.JPG,,,,,,,,,,,,,,,,,,,,,1,2,12,2,,,AFSA15.jpg,AFNE19.jpg,AFSA13.jpg,AFNE09.jpg,AFSA13.jpg,FS,4,num_2,32,num_4,0.716800858732,,,2017_May_12_1541,59.9932076277,MAFE4ImagesEEG,001,200334,
AFNE01.JPG,AFNE01.JPG,AFNE01.JPG,AFNE01.JPG,AFNE01.JPG,AFNE01.JPG,,,,,,,,,,,,,,,,,,,,,1,3,13,6,,,AFSA18.jpg,AFNE20.jpg,AFSA07.jpg,AFNE04.jpg,AFNE04.jpg,FN,3,num_4,16,num_4,0.966588288546,,,2017_May_12_1541,59.9932076277,MAFE4ImagesEEG,001,200334,
AFNE01.JPG,AFNE01.JPG,AFNE01.JPG,AFNE01.JPG,AFNE01.JPG,AFNE01.JPG,,,,,,,,,,,,,,,,,,,,,1,4,14,7,,,AFSA20.jpg,AFNE12.jpg,AFSA15.jpg,AFNE14.jpg,AFNE12.jpg,FN,3,num_6,16,num_6,0.566758793779,,,2017_May_12_1541,59.9932076277,MAFE4ImagesEEG,001,200334,
AFNE01.JPG,AFNE01.JPG,AFNE01.JPG,AFNE01.JPG,AFNE01.JPG,AFNE01.JPG,,,,,,,,,,,,,,,,,,,,,1,5,15,4,,,AFNE16.jpg,AFSA10.jpg,AFSA12.jpg,AFNE07.jpg,AFSA10.jpg,FS,4,num_6,16,num_6,0.850113814231,,,2017_May_12_1541,59.9932076277,MAFE4ImagesEEG,001,200334,
AFNE01.JPG,AFNE01.JPG,AFNE01.JPG,AFNE01.JPG,AFNE01.JPG,AFNE01.JPG,,,,,,,,,,,,,,,,,,,,,1,6,16,8,,,AFSA08.jpg,AFNE11.jpg,AFNE06.jpg,AFSA02.jpg,AFNE11.jpg,FN,3,num_6,16,num_6,0.533457737416,,,2017_May_12_1541,59.9932076277,MAFE4ImagesEEG,001,200334,
AFNE01.JPG,AFNE01.JPG,AFNE01.JPG,AFNE01.JPG,AFNE01.JPG,AFNE01.JPG,,,,,,,,,,,,,,,,,,,,,1,7,17,1,,,AFNE12.jpg,AFSA14.jpg,AFSA07.jpg,AFNE11.jpg,AFSA07.jpg,FS,4,num_2,32,num_8,0.666787371505,,,2017_May_12_1541,59.9932076277,MAFE4ImagesEEG,001,200334,
AFNE01.JPG,AFNE01.JPG,AFNE01.JPG,AFNE01.JPG,AFNE01.JPG,AFNE01.JPG,,,,,,,,,,,,,,,,,,,,,1,8,18,0,,,AFNE17.jpg,AFSA08.jpg,AFNE05.jpg,AFSA16.jpg,AFNE17.jpg,FN,3,num_8,32,num_6,0.933470374439,,,2017_May_12_1541,59.9932076277,MAFE4ImagesEEG,001,200334,
AFNE01.JPG,AFNE01.JPG,AFNE01.JPG,AFNE01.JPG,AFNE01.JPG,AFNE01.JPG,,,,,,,,,,,,,,,,,,,,,1,9,19,5,,,AFSA10.jpg,AFSA19.jpg,AFNE17.jpg,AFNE02.jpg,AFNE02.jpg,FN,3,num_4,16,num_4,0.90017188387,,,2017_May_12_1541,59.9932076277,MAFE4ImagesEEG,001,200334,
AFNE01.JPG,AFNE01.JPG,AFNE01.JPG,AFNE01.JPG,AFNE01.JPG,AFNE01.JPG,,,,,,,,,,,,,,,,,,,,,2,0,20,0,,,AFNE04.jpg,AFNE20.jpg,AFSA16.jpg,AFSA10.jpg,AFNE20.jpg,FN,3,num_6,32,num_8,2.68317425204,,,2017_May_12_1541,59.9932076277,MAFE4ImagesEEG,001,200334,
AFNE01.JPG,AFNE01.JPG,AFNE01.JPG,AFNE01.JPG,AFNE01.JPG,AFNE01.JPG,,,,,,,,,,,,,,,,,,,,,2,1,21,1,,,AFNE20.jpg,AFSA02.jpg,AFSA17.jpg,AFNE15.jpg,AFNE20.jpg,FN,3,num_8,16,num_8,2.79999255901,,,2017_May_12_1541,59.9932076277,MAFE4ImagesEEG,001,200334,
AFNE01.JPG,AFNE01.JPG,AFNE01.JPG,AFNE01.JPG,AFNE01.JPG,AFNE01.JPG,,,,,,,,,,,,,,,,,,,,,2,2,22,3,,,AFSA10.jpg,AFNE03.jpg,AFNE15.jpg,AFSA06.jpg,AFSA06.jpg,FS,4,num_4,16,num_4,0.716771991923,,,2017_May_12_1541,59.9932076277,MAFE4ImagesEEG,001,200334,
AFNE01.JPG,AFNE01.JPG,AFNE01.JPG,AFNE01.JPG,AFNE01.JPG,AFNE01.JPG,,,,,,,,,,,,,,,,,,,,,2,3,23,9,,,AFSA10.jpg,AFNE09.jpg,AFSA19.jpg,AFNE18.jpg,AFNE09.jpg,FN,3,num_6,16,num_6,0.966774317436,,,2017_May_12_1541,59.9932076277,MAFE4ImagesEEG,001,200334,
AFNE01.JPG,AFNE01.JPG,AFNE01.JPG,AFNE01.JPG,AFNE01.JPG,AFNE01.JPG,,,,,,,,,,,,,,,,,,,,,2,4,24,7,,,AFSA11.jpg,AFSA04.jpg,AFNE03.jpg,AFNE19.jpg,AFNE03.jpg,FN,3,num_2,16,num_2,1.08351532603,,,2017_May_12_1541,59.9932076277,MAFE4ImagesEEG,001,200334,
AFNE01.JPG,AFNE01.JPG,AFNE01.JPG,AFNE01.JPG,AFNE01.JPG,AFNE01.JPG,,,,,,,,,,,,,,,,,,,,,2,5,25,5,,,AFSA16.jpg,AFNE19.jpg,AFSA15.jpg,AFNE04.jpg,AFSA15.jpg,FS,4,num_2,32,num_4,0.650122730993,,,2017_May_12_1541,59.9932076277,MAFE4ImagesEEG,001,200334,
AFNE01.JPG,AFNE01.JPG,AFNE01.JPG,AFNE01.JPG,AFNE01.JPG,AFNE01.JPG,,,,,,,,,,,,,,,,,,,,,2,6,26,6,,,AFNE08.jpg,AFNE05.jpg,AFSA15.jpg,AFSA14.jpg,AFNE08.jpg,FN,3,num_8,16,num_8,0.833455588669,,,2017_May_12_1541,59.9932076277,MAFE4ImagesEEG,001,200334,
AFNE01.JPG,AFNE01.JPG,AFNE01.JPG,AFNE01.JPG,AFNE01.JPG,AFNE01.JPG,,,,,,,,,,,,,,,,,,,,,2,7,27,4,,,AFNE17.jpg,AFNE07.jpg,AFSA19.jpg,AFSA20.jpg,AFSA20.jpg,FS,4,num_4,32,num_8,0.983532292768,,,2017_May_12_1541,59.9932076277,MAFE4ImagesEEG,001,200334,
AFNE01.JPG,AFNE01.JPG,AFNE01.JPG,AFNE01.JPG,AFNE01.JPG,AFNE01.JPG,,,,,,,,,,,,,,,,,,,,,2,8,28,8,,,AFNE14.jpg,AFNE11.jpg,AFSA12.jpg,AFSA11.jpg,AFNE14.jpg,FN,3,num_8,16,num_8,0.666778069921,,,2017_May_12_1541,59.9932076277,MAFE4ImagesEEG,001,200334,
AFNE01.JPG,AFNE01.JPG,AFNE01.JPG,AFNE01.JPG,AFNE01.JPG,AFNE01.JPG,,,,,,,,,,,,,,,,,,,,,2,9,29,2,,,AFSA19.jpg,AFNE18.jpg,AFNE08.jpg,AFSA01.jpg,AFNE18.jpg,FN,3,num_6,32,num_8,4.40007004933,,,2017_May_12_1541,59.9932076277,MAFE4ImagesEEG,001,200334,
AFNE01.JPG,AFNE01.JPG,AFNE01.JPG,AFNE01.JPG,AFNE01.JPG,AFNE01.JPG,,,,,,,,,,,,,,,,,,,,,3,0,30,1,,,AFNE19.jpg,AFSA19.jpg,AFSA09.jpg,AFNE02.jpg,AFSA19.jpg,FS,4,num_6,16,num_6,0.533463510685,,,2017_May_12_1541,59.9932076277,MAFE4ImagesEEG,001,200334,
AFNE01.JPG,AFNE01.JPG,AFNE01.JPG,AFNE01.JPG,AFNE01.JPG,AFNE01.JPG,,,,,,,,,,,,,,,,,,,,,3,1,31,6,,,AFNE15.jpg,AFSA17.jpg,AFSA12.jpg,AFNE13.jpg,AFNE15.jpg,FN,3,num_8,16,num_8,0.850112210494,,,2017_May_12_1541,59.9932076277,MAFE4ImagesEEG,001,200334,
AFNE01.JPG,AFNE01.JPG,AFNE01.JPG,AFNE01.JPG,AFNE01.JPG,AFNE01.JPG,,,,,,,,,,,,,,,,,,,,,3,2,32,0,,,AFNE11.jpg,AFSA04.jpg,AFNE16.jpg,AFSA10.jpg,AFNE11.jpg,FN,3,num_8,32,num_4,1.23345764121,,,2017_May_12_1541,59.9932076277,MAFE4ImagesEEG,001,200334,
AFNE01.JPG,AFNE01.JPG,AFNE01.JPG,AFNE01.JPG,AFNE01.JPG,AFNE01.JPG,,,,,,,,,,,,,,,,,,,,,3,3,33,2,,,AFNE14.jpg,AFSA06.jpg,AFNE07.jpg,AFSA19.jpg,AFNE14.jpg,FN,3,num_8,32,num_6,0.983443448786,,,2017_May_12_1541,59.9932076277,MAFE4ImagesEEG,001,200334,
AFNE01.JPG,AFNE01.JPG,AFNE01.JPG,AFNE01.JPG,AFNE01.JPG,AFNE01.JPG,,,,,,,,,,,,,,,,,,,,,3,4,34,8,,,AFNE08.jpg,AFSA18.jpg,AFNE13.jpg,AFSA12.jpg,AFSA18.jpg,FS,4,num_6,16,num_6,0.666797955986,,,2017_May_12_1541,59.9932076277,MAFE4ImagesEEG,001,200334,
AFNE01.JPG,AFNE01.JPG,AFNE01.JPG,AFNE01.JPG,AFNE01.JPG,AFNE01.JPG,,,,,,,,,,,,,,,,,,,,,3,5,35,3,,,AFNE15.jpg,AFNE10.jpg,AFSA20.jpg,AFSA18.jpg,AFNE10.jpg,FN,3,num_6,16,num_6,0.916741906665,,,2017_May_12_1541,59.9932076277,MAFE4ImagesEEG,001,200334,
AFNE01.JPG,AFNE01.JPG,AFNE01.JPG,AFNE01.JPG,AFNE01.JPG,AFNE01.JPG,,,,,,,,,,,,,,,,,,,,,3,6,36,4,,,AFSA09.jpg,AFNE12.jpg,AFNE02.jpg,AFSA11.jpg,AFNE02.jpg,FN,3,num_2,16,num_2,0.950104224496,,,2017_May_12_1541,59.9932076277,MAFE4ImagesEEG,001,200334,
AFNE01.JPG,AFNE01.JPG,AFNE01.JPG,AFNE01.JPG,AFNE01.JPG,AFNE01.JPG,,,,,,,,,,,,,,,,,,,,,3,7,37,5,,,AFNE15.jpg,AFSA19.jpg,AFSA17.jpg,AFNE05.jpg,AFSA19.jpg,FS,4,num_6,32,num_2,1.6167806196,,,2017_May_12_1541,59.9932076277,MAFE4ImagesEEG,001,200334,
AFNE01.JPG,AFNE01.JPG,AFNE01.JPG,AFNE01.JPG,AFNE01.JPG,AFNE01.JPG,,,,,,,,,,,,,,,,,,,,,3,8,38,7,,,AFSA05.jpg,AFNE13.jpg,AFSA09.jpg,AFNE15.jpg,AFNE13.jpg,FN,3,num_6,16,num_6,0.900071172044,,,2017_May_12_1541,59.9932076277,MAFE4ImagesEEG,001,200334,
