IPosition2,IPosition3,IPosition1,IPosition6,IPosition4,IPosition5,TrialsF1.thisRepN,TrialsF1.thisTrialN,TrialsF1.thisN,TrialsF1.thisIndex,TrialsM1.thisRepN,TrialsM1.thisTrialN,TrialsM1.thisN,TrialsM1.thisIndex,TrialsF2.thisRepN,TrialsF2.thisTrialN,TrialsF2.thisN,TrialsF2.thisIndex,TrialsM2.thisRepN,TrialsM2.thisTrialN,TrialsM2.thisN,TrialsM2.thisIndex,TrialsF3.thisRepN,TrialsF3.thisTrialN,TrialsF3.thisN,TrialsF3.thisIndex,TrialsM3.thisRepN,TrialsM3.thisTrialN,TrialsM3.thisN,TrialsM3.thisIndex,InstrKey_resp.keys,InstrKey_resp.rt,Image0 _Position,Image1 _Position,Image2 _Position,Image3 _Position,Center_image,condition,code,correct_answer,accuracy,Key_Resp.keys,Key_Resp.rt,BreakKey_resp.keys,BreakKey_resp.rt,date,frameRate,expName,session,participant,
,,,,,,,,,,,,,,,,,,,,,,,,,,,,,,space,18.5826360199,,,,,,,,,,,,,,2017_May_10_1409,59.9975946299,FEMA4ImagesEEG,001,200384,
AFNE23.JPG,AFNE24.JPG,AFNE22.JPG,AFSA24.JPG,AFSA22.JPG,AFSA23.JPG,0,0,0,8,,,,,,,,,,,,,,,,,,,,,,,AFSA12.jpg,AFNE06.jpg,AFNE15.jpg,AFSA19.jpg,AFNE15.jpg,FN,3,num_2,16,num_2,1.61668279441,,,2017_May_10_1409,59.9975946299,FEMA4ImagesEEG,001,200384,
AFNE22.JPG,AFSA24.JPG,AFSA22.JPG,AFNE25.JPG,AFNE24.JPG,AFSA25.JPG,0,1,1,6,,,,,,,,,,,,,,,,,,,,,,,AFSA01.jpg,AFNE20.jpg,AFNE10.jpg,AFSA07.jpg,AFSA07.jpg,FS,4,num_4,32,num_6,0.883462981554,,,2017_May_10_1409,59.9975946299,FEMA4ImagesEEG,001,200384,
AMSA21.JPG,AMNE23.JPG,AMNE21.JPG,AMSA25.JPG,AMNE25.JPG,AMSA23.JPG,0,2,2,5,,,,,,,,,,,,,,,,,,,,,,,AFSA15.jpg,AFNE20.jpg,AFSA06.jpg,AFNE03.jpg,AFSA06.jpg,FS,4,num_2,32,num_4,0.683291321853,,,2017_May_10_1409,59.9975946299,FEMA4ImagesEEG,001,200384,
AFSA21.JPG,AFNE23.JPG,AFNE21.JPG,AFSA25.JPG,AFNE25.JPG,AFSA23.JPG,0,3,3,4,,,,,,,,,,,,,,,,,,,,,,,AFNE12.jpg,AFSA16.jpg,AFSA07.jpg,AFNE18.jpg,AFSA07.jpg,FS,4,num_2,16,num_2,1.18339989195,,,2017_May_10_1409,59.9975946299,FEMA4ImagesEEG,001,200384,
AFSA21.JPG,AFNE22.JPG,AFNE21.JPG,AFSA23.JPG,AFSA22.JPG,AFNE23.JPG,0,4,4,0,,,,,,,,,,,,,,,,,,,,,,,AFSA05.jpg,AFNE03.jpg,AFSA10.jpg,AFNE16.jpg,AFSA05.jpg,FS,4,num_8,16,num_8,0.916775263613,,,2017_May_10_1409,59.9975946299,FEMA4ImagesEEG,001,200384,
AFSA25.JPG,AFNE24.JPG,AFSA24.JPG,AFNE21.JPG,AFSA21.JPG,AFNE25.JPG,0,5,5,2,,,,,,,,,,,,,,,,,,,,,,,AFNE15.jpg,AFSA04.jpg,AFSA13.jpg,AFNE11.jpg,AFNE11.jpg,FN,3,num_4,16,num_4,0.966750262072,,,2017_May_10_1409,59.9975946299,FEMA4ImagesEEG,001,200384,
AMSA21.JPG,AMNE22.JPG,AMNE21.JPG,AMSA23.JPG,AMSA22.JPG,AMNE23.JPG,0,6,6,1,,,,,,,,,,,,,,,,,,,,,,,AFNE07.jpg,AFSA03.jpg,AFSA18.jpg,AFNE16.jpg,AFSA18.jpg,FS,4,num_2,16,num_2,1.04997211182,,,2017_May_10_1409,59.9975946299,FEMA4ImagesEEG,001,200384,
AMNE23.JPG,AMNE24.JPG,AMNE22.JPG,AMSA24.JPG,AMSA22.JPG,AMSA23.JPG,0,7,7,9,,,,,,,,,,,,,,,,,,,,,,,AFNE16.jpg,AFSA03.jpg,AFNE02.jpg,AFSA12.jpg,AFNE02.jpg,FN,3,num_2,32,num_8,0.366804274498,,,2017_May_10_1409,59.9975946299,FEMA4ImagesEEG,001,200384,
AMNE22.JPG,AMSA24.JPG,AMSA22.JPG,AMNE25.JPG,AMNE24.JPG,AMSA25.JPG,0,8,8,7,,,,,,,,,,,,,,,,,,,,,,,AFSA04.jpg,AFNE20.jpg,AFSA01.jpg,AFNE16.jpg,AFNE20.jpg,FN,3,num_6,16,num_6,0.333811127814,,,2017_May_10_1409,59.9975946299,FEMA4ImagesEEG,001,200384,
AMSA25.JPG,AMNE24.JPG,AMSA24.JPG,AMNE26.JPG,AMSA21.JPG,AMNE25.JPG,0,9,9,3,,,,,,,,,,,,,,,,,,,,,,,AFNE11.jpg,AFNE17.jpg,AFSA07.jpg,AFSA16.jpg,AFSA16.jpg,FS,4,num_4,16,num_4,0.56676135934,,,2017_May_10_1409,59.9975946299,FEMA4ImagesEEG,001,200384,
AMSA21.JPG,AMNE23.JPG,AMNE21.JPG,AMSA25.JPG,AMNE25.JPG,AMSA23.JPG,,,,,0,0,0,5,,,,,,,,,,,,,,,,,,,AMNE13.jpg,AMNE20.jpg,AMSA05.jpg,AMSA16.jpg,AMSA05.jpg,MS,2,num_2,32,num_8,0.450165325077,,,2017_May_10_1409,59.9975946299,FEMA4ImagesEEG,001,200384,
AFNE22.JPG,AFSA24.JPG,AFSA22.JPG,AFNE25.JPG,AFNE24.JPG,AFSA25.JPG,,,,,0,1,1,6,,,,,,,,,,,,,,,,,,,AMNE08.jpg,AMNE02.jpg,AMSA12.jpg,AMSA01.jpg,AMNE08.jpg,MN,1,num_8,16,num_8,0.783467439702,,,2017_May_10_1409,59.9975946299,FEMA4ImagesEEG,001,200384,
AMSA21.JPG,AMNE22.JPG,AMNE21.JPG,AMSA23.JPG,AMSA22.JPG,AMNE23.JPG,,,,,0,2,2,1,,,,,,,,,,,,,,,,,,,AMSA15.jpg,AMSA16.jpg,AMNE10.jpg,AMNE02.jpg,AMSA15.jpg,MS,2,num_8,32,num_6,0.716926267603,,,2017_May_10_1409,59.9975946299,FEMA4ImagesEEG,001,200384,
AMSA25.JPG,AMNE24.JPG,AMSA24.JPG,AMNE26.JPG,AMSA21.JPG,AMNE25.JPG,,,,,0,3,3,3,,,,,,,,,,,,,,,,,,,AMSA19.jpg,AMSA06.jpg,AMNE10.jpg,AMNE06.jpg,AMSA19.jpg,MS,2,num_8,32,num_4,0.500216979999,,,2017_May_10_1409,59.9975946299,FEMA4ImagesEEG,001,200384,
AMNE23.JPG,AMNE24.JPG,AMNE22.JPG,AMSA24.JPG,AMSA22.JPG,AMSA23.JPG,,,,,0,4,4,9,,,,,,,,,,,,,,,,,,,AMSA04.jpg,AMNE09.jpg,AMSA06.jpg,AMNE10.jpg,AMNE09.jpg,MN,1,num_6,32,num_8,0.65015961579,,,2017_May_10_1409,59.9975946299,FEMA4ImagesEEG,001,200384,
AFNE23.JPG,AFNE24.JPG,AFNE22.JPG,AFSA24.JPG,AFSA22.JPG,AFSA23.JPG,,,,,0,5,5,8,,,,,,,,,,,,,,,,,,,AMNE11.jpg,AMSA18.jpg,AMNE01.jpg,AMSA02.jpg,AMNE11.jpg,MN,1,num_8,32,num_6,1.46684632334,,,2017_May_10_1409,59.9975946299,FEMA4ImagesEEG,001,200384,
AFSA25.JPG,AFNE24.JPG,AFSA24.JPG,AFNE21.JPG,AFSA21.JPG,AFNE25.JPG,,,,,0,6,6,2,,,,,,,,,,,,,,,,,,,AMSA15.jpg,AMNE01.jpg,AMSA08.jpg,AMNE04.jpg,AMSA08.jpg,MS,2,num_2,32,num_8,0.716755634407,,,2017_May_10_1409,59.9975946299,FEMA4ImagesEEG,001,200384,
AMNE22.JPG,AMSA24.JPG,AMSA22.JPG,AMNE25.JPG,AMNE24.JPG,AMSA25.JPG,,,,,0,7,7,7,,,,,,,,,,,,,,,,,,,AMNE01.jpg,AMSA02.jpg,AMNE04.jpg,AMSA17.jpg,AMNE01.jpg,MN,1,num_8,16,num_8,0.466812325176,,,2017_May_10_1409,59.9975946299,FEMA4ImagesEEG,001,200384,
AFSA21.JPG,AFNE22.JPG,AFNE21.JPG,AFSA23.JPG,AFSA22.JPG,AFNE23.JPG,,,,,0,8,8,0,,,,,,,,,,,,,,,,,,,AMNE13.jpg,AMSA16.jpg,AMNE18.jpg,AMSA17.jpg,AMNE18.jpg,MN,1,num_2,16,num_2,0.5834721867,,,2017_May_10_1409,59.9975946299,FEMA4ImagesEEG,001,200384,
AFSA21.JPG,AFNE23.JPG,AFNE21.JPG,AFSA25.JPG,AFNE25.JPG,AFSA23.JPG,,,,,0,9,9,4,,,,,,,,,,,,,,,,,,,AMNE01.jpg,AMSA19.jpg,AMSA16.jpg,AMNE20.jpg,AMSA19.jpg,MS,2,num_6,32,num_4,0.700226024725,,,2017_May_10_1409,59.9975946299,FEMA4ImagesEEG,001,200384,
AFNE22.JPG,AFSA24.JPG,AFSA22.JPG,AFNE25.JPG,AFNE24.JPG,AFSA25.JPG,,,,,,,,,0,0,0,6,,,,,,,,,,,,,,,AFSA07.jpg,AFSA04.jpg,AFNE14.jpg,AFNE03.jpg,AFSA04.jpg,FS,4,num_6,32,num_4,0.766774253221,,,2017_May_10_1409,59.9975946299,FEMA4ImagesEEG,001,200384,
AFNE23.JPG,AFNE24.JPG,AFNE22.JPG,AFSA24.JPG,AFSA22.JPG,AFSA23.JPG,,,,,,,,,0,1,1,8,,,,,,,,,,,,,,,AFNE13.jpg,AFSA18.jpg,AFNE11.jpg,AFSA17.jpg,AFNE13.jpg,FN,3,num_8,16,num_8,0.966765015852,,,2017_May_10_1409,59.9975946299,FEMA4ImagesEEG,001,200384,
AMSA25.JPG,AMNE24.JPG,AMSA24.JPG,AMNE26.JPG,AMSA21.JPG,AMNE25.JPG,,,,,,,,,0,2,2,3,,,,,,,,,,,,,,,AFSA08.jpg,AFNE06.jpg,AFNE04.jpg,AFSA07.jpg,AFSA07.jpg,FS,4,num_4,16,num_4,0.783442422049,,,2017_May_10_1409,59.9975946299,FEMA4ImagesEEG,001,200384,
AFSA21.JPG,AFNE22.JPG,AFNE21.JPG,AFSA23.JPG,AFSA22.JPG,AFNE23.JPG,,,,,,,,,0,3,3,0,,,,,,,,,,,,,,,AFNE10.jpg,AFSA04.jpg,AFSA13.jpg,AFNE05.jpg,AFSA04.jpg,FS,4,num_6,32,num_2,1.16673076083,,,2017_May_10_1409,59.9975946299,FEMA4ImagesEEG,001,200384,
AMSA21.JPG,AMNE22.JPG,AMNE21.JPG,AMSA23.JPG,AMSA22.JPG,AMNE23.JPG,,,,,,,,,0,4,4,1,,,,,,,,,,,,,,,AFSA20.jpg,AFNE02.jpg,AFSA17.jpg,AFNE19.jpg,AFSA20.jpg,FS,4,num_8,32,num_4,0.783418687293,,,2017_May_10_1409,59.9975946299,FEMA4ImagesEEG,001,200384,
AMSA21.JPG,AMNE23.JPG,AMNE21.JPG,AMSA25.JPG,AMNE25.JPG,AMSA23.JPG,,,,,,,,,0,5,5,5,,,,,,,,,,,,,,,AFNE14.jpg,AFNE13.jpg,AFSA12.jpg,AFSA04.jpg,AFSA12.jpg,FS,4,num_2,16,num_2,1.11673651845,,,2017_May_10_1409,59.9975946299,FEMA4ImagesEEG,001,200384,
AFSA21.JPG,AFNE23.JPG,AFNE21.JPG,AFSA25.JPG,AFNE25.JPG,AFSA23.JPG,,,,,,,,,0,6,6,4,,,,,,,,,,,,,,,AFSA14.jpg,AFNE03.jpg,AFSA03.jpg,AFNE08.jpg,AFNE03.jpg,FN,3,num_6,16,num_6,0.783494060859,,,2017_May_10_1409,59.9975946299,FEMA4ImagesEEG,001,200384,
AMNE22.JPG,AMSA24.JPG,AMSA22.JPG,AMNE25.JPG,AMNE24.JPG,AMSA25.JPG,,,,,,,,,0,7,7,7,,,,,,,,,,,,,,,AFSA02.jpg,AFNE03.jpg,AFNE13.jpg,AFSA05.jpg,AFSA02.jpg,FS,4,num_8,16,num_8,1.516684687,,,2017_May_10_1409,59.9975946299,FEMA4ImagesEEG,001,200384,
AMNE23.JPG,AMNE24.JPG,AMNE22.JPG,AMSA24.JPG,AMSA22.JPG,AMSA23.JPG,,,,,,,,,0,8,8,9,,,,,,,,,,,,,,,AFNE05.jpg,AFSA20.jpg,AFNE09.jpg,AFSA08.jpg,AFNE09.jpg,FN,3,num_2,16,num_2,1.40003989986,,,2017_May_10_1409,59.9975946299,FEMA4ImagesEEG,001,200384,
AFSA25.JPG,AFNE24.JPG,AFSA24.JPG,AFNE21.JPG,AFSA21.JPG,AFNE25.JPG,,,,,,,,,0,9,9,2,,,,,,,,,,,,,,,AFSA20.jpg,AFNE19.jpg,AFNE13.jpg,AFSA14.jpg,AFNE13.jpg,FN,3,num_2,32,num_6,0.633499786025,,,2017_May_10_1409,59.9975946299,FEMA4ImagesEEG,001,200384,
AFSA25.JPG,AFNE24.JPG,AFSA24.JPG,AFNE21.JPG,AFSA21.JPG,AFNE25.JPG,,,,,,,,,,,,,0,0,0,2,,,,,,,,,,,AMSA16.jpg,AMNE13.jpg,AMSA06.jpg,AMNE03.jpg,AMNE13.jpg,MN,1,num_6,32,num_4,0.816793513717,,,2017_May_10_1409,59.9975946299,FEMA4ImagesEEG,001,200384,
AMSA21.JPG,AMNE23.JPG,AMNE21.JPG,AMSA25.JPG,AMNE25.JPG,AMSA23.JPG,,,,,,,,,,,,,0,1,1,5,,,,,,,,,,,AMSA04.jpg,AMNE04.jpg,AMSA03.jpg,AMNE18.jpg,AMNE18.jpg,MN,1,num_4,32,num_6,1.05041152425,,,2017_May_10_1409,59.9975946299,FEMA4ImagesEEG,001,200384,
AFNE22.JPG,AFSA24.JPG,AFSA22.JPG,AFNE25.JPG,AFNE24.JPG,AFSA25.JPG,,,,,,,,,,,,,0,2,2,6,,,,,,,,,,,AMNE18.jpg,AMSA08.jpg,AMSA09.jpg,AMNE19.jpg,AMSA08.jpg,MS,2,num_6,32,num_2,0.700167650357,,,2017_May_10_1409,59.9975946299,FEMA4ImagesEEG,001,200384,
AMNE23.JPG,AMNE24.JPG,AMNE22.JPG,AMSA24.JPG,AMSA22.JPG,AMSA23.JPG,,,,,,,,,,,,,0,3,3,9,,,,,,,,,,,AMNE01.jpg,AMSA16.jpg,AMNE14.jpg,AMSA02.jpg,AMSA02.jpg,MS,2,num_4,32,num_8,1.10006867023,,,2017_May_10_1409,59.9975946299,FEMA4ImagesEEG,001,200384,
AFSA21.JPG,AFNE23.JPG,AFNE21.JPG,AFSA25.JPG,AFNE25.JPG,AFSA23.JPG,,,,,,,,,,,,,0,4,4,4,,,,,,,,,,,AMSA07.jpg,AMSA16.jpg,AMNE11.jpg,AMNE06.jpg,AMNE11.jpg,MN,1,num_2,32,num_6,0.91680445103,,,2017_May_10_1409,59.9975946299,FEMA4ImagesEEG,001,200384,
AFSA21.JPG,AFNE22.JPG,AFNE21.JPG,AFSA23.JPG,AFSA22.JPG,AFNE23.JPG,,,,,,,,,,,,,0,5,5,0,,,,,,,,,,,AMNE17.jpg,AMSA14.jpg,AMSA10.jpg,AMNE04.jpg,AMNE04.jpg,MN,1,num_4,16,num_4,0.716797330417,,,2017_May_10_1409,59.9975946299,FEMA4ImagesEEG,001,200384,
AMSA21.JPG,AMNE22.JPG,AMNE21.JPG,AMSA23.JPG,AMSA22.JPG,AMNE23.JPG,,,,,,,,,,,,,0,6,6,1,,,,,,,,,,,AMNE07.jpg,AMNE14.jpg,AMSA05.jpg,AMSA17.jpg,AMSA17.jpg,MS,2,num_4,16,num_4,0.883461377583,,,2017_May_10_1409,59.9975946299,FEMA4ImagesEEG,001,200384,
AMSA25.JPG,AMNE24.JPG,AMSA24.JPG,AMNE26.JPG,AMSA21.JPG,AMNE25.JPG,,,,,,,,,,,,,0,7,7,3,,,,,,,,,,,AMNE15.jpg,AMSA13.jpg,AMNE05.jpg,AMSA07.jpg,AMNE05.jpg,MN,1,num_2,32,num_8,0.499995349441,,,2017_May_10_1409,59.9975946299,FEMA4ImagesEEG,001,200384,
AMNE22.JPG,AMSA24.JPG,AMSA22.JPG,AMNE25.JPG,AMNE24.JPG,AMSA25.JPG,,,,,,,,,,,,,0,8,8,7,,,,,,,,,,,AMNE10.jpg,AMNE09.jpg,AMSA04.jpg,AMSA15.jpg,AMNE09.jpg,MN,1,num_6,16,num_6,0.483354764059,,,2017_May_10_1409,59.9975946299,FEMA4ImagesEEG,001,200384,
AFNE23.JPG,AFNE24.JPG,AFNE22.JPG,AFSA24.JPG,AFSA22.JPG,AFSA23.JPG,,,,,,,,,,,,,0,9,9,8,,,,,,,,,,,AMNE18.jpg,AMSA16.jpg,AMNE12.jpg,AMSA12.jpg,AMSA12.jpg,MS,2,num_4,32,num_2,0.750121800695,,,2017_May_10_1409,59.9975946299,FEMA4ImagesEEG,001,200384,
AMNE23.JPG,AMNE24.JPG,AMNE22.JPG,AMSA24.JPG,AMSA22.JPG,AMSA23.JPG,,,,,,,,,,,,,,,,,0,0,0,9,,,,,,,AFSA01.jpg,AFNE15.jpg,AFSA06.jpg,AFNE11.jpg,AFSA06.jpg,FS,4,num_2,16,num_2,1.59973975224,,,2017_May_10_1409,59.9975946299,FEMA4ImagesEEG,001,200384,
AFSA25.JPG,AFNE24.JPG,AFSA24.JPG,AFNE21.JPG,AFSA21.JPG,AFNE25.JPG,,,,,,,,,,,,,,,,,0,1,1,2,,,,,,,AFSA08.jpg,AFSA18.jpg,AFNE11.jpg,AFNE05.jpg,AFSA08.jpg,FS,4,num_8,32,num_4,1.48345611757,,,2017_May_10_1409,59.9975946299,FEMA4ImagesEEG,001,200384,
AFSA21.JPG,AFNE23.JPG,AFNE21.JPG,AFSA25.JPG,AFNE25.JPG,AFSA23.JPG,,,,,,,,,,,,,,,,,0,2,2,4,,,,,,,AFNE19.jpg,AFSA14.jpg,AFSA05.jpg,AFNE08.jpg,AFNE19.jpg,FN,3,num_8,32,num_6,0.366800746182,,,2017_May_10_1409,59.9975946299,FEMA4ImagesEEG,001,200384,
AMNE22.JPG,AMSA24.JPG,AMSA22.JPG,AMNE25.JPG,AMNE24.JPG,AMSA25.JPG,,,,,,,,,,,,,,,,,0,3,3,7,,,,,,,AFSA19.jpg,AFNE02.jpg,AFNE01.jpg,AFSA02.jpg,AFSA19.jpg,FS,4,num_8,16,num_8,0.717149501899,,,2017_May_10_1409,59.9975946299,FEMA4ImagesEEG,001,200384,
AMSA25.JPG,AMNE24.JPG,AMSA24.JPG,AMNE26.JPG,AMSA21.JPG,AMNE25.JPG,,,,,,,,,,,,,,,,,0,4,4,3,,,,,,,AFSA07.jpg,AFNE12.jpg,AFSA04.jpg,AFNE03.jpg,AFSA04.jpg,FS,4,num_2,16,num_2,0.466805589618,,,2017_May_10_1409,59.9975946299,FEMA4ImagesEEG,001,200384,
AFSA21.JPG,AFNE22.JPG,AFNE21.JPG,AFSA23.JPG,AFSA22.JPG,AFNE23.JPG,,,,,,,,,,,,,,,,,0,5,5,0,,,,,,,AFNE19.jpg,AFSA06.jpg,AFNE06.jpg,AFSA03.jpg,AFSA03.jpg,FS,4,num_4,16,num_4,0.633495295886,,,2017_May_10_1409,59.9975946299,FEMA4ImagesEEG,001,200384,
AMSA21.JPG,AMNE23.JPG,AMNE21.JPG,AMSA25.JPG,AMNE25.JPG,AMSA23.JPG,,,,,,,,,,,,,,,,,0,6,6,5,,,,,,,AFNE13.jpg,AFSA11.jpg,AFSA07.jpg,AFNE05.jpg,AFSA11.jpg,FS,4,num_6,16,num_6,1.00011033425,,,2017_May_10_1409,59.9975946299,FEMA4ImagesEEG,001,200384,
AFNE23.JPG,AFNE24.JPG,AFNE22.JPG,AFSA24.JPG,AFSA22.JPG,AFSA23.JPG,,,,,,,,,,,,,,,,,0,7,7,8,,,,,,,AFSA08.jpg,AFSA02.jpg,AFNE01.jpg,AFNE15.jpg,AFNE01.jpg,FN,3,num_2,32,num_8,0.483432703651,,,2017_May_10_1409,59.9975946299,FEMA4ImagesEEG,001,200384,
AMSA21.JPG,AMNE22.JPG,AMNE21.JPG,AMSA23.JPG,AMSA22.JPG,AMNE23.JPG,,,,,,,,,,,,,,,,,0,8,8,1,,,,,,,AFNE15.jpg,AFNE12.jpg,AFSA14.jpg,AFSA06.jpg,AFNE15.jpg,FN,3,num_8,16,num_8,0.566725757439,,,2017_May_10_1409,59.9975946299,FEMA4ImagesEEG,001,200384,
AFNE22.JPG,AFSA24.JPG,AFSA22.JPG,AFNE25.JPG,AFNE24.JPG,AFSA25.JPG,,,,,,,,,,,,,,,,,0,9,9,6,,,,,,,AFNE17.jpg,AFSA09.jpg,AFNE03.jpg,AFSA18.jpg,AFNE17.jpg,FN,3,num_8,32,num_2,0.500186189078,,,2017_May_10_1409,59.9975946299,FEMA4ImagesEEG,001,200384,
AFSA21.JPG,AFNE23.JPG,AFNE21.JPG,AFSA25.JPG,AFNE25.JPG,AFSA23.JPG,,,,,,,,,,,,,,,,,,,,,0,0,0,4,,,AMNE17.jpg,AMNE02.jpg,AMSA12.jpg,AMSA17.jpg,AMNE17.jpg,MN,1,num_8,32,num_6,0.483466060366,,,2017_May_10_1409,59.9975946299,FEMA4ImagesEEG,001,200384,
AMSA25.JPG,AMNE24.JPG,AMSA24.JPG,AMNE26.JPG,AMSA21.JPG,AMNE25.JPG,,,,,,,,,,,,,,,,,,,,,0,1,1,3,,,AMNE01.jpg,AMNE18.jpg,AMSA03.jpg,AMSA08.jpg,AMSA08.jpg,MS,2,num_4,32,num_2,1.51657018298,,,2017_May_10_1409,59.9975946299,FEMA4ImagesEEG,001,200384,
AFNE22.JPG,AFSA24.JPG,AFSA22.JPG,AFNE25.JPG,AFNE24.JPG,AFSA25.JPG,,,,,,,,,,,,,,,,,,,,,0,2,2,6,,,AMNE09.jpg,AMSA07.jpg,AMSA17.jpg,AMNE08.jpg,AMSA07.jpg,MS,2,num_6,16,num_6,0.583515165607,,,2017_May_10_1409,59.9975946299,FEMA4ImagesEEG,001,200384,
AFSA25.JPG,AFNE24.JPG,AFSA24.JPG,AFNE21.JPG,AFSA21.JPG,AFNE25.JPG,,,,,,,,,,,,,,,,,,,,,0,3,3,2,,,AMSA19.jpg,AMSA16.jpg,AMNE05.jpg,AMNE12.jpg,AMSA19.jpg,MS,2,num_8,32,num_4,1.03339888179,,,2017_May_10_1409,59.9975946299,FEMA4ImagesEEG,001,200384,
AMSA21.JPG,AMNE23.JPG,AMNE21.JPG,AMSA25.JPG,AMNE25.JPG,AMSA23.JPG,,,,,,,,,,,,,,,,,,,,,0,4,4,5,,,AMSA20.jpg,AMNE17.jpg,AMSA12.jpg,AMNE03.jpg,AMSA20.jpg,MS,2,num_8,16,num_8,1.10039229598,,,2017_May_10_1409,59.9975946299,FEMA4ImagesEEG,001,200384,
AMNE22.JPG,AMSA24.JPG,AMSA22.JPG,AMNE25.JPG,AMNE24.JPG,AMSA25.JPG,,,,,,,,,,,,,,,,,,,,,0,5,5,7,,,AMSA01.jpg,AMSA06.jpg,AMNE12.jpg,AMNE10.jpg,AMSA06.jpg,MS,2,num_6,16,num_6,0.550109227654,,,2017_May_10_1409,59.9975946299,FEMA4ImagesEEG,001,200384,
AFSA21.JPG,AFNE22.JPG,AFNE21.JPG,AFSA23.JPG,AFSA22.JPG,AFNE23.JPG,,,,,,,,,,,,,,,,,,,,,0,6,6,0,,,AMSA01.jpg,AMNE19.jpg,AMNE02.jpg,AMSA04.jpg,AMSA04.jpg,MS,2,num_4,16,num_4,0.733465499245,,,2017_May_10_1409,59.9975946299,FEMA4ImagesEEG,001,200384,
AMNE23.JPG,AMNE24.JPG,AMNE22.JPG,AMSA24.JPG,AMSA22.JPG,AMSA23.JPG,,,,,,,,,,,,,,,,,,,,,0,7,7,9,,,AMSA16.jpg,AMNE04.jpg,AMSA13.jpg,AMNE07.jpg,AMSA16.jpg,MS,2,num_8,16,num_8,0.450124911964,,,2017_May_10_1409,59.9975946299,FEMA4ImagesEEG,001,200384,
AMSA21.JPG,AMNE22.JPG,AMNE21.JPG,AMSA23.JPG,AMSA22.JPG,AMNE23.JPG,,,,,,,,,,,,,,,,,,,,,0,8,8,1,,,AMSA01.jpg,AMNE17.jpg,AMSA06.jpg,AMNE09.jpg,AMNE09.jpg,MN,1,num_4,32,num_6,0.850150699262,,,2017_May_10_1409,59.9975946299,FEMA4ImagesEEG,001,200384,
AFNE23.JPG,AFNE24.JPG,AFNE22.JPG,AFSA24.JPG,AFSA22.JPG,AFSA23.JPG,,,,,,,,,,,,,,,,,,,,,0,9,9,8,,,AMNE13.jpg,AMSA11.jpg,AMSA20.jpg,AMNE18.jpg,AMNE18.jpg,MN,1,num_4,32,num_6,1.20017582923,,,2017_May_10_1409,59.9975946299,FEMA4ImagesEEG,001,200384,
,,,,,,,,,,,,,,,,,,,,,,,,,,,,,,,,,,,,,,,,,,,space,9.04940664885,2017_May_10_1409,59.9975946299,FEMA4ImagesEEG,001,200384,
AFNE01.JPG,AFNE01.JPG,AFNE01.JPG,AFNE01.JPG,AFNE01.JPG,AFNE01.JPG,0,0,0,8,,,,,,,,,,,,,,,,,,,,,,,AFNE14.jpg,AFSA09.jpg,AFNE13.jpg,AFSA13.jpg,AFSA13.jpg,FS,4,num_4,16,num_4,0.550162149593,,,2017_May_10_1409,59.9975946299,FEMA4ImagesEEG,001,200384,
AFNE01.JPG,AFNE01.JPG,AFNE01.JPG,AFNE01.JPG,AFNE01.JPG,AFNE01.JPG,0,1,1,4,,,,,,,,,,,,,,,,,,,,,,,AFNE04.jpg,AFNE08.jpg,AFSA18.jpg,AFSA15.jpg,AFSA15.jpg,FS,4,num_4,32,num_6,0.516485507833,,,2017_May_10_1409,59.9975946299,FEMA4ImagesEEG,001,200384,
AFNE01.JPG,AFNE01.JPG,AFNE01.JPG,AFNE01.JPG,AFNE01.JPG,AFNE01.JPG,0,2,2,1,,,,,,,,,,,,,,,,,,,,,,,AFSA18.jpg,AFNE20.jpg,AFSA06.jpg,AFNE18.jpg,AFNE20.jpg,FN,3,num_6,32,num_8,0.416723784991,,,2017_May_10_1409,59.9975946299,FEMA4ImagesEEG,001,200384,
AFNE01.JPG,AFNE01.JPG,AFNE01.JPG,AFNE01.JPG,AFNE01.JPG,AFNE01.JPG,0,3,3,7,,,,,,,,,,,,,,,,,,,,,,,AFNE12.jpg,AFSA09.jpg,AFNE08.jpg,AFSA12.jpg,AFSA09.jpg,FS,4,num_6,16,num_6,0.767124179518,,,2017_May_10_1409,59.9975946299,FEMA4ImagesEEG,001,200384,
AFNE01.JPG,AFNE01.JPG,AFNE01.JPG,AFNE01.JPG,AFNE01.JPG,AFNE01.JPG,0,4,4,6,,,,,,,,,,,,,,,,,,,,,,,AFNE11.jpg,AFSA16.jpg,AFNE02.jpg,AFSA11.jpg,AFSA11.jpg,FS,4,num_4,32,num_8,0.450144156115,,,2017_May_10_1409,59.9975946299,FEMA4ImagesEEG,001,200384,
AFNE01.JPG,AFNE01.JPG,AFNE01.JPG,AFNE01.JPG,AFNE01.JPG,AFNE01.JPG,0,5,5,0,,,,,,,,,,,,,,,,,,,,,,,AFNE15.jpg,AFSA12.jpg,AFNE20.jpg,AFSA01.jpg,AFSA12.jpg,FS,4,num_6,16,num_6,0.916900672484,,,2017_May_10_1409,59.9975946299,FEMA4ImagesEEG,001,200384,
AFNE01.JPG,AFNE01.JPG,AFNE01.JPG,AFNE01.JPG,AFNE01.JPG,AFNE01.JPG,0,6,6,5,,,,,,,,,,,,,,,,,,,,,,,AFSA03.jpg,AFNE08.jpg,AFSA19.jpg,AFNE09.jpg,AFSA03.jpg,FS,4,num_8,32,num_2,1.1500924211,,,2017_May_10_1409,59.9975946299,FEMA4ImagesEEG,001,200384,
AFNE01.JPG,AFNE01.JPG,AFNE01.JPG,AFNE01.JPG,AFNE01.JPG,AFNE01.JPG,0,7,7,9,,,,,,,,,,,,,,,,,,,,,,,AFSA04.jpg,AFNE12.jpg,AFSA19.jpg,AFNE16.jpg,AFSA19.jpg,FS,4,num_2,32,num_4,0.933452733792,,,2017_May_10_1409,59.9975946299,FEMA4ImagesEEG,001,200384,
AFNE01.JPG,AFNE01.JPG,AFNE01.JPG,AFNE01.JPG,AFNE01.JPG,AFNE01.JPG,0,8,8,2,,,,,,,,,,,,,,,,,,,,,,,AFNE13.jpg,AFNE07.jpg,AFSA10.jpg,AFSA11.jpg,AFNE13.jpg,FN,3,num_8,16,num_8,0.716807273217,,,2017_May_10_1409,59.9975946299,FEMA4ImagesEEG,001,200384,
AFNE01.JPG,AFNE01.JPG,AFNE01.JPG,AFNE01.JPG,AFNE01.JPG,AFNE01.JPG,0,9,9,3,,,,,,,,,,,,,,,,,,,,,,,AFNE08.jpg,AFNE03.jpg,AFSA16.jpg,AFSA06.jpg,AFSA16.jpg,FS,4,num_2,32,num_8,1.36673018383,,,2017_May_10_1409,59.9975946299,FEMA4ImagesEEG,001,200384,
AFNE01.JPG,AFNE01.JPG,AFNE01.JPG,AFNE01.JPG,AFNE01.JPG,AFNE01.JPG,1,0,10,3,,,,,,,,,,,,,,,,,,,,,,,AFNE13.jpg,AFSA06.jpg,AFNE14.jpg,AFSA01.jpg,AFSA06.jpg,FS,4,num_6,16,num_6,0.983421317535,,,2017_May_10_1409,59.9975946299,FEMA4ImagesEEG,001,200384,
AFNE01.JPG,AFNE01.JPG,AFNE01.JPG,AFNE01.JPG,AFNE01.JPG,AFNE01.JPG,1,1,11,9,,,,,,,,,,,,,,,,,,,,,,,AFSA15.jpg,AFSA13.jpg,AFNE06.jpg,AFNE02.jpg,AFSA13.jpg,FS,4,num_6,16,num_6,0.76685347571,,,2017_May_10_1409,59.9975946299,FEMA4ImagesEEG,001,200384,
AFNE01.JPG,AFNE01.JPG,AFNE01.JPG,AFNE01.JPG,AFNE01.JPG,AFNE01.JPG,1,2,12,4,,,,,,,,,,,,,,,,,,,,,,,AFNE10.jpg,AFSA19.jpg,AFSA09.jpg,AFNE05.jpg,AFSA09.jpg,FS,4,num_2,16,num_2,1.66671969555,,,2017_May_10_1409,59.9975946299,FEMA4ImagesEEG,001,200384,
AFNE01.JPG,AFNE01.JPG,AFNE01.JPG,AFNE01.JPG,AFNE01.JPG,AFNE01.JPG,1,3,13,7,,,,,,,,,,,,,,,,,,,,,,,AFSA03.jpg,AFNE07.jpg,AFSA07.jpg,AFNE03.jpg,AFNE07.jpg,FN,3,num_6,32,num_8,0.850084947655,,,2017_May_10_1409,59.9975946299,FEMA4ImagesEEG,001,200384,
AFNE01.JPG,AFNE01.JPG,AFNE01.JPG,AFNE01.JPG,AFNE01.JPG,AFNE01.JPG,1,4,14,8,,,,,,,,,,,,,,,,,,,,,,,AFSA05.jpg,AFNE08.jpg,AFNE20.jpg,AFSA07.jpg,AFNE20.jpg,FN,3,num_2,32,num_8,0.633478296688,,,2017_May_10_1409,59.9975946299,FEMA4ImagesEEG,001,200384,
AFNE01.JPG,AFNE01.JPG,AFNE01.JPG,AFNE01.JPG,AFNE01.JPG,AFNE01.JPG,1,5,15,6,,,,,,,,,,,,,,,,,,,,,,,AFSA06.jpg,AFNE08.jpg,AFNE03.jpg,AFSA10.jpg,AFNE08.jpg,FN,3,num_6,16,num_6,0.850220299559,,,2017_May_10_1409,59.9975946299,FEMA4ImagesEEG,001,200384,
AFNE01.JPG,AFNE01.JPG,AFNE01.JPG,AFNE01.JPG,AFNE01.JPG,AFNE01.JPG,1,6,16,5,,,,,,,,,,,,,,,,,,,,,,,AFNE07.jpg,AFSA09.jpg,AFNE02.jpg,AFSA05.jpg,AFNE07.jpg,FN,3,num_8,16,num_8,0.616742451908,,,2017_May_10_1409,59.9975946299,FEMA4ImagesEEG,001,200384,
AFNE01.JPG,AFNE01.JPG,AFNE01.JPG,AFNE01.JPG,AFNE01.JPG,AFNE01.JPG,1,7,17,2,,,,,,,,,,,,,,,,,,,,,,,AFSA14.jpg,AFNE10.jpg,AFSA08.jpg,AFNE03.jpg,AFNE03.jpg,FN,3,num_4,32,num_2,1.08341974579,,,2017_May_10_1409,59.9975946299,FEMA4ImagesEEG,001,200384,
AFNE01.JPG,AFNE01.JPG,AFNE01.JPG,AFNE01.JPG,AFNE01.JPG,AFNE01.JPG,1,8,18,1,,,,,,,,,,,,,,,,,,,,,,,AFNE20.jpg,AFSA09.jpg,AFNE09.jpg,AFSA13.jpg,AFSA13.jpg,FS,4,num_4,16,num_4,0.516767116962,,,2017_May_10_1409,59.9975946299,FEMA4ImagesEEG,001,200384,
AFNE01.JPG,AFNE01.JPG,AFNE01.JPG,AFNE01.JPG,AFNE01.JPG,AFNE01.JPG,1,9,19,0,,,,,,,,,,,,,,,,,,,,,,,AFNE05.jpg,AFSA05.jpg,AFNE06.jpg,AFSA08.jpg,AFNE05.jpg,FN,3,num_8,16,num_8,0.783478665631,,,2017_May_10_1409,59.9975946299,FEMA4ImagesEEG,001,200384,
AFNE01.JPG,AFNE01.JPG,AFNE01.JPG,AFNE01.JPG,AFNE01.JPG,AFNE01.JPG,2,0,20,5,,,,,,,,,,,,,,,,,,,,,,,AFNE05.jpg,AFSA06.jpg,AFSA04.jpg,AFNE14.jpg,AFSA06.jpg,FS,4,num_6,32,num_2,0.516801115125,,,2017_May_10_1409,59.9975946299,FEMA4ImagesEEG,001,200384,
AFNE01.JPG,AFNE01.JPG,AFNE01.JPG,AFNE01.JPG,AFNE01.JPG,AFNE01.JPG,2,1,21,8,,,,,,,,,,,,,,,,,,,,,,,AFNE08.jpg,AFSA16.jpg,AFNE16.jpg,AFSA14.jpg,AFSA14.jpg,FS,4,num_4,16,num_4,0.533469925402,,,2017_May_10_1409,59.9975946299,FEMA4ImagesEEG,001,200384,
AFNE01.JPG,AFNE01.JPG,AFNE01.JPG,AFNE01.JPG,AFNE01.JPG,AFNE01.JPG,2,2,22,3,,,,,,,,,,,,,,,,,,,,,,,AFNE11.jpg,AFSA04.jpg,AFSA08.jpg,AFNE03.jpg,AFNE03.jpg,FN,3,num_4,32,num_8,0.650140050799,,,2017_May_10_1409,59.9975946299,FEMA4ImagesEEG,001,200384,
AFNE01.JPG,AFNE01.JPG,AFNE01.JPG,AFNE01.JPG,AFNE01.JPG,AFNE01.JPG,2,3,23,9,,,,,,,,,,,,,,,,,,,,,,,AFNE17.jpg,AFNE01.jpg,AFSA16.jpg,AFSA12.jpg,AFSA12.jpg,FS,4,num_4,32,num_6,0.566835129401,,,2017_May_10_1409,59.9975946299,FEMA4ImagesEEG,001,200384,
AFNE01.JPG,AFNE01.JPG,AFNE01.JPG,AFNE01.JPG,AFNE01.JPG,AFNE01.JPG,2,4,24,6,,,,,,,,,,,,,,,,,,,,,,,AFSA18.jpg,AFNE11.jpg,AFNE14.jpg,AFSA17.jpg,AFSA18.jpg,FS,4,num_8,32,num_4,1.09964850219,,,2017_May_10_1409,59.9975946299,FEMA4ImagesEEG,001,200384,
AFNE01.JPG,AFNE01.JPG,AFNE01.JPG,AFNE01.JPG,AFNE01.JPG,AFNE01.JPG,2,5,25,1,,,,,,,,,,,,,,,,,,,,,,,AFSA10.jpg,AFNE16.jpg,AFSA11.jpg,AFNE06.jpg,AFNE16.jpg,FN,3,num_6,32,num_8,0.483448099112,,,2017_May_10_1409,59.9975946299,FEMA4ImagesEEG,001,200384,
AFNE01.JPG,AFNE01.JPG,AFNE01.JPG,AFNE01.JPG,AFNE01.JPG,AFNE01.JPG,2,6,26,7,,,,,,,,,,,,,,,,,,,,,,,AFSA10.jpg,AFNE18.jpg,AFSA12.jpg,AFNE07.jpg,AFNE18.jpg,FN,3,num_6,32,num_8,0.650138767669,,,2017_May_10_1409,59.9975946299,FEMA4ImagesEEG,001,200384,
AFNE01.JPG,AFNE01.JPG,AFNE01.JPG,AFNE01.JPG,AFNE01.JPG,AFNE01.JPG,2,7,27,4,,,,,,,,,,,,,,,,,,,,,,,AFNE12.jpg,AFNE04.jpg,AFSA15.jpg,AFSA02.jpg,AFNE04.jpg,FN,3,num_6,16,num_6,0.633480541874,,,2017_May_10_1409,59.9975946299,FEMA4ImagesEEG,001,200384,
AFNE01.JPG,AFNE01.JPG,AFNE01.JPG,AFNE01.JPG,AFNE01.JPG,AFNE01.JPG,2,8,28,2,,,,,,,,,,,,,,,,,,,,,,,AFSA10.jpg,AFNE14.jpg,AFNE15.jpg,AFSA18.jpg,AFNE14.jpg,FN,3,num_6,16,num_6,0.783449799055,,,2017_May_10_1409,59.9975946299,FEMA4ImagesEEG,001,200384,
AFNE01.JPG,AFNE01.JPG,AFNE01.JPG,AFNE01.JPG,AFNE01.JPG,AFNE01.JPG,2,9,29,0,,,,,,,,,,,,,,,,,,,,,,,AFNE01.jpg,AFNE07.jpg,AFSA05.jpg,AFSA12.jpg,AFNE07.jpg,FN,3,num_6,32,num_4,0.666767485673,,,2017_May_10_1409,59.9975946299,FEMA4ImagesEEG,001,200384,
AFNE01.JPG,AFNE01.JPG,AFNE01.JPG,AFNE01.JPG,AFNE01.JPG,AFNE01.JPG,3,0,30,7,,,,,,,,,,,,,,,,,,,,,,,AFNE18.jpg,AFSA02.jpg,AFNE08.jpg,AFSA01.jpg,AFSA02.jpg,FS,4,num_6,32,num_8,0.650127221132,,,2017_May_10_1409,59.9975946299,FEMA4ImagesEEG,001,200384,
AFNE01.JPG,AFNE01.JPG,AFNE01.JPG,AFNE01.JPG,AFNE01.JPG,AFNE01.JPG,3,1,31,0,,,,,,,,,,,,,,,,,,,,,,,AFNE07.jpg,AFSA14.jpg,AFSA06.jpg,AFNE11.jpg,AFNE11.jpg,FN,3,num_4,32,num_2,1.45007583871,,,2017_May_10_1409,59.9975946299,FEMA4ImagesEEG,001,200384,
AFNE01.JPG,AFNE01.JPG,AFNE01.JPG,AFNE01.JPG,AFNE01.JPG,AFNE01.JPG,3,2,32,8,,,,,,,,,,,,,,,,,,,,,,,AFSA19.jpg,AFNE16.jpg,AFSA08.jpg,AFNE13.jpg,AFSA08.jpg,FS,4,num_2,32,num_6,0.350138992071,,,2017_May_10_1409,59.9975946299,FEMA4ImagesEEG,001,200384,
AFNE01.JPG,AFNE01.JPG,AFNE01.JPG,AFNE01.JPG,AFNE01.JPG,AFNE01.JPG,3,3,33,1,,,,,,,,,,,,,,,,,,,,,,,AFNE07.jpg,AFNE13.jpg,AFSA07.jpg,AFSA08.jpg,AFNE07.jpg,FN,3,num_8,16,num_8,0.350112050073,,,2017_May_10_1409,59.9975946299,FEMA4ImagesEEG,001,200384,
AFNE01.JPG,AFNE01.JPG,AFNE01.JPG,AFNE01.JPG,AFNE01.JPG,AFNE01.JPG,3,4,34,6,,,,,,,,,,,,,,,,,,,,,,,AFSA10.jpg,AFNE06.jpg,AFSA01.jpg,AFNE05.jpg,AFNE06.jpg,FN,3,num_6,32,num_4,0.283517314587,,,2017_May_10_1409,59.9975946299,FEMA4ImagesEEG,001,200384,
AFNE01.JPG,AFNE01.JPG,AFNE01.JPG,AFNE01.JPG,AFNE01.JPG,AFNE01.JPG,3,5,35,3,,,,,,,,,,,,,,,,,,,,,,,AFSA08.jpg,AFNE01.jpg,AFNE17.jpg,AFSA12.jpg,AFSA08.jpg,FS,4,num_8,32,num_2,0.433473421261,,,2017_May_10_1409,59.9975946299,FEMA4ImagesEEG,001,200384,
AFNE01.JPG,AFNE01.JPG,AFNE01.JPG,AFNE01.JPG,AFNE01.JPG,AFNE01.JPG,3,6,36,9,,,,,,,,,,,,,,,,,,,,,,,AFNE08.jpg,AFSA19.jpg,AFSA17.jpg,AFNE03.jpg,AFSA17.jpg,FS,4,num_2,32,num_8,0.350178763969,,,2017_May_10_1409,59.9975946299,FEMA4ImagesEEG,001,200384,
AFNE01.JPG,AFNE01.JPG,AFNE01.JPG,AFNE01.JPG,AFNE01.JPG,AFNE01.JPG,3,7,37,5,,,,,,,,,,,,,,,,,,,,,,,AFNE18.jpg,AFNE07.jpg,AFSA18.jpg,AFSA10.jpg,AFNE07.jpg,FN,3,num_6,16,num_6,0.283558369381,,,2017_May_10_1409,59.9975946299,FEMA4ImagesEEG,001,200384,
AFNE01.JPG,AFNE01.JPG,AFNE01.JPG,AFNE01.JPG,AFNE01.JPG,AFNE01.JPG,3,8,38,2,,,,,,,,,,,,,,,,,,,,,,,AFNE12.jpg,AFSA03.jpg,AFNE07.jpg,AFSA15.jpg,AFNE07.jpg,FN,3,num_2,16,num_2,0.283492617775,,,2017_May_10_1409,59.9975946299,FEMA4ImagesEEG,001,200384,
AFNE01.JPG,AFNE01.JPG,AFNE01.JPG,AFNE01.JPG,AFNE01.JPG,AFNE01.JPG,3,9,39,4,,,,,,,,,,,,,,,,,,,,,,,AFSA07.jpg,AFNE01.jpg,AFNE10.jpg,AFSA15.jpg,AFSA07.jpg,FS,4,num_8,32,num_4,0.367068563355,,,2017_May_10_1409,59.9975946299,FEMA4ImagesEEG,001,200384,
AFNE01.JPG,AFNE01.JPG,AFNE01.JPG,AFNE01.JPG,AFNE01.JPG,AFNE01.JPG,4,0,40,4,,,,,,,,,,,,,,,,,,,,,,,AFSA05.jpg,AFNE17.jpg,AFSA01.jpg,AFNE16.jpg,AFSA05.jpg,FS,4,num_8,16,num_8,0.566618951503,,,2017_May_10_1409,59.9975946299,FEMA4ImagesEEG,001,200384,
AFNE01.JPG,AFNE01.JPG,AFNE01.JPG,AFNE01.JPG,AFNE01.JPG,AFNE01.JPG,4,1,41,0,,,,,,,,,,,,,,,,,,,,,,,AFNE15.jpg,AFNE03.jpg,AFSA17.jpg,AFSA09.jpg,AFSA17.jpg,FS,4,num_2,32,num_8,0.350133539643,,,2017_May_10_1409,59.9975946299,FEMA4ImagesEEG,001,200384,
AFNE01.JPG,AFNE01.JPG,AFNE01.JPG,AFNE01.JPG,AFNE01.JPG,AFNE01.JPG,4,2,42,1,,,,,,,,,,,,,,,,,,,,,,,AFSA06.jpg,AFNE12.jpg,AFSA01.jpg,AFNE06.jpg,AFSA01.jpg,FS,4,num_2,16,num_2,1.01674290095,,,2017_May_10_1409,59.9975946299,FEMA4ImagesEEG,001,200384,
AFNE01.JPG,AFNE01.JPG,AFNE01.JPG,AFNE01.JPG,AFNE01.JPG,AFNE01.JPG,4,3,43,8,,,,,,,,,,,,,,,,,,,,,,,AFSA19.jpg,AFNE12.jpg,AFNE07.jpg,AFSA14.jpg,AFNE12.jpg,FN,3,num_6,16,num_6,0.916791621363,,,2017_May_10_1409,59.9975946299,FEMA4ImagesEEG,001,200384,
AFNE01.JPG,AFNE01.JPG,AFNE01.JPG,AFNE01.JPG,AFNE01.JPG,AFNE01.JPG,4,4,44,7,,,,,,,,,,,,,,,,,,,,,,,AFSA01.jpg,AFSA02.jpg,AFNE19.jpg,AFNE18.jpg,AFSA02.jpg,FS,4,num_6,32,num_8,0.583502015332,,,2017_May_10_1409,59.9975946299,FEMA4ImagesEEG,001,200384,
AFNE01.JPG,AFNE01.JPG,AFNE01.JPG,AFNE01.JPG,AFNE01.JPG,AFNE01.JPG,4,5,45,9,,,,,,,,,,,,,,,,,,,,,,,AFSA05.jpg,AFNE10.jpg,AFNE04.jpg,AFSA13.jpg,AFSA13.jpg,FS,4,num_4,32,num_2,0.533483396517,,,2017_May_10_1409,59.9975946299,FEMA4ImagesEEG,001,200384,
AFNE01.JPG,AFNE01.JPG,AFNE01.JPG,AFNE01.JPG,AFNE01.JPG,AFNE01.JPG,4,6,46,6,,,,,,,,,,,,,,,,,,,,,,,AFSA14.jpg,AFSA08.jpg,AFNE12.jpg,AFNE17.jpg,AFSA14.jpg,FS,4,num_8,32,num_4,0.433503891574,,,2017_May_10_1409,59.9975946299,FEMA4ImagesEEG,001,200384,
AFNE01.JPG,AFNE01.JPG,AFNE01.JPG,AFNE01.JPG,AFNE01.JPG,AFNE01.JPG,4,7,47,3,,,,,,,,,,,,,,,,,,,,,,,AFSA17.jpg,AFSA02.jpg,AFNE17.jpg,AFNE08.jpg,AFNE17.jpg,FN,3,num_2,32,num_6,0.333496161737,,,2017_May_10_1409,59.9975946299,FEMA4ImagesEEG,001,200384,
AFNE01.JPG,AFNE01.JPG,AFNE01.JPG,AFNE01.JPG,AFNE01.JPG,AFNE01.JPG,4,8,48,5,,,,,,,,,,,,,,,,,,,,,,,AFNE15.jpg,AFSA11.jpg,AFSA01.jpg,AFNE18.jpg,AFNE15.jpg,FN,3,num_8,16,num_8,0.366798821837,,,2017_May_10_1409,59.9975946299,FEMA4ImagesEEG,001,200384,
AFNE01.JPG,AFNE01.JPG,AFNE01.JPG,AFNE01.JPG,AFNE01.JPG,AFNE01.JPG,4,9,49,2,,,,,,,,,,,,,,,,,,,,,,,AFSA14.jpg,AFNE03.jpg,AFSA13.jpg,AFNE20.jpg,AFNE03.jpg,FN,3,num_6,32,num_2,0.46681360784,,,2017_May_10_1409,59.9975946299,FEMA4ImagesEEG,001,200384,
AFNE01.JPG,AFNE01.JPG,AFNE01.JPG,AFNE01.JPG,AFNE01.JPG,AFNE01.JPG,5,0,50,8,,,,,,,,,,,,,,,,,,,,,,,AFNE09.jpg,AFSA16.jpg,AFNE11.jpg,AFSA08.jpg,AFNE11.jpg,FN,3,num_2,32,num_6,0.466798853828,,,2017_May_10_1409,59.9975946299,FEMA4ImagesEEG,001,200384,
AFNE01.JPG,AFNE01.JPG,AFNE01.JPG,AFNE01.JPG,AFNE01.JPG,AFNE01.JPG,5,1,51,7,,,,,,,,,,,,,,,,,,,,,,,AFNE14.jpg,AFSA05.jpg,AFSA08.jpg,AFNE01.jpg,AFNE01.jpg,FN,3,num_4,16,num_4,0.600116620772,,,2017_May_10_1409,59.9975946299,FEMA4ImagesEEG,001,200384,
AFNE01.JPG,AFNE01.JPG,AFNE01.JPG,AFNE01.JPG,AFNE01.JPG,AFNE01.JPG,5,2,52,4,,,,,,,,,,,,,,,,,,,,,,,AFSA02.jpg,AFSA06.jpg,AFNE03.jpg,AFNE05.jpg,AFNE03.jpg,FN,3,num_2,32,num_8,0.483478890033,,,2017_May_10_1409,59.9975946299,FEMA4ImagesEEG,001,200384,
AFNE01.JPG,AFNE01.JPG,AFNE01.JPG,AFNE01.JPG,AFNE01.JPG,AFNE01.JPG,5,3,53,5,,,,,,,,,,,,,,,,,,,,,,,AFNE08.jpg,AFNE09.jpg,AFSA13.jpg,AFSA20.jpg,AFSA20.jpg,FS,4,num_4,32,num_2,0.633487598272,,,2017_May_10_1409,59.9975946299,FEMA4ImagesEEG,001,200384,
AFNE01.JPG,AFNE01.JPG,AFNE01.JPG,AFNE01.JPG,AFNE01.JPG,AFNE01.JPG,5,4,54,3,,,,,,,,,,,,,,,,,,,,,,,AFSA02.jpg,AFNE20.jpg,AFSA10.jpg,AFNE15.jpg,AFNE20.jpg,FN,3,num_6,32,num_8,0.383601059439,,,2017_May_10_1409,59.9975946299,FEMA4ImagesEEG,001,200384,
AFNE01.JPG,AFNE01.JPG,AFNE01.JPG,AFNE01.JPG,AFNE01.JPG,AFNE01.JPG,5,5,55,6,,,,,,,,,,,,,,,,,,,,,,,AFSA19.jpg,AFSA16.jpg,AFNE14.jpg,AFNE18.jpg,AFNE14.jpg,FN,3,num_2,32,num_6,0.26679012971,,,2017_May_10_1409,59.9975946299,FEMA4ImagesEEG,001,200384,
AFNE01.JPG,AFNE01.JPG,AFNE01.JPG,AFNE01.JPG,AFNE01.JPG,AFNE01.JPG,5,6,56,1,,,,,,,,,,,,,,,,,,,,,,,AFSA20.jpg,AFNE09.jpg,AFNE20.jpg,AFSA02.jpg,AFSA20.jpg,FS,4,num_8,32,num_2,0.516829981701,,,2017_May_10_1409,59.9975946299,FEMA4ImagesEEG,001,200384,
AFNE01.JPG,AFNE01.JPG,AFNE01.JPG,AFNE01.JPG,AFNE01.JPG,AFNE01.JPG,5,7,57,0,,,,,,,,,,,,,,,,,,,,,,,AFSA06.jpg,AFNE06.jpg,AFSA18.jpg,AFNE02.jpg,AFSA06.jpg,FS,4,num_8,32,num_4,0.400125537068,,,2017_May_10_1409,59.9975946299,FEMA4ImagesEEG,001,200384,
AFNE01.JPG,AFNE01.JPG,AFNE01.JPG,AFNE01.JPG,AFNE01.JPG,AFNE01.JPG,5,8,58,2,,,,,,,,,,,,,,,,,,,,,,,AFSA13.jpg,AFSA19.jpg,AFNE18.jpg,AFNE11.jpg,AFNE11.jpg,FN,3,num_4,32,num_8,0.333478841931,,,2017_May_10_1409,59.9975946299,FEMA4ImagesEEG,001,200384,
AFNE01.JPG,AFNE01.JPG,AFNE01.JPG,AFNE01.JPG,AFNE01.JPG,AFNE01.JPG,5,9,59,9,,,,,,,,,,,,,,,,,,,,,,,AFSA02.jpg,AFNE14.jpg,AFSA08.jpg,AFNE17.jpg,AFNE14.jpg,FN,3,num_6,16,num_6,0.416837326717,,,2017_May_10_1409,59.9975946299,FEMA4ImagesEEG,001,200384,
,,,,,,,,,,,,,,,,,,,,,,,,,,,,,,,,,,,,,,,,,,,space,7.81622035289,2017_May_10_1409,59.9975946299,FEMA4ImagesEEG,001,200384,
AFNE01.JPG,AFNE01.JPG,AFNE01.JPG,AFNE01.JPG,AFNE01.JPG,AFNE01.JPG,,,,,0,0,0,3,,,,,,,,,,,,,,,,,,,AMSA06.jpg,AMNE12.jpg,AMSA03.jpg,AMNE13.jpg,AMSA03.jpg,MS,2,num_2,32,num_4,0.633530577179,,,2017_May_10_1409,59.9975946299,FEMA4ImagesEEG,001,200384,
AFNE01.JPG,AFNE01.JPG,AFNE01.JPG,AFNE01.JPG,AFNE01.JPG,AFNE01.JPG,,,,,0,1,1,0,,,,,,,,,,,,,,,,,,,AMSA16.jpg,AMNE07.jpg,AMNE11.jpg,AMSA18.jpg,AMSA16.jpg,MS,2,num_8,16,num_8,0.550167281413,,,2017_May_10_1409,59.9975946299,FEMA4ImagesEEG,001,200384,
AFNE01.JPG,AFNE01.JPG,AFNE01.JPG,AFNE01.JPG,AFNE01.JPG,AFNE01.JPG,,,,,0,2,2,5,,,,,,,,,,,,,,,,,,,AMNE19.jpg,AMSA18.jpg,AMSA20.jpg,AMNE20.jpg,AMSA20.jpg,MS,2,num_2,16,num_2,1.36671510898,,,2017_May_10_1409,59.9975946299,FEMA4ImagesEEG,001,200384,
AFNE01.JPG,AFNE01.JPG,AFNE01.JPG,AFNE01.JPG,AFNE01.JPG,AFNE01.JPG,,,,,0,3,3,8,,,,,,,,,,,,,,,,,,,AMSA01.jpg,AMSA14.jpg,AMNE06.jpg,AMNE09.jpg,AMNE06.jpg,MN,1,num_2,32,num_4,0.816779721761,,,2017_May_10_1409,59.9975946299,FEMA4ImagesEEG,001,200384,
AFNE01.JPG,AFNE01.JPG,AFNE01.JPG,AFNE01.JPG,AFNE01.JPG,AFNE01.JPG,,,,,0,4,4,2,,,,,,,,,,,,,,,,,,,AMSA15.jpg,AMSA06.jpg,AMNE01.jpg,AMNE19.jpg,AMNE19.jpg,MN,1,num_4,16,num_4,0.633525445359,,,2017_May_10_1409,59.9975946299,FEMA4ImagesEEG,001,200384,
AFNE01.JPG,AFNE01.JPG,AFNE01.JPG,AFNE01.JPG,AFNE01.JPG,AFNE01.JPG,,,,,0,5,5,7,,,,,,,,,,,,,,,,,,,AMNE18.jpg,AMSA03.jpg,AMNE08.jpg,AMSA07.jpg,AMNE08.jpg,MN,1,num_2,32,num_8,0.533532469533,,,2017_May_10_1409,59.9975946299,FEMA4ImagesEEG,001,200384,
AFNE01.JPG,AFNE01.JPG,AFNE01.JPG,AFNE01.JPG,AFNE01.JPG,AFNE01.JPG,,,,,0,6,6,4,,,,,,,,,,,,,,,,,,,AMSA16.jpg,AMNE13.jpg,AMSA13.jpg,AMNE09.jpg,AMSA13.jpg,MS,2,num_2,32,num_6,0.516809775261,,,2017_May_10_1409,59.9975946299,FEMA4ImagesEEG,001,200384,
AFNE01.JPG,AFNE01.JPG,AFNE01.JPG,AFNE01.JPG,AFNE01.JPG,AFNE01.JPG,,,,,0,7,7,1,,,,,,,,,,,,,,,,,,,AMSA19.jpg,AMNE01.jpg,AMNE06.jpg,AMSA07.jpg,AMNE06.jpg,MN,1,num_2,16,num_2,0.416769009084,,,2017_May_10_1409,59.9975946299,FEMA4ImagesEEG,001,200384,
AFNE01.JPG,AFNE01.JPG,AFNE01.JPG,AFNE01.JPG,AFNE01.JPG,AFNE01.JPG,,,,,0,8,8,9,,,,,,,,,,,,,,,,,,,AMSA09.jpg,AMNE13.jpg,AMNE02.jpg,AMSA01.jpg,AMSA09.jpg,MS,2,num_8,16,num_8,0.400133235147,,,2017_May_10_1409,59.9975946299,FEMA4ImagesEEG,001,200384,
AFNE01.JPG,AFNE01.JPG,AFNE01.JPG,AFNE01.JPG,AFNE01.JPG,AFNE01.JPG,,,,,0,9,9,6,,,,,,,,,,,,,,,,,,,AMNE14.jpg,AMNE17.jpg,AMSA05.jpg,AMSA13.jpg,AMSA05.jpg,MS,2,num_2,32,num_6,1.11671246286,,,2017_May_10_1409,59.9975946299,FEMA4ImagesEEG,001,200384,
AFNE01.JPG,AFNE01.JPG,AFNE01.JPG,AFNE01.JPG,AFNE01.JPG,AFNE01.JPG,,,,,1,0,10,3,,,,,,,,,,,,,,,,,,,AMSA06.jpg,AMSA16.jpg,AMNE02.jpg,AMNE16.jpg,AMSA06.jpg,MS,2,num_8,32,num_2,0.800132401055,,,2017_May_10_1409,59.9975946299,FEMA4ImagesEEG,001,200384,
AFNE01.JPG,AFNE01.JPG,AFNE01.JPG,AFNE01.JPG,AFNE01.JPG,AFNE01.JPG,,,,,1,1,11,1,,,,,,,,,,,,,,,,,,,AMNE19.jpg,AMSA18.jpg,AMSA15.jpg,AMNE15.jpg,AMSA15.jpg,MS,2,num_2,32,num_6,0.816662010504,,,2017_May_10_1409,59.9975946299,FEMA4ImagesEEG,001,200384,
AFNE01.JPG,AFNE01.JPG,AFNE01.JPG,AFNE01.JPG,AFNE01.JPG,AFNE01.JPG,,,,,1,2,12,9,,,,,,,,,,,,,,,,,,,AMSA03.jpg,AMNE05.jpg,AMNE13.jpg,AMSA09.jpg,AMSA09.jpg,MS,2,num_4,32,num_2,0.316791749559,,,2017_May_10_1409,59.9975946299,FEMA4ImagesEEG,001,200384,
AFNE01.JPG,AFNE01.JPG,AFNE01.JPG,AFNE01.JPG,AFNE01.JPG,AFNE01.JPG,,,,,1,3,13,0,,,,,,,,,,,,,,,,,,,AMNE17.jpg,AMNE06.jpg,AMSA10.jpg,AMSA12.jpg,AMSA10.jpg,MS,2,num_2,32,num_8,0.383492328925,,,2017_May_10_1409,59.9975946299,FEMA4ImagesEEG,001,200384,
AFNE01.JPG,AFNE01.JPG,AFNE01.JPG,AFNE01.JPG,AFNE01.JPG,AFNE01.JPG,,,,,1,4,14,6,,,,,,,,,,,,,,,,,,,AMSA18.jpg,AMSA02.jpg,AMNE20.jpg,AMNE14.jpg,AMSA18.jpg,MS,2,num_8,32,num_4,0.316688471707,,,2017_May_10_1409,59.9975946299,FEMA4ImagesEEG,001,200384,
AFNE01.JPG,AFNE01.JPG,AFNE01.JPG,AFNE01.JPG,AFNE01.JPG,AFNE01.JPG,,,,,1,5,15,7,,,,,,,,,,,,,,,,,,,AMNE05.jpg,AMSA02.jpg,AMSA06.jpg,AMNE12.jpg,AMSA02.jpg,MS,2,num_6,16,num_6,0.666759146377,,,2017_May_10_1409,59.9975946299,FEMA4ImagesEEG,001,200384,
AFNE01.JPG,AFNE01.JPG,AFNE01.JPG,AFNE01.JPG,AFNE01.JPG,AFNE01.JPG,,,,,1,6,16,5,,,,,,,,,,,,,,,,,,,AMSA01.jpg,AMSA11.jpg,AMNE16.jpg,AMNE19.jpg,AMNE19.jpg,MN,1,num_4,32,num_2,0.816873698262,,,2017_May_10_1409,59.9975946299,FEMA4ImagesEEG,001,200384,
AFNE01.JPG,AFNE01.JPG,AFNE01.JPG,AFNE01.JPG,AFNE01.JPG,AFNE01.JPG,,,,,1,7,17,2,,,,,,,,,,,,,,,,,,,AMNE01.jpg,AMSA14.jpg,AMSA16.jpg,AMNE12.jpg,AMNE01.jpg,MN,1,num_8,16,num_8,0.700169574702,,,2017_May_10_1409,59.9975946299,FEMA4ImagesEEG,001,200384,
AFNE01.JPG,AFNE01.JPG,AFNE01.JPG,AFNE01.JPG,AFNE01.JPG,AFNE01.JPG,,,,,1,8,18,8,,,,,,,,,,,,,,,,,,,AMNE09.jpg,AMSA06.jpg,AMSA12.jpg,AMNE17.jpg,AMNE17.jpg,MN,1,num_4,16,num_4,0.733468385879,,,2017_May_10_1409,59.9975946299,FEMA4ImagesEEG,001,200384,
AFNE01.JPG,AFNE01.JPG,AFNE01.JPG,AFNE01.JPG,AFNE01.JPG,AFNE01.JPG,,,,,1,9,19,4,,,,,,,,,,,,,,,,,,,AMSA03.jpg,AMNE11.jpg,AMNE17.jpg,AMSA11.jpg,AMSA03.jpg,MS,2,num_8,32,num_2,0.566764246207,,,2017_May_10_1409,59.9975946299,FEMA4ImagesEEG,001,200384,
AFNE01.JPG,AFNE01.JPG,AFNE01.JPG,AFNE01.JPG,AFNE01.JPG,AFNE01.JPG,,,,,2,0,20,3,,,,,,,,,,,,,,,,,,,AMNE03.jpg,AMNE01.jpg,AMSA18.jpg,AMSA15.jpg,AMSA15.jpg,MS,2,num_4,32,num_8,0.566781566245,,,2017_May_10_1409,59.9975946299,FEMA4ImagesEEG,001,200384,
AFNE01.JPG,AFNE01.JPG,AFNE01.JPG,AFNE01.JPG,AFNE01.JPG,AFNE01.JPG,,,,,2,1,21,2,,,,,,,,,,,,,,,,,,,AMSA11.jpg,AMSA04.jpg,AMNE17.jpg,AMNE19.jpg,AMNE19.jpg,MN,1,num_4,32,num_6,0.40017332742,,,2017_May_10_1409,59.9975946299,FEMA4ImagesEEG,001,200384,
AFNE01.JPG,AFNE01.JPG,AFNE01.JPG,AFNE01.JPG,AFNE01.JPG,AFNE01.JPG,,,,,2,2,22,0,,,,,,,,,,,,,,,,,,,AMNE18.jpg,AMSA14.jpg,AMNE20.jpg,AMSA02.jpg,AMSA14.jpg,MS,2,num_6,16,num_6,0.766755329678,,,2017_May_10_1409,59.9975946299,FEMA4ImagesEEG,001,200384,
AFNE01.JPG,AFNE01.JPG,AFNE01.JPG,AFNE01.JPG,AFNE01.JPG,AFNE01.JPG,,,,,2,3,23,8,,,,,,,,,,,,,,,,,,,AMSA11.jpg,AMSA17.jpg,AMNE17.jpg,AMNE15.jpg,AMNE17.jpg,MN,1,num_2,32,num_8,0.333503859583,,,2017_May_10_1409,59.9975946299,FEMA4ImagesEEG,001,200384,
AFNE01.JPG,AFNE01.JPG,AFNE01.JPG,AFNE01.JPG,AFNE01.JPG,AFNE01.JPG,,,,,2,4,24,5,,,,,,,,,,,,,,,,,,,AMSA05.jpg,AMNE20.jpg,AMSA20.jpg,AMNE06.jpg,AMNE06.jpg,MN,1,num_4,16,num_4,0.633491447195,,,2017_May_10_1409,59.9975946299,FEMA4ImagesEEG,001,200384,
AFNE01.JPG,AFNE01.JPG,AFNE01.JPG,AFNE01.JPG,AFNE01.JPG,AFNE01.JPG,,,,,2,5,25,4,,,,,,,,,,,,,,,,,,,AMSA05.jpg,AMNE11.jpg,AMNE08.jpg,AMSA17.jpg,AMNE08.jpg,MN,1,num_2,16,num_2,1.16672530863,,,2017_May_10_1409,59.9975946299,FEMA4ImagesEEG,001,200384,
AFNE01.JPG,AFNE01.JPG,AFNE01.JPG,AFNE01.JPG,AFNE01.JPG,AFNE01.JPG,,,,,2,6,26,1,,,,,,,,,,,,,,,,,,,AMNE12.jpg,AMSA01.jpg,AMNE08.jpg,AMSA08.jpg,AMSA08.jpg,MS,2,num_4,32,num_6,0.466812966391,,,2017_May_10_1409,59.9975946299,FEMA4ImagesEEG,001,200384,
AFNE01.JPG,AFNE01.JPG,AFNE01.JPG,AFNE01.JPG,AFNE01.JPG,AFNE01.JPG,,,,,2,7,27,7,,,,,,,,,,,,,,,,,,,AMSA08.jpg,AMNE01.jpg,AMNE09.jpg,AMSA16.jpg,AMSA08.jpg,MS,2,num_8,32,num_6,0.850143643096,,,2017_May_10_1409,59.9975946299,FEMA4ImagesEEG,001,200384,
AFNE01.JPG,AFNE01.JPG,AFNE01.JPG,AFNE01.JPG,AFNE01.JPG,AFNE01.JPG,,,,,2,8,28,6,,,,,,,,,,,,,,,,,,,AMSA19.jpg,AMSA10.jpg,AMNE07.jpg,AMNE18.jpg,AMNE07.jpg,MN,1,num_2,16,num_2,1.23343422706,,,2017_May_10_1409,59.9975946299,FEMA4ImagesEEG,001,200384,
AFNE01.JPG,AFNE01.JPG,AFNE01.JPG,AFNE01.JPG,AFNE01.JPG,AFNE01.JPG,,,,,2,9,29,9,,,,,,,,,,,,,,,,,,,AMSA20.jpg,AMNE20.jpg,AMNE15.jpg,AMSA17.jpg,AMNE20.jpg,MN,1,num_6,32,num_4,0.600121431751,,,2017_May_10_1409,59.9975946299,FEMA4ImagesEEG,001,200384,
AFNE01.JPG,AFNE01.JPG,AFNE01.JPG,AFNE01.JPG,AFNE01.JPG,AFNE01.JPG,,,,,3,0,30,6,,,,,,,,,,,,,,,,,,,AMNE20.jpg,AMSA01.jpg,AMSA17.jpg,AMNE16.jpg,AMNE20.jpg,MN,1,num_8,32,num_6,0.583514844999,,,2017_May_10_1409,59.9975946299,FEMA4ImagesEEG,001,200384,
AFNE01.JPG,AFNE01.JPG,AFNE01.JPG,AFNE01.JPG,AFNE01.JPG,AFNE01.JPG,,,,,3,1,31,5,,,,,,,,,,,,,,,,,,,AMNE10.jpg,AMSA05.jpg,AMNE04.jpg,AMSA04.jpg,AMSA04.jpg,MS,2,num_4,32,num_8,0.583464488853,,,2017_May_10_1409,59.9975946299,FEMA4ImagesEEG,001,200384,
AFNE01.JPG,AFNE01.JPG,AFNE01.JPG,AFNE01.JPG,AFNE01.JPG,AFNE01.JPG,,,,,3,2,32,7,,,,,,,,,,,,,,,,,,,AMSA01.jpg,AMSA11.jpg,AMNE02.jpg,AMNE17.jpg,AMSA11.jpg,MS,2,num_6,32,num_2,0.566757190041,,,2017_May_10_1409,59.9975946299,FEMA4ImagesEEG,001,200384,
AFNE01.JPG,AFNE01.JPG,AFNE01.JPG,AFNE01.JPG,AFNE01.JPG,AFNE01.JPG,,,,,3,3,33,3,,,,,,,,,,,,,,,,,,,AMSA16.jpg,AMNE14.jpg,AMSA13.jpg,AMNE16.jpg,AMSA16.jpg,MS,2,num_8,32,num_4,0.41675008554,,,2017_May_10_1409,59.9975946299,FEMA4ImagesEEG,001,200384,
AFNE01.JPG,AFNE01.JPG,AFNE01.JPG,AFNE01.JPG,AFNE01.JPG,AFNE01.JPG,,,,,3,4,34,0,,,,,,,,,,,,,,,,,,,AMNE18.jpg,AMNE15.jpg,AMSA19.jpg,AMSA11.jpg,AMSA19.jpg,MS,2,num_2,32,num_8,0.533449398121,,,2017_May_10_1409,59.9975946299,FEMA4ImagesEEG,001,200384,
AFNE01.JPG,AFNE01.JPG,AFNE01.JPG,AFNE01.JPG,AFNE01.JPG,AFNE01.JPG,,,,,3,5,35,9,,,,,,,,,,,,,,,,,,,AMNE03.jpg,AMSA01.jpg,AMSA04.jpg,AMNE18.jpg,AMSA01.jpg,MS,2,num_6,32,num_2,0.299883988686,,,2017_May_10_1409,59.9975946299,FEMA4ImagesEEG,001,200384,
AFNE01.JPG,AFNE01.JPG,AFNE01.JPG,AFNE01.JPG,AFNE01.JPG,AFNE01.JPG,,,,,3,6,36,4,,,,,,,,,,,,,,,,,,,AMNE04.jpg,AMSA18.jpg,AMNE08.jpg,AMSA09.jpg,AMNE08.jpg,MN,1,num_2,32,num_6,0.500188754871,,,2017_May_10_1409,59.9975946299,FEMA4ImagesEEG,001,200384,
AFNE01.JPG,AFNE01.JPG,AFNE01.JPG,AFNE01.JPG,AFNE01.JPG,AFNE01.JPG,,,,,3,7,37,1,,,,,,,,,,,,,,,,,,,AMNE02.jpg,AMSA05.jpg,AMSA12.jpg,AMNE20.jpg,AMNE20.jpg,MN,1,num_4,16,num_4,0.500144813675,,,2017_May_10_1409,59.9975946299,FEMA4ImagesEEG,001,200384,
AFNE01.JPG,AFNE01.JPG,AFNE01.JPG,AFNE01.JPG,AFNE01.JPG,AFNE01.JPG,,,,,3,8,38,2,,,,,,,,,,,,,,,,,,,AMNE09.jpg,AMSA18.jpg,AMNE05.jpg,AMSA03.jpg,AMNE05.jpg,MN,1,num_2,32,num_6,0.616775808856,,,2017_May_10_1409,59.9975946299,FEMA4ImagesEEG,001,200384,
AFNE01.JPG,AFNE01.JPG,AFNE01.JPG,AFNE01.JPG,AFNE01.JPG,AFNE01.JPG,,,,,3,9,39,8,,,,,,,,,,,,,,,,,,,AMSA10.jpg,AMSA16.jpg,AMNE07.jpg,AMNE05.jpg,AMNE07.jpg,MN,1,num_2,16,num_2,0.816800249275,,,2017_May_10_1409,59.9975946299,FEMA4ImagesEEG,001,200384,
AFNE01.JPG,AFNE01.JPG,AFNE01.JPG,AFNE01.JPG,AFNE01.JPG,AFNE01.JPG,,,,,4,0,40,4,,,,,,,,,,,,,,,,,,,AMSA16.jpg,AMNE02.jpg,AMSA11.jpg,AMNE05.jpg,AMSA11.jpg,MS,2,num_2,32,num_4,0.6000011547,,,2017_May_10_1409,59.9975946299,FEMA4ImagesEEG,001,200384,
AFNE01.JPG,AFNE01.JPG,AFNE01.JPG,AFNE01.JPG,AFNE01.JPG,AFNE01.JPG,,,,,4,1,41,2,,,,,,,,,,,,,,,,,,,AMSA07.jpg,AMNE10.jpg,AMNE19.jpg,AMSA20.jpg,AMNE19.jpg,MN,1,num_2,16,num_2,1.2000449677,,,2017_May_10_1409,59.9975946299,FEMA4ImagesEEG,001,200384,
AFNE01.JPG,AFNE01.JPG,AFNE01.JPG,AFNE01.JPG,AFNE01.JPG,AFNE01.JPG,,,,,4,2,42,8,,,,,,,,,,,,,,,,,,,AMSA01.jpg,AMSA20.jpg,AMNE08.jpg,AMNE13.jpg,AMSA01.jpg,MS,2,num_8,16,num_8,0.63346642931,,,2017_May_10_1409,59.9975946299,FEMA4ImagesEEG,001,200384,
AFNE01.JPG,AFNE01.JPG,AFNE01.JPG,AFNE01.JPG,AFNE01.JPG,AFNE01.JPG,,,,,4,3,43,0,,,,,,,,,,,,,,,,,,,AMSA10.jpg,AMNE05.jpg,AMSA04.jpg,AMNE19.jpg,AMNE05.jpg,MN,1,num_6,16,num_6,0.316759996349,,,2017_May_10_1409,59.9975946299,FEMA4ImagesEEG,001,200384,
AFNE01.JPG,AFNE01.JPG,AFNE01.JPG,AFNE01.JPG,AFNE01.JPG,AFNE01.JPG,,,,,4,4,44,1,,,,,,,,,,,,,,,,,,,AMNE12.jpg,AMSA05.jpg,AMSA02.jpg,AMNE11.jpg,AMNE11.jpg,MN,1,num_4,32,num_2,1.26671603927,,,2017_May_10_1409,59.9975946299,FEMA4ImagesEEG,001,200384,
AFNE01.JPG,AFNE01.JPG,AFNE01.JPG,AFNE01.JPG,AFNE01.JPG,AFNE01.JPG,,,,,4,5,45,5,,,,,,,,,,,,,,,,,,,AMSA06.jpg,AMSA16.jpg,AMNE18.jpg,AMNE17.jpg,AMSA06.jpg,MS,2,num_8,32,num_4,0.333470823476,,,2017_May_10_1409,59.9975946299,FEMA4ImagesEEG,001,200384,
AFNE01.JPG,AFNE01.JPG,AFNE01.JPG,AFNE01.JPG,AFNE01.JPG,AFNE01.JPG,,,,,4,6,46,7,,,,,,,,,,,,,,,,,,,AMNE19.jpg,AMNE02.jpg,AMSA16.jpg,AMSA03.jpg,AMSA03.jpg,MS,2,num_4,32,num_6,0.733477366623,,,2017_May_10_1409,59.9975946299,FEMA4ImagesEEG,001,200384,
AFNE01.JPG,AFNE01.JPG,AFNE01.JPG,AFNE01.JPG,AFNE01.JPG,AFNE01.JPG,,,,,4,7,47,9,,,,,,,,,,,,,,,,,,,AMNE01.jpg,AMSA05.jpg,AMNE06.jpg,AMSA19.jpg,AMSA05.jpg,MS,2,num_6,32,num_8,0.366821273463,,,2017_May_10_1409,59.9975946299,FEMA4ImagesEEG,001,200384,
AFNE01.JPG,AFNE01.JPG,AFNE01.JPG,AFNE01.JPG,AFNE01.JPG,AFNE01.JPG,,,,,4,8,48,6,,,,,,,,,,,,,,,,,,,AMSA02.jpg,AMSA07.jpg,AMNE13.jpg,AMNE09.jpg,AMNE13.jpg,MN,1,num_2,32,num_6,0.533500395715,,,2017_May_10_1409,59.9975946299,FEMA4ImagesEEG,001,200384,
AFNE01.JPG,AFNE01.JPG,AFNE01.JPG,AFNE01.JPG,AFNE01.JPG,AFNE01.JPG,,,,,4,9,49,3,,,,,,,,,,,,,,,,,,,AMNE18.jpg,AMSA17.jpg,AMSA14.jpg,AMNE09.jpg,AMNE18.jpg,MN,1,num_8,32,num_4,0.61677997862,,,2017_May_10_1409,59.9975946299,FEMA4ImagesEEG,001,200384,
AFNE01.JPG,AFNE01.JPG,AFNE01.JPG,AFNE01.JPG,AFNE01.JPG,AFNE01.JPG,,,,,5,0,50,6,,,,,,,,,,,,,,,,,,,AMSA07.jpg,AMSA01.jpg,AMNE01.jpg,AMNE06.jpg,AMSA01.jpg,MS,2,num_6,16,num_6,0.7668018369,,,2017_May_10_1409,59.9975946299,FEMA4ImagesEEG,001,200384,
AFNE01.JPG,AFNE01.JPG,AFNE01.JPG,AFNE01.JPG,AFNE01.JPG,AFNE01.JPG,,,,,5,1,51,5,,,,,,,,,,,,,,,,,,,AMNE07.jpg,AMSA14.jpg,AMSA11.jpg,AMNE11.jpg,AMSA11.jpg,MS,2,num_2,16,num_2,0.833471945953,,,2017_May_10_1409,59.9975946299,FEMA4ImagesEEG,001,200384,
AFNE01.JPG,AFNE01.JPG,AFNE01.JPG,AFNE01.JPG,AFNE01.JPG,AFNE01.JPG,,,,,5,2,52,8,,,,,,,,,,,,,,,,,,,AMNE09.jpg,AMNE16.jpg,AMSA01.jpg,AMSA09.jpg,AMSA09.jpg,MS,2,num_4,32,num_8,0.63349176757,,,2017_May_10_1409,59.9975946299,FEMA4ImagesEEG,001,200384,
AFNE01.JPG,AFNE01.JPG,AFNE01.JPG,AFNE01.JPG,AFNE01.JPG,AFNE01.JPG,,,,,5,3,53,2,,,,,,,,,,,,,,,,,,,AMSA10.jpg,AMNE20.jpg,AMSA13.jpg,AMNE14.jpg,AMSA10.jpg,MS,2,num_8,32,num_4,0.766735764453,,,2017_May_10_1409,59.9975946299,FEMA4ImagesEEG,001,200384,
AFNE01.JPG,AFNE01.JPG,AFNE01.JPG,AFNE01.JPG,AFNE01.JPG,AFNE01.JPG,,,,,5,4,54,0,,,,,,,,,,,,,,,,,,,AMNE02.jpg,AMNE14.jpg,AMSA14.jpg,AMSA12.jpg,AMSA12.jpg,MS,2,num_4,16,num_4,0.750098065939,,,2017_May_10_1409,59.9975946299,FEMA4ImagesEEG,001,200384,
AFNE01.JPG,AFNE01.JPG,AFNE01.JPG,AFNE01.JPG,AFNE01.JPG,AFNE01.JPG,,,,,5,5,55,4,,,,,,,,,,,,,,,,,,,AMNE04.jpg,AMSA16.jpg,AMSA04.jpg,AMNE19.jpg,AMSA16.jpg,MS,2,num_6,16,num_6,0.6834783128,,,2017_May_10_1409,59.9975946299,FEMA4ImagesEEG,001,200384,
AFNE01.JPG,AFNE01.JPG,AFNE01.JPG,AFNE01.JPG,AFNE01.JPG,AFNE01.JPG,,,,,5,6,56,3,,,,,,,,,,,,,,,,,,,AMSA05.jpg,AMNE09.jpg,AMSA17.jpg,AMNE14.jpg,AMSA05.jpg,MS,2,num_8,32,num_6,0.683446238749,,,2017_May_10_1409,59.9975946299,FEMA4ImagesEEG,001,200384,
AFNE01.JPG,AFNE01.JPG,AFNE01.JPG,AFNE01.JPG,AFNE01.JPG,AFNE01.JPG,,,,,5,7,57,9,,,,,,,,,,,,,,,,,,,AMNE11.jpg,AMSA16.jpg,AMSA08.jpg,AMNE05.jpg,AMSA08.jpg,MS,2,num_2,32,num_8,0.733531571459,,,2017_May_10_1409,59.9975946299,FEMA4ImagesEEG,001,200384,
AFNE01.JPG,AFNE01.JPG,AFNE01.JPG,AFNE01.JPG,AFNE01.JPG,AFNE01.JPG,,,,,5,8,58,7,,,,,,,,,,,,,,,,,,,AMNE17.jpg,AMSA02.jpg,AMSA04.jpg,AMNE07.jpg,AMSA02.jpg,MS,2,num_6,32,num_2,0.466806230834,,,2017_May_10_1409,59.9975946299,FEMA4ImagesEEG,001,200384,
AFNE01.JPG,AFNE01.JPG,AFNE01.JPG,AFNE01.JPG,AFNE01.JPG,AFNE01.JPG,,,,,5,9,59,1,,,,,,,,,,,,,,,,,,,AMSA15.jpg,AMSA08.jpg,AMNE02.jpg,AMNE03.jpg,AMNE02.jpg,MN,1,num_2,32,num_6,0.833462965442,,,2017_May_10_1409,59.9975946299,FEMA4ImagesEEG,001,200384,
,,,,,,,,,,,,,,,,,,,,,,,,,,,,,,,,,,,,,,,,,,,space,8.59946712409,2017_May_10_1409,59.9975946299,FEMA4ImagesEEG,001,200384,
AFNE01.JPG,AFNE01.JPG,AFNE01.JPG,AFNE01.JPG,AFNE01.JPG,AFNE01.JPG,,,,,,,,,0,0,0,2,,,,,,,,,,,,,,,AFSA08.jpg,AFSA04.jpg,AFNE05.jpg,AFNE03.jpg,AFNE03.jpg,FN,3,num_4,16,num_4,0.65041973535,,,2017_May_10_1409,59.9975946299,FEMA4ImagesEEG,001,200384,
AFNE01.JPG,AFNE01.JPG,AFNE01.JPG,AFNE01.JPG,AFNE01.JPG,AFNE01.JPG,,,,,,,,,0,1,1,6,,,,,,,,,,,,,,,AFSA06.jpg,AFSA08.jpg,AFNE11.jpg,AFNE01.jpg,AFNE01.jpg,FN,3,num_4,32,num_2,0.866747022374,,,2017_May_10_1409,59.9975946299,FEMA4ImagesEEG,001,200384,
AFNE01.JPG,AFNE01.JPG,AFNE01.JPG,AFNE01.JPG,AFNE01.JPG,AFNE01.JPG,,,,,,,,,0,2,2,7,,,,,,,,,,,,,,,AFSA10.jpg,AFNE18.jpg,AFSA17.jpg,AFNE08.jpg,AFNE08.jpg,FN,3,num_4,16,num_4,0.616770356195,,,2017_May_10_1409,59.9975946299,FEMA4ImagesEEG,001,200384,
AFNE01.JPG,AFNE01.JPG,AFNE01.JPG,AFNE01.JPG,AFNE01.JPG,AFNE01.JPG,,,,,,,,,0,3,3,4,,,,,,,,,,,,,,,AFSA12.jpg,AFSA10.jpg,AFNE13.jpg,AFNE06.jpg,AFSA12.jpg,FS,4,num_8,32,num_6,0.28355387901,,,2017_May_10_1409,59.9975946299,FEMA4ImagesEEG,001,200384,
AFNE01.JPG,AFNE01.JPG,AFNE01.JPG,AFNE01.JPG,AFNE01.JPG,AFNE01.JPG,,,,,,,,,0,4,4,1,,,,,,,,,,,,,,,AFNE06.jpg,AFNE17.jpg,AFSA11.jpg,AFSA19.jpg,AFSA19.jpg,FS,4,num_4,32,num_8,0.550149640767,,,2017_May_10_1409,59.9975946299,FEMA4ImagesEEG,001,200384,
AFNE01.JPG,AFNE01.JPG,AFNE01.JPG,AFNE01.JPG,AFNE01.JPG,AFNE01.JPG,,,,,,,,,0,5,5,5,,,,,,,,,,,,,,,AFNE05.jpg,AFNE15.jpg,AFSA15.jpg,AFSA07.jpg,AFNE15.jpg,FN,3,num_6,16,num_6,0.633490484906,,,2017_May_10_1409,59.9975946299,FEMA4ImagesEEG,001,200384,
AFNE01.JPG,AFNE01.JPG,AFNE01.JPG,AFNE01.JPG,AFNE01.JPG,AFNE01.JPG,,,,,,,,,0,6,6,3,,,,,,,,,,,,,,,AFNE04.jpg,AFSA18.jpg,AFNE17.jpg,AFSA03.jpg,AFSA18.jpg,FS,4,num_6,32,num_8,0.716763011413,,,2017_May_10_1409,59.9975946299,FEMA4ImagesEEG,001,200384,
AFNE01.JPG,AFNE01.JPG,AFNE01.JPG,AFNE01.JPG,AFNE01.JPG,AFNE01.JPG,,,,,,,,,0,7,7,9,,,,,,,,,,,,,,,AFSA04.jpg,AFNE01.jpg,AFNE09.jpg,AFSA10.jpg,AFSA04.jpg,FS,4,num_8,32,num_2,0.433467647992,,,2017_May_10_1409,59.9975946299,FEMA4ImagesEEG,001,200384,
AFNE01.JPG,AFNE01.JPG,AFNE01.JPG,AFNE01.JPG,AFNE01.JPG,AFNE01.JPG,,,,,,,,,0,8,8,0,,,,,,,,,,,,,,,AFNE17.jpg,AFSA17.jpg,AFNE11.jpg,AFSA09.jpg,AFSA09.jpg,FS,4,num_4,16,num_4,0.350300324149,,,2017_May_10_1409,59.9975946299,FEMA4ImagesEEG,001,200384,
AFNE01.JPG,AFNE01.JPG,AFNE01.JPG,AFNE01.JPG,AFNE01.JPG,AFNE01.JPG,,,,,,,,,0,9,9,8,,,,,,,,,,,,,,,AFSA08.jpg,AFSA15.jpg,AFNE12.jpg,AFNE07.jpg,AFNE12.jpg,FN,3,num_2,16,num_2,0.900123452535,,,2017_May_10_1409,59.9975946299,FEMA4ImagesEEG,001,200384,
AFNE01.JPG,AFNE01.JPG,AFNE01.JPG,AFNE01.JPG,AFNE01.JPG,AFNE01.JPG,,,,,,,,,1,0,10,7,,,,,,,,,,,,,,,AFSA11.jpg,AFNE09.jpg,AFSA15.jpg,AFNE10.jpg,AFNE09.jpg,FN,3,num_6,16,num_6,1.33343971171,,,2017_May_10_1409,59.9975946299,FEMA4ImagesEEG,001,200384,
AFNE01.JPG,AFNE01.JPG,AFNE01.JPG,AFNE01.JPG,AFNE01.JPG,AFNE01.JPG,,,,,,,,,1,1,11,4,,,,,,,,,,,,,,,AFSA19.jpg,AFNE05.jpg,AFNE09.jpg,AFSA14.jpg,AFSA19.jpg,FS,4,num_8,32,num_4,1.23342396342,,,2017_May_10_1409,59.9975946299,FEMA4ImagesEEG,001,200384,
AFNE01.JPG,AFNE01.JPG,AFNE01.JPG,AFNE01.JPG,AFNE01.JPG,AFNE01.JPG,,,,,,,,,1,2,12,3,,,,,,,,,,,,,,,AFNE16.jpg,AFNE12.jpg,AFSA11.jpg,AFSA13.jpg,AFNE16.jpg,FN,3,num_8,32,num_6,0.866767870495,,,2017_May_10_1409,59.9975946299,FEMA4ImagesEEG,001,200384,
AFNE01.JPG,AFNE01.JPG,AFNE01.JPG,AFNE01.JPG,AFNE01.JPG,AFNE01.JPG,,,,,,,,,1,3,13,8,,,,,,,,,,,,,,,AFNE16.jpg,AFNE08.jpg,AFSA13.jpg,AFSA07.jpg,AFSA07.jpg,FS,4,num_4,32,num_8,0.333465691656,,,2017_May_10_1409,59.9975946299,FEMA4ImagesEEG,001,200384,
AFNE01.JPG,AFNE01.JPG,AFNE01.JPG,AFNE01.JPG,AFNE01.JPG,AFNE01.JPG,,,,,,,,,1,4,14,5,,,,,,,,,,,,,,,AFSA13.jpg,AFNE01.jpg,AFSA03.jpg,AFNE14.jpg,AFNE01.jpg,FN,3,num_6,32,num_2,1.23327257461,,,2017_May_10_1409,59.9975946299,FEMA4ImagesEEG,001,200384,
AFNE01.JPG,AFNE01.JPG,AFNE01.JPG,AFNE01.JPG,AFNE01.JPG,AFNE01.JPG,,,,,,,,,1,5,15,9,,,,,,,,,,,,,,,AFNE20.jpg,AFSA05.jpg,AFNE15.jpg,AFSA10.jpg,AFSA10.jpg,FS,4,num_4,32,num_6,0.733472876251,,,2017_May_10_1409,59.9975946299,FEMA4ImagesEEG,001,200384,
AFNE01.JPG,AFNE01.JPG,AFNE01.JPG,AFNE01.JPG,AFNE01.JPG,AFNE01.JPG,,,,,,,,,1,6,16,1,,,,,,,,,,,,,,,AFNE10.jpg,AFSA18.jpg,AFNE14.jpg,AFSA04.jpg,AFSA18.jpg,FS,4,num_6,32,num_4,1.01674578758,,,2017_May_10_1409,59.9975946299,FEMA4ImagesEEG,001,200384,
AFNE01.JPG,AFNE01.JPG,AFNE01.JPG,AFNE01.JPG,AFNE01.JPG,AFNE01.JPG,,,,,,,,,1,7,17,2,,,,,,,,,,,,,,,AFSA10.jpg,AFNE06.jpg,AFNE14.jpg,AFSA18.jpg,AFNE06.jpg,FN,3,num_6,16,num_6,0.616766828345,,,2017_May_10_1409,59.9975946299,FEMA4ImagesEEG,001,200384,
AFNE01.JPG,AFNE01.JPG,AFNE01.JPG,AFNE01.JPG,AFNE01.JPG,AFNE01.JPG,,,,,,,,,1,8,18,0,,,,,,,,,,,,,,,AFNE18.jpg,AFSA11.jpg,AFSA08.jpg,AFNE04.jpg,AFNE18.jpg,FN,3,num_8,16,num_8,0.650076544378,,,2017_May_10_1409,59.9975946299,FEMA4ImagesEEG,001,200384,
AFNE01.JPG,AFNE01.JPG,AFNE01.JPG,AFNE01.JPG,AFNE01.JPG,AFNE01.JPG,,,,,,,,,1,9,19,6,,,,,,,,,,,,,,,AFNE08.jpg,AFSA08.jpg,AFSA13.jpg,AFNE20.jpg,AFNE08.jpg,FN,3,num_8,32,num_2,0.600071717054,,,2017_May_10_1409,59.9975946299,FEMA4ImagesEEG,001,200384,
AFNE01.JPG,AFNE01.JPG,AFNE01.JPG,AFNE01.JPG,AFNE01.JPG,AFNE01.JPG,,,,,,,,,2,0,20,4,,,,,,,,,,,,,,,AFNE10.jpg,AFNE18.jpg,AFSA17.jpg,AFSA07.jpg,AFNE18.jpg,FN,3,num_6,16,num_6,0.466798212612,,,2017_May_10_1409,59.9975946299,FEMA4ImagesEEG,001,200384,
AFNE01.JPG,AFNE01.JPG,AFNE01.JPG,AFNE01.JPG,AFNE01.JPG,AFNE01.JPG,,,,,,,,,2,1,21,1,,,,,,,,,,,,,,,AFNE16.jpg,AFSA16.jpg,AFNE20.jpg,AFSA11.jpg,AFNE16.jpg,FN,3,num_8,16,num_8,0.350137709174,,,2017_May_10_1409,59.9975946299,FEMA4ImagesEEG,001,200384,
AFNE01.JPG,AFNE01.JPG,AFNE01.JPG,AFNE01.JPG,AFNE01.JPG,AFNE01.JPG,,,,,,,,,2,2,22,6,,,,,,,,,,,,,,,AFSA13.jpg,AFSA08.jpg,AFNE07.jpg,AFNE15.jpg,AFSA08.jpg,FS,4,num_6,16,num_6,0.566764887655,,,2017_May_10_1409,59.9975946299,FEMA4ImagesEEG,001,200384,
AFNE01.JPG,AFNE01.JPG,AFNE01.JPG,AFNE01.JPG,AFNE01.JPG,AFNE01.JPG,,,,,,,,,2,3,23,2,,,,,,,,,,,,,,,AFNE05.jpg,AFSA08.jpg,AFSA01.jpg,AFNE19.jpg,AFNE05.jpg,FN,3,num_8,32,num_2,0.266777620884,,,2017_May_10_1409,59.9975946299,FEMA4ImagesEEG,001,200384,
AFNE01.JPG,AFNE01.JPG,AFNE01.JPG,AFNE01.JPG,AFNE01.JPG,AFNE01.JPG,,,,,,,,,2,4,24,9,,,,,,,,,,,,,,,AFNE03.jpg,AFSA11.jpg,AFSA05.jpg,AFNE13.jpg,AFSA05.jpg,FS,4,num_2,32,num_8,0.333533688216,,,2017_May_10_1409,59.9975946299,FEMA4ImagesEEG,001,200384,
AFNE01.JPG,AFNE01.JPG,AFNE01.JPG,AFNE01.JPG,AFNE01.JPG,AFNE01.JPG,,,,,,,,,2,5,25,7,,,,,,,,,,,,,,,AFSA09.jpg,AFNE19.jpg,AFSA12.jpg,AFNE17.jpg,AFNE19.jpg,FN,3,num_6,32,num_4,0.5835405041,,,2017_May_10_1409,59.9975946299,FEMA4ImagesEEG,001,200384,
AFNE01.JPG,AFNE01.JPG,AFNE01.JPG,AFNE01.JPG,AFNE01.JPG,AFNE01.JPG,,,,,,,,,2,6,26,8,,,,,,,,,,,,,,,AFNE11.jpg,AFNE02.jpg,AFSA08.jpg,AFSA17.jpg,AFSA17.jpg,FS,4,num_4,16,num_4,0.650156408316,,,2017_May_10_1409,59.9975946299,FEMA4ImagesEEG,001,200384,
AFNE01.JPG,AFNE01.JPG,AFNE01.JPG,AFNE01.JPG,AFNE01.JPG,AFNE01.JPG,,,,,,,,,2,7,27,3,,,,,,,,,,,,,,,AFSA19.jpg,AFNE10.jpg,AFNE12.jpg,AFSA15.jpg,AFSA19.jpg,FS,4,num_8,16,num_8,0.650138447061,,,2017_May_10_1409,59.9975946299,FEMA4ImagesEEG,001,200384,
AFNE01.JPG,AFNE01.JPG,AFNE01.JPG,AFNE01.JPG,AFNE01.JPG,AFNE01.JPG,,,,,,,,,2,8,28,5,,,,,,,,,,,,,,,AFSA10.jpg,AFSA20.jpg,AFNE01.jpg,AFNE06.jpg,AFSA10.jpg,FS,4,num_8,32,num_2,0.400171403075,,,2017_May_10_1409,59.9975946299,FEMA4ImagesEEG,001,200384,
AFNE01.JPG,AFNE01.JPG,AFNE01.JPG,AFNE01.JPG,AFNE01.JPG,AFNE01.JPG,,,,,,,,,2,9,29,0,,,,,,,,,,,,,,,AFSA04.jpg,AFSA01.jpg,AFNE05.jpg,AFNE17.jpg,AFSA04.jpg,FS,4,num_8,32,num_6,0.433460271219,,,2017_May_10_1409,59.9975946299,FEMA4ImagesEEG,001,200384,
AFNE01.JPG,AFNE01.JPG,AFNE01.JPG,AFNE01.JPG,AFNE01.JPG,AFNE01.JPG,,,,,,,,,3,0,30,7,,,,,,,,,,,,,,,AFNE19.jpg,AFNE12.jpg,AFSA13.jpg,AFSA14.jpg,AFNE19.jpg,FN,3,num_8,16,num_8,0.616798902163,,,2017_May_10_1409,59.9975946299,FEMA4ImagesEEG,001,200384,
AFNE01.JPG,AFNE01.JPG,AFNE01.JPG,AFNE01.JPG,AFNE01.JPG,AFNE01.JPG,,,,,,,,,3,1,31,8,,,,,,,,,,,,,,,AFSA20.jpg,AFNE05.jpg,AFNE18.jpg,AFSA01.jpg,AFNE18.jpg,FN,3,num_2,16,num_2,0.316685584839,,,2017_May_10_1409,59.9975946299,FEMA4ImagesEEG,001,200384,
AFNE01.JPG,AFNE01.JPG,AFNE01.JPG,AFNE01.JPG,AFNE01.JPG,AFNE01.JPG,,,,,,,,,3,2,32,3,,,,,,,,,,,,,,,AFNE05.jpg,AFNE04.jpg,AFSA06.jpg,AFSA11.jpg,AFNE05.jpg,FN,3,num_8,32,num_6,0.56696759467,,,2017_May_10_1409,59.9975946299,FEMA4ImagesEEG,001,200384,
AFNE01.JPG,AFNE01.JPG,AFNE01.JPG,AFNE01.JPG,AFNE01.JPG,AFNE01.JPG,,,,,,,,,3,3,33,2,,,,,,,,,,,,,,,AFNE14.jpg,AFSA17.jpg,AFSA10.jpg,AFNE17.jpg,AFSA17.jpg,FS,4,num_6,32,num_8,0.333478521323,,,2017_May_10_1409,59.9975946299,FEMA4ImagesEEG,001,200384,
AFNE01.JPG,AFNE01.JPG,AFNE01.JPG,AFNE01.JPG,AFNE01.JPG,AFNE01.JPG,,,,,,,,,3,4,34,6,,,,,,,,,,,,,,,AFNE08.jpg,AFSA05.jpg,AFNE01.jpg,AFSA01.jpg,AFNE08.jpg,FN,3,num_8,32,num_6,0.683413202874,,,2017_May_10_1409,59.9975946299,FEMA4ImagesEEG,001,200384,
AFNE01.JPG,AFNE01.JPG,AFNE01.JPG,AFNE01.JPG,AFNE01.JPG,AFNE01.JPG,,,,,,,,,3,5,35,9,,,,,,,,,,,,,,,AFSA14.jpg,AFNE07.jpg,AFSA03.jpg,AFNE04.jpg,AFSA03.jpg,FS,4,num_2,16,num_2,0.433456101455,,,2017_May_10_1409,59.9975946299,FEMA4ImagesEEG,001,200384,
AFNE01.JPG,AFNE01.JPG,AFNE01.JPG,AFNE01.JPG,AFNE01.JPG,AFNE01.JPG,,,,,,,,,3,6,36,0,,,,,,,,,,,,,,,AFNE05.jpg,AFSA15.jpg,AFNE16.jpg,AFSA04.jpg,AFNE05.jpg,FN,3,num_8,32,num_4,0.533515149727,,,2017_May_10_1409,59.9975946299,FEMA4ImagesEEG,001,200384,
AFNE01.JPG,AFNE01.JPG,AFNE01.JPG,AFNE01.JPG,AFNE01.JPG,AFNE01.JPG,,,,,,,,,3,7,37,5,,,,,,,,,,,,,,,AFSA15.jpg,AFSA01.jpg,AFNE12.jpg,AFNE05.jpg,AFNE05.jpg,FN,3,num_4,32,num_8,0.300043075345,,,2017_May_10_1409,59.9975946299,FEMA4ImagesEEG,001,200384,
AFNE01.JPG,AFNE01.JPG,AFNE01.JPG,AFNE01.JPG,AFNE01.JPG,AFNE01.JPG,,,,,,,,,3,8,38,4,,,,,,,,,,,,,,,AFNE15.jpg,AFSA06.jpg,AFNE18.jpg,AFSA04.jpg,AFSA04.jpg,FS,4,num_4,32,num_2,0.300161748892,,,2017_May_10_1409,59.9975946299,FEMA4ImagesEEG,001,200384,
AFNE01.JPG,AFNE01.JPG,AFNE01.JPG,AFNE01.JPG,AFNE01.JPG,AFNE01.JPG,,,,,,,,,3,9,39,1,,,,,,,,,,,,,,,AFNE14.jpg,AFNE02.jpg,AFSA16.jpg,AFSA05.jpg,AFNE02.jpg,FN,3,num_6,16,num_6,0.383476933697,,,2017_May_10_1409,59.9975946299,FEMA4ImagesEEG,001,200384,
AFNE01.JPG,AFNE01.JPG,AFNE01.JPG,AFNE01.JPG,AFNE01.JPG,AFNE01.JPG,,,,,,,,,4,0,40,1,,,,,,,,,,,,,,,AFSA03.jpg,AFNE02.jpg,AFNE13.jpg,AFSA20.jpg,AFSA03.jpg,FS,4,num_8,16,num_8,0.366889911704,,,2017_May_10_1409,59.9975946299,FEMA4ImagesEEG,001,200384,
AFNE01.JPG,AFNE01.JPG,AFNE01.JPG,AFNE01.JPG,AFNE01.JPG,AFNE01.JPG,,,,,,,,,4,1,41,6,,,,,,,,,,,,,,,AFSA14.jpg,AFNE11.jpg,AFSA19.jpg,AFNE09.jpg,AFNE11.jpg,FN,3,num_6,16,num_6,0.616760413162,,,2017_May_10_1409,59.9975946299,FEMA4ImagesEEG,001,200384,
AFNE01.JPG,AFNE01.JPG,AFNE01.JPG,AFNE01.JPG,AFNE01.JPG,AFNE01.JPG,,,,,,,,,4,2,42,5,,,,,,,,,,,,,,,AFSA11.jpg,AFNE15.jpg,AFSA01.jpg,AFNE05.jpg,AFSA01.jpg,FS,4,num_2,32,num_8,0.500124607235,,,2017_May_10_1409,59.9975946299,FEMA4ImagesEEG,001,200384,
AFNE01.JPG,AFNE01.JPG,AFNE01.JPG,AFNE01.JPG,AFNE01.JPG,AFNE01.JPG,,,,,,,,,4,3,43,7,,,,,,,,,,,,,,,AFNE03.jpg,AFSA20.jpg,AFNE14.jpg,AFSA19.jpg,AFSA20.jpg,FS,4,num_6,32,num_4,0.816771382699,,,2017_May_10_1409,59.9975946299,FEMA4ImagesEEG,001,200384,
AFNE01.JPG,AFNE01.JPG,AFNE01.JPG,AFNE01.JPG,AFNE01.JPG,AFNE01.JPG,,,,,,,,,4,4,44,8,,,,,,,,,,,,,,,AFNE08.jpg,AFSA20.jpg,AFNE20.jpg,AFSA17.jpg,AFSA20.jpg,FS,4,num_6,32,num_2,0.666809181683,,,2017_May_10_1409,59.9975946299,FEMA4ImagesEEG,001,200384,
AFNE01.JPG,AFNE01.JPG,AFNE01.JPG,AFNE01.JPG,AFNE01.JPG,AFNE01.JPG,,,,,,,,,4,5,45,2,,,,,,,,,,,,,,,AFNE04.jpg,AFSA16.jpg,AFNE03.jpg,AFSA15.jpg,AFNE03.jpg,FN,3,num_2,32,num_6,0.616758488817,,,2017_May_10_1409,59.9975946299,FEMA4ImagesEEG,001,200384,
AFNE01.JPG,AFNE01.JPG,AFNE01.JPG,AFNE01.JPG,AFNE01.JPG,AFNE01.JPG,,,,,,,,,4,6,46,3,,,,,,,,,,,,,,,AFSA05.jpg,AFSA04.jpg,AFNE04.jpg,AFNE06.jpg,AFNE04.jpg,FN,3,num_2,32,num_8,0.300129674841,,,2017_May_10_1409,59.9975946299,FEMA4ImagesEEG,001,200384,
AFNE01.JPG,AFNE01.JPG,AFNE01.JPG,AFNE01.JPG,AFNE01.JPG,AFNE01.JPG,,,,,,,,,4,7,47,4,,,,,,,,,,,,,,,AFSA09.jpg,AFSA18.jpg,AFNE06.jpg,AFNE03.jpg,AFSA09.jpg,FS,4,num_8,16,num_8,0.48345515551,,,2017_May_10_1409,59.9975946299,FEMA4ImagesEEG,001,200384,
AFNE01.JPG,AFNE01.JPG,AFNE01.JPG,AFNE01.JPG,AFNE01.JPG,AFNE01.JPG,,,,,,,,,4,8,48,9,,,,,,,,,,,,,,,AFNE08.jpg,AFNE13.jpg,AFSA01.jpg,AFSA16.jpg,AFNE08.jpg,FN,3,num_8,16,num_8,0.650436413474,,,2017_May_10_1409,59.9975946299,FEMA4ImagesEEG,001,200384,
AFNE01.JPG,AFNE01.JPG,AFNE01.JPG,AFNE01.JPG,AFNE01.JPG,AFNE01.JPG,,,,,,,,,4,9,49,0,,,,,,,,,,,,,,,AFNE14.jpg,AFNE16.jpg,AFSA16.jpg,AFSA15.jpg,AFSA15.jpg,FS,4,num_4,32,num_6,0.700116973603,,,2017_May_10_1409,59.9975946299,FEMA4ImagesEEG,001,200384,
AFNE01.JPG,AFNE01.JPG,AFNE01.JPG,AFNE01.JPG,AFNE01.JPG,AFNE01.JPG,,,,,,,,,5,0,50,6,,,,,,,,,,,,,,,AFNE13.jpg,AFSA11.jpg,AFSA06.jpg,AFNE06.jpg,AFNE13.jpg,FN,3,num_8,32,num_2,0.966685793363,,,2017_May_10_1409,59.9975946299,FEMA4ImagesEEG,001,200384,
AFNE01.JPG,AFNE01.JPG,AFNE01.JPG,AFNE01.JPG,AFNE01.JPG,AFNE01.JPG,,,,,,,,,5,1,51,2,,,,,,,,,,,,,,,AFSA20.jpg,AFNE01.jpg,AFSA13.jpg,AFNE16.jpg,AFNE01.jpg,FN,3,num_6,32,num_8,0.283461506013,,,2017_May_10_1409,59.9975946299,FEMA4ImagesEEG,001,200384,
AFNE01.JPG,AFNE01.JPG,AFNE01.JPG,AFNE01.JPG,AFNE01.JPG,AFNE01.JPG,,,,,,,,,5,2,52,7,,,,,,,,,,,,,,,AFSA10.jpg,AFNE07.jpg,AFNE15.jpg,AFSA13.jpg,AFNE07.jpg,FN,3,num_6,32,num_4,0.58345069713,,,2017_May_10_1409,59.9975946299,FEMA4ImagesEEG,001,200384,
AFNE01.JPG,AFNE01.JPG,AFNE01.JPG,AFNE01.JPG,AFNE01.JPG,AFNE01.JPG,,,,,,,,,5,3,53,5,,,,,,,,,,,,,,,AFSA04.jpg,AFNE04.jpg,AFNE08.jpg,AFSA05.jpg,AFSA05.jpg,FS,4,num_4,32,num_6,0.916736454237,,,2017_May_10_1409,59.9975946299,FEMA4ImagesEEG,001,200384,
AFNE01.JPG,AFNE01.JPG,AFNE01.JPG,AFNE01.JPG,AFNE01.JPG,AFNE01.JPG,,,,,,,,,5,4,54,8,,,,,,,,,,,,,,,AFNE03.jpg,AFSA20.jpg,AFNE13.jpg,AFSA18.jpg,AFNE03.jpg,FN,3,num_8,16,num_8,0.600114054978,,,2017_May_10_1409,59.9975946299,FEMA4ImagesEEG,001,200384,
AFNE01.JPG,AFNE01.JPG,AFNE01.JPG,AFNE01.JPG,AFNE01.JPG,AFNE01.JPG,,,,,,,,,5,5,55,4,,,,,,,,,,,,,,,AFSA04.jpg,AFSA19.jpg,AFNE11.jpg,AFNE12.jpg,AFNE12.jpg,FN,3,num_4,32,num_2,0.883496979717,,,2017_May_10_1409,59.9975946299,FEMA4ImagesEEG,001,200384,
AFNE01.JPG,AFNE01.JPG,AFNE01.JPG,AFNE01.JPG,AFNE01.JPG,AFNE01.JPG,,,,,,,,,5,6,56,9,,,,,,,,,,,,,,,AFNE07.jpg,AFSA13.jpg,AFSA12.jpg,AFNE08.jpg,AFNE08.jpg,FN,3,num_4,32,num_6,0.66682072822,,,2017_May_10_1409,59.9975946299,FEMA4ImagesEEG,001,200384,
AFNE01.JPG,AFNE01.JPG,AFNE01.JPG,AFNE01.JPG,AFNE01.JPG,AFNE01.JPG,,,,,,,,,5,7,57,1,,,,,,,,,,,,,,,AFSA11.jpg,AFNE07.jpg,AFNE01.jpg,AFSA06.jpg,AFNE01.jpg,FN,3,num_2,32,num_4,0.999793123221,,,2017_May_10_1409,59.9975946299,FEMA4ImagesEEG,001,200384,
AFNE01.JPG,AFNE01.JPG,AFNE01.JPG,AFNE01.JPG,AFNE01.JPG,AFNE01.JPG,,,,,,,,,5,8,58,0,,,,,,,,,,,,,,,AFNE04.jpg,AFNE17.jpg,AFSA16.jpg,AFSA13.jpg,AFNE17.jpg,FN,3,num_6,32,num_8,0.233517619316,,,2017_May_10_1409,59.9975946299,FEMA4ImagesEEG,001,200384,
AFNE01.JPG,AFNE01.JPG,AFNE01.JPG,AFNE01.JPG,AFNE01.JPG,AFNE01.JPG,,,,,,,,,5,9,59,3,,,,,,,,,,,,,,,AFSA19.jpg,AFNE05.jpg,AFSA10.jpg,AFNE01.jpg,AFNE05.jpg,FN,3,num_6,32,num_2,0.500091250287,,,2017_May_10_1409,59.9975946299,FEMA4ImagesEEG,001,200384,
,,,,,,,,,,,,,,,,,,,,,,,,,,,,,,,,,,,,,,,,,,,space,2.30003730184,2017_May_10_1409,59.9975946299,FEMA4ImagesEEG,001,200384,
AFNE01.JPG,AFNE01.JPG,AFNE01.JPG,AFNE01.JPG,AFNE01.JPG,AFNE01.JPG,,,,,,,,,,,,,0,0,0,6,,,,,,,,,,,AMNE02.jpg,AMSA13.jpg,AMSA12.jpg,AMNE12.jpg,AMNE02.jpg,MN,1,num_8,16,num_8,0.366909476928,,,2017_May_10_1409,59.9975946299,FEMA4ImagesEEG,001,200384,
AFNE01.JPG,AFNE01.JPG,AFNE01.JPG,AFNE01.JPG,AFNE01.JPG,AFNE01.JPG,,,,,,,,,,,,,0,1,1,3,,,,,,,,,,,AMNE14.jpg,AMNE13.jpg,AMSA11.jpg,AMSA01.jpg,AMSA01.jpg,MS,2,num_4,32,num_6,0.233490035869,,,2017_May_10_1409,59.9975946299,FEMA4ImagesEEG,001,200384,
AFNE01.JPG,AFNE01.JPG,AFNE01.JPG,AFNE01.JPG,AFNE01.JPG,AFNE01.JPG,,,,,,,,,,,,,0,2,2,2,,,,,,,,,,,AMSA12.jpg,AMNE15.jpg,AMNE16.jpg,AMSA11.jpg,AMSA12.jpg,MS,2,num_8,32,num_4,0.433476628968,,,2017_May_10_1409,59.9975946299,FEMA4ImagesEEG,001,200384,
AFNE01.JPG,AFNE01.JPG,AFNE01.JPG,AFNE01.JPG,AFNE01.JPG,AFNE01.JPG,,,,,,,,,,,,,0,3,3,1,,,,,,,,,,,AMSA01.jpg,AMNE19.jpg,AMNE12.jpg,AMSA05.jpg,AMSA01.jpg,MS,2,num_8,16,num_8,0.316809390439,,,2017_May_10_1409,59.9975946299,FEMA4ImagesEEG,001,200384,
AFNE01.JPG,AFNE01.JPG,AFNE01.JPG,AFNE01.JPG,AFNE01.JPG,AFNE01.JPG,,,,,,,,,,,,,0,4,4,4,,,,,,,,,,,AMNE20.jpg,AMNE05.jpg,AMSA03.jpg,AMSA09.jpg,AMSA09.jpg,MS,2,num_4,32,num_6,0.450174947269,,,2017_May_10_1409,59.9975946299,FEMA4ImagesEEG,001,200384,
AFNE01.JPG,AFNE01.JPG,AFNE01.JPG,AFNE01.JPG,AFNE01.JPG,AFNE01.JPG,,,,,,,,,,,,,0,5,5,5,,,,,,,,,,,AMSA13.jpg,AMNE07.jpg,AMNE11.jpg,AMSA18.jpg,AMSA13.jpg,MS,2,num_8,32,num_2,0.766741858562,,,2017_May_10_1409,59.9975946299,FEMA4ImagesEEG,001,200384,
AFNE01.JPG,AFNE01.JPG,AFNE01.JPG,AFNE01.JPG,AFNE01.JPG,AFNE01.JPG,,,,,,,,,,,,,0,6,6,8,,,,,,,,,,,AMNE01.jpg,AMSA01.jpg,AMNE06.jpg,AMSA09.jpg,AMNE06.jpg,MN,1,num_2,32,num_4,0.500089967391,,,2017_May_10_1409,59.9975946299,FEMA4ImagesEEG,001,200384,
AFNE01.JPG,AFNE01.JPG,AFNE01.JPG,AFNE01.JPG,AFNE01.JPG,AFNE01.JPG,,,,,,,,,,,,,0,7,7,7,,,,,,,,,,,AMSA20.jpg,AMNE04.jpg,AMNE03.jpg,AMSA17.jpg,AMSA20.jpg,MS,2,num_8,32,num_2,0.316832162673,,,2017_May_10_1409,59.9975946299,FEMA4ImagesEEG,001,200384,
AFNE01.JPG,AFNE01.JPG,AFNE01.JPG,AFNE01.JPG,AFNE01.JPG,AFNE01.JPG,,,,,,,,,,,,,0,8,8,0,,,,,,,,,,,AMSA15.jpg,AMNE06.jpg,AMSA20.jpg,AMNE05.jpg,AMSA20.jpg,MS,2,num_2,16,num_2,0.833431532839,,,2017_May_10_1409,59.9975946299,FEMA4ImagesEEG,001,200384,
AFNE01.JPG,AFNE01.JPG,AFNE01.JPG,AFNE01.JPG,AFNE01.JPG,AFNE01.JPG,,,,,,,,,,,,,0,9,9,9,,,,,,,,,,,AMNE12.jpg,AMSA14.jpg,AMNE08.jpg,AMSA08.jpg,AMSA08.jpg,MS,2,num_4,32,num_8,0.61649804865,,,2017_May_10_1409,59.9975946299,FEMA4ImagesEEG,001,200384,
AFNE01.JPG,AFNE01.JPG,AFNE01.JPG,AFNE01.JPG,AFNE01.JPG,AFNE01.JPG,,,,,,,,,,,,,1,0,10,5,,,,,,,,,,,AMSA13.jpg,AMNE15.jpg,AMSA04.jpg,AMNE02.jpg,AMSA04.jpg,MS,2,num_2,32,num_4,0.383507724386,,,2017_May_10_1409,59.9975946299,FEMA4ImagesEEG,001,200384,
AFNE01.JPG,AFNE01.JPG,AFNE01.JPG,AFNE01.JPG,AFNE01.JPG,AFNE01.JPG,,,,,,,,,,,,,1,1,11,0,,,,,,,,,,,AMSA18.jpg,AMNE13.jpg,AMSA08.jpg,AMNE12.jpg,AMSA08.jpg,MS,2,num_2,32,num_8,0.450190663338,,,2017_May_10_1409,59.9975946299,FEMA4ImagesEEG,001,200384,
AFNE01.JPG,AFNE01.JPG,AFNE01.JPG,AFNE01.JPG,AFNE01.JPG,AFNE01.JPG,,,,,,,,,,,,,1,2,12,8,,,,,,,,,,,AMNE15.jpg,AMSA01.jpg,AMSA16.jpg,AMNE07.jpg,AMNE15.jpg,MN,1,num_8,32,num_2,0.850101626012,,,2017_May_10_1409,59.9975946299,FEMA4ImagesEEG,001,200384,
AFNE01.JPG,AFNE01.JPG,AFNE01.JPG,AFNE01.JPG,AFNE01.JPG,AFNE01.JPG,,,,,,,,,,,,,1,3,13,4,,,,,,,,,,,AMNE13.jpg,AMNE10.jpg,AMSA13.jpg,AMSA19.jpg,AMSA19.jpg,MS,2,num_4,32,num_8,0.31679688138,,,2017_May_10_1409,59.9975946299,FEMA4ImagesEEG,001,200384,
AFNE01.JPG,AFNE01.JPG,AFNE01.JPG,AFNE01.JPG,AFNE01.JPG,AFNE01.JPG,,,,,,,,,,,,,1,4,14,9,,,,,,,,,,,AMNE17.jpg,AMNE11.jpg,AMSA11.jpg,AMSA09.jpg,AMNE11.jpg,MN,1,num_6,16,num_6,0.350203140173,,,2017_May_10_1409,59.9975946299,FEMA4ImagesEEG,001,200384,
AFNE01.JPG,AFNE01.JPG,AFNE01.JPG,AFNE01.JPG,AFNE01.JPG,AFNE01.JPG,,,,,,,,,,,,,1,5,15,6,,,,,,,,,,,AMSA18.jpg,AMSA06.jpg,AMNE15.jpg,AMNE05.jpg,AMSA06.jpg,MS,2,num_6,32,num_2,0.383527931059,,,2017_May_10_1409,59.9975946299,FEMA4ImagesEEG,001,200384,
AFNE01.JPG,AFNE01.JPG,AFNE01.JPG,AFNE01.JPG,AFNE01.JPG,AFNE01.JPG,,,,,,,,,,,,,1,6,16,1,,,,,,,,,,,AMSA19.jpg,AMNE04.jpg,AMSA05.jpg,AMNE14.jpg,AMNE04.jpg,MN,1,num_6,16,num_6,0.433487534057,,,2017_May_10_1409,59.9975946299,FEMA4ImagesEEG,001,200384,
AFNE01.JPG,AFNE01.JPG,AFNE01.JPG,AFNE01.JPG,AFNE01.JPG,AFNE01.JPG,,,,,,,,,,,,,1,7,17,7,,,,,,,,,,,AMSA18.jpg,AMNE11.jpg,AMSA10.jpg,AMNE17.jpg,AMSA10.jpg,MS,2,num_2,32,num_8,0.533473132877,,,2017_May_10_1409,59.9975946299,FEMA4ImagesEEG,001,200384,
AFNE01.JPG,AFNE01.JPG,AFNE01.JPG,AFNE01.JPG,AFNE01.JPG,AFNE01.JPG,,,,,,,,,,,,,1,8,18,2,,,,,,,,,,,AMNE05.jpg,AMSA03.jpg,AMSA20.jpg,AMNE18.jpg,AMNE05.jpg,MN,1,num_8,32,num_4,0.533502640668,,,2017_May_10_1409,59.9975946299,FEMA4ImagesEEG,001,200384,
AFNE01.JPG,AFNE01.JPG,AFNE01.JPG,AFNE01.JPG,AFNE01.JPG,AFNE01.JPG,,,,,,,,,,,,,1,9,19,3,,,,,,,,,,,AMSA06.jpg,AMNE07.jpg,AMSA12.jpg,AMNE15.jpg,AMSA12.jpg,MS,2,num_2,32,num_8,0.466781854862,,,2017_May_10_1409,59.9975946299,FEMA4ImagesEEG,001,200384,
AFNE01.JPG,AFNE01.JPG,AFNE01.JPG,AFNE01.JPG,AFNE01.JPG,AFNE01.JPG,,,,,,,,,,,,,2,0,20,6,,,,,,,,,,,AMSA15.jpg,AMNE17.jpg,AMNE03.jpg,AMSA16.jpg,AMNE03.jpg,MN,1,num_2,16,num_2,0.383478858043,,,2017_May_10_1409,59.9975946299,FEMA4ImagesEEG,001,200384,
AFNE01.JPG,AFNE01.JPG,AFNE01.JPG,AFNE01.JPG,AFNE01.JPG,AFNE01.JPG,,,,,,,,,,,,,2,1,21,7,,,,,,,,,,,AMNE09.jpg,AMSA02.jpg,AMSA20.jpg,AMNE19.jpg,AMSA20.jpg,MS,2,num_2,32,num_6,0.383470839588,,,2017_May_10_1409,59.9975946299,FEMA4ImagesEEG,001,200384,
AFNE01.JPG,AFNE01.JPG,AFNE01.JPG,AFNE01.JPG,AFNE01.JPG,AFNE01.JPG,,,,,,,,,,,,,2,2,22,2,,,,,,,,,,,AMNE09.jpg,AMNE04.jpg,AMSA19.jpg,AMSA14.jpg,AMNE09.jpg,MN,1,num_8,16,num_8,0.366819669958,,,2017_May_10_1409,59.9975946299,FEMA4ImagesEEG,001,200384,
AFNE01.JPG,AFNE01.JPG,AFNE01.JPG,AFNE01.JPG,AFNE01.JPG,AFNE01.JPG,,,,,,,,,,,,,2,3,23,1,,,,,,,,,,,AMSA11.jpg,AMNE10.jpg,AMNE07.jpg,AMSA10.jpg,AMNE07.jpg,MN,1,num_2,32,num_6,0.416702616028,,,2017_May_10_1409,59.9975946299,FEMA4ImagesEEG,001,200384,
AFNE01.JPG,AFNE01.JPG,AFNE01.JPG,AFNE01.JPG,AFNE01.JPG,AFNE01.JPG,,,,,,,,,,,,,2,4,24,9,,,,,,,,,,,AMNE15.jpg,AMSA13.jpg,AMNE09.jpg,AMSA03.jpg,AMSA13.jpg,MS,2,num_6,32,num_8,0.350180046866,,,2017_May_10_1409,59.9975946299,FEMA4ImagesEEG,001,200384,
AFNE01.JPG,AFNE01.JPG,AFNE01.JPG,AFNE01.JPG,AFNE01.JPG,AFNE01.JPG,,,,,,,,,,,,,2,5,25,0,,,,,,,,,,,AMSA17.jpg,AMNE20.jpg,AMSA04.jpg,AMNE01.jpg,AMSA17.jpg,MS,2,num_8,32,num_2,0.383454802446,,,2017_May_10_1409,59.9975946299,FEMA4ImagesEEG,001,200384,
AFNE01.JPG,AFNE01.JPG,AFNE01.JPG,AFNE01.JPG,AFNE01.JPG,AFNE01.JPG,,,,,,,,,,,,,2,6,26,8,,,,,,,,,,,AMSA17.jpg,AMNE17.jpg,AMSA07.jpg,AMNE09.jpg,AMNE09.jpg,MN,1,num_4,16,num_4,0.516791172326,,,2017_May_10_1409,59.9975946299,FEMA4ImagesEEG,001,200384,
AFNE01.JPG,AFNE01.JPG,AFNE01.JPG,AFNE01.JPG,AFNE01.JPG,AFNE01.JPG,,,,,,,,,,,,,2,7,27,4,,,,,,,,,,,AMNE10.jpg,AMSA15.jpg,AMSA09.jpg,AMNE11.jpg,AMSA09.jpg,MS,2,num_2,32,num_6,0.916810865747,,,2017_May_10_1409,59.9975946299,FEMA4ImagesEEG,001,200384,
AFNE01.JPG,AFNE01.JPG,AFNE01.JPG,AFNE01.JPG,AFNE01.JPG,AFNE01.JPG,,,,,,,,,,,,,2,8,28,5,,,,,,,,,,,AMNE11.jpg,AMSA16.jpg,AMSA11.jpg,AMNE15.jpg,AMSA11.jpg,MS,2,num_2,32,num_6,0.75012500817,,,2017_May_10_1409,59.9975946299,FEMA4ImagesEEG,001,200384,
AFNE01.JPG,AFNE01.JPG,AFNE01.JPG,AFNE01.JPG,AFNE01.JPG,AFNE01.JPG,,,,,,,,,,,,,2,9,29,3,,,,,,,,,,,AMNE16.jpg,AMSA13.jpg,AMNE01.jpg,AMSA11.jpg,AMSA11.jpg,MS,2,num_4,32,num_8,0.78342157416,,,2017_May_10_1409,59.9975946299,FEMA4ImagesEEG,001,200384,
AFNE01.JPG,AFNE01.JPG,AFNE01.JPG,AFNE01.JPG,AFNE01.JPG,AFNE01.JPG,,,,,,,,,,,,,3,0,30,6,,,,,,,,,,,AMNE02.jpg,AMSA08.jpg,AMSA06.jpg,AMNE03.jpg,AMSA06.jpg,MS,2,num_2,16,num_2,0.366783105535,,,2017_May_10_1409,59.9975946299,FEMA4ImagesEEG,001,200384,
AFNE01.JPG,AFNE01.JPG,AFNE01.JPG,AFNE01.JPG,AFNE01.JPG,AFNE01.JPG,,,,,,,,,,,,,3,1,31,3,,,,,,,,,,,AMSA15.jpg,AMNE15.jpg,AMSA01.jpg,AMNE08.jpg,AMSA15.jpg,MS,2,num_8,32,num_6,0.45015730639,,,2017_May_10_1409,59.9975946299,FEMA4ImagesEEG,001,200384,
AFNE01.JPG,AFNE01.JPG,AFNE01.JPG,AFNE01.JPG,AFNE01.JPG,AFNE01.JPG,,,,,,,,,,,,,3,2,32,0,,,,,,,,,,,AMNE17.jpg,AMSA16.jpg,AMSA18.jpg,AMNE11.jpg,AMNE17.jpg,MN,1,num_8,32,num_6,0.616761054844,,,2017_May_10_1409,59.9975946299,FEMA4ImagesEEG,001,200384,
AFNE01.JPG,AFNE01.JPG,AFNE01.JPG,AFNE01.JPG,AFNE01.JPG,AFNE01.JPG,,,,,,,,,,,,,3,3,33,5,,,,,,,,,,,AMSA14.jpg,AMNE18.jpg,AMNE03.jpg,AMSA20.jpg,AMNE03.jpg,MN,1,num_2,32,num_6,0.533559090691,,,2017_May_10_1409,59.9975946299,FEMA4ImagesEEG,001,200384,
AFNE01.JPG,AFNE01.JPG,AFNE01.JPG,AFNE01.JPG,AFNE01.JPG,AFNE01.JPG,,,,,,,,,,,,,3,4,34,9,,,,,,,,,,,AMSA07.jpg,AMNE15.jpg,AMSA05.jpg,AMNE12.jpg,AMNE12.jpg,MN,1,num_4,32,num_8,0.666849274188,,,2017_May_10_1409,59.9975946299,FEMA4ImagesEEG,001,200384,
AFNE01.JPG,AFNE01.JPG,AFNE01.JPG,AFNE01.JPG,AFNE01.JPG,AFNE01.JPG,,,,,,,,,,,,,3,5,35,7,,,,,,,,,,,AMNE13.jpg,AMSA01.jpg,AMSA08.jpg,AMNE10.jpg,AMSA08.jpg,MS,2,num_2,16,num_2,0.75012372504,,,2017_May_10_1409,59.9975946299,FEMA4ImagesEEG,001,200384,
AFNE01.JPG,AFNE01.JPG,AFNE01.JPG,AFNE01.JPG,AFNE01.JPG,AFNE01.JPG,,,,,,,,,,,,,3,6,36,8,,,,,,,,,,,AMSA03.jpg,AMNE10.jpg,AMSA05.jpg,AMNE19.jpg,AMNE10.jpg,MN,1,num_6,16,num_6,0.633511653403,,,2017_May_10_1409,59.9975946299,FEMA4ImagesEEG,001,200384,
AFNE01.JPG,AFNE01.JPG,AFNE01.JPG,AFNE01.JPG,AFNE01.JPG,AFNE01.JPG,,,,,,,,,,,,,3,7,37,2,,,,,,,,,,,AMSA14.jpg,AMSA17.jpg,AMNE02.jpg,AMNE04.jpg,AMSA17.jpg,MS,2,num_6,16,num_6,0.533504565246,,,2017_May_10_1409,59.9975946299,FEMA4ImagesEEG,001,200384,
AFNE01.JPG,AFNE01.JPG,AFNE01.JPG,AFNE01.JPG,AFNE01.JPG,AFNE01.JPG,,,,,,,,,,,,,3,8,38,4,,,,,,,,,,,AMSA10.jpg,AMSA09.jpg,AMNE05.jpg,AMNE02.jpg,AMSA09.jpg,MS,2,num_6,32,num_2,0.333501614397,,,2017_May_10_1409,59.9975946299,FEMA4ImagesEEG,001,200384,
AFNE01.JPG,AFNE01.JPG,AFNE01.JPG,AFNE01.JPG,AFNE01.JPG,AFNE01.JPG,,,,,,,,,,,,,3,9,39,1,,,,,,,,,,,AMNE15.jpg,AMSA03.jpg,AMNE19.jpg,AMSA04.jpg,AMSA03.jpg,MS,2,num_6,32,num_4,0.650262893876,,,2017_May_10_1409,59.9975946299,FEMA4ImagesEEG,001,200384,
AFNE01.JPG,AFNE01.JPG,AFNE01.JPG,AFNE01.JPG,AFNE01.JPG,AFNE01.JPG,,,,,,,,,,,,,4,0,40,2,,,,,,,,,,,AMNE02.jpg,AMSA19.jpg,AMNE19.jpg,AMSA09.jpg,AMSA19.jpg,MS,2,num_6,32,num_8,0.650147106964,,,2017_May_10_1409,59.9975946299,FEMA4ImagesEEG,001,200384,
AFNE01.JPG,AFNE01.JPG,AFNE01.JPG,AFNE01.JPG,AFNE01.JPG,AFNE01.JPG,,,,,,,,,,,,,4,1,41,1,,,,,,,,,,,AMNE01.jpg,AMSA09.jpg,AMSA02.jpg,AMNE10.jpg,AMSA09.jpg,MS,2,num_6,16,num_6,0.466788911028,,,2017_May_10_1409,59.9975946299,FEMA4ImagesEEG,001,200384,
AFNE01.JPG,AFNE01.JPG,AFNE01.JPG,AFNE01.JPG,AFNE01.JPG,AFNE01.JPG,,,,,,,,,,,,,4,2,42,7,,,,,,,,,,,AMSA13.jpg,AMNE08.jpg,AMSA06.jpg,AMNE10.jpg,AMNE10.jpg,MN,1,num_4,16,num_4,0.733501421986,,,2017_May_10_1409,59.9975946299,FEMA4ImagesEEG,001,200384,
AFNE01.JPG,AFNE01.JPG,AFNE01.JPG,AFNE01.JPG,AFNE01.JPG,AFNE01.JPG,,,,,,,,,,,,,4,3,43,6,,,,,,,,,,,AMSA06.jpg,AMNE03.jpg,AMSA10.jpg,AMNE08.jpg,AMNE08.jpg,MN,1,num_4,32,num_2,0.500159888295,,,2017_May_10_1409,59.9975946299,FEMA4ImagesEEG,001,200384,
AFNE01.JPG,AFNE01.JPG,AFNE01.JPG,AFNE01.JPG,AFNE01.JPG,AFNE01.JPG,,,,,,,,,,,,,4,4,44,9,,,,,,,,,,,AMNE06.jpg,AMSA02.jpg,AMNE16.jpg,AMSA18.jpg,AMNE16.jpg,MN,1,num_2,16,num_2,0.716755634407,,,2017_May_10_1409,59.9975946299,FEMA4ImagesEEG,001,200384,
AFNE01.JPG,AFNE01.JPG,AFNE01.JPG,AFNE01.JPG,AFNE01.JPG,AFNE01.JPG,,,,,,,,,,,,,4,5,45,3,,,,,,,,,,,AMNE20.jpg,AMSA07.jpg,AMNE09.jpg,AMSA13.jpg,AMNE20.jpg,MN,1,num_8,32,num_4,0.883413266856,,,2017_May_10_1409,59.9975946299,FEMA4ImagesEEG,001,200384,
AFNE01.JPG,AFNE01.JPG,AFNE01.JPG,AFNE01.JPG,AFNE01.JPG,AFNE01.JPG,,,,,,,,,,,,,4,6,46,4,,,,,,,,,,,AMSA08.jpg,AMSA15.jpg,AMNE19.jpg,AMNE05.jpg,AMSA08.jpg,MS,2,num_8,16,num_8,0.350150218233,,,2017_May_10_1409,59.9975946299,FEMA4ImagesEEG,001,200384,
AFNE01.JPG,AFNE01.JPG,AFNE01.JPG,AFNE01.JPG,AFNE01.JPG,AFNE01.JPG,,,,,,,,,,,,,4,7,47,8,,,,,,,,,,,AMNE08.jpg,AMNE05.jpg,AMSA13.jpg,AMSA15.jpg,AMNE08.jpg,MN,1,num_8,32,num_6,0.316821899032,,,2017_May_10_1409,59.9975946299,FEMA4ImagesEEG,001,200384,
AFNE01.JPG,AFNE01.JPG,AFNE01.JPG,AFNE01.JPG,AFNE01.JPG,AFNE01.JPG,,,,,,,,,,,,,4,8,48,5,,,,,,,,,,,AMSA08.jpg,AMSA01.jpg,AMNE10.jpg,AMNE13.jpg,AMSA01.jpg,MS,2,num_6,32,num_4,0.466798212612,,,2017_May_10_1409,59.9975946299,FEMA4ImagesEEG,001,200384,
AFNE01.JPG,AFNE01.JPG,AFNE01.JPG,AFNE01.JPG,AFNE01.JPG,AFNE01.JPG,,,,,,,,,,,,,4,9,49,0,,,,,,,,,,,AMSA07.jpg,AMNE15.jpg,AMSA01.jpg,AMNE02.jpg,AMNE15.jpg,MN,1,num_6,32,num_8,0.633511974476,,,2017_May_10_1409,59.9975946299,FEMA4ImagesEEG,001,200384,
AFNE01.JPG,AFNE01.JPG,AFNE01.JPG,AFNE01.JPG,AFNE01.JPG,AFNE01.JPG,,,,,,,,,,,,,5,0,50,4,,,,,,,,,,,AMSA03.jpg,AMNE04.jpg,AMNE01.jpg,AMSA11.jpg,AMNE01.jpg,MN,1,num_2,16,num_2,1.03349093394,,,2017_May_10_1409,59.9975946299,FEMA4ImagesEEG,001,200384,
AFNE01.JPG,AFNE01.JPG,AFNE01.JPG,AFNE01.JPG,AFNE01.JPG,AFNE01.JPG,,,,,,,,,,,,,5,1,51,3,,,,,,,,,,,AMSA03.jpg,AMNE01.jpg,AMNE17.jpg,AMSA09.jpg,AMNE17.jpg,MN,1,num_2,32,num_6,0.65010637301,,,2017_May_10_1409,59.9975946299,FEMA4ImagesEEG,001,200384,
AFNE01.JPG,AFNE01.JPG,AFNE01.JPG,AFNE01.JPG,AFNE01.JPG,AFNE01.JPG,,,,,,,,,,,,,5,2,52,6,,,,,,,,,,,AMSA20.jpg,AMNE16.jpg,AMNE17.jpg,AMSA10.jpg,AMSA10.jpg,MS,2,num_4,16,num_4,0.500001122709,,,2017_May_10_1409,59.9975946299,FEMA4ImagesEEG,001,200384,
AFNE01.JPG,AFNE01.JPG,AFNE01.JPG,AFNE01.JPG,AFNE01.JPG,AFNE01.JPG,,,,,,,,,,,,,5,3,53,5,,,,,,,,,,,AMSA11.jpg,AMSA15.jpg,AMNE08.jpg,AMNE16.jpg,AMSA15.jpg,MS,2,num_6,16,num_6,0.783403291833,,,2017_May_10_1409,59.9975946299,FEMA4ImagesEEG,001,200384,
AFNE01.JPG,AFNE01.JPG,AFNE01.JPG,AFNE01.JPG,AFNE01.JPG,AFNE01.JPG,,,,,,,,,,,,,5,4,54,7,,,,,,,,,,,AMNE08.jpg,AMNE17.jpg,AMSA10.jpg,AMSA20.jpg,AMNE08.jpg,MN,1,num_8,32,num_2,1.16661112546,,,2017_May_10_1409,59.9975946299,FEMA4ImagesEEG,001,200384,
AFNE01.JPG,AFNE01.JPG,AFNE01.JPG,AFNE01.JPG,AFNE01.JPG,AFNE01.JPG,,,,,,,,,,,,,5,5,55,1,,,,,,,,,,,AMNE17.jpg,AMSA03.jpg,AMNE07.jpg,AMSA06.jpg,AMNE17.jpg,MN,1,num_8,16,num_8,0.700108634308,,,2017_May_10_1409,59.9975946299,FEMA4ImagesEEG,001,200384,
AFNE01.JPG,AFNE01.JPG,AFNE01.JPG,AFNE01.JPG,AFNE01.JPG,AFNE01.JPG,,,,,,,,,,,,,5,6,56,0,,,,,,,,,,,AMNE08.jpg,AMSA19.jpg,AMNE05.jpg,AMSA10.jpg,AMSA10.jpg,MS,2,num_4,32,num_6,0.583499128697,,,2017_May_10_1409,59.9975946299,FEMA4ImagesEEG,001,200384,
AFNE01.JPG,AFNE01.JPG,AFNE01.JPG,AFNE01.JPG,AFNE01.JPG,AFNE01.JPG,,,,,,,,,,,,,5,7,57,2,,,,,,,,,,,AMSA16.jpg,AMSA06.jpg,AMNE20.jpg,AMNE17.jpg,AMSA06.jpg,MS,2,num_6,32,num_8,0.716791557148,,,2017_May_10_1409,59.9975946299,FEMA4ImagesEEG,001,200384,
AFNE01.JPG,AFNE01.JPG,AFNE01.JPG,AFNE01.JPG,AFNE01.JPG,AFNE01.JPG,,,,,,,,,,,,,5,8,58,8,,,,,,,,,,,AMSA20.jpg,AMNE07.jpg,AMSA15.jpg,AMNE11.jpg,AMNE11.jpg,MN,1,num_4,32,num_6,0.866741249105,,,2017_May_10_1409,59.9975946299,FEMA4ImagesEEG,001,200384,
AFNE01.JPG,AFNE01.JPG,AFNE01.JPG,AFNE01.JPG,AFNE01.JPG,AFNE01.JPG,,,,,,,,,,,,,5,9,59,9,,,,,,,,,,,AMNE19.jpg,AMNE04.jpg,AMSA16.jpg,AMSA03.jpg,AMSA16.jpg,MS,2,num_2,32,num_4,0.283479146659,,,2017_May_10_1409,59.9975946299,FEMA4ImagesEEG,001,200384,
,,,,,,,,,,,,,,,,,,,,,,,,,,,,,,,,,,,,,,,,,,,space,17.5991239334,2017_May_10_1409,59.9975946299,FEMA4ImagesEEG,001,200384,
AFNE01.JPG,AFNE01.JPG,AFNE01.JPG,AFNE01.JPG,AFNE01.JPG,AFNE01.JPG,,,,,,,,,,,,,,,,,0,0,0,4,,,,,,,AFNE04.jpg,AFNE14.jpg,AFSA07.jpg,AFSA14.jpg,AFSA07.jpg,FS,4,num_2,32,num_6,0.383475650568,,,2017_May_10_1409,59.9975946299,FEMA4ImagesEEG,001,200384,
AFNE01.JPG,AFNE01.JPG,AFNE01.JPG,AFNE01.JPG,AFNE01.JPG,AFNE01.JPG,,,,,,,,,,,,,,,,,0,1,1,1,,,,,,,AFSA11.jpg,AFNE14.jpg,AFNE04.jpg,AFSA17.jpg,AFSA17.jpg,FS,4,num_4,32,num_8,0.416647449136,,,2017_May_10_1409,59.9975946299,FEMA4ImagesEEG,001,200384,
AFNE01.JPG,AFNE01.JPG,AFNE01.JPG,AFNE01.JPG,AFNE01.JPG,AFNE01.JPG,,,,,,,,,,,,,,,,,0,2,2,9,,,,,,,AFSA18.jpg,AFSA05.jpg,AFNE09.jpg,AFNE12.jpg,AFNE09.jpg,FN,3,num_2,32,num_4,0.350163368275,,,2017_May_10_1409,59.9975946299,FEMA4ImagesEEG,001,200384,
AFNE01.JPG,AFNE01.JPG,AFNE01.JPG,AFNE01.JPG,AFNE01.JPG,AFNE01.JPG,,,,,,,,,,,,,,,,,0,3,3,5,,,,,,,AFNE03.jpg,AFNE13.jpg,AFSA12.jpg,AFSA10.jpg,AFNE03.jpg,FN,3,num_8,32,num_6,0.366777653107,,,2017_May_10_1409,59.9975946299,FEMA4ImagesEEG,001,200384,
AFNE01.JPG,AFNE01.JPG,AFNE01.JPG,AFNE01.JPG,AFNE01.JPG,AFNE01.JPG,,,,,,,,,,,,,,,,,0,4,4,2,,,,,,,AFSA13.jpg,AFSA14.jpg,AFNE19.jpg,AFNE03.jpg,AFNE19.jpg,FN,3,num_2,16,num_2,1.45005499059,,,2017_May_10_1409,59.9975946299,FEMA4ImagesEEG,001,200384,
AFNE01.JPG,AFNE01.JPG,AFNE01.JPG,AFNE01.JPG,AFNE01.JPG,AFNE01.JPG,,,,,,,,,,,,,,,,,0,5,5,0,,,,,,,AFNE12.jpg,AFNE04.jpg,AFSA17.jpg,AFSA13.jpg,AFNE12.jpg,FN,3,num_8,32,num_6,0.46679853322,,,2017_May_10_1409,59.9975946299,FEMA4ImagesEEG,001,200384,
AFNE01.JPG,AFNE01.JPG,AFNE01.JPG,AFNE01.JPG,AFNE01.JPG,AFNE01.JPG,,,,,,,,,,,,,,,,,0,6,6,7,,,,,,,AFSA03.jpg,AFNE11.jpg,AFSA12.jpg,AFNE16.jpg,AFSA03.jpg,FS,4,num_8,16,num_8,0.316819974687,,,2017_May_10_1409,59.9975946299,FEMA4ImagesEEG,001,200384,
AFNE01.JPG,AFNE01.JPG,AFNE01.JPG,AFNE01.JPG,AFNE01.JPG,AFNE01.JPG,,,,,,,,,,,,,,,,,0,7,7,6,,,,,,,AFSA06.jpg,AFNE02.jpg,AFNE01.jpg,AFSA19.jpg,AFSA06.jpg,FS,4,num_8,32,num_4,0.283524050144,,,2017_May_10_1409,59.9975946299,FEMA4ImagesEEG,001,200384,
AFNE01.JPG,AFNE01.JPG,AFNE01.JPG,AFNE01.JPG,AFNE01.JPG,AFNE01.JPG,,,,,,,,,,,,,,,,,0,8,8,8,,,,,,,AFNE11.jpg,AFNE14.jpg,AFSA04.jpg,AFSA14.jpg,AFSA04.jpg,FS,4,num_2,16,num_2,0.383517346578,,,2017_May_10_1409,59.9975946299,FEMA4ImagesEEG,001,200384,
AFNE01.JPG,AFNE01.JPG,AFNE01.JPG,AFNE01.JPG,AFNE01.JPG,AFNE01.JPG,,,,,,,,,,,,,,,,,0,9,9,3,,,,,,,AFNE02.jpg,AFNE15.jpg,AFSA03.jpg,AFSA14.jpg,AFNE02.jpg,FN,3,num_8,32,num_4,0.533491735812,,,2017_May_10_1409,59.9975946299,FEMA4ImagesEEG,001,200384,
AFNE01.JPG,AFNE01.JPG,AFNE01.JPG,AFNE01.JPG,AFNE01.JPG,AFNE01.JPG,,,,,,,,,,,,,,,,,1,0,10,1,,,,,,,AFSA11.jpg,AFSA07.jpg,AFNE18.jpg,AFNE19.jpg,AFNE19.jpg,FN,3,num_4,32,num_8,0.550139377126,,,2017_May_10_1409,59.9975946299,FEMA4ImagesEEG,001,200384,
AFNE01.JPG,AFNE01.JPG,AFNE01.JPG,AFNE01.JPG,AFNE01.JPG,AFNE01.JPG,,,,,,,,,,,,,,,,,1,1,11,2,,,,,,,AFNE05.jpg,AFSA20.jpg,AFNE03.jpg,AFSA14.jpg,AFNE03.jpg,FN,3,num_2,32,num_6,0.650124655338,,,2017_May_10_1409,59.9975946299,FEMA4ImagesEEG,001,200384,
AFNE01.JPG,AFNE01.JPG,AFNE01.JPG,AFNE01.JPG,AFNE01.JPG,AFNE01.JPG,,,,,,,,,,,,,,,,,1,2,12,3,,,,,,,AFNE09.jpg,AFSA15.jpg,AFSA20.jpg,AFNE03.jpg,AFSA15.jpg,FS,4,num_6,32,num_8,0.383534987224,,,2017_May_10_1409,59.9975946299,FEMA4ImagesEEG,001,200384,
AFNE01.JPG,AFNE01.JPG,AFNE01.JPG,AFNE01.JPG,AFNE01.JPG,AFNE01.JPG,,,,,,,,,,,,,,,,,1,3,13,4,,,,,,,AFSA15.jpg,AFNE11.jpg,AFSA13.jpg,AFNE09.jpg,AFNE11.jpg,FN,3,num_6,32,num_2,0.300123259891,,,2017_May_10_1409,59.9975946299,FEMA4ImagesEEG,001,200384,
AFNE01.JPG,AFNE01.JPG,AFNE01.JPG,AFNE01.JPG,AFNE01.JPG,AFNE01.JPG,,,,,,,,,,,,,,,,,1,4,14,7,,,,,,,AFNE16.jpg,AFNE09.jpg,AFSA15.jpg,AFSA19.jpg,AFNE16.jpg,FN,3,num_8,32,num_4,0.533474094933,,,2017_May_10_1409,59.9975946299,FEMA4ImagesEEG,001,200384,
AFNE01.JPG,AFNE01.JPG,AFNE01.JPG,AFNE01.JPG,AFNE01.JPG,AFNE01.JPG,,,,,,,,,,,,,,,,,1,5,15,5,,,,,,,AFSA15.jpg,AFNE08.jpg,AFSA11.jpg,AFNE03.jpg,AFNE08.jpg,FN,3,num_6,16,num_6,0.666642076802,,,2017_May_10_1409,59.9975946299,FEMA4ImagesEEG,001,200384,
AFNE01.JPG,AFNE01.JPG,AFNE01.JPG,AFNE01.JPG,AFNE01.JPG,AFNE01.JPG,,,,,,,,,,,,,,,,,1,6,16,8,,,,,,,AFSA14.jpg,AFNE12.jpg,AFNE10.jpg,AFSA10.jpg,AFNE10.jpg,FN,3,num_2,32,num_4,0.483326538932,,,2017_May_10_1409,59.9975946299,FEMA4ImagesEEG,001,200384,
AFNE01.JPG,AFNE01.JPG,AFNE01.JPG,AFNE01.JPG,AFNE01.JPG,AFNE01.JPG,,,,,,,,,,,,,,,,,1,7,17,9,,,,,,,AFNE05.jpg,AFSA18.jpg,AFNE13.jpg,AFSA03.jpg,AFSA18.jpg,FS,4,num_6,16,num_6,0.46681360784,,,2017_May_10_1409,59.9975946299,FEMA4ImagesEEG,001,200384,
AFNE01.JPG,AFNE01.JPG,AFNE01.JPG,AFNE01.JPG,AFNE01.JPG,AFNE01.JPG,,,,,,,,,,,,,,,,,1,8,18,0,,,,,,,AFNE17.jpg,AFNE07.jpg,AFSA11.jpg,AFSA12.jpg,AFNE07.jpg,FN,3,num_6,32,num_8,0.433483043686,,,2017_May_10_1409,59.9975946299,FEMA4ImagesEEG,001,200384,
AFNE01.JPG,AFNE01.JPG,AFNE01.JPG,AFNE01.JPG,AFNE01.JPG,AFNE01.JPG,,,,,,,,,,,,,,,,,1,9,19,6,,,,,,,AFNE15.jpg,AFNE07.jpg,AFSA08.jpg,AFSA17.jpg,AFSA08.jpg,FS,4,num_2,32,num_4,0.366825443227,,,2017_May_10_1409,59.9975946299,FEMA4ImagesEEG,001,200384,
AFNE01.JPG,AFNE01.JPG,AFNE01.JPG,AFNE01.JPG,AFNE01.JPG,AFNE01.JPG,,,,,,,,,,,,,,,,,2,0,20,4,,,,,,,AFNE10.jpg,AFSA17.jpg,AFNE09.jpg,AFSA20.jpg,AFSA20.jpg,FS,4,num_4,32,num_6,0.433331334032,,,2017_May_10_1409,59.9975946299,FEMA4ImagesEEG,001,200384,
AFNE01.JPG,AFNE01.JPG,AFNE01.JPG,AFNE01.JPG,AFNE01.JPG,AFNE01.JPG,,,,,,,,,,,,,,,,,2,1,21,0,,,,,,,AFNE05.jpg,AFSA11.jpg,AFNE18.jpg,AFSA09.jpg,AFNE05.jpg,FN,3,num_8,16,num_8,0.666849274188,,,2017_May_10_1409,59.9975946299,FEMA4ImagesEEG,001,200384,
AFNE01.JPG,AFNE01.JPG,AFNE01.JPG,AFNE01.JPG,AFNE01.JPG,AFNE01.JPG,,,,,,,,,,,,,,,,,2,2,22,6,,,,,,,AFSA02.jpg,AFSA13.jpg,AFNE11.jpg,AFNE20.jpg,AFSA13.jpg,FS,4,num_6,32,num_4,0.550168885151,,,2017_May_10_1409,59.9975946299,FEMA4ImagesEEG,001,200384,
AFNE01.JPG,AFNE01.JPG,AFNE01.JPG,AFNE01.JPG,AFNE01.JPG,AFNE01.JPG,,,,,,,,,,,,,,,,,2,3,23,7,,,,,,,AFSA12.jpg,AFNE19.jpg,AFSA15.jpg,AFNE09.jpg,AFNE09.jpg,FN,3,num_4,16,num_4,0.566732813837,,,2017_May_10_1409,59.9975946299,FEMA4ImagesEEG,001,200384,
AFNE01.JPG,AFNE01.JPG,AFNE01.JPG,AFNE01.JPG,AFNE01.JPG,AFNE01.JPG,,,,,,,,,,,,,,,,,2,4,24,1,,,,,,,AFNE20.jpg,AFSA18.jpg,AFNE16.jpg,AFSA09.jpg,AFNE16.jpg,FN,3,num_2,32,num_8,0.350160481874,,,2017_May_10_1409,59.9975946299,FEMA4ImagesEEG,001,200384,
AFNE01.JPG,AFNE01.JPG,AFNE01.JPG,AFNE01.JPG,AFNE01.JPG,AFNE01.JPG,,,,,,,,,,,,,,,,,2,5,25,9,,,,,,,AFSA20.jpg,AFSA02.jpg,AFNE08.jpg,AFNE04.jpg,AFNE08.jpg,FN,3,num_2,32,num_6,0.233500940958,,,2017_May_10_1409,59.9975946299,FEMA4ImagesEEG,001,200384,
AFNE01.JPG,AFNE01.JPG,AFNE01.JPG,AFNE01.JPG,AFNE01.JPG,AFNE01.JPG,,,,,,,,,,,,,,,,,2,6,26,2,,,,,,,AFSA04.jpg,AFNE15.jpg,AFNE04.jpg,AFSA13.jpg,AFNE15.jpg,FN,3,num_6,32,num_4,0.316797523061,,,2017_May_10_1409,59.9975946299,FEMA4ImagesEEG,001,200384,
AFNE01.JPG,AFNE01.JPG,AFNE01.JPG,AFNE01.JPG,AFNE01.JPG,AFNE01.JPG,,,,,,,,,,,,,,,,,2,7,27,5,,,,,,,AFNE04.jpg,AFSA05.jpg,AFNE06.jpg,AFSA11.jpg,AFSA05.jpg,FS,4,num_6,32,num_8,0.416667655576,,,2017_May_10_1409,59.9975946299,FEMA4ImagesEEG,001,200384,
AFNE01.JPG,AFNE01.JPG,AFNE01.JPG,AFNE01.JPG,AFNE01.JPG,AFNE01.JPG,,,,,,,,,,,,,,,,,2,8,28,3,,,,,,,AFSA12.jpg,AFNE14.jpg,AFSA06.jpg,AFNE06.jpg,AFSA12.jpg,FS,4,num_8,32,num_2,0.366816141875,,,2017_May_10_1409,59.9975946299,FEMA4ImagesEEG,001,200384,
AFNE01.JPG,AFNE01.JPG,AFNE01.JPG,AFNE01.JPG,AFNE01.JPG,AFNE01.JPG,,,,,,,,,,,,,,,,,2,9,29,8,,,,,,,AFSA10.jpg,AFNE01.jpg,AFNE10.jpg,AFSA05.jpg,AFSA05.jpg,FS,4,num_4,16,num_4,0.500118833734,,,2017_May_10_1409,59.9975946299,FEMA4ImagesEEG,001,200384,
AFNE01.JPG,AFNE01.JPG,AFNE01.JPG,AFNE01.JPG,AFNE01.JPG,AFNE01.JPG,,,,,,,,,,,,,,,,,3,0,30,4,,,,,,,AFNE18.jpg,AFNE20.jpg,AFSA17.jpg,AFSA01.jpg,AFSA01.jpg,FS,4,num_4,32,num_6,0.366752314614,,,2017_May_10_1409,59.9975946299,FEMA4ImagesEEG,001,200384,
AFNE01.JPG,AFNE01.JPG,AFNE01.JPG,AFNE01.JPG,AFNE01.JPG,AFNE01.JPG,,,,,,,,,,,,,,,,,3,1,31,0,,,,,,,AFSA10.jpg,AFNE17.jpg,AFNE06.jpg,AFSA19.jpg,AFSA10.jpg,FS,4,num_8,16,num_8,0.450171098346,,,2017_May_10_1409,59.9975946299,FEMA4ImagesEEG,001,200384,
AFNE01.JPG,AFNE01.JPG,AFNE01.JPG,AFNE01.JPG,AFNE01.JPG,AFNE01.JPG,,,,,,,,,,,,,,,,,3,2,32,9,,,,,,,AFNE20.jpg,AFNE10.jpg,AFSA07.jpg,AFSA13.jpg,AFNE20.jpg,FN,3,num_8,16,num_8,0.316849482711,,,2017_May_10_1409,59.9975946299,FEMA4ImagesEEG,001,200384,
AFNE01.JPG,AFNE01.JPG,AFNE01.JPG,AFNE01.JPG,AFNE01.JPG,AFNE01.JPG,,,,,,,,,,,,,,,,,3,3,33,3,,,,,,,AFSA13.jpg,AFNE15.jpg,AFSA12.jpg,AFNE17.jpg,AFSA12.jpg,FS,4,num_2,16,num_2,0.566842827247,,,2017_May_10_1409,59.9975946299,FEMA4ImagesEEG,001,200384,
AFNE01.JPG,AFNE01.JPG,AFNE01.JPG,AFNE01.JPG,AFNE01.JPG,AFNE01.JPG,,,,,,,,,,,,,,,,,3,4,34,7,,,,,,,AFNE11.jpg,AFSA08.jpg,AFSA07.jpg,AFNE07.jpg,AFNE07.jpg,FN,3,num_4,16,num_4,1.05017898837,,,2017_May_10_1409,59.9975946299,FEMA4ImagesEEG,001,200384,
AFNE01.JPG,AFNE01.JPG,AFNE01.JPG,AFNE01.JPG,AFNE01.JPG,AFNE01.JPG,,,,,,,,,,,,,,,,,3,5,35,8,,,,,,,AFSA19.jpg,AFSA13.jpg,AFNE11.jpg,AFNE01.jpg,AFSA19.jpg,FS,4,num_8,16,num_8,0.616774525959,,,2017_May_10_1409,59.9975946299,FEMA4ImagesEEG,001,200384,
AFNE01.JPG,AFNE01.JPG,AFNE01.JPG,AFNE01.JPG,AFNE01.JPG,AFNE01.JPG,,,,,,,,,,,,,,,,,3,6,36,2,,,,,,,AFNE14.jpg,AFNE05.jpg,AFSA19.jpg,AFSA05.jpg,AFSA19.jpg,FS,4,num_2,32,num_8,0.966737432405,,,2017_May_10_1409,59.9975946299,FEMA4ImagesEEG,001,200384,
AFNE01.JPG,AFNE01.JPG,AFNE01.JPG,AFNE01.JPG,AFNE01.JPG,AFNE01.JPG,,,,,,,,,,,,,,,,,3,7,37,1,,,,,,,AFSA11.jpg,AFNE16.jpg,AFNE15.jpg,AFSA18.jpg,AFNE15.jpg,FN,3,num_2,16,num_2,0.466766459402,,,2017_May_10_1409,59.9975946299,FEMA4ImagesEEG,001,200384,
AFNE01.JPG,AFNE01.JPG,AFNE01.JPG,AFNE01.JPG,AFNE01.JPG,AFNE01.JPG,,,,,,,,,,,,,,,,,3,8,38,6,,,,,,,AFSA18.jpg,AFNE06.jpg,AFSA05.jpg,AFNE09.jpg,AFSA18.jpg,FS,4,num_8,32,num_4,0.316805220675,,,2017_May_10_1409,59.9975946299,FEMA4ImagesEEG,001,200384,
AFNE01.JPG,AFNE01.JPG,AFNE01.JPG,AFNE01.JPG,AFNE01.JPG,AFNE01.JPG,,,,,,,,,,,,,,,,,3,9,39,5,,,,,,,AFNE15.jpg,AFSA18.jpg,AFSA06.jpg,AFNE08.jpg,AFNE08.jpg,FN,3,num_4,32,num_2,0.450119459303,,,2017_May_10_1409,59.9975946299,FEMA4ImagesEEG,001,200384,
AFNE01.JPG,AFNE01.JPG,AFNE01.JPG,AFNE01.JPG,AFNE01.JPG,AFNE01.JPG,,,,,,,,,,,,,,,,,4,0,40,2,,,,,,,AFSA16.jpg,AFNE10.jpg,AFSA20.jpg,AFNE17.jpg,AFNE17.jpg,FN,3,num_4,16,num_4,0.633490484906,,,2017_May_10_1409,59.9975946299,FEMA4ImagesEEG,001,200384,
AFNE01.JPG,AFNE01.JPG,AFNE01.JPG,AFNE01.JPG,AFNE01.JPG,AFNE01.JPG,,,,,,,,,,,,,,,,,4,1,41,7,,,,,,,AFNE20.jpg,AFSA10.jpg,AFSA03.jpg,AFNE17.jpg,AFNE20.jpg,FN,3,num_8,16,num_8,0.633464504732,,,2017_May_10_1409,59.9975946299,FEMA4ImagesEEG,001,200384,
AFNE01.JPG,AFNE01.JPG,AFNE01.JPG,AFNE01.JPG,AFNE01.JPG,AFNE01.JPG,,,,,,,,,,,,,,,,,4,2,42,6,,,,,,,AFNE11.jpg,AFNE19.jpg,AFSA20.jpg,AFSA14.jpg,AFSA20.jpg,FS,4,num_2,32,num_8,0.816754383268,,,2017_May_10_1409,59.9975946299,FEMA4ImagesEEG,001,200384,
AFNE01.JPG,AFNE01.JPG,AFNE01.JPG,AFNE01.JPG,AFNE01.JPG,AFNE01.JPG,,,,,,,,,,,,,,,,,4,3,43,9,,,,,,,AFNE18.jpg,AFSA08.jpg,AFNE01.jpg,AFSA01.jpg,AFNE18.jpg,FN,3,num_8,32,num_4,0.466766780009,,,2017_May_10_1409,59.9975946299,FEMA4ImagesEEG,001,200384,
AFNE01.JPG,AFNE01.JPG,AFNE01.JPG,AFNE01.JPG,AFNE01.JPG,AFNE01.JPG,,,,,,,,,,,,,,,,,4,4,44,5,,,,,,,AFSA01.jpg,AFNE05.jpg,AFSA11.jpg,AFNE09.jpg,AFNE09.jpg,FN,3,num_4,32,num_8,0.550151565112,,,2017_May_10_1409,59.9975946299,FEMA4ImagesEEG,001,200384,
AFNE01.JPG,AFNE01.JPG,AFNE01.JPG,AFNE01.JPG,AFNE01.JPG,AFNE01.JPG,,,,,,,,,,,,,,,,,4,5,45,8,,,,,,,AFNE08.jpg,AFSA18.jpg,AFNE12.jpg,AFSA11.jpg,AFNE12.jpg,FN,3,num_2,32,num_4,1.41659997962,,,2017_May_10_1409,59.9975946299,FEMA4ImagesEEG,001,200384,
AFNE01.JPG,AFNE01.JPG,AFNE01.JPG,AFNE01.JPG,AFNE01.JPG,AFNE01.JPG,,,,,,,,,,,,,,,,,4,6,46,1,,,,,,,AFNE19.jpg,AFSA15.jpg,AFNE20.jpg,AFSA14.jpg,AFNE20.jpg,FN,3,num_2,16,num_2,1.20011905837,,,2017_May_10_1409,59.9975946299,FEMA4ImagesEEG,001,200384,
AFNE01.JPG,AFNE01.JPG,AFNE01.JPG,AFNE01.JPG,AFNE01.JPG,AFNE01.JPG,,,,,,,,,,,,,,,,,4,7,47,0,,,,,,,AFSA06.jpg,AFNE05.jpg,AFNE01.jpg,AFSA08.jpg,AFNE05.jpg,FN,3,num_6,16,num_6,0.700115690706,,,2017_May_10_1409,59.9975946299,FEMA4ImagesEEG,001,200384,
AFNE01.JPG,AFNE01.JPG,AFNE01.JPG,AFNE01.JPG,AFNE01.JPG,AFNE01.JPG,,,,,,,,,,,,,,,,,4,8,48,3,,,,,,,AFNE15.jpg,AFSA18.jpg,AFNE20.jpg,AFSA14.jpg,AFSA18.jpg,FS,4,num_6,32,num_2,0.81675534579,,,2017_May_10_1409,59.9975946299,FEMA4ImagesEEG,001,200384,
AFNE01.JPG,AFNE01.JPG,AFNE01.JPG,AFNE01.JPG,AFNE01.JPG,AFNE01.JPG,,,,,,,,,,,,,,,,,4,9,49,4,,,,,,,AFSA18.jpg,AFNE04.jpg,AFSA06.jpg,AFNE20.jpg,AFNE20.jpg,FN,3,num_4,32,num_6,0.450140628032,,,2017_May_10_1409,59.9975946299,FEMA4ImagesEEG,001,200384,
AFNE01.JPG,AFNE01.JPG,AFNE01.JPG,AFNE01.JPG,AFNE01.JPG,AFNE01.JPG,,,,,,,,,,,,,,,,,5,0,50,8,,,,,,,AFSA11.jpg,AFNE12.jpg,AFNE09.jpg,AFSA03.jpg,AFSA03.jpg,FS,4,num_4,16,num_4,0.550168885151,,,2017_May_10_1409,59.9975946299,FEMA4ImagesEEG,001,200384,
AFNE01.JPG,AFNE01.JPG,AFNE01.JPG,AFNE01.JPG,AFNE01.JPG,AFNE01.JPG,,,,,,,,,,,,,,,,,5,1,51,5,,,,,,,AFNE08.jpg,AFSA18.jpg,AFSA06.jpg,AFNE03.jpg,AFNE08.jpg,FN,3,num_8,16,num_8,0.533372099977,,,2017_May_10_1409,59.9975946299,FEMA4ImagesEEG,001,200384,
AFNE01.JPG,AFNE01.JPG,AFNE01.JPG,AFNE01.JPG,AFNE01.JPG,AFNE01.JPG,,,,,,,,,,,,,,,,,5,2,52,7,,,,,,,AFNE05.jpg,AFSA12.jpg,AFNE11.jpg,AFSA10.jpg,AFSA10.jpg,FS,4,num_4,16,num_4,0.600146128796,,,2017_May_10_1409,59.9975946299,FEMA4ImagesEEG,001,200384,
AFNE01.JPG,AFNE01.JPG,AFNE01.JPG,AFNE01.JPG,AFNE01.JPG,AFNE01.JPG,,,,,,,,,,,,,,,,,5,3,53,1,,,,,,,AFNE10.jpg,AFSA02.jpg,AFNE20.jpg,AFSA17.jpg,AFNE20.jpg,FN,3,num_2,32,num_6,0.63343980792,,,2017_May_10_1409,59.9975946299,FEMA4ImagesEEG,001,200384,
AFNE01.JPG,AFNE01.JPG,AFNE01.JPG,AFNE01.JPG,AFNE01.JPG,AFNE01.JPG,,,,,,,,,,,,,,,,,5,4,54,6,,,,,,,AFSA08.jpg,AFNE09.jpg,AFNE20.jpg,AFSA05.jpg,AFSA08.jpg,FS,4,num_8,16,num_8,0.633460014593,,,2017_May_10_1409,59.9975946299,FEMA4ImagesEEG,001,200384,
AFNE01.JPG,AFNE01.JPG,AFNE01.JPG,AFNE01.JPG,AFNE01.JPG,AFNE01.JPG,,,,,,,,,,,,,,,,,5,5,55,3,,,,,,,AFNE09.jpg,AFNE14.jpg,AFSA07.jpg,AFSA03.jpg,AFSA03.jpg,FS,4,num_4,32,num_8,0.48352956702,,,2017_May_10_1409,59.9975946299,FEMA4ImagesEEG,001,200384,
AFNE01.JPG,AFNE01.JPG,AFNE01.JPG,AFNE01.JPG,AFNE01.JPG,AFNE01.JPG,,,,,,,,,,,,,,,,,5,6,56,0,,,,,,,AFNE04.jpg,AFSA10.jpg,AFNE17.jpg,AFSA16.jpg,AFNE17.jpg,FN,3,num_2,32,num_6,0.550250994274,,,2017_May_10_1409,59.9975946299,FEMA4ImagesEEG,001,200384,
AFNE01.JPG,AFNE01.JPG,AFNE01.JPG,AFNE01.JPG,AFNE01.JPG,AFNE01.JPG,,,,,,,,,,,,,,,,,5,7,57,4,,,,,,,AFNE12.jpg,AFNE18.jpg,AFSA07.jpg,AFSA14.jpg,AFNE18.jpg,FN,3,num_6,32,num_2,0.400126178749,,,2017_May_10_1409,59.9975946299,FEMA4ImagesEEG,001,200384,
AFNE01.JPG,AFNE01.JPG,AFNE01.JPG,AFNE01.JPG,AFNE01.JPG,AFNE01.JPG,,,,,,,,,,,,,,,,,5,8,58,9,,,,,,,AFSA09.jpg,AFNE08.jpg,AFSA02.jpg,AFNE19.jpg,AFSA09.jpg,FS,4,num_8,16,num_8,0.400116556557,,,2017_May_10_1409,59.9975946299,FEMA4ImagesEEG,001,200384,
AFNE01.JPG,AFNE01.JPG,AFNE01.JPG,AFNE01.JPG,AFNE01.JPG,AFNE01.JPG,,,,,,,,,,,,,,,,,5,9,59,2,,,,,,,AFNE18.jpg,AFSA13.jpg,AFNE03.jpg,AFSA15.jpg,AFSA13.jpg,FS,4,num_6,16,num_6,0.383497140137,,,2017_May_10_1409,59.9975946299,FEMA4ImagesEEG,001,200384,
,,,,,,,,,,,,,,,,,,,,,,,,,,,,,,,,,,,,,,,,,,,space,4.83311335975,2017_May_10_1409,59.9975946299,FEMA4ImagesEEG,001,200384,
AFNE01.JPG,AFNE01.JPG,AFNE01.JPG,AFNE01.JPG,AFNE01.JPG,AFNE01.JPG,,,,,,,,,,,,,,,,,,,,,0,0,0,1,,,AMNE19.jpg,AMSA07.jpg,AMNE13.jpg,AMSA14.jpg,AMSA14.jpg,MS,2,num_4,16,num_4,0.433469251962,,,2017_May_10_1409,59.9975946299,FEMA4ImagesEEG,001,200384,
AFNE01.JPG,AFNE01.JPG,AFNE01.JPG,AFNE01.JPG,AFNE01.JPG,AFNE01.JPG,,,,,,,,,,,,,,,,,,,,,0,1,1,3,,,AMNE06.jpg,AMSA06.jpg,AMSA14.jpg,AMNE19.jpg,AMSA06.jpg,MS,2,num_6,32,num_8,0.40014189505,,,2017_May_10_1409,59.9975946299,FEMA4ImagesEEG,001,200384,
AFNE01.JPG,AFNE01.JPG,AFNE01.JPG,AFNE01.JPG,AFNE01.JPG,AFNE01.JPG,,,,,,,,,,,,,,,,,,,,,0,2,2,2,,,AMNE02.jpg,AMSA20.jpg,AMNE15.jpg,AMSA02.jpg,AMNE15.jpg,MN,1,num_2,32,num_8,0.816803456517,,,2017_May_10_1409,59.9975946299,FEMA4ImagesEEG,001,200384,
AFNE01.JPG,AFNE01.JPG,AFNE01.JPG,AFNE01.JPG,AFNE01.JPG,AFNE01.JPG,,,,,,,,,,,,,,,,,,,,,0,3,3,8,,,AMSA17.jpg,AMNE16.jpg,AMNE12.jpg,AMSA03.jpg,AMSA03.jpg,MS,2,num_4,16,num_4,0.600129771046,,,2017_May_10_1409,59.9975946299,FEMA4ImagesEEG,001,200384,
AFNE01.JPG,AFNE01.JPG,AFNE01.JPG,AFNE01.JPG,AFNE01.JPG,AFNE01.JPG,,,,,,,,,,,,,,,,,,,,,0,4,4,4,,,AMSA11.jpg,AMNE04.jpg,AMSA03.jpg,AMNE02.jpg,AMNE04.jpg,MN,1,num_6,16,num_6,0.583556861617,,,2017_May_10_1409,59.9975946299,FEMA4ImagesEEG,001,200384,
AFNE01.JPG,AFNE01.JPG,AFNE01.JPG,AFNE01.JPG,AFNE01.JPG,AFNE01.JPG,,,,,,,,,,,,,,,,,,,,,0,5,5,5,,,AMSA04.jpg,AMSA17.jpg,AMNE05.jpg,AMNE01.jpg,AMSA17.jpg,MS,2,num_6,16,num_6,0.60013746866,,,2017_May_10_1409,59.9975946299,FEMA4ImagesEEG,001,200384,
AFNE01.JPG,AFNE01.JPG,AFNE01.JPG,AFNE01.JPG,AFNE01.JPG,AFNE01.JPG,,,,,,,,,,,,,,,,,,,,,0,6,6,6,,,AMNE08.jpg,AMSA15.jpg,AMNE02.jpg,AMSA08.jpg,AMSA15.jpg,MS,2,num_6,32,num_2,0.716820102884,,,2017_May_10_1409,59.9975946299,FEMA4ImagesEEG,001,200384,
AFNE01.JPG,AFNE01.JPG,AFNE01.JPG,AFNE01.JPG,AFNE01.JPG,AFNE01.JPG,,,,,,,,,,,,,,,,,,,,,0,7,7,9,,,AMNE15.jpg,AMNE03.jpg,AMSA11.jpg,AMSA15.jpg,AMNE15.jpg,MN,1,num_8,32,num_2,1.61672224523,,,2017_May_10_1409,59.9975946299,FEMA4ImagesEEG,001,200384,
AFNE01.JPG,AFNE01.JPG,AFNE01.JPG,AFNE01.JPG,AFNE01.JPG,AFNE01.JPG,,,,,,,,,,,,,,,,,,,,,0,8,8,7,,,AMNE17.jpg,AMSA10.jpg,AMSA08.jpg,AMNE06.jpg,AMSA08.jpg,MS,2,num_2,32,num_8,0.600127846701,,,2017_May_10_1409,59.9975946299,FEMA4ImagesEEG,001,200384,
AFNE01.JPG,AFNE01.JPG,AFNE01.JPG,AFNE01.JPG,AFNE01.JPG,AFNE01.JPG,,,,,,,,,,,,,,,,,,,,,0,9,9,0,,,AMNE08.jpg,AMSA01.jpg,AMNE15.jpg,AMSA16.jpg,AMNE08.jpg,MN,1,num_8,32,num_4,0.716758521041,,,2017_May_10_1409,59.9975946299,FEMA4ImagesEEG,001,200384,
AFNE01.JPG,AFNE01.JPG,AFNE01.JPG,AFNE01.JPG,AFNE01.JPG,AFNE01.JPG,,,,,,,,,,,,,,,,,,,,,1,0,10,5,,,AMNE14.jpg,AMSA05.jpg,AMNE04.jpg,AMSA11.jpg,AMSA05.jpg,MS,2,num_6,32,num_2,0.450101176975,,,2017_May_10_1409,59.9975946299,FEMA4ImagesEEG,001,200384,
AFNE01.JPG,AFNE01.JPG,AFNE01.JPG,AFNE01.JPG,AFNE01.JPG,AFNE01.JPG,,,,,,,,,,,,,,,,,,,,,1,1,11,6,,,AMNE15.jpg,AMSA16.jpg,AMNE05.jpg,AMSA07.jpg,AMSA16.jpg,MS,2,num_6,16,num_6,0.566815243801,,,2017_May_10_1409,59.9975946299,FEMA4ImagesEEG,001,200384,
AFNE01.JPG,AFNE01.JPG,AFNE01.JPG,AFNE01.JPG,AFNE01.JPG,AFNE01.JPG,,,,,,,,,,,,,,,,,,,,,1,2,12,9,,,AMNE06.jpg,AMNE16.jpg,AMSA20.jpg,AMSA12.jpg,AMNE16.jpg,MN,1,num_6,32,num_8,0.733465820085,,,2017_May_10_1409,59.9975946299,FEMA4ImagesEEG,001,200384,
AFNE01.JPG,AFNE01.JPG,AFNE01.JPG,AFNE01.JPG,AFNE01.JPG,AFNE01.JPG,,,,,,,,,,,,,,,,,,,,,1,3,13,2,,,AMSA14.jpg,AMSA17.jpg,AMNE18.jpg,AMNE07.jpg,AMNE18.jpg,MN,1,num_2,16,num_2,1.18345281389,,,2017_May_10_1409,59.9975946299,FEMA4ImagesEEG,001,200384,
AFNE01.JPG,AFNE01.JPG,AFNE01.JPG,AFNE01.JPG,AFNE01.JPG,AFNE01.JPG,,,,,,,,,,,,,,,,,,,,,1,4,14,3,,,AMNE01.jpg,AMSA18.jpg,AMNE03.jpg,AMSA01.jpg,AMNE01.jpg,MN,1,num_8,32,num_4,0.516812341055,,,2017_May_10_1409,59.9975946299,FEMA4ImagesEEG,001,200384,
AFNE01.JPG,AFNE01.JPG,AFNE01.JPG,AFNE01.JPG,AFNE01.JPG,AFNE01.JPG,,,,,,,,,,,,,,,,,,,,,1,5,15,0,,,AMSA17.jpg,AMNE07.jpg,AMSA06.jpg,AMNE09.jpg,AMSA17.jpg,MS,2,num_8,32,num_2,0.483355084667,,,2017_May_10_1409,59.9975946299,FEMA4ImagesEEG,001,200384,
AFNE01.JPG,AFNE01.JPG,AFNE01.JPG,AFNE01.JPG,AFNE01.JPG,AFNE01.JPG,,,,,,,,,,,,,,,,,,,,,1,6,16,8,,,AMSA20.jpg,AMNE18.jpg,AMSA04.jpg,AMNE06.jpg,AMSA04.jpg,MS,2,num_2,32,num_6,0.516797587043,,,2017_May_10_1409,59.9975946299,FEMA4ImagesEEG,001,200384,
AFNE01.JPG,AFNE01.JPG,AFNE01.JPG,AFNE01.JPG,AFNE01.JPG,AFNE01.JPG,,,,,,,,,,,,,,,,,,,,,1,7,17,7,,,AMNE16.jpg,AMNE19.jpg,AMSA05.jpg,AMSA07.jpg,AMSA07.jpg,MS,2,num_4,16,num_4,0.783471288625,,,2017_May_10_1409,59.9975946299,FEMA4ImagesEEG,001,200384,
AFNE01.JPG,AFNE01.JPG,AFNE01.JPG,AFNE01.JPG,AFNE01.JPG,AFNE01.JPG,,,,,,,,,,,,,,,,,,,,,1,8,18,4,,,AMNE18.jpg,AMSA08.jpg,AMNE19.jpg,AMSA14.jpg,AMNE18.jpg,MN,1,num_8,32,num_2,0.583496242063,,,2017_May_10_1409,59.9975946299,FEMA4ImagesEEG,001,200384,
AFNE01.JPG,AFNE01.JPG,AFNE01.JPG,AFNE01.JPG,AFNE01.JPG,AFNE01.JPG,,,,,,,,,,,,,,,,,,,,,1,9,19,1,,,AMSA16.jpg,AMNE01.jpg,AMSA13.jpg,AMNE18.jpg,AMNE18.jpg,MN,1,num_4,32,num_2,0.666514743352,,,2017_May_10_1409,59.9975946299,FEMA4ImagesEEG,001,200384,
AFNE01.JPG,AFNE01.JPG,AFNE01.JPG,AFNE01.JPG,AFNE01.JPG,AFNE01.JPG,,,,,,,,,,,,,,,,,,,,,2,0,20,5,,,AMSA01.jpg,AMNE11.jpg,AMSA19.jpg,AMNE08.jpg,AMSA19.jpg,MS,2,num_2,32,num_8,0.266688134754,,,2017_May_10_1409,59.9975946299,FEMA4ImagesEEG,001,200384,
AFNE01.JPG,AFNE01.JPG,AFNE01.JPG,AFNE01.JPG,AFNE01.JPG,AFNE01.JPG,,,,,,,,,,,,,,,,,,,,,2,1,21,4,,,AMNE15.jpg,AMNE02.jpg,AMSA03.jpg,AMSA04.jpg,AMNE15.jpg,MN,1,num_8,32,num_4,0.466817135923,,,2017_May_10_1409,59.9975946299,FEMA4ImagesEEG,001,200384,
AFNE01.JPG,AFNE01.JPG,AFNE01.JPG,AFNE01.JPG,AFNE01.JPG,AFNE01.JPG,,,,,,,,,,,,,,,,,,,,,2,2,22,3,,,AMSA06.jpg,AMNE07.jpg,AMNE11.jpg,AMSA17.jpg,AMSA06.jpg,MS,2,num_8,32,num_6,0.350274344208,,,2017_May_10_1409,59.9975946299,FEMA4ImagesEEG,001,200384,
AFNE01.JPG,AFNE01.JPG,AFNE01.JPG,AFNE01.JPG,AFNE01.JPG,AFNE01.JPG,,,,,,,,,,,,,,,,,,,,,2,3,23,7,,,AMSA08.jpg,AMNE03.jpg,AMNE19.jpg,AMSA07.jpg,AMSA07.jpg,MS,2,num_4,16,num_4,0.683553686365,,,2017_May_10_1409,59.9975946299,FEMA4ImagesEEG,001,200384,
AFNE01.JPG,AFNE01.JPG,AFNE01.JPG,AFNE01.JPG,AFNE01.JPG,AFNE01.JPG,,,,,,,,,,,,,,,,,,,,,2,4,24,1,,,AMNE17.jpg,AMNE20.jpg,AMSA18.jpg,AMSA05.jpg,AMNE17.jpg,MN,1,num_8,32,num_6,0.599996343488,,,2017_May_10_1409,59.9975946299,FEMA4ImagesEEG,001,200384,
AFNE01.JPG,AFNE01.JPG,AFNE01.JPG,AFNE01.JPG,AFNE01.JPG,AFNE01.JPG,,,,,,,,,,,,,,,,,,,,,2,5,25,6,,,AMSA03.jpg,AMNE07.jpg,AMNE08.jpg,AMSA09.jpg,AMNE08.jpg,MN,1,num_2,32,num_8,0.466801099246,,,2017_May_10_1409,59.9975946299,FEMA4ImagesEEG,001,200384,
AFNE01.JPG,AFNE01.JPG,AFNE01.JPG,AFNE01.JPG,AFNE01.JPG,AFNE01.JPG,,,,,,,,,,,,,,,,,,,,,2,6,26,0,,,AMSA06.jpg,AMSA10.jpg,AMNE13.jpg,AMNE12.jpg,AMSA10.jpg,MS,2,num_6,32,num_2,0.666752090212,,,2017_May_10_1409,59.9975946299,FEMA4ImagesEEG,001,200384,
AFNE01.JPG,AFNE01.JPG,AFNE01.JPG,AFNE01.JPG,AFNE01.JPG,AFNE01.JPG,,,,,,,,,,,,,,,,,,,,,2,7,27,8,,,AMSA14.jpg,AMSA06.jpg,AMNE14.jpg,AMNE09.jpg,AMSA14.jpg,MS,2,num_8,16,num_8,0.683489538729,,,2017_May_10_1409,59.9975946299,FEMA4ImagesEEG,001,200384,
AFNE01.JPG,AFNE01.JPG,AFNE01.JPG,AFNE01.JPG,AFNE01.JPG,AFNE01.JPG,,,,,,,,,,,,,,,,,,,,,2,8,28,2,,,AMSA18.jpg,AMNE08.jpg,AMSA05.jpg,AMNE15.jpg,AMNE08.jpg,MN,1,num_6,32,num_2,0.400132593699,,,2017_May_10_1409,59.9975946299,FEMA4ImagesEEG,001,200384,
AFNE01.JPG,AFNE01.JPG,AFNE01.JPG,AFNE01.JPG,AFNE01.JPG,AFNE01.JPG,,,,,,,,,,,,,,,,,,,,,2,9,29,9,,,AMSA10.jpg,AMNE16.jpg,AMSA16.jpg,AMNE03.jpg,AMSA10.jpg,MS,2,num_8,32,num_4,0.600129771046,,,2017_May_10_1409,59.9975946299,FEMA4ImagesEEG,001,200384,
AFNE01.JPG,AFNE01.JPG,AFNE01.JPG,AFNE01.JPG,AFNE01.JPG,AFNE01.JPG,,,,,,,,,,,,,,,,,,,,,3,0,30,6,,,AMSA16.jpg,AMNE16.jpg,AMSA20.jpg,AMNE19.jpg,AMNE16.jpg,MN,1,num_6,32,num_8,1.00009333505,,,2017_May_10_1409,59.9975946299,FEMA4ImagesEEG,001,200384,
AFNE01.JPG,AFNE01.JPG,AFNE01.JPG,AFNE01.JPG,AFNE01.JPG,AFNE01.JPG,,,,,,,,,,,,,,,,,,,,,3,1,31,1,,,AMNE17.jpg,AMSA01.jpg,AMSA17.jpg,AMNE15.jpg,AMSA17.jpg,MS,2,num_2,16,num_2,0.73344753799,,,2017_May_10_1409,59.9975946299,FEMA4ImagesEEG,001,200384,
AFNE01.JPG,AFNE01.JPG,AFNE01.JPG,AFNE01.JPG,AFNE01.JPG,AFNE01.JPG,,,,,,,,,,,,,,,,,,,,,3,2,32,8,,,AMNE04.jpg,AMNE01.jpg,AMSA06.jpg,AMSA10.jpg,AMNE04.jpg,MN,1,num_8,32,num_6,0.600121752592,,,2017_May_10_1409,59.9975946299,FEMA4ImagesEEG,001,200384,
AFNE01.JPG,AFNE01.JPG,AFNE01.JPG,AFNE01.JPG,AFNE01.JPG,AFNE01.JPG,,,,,,,,,,,,,,,,,,,,,3,3,33,3,,,AMSA16.jpg,AMSA05.jpg,AMNE13.jpg,AMNE15.jpg,AMNE15.jpg,MN,1,num_4,16,num_4,0.566759434994,,,2017_May_10_1409,59.9975946299,FEMA4ImagesEEG,001,200384,
AFNE01.JPG,AFNE01.JPG,AFNE01.JPG,AFNE01.JPG,AFNE01.JPG,AFNE01.JPG,,,,,,,,,,,,,,,,,,,,,3,4,34,4,,,AMSA05.jpg,AMNE08.jpg,AMSA17.jpg,AMNE19.jpg,AMNE19.jpg,MN,1,num_4,32,num_6,0.733462933218,,,2017_May_10_1409,59.9975946299,FEMA4ImagesEEG,001,200384,
AFNE01.JPG,AFNE01.JPG,AFNE01.JPG,AFNE01.JPG,AFNE01.JPG,AFNE01.JPG,,,,,,,,,,,,,,,,,,,,,3,5,35,9,,,AMNE17.jpg,AMSA07.jpg,AMSA20.jpg,AMNE14.jpg,AMNE14.jpg,MN,1,num_4,32,num_8,0.666738298256,,,2017_May_10_1409,59.9975946299,FEMA4ImagesEEG,001,200384,
AFNE01.JPG,AFNE01.JPG,AFNE01.JPG,AFNE01.JPG,AFNE01.JPG,AFNE01.JPG,,,,,,,,,,,,,,,,,,,,,3,6,36,0,,,AMSA03.jpg,AMNE15.jpg,AMSA17.jpg,AMNE17.jpg,AMNE15.jpg,MN,1,num_6,32,num_8,0.666843500687,,,2017_May_10_1409,59.9975946299,FEMA4ImagesEEG,001,200384,
AFNE01.JPG,AFNE01.JPG,AFNE01.JPG,AFNE01.JPG,AFNE01.JPG,AFNE01.JPG,,,,,,,,,,,,,,,,,,,,,3,7,37,7,,,AMSA20.jpg,AMNE05.jpg,AMNE03.jpg,AMSA07.jpg,AMSA20.jpg,MS,2,num_8,32,num_2,0.400122329826,,,2017_May_10_1409,59.9975946299,FEMA4ImagesEEG,001,200384,
AFNE01.JPG,AFNE01.JPG,AFNE01.JPG,AFNE01.JPG,AFNE01.JPG,AFNE01.JPG,,,,,,,,,,,,,,,,,,,,,3,8,38,2,,,AMSA20.jpg,AMSA01.jpg,AMNE13.jpg,AMNE07.jpg,AMNE07.jpg,MN,1,num_4,16,num_4,0.43350100494,,,2017_May_10_1409,59.9975946299,FEMA4ImagesEEG,001,200384,
