IPosition2,IPosition3,IPosition1,IPosition6,IPosition4,IPosition5,TrialsM1.thisRepN,TrialsM1.thisTrialN,TrialsM1.thisN,TrialsM1.thisIndex,TrialsF1.thisRepN,TrialsF1.thisTrialN,TrialsF1.thisN,TrialsF1.thisIndex,TrialsM2.thisRepN,TrialsM2.thisTrialN,TrialsM2.thisN,TrialsM2.thisIndex,TrialsF2.thisRepN,TrialsF2.thisTrialN,TrialsF2.thisN,TrialsF2.thisIndex,TrialsM3.thisRepN,TrialsM3.thisTrialN,TrialsM3.thisN,TrialsM3.thisIndex,TrialsF3.thisRepN,TrialsF3.thisTrialN,TrialsF3.thisN,TrialsF3.thisIndex,InstrKey_resp.keys,InstrKey_resp.rt,Image0 _Position,Image1 _Position,Image2 _Position,Image3 _Position,Center_image,condition,code,correct_answer,accuracy,Key_Resp.keys,Key_Resp.rt,BreakKey_resp.keys,BreakKey_resp.rt,date,frameRate,expName,session,participant,
,,,,,,,,,,,,,,,,,,,,,,,,,,,,,,space,3.68330383068,,,,,,,,,,,,,,2017_May_09_1207,60.003367926,MAFE4ImagesEEG,001,200341,
AFNE23.JPG,AFNE24.JPG,AFNE22.JPG,AFSA24.JPG,AFSA22.JPG,AFSA23.JPG,0,0,0,8,,,,,,,,,,,,,,,,,,,,,,,AMSA16.jpg,AMNE12.jpg,AMSA14.jpg,AMNE02.jpg,AMNE12.jpg,MN,1,num_6,32,num_8,1.18340309942,,,2017_May_09_1207,60.003367926,MAFE4ImagesEEG,001,200341,
AMSA21.JPG,AMNE23.JPG,AMNE21.JPG,AMSA25.JPG,AMNE25.JPG,AMSA23.JPG,0,1,1,5,,,,,,,,,,,,,,,,,,,,,,,AMNE12.jpg,AMSA17.jpg,AMNE07.jpg,AMSA04.jpg,AMSA04.jpg,MS,2,num_4,16,num_4,0.800176021643,,,2017_May_09_1207,60.003367926,MAFE4ImagesEEG,001,200341,
AMSA21.JPG,AMNE22.JPG,AMNE21.JPG,AMSA23.JPG,AMSA22.JPG,AMNE23.JPG,0,2,2,1,,,,,,,,,,,,,,,,,,,,,,,AMSA19.jpg,AMNE05.jpg,AMSA03.jpg,AMNE03.jpg,AMSA19.jpg,MS,2,num_8,16,num_8,0.966773355147,,,2017_May_09_1207,60.003367926,MAFE4ImagesEEG,001,200341,
AMNE22.JPG,AMSA24.JPG,AMSA22.JPG,AMNE25.JPG,AMNE24.JPG,AMSA25.JPG,0,3,3,7,,,,,,,,,,,,,,,,,,,,,,,AMSA04.jpg,AMSA19.jpg,AMNE04.jpg,AMNE19.jpg,AMNE19.jpg,MN,1,num_4,16,num_4,0.666794748511,,,2017_May_09_1207,60.003367926,MAFE4ImagesEEG,001,200341,
AMSA25.JPG,AMNE24.JPG,AMSA24.JPG,AMNE26.JPG,AMSA21.JPG,AMNE25.JPG,0,4,4,3,,,,,,,,,,,,,,,,,,,,,,,AMSA20.jpg,AMSA17.jpg,AMNE17.jpg,AMNE16.jpg,AMNE16.jpg,MN,1,num_4,16,num_4,1.10008021677,,,2017_May_09_1207,60.003367926,MAFE4ImagesEEG,001,200341,
AMNE23.JPG,AMNE24.JPG,AMNE22.JPG,AMSA24.JPG,AMSA22.JPG,AMSA23.JPG,0,5,5,9,,,,,,,,,,,,,,,,,,,,,,,AMNE13.jpg,AMSA11.jpg,AMNE02.jpg,AMSA08.jpg,AMSA08.jpg,MS,2,num_4,32,num_8,1.48336214107,,,2017_May_09_1207,60.003367926,MAFE4ImagesEEG,001,200341,
AFSA25.JPG,AFNE24.JPG,AFSA24.JPG,AFNE21.JPG,AFSA21.JPG,AFNE25.JPG,0,6,6,2,,,,,,,,,,,,,,,,,,,,,,,AMSA16.jpg,AMNE02.jpg,AMNE17.jpg,AMSA11.jpg,AMSA16.jpg,MS,2,num_8,32,num_4,0.48351288843,,,2017_May_09_1207,60.003367926,MAFE4ImagesEEG,001,200341,
AFNE22.JPG,AFSA24.JPG,AFSA22.JPG,AFNE25.JPG,AFNE24.JPG,AFSA25.JPG,0,7,7,6,,,,,,,,,,,,,,,,,,,,,,,AMNE05.jpg,AMSA12.jpg,AMNE19.jpg,AMSA02.jpg,AMNE19.jpg,MN,1,num_2,16,num_2,1.00010456098,,,2017_May_09_1207,60.003367926,MAFE4ImagesEEG,001,200341,
AFSA21.JPG,AFNE22.JPG,AFNE21.JPG,AFSA23.JPG,AFSA22.JPG,AFNE23.JPG,0,8,8,0,,,,,,,,,,,,,,,,,,,,,,,AMNE18.jpg,AMSA17.jpg,AMNE16.jpg,AMSA15.jpg,AMNE16.jpg,MN,1,num_2,32,num_8,0.866802830948,,,2017_May_09_1207,60.003367926,MAFE4ImagesEEG,001,200341,
AFSA21.JPG,AFNE23.JPG,AFNE21.JPG,AFSA25.JPG,AFNE25.JPG,AFSA23.JPG,0,9,9,4,,,,,,,,,,,,,,,,,,,,,,,AMSA12.jpg,AMNE11.jpg,AMSA11.jpg,AMNE07.jpg,AMNE11.jpg,MN,1,num_6,32,num_8,0.933283062652,,,2017_May_09_1207,60.003367926,MAFE4ImagesEEG,001,200341,
AFSA21.JPG,AFNE22.JPG,AFNE21.JPG,AFSA23.JPG,AFSA22.JPG,AFNE23.JPG,,,,,0,0,0,0,,,,,,,,,,,,,,,,,,,AFSA18.jpg,AFNE02.jpg,AFNE06.jpg,AFSA15.jpg,AFSA18.jpg,FS,4,num_8,16,num_8,0.433512231102,,,2017_May_09_1207,60.003367926,MAFE4ImagesEEG,001,200341,
AMSA25.JPG,AMNE24.JPG,AMSA24.JPG,AMNE26.JPG,AMSA21.JPG,AMNE25.JPG,,,,,0,1,1,3,,,,,,,,,,,,,,,,,,,AFSA03.jpg,AFNE01.jpg,AFSA01.jpg,AFNE09.jpg,AFNE09.jpg,FN,3,num_4,16,num_4,1.41672378476,,,2017_May_09_1207,60.003367926,MAFE4ImagesEEG,001,200341,
AMSA21.JPG,AMNE22.JPG,AMNE21.JPG,AMSA23.JPG,AMSA22.JPG,AMNE23.JPG,,,,,0,2,2,1,,,,,,,,,,,,,,,,,,,AFNE03.jpg,AFSA14.jpg,AFSA12.jpg,AFNE14.jpg,AFNE14.jpg,FN,3,num_4,32,num_8,1.51637838106,,,2017_May_09_1207,60.003367926,MAFE4ImagesEEG,001,200341,
AMNE23.JPG,AMNE24.JPG,AMNE22.JPG,AMSA24.JPG,AMSA22.JPG,AMSA23.JPG,,,,,0,3,3,9,,,,,,,,,,,,,,,,,,,AFNE10.jpg,AFSA13.jpg,AFSA19.jpg,AFNE12.jpg,AFSA13.jpg,FS,4,num_6,32,num_4,1.01672141138,,,2017_May_09_1207,60.003367926,MAFE4ImagesEEG,001,200341,
AMNE22.JPG,AMSA24.JPG,AMSA22.JPG,AMNE25.JPG,AMNE24.JPG,AMSA25.JPG,,,,,0,4,4,7,,,,,,,,,,,,,,,,,,,AFNE16.jpg,AFSA17.jpg,AFSA18.jpg,AFNE20.jpg,AFNE16.jpg,FN,3,num_8,16,num_8,0.666785126319,,,2017_May_09_1207,60.003367926,MAFE4ImagesEEG,001,200341,
AMSA21.JPG,AMNE23.JPG,AMNE21.JPG,AMSA25.JPG,AMNE25.JPG,AMSA23.JPG,,,,,0,5,5,5,,,,,,,,,,,,,,,,,,,AFSA18.jpg,AFNE08.jpg,AFSA09.jpg,AFNE01.jpg,AFSA09.jpg,FS,4,num_2,32,num_6,2.51654612762,,,2017_May_09_1207,60.003367926,MAFE4ImagesEEG,001,200341,
AFNE22.JPG,AFSA24.JPG,AFSA22.JPG,AFNE25.JPG,AFNE24.JPG,AFSA25.JPG,,,,,0,6,6,6,,,,,,,,,,,,,,,,,,,AFSA13.jpg,AFSA01.jpg,AFNE09.jpg,AFNE15.jpg,AFSA01.jpg,FS,4,num_6,32,num_8,1.25007352931,,,2017_May_09_1207,60.003367926,MAFE4ImagesEEG,001,200341,
AFSA21.JPG,AFNE23.JPG,AFNE21.JPG,AFSA25.JPG,AFNE25.JPG,AFSA23.JPG,,,,,0,7,7,4,,,,,,,,,,,,,,,,,,,AFSA17.jpg,AFSA18.jpg,AFNE13.jpg,AFNE17.jpg,AFSA17.jpg,FS,4,num_8,16,num_8,1.75003680494,,,2017_May_09_1207,60.003367926,MAFE4ImagesEEG,001,200341,
AFNE23.JPG,AFNE24.JPG,AFNE22.JPG,AFSA24.JPG,AFSA22.JPG,AFSA23.JPG,,,,,0,8,8,8,,,,,,,,,,,,,,,,,,,AFNE07.jpg,AFNE01.jpg,AFSA01.jpg,AFSA06.jpg,AFSA06.jpg,FS,4,num_4,16,num_4,1.16675513727,,,2017_May_09_1207,60.003367926,MAFE4ImagesEEG,001,200341,
AFSA25.JPG,AFNE24.JPG,AFSA24.JPG,AFNE21.JPG,AFSA21.JPG,AFNE25.JPG,,,,,0,9,9,2,,,,,,,,,,,,,,,,,,,AFSA12.jpg,AFSA14.jpg,AFNE20.jpg,AFNE05.jpg,AFSA12.jpg,FS,4,num_8,32,num_4,1.21629713778,,,2017_May_09_1207,60.003367926,MAFE4ImagesEEG,001,200341,
AMNE22.JPG,AMSA24.JPG,AMSA22.JPG,AMNE25.JPG,AMNE24.JPG,AMSA25.JPG,,,,,,,,,0,0,0,7,,,,,,,,,,,,,,,AMSA19.jpg,AMSA10.jpg,AMNE18.jpg,AMNE14.jpg,AMSA10.jpg,MS,2,num_6,16,num_6,0.616817504866,,,2017_May_09_1207,60.003367926,MAFE4ImagesEEG,001,200341,
AMSA21.JPG,AMNE22.JPG,AMNE21.JPG,AMSA23.JPG,AMSA22.JPG,AMNE23.JPG,,,,,,,,,0,1,1,1,,,,,,,,,,,,,,,AMSA10.jpg,AMNE08.jpg,AMNE20.jpg,AMSA11.jpg,AMSA11.jpg,MS,2,num_4,16,num_4,0.950103582582,,,2017_May_09_1207,60.003367926,MAFE4ImagesEEG,001,200341,
AFNE22.JPG,AFSA24.JPG,AFSA22.JPG,AFNE25.JPG,AFNE24.JPG,AFSA25.JPG,,,,,,,,,0,2,2,6,,,,,,,,,,,,,,,AMSA07.jpg,AMNE14.jpg,AMNE07.jpg,AMSA20.jpg,AMSA07.jpg,MS,2,num_8,16,num_8,0.983472314896,,,2017_May_09_1207,60.003367926,MAFE4ImagesEEG,001,200341,
AMSA25.JPG,AMNE24.JPG,AMSA24.JPG,AMNE26.JPG,AMSA21.JPG,AMNE25.JPG,,,,,,,,,0,3,3,3,,,,,,,,,,,,,,,AMSA13.jpg,AMNE10.jpg,AMSA07.jpg,AMNE11.jpg,AMSA13.jpg,MS,2,num_8,32,num_4,0.883527770638,,,2017_May_09_1207,60.003367926,MAFE4ImagesEEG,001,200341,
AMSA21.JPG,AMNE23.JPG,AMNE21.JPG,AMSA25.JPG,AMNE25.JPG,AMSA23.JPG,,,,,,,,,0,4,4,5,,,,,,,,,,,,,,,AMSA06.jpg,AMSA07.jpg,AMNE01.jpg,AMNE12.jpg,AMSA07.jpg,MS,2,num_6,32,num_2,2.59997036378,,,2017_May_09_1207,60.003367926,MAFE4ImagesEEG,001,200341,
AFSA21.JPG,AFNE22.JPG,AFNE21.JPG,AFSA23.JPG,AFSA22.JPG,AFNE23.JPG,,,,,,,,,0,5,5,0,,,,,,,,,,,,,,,AMSA19.jpg,AMNE13.jpg,AMNE15.jpg,AMSA14.jpg,AMNE15.jpg,MN,1,num_2,16,num_2,0.833435702603,,,2017_May_09_1207,60.003367926,MAFE4ImagesEEG,001,200341,
AFSA21.JPG,AFNE23.JPG,AFNE21.JPG,AFSA25.JPG,AFNE25.JPG,AFSA23.JPG,,,,,,,,,0,6,6,4,,,,,,,,,,,,,,,AMSA08.jpg,AMSA17.jpg,AMNE08.jpg,AMNE09.jpg,AMNE08.jpg,MN,1,num_2,32,num_4,0.833492152626,,,2017_May_09_1207,60.003367926,MAFE4ImagesEEG,001,200341,
AFNE23.JPG,AFNE24.JPG,AFNE22.JPG,AFSA24.JPG,AFSA22.JPG,AFSA23.JPG,,,,,,,,,0,7,7,8,,,,,,,,,,,,,,,AMSA01.jpg,AMSA17.jpg,AMNE06.jpg,AMNE09.jpg,AMNE09.jpg,MN,1,num_4,16,num_4,0.783442422049,,,2017_May_09_1207,60.003367926,MAFE4ImagesEEG,001,200341,
AFSA25.JPG,AFNE24.JPG,AFSA24.JPG,AFNE21.JPG,AFSA21.JPG,AFNE25.JPG,,,,,,,,,0,8,8,2,,,,,,,,,,,,,,,AMNE06.jpg,AMNE01.jpg,AMSA02.jpg,AMSA03.jpg,AMSA03.jpg,MS,2,num_4,32,num_2,1.06674003042,,,2017_May_09_1207,60.003367926,MAFE4ImagesEEG,001,200341,
AMNE23.JPG,AMNE24.JPG,AMNE22.JPG,AMSA24.JPG,AMSA22.JPG,AMSA23.JPG,,,,,,,,,0,9,9,9,,,,,,,,,,,,,,,AMSA10.jpg,AMNE09.jpg,AMSA04.jpg,AMNE02.jpg,AMSA04.jpg,MS,2,num_2,32,num_4,1.01664154744,,,2017_May_09_1207,60.003367926,MAFE4ImagesEEG,001,200341,
AMSA25.JPG,AMNE24.JPG,AMSA24.JPG,AMNE26.JPG,AMSA21.JPG,AMNE25.JPG,,,,,,,,,,,,,0,0,0,3,,,,,,,,,,,AFNE03.jpg,AFSA07.jpg,AFSA08.jpg,AFNE15.jpg,AFNE03.jpg,FN,3,num_8,16,num_8,0.483145962935,,,2017_May_09_1207,60.003367926,MAFE4ImagesEEG,001,200341,
AFNE23.JPG,AFNE24.JPG,AFNE22.JPG,AFSA24.JPG,AFSA22.JPG,AFSA23.JPG,,,,,,,,,,,,,0,1,1,8,,,,,,,,,,,AFNE15.jpg,AFNE09.jpg,AFSA17.jpg,AFSA14.jpg,AFNE15.jpg,FN,3,num_8,16,num_8,0.616772922222,,,2017_May_09_1207,60.003367926,MAFE4ImagesEEG,001,200341,
AMNE23.JPG,AMNE24.JPG,AMNE22.JPG,AMSA24.JPG,AMSA22.JPG,AMSA23.JPG,,,,,,,,,,,,,0,2,2,9,,,,,,,,,,,AFNE15.jpg,AFSA07.jpg,AFNE02.jpg,AFSA02.jpg,AFSA02.jpg,FS,4,num_4,16,num_4,1.38338648528,,,2017_May_09_1207,60.003367926,MAFE4ImagesEEG,001,200341,
AFSA25.JPG,AFNE24.JPG,AFSA24.JPG,AFNE21.JPG,AFSA21.JPG,AFNE25.JPG,,,,,,,,,,,,,0,3,3,2,,,,,,,,,,,AFNE03.jpg,AFSA20.jpg,AFNE04.jpg,AFSA07.jpg,AFNE03.jpg,FN,3,num_8,16,num_8,0.683452653466,,,2017_May_09_1207,60.003367926,MAFE4ImagesEEG,001,200341,
AMNE22.JPG,AMSA24.JPG,AMSA22.JPG,AMNE25.JPG,AMNE24.JPG,AMSA25.JPG,,,,,,,,,,,,,0,4,4,7,,,,,,,,,,,AFNE01.jpg,AFSA10.jpg,AFSA13.jpg,AFNE11.jpg,AFNE01.jpg,FN,3,num_8,16,num_8,0.783466156805,,,2017_May_09_1207,60.003367926,MAFE4ImagesEEG,001,200341,
AFNE22.JPG,AFSA24.JPG,AFSA22.JPG,AFNE25.JPG,AFNE24.JPG,AFSA25.JPG,,,,,,,,,,,,,0,5,5,6,,,,,,,,,,,AFSA12.jpg,AFNE01.jpg,AFSA11.jpg,AFNE07.jpg,AFNE01.jpg,FN,3,num_6,32,num_4,2.06665150635,,,2017_May_09_1207,60.003367926,MAFE4ImagesEEG,001,200341,
AFSA21.JPG,AFNE22.JPG,AFNE21.JPG,AFSA23.JPG,AFSA22.JPG,AFNE23.JPG,,,,,,,,,,,,,0,6,6,0,,,,,,,,,,,AFSA16.jpg,AFSA09.jpg,AFNE17.jpg,AFNE16.jpg,AFNE16.jpg,FN,3,num_4,16,num_4,0.766860852716,,,2017_May_09_1207,60.003367926,MAFE4ImagesEEG,001,200341,
AMSA21.JPG,AMNE23.JPG,AMNE21.JPG,AMSA25.JPG,AMNE25.JPG,AMSA23.JPG,,,,,,,,,,,,,0,7,7,5,,,,,,,,,,,AFNE12.jpg,AFNE20.jpg,AFSA08.jpg,AFSA18.jpg,AFNE12.jpg,FN,3,num_8,16,num_8,0.550127188908,,,2017_May_09_1207,60.003367926,MAFE4ImagesEEG,001,200341,
AMSA21.JPG,AMNE22.JPG,AMNE21.JPG,AMSA23.JPG,AMSA22.JPG,AMNE23.JPG,,,,,,,,,,,,,0,8,8,1,,,,,,,,,,,AFNE10.jpg,AFNE18.jpg,AFSA17.jpg,AFSA12.jpg,AFNE18.jpg,FN,3,num_6,16,num_6,1.1500965904,,,2017_May_09_1207,60.003367926,MAFE4ImagesEEG,001,200341,
AFSA21.JPG,AFNE23.JPG,AFNE21.JPG,AFSA25.JPG,AFNE25.JPG,AFSA23.JPG,,,,,,,,,,,,,0,9,9,4,,,,,,,,,,,AFNE11.jpg,AFSA09.jpg,AFNE06.jpg,AFSA10.jpg,AFSA10.jpg,FS,4,num_4,16,num_4,0.91677141469,,,2017_May_09_1207,60.003367926,MAFE4ImagesEEG,001,200341,
AMSA21.JPG,AMNE22.JPG,AMNE21.JPG,AMSA23.JPG,AMSA22.JPG,AMNE23.JPG,,,,,,,,,,,,,,,,,0,0,0,1,,,,,,,AMNE05.jpg,AMSA06.jpg,AMNE09.jpg,AMSA08.jpg,AMNE05.jpg,MN,1,num_8,16,num_8,0.900115754688,,,2017_May_09_1207,60.003367926,MAFE4ImagesEEG,001,200341,
AFSA25.JPG,AFNE24.JPG,AFSA24.JPG,AFNE21.JPG,AFSA21.JPG,AFNE25.JPG,,,,,,,,,,,,,,,,,0,1,1,2,,,,,,,AMNE04.jpg,AMSA16.jpg,AMSA15.jpg,AMNE15.jpg,AMNE15.jpg,MN,1,num_4,32,num_8,1.20011777524,,,2017_May_09_1207,60.003367926,MAFE4ImagesEEG,001,200341,
AMNE23.JPG,AMNE24.JPG,AMNE22.JPG,AMSA24.JPG,AMSA22.JPG,AMSA23.JPG,,,,,,,,,,,,,,,,,0,2,2,9,,,,,,,AMNE16.jpg,AMSA15.jpg,AMNE05.jpg,AMSA17.jpg,AMSA17.jpg,MS,2,num_4,16,num_4,0.900132112438,,,2017_May_09_1207,60.003367926,MAFE4ImagesEEG,001,200341,
AFNE22.JPG,AFSA24.JPG,AFSA22.JPG,AFNE25.JPG,AFNE24.JPG,AFSA25.JPG,,,,,,,,,,,,,,,,,0,3,3,6,,,,,,,AMSA01.jpg,AMNE05.jpg,AMNE01.jpg,AMSA15.jpg,AMSA15.jpg,MS,2,num_4,16,num_4,0.683463879395,,,2017_May_09_1207,60.003367926,MAFE4ImagesEEG,001,200341,
AFSA21.JPG,AFNE23.JPG,AFNE21.JPG,AFSA25.JPG,AFNE25.JPG,AFSA23.JPG,,,,,,,,,,,,,,,,,0,4,4,4,,,,,,,AMNE17.jpg,AMNE15.jpg,AMSA16.jpg,AMSA13.jpg,AMNE17.jpg,MN,1,num_8,16,num_8,0.700142312096,,,2017_May_09_1207,60.003367926,MAFE4ImagesEEG,001,200341,
AFSA21.JPG,AFNE22.JPG,AFNE21.JPG,AFSA23.JPG,AFSA22.JPG,AFNE23.JPG,,,,,,,,,,,,,,,,,0,5,5,0,,,,,,,AMSA16.jpg,AMNE07.jpg,AMNE04.jpg,AMSA06.jpg,AMNE04.jpg,MN,1,num_2,32,num_4,0.833513321588,,,2017_May_09_1207,60.003367926,MAFE4ImagesEEG,001,200341,
AMNE22.JPG,AMSA24.JPG,AMSA22.JPG,AMNE25.JPG,AMNE24.JPG,AMSA25.JPG,,,,,,,,,,,,,,,,,0,6,6,7,,,,,,,AMNE17.jpg,AMNE05.jpg,AMSA03.jpg,AMSA09.jpg,AMSA09.jpg,MS,2,num_4,16,num_4,0.66686370736,,,2017_May_09_1207,60.003367926,MAFE4ImagesEEG,001,200341,
AMSA21.JPG,AMNE23.JPG,AMNE21.JPG,AMSA25.JPG,AMNE25.JPG,AMSA23.JPG,,,,,,,,,,,,,,,,,0,7,7,5,,,,,,,AMNE19.jpg,AMSA14.jpg,AMNE03.jpg,AMSA17.jpg,AMSA14.jpg,MS,2,num_6,16,num_6,0.483567414107,,,2017_May_09_1207,60.003367926,MAFE4ImagesEEG,001,200341,
AFNE23.JPG,AFNE24.JPG,AFNE22.JPG,AFSA24.JPG,AFSA22.JPG,AFSA23.JPG,,,,,,,,,,,,,,,,,0,8,8,8,,,,,,,AMSA20.jpg,AMNE09.jpg,AMNE20.jpg,AMSA02.jpg,AMNE20.jpg,MN,1,num_2,32,num_8,0.616792487213,,,2017_May_09_1207,60.003367926,MAFE4ImagesEEG,001,200341,
AMSA25.JPG,AMNE24.JPG,AMSA24.JPG,AMNE26.JPG,AMSA21.JPG,AMNE25.JPG,,,,,,,,,,,,,,,,,0,9,9,3,,,,,,,AMNE10.jpg,AMSA14.jpg,AMSA16.jpg,AMNE04.jpg,AMSA14.jpg,MS,2,num_6,32,num_2,1.2001120022,,,2017_May_09_1207,60.003367926,MAFE4ImagesEEG,001,200341,
AMSA25.JPG,AMNE24.JPG,AMSA24.JPG,AMNE26.JPG,AMSA21.JPG,AMNE25.JPG,,,,,,,,,,,,,,,,,,,,,0,0,0,3,,,AFSA15.jpg,AFSA17.jpg,AFNE19.jpg,AFNE14.jpg,AFSA17.jpg,FS,4,num_6,16,num_6,0.750098065939,,,2017_May_09_1207,60.003367926,MAFE4ImagesEEG,001,200341,
AMNE23.JPG,AMNE24.JPG,AMNE22.JPG,AMSA24.JPG,AMSA22.JPG,AMSA23.JPG,,,,,,,,,,,,,,,,,,,,,0,1,1,9,,,AFSA04.jpg,AFNE17.jpg,AFNE19.jpg,AFSA05.jpg,AFSA05.jpg,FS,4,num_4,16,num_4,0.983416506322,,,2017_May_09_1207,60.003367926,MAFE4ImagesEEG,001,200341,
AFNE23.JPG,AFNE24.JPG,AFNE22.JPG,AFSA24.JPG,AFSA22.JPG,AFSA23.JPG,,,,,,,,,,,,,,,,,,,,,0,2,2,8,,,AFNE03.jpg,AFNE11.jpg,AFSA15.jpg,AFSA10.jpg,AFSA15.jpg,FS,4,num_2,32,num_4,1.13341687503,,,2017_May_09_1207,60.003367926,MAFE4ImagesEEG,001,200341,
AMSA21.JPG,AMNE23.JPG,AMNE21.JPG,AMSA25.JPG,AMNE25.JPG,AMSA23.JPG,,,,,,,,,,,,,,,,,,,,,0,3,3,5,,,AFSA17.jpg,AFNE20.jpg,AFSA19.jpg,AFNE02.jpg,AFSA19.jpg,FS,4,num_2,16,num_2,1.66652115807,,,2017_May_09_1207,60.003367926,MAFE4ImagesEEG,001,200341,
AMNE22.JPG,AMSA24.JPG,AMSA22.JPG,AMNE25.JPG,AMNE24.JPG,AMSA25.JPG,,,,,,,,,,,,,,,,,,,,,0,4,4,7,,,AFNE17.jpg,AFSA08.jpg,AFNE18.jpg,AFSA13.jpg,AFNE17.jpg,FN,3,num_8,32,num_4,0.633474768605,,,2017_May_09_1207,60.003367926,MAFE4ImagesEEG,001,200341,
AFSA21.JPG,AFNE23.JPG,AFNE21.JPG,AFSA25.JPG,AFNE25.JPG,AFSA23.JPG,,,,,,,,,,,,,,,,,,,,,0,5,5,4,,,AFNE09.jpg,AFNE03.jpg,AFSA18.jpg,AFSA12.jpg,AFNE03.jpg,FN,3,num_6,32,num_4,0.88346875459,,,2017_May_09_1207,60.003367926,MAFE4ImagesEEG,001,200341,
AFSA21.JPG,AFNE22.JPG,AFNE21.JPG,AFSA23.JPG,AFSA22.JPG,AFNE23.JPG,,,,,,,,,,,,,,,,,,,,,0,6,6,0,,,AFNE01.jpg,AFSA14.jpg,AFNE15.jpg,AFSA13.jpg,AFSA13.jpg,FS,4,num_4,16,num_4,0.766860211501,,,2017_May_09_1207,60.003367926,MAFE4ImagesEEG,001,200341,
AFSA25.JPG,AFNE24.JPG,AFSA24.JPG,AFNE21.JPG,AFSA21.JPG,AFNE25.JPG,,,,,,,,,,,,,,,,,,,,,0,7,7,2,,,AFNE01.jpg,AFSA15.jpg,AFNE02.jpg,AFSA16.jpg,AFNE01.jpg,FN,3,num_8,32,num_4,0.983362301486,,,2017_May_09_1207,60.003367926,MAFE4ImagesEEG,001,200341,
AFNE22.JPG,AFSA24.JPG,AFSA22.JPG,AFNE25.JPG,AFNE24.JPG,AFSA25.JPG,,,,,,,,,,,,,,,,,,,,,0,8,8,6,,,AFSA07.jpg,AFNE06.jpg,AFNE04.jpg,AFSA17.jpg,AFSA07.jpg,FS,4,num_8,32,num_4,0.683417372173,,,2017_May_09_1207,60.003367926,MAFE4ImagesEEG,001,200341,
AMSA21.JPG,AMNE22.JPG,AMNE21.JPG,AMSA23.JPG,AMSA22.JPG,AMNE23.JPG,,,,,,,,,,,,,,,,,,,,,0,9,9,1,,,AFSA14.jpg,AFNE08.jpg,AFSA18.jpg,AFNE09.jpg,AFSA18.jpg,FS,4,num_2,32,num_8,0.716776803136,,,2017_May_09_1207,60.003367926,MAFE4ImagesEEG,001,200341,
,,,,,,,,,,,,,,,,,,,,,,,,,,,,,,,,,,,,,,,,,,,space,5.98301397869,2017_May_09_1207,60.003367926,MAFE4ImagesEEG,001,200341,
AFNE01.JPG,AFNE01.JPG,AFNE01.JPG,AFNE01.JPG,AFNE01.JPG,AFNE01.JPG,0,0,0,3,,,,,,,,,,,,,,,,,,,,,,,AMNE08.jpg,AMSA04.jpg,AMNE05.jpg,AMSA05.jpg,AMSA04.jpg,MS,2,num_6,16,num_6,0.350175235653,,,2017_May_09_1207,60.003367926,MAFE4ImagesEEG,001,200341,
AFNE01.JPG,AFNE01.JPG,AFNE01.JPG,AFNE01.JPG,AFNE01.JPG,AFNE01.JPG,0,1,1,4,,,,,,,,,,,,,,,,,,,,,,,AMSA16.jpg,AMSA04.jpg,AMNE09.jpg,AMNE12.jpg,AMNE09.jpg,MN,1,num_2,16,num_2,0.8001243826,,,2017_May_09_1207,60.003367926,MAFE4ImagesEEG,001,200341,
AFNE01.JPG,AFNE01.JPG,AFNE01.JPG,AFNE01.JPG,AFNE01.JPG,AFNE01.JPG,0,2,2,9,,,,,,,,,,,,,,,,,,,,,,,AMSA19.jpg,AMNE08.jpg,AMNE05.jpg,AMSA01.jpg,AMNE08.jpg,MN,1,num_6,32,num_4,0.683484406909,,,2017_May_09_1207,60.003367926,MAFE4ImagesEEG,001,200341,
AFNE01.JPG,AFNE01.JPG,AFNE01.JPG,AFNE01.JPG,AFNE01.JPG,AFNE01.JPG,0,3,3,8,,,,,,,,,,,,,,,,,,,,,,,AMNE09.jpg,AMNE19.jpg,AMSA15.jpg,AMSA16.jpg,AMSA15.jpg,MS,2,num_2,16,num_2,0.700114728417,,,2017_May_09_1207,60.003367926,MAFE4ImagesEEG,001,200341,
AFNE01.JPG,AFNE01.JPG,AFNE01.JPG,AFNE01.JPG,AFNE01.JPG,AFNE01.JPG,0,4,4,0,,,,,,,,,,,,,,,,,,,,,,,AMNE11.jpg,AMSA07.jpg,AMSA13.jpg,AMNE18.jpg,AMSA13.jpg,MS,2,num_2,16,num_2,0.966719471151,,,2017_May_09_1207,60.003367926,MAFE4ImagesEEG,001,200341,
AFNE01.JPG,AFNE01.JPG,AFNE01.JPG,AFNE01.JPG,AFNE01.JPG,AFNE01.JPG,0,5,5,6,,,,,,,,,,,,,,,,,,,,,,,AMNE14.jpg,AMSA19.jpg,AMNE03.jpg,AMSA04.jpg,AMSA04.jpg,MS,2,num_4,32,num_6,0.633478617296,,,2017_May_09_1207,60.003367926,MAFE4ImagesEEG,001,200341,
AFNE01.JPG,AFNE01.JPG,AFNE01.JPG,AFNE01.JPG,AFNE01.JPG,AFNE01.JPG,0,6,6,7,,,,,,,,,,,,,,,,,,,,,,,AMSA04.jpg,AMNE16.jpg,AMSA03.jpg,AMNE05.jpg,AMNE05.jpg,MN,1,num_4,16,num_4,0.700190422824,,,2017_May_09_1207,60.003367926,MAFE4ImagesEEG,001,200341,
AFNE01.JPG,AFNE01.JPG,AFNE01.JPG,AFNE01.JPG,AFNE01.JPG,AFNE01.JPG,0,7,7,1,,,,,,,,,,,,,,,,,,,,,,,AMSA17.jpg,AMSA01.jpg,AMNE18.jpg,AMNE10.jpg,AMSA17.jpg,MS,2,num_8,32,num_6,0.583452300867,,,2017_May_09_1207,60.003367926,MAFE4ImagesEEG,001,200341,
AFNE01.JPG,AFNE01.JPG,AFNE01.JPG,AFNE01.JPG,AFNE01.JPG,AFNE01.JPG,0,8,8,2,,,,,,,,,,,,,,,,,,,,,,,AMNE19.jpg,AMNE09.jpg,AMSA18.jpg,AMSA12.jpg,AMSA12.jpg,MS,2,num_4,32,num_2,0.683486652095,,,2017_May_09_1207,60.003367926,MAFE4ImagesEEG,001,200341,
AFNE01.JPG,AFNE01.JPG,AFNE01.JPG,AFNE01.JPG,AFNE01.JPG,AFNE01.JPG,0,9,9,5,,,,,,,,,,,,,,,,,,,,,,,AMSA05.jpg,AMNE16.jpg,AMNE13.jpg,AMSA08.jpg,AMSA05.jpg,MS,2,num_8,16,num_8,0.850117983995,,,2017_May_09_1207,60.003367926,MAFE4ImagesEEG,001,200341,
AFNE01.JPG,AFNE01.JPG,AFNE01.JPG,AFNE01.JPG,AFNE01.JPG,AFNE01.JPG,1,0,10,6,,,,,,,,,,,,,,,,,,,,,,,AMNE08.jpg,AMSA09.jpg,AMNE09.jpg,AMSA20.jpg,AMSA09.jpg,MS,2,num_6,32,num_4,0.333334188676,,,2017_May_09_1207,60.003367926,MAFE4ImagesEEG,001,200341,
AFNE01.JPG,AFNE01.JPG,AFNE01.JPG,AFNE01.JPG,AFNE01.JPG,AFNE01.JPG,1,1,11,5,,,,,,,,,,,,,,,,,,,,,,,AMSA14.jpg,AMSA20.jpg,AMNE05.jpg,AMNE11.jpg,AMSA14.jpg,MS,2,num_8,16,num_8,0.650124975946,,,2017_May_09_1207,60.003367926,MAFE4ImagesEEG,001,200341,
AFNE01.JPG,AFNE01.JPG,AFNE01.JPG,AFNE01.JPG,AFNE01.JPG,AFNE01.JPG,1,2,12,0,,,,,,,,,,,,,,,,,,,,,,,AMNE17.jpg,AMSA17.jpg,AMSA06.jpg,AMNE01.jpg,AMSA17.jpg,MS,2,num_6,16,num_6,0.833469059318,,,2017_May_09_1207,60.003367926,MAFE4ImagesEEG,001,200341,
AFNE01.JPG,AFNE01.JPG,AFNE01.JPG,AFNE01.JPG,AFNE01.JPG,AFNE01.JPG,1,3,13,7,,,,,,,,,,,,,,,,,,,,,,,AMNE04.jpg,AMSA03.jpg,AMSA06.jpg,AMNE13.jpg,AMNE04.jpg,MN,1,num_8,16,num_8,0.600175957428,,,2017_May_09_1207,60.003367926,MAFE4ImagesEEG,001,200341,
AFNE01.JPG,AFNE01.JPG,AFNE01.JPG,AFNE01.JPG,AFNE01.JPG,AFNE01.JPG,1,4,14,8,,,,,,,,,,,,,,,,,,,,,,,AMSA19.jpg,AMSA04.jpg,AMNE03.jpg,AMNE17.jpg,AMSA04.jpg,MS,2,num_6,16,num_6,0.550119491294,,,2017_May_09_1207,60.003367926,MAFE4ImagesEEG,001,200341,
AFNE01.JPG,AFNE01.JPG,AFNE01.JPG,AFNE01.JPG,AFNE01.JPG,AFNE01.JPG,1,5,15,9,,,,,,,,,,,,,,,,,,,,,,,AMSA11.jpg,AMNE14.jpg,AMSA02.jpg,AMNE12.jpg,AMNE12.jpg,MN,1,num_4,16,num_4,0.450132930418,,,2017_May_09_1207,60.003367926,MAFE4ImagesEEG,001,200341,
AFNE01.JPG,AFNE01.JPG,AFNE01.JPG,AFNE01.JPG,AFNE01.JPG,AFNE01.JPG,1,6,16,3,,,,,,,,,,,,,,,,,,,,,,,AMSA12.jpg,AMSA03.jpg,AMNE09.jpg,AMNE03.jpg,AMNE09.jpg,MN,1,num_2,16,num_2,0.750138158444,,,2017_May_09_1207,60.003367926,MAFE4ImagesEEG,001,200341,
AFNE01.JPG,AFNE01.JPG,AFNE01.JPG,AFNE01.JPG,AFNE01.JPG,AFNE01.JPG,1,7,17,2,,,,,,,,,,,,,,,,,,,,,,,AMNE09.jpg,AMNE05.jpg,AMSA09.jpg,AMSA05.jpg,AMSA09.jpg,MS,2,num_2,32,num_6,0.666823294247,,,2017_May_09_1207,60.003367926,MAFE4ImagesEEG,001,200341,
AFNE01.JPG,AFNE01.JPG,AFNE01.JPG,AFNE01.JPG,AFNE01.JPG,AFNE01.JPG,1,8,18,1,,,,,,,,,,,,,,,,,,,,,,,AMSA13.jpg,AMNE03.jpg,AMSA07.jpg,AMNE19.jpg,AMSA13.jpg,MS,2,num_8,32,num_6,1.09997597663,,,2017_May_09_1207,60.003367926,MAFE4ImagesEEG,001,200341,
AFNE01.JPG,AFNE01.JPG,AFNE01.JPG,AFNE01.JPG,AFNE01.JPG,AFNE01.JPG,1,9,19,4,,,,,,,,,,,,,,,,,,,,,,,AMNE03.jpg,AMNE07.jpg,AMSA08.jpg,AMSA01.jpg,AMSA01.jpg,MS,2,num_4,16,num_4,1.00008692034,,,2017_May_09_1207,60.003367926,MAFE4ImagesEEG,001,200341,
AFNE01.JPG,AFNE01.JPG,AFNE01.JPG,AFNE01.JPG,AFNE01.JPG,AFNE01.JPG,2,0,20,7,,,,,,,,,,,,,,,,,,,,,,,AMNE17.jpg,AMNE15.jpg,AMSA19.jpg,AMSA18.jpg,AMNE17.jpg,MN,1,num_8,16,num_8,0.750110895606,,,2017_May_09_1207,60.003367926,MAFE4ImagesEEG,001,200341,
AFNE01.JPG,AFNE01.JPG,AFNE01.JPG,AFNE01.JPG,AFNE01.JPG,AFNE01.JPG,2,1,21,2,,,,,,,,,,,,,,,,,,,,,,,AMNE13.jpg,AMSA03.jpg,AMNE19.jpg,AMSA07.jpg,AMSA03.jpg,MS,2,num_6,16,num_6,0.733437594958,,,2017_May_09_1207,60.003367926,MAFE4ImagesEEG,001,200341,
AFNE01.JPG,AFNE01.JPG,AFNE01.JPG,AFNE01.JPG,AFNE01.JPG,AFNE01.JPG,2,2,22,4,,,,,,,,,,,,,,,,,,,,,,,AMNE12.jpg,AMSA17.jpg,AMNE05.jpg,AMSA04.jpg,AMNE05.jpg,MN,1,num_2,32,num_8,0.766752443044,,,2017_May_09_1207,60.003367926,MAFE4ImagesEEG,001,200341,
AFNE01.JPG,AFNE01.JPG,AFNE01.JPG,AFNE01.JPG,AFNE01.JPG,AFNE01.JPG,2,3,23,6,,,,,,,,,,,,,,,,,,,,,,,AMNE13.jpg,AMSA18.jpg,AMNE08.jpg,AMSA14.jpg,AMNE13.jpg,MN,1,num_8,16,num_8,0.483528604731,,,2017_May_09_1207,60.003367926,MAFE4ImagesEEG,001,200341,
AFNE01.JPG,AFNE01.JPG,AFNE01.JPG,AFNE01.JPG,AFNE01.JPG,AFNE01.JPG,2,4,24,5,,,,,,,,,,,,,,,,,,,,,,,AMSA10.jpg,AMNE11.jpg,AMSA08.jpg,AMNE08.jpg,AMNE08.jpg,MN,1,num_4,16,num_4,0.816736101406,,,2017_May_09_1207,60.003367926,MAFE4ImagesEEG,001,200341,
AFNE01.JPG,AFNE01.JPG,AFNE01.JPG,AFNE01.JPG,AFNE01.JPG,AFNE01.JPG,2,5,25,3,,,,,,,,,,,,,,,,,,,,,,,AMSA11.jpg,AMSA07.jpg,AMNE13.jpg,AMNE11.jpg,AMSA11.jpg,MS,2,num_8,16,num_8,0.500233017141,,,2017_May_09_1207,60.003367926,MAFE4ImagesEEG,001,200341,
AFNE01.JPG,AFNE01.JPG,AFNE01.JPG,AFNE01.JPG,AFNE01.JPG,AFNE01.JPG,2,6,26,8,,,,,,,,,,,,,,,,,,,,,,,AMNE04.jpg,AMNE17.jpg,AMSA02.jpg,AMSA16.jpg,AMNE17.jpg,MN,1,num_6,16,num_6,0.633451033849,,,2017_May_09_1207,60.003367926,MAFE4ImagesEEG,001,200341,
AFNE01.JPG,AFNE01.JPG,AFNE01.JPG,AFNE01.JPG,AFNE01.JPG,AFNE01.JPG,2,7,27,0,,,,,,,,,,,,,,,,,,,,,,,AMSA03.jpg,AMNE08.jpg,AMNE01.jpg,AMSA05.jpg,AMNE01.jpg,MN,1,num_2,32,num_8,0.566817168146,,,2017_May_09_1207,60.003367926,MAFE4ImagesEEG,001,200341,
AFNE01.JPG,AFNE01.JPG,AFNE01.JPG,AFNE01.JPG,AFNE01.JPG,AFNE01.JPG,2,8,28,9,,,,,,,,,,,,,,,,,,,,,,,AMSA04.jpg,AMNE07.jpg,AMNE08.jpg,AMSA10.jpg,AMNE08.jpg,MN,1,num_2,32,num_4,0.700117294211,,,2017_May_09_1207,60.003367926,MAFE4ImagesEEG,001,200341,
AFNE01.JPG,AFNE01.JPG,AFNE01.JPG,AFNE01.JPG,AFNE01.JPG,AFNE01.JPG,2,9,29,1,,,,,,,,,,,,,,,,,,,,,,,AMNE13.jpg,AMSA04.jpg,AMNE09.jpg,AMSA01.jpg,AMSA01.jpg,MS,2,num_4,32,num_6,0.916773659876,,,2017_May_09_1207,60.003367926,MAFE4ImagesEEG,001,200341,
AFNE01.JPG,AFNE01.JPG,AFNE01.JPG,AFNE01.JPG,AFNE01.JPG,AFNE01.JPG,3,0,30,9,,,,,,,,,,,,,,,,,,,,,,,AMNE19.jpg,AMSA20.jpg,AMSA02.jpg,AMNE03.jpg,AMSA02.jpg,MS,2,num_2,16,num_2,0.616793128662,,,2017_May_09_1207,60.003367926,MAFE4ImagesEEG,001,200341,
AFNE01.JPG,AFNE01.JPG,AFNE01.JPG,AFNE01.JPG,AFNE01.JPG,AFNE01.JPG,3,1,31,6,,,,,,,,,,,,,,,,,,,,,,,AMNE15.jpg,AMSA20.jpg,AMNE11.jpg,AMSA03.jpg,AMSA03.jpg,MS,2,num_4,32,num_6,1.30006520613,,,2017_May_09_1207,60.003367926,MAFE4ImagesEEG,001,200341,
AFNE01.JPG,AFNE01.JPG,AFNE01.JPG,AFNE01.JPG,AFNE01.JPG,AFNE01.JPG,3,2,32,3,,,,,,,,,,,,,,,,,,,,,,,AMNE20.jpg,AMSA18.jpg,AMNE12.jpg,AMSA17.jpg,AMNE12.jpg,MN,1,num_2,32,num_8,0.783445308683,,,2017_May_09_1207,60.003367926,MAFE4ImagesEEG,001,200341,
AFNE01.JPG,AFNE01.JPG,AFNE01.JPG,AFNE01.JPG,AFNE01.JPG,AFNE01.JPG,3,3,33,0,,,,,,,,,,,,,,,,,,,,,,,AMSA18.jpg,AMNE15.jpg,AMSA19.jpg,AMNE13.jpg,AMNE15.jpg,MN,1,num_6,16,num_6,0.566801131237,,,2017_May_09_1207,60.003367926,MAFE4ImagesEEG,001,200341,
AFNE01.JPG,AFNE01.JPG,AFNE01.JPG,AFNE01.JPG,AFNE01.JPG,AFNE01.JPG,3,4,34,8,,,,,,,,,,,,,,,,,,,,,,,AMNE10.jpg,AMSA02.jpg,AMSA08.jpg,AMNE06.jpg,AMSA08.jpg,MS,2,num_2,32,num_4,0.333551970311,,,2017_May_09_1207,60.003367926,MAFE4ImagesEEG,001,200341,
AFNE01.JPG,AFNE01.JPG,AFNE01.JPG,AFNE01.JPG,AFNE01.JPG,AFNE01.JPG,3,5,35,1,,,,,,,,,,,,,,,,,,,,,,,AMSA19.jpg,AMNE20.jpg,AMNE09.jpg,AMSA06.jpg,AMSA19.jpg,MS,2,num_8,32,num_6,0.750117951771,,,2017_May_09_1207,60.003367926,MAFE4ImagesEEG,001,200341,
AFNE01.JPG,AFNE01.JPG,AFNE01.JPG,AFNE01.JPG,AFNE01.JPG,AFNE01.JPG,3,6,36,5,,,,,,,,,,,,,,,,,,,,,,,AMSA19.jpg,AMSA20.jpg,AMNE02.jpg,AMNE20.jpg,AMNE20.jpg,MN,1,num_4,16,num_4,0.53337562806,,,2017_May_09_1207,60.003367926,MAFE4ImagesEEG,001,200341,
AFNE01.JPG,AFNE01.JPG,AFNE01.JPG,AFNE01.JPG,AFNE01.JPG,AFNE01.JPG,3,7,37,4,,,,,,,,,,,,,,,,,,,,,,,AMSA03.jpg,AMNE09.jpg,AMNE08.jpg,AMSA18.jpg,AMSA03.jpg,MS,2,num_8,16,num_8,1.26658838475,,,2017_May_09_1207,60.003367926,MAFE4ImagesEEG,001,200341,
AFNE01.JPG,AFNE01.JPG,AFNE01.JPG,AFNE01.JPG,AFNE01.JPG,AFNE01.JPG,3,8,38,2,,,,,,,,,,,,,,,,,,,,,,,AMSA10.jpg,AMNE18.jpg,AMSA09.jpg,AMNE14.jpg,AMSA09.jpg,MS,2,num_2,16,num_2,1.11651168019,,,2017_May_09_1207,60.003367926,MAFE4ImagesEEG,001,200341,
AFNE01.JPG,AFNE01.JPG,AFNE01.JPG,AFNE01.JPG,AFNE01.JPG,AFNE01.JPG,3,9,39,7,,,,,,,,,,,,,,,,,,,,,,,AMSA14.jpg,AMSA01.jpg,AMNE10.jpg,AMNE05.jpg,AMNE10.jpg,MN,1,num_2,32,num_4,1.0001023158,,,2017_May_09_1207,60.003367926,MAFE4ImagesEEG,001,200341,
AFNE01.JPG,AFNE01.JPG,AFNE01.JPG,AFNE01.JPG,AFNE01.JPG,AFNE01.JPG,4,0,40,4,,,,,,,,,,,,,,,,,,,,,,,AMSA01.jpg,AMSA11.jpg,AMNE03.jpg,AMNE08.jpg,AMSA11.jpg,MS,2,num_6,16,num_6,1.16671728995,,,2017_May_09_1207,60.003367926,MAFE4ImagesEEG,001,200341,
AFNE01.JPG,AFNE01.JPG,AFNE01.JPG,AFNE01.JPG,AFNE01.JPG,AFNE01.JPG,4,1,41,3,,,,,,,,,,,,,,,,,,,,,,,AMNE17.jpg,AMSA17.jpg,AMNE03.jpg,AMSA19.jpg,AMNE17.jpg,MN,1,num_8,16,num_8,0.566770981764,,,2017_May_09_1207,60.003367926,MAFE4ImagesEEG,001,200341,
AFNE01.JPG,AFNE01.JPG,AFNE01.JPG,AFNE01.JPG,AFNE01.JPG,AFNE01.JPG,4,2,42,5,,,,,,,,,,,,,,,,,,,,,,,AMSA01.jpg,AMSA08.jpg,AMNE02.jpg,AMNE09.jpg,AMSA01.jpg,MS,2,num_8,16,num_8,1.03342999332,,,2017_May_09_1207,60.003367926,MAFE4ImagesEEG,001,200341,
AFNE01.JPG,AFNE01.JPG,AFNE01.JPG,AFNE01.JPG,AFNE01.JPG,AFNE01.JPG,4,3,43,2,,,,,,,,,,,,,,,,,,,,,,,AMSA06.jpg,AMSA05.jpg,AMNE16.jpg,AMNE12.jpg,AMNE16.jpg,MN,1,num_2,32,num_6,0.800126948627,,,2017_May_09_1207,60.003367926,MAFE4ImagesEEG,001,200341,
AFNE01.JPG,AFNE01.JPG,AFNE01.JPG,AFNE01.JPG,AFNE01.JPG,AFNE01.JPG,4,4,44,0,,,,,,,,,,,,,,,,,,,,,,,AMSA02.jpg,AMSA11.jpg,AMNE15.jpg,AMNE17.jpg,AMNE15.jpg,MN,1,num_2,16,num_2,0.416768046794,,,2017_May_09_1207,60.003367926,MAFE4ImagesEEG,001,200341,
AFNE01.JPG,AFNE01.JPG,AFNE01.JPG,AFNE01.JPG,AFNE01.JPG,AFNE01.JPG,4,5,45,9,,,,,,,,,,,,,,,,,,,,,,,AMSA04.jpg,AMNE14.jpg,AMSA19.jpg,AMNE17.jpg,AMNE14.jpg,MN,1,num_6,32,num_4,0.866798340809,,,2017_May_09_1207,60.003367926,MAFE4ImagesEEG,001,200341,
AFNE01.JPG,AFNE01.JPG,AFNE01.JPG,AFNE01.JPG,AFNE01.JPG,AFNE01.JPG,4,6,46,8,,,,,,,,,,,,,,,,,,,,,,,AMNE17.jpg,AMSA16.jpg,AMSA06.jpg,AMNE19.jpg,AMSA16.jpg,MS,2,num_6,32,num_8,0.550173375523,,,2017_May_09_1207,60.003367926,MAFE4ImagesEEG,001,200341,
AFNE01.JPG,AFNE01.JPG,AFNE01.JPG,AFNE01.JPG,AFNE01.JPG,AFNE01.JPG,4,7,47,7,,,,,,,,,,,,,,,,,,,,,,,AMNE05.jpg,AMSA06.jpg,AMNE12.jpg,AMSA16.jpg,AMNE12.jpg,MN,1,num_2,32,num_4,0.300161427818,,,2017_May_09_1207,60.003367926,MAFE4ImagesEEG,001,200341,
AFNE01.JPG,AFNE01.JPG,AFNE01.JPG,AFNE01.JPG,AFNE01.JPG,AFNE01.JPG,4,8,48,6,,,,,,,,,,,,,,,,,,,,,,,AMSA06.jpg,AMSA10.jpg,AMNE14.jpg,AMNE03.jpg,AMNE14.jpg,MN,1,num_2,32,num_8,0.366808764869,,,2017_May_09_1207,60.003367926,MAFE4ImagesEEG,001,200341,
AFNE01.JPG,AFNE01.JPG,AFNE01.JPG,AFNE01.JPG,AFNE01.JPG,AFNE01.JPG,4,9,49,1,,,,,,,,,,,,,,,,,,,,,,,AMSA06.jpg,AMSA08.jpg,AMNE17.jpg,AMNE20.jpg,AMSA08.jpg,MS,2,num_6,16,num_6,0.58344075433,,,2017_May_09_1207,60.003367926,MAFE4ImagesEEG,001,200341,
AFNE01.JPG,AFNE01.JPG,AFNE01.JPG,AFNE01.JPG,AFNE01.JPG,AFNE01.JPG,5,0,50,5,,,,,,,,,,,,,,,,,,,,,,,AMNE05.jpg,AMSA02.jpg,AMNE14.jpg,AMSA04.jpg,AMNE14.jpg,MN,1,num_2,16,num_2,0.650073978584,,,2017_May_09_1207,60.003367926,MAFE4ImagesEEG,001,200341,
AFNE01.JPG,AFNE01.JPG,AFNE01.JPG,AFNE01.JPG,AFNE01.JPG,AFNE01.JPG,5,1,51,0,,,,,,,,,,,,,,,,,,,,,,,AMSA07.jpg,AMNE06.jpg,AMNE04.jpg,AMSA11.jpg,AMNE04.jpg,MN,1,num_2,16,num_2,1.15015624813,,,2017_May_09_1207,60.003367926,MAFE4ImagesEEG,001,200341,
AFNE01.JPG,AFNE01.JPG,AFNE01.JPG,AFNE01.JPG,AFNE01.JPG,AFNE01.JPG,5,2,52,9,,,,,,,,,,,,,,,,,,,,,,,AMNE11.jpg,AMNE08.jpg,AMSA19.jpg,AMSA06.jpg,AMNE11.jpg,MN,1,num_8,32,num_6,0.866802189732,,,2017_May_09_1207,60.003367926,MAFE4ImagesEEG,001,200341,
AFNE01.JPG,AFNE01.JPG,AFNE01.JPG,AFNE01.JPG,AFNE01.JPG,AFNE01.JPG,5,3,53,2,,,,,,,,,,,,,,,,,,,,,,,AMSA19.jpg,AMSA14.jpg,AMNE19.jpg,AMNE11.jpg,AMSA19.jpg,MS,2,num_8,32,num_6,0.733463253826,,,2017_May_09_1207,60.003367926,MAFE4ImagesEEG,001,200341,
AFNE01.JPG,AFNE01.JPG,AFNE01.JPG,AFNE01.JPG,AFNE01.JPG,AFNE01.JPG,5,4,54,3,,,,,,,,,,,,,,,,,,,,,,,AMNE07.jpg,AMSA07.jpg,AMSA18.jpg,AMNE11.jpg,AMSA07.jpg,MS,2,num_6,16,num_6,0.700010808883,,,2017_May_09_1207,60.003367926,MAFE4ImagesEEG,001,200341,
AFNE01.JPG,AFNE01.JPG,AFNE01.JPG,AFNE01.JPG,AFNE01.JPG,AFNE01.JPG,5,5,55,6,,,,,,,,,,,,,,,,,,,,,,,AMNE12.jpg,AMSA18.jpg,AMNE15.jpg,AMSA10.jpg,AMSA10.jpg,MS,2,num_4,16,num_4,0.733443368226,,,2017_May_09_1207,60.003367926,MAFE4ImagesEEG,001,200341,
AFNE01.JPG,AFNE01.JPG,AFNE01.JPG,AFNE01.JPG,AFNE01.JPG,AFNE01.JPG,5,6,56,1,,,,,,,,,,,,,,,,,,,,,,,AMNE13.jpg,AMSA18.jpg,AMSA08.jpg,AMNE20.jpg,AMSA08.jpg,MS,2,num_2,16,num_2,0.866800906602,,,2017_May_09_1207,60.003367926,MAFE4ImagesEEG,001,200341,
AFNE01.JPG,AFNE01.JPG,AFNE01.JPG,AFNE01.JPG,AFNE01.JPG,AFNE01.JPG,5,7,57,4,,,,,,,,,,,,,,,,,,,,,,,AMNE07.jpg,AMSA14.jpg,AMSA20.jpg,AMNE01.jpg,AMNE07.jpg,MN,1,num_8,16,num_8,0.883446623804,,,2017_May_09_1207,60.003367926,MAFE4ImagesEEG,001,200341,
AFNE01.JPG,AFNE01.JPG,AFNE01.JPG,AFNE01.JPG,AFNE01.JPG,AFNE01.JPG,5,8,58,8,,,,,,,,,,,,,,,,,,,,,,,AMSA13.jpg,AMNE06.jpg,AMSA07.jpg,AMNE14.jpg,AMNE06.jpg,MN,1,num_6,16,num_6,0.583654366434,,,2017_May_09_1207,60.003367926,MAFE4ImagesEEG,001,200341,
AFNE01.JPG,AFNE01.JPG,AFNE01.JPG,AFNE01.JPG,AFNE01.JPG,AFNE01.JPG,5,9,59,7,,,,,,,,,,,,,,,,,,,,,,,AMNE20.jpg,AMSA20.jpg,AMSA02.jpg,AMNE03.jpg,AMSA20.jpg,MS,2,num_6,32,num_8,0.866765304469,,,2017_May_09_1207,60.003367926,MAFE4ImagesEEG,001,200341,
,,,,,,,,,,,,,,,,,,,,,,,,,,,,,,,,,,,,,,,,,,,space,11.9489197347,2017_May_09_1207,60.003367926,MAFE4ImagesEEG,001,200341,
AFNE01.JPG,AFNE01.JPG,AFNE01.JPG,AFNE01.JPG,AFNE01.JPG,AFNE01.JPG,,,,,0,0,0,0,,,,,,,,,,,,,,,,,,,AFSA11.jpg,AFNE11.jpg,AFSA17.jpg,AFNE19.jpg,AFNE19.jpg,FN,3,num_4,32,num_8,0.716841592453,,,2017_May_09_1207,60.003367926,MAFE4ImagesEEG,001,200341,
AFNE01.JPG,AFNE01.JPG,AFNE01.JPG,AFNE01.JPG,AFNE01.JPG,AFNE01.JPG,,,,,0,1,1,8,,,,,,,,,,,,,,,,,,,AFSA07.jpg,AFNE13.jpg,AFSA09.jpg,AFNE11.jpg,AFNE11.jpg,FN,3,num_4,32,num_8,0.783505607629,,,2017_May_09_1207,60.003367926,MAFE4ImagesEEG,001,200341,
AFNE01.JPG,AFNE01.JPG,AFNE01.JPG,AFNE01.JPG,AFNE01.JPG,AFNE01.JPG,,,,,0,2,2,6,,,,,,,,,,,,,,,,,,,AFNE18.jpg,AFNE20.jpg,AFSA05.jpg,AFSA07.jpg,AFNE20.jpg,FN,3,num_6,32,num_4,0.833435381763,,,2017_May_09_1207,60.003367926,MAFE4ImagesEEG,001,200341,
AFNE01.JPG,AFNE01.JPG,AFNE01.JPG,AFNE01.JPG,AFNE01.JPG,AFNE01.JPG,,,,,0,3,3,9,,,,,,,,,,,,,,,,,,,AFSA01.jpg,AFNE01.jpg,AFNE16.jpg,AFSA05.jpg,AFNE16.jpg,FN,3,num_2,32,num_6,0.516775135184,,,2017_May_09_1207,60.003367926,MAFE4ImagesEEG,001,200341,
AFNE01.JPG,AFNE01.JPG,AFNE01.JPG,AFNE01.JPG,AFNE01.JPG,AFNE01.JPG,,,,,0,4,4,4,,,,,,,,,,,,,,,,,,,AFNE20.jpg,AFNE03.jpg,AFSA16.jpg,AFSA07.jpg,AFSA07.jpg,FS,4,num_4,32,num_6,0.450083215721,,,2017_May_09_1207,60.003367926,MAFE4ImagesEEG,001,200341,
AFNE01.JPG,AFNE01.JPG,AFNE01.JPG,AFNE01.JPG,AFNE01.JPG,AFNE01.JPG,,,,,0,5,5,3,,,,,,,,,,,,,,,,,,,AFNE05.jpg,AFSA01.jpg,AFSA06.jpg,AFNE07.jpg,AFSA01.jpg,FS,4,num_6,32,num_8,0.616777733201,,,2017_May_09_1207,60.003367926,MAFE4ImagesEEG,001,200341,
AFNE01.JPG,AFNE01.JPG,AFNE01.JPG,AFNE01.JPG,AFNE01.JPG,AFNE01.JPG,,,,,0,6,6,7,,,,,,,,,,,,,,,,,,,AFSA11.jpg,AFNE03.jpg,AFSA16.jpg,AFNE14.jpg,AFNE14.jpg,FN,3,num_4,16,num_4,0.416952471714,,,2017_May_09_1207,60.003367926,MAFE4ImagesEEG,001,200341,
AFNE01.JPG,AFNE01.JPG,AFNE01.JPG,AFNE01.JPG,AFNE01.JPG,AFNE01.JPG,,,,,0,7,7,1,,,,,,,,,,,,,,,,,,,AFNE01.jpg,AFSA05.jpg,AFNE08.jpg,AFSA10.jpg,AFSA10.jpg,FS,4,num_4,16,num_4,0.483491078252,,,2017_May_09_1207,60.003367926,MAFE4ImagesEEG,001,200341,
AFNE01.JPG,AFNE01.JPG,AFNE01.JPG,AFNE01.JPG,AFNE01.JPG,AFNE01.JPG,,,,,0,8,8,2,,,,,,,,,,,,,,,,,,,AFNE03.jpg,AFSA07.jpg,AFSA17.jpg,AFNE17.jpg,AFSA07.jpg,FS,4,num_6,32,num_8,0.316817088053,,,2017_May_09_1207,60.003367926,MAFE4ImagesEEG,001,200341,
AFNE01.JPG,AFNE01.JPG,AFNE01.JPG,AFNE01.JPG,AFNE01.JPG,AFNE01.JPG,,,,,0,9,9,5,,,,,,,,,,,,,,,,,,,AFNE19.jpg,AFSA04.jpg,AFNE15.jpg,AFSA08.jpg,AFSA04.jpg,FS,4,num_6,32,num_8,0.600117583061,,,2017_May_09_1207,60.003367926,MAFE4ImagesEEG,001,200341,
AFNE01.JPG,AFNE01.JPG,AFNE01.JPG,AFNE01.JPG,AFNE01.JPG,AFNE01.JPG,,,,,1,0,10,1,,,,,,,,,,,,,,,,,,,AFNE16.jpg,AFSA09.jpg,AFNE13.jpg,AFSA08.jpg,AFSA08.jpg,FS,4,num_4,32,num_6,0.633477334632,,,2017_May_09_1207,60.003367926,MAFE4ImagesEEG,001,200341,
AFNE01.JPG,AFNE01.JPG,AFNE01.JPG,AFNE01.JPG,AFNE01.JPG,AFNE01.JPG,,,,,1,1,11,0,,,,,,,,,,,,,,,,,,,AFSA03.jpg,AFNE03.jpg,AFSA13.jpg,AFNE01.jpg,AFNE01.jpg,FN,3,num_4,16,num_4,0.916779112304,,,2017_May_09_1207,60.003367926,MAFE4ImagesEEG,001,200341,
AFNE01.JPG,AFNE01.JPG,AFNE01.JPG,AFNE01.JPG,AFNE01.JPG,AFNE01.JPG,,,,,1,2,12,8,,,,,,,,,,,,,,,,,,,AFNE10.jpg,AFNE12.jpg,AFSA19.jpg,AFSA20.jpg,AFNE12.jpg,FN,3,num_6,16,num_6,0.600138430949,,,2017_May_09_1207,60.003367926,MAFE4ImagesEEG,001,200341,
AFNE01.JPG,AFNE01.JPG,AFNE01.JPG,AFNE01.JPG,AFNE01.JPG,AFNE01.JPG,,,,,1,3,13,4,,,,,,,,,,,,,,,,,,,AFSA18.jpg,AFNE02.jpg,AFSA10.jpg,AFNE12.jpg,AFSA10.jpg,FS,4,num_2,32,num_4,0.616801788798,,,2017_May_09_1207,60.003367926,MAFE4ImagesEEG,001,200341,
AFNE01.JPG,AFNE01.JPG,AFNE01.JPG,AFNE01.JPG,AFNE01.JPG,AFNE01.JPG,,,,,1,4,14,9,,,,,,,,,,,,,,,,,,,AFSA11.jpg,AFNE14.jpg,AFNE12.jpg,AFSA18.jpg,AFNE12.jpg,FN,3,num_2,32,num_8,0.950096205808,,,2017_May_09_1207,60.003367926,MAFE4ImagesEEG,001,200341,
AFNE01.JPG,AFNE01.JPG,AFNE01.JPG,AFNE01.JPG,AFNE01.JPG,AFNE01.JPG,,,,,1,5,15,5,,,,,,,,,,,,,,,,,,,AFNE02.jpg,AFSA04.jpg,AFSA18.jpg,AFNE14.jpg,AFSA04.jpg,FS,4,num_6,16,num_6,0.566782528302,,,2017_May_09_1207,60.003367926,MAFE4ImagesEEG,001,200341,
AFNE01.JPG,AFNE01.JPG,AFNE01.JPG,AFNE01.JPG,AFNE01.JPG,AFNE01.JPG,,,,,1,6,16,6,,,,,,,,,,,,,,,,,,,AFNE18.jpg,AFNE05.jpg,AFSA06.jpg,AFSA07.jpg,AFNE18.jpg,FN,3,num_8,16,num_8,1.1834492858,,,2017_May_09_1207,60.003367926,MAFE4ImagesEEG,001,200341,
AFNE01.JPG,AFNE01.JPG,AFNE01.JPG,AFNE01.JPG,AFNE01.JPG,AFNE01.JPG,,,,,1,7,17,7,,,,,,,,,,,,,,,,,,,AFSA13.jpg,AFSA03.jpg,AFNE19.jpg,AFNE12.jpg,AFNE19.jpg,FN,3,num_2,32,num_6,0.633430506568,,,2017_May_09_1207,60.003367926,MAFE4ImagesEEG,001,200341,
AFNE01.JPG,AFNE01.JPG,AFNE01.JPG,AFNE01.JPG,AFNE01.JPG,AFNE01.JPG,,,,,1,8,18,2,,,,,,,,,,,,,,,,,,,AFNE15.jpg,AFNE08.jpg,AFSA07.jpg,AFSA14.jpg,AFNE08.jpg,FN,3,num_6,32,num_2,0.766800233163,,,2017_May_09_1207,60.003367926,MAFE4ImagesEEG,001,200341,
AFNE01.JPG,AFNE01.JPG,AFNE01.JPG,AFNE01.JPG,AFNE01.JPG,AFNE01.JPG,,,,,1,9,19,3,,,,,,,,,,,,,,,,,,,AFNE17.jpg,AFSA09.jpg,AFSA19.jpg,AFNE18.jpg,AFSA19.jpg,FS,4,num_2,32,num_4,1.00012252224,,,2017_May_09_1207,60.003367926,MAFE4ImagesEEG,001,200341,
AFNE01.JPG,AFNE01.JPG,AFNE01.JPG,AFNE01.JPG,AFNE01.JPG,AFNE01.JPG,,,,,2,0,20,4,,,,,,,,,,,,,,,,,,,AFNE10.jpg,AFSA19.jpg,AFSA12.jpg,AFNE09.jpg,AFSA12.jpg,FS,4,num_2,32,num_8,0.666752411053,,,2017_May_09_1207,60.003367926,MAFE4ImagesEEG,001,200341,
AFNE01.JPG,AFNE01.JPG,AFNE01.JPG,AFNE01.JPG,AFNE01.JPG,AFNE01.JPG,,,,,2,1,21,8,,,,,,,,,,,,,,,,,,,AFSA19.jpg,AFSA15.jpg,AFNE12.jpg,AFNE03.jpg,AFSA19.jpg,FS,4,num_8,32,num_2,0.866796416463,,,2017_May_09_1207,60.003367926,MAFE4ImagesEEG,001,200341,
AFNE01.JPG,AFNE01.JPG,AFNE01.JPG,AFNE01.JPG,AFNE01.JPG,AFNE01.JPG,,,,,2,2,22,3,,,,,,,,,,,,,,,,,,,AFNE16.jpg,AFSA04.jpg,AFSA20.jpg,AFNE18.jpg,AFSA20.jpg,FS,4,num_2,32,num_8,0.716786425328,,,2017_May_09_1207,60.003367926,MAFE4ImagesEEG,001,200341,
AFNE01.JPG,AFNE01.JPG,AFNE01.JPG,AFNE01.JPG,AFNE01.JPG,AFNE01.JPG,,,,,2,3,23,1,,,,,,,,,,,,,,,,,,,AFNE13.jpg,AFSA15.jpg,AFSA11.jpg,AFNE11.jpg,AFSA11.jpg,FS,4,num_2,16,num_2,0.983463975834,,,2017_May_09_1207,60.003367926,MAFE4ImagesEEG,001,200341,
AFNE01.JPG,AFNE01.JPG,AFNE01.JPG,AFNE01.JPG,AFNE01.JPG,AFNE01.JPG,,,,,2,4,24,5,,,,,,,,,,,,,,,,,,,AFNE10.jpg,AFNE11.jpg,AFSA12.jpg,AFSA10.jpg,AFSA10.jpg,FS,4,num_4,32,num_8,1.14987912937,,,2017_May_09_1207,60.003367926,MAFE4ImagesEEG,001,200341,
AFNE01.JPG,AFNE01.JPG,AFNE01.JPG,AFNE01.JPG,AFNE01.JPG,AFNE01.JPG,,,,,2,5,25,9,,,,,,,,,,,,,,,,,,,AFSA10.jpg,AFSA12.jpg,AFNE10.jpg,AFNE12.jpg,AFSA10.jpg,FS,4,num_8,32,num_2,1.51671579853,,,2017_May_09_1207,60.003367926,MAFE4ImagesEEG,001,200341,
AFNE01.JPG,AFNE01.JPG,AFNE01.JPG,AFNE01.JPG,AFNE01.JPG,AFNE01.JPG,,,,,2,6,26,2,,,,,,,,,,,,,,,,,,,AFNE14.jpg,AFNE17.jpg,AFSA03.jpg,AFSA04.jpg,AFSA03.jpg,FS,4,num_2,32,num_8,0.850080778124,,,2017_May_09_1207,60.003367926,MAFE4ImagesEEG,001,200341,
AFNE01.JPG,AFNE01.JPG,AFNE01.JPG,AFNE01.JPG,AFNE01.JPG,AFNE01.JPG,,,,,2,7,27,7,,,,,,,,,,,,,,,,,,,AFSA13.jpg,AFNE03.jpg,AFNE08.jpg,AFSA01.jpg,AFNE08.jpg,FN,3,num_2,16,num_2,1.10007925471,,,2017_May_09_1207,60.003367926,MAFE4ImagesEEG,001,200341,
AFNE01.JPG,AFNE01.JPG,AFNE01.JPG,AFNE01.JPG,AFNE01.JPG,AFNE01.JPG,,,,,2,8,28,0,,,,,,,,,,,,,,,,,,,AFSA17.jpg,AFSA19.jpg,AFNE01.jpg,AFNE07.jpg,AFNE01.jpg,FN,3,num_2,16,num_2,0.700106389122,,,2017_May_09_1207,60.003367926,MAFE4ImagesEEG,001,200341,
AFNE01.JPG,AFNE01.JPG,AFNE01.JPG,AFNE01.JPG,AFNE01.JPG,AFNE01.JPG,,,,,2,9,29,6,,,,,,,,,,,,,,,,,,,AFNE15.jpg,AFSA05.jpg,AFNE11.jpg,AFSA20.jpg,AFSA05.jpg,FS,4,num_6,16,num_6,0.633453279035,,,2017_May_09_1207,60.003367926,MAFE4ImagesEEG,001,200341,
AFNE01.JPG,AFNE01.JPG,AFNE01.JPG,AFNE01.JPG,AFNE01.JPG,AFNE01.JPG,,,,,3,0,30,9,,,,,,,,,,,,,,,,,,,AFNE01.jpg,AFSA07.jpg,AFSA01.jpg,AFNE04.jpg,AFSA01.jpg,FS,4,num_2,16,num_2,4.19977811282,,,2017_May_09_1207,60.003367926,MAFE4ImagesEEG,001,200341,
AFNE01.JPG,AFNE01.JPG,AFNE01.JPG,AFNE01.JPG,AFNE01.JPG,AFNE01.JPG,,,,,3,1,31,3,,,,,,,,,,,,,,,,,,,AFNE14.jpg,AFNE20.jpg,AFSA19.jpg,AFSA15.jpg,AFNE14.jpg,FN,3,num_8,16,num_8,0.86673451378,,,2017_May_09_1207,60.003367926,MAFE4ImagesEEG,001,200341,
AFNE01.JPG,AFNE01.JPG,AFNE01.JPG,AFNE01.JPG,AFNE01.JPG,AFNE01.JPG,,,,,3,2,32,2,,,,,,,,,,,,,,,,,,,AFSA02.jpg,AFNE14.jpg,AFNE11.jpg,AFSA09.jpg,AFNE11.jpg,FN,3,num_2,32,num_8,1.55005951296,,,2017_May_09_1207,60.003367926,MAFE4ImagesEEG,001,200341,
AFNE01.JPG,AFNE01.JPG,AFNE01.JPG,AFNE01.JPG,AFNE01.JPG,AFNE01.JPG,,,,,3,3,33,1,,,,,,,,,,,,,,,,,,,AFSA17.jpg,AFNE14.jpg,AFNE06.jpg,AFSA09.jpg,AFSA17.jpg,FS,4,num_8,16,num_8,0.883494734531,,,2017_May_09_1207,60.003367926,MAFE4ImagesEEG,001,200341,
AFNE01.JPG,AFNE01.JPG,AFNE01.JPG,AFNE01.JPG,AFNE01.JPG,AFNE01.JPG,,,,,3,4,34,6,,,,,,,,,,,,,,,,,,,AFNE16.jpg,AFNE01.jpg,AFSA17.jpg,AFSA14.jpg,AFSA17.jpg,FS,4,num_2,16,num_2,1.60004285071,,,2017_May_09_1207,60.003367926,MAFE4ImagesEEG,001,200341,
AFNE01.JPG,AFNE01.JPG,AFNE01.JPG,AFNE01.JPG,AFNE01.JPG,AFNE01.JPG,,,,,3,5,35,7,,,,,,,,,,,,,,,,,,,AFNE20.jpg,AFNE17.jpg,AFSA07.jpg,AFSA15.jpg,AFNE20.jpg,FN,3,num_8,16,num_8,0.700398261659,,,2017_May_09_1207,60.003367926,MAFE4ImagesEEG,001,200341,
AFNE01.JPG,AFNE01.JPG,AFNE01.JPG,AFNE01.JPG,AFNE01.JPG,AFNE01.JPG,,,,,3,6,36,8,,,,,,,,,,,,,,,,,,,AFSA10.jpg,AFNE07.jpg,AFNE19.jpg,AFSA12.jpg,AFNE19.jpg,FN,3,num_2,32,num_8,1.21671634377,,,2017_May_09_1207,60.003367926,MAFE4ImagesEEG,001,200341,
AFNE01.JPG,AFNE01.JPG,AFNE01.JPG,AFNE01.JPG,AFNE01.JPG,AFNE01.JPG,,,,,3,7,37,4,,,,,,,,,,,,,,,,,,,AFSA18.jpg,AFNE03.jpg,AFSA19.jpg,AFNE07.jpg,AFNE07.jpg,FN,3,num_4,32,num_8,0.766847381601,,,2017_May_09_1207,60.003367926,MAFE4ImagesEEG,001,200341,
AFNE01.JPG,AFNE01.JPG,AFNE01.JPG,AFNE01.JPG,AFNE01.JPG,AFNE01.JPG,,,,,3,8,38,5,,,,,,,,,,,,,,,,,,,AFNE18.jpg,AFSA03.jpg,AFSA08.jpg,AFNE08.jpg,AFNE08.jpg,FN,3,num_4,32,num_8,0.783449478447,,,2017_May_09_1207,60.003367926,MAFE4ImagesEEG,001,200341,
AFNE01.JPG,AFNE01.JPG,AFNE01.JPG,AFNE01.JPG,AFNE01.JPG,AFNE01.JPG,,,,,3,9,39,0,,,,,,,,,,,,,,,,,,,AFSA19.jpg,AFNE11.jpg,AFNE04.jpg,AFSA03.jpg,AFNE04.jpg,FN,3,num_2,16,num_2,1.05013857526,,,2017_May_09_1207,60.003367926,MAFE4ImagesEEG,001,200341,
AFNE01.JPG,AFNE01.JPG,AFNE01.JPG,AFNE01.JPG,AFNE01.JPG,AFNE01.JPG,,,,,4,0,40,5,,,,,,,,,,,,,,,,,,,AFSA08.jpg,AFNE17.jpg,AFNE04.jpg,AFSA02.jpg,AFSA02.jpg,FS,4,num_4,32,num_8,0.783443704946,,,2017_May_09_1207,60.003367926,MAFE4ImagesEEG,001,200341,
AFNE01.JPG,AFNE01.JPG,AFNE01.JPG,AFNE01.JPG,AFNE01.JPG,AFNE01.JPG,,,,,4,1,41,0,,,,,,,,,,,,,,,,,,,AFSA10.jpg,AFNE05.jpg,AFNE03.jpg,AFSA14.jpg,AFSA14.jpg,FS,4,num_4,32,num_6,0.666606474668,,,2017_May_09_1207,60.003367926,MAFE4ImagesEEG,001,200341,
AFNE01.JPG,AFNE01.JPG,AFNE01.JPG,AFNE01.JPG,AFNE01.JPG,AFNE01.JPG,,,,,4,2,42,4,,,,,,,,,,,,,,,,,,,AFNE03.jpg,AFSA04.jpg,AFSA02.jpg,AFNE05.jpg,AFSA04.jpg,FS,4,num_6,32,num_8,0.916801885003,,,2017_May_09_1207,60.003367926,MAFE4ImagesEEG,001,200341,
AFNE01.JPG,AFNE01.JPG,AFNE01.JPG,AFNE01.JPG,AFNE01.JPG,AFNE01.JPG,,,,,4,3,43,7,,,,,,,,,,,,,,,,,,,AFNE17.jpg,AFSA15.jpg,AFSA12.jpg,AFNE13.jpg,AFNE17.jpg,FN,3,num_8,16,num_8,0.833452060353,,,2017_May_09_1207,60.003367926,MAFE4ImagesEEG,001,200341,
AFNE01.JPG,AFNE01.JPG,AFNE01.JPG,AFNE01.JPG,AFNE01.JPG,AFNE01.JPG,,,,,4,4,44,8,,,,,,,,,,,,,,,,,,,AFNE17.jpg,AFSA13.jpg,AFNE12.jpg,AFSA14.jpg,AFNE17.jpg,FN,3,num_8,32,num_4,1.25012164027,,,2017_May_09_1207,60.003367926,MAFE4ImagesEEG,001,200341,
AFNE01.JPG,AFNE01.JPG,AFNE01.JPG,AFNE01.JPG,AFNE01.JPG,AFNE01.JPG,,,,,4,5,45,9,,,,,,,,,,,,,,,,,,,AFNE13.jpg,AFNE12.jpg,AFSA20.jpg,AFSA14.jpg,AFSA14.jpg,FS,4,num_4,32,num_8,0.75011249911,,,2017_May_09_1207,60.003367926,MAFE4ImagesEEG,001,200341,
AFNE01.JPG,AFNE01.JPG,AFNE01.JPG,AFNE01.JPG,AFNE01.JPG,AFNE01.JPG,,,,,4,6,46,3,,,,,,,,,,,,,,,,,,,AFSA03.jpg,AFNE05.jpg,AFSA10.jpg,AFNE11.jpg,AFSA10.jpg,FS,4,num_2,16,num_2,0.733435349772,,,2017_May_09_1207,60.003367926,MAFE4ImagesEEG,001,200341,
AFNE01.JPG,AFNE01.JPG,AFNE01.JPG,AFNE01.JPG,AFNE01.JPG,AFNE01.JPG,,,,,4,7,47,2,,,,,,,,,,,,,,,,,,,AFNE20.jpg,AFSA02.jpg,AFSA19.jpg,AFNE19.jpg,AFNE19.jpg,FN,3,num_4,16,num_4,0.500448232749,,,2017_May_09_1207,60.003367926,MAFE4ImagesEEG,001,200341,
AFNE01.JPG,AFNE01.JPG,AFNE01.JPG,AFNE01.JPG,AFNE01.JPG,AFNE01.JPG,,,,,4,8,48,6,,,,,,,,,,,,,,,,,,,AFNE13.jpg,AFSA06.jpg,AFSA07.jpg,AFNE06.jpg,AFSA07.jpg,FS,4,num_2,32,num_8,0.833464248339,,,2017_May_09_1207,60.003367926,MAFE4ImagesEEG,001,200341,
AFNE01.JPG,AFNE01.JPG,AFNE01.JPG,AFNE01.JPG,AFNE01.JPG,AFNE01.JPG,,,,,4,9,49,1,,,,,,,,,,,,,,,,,,,AFSA15.jpg,AFNE05.jpg,AFSA06.jpg,AFNE18.jpg,AFNE05.jpg,FN,3,num_6,16,num_6,0.500290749827,,,2017_May_09_1207,60.003367926,MAFE4ImagesEEG,001,200341,
AFNE01.JPG,AFNE01.JPG,AFNE01.JPG,AFNE01.JPG,AFNE01.JPG,AFNE01.JPG,,,,,5,0,50,9,,,,,,,,,,,,,,,,,,,AFSA08.jpg,AFSA07.jpg,AFNE14.jpg,AFNE10.jpg,AFSA08.jpg,FS,4,num_8,16,num_8,0.61676875269,,,2017_May_09_1207,60.003367926,MAFE4ImagesEEG,001,200341,
AFNE01.JPG,AFNE01.JPG,AFNE01.JPG,AFNE01.JPG,AFNE01.JPG,AFNE01.JPG,,,,,5,1,51,0,,,,,,,,,,,,,,,,,,,AFSA14.jpg,AFNE04.jpg,AFNE17.jpg,AFSA04.jpg,AFSA04.jpg,FS,4,num_4,16,num_4,0.600157675333,,,2017_May_09_1207,60.003367926,MAFE4ImagesEEG,001,200341,
AFNE01.JPG,AFNE01.JPG,AFNE01.JPG,AFNE01.JPG,AFNE01.JPG,AFNE01.JPG,,,,,5,2,52,1,,,,,,,,,,,,,,,,,,,AFSA15.jpg,AFNE15.jpg,AFNE19.jpg,AFSA08.jpg,AFSA15.jpg,FS,4,num_8,32,num_6,0.516770324204,,,2017_May_09_1207,60.003367926,MAFE4ImagesEEG,001,200341,
AFNE01.JPG,AFNE01.JPG,AFNE01.JPG,AFNE01.JPG,AFNE01.JPG,AFNE01.JPG,,,,,5,3,53,8,,,,,,,,,,,,,,,,,,,AFNE03.jpg,AFSA12.jpg,AFSA19.jpg,AFNE12.jpg,AFNE03.jpg,FN,3,num_8,16,num_8,0.700158028165,,,2017_May_09_1207,60.003367926,MAFE4ImagesEEG,001,200341,
AFNE01.JPG,AFNE01.JPG,AFNE01.JPG,AFNE01.JPG,AFNE01.JPG,AFNE01.JPG,,,,,5,4,54,4,,,,,,,,,,,,,,,,,,,AFSA04.jpg,AFNE12.jpg,AFSA03.jpg,AFNE07.jpg,AFSA04.jpg,FS,4,num_8,16,num_8,0.80010289303,,,2017_May_09_1207,60.003367926,MAFE4ImagesEEG,001,200341,
AFNE01.JPG,AFNE01.JPG,AFNE01.JPG,AFNE01.JPG,AFNE01.JPG,AFNE01.JPG,,,,,5,5,55,3,,,,,,,,,,,,,,,,,,,AFSA11.jpg,AFNE11.jpg,AFNE14.jpg,AFSA02.jpg,AFNE14.jpg,FN,3,num_2,16,num_2,1.01679678517,,,2017_May_09_1207,60.003367926,MAFE4ImagesEEG,001,200341,
AFNE01.JPG,AFNE01.JPG,AFNE01.JPG,AFNE01.JPG,AFNE01.JPG,AFNE01.JPG,,,,,5,6,56,6,,,,,,,,,,,,,,,,,,,AFSA05.jpg,AFNE16.jpg,AFSA19.jpg,AFNE18.jpg,AFNE16.jpg,FN,3,num_6,16,num_6,0.483529245947,,,2017_May_09_1207,60.003367926,MAFE4ImagesEEG,001,200341,
AFNE01.JPG,AFNE01.JPG,AFNE01.JPG,AFNE01.JPG,AFNE01.JPG,AFNE01.JPG,,,,,5,7,57,2,,,,,,,,,,,,,,,,,,,AFNE07.jpg,AFSA09.jpg,AFNE20.jpg,AFSA13.jpg,AFNE20.jpg,FN,3,num_2,16,num_2,1.10017964593,,,2017_May_09_1207,60.003367926,MAFE4ImagesEEG,001,200341,
AFNE01.JPG,AFNE01.JPG,AFNE01.JPG,AFNE01.JPG,AFNE01.JPG,AFNE01.JPG,,,,,5,8,58,5,,,,,,,,,,,,,,,,,,,AFSA05.jpg,AFNE15.jpg,AFNE16.jpg,AFSA15.jpg,AFSA05.jpg,FS,4,num_8,16,num_8,0.98343350552,,,2017_May_09_1207,60.003367926,MAFE4ImagesEEG,001,200341,
AFNE01.JPG,AFNE01.JPG,AFNE01.JPG,AFNE01.JPG,AFNE01.JPG,AFNE01.JPG,,,,,5,9,59,7,,,,,,,,,,,,,,,,,,,AFSA15.jpg,AFNE07.jpg,AFNE03.jpg,AFSA05.jpg,AFNE03.jpg,FN,3,num_2,16,num_2,1.51670970442,,,2017_May_09_1207,60.003367926,MAFE4ImagesEEG,001,200341,
,,,,,,,,,,,,,,,,,,,,,,,,,,,,,,,,,,,,,,,,,,,space,5.26641711034,2017_May_09_1207,60.003367926,MAFE4ImagesEEG,001,200341,
AFNE01.JPG,AFNE01.JPG,AFNE01.JPG,AFNE01.JPG,AFNE01.JPG,AFNE01.JPG,,,,,,,,,0,0,0,1,,,,,,,,,,,,,,,AMSA02.jpg,AMNE19.jpg,AMNE05.jpg,AMSA12.jpg,AMSA02.jpg,MS,2,num_8,16,num_8,0.899982327363,,,2017_May_09_1207,60.003367926,MAFE4ImagesEEG,001,200341,
AFNE01.JPG,AFNE01.JPG,AFNE01.JPG,AFNE01.JPG,AFNE01.JPG,AFNE01.JPG,,,,,,,,,0,1,1,8,,,,,,,,,,,,,,,AMSA15.jpg,AMNE16.jpg,AMSA09.jpg,AMNE15.jpg,AMNE16.jpg,MN,1,num_6,16,num_6,0.716767501784,,,2017_May_09_1207,60.003367926,MAFE4ImagesEEG,001,200341,
AFNE01.JPG,AFNE01.JPG,AFNE01.JPG,AFNE01.JPG,AFNE01.JPG,AFNE01.JPG,,,,,,,,,0,2,2,2,,,,,,,,,,,,,,,AMNE05.jpg,AMSA03.jpg,AMSA02.jpg,AMNE09.jpg,AMSA03.jpg,MS,2,num_6,16,num_6,0.433470534859,,,2017_May_09_1207,60.003367926,MAFE4ImagesEEG,001,200341,
AFNE01.JPG,AFNE01.JPG,AFNE01.JPG,AFNE01.JPG,AFNE01.JPG,AFNE01.JPG,,,,,,,,,0,3,3,9,,,,,,,,,,,,,,,AMSA12.jpg,AMNE12.jpg,AMSA15.jpg,AMNE14.jpg,AMNE12.jpg,MN,1,num_6,16,num_6,0.616729622474,,,2017_May_09_1207,60.003367926,MAFE4ImagesEEG,001,200341,
AFNE01.JPG,AFNE01.JPG,AFNE01.JPG,AFNE01.JPG,AFNE01.JPG,AFNE01.JPG,,,,,,,,,0,4,4,6,,,,,,,,,,,,,,,AMSA14.jpg,AMSA17.jpg,AMNE19.jpg,AMNE12.jpg,AMNE12.jpg,MN,1,num_4,32,num_6,0.800149400253,,,2017_May_09_1207,60.003367926,MAFE4ImagesEEG,001,200341,
AFNE01.JPG,AFNE01.JPG,AFNE01.JPG,AFNE01.JPG,AFNE01.JPG,AFNE01.JPG,,,,,,,,,0,5,5,7,,,,,,,,,,,,,,,AMNE04.jpg,AMSA06.jpg,AMNE03.jpg,AMSA04.jpg,AMSA06.jpg,MS,2,num_6,32,num_4,0.700210308656,,,2017_May_09_1207,60.003367926,MAFE4ImagesEEG,001,200341,
AFNE01.JPG,AFNE01.JPG,AFNE01.JPG,AFNE01.JPG,AFNE01.JPG,AFNE01.JPG,,,,,,,,,0,6,6,4,,,,,,,,,,,,,,,AMSA17.jpg,AMNE02.jpg,AMNE04.jpg,AMSA09.jpg,AMSA17.jpg,MS,2,num_8,32,num_2,1.23341081315,,,2017_May_09_1207,60.003367926,MAFE4ImagesEEG,001,200341,
AFNE01.JPG,AFNE01.JPG,AFNE01.JPG,AFNE01.JPG,AFNE01.JPG,AFNE01.JPG,,,,,,,,,0,7,7,5,,,,,,,,,,,,,,,AMSA14.jpg,AMSA03.jpg,AMNE04.jpg,AMNE08.jpg,AMSA03.jpg,MS,2,num_6,16,num_6,1.11676474335,,,2017_May_09_1207,60.003367926,MAFE4ImagesEEG,001,200341,
AFNE01.JPG,AFNE01.JPG,AFNE01.JPG,AFNE01.JPG,AFNE01.JPG,AFNE01.JPG,,,,,,,,,0,8,8,3,,,,,,,,,,,,,,,AMNE08.jpg,AMNE20.jpg,AMSA06.jpg,AMSA10.jpg,AMNE20.jpg,MN,1,num_6,16,num_6,0.95014720317,,,2017_May_09_1207,60.003367926,MAFE4ImagesEEG,001,200341,
AFNE01.JPG,AFNE01.JPG,AFNE01.JPG,AFNE01.JPG,AFNE01.JPG,AFNE01.JPG,,,,,,,,,0,9,9,0,,,,,,,,,,,,,,,AMSA20.jpg,AMSA06.jpg,AMNE05.jpg,AMNE14.jpg,AMNE05.jpg,MN,1,num_2,16,num_2,0.950078565162,,,2017_May_09_1207,60.003367926,MAFE4ImagesEEG,001,200341,
AFNE01.JPG,AFNE01.JPG,AFNE01.JPG,AFNE01.JPG,AFNE01.JPG,AFNE01.JPG,,,,,,,,,1,0,10,0,,,,,,,,,,,,,,,AMNE12.jpg,AMSA18.jpg,AMSA06.jpg,AMNE13.jpg,AMSA18.jpg,MS,2,num_6,16,num_6,0.566768094897,,,2017_May_09_1207,60.003367926,MAFE4ImagesEEG,001,200341,
AFNE01.JPG,AFNE01.JPG,AFNE01.JPG,AFNE01.JPG,AFNE01.JPG,AFNE01.JPG,,,,,,,,,1,1,11,4,,,,,,,,,,,,,,,AMSA11.jpg,AMNE04.jpg,AMNE14.jpg,AMSA12.jpg,AMSA11.jpg,MS,2,num_8,32,num_6,0.483467022656,,,2017_May_09_1207,60.003367926,MAFE4ImagesEEG,001,200341,
AFNE01.JPG,AFNE01.JPG,AFNE01.JPG,AFNE01.JPG,AFNE01.JPG,AFNE01.JPG,,,,,,,,,1,2,12,5,,,,,,,,,,,,,,,AMSA12.jpg,AMNE19.jpg,AMSA19.jpg,AMNE12.jpg,AMSA12.jpg,MS,2,num_8,16,num_8,0.650113108801,,,2017_May_09_1207,60.003367926,MAFE4ImagesEEG,001,200341,
AFNE01.JPG,AFNE01.JPG,AFNE01.JPG,AFNE01.JPG,AFNE01.JPG,AFNE01.JPG,,,,,,,,,1,3,13,8,,,,,,,,,,,,,,,AMSA04.jpg,AMNE07.jpg,AMSA11.jpg,AMNE12.jpg,AMNE12.jpg,MN,1,num_4,32,num_8,0.483497172128,,,2017_May_09_1207,60.003367926,MAFE4ImagesEEG,001,200341,
AFNE01.JPG,AFNE01.JPG,AFNE01.JPG,AFNE01.JPG,AFNE01.JPG,AFNE01.JPG,,,,,,,,,1,4,14,1,,,,,,,,,,,,,,,AMSA03.jpg,AMSA18.jpg,AMNE14.jpg,AMNE15.jpg,AMSA03.jpg,MS,2,num_8,32,num_6,0.883410701063,,,2017_May_09_1207,60.003367926,MAFE4ImagesEEG,001,200341,
AFNE01.JPG,AFNE01.JPG,AFNE01.JPG,AFNE01.JPG,AFNE01.JPG,AFNE01.JPG,,,,,,,,,1,5,15,2,,,,,,,,,,,,,,,AMSA01.jpg,AMNE08.jpg,AMSA18.jpg,AMNE06.jpg,AMSA01.jpg,MS,2,num_8,16,num_8,0.866803472629,,,2017_May_09_1207,60.003367926,MAFE4ImagesEEG,001,200341,
AFNE01.JPG,AFNE01.JPG,AFNE01.JPG,AFNE01.JPG,AFNE01.JPG,AFNE01.JPG,,,,,,,,,1,6,16,6,,,,,,,,,,,,,,,AMNE17.jpg,AMNE02.jpg,AMSA19.jpg,AMSA12.jpg,AMSA12.jpg,MS,2,num_4,16,num_4,0.900175733026,,,2017_May_09_1207,60.003367926,MAFE4ImagesEEG,001,200341,
AFNE01.JPG,AFNE01.JPG,AFNE01.JPG,AFNE01.JPG,AFNE01.JPG,AFNE01.JPG,,,,,,,,,1,7,17,3,,,,,,,,,,,,,,,AMSA04.jpg,AMNE12.jpg,AMSA08.jpg,AMNE09.jpg,AMNE12.jpg,MN,1,num_6,16,num_6,1.11675929069,,,2017_May_09_1207,60.003367926,MAFE4ImagesEEG,001,200341,
AFNE01.JPG,AFNE01.JPG,AFNE01.JPG,AFNE01.JPG,AFNE01.JPG,AFNE01.JPG,,,,,,,,,1,8,18,9,,,,,,,,,,,,,,,AMSA03.jpg,AMNE06.jpg,AMNE14.jpg,AMSA12.jpg,AMNE14.jpg,MN,1,num_2,16,num_2,1.03345469036,,,2017_May_09_1207,60.003367926,MAFE4ImagesEEG,001,200341,
AFNE01.JPG,AFNE01.JPG,AFNE01.JPG,AFNE01.JPG,AFNE01.JPG,AFNE01.JPG,,,,,,,,,1,9,19,7,,,,,,,,,,,,,,,AMNE02.jpg,AMNE10.jpg,AMSA16.jpg,AMSA04.jpg,AMNE02.jpg,MN,1,num_8,16,num_8,0.333518613596,,,2017_May_09_1207,60.003367926,MAFE4ImagesEEG,001,200341,
AFNE01.JPG,AFNE01.JPG,AFNE01.JPG,AFNE01.JPG,AFNE01.JPG,AFNE01.JPG,,,,,,,,,2,0,20,7,,,,,,,,,,,,,,,AMNE01.jpg,AMSA06.jpg,AMNE11.jpg,AMSA01.jpg,AMNE01.jpg,MN,1,num_8,16,num_8,0.783465515124,,,2017_May_09_1207,60.003367926,MAFE4ImagesEEG,001,200341,
AFNE01.JPG,AFNE01.JPG,AFNE01.JPG,AFNE01.JPG,AFNE01.JPG,AFNE01.JPG,,,,,,,,,2,1,21,0,,,,,,,,,,,,,,,AMNE18.jpg,AMNE02.jpg,AMSA01.jpg,AMSA04.jpg,AMSA01.jpg,MS,2,num_2,16,num_2,0.883422568208,,,2017_May_09_1207,60.003367926,MAFE4ImagesEEG,001,200341,
AFNE01.JPG,AFNE01.JPG,AFNE01.JPG,AFNE01.JPG,AFNE01.JPG,AFNE01.JPG,,,,,,,,,2,2,22,5,,,,,,,,,,,,,,,AMNE02.jpg,AMNE08.jpg,AMSA11.jpg,AMSA06.jpg,AMNE02.jpg,MN,1,num_8,16,num_8,0.71682138578,,,2017_May_09_1207,60.003367926,MAFE4ImagesEEG,001,200341,
AFNE01.JPG,AFNE01.JPG,AFNE01.JPG,AFNE01.JPG,AFNE01.JPG,AFNE01.JPG,,,,,,,,,2,3,23,3,,,,,,,,,,,,,,,AMNE12.jpg,AMSA07.jpg,AMSA10.jpg,AMNE06.jpg,AMNE06.jpg,MN,1,num_4,32,num_8,0.733586097136,,,2017_May_09_1207,60.003367926,MAFE4ImagesEEG,001,200341,
AFNE01.JPG,AFNE01.JPG,AFNE01.JPG,AFNE01.JPG,AFNE01.JPG,AFNE01.JPG,,,,,,,,,2,4,24,4,,,,,,,,,,,,,,,AMNE17.jpg,AMSA09.jpg,AMNE16.jpg,AMSA13.jpg,AMSA13.jpg,MS,2,num_4,32,num_2,1.00008852407,,,2017_May_09_1207,60.003367926,MAFE4ImagesEEG,001,200341,
AFNE01.JPG,AFNE01.JPG,AFNE01.JPG,AFNE01.JPG,AFNE01.JPG,AFNE01.JPG,,,,,,,,,2,5,25,9,,,,,,,,,,,,,,,AMNE03.jpg,AMSA17.jpg,AMSA02.jpg,AMNE10.jpg,AMNE03.jpg,MN,1,num_8,32,num_4,0.350158236688,,,2017_May_09_1207,60.003367926,MAFE4ImagesEEG,001,200341,
AFNE01.JPG,AFNE01.JPG,AFNE01.JPG,AFNE01.JPG,AFNE01.JPG,AFNE01.JPG,,,,,,,,,2,6,26,1,,,,,,,,,,,,,,,AMSA13.jpg,AMNE11.jpg,AMSA01.jpg,AMNE05.jpg,AMNE11.jpg,MN,1,num_6,32,num_4,1.1001411574,,,2017_May_09_1207,60.003367926,MAFE4ImagesEEG,001,200341,
AFNE01.JPG,AFNE01.JPG,AFNE01.JPG,AFNE01.JPG,AFNE01.JPG,AFNE01.JPG,,,,,,,,,2,7,27,2,,,,,,,,,,,,,,,AMSA15.jpg,AMNE19.jpg,AMNE03.jpg,AMSA20.jpg,AMSA20.jpg,MS,2,num_4,16,num_4,0.616757526761,,,2017_May_09_1207,60.003367926,MAFE4ImagesEEG,001,200341,
AFNE01.JPG,AFNE01.JPG,AFNE01.JPG,AFNE01.JPG,AFNE01.JPG,AFNE01.JPG,,,,,,,,,2,8,28,6,,,,,,,,,,,,,,,AMNE20.jpg,AMSA06.jpg,AMNE09.jpg,AMSA07.jpg,AMSA06.jpg,MS,2,num_6,32,num_4,0.616769073298,,,2017_May_09_1207,60.003367926,MAFE4ImagesEEG,001,200341,
AFNE01.JPG,AFNE01.JPG,AFNE01.JPG,AFNE01.JPG,AFNE01.JPG,AFNE01.JPG,,,,,,,,,2,9,29,8,,,,,,,,,,,,,,,AMNE07.jpg,AMNE18.jpg,AMSA20.jpg,AMSA08.jpg,AMSA08.jpg,MS,2,num_4,32,num_6,1.05011580279,,,2017_May_09_1207,60.003367926,MAFE4ImagesEEG,001,200341,
AFNE01.JPG,AFNE01.JPG,AFNE01.JPG,AFNE01.JPG,AFNE01.JPG,AFNE01.JPG,,,,,,,,,3,0,30,7,,,,,,,,,,,,,,,AMNE02.jpg,AMNE09.jpg,AMSA01.jpg,AMSA18.jpg,AMNE02.jpg,MN,1,num_8,32,num_4,0.683476067381,,,2017_May_09_1207,60.003367926,MAFE4ImagesEEG,001,200341,
AFNE01.JPG,AFNE01.JPG,AFNE01.JPG,AFNE01.JPG,AFNE01.JPG,AFNE01.JPG,,,,,,,,,3,1,31,6,,,,,,,,,,,,,,,AMNE09.jpg,AMSA14.jpg,AMSA06.jpg,AMNE04.jpg,AMNE04.jpg,MN,1,num_4,32,num_6,0.483503907686,,,2017_May_09_1207,60.003367926,MAFE4ImagesEEG,001,200341,
AFNE01.JPG,AFNE01.JPG,AFNE01.JPG,AFNE01.JPG,AFNE01.JPG,AFNE01.JPG,,,,,,,,,3,2,32,1,,,,,,,,,,,,,,,AMSA19.jpg,AMSA18.jpg,AMNE04.jpg,AMNE19.jpg,AMSA18.jpg,MS,2,num_6,32,num_2,0.533456133679,,,2017_May_09_1207,60.003367926,MAFE4ImagesEEG,001,200341,
AFNE01.JPG,AFNE01.JPG,AFNE01.JPG,AFNE01.JPG,AFNE01.JPG,AFNE01.JPG,,,,,,,,,3,3,33,2,,,,,,,,,,,,,,,AMNE11.jpg,AMNE18.jpg,AMSA14.jpg,AMSA06.jpg,AMSA06.jpg,MS,2,num_4,16,num_4,0.633532180917,,,2017_May_09_1207,60.003367926,MAFE4ImagesEEG,001,200341,
AFNE01.JPG,AFNE01.JPG,AFNE01.JPG,AFNE01.JPG,AFNE01.JPG,AFNE01.JPG,,,,,,,,,3,4,34,0,,,,,,,,,,,,,,,AMNE15.jpg,AMSA12.jpg,AMNE11.jpg,AMSA14.jpg,AMSA14.jpg,MS,2,num_4,16,num_4,0.450149287935,,,2017_May_09_1207,60.003367926,MAFE4ImagesEEG,001,200341,
AFNE01.JPG,AFNE01.JPG,AFNE01.JPG,AFNE01.JPG,AFNE01.JPG,AFNE01.JPG,,,,,,,,,3,5,35,5,,,,,,,,,,,,,,,AMSA16.jpg,AMNE18.jpg,AMNE11.jpg,AMSA10.jpg,AMSA16.jpg,MS,2,num_8,32,num_6,0.683457785286,,,2017_May_09_1207,60.003367926,MAFE4ImagesEEG,001,200341,
AFNE01.JPG,AFNE01.JPG,AFNE01.JPG,AFNE01.JPG,AFNE01.JPG,AFNE01.JPG,,,,,,,,,3,6,36,9,,,,,,,,,,,,,,,AMNE14.jpg,AMNE07.jpg,AMSA06.jpg,AMSA17.jpg,AMNE14.jpg,MN,1,num_8,16,num_8,1.06676825555,,,2017_May_09_1207,60.003367926,MAFE4ImagesEEG,001,200341,
AFNE01.JPG,AFNE01.JPG,AFNE01.JPG,AFNE01.JPG,AFNE01.JPG,AFNE01.JPG,,,,,,,,,3,7,37,3,,,,,,,,,,,,,,,AMSA20.jpg,AMNE05.jpg,AMNE18.jpg,AMSA12.jpg,AMSA20.jpg,MS,2,num_8,32,num_6,0.400118801743,,,2017_May_09_1207,60.003367926,MAFE4ImagesEEG,001,200341,
AFNE01.JPG,AFNE01.JPG,AFNE01.JPG,AFNE01.JPG,AFNE01.JPG,AFNE01.JPG,,,,,,,,,3,8,38,8,,,,,,,,,,,,,,,AMNE18.jpg,AMSA13.jpg,AMNE13.jpg,AMSA01.jpg,AMSA13.jpg,MS,2,num_6,32,num_8,0.766747311223,,,2017_May_09_1207,60.003367926,MAFE4ImagesEEG,001,200341,
AFNE01.JPG,AFNE01.JPG,AFNE01.JPG,AFNE01.JPG,AFNE01.JPG,AFNE01.JPG,,,,,,,,,3,9,39,4,,,,,,,,,,,,,,,AMSA14.jpg,AMSA04.jpg,AMNE20.jpg,AMNE16.jpg,AMNE16.jpg,MN,1,num_4,16,num_4,0.683512311196,,,2017_May_09_1207,60.003367926,MAFE4ImagesEEG,001,200341,
AFNE01.JPG,AFNE01.JPG,AFNE01.JPG,AFNE01.JPG,AFNE01.JPG,AFNE01.JPG,,,,,,,,,4,0,40,8,,,,,,,,,,,,,,,AMNE11.jpg,AMNE01.jpg,AMSA10.jpg,AMSA08.jpg,AMSA10.jpg,MS,2,num_2,32,num_4,1.25006647338,,,2017_May_09_1207,60.003367926,MAFE4ImagesEEG,001,200341,
AFNE01.JPG,AFNE01.JPG,AFNE01.JPG,AFNE01.JPG,AFNE01.JPG,AFNE01.JPG,,,,,,,,,4,1,41,0,,,,,,,,,,,,,,,AMNE02.jpg,AMSA11.jpg,AMNE15.jpg,AMSA12.jpg,AMNE15.jpg,MN,1,num_2,32,num_6,0.750130460598,,,2017_May_09_1207,60.003367926,MAFE4ImagesEEG,001,200341,
AFNE01.JPG,AFNE01.JPG,AFNE01.JPG,AFNE01.JPG,AFNE01.JPG,AFNE01.JPG,,,,,,,,,4,2,42,9,,,,,,,,,,,,,,,AMSA04.jpg,AMSA05.jpg,AMNE16.jpg,AMNE11.jpg,AMNE11.jpg,MN,1,num_4,32,num_6,0.450098931789,,,2017_May_09_1207,60.003367926,MAFE4ImagesEEG,001,200341,
AFNE01.JPG,AFNE01.JPG,AFNE01.JPG,AFNE01.JPG,AFNE01.JPG,AFNE01.JPG,,,,,,,,,4,3,43,7,,,,,,,,,,,,,,,AMSA06.jpg,AMNE02.jpg,AMSA16.jpg,AMNE08.jpg,AMNE02.jpg,MN,1,num_6,32,num_4,0.816789664794,,,2017_May_09_1207,60.003367926,MAFE4ImagesEEG,001,200341,
AFNE01.JPG,AFNE01.JPG,AFNE01.JPG,AFNE01.JPG,AFNE01.JPG,AFNE01.JPG,,,,,,,,,4,4,44,6,,,,,,,,,,,,,,,AMNE10.jpg,AMSA08.jpg,AMSA06.jpg,AMNE03.jpg,AMNE03.jpg,MN,1,num_4,16,num_4,0.749995429534,,,2017_May_09_1207,60.003367926,MAFE4ImagesEEG,001,200341,
AFNE01.JPG,AFNE01.JPG,AFNE01.JPG,AFNE01.JPG,AFNE01.JPG,AFNE01.JPG,,,,,,,,,4,5,45,2,,,,,,,,,,,,,,,AMNE01.jpg,AMSA12.jpg,AMNE13.jpg,AMSA08.jpg,AMSA12.jpg,MS,2,num_6,16,num_6,0.416784725385,,,2017_May_09_1207,60.003367926,MAFE4ImagesEEG,001,200341,
AFNE01.JPG,AFNE01.JPG,AFNE01.JPG,AFNE01.JPG,AFNE01.JPG,AFNE01.JPG,,,,,,,,,4,6,46,1,,,,,,,,,,,,,,,AMNE15.jpg,AMSA06.jpg,AMSA05.jpg,AMNE07.jpg,AMSA05.jpg,MS,2,num_2,16,num_2,1.78339142445,,,2017_May_09_1207,60.003367926,MAFE4ImagesEEG,001,200341,
AFNE01.JPG,AFNE01.JPG,AFNE01.JPG,AFNE01.JPG,AFNE01.JPG,AFNE01.JPG,,,,,,,,,4,7,47,4,,,,,,,,,,,,,,,AMNE20.jpg,AMSA20.jpg,AMNE02.jpg,AMSA01.jpg,AMNE20.jpg,MN,1,num_8,16,num_8,0.933472298784,,,2017_May_09_1207,60.003367926,MAFE4ImagesEEG,001,200341,
AFNE01.JPG,AFNE01.JPG,AFNE01.JPG,AFNE01.JPG,AFNE01.JPG,AFNE01.JPG,,,,,,,,,4,8,48,5,,,,,,,,,,,,,,,AMNE10.jpg,AMSA14.jpg,AMSA13.jpg,AMNE14.jpg,AMSA14.jpg,MS,2,num_6,16,num_6,0.500158926239,,,2017_May_09_1207,60.003367926,MAFE4ImagesEEG,001,200341,
AFNE01.JPG,AFNE01.JPG,AFNE01.JPG,AFNE01.JPG,AFNE01.JPG,AFNE01.JPG,,,,,,,,,4,9,49,3,,,,,,,,,,,,,,,AMSA03.jpg,AMSA12.jpg,AMNE02.jpg,AMNE20.jpg,AMNE02.jpg,MN,1,num_2,32,num_8,1.1167827046,,,2017_May_09_1207,60.003367926,MAFE4ImagesEEG,001,200341,
AFNE01.JPG,AFNE01.JPG,AFNE01.JPG,AFNE01.JPG,AFNE01.JPG,AFNE01.JPG,,,,,,,,,5,0,50,8,,,,,,,,,,,,,,,AMNE05.jpg,AMSA02.jpg,AMNE08.jpg,AMSA12.jpg,AMNE08.jpg,MN,1,num_2,32,num_8,0.833459116518,,,2017_May_09_1207,60.003367926,MAFE4ImagesEEG,001,200341,
AFNE01.JPG,AFNE01.JPG,AFNE01.JPG,AFNE01.JPG,AFNE01.JPG,AFNE01.JPG,,,,,,,,,5,1,51,1,,,,,,,,,,,,,,,AMNE10.jpg,AMSA06.jpg,AMNE12.jpg,AMSA12.jpg,AMSA12.jpg,MS,2,num_4,32,num_2,0.866746701766,,,2017_May_09_1207,60.003367926,MAFE4ImagesEEG,001,200341,
AFNE01.JPG,AFNE01.JPG,AFNE01.JPG,AFNE01.JPG,AFNE01.JPG,AFNE01.JPG,,,,,,,,,5,2,52,7,,,,,,,,,,,,,,,AMNE20.jpg,AMSA10.jpg,AMNE01.jpg,AMSA02.jpg,AMSA02.jpg,MS,2,num_4,16,num_4,0.466501208022,,,2017_May_09_1207,60.003367926,MAFE4ImagesEEG,001,200341,
AFNE01.JPG,AFNE01.JPG,AFNE01.JPG,AFNE01.JPG,AFNE01.JPG,AFNE01.JPG,,,,,,,,,5,3,53,0,,,,,,,,,,,,,,,AMSA04.jpg,AMNE15.jpg,AMNE16.jpg,AMSA15.jpg,AMNE15.jpg,MN,1,num_6,16,num_6,0.533458058024,,,2017_May_09_1207,60.003367926,MAFE4ImagesEEG,001,200341,
AFNE01.JPG,AFNE01.JPG,AFNE01.JPG,AFNE01.JPG,AFNE01.JPG,AFNE01.JPG,,,,,,,,,5,4,54,6,,,,,,,,,,,,,,,AMSA05.jpg,AMSA14.jpg,AMNE17.jpg,AMNE03.jpg,AMNE17.jpg,MN,1,num_2,32,num_8,0.949929742143,,,2017_May_09_1207,60.003367926,MAFE4ImagesEEG,001,200341,
AFNE01.JPG,AFNE01.JPG,AFNE01.JPG,AFNE01.JPG,AFNE01.JPG,AFNE01.JPG,,,,,,,,,5,5,55,4,,,,,,,,,,,,,,,AMNE03.jpg,AMSA10.jpg,AMNE14.jpg,AMSA20.jpg,AMSA10.jpg,MS,2,num_6,16,num_6,0.533473453484,,,2017_May_09_1207,60.003367926,MAFE4ImagesEEG,001,200341,
AFNE01.JPG,AFNE01.JPG,AFNE01.JPG,AFNE01.JPG,AFNE01.JPG,AFNE01.JPG,,,,,,,,,5,6,56,3,,,,,,,,,,,,,,,AMNE20.jpg,AMSA02.jpg,AMSA12.jpg,AMNE07.jpg,AMSA12.jpg,MS,2,num_2,32,num_8,0.800183719257,,,2017_May_09_1207,60.003367926,MAFE4ImagesEEG,001,200341,
AFNE01.JPG,AFNE01.JPG,AFNE01.JPG,AFNE01.JPG,AFNE01.JPG,AFNE01.JPG,,,,,,,,,5,7,57,2,,,,,,,,,,,,,,,AMSA11.jpg,AMNE18.jpg,AMNE10.jpg,AMSA01.jpg,AMNE10.jpg,MN,1,num_2,32,num_8,0.383488480002,,,2017_May_09_1207,60.003367926,MAFE4ImagesEEG,001,200341,
AFNE01.JPG,AFNE01.JPG,AFNE01.JPG,AFNE01.JPG,AFNE01.JPG,AFNE01.JPG,,,,,,,,,5,8,58,5,,,,,,,,,,,,,,,AMSA07.jpg,AMSA17.jpg,AMNE13.jpg,AMNE16.jpg,AMSA17.jpg,MS,2,num_6,32,num_2,0.600200333633,,,2017_May_09_1207,60.003367926,MAFE4ImagesEEG,001,200341,
AFNE01.JPG,AFNE01.JPG,AFNE01.JPG,AFNE01.JPG,AFNE01.JPG,AFNE01.JPG,,,,,,,,,5,9,59,9,,,,,,,,,,,,,,,AMSA09.jpg,AMNE09.jpg,AMNE11.jpg,AMSA14.jpg,AMSA09.jpg,MS,2,num_8,32,num_4,0.433519928716,,,2017_May_09_1207,60.003367926,MAFE4ImagesEEG,001,200341,
,,,,,,,,,,,,,,,,,,,,,,,,,,,,,,,,,,,,,,,,,,,space,17.165459672,2017_May_09_1207,60.003367926,MAFE4ImagesEEG,001,200341,
AFNE01.JPG,AFNE01.JPG,AFNE01.JPG,AFNE01.JPG,AFNE01.JPG,AFNE01.JPG,,,,,,,,,,,,,0,0,0,3,,,,,,,,,,,AFSA02.jpg,AFSA10.jpg,AFNE08.jpg,AFNE01.jpg,AFSA02.jpg,FS,4,num_8,16,num_8,0.5999328373,,,2017_May_09_1207,60.003367926,MAFE4ImagesEEG,001,200341,
AFNE01.JPG,AFNE01.JPG,AFNE01.JPG,AFNE01.JPG,AFNE01.JPG,AFNE01.JPG,,,,,,,,,,,,,0,1,1,5,,,,,,,,,,,AFSA09.jpg,AFNE14.jpg,AFSA16.jpg,AFNE03.jpg,AFSA09.jpg,FS,4,num_8,16,num_8,0.433667147765,,,2017_May_09_1207,60.003367926,MAFE4ImagesEEG,001,200341,
AFNE01.JPG,AFNE01.JPG,AFNE01.JPG,AFNE01.JPG,AFNE01.JPG,AFNE01.JPG,,,,,,,,,,,,,0,2,2,1,,,,,,,,,,,AFSA16.jpg,AFNE12.jpg,AFSA18.jpg,AFNE16.jpg,AFSA18.jpg,FS,4,num_2,32,num_6,0.38348912145,,,2017_May_09_1207,60.003367926,MAFE4ImagesEEG,001,200341,
AFNE01.JPG,AFNE01.JPG,AFNE01.JPG,AFNE01.JPG,AFNE01.JPG,AFNE01.JPG,,,,,,,,,,,,,0,3,3,6,,,,,,,,,,,AFSA15.jpg,AFNE13.jpg,AFSA19.jpg,AFNE15.jpg,AFSA15.jpg,FS,4,num_8,32,num_2,0.5001416062,,,2017_May_09_1207,60.003367926,MAFE4ImagesEEG,001,200341,
AFNE01.JPG,AFNE01.JPG,AFNE01.JPG,AFNE01.JPG,AFNE01.JPG,AFNE01.JPG,,,,,,,,,,,,,0,4,4,7,,,,,,,,,,,AFSA16.jpg,AFNE07.jpg,AFNE19.jpg,AFSA04.jpg,AFNE19.jpg,FN,3,num_2,32,num_8,0.633456807118,,,2017_May_09_1207,60.003367926,MAFE4ImagesEEG,001,200341,
AFNE01.JPG,AFNE01.JPG,AFNE01.JPG,AFNE01.JPG,AFNE01.JPG,AFNE01.JPG,,,,,,,,,,,,,0,5,5,2,,,,,,,,,,,AFNE13.jpg,AFSA08.jpg,AFNE15.jpg,AFSA09.jpg,AFSA09.jpg,FS,4,num_4,16,num_4,0.43350613676,,,2017_May_09_1207,60.003367926,MAFE4ImagesEEG,001,200341,
AFNE01.JPG,AFNE01.JPG,AFNE01.JPG,AFNE01.JPG,AFNE01.JPG,AFNE01.JPG,,,,,,,,,,,,,0,6,6,8,,,,,,,,,,,AFNE15.jpg,AFSA05.jpg,AFNE04.jpg,AFSA04.jpg,AFSA05.jpg,FS,4,num_6,16,num_6,0.68345201225,,,2017_May_09_1207,60.003367926,MAFE4ImagesEEG,001,200341,
AFNE01.JPG,AFNE01.JPG,AFNE01.JPG,AFNE01.JPG,AFNE01.JPG,AFNE01.JPG,,,,,,,,,,,,,0,7,7,4,,,,,,,,,,,AFSA08.jpg,AFNE04.jpg,AFNE19.jpg,AFSA06.jpg,AFNE04.jpg,FN,3,num_6,32,num_2,0.966749299783,,,2017_May_09_1207,60.003367926,MAFE4ImagesEEG,001,200341,
AFNE01.JPG,AFNE01.JPG,AFNE01.JPG,AFNE01.JPG,AFNE01.JPG,AFNE01.JPG,,,,,,,,,,,,,0,8,8,9,,,,,,,,,,,AFNE12.jpg,AFSA13.jpg,AFSA14.jpg,AFNE17.jpg,AFNE17.jpg,FN,3,num_4,32,num_2,0.950112242717,,,2017_May_09_1207,60.003367926,MAFE4ImagesEEG,001,200341,
AFNE01.JPG,AFNE01.JPG,AFNE01.JPG,AFNE01.JPG,AFNE01.JPG,AFNE01.JPG,,,,,,,,,,,,,0,9,9,0,,,,,,,,,,,AFNE12.jpg,AFNE08.jpg,AFSA14.jpg,AFSA15.jpg,AFNE12.jpg,FN,3,num_8,32,num_6,0.733458122239,,,2017_May_09_1207,60.003367926,MAFE4ImagesEEG,001,200341,
AFNE01.JPG,AFNE01.JPG,AFNE01.JPG,AFNE01.JPG,AFNE01.JPG,AFNE01.JPG,,,,,,,,,,,,,1,0,10,0,,,,,,,,,,,AFNE04.jpg,AFNE15.jpg,AFSA07.jpg,AFSA03.jpg,AFNE04.jpg,FN,3,num_8,32,num_6,0.75015162956,,,2017_May_09_1207,60.003367926,MAFE4ImagesEEG,001,200341,
AFNE01.JPG,AFNE01.JPG,AFNE01.JPG,AFNE01.JPG,AFNE01.JPG,AFNE01.JPG,,,,,,,,,,,,,1,1,11,9,,,,,,,,,,,AFNE01.jpg,AFNE12.jpg,AFSA14.jpg,AFSA04.jpg,AFNE01.jpg,FN,3,num_8,16,num_8,0.583458074136,,,2017_May_09_1207,60.003367926,MAFE4ImagesEEG,001,200341,
AFNE01.JPG,AFNE01.JPG,AFNE01.JPG,AFNE01.JPG,AFNE01.JPG,AFNE01.JPG,,,,,,,,,,,,,1,2,12,4,,,,,,,,,,,AFNE20.jpg,AFSA12.jpg,AFSA08.jpg,AFNE07.jpg,AFNE07.jpg,FN,3,num_4,16,num_4,0.549792658072,,,2017_May_09_1207,60.003367926,MAFE4ImagesEEG,001,200341,
AFNE01.JPG,AFNE01.JPG,AFNE01.JPG,AFNE01.JPG,AFNE01.JPG,AFNE01.JPG,,,,,,,,,,,,,1,3,13,2,,,,,,,,,,,AFNE09.jpg,AFNE17.jpg,AFSA10.jpg,AFSA11.jpg,AFSA11.jpg,FS,4,num_4,16,num_4,1.83347932319,,,2017_May_09_1207,60.003367926,MAFE4ImagesEEG,001,200341,
AFNE01.JPG,AFNE01.JPG,AFNE01.JPG,AFNE01.JPG,AFNE01.JPG,AFNE01.JPG,,,,,,,,,,,,,1,4,14,1,,,,,,,,,,,AFNE19.jpg,AFSA14.jpg,AFSA11.jpg,AFNE16.jpg,AFSA11.jpg,FS,4,num_2,16,num_2,0.766777139856,,,2017_May_09_1207,60.003367926,MAFE4ImagesEEG,001,200341,
AFNE01.JPG,AFNE01.JPG,AFNE01.JPG,AFNE01.JPG,AFNE01.JPG,AFNE01.JPG,,,,,,,,,,,,,1,5,15,6,,,,,,,,,,,AFNE16.jpg,AFSA14.jpg,AFNE03.jpg,AFSA18.jpg,AFNE03.jpg,FN,3,num_2,32,num_8,2.03363526636,,,2017_May_09_1207,60.003367926,MAFE4ImagesEEG,001,200341,
AFNE01.JPG,AFNE01.JPG,AFNE01.JPG,AFNE01.JPG,AFNE01.JPG,AFNE01.JPG,,,,,,,,,,,,,1,6,16,8,,,,,,,,,,,AFNE03.jpg,AFSA10.jpg,AFSA19.jpg,AFNE10.jpg,AFSA19.jpg,FS,4,num_2,32,num_4,0.766773611773,,,2017_May_09_1207,60.003367926,MAFE4ImagesEEG,001,200341,
AFNE01.JPG,AFNE01.JPG,AFNE01.JPG,AFNE01.JPG,AFNE01.JPG,AFNE01.JPG,,,,,,,,,,,,,1,7,17,7,,,,,,,,,,,AFNE09.jpg,AFSA11.jpg,AFSA02.jpg,AFNE07.jpg,AFSA02.jpg,FS,4,num_2,32,num_8,0.666798918042,,,2017_May_09_1207,60.003367926,MAFE4ImagesEEG,001,200341,
AFNE01.JPG,AFNE01.JPG,AFNE01.JPG,AFNE01.JPG,AFNE01.JPG,AFNE01.JPG,,,,,,,,,,,,,1,8,18,5,,,,,,,,,,,AFSA05.jpg,AFNE08.jpg,AFNE12.jpg,AFSA03.jpg,AFSA05.jpg,FS,4,num_8,16,num_8,0.816772344755,,,2017_May_09_1207,60.003367926,MAFE4ImagesEEG,001,200341,
AFNE01.JPG,AFNE01.JPG,AFNE01.JPG,AFNE01.JPG,AFNE01.JPG,AFNE01.JPG,,,,,,,,,,,,,1,9,19,3,,,,,,,,,,,AFNE15.jpg,AFNE07.jpg,AFSA06.jpg,AFSA03.jpg,AFSA03.jpg,FS,4,num_4,16,num_4,0.750127253355,,,2017_May_09_1207,60.003367926,MAFE4ImagesEEG,001,200341,
AFNE01.JPG,AFNE01.JPG,AFNE01.JPG,AFNE01.JPG,AFNE01.JPG,AFNE01.JPG,,,,,,,,,,,,,2,0,20,6,,,,,,,,,,,AFNE02.jpg,AFSA13.jpg,AFNE18.jpg,AFSA02.jpg,AFNE02.jpg,FN,3,num_8,16,num_8,0.733572946861,,,2017_May_09_1207,60.003367926,MAFE4ImagesEEG,001,200341,
AFNE01.JPG,AFNE01.JPG,AFNE01.JPG,AFNE01.JPG,AFNE01.JPG,AFNE01.JPG,,,,,,,,,,,,,2,1,21,2,,,,,,,,,,,AFNE10.jpg,AFNE08.jpg,AFSA05.jpg,AFSA20.jpg,AFNE08.jpg,FN,3,num_6,32,num_8,0.533491094131,,,2017_May_09_1207,60.003367926,MAFE4ImagesEEG,001,200341,
AFNE01.JPG,AFNE01.JPG,AFNE01.JPG,AFNE01.JPG,AFNE01.JPG,AFNE01.JPG,,,,,,,,,,,,,2,2,22,4,,,,,,,,,,,AFSA15.jpg,AFNE11.jpg,AFSA13.jpg,AFNE02.jpg,AFSA13.jpg,FS,4,num_2,16,num_2,0.96678201505,,,2017_May_09_1207,60.003367926,MAFE4ImagesEEG,001,200341,
AFNE01.JPG,AFNE01.JPG,AFNE01.JPG,AFNE01.JPG,AFNE01.JPG,AFNE01.JPG,,,,,,,,,,,,,2,3,23,9,,,,,,,,,,,AFNE08.jpg,AFSA09.jpg,AFNE06.jpg,AFSA14.jpg,AFNE08.jpg,FN,3,num_8,16,num_8,0.850112851942,,,2017_May_09_1207,60.003367926,MAFE4ImagesEEG,001,200341,
AFNE01.JPG,AFNE01.JPG,AFNE01.JPG,AFNE01.JPG,AFNE01.JPG,AFNE01.JPG,,,,,,,,,,,,,2,4,24,5,,,,,,,,,,,AFNE07.jpg,AFSA02.jpg,AFNE14.jpg,AFSA10.jpg,AFNE14.jpg,FN,3,num_2,32,num_8,0.766817552969,,,2017_May_09_1207,60.003367926,MAFE4ImagesEEG,001,200341,
AFNE01.JPG,AFNE01.JPG,AFNE01.JPG,AFNE01.JPG,AFNE01.JPG,AFNE01.JPG,,,,,,,,,,,,,2,5,25,8,,,,,,,,,,,AFSA17.jpg,AFSA16.jpg,AFNE04.jpg,AFNE10.jpg,AFSA17.jpg,FS,4,num_8,32,num_6,0.616803392535,,,2017_May_09_1207,60.003367926,MAFE4ImagesEEG,001,200341,
AFNE01.JPG,AFNE01.JPG,AFNE01.JPG,AFNE01.JPG,AFNE01.JPG,AFNE01.JPG,,,,,,,,,,,,,2,6,26,3,,,,,,,,,,,AFSA08.jpg,AFNE07.jpg,AFNE09.jpg,AFSA10.jpg,AFNE07.jpg,FN,3,num_6,32,num_8,1.28339703754,,,2017_May_09_1207,60.003367926,MAFE4ImagesEEG,001,200341,
AFNE01.JPG,AFNE01.JPG,AFNE01.JPG,AFNE01.JPG,AFNE01.JPG,AFNE01.JPG,,,,,,,,,,,,,2,7,27,0,,,,,,,,,,,AFNE04.jpg,AFSA16.jpg,AFSA01.jpg,AFNE16.jpg,AFSA16.jpg,FS,4,num_6,16,num_6,1.10013570474,,,2017_May_09_1207,60.003367926,MAFE4ImagesEEG,001,200341,
AFNE01.JPG,AFNE01.JPG,AFNE01.JPG,AFNE01.JPG,AFNE01.JPG,AFNE01.JPG,,,,,,,,,,,,,2,8,28,7,,,,,,,,,,,AFNE14.jpg,AFSA01.jpg,AFNE11.jpg,AFSA15.jpg,AFNE11.jpg,FN,3,num_2,16,num_2,1.10010587587,,,2017_May_09_1207,60.003367926,MAFE4ImagesEEG,001,200341,
AFNE01.JPG,AFNE01.JPG,AFNE01.JPG,AFNE01.JPG,AFNE01.JPG,AFNE01.JPG,,,,,,,,,,,,,2,9,29,1,,,,,,,,,,,AFNE08.jpg,AFNE04.jpg,AFSA15.jpg,AFSA17.jpg,AFSA17.jpg,FS,4,num_4,32,num_6,1.30007226253,,,2017_May_09_1207,60.003367926,MAFE4ImagesEEG,001,200341,
AFNE01.JPG,AFNE01.JPG,AFNE01.JPG,AFNE01.JPG,AFNE01.JPG,AFNE01.JPG,,,,,,,,,,,,,3,0,30,0,,,,,,,,,,,AFNE14.jpg,AFSA10.jpg,AFSA19.jpg,AFNE01.jpg,AFSA19.jpg,FS,4,num_2,16,num_2,1.58341958537,,,2017_May_09_1207,60.003367926,MAFE4ImagesEEG,001,200341,
AFNE01.JPG,AFNE01.JPG,AFNE01.JPG,AFNE01.JPG,AFNE01.JPG,AFNE01.JPG,,,,,,,,,,,,,3,1,31,3,,,,,,,,,,,AFNE19.jpg,AFSA08.jpg,AFNE01.jpg,AFSA17.jpg,AFNE19.jpg,FN,3,num_8,16,num_8,0.83351652883,,,2017_May_09_1207,60.003367926,MAFE4ImagesEEG,001,200341,
AFNE01.JPG,AFNE01.JPG,AFNE01.JPG,AFNE01.JPG,AFNE01.JPG,AFNE01.JPG,,,,,,,,,,,,,3,2,32,7,,,,,,,,,,,AFNE07.jpg,AFSA07.jpg,AFNE19.jpg,AFSA13.jpg,AFSA07.jpg,FS,4,num_6,16,num_6,0.850092645502,,,2017_May_09_1207,60.003367926,MAFE4ImagesEEG,001,200341,
AFNE01.JPG,AFNE01.JPG,AFNE01.JPG,AFNE01.JPG,AFNE01.JPG,AFNE01.JPG,,,,,,,,,,,,,3,3,33,8,,,,,,,,,,,AFNE18.jpg,AFSA11.jpg,AFNE01.jpg,AFSA06.jpg,AFNE18.jpg,FN,3,num_8,16,num_8,0.93348609074,,,2017_May_09_1207,60.003367926,MAFE4ImagesEEG,001,200341,
AFNE01.JPG,AFNE01.JPG,AFNE01.JPG,AFNE01.JPG,AFNE01.JPG,AFNE01.JPG,,,,,,,,,,,,,3,4,34,5,,,,,,,,,,,AFSA18.jpg,AFNE18.jpg,AFNE11.jpg,AFSA19.jpg,AFSA19.jpg,FS,4,num_4,16,num_4,1.11654439569,,,2017_May_09_1207,60.003367926,MAFE4ImagesEEG,001,200341,
AFNE01.JPG,AFNE01.JPG,AFNE01.JPG,AFNE01.JPG,AFNE01.JPG,AFNE01.JPG,,,,,,,,,,,,,3,5,35,6,,,,,,,,,,,AFSA02.jpg,AFNE12.jpg,AFNE07.jpg,AFSA16.jpg,AFSA16.jpg,FS,4,num_4,32,num_2,0.700175668579,,,2017_May_09_1207,60.003367926,MAFE4ImagesEEG,001,200341,
AFNE01.JPG,AFNE01.JPG,AFNE01.JPG,AFNE01.JPG,AFNE01.JPG,AFNE01.JPG,,,,,,,,,,,,,3,6,36,2,,,,,,,,,,,AFNE19.jpg,AFNE01.jpg,AFSA09.jpg,AFSA20.jpg,AFSA09.jpg,FS,4,num_2,32,num_4,0.466858511325,,,2017_May_09_1207,60.003367926,MAFE4ImagesEEG,001,200341,
AFNE01.JPG,AFNE01.JPG,AFNE01.JPG,AFNE01.JPG,AFNE01.JPG,AFNE01.JPG,,,,,,,,,,,,,3,7,37,1,,,,,,,,,,,AFNE09.jpg,AFSA19.jpg,AFNE03.jpg,AFSA18.jpg,AFSA18.jpg,FS,4,num_4,32,num_8,1.0667788398,,,2017_May_09_1207,60.003367926,MAFE4ImagesEEG,001,200341,
AFNE01.JPG,AFNE01.JPG,AFNE01.JPG,AFNE01.JPG,AFNE01.JPG,AFNE01.JPG,,,,,,,,,,,,,3,8,38,4,,,,,,,,,,,AFSA05.jpg,AFNE04.jpg,AFNE06.jpg,AFSA16.jpg,AFSA05.jpg,FS,4,num_8,16,num_8,0.700104143936,,,2017_May_09_1207,60.003367926,MAFE4ImagesEEG,001,200341,
AFNE01.JPG,AFNE01.JPG,AFNE01.JPG,AFNE01.JPG,AFNE01.JPG,AFNE01.JPG,,,,,,,,,,,,,3,9,39,9,,,,,,,,,,,AFSA02.jpg,AFNE18.jpg,AFSA07.jpg,AFNE17.jpg,AFNE17.jpg,FN,3,num_4,32,num_6,0.866651442368,,,2017_May_09_1207,60.003367926,MAFE4ImagesEEG,001,200341,
AFNE01.JPG,AFNE01.JPG,AFNE01.JPG,AFNE01.JPG,AFNE01.JPG,AFNE01.JPG,,,,,,,,,,,,,4,0,40,4,,,,,,,,,,,AFSA19.jpg,AFNE08.jpg,AFNE19.jpg,AFSA11.jpg,AFSA11.jpg,FS,4,num_4,32,num_8,0.716686034109,,,2017_May_09_1207,60.003367926,MAFE4ImagesEEG,001,200341,
AFNE01.JPG,AFNE01.JPG,AFNE01.JPG,AFNE01.JPG,AFNE01.JPG,AFNE01.JPG,,,,,,,,,,,,,4,1,41,7,,,,,,,,,,,AFNE14.jpg,AFSA11.jpg,AFNE03.jpg,AFSA02.jpg,AFNE14.jpg,FN,3,num_8,16,num_8,1.03347874596,,,2017_May_09_1207,60.003367926,MAFE4ImagesEEG,001,200341,
AFNE01.JPG,AFNE01.JPG,AFNE01.JPG,AFNE01.JPG,AFNE01.JPG,AFNE01.JPG,,,,,,,,,,,,,4,2,42,6,,,,,,,,,,,AFSA19.jpg,AFSA10.jpg,AFNE20.jpg,AFNE17.jpg,AFNE20.jpg,FN,3,num_2,32,num_6,0.483516416745,,,2017_May_09_1207,60.003367926,MAFE4ImagesEEG,001,200341,
AFNE01.JPG,AFNE01.JPG,AFNE01.JPG,AFNE01.JPG,AFNE01.JPG,AFNE01.JPG,,,,,,,,,,,,,4,3,43,1,,,,,,,,,,,AFNE16.jpg,AFSA15.jpg,AFNE02.jpg,AFSA02.jpg,AFSA02.jpg,FS,4,num_4,16,num_4,0.766812100308,,,2017_May_09_1207,60.003367926,MAFE4ImagesEEG,001,200341,
AFNE01.JPG,AFNE01.JPG,AFNE01.JPG,AFNE01.JPG,AFNE01.JPG,AFNE01.JPG,,,,,,,,,,,,,4,4,44,8,,,,,,,,,,,AFSA14.jpg,AFNE04.jpg,AFSA18.jpg,AFNE12.jpg,AFNE12.jpg,FN,3,num_4,16,num_4,0.800001218682,,,2017_May_09_1207,60.003367926,MAFE4ImagesEEG,001,200341,
AFNE01.JPG,AFNE01.JPG,AFNE01.JPG,AFNE01.JPG,AFNE01.JPG,AFNE01.JPG,,,,,,,,,,,,,4,5,45,2,,,,,,,,,,,AFSA14.jpg,AFNE14.jpg,AFSA07.jpg,AFNE06.jpg,AFNE06.jpg,FN,3,num_4,16,num_4,0.783459421014,,,2017_May_09_1207,60.003367926,MAFE4ImagesEEG,001,200341,
AFNE01.JPG,AFNE01.JPG,AFNE01.JPG,AFNE01.JPG,AFNE01.JPG,AFNE01.JPG,,,,,,,,,,,,,4,6,46,5,,,,,,,,,,,AFNE09.jpg,AFSA06.jpg,AFSA19.jpg,AFNE13.jpg,AFNE09.jpg,FN,3,num_8,32,num_6,0.650131390896,,,2017_May_09_1207,60.003367926,MAFE4ImagesEEG,001,200341,
AFNE01.JPG,AFNE01.JPG,AFNE01.JPG,AFNE01.JPG,AFNE01.JPG,AFNE01.JPG,,,,,,,,,,,,,4,7,47,3,,,,,,,,,,,AFSA14.jpg,AFNE10.jpg,AFSA07.jpg,AFNE06.jpg,AFSA14.jpg,FS,4,num_8,32,num_2,1.19991346472,,,2017_May_09_1207,60.003367926,MAFE4ImagesEEG,001,200341,
AFNE01.JPG,AFNE01.JPG,AFNE01.JPG,AFNE01.JPG,AFNE01.JPG,AFNE01.JPG,,,,,,,,,,,,,4,8,48,9,,,,,,,,,,,AFSA15.jpg,AFNE13.jpg,AFSA01.jpg,AFNE06.jpg,AFNE13.jpg,FN,3,num_6,32,num_8,1.28340345225,,,2017_May_09_1207,60.003367926,MAFE4ImagesEEG,001,200341,
AFNE01.JPG,AFNE01.JPG,AFNE01.JPG,AFNE01.JPG,AFNE01.JPG,AFNE01.JPG,,,,,,,,,,,,,4,9,49,0,,,,,,,,,,,AFNE09.jpg,AFNE03.jpg,AFSA20.jpg,AFSA14.jpg,AFSA20.jpg,FS,4,num_2,32,num_8,0.816788702505,,,2017_May_09_1207,60.003367926,MAFE4ImagesEEG,001,200341,
AFNE01.JPG,AFNE01.JPG,AFNE01.JPG,AFNE01.JPG,AFNE01.JPG,AFNE01.JPG,,,,,,,,,,,,,5,0,50,7,,,,,,,,,,,AFSA17.jpg,AFSA11.jpg,AFNE13.jpg,AFNE05.jpg,AFSA17.jpg,FS,4,num_8,16,num_8,0.600178523222,,,2017_May_09_1207,60.003367926,MAFE4ImagesEEG,001,200341,
AFNE01.JPG,AFNE01.JPG,AFNE01.JPG,AFNE01.JPG,AFNE01.JPG,AFNE01.JPG,,,,,,,,,,,,,5,1,51,5,,,,,,,,,,,AFSA20.jpg,AFNE13.jpg,AFNE06.jpg,AFSA17.jpg,AFNE13.jpg,FN,3,num_6,16,num_6,0.683531234739,,,2017_May_09_1207,60.003367926,MAFE4ImagesEEG,001,200341,
AFNE01.JPG,AFNE01.JPG,AFNE01.JPG,AFNE01.JPG,AFNE01.JPG,AFNE01.JPG,,,,,,,,,,,,,5,2,52,2,,,,,,,,,,,AFNE19.jpg,AFSA19.jpg,AFNE18.jpg,AFSA03.jpg,AFSA03.jpg,FS,4,num_4,32,num_6,0.400176534895,,,2017_May_09_1207,60.003367926,MAFE4ImagesEEG,001,200341,
AFNE01.JPG,AFNE01.JPG,AFNE01.JPG,AFNE01.JPG,AFNE01.JPG,AFNE01.JPG,,,,,,,,,,,,,5,3,53,0,,,,,,,,,,,AFNE15.jpg,AFSA07.jpg,AFNE13.jpg,AFSA15.jpg,AFNE15.jpg,FN,3,num_8,32,num_4,0.63345007156,,,2017_May_09_1207,60.003367926,MAFE4ImagesEEG,001,200341,
AFNE01.JPG,AFNE01.JPG,AFNE01.JPG,AFNE01.JPG,AFNE01.JPG,AFNE01.JPG,,,,,,,,,,,,,5,4,54,6,,,,,,,,,,,AFSA18.jpg,AFSA02.jpg,AFNE08.jpg,AFNE19.jpg,AFNE08.jpg,FN,3,num_2,16,num_2,1.25007834053,,,2017_May_09_1207,60.003367926,MAFE4ImagesEEG,001,200341,
AFNE01.JPG,AFNE01.JPG,AFNE01.JPG,AFNE01.JPG,AFNE01.JPG,AFNE01.JPG,,,,,,,,,,,,,5,5,55,4,,,,,,,,,,,AFSA04.jpg,AFNE07.jpg,AFSA08.jpg,AFNE03.jpg,AFNE03.jpg,FN,3,num_4,16,num_4,0.500113702146,,,2017_May_09_1207,60.003367926,MAFE4ImagesEEG,001,200341,
AFNE01.JPG,AFNE01.JPG,AFNE01.JPG,AFNE01.JPG,AFNE01.JPG,AFNE01.JPG,,,,,,,,,,,,,5,6,56,8,,,,,,,,,,,AFNE15.jpg,AFNE13.jpg,AFSA17.jpg,AFSA07.jpg,AFSA17.jpg,FS,4,num_2,16,num_2,0.683311849134,,,2017_May_09_1207,60.003367926,MAFE4ImagesEEG,001,200341,
AFNE01.JPG,AFNE01.JPG,AFNE01.JPG,AFNE01.JPG,AFNE01.JPG,AFNE01.JPG,,,,,,,,,,,,,5,7,57,1,,,,,,,,,,,AFNE02.jpg,AFSA17.jpg,AFNE05.jpg,AFSA07.jpg,AFNE02.jpg,FN,3,num_8,32,num_4,1.30014988151,,,2017_May_09_1207,60.003367926,MAFE4ImagesEEG,001,200341,
AFNE01.JPG,AFNE01.JPG,AFNE01.JPG,AFNE01.JPG,AFNE01.JPG,AFNE01.JPG,,,,,,,,,,,,,5,8,58,9,,,,,,,,,,,AFNE04.jpg,AFSA19.jpg,AFNE12.jpg,AFSA11.jpg,AFNE04.jpg,FN,3,num_8,32,num_2,0.916891050292,,,2017_May_09_1207,60.003367926,MAFE4ImagesEEG,001,200341,
AFNE01.JPG,AFNE01.JPG,AFNE01.JPG,AFNE01.JPG,AFNE01.JPG,AFNE01.JPG,,,,,,,,,,,,,5,9,59,3,,,,,,,,,,,AFNE10.jpg,AFNE06.jpg,AFSA14.jpg,AFSA06.jpg,AFSA14.jpg,FS,4,num_2,32,num_4,0.766807289328,,,2017_May_09_1207,60.003367926,MAFE4ImagesEEG,001,200341,
,,,,,,,,,,,,,,,,,,,,,,,,,,,,,,,,,,,,,,,,,,,space,20.6654867746,2017_May_09_1207,60.003367926,MAFE4ImagesEEG,001,200341,
AFNE01.JPG,AFNE01.JPG,AFNE01.JPG,AFNE01.JPG,AFNE01.JPG,AFNE01.JPG,,,,,,,,,,,,,,,,,0,0,0,4,,,,,,,AMNE07.jpg,AMNE20.jpg,AMSA19.jpg,AMSA12.jpg,AMNE20.jpg,MN,1,num_6,32,num_8,0.883319610963,,,2017_May_09_1207,60.003367926,MAFE4ImagesEEG,001,200341,
AFNE01.JPG,AFNE01.JPG,AFNE01.JPG,AFNE01.JPG,AFNE01.JPG,AFNE01.JPG,,,,,,,,,,,,,,,,,0,1,1,0,,,,,,,AMNE08.jpg,AMSA05.jpg,AMSA17.jpg,AMNE05.jpg,AMSA17.jpg,MS,2,num_2,16,num_2,0.866637329571,,,2017_May_09_1207,60.003367926,MAFE4ImagesEEG,001,200341,
AFNE01.JPG,AFNE01.JPG,AFNE01.JPG,AFNE01.JPG,AFNE01.JPG,AFNE01.JPG,,,,,,,,,,,,,,,,,0,2,2,8,,,,,,,AMSA16.jpg,AMSA05.jpg,AMNE03.jpg,AMNE04.jpg,AMNE04.jpg,MN,1,num_4,16,num_4,0.65013267356,,,2017_May_09_1207,60.003367926,MAFE4ImagesEEG,001,200341,
AFNE01.JPG,AFNE01.JPG,AFNE01.JPG,AFNE01.JPG,AFNE01.JPG,AFNE01.JPG,,,,,,,,,,,,,,,,,0,3,3,5,,,,,,,AMSA13.jpg,AMNE04.jpg,AMSA10.jpg,AMNE15.jpg,AMSA13.jpg,MS,2,num_8,32,num_4,0.683468369767,,,2017_May_09_1207,60.003367926,MAFE4ImagesEEG,001,200341,
AFNE01.JPG,AFNE01.JPG,AFNE01.JPG,AFNE01.JPG,AFNE01.JPG,AFNE01.JPG,,,,,,,,,,,,,,,,,0,4,4,9,,,,,,,AMSA01.jpg,AMSA03.jpg,AMNE19.jpg,AMNE02.jpg,AMNE19.jpg,MN,1,num_2,16,num_2,0.883428341709,,,2017_May_09_1207,60.003367926,MAFE4ImagesEEG,001,200341,
AFNE01.JPG,AFNE01.JPG,AFNE01.JPG,AFNE01.JPG,AFNE01.JPG,AFNE01.JPG,,,,,,,,,,,,,,,,,0,5,5,1,,,,,,,AMNE09.jpg,AMNE20.jpg,AMSA14.jpg,AMSA12.jpg,AMNE20.jpg,MN,1,num_6,16,num_6,0.966787788318,,,2017_May_09_1207,60.003367926,MAFE4ImagesEEG,001,200341,
AFNE01.JPG,AFNE01.JPG,AFNE01.JPG,AFNE01.JPG,AFNE01.JPG,AFNE01.JPG,,,,,,,,,,,,,,,,,0,6,6,7,,,,,,,AMNE18.jpg,AMSA17.jpg,AMSA11.jpg,AMNE04.jpg,AMNE04.jpg,MN,1,num_4,16,num_4,0.566776755033,,,2017_May_09_1207,60.003367926,MAFE4ImagesEEG,001,200341,
AFNE01.JPG,AFNE01.JPG,AFNE01.JPG,AFNE01.JPG,AFNE01.JPG,AFNE01.JPG,,,,,,,,,,,,,,,,,0,7,7,6,,,,,,,AMNE14.jpg,AMSA04.jpg,AMNE08.jpg,AMSA14.jpg,AMNE14.jpg,MN,1,num_8,32,num_2,1.05011644447,,,2017_May_09_1207,60.003367926,MAFE4ImagesEEG,001,200341,
AFNE01.JPG,AFNE01.JPG,AFNE01.JPG,AFNE01.JPG,AFNE01.JPG,AFNE01.JPG,,,,,,,,,,,,,,,,,0,8,8,3,,,,,,,AMNE15.jpg,AMSA03.jpg,AMNE18.jpg,AMSA20.jpg,AMSA20.jpg,MS,2,num_4,32,num_8,1.06676280289,,,2017_May_09_1207,60.003367926,MAFE4ImagesEEG,001,200341,
AFNE01.JPG,AFNE01.JPG,AFNE01.JPG,AFNE01.JPG,AFNE01.JPG,AFNE01.JPG,,,,,,,,,,,,,,,,,0,9,9,2,,,,,,,AMNE02.jpg,AMSA17.jpg,AMSA04.jpg,AMNE10.jpg,AMNE02.jpg,MN,1,num_8,32,num_2,0.583473790437,,,2017_May_09_1207,60.003367926,MAFE4ImagesEEG,001,200341,
AFNE01.JPG,AFNE01.JPG,AFNE01.JPG,AFNE01.JPG,AFNE01.JPG,AFNE01.JPG,,,,,,,,,,,,,,,,,1,0,10,1,,,,,,,AMSA07.jpg,AMNE16.jpg,AMNE01.jpg,AMSA19.jpg,AMNE01.jpg,MN,1,num_2,16,num_2,0.583439791808,,,2017_May_09_1207,60.003367926,MAFE4ImagesEEG,001,200341,
AFNE01.JPG,AFNE01.JPG,AFNE01.JPG,AFNE01.JPG,AFNE01.JPG,AFNE01.JPG,,,,,,,,,,,,,,,,,1,1,11,2,,,,,,,AMSA15.jpg,AMSA20.jpg,AMNE10.jpg,AMNE12.jpg,AMNE12.jpg,MN,1,num_4,32,num_2,0.80011925078,,,2017_May_09_1207,60.003367926,MAFE4ImagesEEG,001,200341,
AFNE01.JPG,AFNE01.JPG,AFNE01.JPG,AFNE01.JPG,AFNE01.JPG,AFNE01.JPG,,,,,,,,,,,,,,,,,1,2,12,9,,,,,,,AMNE16.jpg,AMSA16.jpg,AMSA10.jpg,AMNE06.jpg,AMNE16.jpg,MN,1,num_8,32,num_4,0.500209602993,,,2017_May_09_1207,60.003367926,MAFE4ImagesEEG,001,200341,
AFNE01.JPG,AFNE01.JPG,AFNE01.JPG,AFNE01.JPG,AFNE01.JPG,AFNE01.JPG,,,,,,,,,,,,,,,,,1,3,13,7,,,,,,,AMNE18.jpg,AMSA10.jpg,AMSA06.jpg,AMNE17.jpg,AMSA06.jpg,MS,2,num_2,32,num_6,0.450139345136,,,2017_May_09_1207,60.003367926,MAFE4ImagesEEG,001,200341,
AFNE01.JPG,AFNE01.JPG,AFNE01.JPG,AFNE01.JPG,AFNE01.JPG,AFNE01.JPG,,,,,,,,,,,,,,,,,1,4,14,8,,,,,,,AMSA09.jpg,AMNE19.jpg,AMSA15.jpg,AMNE12.jpg,AMSA15.jpg,MS,2,num_2,32,num_8,0.283497428754,,,2017_May_09_1207,60.003367926,MAFE4ImagesEEG,001,200341,
AFNE01.JPG,AFNE01.JPG,AFNE01.JPG,AFNE01.JPG,AFNE01.JPG,AFNE01.JPG,,,,,,,,,,,,,,,,,1,5,15,5,,,,,,,AMNE15.jpg,AMSA10.jpg,AMSA11.jpg,AMNE08.jpg,AMNE08.jpg,MN,1,num_4,16,num_4,0.650108939037,,,2017_May_09_1207,60.003367926,MAFE4ImagesEEG,001,200341,
AFNE01.JPG,AFNE01.JPG,AFNE01.JPG,AFNE01.JPG,AFNE01.JPG,AFNE01.JPG,,,,,,,,,,,,,,,,,1,6,16,6,,,,,,,AMSA15.jpg,AMSA01.jpg,AMNE06.jpg,AMNE10.jpg,AMNE10.jpg,MN,1,num_4,16,num_4,0.833595109871,,,2017_May_09_1207,60.003367926,MAFE4ImagesEEG,001,200341,
AFNE01.JPG,AFNE01.JPG,AFNE01.JPG,AFNE01.JPG,AFNE01.JPG,AFNE01.JPG,,,,,,,,,,,,,,,,,1,7,17,3,,,,,,,AMNE07.jpg,AMSA10.jpg,AMSA05.jpg,AMNE20.jpg,AMNE20.jpg,MN,1,num_4,16,num_4,0.61677869549,,,2017_May_09_1207,60.003367926,MAFE4ImagesEEG,001,200341,
AFNE01.JPG,AFNE01.JPG,AFNE01.JPG,AFNE01.JPG,AFNE01.JPG,AFNE01.JPG,,,,,,,,,,,,,,,,,1,8,18,0,,,,,,,AMNE09.jpg,AMSA08.jpg,AMNE04.jpg,AMSA07.jpg,AMNE09.jpg,MN,1,num_8,32,num_6,0.683418334695,,,2017_May_09_1207,60.003367926,MAFE4ImagesEEG,001,200341,
AFNE01.JPG,AFNE01.JPG,AFNE01.JPG,AFNE01.JPG,AFNE01.JPG,AFNE01.JPG,,,,,,,,,,,,,,,,,1,9,19,4,,,,,,,AMNE11.jpg,AMSA16.jpg,AMSA04.jpg,AMNE13.jpg,AMNE11.jpg,MN,1,num_8,32,num_4,1.16669740411,,,2017_May_09_1207,60.003367926,MAFE4ImagesEEG,001,200341,
AFNE01.JPG,AFNE01.JPG,AFNE01.JPG,AFNE01.JPG,AFNE01.JPG,AFNE01.JPG,,,,,,,,,,,,,,,,,2,0,20,9,,,,,,,AMNE20.jpg,AMNE10.jpg,AMSA13.jpg,AMSA07.jpg,AMSA13.jpg,MS,2,num_2,32,num_8,1.05006769206,,,2017_May_09_1207,60.003367926,MAFE4ImagesEEG,001,200341,
AFNE01.JPG,AFNE01.JPG,AFNE01.JPG,AFNE01.JPG,AFNE01.JPG,AFNE01.JPG,,,,,,,,,,,,,,,,,2,1,21,8,,,,,,,AMSA01.jpg,AMSA03.jpg,AMNE06.jpg,AMNE02.jpg,AMSA01.jpg,MS,2,num_8,32,num_6,0.450232680188,,,2017_May_09_1207,60.003367926,MAFE4ImagesEEG,001,200341,
AFNE01.JPG,AFNE01.JPG,AFNE01.JPG,AFNE01.JPG,AFNE01.JPG,AFNE01.JPG,,,,,,,,,,,,,,,,,2,2,22,5,,,,,,,AMSA14.jpg,AMNE16.jpg,AMNE10.jpg,AMSA13.jpg,AMSA13.jpg,MS,2,num_4,32,num_2,1.516684687,,,2017_May_09_1207,60.003367926,MAFE4ImagesEEG,001,200341,
AFNE01.JPG,AFNE01.JPG,AFNE01.JPG,AFNE01.JPG,AFNE01.JPG,AFNE01.JPG,,,,,,,,,,,,,,,,,2,3,23,6,,,,,,,AMNE10.jpg,AMNE04.jpg,AMSA18.jpg,AMSA19.jpg,AMSA18.jpg,MS,2,num_2,32,num_6,0.483463494573,,,2017_May_09_1207,60.003367926,MAFE4ImagesEEG,001,200341,
AFNE01.JPG,AFNE01.JPG,AFNE01.JPG,AFNE01.JPG,AFNE01.JPG,AFNE01.JPG,,,,,,,,,,,,,,,,,2,4,24,2,,,,,,,AMNE17.jpg,AMSA04.jpg,AMNE15.jpg,AMSA16.jpg,AMSA04.jpg,MS,2,num_6,16,num_6,0.716417575255,,,2017_May_09_1207,60.003367926,MAFE4ImagesEEG,001,200341,
AFNE01.JPG,AFNE01.JPG,AFNE01.JPG,AFNE01.JPG,AFNE01.JPG,AFNE01.JPG,,,,,,,,,,,,,,,,,2,5,25,4,,,,,,,AMNE07.jpg,AMNE04.jpg,AMSA03.jpg,AMSA06.jpg,AMSA03.jpg,MS,2,num_2,16,num_2,0.666812068317,,,2017_May_09_1207,60.003367926,MAFE4ImagesEEG,001,200341,
AFNE01.JPG,AFNE01.JPG,AFNE01.JPG,AFNE01.JPG,AFNE01.JPG,AFNE01.JPG,,,,,,,,,,,,,,,,,2,6,26,1,,,,,,,AMNE02.jpg,AMSA10.jpg,AMNE14.jpg,AMSA12.jpg,AMNE02.jpg,MN,1,num_8,32,num_4,0.816771382699,,,2017_May_09_1207,60.003367926,MAFE4ImagesEEG,001,200341,
AFNE01.JPG,AFNE01.JPG,AFNE01.JPG,AFNE01.JPG,AFNE01.JPG,AFNE01.JPG,,,,,,,,,,,,,,,,,2,7,27,0,,,,,,,AMNE13.jpg,AMSA10.jpg,AMSA01.jpg,AMNE05.jpg,AMSA01.jpg,MS,2,num_2,16,num_2,0.466811042046,,,2017_May_09_1207,60.003367926,MAFE4ImagesEEG,001,200341,
AFNE01.JPG,AFNE01.JPG,AFNE01.JPG,AFNE01.JPG,AFNE01.JPG,AFNE01.JPG,,,,,,,,,,,,,,,,,2,8,28,3,,,,,,,AMSA07.jpg,AMNE02.jpg,AMSA01.jpg,AMNE15.jpg,AMSA01.jpg,MS,2,num_2,16,num_2,0.300199916586,,,2017_May_09_1207,60.003367926,MAFE4ImagesEEG,001,200341,
AFNE01.JPG,AFNE01.JPG,AFNE01.JPG,AFNE01.JPG,AFNE01.JPG,AFNE01.JPG,,,,,,,,,,,,,,,,,2,9,29,7,,,,,,,AMSA01.jpg,AMSA08.jpg,AMNE11.jpg,AMNE08.jpg,AMNE08.jpg,MN,1,num_4,16,num_4,0.283554199617,,,2017_May_09_1207,60.003367926,MAFE4ImagesEEG,001,200341,
AFNE01.JPG,AFNE01.JPG,AFNE01.JPG,AFNE01.JPG,AFNE01.JPG,AFNE01.JPG,,,,,,,,,,,,,,,,,3,0,30,4,,,,,,,AMNE03.jpg,AMSA08.jpg,AMSA06.jpg,AMNE17.jpg,AMSA06.jpg,MS,2,num_2,32,num_8,0.28351474856,,,2017_May_09_1207,60.003367926,MAFE4ImagesEEG,001,200341,
AFNE01.JPG,AFNE01.JPG,AFNE01.JPG,AFNE01.JPG,AFNE01.JPG,AFNE01.JPG,,,,,,,,,,,,,,,,,3,1,31,8,,,,,,,AMSA15.jpg,AMSA12.jpg,AMNE14.jpg,AMNE07.jpg,AMNE07.jpg,MN,1,num_4,32,num_6,0.300474469317,,,2017_May_09_1207,60.003367926,MAFE4ImagesEEG,001,200341,
AFNE01.JPG,AFNE01.JPG,AFNE01.JPG,AFNE01.JPG,AFNE01.JPG,AFNE01.JPG,,,,,,,,,,,,,,,,,3,2,32,3,,,,,,,AMNE01.jpg,AMNE17.jpg,AMSA09.jpg,AMSA03.jpg,AMNE17.jpg,MN,1,num_6,32,num_8,0.333483332302,,,2017_May_09_1207,60.003367926,MAFE4ImagesEEG,001,200341,
AFNE01.JPG,AFNE01.JPG,AFNE01.JPG,AFNE01.JPG,AFNE01.JPG,AFNE01.JPG,,,,,,,,,,,,,,,,,3,3,33,9,,,,,,,AMSA07.jpg,AMSA08.jpg,AMNE18.jpg,AMNE16.jpg,AMSA08.jpg,MS,2,num_6,32,num_4,0.450218567625,,,2017_May_09_1207,60.003367926,MAFE4ImagesEEG,001,200341,
AFNE01.JPG,AFNE01.JPG,AFNE01.JPG,AFNE01.JPG,AFNE01.JPG,AFNE01.JPG,,,,,,,,,,,,,,,,,3,4,34,2,,,,,,,AMNE20.jpg,AMSA02.jpg,AMNE04.jpg,AMSA15.jpg,AMSA15.jpg,MS,2,num_4,32,num_2,0.800136570819,,,2017_May_09_1207,60.003367926,MAFE4ImagesEEG,001,200341,
AFNE01.JPG,AFNE01.JPG,AFNE01.JPG,AFNE01.JPG,AFNE01.JPG,AFNE01.JPG,,,,,,,,,,,,,,,,,3,5,35,5,,,,,,,AMSA18.jpg,AMNE03.jpg,AMSA20.jpg,AMNE20.jpg,AMNE20.jpg,MN,1,num_4,32,num_8,1.91664183629,,,2017_May_09_1207,60.003367926,MAFE4ImagesEEG,001,200341,
AFNE01.JPG,AFNE01.JPG,AFNE01.JPG,AFNE01.JPG,AFNE01.JPG,AFNE01.JPG,,,,,,,,,,,,,,,,,3,6,36,7,,,,,,,AMNE13.jpg,AMNE20.jpg,AMSA16.jpg,AMSA08.jpg,AMNE20.jpg,MN,1,num_6,16,num_6,0.466837984044,,,2017_May_09_1207,60.003367926,MAFE4ImagesEEG,001,200341,
AFNE01.JPG,AFNE01.JPG,AFNE01.JPG,AFNE01.JPG,AFNE01.JPG,AFNE01.JPG,,,,,,,,,,,,,,,,,3,7,37,0,,,,,,,AMSA14.jpg,AMSA15.jpg,AMNE18.jpg,AMNE11.jpg,AMNE11.jpg,MN,1,num_4,16,num_4,0.983416827163,,,2017_May_09_1207,60.003367926,MAFE4ImagesEEG,001,200341,
AFNE01.JPG,AFNE01.JPG,AFNE01.JPG,AFNE01.JPG,AFNE01.JPG,AFNE01.JPG,,,,,,,,,,,,,,,,,3,8,38,1,,,,,,,AMNE05.jpg,AMNE09.jpg,AMSA02.jpg,AMSA14.jpg,AMNE05.jpg,MN,1,num_8,32,num_6,0.450098931789,,,2017_May_09_1207,60.003367926,MAFE4ImagesEEG,001,200341,
AFNE01.JPG,AFNE01.JPG,AFNE01.JPG,AFNE01.JPG,AFNE01.JPG,AFNE01.JPG,,,,,,,,,,,,,,,,,3,9,39,6,,,,,,,AMSA14.jpg,AMNE15.jpg,AMSA05.jpg,AMNE20.jpg,AMNE20.jpg,MN,1,num_4,32,num_8,0.483354764059,,,2017_May_09_1207,60.003367926,MAFE4ImagesEEG,001,200341,
AFNE01.JPG,AFNE01.JPG,AFNE01.JPG,AFNE01.JPG,AFNE01.JPG,AFNE01.JPG,,,,,,,,,,,,,,,,,4,0,40,6,,,,,,,AMSA17.jpg,AMSA18.jpg,AMNE01.jpg,AMNE07.jpg,AMSA18.jpg,MS,2,num_6,32,num_4,1.15006451681,,,2017_May_09_1207,60.003367926,MAFE4ImagesEEG,001,200341,
AFNE01.JPG,AFNE01.JPG,AFNE01.JPG,AFNE01.JPG,AFNE01.JPG,AFNE01.JPG,,,,,,,,,,,,,,,,,4,1,41,9,,,,,,,AMSA10.jpg,AMSA19.jpg,AMNE10.jpg,AMNE19.jpg,AMSA19.jpg,MS,2,num_6,16,num_6,0.583652442088,,,2017_May_09_1207,60.003367926,MAFE4ImagesEEG,001,200341,
AFNE01.JPG,AFNE01.JPG,AFNE01.JPG,AFNE01.JPG,AFNE01.JPG,AFNE01.JPG,,,,,,,,,,,,,,,,,4,2,42,4,,,,,,,AMSA17.jpg,AMSA09.jpg,AMNE09.jpg,AMNE20.jpg,AMSA09.jpg,MS,2,num_6,32,num_8,0.80041978322,,,2017_May_09_1207,60.003367926,MAFE4ImagesEEG,001,200341,
AFNE01.JPG,AFNE01.JPG,AFNE01.JPG,AFNE01.JPG,AFNE01.JPG,AFNE01.JPG,,,,,,,,,,,,,,,,,4,3,43,0,,,,,,,AMNE15.jpg,AMSA10.jpg,AMSA05.jpg,AMNE18.jpg,AMSA05.jpg,MS,2,num_2,32,num_4,0.900019533001,,,2017_May_09_1207,60.003367926,MAFE4ImagesEEG,001,200341,
AFNE01.JPG,AFNE01.JPG,AFNE01.JPG,AFNE01.JPG,AFNE01.JPG,AFNE01.JPG,,,,,,,,,,,,,,,,,4,4,44,1,,,,,,,AMNE05.jpg,AMSA14.jpg,AMSA05.jpg,AMNE14.jpg,AMSA05.jpg,MS,2,num_2,32,num_8,0.700260023121,,,2017_May_09_1207,60.003367926,MAFE4ImagesEEG,001,200341,
AFNE01.JPG,AFNE01.JPG,AFNE01.JPG,AFNE01.JPG,AFNE01.JPG,AFNE01.JPG,,,,,,,,,,,,,,,,,4,5,45,5,,,,,,,AMNE16.jpg,AMNE02.jpg,AMSA16.jpg,AMSA15.jpg,AMSA16.jpg,MS,2,num_2,32,num_8,0.750222512754,,,2017_May_09_1207,60.003367926,MAFE4ImagesEEG,001,200341,
AFNE01.JPG,AFNE01.JPG,AFNE01.JPG,AFNE01.JPG,AFNE01.JPG,AFNE01.JPG,,,,,,,,,,,,,,,,,4,6,46,3,,,,,,,AMSA14.jpg,AMNE13.jpg,AMNE08.jpg,AMSA04.jpg,AMSA14.jpg,MS,2,num_8,16,num_8,0.400342036039,,,2017_May_09_1207,60.003367926,MAFE4ImagesEEG,001,200341,
AFNE01.JPG,AFNE01.JPG,AFNE01.JPG,AFNE01.JPG,AFNE01.JPG,AFNE01.JPG,,,,,,,,,,,,,,,,,4,7,47,2,,,,,,,AMNE18.jpg,AMSA16.jpg,AMSA19.jpg,AMNE11.jpg,AMNE18.jpg,MN,1,num_8,32,num_4,0.300189652946,,,2017_May_09_1207,60.003367926,MAFE4ImagesEEG,001,200341,
AFNE01.JPG,AFNE01.JPG,AFNE01.JPG,AFNE01.JPG,AFNE01.JPG,AFNE01.JPG,,,,,,,,,,,,,,,,,4,8,48,8,,,,,,,AMSA03.jpg,AMNE15.jpg,AMNE17.jpg,AMSA13.jpg,AMNE17.jpg,MN,1,num_2,32,num_6,0.31680233404,,,2017_May_09_1207,60.003367926,MAFE4ImagesEEG,001,200341,
AFNE01.JPG,AFNE01.JPG,AFNE01.JPG,AFNE01.JPG,AFNE01.JPG,AFNE01.JPG,,,,,,,,,,,,,,,,,4,9,49,7,,,,,,,AMSA13.jpg,AMNE16.jpg,AMNE07.jpg,AMSA15.jpg,AMNE07.jpg,MN,1,num_2,32,num_8,0.300188049208,,,2017_May_09_1207,60.003367926,MAFE4ImagesEEG,001,200341,
AFNE01.JPG,AFNE01.JPG,AFNE01.JPG,AFNE01.JPG,AFNE01.JPG,AFNE01.JPG,,,,,,,,,,,,,,,,,5,0,50,1,,,,,,,AMNE09.jpg,AMSA08.jpg,AMSA10.jpg,AMNE01.jpg,AMSA10.jpg,MS,2,num_2,16,num_2,0.350188706769,,,2017_May_09_1207,60.003367926,MAFE4ImagesEEG,001,200341,
AFNE01.JPG,AFNE01.JPG,AFNE01.JPG,AFNE01.JPG,AFNE01.JPG,AFNE01.JPG,,,,,,,,,,,,,,,,,5,1,51,3,,,,,,,AMSA05.jpg,AMNE05.jpg,AMNE01.jpg,AMSA15.jpg,AMNE05.jpg,MN,1,num_6,32,num_4,0.450204455061,,,2017_May_09_1207,60.003367926,MAFE4ImagesEEG,001,200341,
AFNE01.JPG,AFNE01.JPG,AFNE01.JPG,AFNE01.JPG,AFNE01.JPG,AFNE01.JPG,,,,,,,,,,,,,,,,,5,2,52,8,,,,,,,AMNE09.jpg,AMSA02.jpg,AMSA13.jpg,AMNE20.jpg,AMNE20.jpg,MN,1,num_4,32,num_8,0.350255741272,,,2017_May_09_1207,60.003367926,MAFE4ImagesEEG,001,200341,
AFNE01.JPG,AFNE01.JPG,AFNE01.JPG,AFNE01.JPG,AFNE01.JPG,AFNE01.JPG,,,,,,,,,,,,,,,,,5,3,53,9,,,,,,,AMSA13.jpg,AMNE12.jpg,AMSA04.jpg,AMNE03.jpg,AMSA13.jpg,MS,2,num_8,32,num_6,0.516784436768,,,2017_May_09_1207,60.003367926,MAFE4ImagesEEG,001,200341,
AFNE01.JPG,AFNE01.JPG,AFNE01.JPG,AFNE01.JPG,AFNE01.JPG,AFNE01.JPG,,,,,,,,,,,,,,,,,5,4,54,2,,,,,,,AMNE13.jpg,AMSA12.jpg,AMNE11.jpg,AMSA15.jpg,AMSA12.jpg,MS,2,num_6,16,num_6,0.550219882745,,,2017_May_09_1207,60.003367926,MAFE4ImagesEEG,001,200341,
AFNE01.JPG,AFNE01.JPG,AFNE01.JPG,AFNE01.JPG,AFNE01.JPG,AFNE01.JPG,,,,,,,,,,,,,,,,,5,5,55,0,,,,,,,AMNE13.jpg,AMSA18.jpg,AMNE19.jpg,AMSA08.jpg,AMSA18.jpg,MS,2,num_6,32,num_8,0.750370373251,,,2017_May_09_1207,60.003367926,MAFE4ImagesEEG,001,200341,
AFNE01.JPG,AFNE01.JPG,AFNE01.JPG,AFNE01.JPG,AFNE01.JPG,AFNE01.JPG,,,,,,,,,,,,,,,,,5,6,56,5,,,,,,,AMSA12.jpg,AMSA07.jpg,AMNE05.jpg,AMNE01.jpg,AMSA12.jpg,MS,2,num_8,32,num_4,0.550110831391,,,2017_May_09_1207,60.003367926,MAFE4ImagesEEG,001,200341,
AFNE01.JPG,AFNE01.JPG,AFNE01.JPG,AFNE01.JPG,AFNE01.JPG,AFNE01.JPG,,,,,,,,,,,,,,,,,5,7,57,6,,,,,,,AMNE08.jpg,AMNE03.jpg,AMSA08.jpg,AMSA04.jpg,AMSA08.jpg,MS,2,num_2,32,num_8,0.61664719251,,,2017_May_09_1207,60.003367926,MAFE4ImagesEEG,001,200341,
AFNE01.JPG,AFNE01.JPG,AFNE01.JPG,AFNE01.JPG,AFNE01.JPG,AFNE01.JPG,,,,,,,,,,,,,,,,,5,8,58,7,,,,,,,AMSA08.jpg,AMNE09.jpg,AMNE15.jpg,AMSA18.jpg,AMNE15.jpg,MN,1,num_2,16,num_2,0.900079511339,,,2017_May_09_1207,60.003367926,MAFE4ImagesEEG,001,200341,
AFNE01.JPG,AFNE01.JPG,AFNE01.JPG,AFNE01.JPG,AFNE01.JPG,AFNE01.JPG,,,,,,,,,,,,,,,,,5,9,59,4,,,,,,,AMNE13.jpg,AMSA03.jpg,AMSA12.jpg,AMNE02.jpg,AMSA03.jpg,MS,2,num_6,16,num_6,0.416796592763,,,2017_May_09_1207,60.003367926,MAFE4ImagesEEG,001,200341,
,,,,,,,,,,,,,,,,,,,,,,,,,,,,,,,,,,,,,,,,,,,space,15.1822667208,2017_May_09_1207,60.003367926,MAFE4ImagesEEG,001,200341,
AFNE01.JPG,AFNE01.JPG,AFNE01.JPG,AFNE01.JPG,AFNE01.JPG,AFNE01.JPG,,,,,,,,,,,,,,,,,,,,,0,0,0,1,,,AFSA01.jpg,AFNE08.jpg,AFSA12.jpg,AFNE15.jpg,AFNE15.jpg,FN,3,num_4,16,num_4,0.783245809143,,,2017_May_09_1207,60.003367926,MAFE4ImagesEEG,001,200341,
AFNE01.JPG,AFNE01.JPG,AFNE01.JPG,AFNE01.JPG,AFNE01.JPG,AFNE01.JPG,,,,,,,,,,,,,,,,,,,,,0,1,1,9,,,AFSA20.jpg,AFNE03.jpg,AFSA16.jpg,AFNE11.jpg,AFSA16.jpg,FS,4,num_2,32,num_6,0.850087192841,,,2017_May_09_1207,60.003367926,MAFE4ImagesEEG,001,200341,
AFNE01.JPG,AFNE01.JPG,AFNE01.JPG,AFNE01.JPG,AFNE01.JPG,AFNE01.JPG,,,,,,,,,,,,,,,,,,,,,0,2,2,7,,,AFSA02.jpg,AFNE07.jpg,AFSA17.jpg,AFNE16.jpg,AFSA02.jpg,FS,4,num_8,32,num_4,0.633521917276,,,2017_May_09_1207,60.003367926,MAFE4ImagesEEG,001,200341,
AFNE01.JPG,AFNE01.JPG,AFNE01.JPG,AFNE01.JPG,AFNE01.JPG,AFNE01.JPG,,,,,,,,,,,,,,,,,,,,,0,3,3,0,,,AFNE20.jpg,AFNE13.jpg,AFSA12.jpg,AFSA14.jpg,AFNE13.jpg,FN,3,num_6,32,num_8,0.666797635145,,,2017_May_09_1207,60.003367926,MAFE4ImagesEEG,001,200341,
AFNE01.JPG,AFNE01.JPG,AFNE01.JPG,AFNE01.JPG,AFNE01.JPG,AFNE01.JPG,,,,,,,,,,,,,,,,,,,,,0,4,4,6,,,AFNE14.jpg,AFSA19.jpg,AFNE06.jpg,AFSA05.jpg,AFNE14.jpg,FN,3,num_8,32,num_6,0.800091025652,,,2017_May_09_1207,60.003367926,MAFE4ImagesEEG,001,200341,
AFNE01.JPG,AFNE01.JPG,AFNE01.JPG,AFNE01.JPG,AFNE01.JPG,AFNE01.JPG,,,,,,,,,,,,,,,,,,,,,0,5,5,5,,,AFNE04.jpg,AFSA08.jpg,AFSA13.jpg,AFNE08.jpg,AFNE08.jpg,FN,3,num_4,32,num_8,0.516789889196,,,2017_May_09_1207,60.003367926,MAFE4ImagesEEG,001,200341,
AFNE01.JPG,AFNE01.JPG,AFNE01.JPG,AFNE01.JPG,AFNE01.JPG,AFNE01.JPG,,,,,,,,,,,,,,,,,,,,,0,6,6,8,,,AFSA17.jpg,AFNE05.jpg,AFSA07.jpg,AFNE01.jpg,AFSA07.jpg,FS,4,num_2,32,num_4,0.350020960206,,,2017_May_09_1207,60.003367926,MAFE4ImagesEEG,001,200341,
AFNE01.JPG,AFNE01.JPG,AFNE01.JPG,AFNE01.JPG,AFNE01.JPG,AFNE01.JPG,,,,,,,,,,,,,,,,,,,,,0,7,7,3,,,AFNE20.jpg,AFNE04.jpg,AFSA01.jpg,AFSA11.jpg,AFSA01.jpg,FS,4,num_2,32,num_8,0.666722582188,,,2017_May_09_1207,60.003367926,MAFE4ImagesEEG,001,200341,
AFNE01.JPG,AFNE01.JPG,AFNE01.JPG,AFNE01.JPG,AFNE01.JPG,AFNE01.JPG,,,,,,,,,,,,,,,,,,,,,0,8,8,4,,,AFNE04.jpg,AFNE11.jpg,AFSA07.jpg,AFSA01.jpg,AFNE04.jpg,FN,3,num_8,16,num_8,0.71673671063,,,2017_May_09_1207,60.003367926,MAFE4ImagesEEG,001,200341,
AFNE01.JPG,AFNE01.JPG,AFNE01.JPG,AFNE01.JPG,AFNE01.JPG,AFNE01.JPG,,,,,,,,,,,,,,,,,,,,,0,9,9,2,,,AFSA07.jpg,AFSA19.jpg,AFNE17.jpg,AFNE04.jpg,AFNE17.jpg,FN,3,num_2,32,num_6,0.500136795221,,,2017_May_09_1207,60.003367926,MAFE4ImagesEEG,001,200341,
AFNE01.JPG,AFNE01.JPG,AFNE01.JPG,AFNE01.JPG,AFNE01.JPG,AFNE01.JPG,,,,,,,,,,,,,,,,,,,,,1,0,10,4,,,AFSA20.jpg,AFNE09.jpg,AFNE16.jpg,AFSA18.jpg,AFSA18.jpg,FS,4,num_4,32,num_8,0.966765978141,,,2017_May_09_1207,60.003367926,MAFE4ImagesEEG,001,200341,
AFNE01.JPG,AFNE01.JPG,AFNE01.JPG,AFNE01.JPG,AFNE01.JPG,AFNE01.JPG,,,,,,,,,,,,,,,,,,,,,1,1,11,5,,,AFSA20.jpg,AFNE16.jpg,AFNE19.jpg,AFSA15.jpg,AFNE19.jpg,FN,3,num_2,16,num_2,0.900130829541,,,2017_May_09_1207,60.003367926,MAFE4ImagesEEG,001,200341,
AFNE01.JPG,AFNE01.JPG,AFNE01.JPG,AFNE01.JPG,AFNE01.JPG,AFNE01.JPG,,,,,,,,,,,,,,,,,,,,,1,2,12,0,,,AFNE11.jpg,AFSA01.jpg,AFSA04.jpg,AFNE08.jpg,AFNE11.jpg,FN,3,num_8,32,num_6,0.650130107766,,,2017_May_09_1207,60.003367926,MAFE4ImagesEEG,001,200341,
AFNE01.JPG,AFNE01.JPG,AFNE01.JPG,AFNE01.JPG,AFNE01.JPG,AFNE01.JPG,,,,,,,,,,,,,,,,,,,,,1,3,13,7,,,AFNE03.jpg,AFSA10.jpg,AFSA18.jpg,AFNE15.jpg,AFSA18.jpg,FS,4,num_2,16,num_2,0.700142953312,,,2017_May_09_1207,60.003367926,MAFE4ImagesEEG,001,200341,
AFNE01.JPG,AFNE01.JPG,AFNE01.JPG,AFNE01.JPG,AFNE01.JPG,AFNE01.JPG,,,,,,,,,,,,,,,,,,,,,1,4,14,3,,,AFSA01.jpg,AFNE18.jpg,AFSA05.jpg,AFNE14.jpg,AFSA05.jpg,FS,4,num_2,32,num_6,0.500053402968,,,2017_May_09_1207,60.003367926,MAFE4ImagesEEG,001,200341,
AFNE01.JPG,AFNE01.JPG,AFNE01.JPG,AFNE01.JPG,AFNE01.JPG,AFNE01.JPG,,,,,,,,,,,,,,,,,,,,,1,5,15,6,,,AFSA15.jpg,AFSA09.jpg,AFNE15.jpg,AFNE13.jpg,AFSA09.jpg,FS,4,num_6,16,num_6,0.68358191126,,,2017_May_09_1207,60.003367926,MAFE4ImagesEEG,001,200341,
AFNE01.JPG,AFNE01.JPG,AFNE01.JPG,AFNE01.JPG,AFNE01.JPG,AFNE01.JPG,,,,,,,,,,,,,,,,,,,,,1,6,16,1,,,AFSA18.jpg,AFSA04.jpg,AFNE17.jpg,AFNE09.jpg,AFSA18.jpg,FS,4,num_8,16,num_8,0.716890344862,,,2017_May_09_1207,60.003367926,MAFE4ImagesEEG,001,200341,
AFNE01.JPG,AFNE01.JPG,AFNE01.JPG,AFNE01.JPG,AFNE01.JPG,AFNE01.JPG,,,,,,,,,,,,,,,,,,,,,1,7,17,2,,,AFNE03.jpg,AFSA09.jpg,AFSA04.jpg,AFNE11.jpg,AFNE11.jpg,FN,3,num_4,16,num_4,0.60019167373,,,2017_May_09_1207,60.003367926,MAFE4ImagesEEG,001,200341,
AFNE01.JPG,AFNE01.JPG,AFNE01.JPG,AFNE01.JPG,AFNE01.JPG,AFNE01.JPG,,,,,,,,,,,,,,,,,,,,,1,8,18,8,,,AFSA11.jpg,AFNE06.jpg,AFSA13.jpg,AFNE20.jpg,AFNE20.jpg,FN,3,num_4,16,num_4,0.566742115188,,,2017_May_09_1207,60.003367926,MAFE4ImagesEEG,001,200341,
AFNE01.JPG,AFNE01.JPG,AFNE01.JPG,AFNE01.JPG,AFNE01.JPG,AFNE01.JPG,,,,,,,,,,,,,,,,,,,,,1,9,19,9,,,AFNE12.jpg,AFSA17.jpg,AFNE09.jpg,AFSA11.jpg,AFNE12.jpg,FN,3,num_8,16,num_8,0.766834231559,,,2017_May_09_1207,60.003367926,MAFE4ImagesEEG,001,200341,
AFNE01.JPG,AFNE01.JPG,AFNE01.JPG,AFNE01.JPG,AFNE01.JPG,AFNE01.JPG,,,,,,,,,,,,,,,,,,,,,2,0,20,7,,,AFSA03.jpg,AFNE15.jpg,AFSA07.jpg,AFNE07.jpg,AFNE15.jpg,FN,3,num_6,16,num_6,0.750165100442,,,2017_May_09_1207,60.003367926,MAFE4ImagesEEG,001,200341,
AFNE01.JPG,AFNE01.JPG,AFNE01.JPG,AFNE01.JPG,AFNE01.JPG,AFNE01.JPG,,,,,,,,,,,,,,,,,,,,,2,1,21,3,,,AFSA14.jpg,AFSA12.jpg,AFNE16.jpg,AFNE10.jpg,AFNE10.jpg,FN,3,num_4,16,num_4,0.533472170588,,,2017_May_09_1207,60.003367926,MAFE4ImagesEEG,001,200341,
AFNE01.JPG,AFNE01.JPG,AFNE01.JPG,AFNE01.JPG,AFNE01.JPG,AFNE01.JPG,,,,,,,,,,,,,,,,,,,,,2,2,22,1,,,AFSA08.jpg,AFSA11.jpg,AFNE06.jpg,AFNE18.jpg,AFSA11.jpg,FS,4,num_6,16,num_6,0.650141333463,,,2017_May_09_1207,60.003367926,MAFE4ImagesEEG,001,200341,
AFNE01.JPG,AFNE01.JPG,AFNE01.JPG,AFNE01.JPG,AFNE01.JPG,AFNE01.JPG,,,,,,,,,,,,,,,,,,,,,2,3,23,6,,,AFSA14.jpg,AFNE20.jpg,AFNE07.jpg,AFSA09.jpg,AFSA14.jpg,FS,4,num_8,32,num_4,0.950107110664,,,2017_May_09_1207,60.003367926,MAFE4ImagesEEG,001,200341,
AFNE01.JPG,AFNE01.JPG,AFNE01.JPG,AFNE01.JPG,AFNE01.JPG,AFNE01.JPG,,,,,,,,,,,,,,,,,,,,,2,4,24,0,,,AFNE08.jpg,AFSA10.jpg,AFNE20.jpg,AFSA15.jpg,AFNE20.jpg,FN,3,num_2,32,num_6,0.750167345628,,,2017_May_09_1207,60.003367926,MAFE4ImagesEEG,001,200341,
AFNE01.JPG,AFNE01.JPG,AFNE01.JPG,AFNE01.JPG,AFNE01.JPG,AFNE01.JPG,,,,,,,,,,,,,,,,,,,,,2,5,25,8,,,AFNE02.jpg,AFSA16.jpg,AFNE05.jpg,AFSA09.jpg,AFSA09.jpg,FS,4,num_4,16,num_4,0.650188802974,,,2017_May_09_1207,60.003367926,MAFE4ImagesEEG,001,200341,
AFNE01.JPG,AFNE01.JPG,AFNE01.JPG,AFNE01.JPG,AFNE01.JPG,AFNE01.JPG,,,,,,,,,,,,,,,,,,,,,2,6,26,9,,,AFNE17.jpg,AFSA18.jpg,AFNE05.jpg,AFSA04.jpg,AFSA04.jpg,FS,4,num_4,16,num_4,0.433524418855,,,2017_May_09_1207,60.003367926,MAFE4ImagesEEG,001,200341,
AFNE01.JPG,AFNE01.JPG,AFNE01.JPG,AFNE01.JPG,AFNE01.JPG,AFNE01.JPG,,,,,,,,,,,,,,,,,,,,,2,7,27,2,,,AFNE08.jpg,AFSA05.jpg,AFSA02.jpg,AFNE17.jpg,AFSA05.jpg,FS,4,num_6,16,num_6,0.70002203458,,,2017_May_09_1207,60.003367926,MAFE4ImagesEEG,001,200341,
AFNE01.JPG,AFNE01.JPG,AFNE01.JPG,AFNE01.JPG,AFNE01.JPG,AFNE01.JPG,,,,,,,,,,,,,,,,,,,,,2,8,28,4,,,AFSA06.jpg,AFNE13.jpg,AFNE10.jpg,AFSA08.jpg,AFNE10.jpg,FN,3,num_2,16,num_2,0.733430217952,,,2017_May_09_1207,60.003367926,MAFE4ImagesEEG,001,200341,
AFNE01.JPG,AFNE01.JPG,AFNE01.JPG,AFNE01.JPG,AFNE01.JPG,AFNE01.JPG,,,,,,,,,,,,,,,,,,,,,2,9,29,5,,,AFNE05.jpg,AFSA20.jpg,AFNE09.jpg,AFSA03.jpg,AFNE05.jpg,FN,3,num_8,16,num_8,0.816761760274,,,2017_May_09_1207,60.003367926,MAFE4ImagesEEG,001,200341,
AFNE01.JPG,AFNE01.JPG,AFNE01.JPG,AFNE01.JPG,AFNE01.JPG,AFNE01.JPG,,,,,,,,,,,,,,,,,,,,,3,0,30,9,,,AFSA10.jpg,AFSA12.jpg,AFNE19.jpg,AFNE16.jpg,AFSA12.jpg,FS,4,num_6,16,num_6,0.650115674594,,,2017_May_09_1207,60.003367926,MAFE4ImagesEEG,001,200341,
AFNE01.JPG,AFNE01.JPG,AFNE01.JPG,AFNE01.JPG,AFNE01.JPG,AFNE01.JPG,,,,,,,,,,,,,,,,,,,,,3,1,31,3,,,AFSA14.jpg,AFSA04.jpg,AFNE08.jpg,AFNE09.jpg,AFSA14.jpg,FS,4,num_8,32,num_4,0.90011543408,,,2017_May_09_1207,60.003367926,MAFE4ImagesEEG,001,200341,
AFNE01.JPG,AFNE01.JPG,AFNE01.JPG,AFNE01.JPG,AFNE01.JPG,AFNE01.JPG,,,,,,,,,,,,,,,,,,,,,3,2,32,8,,,AFSA17.jpg,AFSA16.jpg,AFNE05.jpg,AFNE16.jpg,AFNE05.jpg,FN,3,num_2,32,num_8,1.08343770704,,,2017_May_09_1207,60.003367926,MAFE4ImagesEEG,001,200341,
AFNE01.JPG,AFNE01.JPG,AFNE01.JPG,AFNE01.JPG,AFNE01.JPG,AFNE01.JPG,,,,,,,,,,,,,,,,,,,,,3,3,33,0,,,AFSA02.jpg,AFNE05.jpg,AFSA04.jpg,AFNE19.jpg,AFSA02.jpg,FS,4,num_8,32,num_2,1.05010393541,,,2017_May_09_1207,60.003367926,MAFE4ImagesEEG,001,200341,
AFNE01.JPG,AFNE01.JPG,AFNE01.JPG,AFNE01.JPG,AFNE01.JPG,AFNE01.JPG,,,,,,,,,,,,,,,,,,,,,3,4,34,7,,,AFNE04.jpg,AFSA20.jpg,AFNE07.jpg,AFSA04.jpg,AFNE07.jpg,FN,3,num_2,32,num_8,0.883488961263,,,2017_May_09_1207,60.003367926,MAFE4ImagesEEG,001,200341,
AFNE01.JPG,AFNE01.JPG,AFNE01.JPG,AFNE01.JPG,AFNE01.JPG,AFNE01.JPG,,,,,,,,,,,,,,,,,,,,,3,5,35,1,,,AFSA07.jpg,AFSA14.jpg,AFNE15.jpg,AFNE11.jpg,AFNE11.jpg,FN,3,num_4,32,num_8,0.900154564297,,,2017_May_09_1207,60.003367926,MAFE4ImagesEEG,001,200341,
AFNE01.JPG,AFNE01.JPG,AFNE01.JPG,AFNE01.JPG,AFNE01.JPG,AFNE01.JPG,,,,,,,,,,,,,,,,,,,,,3,6,36,5,,,AFSA20.jpg,AFNE10.jpg,AFSA05.jpg,AFNE01.jpg,AFNE10.jpg,FN,3,num_6,32,num_2,0.400159856537,,,2017_May_09_1207,60.003367926,MAFE4ImagesEEG,001,200341,
AFNE01.JPG,AFNE01.JPG,AFNE01.JPG,AFNE01.JPG,AFNE01.JPG,AFNE01.JPG,,,,,,,,,,,,,,,,,,,,,3,7,37,4,,,AFNE09.jpg,AFNE14.jpg,AFSA15.jpg,AFSA05.jpg,AFNE09.jpg,FN,3,num_8,32,num_6,0.716725484934,,,2017_May_09_1207,60.003367926,MAFE4ImagesEEG,001,200341,
AFNE01.JPG,AFNE01.JPG,AFNE01.JPG,AFNE01.JPG,AFNE01.JPG,AFNE01.JPG,,,,,,,,,,,,,,,,,,,,,3,8,38,6,,,AFNE07.jpg,AFSA06.jpg,AFNE03.jpg,AFSA09.jpg,AFSA06.jpg,FS,4,num_6,32,num_4,0.716777123976,,,2017_May_09_1207,60.003367926,MAFE4ImagesEEG,001,200341,
AFNE01.JPG,AFNE01.JPG,AFNE01.JPG,AFNE01.JPG,AFNE01.JPG,AFNE01.JPG,,,,,,,,,,,,,,,,,,,,,3,9,39,2,,,AFNE16.jpg,AFSA03.jpg,AFNE20.jpg,AFSA19.jpg,AFNE20.jpg,FN,3,num_2,32,num_4,0.633473164868,,,2017_May_09_1207,60.003367926,MAFE4ImagesEEG,001,200341,
AFNE01.JPG,AFNE01.JPG,AFNE01.JPG,AFNE01.JPG,AFNE01.JPG,AFNE01.JPG,,,,,,,,,,,,,,,,,,,,,4,0,40,2,,,AFSA20.jpg,AFSA12.jpg,AFNE10.jpg,AFNE11.jpg,AFNE10.jpg,FN,3,num_2,16,num_2,1.20013252948,,,2017_May_09_1207,60.003367926,MAFE4ImagesEEG,001,200341,
