IPosition2,IPosition3,IPosition1,IPosition6,IPosition4,IPosition5,TrialsF1.thisRepN,TrialsF1.thisTrialN,TrialsF1.thisN,TrialsF1.thisIndex,TrialsM1.thisRepN,TrialsM1.thisTrialN,TrialsM1.thisN,TrialsM1.thisIndex,TrialsF2.thisRepN,TrialsF2.thisTrialN,TrialsF2.thisN,TrialsF2.thisIndex,TrialsM2.thisRepN,TrialsM2.thisTrialN,TrialsM2.thisN,TrialsM2.thisIndex,TrialsF3.thisRepN,TrialsF3.thisTrialN,TrialsF3.thisN,TrialsF3.thisIndex,TrialsM3.thisRepN,TrialsM3.thisTrialN,TrialsM3.thisN,TrialsM3.thisIndex,InstrKey_resp.keys,InstrKey_resp.rt,Image0 _Position,Image1 _Position,Image2 _Position,Image3 _Position,Center_image,condition,code,correct_answer,accuracy,Key_Resp.keys,Key_Resp.rt,BreakKey_resp.keys,BreakKey_resp.rt,date,frameRate,expName,session,participant,
,,,,,,,,,,,,,,,,,,,,,,,,,,,,,,space,16.4326829477,,,,,,,,,,,,,,2017_May_31_1117,60.0037914303,FEMA4ImagesEEG,001,200364,
AMSA21.JPG,AMNE23.JPG,AMNE21.JPG,AMSA25.JPG,AMNE25.JPG,AMSA23.JPG,0,0,0,5,,,,,,,,,,,,,,,,,,,,,,,AFSA06.jpg,AFNE18.jpg,AFSA19.jpg,AFNE08.jpg,AFNE18.jpg,FN,3,num_6,32,num_4,0.850154804997,,,2017_May_31_1117,60.0037914303,FEMA4ImagesEEG,001,200364,
AMSA25.JPG,AMNE24.JPG,AMSA24.JPG,AMNE26.JPG,AMSA21.JPG,AMNE25.JPG,0,1,1,3,,,,,,,,,,,,,,,,,,,,,,,AFNE05.jpg,AFNE04.jpg,AFSA07.jpg,AFSA05.jpg,AFSA05.jpg,FS,4,num_4,32,num_2,0.966744724195,,,2017_May_31_1117,60.0037914303,FEMA4ImagesEEG,001,200364,
AMSA21.JPG,AMNE22.JPG,AMNE21.JPG,AMSA23.JPG,AMSA22.JPG,AMNE23.JPG,0,2,2,1,,,,,,,,,,,,,,,,,,,,,,,AFNE14.jpg,AFSA13.jpg,AFSA03.jpg,AFNE03.jpg,AFNE03.jpg,FN,3,num_4,32,num_8,0.716783453245,,,2017_May_31_1117,60.0037914303,FEMA4ImagesEEG,001,200364,
AFSA21.JPG,AFNE22.JPG,AFNE21.JPG,AFSA23.JPG,AFSA22.JPG,AFNE23.JPG,0,3,3,0,,,,,,,,,,,,,,,,,,,,,,,AFSA07.jpg,AFSA08.jpg,AFNE14.jpg,AFNE11.jpg,AFSA08.jpg,FS,4,num_6,16,num_6,1.89999778685,,,2017_May_31_1117,60.0037914303,FEMA4ImagesEEG,001,200364,
AFNE23.JPG,AFNE24.JPG,AFNE22.JPG,AFSA24.JPG,AFSA22.JPG,AFSA23.JPG,0,4,4,8,,,,,,,,,,,,,,,,,,,,,,,AFNE16.jpg,AFSA10.jpg,AFSA08.jpg,AFNE06.jpg,AFSA08.jpg,FS,4,num_2,32,num_6,0.516799554694,,,2017_May_31_1117,60.0037914303,FEMA4ImagesEEG,001,200364,
AMNE22.JPG,AMSA24.JPG,AMSA22.JPG,AMNE25.JPG,AMNE24.JPG,AMSA25.JPG,0,5,5,7,,,,,,,,,,,,,,,,,,,,,,,AFSA02.jpg,AFSA08.jpg,AFNE13.jpg,AFNE16.jpg,AFSA08.jpg,FS,4,num_6,16,num_6,0.566848130664,,,2017_May_31_1117,60.0037914303,FEMA4ImagesEEG,001,200364,
AMNE23.JPG,AMNE24.JPG,AMNE22.JPG,AMSA24.JPG,AMSA22.JPG,AMSA23.JPG,0,6,6,9,,,,,,,,,,,,,,,,,,,,,,,AFSA07.jpg,AFNE13.jpg,AFSA11.jpg,AFNE16.jpg,AFSA11.jpg,FS,4,num_2,16,num_2,0.766837802716,,,2017_May_31_1117,60.0037914303,FEMA4ImagesEEG,001,200364,
AFSA25.JPG,AFNE24.JPG,AFSA24.JPG,AFNE21.JPG,AFSA21.JPG,AFNE25.JPG,0,7,7,2,,,,,,,,,,,,,,,,,,,,,,,AFSA04.jpg,AFNE01.jpg,AFSA05.jpg,AFNE15.jpg,AFSA04.jpg,FS,4,num_8,16,num_8,1.03340442013,,,2017_May_31_1117,60.0037914303,FEMA4ImagesEEG,001,200364,
AFNE22.JPG,AFSA24.JPG,AFSA22.JPG,AFNE25.JPG,AFNE24.JPG,AFSA25.JPG,0,8,8,6,,,,,,,,,,,,,,,,,,,,,,,AFNE07.jpg,AFSA02.jpg,AFSA01.jpg,AFNE15.jpg,AFSA01.jpg,FS,4,num_2,16,num_2,0.95010698284,,,2017_May_31_1117,60.0037914303,FEMA4ImagesEEG,001,200364,
AFSA21.JPG,AFNE23.JPG,AFNE21.JPG,AFSA25.JPG,AFNE25.JPG,AFSA23.JPG,0,9,9,4,,,,,,,,,,,,,,,,,,,,,,,AFSA01.jpg,AFSA03.jpg,AFNE06.jpg,AFNE12.jpg,AFSA03.jpg,FS,4,num_6,16,num_6,0.716777680209,,,2017_May_31_1117,60.0037914303,FEMA4ImagesEEG,001,200364,
AFSA21.JPG,AFNE22.JPG,AFNE21.JPG,AFSA23.JPG,AFSA22.JPG,AFNE23.JPG,,,,,0,0,0,0,,,,,,,,,,,,,,,,,,,AMNE20.jpg,AMSA11.jpg,AMNE02.jpg,AMSA05.jpg,AMNE20.jpg,MN,1,num_8,32,num_4,0.766745108878,,,2017_May_31_1117,60.0037914303,FEMA4ImagesEEG,001,200364,
AFNE22.JPG,AFSA24.JPG,AFSA22.JPG,AFNE25.JPG,AFNE24.JPG,AFSA25.JPG,,,,,0,1,1,6,,,,,,,,,,,,,,,,,,,AMSA19.jpg,AMNE04.jpg,AMSA02.jpg,AMNE05.jpg,AMNE05.jpg,MN,1,num_4,16,num_4,0.550145599991,,,2017_May_31_1117,60.0037914303,FEMA4ImagesEEG,001,200364,
AMSA21.JPG,AMNE23.JPG,AMNE21.JPG,AMSA25.JPG,AMNE25.JPG,AMSA23.JPG,,,,,0,2,2,5,,,,,,,,,,,,,,,,,,,AMNE03.jpg,AMSA14.jpg,AMSA07.jpg,AMNE09.jpg,AMSA14.jpg,MS,2,num_6,16,num_6,0.683470444521,,,2017_May_31_1117,60.0037914303,FEMA4ImagesEEG,001,200364,
AMSA25.JPG,AMNE24.JPG,AMSA24.JPG,AMNE26.JPG,AMSA21.JPG,AMNE25.JPG,,,,,0,3,3,3,,,,,,,,,,,,,,,,,,,AMNE15.jpg,AMSA05.jpg,AMNE17.jpg,AMSA03.jpg,AMSA05.jpg,MS,2,num_6,16,num_6,0.80012739799,,,2017_May_31_1117,60.0037914303,FEMA4ImagesEEG,001,200364,
AFSA25.JPG,AFNE24.JPG,AFSA24.JPG,AFNE21.JPG,AFSA21.JPG,AFNE25.JPG,,,,,0,4,4,2,,,,,,,,,,,,,,,,,,,AMSA04.jpg,AMNE13.jpg,AMNE02.jpg,AMSA06.jpg,AMSA06.jpg,MS,2,num_4,16,num_4,0.850108939223,,,2017_May_31_1117,60.0037914303,FEMA4ImagesEEG,001,200364,
AMNE23.JPG,AMNE24.JPG,AMNE22.JPG,AMSA24.JPG,AMSA22.JPG,AMSA23.JPG,,,,,0,5,5,9,,,,,,,,,,,,,,,,,,,AMNE12.jpg,AMNE03.jpg,AMSA09.jpg,AMSA19.jpg,AMNE03.jpg,MN,1,num_6,32,num_8,1.333481943,,,2017_May_31_1117,60.0037914303,FEMA4ImagesEEG,001,200364,
AFSA21.JPG,AFNE23.JPG,AFNE21.JPG,AFSA25.JPG,AFNE25.JPG,AFSA23.JPG,,,,,0,6,6,4,,,,,,,,,,,,,,,,,,,AMSA20.jpg,AMSA19.jpg,AMNE10.jpg,AMNE16.jpg,AMNE10.jpg,MN,1,num_2,32,num_8,1.03347049234,,,2017_May_31_1117,60.0037914303,FEMA4ImagesEEG,001,200364,
AMNE22.JPG,AMSA24.JPG,AMSA22.JPG,AMNE25.JPG,AMNE24.JPG,AMSA25.JPG,,,,,0,7,7,7,,,,,,,,,,,,,,,,,,,AMSA10.jpg,AMNE06.jpg,AMNE19.jpg,AMSA17.jpg,AMNE19.jpg,MN,1,num_2,32,num_6,0.850115033565,,,2017_May_31_1117,60.0037914303,FEMA4ImagesEEG,001,200364,
AMSA21.JPG,AMNE22.JPG,AMNE21.JPG,AMSA23.JPG,AMSA22.JPG,AMNE23.JPG,,,,,0,8,8,1,,,,,,,,,,,,,,,,,,,AMNE09.jpg,AMNE19.jpg,AMSA09.jpg,AMSA10.jpg,AMNE09.jpg,MN,1,num_8,32,num_6,0.983462970937,,,2017_May_31_1117,60.0037914303,FEMA4ImagesEEG,001,200364,
AFNE23.JPG,AFNE24.JPG,AFNE22.JPG,AFSA24.JPG,AFSA22.JPG,AFSA23.JPG,,,,,0,9,9,8,,,,,,,,,,,,,,,,,,,AMNE03.jpg,AMNE11.jpg,AMSA01.jpg,AMSA17.jpg,AMSA01.jpg,MS,2,num_2,32,num_8,0.9168430469,,,2017_May_31_1117,60.0037914303,FEMA4ImagesEEG,001,200364,
AMNE22.JPG,AMSA24.JPG,AMSA22.JPG,AMNE25.JPG,AMNE24.JPG,AMSA25.JPG,,,,,,,,,0,0,0,7,,,,,,,,,,,,,,,AFSA12.jpg,AFNE15.jpg,AFNE03.jpg,AFSA18.jpg,AFSA12.jpg,FS,4,num_8,32,num_6,0.700155013707,,,2017_May_31_1117,60.0037914303,FEMA4ImagesEEG,001,200364,
AFSA21.JPG,AFNE22.JPG,AFNE21.JPG,AFSA23.JPG,AFSA22.JPG,AFNE23.JPG,,,,,,,,,0,1,1,0,,,,,,,,,,,,,,,AFSA20.jpg,AFNE03.jpg,AFNE17.jpg,AFSA11.jpg,AFNE03.jpg,FN,3,num_6,32,num_8,0.633494676091,,,2017_May_31_1117,60.0037914303,FEMA4ImagesEEG,001,200364,
AFNE23.JPG,AFNE24.JPG,AFNE22.JPG,AFSA24.JPG,AFSA22.JPG,AFSA23.JPG,,,,,,,,,0,2,2,8,,,,,,,,,,,,,,,AFNE06.jpg,AFNE15.jpg,AFSA08.jpg,AFSA03.jpg,AFNE15.jpg,FN,3,num_6,32,num_8,1.81673787627,,,2017_May_31_1117,60.0037914303,FEMA4ImagesEEG,001,200364,
AFNE22.JPG,AFSA24.JPG,AFSA22.JPG,AFNE25.JPG,AFNE24.JPG,AFSA25.JPG,,,,,,,,,0,3,3,6,,,,,,,,,,,,,,,AFNE03.jpg,AFSA12.jpg,AFNE01.jpg,AFSA11.jpg,AFNE01.jpg,FN,3,num_2,32,num_8,0.816670841537,,,2017_May_31_1117,60.0037914303,FEMA4ImagesEEG,001,200364,
AFSA21.JPG,AFNE23.JPG,AFNE21.JPG,AFSA25.JPG,AFNE25.JPG,AFSA23.JPG,,,,,,,,,0,4,4,4,,,,,,,,,,,,,,,AFSA07.jpg,AFNE03.jpg,AFNE10.jpg,AFSA01.jpg,AFSA07.jpg,FS,4,num_8,32,num_6,0.5001772088,,,2017_May_31_1117,60.0037914303,FEMA4ImagesEEG,001,200364,
AMSA21.JPG,AMNE22.JPG,AMNE21.JPG,AMSA23.JPG,AMSA22.JPG,AMNE23.JPG,,,,,,,,,0,5,5,1,,,,,,,,,,,,,,,AFSA04.jpg,AFNE12.jpg,AFSA14.jpg,AFNE17.jpg,AFNE17.jpg,FN,3,num_4,32,num_8,0.633517769398,,,2017_May_31_1117,60.0037914303,FEMA4ImagesEEG,001,200364,
AMSA21.JPG,AMNE23.JPG,AMNE21.JPG,AMSA25.JPG,AMNE25.JPG,AMSA23.JPG,,,,,,,,,0,6,6,5,,,,,,,,,,,,,,,AFNE15.jpg,AFSA10.jpg,AFNE08.jpg,AFSA20.jpg,AFSA20.jpg,FS,4,num_4,16,num_4,0.50004313956,,,2017_May_31_1117,60.0037914303,FEMA4ImagesEEG,001,200364,
AMNE23.JPG,AMNE24.JPG,AMNE22.JPG,AMSA24.JPG,AMSA22.JPG,AMSA23.JPG,,,,,,,,,0,7,7,9,,,,,,,,,,,,,,,AFNE04.jpg,AFNE01.jpg,AFSA19.jpg,AFSA05.jpg,AFNE01.jpg,FN,3,num_6,32,num_8,0.716838620836,,,2017_May_31_1117,60.0037914303,FEMA4ImagesEEG,001,200364,
AFSA25.JPG,AFNE24.JPG,AFSA24.JPG,AFNE21.JPG,AFSA21.JPG,AFNE25.JPG,,,,,,,,,0,8,8,2,,,,,,,,,,,,,,,AFSA17.jpg,AFNE20.jpg,AFSA05.jpg,AFNE02.jpg,AFSA17.jpg,FS,4,num_8,32,num_6,0.700213067699,,,2017_May_31_1117,60.0037914303,FEMA4ImagesEEG,001,200364,
AMSA25.JPG,AMNE24.JPG,AMSA24.JPG,AMNE26.JPG,AMSA21.JPG,AMNE25.JPG,,,,,,,,,0,9,9,3,,,,,,,,,,,,,,,AFNE17.jpg,AFNE11.jpg,AFSA13.jpg,AFSA20.jpg,AFSA13.jpg,FS,4,num_2,32,num_8,1.26644345303,,,2017_May_31_1117,60.0037914303,FEMA4ImagesEEG,001,200364,
AMSA21.JPG,AMNE22.JPG,AMNE21.JPG,AMSA23.JPG,AMSA22.JPG,AMNE23.JPG,,,,,,,,,,,,,0,0,0,1,,,,,,,,,,,AMNE18.jpg,AMSA03.jpg,AMSA13.jpg,AMNE01.jpg,AMNE01.jpg,MN,1,num_4,16,num_4,0.550149448682,,,2017_May_31_1117,60.0037914303,FEMA4ImagesEEG,001,200364,
AFNE23.JPG,AFNE24.JPG,AFNE22.JPG,AFSA24.JPG,AFSA22.JPG,AFSA23.JPG,,,,,,,,,,,,,0,1,1,8,,,,,,,,,,,AMNE12.jpg,AMSA08.jpg,AMNE03.jpg,AMSA05.jpg,AMSA05.jpg,MS,2,num_4,16,num_4,0.683495141333,,,2017_May_31_1117,60.0037914303,FEMA4ImagesEEG,001,200364,
AMSA21.JPG,AMNE23.JPG,AMNE21.JPG,AMSA25.JPG,AMNE25.JPG,AMSA23.JPG,,,,,,,,,,,,,0,2,2,5,,,,,,,,,,,AMSA04.jpg,AMNE05.jpg,AMNE08.jpg,AMSA18.jpg,AMNE08.jpg,MN,1,num_2,32,num_6,0.833602380706,,,2017_May_31_1117,60.0037914303,FEMA4ImagesEEG,001,200364,
AMNE22.JPG,AMSA24.JPG,AMSA22.JPG,AMNE25.JPG,AMNE24.JPG,AMSA25.JPG,,,,,,,,,,,,,0,3,3,7,,,,,,,,,,,AMSA17.jpg,AMNE06.jpg,AMSA16.jpg,AMNE17.jpg,AMNE17.jpg,MN,1,num_4,32,num_8,0.700216274941,,,2017_May_31_1117,60.0037914303,FEMA4ImagesEEG,001,200364,
AFSA25.JPG,AFNE24.JPG,AFSA24.JPG,AFNE21.JPG,AFSA21.JPG,AFNE25.JPG,,,,,,,,,,,,,0,4,4,2,,,,,,,,,,,AMSA18.jpg,AMSA20.jpg,AMNE12.jpg,AMNE15.jpg,AMNE15.jpg,MN,1,num_4,16,num_4,0.733438835246,,,2017_May_31_1117,60.0037914303,FEMA4ImagesEEG,001,200364,
AMNE23.JPG,AMNE24.JPG,AMNE22.JPG,AMSA24.JPG,AMSA22.JPG,AMSA23.JPG,,,,,,,,,,,,,0,5,5,9,,,,,,,,,,,AMNE08.jpg,AMSA18.jpg,AMSA20.jpg,AMNE17.jpg,AMNE17.jpg,MN,1,num_4,32,num_8,0.883276974084,,,2017_May_31_1117,60.0037914303,FEMA4ImagesEEG,001,200364,
AFSA21.JPG,AFNE22.JPG,AFNE21.JPG,AFSA23.JPG,AFSA22.JPG,AFNE23.JPG,,,,,,,,,,,,,0,6,6,0,,,,,,,,,,,AMNE01.jpg,AMSA16.jpg,AMNE20.jpg,AMSA17.jpg,AMSA16.jpg,MS,2,num_6,16,num_6,0.700129675213,,,2017_May_31_1117,60.0037914303,FEMA4ImagesEEG,001,200364,
AFNE22.JPG,AFSA24.JPG,AFSA22.JPG,AFNE25.JPG,AFNE24.JPG,AFSA25.JPG,,,,,,,,,,,,,0,7,7,6,,,,,,,,,,,AMNE03.jpg,AMSA11.jpg,AMNE18.jpg,AMSA08.jpg,AMSA08.jpg,MS,2,num_4,32,num_2,1.01677565929,,,2017_May_31_1117,60.0037914303,FEMA4ImagesEEG,001,200364,
AFSA21.JPG,AFNE23.JPG,AFNE21.JPG,AFSA25.JPG,AFNE25.JPG,AFSA23.JPG,,,,,,,,,,,,,0,8,8,4,,,,,,,,,,,AMNE10.jpg,AMSA12.jpg,AMSA01.jpg,AMNE03.jpg,AMNE03.jpg,MN,1,num_4,16,num_4,0.933642441174,,,2017_May_31_1117,60.0037914303,FEMA4ImagesEEG,001,200364,
AMSA25.JPG,AMNE24.JPG,AMSA24.JPG,AMNE26.JPG,AMSA21.JPG,AMNE25.JPG,,,,,,,,,,,,,0,9,9,3,,,,,,,,,,,AMSA11.jpg,AMSA16.jpg,AMNE10.jpg,AMNE11.jpg,AMSA16.jpg,MS,2,num_6,16,num_6,0.633471262176,,,2017_May_31_1117,60.0037914303,FEMA4ImagesEEG,001,200364,
AMNE23.JPG,AMNE24.JPG,AMNE22.JPG,AMSA24.JPG,AMSA22.JPG,AMSA23.JPG,,,,,,,,,,,,,,,,,0,0,0,9,,,,,,,AFSA12.jpg,AFNE08.jpg,AFSA19.jpg,AFNE04.jpg,AFSA19.jpg,FS,4,num_2,32,num_4,1.86664917553,,,2017_May_31_1117,60.0037914303,FEMA4ImagesEEG,001,200364,
AFNE23.JPG,AFNE24.JPG,AFNE22.JPG,AFSA24.JPG,AFSA22.JPG,AFSA23.JPG,,,,,,,,,,,,,,,,,0,1,1,8,,,,,,,AFNE13.jpg,AFSA06.jpg,AFSA11.jpg,AFNE05.jpg,AFNE05.jpg,FN,3,num_4,32,num_6,0.766919270623,,,2017_May_31_1117,60.0037914303,FEMA4ImagesEEG,001,200364,
AMSA21.JPG,AMNE23.JPG,AMNE21.JPG,AMSA25.JPG,AMNE25.JPG,AMSA23.JPG,,,,,,,,,,,,,,,,,0,2,2,5,,,,,,,AFNE07.jpg,AFNE03.jpg,AFSA16.jpg,AFSA17.jpg,AFSA16.jpg,FS,4,num_2,32,num_6,0.900164571591,,,2017_May_31_1117,60.0037914303,FEMA4ImagesEEG,001,200364,
AFSA21.JPG,AFNE23.JPG,AFNE21.JPG,AFSA25.JPG,AFNE25.JPG,AFSA23.JPG,,,,,,,,,,,,,,,,,0,3,3,4,,,,,,,AFSA12.jpg,AFNE15.jpg,AFSA16.jpg,AFNE07.jpg,AFNE07.jpg,FN,3,num_4,32,num_8,1.00013503153,,,2017_May_31_1117,60.0037914303,FEMA4ImagesEEG,001,200364,
AFSA25.JPG,AFNE24.JPG,AFSA24.JPG,AFNE21.JPG,AFSA21.JPG,AFNE25.JPG,,,,,,,,,,,,,,,,,0,4,4,2,,,,,,,AFSA14.jpg,AFSA06.jpg,AFNE03.jpg,AFNE14.jpg,AFNE03.jpg,FN,3,num_2,32,num_8,1.06660324568,,,2017_May_31_1117,60.0037914303,FEMA4ImagesEEG,001,200364,
AFSA21.JPG,AFNE22.JPG,AFNE21.JPG,AFSA23.JPG,AFSA22.JPG,AFNE23.JPG,,,,,,,,,,,,,,,,,0,5,5,0,,,,,,,AFNE13.jpg,AFSA03.jpg,AFNE03.jpg,AFSA02.jpg,AFNE13.jpg,FN,3,num_8,16,num_8,1.50013038074,,,2017_May_31_1117,60.0037914303,FEMA4ImagesEEG,001,200364,
AMNE22.JPG,AMSA24.JPG,AMSA22.JPG,AMNE25.JPG,AMNE24.JPG,AMSA25.JPG,,,,,,,,,,,,,,,,,0,6,6,7,,,,,,,AFNE07.jpg,AFSA12.jpg,AFSA09.jpg,AFNE09.jpg,AFSA09.jpg,FS,4,num_2,32,num_6,0.883425797336,,,2017_May_31_1117,60.0037914303,FEMA4ImagesEEG,001,200364,
AMSA25.JPG,AMNE24.JPG,AMSA24.JPG,AMNE26.JPG,AMSA21.JPG,AMNE25.JPG,,,,,,,,,,,,,,,,,0,7,7,3,,,,,,,AFSA01.jpg,AFNE07.jpg,AFNE02.jpg,AFSA12.jpg,AFNE07.jpg,FN,3,num_6,32,num_4,0.900085028261,,,2017_May_31_1117,60.0037914303,FEMA4ImagesEEG,001,200364,
AFNE22.JPG,AFSA24.JPG,AFSA22.JPG,AFNE25.JPG,AFNE24.JPG,AFSA25.JPG,,,,,,,,,,,,,,,,,0,8,8,6,,,,,,,AFNE12.jpg,AFSA18.jpg,AFNE09.jpg,AFSA03.jpg,AFSA18.jpg,FS,4,num_6,32,num_8,0.850088091101,,,2017_May_31_1117,60.0037914303,FEMA4ImagesEEG,001,200364,
AMSA21.JPG,AMNE22.JPG,AMNE21.JPG,AMSA23.JPG,AMSA22.JPG,AMNE23.JPG,,,,,,,,,,,,,,,,,0,9,9,1,,,,,,,AFNE16.jpg,AFSA05.jpg,AFNE02.jpg,AFSA02.jpg,AFSA05.jpg,FS,4,num_6,32,num_8,0.766843576217,,,2017_May_31_1117,60.0037914303,FEMA4ImagesEEG,001,200364,
AFNE22.JPG,AFSA24.JPG,AFSA22.JPG,AFNE25.JPG,AFNE24.JPG,AFSA25.JPG,,,,,,,,,,,,,,,,,,,,,0,0,0,6,,,AMNE12.jpg,AMSA15.jpg,AMSA10.jpg,AMNE02.jpg,AMSA15.jpg,MS,2,num_6,16,num_6,0.300230515888,,,2017_May_31_1117,60.0037914303,FEMA4ImagesEEG,001,200364,
AMSA21.JPG,AMNE22.JPG,AMNE21.JPG,AMSA23.JPG,AMSA22.JPG,AMNE23.JPG,,,,,,,,,,,,,,,,,,,,,0,1,1,1,,,AMNE07.jpg,AMSA10.jpg,AMSA06.jpg,AMNE14.jpg,AMSA06.jpg,MS,2,num_2,32,num_4,0.633470299887,,,2017_May_31_1117,60.0037914303,FEMA4ImagesEEG,001,200364,
AMNE22.JPG,AMSA24.JPG,AMSA22.JPG,AMNE25.JPG,AMNE24.JPG,AMSA25.JPG,,,,,,,,,,,,,,,,,,,,,0,2,2,7,,,AMSA04.jpg,AMSA08.jpg,AMNE04.jpg,AMNE03.jpg,AMNE03.jpg,MN,1,num_4,32,num_6,0.700136410538,,,2017_May_31_1117,60.0037914303,FEMA4ImagesEEG,001,200364,
AMNE23.JPG,AMNE24.JPG,AMNE22.JPG,AMSA24.JPG,AMSA22.JPG,AMSA23.JPG,,,,,,,,,,,,,,,,,,,,,0,3,3,9,,,AMSA20.jpg,AMSA06.jpg,AMNE19.jpg,AMNE15.jpg,AMNE15.jpg,MN,1,num_4,32,num_8,1.30007559829,,,2017_May_31_1117,60.0037914303,FEMA4ImagesEEG,001,200364,
AMSA21.JPG,AMNE23.JPG,AMNE21.JPG,AMSA25.JPG,AMNE25.JPG,AMSA23.JPG,,,,,,,,,,,,,,,,,,,,,0,4,4,5,,,AMSA02.jpg,AMSA12.jpg,AMNE18.jpg,AMNE10.jpg,AMNE10.jpg,MN,1,num_4,16,num_4,0.733462249395,,,2017_May_31_1117,60.0037914303,FEMA4ImagesEEG,001,200364,
AFSA21.JPG,AFNE22.JPG,AFNE21.JPG,AFSA23.JPG,AFSA22.JPG,AFNE23.JPG,,,,,,,,,,,,,,,,,,,,,0,5,5,0,,,AMNE09.jpg,AMSA14.jpg,AMNE15.jpg,AMSA07.jpg,AMNE15.jpg,MN,1,num_2,32,num_8,1.41677585198,,,2017_May_31_1117,60.0037914303,FEMA4ImagesEEG,001,200364,
AFSA21.JPG,AFNE23.JPG,AFNE21.JPG,AFSA25.JPG,AFNE25.JPG,AFSA23.JPG,,,,,,,,,,,,,,,,,,,,,0,6,6,4,,,AMSA15.jpg,AMNE01.jpg,AMSA19.jpg,AMNE18.jpg,AMNE18.jpg,MN,1,num_4,16,num_4,0.983426727355,,,2017_May_31_1117,60.0037914303,FEMA4ImagesEEG,001,200364,
AFNE23.JPG,AFNE24.JPG,AFNE22.JPG,AFSA24.JPG,AFSA22.JPG,AFSA23.JPG,,,,,,,,,,,,,,,,,,,,,0,7,7,8,,,AMNE20.jpg,AMSA01.jpg,AMNE06.jpg,AMSA02.jpg,AMSA02.jpg,MS,2,num_4,16,num_4,0.56687186542,,,2017_May_31_1117,60.0037914303,FEMA4ImagesEEG,001,200364,
AFSA25.JPG,AFNE24.JPG,AFSA24.JPG,AFNE21.JPG,AFSA21.JPG,AFNE25.JPG,,,,,,,,,,,,,,,,,,,,,0,8,8,2,,,AMSA05.jpg,AMSA13.jpg,AMNE09.jpg,AMNE15.jpg,AMSA05.jpg,MS,2,num_8,32,num_4,0.73349207826,,,2017_May_31_1117,60.0037914303,FEMA4ImagesEEG,001,200364,
AMSA25.JPG,AMNE24.JPG,AMSA24.JPG,AMNE26.JPG,AMSA21.JPG,AMNE25.JPG,,,,,,,,,,,,,,,,,,,,,0,9,9,3,,,AMSA13.jpg,AMNE14.jpg,AMSA02.jpg,AMNE03.jpg,AMNE03.jpg,MN,1,num_4,32,num_6,0.650159359677,,,2017_May_31_1117,60.0037914303,FEMA4ImagesEEG,001,200364,
,,,,,,,,,,,,,,,,,,,,,,,,,,,,,,,,,,,,,,,,,,,space,21.6148699513,2017_May_31_1117,60.0037914303,FEMA4ImagesEEG,001,200364,
AFNE01.JPG,AFNE01.JPG,AFNE01.JPG,AFNE01.JPG,AFNE01.JPG,AFNE01.JPG,0,0,0,8,,,,,,,,,,,,,,,,,,,,,,,AFSA18.jpg,AFNE05.jpg,AFNE13.jpg,AFSA12.jpg,AFNE13.jpg,FN,3,num_2,16,num_2,1.0501496091,,,2017_May_31_1117,60.0037914303,FEMA4ImagesEEG,001,200364,
AFNE01.JPG,AFNE01.JPG,AFNE01.JPG,AFNE01.JPG,AFNE01.JPG,AFNE01.JPG,0,1,1,2,,,,,,,,,,,,,,,,,,,,,,,AFSA15.jpg,AFSA09.jpg,AFNE06.jpg,AFNE20.jpg,AFNE20.jpg,FN,3,num_4,16,num_4,0.816765139112,,,2017_May_31_1117,60.0037914303,FEMA4ImagesEEG,001,200364,
AFNE01.JPG,AFNE01.JPG,AFNE01.JPG,AFNE01.JPG,AFNE01.JPG,AFNE01.JPG,0,2,2,7,,,,,,,,,,,,,,,,,,,,,,,AFNE12.jpg,AFSA20.jpg,AFSA13.jpg,AFNE16.jpg,AFSA20.jpg,FS,4,num_6,16,num_6,0.500146738486,,,2017_May_31_1117,60.0037914303,FEMA4ImagesEEG,001,200364,
AFNE01.JPG,AFNE01.JPG,AFNE01.JPG,AFNE01.JPG,AFNE01.JPG,AFNE01.JPG,0,3,3,4,,,,,,,,,,,,,,,,,,,,,,,AFSA11.jpg,AFNE02.jpg,AFNE13.jpg,AFSA04.jpg,AFSA04.jpg,FS,4,num_4,16,num_4,0.600152800325,,,2017_May_31_1117,60.0037914303,FEMA4ImagesEEG,001,200364,
AFNE01.JPG,AFNE01.JPG,AFNE01.JPG,AFNE01.JPG,AFNE01.JPG,AFNE01.JPG,0,4,4,1,,,,,,,,,,,,,,,,,,,,,,,AFNE09.jpg,AFSA11.jpg,AFSA03.jpg,AFNE01.jpg,AFNE09.jpg,FN,3,num_8,32,num_4,0.550164202927,,,2017_May_31_1117,60.0037914303,FEMA4ImagesEEG,001,200364,
AFNE01.JPG,AFNE01.JPG,AFNE01.JPG,AFNE01.JPG,AFNE01.JPG,AFNE01.JPG,0,5,5,6,,,,,,,,,,,,,,,,,,,,,,,AFNE02.jpg,AFNE06.jpg,AFSA11.jpg,AFSA01.jpg,AFNE06.jpg,FN,3,num_6,16,num_6,0.583440006012,,,2017_May_31_1117,60.0037914303,FEMA4ImagesEEG,001,200364,
AFNE01.JPG,AFNE01.JPG,AFNE01.JPG,AFNE01.JPG,AFNE01.JPG,AFNE01.JPG,0,6,6,5,,,,,,,,,,,,,,,,,,,,,,,AFSA17.jpg,AFSA05.jpg,AFNE15.jpg,AFNE10.jpg,AFSA17.jpg,FS,4,num_8,32,num_6,0.700124864001,,,2017_May_31_1117,60.0037914303,FEMA4ImagesEEG,001,200364,
AFNE01.JPG,AFNE01.JPG,AFNE01.JPG,AFNE01.JPG,AFNE01.JPG,AFNE01.JPG,0,7,7,0,,,,,,,,,,,,,,,,,,,,,,,AFNE13.jpg,AFNE14.jpg,AFSA18.jpg,AFSA02.jpg,AFSA02.jpg,FS,4,num_4,32,num_8,1.03336079931,,,2017_May_31_1117,60.0037914303,FEMA4ImagesEEG,001,200364,
AFNE01.JPG,AFNE01.JPG,AFNE01.JPG,AFNE01.JPG,AFNE01.JPG,AFNE01.JPG,0,8,8,9,,,,,,,,,,,,,,,,,,,,,,,AFNE15.jpg,AFSA03.jpg,AFSA20.jpg,AFNE14.jpg,AFSA03.jpg,FS,4,num_6,16,num_6,1.05012330832,,,2017_May_31_1117,60.0037914303,FEMA4ImagesEEG,001,200364,
AFNE01.JPG,AFNE01.JPG,AFNE01.JPG,AFNE01.JPG,AFNE01.JPG,AFNE01.JPG,0,9,9,3,,,,,,,,,,,,,,,,,,,,,,,AFNE07.jpg,AFSA12.jpg,AFSA06.jpg,AFNE14.jpg,AFNE07.jpg,FN,3,num_8,16,num_8,0.650159680285,,,2017_May_31_1117,60.0037914303,FEMA4ImagesEEG,001,200364,
AFNE01.JPG,AFNE01.JPG,AFNE01.JPG,AFNE01.JPG,AFNE01.JPG,AFNE01.JPG,1,0,10,5,,,,,,,,,,,,,,,,,,,,,,,AFNE11.jpg,AFSA11.jpg,AFSA07.jpg,AFNE14.jpg,AFNE14.jpg,FN,3,num_4,16,num_4,0.566797453677,,,2017_May_31_1117,60.0037914303,FEMA4ImagesEEG,001,200364,
AFNE01.JPG,AFNE01.JPG,AFNE01.JPG,AFNE01.JPG,AFNE01.JPG,AFNE01.JPG,1,1,11,4,,,,,,,,,,,,,,,,,,,,,,,AFNE01.jpg,AFNE19.jpg,AFSA20.jpg,AFSA01.jpg,AFNE01.jpg,FN,3,num_8,16,num_8,0.81677700649,,,2017_May_31_1117,60.0037914303,FEMA4ImagesEEG,001,200364,
AFNE01.JPG,AFNE01.JPG,AFNE01.JPG,AFNE01.JPG,AFNE01.JPG,AFNE01.JPG,1,2,12,1,,,,,,,,,,,,,,,,,,,,,,,AFNE08.jpg,AFSA19.jpg,AFSA05.jpg,AFNE06.jpg,AFNE06.jpg,FN,3,num_4,16,num_4,0.633501732489,,,2017_May_31_1117,60.0037914303,FEMA4ImagesEEG,001,200364,
AFNE01.JPG,AFNE01.JPG,AFNE01.JPG,AFNE01.JPG,AFNE01.JPG,AFNE01.JPG,1,3,13,6,,,,,,,,,,,,,,,,,,,,,,,AFSA10.jpg,AFNE11.jpg,AFSA11.jpg,AFNE15.jpg,AFNE11.jpg,FN,3,num_6,16,num_6,0.917016246356,,,2017_May_31_1117,60.0037914303,FEMA4ImagesEEG,001,200364,
AFNE01.JPG,AFNE01.JPG,AFNE01.JPG,AFNE01.JPG,AFNE01.JPG,AFNE01.JPG,1,4,14,3,,,,,,,,,,,,,,,,,,,,,,,AFSA16.jpg,AFNE15.jpg,AFSA06.jpg,AFNE04.jpg,AFNE04.jpg,FN,3,num_4,16,num_4,1.15010659792,,,2017_May_31_1117,60.0037914303,FEMA4ImagesEEG,001,200364,
AFNE01.JPG,AFNE01.JPG,AFNE01.JPG,AFNE01.JPG,AFNE01.JPG,AFNE01.JPG,1,5,15,2,,,,,,,,,,,,,,,,,,,,,,,AFNE07.jpg,AFSA05.jpg,AFSA01.jpg,AFNE11.jpg,AFSA05.jpg,FS,4,num_6,16,num_6,0.883515604539,,,2017_May_31_1117,60.0037914303,FEMA4ImagesEEG,001,200364,
AFNE01.JPG,AFNE01.JPG,AFNE01.JPG,AFNE01.JPG,AFNE01.JPG,AFNE01.JPG,1,6,16,7,,,,,,,,,,,,,,,,,,,,,,,AFSA06.jpg,AFNE03.jpg,AFSA16.jpg,AFNE16.jpg,AFSA06.jpg,FS,4,num_8,32,num_4,0.866829752224,,,2017_May_31_1117,60.0037914303,FEMA4ImagesEEG,001,200364,
AFNE01.JPG,AFNE01.JPG,AFNE01.JPG,AFNE01.JPG,AFNE01.JPG,AFNE01.JPG,1,7,17,8,,,,,,,,,,,,,,,,,,,,,,,AFNE10.jpg,AFSA01.jpg,AFSA11.jpg,AFNE13.jpg,AFSA11.jpg,FS,4,num_2,32,num_6,0.366998942569,,,2017_May_31_1117,60.0037914303,FEMA4ImagesEEG,001,200364,
AFNE01.JPG,AFNE01.JPG,AFNE01.JPG,AFNE01.JPG,AFNE01.JPG,AFNE01.JPG,1,8,18,9,,,,,,,,,,,,,,,,,,,,,,,AFNE16.jpg,AFSA15.jpg,AFNE03.jpg,AFSA14.jpg,AFSA14.jpg,FS,4,num_4,32,num_2,1.666821477,,,2017_May_31_1117,60.0037914303,FEMA4ImagesEEG,001,200364,
AFNE01.JPG,AFNE01.JPG,AFNE01.JPG,AFNE01.JPG,AFNE01.JPG,AFNE01.JPG,1,9,19,0,,,,,,,,,,,,,,,,,,,,,,,AFSA09.jpg,AFSA04.jpg,AFNE04.jpg,AFNE20.jpg,AFNE04.jpg,FN,3,num_2,16,num_2,0.966797004687,,,2017_May_31_1117,60.0037914303,FEMA4ImagesEEG,001,200364,
AFNE01.JPG,AFNE01.JPG,AFNE01.JPG,AFNE01.JPG,AFNE01.JPG,AFNE01.JPG,2,0,20,0,,,,,,,,,,,,,,,,,,,,,,,AFNE11.jpg,AFSA17.jpg,AFSA09.jpg,AFNE15.jpg,AFSA09.jpg,FS,4,num_2,32,num_8,1.68339891918,,,2017_May_31_1117,60.0037914303,FEMA4ImagesEEG,001,200364,
AFNE01.JPG,AFNE01.JPG,AFNE01.JPG,AFNE01.JPG,AFNE01.JPG,AFNE01.JPG,2,1,21,8,,,,,,,,,,,,,,,,,,,,,,,AFSA08.jpg,AFNE11.jpg,AFNE03.jpg,AFSA16.jpg,AFNE11.jpg,FN,3,num_6,32,num_4,0.933492013952,,,2017_May_31_1117,60.0037914303,FEMA4ImagesEEG,001,200364,
AFNE01.JPG,AFNE01.JPG,AFNE01.JPG,AFNE01.JPG,AFNE01.JPG,AFNE01.JPG,2,2,22,7,,,,,,,,,,,,,,,,,,,,,,,AFSA17.jpg,AFNE19.jpg,AFNE20.jpg,AFSA09.jpg,AFNE19.jpg,FN,3,num_6,32,num_4,1.03341468377,,,2017_May_31_1117,60.0037914303,FEMA4ImagesEEG,001,200364,
AFNE01.JPG,AFNE01.JPG,AFNE01.JPG,AFNE01.JPG,AFNE01.JPG,AFNE01.JPG,2,3,23,9,,,,,,,,,,,,,,,,,,,,,,,AFSA19.jpg,AFNE08.jpg,AFSA17.jpg,AFNE18.jpg,AFNE08.jpg,FN,3,num_6,32,num_4,0.516872362699,,,2017_May_31_1117,60.0037914303,FEMA4ImagesEEG,001,200364,
AFNE01.JPG,AFNE01.JPG,AFNE01.JPG,AFNE01.JPG,AFNE01.JPG,AFNE01.JPG,2,4,24,3,,,,,,,,,,,,,,,,,,,,,,,AFNE06.jpg,AFSA16.jpg,AFNE16.jpg,AFSA06.jpg,AFSA06.jpg,FS,4,num_4,16,num_4,0.533609212376,,,2017_May_31_1117,60.0037914303,FEMA4ImagesEEG,001,200364,
AFNE01.JPG,AFNE01.JPG,AFNE01.JPG,AFNE01.JPG,AFNE01.JPG,AFNE01.JPG,2,5,25,1,,,,,,,,,,,,,,,,,,,,,,,AFNE01.jpg,AFSA13.jpg,AFNE16.jpg,AFSA09.jpg,AFNE16.jpg,FN,3,num_2,16,num_2,0.450182196219,,,2017_May_31_1117,60.0037914303,FEMA4ImagesEEG,001,200364,
AFNE01.JPG,AFNE01.JPG,AFNE01.JPG,AFNE01.JPG,AFNE01.JPG,AFNE01.JPG,2,6,26,2,,,,,,,,,,,,,,,,,,,,,,,AFNE08.jpg,AFSA10.jpg,AFSA17.jpg,AFNE11.jpg,AFNE11.jpg,FN,3,num_4,16,num_4,0.716659006197,,,2017_May_31_1117,60.0037914303,FEMA4ImagesEEG,001,200364,
AFNE01.JPG,AFNE01.JPG,AFNE01.JPG,AFNE01.JPG,AFNE01.JPG,AFNE01.JPG,2,7,27,4,,,,,,,,,,,,,,,,,,,,,,,AFSA18.jpg,AFSA15.jpg,AFNE02.jpg,AFNE18.jpg,AFNE02.jpg,FN,3,num_2,32,num_6,0.50016566203,,,2017_May_31_1117,60.0037914303,FEMA4ImagesEEG,001,200364,
AFNE01.JPG,AFNE01.JPG,AFNE01.JPG,AFNE01.JPG,AFNE01.JPG,AFNE01.JPG,2,8,28,5,,,,,,,,,,,,,,,,,,,,,,,AFNE10.jpg,AFSA01.jpg,AFSA12.jpg,AFNE05.jpg,AFSA01.jpg,FS,4,num_6,32,num_4,0.633494676324,,,2017_May_31_1117,60.0037914303,FEMA4ImagesEEG,001,200364,
AFNE01.JPG,AFNE01.JPG,AFNE01.JPG,AFNE01.JPG,AFNE01.JPG,AFNE01.JPG,2,9,29,6,,,,,,,,,,,,,,,,,,,,,,,AFNE08.jpg,AFNE12.jpg,AFSA19.jpg,AFSA15.jpg,AFNE08.jpg,FN,3,num_8,16,num_8,0.833492687671,,,2017_May_31_1117,60.0037914303,FEMA4ImagesEEG,001,200364,
AFNE01.JPG,AFNE01.JPG,AFNE01.JPG,AFNE01.JPG,AFNE01.JPG,AFNE01.JPG,3,0,30,3,,,,,,,,,,,,,,,,,,,,,,,AFSA13.jpg,AFSA02.jpg,AFNE18.jpg,AFNE14.jpg,AFNE14.jpg,FN,3,num_4,32,num_2,0.883507265244,,,2017_May_31_1117,60.0037914303,FEMA4ImagesEEG,001,200364,
AFNE01.JPG,AFNE01.JPG,AFNE01.JPG,AFNE01.JPG,AFNE01.JPG,AFNE01.JPG,3,1,31,4,,,,,,,,,,,,,,,,,,,,,,,AFNE18.jpg,AFSA07.jpg,AFSA15.jpg,AFNE11.jpg,AFNE18.jpg,FN,3,num_8,32,num_6,1.05018360773,,,2017_May_31_1117,60.0037914303,FEMA4ImagesEEG,001,200364,
AFNE01.JPG,AFNE01.JPG,AFNE01.JPG,AFNE01.JPG,AFNE01.JPG,AFNE01.JPG,3,2,32,0,,,,,,,,,,,,,,,,,,,,,,,AFSA06.jpg,AFNE10.jpg,AFNE07.jpg,AFSA13.jpg,AFSA13.jpg,FS,4,num_4,32,num_6,1.10016322439,,,2017_May_31_1117,60.0037914303,FEMA4ImagesEEG,001,200364,
AFNE01.JPG,AFNE01.JPG,AFNE01.JPG,AFNE01.JPG,AFNE01.JPG,AFNE01.JPG,3,3,33,1,,,,,,,,,,,,,,,,,,,,,,,AFSA03.jpg,AFNE18.jpg,AFSA08.jpg,AFNE02.jpg,AFSA03.jpg,FS,4,num_8,32,num_6,0.46679075039,,,2017_May_31_1117,60.0037914303,FEMA4ImagesEEG,001,200364,
AFNE01.JPG,AFNE01.JPG,AFNE01.JPG,AFNE01.JPG,AFNE01.JPG,AFNE01.JPG,3,4,34,8,,,,,,,,,,,,,,,,,,,,,,,AFSA10.jpg,AFNE16.jpg,AFSA12.jpg,AFNE02.jpg,AFNE16.jpg,FN,3,num_6,16,num_6,1.23356825393,,,2017_May_31_1117,60.0037914303,FEMA4ImagesEEG,001,200364,
AFNE01.JPG,AFNE01.JPG,AFNE01.JPG,AFNE01.JPG,AFNE01.JPG,AFNE01.JPG,3,5,35,7,,,,,,,,,,,,,,,,,,,,,,,AFSA13.jpg,AFSA10.jpg,AFNE06.jpg,AFNE11.jpg,AFSA13.jpg,FS,4,num_8,32,num_2,2.11680224887,,,2017_May_31_1117,60.0037914303,FEMA4ImagesEEG,001,200364,
AFNE01.JPG,AFNE01.JPG,AFNE01.JPG,AFNE01.JPG,AFNE01.JPG,AFNE01.JPG,3,6,36,2,,,,,,,,,,,,,,,,,,,,,,,AFNE08.jpg,AFSA18.jpg,AFNE10.jpg,AFSA01.jpg,AFNE08.jpg,FN,3,num_8,16,num_8,1.58341562981,,,2017_May_31_1117,60.0037914303,FEMA4ImagesEEG,001,200364,
AFNE01.JPG,AFNE01.JPG,AFNE01.JPG,AFNE01.JPG,AFNE01.JPG,AFNE01.JPG,3,7,37,9,,,,,,,,,,,,,,,,,,,,,,,AFSA02.jpg,AFNE08.jpg,AFSA08.jpg,AFNE05.jpg,AFNE08.jpg,FN,3,num_6,32,num_8,1.30007880577,,,2017_May_31_1117,60.0037914303,FEMA4ImagesEEG,001,200364,
AFNE01.JPG,AFNE01.JPG,AFNE01.JPG,AFNE01.JPG,AFNE01.JPG,AFNE01.JPG,3,8,38,5,,,,,,,,,,,,,,,,,,,,,,,AFSA07.jpg,AFSA12.jpg,AFNE09.jpg,AFNE17.jpg,AFNE09.jpg,FN,3,num_2,32,num_4,0.550286725396,,,2017_May_31_1117,60.0037914303,FEMA4ImagesEEG,001,200364,
AFNE01.JPG,AFNE01.JPG,AFNE01.JPG,AFNE01.JPG,AFNE01.JPG,AFNE01.JPG,3,9,39,6,,,,,,,,,,,,,,,,,,,,,,,AFSA02.jpg,AFSA12.jpg,AFNE05.jpg,AFNE19.jpg,AFNE05.jpg,FN,3,num_2,32,num_6,0.716967237415,,,2017_May_31_1117,60.0037914303,FEMA4ImagesEEG,001,200364,
AFNE01.JPG,AFNE01.JPG,AFNE01.JPG,AFNE01.JPG,AFNE01.JPG,AFNE01.JPG,4,0,40,3,,,,,,,,,,,,,,,,,,,,,,,AFNE02.jpg,AFSA13.jpg,AFNE08.jpg,AFSA05.jpg,AFSA05.jpg,FS,4,num_4,32,num_8,0.666776894126,,,2017_May_31_1117,60.0037914303,FEMA4ImagesEEG,001,200364,
AFNE01.JPG,AFNE01.JPG,AFNE01.JPG,AFNE01.JPG,AFNE01.JPG,AFNE01.JPG,4,1,41,6,,,,,,,,,,,,,,,,,,,,,,,AFSA19.jpg,AFSA16.jpg,AFNE07.jpg,AFNE18.jpg,AFNE07.jpg,FN,3,num_2,32,num_4,0.450184441637,,,2017_May_31_1117,60.0037914303,FEMA4ImagesEEG,001,200364,
AFNE01.JPG,AFNE01.JPG,AFNE01.JPG,AFNE01.JPG,AFNE01.JPG,AFNE01.JPG,4,2,42,0,,,,,,,,,,,,,,,,,,,,,,,AFSA08.jpg,AFSA05.jpg,AFNE19.jpg,AFNE18.jpg,AFSA05.jpg,FS,4,num_6,16,num_6,0.916587096406,,,2017_May_31_1117,60.0037914303,FEMA4ImagesEEG,001,200364,
AFNE01.JPG,AFNE01.JPG,AFNE01.JPG,AFNE01.JPG,AFNE01.JPG,AFNE01.JPG,4,3,43,4,,,,,,,,,,,,,,,,,,,,,,,AFSA18.jpg,AFNE08.jpg,AFNE18.jpg,AFSA17.jpg,AFSA18.jpg,FS,4,num_8,32,num_4,0.383504538797,,,2017_May_31_1117,60.0037914303,FEMA4ImagesEEG,001,200364,
AFNE01.JPG,AFNE01.JPG,AFNE01.JPG,AFNE01.JPG,AFNE01.JPG,AFNE01.JPG,4,4,44,5,,,,,,,,,,,,,,,,,,,,,,,AFNE10.jpg,AFSA08.jpg,AFNE15.jpg,AFSA09.jpg,AFSA08.jpg,FS,4,num_6,32,num_4,0.400183334947,,,2017_May_31_1117,60.0037914303,FEMA4ImagesEEG,001,200364,
AFNE01.JPG,AFNE01.JPG,AFNE01.JPG,AFNE01.JPG,AFNE01.JPG,AFNE01.JPG,4,5,45,7,,,,,,,,,,,,,,,,,,,,,,,AFSA13.jpg,AFNE16.jpg,AFSA15.jpg,AFNE07.jpg,AFSA15.jpg,FS,4,num_2,32,num_6,0.433471326251,,,2017_May_31_1117,60.0037914303,FEMA4ImagesEEG,001,200364,
AFNE01.JPG,AFNE01.JPG,AFNE01.JPG,AFNE01.JPG,AFNE01.JPG,AFNE01.JPG,4,6,46,2,,,,,,,,,,,,,,,,,,,,,,,AFSA05.jpg,AFSA10.jpg,AFNE12.jpg,AFNE01.jpg,AFSA10.jpg,FS,4,num_6,16,num_6,0.400105715729,,,2017_May_31_1117,60.0037914303,FEMA4ImagesEEG,001,200364,
AFNE01.JPG,AFNE01.JPG,AFNE01.JPG,AFNE01.JPG,AFNE01.JPG,AFNE01.JPG,4,7,47,9,,,,,,,,,,,,,,,,,,,,,,,AFNE15.jpg,AFSA10.jpg,AFNE18.jpg,AFSA03.jpg,AFSA03.jpg,FS,4,num_4,48,None,,,,2017_May_31_1117,60.0037914303,FEMA4ImagesEEG,001,200364,
AFNE01.JPG,AFNE01.JPG,AFNE01.JPG,AFNE01.JPG,AFNE01.JPG,AFNE01.JPG,4,8,48,1,,,,,,,,,,,,,,,,,,,,,,,AFSA02.jpg,AFNE18.jpg,AFSA03.jpg,AFNE19.jpg,AFSA02.jpg,FS,4,num_8,32,num_4,3.5665719735,,,2017_May_31_1117,60.0037914303,FEMA4ImagesEEG,001,200364,
AFNE01.JPG,AFNE01.JPG,AFNE01.JPG,AFNE01.JPG,AFNE01.JPG,AFNE01.JPG,4,9,49,8,,,,,,,,,,,,,,,,,,,,,,,AFNE18.jpg,AFNE11.jpg,AFSA09.jpg,AFSA07.jpg,AFNE18.jpg,FN,3,num_8,32,num_6,1.2000871771,,,2017_May_31_1117,60.0037914303,FEMA4ImagesEEG,001,200364,
AFNE01.JPG,AFNE01.JPG,AFNE01.JPG,AFNE01.JPG,AFNE01.JPG,AFNE01.JPG,5,0,50,6,,,,,,,,,,,,,,,,,,,,,,,AFSA10.jpg,AFNE13.jpg,AFNE17.jpg,AFSA13.jpg,AFNE17.jpg,FN,3,num_2,32,num_6,1.31680731638,,,2017_May_31_1117,60.0037914303,FEMA4ImagesEEG,001,200364,
AFNE01.JPG,AFNE01.JPG,AFNE01.JPG,AFNE01.JPG,AFNE01.JPG,AFNE01.JPG,5,1,51,2,,,,,,,,,,,,,,,,,,,,,,,AFNE19.jpg,AFSA14.jpg,AFSA20.jpg,AFNE06.jpg,AFNE06.jpg,FN,3,num_4,32,num_6,0.400247161975,,,2017_May_31_1117,60.0037914303,FEMA4ImagesEEG,001,200364,
AFNE01.JPG,AFNE01.JPG,AFNE01.JPG,AFNE01.JPG,AFNE01.JPG,AFNE01.JPG,5,2,52,1,,,,,,,,,,,,,,,,,,,,,,,AFNE02.jpg,AFNE15.jpg,AFSA14.jpg,AFSA12.jpg,AFNE15.jpg,FN,3,num_6,32,num_8,0.300146802561,,,2017_May_31_1117,60.0037914303,FEMA4ImagesEEG,001,200364,
AFNE01.JPG,AFNE01.JPG,AFNE01.JPG,AFNE01.JPG,AFNE01.JPG,AFNE01.JPG,5,3,53,3,,,,,,,,,,,,,,,,,,,,,,,AFSA01.jpg,AFNE18.jpg,AFSA18.jpg,AFNE17.jpg,AFNE18.jpg,FN,3,num_6,32,num_4,0.25024448405,,,2017_May_31_1117,60.0037914303,FEMA4ImagesEEG,001,200364,
AFNE01.JPG,AFNE01.JPG,AFNE01.JPG,AFNE01.JPG,AFNE01.JPG,AFNE01.JPG,5,4,54,8,,,,,,,,,,,,,,,,,,,,,,,AFNE08.jpg,AFNE14.jpg,AFSA11.jpg,AFSA03.jpg,AFSA11.jpg,FS,4,num_2,32,num_6,0.6332602154,,,2017_May_31_1117,60.0037914303,FEMA4ImagesEEG,001,200364,
AFNE01.JPG,AFNE01.JPG,AFNE01.JPG,AFNE01.JPG,AFNE01.JPG,AFNE01.JPG,5,5,55,5,,,,,,,,,,,,,,,,,,,,,,,AFSA10.jpg,AFNE10.jpg,AFNE05.jpg,AFSA04.jpg,AFNE05.jpg,FN,3,num_2,32,num_6,1.16673632059,,,2017_May_31_1117,60.0037914303,FEMA4ImagesEEG,001,200364,
AFNE01.JPG,AFNE01.JPG,AFNE01.JPG,AFNE01.JPG,AFNE01.JPG,AFNE01.JPG,5,6,56,9,,,,,,,,,,,,,,,,,,,,,,,AFSA15.jpg,AFSA05.jpg,AFNE05.jpg,AFNE01.jpg,AFNE01.jpg,FN,3,num_4,16,num_4,3.61659264518,,,2017_May_31_1117,60.0037914303,FEMA4ImagesEEG,001,200364,
AFNE01.JPG,AFNE01.JPG,AFNE01.JPG,AFNE01.JPG,AFNE01.JPG,AFNE01.JPG,5,7,57,0,,,,,,,,,,,,,,,,,,,,,,,AFSA02.jpg,AFNE09.jpg,AFNE10.jpg,AFSA20.jpg,AFNE10.jpg,FN,3,num_2,32,num_6,0.350212377962,,,2017_May_31_1117,60.0037914303,FEMA4ImagesEEG,001,200364,
AFNE01.JPG,AFNE01.JPG,AFNE01.JPG,AFNE01.JPG,AFNE01.JPG,AFNE01.JPG,5,8,58,7,,,,,,,,,,,,,,,,,,,,,,,AFSA04.jpg,AFNE15.jpg,AFNE01.jpg,AFSA03.jpg,AFNE01.jpg,FN,3,num_2,32,num_6,0.883448569803,,,2017_May_31_1117,60.0037914303,FEMA4ImagesEEG,001,200364,
AFNE01.JPG,AFNE01.JPG,AFNE01.JPG,AFNE01.JPG,AFNE01.JPG,AFNE01.JPG,5,9,59,4,,,,,,,,,,,,,,,,,,,,,,,AFSA08.jpg,AFSA11.jpg,AFNE02.jpg,AFNE10.jpg,AFSA08.jpg,FS,4,num_8,32,num_2,0.783605123172,,,2017_May_31_1117,60.0037914303,FEMA4ImagesEEG,001,200364,
,,,,,,,,,,,,,,,,,,,,,,,,,,,,,,,,,,,,,,,,,,,space,11.3992916781,2017_May_31_1117,60.0037914303,FEMA4ImagesEEG,001,200364,
AFNE01.JPG,AFNE01.JPG,AFNE01.JPG,AFNE01.JPG,AFNE01.JPG,AFNE01.JPG,,,,,0,0,0,0,,,,,,,,,,,,,,,,,,,AMNE04.jpg,AMSA19.jpg,AMNE13.jpg,AMSA10.jpg,AMSA10.jpg,MS,2,num_4,32,num_2,1.13341272692,,,2017_May_31_1117,60.0037914303,FEMA4ImagesEEG,001,200364,
AFNE01.JPG,AFNE01.JPG,AFNE01.JPG,AFNE01.JPG,AFNE01.JPG,AFNE01.JPG,,,,,0,1,1,5,,,,,,,,,,,,,,,,,,,AMNE04.jpg,AMSA07.jpg,AMSA14.jpg,AMNE17.jpg,AMSA14.jpg,MS,2,num_2,16,num_2,0.516759461956,,,2017_May_31_1117,60.0037914303,FEMA4ImagesEEG,001,200364,
AFNE01.JPG,AFNE01.JPG,AFNE01.JPG,AFNE01.JPG,AFNE01.JPG,AFNE01.JPG,,,,,0,2,2,6,,,,,,,,,,,,,,,,,,,AMNE19.jpg,AMSA09.jpg,AMSA04.jpg,AMNE03.jpg,AMNE03.jpg,MN,1,num_4,16,num_4,0.766795465024,,,2017_May_31_1117,60.0037914303,FEMA4ImagesEEG,001,200364,
AFNE01.JPG,AFNE01.JPG,AFNE01.JPG,AFNE01.JPG,AFNE01.JPG,AFNE01.JPG,,,,,0,3,3,4,,,,,,,,,,,,,,,,,,,AMNE01.jpg,AMSA03.jpg,AMSA01.jpg,AMNE11.jpg,AMNE11.jpg,MN,1,num_4,16,num_4,0.800108794821,,,2017_May_31_1117,60.0037914303,FEMA4ImagesEEG,001,200364,
AFNE01.JPG,AFNE01.JPG,AFNE01.JPG,AFNE01.JPG,AFNE01.JPG,AFNE01.JPG,,,,,0,4,4,9,,,,,,,,,,,,,,,,,,,AMSA01.jpg,AMSA07.jpg,AMNE05.jpg,AMNE15.jpg,AMSA01.jpg,MS,2,num_8,16,num_8,1.03344996506,,,2017_May_31_1117,60.0037914303,FEMA4ImagesEEG,001,200364,
AFNE01.JPG,AFNE01.JPG,AFNE01.JPG,AFNE01.JPG,AFNE01.JPG,AFNE01.JPG,,,,,0,5,5,3,,,,,,,,,,,,,,,,,,,AMNE03.jpg,AMSA02.jpg,AMNE09.jpg,AMSA17.jpg,AMSA17.jpg,MS,2,num_4,16,num_4,0.634068159154,,,2017_May_31_1117,60.0037914303,FEMA4ImagesEEG,001,200364,
AFNE01.JPG,AFNE01.JPG,AFNE01.JPG,AFNE01.JPG,AFNE01.JPG,AFNE01.JPG,,,,,0,6,6,1,,,,,,,,,,,,,,,,,,,AMNE10.jpg,AMSA11.jpg,AMNE06.jpg,AMSA10.jpg,AMNE06.jpg,MN,1,num_2,16,num_2,1.11671404517,,,2017_May_31_1117,60.0037914303,FEMA4ImagesEEG,001,200364,
AFNE01.JPG,AFNE01.JPG,AFNE01.JPG,AFNE01.JPG,AFNE01.JPG,AFNE01.JPG,,,,,0,7,7,8,,,,,,,,,,,,,,,,,,,AMNE10.jpg,AMNE05.jpg,AMSA20.jpg,AMSA19.jpg,AMNE10.jpg,MN,1,num_8,32,num_6,0.76683074655,,,2017_May_31_1117,60.0037914303,FEMA4ImagesEEG,001,200364,
AFNE01.JPG,AFNE01.JPG,AFNE01.JPG,AFNE01.JPG,AFNE01.JPG,AFNE01.JPG,,,,,0,8,8,2,,,,,,,,,,,,,,,,,,,AMSA08.jpg,AMNE20.jpg,AMNE10.jpg,AMSA14.jpg,AMNE20.jpg,MN,1,num_6,32,num_2,0.866797036724,,,2017_May_31_1117,60.0037914303,FEMA4ImagesEEG,001,200364,
AFNE01.JPG,AFNE01.JPG,AFNE01.JPG,AFNE01.JPG,AFNE01.JPG,AFNE01.JPG,,,,,0,9,9,7,,,,,,,,,,,,,,,,,,,AMNE07.jpg,AMSA05.jpg,AMSA20.jpg,AMNE01.jpg,AMNE07.jpg,MN,1,num_8,32,num_4,0.416798945051,,,2017_May_31_1117,60.0037914303,FEMA4ImagesEEG,001,200364,
AFNE01.JPG,AFNE01.JPG,AFNE01.JPG,AFNE01.JPG,AFNE01.JPG,AFNE01.JPG,,,,,1,0,10,0,,,,,,,,,,,,,,,,,,,AMNE07.jpg,AMNE01.jpg,AMSA12.jpg,AMSA19.jpg,AMNE01.jpg,MN,1,num_6,32,num_2,0.48347852705,,,2017_May_31_1117,60.0037914303,FEMA4ImagesEEG,001,200364,
AFNE01.JPG,AFNE01.JPG,AFNE01.JPG,AFNE01.JPG,AFNE01.JPG,AFNE01.JPG,,,,,1,1,11,2,,,,,,,,,,,,,,,,,,,AMNE07.jpg,AMSA05.jpg,AMNE13.jpg,AMSA07.jpg,AMNE07.jpg,MN,1,num_8,32,num_6,1.13339027553,,,2017_May_31_1117,60.0037914303,FEMA4ImagesEEG,001,200364,
AFNE01.JPG,AFNE01.JPG,AFNE01.JPG,AFNE01.JPG,AFNE01.JPG,AFNE01.JPG,,,,,1,2,12,9,,,,,,,,,,,,,,,,,,,AMNE19.jpg,AMSA15.jpg,AMNE10.jpg,AMSA07.jpg,AMNE19.jpg,MN,1,num_8,32,num_4,2.61663209624,,,2017_May_31_1117,60.0037914303,FEMA4ImagesEEG,001,200364,
AFNE01.JPG,AFNE01.JPG,AFNE01.JPG,AFNE01.JPG,AFNE01.JPG,AFNE01.JPG,,,,,1,3,13,5,,,,,,,,,,,,,,,,,,,AMNE13.jpg,AMNE15.jpg,AMSA20.jpg,AMSA15.jpg,AMNE13.jpg,MN,1,num_8,32,num_4,0.666764385533,,,2017_May_31_1117,60.0037914303,FEMA4ImagesEEG,001,200364,
AFNE01.JPG,AFNE01.JPG,AFNE01.JPG,AFNE01.JPG,AFNE01.JPG,AFNE01.JPG,,,,,1,4,14,7,,,,,,,,,,,,,,,,,,,AMNE07.jpg,AMSA10.jpg,AMNE11.jpg,AMSA05.jpg,AMNE11.jpg,MN,1,num_2,32,num_8,0.267026878893,,,2017_May_31_1117,60.0037914303,FEMA4ImagesEEG,001,200364,
AFNE01.JPG,AFNE01.JPG,AFNE01.JPG,AFNE01.JPG,AFNE01.JPG,AFNE01.JPG,,,,,1,5,15,3,,,,,,,,,,,,,,,,,,,AMNE07.jpg,AMNE18.jpg,AMSA08.jpg,AMSA01.jpg,AMNE18.jpg,MN,1,num_6,32,num_8,0.600122971693,,,2017_May_31_1117,60.0037914303,FEMA4ImagesEEG,001,200364,
AFNE01.JPG,AFNE01.JPG,AFNE01.JPG,AFNE01.JPG,AFNE01.JPG,AFNE01.JPG,,,,,1,6,16,8,,,,,,,,,,,,,,,,,,,AMNE17.jpg,AMSA10.jpg,AMSA06.jpg,AMNE13.jpg,AMNE13.jpg,MN,1,num_4,32,num_8,0.333490282064,,,2017_May_31_1117,60.0037914303,FEMA4ImagesEEG,001,200364,
AFNE01.JPG,AFNE01.JPG,AFNE01.JPG,AFNE01.JPG,AFNE01.JPG,AFNE01.JPG,,,,,1,7,17,1,,,,,,,,,,,,,,,,,,,AMSA20.jpg,AMNE02.jpg,AMNE16.jpg,AMSA05.jpg,AMNE16.jpg,MN,1,num_2,32,num_4,0.517107785679,,,2017_May_31_1117,60.0037914303,FEMA4ImagesEEG,001,200364,
AFNE01.JPG,AFNE01.JPG,AFNE01.JPG,AFNE01.JPG,AFNE01.JPG,AFNE01.JPG,,,,,1,8,18,4,,,,,,,,,,,,,,,,,,,AMSA17.jpg,AMNE07.jpg,AMSA03.jpg,AMNE02.jpg,AMSA17.jpg,MS,2,num_8,16,num_8,0.816760648973,,,2017_May_31_1117,60.0037914303,FEMA4ImagesEEG,001,200364,
AFNE01.JPG,AFNE01.JPG,AFNE01.JPG,AFNE01.JPG,AFNE01.JPG,AFNE01.JPG,,,,,1,9,19,6,,,,,,,,,,,,,,,,,,,AMSA12.jpg,AMSA20.jpg,AMNE17.jpg,AMNE04.jpg,AMSA12.jpg,MS,2,num_8,32,num_4,0.666715312283,,,2017_May_31_1117,60.0037914303,FEMA4ImagesEEG,001,200364,
AFNE01.JPG,AFNE01.JPG,AFNE01.JPG,AFNE01.JPG,AFNE01.JPG,AFNE01.JPG,,,,,2,0,20,3,,,,,,,,,,,,,,,,,,,AMNE03.jpg,AMNE12.jpg,AMSA13.jpg,AMSA12.jpg,AMSA13.jpg,MS,2,num_2,16,num_2,0.600114632631,,,2017_May_31_1117,60.0037914303,FEMA4ImagesEEG,001,200364,
AFNE01.JPG,AFNE01.JPG,AFNE01.JPG,AFNE01.JPG,AFNE01.JPG,AFNE01.JPG,,,,,2,1,21,5,,,,,,,,,,,,,,,,,,,AMNE15.jpg,AMSA10.jpg,AMNE13.jpg,AMSA13.jpg,AMSA10.jpg,MS,2,num_6,32,num_8,0.966770704137,,,2017_May_31_1117,60.0037914303,FEMA4ImagesEEG,001,200364,
AFNE01.JPG,AFNE01.JPG,AFNE01.JPG,AFNE01.JPG,AFNE01.JPG,AFNE01.JPG,,,,,2,2,22,9,,,,,,,,,,,,,,,,,,,AMSA17.jpg,AMNE16.jpg,AMNE07.jpg,AMSA12.jpg,AMNE07.jpg,MN,1,num_2,32,num_4,0.600144782104,,,2017_May_31_1117,60.0037914303,FEMA4ImagesEEG,001,200364,
AFNE01.JPG,AFNE01.JPG,AFNE01.JPG,AFNE01.JPG,AFNE01.JPG,AFNE01.JPG,,,,,2,3,23,6,,,,,,,,,,,,,,,,,,,AMNE12.jpg,AMSA03.jpg,AMNE19.jpg,AMSA20.jpg,AMSA20.jpg,MS,2,num_4,32,num_8,0.850119844545,,,2017_May_31_1117,60.0037914303,FEMA4ImagesEEG,001,200364,
AFNE01.JPG,AFNE01.JPG,AFNE01.JPG,AFNE01.JPG,AFNE01.JPG,AFNE01.JPG,,,,,2,4,24,0,,,,,,,,,,,,,,,,,,,AMSA20.jpg,AMNE08.jpg,AMSA12.jpg,AMNE13.jpg,AMSA20.jpg,MS,2,num_8,16,num_8,0.516937793465,,,2017_May_31_1117,60.0037914303,FEMA4ImagesEEG,001,200364,
AFNE01.JPG,AFNE01.JPG,AFNE01.JPG,AFNE01.JPG,AFNE01.JPG,AFNE01.JPG,,,,,2,5,25,7,,,,,,,,,,,,,,,,,,,AMNE19.jpg,AMSA15.jpg,AMNE16.jpg,AMSA19.jpg,AMNE19.jpg,MN,1,num_8,16,num_8,0.333506960655,,,2017_May_31_1117,60.0037914303,FEMA4ImagesEEG,001,200364,
AFNE01.JPG,AFNE01.JPG,AFNE01.JPG,AFNE01.JPG,AFNE01.JPG,AFNE01.JPG,,,,,2,6,26,4,,,,,,,,,,,,,,,,,,,AMNE08.jpg,AMSA05.jpg,AMSA09.jpg,AMNE02.jpg,AMNE02.jpg,MN,1,num_4,32,num_6,0.650138511555,,,2017_May_31_1117,60.0037914303,FEMA4ImagesEEG,001,200364,
AFNE01.JPG,AFNE01.JPG,AFNE01.JPG,AFNE01.JPG,AFNE01.JPG,AFNE01.JPG,,,,,2,7,27,1,,,,,,,,,,,,,,,,,,,AMSA07.jpg,AMNE11.jpg,AMSA10.jpg,AMNE20.jpg,AMSA10.jpg,MS,2,num_2,16,num_2,1.05015538237,,,2017_May_31_1117,60.0037914303,FEMA4ImagesEEG,001,200364,
AFNE01.JPG,AFNE01.JPG,AFNE01.JPG,AFNE01.JPG,AFNE01.JPG,AFNE01.JPG,,,,,2,8,28,2,,,,,,,,,,,,,,,,,,,AMSA05.jpg,AMSA03.jpg,AMNE16.jpg,AMNE18.jpg,AMNE18.jpg,MN,1,num_4,32,num_8,0.833440727787,,,2017_May_31_1117,60.0037914303,FEMA4ImagesEEG,001,200364,
AFNE01.JPG,AFNE01.JPG,AFNE01.JPG,AFNE01.JPG,AFNE01.JPG,AFNE01.JPG,,,,,2,9,29,8,,,,,,,,,,,,,,,,,,,AMSA13.jpg,AMNE03.jpg,AMNE17.jpg,AMSA06.jpg,AMSA13.jpg,MS,2,num_8,16,num_8,1.03360392037,,,2017_May_31_1117,60.0037914303,FEMA4ImagesEEG,001,200364,
AFNE01.JPG,AFNE01.JPG,AFNE01.JPG,AFNE01.JPG,AFNE01.JPG,AFNE01.JPG,,,,,3,0,30,6,,,,,,,,,,,,,,,,,,,AMSA13.jpg,AMNE13.jpg,AMNE12.jpg,AMSA11.jpg,AMNE12.jpg,MN,1,num_2,32,num_8,0.800129001494,,,2017_May_31_1117,60.0037914303,FEMA4ImagesEEG,001,200364,
AFNE01.JPG,AFNE01.JPG,AFNE01.JPG,AFNE01.JPG,AFNE01.JPG,AFNE01.JPG,,,,,3,1,31,2,,,,,,,,,,,,,,,,,,,AMSA01.jpg,AMNE03.jpg,AMNE08.jpg,AMSA18.jpg,AMNE08.jpg,MN,1,num_2,32,num_8,0.433545417152,,,2017_May_31_1117,60.0037914303,FEMA4ImagesEEG,001,200364,
AFNE01.JPG,AFNE01.JPG,AFNE01.JPG,AFNE01.JPG,AFNE01.JPG,AFNE01.JPG,,,,,3,2,32,8,,,,,,,,,,,,,,,,,,,AMNE18.jpg,AMSA02.jpg,AMSA11.jpg,AMNE03.jpg,AMNE03.jpg,MN,1,num_4,32,num_6,1.10025335243,,,2017_May_31_1117,60.0037914303,FEMA4ImagesEEG,001,200364,
AFNE01.JPG,AFNE01.JPG,AFNE01.JPG,AFNE01.JPG,AFNE01.JPG,AFNE01.JPG,,,,,3,3,33,4,,,,,,,,,,,,,,,,,,,AMSA17.jpg,AMNE05.jpg,AMSA05.jpg,AMNE07.jpg,AMSA17.jpg,MS,2,num_8,32,num_6,0.250190599589,,,2017_May_31_1117,60.0037914303,FEMA4ImagesEEG,001,200364,
AFNE01.JPG,AFNE01.JPG,AFNE01.JPG,AFNE01.JPG,AFNE01.JPG,AFNE01.JPG,,,,,3,4,34,1,,,,,,,,,,,,,,,,,,,AMNE19.jpg,AMSA15.jpg,AMSA04.jpg,AMNE03.jpg,AMSA04.jpg,MS,2,num_2,32,num_6,0.383464767132,,,2017_May_31_1117,60.0037914303,FEMA4ImagesEEG,001,200364,
AFNE01.JPG,AFNE01.JPG,AFNE01.JPG,AFNE01.JPG,AFNE01.JPG,AFNE01.JPG,,,,,3,5,35,0,,,,,,,,,,,,,,,,,,,AMNE01.jpg,AMSA10.jpg,AMNE16.jpg,AMSA07.jpg,AMSA07.jpg,MS,2,num_4,32,num_8,1.45007025823,,,2017_May_31_1117,60.0037914303,FEMA4ImagesEEG,001,200364,
AFNE01.JPG,AFNE01.JPG,AFNE01.JPG,AFNE01.JPG,AFNE01.JPG,AFNE01.JPG,,,,,3,6,36,3,,,,,,,,,,,,,,,,,,,AMNE07.jpg,AMSA18.jpg,AMNE20.jpg,AMSA13.jpg,AMNE20.jpg,MN,1,num_2,32,num_8,1.03349871747,,,2017_May_31_1117,60.0037914303,FEMA4ImagesEEG,001,200364,
AFNE01.JPG,AFNE01.JPG,AFNE01.JPG,AFNE01.JPG,AFNE01.JPG,AFNE01.JPG,,,,,3,7,37,7,,,,,,,,,,,,,,,,,,,AMSA19.jpg,AMSA05.jpg,AMNE14.jpg,AMNE06.jpg,AMNE14.jpg,MN,1,num_2,32,num_8,1.49983946979,,,2017_May_31_1117,60.0037914303,FEMA4ImagesEEG,001,200364,
AFNE01.JPG,AFNE01.JPG,AFNE01.JPG,AFNE01.JPG,AFNE01.JPG,AFNE01.JPG,,,,,3,8,38,9,,,,,,,,,,,,,,,,,,,AMNE08.jpg,AMSA05.jpg,AMNE12.jpg,AMSA13.jpg,AMNE12.jpg,MN,1,num_2,32,num_8,2.41650610953,,,2017_May_31_1117,60.0037914303,FEMA4ImagesEEG,001,200364,
AFNE01.JPG,AFNE01.JPG,AFNE01.JPG,AFNE01.JPG,AFNE01.JPG,AFNE01.JPG,,,,,3,9,39,5,,,,,,,,,,,,,,,,,,,AMSA13.jpg,AMNE18.jpg,AMNE07.jpg,AMSA03.jpg,AMSA03.jpg,MS,2,num_4,32,num_6,1.88325708802,,,2017_May_31_1117,60.0037914303,FEMA4ImagesEEG,001,200364,
AFNE01.JPG,AFNE01.JPG,AFNE01.JPG,AFNE01.JPG,AFNE01.JPG,AFNE01.JPG,,,,,4,0,40,3,,,,,,,,,,,,,,,,,,,AMNE14.jpg,AMNE11.jpg,AMSA12.jpg,AMSA03.jpg,AMSA03.jpg,MS,2,num_4,16,num_4,0.450008355314,,,2017_May_31_1117,60.0037914303,FEMA4ImagesEEG,001,200364,
AFNE01.JPG,AFNE01.JPG,AFNE01.JPG,AFNE01.JPG,AFNE01.JPG,AFNE01.JPG,,,,,4,1,41,9,,,,,,,,,,,,,,,,,,,AMSA14.jpg,AMSA17.jpg,AMNE18.jpg,AMNE05.jpg,AMNE18.jpg,MN,1,num_2,32,num_8,0.3335672596,,,2017_May_31_1117,60.0037914303,FEMA4ImagesEEG,001,200364,
AFNE01.JPG,AFNE01.JPG,AFNE01.JPG,AFNE01.JPG,AFNE01.JPG,AFNE01.JPG,,,,,4,2,42,6,,,,,,,,,,,,,,,,,,,AMNE17.jpg,AMSA09.jpg,AMSA07.jpg,AMNE16.jpg,AMSA07.jpg,MS,2,num_2,32,num_6,0.366826063721,,,2017_May_31_1117,60.0037914303,FEMA4ImagesEEG,001,200364,
AFNE01.JPG,AFNE01.JPG,AFNE01.JPG,AFNE01.JPG,AFNE01.JPG,AFNE01.JPG,,,,,4,3,43,1,,,,,,,,,,,,,,,,,,,AMNE01.jpg,AMNE02.jpg,AMSA13.jpg,AMSA01.jpg,AMNE02.jpg,MN,1,num_6,32,num_4,0.833527648356,,,2017_May_31_1117,60.0037914303,FEMA4ImagesEEG,001,200364,
AFNE01.JPG,AFNE01.JPG,AFNE01.JPG,AFNE01.JPG,AFNE01.JPG,AFNE01.JPG,,,,,4,4,44,4,,,,,,,,,,,,,,,,,,,AMNE05.jpg,AMSA06.jpg,AMNE13.jpg,AMSA03.jpg,AMNE05.jpg,MN,1,num_8,32,num_2,0.733471230138,,,2017_May_31_1117,60.0037914303,FEMA4ImagesEEG,001,200364,
AFNE01.JPG,AFNE01.JPG,AFNE01.JPG,AFNE01.JPG,AFNE01.JPG,AFNE01.JPG,,,,,4,5,45,0,,,,,,,,,,,,,,,,,,,AMNE16.jpg,AMSA03.jpg,AMSA13.jpg,AMNE18.jpg,AMNE18.jpg,MN,1,num_4,32,num_8,0.91672533541,,,2017_May_31_1117,60.0037914303,FEMA4ImagesEEG,001,200364,
AFNE01.JPG,AFNE01.JPG,AFNE01.JPG,AFNE01.JPG,AFNE01.JPG,AFNE01.JPG,,,,,4,6,46,8,,,,,,,,,,,,,,,,,,,AMSA09.jpg,AMNE12.jpg,AMNE09.jpg,AMSA11.jpg,AMNE12.jpg,MN,1,num_6,32,num_8,0.65017186827,,,2017_May_31_1117,60.0037914303,FEMA4ImagesEEG,001,200364,
AFNE01.JPG,AFNE01.JPG,AFNE01.JPG,AFNE01.JPG,AFNE01.JPG,AFNE01.JPG,,,,,4,7,47,2,,,,,,,,,,,,,,,,,,,AMNE05.jpg,AMSA02.jpg,AMNE02.jpg,AMSA16.jpg,AMNE02.jpg,MN,1,num_2,16,num_2,1.6834438229,,,2017_May_31_1117,60.0037914303,FEMA4ImagesEEG,001,200364,
AFNE01.JPG,AFNE01.JPG,AFNE01.JPG,AFNE01.JPG,AFNE01.JPG,AFNE01.JPG,,,,,4,8,48,7,,,,,,,,,,,,,,,,,,,AMSA01.jpg,AMSA10.jpg,AMNE02.jpg,AMNE15.jpg,AMNE02.jpg,MN,1,num_2,32,num_6,0.433551832102,,,2017_May_31_1117,60.0037914303,FEMA4ImagesEEG,001,200364,
AFNE01.JPG,AFNE01.JPG,AFNE01.JPG,AFNE01.JPG,AFNE01.JPG,AFNE01.JPG,,,,,4,9,49,5,,,,,,,,,,,,,,,,,,,AMNE13.jpg,AMSA13.jpg,AMNE12.jpg,AMSA02.jpg,AMNE13.jpg,MN,1,num_8,48,None,,,,2017_May_31_1117,60.0037914303,FEMA4ImagesEEG,001,200364,
AFNE01.JPG,AFNE01.JPG,AFNE01.JPG,AFNE01.JPG,AFNE01.JPG,AFNE01.JPG,,,,,5,0,50,3,,,,,,,,,,,,,,,,,,,AMSA10.jpg,AMNE05.jpg,AMSA13.jpg,AMNE07.jpg,AMNE07.jpg,MN,1,num_4,32,num_6,0.383476313902,,,2017_May_31_1117,60.0037914303,FEMA4ImagesEEG,001,200364,
AFNE01.JPG,AFNE01.JPG,AFNE01.JPG,AFNE01.JPG,AFNE01.JPG,AFNE01.JPG,,,,,5,1,51,8,,,,,,,,,,,,,,,,,,,AMNE02.jpg,AMNE12.jpg,AMSA06.jpg,AMSA14.jpg,AMNE02.jpg,MN,1,num_8,32,num_6,0.533297132468,,,2017_May_31_1117,60.0037914303,FEMA4ImagesEEG,001,200364,
AFNE01.JPG,AFNE01.JPG,AFNE01.JPG,AFNE01.JPG,AFNE01.JPG,AFNE01.JPG,,,,,5,2,52,2,,,,,,,,,,,,,,,,,,,AMSA17.jpg,AMNE19.jpg,AMSA18.jpg,AMNE15.jpg,AMSA17.jpg,MS,2,num_8,32,num_4,0.266789210495,,,2017_May_31_1117,60.0037914303,FEMA4ImagesEEG,001,200364,
AFNE01.JPG,AFNE01.JPG,AFNE01.JPG,AFNE01.JPG,AFNE01.JPG,AFNE01.JPG,,,,,5,3,53,9,,,,,,,,,,,,,,,,,,,AMSA06.jpg,AMSA19.jpg,AMNE08.jpg,AMNE12.jpg,AMSA19.jpg,MS,2,num_6,32,num_4,0.500142568955,,,2017_May_31_1117,60.0037914303,FEMA4ImagesEEG,001,200364,
AFNE01.JPG,AFNE01.JPG,AFNE01.JPG,AFNE01.JPG,AFNE01.JPG,AFNE01.JPG,,,,,5,4,54,4,,,,,,,,,,,,,,,,,,,AMNE12.jpg,AMNE15.jpg,AMSA14.jpg,AMSA11.jpg,AMNE12.jpg,MN,1,num_8,32,num_6,0.666892039822,,,2017_May_31_1117,60.0037914303,FEMA4ImagesEEG,001,200364,
AFNE01.JPG,AFNE01.JPG,AFNE01.JPG,AFNE01.JPG,AFNE01.JPG,AFNE01.JPG,,,,,5,5,55,5,,,,,,,,,,,,,,,,,,,AMNE12.jpg,AMSA13.jpg,AMNE05.jpg,AMSA14.jpg,AMSA13.jpg,MS,2,num_6,32,num_8,1.01670958707,,,2017_May_31_1117,60.0037914303,FEMA4ImagesEEG,001,200364,
AFNE01.JPG,AFNE01.JPG,AFNE01.JPG,AFNE01.JPG,AFNE01.JPG,AFNE01.JPG,,,,,5,6,56,1,,,,,,,,,,,,,,,,,,,AMSA03.jpg,AMNE12.jpg,AMNE15.jpg,AMSA08.jpg,AMNE15.jpg,MN,1,num_2,16,num_2,0.81680362788,,,2017_May_31_1117,60.0037914303,FEMA4ImagesEEG,001,200364,
AFNE01.JPG,AFNE01.JPG,AFNE01.JPG,AFNE01.JPG,AFNE01.JPG,AFNE01.JPG,,,,,5,7,57,6,,,,,,,,,,,,,,,,,,,AMNE11.jpg,AMSA11.jpg,AMSA02.jpg,AMNE12.jpg,AMNE11.jpg,MN,1,num_8,32,num_4,0.666771441698,,,2017_May_31_1117,60.0037914303,FEMA4ImagesEEG,001,200364,
AFNE01.JPG,AFNE01.JPG,AFNE01.JPG,AFNE01.JPG,AFNE01.JPG,AFNE01.JPG,,,,,5,8,58,0,,,,,,,,,,,,,,,,,,,AMNE05.jpg,AMNE09.jpg,AMSA12.jpg,AMSA16.jpg,AMSA16.jpg,MS,2,num_4,32,num_2,0.316767544718,,,2017_May_31_1117,60.0037914303,FEMA4ImagesEEG,001,200364,
AFNE01.JPG,AFNE01.JPG,AFNE01.JPG,AFNE01.JPG,AFNE01.JPG,AFNE01.JPG,,,,,5,9,59,7,,,,,,,,,,,,,,,,,,,AMSA16.jpg,AMNE06.jpg,AMNE16.jpg,AMSA20.jpg,AMNE06.jpg,MN,1,num_6,32,num_2,0.533183269668,,,2017_May_31_1117,60.0037914303,FEMA4ImagesEEG,001,200364,
,,,,,,,,,,,,,,,,,,,,,,,,,,,,,,,,,,,,,,,,,,,space,4.93321874365,2017_May_31_1117,60.0037914303,FEMA4ImagesEEG,001,200364,
AFNE01.JPG,AFNE01.JPG,AFNE01.JPG,AFNE01.JPG,AFNE01.JPG,AFNE01.JPG,,,,,,,,,0,0,0,1,,,,,,,,,,,,,,,AFNE01.jpg,AFNE12.jpg,AFSA07.jpg,AFSA18.jpg,AFNE01.jpg,FN,3,num_8,32,num_6,1.68337775045,,,2017_May_31_1117,60.0037914303,FEMA4ImagesEEG,001,200364,
AFNE01.JPG,AFNE01.JPG,AFNE01.JPG,AFNE01.JPG,AFNE01.JPG,AFNE01.JPG,,,,,,,,,0,1,1,2,,,,,,,,,,,,,,,AFNE03.jpg,AFNE08.jpg,AFSA09.jpg,AFSA07.jpg,AFNE08.jpg,FN,3,num_6,16,num_6,0.65012022946,,,2017_May_31_1117,60.0037914303,FEMA4ImagesEEG,001,200364,
AFNE01.JPG,AFNE01.JPG,AFNE01.JPG,AFNE01.JPG,AFNE01.JPG,AFNE01.JPG,,,,,,,,,0,2,2,6,,,,,,,,,,,,,,,AFSA08.jpg,AFNE01.jpg,AFSA12.jpg,AFNE08.jpg,AFSA08.jpg,FS,4,num_8,32,num_6,0.366819648771,,,2017_May_31_1117,60.0037914303,FEMA4ImagesEEG,001,200364,
AFNE01.JPG,AFNE01.JPG,AFNE01.JPG,AFNE01.JPG,AFNE01.JPG,AFNE01.JPG,,,,,,,,,0,3,3,7,,,,,,,,,,,,,,,AFSA20.jpg,AFNE10.jpg,AFNE12.jpg,AFSA12.jpg,AFSA20.jpg,FS,4,num_8,32,num_6,0.516966660041,,,2017_May_31_1117,60.0037914303,FEMA4ImagesEEG,001,200364,
AFNE01.JPG,AFNE01.JPG,AFNE01.JPG,AFNE01.JPG,AFNE01.JPG,AFNE01.JPG,,,,,,,,,0,4,4,9,,,,,,,,,,,,,,,AFSA07.jpg,AFSA13.jpg,AFNE18.jpg,AFNE07.jpg,AFNE07.jpg,FN,3,num_4,16,num_4,0.383470219793,,,2017_May_31_1117,60.0037914303,FEMA4ImagesEEG,001,200364,
AFNE01.JPG,AFNE01.JPG,AFNE01.JPG,AFNE01.JPG,AFNE01.JPG,AFNE01.JPG,,,,,,,,,0,5,5,5,,,,,,,,,,,,,,,AFNE16.jpg,AFSA03.jpg,AFNE08.jpg,AFSA06.jpg,AFSA06.jpg,FS,4,num_4,32,num_8,0.866689588875,,,2017_May_31_1117,60.0037914303,FEMA4ImagesEEG,001,200364,
AFNE01.JPG,AFNE01.JPG,AFNE01.JPG,AFNE01.JPG,AFNE01.JPG,AFNE01.JPG,,,,,,,,,0,6,6,8,,,,,,,,,,,,,,,AFNE11.jpg,AFNE16.jpg,AFSA01.jpg,AFSA07.jpg,AFSA01.jpg,FS,4,num_2,32,num_8,0.700154051417,,,2017_May_31_1117,60.0037914303,FEMA4ImagesEEG,001,200364,
AFNE01.JPG,AFNE01.JPG,AFNE01.JPG,AFNE01.JPG,AFNE01.JPG,AFNE01.JPG,,,,,,,,,0,7,7,4,,,,,,,,,,,,,,,AFSA13.jpg,AFSA12.jpg,AFNE03.jpg,AFNE04.jpg,AFNE03.jpg,FN,3,num_2,32,num_6,0.68362055067,,,2017_May_31_1117,60.0037914303,FEMA4ImagesEEG,001,200364,
AFNE01.JPG,AFNE01.JPG,AFNE01.JPG,AFNE01.JPG,AFNE01.JPG,AFNE01.JPG,,,,,,,,,0,8,8,3,,,,,,,,,,,,,,,AFSA20.jpg,AFSA08.jpg,AFNE15.jpg,AFNE12.jpg,AFSA20.jpg,FS,4,num_8,32,num_6,0.266862659948,,,2017_May_31_1117,60.0037914303,FEMA4ImagesEEG,001,200364,
AFNE01.JPG,AFNE01.JPG,AFNE01.JPG,AFNE01.JPG,AFNE01.JPG,AFNE01.JPG,,,,,,,,,0,9,9,0,,,,,,,,,,,,,,,AFNE07.jpg,AFSA12.jpg,AFNE01.jpg,AFSA14.jpg,AFNE07.jpg,FN,3,num_8,32,num_6,0.483368834015,,,2017_May_31_1117,60.0037914303,FEMA4ImagesEEG,001,200364,
AFNE01.JPG,AFNE01.JPG,AFNE01.JPG,AFNE01.JPG,AFNE01.JPG,AFNE01.JPG,,,,,,,,,1,0,10,7,,,,,,,,,,,,,,,AFNE20.jpg,AFSA20.jpg,AFSA14.jpg,AFNE15.jpg,AFNE15.jpg,FN,3,num_4,32,num_6,0.983522307826,,,2017_May_31_1117,60.0037914303,FEMA4ImagesEEG,001,200364,
AFNE01.JPG,AFNE01.JPG,AFNE01.JPG,AFNE01.JPG,AFNE01.JPG,AFNE01.JPG,,,,,,,,,1,1,11,6,,,,,,,,,,,,,,,AFSA07.jpg,AFNE19.jpg,AFNE13.jpg,AFSA20.jpg,AFNE19.jpg,FN,3,num_6,16,num_6,1.0501496091,,,2017_May_31_1117,60.0037914303,FEMA4ImagesEEG,001,200364,
AFNE01.JPG,AFNE01.JPG,AFNE01.JPG,AFNE01.JPG,AFNE01.JPG,AFNE01.JPG,,,,,,,,,1,2,12,9,,,,,,,,,,,,,,,AFNE07.jpg,AFNE19.jpg,AFSA02.jpg,AFSA16.jpg,AFNE19.jpg,FN,3,num_6,16,num_6,0.883603807772,,,2017_May_31_1117,60.0037914303,FEMA4ImagesEEG,001,200364,
AFNE01.JPG,AFNE01.JPG,AFNE01.JPG,AFNE01.JPG,AFNE01.JPG,AFNE01.JPG,,,,,,,,,1,3,13,0,,,,,,,,,,,,,,,AFNE10.jpg,AFNE11.jpg,AFSA14.jpg,AFSA18.jpg,AFSA18.jpg,FS,4,num_4,32,num_6,0.366820931667,,,2017_May_31_1117,60.0037914303,FEMA4ImagesEEG,001,200364,
AFNE01.JPG,AFNE01.JPG,AFNE01.JPG,AFNE01.JPG,AFNE01.JPG,AFNE01.JPG,,,,,,,,,1,4,14,3,,,,,,,,,,,,,,,AFSA11.jpg,AFSA18.jpg,AFNE17.jpg,AFNE16.jpg,AFNE17.jpg,FN,3,num_2,32,num_6,0.666731028585,,,2017_May_31_1117,60.0037914303,FEMA4ImagesEEG,001,200364,
AFNE01.JPG,AFNE01.JPG,AFNE01.JPG,AFNE01.JPG,AFNE01.JPG,AFNE01.JPG,,,,,,,,,1,5,15,2,,,,,,,,,,,,,,,AFSA16.jpg,AFNE12.jpg,AFNE14.jpg,AFSA14.jpg,AFSA14.jpg,FS,4,num_4,16,num_4,1.15009986237,,,2017_May_31_1117,60.0037914303,FEMA4ImagesEEG,001,200364,
AFNE01.JPG,AFNE01.JPG,AFNE01.JPG,AFNE01.JPG,AFNE01.JPG,AFNE01.JPG,,,,,,,,,1,6,16,4,,,,,,,,,,,,,,,AFNE19.jpg,AFSA18.jpg,AFNE20.jpg,AFSA12.jpg,AFNE20.jpg,FN,3,num_2,16,num_2,0.333679198055,,,2017_May_31_1117,60.0037914303,FEMA4ImagesEEG,001,200364,
AFNE01.JPG,AFNE01.JPG,AFNE01.JPG,AFNE01.JPG,AFNE01.JPG,AFNE01.JPG,,,,,,,,,1,7,17,1,,,,,,,,,,,,,,,AFSA20.jpg,AFNE20.jpg,AFNE11.jpg,AFSA06.jpg,AFSA06.jpg,FS,4,num_4,32,num_2,0.267150684493,,,2017_May_31_1117,60.0037914303,FEMA4ImagesEEG,001,200364,
AFNE01.JPG,AFNE01.JPG,AFNE01.JPG,AFNE01.JPG,AFNE01.JPG,AFNE01.JPG,,,,,,,,,1,8,18,8,,,,,,,,,,,,,,,AFNE02.jpg,AFSA06.jpg,AFSA03.jpg,AFNE01.jpg,AFSA06.jpg,FS,4,num_6,16,num_6,1.45008244622,,,2017_May_31_1117,60.0037914303,FEMA4ImagesEEG,001,200364,
AFNE01.JPG,AFNE01.JPG,AFNE01.JPG,AFNE01.JPG,AFNE01.JPG,AFNE01.JPG,,,,,,,,,1,9,19,5,,,,,,,,,,,,,,,AFSA01.jpg,AFSA06.jpg,AFNE20.jpg,AFNE08.jpg,AFNE20.jpg,FN,3,num_2,16,num_2,0.733458721312,,,2017_May_31_1117,60.0037914303,FEMA4ImagesEEG,001,200364,
AFNE01.JPG,AFNE01.JPG,AFNE01.JPG,AFNE01.JPG,AFNE01.JPG,AFNE01.JPG,,,,,,,,,2,0,20,2,,,,,,,,,,,,,,,AFSA09.jpg,AFNE11.jpg,AFNE14.jpg,AFSA04.jpg,AFSA04.jpg,FS,4,num_4,16,num_4,0.76694845804,,,2017_May_31_1117,60.0037914303,FEMA4ImagesEEG,001,200364,
AFNE01.JPG,AFNE01.JPG,AFNE01.JPG,AFNE01.JPG,AFNE01.JPG,AFNE01.JPG,,,,,,,,,2,1,21,7,,,,,,,,,,,,,,,AFNE13.jpg,AFSA06.jpg,AFNE14.jpg,AFSA12.jpg,AFNE13.jpg,FN,3,num_8,32,num_2,0.850076865172,,,2017_May_31_1117,60.0037914303,FEMA4ImagesEEG,001,200364,
AFNE01.JPG,AFNE01.JPG,AFNE01.JPG,AFNE01.JPG,AFNE01.JPG,AFNE01.JPG,,,,,,,,,2,2,22,1,,,,,,,,,,,,,,,AFSA07.jpg,AFNE02.jpg,AFNE04.jpg,AFSA14.jpg,AFSA14.jpg,FS,4,num_4,32,num_6,0.416835830314,,,2017_May_31_1117,60.0037914303,FEMA4ImagesEEG,001,200364,
AFNE01.JPG,AFNE01.JPG,AFNE01.JPG,AFNE01.JPG,AFNE01.JPG,AFNE01.JPG,,,,,,,,,2,3,23,4,,,,,,,,,,,,,,,AFNE03.jpg,AFSA15.jpg,AFSA18.jpg,AFNE19.jpg,AFSA18.jpg,FS,4,num_2,32,num_8,0.700189012103,,,2017_May_31_1117,60.0037914303,FEMA4ImagesEEG,001,200364,
AFNE01.JPG,AFNE01.JPG,AFNE01.JPG,AFNE01.JPG,AFNE01.JPG,AFNE01.JPG,,,,,,,,,2,4,24,5,,,,,,,,,,,,,,,AFSA15.jpg,AFNE10.jpg,AFNE09.jpg,AFSA04.jpg,AFNE10.jpg,FN,3,num_6,16,num_6,0.433500834275,,,2017_May_31_1117,60.0037914303,FEMA4ImagesEEG,001,200364,
AFNE01.JPG,AFNE01.JPG,AFNE01.JPG,AFNE01.JPG,AFNE01.JPG,AFNE01.JPG,,,,,,,,,2,5,25,0,,,,,,,,,,,,,,,AFSA10.jpg,AFNE16.jpg,AFSA13.jpg,AFNE15.jpg,AFNE15.jpg,FN,3,num_4,16,num_4,0.467018796364,,,2017_May_31_1117,60.0037914303,FEMA4ImagesEEG,001,200364,
AFNE01.JPG,AFNE01.JPG,AFNE01.JPG,AFNE01.JPG,AFNE01.JPG,AFNE01.JPG,,,,,,,,,2,6,26,3,,,,,,,,,,,,,,,AFSA03.jpg,AFNE17.jpg,AFNE10.jpg,AFSA12.jpg,AFNE17.jpg,FN,3,num_6,32,num_8,0.800183206564,,,2017_May_31_1117,60.0037914303,FEMA4ImagesEEG,001,200364,
AFNE01.JPG,AFNE01.JPG,AFNE01.JPG,AFNE01.JPG,AFNE01.JPG,AFNE01.JPG,,,,,,,,,2,7,27,8,,,,,,,,,,,,,,,AFSA20.jpg,AFSA05.jpg,AFNE01.jpg,AFNE20.jpg,AFSA05.jpg,FS,4,num_6,16,num_6,0.550141750835,,,2017_May_31_1117,60.0037914303,FEMA4ImagesEEG,001,200364,
AFNE01.JPG,AFNE01.JPG,AFNE01.JPG,AFNE01.JPG,AFNE01.JPG,AFNE01.JPG,,,,,,,,,2,8,28,9,,,,,,,,,,,,,,,AFSA14.jpg,AFSA02.jpg,AFNE14.jpg,AFNE02.jpg,AFSA14.jpg,FS,4,num_8,16,num_8,1.14999209368,,,2017_May_31_1117,60.0037914303,FEMA4ImagesEEG,001,200364,
AFNE01.JPG,AFNE01.JPG,AFNE01.JPG,AFNE01.JPG,AFNE01.JPG,AFNE01.JPG,,,,,,,,,2,9,29,6,,,,,,,,,,,,,,,AFSA06.jpg,AFNE08.jpg,AFSA15.jpg,AFNE13.jpg,AFNE13.jpg,FN,3,num_4,32,num_8,0.600156649249,,,2017_May_31_1117,60.0037914303,FEMA4ImagesEEG,001,200364,
AFNE01.JPG,AFNE01.JPG,AFNE01.JPG,AFNE01.JPG,AFNE01.JPG,AFNE01.JPG,,,,,,,,,3,0,30,7,,,,,,,,,,,,,,,AFNE20.jpg,AFSA13.jpg,AFNE17.jpg,AFSA12.jpg,AFNE20.jpg,FN,3,num_8,16,num_8,0.400163128274,,,2017_May_31_1117,60.0037914303,FEMA4ImagesEEG,001,200364,
AFNE01.JPG,AFNE01.JPG,AFNE01.JPG,AFNE01.JPG,AFNE01.JPG,AFNE01.JPG,,,,,,,,,3,1,31,0,,,,,,,,,,,,,,,AFNE03.jpg,AFSA01.jpg,AFNE16.jpg,AFSA12.jpg,AFSA01.jpg,FS,4,num_6,32,num_4,2.16662342008,,,2017_May_31_1117,60.0037914303,FEMA4ImagesEEG,001,200364,
AFNE01.JPG,AFNE01.JPG,AFNE01.JPG,AFNE01.JPG,AFNE01.JPG,AFNE01.JPG,,,,,,,,,3,2,32,1,,,,,,,,,,,,,,,AFNE02.jpg,AFNE05.jpg,AFSA04.jpg,AFSA05.jpg,AFSA05.jpg,FS,4,num_4,16,num_4,0.383511595428,,,2017_May_31_1117,60.0037914303,FEMA4ImagesEEG,001,200364,
AFNE01.JPG,AFNE01.JPG,AFNE01.JPG,AFNE01.JPG,AFNE01.JPG,AFNE01.JPG,,,,,,,,,3,3,33,8,,,,,,,,,,,,,,,AFNE17.jpg,AFNE12.jpg,AFSA04.jpg,AFSA08.jpg,AFNE12.jpg,FN,3,num_6,16,num_6,1.0164661454,,,2017_May_31_1117,60.0037914303,FEMA4ImagesEEG,001,200364,
AFNE01.JPG,AFNE01.JPG,AFNE01.JPG,AFNE01.JPG,AFNE01.JPG,AFNE01.JPG,,,,,,,,,3,4,34,6,,,,,,,,,,,,,,,AFNE07.jpg,AFSA16.jpg,AFSA11.jpg,AFNE10.jpg,AFNE10.jpg,FN,3,num_4,32,num_8,0.733562641079,,,2017_May_31_1117,60.0037914303,FEMA4ImagesEEG,001,200364,
AFNE01.JPG,AFNE01.JPG,AFNE01.JPG,AFNE01.JPG,AFNE01.JPG,AFNE01.JPG,,,,,,,,,3,5,35,4,,,,,,,,,,,,,,,AFNE17.jpg,AFSA18.jpg,AFNE10.jpg,AFSA05.jpg,AFNE17.jpg,FN,3,num_8,16,num_8,0.76680412516,,,2017_May_31_1117,60.0037914303,FEMA4ImagesEEG,001,200364,
AFNE01.JPG,AFNE01.JPG,AFNE01.JPG,AFNE01.JPG,AFNE01.JPG,AFNE01.JPG,,,,,,,,,3,6,36,9,,,,,,,,,,,,,,,AFNE13.jpg,AFSA01.jpg,AFNE14.jpg,AFSA14.jpg,AFSA01.jpg,FS,4,num_6,32,num_4,0.633520976873,,,2017_May_31_1117,60.0037914303,FEMA4ImagesEEG,001,200364,
AFNE01.JPG,AFNE01.JPG,AFNE01.JPG,AFNE01.JPG,AFNE01.JPG,AFNE01.JPG,,,,,,,,,3,7,37,2,,,,,,,,,,,,,,,AFSA03.jpg,AFNE12.jpg,AFNE18.jpg,AFSA01.jpg,AFSA01.jpg,FS,4,num_4,32,num_8,0.850137485191,,,2017_May_31_1117,60.0037914303,FEMA4ImagesEEG,001,200364,
AFNE01.JPG,AFNE01.JPG,AFNE01.JPG,AFNE01.JPG,AFNE01.JPG,AFNE01.JPG,,,,,,,,,3,8,38,5,,,,,,,,,,,,,,,AFNE05.jpg,AFSA20.jpg,AFNE03.jpg,AFSA18.jpg,AFNE05.jpg,FN,3,num_8,32,num_6,0.100154885324,,,2017_May_31_1117,60.0037914303,FEMA4ImagesEEG,001,200364,
AFNE01.JPG,AFNE01.JPG,AFNE01.JPG,AFNE01.JPG,AFNE01.JPG,AFNE01.JPG,,,,,,,,,3,9,39,3,,,,,,,,,,,,,,,AFNE05.jpg,AFSA11.jpg,AFNE20.jpg,AFSA03.jpg,AFSA11.jpg,FS,4,num_6,32,num_8,1.11662840773,,,2017_May_31_1117,60.0037914303,FEMA4ImagesEEG,001,200364,
AFNE01.JPG,AFNE01.JPG,AFNE01.JPG,AFNE01.JPG,AFNE01.JPG,AFNE01.JPG,,,,,,,,,4,0,40,2,,,,,,,,,,,,,,,AFNE07.jpg,AFSA12.jpg,AFSA06.jpg,AFNE19.jpg,AFNE19.jpg,FN,3,num_4,16,num_4,0.750129819382,,,2017_May_31_1117,60.0037914303,FEMA4ImagesEEG,001,200364,
AFNE01.JPG,AFNE01.JPG,AFNE01.JPG,AFNE01.JPG,AFNE01.JPG,AFNE01.JPG,,,,,,,,,4,1,41,7,,,,,,,,,,,,,,,AFNE07.jpg,AFSA09.jpg,AFNE17.jpg,AFSA18.jpg,AFSA09.jpg,FS,4,num_6,16,num_6,0.86674090731,,,2017_May_31_1117,60.0037914303,FEMA4ImagesEEG,001,200364,
AFNE01.JPG,AFNE01.JPG,AFNE01.JPG,AFNE01.JPG,AFNE01.JPG,AFNE01.JPG,,,,,,,,,4,2,42,9,,,,,,,,,,,,,,,AFSA09.jpg,AFNE14.jpg,AFSA14.jpg,AFNE10.jpg,AFNE10.jpg,FN,3,num_4,16,num_4,0.583452194231,,,2017_May_31_1117,60.0037914303,FEMA4ImagesEEG,001,200364,
AFNE01.JPG,AFNE01.JPG,AFNE01.JPG,AFNE01.JPG,AFNE01.JPG,AFNE01.JPG,,,,,,,,,4,3,43,8,,,,,,,,,,,,,,,AFSA20.jpg,AFSA05.jpg,AFNE19.jpg,AFNE08.jpg,AFSA20.jpg,FS,4,num_8,32,num_6,0.98349344125,,,2017_May_31_1117,60.0037914303,FEMA4ImagesEEG,001,200364,
AFNE01.JPG,AFNE01.JPG,AFNE01.JPG,AFNE01.JPG,AFNE01.JPG,AFNE01.JPG,,,,,,,,,4,4,44,0,,,,,,,,,,,,,,,AFSA11.jpg,AFNE03.jpg,AFNE18.jpg,AFSA18.jpg,AFNE18.jpg,FN,3,num_2,16,num_2,1.10010196315,,,2017_May_31_1117,60.0037914303,FEMA4ImagesEEG,001,200364,
AFNE01.JPG,AFNE01.JPG,AFNE01.JPG,AFNE01.JPG,AFNE01.JPG,AFNE01.JPG,,,,,,,,,4,5,45,5,,,,,,,,,,,,,,,AFNE18.jpg,AFSA20.jpg,AFSA19.jpg,AFNE09.jpg,AFNE09.jpg,FN,3,num_4,16,num_4,0.383458352415,,,2017_May_31_1117,60.0037914303,FEMA4ImagesEEG,001,200364,
AFNE01.JPG,AFNE01.JPG,AFNE01.JPG,AFNE01.JPG,AFNE01.JPG,AFNE01.JPG,,,,,,,,,4,6,46,1,,,,,,,,,,,,,,,AFNE08.jpg,AFNE01.jpg,AFSA07.jpg,AFSA12.jpg,AFSA07.jpg,FS,4,num_2,32,num_8,1.00014882325,,,2017_May_31_1117,60.0037914303,FEMA4ImagesEEG,001,200364,
AFNE01.JPG,AFNE01.JPG,AFNE01.JPG,AFNE01.JPG,AFNE01.JPG,AFNE01.JPG,,,,,,,,,4,7,47,3,,,,,,,,,,,,,,,AFNE18.jpg,AFSA14.jpg,AFSA15.jpg,AFNE10.jpg,AFNE10.jpg,FN,3,num_4,32,num_8,0.700188691262,,,2017_May_31_1117,60.0037914303,FEMA4ImagesEEG,001,200364,
AFNE01.JPG,AFNE01.JPG,AFNE01.JPG,AFNE01.JPG,AFNE01.JPG,AFNE01.JPG,,,,,,,,,4,8,48,6,,,,,,,,,,,,,,,AFNE01.jpg,AFSA04.jpg,AFNE12.jpg,AFSA12.jpg,AFSA04.jpg,FS,4,num_6,16,num_6,0.71694895532,,,2017_May_31_1117,60.0037914303,FEMA4ImagesEEG,001,200364,
AFNE01.JPG,AFNE01.JPG,AFNE01.JPG,AFNE01.JPG,AFNE01.JPG,AFNE01.JPG,,,,,,,,,4,9,49,4,,,,,,,,,,,,,,,AFSA07.jpg,AFNE13.jpg,AFSA19.jpg,AFNE10.jpg,AFSA07.jpg,FS,4,num_8,16,num_8,0.800093078753,,,2017_May_31_1117,60.0037914303,FEMA4ImagesEEG,001,200364,
AFNE01.JPG,AFNE01.JPG,AFNE01.JPG,AFNE01.JPG,AFNE01.JPG,AFNE01.JPG,,,,,,,,,5,0,50,2,,,,,,,,,,,,,,,AFSA10.jpg,AFNE01.jpg,AFSA11.jpg,AFNE09.jpg,AFSA11.jpg,FS,4,num_2,32,num_8,0.783462714404,,,2017_May_31_1117,60.0037914303,FEMA4ImagesEEG,001,200364,
AFNE01.JPG,AFNE01.JPG,AFNE01.JPG,AFNE01.JPG,AFNE01.JPG,AFNE01.JPG,,,,,,,,,5,1,51,9,,,,,,,,,,,,,,,AFSA01.jpg,AFNE10.jpg,AFNE20.jpg,AFSA15.jpg,AFNE20.jpg,FN,3,num_2,32,num_6,0.716764850542,,,2017_May_31_1117,60.0037914303,FEMA4ImagesEEG,001,200364,
AFNE01.JPG,AFNE01.JPG,AFNE01.JPG,AFNE01.JPG,AFNE01.JPG,AFNE01.JPG,,,,,,,,,5,2,52,0,,,,,,,,,,,,,,,AFSA18.jpg,AFNE06.jpg,AFNE18.jpg,AFSA20.jpg,AFSA20.jpg,FS,4,num_4,32,num_2,1.35007125232,,,2017_May_31_1117,60.0037914303,FEMA4ImagesEEG,001,200364,
AFNE01.JPG,AFNE01.JPG,AFNE01.JPG,AFNE01.JPG,AFNE01.JPG,AFNE01.JPG,,,,,,,,,5,3,53,8,,,,,,,,,,,,,,,AFSA07.jpg,AFSA11.jpg,AFNE17.jpg,AFNE14.jpg,AFSA11.jpg,FS,4,num_6,16,num_6,0.766747995745,,,2017_May_31_1117,60.0037914303,FEMA4ImagesEEG,001,200364,
AFNE01.JPG,AFNE01.JPG,AFNE01.JPG,AFNE01.JPG,AFNE01.JPG,AFNE01.JPG,,,,,,,,,5,4,54,3,,,,,,,,,,,,,,,AFSA16.jpg,AFNE10.jpg,AFSA09.jpg,AFNE06.jpg,AFSA09.jpg,FS,4,num_2,32,num_8,0.833488518139,,,2017_May_31_1117,60.0037914303,FEMA4ImagesEEG,001,200364,
AFNE01.JPG,AFNE01.JPG,AFNE01.JPG,AFNE01.JPG,AFNE01.JPG,AFNE01.JPG,,,,,,,,,5,5,55,7,,,,,,,,,,,,,,,AFSA09.jpg,AFNE10.jpg,AFSA18.jpg,AFNE08.jpg,AFNE10.jpg,FN,3,num_6,32,num_8,0.716795320855,,,2017_May_31_1117,60.0037914303,FEMA4ImagesEEG,001,200364,
AFNE01.JPG,AFNE01.JPG,AFNE01.JPG,AFNE01.JPG,AFNE01.JPG,AFNE01.JPG,,,,,,,,,5,6,56,1,,,,,,,,,,,,,,,AFSA18.jpg,AFNE08.jpg,AFSA02.jpg,AFNE06.jpg,AFSA02.jpg,FS,4,num_2,32,num_4,2.93298203754,,,2017_May_31_1117,60.0037914303,FEMA4ImagesEEG,001,200364,
AFNE01.JPG,AFNE01.JPG,AFNE01.JPG,AFNE01.JPG,AFNE01.JPG,AFNE01.JPG,,,,,,,,,5,7,57,6,,,,,,,,,,,,,,,AFSA10.jpg,AFNE06.jpg,AFSA05.jpg,AFNE10.jpg,AFNE10.jpg,FN,3,num_4,16,num_4,0.533713132143,,,2017_May_31_1117,60.0037914303,FEMA4ImagesEEG,001,200364,
AFNE01.JPG,AFNE01.JPG,AFNE01.JPG,AFNE01.JPG,AFNE01.JPG,AFNE01.JPG,,,,,,,,,5,8,58,5,,,,,,,,,,,,,,,AFNE14.jpg,AFSA09.jpg,AFSA18.jpg,AFNE02.jpg,AFNE02.jpg,FN,3,num_4,32,num_8,0.500234941952,,,2017_May_31_1117,60.0037914303,FEMA4ImagesEEG,001,200364,
AFNE01.JPG,AFNE01.JPG,AFNE01.JPG,AFNE01.JPG,AFNE01.JPG,AFNE01.JPG,,,,,,,,,5,9,59,4,,,,,,,,,,,,,,,AFSA08.jpg,AFSA04.jpg,AFNE08.jpg,AFNE16.jpg,AFNE08.jpg,FN,3,num_2,32,num_8,0.366820290452,,,2017_May_31_1117,60.0037914303,FEMA4ImagesEEG,001,200364,
,,,,,,,,,,,,,,,,,,,,,,,,,,,,,,,,,,,,,,,,,,,space,13.6991199858,2017_May_31_1117,60.0037914303,FEMA4ImagesEEG,001,200364,
AFNE01.JPG,AFNE01.JPG,AFNE01.JPG,AFNE01.JPG,AFNE01.JPG,AFNE01.JPG,,,,,,,,,,,,,0,0,0,4,,,,,,,,,,,AMSA05.jpg,AMNE07.jpg,AMNE01.jpg,AMSA06.jpg,AMNE07.jpg,MN,1,num_6,32,num_8,1.26681486983,,,2017_May_31_1117,60.0037914303,FEMA4ImagesEEG,001,200364,
AFNE01.JPG,AFNE01.JPG,AFNE01.JPG,AFNE01.JPG,AFNE01.JPG,AFNE01.JPG,,,,,,,,,,,,,0,1,1,5,,,,,,,,,,,AMSA14.jpg,AMNE16.jpg,AMNE09.jpg,AMSA16.jpg,AMNE09.jpg,MN,1,num_2,32,num_6,0.516820081975,,,2017_May_31_1117,60.0037914303,FEMA4ImagesEEG,001,200364,
AFNE01.JPG,AFNE01.JPG,AFNE01.JPG,AFNE01.JPG,AFNE01.JPG,AFNE01.JPG,,,,,,,,,,,,,0,2,2,7,,,,,,,,,,,AMSA10.jpg,AMSA09.jpg,AMNE15.jpg,AMNE11.jpg,AMNE15.jpg,MN,1,num_2,32,num_8,0.4001756371,,,2017_May_31_1117,60.0037914303,FEMA4ImagesEEG,001,200364,
AFNE01.JPG,AFNE01.JPG,AFNE01.JPG,AFNE01.JPG,AFNE01.JPG,AFNE01.JPG,,,,,,,,,,,,,0,3,3,0,,,,,,,,,,,AMNE13.jpg,AMSA16.jpg,AMSA20.jpg,AMNE12.jpg,AMNE13.jpg,MN,1,num_8,32,num_6,0.50016053021,,,2017_May_31_1117,60.0037914303,FEMA4ImagesEEG,001,200364,
AFNE01.JPG,AFNE01.JPG,AFNE01.JPG,AFNE01.JPG,AFNE01.JPG,AFNE01.JPG,,,,,,,,,,,,,0,4,4,6,,,,,,,,,,,AMSA12.jpg,AMSA02.jpg,AMNE17.jpg,AMNE07.jpg,AMSA02.jpg,MS,2,num_6,16,num_6,0.25018001534,,,2017_May_31_1117,60.0037914303,FEMA4ImagesEEG,001,200364,
AFNE01.JPG,AFNE01.JPG,AFNE01.JPG,AFNE01.JPG,AFNE01.JPG,AFNE01.JPG,,,,,,,,,,,,,0,5,5,1,,,,,,,,,,,AMNE17.jpg,AMSA02.jpg,AMSA15.jpg,AMNE03.jpg,AMSA02.jpg,MS,2,num_6,32,num_4,0.983471951913,,,2017_May_31_1117,60.0037914303,FEMA4ImagesEEG,001,200364,
AFNE01.JPG,AFNE01.JPG,AFNE01.JPG,AFNE01.JPG,AFNE01.JPG,AFNE01.JPG,,,,,,,,,,,,,0,6,6,2,,,,,,,,,,,AMNE14.jpg,AMNE17.jpg,AMSA18.jpg,AMSA05.jpg,AMSA18.jpg,MS,2,num_2,32,num_8,1.25008251029,,,2017_May_31_1117,60.0037914303,FEMA4ImagesEEG,001,200364,
AFNE01.JPG,AFNE01.JPG,AFNE01.JPG,AFNE01.JPG,AFNE01.JPG,AFNE01.JPG,,,,,,,,,,,,,0,7,7,8,,,,,,,,,,,AMNE13.jpg,AMNE03.jpg,AMSA14.jpg,AMSA15.jpg,AMSA15.jpg,MS,2,num_4,32,num_6,0.55017671152,,,2017_May_31_1117,60.0037914303,FEMA4ImagesEEG,001,200364,
AFNE01.JPG,AFNE01.JPG,AFNE01.JPG,AFNE01.JPG,AFNE01.JPG,AFNE01.JPG,,,,,,,,,,,,,0,8,8,9,,,,,,,,,,,AMSA12.jpg,AMNE16.jpg,AMNE01.jpg,AMSA07.jpg,AMSA07.jpg,MS,2,num_4,32,num_8,0.683497707127,,,2017_May_31_1117,60.0037914303,FEMA4ImagesEEG,001,200364,
AFNE01.JPG,AFNE01.JPG,AFNE01.JPG,AFNE01.JPG,AFNE01.JPG,AFNE01.JPG,,,,,,,,,,,,,0,9,9,3,,,,,,,,,,,AMSA17.jpg,AMSA13.jpg,AMNE10.jpg,AMNE05.jpg,AMNE10.jpg,MN,1,num_2,32,num_8,0.73344781599,,,2017_May_31_1117,60.0037914303,FEMA4ImagesEEG,001,200364,
AFNE01.JPG,AFNE01.JPG,AFNE01.JPG,AFNE01.JPG,AFNE01.JPG,AFNE01.JPG,,,,,,,,,,,,,1,0,10,0,,,,,,,,,,,AMSA06.jpg,AMNE19.jpg,AMNE10.jpg,AMSA03.jpg,AMNE19.jpg,MN,1,num_6,32,num_8,0.750133668305,,,2017_May_31_1117,60.0037914303,FEMA4ImagesEEG,001,200364,
AFNE01.JPG,AFNE01.JPG,AFNE01.JPG,AFNE01.JPG,AFNE01.JPG,AFNE01.JPG,,,,,,,,,,,,,1,1,11,8,,,,,,,,,,,AMNE18.jpg,AMSA01.jpg,AMNE06.jpg,AMSA15.jpg,AMSA01.jpg,MS,2,num_6,32,num_8,4.11635321286,,,2017_May_31_1117,60.0037914303,FEMA4ImagesEEG,001,200364,
AFNE01.JPG,AFNE01.JPG,AFNE01.JPG,AFNE01.JPG,AFNE01.JPG,AFNE01.JPG,,,,,,,,,,,,,1,2,12,7,,,,,,,,,,,AMSA17.jpg,AMNE06.jpg,AMNE13.jpg,AMSA06.jpg,AMSA17.jpg,MS,2,num_8,48,None,,,,2017_May_31_1117,60.0037914303,FEMA4ImagesEEG,001,200364,
AFNE01.JPG,AFNE01.JPG,AFNE01.JPG,AFNE01.JPG,AFNE01.JPG,AFNE01.JPG,,,,,,,,,,,,,1,3,13,1,,,,,,,,,,,AMSA09.jpg,AMNE01.jpg,AMNE03.jpg,AMSA13.jpg,AMSA09.jpg,MS,2,num_8,16,num_8,0.550230275141,,,2017_May_31_1117,60.0037914303,FEMA4ImagesEEG,001,200364,
AFNE01.JPG,AFNE01.JPG,AFNE01.JPG,AFNE01.JPG,AFNE01.JPG,AFNE01.JPG,,,,,,,,,,,,,1,4,14,3,,,,,,,,,,,AMNE05.jpg,AMNE17.jpg,AMSA07.jpg,AMSA14.jpg,AMNE17.jpg,MN,1,num_6,32,num_4,0.333527487935,,,2017_May_31_1117,60.0037914303,FEMA4ImagesEEG,001,200364,
AFNE01.JPG,AFNE01.JPG,AFNE01.JPG,AFNE01.JPG,AFNE01.JPG,AFNE01.JPG,,,,,,,,,,,,,1,5,15,2,,,,,,,,,,,AMNE08.jpg,AMNE15.jpg,AMSA09.jpg,AMSA04.jpg,AMNE15.jpg,MN,1,num_6,16,num_6,0.600163705647,,,2017_May_31_1117,60.0037914303,FEMA4ImagesEEG,001,200364,
AFNE01.JPG,AFNE01.JPG,AFNE01.JPG,AFNE01.JPG,AFNE01.JPG,AFNE01.JPG,,,,,,,,,,,,,1,6,16,9,,,,,,,,,,,AMSA07.jpg,AMNE03.jpg,AMSA05.jpg,AMNE18.jpg,AMSA07.jpg,MS,2,num_8,32,num_6,1.13355160761,,,2017_May_31_1117,60.0037914303,FEMA4ImagesEEG,001,200364,
AFNE01.JPG,AFNE01.JPG,AFNE01.JPG,AFNE01.JPG,AFNE01.JPG,AFNE01.JPG,,,,,,,,,,,,,1,7,17,5,,,,,,,,,,,AMNE10.jpg,AMSA08.jpg,AMNE08.jpg,AMSA12.jpg,AMSA12.jpg,MS,2,num_4,32,num_8,0.966771986801,,,2017_May_31_1117,60.0037914303,FEMA4ImagesEEG,001,200364,
AFNE01.JPG,AFNE01.JPG,AFNE01.JPG,AFNE01.JPG,AFNE01.JPG,AFNE01.JPG,,,,,,,,,,,,,1,8,18,4,,,,,,,,,,,AMSA19.jpg,AMSA07.jpg,AMNE14.jpg,AMNE19.jpg,AMNE14.jpg,MN,1,num_2,32,num_8,0.566777247004,,,2017_May_31_1117,60.0037914303,FEMA4ImagesEEG,001,200364,
AFNE01.JPG,AFNE01.JPG,AFNE01.JPG,AFNE01.JPG,AFNE01.JPG,AFNE01.JPG,,,,,,,,,,,,,1,9,19,6,,,,,,,,,,,AMNE04.jpg,AMNE20.jpg,AMSA05.jpg,AMSA15.jpg,AMSA05.jpg,MS,2,num_2,32,num_6,0.583485551178,,,2017_May_31_1117,60.0037914303,FEMA4ImagesEEG,001,200364,
AFNE01.JPG,AFNE01.JPG,AFNE01.JPG,AFNE01.JPG,AFNE01.JPG,AFNE01.JPG,,,,,,,,,,,,,2,0,20,2,,,,,,,,,,,AMSA06.jpg,AMNE01.jpg,AMSA05.jpg,AMNE03.jpg,AMNE01.jpg,MN,1,num_6,16,num_6,0.183456492145,,,2017_May_31_1117,60.0037914303,FEMA4ImagesEEG,001,200364,
AFNE01.JPG,AFNE01.JPG,AFNE01.JPG,AFNE01.JPG,AFNE01.JPG,AFNE01.JPG,,,,,,,,,,,,,2,1,21,4,,,,,,,,,,,AMNE19.jpg,AMSA06.jpg,AMSA09.jpg,AMNE08.jpg,AMNE08.jpg,MN,1,num_4,32,num_2,0.350188322365,,,2017_May_31_1117,60.0037914303,FEMA4ImagesEEG,001,200364,
AFNE01.JPG,AFNE01.JPG,AFNE01.JPG,AFNE01.JPG,AFNE01.JPG,AFNE01.JPG,,,,,,,,,,,,,2,2,22,3,,,,,,,,,,,AMNE03.jpg,AMSA02.jpg,AMNE17.jpg,AMSA11.jpg,AMSA02.jpg,MS,2,num_6,16,num_6,0.350204359507,,,2017_May_31_1117,60.0037914303,FEMA4ImagesEEG,001,200364,
AFNE01.JPG,AFNE01.JPG,AFNE01.JPG,AFNE01.JPG,AFNE01.JPG,AFNE01.JPG,,,,,,,,,,,,,2,3,23,7,,,,,,,,,,,AMNE08.jpg,AMSA10.jpg,AMNE04.jpg,AMSA14.jpg,AMSA10.jpg,MS,2,num_6,16,num_6,0.850125296973,,,2017_May_31_1117,60.0037914303,FEMA4ImagesEEG,001,200364,
AFNE01.JPG,AFNE01.JPG,AFNE01.JPG,AFNE01.JPG,AFNE01.JPG,AFNE01.JPG,,,,,,,,,,,,,2,4,24,5,,,,,,,,,,,AMSA02.jpg,AMSA16.jpg,AMNE13.jpg,AMNE03.jpg,AMSA02.jpg,MS,2,num_8,16,num_8,0.683440936264,,,2017_May_31_1117,60.0037914303,FEMA4ImagesEEG,001,200364,
AFNE01.JPG,AFNE01.JPG,AFNE01.JPG,AFNE01.JPG,AFNE01.JPG,AFNE01.JPG,,,,,,,,,,,,,2,5,25,6,,,,,,,,,,,AMSA18.jpg,AMSA19.jpg,AMNE12.jpg,AMNE11.jpg,AMNE11.jpg,MN,1,num_4,32,num_6,0.333511130186,,,2017_May_31_1117,60.0037914303,FEMA4ImagesEEG,001,200364,
AFNE01.JPG,AFNE01.JPG,AFNE01.JPG,AFNE01.JPG,AFNE01.JPG,AFNE01.JPG,,,,,,,,,,,,,2,6,26,8,,,,,,,,,,,AMNE06.jpg,AMNE11.jpg,AMSA01.jpg,AMSA16.jpg,AMSA16.jpg,MS,2,num_4,32,num_6,0.616802409058,,,2017_May_31_1117,60.0037914303,FEMA4ImagesEEG,001,200364,
AFNE01.JPG,AFNE01.JPG,AFNE01.JPG,AFNE01.JPG,AFNE01.JPG,AFNE01.JPG,,,,,,,,,,,,,2,7,27,9,,,,,,,,,,,AMNE02.jpg,AMSA10.jpg,AMNE15.jpg,AMSA17.jpg,AMSA17.jpg,MS,2,num_4,16,num_4,0.766804124927,,,2017_May_31_1117,60.0037914303,FEMA4ImagesEEG,001,200364,
AFNE01.JPG,AFNE01.JPG,AFNE01.JPG,AFNE01.JPG,AFNE01.JPG,AFNE01.JPG,,,,,,,,,,,,,2,8,28,0,,,,,,,,,,,AMNE11.jpg,AMSA05.jpg,AMNE14.jpg,AMSA14.jpg,AMSA14.jpg,MS,2,num_4,16,num_4,0.600116877584,,,2017_May_31_1117,60.0037914303,FEMA4ImagesEEG,001,200364,
AFNE01.JPG,AFNE01.JPG,AFNE01.JPG,AFNE01.JPG,AFNE01.JPG,AFNE01.JPG,,,,,,,,,,,,,2,9,29,1,,,,,,,,,,,AMSA09.jpg,AMNE10.jpg,AMNE02.jpg,AMSA02.jpg,AMNE10.jpg,MN,1,num_6,16,num_6,1.55002692598,,,2017_May_31_1117,60.0037914303,FEMA4ImagesEEG,001,200364,
AFNE01.JPG,AFNE01.JPG,AFNE01.JPG,AFNE01.JPG,AFNE01.JPG,AFNE01.JPG,,,,,,,,,,,,,3,0,30,0,,,,,,,,,,,AMSA02.jpg,AMNE16.jpg,AMNE04.jpg,AMSA11.jpg,AMSA11.jpg,MS,2,num_4,32,num_8,0.716766774887,,,2017_May_31_1117,60.0037914303,FEMA4ImagesEEG,001,200364,
AFNE01.JPG,AFNE01.JPG,AFNE01.JPG,AFNE01.JPG,AFNE01.JPG,AFNE01.JPG,,,,,,,,,,,,,3,1,31,4,,,,,,,,,,,AMNE09.jpg,AMNE03.jpg,AMSA16.jpg,AMSA01.jpg,AMNE03.jpg,MN,1,num_6,32,num_4,3.28333810717,,,2017_May_31_1117,60.0037914303,FEMA4ImagesEEG,001,200364,
AFNE01.JPG,AFNE01.JPG,AFNE01.JPG,AFNE01.JPG,AFNE01.JPG,AFNE01.JPG,,,,,,,,,,,,,3,2,32,7,,,,,,,,,,,AMNE15.jpg,AMSA04.jpg,AMNE02.jpg,AMSA12.jpg,AMNE02.jpg,MN,1,num_2,32,num_4,0.333473603707,,,2017_May_31_1117,60.0037914303,FEMA4ImagesEEG,001,200364,
AFNE01.JPG,AFNE01.JPG,AFNE01.JPG,AFNE01.JPG,AFNE01.JPG,AFNE01.JPG,,,,,,,,,,,,,3,3,33,9,,,,,,,,,,,AMSA02.jpg,AMSA16.jpg,AMNE06.jpg,AMNE13.jpg,AMSA16.jpg,MS,2,num_6,32,num_4,0.283461271087,,,2017_May_31_1117,60.0037914303,FEMA4ImagesEEG,001,200364,
AFNE01.JPG,AFNE01.JPG,AFNE01.JPG,AFNE01.JPG,AFNE01.JPG,AFNE01.JPG,,,,,,,,,,,,,3,4,34,3,,,,,,,,,,,AMNE02.jpg,AMNE04.jpg,AMSA20.jpg,AMSA03.jpg,AMSA20.jpg,MS,2,num_2,16,num_2,0.93345577037,,,2017_May_31_1117,60.0037914303,FEMA4ImagesEEG,001,200364,
AFNE01.JPG,AFNE01.JPG,AFNE01.JPG,AFNE01.JPG,AFNE01.JPG,AFNE01.JPG,,,,,,,,,,,,,3,5,35,5,,,,,,,,,,,AMSA12.jpg,AMSA16.jpg,AMNE19.jpg,AMNE01.jpg,AMSA12.jpg,MS,2,num_8,32,num_2,0.433497627033,,,2017_May_31_1117,60.0037914303,FEMA4ImagesEEG,001,200364,
AFNE01.JPG,AFNE01.JPG,AFNE01.JPG,AFNE01.JPG,AFNE01.JPG,AFNE01.JPG,,,,,,,,,,,,,3,6,36,2,,,,,,,,,,,AMSA12.jpg,AMNE08.jpg,AMNE10.jpg,AMSA11.jpg,AMNE08.jpg,MN,1,num_6,32,num_2,0.583476570435,,,2017_May_31_1117,60.0037914303,FEMA4ImagesEEG,001,200364,
AFNE01.JPG,AFNE01.JPG,AFNE01.JPG,AFNE01.JPG,AFNE01.JPG,AFNE01.JPG,,,,,,,,,,,,,3,7,37,1,,,,,,,,,,,AMNE05.jpg,AMNE10.jpg,AMSA13.jpg,AMSA14.jpg,AMSA14.jpg,MS,2,num_4,32,num_2,2.13340502931,,,2017_May_31_1117,60.0037914303,FEMA4ImagesEEG,001,200364,
AFNE01.JPG,AFNE01.JPG,AFNE01.JPG,AFNE01.JPG,AFNE01.JPG,AFNE01.JPG,,,,,,,,,,,,,3,8,38,6,,,,,,,,,,,AMNE14.jpg,AMSA20.jpg,AMSA11.jpg,AMNE01.jpg,AMSA20.jpg,MS,2,num_6,16,num_6,2.83330088528,,,2017_May_31_1117,60.0037914303,FEMA4ImagesEEG,001,200364,
AFNE01.JPG,AFNE01.JPG,AFNE01.JPG,AFNE01.JPG,AFNE01.JPG,AFNE01.JPG,,,,,,,,,,,,,3,9,39,8,,,,,,,,,,,AMNE03.jpg,AMSA14.jpg,AMNE12.jpg,AMSA18.jpg,AMNE03.jpg,MN,1,num_8,16,num_8,0.633519693976,,,2017_May_31_1117,60.0037914303,FEMA4ImagesEEG,001,200364,
AFNE01.JPG,AFNE01.JPG,AFNE01.JPG,AFNE01.JPG,AFNE01.JPG,AFNE01.JPG,,,,,,,,,,,,,4,0,40,5,,,,,,,,,,,AMSA06.jpg,AMNE10.jpg,AMNE09.jpg,AMSA12.jpg,AMSA12.jpg,MS,2,num_4,32,num_6,0.550104545197,,,2017_May_31_1117,60.0037914303,FEMA4ImagesEEG,001,200364,
AFNE01.JPG,AFNE01.JPG,AFNE01.JPG,AFNE01.JPG,AFNE01.JPG,AFNE01.JPG,,,,,,,,,,,,,4,1,41,2,,,,,,,,,,,AMSA08.jpg,AMNE16.jpg,AMSA05.jpg,AMNE19.jpg,AMNE16.jpg,MN,1,num_6,32,num_8,0.28372363653,,,2017_May_31_1117,60.0037914303,FEMA4ImagesEEG,001,200364,
AFNE01.JPG,AFNE01.JPG,AFNE01.JPG,AFNE01.JPG,AFNE01.JPG,AFNE01.JPG,,,,,,,,,,,,,4,2,42,4,,,,,,,,,,,AMNE03.jpg,AMSA09.jpg,AMSA12.jpg,AMNE05.jpg,AMSA09.jpg,MS,2,num_6,16,num_6,0.716763567645,,,2017_May_31_1117,60.0037914303,FEMA4ImagesEEG,001,200364,
AFNE01.JPG,AFNE01.JPG,AFNE01.JPG,AFNE01.JPG,AFNE01.JPG,AFNE01.JPG,,,,,,,,,,,,,4,3,43,0,,,,,,,,,,,AMSA16.jpg,AMNE12.jpg,AMNE04.jpg,AMSA07.jpg,AMSA07.jpg,MS,2,num_4,32,num_8,0.733506511664,,,2017_May_31_1117,60.0037914303,FEMA4ImagesEEG,001,200364,
AFNE01.JPG,AFNE01.JPG,AFNE01.JPG,AFNE01.JPG,AFNE01.JPG,AFNE01.JPG,,,,,,,,,,,,,4,4,44,6,,,,,,,,,,,AMSA15.jpg,AMNE04.jpg,AMSA04.jpg,AMNE09.jpg,AMSA04.jpg,MS,2,num_2,32,num_6,0.450134085258,,,2017_May_31_1117,60.0037914303,FEMA4ImagesEEG,001,200364,
AFNE01.JPG,AFNE01.JPG,AFNE01.JPG,AFNE01.JPG,AFNE01.JPG,AFNE01.JPG,,,,,,,,,,,,,4,5,45,3,,,,,,,,,,,AMNE13.jpg,AMSA05.jpg,AMNE15.jpg,AMSA19.jpg,AMSA05.jpg,MS,2,num_6,16,num_6,0.550160674611,,,2017_May_31_1117,60.0037914303,FEMA4ImagesEEG,001,200364,
AFNE01.JPG,AFNE01.JPG,AFNE01.JPG,AFNE01.JPG,AFNE01.JPG,AFNE01.JPG,,,,,,,,,,,,,4,6,46,1,,,,,,,,,,,AMSA01.jpg,AMNE16.jpg,AMSA17.jpg,AMNE08.jpg,AMSA17.jpg,MS,2,num_2,32,num_8,0.283517400734,,,2017_May_31_1117,60.0037914303,FEMA4ImagesEEG,001,200364,
AFNE01.JPG,AFNE01.JPG,AFNE01.JPG,AFNE01.JPG,AFNE01.JPG,AFNE01.JPG,,,,,,,,,,,,,4,7,47,9,,,,,,,,,,,AMSA11.jpg,AMNE14.jpg,AMSA01.jpg,AMNE06.jpg,AMSA01.jpg,MS,2,num_2,16,num_2,1.06672448548,,,2017_May_31_1117,60.0037914303,FEMA4ImagesEEG,001,200364,
AFNE01.JPG,AFNE01.JPG,AFNE01.JPG,AFNE01.JPG,AFNE01.JPG,AFNE01.JPG,,,,,,,,,,,,,4,8,48,7,,,,,,,,,,,AMSA18.jpg,AMSA07.jpg,AMNE10.jpg,AMNE16.jpg,AMSA07.jpg,MS,2,num_6,16,num_6,1.21683974331,,,2017_May_31_1117,60.0037914303,FEMA4ImagesEEG,001,200364,
AFNE01.JPG,AFNE01.JPG,AFNE01.JPG,AFNE01.JPG,AFNE01.JPG,AFNE01.JPG,,,,,,,,,,,,,4,9,49,8,,,,,,,,,,,AMSA17.jpg,AMNE15.jpg,AMSA11.jpg,AMNE04.jpg,AMNE15.jpg,MN,1,num_6,32,num_2,1.03339319397,,,2017_May_31_1117,60.0037914303,FEMA4ImagesEEG,001,200364,
AFNE01.JPG,AFNE01.JPG,AFNE01.JPG,AFNE01.JPG,AFNE01.JPG,AFNE01.JPG,,,,,,,,,,,,,5,0,50,4,,,,,,,,,,,AMNE06.jpg,AMSA17.jpg,AMSA01.jpg,AMNE15.jpg,AMSA17.jpg,MS,2,num_6,32,num_8,0.733485021861,,,2017_May_31_1117,60.0037914303,FEMA4ImagesEEG,001,200364,
AFNE01.JPG,AFNE01.JPG,AFNE01.JPG,AFNE01.JPG,AFNE01.JPG,AFNE01.JPG,,,,,,,,,,,,,5,1,51,9,,,,,,,,,,,AMNE20.jpg,AMSA20.jpg,AMSA11.jpg,AMNE10.jpg,AMNE20.jpg,MN,1,num_8,32,num_6,0.383495878894,,,2017_May_31_1117,60.0037914303,FEMA4ImagesEEG,001,200364,
AFNE01.JPG,AFNE01.JPG,AFNE01.JPG,AFNE01.JPG,AFNE01.JPG,AFNE01.JPG,,,,,,,,,,,,,5,2,52,0,,,,,,,,,,,AMSA08.jpg,AMNE08.jpg,AMNE09.jpg,AMSA12.jpg,AMSA08.jpg,MS,2,num_8,16,num_8,0.366695522564,,,2017_May_31_1117,60.0037914303,FEMA4ImagesEEG,001,200364,
AFNE01.JPG,AFNE01.JPG,AFNE01.JPG,AFNE01.JPG,AFNE01.JPG,AFNE01.JPG,,,,,,,,,,,,,5,3,53,5,,,,,,,,,,,AMNE10.jpg,AMSA05.jpg,AMNE05.jpg,AMSA06.jpg,AMNE10.jpg,MN,1,num_8,32,num_6,0.616794390604,,,2017_May_31_1117,60.0037914303,FEMA4ImagesEEG,001,200364,
AFNE01.JPG,AFNE01.JPG,AFNE01.JPG,AFNE01.JPG,AFNE01.JPG,AFNE01.JPG,,,,,,,,,,,,,5,4,54,7,,,,,,,,,,,AMNE12.jpg,AMSA19.jpg,AMSA17.jpg,AMNE04.jpg,AMNE12.jpg,MN,1,num_8,32,num_6,0.866618063767,,,2017_May_31_1117,60.0037914303,FEMA4ImagesEEG,001,200364,
AFNE01.JPG,AFNE01.JPG,AFNE01.JPG,AFNE01.JPG,AFNE01.JPG,AFNE01.JPG,,,,,,,,,,,,,5,5,55,3,,,,,,,,,,,AMSA19.jpg,AMNE07.jpg,AMNE15.jpg,AMSA06.jpg,AMSA06.jpg,MS,2,num_4,32,num_8,1.05010278127,,,2017_May_31_1117,60.0037914303,FEMA4ImagesEEG,001,200364,
AFNE01.JPG,AFNE01.JPG,AFNE01.JPG,AFNE01.JPG,AFNE01.JPG,AFNE01.JPG,,,,,,,,,,,,,5,6,56,6,,,,,,,,,,,AMNE13.jpg,AMSA07.jpg,AMNE08.jpg,AMSA16.jpg,AMNE08.jpg,MN,1,num_2,32,num_8,0.716851771111,,,2017_May_31_1117,60.0037914303,FEMA4ImagesEEG,001,200364,
AFNE01.JPG,AFNE01.JPG,AFNE01.JPG,AFNE01.JPG,AFNE01.JPG,AFNE01.JPG,,,,,,,,,,,,,5,7,57,2,,,,,,,,,,,AMSA02.jpg,AMSA14.jpg,AMNE08.jpg,AMNE10.jpg,AMNE10.jpg,MN,1,num_4,16,num_4,0.666741933674,,,2017_May_31_1117,60.0037914303,FEMA4ImagesEEG,001,200364,
AFNE01.JPG,AFNE01.JPG,AFNE01.JPG,AFNE01.JPG,AFNE01.JPG,AFNE01.JPG,,,,,,,,,,,,,5,8,58,8,,,,,,,,,,,AMSA11.jpg,AMNE04.jpg,AMNE20.jpg,AMSA18.jpg,AMSA18.jpg,MS,2,num_4,32,num_8,0.950109548634,,,2017_May_31_1117,60.0037914303,FEMA4ImagesEEG,001,200364,
AFNE01.JPG,AFNE01.JPG,AFNE01.JPG,AFNE01.JPG,AFNE01.JPG,AFNE01.JPG,,,,,,,,,,,,,5,9,59,1,,,,,,,,,,,AMSA20.jpg,AMSA14.jpg,AMNE05.jpg,AMNE17.jpg,AMSA14.jpg,MS,2,num_6,16,num_6,2.86675117095,,,2017_May_31_1117,60.0037914303,FEMA4ImagesEEG,001,200364,
,,,,,,,,,,,,,,,,,,,,,,,,,,,,,,,,,,,,,,,,,,,space,5.83277872065,2017_May_31_1117,60.0037914303,FEMA4ImagesEEG,001,200364,
AFNE01.JPG,AFNE01.JPG,AFNE01.JPG,AFNE01.JPG,AFNE01.JPG,AFNE01.JPG,,,,,,,,,,,,,,,,,0,0,0,7,,,,,,,AFNE11.jpg,AFSA11.jpg,AFNE02.jpg,AFSA19.jpg,AFNE11.jpg,FN,3,num_8,32,num_6,1.45006737136,,,2017_May_31_1117,60.0037914303,FEMA4ImagesEEG,001,200364,
AFNE01.JPG,AFNE01.JPG,AFNE01.JPG,AFNE01.JPG,AFNE01.JPG,AFNE01.JPG,,,,,,,,,,,,,,,,,0,1,1,8,,,,,,,AFSA04.jpg,AFNE20.jpg,AFSA03.jpg,AFNE16.jpg,AFSA04.jpg,FS,4,num_8,16,num_8,1.3334517933,,,2017_May_31_1117,60.0037914303,FEMA4ImagesEEG,001,200364,
AFNE01.JPG,AFNE01.JPG,AFNE01.JPG,AFNE01.JPG,AFNE01.JPG,AFNE01.JPG,,,,,,,,,,,,,,,,,0,2,2,0,,,,,,,AFNE04.jpg,AFSA16.jpg,AFSA02.jpg,AFNE12.jpg,AFSA16.jpg,FS,4,num_6,32,num_8,0.450059352908,,,2017_May_31_1117,60.0037914303,FEMA4ImagesEEG,001,200364,
AFNE01.JPG,AFNE01.JPG,AFNE01.JPG,AFNE01.JPG,AFNE01.JPG,AFNE01.JPG,,,,,,,,,,,,,,,,,0,3,3,3,,,,,,,AFNE20.jpg,AFSA17.jpg,AFNE08.jpg,AFSA19.jpg,AFSA19.jpg,FS,4,num_4,32,num_8,0.350176775828,,,2017_May_31_1117,60.0037914303,FEMA4ImagesEEG,001,200364,
AFNE01.JPG,AFNE01.JPG,AFNE01.JPG,AFNE01.JPG,AFNE01.JPG,AFNE01.JPG,,,,,,,,,,,,,,,,,0,4,4,1,,,,,,,AFSA07.jpg,AFNE12.jpg,AFSA15.jpg,AFNE07.jpg,AFNE07.jpg,FN,3,num_4,32,num_6,0.466660529841,,,2017_May_31_1117,60.0037914303,FEMA4ImagesEEG,001,200364,
AFNE01.JPG,AFNE01.JPG,AFNE01.JPG,AFNE01.JPG,AFNE01.JPG,AFNE01.JPG,,,,,,,,,,,,,,,,,0,5,5,6,,,,,,,AFSA02.jpg,AFSA10.jpg,AFNE05.jpg,AFNE20.jpg,AFNE20.jpg,FN,3,num_4,32,num_6,0.416772003053,,,2017_May_31_1117,60.0037914303,FEMA4ImagesEEG,001,200364,
AFNE01.JPG,AFNE01.JPG,AFNE01.JPG,AFNE01.JPG,AFNE01.JPG,AFNE01.JPG,,,,,,,,,,,,,,,,,0,6,6,4,,,,,,,AFNE12.jpg,AFNE15.jpg,AFSA07.jpg,AFSA19.jpg,AFNE12.jpg,FN,3,num_8,32,num_2,1.2167621241,,,2017_May_31_1117,60.0037914303,FEMA4ImagesEEG,001,200364,
AFNE01.JPG,AFNE01.JPG,AFNE01.JPG,AFNE01.JPG,AFNE01.JPG,AFNE01.JPG,,,,,,,,,,,,,,,,,0,7,7,9,,,,,,,AFNE17.jpg,AFSA01.jpg,AFNE01.jpg,AFSA20.jpg,AFNE01.jpg,FN,3,num_2,32,num_6,0.600162743591,,,2017_May_31_1117,60.0037914303,FEMA4ImagesEEG,001,200364,
AFNE01.JPG,AFNE01.JPG,AFNE01.JPG,AFNE01.JPG,AFNE01.JPG,AFNE01.JPG,,,,,,,,,,,,,,,,,0,8,8,5,,,,,,,AFSA12.jpg,AFNE02.jpg,AFNE04.jpg,AFSA14.jpg,AFNE04.jpg,FN,3,num_2,32,num_8,0.566788472934,,,2017_May_31_1117,60.0037914303,FEMA4ImagesEEG,001,200364,
AFNE01.JPG,AFNE01.JPG,AFNE01.JPG,AFNE01.JPG,AFNE01.JPG,AFNE01.JPG,,,,,,,,,,,,,,,,,0,9,9,2,,,,,,,AFNE13.jpg,AFNE04.jpg,AFSA03.jpg,AFSA18.jpg,AFNE04.jpg,FN,3,num_6,16,num_6,0.416824604385,,,2017_May_31_1117,60.0037914303,FEMA4ImagesEEG,001,200364,
AFNE01.JPG,AFNE01.JPG,AFNE01.JPG,AFNE01.JPG,AFNE01.JPG,AFNE01.JPG,,,,,,,,,,,,,,,,,1,0,10,2,,,,,,,AFSA13.jpg,AFNE13.jpg,AFSA10.jpg,AFNE11.jpg,AFSA13.jpg,FS,4,num_8,16,num_8,0.833655302878,,,2017_May_31_1117,60.0037914303,FEMA4ImagesEEG,001,200364,
AFNE01.JPG,AFNE01.JPG,AFNE01.JPG,AFNE01.JPG,AFNE01.JPG,AFNE01.JPG,,,,,,,,,,,,,,,,,1,1,11,8,,,,,,,AFNE15.jpg,AFNE11.jpg,AFSA02.jpg,AFSA19.jpg,AFSA02.jpg,FS,4,num_2,32,num_4,0.983538665809,,,2017_May_31_1117,60.0037914303,FEMA4ImagesEEG,001,200364,
AFNE01.JPG,AFNE01.JPG,AFNE01.JPG,AFNE01.JPG,AFNE01.JPG,AFNE01.JPG,,,,,,,,,,,,,,,,,1,2,12,6,,,,,,,AFNE10.jpg,AFSA17.jpg,AFSA02.jpg,AFNE11.jpg,AFSA17.jpg,FS,4,num_6,16,num_6,2.78336488875,,,2017_May_31_1117,60.0037914303,FEMA4ImagesEEG,001,200364,
AFNE01.JPG,AFNE01.JPG,AFNE01.JPG,AFNE01.JPG,AFNE01.JPG,AFNE01.JPG,,,,,,,,,,,,,,,,,1,3,13,0,,,,,,,AFSA10.jpg,AFNE07.jpg,AFNE14.jpg,AFSA02.jpg,AFSA02.jpg,FS,4,num_4,32,num_6,2.46649695258,,,2017_May_31_1117,60.0037914303,FEMA4ImagesEEG,001,200364,
AFNE01.JPG,AFNE01.JPG,AFNE01.JPG,AFNE01.JPG,AFNE01.JPG,AFNE01.JPG,,,,,,,,,,,,,,,,,1,4,14,4,,,,,,,AFNE10.jpg,AFSA02.jpg,AFSA14.jpg,AFNE11.jpg,AFSA02.jpg,FS,4,num_6,16,num_6,1.18345905817,,,2017_May_31_1117,60.0037914303,FEMA4ImagesEEG,001,200364,
AFNE01.JPG,AFNE01.JPG,AFNE01.JPG,AFNE01.JPG,AFNE01.JPG,AFNE01.JPG,,,,,,,,,,,,,,,,,1,5,15,3,,,,,,,AFSA18.jpg,AFNE04.jpg,AFSA01.jpg,AFNE13.jpg,AFSA18.jpg,FS,4,num_8,32,num_6,2.00008339225,,,2017_May_31_1117,60.0037914303,FEMA4ImagesEEG,001,200364,
AFNE01.JPG,AFNE01.JPG,AFNE01.JPG,AFNE01.JPG,AFNE01.JPG,AFNE01.JPG,,,,,,,,,,,,,,,,,1,6,16,7,,,,,,,AFSA19.jpg,AFNE13.jpg,AFSA20.jpg,AFNE14.jpg,AFSA20.jpg,FS,4,num_2,32,num_4,2.03333738539,,,2017_May_31_1117,60.0037914303,FEMA4ImagesEEG,001,200364,
AFNE01.JPG,AFNE01.JPG,AFNE01.JPG,AFNE01.JPG,AFNE01.JPG,AFNE01.JPG,,,,,,,,,,,,,,,,,1,7,17,1,,,,,,,AFNE05.jpg,AFSA15.jpg,AFNE11.jpg,AFSA18.jpg,AFSA15.jpg,FS,4,num_6,32,num_2,1.03343424876,,,2017_May_31_1117,60.0037914303,FEMA4ImagesEEG,001,200364,
AFNE01.JPG,AFNE01.JPG,AFNE01.JPG,AFNE01.JPG,AFNE01.JPG,AFNE01.JPG,,,,,,,,,,,,,,,,,1,8,18,9,,,,,,,AFNE02.jpg,AFSA08.jpg,AFNE17.jpg,AFSA03.jpg,AFNE02.jpg,FN,3,num_8,32,num_6,1.03355452628,,,2017_May_31_1117,60.0037914303,FEMA4ImagesEEG,001,200364,
AFNE01.JPG,AFNE01.JPG,AFNE01.JPG,AFNE01.JPG,AFNE01.JPG,AFNE01.JPG,,,,,,,,,,,,,,,,,1,9,19,5,,,,,,,AFSA14.jpg,AFSA08.jpg,AFNE02.jpg,AFNE08.jpg,AFSA14.jpg,FS,4,num_8,32,num_6,0.333494772436,,,2017_May_31_1117,60.0037914303,FEMA4ImagesEEG,001,200364,
AFNE01.JPG,AFNE01.JPG,AFNE01.JPG,AFNE01.JPG,AFNE01.JPG,AFNE01.JPG,,,,,,,,,,,,,,,,,2,0,20,7,,,,,,,AFNE17.jpg,AFSA20.jpg,AFSA03.jpg,AFNE10.jpg,AFSA03.jpg,FS,4,num_2,32,num_6,0.633492751746,,,2017_May_31_1117,60.0037914303,FEMA4ImagesEEG,001,200364,
AFNE01.JPG,AFNE01.JPG,AFNE01.JPG,AFNE01.JPG,AFNE01.JPG,AFNE01.JPG,,,,,,,,,,,,,,,,,2,1,21,1,,,,,,,AFSA08.jpg,AFSA11.jpg,AFNE15.jpg,AFNE04.jpg,AFNE15.jpg,FN,3,num_2,16,num_2,0.9667691004,,,2017_May_31_1117,60.0037914303,FEMA4ImagesEEG,001,200364,
AFNE01.JPG,AFNE01.JPG,AFNE01.JPG,AFNE01.JPG,AFNE01.JPG,AFNE01.JPG,,,,,,,,,,,,,,,,,2,2,22,8,,,,,,,AFNE18.jpg,AFSA04.jpg,AFNE13.jpg,AFSA08.jpg,AFSA08.jpg,FS,4,num_4,32,num_6,0.400160562247,,,2017_May_31_1117,60.0037914303,FEMA4ImagesEEG,001,200364,
AFNE01.JPG,AFNE01.JPG,AFNE01.JPG,AFNE01.JPG,AFNE01.JPG,AFNE01.JPG,,,,,,,,,,,,,,,,,2,3,23,3,,,,,,,AFNE10.jpg,AFNE13.jpg,AFSA02.jpg,AFSA15.jpg,AFSA02.jpg,FS,4,num_2,32,num_6,0.566950125853,,,2017_May_31_1117,60.0037914303,FEMA4ImagesEEG,001,200364,
AFNE01.JPG,AFNE01.JPG,AFNE01.JPG,AFNE01.JPG,AFNE01.JPG,AFNE01.JPG,,,,,,,,,,,,,,,,,2,4,24,2,,,,,,,AFNE14.jpg,AFNE15.jpg,AFSA02.jpg,AFSA17.jpg,AFSA02.jpg,FS,4,num_2,32,num_4,0.600429598941,,,2017_May_31_1117,60.0037914303,FEMA4ImagesEEG,001,200364,
AFNE01.JPG,AFNE01.JPG,AFNE01.JPG,AFNE01.JPG,AFNE01.JPG,AFNE01.JPG,,,,,,,,,,,,,,,,,2,5,25,5,,,,,,,AFSA19.jpg,AFNE18.jpg,AFSA01.jpg,AFNE10.jpg,AFSA01.jpg,FS,4,num_2,32,num_8,0.950183639769,,,2017_May_31_1117,60.0037914303,FEMA4ImagesEEG,001,200364,
AFNE01.JPG,AFNE01.JPG,AFNE01.JPG,AFNE01.JPG,AFNE01.JPG,AFNE01.JPG,,,,,,,,,,,,,,,,,2,6,26,0,,,,,,,AFSA04.jpg,AFNE08.jpg,AFSA12.jpg,AFNE01.jpg,AFSA12.jpg,FS,4,num_2,16,num_2,0.916756768012,,,2017_May_31_1117,60.0037914303,FEMA4ImagesEEG,001,200364,
AFNE01.JPG,AFNE01.JPG,AFNE01.JPG,AFNE01.JPG,AFNE01.JPG,AFNE01.JPG,,,,,,,,,,,,,,,,,2,7,27,9,,,,,,,AFSA11.jpg,AFNE08.jpg,AFSA04.jpg,AFNE12.jpg,AFNE12.jpg,FN,3,num_4,16,num_4,0.550134053221,,,2017_May_31_1117,60.0037914303,FEMA4ImagesEEG,001,200364,
AFNE01.JPG,AFNE01.JPG,AFNE01.JPG,AFNE01.JPG,AFNE01.JPG,AFNE01.JPG,,,,,,,,,,,,,,,,,2,8,28,4,,,,,,,AFNE12.jpg,AFNE15.jpg,AFSA07.jpg,AFSA08.jpg,AFSA08.jpg,FS,4,num_4,48,None,,,,2017_May_31_1117,60.0037914303,FEMA4ImagesEEG,001,200364,
AFNE01.JPG,AFNE01.JPG,AFNE01.JPG,AFNE01.JPG,AFNE01.JPG,AFNE01.JPG,,,,,,,,,,,,,,,,,2,9,29,6,,,,,,,AFSA07.jpg,AFNE03.jpg,AFNE13.jpg,AFSA11.jpg,AFSA07.jpg,FS,4,num_8,32,num_6,0.566859998042,,,2017_May_31_1117,60.0037914303,FEMA4ImagesEEG,001,200364,
AFNE01.JPG,AFNE01.JPG,AFNE01.JPG,AFNE01.JPG,AFNE01.JPG,AFNE01.JPG,,,,,,,,,,,,,,,,,3,0,30,9,,,,,,,AFNE07.jpg,AFNE14.jpg,AFSA08.jpg,AFSA09.jpg,AFNE14.jpg,FN,3,num_6,16,num_6,0.466793316184,,,2017_May_31_1117,60.0037914303,FEMA4ImagesEEG,001,200364,
AFNE01.JPG,AFNE01.JPG,AFNE01.JPG,AFNE01.JPG,AFNE01.JPG,AFNE01.JPG,,,,,,,,,,,,,,,,,3,1,31,8,,,,,,,AFNE05.jpg,AFSA02.jpg,AFSA07.jpg,AFNE01.jpg,AFSA02.jpg,FS,4,num_6,16,num_6,0.450122859329,,,2017_May_31_1117,60.0037914303,FEMA4ImagesEEG,001,200364,
AFNE01.JPG,AFNE01.JPG,AFNE01.JPG,AFNE01.JPG,AFNE01.JPG,AFNE01.JPG,,,,,,,,,,,,,,,,,3,2,32,6,,,,,,,AFSA08.jpg,AFSA15.jpg,AFNE14.jpg,AFNE17.jpg,AFNE14.jpg,FN,3,num_2,32,num_8,1.6500493458,,,2017_May_31_1117,60.0037914303,FEMA4ImagesEEG,001,200364,
AFNE01.JPG,AFNE01.JPG,AFNE01.JPG,AFNE01.JPG,AFNE01.JPG,AFNE01.JPG,,,,,,,,,,,,,,,,,3,3,33,5,,,,,,,AFSA16.jpg,AFSA02.jpg,AFNE14.jpg,AFNE15.jpg,AFNE15.jpg,FN,3,num_4,32,num_6,0.100241485052,,,2017_May_31_1117,60.0037914303,FEMA4ImagesEEG,001,200364,
AFNE01.JPG,AFNE01.JPG,AFNE01.JPG,AFNE01.JPG,AFNE01.JPG,AFNE01.JPG,,,,,,,,,,,,,,,,,3,4,34,7,,,,,,,AFNE05.jpg,AFSA04.jpg,AFSA09.jpg,AFNE13.jpg,AFSA04.jpg,FS,4,num_6,48,None,,,,2017_May_31_1117,60.0037914303,FEMA4ImagesEEG,001,200364,
AFNE01.JPG,AFNE01.JPG,AFNE01.JPG,AFNE01.JPG,AFNE01.JPG,AFNE01.JPG,,,,,,,,,,,,,,,,,3,5,35,0,,,,,,,AFSA06.jpg,AFSA20.jpg,AFNE05.jpg,AFNE01.jpg,AFSA20.jpg,FS,4,num_6,16,num_6,0.383512557251,,,2017_May_31_1117,60.0037914303,FEMA4ImagesEEG,001,200364,
AFNE01.JPG,AFNE01.JPG,AFNE01.JPG,AFNE01.JPG,AFNE01.JPG,AFNE01.JPG,,,,,,,,,,,,,,,,,3,6,36,4,,,,,,,AFSA17.jpg,AFNE03.jpg,AFNE13.jpg,AFSA05.jpg,AFNE03.jpg,FN,3,num_6,16,num_6,0.283508740831,,,2017_May_31_1117,60.0037914303,FEMA4ImagesEEG,001,200364,
AFNE01.JPG,AFNE01.JPG,AFNE01.JPG,AFNE01.JPG,AFNE01.JPG,AFNE01.JPG,,,,,,,,,,,,,,,,,3,7,37,2,,,,,,,AFNE07.jpg,AFSA09.jpg,AFSA11.jpg,AFNE13.jpg,AFSA09.jpg,FS,4,num_6,32,num_2,1.2002581316,,,2017_May_31_1117,60.0037914303,FEMA4ImagesEEG,001,200364,
AFNE01.JPG,AFNE01.JPG,AFNE01.JPG,AFNE01.JPG,AFNE01.JPG,AFNE01.JPG,,,,,,,,,,,,,,,,,3,8,38,3,,,,,,,AFSA17.jpg,AFNE16.jpg,AFNE06.jpg,AFSA10.jpg,AFNE16.jpg,FN,3,num_6,32,num_4,0.633329174249,,,2017_May_31_1117,60.0037914303,FEMA4ImagesEEG,001,200364,
AFNE01.JPG,AFNE01.JPG,AFNE01.JPG,AFNE01.JPG,AFNE01.JPG,AFNE01.JPG,,,,,,,,,,,,,,,,,3,9,39,1,,,,,,,AFNE18.jpg,AFNE01.jpg,AFSA04.jpg,AFSA01.jpg,AFSA01.jpg,FS,4,num_4,16,num_4,0.350142135751,,,2017_May_31_1117,60.0037914303,FEMA4ImagesEEG,001,200364,
AFNE01.JPG,AFNE01.JPG,AFNE01.JPG,AFNE01.JPG,AFNE01.JPG,AFNE01.JPG,,,,,,,,,,,,,,,,,4,0,40,6,,,,,,,AFNE09.jpg,AFSA08.jpg,AFNE05.jpg,AFSA04.jpg,AFNE09.jpg,FN,3,num_8,32,num_4,0.316802826012,,,2017_May_31_1117,60.0037914303,FEMA4ImagesEEG,001,200364,
AFNE01.JPG,AFNE01.JPG,AFNE01.JPG,AFNE01.JPG,AFNE01.JPG,AFNE01.JPG,,,,,,,,,,,,,,,,,4,1,41,2,,,,,,,AFNE16.jpg,AFSA09.jpg,AFSA02.jpg,AFNE06.jpg,AFSA02.jpg,FS,4,num_2,48,None,,,,2017_May_31_1117,60.0037914303,FEMA4ImagesEEG,001,200364,
AFNE01.JPG,AFNE01.JPG,AFNE01.JPG,AFNE01.JPG,AFNE01.JPG,AFNE01.JPG,,,,,,,,,,,,,,,,,4,2,42,1,,,,,,,AFSA05.jpg,AFNE19.jpg,AFSA07.jpg,AFNE07.jpg,AFSA05.jpg,FS,4,num_8,32,num_6,0.266814548988,,,2017_May_31_1117,60.0037914303,FEMA4ImagesEEG,001,200364,
AFNE01.JPG,AFNE01.JPG,AFNE01.JPG,AFNE01.JPG,AFNE01.JPG,AFNE01.JPG,,,,,,,,,,,,,,,,,4,3,43,4,,,,,,,AFSA12.jpg,AFSA05.jpg,AFNE19.jpg,AFNE12.jpg,AFNE12.jpg,FN,3,num_4,32,num_6,0.766781993909,,,2017_May_31_1117,60.0037914303,FEMA4ImagesEEG,001,200364,
AFNE01.JPG,AFNE01.JPG,AFNE01.JPG,AFNE01.JPG,AFNE01.JPG,AFNE01.JPG,,,,,,,,,,,,,,,,,4,4,44,3,,,,,,,AFNE03.jpg,AFSA05.jpg,AFNE16.jpg,AFSA17.jpg,AFSA17.jpg,FS,4,num_4,32,num_6,0.933577010175,,,2017_May_31_1117,60.0037914303,FEMA4ImagesEEG,001,200364,
AFNE01.JPG,AFNE01.JPG,AFNE01.JPG,AFNE01.JPG,AFNE01.JPG,AFNE01.JPG,,,,,,,,,,,,,,,,,4,5,45,7,,,,,,,AFSA05.jpg,AFSA06.jpg,AFNE03.jpg,AFNE09.jpg,AFSA05.jpg,FS,4,num_8,32,num_4,0.550096526742,,,2017_May_31_1117,60.0037914303,FEMA4ImagesEEG,001,200364,
AFNE01.JPG,AFNE01.JPG,AFNE01.JPG,AFNE01.JPG,AFNE01.JPG,AFNE01.JPG,,,,,,,,,,,,,,,,,4,6,46,9,,,,,,,AFNE16.jpg,AFSA10.jpg,AFNE08.jpg,AFSA17.jpg,AFSA17.jpg,FS,4,num_4,16,num_4,0.283489496214,,,2017_May_31_1117,60.0037914303,FEMA4ImagesEEG,001,200364,
AFNE01.JPG,AFNE01.JPG,AFNE01.JPG,AFNE01.JPG,AFNE01.JPG,AFNE01.JPG,,,,,,,,,,,,,,,,,4,7,47,5,,,,,,,AFSA19.jpg,AFNE19.jpg,AFSA04.jpg,AFNE01.jpg,AFNE01.jpg,FN,3,num_4,16,num_4,0.46680582501,,,2017_May_31_1117,60.0037914303,FEMA4ImagesEEG,001,200364,
AFNE01.JPG,AFNE01.JPG,AFNE01.JPG,AFNE01.JPG,AFNE01.JPG,AFNE01.JPG,,,,,,,,,,,,,,,,,4,8,48,0,,,,,,,AFNE11.jpg,AFNE16.jpg,AFSA03.jpg,AFSA12.jpg,AFNE11.jpg,FN,3,num_8,32,num_4,1.43346394924,,,2017_May_31_1117,60.0037914303,FEMA4ImagesEEG,001,200364,
AFNE01.JPG,AFNE01.JPG,AFNE01.JPG,AFNE01.JPG,AFNE01.JPG,AFNE01.JPG,,,,,,,,,,,,,,,,,4,9,49,8,,,,,,,AFSA16.jpg,AFSA01.jpg,AFNE08.jpg,AFNE12.jpg,AFSA16.jpg,FS,4,num_8,32,num_6,0.33349220641,,,2017_May_31_1117,60.0037914303,FEMA4ImagesEEG,001,200364,
AFNE01.JPG,AFNE01.JPG,AFNE01.JPG,AFNE01.JPG,AFNE01.JPG,AFNE01.JPG,,,,,,,,,,,,,,,,,5,0,50,8,,,,,,,AFNE18.jpg,AFNE08.jpg,AFSA02.jpg,AFSA20.jpg,AFSA20.jpg,FS,4,num_4,32,num_8,0.416797341546,,,2017_May_31_1117,60.0037914303,FEMA4ImagesEEG,001,200364,
AFNE01.JPG,AFNE01.JPG,AFNE01.JPG,AFNE01.JPG,AFNE01.JPG,AFNE01.JPG,,,,,,,,,,,,,,,,,5,1,51,0,,,,,,,AFNE08.jpg,AFNE17.jpg,AFSA05.jpg,AFSA11.jpg,AFNE08.jpg,FN,3,num_8,16,num_8,0.783461752115,,,2017_May_31_1117,60.0037914303,FEMA4ImagesEEG,001,200364,
AFNE01.JPG,AFNE01.JPG,AFNE01.JPG,AFNE01.JPG,AFNE01.JPG,AFNE01.JPG,,,,,,,,,,,,,,,,,5,2,52,6,,,,,,,AFSA05.jpg,AFNE14.jpg,AFSA08.jpg,AFNE19.jpg,AFNE19.jpg,FN,3,num_4,32,num_2,0.566772436025,,,2017_May_31_1117,60.0037914303,FEMA4ImagesEEG,001,200364,
AFNE01.JPG,AFNE01.JPG,AFNE01.JPG,AFNE01.JPG,AFNE01.JPG,AFNE01.JPG,,,,,,,,,,,,,,,,,5,3,53,3,,,,,,,AFNE14.jpg,AFSA02.jpg,AFSA03.jpg,AFNE17.jpg,AFNE17.jpg,FN,3,num_4,32,num_2,0.650173472241,,,2017_May_31_1117,60.0037914303,FEMA4ImagesEEG,001,200364,
AFNE01.JPG,AFNE01.JPG,AFNE01.JPG,AFNE01.JPG,AFNE01.JPG,AFNE01.JPG,,,,,,,,,,,,,,,,,5,4,54,5,,,,,,,AFNE10.jpg,AFSA09.jpg,AFNE09.jpg,AFSA03.jpg,AFSA03.jpg,FS,4,num_4,16,num_4,1.133447367,,,2017_May_31_1117,60.0037914303,FEMA4ImagesEEG,001,200364,
AFNE01.JPG,AFNE01.JPG,AFNE01.JPG,AFNE01.JPG,AFNE01.JPG,AFNE01.JPG,,,,,,,,,,,,,,,,,5,5,55,1,,,,,,,AFNE16.jpg,AFSA05.jpg,AFSA02.jpg,AFNE11.jpg,AFNE11.jpg,FN,3,num_4,32,num_6,0.28351291013,,,2017_May_31_1117,60.0037914303,FEMA4ImagesEEG,001,200364,
AFNE01.JPG,AFNE01.JPG,AFNE01.JPG,AFNE01.JPG,AFNE01.JPG,AFNE01.JPG,,,,,,,,,,,,,,,,,5,6,56,4,,,,,,,AFSA09.jpg,AFNE15.jpg,AFSA20.jpg,AFNE07.jpg,AFNE15.jpg,FN,3,num_6,16,num_6,0.46684367233,,,2017_May_31_1117,60.0037914303,FEMA4ImagesEEG,001,200364,
AFNE01.JPG,AFNE01.JPG,AFNE01.JPG,AFNE01.JPG,AFNE01.JPG,AFNE01.JPG,,,,,,,,,,,,,,,,,5,7,57,2,,,,,,,AFSA12.jpg,AFSA17.jpg,AFNE04.jpg,AFNE18.jpg,AFNE04.jpg,FN,3,num_2,32,num_6,0.416839679005,,,2017_May_31_1117,60.0037914303,FEMA4ImagesEEG,001,200364,
AFNE01.JPG,AFNE01.JPG,AFNE01.JPG,AFNE01.JPG,AFNE01.JPG,AFNE01.JPG,,,,,,,,,,,,,,,,,5,8,58,7,,,,,,,AFNE15.jpg,AFSA19.jpg,AFNE09.jpg,AFSA04.jpg,AFSA19.jpg,FS,4,num_6,32,num_8,0.450221326435,,,2017_May_31_1117,60.0037914303,FEMA4ImagesEEG,001,200364,
AFNE01.JPG,AFNE01.JPG,AFNE01.JPG,AFNE01.JPG,AFNE01.JPG,AFNE01.JPG,,,,,,,,,,,,,,,,,5,9,59,9,,,,,,,AFNE19.jpg,AFNE02.jpg,AFSA05.jpg,AFSA18.jpg,AFNE19.jpg,FN,3,num_8,32,num_6,2.01667623012,,,2017_May_31_1117,60.0037914303,FEMA4ImagesEEG,001,200364,
,,,,,,,,,,,,,,,,,,,,,,,,,,,,,,,,,,,,,,,,,,,space,6.18296479783,2017_May_31_1117,60.0037914303,FEMA4ImagesEEG,001,200364,
AFNE01.JPG,AFNE01.JPG,AFNE01.JPG,AFNE01.JPG,AFNE01.JPG,AFNE01.JPG,,,,,,,,,,,,,,,,,,,,,0,0,0,7,,,AMSA14.jpg,AMNE08.jpg,AMNE03.jpg,AMSA15.jpg,AMNE03.jpg,MN,1,num_2,32,num_6,0.733513246989,,,2017_May_31_1117,60.0037914303,FEMA4ImagesEEG,001,200364,
AFNE01.JPG,AFNE01.JPG,AFNE01.JPG,AFNE01.JPG,AFNE01.JPG,AFNE01.JPG,,,,,,,,,,,,,,,,,,,,,0,1,1,1,,,AMNE04.jpg,AMNE09.jpg,AMSA19.jpg,AMSA01.jpg,AMNE04.jpg,MN,1,num_8,32,num_2,0.633479601238,,,2017_May_31_1117,60.0037914303,FEMA4ImagesEEG,001,200364,
AFNE01.JPG,AFNE01.JPG,AFNE01.JPG,AFNE01.JPG,AFNE01.JPG,AFNE01.JPG,,,,,,,,,,,,,,,,,,,,,0,2,2,3,,,AMSA06.jpg,AMSA11.jpg,AMNE03.jpg,AMNE10.jpg,AMSA11.jpg,MS,2,num_6,16,num_6,1.06670010905,,,2017_May_31_1117,60.0037914303,FEMA4ImagesEEG,001,200364,
AFNE01.JPG,AFNE01.JPG,AFNE01.JPG,AFNE01.JPG,AFNE01.JPG,AFNE01.JPG,,,,,,,,,,,,,,,,,,,,,0,3,3,4,,,AMSA02.jpg,AMNE07.jpg,AMNE15.jpg,AMSA10.jpg,AMNE15.jpg,MN,1,num_2,16,num_2,1.11681604059,,,2017_May_31_1117,60.0037914303,FEMA4ImagesEEG,001,200364,
AFNE01.JPG,AFNE01.JPG,AFNE01.JPG,AFNE01.JPG,AFNE01.JPG,AFNE01.JPG,,,,,,,,,,,,,,,,,,,,,0,4,4,6,,,AMNE19.jpg,AMSA07.jpg,AMSA13.jpg,AMNE08.jpg,AMNE08.jpg,MN,1,num_4,16,num_4,1.40004766197,,,2017_May_31_1117,60.0037914303,FEMA4ImagesEEG,001,200364,
AFNE01.JPG,AFNE01.JPG,AFNE01.JPG,AFNE01.JPG,AFNE01.JPG,AFNE01.JPG,,,,,,,,,,,,,,,,,,,,,0,5,5,8,,,AMSA06.jpg,AMNE17.jpg,AMSA07.jpg,AMNE14.jpg,AMSA06.jpg,MS,2,num_8,32,num_4,1.03344387095,,,2017_May_31_1117,60.0037914303,FEMA4ImagesEEG,001,200364,
AFNE01.JPG,AFNE01.JPG,AFNE01.JPG,AFNE01.JPG,AFNE01.JPG,AFNE01.JPG,,,,,,,,,,,,,,,,,,,,,0,6,6,9,,,AMNE14.jpg,AMSA14.jpg,AMNE18.jpg,AMSA16.jpg,AMNE14.jpg,MN,1,num_8,32,num_6,2.93332330487,,,2017_May_31_1117,60.0037914303,FEMA4ImagesEEG,001,200364,
AFNE01.JPG,AFNE01.JPG,AFNE01.JPG,AFNE01.JPG,AFNE01.JPG,AFNE01.JPG,,,,,,,,,,,,,,,,,,,,,0,7,7,2,,,AMSA20.jpg,AMNE16.jpg,AMSA02.jpg,AMNE07.jpg,AMNE07.jpg,MN,1,num_4,16,num_4,1.15014348296,,,2017_May_31_1117,60.0037914303,FEMA4ImagesEEG,001,200364,
AFNE01.JPG,AFNE01.JPG,AFNE01.JPG,AFNE01.JPG,AFNE01.JPG,AFNE01.JPG,,,,,,,,,,,,,,,,,,,,,0,8,8,5,,,AMSA20.jpg,AMNE17.jpg,AMNE20.jpg,AMSA09.jpg,AMSA09.jpg,MS,2,num_4,32,num_8,0.333342741709,,,2017_May_31_1117,60.0037914303,FEMA4ImagesEEG,001,200364,
AFNE01.JPG,AFNE01.JPG,AFNE01.JPG,AFNE01.JPG,AFNE01.JPG,AFNE01.JPG,,,,,,,,,,,,,,,,,,,,,0,9,9,0,,,AMSA19.jpg,AMNE09.jpg,AMNE07.jpg,AMSA06.jpg,AMSA06.jpg,MS,2,num_4,32,num_8,2.51662378898,,,2017_May_31_1117,60.0037914303,FEMA4ImagesEEG,001,200364,
AFNE01.JPG,AFNE01.JPG,AFNE01.JPG,AFNE01.JPG,AFNE01.JPG,AFNE01.JPG,,,,,,,,,,,,,,,,,,,,,1,0,10,5,,,AMSA20.jpg,AMNE15.jpg,AMNE11.jpg,AMSA16.jpg,AMNE15.jpg,MN,1,num_6,16,num_6,4.41649424215,,,2017_May_31_1117,60.0037914303,FEMA4ImagesEEG,001,200364,
AFNE01.JPG,AFNE01.JPG,AFNE01.JPG,AFNE01.JPG,AFNE01.JPG,AFNE01.JPG,,,,,,,,,,,,,,,,,,,,,1,1,11,1,,,AMSA18.jpg,AMSA09.jpg,AMNE04.jpg,AMNE03.jpg,AMNE04.jpg,MN,1,num_2,48,None,,,,2017_May_31_1117,60.0037914303,FEMA4ImagesEEG,001,200364,
AFNE01.JPG,AFNE01.JPG,AFNE01.JPG,AFNE01.JPG,AFNE01.JPG,AFNE01.JPG,,,,,,,,,,,,,,,,,,,,,1,2,12,7,,,AMSA17.jpg,AMNE14.jpg,AMSA19.jpg,AMNE03.jpg,AMSA17.jpg,MS,2,num_8,32,num_6,1.58313049213,,,2017_May_31_1117,60.0037914303,FEMA4ImagesEEG,001,200364,
AFNE01.JPG,AFNE01.JPG,AFNE01.JPG,AFNE01.JPG,AFNE01.JPG,AFNE01.JPG,,,,,,,,,,,,,,,,,,,,,1,3,13,3,,,AMSA07.jpg,AMNE08.jpg,AMSA16.jpg,AMNE14.jpg,AMNE14.jpg,MN,1,num_4,32,num_8,0.033498717472,,,2017_May_31_1117,60.0037914303,FEMA4ImagesEEG,001,200364,
AFNE01.JPG,AFNE01.JPG,AFNE01.JPG,AFNE01.JPG,AFNE01.JPG,AFNE01.JPG,,,,,,,,,,,,,,,,,,,,,1,4,14,8,,,AMSA14.jpg,AMNE01.jpg,AMSA20.jpg,AMNE14.jpg,AMSA14.jpg,MS,2,num_8,16,num_8,2.4999793123,,,2017_May_31_1117,60.0037914303,FEMA4ImagesEEG,001,200364,
AFNE01.JPG,AFNE01.JPG,AFNE01.JPG,AFNE01.JPG,AFNE01.JPG,AFNE01.JPG,,,,,,,,,,,,,,,,,,,,,1,5,15,9,,,AMNE15.jpg,AMSA16.jpg,AMNE04.jpg,AMSA12.jpg,AMNE04.jpg,MN,1,num_2,32,num_8,0.400156392716,,,2017_May_31_1117,60.0037914303,FEMA4ImagesEEG,001,200364,
AFNE01.JPG,AFNE01.JPG,AFNE01.JPG,AFNE01.JPG,AFNE01.JPG,AFNE01.JPG,,,,,,,,,,,,,,,,,,,,,1,6,16,0,,,AMSA08.jpg,AMNE17.jpg,AMNE15.jpg,AMSA07.jpg,AMSA07.jpg,MS,2,num_4,32,num_8,0.366620469373,,,2017_May_31_1117,60.0037914303,FEMA4ImagesEEG,001,200364,
AFNE01.JPG,AFNE01.JPG,AFNE01.JPG,AFNE01.JPG,AFNE01.JPG,AFNE01.JPG,,,,,,,,,,,,,,,,,,,,,1,7,17,2,,,AMSA17.jpg,AMNE02.jpg,AMSA13.jpg,AMNE12.jpg,AMNE12.jpg,MN,1,num_4,16,num_4,0.0835421616212,,,2017_May_31_1117,60.0037914303,FEMA4ImagesEEG,001,200364,
AFNE01.JPG,AFNE01.JPG,AFNE01.JPG,AFNE01.JPG,AFNE01.JPG,AFNE01.JPG,,,,,,,,,,,,,,,,,,,,,1,8,18,4,,,AMSA17.jpg,AMNE04.jpg,AMSA13.jpg,AMNE08.jpg,AMSA13.jpg,MS,2,num_2,48,None,,,,2017_May_31_1117,60.0037914303,FEMA4ImagesEEG,001,200364,
AFNE01.JPG,AFNE01.JPG,AFNE01.JPG,AFNE01.JPG,AFNE01.JPG,AFNE01.JPG,,,,,,,,,,,,,,,,,,,,,1,9,19,6,,,AMSA20.jpg,AMSA02.jpg,AMNE11.jpg,AMNE02.jpg,AMSA20.jpg,MS,2,num_8,48,None,,,,2017_May_31_1117,60.0037914303,FEMA4ImagesEEG,001,200364,
AFNE01.JPG,AFNE01.JPG,AFNE01.JPG,AFNE01.JPG,AFNE01.JPG,AFNE01.JPG,,,,,,,,,,,,,,,,,,,,,2,0,20,6,,,AMSA02.jpg,AMNE18.jpg,AMSA05.jpg,AMNE11.jpg,AMNE11.jpg,MN,1,num_4,48,None,,,,2017_May_31_1117,60.0037914303,FEMA4ImagesEEG,001,200364,
AFNE01.JPG,AFNE01.JPG,AFNE01.JPG,AFNE01.JPG,AFNE01.JPG,AFNE01.JPG,,,,,,,,,,,,,,,,,,,,,2,1,21,9,,,AMSA06.jpg,AMNE05.jpg,AMSA09.jpg,AMNE11.jpg,AMNE11.jpg,MN,1,num_4,48,None,,,,2017_May_31_1117,60.0037914303,FEMA4ImagesEEG,001,200364,
AFNE01.JPG,AFNE01.JPG,AFNE01.JPG,AFNE01.JPG,AFNE01.JPG,AFNE01.JPG,,,,,,,,,,,,,,,,,,,,,2,2,22,3,,,AMNE10.jpg,AMNE19.jpg,AMSA14.jpg,AMSA09.jpg,AMSA09.jpg,MS,2,num_4,32,num_6,4.91650819452,,,2017_May_31_1117,60.0037914303,FEMA4ImagesEEG,001,200364,
AFNE01.JPG,AFNE01.JPG,AFNE01.JPG,AFNE01.JPG,AFNE01.JPG,AFNE01.JPG,,,,,,,,,,,,,,,,,,,,,2,3,23,2,,,AMNE10.jpg,AMNE16.jpg,AMSA18.jpg,AMSA11.jpg,AMNE10.jpg,MN,1,num_8,32,num_6,0.300269966712,,,2017_May_31_1117,60.0037914303,FEMA4ImagesEEG,001,200364,
AFNE01.JPG,AFNE01.JPG,AFNE01.JPG,AFNE01.JPG,AFNE01.JPG,AFNE01.JPG,,,,,,,,,,,,,,,,,,,,,2,4,24,1,,,AMNE13.jpg,AMNE08.jpg,AMSA11.jpg,AMSA05.jpg,AMNE13.jpg,MN,1,num_8,32,num_6,0.283489496214,,,2017_May_31_1117,60.0037914303,FEMA4ImagesEEG,001,200364,
AFNE01.JPG,AFNE01.JPG,AFNE01.JPG,AFNE01.JPG,AFNE01.JPG,AFNE01.JPG,,,,,,,,,,,,,,,,,,,,,2,5,25,5,,,AMSA01.jpg,AMSA15.jpg,AMNE03.jpg,AMNE19.jpg,AMNE03.jpg,MN,1,num_2,32,num_8,0.316798335873,,,2017_May_31_1117,60.0037914303,FEMA4ImagesEEG,001,200364,
AFNE01.JPG,AFNE01.JPG,AFNE01.JPG,AFNE01.JPG,AFNE01.JPG,AFNE01.JPG,,,,,,,,,,,,,,,,,,,,,2,6,26,0,,,AMSA15.jpg,AMSA09.jpg,AMNE16.jpg,AMNE04.jpg,AMSA09.jpg,MS,2,num_6,16,num_6,0.583449307596,,,2017_May_31_1117,60.0037914303,FEMA4ImagesEEG,001,200364,
AFNE01.JPG,AFNE01.JPG,AFNE01.JPG,AFNE01.JPG,AFNE01.JPG,AFNE01.JPG,,,,,,,,,,,,,,,,,,,,,2,7,27,7,,,AMNE09.jpg,AMNE18.jpg,AMSA16.jpg,AMSA18.jpg,AMSA18.jpg,MS,2,num_4,32,num_6,0.583475928986,,,2017_May_31_1117,60.0037914303,FEMA4ImagesEEG,001,200364,
AFNE01.JPG,AFNE01.JPG,AFNE01.JPG,AFNE01.JPG,AFNE01.JPG,AFNE01.JPG,,,,,,,,,,,,,,,,,,,,,2,8,28,4,,,AMNE18.jpg,AMNE17.jpg,AMSA06.jpg,AMSA13.jpg,AMNE18.jpg,MN,1,num_8,16,num_8,0.583561566425,,,2017_May_31_1117,60.0037914303,FEMA4ImagesEEG,001,200364,
AFNE01.JPG,AFNE01.JPG,AFNE01.JPG,AFNE01.JPG,AFNE01.JPG,AFNE01.JPG,,,,,,,,,,,,,,,,,,,,,2,9,29,8,,,AMNE04.jpg,AMSA08.jpg,AMNE08.jpg,AMSA01.jpg,AMSA08.jpg,MS,2,num_6,32,num_2,0.983436991228,,,2017_May_31_1117,60.0037914303,FEMA4ImagesEEG,001,200364,
AFNE01.JPG,AFNE01.JPG,AFNE01.JPG,AFNE01.JPG,AFNE01.JPG,AFNE01.JPG,,,,,,,,,,,,,,,,,,,,,3,0,30,5,,,AMNE01.jpg,AMSA13.jpg,AMSA15.jpg,AMNE17.jpg,AMNE01.jpg,MN,1,num_8,16,num_8,0.883450814988,,,2017_May_31_1117,60.0037914303,FEMA4ImagesEEG,001,200364,
AFNE01.JPG,AFNE01.JPG,AFNE01.JPG,AFNE01.JPG,AFNE01.JPG,AFNE01.JPG,,,,,,,,,,,,,,,,,,,,,3,1,31,7,,,AMNE17.jpg,AMNE02.jpg,AMSA03.jpg,AMSA12.jpg,AMNE17.jpg,MN,1,num_8,32,num_4,0.766772051109,,,2017_May_31_1117,60.0037914303,FEMA4ImagesEEG,001,200364,
AFNE01.JPG,AFNE01.JPG,AFNE01.JPG,AFNE01.JPG,AFNE01.JPG,AFNE01.JPG,,,,,,,,,,,,,,,,,,,,,3,2,32,0,,,AMNE08.jpg,AMSA11.jpg,AMSA19.jpg,AMNE20.jpg,AMSA19.jpg,MS,2,num_2,32,num_8,0.983445651131,,,2017_May_31_1117,60.0037914303,FEMA4ImagesEEG,001,200364,
AFNE01.JPG,AFNE01.JPG,AFNE01.JPG,AFNE01.JPG,AFNE01.JPG,AFNE01.JPG,,,,,,,,,,,,,,,,,,,,,3,3,33,8,,,AMNE15.jpg,AMSA09.jpg,AMSA16.jpg,AMNE13.jpg,AMSA09.jpg,MS,2,num_6,16,num_6,0.766781994142,,,2017_May_31_1117,60.0037914303,FEMA4ImagesEEG,001,200364,
AFNE01.JPG,AFNE01.JPG,AFNE01.JPG,AFNE01.JPG,AFNE01.JPG,AFNE01.JPG,,,,,,,,,,,,,,,,,,,,,3,4,34,9,,,AMNE18.jpg,AMSA09.jpg,AMNE10.jpg,AMSA16.jpg,AMSA09.jpg,MS,2,num_6,32,num_8,0.383499086369,,,2017_May_31_1117,60.0037914303,FEMA4ImagesEEG,001,200364,
AFNE01.JPG,AFNE01.JPG,AFNE01.JPG,AFNE01.JPG,AFNE01.JPG,AFNE01.JPG,,,,,,,,,,,,,,,,,,,,,3,5,35,3,,,AMNE08.jpg,AMSA09.jpg,AMSA20.jpg,AMNE01.jpg,AMNE01.jpg,MN,1,num_4,16,num_4,0.333476490341,,,2017_May_31_1117,60.0037914303,FEMA4ImagesEEG,001,200364,
AFNE01.JPG,AFNE01.JPG,AFNE01.JPG,AFNE01.JPG,AFNE01.JPG,AFNE01.JPG,,,,,,,,,,,,,,,,,,,,,3,6,36,6,,,AMNE04.jpg,AMSA11.jpg,AMSA13.jpg,AMNE19.jpg,AMNE04.jpg,MN,1,num_8,16,num_8,0.91673559905,,,2017_May_31_1117,60.0037914303,FEMA4ImagesEEG,001,200364,
AFNE01.JPG,AFNE01.JPG,AFNE01.JPG,AFNE01.JPG,AFNE01.JPG,AFNE01.JPG,,,,,,,,,,,,,,,,,,,,,3,7,37,1,,,AMSA01.jpg,AMSA13.jpg,AMNE14.jpg,AMNE20.jpg,AMSA01.jpg,MS,2,num_8,16,num_8,0.866765924962,,,2017_May_31_1117,60.0037914303,FEMA4ImagesEEG,001,200364,
AFNE01.JPG,AFNE01.JPG,AFNE01.JPG,AFNE01.JPG,AFNE01.JPG,AFNE01.JPG,,,,,,,,,,,,,,,,,,,,,3,8,38,2,,,AMSA05.jpg,AMSA18.jpg,AMNE13.jpg,AMNE16.jpg,AMNE16.jpg,MN,1,num_4,16,num_4,0.716740474338,,,2017_May_31_1117,60.0037914303,FEMA4ImagesEEG,001,200364,
AFNE01.JPG,AFNE01.JPG,AFNE01.JPG,AFNE01.JPG,AFNE01.JPG,AFNE01.JPG,,,,,,,,,,,,,,,,,,,,,3,9,39,4,,,AMSA16.jpg,AMSA17.jpg,AMNE10.jpg,AMNE03.jpg,AMSA17.jpg,MS,2,num_6,16,num_6,0.783475544071,,,2017_May_31_1117,60.0037914303,FEMA4ImagesEEG,001,200364,
