IPosition2,IPosition3,IPosition1,IPosition6,IPosition4,IPosition5,TrialsF1.thisRepN,TrialsF1.thisTrialN,TrialsF1.thisN,TrialsF1.thisIndex,TrialsM1.thisRepN,TrialsM1.thisTrialN,TrialsM1.thisN,TrialsM1.thisIndex,TrialsF2.thisRepN,TrialsF2.thisTrialN,TrialsF2.thisN,TrialsF2.thisIndex,TrialsM2.thisRepN,TrialsM2.thisTrialN,TrialsM2.thisN,TrialsM2.thisIndex,TrialsF3.thisRepN,TrialsF3.thisTrialN,TrialsF3.thisN,TrialsF3.thisIndex,TrialsM3.thisRepN,TrialsM3.thisTrialN,TrialsM3.thisN,TrialsM3.thisIndex,InstrKey_resp.keys,InstrKey_resp.rt,Image0 _Position,Image1 _Position,Image2 _Position,Image3 _Position,Center_image,condition,code,correct_answer,accuracy,Key_Resp.keys,Key_Resp.rt,BreakKey_resp.keys,BreakKey_resp.rt,date,frameRate,expName,session,participant,
,,,,,,,,,,,,,,,,,,,,,,,,,,,,,,space,50.7128214487,,,,,,,,,,,,,,2017_May_01_1232,60.0031369795,FEMA4ImagesEEG,001,200301,
AFNE22.JPG,AFSA24.JPG,AFSA22.JPG,AFNE25.JPG,AFNE24.JPG,AFSA25.JPG,0,0,0,6,,,,,,,,,,,,,,,,,,,,,,,AFNE06.jpg,AFSA16.jpg,AFNE10.jpg,AFSA03.jpg,AFSA03.jpg,FS,4,num_4,32,num_8,0.816769778961,,,2017_May_01_1232,60.0031369795,FEMA4ImagesEEG,001,200301,
AFNE23.JPG,AFNE24.JPG,AFNE22.JPG,AFSA24.JPG,AFSA22.JPG,AFSA23.JPG,0,1,1,8,,,,,,,,,,,,,,,,,,,,,,,AFSA10.jpg,AFSA01.jpg,AFNE20.jpg,AFNE08.jpg,AFSA10.jpg,FS,4,num_8,16,num_8,0.900191449095,,,2017_May_01_1232,60.0031369795,FEMA4ImagesEEG,001,200301,
AMSA21.JPG,AMNE22.JPG,AMNE21.JPG,AMSA23.JPG,AMSA22.JPG,AMNE23.JPG,0,2,2,1,,,,,,,,,,,,,,,,,,,,,,,AFSA08.jpg,AFNE01.jpg,AFSA11.jpg,AFNE13.jpg,AFNE13.jpg,FN,3,num_4,16,num_4,1.21670928737,,,2017_May_01_1232,60.0031369795,FEMA4ImagesEEG,001,200301,
AMSA25.JPG,AMNE24.JPG,AMSA24.JPG,AMNE26.JPG,AMSA21.JPG,AMNE25.JPG,0,3,3,3,,,,,,,,,,,,,,,,,,,,,,,AFSA04.jpg,AFNE10.jpg,AFNE16.jpg,AFSA16.jpg,AFNE10.jpg,FN,3,num_6,16,num_6,0.733490837505,,,2017_May_01_1232,60.0031369795,FEMA4ImagesEEG,001,200301,
AFSA21.JPG,AFNE22.JPG,AFNE21.JPG,AFSA23.JPG,AFSA22.JPG,AFNE23.JPG,0,4,4,0,,,,,,,,,,,,,,,,,,,,,,,AFSA17.jpg,AFNE15.jpg,AFNE11.jpg,AFSA06.jpg,AFSA06.jpg,FS,4,num_4,16,num_4,0.933473581914,,,2017_May_01_1232,60.0031369795,FEMA4ImagesEEG,001,200301,
AMSA21.JPG,AMNE23.JPG,AMNE21.JPG,AMSA25.JPG,AMNE25.JPG,AMSA23.JPG,0,5,5,5,,,,,,,,,,,,,,,,,,,,,,,AFSA03.jpg,AFSA19.jpg,AFNE03.jpg,AFNE14.jpg,AFSA03.jpg,FS,4,num_8,32,num_4,1.06679327297,,,2017_May_01_1232,60.0031369795,FEMA4ImagesEEG,001,200301,
AMNE23.JPG,AMNE24.JPG,AMNE22.JPG,AMSA24.JPG,AMSA22.JPG,AMSA23.JPG,0,6,6,9,,,,,,,,,,,,,,,,,,,,,,,AFNE16.jpg,AFNE20.jpg,AFSA17.jpg,AFSA07.jpg,AFSA07.jpg,FS,4,num_4,16,num_4,1.66675465624,,,2017_May_01_1232,60.0031369795,FEMA4ImagesEEG,001,200301,
AFSA21.JPG,AFNE23.JPG,AFNE21.JPG,AFSA25.JPG,AFNE25.JPG,AFSA23.JPG,0,7,7,4,,,,,,,,,,,,,,,,,,,,,,,AFNE16.jpg,AFNE06.jpg,AFSA04.jpg,AFSA10.jpg,AFSA04.jpg,FS,4,num_2,16,num_2,2.28335341695,,,2017_May_01_1232,60.0031369795,FEMA4ImagesEEG,001,200301,
AFSA25.JPG,AFNE24.JPG,AFSA24.JPG,AFNE21.JPG,AFSA21.JPG,AFNE25.JPG,0,8,8,2,,,,,,,,,,,,,,,,,,,,,,,AFNE01.jpg,AFNE06.jpg,AFSA10.jpg,AFSA13.jpg,AFSA13.jpg,FS,4,num_4,32,num_2,0.933474223362,,,2017_May_01_1232,60.0031369795,FEMA4ImagesEEG,001,200301,
AMNE22.JPG,AMSA24.JPG,AMSA22.JPG,AMNE25.JPG,AMNE24.JPG,AMSA25.JPG,0,9,9,7,,,,,,,,,,,,,,,,,,,,,,,AFSA04.jpg,AFSA20.jpg,AFNE09.jpg,AFNE02.jpg,AFSA04.jpg,FS,4,num_8,32,num_2,0.849838299211,,,2017_May_01_1232,60.0031369795,FEMA4ImagesEEG,001,200301,
AFNE23.JPG,AFNE24.JPG,AFNE22.JPG,AFSA24.JPG,AFSA22.JPG,AFSA23.JPG,,,,,0,0,0,8,,,,,,,,,,,,,,,,,,,AMSA04.jpg,AMNE01.jpg,AMNE13.jpg,AMSA19.jpg,AMSA19.jpg,MS,2,num_4,16,num_4,0.950109676691,,,2017_May_01_1232,60.0031369795,FEMA4ImagesEEG,001,200301,
AFSA25.JPG,AFNE24.JPG,AFSA24.JPG,AFNE21.JPG,AFSA21.JPG,AFNE25.JPG,,,,,0,1,1,2,,,,,,,,,,,,,,,,,,,AMSA02.jpg,AMSA13.jpg,AMNE10.jpg,AMNE12.jpg,AMSA02.jpg,MS,2,num_8,32,num_4,1.11678559147,,,2017_May_01_1232,60.0031369795,FEMA4ImagesEEG,001,200301,
AFSA21.JPG,AFNE23.JPG,AFNE21.JPG,AFSA25.JPG,AFNE25.JPG,AFSA23.JPG,,,,,0,2,2,4,,,,,,,,,,,,,,,,,,,AMSA07.jpg,AMNE17.jpg,AMSA08.jpg,AMNE12.jpg,AMSA07.jpg,MS,2,num_8,16,num_8,1.10012127156,,,2017_May_01_1232,60.0031369795,FEMA4ImagesEEG,001,200301,
AFSA21.JPG,AFNE22.JPG,AFNE21.JPG,AFSA23.JPG,AFSA22.JPG,AFNE23.JPG,,,,,0,3,3,0,,,,,,,,,,,,,,,,,,,AMNE07.jpg,AMSA03.jpg,AMSA20.jpg,AMNE16.jpg,AMSA03.jpg,MS,2,num_6,32,num_2,1.10007187771,,,2017_May_01_1232,60.0031369795,FEMA4ImagesEEG,001,200301,
AMNE22.JPG,AMSA24.JPG,AMSA22.JPG,AMNE25.JPG,AMNE24.JPG,AMSA25.JPG,,,,,0,4,4,7,,,,,,,,,,,,,,,,,,,AMSA13.jpg,AMNE12.jpg,AMNE13.jpg,AMSA02.jpg,AMNE12.jpg,MN,1,num_6,32,num_2,1.15008889278,,,2017_May_01_1232,60.0031369795,FEMA4ImagesEEG,001,200301,
AFNE22.JPG,AFSA24.JPG,AFSA22.JPG,AFNE25.JPG,AFNE24.JPG,AFSA25.JPG,,,,,0,5,5,6,,,,,,,,,,,,,,,,,,,AMSA01.jpg,AMNE12.jpg,AMNE07.jpg,AMSA07.jpg,AMNE07.jpg,MN,1,num_2,32,num_6,0.766783875413,,,2017_May_01_1232,60.0031369795,FEMA4ImagesEEG,001,200301,
AMSA21.JPG,AMNE22.JPG,AMNE21.JPG,AMSA23.JPG,AMSA22.JPG,AMNE23.JPG,,,,,0,6,6,1,,,,,,,,,,,,,,,,,,,AMSA14.jpg,AMNE14.jpg,AMSA03.jpg,AMNE10.jpg,AMSA14.jpg,MS,2,num_8,16,num_8,1.26672181231,,,2017_May_01_1232,60.0031369795,FEMA4ImagesEEG,001,200301,
AMNE23.JPG,AMNE24.JPG,AMNE22.JPG,AMSA24.JPG,AMSA22.JPG,AMSA23.JPG,,,,,0,7,7,9,,,,,,,,,,,,,,,,,,,AMSA11.jpg,AMNE10.jpg,AMSA16.jpg,AMNE19.jpg,AMSA11.jpg,MS,2,num_8,32,num_6,0.883436360164,,,2017_May_01_1232,60.0031369795,FEMA4ImagesEEG,001,200301,
AMSA21.JPG,AMNE23.JPG,AMNE21.JPG,AMSA25.JPG,AMNE25.JPG,AMSA23.JPG,,,,,0,8,8,5,,,,,,,,,,,,,,,,,,,AMSA14.jpg,AMSA07.jpg,AMNE12.jpg,AMNE02.jpg,AMNE12.jpg,MN,1,num_2,32,num_4,0.900094906567,,,2017_May_01_1232,60.0031369795,FEMA4ImagesEEG,001,200301,
AMSA25.JPG,AMNE24.JPG,AMSA24.JPG,AMNE26.JPG,AMSA21.JPG,AMNE25.JPG,,,,,0,9,9,3,,,,,,,,,,,,,,,,,,,AMSA19.jpg,AMNE19.jpg,AMSA07.jpg,AMNE11.jpg,AMNE19.jpg,MN,1,num_6,32,num_2,0.850110606989,,,2017_May_01_1232,60.0031369795,FEMA4ImagesEEG,001,200301,
AMSA21.JPG,AMNE22.JPG,AMNE21.JPG,AMSA23.JPG,AMSA22.JPG,AMNE23.JPG,,,,,,,,,0,0,0,1,,,,,,,,,,,,,,,AFSA07.jpg,AFNE15.jpg,AFSA03.jpg,AFNE01.jpg,AFNE15.jpg,FN,3,num_6,16,num_6,0.683499802137,,,2017_May_01_1232,60.0031369795,FEMA4ImagesEEG,001,200301,
AFSA25.JPG,AFNE24.JPG,AFSA24.JPG,AFNE21.JPG,AFSA21.JPG,AFNE25.JPG,,,,,,,,,0,1,1,2,,,,,,,,,,,,,,,AFSA15.jpg,AFSA17.jpg,AFNE10.jpg,AFNE07.jpg,AFSA15.jpg,FS,4,num_8,16,num_8,0.700135255698,,,2017_May_01_1232,60.0031369795,FEMA4ImagesEEG,001,200301,
AMSA25.JPG,AMNE24.JPG,AMSA24.JPG,AMNE26.JPG,AMSA21.JPG,AMNE25.JPG,,,,,,,,,0,2,2,3,,,,,,,,,,,,,,,AFNE04.jpg,AFSA03.jpg,AFNE18.jpg,AFSA01.jpg,AFNE04.jpg,FN,3,num_8,32,num_2,1.05000931746,,,2017_May_01_1232,60.0031369795,FEMA4ImagesEEG,001,200301,
AMSA21.JPG,AMNE23.JPG,AMNE21.JPG,AMSA25.JPG,AMNE25.JPG,AMSA23.JPG,,,,,,,,,0,3,3,5,,,,,,,,,,,,,,,AFSA04.jpg,AFNE01.jpg,AFSA17.jpg,AFNE04.jpg,AFSA04.jpg,FS,4,num_8,32,num_4,0.816713008098,,,2017_May_01_1232,60.0031369795,FEMA4ImagesEEG,001,200301,
AMNE22.JPG,AMSA24.JPG,AMSA22.JPG,AMNE25.JPG,AMNE24.JPG,AMSA25.JPG,,,,,,,,,0,4,4,7,,,,,,,,,,,,,,,AFSA20.jpg,AFNE08.jpg,AFSA09.jpg,AFNE15.jpg,AFSA09.jpg,FS,4,num_2,16,num_2,1.06671020156,,,2017_May_01_1232,60.0031369795,FEMA4ImagesEEG,001,200301,
AFNE22.JPG,AFSA24.JPG,AFSA22.JPG,AFNE25.JPG,AFNE24.JPG,AFSA25.JPG,,,,,,,,,0,5,5,6,,,,,,,,,,,,,,,AFNE03.jpg,AFSA14.jpg,AFSA02.jpg,AFNE07.jpg,AFSA14.jpg,FS,4,num_6,32,num_4,1.05007506884,,,2017_May_01_1232,60.0031369795,FEMA4ImagesEEG,001,200301,
AFNE23.JPG,AFNE24.JPG,AFNE22.JPG,AFSA24.JPG,AFSA22.JPG,AFSA23.JPG,,,,,,,,,0,6,6,8,,,,,,,,,,,,,,,AFSA19.jpg,AFNE12.jpg,AFNE07.jpg,AFSA20.jpg,AFSA19.jpg,FS,4,num_8,32,num_6,1.15010653343,,,2017_May_01_1232,60.0031369795,FEMA4ImagesEEG,001,200301,
AMNE23.JPG,AMNE24.JPG,AMNE22.JPG,AMSA24.JPG,AMSA22.JPG,AMSA23.JPG,,,,,,,,,0,7,7,9,,,,,,,,,,,,,,,AFSA11.jpg,AFNE02.jpg,AFNE09.jpg,AFSA09.jpg,AFSA11.jpg,FS,4,num_8,32,num_2,0.700226987246,,,2017_May_01_1232,60.0031369795,FEMA4ImagesEEG,001,200301,
AFSA21.JPG,AFNE22.JPG,AFNE21.JPG,AFSA23.JPG,AFSA22.JPG,AFNE23.JPG,,,,,,,,,0,8,8,0,,,,,,,,,,,,,,,AFNE09.jpg,AFNE14.jpg,AFSA19.jpg,AFSA11.jpg,AFNE14.jpg,FN,3,num_6,32,num_4,0.850002517691,,,2017_May_01_1232,60.0031369795,FEMA4ImagesEEG,001,200301,
AFSA21.JPG,AFNE23.JPG,AFNE21.JPG,AFSA25.JPG,AFNE25.JPG,AFSA23.JPG,,,,,,,,,0,9,9,4,,,,,,,,,,,,,,,AFNE19.jpg,AFNE08.jpg,AFSA06.jpg,AFSA20.jpg,AFNE19.jpg,FN,3,num_8,32,num_6,0.700146802235,,,2017_May_01_1232,60.0031369795,FEMA4ImagesEEG,001,200301,
AFNE23.JPG,AFNE24.JPG,AFNE22.JPG,AFSA24.JPG,AFSA22.JPG,AFSA23.JPG,,,,,,,,,,,,,0,0,0,8,,,,,,,,,,,AMSA16.jpg,AMNE04.jpg,AMSA07.jpg,AMNE15.jpg,AMSA16.jpg,MS,2,num_8,32,num_2,1.05013568862,,,2017_May_01_1232,60.0031369795,FEMA4ImagesEEG,001,200301,
AFNE22.JPG,AFSA24.JPG,AFSA22.JPG,AFNE25.JPG,AFNE24.JPG,AFSA25.JPG,,,,,,,,,,,,,0,1,1,6,,,,,,,,,,,AMSA07.jpg,AMNE06.jpg,AMNE07.jpg,AMSA09.jpg,AMNE06.jpg,MN,1,num_6,32,num_8,0.966728451662,,,2017_May_01_1232,60.0031369795,FEMA4ImagesEEG,001,200301,
AMSA21.JPG,AMNE23.JPG,AMNE21.JPG,AMSA25.JPG,AMNE25.JPG,AMSA23.JPG,,,,,,,,,,,,,0,2,2,5,,,,,,,,,,,AMSA15.jpg,AMNE02.jpg,AMSA01.jpg,AMNE09.jpg,AMSA15.jpg,MS,2,num_8,16,num_8,1.71671746625,,,2017_May_01_1232,60.0031369795,FEMA4ImagesEEG,001,200301,
AFSA21.JPG,AFNE22.JPG,AFNE21.JPG,AFSA23.JPG,AFSA22.JPG,AFNE23.JPG,,,,,,,,,,,,,0,3,3,0,,,,,,,,,,,AMNE15.jpg,AMNE01.jpg,AMSA03.jpg,AMSA12.jpg,AMSA12.jpg,MS,2,num_4,16,num_4,0.90011030226,,,2017_May_01_1232,60.0031369795,FEMA4ImagesEEG,001,200301,
AFSA21.JPG,AFNE23.JPG,AFNE21.JPG,AFSA25.JPG,AFNE25.JPG,AFSA23.JPG,,,,,,,,,,,,,0,4,4,4,,,,,,,,,,,AMSA16.jpg,AMSA13.jpg,AMNE03.jpg,AMNE17.jpg,AMSA13.jpg,MS,2,num_6,32,num_4,1.31681580492,,,2017_May_01_1232,60.0031369795,FEMA4ImagesEEG,001,200301,
AMNE22.JPG,AMSA24.JPG,AMSA22.JPG,AMNE25.JPG,AMNE24.JPG,AMSA25.JPG,,,,,,,,,,,,,0,5,5,7,,,,,,,,,,,AMNE04.jpg,AMSA07.jpg,AMSA10.jpg,AMNE15.jpg,AMSA07.jpg,MS,2,num_6,16,num_6,1.16707587615,,,2017_May_01_1232,60.0031369795,FEMA4ImagesEEG,001,200301,
AFSA25.JPG,AFNE24.JPG,AFSA24.JPG,AFNE21.JPG,AFSA21.JPG,AFNE25.JPG,,,,,,,,,,,,,0,6,6,2,,,,,,,,,,,AMNE12.jpg,AMSA03.jpg,AMSA05.jpg,AMNE05.jpg,AMNE12.jpg,MN,1,num_8,32,num_4,1.11673555616,,,2017_May_01_1232,60.0031369795,FEMA4ImagesEEG,001,200301,
AMSA25.JPG,AMNE24.JPG,AMSA24.JPG,AMNE26.JPG,AMSA21.JPG,AMNE25.JPG,,,,,,,,,,,,,0,7,7,3,,,,,,,,,,,AMNE07.jpg,AMNE08.jpg,AMSA03.jpg,AMSA07.jpg,AMNE07.jpg,MN,1,num_8,16,num_8,0.600131053943,,,2017_May_01_1232,60.0031369795,FEMA4ImagesEEG,001,200301,
AMSA21.JPG,AMNE22.JPG,AMNE21.JPG,AMSA23.JPG,AMSA22.JPG,AMNE23.JPG,,,,,,,,,,,,,0,8,8,1,,,,,,,,,,,AMNE04.jpg,AMNE15.jpg,AMSA02.jpg,AMSA10.jpg,AMSA02.jpg,MS,2,num_2,32,num_4,1.40013323491,,,2017_May_01_1232,60.0031369795,FEMA4ImagesEEG,001,200301,
AMNE23.JPG,AMNE24.JPG,AMNE22.JPG,AMSA24.JPG,AMSA22.JPG,AMSA23.JPG,,,,,,,,,,,,,0,9,9,9,,,,,,,,,,,AMSA11.jpg,AMNE06.jpg,AMSA13.jpg,AMNE13.jpg,AMNE06.jpg,MN,1,num_6,32,num_4,0.883438605117,,,2017_May_01_1232,60.0031369795,FEMA4ImagesEEG,001,200301,
AMSA21.JPG,AMNE22.JPG,AMNE21.JPG,AMSA23.JPG,AMSA22.JPG,AMNE23.JPG,,,,,,,,,,,,,,,,,0,0,0,1,,,,,,,AFSA07.jpg,AFSA06.jpg,AFNE05.jpg,AFNE02.jpg,AFSA07.jpg,FS,4,num_8,16,num_8,0.683455860941,,,2017_May_01_1232,60.0031369795,FEMA4ImagesEEG,001,200301,
AMSA21.JPG,AMNE23.JPG,AMNE21.JPG,AMSA25.JPG,AMNE25.JPG,AMSA23.JPG,,,,,,,,,,,,,,,,,0,1,1,5,,,,,,,AFSA19.jpg,AFNE16.jpg,AFSA01.jpg,AFNE01.jpg,AFNE01.jpg,FN,3,num_4,16,num_4,0.550157338614,,,2017_May_01_1232,60.0031369795,FEMA4ImagesEEG,001,200301,
AMNE22.JPG,AMSA24.JPG,AMSA22.JPG,AMNE25.JPG,AMNE24.JPG,AMSA25.JPG,,,,,,,,,,,,,,,,,0,2,2,7,,,,,,,AFSA09.jpg,AFSA13.jpg,AFNE15.jpg,AFNE01.jpg,AFSA09.jpg,FS,4,num_8,16,num_8,1.21656623809,,,2017_May_01_1232,60.0031369795,FEMA4ImagesEEG,001,200301,
AFNE22.JPG,AFSA24.JPG,AFSA22.JPG,AFNE25.JPG,AFNE24.JPG,AFSA25.JPG,,,,,,,,,,,,,,,,,0,3,3,6,,,,,,,AFNE01.jpg,AFSA20.jpg,AFSA12.jpg,AFNE10.jpg,AFNE10.jpg,FN,3,num_4,32,num_6,1.16680709692,,,2017_May_01_1232,60.0031369795,FEMA4ImagesEEG,001,200301,
AMSA25.JPG,AMNE24.JPG,AMSA24.JPG,AMNE26.JPG,AMSA21.JPG,AMNE25.JPG,,,,,,,,,,,,,,,,,0,4,4,3,,,,,,,AFNE17.jpg,AFSA02.jpg,AFSA16.jpg,AFNE12.jpg,AFNE12.jpg,FN,3,num_4,32,num_8,1.00006735511,,,2017_May_01_1232,60.0031369795,FEMA4ImagesEEG,001,200301,
AFSA21.JPG,AFNE23.JPG,AFNE21.JPG,AFSA25.JPG,AFNE25.JPG,AFSA23.JPG,,,,,,,,,,,,,,,,,0,5,5,4,,,,,,,AFSA13.jpg,AFNE01.jpg,AFSA09.jpg,AFNE05.jpg,AFNE05.jpg,FN,3,num_4,32,num_6,0.300171370851,,,2017_May_01_1232,60.0031369795,FEMA4ImagesEEG,001,200301,
AFNE23.JPG,AFNE24.JPG,AFNE22.JPG,AFSA24.JPG,AFSA22.JPG,AFSA23.JPG,,,,,,,,,,,,,,,,,0,6,6,8,,,,,,,AFSA12.jpg,AFNE19.jpg,AFSA07.jpg,AFNE06.jpg,AFSA07.jpg,FS,4,num_2,16,num_2,1.11672080215,,,2017_May_01_1232,60.0031369795,FEMA4ImagesEEG,001,200301,
AFSA21.JPG,AFNE22.JPG,AFNE21.JPG,AFSA23.JPG,AFSA22.JPG,AFNE23.JPG,,,,,,,,,,,,,,,,,0,7,7,0,,,,,,,AFSA04.jpg,AFNE11.jpg,AFSA19.jpg,AFNE02.jpg,AFNE11.jpg,FN,3,num_6,16,num_6,0.650088411523,,,2017_May_01_1232,60.0031369795,FEMA4ImagesEEG,001,200301,
AMNE23.JPG,AMNE24.JPG,AMNE22.JPG,AMSA24.JPG,AMSA22.JPG,AMSA23.JPG,,,,,,,,,,,,,,,,,0,8,8,9,,,,,,,AFNE17.jpg,AFSA15.jpg,AFSA09.jpg,AFNE08.jpg,AFSA15.jpg,FS,4,num_6,16,num_6,0.783440176863,,,2017_May_01_1232,60.0031369795,FEMA4ImagesEEG,001,200301,
AFSA25.JPG,AFNE24.JPG,AFSA24.JPG,AFNE21.JPG,AFSA21.JPG,AFNE25.JPG,,,,,,,,,,,,,,,,,0,9,9,2,,,,,,,AFSA11.jpg,AFSA14.jpg,AFNE09.jpg,AFNE12.jpg,AFSA14.jpg,FS,4,num_6,32,num_8,1.08353874017,,,2017_May_01_1232,60.0031369795,FEMA4ImagesEEG,001,200301,
AFSA25.JPG,AFNE24.JPG,AFSA24.JPG,AFNE21.JPG,AFSA21.JPG,AFNE25.JPG,,,,,,,,,,,,,,,,,,,,,0,0,0,2,,,AMNE19.jpg,AMSA10.jpg,AMNE18.jpg,AMSA13.jpg,AMNE18.jpg,MN,1,num_2,16,num_2,0.616850861814,,,2017_May_01_1232,60.0031369795,FEMA4ImagesEEG,001,200301,
AMNE23.JPG,AMNE24.JPG,AMNE22.JPG,AMSA24.JPG,AMSA22.JPG,AMSA23.JPG,,,,,,,,,,,,,,,,,,,,,0,1,1,9,,,AMNE01.jpg,AMSA18.jpg,AMSA09.jpg,AMNE14.jpg,AMSA09.jpg,MS,2,num_2,16,num_2,0.383481744677,,,2017_May_01_1232,60.0031369795,FEMA4ImagesEEG,001,200301,
AMSA21.JPG,AMNE22.JPG,AMNE21.JPG,AMSA23.JPG,AMSA22.JPG,AMNE23.JPG,,,,,,,,,,,,,,,,,,,,,0,2,2,1,,,AMNE14.jpg,AMSA05.jpg,AMNE13.jpg,AMSA04.jpg,AMNE14.jpg,MN,1,num_8,16,num_8,0.800165437162,,,2017_May_01_1232,60.0031369795,FEMA4ImagesEEG,001,200301,
AMNE22.JPG,AMSA24.JPG,AMSA22.JPG,AMNE25.JPG,AMNE24.JPG,AMSA25.JPG,,,,,,,,,,,,,,,,,,,,,0,3,3,7,,,AMSA17.jpg,AMNE07.jpg,AMNE19.jpg,AMSA13.jpg,AMSA13.jpg,MS,2,num_4,16,num_4,0.400131952018,,,2017_May_01_1232,60.0031369795,FEMA4ImagesEEG,001,200301,
AFNE22.JPG,AFSA24.JPG,AFSA22.JPG,AFNE25.JPG,AFNE24.JPG,AFSA25.JPG,,,,,,,,,,,,,,,,,,,,,0,4,4,6,,,AMSA09.jpg,AMSA04.jpg,AMNE18.jpg,AMNE11.jpg,AMSA09.jpg,MS,2,num_8,32,num_4,0.366529080318,,,2017_May_01_1232,60.0031369795,FEMA4ImagesEEG,001,200301,
AFSA21.JPG,AFNE23.JPG,AFNE21.JPG,AFSA25.JPG,AFNE25.JPG,AFSA23.JPG,,,,,,,,,,,,,,,,,,,,,0,5,5,4,,,AMSA01.jpg,AMNE13.jpg,AMSA10.jpg,AMNE05.jpg,AMNE05.jpg,MN,1,num_4,32,num_6,0.316797843669,,,2017_May_01_1232,60.0031369795,FEMA4ImagesEEG,001,200301,
AFSA21.JPG,AFNE22.JPG,AFNE21.JPG,AFSA23.JPG,AFSA22.JPG,AFNE23.JPG,,,,,,,,,,,,,,,,,,,,,0,6,6,0,,,AMNE05.jpg,AMNE15.jpg,AMSA16.jpg,AMSA10.jpg,AMNE15.jpg,MN,1,num_6,32,num_8,0.350175235653,,,2017_May_01_1232,60.0031369795,FEMA4ImagesEEG,001,200301,
AMSA21.JPG,AMNE23.JPG,AMNE21.JPG,AMSA25.JPG,AMNE25.JPG,AMSA23.JPG,,,,,,,,,,,,,,,,,,,,,0,7,7,5,,,AMSA04.jpg,AMNE05.jpg,AMSA03.jpg,AMNE08.jpg,AMNE05.jpg,MN,1,num_6,16,num_6,0.600160561968,,,2017_May_01_1232,60.0031369795,FEMA4ImagesEEG,001,200301,
AFNE23.JPG,AFNE24.JPG,AFNE22.JPG,AFSA24.JPG,AFSA22.JPG,AFSA23.JPG,,,,,,,,,,,,,,,,,,,,,0,8,8,8,,,AMSA02.jpg,AMSA17.jpg,AMNE05.jpg,AMNE20.jpg,AMSA17.jpg,MS,2,num_6,32,num_8,0.466796288034,,,2017_May_01_1232,60.0031369795,FEMA4ImagesEEG,001,200301,
AMSA25.JPG,AMNE24.JPG,AMSA24.JPG,AMNE26.JPG,AMSA21.JPG,AMNE25.JPG,,,,,,,,,,,,,,,,,,,,,0,9,9,3,,,AMSA17.jpg,AMNE18.jpg,AMSA20.jpg,AMNE16.jpg,AMNE18.jpg,MN,1,num_6,32,num_2,0.350201536203,,,2017_May_01_1232,60.0031369795,FEMA4ImagesEEG,001,200301,
,,,,,,,,,,,,,,,,,,,,,,,,,,,,,,,,,,,,,,,,,,,space,5.49973587133,2017_May_01_1232,60.0031369795,FEMA4ImagesEEG,001,200301,
AFNE01.JPG,AFNE01.JPG,AFNE01.JPG,AFNE01.JPG,AFNE01.JPG,AFNE01.JPG,0,0,0,5,,,,,,,,,,,,,,,,,,,,,,,AFSA08.jpg,AFNE04.jpg,AFNE08.jpg,AFSA14.jpg,AFNE08.jpg,FN,3,num_2,32,num_8,0.416791140335,,,2017_May_01_1232,60.0031369795,FEMA4ImagesEEG,001,200301,
AFNE01.JPG,AFNE01.JPG,AFNE01.JPG,AFNE01.JPG,AFNE01.JPG,AFNE01.JPG,0,1,1,1,,,,,,,,,,,,,,,,,,,,,,,AFNE19.jpg,AFSA14.jpg,AFSA06.jpg,AFNE08.jpg,AFSA14.jpg,FS,4,num_6,32,num_4,0.650130428607,,,2017_May_01_1232,60.0031369795,FEMA4ImagesEEG,001,200301,
AFNE01.JPG,AFNE01.JPG,AFNE01.JPG,AFNE01.JPG,AFNE01.JPG,AFNE01.JPG,0,2,2,2,,,,,,,,,,,,,,,,,,,,,,,AFNE20.jpg,AFSA06.jpg,AFSA20.jpg,AFNE06.jpg,AFSA06.jpg,FS,4,num_6,32,num_4,0.733439198462,,,2017_May_01_1232,60.0031369795,FEMA4ImagesEEG,001,200301,
AFNE01.JPG,AFNE01.JPG,AFNE01.JPG,AFNE01.JPG,AFNE01.JPG,AFNE01.JPG,0,3,3,9,,,,,,,,,,,,,,,,,,,,,,,AFSA12.jpg,AFNE04.jpg,AFSA08.jpg,AFNE03.jpg,AFSA08.jpg,FS,4,num_2,32,num_4,0.766772008035,,,2017_May_01_1232,60.0031369795,FEMA4ImagesEEG,001,200301,
AFNE01.JPG,AFNE01.JPG,AFNE01.JPG,AFNE01.JPG,AFNE01.JPG,AFNE01.JPG,0,4,4,3,,,,,,,,,,,,,,,,,,,,,,,AFSA01.jpg,AFSA09.jpg,AFNE04.jpg,AFNE19.jpg,AFNE04.jpg,FN,3,num_2,16,num_2,1.35008510808,,,2017_May_01_1232,60.0031369795,FEMA4ImagesEEG,001,200301,
AFNE01.JPG,AFNE01.JPG,AFNE01.JPG,AFNE01.JPG,AFNE01.JPG,AFNE01.JPG,0,5,5,0,,,,,,,,,,,,,,,,,,,,,,,AFNE13.jpg,AFSA20.jpg,AFSA10.jpg,AFNE02.jpg,AFNE02.jpg,FN,3,num_4,16,num_4,1.48345291032,,,2017_May_01_1232,60.0031369795,FEMA4ImagesEEG,001,200301,
AFNE01.JPG,AFNE01.JPG,AFNE01.JPG,AFNE01.JPG,AFNE01.JPG,AFNE01.JPG,0,6,6,8,,,,,,,,,,,,,,,,,,,,,,,AFNE18.jpg,AFNE06.jpg,AFSA07.jpg,AFSA19.jpg,AFSA19.jpg,FS,4,num_4,16,num_4,0.816796400351,,,2017_May_01_1232,60.0031369795,FEMA4ImagesEEG,001,200301,
AFNE01.JPG,AFNE01.JPG,AFNE01.JPG,AFNE01.JPG,AFNE01.JPG,AFNE01.JPG,0,7,7,6,,,,,,,,,,,,,,,,,,,,,,,AFSA12.jpg,AFSA01.jpg,AFNE15.jpg,AFNE05.jpg,AFSA01.jpg,FS,4,num_6,16,num_6,0.700168291805,,,2017_May_01_1232,60.0031369795,FEMA4ImagesEEG,001,200301,
AFNE01.JPG,AFNE01.JPG,AFNE01.JPG,AFNE01.JPG,AFNE01.JPG,AFNE01.JPG,0,8,8,7,,,,,,,,,,,,,,,,,,,,,,,AFNE10.jpg,AFSA02.jpg,AFNE19.jpg,AFSA04.jpg,AFNE19.jpg,FN,3,num_2,32,num_8,0.950254971627,,,2017_May_01_1232,60.0031369795,FEMA4ImagesEEG,001,200301,
AFNE01.JPG,AFNE01.JPG,AFNE01.JPG,AFNE01.JPG,AFNE01.JPG,AFNE01.JPG,0,9,9,4,,,,,,,,,,,,,,,,,,,,,,,AFNE14.jpg,AFSA15.jpg,AFSA13.jpg,AFNE05.jpg,AFSA15.jpg,FS,4,num_6,32,num_4,0.86681277398,,,2017_May_01_1232,60.0031369795,FEMA4ImagesEEG,001,200301,
AFNE01.JPG,AFNE01.JPG,AFNE01.JPG,AFNE01.JPG,AFNE01.JPG,AFNE01.JPG,1,0,10,5,,,,,,,,,,,,,,,,,,,,,,,AFNE08.jpg,AFSA11.jpg,AFNE03.jpg,AFSA08.jpg,AFNE03.jpg,FN,3,num_2,32,num_4,0.950128921075,,,2017_May_01_1232,60.0031369795,FEMA4ImagesEEG,001,200301,
AFNE01.JPG,AFNE01.JPG,AFNE01.JPG,AFNE01.JPG,AFNE01.JPG,AFNE01.JPG,1,1,11,7,,,,,,,,,,,,,,,,,,,,,,,AFSA20.jpg,AFNE09.jpg,AFNE08.jpg,AFSA12.jpg,AFSA12.jpg,FS,4,num_4,32,num_8,0.716806952376,,,2017_May_01_1232,60.0031369795,FEMA4ImagesEEG,001,200301,
AFNE01.JPG,AFNE01.JPG,AFNE01.JPG,AFNE01.JPG,AFNE01.JPG,AFNE01.JPG,1,2,12,8,,,,,,,,,,,,,,,,,,,,,,,AFSA04.jpg,AFNE14.jpg,AFSA02.jpg,AFNE04.jpg,AFNE14.jpg,FN,3,num_6,32,num_4,0.650100599742,,,2017_May_01_1232,60.0031369795,FEMA4ImagesEEG,001,200301,
AFNE01.JPG,AFNE01.JPG,AFNE01.JPG,AFNE01.JPG,AFNE01.JPG,AFNE01.JPG,1,3,13,9,,,,,,,,,,,,,,,,,,,,,,,AFSA11.jpg,AFNE01.jpg,AFNE04.jpg,AFSA19.jpg,AFNE04.jpg,FN,3,num_2,32,num_6,0.783439535415,,,2017_May_01_1232,60.0031369795,FEMA4ImagesEEG,001,200301,
AFNE01.JPG,AFNE01.JPG,AFNE01.JPG,AFNE01.JPG,AFNE01.JPG,AFNE01.JPG,1,4,14,2,,,,,,,,,,,,,,,,,,,,,,,AFNE18.jpg,AFNE13.jpg,AFSA06.jpg,AFSA14.jpg,AFNE18.jpg,FN,3,num_8,32,num_4,0.666773579782,,,2017_May_01_1232,60.0031369795,FEMA4ImagesEEG,001,200301,
AFNE01.JPG,AFNE01.JPG,AFNE01.JPG,AFNE01.JPG,AFNE01.JPG,AFNE01.JPG,1,5,15,3,,,,,,,,,,,,,,,,,,,,,,,AFNE03.jpg,AFSA19.jpg,AFNE10.jpg,AFSA15.jpg,AFSA15.jpg,FS,4,num_4,32,num_8,0.850146529498,,,2017_May_01_1232,60.0031369795,FEMA4ImagesEEG,001,200301,
AFNE01.JPG,AFNE01.JPG,AFNE01.JPG,AFNE01.JPG,AFNE01.JPG,AFNE01.JPG,1,6,16,1,,,,,,,,,,,,,,,,,,,,,,,AFNE17.jpg,AFSA15.jpg,AFNE11.jpg,AFSA01.jpg,AFSA01.jpg,FS,4,num_4,16,num_4,0.733456197893,,,2017_May_01_1232,60.0031369795,FEMA4ImagesEEG,001,200301,
AFNE01.JPG,AFNE01.JPG,AFNE01.JPG,AFNE01.JPG,AFNE01.JPG,AFNE01.JPG,1,7,17,4,,,,,,,,,,,,,,,,,,,,,,,AFNE14.jpg,AFSA05.jpg,AFSA06.jpg,AFNE01.jpg,AFNE14.jpg,FN,3,num_8,32,num_2,0.733440160751,,,2017_May_01_1232,60.0031369795,FEMA4ImagesEEG,001,200301,
AFNE01.JPG,AFNE01.JPG,AFNE01.JPG,AFNE01.JPG,AFNE01.JPG,AFNE01.JPG,1,8,18,6,,,,,,,,,,,,,,,,,,,,,,,AFNE15.jpg,AFSA07.jpg,AFSA09.jpg,AFNE08.jpg,AFSA07.jpg,FS,4,num_6,32,num_8,0.733553061029,,,2017_May_01_1232,60.0031369795,FEMA4ImagesEEG,001,200301,
AFNE01.JPG,AFNE01.JPG,AFNE01.JPG,AFNE01.JPG,AFNE01.JPG,AFNE01.JPG,1,9,19,0,,,,,,,,,,,,,,,,,,,,,,,AFSA09.jpg,AFNE13.jpg,AFSA17.jpg,AFNE09.jpg,AFSA09.jpg,FS,4,num_8,32,num_4,1.21676124725,,,2017_May_01_1232,60.0031369795,FEMA4ImagesEEG,001,200301,
AFNE01.JPG,AFNE01.JPG,AFNE01.JPG,AFNE01.JPG,AFNE01.JPG,AFNE01.JPG,2,0,20,7,,,,,,,,,,,,,,,,,,,,,,,AFSA01.jpg,AFNE10.jpg,AFNE13.jpg,AFSA20.jpg,AFNE13.jpg,FN,3,num_2,32,num_6,0.383525044424,,,2017_May_01_1232,60.0031369795,FEMA4ImagesEEG,001,200301,
AFNE01.JPG,AFNE01.JPG,AFNE01.JPG,AFNE01.JPG,AFNE01.JPG,AFNE01.JPG,2,1,21,1,,,,,,,,,,,,,,,,,,,,,,,AFSA06.jpg,AFNE04.jpg,AFSA15.jpg,AFNE18.jpg,AFNE04.jpg,FN,3,num_6,16,num_6,0.716835819185,,,2017_May_01_1232,60.0031369795,FEMA4ImagesEEG,001,200301,
AFNE01.JPG,AFNE01.JPG,AFNE01.JPG,AFNE01.JPG,AFNE01.JPG,AFNE01.JPG,2,2,22,2,,,,,,,,,,,,,,,,,,,,,,,AFNE20.jpg,AFSA03.jpg,AFNE19.jpg,AFSA12.jpg,AFNE19.jpg,FN,3,num_2,32,num_8,0.350172990467,,,2017_May_01_1232,60.0031369795,FEMA4ImagesEEG,001,200301,
AFNE01.JPG,AFNE01.JPG,AFNE01.JPG,AFNE01.JPG,AFNE01.JPG,AFNE01.JPG,2,3,23,5,,,,,,,,,,,,,,,,,,,,,,,AFSA19.jpg,AFSA14.jpg,AFNE13.jpg,AFNE07.jpg,AFNE07.jpg,FN,3,num_4,16,num_4,0.316777957836,,,2017_May_01_1232,60.0031369795,FEMA4ImagesEEG,001,200301,
AFNE01.JPG,AFNE01.JPG,AFNE01.JPG,AFNE01.JPG,AFNE01.JPG,AFNE01.JPG,2,4,24,9,,,,,,,,,,,,,,,,,,,,,,,AFNE20.jpg,AFNE04.jpg,AFSA20.jpg,AFSA10.jpg,AFSA20.jpg,FS,4,num_2,16,num_2,0.666792823933,,,2017_May_01_1232,60.0031369795,FEMA4ImagesEEG,001,200301,
AFNE01.JPG,AFNE01.JPG,AFNE01.JPG,AFNE01.JPG,AFNE01.JPG,AFNE01.JPG,2,5,25,0,,,,,,,,,,,,,,,,,,,,,,,AFSA12.jpg,AFNE14.jpg,AFSA01.jpg,AFNE20.jpg,AFNE20.jpg,FN,3,num_4,32,num_2,0.450188738992,,,2017_May_01_1232,60.0031369795,FEMA4ImagesEEG,001,200301,
AFNE01.JPG,AFNE01.JPG,AFNE01.JPG,AFNE01.JPG,AFNE01.JPG,AFNE01.JPG,2,6,26,4,,,,,,,,,,,,,,,,,,,,,,,AFSA19.jpg,AFSA16.jpg,AFNE06.jpg,AFNE13.jpg,AFSA19.jpg,FS,4,num_8,16,num_8,0.800160305342,,,2017_May_01_1232,60.0031369795,FEMA4ImagesEEG,001,200301,
AFNE01.JPG,AFNE01.JPG,AFNE01.JPG,AFNE01.JPG,AFNE01.JPG,AFNE01.JPG,2,7,27,3,,,,,,,,,,,,,,,,,,,,,,,AFSA03.jpg,AFSA11.jpg,AFNE05.jpg,AFNE18.jpg,AFNE18.jpg,FN,3,num_4,32,num_6,0.483495568391,,,2017_May_01_1232,60.0031369795,FEMA4ImagesEEG,001,200301,
AFNE01.JPG,AFNE01.JPG,AFNE01.JPG,AFNE01.JPG,AFNE01.JPG,AFNE01.JPG,2,8,28,8,,,,,,,,,,,,,,,,,,,,,,,AFSA07.jpg,AFNE04.jpg,AFNE17.jpg,AFSA19.jpg,AFSA19.jpg,FS,4,num_4,16,num_4,0.366886704229,,,2017_May_01_1232,60.0031369795,FEMA4ImagesEEG,001,200301,
AFNE01.JPG,AFNE01.JPG,AFNE01.JPG,AFNE01.JPG,AFNE01.JPG,AFNE01.JPG,2,9,29,6,,,,,,,,,,,,,,,,,,,,,,,AFSA08.jpg,AFNE15.jpg,AFSA04.jpg,AFNE20.jpg,AFSA08.jpg,FS,4,num_8,32,num_4,0.483479210641,,,2017_May_01_1232,60.0031369795,FEMA4ImagesEEG,001,200301,
AFNE01.JPG,AFNE01.JPG,AFNE01.JPG,AFNE01.JPG,AFNE01.JPG,AFNE01.JPG,3,0,30,2,,,,,,,,,,,,,,,,,,,,,,,AFSA07.jpg,AFSA11.jpg,AFNE07.jpg,AFNE19.jpg,AFSA11.jpg,FS,4,num_6,32,num_8,0.71683902666,,,2017_May_01_1232,60.0031369795,FEMA4ImagesEEG,001,200301,
AFNE01.JPG,AFNE01.JPG,AFNE01.JPG,AFNE01.JPG,AFNE01.JPG,AFNE01.JPG,3,1,31,7,,,,,,,,,,,,,,,,,,,,,,,AFSA20.jpg,AFNE19.jpg,AFNE04.jpg,AFSA12.jpg,AFSA12.jpg,FS,4,num_4,32,num_8,0.48347632424,,,2017_May_01_1232,60.0031369795,FEMA4ImagesEEG,001,200301,
AFNE01.JPG,AFNE01.JPG,AFNE01.JPG,AFNE01.JPG,AFNE01.JPG,AFNE01.JPG,3,2,32,9,,,,,,,,,,,,,,,,,,,,,,,AFSA20.jpg,AFNE07.jpg,AFSA04.jpg,AFNE05.jpg,AFSA04.jpg,FS,4,num_2,32,num_6,0.483364707092,,,2017_May_01_1232,60.0031369795,FEMA4ImagesEEG,001,200301,
AFNE01.JPG,AFNE01.JPG,AFNE01.JPG,AFNE01.JPG,AFNE01.JPG,AFNE01.JPG,3,3,33,4,,,,,,,,,,,,,,,,,,,,,,,AFNE15.jpg,AFSA14.jpg,AFNE17.jpg,AFSA11.jpg,AFSA11.jpg,FS,4,num_4,16,num_4,0.583476997679,,,2017_May_01_1232,60.0031369795,FEMA4ImagesEEG,001,200301,
AFNE01.JPG,AFNE01.JPG,AFNE01.JPG,AFNE01.JPG,AFNE01.JPG,AFNE01.JPG,3,4,34,1,,,,,,,,,,,,,,,,,,,,,,,AFSA09.jpg,AFNE06.jpg,AFNE19.jpg,AFSA05.jpg,AFSA05.jpg,FS,4,num_4,32,num_6,0.800124703208,,,2017_May_01_1232,60.0031369795,FEMA4ImagesEEG,001,200301,
AFNE01.JPG,AFNE01.JPG,AFNE01.JPG,AFNE01.JPG,AFNE01.JPG,AFNE01.JPG,3,5,35,0,,,,,,,,,,,,,,,,,,,,,,,AFSA07.jpg,AFSA02.jpg,AFNE02.jpg,AFNE06.jpg,AFSA07.jpg,FS,4,num_8,32,num_4,0.883441812824,,,2017_May_01_1232,60.0031369795,FEMA4ImagesEEG,001,200301,
AFNE01.JPG,AFNE01.JPG,AFNE01.JPG,AFNE01.JPG,AFNE01.JPG,AFNE01.JPG,3,6,36,6,,,,,,,,,,,,,,,,,,,,,,,AFSA20.jpg,AFSA18.jpg,AFNE06.jpg,AFNE15.jpg,AFSA20.jpg,FS,4,num_8,32,num_4,0.616841560462,,,2017_May_01_1232,60.0031369795,FEMA4ImagesEEG,001,200301,
AFNE01.JPG,AFNE01.JPG,AFNE01.JPG,AFNE01.JPG,AFNE01.JPG,AFNE01.JPG,3,7,37,8,,,,,,,,,,,,,,,,,,,,,,,AFSA11.jpg,AFSA04.jpg,AFNE15.jpg,AFNE11.jpg,AFNE15.jpg,FN,3,num_2,32,num_4,0.616769393906,,,2017_May_01_1232,60.0031369795,FEMA4ImagesEEG,001,200301,
AFNE01.JPG,AFNE01.JPG,AFNE01.JPG,AFNE01.JPG,AFNE01.JPG,AFNE01.JPG,3,8,38,3,,,,,,,,,,,,,,,,,,,,,,,AFSA01.jpg,AFNE09.jpg,AFSA05.jpg,AFNE14.jpg,AFSA05.jpg,FS,4,num_2,32,num_8,0.933441828704,,,2017_May_01_1232,60.0031369795,FEMA4ImagesEEG,001,200301,
AFNE01.JPG,AFNE01.JPG,AFNE01.JPG,AFNE01.JPG,AFNE01.JPG,AFNE01.JPG,3,9,39,5,,,,,,,,,,,,,,,,,,,,,,,AFSA11.jpg,AFNE03.jpg,AFSA14.jpg,AFNE16.jpg,AFSA11.jpg,FS,4,num_8,32,num_6,0.883431228343,,,2017_May_01_1232,60.0031369795,FEMA4ImagesEEG,001,200301,
AFNE01.JPG,AFNE01.JPG,AFNE01.JPG,AFNE01.JPG,AFNE01.JPG,AFNE01.JPG,4,0,40,2,,,,,,,,,,,,,,,,,,,,,,,AFSA13.jpg,AFNE02.jpg,AFSA07.jpg,AFNE13.jpg,AFSA13.jpg,FS,4,num_8,32,num_6,0.716781614348,,,2017_May_01_1232,60.0031369795,FEMA4ImagesEEG,001,200301,
AFNE01.JPG,AFNE01.JPG,AFNE01.JPG,AFNE01.JPG,AFNE01.JPG,AFNE01.JPG,4,1,41,0,,,,,,,,,,,,,,,,,,,,,,,AFNE16.jpg,AFNE17.jpg,AFSA09.jpg,AFSA08.jpg,AFNE16.jpg,FN,3,num_8,16,num_8,0.883449189598,,,2017_May_01_1232,60.0031369795,FEMA4ImagesEEG,001,200301,
AFNE01.JPG,AFNE01.JPG,AFNE01.JPG,AFNE01.JPG,AFNE01.JPG,AFNE01.JPG,4,2,42,6,,,,,,,,,,,,,,,,,,,,,,,AFSA19.jpg,AFNE02.jpg,AFSA15.jpg,AFNE09.jpg,AFSA15.jpg,FS,4,num_2,16,num_2,0.800145551329,,,2017_May_01_1232,60.0031369795,FEMA4ImagesEEG,001,200301,
AFNE01.JPG,AFNE01.JPG,AFNE01.JPG,AFNE01.JPG,AFNE01.JPG,AFNE01.JPG,4,3,43,8,,,,,,,,,,,,,,,,,,,,,,,AFSA15.jpg,AFNE08.jpg,AFSA04.jpg,AFNE20.jpg,AFNE20.jpg,FN,3,num_4,32,num_6,0.933484487003,,,2017_May_01_1232,60.0031369795,FEMA4ImagesEEG,001,200301,
AFNE01.JPG,AFNE01.JPG,AFNE01.JPG,AFNE01.JPG,AFNE01.JPG,AFNE01.JPG,4,4,44,9,,,,,,,,,,,,,,,,,,,,,,,AFNE11.jpg,AFNE18.jpg,AFSA05.jpg,AFSA07.jpg,AFSA05.jpg,FS,4,num_2,16,num_2,0.450177192455,,,2017_May_01_1232,60.0031369795,FEMA4ImagesEEG,001,200301,
AFNE01.JPG,AFNE01.JPG,AFNE01.JPG,AFNE01.JPG,AFNE01.JPG,AFNE01.JPG,4,5,45,1,,,,,,,,,,,,,,,,,,,,,,,AFSA11.jpg,AFNE01.jpg,AFNE08.jpg,AFSA20.jpg,AFNE01.jpg,FN,3,num_6,32,num_4,0.633501069387,,,2017_May_01_1232,60.0031369795,FEMA4ImagesEEG,001,200301,
AFNE01.JPG,AFNE01.JPG,AFNE01.JPG,AFNE01.JPG,AFNE01.JPG,AFNE01.JPG,4,6,46,4,,,,,,,,,,,,,,,,,,,,,,,AFNE11.jpg,AFNE13.jpg,AFSA11.jpg,AFSA12.jpg,AFSA11.jpg,FS,4,num_2,16,num_2,0.500134550035,,,2017_May_01_1232,60.0031369795,FEMA4ImagesEEG,001,200301,
AFNE01.JPG,AFNE01.JPG,AFNE01.JPG,AFNE01.JPG,AFNE01.JPG,AFNE01.JPG,4,7,47,7,,,,,,,,,,,,,,,,,,,,,,,AFNE06.jpg,AFSA10.jpg,AFSA19.jpg,AFNE09.jpg,AFSA10.jpg,FS,4,num_6,32,num_8,1.4167298791,,,2017_May_01_1232,60.0031369795,FEMA4ImagesEEG,001,200301,
AFNE01.JPG,AFNE01.JPG,AFNE01.JPG,AFNE01.JPG,AFNE01.JPG,AFNE01.JPG,4,8,48,3,,,,,,,,,,,,,,,,,,,,,,,AFSA01.jpg,AFNE20.jpg,AFNE12.jpg,AFSA09.jpg,AFNE12.jpg,FN,3,num_2,32,num_4,0.983606063062,,,2017_May_01_1232,60.0031369795,FEMA4ImagesEEG,001,200301,
AFNE01.JPG,AFNE01.JPG,AFNE01.JPG,AFNE01.JPG,AFNE01.JPG,AFNE01.JPG,4,9,49,5,,,,,,,,,,,,,,,,,,,,,,,AFNE11.jpg,AFNE19.jpg,AFSA07.jpg,AFSA01.jpg,AFNE19.jpg,FN,3,num_6,16,num_6,1.30010882695,,,2017_May_01_1232,60.0031369795,FEMA4ImagesEEG,001,200301,
AFNE01.JPG,AFNE01.JPG,AFNE01.JPG,AFNE01.JPG,AFNE01.JPG,AFNE01.JPG,5,0,50,9,,,,,,,,,,,,,,,,,,,,,,,AFSA08.jpg,AFNE04.jpg,AFSA07.jpg,AFNE19.jpg,AFSA08.jpg,FS,4,num_8,32,num_4,0.916772056371,,,2017_May_01_1232,60.0031369795,FEMA4ImagesEEG,001,200301,
AFNE01.JPG,AFNE01.JPG,AFNE01.JPG,AFNE01.JPG,AFNE01.JPG,AFNE01.JPG,5,1,51,1,,,,,,,,,,,,,,,,,,,,,,,AFSA13.jpg,AFNE05.jpg,AFSA06.jpg,AFNE07.jpg,AFSA13.jpg,FS,4,num_8,32,num_4,0.983449542429,,,2017_May_01_1232,60.0031369795,FEMA4ImagesEEG,001,200301,
AFNE01.JPG,AFNE01.JPG,AFNE01.JPG,AFNE01.JPG,AFNE01.JPG,AFNE01.JPG,5,2,52,2,,,,,,,,,,,,,,,,,,,,,,,AFSA13.jpg,AFSA10.jpg,AFNE05.jpg,AFNE16.jpg,AFNE05.jpg,FN,3,num_2,32,num_8,0.466918489663,,,2017_May_01_1232,60.0031369795,FEMA4ImagesEEG,001,200301,
AFNE01.JPG,AFNE01.JPG,AFNE01.JPG,AFNE01.JPG,AFNE01.JPG,AFNE01.JPG,5,3,53,5,,,,,,,,,,,,,,,,,,,,,,,AFNE16.jpg,AFSA14.jpg,AFNE12.jpg,AFSA02.jpg,AFSA02.jpg,FS,4,num_4,32,num_6,0.333496161737,,,2017_May_01_1232,60.0031369795,FEMA4ImagesEEG,001,200301,
AFNE01.JPG,AFNE01.JPG,AFNE01.JPG,AFNE01.JPG,AFNE01.JPG,AFNE01.JPG,5,4,54,8,,,,,,,,,,,,,,,,,,,,,,,AFSA02.jpg,AFNE15.jpg,AFNE14.jpg,AFSA06.jpg,AFSA02.jpg,FS,4,num_8,32,num_4,0.750125328777,,,2017_May_01_1232,60.0031369795,FEMA4ImagesEEG,001,200301,
AFNE01.JPG,AFNE01.JPG,AFNE01.JPG,AFNE01.JPG,AFNE01.JPG,AFNE01.JPG,5,5,55,4,,,,,,,,,,,,,,,,,,,,,,,AFSA13.jpg,AFSA06.jpg,AFNE01.jpg,AFNE09.jpg,AFSA13.jpg,FS,4,num_8,16,num_8,0.750375505304,,,2017_May_01_1232,60.0031369795,FEMA4ImagesEEG,001,200301,
AFNE01.JPG,AFNE01.JPG,AFNE01.JPG,AFNE01.JPG,AFNE01.JPG,AFNE01.JPG,5,6,56,3,,,,,,,,,,,,,,,,,,,,,,,AFNE04.jpg,AFSA02.jpg,AFSA16.jpg,AFNE15.jpg,AFSA16.jpg,FS,4,num_2,32,num_8,0.983478729613,,,2017_May_01_1232,60.0031369795,FEMA4ImagesEEG,001,200301,
AFNE01.JPG,AFNE01.JPG,AFNE01.JPG,AFNE01.JPG,AFNE01.JPG,AFNE01.JPG,5,7,57,7,,,,,,,,,,,,,,,,,,,,,,,AFSA08.jpg,AFNE02.jpg,AFNE01.jpg,AFSA04.jpg,AFSA08.jpg,FS,4,num_8,32,num_4,0.683453615755,,,2017_May_01_1232,60.0031369795,FEMA4ImagesEEG,001,200301,
AFNE01.JPG,AFNE01.JPG,AFNE01.JPG,AFNE01.JPG,AFNE01.JPG,AFNE01.JPG,5,8,58,0,,,,,,,,,,,,,,,,,,,,,,,AFNE07.jpg,AFSA09.jpg,AFNE03.jpg,AFSA17.jpg,AFSA17.jpg,FS,4,num_4,32,num_8,0.483475361951,,,2017_May_01_1232,60.0031369795,FEMA4ImagesEEG,001,200301,
AFNE01.JPG,AFNE01.JPG,AFNE01.JPG,AFNE01.JPG,AFNE01.JPG,AFNE01.JPG,5,9,59,6,,,,,,,,,,,,,,,,,,,,,,,AFSA02.jpg,AFNE15.jpg,AFSA16.jpg,AFNE07.jpg,AFSA02.jpg,FS,4,num_8,32,num_2,1.06676729303,,,2017_May_01_1232,60.0031369795,FEMA4ImagesEEG,001,200301,
,,,,,,,,,,,,,,,,,,,,,,,,,,,,,,,,,,,,,,,,,,,space,2.86647952604,2017_May_01_1232,60.0031369795,FEMA4ImagesEEG,001,200301,
AFNE01.JPG,AFNE01.JPG,AFNE01.JPG,AFNE01.JPG,AFNE01.JPG,AFNE01.JPG,,,,,0,0,0,8,,,,,,,,,,,,,,,,,,,AMNE19.jpg,AMSA13.jpg,AMNE20.jpg,AMSA06.jpg,AMNE19.jpg,MN,1,num_8,32,num_4,1.25010752794,,,2017_May_01_1232,60.0031369795,FEMA4ImagesEEG,001,200301,
AFNE01.JPG,AFNE01.JPG,AFNE01.JPG,AFNE01.JPG,AFNE01.JPG,AFNE01.JPG,,,,,0,1,1,7,,,,,,,,,,,,,,,,,,,AMNE17.jpg,AMNE15.jpg,AMSA14.jpg,AMSA02.jpg,AMSA14.jpg,MS,2,num_2,16,num_2,0.916737737134,,,2017_May_01_1232,60.0031369795,FEMA4ImagesEEG,001,200301,
AFNE01.JPG,AFNE01.JPG,AFNE01.JPG,AFNE01.JPG,AFNE01.JPG,AFNE01.JPG,,,,,0,2,2,9,,,,,,,,,,,,,,,,,,,AMSA09.jpg,AMSA05.jpg,AMNE09.jpg,AMNE14.jpg,AMSA09.jpg,MS,2,num_8,16,num_8,0.716801500181,,,2017_May_01_1232,60.0031369795,FEMA4ImagesEEG,001,200301,
AFNE01.JPG,AFNE01.JPG,AFNE01.JPG,AFNE01.JPG,AFNE01.JPG,AFNE01.JPG,,,,,0,3,3,5,,,,,,,,,,,,,,,,,,,AMSA04.jpg,AMNE14.jpg,AMNE05.jpg,AMSA20.jpg,AMSA20.jpg,MS,2,num_4,32,num_6,1.4999552567,,,2017_May_01_1232,60.0031369795,FEMA4ImagesEEG,001,200301,
AFNE01.JPG,AFNE01.JPG,AFNE01.JPG,AFNE01.JPG,AFNE01.JPG,AFNE01.JPG,,,,,0,4,4,6,,,,,,,,,,,,,,,,,,,AMSA03.jpg,AMNE14.jpg,AMSA06.jpg,AMNE12.jpg,AMNE12.jpg,MN,1,num_4,16,num_4,1.08343514125,,,2017_May_01_1232,60.0031369795,FEMA4ImagesEEG,001,200301,
AFNE01.JPG,AFNE01.JPG,AFNE01.JPG,AFNE01.JPG,AFNE01.JPG,AFNE01.JPG,,,,,0,5,5,3,,,,,,,,,,,,,,,,,,,AMNE12.jpg,AMSA13.jpg,AMNE15.jpg,AMSA03.jpg,AMNE12.jpg,MN,1,num_8,16,num_8,0.93356563407,,,2017_May_01_1232,60.0031369795,FEMA4ImagesEEG,001,200301,
AFNE01.JPG,AFNE01.JPG,AFNE01.JPG,AFNE01.JPG,AFNE01.JPG,AFNE01.JPG,,,,,0,6,6,1,,,,,,,,,,,,,,,,,,,AMNE03.jpg,AMSA16.jpg,AMSA17.jpg,AMNE01.jpg,AMSA17.jpg,MS,2,num_2,16,num_2,0.833590940339,,,2017_May_01_1232,60.0031369795,FEMA4ImagesEEG,001,200301,
AFNE01.JPG,AFNE01.JPG,AFNE01.JPG,AFNE01.JPG,AFNE01.JPG,AFNE01.JPG,,,,,0,7,7,2,,,,,,,,,,,,,,,,,,,AMSA16.jpg,AMSA18.jpg,AMNE02.jpg,AMNE12.jpg,AMSA16.jpg,MS,2,num_8,32,num_4,1.16675032629,,,2017_May_01_1232,60.0031369795,FEMA4ImagesEEG,001,200301,
AFNE01.JPG,AFNE01.JPG,AFNE01.JPG,AFNE01.JPG,AFNE01.JPG,AFNE01.JPG,,,,,0,8,8,4,,,,,,,,,,,,,,,,,,,AMSA12.jpg,AMNE08.jpg,AMSA19.jpg,AMNE10.jpg,AMSA12.jpg,MS,2,num_8,16,num_8,0.950166126713,,,2017_May_01_1232,60.0031369795,FEMA4ImagesEEG,001,200301,
AFNE01.JPG,AFNE01.JPG,AFNE01.JPG,AFNE01.JPG,AFNE01.JPG,AFNE01.JPG,,,,,0,9,9,0,,,,,,,,,,,,,,,,,,,AMSA14.jpg,AMNE17.jpg,AMNE14.jpg,AMSA12.jpg,AMSA14.jpg,MS,2,num_8,32,num_6,0.999798575882,,,2017_May_01_1232,60.0031369795,FEMA4ImagesEEG,001,200301,
AFNE01.JPG,AFNE01.JPG,AFNE01.JPG,AFNE01.JPG,AFNE01.JPG,AFNE01.JPG,,,,,1,0,10,1,,,,,,,,,,,,,,,,,,,AMSA03.jpg,AMNE19.jpg,AMSA12.jpg,AMNE20.jpg,AMNE20.jpg,MN,1,num_4,32,num_8,0.933477109997,,,2017_May_01_1232,60.0031369795,FEMA4ImagesEEG,001,200301,
AFNE01.JPG,AFNE01.JPG,AFNE01.JPG,AFNE01.JPG,AFNE01.JPG,AFNE01.JPG,,,,,1,1,11,8,,,,,,,,,,,,,,,,,,,AMSA06.jpg,AMSA01.jpg,AMNE04.jpg,AMNE09.jpg,AMNE04.jpg,MN,1,num_2,32,num_4,1.90035919566,,,2017_May_01_1232,60.0031369795,FEMA4ImagesEEG,001,200301,
AFNE01.JPG,AFNE01.JPG,AFNE01.JPG,AFNE01.JPG,AFNE01.JPG,AFNE01.JPG,,,,,1,2,12,0,,,,,,,,,,,,,,,,,,,AMNE20.jpg,AMNE06.jpg,AMSA03.jpg,AMSA07.jpg,AMSA07.jpg,MS,2,num_4,32,num_8,1.00007986394,,,2017_May_01_1232,60.0031369795,FEMA4ImagesEEG,001,200301,
AFNE01.JPG,AFNE01.JPG,AFNE01.JPG,AFNE01.JPG,AFNE01.JPG,AFNE01.JPG,,,,,1,3,13,9,,,,,,,,,,,,,,,,,,,AMNE16.jpg,AMSA10.jpg,AMNE04.jpg,AMSA09.jpg,AMSA09.jpg,MS,2,num_4,16,num_4,0.933442149311,,,2017_May_01_1232,60.0031369795,FEMA4ImagesEEG,001,200301,
AFNE01.JPG,AFNE01.JPG,AFNE01.JPG,AFNE01.JPG,AFNE01.JPG,AFNE01.JPG,,,,,1,4,14,7,,,,,,,,,,,,,,,,,,,AMSA20.jpg,AMSA13.jpg,AMNE19.jpg,AMNE17.jpg,AMNE19.jpg,MN,1,num_2,32,num_4,1.55006015464,,,2017_May_01_1232,60.0031369795,FEMA4ImagesEEG,001,200301,
AFNE01.JPG,AFNE01.JPG,AFNE01.JPG,AFNE01.JPG,AFNE01.JPG,AFNE01.JPG,,,,,1,5,15,3,,,,,,,,,,,,,,,,,,,AMNE01.jpg,AMSA07.jpg,AMNE08.jpg,AMSA13.jpg,AMSA13.jpg,MS,2,num_4,16,num_4,0.583646989428,,,2017_May_01_1232,60.0031369795,FEMA4ImagesEEG,001,200301,
AFNE01.JPG,AFNE01.JPG,AFNE01.JPG,AFNE01.JPG,AFNE01.JPG,AFNE01.JPG,,,,,1,6,16,2,,,,,,,,,,,,,,,,,,,AMNE17.jpg,AMNE10.jpg,AMSA12.jpg,AMSA15.jpg,AMSA15.jpg,MS,2,num_4,32,num_2,1.66665875516,,,2017_May_01_1232,60.0031369795,FEMA4ImagesEEG,001,200301,
AFNE01.JPG,AFNE01.JPG,AFNE01.JPG,AFNE01.JPG,AFNE01.JPG,AFNE01.JPG,,,,,1,7,17,6,,,,,,,,,,,,,,,,,,,AMNE18.jpg,AMSA19.jpg,AMSA05.jpg,AMNE02.jpg,AMSA05.jpg,MS,2,num_2,32,num_4,0.900155526353,,,2017_May_01_1232,60.0031369795,FEMA4ImagesEEG,001,200301,
AFNE01.JPG,AFNE01.JPG,AFNE01.JPG,AFNE01.JPG,AFNE01.JPG,AFNE01.JPG,,,,,1,8,18,4,,,,,,,,,,,,,,,,,,,AMSA04.jpg,AMSA11.jpg,AMNE09.jpg,AMNE03.jpg,AMNE03.jpg,MN,1,num_4,32,num_2,3.14998497348,,,2017_May_01_1232,60.0031369795,FEMA4ImagesEEG,001,200301,
AFNE01.JPG,AFNE01.JPG,AFNE01.JPG,AFNE01.JPG,AFNE01.JPG,AFNE01.JPG,,,,,1,9,19,5,,,,,,,,,,,,,,,,,,,AMSA10.jpg,AMNE14.jpg,AMNE05.jpg,AMSA19.jpg,AMSA19.jpg,MS,2,num_4,16,num_4,0.816762081115,,,2017_May_01_1232,60.0031369795,FEMA4ImagesEEG,001,200301,
AFNE01.JPG,AFNE01.JPG,AFNE01.JPG,AFNE01.JPG,AFNE01.JPG,AFNE01.JPG,,,,,2,0,20,8,,,,,,,,,,,,,,,,,,,AMNE05.jpg,AMSA09.jpg,AMSA03.jpg,AMNE16.jpg,AMNE16.jpg,MN,1,num_4,32,num_8,0.733481215546,,,2017_May_01_1232,60.0031369795,FEMA4ImagesEEG,001,200301,
AFNE01.JPG,AFNE01.JPG,AFNE01.JPG,AFNE01.JPG,AFNE01.JPG,AFNE01.JPG,,,,,2,1,21,2,,,,,,,,,,,,,,,,,,,AMNE13.jpg,AMNE02.jpg,AMSA14.jpg,AMSA01.jpg,AMNE13.jpg,MN,1,num_8,32,num_2,1.01677689934,,,2017_May_01_1232,60.0031369795,FEMA4ImagesEEG,001,200301,
AFNE01.JPG,AFNE01.JPG,AFNE01.JPG,AFNE01.JPG,AFNE01.JPG,AFNE01.JPG,,,,,2,2,22,3,,,,,,,,,,,,,,,,,,,AMSA11.jpg,AMNE08.jpg,AMSA18.jpg,AMNE16.jpg,AMSA11.jpg,MS,2,num_8,32,num_4,1.01675540977,,,2017_May_01_1232,60.0031369795,FEMA4ImagesEEG,001,200301,
AFNE01.JPG,AFNE01.JPG,AFNE01.JPG,AFNE01.JPG,AFNE01.JPG,AFNE01.JPG,,,,,2,3,23,0,,,,,,,,,,,,,,,,,,,AMSA09.jpg,AMNE16.jpg,AMSA02.jpg,AMNE02.jpg,AMNE02.jpg,MN,1,num_4,32,num_8,2.26668396522,,,2017_May_01_1232,60.0031369795,FEMA4ImagesEEG,001,200301,
AFNE01.JPG,AFNE01.JPG,AFNE01.JPG,AFNE01.JPG,AFNE01.JPG,AFNE01.JPG,,,,,2,4,24,9,,,,,,,,,,,,,,,,,,,AMSA18.jpg,AMSA03.jpg,AMNE16.jpg,AMNE03.jpg,AMSA03.jpg,MS,2,num_6,32,num_2,1.6833885056,,,2017_May_01_1232,60.0031369795,FEMA4ImagesEEG,001,200301,
AFNE01.JPG,AFNE01.JPG,AFNE01.JPG,AFNE01.JPG,AFNE01.JPG,AFNE01.JPG,,,,,2,5,25,7,,,,,,,,,,,,,,,,,,,AMSA06.jpg,AMNE07.jpg,AMSA01.jpg,AMNE13.jpg,AMSA06.jpg,MS,2,num_8,32,num_4,1.16677438142,,,2017_May_01_1232,60.0031369795,FEMA4ImagesEEG,001,200301,
AFNE01.JPG,AFNE01.JPG,AFNE01.JPG,AFNE01.JPG,AFNE01.JPG,AFNE01.JPG,,,,,2,6,26,4,,,,,,,,,,,,,,,,,,,AMNE14.jpg,AMSA02.jpg,AMSA15.jpg,AMNE02.jpg,AMSA15.jpg,MS,2,num_2,32,num_6,0.766805685591,,,2017_May_01_1232,60.0031369795,FEMA4ImagesEEG,001,200301,
AFNE01.JPG,AFNE01.JPG,AFNE01.JPG,AFNE01.JPG,AFNE01.JPG,AFNE01.JPG,,,,,2,7,27,1,,,,,,,,,,,,,,,,,,,AMSA10.jpg,AMNE15.jpg,AMNE17.jpg,AMSA16.jpg,AMSA16.jpg,MS,2,num_4,32,num_2,4.71646215813,,,2017_May_01_1232,60.0031369795,FEMA4ImagesEEG,001,200301,
AFNE01.JPG,AFNE01.JPG,AFNE01.JPG,AFNE01.JPG,AFNE01.JPG,AFNE01.JPG,,,,,2,8,28,5,,,,,,,,,,,,,,,,,,,AMNE02.jpg,AMSA06.jpg,AMSA15.jpg,AMNE13.jpg,AMNE02.jpg,MN,1,num_8,16,num_8,0.783439214807,,,2017_May_01_1232,60.0031369795,FEMA4ImagesEEG,001,200301,
AFNE01.JPG,AFNE01.JPG,AFNE01.JPG,AFNE01.JPG,AFNE01.JPG,AFNE01.JPG,,,,,2,9,29,6,,,,,,,,,,,,,,,,,,,AMNE05.jpg,AMSA03.jpg,AMNE04.jpg,AMSA05.jpg,AMSA05.jpg,MS,2,num_4,16,num_4,1.23340279493,,,2017_May_01_1232,60.0031369795,FEMA4ImagesEEG,001,200301,
AFNE01.JPG,AFNE01.JPG,AFNE01.JPG,AFNE01.JPG,AFNE01.JPG,AFNE01.JPG,,,,,3,0,30,9,,,,,,,,,,,,,,,,,,,AMSA07.jpg,AMNE15.jpg,AMSA15.jpg,AMNE12.jpg,AMNE15.jpg,MN,1,num_6,32,num_4,1.21673302236,,,2017_May_01_1232,60.0031369795,FEMA4ImagesEEG,001,200301,
AFNE01.JPG,AFNE01.JPG,AFNE01.JPG,AFNE01.JPG,AFNE01.JPG,AFNE01.JPG,,,,,3,1,31,8,,,,,,,,,,,,,,,,,,,AMNE08.jpg,AMNE01.jpg,AMSA06.jpg,AMSA16.jpg,AMNE08.jpg,MN,1,num_8,16,num_8,0.666728034616,,,2017_May_01_1232,60.0031369795,FEMA4ImagesEEG,001,200301,
AFNE01.JPG,AFNE01.JPG,AFNE01.JPG,AFNE01.JPG,AFNE01.JPG,AFNE01.JPG,,,,,3,2,32,6,,,,,,,,,,,,,,,,,,,AMNE19.jpg,AMSA10.jpg,AMNE20.jpg,AMSA11.jpg,AMNE20.jpg,MN,1,num_2,16,num_2,1.36672344827,,,2017_May_01_1232,60.0031369795,FEMA4ImagesEEG,001,200301,
AFNE01.JPG,AFNE01.JPG,AFNE01.JPG,AFNE01.JPG,AFNE01.JPG,AFNE01.JPG,,,,,3,3,33,0,,,,,,,,,,,,,,,,,,,AMNE12.jpg,AMSA19.jpg,AMSA20.jpg,AMNE15.jpg,AMSA19.jpg,MS,2,num_6,16,num_6,1.13344060979,,,2017_May_01_1232,60.0031369795,FEMA4ImagesEEG,001,200301,
AFNE01.JPG,AFNE01.JPG,AFNE01.JPG,AFNE01.JPG,AFNE01.JPG,AFNE01.JPG,,,,,3,4,34,4,,,,,,,,,,,,,,,,,,,AMSA16.jpg,AMSA08.jpg,AMNE09.jpg,AMNE19.jpg,AMNE09.jpg,MN,1,num_2,32,num_8,1.83337347908,,,2017_May_01_1232,60.0031369795,FEMA4ImagesEEG,001,200301,
AFNE01.JPG,AFNE01.JPG,AFNE01.JPG,AFNE01.JPG,AFNE01.JPG,AFNE01.JPG,,,,,3,5,35,1,,,,,,,,,,,,,,,,,,,AMSA13.jpg,AMNE19.jpg,AMSA16.jpg,AMNE14.jpg,AMSA13.jpg,MS,2,num_8,32,num_4,0.633487598039,,,2017_May_01_1232,60.0031369795,FEMA4ImagesEEG,001,200301,
AFNE01.JPG,AFNE01.JPG,AFNE01.JPG,AFNE01.JPG,AFNE01.JPG,AFNE01.JPG,,,,,3,6,36,5,,,,,,,,,,,,,,,,,,,AMNE14.jpg,AMSA09.jpg,AMSA20.jpg,AMNE16.jpg,AMSA20.jpg,MS,2,num_2,32,num_4,0.1002437938,,,2017_May_01_1232,60.0031369795,FEMA4ImagesEEG,001,200301,
AFNE01.JPG,AFNE01.JPG,AFNE01.JPG,AFNE01.JPG,AFNE01.JPG,AFNE01.JPG,,,,,3,7,37,3,,,,,,,,,,,,,,,,,,,AMNE05.jpg,AMSA14.jpg,AMNE19.jpg,AMSA11.jpg,AMNE19.jpg,MN,1,num_2,32,num_6,0.0668724956922,,,2017_May_01_1232,60.0031369795,FEMA4ImagesEEG,001,200301,
AFNE01.JPG,AFNE01.JPG,AFNE01.JPG,AFNE01.JPG,AFNE01.JPG,AFNE01.JPG,,,,,3,8,38,2,,,,,,,,,,,,,,,,,,,AMNE20.jpg,AMNE03.jpg,AMSA16.jpg,AMSA08.jpg,AMSA08.jpg,MS,2,num_4,16,num_4,0.966790354345,,,2017_May_01_1232,60.0031369795,FEMA4ImagesEEG,001,200301,
AFNE01.JPG,AFNE01.JPG,AFNE01.JPG,AFNE01.JPG,AFNE01.JPG,AFNE01.JPG,,,,,3,9,39,7,,,,,,,,,,,,,,,,,,,AMNE14.jpg,AMSA05.jpg,AMNE09.jpg,AMSA04.jpg,AMSA04.jpg,MS,2,num_4,16,num_4,0.500176566886,,,2017_May_01_1232,60.0031369795,FEMA4ImagesEEG,001,200301,
AFNE01.JPG,AFNE01.JPG,AFNE01.JPG,AFNE01.JPG,AFNE01.JPG,AFNE01.JPG,,,,,4,0,40,7,,,,,,,,,,,,,,,,,,,AMSA06.jpg,AMNE18.jpg,AMNE07.jpg,AMSA02.jpg,AMSA06.jpg,MS,2,num_8,32,num_6,1.81670819712,,,2017_May_01_1232,60.0031369795,FEMA4ImagesEEG,001,200301,
AFNE01.JPG,AFNE01.JPG,AFNE01.JPG,AFNE01.JPG,AFNE01.JPG,AFNE01.JPG,,,,,4,1,41,0,,,,,,,,,,,,,,,,,,,AMSA13.jpg,AMSA03.jpg,AMNE16.jpg,AMNE20.jpg,AMNE20.jpg,MN,1,num_4,32,num_2,1.2500828309,,,2017_May_01_1232,60.0031369795,FEMA4ImagesEEG,001,200301,
AFNE01.JPG,AFNE01.JPG,AFNE01.JPG,AFNE01.JPG,AFNE01.JPG,AFNE01.JPG,,,,,4,2,42,1,,,,,,,,,,,,,,,,,,,AMSA05.jpg,AMNE09.jpg,AMNE06.jpg,AMSA18.jpg,AMNE06.jpg,MN,1,num_2,32,num_8,1.13345279801,,,2017_May_01_1232,60.0031369795,FEMA4ImagesEEG,001,200301,
AFNE01.JPG,AFNE01.JPG,AFNE01.JPG,AFNE01.JPG,AFNE01.JPG,AFNE01.JPG,,,,,4,3,43,5,,,,,,,,,,,,,,,,,,,AMSA13.jpg,AMNE13.jpg,AMSA04.jpg,AMNE20.jpg,AMSA13.jpg,MS,2,num_8,32,num_6,0.950129883364,,,2017_May_01_1232,60.0031369795,FEMA4ImagesEEG,001,200301,
AFNE01.JPG,AFNE01.JPG,AFNE01.JPG,AFNE01.JPG,AFNE01.JPG,AFNE01.JPG,,,,,4,4,44,3,,,,,,,,,,,,,,,,,,,AMSA08.jpg,AMSA04.jpg,AMNE18.jpg,AMNE05.jpg,AMNE05.jpg,MN,1,num_4,16,num_4,1.01678042742,,,2017_May_01_1232,60.0031369795,FEMA4ImagesEEG,001,200301,
AFNE01.JPG,AFNE01.JPG,AFNE01.JPG,AFNE01.JPG,AFNE01.JPG,AFNE01.JPG,,,,,4,5,45,9,,,,,,,,,,,,,,,,,,,AMSA19.jpg,AMNE17.jpg,AMSA05.jpg,AMNE12.jpg,AMNE12.jpg,MN,1,num_4,32,num_8,1.8833725329,,,2017_May_01_1232,60.0031369795,FEMA4ImagesEEG,001,200301,
AFNE01.JPG,AFNE01.JPG,AFNE01.JPG,AFNE01.JPG,AFNE01.JPG,AFNE01.JPG,,,,,4,6,46,4,,,,,,,,,,,,,,,,,,,AMSA10.jpg,AMSA18.jpg,AMNE18.jpg,AMNE12.jpg,AMSA18.jpg,MS,2,num_6,32,num_4,0.850005725166,,,2017_May_01_1232,60.0031369795,FEMA4ImagesEEG,001,200301,
AFNE01.JPG,AFNE01.JPG,AFNE01.JPG,AFNE01.JPG,AFNE01.JPG,AFNE01.JPG,,,,,4,7,47,2,,,,,,,,,,,,,,,,,,,AMSA10.jpg,AMSA20.jpg,AMNE17.jpg,AMNE08.jpg,AMSA20.jpg,MS,2,num_6,32,num_2,1.08377704909,,,2017_May_01_1232,60.0031369795,FEMA4ImagesEEG,001,200301,
AFNE01.JPG,AFNE01.JPG,AFNE01.JPG,AFNE01.JPG,AFNE01.JPG,AFNE01.JPG,,,,,4,8,48,8,,,,,,,,,,,,,,,,,,,AMNE01.jpg,AMSA10.jpg,AMSA11.jpg,AMNE12.jpg,AMNE12.jpg,MN,1,num_4,16,num_4,0.750115385745,,,2017_May_01_1232,60.0031369795,FEMA4ImagesEEG,001,200301,
AFNE01.JPG,AFNE01.JPG,AFNE01.JPG,AFNE01.JPG,AFNE01.JPG,AFNE01.JPG,,,,,4,9,49,6,,,,,,,,,,,,,,,,,,,AMSA14.jpg,AMNE03.jpg,AMSA03.jpg,AMNE13.jpg,AMSA14.jpg,MS,2,num_8,32,num_2,1.13344574184,,,2017_May_01_1232,60.0031369795,FEMA4ImagesEEG,001,200301,
AFNE01.JPG,AFNE01.JPG,AFNE01.JPG,AFNE01.JPG,AFNE01.JPG,AFNE01.JPG,,,,,5,0,50,0,,,,,,,,,,,,,,,,,,,AMNE20.jpg,AMNE01.jpg,AMSA17.jpg,AMSA03.jpg,AMSA17.jpg,MS,2,num_2,32,num_8,0.533495905343,,,2017_May_01_1232,60.0031369795,FEMA4ImagesEEG,001,200301,
AFNE01.JPG,AFNE01.JPG,AFNE01.JPG,AFNE01.JPG,AFNE01.JPG,AFNE01.JPG,,,,,5,1,51,8,,,,,,,,,,,,,,,,,,,AMNE05.jpg,AMSA12.jpg,AMNE12.jpg,AMSA13.jpg,AMNE12.jpg,MN,1,num_2,32,num_4,0.400156007614,,,2017_May_01_1232,60.0031369795,FEMA4ImagesEEG,001,200301,
AFNE01.JPG,AFNE01.JPG,AFNE01.JPG,AFNE01.JPG,AFNE01.JPG,AFNE01.JPG,,,,,5,2,52,5,,,,,,,,,,,,,,,,,,,AMSA07.jpg,AMSA02.jpg,AMNE18.jpg,AMNE20.jpg,AMNE20.jpg,MN,1,num_4,16,num_4,0.616812373046,,,2017_May_01_1232,60.0031369795,FEMA4ImagesEEG,001,200301,
AFNE01.JPG,AFNE01.JPG,AFNE01.JPG,AFNE01.JPG,AFNE01.JPG,AFNE01.JPG,,,,,5,3,53,4,,,,,,,,,,,,,,,,,,,AMSA10.jpg,AMSA13.jpg,AMNE02.jpg,AMNE10.jpg,AMNE10.jpg,MN,1,num_4,32,num_2,1.38337301416,,,2017_May_01_1232,60.0031369795,FEMA4ImagesEEG,001,200301,
AFNE01.JPG,AFNE01.JPG,AFNE01.JPG,AFNE01.JPG,AFNE01.JPG,AFNE01.JPG,,,,,5,4,54,3,,,,,,,,,,,,,,,,,,,AMNE03.jpg,AMSA11.jpg,AMSA07.jpg,AMNE17.jpg,AMSA07.jpg,MS,2,num_2,32,num_8,1.08343353751,,,2017_May_01_1232,60.0031369795,FEMA4ImagesEEG,001,200301,
AFNE01.JPG,AFNE01.JPG,AFNE01.JPG,AFNE01.JPG,AFNE01.JPG,AFNE01.JPG,,,,,5,5,55,6,,,,,,,,,,,,,,,,,,,AMNE11.jpg,AMSA07.jpg,AMSA15.jpg,AMNE08.jpg,AMNE11.jpg,MN,1,num_8,16,num_8,0.950112563558,,,2017_May_01_1232,60.0031369795,FEMA4ImagesEEG,001,200301,
AFNE01.JPG,AFNE01.JPG,AFNE01.JPG,AFNE01.JPG,AFNE01.JPG,AFNE01.JPG,,,,,5,6,56,7,,,,,,,,,,,,,,,,,,,AMSA19.jpg,AMNE07.jpg,AMSA16.jpg,AMNE03.jpg,AMNE03.jpg,MN,1,num_4,16,num_4,1.00015523774,,,2017_May_01_1232,60.0031369795,FEMA4ImagesEEG,001,200301,
AFNE01.JPG,AFNE01.JPG,AFNE01.JPG,AFNE01.JPG,AFNE01.JPG,AFNE01.JPG,,,,,5,7,57,9,,,,,,,,,,,,,,,,,,,AMSA04.jpg,AMNE09.jpg,AMNE15.jpg,AMSA10.jpg,AMSA04.jpg,MS,2,num_8,32,num_4,0.666844142368,,,2017_May_01_1232,60.0031369795,FEMA4ImagesEEG,001,200301,
AFNE01.JPG,AFNE01.JPG,AFNE01.JPG,AFNE01.JPG,AFNE01.JPG,AFNE01.JPG,,,,,5,8,58,1,,,,,,,,,,,,,,,,,,,AMNE11.jpg,AMSA18.jpg,AMNE02.jpg,AMSA06.jpg,AMSA18.jpg,MS,2,num_6,32,num_8,1.1334139884,,,2017_May_01_1232,60.0031369795,FEMA4ImagesEEG,001,200301,
AFNE01.JPG,AFNE01.JPG,AFNE01.JPG,AFNE01.JPG,AFNE01.JPG,AFNE01.JPG,,,,,5,9,59,2,,,,,,,,,,,,,,,,,,,AMSA14.jpg,AMNE14.jpg,AMNE20.jpg,AMSA19.jpg,AMSA14.jpg,MS,2,num_8,16,num_8,1.20041959081,,,2017_May_01_1232,60.0031369795,FEMA4ImagesEEG,001,200301,
,,,,,,,,,,,,,,,,,,,,,,,,,,,,,,,,,,,,,,,,,,,space,2.43336212495,2017_May_01_1232,60.0031369795,FEMA4ImagesEEG,001,200301,
AFNE01.JPG,AFNE01.JPG,AFNE01.JPG,AFNE01.JPG,AFNE01.JPG,AFNE01.JPG,,,,,,,,,0,0,0,9,,,,,,,,,,,,,,,AFSA01.jpg,AFNE12.jpg,AFSA06.jpg,AFNE13.jpg,AFSA01.jpg,FS,4,num_8,32,num_6,0.933469091542,,,2017_May_01_1232,60.0031369795,FEMA4ImagesEEG,001,200301,
AFNE01.JPG,AFNE01.JPG,AFNE01.JPG,AFNE01.JPG,AFNE01.JPG,AFNE01.JPG,,,,,,,,,0,1,1,6,,,,,,,,,,,,,,,AFSA10.jpg,AFNE14.jpg,AFNE03.jpg,AFSA15.jpg,AFNE14.jpg,FN,3,num_6,32,num_8,0.933449847158,,,2017_May_01_1232,60.0031369795,FEMA4ImagesEEG,001,200301,
AFNE01.JPG,AFNE01.JPG,AFNE01.JPG,AFNE01.JPG,AFNE01.JPG,AFNE01.JPG,,,,,,,,,0,2,2,7,,,,,,,,,,,,,,,AFNE05.jpg,AFSA03.jpg,AFNE12.jpg,AFSA02.jpg,AFSA02.jpg,FS,4,num_4,16,num_4,0.850126323057,,,2017_May_01_1232,60.0031369795,FEMA4ImagesEEG,001,200301,
AFNE01.JPG,AFNE01.JPG,AFNE01.JPG,AFNE01.JPG,AFNE01.JPG,AFNE01.JPG,,,,,,,,,0,3,3,5,,,,,,,,,,,,,,,AFNE20.jpg,AFNE05.jpg,AFSA06.jpg,AFSA03.jpg,AFSA06.jpg,FS,4,num_2,32,num_8,1.15009434521,,,2017_May_01_1232,60.0031369795,FEMA4ImagesEEG,001,200301,
AFNE01.JPG,AFNE01.JPG,AFNE01.JPG,AFNE01.JPG,AFNE01.JPG,AFNE01.JPG,,,,,,,,,0,4,4,1,,,,,,,,,,,,,,,AFSA15.jpg,AFNE20.jpg,AFNE17.jpg,AFSA10.jpg,AFSA10.jpg,FS,4,num_4,16,num_4,0.733468706487,,,2017_May_01_1232,60.0031369795,FEMA4ImagesEEG,001,200301,
AFNE01.JPG,AFNE01.JPG,AFNE01.JPG,AFNE01.JPG,AFNE01.JPG,AFNE01.JPG,,,,,,,,,0,5,5,4,,,,,,,,,,,,,,,AFNE07.jpg,AFSA06.jpg,AFSA05.jpg,AFNE14.jpg,AFNE14.jpg,FN,3,num_4,16,num_4,1.26673528343,,,2017_May_01_1232,60.0031369795,FEMA4ImagesEEG,001,200301,
AFNE01.JPG,AFNE01.JPG,AFNE01.JPG,AFNE01.JPG,AFNE01.JPG,AFNE01.JPG,,,,,,,,,0,6,6,3,,,,,,,,,,,,,,,AFNE06.jpg,AFNE17.jpg,AFSA14.jpg,AFSA12.jpg,AFNE06.jpg,FN,3,num_8,16,num_8,0.650158974342,,,2017_May_01_1232,60.0031369795,FEMA4ImagesEEG,001,200301,
AFNE01.JPG,AFNE01.JPG,AFNE01.JPG,AFNE01.JPG,AFNE01.JPG,AFNE01.JPG,,,,,,,,,0,7,7,0,,,,,,,,,,,,,,,AFNE16.jpg,AFNE20.jpg,AFSA06.jpg,AFSA11.jpg,AFSA11.jpg,FS,4,num_4,32,num_8,1.31675839261,,,2017_May_01_1232,60.0031369795,FEMA4ImagesEEG,001,200301,
AFNE01.JPG,AFNE01.JPG,AFNE01.JPG,AFNE01.JPG,AFNE01.JPG,AFNE01.JPG,,,,,,,,,0,8,8,2,,,,,,,,,,,,,,,AFNE03.jpg,AFNE12.jpg,AFSA06.jpg,AFSA10.jpg,AFSA06.jpg,FS,4,num_2,32,num_4,0.783443063498,,,2017_May_01_1232,60.0031369795,FEMA4ImagesEEG,001,200301,
AFNE01.JPG,AFNE01.JPG,AFNE01.JPG,AFNE01.JPG,AFNE01.JPG,AFNE01.JPG,,,,,,,,,0,9,9,8,,,,,,,,,,,,,,,AFSA13.jpg,AFNE11.jpg,AFSA19.jpg,AFNE18.jpg,AFNE11.jpg,FN,3,num_6,32,num_8,0.816784532974,,,2017_May_01_1232,60.0031369795,FEMA4ImagesEEG,001,200301,
AFNE01.JPG,AFNE01.JPG,AFNE01.JPG,AFNE01.JPG,AFNE01.JPG,AFNE01.JPG,,,,,,,,,1,0,10,5,,,,,,,,,,,,,,,AFSA03.jpg,AFNE13.jpg,AFSA16.jpg,AFNE19.jpg,AFNE19.jpg,FN,3,num_4,32,num_8,1.30003666063,,,2017_May_01_1232,60.0031369795,FEMA4ImagesEEG,001,200301,
AFNE01.JPG,AFNE01.JPG,AFNE01.JPG,AFNE01.JPG,AFNE01.JPG,AFNE01.JPG,,,,,,,,,1,1,11,3,,,,,,,,,,,,,,,AFNE13.jpg,AFSA05.jpg,AFSA04.jpg,AFNE14.jpg,AFNE13.jpg,FN,3,num_8,32,num_4,0.683447842486,,,2017_May_01_1232,60.0031369795,FEMA4ImagesEEG,001,200301,
AFNE01.JPG,AFNE01.JPG,AFNE01.JPG,AFNE01.JPG,AFNE01.JPG,AFNE01.JPG,,,,,,,,,1,2,12,8,,,,,,,,,,,,,,,AFNE02.jpg,AFNE17.jpg,AFSA08.jpg,AFSA02.jpg,AFNE17.jpg,FN,3,num_6,32,num_8,0.566802093294,,,2017_May_01_1232,60.0031369795,FEMA4ImagesEEG,001,200301,
AFNE01.JPG,AFNE01.JPG,AFNE01.JPG,AFNE01.JPG,AFNE01.JPG,AFNE01.JPG,,,,,,,,,1,3,13,2,,,,,,,,,,,,,,,AFSA02.jpg,AFNE14.jpg,AFNE17.jpg,AFSA20.jpg,AFSA02.jpg,FS,4,num_8,32,num_4,0.783520361641,,,2017_May_01_1232,60.0031369795,FEMA4ImagesEEG,001,200301,
AFNE01.JPG,AFNE01.JPG,AFNE01.JPG,AFNE01.JPG,AFNE01.JPG,AFNE01.JPG,,,,,,,,,1,4,14,1,,,,,,,,,,,,,,,AFSA18.jpg,AFNE02.jpg,AFNE07.jpg,AFSA19.jpg,AFNE02.jpg,FN,3,num_6,32,num_4,1.08347266773,,,2017_May_01_1232,60.0031369795,FEMA4ImagesEEG,001,200301,
AFNE01.JPG,AFNE01.JPG,AFNE01.JPG,AFNE01.JPG,AFNE01.JPG,AFNE01.JPG,,,,,,,,,1,5,15,4,,,,,,,,,,,,,,,AFSA14.jpg,AFNE01.jpg,AFNE13.jpg,AFSA04.jpg,AFNE13.jpg,FN,3,num_2,32,num_6,1.23345090565,,,2017_May_01_1232,60.0031369795,FEMA4ImagesEEG,001,200301,
AFNE01.JPG,AFNE01.JPG,AFNE01.JPG,AFNE01.JPG,AFNE01.JPG,AFNE01.JPG,,,,,,,,,1,6,16,0,,,,,,,,,,,,,,,AFNE11.jpg,AFSA02.jpg,AFNE17.jpg,AFSA13.jpg,AFSA02.jpg,FS,4,num_6,32,num_8,0.850149416365,,,2017_May_01_1232,60.0031369795,FEMA4ImagesEEG,001,200301,
AFNE01.JPG,AFNE01.JPG,AFNE01.JPG,AFNE01.JPG,AFNE01.JPG,AFNE01.JPG,,,,,,,,,1,7,17,6,,,,,,,,,,,,,,,AFNE09.jpg,AFSA16.jpg,AFNE03.jpg,AFSA19.jpg,AFNE09.jpg,FN,3,num_8,16,num_8,0.333456069464,,,2017_May_01_1232,60.0031369795,FEMA4ImagesEEG,001,200301,
AFNE01.JPG,AFNE01.JPG,AFNE01.JPG,AFNE01.JPG,AFNE01.JPG,AFNE01.JPG,,,,,,,,,1,8,18,9,,,,,,,,,,,,,,,AFNE19.jpg,AFSA02.jpg,AFNE10.jpg,AFSA10.jpg,AFSA02.jpg,FS,4,num_6,32,num_8,0.549993761582,,,2017_May_01_1232,60.0031369795,FEMA4ImagesEEG,001,200301,
AFNE01.JPG,AFNE01.JPG,AFNE01.JPG,AFNE01.JPG,AFNE01.JPG,AFNE01.JPG,,,,,,,,,1,9,19,7,,,,,,,,,,,,,,,AFSA16.jpg,AFNE13.jpg,AFNE17.jpg,AFSA13.jpg,AFNE13.jpg,FN,3,num_6,32,num_8,0.383449991466,,,2017_May_01_1232,60.0031369795,FEMA4ImagesEEG,001,200301,
AFNE01.JPG,AFNE01.JPG,AFNE01.JPG,AFNE01.JPG,AFNE01.JPG,AFNE01.JPG,,,,,,,,,2,0,20,4,,,,,,,,,,,,,,,AFSA11.jpg,AFSA09.jpg,AFNE09.jpg,AFNE07.jpg,AFNE09.jpg,FN,3,num_2,32,num_4,0.350133860484,,,2017_May_01_1232,60.0031369795,FEMA4ImagesEEG,001,200301,
AFNE01.JPG,AFNE01.JPG,AFNE01.JPG,AFNE01.JPG,AFNE01.JPG,AFNE01.JPG,,,,,,,,,2,1,21,9,,,,,,,,,,,,,,,AFNE14.jpg,AFSA14.jpg,AFSA05.jpg,AFNE04.jpg,AFSA05.jpg,FS,4,num_2,16,num_2,0.616806599777,,,2017_May_01_1232,60.0031369795,FEMA4ImagesEEG,001,200301,
AFNE01.JPG,AFNE01.JPG,AFNE01.JPG,AFNE01.JPG,AFNE01.JPG,AFNE01.JPG,,,,,,,,,2,2,22,7,,,,,,,,,,,,,,,AFNE11.jpg,AFNE12.jpg,AFSA08.jpg,AFSA05.jpg,AFNE11.jpg,FN,3,num_8,32,num_2,1.88335136417,,,2017_May_01_1232,60.0031369795,FEMA4ImagesEEG,001,200301,
AFNE01.JPG,AFNE01.JPG,AFNE01.JPG,AFNE01.JPG,AFNE01.JPG,AFNE01.JPG,,,,,,,,,2,3,23,8,,,,,,,,,,,,,,,AFNE15.jpg,AFSA01.jpg,AFNE09.jpg,AFSA12.jpg,AFSA12.jpg,FS,4,num_4,16,num_4,0.433560020989,,,2017_May_01_1232,60.0031369795,FEMA4ImagesEEG,001,200301,
AFNE01.JPG,AFNE01.JPG,AFNE01.JPG,AFNE01.JPG,AFNE01.JPG,AFNE01.JPG,,,,,,,,,2,4,24,1,,,,,,,,,,,,,,,AFSA11.jpg,AFSA03.jpg,AFNE07.jpg,AFNE05.jpg,AFSA11.jpg,FS,4,num_8,32,num_2,1.20005875942,,,2017_May_01_1232,60.0031369795,FEMA4ImagesEEG,001,200301,
AFNE01.JPG,AFNE01.JPG,AFNE01.JPG,AFNE01.JPG,AFNE01.JPG,AFNE01.JPG,,,,,,,,,2,5,25,3,,,,,,,,,,,,,,,AFNE14.jpg,AFSA03.jpg,AFNE12.jpg,AFSA11.jpg,AFNE14.jpg,FN,3,num_8,16,num_8,1.23353525996,,,2017_May_01_1232,60.0031369795,FEMA4ImagesEEG,001,200301,
AFNE01.JPG,AFNE01.JPG,AFNE01.JPG,AFNE01.JPG,AFNE01.JPG,AFNE01.JPG,,,,,,,,,2,6,26,6,,,,,,,,,,,,,,,AFNE02.jpg,AFSA17.jpg,AFSA14.jpg,AFNE10.jpg,AFSA14.jpg,FS,4,num_2,32,num_4,1.36670709029,,,2017_May_01_1232,60.0031369795,FEMA4ImagesEEG,001,200301,
AFNE01.JPG,AFNE01.JPG,AFNE01.JPG,AFNE01.JPG,AFNE01.JPG,AFNE01.JPG,,,,,,,,,2,7,27,2,,,,,,,,,,,,,,,AFNE02.jpg,AFSA03.jpg,AFNE12.jpg,AFSA17.jpg,AFNE02.jpg,FN,3,num_8,32,num_4,1.13345632609,,,2017_May_01_1232,60.0031369795,FEMA4ImagesEEG,001,200301,
AFNE01.JPG,AFNE01.JPG,AFNE01.JPG,AFNE01.JPG,AFNE01.JPG,AFNE01.JPG,,,,,,,,,2,8,28,0,,,,,,,,,,,,,,,AFSA06.jpg,AFSA04.jpg,AFNE11.jpg,AFNE14.jpg,AFSA06.jpg,FS,4,num_8,16,num_8,0.916419564048,,,2017_May_01_1232,60.0031369795,FEMA4ImagesEEG,001,200301,
AFNE01.JPG,AFNE01.JPG,AFNE01.JPG,AFNE01.JPG,AFNE01.JPG,AFNE01.JPG,,,,,,,,,2,9,29,5,,,,,,,,,,,,,,,AFSA13.jpg,AFNE16.jpg,AFNE08.jpg,AFSA06.jpg,AFNE16.jpg,FN,3,num_6,16,num_6,1.60010026302,,,2017_May_01_1232,60.0031369795,FEMA4ImagesEEG,001,200301,
AFNE01.JPG,AFNE01.JPG,AFNE01.JPG,AFNE01.JPG,AFNE01.JPG,AFNE01.JPG,,,,,,,,,3,0,30,7,,,,,,,,,,,,,,,AFNE19.jpg,AFSA01.jpg,AFNE05.jpg,AFSA16.jpg,AFNE19.jpg,FN,3,num_8,16,num_8,1.19999749842,,,2017_May_01_1232,60.0031369795,FEMA4ImagesEEG,001,200301,
AFNE01.JPG,AFNE01.JPG,AFNE01.JPG,AFNE01.JPG,AFNE01.JPG,AFNE01.JPG,,,,,,,,,3,1,31,5,,,,,,,,,,,,,,,AFSA12.jpg,AFSA16.jpg,AFNE14.jpg,AFNE02.jpg,AFNE14.jpg,FN,3,num_2,32,num_8,1.86698340741,,,2017_May_01_1232,60.0031369795,FEMA4ImagesEEG,001,200301,
AFNE01.JPG,AFNE01.JPG,AFNE01.JPG,AFNE01.JPG,AFNE01.JPG,AFNE01.JPG,,,,,,,,,3,2,32,6,,,,,,,,,,,,,,,AFNE16.jpg,AFSA08.jpg,AFNE11.jpg,AFSA20.jpg,AFSA20.jpg,FS,4,num_4,16,num_4,0.516766795889,,,2017_May_01_1232,60.0031369795,FEMA4ImagesEEG,001,200301,
AFNE01.JPG,AFNE01.JPG,AFNE01.JPG,AFNE01.JPG,AFNE01.JPG,AFNE01.JPG,,,,,,,,,3,3,33,3,,,,,,,,,,,,,,,AFNE06.jpg,AFSA09.jpg,AFSA07.jpg,AFNE14.jpg,AFSA09.jpg,FS,4,num_6,16,num_6,0.316845954396,,,2017_May_01_1232,60.0031369795,FEMA4ImagesEEG,001,200301,
AFNE01.JPG,AFNE01.JPG,AFNE01.JPG,AFNE01.JPG,AFNE01.JPG,AFNE01.JPG,,,,,,,,,3,4,34,9,,,,,,,,,,,,,,,AFSA01.jpg,AFSA10.jpg,AFNE08.jpg,AFNE04.jpg,AFNE08.jpg,FN,3,num_2,32,num_4,0.950203974033,,,2017_May_01_1232,60.0031369795,FEMA4ImagesEEG,001,200301,
AFNE01.JPG,AFNE01.JPG,AFNE01.JPG,AFNE01.JPG,AFNE01.JPG,AFNE01.JPG,,,,,,,,,3,5,35,0,,,,,,,,,,,,,,,AFSA13.jpg,AFNE08.jpg,AFSA11.jpg,AFNE03.jpg,AFSA13.jpg,FS,4,num_8,16,num_8,2.38341503101,,,2017_May_01_1232,60.0031369795,FEMA4ImagesEEG,001,200301,
AFNE01.JPG,AFNE01.JPG,AFNE01.JPG,AFNE01.JPG,AFNE01.JPG,AFNE01.JPG,,,,,,,,,3,6,36,2,,,,,,,,,,,,,,,AFNE06.jpg,AFSA03.jpg,AFSA06.jpg,AFNE12.jpg,AFSA06.jpg,FS,4,num_2,32,num_4,0.399991789134,,,2017_May_01_1232,60.0031369795,FEMA4ImagesEEG,001,200301,
AFNE01.JPG,AFNE01.JPG,AFNE01.JPG,AFNE01.JPG,AFNE01.JPG,AFNE01.JPG,,,,,,,,,3,7,37,4,,,,,,,,,,,,,,,AFNE09.jpg,AFNE03.jpg,AFSA03.jpg,AFSA11.jpg,AFNE03.jpg,FN,3,num_6,16,num_6,0.316734978696,,,2017_May_01_1232,60.0031369795,FEMA4ImagesEEG,001,200301,
AFNE01.JPG,AFNE01.JPG,AFNE01.JPG,AFNE01.JPG,AFNE01.JPG,AFNE01.JPG,,,,,,,,,3,8,38,8,,,,,,,,,,,,,,,AFSA16.jpg,AFNE09.jpg,AFSA07.jpg,AFNE19.jpg,AFSA07.jpg,FS,4,num_2,32,num_8,0.900101962965,,,2017_May_01_1232,60.0031369795,FEMA4ImagesEEG,001,200301,
AFNE01.JPG,AFNE01.JPG,AFNE01.JPG,AFNE01.JPG,AFNE01.JPG,AFNE01.JPG,,,,,,,,,3,9,39,1,,,,,,,,,,,,,,,AFSA18.jpg,AFNE16.jpg,AFSA10.jpg,AFNE12.jpg,AFSA18.jpg,FS,4,num_8,32,num_2,0.733468065038,,,2017_May_01_1232,60.0031369795,FEMA4ImagesEEG,001,200301,
AFNE01.JPG,AFNE01.JPG,AFNE01.JPG,AFNE01.JPG,AFNE01.JPG,AFNE01.JPG,,,,,,,,,4,0,40,4,,,,,,,,,,,,,,,AFSA11.jpg,AFNE17.jpg,AFSA16.jpg,AFNE14.jpg,AFNE14.jpg,FN,3,num_4,32,num_2,0.433474383783,,,2017_May_01_1232,60.0031369795,FEMA4ImagesEEG,001,200301,
AFNE01.JPG,AFNE01.JPG,AFNE01.JPG,AFNE01.JPG,AFNE01.JPG,AFNE01.JPG,,,,,,,,,4,1,41,7,,,,,,,,,,,,,,,AFNE03.jpg,AFSA08.jpg,AFNE07.jpg,AFSA10.jpg,AFNE03.jpg,FN,3,num_8,32,num_4,3.56661574403,,,2017_May_01_1232,60.0031369795,FEMA4ImagesEEG,001,200301,
AFNE01.JPG,AFNE01.JPG,AFNE01.JPG,AFNE01.JPG,AFNE01.JPG,AFNE01.JPG,,,,,,,,,4,2,42,3,,,,,,,,,,,,,,,AFSA15.jpg,AFNE10.jpg,AFNE05.jpg,AFSA11.jpg,AFSA15.jpg,FS,4,num_8,16,num_8,1.36666699802,,,2017_May_01_1232,60.0031369795,FEMA4ImagesEEG,001,200301,
AFNE01.JPG,AFNE01.JPG,AFNE01.JPG,AFNE01.JPG,AFNE01.JPG,AFNE01.JPG,,,,,,,,,4,3,43,6,,,,,,,,,,,,,,,AFSA20.jpg,AFNE20.jpg,AFSA14.jpg,AFNE10.jpg,AFSA20.jpg,FS,4,num_8,16,num_8,0.616802109638,,,2017_May_01_1232,60.0031369795,FEMA4ImagesEEG,001,200301,
AFNE01.JPG,AFNE01.JPG,AFNE01.JPG,AFNE01.JPG,AFNE01.JPG,AFNE01.JPG,,,,,,,,,4,4,44,2,,,,,,,,,,,,,,,AFNE14.jpg,AFSA13.jpg,AFSA16.jpg,AFNE04.jpg,AFNE14.jpg,FN,3,num_8,32,num_4,0.916712719481,,,2017_May_01_1232,60.0031369795,FEMA4ImagesEEG,001,200301,
AFNE01.JPG,AFNE01.JPG,AFNE01.JPG,AFNE01.JPG,AFNE01.JPG,AFNE01.JPG,,,,,,,,,4,5,45,1,,,,,,,,,,,,,,,AFSA11.jpg,AFNE02.jpg,AFSA04.jpg,AFNE17.jpg,AFSA11.jpg,FS,4,num_8,32,num_6,1.05012125545,,,2017_May_01_1232,60.0031369795,FEMA4ImagesEEG,001,200301,
AFNE01.JPG,AFNE01.JPG,AFNE01.JPG,AFNE01.JPG,AFNE01.JPG,AFNE01.JPG,,,,,,,,,4,6,46,8,,,,,,,,,,,,,,,AFSA09.jpg,AFSA06.jpg,AFNE15.jpg,AFNE01.jpg,AFNE15.jpg,FN,3,num_2,16,num_2,1.00015716208,,,2017_May_01_1232,60.0031369795,FEMA4ImagesEEG,001,200301,
AFNE01.JPG,AFNE01.JPG,AFNE01.JPG,AFNE01.JPG,AFNE01.JPG,AFNE01.JPG,,,,,,,,,4,7,47,9,,,,,,,,,,,,,,,AFNE08.jpg,AFSA01.jpg,AFSA15.jpg,AFNE13.jpg,AFNE13.jpg,FN,3,num_4,32,num_8,0.566791188437,,,2017_May_01_1232,60.0031369795,FEMA4ImagesEEG,001,200301,
AFNE01.JPG,AFNE01.JPG,AFNE01.JPG,AFNE01.JPG,AFNE01.JPG,AFNE01.JPG,,,,,,,,,4,8,48,5,,,,,,,,,,,,,,,AFNE18.jpg,AFSA05.jpg,AFSA13.jpg,AFNE06.jpg,AFSA05.jpg,FS,4,num_6,32,num_8,0.416785366833,,,2017_May_01_1232,60.0031369795,FEMA4ImagesEEG,001,200301,
AFNE01.JPG,AFNE01.JPG,AFNE01.JPG,AFNE01.JPG,AFNE01.JPG,AFNE01.JPG,,,,,,,,,4,9,49,0,,,,,,,,,,,,,,,AFSA17.jpg,AFNE20.jpg,AFNE07.jpg,AFSA16.jpg,AFNE07.jpg,FN,3,num_2,16,num_2,1.70003935462,,,2017_May_01_1232,60.0031369795,FEMA4ImagesEEG,001,200301,
AFNE01.JPG,AFNE01.JPG,AFNE01.JPG,AFNE01.JPG,AFNE01.JPG,AFNE01.JPG,,,,,,,,,5,0,50,4,,,,,,,,,,,,,,,AFSA01.jpg,AFSA05.jpg,AFNE08.jpg,AFNE01.jpg,AFSA05.jpg,FS,4,num_6,32,num_4,1.40008736937,,,2017_May_01_1232,60.0031369795,FEMA4ImagesEEG,001,200301,
AFNE01.JPG,AFNE01.JPG,AFNE01.JPG,AFNE01.JPG,AFNE01.JPG,AFNE01.JPG,,,,,,,,,5,1,51,5,,,,,,,,,,,,,,,AFNE01.jpg,AFSA08.jpg,AFSA07.jpg,AFNE12.jpg,AFNE01.jpg,FN,3,num_8,16,num_8,1.14995995583,,,2017_May_01_1232,60.0031369795,FEMA4ImagesEEG,001,200301,
AFNE01.JPG,AFNE01.JPG,AFNE01.JPG,AFNE01.JPG,AFNE01.JPG,AFNE01.JPG,,,,,,,,,5,2,52,1,,,,,,,,,,,,,,,AFNE04.jpg,AFSA19.jpg,AFNE16.jpg,AFSA03.jpg,AFSA19.jpg,FS,4,num_6,32,num_8,0.733468385879,,,2017_May_01_1232,60.0031369795,FEMA4ImagesEEG,001,200301,
AFNE01.JPG,AFNE01.JPG,AFNE01.JPG,AFNE01.JPG,AFNE01.JPG,AFNE01.JPG,,,,,,,,,5,3,53,8,,,,,,,,,,,,,,,AFNE19.jpg,AFSA09.jpg,AFSA10.jpg,AFNE08.jpg,AFNE19.jpg,FN,3,num_8,16,num_8,0.650222480763,,,2017_May_01_1232,60.0031369795,FEMA4ImagesEEG,001,200301,
AFNE01.JPG,AFNE01.JPG,AFNE01.JPG,AFNE01.JPG,AFNE01.JPG,AFNE01.JPG,,,,,,,,,5,4,54,2,,,,,,,,,,,,,,,AFNE02.jpg,AFSA04.jpg,AFNE07.jpg,AFSA03.jpg,AFNE07.jpg,FN,3,num_2,16,num_2,0.50011498481,,,2017_May_01_1232,60.0031369795,FEMA4ImagesEEG,001,200301,
AFNE01.JPG,AFNE01.JPG,AFNE01.JPG,AFNE01.JPG,AFNE01.JPG,AFNE01.JPG,,,,,,,,,5,5,55,7,,,,,,,,,,,,,,,AFNE06.jpg,AFSA10.jpg,AFNE13.jpg,AFSA16.jpg,AFNE06.jpg,FN,3,num_8,32,num_4,0.700145519339,,,2017_May_01_1232,60.0031369795,FEMA4ImagesEEG,001,200301,
AFNE01.JPG,AFNE01.JPG,AFNE01.JPG,AFNE01.JPG,AFNE01.JPG,AFNE01.JPG,,,,,,,,,5,6,56,9,,,,,,,,,,,,,,,AFSA11.jpg,AFNE11.jpg,AFNE01.jpg,AFSA03.jpg,AFNE11.jpg,FN,3,num_6,32,num_2,0.483607185772,,,2017_May_01_1232,60.0031369795,FEMA4ImagesEEG,001,200301,
AFNE01.JPG,AFNE01.JPG,AFNE01.JPG,AFNE01.JPG,AFNE01.JPG,AFNE01.JPG,,,,,,,,,5,7,57,0,,,,,,,,,,,,,,,AFNE07.jpg,AFSA07.jpg,AFSA16.jpg,AFNE05.jpg,AFNE07.jpg,FN,3,num_8,16,num_8,0.883497300558,,,2017_May_01_1232,60.0031369795,FEMA4ImagesEEG,001,200301,
AFNE01.JPG,AFNE01.JPG,AFNE01.JPG,AFNE01.JPG,AFNE01.JPG,AFNE01.JPG,,,,,,,,,5,8,58,3,,,,,,,,,,,,,,,AFNE10.jpg,AFNE17.jpg,AFSA19.jpg,AFSA13.jpg,AFNE10.jpg,FN,3,num_8,32,num_4,0.683504613349,,,2017_May_01_1232,60.0031369795,FEMA4ImagesEEG,001,200301,
AFNE01.JPG,AFNE01.JPG,AFNE01.JPG,AFNE01.JPG,AFNE01.JPG,AFNE01.JPG,,,,,,,,,5,9,59,6,,,,,,,,,,,,,,,AFSA11.jpg,AFNE05.jpg,AFSA17.jpg,AFNE16.jpg,AFNE16.jpg,FN,3,num_4,16,num_4,0.383519912604,,,2017_May_01_1232,60.0031369795,FEMA4ImagesEEG,001,200301,
,,,,,,,,,,,,,,,,,,,,,,,,,,,,,,,,,,,,,,,,,,,space,11.5492278365,2017_May_01_1232,60.0031369795,FEMA4ImagesEEG,001,200301,
AFNE01.JPG,AFNE01.JPG,AFNE01.JPG,AFNE01.JPG,AFNE01.JPG,AFNE01.JPG,,,,,,,,,,,,,0,0,0,9,,,,,,,,,,,AMNE03.jpg,AMSA11.jpg,AMNE15.jpg,AMSA17.jpg,AMNE03.jpg,MN,1,num_8,16,num_8,1.80004868819,,,2017_May_01_1232,60.0031369795,FEMA4ImagesEEG,001,200301,
AFNE01.JPG,AFNE01.JPG,AFNE01.JPG,AFNE01.JPG,AFNE01.JPG,AFNE01.JPG,,,,,,,,,,,,,0,1,1,6,,,,,,,,,,,AMNE08.jpg,AMSA15.jpg,AMNE11.jpg,AMSA12.jpg,AMSA12.jpg,MS,2,num_4,32,num_8,0.550106020411,,,2017_May_01_1232,60.0031369795,FEMA4ImagesEEG,001,200301,
AFNE01.JPG,AFNE01.JPG,AFNE01.JPG,AFNE01.JPG,AFNE01.JPG,AFNE01.JPG,,,,,,,,,,,,,0,2,2,0,,,,,,,,,,,AMSA02.jpg,AMSA03.jpg,AMNE03.jpg,AMNE02.jpg,AMSA03.jpg,MS,2,num_6,16,num_6,0.583485657815,,,2017_May_01_1232,60.0031369795,FEMA4ImagesEEG,001,200301,
AFNE01.JPG,AFNE01.JPG,AFNE01.JPG,AFNE01.JPG,AFNE01.JPG,AFNE01.JPG,,,,,,,,,,,,,0,3,3,5,,,,,,,,,,,AMNE17.jpg,AMNE16.jpg,AMSA07.jpg,AMSA09.jpg,AMSA07.jpg,MS,2,num_2,32,num_4,0.999943870585,,,2017_May_01_1232,60.0031369795,FEMA4ImagesEEG,001,200301,
AFNE01.JPG,AFNE01.JPG,AFNE01.JPG,AFNE01.JPG,AFNE01.JPG,AFNE01.JPG,,,,,,,,,,,,,0,4,4,3,,,,,,,,,,,AMNE17.jpg,AMNE05.jpg,AMSA11.jpg,AMSA02.jpg,AMSA11.jpg,MS,2,num_2,32,num_6,0.61679344927,,,2017_May_01_1232,60.0031369795,FEMA4ImagesEEG,001,200301,
AFNE01.JPG,AFNE01.JPG,AFNE01.JPG,AFNE01.JPG,AFNE01.JPG,AFNE01.JPG,,,,,,,,,,,,,0,5,5,8,,,,,,,,,,,AMNE02.jpg,AMNE06.jpg,AMSA16.jpg,AMSA19.jpg,AMNE06.jpg,MN,1,num_6,16,num_6,0.983425166225,,,2017_May_01_1232,60.0031369795,FEMA4ImagesEEG,001,200301,
AFNE01.JPG,AFNE01.JPG,AFNE01.JPG,AFNE01.JPG,AFNE01.JPG,AFNE01.JPG,,,,,,,,,,,,,0,6,6,2,,,,,,,,,,,AMSA17.jpg,AMSA16.jpg,AMNE18.jpg,AMNE12.jpg,AMNE12.jpg,MN,1,num_4,32,num_8,1.16670895065,,,2017_May_01_1232,60.0031369795,FEMA4ImagesEEG,001,200301,
AFNE01.JPG,AFNE01.JPG,AFNE01.JPG,AFNE01.JPG,AFNE01.JPG,AFNE01.JPG,,,,,,,,,,,,,0,7,7,4,,,,,,,,,,,AMNE10.jpg,AMSA08.jpg,AMNE03.jpg,AMSA13.jpg,AMSA08.jpg,MS,2,num_6,16,num_6,0.766757895472,,,2017_May_01_1232,60.0031369795,FEMA4ImagesEEG,001,200301,
AFNE01.JPG,AFNE01.JPG,AFNE01.JPG,AFNE01.JPG,AFNE01.JPG,AFNE01.JPG,,,,,,,,,,,,,0,8,8,7,,,,,,,,,,,AMNE05.jpg,AMSA03.jpg,AMSA09.jpg,AMNE17.jpg,AMSA03.jpg,MS,2,num_6,16,num_6,0.516740174731,,,2017_May_01_1232,60.0031369795,FEMA4ImagesEEG,001,200301,
AFNE01.JPG,AFNE01.JPG,AFNE01.JPG,AFNE01.JPG,AFNE01.JPG,AFNE01.JPG,,,,,,,,,,,,,0,9,9,1,,,,,,,,,,,AMNE06.jpg,AMNE15.jpg,AMSA13.jpg,AMSA17.jpg,AMNE06.jpg,MN,1,num_8,32,num_4,1.60010122531,,,2017_May_01_1232,60.0031369795,FEMA4ImagesEEG,001,200301,
AFNE01.JPG,AFNE01.JPG,AFNE01.JPG,AFNE01.JPG,AFNE01.JPG,AFNE01.JPG,,,,,,,,,,,,,1,0,10,4,,,,,,,,,,,AMNE13.jpg,AMSA16.jpg,AMNE16.jpg,AMSA12.jpg,AMNE13.jpg,MN,1,num_8,16,num_8,0.750137196155,,,2017_May_01_1232,60.0031369795,FEMA4ImagesEEG,001,200301,
AFNE01.JPG,AFNE01.JPG,AFNE01.JPG,AFNE01.JPG,AFNE01.JPG,AFNE01.JPG,,,,,,,,,,,,,1,1,11,1,,,,,,,,,,,AMSA16.jpg,AMNE02.jpg,AMNE01.jpg,AMSA12.jpg,AMNE01.jpg,MN,1,num_2,16,num_2,1.80004548095,,,2017_May_01_1232,60.0031369795,FEMA4ImagesEEG,001,200301,
AFNE01.JPG,AFNE01.JPG,AFNE01.JPG,AFNE01.JPG,AFNE01.JPG,AFNE01.JPG,,,,,,,,,,,,,1,2,12,5,,,,,,,,,,,AMSA02.jpg,AMNE19.jpg,AMNE09.jpg,AMSA18.jpg,AMNE19.jpg,MN,1,num_6,16,num_6,0.833444683347,,,2017_May_01_1232,60.0031369795,FEMA4ImagesEEG,001,200301,
AFNE01.JPG,AFNE01.JPG,AFNE01.JPG,AFNE01.JPG,AFNE01.JPG,AFNE01.JPG,,,,,,,,,,,,,1,3,13,8,,,,,,,,,,,AMSA12.jpg,AMSA13.jpg,AMNE11.jpg,AMNE12.jpg,AMSA13.jpg,MS,2,num_6,16,num_6,1.01682661404,,,2017_May_01_1232,60.0031369795,FEMA4ImagesEEG,001,200301,
AFNE01.JPG,AFNE01.JPG,AFNE01.JPG,AFNE01.JPG,AFNE01.JPG,AFNE01.JPG,,,,,,,,,,,,,1,4,14,9,,,,,,,,,,,AMNE14.jpg,AMSA12.jpg,AMSA18.jpg,AMNE08.jpg,AMSA12.jpg,MS,2,num_6,32,num_4,1.25011490472,,,2017_May_01_1232,60.0031369795,FEMA4ImagesEEG,001,200301,
AFNE01.JPG,AFNE01.JPG,AFNE01.JPG,AFNE01.JPG,AFNE01.JPG,AFNE01.JPG,,,,,,,,,,,,,1,5,15,3,,,,,,,,,,,AMNE12.jpg,AMSA07.jpg,AMNE20.jpg,AMSA11.jpg,AMNE20.jpg,MN,1,num_2,32,num_8,1.10014917562,,,2017_May_01_1232,60.0031369795,FEMA4ImagesEEG,001,200301,
AFNE01.JPG,AFNE01.JPG,AFNE01.JPG,AFNE01.JPG,AFNE01.JPG,AFNE01.JPG,,,,,,,,,,,,,1,6,16,6,,,,,,,,,,,AMSA06.jpg,AMNE15.jpg,AMNE18.jpg,AMSA16.jpg,AMSA06.jpg,MS,2,num_8,32,num_4,0.750161251752,,,2017_May_01_1232,60.0031369795,FEMA4ImagesEEG,001,200301,
AFNE01.JPG,AFNE01.JPG,AFNE01.JPG,AFNE01.JPG,AFNE01.JPG,AFNE01.JPG,,,,,,,,,,,,,1,7,17,7,,,,,,,,,,,AMNE16.jpg,AMSA07.jpg,AMNE14.jpg,AMSA13.jpg,AMSA07.jpg,MS,2,num_6,32,num_4,1.08345631021,,,2017_May_01_1232,60.0031369795,FEMA4ImagesEEG,001,200301,
AFNE01.JPG,AFNE01.JPG,AFNE01.JPG,AFNE01.JPG,AFNE01.JPG,AFNE01.JPG,,,,,,,,,,,,,1,8,18,0,,,,,,,,,,,AMSA17.jpg,AMNE07.jpg,AMSA05.jpg,AMNE09.jpg,AMSA05.jpg,MS,2,num_2,32,num_8,1.18348360481,,,2017_May_01_1232,60.0031369795,FEMA4ImagesEEG,001,200301,
AFNE01.JPG,AFNE01.JPG,AFNE01.JPG,AFNE01.JPG,AFNE01.JPG,AFNE01.JPG,,,,,,,,,,,,,1,9,19,2,,,,,,,,,,,AMNE06.jpg,AMNE02.jpg,AMSA07.jpg,AMSA03.jpg,AMSA07.jpg,MS,2,num_2,16,num_2,1.15009723208,,,2017_May_01_1232,60.0031369795,FEMA4ImagesEEG,001,200301,
AFNE01.JPG,AFNE01.JPG,AFNE01.JPG,AFNE01.JPG,AFNE01.JPG,AFNE01.JPG,,,,,,,,,,,,,2,0,20,4,,,,,,,,,,,AMNE16.jpg,AMNE12.jpg,AMSA16.jpg,AMSA06.jpg,AMSA16.jpg,MS,2,num_2,16,num_2,1.28343648836,,,2017_May_01_1232,60.0031369795,FEMA4ImagesEEG,001,200301,
AFNE01.JPG,AFNE01.JPG,AFNE01.JPG,AFNE01.JPG,AFNE01.JPG,AFNE01.JPG,,,,,,,,,,,,,2,1,21,5,,,,,,,,,,,AMSA20.jpg,AMSA13.jpg,AMNE03.jpg,AMNE19.jpg,AMSA20.jpg,MS,2,num_8,16,num_8,1.43347823247,,,2017_May_01_1232,60.0031369795,FEMA4ImagesEEG,001,200301,
AFNE01.JPG,AFNE01.JPG,AFNE01.JPG,AFNE01.JPG,AFNE01.JPG,AFNE01.JPG,,,,,,,,,,,,,2,2,22,7,,,,,,,,,,,AMSA06.jpg,AMSA17.jpg,AMNE07.jpg,AMNE12.jpg,AMSA06.jpg,MS,2,num_8,32,num_4,1.08341140673,,,2017_May_01_1232,60.0031369795,FEMA4ImagesEEG,001,200301,
AFNE01.JPG,AFNE01.JPG,AFNE01.JPG,AFNE01.JPG,AFNE01.JPG,AFNE01.JPG,,,,,,,,,,,,,2,3,23,2,,,,,,,,,,,AMNE10.jpg,AMSA10.jpg,AMNE16.jpg,AMSA07.jpg,AMSA10.jpg,MS,2,num_6,32,num_2,0.850079174386,,,2017_May_01_1232,60.0031369795,FEMA4ImagesEEG,001,200301,
AFNE01.JPG,AFNE01.JPG,AFNE01.JPG,AFNE01.JPG,AFNE01.JPG,AFNE01.JPG,,,,,,,,,,,,,2,4,24,1,,,,,,,,,,,AMNE14.jpg,AMNE11.jpg,AMSA10.jpg,AMSA17.jpg,AMNE14.jpg,MN,1,num_8,16,num_8,1.3667959352,,,2017_May_01_1232,60.0031369795,FEMA4ImagesEEG,001,200301,
AFNE01.JPG,AFNE01.JPG,AFNE01.JPG,AFNE01.JPG,AFNE01.JPG,AFNE01.JPG,,,,,,,,,,,,,2,5,25,0,,,,,,,,,,,AMNE01.jpg,AMSA18.jpg,AMSA08.jpg,AMNE05.jpg,AMSA08.jpg,MS,2,num_2,32,num_4,0.366826726124,,,2017_May_01_1232,60.0031369795,FEMA4ImagesEEG,001,200301,
AFNE01.JPG,AFNE01.JPG,AFNE01.JPG,AFNE01.JPG,AFNE01.JPG,AFNE01.JPG,,,,,,,,,,,,,2,6,26,3,,,,,,,,,,,AMSA02.jpg,AMNE11.jpg,AMSA18.jpg,AMNE17.jpg,AMSA02.jpg,MS,2,num_8,16,num_8,0.950146561721,,,2017_May_01_1232,60.0031369795,FEMA4ImagesEEG,001,200301,
AFNE01.JPG,AFNE01.JPG,AFNE01.JPG,AFNE01.JPG,AFNE01.JPG,AFNE01.JPG,,,,,,,,,,,,,2,7,27,6,,,,,,,,,,,AMSA19.jpg,AMNE19.jpg,AMNE17.jpg,AMSA02.jpg,AMNE17.jpg,MN,1,num_2,32,num_4,2.20009371988,,,2017_May_01_1232,60.0031369795,FEMA4ImagesEEG,001,200301,
AFNE01.JPG,AFNE01.JPG,AFNE01.JPG,AFNE01.JPG,AFNE01.JPG,AFNE01.JPG,,,,,,,,,,,,,2,8,28,8,,,,,,,,,,,AMNE08.jpg,AMSA04.jpg,AMNE09.jpg,AMSA10.jpg,AMSA10.jpg,MS,2,num_4,32,num_8,0.566643648315,,,2017_May_01_1232,60.0031369795,FEMA4ImagesEEG,001,200301,
AFNE01.JPG,AFNE01.JPG,AFNE01.JPG,AFNE01.JPG,AFNE01.JPG,AFNE01.JPG,,,,,,,,,,,,,2,9,29,9,,,,,,,,,,,AMSA07.jpg,AMSA13.jpg,AMNE01.jpg,AMNE04.jpg,AMSA07.jpg,MS,2,num_8,16,num_8,0.700211270712,,,2017_May_01_1232,60.0031369795,FEMA4ImagesEEG,001,200301,
AFNE01.JPG,AFNE01.JPG,AFNE01.JPG,AFNE01.JPG,AFNE01.JPG,AFNE01.JPG,,,,,,,,,,,,,3,0,30,0,,,,,,,,,,,AMSA10.jpg,AMNE17.jpg,AMSA17.jpg,AMNE14.jpg,AMSA10.jpg,MS,2,num_8,16,num_8,0.616822636686,,,2017_May_01_1232,60.0031369795,FEMA4ImagesEEG,001,200301,
AFNE01.JPG,AFNE01.JPG,AFNE01.JPG,AFNE01.JPG,AFNE01.JPG,AFNE01.JPG,,,,,,,,,,,,,3,1,31,4,,,,,,,,,,,AMSA03.jpg,AMNE03.jpg,AMSA17.jpg,AMNE11.jpg,AMNE11.jpg,MN,1,num_4,16,num_4,0.716809518635,,,2017_May_01_1232,60.0031369795,FEMA4ImagesEEG,001,200301,
AFNE01.JPG,AFNE01.JPG,AFNE01.JPG,AFNE01.JPG,AFNE01.JPG,AFNE01.JPG,,,,,,,,,,,,,3,2,32,6,,,,,,,,,,,AMNE13.jpg,AMSA13.jpg,AMNE16.jpg,AMSA03.jpg,AMSA03.jpg,MS,2,num_4,16,num_4,1.11673427303,,,2017_May_01_1232,60.0031369795,FEMA4ImagesEEG,001,200301,
AFNE01.JPG,AFNE01.JPG,AFNE01.JPG,AFNE01.JPG,AFNE01.JPG,AFNE01.JPG,,,,,,,,,,,,,3,3,33,5,,,,,,,,,,,AMSA11.jpg,AMSA08.jpg,AMNE07.jpg,AMNE08.jpg,AMNE08.jpg,MN,1,num_4,16,num_4,0.850113814231,,,2017_May_01_1232,60.0031369795,FEMA4ImagesEEG,001,200301,
AFNE01.JPG,AFNE01.JPG,AFNE01.JPG,AFNE01.JPG,AFNE01.JPG,AFNE01.JPG,,,,,,,,,,,,,3,4,34,1,,,,,,,,,,,AMSA14.jpg,AMNE17.jpg,AMSA13.jpg,AMNE02.jpg,AMSA13.jpg,MS,2,num_2,32,num_4,1.21676702052,,,2017_May_01_1232,60.0031369795,FEMA4ImagesEEG,001,200301,
AFNE01.JPG,AFNE01.JPG,AFNE01.JPG,AFNE01.JPG,AFNE01.JPG,AFNE01.JPG,,,,,,,,,,,,,3,5,35,8,,,,,,,,,,,AMSA12.jpg,AMNE05.jpg,AMNE04.jpg,AMSA05.jpg,AMSA05.jpg,MS,2,num_4,32,num_8,1.0170652438,,,2017_May_01_1232,60.0031369795,FEMA4ImagesEEG,001,200301,
AFNE01.JPG,AFNE01.JPG,AFNE01.JPG,AFNE01.JPG,AFNE01.JPG,AFNE01.JPG,,,,,,,,,,,,,3,6,36,2,,,,,,,,,,,AMNE01.jpg,AMNE02.jpg,AMSA18.jpg,AMSA14.jpg,AMSA18.jpg,MS,2,num_2,16,num_2,1.583388153,,,2017_May_01_1232,60.0031369795,FEMA4ImagesEEG,001,200301,
AFNE01.JPG,AFNE01.JPG,AFNE01.JPG,AFNE01.JPG,AFNE01.JPG,AFNE01.JPG,,,,,,,,,,,,,3,7,37,9,,,,,,,,,,,AMNE19.jpg,AMNE11.jpg,AMSA04.jpg,AMSA13.jpg,AMSA13.jpg,MS,2,num_4,32,num_2,0.68347221869,,,2017_May_01_1232,60.0031369795,FEMA4ImagesEEG,001,200301,
AFNE01.JPG,AFNE01.JPG,AFNE01.JPG,AFNE01.JPG,AFNE01.JPG,AFNE01.JPG,,,,,,,,,,,,,3,8,38,3,,,,,,,,,,,AMSA11.jpg,AMNE05.jpg,AMSA10.jpg,AMNE06.jpg,AMSA11.jpg,MS,2,num_8,16,num_8,1.10009208415,,,2017_May_01_1232,60.0031369795,FEMA4ImagesEEG,001,200301,
AFNE01.JPG,AFNE01.JPG,AFNE01.JPG,AFNE01.JPG,AFNE01.JPG,AFNE01.JPG,,,,,,,,,,,,,3,9,39,7,,,,,,,,,,,AMNE01.jpg,AMNE07.jpg,AMSA10.jpg,AMSA19.jpg,AMSA19.jpg,MS,2,num_4,32,num_8,0.883452397073,,,2017_May_01_1232,60.0031369795,FEMA4ImagesEEG,001,200301,
AFNE01.JPG,AFNE01.JPG,AFNE01.JPG,AFNE01.JPG,AFNE01.JPG,AFNE01.JPG,,,,,,,,,,,,,4,0,40,5,,,,,,,,,,,AMNE04.jpg,AMSA13.jpg,AMSA15.jpg,AMNE08.jpg,AMNE08.jpg,MN,1,num_4,32,num_2,1.03342165425,,,2017_May_01_1232,60.0031369795,FEMA4ImagesEEG,001,200301,
AFNE01.JPG,AFNE01.JPG,AFNE01.JPG,AFNE01.JPG,AFNE01.JPG,AFNE01.JPG,,,,,,,,,,,,,4,1,41,3,,,,,,,,,,,AMNE17.jpg,AMSA14.jpg,AMNE15.jpg,AMSA06.jpg,AMSA14.jpg,MS,2,num_6,32,num_4,0.816810192075,,,2017_May_01_1232,60.0031369795,FEMA4ImagesEEG,001,200301,
AFNE01.JPG,AFNE01.JPG,AFNE01.JPG,AFNE01.JPG,AFNE01.JPG,AFNE01.JPG,,,,,,,,,,,,,4,2,42,2,,,,,,,,,,,AMSA05.jpg,AMSA16.jpg,AMNE10.jpg,AMNE12.jpg,AMNE12.jpg,MN,1,num_4,32,num_8,1.08344829176,,,2017_May_01_1232,60.0031369795,FEMA4ImagesEEG,001,200301,
AFNE01.JPG,AFNE01.JPG,AFNE01.JPG,AFNE01.JPG,AFNE01.JPG,AFNE01.JPG,,,,,,,,,,,,,4,3,43,9,,,,,,,,,,,AMSA10.jpg,AMSA07.jpg,AMNE08.jpg,AMNE20.jpg,AMSA10.jpg,MS,2,num_8,16,num_8,0.616806599777,,,2017_May_01_1232,60.0031369795,FEMA4ImagesEEG,001,200301,
AFNE01.JPG,AFNE01.JPG,AFNE01.JPG,AFNE01.JPG,AFNE01.JPG,AFNE01.JPG,,,,,,,,,,,,,4,4,44,8,,,,,,,,,,,AMSA15.jpg,AMSA05.jpg,AMNE19.jpg,AMNE04.jpg,AMNE19.jpg,MN,1,num_2,32,num_4,1.33342656144,,,2017_May_01_1232,60.0031369795,FEMA4ImagesEEG,001,200301,
AFNE01.JPG,AFNE01.JPG,AFNE01.JPG,AFNE01.JPG,AFNE01.JPG,AFNE01.JPG,,,,,,,,,,,,,4,5,45,1,,,,,,,,,,,AMSA16.jpg,AMSA14.jpg,AMNE04.jpg,AMNE07.jpg,AMSA16.jpg,MS,2,num_8,32,num_4,0.850135303801,,,2017_May_01_1232,60.0031369795,FEMA4ImagesEEG,001,200301,
AFNE01.JPG,AFNE01.JPG,AFNE01.JPG,AFNE01.JPG,AFNE01.JPG,AFNE01.JPG,,,,,,,,,,,,,4,6,46,0,,,,,,,,,,,AMSA16.jpg,AMNE09.jpg,AMNE13.jpg,AMSA19.jpg,AMSA19.jpg,MS,2,num_4,32,num_8,1.13347781566,,,2017_May_01_1232,60.0031369795,FEMA4ImagesEEG,001,200301,
AFNE01.JPG,AFNE01.JPG,AFNE01.JPG,AFNE01.JPG,AFNE01.JPG,AFNE01.JPG,,,,,,,,,,,,,4,7,47,4,,,,,,,,,,,AMNE04.jpg,AMSA14.jpg,AMNE10.jpg,AMSA08.jpg,AMNE10.jpg,MN,1,num_2,16,num_2,1.94999805954,,,2017_May_01_1232,60.0031369795,FEMA4ImagesEEG,001,200301,
AFNE01.JPG,AFNE01.JPG,AFNE01.JPG,AFNE01.JPG,AFNE01.JPG,AFNE01.JPG,,,,,,,,,,,,,4,8,48,6,,,,,,,,,,,AMNE18.jpg,AMSA17.jpg,AMNE09.jpg,AMSA11.jpg,AMSA17.jpg,MS,2,num_6,32,num_2,0.93342290516,,,2017_May_01_1232,60.0031369795,FEMA4ImagesEEG,001,200301,
AFNE01.JPG,AFNE01.JPG,AFNE01.JPG,AFNE01.JPG,AFNE01.JPG,AFNE01.JPG,,,,,,,,,,,,,4,9,49,7,,,,,,,,,,,AMNE16.jpg,AMSA11.jpg,AMNE04.jpg,AMSA03.jpg,AMSA03.jpg,MS,2,num_4,32,num_2,1.65009193984,,,2017_May_01_1232,60.0031369795,FEMA4ImagesEEG,001,200301,
AFNE01.JPG,AFNE01.JPG,AFNE01.JPG,AFNE01.JPG,AFNE01.JPG,AFNE01.JPG,,,,,,,,,,,,,5,0,50,8,,,,,,,,,,,AMSA12.jpg,AMNE13.jpg,AMNE09.jpg,AMSA01.jpg,AMSA12.jpg,MS,2,num_8,16,num_8,0.983502143761,,,2017_May_01_1232,60.0031369795,FEMA4ImagesEEG,001,200301,
AFNE01.JPG,AFNE01.JPG,AFNE01.JPG,AFNE01.JPG,AFNE01.JPG,AFNE01.JPG,,,,,,,,,,,,,5,1,51,6,,,,,,,,,,,AMSA17.jpg,AMNE19.jpg,AMSA07.jpg,AMNE05.jpg,AMNE05.jpg,MN,1,num_4,32,num_2,0.450133892475,,,2017_May_01_1232,60.0031369795,FEMA4ImagesEEG,001,200301,
AFNE01.JPG,AFNE01.JPG,AFNE01.JPG,AFNE01.JPG,AFNE01.JPG,AFNE01.JPG,,,,,,,,,,,,,5,2,52,5,,,,,,,,,,,AMNE13.jpg,AMSA01.jpg,AMSA07.jpg,AMNE01.jpg,AMNE13.jpg,MN,1,num_8,16,num_8,0.71679476439,,,2017_May_01_1232,60.0031369795,FEMA4ImagesEEG,001,200301,
AFNE01.JPG,AFNE01.JPG,AFNE01.JPG,AFNE01.JPG,AFNE01.JPG,AFNE01.JPG,,,,,,,,,,,,,5,3,53,3,,,,,,,,,,,AMNE03.jpg,AMSA14.jpg,AMNE08.jpg,AMSA20.jpg,AMNE08.jpg,MN,1,num_2,32,num_8,1.1168009867,,,2017_May_01_1232,60.0031369795,FEMA4ImagesEEG,001,200301,
AFNE01.JPG,AFNE01.JPG,AFNE01.JPG,AFNE01.JPG,AFNE01.JPG,AFNE01.JPG,,,,,,,,,,,,,5,4,54,4,,,,,,,,,,,AMNE14.jpg,AMSA17.jpg,AMNE10.jpg,AMSA06.jpg,AMSA06.jpg,MS,2,num_4,16,num_4,0.650113750016,,,2017_May_01_1232,60.0031369795,FEMA4ImagesEEG,001,200301,
AFNE01.JPG,AFNE01.JPG,AFNE01.JPG,AFNE01.JPG,AFNE01.JPG,AFNE01.JPG,,,,,,,,,,,,,5,5,55,1,,,,,,,,,,,AMSA02.jpg,AMNE09.jpg,AMSA10.jpg,AMNE06.jpg,AMNE06.jpg,MN,1,num_4,16,num_4,0.766766876215,,,2017_May_01_1232,60.0031369795,FEMA4ImagesEEG,001,200301,
AFNE01.JPG,AFNE01.JPG,AFNE01.JPG,AFNE01.JPG,AFNE01.JPG,AFNE01.JPG,,,,,,,,,,,,,5,6,56,0,,,,,,,,,,,AMNE09.jpg,AMSA02.jpg,AMSA16.jpg,AMNE01.jpg,AMNE09.jpg,MN,1,num_8,16,num_8,0.916790979682,,,2017_May_01_1232,60.0031369795,FEMA4ImagesEEG,001,200301,
AFNE01.JPG,AFNE01.JPG,AFNE01.JPG,AFNE01.JPG,AFNE01.JPG,AFNE01.JPG,,,,,,,,,,,,,5,7,57,7,,,,,,,,,,,AMSA17.jpg,AMNE19.jpg,AMSA03.jpg,AMNE17.jpg,AMSA17.jpg,MS,2,num_8,32,num_4,1.25008956646,,,2017_May_01_1232,60.0031369795,FEMA4ImagesEEG,001,200301,
AFNE01.JPG,AFNE01.JPG,AFNE01.JPG,AFNE01.JPG,AFNE01.JPG,AFNE01.JPG,,,,,,,,,,,,,5,8,58,9,,,,,,,,,,,AMNE06.jpg,AMSA16.jpg,AMNE09.jpg,AMSA09.jpg,AMSA09.jpg,MS,2,num_4,32,num_8,0.900102604413,,,2017_May_01_1232,60.0031369795,FEMA4ImagesEEG,001,200301,
AFNE01.JPG,AFNE01.JPG,AFNE01.JPG,AFNE01.JPG,AFNE01.JPG,AFNE01.JPG,,,,,,,,,,,,,5,9,59,2,,,,,,,,,,,AMSA10.jpg,AMNE06.jpg,AMNE17.jpg,AMSA07.jpg,AMSA10.jpg,MS,2,num_8,32,num_2,0.983422279591,,,2017_May_01_1232,60.0031369795,FEMA4ImagesEEG,001,200301,
,,,,,,,,,,,,,,,,,,,,,,,,,,,,,,,,,,,,,,,,,,,space,11.3326410714,2017_May_01_1232,60.0031369795,FEMA4ImagesEEG,001,200301,
AFNE01.JPG,AFNE01.JPG,AFNE01.JPG,AFNE01.JPG,AFNE01.JPG,AFNE01.JPG,,,,,,,,,,,,,,,,,0,0,0,6,,,,,,,AFNE18.jpg,AFSA12.jpg,AFSA04.jpg,AFNE15.jpg,AFSA12.jpg,FS,4,num_6,32,num_2,0.800150683383,,,2017_May_01_1232,60.0031369795,FEMA4ImagesEEG,001,200301,
AFNE01.JPG,AFNE01.JPG,AFNE01.JPG,AFNE01.JPG,AFNE01.JPG,AFNE01.JPG,,,,,,,,,,,,,,,,,0,1,1,7,,,,,,,AFNE12.jpg,AFSA05.jpg,AFSA09.jpg,AFNE01.jpg,AFNE01.jpg,FN,3,num_4,32,num_2,1.0500779557,,,2017_May_01_1232,60.0031369795,FEMA4ImagesEEG,001,200301,
AFNE01.JPG,AFNE01.JPG,AFNE01.JPG,AFNE01.JPG,AFNE01.JPG,AFNE01.JPG,,,,,,,,,,,,,,,,,0,2,2,5,,,,,,,AFNE11.jpg,AFNE06.jpg,AFSA04.jpg,AFSA15.jpg,AFSA15.jpg,FS,4,num_4,16,num_4,0.883426417131,,,2017_May_01_1232,60.0031369795,FEMA4ImagesEEG,001,200301,
AFNE01.JPG,AFNE01.JPG,AFNE01.JPG,AFNE01.JPG,AFNE01.JPG,AFNE01.JPG,,,,,,,,,,,,,,,,,0,3,3,1,,,,,,,AFSA02.jpg,AFNE14.jpg,AFSA19.jpg,AFNE02.jpg,AFSA02.jpg,FS,4,num_8,32,num_4,0.749800420133,,,2017_May_01_1232,60.0031369795,FEMA4ImagesEEG,001,200301,
AFNE01.JPG,AFNE01.JPG,AFNE01.JPG,AFNE01.JPG,AFNE01.JPG,AFNE01.JPG,,,,,,,,,,,,,,,,,0,4,4,2,,,,,,,AFSA14.jpg,AFNE20.jpg,AFNE15.jpg,AFSA19.jpg,AFSA19.jpg,FS,4,num_4,16,num_4,0.933484487003,,,2017_May_01_1232,60.0031369795,FEMA4ImagesEEG,001,200301,
AFNE01.JPG,AFNE01.JPG,AFNE01.JPG,AFNE01.JPG,AFNE01.JPG,AFNE01.JPG,,,,,,,,,,,,,,,,,0,5,5,8,,,,,,,AFSA13.jpg,AFNE19.jpg,AFSA08.jpg,AFNE02.jpg,AFNE02.jpg,FN,3,num_4,16,num_4,1.43329027947,,,2017_May_01_1232,60.0031369795,FEMA4ImagesEEG,001,200301,
AFNE01.JPG,AFNE01.JPG,AFNE01.JPG,AFNE01.JPG,AFNE01.JPG,AFNE01.JPG,,,,,,,,,,,,,,,,,0,6,6,0,,,,,,,AFNE11.jpg,AFSA13.jpg,AFNE09.jpg,AFSA16.jpg,AFNE09.jpg,FN,3,num_2,32,num_8,1.08343000943,,,2017_May_01_1232,60.0031369795,FEMA4ImagesEEG,001,200301,
AFNE01.JPG,AFNE01.JPG,AFNE01.JPG,AFNE01.JPG,AFNE01.JPG,AFNE01.JPG,,,,,,,,,,,,,,,,,0,7,7,4,,,,,,,AFSA19.jpg,AFNE20.jpg,AFSA16.jpg,AFNE10.jpg,AFSA16.jpg,FS,4,num_2,32,num_4,1.68343854113,,,2017_May_01_1232,60.0031369795,FEMA4ImagesEEG,001,200301,
AFNE01.JPG,AFNE01.JPG,AFNE01.JPG,AFNE01.JPG,AFNE01.JPG,AFNE01.JPG,,,,,,,,,,,,,,,,,0,8,8,3,,,,,,,AFSA04.jpg,AFNE19.jpg,AFSA11.jpg,AFNE12.jpg,AFNE19.jpg,FN,3,num_6,32,num_8,1.11674004653,,,2017_May_01_1232,60.0031369795,FEMA4ImagesEEG,001,200301,
AFNE01.JPG,AFNE01.JPG,AFNE01.JPG,AFNE01.JPG,AFNE01.JPG,AFNE01.JPG,,,,,,,,,,,,,,,,,0,9,9,9,,,,,,,AFSA12.jpg,AFSA19.jpg,AFNE01.jpg,AFNE12.jpg,AFNE12.jpg,FN,3,num_4,16,num_4,0.916773659876,,,2017_May_01_1232,60.0031369795,FEMA4ImagesEEG,001,200301,
AFNE01.JPG,AFNE01.JPG,AFNE01.JPG,AFNE01.JPG,AFNE01.JPG,AFNE01.JPG,,,,,,,,,,,,,,,,,1,0,10,0,,,,,,,AFSA14.jpg,AFNE02.jpg,AFNE11.jpg,AFSA18.jpg,AFNE02.jpg,FN,3,num_6,16,num_6,1.11675512115,,,2017_May_01_1232,60.0031369795,FEMA4ImagesEEG,001,200301,
AFNE01.JPG,AFNE01.JPG,AFNE01.JPG,AFNE01.JPG,AFNE01.JPG,AFNE01.JPG,,,,,,,,,,,,,,,,,1,1,11,2,,,,,,,AFNE11.jpg,AFSA12.jpg,AFSA07.jpg,AFNE10.jpg,AFNE11.jpg,FN,3,num_8,32,num_2,1.36673884373,,,2017_May_01_1232,60.0031369795,FEMA4ImagesEEG,001,200301,
AFNE01.JPG,AFNE01.JPG,AFNE01.JPG,AFNE01.JPG,AFNE01.JPG,AFNE01.JPG,,,,,,,,,,,,,,,,,1,2,12,5,,,,,,,AFSA05.jpg,AFNE14.jpg,AFNE12.jpg,AFSA02.jpg,AFSA05.jpg,FS,4,num_8,16,num_8,1.0667618406,,,2017_May_01_1232,60.0031369795,FEMA4ImagesEEG,001,200301,
AFNE01.JPG,AFNE01.JPG,AFNE01.JPG,AFNE01.JPG,AFNE01.JPG,AFNE01.JPG,,,,,,,,,,,,,,,,,1,3,13,7,,,,,,,AFSA20.jpg,AFNE06.jpg,AFNE10.jpg,AFSA09.jpg,AFNE10.jpg,FN,3,num_2,32,num_4,1.08346304577,,,2017_May_01_1232,60.0031369795,FEMA4ImagesEEG,001,200301,
AFNE01.JPG,AFNE01.JPG,AFNE01.JPG,AFNE01.JPG,AFNE01.JPG,AFNE01.JPG,,,,,,,,,,,,,,,,,1,4,14,3,,,,,,,AFNE04.jpg,AFSA11.jpg,AFSA14.jpg,AFNE20.jpg,AFSA14.jpg,FS,4,num_2,32,num_8,0.983437033603,,,2017_May_01_1232,60.0031369795,FEMA4ImagesEEG,001,200301,
AFNE01.JPG,AFNE01.JPG,AFNE01.JPG,AFNE01.JPG,AFNE01.JPG,AFNE01.JPG,,,,,,,,,,,,,,,,,1,5,15,8,,,,,,,AFNE15.jpg,AFSA15.jpg,AFNE12.jpg,AFSA11.jpg,AFSA11.jpg,FS,4,num_4,16,num_4,1.41673244513,,,2017_May_01_1232,60.0031369795,FEMA4ImagesEEG,001,200301,
AFNE01.JPG,AFNE01.JPG,AFNE01.JPG,AFNE01.JPG,AFNE01.JPG,AFNE01.JPG,,,,,,,,,,,,,,,,,1,6,16,9,,,,,,,AFSA15.jpg,AFNE09.jpg,AFSA12.jpg,AFNE10.jpg,AFNE10.jpg,FN,3,num_4,16,num_4,0.550136169652,,,2017_May_01_1232,60.0031369795,FEMA4ImagesEEG,001,200301,
AFNE01.JPG,AFNE01.JPG,AFNE01.JPG,AFNE01.JPG,AFNE01.JPG,AFNE01.JPG,,,,,,,,,,,,,,,,,1,7,17,6,,,,,,,AFSA15.jpg,AFNE13.jpg,AFSA05.jpg,AFNE08.jpg,AFNE08.jpg,FN,3,num_4,16,num_4,1.31659449521,,,2017_May_01_1232,60.0031369795,FEMA4ImagesEEG,001,200301,
AFNE01.JPG,AFNE01.JPG,AFNE01.JPG,AFNE01.JPG,AFNE01.JPG,AFNE01.JPG,,,,,,,,,,,,,,,,,1,8,18,4,,,,,,,AFSA17.jpg,AFNE07.jpg,AFSA02.jpg,AFNE06.jpg,AFNE07.jpg,FN,3,num_6,32,num_4,0.833481568377,,,2017_May_01_1232,60.0031369795,FEMA4ImagesEEG,001,200301,
AFNE01.JPG,AFNE01.JPG,AFNE01.JPG,AFNE01.JPG,AFNE01.JPG,AFNE01.JPG,,,,,,,,,,,,,,,,,1,9,19,1,,,,,,,AFSA04.jpg,AFSA20.jpg,AFNE02.jpg,AFNE12.jpg,AFSA04.jpg,FS,4,num_8,16,num_8,1.38344036951,,,2017_May_01_1232,60.0031369795,FEMA4ImagesEEG,001,200301,
AFNE01.JPG,AFNE01.JPG,AFNE01.JPG,AFNE01.JPG,AFNE01.JPG,AFNE01.JPG,,,,,,,,,,,,,,,,,2,0,20,1,,,,,,,AFSA12.jpg,AFNE16.jpg,AFSA08.jpg,AFNE10.jpg,AFSA08.jpg,FS,4,num_2,32,num_6,1.0167326373,,,2017_May_01_1232,60.0031369795,FEMA4ImagesEEG,001,200301,
AFNE01.JPG,AFNE01.JPG,AFNE01.JPG,AFNE01.JPG,AFNE01.JPG,AFNE01.JPG,,,,,,,,,,,,,,,,,2,1,21,7,,,,,,,AFSA13.jpg,AFNE12.jpg,AFNE16.jpg,AFSA19.jpg,AFNE12.jpg,FN,3,num_6,16,num_6,1.31665832223,,,2017_May_01_1232,60.0031369795,FEMA4ImagesEEG,001,200301,
AFNE01.JPG,AFNE01.JPG,AFNE01.JPG,AFNE01.JPG,AFNE01.JPG,AFNE01.JPG,,,,,,,,,,,,,,,,,2,2,22,8,,,,,,,AFSA08.jpg,AFNE15.jpg,AFNE20.jpg,AFSA09.jpg,AFNE15.jpg,FN,3,num_6,32,num_4,1.41669876734,,,2017_May_01_1232,60.0031369795,FEMA4ImagesEEG,001,200301,
AFNE01.JPG,AFNE01.JPG,AFNE01.JPG,AFNE01.JPG,AFNE01.JPG,AFNE01.JPG,,,,,,,,,,,,,,,,,2,3,23,5,,,,,,,AFNE03.jpg,AFNE19.jpg,AFSA16.jpg,AFSA06.jpg,AFSA16.jpg,FS,4,num_2,32,num_4,2.81667740596,,,2017_May_01_1232,60.0031369795,FEMA4ImagesEEG,001,200301,
AFNE01.JPG,AFNE01.JPG,AFNE01.JPG,AFNE01.JPG,AFNE01.JPG,AFNE01.JPG,,,,,,,,,,,,,,,,,2,4,24,2,,,,,,,AFSA04.jpg,AFSA07.jpg,AFNE09.jpg,AFNE20.jpg,AFNE20.jpg,FN,3,num_4,32,num_8,0.666807898786,,,2017_May_01_1232,60.0031369795,FEMA4ImagesEEG,001,200301,
AFNE01.JPG,AFNE01.JPG,AFNE01.JPG,AFNE01.JPG,AFNE01.JPG,AFNE01.JPG,,,,,,,,,,,,,,,,,2,5,25,9,,,,,,,AFNE15.jpg,AFSA19.jpg,AFSA10.jpg,AFNE09.jpg,AFNE15.jpg,FN,3,num_8,32,num_2,1.25008667982,,,2017_May_01_1232,60.0031369795,FEMA4ImagesEEG,001,200301,
AFNE01.JPG,AFNE01.JPG,AFNE01.JPG,AFNE01.JPG,AFNE01.JPG,AFNE01.JPG,,,,,,,,,,,,,,,,,2,6,26,4,,,,,,,AFNE06.jpg,AFSA19.jpg,AFSA17.jpg,AFNE11.jpg,AFSA17.jpg,FS,4,num_2,32,num_6,0.416895380476,,,2017_May_01_1232,60.0031369795,FEMA4ImagesEEG,001,200301,
AFNE01.JPG,AFNE01.JPG,AFNE01.JPG,AFNE01.JPG,AFNE01.JPG,AFNE01.JPG,,,,,,,,,,,,,,,,,2,7,27,6,,,,,,,AFNE20.jpg,AFSA17.jpg,AFSA06.jpg,AFNE07.jpg,AFSA17.jpg,FS,4,num_6,32,num_2,1.06681283796,,,2017_May_01_1232,60.0031369795,FEMA4ImagesEEG,001,200301,
AFNE01.JPG,AFNE01.JPG,AFNE01.JPG,AFNE01.JPG,AFNE01.JPG,AFNE01.JPG,,,,,,,,,,,,,,,,,2,8,28,3,,,,,,,AFSA07.jpg,AFNE13.jpg,AFNE17.jpg,AFSA18.jpg,AFSA07.jpg,FS,4,num_8,16,num_8,0.88345881179,,,2017_May_01_1232,60.0031369795,FEMA4ImagesEEG,001,200301,
AFNE01.JPG,AFNE01.JPG,AFNE01.JPG,AFNE01.JPG,AFNE01.JPG,AFNE01.JPG,,,,,,,,,,,,,,,,,2,9,29,0,,,,,,,AFNE20.jpg,AFNE18.jpg,AFSA12.jpg,AFSA08.jpg,AFNE18.jpg,FN,3,num_6,32,num_4,1.10010363068,,,2017_May_01_1232,60.0031369795,FEMA4ImagesEEG,001,200301,
AFNE01.JPG,AFNE01.JPG,AFNE01.JPG,AFNE01.JPG,AFNE01.JPG,AFNE01.JPG,,,,,,,,,,,,,,,,,3,0,30,4,,,,,,,AFNE05.jpg,AFSA19.jpg,AFNE02.jpg,AFSA03.jpg,AFNE02.jpg,FN,3,num_2,32,num_8,1.33341790177,,,2017_May_01_1232,60.0031369795,FEMA4ImagesEEG,001,200301,
AFNE01.JPG,AFNE01.JPG,AFNE01.JPG,AFNE01.JPG,AFNE01.JPG,AFNE01.JPG,,,,,,,,,,,,,,,,,3,1,31,7,,,,,,,AFNE02.jpg,AFSA19.jpg,AFNE17.jpg,AFSA15.jpg,AFSA15.jpg,FS,4,num_4,16,num_4,0.750107688131,,,2017_May_01_1232,60.0031369795,FEMA4ImagesEEG,001,200301,
AFNE01.JPG,AFNE01.JPG,AFNE01.JPG,AFNE01.JPG,AFNE01.JPG,AFNE01.JPG,,,,,,,,,,,,,,,,,3,2,32,0,,,,,,,AFNE15.jpg,AFNE05.jpg,AFSA07.jpg,AFSA18.jpg,AFNE05.jpg,FN,3,num_6,16,num_6,0.250164619414,,,2017_May_01_1232,60.0031369795,FEMA4ImagesEEG,001,200301,
AFNE01.JPG,AFNE01.JPG,AFNE01.JPG,AFNE01.JPG,AFNE01.JPG,AFNE01.JPG,,,,,,,,,,,,,,,,,3,3,33,8,,,,,,,AFNE15.jpg,AFNE10.jpg,AFSA18.jpg,AFSA04.jpg,AFNE10.jpg,FN,3,num_6,32,num_2,3.09989771643,,,2017_May_01_1232,60.0031369795,FEMA4ImagesEEG,001,200301,
AFNE01.JPG,AFNE01.JPG,AFNE01.JPG,AFNE01.JPG,AFNE01.JPG,AFNE01.JPG,,,,,,,,,,,,,,,,,3,4,34,9,,,,,,,AFSA17.jpg,AFNE20.jpg,AFNE08.jpg,AFSA14.jpg,AFNE20.jpg,FN,3,num_6,32,num_4,1.11674806476,,,2017_May_01_1232,60.0031369795,FEMA4ImagesEEG,001,200301,
AFNE01.JPG,AFNE01.JPG,AFNE01.JPG,AFNE01.JPG,AFNE01.JPG,AFNE01.JPG,,,,,,,,,,,,,,,,,3,5,35,3,,,,,,,AFNE11.jpg,AFSA05.jpg,AFSA16.jpg,AFNE01.jpg,AFNE01.jpg,FN,3,num_4,32,num_6,1.33341084514,,,2017_May_01_1232,60.0031369795,FEMA4ImagesEEG,001,200301,
AFNE01.JPG,AFNE01.JPG,AFNE01.JPG,AFNE01.JPG,AFNE01.JPG,AFNE01.JPG,,,,,,,,,,,,,,,,,3,6,36,2,,,,,,,AFNE13.jpg,AFNE02.jpg,AFSA16.jpg,AFSA12.jpg,AFNE02.jpg,FN,3,num_6,32,num_8,0.53350713104,,,2017_May_01_1232,60.0031369795,FEMA4ImagesEEG,001,200301,
AFNE01.JPG,AFNE01.JPG,AFNE01.JPG,AFNE01.JPG,AFNE01.JPG,AFNE01.JPG,,,,,,,,,,,,,,,,,3,7,37,1,,,,,,,AFSA19.jpg,AFSA03.jpg,AFNE10.jpg,AFNE16.jpg,AFNE16.jpg,FN,3,num_4,32,num_2,1.13346851408,,,2017_May_01_1232,60.0031369795,FEMA4ImagesEEG,001,200301,
AFNE01.JPG,AFNE01.JPG,AFNE01.JPG,AFNE01.JPG,AFNE01.JPG,AFNE01.JPG,,,,,,,,,,,,,,,,,3,8,38,5,,,,,,,AFNE18.jpg,AFSA03.jpg,AFSA07.jpg,AFNE19.jpg,AFNE19.jpg,FN,3,num_4,16,num_4,1.05013312283,,,2017_May_01_1232,60.0031369795,FEMA4ImagesEEG,001,200301,
AFNE01.JPG,AFNE01.JPG,AFNE01.JPG,AFNE01.JPG,AFNE01.JPG,AFNE01.JPG,,,,,,,,,,,,,,,,,3,9,39,6,,,,,,,AFSA16.jpg,AFNE04.jpg,AFNE08.jpg,AFSA09.jpg,AFSA09.jpg,FS,4,num_4,16,num_4,2.51663240651,,,2017_May_01_1232,60.0031369795,FEMA4ImagesEEG,001,200301,
AFNE01.JPG,AFNE01.JPG,AFNE01.JPG,AFNE01.JPG,AFNE01.JPG,AFNE01.JPG,,,,,,,,,,,,,,,,,4,0,40,1,,,,,,,AFSA05.jpg,AFNE08.jpg,AFSA09.jpg,AFNE20.jpg,AFSA09.jpg,FS,4,num_2,32,num_4,1.11675255513,,,2017_May_01_1232,60.0031369795,FEMA4ImagesEEG,001,200301,
AFNE01.JPG,AFNE01.JPG,AFNE01.JPG,AFNE01.JPG,AFNE01.JPG,AFNE01.JPG,,,,,,,,,,,,,,,,,4,1,41,8,,,,,,,AFNE05.jpg,AFSA18.jpg,AFNE08.jpg,AFSA07.jpg,AFNE05.jpg,FN,3,num_8,16,num_8,1.08346176241,,,2017_May_01_1232,60.0031369795,FEMA4ImagesEEG,001,200301,
AFNE01.JPG,AFNE01.JPG,AFNE01.JPG,AFNE01.JPG,AFNE01.JPG,AFNE01.JPG,,,,,,,,,,,,,,,,,4,2,42,4,,,,,,,AFSA11.jpg,AFNE19.jpg,AFNE08.jpg,AFSA04.jpg,AFSA11.jpg,FS,4,num_8,32,num_2,0.600013663527,,,2017_May_01_1232,60.0031369795,FEMA4ImagesEEG,001,200301,
AFNE01.JPG,AFNE01.JPG,AFNE01.JPG,AFNE01.JPG,AFNE01.JPG,AFNE01.JPG,,,,,,,,,,,,,,,,,4,3,43,0,,,,,,,AFNE02.jpg,AFSA03.jpg,AFSA11.jpg,AFNE03.jpg,AFNE02.jpg,FN,3,num_8,32,num_2,0.933424508665,,,2017_May_01_1232,60.0031369795,FEMA4ImagesEEG,001,200301,
AFNE01.JPG,AFNE01.JPG,AFNE01.JPG,AFNE01.JPG,AFNE01.JPG,AFNE01.JPG,,,,,,,,,,,,,,,,,4,4,44,7,,,,,,,AFNE08.jpg,AFNE20.jpg,AFSA20.jpg,AFSA01.jpg,AFSA20.jpg,FS,4,num_2,32,num_6,0.616675417405,,,2017_May_01_1232,60.0031369795,FEMA4ImagesEEG,001,200301,
AFNE01.JPG,AFNE01.JPG,AFNE01.JPG,AFNE01.JPG,AFNE01.JPG,AFNE01.JPG,,,,,,,,,,,,,,,,,4,5,45,6,,,,,,,AFNE15.jpg,AFSA06.jpg,AFNE11.jpg,AFSA18.jpg,AFNE11.jpg,FN,3,num_2,32,num_4,1.316750695,,,2017_May_01_1232,60.0031369795,FEMA4ImagesEEG,001,200301,
AFNE01.JPG,AFNE01.JPG,AFNE01.JPG,AFNE01.JPG,AFNE01.JPG,AFNE01.JPG,,,,,,,,,,,,,,,,,4,6,46,9,,,,,,,AFSA12.jpg,AFNE01.jpg,AFNE08.jpg,AFSA04.jpg,AFNE01.jpg,FN,3,num_6,16,num_6,1.30009471439,,,2017_May_01_1232,60.0031369795,FEMA4ImagesEEG,001,200301,
AFNE01.JPG,AFNE01.JPG,AFNE01.JPG,AFNE01.JPG,AFNE01.JPG,AFNE01.JPG,,,,,,,,,,,,,,,,,4,7,47,3,,,,,,,AFSA09.jpg,AFNE11.jpg,AFSA14.jpg,AFNE16.jpg,AFSA14.jpg,FS,4,num_2,32,num_8,1.13354517077,,,2017_May_01_1232,60.0031369795,FEMA4ImagesEEG,001,200301,
AFNE01.JPG,AFNE01.JPG,AFNE01.JPG,AFNE01.JPG,AFNE01.JPG,AFNE01.JPG,,,,,,,,,,,,,,,,,4,8,48,2,,,,,,,AFSA13.jpg,AFSA02.jpg,AFNE07.jpg,AFNE11.jpg,AFNE11.jpg,FN,3,num_4,16,num_4,0.733560438035,,,2017_May_01_1232,60.0031369795,FEMA4ImagesEEG,001,200301,
AFNE01.JPG,AFNE01.JPG,AFNE01.JPG,AFNE01.JPG,AFNE01.JPG,AFNE01.JPG,,,,,,,,,,,,,,,,,4,9,49,5,,,,,,,AFSA08.jpg,AFNE15.jpg,AFNE08.jpg,AFSA03.jpg,AFNE15.jpg,FN,3,num_6,32,num_4,2.49990297644,,,2017_May_01_1232,60.0031369795,FEMA4ImagesEEG,001,200301,
AFNE01.JPG,AFNE01.JPG,AFNE01.JPG,AFNE01.JPG,AFNE01.JPG,AFNE01.JPG,,,,,,,,,,,,,,,,,5,0,50,2,,,,,,,AFSA13.jpg,AFNE15.jpg,AFNE20.jpg,AFSA03.jpg,AFSA03.jpg,FS,4,num_4,32,num_8,0.733463574667,,,2017_May_01_1232,60.0031369795,FEMA4ImagesEEG,001,200301,
AFNE01.JPG,AFNE01.JPG,AFNE01.JPG,AFNE01.JPG,AFNE01.JPG,AFNE01.JPG,,,,,,,,,,,,,,,,,5,1,51,7,,,,,,,AFNE20.jpg,AFNE18.jpg,AFSA16.jpg,AFSA19.jpg,AFNE20.jpg,FN,3,num_8,16,num_8,0.866788076935,,,2017_May_01_1232,60.0031369795,FEMA4ImagesEEG,001,200301,
AFNE01.JPG,AFNE01.JPG,AFNE01.JPG,AFNE01.JPG,AFNE01.JPG,AFNE01.JPG,,,,,,,,,,,,,,,,,5,2,52,9,,,,,,,AFSA01.jpg,AFNE18.jpg,AFNE06.jpg,AFSA20.jpg,AFNE18.jpg,FN,3,num_6,32,num_4,2.49994242727,,,2017_May_01_1232,60.0031369795,FEMA4ImagesEEG,001,200301,
AFNE01.JPG,AFNE01.JPG,AFNE01.JPG,AFNE01.JPG,AFNE01.JPG,AFNE01.JPG,,,,,,,,,,,,,,,,,5,3,53,4,,,,,,,AFNE09.jpg,AFNE06.jpg,AFSA08.jpg,AFSA01.jpg,AFSA01.jpg,FS,4,num_4,32,num_2,1.15011840081,,,2017_May_01_1232,60.0031369795,FEMA4ImagesEEG,001,200301,
AFNE01.JPG,AFNE01.JPG,AFNE01.JPG,AFNE01.JPG,AFNE01.JPG,AFNE01.JPG,,,,,,,,,,,,,,,,,5,4,54,0,,,,,,,AFNE08.jpg,AFNE09.jpg,AFSA03.jpg,AFSA18.jpg,AFSA18.jpg,FS,4,num_4,32,num_8,1.43340927362,,,2017_May_01_1232,60.0031369795,FEMA4ImagesEEG,001,200301,
AFNE01.JPG,AFNE01.JPG,AFNE01.JPG,AFNE01.JPG,AFNE01.JPG,AFNE01.JPG,,,,,,,,,,,,,,,,,5,5,55,1,,,,,,,AFSA17.jpg,AFNE19.jpg,AFNE12.jpg,AFSA18.jpg,AFSA18.jpg,FS,4,num_4,32,num_2,0.966607533162,,,2017_May_01_1232,60.0031369795,FEMA4ImagesEEG,001,200301,
AFNE01.JPG,AFNE01.JPG,AFNE01.JPG,AFNE01.JPG,AFNE01.JPG,AFNE01.JPG,,,,,,,,,,,,,,,,,5,6,56,5,,,,,,,AFNE02.jpg,AFSA01.jpg,AFNE16.jpg,AFSA13.jpg,AFNE16.jpg,FN,3,num_2,32,num_4,1.13318690518,,,2017_May_01_1232,60.0031369795,FEMA4ImagesEEG,001,200301,
AFNE01.JPG,AFNE01.JPG,AFNE01.JPG,AFNE01.JPG,AFNE01.JPG,AFNE01.JPG,,,,,,,,,,,,,,,,,5,7,57,3,,,,,,,AFSA13.jpg,AFSA06.jpg,AFNE11.jpg,AFNE16.jpg,AFSA06.jpg,FS,4,num_6,16,num_6,2.91664857161,,,2017_May_01_1232,60.0031369795,FEMA4ImagesEEG,001,200301,
AFNE01.JPG,AFNE01.JPG,AFNE01.JPG,AFNE01.JPG,AFNE01.JPG,AFNE01.JPG,,,,,,,,,,,,,,,,,5,8,58,8,,,,,,,AFNE19.jpg,AFSA02.jpg,AFNE12.jpg,AFSA05.jpg,AFSA02.jpg,FS,4,num_6,32,num_8,1.23346469738,,,2017_May_01_1232,60.0031369795,FEMA4ImagesEEG,001,200301,
AFNE01.JPG,AFNE01.JPG,AFNE01.JPG,AFNE01.JPG,AFNE01.JPG,AFNE01.JPG,,,,,,,,,,,,,,,,,5,9,59,6,,,,,,,AFNE05.jpg,AFSA10.jpg,AFSA08.jpg,AFNE14.jpg,AFNE14.jpg,FN,3,num_4,32,num_2,4.04970686045,,,2017_May_01_1232,60.0031369795,FEMA4ImagesEEG,001,200301,
,,,,,,,,,,,,,,,,,,,,,,,,,,,,,,,,,,,,,,,,,,,space,7.9162152533,2017_May_01_1232,60.0031369795,FEMA4ImagesEEG,001,200301,
AFNE01.JPG,AFNE01.JPG,AFNE01.JPG,AFNE01.JPG,AFNE01.JPG,AFNE01.JPG,,,,,,,,,,,,,,,,,,,,,0,0,0,2,,,AMNE07.jpg,AMNE01.jpg,AMSA06.jpg,AMSA02.jpg,AMNE07.jpg,MN,1,num_8,32,num_4,1.30009888392,,,2017_May_01_1232,60.0031369795,FEMA4ImagesEEG,001,200301,
AFNE01.JPG,AFNE01.JPG,AFNE01.JPG,AFNE01.JPG,AFNE01.JPG,AFNE01.JPG,,,,,,,,,,,,,,,,,,,,,0,1,1,4,,,AMSA08.jpg,AMSA16.jpg,AMNE03.jpg,AMNE04.jpg,AMNE04.jpg,MN,1,num_4,16,num_4,0.650102844927,,,2017_May_01_1232,60.0031369795,FEMA4ImagesEEG,001,200301,
AFNE01.JPG,AFNE01.JPG,AFNE01.JPG,AFNE01.JPG,AFNE01.JPG,AFNE01.JPG,,,,,,,,,,,,,,,,,,,,,0,2,2,8,,,AMNE14.jpg,AMNE18.jpg,AMSA16.jpg,AMSA10.jpg,AMSA10.jpg,MS,2,num_4,32,num_8,1.50002485723,,,2017_May_01_1232,60.0031369795,FEMA4ImagesEEG,001,200301,
AFNE01.JPG,AFNE01.JPG,AFNE01.JPG,AFNE01.JPG,AFNE01.JPG,AFNE01.JPG,,,,,,,,,,,,,,,,,,,,,0,3,3,7,,,AMNE16.jpg,AMNE10.jpg,AMSA06.jpg,AMSA17.jpg,AMNE16.jpg,MN,1,num_8,32,num_4,1.05013151909,,,2017_May_01_1232,60.0031369795,FEMA4ImagesEEG,001,200301,
AFNE01.JPG,AFNE01.JPG,AFNE01.JPG,AFNE01.JPG,AFNE01.JPG,AFNE01.JPG,,,,,,,,,,,,,,,,,,,,,0,4,4,5,,,AMSA02.jpg,AMSA19.jpg,AMNE03.jpg,AMNE02.jpg,AMNE03.jpg,MN,1,num_2,32,num_8,0.599811277119,,,2017_May_01_1232,60.0031369795,FEMA4ImagesEEG,001,200301,
AFNE01.JPG,AFNE01.JPG,AFNE01.JPG,AFNE01.JPG,AFNE01.JPG,AFNE01.JPG,,,,,,,,,,,,,,,,,,,,,0,5,5,9,,,AMNE12.jpg,AMSA15.jpg,AMNE05.jpg,AMSA05.jpg,AMNE05.jpg,MN,1,num_2,32,num_8,0.850151661551,,,2017_May_01_1232,60.0031369795,FEMA4ImagesEEG,001,200301,
AFNE01.JPG,AFNE01.JPG,AFNE01.JPG,AFNE01.JPG,AFNE01.JPG,AFNE01.JPG,,,,,,,,,,,,,,,,,,,,,0,6,6,6,,,AMNE08.jpg,AMSA10.jpg,AMSA16.jpg,AMNE06.jpg,AMSA10.jpg,MS,2,num_6,32,num_4,1.24988910463,,,2017_May_01_1232,60.0031369795,FEMA4ImagesEEG,001,200301,
AFNE01.JPG,AFNE01.JPG,AFNE01.JPG,AFNE01.JPG,AFNE01.JPG,AFNE01.JPG,,,,,,,,,,,,,,,,,,,,,0,7,7,1,,,AMNE01.jpg,AMNE14.jpg,AMSA03.jpg,AMSA19.jpg,AMNE01.jpg,MN,1,num_8,16,num_8,2.44999661623,,,2017_May_01_1232,60.0031369795,FEMA4ImagesEEG,001,200301,
AFNE01.JPG,AFNE01.JPG,AFNE01.JPG,AFNE01.JPG,AFNE01.JPG,AFNE01.JPG,,,,,,,,,,,,,,,,,,,,,0,8,8,3,,,AMSA09.jpg,AMSA12.jpg,AMNE01.jpg,AMNE02.jpg,AMNE02.jpg,MN,1,num_4,32,num_2,1.45009412081,,,2017_May_01_1232,60.0031369795,FEMA4ImagesEEG,001,200301,
AFNE01.JPG,AFNE01.JPG,AFNE01.JPG,AFNE01.JPG,AFNE01.JPG,AFNE01.JPG,,,,,,,,,,,,,,,,,,,,,0,9,9,0,,,AMNE07.jpg,AMSA19.jpg,AMNE14.jpg,AMSA01.jpg,AMNE14.jpg,MN,1,num_2,32,num_4,0.416837326484,,,2017_May_01_1232,60.0031369795,FEMA4ImagesEEG,001,200301,
AFNE01.JPG,AFNE01.JPG,AFNE01.JPG,AFNE01.JPG,AFNE01.JPG,AFNE01.JPG,,,,,,,,,,,,,,,,,,,,,1,0,10,2,,,AMNE10.jpg,AMSA19.jpg,AMNE03.jpg,AMSA13.jpg,AMSA13.jpg,MS,2,num_4,32,num_8,0.383602984017,,,2017_May_01_1232,60.0031369795,FEMA4ImagesEEG,001,200301,
AFNE01.JPG,AFNE01.JPG,AFNE01.JPG,AFNE01.JPG,AFNE01.JPG,AFNE01.JPG,,,,,,,,,,,,,,,,,,,,,1,1,11,8,,,AMNE18.jpg,AMNE11.jpg,AMSA01.jpg,AMSA10.jpg,AMNE18.jpg,MN,1,num_8,32,num_4,0.950137580978,,,2017_May_01_1232,60.0031369795,FEMA4ImagesEEG,001,200301,
AFNE01.JPG,AFNE01.JPG,AFNE01.JPG,AFNE01.JPG,AFNE01.JPG,AFNE01.JPG,,,,,,,,,,,,,,,,,,,,,1,2,12,3,,,AMSA12.jpg,AMNE03.jpg,AMSA16.jpg,AMNE12.jpg,AMSA12.jpg,MS,2,num_8,32,num_4,0.183465002105,,,2017_May_01_1232,60.0031369795,FEMA4ImagesEEG,001,200301,
AFNE01.JPG,AFNE01.JPG,AFNE01.JPG,AFNE01.JPG,AFNE01.JPG,AFNE01.JPG,,,,,,,,,,,,,,,,,,,,,1,3,13,0,,,AMSA09.jpg,AMSA06.jpg,AMNE08.jpg,AMNE01.jpg,AMNE01.jpg,MN,1,num_4,48,None,,,,2017_May_01_1232,60.0031369795,FEMA4ImagesEEG,001,200301,
AFNE01.JPG,AFNE01.JPG,AFNE01.JPG,AFNE01.JPG,AFNE01.JPG,AFNE01.JPG,,,,,,,,,,,,,,,,,,,,,1,4,14,7,,,AMNE04.jpg,AMNE14.jpg,AMSA14.jpg,AMSA09.jpg,AMNE04.jpg,MN,1,num_8,32,num_6,2.43304459332,,,2017_May_01_1232,60.0031369795,FEMA4ImagesEEG,001,200301,
AFNE01.JPG,AFNE01.JPG,AFNE01.JPG,AFNE01.JPG,AFNE01.JPG,AFNE01.JPG,,,,,,,,,,,,,,,,,,,,,1,5,15,6,,,AMSA12.jpg,AMSA07.jpg,AMNE16.jpg,AMNE14.jpg,AMNE14.jpg,MN,1,num_4,32,num_8,0.833470663056,,,2017_May_01_1232,60.0031369795,FEMA4ImagesEEG,001,200301,
AFNE01.JPG,AFNE01.JPG,AFNE01.JPG,AFNE01.JPG,AFNE01.JPG,AFNE01.JPG,,,,,,,,,,,,,,,,,,,,,1,6,16,9,,,AMSA06.jpg,AMNE11.jpg,AMNE02.jpg,AMSA17.jpg,AMSA17.jpg,MS,2,num_4,16,num_4,0.600212521851,,,2017_May_01_1232,60.0031369795,FEMA4ImagesEEG,001,200301,
AFNE01.JPG,AFNE01.JPG,AFNE01.JPG,AFNE01.JPG,AFNE01.JPG,AFNE01.JPG,,,,,,,,,,,,,,,,,,,,,1,7,17,4,,,AMSA04.jpg,AMNE07.jpg,AMNE06.jpg,AMSA09.jpg,AMNE07.jpg,MN,1,num_6,32,num_8,0.933462997433,,,2017_May_01_1232,60.0031369795,FEMA4ImagesEEG,001,200301,
AFNE01.JPG,AFNE01.JPG,AFNE01.JPG,AFNE01.JPG,AFNE01.JPG,AFNE01.JPG,,,,,,,,,,,,,,,,,,,,,1,8,18,5,,,AMNE17.jpg,AMNE16.jpg,AMSA16.jpg,AMSA02.jpg,AMSA16.jpg,MS,2,num_2,16,num_2,1.00017833104,,,2017_May_01_1232,60.0031369795,FEMA4ImagesEEG,001,200301,
AFNE01.JPG,AFNE01.JPG,AFNE01.JPG,AFNE01.JPG,AFNE01.JPG,AFNE01.JPG,,,,,,,,,,,,,,,,,,,,,1,9,19,1,,,AMSA01.jpg,AMNE04.jpg,AMNE05.jpg,AMSA08.jpg,AMNE04.jpg,MN,1,num_6,16,num_6,0.766764951637,,,2017_May_01_1232,60.0031369795,FEMA4ImagesEEG,001,200301,
AFNE01.JPG,AFNE01.JPG,AFNE01.JPG,AFNE01.JPG,AFNE01.JPG,AFNE01.JPG,,,,,,,,,,,,,,,,,,,,,2,0,20,5,,,AMNE04.jpg,AMSA03.jpg,AMSA08.jpg,AMNE11.jpg,AMSA03.jpg,MS,2,num_6,32,num_4,0.633532501757,,,2017_May_01_1232,60.0031369795,FEMA4ImagesEEG,001,200301,
AFNE01.JPG,AFNE01.JPG,AFNE01.JPG,AFNE01.JPG,AFNE01.JPG,AFNE01.JPG,,,,,,,,,,,,,,,,,,,,,2,1,21,6,,,AMSA02.jpg,AMNE17.jpg,AMNE18.jpg,AMSA07.jpg,AMNE17.jpg,MN,1,num_6,32,num_4,1.00009718398,,,2017_May_01_1232,60.0031369795,FEMA4ImagesEEG,001,200301,
AFNE01.JPG,AFNE01.JPG,AFNE01.JPG,AFNE01.JPG,AFNE01.JPG,AFNE01.JPG,,,,,,,,,,,,,,,,,,,,,2,2,22,4,,,AMNE05.jpg,AMNE12.jpg,AMSA19.jpg,AMSA18.jpg,AMNE05.jpg,MN,1,num_8,32,num_2,2.81657605246,,,2017_May_01_1232,60.0031369795,FEMA4ImagesEEG,001,200301,
AFNE01.JPG,AFNE01.JPG,AFNE01.JPG,AFNE01.JPG,AFNE01.JPG,AFNE01.JPG,,,,,,,,,,,,,,,,,,,,,2,3,23,9,,,AMSA13.jpg,AMNE11.jpg,AMNE08.jpg,AMSA15.jpg,AMNE08.jpg,MN,1,num_2,32,num_4,1.41668080585,,,2017_May_01_1232,60.0031369795,FEMA4ImagesEEG,001,200301,
AFNE01.JPG,AFNE01.JPG,AFNE01.JPG,AFNE01.JPG,AFNE01.JPG,AFNE01.JPG,,,,,,,,,,,,,,,,,,,,,2,4,24,1,,,AMSA16.jpg,AMNE07.jpg,AMSA08.jpg,AMNE10.jpg,AMSA16.jpg,MS,2,num_8,48,None,,,,2017_May_01_1232,60.0031369795,FEMA4ImagesEEG,001,200301,
AFNE01.JPG,AFNE01.JPG,AFNE01.JPG,AFNE01.JPG,AFNE01.JPG,AFNE01.JPG,,,,,,,,,,,,,,,,,,,,,2,5,25,3,,,AMNE13.jpg,AMNE12.jpg,AMSA19.jpg,AMSA17.jpg,AMSA19.jpg,MS,2,num_2,32,num_4,0.650172124617,,,2017_May_01_1232,60.0031369795,FEMA4ImagesEEG,001,200301,
AFNE01.JPG,AFNE01.JPG,AFNE01.JPG,AFNE01.JPG,AFNE01.JPG,AFNE01.JPG,,,,,,,,,,,,,,,,,,,,,2,6,26,7,,,AMNE09.jpg,AMSA19.jpg,AMNE12.jpg,AMSA15.jpg,AMNE09.jpg,MN,1,num_8,16,num_8,0.333527594339,,,2017_May_01_1232,60.0031369795,FEMA4ImagesEEG,001,200301,
AFNE01.JPG,AFNE01.JPG,AFNE01.JPG,AFNE01.JPG,AFNE01.JPG,AFNE01.JPG,,,,,,,,,,,,,,,,,,,,,2,7,27,8,,,AMNE16.jpg,AMSA16.jpg,AMNE02.jpg,AMSA19.jpg,AMNE16.jpg,MN,1,num_8,32,num_6,1.00016742572,,,2017_May_01_1232,60.0031369795,FEMA4ImagesEEG,001,200301,
AFNE01.JPG,AFNE01.JPG,AFNE01.JPG,AFNE01.JPG,AFNE01.JPG,AFNE01.JPG,,,,,,,,,,,,,,,,,,,,,2,8,28,2,,,AMSA06.jpg,AMNE06.jpg,AMNE20.jpg,AMSA19.jpg,AMNE06.jpg,MN,1,num_6,16,num_6,0.916810865514,,,2017_May_01_1232,60.0031369795,FEMA4ImagesEEG,001,200301,
AFNE01.JPG,AFNE01.JPG,AFNE01.JPG,AFNE01.JPG,AFNE01.JPG,AFNE01.JPG,,,,,,,,,,,,,,,,,,,,,2,9,29,0,,,AMNE04.jpg,AMSA12.jpg,AMNE07.jpg,AMSA20.jpg,AMNE04.jpg,MN,1,num_8,16,num_8,1.16674647736,,,2017_May_01_1232,60.0031369795,FEMA4ImagesEEG,001,200301,
AFNE01.JPG,AFNE01.JPG,AFNE01.JPG,AFNE01.JPG,AFNE01.JPG,AFNE01.JPG,,,,,,,,,,,,,,,,,,,,,3,0,30,8,,,AMNE19.jpg,AMSA18.jpg,AMSA20.jpg,AMNE17.jpg,AMSA20.jpg,MS,2,num_2,16,num_2,0.750159006333,,,2017_May_01_1232,60.0031369795,FEMA4ImagesEEG,001,200301,
AFNE01.JPG,AFNE01.JPG,AFNE01.JPG,AFNE01.JPG,AFNE01.JPG,AFNE01.JPG,,,,,,,,,,,,,,,,,,,,,3,1,31,2,,,AMSA20.jpg,AMNE18.jpg,AMSA02.jpg,AMNE16.jpg,AMSA02.jpg,MS,2,num_2,32,num_8,1.26675292407,,,2017_May_01_1232,60.0031369795,FEMA4ImagesEEG,001,200301,
AFNE01.JPG,AFNE01.JPG,AFNE01.JPG,AFNE01.JPG,AFNE01.JPG,AFNE01.JPG,,,,,,,,,,,,,,,,,,,,,3,2,32,6,,,AMSA05.jpg,AMNE12.jpg,AMSA13.jpg,AMNE06.jpg,AMSA05.jpg,MS,2,num_8,32,num_6,0.866747022374,,,2017_May_01_1232,60.0031369795,FEMA4ImagesEEG,001,200301,
AFNE01.JPG,AFNE01.JPG,AFNE01.JPG,AFNE01.JPG,AFNE01.JPG,AFNE01.JPG,,,,,,,,,,,,,,,,,,,,,3,3,33,9,,,AMNE09.jpg,AMSA01.jpg,AMSA11.jpg,AMNE12.jpg,AMNE09.jpg,MN,1,num_8,16,num_8,1.0334931789,,,2017_May_01_1232,60.0031369795,FEMA4ImagesEEG,001,200301,
AFNE01.JPG,AFNE01.JPG,AFNE01.JPG,AFNE01.JPG,AFNE01.JPG,AFNE01.JPG,,,,,,,,,,,,,,,,,,,,,3,4,34,1,,,AMNE15.jpg,AMSA04.jpg,AMSA16.jpg,AMNE14.jpg,AMSA04.jpg,MS,2,num_6,16,num_6,1.08344219741,,,2017_May_01_1232,60.0031369795,FEMA4ImagesEEG,001,200301,
AFNE01.JPG,AFNE01.JPG,AFNE01.JPG,AFNE01.JPG,AFNE01.JPG,AFNE01.JPG,,,,,,,,,,,,,,,,,,,,,3,5,35,3,,,AMNE02.jpg,AMSA16.jpg,AMSA09.jpg,AMNE10.jpg,AMNE02.jpg,MN,1,num_8,16,num_8,0.633547255537,,,2017_May_01_1232,60.0031369795,FEMA4ImagesEEG,001,200301,
AFNE01.JPG,AFNE01.JPG,AFNE01.JPG,AFNE01.JPG,AFNE01.JPG,AFNE01.JPG,,,,,,,,,,,,,,,,,,,,,3,6,36,7,,,AMSA20.jpg,AMSA01.jpg,AMNE17.jpg,AMNE05.jpg,AMNE05.jpg,MN,1,num_4,16,num_4,0.466803023592,,,2017_May_01_1232,60.0031369795,FEMA4ImagesEEG,001,200301,
AFNE01.JPG,AFNE01.JPG,AFNE01.JPG,AFNE01.JPG,AFNE01.JPG,AFNE01.JPG,,,,,,,,,,,,,,,,,,,,,3,7,37,4,,,AMSA05.jpg,AMNE09.jpg,AMSA20.jpg,AMNE02.jpg,AMSA05.jpg,MS,2,num_8,32,num_6,0.300198313082,,,2017_May_01_1232,60.0031369795,FEMA4ImagesEEG,001,200301,
AFNE01.JPG,AFNE01.JPG,AFNE01.JPG,AFNE01.JPG,AFNE01.JPG,AFNE01.JPG,,,,,,,,,,,,,,,,,,,,,3,8,38,0,,,AMNE13.jpg,AMSA01.jpg,AMNE06.jpg,AMSA20.jpg,AMNE13.jpg,MN,1,num_8,16,num_8,0.616816863418,,,2017_May_01_1232,60.0031369795,FEMA4ImagesEEG,001,200301,
