IPosition2,IPosition3,IPosition1,IPosition6,IPosition4,IPosition5,TrialsF1.thisRepN,TrialsF1.thisTrialN,TrialsF1.thisN,TrialsF1.thisIndex,TrialsM1.thisRepN,TrialsM1.thisTrialN,TrialsM1.thisN,TrialsM1.thisIndex,TrialsF2.thisRepN,TrialsF2.thisTrialN,TrialsF2.thisN,TrialsF2.thisIndex,TrialsM2.thisRepN,TrialsM2.thisTrialN,TrialsM2.thisN,TrialsM2.thisIndex,TrialsF3.thisRepN,TrialsF3.thisTrialN,TrialsF3.thisN,TrialsF3.thisIndex,TrialsM3.thisRepN,TrialsM3.thisTrialN,TrialsM3.thisN,TrialsM3.thisIndex,InstrKey_resp.keys,InstrKey_resp.rt,Image0 _Position,Image1 _Position,Image2 _Position,Image3 _Position,Center_image,condition,code,correct_answer,accuracy,Key_Resp.keys,Key_Resp.rt,BreakKey_resp.keys,BreakKey_resp.rt,date,frameRate,expName,session,participant,
,,,,,,,,,,,,,,,,,,,,,,,,,,,,,,space,71.4115692809,,,,,,,,,,,,,,2017_May_17_1730,59.9997498244,FEMA4ImagesEEG,001,200439,
AFSA25.JPG,AFNE24.JPG,AFSA24.JPG,AFNE21.JPG,AFSA21.JPG,AFNE25.JPG,0,0,0,2,,,,,,,,,,,,,,,,,,,,,,,AFSA20.jpg,AFNE10.jpg,AFNE05.jpg,AFSA03.jpg,AFNE10.jpg,FN,3,num_6,16,num_6,0.966758836625,,,2017_May_17_1730,59.9997498244,FEMA4ImagesEEG,001,200439,
AMNE23.JPG,AMNE24.JPG,AMNE22.JPG,AMSA24.JPG,AMSA22.JPG,AMSA23.JPG,0,1,1,9,,,,,,,,,,,,,,,,,,,,,,,AFNE15.jpg,AFSA12.jpg,AFNE17.jpg,AFSA09.jpg,AFSA09.jpg,FS,4,num_4,16,num_4,0.833433029988,,,2017_May_17_1730,59.9997498244,FEMA4ImagesEEG,001,200439,
AMSA21.JPG,AMNE22.JPG,AMNE21.JPG,AMSA23.JPG,AMSA22.JPG,AMNE23.JPG,0,2,2,1,,,,,,,,,,,,,,,,,,,,,,,AFNE01.jpg,AFSA06.jpg,AFSA10.jpg,AFNE03.jpg,AFSA10.jpg,FS,4,num_2,32,num_6,1.50011498526,,,2017_May_17_1730,59.9997498244,FEMA4ImagesEEG,001,200439,
AMSA21.JPG,AMNE23.JPG,AMNE21.JPG,AMSA25.JPG,AMNE25.JPG,AMSA23.JPG,0,3,3,5,,,,,,,,,,,,,,,,,,,,,,,AFNE11.jpg,AFNE01.jpg,AFSA17.jpg,AFSA02.jpg,AFSA02.jpg,FS,4,num_4,16,num_4,0.950105699838,,,2017_May_17_1730,59.9997498244,FEMA4ImagesEEG,001,200439,
AMSA25.JPG,AMNE24.JPG,AMSA24.JPG,AMNE26.JPG,AMSA21.JPG,AMNE25.JPG,0,4,4,3,,,,,,,,,,,,,,,,,,,,,,,AFNE04.jpg,AFSA10.jpg,AFSA09.jpg,AFNE07.jpg,AFSA09.jpg,FS,4,num_2,32,num_4,0.966797325415,,,2017_May_17_1730,59.9997498244,FEMA4ImagesEEG,001,200439,
AFSA21.JPG,AFNE23.JPG,AFNE21.JPG,AFSA25.JPG,AFNE25.JPG,AFSA23.JPG,0,5,5,4,,,,,,,,,,,,,,,,,,,,,,,AFSA01.jpg,AFNE09.jpg,AFNE18.jpg,AFSA14.jpg,AFSA14.jpg,FS,4,num_4,16,num_4,0.899809512568,,,2017_May_17_1730,59.9997498244,FEMA4ImagesEEG,001,200439,
AFNE22.JPG,AFSA24.JPG,AFSA22.JPG,AFNE25.JPG,AFNE24.JPG,AFSA25.JPG,0,6,6,6,,,,,,,,,,,,,,,,,,,,,,,AFSA05.jpg,AFNE08.jpg,AFNE06.jpg,AFSA11.jpg,AFSA05.jpg,FS,4,num_8,16,num_8,2.41669149728,,,2017_May_17_1730,59.9997498244,FEMA4ImagesEEG,001,200439,
AFNE23.JPG,AFNE24.JPG,AFNE22.JPG,AFSA24.JPG,AFSA22.JPG,AFSA23.JPG,0,7,7,8,,,,,,,,,,,,,,,,,,,,,,,AFNE17.jpg,AFSA05.jpg,AFNE02.jpg,AFSA13.jpg,AFNE02.jpg,FN,3,num_2,16,num_2,2.11672783711,,,2017_May_17_1730,59.9997498244,FEMA4ImagesEEG,001,200439,
AFSA21.JPG,AFNE22.JPG,AFNE21.JPG,AFSA23.JPG,AFSA22.JPG,AFNE23.JPG,0,8,8,0,,,,,,,,,,,,,,,,,,,,,,,AFSA18.jpg,AFSA03.jpg,AFNE14.jpg,AFNE17.jpg,AFSA18.jpg,FS,4,num_8,16,num_8,1.950084531,,,2017_May_17_1730,59.9997498244,FEMA4ImagesEEG,001,200439,
AMNE22.JPG,AMSA24.JPG,AMSA22.JPG,AMNE25.JPG,AMNE24.JPG,AMSA25.JPG,0,9,9,7,,,,,,,,,,,,,,,,,,,,,,,AFNE12.jpg,AFSA17.jpg,AFNE06.jpg,AFSA02.jpg,AFSA17.jpg,FS,4,num_6,16,num_6,1.46672596078,,,2017_May_17_1730,59.9997498244,FEMA4ImagesEEG,001,200439,
AMNE23.JPG,AMNE24.JPG,AMNE22.JPG,AMSA24.JPG,AMSA22.JPG,AMSA23.JPG,,,,,0,0,0,9,,,,,,,,,,,,,,,,,,,AMNE15.jpg,AMSA20.jpg,AMSA09.jpg,AMNE19.jpg,AMNE19.jpg,MN,1,num_4,16,num_4,1.11672078084,,,2017_May_17_1730,59.9997498244,FEMA4ImagesEEG,001,200439,
AMSA21.JPG,AMNE23.JPG,AMNE21.JPG,AMSA25.JPG,AMNE25.JPG,AMSA23.JPG,,,,,0,1,1,5,,,,,,,,,,,,,,,,,,,AMSA04.jpg,AMNE09.jpg,AMNE14.jpg,AMSA09.jpg,AMSA09.jpg,MS,2,num_4,16,num_4,0.850188482804,,,2017_May_17_1730,59.9997498244,FEMA4ImagesEEG,001,200439,
AMNE22.JPG,AMSA24.JPG,AMSA22.JPG,AMNE25.JPG,AMNE24.JPG,AMSA25.JPG,,,,,0,2,2,7,,,,,,,,,,,,,,,,,,,AMNE16.jpg,AMSA16.jpg,AMSA14.jpg,AMNE03.jpg,AMSA14.jpg,MS,2,num_2,16,num_2,1.25006903926,,,2017_May_17_1730,59.9997498244,FEMA4ImagesEEG,001,200439,
AMSA25.JPG,AMNE24.JPG,AMSA24.JPG,AMNE26.JPG,AMSA21.JPG,AMNE25.JPG,,,,,0,3,3,3,,,,,,,,,,,,,,,,,,,AMNE05.jpg,AMSA01.jpg,AMNE13.jpg,AMSA17.jpg,AMSA01.jpg,MS,2,num_6,16,num_6,1.45008533285,,,2017_May_17_1730,59.9997498244,FEMA4ImagesEEG,001,200439,
AFSA21.JPG,AFNE23.JPG,AFNE21.JPG,AFSA25.JPG,AFNE25.JPG,AFSA23.JPG,,,,,0,4,4,4,,,,,,,,,,,,,,,,,,,AMNE04.jpg,AMSA20.jpg,AMSA01.jpg,AMNE05.jpg,AMSA20.jpg,MS,2,num_6,32,num_2,1.08345171309,,,2017_May_17_1730,59.9997498244,FEMA4ImagesEEG,001,200439,
AFSA21.JPG,AFNE22.JPG,AFNE21.JPG,AFSA23.JPG,AFSA22.JPG,AFNE23.JPG,,,,,0,5,5,0,,,,,,,,,,,,,,,,,,,AMNE13.jpg,AMNE15.jpg,AMSA19.jpg,AMSA10.jpg,AMNE15.jpg,MN,1,num_6,32,num_8,1.21658828318,,,2017_May_17_1730,59.9997498244,FEMA4ImagesEEG,001,200439,
AMSA21.JPG,AMNE22.JPG,AMNE21.JPG,AMSA23.JPG,AMSA22.JPG,AMNE23.JPG,,,,,0,6,6,1,,,,,,,,,,,,,,,,,,,AMSA03.jpg,AMSA02.jpg,AMNE19.jpg,AMNE07.jpg,AMSA03.jpg,MS,2,num_8,32,num_4,1.28344363044,,,2017_May_17_1730,59.9997498244,FEMA4ImagesEEG,001,200439,
AFNE22.JPG,AFSA24.JPG,AFSA22.JPG,AFNE25.JPG,AFNE24.JPG,AFSA25.JPG,,,,,0,7,7,6,,,,,,,,,,,,,,,,,,,AMSA06.jpg,AMSA02.jpg,AMNE20.jpg,AMNE01.jpg,AMNE01.jpg,MN,1,num_4,16,num_4,0.85011375041,,,2017_May_17_1730,59.9997498244,FEMA4ImagesEEG,001,200439,
AFNE23.JPG,AFNE24.JPG,AFNE22.JPG,AFSA24.JPG,AFSA22.JPG,AFSA23.JPG,,,,,0,8,8,8,,,,,,,,,,,,,,,,,,,AMNE10.jpg,AMNE05.jpg,AMSA16.jpg,AMSA07.jpg,AMSA07.jpg,MS,2,num_4,16,num_4,1.01699600775,,,2017_May_17_1730,59.9997498244,FEMA4ImagesEEG,001,200439,
AFSA25.JPG,AFNE24.JPG,AFSA24.JPG,AFNE21.JPG,AFSA21.JPG,AFNE25.JPG,,,,,0,9,9,2,,,,,,,,,,,,,,,,,,,AMNE02.jpg,AMSA03.jpg,AMSA05.jpg,AMNE16.jpg,AMSA03.jpg,MS,2,num_6,16,num_6,1.33339534305,,,2017_May_17_1730,59.9997498244,FEMA4ImagesEEG,001,200439,
AMNE22.JPG,AMSA24.JPG,AMSA22.JPG,AMNE25.JPG,AMNE24.JPG,AMSA25.JPG,,,,,,,,,0,0,0,7,,,,,,,,,,,,,,,AFSA10.jpg,AFNE10.jpg,AFSA14.jpg,AFNE04.jpg,AFSA14.jpg,FS,4,num_2,32,num_6,1.23344316537,,,2017_May_17_1730,59.9997498244,FEMA4ImagesEEG,001,200439,
AMSA21.JPG,AMNE22.JPG,AMNE21.JPG,AMSA23.JPG,AMSA22.JPG,AMNE23.JPG,,,,,,,,,0,1,1,1,,,,,,,,,,,,,,,AFSA08.jpg,AFNE19.jpg,AFSA09.jpg,AFNE08.jpg,AFSA08.jpg,FS,4,num_8,16,num_8,1.96666614279,,,2017_May_17_1730,59.9997498244,FEMA4ImagesEEG,001,200439,
AFNE22.JPG,AFSA24.JPG,AFSA22.JPG,AFNE25.JPG,AFNE24.JPG,AFSA25.JPG,,,,,,,,,0,2,2,6,,,,,,,,,,,,,,,AFSA16.jpg,AFNE11.jpg,AFNE10.jpg,AFSA18.jpg,AFSA18.jpg,FS,4,num_4,16,num_4,1.15010531495,,,2017_May_17_1730,59.9997498244,FEMA4ImagesEEG,001,200439,
AFNE23.JPG,AFNE24.JPG,AFNE22.JPG,AFSA24.JPG,AFSA22.JPG,AFSA23.JPG,,,,,,,,,0,3,3,8,,,,,,,,,,,,,,,AFSA14.jpg,AFSA02.jpg,AFNE16.jpg,AFNE20.jpg,AFSA02.jpg,FS,4,num_6,32,num_8,1.40006273672,,,2017_May_17_1730,59.9997498244,FEMA4ImagesEEG,001,200439,
AFSA25.JPG,AFNE24.JPG,AFSA24.JPG,AFNE21.JPG,AFSA21.JPG,AFNE25.JPG,,,,,,,,,0,4,4,2,,,,,,,,,,,,,,,AFNE03.jpg,AFSA16.jpg,AFNE09.jpg,AFSA01.jpg,AFNE09.jpg,FN,3,num_2,16,num_2,1.53335229975,,,2017_May_17_1730,59.9997498244,FEMA4ImagesEEG,001,200439,
AMSA21.JPG,AMNE23.JPG,AMNE21.JPG,AMSA25.JPG,AMNE25.JPG,AMSA23.JPG,,,,,,,,,0,5,5,5,,,,,,,,,,,,,,,AFNE10.jpg,AFSA14.jpg,AFSA08.jpg,AFNE07.jpg,AFNE07.jpg,FN,3,num_4,16,num_4,1.41678130446,,,2017_May_17_1730,59.9997498244,FEMA4ImagesEEG,001,200439,
AMNE23.JPG,AMNE24.JPG,AMNE22.JPG,AMSA24.JPG,AMSA22.JPG,AMSA23.JPG,,,,,,,,,0,6,6,9,,,,,,,,,,,,,,,AFNE12.jpg,AFSA06.jpg,AFSA04.jpg,AFNE18.jpg,AFNE18.jpg,FN,3,num_4,16,num_4,1.16670039781,,,2017_May_17_1730,59.9997498244,FEMA4ImagesEEG,001,200439,
AFSA21.JPG,AFNE23.JPG,AFNE21.JPG,AFSA25.JPG,AFNE25.JPG,AFSA23.JPG,,,,,,,,,0,7,7,4,,,,,,,,,,,,,,,AFSA13.jpg,AFNE09.jpg,AFSA18.jpg,AFNE10.jpg,AFNE10.jpg,FN,3,num_4,16,num_4,0.950117246473,,,2017_May_17_1730,59.9997498244,FEMA4ImagesEEG,001,200439,
AFSA21.JPG,AFNE22.JPG,AFNE21.JPG,AFSA23.JPG,AFSA22.JPG,AFNE23.JPG,,,,,,,,,0,8,8,0,,,,,,,,,,,,,,,AFNE18.jpg,AFNE01.jpg,AFSA15.jpg,AFSA06.jpg,AFSA15.jpg,FS,4,num_2,16,num_2,1.00012925818,,,2017_May_17_1730,59.9997498244,FEMA4ImagesEEG,001,200439,
AMSA25.JPG,AMNE24.JPG,AMSA24.JPG,AMNE26.JPG,AMSA21.JPG,AMNE25.JPG,,,,,,,,,0,9,9,3,,,,,,,,,,,,,,,AFNE01.jpg,AFNE10.jpg,AFSA09.jpg,AFSA11.jpg,AFSA09.jpg,FS,4,num_2,16,num_2,1.31675663956,,,2017_May_17_1730,59.9997498244,FEMA4ImagesEEG,001,200439,
AMSA21.JPG,AMNE23.JPG,AMNE21.JPG,AMSA25.JPG,AMNE25.JPG,AMSA23.JPG,,,,,,,,,,,,,0,0,0,5,,,,,,,,,,,AMSA18.jpg,AMNE02.jpg,AMNE06.jpg,AMSA01.jpg,AMSA01.jpg,MS,2,num_4,16,num_4,1.06682744289,,,2017_May_17_1730,59.9997498244,FEMA4ImagesEEG,001,200439,
AFSA21.JPG,AFNE23.JPG,AFNE21.JPG,AFSA25.JPG,AFNE25.JPG,AFSA23.JPG,,,,,,,,,,,,,0,1,1,4,,,,,,,,,,,AMNE18.jpg,AMSA07.jpg,AMSA09.jpg,AMNE02.jpg,AMSA07.jpg,MS,2,num_6,16,num_6,0.883438306158,,,2017_May_17_1730,59.9997498244,FEMA4ImagesEEG,001,200439,
AMNE23.JPG,AMNE24.JPG,AMNE22.JPG,AMSA24.JPG,AMSA22.JPG,AMSA23.JPG,,,,,,,,,,,,,0,2,2,9,,,,,,,,,,,AMNE10.jpg,AMSA13.jpg,AMNE02.jpg,AMSA04.jpg,AMSA04.jpg,MS,2,num_4,16,num_4,1.06676169121,,,2017_May_17_1730,59.9997498244,FEMA4ImagesEEG,001,200439,
AFSA21.JPG,AFNE22.JPG,AFNE21.JPG,AFSA23.JPG,AFSA22.JPG,AFNE23.JPG,,,,,,,,,,,,,0,3,3,0,,,,,,,,,,,AMSA19.jpg,AMNE20.jpg,AMSA07.jpg,AMNE11.jpg,AMSA07.jpg,MS,2,num_2,32,num_6,0.983450462201,,,2017_May_17_1730,59.9997498244,FEMA4ImagesEEG,001,200439,
AMSA25.JPG,AMNE24.JPG,AMSA24.JPG,AMNE26.JPG,AMSA21.JPG,AMNE25.JPG,,,,,,,,,,,,,0,4,4,3,,,,,,,,,,,AMNE13.jpg,AMNE20.jpg,AMSA13.jpg,AMSA14.jpg,AMNE20.jpg,MN,1,num_6,32,num_2,0.966775835841,,,2017_May_17_1730,59.9997498244,FEMA4ImagesEEG,001,200439,
AMSA21.JPG,AMNE22.JPG,AMNE21.JPG,AMSA23.JPG,AMSA22.JPG,AMNE23.JPG,,,,,,,,,,,,,0,5,5,1,,,,,,,,,,,AMSA04.jpg,AMNE05.jpg,AMNE17.jpg,AMSA18.jpg,AMSA04.jpg,MS,2,num_8,16,num_8,0.96695801611,,,2017_May_17_1730,59.9997498244,FEMA4ImagesEEG,001,200439,
AFNE23.JPG,AFNE24.JPG,AFNE22.JPG,AFSA24.JPG,AFSA22.JPG,AFSA23.JPG,,,,,,,,,,,,,0,6,6,8,,,,,,,,,,,AMSA03.jpg,AMSA11.jpg,AMNE06.jpg,AMNE04.jpg,AMNE04.jpg,MN,1,num_4,16,num_4,0.81646332291,,,2017_May_17_1730,59.9997498244,FEMA4ImagesEEG,001,200439,
AFSA25.JPG,AFNE24.JPG,AFSA24.JPG,AFNE21.JPG,AFSA21.JPG,AFNE25.JPG,,,,,,,,,,,,,0,7,7,2,,,,,,,,,,,AMSA01.jpg,AMNE16.jpg,AMSA03.jpg,AMNE02.jpg,AMNE16.jpg,MN,1,num_6,32,num_2,1.00012188117,,,2017_May_17_1730,59.9997498244,FEMA4ImagesEEG,001,200439,
AMNE22.JPG,AMSA24.JPG,AMSA22.JPG,AMNE25.JPG,AMNE24.JPG,AMSA25.JPG,,,,,,,,,,,,,0,8,8,7,,,,,,,,,,,AMNE03.jpg,AMSA13.jpg,AMSA05.jpg,AMNE04.jpg,AMNE04.jpg,MN,1,num_4,16,num_4,0.783454054486,,,2017_May_17_1730,59.9997498244,FEMA4ImagesEEG,001,200439,
AFNE22.JPG,AFSA24.JPG,AFSA22.JPG,AFNE25.JPG,AFNE24.JPG,AFSA25.JPG,,,,,,,,,,,,,0,9,9,6,,,,,,,,,,,AMNE03.jpg,AMSA11.jpg,AMNE16.jpg,AMSA05.jpg,AMSA05.jpg,MS,2,num_4,16,num_4,0.733460324955,,,2017_May_17_1730,59.9997498244,FEMA4ImagesEEG,001,200439,
AFSA25.JPG,AFNE24.JPG,AFSA24.JPG,AFNE21.JPG,AFSA21.JPG,AFNE25.JPG,,,,,,,,,,,,,,,,,0,0,0,2,,,,,,,AFSA13.jpg,AFSA08.jpg,AFNE18.jpg,AFNE14.jpg,AFNE18.jpg,FN,3,num_2,16,num_2,0.933468920786,,,2017_May_17_1730,59.9997498244,FEMA4ImagesEEG,001,200439,
AMSA21.JPG,AMNE23.JPG,AMNE21.JPG,AMSA25.JPG,AMNE25.JPG,AMSA23.JPG,,,,,,,,,,,,,,,,,0,1,1,5,,,,,,,AFSA05.jpg,AFNE13.jpg,AFNE04.jpg,AFSA09.jpg,AFNE13.jpg,FN,3,num_6,32,num_4,1.1000929825,,,2017_May_17_1730,59.9997498244,FEMA4ImagesEEG,001,200439,
AFSA21.JPG,AFNE23.JPG,AFNE21.JPG,AFSA25.JPG,AFNE25.JPG,AFSA23.JPG,,,,,,,,,,,,,,,,,0,2,2,4,,,,,,,AFNE18.jpg,AFSA17.jpg,AFSA06.jpg,AFNE11.jpg,AFSA06.jpg,FS,4,num_2,16,num_2,0.916733674578,,,2017_May_17_1730,59.9997498244,FEMA4ImagesEEG,001,200439,
AMSA25.JPG,AMNE24.JPG,AMSA24.JPG,AMNE26.JPG,AMSA21.JPG,AMNE25.JPG,,,,,,,,,,,,,,,,,0,3,3,3,,,,,,,AFSA03.jpg,AFNE17.jpg,AFSA05.jpg,AFNE14.jpg,AFSA05.jpg,FS,4,num_2,16,num_2,1.00012989966,,,2017_May_17_1730,59.9997498244,FEMA4ImagesEEG,001,200439,
AFNE23.JPG,AFNE24.JPG,AFNE22.JPG,AFSA24.JPG,AFSA22.JPG,AFSA23.JPG,,,,,,,,,,,,,,,,,0,4,4,8,,,,,,,AFSA04.jpg,AFNE11.jpg,AFSA11.jpg,AFNE04.jpg,AFSA11.jpg,FS,4,num_2,16,num_2,0.933299249373,,,2017_May_17_1730,59.9997498244,FEMA4ImagesEEG,001,200439,
AMNE23.JPG,AMNE24.JPG,AMNE22.JPG,AMSA24.JPG,AMSA22.JPG,AMSA23.JPG,,,,,,,,,,,,,,,,,0,5,5,9,,,,,,,AFNE19.jpg,AFSA15.jpg,AFSA19.jpg,AFNE08.jpg,AFSA15.jpg,FS,4,num_6,32,num_2,1.73339906363,,,2017_May_17_1730,59.9997498244,FEMA4ImagesEEG,001,200439,
AFSA21.JPG,AFNE22.JPG,AFNE21.JPG,AFSA23.JPG,AFSA22.JPG,AFNE23.JPG,,,,,,,,,,,,,,,,,0,6,6,0,,,,,,,AFSA01.jpg,AFSA08.jpg,AFNE14.jpg,AFNE17.jpg,AFNE14.jpg,FN,3,num_2,32,num_6,1.76670694091,,,2017_May_17_1730,59.9997498244,FEMA4ImagesEEG,001,200439,
AMNE22.JPG,AMSA24.JPG,AMSA22.JPG,AMNE25.JPG,AMNE24.JPG,AMSA25.JPG,,,,,,,,,,,,,,,,,0,7,7,7,,,,,,,AFSA10.jpg,AFSA18.jpg,AFNE16.jpg,AFNE04.jpg,AFSA10.jpg,FS,4,num_8,32,num_6,1.29977121623,,,2017_May_17_1730,59.9997498244,FEMA4ImagesEEG,001,200439,
AMSA21.JPG,AMNE22.JPG,AMNE21.JPG,AMSA23.JPG,AMSA22.JPG,AMNE23.JPG,,,,,,,,,,,,,,,,,0,8,8,1,,,,,,,AFSA18.jpg,AFNE06.jpg,AFSA14.jpg,AFNE13.jpg,AFSA18.jpg,FS,4,num_8,16,num_8,1.2667635515,,,2017_May_17_1730,59.9997498244,FEMA4ImagesEEG,001,200439,
AFNE22.JPG,AFSA24.JPG,AFSA22.JPG,AFNE25.JPG,AFNE24.JPG,AFSA25.JPG,,,,,,,,,,,,,,,,,0,9,9,6,,,,,,,AFNE19.jpg,AFSA13.jpg,AFNE08.jpg,AFSA17.jpg,AFNE19.jpg,FN,3,num_8,16,num_8,1.03344162582,,,2017_May_17_1730,59.9997498244,FEMA4ImagesEEG,001,200439,
AFNE23.JPG,AFNE24.JPG,AFNE22.JPG,AFSA24.JPG,AFSA22.JPG,AFSA23.JPG,,,,,,,,,,,,,,,,,,,,,0,0,0,8,,,AMSA19.jpg,AMNE05.jpg,AMSA08.jpg,AMNE15.jpg,AMNE15.jpg,MN,1,num_4,16,num_4,0.900382995525,,,2017_May_17_1730,59.9997498244,FEMA4ImagesEEG,001,200439,
AMNE22.JPG,AMSA24.JPG,AMSA22.JPG,AMNE25.JPG,AMNE24.JPG,AMSA25.JPG,,,,,,,,,,,,,,,,,,,,,0,1,1,7,,,AMNE09.jpg,AMSA19.jpg,AMSA10.jpg,AMNE15.jpg,AMNE09.jpg,MN,1,num_8,32,num_6,1.16679245017,,,2017_May_17_1730,59.9997498244,FEMA4ImagesEEG,001,200439,
AMNE23.JPG,AMNE24.JPG,AMNE22.JPG,AMSA24.JPG,AMSA22.JPG,AMSA23.JPG,,,,,,,,,,,,,,,,,,,,,0,2,2,9,,,AMNE17.jpg,AMNE04.jpg,AMSA16.jpg,AMSA05.jpg,AMNE04.jpg,MN,1,num_6,16,num_6,1.63340775568,,,2017_May_17_1730,59.9997498244,FEMA4ImagesEEG,001,200439,
AMSA21.JPG,AMNE23.JPG,AMNE21.JPG,AMSA25.JPG,AMNE25.JPG,AMSA23.JPG,,,,,,,,,,,,,,,,,,,,,0,3,3,5,,,AMNE15.jpg,AMNE06.jpg,AMSA04.jpg,AMSA01.jpg,AMNE06.jpg,MN,1,num_6,32,num_8,2.10003685301,,,2017_May_17_1730,59.9997498244,FEMA4ImagesEEG,001,200439,
AFNE22.JPG,AFSA24.JPG,AFSA22.JPG,AFNE25.JPG,AFNE24.JPG,AFSA25.JPG,,,,,,,,,,,,,,,,,,,,,0,4,4,6,,,AMSA11.jpg,AMSA18.jpg,AMNE17.jpg,AMNE19.jpg,AMSA18.jpg,MS,2,num_6,16,num_6,1.46672371561,,,2017_May_17_1730,59.9997498244,FEMA4ImagesEEG,001,200439,
AMSA25.JPG,AMNE24.JPG,AMSA24.JPG,AMNE26.JPG,AMSA21.JPG,AMNE25.JPG,,,,,,,,,,,,,,,,,,,,,0,5,5,3,,,AMNE12.jpg,AMSA13.jpg,AMNE05.jpg,AMSA18.jpg,AMNE05.jpg,MN,1,num_2,16,num_2,2.66655750818,,,2017_May_17_1730,59.9997498244,FEMA4ImagesEEG,001,200439,
AFSA21.JPG,AFNE23.JPG,AFNE21.JPG,AFSA25.JPG,AFNE25.JPG,AFSA23.JPG,,,,,,,,,,,,,,,,,,,,,0,6,6,4,,,AMNE19.jpg,AMNE06.jpg,AMSA02.jpg,AMSA08.jpg,AMSA08.jpg,MS,2,num_4,16,num_4,1.3000739947,,,2017_May_17_1730,59.9997498244,FEMA4ImagesEEG,001,200439,
AFSA21.JPG,AFNE22.JPG,AFNE21.JPG,AFSA23.JPG,AFSA22.JPG,AFNE23.JPG,,,,,,,,,,,,,,,,,,,,,0,7,7,0,,,AMNE07.jpg,AMSA10.jpg,AMSA12.jpg,AMNE20.jpg,AMNE07.jpg,MN,1,num_8,16,num_8,1.01648891795,,,2017_May_17_1730,59.9997498244,FEMA4ImagesEEG,001,200439,
AFSA25.JPG,AFNE24.JPG,AFSA24.JPG,AFNE21.JPG,AFSA21.JPG,AFNE25.JPG,,,,,,,,,,,,,,,,,,,,,0,8,8,2,,,AMNE17.jpg,AMSA19.jpg,AMSA14.jpg,AMNE04.jpg,AMSA19.jpg,MS,2,num_6,16,num_6,1.46677182659,,,2017_May_17_1730,59.9997498244,FEMA4ImagesEEG,001,200439,
AMSA21.JPG,AMNE22.JPG,AMNE21.JPG,AMSA23.JPG,AMSA22.JPG,AMNE23.JPG,,,,,,,,,,,,,,,,,,,,,0,9,9,1,,,AMNE15.jpg,AMNE10.jpg,AMSA08.jpg,AMSA06.jpg,AMSA08.jpg,MS,2,num_2,16,num_2,1.11678621178,,,2017_May_17_1730,59.9997498244,FEMA4ImagesEEG,001,200439,
,,,,,,,,,,,,,,,,,,,,,,,,,,,,,,,,,,,,,,,,,,,space,35.1644106356,2017_May_17_1730,59.9997498244,FEMA4ImagesEEG,001,200439,
AFNE01.JPG,AFNE01.JPG,AFNE01.JPG,AFNE01.JPG,AFNE01.JPG,AFNE01.JPG,0,0,0,9,,,,,,,,,,,,,,,,,,,,,,,AFSA14.jpg,AFNE18.jpg,AFSA16.jpg,AFNE17.jpg,AFNE17.jpg,FN,3,num_4,16,num_4,0.950122378312,,,2017_May_17_1730,59.9997498244,FEMA4ImagesEEG,001,200439,
AFNE01.JPG,AFNE01.JPG,AFNE01.JPG,AFNE01.JPG,AFNE01.JPG,AFNE01.JPG,0,1,1,1,,,,,,,,,,,,,,,,,,,,,,,AFSA18.jpg,AFNE16.jpg,AFNE03.jpg,AFSA10.jpg,AFSA10.jpg,FS,4,num_4,16,num_4,0.900022483867,,,2017_May_17_1730,59.9997498244,FEMA4ImagesEEG,001,200439,
AFNE01.JPG,AFNE01.JPG,AFNE01.JPG,AFNE01.JPG,AFNE01.JPG,AFNE01.JPG,0,2,2,6,,,,,,,,,,,,,,,,,,,,,,,AFSA05.jpg,AFNE11.jpg,AFSA02.jpg,AFNE08.jpg,AFNE08.jpg,FN,3,num_4,32,num_2,1.50007842091,,,2017_May_17_1730,59.9997498244,FEMA4ImagesEEG,001,200439,
AFNE01.JPG,AFNE01.JPG,AFNE01.JPG,AFNE01.JPG,AFNE01.JPG,AFNE01.JPG,0,3,3,8,,,,,,,,,,,,,,,,,,,,,,,AFNE10.jpg,AFSA12.jpg,AFNE18.jpg,AFSA15.jpg,AFNE10.jpg,FN,3,num_8,16,num_8,1.8668987113,,,2017_May_17_1730,59.9997498244,FEMA4ImagesEEG,001,200439,
AFNE01.JPG,AFNE01.JPG,AFNE01.JPG,AFNE01.JPG,AFNE01.JPG,AFNE01.JPG,0,4,4,4,,,,,,,,,,,,,,,,,,,,,,,AFSA19.jpg,AFNE16.jpg,AFNE18.jpg,AFSA07.jpg,AFSA07.jpg,FS,4,num_4,32,num_6,1.70009246932,,,2017_May_17_1730,59.9997498244,FEMA4ImagesEEG,001,200439,
AFNE01.JPG,AFNE01.JPG,AFNE01.JPG,AFNE01.JPG,AFNE01.JPG,AFNE01.JPG,0,5,5,7,,,,,,,,,,,,,,,,,,,,,,,AFSA19.jpg,AFSA12.jpg,AFNE09.jpg,AFNE05.jpg,AFSA19.jpg,FS,4,num_8,16,num_8,1.36676640608,,,2017_May_17_1730,59.9997498244,FEMA4ImagesEEG,001,200439,
AFNE01.JPG,AFNE01.JPG,AFNE01.JPG,AFNE01.JPG,AFNE01.JPG,AFNE01.JPG,0,6,6,3,,,,,,,,,,,,,,,,,,,,,,,AFSA03.jpg,AFSA12.jpg,AFNE09.jpg,AFNE20.jpg,AFNE09.jpg,FN,3,num_2,16,num_2,1.20010449706,,,2017_May_17_1730,59.9997498244,FEMA4ImagesEEG,001,200439,
AFNE01.JPG,AFNE01.JPG,AFNE01.JPG,AFNE01.JPG,AFNE01.JPG,AFNE01.JPG,0,7,7,5,,,,,,,,,,,,,,,,,,,,,,,AFSA02.jpg,AFNE15.jpg,AFSA13.jpg,AFNE14.jpg,AFNE15.jpg,FN,3,num_6,32,num_8,1.88338698777,,,2017_May_17_1730,59.9997498244,FEMA4ImagesEEG,001,200439,
AFNE01.JPG,AFNE01.JPG,AFNE01.JPG,AFNE01.JPG,AFNE01.JPG,AFNE01.JPG,0,8,8,2,,,,,,,,,,,,,,,,,,,,,,,AFNE04.jpg,AFSA16.jpg,AFNE19.jpg,AFSA15.jpg,AFSA16.jpg,FS,4,num_6,32,num_2,1.36675870833,,,2017_May_17_1730,59.9997498244,FEMA4ImagesEEG,001,200439,
AFNE01.JPG,AFNE01.JPG,AFNE01.JPG,AFNE01.JPG,AFNE01.JPG,AFNE01.JPG,0,9,9,0,,,,,,,,,,,,,,,,,,,,,,,AFSA16.jpg,AFNE17.jpg,AFNE05.jpg,AFSA17.jpg,AFNE05.jpg,FN,3,num_2,16,num_2,1.29995596241,,,2017_May_17_1730,59.9997498244,FEMA4ImagesEEG,001,200439,
AFNE01.JPG,AFNE01.JPG,AFNE01.JPG,AFNE01.JPG,AFNE01.JPG,AFNE01.JPG,1,0,10,6,,,,,,,,,,,,,,,,,,,,,,,AFSA08.jpg,AFNE09.jpg,AFSA06.jpg,AFNE08.jpg,AFNE08.jpg,FN,3,num_4,32,num_6,1.71668402404,,,2017_May_17_1730,59.9997498244,FEMA4ImagesEEG,001,200439,
AFNE01.JPG,AFNE01.JPG,AFNE01.JPG,AFNE01.JPG,AFNE01.JPG,AFNE01.JPG,1,1,11,3,,,,,,,,,,,,,,,,,,,,,,,AFNE09.jpg,AFSA13.jpg,AFSA16.jpg,AFNE17.jpg,AFSA13.jpg,FS,4,num_6,32,num_2,2.40005952933,,,2017_May_17_1730,59.9997498244,FEMA4ImagesEEG,001,200439,
AFNE01.JPG,AFNE01.JPG,AFNE01.JPG,AFNE01.JPG,AFNE01.JPG,AFNE01.JPG,1,2,12,2,,,,,,,,,,,,,,,,,,,,,,,AFSA05.jpg,AFSA04.jpg,AFNE08.jpg,AFNE17.jpg,AFSA04.jpg,FS,4,num_6,16,num_6,1.6000604274,,,2017_May_17_1730,59.9997498244,FEMA4ImagesEEG,001,200439,
AFNE01.JPG,AFNE01.JPG,AFNE01.JPG,AFNE01.JPG,AFNE01.JPG,AFNE01.JPG,1,3,13,8,,,,,,,,,,,,,,,,,,,,,,,AFSA20.jpg,AFSA13.jpg,AFNE02.jpg,AFNE20.jpg,AFSA13.jpg,FS,4,num_6,32,num_2,2.46666598242,,,2017_May_17_1730,59.9997498244,FEMA4ImagesEEG,001,200439,
AFNE01.JPG,AFNE01.JPG,AFNE01.JPG,AFNE01.JPG,AFNE01.JPG,AFNE01.JPG,1,4,14,4,,,,,,,,,,,,,,,,,,,,,,,AFNE09.jpg,AFSA11.jpg,AFSA15.jpg,AFNE20.jpg,AFNE09.jpg,FN,3,num_8,32,num_6,2.3333395343,,,2017_May_17_1730,59.9997498244,FEMA4ImagesEEG,001,200439,
AFNE01.JPG,AFNE01.JPG,AFNE01.JPG,AFNE01.JPG,AFNE01.JPG,AFNE01.JPG,1,5,15,5,,,,,,,,,,,,,,,,,,,,,,,AFNE02.jpg,AFNE12.jpg,AFSA12.jpg,AFSA10.jpg,AFSA10.jpg,FS,4,num_4,16,num_4,1.01676186762,,,2017_May_17_1730,59.9997498244,FEMA4ImagesEEG,001,200439,
AFNE01.JPG,AFNE01.JPG,AFNE01.JPG,AFNE01.JPG,AFNE01.JPG,AFNE01.JPG,1,6,16,9,,,,,,,,,,,,,,,,,,,,,,,AFNE03.jpg,AFSA10.jpg,AFNE17.jpg,AFSA12.jpg,AFNE17.jpg,FN,3,num_2,32,num_8,1.36677346237,,,2017_May_17_1730,59.9997498244,FEMA4ImagesEEG,001,200439,
AFNE01.JPG,AFNE01.JPG,AFNE01.JPG,AFNE01.JPG,AFNE01.JPG,AFNE01.JPG,1,7,17,7,,,,,,,,,,,,,,,,,,,,,,,AFSA11.jpg,AFNE19.jpg,AFNE09.jpg,AFSA13.jpg,AFNE09.jpg,FN,3,num_2,16,num_2,1.38348689826,,,2017_May_17_1730,59.9997498244,FEMA4ImagesEEG,001,200439,
AFNE01.JPG,AFNE01.JPG,AFNE01.JPG,AFNE01.JPG,AFNE01.JPG,AFNE01.JPG,1,8,18,1,,,,,,,,,,,,,,,,,,,,,,,AFSA12.jpg,AFNE04.jpg,AFNE02.jpg,AFSA19.jpg,AFNE04.jpg,FN,3,num_6,16,num_6,1.00013214484,,,2017_May_17_1730,59.9997498244,FEMA4ImagesEEG,001,200439,
AFNE01.JPG,AFNE01.JPG,AFNE01.JPG,AFNE01.JPG,AFNE01.JPG,AFNE01.JPG,1,9,19,0,,,,,,,,,,,,,,,,,,,,,,,AFNE18.jpg,AFSA05.jpg,AFSA18.jpg,AFNE08.jpg,AFNE08.jpg,FN,3,num_4,16,num_4,2.29999316824,,,2017_May_17_1730,59.9997498244,FEMA4ImagesEEG,001,200439,
AFNE01.JPG,AFNE01.JPG,AFNE01.JPG,AFNE01.JPG,AFNE01.JPG,AFNE01.JPG,2,0,20,8,,,,,,,,,,,,,,,,,,,,,,,AFNE15.jpg,AFSA11.jpg,AFNE02.jpg,AFSA01.jpg,AFNE15.jpg,FN,3,num_8,16,num_8,1.56675447456,,,2017_May_17_1730,59.9997498244,FEMA4ImagesEEG,001,200439,
AFNE01.JPG,AFNE01.JPG,AFNE01.JPG,AFNE01.JPG,AFNE01.JPG,AFNE01.JPG,2,1,21,9,,,,,,,,,,,,,,,,,,,,,,,AFSA18.jpg,AFNE06.jpg,AFNE18.jpg,AFSA03.jpg,AFNE06.jpg,FN,3,num_6,16,num_6,1.40009673516,,,2017_May_17_1730,59.9997498244,FEMA4ImagesEEG,001,200439,
AFNE01.JPG,AFNE01.JPG,AFNE01.JPG,AFNE01.JPG,AFNE01.JPG,AFNE01.JPG,2,2,22,5,,,,,,,,,,,,,,,,,,,,,,,AFSA10.jpg,AFNE04.jpg,AFNE07.jpg,AFSA04.jpg,AFSA10.jpg,FS,4,num_8,16,num_8,2.61665775544,,,2017_May_17_1730,59.9997498244,FEMA4ImagesEEG,001,200439,
AFNE01.JPG,AFNE01.JPG,AFNE01.JPG,AFNE01.JPG,AFNE01.JPG,AFNE01.JPG,2,3,23,2,,,,,,,,,,,,,,,,,,,,,,,AFNE17.jpg,AFSA02.jpg,AFNE15.jpg,AFSA04.jpg,AFNE15.jpg,FN,3,num_2,16,num_2,1.40009641441,,,2017_May_17_1730,59.9997498244,FEMA4ImagesEEG,001,200439,
AFNE01.JPG,AFNE01.JPG,AFNE01.JPG,AFNE01.JPG,AFNE01.JPG,AFNE01.JPG,2,4,24,1,,,,,,,,,,,,,,,,,,,,,,,AFSA06.jpg,AFNE03.jpg,AFNE01.jpg,AFSA01.jpg,AFSA06.jpg,FS,4,num_8,16,num_8,1.73339649772,,,2017_May_17_1730,59.9997498244,FEMA4ImagesEEG,001,200439,
AFNE01.JPG,AFNE01.JPG,AFNE01.JPG,AFNE01.JPG,AFNE01.JPG,AFNE01.JPG,2,5,25,7,,,,,,,,,,,,,,,,,,,,,,,AFNE15.jpg,AFSA15.jpg,AFNE07.jpg,AFSA17.jpg,AFNE15.jpg,FN,3,num_8,16,num_8,1.05007615969,,,2017_May_17_1730,59.9997498244,FEMA4ImagesEEG,001,200439,
AFNE01.JPG,AFNE01.JPG,AFNE01.JPG,AFNE01.JPG,AFNE01.JPG,AFNE01.JPG,2,6,26,0,,,,,,,,,,,,,,,,,,,,,,,AFSA07.jpg,AFSA01.jpg,AFNE02.jpg,AFNE19.jpg,AFSA01.jpg,FS,4,num_6,32,num_2,1.7333698763,,,2017_May_17_1730,59.9997498244,FEMA4ImagesEEG,001,200439,
AFNE01.JPG,AFNE01.JPG,AFNE01.JPG,AFNE01.JPG,AFNE01.JPG,AFNE01.JPG,2,7,27,3,,,,,,,,,,,,,,,,,,,,,,,AFSA06.jpg,AFSA16.jpg,AFNE10.jpg,AFNE09.jpg,AFSA16.jpg,FS,4,num_6,32,num_8,1.66667971009,,,2017_May_17_1730,59.9997498244,FEMA4ImagesEEG,001,200439,
AFNE01.JPG,AFNE01.JPG,AFNE01.JPG,AFNE01.JPG,AFNE01.JPG,AFNE01.JPG,2,8,28,6,,,,,,,,,,,,,,,,,,,,,,,AFSA03.jpg,AFSA01.jpg,AFNE12.jpg,AFNE08.jpg,AFSA01.jpg,FS,4,num_6,16,num_6,2.00001090515,,,2017_May_17_1730,59.9997498244,FEMA4ImagesEEG,001,200439,
AFNE01.JPG,AFNE01.JPG,AFNE01.JPG,AFNE01.JPG,AFNE01.JPG,AFNE01.JPG,2,9,29,4,,,,,,,,,,,,,,,,,,,,,,,AFNE08.jpg,AFSA04.jpg,AFNE12.jpg,AFSA10.jpg,AFNE12.jpg,FN,3,num_2,16,num_2,1.15008350464,,,2017_May_17_1730,59.9997498244,FEMA4ImagesEEG,001,200439,
AFNE01.JPG,AFNE01.JPG,AFNE01.JPG,AFNE01.JPG,AFNE01.JPG,AFNE01.JPG,3,0,30,1,,,,,,,,,,,,,,,,,,,,,,,AFSA14.jpg,AFNE17.jpg,AFSA13.jpg,AFNE09.jpg,AFNE17.jpg,FN,3,num_6,32,num_8,1.9834029927,,,2017_May_17_1730,59.9997498244,FEMA4ImagesEEG,001,200439,
AFNE01.JPG,AFNE01.JPG,AFNE01.JPG,AFNE01.JPG,AFNE01.JPG,AFNE01.JPG,3,1,31,4,,,,,,,,,,,,,,,,,,,,,,,AFNE11.jpg,AFNE05.jpg,AFSA07.jpg,AFSA06.jpg,AFSA07.jpg,FS,4,num_2,32,num_4,2.61666513246,,,2017_May_17_1730,59.9997498244,FEMA4ImagesEEG,001,200439,
AFNE01.JPG,AFNE01.JPG,AFNE01.JPG,AFNE01.JPG,AFNE01.JPG,AFNE01.JPG,3,2,32,0,,,,,,,,,,,,,,,,,,,,,,,AFNE07.jpg,AFNE02.jpg,AFSA20.jpg,AFSA07.jpg,AFNE02.jpg,FN,3,num_6,16,num_6,1.58339991359,,,2017_May_17_1730,59.9997498244,FEMA4ImagesEEG,001,200439,
AFNE01.JPG,AFNE01.JPG,AFNE01.JPG,AFNE01.JPG,AFNE01.JPG,AFNE01.JPG,3,3,33,5,,,,,,,,,,,,,,,,,,,,,,,AFSA05.jpg,AFNE11.jpg,AFSA01.jpg,AFNE15.jpg,AFNE15.jpg,FN,3,num_4,16,num_4,1.11678172142,,,2017_May_17_1730,59.9997498244,FEMA4ImagesEEG,001,200439,
AFNE01.JPG,AFNE01.JPG,AFNE01.JPG,AFNE01.JPG,AFNE01.JPG,AFNE01.JPG,3,4,34,9,,,,,,,,,,,,,,,,,,,,,,,AFNE01.jpg,AFSA13.jpg,AFNE09.jpg,AFSA11.jpg,AFSA13.jpg,FS,4,num_6,32,num_8,2.73332272753,,,2017_May_17_1730,59.9997498244,FEMA4ImagesEEG,001,200439,
AFNE01.JPG,AFNE01.JPG,AFNE01.JPG,AFNE01.JPG,AFNE01.JPG,AFNE01.JPG,3,5,35,6,,,,,,,,,,,,,,,,,,,,,,,AFSA15.jpg,AFNE13.jpg,AFNE05.jpg,AFSA07.jpg,AFNE05.jpg,FN,3,num_2,16,num_2,1.06661575455,,,2017_May_17_1730,59.9997498244,FEMA4ImagesEEG,001,200439,
AFNE01.JPG,AFNE01.JPG,AFNE01.JPG,AFNE01.JPG,AFNE01.JPG,AFNE01.JPG,3,6,36,8,,,,,,,,,,,,,,,,,,,,,,,AFSA08.jpg,AFNE11.jpg,AFNE14.jpg,AFSA16.jpg,AFSA08.jpg,FS,4,num_8,16,num_8,1.25007128444,,,2017_May_17_1730,59.9997498244,FEMA4ImagesEEG,001,200439,
AFNE01.JPG,AFNE01.JPG,AFNE01.JPG,AFNE01.JPG,AFNE01.JPG,AFNE01.JPG,3,7,37,7,,,,,,,,,,,,,,,,,,,,,,,AFNE14.jpg,AFNE17.jpg,AFSA08.jpg,AFSA16.jpg,AFSA16.jpg,FS,4,num_4,16,num_4,1.66669478486,,,2017_May_17_1730,59.9997498244,FEMA4ImagesEEG,001,200439,
AFNE01.JPG,AFNE01.JPG,AFNE01.JPG,AFNE01.JPG,AFNE01.JPG,AFNE01.JPG,3,8,38,3,,,,,,,,,,,,,,,,,,,,,,,AFNE06.jpg,AFNE09.jpg,AFSA11.jpg,AFSA03.jpg,AFNE09.jpg,FN,3,num_6,32,num_8,2.10000349606,,,2017_May_17_1730,59.9997498244,FEMA4ImagesEEG,001,200439,
AFNE01.JPG,AFNE01.JPG,AFNE01.JPG,AFNE01.JPG,AFNE01.JPG,AFNE01.JPG,3,9,39,2,,,,,,,,,,,,,,,,,,,,,,,AFNE19.jpg,AFSA17.jpg,AFSA15.jpg,AFNE01.jpg,AFSA15.jpg,FS,4,num_2,16,num_2,1.30009612575,,,2017_May_17_1730,59.9997498244,FEMA4ImagesEEG,001,200439,
AFNE01.JPG,AFNE01.JPG,AFNE01.JPG,AFNE01.JPG,AFNE01.JPG,AFNE01.JPG,4,0,40,5,,,,,,,,,,,,,,,,,,,,,,,AFSA12.jpg,AFSA13.jpg,AFNE20.jpg,AFNE12.jpg,AFSA13.jpg,FS,4,num_6,16,num_6,1.5000341588,,,2017_May_17_1730,59.9997498244,FEMA4ImagesEEG,001,200439,
AFNE01.JPG,AFNE01.JPG,AFNE01.JPG,AFNE01.JPG,AFNE01.JPG,AFNE01.JPG,4,1,41,1,,,,,,,,,,,,,,,,,,,,,,,AFSA01.jpg,AFNE14.jpg,AFSA15.jpg,AFNE13.jpg,AFSA01.jpg,FS,4,num_8,16,num_8,1.10011126467,,,2017_May_17_1730,59.9997498244,FEMA4ImagesEEG,001,200439,
AFNE01.JPG,AFNE01.JPG,AFNE01.JPG,AFNE01.JPG,AFNE01.JPG,AFNE01.JPG,4,2,42,7,,,,,,,,,,,,,,,,,,,,,,,AFSA19.jpg,AFNE06.jpg,AFNE20.jpg,AFSA17.jpg,AFSA19.jpg,FS,4,num_8,32,num_2,4.14988560811,,,2017_May_17_1730,59.9997498244,FEMA4ImagesEEG,001,200439,
AFNE01.JPG,AFNE01.JPG,AFNE01.JPG,AFNE01.JPG,AFNE01.JPG,AFNE01.JPG,4,3,43,3,,,,,,,,,,,,,,,,,,,,,,,AFSA16.jpg,AFSA07.jpg,AFNE10.jpg,AFNE01.jpg,AFNE01.jpg,FN,3,num_4,32,num_2,1.75009710401,,,2017_May_17_1730,59.9997498244,FEMA4ImagesEEG,001,200439,
AFNE01.JPG,AFNE01.JPG,AFNE01.JPG,AFNE01.JPG,AFNE01.JPG,AFNE01.JPG,4,4,44,0,,,,,,,,,,,,,,,,,,,,,,,AFSA06.jpg,AFNE11.jpg,AFSA04.jpg,AFNE20.jpg,AFNE11.jpg,FN,3,num_6,16,num_6,1.53341067442,,,2017_May_17_1730,59.9997498244,FEMA4ImagesEEG,001,200439,
AFNE01.JPG,AFNE01.JPG,AFNE01.JPG,AFNE01.JPG,AFNE01.JPG,AFNE01.JPG,4,5,45,9,,,,,,,,,,,,,,,,,,,,,,,AFSA15.jpg,AFNE14.jpg,AFSA02.jpg,AFNE13.jpg,AFSA15.jpg,FS,4,num_8,32,num_6,2.21664601636,,,2017_May_17_1730,59.9997498244,FEMA4ImagesEEG,001,200439,
AFNE01.JPG,AFNE01.JPG,AFNE01.JPG,AFNE01.JPG,AFNE01.JPG,AFNE01.JPG,4,6,46,6,,,,,,,,,,,,,,,,,,,,,,,AFSA12.jpg,AFNE15.jpg,AFSA06.jpg,AFNE16.jpg,AFNE15.jpg,FN,3,num_6,16,num_6,1.18344751139,,,2017_May_17_1730,59.9997498244,FEMA4ImagesEEG,001,200439,
AFNE01.JPG,AFNE01.JPG,AFNE01.JPG,AFNE01.JPG,AFNE01.JPG,AFNE01.JPG,4,7,47,2,,,,,,,,,,,,,,,,,,,,,,,AFSA12.jpg,AFSA10.jpg,AFNE17.jpg,AFNE16.jpg,AFNE17.jpg,FN,3,num_2,32,num_4,2.33331579955,,,2017_May_17_1730,59.9997498244,FEMA4ImagesEEG,001,200439,
AFNE01.JPG,AFNE01.JPG,AFNE01.JPG,AFNE01.JPG,AFNE01.JPG,AFNE01.JPG,4,8,48,4,,,,,,,,,,,,,,,,,,,,,,,AFNE01.jpg,AFSA02.jpg,AFSA20.jpg,AFNE04.jpg,AFNE01.jpg,FN,3,num_8,32,num_2,3.26639598357,,,2017_May_17_1730,59.9997498244,FEMA4ImagesEEG,001,200439,
AFNE01.JPG,AFNE01.JPG,AFNE01.JPG,AFNE01.JPG,AFNE01.JPG,AFNE01.JPG,4,9,49,8,,,,,,,,,,,,,,,,,,,,,,,AFSA01.jpg,AFNE03.jpg,AFNE01.jpg,AFSA19.jpg,AFNE01.jpg,FN,3,num_2,32,num_6,1.66670665224,,,2017_May_17_1730,59.9997498244,FEMA4ImagesEEG,001,200439,
AFNE01.JPG,AFNE01.JPG,AFNE01.JPG,AFNE01.JPG,AFNE01.JPG,AFNE01.JPG,5,0,50,7,,,,,,,,,,,,,,,,,,,,,,,AFSA13.jpg,AFSA03.jpg,AFNE11.jpg,AFNE13.jpg,AFNE13.jpg,FN,3,num_4,16,num_4,1.10036849808,,,2017_May_17_1730,59.9997498244,FEMA4ImagesEEG,001,200439,
AFNE01.JPG,AFNE01.JPG,AFNE01.JPG,AFNE01.JPG,AFNE01.JPG,AFNE01.JPG,5,1,51,8,,,,,,,,,,,,,,,,,,,,,,,AFNE11.jpg,AFSA02.jpg,AFSA18.jpg,AFNE09.jpg,AFNE09.jpg,FN,3,num_4,16,num_4,0.833490763172,,,2017_May_17_1730,59.9997498244,FEMA4ImagesEEG,001,200439,
AFNE01.JPG,AFNE01.JPG,AFNE01.JPG,AFNE01.JPG,AFNE01.JPG,AFNE01.JPG,5,2,52,1,,,,,,,,,,,,,,,,,,,,,,,AFNE03.jpg,AFSA04.jpg,AFSA20.jpg,AFNE10.jpg,AFSA20.jpg,FS,4,num_2,32,num_8,1.81668495418,,,2017_May_17_1730,59.9997498244,FEMA4ImagesEEG,001,200439,
AFNE01.JPG,AFNE01.JPG,AFNE01.JPG,AFNE01.JPG,AFNE01.JPG,AFNE01.JPG,5,3,53,0,,,,,,,,,,,,,,,,,,,,,,,AFSA07.jpg,AFNE08.jpg,AFNE05.jpg,AFSA17.jpg,AFSA17.jpg,FS,4,num_4,16,num_4,1.30013076566,,,2017_May_17_1730,59.9997498244,FEMA4ImagesEEG,001,200439,
AFNE01.JPG,AFNE01.JPG,AFNE01.JPG,AFNE01.JPG,AFNE01.JPG,AFNE01.JPG,5,4,54,5,,,,,,,,,,,,,,,,,,,,,,,AFSA10.jpg,AFSA09.jpg,AFNE15.jpg,AFNE10.jpg,AFSA10.jpg,FS,4,num_8,16,num_8,2.41668379952,,,2017_May_17_1730,59.9997498244,FEMA4ImagesEEG,001,200439,
AFNE01.JPG,AFNE01.JPG,AFNE01.JPG,AFNE01.JPG,AFNE01.JPG,AFNE01.JPG,5,5,55,4,,,,,,,,,,,,,,,,,,,,,,,AFSA14.jpg,AFNE15.jpg,AFSA10.jpg,AFNE11.jpg,AFNE15.jpg,FN,3,num_6,16,num_6,1.83336182573,,,2017_May_17_1730,59.9997498244,FEMA4ImagesEEG,001,200439,
AFNE01.JPG,AFNE01.JPG,AFNE01.JPG,AFNE01.JPG,AFNE01.JPG,AFNE01.JPG,5,6,56,3,,,,,,,,,,,,,,,,,,,,,,,AFSA19.jpg,AFNE11.jpg,AFNE18.jpg,AFSA08.jpg,AFSA19.jpg,FS,4,num_8,16,num_8,0.950106982797,,,2017_May_17_1730,59.9997498244,FEMA4ImagesEEG,001,200439,
AFNE01.JPG,AFNE01.JPG,AFNE01.JPG,AFNE01.JPG,AFNE01.JPG,AFNE01.JPG,5,7,57,9,,,,,,,,,,,,,,,,,,,,,,,AFSA06.jpg,AFNE13.jpg,AFSA02.jpg,AFNE16.jpg,AFSA06.jpg,FS,4,num_8,32,num_2,1.61657179715,,,2017_May_17_1730,59.9997498244,FEMA4ImagesEEG,001,200439,
AFNE01.JPG,AFNE01.JPG,AFNE01.JPG,AFNE01.JPG,AFNE01.JPG,AFNE01.JPG,5,8,58,6,,,,,,,,,,,,,,,,,,,,,,,AFSA11.jpg,AFSA08.jpg,AFNE17.jpg,AFNE15.jpg,AFSA08.jpg,FS,4,num_6,32,num_2,2.64997782083,,,2017_May_17_1730,59.9997498244,FEMA4ImagesEEG,001,200439,
AFNE01.JPG,AFNE01.JPG,AFNE01.JPG,AFNE01.JPG,AFNE01.JPG,AFNE01.JPG,5,9,59,2,,,,,,,,,,,,,,,,,,,,,,,AFSA16.jpg,AFSA20.jpg,AFNE20.jpg,AFNE17.jpg,AFSA20.jpg,FS,4,num_6,16,num_6,2.45000482714,,,2017_May_17_1730,59.9997498244,FEMA4ImagesEEG,001,200439,
,,,,,,,,,,,,,,,,,,,,,,,,,,,,,,,,,,,,,,,,,,,space,6.43327824091,2017_May_17_1730,59.9997498244,FEMA4ImagesEEG,001,200439,
AFNE01.JPG,AFNE01.JPG,AFNE01.JPG,AFNE01.JPG,AFNE01.JPG,AFNE01.JPG,,,,,0,0,0,2,,,,,,,,,,,,,,,,,,,AMSA12.jpg,AMSA08.jpg,AMNE08.jpg,AMNE03.jpg,AMNE08.jpg,MN,1,num_2,16,num_2,1.13344415966,,,2017_May_17_1730,59.9997498244,FEMA4ImagesEEG,001,200439,
AFNE01.JPG,AFNE01.JPG,AFNE01.JPG,AFNE01.JPG,AFNE01.JPG,AFNE01.JPG,,,,,0,1,1,6,,,,,,,,,,,,,,,,,,,AMNE17.jpg,AMNE20.jpg,AMSA02.jpg,AMSA03.jpg,AMNE20.jpg,MN,1,num_6,16,num_6,1.11678011772,,,2017_May_17_1730,59.9997498244,FEMA4ImagesEEG,001,200439,
AFNE01.JPG,AFNE01.JPG,AFNE01.JPG,AFNE01.JPG,AFNE01.JPG,AFNE01.JPG,,,,,0,2,2,3,,,,,,,,,,,,,,,,,,,AMNE01.jpg,AMNE13.jpg,AMSA20.jpg,AMSA15.jpg,AMSA15.jpg,MS,2,num_4,16,num_4,1.43345721377,,,2017_May_17_1730,59.9997498244,FEMA4ImagesEEG,001,200439,
AFNE01.JPG,AFNE01.JPG,AFNE01.JPG,AFNE01.JPG,AFNE01.JPG,AFNE01.JPG,,,,,0,3,3,7,,,,,,,,,,,,,,,,,,,AMNE01.jpg,AMNE11.jpg,AMSA11.jpg,AMSA16.jpg,AMSA11.jpg,MS,2,num_2,16,num_2,1.35006130943,,,2017_May_17_1730,59.9997498244,FEMA4ImagesEEG,001,200439,
AFNE01.JPG,AFNE01.JPG,AFNE01.JPG,AFNE01.JPG,AFNE01.JPG,AFNE01.JPG,,,,,0,4,4,1,,,,,,,,,,,,,,,,,,,AMNE02.jpg,AMSA17.jpg,AMSA15.jpg,AMNE06.jpg,AMNE02.jpg,MN,1,num_8,16,num_8,2.5333333761,,,2017_May_17_1730,59.9997498244,FEMA4ImagesEEG,001,200439,
AFNE01.JPG,AFNE01.JPG,AFNE01.JPG,AFNE01.JPG,AFNE01.JPG,AFNE01.JPG,,,,,0,5,5,9,,,,,,,,,,,,,,,,,,,AMNE14.jpg,AMSA03.jpg,AMNE20.jpg,AMSA18.jpg,AMSA18.jpg,MS,2,num_4,16,num_4,0.866782603451,,,2017_May_17_1730,59.9997498244,FEMA4ImagesEEG,001,200439,
AFNE01.JPG,AFNE01.JPG,AFNE01.JPG,AFNE01.JPG,AFNE01.JPG,AFNE01.JPG,,,,,0,6,6,8,,,,,,,,,,,,,,,,,,,AMSA05.jpg,AMNE20.jpg,AMSA12.jpg,AMNE13.jpg,AMNE20.jpg,MN,1,num_6,16,num_6,1.08314508574,,,2017_May_17_1730,59.9997498244,FEMA4ImagesEEG,001,200439,
AFNE01.JPG,AFNE01.JPG,AFNE01.JPG,AFNE01.JPG,AFNE01.JPG,AFNE01.JPG,,,,,0,7,7,5,,,,,,,,,,,,,,,,,,,AMSA15.jpg,AMSA04.jpg,AMNE03.jpg,AMNE15.jpg,AMSA15.jpg,MS,2,num_8,16,num_8,1.43340589539,,,2017_May_17_1730,59.9997498244,FEMA4ImagesEEG,001,200439,
AFNE01.JPG,AFNE01.JPG,AFNE01.JPG,AFNE01.JPG,AFNE01.JPG,AFNE01.JPG,,,,,0,8,8,0,,,,,,,,,,,,,,,,,,,AMSA17.jpg,AMNE03.jpg,AMSA07.jpg,AMNE17.jpg,AMNE03.jpg,MN,1,num_6,16,num_6,4.63343341488,,,2017_May_17_1730,59.9997498244,FEMA4ImagesEEG,001,200439,
AFNE01.JPG,AFNE01.JPG,AFNE01.JPG,AFNE01.JPG,AFNE01.JPG,AFNE01.JPG,,,,,0,9,9,4,,,,,,,,,,,,,,,,,,,AMNE12.jpg,AMSA05.jpg,AMNE17.jpg,AMSA07.jpg,AMNE12.jpg,MN,1,num_8,16,num_8,0.9500909458,,,2017_May_17_1730,59.9997498244,FEMA4ImagesEEG,001,200439,
AFNE01.JPG,AFNE01.JPG,AFNE01.JPG,AFNE01.JPG,AFNE01.JPG,AFNE01.JPG,,,,,1,0,10,8,,,,,,,,,,,,,,,,,,,AMSA05.jpg,AMNE20.jpg,AMNE13.jpg,AMSA18.jpg,AMNE20.jpg,MN,1,num_6,16,num_6,0.983472913995,,,2017_May_17_1730,59.9997498244,FEMA4ImagesEEG,001,200439,
AFNE01.JPG,AFNE01.JPG,AFNE01.JPG,AFNE01.JPG,AFNE01.JPG,AFNE01.JPG,,,,,1,1,11,1,,,,,,,,,,,,,,,,,,,AMNE12.jpg,AMSA08.jpg,AMNE07.jpg,AMSA06.jpg,AMNE07.jpg,MN,1,num_2,16,num_2,2.18336893012,,,2017_May_17_1730,59.9997498244,FEMA4ImagesEEG,001,200439,
AFNE01.JPG,AFNE01.JPG,AFNE01.JPG,AFNE01.JPG,AFNE01.JPG,AFNE01.JPG,,,,,1,2,12,9,,,,,,,,,,,,,,,,,,,AMNE11.jpg,AMSA20.jpg,AMNE19.jpg,AMSA17.jpg,AMNE11.jpg,MN,1,num_8,32,num_4,1.25006294521,,,2017_May_17_1730,59.9997498244,FEMA4ImagesEEG,001,200439,
AFNE01.JPG,AFNE01.JPG,AFNE01.JPG,AFNE01.JPG,AFNE01.JPG,AFNE01.JPG,,,,,1,3,13,0,,,,,,,,,,,,,,,,,,,AMSA17.jpg,AMNE07.jpg,AMNE02.jpg,AMSA16.jpg,AMNE02.jpg,MN,1,num_2,32,num_8,4.19993193899,,,2017_May_17_1730,59.9997498244,FEMA4ImagesEEG,001,200439,
AFNE01.JPG,AFNE01.JPG,AFNE01.JPG,AFNE01.JPG,AFNE01.JPG,AFNE01.JPG,,,,,1,4,14,2,,,,,,,,,,,,,,,,,,,AMSA12.jpg,AMNE02.jpg,AMNE03.jpg,AMSA01.jpg,AMSA12.jpg,MS,2,num_8,16,num_8,2.41669149728,,,2017_May_17_1730,59.9997498244,FEMA4ImagesEEG,001,200439,
AFNE01.JPG,AFNE01.JPG,AFNE01.JPG,AFNE01.JPG,AFNE01.JPG,AFNE01.JPG,,,,,1,5,15,4,,,,,,,,,,,,,,,,,,,AMSA08.jpg,AMSA10.jpg,AMNE20.jpg,AMNE16.jpg,AMSA08.jpg,MS,2,num_8,16,num_8,1.3667263136,,,2017_May_17_1730,59.9997498244,FEMA4ImagesEEG,001,200439,
AFNE01.JPG,AFNE01.JPG,AFNE01.JPG,AFNE01.JPG,AFNE01.JPG,AFNE01.JPG,,,,,1,6,16,7,,,,,,,,,,,,,,,,,,,AMSA04.jpg,AMNE12.jpg,AMSA06.jpg,AMNE07.jpg,AMNE07.jpg,MN,1,num_4,16,num_4,0.86678837677,,,2017_May_17_1730,59.9997498244,FEMA4ImagesEEG,001,200439,
AFNE01.JPG,AFNE01.JPG,AFNE01.JPG,AFNE01.JPG,AFNE01.JPG,AFNE01.JPG,,,,,1,7,17,3,,,,,,,,,,,,,,,,,,,AMSA08.jpg,AMNE13.jpg,AMNE19.jpg,AMSA14.jpg,AMSA14.jpg,MS,2,num_4,16,num_4,1.58345925048,,,2017_May_17_1730,59.9997498244,FEMA4ImagesEEG,001,200439,
AFNE01.JPG,AFNE01.JPG,AFNE01.JPG,AFNE01.JPG,AFNE01.JPG,AFNE01.JPG,,,,,1,8,18,5,,,,,,,,,,,,,,,,,,,AMSA20.jpg,AMSA18.jpg,AMNE03.jpg,AMNE15.jpg,AMNE15.jpg,MN,1,num_4,16,num_4,1.03345092728,,,2017_May_17_1730,59.9997498244,FEMA4ImagesEEG,001,200439,
AFNE01.JPG,AFNE01.JPG,AFNE01.JPG,AFNE01.JPG,AFNE01.JPG,AFNE01.JPG,,,,,1,9,19,6,,,,,,,,,,,,,,,,,,,AMSA16.jpg,AMNE09.jpg,AMNE15.jpg,AMSA17.jpg,AMNE09.jpg,MN,1,num_6,16,num_6,2.31668447308,,,2017_May_17_1730,59.9997498244,FEMA4ImagesEEG,001,200439,
AFNE01.JPG,AFNE01.JPG,AFNE01.JPG,AFNE01.JPG,AFNE01.JPG,AFNE01.JPG,,,,,2,0,20,4,,,,,,,,,,,,,,,,,,,AMNE03.jpg,AMSA15.jpg,AMNE13.jpg,AMSA17.jpg,AMNE13.jpg,MN,1,num_2,32,num_6,1.28346351632,,,2017_May_17_1730,59.9997498244,FEMA4ImagesEEG,001,200439,
AFNE01.JPG,AFNE01.JPG,AFNE01.JPG,AFNE01.JPG,AFNE01.JPG,AFNE01.JPG,,,,,2,1,21,6,,,,,,,,,,,,,,,,,,,AMSA09.jpg,AMNE13.jpg,AMSA20.jpg,AMNE12.jpg,AMSA20.jpg,MS,2,num_2,16,num_2,2.58329888052,,,2017_May_17_1730,59.9997498244,FEMA4ImagesEEG,001,200439,
AFNE01.JPG,AFNE01.JPG,AFNE01.JPG,AFNE01.JPG,AFNE01.JPG,AFNE01.JPG,,,,,2,2,22,1,,,,,,,,,,,,,,,,,,,AMNE13.jpg,AMNE06.jpg,AMSA03.jpg,AMSA12.jpg,AMNE13.jpg,MN,1,num_8,16,num_8,2.20003553798,,,2017_May_17_1730,59.9997498244,FEMA4ImagesEEG,001,200439,
AFNE01.JPG,AFNE01.JPG,AFNE01.JPG,AFNE01.JPG,AFNE01.JPG,AFNE01.JPG,,,,,2,3,23,0,,,,,,,,,,,,,,,,,,,AMNE14.jpg,AMSA19.jpg,AMNE16.jpg,AMSA15.jpg,AMNE16.jpg,MN,1,num_2,16,num_2,1.73336378224,,,2017_May_17_1730,59.9997498244,FEMA4ImagesEEG,001,200439,
AFNE01.JPG,AFNE01.JPG,AFNE01.JPG,AFNE01.JPG,AFNE01.JPG,AFNE01.JPG,,,,,2,4,24,7,,,,,,,,,,,,,,,,,,,AMSA13.jpg,AMNE01.jpg,AMNE11.jpg,AMSA08.jpg,AMSA13.jpg,MS,2,num_8,16,num_8,3.14964665688,,,2017_May_17_1730,59.9997498244,FEMA4ImagesEEG,001,200439,
AFNE01.JPG,AFNE01.JPG,AFNE01.JPG,AFNE01.JPG,AFNE01.JPG,AFNE01.JPG,,,,,2,5,25,9,,,,,,,,,,,,,,,,,,,AMNE06.jpg,AMSA02.jpg,AMSA20.jpg,AMNE20.jpg,AMNE06.jpg,MN,1,num_8,16,num_8,4.33319327691,,,2017_May_17_1730,59.9997498244,FEMA4ImagesEEG,001,200439,
AFNE01.JPG,AFNE01.JPG,AFNE01.JPG,AFNE01.JPG,AFNE01.JPG,AFNE01.JPG,,,,,2,6,26,5,,,,,,,,,,,,,,,,,,,AMNE13.jpg,AMSA11.jpg,AMNE06.jpg,AMSA06.jpg,AMSA11.jpg,MS,2,num_6,16,num_6,0.900445219067,,,2017_May_17_1730,59.9997498244,FEMA4ImagesEEG,001,200439,
AFNE01.JPG,AFNE01.JPG,AFNE01.JPG,AFNE01.JPG,AFNE01.JPG,AFNE01.JPG,,,,,2,7,27,3,,,,,,,,,,,,,,,,,,,AMNE16.jpg,AMNE05.jpg,AMSA07.jpg,AMSA05.jpg,AMSA07.jpg,MS,2,num_2,16,num_2,1.0000811472,,,2017_May_17_1730,59.9997498244,FEMA4ImagesEEG,001,200439,
AFNE01.JPG,AFNE01.JPG,AFNE01.JPG,AFNE01.JPG,AFNE01.JPG,AFNE01.JPG,,,,,2,8,28,2,,,,,,,,,,,,,,,,,,,AMNE19.jpg,AMSA20.jpg,AMSA08.jpg,AMNE07.jpg,AMSA20.jpg,MS,2,num_6,16,num_6,1.36675229353,,,2017_May_17_1730,59.9997498244,FEMA4ImagesEEG,001,200439,
AFNE01.JPG,AFNE01.JPG,AFNE01.JPG,AFNE01.JPG,AFNE01.JPG,AFNE01.JPG,,,,,2,9,29,8,,,,,,,,,,,,,,,,,,,AMNE11.jpg,AMSA10.jpg,AMNE09.jpg,AMSA12.jpg,AMSA10.jpg,MS,2,num_6,16,num_6,1.48345992403,,,2017_May_17_1730,59.9997498244,FEMA4ImagesEEG,001,200439,
AFNE01.JPG,AFNE01.JPG,AFNE01.JPG,AFNE01.JPG,AFNE01.JPG,AFNE01.JPG,,,,,3,0,30,8,,,,,,,,,,,,,,,,,,,AMNE13.jpg,AMSA04.jpg,AMSA06.jpg,AMNE01.jpg,AMNE01.jpg,MN,1,num_4,16,num_4,1.20008364897,,,2017_May_17_1730,59.9997498244,FEMA4ImagesEEG,001,200439,
AFNE01.JPG,AFNE01.JPG,AFNE01.JPG,AFNE01.JPG,AFNE01.JPG,AFNE01.JPG,,,,,3,1,31,4,,,,,,,,,,,,,,,,,,,AMSA07.jpg,AMNE08.jpg,AMSA20.jpg,AMNE18.jpg,AMSA07.jpg,MS,2,num_8,48,None,,,,2017_May_17_1730,59.9997498244,FEMA4ImagesEEG,001,200439,
AFNE01.JPG,AFNE01.JPG,AFNE01.JPG,AFNE01.JPG,AFNE01.JPG,AFNE01.JPG,,,,,3,2,32,9,,,,,,,,,,,,,,,,,,,AMNE14.jpg,AMSA07.jpg,AMSA18.jpg,AMNE15.jpg,AMSA07.jpg,MS,2,num_6,32,num_4,1.33340849338,,,2017_May_17_1730,59.9997498244,FEMA4ImagesEEG,001,200439,
AFNE01.JPG,AFNE01.JPG,AFNE01.JPG,AFNE01.JPG,AFNE01.JPG,AFNE01.JPG,,,,,3,3,33,2,,,,,,,,,,,,,,,,,,,AMSA04.jpg,AMNE19.jpg,AMSA02.jpg,AMNE09.jpg,AMSA04.jpg,MS,2,num_8,16,num_8,1.4333882547,,,2017_May_17_1730,59.9997498244,FEMA4ImagesEEG,001,200439,
AFNE01.JPG,AFNE01.JPG,AFNE01.JPG,AFNE01.JPG,AFNE01.JPG,AFNE01.JPG,,,,,3,4,34,5,,,,,,,,,,,,,,,,,,,AMNE02.jpg,AMSA06.jpg,AMNE04.jpg,AMSA10.jpg,AMNE02.jpg,MN,1,num_8,16,num_8,1.79987337189,,,2017_May_17_1730,59.9997498244,FEMA4ImagesEEG,001,200439,
AFNE01.JPG,AFNE01.JPG,AFNE01.JPG,AFNE01.JPG,AFNE01.JPG,AFNE01.JPG,,,,,3,5,35,1,,,,,,,,,,,,,,,,,,,AMSA20.jpg,AMNE18.jpg,AMNE16.jpg,AMSA15.jpg,AMSA20.jpg,MS,2,num_8,16,num_8,1.33340175785,,,2017_May_17_1730,59.9997498244,FEMA4ImagesEEG,001,200439,
AFNE01.JPG,AFNE01.JPG,AFNE01.JPG,AFNE01.JPG,AFNE01.JPG,AFNE01.JPG,,,,,3,6,36,7,,,,,,,,,,,,,,,,,,,AMNE11.jpg,AMNE20.jpg,AMSA17.jpg,AMSA18.jpg,AMSA17.jpg,MS,2,num_2,16,num_2,1.01687412658,,,2017_May_17_1730,59.9997498244,FEMA4ImagesEEG,001,200439,
AFNE01.JPG,AFNE01.JPG,AFNE01.JPG,AFNE01.JPG,AFNE01.JPG,AFNE01.JPG,,,,,3,7,37,6,,,,,,,,,,,,,,,,,,,AMNE05.jpg,AMSA17.jpg,AMSA04.jpg,AMNE12.jpg,AMNE05.jpg,MN,1,num_8,16,num_8,1.48345767885,,,2017_May_17_1730,59.9997498244,FEMA4ImagesEEG,001,200439,
AFNE01.JPG,AFNE01.JPG,AFNE01.JPG,AFNE01.JPG,AFNE01.JPG,AFNE01.JPG,,,,,3,8,38,3,,,,,,,,,,,,,,,,,,,AMSA18.jpg,AMNE11.jpg,AMNE09.jpg,AMSA06.jpg,AMSA18.jpg,MS,2,num_8,16,num_8,1.93339611282,,,2017_May_17_1730,59.9997498244,FEMA4ImagesEEG,001,200439,
AFNE01.JPG,AFNE01.JPG,AFNE01.JPG,AFNE01.JPG,AFNE01.JPG,AFNE01.JPG,,,,,3,9,39,0,,,,,,,,,,,,,,,,,,,AMSA10.jpg,AMSA02.jpg,AMNE19.jpg,AMNE13.jpg,AMSA10.jpg,MS,2,num_8,16,num_8,1.10011094393,,,2017_May_17_1730,59.9997498244,FEMA4ImagesEEG,001,200439,
AFNE01.JPG,AFNE01.JPG,AFNE01.JPG,AFNE01.JPG,AFNE01.JPG,AFNE01.JPG,,,,,4,0,40,0,,,,,,,,,,,,,,,,,,,AMSA03.jpg,AMNE19.jpg,AMNE01.jpg,AMSA13.jpg,AMSA03.jpg,MS,2,num_8,32,num_6,2.98315955111,,,2017_May_17_1730,59.9997498244,FEMA4ImagesEEG,001,200439,
AFNE01.JPG,AFNE01.JPG,AFNE01.JPG,AFNE01.JPG,AFNE01.JPG,AFNE01.JPG,,,,,4,1,41,2,,,,,,,,,,,,,,,,,,,AMNE04.jpg,AMNE13.jpg,AMSA20.jpg,AMSA18.jpg,AMSA18.jpg,MS,2,num_4,16,num_4,1.2500902081,,,2017_May_17_1730,59.9997498244,FEMA4ImagesEEG,001,200439,
AFNE01.JPG,AFNE01.JPG,AFNE01.JPG,AFNE01.JPG,AFNE01.JPG,AFNE01.JPG,,,,,4,2,42,3,,,,,,,,,,,,,,,,,,,AMNE02.jpg,AMSA06.jpg,AMSA01.jpg,AMNE10.jpg,AMNE02.jpg,MN,1,num_8,16,num_8,1.76675152376,,,2017_May_17_1730,59.9997498244,FEMA4ImagesEEG,001,200439,
AFNE01.JPG,AFNE01.JPG,AFNE01.JPG,AFNE01.JPG,AFNE01.JPG,AFNE01.JPG,,,,,4,3,43,6,,,,,,,,,,,,,,,,,,,AMSA04.jpg,AMSA11.jpg,AMNE07.jpg,AMNE15.jpg,AMSA11.jpg,MS,2,num_6,32,num_4,2.40003771902,,,2017_May_17_1730,59.9997498244,FEMA4ImagesEEG,001,200439,
AFNE01.JPG,AFNE01.JPG,AFNE01.JPG,AFNE01.JPG,AFNE01.JPG,AFNE01.JPG,,,,,4,4,44,7,,,,,,,,,,,,,,,,,,,AMNE02.jpg,AMNE17.jpg,AMSA19.jpg,AMSA05.jpg,AMNE17.jpg,MN,1,num_6,32,num_4,1.49991131542,,,2017_May_17_1730,59.9997498244,FEMA4ImagesEEG,001,200439,
AFNE01.JPG,AFNE01.JPG,AFNE01.JPG,AFNE01.JPG,AFNE01.JPG,AFNE01.JPG,,,,,4,5,45,9,,,,,,,,,,,,,,,,,,,AMSA07.jpg,AMNE15.jpg,AMSA17.jpg,AMNE01.jpg,AMSA17.jpg,MS,2,num_2,16,num_2,3.5168697966,,,2017_May_17_1730,59.9997498244,FEMA4ImagesEEG,001,200439,
AFNE01.JPG,AFNE01.JPG,AFNE01.JPG,AFNE01.JPG,AFNE01.JPG,AFNE01.JPG,,,,,4,6,46,5,,,,,,,,,,,,,,,,,,,AMSA14.jpg,AMSA11.jpg,AMNE11.jpg,AMNE10.jpg,AMSA14.jpg,MS,2,num_8,16,num_8,1.18344205882,,,2017_May_17_1730,59.9997498244,FEMA4ImagesEEG,001,200439,
AFNE01.JPG,AFNE01.JPG,AFNE01.JPG,AFNE01.JPG,AFNE01.JPG,AFNE01.JPG,,,,,4,7,47,4,,,,,,,,,,,,,,,,,,,AMSA10.jpg,AMNE06.jpg,AMNE17.jpg,AMSA15.jpg,AMSA10.jpg,MS,2,num_8,16,num_8,1.18345649212,,,2017_May_17_1730,59.9997498244,FEMA4ImagesEEG,001,200439,
AFNE01.JPG,AFNE01.JPG,AFNE01.JPG,AFNE01.JPG,AFNE01.JPG,AFNE01.JPG,,,,,4,8,48,8,,,,,,,,,,,,,,,,,,,AMNE03.jpg,AMSA02.jpg,AMSA13.jpg,AMNE16.jpg,AMSA02.jpg,MS,2,num_6,32,num_4,1.86670177699,,,2017_May_17_1730,59.9997498244,FEMA4ImagesEEG,001,200439,
AFNE01.JPG,AFNE01.JPG,AFNE01.JPG,AFNE01.JPG,AFNE01.JPG,AFNE01.JPG,,,,,4,9,49,1,,,,,,,,,,,,,,,,,,,AMNE04.jpg,AMNE02.jpg,AMSA15.jpg,AMSA20.jpg,AMSA20.jpg,MS,2,num_4,16,num_4,1.56674902198,,,2017_May_17_1730,59.9997498244,FEMA4ImagesEEG,001,200439,
AFNE01.JPG,AFNE01.JPG,AFNE01.JPG,AFNE01.JPG,AFNE01.JPG,AFNE01.JPG,,,,,5,0,50,3,,,,,,,,,,,,,,,,,,,AMNE05.jpg,AMSA16.jpg,AMSA03.jpg,AMNE06.jpg,AMNE06.jpg,MN,1,num_4,16,num_4,1.03343777694,,,2017_May_17_1730,59.9997498244,FEMA4ImagesEEG,001,200439,
AFNE01.JPG,AFNE01.JPG,AFNE01.JPG,AFNE01.JPG,AFNE01.JPG,AFNE01.JPG,,,,,5,1,51,7,,,,,,,,,,,,,,,,,,,AMNE07.jpg,AMSA18.jpg,AMSA07.jpg,AMNE11.jpg,AMNE07.jpg,MN,1,num_8,16,num_8,1.23344508981,,,2017_May_17_1730,59.9997498244,FEMA4ImagesEEG,001,200439,
AFNE01.JPG,AFNE01.JPG,AFNE01.JPG,AFNE01.JPG,AFNE01.JPG,AFNE01.JPG,,,,,5,2,52,8,,,,,,,,,,,,,,,,,,,AMNE05.jpg,AMSA10.jpg,AMSA09.jpg,AMNE10.jpg,AMSA09.jpg,MS,2,num_2,16,num_2,1.06680402888,,,2017_May_17_1730,59.9997498244,FEMA4ImagesEEG,001,200439,
AFNE01.JPG,AFNE01.JPG,AFNE01.JPG,AFNE01.JPG,AFNE01.JPG,AFNE01.JPG,,,,,5,3,53,5,,,,,,,,,,,,,,,,,,,AMSA16.jpg,AMNE07.jpg,AMNE15.jpg,AMSA19.jpg,AMNE15.jpg,MN,1,num_2,16,num_2,1.35010589228,,,2017_May_17_1730,59.9997498244,FEMA4ImagesEEG,001,200439,
AFNE01.JPG,AFNE01.JPG,AFNE01.JPG,AFNE01.JPG,AFNE01.JPG,AFNE01.JPG,,,,,5,4,54,2,,,,,,,,,,,,,,,,,,,AMNE03.jpg,AMNE01.jpg,AMSA18.jpg,AMSA11.jpg,AMNE01.jpg,MN,1,num_6,16,num_6,1.35005489463,,,2017_May_17_1730,59.9997498244,FEMA4ImagesEEG,001,200439,
AFNE01.JPG,AFNE01.JPG,AFNE01.JPG,AFNE01.JPG,AFNE01.JPG,AFNE01.JPG,,,,,5,5,55,9,,,,,,,,,,,,,,,,,,,AMNE19.jpg,AMSA02.jpg,AMNE04.jpg,AMSA14.jpg,AMSA14.jpg,MS,2,num_4,16,num_4,1.05012330846,,,2017_May_17_1730,59.9997498244,FEMA4ImagesEEG,001,200439,
AFNE01.JPG,AFNE01.JPG,AFNE01.JPG,AFNE01.JPG,AFNE01.JPG,AFNE01.JPG,,,,,5,6,56,4,,,,,,,,,,,,,,,,,,,AMSA04.jpg,AMSA15.jpg,AMNE03.jpg,AMNE09.jpg,AMNE09.jpg,MN,1,num_4,32,num_6,1.58338515956,,,2017_May_17_1730,59.9997498244,FEMA4ImagesEEG,001,200439,
AFNE01.JPG,AFNE01.JPG,AFNE01.JPG,AFNE01.JPG,AFNE01.JPG,AFNE01.JPG,,,,,5,7,57,6,,,,,,,,,,,,,,,,,,,AMNE19.jpg,AMSA10.jpg,AMNE08.jpg,AMSA03.jpg,AMSA10.jpg,MS,2,num_6,16,num_6,1.66674514103,,,2017_May_17_1730,59.9997498244,FEMA4ImagesEEG,001,200439,
AFNE01.JPG,AFNE01.JPG,AFNE01.JPG,AFNE01.JPG,AFNE01.JPG,AFNE01.JPG,,,,,5,8,58,1,,,,,,,,,,,,,,,,,,,AMSA15.jpg,AMSA02.jpg,AMNE07.jpg,AMNE04.jpg,AMSA15.jpg,MS,2,num_8,16,num_8,1.61670618717,,,2017_May_17_1730,59.9997498244,FEMA4ImagesEEG,001,200439,
AFNE01.JPG,AFNE01.JPG,AFNE01.JPG,AFNE01.JPG,AFNE01.JPG,AFNE01.JPG,,,,,5,9,59,0,,,,,,,,,,,,,,,,,,,AMNE03.jpg,AMNE12.jpg,AMSA15.jpg,AMSA18.jpg,AMSA15.jpg,MS,2,num_2,32,num_8,2.73334325489,,,2017_May_17_1730,59.9997498244,FEMA4ImagesEEG,001,200439,
,,,,,,,,,,,,,,,,,,,,,,,,,,,,,,,,,,,,,,,,,,,space,11.8825472907,2017_May_17_1730,59.9997498244,FEMA4ImagesEEG,001,200439,
AFNE01.JPG,AFNE01.JPG,AFNE01.JPG,AFNE01.JPG,AFNE01.JPG,AFNE01.JPG,,,,,,,,,0,0,0,6,,,,,,,,,,,,,,,AFNE07.jpg,AFSA14.jpg,AFNE09.jpg,AFSA08.jpg,AFNE09.jpg,FN,3,num_2,32,num_4,1.04985933951,,,2017_May_17_1730,59.9997498244,FEMA4ImagesEEG,001,200439,
AFNE01.JPG,AFNE01.JPG,AFNE01.JPG,AFNE01.JPG,AFNE01.JPG,AFNE01.JPG,,,,,,,,,0,1,1,5,,,,,,,,,,,,,,,AFNE11.jpg,AFSA09.jpg,AFNE04.jpg,AFSA10.jpg,AFSA09.jpg,FS,4,num_6,32,num_2,1.16661732618,,,2017_May_17_1730,59.9997498244,FEMA4ImagesEEG,001,200439,
AFNE01.JPG,AFNE01.JPG,AFNE01.JPG,AFNE01.JPG,AFNE01.JPG,AFNE01.JPG,,,,,,,,,0,2,2,0,,,,,,,,,,,,,,,AFNE06.jpg,AFNE07.jpg,AFSA14.jpg,AFSA06.jpg,AFNE07.jpg,FN,3,num_6,16,num_6,1.13345346112,,,2017_May_17_1730,59.9997498244,FEMA4ImagesEEG,001,200439,
AFNE01.JPG,AFNE01.JPG,AFNE01.JPG,AFNE01.JPG,AFNE01.JPG,AFNE01.JPG,,,,,,,,,0,3,3,2,,,,,,,,,,,,,,,AFNE04.jpg,AFNE12.jpg,AFSA11.jpg,AFSA07.jpg,AFNE12.jpg,FN,3,num_6,32,num_4,2.36691651236,,,2017_May_17_1730,59.9997498244,FEMA4ImagesEEG,001,200439,
AFNE01.JPG,AFNE01.JPG,AFNE01.JPG,AFNE01.JPG,AFNE01.JPG,AFNE01.JPG,,,,,,,,,0,4,4,8,,,,,,,,,,,,,,,AFSA14.jpg,AFNE18.jpg,AFNE02.jpg,AFSA19.jpg,AFNE18.jpg,FN,3,num_6,16,num_6,1.25008571774,,,2017_May_17_1730,59.9997498244,FEMA4ImagesEEG,001,200439,
AFNE01.JPG,AFNE01.JPG,AFNE01.JPG,AFNE01.JPG,AFNE01.JPG,AFNE01.JPG,,,,,,,,,0,5,5,9,,,,,,,,,,,,,,,AFNE07.jpg,AFSA04.jpg,AFSA03.jpg,AFNE04.jpg,AFSA03.jpg,FS,4,num_2,16,num_2,1.23342809059,,,2017_May_17_1730,59.9997498244,FEMA4ImagesEEG,001,200439,
AFNE01.JPG,AFNE01.JPG,AFNE01.JPG,AFNE01.JPG,AFNE01.JPG,AFNE01.JPG,,,,,,,,,0,6,6,4,,,,,,,,,,,,,,,AFSA12.jpg,AFSA01.jpg,AFNE04.jpg,AFNE11.jpg,AFSA12.jpg,FS,4,num_8,16,num_8,1.13342780193,,,2017_May_17_1730,59.9997498244,FEMA4ImagesEEG,001,200439,
AFNE01.JPG,AFNE01.JPG,AFNE01.JPG,AFNE01.JPG,AFNE01.JPG,AFNE01.JPG,,,,,,,,,0,7,7,3,,,,,,,,,,,,,,,AFSA01.jpg,AFSA04.jpg,AFNE15.jpg,AFNE14.jpg,AFSA01.jpg,FS,4,num_8,32,num_4,0.966777439538,,,2017_May_17_1730,59.9997498244,FEMA4ImagesEEG,001,200439,
AFNE01.JPG,AFNE01.JPG,AFNE01.JPG,AFNE01.JPG,AFNE01.JPG,AFNE01.JPG,,,,,,,,,0,8,8,7,,,,,,,,,,,,,,,AFSA12.jpg,AFSA17.jpg,AFNE05.jpg,AFNE02.jpg,AFSA17.jpg,FS,4,num_6,32,num_4,1.26676194781,,,2017_May_17_1730,59.9997498244,FEMA4ImagesEEG,001,200439,
AFNE01.JPG,AFNE01.JPG,AFNE01.JPG,AFNE01.JPG,AFNE01.JPG,AFNE01.JPG,,,,,,,,,0,9,9,1,,,,,,,,,,,,,,,AFNE18.jpg,AFSA06.jpg,AFNE16.jpg,AFSA02.jpg,AFSA06.jpg,FS,4,num_6,32,num_2,1.06675110679,,,2017_May_17_1730,59.9997498244,FEMA4ImagesEEG,001,200439,
AFNE01.JPG,AFNE01.JPG,AFNE01.JPG,AFNE01.JPG,AFNE01.JPG,AFNE01.JPG,,,,,,,,,1,0,10,0,,,,,,,,,,,,,,,AFSA04.jpg,AFNE03.jpg,AFNE16.jpg,AFSA16.jpg,AFNE16.jpg,FN,3,num_2,32,num_4,1.61670233829,,,2017_May_17_1730,59.9997498244,FEMA4ImagesEEG,001,200439,
AFNE01.JPG,AFNE01.JPG,AFNE01.JPG,AFNE01.JPG,AFNE01.JPG,AFNE01.JPG,,,,,,,,,1,1,11,1,,,,,,,,,,,,,,,AFSA06.jpg,AFNE01.jpg,AFSA08.jpg,AFNE14.jpg,AFSA08.jpg,FS,4,num_2,16,num_2,0.983413897855,,,2017_May_17_1730,59.9997498244,FEMA4ImagesEEG,001,200439,
AFNE01.JPG,AFNE01.JPG,AFNE01.JPG,AFNE01.JPG,AFNE01.JPG,AFNE01.JPG,,,,,,,,,1,2,12,7,,,,,,,,,,,,,,,AFNE19.jpg,AFNE09.jpg,AFSA17.jpg,AFSA05.jpg,AFSA17.jpg,FS,4,num_2,32,num_4,1.40009641441,,,2017_May_17_1730,59.9997498244,FEMA4ImagesEEG,001,200439,
AFNE01.JPG,AFNE01.JPG,AFNE01.JPG,AFNE01.JPG,AFNE01.JPG,AFNE01.JPG,,,,,,,,,1,3,13,6,,,,,,,,,,,,,,,AFNE13.jpg,AFNE10.jpg,AFSA03.jpg,AFSA15.jpg,AFSA03.jpg,FS,4,num_2,16,num_2,1.56668230808,,,2017_May_17_1730,59.9997498244,FEMA4ImagesEEG,001,200439,
AFNE01.JPG,AFNE01.JPG,AFNE01.JPG,AFNE01.JPG,AFNE01.JPG,AFNE01.JPG,,,,,,,,,1,4,14,4,,,,,,,,,,,,,,,AFNE20.jpg,AFNE15.jpg,AFSA16.jpg,AFSA17.jpg,AFNE15.jpg,FN,3,num_6,16,num_6,0.983475479916,,,2017_May_17_1730,59.9997498244,FEMA4ImagesEEG,001,200439,
AFNE01.JPG,AFNE01.JPG,AFNE01.JPG,AFNE01.JPG,AFNE01.JPG,AFNE01.JPG,,,,,,,,,1,5,15,9,,,,,,,,,,,,,,,AFSA03.jpg,AFNE15.jpg,AFNE17.jpg,AFSA01.jpg,AFNE15.jpg,FN,3,num_6,16,num_6,0.800125473452,,,2017_May_17_1730,59.9997498244,FEMA4ImagesEEG,001,200439,
AFNE01.JPG,AFNE01.JPG,AFNE01.JPG,AFNE01.JPG,AFNE01.JPG,AFNE01.JPG,,,,,,,,,1,6,16,2,,,,,,,,,,,,,,,AFNE10.jpg,AFSA07.jpg,AFSA09.jpg,AFNE19.jpg,AFNE10.jpg,FN,3,num_8,16,num_8,1.23345535349,,,2017_May_17_1730,59.9997498244,FEMA4ImagesEEG,001,200439,
AFNE01.JPG,AFNE01.JPG,AFNE01.JPG,AFNE01.JPG,AFNE01.JPG,AFNE01.JPG,,,,,,,,,1,7,17,3,,,,,,,,,,,,,,,AFSA17.jpg,AFNE07.jpg,AFSA04.jpg,AFNE01.jpg,AFNE01.jpg,FN,3,num_4,16,num_4,1.0334326451,,,2017_May_17_1730,59.9997498244,FEMA4ImagesEEG,001,200439,
AFNE01.JPG,AFNE01.JPG,AFNE01.JPG,AFNE01.JPG,AFNE01.JPG,AFNE01.JPG,,,,,,,,,1,8,18,5,,,,,,,,,,,,,,,AFNE17.jpg,AFSA17.jpg,AFNE13.jpg,AFSA06.jpg,AFSA06.jpg,FS,4,num_4,16,num_4,1.13341785899,,,2017_May_17_1730,59.9997498244,FEMA4ImagesEEG,001,200439,
AFNE01.JPG,AFNE01.JPG,AFNE01.JPG,AFNE01.JPG,AFNE01.JPG,AFNE01.JPG,,,,,,,,,1,9,19,8,,,,,,,,,,,,,,,AFSA10.jpg,AFNE05.jpg,AFNE15.jpg,AFSA11.jpg,AFSA11.jpg,FS,4,num_4,16,num_4,1.23357851761,,,2017_May_17_1730,59.9997498244,FEMA4ImagesEEG,001,200439,
AFNE01.JPG,AFNE01.JPG,AFNE01.JPG,AFNE01.JPG,AFNE01.JPG,AFNE01.JPG,,,,,,,,,2,0,20,8,,,,,,,,,,,,,,,AFSA05.jpg,AFNE10.jpg,AFSA11.jpg,AFNE13.jpg,AFNE10.jpg,FN,3,num_6,16,num_6,1.78334628588,,,2017_May_17_1730,59.9997498244,FEMA4ImagesEEG,001,200439,
AFNE01.JPG,AFNE01.JPG,AFNE01.JPG,AFNE01.JPG,AFNE01.JPG,AFNE01.JPG,,,,,,,,,2,1,21,0,,,,,,,,,,,,,,,AFSA19.jpg,AFSA12.jpg,AFNE08.jpg,AFNE05.jpg,AFNE05.jpg,FN,3,num_4,16,num_4,1.31660204292,,,2017_May_17_1730,59.9997498244,FEMA4ImagesEEG,001,200439,
AFNE01.JPG,AFNE01.JPG,AFNE01.JPG,AFNE01.JPG,AFNE01.JPG,AFNE01.JPG,,,,,,,,,2,2,22,1,,,,,,,,,,,,,,,AFNE02.jpg,AFSA13.jpg,AFSA09.jpg,AFNE03.jpg,AFNE02.jpg,FN,3,num_8,32,num_6,1.51682168561,,,2017_May_17_1730,59.9997498244,FEMA4ImagesEEG,001,200439,
AFNE01.JPG,AFNE01.JPG,AFNE01.JPG,AFNE01.JPG,AFNE01.JPG,AFNE01.JPG,,,,,,,,,2,3,23,7,,,,,,,,,,,,,,,AFSA08.jpg,AFNE10.jpg,AFSA16.jpg,AFNE13.jpg,AFNE10.jpg,FN,3,num_6,16,num_6,1.16674016956,,,2017_May_17_1730,59.9997498244,FEMA4ImagesEEG,001,200439,
AFNE01.JPG,AFNE01.JPG,AFNE01.JPG,AFNE01.JPG,AFNE01.JPG,AFNE01.JPG,,,,,,,,,2,4,24,9,,,,,,,,,,,,,,,AFSA15.jpg,AFNE04.jpg,AFSA16.jpg,AFNE03.jpg,AFNE04.jpg,FN,3,num_6,16,num_6,0.8834482491,,,2017_May_17_1730,59.9997498244,FEMA4ImagesEEG,001,200439,
AFNE01.JPG,AFNE01.JPG,AFNE01.JPG,AFNE01.JPG,AFNE01.JPG,AFNE01.JPG,,,,,,,,,2,5,25,3,,,,,,,,,,,,,,,AFSA10.jpg,AFSA17.jpg,AFNE06.jpg,AFNE18.jpg,AFNE18.jpg,FN,3,num_4,32,num_2,1.78342711234,,,2017_May_17_1730,59.9997498244,FEMA4ImagesEEG,001,200439,
AFNE01.JPG,AFNE01.JPG,AFNE01.JPG,AFNE01.JPG,AFNE01.JPG,AFNE01.JPG,,,,,,,,,2,6,26,6,,,,,,,,,,,,,,,AFSA01.jpg,AFNE03.jpg,AFSA16.jpg,AFNE17.jpg,AFNE03.jpg,FN,3,num_6,32,num_2,1.1834427003,,,2017_May_17_1730,59.9997498244,FEMA4ImagesEEG,001,200439,
AFNE01.JPG,AFNE01.JPG,AFNE01.JPG,AFNE01.JPG,AFNE01.JPG,AFNE01.JPG,,,,,,,,,2,7,27,2,,,,,,,,,,,,,,,AFSA05.jpg,AFNE18.jpg,AFSA08.jpg,AFNE02.jpg,AFSA05.jpg,FS,4,num_8,16,num_8,0.983399464556,,,2017_May_17_1730,59.9997498244,FEMA4ImagesEEG,001,200439,
AFNE01.JPG,AFNE01.JPG,AFNE01.JPG,AFNE01.JPG,AFNE01.JPG,AFNE01.JPG,,,,,,,,,2,8,28,5,,,,,,,,,,,,,,,AFNE18.jpg,AFNE13.jpg,AFSA02.jpg,AFSA15.jpg,AFSA02.jpg,FS,4,num_2,16,num_2,1.20008974303,,,2017_May_17_1730,59.9997498244,FEMA4ImagesEEG,001,200439,
AFNE01.JPG,AFNE01.JPG,AFNE01.JPG,AFNE01.JPG,AFNE01.JPG,AFNE01.JPG,,,,,,,,,2,9,29,4,,,,,,,,,,,,,,,AFNE01.jpg,AFNE19.jpg,AFSA15.jpg,AFSA19.jpg,AFNE19.jpg,FN,3,num_6,16,num_6,1.41672966533,,,2017_May_17_1730,59.9997498244,FEMA4ImagesEEG,001,200439,
AFNE01.JPG,AFNE01.JPG,AFNE01.JPG,AFNE01.JPG,AFNE01.JPG,AFNE01.JPG,,,,,,,,,3,0,30,7,,,,,,,,,,,,,,,AFNE06.jpg,AFNE15.jpg,AFSA19.jpg,AFSA08.jpg,AFSA19.jpg,FS,4,num_2,16,num_2,1.05009347965,,,2017_May_17_1730,59.9997498244,FEMA4ImagesEEG,001,200439,
AFNE01.JPG,AFNE01.JPG,AFNE01.JPG,AFNE01.JPG,AFNE01.JPG,AFNE01.JPG,,,,,,,,,3,1,31,8,,,,,,,,,,,,,,,AFSA10.jpg,AFSA06.jpg,AFNE08.jpg,AFNE04.jpg,AFSA10.jpg,FS,4,num_8,16,num_8,1.21683749809,,,2017_May_17_1730,59.9997498244,FEMA4ImagesEEG,001,200439,
AFNE01.JPG,AFNE01.JPG,AFNE01.JPG,AFNE01.JPG,AFNE01.JPG,AFNE01.JPG,,,,,,,,,3,2,32,6,,,,,,,,,,,,,,,AFSA11.jpg,AFNE14.jpg,AFNE07.jpg,AFSA06.jpg,AFSA11.jpg,FS,4,num_8,16,num_8,1.50006142169,,,2017_May_17_1730,59.9997498244,FEMA4ImagesEEG,001,200439,
AFNE01.JPG,AFNE01.JPG,AFNE01.JPG,AFNE01.JPG,AFNE01.JPG,AFNE01.JPG,,,,,,,,,3,3,33,2,,,,,,,,,,,,,,,AFNE12.jpg,AFNE20.jpg,AFSA11.jpg,AFSA16.jpg,AFSA16.jpg,FS,4,num_4,32,num_2,1.30010286129,,,2017_May_17_1730,59.9997498244,FEMA4ImagesEEG,001,200439,
AFNE01.JPG,AFNE01.JPG,AFNE01.JPG,AFNE01.JPG,AFNE01.JPG,AFNE01.JPG,,,,,,,,,3,4,34,1,,,,,,,,,,,,,,,AFSA01.jpg,AFNE06.jpg,AFNE13.jpg,AFSA17.jpg,AFSA17.jpg,FS,4,num_4,32,num_2,1.31676305435,,,2017_May_17_1730,59.9997498244,FEMA4ImagesEEG,001,200439,
AFNE01.JPG,AFNE01.JPG,AFNE01.JPG,AFNE01.JPG,AFNE01.JPG,AFNE01.JPG,,,,,,,,,3,5,35,4,,,,,,,,,,,,,,,AFSA17.jpg,AFSA06.jpg,AFNE06.jpg,AFNE17.jpg,AFNE17.jpg,FN,3,num_4,16,num_4,0.86675758574,,,2017_May_17_1730,59.9997498244,FEMA4ImagesEEG,001,200439,
AFNE01.JPG,AFNE01.JPG,AFNE01.JPG,AFNE01.JPG,AFNE01.JPG,AFNE01.JPG,,,,,,,,,3,6,36,3,,,,,,,,,,,,,,,AFNE09.jpg,AFSA06.jpg,AFSA08.jpg,AFNE10.jpg,AFSA06.jpg,FS,4,num_6,32,num_2,1.81671382078,,,2017_May_17_1730,59.9997498244,FEMA4ImagesEEG,001,200439,
AFNE01.JPG,AFNE01.JPG,AFNE01.JPG,AFNE01.JPG,AFNE01.JPG,AFNE01.JPG,,,,,,,,,3,7,37,9,,,,,,,,,,,,,,,AFSA04.jpg,AFNE11.jpg,AFNE09.jpg,AFSA12.jpg,AFNE09.jpg,FN,3,num_2,32,num_4,1.16676133839,,,2017_May_17_1730,59.9997498244,FEMA4ImagesEEG,001,200439,
AFNE01.JPG,AFNE01.JPG,AFNE01.JPG,AFNE01.JPG,AFNE01.JPG,AFNE01.JPG,,,,,,,,,3,8,38,0,,,,,,,,,,,,,,,AFSA13.jpg,AFNE01.jpg,AFSA09.jpg,AFNE11.jpg,AFSA09.jpg,FS,4,num_2,16,num_2,1.23343129799,,,2017_May_17_1730,59.9997498244,FEMA4ImagesEEG,001,200439,
AFNE01.JPG,AFNE01.JPG,AFNE01.JPG,AFNE01.JPG,AFNE01.JPG,AFNE01.JPG,,,,,,,,,3,9,39,5,,,,,,,,,,,,,,,AFNE20.jpg,AFNE06.jpg,AFSA20.jpg,AFSA18.jpg,AFSA20.jpg,FS,4,num_2,32,num_8,3.08332983192,,,2017_May_17_1730,59.9997498244,FEMA4ImagesEEG,001,200439,
AFNE01.JPG,AFNE01.JPG,AFNE01.JPG,AFNE01.JPG,AFNE01.JPG,AFNE01.JPG,,,,,,,,,4,0,40,9,,,,,,,,,,,,,,,AFSA01.jpg,AFNE13.jpg,AFNE20.jpg,AFSA05.jpg,AFSA05.jpg,FS,4,num_4,16,num_4,1.08344497755,,,2017_May_17_1730,59.9997498244,FEMA4ImagesEEG,001,200439,
AFNE01.JPG,AFNE01.JPG,AFNE01.JPG,AFNE01.JPG,AFNE01.JPG,AFNE01.JPG,,,,,,,,,4,1,41,1,,,,,,,,,,,,,,,AFSA20.jpg,AFNE11.jpg,AFNE10.jpg,AFSA04.jpg,AFSA20.jpg,FS,4,num_8,32,num_6,2.04973874131,,,2017_May_17_1730,59.9997498244,FEMA4ImagesEEG,001,200439,
AFNE01.JPG,AFNE01.JPG,AFNE01.JPG,AFNE01.JPG,AFNE01.JPG,AFNE01.JPG,,,,,,,,,4,2,42,3,,,,,,,,,,,,,,,AFNE03.jpg,AFSA12.jpg,AFSA06.jpg,AFNE13.jpg,AFNE03.jpg,FN,3,num_8,32,num_4,2.30000054526,,,2017_May_17_1730,59.9997498244,FEMA4ImagesEEG,001,200439,
AFNE01.JPG,AFNE01.JPG,AFNE01.JPG,AFNE01.JPG,AFNE01.JPG,AFNE01.JPG,,,,,,,,,4,3,43,7,,,,,,,,,,,,,,,AFSA03.jpg,AFSA04.jpg,AFNE02.jpg,AFNE15.jpg,AFSA03.jpg,FS,4,num_8,16,num_8,1.28339551945,,,2017_May_17_1730,59.9997498244,FEMA4ImagesEEG,001,200439,
AFNE01.JPG,AFNE01.JPG,AFNE01.JPG,AFNE01.JPG,AFNE01.JPG,AFNE01.JPG,,,,,,,,,4,4,44,6,,,,,,,,,,,,,,,AFSA18.jpg,AFNE01.jpg,AFNE16.jpg,AFSA03.jpg,AFSA03.jpg,FS,4,num_4,16,num_4,0.950336311831,,,2017_May_17_1730,59.9997498244,FEMA4ImagesEEG,001,200439,
AFNE01.JPG,AFNE01.JPG,AFNE01.JPG,AFNE01.JPG,AFNE01.JPG,AFNE01.JPG,,,,,,,,,4,5,45,2,,,,,,,,,,,,,,,AFSA01.jpg,AFSA15.jpg,AFNE17.jpg,AFNE16.jpg,AFSA01.jpg,FS,4,num_8,32,num_2,1.53337539303,,,2017_May_17_1730,59.9997498244,FEMA4ImagesEEG,001,200439,
AFNE01.JPG,AFNE01.JPG,AFNE01.JPG,AFNE01.JPG,AFNE01.JPG,AFNE01.JPG,,,,,,,,,4,6,46,5,,,,,,,,,,,,,,,AFNE09.jpg,AFSA04.jpg,AFNE13.jpg,AFSA16.jpg,AFNE09.jpg,FN,3,num_8,32,num_4,1.08340488506,,,2017_May_17_1730,59.9997498244,FEMA4ImagesEEG,001,200439,
AFNE01.JPG,AFNE01.JPG,AFNE01.JPG,AFNE01.JPG,AFNE01.JPG,AFNE01.JPG,,,,,,,,,4,7,47,0,,,,,,,,,,,,,,,AFNE15.jpg,AFSA19.jpg,AFSA09.jpg,AFNE06.jpg,AFNE15.jpg,FN,3,num_8,16,num_8,2.1000833603,,,2017_May_17_1730,59.9997498244,FEMA4ImagesEEG,001,200439,
AFNE01.JPG,AFNE01.JPG,AFNE01.JPG,AFNE01.JPG,AFNE01.JPG,AFNE01.JPG,,,,,,,,,4,8,48,4,,,,,,,,,,,,,,,AFSA13.jpg,AFNE09.jpg,AFSA04.jpg,AFNE19.jpg,AFNE19.jpg,FN,3,num_4,16,num_4,0.766736769721,,,2017_May_17_1730,59.9997498244,FEMA4ImagesEEG,001,200439,
AFNE01.JPG,AFNE01.JPG,AFNE01.JPG,AFNE01.JPG,AFNE01.JPG,AFNE01.JPG,,,,,,,,,4,9,49,8,,,,,,,,,,,,,,,AFSA06.jpg,AFSA19.jpg,AFNE14.jpg,AFNE01.jpg,AFNE14.jpg,FN,3,num_2,16,num_2,0.950098964298,,,2017_May_17_1730,59.9997498244,FEMA4ImagesEEG,001,200439,
AFNE01.JPG,AFNE01.JPG,AFNE01.JPG,AFNE01.JPG,AFNE01.JPG,AFNE01.JPG,,,,,,,,,5,0,50,5,,,,,,,,,,,,,,,AFNE20.jpg,AFSA05.jpg,AFSA18.jpg,AFNE10.jpg,AFNE10.jpg,FN,3,num_4,16,num_4,1.00012637152,,,2017_May_17_1730,59.9997498244,FEMA4ImagesEEG,001,200439,
AFNE01.JPG,AFNE01.JPG,AFNE01.JPG,AFNE01.JPG,AFNE01.JPG,AFNE01.JPG,,,,,,,,,5,1,51,9,,,,,,,,,,,,,,,AFNE02.jpg,AFSA18.jpg,AFNE12.jpg,AFSA14.jpg,AFNE12.jpg,FN,3,num_2,16,num_2,0.89997661806,,,2017_May_17_1730,59.9997498244,FEMA4ImagesEEG,001,200439,
AFNE01.JPG,AFNE01.JPG,AFNE01.JPG,AFNE01.JPG,AFNE01.JPG,AFNE01.JPG,,,,,,,,,5,2,52,7,,,,,,,,,,,,,,,AFSA08.jpg,AFNE10.jpg,AFSA18.jpg,AFNE03.jpg,AFNE10.jpg,FN,3,num_6,16,num_6,1.10010068026,,,2017_May_17_1730,59.9997498244,FEMA4ImagesEEG,001,200439,
AFNE01.JPG,AFNE01.JPG,AFNE01.JPG,AFNE01.JPG,AFNE01.JPG,AFNE01.JPG,,,,,,,,,5,3,53,2,,,,,,,,,,,,,,,AFSA05.jpg,AFNE10.jpg,AFNE11.jpg,AFSA10.jpg,AFSA10.jpg,FS,4,num_4,16,num_4,1.03341885328,,,2017_May_17_1730,59.9997498244,FEMA4ImagesEEG,001,200439,
AFNE01.JPG,AFNE01.JPG,AFNE01.JPG,AFNE01.JPG,AFNE01.JPG,AFNE01.JPG,,,,,,,,,5,4,54,1,,,,,,,,,,,,,,,AFNE02.jpg,AFNE14.jpg,AFSA13.jpg,AFSA20.jpg,AFSA13.jpg,FS,4,num_2,16,num_2,1.26702880341,,,2017_May_17_1730,59.9997498244,FEMA4ImagesEEG,001,200439,
AFNE01.JPG,AFNE01.JPG,AFNE01.JPG,AFNE01.JPG,AFNE01.JPG,AFNE01.JPG,,,,,,,,,5,5,55,4,,,,,,,,,,,,,,,AFNE19.jpg,AFNE04.jpg,AFSA01.jpg,AFSA07.jpg,AFSA01.jpg,FS,4,num_2,16,num_2,1.10012698093,,,2017_May_17_1730,59.9997498244,FEMA4ImagesEEG,001,200439,
AFNE01.JPG,AFNE01.JPG,AFNE01.JPG,AFNE01.JPG,AFNE01.JPG,AFNE01.JPG,,,,,,,,,5,6,56,3,,,,,,,,,,,,,,,AFNE07.jpg,AFSA05.jpg,AFNE09.jpg,AFSA17.jpg,AFSA17.jpg,FS,4,num_4,16,num_4,1.00010616491,,,2017_May_17_1730,59.9997498244,FEMA4ImagesEEG,001,200439,
AFNE01.JPG,AFNE01.JPG,AFNE01.JPG,AFNE01.JPG,AFNE01.JPG,AFNE01.JPG,,,,,,,,,5,7,57,6,,,,,,,,,,,,,,,AFSA02.jpg,AFSA01.jpg,AFNE06.jpg,AFNE16.jpg,AFSA02.jpg,FS,4,num_8,16,num_8,1.11674419485,,,2017_May_17_1730,59.9997498244,FEMA4ImagesEEG,001,200439,
AFNE01.JPG,AFNE01.JPG,AFNE01.JPG,AFNE01.JPG,AFNE01.JPG,AFNE01.JPG,,,,,,,,,5,8,58,0,,,,,,,,,,,,,,,AFNE13.jpg,AFSA14.jpg,AFSA15.jpg,AFNE03.jpg,AFNE13.jpg,FN,3,num_8,16,num_8,1.71658651911,,,2017_May_17_1730,59.9997498244,FEMA4ImagesEEG,001,200439,
AFNE01.JPG,AFNE01.JPG,AFNE01.JPG,AFNE01.JPG,AFNE01.JPG,AFNE01.JPG,,,,,,,,,5,9,59,8,,,,,,,,,,,,,,,AFNE14.jpg,AFSA20.jpg,AFNE09.jpg,AFSA14.jpg,AFNE09.jpg,FN,3,num_2,32,num_8,3.13329886449,,,2017_May_17_1730,59.9997498244,FEMA4ImagesEEG,001,200439,
,,,,,,,,,,,,,,,,,,,,,,,,,,,,,,,,,,,,,,,,,,,space,23.3813690526,2017_May_17_1730,59.9997498244,FEMA4ImagesEEG,001,200439,
AFNE01.JPG,AFNE01.JPG,AFNE01.JPG,AFNE01.JPG,AFNE01.JPG,AFNE01.JPG,,,,,,,,,,,,,0,0,0,0,,,,,,,,,,,AMNE14.jpg,AMNE12.jpg,AMSA15.jpg,AMSA01.jpg,AMNE14.jpg,MN,1,num_8,16,num_8,1.66653794305,,,2017_May_17_1730,59.9997498244,FEMA4ImagesEEG,001,200439,
AFNE01.JPG,AFNE01.JPG,AFNE01.JPG,AFNE01.JPG,AFNE01.JPG,AFNE01.JPG,,,,,,,,,,,,,0,1,1,5,,,,,,,,,,,AMNE13.jpg,AMSA14.jpg,AMNE19.jpg,AMSA17.jpg,AMNE19.jpg,MN,1,num_2,16,num_2,1.66658990292,,,2017_May_17_1730,59.9997498244,FEMA4ImagesEEG,001,200439,
AFNE01.JPG,AFNE01.JPG,AFNE01.JPG,AFNE01.JPG,AFNE01.JPG,AFNE01.JPG,,,,,,,,,,,,,0,2,2,7,,,,,,,,,,,AMSA05.jpg,AMNE15.jpg,AMSA09.jpg,AMNE09.jpg,AMNE09.jpg,MN,1,num_4,16,num_4,0.900108442165,,,2017_May_17_1730,59.9997498244,FEMA4ImagesEEG,001,200439,
AFNE01.JPG,AFNE01.JPG,AFNE01.JPG,AFNE01.JPG,AFNE01.JPG,AFNE01.JPG,,,,,,,,,,,,,0,3,3,4,,,,,,,,,,,AMSA07.jpg,AMSA02.jpg,AMNE20.jpg,AMNE14.jpg,AMNE20.jpg,MN,1,num_2,16,num_2,1.05011015812,,,2017_May_17_1730,59.9997498244,FEMA4ImagesEEG,001,200439,
AFNE01.JPG,AFNE01.JPG,AFNE01.JPG,AFNE01.JPG,AFNE01.JPG,AFNE01.JPG,,,,,,,,,,,,,0,4,4,6,,,,,,,,,,,AMSA17.jpg,AMNE08.jpg,AMNE17.jpg,AMSA11.jpg,AMNE08.jpg,MN,1,num_6,32,num_4,1.21666910964,,,2017_May_17_1730,59.9997498244,FEMA4ImagesEEG,001,200439,
AFNE01.JPG,AFNE01.JPG,AFNE01.JPG,AFNE01.JPG,AFNE01.JPG,AFNE01.JPG,,,,,,,,,,,,,0,5,5,1,,,,,,,,,,,AMNE18.jpg,AMSA04.jpg,AMSA03.jpg,AMNE05.jpg,AMNE05.jpg,MN,1,num_4,16,num_4,0.966818173507,,,2017_May_17_1730,59.9997498244,FEMA4ImagesEEG,001,200439,
AFNE01.JPG,AFNE01.JPG,AFNE01.JPG,AFNE01.JPG,AFNE01.JPG,AFNE01.JPG,,,,,,,,,,,,,0,6,6,3,,,,,,,,,,,AMSA06.jpg,AMNE03.jpg,AMSA15.jpg,AMNE01.jpg,AMSA06.jpg,MS,2,num_8,32,num_6,1.33345724585,,,2017_May_17_1730,59.9997498244,FEMA4ImagesEEG,001,200439,
AFNE01.JPG,AFNE01.JPG,AFNE01.JPG,AFNE01.JPG,AFNE01.JPG,AFNE01.JPG,,,,,,,,,,,,,0,7,7,8,,,,,,,,,,,AMNE06.jpg,AMSA05.jpg,AMNE02.jpg,AMSA01.jpg,AMNE06.jpg,MN,1,num_8,32,num_6,1.50003512102,,,2017_May_17_1730,59.9997498244,FEMA4ImagesEEG,001,200439,
AFNE01.JPG,AFNE01.JPG,AFNE01.JPG,AFNE01.JPG,AFNE01.JPG,AFNE01.JPG,,,,,,,,,,,,,0,8,8,2,,,,,,,,,,,AMNE02.jpg,AMSA09.jpg,AMSA19.jpg,AMNE19.jpg,AMSA19.jpg,MS,2,num_2,32,num_4,1.51671167182,,,2017_May_17_1730,59.9997498244,FEMA4ImagesEEG,001,200439,
AFNE01.JPG,AFNE01.JPG,AFNE01.JPG,AFNE01.JPG,AFNE01.JPG,AFNE01.JPG,,,,,,,,,,,,,0,9,9,9,,,,,,,,,,,AMNE12.jpg,AMSA12.jpg,AMSA15.jpg,AMNE17.jpg,AMNE12.jpg,MN,1,num_8,32,num_4,1.38339516664,,,2017_May_17_1730,59.9997498244,FEMA4ImagesEEG,001,200439,
AFNE01.JPG,AFNE01.JPG,AFNE01.JPG,AFNE01.JPG,AFNE01.JPG,AFNE01.JPG,,,,,,,,,,,,,1,0,10,7,,,,,,,,,,,AMSA02.jpg,AMNE08.jpg,AMNE04.jpg,AMSA14.jpg,AMSA14.jpg,MS,2,num_4,16,num_4,0.650176038096,,,2017_May_17_1730,59.9997498244,FEMA4ImagesEEG,001,200439,
AFNE01.JPG,AFNE01.JPG,AFNE01.JPG,AFNE01.JPG,AFNE01.JPG,AFNE01.JPG,,,,,,,,,,,,,1,1,11,1,,,,,,,,,,,AMNE10.jpg,AMSA19.jpg,AMNE01.jpg,AMSA17.jpg,AMSA19.jpg,MS,2,num_6,16,num_6,2.51661705355,,,2017_May_17_1730,59.9997498244,FEMA4ImagesEEG,001,200439,
AFNE01.JPG,AFNE01.JPG,AFNE01.JPG,AFNE01.JPG,AFNE01.JPG,AFNE01.JPG,,,,,,,,,,,,,1,2,12,5,,,,,,,,,,,AMNE18.jpg,AMSA10.jpg,AMNE05.jpg,AMSA02.jpg,AMSA10.jpg,MS,2,num_6,32,num_8,1.26674398637,,,2017_May_17_1730,59.9997498244,FEMA4ImagesEEG,001,200439,
AFNE01.JPG,AFNE01.JPG,AFNE01.JPG,AFNE01.JPG,AFNE01.JPG,AFNE01.JPG,,,,,,,,,,,,,1,3,13,8,,,,,,,,,,,AMSA01.jpg,AMNE19.jpg,AMNE07.jpg,AMSA03.jpg,AMSA03.jpg,MS,2,num_4,16,num_4,0.816762893985,,,2017_May_17_1730,59.9997498244,FEMA4ImagesEEG,001,200439,
AFNE01.JPG,AFNE01.JPG,AFNE01.JPG,AFNE01.JPG,AFNE01.JPG,AFNE01.JPG,,,,,,,,,,,,,1,4,14,3,,,,,,,,,,,AMSA14.jpg,AMSA11.jpg,AMNE16.jpg,AMNE20.jpg,AMSA14.jpg,MS,2,num_8,16,num_8,2.20002463282,,,2017_May_17_1730,59.9997498244,FEMA4ImagesEEG,001,200439,
AFNE01.JPG,AFNE01.JPG,AFNE01.JPG,AFNE01.JPG,AFNE01.JPG,AFNE01.JPG,,,,,,,,,,,,,1,5,15,4,,,,,,,,,,,AMNE05.jpg,AMNE12.jpg,AMSA20.jpg,AMSA02.jpg,AMNE05.jpg,MN,1,num_8,32,num_6,1.46672082895,,,2017_May_17_1730,59.9997498244,FEMA4ImagesEEG,001,200439,
AFNE01.JPG,AFNE01.JPG,AFNE01.JPG,AFNE01.JPG,AFNE01.JPG,AFNE01.JPG,,,,,,,,,,,,,1,6,16,6,,,,,,,,,,,AMSA09.jpg,AMNE15.jpg,AMNE12.jpg,AMSA15.jpg,AMSA15.jpg,MS,2,num_4,16,num_4,0.85003965949,,,2017_May_17_1730,59.9997498244,FEMA4ImagesEEG,001,200439,
AFNE01.JPG,AFNE01.JPG,AFNE01.JPG,AFNE01.JPG,AFNE01.JPG,AFNE01.JPG,,,,,,,,,,,,,1,7,17,0,,,,,,,,,,,AMSA15.jpg,AMSA05.jpg,AMNE14.jpg,AMNE02.jpg,AMNE14.jpg,MN,1,num_2,16,num_2,1.41671234538,,,2017_May_17_1730,59.9997498244,FEMA4ImagesEEG,001,200439,
AFNE01.JPG,AFNE01.JPG,AFNE01.JPG,AFNE01.JPG,AFNE01.JPG,AFNE01.JPG,,,,,,,,,,,,,1,8,18,9,,,,,,,,,,,AMSA13.jpg,AMNE12.jpg,AMSA05.jpg,AMNE02.jpg,AMSA13.jpg,MS,2,num_8,16,num_8,1.30007816431,,,2017_May_17_1730,59.9997498244,FEMA4ImagesEEG,001,200439,
AFNE01.JPG,AFNE01.JPG,AFNE01.JPG,AFNE01.JPG,AFNE01.JPG,AFNE01.JPG,,,,,,,,,,,,,1,9,19,2,,,,,,,,,,,AMSA04.jpg,AMSA10.jpg,AMNE02.jpg,AMNE18.jpg,AMNE02.jpg,MN,1,num_2,16,num_2,0.916784030742,,,2017_May_17_1730,59.9997498244,FEMA4ImagesEEG,001,200439,
AFNE01.JPG,AFNE01.JPG,AFNE01.JPG,AFNE01.JPG,AFNE01.JPG,AFNE01.JPG,,,,,,,,,,,,,2,0,20,8,,,,,,,,,,,AMNE07.jpg,AMNE05.jpg,AMSA18.jpg,AMSA16.jpg,AMNE05.jpg,MN,1,num_6,32,num_8,1.88333310347,,,2017_May_17_1730,59.9997498244,FEMA4ImagesEEG,001,200439,
AFNE01.JPG,AFNE01.JPG,AFNE01.JPG,AFNE01.JPG,AFNE01.JPG,AFNE01.JPG,,,,,,,,,,,,,2,1,21,1,,,,,,,,,,,AMNE14.jpg,AMSA17.jpg,AMNE07.jpg,AMSA04.jpg,AMNE14.jpg,MN,1,num_8,16,num_8,1.25012099913,,,2017_May_17_1730,59.9997498244,FEMA4ImagesEEG,001,200439,
AFNE01.JPG,AFNE01.JPG,AFNE01.JPG,AFNE01.JPG,AFNE01.JPG,AFNE01.JPG,,,,,,,,,,,,,2,2,22,2,,,,,,,,,,,AMSA08.jpg,AMNE12.jpg,AMNE02.jpg,AMSA12.jpg,AMNE12.jpg,MN,1,num_6,16,num_6,1.25010367918,,,2017_May_17_1730,59.9997498244,FEMA4ImagesEEG,001,200439,
AFNE01.JPG,AFNE01.JPG,AFNE01.JPG,AFNE01.JPG,AFNE01.JPG,AFNE01.JPG,,,,,,,,,,,,,2,3,23,9,,,,,,,,,,,AMNE14.jpg,AMSA01.jpg,AMSA14.jpg,AMNE10.jpg,AMSA14.jpg,MS,2,num_2,16,num_2,0.950088379879,,,2017_May_17_1730,59.9997498244,FEMA4ImagesEEG,001,200439,
AFNE01.JPG,AFNE01.JPG,AFNE01.JPG,AFNE01.JPG,AFNE01.JPG,AFNE01.JPG,,,,,,,,,,,,,2,4,24,0,,,,,,,,,,,AMNE08.jpg,AMSA09.jpg,AMNE19.jpg,AMSA03.jpg,AMSA03.jpg,MS,2,num_4,16,num_4,1.16673471699,,,2017_May_17_1730,59.9997498244,FEMA4ImagesEEG,001,200439,
AFNE01.JPG,AFNE01.JPG,AFNE01.JPG,AFNE01.JPG,AFNE01.JPG,AFNE01.JPG,,,,,,,,,,,,,2,5,25,7,,,,,,,,,,,AMSA18.jpg,AMSA15.jpg,AMNE05.jpg,AMNE13.jpg,AMSA18.jpg,MS,2,num_8,16,num_8,1.01673332177,,,2017_May_17_1730,59.9997498244,FEMA4ImagesEEG,001,200439,
AFNE01.JPG,AFNE01.JPG,AFNE01.JPG,AFNE01.JPG,AFNE01.JPG,AFNE01.JPG,,,,,,,,,,,,,2,6,26,3,,,,,,,,,,,AMSA08.jpg,AMNE09.jpg,AMSA18.jpg,AMNE01.jpg,AMNE09.jpg,MN,1,num_6,16,num_6,0.950113076855,,,2017_May_17_1730,59.9997498244,FEMA4ImagesEEG,001,200439,
AFNE01.JPG,AFNE01.JPG,AFNE01.JPG,AFNE01.JPG,AFNE01.JPG,AFNE01.JPG,,,,,,,,,,,,,2,7,27,4,,,,,,,,,,,AMSA05.jpg,AMNE06.jpg,AMSA02.jpg,AMNE13.jpg,AMNE06.jpg,MN,1,num_6,32,num_4,1.00011450415,,,2017_May_17_1730,59.9997498244,FEMA4ImagesEEG,001,200439,
AFNE01.JPG,AFNE01.JPG,AFNE01.JPG,AFNE01.JPG,AFNE01.JPG,AFNE01.JPG,,,,,,,,,,,,,2,8,28,5,,,,,,,,,,,AMNE12.jpg,AMSA16.jpg,AMSA13.jpg,AMNE18.jpg,AMSA13.jpg,MS,2,num_2,16,num_2,0.849872233255,,,2017_May_17_1730,59.9997498244,FEMA4ImagesEEG,001,200439,
AFNE01.JPG,AFNE01.JPG,AFNE01.JPG,AFNE01.JPG,AFNE01.JPG,AFNE01.JPG,,,,,,,,,,,,,2,9,29,6,,,,,,,,,,,AMSA19.jpg,AMNE09.jpg,AMSA07.jpg,AMNE19.jpg,AMSA07.jpg,MS,2,num_2,16,num_2,0.933438450491,,,2017_May_17_1730,59.9997498244,FEMA4ImagesEEG,001,200439,
AFNE01.JPG,AFNE01.JPG,AFNE01.JPG,AFNE01.JPG,AFNE01.JPG,AFNE01.JPG,,,,,,,,,,,,,3,0,30,7,,,,,,,,,,,AMSA08.jpg,AMSA18.jpg,AMNE07.jpg,AMNE04.jpg,AMSA18.jpg,MS,2,num_6,32,num_2,1.09991433037,,,2017_May_17_1730,59.9997498244,FEMA4ImagesEEG,001,200439,
AFNE01.JPG,AFNE01.JPG,AFNE01.JPG,AFNE01.JPG,AFNE01.JPG,AFNE01.JPG,,,,,,,,,,,,,3,1,31,6,,,,,,,,,,,AMSA16.jpg,AMSA15.jpg,AMNE16.jpg,AMNE18.jpg,AMNE16.jpg,MN,1,num_2,16,num_2,0.866740586524,,,2017_May_17_1730,59.9997498244,FEMA4ImagesEEG,001,200439,
AFNE01.JPG,AFNE01.JPG,AFNE01.JPG,AFNE01.JPG,AFNE01.JPG,AFNE01.JPG,,,,,,,,,,,,,3,2,32,4,,,,,,,,,,,AMNE18.jpg,AMSA13.jpg,AMNE02.jpg,AMSA08.jpg,AMSA08.jpg,MS,2,num_4,16,num_4,1.1167518926,,,2017_May_17_1730,59.9997498244,FEMA4ImagesEEG,001,200439,
AFNE01.JPG,AFNE01.JPG,AFNE01.JPG,AFNE01.JPG,AFNE01.JPG,AFNE01.JPG,,,,,,,,,,,,,3,3,33,1,,,,,,,,,,,AMNE14.jpg,AMSA14.jpg,AMSA20.jpg,AMNE01.jpg,AMSA14.jpg,MS,2,num_6,16,num_6,0.866760151657,,,2017_May_17_1730,59.9997498244,FEMA4ImagesEEG,001,200439,
AFNE01.JPG,AFNE01.JPG,AFNE01.JPG,AFNE01.JPG,AFNE01.JPG,AFNE01.JPG,,,,,,,,,,,,,3,4,34,9,,,,,,,,,,,AMSA04.jpg,AMNE05.jpg,AMNE20.jpg,AMSA08.jpg,AMSA04.jpg,MS,2,num_8,16,num_8,1.38344776799,,,2017_May_17_1730,59.9997498244,FEMA4ImagesEEG,001,200439,
AFNE01.JPG,AFNE01.JPG,AFNE01.JPG,AFNE01.JPG,AFNE01.JPG,AFNE01.JPG,,,,,,,,,,,,,3,5,35,8,,,,,,,,,,,AMNE20.jpg,AMSA10.jpg,AMSA15.jpg,AMNE06.jpg,AMSA10.jpg,MS,2,num_6,32,num_4,1.20009230894,,,2017_May_17_1730,59.9997498244,FEMA4ImagesEEG,001,200439,
AFNE01.JPG,AFNE01.JPG,AFNE01.JPG,AFNE01.JPG,AFNE01.JPG,AFNE01.JPG,,,,,,,,,,,,,3,6,36,3,,,,,,,,,,,AMSA07.jpg,AMNE10.jpg,AMSA06.jpg,AMNE19.jpg,AMSA06.jpg,MS,2,num_2,16,num_2,0.950102492439,,,2017_May_17_1730,59.9997498244,FEMA4ImagesEEG,001,200439,
AFNE01.JPG,AFNE01.JPG,AFNE01.JPG,AFNE01.JPG,AFNE01.JPG,AFNE01.JPG,,,,,,,,,,,,,3,7,37,0,,,,,,,,,,,AMSA19.jpg,AMNE04.jpg,AMSA20.jpg,AMNE20.jpg,AMNE20.jpg,MN,1,num_4,32,num_2,3.41655069246,,,2017_May_17_1730,59.9997498244,FEMA4ImagesEEG,001,200439,
AFNE01.JPG,AFNE01.JPG,AFNE01.JPG,AFNE01.JPG,AFNE01.JPG,AFNE01.JPG,,,,,,,,,,,,,3,8,38,2,,,,,,,,,,,AMNE01.jpg,AMSA16.jpg,AMSA17.jpg,AMNE02.jpg,AMSA17.jpg,MS,2,num_2,16,num_2,1.91669614801,,,2017_May_17_1730,59.9997498244,FEMA4ImagesEEG,001,200439,
AFNE01.JPG,AFNE01.JPG,AFNE01.JPG,AFNE01.JPG,AFNE01.JPG,AFNE01.JPG,,,,,,,,,,,,,3,9,39,5,,,,,,,,,,,AMNE07.jpg,AMSA14.jpg,AMSA08.jpg,AMNE06.jpg,AMSA14.jpg,MS,2,num_6,16,num_6,1.48347307436,,,2017_May_17_1730,59.9997498244,FEMA4ImagesEEG,001,200439,
AFNE01.JPG,AFNE01.JPG,AFNE01.JPG,AFNE01.JPG,AFNE01.JPG,AFNE01.JPG,,,,,,,,,,,,,4,0,40,5,,,,,,,,,,,AMNE14.jpg,AMNE08.jpg,AMSA20.jpg,AMSA06.jpg,AMSA06.jpg,MS,2,num_4,16,num_4,1.08342445019,,,2017_May_17_1730,59.9997498244,FEMA4ImagesEEG,001,200439,
AFNE01.JPG,AFNE01.JPG,AFNE01.JPG,AFNE01.JPG,AFNE01.JPG,AFNE01.JPG,,,,,,,,,,,,,4,1,41,6,,,,,,,,,,,AMNE17.jpg,AMNE13.jpg,AMSA13.jpg,AMSA02.jpg,AMSA13.jpg,MS,2,num_2,16,num_2,1.33342453038,,,2017_May_17_1730,59.9997498244,FEMA4ImagesEEG,001,200439,
AFNE01.JPG,AFNE01.JPG,AFNE01.JPG,AFNE01.JPG,AFNE01.JPG,AFNE01.JPG,,,,,,,,,,,,,4,2,42,9,,,,,,,,,,,AMSA10.jpg,AMNE03.jpg,AMNE09.jpg,AMSA03.jpg,AMNE09.jpg,MN,1,num_2,32,num_6,1.45010874686,,,2017_May_17_1730,59.9997498244,FEMA4ImagesEEG,001,200439,
AFNE01.JPG,AFNE01.JPG,AFNE01.JPG,AFNE01.JPG,AFNE01.JPG,AFNE01.JPG,,,,,,,,,,,,,4,3,43,1,,,,,,,,,,,AMNE19.jpg,AMSA18.jpg,AMNE06.jpg,AMSA20.jpg,AMSA18.jpg,MS,2,num_6,16,num_6,1.00010167455,,,2017_May_17_1730,59.9997498244,FEMA4ImagesEEG,001,200439,
AFNE01.JPG,AFNE01.JPG,AFNE01.JPG,AFNE01.JPG,AFNE01.JPG,AFNE01.JPG,,,,,,,,,,,,,4,4,44,0,,,,,,,,,,,AMNE09.jpg,AMNE05.jpg,AMSA01.jpg,AMSA04.jpg,AMSA04.jpg,MS,2,num_4,16,num_4,0.850108618568,,,2017_May_17_1730,59.9997498244,FEMA4ImagesEEG,001,200439,
AFNE01.JPG,AFNE01.JPG,AFNE01.JPG,AFNE01.JPG,AFNE01.JPG,AFNE01.JPG,,,,,,,,,,,,,4,5,45,4,,,,,,,,,,,AMSA03.jpg,AMSA06.jpg,AMNE10.jpg,AMNE11.jpg,AMSA03.jpg,MS,2,num_8,32,num_2,1.45006223958,,,2017_May_17_1730,59.9997498244,FEMA4ImagesEEG,001,200439,
AFNE01.JPG,AFNE01.JPG,AFNE01.JPG,AFNE01.JPG,AFNE01.JPG,AFNE01.JPG,,,,,,,,,,,,,4,6,46,8,,,,,,,,,,,AMNE15.jpg,AMNE18.jpg,AMSA15.jpg,AMSA14.jpg,AMNE15.jpg,MN,1,num_8,16,num_8,0.850137805901,,,2017_May_17_1730,59.9997498244,FEMA4ImagesEEG,001,200439,
AFNE01.JPG,AFNE01.JPG,AFNE01.JPG,AFNE01.JPG,AFNE01.JPG,AFNE01.JPG,,,,,,,,,,,,,4,7,47,2,,,,,,,,,,,AMSA17.jpg,AMSA09.jpg,AMNE15.jpg,AMNE14.jpg,AMNE14.jpg,MN,1,num_4,16,num_4,2.48341020934,,,2017_May_17_1730,59.9997498244,FEMA4ImagesEEG,001,200439,
AFNE01.JPG,AFNE01.JPG,AFNE01.JPG,AFNE01.JPG,AFNE01.JPG,AFNE01.JPG,,,,,,,,,,,,,4,8,48,3,,,,,,,,,,,AMSA13.jpg,AMNE02.jpg,AMNE15.jpg,AMSA01.jpg,AMNE02.jpg,MN,1,num_6,16,num_6,1.25015243164,,,2017_May_17_1730,59.9997498244,FEMA4ImagesEEG,001,200439,
AFNE01.JPG,AFNE01.JPG,AFNE01.JPG,AFNE01.JPG,AFNE01.JPG,AFNE01.JPG,,,,,,,,,,,,,4,9,49,7,,,,,,,,,,,AMNE12.jpg,AMSA13.jpg,AMNE04.jpg,AMSA03.jpg,AMSA03.jpg,MS,2,num_4,16,num_4,0.950149641205,,,2017_May_17_1730,59.9997498244,FEMA4ImagesEEG,001,200439,
AFNE01.JPG,AFNE01.JPG,AFNE01.JPG,AFNE01.JPG,AFNE01.JPG,AFNE01.JPG,,,,,,,,,,,,,5,0,50,1,,,,,,,,,,,AMSA09.jpg,AMSA02.jpg,AMNE11.jpg,AMNE10.jpg,AMSA02.jpg,MS,2,num_6,16,num_6,2.06667220478,,,2017_May_17_1730,59.9997498244,FEMA4ImagesEEG,001,200439,
AFNE01.JPG,AFNE01.JPG,AFNE01.JPG,AFNE01.JPG,AFNE01.JPG,AFNE01.JPG,,,,,,,,,,,,,5,1,51,5,,,,,,,,,,,AMNE19.jpg,AMNE09.jpg,AMSA08.jpg,AMSA05.jpg,AMSA08.jpg,MS,2,num_2,16,num_2,1.00018955729,,,2017_May_17_1730,59.9997498244,FEMA4ImagesEEG,001,200439,
AFNE01.JPG,AFNE01.JPG,AFNE01.JPG,AFNE01.JPG,AFNE01.JPG,AFNE01.JPG,,,,,,,,,,,,,5,2,52,7,,,,,,,,,,,AMSA12.jpg,AMNE11.jpg,AMSA05.jpg,AMNE01.jpg,AMSA05.jpg,MS,2,num_2,16,num_2,0.933406697244,,,2017_May_17_1730,59.9997498244,FEMA4ImagesEEG,001,200439,
AFNE01.JPG,AFNE01.JPG,AFNE01.JPG,AFNE01.JPG,AFNE01.JPG,AFNE01.JPG,,,,,,,,,,,,,5,3,53,6,,,,,,,,,,,AMNE18.jpg,AMSA19.jpg,AMNE12.jpg,AMSA01.jpg,AMSA19.jpg,MS,2,num_6,16,num_6,1.10009554842,,,2017_May_17_1730,59.9997498244,FEMA4ImagesEEG,001,200439,
AFNE01.JPG,AFNE01.JPG,AFNE01.JPG,AFNE01.JPG,AFNE01.JPG,AFNE01.JPG,,,,,,,,,,,,,5,4,54,4,,,,,,,,,,,AMSA11.jpg,AMSA09.jpg,AMNE19.jpg,AMNE15.jpg,AMNE15.jpg,MN,1,num_4,16,num_4,1.33346173621,,,2017_May_17_1730,59.9997498244,FEMA4ImagesEEG,001,200439,
AFNE01.JPG,AFNE01.JPG,AFNE01.JPG,AFNE01.JPG,AFNE01.JPG,AFNE01.JPG,,,,,,,,,,,,,5,5,55,2,,,,,,,,,,,AMSA20.jpg,AMNE15.jpg,AMSA19.jpg,AMNE06.jpg,AMNE15.jpg,MN,1,num_6,16,num_6,1.08343727979,,,2017_May_17_1730,59.9997498244,FEMA4ImagesEEG,001,200439,
AFNE01.JPG,AFNE01.JPG,AFNE01.JPG,AFNE01.JPG,AFNE01.JPG,AFNE01.JPG,,,,,,,,,,,,,5,6,56,3,,,,,,,,,,,AMSA11.jpg,AMNE11.jpg,AMSA17.jpg,AMNE19.jpg,AMSA17.jpg,MS,2,num_2,16,num_2,1.05007680117,,,2017_May_17_1730,59.9997498244,FEMA4ImagesEEG,001,200439,
AFNE01.JPG,AFNE01.JPG,AFNE01.JPG,AFNE01.JPG,AFNE01.JPG,AFNE01.JPG,,,,,,,,,,,,,5,7,57,9,,,,,,,,,,,AMNE17.jpg,AMSA14.jpg,AMNE18.jpg,AMSA18.jpg,AMSA18.jpg,MS,2,num_4,16,num_4,0.933485278521,,,2017_May_17_1730,59.9997498244,FEMA4ImagesEEG,001,200439,
AFNE01.JPG,AFNE01.JPG,AFNE01.JPG,AFNE01.JPG,AFNE01.JPG,AFNE01.JPG,,,,,,,,,,,,,5,8,58,0,,,,,,,,,,,AMNE11.jpg,AMNE18.jpg,AMSA19.jpg,AMSA15.jpg,AMNE11.jpg,MN,1,num_8,16,num_8,1.48345254701,,,2017_May_17_1730,59.9997498244,FEMA4ImagesEEG,001,200439,
AFNE01.JPG,AFNE01.JPG,AFNE01.JPG,AFNE01.JPG,AFNE01.JPG,AFNE01.JPG,,,,,,,,,,,,,5,9,59,8,,,,,,,,,,,AMNE07.jpg,AMSA06.jpg,AMSA05.jpg,AMNE02.jpg,AMNE07.jpg,MN,1,num_8,16,num_8,1.03315552582,,,2017_May_17_1730,59.9997498244,FEMA4ImagesEEG,001,200439,
,,,,,,,,,,,,,,,,,,,,,,,,,,,,,,,,,,,,,,,,,,,space,10.6660279666,2017_May_17_1730,59.9997498244,FEMA4ImagesEEG,001,200439,
AFNE01.JPG,AFNE01.JPG,AFNE01.JPG,AFNE01.JPG,AFNE01.JPG,AFNE01.JPG,,,,,,,,,,,,,,,,,0,0,0,5,,,,,,,AFSA14.jpg,AFNE02.jpg,AFSA13.jpg,AFNE12.jpg,AFSA13.jpg,FS,4,num_2,16,num_2,1.00041247152,,,2017_May_17_1730,59.9997498244,FEMA4ImagesEEG,001,200439,
AFNE01.JPG,AFNE01.JPG,AFNE01.JPG,AFNE01.JPG,AFNE01.JPG,AFNE01.JPG,,,,,,,,,,,,,,,,,0,1,1,8,,,,,,,AFSA18.jpg,AFNE07.jpg,AFNE18.jpg,AFSA04.jpg,AFSA18.jpg,FS,4,num_8,16,num_8,1.33341971928,,,2017_May_17_1730,59.9997498244,FEMA4ImagesEEG,001,200439,
AFNE01.JPG,AFNE01.JPG,AFNE01.JPG,AFNE01.JPG,AFNE01.JPG,AFNE01.JPG,,,,,,,,,,,,,,,,,0,2,2,9,,,,,,,AFNE01.jpg,AFNE20.jpg,AFSA07.jpg,AFSA12.jpg,AFNE01.jpg,FN,3,num_8,16,num_8,1.08353510546,,,2017_May_17_1730,59.9997498244,FEMA4ImagesEEG,001,200439,
AFNE01.JPG,AFNE01.JPG,AFNE01.JPG,AFNE01.JPG,AFNE01.JPG,AFNE01.JPG,,,,,,,,,,,,,,,,,0,3,3,3,,,,,,,AFNE01.jpg,AFNE16.jpg,AFSA18.jpg,AFSA14.jpg,AFNE01.jpg,FN,3,num_8,32,num_2,1.4667301304,,,2017_May_17_1730,59.9997498244,FEMA4ImagesEEG,001,200439,
AFNE01.JPG,AFNE01.JPG,AFNE01.JPG,AFNE01.JPG,AFNE01.JPG,AFNE01.JPG,,,,,,,,,,,,,,,,,0,4,4,1,,,,,,,AFSA08.jpg,AFNE17.jpg,AFSA09.jpg,AFNE15.jpg,AFSA08.jpg,FS,4,num_8,16,num_8,1.78335013476,,,2017_May_17_1730,59.9997498244,FEMA4ImagesEEG,001,200439,
AFNE01.JPG,AFNE01.JPG,AFNE01.JPG,AFNE01.JPG,AFNE01.JPG,AFNE01.JPG,,,,,,,,,,,,,,,,,0,5,5,0,,,,,,,AFNE01.jpg,AFNE17.jpg,AFSA18.jpg,AFSA12.jpg,AFSA12.jpg,FS,4,num_4,16,num_4,0.816777968761,,,2017_May_17_1730,59.9997498244,FEMA4ImagesEEG,001,200439,
AFNE01.JPG,AFNE01.JPG,AFNE01.JPG,AFNE01.JPG,AFNE01.JPG,AFNE01.JPG,,,,,,,,,,,,,,,,,0,6,6,6,,,,,,,AFSA06.jpg,AFSA17.jpg,AFNE06.jpg,AFNE05.jpg,AFSA06.jpg,FS,4,num_8,32,num_4,2.96658082597,,,2017_May_17_1730,59.9997498244,FEMA4ImagesEEG,001,200439,
AFNE01.JPG,AFNE01.JPG,AFNE01.JPG,AFNE01.JPG,AFNE01.JPG,AFNE01.JPG,,,,,,,,,,,,,,,,,0,7,7,2,,,,,,,AFSA03.jpg,AFNE05.jpg,AFNE17.jpg,AFSA08.jpg,AFNE17.jpg,FN,3,num_2,32,num_6,1.81640494825,,,2017_May_17_1730,59.9997498244,FEMA4ImagesEEG,001,200439,
AFNE01.JPG,AFNE01.JPG,AFNE01.JPG,AFNE01.JPG,AFNE01.JPG,AFNE01.JPG,,,,,,,,,,,,,,,,,0,8,8,4,,,,,,,AFNE16.jpg,AFNE09.jpg,AFSA07.jpg,AFSA11.jpg,AFNE16.jpg,FN,3,num_8,16,num_8,1.23344412759,,,2017_May_17_1730,59.9997498244,FEMA4ImagesEEG,001,200439,
AFNE01.JPG,AFNE01.JPG,AFNE01.JPG,AFNE01.JPG,AFNE01.JPG,AFNE01.JPG,,,,,,,,,,,,,,,,,0,9,9,7,,,,,,,AFSA13.jpg,AFNE11.jpg,AFSA04.jpg,AFNE03.jpg,AFSA04.jpg,FS,4,num_2,16,num_2,1.26682962392,,,2017_May_17_1730,59.9997498244,FEMA4ImagesEEG,001,200439,
AFNE01.JPG,AFNE01.JPG,AFNE01.JPG,AFNE01.JPG,AFNE01.JPG,AFNE01.JPG,,,,,,,,,,,,,,,,,1,0,10,2,,,,,,,AFNE20.jpg,AFSA17.jpg,AFNE14.jpg,AFSA05.jpg,AFSA17.jpg,FS,4,num_6,16,num_6,0.983434745947,,,2017_May_17_1730,59.9997498244,FEMA4ImagesEEG,001,200439,
AFNE01.JPG,AFNE01.JPG,AFNE01.JPG,AFNE01.JPG,AFNE01.JPG,AFNE01.JPG,,,,,,,,,,,,,,,,,1,1,11,8,,,,,,,AFNE13.jpg,AFSA07.jpg,AFNE15.jpg,AFSA05.jpg,AFNE15.jpg,FN,3,num_2,16,num_2,1.83347216026,,,2017_May_17_1730,59.9997498244,FEMA4ImagesEEG,001,200439,
AFNE01.JPG,AFNE01.JPG,AFNE01.JPG,AFNE01.JPG,AFNE01.JPG,AFNE01.JPG,,,,,,,,,,,,,,,,,1,2,12,6,,,,,,,AFSA01.jpg,AFSA08.jpg,AFNE19.jpg,AFNE17.jpg,AFSA01.jpg,FS,4,num_8,32,num_4,1.38348048346,,,2017_May_17_1730,59.9997498244,FEMA4ImagesEEG,001,200439,
AFNE01.JPG,AFNE01.JPG,AFNE01.JPG,AFNE01.JPG,AFNE01.JPG,AFNE01.JPG,,,,,,,,,,,,,,,,,1,3,13,0,,,,,,,AFNE09.jpg,AFNE08.jpg,AFSA07.jpg,AFSA12.jpg,AFSA12.jpg,FS,4,num_4,16,num_4,0.800129001593,,,2017_May_17_1730,59.9997498244,FEMA4ImagesEEG,001,200439,
AFNE01.JPG,AFNE01.JPG,AFNE01.JPG,AFNE01.JPG,AFNE01.JPG,AFNE01.JPG,,,,,,,,,,,,,,,,,1,4,14,3,,,,,,,AFSA14.jpg,AFNE15.jpg,AFNE08.jpg,AFSA01.jpg,AFSA01.jpg,FS,4,num_4,16,num_4,0.966764609944,,,2017_May_17_1730,59.9997498244,FEMA4ImagesEEG,001,200439,
AFNE01.JPG,AFNE01.JPG,AFNE01.JPG,AFNE01.JPG,AFNE01.JPG,AFNE01.JPG,,,,,,,,,,,,,,,,,1,5,15,9,,,,,,,AFSA02.jpg,AFSA13.jpg,AFNE19.jpg,AFNE04.jpg,AFSA13.jpg,FS,4,num_6,32,num_4,1.60010244432,,,2017_May_17_1730,59.9997498244,FEMA4ImagesEEG,001,200439,
AFNE01.JPG,AFNE01.JPG,AFNE01.JPG,AFNE01.JPG,AFNE01.JPG,AFNE01.JPG,,,,,,,,,,,,,,,,,1,6,16,5,,,,,,,AFSA10.jpg,AFSA19.jpg,AFNE11.jpg,AFNE06.jpg,AFNE11.jpg,FN,3,num_2,16,num_2,1.88336646042,,,2017_May_17_1730,59.9997498244,FEMA4ImagesEEG,001,200439,
AFNE01.JPG,AFNE01.JPG,AFNE01.JPG,AFNE01.JPG,AFNE01.JPG,AFNE01.JPG,,,,,,,,,,,,,,,,,1,7,17,4,,,,,,,AFNE03.jpg,AFNE04.jpg,AFSA12.jpg,AFSA14.jpg,AFNE04.jpg,FN,3,num_6,16,num_6,1.15002320553,,,2017_May_17_1730,59.9997498244,FEMA4ImagesEEG,001,200439,
AFNE01.JPG,AFNE01.JPG,AFNE01.JPG,AFNE01.JPG,AFNE01.JPG,AFNE01.JPG,,,,,,,,,,,,,,,,,1,8,18,1,,,,,,,AFSA14.jpg,AFNE06.jpg,AFNE15.jpg,AFSA19.jpg,AFNE06.jpg,FN,3,num_6,16,num_6,1.11674323263,,,2017_May_17_1730,59.9997498244,FEMA4ImagesEEG,001,200439,
AFNE01.JPG,AFNE01.JPG,AFNE01.JPG,AFNE01.JPG,AFNE01.JPG,AFNE01.JPG,,,,,,,,,,,,,,,,,1,9,19,7,,,,,,,AFNE04.jpg,AFNE01.jpg,AFSA06.jpg,AFSA17.jpg,AFSA17.jpg,FS,4,num_4,16,num_4,1.00016935067,,,2017_May_17_1730,59.9997498244,FEMA4ImagesEEG,001,200439,
AFNE01.JPG,AFNE01.JPG,AFNE01.JPG,AFNE01.JPG,AFNE01.JPG,AFNE01.JPG,,,,,,,,,,,,,,,,,2,0,20,8,,,,,,,AFNE12.jpg,AFSA18.jpg,AFNE14.jpg,AFSA14.jpg,AFNE14.jpg,FN,3,num_2,16,num_2,0.950125906453,,,2017_May_17_1730,59.9997498244,FEMA4ImagesEEG,001,200439,
AFNE01.JPG,AFNE01.JPG,AFNE01.JPG,AFNE01.JPG,AFNE01.JPG,AFNE01.JPG,,,,,,,,,,,,,,,,,2,1,21,9,,,,,,,AFNE10.jpg,AFSA15.jpg,AFNE16.jpg,AFSA08.jpg,AFNE10.jpg,FN,3,num_8,16,num_8,3.5499496278,,,2017_May_17_1730,59.9997498244,FEMA4ImagesEEG,001,200439,
AFNE01.JPG,AFNE01.JPG,AFNE01.JPG,AFNE01.JPG,AFNE01.JPG,AFNE01.JPG,,,,,,,,,,,,,,,,,2,2,22,0,,,,,,,AFNE17.jpg,AFNE08.jpg,AFSA13.jpg,AFSA19.jpg,AFSA13.jpg,FS,4,num_2,16,num_2,1.01670637961,,,2017_May_17_1730,59.9997498244,FEMA4ImagesEEG,001,200439,
AFNE01.JPG,AFNE01.JPG,AFNE01.JPG,AFNE01.JPG,AFNE01.JPG,AFNE01.JPG,,,,,,,,,,,,,,,,,2,3,23,5,,,,,,,AFSA05.jpg,AFNE17.jpg,AFNE10.jpg,AFSA17.jpg,AFNE10.jpg,FN,3,num_2,16,num_2,1.25011586729,,,2017_May_17_1730,59.9997498244,FEMA4ImagesEEG,001,200439,
AFNE01.JPG,AFNE01.JPG,AFNE01.JPG,AFNE01.JPG,AFNE01.JPG,AFNE01.JPG,,,,,,,,,,,,,,,,,2,4,24,6,,,,,,,AFSA06.jpg,AFNE07.jpg,AFSA13.jpg,AFNE05.jpg,AFSA13.jpg,FS,4,num_2,16,num_2,1.96661225849,,,2017_May_17_1730,59.9997498244,FEMA4ImagesEEG,001,200439,
AFNE01.JPG,AFNE01.JPG,AFNE01.JPG,AFNE01.JPG,AFNE01.JPG,AFNE01.JPG,,,,,,,,,,,,,,,,,2,5,25,4,,,,,,,AFSA20.jpg,AFNE10.jpg,AFNE06.jpg,AFSA06.jpg,AFSA06.jpg,FS,4,num_4,16,num_4,1.25009469845,,,2017_May_17_1730,59.9997498244,FEMA4ImagesEEG,001,200439,
AFNE01.JPG,AFNE01.JPG,AFNE01.JPG,AFNE01.JPG,AFNE01.JPG,AFNE01.JPG,,,,,,,,,,,,,,,,,2,6,26,7,,,,,,,AFNE08.jpg,AFSA09.jpg,AFSA12.jpg,AFNE10.jpg,AFNE08.jpg,FN,3,num_8,32,num_6,1.183301254,,,2017_May_17_1730,59.9997498244,FEMA4ImagesEEG,001,200439,
AFNE01.JPG,AFNE01.JPG,AFNE01.JPG,AFNE01.JPG,AFNE01.JPG,AFNE01.JPG,,,,,,,,,,,,,,,,,2,7,27,1,,,,,,,AFNE13.jpg,AFSA09.jpg,AFSA11.jpg,AFNE18.jpg,AFNE13.jpg,FN,3,num_8,32,num_4,0.916738164939,,,2017_May_17_1730,59.9997498244,FEMA4ImagesEEG,001,200439,
AFNE01.JPG,AFNE01.JPG,AFNE01.JPG,AFNE01.JPG,AFNE01.JPG,AFNE01.JPG,,,,,,,,,,,,,,,,,2,8,28,3,,,,,,,AFNE15.jpg,AFNE08.jpg,AFSA01.jpg,AFSA11.jpg,AFSA01.jpg,FS,4,num_2,16,num_2,1.28341925421,,,2017_May_17_1730,59.9997498244,FEMA4ImagesEEG,001,200439,
AFNE01.JPG,AFNE01.JPG,AFNE01.JPG,AFNE01.JPG,AFNE01.JPG,AFNE01.JPG,,,,,,,,,,,,,,,,,2,9,29,2,,,,,,,AFSA01.jpg,AFNE09.jpg,AFNE17.jpg,AFSA17.jpg,AFNE17.jpg,FN,3,num_2,16,num_2,1.15012359712,,,2017_May_17_1730,59.9997498244,FEMA4ImagesEEG,001,200439,
AFNE01.JPG,AFNE01.JPG,AFNE01.JPG,AFNE01.JPG,AFNE01.JPG,AFNE01.JPG,,,,,,,,,,,,,,,,,3,0,30,5,,,,,,,AFSA09.jpg,AFSA03.jpg,AFNE17.jpg,AFNE09.jpg,AFSA09.jpg,FS,4,num_8,32,num_2,2.18331536655,,,2017_May_17_1730,59.9997498244,FEMA4ImagesEEG,001,200439,
AFNE01.JPG,AFNE01.JPG,AFNE01.JPG,AFNE01.JPG,AFNE01.JPG,AFNE01.JPG,,,,,,,,,,,,,,,,,3,1,31,0,,,,,,,AFSA10.jpg,AFNE01.jpg,AFSA18.jpg,AFNE11.jpg,AFSA10.jpg,FS,4,num_8,16,num_8,1.83345419882,,,2017_May_17_1730,59.9997498244,FEMA4ImagesEEG,001,200439,
AFNE01.JPG,AFNE01.JPG,AFNE01.JPG,AFNE01.JPG,AFNE01.JPG,AFNE01.JPG,,,,,,,,,,,,,,,,,3,2,32,2,,,,,,,AFSA16.jpg,AFNE06.jpg,AFSA20.jpg,AFNE04.jpg,AFNE06.jpg,FN,3,num_6,16,num_6,1.18404601206,,,2017_May_17_1730,59.9997498244,FEMA4ImagesEEG,001,200439,
AFNE01.JPG,AFNE01.JPG,AFNE01.JPG,AFNE01.JPG,AFNE01.JPG,AFNE01.JPG,,,,,,,,,,,,,,,,,3,3,33,6,,,,,,,AFNE09.jpg,AFNE05.jpg,AFSA16.jpg,AFSA08.jpg,AFSA16.jpg,FS,4,num_2,32,num_4,1.35009787378,,,2017_May_17_1730,59.9997498244,FEMA4ImagesEEG,001,200439,
AFNE01.JPG,AFNE01.JPG,AFNE01.JPG,AFNE01.JPG,AFNE01.JPG,AFNE01.JPG,,,,,,,,,,,,,,,,,3,4,34,1,,,,,,,AFSA05.jpg,AFNE06.jpg,AFSA20.jpg,AFNE17.jpg,AFSA05.jpg,FS,4,num_8,16,num_8,1.80006934397,,,2017_May_17_1730,59.9997498244,FEMA4ImagesEEG,001,200439,
AFNE01.JPG,AFNE01.JPG,AFNE01.JPG,AFNE01.JPG,AFNE01.JPG,AFNE01.JPG,,,,,,,,,,,,,,,,,3,5,35,7,,,,,,,AFNE16.jpg,AFNE14.jpg,AFSA03.jpg,AFSA11.jpg,AFSA11.jpg,FS,4,num_4,16,num_4,0.983355523189,,,2017_May_17_1730,59.9997498244,FEMA4ImagesEEG,001,200439,
AFNE01.JPG,AFNE01.JPG,AFNE01.JPG,AFNE01.JPG,AFNE01.JPG,AFNE01.JPG,,,,,,,,,,,,,,,,,3,6,36,9,,,,,,,AFNE12.jpg,AFSA06.jpg,AFSA05.jpg,AFNE17.jpg,AFSA05.jpg,FS,4,num_2,16,num_2,0.883473266807,,,2017_May_17_1730,59.9997498244,FEMA4ImagesEEG,001,200439,
AFNE01.JPG,AFNE01.JPG,AFNE01.JPG,AFNE01.JPG,AFNE01.JPG,AFNE01.JPG,,,,,,,,,,,,,,,,,3,7,37,3,,,,,,,AFSA15.jpg,AFNE16.jpg,AFNE13.jpg,AFSA05.jpg,AFSA05.jpg,FS,4,num_4,16,num_4,1.05011047886,,,2017_May_17_1730,59.9997498244,FEMA4ImagesEEG,001,200439,
AFNE01.JPG,AFNE01.JPG,AFNE01.JPG,AFNE01.JPG,AFNE01.JPG,AFNE01.JPG,,,,,,,,,,,,,,,,,3,8,38,8,,,,,,,AFSA13.jpg,AFSA10.jpg,AFNE11.jpg,AFNE14.jpg,AFNE11.jpg,FN,3,num_2,16,num_2,0.900139233192,,,2017_May_17_1730,59.9997498244,FEMA4ImagesEEG,001,200439,
AFNE01.JPG,AFNE01.JPG,AFNE01.JPG,AFNE01.JPG,AFNE01.JPG,AFNE01.JPG,,,,,,,,,,,,,,,,,3,9,39,4,,,,,,,AFSA07.jpg,AFSA01.jpg,AFNE07.jpg,AFNE04.jpg,AFNE04.jpg,FN,3,num_4,16,num_4,1.03340474073,,,2017_May_17_1730,59.9997498244,FEMA4ImagesEEG,001,200439,
AFNE01.JPG,AFNE01.JPG,AFNE01.JPG,AFNE01.JPG,AFNE01.JPG,AFNE01.JPG,,,,,,,,,,,,,,,,,4,0,40,4,,,,,,,AFNE14.jpg,AFNE18.jpg,AFSA05.jpg,AFSA18.jpg,AFNE14.jpg,FN,3,num_8,16,num_8,1.88342868396,,,2017_May_17_1730,59.9997498244,FEMA4ImagesEEG,001,200439,
AFNE01.JPG,AFNE01.JPG,AFNE01.JPG,AFNE01.JPG,AFNE01.JPG,AFNE01.JPG,,,,,,,,,,,,,,,,,4,1,41,5,,,,,,,AFNE13.jpg,AFSA19.jpg,AFSA01.jpg,AFNE04.jpg,AFSA19.jpg,FS,4,num_6,16,num_6,1.21675089831,,,2017_May_17_1730,59.9997498244,FEMA4ImagesEEG,001,200439,
AFNE01.JPG,AFNE01.JPG,AFNE01.JPG,AFNE01.JPG,AFNE01.JPG,AFNE01.JPG,,,,,,,,,,,,,,,,,4,2,42,0,,,,,,,AFNE13.jpg,AFNE18.jpg,AFSA03.jpg,AFSA20.jpg,AFSA20.jpg,FS,4,num_4,16,num_4,0.783420697539,,,2017_May_17_1730,59.9997498244,FEMA4ImagesEEG,001,200439,
AFNE01.JPG,AFNE01.JPG,AFNE01.JPG,AFNE01.JPG,AFNE01.JPG,AFNE01.JPG,,,,,,,,,,,,,,,,,4,3,43,3,,,,,,,AFSA13.jpg,AFNE10.jpg,AFSA02.jpg,AFNE01.jpg,AFNE01.jpg,FN,3,num_4,16,num_4,1.18342409738,,,2017_May_17_1730,59.9997498244,FEMA4ImagesEEG,001,200439,
AFNE01.JPG,AFNE01.JPG,AFNE01.JPG,AFNE01.JPG,AFNE01.JPG,AFNE01.JPG,,,,,,,,,,,,,,,,,4,4,44,7,,,,,,,AFSA01.jpg,AFSA09.jpg,AFNE10.jpg,AFNE04.jpg,AFNE04.jpg,FN,3,num_4,16,num_4,1.05007904635,,,2017_May_17_1730,59.9997498244,FEMA4ImagesEEG,001,200439,
AFNE01.JPG,AFNE01.JPG,AFNE01.JPG,AFNE01.JPG,AFNE01.JPG,AFNE01.JPG,,,,,,,,,,,,,,,,,4,5,45,8,,,,,,,AFNE10.jpg,AFNE03.jpg,AFSA07.jpg,AFSA11.jpg,AFNE10.jpg,FN,3,num_8,32,num_4,2.83330826216,,,2017_May_17_1730,59.9997498244,FEMA4ImagesEEG,001,200439,
AFNE01.JPG,AFNE01.JPG,AFNE01.JPG,AFNE01.JPG,AFNE01.JPG,AFNE01.JPG,,,,,,,,,,,,,,,,,4,6,46,2,,,,,,,AFNE16.jpg,AFNE03.jpg,AFSA11.jpg,AFSA12.jpg,AFNE03.jpg,FN,3,num_6,16,num_6,0.950150924164,,,2017_May_17_1730,59.9997498244,FEMA4ImagesEEG,001,200439,
AFNE01.JPG,AFNE01.JPG,AFNE01.JPG,AFNE01.JPG,AFNE01.JPG,AFNE01.JPG,,,,,,,,,,,,,,,,,4,7,47,6,,,,,,,AFNE02.jpg,AFSA20.jpg,AFNE14.jpg,AFSA18.jpg,AFSA20.jpg,FS,4,num_6,16,num_6,1.08350880479,,,2017_May_17_1730,59.9997498244,FEMA4ImagesEEG,001,200439,
AFNE01.JPG,AFNE01.JPG,AFNE01.JPG,AFNE01.JPG,AFNE01.JPG,AFNE01.JPG,,,,,,,,,,,,,,,,,4,8,48,1,,,,,,,AFSA09.jpg,AFNE19.jpg,AFSA08.jpg,AFNE12.jpg,AFNE12.jpg,FN,3,num_4,16,num_4,1.06678831262,,,2017_May_17_1730,59.9997498244,FEMA4ImagesEEG,001,200439,
AFNE01.JPG,AFNE01.JPG,AFNE01.JPG,AFNE01.JPG,AFNE01.JPG,AFNE01.JPG,,,,,,,,,,,,,,,,,4,9,49,9,,,,,,,AFSA12.jpg,AFNE17.jpg,AFNE02.jpg,AFSA03.jpg,AFSA03.jpg,FS,4,num_4,16,num_4,1.03345509689,,,2017_May_17_1730,59.9997498244,FEMA4ImagesEEG,001,200439,
AFNE01.JPG,AFNE01.JPG,AFNE01.JPG,AFNE01.JPG,AFNE01.JPG,AFNE01.JPG,,,,,,,,,,,,,,,,,5,0,50,3,,,,,,,AFNE14.jpg,AFSA13.jpg,AFSA11.jpg,AFNE02.jpg,AFNE14.jpg,FN,3,num_8,16,num_8,0.983503063548,,,2017_May_17_1730,59.9997498244,FEMA4ImagesEEG,001,200439,
AFNE01.JPG,AFNE01.JPG,AFNE01.JPG,AFNE01.JPG,AFNE01.JPG,AFNE01.JPG,,,,,,,,,,,,,,,,,5,1,51,2,,,,,,,AFSA09.jpg,AFNE15.jpg,AFSA05.jpg,AFNE08.jpg,AFNE08.jpg,FN,3,num_4,16,num_4,2.68338993858,,,2017_May_17_1730,59.9997498244,FEMA4ImagesEEG,001,200439,
AFNE01.JPG,AFNE01.JPG,AFNE01.JPG,AFNE01.JPG,AFNE01.JPG,AFNE01.JPG,,,,,,,,,,,,,,,,,5,2,52,5,,,,,,,AFSA10.jpg,AFSA05.jpg,AFNE13.jpg,AFNE17.jpg,AFSA05.jpg,FS,4,num_6,16,num_6,2.08334458596,,,2017_May_17_1730,59.9997498244,FEMA4ImagesEEG,001,200439,
AFNE01.JPG,AFNE01.JPG,AFNE01.JPG,AFNE01.JPG,AFNE01.JPG,AFNE01.JPG,,,,,,,,,,,,,,,,,5,3,53,9,,,,,,,AFNE01.jpg,AFNE02.jpg,AFSA11.jpg,AFSA01.jpg,AFNE01.jpg,FN,3,num_8,32,num_4,0.933450638611,,,2017_May_17_1730,59.9997498244,FEMA4ImagesEEG,001,200439,
AFNE01.JPG,AFNE01.JPG,AFNE01.JPG,AFNE01.JPG,AFNE01.JPG,AFNE01.JPG,,,,,,,,,,,,,,,,,5,4,54,6,,,,,,,AFSA20.jpg,AFNE08.jpg,AFNE07.jpg,AFSA15.jpg,AFNE07.jpg,FN,3,num_2,16,num_2,1.23344541055,,,2017_May_17_1730,59.9997498244,FEMA4ImagesEEG,001,200439,
AFNE01.JPG,AFNE01.JPG,AFNE01.JPG,AFNE01.JPG,AFNE01.JPG,AFNE01.JPG,,,,,,,,,,,,,,,,,5,5,55,1,,,,,,,AFNE08.jpg,AFSA15.jpg,AFSA03.jpg,AFNE16.jpg,AFSA03.jpg,FS,4,num_2,16,num_2,0.933124766863,,,2017_May_17_1730,59.9997498244,FEMA4ImagesEEG,001,200439,
AFNE01.JPG,AFNE01.JPG,AFNE01.JPG,AFNE01.JPG,AFNE01.JPG,AFNE01.JPG,,,,,,,,,,,,,,,,,5,6,56,7,,,,,,,AFNE12.jpg,AFSA06.jpg,AFSA02.jpg,AFNE01.jpg,AFSA06.jpg,FS,4,num_6,16,num_6,0.833443614407,,,2017_May_17_1730,59.9997498244,FEMA4ImagesEEG,001,200439,
AFNE01.JPG,AFNE01.JPG,AFNE01.JPG,AFNE01.JPG,AFNE01.JPG,AFNE01.JPG,,,,,,,,,,,,,,,,,5,7,57,0,,,,,,,AFNE12.jpg,AFSA06.jpg,AFSA01.jpg,AFNE07.jpg,AFNE12.jpg,FN,3,num_8,16,num_8,1.66667521973,,,2017_May_17_1730,59.9997498244,FEMA4ImagesEEG,001,200439,
AFNE01.JPG,AFNE01.JPG,AFNE01.JPG,AFNE01.JPG,AFNE01.JPG,AFNE01.JPG,,,,,,,,,,,,,,,,,5,8,58,4,,,,,,,AFNE01.jpg,AFSA13.jpg,AFSA11.jpg,AFNE08.jpg,AFSA13.jpg,FS,4,num_6,16,num_6,1.24977973187,,,2017_May_17_1730,59.9997498244,FEMA4ImagesEEG,001,200439,
AFNE01.JPG,AFNE01.JPG,AFNE01.JPG,AFNE01.JPG,AFNE01.JPG,AFNE01.JPG,,,,,,,,,,,,,,,,,5,9,59,8,,,,,,,AFSA15.jpg,AFNE19.jpg,AFNE06.jpg,AFSA17.jpg,AFNE06.jpg,FN,3,num_2,16,num_2,1.16680816642,,,2017_May_17_1730,59.9997498244,FEMA4ImagesEEG,001,200439,
,,,,,,,,,,,,,,,,,,,,,,,,,,,,,,,,,,,,,,,,,,,space,12.0828397413,2017_May_17_1730,59.9997498244,FEMA4ImagesEEG,001,200439,
AFNE01.JPG,AFNE01.JPG,AFNE01.JPG,AFNE01.JPG,AFNE01.JPG,AFNE01.JPG,,,,,,,,,,,,,,,,,,,,,0,0,0,0,,,AMNE05.jpg,AMSA16.jpg,AMSA13.jpg,AMNE10.jpg,AMSA13.jpg,MS,2,num_2,32,num_4,1.15007933502,,,2017_May_17_1730,59.9997498244,FEMA4ImagesEEG,001,200439,
AFNE01.JPG,AFNE01.JPG,AFNE01.JPG,AFNE01.JPG,AFNE01.JPG,AFNE01.JPG,,,,,,,,,,,,,,,,,,,,,0,1,1,8,,,AMNE12.jpg,AMSA11.jpg,AMSA12.jpg,AMNE10.jpg,AMNE12.jpg,MN,1,num_8,32,num_4,0.916774729285,,,2017_May_17_1730,59.9997498244,FEMA4ImagesEEG,001,200439,
AFNE01.JPG,AFNE01.JPG,AFNE01.JPG,AFNE01.JPG,AFNE01.JPG,AFNE01.JPG,,,,,,,,,,,,,,,,,,,,,0,2,2,5,,,AMSA05.jpg,AMNE11.jpg,AMSA14.jpg,AMNE02.jpg,AMSA14.jpg,MS,2,num_2,16,num_2,0.700130316625,,,2017_May_17_1730,59.9997498244,FEMA4ImagesEEG,001,200439,
AFNE01.JPG,AFNE01.JPG,AFNE01.JPG,AFNE01.JPG,AFNE01.JPG,AFNE01.JPG,,,,,,,,,,,,,,,,,,,,,0,3,3,9,,,AMSA12.jpg,AMNE19.jpg,AMNE02.jpg,AMSA02.jpg,AMSA02.jpg,MS,2,num_4,16,num_4,0.83343527517,,,2017_May_17_1730,59.9997498244,FEMA4ImagesEEG,001,200439,
AFNE01.JPG,AFNE01.JPG,AFNE01.JPG,AFNE01.JPG,AFNE01.JPG,AFNE01.JPG,,,,,,,,,,,,,,,,,,,,,0,4,4,1,,,AMNE11.jpg,AMNE05.jpg,AMSA17.jpg,AMSA08.jpg,AMSA17.jpg,MS,2,num_2,16,num_2,0.816720235576,,,2017_May_17_1730,59.9997498244,FEMA4ImagesEEG,001,200439,
AFNE01.JPG,AFNE01.JPG,AFNE01.JPG,AFNE01.JPG,AFNE01.JPG,AFNE01.JPG,,,,,,,,,,,,,,,,,,,,,0,5,5,6,,,AMSA16.jpg,AMNE19.jpg,AMNE10.jpg,AMSA08.jpg,AMSA16.jpg,MS,2,num_8,16,num_8,1.80005074105,,,2017_May_17_1730,59.9997498244,FEMA4ImagesEEG,001,200439,
AFNE01.JPG,AFNE01.JPG,AFNE01.JPG,AFNE01.JPG,AFNE01.JPG,AFNE01.JPG,,,,,,,,,,,,,,,,,,,,,0,6,6,4,,,AMSA13.jpg,AMSA15.jpg,AMNE01.jpg,AMNE02.jpg,AMNE01.jpg,MN,1,num_2,16,num_2,1.05010630924,,,2017_May_17_1730,59.9997498244,FEMA4ImagesEEG,001,200439,
AFNE01.JPG,AFNE01.JPG,AFNE01.JPG,AFNE01.JPG,AFNE01.JPG,AFNE01.JPG,,,,,,,,,,,,,,,,,,,,,0,7,7,2,,,AMNE09.jpg,AMSA05.jpg,AMSA09.jpg,AMNE04.jpg,AMSA05.jpg,MS,2,num_6,16,num_6,1.05007551821,,,2017_May_17_1730,59.9997498244,FEMA4ImagesEEG,001,200439,
AFNE01.JPG,AFNE01.JPG,AFNE01.JPG,AFNE01.JPG,AFNE01.JPG,AFNE01.JPG,,,,,,,,,,,,,,,,,,,,,0,8,8,3,,,AMNE05.jpg,AMSA12.jpg,AMNE20.jpg,AMSA16.jpg,AMSA16.jpg,MS,2,num_4,32,num_8,1.13340246347,,,2017_May_17_1730,59.9997498244,FEMA4ImagesEEG,001,200439,
AFNE01.JPG,AFNE01.JPG,AFNE01.JPG,AFNE01.JPG,AFNE01.JPG,AFNE01.JPG,,,,,,,,,,,,,,,,,,,,,0,9,9,7,,,AMNE02.jpg,AMSA08.jpg,AMNE12.jpg,AMSA03.jpg,AMSA03.jpg,MS,2,num_4,16,num_4,0.833505196468,,,2017_May_17_1730,59.9997498244,FEMA4ImagesEEG,001,200439,
AFNE01.JPG,AFNE01.JPG,AFNE01.JPG,AFNE01.JPG,AFNE01.JPG,AFNE01.JPG,,,,,,,,,,,,,,,,,,,,,1,0,10,7,,,AMSA12.jpg,AMNE06.jpg,AMSA20.jpg,AMNE05.jpg,AMNE06.jpg,MN,1,num_6,32,num_4,0.883516887436,,,2017_May_17_1730,59.9997498244,FEMA4ImagesEEG,001,200439,
AFNE01.JPG,AFNE01.JPG,AFNE01.JPG,AFNE01.JPG,AFNE01.JPG,AFNE01.JPG,,,,,,,,,,,,,,,,,,,,,1,1,11,0,,,AMSA11.jpg,AMNE18.jpg,AMSA08.jpg,AMNE09.jpg,AMSA11.jpg,MS,2,num_8,16,num_8,1.26669651686,,,2017_May_17_1730,59.9997498244,FEMA4ImagesEEG,001,200439,
AFNE01.JPG,AFNE01.JPG,AFNE01.JPG,AFNE01.JPG,AFNE01.JPG,AFNE01.JPG,,,,,,,,,,,,,,,,,,,,,1,2,12,9,,,AMNE19.jpg,AMNE14.jpg,AMSA01.jpg,AMSA08.jpg,AMNE19.jpg,MN,1,num_8,32,num_4,1.7834155657,,,2017_May_17_1730,59.9997498244,FEMA4ImagesEEG,001,200439,
AFNE01.JPG,AFNE01.JPG,AFNE01.JPG,AFNE01.JPG,AFNE01.JPG,AFNE01.JPG,,,,,,,,,,,,,,,,,,,,,1,3,13,4,,,AMNE14.jpg,AMNE06.jpg,AMSA01.jpg,AMSA10.jpg,AMSA10.jpg,MS,2,num_4,16,num_4,1.01675801874,,,2017_May_17_1730,59.9997498244,FEMA4ImagesEEG,001,200439,
AFNE01.JPG,AFNE01.JPG,AFNE01.JPG,AFNE01.JPG,AFNE01.JPG,AFNE01.JPG,,,,,,,,,,,,,,,,,,,,,1,4,14,2,,,AMNE02.jpg,AMSA09.jpg,AMSA04.jpg,AMNE05.jpg,AMNE02.jpg,MN,1,num_8,16,num_8,2.33338347567,,,2017_May_17_1730,59.9997498244,FEMA4ImagesEEG,001,200439,
AFNE01.JPG,AFNE01.JPG,AFNE01.JPG,AFNE01.JPG,AFNE01.JPG,AFNE01.JPG,,,,,,,,,,,,,,,,,,,,,1,5,15,3,,,AMSA16.jpg,AMNE05.jpg,AMSA15.jpg,AMNE18.jpg,AMNE05.jpg,MN,1,num_6,32,num_4,1.71670711731,,,2017_May_17_1730,59.9997498244,FEMA4ImagesEEG,001,200439,
AFNE01.JPG,AFNE01.JPG,AFNE01.JPG,AFNE01.JPG,AFNE01.JPG,AFNE01.JPG,,,,,,,,,,,,,,,,,,,,,1,6,16,6,,,AMNE11.jpg,AMSA08.jpg,AMNE14.jpg,AMSA15.jpg,AMNE14.jpg,MN,1,num_2,16,num_2,1.26672987381,,,2017_May_17_1730,59.9997498244,FEMA4ImagesEEG,001,200439,
AFNE01.JPG,AFNE01.JPG,AFNE01.JPG,AFNE01.JPG,AFNE01.JPG,AFNE01.JPG,,,,,,,,,,,,,,,,,,,,,1,7,17,1,,,AMNE04.jpg,AMSA04.jpg,AMSA17.jpg,AMNE08.jpg,AMNE04.jpg,MN,1,num_8,16,num_8,2.48335504208,,,2017_May_17_1730,59.9997498244,FEMA4ImagesEEG,001,200439,
AFNE01.JPG,AFNE01.JPG,AFNE01.JPG,AFNE01.JPG,AFNE01.JPG,AFNE01.JPG,,,,,,,,,,,,,,,,,,,,,1,8,18,5,,,AMNE18.jpg,AMSA14.jpg,AMNE19.jpg,AMSA15.jpg,AMNE19.jpg,MN,1,num_2,16,num_2,1.35008440271,,,2017_May_17_1730,59.9997498244,FEMA4ImagesEEG,001,200439,
AFNE01.JPG,AFNE01.JPG,AFNE01.JPG,AFNE01.JPG,AFNE01.JPG,AFNE01.JPG,,,,,,,,,,,,,,,,,,,,,1,9,19,8,,,AMNE09.jpg,AMSA18.jpg,AMNE06.jpg,AMSA20.jpg,AMSA18.jpg,MS,2,num_6,16,num_6,1.91669775171,,,2017_May_17_1730,59.9997498244,FEMA4ImagesEEG,001,200439,
AFNE01.JPG,AFNE01.JPG,AFNE01.JPG,AFNE01.JPG,AFNE01.JPG,AFNE01.JPG,,,,,,,,,,,,,,,,,,,,,2,0,20,7,,,AMSA03.jpg,AMSA05.jpg,AMNE04.jpg,AMNE19.jpg,AMSA03.jpg,MS,2,num_8,32,num_2,1.66681506233,,,2017_May_17_1730,59.9997498244,FEMA4ImagesEEG,001,200439,
AFNE01.JPG,AFNE01.JPG,AFNE01.JPG,AFNE01.JPG,AFNE01.JPG,AFNE01.JPG,,,,,,,,,,,,,,,,,,,,,2,1,21,1,,,AMNE08.jpg,AMNE18.jpg,AMSA08.jpg,AMSA18.jpg,AMSA18.jpg,MS,2,num_4,16,num_4,0.700136410684,,,2017_May_17_1730,59.9997498244,FEMA4ImagesEEG,001,200439,
AFNE01.JPG,AFNE01.JPG,AFNE01.JPG,AFNE01.JPG,AFNE01.JPG,AFNE01.JPG,,,,,,,,,,,,,,,,,,,,,2,2,22,2,,,AMSA06.jpg,AMNE03.jpg,AMNE08.jpg,AMSA13.jpg,AMNE08.jpg,MN,1,num_2,16,num_2,0.850100920812,,,2017_May_17_1730,59.9997498244,FEMA4ImagesEEG,001,200439,
AFNE01.JPG,AFNE01.JPG,AFNE01.JPG,AFNE01.JPG,AFNE01.JPG,AFNE01.JPG,,,,,,,,,,,,,,,,,,,,,2,3,23,0,,,AMNE20.jpg,AMSA09.jpg,AMNE11.jpg,AMSA19.jpg,AMSA19.jpg,MS,2,num_4,16,num_4,1.66670697298,,,2017_May_17_1730,59.9997498244,FEMA4ImagesEEG,001,200439,
AFNE01.JPG,AFNE01.JPG,AFNE01.JPG,AFNE01.JPG,AFNE01.JPG,AFNE01.JPG,,,,,,,,,,,,,,,,,,,,,2,4,24,8,,,AMSA10.jpg,AMNE20.jpg,AMSA04.jpg,AMNE05.jpg,AMSA10.jpg,MS,2,num_8,16,num_8,1.3167521492,,,2017_May_17_1730,59.9997498244,FEMA4ImagesEEG,001,200439,
AFNE01.JPG,AFNE01.JPG,AFNE01.JPG,AFNE01.JPG,AFNE01.JPG,AFNE01.JPG,,,,,,,,,,,,,,,,,,,,,2,5,25,3,,,AMSA04.jpg,AMSA14.jpg,AMNE14.jpg,AMNE05.jpg,AMNE14.jpg,MN,1,num_2,16,num_2,2.43333308743,,,2017_May_17_1730,59.9997498244,FEMA4ImagesEEG,001,200439,
AFNE01.JPG,AFNE01.JPG,AFNE01.JPG,AFNE01.JPG,AFNE01.JPG,AFNE01.JPG,,,,,,,,,,,,,,,,,,,,,2,6,26,6,,,AMNE15.jpg,AMSA04.jpg,AMSA15.jpg,AMNE13.jpg,AMSA04.jpg,MS,2,num_6,16,num_6,1.31676722398,,,2017_May_17_1730,59.9997498244,FEMA4ImagesEEG,001,200439,
AFNE01.JPG,AFNE01.JPG,AFNE01.JPG,AFNE01.JPG,AFNE01.JPG,AFNE01.JPG,,,,,,,,,,,,,,,,,,,,,2,7,27,9,,,AMNE17.jpg,AMSA11.jpg,AMNE01.jpg,AMSA10.jpg,AMSA11.jpg,MS,2,num_6,16,num_6,1.85011535411,,,2017_May_17_1730,59.9997498244,FEMA4ImagesEEG,001,200439,
AFNE01.JPG,AFNE01.JPG,AFNE01.JPG,AFNE01.JPG,AFNE01.JPG,AFNE01.JPG,,,,,,,,,,,,,,,,,,,,,2,8,28,4,,,AMSA14.jpg,AMSA12.jpg,AMNE05.jpg,AMNE07.jpg,AMSA12.jpg,MS,2,num_6,16,num_6,1.03342270216,,,2017_May_17_1730,59.9997498244,FEMA4ImagesEEG,001,200439,
AFNE01.JPG,AFNE01.JPG,AFNE01.JPG,AFNE01.JPG,AFNE01.JPG,AFNE01.JPG,,,,,,,,,,,,,,,,,,,,,2,9,29,5,,,AMSA14.jpg,AMNE11.jpg,AMSA01.jpg,AMNE10.jpg,AMNE11.jpg,MN,1,num_6,16,num_6,0.933439733453,,,2017_May_17_1730,59.9997498244,FEMA4ImagesEEG,001,200439,
AFNE01.JPG,AFNE01.JPG,AFNE01.JPG,AFNE01.JPG,AFNE01.JPG,AFNE01.JPG,,,,,,,,,,,,,,,,,,,,,3,0,30,7,,,AMNE09.jpg,AMSA15.jpg,AMNE18.jpg,AMSA04.jpg,AMSA04.jpg,MS,2,num_4,16,num_4,0.716769020117,,,2017_May_17_1730,59.9997498244,FEMA4ImagesEEG,001,200439,
AFNE01.JPG,AFNE01.JPG,AFNE01.JPG,AFNE01.JPG,AFNE01.JPG,AFNE01.JPG,,,,,,,,,,,,,,,,,,,,,3,1,31,1,,,AMNE18.jpg,AMNE09.jpg,AMSA03.jpg,AMSA13.jpg,AMSA03.jpg,MS,2,num_2,16,num_2,0.683335412796,,,2017_May_17_1730,59.9997498244,FEMA4ImagesEEG,001,200439,
AFNE01.JPG,AFNE01.JPG,AFNE01.JPG,AFNE01.JPG,AFNE01.JPG,AFNE01.JPG,,,,,,,,,,,,,,,,,,,,,3,2,32,8,,,AMSA13.jpg,AMNE14.jpg,AMSA20.jpg,AMNE04.jpg,AMSA20.jpg,MS,2,num_2,32,num_6,1.08344658125,,,2017_May_17_1730,59.9997498244,FEMA4ImagesEEG,001,200439,
AFNE01.JPG,AFNE01.JPG,AFNE01.JPG,AFNE01.JPG,AFNE01.JPG,AFNE01.JPG,,,,,,,,,,,,,,,,,,,,,3,3,33,4,,,AMNE06.jpg,AMSA08.jpg,AMSA03.jpg,AMNE13.jpg,AMNE13.jpg,MN,1,num_4,32,num_2,2.35004270652,,,2017_May_17_1730,59.9997498244,FEMA4ImagesEEG,001,200439,
AFNE01.JPG,AFNE01.JPG,AFNE01.JPG,AFNE01.JPG,AFNE01.JPG,AFNE01.JPG,,,,,,,,,,,,,,,,,,,,,3,4,34,9,,,AMNE01.jpg,AMSA18.jpg,AMSA08.jpg,AMNE09.jpg,AMSA18.jpg,MS,2,num_6,16,num_6,1.65012215379,,,2017_May_17_1730,59.9997498244,FEMA4ImagesEEG,001,200439,
AFNE01.JPG,AFNE01.JPG,AFNE01.JPG,AFNE01.JPG,AFNE01.JPG,AFNE01.JPG,,,,,,,,,,,,,,,,,,,,,3,5,35,3,,,AMNE11.jpg,AMNE17.jpg,AMSA08.jpg,AMSA07.jpg,AMNE17.jpg,MN,1,num_6,16,num_6,0.83343142629,,,2017_May_17_1730,59.9997498244,FEMA4ImagesEEG,001,200439,
AFNE01.JPG,AFNE01.JPG,AFNE01.JPG,AFNE01.JPG,AFNE01.JPG,AFNE01.JPG,,,,,,,,,,,,,,,,,,,,,3,6,36,6,,,AMSA16.jpg,AMNE02.jpg,AMSA08.jpg,AMNE12.jpg,AMNE12.jpg,MN,1,num_4,16,num_4,1.11674291189,,,2017_May_17_1730,59.9997498244,FEMA4ImagesEEG,001,200439,
AFNE01.JPG,AFNE01.JPG,AFNE01.JPG,AFNE01.JPG,AFNE01.JPG,AFNE01.JPG,,,,,,,,,,,,,,,,,,,,,3,7,37,5,,,AMNE19.jpg,AMSA15.jpg,AMSA13.jpg,AMNE11.jpg,AMSA15.jpg,MS,2,num_6,16,num_6,1.48313405228,,,2017_May_17_1730,59.9997498244,FEMA4ImagesEEG,001,200439,
AFNE01.JPG,AFNE01.JPG,AFNE01.JPG,AFNE01.JPG,AFNE01.JPG,AFNE01.JPG,,,,,,,,,,,,,,,,,,,,,3,8,38,0,,,AMNE03.jpg,AMSA09.jpg,AMSA19.jpg,AMNE08.jpg,AMSA19.jpg,MS,2,num_2,16,num_2,1.18348054761,,,2017_May_17_1730,59.9997498244,FEMA4ImagesEEG,001,200439,
AFNE01.JPG,AFNE01.JPG,AFNE01.JPG,AFNE01.JPG,AFNE01.JPG,AFNE01.JPG,,,,,,,,,,,,,,,,,,,,,3,9,39,2,,,AMNE01.jpg,AMSA06.jpg,AMNE06.jpg,AMSA18.jpg,AMSA06.jpg,MS,2,num_6,16,num_6,1.33345981177,,,2017_May_17_1730,59.9997498244,FEMA4ImagesEEG,001,200439,
