IPosition2,IPosition3,IPosition1,IPosition6,IPosition4,IPosition5,TrialsF1.thisRepN,TrialsF1.thisTrialN,TrialsF1.thisN,TrialsF1.thisIndex,TrialsM1.thisRepN,TrialsM1.thisTrialN,TrialsM1.thisN,TrialsM1.thisIndex,TrialsF2.thisRepN,TrialsF2.thisTrialN,TrialsF2.thisN,TrialsF2.thisIndex,TrialsM2.thisRepN,TrialsM2.thisTrialN,TrialsM2.thisN,TrialsM2.thisIndex,TrialsF3.thisRepN,TrialsF3.thisTrialN,TrialsF3.thisN,TrialsF3.thisIndex,TrialsM3.thisRepN,TrialsM3.thisTrialN,TrialsM3.thisN,TrialsM3.thisIndex,InstrKey_resp.keys,InstrKey_resp.rt,Image0 _Position,Image1 _Position,Image2 _Position,Image3 _Position,Center_image,condition,code,correct_answer,accuracy,Key_Resp.keys,Key_Resp.rt,BreakKey_resp.keys,BreakKey_resp.rt,date,frameRate,expName,session,participant,
,,,,,,,,,,,,,,,,,,,,,,,,,,,,,,space,12.1826883201,,,,,,,,,,,,,,2017_May_22_1118,59.9997498362,FEMA4ImagesEEG,001,200445,
AFNE22.JPG,AFSA24.JPG,AFSA22.JPG,AFNE25.JPG,AFNE24.JPG,AFSA25.JPG,0,0,0,6,,,,,,,,,,,,,,,,,,,,,,,AFSA12.jpg,AFNE14.jpg,AFSA04.jpg,AFNE18.jpg,AFSA12.jpg,FS,4,num_8,32,num_4,1.35007830861,,,2017_May_22_1118,59.9997498362,FEMA4ImagesEEG,001,200445,
AMNE23.JPG,AMNE24.JPG,AMNE22.JPG,AMSA24.JPG,AMSA22.JPG,AMSA23.JPG,0,1,1,9,,,,,,,,,,,,,,,,,,,,,,,AFSA14.jpg,AFNE04.jpg,AFSA12.jpg,AFNE02.jpg,AFSA12.jpg,FS,4,num_2,16,num_2,1.35009274195,,,2017_May_22_1118,59.9997498362,FEMA4ImagesEEG,001,200445,
AFSA21.JPG,AFNE23.JPG,AFNE21.JPG,AFSA25.JPG,AFNE25.JPG,AFSA23.JPG,0,2,2,4,,,,,,,,,,,,,,,,,,,,,,,AFSA10.jpg,AFNE18.jpg,AFNE02.jpg,AFSA01.jpg,AFSA10.jpg,FS,4,num_8,16,num_8,1.13344448042,,,2017_May_22_1118,59.9997498362,FEMA4ImagesEEG,001,200445,
AFSA21.JPG,AFNE22.JPG,AFNE21.JPG,AFSA23.JPG,AFSA22.JPG,AFNE23.JPG,0,3,3,0,,,,,,,,,,,,,,,,,,,,,,,AFSA01.jpg,AFNE07.jpg,AFSA18.jpg,AFNE04.jpg,AFNE07.jpg,FN,3,num_6,16,num_6,0.716794358566,,,2017_May_22_1118,59.9997498362,FEMA4ImagesEEG,001,200445,
AMSA21.JPG,AMNE23.JPG,AMNE21.JPG,AMSA25.JPG,AMNE25.JPG,AMSA23.JPG,0,4,4,5,,,,,,,,,,,,,,,,,,,,,,,AFSA19.jpg,AFNE14.jpg,AFNE15.jpg,AFSA20.jpg,AFSA20.jpg,FS,4,num_4,16,num_4,0.866784207115,,,2017_May_22_1118,59.9997498362,FEMA4ImagesEEG,001,200445,
AMSA25.JPG,AMNE24.JPG,AMSA24.JPG,AMNE26.JPG,AMSA21.JPG,AMNE25.JPG,0,5,5,3,,,,,,,,,,,,,,,,,,,,,,,AFSA18.jpg,AFNE18.jpg,AFNE20.jpg,AFSA03.jpg,AFNE20.jpg,FN,3,num_2,32,num_6,0.900188947911,,,2017_May_22_1118,59.9997498362,FEMA4ImagesEEG,001,200445,
AFNE23.JPG,AFNE24.JPG,AFNE22.JPG,AFSA24.JPG,AFSA22.JPG,AFSA23.JPG,0,6,6,8,,,,,,,,,,,,,,,,,,,,,,,AFSA06.jpg,AFSA01.jpg,AFNE12.jpg,AFNE14.jpg,AFSA06.jpg,FS,4,num_8,16,num_8,1.20014747622,,,2017_May_22_1118,59.9997498362,FEMA4ImagesEEG,001,200445,
AFSA25.JPG,AFNE24.JPG,AFSA24.JPG,AFNE21.JPG,AFSA21.JPG,AFNE25.JPG,0,7,7,2,,,,,,,,,,,,,,,,,,,,,,,AFNE20.jpg,AFSA18.jpg,AFSA16.jpg,AFNE18.jpg,AFNE18.jpg,FN,3,num_4,16,num_4,0.933486882248,,,2017_May_22_1118,59.9997498362,FEMA4ImagesEEG,001,200445,
AMNE22.JPG,AMSA24.JPG,AMSA22.JPG,AMNE25.JPG,AMNE24.JPG,AMSA25.JPG,0,8,8,7,,,,,,,,,,,,,,,,,,,,,,,AFSA19.jpg,AFNE04.jpg,AFSA15.jpg,AFNE15.jpg,AFNE04.jpg,FN,3,num_6,16,num_6,0.933452563069,,,2017_May_22_1118,59.9997498362,FEMA4ImagesEEG,001,200445,
AMSA21.JPG,AMNE22.JPG,AMNE21.JPG,AMSA23.JPG,AMSA22.JPG,AMNE23.JPG,0,9,9,1,,,,,,,,,,,,,,,,,,,,,,,AFNE14.jpg,AFSA17.jpg,AFNE02.jpg,AFSA15.jpg,AFNE02.jpg,FN,3,num_2,32,num_8,0.766817275435,,,2017_May_22_1118,59.9997498362,FEMA4ImagesEEG,001,200445,
AFSA21.JPG,AFNE22.JPG,AFNE21.JPG,AFSA23.JPG,AFSA22.JPG,AFNE23.JPG,,,,,0,0,0,0,,,,,,,,,,,,,,,,,,,AMSA11.jpg,AMNE20.jpg,AMNE12.jpg,AMSA08.jpg,AMNE20.jpg,MN,1,num_6,16,num_6,0.716798848938,,,2017_May_22_1118,59.9997498362,FEMA4ImagesEEG,001,200445,
AMNE23.JPG,AMNE24.JPG,AMNE22.JPG,AMSA24.JPG,AMSA22.JPG,AMSA23.JPG,,,,,0,1,1,9,,,,,,,,,,,,,,,,,,,AMSA13.jpg,AMNE19.jpg,AMSA10.jpg,AMNE18.jpg,AMSA13.jpg,MS,2,num_8,32,num_2,1.56675255013,,,2017_May_22_1118,59.9997498362,FEMA4ImagesEEG,001,200445,
AMSA21.JPG,AMNE22.JPG,AMNE21.JPG,AMSA23.JPG,AMSA22.JPG,AMNE23.JPG,,,,,0,2,2,1,,,,,,,,,,,,,,,,,,,AMNE04.jpg,AMNE12.jpg,AMSA09.jpg,AMSA13.jpg,AMNE12.jpg,MN,1,num_6,16,num_6,1.73341862875,,,2017_May_22_1118,59.9997498362,FEMA4ImagesEEG,001,200445,
AFSA21.JPG,AFNE23.JPG,AFNE21.JPG,AFSA25.JPG,AFNE25.JPG,AFSA23.JPG,,,,,0,3,3,4,,,,,,,,,,,,,,,,,,,AMSA01.jpg,AMNE19.jpg,AMNE17.jpg,AMSA20.jpg,AMNE17.jpg,MN,1,num_2,32,num_6,0.666829816357,,,2017_May_22_1118,59.9997498362,FEMA4ImagesEEG,001,200445,
AMSA21.JPG,AMNE23.JPG,AMNE21.JPG,AMSA25.JPG,AMNE25.JPG,AMSA23.JPG,,,,,0,4,4,5,,,,,,,,,,,,,,,,,,,AMSA18.jpg,AMNE18.jpg,AMNE07.jpg,AMSA03.jpg,AMSA18.jpg,MS,2,num_8,32,num_4,0.533495029027,,,2017_May_22_1118,59.9997498362,FEMA4ImagesEEG,001,200445,
AMSA25.JPG,AMNE24.JPG,AMSA24.JPG,AMNE26.JPG,AMSA21.JPG,AMNE25.JPG,,,,,0,5,5,3,,,,,,,,,,,,,,,,,,,AMSA16.jpg,AMNE20.jpg,AMSA17.jpg,AMNE09.jpg,AMSA16.jpg,MS,2,num_8,32,num_6,1.18349754682,,,2017_May_22_1118,59.9997498362,FEMA4ImagesEEG,001,200445,
AFSA25.JPG,AFNE24.JPG,AFSA24.JPG,AFNE21.JPG,AFSA21.JPG,AFNE25.JPG,,,,,0,6,6,2,,,,,,,,,,,,,,,,,,,AMSA18.jpg,AMNE12.jpg,AMSA13.jpg,AMNE02.jpg,AMSA18.jpg,MS,2,num_8,16,num_8,0.516788328649,,,2017_May_22_1118,59.9997498362,FEMA4ImagesEEG,001,200445,
AMNE22.JPG,AMSA24.JPG,AMSA22.JPG,AMNE25.JPG,AMNE24.JPG,AMSA25.JPG,,,,,0,7,7,7,,,,,,,,,,,,,,,,,,,AMSA14.jpg,AMNE02.jpg,AMNE08.jpg,AMSA18.jpg,AMNE02.jpg,MN,1,num_6,32,num_2,1.18347445352,,,2017_May_22_1118,59.9997498362,FEMA4ImagesEEG,001,200445,
AFNE22.JPG,AFSA24.JPG,AFSA22.JPG,AFNE25.JPG,AFNE24.JPG,AFSA25.JPG,,,,,0,8,8,6,,,,,,,,,,,,,,,,,,,AMSA07.jpg,AMSA17.jpg,AMNE02.jpg,AMNE11.jpg,AMNE02.jpg,MN,1,num_2,32,num_6,0.850120806717,,,2017_May_22_1118,59.9997498362,FEMA4ImagesEEG,001,200445,
AFNE23.JPG,AFNE24.JPG,AFNE22.JPG,AFSA24.JPG,AFSA22.JPG,AFSA23.JPG,,,,,0,9,9,8,,,,,,,,,,,,,,,,,,,AMSA07.jpg,AMNE06.jpg,AMNE07.jpg,AMSA05.jpg,AMSA07.jpg,MS,2,num_8,32,num_6,0.700119411515,,,2017_May_22_1118,59.9997498362,FEMA4ImagesEEG,001,200445,
AFSA21.JPG,AFNE22.JPG,AFNE21.JPG,AFSA23.JPG,AFSA22.JPG,AFNE23.JPG,,,,,,,,,0,0,0,0,,,,,,,,,,,,,,,AFNE14.jpg,AFSA14.jpg,AFNE04.jpg,AFSA12.jpg,AFSA12.jpg,FS,4,num_4,16,num_4,0.483514770516,,,2017_May_22_1118,59.9997498362,FEMA4ImagesEEG,001,200445,
AMSA21.JPG,AMNE22.JPG,AMNE21.JPG,AMSA23.JPG,AMSA22.JPG,AMNE23.JPG,,,,,,,,,0,1,1,1,,,,,,,,,,,,,,,AFSA09.jpg,AFNE13.jpg,AFSA16.jpg,AFNE15.jpg,AFSA16.jpg,FS,4,num_2,32,num_8,1.46673141338,,,2017_May_22_1118,59.9997498362,FEMA4ImagesEEG,001,200445,
AFNE23.JPG,AFNE24.JPG,AFNE22.JPG,AFSA24.JPG,AFSA22.JPG,AFSA23.JPG,,,,,,,,,0,2,2,8,,,,,,,,,,,,,,,AFNE11.jpg,AFSA01.jpg,AFSA16.jpg,AFNE04.jpg,AFNE04.jpg,FN,3,num_4,16,num_4,0.816806835355,,,2017_May_22_1118,59.9997498362,FEMA4ImagesEEG,001,200445,
AFSA25.JPG,AFNE24.JPG,AFSA24.JPG,AFNE21.JPG,AFSA21.JPG,AFNE25.JPG,,,,,,,,,0,3,3,2,,,,,,,,,,,,,,,AFSA19.jpg,AFNE10.jpg,AFSA17.jpg,AFNE01.jpg,AFNE01.jpg,FN,3,num_4,16,num_4,0.73351164331,,,2017_May_22_1118,59.9997498362,FEMA4ImagesEEG,001,200445,
AMSA25.JPG,AMNE24.JPG,AMSA24.JPG,AMNE26.JPG,AMSA21.JPG,AMNE25.JPG,,,,,,,,,0,4,4,3,,,,,,,,,,,,,,,AFSA09.jpg,AFNE04.jpg,AFSA17.jpg,AFNE06.jpg,AFNE04.jpg,FN,3,num_6,32,num_4,1.26671255386,,,2017_May_22_1118,59.9997498362,FEMA4ImagesEEG,001,200445,
AFNE22.JPG,AFSA24.JPG,AFSA22.JPG,AFNE25.JPG,AFNE24.JPG,AFSA25.JPG,,,,,,,,,0,5,5,6,,,,,,,,,,,,,,,AFSA02.jpg,AFNE17.jpg,AFNE10.jpg,AFSA05.jpg,AFNE17.jpg,FN,3,num_6,16,num_6,1.53343472991,,,2017_May_22_1118,59.9997498362,FEMA4ImagesEEG,001,200445,
AMSA21.JPG,AMNE23.JPG,AMNE21.JPG,AMSA25.JPG,AMNE25.JPG,AMSA23.JPG,,,,,,,,,0,6,6,5,,,,,,,,,,,,,,,AFNE20.jpg,AFSA07.jpg,AFSA06.jpg,AFNE04.jpg,AFSA06.jpg,FS,4,num_2,32,num_8,1.73341317615,,,2017_May_22_1118,59.9997498362,FEMA4ImagesEEG,001,200445,
AFSA21.JPG,AFNE23.JPG,AFNE21.JPG,AFSA25.JPG,AFNE25.JPG,AFSA23.JPG,,,,,,,,,0,7,7,4,,,,,,,,,,,,,,,AFNE03.jpg,AFNE12.jpg,AFSA04.jpg,AFSA09.jpg,AFNE03.jpg,FN,3,num_8,32,num_6,0.983607624774,,,2017_May_22_1118,59.9997498362,FEMA4ImagesEEG,001,200445,
AMNE23.JPG,AMNE24.JPG,AMNE22.JPG,AMSA24.JPG,AMSA22.JPG,AMSA23.JPG,,,,,,,,,0,8,8,9,,,,,,,,,,,,,,,AFSA03.jpg,AFNE09.jpg,AFSA14.jpg,AFNE01.jpg,AFSA03.jpg,FS,4,num_8,16,num_8,2.16665356979,,,2017_May_22_1118,59.9997498362,FEMA4ImagesEEG,001,200445,
AMNE22.JPG,AMSA24.JPG,AMSA22.JPG,AMNE25.JPG,AMNE24.JPG,AMSA25.JPG,,,,,,,,,0,9,9,7,,,,,,,,,,,,,,,AFSA09.jpg,AFSA10.jpg,AFNE06.jpg,AFNE07.jpg,AFSA10.jpg,FS,4,num_6,16,num_6,0.883531320724,,,2017_May_22_1118,59.9997498362,FEMA4ImagesEEG,001,200445,
AFNE22.JPG,AFSA24.JPG,AFSA22.JPG,AFNE25.JPG,AFNE24.JPG,AFSA25.JPG,,,,,,,,,,,,,0,0,0,6,,,,,,,,,,,AMNE13.jpg,AMNE14.jpg,AMSA19.jpg,AMSA06.jpg,AMSA19.jpg,MS,2,num_2,32,num_4,2.11670987564,,,2017_May_22_1118,59.9997498362,FEMA4ImagesEEG,001,200445,
AMSA21.JPG,AMNE22.JPG,AMNE21.JPG,AMSA23.JPG,AMSA22.JPG,AMNE23.JPG,,,,,,,,,,,,,0,1,1,1,,,,,,,,,,,AMNE09.jpg,AMSA07.jpg,AMNE07.jpg,AMSA08.jpg,AMNE09.jpg,MN,1,num_8,32,num_2,1.8832936525,,,2017_May_22_1118,59.9997498362,FEMA4ImagesEEG,001,200445,
AFNE23.JPG,AFNE24.JPG,AFNE22.JPG,AFSA24.JPG,AFSA22.JPG,AFSA23.JPG,,,,,,,,,,,,,0,2,2,8,,,,,,,,,,,AMSA20.jpg,AMNE20.jpg,AMSA06.jpg,AMNE16.jpg,AMSA06.jpg,MS,2,num_2,16,num_2,1.28357994492,,,2017_May_22_1118,59.9997498362,FEMA4ImagesEEG,001,200445,
AFSA21.JPG,AFNE23.JPG,AFNE21.JPG,AFSA25.JPG,AFNE25.JPG,AFSA23.JPG,,,,,,,,,,,,,0,3,3,4,,,,,,,,,,,AMSA07.jpg,AMNE16.jpg,AMSA10.jpg,AMNE19.jpg,AMSA10.jpg,MS,2,num_2,32,num_8,1.81671510375,,,2017_May_22_1118,59.9997498362,FEMA4ImagesEEG,001,200445,
AMNE23.JPG,AMNE24.JPG,AMNE22.JPG,AMSA24.JPG,AMSA22.JPG,AMSA23.JPG,,,,,,,,,,,,,0,4,4,9,,,,,,,,,,,AMNE18.jpg,AMNE08.jpg,AMSA10.jpg,AMSA14.jpg,AMSA14.jpg,MS,2,num_4,16,num_4,0.450151084515,,,2017_May_22_1118,59.9997498362,FEMA4ImagesEEG,001,200445,
AFSA21.JPG,AFNE22.JPG,AFNE21.JPG,AFSA23.JPG,AFSA22.JPG,AFNE23.JPG,,,,,,,,,,,,,0,5,5,0,,,,,,,,,,,AMSA02.jpg,AMSA11.jpg,AMNE04.jpg,AMNE19.jpg,AMNE19.jpg,MN,1,num_4,16,num_4,0.783513712115,,,2017_May_22_1118,59.9997498362,FEMA4ImagesEEG,001,200445,
AMNE22.JPG,AMSA24.JPG,AMSA22.JPG,AMNE25.JPG,AMNE24.JPG,AMSA25.JPG,,,,,,,,,,,,,0,6,6,7,,,,,,,,,,,AMSA14.jpg,AMNE18.jpg,AMSA15.jpg,AMNE01.jpg,AMNE18.jpg,MN,1,num_6,16,num_6,1.1167682503,,,2017_May_22_1118,59.9997498362,FEMA4ImagesEEG,001,200445,
AMSA21.JPG,AMNE23.JPG,AMNE21.JPG,AMSA25.JPG,AMNE25.JPG,AMSA23.JPG,,,,,,,,,,,,,0,7,7,5,,,,,,,,,,,AMNE09.jpg,AMSA02.jpg,AMSA04.jpg,AMNE16.jpg,AMNE09.jpg,MN,1,num_8,16,num_8,1.11673778004,,,2017_May_22_1118,59.9997498362,FEMA4ImagesEEG,001,200445,
AMSA25.JPG,AMNE24.JPG,AMSA24.JPG,AMNE26.JPG,AMSA21.JPG,AMNE25.JPG,,,,,,,,,,,,,0,8,8,3,,,,,,,,,,,AMSA20.jpg,AMNE18.jpg,AMNE14.jpg,AMSA18.jpg,AMSA18.jpg,MS,2,num_4,16,num_4,1.03344996506,,,2017_May_22_1118,59.9997498362,FEMA4ImagesEEG,001,200445,
AFSA25.JPG,AFNE24.JPG,AFSA24.JPG,AFNE21.JPG,AFSA21.JPG,AFNE25.JPG,,,,,,,,,,,,,0,9,9,2,,,,,,,,,,,AMNE01.jpg,AMNE05.jpg,AMSA17.jpg,AMSA01.jpg,AMNE01.jpg,MN,1,num_8,32,num_4,0.650131134491,,,2017_May_22_1118,59.9997498362,FEMA4ImagesEEG,001,200445,
AMSA25.JPG,AMNE24.JPG,AMSA24.JPG,AMNE26.JPG,AMSA21.JPG,AMNE25.JPG,,,,,,,,,,,,,,,,,0,0,0,3,,,,,,,AFNE07.jpg,AFSA12.jpg,AFSA16.jpg,AFNE05.jpg,AFSA16.jpg,FS,4,num_2,32,num_6,0.616847312718,,,2017_May_22_1118,59.9997498362,FEMA4ImagesEEG,001,200445,
AFNE23.JPG,AFNE24.JPG,AFNE22.JPG,AFSA24.JPG,AFSA22.JPG,AFSA23.JPG,,,,,,,,,,,,,,,,,0,1,1,8,,,,,,,AFNE13.jpg,AFSA13.jpg,AFNE04.jpg,AFSA18.jpg,AFSA13.jpg,FS,4,num_6,32,num_8,1.21675923752,,,2017_May_22_1118,59.9997498362,FEMA4ImagesEEG,001,200445,
AFSA25.JPG,AFNE24.JPG,AFSA24.JPG,AFNE21.JPG,AFSA21.JPG,AFNE25.JPG,,,,,,,,,,,,,,,,,0,2,2,2,,,,,,,AFSA19.jpg,AFSA12.jpg,AFNE01.jpg,AFNE02.jpg,AFSA12.jpg,FS,4,num_6,16,num_6,0.533484765328,,,2017_May_22_1118,59.9997498362,FEMA4ImagesEEG,001,200445,
AFNE22.JPG,AFSA24.JPG,AFSA22.JPG,AFNE25.JPG,AFNE24.JPG,AFSA25.JPG,,,,,,,,,,,,,,,,,0,3,3,6,,,,,,,AFNE04.jpg,AFNE10.jpg,AFSA11.jpg,AFSA10.jpg,AFNE10.jpg,FN,3,num_6,16,num_6,0.950131679769,,,2017_May_22_1118,59.9997498362,FEMA4ImagesEEG,001,200445,
AFSA21.JPG,AFNE23.JPG,AFNE21.JPG,AFSA25.JPG,AFNE25.JPG,AFSA23.JPG,,,,,,,,,,,,,,,,,0,4,4,4,,,,,,,AFNE20.jpg,AFSA18.jpg,AFNE01.jpg,AFSA14.jpg,AFNE20.jpg,FN,3,num_8,16,num_8,0.916736882005,,,2017_May_22_1118,59.9997498362,FEMA4ImagesEEG,001,200445,
AMSA21.JPG,AMNE23.JPG,AMNE21.JPG,AMSA25.JPG,AMNE25.JPG,AMSA23.JPG,,,,,,,,,,,,,,,,,0,5,5,5,,,,,,,AFSA14.jpg,AFNE11.jpg,AFNE16.jpg,AFSA13.jpg,AFNE11.jpg,FN,3,num_6,16,num_6,1.08350848407,,,2017_May_22_1118,59.9997498362,FEMA4ImagesEEG,001,200445,
AMNE23.JPG,AMNE24.JPG,AMNE22.JPG,AMSA24.JPG,AMSA22.JPG,AMSA23.JPG,,,,,,,,,,,,,,,,,0,6,6,9,,,,,,,AFNE10.jpg,AFNE19.jpg,AFSA10.jpg,AFSA19.jpg,AFSA19.jpg,FS,4,num_4,16,num_4,1.48338807828,,,2017_May_22_1118,59.9997498362,FEMA4ImagesEEG,001,200445,
AMSA21.JPG,AMNE22.JPG,AMNE21.JPG,AMSA23.JPG,AMSA22.JPG,AMNE23.JPG,,,,,,,,,,,,,,,,,0,7,7,1,,,,,,,AFSA01.jpg,AFNE08.jpg,AFNE06.jpg,AFSA20.jpg,AFSA20.jpg,FS,4,num_4,32,num_8,1.65008943831,,,2017_May_22_1118,59.9997498362,FEMA4ImagesEEG,001,200445,
AMNE22.JPG,AMSA24.JPG,AMSA22.JPG,AMNE25.JPG,AMNE24.JPG,AMSA25.JPG,,,,,,,,,,,,,,,,,0,8,8,7,,,,,,,AFSA02.jpg,AFNE15.jpg,AFNE03.jpg,AFSA17.jpg,AFNE15.jpg,FN,3,num_6,16,num_6,0.616926535498,,,2017_May_22_1118,59.9997498362,FEMA4ImagesEEG,001,200445,
AFSA21.JPG,AFNE22.JPG,AFNE21.JPG,AFSA23.JPG,AFSA22.JPG,AFNE23.JPG,,,,,,,,,,,,,,,,,0,9,9,0,,,,,,,AFSA05.jpg,AFSA02.jpg,AFNE02.jpg,AFNE05.jpg,AFSA05.jpg,FS,4,num_8,16,num_8,1.31676465803,,,2017_May_22_1118,59.9997498362,FEMA4ImagesEEG,001,200445,
AFSA21.JPG,AFNE22.JPG,AFNE21.JPG,AFSA23.JPG,AFSA22.JPG,AFNE23.JPG,,,,,,,,,,,,,,,,,,,,,0,0,0,0,,,AMNE03.jpg,AMSA20.jpg,AMNE05.jpg,AMSA17.jpg,AMNE03.jpg,MN,1,num_8,32,num_2,1.31676722399,,,2017_May_22_1118,59.9997498362,FEMA4ImagesEEG,001,200445,
AFSA25.JPG,AFNE24.JPG,AFSA24.JPG,AFNE21.JPG,AFSA21.JPG,AFNE25.JPG,,,,,,,,,,,,,,,,,,,,,0,1,1,2,,,AMSA09.jpg,AMNE03.jpg,AMNE16.jpg,AMSA01.jpg,AMSA01.jpg,MS,2,num_4,16,num_4,0.516909889062,,,2017_May_22_1118,59.9997498362,FEMA4ImagesEEG,001,200445,
AMSA21.JPG,AMNE23.JPG,AMNE21.JPG,AMSA25.JPG,AMNE25.JPG,AMSA23.JPG,,,,,,,,,,,,,,,,,,,,,0,2,2,5,,,AMNE14.jpg,AMNE20.jpg,AMSA06.jpg,AMSA01.jpg,AMNE20.jpg,MN,1,num_6,16,num_6,0.61683031352,,,2017_May_22_1118,59.9997498362,FEMA4ImagesEEG,001,200445,
AFNE22.JPG,AFSA24.JPG,AFSA22.JPG,AFNE25.JPG,AFNE24.JPG,AFSA25.JPG,,,,,,,,,,,,,,,,,,,,,0,3,3,6,,,AMSA12.jpg,AMNE06.jpg,AMSA05.jpg,AMNE10.jpg,AMNE10.jpg,MN,1,num_4,32,num_6,2.08360117784,,,2017_May_22_1118,59.9997498362,FEMA4ImagesEEG,001,200445,
AMNE22.JPG,AMSA24.JPG,AMSA22.JPG,AMNE25.JPG,AMNE24.JPG,AMSA25.JPG,,,,,,,,,,,,,,,,,,,,,0,4,4,7,,,AMSA13.jpg,AMNE04.jpg,AMNE01.jpg,AMSA07.jpg,AMNE01.jpg,MN,1,num_2,32,num_4,0.950000817887,,,2017_May_22_1118,59.9997498362,FEMA4ImagesEEG,001,200445,
AFSA21.JPG,AFNE23.JPG,AFNE21.JPG,AFSA25.JPG,AFNE25.JPG,AFSA23.JPG,,,,,,,,,,,,,,,,,,,,,0,5,5,4,,,AMNE05.jpg,AMSA02.jpg,AMNE10.jpg,AMSA17.jpg,AMSA17.jpg,MS,2,num_4,32,num_2,1.31672905589,,,2017_May_22_1118,59.9997498362,FEMA4ImagesEEG,001,200445,
AMNE23.JPG,AMNE24.JPG,AMNE22.JPG,AMSA24.JPG,AMSA22.JPG,AMSA23.JPG,,,,,,,,,,,,,,,,,,,,,0,6,6,9,,,AMNE06.jpg,AMNE19.jpg,AMSA12.jpg,AMSA07.jpg,AMNE06.jpg,MN,1,num_8,32,num_6,0.7168299607,,,2017_May_22_1118,59.9997498362,FEMA4ImagesEEG,001,200445,
AMSA25.JPG,AMNE24.JPG,AMSA24.JPG,AMNE26.JPG,AMSA21.JPG,AMNE25.JPG,,,,,,,,,,,,,,,,,,,,,0,7,7,3,,,AMSA14.jpg,AMNE17.jpg,AMSA09.jpg,AMNE19.jpg,AMSA14.jpg,MS,2,num_8,16,num_8,0.966728366329,,,2017_May_22_1118,59.9997498362,FEMA4ImagesEEG,001,200445,
AFNE23.JPG,AFNE24.JPG,AFNE22.JPG,AFSA24.JPG,AFSA22.JPG,AFSA23.JPG,,,,,,,,,,,,,,,,,,,,,0,8,8,8,,,AMNE05.jpg,AMNE11.jpg,AMSA18.jpg,AMSA01.jpg,AMSA01.jpg,MS,2,num_4,16,num_4,0.733449419786,,,2017_May_22_1118,59.9997498362,FEMA4ImagesEEG,001,200445,
AMSA21.JPG,AMNE22.JPG,AMNE21.JPG,AMSA23.JPG,AMSA22.JPG,AMNE23.JPG,,,,,,,,,,,,,,,,,,,,,0,9,9,1,,,AMNE09.jpg,AMSA12.jpg,AMSA20.jpg,AMNE10.jpg,AMSA20.jpg,MS,2,num_2,32,num_6,0.850145503646,,,2017_May_22_1118,59.9997498362,FEMA4ImagesEEG,001,200445,
,,,,,,,,,,,,,,,,,,,,,,,,,,,,,,,,,,,,,,,,,,,space,31.6478096191,2017_May_22_1118,59.9997498362,FEMA4ImagesEEG,001,200445,
AFNE01.JPG,AFNE01.JPG,AFNE01.JPG,AFNE01.JPG,AFNE01.JPG,AFNE01.JPG,0,0,0,7,,,,,,,,,,,,,,,,,,,,,,,AFNE19.jpg,AFSA05.jpg,AFSA18.jpg,AFNE18.jpg,AFSA18.jpg,FS,4,num_2,16,num_2,1.55015265616,,,2017_May_22_1118,59.9997498362,FEMA4ImagesEEG,001,200445,
AFNE01.JPG,AFNE01.JPG,AFNE01.JPG,AFNE01.JPG,AFNE01.JPG,AFNE01.JPG,0,1,1,0,,,,,,,,,,,,,,,,,,,,,,,AFNE15.jpg,AFSA13.jpg,AFSA16.jpg,AFNE14.jpg,AFSA16.jpg,FS,4,num_2,32,num_8,0.650151982612,,,2017_May_22_1118,59.9997498362,FEMA4ImagesEEG,001,200445,
AFNE01.JPG,AFNE01.JPG,AFNE01.JPG,AFNE01.JPG,AFNE01.JPG,AFNE01.JPG,0,2,2,5,,,,,,,,,,,,,,,,,,,,,,,AFSA19.jpg,AFSA11.jpg,AFNE11.jpg,AFNE10.jpg,AFNE11.jpg,FN,3,num_2,32,num_6,0.866879787645,,,2017_May_22_1118,59.9997498362,FEMA4ImagesEEG,001,200445,
AFNE01.JPG,AFNE01.JPG,AFNE01.JPG,AFNE01.JPG,AFNE01.JPG,AFNE01.JPG,0,3,3,2,,,,,,,,,,,,,,,,,,,,,,,AFNE14.jpg,AFSA15.jpg,AFNE13.jpg,AFSA09.jpg,AFNE13.jpg,FN,3,num_2,32,num_4,0.516757216887,,,2017_May_22_1118,59.9997498362,FEMA4ImagesEEG,001,200445,
AFNE01.JPG,AFNE01.JPG,AFNE01.JPG,AFNE01.JPG,AFNE01.JPG,AFNE01.JPG,0,4,4,6,,,,,,,,,,,,,,,,,,,,,,,AFSA09.jpg,AFNE11.jpg,AFNE13.jpg,AFSA02.jpg,AFNE11.jpg,FN,3,num_6,32,num_8,1.16663945722,,,2017_May_22_1118,59.9997498362,FEMA4ImagesEEG,001,200445,
AFNE01.JPG,AFNE01.JPG,AFNE01.JPG,AFNE01.JPG,AFNE01.JPG,AFNE01.JPG,0,5,5,9,,,,,,,,,,,,,,,,,,,,,,,AFSA02.jpg,AFNE06.jpg,AFNE03.jpg,AFSA04.jpg,AFSA02.jpg,FS,4,num_8,32,num_2,0.399846557993,,,2017_May_22_1118,59.9997498362,FEMA4ImagesEEG,001,200445,
AFNE01.JPG,AFNE01.JPG,AFNE01.JPG,AFNE01.JPG,AFNE01.JPG,AFNE01.JPG,0,6,6,3,,,,,,,,,,,,,,,,,,,,,,,AFNE04.jpg,AFSA14.jpg,AFSA20.jpg,AFNE08.jpg,AFSA20.jpg,FS,4,num_2,32,num_6,0.700140259578,,,2017_May_22_1118,59.9997498362,FEMA4ImagesEEG,001,200445,
AFNE01.JPG,AFNE01.JPG,AFNE01.JPG,AFNE01.JPG,AFNE01.JPG,AFNE01.JPG,0,7,7,8,,,,,,,,,,,,,,,,,,,,,,,AFNE09.jpg,AFSA10.jpg,AFSA08.jpg,AFNE14.jpg,AFNE09.jpg,FN,3,num_8,32,num_4,0.700160786917,,,2017_May_22_1118,59.9997498362,FEMA4ImagesEEG,001,200445,
AFNE01.JPG,AFNE01.JPG,AFNE01.JPG,AFNE01.JPG,AFNE01.JPG,AFNE01.JPG,0,8,8,1,,,,,,,,,,,,,,,,,,,,,,,AFNE06.jpg,AFNE07.jpg,AFSA13.jpg,AFSA19.jpg,AFNE07.jpg,FN,3,num_6,16,num_6,1.50007617573,,,2017_May_22_1118,59.9997498362,FEMA4ImagesEEG,001,200445,
AFNE01.JPG,AFNE01.JPG,AFNE01.JPG,AFNE01.JPG,AFNE01.JPG,AFNE01.JPG,0,9,9,4,,,,,,,,,,,,,,,,,,,,,,,AFSA04.jpg,AFNE03.jpg,AFNE06.jpg,AFSA19.jpg,AFSA04.jpg,FS,4,num_8,16,num_8,0.783487732173,,,2017_May_22_1118,59.9997498362,FEMA4ImagesEEG,001,200445,
AFNE01.JPG,AFNE01.JPG,AFNE01.JPG,AFNE01.JPG,AFNE01.JPG,AFNE01.JPG,1,0,10,8,,,,,,,,,,,,,,,,,,,,,,,AFSA01.jpg,AFSA10.jpg,AFNE18.jpg,AFNE05.jpg,AFNE18.jpg,FN,3,num_2,16,num_2,0.983291054436,,,2017_May_22_1118,59.9997498362,FEMA4ImagesEEG,001,200445,
AFNE01.JPG,AFNE01.JPG,AFNE01.JPG,AFNE01.JPG,AFNE01.JPG,AFNE01.JPG,1,1,11,3,,,,,,,,,,,,,,,,,,,,,,,AFNE17.jpg,AFSA08.jpg,AFNE20.jpg,AFSA02.jpg,AFSA08.jpg,FS,4,num_6,16,num_6,0.75016349717,,,2017_May_22_1118,59.9997498362,FEMA4ImagesEEG,001,200445,
AFNE01.JPG,AFNE01.JPG,AFNE01.JPG,AFNE01.JPG,AFNE01.JPG,AFNE01.JPG,1,2,12,2,,,,,,,,,,,,,,,,,,,,,,,AFNE17.jpg,AFNE18.jpg,AFSA16.jpg,AFSA09.jpg,AFNE17.jpg,FN,3,num_8,16,num_8,1.18349273573,,,2017_May_22_1118,59.9997498362,FEMA4ImagesEEG,001,200445,
AFNE01.JPG,AFNE01.JPG,AFNE01.JPG,AFNE01.JPG,AFNE01.JPG,AFNE01.JPG,1,3,13,5,,,,,,,,,,,,,,,,,,,,,,,AFSA09.jpg,AFNE14.jpg,AFNE05.jpg,AFSA04.jpg,AFSA09.jpg,FS,4,num_8,32,num_2,1.10008592624,,,2017_May_22_1118,59.9997498362,FEMA4ImagesEEG,001,200445,
AFNE01.JPG,AFNE01.JPG,AFNE01.JPG,AFNE01.JPG,AFNE01.JPG,AFNE01.JPG,1,4,14,9,,,,,,,,,,,,,,,,,,,,,,,AFSA11.jpg,AFNE19.jpg,AFSA20.jpg,AFNE16.jpg,AFSA11.jpg,FS,4,num_8,16,num_8,1.21675987903,,,2017_May_22_1118,59.9997498362,FEMA4ImagesEEG,001,200445,
AFNE01.JPG,AFNE01.JPG,AFNE01.JPG,AFNE01.JPG,AFNE01.JPG,AFNE01.JPG,1,5,15,1,,,,,,,,,,,,,,,,,,,,,,,AFSA17.jpg,AFNE08.jpg,AFNE01.jpg,AFSA19.jpg,AFSA19.jpg,FS,4,num_4,32,num_2,1.28349494882,,,2017_May_22_1118,59.9997498362,FEMA4ImagesEEG,001,200445,
AFNE01.JPG,AFNE01.JPG,AFNE01.JPG,AFNE01.JPG,AFNE01.JPG,AFNE01.JPG,1,6,16,6,,,,,,,,,,,,,,,,,,,,,,,AFSA14.jpg,AFNE15.jpg,AFNE02.jpg,AFSA11.jpg,AFNE02.jpg,FN,3,num_2,32,num_6,0.850117278518,,,2017_May_22_1118,59.9997498362,FEMA4ImagesEEG,001,200445,
AFNE01.JPG,AFNE01.JPG,AFNE01.JPG,AFNE01.JPG,AFNE01.JPG,AFNE01.JPG,1,7,17,0,,,,,,,,,,,,,,,,,,,,,,,AFSA07.jpg,AFNE09.jpg,AFNE12.jpg,AFSA05.jpg,AFNE12.jpg,FN,3,num_2,16,num_2,1.3000974087,,,2017_May_22_1118,59.9997498362,FEMA4ImagesEEG,001,200445,
AFNE01.JPG,AFNE01.JPG,AFNE01.JPG,AFNE01.JPG,AFNE01.JPG,AFNE01.JPG,1,8,18,4,,,,,,,,,,,,,,,,,,,,,,,AFNE01.jpg,AFSA20.jpg,AFSA15.jpg,AFNE05.jpg,AFNE05.jpg,FN,3,num_4,32,num_8,1.88336132857,,,2017_May_22_1118,59.9997498362,FEMA4ImagesEEG,001,200445,
AFNE01.JPG,AFNE01.JPG,AFNE01.JPG,AFNE01.JPG,AFNE01.JPG,AFNE01.JPG,1,9,19,7,,,,,,,,,,,,,,,,,,,,,,,AFSA17.jpg,AFSA12.jpg,AFNE16.jpg,AFNE07.jpg,AFSA12.jpg,FS,4,num_6,16,num_6,1.18350684823,,,2017_May_22_1118,59.9997498362,FEMA4ImagesEEG,001,200445,
AFNE01.JPG,AFNE01.JPG,AFNE01.JPG,AFNE01.JPG,AFNE01.JPG,AFNE01.JPG,2,0,20,2,,,,,,,,,,,,,,,,,,,,,,,AFNE06.jpg,AFSA10.jpg,AFNE03.jpg,AFSA18.jpg,AFNE06.jpg,FN,3,num_8,32,num_6,1.15006682614,,,2017_May_22_1118,59.9997498362,FEMA4ImagesEEG,001,200445,
AFNE01.JPG,AFNE01.JPG,AFNE01.JPG,AFNE01.JPG,AFNE01.JPG,AFNE01.JPG,2,1,21,4,,,,,,,,,,,,,,,,,,,,,,,AFNE09.jpg,AFSA07.jpg,AFNE12.jpg,AFSA09.jpg,AFSA07.jpg,FS,4,num_6,16,num_6,0.933492655517,,,2017_May_22_1118,59.9997498362,FEMA4ImagesEEG,001,200445,
AFNE01.JPG,AFNE01.JPG,AFNE01.JPG,AFNE01.JPG,AFNE01.JPG,AFNE01.JPG,2,2,22,1,,,,,,,,,,,,,,,,,,,,,,,AFNE18.jpg,AFSA20.jpg,AFNE06.jpg,AFSA06.jpg,AFNE06.jpg,FN,3,num_2,32,num_8,0.766979569802,,,2017_May_22_1118,59.9997498362,FEMA4ImagesEEG,001,200445,
AFNE01.JPG,AFNE01.JPG,AFNE01.JPG,AFNE01.JPG,AFNE01.JPG,AFNE01.JPG,2,3,23,5,,,,,,,,,,,,,,,,,,,,,,,AFNE18.jpg,AFSA04.jpg,AFNE05.jpg,AFSA15.jpg,AFSA04.jpg,FS,4,num_6,32,num_2,0.983451424458,,,2017_May_22_1118,59.9997498362,FEMA4ImagesEEG,001,200445,
AFNE01.JPG,AFNE01.JPG,AFNE01.JPG,AFNE01.JPG,AFNE01.JPG,AFNE01.JPG,2,4,24,7,,,,,,,,,,,,,,,,,,,,,,,AFNE12.jpg,AFSA04.jpg,AFSA15.jpg,AFNE15.jpg,AFNE15.jpg,FN,3,num_4,32,num_8,2.96656094008,,,2017_May_22_1118,59.9997498362,FEMA4ImagesEEG,001,200445,
AFNE01.JPG,AFNE01.JPG,AFNE01.JPG,AFNE01.JPG,AFNE01.JPG,AFNE01.JPG,2,5,25,8,,,,,,,,,,,,,,,,,,,,,,,AFNE20.jpg,AFNE08.jpg,AFSA03.jpg,AFSA12.jpg,AFSA03.jpg,FS,4,num_2,16,num_2,1.30016251892,,,2017_May_22_1118,59.9997498362,FEMA4ImagesEEG,001,200445,
AFNE01.JPG,AFNE01.JPG,AFNE01.JPG,AFNE01.JPG,AFNE01.JPG,AFNE01.JPG,2,6,26,0,,,,,,,,,,,,,,,,,,,,,,,AFNE04.jpg,AFSA04.jpg,AFSA13.jpg,AFNE02.jpg,AFNE04.jpg,FN,3,num_8,32,num_6,1.26687292382,,,2017_May_22_1118,59.9997498362,FEMA4ImagesEEG,001,200445,
AFNE01.JPG,AFNE01.JPG,AFNE01.JPG,AFNE01.JPG,AFNE01.JPG,AFNE01.JPG,2,7,27,6,,,,,,,,,,,,,,,,,,,,,,,AFSA19.jpg,AFNE14.jpg,AFNE11.jpg,AFSA02.jpg,AFSA19.jpg,FS,4,num_8,16,num_8,1.36660796055,,,2017_May_22_1118,59.9997498362,FEMA4ImagesEEG,001,200445,
AFNE01.JPG,AFNE01.JPG,AFNE01.JPG,AFNE01.JPG,AFNE01.JPG,AFNE01.JPG,2,8,28,9,,,,,,,,,,,,,,,,,,,,,,,AFNE12.jpg,AFSA06.jpg,AFNE03.jpg,AFSA03.jpg,AFNE03.jpg,FN,3,num_2,32,num_6,0.916748428659,,,2017_May_22_1118,59.9997498362,FEMA4ImagesEEG,001,200445,
AFNE01.JPG,AFNE01.JPG,AFNE01.JPG,AFNE01.JPG,AFNE01.JPG,AFNE01.JPG,2,9,29,3,,,,,,,,,,,,,,,,,,,,,,,AFSA15.jpg,AFSA03.jpg,AFNE20.jpg,AFNE12.jpg,AFSA03.jpg,FS,4,num_6,16,num_6,0.716780887509,,,2017_May_22_1118,59.9997498362,FEMA4ImagesEEG,001,200445,
AFNE01.JPG,AFNE01.JPG,AFNE01.JPG,AFNE01.JPG,AFNE01.JPG,AFNE01.JPG,3,0,30,1,,,,,,,,,,,,,,,,,,,,,,,AFNE06.jpg,AFSA15.jpg,AFNE02.jpg,AFSA01.jpg,AFNE02.jpg,FN,3,num_2,16,num_2,0.766811822832,,,2017_May_22_1118,59.9997498362,FEMA4ImagesEEG,001,200445,
AFNE01.JPG,AFNE01.JPG,AFNE01.JPG,AFNE01.JPG,AFNE01.JPG,AFNE01.JPG,3,1,31,3,,,,,,,,,,,,,,,,,,,,,,,AFNE20.jpg,AFSA14.jpg,AFNE13.jpg,AFSA08.jpg,AFSA08.jpg,FS,4,num_4,16,num_4,0.566797132953,,,2017_May_22_1118,59.9997498362,FEMA4ImagesEEG,001,200445,
AFNE01.JPG,AFNE01.JPG,AFNE01.JPG,AFNE01.JPG,AFNE01.JPG,AFNE01.JPG,3,2,32,2,,,,,,,,,,,,,,,,,,,,,,,AFSA18.jpg,AFNE08.jpg,AFSA04.jpg,AFNE01.jpg,AFSA04.jpg,FS,4,num_2,32,num_8,1.35007798794,,,2017_May_22_1118,59.9997498362,FEMA4ImagesEEG,001,200445,
AFNE01.JPG,AFNE01.JPG,AFNE01.JPG,AFNE01.JPG,AFNE01.JPG,AFNE01.JPG,3,3,33,5,,,,,,,,,,,,,,,,,,,,,,,AFNE02.jpg,AFSA15.jpg,AFSA19.jpg,AFNE12.jpg,AFNE02.jpg,FN,3,num_8,32,num_4,1.50005276169,,,2017_May_22_1118,59.9997498362,FEMA4ImagesEEG,001,200445,
AFNE01.JPG,AFNE01.JPG,AFNE01.JPG,AFNE01.JPG,AFNE01.JPG,AFNE01.JPG,3,4,34,7,,,,,,,,,,,,,,,,,,,,,,,AFNE20.jpg,AFNE01.jpg,AFSA19.jpg,AFSA13.jpg,AFNE20.jpg,FN,3,num_8,32,num_6,0.766848707921,,,2017_May_22_1118,59.9997498362,FEMA4ImagesEEG,001,200445,
AFNE01.JPG,AFNE01.JPG,AFNE01.JPG,AFNE01.JPG,AFNE01.JPG,AFNE01.JPG,3,5,35,6,,,,,,,,,,,,,,,,,,,,,,,AFNE11.jpg,AFNE05.jpg,AFSA12.jpg,AFSA19.jpg,AFSA19.jpg,FS,4,num_4,16,num_4,1.21674223832,,,2017_May_22_1118,59.9997498362,FEMA4ImagesEEG,001,200445,
AFNE01.JPG,AFNE01.JPG,AFNE01.JPG,AFNE01.JPG,AFNE01.JPG,AFNE01.JPG,3,6,36,0,,,,,,,,,,,,,,,,,,,,,,,AFSA07.jpg,AFNE16.jpg,AFSA03.jpg,AFNE02.jpg,AFSA07.jpg,FS,4,num_8,32,num_6,0.866725511733,,,2017_May_22_1118,59.9997498362,FEMA4ImagesEEG,001,200445,
AFNE01.JPG,AFNE01.JPG,AFNE01.JPG,AFNE01.JPG,AFNE01.JPG,AFNE01.JPG,3,7,37,8,,,,,,,,,,,,,,,,,,,,,,,AFNE11.jpg,AFSA10.jpg,AFNE08.jpg,AFSA01.jpg,AFNE08.jpg,FN,3,num_2,16,num_2,1.6501609633,,,2017_May_22_1118,59.9997498362,FEMA4ImagesEEG,001,200445,
AFNE01.JPG,AFNE01.JPG,AFNE01.JPG,AFNE01.JPG,AFNE01.JPG,AFNE01.JPG,3,8,38,9,,,,,,,,,,,,,,,,,,,,,,,AFSA18.jpg,AFNE05.jpg,AFSA04.jpg,AFNE06.jpg,AFSA04.jpg,FS,4,num_2,32,num_4,0.733469626401,,,2017_May_22_1118,59.9997498362,FEMA4ImagesEEG,001,200445,
AFNE01.JPG,AFNE01.JPG,AFNE01.JPG,AFNE01.JPG,AFNE01.JPG,AFNE01.JPG,3,9,39,4,,,,,,,,,,,,,,,,,,,,,,,AFSA04.jpg,AFNE12.jpg,AFSA02.jpg,AFNE20.jpg,AFSA02.jpg,FS,4,num_2,32,num_6,0.933416319429,,,2017_May_22_1118,59.9997498362,FEMA4ImagesEEG,001,200445,
AFNE01.JPG,AFNE01.JPG,AFNE01.JPG,AFNE01.JPG,AFNE01.JPG,AFNE01.JPG,4,0,40,6,,,,,,,,,,,,,,,,,,,,,,,AFNE07.jpg,AFSA06.jpg,AFSA11.jpg,AFNE14.jpg,AFNE14.jpg,FN,3,num_4,32,num_2,0.666833344498,,,2017_May_22_1118,59.9997498362,FEMA4ImagesEEG,001,200445,
AFNE01.JPG,AFNE01.JPG,AFNE01.JPG,AFNE01.JPG,AFNE01.JPG,AFNE01.JPG,4,1,41,8,,,,,,,,,,,,,,,,,,,,,,,AFSA20.jpg,AFNE19.jpg,AFSA04.jpg,AFNE17.jpg,AFSA20.jpg,FS,4,num_8,32,num_4,0.98343699117,,,2017_May_22_1118,59.9997498362,FEMA4ImagesEEG,001,200445,
AFNE01.JPG,AFNE01.JPG,AFNE01.JPG,AFNE01.JPG,AFNE01.JPG,AFNE01.JPG,4,2,42,3,,,,,,,,,,,,,,,,,,,,,,,AFSA04.jpg,AFNE02.jpg,AFSA03.jpg,AFNE03.jpg,AFSA03.jpg,FS,4,num_2,32,num_8,2.94996521575,,,2017_May_22_1118,59.9997498362,FEMA4ImagesEEG,001,200445,
AFNE01.JPG,AFNE01.JPG,AFNE01.JPG,AFNE01.JPG,AFNE01.JPG,AFNE01.JPG,4,3,43,5,,,,,,,,,,,,,,,,,,,,,,,AFSA02.jpg,AFNE03.jpg,AFSA15.jpg,AFNE12.jpg,AFSA15.jpg,FS,4,num_2,32,num_8,1.33343928441,,,2017_May_22_1118,59.9997498362,FEMA4ImagesEEG,001,200445,
AFNE01.JPG,AFNE01.JPG,AFNE01.JPG,AFNE01.JPG,AFNE01.JPG,AFNE01.JPG,4,4,44,9,,,,,,,,,,,,,,,,,,,,,,,AFSA20.jpg,AFSA11.jpg,AFNE17.jpg,AFNE06.jpg,AFSA20.jpg,FS,4,num_8,32,num_2,0.666875040741,,,2017_May_22_1118,59.9997498362,FEMA4ImagesEEG,001,200445,
AFNE01.JPG,AFNE01.JPG,AFNE01.JPG,AFNE01.JPG,AFNE01.JPG,AFNE01.JPG,4,5,45,2,,,,,,,,,,,,,,,,,,,,,,,AFNE03.jpg,AFSA18.jpg,AFSA03.jpg,AFNE05.jpg,AFSA03.jpg,FS,4,num_2,32,num_8,0.900125762098,,,2017_May_22_1118,59.9997498362,FEMA4ImagesEEG,001,200445,
AFNE01.JPG,AFNE01.JPG,AFNE01.JPG,AFNE01.JPG,AFNE01.JPG,AFNE01.JPG,4,6,46,1,,,,,,,,,,,,,,,,,,,,,,,AFNE12.jpg,AFSA06.jpg,AFNE10.jpg,AFSA04.jpg,AFSA04.jpg,FS,4,num_4,32,num_2,1.08346967452,,,2017_May_22_1118,59.9997498362,FEMA4ImagesEEG,001,200445,
AFNE01.JPG,AFNE01.JPG,AFNE01.JPG,AFNE01.JPG,AFNE01.JPG,AFNE01.JPG,4,7,47,7,,,,,,,,,,,,,,,,,,,,,,,AFSA03.jpg,AFNE19.jpg,AFSA11.jpg,AFNE05.jpg,AFNE05.jpg,FN,3,num_4,32,num_8,1.36675518024,,,2017_May_22_1118,59.9997498362,FEMA4ImagesEEG,001,200445,
AFNE01.JPG,AFNE01.JPG,AFNE01.JPG,AFNE01.JPG,AFNE01.JPG,AFNE01.JPG,4,8,48,0,,,,,,,,,,,,,,,,,,,,,,,AFSA10.jpg,AFSA08.jpg,AFNE14.jpg,AFNE13.jpg,AFSA08.jpg,FS,4,num_6,32,num_2,1.28342246159,,,2017_May_22_1118,59.9997498362,FEMA4ImagesEEG,001,200445,
AFNE01.JPG,AFNE01.JPG,AFNE01.JPG,AFNE01.JPG,AFNE01.JPG,AFNE01.JPG,4,9,49,4,,,,,,,,,,,,,,,,,,,,,,,AFNE04.jpg,AFSA19.jpg,AFSA09.jpg,AFNE13.jpg,AFSA19.jpg,FS,4,num_6,16,num_6,1.28346768598,,,2017_May_22_1118,59.9997498362,FEMA4ImagesEEG,001,200445,
AFNE01.JPG,AFNE01.JPG,AFNE01.JPG,AFNE01.JPG,AFNE01.JPG,AFNE01.JPG,5,0,50,3,,,,,,,,,,,,,,,,,,,,,,,AFNE14.jpg,AFSA19.jpg,AFNE15.jpg,AFSA10.jpg,AFSA10.jpg,FS,4,num_4,32,num_8,1.10009009583,,,2017_May_22_1118,59.9997498362,FEMA4ImagesEEG,001,200445,
AFNE01.JPG,AFNE01.JPG,AFNE01.JPG,AFNE01.JPG,AFNE01.JPG,AFNE01.JPG,5,1,51,2,,,,,,,,,,,,,,,,,,,,,,,AFSA20.jpg,AFNE03.jpg,AFSA13.jpg,AFNE20.jpg,AFNE03.jpg,FN,3,num_6,32,num_4,1.08343407238,,,2017_May_22_1118,59.9997498362,FEMA4ImagesEEG,001,200445,
AFNE01.JPG,AFNE01.JPG,AFNE01.JPG,AFNE01.JPG,AFNE01.JPG,AFNE01.JPG,5,2,52,5,,,,,,,,,,,,,,,,,,,,,,,AFNE19.jpg,AFNE08.jpg,AFSA02.jpg,AFSA05.jpg,AFSA05.jpg,FS,4,num_4,16,num_4,0.650111248659,,,2017_May_22_1118,59.9997498362,FEMA4ImagesEEG,001,200445,
AFNE01.JPG,AFNE01.JPG,AFNE01.JPG,AFNE01.JPG,AFNE01.JPG,AFNE01.JPG,5,3,53,9,,,,,,,,,,,,,,,,,,,,,,,AFNE18.jpg,AFSA05.jpg,AFSA08.jpg,AFNE16.jpg,AFSA08.jpg,FS,4,num_2,16,num_2,0.966629578441,,,2017_May_22_1118,59.9997498362,FEMA4ImagesEEG,001,200445,
AFNE01.JPG,AFNE01.JPG,AFNE01.JPG,AFNE01.JPG,AFNE01.JPG,AFNE01.JPG,5,4,54,6,,,,,,,,,,,,,,,,,,,,,,,AFSA07.jpg,AFSA15.jpg,AFNE13.jpg,AFNE02.jpg,AFNE02.jpg,FN,3,num_4,32,num_6,0.666766309878,,,2017_May_22_1118,59.9997498362,FEMA4ImagesEEG,001,200445,
AFNE01.JPG,AFNE01.JPG,AFNE01.JPG,AFNE01.JPG,AFNE01.JPG,AFNE01.JPG,5,5,55,7,,,,,,,,,,,,,,,,,,,,,,,AFNE16.jpg,AFSA10.jpg,AFSA18.jpg,AFNE12.jpg,AFSA10.jpg,FS,4,num_6,32,num_4,0.750166704587,,,2017_May_22_1118,59.9997498362,FEMA4ImagesEEG,001,200445,
AFNE01.JPG,AFNE01.JPG,AFNE01.JPG,AFNE01.JPG,AFNE01.JPG,AFNE01.JPG,5,6,56,4,,,,,,,,,,,,,,,,,,,,,,,AFNE03.jpg,AFSA14.jpg,AFNE08.jpg,AFSA01.jpg,AFNE03.jpg,FN,3,num_8,16,num_8,0.999954775674,,,2017_May_22_1118,59.9997498362,FEMA4ImagesEEG,001,200445,
AFNE01.JPG,AFNE01.JPG,AFNE01.JPG,AFNE01.JPG,AFNE01.JPG,AFNE01.JPG,5,7,57,0,,,,,,,,,,,,,,,,,,,,,,,AFSA14.jpg,AFSA19.jpg,AFNE01.jpg,AFNE13.jpg,AFNE13.jpg,FN,3,num_4,32,num_2,0.76688559301,,,2017_May_22_1118,59.9997498362,FEMA4ImagesEEG,001,200445,
AFNE01.JPG,AFNE01.JPG,AFNE01.JPG,AFNE01.JPG,AFNE01.JPG,AFNE01.JPG,5,8,58,1,,,,,,,,,,,,,,,,,,,,,,,AFSA07.jpg,AFSA04.jpg,AFNE03.jpg,AFNE20.jpg,AFNE03.jpg,FN,3,num_2,32,num_4,0.76675152377,,,2017_May_22_1118,59.9997498362,FEMA4ImagesEEG,001,200445,
AFNE01.JPG,AFNE01.JPG,AFNE01.JPG,AFNE01.JPG,AFNE01.JPG,AFNE01.JPG,5,9,59,8,,,,,,,,,,,,,,,,,,,,,,,AFNE19.jpg,AFSA09.jpg,AFSA12.jpg,AFNE03.jpg,AFSA12.jpg,FS,4,num_2,32,num_6,0.666786195769,,,2017_May_22_1118,59.9997498362,FEMA4ImagesEEG,001,200445,
,,,,,,,,,,,,,,,,,,,,,,,,,,,,,,,,,,,,,,,,,,,space,34.2142475233,2017_May_22_1118,59.9997498362,FEMA4ImagesEEG,001,200445,
AFNE01.JPG,AFNE01.JPG,AFNE01.JPG,AFNE01.JPG,AFNE01.JPG,AFNE01.JPG,,,,,0,0,0,4,,,,,,,,,,,,,,,,,,,AMNE18.jpg,AMSA19.jpg,AMNE16.jpg,AMSA01.jpg,AMSA19.jpg,MS,2,num_6,16,num_6,0.666843287472,,,2017_May_22_1118,59.9997498362,FEMA4ImagesEEG,001,200445,
AFNE01.JPG,AFNE01.JPG,AFNE01.JPG,AFNE01.JPG,AFNE01.JPG,AFNE01.JPG,,,,,0,1,1,5,,,,,,,,,,,,,,,,,,,AMSA07.jpg,AMNE08.jpg,AMNE20.jpg,AMSA01.jpg,AMNE08.jpg,MN,1,num_6,16,num_6,0.933424658666,,,2017_May_22_1118,59.9997498362,FEMA4ImagesEEG,001,200445,
AFNE01.JPG,AFNE01.JPG,AFNE01.JPG,AFNE01.JPG,AFNE01.JPG,AFNE01.JPG,,,,,0,2,2,3,,,,,,,,,,,,,,,,,,,AMNE11.jpg,AMSA01.jpg,AMNE09.jpg,AMSA19.jpg,AMSA19.jpg,MS,2,num_4,32,num_8,1.28352253244,,,2017_May_22_1118,59.9997498362,FEMA4ImagesEEG,001,200445,
AFNE01.JPG,AFNE01.JPG,AFNE01.JPG,AFNE01.JPG,AFNE01.JPG,AFNE01.JPG,,,,,0,3,3,1,,,,,,,,,,,,,,,,,,,AMSA20.jpg,AMNE03.jpg,AMSA12.jpg,AMNE06.jpg,AMNE03.jpg,MN,1,num_6,32,num_2,0.883443117258,,,2017_May_22_1118,59.9997498362,FEMA4ImagesEEG,001,200445,
AFNE01.JPG,AFNE01.JPG,AFNE01.JPG,AFNE01.JPG,AFNE01.JPG,AFNE01.JPG,,,,,0,4,4,8,,,,,,,,,,,,,,,,,,,AMNE15.jpg,AMNE04.jpg,AMSA12.jpg,AMSA10.jpg,AMNE15.jpg,MN,1,num_8,16,num_8,0.916767993767,,,2017_May_22_1118,59.9997498362,FEMA4ImagesEEG,001,200445,
AFNE01.JPG,AFNE01.JPG,AFNE01.JPG,AFNE01.JPG,AFNE01.JPG,AFNE01.JPG,,,,,0,5,5,2,,,,,,,,,,,,,,,,,,,AMSA19.jpg,AMSA17.jpg,AMNE06.jpg,AMNE04.jpg,AMSA17.jpg,MS,2,num_6,32,num_4,0.383600440167,,,2017_May_22_1118,59.9997498362,FEMA4ImagesEEG,001,200445,
AFNE01.JPG,AFNE01.JPG,AFNE01.JPG,AFNE01.JPG,AFNE01.JPG,AFNE01.JPG,,,,,0,6,6,7,,,,,,,,,,,,,,,,,,,AMNE18.jpg,AMSA05.jpg,AMSA17.jpg,AMNE06.jpg,AMNE18.jpg,MN,1,num_8,32,num_6,1.03342045698,,,2017_May_22_1118,59.9997498362,FEMA4ImagesEEG,001,200445,
AFNE01.JPG,AFNE01.JPG,AFNE01.JPG,AFNE01.JPG,AFNE01.JPG,AFNE01.JPG,,,,,0,7,7,9,,,,,,,,,,,,,,,,,,,AMNE13.jpg,AMSA19.jpg,AMSA05.jpg,AMNE04.jpg,AMSA05.jpg,MS,2,num_2,32,num_8,0.766730996373,,,2017_May_22_1118,59.9997498362,FEMA4ImagesEEG,001,200445,
AFNE01.JPG,AFNE01.JPG,AFNE01.JPG,AFNE01.JPG,AFNE01.JPG,AFNE01.JPG,,,,,0,8,8,6,,,,,,,,,,,,,,,,,,,AMSA13.jpg,AMNE17.jpg,AMSA17.jpg,AMNE03.jpg,AMNE03.jpg,MN,1,num_4,32,num_2,0.883140659484,,,2017_May_22_1118,59.9997498362,FEMA4ImagesEEG,001,200445,
AFNE01.JPG,AFNE01.JPG,AFNE01.JPG,AFNE01.JPG,AFNE01.JPG,AFNE01.JPG,,,,,0,9,9,0,,,,,,,,,,,,,,,,,,,AMSA17.jpg,AMNE13.jpg,AMNE02.jpg,AMSA15.jpg,AMSA17.jpg,MS,2,num_8,32,num_4,0.550184730149,,,2017_May_22_1118,59.9997498362,FEMA4ImagesEEG,001,200445,
AFNE01.JPG,AFNE01.JPG,AFNE01.JPG,AFNE01.JPG,AFNE01.JPG,AFNE01.JPG,,,,,1,0,10,3,,,,,,,,,,,,,,,,,,,AMSA15.jpg,AMNE19.jpg,AMSA10.jpg,AMNE08.jpg,AMSA15.jpg,MS,2,num_8,16,num_8,0.733459683484,,,2017_May_22_1118,59.9997498362,FEMA4ImagesEEG,001,200445,
AFNE01.JPG,AFNE01.JPG,AFNE01.JPG,AFNE01.JPG,AFNE01.JPG,AFNE01.JPG,,,,,1,1,11,4,,,,,,,,,,,,,,,,,,,AMNE15.jpg,AMSA18.jpg,AMSA13.jpg,AMNE01.jpg,AMSA18.jpg,MS,2,num_6,32,num_2,0.700156617328,,,2017_May_22_1118,59.9997498362,FEMA4ImagesEEG,001,200445,
AFNE01.JPG,AFNE01.JPG,AFNE01.JPG,AFNE01.JPG,AFNE01.JPG,AFNE01.JPG,,,,,1,2,12,8,,,,,,,,,,,,,,,,,,,AMNE16.jpg,AMSA20.jpg,AMNE15.jpg,AMSA10.jpg,AMSA20.jpg,MS,2,num_6,16,num_6,0.633462602214,,,2017_May_22_1118,59.9997498362,FEMA4ImagesEEG,001,200445,
AFNE01.JPG,AFNE01.JPG,AFNE01.JPG,AFNE01.JPG,AFNE01.JPG,AFNE01.JPG,,,,,1,3,13,7,,,,,,,,,,,,,,,,,,,AMNE05.jpg,AMNE12.jpg,AMSA04.jpg,AMSA20.jpg,AMNE05.jpg,MN,1,num_8,16,num_8,0.900175476796,,,2017_May_22_1118,59.9997498362,FEMA4ImagesEEG,001,200445,
AFNE01.JPG,AFNE01.JPG,AFNE01.JPG,AFNE01.JPG,AFNE01.JPG,AFNE01.JPG,,,,,1,4,14,2,,,,,,,,,,,,,,,,,,,AMNE19.jpg,AMNE07.jpg,AMSA14.jpg,AMSA11.jpg,AMNE07.jpg,MN,1,num_6,16,num_6,0.633503336168,,,2017_May_22_1118,59.9997498362,FEMA4ImagesEEG,001,200445,
AFNE01.JPG,AFNE01.JPG,AFNE01.JPG,AFNE01.JPG,AFNE01.JPG,AFNE01.JPG,,,,,1,5,15,1,,,,,,,,,,,,,,,,,,,AMSA18.jpg,AMNE12.jpg,AMNE09.jpg,AMSA03.jpg,AMNE09.jpg,MN,1,num_2,32,num_6,0.81676000735,,,2017_May_22_1118,59.9997498362,FEMA4ImagesEEG,001,200445,
AFNE01.JPG,AFNE01.JPG,AFNE01.JPG,AFNE01.JPG,AFNE01.JPG,AFNE01.JPG,,,,,1,6,16,5,,,,,,,,,,,,,,,,,,,AMSA20.jpg,AMNE06.jpg,AMNE04.jpg,AMSA18.jpg,AMNE06.jpg,MN,1,num_6,16,num_6,1.20009070524,,,2017_May_22_1118,59.9997498362,FEMA4ImagesEEG,001,200445,
AFNE01.JPG,AFNE01.JPG,AFNE01.JPG,AFNE01.JPG,AFNE01.JPG,AFNE01.JPG,,,,,1,7,17,6,,,,,,,,,,,,,,,,,,,AMNE18.jpg,AMSA20.jpg,AMNE16.jpg,AMSA03.jpg,AMSA20.jpg,MS,2,num_6,16,num_6,1.11678075918,,,2017_May_22_1118,59.9997498362,FEMA4ImagesEEG,001,200445,
AFNE01.JPG,AFNE01.JPG,AFNE01.JPG,AFNE01.JPG,AFNE01.JPG,AFNE01.JPG,,,,,1,8,18,0,,,,,,,,,,,,,,,,,,,AMNE11.jpg,AMSA17.jpg,AMNE14.jpg,AMSA02.jpg,AMNE14.jpg,MN,1,num_2,32,num_8,0.900140836893,,,2017_May_22_1118,59.9997498362,FEMA4ImagesEEG,001,200445,
AFNE01.JPG,AFNE01.JPG,AFNE01.JPG,AFNE01.JPG,AFNE01.JPG,AFNE01.JPG,,,,,1,9,19,9,,,,,,,,,,,,,,,,,,,AMSA11.jpg,AMNE17.jpg,AMSA06.jpg,AMNE13.jpg,AMNE13.jpg,MN,1,num_4,32,num_6,0.866776830109,,,2017_May_22_1118,59.9997498362,FEMA4ImagesEEG,001,200445,
AFNE01.JPG,AFNE01.JPG,AFNE01.JPG,AFNE01.JPG,AFNE01.JPG,AFNE01.JPG,,,,,2,0,20,3,,,,,,,,,,,,,,,,,,,AMSA10.jpg,AMNE13.jpg,AMSA14.jpg,AMNE03.jpg,AMSA14.jpg,MS,2,num_2,16,num_2,0.45014819788,,,2017_May_22_1118,59.9997498362,FEMA4ImagesEEG,001,200445,
AFNE01.JPG,AFNE01.JPG,AFNE01.JPG,AFNE01.JPG,AFNE01.JPG,AFNE01.JPG,,,,,2,1,21,0,,,,,,,,,,,,,,,,,,,AMSA17.jpg,AMNE14.jpg,AMSA08.jpg,AMNE09.jpg,AMSA17.jpg,MS,2,num_8,16,num_8,0.650100343511,,,2017_May_22_1118,59.9997498362,FEMA4ImagesEEG,001,200445,
AFNE01.JPG,AFNE01.JPG,AFNE01.JPG,AFNE01.JPG,AFNE01.JPG,AFNE01.JPG,,,,,2,2,22,1,,,,,,,,,,,,,,,,,,,AMNE19.jpg,AMNE02.jpg,AMSA11.jpg,AMSA09.jpg,AMSA11.jpg,MS,2,num_2,16,num_2,0.616804975085,,,2017_May_22_1118,59.9997498362,FEMA4ImagesEEG,001,200445,
AFNE01.JPG,AFNE01.JPG,AFNE01.JPG,AFNE01.JPG,AFNE01.JPG,AFNE01.JPG,,,,,2,3,23,7,,,,,,,,,,,,,,,,,,,AMNE19.jpg,AMNE14.jpg,AMSA04.jpg,AMSA08.jpg,AMNE14.jpg,MN,1,num_6,32,num_8,2.74999446725,,,2017_May_22_1118,59.9997498362,FEMA4ImagesEEG,001,200445,
AFNE01.JPG,AFNE01.JPG,AFNE01.JPG,AFNE01.JPG,AFNE01.JPG,AFNE01.JPG,,,,,2,4,24,6,,,,,,,,,,,,,,,,,,,AMNE12.jpg,AMSA17.jpg,AMNE05.jpg,AMSA13.jpg,AMSA13.jpg,MS,2,num_4,16,num_4,0.916797181068,,,2017_May_22_1118,59.9997498362,FEMA4ImagesEEG,001,200445,
AFNE01.JPG,AFNE01.JPG,AFNE01.JPG,AFNE01.JPG,AFNE01.JPG,AFNE01.JPG,,,,,2,5,25,9,,,,,,,,,,,,,,,,,,,AMSA10.jpg,AMNE16.jpg,AMSA02.jpg,AMNE18.jpg,AMSA02.jpg,MS,2,num_2,16,num_2,0.966754666995,,,2017_May_22_1118,59.9997498362,FEMA4ImagesEEG,001,200445,
AFNE01.JPG,AFNE01.JPG,AFNE01.JPG,AFNE01.JPG,AFNE01.JPG,AFNE01.JPG,,,,,2,6,26,4,,,,,,,,,,,,,,,,,,,AMNE07.jpg,AMNE06.jpg,AMSA08.jpg,AMSA02.jpg,AMSA08.jpg,MS,2,num_2,16,num_2,0.900136667246,,,2017_May_22_1118,59.9997498362,FEMA4ImagesEEG,001,200445,
AFNE01.JPG,AFNE01.JPG,AFNE01.JPG,AFNE01.JPG,AFNE01.JPG,AFNE01.JPG,,,,,2,7,27,2,,,,,,,,,,,,,,,,,,,AMSA08.jpg,AMSA15.jpg,AMNE16.jpg,AMNE11.jpg,AMNE11.jpg,MN,1,num_4,16,num_4,1.11678813625,,,2017_May_22_1118,59.9997498362,FEMA4ImagesEEG,001,200445,
AFNE01.JPG,AFNE01.JPG,AFNE01.JPG,AFNE01.JPG,AFNE01.JPG,AFNE01.JPG,,,,,2,8,28,8,,,,,,,,,,,,,,,,,,,AMSA20.jpg,AMNE09.jpg,AMSA07.jpg,AMNE07.jpg,AMSA20.jpg,MS,2,num_8,32,num_6,1.21674961539,,,2017_May_22_1118,59.9997498362,FEMA4ImagesEEG,001,200445,
AFNE01.JPG,AFNE01.JPG,AFNE01.JPG,AFNE01.JPG,AFNE01.JPG,AFNE01.JPG,,,,,2,9,29,5,,,,,,,,,,,,,,,,,,,AMNE15.jpg,AMNE10.jpg,AMSA02.jpg,AMSA08.jpg,AMNE15.jpg,MN,1,num_8,32,num_6,0.900128648791,,,2017_May_22_1118,59.9997498362,FEMA4ImagesEEG,001,200445,
AFNE01.JPG,AFNE01.JPG,AFNE01.JPG,AFNE01.JPG,AFNE01.JPG,AFNE01.JPG,,,,,3,0,30,1,,,,,,,,,,,,,,,,,,,AMSA02.jpg,AMSA01.jpg,AMNE05.jpg,AMNE04.jpg,AMSA02.jpg,MS,2,num_8,32,num_6,0.716785698547,,,2017_May_22_1118,59.9997498362,FEMA4ImagesEEG,001,200445,
AFNE01.JPG,AFNE01.JPG,AFNE01.JPG,AFNE01.JPG,AFNE01.JPG,AFNE01.JPG,,,,,3,1,31,3,,,,,,,,,,,,,,,,,,,AMNE11.jpg,AMSA17.jpg,AMSA02.jpg,AMNE07.jpg,AMNE07.jpg,MN,1,num_4,16,num_4,0.88345530536,,,2017_May_22_1118,59.9997498362,FEMA4ImagesEEG,001,200445,
AFNE01.JPG,AFNE01.JPG,AFNE01.JPG,AFNE01.JPG,AFNE01.JPG,AFNE01.JPG,,,,,3,2,32,7,,,,,,,,,,,,,,,,,,,AMSA10.jpg,AMNE20.jpg,AMSA18.jpg,AMNE05.jpg,AMNE20.jpg,MN,1,num_6,16,num_6,1.08310403099,,,2017_May_22_1118,59.9997498362,FEMA4ImagesEEG,001,200445,
AFNE01.JPG,AFNE01.JPG,AFNE01.JPG,AFNE01.JPG,AFNE01.JPG,AFNE01.JPG,,,,,3,3,33,4,,,,,,,,,,,,,,,,,,,AMSA02.jpg,AMNE17.jpg,AMSA04.jpg,AMNE04.jpg,AMNE04.jpg,MN,1,num_4,16,num_4,0.70013352402,,,2017_May_22_1118,59.9997498362,FEMA4ImagesEEG,001,200445,
AFNE01.JPG,AFNE01.JPG,AFNE01.JPG,AFNE01.JPG,AFNE01.JPG,AFNE01.JPG,,,,,3,4,34,5,,,,,,,,,,,,,,,,,,,AMSA20.jpg,AMSA17.jpg,AMNE14.jpg,AMNE18.jpg,AMSA17.jpg,MS,2,num_6,16,num_6,1.01674358541,,,2017_May_22_1118,59.9997498362,FEMA4ImagesEEG,001,200445,
AFNE01.JPG,AFNE01.JPG,AFNE01.JPG,AFNE01.JPG,AFNE01.JPG,AFNE01.JPG,,,,,3,5,35,0,,,,,,,,,,,,,,,,,,,AMSA09.jpg,AMNE15.jpg,AMSA12.jpg,AMNE04.jpg,AMNE04.jpg,MN,1,num_4,16,num_4,0.450185082969,,,2017_May_22_1118,59.9997498362,FEMA4ImagesEEG,001,200445,
AFNE01.JPG,AFNE01.JPG,AFNE01.JPG,AFNE01.JPG,AFNE01.JPG,AFNE01.JPG,,,,,3,6,36,2,,,,,,,,,,,,,,,,,,,AMSA06.jpg,AMNE02.jpg,AMNE12.jpg,AMSA15.jpg,AMSA06.jpg,MS,2,num_8,32,num_6,0.950115963526,,,2017_May_22_1118,59.9997498362,FEMA4ImagesEEG,001,200445,
AFNE01.JPG,AFNE01.JPG,AFNE01.JPG,AFNE01.JPG,AFNE01.JPG,AFNE01.JPG,,,,,3,7,37,8,,,,,,,,,,,,,,,,,,,AMSA09.jpg,AMSA06.jpg,AMNE12.jpg,AMNE17.jpg,AMSA06.jpg,MS,2,num_6,32,num_8,1.2334338639,,,2017_May_22_1118,59.9997498362,FEMA4ImagesEEG,001,200445,
AFNE01.JPG,AFNE01.JPG,AFNE01.JPG,AFNE01.JPG,AFNE01.JPG,AFNE01.JPG,,,,,3,8,38,9,,,,,,,,,,,,,,,,,,,AMNE20.jpg,AMNE19.jpg,AMSA14.jpg,AMSA02.jpg,AMSA14.jpg,MS,2,num_2,16,num_2,0.450360848452,,,2017_May_22_1118,59.9997498362,FEMA4ImagesEEG,001,200445,
AFNE01.JPG,AFNE01.JPG,AFNE01.JPG,AFNE01.JPG,AFNE01.JPG,AFNE01.JPG,,,,,3,9,39,6,,,,,,,,,,,,,,,,,,,AMSA15.jpg,AMNE05.jpg,AMSA14.jpg,AMNE14.jpg,AMSA14.jpg,MS,2,num_2,16,num_2,0.900101385894,,,2017_May_22_1118,59.9997498362,FEMA4ImagesEEG,001,200445,
AFNE01.JPG,AFNE01.JPG,AFNE01.JPG,AFNE01.JPG,AFNE01.JPG,AFNE01.JPG,,,,,4,0,40,6,,,,,,,,,,,,,,,,,,,AMNE10.jpg,AMSA08.jpg,AMSA02.jpg,AMNE03.jpg,AMNE10.jpg,MN,1,num_8,32,num_6,0.850132994761,,,2017_May_22_1118,59.9997498362,FEMA4ImagesEEG,001,200445,
AFNE01.JPG,AFNE01.JPG,AFNE01.JPG,AFNE01.JPG,AFNE01.JPG,AFNE01.JPG,,,,,4,1,41,9,,,,,,,,,,,,,,,,,,,AMNE03.jpg,AMSA20.jpg,AMSA10.jpg,AMNE18.jpg,AMNE03.jpg,MN,1,num_8,32,num_4,1.00009622192,,,2017_May_22_1118,59.9997498362,FEMA4ImagesEEG,001,200445,
AFNE01.JPG,AFNE01.JPG,AFNE01.JPG,AFNE01.JPG,AFNE01.JPG,AFNE01.JPG,,,,,4,2,42,1,,,,,,,,,,,,,,,,,,,AMSA07.jpg,AMNE10.jpg,AMSA04.jpg,AMNE14.jpg,AMNE14.jpg,MN,1,num_4,32,num_2,0.533473539399,,,2017_May_22_1118,59.9997498362,FEMA4ImagesEEG,001,200445,
AFNE01.JPG,AFNE01.JPG,AFNE01.JPG,AFNE01.JPG,AFNE01.JPG,AFNE01.JPG,,,,,4,3,43,7,,,,,,,,,,,,,,,,,,,AMSA04.jpg,AMNE16.jpg,AMSA12.jpg,AMNE17.jpg,AMSA04.jpg,MS,2,num_8,16,num_8,0.816864568507,,,2017_May_22_1118,59.9997498362,FEMA4ImagesEEG,001,200445,
AFNE01.JPG,AFNE01.JPG,AFNE01.JPG,AFNE01.JPG,AFNE01.JPG,AFNE01.JPG,,,,,4,4,44,2,,,,,,,,,,,,,,,,,,,AMNE01.jpg,AMSA07.jpg,AMNE06.jpg,AMSA14.jpg,AMSA07.jpg,MS,2,num_6,32,num_2,1.46673975256,,,2017_May_22_1118,59.9997498362,FEMA4ImagesEEG,001,200445,
AFNE01.JPG,AFNE01.JPG,AFNE01.JPG,AFNE01.JPG,AFNE01.JPG,AFNE01.JPG,,,,,4,5,45,5,,,,,,,,,,,,,,,,,,,AMSA11.jpg,AMNE03.jpg,AMNE04.jpg,AMSA15.jpg,AMSA11.jpg,MS,2,num_8,16,num_8,1.01675609429,,,2017_May_22_1118,59.9997498362,FEMA4ImagesEEG,001,200445,
AFNE01.JPG,AFNE01.JPG,AFNE01.JPG,AFNE01.JPG,AFNE01.JPG,AFNE01.JPG,,,,,4,6,46,4,,,,,,,,,,,,,,,,,,,AMSA03.jpg,AMNE01.jpg,AMNE18.jpg,AMSA14.jpg,AMSA03.jpg,MS,2,num_8,32,num_4,0.450164234848,,,2017_May_22_1118,59.9997498362,FEMA4ImagesEEG,001,200445,
AFNE01.JPG,AFNE01.JPG,AFNE01.JPG,AFNE01.JPG,AFNE01.JPG,AFNE01.JPG,,,,,4,7,47,8,,,,,,,,,,,,,,,,,,,AMNE03.jpg,AMNE07.jpg,AMSA16.jpg,AMSA14.jpg,AMSA16.jpg,MS,2,num_2,32,num_8,0.883445362444,,,2017_May_22_1118,59.9997498362,FEMA4ImagesEEG,001,200445,
AFNE01.JPG,AFNE01.JPG,AFNE01.JPG,AFNE01.JPG,AFNE01.JPG,AFNE01.JPG,,,,,4,8,48,0,,,,,,,,,,,,,,,,,,,AMSA04.jpg,AMNE11.jpg,AMSA03.jpg,AMNE16.jpg,AMSA03.jpg,MS,2,num_2,32,num_8,0.883174657996,,,2017_May_22_1118,59.9997498362,FEMA4ImagesEEG,001,200445,
AFNE01.JPG,AFNE01.JPG,AFNE01.JPG,AFNE01.JPG,AFNE01.JPG,AFNE01.JPG,,,,,4,9,49,3,,,,,,,,,,,,,,,,,,,AMNE05.jpg,AMSA15.jpg,AMNE10.jpg,AMSA06.jpg,AMSA15.jpg,MS,2,num_6,16,num_6,0.483487828402,,,2017_May_22_1118,59.9997498362,FEMA4ImagesEEG,001,200445,
AFNE01.JPG,AFNE01.JPG,AFNE01.JPG,AFNE01.JPG,AFNE01.JPG,AFNE01.JPG,,,,,5,0,50,0,,,,,,,,,,,,,,,,,,,AMSA06.jpg,AMNE04.jpg,AMSA14.jpg,AMNE01.jpg,AMSA06.jpg,MS,2,num_8,16,num_8,1.10013435798,,,2017_May_22_1118,59.9997498362,FEMA4ImagesEEG,001,200445,
AFNE01.JPG,AFNE01.JPG,AFNE01.JPG,AFNE01.JPG,AFNE01.JPG,AFNE01.JPG,,,,,5,1,51,4,,,,,,,,,,,,,,,,,,,AMSA05.jpg,AMNE10.jpg,AMNE02.jpg,AMSA16.jpg,AMNE10.jpg,MN,1,num_6,16,num_6,0.866770094552,,,2017_May_22_1118,59.9997498362,FEMA4ImagesEEG,001,200445,
AFNE01.JPG,AFNE01.JPG,AFNE01.JPG,AFNE01.JPG,AFNE01.JPG,AFNE01.JPG,,,,,5,2,52,6,,,,,,,,,,,,,,,,,,,AMNE20.jpg,AMSA08.jpg,AMNE16.jpg,AMSA16.jpg,AMNE20.jpg,MN,1,num_8,16,num_8,0.81667052093,,,2017_May_22_1118,59.9997498362,FEMA4ImagesEEG,001,200445,
AFNE01.JPG,AFNE01.JPG,AFNE01.JPG,AFNE01.JPG,AFNE01.JPG,AFNE01.JPG,,,,,5,3,53,5,,,,,,,,,,,,,,,,,,,AMSA11.jpg,AMNE10.jpg,AMSA02.jpg,AMNE18.jpg,AMNE18.jpg,MN,1,num_4,16,num_4,0.766847745748,,,2017_May_22_1118,59.9997498362,FEMA4ImagesEEG,001,200445,
AFNE01.JPG,AFNE01.JPG,AFNE01.JPG,AFNE01.JPG,AFNE01.JPG,AFNE01.JPG,,,,,5,4,54,7,,,,,,,,,,,,,,,,,,,AMNE02.jpg,AMNE15.jpg,AMSA13.jpg,AMSA16.jpg,AMNE02.jpg,MN,1,num_8,16,num_8,1.20011860959,,,2017_May_22_1118,59.9997498362,FEMA4ImagesEEG,001,200445,
AFNE01.JPG,AFNE01.JPG,AFNE01.JPG,AFNE01.JPG,AFNE01.JPG,AFNE01.JPG,,,,,5,5,55,2,,,,,,,,,,,,,,,,,,,AMNE07.jpg,AMNE01.jpg,AMSA01.jpg,AMSA17.jpg,AMSA01.jpg,MS,2,num_2,16,num_2,0.933475656318,,,2017_May_22_1118,59.9997498362,FEMA4ImagesEEG,001,200445,
AFNE01.JPG,AFNE01.JPG,AFNE01.JPG,AFNE01.JPG,AFNE01.JPG,AFNE01.JPG,,,,,5,6,56,1,,,,,,,,,,,,,,,,,,,AMSA06.jpg,AMSA16.jpg,AMNE19.jpg,AMNE20.jpg,AMSA06.jpg,MS,2,num_8,32,num_4,1.16676935693,,,2017_May_22_1118,59.9997498362,FEMA4ImagesEEG,001,200445,
AFNE01.JPG,AFNE01.JPG,AFNE01.JPG,AFNE01.JPG,AFNE01.JPG,AFNE01.JPG,,,,,5,7,57,3,,,,,,,,,,,,,,,,,,,AMSA07.jpg,AMNE20.jpg,AMSA09.jpg,AMNE09.jpg,AMNE20.jpg,MN,1,num_6,16,num_6,0.483456395858,,,2017_May_22_1118,59.9997498362,FEMA4ImagesEEG,001,200445,
AFNE01.JPG,AFNE01.JPG,AFNE01.JPG,AFNE01.JPG,AFNE01.JPG,AFNE01.JPG,,,,,5,8,58,9,,,,,,,,,,,,,,,,,,,AMSA08.jpg,AMNE18.jpg,AMNE02.jpg,AMSA19.jpg,AMSA08.jpg,MS,2,num_8,32,num_6,0.766762428917,,,2017_May_22_1118,59.9997498362,FEMA4ImagesEEG,001,200445,
AFNE01.JPG,AFNE01.JPG,AFNE01.JPG,AFNE01.JPG,AFNE01.JPG,AFNE01.JPG,,,,,5,9,59,8,,,,,,,,,,,,,,,,,,,AMSA01.jpg,AMNE16.jpg,AMSA18.jpg,AMNE17.jpg,AMNE16.jpg,MN,1,num_6,32,num_4,1.65009841905,,,2017_May_22_1118,59.9997498362,FEMA4ImagesEEG,001,200445,
,,,,,,,,,,,,,,,,,,,,,,,,,,,,,,,,,,,,,,,,,,,space,34.8474775892,2017_May_22_1118,59.9997498362,FEMA4ImagesEEG,001,200445,
AFNE01.JPG,AFNE01.JPG,AFNE01.JPG,AFNE01.JPG,AFNE01.JPG,AFNE01.JPG,,,,,,,,,0,0,0,1,,,,,,,,,,,,,,,AFSA10.jpg,AFSA01.jpg,AFNE07.jpg,AFNE05.jpg,AFSA01.jpg,FS,4,num_6,16,num_6,0.550139185041,,,2017_May_22_1118,59.9997498362,FEMA4ImagesEEG,001,200445,
AFNE01.JPG,AFNE01.JPG,AFNE01.JPG,AFNE01.JPG,AFNE01.JPG,AFNE01.JPG,,,,,,,,,0,1,1,7,,,,,,,,,,,,,,,AFNE12.jpg,AFSA01.jpg,AFSA18.jpg,AFNE06.jpg,AFSA01.jpg,FS,4,num_6,16,num_6,0.766633491497,,,2017_May_22_1118,59.9997498362,FEMA4ImagesEEG,001,200445,
AFNE01.JPG,AFNE01.JPG,AFNE01.JPG,AFNE01.JPG,AFNE01.JPG,AFNE01.JPG,,,,,,,,,0,2,2,6,,,,,,,,,,,,,,,AFNE04.jpg,AFNE02.jpg,AFSA12.jpg,AFSA11.jpg,AFNE04.jpg,FN,3,num_8,16,num_8,0.833500385401,,,2017_May_22_1118,59.9997498362,FEMA4ImagesEEG,001,200445,
AFNE01.JPG,AFNE01.JPG,AFNE01.JPG,AFNE01.JPG,AFNE01.JPG,AFNE01.JPG,,,,,,,,,0,3,3,4,,,,,,,,,,,,,,,AFNE06.jpg,AFNE02.jpg,AFSA13.jpg,AFSA04.jpg,AFSA04.jpg,FS,4,num_4,16,num_4,0.466807749413,,,2017_May_22_1118,59.9997498362,FEMA4ImagesEEG,001,200445,
AFNE01.JPG,AFNE01.JPG,AFNE01.JPG,AFNE01.JPG,AFNE01.JPG,AFNE01.JPG,,,,,,,,,0,4,4,8,,,,,,,,,,,,,,,AFSA20.jpg,AFNE10.jpg,AFNE07.jpg,AFSA19.jpg,AFNE10.jpg,FN,3,num_6,16,num_6,0.783464638924,,,2017_May_22_1118,59.9997498362,FEMA4ImagesEEG,001,200445,
AFNE01.JPG,AFNE01.JPG,AFNE01.JPG,AFNE01.JPG,AFNE01.JPG,AFNE01.JPG,,,,,,,,,0,5,5,3,,,,,,,,,,,,,,,AFSA19.jpg,AFNE07.jpg,AFSA08.jpg,AFNE18.jpg,AFSA08.jpg,FS,4,num_2,16,num_2,1.21666910965,,,2017_May_22_1118,59.9997498362,FEMA4ImagesEEG,001,200445,
AFNE01.JPG,AFNE01.JPG,AFNE01.JPG,AFNE01.JPG,AFNE01.JPG,AFNE01.JPG,,,,,,,,,0,6,6,0,,,,,,,,,,,,,,,AFNE06.jpg,AFSA11.jpg,AFNE15.jpg,AFSA01.jpg,AFSA01.jpg,FS,4,num_4,32,num_6,0.966762364784,,,2017_May_22_1118,59.9997498362,FEMA4ImagesEEG,001,200445,
AFNE01.JPG,AFNE01.JPG,AFNE01.JPG,AFNE01.JPG,AFNE01.JPG,AFNE01.JPG,,,,,,,,,0,7,7,2,,,,,,,,,,,,,,,AFSA19.jpg,AFNE02.jpg,AFNE10.jpg,AFSA04.jpg,AFSA04.jpg,FS,4,num_4,32,num_6,1.05009380041,,,2017_May_22_1118,59.9997498362,FEMA4ImagesEEG,001,200445,
AFNE01.JPG,AFNE01.JPG,AFNE01.JPG,AFNE01.JPG,AFNE01.JPG,AFNE01.JPG,,,,,,,,,0,8,8,9,,,,,,,,,,,,,,,AFSA04.jpg,AFNE16.jpg,AFSA12.jpg,AFNE06.jpg,AFSA04.jpg,FS,4,num_8,16,num_8,0.550181202008,,,2017_May_22_1118,59.9997498362,FEMA4ImagesEEG,001,200445,
AFNE01.JPG,AFNE01.JPG,AFNE01.JPG,AFNE01.JPG,AFNE01.JPG,AFNE01.JPG,,,,,,,,,0,9,9,5,,,,,,,,,,,,,,,AFNE11.jpg,AFSA06.jpg,AFSA05.jpg,AFNE13.jpg,AFSA06.jpg,FS,4,num_6,32,num_4,0.750144573511,,,2017_May_22_1118,59.9997498362,FEMA4ImagesEEG,001,200445,
AFNE01.JPG,AFNE01.JPG,AFNE01.JPG,AFNE01.JPG,AFNE01.JPG,AFNE01.JPG,,,,,,,,,1,0,10,2,,,,,,,,,,,,,,,AFNE20.jpg,AFSA10.jpg,AFSA06.jpg,AFNE15.jpg,AFSA06.jpg,FS,4,num_2,16,num_2,0.783444432251,,,2017_May_22_1118,59.9997498362,FEMA4ImagesEEG,001,200445,
AFNE01.JPG,AFNE01.JPG,AFNE01.JPG,AFNE01.JPG,AFNE01.JPG,AFNE01.JPG,,,,,,,,,1,1,11,9,,,,,,,,,,,,,,,AFNE15.jpg,AFSA17.jpg,AFSA04.jpg,AFNE17.jpg,AFNE17.jpg,FN,3,num_4,32,num_8,1.03357633663,,,2017_May_22_1118,59.9997498362,FEMA4ImagesEEG,001,200445,
AFNE01.JPG,AFNE01.JPG,AFNE01.JPG,AFNE01.JPG,AFNE01.JPG,AFNE01.JPG,,,,,,,,,1,2,12,8,,,,,,,,,,,,,,,AFNE09.jpg,AFNE19.jpg,AFSA05.jpg,AFSA20.jpg,AFNE19.jpg,FN,3,num_6,16,num_6,0.666781705397,,,2017_May_22_1118,59.9997498362,FEMA4ImagesEEG,001,200445,
AFNE01.JPG,AFNE01.JPG,AFNE01.JPG,AFNE01.JPG,AFNE01.JPG,AFNE01.JPG,,,,,,,,,1,3,13,3,,,,,,,,,,,,,,,AFSA08.jpg,AFNE05.jpg,AFNE14.jpg,AFSA13.jpg,AFNE05.jpg,FN,3,num_6,32,num_8,0.933475014812,,,2017_May_22_1118,59.9997498362,FEMA4ImagesEEG,001,200445,
AFNE01.JPG,AFNE01.JPG,AFNE01.JPG,AFNE01.JPG,AFNE01.JPG,AFNE01.JPG,,,,,,,,,1,4,14,4,,,,,,,,,,,,,,,AFNE04.jpg,AFSA20.jpg,AFNE10.jpg,AFSA18.jpg,AFSA18.jpg,FS,4,num_4,32,num_2,0.633471262176,,,2017_May_22_1118,59.9997498362,FEMA4ImagesEEG,001,200445,
AFNE01.JPG,AFNE01.JPG,AFNE01.JPG,AFNE01.JPG,AFNE01.JPG,AFNE01.JPG,,,,,,,,,1,5,15,6,,,,,,,,,,,,,,,AFSA20.jpg,AFNE06.jpg,AFNE05.jpg,AFSA01.jpg,AFNE06.jpg,FN,3,num_6,16,num_6,0.650157435157,,,2017_May_22_1118,59.9997498362,FEMA4ImagesEEG,001,200445,
AFNE01.JPG,AFNE01.JPG,AFNE01.JPG,AFNE01.JPG,AFNE01.JPG,AFNE01.JPG,,,,,,,,,1,6,16,5,,,,,,,,,,,,,,,AFNE15.jpg,AFSA06.jpg,AFNE13.jpg,AFSA10.jpg,AFSA10.jpg,FS,4,num_4,16,num_4,0.750125008344,,,2017_May_22_1118,59.9997498362,FEMA4ImagesEEG,001,200445,
AFNE01.JPG,AFNE01.JPG,AFNE01.JPG,AFNE01.JPG,AFNE01.JPG,AFNE01.JPG,,,,,,,,,1,7,17,1,,,,,,,,,,,,,,,AFSA07.jpg,AFNE09.jpg,AFNE16.jpg,AFSA11.jpg,AFSA07.jpg,FS,4,num_8,32,num_6,0.816839550855,,,2017_May_22_1118,59.9997498362,FEMA4ImagesEEG,001,200445,
AFNE01.JPG,AFNE01.JPG,AFNE01.JPG,AFNE01.JPG,AFNE01.JPG,AFNE01.JPG,,,,,,,,,1,8,18,7,,,,,,,,,,,,,,,AFNE20.jpg,AFNE08.jpg,AFSA05.jpg,AFSA04.jpg,AFSA04.jpg,FS,4,num_4,32,num_2,1.2834195749,,,2017_May_22_1118,59.9997498362,FEMA4ImagesEEG,001,200445,
AFNE01.JPG,AFNE01.JPG,AFNE01.JPG,AFNE01.JPG,AFNE01.JPG,AFNE01.JPG,,,,,,,,,1,9,19,0,,,,,,,,,,,,,,,AFSA02.jpg,AFNE04.jpg,AFNE06.jpg,AFSA06.jpg,AFNE04.jpg,FN,3,num_6,16,num_6,0.88344247581,,,2017_May_22_1118,59.9997498362,FEMA4ImagesEEG,001,200445,
AFNE01.JPG,AFNE01.JPG,AFNE01.JPG,AFNE01.JPG,AFNE01.JPG,AFNE01.JPG,,,,,,,,,2,0,20,3,,,,,,,,,,,,,,,AFNE19.jpg,AFNE17.jpg,AFSA13.jpg,AFSA19.jpg,AFNE17.jpg,FN,3,num_6,32,num_2,1.48341053008,,,2017_May_22_1118,59.9997498362,FEMA4ImagesEEG,001,200445,
AFNE01.JPG,AFNE01.JPG,AFNE01.JPG,AFNE01.JPG,AFNE01.JPG,AFNE01.JPG,,,,,,,,,2,1,21,1,,,,,,,,,,,,,,,AFNE06.jpg,AFSA01.jpg,AFSA05.jpg,AFNE13.jpg,AFNE06.jpg,FN,3,num_8,16,num_8,0.96680855134,,,2017_May_22_1118,59.9997498362,FEMA4ImagesEEG,001,200445,
AFNE01.JPG,AFNE01.JPG,AFNE01.JPG,AFNE01.JPG,AFNE01.JPG,AFNE01.JPG,,,,,,,,,2,2,22,5,,,,,,,,,,,,,,,AFNE19.jpg,AFNE02.jpg,AFSA03.jpg,AFSA02.jpg,AFSA03.jpg,FS,4,num_2,32,num_4,0.683457293955,,,2017_May_22_1118,59.9997498362,FEMA4ImagesEEG,001,200445,
AFNE01.JPG,AFNE01.JPG,AFNE01.JPG,AFNE01.JPG,AFNE01.JPG,AFNE01.JPG,,,,,,,,,2,3,23,8,,,,,,,,,,,,,,,AFSA04.jpg,AFNE10.jpg,AFNE15.jpg,AFSA02.jpg,AFNE10.jpg,FN,3,num_6,32,num_2,0.900132176932,,,2017_May_22_1118,59.9997498362,FEMA4ImagesEEG,001,200445,
AFNE01.JPG,AFNE01.JPG,AFNE01.JPG,AFNE01.JPG,AFNE01.JPG,AFNE01.JPG,,,,,,,,,2,4,24,9,,,,,,,,,,,,,,,AFSA17.jpg,AFNE05.jpg,AFNE14.jpg,AFSA18.jpg,AFSA18.jpg,FS,4,num_4,32,num_6,1.25012677244,,,2017_May_22_1118,59.9997498362,FEMA4ImagesEEG,001,200445,
AFNE01.JPG,AFNE01.JPG,AFNE01.JPG,AFNE01.JPG,AFNE01.JPG,AFNE01.JPG,,,,,,,,,2,5,25,4,,,,,,,,,,,,,,,AFNE18.jpg,AFNE11.jpg,AFSA18.jpg,AFSA04.jpg,AFNE11.jpg,FN,3,num_6,16,num_6,0.650025290379,,,2017_May_22_1118,59.9997498362,FEMA4ImagesEEG,001,200445,
AFNE01.JPG,AFNE01.JPG,AFNE01.JPG,AFNE01.JPG,AFNE01.JPG,AFNE01.JPG,,,,,,,,,2,6,26,7,,,,,,,,,,,,,,,AFNE05.jpg,AFSA09.jpg,AFNE20.jpg,AFSA02.jpg,AFNE20.jpg,FN,3,num_2,32,num_8,0.600213420345,,,2017_May_22_1118,59.9997498362,FEMA4ImagesEEG,001,200445,
AFNE01.JPG,AFNE01.JPG,AFNE01.JPG,AFNE01.JPG,AFNE01.JPG,AFNE01.JPG,,,,,,,,,2,7,27,0,,,,,,,,,,,,,,,AFSA16.jpg,AFNE15.jpg,AFNE01.jpg,AFSA12.jpg,AFSA16.jpg,FS,4,num_8,16,num_8,0.816842116765,,,2017_May_22_1118,59.9997498362,FEMA4ImagesEEG,001,200445,
AFNE01.JPG,AFNE01.JPG,AFNE01.JPG,AFNE01.JPG,AFNE01.JPG,AFNE01.JPG,,,,,,,,,2,8,28,6,,,,,,,,,,,,,,,AFSA02.jpg,AFNE04.jpg,AFNE14.jpg,AFSA18.jpg,AFSA18.jpg,FS,4,num_4,32,num_8,0.733498493035,,,2017_May_22_1118,59.9997498362,FEMA4ImagesEEG,001,200445,
AFNE01.JPG,AFNE01.JPG,AFNE01.JPG,AFNE01.JPG,AFNE01.JPG,AFNE01.JPG,,,,,,,,,2,9,29,2,,,,,,,,,,,,,,,AFNE18.jpg,AFNE17.jpg,AFSA01.jpg,AFSA04.jpg,AFSA01.jpg,FS,4,num_2,32,num_6,0.983455273265,,,2017_May_22_1118,59.9997498362,FEMA4ImagesEEG,001,200445,
AFNE01.JPG,AFNE01.JPG,AFNE01.JPG,AFNE01.JPG,AFNE01.JPG,AFNE01.JPG,,,,,,,,,3,0,30,0,,,,,,,,,,,,,,,AFSA01.jpg,AFNE16.jpg,AFNE18.jpg,AFSA17.jpg,AFSA01.jpg,FS,4,num_8,32,num_4,0.716760680836,,,2017_May_22_1118,59.9997498362,FEMA4ImagesEEG,001,200445,
AFNE01.JPG,AFNE01.JPG,AFNE01.JPG,AFNE01.JPG,AFNE01.JPG,AFNE01.JPG,,,,,,,,,3,1,31,3,,,,,,,,,,,,,,,AFSA10.jpg,AFNE06.jpg,AFSA16.jpg,AFNE13.jpg,AFNE13.jpg,FN,3,num_4,16,num_4,0.900120630278,,,2017_May_22_1118,59.9997498362,FEMA4ImagesEEG,001,200445,
AFNE01.JPG,AFNE01.JPG,AFNE01.JPG,AFNE01.JPG,AFNE01.JPG,AFNE01.JPG,,,,,,,,,3,2,32,7,,,,,,,,,,,,,,,AFSA14.jpg,AFNE10.jpg,AFNE15.jpg,AFSA12.jpg,AFNE10.jpg,FN,3,num_6,32,num_4,0.86675373686,,,2017_May_22_1118,59.9997498362,FEMA4ImagesEEG,001,200445,
AFNE01.JPG,AFNE01.JPG,AFNE01.JPG,AFNE01.JPG,AFNE01.JPG,AFNE01.JPG,,,,,,,,,3,3,33,4,,,,,,,,,,,,,,,AFSA09.jpg,AFSA02.jpg,AFNE20.jpg,AFNE16.jpg,AFSA09.jpg,FS,4,num_8,32,num_6,0.63365408394,,,2017_May_22_1118,59.9997498362,FEMA4ImagesEEG,001,200445,
AFNE01.JPG,AFNE01.JPG,AFNE01.JPG,AFNE01.JPG,AFNE01.JPG,AFNE01.JPG,,,,,,,,,3,4,34,5,,,,,,,,,,,,,,,AFSA02.jpg,AFNE08.jpg,AFNE09.jpg,AFSA10.jpg,AFNE08.jpg,FN,3,num_6,16,num_6,0.683498669416,,,2017_May_22_1118,59.9997498362,FEMA4ImagesEEG,001,200445,
AFNE01.JPG,AFNE01.JPG,AFNE01.JPG,AFNE01.JPG,AFNE01.JPG,AFNE01.JPG,,,,,,,,,3,5,35,9,,,,,,,,,,,,,,,AFSA19.jpg,AFNE14.jpg,AFNE16.jpg,AFSA01.jpg,AFSA19.jpg,FS,4,num_8,16,num_8,1.16676903615,,,2017_May_22_1118,59.9997498362,FEMA4ImagesEEG,001,200445,
AFNE01.JPG,AFNE01.JPG,AFNE01.JPG,AFNE01.JPG,AFNE01.JPG,AFNE01.JPG,,,,,,,,,3,6,36,8,,,,,,,,,,,,,,,AFNE03.jpg,AFNE04.jpg,AFSA09.jpg,AFSA19.jpg,AFNE04.jpg,FN,3,num_6,16,num_6,0.866801847878,,,2017_May_22_1118,59.9997498362,FEMA4ImagesEEG,001,200445,
AFNE01.JPG,AFNE01.JPG,AFNE01.JPG,AFNE01.JPG,AFNE01.JPG,AFNE01.JPG,,,,,,,,,3,7,37,2,,,,,,,,,,,,,,,AFNE07.jpg,AFSA15.jpg,AFNE02.jpg,AFSA14.jpg,AFSA15.jpg,FS,4,num_6,16,num_6,0.550156825746,,,2017_May_22_1118,59.9997498362,FEMA4ImagesEEG,001,200445,
AFNE01.JPG,AFNE01.JPG,AFNE01.JPG,AFNE01.JPG,AFNE01.JPG,AFNE01.JPG,,,,,,,,,3,8,38,6,,,,,,,,,,,,,,,AFNE10.jpg,AFSA17.jpg,AFNE02.jpg,AFSA05.jpg,AFNE10.jpg,FN,3,num_8,16,num_8,0.666873116279,,,2017_May_22_1118,59.9997498362,FEMA4ImagesEEG,001,200445,
AFNE01.JPG,AFNE01.JPG,AFNE01.JPG,AFNE01.JPG,AFNE01.JPG,AFNE01.JPG,,,,,,,,,3,9,39,1,,,,,,,,,,,,,,,AFSA02.jpg,AFNE20.jpg,AFSA04.jpg,AFNE02.jpg,AFNE02.jpg,FN,3,num_4,32,num_6,0.700163673609,,,2017_May_22_1118,59.9997498362,FEMA4ImagesEEG,001,200445,
AFNE01.JPG,AFNE01.JPG,AFNE01.JPG,AFNE01.JPG,AFNE01.JPG,AFNE01.JPG,,,,,,,,,4,0,40,7,,,,,,,,,,,,,,,AFSA01.jpg,AFNE11.jpg,AFSA02.jpg,AFNE18.jpg,AFSA02.jpg,FS,4,num_2,32,num_6,0.683557685523,,,2017_May_22_1118,59.9997498362,FEMA4ImagesEEG,001,200445,
AFNE01.JPG,AFNE01.JPG,AFNE01.JPG,AFNE01.JPG,AFNE01.JPG,AFNE01.JPG,,,,,,,,,4,1,41,0,,,,,,,,,,,,,,,AFSA16.jpg,AFSA20.jpg,AFNE11.jpg,AFNE17.jpg,AFNE11.jpg,FN,3,num_2,16,num_2,1.41676815413,,,2017_May_22_1118,59.9997498362,FEMA4ImagesEEG,001,200445,
AFNE01.JPG,AFNE01.JPG,AFNE01.JPG,AFNE01.JPG,AFNE01.JPG,AFNE01.JPG,,,,,,,,,4,2,42,1,,,,,,,,,,,,,,,AFSA03.jpg,AFNE13.jpg,AFSA14.jpg,AFNE18.jpg,AFNE13.jpg,FN,3,num_6,32,num_4,1.13343838637,,,2017_May_22_1118,59.9997498362,FEMA4ImagesEEG,001,200445,
AFNE01.JPG,AFNE01.JPG,AFNE01.JPG,AFNE01.JPG,AFNE01.JPG,AFNE01.JPG,,,,,,,,,4,3,43,8,,,,,,,,,,,,,,,AFSA09.jpg,AFNE10.jpg,AFNE16.jpg,AFSA13.jpg,AFNE16.jpg,FN,3,num_2,32,num_6,0.733423119178,,,2017_May_22_1118,59.9997498362,FEMA4ImagesEEG,001,200445,
AFNE01.JPG,AFNE01.JPG,AFNE01.JPG,AFNE01.JPG,AFNE01.JPG,AFNE01.JPG,,,,,,,,,4,4,44,3,,,,,,,,,,,,,,,AFSA20.jpg,AFNE19.jpg,AFNE01.jpg,AFSA03.jpg,AFNE01.jpg,FN,3,num_2,32,num_6,1.26673179824,,,2017_May_22_1118,59.9997498362,FEMA4ImagesEEG,001,200445,
AFNE01.JPG,AFNE01.JPG,AFNE01.JPG,AFNE01.JPG,AFNE01.JPG,AFNE01.JPG,,,,,,,,,4,5,45,6,,,,,,,,,,,,,,,AFSA11.jpg,AFSA20.jpg,AFNE12.jpg,AFNE16.jpg,AFNE12.jpg,FN,3,num_2,32,num_6,0.850487733143,,,2017_May_22_1118,59.9997498362,FEMA4ImagesEEG,001,200445,
AFNE01.JPG,AFNE01.JPG,AFNE01.JPG,AFNE01.JPG,AFNE01.JPG,AFNE01.JPG,,,,,,,,,4,6,46,9,,,,,,,,,,,,,,,AFNE01.jpg,AFNE09.jpg,AFSA18.jpg,AFSA08.jpg,AFNE01.jpg,FN,3,num_8,16,num_8,0.666750593577,,,2017_May_22_1118,59.9997498362,FEMA4ImagesEEG,001,200445,
AFNE01.JPG,AFNE01.JPG,AFNE01.JPG,AFNE01.JPG,AFNE01.JPG,AFNE01.JPG,,,,,,,,,4,7,47,4,,,,,,,,,,,,,,,AFNE09.jpg,AFSA16.jpg,AFNE17.jpg,AFSA06.jpg,AFNE17.jpg,FN,3,num_2,16,num_2,0.383625457936,,,2017_May_22_1118,59.9997498362,FEMA4ImagesEEG,001,200445,
AFNE01.JPG,AFNE01.JPG,AFNE01.JPG,AFNE01.JPG,AFNE01.JPG,AFNE01.JPG,,,,,,,,,4,8,48,5,,,,,,,,,,,,,,,AFSA19.jpg,AFNE03.jpg,AFSA17.jpg,AFNE11.jpg,AFNE03.jpg,FN,3,num_6,16,num_6,2.33293219464,,,2017_May_22_1118,59.9997498362,FEMA4ImagesEEG,001,200445,
AFNE01.JPG,AFNE01.JPG,AFNE01.JPG,AFNE01.JPG,AFNE01.JPG,AFNE01.JPG,,,,,,,,,4,9,49,2,,,,,,,,,,,,,,,AFSA07.jpg,AFNE11.jpg,AFNE02.jpg,AFSA05.jpg,AFSA05.jpg,FS,4,num_4,32,num_8,0.500155398506,,,2017_May_22_1118,59.9997498362,FEMA4ImagesEEG,001,200445,
AFNE01.JPG,AFNE01.JPG,AFNE01.JPG,AFNE01.JPG,AFNE01.JPG,AFNE01.JPG,,,,,,,,,5,0,50,5,,,,,,,,,,,,,,,AFNE12.jpg,AFSA20.jpg,AFNE04.jpg,AFSA08.jpg,AFSA08.jpg,FS,4,num_4,32,num_6,1.38339997776,,,2017_May_22_1118,59.9997498362,FEMA4ImagesEEG,001,200445,
AFNE01.JPG,AFNE01.JPG,AFNE01.JPG,AFNE01.JPG,AFNE01.JPG,AFNE01.JPG,,,,,,,,,5,1,51,0,,,,,,,,,,,,,,,AFSA04.jpg,AFNE06.jpg,AFSA20.jpg,AFNE03.jpg,AFSA20.jpg,FS,4,num_2,32,num_8,0.883506944519,,,2017_May_22_1118,59.9997498362,FEMA4ImagesEEG,001,200445,
AFNE01.JPG,AFNE01.JPG,AFNE01.JPG,AFNE01.JPG,AFNE01.JPG,AFNE01.JPG,,,,,,,,,5,2,52,2,,,,,,,,,,,,,,,AFNE19.jpg,AFNE17.jpg,AFSA13.jpg,AFSA08.jpg,AFNE19.jpg,FN,3,num_8,32,num_2,1.01678528165,,,2017_May_22_1118,59.9997498362,FEMA4ImagesEEG,001,200445,
AFNE01.JPG,AFNE01.JPG,AFNE01.JPG,AFNE01.JPG,AFNE01.JPG,AFNE01.JPG,,,,,,,,,5,3,53,1,,,,,,,,,,,,,,,AFNE05.jpg,AFSA02.jpg,AFSA19.jpg,AFNE17.jpg,AFSA02.jpg,FS,4,num_6,32,num_4,1.00012733374,,,2017_May_22_1118,59.9997498362,FEMA4ImagesEEG,001,200445,
AFNE01.JPG,AFNE01.JPG,AFNE01.JPG,AFNE01.JPG,AFNE01.JPG,AFNE01.JPG,,,,,,,,,5,4,54,6,,,,,,,,,,,,,,,AFNE10.jpg,AFSA02.jpg,AFSA17.jpg,AFNE16.jpg,AFSA02.jpg,FS,4,num_6,16,num_6,0.783432885655,,,2017_May_22_1118,59.9997498362,FEMA4ImagesEEG,001,200445,
AFNE01.JPG,AFNE01.JPG,AFNE01.JPG,AFNE01.JPG,AFNE01.JPG,AFNE01.JPG,,,,,,,,,5,5,55,8,,,,,,,,,,,,,,,AFNE18.jpg,AFSA17.jpg,AFSA04.jpg,AFNE14.jpg,AFSA04.jpg,FS,4,num_2,16,num_2,1.08344144939,,,2017_May_22_1118,59.9997498362,FEMA4ImagesEEG,001,200445,
AFNE01.JPG,AFNE01.JPG,AFNE01.JPG,AFNE01.JPG,AFNE01.JPG,AFNE01.JPG,,,,,,,,,5,6,56,4,,,,,,,,,,,,,,,AFSA20.jpg,AFSA12.jpg,AFNE20.jpg,AFNE17.jpg,AFNE17.jpg,FN,3,num_4,32,num_8,0.750170232728,,,2017_May_22_1118,59.9997498362,FEMA4ImagesEEG,001,200445,
AFNE01.JPG,AFNE01.JPG,AFNE01.JPG,AFNE01.JPG,AFNE01.JPG,AFNE01.JPG,,,,,,,,,5,7,57,9,,,,,,,,,,,,,,,AFNE08.jpg,AFNE07.jpg,AFSA16.jpg,AFSA10.jpg,AFNE08.jpg,FN,3,num_8,32,num_2,1.10024854139,,,2017_May_22_1118,59.9997498362,FEMA4ImagesEEG,001,200445,
AFNE01.JPG,AFNE01.JPG,AFNE01.JPG,AFNE01.JPG,AFNE01.JPG,AFNE01.JPG,,,,,,,,,5,8,58,7,,,,,,,,,,,,,,,AFNE02.jpg,AFSA11.jpg,AFNE06.jpg,AFSA19.jpg,AFSA11.jpg,FS,4,num_6,16,num_6,1.70008637523,,,2017_May_22_1118,59.9997498362,FEMA4ImagesEEG,001,200445,
AFNE01.JPG,AFNE01.JPG,AFNE01.JPG,AFNE01.JPG,AFNE01.JPG,AFNE01.JPG,,,,,,,,,5,9,59,3,,,,,,,,,,,,,,,AFSA13.jpg,AFSA02.jpg,AFNE15.jpg,AFNE12.jpg,AFNE12.jpg,FN,3,num_4,32,num_2,1.36646619352,,,2017_May_22_1118,59.9997498362,FEMA4ImagesEEG,001,200445,
,,,,,,,,,,,,,,,,,,,,,,,,,,,,,,,,,,,,,,,,,,,space,24.415260035,2017_May_22_1118,59.9997498362,FEMA4ImagesEEG,001,200445,
AFNE01.JPG,AFNE01.JPG,AFNE01.JPG,AFNE01.JPG,AFNE01.JPG,AFNE01.JPG,,,,,,,,,,,,,0,0,0,2,,,,,,,,,,,AMNE10.jpg,AMSA07.jpg,AMSA17.jpg,AMNE03.jpg,AMSA07.jpg,MS,2,num_6,16,num_6,1.33363140759,,,2017_May_22_1118,59.9997498362,FEMA4ImagesEEG,001,200445,
AFNE01.JPG,AFNE01.JPG,AFNE01.JPG,AFNE01.JPG,AFNE01.JPG,AFNE01.JPG,,,,,,,,,,,,,0,1,1,5,,,,,,,,,,,AMNE15.jpg,AMSA02.jpg,AMSA13.jpg,AMNE20.jpg,AMNE15.jpg,MN,1,num_8,32,num_4,1.10015488527,,,2017_May_22_1118,59.9997498362,FEMA4ImagesEEG,001,200445,
AFNE01.JPG,AFNE01.JPG,AFNE01.JPG,AFNE01.JPG,AFNE01.JPG,AFNE01.JPG,,,,,,,,,,,,,0,2,2,0,,,,,,,,,,,AMNE02.jpg,AMSA09.jpg,AMNE11.jpg,AMSA16.jpg,AMNE02.jpg,MN,1,num_8,16,num_8,0.83344168996,,,2017_May_22_1118,59.9997498362,FEMA4ImagesEEG,001,200445,
AFNE01.JPG,AFNE01.JPG,AFNE01.JPG,AFNE01.JPG,AFNE01.JPG,AFNE01.JPG,,,,,,,,,,,,,0,3,3,4,,,,,,,,,,,AMNE12.jpg,AMSA11.jpg,AMSA18.jpg,AMNE18.jpg,AMNE12.jpg,MN,1,num_8,16,num_8,1.06677355862,,,2017_May_22_1118,59.9997498362,FEMA4ImagesEEG,001,200445,
AFNE01.JPG,AFNE01.JPG,AFNE01.JPG,AFNE01.JPG,AFNE01.JPG,AFNE01.JPG,,,,,,,,,,,,,0,4,4,6,,,,,,,,,,,AMNE20.jpg,AMSA18.jpg,AMNE17.jpg,AMSA08.jpg,AMNE17.jpg,MN,1,num_2,32,num_8,1.00018378394,,,2017_May_22_1118,59.9997498362,FEMA4ImagesEEG,001,200445,
AFNE01.JPG,AFNE01.JPG,AFNE01.JPG,AFNE01.JPG,AFNE01.JPG,AFNE01.JPG,,,,,,,,,,,,,0,5,5,8,,,,,,,,,,,AMNE17.jpg,AMSA10.jpg,AMSA12.jpg,AMNE13.jpg,AMNE13.jpg,MN,1,num_4,32,num_2,0.666798063146,,,2017_May_22_1118,59.9997498362,FEMA4ImagesEEG,001,200445,
AFNE01.JPG,AFNE01.JPG,AFNE01.JPG,AFNE01.JPG,AFNE01.JPG,AFNE01.JPG,,,,,,,,,,,,,0,6,6,9,,,,,,,,,,,AMSA11.jpg,AMSA10.jpg,AMNE10.jpg,AMNE08.jpg,AMNE08.jpg,MN,1,num_4,32,num_2,1.08341963909,,,2017_May_22_1118,59.9997498362,FEMA4ImagesEEG,001,200445,
AFNE01.JPG,AFNE01.JPG,AFNE01.JPG,AFNE01.JPG,AFNE01.JPG,AFNE01.JPG,,,,,,,,,,,,,0,7,7,3,,,,,,,,,,,AMNE02.jpg,AMNE15.jpg,AMSA02.jpg,AMSA17.jpg,AMNE15.jpg,MN,1,num_6,32,num_2,1.06677997333,,,2017_May_22_1118,59.9997498362,FEMA4ImagesEEG,001,200445,
AFNE01.JPG,AFNE01.JPG,AFNE01.JPG,AFNE01.JPG,AFNE01.JPG,AFNE01.JPG,,,,,,,,,,,,,0,8,8,1,,,,,,,,,,,AMNE19.jpg,AMNE13.jpg,AMSA09.jpg,AMSA20.jpg,AMNE13.jpg,MN,1,num_6,16,num_6,0.700108506309,,,2017_May_22_1118,59.9997498362,FEMA4ImagesEEG,001,200445,
AFNE01.JPG,AFNE01.JPG,AFNE01.JPG,AFNE01.JPG,AFNE01.JPG,AFNE01.JPG,,,,,,,,,,,,,0,9,9,7,,,,,,,,,,,AMSA10.jpg,AMNE03.jpg,AMSA18.jpg,AMNE05.jpg,AMNE03.jpg,MN,1,num_6,32,num_2,0.900112611766,,,2017_May_22_1118,59.9997498362,FEMA4ImagesEEG,001,200445,
AFNE01.JPG,AFNE01.JPG,AFNE01.JPG,AFNE01.JPG,AFNE01.JPG,AFNE01.JPG,,,,,,,,,,,,,1,0,10,1,,,,,,,,,,,AMSA06.jpg,AMNE17.jpg,AMSA03.jpg,AMNE19.jpg,AMSA06.jpg,MS,2,num_8,32,num_2,1.1335679653,,,2017_May_22_1118,59.9997498362,FEMA4ImagesEEG,001,200445,
AFNE01.JPG,AFNE01.JPG,AFNE01.JPG,AFNE01.JPG,AFNE01.JPG,AFNE01.JPG,,,,,,,,,,,,,1,1,11,7,,,,,,,,,,,AMSA01.jpg,AMNE08.jpg,AMNE17.jpg,AMSA17.jpg,AMNE08.jpg,MN,1,num_6,16,num_6,0.733440759825,,,2017_May_22_1118,59.9997498362,FEMA4ImagesEEG,001,200445,
AFNE01.JPG,AFNE01.JPG,AFNE01.JPG,AFNE01.JPG,AFNE01.JPG,AFNE01.JPG,,,,,,,,,,,,,1,2,12,6,,,,,,,,,,,AMSA05.jpg,AMNE09.jpg,AMNE16.jpg,AMSA06.jpg,AMNE16.jpg,MN,1,num_2,16,num_2,0.916822840227,,,2017_May_22_1118,59.9997498362,FEMA4ImagesEEG,001,200445,
AFNE01.JPG,AFNE01.JPG,AFNE01.JPG,AFNE01.JPG,AFNE01.JPG,AFNE01.JPG,,,,,,,,,,,,,1,3,13,8,,,,,,,,,,,AMSA06.jpg,AMSA19.jpg,AMNE07.jpg,AMNE04.jpg,AMNE07.jpg,MN,1,num_2,32,num_6,0.86677266052,,,2017_May_22_1118,59.9997498362,FEMA4ImagesEEG,001,200445,
AFNE01.JPG,AFNE01.JPG,AFNE01.JPG,AFNE01.JPG,AFNE01.JPG,AFNE01.JPG,,,,,,,,,,,,,1,4,14,5,,,,,,,,,,,AMNE14.jpg,AMNE10.jpg,AMSA14.jpg,AMSA06.jpg,AMNE10.jpg,MN,1,num_6,16,num_6,0.733495606342,,,2017_May_22_1118,59.9997498362,FEMA4ImagesEEG,001,200445,
AFNE01.JPG,AFNE01.JPG,AFNE01.JPG,AFNE01.JPG,AFNE01.JPG,AFNE01.JPG,,,,,,,,,,,,,1,5,15,9,,,,,,,,,,,AMNE05.jpg,AMNE01.jpg,AMSA20.jpg,AMSA05.jpg,AMSA05.jpg,MS,2,num_4,32,num_8,0.866766887193,,,2017_May_22_1118,59.9997498362,FEMA4ImagesEEG,001,200445,
AFNE01.JPG,AFNE01.JPG,AFNE01.JPG,AFNE01.JPG,AFNE01.JPG,AFNE01.JPG,,,,,,,,,,,,,1,6,16,0,,,,,,,,,,,AMSA07.jpg,AMNE18.jpg,AMNE19.jpg,AMSA03.jpg,AMSA07.jpg,MS,2,num_8,16,num_8,1.05010759219,,,2017_May_22_1118,59.9997498362,FEMA4ImagesEEG,001,200445,
AFNE01.JPG,AFNE01.JPG,AFNE01.JPG,AFNE01.JPG,AFNE01.JPG,AFNE01.JPG,,,,,,,,,,,,,1,7,17,4,,,,,,,,,,,AMNE03.jpg,AMNE02.jpg,AMSA06.jpg,AMSA17.jpg,AMSA17.jpg,MS,2,num_4,16,num_4,1.26675521221,,,2017_May_22_1118,59.9997498362,FEMA4ImagesEEG,001,200445,
AFNE01.JPG,AFNE01.JPG,AFNE01.JPG,AFNE01.JPG,AFNE01.JPG,AFNE01.JPG,,,,,,,,,,,,,1,8,18,2,,,,,,,,,,,AMSA02.jpg,AMNE01.jpg,AMNE17.jpg,AMSA18.jpg,AMSA18.jpg,MS,2,num_4,16,num_4,0.716821621463,,,2017_May_22_1118,59.9997498362,FEMA4ImagesEEG,001,200445,
AFNE01.JPG,AFNE01.JPG,AFNE01.JPG,AFNE01.JPG,AFNE01.JPG,AFNE01.JPG,,,,,,,,,,,,,1,9,19,3,,,,,,,,,,,AMSA20.jpg,AMNE11.jpg,AMNE20.jpg,AMSA03.jpg,AMNE11.jpg,MN,1,num_6,16,num_6,0.750399561715,,,2017_May_22_1118,59.9997498362,FEMA4ImagesEEG,001,200445,
AFNE01.JPG,AFNE01.JPG,AFNE01.JPG,AFNE01.JPG,AFNE01.JPG,AFNE01.JPG,,,,,,,,,,,,,2,0,20,6,,,,,,,,,,,AMSA02.jpg,AMSA20.jpg,AMNE15.jpg,AMNE03.jpg,AMNE15.jpg,MN,1,num_2,32,num_6,0.783471695147,,,2017_May_22_1118,59.9997498362,FEMA4ImagesEEG,001,200445,
AFNE01.JPG,AFNE01.JPG,AFNE01.JPG,AFNE01.JPG,AFNE01.JPG,AFNE01.JPG,,,,,,,,,,,,,2,1,21,1,,,,,,,,,,,AMSA17.jpg,AMNE13.jpg,AMSA03.jpg,AMNE05.jpg,AMNE13.jpg,MN,1,num_6,16,num_6,0.966751459579,,,2017_May_22_1118,59.9997498362,FEMA4ImagesEEG,001,200445,
AFNE01.JPG,AFNE01.JPG,AFNE01.JPG,AFNE01.JPG,AFNE01.JPG,AFNE01.JPG,,,,,,,,,,,,,2,2,22,2,,,,,,,,,,,AMSA11.jpg,AMNE01.jpg,AMSA13.jpg,AMNE13.jpg,AMSA11.jpg,MS,2,num_8,16,num_8,0.583503191883,,,2017_May_22_1118,59.9997498362,FEMA4ImagesEEG,001,200445,
AFNE01.JPG,AFNE01.JPG,AFNE01.JPG,AFNE01.JPG,AFNE01.JPG,AFNE01.JPG,,,,,,,,,,,,,2,3,23,9,,,,,,,,,,,AMNE14.jpg,AMSA07.jpg,AMSA02.jpg,AMNE10.jpg,AMSA07.jpg,MS,2,num_6,16,num_6,0.500221470895,,,2017_May_22_1118,59.9997498362,FEMA4ImagesEEG,001,200445,
AFNE01.JPG,AFNE01.JPG,AFNE01.JPG,AFNE01.JPG,AFNE01.JPG,AFNE01.JPG,,,,,,,,,,,,,2,4,24,8,,,,,,,,,,,AMNE07.jpg,AMSA02.jpg,AMSA08.jpg,AMNE19.jpg,AMNE07.jpg,MN,1,num_8,32,num_4,0.783566313446,,,2017_May_22_1118,59.9997498362,FEMA4ImagesEEG,001,200445,
AFNE01.JPG,AFNE01.JPG,AFNE01.JPG,AFNE01.JPG,AFNE01.JPG,AFNE01.JPG,,,,,,,,,,,,,2,5,25,4,,,,,,,,,,,AMNE02.jpg,AMSA06.jpg,AMSA07.jpg,AMNE12.jpg,AMNE12.jpg,MN,1,num_4,16,num_4,0.799990121217,,,2017_May_22_1118,59.9997498362,FEMA4ImagesEEG,001,200445,
AFNE01.JPG,AFNE01.JPG,AFNE01.JPG,AFNE01.JPG,AFNE01.JPG,AFNE01.JPG,,,,,,,,,,,,,2,6,26,5,,,,,,,,,,,AMSA14.jpg,AMNE12.jpg,AMSA06.jpg,AMNE14.jpg,AMNE12.jpg,MN,1,num_6,32,num_2,1.21676052053,,,2017_May_22_1118,59.9997498362,FEMA4ImagesEEG,001,200445,
AFNE01.JPG,AFNE01.JPG,AFNE01.JPG,AFNE01.JPG,AFNE01.JPG,AFNE01.JPG,,,,,,,,,,,,,2,7,27,0,,,,,,,,,,,AMNE14.jpg,AMSA08.jpg,AMNE16.jpg,AMSA06.jpg,AMNE16.jpg,MN,1,num_2,16,num_2,1.01678175351,,,2017_May_22_1118,59.9997498362,FEMA4ImagesEEG,001,200445,
AFNE01.JPG,AFNE01.JPG,AFNE01.JPG,AFNE01.JPG,AFNE01.JPG,AFNE01.JPG,,,,,,,,,,,,,2,8,28,3,,,,,,,,,,,AMSA01.jpg,AMNE15.jpg,AMSA10.jpg,AMNE04.jpg,AMNE04.jpg,MN,1,num_4,32,num_8,0.800166848872,,,2017_May_22_1118,59.9997498362,FEMA4ImagesEEG,001,200445,
AFNE01.JPG,AFNE01.JPG,AFNE01.JPG,AFNE01.JPG,AFNE01.JPG,AFNE01.JPG,,,,,,,,,,,,,2,9,29,7,,,,,,,,,,,AMNE13.jpg,AMNE15.jpg,AMSA03.jpg,AMSA05.jpg,AMSA03.jpg,MS,2,num_2,16,num_2,0.700180672808,,,2017_May_22_1118,59.9997498362,FEMA4ImagesEEG,001,200445,
AFNE01.JPG,AFNE01.JPG,AFNE01.JPG,AFNE01.JPG,AFNE01.JPG,AFNE01.JPG,,,,,,,,,,,,,3,0,30,3,,,,,,,,,,,AMSA01.jpg,AMNE05.jpg,AMNE07.jpg,AMSA06.jpg,AMNE07.jpg,MN,1,num_2,16,num_2,1.08345812786,,,2017_May_22_1118,59.9997498362,FEMA4ImagesEEG,001,200445,
AFNE01.JPG,AFNE01.JPG,AFNE01.JPG,AFNE01.JPG,AFNE01.JPG,AFNE01.JPG,,,,,,,,,,,,,3,1,31,8,,,,,,,,,,,AMSA11.jpg,AMSA03.jpg,AMNE08.jpg,AMNE17.jpg,AMSA11.jpg,MS,2,num_8,32,num_6,0.466782410978,,,2017_May_22_1118,59.9997498362,FEMA4ImagesEEG,001,200445,
AFNE01.JPG,AFNE01.JPG,AFNE01.JPG,AFNE01.JPG,AFNE01.JPG,AFNE01.JPG,,,,,,,,,,,,,3,2,32,4,,,,,,,,,,,AMNE16.jpg,AMSA05.jpg,AMNE12.jpg,AMSA11.jpg,AMNE16.jpg,MN,1,num_8,16,num_8,1.08345973154,,,2017_May_22_1118,59.9997498362,FEMA4ImagesEEG,001,200445,
AFNE01.JPG,AFNE01.JPG,AFNE01.JPG,AFNE01.JPG,AFNE01.JPG,AFNE01.JPG,,,,,,,,,,,,,3,3,33,0,,,,,,,,,,,AMSA02.jpg,AMNE13.jpg,AMNE17.jpg,AMSA06.jpg,AMNE17.jpg,MN,1,num_2,16,num_2,1.21696739778,,,2017_May_22_1118,59.9997498362,FEMA4ImagesEEG,001,200445,
AFNE01.JPG,AFNE01.JPG,AFNE01.JPG,AFNE01.JPG,AFNE01.JPG,AFNE01.JPG,,,,,,,,,,,,,3,4,34,6,,,,,,,,,,,AMSA05.jpg,AMSA08.jpg,AMNE16.jpg,AMNE13.jpg,AMNE16.jpg,MN,1,num_2,32,num_4,1.10012409423,,,2017_May_22_1118,59.9997498362,FEMA4ImagesEEG,001,200445,
AFNE01.JPG,AFNE01.JPG,AFNE01.JPG,AFNE01.JPG,AFNE01.JPG,AFNE01.JPG,,,,,,,,,,,,,3,5,35,5,,,,,,,,,,,AMSA15.jpg,AMNE18.jpg,AMNE04.jpg,AMSA10.jpg,AMSA10.jpg,MS,2,num_4,32,num_8,0.966741195938,,,2017_May_22_1118,59.9997498362,FEMA4ImagesEEG,001,200445,
AFNE01.JPG,AFNE01.JPG,AFNE01.JPG,AFNE01.JPG,AFNE01.JPG,AFNE01.JPG,,,,,,,,,,,,,3,6,36,7,,,,,,,,,,,AMSA20.jpg,AMSA18.jpg,AMNE18.jpg,AMNE11.jpg,AMNE11.jpg,MN,1,num_4,32,num_2,1.03347305831,,,2017_May_22_1118,59.9997498362,FEMA4ImagesEEG,001,200445,
AFNE01.JPG,AFNE01.JPG,AFNE01.JPG,AFNE01.JPG,AFNE01.JPG,AFNE01.JPG,,,,,,,,,,,,,3,7,37,2,,,,,,,,,,,AMSA12.jpg,AMNE13.jpg,AMNE03.jpg,AMSA13.jpg,AMNE13.jpg,MN,1,num_6,32,num_4,0.400168580934,,,2017_May_22_1118,59.9997498362,FEMA4ImagesEEG,001,200445,
AFNE01.JPG,AFNE01.JPG,AFNE01.JPG,AFNE01.JPG,AFNE01.JPG,AFNE01.JPG,,,,,,,,,,,,,3,8,38,9,,,,,,,,,,,AMSA08.jpg,AMSA06.jpg,AMNE02.jpg,AMNE01.jpg,AMNE01.jpg,MN,1,num_4,32,num_8,0.783499599551,,,2017_May_22_1118,59.9997498362,FEMA4ImagesEEG,001,200445,
AFNE01.JPG,AFNE01.JPG,AFNE01.JPG,AFNE01.JPG,AFNE01.JPG,AFNE01.JPG,,,,,,,,,,,,,3,9,39,1,,,,,,,,,,,AMSA19.jpg,AMSA03.jpg,AMNE11.jpg,AMNE09.jpg,AMNE09.jpg,MN,1,num_4,32,num_2,0.799937840609,,,2017_May_22_1118,59.9997498362,FEMA4ImagesEEG,001,200445,
