IPosition2,IPosition3,IPosition1,IPosition6,IPosition4,IPosition5,TrialsM1.thisRepN,TrialsM1.thisTrialN,TrialsM1.thisN,TrialsM1.thisIndex,TrialsF1.thisRepN,TrialsF1.thisTrialN,TrialsF1.thisN,TrialsF1.thisIndex,TrialsM2.thisRepN,TrialsM2.thisTrialN,TrialsM2.thisN,TrialsM2.thisIndex,TrialsF2.thisRepN,TrialsF2.thisTrialN,TrialsF2.thisN,TrialsF2.thisIndex,TrialsM3.thisRepN,TrialsM3.thisTrialN,TrialsM3.thisN,TrialsM3.thisIndex,TrialsF3.thisRepN,TrialsF3.thisTrialN,TrialsF3.thisN,TrialsF3.thisIndex,InstrKey_resp.keys,InstrKey_resp.rt,Image0 _Position,Image1 _Position,Image2 _Position,Image3 _Position,Center_image,condition,code,correct_answer,accuracy,Key_Resp.keys,Key_Resp.rt,BreakKey_resp.keys,BreakKey_resp.rt,date,frameRate,expName,session,participant,
,,,,,,,,,,,,,,,,,,,,,,,,,,,,,,space,15.8659679475,,,,,,,,,,,,,,2017_May_15_1750,60.0102974822,MAFE4ImagesEEG,001,200442,
AMNE23.JPG,AMNE24.JPG,AMNE22.JPG,AMSA24.JPG,AMSA22.JPG,AMSA23.JPG,0,0,0,9,,,,,,,,,,,,,,,,,,,,,,,AMSA13.jpg,AMNE10.jpg,AMNE07.jpg,AMSA08.jpg,AMNE07.jpg,MN,1,num_2,48,None,,,,2017_May_15_1750,60.0102974822,MAFE4ImagesEEG,001,200442,
AMSA21.JPG,AMNE23.JPG,AMNE21.JPG,AMSA25.JPG,AMNE25.JPG,AMSA23.JPG,0,1,1,5,,,,,,,,,,,,,,,,,,,,,,,AMNE08.jpg,AMNE20.jpg,AMSA09.jpg,AMSA07.jpg,AMSA09.jpg,MS,2,num_2,32,num_4,2.51665774453,,,2017_May_15_1750,60.0102974822,MAFE4ImagesEEG,001,200442,
AFNE23.JPG,AFNE24.JPG,AFNE22.JPG,AFSA24.JPG,AFSA22.JPG,AFSA23.JPG,0,2,2,8,,,,,,,,,,,,,,,,,,,,,,,AMNE06.jpg,AMNE03.jpg,AMSA04.jpg,AMSA06.jpg,AMSA06.jpg,MS,2,num_4,32,num_2,1.41675682086,,,2017_May_15_1750,60.0102974822,MAFE4ImagesEEG,001,200442,
AFSA21.JPG,AFNE23.JPG,AFNE21.JPG,AFSA25.JPG,AFNE25.JPG,AFSA23.JPG,0,3,3,4,,,,,,,,,,,,,,,,,,,,,,,AMNE20.jpg,AMNE07.jpg,AMSA16.jpg,AMSA12.jpg,AMSA16.jpg,MS,2,num_2,32,num_4,1.00016550114,,,2017_May_15_1750,60.0102974822,MAFE4ImagesEEG,001,200442,
AFNE22.JPG,AFSA24.JPG,AFSA22.JPG,AFNE25.JPG,AFNE24.JPG,AFSA25.JPG,0,4,4,6,,,,,,,,,,,,,,,,,,,,,,,AMSA13.jpg,AMNE14.jpg,AMNE12.jpg,AMSA08.jpg,AMNE12.jpg,MN,1,num_2,32,num_6,0.966756676789,,,2017_May_15_1750,60.0102974822,MAFE4ImagesEEG,001,200442,
AFSA25.JPG,AFNE24.JPG,AFSA24.JPG,AFNE21.JPG,AFSA21.JPG,AFNE25.JPG,0,5,5,2,,,,,,,,,,,,,,,,,,,,,,,AMSA13.jpg,AMNE15.jpg,AMSA12.jpg,AMNE01.jpg,AMNE01.jpg,MN,1,num_4,32,num_6,0.70021319529,,,2017_May_15_1750,60.0102974822,MAFE4ImagesEEG,001,200442,
AMSA21.JPG,AMNE22.JPG,AMNE21.JPG,AMSA23.JPG,AMSA22.JPG,AMNE23.JPG,0,6,6,1,,,,,,,,,,,,,,,,,,,,,,,AMNE04.jpg,AMNE13.jpg,AMSA16.jpg,AMSA07.jpg,AMSA07.jpg,MS,2,num_4,16,num_4,0.999699788168,,,2017_May_15_1750,60.0102974822,MAFE4ImagesEEG,001,200442,
AFSA21.JPG,AFNE22.JPG,AFNE21.JPG,AFSA23.JPG,AFSA22.JPG,AFNE23.JPG,0,7,7,0,,,,,,,,,,,,,,,,,,,,,,,AMSA15.jpg,AMNE06.jpg,AMNE01.jpg,AMSA06.jpg,AMSA06.jpg,MS,2,num_4,32,num_6,1.1834136839,,,2017_May_15_1750,60.0102974822,MAFE4ImagesEEG,001,200442,
AMNE22.JPG,AMSA24.JPG,AMSA22.JPG,AMNE25.JPG,AMNE24.JPG,AMSA25.JPG,0,8,8,7,,,,,,,,,,,,,,,,,,,,,,,AMNE16.jpg,AMNE06.jpg,AMSA08.jpg,AMSA07.jpg,AMSA07.jpg,MS,2,num_4,16,num_4,0.733742938377,,,2017_May_15_1750,60.0102974822,MAFE4ImagesEEG,001,200442,
AMSA25.JPG,AMNE24.JPG,AMSA24.JPG,AMNE26.JPG,AMSA21.JPG,AMNE25.JPG,0,9,9,3,,,,,,,,,,,,,,,,,,,,,,,AMNE08.jpg,AMSA04.jpg,AMSA03.jpg,AMNE20.jpg,AMNE20.jpg,MN,1,num_4,16,num_4,0.950183446985,,,2017_May_15_1750,60.0102974822,MAFE4ImagesEEG,001,200442,
AFSA21.JPG,AFNE22.JPG,AFNE21.JPG,AFSA23.JPG,AFSA22.JPG,AFNE23.JPG,,,,,0,0,0,0,,,,,,,,,,,,,,,,,,,AFNE01.jpg,AFSA08.jpg,AFNE04.jpg,AFSA05.jpg,AFNE04.jpg,FN,3,num_2,16,num_2,0.900224164128,,,2017_May_15_1750,60.0102974822,MAFE4ImagesEEG,001,200442,
AMSA21.JPG,AMNE22.JPG,AMNE21.JPG,AMSA23.JPG,AMSA22.JPG,AMNE23.JPG,,,,,0,1,1,1,,,,,,,,,,,,,,,,,,,AFSA13.jpg,AFNE04.jpg,AFSA15.jpg,AFNE18.jpg,AFNE18.jpg,FN,3,num_4,16,num_4,1.00026268559,,,2017_May_15_1750,60.0102974822,MAFE4ImagesEEG,001,200442,
AFNE22.JPG,AFSA24.JPG,AFSA22.JPG,AFNE25.JPG,AFNE24.JPG,AFSA25.JPG,,,,,0,2,2,6,,,,,,,,,,,,,,,,,,,AFSA14.jpg,AFSA16.jpg,AFNE10.jpg,AFNE06.jpg,AFNE06.jpg,FN,3,num_4,32,num_6,0.979414003436,,,2017_May_15_1750,60.0102974822,MAFE4ImagesEEG,001,200442,
AMSA21.JPG,AMNE23.JPG,AMNE21.JPG,AMSA25.JPG,AMNE25.JPG,AMSA23.JPG,,,,,0,3,3,5,,,,,,,,,,,,,,,,,,,AFNE06.jpg,AFNE11.jpg,AFSA10.jpg,AFSA07.jpg,AFNE06.jpg,FN,3,num_8,32,num_4,1.25009598117,,,2017_May_15_1750,60.0102974822,MAFE4ImagesEEG,001,200442,
AFSA21.JPG,AFNE23.JPG,AFNE21.JPG,AFSA25.JPG,AFNE25.JPG,AFSA23.JPG,,,,,0,4,4,4,,,,,,,,,,,,,,,,,,,AFNE01.jpg,AFSA17.jpg,AFNE20.jpg,AFSA05.jpg,AFNE20.jpg,FN,3,num_2,32,num_8,1.18351664115,,,2017_May_15_1750,60.0102974822,MAFE4ImagesEEG,001,200442,
AMSA25.JPG,AMNE24.JPG,AMSA24.JPG,AMNE26.JPG,AMSA21.JPG,AMNE25.JPG,,,,,0,5,5,3,,,,,,,,,,,,,,,,,,,AFSA13.jpg,AFNE19.jpg,AFNE08.jpg,AFSA16.jpg,AFNE19.jpg,FN,3,num_6,16,num_6,1.20018448913,,,2017_May_15_1750,60.0102974822,MAFE4ImagesEEG,001,200442,
AFSA25.JPG,AFNE24.JPG,AFSA24.JPG,AFNE21.JPG,AFSA21.JPG,AFNE25.JPG,,,,,0,6,6,2,,,,,,,,,,,,,,,,,,,AFSA10.jpg,AFNE06.jpg,AFSA16.jpg,AFNE05.jpg,AFSA10.jpg,FS,4,num_8,32,num_2,1.8501183046,,,2017_May_15_1750,60.0102974822,MAFE4ImagesEEG,001,200442,
AMNE22.JPG,AMSA24.JPG,AMSA22.JPG,AMNE25.JPG,AMNE24.JPG,AMSA25.JPG,,,,,0,7,7,7,,,,,,,,,,,,,,,,,,,AFNE03.jpg,AFSA04.jpg,AFNE20.jpg,AFSA11.jpg,AFNE03.jpg,FN,3,num_8,16,num_8,1.30023391498,,,2017_May_15_1750,60.0102974822,MAFE4ImagesEEG,001,200442,
AFNE23.JPG,AFNE24.JPG,AFNE22.JPG,AFSA24.JPG,AFSA22.JPG,AFSA23.JPG,,,,,0,8,8,8,,,,,,,,,,,,,,,,,,,AFSA10.jpg,AFNE05.jpg,AFSA18.jpg,AFNE09.jpg,AFSA10.jpg,FS,4,num_8,16,num_8,0.967099867295,,,2017_May_15_1750,60.0102974822,MAFE4ImagesEEG,001,200442,
AMNE23.JPG,AMNE24.JPG,AMNE22.JPG,AMSA24.JPG,AMSA22.JPG,AMSA23.JPG,,,,,0,9,9,9,,,,,,,,,,,,,,,,,,,AFSA08.jpg,AFSA13.jpg,AFNE10.jpg,AFNE05.jpg,AFSA08.jpg,FS,4,num_8,32,num_4,0.850087192841,,,2017_May_15_1750,60.0102974822,MAFE4ImagesEEG,001,200442,
AFSA21.JPG,AFNE23.JPG,AFNE21.JPG,AFSA25.JPG,AFNE25.JPG,AFSA23.JPG,,,,,,,,,0,0,0,4,,,,,,,,,,,,,,,AMSA17.jpg,AMNE18.jpg,AMNE05.jpg,AMSA11.jpg,AMSA17.jpg,MS,2,num_8,32,num_2,0.816567392554,,,2017_May_15_1750,60.0102974822,MAFE4ImagesEEG,001,200442,
AMNE23.JPG,AMNE24.JPG,AMNE22.JPG,AMSA24.JPG,AMSA22.JPG,AMSA23.JPG,,,,,,,,,0,1,1,9,,,,,,,,,,,,,,,AMNE10.jpg,AMNE01.jpg,AMSA19.jpg,AMSA20.jpg,AMNE10.jpg,MN,1,num_8,16,num_8,0.683305434417,,,2017_May_15_1750,60.0102974822,MAFE4ImagesEEG,001,200442,
AFSA25.JPG,AFNE24.JPG,AFSA24.JPG,AFNE21.JPG,AFSA21.JPG,AFNE25.JPG,,,,,,,,,0,2,2,2,,,,,,,,,,,,,,,AMNE11.jpg,AMSA01.jpg,AMNE10.jpg,AMSA08.jpg,AMSA08.jpg,MS,2,num_4,32,num_8,1.16675128834,,,2017_May_15_1750,60.0102974822,MAFE4ImagesEEG,001,200442,
AFNE22.JPG,AFSA24.JPG,AFSA22.JPG,AFNE25.JPG,AFNE24.JPG,AFSA25.JPG,,,,,,,,,0,3,3,6,,,,,,,,,,,,,,,AMSA12.jpg,AMNE10.jpg,AMSA07.jpg,AMNE06.jpg,AMNE10.jpg,MN,1,num_6,32,num_4,1.80005029216,,,2017_May_15_1750,60.0102974822,MAFE4ImagesEEG,001,200442,
AFNE23.JPG,AFNE24.JPG,AFNE22.JPG,AFSA24.JPG,AFSA22.JPG,AFSA23.JPG,,,,,,,,,0,4,4,8,,,,,,,,,,,,,,,AMSA14.jpg,AMNE14.jpg,AMSA03.jpg,AMNE02.jpg,AMNE02.jpg,MN,1,num_4,32,num_8,1.23337104172,,,2017_May_15_1750,60.0102974822,MAFE4ImagesEEG,001,200442,
AMSA21.JPG,AMNE22.JPG,AMNE21.JPG,AMSA23.JPG,AMSA22.JPG,AMNE23.JPG,,,,,,,,,0,5,5,1,,,,,,,,,,,,,,,AMSA02.jpg,AMNE19.jpg,AMNE16.jpg,AMSA13.jpg,AMNE19.jpg,MN,1,num_6,32,num_4,1.01677465439,,,2017_May_15_1750,60.0102974822,MAFE4ImagesEEG,001,200442,
AMNE22.JPG,AMSA24.JPG,AMSA22.JPG,AMNE25.JPG,AMNE24.JPG,AMSA25.JPG,,,,,,,,,0,6,6,7,,,,,,,,,,,,,,,AMNE14.jpg,AMSA16.jpg,AMNE16.jpg,AMSA09.jpg,AMSA09.jpg,MS,2,num_4,32,num_6,1.23336174013,,,2017_May_15_1750,60.0102974822,MAFE4ImagesEEG,001,200442,
AFSA21.JPG,AFNE22.JPG,AFNE21.JPG,AFSA23.JPG,AFSA22.JPG,AFNE23.JPG,,,,,,,,,0,7,7,0,,,,,,,,,,,,,,,AMNE01.jpg,AMNE20.jpg,AMSA05.jpg,AMSA13.jpg,AMNE20.jpg,MN,1,num_6,32,num_8,0.850151661783,,,2017_May_15_1750,60.0102974822,MAFE4ImagesEEG,001,200442,
AMSA25.JPG,AMNE24.JPG,AMSA24.JPG,AMNE26.JPG,AMSA21.JPG,AMNE25.JPG,,,,,,,,,0,8,8,3,,,,,,,,,,,,,,,AMSA19.jpg,AMNE10.jpg,AMNE20.jpg,AMSA10.jpg,AMNE10.jpg,MN,1,num_6,32,num_2,0.900089454371,,,2017_May_15_1750,60.0102974822,MAFE4ImagesEEG,001,200442,
AMSA21.JPG,AMNE23.JPG,AMNE21.JPG,AMSA25.JPG,AMNE25.JPG,AMSA23.JPG,,,,,,,,,0,9,9,5,,,,,,,,,,,,,,,AMSA05.jpg,AMNE17.jpg,AMSA06.jpg,AMNE02.jpg,AMNE17.jpg,MN,1,num_6,32,num_8,0.783527738415,,,2017_May_15_1750,60.0102974822,MAFE4ImagesEEG,001,200442,
AMSA25.JPG,AMNE24.JPG,AMSA24.JPG,AMNE26.JPG,AMSA21.JPG,AMNE25.JPG,,,,,,,,,,,,,0,0,0,3,,,,,,,,,,,AFSA07.jpg,AFNE05.jpg,AFSA14.jpg,AFNE12.jpg,AFNE12.jpg,FN,3,num_4,32,num_6,0.583478601649,,,2017_May_15_1750,60.0102974822,MAFE4ImagesEEG,001,200442,
AFSA21.JPG,AFNE23.JPG,AFNE21.JPG,AFSA25.JPG,AFNE25.JPG,AFSA23.JPG,,,,,,,,,,,,,0,1,1,4,,,,,,,,,,,AFNE13.jpg,AFSA05.jpg,AFNE19.jpg,AFSA11.jpg,AFNE13.jpg,FN,3,num_8,32,num_4,0.783502079081,,,2017_May_15_1750,60.0102974822,MAFE4ImagesEEG,001,200442,
AMNE23.JPG,AMNE24.JPG,AMNE22.JPG,AMSA24.JPG,AMSA22.JPG,AMSA23.JPG,,,,,,,,,,,,,0,2,2,9,,,,,,,,,,,AFNE08.jpg,AFNE16.jpg,AFSA13.jpg,AFSA08.jpg,AFSA13.jpg,FS,4,num_2,16,num_2,1.08329016715,,,2017_May_15_1750,60.0102974822,MAFE4ImagesEEG,001,200442,
AMNE22.JPG,AMSA24.JPG,AMSA22.JPG,AMNE25.JPG,AMNE24.JPG,AMSA25.JPG,,,,,,,,,,,,,0,3,3,7,,,,,,,,,,,AFSA19.jpg,AFNE06.jpg,AFSA10.jpg,AFNE17.jpg,AFSA10.jpg,FS,4,num_2,32,num_6,0.833457833622,,,2017_May_15_1750,60.0102974822,MAFE4ImagesEEG,001,200442,
AMSA21.JPG,AMNE23.JPG,AMNE21.JPG,AMSA25.JPG,AMNE25.JPG,AMSA23.JPG,,,,,,,,,,,,,0,4,4,5,,,,,,,,,,,AFSA15.jpg,AFNE19.jpg,AFSA07.jpg,AFNE14.jpg,AFSA07.jpg,FS,4,num_2,32,num_8,0.883465226274,,,2017_May_15_1750,60.0102974822,MAFE4ImagesEEG,001,200442,
AFSA21.JPG,AFNE22.JPG,AFNE21.JPG,AFSA23.JPG,AFSA22.JPG,AFNE23.JPG,,,,,,,,,,,,,0,5,5,0,,,,,,,,,,,AFNE01.jpg,AFSA10.jpg,AFSA18.jpg,AFNE16.jpg,AFSA10.jpg,FS,4,num_6,16,num_6,0.816787740216,,,2017_May_15_1750,60.0102974822,MAFE4ImagesEEG,001,200442,
AFSA25.JPG,AFNE24.JPG,AFSA24.JPG,AFNE21.JPG,AFSA21.JPG,AFNE25.JPG,,,,,,,,,,,,,0,6,6,2,,,,,,,,,,,AFSA14.jpg,AFNE09.jpg,AFSA10.jpg,AFNE12.jpg,AFNE12.jpg,FN,3,num_4,16,num_4,1.18342074007,,,2017_May_15_1750,60.0102974822,MAFE4ImagesEEG,001,200442,
AMSA21.JPG,AMNE22.JPG,AMNE21.JPG,AMSA23.JPG,AMSA22.JPG,AMNE23.JPG,,,,,,,,,,,,,0,7,7,1,,,,,,,,,,,AFNE20.jpg,AFNE14.jpg,AFSA08.jpg,AFSA19.jpg,AFNE14.jpg,FN,3,num_6,32,num_4,1.00012861611,,,2017_May_15_1750,60.0102974822,MAFE4ImagesEEG,001,200442,
AFNE23.JPG,AFNE24.JPG,AFNE22.JPG,AFSA24.JPG,AFSA22.JPG,AFSA23.JPG,,,,,,,,,,,,,0,8,8,8,,,,,,,,,,,AFNE05.jpg,AFSA08.jpg,AFSA05.jpg,AFNE02.jpg,AFSA05.jpg,FS,4,num_2,32,num_6,1.33341437345,,,2017_May_15_1750,60.0102974822,MAFE4ImagesEEG,001,200442,
AFNE22.JPG,AFSA24.JPG,AFSA22.JPG,AFNE25.JPG,AFNE24.JPG,AFSA25.JPG,,,,,,,,,,,,,0,9,9,6,,,,,,,,,,,AFSA07.jpg,AFNE08.jpg,AFSA04.jpg,AFNE01.jpg,AFSA04.jpg,FS,4,num_2,32,num_4,0.850117663387,,,2017_May_15_1750,60.0102974822,MAFE4ImagesEEG,001,200442,
AMNE22.JPG,AMSA24.JPG,AMSA22.JPG,AMNE25.JPG,AMNE24.JPG,AMSA25.JPG,,,,,,,,,,,,,,,,,0,0,0,7,,,,,,,AMSA20.jpg,AMSA14.jpg,AMNE11.jpg,AMNE15.jpg,AMSA14.jpg,MS,2,num_6,16,num_6,0.816828474402,,,2017_May_15_1750,60.0102974822,MAFE4ImagesEEG,001,200442,
AFSA21.JPG,AFNE23.JPG,AFNE21.JPG,AFSA25.JPG,AFNE25.JPG,AFSA23.JPG,,,,,,,,,,,,,,,,,0,1,1,4,,,,,,,AMSA02.jpg,AMNE17.jpg,AMSA08.jpg,AMNE15.jpg,AMSA08.jpg,MS,2,num_2,16,num_2,2.74999029748,,,2017_May_15_1750,60.0102974822,MAFE4ImagesEEG,001,200442,
AFNE22.JPG,AFSA24.JPG,AFSA22.JPG,AFNE25.JPG,AFNE24.JPG,AFSA25.JPG,,,,,,,,,,,,,,,,,0,2,2,6,,,,,,,AMSA20.jpg,AMNE07.jpg,AMNE01.jpg,AMSA11.jpg,AMSA20.jpg,MS,2,num_8,32,num_4,0.783470967785,,,2017_May_15_1750,60.0102974822,MAFE4ImagesEEG,001,200442,
AMSA21.JPG,AMNE23.JPG,AMNE21.JPG,AMSA25.JPG,AMNE25.JPG,AMSA23.JPG,,,,,,,,,,,,,,,,,0,3,3,5,,,,,,,AMSA04.jpg,AMNE20.jpg,AMNE04.jpg,AMSA15.jpg,AMNE20.jpg,MN,1,num_6,16,num_6,0.833565281238,,,2017_May_15_1750,60.0102974822,MAFE4ImagesEEG,001,200442,
AFSA21.JPG,AFNE22.JPG,AFNE21.JPG,AFSA23.JPG,AFSA22.JPG,AFNE23.JPG,,,,,,,,,,,,,,,,,0,4,4,0,,,,,,,AMSA17.jpg,AMSA11.jpg,AMNE20.jpg,AMNE15.jpg,AMNE20.jpg,MN,1,num_2,32,num_8,1.15012930613,,,2017_May_15_1750,60.0102974822,MAFE4ImagesEEG,001,200442,
AFSA25.JPG,AFNE24.JPG,AFSA24.JPG,AFNE21.JPG,AFSA21.JPG,AFNE25.JPG,,,,,,,,,,,,,,,,,0,5,5,2,,,,,,,AMNE02.jpg,AMSA15.jpg,AMNE04.jpg,AMSA04.jpg,AMNE04.jpg,MN,1,num_2,32,num_4,0.833487341646,,,2017_May_15_1750,60.0102974822,MAFE4ImagesEEG,001,200442,
AMSA21.JPG,AMNE22.JPG,AMNE21.JPG,AMSA23.JPG,AMSA22.JPG,AMNE23.JPG,,,,,,,,,,,,,,,,,0,6,6,1,,,,,,,AMSA13.jpg,AMNE01.jpg,AMSA12.jpg,AMNE14.jpg,AMNE01.jpg,MN,1,num_6,16,num_6,1.06675125659,,,2017_May_15_1750,60.0102974822,MAFE4ImagesEEG,001,200442,
AFNE23.JPG,AFNE24.JPG,AFNE22.JPG,AFSA24.JPG,AFSA22.JPG,AFSA23.JPG,,,,,,,,,,,,,,,,,0,7,7,8,,,,,,,AMSA12.jpg,AMNE20.jpg,AMNE16.jpg,AMSA20.jpg,AMSA20.jpg,MS,2,num_4,16,num_4,1.35009793751,,,2017_May_15_1750,60.0102974822,MAFE4ImagesEEG,001,200442,
AMSA25.JPG,AMNE24.JPG,AMSA24.JPG,AMNE26.JPG,AMSA21.JPG,AMNE25.JPG,,,,,,,,,,,,,,,,,0,8,8,3,,,,,,,AMSA02.jpg,AMNE06.jpg,AMNE09.jpg,AMSA05.jpg,AMSA02.jpg,MS,2,num_8,32,num_4,2.59966662386,,,2017_May_15_1750,60.0102974822,MAFE4ImagesEEG,001,200442,
AMNE23.JPG,AMNE24.JPG,AMNE22.JPG,AMSA24.JPG,AMSA22.JPG,AMSA23.JPG,,,,,,,,,,,,,,,,,0,9,9,9,,,,,,,AMNE05.jpg,AMSA20.jpg,AMNE01.jpg,AMSA09.jpg,AMNE05.jpg,MN,1,num_8,32,num_6,0.799983899109,,,2017_May_15_1750,60.0102974822,MAFE4ImagesEEG,001,200442,
AMSA25.JPG,AMNE24.JPG,AMSA24.JPG,AMNE26.JPG,AMSA21.JPG,AMNE25.JPG,,,,,,,,,,,,,,,,,,,,,0,0,0,3,,,AFSA04.jpg,AFNE16.jpg,AFSA12.jpg,AFNE01.jpg,AFNE16.jpg,FN,3,num_6,32,num_8,1.46658171341,,,2017_May_15_1750,60.0102974822,MAFE4ImagesEEG,001,200442,
AMSA21.JPG,AMNE22.JPG,AMNE21.JPG,AMSA23.JPG,AMSA22.JPG,AMNE23.JPG,,,,,,,,,,,,,,,,,,,,,0,1,1,1,,,AFSA15.jpg,AFNE20.jpg,AFNE07.jpg,AFSA18.jpg,AFSA15.jpg,FS,4,num_8,32,num_4,1.35012199311,,,2017_May_15_1750,60.0102974822,MAFE4ImagesEEG,001,200442,
AFSA21.JPG,AFNE22.JPG,AFNE21.JPG,AFSA23.JPG,AFSA22.JPG,AFNE23.JPG,,,,,,,,,,,,,,,,,,,,,0,2,2,0,,,AFSA12.jpg,AFNE06.jpg,AFSA20.jpg,AFNE14.jpg,AFSA20.jpg,FS,4,num_2,32,num_6,1.85009745695,,,2017_May_15_1750,60.0102974822,MAFE4ImagesEEG,001,200442,
AFNE22.JPG,AFSA24.JPG,AFSA22.JPG,AFNE25.JPG,AFNE24.JPG,AFSA25.JPG,,,,,,,,,,,,,,,,,,,,,0,3,3,6,,,AFSA07.jpg,AFSA11.jpg,AFNE06.jpg,AFNE12.jpg,AFSA07.jpg,FS,4,num_8,16,num_8,1.31676224153,,,2017_May_15_1750,60.0102974822,MAFE4ImagesEEG,001,200442,
AFSA21.JPG,AFNE23.JPG,AFNE21.JPG,AFSA25.JPG,AFNE25.JPG,AFSA23.JPG,,,,,,,,,,,,,,,,,,,,,0,4,4,4,,,AFSA14.jpg,AFSA12.jpg,AFNE14.jpg,AFNE20.jpg,AFNE20.jpg,FN,3,num_4,16,num_4,0.900149111636,,,2017_May_15_1750,60.0102974822,MAFE4ImagesEEG,001,200442,
AFSA25.JPG,AFNE24.JPG,AFSA24.JPG,AFNE21.JPG,AFSA21.JPG,AFNE25.JPG,,,,,,,,,,,,,,,,,,,,,0,5,5,2,,,AFSA09.jpg,AFNE04.jpg,AFSA19.jpg,AFNE19.jpg,AFNE04.jpg,FN,3,num_6,32,num_4,1.20015401905,,,2017_May_15_1750,60.0102974822,MAFE4ImagesEEG,001,200442,
AFNE23.JPG,AFNE24.JPG,AFNE22.JPG,AFSA24.JPG,AFSA22.JPG,AFSA23.JPG,,,,,,,,,,,,,,,,,,,,,0,6,6,8,,,AFNE02.jpg,AFSA04.jpg,AFNE08.jpg,AFSA09.jpg,AFSA09.jpg,FS,4,num_4,32,num_6,0.866754719988,,,2017_May_15_1750,60.0102974822,MAFE4ImagesEEG,001,200442,
AMSA21.JPG,AMNE23.JPG,AMNE21.JPG,AMSA25.JPG,AMNE25.JPG,AMSA23.JPG,,,,,,,,,,,,,,,,,,,,,0,7,7,5,,,AFNE15.jpg,AFSA16.jpg,AFSA05.jpg,AFNE01.jpg,AFNE15.jpg,FN,3,num_8,16,num_8,0.866767549887,,,2017_May_15_1750,60.0102974822,MAFE4ImagesEEG,001,200442,
AMNE22.JPG,AMSA24.JPG,AMSA22.JPG,AMNE25.JPG,AMNE24.JPG,AMSA25.JPG,,,,,,,,,,,,,,,,,,,,,0,8,8,7,,,AFSA17.jpg,AFNE01.jpg,AFSA14.jpg,AFNE17.jpg,AFSA14.jpg,FS,4,num_2,32,num_4,0.950159070548,,,2017_May_15_1750,60.0102974822,MAFE4ImagesEEG,001,200442,
AMNE23.JPG,AMNE24.JPG,AMNE22.JPG,AMSA24.JPG,AMSA22.JPG,AMSA23.JPG,,,,,,,,,,,,,,,,,,,,,0,9,9,9,,,AFSA18.jpg,AFSA19.jpg,AFNE04.jpg,AFNE16.jpg,AFNE16.jpg,FN,3,num_4,16,num_4,2.11670348234,,,2017_May_15_1750,60.0102974822,MAFE4ImagesEEG,001,200442,
,,,,,,,,,,,,,,,,,,,,,,,,,,,,,,,,,,,,,,,,,,,space,3.4999196548,2017_May_15_1750,60.0102974822,MAFE4ImagesEEG,001,200442,
AFNE01.JPG,AFNE01.JPG,AFNE01.JPG,AFNE01.JPG,AFNE01.JPG,AFNE01.JPG,0,0,0,0,,,,,,,,,,,,,,,,,,,,,,,AMSA20.jpg,AMNE20.jpg,AMSA03.jpg,AMNE10.jpg,AMNE10.jpg,MN,1,num_4,16,num_4,0.783528380096,,,2017_May_15_1750,60.0102974822,MAFE4ImagesEEG,001,200442,
AFNE01.JPG,AFNE01.JPG,AFNE01.JPG,AFNE01.JPG,AFNE01.JPG,AFNE01.JPG,0,1,1,1,,,,,,,,,,,,,,,,,,,,,,,AMSA06.jpg,AMSA19.jpg,AMNE08.jpg,AMNE05.jpg,AMNE08.jpg,MN,1,num_2,32,num_8,1.01673616562,,,2017_May_15_1750,60.0102974822,MAFE4ImagesEEG,001,200442,
AFNE01.JPG,AFNE01.JPG,AFNE01.JPG,AFNE01.JPG,AFNE01.JPG,AFNE01.JPG,0,2,2,6,,,,,,,,,,,,,,,,,,,,,,,AMSA16.jpg,AMNE09.jpg,AMSA14.jpg,AMNE15.jpg,AMNE09.jpg,MN,1,num_6,32,num_4,0.766638901085,,,2017_May_15_1750,60.0102974822,MAFE4ImagesEEG,001,200442,
AFNE01.JPG,AFNE01.JPG,AFNE01.JPG,AFNE01.JPG,AFNE01.JPG,AFNE01.JPG,0,3,3,2,,,,,,,,,,,,,,,,,,,,,,,AMNE19.jpg,AMSA01.jpg,AMSA08.jpg,AMNE06.jpg,AMSA01.jpg,MS,2,num_6,16,num_6,1.23344705673,,,2017_May_15_1750,60.0102974822,MAFE4ImagesEEG,001,200442,
AFNE01.JPG,AFNE01.JPG,AFNE01.JPG,AFNE01.JPG,AFNE01.JPG,AFNE01.JPG,0,4,4,9,,,,,,,,,,,,,,,,,,,,,,,AMSA15.jpg,AMNE03.jpg,AMSA08.jpg,AMNE15.jpg,AMNE15.jpg,MN,1,num_4,32,num_8,0.850165453274,,,2017_May_15_1750,60.0102974822,MAFE4ImagesEEG,001,200442,
AFNE01.JPG,AFNE01.JPG,AFNE01.JPG,AFNE01.JPG,AFNE01.JPG,AFNE01.JPG,0,5,5,4,,,,,,,,,,,,,,,,,,,,,,,AMSA07.jpg,AMNE04.jpg,AMNE17.jpg,AMSA12.jpg,AMSA07.jpg,MS,2,num_8,48,None,,,,2017_May_15_1750,60.0102974822,MAFE4ImagesEEG,001,200442,
AFNE01.JPG,AFNE01.JPG,AFNE01.JPG,AFNE01.JPG,AFNE01.JPG,AFNE01.JPG,0,6,6,7,,,,,,,,,,,,,,,,,,,,,,,AMSA08.jpg,AMSA07.jpg,AMNE03.jpg,AMNE17.jpg,AMNE03.jpg,MN,1,num_2,32,num_8,1.20011392608,,,2017_May_15_1750,60.0102974822,MAFE4ImagesEEG,001,200442,
AFNE01.JPG,AFNE01.JPG,AFNE01.JPG,AFNE01.JPG,AFNE01.JPG,AFNE01.JPG,0,7,7,3,,,,,,,,,,,,,,,,,,,,,,,AMNE15.jpg,AMSA10.jpg,AMSA05.jpg,AMNE08.jpg,AMNE15.jpg,MN,1,num_8,16,num_8,0.716787066776,,,2017_May_15_1750,60.0102974822,MAFE4ImagesEEG,001,200442,
AFNE01.JPG,AFNE01.JPG,AFNE01.JPG,AFNE01.JPG,AFNE01.JPG,AFNE01.JPG,0,8,8,8,,,,,,,,,,,,,,,,,,,,,,,AMNE06.jpg,AMNE07.jpg,AMSA04.jpg,AMSA05.jpg,AMNE07.jpg,MN,1,num_6,32,num_4,1.1001584772,,,2017_May_15_1750,60.0102974822,MAFE4ImagesEEG,001,200442,
AFNE01.JPG,AFNE01.JPG,AFNE01.JPG,AFNE01.JPG,AFNE01.JPG,AFNE01.JPG,0,9,9,5,,,,,,,,,,,,,,,,,,,,,,,AMSA18.jpg,AMNE19.jpg,AMSA12.jpg,AMNE07.jpg,AMSA12.jpg,MS,2,num_2,32,num_6,0.850102267694,,,2017_May_15_1750,60.0102974822,MAFE4ImagesEEG,001,200442,
AFNE01.JPG,AFNE01.JPG,AFNE01.JPG,AFNE01.JPG,AFNE01.JPG,AFNE01.JPG,1,0,10,1,,,,,,,,,,,,,,,,,,,,,,,AMNE07.jpg,AMSA14.jpg,AMNE03.jpg,AMSA13.jpg,AMNE03.jpg,MN,1,num_2,32,num_8,0.783497589175,,,2017_May_15_1750,60.0102974822,MAFE4ImagesEEG,001,200442,
AFNE01.JPG,AFNE01.JPG,AFNE01.JPG,AFNE01.JPG,AFNE01.JPG,AFNE01.JPG,1,1,11,9,,,,,,,,,,,,,,,,,,,,,,,AMSA02.jpg,AMSA12.jpg,AMNE05.jpg,AMNE02.jpg,AMNE02.jpg,MN,1,num_4,16,num_4,2.78324388433,,,2017_May_15_1750,60.0102974822,MAFE4ImagesEEG,001,200442,
AFNE01.JPG,AFNE01.JPG,AFNE01.JPG,AFNE01.JPG,AFNE01.JPG,AFNE01.JPG,1,2,12,5,,,,,,,,,,,,,,,,,,,,,,,AMNE08.jpg,AMSA12.jpg,AMSA20.jpg,AMNE20.jpg,AMSA12.jpg,MS,2,num_6,32,num_4,1.00010937219,,,2017_May_15_1750,60.0102974822,MAFE4ImagesEEG,001,200442,
AFNE01.JPG,AFNE01.JPG,AFNE01.JPG,AFNE01.JPG,AFNE01.JPG,AFNE01.JPG,1,3,13,7,,,,,,,,,,,,,,,,,,,,,,,AMSA02.jpg,AMNE02.jpg,AMNE19.jpg,AMSA05.jpg,AMNE19.jpg,MN,1,num_2,32,num_4,0.900099397171,,,2017_May_15_1750,60.0102974822,MAFE4ImagesEEG,001,200442,
AFNE01.JPG,AFNE01.JPG,AFNE01.JPG,AFNE01.JPG,AFNE01.JPG,AFNE01.JPG,1,4,14,0,,,,,,,,,,,,,,,,,,,,,,,AMSA12.jpg,AMSA19.jpg,AMNE08.jpg,AMNE10.jpg,AMNE10.jpg,MN,1,num_4,32,num_2,4.39988498297,,,2017_May_15_1750,60.0102974822,MAFE4ImagesEEG,001,200442,
AFNE01.JPG,AFNE01.JPG,AFNE01.JPG,AFNE01.JPG,AFNE01.JPG,AFNE01.JPG,1,5,15,6,,,,,,,,,,,,,,,,,,,,,,,AMNE19.jpg,AMNE07.jpg,AMSA03.jpg,AMSA13.jpg,AMNE19.jpg,MN,1,num_8,16,num_8,0.733428614214,,,2017_May_15_1750,60.0102974822,MAFE4ImagesEEG,001,200442,
AFNE01.JPG,AFNE01.JPG,AFNE01.JPG,AFNE01.JPG,AFNE01.JPG,AFNE01.JPG,1,6,16,3,,,,,,,,,,,,,,,,,,,,,,,AMNE06.jpg,AMSA11.jpg,AMSA18.jpg,AMNE09.jpg,AMNE06.jpg,MN,1,num_8,32,num_4,0.800144909881,,,2017_May_15_1750,60.0102974822,MAFE4ImagesEEG,001,200442,
AFNE01.JPG,AFNE01.JPG,AFNE01.JPG,AFNE01.JPG,AFNE01.JPG,AFNE01.JPG,1,7,17,4,,,,,,,,,,,,,,,,,,,,,,,AMSA14.jpg,AMNE13.jpg,AMNE01.jpg,AMSA03.jpg,AMSA03.jpg,MS,2,num_4,32,num_8,1.03342389967,,,2017_May_15_1750,60.0102974822,MAFE4ImagesEEG,001,200442,
AFNE01.JPG,AFNE01.JPG,AFNE01.JPG,AFNE01.JPG,AFNE01.JPG,AFNE01.JPG,1,8,18,8,,,,,,,,,,,,,,,,,,,,,,,AMNE03.jpg,AMSA07.jpg,AMSA10.jpg,AMNE09.jpg,AMNE09.jpg,MN,1,num_4,16,num_4,1.06646772288,,,2017_May_15_1750,60.0102974822,MAFE4ImagesEEG,001,200442,
AFNE01.JPG,AFNE01.JPG,AFNE01.JPG,AFNE01.JPG,AFNE01.JPG,AFNE01.JPG,1,9,19,2,,,,,,,,,,,,,,,,,,,,,,,AMNE08.jpg,AMSA08.jpg,AMNE12.jpg,AMSA20.jpg,AMNE12.jpg,MN,1,num_2,32,num_8,3.36660541594,,,2017_May_15_1750,60.0102974822,MAFE4ImagesEEG,001,200442,
AFNE01.JPG,AFNE01.JPG,AFNE01.JPG,AFNE01.JPG,AFNE01.JPG,AFNE01.JPG,2,0,20,6,,,,,,,,,,,,,,,,,,,,,,,AMSA03.jpg,AMNE10.jpg,AMNE17.jpg,AMSA11.jpg,AMNE10.jpg,MN,1,num_6,16,num_6,0.850203300361,,,2017_May_15_1750,60.0102974822,MAFE4ImagesEEG,001,200442,
AFNE01.JPG,AFNE01.JPG,AFNE01.JPG,AFNE01.JPG,AFNE01.JPG,AFNE01.JPG,2,1,21,8,,,,,,,,,,,,,,,,,,,,,,,AMSA02.jpg,AMSA03.jpg,AMNE01.jpg,AMNE14.jpg,AMSA03.jpg,MS,2,num_6,32,num_8,1.11674036738,,,2017_May_15_1750,60.0102974822,MAFE4ImagesEEG,001,200442,
AFNE01.JPG,AFNE01.JPG,AFNE01.JPG,AFNE01.JPG,AFNE01.JPG,AFNE01.JPG,2,2,22,5,,,,,,,,,,,,,,,,,,,,,,,AMSA19.jpg,AMNE13.jpg,AMSA11.jpg,AMNE05.jpg,AMNE05.jpg,MN,1,num_4,32,num_8,0.966634795535,,,2017_May_15_1750,60.0102974822,MAFE4ImagesEEG,001,200442,
AFNE01.JPG,AFNE01.JPG,AFNE01.JPG,AFNE01.JPG,AFNE01.JPG,AFNE01.JPG,2,3,23,3,,,,,,,,,,,,,,,,,,,,,,,AMSA17.jpg,AMNE09.jpg,AMSA18.jpg,AMNE03.jpg,AMSA17.jpg,MS,2,num_8,32,num_4,1.11676346045,,,2017_May_15_1750,60.0102974822,MAFE4ImagesEEG,001,200442,
AFNE01.JPG,AFNE01.JPG,AFNE01.JPG,AFNE01.JPG,AFNE01.JPG,AFNE01.JPG,2,4,24,9,,,,,,,,,,,,,,,,,,,,,,,AMNE12.jpg,AMNE03.jpg,AMSA17.jpg,AMSA20.jpg,AMNE03.jpg,MN,1,num_6,32,num_8,1.21676188847,,,2017_May_15_1750,60.0102974822,MAFE4ImagesEEG,001,200442,
AFNE01.JPG,AFNE01.JPG,AFNE01.JPG,AFNE01.JPG,AFNE01.JPG,AFNE01.JPG,2,5,25,7,,,,,,,,,,,,,,,,,,,,,,,AMNE05.jpg,AMNE16.jpg,AMSA12.jpg,AMSA11.jpg,AMSA11.jpg,MS,2,num_4,48,None,,,,2017_May_15_1750,60.0102974822,MAFE4ImagesEEG,001,200442,
AFNE01.JPG,AFNE01.JPG,AFNE01.JPG,AFNE01.JPG,AFNE01.JPG,AFNE01.JPG,2,6,26,1,,,,,,,,,,,,,,,,,,,,,,,AMNE04.jpg,AMNE11.jpg,AMSA05.jpg,AMSA15.jpg,AMSA15.jpg,MS,2,num_4,32,num_6,1.80005670665,,,2017_May_15_1750,60.0102974822,MAFE4ImagesEEG,001,200442,
AFNE01.JPG,AFNE01.JPG,AFNE01.JPG,AFNE01.JPG,AFNE01.JPG,AFNE01.JPG,2,7,27,2,,,,,,,,,,,,,,,,,,,,,,,AMNE06.jpg,AMSA18.jpg,AMSA04.jpg,AMNE08.jpg,AMNE06.jpg,MN,1,num_8,32,num_4,0.700210629497,,,2017_May_15_1750,60.0102974822,MAFE4ImagesEEG,001,200442,
AFNE01.JPG,AFNE01.JPG,AFNE01.JPG,AFNE01.JPG,AFNE01.JPG,AFNE01.JPG,2,8,28,0,,,,,,,,,,,,,,,,,,,,,,,AMSA06.jpg,AMNE15.jpg,AMNE03.jpg,AMSA11.jpg,AMSA06.jpg,MS,2,num_8,32,num_6,0.766783875413,,,2017_May_15_1750,60.0102974822,MAFE4ImagesEEG,001,200442,
AFNE01.JPG,AFNE01.JPG,AFNE01.JPG,AFNE01.JPG,AFNE01.JPG,AFNE01.JPG,2,9,29,4,,,,,,,,,,,,,,,,,,,,,,,AMNE10.jpg,AMNE01.jpg,AMSA16.jpg,AMSA17.jpg,AMSA16.jpg,MS,2,num_2,32,num_6,1.03345180396,,,2017_May_15_1750,60.0102974822,MAFE4ImagesEEG,001,200442,
AFNE01.JPG,AFNE01.JPG,AFNE01.JPG,AFNE01.JPG,AFNE01.JPG,AFNE01.JPG,3,0,30,7,,,,,,,,,,,,,,,,,,,,,,,AMNE03.jpg,AMSA05.jpg,AMSA08.jpg,AMNE05.jpg,AMNE05.jpg,MN,1,num_4,32,num_8,0.983770281542,,,2017_May_15_1750,60.0102974822,MAFE4ImagesEEG,001,200442,
AFNE01.JPG,AFNE01.JPG,AFNE01.JPG,AFNE01.JPG,AFNE01.JPG,AFNE01.JPG,3,1,31,9,,,,,,,,,,,,,,,,,,,,,,,AMNE07.jpg,AMSA03.jpg,AMNE02.jpg,AMSA13.jpg,AMNE02.jpg,MN,1,num_2,16,num_2,1.50009734463,,,2017_May_15_1750,60.0102974822,MAFE4ImagesEEG,001,200442,
AFNE01.JPG,AFNE01.JPG,AFNE01.JPG,AFNE01.JPG,AFNE01.JPG,AFNE01.JPG,3,2,32,6,,,,,,,,,,,,,,,,,,,,,,,AMNE12.jpg,AMSA12.jpg,AMSA06.jpg,AMNE08.jpg,AMSA06.jpg,MS,2,num_2,32,num_6,1.20010302123,,,2017_May_15_1750,60.0102974822,MAFE4ImagesEEG,001,200442,
AFNE01.JPG,AFNE01.JPG,AFNE01.JPG,AFNE01.JPG,AFNE01.JPG,AFNE01.JPG,3,3,33,1,,,,,,,,,,,,,,,,,,,,,,,AMSA05.jpg,AMNE09.jpg,AMNE05.jpg,AMSA03.jpg,AMNE09.jpg,MN,1,num_6,32,num_4,1.03344346443,,,2017_May_15_1750,60.0102974822,MAFE4ImagesEEG,001,200442,
AFNE01.JPG,AFNE01.JPG,AFNE01.JPG,AFNE01.JPG,AFNE01.JPG,AFNE01.JPG,3,4,34,4,,,,,,,,,,,,,,,,,,,,,,,AMNE20.jpg,AMSA13.jpg,AMNE16.jpg,AMSA08.jpg,AMNE16.jpg,MN,1,num_2,32,num_8,0.716773595661,,,2017_May_15_1750,60.0102974822,MAFE4ImagesEEG,001,200442,
AFNE01.JPG,AFNE01.JPG,AFNE01.JPG,AFNE01.JPG,AFNE01.JPG,AFNE01.JPG,3,5,35,8,,,,,,,,,,,,,,,,,,,,,,,AMSA02.jpg,AMNE02.jpg,AMSA09.jpg,AMNE15.jpg,AMNE02.jpg,MN,1,num_6,16,num_6,0.966780732386,,,2017_May_15_1750,60.0102974822,MAFE4ImagesEEG,001,200442,
AFNE01.JPG,AFNE01.JPG,AFNE01.JPG,AFNE01.JPG,AFNE01.JPG,AFNE01.JPG,3,6,36,5,,,,,,,,,,,,,,,,,,,,,,,AMSA08.jpg,AMNE15.jpg,AMNE02.jpg,AMSA04.jpg,AMSA04.jpg,MS,2,num_4,16,num_4,1.05009238888,,,2017_May_15_1750,60.0102974822,MAFE4ImagesEEG,001,200442,
AFNE01.JPG,AFNE01.JPG,AFNE01.JPG,AFNE01.JPG,AFNE01.JPG,AFNE01.JPG,3,7,37,3,,,,,,,,,,,,,,,,,,,,,,,AMSA16.jpg,AMNE20.jpg,AMSA20.jpg,AMNE17.jpg,AMNE17.jpg,MN,1,num_4,32,num_8,4.48303819494,,,2017_May_15_1750,60.0102974822,MAFE4ImagesEEG,001,200442,
AFNE01.JPG,AFNE01.JPG,AFNE01.JPG,AFNE01.JPG,AFNE01.JPG,AFNE01.JPG,3,8,38,2,,,,,,,,,,,,,,,,,,,,,,,AMNE08.jpg,AMNE13.jpg,AMSA03.jpg,AMSA14.jpg,AMSA03.jpg,MS,2,num_2,32,num_4,0.700161556248,,,2017_May_15_1750,60.0102974822,MAFE4ImagesEEG,001,200442,
AFNE01.JPG,AFNE01.JPG,AFNE01.JPG,AFNE01.JPG,AFNE01.JPG,AFNE01.JPG,3,9,39,0,,,,,,,,,,,,,,,,,,,,,,,AMSA15.jpg,AMNE15.jpg,AMNE01.jpg,AMSA11.jpg,AMSA15.jpg,MS,2,num_8,32,num_6,0.983472956344,,,2017_May_15_1750,60.0102974822,MAFE4ImagesEEG,001,200442,
AFNE01.JPG,AFNE01.JPG,AFNE01.JPG,AFNE01.JPG,AFNE01.JPG,AFNE01.JPG,4,0,40,6,,,,,,,,,,,,,,,,,,,,,,,AMNE05.jpg,AMSA10.jpg,AMNE10.jpg,AMSA05.jpg,AMNE10.jpg,MN,1,num_2,32,num_4,0.816812116653,,,2017_May_15_1750,60.0102974822,MAFE4ImagesEEG,001,200442,
AFNE01.JPG,AFNE01.JPG,AFNE01.JPG,AFNE01.JPG,AFNE01.JPG,AFNE01.JPG,4,1,41,8,,,,,,,,,,,,,,,,,,,,,,,AMSA01.jpg,AMNE02.jpg,AMNE11.jpg,AMSA13.jpg,AMSA01.jpg,MS,2,num_8,32,num_6,1.3001094684,,,2017_May_15_1750,60.0102974822,MAFE4ImagesEEG,001,200442,
AFNE01.JPG,AFNE01.JPG,AFNE01.JPG,AFNE01.JPG,AFNE01.JPG,AFNE01.JPG,4,2,42,5,,,,,,,,,,,,,,,,,,,,,,,AMNE04.jpg,AMNE14.jpg,AMSA12.jpg,AMSA11.jpg,AMSA11.jpg,MS,2,num_4,16,num_4,0.866762417834,,,2017_May_15_1750,60.0102974822,MAFE4ImagesEEG,001,200442,
AFNE01.JPG,AFNE01.JPG,AFNE01.JPG,AFNE01.JPG,AFNE01.JPG,AFNE01.JPG,4,3,43,2,,,,,,,,,,,,,,,,,,,,,,,AMSA17.jpg,AMNE02.jpg,AMNE11.jpg,AMSA01.jpg,AMNE02.jpg,MN,1,num_6,32,num_8,1.05010746373,,,2017_May_15_1750,60.0102974822,MAFE4ImagesEEG,001,200442,
AFNE01.JPG,AFNE01.JPG,AFNE01.JPG,AFNE01.JPG,AFNE01.JPG,AFNE01.JPG,4,4,44,0,,,,,,,,,,,,,,,,,,,,,,,AMSA13.jpg,AMSA14.jpg,AMNE13.jpg,AMNE10.jpg,AMNE10.jpg,MN,1,num_4,16,num_4,0.966748016886,,,2017_May_15_1750,60.0102974822,MAFE4ImagesEEG,001,200442,
AFNE01.JPG,AFNE01.JPG,AFNE01.JPG,AFNE01.JPG,AFNE01.JPG,AFNE01.JPG,4,5,45,9,,,,,,,,,,,,,,,,,,,,,,,AMSA10.jpg,AMNE11.jpg,AMNE14.jpg,AMSA02.jpg,AMSA10.jpg,MS,2,num_8,32,num_6,1.01678042766,,,2017_May_15_1750,60.0102974822,MAFE4ImagesEEG,001,200442,
AFNE01.JPG,AFNE01.JPG,AFNE01.JPG,AFNE01.JPG,AFNE01.JPG,AFNE01.JPG,4,6,46,3,,,,,,,,,,,,,,,,,,,,,,,AMNE17.jpg,AMNE08.jpg,AMSA01.jpg,AMSA09.jpg,AMSA09.jpg,MS,2,num_4,16,num_4,0.883475811221,,,2017_May_15_1750,60.0102974822,MAFE4ImagesEEG,001,200442,
AFNE01.JPG,AFNE01.JPG,AFNE01.JPG,AFNE01.JPG,AFNE01.JPG,AFNE01.JPG,4,7,47,4,,,,,,,,,,,,,,,,,,,,,,,AMNE12.jpg,AMSA16.jpg,AMSA04.jpg,AMNE15.jpg,AMNE15.jpg,MN,1,num_4,32,num_8,0.883484471124,,,2017_May_15_1750,60.0102974822,MAFE4ImagesEEG,001,200442,
AFNE01.JPG,AFNE01.JPG,AFNE01.JPG,AFNE01.JPG,AFNE01.JPG,AFNE01.JPG,4,8,48,7,,,,,,,,,,,,,,,,,,,,,,,AMNE16.jpg,AMNE13.jpg,AMSA09.jpg,AMSA14.jpg,AMSA09.jpg,MS,2,num_2,16,num_2,1.81672647921,,,2017_May_15_1750,60.0102974822,MAFE4ImagesEEG,001,200442,
AFNE01.JPG,AFNE01.JPG,AFNE01.JPG,AFNE01.JPG,AFNE01.JPG,AFNE01.JPG,4,9,49,1,,,,,,,,,,,,,,,,,,,,,,,AMSA02.jpg,AMNE08.jpg,AMSA05.jpg,AMNE20.jpg,AMSA02.jpg,MS,2,num_8,32,num_6,0.833476115949,,,2017_May_15_1750,60.0102974822,MAFE4ImagesEEG,001,200442,
AFNE01.JPG,AFNE01.JPG,AFNE01.JPG,AFNE01.JPG,AFNE01.JPG,AFNE01.JPG,5,0,50,6,,,,,,,,,,,,,,,,,,,,,,,AMNE17.jpg,AMNE01.jpg,AMSA18.jpg,AMSA03.jpg,AMNE17.jpg,MN,1,num_8,16,num_8,1.31676448695,,,2017_May_15_1750,60.0102974822,MAFE4ImagesEEG,001,200442,
AFNE01.JPG,AFNE01.JPG,AFNE01.JPG,AFNE01.JPG,AFNE01.JPG,AFNE01.JPG,5,1,51,7,,,,,,,,,,,,,,,,,,,,,,,AMSA05.jpg,AMNE14.jpg,AMNE13.jpg,AMSA01.jpg,AMSA05.jpg,MS,2,num_8,16,num_8,0.783679448068,,,2017_May_15_1750,60.0102974822,MAFE4ImagesEEG,001,200442,
AFNE01.JPG,AFNE01.JPG,AFNE01.JPG,AFNE01.JPG,AFNE01.JPG,AFNE01.JPG,5,2,52,3,,,,,,,,,,,,,,,,,,,,,,,AMNE20.jpg,AMSA18.jpg,AMNE10.jpg,AMSA10.jpg,AMSA18.jpg,MS,2,num_6,32,num_4,2.30005045235,,,2017_May_15_1750,60.0102974822,MAFE4ImagesEEG,001,200442,
AFNE01.JPG,AFNE01.JPG,AFNE01.JPG,AFNE01.JPG,AFNE01.JPG,AFNE01.JPG,5,3,53,8,,,,,,,,,,,,,,,,,,,,,,,AMSA12.jpg,AMNE13.jpg,AMSA13.jpg,AMNE09.jpg,AMNE09.jpg,MN,1,num_4,32,num_8,0.88347901823,,,2017_May_15_1750,60.0102974822,MAFE4ImagesEEG,001,200442,
AFNE01.JPG,AFNE01.JPG,AFNE01.JPG,AFNE01.JPG,AFNE01.JPG,AFNE01.JPG,5,4,54,2,,,,,,,,,,,,,,,,,,,,,,,AMSA04.jpg,AMNE08.jpg,AMSA09.jpg,AMNE03.jpg,AMNE03.jpg,MN,1,num_4,32,num_6,0.866786794271,,,2017_May_15_1750,60.0102974822,MAFE4ImagesEEG,001,200442,
AFNE01.JPG,AFNE01.JPG,AFNE01.JPG,AFNE01.JPG,AFNE01.JPG,AFNE01.JPG,5,5,55,4,,,,,,,,,,,,,,,,,,,,,,,AMSA17.jpg,AMSA19.jpg,AMNE03.jpg,AMNE11.jpg,AMNE11.jpg,MN,1,num_4,16,num_4,0.800192699768,,,2017_May_15_1750,60.0102974822,MAFE4ImagesEEG,001,200442,
AFNE01.JPG,AFNE01.JPG,AFNE01.JPG,AFNE01.JPG,AFNE01.JPG,AFNE01.JPG,5,6,56,1,,,,,,,,,,,,,,,,,,,,,,,AMNE05.jpg,AMSA19.jpg,AMNE03.jpg,AMSA05.jpg,AMSA19.jpg,MS,2,num_6,32,num_8,4.01651934581,,,2017_May_15_1750,60.0102974822,MAFE4ImagesEEG,001,200442,
AFNE01.JPG,AFNE01.JPG,AFNE01.JPG,AFNE01.JPG,AFNE01.JPG,AFNE01.JPG,5,7,57,9,,,,,,,,,,,,,,,,,,,,,,,AMNE07.jpg,AMSA03.jpg,AMSA15.jpg,AMNE03.jpg,AMNE07.jpg,MN,1,num_8,32,num_4,4.13322346937,,,2017_May_15_1750,60.0102974822,MAFE4ImagesEEG,001,200442,
AFNE01.JPG,AFNE01.JPG,AFNE01.JPG,AFNE01.JPG,AFNE01.JPG,AFNE01.JPG,5,8,58,5,,,,,,,,,,,,,,,,,,,,,,,AMNE19.jpg,AMSA13.jpg,AMNE10.jpg,AMSA08.jpg,AMSA08.jpg,MS,2,num_4,32,num_2,2.44968838571,,,2017_May_15_1750,60.0102974822,MAFE4ImagesEEG,001,200442,
AFNE01.JPG,AFNE01.JPG,AFNE01.JPG,AFNE01.JPG,AFNE01.JPG,AFNE01.JPG,5,9,59,0,,,,,,,,,,,,,,,,,,,,,,,AMSA16.jpg,AMNE11.jpg,AMNE07.jpg,AMSA19.jpg,AMSA19.jpg,MS,2,num_4,16,num_4,0.783449157141,,,2017_May_15_1750,60.0102974822,MAFE4ImagesEEG,001,200442,
,,,,,,,,,,,,,,,,,,,,,,,,,,,,,,,,,,,,,,,,,,,space,3.41658362187,2017_May_15_1750,60.0102974822,MAFE4ImagesEEG,001,200442,
AFNE01.JPG,AFNE01.JPG,AFNE01.JPG,AFNE01.JPG,AFNE01.JPG,AFNE01.JPG,,,,,0,0,0,9,,,,,,,,,,,,,,,,,,,AFSA06.jpg,AFSA12.jpg,AFNE01.jpg,AFNE09.jpg,AFSA12.jpg,FS,4,num_6,32,num_4,0.950352155603,,,2017_May_15_1750,60.0102974822,MAFE4ImagesEEG,001,200442,
AFNE01.JPG,AFNE01.JPG,AFNE01.JPG,AFNE01.JPG,AFNE01.JPG,AFNE01.JPG,,,,,0,1,1,4,,,,,,,,,,,,,,,,,,,AFNE13.jpg,AFSA07.jpg,AFSA18.jpg,AFNE10.jpg,AFNE10.jpg,FN,3,num_4,32,num_6,0.733478007838,,,2017_May_15_1750,60.0102974822,MAFE4ImagesEEG,001,200442,
AFNE01.JPG,AFNE01.JPG,AFNE01.JPG,AFNE01.JPG,AFNE01.JPG,AFNE01.JPG,,,,,0,2,2,0,,,,,,,,,,,,,,,,,,,AFNE05.jpg,AFNE08.jpg,AFSA03.jpg,AFSA09.jpg,AFNE05.jpg,FN,3,num_8,16,num_8,0.783422215376,,,2017_May_15_1750,60.0102974822,MAFE4ImagesEEG,001,200442,
AFNE01.JPG,AFNE01.JPG,AFNE01.JPG,AFNE01.JPG,AFNE01.JPG,AFNE01.JPG,,,,,0,3,3,6,,,,,,,,,,,,,,,,,,,AFSA13.jpg,AFNE12.jpg,AFNE05.jpg,AFSA08.jpg,AFNE12.jpg,FN,3,num_6,32,num_4,0.816620956175,,,2017_May_15_1750,60.0102974822,MAFE4ImagesEEG,001,200442,
AFNE01.JPG,AFNE01.JPG,AFNE01.JPG,AFNE01.JPG,AFNE01.JPG,AFNE01.JPG,,,,,0,4,4,5,,,,,,,,,,,,,,,,,,,AFNE02.jpg,AFSA03.jpg,AFNE01.jpg,AFSA12.jpg,AFNE01.jpg,FN,3,num_2,32,num_8,1.13346947636,,,2017_May_15_1750,60.0102974822,MAFE4ImagesEEG,001,200442,
AFNE01.JPG,AFNE01.JPG,AFNE01.JPG,AFNE01.JPG,AFNE01.JPG,AFNE01.JPG,,,,,0,5,5,2,,,,,,,,,,,,,,,,,,,AFNE19.jpg,AFSA18.jpg,AFSA05.jpg,AFNE14.jpg,AFNE19.jpg,FN,3,num_8,32,num_6,0.916776867583,,,2017_May_15_1750,60.0102974822,MAFE4ImagesEEG,001,200442,
AFNE01.JPG,AFNE01.JPG,AFNE01.JPG,AFNE01.JPG,AFNE01.JPG,AFNE01.JPG,,,,,0,6,6,8,,,,,,,,,,,,,,,,,,,AFSA16.jpg,AFNE10.jpg,AFNE02.jpg,AFSA08.jpg,AFSA16.jpg,FS,4,num_8,48,None,,,,2017_May_15_1750,60.0102974822,MAFE4ImagesEEG,001,200442,
AFNE01.JPG,AFNE01.JPG,AFNE01.JPG,AFNE01.JPG,AFNE01.JPG,AFNE01.JPG,,,,,0,7,7,3,,,,,,,,,,,,,,,,,,,AFNE07.jpg,AFSA03.jpg,AFNE19.jpg,AFSA01.jpg,AFSA03.jpg,FS,4,num_6,32,num_4,0.800126307178,,,2017_May_15_1750,60.0102974822,MAFE4ImagesEEG,001,200442,
AFNE01.JPG,AFNE01.JPG,AFNE01.JPG,AFNE01.JPG,AFNE01.JPG,AFNE01.JPG,,,,,0,8,8,7,,,,,,,,,,,,,,,,,,,AFSA14.jpg,AFNE18.jpg,AFNE17.jpg,AFSA19.jpg,AFNE17.jpg,FN,3,num_2,32,num_8,0.883472924121,,,2017_May_15_1750,60.0102974822,MAFE4ImagesEEG,001,200442,
AFNE01.JPG,AFNE01.JPG,AFNE01.JPG,AFNE01.JPG,AFNE01.JPG,AFNE01.JPG,,,,,0,9,9,1,,,,,,,,,,,,,,,,,,,AFSA06.jpg,AFNE05.jpg,AFSA07.jpg,AFNE12.jpg,AFNE05.jpg,FN,3,num_6,16,num_6,0.866810529027,,,2017_May_15_1750,60.0102974822,MAFE4ImagesEEG,001,200442,
AFNE01.JPG,AFNE01.JPG,AFNE01.JPG,AFNE01.JPG,AFNE01.JPG,AFNE01.JPG,,,,,1,0,10,0,,,,,,,,,,,,,,,,,,,AFSA01.jpg,AFNE13.jpg,AFSA10.jpg,AFNE16.jpg,AFSA10.jpg,FS,4,num_2,32,num_8,3.13357050903,,,2017_May_15_1750,60.0102974822,MAFE4ImagesEEG,001,200442,
AFNE01.JPG,AFNE01.JPG,AFNE01.JPG,AFNE01.JPG,AFNE01.JPG,AFNE01.JPG,,,,,1,1,11,9,,,,,,,,,,,,,,,,,,,AFNE04.jpg,AFSA04.jpg,AFSA06.jpg,AFNE08.jpg,AFSA06.jpg,FS,4,num_2,32,num_4,0.850158717949,,,2017_May_15_1750,60.0102974822,MAFE4ImagesEEG,001,200442,
AFNE01.JPG,AFNE01.JPG,AFNE01.JPG,AFNE01.JPG,AFNE01.JPG,AFNE01.JPG,,,,,1,2,12,7,,,,,,,,,,,,,,,,,,,AFSA16.jpg,AFSA17.jpg,AFNE05.jpg,AFNE03.jpg,AFNE05.jpg,FN,3,num_2,32,num_6,0.900083360262,,,2017_May_15_1750,60.0102974822,MAFE4ImagesEEG,001,200442,
AFNE01.JPG,AFNE01.JPG,AFNE01.JPG,AFNE01.JPG,AFNE01.JPG,AFNE01.JPG,,,,,1,3,13,1,,,,,,,,,,,,,,,,,,,AFSA18.jpg,AFNE19.jpg,AFSA14.jpg,AFNE02.jpg,AFNE19.jpg,FN,3,num_6,32,num_4,1.13344670366,,,2017_May_15_1750,60.0102974822,MAFE4ImagesEEG,001,200442,
AFNE01.JPG,AFNE01.JPG,AFNE01.JPG,AFNE01.JPG,AFNE01.JPG,AFNE01.JPG,,,,,1,4,14,4,,,,,,,,,,,,,,,,,,,AFNE14.jpg,AFSA20.jpg,AFNE02.jpg,AFSA06.jpg,AFNE14.jpg,FN,3,num_8,32,num_6,0.850101305638,,,2017_May_15_1750,60.0102974822,MAFE4ImagesEEG,001,200442,
AFNE01.JPG,AFNE01.JPG,AFNE01.JPG,AFNE01.JPG,AFNE01.JPG,AFNE01.JPG,,,,,1,5,15,5,,,,,,,,,,,,,,,,,,,AFNE13.jpg,AFSA04.jpg,AFSA09.jpg,AFNE14.jpg,AFSA04.jpg,FS,4,num_6,16,num_6,0.950099412818,,,2017_May_15_1750,60.0102974822,MAFE4ImagesEEG,001,200442,
AFNE01.JPG,AFNE01.JPG,AFNE01.JPG,AFNE01.JPG,AFNE01.JPG,AFNE01.JPG,,,,,1,6,16,3,,,,,,,,,,,,,,,,,,,AFNE17.jpg,AFSA09.jpg,AFSA07.jpg,AFNE10.jpg,AFSA07.jpg,FS,4,num_2,32,num_4,2.73330224305,,,2017_May_15_1750,60.0102974822,MAFE4ImagesEEG,001,200442,
AFNE01.JPG,AFNE01.JPG,AFNE01.JPG,AFNE01.JPG,AFNE01.JPG,AFNE01.JPG,,,,,1,7,17,6,,,,,,,,,,,,,,,,,,,AFNE13.jpg,AFSA09.jpg,AFNE16.jpg,AFSA13.jpg,AFSA13.jpg,FS,4,num_4,16,num_4,1.16675417498,,,2017_May_15_1750,60.0102974822,MAFE4ImagesEEG,001,200442,
AFNE01.JPG,AFNE01.JPG,AFNE01.JPG,AFNE01.JPG,AFNE01.JPG,AFNE01.JPG,,,,,1,8,18,2,,,,,,,,,,,,,,,,,,,AFNE06.jpg,AFSA20.jpg,AFSA10.jpg,AFNE03.jpg,AFNE06.jpg,FN,3,num_8,32,num_6,0.68345682323,,,2017_May_15_1750,60.0102974822,MAFE4ImagesEEG,001,200442,
AFNE01.JPG,AFNE01.JPG,AFNE01.JPG,AFNE01.JPG,AFNE01.JPG,AFNE01.JPG,,,,,1,9,19,8,,,,,,,,,,,,,,,,,,,AFNE01.jpg,AFSA17.jpg,AFNE07.jpg,AFSA06.jpg,AFSA06.jpg,FS,4,num_4,16,num_4,0.733480253257,,,2017_May_15_1750,60.0102974822,MAFE4ImagesEEG,001,200442,
AFNE01.JPG,AFNE01.JPG,AFNE01.JPG,AFNE01.JPG,AFNE01.JPG,AFNE01.JPG,,,,,2,0,20,4,,,,,,,,,,,,,,,,,,,AFNE08.jpg,AFSA07.jpg,AFNE18.jpg,AFSA01.jpg,AFSA01.jpg,FS,4,num_4,32,num_2,1.31674235594,,,2017_May_15_1750,60.0102974822,MAFE4ImagesEEG,001,200442,
AFNE01.JPG,AFNE01.JPG,AFNE01.JPG,AFNE01.JPG,AFNE01.JPG,AFNE01.JPG,,,,,2,1,21,0,,,,,,,,,,,,,,,,,,,AFNE18.jpg,AFSA17.jpg,AFSA18.jpg,AFNE02.jpg,AFSA18.jpg,FS,4,num_2,16,num_2,0.733521628659,,,2017_May_15_1750,60.0102974822,MAFE4ImagesEEG,001,200442,
AFNE01.JPG,AFNE01.JPG,AFNE01.JPG,AFNE01.JPG,AFNE01.JPG,AFNE01.JPG,,,,,2,2,22,9,,,,,,,,,,,,,,,,,,,AFSA14.jpg,AFSA04.jpg,AFNE17.jpg,AFNE19.jpg,AFSA14.jpg,FS,4,num_8,16,num_8,1.03344121901,,,2017_May_15_1750,60.0102974822,MAFE4ImagesEEG,001,200442,
AFNE01.JPG,AFNE01.JPG,AFNE01.JPG,AFNE01.JPG,AFNE01.JPG,AFNE01.JPG,,,,,2,3,23,6,,,,,,,,,,,,,,,,,,,AFSA05.jpg,AFSA08.jpg,AFNE08.jpg,AFNE09.jpg,AFSA05.jpg,FS,4,num_8,32,num_6,4.34986957163,,,2017_May_15_1750,60.0102974822,MAFE4ImagesEEG,001,200442,
AFNE01.JPG,AFNE01.JPG,AFNE01.JPG,AFNE01.JPG,AFNE01.JPG,AFNE01.JPG,,,,,2,4,24,1,,,,,,,,,,,,,,,,,,,AFSA09.jpg,AFNE12.jpg,AFNE17.jpg,AFSA14.jpg,AFNE17.jpg,FN,3,num_2,32,num_6,0.816794796381,,,2017_May_15_1750,60.0102974822,MAFE4ImagesEEG,001,200442,
AFNE01.JPG,AFNE01.JPG,AFNE01.JPG,AFNE01.JPG,AFNE01.JPG,AFNE01.JPG,,,,,2,5,25,2,,,,,,,,,,,,,,,,,,,AFSA19.jpg,AFNE10.jpg,AFNE01.jpg,AFSA17.jpg,AFNE10.jpg,FN,3,num_6,32,num_4,1.01675476832,,,2017_May_15_1750,60.0102974822,MAFE4ImagesEEG,001,200442,
AFNE01.JPG,AFNE01.JPG,AFNE01.JPG,AFNE01.JPG,AFNE01.JPG,AFNE01.JPG,,,,,2,6,26,8,,,,,,,,,,,,,,,,,,,AFNE01.jpg,AFSA04.jpg,AFSA08.jpg,AFNE07.jpg,AFNE01.jpg,FN,3,num_8,16,num_8,0.766793818213,,,2017_May_15_1750,60.0102974822,MAFE4ImagesEEG,001,200442,
AFNE01.JPG,AFNE01.JPG,AFNE01.JPG,AFNE01.JPG,AFNE01.JPG,AFNE01.JPG,,,,,2,7,27,5,,,,,,,,,,,,,,,,,,,AFSA16.jpg,AFSA14.jpg,AFNE09.jpg,AFNE06.jpg,AFSA14.jpg,FS,4,num_6,32,num_4,0.900108698756,,,2017_May_15_1750,60.0102974822,MAFE4ImagesEEG,001,200442,
AFNE01.JPG,AFNE01.JPG,AFNE01.JPG,AFNE01.JPG,AFNE01.JPG,AFNE01.JPG,,,,,2,8,28,7,,,,,,,,,,,,,,,,,,,AFNE04.jpg,AFNE18.jpg,AFSA14.jpg,AFSA20.jpg,AFSA14.jpg,FS,4,num_2,32,num_6,0.716814329382,,,2017_May_15_1750,60.0102974822,MAFE4ImagesEEG,001,200442,
AFNE01.JPG,AFNE01.JPG,AFNE01.JPG,AFNE01.JPG,AFNE01.JPG,AFNE01.JPG,,,,,2,9,29,3,,,,,,,,,,,,,,,,,,,AFNE09.jpg,AFSA05.jpg,AFNE15.jpg,AFSA03.jpg,AFSA05.jpg,FS,4,num_6,32,num_8,0.633505880367,,,2017_May_15_1750,60.0102974822,MAFE4ImagesEEG,001,200442,
AFNE01.JPG,AFNE01.JPG,AFNE01.JPG,AFNE01.JPG,AFNE01.JPG,AFNE01.JPG,,,,,3,0,30,7,,,,,,,,,,,,,,,,,,,AFSA17.jpg,AFNE16.jpg,AFNE20.jpg,AFSA11.jpg,AFNE16.jpg,FN,3,num_6,32,num_4,1.85004806286,,,2017_May_15_1750,60.0102974822,MAFE4ImagesEEG,001,200442,
AFNE01.JPG,AFNE01.JPG,AFNE01.JPG,AFNE01.JPG,AFNE01.JPG,AFNE01.JPG,,,,,3,1,31,0,,,,,,,,,,,,,,,,,,,AFSA02.jpg,AFSA12.jpg,AFNE17.jpg,AFNE15.jpg,AFNE17.jpg,FN,3,num_2,32,num_6,0.866764984094,,,2017_May_15_1750,60.0102974822,MAFE4ImagesEEG,001,200442,
AFNE01.JPG,AFNE01.JPG,AFNE01.JPG,AFNE01.JPG,AFNE01.JPG,AFNE01.JPG,,,,,3,2,32,8,,,,,,,,,,,,,,,,,,,AFSA01.jpg,AFNE07.jpg,AFSA11.jpg,AFNE15.jpg,AFNE15.jpg,FN,3,num_4,16,num_4,1.3000780358,,,2017_May_15_1750,60.0102974822,MAFE4ImagesEEG,001,200442,
AFNE01.JPG,AFNE01.JPG,AFNE01.JPG,AFNE01.JPG,AFNE01.JPG,AFNE01.JPG,,,,,3,3,33,1,,,,,,,,,,,,,,,,,,,AFNE19.jpg,AFNE12.jpg,AFSA09.jpg,AFSA08.jpg,AFNE19.jpg,FN,3,num_8,32,num_4,0.883537713438,,,2017_May_15_1750,60.0102974822,MAFE4ImagesEEG,001,200442,
AFNE01.JPG,AFNE01.JPG,AFNE01.JPG,AFNE01.JPG,AFNE01.JPG,AFNE01.JPG,,,,,3,4,34,6,,,,,,,,,,,,,,,,,,,AFNE04.jpg,AFSA03.jpg,AFSA05.jpg,AFNE17.jpg,AFSA03.jpg,FS,4,num_6,16,num_6,1.45012266701,,,2017_May_15_1750,60.0102974822,MAFE4ImagesEEG,001,200442,
AFNE01.JPG,AFNE01.JPG,AFNE01.JPG,AFNE01.JPG,AFNE01.JPG,AFNE01.JPG,,,,,3,5,35,2,,,,,,,,,,,,,,,,,,,AFNE13.jpg,AFNE06.jpg,AFSA14.jpg,AFSA06.jpg,AFSA14.jpg,FS,4,num_2,32,num_4,0.683469973505,,,2017_May_15_1750,60.0102974822,MAFE4ImagesEEG,001,200442,
AFNE01.JPG,AFNE01.JPG,AFNE01.JPG,AFNE01.JPG,AFNE01.JPG,AFNE01.JPG,,,,,3,6,36,9,,,,,,,,,,,,,,,,,,,AFSA10.jpg,AFSA12.jpg,AFNE05.jpg,AFNE09.jpg,AFNE09.jpg,FN,3,num_4,32,num_8,0.966781373601,,,2017_May_15_1750,60.0102974822,MAFE4ImagesEEG,001,200442,
AFNE01.JPG,AFNE01.JPG,AFNE01.JPG,AFNE01.JPG,AFNE01.JPG,AFNE01.JPG,,,,,3,7,37,3,,,,,,,,,,,,,,,,,,,AFSA03.jpg,AFNE03.jpg,AFSA12.jpg,AFNE06.jpg,AFNE03.jpg,FN,3,num_6,16,num_6,0.533513225149,,,2017_May_15_1750,60.0102974822,MAFE4ImagesEEG,001,200442,
AFNE01.JPG,AFNE01.JPG,AFNE01.JPG,AFNE01.JPG,AFNE01.JPG,AFNE01.JPG,,,,,3,8,38,4,,,,,,,,,,,,,,,,,,,AFNE02.jpg,AFNE19.jpg,AFSA02.jpg,AFSA03.jpg,AFSA02.jpg,FS,4,num_2,32,num_4,0.683496594895,,,2017_May_15_1750,60.0102974822,MAFE4ImagesEEG,001,200442,
AFNE01.JPG,AFNE01.JPG,AFNE01.JPG,AFNE01.JPG,AFNE01.JPG,AFNE01.JPG,,,,,3,9,39,5,,,,,,,,,,,,,,,,,,,AFNE13.jpg,AFSA14.jpg,AFSA11.jpg,AFNE10.jpg,AFSA14.jpg,FS,4,num_6,32,num_8,1.11676538503,,,2017_May_15_1750,60.0102974822,MAFE4ImagesEEG,001,200442,
AFNE01.JPG,AFNE01.JPG,AFNE01.JPG,AFNE01.JPG,AFNE01.JPG,AFNE01.JPG,,,,,4,0,40,6,,,,,,,,,,,,,,,,,,,AFNE03.jpg,AFNE20.jpg,AFSA03.jpg,AFSA14.jpg,AFNE20.jpg,FN,3,num_6,32,num_8,4.91647473117,,,2017_May_15_1750,60.0102974822,MAFE4ImagesEEG,001,200442,
AFNE01.JPG,AFNE01.JPG,AFNE01.JPG,AFNE01.JPG,AFNE01.JPG,AFNE01.JPG,,,,,4,1,41,9,,,,,,,,,,,,,,,,,,,AFNE13.jpg,AFNE11.jpg,AFSA04.jpg,AFSA19.jpg,AFNE13.jpg,FN,3,num_8,32,num_4,1.71677808603,,,2017_May_15_1750,60.0102974822,MAFE4ImagesEEG,001,200442,
AFNE01.JPG,AFNE01.JPG,AFNE01.JPG,AFNE01.JPG,AFNE01.JPG,AFNE01.JPG,,,,,4,2,42,0,,,,,,,,,,,,,,,,,,,AFSA06.jpg,AFSA09.jpg,AFNE03.jpg,AFNE13.jpg,AFSA06.jpg,FS,4,num_8,32,num_6,0.866790001746,,,2017_May_15_1750,60.0102974822,MAFE4ImagesEEG,001,200442,
AFNE01.JPG,AFNE01.JPG,AFNE01.JPG,AFNE01.JPG,AFNE01.JPG,AFNE01.JPG,,,,,4,3,43,1,,,,,,,,,,,,,,,,,,,AFNE07.jpg,AFSA09.jpg,AFSA20.jpg,AFNE06.jpg,AFNE07.jpg,FN,3,num_8,32,num_4,0.966782656964,,,2017_May_15_1750,60.0102974822,MAFE4ImagesEEG,001,200442,
AFNE01.JPG,AFNE01.JPG,AFNE01.JPG,AFNE01.JPG,AFNE01.JPG,AFNE01.JPG,,,,,4,4,44,2,,,,,,,,,,,,,,,,,,,AFNE07.jpg,AFNE20.jpg,AFSA06.jpg,AFSA02.jpg,AFSA06.jpg,FS,4,num_2,32,num_4,1.86669474188,,,2017_May_15_1750,60.0102974822,MAFE4ImagesEEG,001,200442,
AFNE01.JPG,AFNE01.JPG,AFNE01.JPG,AFNE01.JPG,AFNE01.JPG,AFNE01.JPG,,,,,4,5,45,7,,,,,,,,,,,,,,,,,,,AFSA11.jpg,AFSA19.jpg,AFNE17.jpg,AFNE15.jpg,AFNE17.jpg,FN,3,num_2,48,None,,,,2017_May_15_1750,60.0102974822,MAFE4ImagesEEG,001,200442,
AFNE01.JPG,AFNE01.JPG,AFNE01.JPG,AFNE01.JPG,AFNE01.JPG,AFNE01.JPG,,,,,4,6,46,8,,,,,,,,,,,,,,,,,,,AFSA04.jpg,AFNE10.jpg,AFNE16.jpg,AFSA13.jpg,AFNE16.jpg,FN,3,num_2,32,num_8,1.0331034814,,,2017_May_15_1750,60.0102974822,MAFE4ImagesEEG,001,200442,
AFNE01.JPG,AFNE01.JPG,AFNE01.JPG,AFNE01.JPG,AFNE01.JPG,AFNE01.JPG,,,,,4,7,47,4,,,,,,,,,,,,,,,,,,,AFSA02.jpg,AFNE06.jpg,AFNE08.jpg,AFSA14.jpg,AFSA02.jpg,FS,4,num_8,32,num_4,0.766794459894,,,2017_May_15_1750,60.0102974822,MAFE4ImagesEEG,001,200442,
AFNE01.JPG,AFNE01.JPG,AFNE01.JPG,AFNE01.JPG,AFNE01.JPG,AFNE01.JPG,,,,,4,8,48,5,,,,,,,,,,,,,,,,,,,AFSA10.jpg,AFNE15.jpg,AFNE17.jpg,AFSA02.jpg,AFSA10.jpg,FS,4,num_8,32,num_6,0.883439567406,,,2017_May_15_1750,60.0102974822,MAFE4ImagesEEG,001,200442,
AFNE01.JPG,AFNE01.JPG,AFNE01.JPG,AFNE01.JPG,AFNE01.JPG,AFNE01.JPG,,,,,4,9,49,3,,,,,,,,,,,,,,,,,,,AFSA07.jpg,AFSA14.jpg,AFNE18.jpg,AFNE20.jpg,AFSA14.jpg,FS,4,num_6,32,num_8,0.833547960967,,,2017_May_15_1750,60.0102974822,MAFE4ImagesEEG,001,200442,
AFNE01.JPG,AFNE01.JPG,AFNE01.JPG,AFNE01.JPG,AFNE01.JPG,AFNE01.JPG,,,,,5,0,50,9,,,,,,,,,,,,,,,,,,,AFNE05.jpg,AFSA20.jpg,AFSA01.jpg,AFNE14.jpg,AFNE14.jpg,FN,3,num_4,16,num_4,0.616859842557,,,2017_May_15_1750,60.0102974822,MAFE4ImagesEEG,001,200442,
AFNE01.JPG,AFNE01.JPG,AFNE01.JPG,AFNE01.JPG,AFNE01.JPG,AFNE01.JPG,,,,,5,1,51,7,,,,,,,,,,,,,,,,,,,AFSA13.jpg,AFSA01.jpg,AFNE08.jpg,AFNE14.jpg,AFSA01.jpg,FS,4,num_6,32,num_8,2.21669934457,,,2017_May_15_1750,60.0102974822,MAFE4ImagesEEG,001,200442,
AFNE01.JPG,AFNE01.JPG,AFNE01.JPG,AFNE01.JPG,AFNE01.JPG,AFNE01.JPG,,,,,5,2,52,1,,,,,,,,,,,,,,,,,,,AFSA04.jpg,AFNE16.jpg,AFNE11.jpg,AFSA03.jpg,AFSA03.jpg,FS,4,num_4,32,num_6,0.700104143936,,,2017_May_15_1750,60.0102974822,MAFE4ImagesEEG,001,200442,
AFNE01.JPG,AFNE01.JPG,AFNE01.JPG,AFNE01.JPG,AFNE01.JPG,AFNE01.JPG,,,,,5,3,53,5,,,,,,,,,,,,,,,,,,,AFNE17.jpg,AFSA15.jpg,AFNE13.jpg,AFSA17.jpg,AFSA15.jpg,FS,4,num_6,32,num_4,0.699991885573,,,2017_May_15_1750,60.0102974822,MAFE4ImagesEEG,001,200442,
AFNE01.JPG,AFNE01.JPG,AFNE01.JPG,AFNE01.JPG,AFNE01.JPG,AFNE01.JPG,,,,,5,4,54,4,,,,,,,,,,,,,,,,,,,AFSA14.jpg,AFNE15.jpg,AFSA02.jpg,AFNE04.jpg,AFSA02.jpg,FS,4,num_2,32,num_6,0.666638227645,,,2017_May_15_1750,60.0102974822,MAFE4ImagesEEG,001,200442,
AFNE01.JPG,AFNE01.JPG,AFNE01.JPG,AFNE01.JPG,AFNE01.JPG,AFNE01.JPG,,,,,5,5,55,8,,,,,,,,,,,,,,,,,,,AFSA14.jpg,AFSA08.jpg,AFNE18.jpg,AFNE17.jpg,AFNE17.jpg,FN,3,num_4,16,num_4,0.883346552961,,,2017_May_15_1750,60.0102974822,MAFE4ImagesEEG,001,200442,
AFNE01.JPG,AFNE01.JPG,AFNE01.JPG,AFNE01.JPG,AFNE01.JPG,AFNE01.JPG,,,,,5,6,56,3,,,,,,,,,,,,,,,,,,,AFNE09.jpg,AFSA14.jpg,AFSA19.jpg,AFNE10.jpg,AFNE09.jpg,FN,3,num_8,32,num_4,0.88346907543,,,2017_May_15_1750,60.0102974822,MAFE4ImagesEEG,001,200442,
AFNE01.JPG,AFNE01.JPG,AFNE01.JPG,AFNE01.JPG,AFNE01.JPG,AFNE01.JPG,,,,,5,7,57,6,,,,,,,,,,,,,,,,,,,AFSA10.jpg,AFNE18.jpg,AFNE06.jpg,AFSA05.jpg,AFNE06.jpg,FN,3,num_2,32,num_6,1.28342301724,,,2017_May_15_1750,60.0102974822,MAFE4ImagesEEG,001,200442,
AFNE01.JPG,AFNE01.JPG,AFNE01.JPG,AFNE01.JPG,AFNE01.JPG,AFNE01.JPG,,,,,5,8,58,0,,,,,,,,,,,,,,,,,,,AFSA07.jpg,AFSA04.jpg,AFNE18.jpg,AFNE06.jpg,AFNE18.jpg,FN,3,num_2,32,num_4,0.700153217185,,,2017_May_15_1750,60.0102974822,MAFE4ImagesEEG,001,200442,
AFNE01.JPG,AFNE01.JPG,AFNE01.JPG,AFNE01.JPG,AFNE01.JPG,AFNE01.JPG,,,,,5,9,59,2,,,,,,,,,,,,,,,,,,,AFSA02.jpg,AFNE14.jpg,AFSA05.jpg,AFNE08.jpg,AFSA05.jpg,FS,4,num_2,32,num_4,0.816833285615,,,2017_May_15_1750,60.0102974822,MAFE4ImagesEEG,001,200442,
,,,,,,,,,,,,,,,,,,,,,,,,,,,,,,,,,,,,,,,,,,,space,2.54963870347,2017_May_15_1750,60.0102974822,MAFE4ImagesEEG,001,200442,
AFNE01.JPG,AFNE01.JPG,AFNE01.JPG,AFNE01.JPG,AFNE01.JPG,AFNE01.JPG,,,,,,,,,0,0,0,4,,,,,,,,,,,,,,,AMNE09.jpg,AMSA15.jpg,AMNE19.jpg,AMSA12.jpg,AMSA15.jpg,MS,2,num_6,32,num_4,0.883488961495,,,2017_May_15_1750,60.0102974822,MAFE4ImagesEEG,001,200442,
AFNE01.JPG,AFNE01.JPG,AFNE01.JPG,AFNE01.JPG,AFNE01.JPG,AFNE01.JPG,,,,,,,,,0,1,1,5,,,,,,,,,,,,,,,AMNE12.jpg,AMSA08.jpg,AMNE18.jpg,AMSA14.jpg,AMNE12.jpg,MN,1,num_8,32,num_4,0.933378322516,,,2017_May_15_1750,60.0102974822,MAFE4ImagesEEG,001,200442,
AFNE01.JPG,AFNE01.JPG,AFNE01.JPG,AFNE01.JPG,AFNE01.JPG,AFNE01.JPG,,,,,,,,,0,2,2,9,,,,,,,,,,,,,,,AMSA13.jpg,AMSA17.jpg,AMNE02.jpg,AMNE14.jpg,AMSA13.jpg,MS,2,num_8,32,num_6,0.750153553672,,,2017_May_15_1750,60.0102974822,MAFE4ImagesEEG,001,200442,
AFNE01.JPG,AFNE01.JPG,AFNE01.JPG,AFNE01.JPG,AFNE01.JPG,AFNE01.JPG,,,,,,,,,0,3,3,1,,,,,,,,,,,,,,,AMSA02.jpg,AMSA04.jpg,AMNE18.jpg,AMNE05.jpg,AMNE18.jpg,MN,1,num_2,16,num_2,2.23338771984,,,2017_May_15_1750,60.0102974822,MAFE4ImagesEEG,001,200442,
AFNE01.JPG,AFNE01.JPG,AFNE01.JPG,AFNE01.JPG,AFNE01.JPG,AFNE01.JPG,,,,,,,,,0,4,4,7,,,,,,,,,,,,,,,AMNE18.jpg,AMSA13.jpg,AMNE12.jpg,AMSA05.jpg,AMSA13.jpg,MS,2,num_6,32,num_2,1.31673273351,,,2017_May_15_1750,60.0102974822,MAFE4ImagesEEG,001,200442,
AFNE01.JPG,AFNE01.JPG,AFNE01.JPG,AFNE01.JPG,AFNE01.JPG,AFNE01.JPG,,,,,,,,,0,5,5,2,,,,,,,,,,,,,,,AMSA08.jpg,AMSA18.jpg,AMNE01.jpg,AMNE07.jpg,AMNE01.jpg,MN,1,num_2,32,num_6,1.30008284654,,,2017_May_15_1750,60.0102974822,MAFE4ImagesEEG,001,200442,
AFNE01.JPG,AFNE01.JPG,AFNE01.JPG,AFNE01.JPG,AFNE01.JPG,AFNE01.JPG,,,,,,,,,0,6,6,6,,,,,,,,,,,,,,,AMNE09.jpg,AMSA17.jpg,AMNE17.jpg,AMSA01.jpg,AMSA01.jpg,MS,2,num_4,16,num_4,2.18337679887,,,2017_May_15_1750,60.0102974822,MAFE4ImagesEEG,001,200442,
AFNE01.JPG,AFNE01.JPG,AFNE01.JPG,AFNE01.JPG,AFNE01.JPG,AFNE01.JPG,,,,,,,,,0,7,7,0,,,,,,,,,,,,,,,AMSA10.jpg,AMNE08.jpg,AMSA04.jpg,AMNE17.jpg,AMSA04.jpg,MS,2,num_2,32,num_6,1.16674647713,,,2017_May_15_1750,60.0102974822,MAFE4ImagesEEG,001,200442,
AFNE01.JPG,AFNE01.JPG,AFNE01.JPG,AFNE01.JPG,AFNE01.JPG,AFNE01.JPG,,,,,,,,,0,8,8,8,,,,,,,,,,,,,,,AMNE07.jpg,AMSA13.jpg,AMNE17.jpg,AMSA05.jpg,AMSA13.jpg,MS,2,num_6,32,num_2,0.900451248046,,,2017_May_15_1750,60.0102974822,MAFE4ImagesEEG,001,200442,
AFNE01.JPG,AFNE01.JPG,AFNE01.JPG,AFNE01.JPG,AFNE01.JPG,AFNE01.JPG,,,,,,,,,0,9,9,3,,,,,,,,,,,,,,,AMSA17.jpg,AMNE03.jpg,AMSA14.jpg,AMNE18.jpg,AMSA14.jpg,MS,2,num_2,16,num_2,0.966756035108,,,2017_May_15_1750,60.0102974822,MAFE4ImagesEEG,001,200442,
AFNE01.JPG,AFNE01.JPG,AFNE01.JPG,AFNE01.JPG,AFNE01.JPG,AFNE01.JPG,,,,,,,,,1,0,10,3,,,,,,,,,,,,,,,AMNE02.jpg,AMNE11.jpg,AMSA09.jpg,AMSA12.jpg,AMNE11.jpg,MN,1,num_6,32,num_4,0.850123757496,,,2017_May_15_1750,60.0102974822,MAFE4ImagesEEG,001,200442,
AFNE01.JPG,AFNE01.JPG,AFNE01.JPG,AFNE01.JPG,AFNE01.JPG,AFNE01.JPG,,,,,,,,,1,1,11,6,,,,,,,,,,,,,,,AMSA11.jpg,AMNE20.jpg,AMNE09.jpg,AMSA19.jpg,AMSA19.jpg,MS,2,num_4,32,num_6,0.650147427805,,,2017_May_15_1750,60.0102974822,MAFE4ImagesEEG,001,200442,
AFNE01.JPG,AFNE01.JPG,AFNE01.JPG,AFNE01.JPG,AFNE01.JPG,AFNE01.JPG,,,,,,,,,1,2,12,0,,,,,,,,,,,,,,,AMNE20.jpg,AMNE13.jpg,AMSA14.jpg,AMSA13.jpg,AMNE20.jpg,MN,1,num_8,32,num_4,1.06682695076,,,2017_May_15_1750,60.0102974822,MAFE4ImagesEEG,001,200442,
AFNE01.JPG,AFNE01.JPG,AFNE01.JPG,AFNE01.JPG,AFNE01.JPG,AFNE01.JPG,,,,,,,,,1,3,13,4,,,,,,,,,,,,,,,AMNE08.jpg,AMSA12.jpg,AMSA13.jpg,AMNE15.jpg,AMNE08.jpg,MN,1,num_8,32,num_6,0.750133988913,,,2017_May_15_1750,60.0102974822,MAFE4ImagesEEG,001,200442,
AFNE01.JPG,AFNE01.JPG,AFNE01.JPG,AFNE01.JPG,AFNE01.JPG,AFNE01.JPG,,,,,,,,,1,4,14,8,,,,,,,,,,,,,,,AMNE14.jpg,AMSA20.jpg,AMSA11.jpg,AMNE13.jpg,AMSA20.jpg,MS,2,num_6,32,num_8,0.616812373046,,,2017_May_15_1750,60.0102974822,MAFE4ImagesEEG,001,200442,
AFNE01.JPG,AFNE01.JPG,AFNE01.JPG,AFNE01.JPG,AFNE01.JPG,AFNE01.JPG,,,,,,,,,1,5,15,1,,,,,,,,,,,,,,,AMSA04.jpg,AMNE13.jpg,AMSA20.jpg,AMNE06.jpg,AMNE13.jpg,MN,1,num_6,16,num_6,0.666861141101,,,2017_May_15_1750,60.0102974822,MAFE4ImagesEEG,001,200442,
AFNE01.JPG,AFNE01.JPG,AFNE01.JPG,AFNE01.JPG,AFNE01.JPG,AFNE01.JPG,,,,,,,,,1,6,16,9,,,,,,,,,,,,,,,AMSA10.jpg,AMNE05.jpg,AMNE12.jpg,AMSA11.jpg,AMNE12.jpg,MN,1,num_2,32,num_4,0.91679835692,,,2017_May_15_1750,60.0102974822,MAFE4ImagesEEG,001,200442,
AFNE01.JPG,AFNE01.JPG,AFNE01.JPG,AFNE01.JPG,AFNE01.JPG,AFNE01.JPG,,,,,,,,,1,7,17,5,,,,,,,,,,,,,,,AMSA15.jpg,AMNE16.jpg,AMSA06.jpg,AMNE12.jpg,AMSA15.jpg,MS,2,num_8,32,num_6,0.800196869764,,,2017_May_15_1750,60.0102974822,MAFE4ImagesEEG,001,200442,
AFNE01.JPG,AFNE01.JPG,AFNE01.JPG,AFNE01.JPG,AFNE01.JPG,AFNE01.JPG,,,,,,,,,1,8,18,2,,,,,,,,,,,,,,,AMNE14.jpg,AMNE13.jpg,AMSA19.jpg,AMSA13.jpg,AMSA19.jpg,MS,2,num_2,32,num_4,0.933339833748,,,2017_May_15_1750,60.0102974822,MAFE4ImagesEEG,001,200442,
AFNE01.JPG,AFNE01.JPG,AFNE01.JPG,AFNE01.JPG,AFNE01.JPG,AFNE01.JPG,,,,,,,,,1,9,19,7,,,,,,,,,,,,,,,AMSA14.jpg,AMNE06.jpg,AMSA13.jpg,AMNE18.jpg,AMNE06.jpg,MN,1,num_6,32,num_4,1.16683243541,,,2017_May_15_1750,60.0102974822,MAFE4ImagesEEG,001,200442,
AFNE01.JPG,AFNE01.JPG,AFNE01.JPG,AFNE01.JPG,AFNE01.JPG,AFNE01.JPG,,,,,,,,,2,0,20,1,,,,,,,,,,,,,,,AMNE04.jpg,AMNE08.jpg,AMSA06.jpg,AMSA20.jpg,AMSA20.jpg,MS,2,num_4,32,num_2,1.63342441292,,,2017_May_15_1750,60.0102974822,MAFE4ImagesEEG,001,200442,
AFNE01.JPG,AFNE01.JPG,AFNE01.JPG,AFNE01.JPG,AFNE01.JPG,AFNE01.JPG,,,,,,,,,2,1,21,4,,,,,,,,,,,,,,,AMNE13.jpg,AMSA14.jpg,AMSA18.jpg,AMNE11.jpg,AMNE11.jpg,MN,1,num_4,32,num_8,0.933457865845,,,2017_May_15_1750,60.0102974822,MAFE4ImagesEEG,001,200442,
AFNE01.JPG,AFNE01.JPG,AFNE01.JPG,AFNE01.JPG,AFNE01.JPG,AFNE01.JPG,,,,,,,,,2,2,22,3,,,,,,,,,,,,,,,AMNE11.jpg,AMSA12.jpg,AMNE08.jpg,AMSA01.jpg,AMSA12.jpg,MS,2,num_6,16,num_6,1.33342303336,,,2017_May_15_1750,60.0102974822,MAFE4ImagesEEG,001,200442,
AFNE01.JPG,AFNE01.JPG,AFNE01.JPG,AFNE01.JPG,AFNE01.JPG,AFNE01.JPG,,,,,,,,,2,3,23,5,,,,,,,,,,,,,,,AMNE10.jpg,AMSA15.jpg,AMSA19.jpg,AMNE13.jpg,AMSA19.jpg,MS,2,num_2,32,num_4,1.26681578904,,,2017_May_15_1750,60.0102974822,MAFE4ImagesEEG,001,200442,
AFNE01.JPG,AFNE01.JPG,AFNE01.JPG,AFNE01.JPG,AFNE01.JPG,AFNE01.JPG,,,,,,,,,2,4,24,7,,,,,,,,,,,,,,,AMSA12.jpg,AMNE17.jpg,AMNE09.jpg,AMSA11.jpg,AMNE17.jpg,MN,1,num_6,32,num_8,2.58334228722,,,2017_May_15_1750,60.0102974822,MAFE4ImagesEEG,001,200442,
AFNE01.JPG,AFNE01.JPG,AFNE01.JPG,AFNE01.JPG,AFNE01.JPG,AFNE01.JPG,,,,,,,,,2,5,25,0,,,,,,,,,,,,,,,AMSA09.jpg,AMSA11.jpg,AMNE20.jpg,AMNE02.jpg,AMSA11.jpg,MS,2,num_6,16,num_6,1.13346145814,,,2017_May_15_1750,60.0102974822,MAFE4ImagesEEG,001,200442,
AFNE01.JPG,AFNE01.JPG,AFNE01.JPG,AFNE01.JPG,AFNE01.JPG,AFNE01.JPG,,,,,,,,,2,6,26,9,,,,,,,,,,,,,,,AMSA07.jpg,AMNE13.jpg,AMSA15.jpg,AMNE15.jpg,AMNE15.jpg,MN,1,num_4,16,num_4,0.749990618322,,,2017_May_15_1750,60.0102974822,MAFE4ImagesEEG,001,200442,
AFNE01.JPG,AFNE01.JPG,AFNE01.JPG,AFNE01.JPG,AFNE01.JPG,AFNE01.JPG,,,,,,,,,2,7,27,2,,,,,,,,,,,,,,,AMSA06.jpg,AMNE16.jpg,AMSA03.jpg,AMNE13.jpg,AMNE16.jpg,MN,1,num_6,16,num_6,0.666778390761,,,2017_May_15_1750,60.0102974822,MAFE4ImagesEEG,001,200442,
AFNE01.JPG,AFNE01.JPG,AFNE01.JPG,AFNE01.JPG,AFNE01.JPG,AFNE01.JPG,,,,,,,,,2,8,28,6,,,,,,,,,,,,,,,AMSA01.jpg,AMSA14.jpg,AMNE12.jpg,AMNE03.jpg,AMNE12.jpg,MN,1,num_2,32,num_4,0.8167643263,,,2017_May_15_1750,60.0102974822,MAFE4ImagesEEG,001,200442,
AFNE01.JPG,AFNE01.JPG,AFNE01.JPG,AFNE01.JPG,AFNE01.JPG,AFNE01.JPG,,,,,,,,,2,9,29,8,,,,,,,,,,,,,,,AMNE03.jpg,AMSA07.jpg,AMSA15.jpg,AMNE14.jpg,AMSA15.jpg,MS,2,num_2,32,num_6,0.750174080953,,,2017_May_15_1750,60.0102974822,MAFE4ImagesEEG,001,200442,
AFNE01.JPG,AFNE01.JPG,AFNE01.JPG,AFNE01.JPG,AFNE01.JPG,AFNE01.JPG,,,,,,,,,3,0,30,7,,,,,,,,,,,,,,,AMNE12.jpg,AMSA08.jpg,AMSA09.jpg,AMNE11.jpg,AMNE11.jpg,MN,1,num_4,32,num_8,0.883351685014,,,2017_May_15_1750,60.0102974822,MAFE4ImagesEEG,001,200442,
AFNE01.JPG,AFNE01.JPG,AFNE01.JPG,AFNE01.JPG,AFNE01.JPG,AFNE01.JPG,,,,,,,,,3,1,31,8,,,,,,,,,,,,,,,AMSA16.jpg,AMNE18.jpg,AMNE15.jpg,AMSA10.jpg,AMSA10.jpg,MS,2,num_4,32,num_6,1.15010492969,,,2017_May_15_1750,60.0102974822,MAFE4ImagesEEG,001,200442,
AFNE01.JPG,AFNE01.JPG,AFNE01.JPG,AFNE01.JPG,AFNE01.JPG,AFNE01.JPG,,,,,,,,,3,2,32,1,,,,,,,,,,,,,,,AMSA05.jpg,AMSA15.jpg,AMNE13.jpg,AMNE08.jpg,AMNE08.jpg,MN,1,num_4,16,num_4,0.800019821618,,,2017_May_15_1750,60.0102974822,MAFE4ImagesEEG,001,200442,
AFNE01.JPG,AFNE01.JPG,AFNE01.JPG,AFNE01.JPG,AFNE01.JPG,AFNE01.JPG,,,,,,,,,3,3,33,0,,,,,,,,,,,,,,,AMSA16.jpg,AMNE03.jpg,AMNE18.jpg,AMSA19.jpg,AMNE18.jpg,MN,1,num_2,16,num_2,2.89994865004,,,2017_May_15_1750,60.0102974822,MAFE4ImagesEEG,001,200442,
AFNE01.JPG,AFNE01.JPG,AFNE01.JPG,AFNE01.JPG,AFNE01.JPG,AFNE01.JPG,,,,,,,,,3,4,34,6,,,,,,,,,,,,,,,AMSA18.jpg,AMNE02.jpg,AMNE15.jpg,AMSA08.jpg,AMNE02.jpg,MN,1,num_6,16,num_6,1.2669421602,,,2017_May_15_1750,60.0102974822,MAFE4ImagesEEG,001,200442,
AFNE01.JPG,AFNE01.JPG,AFNE01.JPG,AFNE01.JPG,AFNE01.JPG,AFNE01.JPG,,,,,,,,,3,5,35,4,,,,,,,,,,,,,,,AMSA17.jpg,AMSA19.jpg,AMNE14.jpg,AMNE17.jpg,AMNE14.jpg,MN,1,num_2,32,num_8,0.950188257731,,,2017_May_15_1750,60.0102974822,MAFE4ImagesEEG,001,200442,
AFNE01.JPG,AFNE01.JPG,AFNE01.JPG,AFNE01.JPG,AFNE01.JPG,AFNE01.JPG,,,,,,,,,3,6,36,2,,,,,,,,,,,,,,,AMNE11.jpg,AMNE09.jpg,AMSA11.jpg,AMSA12.jpg,AMNE11.jpg,MN,1,num_8,32,num_4,0.816834888887,,,2017_May_15_1750,60.0102974822,MAFE4ImagesEEG,001,200442,
AFNE01.JPG,AFNE01.JPG,AFNE01.JPG,AFNE01.JPG,AFNE01.JPG,AFNE01.JPG,,,,,,,,,3,7,37,9,,,,,,,,,,,,,,,AMSA07.jpg,AMNE17.jpg,AMNE14.jpg,AMSA14.jpg,AMSA14.jpg,MS,2,num_4,32,num_6,0.816778118256,,,2017_May_15_1750,60.0102974822,MAFE4ImagesEEG,001,200442,
AFNE01.JPG,AFNE01.JPG,AFNE01.JPG,AFNE01.JPG,AFNE01.JPG,AFNE01.JPG,,,,,,,,,3,8,38,5,,,,,,,,,,,,,,,AMSA16.jpg,AMNE12.jpg,AMSA19.jpg,AMNE20.jpg,AMSA19.jpg,MS,2,num_2,16,num_2,0.916773017962,,,2017_May_15_1750,60.0102974822,MAFE4ImagesEEG,001,200442,
AFNE01.JPG,AFNE01.JPG,AFNE01.JPG,AFNE01.JPG,AFNE01.JPG,AFNE01.JPG,,,,,,,,,3,9,39,3,,,,,,,,,,,,,,,AMSA02.jpg,AMNE07.jpg,AMSA20.jpg,AMNE04.jpg,AMNE04.jpg,MN,1,num_4,16,num_4,0.583572898526,,,2017_May_15_1750,60.0102974822,MAFE4ImagesEEG,001,200442,
AFNE01.JPG,AFNE01.JPG,AFNE01.JPG,AFNE01.JPG,AFNE01.JPG,AFNE01.JPG,,,,,,,,,4,0,40,4,,,,,,,,,,,,,,,AMNE05.jpg,AMSA04.jpg,AMNE01.jpg,AMSA13.jpg,AMNE01.jpg,MN,1,num_2,32,num_4,1.20007319283,,,2017_May_15_1750,60.0102974822,MAFE4ImagesEEG,001,200442,
AFNE01.JPG,AFNE01.JPG,AFNE01.JPG,AFNE01.JPG,AFNE01.JPG,AFNE01.JPG,,,,,,,,,4,1,41,0,,,,,,,,,,,,,,,AMSA16.jpg,AMSA03.jpg,AMNE07.jpg,AMNE06.jpg,AMNE06.jpg,MN,1,num_4,32,num_6,0.983446334954,,,2017_May_15_1750,60.0102974822,MAFE4ImagesEEG,001,200442,
AFNE01.JPG,AFNE01.JPG,AFNE01.JPG,AFNE01.JPG,AFNE01.JPG,AFNE01.JPG,,,,,,,,,4,2,42,8,,,,,,,,,,,,,,,AMSA12.jpg,AMNE12.jpg,AMSA15.jpg,AMNE10.jpg,AMNE10.jpg,MN,1,num_4,16,num_4,0.816786136944,,,2017_May_15_1750,60.0102974822,MAFE4ImagesEEG,001,200442,
AFNE01.JPG,AFNE01.JPG,AFNE01.JPG,AFNE01.JPG,AFNE01.JPG,AFNE01.JPG,,,,,,,,,4,3,43,6,,,,,,,,,,,,,,,AMNE10.jpg,AMNE01.jpg,AMSA02.jpg,AMSA13.jpg,AMSA13.jpg,MS,2,num_4,32,num_8,0.883445982356,,,2017_May_15_1750,60.0102974822,MAFE4ImagesEEG,001,200442,
AFNE01.JPG,AFNE01.JPG,AFNE01.JPG,AFNE01.JPG,AFNE01.JPG,AFNE01.JPG,,,,,,,,,4,4,44,5,,,,,,,,,,,,,,,AMSA06.jpg,AMNE03.jpg,AMSA10.jpg,AMNE14.jpg,AMNE14.jpg,MN,1,num_4,32,num_6,0.666816558689,,,2017_May_15_1750,60.0102974822,MAFE4ImagesEEG,001,200442,
AFNE01.JPG,AFNE01.JPG,AFNE01.JPG,AFNE01.JPG,AFNE01.JPG,AFNE01.JPG,,,,,,,,,4,5,45,2,,,,,,,,,,,,,,,AMSA20.jpg,AMSA07.jpg,AMNE20.jpg,AMNE16.jpg,AMNE16.jpg,MN,1,num_4,32,num_2,0.883441171143,,,2017_May_15_1750,60.0102974822,MAFE4ImagesEEG,001,200442,
AFNE01.JPG,AFNE01.JPG,AFNE01.JPG,AFNE01.JPG,AFNE01.JPG,AFNE01.JPG,,,,,,,,,4,6,46,1,,,,,,,,,,,,,,,AMNE09.jpg,AMSA01.jpg,AMNE12.jpg,AMSA20.jpg,AMSA01.jpg,MS,2,num_6,32,num_4,0.650132994633,,,2017_May_15_1750,60.0102974822,MAFE4ImagesEEG,001,200442,
AFNE01.JPG,AFNE01.JPG,AFNE01.JPG,AFNE01.JPG,AFNE01.JPG,AFNE01.JPG,,,,,,,,,4,7,47,7,,,,,,,,,,,,,,,AMNE05.jpg,AMNE06.jpg,AMSA07.jpg,AMSA02.jpg,AMSA07.jpg,MS,2,num_2,32,num_6,0.700150330551,,,2017_May_15_1750,60.0102974822,MAFE4ImagesEEG,001,200442,
AFNE01.JPG,AFNE01.JPG,AFNE01.JPG,AFNE01.JPG,AFNE01.JPG,AFNE01.JPG,,,,,,,,,4,8,48,3,,,,,,,,,,,,,,,AMNE11.jpg,AMNE09.jpg,AMSA02.jpg,AMSA15.jpg,AMSA15.jpg,MS,2,num_4,16,num_4,0.75012885686,,,2017_May_15_1750,60.0102974822,MAFE4ImagesEEG,001,200442,
AFNE01.JPG,AFNE01.JPG,AFNE01.JPG,AFNE01.JPG,AFNE01.JPG,AFNE01.JPG,,,,,,,,,4,9,49,9,,,,,,,,,,,,,,,AMSA20.jpg,AMSA16.jpg,AMNE03.jpg,AMNE15.jpg,AMNE15.jpg,MN,1,num_4,32,num_2,1.39974706527,,,2017_May_15_1750,60.0102974822,MAFE4ImagesEEG,001,200442,
AFNE01.JPG,AFNE01.JPG,AFNE01.JPG,AFNE01.JPG,AFNE01.JPG,AFNE01.JPG,,,,,,,,,5,0,50,7,,,,,,,,,,,,,,,AMSA18.jpg,AMSA13.jpg,AMNE11.jpg,AMNE15.jpg,AMSA13.jpg,MS,2,num_6,16,num_6,0.816755666398,,,2017_May_15_1750,60.0102974822,MAFE4ImagesEEG,001,200442,
AFNE01.JPG,AFNE01.JPG,AFNE01.JPG,AFNE01.JPG,AFNE01.JPG,AFNE01.JPG,,,,,,,,,5,1,51,8,,,,,,,,,,,,,,,AMNE18.jpg,AMSA08.jpg,AMNE16.jpg,AMSA07.jpg,AMSA08.jpg,MS,2,num_6,32,num_4,0.583475073334,,,2017_May_15_1750,60.0102974822,MAFE4ImagesEEG,001,200442,
AFNE01.JPG,AFNE01.JPG,AFNE01.JPG,AFNE01.JPG,AFNE01.JPG,AFNE01.JPG,,,,,,,,,5,2,52,4,,,,,,,,,,,,,,,AMNE01.jpg,AMSA11.jpg,AMSA05.jpg,AMNE11.jpg,AMNE11.jpg,MN,1,num_4,32,num_2,0.966701189056,,,2017_May_15_1750,60.0102974822,MAFE4ImagesEEG,001,200442,
AFNE01.JPG,AFNE01.JPG,AFNE01.JPG,AFNE01.JPG,AFNE01.JPG,AFNE01.JPG,,,,,,,,,5,3,53,3,,,,,,,,,,,,,,,AMNE19.jpg,AMNE05.jpg,AMSA06.jpg,AMSA11.jpg,AMNE19.jpg,MN,1,num_8,32,num_4,2.88331095083,,,2017_May_15_1750,60.0102974822,MAFE4ImagesEEG,001,200442,
AFNE01.JPG,AFNE01.JPG,AFNE01.JPG,AFNE01.JPG,AFNE01.JPG,AFNE01.JPG,,,,,,,,,5,4,54,2,,,,,,,,,,,,,,,AMSA12.jpg,AMNE07.jpg,AMSA08.jpg,AMNE14.jpg,AMSA12.jpg,MS,2,num_8,32,num_4,0.500197094399,,,2017_May_15_1750,60.0102974822,MAFE4ImagesEEG,001,200442,
AFNE01.JPG,AFNE01.JPG,AFNE01.JPG,AFNE01.JPG,AFNE01.JPG,AFNE01.JPG,,,,,,,,,5,5,55,1,,,,,,,,,,,,,,,AMNE20.jpg,AMNE14.jpg,AMSA08.jpg,AMSA13.jpg,AMSA08.jpg,MS,2,num_2,32,num_6,0.66679795552,,,2017_May_15_1750,60.0102974822,MAFE4ImagesEEG,001,200442,
AFNE01.JPG,AFNE01.JPG,AFNE01.JPG,AFNE01.JPG,AFNE01.JPG,AFNE01.JPG,,,,,,,,,5,6,56,9,,,,,,,,,,,,,,,AMSA05.jpg,AMSA03.jpg,AMNE01.jpg,AMNE03.jpg,AMSA03.jpg,MS,2,num_6,32,num_8,0.81677042041,,,2017_May_15_1750,60.0102974822,MAFE4ImagesEEG,001,200442,
AFNE01.JPG,AFNE01.JPG,AFNE01.JPG,AFNE01.JPG,AFNE01.JPG,AFNE01.JPG,,,,,,,,,5,7,57,6,,,,,,,,,,,,,,,AMSA08.jpg,AMNE18.jpg,AMNE10.jpg,AMSA01.jpg,AMNE10.jpg,MN,1,num_2,32,num_6,0.666785767768,,,2017_May_15_1750,60.0102974822,MAFE4ImagesEEG,001,200442,
AFNE01.JPG,AFNE01.JPG,AFNE01.JPG,AFNE01.JPG,AFNE01.JPG,AFNE01.JPG,,,,,,,,,5,8,58,0,,,,,,,,,,,,,,,AMNE14.jpg,AMSA13.jpg,AMNE12.jpg,AMSA18.jpg,AMSA18.jpg,MS,2,num_4,16,num_4,0.717029866297,,,2017_May_15_1750,60.0102974822,MAFE4ImagesEEG,001,200442,
AFNE01.JPG,AFNE01.JPG,AFNE01.JPG,AFNE01.JPG,AFNE01.JPG,AFNE01.JPG,,,,,,,,,5,9,59,5,,,,,,,,,,,,,,,AMSA13.jpg,AMSA08.jpg,AMNE11.jpg,AMNE08.jpg,AMNE11.jpg,MN,1,num_2,32,num_6,0.583475714549,,,2017_May_15_1750,60.0102974822,MAFE4ImagesEEG,001,200442,
,,,,,,,,,,,,,,,,,,,,,,,,,,,,,,,,,,,,,,,,,,,space,2.19998049876,2017_May_15_1750,60.0102974822,MAFE4ImagesEEG,001,200442,
AFNE01.JPG,AFNE01.JPG,AFNE01.JPG,AFNE01.JPG,AFNE01.JPG,AFNE01.JPG,,,,,,,,,,,,,0,0,0,8,,,,,,,,,,,AFNE01.jpg,AFSA11.jpg,AFNE12.jpg,AFSA16.jpg,AFSA16.jpg,FS,4,num_4,32,num_6,0.7334991768,,,2017_May_15_1750,60.0102974822,MAFE4ImagesEEG,001,200442,
AFNE01.JPG,AFNE01.JPG,AFNE01.JPG,AFNE01.JPG,AFNE01.JPG,AFNE01.JPG,,,,,,,,,,,,,0,1,1,5,,,,,,,,,,,AFNE20.jpg,AFSA06.jpg,AFSA05.jpg,AFNE08.jpg,AFSA06.jpg,FS,4,num_6,32,num_4,1.30006167805,,,2017_May_15_1750,60.0102974822,MAFE4ImagesEEG,001,200442,
AFNE01.JPG,AFNE01.JPG,AFNE01.JPG,AFNE01.JPG,AFNE01.JPG,AFNE01.JPG,,,,,,,,,,,,,0,2,2,0,,,,,,,,,,,AFSA12.jpg,AFNE16.jpg,AFNE01.jpg,AFSA15.jpg,AFNE16.jpg,FN,3,num_6,16,num_6,0.833482850809,,,2017_May_15_1750,60.0102974822,MAFE4ImagesEEG,001,200442,
AFNE01.JPG,AFNE01.JPG,AFNE01.JPG,AFNE01.JPG,AFNE01.JPG,AFNE01.JPG,,,,,,,,,,,,,0,3,3,3,,,,,,,,,,,AFSA17.jpg,AFSA19.jpg,AFNE06.jpg,AFNE13.jpg,AFNE13.jpg,FN,3,num_4,32,num_8,1.04996088613,,,2017_May_15_1750,60.0102974822,MAFE4ImagesEEG,001,200442,
AFNE01.JPG,AFNE01.JPG,AFNE01.JPG,AFNE01.JPG,AFNE01.JPG,AFNE01.JPG,,,,,,,,,,,,,0,4,4,9,,,,,,,,,,,AFSA13.jpg,AFNE14.jpg,AFSA01.jpg,AFNE13.jpg,AFSA01.jpg,FS,4,num_2,32,num_4,0.583499128465,,,2017_May_15_1750,60.0102974822,MAFE4ImagesEEG,001,200442,
AFNE01.JPG,AFNE01.JPG,AFNE01.JPG,AFNE01.JPG,AFNE01.JPG,AFNE01.JPG,,,,,,,,,,,,,0,5,5,6,,,,,,,,,,,AFNE14.jpg,AFSA02.jpg,AFNE01.jpg,AFSA18.jpg,AFNE14.jpg,FN,3,num_8,32,num_4,2.53332270589,,,2017_May_15_1750,60.0102974822,MAFE4ImagesEEG,001,200442,
AFNE01.JPG,AFNE01.JPG,AFNE01.JPG,AFNE01.JPG,AFNE01.JPG,AFNE01.JPG,,,,,,,,,,,,,0,6,6,2,,,,,,,,,,,AFNE15.jpg,AFNE19.jpg,AFSA14.jpg,AFSA09.jpg,AFSA09.jpg,FS,4,num_4,32,num_8,0.950109356083,,,2017_May_15_1750,60.0102974822,MAFE4ImagesEEG,001,200442,
AFNE01.JPG,AFNE01.JPG,AFNE01.JPG,AFNE01.JPG,AFNE01.JPG,AFNE01.JPG,,,,,,,,,,,,,0,7,7,7,,,,,,,,,,,AFSA10.jpg,AFNE13.jpg,AFNE15.jpg,AFSA17.jpg,AFSA10.jpg,FS,4,num_8,32,num_2,0.750183382537,,,2017_May_15_1750,60.0102974822,MAFE4ImagesEEG,001,200442,
AFNE01.JPG,AFNE01.JPG,AFNE01.JPG,AFNE01.JPG,AFNE01.JPG,AFNE01.JPG,,,,,,,,,,,,,0,8,8,1,,,,,,,,,,,AFSA12.jpg,AFNE14.jpg,AFNE11.jpg,AFSA13.jpg,AFNE11.jpg,FN,3,num_2,32,num_6,0.716813046485,,,2017_May_15_1750,60.0102974822,MAFE4ImagesEEG,001,200442,
AFNE01.JPG,AFNE01.JPG,AFNE01.JPG,AFNE01.JPG,AFNE01.JPG,AFNE01.JPG,,,,,,,,,,,,,0,9,9,4,,,,,,,,,,,AFNE02.jpg,AFSA08.jpg,AFSA13.jpg,AFNE01.jpg,AFNE01.jpg,FN,3,num_4,16,num_4,0.850181811024,,,2017_May_15_1750,60.0102974822,MAFE4ImagesEEG,001,200442,
AFNE01.JPG,AFNE01.JPG,AFNE01.JPG,AFNE01.JPG,AFNE01.JPG,AFNE01.JPG,,,,,,,,,,,,,1,0,10,7,,,,,,,,,,,AFNE01.jpg,AFSA19.jpg,AFNE08.jpg,AFSA03.jpg,AFSA03.jpg,FS,4,num_4,32,num_6,0.833497926127,,,2017_May_15_1750,60.0102974822,MAFE4ImagesEEG,001,200442,
AFNE01.JPG,AFNE01.JPG,AFNE01.JPG,AFNE01.JPG,AFNE01.JPG,AFNE01.JPG,,,,,,,,,,,,,1,1,11,3,,,,,,,,,,,AFSA19.jpg,AFSA17.jpg,AFNE07.jpg,AFNE11.jpg,AFSA17.jpg,FS,4,num_6,32,num_4,0.733101460617,,,2017_May_15_1750,60.0102974822,MAFE4ImagesEEG,001,200442,
AFNE01.JPG,AFNE01.JPG,AFNE01.JPG,AFNE01.JPG,AFNE01.JPG,AFNE01.JPG,,,,,,,,,,,,,1,2,12,8,,,,,,,,,,,AFNE13.jpg,AFSA04.jpg,AFSA11.jpg,AFNE06.jpg,AFSA11.jpg,FS,4,num_2,32,num_8,0.783465514891,,,2017_May_15_1750,60.0102974822,MAFE4ImagesEEG,001,200442,
AFNE01.JPG,AFNE01.JPG,AFNE01.JPG,AFNE01.JPG,AFNE01.JPG,AFNE01.JPG,,,,,,,,,,,,,1,3,13,1,,,,,,,,,,,AFSA14.jpg,AFSA13.jpg,AFNE16.jpg,AFNE13.jpg,AFNE16.jpg,FN,3,num_2,32,num_6,0.700099012349,,,2017_May_15_1750,60.0102974822,MAFE4ImagesEEG,001,200442,
AFNE01.JPG,AFNE01.JPG,AFNE01.JPG,AFNE01.JPG,AFNE01.JPG,AFNE01.JPG,,,,,,,,,,,,,1,4,14,2,,,,,,,,,,,AFNE19.jpg,AFSA18.jpg,AFNE07.jpg,AFSA11.jpg,AFNE07.jpg,FN,3,num_2,32,num_8,0.816774269566,,,2017_May_15_1750,60.0102974822,MAFE4ImagesEEG,001,200442,
AFNE01.JPG,AFNE01.JPG,AFNE01.JPG,AFNE01.JPG,AFNE01.JPG,AFNE01.JPG,,,,,,,,,,,,,1,5,15,0,,,,,,,,,,,AFSA12.jpg,AFSA20.jpg,AFNE09.jpg,AFNE05.jpg,AFSA20.jpg,FS,4,num_6,16,num_6,0.666647208855,,,2017_May_15_1750,60.0102974822,MAFE4ImagesEEG,001,200442,
AFNE01.JPG,AFNE01.JPG,AFNE01.JPG,AFNE01.JPG,AFNE01.JPG,AFNE01.JPG,,,,,,,,,,,,,1,6,16,6,,,,,,,,,,,AFNE05.jpg,AFSA03.jpg,AFNE16.jpg,AFSA02.jpg,AFSA03.jpg,FS,4,num_6,32,num_8,0.783537039999,,,2017_May_15_1750,60.0102974822,MAFE4ImagesEEG,001,200442,
AFNE01.JPG,AFNE01.JPG,AFNE01.JPG,AFNE01.JPG,AFNE01.JPG,AFNE01.JPG,,,,,,,,,,,,,1,7,17,4,,,,,,,,,,,AFSA02.jpg,AFNE10.jpg,AFNE11.jpg,AFSA06.jpg,AFNE11.jpg,FN,3,num_2,16,num_2,1.16673685517,,,2017_May_15_1750,60.0102974822,MAFE4ImagesEEG,001,200442,
AFNE01.JPG,AFNE01.JPG,AFNE01.JPG,AFNE01.JPG,AFNE01.JPG,AFNE01.JPG,,,,,,,,,,,,,1,8,18,5,,,,,,,,,,,AFNE06.jpg,AFNE19.jpg,AFSA03.jpg,AFSA10.jpg,AFNE06.jpg,FN,3,num_8,32,num_4,0.816832643934,,,2017_May_15_1750,60.0102974822,MAFE4ImagesEEG,001,200442,
AFNE01.JPG,AFNE01.JPG,AFNE01.JPG,AFNE01.JPG,AFNE01.JPG,AFNE01.JPG,,,,,,,,,,,,,1,9,19,9,,,,,,,,,,,AFNE07.jpg,AFNE18.jpg,AFSA06.jpg,AFSA10.jpg,AFNE07.jpg,FN,3,num_8,32,num_6,0.683517122176,,,2017_May_15_1750,60.0102974822,MAFE4ImagesEEG,001,200442,
AFNE01.JPG,AFNE01.JPG,AFNE01.JPG,AFNE01.JPG,AFNE01.JPG,AFNE01.JPG,,,,,,,,,,,,,2,0,20,6,,,,,,,,,,,AFNE01.jpg,AFNE10.jpg,AFSA01.jpg,AFSA05.jpg,AFNE10.jpg,FN,3,num_6,16,num_6,1.21673206007,,,2017_May_15_1750,60.0102974822,MAFE4ImagesEEG,001,200442,
AFNE01.JPG,AFNE01.JPG,AFNE01.JPG,AFNE01.JPG,AFNE01.JPG,AFNE01.JPG,,,,,,,,,,,,,2,1,21,7,,,,,,,,,,,AFNE02.jpg,AFSA06.jpg,AFNE10.jpg,AFSA05.jpg,AFNE02.jpg,FN,3,num_8,16,num_8,0.783568151761,,,2017_May_15_1750,60.0102974822,MAFE4ImagesEEG,001,200442,
AFNE01.JPG,AFNE01.JPG,AFNE01.JPG,AFNE01.JPG,AFNE01.JPG,AFNE01.JPG,,,,,,,,,,,,,2,2,22,0,,,,,,,,,,,AFNE07.jpg,AFSA13.jpg,AFNE02.jpg,AFSA20.jpg,AFSA20.jpg,FS,4,num_4,32,num_6,0.750235984102,,,2017_May_15_1750,60.0102974822,MAFE4ImagesEEG,001,200442,
AFNE01.JPG,AFNE01.JPG,AFNE01.JPG,AFNE01.JPG,AFNE01.JPG,AFNE01.JPG,,,,,,,,,,,,,2,3,23,2,,,,,,,,,,,AFSA08.jpg,AFNE16.jpg,AFNE01.jpg,AFSA05.jpg,AFNE01.jpg,FN,3,num_2,32,num_4,0.950154901017,,,2017_May_15_1750,60.0102974822,MAFE4ImagesEEG,001,200442,
AFNE01.JPG,AFNE01.JPG,AFNE01.JPG,AFNE01.JPG,AFNE01.JPG,AFNE01.JPG,,,,,,,,,,,,,2,4,24,5,,,,,,,,,,,AFNE15.jpg,AFSA11.jpg,AFNE11.jpg,AFSA10.jpg,AFSA11.jpg,FS,4,num_6,32,num_4,1.15008087456,,,2017_May_15_1750,60.0102974822,MAFE4ImagesEEG,001,200442,
AFNE01.JPG,AFNE01.JPG,AFNE01.JPG,AFNE01.JPG,AFNE01.JPG,AFNE01.JPG,,,,,,,,,,,,,2,5,25,4,,,,,,,,,,,AFNE07.jpg,AFSA17.jpg,AFNE04.jpg,AFSA18.jpg,AFNE07.jpg,FN,3,num_8,32,num_6,0.550142263994,,,2017_May_15_1750,60.0102974822,MAFE4ImagesEEG,001,200442,
AFNE01.JPG,AFNE01.JPG,AFNE01.JPG,AFNE01.JPG,AFNE01.JPG,AFNE01.JPG,,,,,,,,,,,,,2,6,26,1,,,,,,,,,,,AFNE06.jpg,AFSA11.jpg,AFSA02.jpg,AFNE15.jpg,AFSA02.jpg,FS,4,num_2,32,num_4,0.916739982087,,,2017_May_15_1750,60.0102974822,MAFE4ImagesEEG,001,200442,
AFNE01.JPG,AFNE01.JPG,AFNE01.JPG,AFNE01.JPG,AFNE01.JPG,AFNE01.JPG,,,,,,,,,,,,,2,7,27,8,,,,,,,,,,,AFSA12.jpg,AFNE09.jpg,AFNE14.jpg,AFSA04.jpg,AFNE09.jpg,FN,3,num_6,16,num_6,0.800185644068,,,2017_May_15_1750,60.0102974822,MAFE4ImagesEEG,001,200442,
AFNE01.JPG,AFNE01.JPG,AFNE01.JPG,AFNE01.JPG,AFNE01.JPG,AFNE01.JPG,,,,,,,,,,,,,2,8,28,9,,,,,,,,,,,AFSA18.jpg,AFNE07.jpg,AFNE17.jpg,AFSA20.jpg,AFNE17.jpg,FN,3,num_2,32,num_4,0.666788333561,,,2017_May_15_1750,60.0102974822,MAFE4ImagesEEG,001,200442,
AFNE01.JPG,AFNE01.JPG,AFNE01.JPG,AFNE01.JPG,AFNE01.JPG,AFNE01.JPG,,,,,,,,,,,,,2,9,29,3,,,,,,,,,,,AFNE19.jpg,AFSA15.jpg,AFNE10.jpg,AFSA03.jpg,AFNE19.jpg,FN,3,num_8,32,num_6,0.500158926472,,,2017_May_15_1750,60.0102974822,MAFE4ImagesEEG,001,200442,
AFNE01.JPG,AFNE01.JPG,AFNE01.JPG,AFNE01.JPG,AFNE01.JPG,AFNE01.JPG,,,,,,,,,,,,,3,0,30,4,,,,,,,,,,,AFSA10.jpg,AFNE02.jpg,AFNE10.jpg,AFSA01.jpg,AFNE02.jpg,FN,3,num_6,32,num_4,0.616835786961,,,2017_May_15_1750,60.0102974822,MAFE4ImagesEEG,001,200442,
AFNE01.JPG,AFNE01.JPG,AFNE01.JPG,AFNE01.JPG,AFNE01.JPG,AFNE01.JPG,,,,,,,,,,,,,3,1,31,1,,,,,,,,,,,AFNE02.jpg,AFSA05.jpg,AFNE10.jpg,AFSA08.jpg,AFNE02.jpg,FN,3,num_8,32,num_4,0.650126258843,,,2017_May_15_1750,60.0102974822,MAFE4ImagesEEG,001,200442,
AFNE01.JPG,AFNE01.JPG,AFNE01.JPG,AFNE01.JPG,AFNE01.JPG,AFNE01.JPG,,,,,,,,,,,,,3,2,32,0,,,,,,,,,,,AFNE14.jpg,AFSA13.jpg,AFNE16.jpg,AFSA11.jpg,AFNE16.jpg,FN,3,num_2,32,num_6,0.600218936335,,,2017_May_15_1750,60.0102974822,MAFE4ImagesEEG,001,200442,
AFNE01.JPG,AFNE01.JPG,AFNE01.JPG,AFNE01.JPG,AFNE01.JPG,AFNE01.JPG,,,,,,,,,,,,,3,3,33,6,,,,,,,,,,,AFSA17.jpg,AFNE19.jpg,AFNE10.jpg,AFSA13.jpg,AFSA13.jpg,FS,4,num_4,16,num_4,0.700160915032,,,2017_May_15_1750,60.0102974822,MAFE4ImagesEEG,001,200442,
AFNE01.JPG,AFNE01.JPG,AFNE01.JPG,AFNE01.JPG,AFNE01.JPG,AFNE01.JPG,,,,,,,,,,,,,3,4,34,7,,,,,,,,,,,AFSA15.jpg,AFNE05.jpg,AFNE08.jpg,AFSA04.jpg,AFSA04.jpg,FS,4,num_4,32,num_2,1.71668378869,,,2017_May_15_1750,60.0102974822,MAFE4ImagesEEG,001,200442,
AFNE01.JPG,AFNE01.JPG,AFNE01.JPG,AFNE01.JPG,AFNE01.JPG,AFNE01.JPG,,,,,,,,,,,,,3,5,35,5,,,,,,,,,,,AFNE17.jpg,AFSA14.jpg,AFNE13.jpg,AFSA12.jpg,AFNE17.jpg,FN,3,num_8,32,num_6,0.633434034884,,,2017_May_15_1750,60.0102974822,MAFE4ImagesEEG,001,200442,
AFNE01.JPG,AFNE01.JPG,AFNE01.JPG,AFNE01.JPG,AFNE01.JPG,AFNE01.JPG,,,,,,,,,,,,,3,6,36,2,,,,,,,,,,,AFSA13.jpg,AFNE08.jpg,AFNE15.jpg,AFSA04.jpg,AFNE08.jpg,FN,3,num_6,32,num_8,1.86665849807,,,2017_May_15_1750,60.0102974822,MAFE4ImagesEEG,001,200442,
AFNE01.JPG,AFNE01.JPG,AFNE01.JPG,AFNE01.JPG,AFNE01.JPG,AFNE01.JPG,,,,,,,,,,,,,3,7,37,9,,,,,,,,,,,AFNE03.jpg,AFSA15.jpg,AFSA05.jpg,AFNE13.jpg,AFNE13.jpg,FN,3,num_4,32,num_2,2.11665248452,,,2017_May_15_1750,60.0102974822,MAFE4ImagesEEG,001,200442,
AFNE01.JPG,AFNE01.JPG,AFNE01.JPG,AFNE01.JPG,AFNE01.JPG,AFNE01.JPG,,,,,,,,,,,,,3,8,38,3,,,,,,,,,,,AFNE07.jpg,AFNE12.jpg,AFSA14.jpg,AFSA19.jpg,AFSA19.jpg,FS,4,num_4,32,num_6,0.80011411896,,,2017_May_15_1750,60.0102974822,MAFE4ImagesEEG,001,200442,
AFNE01.JPG,AFNE01.JPG,AFNE01.JPG,AFNE01.JPG,AFNE01.JPG,AFNE01.JPG,,,,,,,,,,,,,3,9,39,8,,,,,,,,,,,AFNE13.jpg,AFSA01.jpg,AFNE19.jpg,AFSA08.jpg,AFNE19.jpg,FN,3,num_2,32,num_4,2.15000261413,,,2017_May_15_1750,60.0102974822,MAFE4ImagesEEG,001,200442,
AFNE01.JPG,AFNE01.JPG,AFNE01.JPG,AFNE01.JPG,AFNE01.JPG,AFNE01.JPG,,,,,,,,,,,,,4,0,40,9,,,,,,,,,,,AFNE04.jpg,AFSA06.jpg,AFSA09.jpg,AFNE13.jpg,AFNE04.jpg,FN,3,num_8,16,num_8,1.36679625604,,,2017_May_15_1750,60.0102974822,MAFE4ImagesEEG,001,200442,
AFNE01.JPG,AFNE01.JPG,AFNE01.JPG,AFNE01.JPG,AFNE01.JPG,AFNE01.JPG,,,,,,,,,,,,,4,1,41,1,,,,,,,,,,,AFNE15.jpg,AFSA11.jpg,AFSA19.jpg,AFNE18.jpg,AFNE15.jpg,FN,3,num_8,32,num_4,0.866786793806,,,2017_May_15_1750,60.0102974822,MAFE4ImagesEEG,001,200442,
AFNE01.JPG,AFNE01.JPG,AFNE01.JPG,AFNE01.JPG,AFNE01.JPG,AFNE01.JPG,,,,,,,,,,,,,4,2,42,0,,,,,,,,,,,AFSA11.jpg,AFNE12.jpg,AFNE17.jpg,AFSA19.jpg,AFSA19.jpg,FS,4,num_4,32,num_6,1.00000064168,,,2017_May_15_1750,60.0102974822,MAFE4ImagesEEG,001,200442,
AFNE01.JPG,AFNE01.JPG,AFNE01.JPG,AFNE01.JPG,AFNE01.JPG,AFNE01.JPG,,,,,,,,,,,,,4,3,43,2,,,,,,,,,,,AFSA20.jpg,AFNE02.jpg,AFSA13.jpg,AFNE15.jpg,AFNE02.jpg,FN,3,num_6,32,num_8,0.933493146673,,,2017_May_15_1750,60.0102974822,MAFE4ImagesEEG,001,200442,
AFNE01.JPG,AFNE01.JPG,AFNE01.JPG,AFNE01.JPG,AFNE01.JPG,AFNE01.JPG,,,,,,,,,,,,,4,4,44,6,,,,,,,,,,,AFSA05.jpg,AFNE04.jpg,AFNE13.jpg,AFSA18.jpg,AFSA05.jpg,FS,4,num_8,32,num_4,0.950119619723,,,2017_May_15_1750,60.0102974822,MAFE4ImagesEEG,001,200442,
AFNE01.JPG,AFNE01.JPG,AFNE01.JPG,AFNE01.JPG,AFNE01.JPG,AFNE01.JPG,,,,,,,,,,,,,4,5,45,4,,,,,,,,,,,AFSA07.jpg,AFNE14.jpg,AFSA16.jpg,AFNE13.jpg,AFNE13.jpg,FN,3,num_4,32,num_6,0.933437017724,,,2017_May_15_1750,60.0102974822,MAFE4ImagesEEG,001,200442,
AFNE01.JPG,AFNE01.JPG,AFNE01.JPG,AFNE01.JPG,AFNE01.JPG,AFNE01.JPG,,,,,,,,,,,,,4,6,46,7,,,,,,,,,,,AFNE18.jpg,AFSA09.jpg,AFNE04.jpg,AFSA04.jpg,AFNE04.jpg,FN,3,num_2,16,num_2,1.01676599449,,,2017_May_15_1750,60.0102974822,MAFE4ImagesEEG,001,200442,
AFNE01.JPG,AFNE01.JPG,AFNE01.JPG,AFNE01.JPG,AFNE01.JPG,AFNE01.JPG,,,,,,,,,,,,,4,7,47,5,,,,,,,,,,,AFNE13.jpg,AFSA09.jpg,AFSA08.jpg,AFNE16.jpg,AFSA09.jpg,FS,4,num_6,32,num_4,1.95010197908,,,2017_May_15_1750,60.0102974822,MAFE4ImagesEEG,001,200442,
AFNE01.JPG,AFNE01.JPG,AFNE01.JPG,AFNE01.JPG,AFNE01.JPG,AFNE01.JPG,,,,,,,,,,,,,4,8,48,3,,,,,,,,,,,AFSA02.jpg,AFSA06.jpg,AFNE14.jpg,AFNE02.jpg,AFSA06.jpg,FS,4,num_6,16,num_6,1.38342786022,,,2017_May_15_1750,60.0102974822,MAFE4ImagesEEG,001,200442,
AFNE01.JPG,AFNE01.JPG,AFNE01.JPG,AFNE01.JPG,AFNE01.JPG,AFNE01.JPG,,,,,,,,,,,,,4,9,49,8,,,,,,,,,,,AFSA15.jpg,AFSA02.jpg,AFNE01.jpg,AFNE18.jpg,AFNE01.jpg,FN,3,num_2,16,num_2,1.00011354173,,,2017_May_15_1750,60.0102974822,MAFE4ImagesEEG,001,200442,
AFNE01.JPG,AFNE01.JPG,AFNE01.JPG,AFNE01.JPG,AFNE01.JPG,AFNE01.JPG,,,,,,,,,,,,,5,0,50,2,,,,,,,,,,,AFNE07.jpg,AFSA10.jpg,AFSA04.jpg,AFNE15.jpg,AFSA10.jpg,FS,4,num_6,16,num_6,0.650157049764,,,2017_May_15_1750,60.0102974822,MAFE4ImagesEEG,001,200442,
AFNE01.JPG,AFNE01.JPG,AFNE01.JPG,AFNE01.JPG,AFNE01.JPG,AFNE01.JPG,,,,,,,,,,,,,5,1,51,8,,,,,,,,,,,AFSA05.jpg,AFNE14.jpg,AFNE19.jpg,AFSA03.jpg,AFSA03.jpg,FS,4,num_4,16,num_4,0.617095265072,,,2017_May_15_1750,60.0102974822,MAFE4ImagesEEG,001,200442,
AFNE01.JPG,AFNE01.JPG,AFNE01.JPG,AFNE01.JPG,AFNE01.JPG,AFNE01.JPG,,,,,,,,,,,,,5,2,52,4,,,,,,,,,,,AFSA16.jpg,AFSA04.jpg,AFNE01.jpg,AFNE08.jpg,AFSA04.jpg,FS,4,num_6,16,num_6,0.733476725407,,,2017_May_15_1750,60.0102974822,MAFE4ImagesEEG,001,200442,
AFNE01.JPG,AFNE01.JPG,AFNE01.JPG,AFNE01.JPG,AFNE01.JPG,AFNE01.JPG,,,,,,,,,,,,,5,3,53,1,,,,,,,,,,,AFNE19.jpg,AFSA10.jpg,AFSA08.jpg,AFNE18.jpg,AFSA10.jpg,FS,4,num_6,32,num_8,0.716776482761,,,2017_May_15_1750,60.0102974822,MAFE4ImagesEEG,001,200442,
AFNE01.JPG,AFNE01.JPG,AFNE01.JPG,AFNE01.JPG,AFNE01.JPG,AFNE01.JPG,,,,,,,,,,,,,5,4,54,9,,,,,,,,,,,AFSA10.jpg,AFNE18.jpg,AFSA17.jpg,AFNE15.jpg,AFSA10.jpg,FS,4,num_8,16,num_8,3.76650194591,,,2017_May_15_1750,60.0102974822,MAFE4ImagesEEG,001,200442,
AFNE01.JPG,AFNE01.JPG,AFNE01.JPG,AFNE01.JPG,AFNE01.JPG,AFNE01.JPG,,,,,,,,,,,,,5,5,55,0,,,,,,,,,,,AFNE06.jpg,AFNE20.jpg,AFSA13.jpg,AFSA09.jpg,AFSA13.jpg,FS,4,num_2,32,num_6,2.40001808992,,,2017_May_15_1750,60.0102974822,MAFE4ImagesEEG,001,200442,
AFNE01.JPG,AFNE01.JPG,AFNE01.JPG,AFNE01.JPG,AFNE01.JPG,AFNE01.JPG,,,,,,,,,,,,,5,6,56,7,,,,,,,,,,,AFNE16.jpg,AFNE19.jpg,AFSA13.jpg,AFSA19.jpg,AFSA19.jpg,FS,4,num_4,16,num_4,0.683501085266,,,2017_May_15_1750,60.0102974822,MAFE4ImagesEEG,001,200442,
AFNE01.JPG,AFNE01.JPG,AFNE01.JPG,AFNE01.JPG,AFNE01.JPG,AFNE01.JPG,,,,,,,,,,,,,5,7,57,3,,,,,,,,,,,AFSA20.jpg,AFNE11.jpg,AFSA12.jpg,AFNE05.jpg,AFSA20.jpg,FS,4,num_8,16,num_8,0.750118272379,,,2017_May_15_1750,60.0102974822,MAFE4ImagesEEG,001,200442,
AFNE01.JPG,AFNE01.JPG,AFNE01.JPG,AFNE01.JPG,AFNE01.JPG,AFNE01.JPG,,,,,,,,,,,,,5,8,58,5,,,,,,,,,,,AFNE08.jpg,AFSA20.jpg,AFNE19.jpg,AFSA17.jpg,AFNE19.jpg,FN,3,num_2,32,num_4,0.866795133334,,,2017_May_15_1750,60.0102974822,MAFE4ImagesEEG,001,200442,
AFNE01.JPG,AFNE01.JPG,AFNE01.JPG,AFNE01.JPG,AFNE01.JPG,AFNE01.JPG,,,,,,,,,,,,,5,9,59,6,,,,,,,,,,,AFNE04.jpg,AFSA11.jpg,AFSA13.jpg,AFNE19.jpg,AFNE04.jpg,FN,3,num_8,16,num_8,0.666525007226,,,2017_May_15_1750,60.0102974822,MAFE4ImagesEEG,001,200442,
,,,,,,,,,,,,,,,,,,,,,,,,,,,,,,,,,,,,,,,,,,,space,2.2999927192,2017_May_15_1750,60.0102974822,MAFE4ImagesEEG,001,200442,
AFNE01.JPG,AFNE01.JPG,AFNE01.JPG,AFNE01.JPG,AFNE01.JPG,AFNE01.JPG,,,,,,,,,,,,,,,,,0,0,0,5,,,,,,,AMSA13.jpg,AMNE09.jpg,AMNE15.jpg,AMSA16.jpg,AMNE15.jpg,MN,1,num_2,16,num_2,3.76657507429,,,2017_May_15_1750,60.0102974822,MAFE4ImagesEEG,001,200442,
AFNE01.JPG,AFNE01.JPG,AFNE01.JPG,AFNE01.JPG,AFNE01.JPG,AFNE01.JPG,,,,,,,,,,,,,,,,,0,1,1,7,,,,,,,AMNE19.jpg,AMSA19.jpg,AMNE06.jpg,AMSA17.jpg,AMSA19.jpg,MS,2,num_6,16,num_6,1.00040060328,,,2017_May_15_1750,60.0102974822,MAFE4ImagesEEG,001,200442,
AFNE01.JPG,AFNE01.JPG,AFNE01.JPG,AFNE01.JPG,AFNE01.JPG,AFNE01.JPG,,,,,,,,,,,,,,,,,0,2,2,6,,,,,,,AMNE04.jpg,AMSA04.jpg,AMSA10.jpg,AMNE14.jpg,AMNE04.jpg,MN,1,num_8,32,num_4,0.816855737008,,,2017_May_15_1750,60.0102974822,MAFE4ImagesEEG,001,200442,
AFNE01.JPG,AFNE01.JPG,AFNE01.JPG,AFNE01.JPG,AFNE01.JPG,AFNE01.JPG,,,,,,,,,,,,,,,,,0,3,3,3,,,,,,,AMSA12.jpg,AMNE02.jpg,AMSA16.jpg,AMNE18.jpg,AMNE02.jpg,MN,1,num_6,16,num_6,0.466821305454,,,2017_May_15_1750,60.0102974822,MAFE4ImagesEEG,001,200442,
AFNE01.JPG,AFNE01.JPG,AFNE01.JPG,AFNE01.JPG,AFNE01.JPG,AFNE01.JPG,,,,,,,,,,,,,,,,,0,4,4,9,,,,,,,AMSA15.jpg,AMSA07.jpg,AMNE16.jpg,AMNE10.jpg,AMNE10.jpg,MN,1,num_4,16,num_4,0.833509472199,,,2017_May_15_1750,60.0102974822,MAFE4ImagesEEG,001,200442,
AFNE01.JPG,AFNE01.JPG,AFNE01.JPG,AFNE01.JPG,AFNE01.JPG,AFNE01.JPG,,,,,,,,,,,,,,,,,0,5,5,2,,,,,,,AMSA19.jpg,AMNE16.jpg,AMNE01.jpg,AMSA14.jpg,AMSA14.jpg,MS,2,num_4,32,num_2,1.03346559545,,,2017_May_15_1750,60.0102974822,MAFE4ImagesEEG,001,200442,
AFNE01.JPG,AFNE01.JPG,AFNE01.JPG,AFNE01.JPG,AFNE01.JPG,AFNE01.JPG,,,,,,,,,,,,,,,,,0,6,6,8,,,,,,,AMNE18.jpg,AMSA15.jpg,AMNE09.jpg,AMSA18.jpg,AMNE09.jpg,MN,1,num_2,32,num_4,0.61678863829,,,2017_May_15_1750,60.0102974822,MAFE4ImagesEEG,001,200442,
AFNE01.JPG,AFNE01.JPG,AFNE01.JPG,AFNE01.JPG,AFNE01.JPG,AFNE01.JPG,,,,,,,,,,,,,,,,,0,7,7,4,,,,,,,AMNE04.jpg,AMSA16.jpg,AMSA17.jpg,AMNE17.jpg,AMNE04.jpg,MN,1,num_8,32,num_4,2.55000659125,,,2017_May_15_1750,60.0102974822,MAFE4ImagesEEG,001,200442,
AFNE01.JPG,AFNE01.JPG,AFNE01.JPG,AFNE01.JPG,AFNE01.JPG,AFNE01.JPG,,,,,,,,,,,,,,,,,0,8,8,0,,,,,,,AMSA03.jpg,AMSA20.jpg,AMNE12.jpg,AMNE10.jpg,AMSA03.jpg,MS,2,num_8,32,num_6,0.850087834522,,,2017_May_15_1750,60.0102974822,MAFE4ImagesEEG,001,200442,
AFNE01.JPG,AFNE01.JPG,AFNE01.JPG,AFNE01.JPG,AFNE01.JPG,AFNE01.JPG,,,,,,,,,,,,,,,,,0,9,9,1,,,,,,,AMSA07.jpg,AMSA12.jpg,AMNE08.jpg,AMNE19.jpg,AMNE19.jpg,MN,1,num_4,32,num_8,1.45008129114,,,2017_May_15_1750,60.0102974822,MAFE4ImagesEEG,001,200442,
AFNE01.JPG,AFNE01.JPG,AFNE01.JPG,AFNE01.JPG,AFNE01.JPG,AFNE01.JPG,,,,,,,,,,,,,,,,,1,0,10,6,,,,,,,AMSA04.jpg,AMNE05.jpg,AMSA18.jpg,AMNE19.jpg,AMSA18.jpg,MS,2,num_2,32,num_8,0.783479948528,,,2017_May_15_1750,60.0102974822,MAFE4ImagesEEG,001,200442,
AFNE01.JPG,AFNE01.JPG,AFNE01.JPG,AFNE01.JPG,AFNE01.JPG,AFNE01.JPG,,,,,,,,,,,,,,,,,1,1,11,9,,,,,,,AMNE11.jpg,AMNE17.jpg,AMSA02.jpg,AMSA07.jpg,AMNE11.jpg,MN,1,num_8,32,num_6,0.750148101244,,,2017_May_15_1750,60.0102974822,MAFE4ImagesEEG,001,200442,
AFNE01.JPG,AFNE01.JPG,AFNE01.JPG,AFNE01.JPG,AFNE01.JPG,AFNE01.JPG,,,,,,,,,,,,,,,,,1,2,12,4,,,,,,,AMSA20.jpg,AMSA10.jpg,AMNE11.jpg,AMNE16.jpg,AMNE11.jpg,MN,1,num_2,32,num_8,1.2000975688,,,2017_May_15_1750,60.0102974822,MAFE4ImagesEEG,001,200442,
AFNE01.JPG,AFNE01.JPG,AFNE01.JPG,AFNE01.JPG,AFNE01.JPG,AFNE01.JPG,,,,,,,,,,,,,,,,,1,3,13,7,,,,,,,AMNE07.jpg,AMNE04.jpg,AMSA17.jpg,AMSA12.jpg,AMSA17.jpg,MS,2,num_2,32,num_8,0.983454353642,,,2017_May_15_1750,60.0102974822,MAFE4ImagesEEG,001,200442,
AFNE01.JPG,AFNE01.JPG,AFNE01.JPG,AFNE01.JPG,AFNE01.JPG,AFNE01.JPG,,,,,,,,,,,,,,,,,1,4,14,0,,,,,,,AMNE09.jpg,AMNE15.jpg,AMSA03.jpg,AMSA05.jpg,AMSA05.jpg,MS,2,num_4,32,num_2,0.883510771208,,,2017_May_15_1750,60.0102974822,MAFE4ImagesEEG,001,200442,
AFNE01.JPG,AFNE01.JPG,AFNE01.JPG,AFNE01.JPG,AFNE01.JPG,AFNE01.JPG,,,,,,,,,,,,,,,,,1,5,15,2,,,,,,,AMNE10.jpg,AMSA04.jpg,AMSA20.jpg,AMNE17.jpg,AMNE17.jpg,MN,1,num_4,32,num_8,0.8500997019,,,2017_May_15_1750,60.0102974822,MAFE4ImagesEEG,001,200442,
AFNE01.JPG,AFNE01.JPG,AFNE01.JPG,AFNE01.JPG,AFNE01.JPG,AFNE01.JPG,,,,,,,,,,,,,,,,,1,6,16,8,,,,,,,AMNE18.jpg,AMSA12.jpg,AMSA06.jpg,AMNE14.jpg,AMSA12.jpg,MS,2,num_6,16,num_6,0.733467744663,,,2017_May_15_1750,60.0102974822,MAFE4ImagesEEG,001,200442,
AFNE01.JPG,AFNE01.JPG,AFNE01.JPG,AFNE01.JPG,AFNE01.JPG,AFNE01.JPG,,,,,,,,,,,,,,,,,1,7,17,3,,,,,,,AMSA20.jpg,AMNE09.jpg,AMNE01.jpg,AMSA13.jpg,AMSA13.jpg,MS,2,num_4,16,num_4,0.783462949097,,,2017_May_15_1750,60.0102974822,MAFE4ImagesEEG,001,200442,
AFNE01.JPG,AFNE01.JPG,AFNE01.JPG,AFNE01.JPG,AFNE01.JPG,AFNE01.JPG,,,,,,,,,,,,,,,,,1,8,18,1,,,,,,,AMNE11.jpg,AMNE10.jpg,AMSA07.jpg,AMSA17.jpg,AMSA07.jpg,MS,2,num_2,32,num_4,0.78350111749,,,2017_May_15_1750,60.0102974822,MAFE4ImagesEEG,001,200442,
AFNE01.JPG,AFNE01.JPG,AFNE01.JPG,AFNE01.JPG,AFNE01.JPG,AFNE01.JPG,,,,,,,,,,,,,,,,,1,9,19,5,,,,,,,AMSA15.jpg,AMNE15.jpg,AMSA09.jpg,AMNE04.jpg,AMNE15.jpg,MN,1,num_6,32,num_8,0.983447618317,,,2017_May_15_1750,60.0102974822,MAFE4ImagesEEG,001,200442,
AFNE01.JPG,AFNE01.JPG,AFNE01.JPG,AFNE01.JPG,AFNE01.JPG,AFNE01.JPG,,,,,,,,,,,,,,,,,2,0,20,1,,,,,,,AMNE13.jpg,AMNE18.jpg,AMSA12.jpg,AMSA18.jpg,AMNE18.jpg,MN,1,num_6,16,num_6,0.783241318539,,,2017_May_15_1750,60.0102974822,MAFE4ImagesEEG,001,200442,
AFNE01.JPG,AFNE01.JPG,AFNE01.JPG,AFNE01.JPG,AFNE01.JPG,AFNE01.JPG,,,,,,,,,,,,,,,,,2,1,21,8,,,,,,,AMNE10.jpg,AMSA17.jpg,AMNE02.jpg,AMSA15.jpg,AMSA15.jpg,MS,2,num_4,32,num_6,1.53324476676,,,2017_May_15_1750,60.0102974822,MAFE4ImagesEEG,001,200442,
AFNE01.JPG,AFNE01.JPG,AFNE01.JPG,AFNE01.JPG,AFNE01.JPG,AFNE01.JPG,,,,,,,,,,,,,,,,,2,2,22,3,,,,,,,AMNE01.jpg,AMSA17.jpg,AMNE16.jpg,AMSA18.jpg,AMSA18.jpg,MS,2,num_4,16,num_4,0.750223154202,,,2017_May_15_1750,60.0102974822,MAFE4ImagesEEG,001,200442,
AFNE01.JPG,AFNE01.JPG,AFNE01.JPG,AFNE01.JPG,AFNE01.JPG,AFNE01.JPG,,,,,,,,,,,,,,,,,2,3,23,2,,,,,,,AMSA01.jpg,AMNE12.jpg,AMSA18.jpg,AMNE17.jpg,AMSA01.jpg,MS,2,num_8,16,num_8,0.533491414506,,,2017_May_15_1750,60.0102974822,MAFE4ImagesEEG,001,200442,
AFNE01.JPG,AFNE01.JPG,AFNE01.JPG,AFNE01.JPG,AFNE01.JPG,AFNE01.JPG,,,,,,,,,,,,,,,,,2,4,24,7,,,,,,,AMNE06.jpg,AMSA19.jpg,AMSA03.jpg,AMNE08.jpg,AMSA03.jpg,MS,2,num_2,32,num_4,1.43342755549,,,2017_May_15_1750,60.0102974822,MAFE4ImagesEEG,001,200442,
AFNE01.JPG,AFNE01.JPG,AFNE01.JPG,AFNE01.JPG,AFNE01.JPG,AFNE01.JPG,,,,,,,,,,,,,,,,,2,5,25,4,,,,,,,AMNE10.jpg,AMSA01.jpg,AMNE12.jpg,AMSA12.jpg,AMSA12.jpg,MS,2,num_4,16,num_4,0.800147475675,,,2017_May_15_1750,60.0102974822,MAFE4ImagesEEG,001,200442,
AFNE01.JPG,AFNE01.JPG,AFNE01.JPG,AFNE01.JPG,AFNE01.JPG,AFNE01.JPG,,,,,,,,,,,,,,,,,2,6,26,9,,,,,,,AMNE13.jpg,AMSA05.jpg,AMNE11.jpg,AMSA10.jpg,AMNE11.jpg,MN,1,num_2,32,num_4,0.867140248418,,,2017_May_15_1750,60.0102974822,MAFE4ImagesEEG,001,200442,
AFNE01.JPG,AFNE01.JPG,AFNE01.JPG,AFNE01.JPG,AFNE01.JPG,AFNE01.JPG,,,,,,,,,,,,,,,,,2,7,27,5,,,,,,,AMSA02.jpg,AMNE01.jpg,AMSA12.jpg,AMNE17.jpg,AMNE01.jpg,MN,1,num_6,16,num_6,1.65010765614,,,2017_May_15_1750,60.0102974822,MAFE4ImagesEEG,001,200442,
AFNE01.JPG,AFNE01.JPG,AFNE01.JPG,AFNE01.JPG,AFNE01.JPG,AFNE01.JPG,,,,,,,,,,,,,,,,,2,8,28,6,,,,,,,AMSA02.jpg,AMSA17.jpg,AMNE12.jpg,AMNE04.jpg,AMSA17.jpg,MS,2,num_6,32,num_4,0.616817183793,,,2017_May_15_1750,60.0102974822,MAFE4ImagesEEG,001,200442,
AFNE01.JPG,AFNE01.JPG,AFNE01.JPG,AFNE01.JPG,AFNE01.JPG,AFNE01.JPG,,,,,,,,,,,,,,,,,2,9,29,0,,,,,,,AMNE12.jpg,AMSA10.jpg,AMNE11.jpg,AMSA12.jpg,AMNE12.jpg,MN,1,num_8,16,num_8,0.800160305575,,,2017_May_15_1750,60.0102974822,MAFE4ImagesEEG,001,200442,
AFNE01.JPG,AFNE01.JPG,AFNE01.JPG,AFNE01.JPG,AFNE01.JPG,AFNE01.JPG,,,,,,,,,,,,,,,,,3,0,30,0,,,,,,,AMNE12.jpg,AMNE15.jpg,AMSA16.jpg,AMSA04.jpg,AMNE12.jpg,MN,1,num_8,32,num_4,0.516838641372,,,2017_May_15_1750,60.0102974822,MAFE4ImagesEEG,001,200442,
AFNE01.JPG,AFNE01.JPG,AFNE01.JPG,AFNE01.JPG,AFNE01.JPG,AFNE01.JPG,,,,,,,,,,,,,,,,,3,1,31,1,,,,,,,AMNE02.jpg,AMSA01.jpg,AMNE20.jpg,AMSA10.jpg,AMNE20.jpg,MN,1,num_2,32,num_6,0.716770709027,,,2017_May_15_1750,60.0102974822,MAFE4ImagesEEG,001,200442,
AFNE01.JPG,AFNE01.JPG,AFNE01.JPG,AFNE01.JPG,AFNE01.JPG,AFNE01.JPG,,,,,,,,,,,,,,,,,3,2,32,4,,,,,,,AMNE13.jpg,AMNE03.jpg,AMSA20.jpg,AMSA03.jpg,AMSA20.jpg,MS,2,num_2,32,num_8,0.733466461301,,,2017_May_15_1750,60.0102974822,MAFE4ImagesEEG,001,200442,
AFNE01.JPG,AFNE01.JPG,AFNE01.JPG,AFNE01.JPG,AFNE01.JPG,AFNE01.JPG,,,,,,,,,,,,,,,,,3,3,33,2,,,,,,,AMNE14.jpg,AMSA01.jpg,AMSA06.jpg,AMNE18.jpg,AMSA06.jpg,MS,2,num_2,32,num_4,0.816804098431,,,2017_May_15_1750,60.0102974822,MAFE4ImagesEEG,001,200442,
AFNE01.JPG,AFNE01.JPG,AFNE01.JPG,AFNE01.JPG,AFNE01.JPG,AFNE01.JPG,,,,,,,,,,,,,,,,,3,4,34,3,,,,,,,AMNE03.jpg,AMSA02.jpg,AMNE06.jpg,AMSA08.jpg,AMNE06.jpg,MN,1,num_2,32,num_8,0.700483257882,,,2017_May_15_1750,60.0102974822,MAFE4ImagesEEG,001,200442,
AFNE01.JPG,AFNE01.JPG,AFNE01.JPG,AFNE01.JPG,AFNE01.JPG,AFNE01.JPG,,,,,,,,,,,,,,,,,3,5,35,9,,,,,,,AMNE03.jpg,AMSA10.jpg,AMNE15.jpg,AMSA08.jpg,AMSA08.jpg,MS,2,num_4,32,num_6,2.41678408394,,,2017_May_15_1750,60.0102974822,MAFE4ImagesEEG,001,200442,
AFNE01.JPG,AFNE01.JPG,AFNE01.JPG,AFNE01.JPG,AFNE01.JPG,AFNE01.JPG,,,,,,,,,,,,,,,,,3,6,36,7,,,,,,,AMNE06.jpg,AMSA16.jpg,AMSA11.jpg,AMNE12.jpg,AMNE12.jpg,MN,1,num_4,32,num_8,0.583501373883,,,2017_May_15_1750,60.0102974822,MAFE4ImagesEEG,001,200442,
AFNE01.JPG,AFNE01.JPG,AFNE01.JPG,AFNE01.JPG,AFNE01.JPG,AFNE01.JPG,,,,,,,,,,,,,,,,,3,7,37,8,,,,,,,AMNE03.jpg,AMNE11.jpg,AMSA12.jpg,AMSA14.jpg,AMSA14.jpg,MS,2,num_4,32,num_8,1.73339782329,,,2017_May_15_1750,60.0102974822,MAFE4ImagesEEG,001,200442,
AFNE01.JPG,AFNE01.JPG,AFNE01.JPG,AFNE01.JPG,AFNE01.JPG,AFNE01.JPG,,,,,,,,,,,,,,,,,3,8,38,5,,,,,,,AMSA16.jpg,AMSA17.jpg,AMNE16.jpg,AMNE19.jpg,AMNE16.jpg,MN,1,num_2,32,num_4,0.566778037697,,,2017_May_15_1750,60.0102974822,MAFE4ImagesEEG,001,200442,
AFNE01.JPG,AFNE01.JPG,AFNE01.JPG,AFNE01.JPG,AFNE01.JPG,AFNE01.JPG,,,,,,,,,,,,,,,,,3,9,39,6,,,,,,,AMSA13.jpg,AMSA20.jpg,AMNE20.jpg,AMNE15.jpg,AMNE20.jpg,MN,1,num_2,32,num_6,0.616763300262,,,2017_May_15_1750,60.0102974822,MAFE4ImagesEEG,001,200442,
AFNE01.JPG,AFNE01.JPG,AFNE01.JPG,AFNE01.JPG,AFNE01.JPG,AFNE01.JPG,,,,,,,,,,,,,,,,,4,0,40,2,,,,,,,AMNE10.jpg,AMNE13.jpg,AMSA17.jpg,AMSA06.jpg,AMSA06.jpg,MS,2,num_4,16,num_4,0.583527674433,,,2017_May_15_1750,60.0102974822,MAFE4ImagesEEG,001,200442,
AFNE01.JPG,AFNE01.JPG,AFNE01.JPG,AFNE01.JPG,AFNE01.JPG,AFNE01.JPG,,,,,,,,,,,,,,,,,4,1,41,4,,,,,,,AMNE06.jpg,AMNE17.jpg,AMSA08.jpg,AMSA12.jpg,AMSA08.jpg,MS,2,num_2,32,num_6,1.51668340387,,,2017_May_15_1750,60.0102974822,MAFE4ImagesEEG,001,200442,
AFNE01.JPG,AFNE01.JPG,AFNE01.JPG,AFNE01.JPG,AFNE01.JPG,AFNE01.JPG,,,,,,,,,,,,,,,,,4,2,42,0,,,,,,,AMSA01.jpg,AMNE18.jpg,AMSA14.jpg,AMNE01.jpg,AMNE01.jpg,MN,1,num_4,16,num_4,0.716755634639,,,2017_May_15_1750,60.0102974822,MAFE4ImagesEEG,001,200442,
AFNE01.JPG,AFNE01.JPG,AFNE01.JPG,AFNE01.JPG,AFNE01.JPG,AFNE01.JPG,,,,,,,,,,,,,,,,,4,3,43,8,,,,,,,AMSA18.jpg,AMNE13.jpg,AMSA10.jpg,AMNE16.jpg,AMNE13.jpg,MN,1,num_6,32,num_8,0.73350238381,,,2017_May_15_1750,60.0102974822,MAFE4ImagesEEG,001,200442,
AFNE01.JPG,AFNE01.JPG,AFNE01.JPG,AFNE01.JPG,AFNE01.JPG,AFNE01.JPG,,,,,,,,,,,,,,,,,4,4,44,5,,,,,,,AMSA19.jpg,AMSA02.jpg,AMNE16.jpg,AMNE08.jpg,AMNE16.jpg,MN,1,num_2,32,num_4,0.916782319546,,,2017_May_15_1750,60.0102974822,MAFE4ImagesEEG,001,200442,
AFNE01.JPG,AFNE01.JPG,AFNE01.JPG,AFNE01.JPG,AFNE01.JPG,AFNE01.JPG,,,,,,,,,,,,,,,,,4,5,45,3,,,,,,,AMSA07.jpg,AMSA18.jpg,AMNE03.jpg,AMNE16.jpg,AMSA18.jpg,MS,2,num_6,16,num_6,0.683510065544,,,2017_May_15_1750,60.0102974822,MAFE4ImagesEEG,001,200442,
AFNE01.JPG,AFNE01.JPG,AFNE01.JPG,AFNE01.JPG,AFNE01.JPG,AFNE01.JPG,,,,,,,,,,,,,,,,,4,6,46,1,,,,,,,AMNE01.jpg,AMSA20.jpg,AMNE06.jpg,AMSA10.jpg,AMNE06.jpg,MN,1,num_2,32,num_8,0.933433489408,,,2017_May_15_1750,60.0102974822,MAFE4ImagesEEG,001,200442,
AFNE01.JPG,AFNE01.JPG,AFNE01.JPG,AFNE01.JPG,AFNE01.JPG,AFNE01.JPG,,,,,,,,,,,,,,,,,4,7,47,9,,,,,,,AMNE02.jpg,AMNE03.jpg,AMSA07.jpg,AMSA17.jpg,AMSA07.jpg,MS,2,num_2,16,num_2,1.39965244709,,,2017_May_15_1750,60.0102974822,MAFE4ImagesEEG,001,200442,
AFNE01.JPG,AFNE01.JPG,AFNE01.JPG,AFNE01.JPG,AFNE01.JPG,AFNE01.JPG,,,,,,,,,,,,,,,,,4,8,48,6,,,,,,,AMSA15.jpg,AMNE06.jpg,AMNE02.jpg,AMSA12.jpg,AMSA12.jpg,MS,2,num_4,32,num_6,1.88341262564,,,2017_May_15_1750,60.0102974822,MAFE4ImagesEEG,001,200442,
AFNE01.JPG,AFNE01.JPG,AFNE01.JPG,AFNE01.JPG,AFNE01.JPG,AFNE01.JPG,,,,,,,,,,,,,,,,,4,9,49,7,,,,,,,AMSA06.jpg,AMNE20.jpg,AMSA04.jpg,AMNE04.jpg,AMSA06.jpg,MS,2,num_8,32,num_4,1.11673683906,,,2017_May_15_1750,60.0102974822,MAFE4ImagesEEG,001,200442,
AFNE01.JPG,AFNE01.JPG,AFNE01.JPG,AFNE01.JPG,AFNE01.JPG,AFNE01.JPG,,,,,,,,,,,,,,,,,5,0,50,6,,,,,,,AMSA11.jpg,AMSA20.jpg,AMNE10.jpg,AMNE18.jpg,AMNE10.jpg,MN,1,num_2,32,num_4,3.28329953272,,,2017_May_15_1750,60.0102974822,MAFE4ImagesEEG,001,200442,
AFNE01.JPG,AFNE01.JPG,AFNE01.JPG,AFNE01.JPG,AFNE01.JPG,AFNE01.JPG,,,,,,,,,,,,,,,,,5,1,51,4,,,,,,,AMNE10.jpg,AMSA01.jpg,AMNE19.jpg,AMSA15.jpg,AMNE10.jpg,MN,1,num_8,16,num_8,0.96675058268,,,2017_May_15_1750,60.0102974822,MAFE4ImagesEEG,001,200442,
AFNE01.JPG,AFNE01.JPG,AFNE01.JPG,AFNE01.JPG,AFNE01.JPG,AFNE01.JPG,,,,,,,,,,,,,,,,,5,2,52,7,,,,,,,AMNE18.jpg,AMSA07.jpg,AMNE15.jpg,AMSA13.jpg,AMNE15.jpg,MN,1,num_2,16,num_2,0.85019592382,,,2017_May_15_1750,60.0102974822,MAFE4ImagesEEG,001,200442,
AFNE01.JPG,AFNE01.JPG,AFNE01.JPG,AFNE01.JPG,AFNE01.JPG,AFNE01.JPG,,,,,,,,,,,,,,,,,5,3,53,9,,,,,,,AMSA10.jpg,AMSA16.jpg,AMNE08.jpg,AMNE01.jpg,AMSA10.jpg,MS,2,num_8,32,num_6,0.983473598026,,,2017_May_15_1750,60.0102974822,MAFE4ImagesEEG,001,200442,
AFNE01.JPG,AFNE01.JPG,AFNE01.JPG,AFNE01.JPG,AFNE01.JPG,AFNE01.JPG,,,,,,,,,,,,,,,,,5,4,54,3,,,,,,,AMSA12.jpg,AMSA20.jpg,AMNE02.jpg,AMNE07.jpg,AMSA12.jpg,MS,2,num_8,16,num_8,0.916787131224,,,2017_May_15_1750,60.0102974822,MAFE4ImagesEEG,001,200442,
AFNE01.JPG,AFNE01.JPG,AFNE01.JPG,AFNE01.JPG,AFNE01.JPG,AFNE01.JPG,,,,,,,,,,,,,,,,,5,5,55,1,,,,,,,AMSA17.jpg,AMNE18.jpg,AMSA15.jpg,AMNE06.jpg,AMNE18.jpg,MN,1,num_6,32,num_4,1.0166300009,,,2017_May_15_1750,60.0102974822,MAFE4ImagesEEG,001,200442,
AFNE01.JPG,AFNE01.JPG,AFNE01.JPG,AFNE01.JPG,AFNE01.JPG,AFNE01.JPG,,,,,,,,,,,,,,,,,5,6,56,2,,,,,,,AMNE15.jpg,AMSA06.jpg,AMSA04.jpg,AMNE04.jpg,AMSA04.jpg,MS,2,num_2,16,num_2,1.00013599358,,,2017_May_15_1750,60.0102974822,MAFE4ImagesEEG,001,200442,
AFNE01.JPG,AFNE01.JPG,AFNE01.JPG,AFNE01.JPG,AFNE01.JPG,AFNE01.JPG,,,,,,,,,,,,,,,,,5,7,57,8,,,,,,,AMSA16.jpg,AMNE02.jpg,AMNE10.jpg,AMSA14.jpg,AMNE10.jpg,MN,1,num_2,32,num_8,0.91675505694,,,2017_May_15_1750,60.0102974822,MAFE4ImagesEEG,001,200442,
AFNE01.JPG,AFNE01.JPG,AFNE01.JPG,AFNE01.JPG,AFNE01.JPG,AFNE01.JPG,,,,,,,,,,,,,,,,,5,8,58,5,,,,,,,AMNE09.jpg,AMSA11.jpg,AMNE02.jpg,AMSA03.jpg,AMNE09.jpg,MN,1,num_8,32,num_6,0.916780395433,,,2017_May_15_1750,60.0102974822,MAFE4ImagesEEG,001,200442,
AFNE01.JPG,AFNE01.JPG,AFNE01.JPG,AFNE01.JPG,AFNE01.JPG,AFNE01.JPG,,,,,,,,,,,,,,,,,5,9,59,0,,,,,,,AMNE04.jpg,AMNE14.jpg,AMSA20.jpg,AMSA03.jpg,AMSA03.jpg,MS,2,num_4,16,num_4,0.866634442937,,,2017_May_15_1750,60.0102974822,MAFE4ImagesEEG,001,200442,
,,,,,,,,,,,,,,,,,,,,,,,,,,,,,,,,,,,,,,,,,,,space,1.85008462705,2017_May_15_1750,60.0102974822,MAFE4ImagesEEG,001,200442,
AFNE01.JPG,AFNE01.JPG,AFNE01.JPG,AFNE01.JPG,AFNE01.JPG,AFNE01.JPG,,,,,,,,,,,,,,,,,,,,,0,0,0,5,,,AFNE03.jpg,AFNE13.jpg,AFSA10.jpg,AFSA09.jpg,AFSA10.jpg,FS,4,num_2,32,num_4,0.966786826495,,,2017_May_15_1750,60.0102974822,MAFE4ImagesEEG,001,200442,
AFNE01.JPG,AFNE01.JPG,AFNE01.JPG,AFNE01.JPG,AFNE01.JPG,AFNE01.JPG,,,,,,,,,,,,,,,,,,,,,0,1,1,6,,,AFSA17.jpg,AFNE20.jpg,AFSA13.jpg,AFNE02.jpg,AFNE02.jpg,FN,3,num_4,32,num_8,0.750166062731,,,2017_May_15_1750,60.0102974822,MAFE4ImagesEEG,001,200442,
AFNE01.JPG,AFNE01.JPG,AFNE01.JPG,AFNE01.JPG,AFNE01.JPG,AFNE01.JPG,,,,,,,,,,,,,,,,,,,,,0,2,2,3,,,AFNE01.jpg,AFNE17.jpg,AFSA09.jpg,AFSA02.jpg,AFSA09.jpg,FS,4,num_2,16,num_2,0.800107383635,,,2017_May_15_1750,60.0102974822,MAFE4ImagesEEG,001,200442,
AFNE01.JPG,AFNE01.JPG,AFNE01.JPG,AFNE01.JPG,AFNE01.JPG,AFNE01.JPG,,,,,,,,,,,,,,,,,,,,,0,3,3,8,,,AFNE20.jpg,AFSA06.jpg,AFSA01.jpg,AFNE07.jpg,AFSA06.jpg,FS,4,num_6,32,num_4,0.683464841451,,,2017_May_15_1750,60.0102974822,MAFE4ImagesEEG,001,200442,
AFNE01.JPG,AFNE01.JPG,AFNE01.JPG,AFNE01.JPG,AFNE01.JPG,AFNE01.JPG,,,,,,,,,,,,,,,,,,,,,0,4,4,1,,,AFNE02.jpg,AFSA09.jpg,AFSA08.jpg,AFNE05.jpg,AFSA09.jpg,FS,4,num_6,16,num_6,0.60017563682,,,2017_May_15_1750,60.0102974822,MAFE4ImagesEEG,001,200442,
AFNE01.JPG,AFNE01.JPG,AFNE01.JPG,AFNE01.JPG,AFNE01.JPG,AFNE01.JPG,,,,,,,,,,,,,,,,,,,,,0,5,5,4,,,AFSA05.jpg,AFSA01.jpg,AFNE09.jpg,AFNE06.jpg,AFSA05.jpg,FS,4,num_8,16,num_8,0.783487004694,,,2017_May_15_1750,60.0102974822,MAFE4ImagesEEG,001,200442,
AFNE01.JPG,AFNE01.JPG,AFNE01.JPG,AFNE01.JPG,AFNE01.JPG,AFNE01.JPG,,,,,,,,,,,,,,,,,,,,,0,6,6,7,,,AFNE16.jpg,AFSA15.jpg,AFSA02.jpg,AFNE12.jpg,AFNE16.jpg,FN,3,num_8,32,num_6,0.766776177566,,,2017_May_15_1750,60.0102974822,MAFE4ImagesEEG,001,200442,
AFNE01.JPG,AFNE01.JPG,AFNE01.JPG,AFNE01.JPG,AFNE01.JPG,AFNE01.JPG,,,,,,,,,,,,,,,,,,,,,0,7,7,2,,,AFSA02.jpg,AFNE05.jpg,AFNE01.jpg,AFSA13.jpg,AFNE01.jpg,FN,3,num_2,32,num_4,0.517066366505,,,2017_May_15_1750,60.0102974822,MAFE4ImagesEEG,001,200442,
AFNE01.JPG,AFNE01.JPG,AFNE01.JPG,AFNE01.JPG,AFNE01.JPG,AFNE01.JPG,,,,,,,,,,,,,,,,,,,,,0,8,8,9,,,AFNE11.jpg,AFNE12.jpg,AFSA20.jpg,AFSA15.jpg,AFSA20.jpg,FS,4,num_2,32,num_6,0.733477366623,,,2017_May_15_1750,60.0102974822,MAFE4ImagesEEG,001,200442,
AFNE01.JPG,AFNE01.JPG,AFNE01.JPG,AFNE01.JPG,AFNE01.JPG,AFNE01.JPG,,,,,,,,,,,,,,,,,,,,,0,9,9,0,,,AFSA13.jpg,AFNE09.jpg,AFSA18.jpg,AFNE16.jpg,AFSA13.jpg,FS,4,num_8,16,num_8,0.466879679821,,,2017_May_15_1750,60.0102974822,MAFE4ImagesEEG,001,200442,
AFNE01.JPG,AFNE01.JPG,AFNE01.JPG,AFNE01.JPG,AFNE01.JPG,AFNE01.JPG,,,,,,,,,,,,,,,,,,,,,1,0,10,2,,,AFNE19.jpg,AFNE17.jpg,AFSA11.jpg,AFSA15.jpg,AFNE17.jpg,FN,3,num_6,32,num_4,0.766773932613,,,2017_May_15_1750,60.0102974822,MAFE4ImagesEEG,001,200442,
AFNE01.JPG,AFNE01.JPG,AFNE01.JPG,AFNE01.JPG,AFNE01.JPG,AFNE01.JPG,,,,,,,,,,,,,,,,,,,,,1,1,11,5,,,AFNE11.jpg,AFNE01.jpg,AFSA06.jpg,AFSA04.jpg,AFSA04.jpg,FS,4,num_4,32,num_6,2.26667241845,,,2017_May_15_1750,60.0102974822,MAFE4ImagesEEG,001,200442,
AFNE01.JPG,AFNE01.JPG,AFNE01.JPG,AFNE01.JPG,AFNE01.JPG,AFNE01.JPG,,,,,,,,,,,,,,,,,,,,,1,2,12,6,,,AFNE03.jpg,AFNE08.jpg,AFSA04.jpg,AFSA05.jpg,AFSA04.jpg,FS,4,num_2,32,num_6,0.833468418103,,,2017_May_15_1750,60.0102974822,MAFE4ImagesEEG,001,200442,
AFNE01.JPG,AFNE01.JPG,AFNE01.JPG,AFNE01.JPG,AFNE01.JPG,AFNE01.JPG,,,,,,,,,,,,,,,,,,,,,1,3,13,4,,,AFSA07.jpg,AFNE11.jpg,AFSA19.jpg,AFNE01.jpg,AFSA07.jpg,FS,4,num_8,32,num_6,0.816769137513,,,2017_May_15_1750,60.0102974822,MAFE4ImagesEEG,001,200442,
AFNE01.JPG,AFNE01.JPG,AFNE01.JPG,AFNE01.JPG,AFNE01.JPG,AFNE01.JPG,,,,,,,,,,,,,,,,,,,,,1,4,14,8,,,AFSA02.jpg,AFNE18.jpg,AFNE16.jpg,AFSA19.jpg,AFNE16.jpg,FN,3,num_2,32,num_8,0.816784532741,,,2017_May_15_1750,60.0102974822,MAFE4ImagesEEG,001,200442,
AFNE01.JPG,AFNE01.JPG,AFNE01.JPG,AFNE01.JPG,AFNE01.JPG,AFNE01.JPG,,,,,,,,,,,,,,,,,,,,,1,5,15,9,,,AFSA14.jpg,AFNE18.jpg,AFNE11.jpg,AFSA06.jpg,AFSA14.jpg,FS,4,num_8,16,num_8,0.816465397831,,,2017_May_15_1750,60.0102974822,MAFE4ImagesEEG,001,200442,
AFNE01.JPG,AFNE01.JPG,AFNE01.JPG,AFNE01.JPG,AFNE01.JPG,AFNE01.JPG,,,,,,,,,,,,,,,,,,,,,1,6,16,1,,,AFNE09.jpg,AFSA05.jpg,AFSA08.jpg,AFNE17.jpg,AFNE17.jpg,FN,3,num_4,16,num_4,1.11691164179,,,2017_May_15_1750,60.0102974822,MAFE4ImagesEEG,001,200442,
AFNE01.JPG,AFNE01.JPG,AFNE01.JPG,AFNE01.JPG,AFNE01.JPG,AFNE01.JPG,,,,,,,,,,,,,,,,,,,,,1,7,17,7,,,AFSA07.jpg,AFNE20.jpg,AFSA10.jpg,AFNE16.jpg,AFNE20.jpg,FN,3,num_6,32,num_8,1.60005760472,,,2017_May_15_1750,60.0102974822,MAFE4ImagesEEG,001,200442,
AFNE01.JPG,AFNE01.JPG,AFNE01.JPG,AFNE01.JPG,AFNE01.JPG,AFNE01.JPG,,,,,,,,,,,,,,,,,,,,,1,8,18,0,,,AFSA03.jpg,AFNE15.jpg,AFNE13.jpg,AFSA19.jpg,AFNE15.jpg,FN,3,num_6,16,num_6,0.716783538926,,,2017_May_15_1750,60.0102974822,MAFE4ImagesEEG,001,200442,
AFNE01.JPG,AFNE01.JPG,AFNE01.JPG,AFNE01.JPG,AFNE01.JPG,AFNE01.JPG,,,,,,,,,,,,,,,,,,,,,1,9,19,3,,,AFNE13.jpg,AFNE19.jpg,AFSA15.jpg,AFSA17.jpg,AFNE13.jpg,FN,3,num_8,16,num_8,1.5500854929,,,2017_May_15_1750,60.0102974822,MAFE4ImagesEEG,001,200442,
AFNE01.JPG,AFNE01.JPG,AFNE01.JPG,AFNE01.JPG,AFNE01.JPG,AFNE01.JPG,,,,,,,,,,,,,,,,,,,,,2,0,20,9,,,AFNE05.jpg,AFSA09.jpg,AFSA18.jpg,AFNE04.jpg,AFNE05.jpg,FN,3,num_8,16,num_8,0.716786425095,,,2017_May_15_1750,60.0102974822,MAFE4ImagesEEG,001,200442,
AFNE01.JPG,AFNE01.JPG,AFNE01.JPG,AFNE01.JPG,AFNE01.JPG,AFNE01.JPG,,,,,,,,,,,,,,,,,,,,,2,1,21,7,,,AFNE13.jpg,AFSA08.jpg,AFNE19.jpg,AFSA06.jpg,AFNE19.jpg,FN,3,num_2,32,num_8,0.71679957537,,,2017_May_15_1750,60.0102974822,MAFE4ImagesEEG,001,200442,
AFNE01.JPG,AFNE01.JPG,AFNE01.JPG,AFNE01.JPG,AFNE01.JPG,AFNE01.JPG,,,,,,,,,,,,,,,,,,,,,2,2,22,4,,,AFNE08.jpg,AFNE01.jpg,AFSA02.jpg,AFSA10.jpg,AFSA02.jpg,FS,4,num_2,32,num_8,1.00015299255,,,2017_May_15_1750,60.0102974822,MAFE4ImagesEEG,001,200442,
AFNE01.JPG,AFNE01.JPG,AFNE01.JPG,AFNE01.JPG,AFNE01.JPG,AFNE01.JPG,,,,,,,,,,,,,,,,,,,,,2,3,23,5,,,AFSA09.jpg,AFNE08.jpg,AFNE07.jpg,AFSA13.jpg,AFNE07.jpg,FN,3,num_2,32,num_4,0.733438236173,,,2017_May_15_1750,60.0102974822,MAFE4ImagesEEG,001,200442,
AFNE01.JPG,AFNE01.JPG,AFNE01.JPG,AFNE01.JPG,AFNE01.JPG,AFNE01.JPG,,,,,,,,,,,,,,,,,,,,,2,4,24,6,,,AFSA09.jpg,AFNE02.jpg,AFSA03.jpg,AFNE12.jpg,AFNE12.jpg,FN,3,num_4,32,num_8,0.600137789268,,,2017_May_15_1750,60.0102974822,MAFE4ImagesEEG,001,200442,
AFNE01.JPG,AFNE01.JPG,AFNE01.JPG,AFNE01.JPG,AFNE01.JPG,AFNE01.JPG,,,,,,,,,,,,,,,,,,,,,2,5,25,1,,,AFNE03.jpg,AFNE01.jpg,AFSA18.jpg,AFSA13.jpg,AFNE01.jpg,FN,3,num_6,32,num_8,0.550122057553,,,2017_May_15_1750,60.0102974822,MAFE4ImagesEEG,001,200442,
AFNE01.JPG,AFNE01.JPG,AFNE01.JPG,AFNE01.JPG,AFNE01.JPG,AFNE01.JPG,,,,,,,,,,,,,,,,,,,,,2,6,26,3,,,AFSA04.jpg,AFSA10.jpg,AFNE20.jpg,AFNE12.jpg,AFSA10.jpg,FS,4,num_6,32,num_2,1.15008953447,,,2017_May_15_1750,60.0102974822,MAFE4ImagesEEG,001,200442,
AFNE01.JPG,AFNE01.JPG,AFNE01.JPG,AFNE01.JPG,AFNE01.JPG,AFNE01.JPG,,,,,,,,,,,,,,,,,,,,,2,7,27,2,,,AFSA10.jpg,AFNE11.jpg,AFNE14.jpg,AFSA04.jpg,AFNE11.jpg,FN,3,num_6,16,num_6,1.20013669878,,,2017_May_15_1750,60.0102974822,MAFE4ImagesEEG,001,200442,
AFNE01.JPG,AFNE01.JPG,AFNE01.JPG,AFNE01.JPG,AFNE01.JPG,AFNE01.JPG,,,,,,,,,,,,,,,,,,,,,2,8,28,0,,,AFNE10.jpg,AFNE19.jpg,AFSA10.jpg,AFSA02.jpg,AFSA02.jpg,FS,4,num_4,16,num_4,0.716794764623,,,2017_May_15_1750,60.0102974822,MAFE4ImagesEEG,001,200442,
AFNE01.JPG,AFNE01.JPG,AFNE01.JPG,AFNE01.JPG,AFNE01.JPG,AFNE01.JPG,,,,,,,,,,,,,,,,,,,,,2,9,29,8,,,AFNE19.jpg,AFSA20.jpg,AFNE14.jpg,AFSA13.jpg,AFSA20.jpg,FS,4,num_6,32,num_8,0.733459084295,,,2017_May_15_1750,60.0102974822,MAFE4ImagesEEG,001,200442,
AFNE01.JPG,AFNE01.JPG,AFNE01.JPG,AFNE01.JPG,AFNE01.JPG,AFNE01.JPG,,,,,,,,,,,,,,,,,,,,,3,0,30,6,,,AFNE20.jpg,AFSA02.jpg,AFSA03.jpg,AFNE19.jpg,AFSA03.jpg,FS,4,num_2,32,num_8,0.783465515357,,,2017_May_15_1750,60.0102974822,MAFE4ImagesEEG,001,200442,
AFNE01.JPG,AFNE01.JPG,AFNE01.JPG,AFNE01.JPG,AFNE01.JPG,AFNE01.JPG,,,,,,,,,,,,,,,,,,,,,3,1,31,7,,,AFNE16.jpg,AFSA15.jpg,AFSA06.jpg,AFNE03.jpg,AFNE16.jpg,FN,3,num_8,32,num_6,1.90005545551,,,2017_May_15_1750,60.0102974822,MAFE4ImagesEEG,001,200442,
AFNE01.JPG,AFNE01.JPG,AFNE01.JPG,AFNE01.JPG,AFNE01.JPG,AFNE01.JPG,,,,,,,,,,,,,,,,,,,,,3,2,32,5,,,AFNE16.jpg,AFNE07.jpg,AFSA01.jpg,AFSA09.jpg,AFNE16.jpg,FN,3,num_8,32,num_4,1.16672947817,,,2017_May_15_1750,60.0102974822,MAFE4ImagesEEG,001,200442,
AFNE01.JPG,AFNE01.JPG,AFNE01.JPG,AFNE01.JPG,AFNE01.JPG,AFNE01.JPG,,,,,,,,,,,,,,,,,,,,,3,3,33,0,,,AFNE11.jpg,AFSA08.jpg,AFNE17.jpg,AFSA02.jpg,AFNE17.jpg,FN,3,num_2,32,num_8,1.20011681318,,,2017_May_15_1750,60.0102974822,MAFE4ImagesEEG,001,200442,
AFNE01.JPG,AFNE01.JPG,AFNE01.JPG,AFNE01.JPG,AFNE01.JPG,AFNE01.JPG,,,,,,,,,,,,,,,,,,,,,3,4,34,3,,,AFNE05.jpg,AFSA15.jpg,AFSA17.jpg,AFNE14.jpg,AFSA17.jpg,FS,4,num_2,32,num_6,0.683448163327,,,2017_May_15_1750,60.0102974822,MAFE4ImagesEEG,001,200442,
AFNE01.JPG,AFNE01.JPG,AFNE01.JPG,AFNE01.JPG,AFNE01.JPG,AFNE01.JPG,,,,,,,,,,,,,,,,,,,,,3,5,35,4,,,AFNE20.jpg,AFSA03.jpg,AFNE19.jpg,AFSA19.jpg,AFSA19.jpg,FS,4,num_4,16,num_4,1.18357790262,,,2017_May_15_1750,60.0102974822,MAFE4ImagesEEG,001,200442,
AFNE01.JPG,AFNE01.JPG,AFNE01.JPG,AFNE01.JPG,AFNE01.JPG,AFNE01.JPG,,,,,,,,,,,,,,,,,,,,,3,6,36,2,,,AFNE09.jpg,AFNE11.jpg,AFSA01.jpg,AFSA12.jpg,AFSA12.jpg,FS,4,num_4,32,num_8,0.683478633408,,,2017_May_15_1750,60.0102974822,MAFE4ImagesEEG,001,200442,
AFNE01.JPG,AFNE01.JPG,AFNE01.JPG,AFNE01.JPG,AFNE01.JPG,AFNE01.JPG,,,,,,,,,,,,,,,,,,,,,3,7,37,9,,,AFNE17.jpg,AFSA09.jpg,AFSA16.jpg,AFNE19.jpg,AFSA09.jpg,FS,4,num_6,16,num_6,0.716807273682,,,2017_May_15_1750,60.0102974822,MAFE4ImagesEEG,001,200442,
AFNE01.JPG,AFNE01.JPG,AFNE01.JPG,AFNE01.JPG,AFNE01.JPG,AFNE01.JPG,,,,,,,,,,,,,,,,,,,,,3,8,38,8,,,AFSA18.jpg,AFNE06.jpg,AFNE14.jpg,AFSA14.jpg,AFSA18.jpg,FS,4,num_8,16,num_8,0.633553349879,,,2017_May_15_1750,60.0102974822,MAFE4ImagesEEG,001,200442,
