IPosition2,IPosition3,IPosition1,IPosition6,IPosition4,IPosition5,TrialsF1.thisRepN,TrialsF1.thisTrialN,TrialsF1.thisN,TrialsF1.thisIndex,TrialsM1.thisRepN,TrialsM1.thisTrialN,TrialsM1.thisN,TrialsM1.thisIndex,TrialsF2.thisRepN,TrialsF2.thisTrialN,TrialsF2.thisN,TrialsF2.thisIndex,TrialsM2.thisRepN,TrialsM2.thisTrialN,TrialsM2.thisN,TrialsM2.thisIndex,TrialsF3.thisRepN,TrialsF3.thisTrialN,TrialsF3.thisN,TrialsF3.thisIndex,TrialsM3.thisRepN,TrialsM3.thisTrialN,TrialsM3.thisN,TrialsM3.thisIndex,InstrKey_resp.keys,InstrKey_resp.rt,Image0 _Position,Image1 _Position,Image2 _Position,Image3 _Position,Center_image,condition,code,correct_answer,accuracy,Key_Resp.keys,Key_Resp.rt,BreakKey_resp.keys,BreakKey_resp.rt,date,frameRate,expName,session,participant,
,,,,,,,,,,,,,,,,,,,,,,,,,,,,,,space,11.4661002842,,,,,,,,,,,,,,2017_Jun_12_1532,59.9971327229,FEMA4ImagesEEG,001,200446,
AMNE23.JPG,AMNE24.JPG,AMNE22.JPG,AMSA24.JPG,AMSA22.JPG,AMSA23.JPG,0,0,0,9,,,,,,,,,,,,,,,,,,,,,,,AFNE17.jpg,AFNE08.jpg,AFSA02.jpg,AFSA20.jpg,AFNE08.jpg,FN,3,num_6,32,num_8,0.933433810191,,,2017_Jun_12_1532,59.9971327229,FEMA4ImagesEEG,001,200446,
AMSA25.JPG,AMNE24.JPG,AMSA24.JPG,AMNE26.JPG,AMSA21.JPG,AMNE25.JPG,0,1,1,3,,,,,,,,,,,,,,,,,,,,,,,AFNE05.jpg,AFNE11.jpg,AFSA06.jpg,AFSA13.jpg,AFNE11.jpg,FN,3,num_6,16,num_6,0.90015360195,,,2017_Jun_12_1532,59.9971327229,FEMA4ImagesEEG,001,200446,
AFSA25.JPG,AFNE24.JPG,AFSA24.JPG,AFNE21.JPG,AFSA21.JPG,AFNE25.JPG,0,2,2,2,,,,,,,,,,,,,,,,,,,,,,,AFNE08.jpg,AFSA04.jpg,AFNE13.jpg,AFSA10.jpg,AFNE08.jpg,FN,3,num_8,16,num_8,0.833419024129,,,2017_Jun_12_1532,59.9971327229,FEMA4ImagesEEG,001,200446,
AMSA21.JPG,AMNE22.JPG,AMNE21.JPG,AMSA23.JPG,AMSA22.JPG,AMNE23.JPG,0,3,3,1,,,,,,,,,,,,,,,,,,,,,,,AFSA09.jpg,AFSA03.jpg,AFNE20.jpg,AFNE09.jpg,AFNE20.jpg,FN,3,num_2,16,num_2,0.883480942808,,,2017_Jun_12_1532,59.9971327229,FEMA4ImagesEEG,001,200446,
AFNE22.JPG,AFSA24.JPG,AFSA22.JPG,AFNE25.JPG,AFNE24.JPG,AFSA25.JPG,0,4,4,6,,,,,,,,,,,,,,,,,,,,,,,AFSA08.jpg,AFNE15.jpg,AFNE14.jpg,AFSA15.jpg,AFNE14.jpg,FN,3,num_2,16,num_2,0.66675016575,,,2017_Jun_12_1532,59.9971327229,FEMA4ImagesEEG,001,200446,
AMNE22.JPG,AMSA24.JPG,AMSA22.JPG,AMNE25.JPG,AMNE24.JPG,AMSA25.JPG,0,5,5,7,,,,,,,,,,,,,,,,,,,,,,,AFSA01.jpg,AFNE05.jpg,AFSA05.jpg,AFNE15.jpg,AFSA01.jpg,FS,4,num_8,16,num_8,1.0167361655,,,2017_Jun_12_1532,59.9971327229,FEMA4ImagesEEG,001,200446,
AFNE23.JPG,AFNE24.JPG,AFNE22.JPG,AFSA24.JPG,AFSA22.JPG,AFSA23.JPG,0,6,6,8,,,,,,,,,,,,,,,,,,,,,,,AFNE01.jpg,AFSA09.jpg,AFSA01.jpg,AFNE15.jpg,AFSA09.jpg,FS,4,num_6,16,num_6,1.11672368873,,,2017_Jun_12_1532,59.9971327229,FEMA4ImagesEEG,001,200446,
AFSA21.JPG,AFNE23.JPG,AFNE21.JPG,AFSA25.JPG,AFNE25.JPG,AFSA23.JPG,0,7,7,4,,,,,,,,,,,,,,,,,,,,,,,AFSA12.jpg,AFNE17.jpg,AFSA11.jpg,AFNE05.jpg,AFSA12.jpg,FS,4,num_8,16,num_8,0.550129754993,,,2017_Jun_12_1532,59.9971327229,FEMA4ImagesEEG,001,200446,
AMSA21.JPG,AMNE23.JPG,AMNE21.JPG,AMSA25.JPG,AMNE25.JPG,AMSA23.JPG,0,8,8,5,,,,,,,,,,,,,,,,,,,,,,,AFSA19.jpg,AFNE10.jpg,AFNE16.jpg,AFSA06.jpg,AFNE10.jpg,FN,3,num_6,16,num_6,0.617017325363,,,2017_Jun_12_1532,59.9971327229,FEMA4ImagesEEG,001,200446,
AFSA21.JPG,AFNE22.JPG,AFNE21.JPG,AFSA23.JPG,AFSA22.JPG,AFNE23.JPG,0,9,9,0,,,,,,,,,,,,,,,,,,,,,,,AFSA09.jpg,AFSA11.jpg,AFNE13.jpg,AFNE05.jpg,AFNE13.jpg,FN,3,num_2,32,num_4,0.88343924674,,,2017_Jun_12_1532,59.9971327229,FEMA4ImagesEEG,001,200446,
AFSA21.JPG,AFNE22.JPG,AFNE21.JPG,AFSA23.JPG,AFSA22.JPG,AFNE23.JPG,,,,,0,0,0,0,,,,,,,,,,,,,,,,,,,AMSA05.jpg,AMNE19.jpg,AMNE06.jpg,AMSA01.jpg,AMNE06.jpg,MN,1,num_2,16,num_2,0.95012507221,,,2017_Jun_12_1532,59.9971327229,FEMA4ImagesEEG,001,200446,
AFSA25.JPG,AFNE24.JPG,AFSA24.JPG,AFNE21.JPG,AFSA21.JPG,AFNE25.JPG,,,,,0,1,1,2,,,,,,,,,,,,,,,,,,,AMNE06.jpg,AMNE04.jpg,AMSA18.jpg,AMSA03.jpg,AMNE04.jpg,MN,1,num_6,16,num_6,0.766754046665,,,2017_Jun_12_1532,59.9971327229,FEMA4ImagesEEG,001,200446,
AMNE23.JPG,AMNE24.JPG,AMNE22.JPG,AMSA24.JPG,AMSA22.JPG,AMSA23.JPG,,,,,0,2,2,9,,,,,,,,,,,,,,,,,,,AMNE03.jpg,AMSA11.jpg,AMSA06.jpg,AMNE09.jpg,AMNE09.jpg,MN,1,num_4,16,num_4,0.56675847288,,,2017_Jun_12_1532,59.9971327229,FEMA4ImagesEEG,001,200446,
AFNE22.JPG,AFSA24.JPG,AFSA22.JPG,AFNE25.JPG,AFNE24.JPG,AFSA25.JPG,,,,,0,3,3,6,,,,,,,,,,,,,,,,,,,AMNE20.jpg,AMSA16.jpg,AMNE16.jpg,AMSA12.jpg,AMNE20.jpg,MN,1,num_8,16,num_8,0.816767533775,,,2017_Jun_12_1532,59.9971327229,FEMA4ImagesEEG,001,200446,
AMNE22.JPG,AMSA24.JPG,AMSA22.JPG,AMNE25.JPG,AMNE24.JPG,AMSA25.JPG,,,,,0,4,4,7,,,,,,,,,,,,,,,,,,,AMNE16.jpg,AMNE09.jpg,AMSA16.jpg,AMSA06.jpg,AMNE16.jpg,MN,1,num_8,32,num_6,0.600188466313,,,2017_Jun_12_1532,59.9971327229,FEMA4ImagesEEG,001,200446,
AMSA21.JPG,AMNE23.JPG,AMNE21.JPG,AMSA25.JPG,AMNE25.JPG,AMSA23.JPG,,,,,0,5,5,5,,,,,,,,,,,,,,,,,,,AMNE10.jpg,AMSA14.jpg,AMNE15.jpg,AMSA06.jpg,AMSA06.jpg,MS,2,num_4,16,num_4,1.20009532367,,,2017_Jun_12_1532,59.9971327229,FEMA4ImagesEEG,001,200446,
AMSA21.JPG,AMNE22.JPG,AMNE21.JPG,AMSA23.JPG,AMSA22.JPG,AMNE23.JPG,,,,,0,6,6,1,,,,,,,,,,,,,,,,,,,AMSA06.jpg,AMNE16.jpg,AMSA02.jpg,AMNE01.jpg,AMSA06.jpg,MS,2,num_8,16,num_8,0.633657910628,,,2017_Jun_12_1532,59.9971327229,FEMA4ImagesEEG,001,200446,
AMSA25.JPG,AMNE24.JPG,AMSA24.JPG,AMNE26.JPG,AMSA21.JPG,AMNE25.JPG,,,,,0,7,7,3,,,,,,,,,,,,,,,,,,,AMNE01.jpg,AMNE14.jpg,AMSA15.jpg,AMSA08.jpg,AMNE14.jpg,MN,1,num_6,16,num_6,0.950100375339,,,2017_Jun_12_1532,59.9971327229,FEMA4ImagesEEG,001,200446,
AFSA21.JPG,AFNE23.JPG,AFNE21.JPG,AFSA25.JPG,AFNE25.JPG,AFSA23.JPG,,,,,0,8,8,4,,,,,,,,,,,,,,,,,,,AMNE20.jpg,AMSA03.jpg,AMNE04.jpg,AMSA10.jpg,AMSA10.jpg,MS,2,num_4,16,num_4,1.18327384157,,,2017_Jun_12_1532,59.9971327229,FEMA4ImagesEEG,001,200446,
AFNE23.JPG,AFNE24.JPG,AFNE22.JPG,AFSA24.JPG,AFSA22.JPG,AFSA23.JPG,,,,,0,9,9,8,,,,,,,,,,,,,,,,,,,AMSA17.jpg,AMNE13.jpg,AMSA18.jpg,AMNE08.jpg,AMSA17.jpg,MS,2,num_8,16,num_8,1.23313465685,,,2017_Jun_12_1532,59.9971327229,FEMA4ImagesEEG,001,200446,
AMSA21.JPG,AMNE22.JPG,AMNE21.JPG,AMSA23.JPG,AMSA22.JPG,AMNE23.JPG,,,,,,,,,0,0,0,1,,,,,,,,,,,,,,,AFNE13.jpg,AFNE20.jpg,AFSA16.jpg,AFSA04.jpg,AFSA04.jpg,FS,4,num_4,32,num_8,1.7000140163,,,2017_Jun_12_1532,59.9971327229,FEMA4ImagesEEG,001,200446,
AMSA21.JPG,AMNE23.JPG,AMNE21.JPG,AMSA25.JPG,AMNE25.JPG,AMSA23.JPG,,,,,,,,,0,1,1,5,,,,,,,,,,,,,,,AFSA03.jpg,AFSA17.jpg,AFNE10.jpg,AFNE06.jpg,AFSA03.jpg,FS,4,num_8,16,num_8,1.28343328094,,,2017_Jun_12_1532,59.9971327229,FEMA4ImagesEEG,001,200446,
AMNE23.JPG,AMNE24.JPG,AMNE22.JPG,AMSA24.JPG,AMSA22.JPG,AMSA23.JPG,,,,,,,,,0,2,2,9,,,,,,,,,,,,,,,AFNE08.jpg,AFSA03.jpg,AFSA07.jpg,AFNE18.jpg,AFSA03.jpg,FS,4,num_6,16,num_6,0.616852786159,,,2017_Jun_12_1532,59.9971327229,FEMA4ImagesEEG,001,200446,
AFNE22.JPG,AFSA24.JPG,AFSA22.JPG,AFNE25.JPG,AFNE24.JPG,AFSA25.JPG,,,,,,,,,0,3,3,6,,,,,,,,,,,,,,,AFSA08.jpg,AFSA06.jpg,AFNE08.jpg,AFNE02.jpg,AFSA06.jpg,FS,4,num_6,32,num_8,0.766773611773,,,2017_Jun_12_1532,59.9971327229,FEMA4ImagesEEG,001,200446,
AMSA25.JPG,AMNE24.JPG,AMSA24.JPG,AMNE26.JPG,AMSA21.JPG,AMNE25.JPG,,,,,,,,,0,4,4,3,,,,,,,,,,,,,,,AFNE06.jpg,AFSA04.jpg,AFSA11.jpg,AFNE05.jpg,AFNE05.jpg,FN,3,num_4,32,num_8,1.06689879624,,,2017_Jun_12_1532,59.9971327229,FEMA4ImagesEEG,001,200446,
AFSA25.JPG,AFNE24.JPG,AFSA24.JPG,AFNE21.JPG,AFSA21.JPG,AFNE25.JPG,,,,,,,,,0,5,5,2,,,,,,,,,,,,,,,AFNE07.jpg,AFSA11.jpg,AFSA08.jpg,AFNE04.jpg,AFSA08.jpg,FS,4,num_2,16,num_2,0.816789344011,,,2017_Jun_12_1532,59.9971327229,FEMA4ImagesEEG,001,200446,
AFSA21.JPG,AFNE23.JPG,AFNE21.JPG,AFSA25.JPG,AFNE25.JPG,AFSA23.JPG,,,,,,,,,0,6,6,4,,,,,,,,,,,,,,,AFSA05.jpg,AFNE18.jpg,AFNE13.jpg,AFSA17.jpg,AFNE13.jpg,FN,3,num_2,16,num_2,0.966764053737,,,2017_Jun_12_1532,59.9971327229,FEMA4ImagesEEG,001,200446,
AFNE23.JPG,AFNE24.JPG,AFNE22.JPG,AFSA24.JPG,AFSA22.JPG,AFSA23.JPG,,,,,,,,,0,7,7,8,,,,,,,,,,,,,,,AFSA01.jpg,AFNE15.jpg,AFNE14.jpg,AFSA03.jpg,AFNE14.jpg,FN,3,num_2,32,num_6,0.883438925957,,,2017_Jun_12_1532,59.9971327229,FEMA4ImagesEEG,001,200446,
AFSA21.JPG,AFNE22.JPG,AFNE21.JPG,AFSA23.JPG,AFSA22.JPG,AFNE23.JPG,,,,,,,,,0,8,8,0,,,,,,,,,,,,,,,AFNE10.jpg,AFSA12.jpg,AFSA20.jpg,AFNE08.jpg,AFSA20.jpg,FS,4,num_2,16,num_2,0.983412336733,,,2017_Jun_12_1532,59.9971327229,FEMA4ImagesEEG,001,200446,
AMNE22.JPG,AMSA24.JPG,AMSA22.JPG,AMNE25.JPG,AMNE24.JPG,AMSA25.JPG,,,,,,,,,0,9,9,7,,,,,,,,,,,,,,,AFSA10.jpg,AFSA19.jpg,AFNE09.jpg,AFNE15.jpg,AFSA19.jpg,FS,4,num_6,16,num_6,0.866701477556,,,2017_Jun_12_1532,59.9971327229,FEMA4ImagesEEG,001,200446,
AFSA25.JPG,AFNE24.JPG,AFSA24.JPG,AFNE21.JPG,AFSA21.JPG,AFNE25.JPG,,,,,,,,,,,,,0,0,0,2,,,,,,,,,,,AMSA19.jpg,AMSA15.jpg,AMNE12.jpg,AMNE04.jpg,AMSA15.jpg,MS,2,num_6,16,num_6,0.533225201478,,,2017_Jun_12_1532,59.9971327229,FEMA4ImagesEEG,001,200446,
AMNE23.JPG,AMNE24.JPG,AMNE22.JPG,AMSA24.JPG,AMSA22.JPG,AMSA23.JPG,,,,,,,,,,,,,0,1,1,9,,,,,,,,,,,AMNE08.jpg,AMNE10.jpg,AMSA05.jpg,AMSA09.jpg,AMSA05.jpg,MS,2,num_2,16,num_2,0.900092340773,,,2017_Jun_12_1532,59.9971327229,FEMA4ImagesEEG,001,200446,
AFSA21.JPG,AFNE22.JPG,AFNE21.JPG,AFSA23.JPG,AFSA22.JPG,AFNE23.JPG,,,,,,,,,,,,,0,2,2,0,,,,,,,,,,,AMSA07.jpg,AMSA06.jpg,AMNE18.jpg,AMNE01.jpg,AMSA06.jpg,MS,2,num_6,16,num_6,0.633438204357,,,2017_Jun_12_1532,59.9971327229,FEMA4ImagesEEG,001,200446,
AMSA25.JPG,AMNE24.JPG,AMSA24.JPG,AMNE26.JPG,AMSA21.JPG,AMNE25.JPG,,,,,,,,,,,,,0,3,3,3,,,,,,,,,,,AMSA16.jpg,AMSA19.jpg,AMNE18.jpg,AMNE17.jpg,AMNE17.jpg,MN,1,num_4,32,num_8,1.05020625127,,,2017_Jun_12_1532,59.9971327229,FEMA4ImagesEEG,001,200446,
AMNE22.JPG,AMSA24.JPG,AMSA22.JPG,AMNE25.JPG,AMNE24.JPG,AMSA25.JPG,,,,,,,,,,,,,0,4,4,7,,,,,,,,,,,AMNE17.jpg,AMSA05.jpg,AMSA07.jpg,AMNE19.jpg,AMSA05.jpg,MS,2,num_6,16,num_6,0.700150971883,,,2017_Jun_12_1532,59.9971327229,FEMA4ImagesEEG,001,200446,
AMSA21.JPG,AMNE22.JPG,AMNE21.JPG,AMSA23.JPG,AMSA22.JPG,AMNE23.JPG,,,,,,,,,,,,,0,5,5,1,,,,,,,,,,,AMNE19.jpg,AMNE15.jpg,AMSA16.jpg,AMSA15.jpg,AMNE19.jpg,MN,1,num_8,16,num_8,1.15007157292,,,2017_Jun_12_1532,59.9971327229,FEMA4ImagesEEG,001,200446,
AFNE23.JPG,AFNE24.JPG,AFNE22.JPG,AFSA24.JPG,AFSA22.JPG,AFSA23.JPG,,,,,,,,,,,,,0,6,6,8,,,,,,,,,,,AMNE16.jpg,AMSA03.jpg,AMNE04.jpg,AMSA18.jpg,AMNE16.jpg,MN,1,num_8,16,num_8,0.800180832681,,,2017_Jun_12_1532,59.9971327229,FEMA4ImagesEEG,001,200446,
AFNE22.JPG,AFSA24.JPG,AFSA22.JPG,AFNE25.JPG,AFNE24.JPG,AFSA25.JPG,,,,,,,,,,,,,0,7,7,6,,,,,,,,,,,AMNE18.jpg,AMSA12.jpg,AMSA13.jpg,AMNE03.jpg,AMSA12.jpg,MS,2,num_6,16,num_6,0.883445661515,,,2017_Jun_12_1532,59.9971327229,FEMA4ImagesEEG,001,200446,
AFSA21.JPG,AFNE23.JPG,AFNE21.JPG,AFSA25.JPG,AFNE25.JPG,AFSA23.JPG,,,,,,,,,,,,,0,8,8,4,,,,,,,,,,,AMSA04.jpg,AMNE05.jpg,AMNE17.jpg,AMSA02.jpg,AMSA04.jpg,MS,2,num_8,32,num_4,0.80016543722,,,2017_Jun_12_1532,59.9971327229,FEMA4ImagesEEG,001,200446,
AMSA21.JPG,AMNE23.JPG,AMNE21.JPG,AMSA25.JPG,AMNE25.JPG,AMSA23.JPG,,,,,,,,,,,,,0,9,9,5,,,,,,,,,,,AMNE17.jpg,AMNE05.jpg,AMSA10.jpg,AMSA19.jpg,AMNE17.jpg,MN,1,num_8,32,num_2,1.48356516892,,,2017_Jun_12_1532,59.9971327229,FEMA4ImagesEEG,001,200446,
AFNE23.JPG,AFNE24.JPG,AFNE22.JPG,AFSA24.JPG,AFSA22.JPG,AFSA23.JPG,,,,,,,,,,,,,,,,,0,0,0,8,,,,,,,AFSA20.jpg,AFSA06.jpg,AFNE02.jpg,AFNE15.jpg,AFNE15.jpg,FN,3,num_4,16,num_4,0.516655820364,,,2017_Jun_12_1532,59.9971327229,FEMA4ImagesEEG,001,200446,
AFSA21.JPG,AFNE23.JPG,AFNE21.JPG,AFSA25.JPG,AFNE25.JPG,AFSA23.JPG,,,,,,,,,,,,,,,,,0,1,1,4,,,,,,,AFSA13.jpg,AFNE15.jpg,AFSA03.jpg,AFNE04.jpg,AFNE04.jpg,FN,3,num_4,16,num_4,0.650143578881,,,2017_Jun_12_1532,59.9971327229,FEMA4ImagesEEG,001,200446,
AMSA25.JPG,AMNE24.JPG,AMSA24.JPG,AMNE26.JPG,AMSA21.JPG,AMNE25.JPG,,,,,,,,,,,,,,,,,0,2,2,3,,,,,,,AFSA16.jpg,AFNE03.jpg,AFNE13.jpg,AFSA06.jpg,AFSA16.jpg,FS,4,num_8,32,num_4,3.1332382235,,,2017_Jun_12_1532,59.9971327229,FEMA4ImagesEEG,001,200446,
AMNE22.JPG,AMSA24.JPG,AMSA22.JPG,AMNE25.JPG,AMNE24.JPG,AMSA25.JPG,,,,,,,,,,,,,,,,,0,3,3,7,,,,,,,AFNE01.jpg,AFNE17.jpg,AFSA16.jpg,AFSA01.jpg,AFNE17.jpg,FN,3,num_6,32,num_8,0.983360377024,,,2017_Jun_12_1532,59.9971327229,FEMA4ImagesEEG,001,200446,
AMNE23.JPG,AMNE24.JPG,AMNE22.JPG,AMSA24.JPG,AMSA22.JPG,AMSA23.JPG,,,,,,,,,,,,,,,,,0,4,4,9,,,,,,,AFSA17.jpg,AFSA08.jpg,AFNE08.jpg,AFNE02.jpg,AFNE08.jpg,FN,3,num_2,16,num_2,0.900162582635,,,2017_Jun_12_1532,59.9971327229,FEMA4ImagesEEG,001,200446,
AMSA21.JPG,AMNE23.JPG,AMNE21.JPG,AMSA25.JPG,AMNE25.JPG,AMSA23.JPG,,,,,,,,,,,,,,,,,0,5,5,5,,,,,,,AFSA19.jpg,AFNE07.jpg,AFSA18.jpg,AFNE14.jpg,AFNE07.jpg,FN,3,num_6,16,num_6,0.533429833071,,,2017_Jun_12_1532,59.9971327229,FEMA4ImagesEEG,001,200446,
AFNE22.JPG,AFSA24.JPG,AFSA22.JPG,AFNE25.JPG,AFNE24.JPG,AFSA25.JPG,,,,,,,,,,,,,,,,,0,6,6,6,,,,,,,AFNE01.jpg,AFSA07.jpg,AFNE06.jpg,AFSA20.jpg,AFNE01.jpg,FN,3,num_8,32,num_6,0.700119539455,,,2017_Jun_12_1532,59.9971327229,FEMA4ImagesEEG,001,200446,
AFSA21.JPG,AFNE22.JPG,AFNE21.JPG,AFSA23.JPG,AFSA22.JPG,AFNE23.JPG,,,,,,,,,,,,,,,,,0,7,7,0,,,,,,,AFSA20.jpg,AFNE20.jpg,AFNE07.jpg,AFSA13.jpg,AFSA20.jpg,FS,4,num_8,16,num_8,0.883445661457,,,2017_Jun_12_1532,59.9971327229,FEMA4ImagesEEG,001,200446,
AFSA25.JPG,AFNE24.JPG,AFSA24.JPG,AFNE21.JPG,AFSA21.JPG,AFNE25.JPG,,,,,,,,,,,,,,,,,0,8,8,2,,,,,,,AFSA11.jpg,AFSA19.jpg,AFNE12.jpg,AFNE01.jpg,AFNE12.jpg,FN,3,num_2,16,num_2,0.800134004792,,,2017_Jun_12_1532,59.9971327229,FEMA4ImagesEEG,001,200446,
AMSA21.JPG,AMNE22.JPG,AMNE21.JPG,AMSA23.JPG,AMSA22.JPG,AMNE23.JPG,,,,,,,,,,,,,,,,,0,9,9,1,,,,,,,AFNE02.jpg,AFNE11.jpg,AFSA01.jpg,AFSA03.jpg,AFNE02.jpg,FN,3,num_8,16,num_8,1.10009015974,,,2017_Jun_12_1532,59.9971327229,FEMA4ImagesEEG,001,200446,
AFNE22.JPG,AFSA24.JPG,AFSA22.JPG,AFNE25.JPG,AFNE24.JPG,AFSA25.JPG,,,,,,,,,,,,,,,,,,,,,0,0,0,6,,,AMNE13.jpg,AMNE18.jpg,AMSA10.jpg,AMSA03.jpg,AMNE18.jpg,MN,1,num_6,32,num_8,2.08334084396,,,2017_Jun_12_1532,59.9971327229,FEMA4ImagesEEG,001,200446,
AMNE22.JPG,AMSA24.JPG,AMSA22.JPG,AMNE25.JPG,AMNE24.JPG,AMSA25.JPG,,,,,,,,,,,,,,,,,,,,,0,1,1,7,,,AMNE16.jpg,AMSA16.jpg,AMNE07.jpg,AMSA12.jpg,AMNE16.jpg,MN,1,num_8,32,num_2,1.20006389124,,,2017_Jun_12_1532,59.9971327229,FEMA4ImagesEEG,001,200446,
AFNE23.JPG,AFNE24.JPG,AFNE22.JPG,AFSA24.JPG,AFSA22.JPG,AFSA23.JPG,,,,,,,,,,,,,,,,,,,,,0,2,2,8,,,AMNE09.jpg,AMNE19.jpg,AMSA16.jpg,AMSA01.jpg,AMSA16.jpg,MS,2,num_2,32,num_6,0.649848178145,,,2017_Jun_12_1532,59.9971327229,FEMA4ImagesEEG,001,200446,
AMSA21.JPG,AMNE22.JPG,AMNE21.JPG,AMSA23.JPG,AMSA22.JPG,AMNE23.JPG,,,,,,,,,,,,,,,,,,,,,0,3,3,1,,,AMSA20.jpg,AMNE01.jpg,AMSA11.jpg,AMNE03.jpg,AMSA11.jpg,MS,2,num_2,32,num_8,0.783484759566,,,2017_Jun_12_1532,59.9971327229,FEMA4ImagesEEG,001,200446,
AFSA21.JPG,AFNE22.JPG,AFNE21.JPG,AFSA23.JPG,AFSA22.JPG,AFNE23.JPG,,,,,,,,,,,,,,,,,,,,,0,4,4,0,,,AMSA12.jpg,AMNE09.jpg,AMNE04.jpg,AMSA14.jpg,AMNE04.jpg,MN,1,num_2,32,num_4,0.766775536176,,,2017_Jun_12_1532,59.9971327229,FEMA4ImagesEEG,001,200446,
AMSA25.JPG,AMNE24.JPG,AMSA24.JPG,AMNE26.JPG,AMSA21.JPG,AMNE25.JPG,,,,,,,,,,,,,,,,,,,,,0,5,5,3,,,AMSA11.jpg,AMNE18.jpg,AMNE17.jpg,AMSA02.jpg,AMSA11.jpg,MS,2,num_8,32,num_4,1.26706853136,,,2017_Jun_12_1532,59.9971327229,FEMA4ImagesEEG,001,200446,
AMSA21.JPG,AMNE23.JPG,AMNE21.JPG,AMSA25.JPG,AMNE25.JPG,AMSA23.JPG,,,,,,,,,,,,,,,,,,,,,0,6,6,5,,,AMNE06.jpg,AMSA05.jpg,AMNE12.jpg,AMSA07.jpg,AMNE06.jpg,MN,1,num_8,16,num_8,1.03344635107,,,2017_Jun_12_1532,59.9971327229,FEMA4ImagesEEG,001,200446,
AFSA21.JPG,AFNE23.JPG,AFNE21.JPG,AFSA25.JPG,AFNE25.JPG,AFSA23.JPG,,,,,,,,,,,,,,,,,,,,,0,7,7,4,,,AMNE02.jpg,AMSA13.jpg,AMSA15.jpg,AMNE14.jpg,AMSA13.jpg,MS,2,num_6,32,num_8,1.1667031775,,,2017_Jun_12_1532,59.9971327229,FEMA4ImagesEEG,001,200446,
AFSA25.JPG,AFNE24.JPG,AFSA24.JPG,AFNE21.JPG,AFSA21.JPG,AFNE25.JPG,,,,,,,,,,,,,,,,,,,,,0,8,8,2,,,AMNE20.jpg,AMNE16.jpg,AMSA18.jpg,AMSA11.jpg,AMNE16.jpg,MN,1,num_6,16,num_6,0.616784468759,,,2017_Jun_12_1532,59.9971327229,FEMA4ImagesEEG,001,200446,
AMNE23.JPG,AMNE24.JPG,AMNE22.JPG,AMSA24.JPG,AMSA22.JPG,AMSA23.JPG,,,,,,,,,,,,,,,,,,,,,0,9,9,9,,,AMNE04.jpg,AMSA12.jpg,AMNE12.jpg,AMSA03.jpg,AMSA03.jpg,MS,2,num_4,16,num_4,1.18334247975,,,2017_Jun_12_1532,59.9971327229,FEMA4ImagesEEG,001,200446,
,,,,,,,,,,,,,,,,,,,,,,,,,,,,,,,,,,,,,,,,,,,space,8.59957617539,2017_Jun_12_1532,59.9971327229,FEMA4ImagesEEG,001,200446,
AFNE01.JPG,AFNE01.JPG,AFNE01.JPG,AFNE01.JPG,AFNE01.JPG,AFNE01.JPG,0,0,0,5,,,,,,,,,,,,,,,,,,,,,,,AFSA14.jpg,AFSA19.jpg,AFNE12.jpg,AFNE18.jpg,AFSA14.jpg,FS,4,num_8,32,num_4,0.933463959722,,,2017_Jun_12_1532,59.9971327229,FEMA4ImagesEEG,001,200446,
AFNE01.JPG,AFNE01.JPG,AFNE01.JPG,AFNE01.JPG,AFNE01.JPG,AFNE01.JPG,0,1,1,0,,,,,,,,,,,,,,,,,,,,,,,AFNE14.jpg,AFSA11.jpg,AFNE18.jpg,AFSA10.jpg,AFSA10.jpg,FS,4,num_4,16,num_4,0.633456165728,,,2017_Jun_12_1532,59.9971327229,FEMA4ImagesEEG,001,200446,
AFNE01.JPG,AFNE01.JPG,AFNE01.JPG,AFNE01.JPG,AFNE01.JPG,AFNE01.JPG,0,2,2,6,,,,,,,,,,,,,,,,,,,,,,,AFNE12.jpg,AFNE06.jpg,AFSA16.jpg,AFSA19.jpg,AFSA16.jpg,FS,4,num_2,16,num_2,1.01674033509,,,2017_Jun_12_1532,59.9971327229,FEMA4ImagesEEG,001,200446,
AFNE01.JPG,AFNE01.JPG,AFNE01.JPG,AFNE01.JPG,AFNE01.JPG,AFNE01.JPG,0,3,3,8,,,,,,,,,,,,,,,,,,,,,,,AFNE15.jpg,AFNE01.jpg,AFSA05.jpg,AFSA09.jpg,AFSA09.jpg,FS,4,num_4,16,num_4,0.883491206449,,,2017_Jun_12_1532,59.9971327229,FEMA4ImagesEEG,001,200446,
AFNE01.JPG,AFNE01.JPG,AFNE01.JPG,AFNE01.JPG,AFNE01.JPG,AFNE01.JPG,0,4,4,7,,,,,,,,,,,,,,,,,,,,,,,AFSA04.jpg,AFNE11.jpg,AFNE17.jpg,AFSA16.jpg,AFNE17.jpg,FN,3,num_2,16,num_2,1.26676254626,,,2017_Jun_12_1532,59.9971327229,FEMA4ImagesEEG,001,200446,
AFNE01.JPG,AFNE01.JPG,AFNE01.JPG,AFNE01.JPG,AFNE01.JPG,AFNE01.JPG,0,5,5,4,,,,,,,,,,,,,,,,,,,,,,,AFSA04.jpg,AFNE18.jpg,AFNE09.jpg,AFSA17.jpg,AFNE09.jpg,FN,3,num_2,16,num_2,0.850126964564,,,2017_Jun_12_1532,59.9971327229,FEMA4ImagesEEG,001,200446,
AFNE01.JPG,AFNE01.JPG,AFNE01.JPG,AFNE01.JPG,AFNE01.JPG,AFNE01.JPG,0,6,6,3,,,,,,,,,,,,,,,,,,,,,,,AFNE12.jpg,AFNE01.jpg,AFSA17.jpg,AFSA19.jpg,AFNE01.jpg,FN,3,num_6,16,num_6,0.766830382578,,,2017_Jun_12_1532,59.9971327229,FEMA4ImagesEEG,001,200446,
AFNE01.JPG,AFNE01.JPG,AFNE01.JPG,AFNE01.JPG,AFNE01.JPG,AFNE01.JPG,0,7,7,1,,,,,,,,,,,,,,,,,,,,,,,AFNE03.jpg,AFSA10.jpg,AFSA09.jpg,AFNE01.jpg,AFNE03.jpg,FN,3,num_8,32,num_4,0.81692854478,,,2017_Jun_12_1532,59.9971327229,FEMA4ImagesEEG,001,200446,
AFNE01.JPG,AFNE01.JPG,AFNE01.JPG,AFNE01.JPG,AFNE01.JPG,AFNE01.JPG,0,8,8,2,,,,,,,,,,,,,,,,,,,,,,,AFSA14.jpg,AFNE12.jpg,AFNE11.jpg,AFSA09.jpg,AFSA09.jpg,FS,4,num_4,16,num_4,0.783453968645,,,2017_Jun_12_1532,59.9971327229,FEMA4ImagesEEG,001,200446,
AFNE01.JPG,AFNE01.JPG,AFNE01.JPG,AFNE01.JPG,AFNE01.JPG,AFNE01.JPG,0,9,9,9,,,,,,,,,,,,,,,,,,,,,,,AFSA18.jpg,AFSA06.jpg,AFNE08.jpg,AFNE11.jpg,AFSA06.jpg,FS,4,num_6,32,num_4,0.633480541874,,,2017_Jun_12_1532,59.9971327229,FEMA4ImagesEEG,001,200446,
AFNE01.JPG,AFNE01.JPG,AFNE01.JPG,AFNE01.JPG,AFNE01.JPG,AFNE01.JPG,1,0,10,1,,,,,,,,,,,,,,,,,,,,,,,AFSA11.jpg,AFNE06.jpg,AFSA09.jpg,AFNE14.jpg,AFSA09.jpg,FS,4,num_2,16,num_2,1.00012252229,,,2017_Jun_12_1532,59.9971327229,FEMA4ImagesEEG,001,200446,
AFNE01.JPG,AFNE01.JPG,AFNE01.JPG,AFNE01.JPG,AFNE01.JPG,AFNE01.JPG,1,1,11,8,,,,,,,,,,,,,,,,,,,,,,,AFSA04.jpg,AFSA19.jpg,AFNE02.jpg,AFNE16.jpg,AFNE02.jpg,FN,3,num_2,16,num_2,1.10010298929,,,2017_Jun_12_1532,59.9971327229,FEMA4ImagesEEG,001,200446,
AFNE01.JPG,AFNE01.JPG,AFNE01.JPG,AFNE01.JPG,AFNE01.JPG,AFNE01.JPG,1,2,12,5,,,,,,,,,,,,,,,,,,,,,,,AFNE13.jpg,AFNE06.jpg,AFSA12.jpg,AFSA06.jpg,AFNE06.jpg,FN,3,num_6,16,num_6,0.600366797182,,,2017_Jun_12_1532,59.9971327229,FEMA4ImagesEEG,001,200446,
AFNE01.JPG,AFNE01.JPG,AFNE01.JPG,AFNE01.JPG,AFNE01.JPG,AFNE01.JPG,1,3,13,0,,,,,,,,,,,,,,,,,,,,,,,AFNE07.jpg,AFNE03.jpg,AFSA07.jpg,AFSA11.jpg,AFSA11.jpg,FS,4,num_4,16,num_4,0.800112515222,,,2017_Jun_12_1532,59.9971327229,FEMA4ImagesEEG,001,200446,
AFNE01.JPG,AFNE01.JPG,AFNE01.JPG,AFNE01.JPG,AFNE01.JPG,AFNE01.JPG,1,4,14,2,,,,,,,,,,,,,,,,,,,,,,,AFSA08.jpg,AFSA09.jpg,AFNE02.jpg,AFNE04.jpg,AFSA09.jpg,FS,4,num_6,16,num_6,0.633662080218,,,2017_Jun_12_1532,59.9971327229,FEMA4ImagesEEG,001,200446,
AFNE01.JPG,AFNE01.JPG,AFNE01.JPG,AFNE01.JPG,AFNE01.JPG,AFNE01.JPG,1,5,15,3,,,,,,,,,,,,,,,,,,,,,,,AFSA06.jpg,AFSA09.jpg,AFNE04.jpg,AFNE07.jpg,AFSA09.jpg,FS,4,num_6,32,num_8,0.933394038584,,,2017_Jun_12_1532,59.9971327229,FEMA4ImagesEEG,001,200446,
AFNE01.JPG,AFNE01.JPG,AFNE01.JPG,AFNE01.JPG,AFNE01.JPG,AFNE01.JPG,1,6,16,6,,,,,,,,,,,,,,,,,,,,,,,AFNE19.jpg,AFSA10.jpg,AFNE08.jpg,AFSA13.jpg,AFSA10.jpg,FS,4,num_6,16,num_6,0.550157017831,,,2017_Jun_12_1532,59.9971327229,FEMA4ImagesEEG,001,200446,
AFNE01.JPG,AFNE01.JPG,AFNE01.JPG,AFNE01.JPG,AFNE01.JPG,AFNE01.JPG,1,7,17,7,,,,,,,,,,,,,,,,,,,,,,,AFNE11.jpg,AFSA15.jpg,AFSA16.jpg,AFNE15.jpg,AFNE11.jpg,FN,3,num_8,16,num_8,1.00010552321,,,2017_Jun_12_1532,59.9971327229,FEMA4ImagesEEG,001,200446,
AFNE01.JPG,AFNE01.JPG,AFNE01.JPG,AFNE01.JPG,AFNE01.JPG,AFNE01.JPG,1,8,18,4,,,,,,,,,,,,,,,,,,,,,,,AFSA07.jpg,AFNE02.jpg,AFSA03.jpg,AFNE12.jpg,AFNE12.jpg,FN,3,num_4,16,num_4,0.533552034583,,,2017_Jun_12_1532,59.9971327229,FEMA4ImagesEEG,001,200446,
AFNE01.JPG,AFNE01.JPG,AFNE01.JPG,AFNE01.JPG,AFNE01.JPG,AFNE01.JPG,1,9,19,9,,,,,,,,,,,,,,,,,,,,,,,AFSA05.jpg,AFNE03.jpg,AFNE11.jpg,AFSA13.jpg,AFSA05.jpg,FS,4,num_8,32,num_2,1.65006660152,,,2017_Jun_12_1532,59.9971327229,FEMA4ImagesEEG,001,200446,
AFNE01.JPG,AFNE01.JPG,AFNE01.JPG,AFNE01.JPG,AFNE01.JPG,AFNE01.JPG,2,0,20,3,,,,,,,,,,,,,,,,,,,,,,,AFSA19.jpg,AFNE03.jpg,AFNE06.jpg,AFSA17.jpg,AFSA19.jpg,FS,4,num_8,16,num_8,0.600001796149,,,2017_Jun_12_1532,59.9971327229,FEMA4ImagesEEG,001,200446,
AFNE01.JPG,AFNE01.JPG,AFNE01.JPG,AFNE01.JPG,AFNE01.JPG,AFNE01.JPG,2,1,21,7,,,,,,,,,,,,,,,,,,,,,,,AFNE07.jpg,AFNE20.jpg,AFSA08.jpg,AFSA09.jpg,AFSA09.jpg,FS,4,num_4,32,num_2,1.06693215307,,,2017_Jun_12_1532,59.9971327229,FEMA4ImagesEEG,001,200446,
AFNE01.JPG,AFNE01.JPG,AFNE01.JPG,AFNE01.JPG,AFNE01.JPG,AFNE01.JPG,2,2,22,9,,,,,,,,,,,,,,,,,,,,,,,AFNE03.jpg,AFNE05.jpg,AFSA20.jpg,AFSA10.jpg,AFNE03.jpg,FN,3,num_8,32,num_6,0.650194897084,,,2017_Jun_12_1532,59.9971327229,FEMA4ImagesEEG,001,200446,
AFNE01.JPG,AFNE01.JPG,AFNE01.JPG,AFNE01.JPG,AFNE01.JPG,AFNE01.JPG,2,3,23,5,,,,,,,,,,,,,,,,,,,,,,,AFSA08.jpg,AFNE07.jpg,AFNE15.jpg,AFSA04.jpg,AFSA04.jpg,FS,4,num_4,16,num_4,0.83345334325,,,2017_Jun_12_1532,59.9971327229,FEMA4ImagesEEG,001,200446,
AFNE01.JPG,AFNE01.JPG,AFNE01.JPG,AFNE01.JPG,AFNE01.JPG,AFNE01.JPG,2,4,24,6,,,,,,,,,,,,,,,,,,,,,,,AFSA12.jpg,AFSA18.jpg,AFNE02.jpg,AFNE04.jpg,AFNE04.jpg,FN,3,num_4,16,num_4,0.833154093649,,,2017_Jun_12_1532,59.9971327229,FEMA4ImagesEEG,001,200446,
AFNE01.JPG,AFNE01.JPG,AFNE01.JPG,AFNE01.JPG,AFNE01.JPG,AFNE01.JPG,2,5,25,4,,,,,,,,,,,,,,,,,,,,,,,AFSA11.jpg,AFSA06.jpg,AFNE01.jpg,AFNE10.jpg,AFNE10.jpg,FN,3,num_4,16,num_4,0.533502961567,,,2017_Jun_12_1532,59.9971327229,FEMA4ImagesEEG,001,200446,
AFNE01.JPG,AFNE01.JPG,AFNE01.JPG,AFNE01.JPG,AFNE01.JPG,AFNE01.JPG,2,6,26,8,,,,,,,,,,,,,,,,,,,,,,,AFNE18.jpg,AFSA09.jpg,AFSA07.jpg,AFNE04.jpg,AFSA07.jpg,FS,4,num_2,32,num_4,2.35010820132,,,2017_Jun_12_1532,59.9971327229,FEMA4ImagesEEG,001,200446,
AFNE01.JPG,AFNE01.JPG,AFNE01.JPG,AFNE01.JPG,AFNE01.JPG,AFNE01.JPG,2,7,27,1,,,,,,,,,,,,,,,,,,,,,,,AFSA14.jpg,AFSA20.jpg,AFNE12.jpg,AFNE08.jpg,AFSA20.jpg,FS,4,num_6,32,num_8,0.917057834682,,,2017_Jun_12_1532,59.9971327229,FEMA4ImagesEEG,001,200446,
AFNE01.JPG,AFNE01.JPG,AFNE01.JPG,AFNE01.JPG,AFNE01.JPG,AFNE01.JPG,2,8,28,2,,,,,,,,,,,,,,,,,,,,,,,AFNE14.jpg,AFSA13.jpg,AFNE19.jpg,AFSA20.jpg,AFNE19.jpg,FN,3,num_2,16,num_2,0.733450103726,,,2017_Jun_12_1532,59.9971327229,FEMA4ImagesEEG,001,200446,
AFNE01.JPG,AFNE01.JPG,AFNE01.JPG,AFNE01.JPG,AFNE01.JPG,AFNE01.JPG,2,9,29,0,,,,,,,,,,,,,,,,,,,,,,,AFNE04.jpg,AFSA14.jpg,AFSA08.jpg,AFNE02.jpg,AFNE04.jpg,FN,3,num_8,16,num_8,1.1501347585,,,2017_Jun_12_1532,59.9971327229,FEMA4ImagesEEG,001,200446,
AFNE01.JPG,AFNE01.JPG,AFNE01.JPG,AFNE01.JPG,AFNE01.JPG,AFNE01.JPG,3,0,30,6,,,,,,,,,,,,,,,,,,,,,,,AFSA12.jpg,AFSA02.jpg,AFNE07.jpg,AFNE13.jpg,AFNE07.jpg,FN,3,num_2,16,num_2,0.90027484129,,,2017_Jun_12_1532,59.9971327229,FEMA4ImagesEEG,001,200446,
AFNE01.JPG,AFNE01.JPG,AFNE01.JPG,AFNE01.JPG,AFNE01.JPG,AFNE01.JPG,3,1,31,7,,,,,,,,,,,,,,,,,,,,,,,AFSA06.jpg,AFNE19.jpg,AFSA20.jpg,AFNE10.jpg,AFNE19.jpg,FN,3,num_6,32,num_2,1.18359073182,,,2017_Jun_12_1532,59.9971327229,FEMA4ImagesEEG,001,200446,
AFNE01.JPG,AFNE01.JPG,AFNE01.JPG,AFNE01.JPG,AFNE01.JPG,AFNE01.JPG,3,2,32,9,,,,,,,,,,,,,,,,,,,,,,,AFSA14.jpg,AFNE11.jpg,AFNE01.jpg,AFSA09.jpg,AFSA14.jpg,FS,4,num_8,16,num_8,1.25023935159,,,2017_Jun_12_1532,59.9971327229,FEMA4ImagesEEG,001,200446,
AFNE01.JPG,AFNE01.JPG,AFNE01.JPG,AFNE01.JPG,AFNE01.JPG,AFNE01.JPG,3,3,33,0,,,,,,,,,,,,,,,,,,,,,,,AFSA01.jpg,AFNE07.jpg,AFSA11.jpg,AFNE10.jpg,AFSA01.jpg,FS,4,num_8,32,num_2,0.600322855928,,,2017_Jun_12_1532,59.9971327229,FEMA4ImagesEEG,001,200446,
AFNE01.JPG,AFNE01.JPG,AFNE01.JPG,AFNE01.JPG,AFNE01.JPG,AFNE01.JPG,3,4,34,1,,,,,,,,,,,,,,,,,,,,,,,AFNE04.jpg,AFSA10.jpg,AFSA04.jpg,AFNE16.jpg,AFNE16.jpg,FN,3,num_4,16,num_4,0.916726511205,,,2017_Jun_12_1532,59.9971327229,FEMA4ImagesEEG,001,200446,
AFNE01.JPG,AFNE01.JPG,AFNE01.JPG,AFNE01.JPG,AFNE01.JPG,AFNE01.JPG,3,5,35,2,,,,,,,,,,,,,,,,,,,,,,,AFSA01.jpg,AFSA17.jpg,AFNE02.jpg,AFNE18.jpg,AFSA01.jpg,FS,4,num_8,32,num_2,0.749814853363,,,2017_Jun_12_1532,59.9971327229,FEMA4ImagesEEG,001,200446,
AFNE01.JPG,AFNE01.JPG,AFNE01.JPG,AFNE01.JPG,AFNE01.JPG,AFNE01.JPG,3,6,36,4,,,,,,,,,,,,,,,,,,,,,,,AFSA03.jpg,AFNE07.jpg,AFSA20.jpg,AFNE02.jpg,AFSA03.jpg,FS,4,num_8,32,num_4,0.816804098024,,,2017_Jun_12_1532,59.9971327229,FEMA4ImagesEEG,001,200446,
AFNE01.JPG,AFNE01.JPG,AFNE01.JPG,AFNE01.JPG,AFNE01.JPG,AFNE01.JPG,3,7,37,5,,,,,,,,,,,,,,,,,,,,,,,AFSA09.jpg,AFNE17.jpg,AFNE11.jpg,AFSA19.jpg,AFSA19.jpg,FS,4,num_4,16,num_4,0.683491142292,,,2017_Jun_12_1532,59.9971327229,FEMA4ImagesEEG,001,200446,
AFNE01.JPG,AFNE01.JPG,AFNE01.JPG,AFNE01.JPG,AFNE01.JPG,AFNE01.JPG,3,8,38,3,,,,,,,,,,,,,,,,,,,,,,,AFNE07.jpg,AFSA03.jpg,AFNE03.jpg,AFSA10.jpg,AFSA03.jpg,FS,4,num_6,16,num_6,0.650089373928,,,2017_Jun_12_1532,59.9971327229,FEMA4ImagesEEG,001,200446,
AFNE01.JPG,AFNE01.JPG,AFNE01.JPG,AFNE01.JPG,AFNE01.JPG,AFNE01.JPG,3,9,39,8,,,,,,,,,,,,,,,,,,,,,,,AFSA01.jpg,AFNE01.jpg,AFSA17.jpg,AFNE16.jpg,AFSA17.jpg,FS,4,num_2,16,num_2,0.866832659813,,,2017_Jun_12_1532,59.9971327229,FEMA4ImagesEEG,001,200446,
AFNE01.JPG,AFNE01.JPG,AFNE01.JPG,AFNE01.JPG,AFNE01.JPG,AFNE01.JPG,4,0,40,6,,,,,,,,,,,,,,,,,,,,,,,AFSA11.jpg,AFSA13.jpg,AFNE17.jpg,AFNE04.jpg,AFNE17.jpg,FN,3,num_2,32,num_4,0.666873008828,,,2017_Jun_12_1532,59.9971327229,FEMA4ImagesEEG,001,200446,
AFNE01.JPG,AFNE01.JPG,AFNE01.JPG,AFNE01.JPG,AFNE01.JPG,AFNE01.JPG,4,1,41,3,,,,,,,,,,,,,,,,,,,,,,,AFNE14.jpg,AFNE09.jpg,AFSA11.jpg,AFSA13.jpg,AFNE14.jpg,FN,3,num_8,16,num_8,0.666809823189,,,2017_Jun_12_1532,59.9971327229,FEMA4ImagesEEG,001,200446,
AFNE01.JPG,AFNE01.JPG,AFNE01.JPG,AFNE01.JPG,AFNE01.JPG,AFNE01.JPG,4,2,42,8,,,,,,,,,,,,,,,,,,,,,,,AFSA16.jpg,AFSA04.jpg,AFNE11.jpg,AFNE05.jpg,AFSA16.jpg,FS,4,num_8,32,num_2,1.38339386211,,,2017_Jun_12_1532,59.9971327229,FEMA4ImagesEEG,001,200446,
AFNE01.JPG,AFNE01.JPG,AFNE01.JPG,AFNE01.JPG,AFNE01.JPG,AFNE01.JPG,4,3,43,2,,,,,,,,,,,,,,,,,,,,,,,AFNE03.jpg,AFSA17.jpg,AFNE02.jpg,AFSA07.jpg,AFSA17.jpg,FS,4,num_6,32,num_8,1.08345246117,,,2017_Jun_12_1532,59.9971327229,FEMA4ImagesEEG,001,200446,
AFNE01.JPG,AFNE01.JPG,AFNE01.JPG,AFNE01.JPG,AFNE01.JPG,AFNE01.JPG,4,4,44,0,,,,,,,,,,,,,,,,,,,,,,,AFNE16.jpg,AFNE14.jpg,AFSA18.jpg,AFSA17.jpg,AFNE16.jpg,FN,3,num_8,32,num_2,0.75010415999,,,2017_Jun_12_1532,59.9971327229,FEMA4ImagesEEG,001,200446,
AFNE01.JPG,AFNE01.JPG,AFNE01.JPG,AFNE01.JPG,AFNE01.JPG,AFNE01.JPG,4,5,45,1,,,,,,,,,,,,,,,,,,,,,,,AFNE05.jpg,AFSA01.jpg,AFSA18.jpg,AFNE13.jpg,AFSA18.jpg,FS,4,num_2,16,num_2,0.850119587558,,,2017_Jun_12_1532,59.9971327229,FEMA4ImagesEEG,001,200446,
AFNE01.JPG,AFNE01.JPG,AFNE01.JPG,AFNE01.JPG,AFNE01.JPG,AFNE01.JPG,4,6,46,7,,,,,,,,,,,,,,,,,,,,,,,AFSA01.jpg,AFSA03.jpg,AFNE10.jpg,AFNE04.jpg,AFNE04.jpg,FN,3,num_4,16,num_4,0.666645284102,,,2017_Jun_12_1532,59.9971327229,FEMA4ImagesEEG,001,200446,
AFNE01.JPG,AFNE01.JPG,AFNE01.JPG,AFNE01.JPG,AFNE01.JPG,AFNE01.JPG,4,7,47,4,,,,,,,,,,,,,,,,,,,,,,,AFSA10.jpg,AFNE13.jpg,AFSA19.jpg,AFNE20.jpg,AFSA10.jpg,FS,4,num_8,32,num_4,0.90012537688,,,2017_Jun_12_1532,59.9971327229,FEMA4ImagesEEG,001,200446,
AFNE01.JPG,AFNE01.JPG,AFNE01.JPG,AFNE01.JPG,AFNE01.JPG,AFNE01.JPG,4,8,48,9,,,,,,,,,,,,,,,,,,,,,,,AFNE02.jpg,AFNE05.jpg,AFSA14.jpg,AFSA06.jpg,AFSA06.jpg,FS,4,num_4,32,num_6,1.08344925375,,,2017_Jun_12_1532,59.9971327229,FEMA4ImagesEEG,001,200446,
AFNE01.JPG,AFNE01.JPG,AFNE01.JPG,AFNE01.JPG,AFNE01.JPG,AFNE01.JPG,4,9,49,5,,,,,,,,,,,,,,,,,,,,,,,AFSA09.jpg,AFSA13.jpg,AFNE11.jpg,AFNE12.jpg,AFNE11.jpg,FN,3,num_2,16,num_2,0.766806327156,,,2017_Jun_12_1532,59.9971327229,FEMA4ImagesEEG,001,200446,
AFNE01.JPG,AFNE01.JPG,AFNE01.JPG,AFNE01.JPG,AFNE01.JPG,AFNE01.JPG,5,0,50,3,,,,,,,,,,,,,,,,,,,,,,,AFSA09.jpg,AFSA05.jpg,AFNE14.jpg,AFNE12.jpg,AFSA05.jpg,FS,4,num_6,16,num_6,0.466787628073,,,2017_Jun_12_1532,59.9971327229,FEMA4ImagesEEG,001,200446,
AFNE01.JPG,AFNE01.JPG,AFNE01.JPG,AFNE01.JPG,AFNE01.JPG,AFNE01.JPG,5,1,51,5,,,,,,,,,,,,,,,,,,,,,,,AFSA17.jpg,AFSA03.jpg,AFNE18.jpg,AFNE05.jpg,AFSA17.jpg,FS,4,num_8,32,num_6,0.750150667154,,,2017_Jun_12_1532,59.9971327229,FEMA4ImagesEEG,001,200446,
AFNE01.JPG,AFNE01.JPG,AFNE01.JPG,AFNE01.JPG,AFNE01.JPG,AFNE01.JPG,5,2,52,0,,,,,,,,,,,,,,,,,,,,,,,AFSA19.jpg,AFNE13.jpg,AFSA15.jpg,AFNE17.jpg,AFSA15.jpg,FS,4,num_2,16,num_2,1.00011546607,,,2017_Jun_12_1532,59.9971327229,FEMA4ImagesEEG,001,200446,
AFNE01.JPG,AFNE01.JPG,AFNE01.JPG,AFNE01.JPG,AFNE01.JPG,AFNE01.JPG,5,3,53,1,,,,,,,,,,,,,,,,,,,,,,,AFSA11.jpg,AFSA02.jpg,AFNE03.jpg,AFNE12.jpg,AFSA11.jpg,FS,4,num_8,16,num_8,1.01679293631,,,2017_Jun_12_1532,59.9971327229,FEMA4ImagesEEG,001,200446,
AFNE01.JPG,AFNE01.JPG,AFNE01.JPG,AFNE01.JPG,AFNE01.JPG,AFNE01.JPG,5,4,54,7,,,,,,,,,,,,,,,,,,,,,,,AFNE02.jpg,AFNE09.jpg,AFSA14.jpg,AFSA07.jpg,AFNE09.jpg,FN,3,num_6,16,num_6,0.900108698523,,,2017_Jun_12_1532,59.9971327229,FEMA4ImagesEEG,001,200446,
AFNE01.JPG,AFNE01.JPG,AFNE01.JPG,AFNE01.JPG,AFNE01.JPG,AFNE01.JPG,5,5,55,6,,,,,,,,,,,,,,,,,,,,,,,AFNE12.jpg,AFSA01.jpg,AFNE13.jpg,AFSA11.jpg,AFSA01.jpg,FS,4,num_6,16,num_6,0.650129787042,,,2017_Jun_12_1532,59.9971327229,FEMA4ImagesEEG,001,200446,
AFNE01.JPG,AFNE01.JPG,AFNE01.JPG,AFNE01.JPG,AFNE01.JPG,AFNE01.JPG,5,6,56,8,,,,,,,,,,,,,,,,,,,,,,,AFNE10.jpg,AFNE19.jpg,AFSA17.jpg,AFSA04.jpg,AFSA17.jpg,FS,4,num_2,16,num_2,0.866742532176,,,2017_Jun_12_1532,59.9971327229,FEMA4ImagesEEG,001,200446,
AFNE01.JPG,AFNE01.JPG,AFNE01.JPG,AFNE01.JPG,AFNE01.JPG,AFNE01.JPG,5,7,57,4,,,,,,,,,,,,,,,,,,,,,,,AFSA17.jpg,AFNE05.jpg,AFSA06.jpg,AFNE03.jpg,AFNE03.jpg,FN,3,num_4,16,num_4,1.08345310262,,,2017_Jun_12_1532,59.9971327229,FEMA4ImagesEEG,001,200446,
AFNE01.JPG,AFNE01.JPG,AFNE01.JPG,AFNE01.JPG,AFNE01.JPG,AFNE01.JPG,5,8,58,2,,,,,,,,,,,,,,,,,,,,,,,AFSA08.jpg,AFNE15.jpg,AFSA12.jpg,AFNE07.jpg,AFSA08.jpg,FS,4,num_8,32,num_2,0.900283822033,,,2017_Jun_12_1532,59.9971327229,FEMA4ImagesEEG,001,200446,
AFNE01.JPG,AFNE01.JPG,AFNE01.JPG,AFNE01.JPG,AFNE01.JPG,AFNE01.JPG,5,9,59,9,,,,,,,,,,,,,,,,,,,,,,,AFNE13.jpg,AFSA07.jpg,AFNE11.jpg,AFSA11.jpg,AFNE13.jpg,FN,3,num_8,16,num_8,1.11673074501,,,2017_Jun_12_1532,59.9971327229,FEMA4ImagesEEG,001,200446,
,,,,,,,,,,,,,,,,,,,,,,,,,,,,,,,,,,,,,,,,,,,space,15.2159812098,2017_Jun_12_1532,59.9971327229,FEMA4ImagesEEG,001,200446,
AFNE01.JPG,AFNE01.JPG,AFNE01.JPG,AFNE01.JPG,AFNE01.JPG,AFNE01.JPG,,,,,0,0,0,4,,,,,,,,,,,,,,,,,,,AMNE10.jpg,AMNE06.jpg,AMSA01.jpg,AMSA09.jpg,AMNE06.jpg,MN,1,num_6,32,num_8,0.850123757205,,,2017_Jun_12_1532,59.9971327229,FEMA4ImagesEEG,001,200446,
AFNE01.JPG,AFNE01.JPG,AFNE01.JPG,AFNE01.JPG,AFNE01.JPG,AFNE01.JPG,,,,,0,1,1,7,,,,,,,,,,,,,,,,,,,AMNE15.jpg,AMSA05.jpg,AMNE16.jpg,AMSA04.jpg,AMSA05.jpg,MS,2,num_6,16,num_6,0.63346642931,,,2017_Jun_12_1532,59.9971327229,FEMA4ImagesEEG,001,200446,
AFNE01.JPG,AFNE01.JPG,AFNE01.JPG,AFNE01.JPG,AFNE01.JPG,AFNE01.JPG,,,,,0,2,2,6,,,,,,,,,,,,,,,,,,,AMNE16.jpg,AMSA16.jpg,AMSA12.jpg,AMNE18.jpg,AMNE16.jpg,MN,1,num_8,16,num_8,1.01663513266,,,2017_Jun_12_1532,59.9971327229,FEMA4ImagesEEG,001,200446,
AFNE01.JPG,AFNE01.JPG,AFNE01.JPG,AFNE01.JPG,AFNE01.JPG,AFNE01.JPG,,,,,0,3,3,1,,,,,,,,,,,,,,,,,,,AMSA02.jpg,AMNE07.jpg,AMSA01.jpg,AMNE19.jpg,AMNE07.jpg,MN,1,num_6,32,num_4,1.38341695536,,,2017_Jun_12_1532,59.9971327229,FEMA4ImagesEEG,001,200446,
AFNE01.JPG,AFNE01.JPG,AFNE01.JPG,AFNE01.JPG,AFNE01.JPG,AFNE01.JPG,,,,,0,4,4,9,,,,,,,,,,,,,,,,,,,AMSA04.jpg,AMNE05.jpg,AMNE09.jpg,AMSA20.jpg,AMNE09.jpg,MN,1,num_2,32,num_6,0.883468113199,,,2017_Jun_12_1532,59.9971327229,FEMA4ImagesEEG,001,200446,
AFNE01.JPG,AFNE01.JPG,AFNE01.JPG,AFNE01.JPG,AFNE01.JPG,AFNE01.JPG,,,,,0,5,5,3,,,,,,,,,,,,,,,,,,,AMNE03.jpg,AMSA11.jpg,AMSA09.jpg,AMNE01.jpg,AMSA09.jpg,MS,2,num_2,32,num_6,0.833465852018,,,2017_Jun_12_1532,59.9971327229,FEMA4ImagesEEG,001,200446,
AFNE01.JPG,AFNE01.JPG,AFNE01.JPG,AFNE01.JPG,AFNE01.JPG,AFNE01.JPG,,,,,0,6,6,5,,,,,,,,,,,,,,,,,,,AMSA19.jpg,AMNE01.jpg,AMNE10.jpg,AMSA03.jpg,AMSA03.jpg,MS,2,num_4,32,num_8,1.08342102874,,,2017_Jun_12_1532,59.9971327229,FEMA4ImagesEEG,001,200446,
AFNE01.JPG,AFNE01.JPG,AFNE01.JPG,AFNE01.JPG,AFNE01.JPG,AFNE01.JPG,,,,,0,7,7,8,,,,,,,,,,,,,,,,,,,AMNE16.jpg,AMNE08.jpg,AMSA20.jpg,AMSA19.jpg,AMNE08.jpg,MN,1,num_6,32,num_8,0.783441459818,,,2017_Jun_12_1532,59.9971327229,FEMA4ImagesEEG,001,200446,
AFNE01.JPG,AFNE01.JPG,AFNE01.JPG,AFNE01.JPG,AFNE01.JPG,AFNE01.JPG,,,,,0,8,8,2,,,,,,,,,,,,,,,,,,,AMNE17.jpg,AMSA08.jpg,AMNE14.jpg,AMSA05.jpg,AMNE14.jpg,MN,1,num_2,16,num_2,0.783489570662,,,2017_Jun_12_1532,59.9971327229,FEMA4ImagesEEG,001,200446,
AFNE01.JPG,AFNE01.JPG,AFNE01.JPG,AFNE01.JPG,AFNE01.JPG,AFNE01.JPG,,,,,0,9,9,0,,,,,,,,,,,,,,,,,,,AMSA13.jpg,AMSA16.jpg,AMNE15.jpg,AMNE12.jpg,AMNE12.jpg,MN,1,num_4,16,num_4,0.950129241799,,,2017_Jun_12_1532,59.9971327229,FEMA4ImagesEEG,001,200446,
AFNE01.JPG,AFNE01.JPG,AFNE01.JPG,AFNE01.JPG,AFNE01.JPG,AFNE01.JPG,,,,,1,0,10,4,,,,,,,,,,,,,,,,,,,AMSA18.jpg,AMNE19.jpg,AMNE04.jpg,AMSA10.jpg,AMNE04.jpg,MN,1,num_2,16,num_2,0.766783233965,,,2017_Jun_12_1532,59.9971327229,FEMA4ImagesEEG,001,200446,
AFNE01.JPG,AFNE01.JPG,AFNE01.JPG,AFNE01.JPG,AFNE01.JPG,AFNE01.JPG,,,,,1,1,11,3,,,,,,,,,,,,,,,,,,,AMSA09.jpg,AMNE20.jpg,AMSA19.jpg,AMNE02.jpg,AMNE02.jpg,MN,1,num_4,16,num_4,0.633477975964,,,2017_Jun_12_1532,59.9971327229,FEMA4ImagesEEG,001,200446,
AFNE01.JPG,AFNE01.JPG,AFNE01.JPG,AFNE01.JPG,AFNE01.JPG,AFNE01.JPG,,,,,1,2,12,7,,,,,,,,,,,,,,,,,,,AMNE09.jpg,AMSA20.jpg,AMNE10.jpg,AMSA09.jpg,AMSA09.jpg,MS,2,num_4,16,num_4,0.783716333215,,,2017_Jun_12_1532,59.9971327229,FEMA4ImagesEEG,001,200446,
AFNE01.JPG,AFNE01.JPG,AFNE01.JPG,AFNE01.JPG,AFNE01.JPG,AFNE01.JPG,,,,,1,3,13,8,,,,,,,,,,,,,,,,,,,AMNE15.jpg,AMSA11.jpg,AMSA17.jpg,AMNE10.jpg,AMNE10.jpg,MN,1,num_4,16,num_4,0.783499834302,,,2017_Jun_12_1532,59.9971327229,FEMA4ImagesEEG,001,200446,
AFNE01.JPG,AFNE01.JPG,AFNE01.JPG,AFNE01.JPG,AFNE01.JPG,AFNE01.JPG,,,,,1,4,14,0,,,,,,,,,,,,,,,,,,,AMNE15.jpg,AMSA07.jpg,AMSA09.jpg,AMNE16.jpg,AMSA07.jpg,MS,2,num_6,16,num_6,1.01672429818,,,2017_Jun_12_1532,59.9971327229,FEMA4ImagesEEG,001,200446,
AFNE01.JPG,AFNE01.JPG,AFNE01.JPG,AFNE01.JPG,AFNE01.JPG,AFNE01.JPG,,,,,1,5,15,2,,,,,,,,,,,,,,,,,,,AMNE18.jpg,AMNE06.jpg,AMSA06.jpg,AMSA20.jpg,AMNE06.jpg,MN,1,num_6,32,num_8,0.85012920975,,,2017_Jun_12_1532,59.9971327229,FEMA4ImagesEEG,001,200446,
AFNE01.JPG,AFNE01.JPG,AFNE01.JPG,AFNE01.JPG,AFNE01.JPG,AFNE01.JPG,,,,,1,6,16,5,,,,,,,,,,,,,,,,,,,AMSA01.jpg,AMNE03.jpg,AMSA12.jpg,AMNE07.jpg,AMSA12.jpg,MS,2,num_2,16,num_2,0.916735491948,,,2017_Jun_12_1532,59.9971327229,FEMA4ImagesEEG,001,200446,
AFNE01.JPG,AFNE01.JPG,AFNE01.JPG,AFNE01.JPG,AFNE01.JPG,AFNE01.JPG,,,,,1,7,17,6,,,,,,,,,,,,,,,,,,,AMNE01.jpg,AMSA01.jpg,AMNE15.jpg,AMSA09.jpg,AMNE01.jpg,MN,1,num_8,16,num_8,0.51651533664,,,2017_Jun_12_1532,59.9971327229,FEMA4ImagesEEG,001,200446,
AFNE01.JPG,AFNE01.JPG,AFNE01.JPG,AFNE01.JPG,AFNE01.JPG,AFNE01.JPG,,,,,1,8,18,1,,,,,,,,,,,,,,,,,,,AMNE01.jpg,AMSA18.jpg,AMSA14.jpg,AMNE09.jpg,AMSA14.jpg,MS,2,num_2,16,num_2,0.733463895507,,,2017_Jun_12_1532,59.9971327229,FEMA4ImagesEEG,001,200446,
AFNE01.JPG,AFNE01.JPG,AFNE01.JPG,AFNE01.JPG,AFNE01.JPG,AFNE01.JPG,,,,,1,9,19,9,,,,,,,,,,,,,,,,,,,AMSA18.jpg,AMSA20.jpg,AMNE13.jpg,AMNE20.jpg,AMNE20.jpg,MN,1,num_4,16,num_4,0.96673358354,,,2017_Jun_12_1532,59.9971327229,FEMA4ImagesEEG,001,200446,
AFNE01.JPG,AFNE01.JPG,AFNE01.JPG,AFNE01.JPG,AFNE01.JPG,AFNE01.JPG,,,,,2,0,20,0,,,,,,,,,,,,,,,,,,,AMNE17.jpg,AMSA07.jpg,AMSA14.jpg,AMNE12.jpg,AMNE12.jpg,MN,1,num_4,16,num_4,0.733704449842,,,2017_Jun_12_1532,59.9971327229,FEMA4ImagesEEG,001,200446,
AFNE01.JPG,AFNE01.JPG,AFNE01.JPG,AFNE01.JPG,AFNE01.JPG,AFNE01.JPG,,,,,2,1,21,1,,,,,,,,,,,,,,,,,,,AMNE08.jpg,AMSA09.jpg,AMNE03.jpg,AMSA18.jpg,AMSA09.jpg,MS,2,num_6,16,num_6,0.533466397261,,,2017_Jun_12_1532,59.9971327229,FEMA4ImagesEEG,001,200446,
AFNE01.JPG,AFNE01.JPG,AFNE01.JPG,AFNE01.JPG,AFNE01.JPG,AFNE01.JPG,,,,,2,2,22,8,,,,,,,,,,,,,,,,,,,AMNE06.jpg,AMSA06.jpg,AMSA13.jpg,AMNE11.jpg,AMSA13.jpg,MS,2,num_2,32,num_8,0.783466477471,,,2017_Jun_12_1532,59.9971327229,FEMA4ImagesEEG,001,200446,
AFNE01.JPG,AFNE01.JPG,AFNE01.JPG,AFNE01.JPG,AFNE01.JPG,AFNE01.JPG,,,,,2,3,23,3,,,,,,,,,,,,,,,,,,,AMNE10.jpg,AMNE17.jpg,AMSA14.jpg,AMSA06.jpg,AMSA14.jpg,MS,2,num_2,16,num_2,0.733483460557,,,2017_Jun_12_1532,59.9971327229,FEMA4ImagesEEG,001,200446,
AFNE01.JPG,AFNE01.JPG,AFNE01.JPG,AFNE01.JPG,AFNE01.JPG,AFNE01.JPG,,,,,2,4,24,7,,,,,,,,,,,,,,,,,,,AMNE17.jpg,AMSA14.jpg,AMSA03.jpg,AMNE05.jpg,AMNE17.jpg,MN,1,num_8,16,num_8,0.916717530519,,,2017_Jun_12_1532,59.9971327229,FEMA4ImagesEEG,001,200446,
AFNE01.JPG,AFNE01.JPG,AFNE01.JPG,AFNE01.JPG,AFNE01.JPG,AFNE01.JPG,,,,,2,5,25,4,,,,,,,,,,,,,,,,,,,AMNE03.jpg,AMSA10.jpg,AMSA06.jpg,AMNE10.jpg,AMSA10.jpg,MS,2,num_6,16,num_6,0.633469636785,,,2017_Jun_12_1532,59.9971327229,FEMA4ImagesEEG,001,200446,
AFNE01.JPG,AFNE01.JPG,AFNE01.JPG,AFNE01.JPG,AFNE01.JPG,AFNE01.JPG,,,,,2,6,26,5,,,,,,,,,,,,,,,,,,,AMNE06.jpg,AMSA03.jpg,AMSA05.jpg,AMNE04.jpg,AMNE04.jpg,MN,1,num_4,16,num_4,0.516804964049,,,2017_Jun_12_1532,59.9971327229,FEMA4ImagesEEG,001,200446,
AFNE01.JPG,AFNE01.JPG,AFNE01.JPG,AFNE01.JPG,AFNE01.JPG,AFNE01.JPG,,,,,2,7,27,9,,,,,,,,,,,,,,,,,,,AMSA15.jpg,AMNE17.jpg,AMNE05.jpg,AMSA04.jpg,AMNE17.jpg,MN,1,num_6,16,num_6,0.466839267057,,,2017_Jun_12_1532,59.9971327229,FEMA4ImagesEEG,001,200446,
AFNE01.JPG,AFNE01.JPG,AFNE01.JPG,AFNE01.JPG,AFNE01.JPG,AFNE01.JPG,,,,,2,8,28,2,,,,,,,,,,,,,,,,,,,AMSA19.jpg,AMSA17.jpg,AMNE01.jpg,AMNE20.jpg,AMNE01.jpg,MN,1,num_2,16,num_2,0.600122714764,,,2017_Jun_12_1532,59.9971327229,FEMA4ImagesEEG,001,200446,
AFNE01.JPG,AFNE01.JPG,AFNE01.JPG,AFNE01.JPG,AFNE01.JPG,AFNE01.JPG,,,,,2,9,29,6,,,,,,,,,,,,,,,,,,,AMNE16.jpg,AMNE19.jpg,AMSA10.jpg,AMSA09.jpg,AMNE19.jpg,MN,1,num_6,16,num_6,0.533487886831,,,2017_Jun_12_1532,59.9971327229,FEMA4ImagesEEG,001,200446,
AFNE01.JPG,AFNE01.JPG,AFNE01.JPG,AFNE01.JPG,AFNE01.JPG,AFNE01.JPG,,,,,3,0,30,3,,,,,,,,,,,,,,,,,,,AMNE12.jpg,AMSA17.jpg,AMSA13.jpg,AMNE14.jpg,AMSA13.jpg,MS,2,num_2,16,num_2,1.03342197492,,,2017_Jun_12_1532,59.9971327229,FEMA4ImagesEEG,001,200446,
AFNE01.JPG,AFNE01.JPG,AFNE01.JPG,AFNE01.JPG,AFNE01.JPG,AFNE01.JPG,,,,,3,1,31,8,,,,,,,,,,,,,,,,,,,AMSA06.jpg,AMNE17.jpg,AMNE13.jpg,AMSA02.jpg,AMNE17.jpg,MN,1,num_6,16,num_6,0.800212585891,,,2017_Jun_12_1532,59.9971327229,FEMA4ImagesEEG,001,200446,
AFNE01.JPG,AFNE01.JPG,AFNE01.JPG,AFNE01.JPG,AFNE01.JPG,AFNE01.JPG,,,,,3,2,32,1,,,,,,,,,,,,,,,,,,,AMSA05.jpg,AMNE15.jpg,AMSA20.jpg,AMNE19.jpg,AMSA05.jpg,MS,2,num_8,16,num_8,0.966780090705,,,2017_Jun_12_1532,59.9971327229,FEMA4ImagesEEG,001,200446,
AFNE01.JPG,AFNE01.JPG,AFNE01.JPG,AFNE01.JPG,AFNE01.JPG,AFNE01.JPG,,,,,3,3,33,6,,,,,,,,,,,,,,,,,,,AMSA04.jpg,AMNE18.jpg,AMNE07.jpg,AMSA03.jpg,AMNE07.jpg,MN,1,num_2,16,num_2,0.916774301382,,,2017_Jun_12_1532,59.9971327229,FEMA4ImagesEEG,001,200446,
AFNE01.JPG,AFNE01.JPG,AFNE01.JPG,AFNE01.JPG,AFNE01.JPG,AFNE01.JPG,,,,,3,4,34,7,,,,,,,,,,,,,,,,,,,AMSA05.jpg,AMSA12.jpg,AMNE07.jpg,AMNE14.jpg,AMSA12.jpg,MS,2,num_6,32,num_8,0.700137500826,,,2017_Jun_12_1532,59.9971327229,FEMA4ImagesEEG,001,200446,
AFNE01.JPG,AFNE01.JPG,AFNE01.JPG,AFNE01.JPG,AFNE01.JPG,AFNE01.JPG,,,,,3,5,35,2,,,,,,,,,,,,,,,,,,,AMSA10.jpg,AMSA12.jpg,AMNE03.jpg,AMNE05.jpg,AMSA12.jpg,MS,2,num_6,16,num_6,0.766766234767,,,2017_Jun_12_1532,59.9971327229,FEMA4ImagesEEG,001,200446,
AFNE01.JPG,AFNE01.JPG,AFNE01.JPG,AFNE01.JPG,AFNE01.JPG,AFNE01.JPG,,,,,3,6,36,0,,,,,,,,,,,,,,,,,,,AMSA05.jpg,AMSA01.jpg,AMNE14.jpg,AMNE15.jpg,AMNE15.jpg,MN,1,num_4,16,num_4,1.63326917478,,,2017_Jun_12_1532,59.9971327229,FEMA4ImagesEEG,001,200446,
AFNE01.JPG,AFNE01.JPG,AFNE01.JPG,AFNE01.JPG,AFNE01.JPG,AFNE01.JPG,,,,,3,7,37,4,,,,,,,,,,,,,,,,,,,AMSA08.jpg,AMSA03.jpg,AMNE12.jpg,AMNE10.jpg,AMSA03.jpg,MS,2,num_6,16,num_6,0.733482819109,,,2017_Jun_12_1532,59.9971327229,FEMA4ImagesEEG,001,200446,
AFNE01.JPG,AFNE01.JPG,AFNE01.JPG,AFNE01.JPG,AFNE01.JPG,AFNE01.JPG,,,,,3,8,38,9,,,,,,,,,,,,,,,,,,,AMSA20.jpg,AMNE05.jpg,AMNE14.jpg,AMSA09.jpg,AMSA20.jpg,MS,2,num_8,32,num_4,1.23344384937,,,2017_Jun_12_1532,59.9971327229,FEMA4ImagesEEG,001,200446,
AFNE01.JPG,AFNE01.JPG,AFNE01.JPG,AFNE01.JPG,AFNE01.JPG,AFNE01.JPG,,,,,3,9,39,5,,,,,,,,,,,,,,,,,,,AMNE13.jpg,AMSA17.jpg,AMNE12.jpg,AMSA04.jpg,AMNE13.jpg,MN,1,num_8,16,num_8,0.783520361641,,,2017_Jun_12_1532,59.9971327229,FEMA4ImagesEEG,001,200446,
AFNE01.JPG,AFNE01.JPG,AFNE01.JPG,AFNE01.JPG,AFNE01.JPG,AFNE01.JPG,,,,,4,0,40,4,,,,,,,,,,,,,,,,,,,AMNE14.jpg,AMNE18.jpg,AMSA15.jpg,AMSA04.jpg,AMSA15.jpg,MS,2,num_2,16,num_2,0.949775466579,,,2017_Jun_12_1532,59.9971327229,FEMA4ImagesEEG,001,200446,
AFNE01.JPG,AFNE01.JPG,AFNE01.JPG,AFNE01.JPG,AFNE01.JPG,AFNE01.JPG,,,,,4,1,41,0,,,,,,,,,,,,,,,,,,,AMSA11.jpg,AMSA19.jpg,AMNE19.jpg,AMNE09.jpg,AMSA11.jpg,MS,2,num_8,32,num_6,1.03346463322,,,2017_Jun_12_1532,59.9971327229,FEMA4ImagesEEG,001,200446,
AFNE01.JPG,AFNE01.JPG,AFNE01.JPG,AFNE01.JPG,AFNE01.JPG,AFNE01.JPG,,,,,4,2,42,6,,,,,,,,,,,,,,,,,,,AMNE02.jpg,AMSA10.jpg,AMSA12.jpg,AMNE13.jpg,AMNE02.jpg,MN,1,num_8,16,num_8,0.416825780005,,,2017_Jun_12_1532,59.9971327229,FEMA4ImagesEEG,001,200446,
AFNE01.JPG,AFNE01.JPG,AFNE01.JPG,AFNE01.JPG,AFNE01.JPG,AFNE01.JPG,,,,,4,3,43,9,,,,,,,,,,,,,,,,,,,AMSA07.jpg,AMSA06.jpg,AMNE05.jpg,AMNE01.jpg,AMNE01.jpg,MN,1,num_4,16,num_4,0.41677670693,,,2017_Jun_12_1532,59.9971327229,FEMA4ImagesEEG,001,200446,
AFNE01.JPG,AFNE01.JPG,AFNE01.JPG,AFNE01.JPG,AFNE01.JPG,AFNE01.JPG,,,,,4,4,44,5,,,,,,,,,,,,,,,,,,,AMSA14.jpg,AMSA15.jpg,AMNE09.jpg,AMNE14.jpg,AMSA15.jpg,MS,2,num_6,32,num_2,0.900133716117,,,2017_Jun_12_1532,59.9971327229,FEMA4ImagesEEG,001,200446,
AFNE01.JPG,AFNE01.JPG,AFNE01.JPG,AFNE01.JPG,AFNE01.JPG,AFNE01.JPG,,,,,4,5,45,3,,,,,,,,,,,,,,,,,,,AMNE18.jpg,AMNE02.jpg,AMSA16.jpg,AMSA18.jpg,AMSA16.jpg,MS,2,num_2,16,num_2,1.38341086131,,,2017_Jun_12_1532,59.9971327229,FEMA4ImagesEEG,001,200446,
AFNE01.JPG,AFNE01.JPG,AFNE01.JPG,AFNE01.JPG,AFNE01.JPG,AFNE01.JPG,,,,,4,6,46,2,,,,,,,,,,,,,,,,,,,AMSA04.jpg,AMSA07.jpg,AMNE16.jpg,AMNE18.jpg,AMSA07.jpg,MS,2,num_6,16,num_6,1.70008457889,,,2017_Jun_12_1532,59.9971327229,FEMA4ImagesEEG,001,200446,
AFNE01.JPG,AFNE01.JPG,AFNE01.JPG,AFNE01.JPG,AFNE01.JPG,AFNE01.JPG,,,,,4,7,47,1,,,,,,,,,,,,,,,,,,,AMNE18.jpg,AMSA14.jpg,AMSA06.jpg,AMNE15.jpg,AMNE15.jpg,MN,1,num_4,32,num_2,0.900144621264,,,2017_Jun_12_1532,59.9971327229,FEMA4ImagesEEG,001,200446,
AFNE01.JPG,AFNE01.JPG,AFNE01.JPG,AFNE01.JPG,AFNE01.JPG,AFNE01.JPG,,,,,4,8,48,8,,,,,,,,,,,,,,,,,,,AMSA07.jpg,AMSA18.jpg,AMNE17.jpg,AMNE18.jpg,AMNE17.jpg,MN,1,num_2,32,num_8,0.950100696005,,,2017_Jun_12_1532,59.9971327229,FEMA4ImagesEEG,001,200446,
AFNE01.JPG,AFNE01.JPG,AFNE01.JPG,AFNE01.JPG,AFNE01.JPG,AFNE01.JPG,,,,,4,9,49,7,,,,,,,,,,,,,,,,,,,AMNE08.jpg,AMNE20.jpg,AMSA17.jpg,AMSA20.jpg,AMNE20.jpg,MN,1,num_6,16,num_6,0.750095500087,,,2017_Jun_12_1532,59.9971327229,FEMA4ImagesEEG,001,200446,
AFNE01.JPG,AFNE01.JPG,AFNE01.JPG,AFNE01.JPG,AFNE01.JPG,AFNE01.JPG,,,,,5,0,50,1,,,,,,,,,,,,,,,,,,,AMSA09.jpg,AMNE03.jpg,AMNE09.jpg,AMSA08.jpg,AMSA08.jpg,MS,2,num_4,16,num_4,0.700082012976,,,2017_Jun_12_1532,59.9971327229,FEMA4ImagesEEG,001,200446,
AFNE01.JPG,AFNE01.JPG,AFNE01.JPG,AFNE01.JPG,AFNE01.JPG,AFNE01.JPG,,,,,5,1,51,4,,,,,,,,,,,,,,,,,,,AMNE03.jpg,AMSA15.jpg,AMSA18.jpg,AMNE18.jpg,AMNE18.jpg,MN,1,num_4,32,num_8,1.01673359954,,,2017_Jun_12_1532,59.9971327229,FEMA4ImagesEEG,001,200446,
AFNE01.JPG,AFNE01.JPG,AFNE01.JPG,AFNE01.JPG,AFNE01.JPG,AFNE01.JPG,,,,,5,2,52,9,,,,,,,,,,,,,,,,,,,AMNE08.jpg,AMNE10.jpg,AMSA12.jpg,AMSA14.jpg,AMNE10.jpg,MN,1,num_6,16,num_6,0.633524483128,,,2017_Jun_12_1532,59.9971327229,FEMA4ImagesEEG,001,200446,
AFNE01.JPG,AFNE01.JPG,AFNE01.JPG,AFNE01.JPG,AFNE01.JPG,AFNE01.JPG,,,,,5,3,53,5,,,,,,,,,,,,,,,,,,,AMNE06.jpg,AMNE15.jpg,AMSA20.jpg,AMSA17.jpg,AMSA17.jpg,MS,2,num_4,16,num_4,1.53334162978,,,2017_Jun_12_1532,59.9971327229,FEMA4ImagesEEG,001,200446,
AFNE01.JPG,AFNE01.JPG,AFNE01.JPG,AFNE01.JPG,AFNE01.JPG,AFNE01.JPG,,,,,5,4,54,7,,,,,,,,,,,,,,,,,,,AMNE20.jpg,AMSA04.jpg,AMNE12.jpg,AMSA14.jpg,AMSA14.jpg,MS,2,num_4,16,num_4,0.833442758769,,,2017_Jun_12_1532,59.9971327229,FEMA4ImagesEEG,001,200446,
AFNE01.JPG,AFNE01.JPG,AFNE01.JPG,AFNE01.JPG,AFNE01.JPG,AFNE01.JPG,,,,,5,5,55,2,,,,,,,,,,,,,,,,,,,AMNE18.jpg,AMSA07.jpg,AMNE19.jpg,AMSA02.jpg,AMNE18.jpg,MN,1,num_8,16,num_8,0.766771045863,,,2017_Jun_12_1532,59.9971327229,FEMA4ImagesEEG,001,200446,
AFNE01.JPG,AFNE01.JPG,AFNE01.JPG,AFNE01.JPG,AFNE01.JPG,AFNE01.JPG,,,,,5,6,56,6,,,,,,,,,,,,,,,,,,,AMNE12.jpg,AMNE20.jpg,AMSA14.jpg,AMSA16.jpg,AMNE20.jpg,MN,1,num_6,16,num_6,0.783454930817,,,2017_Jun_12_1532,59.9971327229,FEMA4ImagesEEG,001,200446,
AFNE01.JPG,AFNE01.JPG,AFNE01.JPG,AFNE01.JPG,AFNE01.JPG,AFNE01.JPG,,,,,5,7,57,0,,,,,,,,,,,,,,,,,,,AMSA08.jpg,AMNE15.jpg,AMNE14.jpg,AMSA11.jpg,AMNE15.jpg,MN,1,num_6,32,num_4,0.650169237982,,,2017_Jun_12_1532,59.9971327229,FEMA4ImagesEEG,001,200446,
AFNE01.JPG,AFNE01.JPG,AFNE01.JPG,AFNE01.JPG,AFNE01.JPG,AFNE01.JPG,,,,,5,8,58,8,,,,,,,,,,,,,,,,,,,AMNE19.jpg,AMNE05.jpg,AMSA11.jpg,AMSA08.jpg,AMSA11.jpg,MS,2,num_2,16,num_2,0.833589657326,,,2017_Jun_12_1532,59.9971327229,FEMA4ImagesEEG,001,200446,
AFNE01.JPG,AFNE01.JPG,AFNE01.JPG,AFNE01.JPG,AFNE01.JPG,AFNE01.JPG,,,,,5,9,59,3,,,,,,,,,,,,,,,,,,,AMNE04.jpg,AMNE10.jpg,AMSA10.jpg,AMSA16.jpg,AMNE10.jpg,MN,1,num_6,16,num_6,0.650162181701,,,2017_Jun_12_1532,59.9971327229,FEMA4ImagesEEG,001,200446,
,,,,,,,,,,,,,,,,,,,,,,,,,,,,,,,,,,,,,,,,,,,space,5.93311595777,2017_Jun_12_1532,59.9971327229,FEMA4ImagesEEG,001,200446,
AFNE01.JPG,AFNE01.JPG,AFNE01.JPG,AFNE01.JPG,AFNE01.JPG,AFNE01.JPG,,,,,,,,,0,0,0,6,,,,,,,,,,,,,,,AFSA17.jpg,AFNE08.jpg,AFNE14.jpg,AFSA20.jpg,AFSA17.jpg,FS,4,num_8,32,num_4,1.05018636544,,,2017_Jun_12_1532,59.9971327229,FEMA4ImagesEEG,001,200446,
AFNE01.JPG,AFNE01.JPG,AFNE01.JPG,AFNE01.JPG,AFNE01.JPG,AFNE01.JPG,,,,,,,,,0,1,1,8,,,,,,,,,,,,,,,AFSA12.jpg,AFNE20.jpg,AFNE12.jpg,AFSA04.jpg,AFSA04.jpg,FS,4,num_4,16,num_4,0.516812340997,,,2017_Jun_12_1532,59.9971327229,FEMA4ImagesEEG,001,200446,
AFNE01.JPG,AFNE01.JPG,AFNE01.JPG,AFNE01.JPG,AFNE01.JPG,AFNE01.JPG,,,,,,,,,0,2,2,4,,,,,,,,,,,,,,,AFNE04.jpg,AFSA17.jpg,AFNE02.jpg,AFSA19.jpg,AFNE02.jpg,FN,3,num_2,16,num_2,0.900229296356,,,2017_Jun_12_1532,59.9971327229,FEMA4ImagesEEG,001,200446,
AFNE01.JPG,AFNE01.JPG,AFNE01.JPG,AFNE01.JPG,AFNE01.JPG,AFNE01.JPG,,,,,,,,,0,3,3,7,,,,,,,,,,,,,,,AFNE13.jpg,AFSA06.jpg,AFNE02.jpg,AFSA01.jpg,AFSA01.jpg,FS,4,num_4,16,num_4,0.550131358672,,,2017_Jun_12_1532,59.9971327229,FEMA4ImagesEEG,001,200446,
AFNE01.JPG,AFNE01.JPG,AFNE01.JPG,AFNE01.JPG,AFNE01.JPG,AFNE01.JPG,,,,,,,,,0,4,4,1,,,,,,,,,,,,,,,AFSA16.jpg,AFNE17.jpg,AFSA09.jpg,AFNE02.jpg,AFSA09.jpg,FS,4,num_2,32,num_8,0.800132401113,,,2017_Jun_12_1532,59.9971327229,FEMA4ImagesEEG,001,200446,
AFNE01.JPG,AFNE01.JPG,AFNE01.JPG,AFNE01.JPG,AFNE01.JPG,AFNE01.JPG,,,,,,,,,0,5,5,5,,,,,,,,,,,,,,,AFNE14.jpg,AFSA20.jpg,AFSA07.jpg,AFNE13.jpg,AFSA20.jpg,FS,4,num_6,16,num_6,0.550182676932,,,2017_Jun_12_1532,59.9971327229,FEMA4ImagesEEG,001,200446,
AFNE01.JPG,AFNE01.JPG,AFNE01.JPG,AFNE01.JPG,AFNE01.JPG,AFNE01.JPG,,,,,,,,,0,6,6,2,,,,,,,,,,,,,,,AFSA07.jpg,AFNE12.jpg,AFNE15.jpg,AFSA13.jpg,AFSA13.jpg,FS,4,num_4,16,num_4,0.566757510649,,,2017_Jun_12_1532,59.9971327229,FEMA4ImagesEEG,001,200446,
AFNE01.JPG,AFNE01.JPG,AFNE01.JPG,AFNE01.JPG,AFNE01.JPG,AFNE01.JPG,,,,,,,,,0,7,7,3,,,,,,,,,,,,,,,AFSA19.jpg,AFSA12.jpg,AFNE12.jpg,AFNE16.jpg,AFSA12.jpg,FS,4,num_6,16,num_6,0.666807257279,,,2017_Jun_12_1532,59.9971327229,FEMA4ImagesEEG,001,200446,
AFNE01.JPG,AFNE01.JPG,AFNE01.JPG,AFNE01.JPG,AFNE01.JPG,AFNE01.JPG,,,,,,,,,0,8,8,0,,,,,,,,,,,,,,,AFNE03.jpg,AFSA06.jpg,AFNE16.jpg,AFSA01.jpg,AFSA01.jpg,FS,4,num_4,16,num_4,1.18345473846,,,2017_Jun_12_1532,59.9971327229,FEMA4ImagesEEG,001,200446,
AFNE01.JPG,AFNE01.JPG,AFNE01.JPG,AFNE01.JPG,AFNE01.JPG,AFNE01.JPG,,,,,,,,,0,9,9,9,,,,,,,,,,,,,,,AFNE04.jpg,AFSA03.jpg,AFNE02.jpg,AFSA08.jpg,AFNE04.jpg,FN,3,num_8,16,num_8,0.68345169141,,,2017_Jun_12_1532,59.9971327229,FEMA4ImagesEEG,001,200446,
AFNE01.JPG,AFNE01.JPG,AFNE01.JPG,AFNE01.JPG,AFNE01.JPG,AFNE01.JPG,,,,,,,,,1,0,10,5,,,,,,,,,,,,,,,AFNE13.jpg,AFNE18.jpg,AFSA15.jpg,AFSA18.jpg,AFSA18.jpg,FS,4,num_4,32,num_2,0.966728130996,,,2017_Jun_12_1532,59.9971327229,FEMA4ImagesEEG,001,200446,
AFNE01.JPG,AFNE01.JPG,AFNE01.JPG,AFNE01.JPG,AFNE01.JPG,AFNE01.JPG,,,,,,,,,1,1,11,2,,,,,,,,,,,,,,,AFNE05.jpg,AFNE19.jpg,AFSA17.jpg,AFSA12.jpg,AFSA17.jpg,FS,4,num_2,16,num_2,0.650173728354,,,2017_Jun_12_1532,59.9971327229,FEMA4ImagesEEG,001,200446,
AFNE01.JPG,AFNE01.JPG,AFNE01.JPG,AFNE01.JPG,AFNE01.JPG,AFNE01.JPG,,,,,,,,,1,2,12,9,,,,,,,,,,,,,,,AFNE20.jpg,AFSA04.jpg,AFNE14.jpg,AFSA10.jpg,AFSA10.jpg,FS,4,num_4,32,num_6,1.20011232281,,,2017_Jun_12_1532,59.9971327229,FEMA4ImagesEEG,001,200446,
AFNE01.JPG,AFNE01.JPG,AFNE01.JPG,AFNE01.JPG,AFNE01.JPG,AFNE01.JPG,,,,,,,,,1,3,13,8,,,,,,,,,,,,,,,AFSA12.jpg,AFNE13.jpg,AFNE11.jpg,AFSA05.jpg,AFSA12.jpg,FS,4,num_8,16,num_8,0.816548468953,,,2017_Jun_12_1532,59.9971327229,FEMA4ImagesEEG,001,200446,
AFNE01.JPG,AFNE01.JPG,AFNE01.JPG,AFNE01.JPG,AFNE01.JPG,AFNE01.JPG,,,,,,,,,1,4,14,7,,,,,,,,,,,,,,,AFSA04.jpg,AFNE11.jpg,AFNE17.jpg,AFSA10.jpg,AFSA04.jpg,FS,4,num_8,16,num_8,1.06674740737,,,2017_Jun_12_1532,59.9971327229,FEMA4ImagesEEG,001,200446,
AFNE01.JPG,AFNE01.JPG,AFNE01.JPG,AFNE01.JPG,AFNE01.JPG,AFNE01.JPG,,,,,,,,,1,5,15,4,,,,,,,,,,,,,,,AFSA19.jpg,AFSA14.jpg,AFNE19.jpg,AFNE10.jpg,AFNE10.jpg,FN,3,num_4,16,num_4,0.733617850288,,,2017_Jun_12_1532,59.9971327229,FEMA4ImagesEEG,001,200446,
AFNE01.JPG,AFNE01.JPG,AFNE01.JPG,AFNE01.JPG,AFNE01.JPG,AFNE01.JPG,,,,,,,,,1,6,16,3,,,,,,,,,,,,,,,AFSA11.jpg,AFNE14.jpg,AFSA17.jpg,AFNE02.jpg,AFSA17.jpg,FS,4,num_2,16,num_2,0.766803761246,,,2017_Jun_12_1532,59.9971327229,FEMA4ImagesEEG,001,200446,
AFNE01.JPG,AFNE01.JPG,AFNE01.JPG,AFNE01.JPG,AFNE01.JPG,AFNE01.JPG,,,,,,,,,1,7,17,6,,,,,,,,,,,,,,,AFSA01.jpg,AFSA04.jpg,AFNE02.jpg,AFNE18.jpg,AFNE02.jpg,FN,3,num_2,16,num_2,1.26688378566,,,2017_Jun_12_1532,59.9971327229,FEMA4ImagesEEG,001,200446,
AFNE01.JPG,AFNE01.JPG,AFNE01.JPG,AFNE01.JPG,AFNE01.JPG,AFNE01.JPG,,,,,,,,,1,8,18,1,,,,,,,,,,,,,,,AFSA10.jpg,AFNE05.jpg,AFSA02.jpg,AFNE08.jpg,AFNE08.jpg,FN,3,num_4,32,num_8,0.733503346448,,,2017_Jun_12_1532,59.9971327229,FEMA4ImagesEEG,001,200446,
AFNE01.JPG,AFNE01.JPG,AFNE01.JPG,AFNE01.JPG,AFNE01.JPG,AFNE01.JPG,,,,,,,,,1,9,19,0,,,,,,,,,,,,,,,AFSA18.jpg,AFNE07.jpg,AFSA16.jpg,AFNE16.jpg,AFSA18.jpg,FS,4,num_8,32,num_2,1.10014244023,,,2017_Jun_12_1532,59.9971327229,FEMA4ImagesEEG,001,200446,
AFNE01.JPG,AFNE01.JPG,AFNE01.JPG,AFNE01.JPG,AFNE01.JPG,AFNE01.JPG,,,,,,,,,2,0,20,0,,,,,,,,,,,,,,,AFSA11.jpg,AFNE05.jpg,AFSA06.jpg,AFNE09.jpg,AFSA11.jpg,FS,4,num_8,16,num_8,0.683458106185,,,2017_Jun_12_1532,59.9971327229,FEMA4ImagesEEG,001,200446,
AFNE01.JPG,AFNE01.JPG,AFNE01.JPG,AFNE01.JPG,AFNE01.JPG,AFNE01.JPG,,,,,,,,,2,1,21,3,,,,,,,,,,,,,,,AFNE07.jpg,AFSA19.jpg,AFNE10.jpg,AFSA18.jpg,AFSA18.jpg,FS,4,num_4,16,num_4,1.11673748051,,,2017_Jun_12_1532,59.9971327229,FEMA4ImagesEEG,001,200446,
AFNE01.JPG,AFNE01.JPG,AFNE01.JPG,AFNE01.JPG,AFNE01.JPG,AFNE01.JPG,,,,,,,,,2,2,22,7,,,,,,,,,,,,,,,AFNE14.jpg,AFSA09.jpg,AFSA06.jpg,AFNE01.jpg,AFNE01.jpg,FN,3,num_4,16,num_4,0.66675529757,,,2017_Jun_12_1532,59.9971327229,FEMA4ImagesEEG,001,200446,
AFNE01.JPG,AFNE01.JPG,AFNE01.JPG,AFNE01.JPG,AFNE01.JPG,AFNE01.JPG,,,,,,,,,2,3,23,8,,,,,,,,,,,,,,,AFNE13.jpg,AFSA15.jpg,AFNE20.jpg,AFSA14.jpg,AFSA14.jpg,FS,4,num_4,32,num_8,0.933515598706,,,2017_Jun_12_1532,59.9971327229,FEMA4ImagesEEG,001,200446,
AFNE01.JPG,AFNE01.JPG,AFNE01.JPG,AFNE01.JPG,AFNE01.JPG,AFNE01.JPG,,,,,,,,,2,4,24,5,,,,,,,,,,,,,,,AFNE19.jpg,AFNE12.jpg,AFSA01.jpg,AFSA05.jpg,AFNE12.jpg,FN,3,num_6,16,num_6,1.01670922339,,,2017_Jun_12_1532,59.9971327229,FEMA4ImagesEEG,001,200446,
AFNE01.JPG,AFNE01.JPG,AFNE01.JPG,AFNE01.JPG,AFNE01.JPG,AFNE01.JPG,,,,,,,,,2,5,25,6,,,,,,,,,,,,,,,AFNE19.jpg,AFSA15.jpg,AFSA14.jpg,AFNE05.jpg,AFSA15.jpg,FS,4,num_6,16,num_6,0.500145455124,,,2017_Jun_12_1532,59.9971327229,FEMA4ImagesEEG,001,200446,
AFNE01.JPG,AFNE01.JPG,AFNE01.JPG,AFNE01.JPG,AFNE01.JPG,AFNE01.JPG,,,,,,,,,2,6,26,2,,,,,,,,,,,,,,,AFSA15.jpg,AFSA09.jpg,AFNE04.jpg,AFNE10.jpg,AFSA09.jpg,FS,4,num_6,16,num_6,0.500118833792,,,2017_Jun_12_1532,59.9971327229,FEMA4ImagesEEG,001,200446,
AFNE01.JPG,AFNE01.JPG,AFNE01.JPG,AFNE01.JPG,AFNE01.JPG,AFNE01.JPG,,,,,,,,,2,7,27,4,,,,,,,,,,,,,,,AFNE19.jpg,AFNE18.jpg,AFSA13.jpg,AFSA09.jpg,AFNE18.jpg,FN,3,num_6,32,num_8,0.733542476606,,,2017_Jun_12_1532,59.9971327229,FEMA4ImagesEEG,001,200446,
AFNE01.JPG,AFNE01.JPG,AFNE01.JPG,AFNE01.JPG,AFNE01.JPG,AFNE01.JPG,,,,,,,,,2,8,28,1,,,,,,,,,,,,,,,AFSA20.jpg,AFNE15.jpg,AFSA03.jpg,AFNE11.jpg,AFSA03.jpg,FS,4,num_2,32,num_8,0.866769474233,,,2017_Jun_12_1532,59.9971327229,FEMA4ImagesEEG,001,200446,
AFNE01.JPG,AFNE01.JPG,AFNE01.JPG,AFNE01.JPG,AFNE01.JPG,AFNE01.JPG,,,,,,,,,2,9,29,9,,,,,,,,,,,,,,,AFNE03.jpg,AFNE12.jpg,AFSA03.jpg,AFSA06.jpg,AFNE12.jpg,FN,3,num_6,16,num_6,0.633468353772,,,2017_Jun_12_1532,59.9971327229,FEMA4ImagesEEG,001,200446,
AFNE01.JPG,AFNE01.JPG,AFNE01.JPG,AFNE01.JPG,AFNE01.JPG,AFNE01.JPG,,,,,,,,,3,0,30,1,,,,,,,,,,,,,,,AFNE10.jpg,AFNE09.jpg,AFSA20.jpg,AFSA11.jpg,AFSA11.jpg,FS,4,num_4,16,num_4,0.56680465932,,,2017_Jun_12_1532,59.9971327229,FEMA4ImagesEEG,001,200446,
AFNE01.JPG,AFNE01.JPG,AFNE01.JPG,AFNE01.JPG,AFNE01.JPG,AFNE01.JPG,,,,,,,,,3,1,31,0,,,,,,,,,,,,,,,AFNE13.jpg,AFNE08.jpg,AFSA04.jpg,AFSA17.jpg,AFSA04.jpg,FS,4,num_2,32,num_8,0.700127237185,,,2017_Jun_12_1532,59.9971327229,FEMA4ImagesEEG,001,200446,
AFNE01.JPG,AFNE01.JPG,AFNE01.JPG,AFNE01.JPG,AFNE01.JPG,AFNE01.JPG,,,,,,,,,3,2,32,7,,,,,,,,,,,,,,,AFSA17.jpg,AFNE16.jpg,AFSA10.jpg,AFNE19.jpg,AFNE16.jpg,FN,3,num_6,16,num_6,0.550142584601,,,2017_Jun_12_1532,59.9971327229,FEMA4ImagesEEG,001,200446,
AFNE01.JPG,AFNE01.JPG,AFNE01.JPG,AFNE01.JPG,AFNE01.JPG,AFNE01.JPG,,,,,,,,,3,3,33,5,,,,,,,,,,,,,,,AFNE14.jpg,AFSA16.jpg,AFSA01.jpg,AFNE07.jpg,AFSA16.jpg,FS,4,num_6,16,num_6,1.06677082134,,,2017_Jun_12_1532,59.9971327229,FEMA4ImagesEEG,001,200446,
AFNE01.JPG,AFNE01.JPG,AFNE01.JPG,AFNE01.JPG,AFNE01.JPG,AFNE01.JPG,,,,,,,,,3,4,34,2,,,,,,,,,,,,,,,AFSA10.jpg,AFNE12.jpg,AFSA03.jpg,AFNE05.jpg,AFNE05.jpg,FN,3,num_4,16,num_4,0.650118561229,,,2017_Jun_12_1532,59.9971327229,FEMA4ImagesEEG,001,200446,
AFNE01.JPG,AFNE01.JPG,AFNE01.JPG,AFNE01.JPG,AFNE01.JPG,AFNE01.JPG,,,,,,,,,3,5,35,8,,,,,,,,,,,,,,,AFNE01.jpg,AFSA18.jpg,AFSA15.jpg,AFNE14.jpg,AFNE01.jpg,FN,3,num_8,16,num_8,0.666802446241,,,2017_Jun_12_1532,59.9971327229,FEMA4ImagesEEG,001,200446,
AFNE01.JPG,AFNE01.JPG,AFNE01.JPG,AFNE01.JPG,AFNE01.JPG,AFNE01.JPG,,,,,,,,,3,6,36,3,,,,,,,,,,,,,,,AFSA07.jpg,AFNE06.jpg,AFSA15.jpg,AFNE18.jpg,AFSA07.jpg,FS,4,num_8,32,num_4,1.18313047121,,,2017_Jun_12_1532,59.9971327229,FEMA4ImagesEEG,001,200446,
AFNE01.JPG,AFNE01.JPG,AFNE01.JPG,AFNE01.JPG,AFNE01.JPG,AFNE01.JPG,,,,,,,,,3,7,37,9,,,,,,,,,,,,,,,AFSA08.jpg,AFNE01.jpg,AFNE14.jpg,AFSA19.jpg,AFNE14.jpg,FN,3,num_2,16,num_2,0.616803071636,,,2017_Jun_12_1532,59.9971327229,FEMA4ImagesEEG,001,200446,
AFNE01.JPG,AFNE01.JPG,AFNE01.JPG,AFNE01.JPG,AFNE01.JPG,AFNE01.JPG,,,,,,,,,3,8,38,6,,,,,,,,,,,,,,,AFSA16.jpg,AFNE19.jpg,AFSA20.jpg,AFNE16.jpg,AFNE19.jpg,FN,3,num_6,16,num_6,0.833443400275,,,2017_Jun_12_1532,59.9971327229,FEMA4ImagesEEG,001,200446,
AFNE01.JPG,AFNE01.JPG,AFNE01.JPG,AFNE01.JPG,AFNE01.JPG,AFNE01.JPG,,,,,,,,,3,9,39,4,,,,,,,,,,,,,,,AFNE18.jpg,AFNE14.jpg,AFSA20.jpg,AFSA17.jpg,AFNE14.jpg,FN,3,num_6,32,num_8,0.783461345651,,,2017_Jun_12_1532,59.9971327229,FEMA4ImagesEEG,001,200446,
AFNE01.JPG,AFNE01.JPG,AFNE01.JPG,AFNE01.JPG,AFNE01.JPG,AFNE01.JPG,,,,,,,,,4,0,40,1,,,,,,,,,,,,,,,AFSA06.jpg,AFNE13.jpg,AFSA19.jpg,AFNE04.jpg,AFSA19.jpg,FS,4,num_2,32,num_8,1.43342370697,,,2017_Jun_12_1532,59.9971327229,FEMA4ImagesEEG,001,200446,
AFNE01.JPG,AFNE01.JPG,AFNE01.JPG,AFNE01.JPG,AFNE01.JPG,AFNE01.JPG,,,,,,,,,4,1,41,2,,,,,,,,,,,,,,,AFNE15.jpg,AFNE18.jpg,AFSA05.jpg,AFSA20.jpg,AFSA05.jpg,FS,4,num_2,32,num_4,0.91677654651,,,2017_Jun_12_1532,59.9971327229,FEMA4ImagesEEG,001,200446,
AFNE01.JPG,AFNE01.JPG,AFNE01.JPG,AFNE01.JPG,AFNE01.JPG,AFNE01.JPG,,,,,,,,,4,2,42,6,,,,,,,,,,,,,,,AFNE16.jpg,AFSA04.jpg,AFSA14.jpg,AFNE11.jpg,AFNE11.jpg,FN,3,num_4,16,num_4,0.833458154288,,,2017_Jun_12_1532,59.9971327229,FEMA4ImagesEEG,001,200446,
AFNE01.JPG,AFNE01.JPG,AFNE01.JPG,AFNE01.JPG,AFNE01.JPG,AFNE01.JPG,,,,,,,,,4,3,43,7,,,,,,,,,,,,,,,AFSA05.jpg,AFNE02.jpg,AFNE19.jpg,AFSA11.jpg,AFNE02.jpg,FN,3,num_6,32,num_8,0.816793192877,,,2017_Jun_12_1532,59.9971327229,FEMA4ImagesEEG,001,200446,
AFNE01.JPG,AFNE01.JPG,AFNE01.JPG,AFNE01.JPG,AFNE01.JPG,AFNE01.JPG,,,,,,,,,4,4,44,5,,,,,,,,,,,,,,,AFSA14.jpg,AFSA15.jpg,AFNE10.jpg,AFNE06.jpg,AFNE10.jpg,FN,3,num_2,16,num_2,0.800143947708,,,2017_Jun_12_1532,59.9971327229,FEMA4ImagesEEG,001,200446,
AFNE01.JPG,AFNE01.JPG,AFNE01.JPG,AFNE01.JPG,AFNE01.JPG,AFNE01.JPG,,,,,,,,,4,5,45,3,,,,,,,,,,,,,,,AFSA05.jpg,AFSA13.jpg,AFNE11.jpg,AFNE09.jpg,AFNE09.jpg,FN,3,num_4,32,num_2,1.03343737038,,,2017_Jun_12_1532,59.9971327229,FEMA4ImagesEEG,001,200446,
AFNE01.JPG,AFNE01.JPG,AFNE01.JPG,AFNE01.JPG,AFNE01.JPG,AFNE01.JPG,,,,,,,,,4,6,46,8,,,,,,,,,,,,,,,AFSA05.jpg,AFNE03.jpg,AFNE07.jpg,AFSA11.jpg,AFNE07.jpg,FN,3,num_2,16,num_2,0.833404911566,,,2017_Jun_12_1532,59.9971327229,FEMA4ImagesEEG,001,200446,
AFNE01.JPG,AFNE01.JPG,AFNE01.JPG,AFNE01.JPG,AFNE01.JPG,AFNE01.JPG,,,,,,,,,4,7,47,4,,,,,,,,,,,,,,,AFNE18.jpg,AFSA18.jpg,AFNE13.jpg,AFSA07.jpg,AFSA18.jpg,FS,4,num_6,16,num_6,0.883403965388,,,2017_Jun_12_1532,59.9971327229,FEMA4ImagesEEG,001,200446,
AFNE01.JPG,AFNE01.JPG,AFNE01.JPG,AFNE01.JPG,AFNE01.JPG,AFNE01.JPG,,,,,,,,,4,8,48,9,,,,,,,,,,,,,,,AFNE20.jpg,AFSA19.jpg,AFNE04.jpg,AFSA18.jpg,AFNE04.jpg,FN,3,num_2,16,num_2,0.850159359223,,,2017_Jun_12_1532,59.9971327229,FEMA4ImagesEEG,001,200446,
AFNE01.JPG,AFNE01.JPG,AFNE01.JPG,AFNE01.JPG,AFNE01.JPG,AFNE01.JPG,,,,,,,,,4,9,49,0,,,,,,,,,,,,,,,AFSA15.jpg,AFSA10.jpg,AFNE02.jpg,AFNE08.jpg,AFSA15.jpg,FS,4,num_8,16,num_8,0.566770981706,,,2017_Jun_12_1532,59.9971327229,FEMA4ImagesEEG,001,200446,
AFNE01.JPG,AFNE01.JPG,AFNE01.JPG,AFNE01.JPG,AFNE01.JPG,AFNE01.JPG,,,,,,,,,5,0,50,1,,,,,,,,,,,,,,,AFNE18.jpg,AFSA13.jpg,AFNE12.jpg,AFSA01.jpg,AFSA01.jpg,FS,4,num_4,32,num_6,1.28348427848,,,2017_Jun_12_1532,59.9971327229,FEMA4ImagesEEG,001,200446,
AFNE01.JPG,AFNE01.JPG,AFNE01.JPG,AFNE01.JPG,AFNE01.JPG,AFNE01.JPG,,,,,,,,,5,1,51,4,,,,,,,,,,,,,,,AFSA03.jpg,AFNE14.jpg,AFSA02.jpg,AFNE08.jpg,AFNE14.jpg,FN,3,num_6,32,num_4,0.950117695204,,,2017_Jun_12_1532,59.9971327229,FEMA4ImagesEEG,001,200446,
AFNE01.JPG,AFNE01.JPG,AFNE01.JPG,AFNE01.JPG,AFNE01.JPG,AFNE01.JPG,,,,,,,,,5,2,52,6,,,,,,,,,,,,,,,AFNE17.jpg,AFSA11.jpg,AFNE10.jpg,AFSA13.jpg,AFNE10.jpg,FN,3,num_2,16,num_2,0.516741778411,,,2017_Jun_12_1532,59.9971327229,FEMA4ImagesEEG,001,200446,
AFNE01.JPG,AFNE01.JPG,AFNE01.JPG,AFNE01.JPG,AFNE01.JPG,AFNE01.JPG,,,,,,,,,5,3,53,5,,,,,,,,,,,,,,,AFNE04.jpg,AFSA16.jpg,AFNE13.jpg,AFSA06.jpg,AFNE04.jpg,FN,3,num_8,16,num_8,0.83342255227,,,2017_Jun_12_1532,59.9971327229,FEMA4ImagesEEG,001,200446,
AFNE01.JPG,AFNE01.JPG,AFNE01.JPG,AFNE01.JPG,AFNE01.JPG,AFNE01.JPG,,,,,,,,,5,4,54,8,,,,,,,,,,,,,,,AFSA06.jpg,AFNE05.jpg,AFNE20.jpg,AFSA09.jpg,AFNE20.jpg,FN,3,num_2,16,num_2,0.73344016081,,,2017_Jun_12_1532,59.9971327229,FEMA4ImagesEEG,001,200446,
AFNE01.JPG,AFNE01.JPG,AFNE01.JPG,AFNE01.JPG,AFNE01.JPG,AFNE01.JPG,,,,,,,,,5,5,55,2,,,,,,,,,,,,,,,AFSA06.jpg,AFNE04.jpg,AFNE18.jpg,AFSA13.jpg,AFNE04.jpg,FN,3,num_6,32,num_2,1.00010840985,,,2017_Jun_12_1532,59.9971327229,FEMA4ImagesEEG,001,200446,
AFNE01.JPG,AFNE01.JPG,AFNE01.JPG,AFNE01.JPG,AFNE01.JPG,AFNE01.JPG,,,,,,,,,5,6,56,7,,,,,,,,,,,,,,,AFSA05.jpg,AFSA15.jpg,AFNE19.jpg,AFNE16.jpg,AFSA05.jpg,FS,4,num_8,16,num_8,0.816721988842,,,2017_Jun_12_1532,59.9971327229,FEMA4ImagesEEG,001,200446,
AFNE01.JPG,AFNE01.JPG,AFNE01.JPG,AFNE01.JPG,AFNE01.JPG,AFNE01.JPG,,,,,,,,,5,7,57,9,,,,,,,,,,,,,,,AFSA20.jpg,AFSA09.jpg,AFNE13.jpg,AFNE03.jpg,AFNE03.jpg,FN,3,num_4,16,num_4,0.566778679495,,,2017_Jun_12_1532,59.9971327229,FEMA4ImagesEEG,001,200446,
AFNE01.JPG,AFNE01.JPG,AFNE01.JPG,AFNE01.JPG,AFNE01.JPG,AFNE01.JPG,,,,,,,,,5,8,58,3,,,,,,,,,,,,,,,AFSA04.jpg,AFNE13.jpg,AFSA03.jpg,AFNE08.jpg,AFSA04.jpg,FS,4,num_8,32,num_2,1.38347757509,,,2017_Jun_12_1532,59.9971327229,FEMA4ImagesEEG,001,200446,
AFNE01.JPG,AFNE01.JPG,AFNE01.JPG,AFNE01.JPG,AFNE01.JPG,AFNE01.JPG,,,,,,,,,5,9,59,0,,,,,,,,,,,,,,,AFNE01.jpg,AFSA01.jpg,AFSA07.jpg,AFNE19.jpg,AFNE01.jpg,FN,3,num_8,32,num_2,0.833452060295,,,2017_Jun_12_1532,59.9971327229,FEMA4ImagesEEG,001,200446,
,,,,,,,,,,,,,,,,,,,,,,,,,,,,,,,,,,,,,,,,,,,space,77.2442918867,2017_Jun_12_1532,59.9971327229,FEMA4ImagesEEG,001,200446,
AFNE01.JPG,AFNE01.JPG,AFNE01.JPG,AFNE01.JPG,AFNE01.JPG,AFNE01.JPG,,,,,,,,,,,,,0,0,0,5,,,,,,,,,,,AMSA11.jpg,AMNE19.jpg,AMNE17.jpg,AMSA03.jpg,AMNE17.jpg,MN,1,num_2,16,num_2,0.850449948863,,,2017_Jun_12_1532,59.9971327229,FEMA4ImagesEEG,001,200446,
AFNE01.JPG,AFNE01.JPG,AFNE01.JPG,AFNE01.JPG,AFNE01.JPG,AFNE01.JPG,,,,,,,,,,,,,0,1,1,0,,,,,,,,,,,AMSA02.jpg,AMSA05.jpg,AMNE08.jpg,AMNE04.jpg,AMNE04.jpg,MN,1,num_4,32,num_2,0.933453696023,,,2017_Jun_12_1532,59.9971327229,FEMA4ImagesEEG,001,200446,
AFNE01.JPG,AFNE01.JPG,AFNE01.JPG,AFNE01.JPG,AFNE01.JPG,AFNE01.JPG,,,,,,,,,,,,,0,2,2,6,,,,,,,,,,,AMNE11.jpg,AMSA05.jpg,AMSA10.jpg,AMNE14.jpg,AMNE11.jpg,MN,1,num_8,32,num_2,0.90011350956,,,2017_Jun_12_1532,59.9971327229,FEMA4ImagesEEG,001,200446,
AFNE01.JPG,AFNE01.JPG,AFNE01.JPG,AFNE01.JPG,AFNE01.JPG,AFNE01.JPG,,,,,,,,,,,,,0,3,3,7,,,,,,,,,,,AMNE18.jpg,AMNE19.jpg,AMSA10.jpg,AMSA12.jpg,AMSA12.jpg,MS,2,num_4,16,num_4,0.700017865165,,,2017_Jun_12_1532,59.9971327229,FEMA4ImagesEEG,001,200446,
AFNE01.JPG,AFNE01.JPG,AFNE01.JPG,AFNE01.JPG,AFNE01.JPG,AFNE01.JPG,,,,,,,,,,,,,0,4,4,3,,,,,,,,,,,AMSA14.jpg,AMNE16.jpg,AMNE17.jpg,AMSA08.jpg,AMNE17.jpg,MN,1,num_2,16,num_2,0.950054188899,,,2017_Jun_12_1532,59.9971327229,FEMA4ImagesEEG,001,200446,
AFNE01.JPG,AFNE01.JPG,AFNE01.JPG,AFNE01.JPG,AFNE01.JPG,AFNE01.JPG,,,,,,,,,,,,,0,5,5,8,,,,,,,,,,,AMNE14.jpg,AMNE03.jpg,AMSA09.jpg,AMSA06.jpg,AMNE03.jpg,MN,1,num_6,16,num_6,0.917001384601,,,2017_Jun_12_1532,59.9971327229,FEMA4ImagesEEG,001,200446,
AFNE01.JPG,AFNE01.JPG,AFNE01.JPG,AFNE01.JPG,AFNE01.JPG,AFNE01.JPG,,,,,,,,,,,,,0,6,6,2,,,,,,,,,,,AMSA17.jpg,AMSA13.jpg,AMNE06.jpg,AMNE11.jpg,AMNE06.jpg,MN,1,num_2,16,num_2,0.833442438103,,,2017_Jun_12_1532,59.9971327229,FEMA4ImagesEEG,001,200446,
AFNE01.JPG,AFNE01.JPG,AFNE01.JPG,AFNE01.JPG,AFNE01.JPG,AFNE01.JPG,,,,,,,,,,,,,0,7,7,1,,,,,,,,,,,AMSA07.jpg,AMNE15.jpg,AMNE11.jpg,AMSA09.jpg,AMSA09.jpg,MS,2,num_4,16,num_4,0.766750197799,,,2017_Jun_12_1532,59.9971327229,FEMA4ImagesEEG,001,200446,
AFNE01.JPG,AFNE01.JPG,AFNE01.JPG,AFNE01.JPG,AFNE01.JPG,AFNE01.JPG,,,,,,,,,,,,,0,8,8,9,,,,,,,,,,,AMNE13.jpg,AMNE10.jpg,AMSA15.jpg,AMSA09.jpg,AMNE13.jpg,MN,1,num_8,16,num_8,0.566756227694,,,2017_Jun_12_1532,59.9971327229,FEMA4ImagesEEG,001,200446,
AFNE01.JPG,AFNE01.JPG,AFNE01.JPG,AFNE01.JPG,AFNE01.JPG,AFNE01.JPG,,,,,,,,,,,,,0,9,9,4,,,,,,,,,,,AMSA10.jpg,AMNE09.jpg,AMNE04.jpg,AMSA17.jpg,AMSA10.jpg,MS,2,num_8,32,num_4,1.01660722838,,,2017_Jun_12_1532,59.9971327229,FEMA4ImagesEEG,001,200446,
AFNE01.JPG,AFNE01.JPG,AFNE01.JPG,AFNE01.JPG,AFNE01.JPG,AFNE01.JPG,,,,,,,,,,,,,1,0,10,6,,,,,,,,,,,AMSA09.jpg,AMNE18.jpg,AMSA15.jpg,AMNE09.jpg,AMNE09.jpg,MN,1,num_4,16,num_4,0.73344016081,,,2017_Jun_12_1532,59.9971327229,FEMA4ImagesEEG,001,200446,
AFNE01.JPG,AFNE01.JPG,AFNE01.JPG,AFNE01.JPG,AFNE01.JPG,AFNE01.JPG,,,,,,,,,,,,,1,1,11,4,,,,,,,,,,,AMSA19.jpg,AMSA16.jpg,AMNE12.jpg,AMNE19.jpg,AMSA19.jpg,MS,2,num_8,16,num_8,0.53348949051,,,2017_Jun_12_1532,59.9971327229,FEMA4ImagesEEG,001,200446,
AFNE01.JPG,AFNE01.JPG,AFNE01.JPG,AFNE01.JPG,AFNE01.JPG,AFNE01.JPG,,,,,,,,,,,,,1,2,12,0,,,,,,,,,,,AMSA15.jpg,AMNE07.jpg,AMSA18.jpg,AMNE08.jpg,AMSA15.jpg,MS,2,num_8,32,num_2,0.750130460598,,,2017_Jun_12_1532,59.9971327229,FEMA4ImagesEEG,001,200446,
AFNE01.JPG,AFNE01.JPG,AFNE01.JPG,AFNE01.JPG,AFNE01.JPG,AFNE01.JPG,,,,,,,,,,,,,1,3,13,8,,,,,,,,,,,AMNE08.jpg,AMSA10.jpg,AMNE04.jpg,AMSA06.jpg,AMSA10.jpg,MS,2,num_6,32,num_4,0.500181698706,,,2017_Jun_12_1532,59.9971327229,FEMA4ImagesEEG,001,200446,
AFNE01.JPG,AFNE01.JPG,AFNE01.JPG,AFNE01.JPG,AFNE01.JPG,AFNE01.JPG,,,,,,,,,,,,,1,4,14,9,,,,,,,,,,,AMSA15.jpg,AMNE17.jpg,AMSA10.jpg,AMNE10.jpg,AMNE17.jpg,MN,1,num_6,16,num_6,0.733471593237,,,2017_Jun_12_1532,59.9971327229,FEMA4ImagesEEG,001,200446,
AFNE01.JPG,AFNE01.JPG,AFNE01.JPG,AFNE01.JPG,AFNE01.JPG,AFNE01.JPG,,,,,,,,,,,,,1,5,15,1,,,,,,,,,,,AMSA01.jpg,AMSA13.jpg,AMNE15.jpg,AMNE18.jpg,AMSA01.jpg,MS,2,num_8,16,num_8,0.450163079833,,,2017_Jun_12_1532,59.9971327229,FEMA4ImagesEEG,001,200446,
AFNE01.JPG,AFNE01.JPG,AFNE01.JPG,AFNE01.JPG,AFNE01.JPG,AFNE01.JPG,,,,,,,,,,,,,1,6,16,7,,,,,,,,,,,AMNE04.jpg,AMNE06.jpg,AMSA17.jpg,AMSA01.jpg,AMNE04.jpg,MN,1,num_8,16,num_8,0.700170216209,,,2017_Jun_12_1532,59.9971327229,FEMA4ImagesEEG,001,200446,
AFNE01.JPG,AFNE01.JPG,AFNE01.JPG,AFNE01.JPG,AFNE01.JPG,AFNE01.JPG,,,,,,,,,,,,,1,7,17,5,,,,,,,,,,,AMSA02.jpg,AMNE04.jpg,AMNE09.jpg,AMSA15.jpg,AMSA02.jpg,MS,2,num_8,16,num_8,0.566864316759,,,2017_Jun_12_1532,59.9971327229,FEMA4ImagesEEG,001,200446,
AFNE01.JPG,AFNE01.JPG,AFNE01.JPG,AFNE01.JPG,AFNE01.JPG,AFNE01.JPG,,,,,,,,,,,,,1,8,18,3,,,,,,,,,,,AMNE18.jpg,AMSA11.jpg,AMSA10.jpg,AMNE03.jpg,AMNE18.jpg,MN,1,num_8,32,num_2,0.716690203582,,,2017_Jun_12_1532,59.9971327229,FEMA4ImagesEEG,001,200446,
AFNE01.JPG,AFNE01.JPG,AFNE01.JPG,AFNE01.JPG,AFNE01.JPG,AFNE01.JPG,,,,,,,,,,,,,1,9,19,2,,,,,,,,,,,AMSA14.jpg,AMSA18.jpg,AMNE15.jpg,AMNE16.jpg,AMNE15.jpg,MN,1,num_2,16,num_2,0.550400779524,,,2017_Jun_12_1532,59.9971327229,FEMA4ImagesEEG,001,200446,
AFNE01.JPG,AFNE01.JPG,AFNE01.JPG,AFNE01.JPG,AFNE01.JPG,AFNE01.JPG,,,,,,,,,,,,,2,0,20,9,,,,,,,,,,,AMNE19.jpg,AMNE15.jpg,AMSA16.jpg,AMSA11.jpg,AMSA11.jpg,MS,2,num_4,16,num_4,0.500185226789,,,2017_Jun_12_1532,59.9971327229,FEMA4ImagesEEG,001,200446,
AFNE01.JPG,AFNE01.JPG,AFNE01.JPG,AFNE01.JPG,AFNE01.JPG,AFNE01.JPG,,,,,,,,,,,,,2,1,21,5,,,,,,,,,,,AMSA14.jpg,AMNE16.jpg,AMSA10.jpg,AMNE09.jpg,AMNE16.jpg,MN,1,num_6,32,num_4,0.966606570873,,,2017_Jun_12_1532,59.9971327229,FEMA4ImagesEEG,001,200446,
AFNE01.JPG,AFNE01.JPG,AFNE01.JPG,AFNE01.JPG,AFNE01.JPG,AFNE01.JPG,,,,,,,,,,,,,2,2,22,2,,,,,,,,,,,AMSA18.jpg,AMNE18.jpg,AMSA04.jpg,AMNE09.jpg,AMSA04.jpg,MS,2,num_2,16,num_2,0.916761151049,,,2017_Jun_12_1532,59.9971327229,FEMA4ImagesEEG,001,200446,
AFNE01.JPG,AFNE01.JPG,AFNE01.JPG,AFNE01.JPG,AFNE01.JPG,AFNE01.JPG,,,,,,,,,,,,,2,3,23,1,,,,,,,,,,,AMNE12.jpg,AMNE07.jpg,AMSA15.jpg,AMSA13.jpg,AMNE12.jpg,MN,1,num_8,32,num_6,0.83351909474,,,2017_Jun_12_1532,59.9971327229,FEMA4ImagesEEG,001,200446,
AFNE01.JPG,AFNE01.JPG,AFNE01.JPG,AFNE01.JPG,AFNE01.JPG,AFNE01.JPG,,,,,,,,,,,,,2,4,24,8,,,,,,,,,,,AMNE09.jpg,AMSA18.jpg,AMSA19.jpg,AMNE10.jpg,AMSA19.jpg,MS,2,num_2,32,num_6,0.85011028609,,,2017_Jun_12_1532,59.9971327229,FEMA4ImagesEEG,001,200446,
AFNE01.JPG,AFNE01.JPG,AFNE01.JPG,AFNE01.JPG,AFNE01.JPG,AFNE01.JPG,,,,,,,,,,,,,2,5,25,4,,,,,,,,,,,AMSA07.jpg,AMNE14.jpg,AMNE06.jpg,AMSA18.jpg,AMNE14.jpg,MN,1,num_6,32,num_4,0.816791589197,,,2017_Jun_12_1532,59.9971327229,FEMA4ImagesEEG,001,200446,
AFNE01.JPG,AFNE01.JPG,AFNE01.JPG,AFNE01.JPG,AFNE01.JPG,AFNE01.JPG,,,,,,,,,,,,,2,6,26,7,,,,,,,,,,,AMSA04.jpg,AMSA17.jpg,AMNE04.jpg,AMNE13.jpg,AMSA04.jpg,MS,2,num_8,16,num_8,0.516957956599,,,2017_Jun_12_1532,59.9971327229,FEMA4ImagesEEG,001,200446,
AFNE01.JPG,AFNE01.JPG,AFNE01.JPG,AFNE01.JPG,AFNE01.JPG,AFNE01.JPG,,,,,,,,,,,,,2,7,27,3,,,,,,,,,,,AMNE02.jpg,AMSA05.jpg,AMSA12.jpg,AMNE05.jpg,AMSA05.jpg,MS,2,num_6,32,num_2,0.683470935735,,,2017_Jun_12_1532,59.9971327229,FEMA4ImagesEEG,001,200446,
AFNE01.JPG,AFNE01.JPG,AFNE01.JPG,AFNE01.JPG,AFNE01.JPG,AFNE01.JPG,,,,,,,,,,,,,2,8,28,0,,,,,,,,,,,AMSA03.jpg,AMNE20.jpg,AMNE01.jpg,AMSA07.jpg,AMSA07.jpg,MS,2,num_4,32,num_6,0.800114439742,,,2017_Jun_12_1532,59.9971327229,FEMA4ImagesEEG,001,200446,
AFNE01.JPG,AFNE01.JPG,AFNE01.JPG,AFNE01.JPG,AFNE01.JPG,AFNE01.JPG,,,,,,,,,,,,,2,9,29,6,,,,,,,,,,,AMNE05.jpg,AMNE15.jpg,AMSA13.jpg,AMSA19.jpg,AMNE15.jpg,MN,1,num_6,16,num_6,0.60036166542,,,2017_Jun_12_1532,59.9971327229,FEMA4ImagesEEG,001,200446,
AFNE01.JPG,AFNE01.JPG,AFNE01.JPG,AFNE01.JPG,AFNE01.JPG,AFNE01.JPG,,,,,,,,,,,,,3,0,30,2,,,,,,,,,,,AMNE18.jpg,AMSA06.jpg,AMSA14.jpg,AMNE15.jpg,AMSA06.jpg,MS,2,num_6,32,num_4,0.666817200196,,,2017_Jun_12_1532,59.9971327229,FEMA4ImagesEEG,001,200446,
AFNE01.JPG,AFNE01.JPG,AFNE01.JPG,AFNE01.JPG,AFNE01.JPG,AFNE01.JPG,,,,,,,,,,,,,3,1,31,1,,,,,,,,,,,AMNE09.jpg,AMSA13.jpg,AMSA06.jpg,AMNE20.jpg,AMSA13.jpg,MS,2,num_6,32,num_8,1.55007170123,,,2017_Jun_12_1532,59.9971327229,FEMA4ImagesEEG,001,200446,
AFNE01.JPG,AFNE01.JPG,AFNE01.JPG,AFNE01.JPG,AFNE01.JPG,AFNE01.JPG,,,,,,,,,,,,,3,2,32,8,,,,,,,,,,,AMSA10.jpg,AMNE20.jpg,AMNE06.jpg,AMSA14.jpg,AMNE06.jpg,MN,1,num_2,16,num_2,0.766731915704,,,2017_Jun_12_1532,59.9971327229,FEMA4ImagesEEG,001,200446,
AFNE01.JPG,AFNE01.JPG,AFNE01.JPG,AFNE01.JPG,AFNE01.JPG,AFNE01.JPG,,,,,,,,,,,,,3,3,33,5,,,,,,,,,,,AMSA16.jpg,AMNE20.jpg,AMSA10.jpg,AMNE04.jpg,AMNE04.jpg,MN,1,num_4,16,num_4,0.6168239197,,,2017_Jun_12_1532,59.9971327229,FEMA4ImagesEEG,001,200446,
AFNE01.JPG,AFNE01.JPG,AFNE01.JPG,AFNE01.JPG,AFNE01.JPG,AFNE01.JPG,,,,,,,,,,,,,3,4,34,0,,,,,,,,,,,AMSA20.jpg,AMNE14.jpg,AMNE05.jpg,AMSA18.jpg,AMSA20.jpg,MS,2,num_8,16,num_8,0.700115049141,,,2017_Jun_12_1532,59.9971327229,FEMA4ImagesEEG,001,200446,
AFNE01.JPG,AFNE01.JPG,AFNE01.JPG,AFNE01.JPG,AFNE01.JPG,AFNE01.JPG,,,,,,,,,,,,,3,5,35,9,,,,,,,,,,,AMNE08.jpg,AMSA04.jpg,AMNE04.jpg,AMSA06.jpg,AMSA04.jpg,MS,2,num_6,16,num_6,0.783490532893,,,2017_Jun_12_1532,59.9971327229,FEMA4ImagesEEG,001,200446,
AFNE01.JPG,AFNE01.JPG,AFNE01.JPG,AFNE01.JPG,AFNE01.JPG,AFNE01.JPG,,,,,,,,,,,,,3,6,36,7,,,,,,,,,,,AMNE12.jpg,AMSA06.jpg,AMSA14.jpg,AMNE19.jpg,AMSA14.jpg,MS,2,num_2,16,num_2,0.700273494178,,,2017_Jun_12_1532,59.9971327229,FEMA4ImagesEEG,001,200446,
AFNE01.JPG,AFNE01.JPG,AFNE01.JPG,AFNE01.JPG,AFNE01.JPG,AFNE01.JPG,,,,,,,,,,,,,3,7,37,6,,,,,,,,,,,AMNE14.jpg,AMSA01.jpg,AMNE08.jpg,AMSA12.jpg,AMNE08.jpg,MN,1,num_2,16,num_2,0.816763684852,,,2017_Jun_12_1532,59.9971327229,FEMA4ImagesEEG,001,200446,
AFNE01.JPG,AFNE01.JPG,AFNE01.JPG,AFNE01.JPG,AFNE01.JPG,AFNE01.JPG,,,,,,,,,,,,,3,8,38,3,,,,,,,,,,,AMNE12.jpg,AMSA03.jpg,AMSA20.jpg,AMNE10.jpg,AMSA20.jpg,MS,2,num_2,32,num_4,0.783479307021,,,2017_Jun_12_1532,59.9971327229,FEMA4ImagesEEG,001,200446,
AFNE01.JPG,AFNE01.JPG,AFNE01.JPG,AFNE01.JPG,AFNE01.JPG,AFNE01.JPG,,,,,,,,,,,,,3,9,39,4,,,,,,,,,,,AMSA12.jpg,AMSA16.jpg,AMNE18.jpg,AMNE11.jpg,AMNE11.jpg,MN,1,num_4,16,num_4,0.649849140376,,,2017_Jun_12_1532,59.9971327229,FEMA4ImagesEEG,001,200446,
AFNE01.JPG,AFNE01.JPG,AFNE01.JPG,AFNE01.JPG,AFNE01.JPG,AFNE01.JPG,,,,,,,,,,,,,4,0,40,6,,,,,,,,,,,AMSA03.jpg,AMNE02.jpg,AMNE01.jpg,AMSA10.jpg,AMSA10.jpg,MS,2,num_4,32,num_8,0.800135608471,,,2017_Jun_12_1532,59.9971327229,FEMA4ImagesEEG,001,200446,
AFNE01.JPG,AFNE01.JPG,AFNE01.JPG,AFNE01.JPG,AFNE01.JPG,AFNE01.JPG,,,,,,,,,,,,,4,1,41,3,,,,,,,,,,,AMNE06.jpg,AMNE12.jpg,AMSA17.jpg,AMSA18.jpg,AMNE12.jpg,MN,1,num_6,16,num_6,0.666794106946,,,2017_Jun_12_1532,59.9971327229,FEMA4ImagesEEG,001,200446,
AFNE01.JPG,AFNE01.JPG,AFNE01.JPG,AFNE01.JPG,AFNE01.JPG,AFNE01.JPG,,,,,,,,,,,,,4,2,42,4,,,,,,,,,,,AMSA12.jpg,AMNE10.jpg,AMNE15.jpg,AMSA08.jpg,AMSA12.jpg,MS,2,num_8,32,num_4,0.766886511934,,,2017_Jun_12_1532,59.9971327229,FEMA4ImagesEEG,001,200446,
AFNE01.JPG,AFNE01.JPG,AFNE01.JPG,AFNE01.JPG,AFNE01.JPG,AFNE01.JPG,,,,,,,,,,,,,4,3,43,8,,,,,,,,,,,AMNE20.jpg,AMNE03.jpg,AMSA10.jpg,AMSA19.jpg,AMSA19.jpg,MS,2,num_4,32,num_2,1.0500840497,,,2017_Jun_12_1532,59.9971327229,FEMA4ImagesEEG,001,200446,
AFNE01.JPG,AFNE01.JPG,AFNE01.JPG,AFNE01.JPG,AFNE01.JPG,AFNE01.JPG,,,,,,,,,,,,,4,4,44,0,,,,,,,,,,,AMNE18.jpg,AMSA07.jpg,AMNE10.jpg,AMSA10.jpg,AMSA07.jpg,MS,2,num_6,16,num_6,0.550209619047,,,2017_Jun_12_1532,59.9971327229,FEMA4ImagesEEG,001,200446,
AFNE01.JPG,AFNE01.JPG,AFNE01.JPG,AFNE01.JPG,AFNE01.JPG,AFNE01.JPG,,,,,,,,,,,,,4,5,45,1,,,,,,,,,,,AMNE17.jpg,AMSA07.jpg,AMSA05.jpg,AMNE05.jpg,AMNE17.jpg,MN,1,num_8,16,num_8,0.800200077065,,,2017_Jun_12_1532,59.9971327229,FEMA4ImagesEEG,001,200446,
AFNE01.JPG,AFNE01.JPG,AFNE01.JPG,AFNE01.JPG,AFNE01.JPG,AFNE01.JPG,,,,,,,,,,,,,4,6,46,5,,,,,,,,,,,AMNE08.jpg,AMSA14.jpg,AMSA04.jpg,AMNE10.jpg,AMNE10.jpg,MN,1,num_4,16,num_4,0.750109612592,,,2017_Jun_12_1532,59.9971327229,FEMA4ImagesEEG,001,200446,
AFNE01.JPG,AFNE01.JPG,AFNE01.JPG,AFNE01.JPG,AFNE01.JPG,AFNE01.JPG,,,,,,,,,,,,,4,7,47,7,,,,,,,,,,,AMNE06.jpg,AMSA04.jpg,AMNE19.jpg,AMSA02.jpg,AMSA04.jpg,MS,2,num_6,32,num_4,0.683452332916,,,2017_Jun_12_1532,59.9971327229,FEMA4ImagesEEG,001,200446,
AFNE01.JPG,AFNE01.JPG,AFNE01.JPG,AFNE01.JPG,AFNE01.JPG,AFNE01.JPG,,,,,,,,,,,,,4,8,48,2,,,,,,,,,,,AMSA12.jpg,AMNE10.jpg,AMNE06.jpg,AMSA18.jpg,AMNE10.jpg,MN,1,num_6,16,num_6,0.68342859816,,,2017_Jun_12_1532,59.9971327229,FEMA4ImagesEEG,001,200446,
AFNE01.JPG,AFNE01.JPG,AFNE01.JPG,AFNE01.JPG,AFNE01.JPG,AFNE01.JPG,,,,,,,,,,,,,4,9,49,9,,,,,,,,,,,AMSA14.jpg,AMNE08.jpg,AMSA20.jpg,AMNE19.jpg,AMSA20.jpg,MS,2,num_2,16,num_2,0.933447601972,,,2017_Jun_12_1532,59.9971327229,FEMA4ImagesEEG,001,200446,
AFNE01.JPG,AFNE01.JPG,AFNE01.JPG,AFNE01.JPG,AFNE01.JPG,AFNE01.JPG,,,,,,,,,,,,,5,0,50,3,,,,,,,,,,,AMSA09.jpg,AMSA19.jpg,AMNE11.jpg,AMNE15.jpg,AMSA19.jpg,MS,2,num_6,32,num_8,0.716796047462,,,2017_Jun_12_1532,59.9971327229,FEMA4ImagesEEG,001,200446,
AFNE01.JPG,AFNE01.JPG,AFNE01.JPG,AFNE01.JPG,AFNE01.JPG,AFNE01.JPG,,,,,,,,,,,,,5,1,51,7,,,,,,,,,,,AMNE11.jpg,AMSA15.jpg,AMSA16.jpg,AMNE06.jpg,AMSA16.jpg,MS,2,num_2,16,num_2,1.31671124406,,,2017_Jun_12_1532,59.9971327229,FEMA4ImagesEEG,001,200446,
AFNE01.JPG,AFNE01.JPG,AFNE01.JPG,AFNE01.JPG,AFNE01.JPG,AFNE01.JPG,,,,,,,,,,,,,5,2,52,2,,,,,,,,,,,AMSA09.jpg,AMNE01.jpg,AMNE07.jpg,AMSA03.jpg,AMNE01.jpg,MN,1,num_6,16,num_6,0.65021510364,,,2017_Jun_12_1532,59.9971327229,FEMA4ImagesEEG,001,200446,
AFNE01.JPG,AFNE01.JPG,AFNE01.JPG,AFNE01.JPG,AFNE01.JPG,AFNE01.JPG,,,,,,,,,,,,,5,3,53,4,,,,,,,,,,,AMNE18.jpg,AMNE19.jpg,AMSA01.jpg,AMSA16.jpg,AMNE19.jpg,MN,1,num_6,32,num_8,1.40037763817,,,2017_Jun_12_1532,59.9971327229,FEMA4ImagesEEG,001,200446,
AFNE01.JPG,AFNE01.JPG,AFNE01.JPG,AFNE01.JPG,AFNE01.JPG,AFNE01.JPG,,,,,,,,,,,,,5,4,54,0,,,,,,,,,,,AMSA05.jpg,AMSA01.jpg,AMNE17.jpg,AMNE07.jpg,AMSA05.jpg,MS,2,num_8,16,num_8,0.950143675029,,,2017_Jun_12_1532,59.9971327229,FEMA4ImagesEEG,001,200446,
AFNE01.JPG,AFNE01.JPG,AFNE01.JPG,AFNE01.JPG,AFNE01.JPG,AFNE01.JPG,,,,,,,,,,,,,5,5,55,5,,,,,,,,,,,AMNE13.jpg,AMSA07.jpg,AMNE07.jpg,AMSA03.jpg,AMNE07.jpg,MN,1,num_2,16,num_2,0.850101946911,,,2017_Jun_12_1532,59.9971327229,FEMA4ImagesEEG,001,200446,
AFNE01.JPG,AFNE01.JPG,AFNE01.JPG,AFNE01.JPG,AFNE01.JPG,AFNE01.JPG,,,,,,,,,,,,,5,6,56,1,,,,,,,,,,,AMNE18.jpg,AMNE15.jpg,AMSA07.jpg,AMSA14.jpg,AMNE15.jpg,MN,1,num_6,16,num_6,0.550142263819,,,2017_Jun_12_1532,59.9971327229,FEMA4ImagesEEG,001,200446,
AFNE01.JPG,AFNE01.JPG,AFNE01.JPG,AFNE01.JPG,AFNE01.JPG,AFNE01.JPG,,,,,,,,,,,,,5,7,57,8,,,,,,,,,,,AMNE04.jpg,AMSA09.jpg,AMNE19.jpg,AMSA06.jpg,AMSA09.jpg,MS,2,num_6,32,num_4,0.86680764216,,,2017_Jun_12_1532,59.9971327229,FEMA4ImagesEEG,001,200446,
AFNE01.JPG,AFNE01.JPG,AFNE01.JPG,AFNE01.JPG,AFNE01.JPG,AFNE01.JPG,,,,,,,,,,,,,5,8,58,9,,,,,,,,,,,AMSA10.jpg,AMNE09.jpg,AMSA12.jpg,AMNE02.jpg,AMNE02.jpg,MN,1,num_4,16,num_4,0.466817136097,,,2017_Jun_12_1532,59.9971327229,FEMA4ImagesEEG,001,200446,
AFNE01.JPG,AFNE01.JPG,AFNE01.JPG,AFNE01.JPG,AFNE01.JPG,AFNE01.JPG,,,,,,,,,,,,,5,9,59,6,,,,,,,,,,,AMSA03.jpg,AMNE01.jpg,AMSA14.jpg,AMNE04.jpg,AMSA03.jpg,MS,2,num_8,32,num_2,0.916761792556,,,2017_Jun_12_1532,59.9971327229,FEMA4ImagesEEG,001,200446,
,,,,,,,,,,,,,,,,,,,,,,,,,,,,,,,,,,,,,,,,,,,space,3.11697643111,2017_Jun_12_1532,59.9971327229,FEMA4ImagesEEG,001,200446,
AFNE01.JPG,AFNE01.JPG,AFNE01.JPG,AFNE01.JPG,AFNE01.JPG,AFNE01.JPG,,,,,,,,,,,,,,,,,0,0,0,1,,,,,,,AFSA11.jpg,AFSA01.jpg,AFNE02.jpg,AFNE10.jpg,AFSA01.jpg,FS,4,num_6,16,num_6,1.01675893797,,,2017_Jun_12_1532,59.9971327229,FEMA4ImagesEEG,001,200446,
AFNE01.JPG,AFNE01.JPG,AFNE01.JPG,AFNE01.JPG,AFNE01.JPG,AFNE01.JPG,,,,,,,,,,,,,,,,,0,1,1,8,,,,,,,AFNE11.jpg,AFSA18.jpg,AFNE20.jpg,AFSA05.jpg,AFNE11.jpg,FN,3,num_8,16,num_8,0.950245028653,,,2017_Jun_12_1532,59.9971327229,FEMA4ImagesEEG,001,200446,
AFNE01.JPG,AFNE01.JPG,AFNE01.JPG,AFNE01.JPG,AFNE01.JPG,AFNE01.JPG,,,,,,,,,,,,,,,,,0,2,2,3,,,,,,,AFNE05.jpg,AFSA19.jpg,AFSA02.jpg,AFNE10.jpg,AFSA19.jpg,FS,4,num_6,32,num_2,0.81684996374,,,2017_Jun_12_1532,59.9971327229,FEMA4ImagesEEG,001,200446,
AFNE01.JPG,AFNE01.JPG,AFNE01.JPG,AFNE01.JPG,AFNE01.JPG,AFNE01.JPG,,,,,,,,,,,,,,,,,0,3,3,2,,,,,,,AFSA14.jpg,AFSA08.jpg,AFNE18.jpg,AFNE03.jpg,AFNE03.jpg,FN,3,num_4,16,num_4,0.71677712386,,,2017_Jun_12_1532,59.9971327229,FEMA4ImagesEEG,001,200446,
AFNE01.JPG,AFNE01.JPG,AFNE01.JPG,AFNE01.JPG,AFNE01.JPG,AFNE01.JPG,,,,,,,,,,,,,,,,,0,4,4,4,,,,,,,AFNE12.jpg,AFSA06.jpg,AFSA09.jpg,AFNE17.jpg,AFNE12.jpg,FN,3,num_8,16,num_8,0.51672894886,,,2017_Jun_12_1532,59.9971327229,FEMA4ImagesEEG,001,200446,
AFNE01.JPG,AFNE01.JPG,AFNE01.JPG,AFNE01.JPG,AFNE01.JPG,AFNE01.JPG,,,,,,,,,,,,,,,,,0,5,5,6,,,,,,,AFSA02.jpg,AFNE08.jpg,AFNE19.jpg,AFSA04.jpg,AFNE19.jpg,FN,3,num_2,16,num_2,0.633647967712,,,2017_Jun_12_1532,59.9971327229,FEMA4ImagesEEG,001,200446,
AFNE01.JPG,AFNE01.JPG,AFNE01.JPG,AFNE01.JPG,AFNE01.JPG,AFNE01.JPG,,,,,,,,,,,,,,,,,0,6,6,7,,,,,,,AFNE11.jpg,AFNE17.jpg,AFSA20.jpg,AFSA16.jpg,AFNE17.jpg,FN,3,num_6,32,num_2,1.05007474823,,,2017_Jun_12_1532,59.9971327229,FEMA4ImagesEEG,001,200446,
AFNE01.JPG,AFNE01.JPG,AFNE01.JPG,AFNE01.JPG,AFNE01.JPG,AFNE01.JPG,,,,,,,,,,,,,,,,,0,7,7,9,,,,,,,AFSA01.jpg,AFNE14.jpg,AFNE04.jpg,AFSA20.jpg,AFNE04.jpg,FN,3,num_2,16,num_2,0.566846996895,,,2017_Jun_12_1532,59.9971327229,FEMA4ImagesEEG,001,200446,
AFNE01.JPG,AFNE01.JPG,AFNE01.JPG,AFNE01.JPG,AFNE01.JPG,AFNE01.JPG,,,,,,,,,,,,,,,,,0,8,8,0,,,,,,,AFNE05.jpg,AFSA03.jpg,AFSA05.jpg,AFNE03.jpg,AFNE03.jpg,FN,3,num_4,16,num_4,0.466793722124,,,2017_Jun_12_1532,59.9971327229,FEMA4ImagesEEG,001,200446,
AFNE01.JPG,AFNE01.JPG,AFNE01.JPG,AFNE01.JPG,AFNE01.JPG,AFNE01.JPG,,,,,,,,,,,,,,,,,0,9,9,5,,,,,,,AFSA05.jpg,AFNE10.jpg,AFNE06.jpg,AFSA08.jpg,AFSA05.jpg,FS,4,num_8,16,num_8,0.816840020765,,,2017_Jun_12_1532,59.9971327229,FEMA4ImagesEEG,001,200446,
AFNE01.JPG,AFNE01.JPG,AFNE01.JPG,AFNE01.JPG,AFNE01.JPG,AFNE01.JPG,,,,,,,,,,,,,,,,,1,0,10,2,,,,,,,AFSA07.jpg,AFNE14.jpg,AFSA01.jpg,AFNE17.jpg,AFSA07.jpg,FS,4,num_8,16,num_8,1.2502675766,,,2017_Jun_12_1532,59.9971327229,FEMA4ImagesEEG,001,200446,
AFNE01.JPG,AFNE01.JPG,AFNE01.JPG,AFNE01.JPG,AFNE01.JPG,AFNE01.JPG,,,,,,,,,,,,,,,,,1,1,11,9,,,,,,,AFSA07.jpg,AFSA08.jpg,AFNE17.jpg,AFNE13.jpg,AFNE13.jpg,FN,3,num_4,16,num_4,0.66675529757,,,2017_Jun_12_1532,59.9971327229,FEMA4ImagesEEG,001,200446,
AFNE01.JPG,AFNE01.JPG,AFNE01.JPG,AFNE01.JPG,AFNE01.JPG,AFNE01.JPG,,,,,,,,,,,,,,,,,1,2,12,1,,,,,,,AFSA20.jpg,AFNE18.jpg,AFNE04.jpg,AFSA05.jpg,AFNE04.jpg,FN,3,num_2,32,num_6,0.800041311188,,,2017_Jun_12_1532,59.9971327229,FEMA4ImagesEEG,001,200446,
AFNE01.JPG,AFNE01.JPG,AFNE01.JPG,AFNE01.JPG,AFNE01.JPG,AFNE01.JPG,,,,,,,,,,,,,,,,,1,3,13,6,,,,,,,AFSA07.jpg,AFSA08.jpg,AFNE16.jpg,AFNE18.jpg,AFNE16.jpg,FN,3,num_2,16,num_2,1.0167714468,,,2017_Jun_12_1532,59.9971327229,FEMA4ImagesEEG,001,200446,
AFNE01.JPG,AFNE01.JPG,AFNE01.JPG,AFNE01.JPG,AFNE01.JPG,AFNE01.JPG,,,,,,,,,,,,,,,,,1,4,14,3,,,,,,,AFSA04.jpg,AFNE13.jpg,AFNE04.jpg,AFSA18.jpg,AFNE13.jpg,FN,3,num_6,16,num_6,0.850123115699,,,2017_Jun_12_1532,59.9971327229,FEMA4ImagesEEG,001,200446,
AFNE01.JPG,AFNE01.JPG,AFNE01.JPG,AFNE01.JPG,AFNE01.JPG,AFNE01.JPG,,,,,,,,,,,,,,,,,1,5,15,5,,,,,,,AFSA03.jpg,AFNE18.jpg,AFSA12.jpg,AFNE07.jpg,AFNE07.jpg,FN,3,num_4,16,num_4,0.60017018416,,,2017_Jun_12_1532,59.9971327229,FEMA4ImagesEEG,001,200446,
AFNE01.JPG,AFNE01.JPG,AFNE01.JPG,AFNE01.JPG,AFNE01.JPG,AFNE01.JPG,,,,,,,,,,,,,,,,,1,6,16,4,,,,,,,AFNE10.jpg,AFSA05.jpg,AFSA19.jpg,AFNE20.jpg,AFSA05.jpg,FS,4,num_6,16,num_6,0.449998540629,,,2017_Jun_12_1532,59.9971327229,FEMA4ImagesEEG,001,200446,
AFNE01.JPG,AFNE01.JPG,AFNE01.JPG,AFNE01.JPG,AFNE01.JPG,AFNE01.JPG,,,,,,,,,,,,,,,,,1,7,17,8,,,,,,,AFNE01.jpg,AFSA15.jpg,AFSA13.jpg,AFNE20.jpg,AFSA13.jpg,FS,4,num_2,16,num_2,0.983460768301,,,2017_Jun_12_1532,59.9971327229,FEMA4ImagesEEG,001,200446,
AFNE01.JPG,AFNE01.JPG,AFNE01.JPG,AFNE01.JPG,AFNE01.JPG,AFNE01.JPG,,,,,,,,,,,,,,,,,1,8,18,7,,,,,,,AFSA17.jpg,AFSA18.jpg,AFNE01.jpg,AFNE06.jpg,AFSA17.jpg,FS,4,num_8,16,num_8,0.783478986297,,,2017_Jun_12_1532,59.9971327229,FEMA4ImagesEEG,001,200446,
AFNE01.JPG,AFNE01.JPG,AFNE01.JPG,AFNE01.JPG,AFNE01.JPG,AFNE01.JPG,,,,,,,,,,,,,,,,,1,9,19,0,,,,,,,AFSA10.jpg,AFNE09.jpg,AFNE20.jpg,AFSA19.jpg,AFSA10.jpg,FS,4,num_8,16,num_8,0.700292417838,,,2017_Jun_12_1532,59.9971327229,FEMA4ImagesEEG,001,200446,
AFNE01.JPG,AFNE01.JPG,AFNE01.JPG,AFNE01.JPG,AFNE01.JPG,AFNE01.JPG,,,,,,,,,,,,,,,,,2,0,20,5,,,,,,,AFNE16.jpg,AFSA13.jpg,AFSA18.jpg,AFNE09.jpg,AFSA13.jpg,FS,4,num_6,16,num_6,0.583465130359,,,2017_Jun_12_1532,59.9971327229,FEMA4ImagesEEG,001,200446,
AFNE01.JPG,AFNE01.JPG,AFNE01.JPG,AFNE01.JPG,AFNE01.JPG,AFNE01.JPG,,,,,,,,,,,,,,,,,2,1,21,9,,,,,,,AFSA10.jpg,AFNE03.jpg,AFNE07.jpg,AFSA09.jpg,AFNE07.jpg,FN,3,num_2,16,num_2,0.683516480669,,,2017_Jun_12_1532,59.9971327229,FEMA4ImagesEEG,001,200446,
AFNE01.JPG,AFNE01.JPG,AFNE01.JPG,AFNE01.JPG,AFNE01.JPG,AFNE01.JPG,,,,,,,,,,,,,,,,,2,2,22,8,,,,,,,AFNE16.jpg,AFNE04.jpg,AFSA10.jpg,AFSA16.jpg,AFNE04.jpg,FN,3,num_6,16,num_6,0.450122987386,,,2017_Jun_12_1532,59.9971327229,FEMA4ImagesEEG,001,200446,
AFNE01.JPG,AFNE01.JPG,AFNE01.JPG,AFNE01.JPG,AFNE01.JPG,AFNE01.JPG,,,,,,,,,,,,,,,,,2,3,23,2,,,,,,,AFSA18.jpg,AFNE17.jpg,AFNE18.jpg,AFSA10.jpg,AFNE17.jpg,FN,3,num_6,16,num_6,1.50005661044,,,2017_Jun_12_1532,59.9971327229,FEMA4ImagesEEG,001,200446,
AFNE01.JPG,AFNE01.JPG,AFNE01.JPG,AFNE01.JPG,AFNE01.JPG,AFNE01.JPG,,,,,,,,,,,,,,,,,2,4,24,0,,,,,,,AFSA07.jpg,AFNE14.jpg,AFNE15.jpg,AFSA10.jpg,AFSA10.jpg,FS,4,num_4,16,num_4,0.55016535701,,,2017_Jun_12_1532,59.9971327229,FEMA4ImagesEEG,001,200446,
AFNE01.JPG,AFNE01.JPG,AFNE01.JPG,AFNE01.JPG,AFNE01.JPG,AFNE01.JPG,,,,,,,,,,,,,,,,,2,5,25,7,,,,,,,AFSA10.jpg,AFNE05.jpg,AFNE16.jpg,AFSA15.jpg,AFNE05.jpg,FN,3,num_6,16,num_6,0.583448772668,,,2017_Jun_12_1532,59.9971327229,FEMA4ImagesEEG,001,200446,
AFNE01.JPG,AFNE01.JPG,AFNE01.JPG,AFNE01.JPG,AFNE01.JPG,AFNE01.JPG,,,,,,,,,,,,,,,,,2,6,26,3,,,,,,,AFSA20.jpg,AFNE10.jpg,AFNE15.jpg,AFSA19.jpg,AFSA20.jpg,FS,4,num_8,16,num_8,0.666823294247,,,2017_Jun_12_1532,59.9971327229,FEMA4ImagesEEG,001,200446,
AFNE01.JPG,AFNE01.JPG,AFNE01.JPG,AFNE01.JPG,AFNE01.JPG,AFNE01.JPG,,,,,,,,,,,,,,,,,2,7,27,6,,,,,,,AFSA05.jpg,AFNE13.jpg,AFSA13.jpg,AFNE18.jpg,AFNE18.jpg,FN,3,num_4,16,num_4,0.600162807154,,,2017_Jun_12_1532,59.9971327229,FEMA4ImagesEEG,001,200446,
AFNE01.JPG,AFNE01.JPG,AFNE01.JPG,AFNE01.JPG,AFNE01.JPG,AFNE01.JPG,,,,,,,,,,,,,,,,,2,8,28,4,,,,,,,AFSA13.jpg,AFNE06.jpg,AFNE09.jpg,AFSA03.jpg,AFSA03.jpg,FS,4,num_4,16,num_4,0.733432463137,,,2017_Jun_12_1532,59.9971327229,FEMA4ImagesEEG,001,200446,
AFNE01.JPG,AFNE01.JPG,AFNE01.JPG,AFNE01.JPG,AFNE01.JPG,AFNE01.JPG,,,,,,,,,,,,,,,,,2,9,29,1,,,,,,,AFSA03.jpg,AFNE13.jpg,AFSA20.jpg,AFNE17.jpg,AFNE17.jpg,FN,3,num_4,16,num_4,0.983567895193,,,2017_Jun_12_1532,59.9971327229,FEMA4ImagesEEG,001,200446,
AFNE01.JPG,AFNE01.JPG,AFNE01.JPG,AFNE01.JPG,AFNE01.JPG,AFNE01.JPG,,,,,,,,,,,,,,,,,3,0,30,4,,,,,,,AFSA05.jpg,AFNE18.jpg,AFNE16.jpg,AFSA04.jpg,AFSA04.jpg,FS,4,num_4,32,num_6,1.05006993713,,,2017_Jun_12_1532,59.9971327229,FEMA4ImagesEEG,001,200446,
AFNE01.JPG,AFNE01.JPG,AFNE01.JPG,AFNE01.JPG,AFNE01.JPG,AFNE01.JPG,,,,,,,,,,,,,,,,,3,1,31,8,,,,,,,AFSA13.jpg,AFSA03.jpg,AFNE05.jpg,AFNE10.jpg,AFSA13.jpg,FS,4,num_8,16,num_8,0.416898908501,,,2017_Jun_12_1532,59.9971327229,FEMA4ImagesEEG,001,200446,
AFNE01.JPG,AFNE01.JPG,AFNE01.JPG,AFNE01.JPG,AFNE01.JPG,AFNE01.JPG,,,,,,,,,,,,,,,,,3,2,32,2,,,,,,,AFSA06.jpg,AFNE14.jpg,AFSA03.jpg,AFNE03.jpg,AFNE14.jpg,FN,3,num_6,16,num_6,0.68353636656,,,2017_Jun_12_1532,59.9971327229,FEMA4ImagesEEG,001,200446,
AFNE01.JPG,AFNE01.JPG,AFNE01.JPG,AFNE01.JPG,AFNE01.JPG,AFNE01.JPG,,,,,,,,,,,,,,,,,3,3,33,3,,,,,,,AFSA10.jpg,AFSA19.jpg,AFNE04.jpg,AFNE08.jpg,AFSA10.jpg,FS,4,num_8,32,num_2,1.10010491376,,,2017_Jun_12_1532,59.9971327229,FEMA4ImagesEEG,001,200446,
AFNE01.JPG,AFNE01.JPG,AFNE01.JPG,AFNE01.JPG,AFNE01.JPG,AFNE01.JPG,,,,,,,,,,,,,,,,,3,4,34,6,,,,,,,AFSA16.jpg,AFSA03.jpg,AFNE15.jpg,AFNE18.jpg,AFSA16.jpg,FS,4,num_8,16,num_8,0.533478906145,,,2017_Jun_12_1532,59.9971327229,FEMA4ImagesEEG,001,200446,
AFNE01.JPG,AFNE01.JPG,AFNE01.JPG,AFNE01.JPG,AFNE01.JPG,AFNE01.JPG,,,,,,,,,,,,,,,,,3,5,35,1,,,,,,,AFSA09.jpg,AFNE18.jpg,AFNE16.jpg,AFSA10.jpg,AFSA10.jpg,FS,4,num_4,16,num_4,0.983601893531,,,2017_Jun_12_1532,59.9971327229,FEMA4ImagesEEG,001,200446,
AFNE01.JPG,AFNE01.JPG,AFNE01.JPG,AFNE01.JPG,AFNE01.JPG,AFNE01.JPG,,,,,,,,,,,,,,,,,3,6,36,9,,,,,,,AFNE19.jpg,AFSA18.jpg,AFNE04.jpg,AFSA15.jpg,AFNE19.jpg,FN,3,num_8,16,num_8,0.833461040922,,,2017_Jun_12_1532,59.9971327229,FEMA4ImagesEEG,001,200446,
AFNE01.JPG,AFNE01.JPG,AFNE01.JPG,AFNE01.JPG,AFNE01.JPG,AFNE01.JPG,,,,,,,,,,,,,,,,,3,7,37,0,,,,,,,AFNE04.jpg,AFSA02.jpg,AFSA04.jpg,AFNE12.jpg,AFSA02.jpg,FS,4,num_6,16,num_6,0.633497541014,,,2017_Jun_12_1532,59.9971327229,FEMA4ImagesEEG,001,200446,
AFNE01.JPG,AFNE01.JPG,AFNE01.JPG,AFNE01.JPG,AFNE01.JPG,AFNE01.JPG,,,,,,,,,,,,,,,,,3,8,38,5,,,,,,,AFNE11.jpg,AFSA17.jpg,AFSA02.jpg,AFNE19.jpg,AFSA17.jpg,FS,4,num_6,16,num_6,0.700314548856,,,2017_Jun_12_1532,59.9971327229,FEMA4ImagesEEG,001,200446,
AFNE01.JPG,AFNE01.JPG,AFNE01.JPG,AFNE01.JPG,AFNE01.JPG,AFNE01.JPG,,,,,,,,,,,,,,,,,3,9,39,7,,,,,,,AFSA16.jpg,AFNE17.jpg,AFNE14.jpg,AFSA06.jpg,AFSA16.jpg,FS,4,num_8,16,num_8,0.716839026543,,,2017_Jun_12_1532,59.9971327229,FEMA4ImagesEEG,001,200446,
AFNE01.JPG,AFNE01.JPG,AFNE01.JPG,AFNE01.JPG,AFNE01.JPG,AFNE01.JPG,,,,,,,,,,,,,,,,,4,0,40,6,,,,,,,AFSA10.jpg,AFNE05.jpg,AFNE19.jpg,AFSA17.jpg,AFNE19.jpg,FN,3,num_2,16,num_2,0.433493948774,,,2017_Jun_12_1532,59.9971327229,FEMA4ImagesEEG,001,200446,
AFNE01.JPG,AFNE01.JPG,AFNE01.JPG,AFNE01.JPG,AFNE01.JPG,AFNE01.JPG,,,,,,,,,,,,,,,,,4,1,41,7,,,,,,,AFNE12.jpg,AFSA06.jpg,AFNE04.jpg,AFSA19.jpg,AFNE04.jpg,FN,3,num_2,16,num_2,0.550161828927,,,2017_Jun_12_1532,59.9971327229,FEMA4ImagesEEG,001,200446,
AFNE01.JPG,AFNE01.JPG,AFNE01.JPG,AFNE01.JPG,AFNE01.JPG,AFNE01.JPG,,,,,,,,,,,,,,,,,4,2,42,8,,,,,,,AFNE08.jpg,AFNE14.jpg,AFSA06.jpg,AFSA16.jpg,AFSA06.jpg,FS,4,num_2,16,num_2,0.850123757147,,,2017_Jun_12_1532,59.9971327229,FEMA4ImagesEEG,001,200446,
AFNE01.JPG,AFNE01.JPG,AFNE01.JPG,AFNE01.JPG,AFNE01.JPG,AFNE01.JPG,,,,,,,,,,,,,,,,,4,3,43,2,,,,,,,AFSA05.jpg,AFNE12.jpg,AFNE20.jpg,AFSA18.jpg,AFSA05.jpg,FS,4,num_8,16,num_8,0.650178539392,,,2017_Jun_12_1532,59.9971327229,FEMA4ImagesEEG,001,200446,
AFNE01.JPG,AFNE01.JPG,AFNE01.JPG,AFNE01.JPG,AFNE01.JPG,AFNE01.JPG,,,,,,,,,,,,,,,,,4,4,44,1,,,,,,,AFNE07.jpg,AFNE19.jpg,AFSA20.jpg,AFSA08.jpg,AFSA20.jpg,FS,4,num_2,32,num_4,0.566776113526,,,2017_Jun_12_1532,59.9971327229,FEMA4ImagesEEG,001,200446,
AFNE01.JPG,AFNE01.JPG,AFNE01.JPG,AFNE01.JPG,AFNE01.JPG,AFNE01.JPG,,,,,,,,,,,,,,,,,4,5,45,4,,,,,,,AFNE16.jpg,AFNE13.jpg,AFSA17.jpg,AFSA20.jpg,AFNE13.jpg,FN,3,num_6,16,num_6,1.01689236541,,,2017_Jun_12_1532,59.9971327229,FEMA4ImagesEEG,001,200446,
AFNE01.JPG,AFNE01.JPG,AFNE01.JPG,AFNE01.JPG,AFNE01.JPG,AFNE01.JPG,,,,,,,,,,,,,,,,,4,6,46,0,,,,,,,AFSA08.jpg,AFNE11.jpg,AFSA06.jpg,AFNE20.jpg,AFSA08.jpg,FS,4,num_8,32,num_2,0.700137500884,,,2017_Jun_12_1532,59.9971327229,FEMA4ImagesEEG,001,200446,
AFNE01.JPG,AFNE01.JPG,AFNE01.JPG,AFNE01.JPG,AFNE01.JPG,AFNE01.JPG,,,,,,,,,,,,,,,,,4,7,47,3,,,,,,,AFSA12.jpg,AFSA11.jpg,AFNE04.jpg,AFNE01.jpg,AFNE04.jpg,FN,3,num_2,16,num_2,0.716812084429,,,2017_Jun_12_1532,59.9971327229,FEMA4ImagesEEG,001,200446,
AFNE01.JPG,AFNE01.JPG,AFNE01.JPG,AFNE01.JPG,AFNE01.JPG,AFNE01.JPG,,,,,,,,,,,,,,,,,4,8,48,5,,,,,,,AFSA16.jpg,AFNE04.jpg,AFSA14.jpg,AFNE11.jpg,AFSA16.jpg,FS,4,num_8,16,num_8,0.799867470574,,,2017_Jun_12_1532,59.9971327229,FEMA4ImagesEEG,001,200446,
AFNE01.JPG,AFNE01.JPG,AFNE01.JPG,AFNE01.JPG,AFNE01.JPG,AFNE01.JPG,,,,,,,,,,,,,,,,,4,9,49,9,,,,,,,AFSA11.jpg,AFNE02.jpg,AFNE20.jpg,AFSA16.jpg,AFNE20.jpg,FN,3,num_2,16,num_2,0.650102524203,,,2017_Jun_12_1532,59.9971327229,FEMA4ImagesEEG,001,200446,
AFNE01.JPG,AFNE01.JPG,AFNE01.JPG,AFNE01.JPG,AFNE01.JPG,AFNE01.JPG,,,,,,,,,,,,,,,,,5,0,50,2,,,,,,,AFNE07.jpg,AFSA02.jpg,AFSA01.jpg,AFNE11.jpg,AFNE07.jpg,FN,3,num_8,16,num_8,1.01675156096,,,2017_Jun_12_1532,59.9971327229,FEMA4ImagesEEG,001,200446,
AFNE01.JPG,AFNE01.JPG,AFNE01.JPG,AFNE01.JPG,AFNE01.JPG,AFNE01.JPG,,,,,,,,,,,,,,,,,5,1,51,5,,,,,,,AFSA04.jpg,AFNE20.jpg,AFSA09.jpg,AFNE15.jpg,AFNE20.jpg,FN,3,num_6,16,num_6,0.816802494286,,,2017_Jun_12_1532,59.9971327229,FEMA4ImagesEEG,001,200446,
AFNE01.JPG,AFNE01.JPG,AFNE01.JPG,AFNE01.JPG,AFNE01.JPG,AFNE01.JPG,,,,,,,,,,,,,,,,,5,2,52,6,,,,,,,AFNE13.jpg,AFNE16.jpg,AFSA19.jpg,AFSA17.jpg,AFSA17.jpg,FS,4,num_4,32,num_2,1.05012061395,,,2017_Jun_12_1532,59.9971327229,FEMA4ImagesEEG,001,200446,
AFNE01.JPG,AFNE01.JPG,AFNE01.JPG,AFNE01.JPG,AFNE01.JPG,AFNE01.JPG,,,,,,,,,,,,,,,,,5,3,53,3,,,,,,,AFNE16.jpg,AFSA12.jpg,AFNE06.jpg,AFSA11.jpg,AFNE06.jpg,FN,3,num_2,32,num_6,0.616932970996,,,2017_Jun_12_1532,59.9971327229,FEMA4ImagesEEG,001,200446,
AFNE01.JPG,AFNE01.JPG,AFNE01.JPG,AFNE01.JPG,AFNE01.JPG,AFNE01.JPG,,,,,,,,,,,,,,,,,5,4,54,0,,,,,,,AFSA14.jpg,AFSA19.jpg,AFNE20.jpg,AFNE01.jpg,AFSA14.jpg,FS,4,num_8,32,num_2,1.1500597056,,,2017_Jun_12_1532,59.9971327229,FEMA4ImagesEEG,001,200446,
AFNE01.JPG,AFNE01.JPG,AFNE01.JPG,AFNE01.JPG,AFNE01.JPG,AFNE01.JPG,,,,,,,,,,,,,,,,,5,5,55,4,,,,,,,AFNE03.jpg,AFSA15.jpg,AFSA02.jpg,AFNE13.jpg,AFNE03.jpg,FN,3,num_8,16,num_8,1.23341594503,,,2017_Jun_12_1532,59.9971327229,FEMA4ImagesEEG,001,200446,
AFNE01.JPG,AFNE01.JPG,AFNE01.JPG,AFNE01.JPG,AFNE01.JPG,AFNE01.JPG,,,,,,,,,,,,,,,,,5,6,56,1,,,,,,,AFSA02.jpg,AFNE08.jpg,AFNE20.jpg,AFSA10.jpg,AFNE08.jpg,FN,3,num_6,16,num_6,0.966771751468,,,2017_Jun_12_1532,59.9971327229,FEMA4ImagesEEG,001,200446,
AFNE01.JPG,AFNE01.JPG,AFNE01.JPG,AFNE01.JPG,AFNE01.JPG,AFNE01.JPG,,,,,,,,,,,,,,,,,5,7,57,9,,,,,,,AFNE04.jpg,AFNE01.jpg,AFSA03.jpg,AFSA01.jpg,AFNE01.jpg,FN,3,num_6,16,num_6,1.00006222341,,,2017_Jun_12_1532,59.9971327229,FEMA4ImagesEEG,001,200446,
AFNE01.JPG,AFNE01.JPG,AFNE01.JPG,AFNE01.JPG,AFNE01.JPG,AFNE01.JPG,,,,,,,,,,,,,,,,,5,8,58,7,,,,,,,AFNE10.jpg,AFSA11.jpg,AFSA16.jpg,AFNE15.jpg,AFNE10.jpg,FN,3,num_8,16,num_8,0.900106453279,,,2017_Jun_12_1532,59.9971327229,FEMA4ImagesEEG,001,200446,
AFNE01.JPG,AFNE01.JPG,AFNE01.JPG,AFNE01.JPG,AFNE01.JPG,AFNE01.JPG,,,,,,,,,,,,,,,,,5,9,59,8,,,,,,,AFSA12.jpg,AFSA06.jpg,AFNE13.jpg,AFNE11.jpg,AFSA12.jpg,FS,4,num_8,16,num_8,0.583578030521,,,2017_Jun_12_1532,59.9971327229,FEMA4ImagesEEG,001,200446,
,,,,,,,,,,,,,,,,,,,,,,,,,,,,,,,,,,,,,,,,,,,space,3.61623343901,2017_Jun_12_1532,59.9971327229,FEMA4ImagesEEG,001,200446,
AFNE01.JPG,AFNE01.JPG,AFNE01.JPG,AFNE01.JPG,AFNE01.JPG,AFNE01.JPG,,,,,,,,,,,,,,,,,,,,,0,0,0,0,,,AMSA14.jpg,AMNE04.jpg,AMSA04.jpg,AMNE18.jpg,AMSA04.jpg,MS,2,num_2,16,num_2,0.750108971086,,,2017_Jun_12_1532,59.9971327229,FEMA4ImagesEEG,001,200446,
AFNE01.JPG,AFNE01.JPG,AFNE01.JPG,AFNE01.JPG,AFNE01.JPG,AFNE01.JPG,,,,,,,,,,,,,,,,,,,,,0,1,1,4,,,AMSA12.jpg,AMSA17.jpg,AMNE18.jpg,AMNE01.jpg,AMSA17.jpg,MS,2,num_6,32,num_8,0.666907007166,,,2017_Jun_12_1532,59.9971327229,FEMA4ImagesEEG,001,200446,
AFNE01.JPG,AFNE01.JPG,AFNE01.JPG,AFNE01.JPG,AFNE01.JPG,AFNE01.JPG,,,,,,,,,,,,,,,,,,,,,0,2,2,1,,,AMNE11.jpg,AMSA18.jpg,AMNE20.jpg,AMSA17.jpg,AMSA17.jpg,MS,2,num_4,16,num_4,0.633566499921,,,2017_Jun_12_1532,59.9971327229,FEMA4ImagesEEG,001,200446,
AFNE01.JPG,AFNE01.JPG,AFNE01.JPG,AFNE01.JPG,AFNE01.JPG,AFNE01.JPG,,,,,,,,,,,,,,,,,,,,,0,3,3,3,,,AMNE05.jpg,AMSA02.jpg,AMSA04.jpg,AMNE19.jpg,AMSA02.jpg,MS,2,num_6,16,num_6,0.783490853675,,,2017_Jun_12_1532,59.9971327229,FEMA4ImagesEEG,001,200446,
AFNE01.JPG,AFNE01.JPG,AFNE01.JPG,AFNE01.JPG,AFNE01.JPG,AFNE01.JPG,,,,,,,,,,,,,,,,,,,,,0,4,4,6,,,AMNE08.jpg,AMNE16.jpg,AMSA13.jpg,AMSA05.jpg,AMNE16.jpg,MN,1,num_6,16,num_6,0.616813976783,,,2017_Jun_12_1532,59.9971327229,FEMA4ImagesEEG,001,200446,
AFNE01.JPG,AFNE01.JPG,AFNE01.JPG,AFNE01.JPG,AFNE01.JPG,AFNE01.JPG,,,,,,,,,,,,,,,,,,,,,0,5,5,2,,,AMSA17.jpg,AMSA05.jpg,AMNE13.jpg,AMNE20.jpg,AMNE13.jpg,MN,1,num_2,32,num_6,0.833519736188,,,2017_Jun_12_1532,59.9971327229,FEMA4ImagesEEG,001,200446,
AFNE01.JPG,AFNE01.JPG,AFNE01.JPG,AFNE01.JPG,AFNE01.JPG,AFNE01.JPG,,,,,,,,,,,,,,,,,,,,,0,6,6,5,,,AMNE13.jpg,AMSA09.jpg,AMNE19.jpg,AMSA12.jpg,AMSA12.jpg,MS,2,num_4,16,num_4,0.633478617412,,,2017_Jun_12_1532,59.9971327229,FEMA4ImagesEEG,001,200446,
AFNE01.JPG,AFNE01.JPG,AFNE01.JPG,AFNE01.JPG,AFNE01.JPG,AFNE01.JPG,,,,,,,,,,,,,,,,,,,,,0,7,7,8,,,AMNE20.jpg,AMSA03.jpg,AMNE16.jpg,AMSA18.jpg,AMNE20.jpg,MN,1,num_8,32,num_2,0.750097103708,,,2017_Jun_12_1532,59.9971327229,FEMA4ImagesEEG,001,200446,
AFNE01.JPG,AFNE01.JPG,AFNE01.JPG,AFNE01.JPG,AFNE01.JPG,AFNE01.JPG,,,,,,,,,,,,,,,,,,,,,0,8,8,9,,,AMSA07.jpg,AMNE07.jpg,AMNE11.jpg,AMSA05.jpg,AMSA05.jpg,MS,2,num_4,16,num_4,0.716781614174,,,2017_Jun_12_1532,59.9971327229,FEMA4ImagesEEG,001,200446,
AFNE01.JPG,AFNE01.JPG,AFNE01.JPG,AFNE01.JPG,AFNE01.JPG,AFNE01.JPG,,,,,,,,,,,,,,,,,,,,,0,9,9,7,,,AMSA17.jpg,AMNE13.jpg,AMSA11.jpg,AMNE14.jpg,AMSA17.jpg,MS,2,num_8,32,num_2,0.916849354282,,,2017_Jun_12_1532,59.9971327229,FEMA4ImagesEEG,001,200446,
AFNE01.JPG,AFNE01.JPG,AFNE01.JPG,AFNE01.JPG,AFNE01.JPG,AFNE01.JPG,,,,,,,,,,,,,,,,,,,,,1,0,10,2,,,AMSA16.jpg,AMSA19.jpg,AMNE16.jpg,AMNE05.jpg,AMSA16.jpg,MS,2,num_8,16,num_8,1.16643888847,,,2017_Jun_12_1532,59.9971327229,FEMA4ImagesEEG,001,200446,
AFNE01.JPG,AFNE01.JPG,AFNE01.JPG,AFNE01.JPG,AFNE01.JPG,AFNE01.JPG,,,,,,,,,,,,,,,,,,,,,1,1,11,1,,,AMNE02.jpg,AMSA20.jpg,AMNE15.jpg,AMSA01.jpg,AMNE02.jpg,MN,1,num_8,16,num_8,0.733473196917,,,2017_Jun_12_1532,59.9971327229,FEMA4ImagesEEG,001,200446,
AFNE01.JPG,AFNE01.JPG,AFNE01.JPG,AFNE01.JPG,AFNE01.JPG,AFNE01.JPG,,,,,,,,,,,,,,,,,,,,,1,2,12,8,,,AMNE16.jpg,AMSA18.jpg,AMNE12.jpg,AMSA11.jpg,AMSA18.jpg,MS,2,num_6,16,num_6,0.716838705761,,,2017_Jun_12_1532,59.9971327229,FEMA4ImagesEEG,001,200446,
AFNE01.JPG,AFNE01.JPG,AFNE01.JPG,AFNE01.JPG,AFNE01.JPG,AFNE01.JPG,,,,,,,,,,,,,,,,,,,,,1,3,13,4,,,AMSA05.jpg,AMNE11.jpg,AMSA07.jpg,AMNE07.jpg,AMNE11.jpg,MN,1,num_6,32,num_4,0.583528315939,,,2017_Jun_12_1532,59.9971327229,FEMA4ImagesEEG,001,200446,
AFNE01.JPG,AFNE01.JPG,AFNE01.JPG,AFNE01.JPG,AFNE01.JPG,AFNE01.JPG,,,,,,,,,,,,,,,,,,,,,1,4,14,0,,,AMNE20.jpg,AMNE10.jpg,AMSA15.jpg,AMSA06.jpg,AMSA06.jpg,MS,2,num_4,16,num_4,0.716777444584,,,2017_Jun_12_1532,59.9971327229,FEMA4ImagesEEG,001,200446,
AFNE01.JPG,AFNE01.JPG,AFNE01.JPG,AFNE01.JPG,AFNE01.JPG,AFNE01.JPG,,,,,,,,,,,,,,,,,,,,,1,5,15,6,,,AMSA07.jpg,AMNE03.jpg,AMSA16.jpg,AMNE01.jpg,AMSA16.jpg,MS,2,num_2,16,num_2,0.933538050391,,,2017_Jun_12_1532,59.9971327229,FEMA4ImagesEEG,001,200446,
AFNE01.JPG,AFNE01.JPG,AFNE01.JPG,AFNE01.JPG,AFNE01.JPG,AFNE01.JPG,,,,,,,,,,,,,,,,,,,,,1,6,16,3,,,AMSA17.jpg,AMNE16.jpg,AMSA03.jpg,AMNE18.jpg,AMSA03.jpg,MS,2,num_2,16,num_2,0.616768752574,,,2017_Jun_12_1532,59.9971327229,FEMA4ImagesEEG,001,200446,
AFNE01.JPG,AFNE01.JPG,AFNE01.JPG,AFNE01.JPG,AFNE01.JPG,AFNE01.JPG,,,,,,,,,,,,,,,,,,,,,1,7,17,9,,,AMSA11.jpg,AMNE10.jpg,AMSA16.jpg,AMNE18.jpg,AMSA16.jpg,MS,2,num_2,32,num_6,0.500227564364,,,2017_Jun_12_1532,59.9971327229,FEMA4ImagesEEG,001,200446,
AFNE01.JPG,AFNE01.JPG,AFNE01.JPG,AFNE01.JPG,AFNE01.JPG,AFNE01.JPG,,,,,,,,,,,,,,,,,,,,,1,8,18,7,,,AMNE19.jpg,AMSA05.jpg,AMSA15.jpg,AMNE03.jpg,AMSA05.jpg,MS,2,num_6,16,num_6,0.616752074158,,,2017_Jun_12_1532,59.9971327229,FEMA4ImagesEEG,001,200446,
AFNE01.JPG,AFNE01.JPG,AFNE01.JPG,AFNE01.JPG,AFNE01.JPG,AFNE01.JPG,,,,,,,,,,,,,,,,,,,,,1,9,19,5,,,AMNE12.jpg,AMSA09.jpg,AMSA14.jpg,AMNE02.jpg,AMNE02.jpg,MN,1,num_4,32,num_2,0.700156424486,,,2017_Jun_12_1532,59.9971327229,FEMA4ImagesEEG,001,200446,
AFNE01.JPG,AFNE01.JPG,AFNE01.JPG,AFNE01.JPG,AFNE01.JPG,AFNE01.JPG,,,,,,,,,,,,,,,,,,,,,2,0,20,9,,,AMNE05.jpg,AMSA12.jpg,AMSA20.jpg,AMNE17.jpg,AMNE05.jpg,MN,1,num_8,16,num_8,0.866764342354,,,2017_Jun_12_1532,59.9971327229,FEMA4ImagesEEG,001,200446,
AFNE01.JPG,AFNE01.JPG,AFNE01.JPG,AFNE01.JPG,AFNE01.JPG,AFNE01.JPG,,,,,,,,,,,,,,,,,,,,,2,1,21,2,,,AMSA01.jpg,AMNE12.jpg,AMSA04.jpg,AMNE20.jpg,AMNE20.jpg,MN,1,num_4,16,num_4,0.683453295147,,,2017_Jun_12_1532,59.9971327229,FEMA4ImagesEEG,001,200446,
AFNE01.JPG,AFNE01.JPG,AFNE01.JPG,AFNE01.JPG,AFNE01.JPG,AFNE01.JPG,,,,,,,,,,,,,,,,,,,,,2,2,22,4,,,AMNE04.jpg,AMNE16.jpg,AMSA08.jpg,AMSA03.jpg,AMSA08.jpg,MS,2,num_2,16,num_2,0.966747054597,,,2017_Jun_12_1532,59.9971327229,FEMA4ImagesEEG,001,200446,
AFNE01.JPG,AFNE01.JPG,AFNE01.JPG,AFNE01.JPG,AFNE01.JPG,AFNE01.JPG,,,,,,,,,,,,,,,,,,,,,2,3,23,0,,,AMSA01.jpg,AMNE14.jpg,AMNE11.jpg,AMSA09.jpg,AMNE14.jpg,MN,1,num_6,16,num_6,1.41671576648,,,2017_Jun_12_1532,59.9971327229,FEMA4ImagesEEG,001,200446,
AFNE01.JPG,AFNE01.JPG,AFNE01.JPG,AFNE01.JPG,AFNE01.JPG,AFNE01.JPG,,,,,,,,,,,,,,,,,,,,,2,4,24,5,,,AMNE15.jpg,AMSA04.jpg,AMNE07.jpg,AMSA13.jpg,AMNE07.jpg,MN,1,num_2,32,num_8,0.983554744918,,,2017_Jun_12_1532,59.9971327229,FEMA4ImagesEEG,001,200446,
AFNE01.JPG,AFNE01.JPG,AFNE01.JPG,AFNE01.JPG,AFNE01.JPG,AFNE01.JPG,,,,,,,,,,,,,,,,,,,,,2,5,25,7,,,AMSA09.jpg,AMNE14.jpg,AMSA20.jpg,AMNE07.jpg,AMSA09.jpg,MS,2,num_8,16,num_8,0.883502753102,,,2017_Jun_12_1532,59.9971327229,FEMA4ImagesEEG,001,200446,
AFNE01.JPG,AFNE01.JPG,AFNE01.JPG,AFNE01.JPG,AFNE01.JPG,AFNE01.JPG,,,,,,,,,,,,,,,,,,,,,2,6,26,8,,,AMNE02.jpg,AMSA12.jpg,AMSA01.jpg,AMNE19.jpg,AMSA12.jpg,MS,2,num_6,16,num_6,0.80010738346,,,2017_Jun_12_1532,59.9971327229,FEMA4ImagesEEG,001,200446,
AFNE01.JPG,AFNE01.JPG,AFNE01.JPG,AFNE01.JPG,AFNE01.JPG,AFNE01.JPG,,,,,,,,,,,,,,,,,,,,,2,7,27,3,,,AMNE15.jpg,AMSA03.jpg,AMSA11.jpg,AMNE20.jpg,AMNE15.jpg,MN,1,num_8,16,num_8,0.683477671235,,,2017_Jun_12_1532,59.9971327229,FEMA4ImagesEEG,001,200446,
AFNE01.JPG,AFNE01.JPG,AFNE01.JPG,AFNE01.JPG,AFNE01.JPG,AFNE01.JPG,,,,,,,,,,,,,,,,,,,,,2,8,28,1,,,AMNE12.jpg,AMNE02.jpg,AMSA17.jpg,AMSA14.jpg,AMNE12.jpg,MN,1,num_8,16,num_8,0.950061565847,,,2017_Jun_12_1532,59.9971327229,FEMA4ImagesEEG,001,200446,
AFNE01.JPG,AFNE01.JPG,AFNE01.JPG,AFNE01.JPG,AFNE01.JPG,AFNE01.JPG,,,,,,,,,,,,,,,,,,,,,2,9,29,6,,,AMNE18.jpg,AMSA13.jpg,AMSA17.jpg,AMNE03.jpg,AMSA13.jpg,MS,2,num_6,16,num_6,0.633598894579,,,2017_Jun_12_1532,59.9971327229,FEMA4ImagesEEG,001,200446,
AFNE01.JPG,AFNE01.JPG,AFNE01.JPG,AFNE01.JPG,AFNE01.JPG,AFNE01.JPG,,,,,,,,,,,,,,,,,,,,,3,0,30,2,,,AMSA01.jpg,AMNE09.jpg,AMSA02.jpg,AMNE15.jpg,AMNE09.jpg,MN,1,num_6,32,num_4,1.08344765007,,,2017_Jun_12_1532,59.9971327229,FEMA4ImagesEEG,001,200446,
AFNE01.JPG,AFNE01.JPG,AFNE01.JPG,AFNE01.JPG,AFNE01.JPG,AFNE01.JPG,,,,,,,,,,,,,,,,,,,,,3,1,31,5,,,AMSA13.jpg,AMNE17.jpg,AMNE02.jpg,AMSA11.jpg,AMSA11.jpg,MS,2,num_4,16,num_4,0.516787002678,,,2017_Jun_12_1532,59.9971327229,FEMA4ImagesEEG,001,200446,
AFNE01.JPG,AFNE01.JPG,AFNE01.JPG,AFNE01.JPG,AFNE01.JPG,AFNE01.JPG,,,,,,,,,,,,,,,,,,,,,3,2,32,8,,,AMNE12.jpg,AMNE08.jpg,AMSA12.jpg,AMSA08.jpg,AMNE08.jpg,MN,1,num_6,16,num_6,1.1667525713,,,2017_Jun_12_1532,59.9971327229,FEMA4ImagesEEG,001,200446,
AFNE01.JPG,AFNE01.JPG,AFNE01.JPG,AFNE01.JPG,AFNE01.JPG,AFNE01.JPG,,,,,,,,,,,,,,,,,,,,,3,3,33,6,,,AMNE13.jpg,AMSA13.jpg,AMSA18.jpg,AMNE09.jpg,AMNE13.jpg,MN,1,num_8,16,num_8,0.799836679653,,,2017_Jun_12_1532,59.9971327229,FEMA4ImagesEEG,001,200446,
AFNE01.JPG,AFNE01.JPG,AFNE01.JPG,AFNE01.JPG,AFNE01.JPG,AFNE01.JPG,,,,,,,,,,,,,,,,,,,,,3,4,34,3,,,AMSA13.jpg,AMNE08.jpg,AMNE14.jpg,AMSA09.jpg,AMNE08.jpg,MN,1,num_6,16,num_6,1.11680515646,,,2017_Jun_12_1532,59.9971327229,FEMA4ImagesEEG,001,200446,
AFNE01.JPG,AFNE01.JPG,AFNE01.JPG,AFNE01.JPG,AFNE01.JPG,AFNE01.JPG,,,,,,,,,,,,,,,,,,,,,3,5,35,0,,,AMNE02.jpg,AMNE06.jpg,AMSA17.jpg,AMSA09.jpg,AMNE02.jpg,MN,1,num_8,32,num_2,0.76676815917,,,2017_Jun_12_1532,59.9971327229,FEMA4ImagesEEG,001,200446,
AFNE01.JPG,AFNE01.JPG,AFNE01.JPG,AFNE01.JPG,AFNE01.JPG,AFNE01.JPG,,,,,,,,,,,,,,,,,,,,,3,6,36,1,,,AMNE17.jpg,AMSA16.jpg,AMSA15.jpg,AMNE19.jpg,AMNE19.jpg,MN,1,num_4,32,num_8,0.81678581587,,,2017_Jun_12_1532,59.9971327229,FEMA4ImagesEEG,001,200446,
AFNE01.JPG,AFNE01.JPG,AFNE01.JPG,AFNE01.JPG,AFNE01.JPG,AFNE01.JPG,,,,,,,,,,,,,,,,,,,,,3,7,37,4,,,AMSA01.jpg,AMNE10.jpg,AMNE14.jpg,AMSA05.jpg,AMNE14.jpg,MN,1,num_2,32,num_8,1.08340402954,,,2017_Jun_12_1532,59.9971327229,FEMA4ImagesEEG,001,200446,
AFNE01.JPG,AFNE01.JPG,AFNE01.JPG,AFNE01.JPG,AFNE01.JPG,AFNE01.JPG,,,,,,,,,,,,,,,,,,,,,3,8,38,7,,,AMNE14.jpg,AMSA13.jpg,AMNE19.jpg,AMSA19.jpg,AMNE19.jpg,MN,1,num_2,32,num_4,1.11673459387,,,2017_Jun_12_1532,59.9971327229,FEMA4ImagesEEG,001,200446,
