IPosition2,IPosition3,IPosition1,IPosition6,IPosition4,IPosition5,TrialsF1.thisRepN,TrialsF1.thisTrialN,TrialsF1.thisN,TrialsF1.thisIndex,TrialsM1.thisRepN,TrialsM1.thisTrialN,TrialsM1.thisN,TrialsM1.thisIndex,TrialsF2.thisRepN,TrialsF2.thisTrialN,TrialsF2.thisN,TrialsF2.thisIndex,TrialsM2.thisRepN,TrialsM2.thisTrialN,TrialsM2.thisN,TrialsM2.thisIndex,TrialsF3.thisRepN,TrialsF3.thisTrialN,TrialsF3.thisN,TrialsF3.thisIndex,TrialsM3.thisRepN,TrialsM3.thisTrialN,TrialsM3.thisN,TrialsM3.thisIndex,InstrKey_resp.keys,InstrKey_resp.rt,Image0 _Position,Image1 _Position,Image2 _Position,Image3 _Position,Center_image,condition,code,correct_answer,accuracy,Key_Resp.keys,Key_Resp.rt,BreakKey_resp.keys,BreakKey_resp.rt,date,frameRate,expName,session,participant,
,,,,,,,,,,,,,,,,,,,,,,,,,,,,,,space,9.74957622238,,,,,,,,,,,,,,2017_May_24_1328,60.0070250389,FEMA4ImagesEEG,001,200476,
AFNE23.JPG,AFNE24.JPG,AFNE22.JPG,AFSA24.JPG,AFSA22.JPG,AFSA23.JPG,0,0,0,8,,,,,,,,,,,,,,,,,,,,,,,AFSA19.jpg,AFSA10.jpg,AFNE08.jpg,AFNE17.jpg,AFSA19.jpg,FS,4,num_8,16,num_8,1.45004427817,,,2017_May_24_1328,60.0070250389,FEMA4ImagesEEG,001,200476,
AFSA25.JPG,AFNE24.JPG,AFSA24.JPG,AFNE21.JPG,AFSA21.JPG,AFNE25.JPG,0,1,1,2,,,,,,,,,,,,,,,,,,,,,,,AFNE14.jpg,AFSA05.jpg,AFSA01.jpg,AFNE03.jpg,AFSA05.jpg,FS,4,num_6,32,num_2,1.05016692914,,,2017_May_24_1328,60.0070250389,FEMA4ImagesEEG,001,200476,
AFNE22.JPG,AFSA24.JPG,AFSA22.JPG,AFNE25.JPG,AFNE24.JPG,AFSA25.JPG,0,2,2,6,,,,,,,,,,,,,,,,,,,,,,,AFSA07.jpg,AFNE13.jpg,AFSA10.jpg,AFNE07.jpg,AFNE13.jpg,FN,3,num_6,32,num_4,0.70021691639,,,2017_May_24_1328,60.0070250389,FEMA4ImagesEEG,001,200476,
AMSA21.JPG,AMNE22.JPG,AMNE21.JPG,AMSA23.JPG,AMSA22.JPG,AMNE23.JPG,0,3,3,1,,,,,,,,,,,,,,,,,,,,,,,AFNE04.jpg,AFSA06.jpg,AFSA19.jpg,AFNE12.jpg,AFSA06.jpg,FS,4,num_6,16,num_6,0.633473828086,,,2017_May_24_1328,60.0070250389,FEMA4ImagesEEG,001,200476,
AMSA25.JPG,AMNE24.JPG,AMSA24.JPG,AMNE26.JPG,AMSA21.JPG,AMNE25.JPG,0,4,4,3,,,,,,,,,,,,,,,,,,,,,,,AFNE01.jpg,AFSA15.jpg,AFNE02.jpg,AFSA14.jpg,AFNE01.jpg,FN,3,num_8,16,num_8,0.966624125838,,,2017_May_24_1328,60.0070250389,FEMA4ImagesEEG,001,200476,
AFSA21.JPG,AFNE23.JPG,AFNE21.JPG,AFSA25.JPG,AFNE25.JPG,AFSA23.JPG,0,5,5,4,,,,,,,,,,,,,,,,,,,,,,,AFSA20.jpg,AFNE07.jpg,AFSA17.jpg,AFNE19.jpg,AFSA20.jpg,FS,4,num_8,16,num_8,0.816762894043,,,2017_May_24_1328,60.0070250389,FEMA4ImagesEEG,001,200476,
AFSA21.JPG,AFNE22.JPG,AFNE21.JPG,AFSA23.JPG,AFSA22.JPG,AFNE23.JPG,0,6,6,0,,,,,,,,,,,,,,,,,,,,,,,AFSA02.jpg,AFSA19.jpg,AFNE04.jpg,AFNE09.jpg,AFSA19.jpg,FS,4,num_6,32,num_2,0.866766887135,,,2017_May_24_1328,60.0070250389,FEMA4ImagesEEG,001,200476,
AMSA21.JPG,AMNE23.JPG,AMNE21.JPG,AMSA25.JPG,AMNE25.JPG,AMSA23.JPG,0,7,7,5,,,,,,,,,,,,,,,,,,,,,,,AFNE14.jpg,AFNE11.jpg,AFSA02.jpg,AFSA16.jpg,AFSA16.jpg,FS,4,num_4,32,num_8,1.01676443347,,,2017_May_24_1328,60.0070250389,FEMA4ImagesEEG,001,200476,
AMNE22.JPG,AMSA24.JPG,AMSA22.JPG,AMNE25.JPG,AMNE24.JPG,AMSA25.JPG,0,8,8,7,,,,,,,,,,,,,,,,,,,,,,,AFSA08.jpg,AFSA07.jpg,AFNE18.jpg,AFNE01.jpg,AFNE01.jpg,FN,3,num_4,16,num_4,0.566775322659,,,2017_May_24_1328,60.0070250389,FEMA4ImagesEEG,001,200476,
AMNE23.JPG,AMNE24.JPG,AMNE22.JPG,AMSA24.JPG,AMSA22.JPG,AMSA23.JPG,0,9,9,9,,,,,,,,,,,,,,,,,,,,,,,AFNE18.jpg,AFSA04.jpg,AFNE12.jpg,AFSA17.jpg,AFSA04.jpg,FS,4,num_6,16,num_6,0.616763278842,,,2017_May_24_1328,60.0070250389,FEMA4ImagesEEG,001,200476,
AMNE22.JPG,AMSA24.JPG,AMSA22.JPG,AMNE25.JPG,AMNE24.JPG,AMSA25.JPG,,,,,0,0,0,7,,,,,,,,,,,,,,,,,,,AMNE04.jpg,AMNE07.jpg,AMSA07.jpg,AMSA02.jpg,AMSA02.jpg,MS,2,num_4,32,num_8,0.700194785255,,,2017_May_24_1328,60.0070250389,FEMA4ImagesEEG,001,200476,
AFSA21.JPG,AFNE23.JPG,AFNE21.JPG,AFSA25.JPG,AFNE25.JPG,AFSA23.JPG,,,,,0,1,1,4,,,,,,,,,,,,,,,,,,,AMSA11.jpg,AMNE08.jpg,AMNE16.jpg,AMSA15.jpg,AMSA15.jpg,MS,2,num_4,32,num_2,1.11676055263,,,2017_May_24_1328,60.0070250389,FEMA4ImagesEEG,001,200476,
AMNE23.JPG,AMNE24.JPG,AMNE22.JPG,AMSA24.JPG,AMSA22.JPG,AMSA23.JPG,,,,,0,2,2,9,,,,,,,,,,,,,,,,,,,AMSA12.jpg,AMNE19.jpg,AMSA11.jpg,AMNE02.jpg,AMSA12.jpg,MS,2,num_8,32,num_4,0.93343941262,,,2017_May_24_1328,60.0070250389,FEMA4ImagesEEG,001,200476,
AMSA21.JPG,AMNE22.JPG,AMNE21.JPG,AMSA23.JPG,AMSA22.JPG,AMNE23.JPG,,,,,0,3,3,1,,,,,,,,,,,,,,,,,,,AMNE02.jpg,AMSA14.jpg,AMNE15.jpg,AMSA15.jpg,AMSA14.jpg,MS,2,num_6,16,num_6,0.650121512241,,,2017_May_24_1328,60.0070250389,FEMA4ImagesEEG,001,200476,
AMSA25.JPG,AMNE24.JPG,AMSA24.JPG,AMNE26.JPG,AMSA21.JPG,AMNE25.JPG,,,,,0,4,4,3,,,,,,,,,,,,,,,,,,,AMNE12.jpg,AMNE14.jpg,AMSA06.jpg,AMSA03.jpg,AMSA03.jpg,MS,2,num_4,16,num_4,0.500159888878,,,2017_May_24_1328,60.0070250389,FEMA4ImagesEEG,001,200476,
AFNE23.JPG,AFNE24.JPG,AFNE22.JPG,AFSA24.JPG,AFSA22.JPG,AFSA23.JPG,,,,,0,5,5,8,,,,,,,,,,,,,,,,,,,AMSA13.jpg,AMNE15.jpg,AMSA01.jpg,AMNE09.jpg,AMSA01.jpg,MS,2,num_2,16,num_2,0.533527423744,,,2017_May_24_1328,60.0070250389,FEMA4ImagesEEG,001,200476,
AFNE22.JPG,AFSA24.JPG,AFSA22.JPG,AFNE25.JPG,AFNE24.JPG,AFSA25.JPG,,,,,0,6,6,6,,,,,,,,,,,,,,,,,,,AMSA18.jpg,AMNE13.jpg,AMNE16.jpg,AMSA01.jpg,AMSA18.jpg,MS,2,num_8,16,num_8,0.58346342016,,,2017_May_24_1328,60.0070250389,FEMA4ImagesEEG,001,200476,
AMSA21.JPG,AMNE23.JPG,AMNE21.JPG,AMSA25.JPG,AMNE25.JPG,AMSA23.JPG,,,,,0,7,7,5,,,,,,,,,,,,,,,,,,,AMNE09.jpg,AMSA06.jpg,AMNE17.jpg,AMSA05.jpg,AMSA06.jpg,MS,2,num_6,32,num_2,0.850112146698,,,2017_May_24_1328,60.0070250389,FEMA4ImagesEEG,001,200476,
AFSA21.JPG,AFNE22.JPG,AFNE21.JPG,AFSA23.JPG,AFSA22.JPG,AFNE23.JPG,,,,,0,8,8,0,,,,,,,,,,,,,,,,,,,AMSA15.jpg,AMNE16.jpg,AMSA05.jpg,AMNE17.jpg,AMNE17.jpg,MN,1,num_4,32,num_8,0.750113782473,,,2017_May_24_1328,60.0070250389,FEMA4ImagesEEG,001,200476,
AFSA25.JPG,AFNE24.JPG,AFSA24.JPG,AFNE21.JPG,AFSA21.JPG,AFNE25.JPG,,,,,0,9,9,2,,,,,,,,,,,,,,,,,,,AMNE20.jpg,AMSA14.jpg,AMSA18.jpg,AMNE05.jpg,AMNE05.jpg,MN,1,num_4,16,num_4,0.666780743166,,,2017_May_24_1328,60.0070250389,FEMA4ImagesEEG,001,200476,
AMNE22.JPG,AMSA24.JPG,AMSA22.JPG,AMNE25.JPG,AMNE24.JPG,AMSA25.JPG,,,,,,,,,0,0,0,7,,,,,,,,,,,,,,,AFSA19.jpg,AFNE01.jpg,AFNE11.jpg,AFSA03.jpg,AFSA19.jpg,FS,4,num_8,32,num_6,1.16650795389,,,2017_May_24_1328,60.0070250389,FEMA4ImagesEEG,001,200476,
AFNE23.JPG,AFNE24.JPG,AFNE22.JPG,AFSA24.JPG,AFSA22.JPG,AFSA23.JPG,,,,,,,,,0,1,1,8,,,,,,,,,,,,,,,AFNE13.jpg,AFNE05.jpg,AFSA20.jpg,AFSA10.jpg,AFNE05.jpg,FN,3,num_6,16,num_6,0.966770383297,,,2017_May_24_1328,60.0070250389,FEMA4ImagesEEG,001,200476,
AMSA21.JPG,AMNE23.JPG,AMNE21.JPG,AMSA25.JPG,AMNE25.JPG,AMSA23.JPG,,,,,,,,,0,2,2,5,,,,,,,,,,,,,,,AFSA14.jpg,AFNE19.jpg,AFNE10.jpg,AFSA07.jpg,AFSA14.jpg,FS,4,num_8,16,num_8,0.666819231934,,,2017_May_24_1328,60.0070250389,FEMA4ImagesEEG,001,200476,
AFNE22.JPG,AFSA24.JPG,AFSA22.JPG,AFNE25.JPG,AFNE24.JPG,AFSA25.JPG,,,,,,,,,0,3,3,6,,,,,,,,,,,,,,,AFNE17.jpg,AFSA04.jpg,AFNE16.jpg,AFSA19.jpg,AFNE16.jpg,FN,3,num_2,32,num_8,0.850082638673,,,2017_May_24_1328,60.0070250389,FEMA4ImagesEEG,001,200476,
AFSA25.JPG,AFNE24.JPG,AFSA24.JPG,AFNE21.JPG,AFSA21.JPG,AFNE25.JPG,,,,,,,,,0,4,4,2,,,,,,,,,,,,,,,AFNE10.jpg,AFNE16.jpg,AFSA07.jpg,AFSA12.jpg,AFNE10.jpg,FN,3,num_8,32,num_6,0.900155590964,,,2017_May_24_1328,60.0070250389,FEMA4ImagesEEG,001,200476,
AFSA21.JPG,AFNE22.JPG,AFNE21.JPG,AFSA23.JPG,AFSA22.JPG,AFNE23.JPG,,,,,,,,,0,5,5,0,,,,,,,,,,,,,,,AFSA04.jpg,AFNE09.jpg,AFNE19.jpg,AFSA20.jpg,AFSA20.jpg,FS,4,num_4,16,num_4,1.06672865502,,,2017_May_24_1328,60.0070250389,FEMA4ImagesEEG,001,200476,
AMSA25.JPG,AMNE24.JPG,AMSA24.JPG,AMNE26.JPG,AMSA21.JPG,AMNE25.JPG,,,,,,,,,0,6,6,3,,,,,,,,,,,,,,,AFSA06.jpg,AFSA15.jpg,AFNE05.jpg,AFNE12.jpg,AFNE12.jpg,FN,3,num_4,16,num_4,1.06661864126,,,2017_May_24_1328,60.0070250389,FEMA4ImagesEEG,001,200476,
AMSA21.JPG,AMNE22.JPG,AMNE21.JPG,AMSA23.JPG,AMSA22.JPG,AMNE23.JPG,,,,,,,,,0,7,7,1,,,,,,,,,,,,,,,AFNE11.jpg,AFSA13.jpg,AFNE20.jpg,AFSA04.jpg,AFNE20.jpg,FN,3,num_2,32,num_4,0.933467958588,,,2017_May_24_1328,60.0070250389,FEMA4ImagesEEG,001,200476,
AFSA21.JPG,AFNE23.JPG,AFNE21.JPG,AFSA25.JPG,AFNE25.JPG,AFSA23.JPG,,,,,,,,,0,8,8,4,,,,,,,,,,,,,,,AFNE12.jpg,AFSA16.jpg,AFNE15.jpg,AFSA06.jpg,AFSA06.jpg,FS,4,num_4,32,num_8,0.650150699657,,,2017_May_24_1328,60.0070250389,FEMA4ImagesEEG,001,200476,
AMNE23.JPG,AMNE24.JPG,AMNE22.JPG,AMSA24.JPG,AMSA22.JPG,AMSA23.JPG,,,,,,,,,0,9,9,9,,,,,,,,,,,,,,,AFNE08.jpg,AFSA07.jpg,AFNE14.jpg,AFSA14.jpg,AFNE14.jpg,FN,3,num_2,32,num_8,0.73346449458,,,2017_May_24_1328,60.0070250389,FEMA4ImagesEEG,001,200476,
AFSA21.JPG,AFNE22.JPG,AFNE21.JPG,AFSA23.JPG,AFSA22.JPG,AFNE23.JPG,,,,,,,,,,,,,0,0,0,0,,,,,,,,,,,AMNE17.jpg,AMNE06.jpg,AMSA10.jpg,AMSA11.jpg,AMNE17.jpg,MN,1,num_8,32,num_4,1.25008700078,,,2017_May_24_1328,60.0070250389,FEMA4ImagesEEG,001,200476,
AFSA21.JPG,AFNE23.JPG,AFNE21.JPG,AFSA25.JPG,AFNE25.JPG,AFSA23.JPG,,,,,,,,,,,,,0,1,1,4,,,,,,,,,,,AMNE17.jpg,AMNE18.jpg,AMSA09.jpg,AMSA02.jpg,AMNE17.jpg,MN,1,num_8,32,num_4,0.666796138743,,,2017_May_24_1328,60.0070250389,FEMA4ImagesEEG,001,200476,
AFSA25.JPG,AFNE24.JPG,AFSA24.JPG,AFNE21.JPG,AFSA21.JPG,AFNE25.JPG,,,,,,,,,,,,,0,2,2,2,,,,,,,,,,,AMNE15.jpg,AMSA05.jpg,AMSA15.jpg,AMNE06.jpg,AMSA05.jpg,MS,2,num_6,32,num_8,0.833473122446,,,2017_May_24_1328,60.0070250389,FEMA4ImagesEEG,001,200476,
AMSA21.JPG,AMNE23.JPG,AMNE21.JPG,AMSA25.JPG,AMNE25.JPG,AMSA23.JPG,,,,,,,,,,,,,0,3,3,5,,,,,,,,,,,AMNE02.jpg,AMSA03.jpg,AMSA10.jpg,AMNE15.jpg,AMSA10.jpg,MS,2,num_2,32,num_4,1.23340018617,,,2017_May_24_1328,60.0070250389,FEMA4ImagesEEG,001,200476,
AMSA21.JPG,AMNE22.JPG,AMNE21.JPG,AMSA23.JPG,AMSA22.JPG,AMNE23.JPG,,,,,,,,,,,,,0,4,4,1,,,,,,,,,,,AMNE14.jpg,AMNE08.jpg,AMSA17.jpg,AMSA03.jpg,AMNE14.jpg,MN,1,num_8,32,num_6,1.16670328449,,,2017_May_24_1328,60.0070250389,FEMA4ImagesEEG,001,200476,
AMSA25.JPG,AMNE24.JPG,AMSA24.JPG,AMNE26.JPG,AMSA21.JPG,AMNE25.JPG,,,,,,,,,,,,,0,5,5,3,,,,,,,,,,,AMSA07.jpg,AMSA20.jpg,AMNE16.jpg,AMNE06.jpg,AMNE16.jpg,MN,1,num_2,32,num_4,0.800002309377,,,2017_May_24_1328,60.0070250389,FEMA4ImagesEEG,001,200476,
AFNE23.JPG,AFNE24.JPG,AFNE22.JPG,AFSA24.JPG,AFSA22.JPG,AFSA23.JPG,,,,,,,,,,,,,0,6,6,8,,,,,,,,,,,AMNE14.jpg,AMSA12.jpg,AMNE07.jpg,AMSA13.jpg,AMNE07.jpg,MN,1,num_2,16,num_2,1.10008400178,,,2017_May_24_1328,60.0070250389,FEMA4ImagesEEG,001,200476,
AMNE22.JPG,AMSA24.JPG,AMSA22.JPG,AMNE25.JPG,AMNE24.JPG,AMSA25.JPG,,,,,,,,,,,,,0,7,7,7,,,,,,,,,,,AMNE02.jpg,AMSA14.jpg,AMNE15.jpg,AMSA19.jpg,AMNE02.jpg,MN,1,num_8,32,num_2,0.933430752717,,,2017_May_24_1328,60.0070250389,FEMA4ImagesEEG,001,200476,
AMNE23.JPG,AMNE24.JPG,AMNE22.JPG,AMSA24.JPG,AMSA22.JPG,AMSA23.JPG,,,,,,,,,,,,,0,8,8,9,,,,,,,,,,,AMSA02.jpg,AMSA14.jpg,AMNE08.jpg,AMNE06.jpg,AMSA02.jpg,MS,2,num_8,32,num_6,0.883448890643,,,2017_May_24_1328,60.0070250389,FEMA4ImagesEEG,001,200476,
AFNE22.JPG,AFSA24.JPG,AFSA22.JPG,AFNE25.JPG,AFNE24.JPG,AFSA25.JPG,,,,,,,,,,,,,0,9,9,6,,,,,,,,,,,AMNE09.jpg,AMSA10.jpg,AMNE13.jpg,AMSA18.jpg,AMNE13.jpg,MN,1,num_2,32,num_8,0.933451921563,,,2017_May_24_1328,60.0070250389,FEMA4ImagesEEG,001,200476,
AMSA21.JPG,AMNE23.JPG,AMNE21.JPG,AMSA25.JPG,AMNE25.JPG,AMSA23.JPG,,,,,,,,,,,,,,,,,0,0,0,5,,,,,,,AFNE08.jpg,AFSA10.jpg,AFSA09.jpg,AFNE06.jpg,AFSA09.jpg,FS,4,num_2,32,num_4,1.65018982987,,,2017_May_24_1328,60.0070250389,FEMA4ImagesEEG,001,200476,
AMSA25.JPG,AMNE24.JPG,AMSA24.JPG,AMNE26.JPG,AMSA21.JPG,AMNE25.JPG,,,,,,,,,,,,,,,,,0,1,1,3,,,,,,,AFNE08.jpg,AFNE14.jpg,AFSA17.jpg,AFSA01.jpg,AFSA17.jpg,FS,4,num_2,32,num_4,0.66677849798,,,2017_May_24_1328,60.0070250389,FEMA4ImagesEEG,001,200476,
AFNE22.JPG,AFSA24.JPG,AFSA22.JPG,AFNE25.JPG,AFNE24.JPG,AFSA25.JPG,,,,,,,,,,,,,,,,,0,2,2,6,,,,,,,AFSA16.jpg,AFNE16.jpg,AFSA17.jpg,AFNE15.jpg,AFSA16.jpg,FS,4,num_8,16,num_8,0.783455978846,,,2017_May_24_1328,60.0070250389,FEMA4ImagesEEG,001,200476,
AFNE23.JPG,AFNE24.JPG,AFNE22.JPG,AFSA24.JPG,AFSA22.JPG,AFSA23.JPG,,,,,,,,,,,,,,,,,0,3,3,8,,,,,,,AFNE03.jpg,AFSA16.jpg,AFSA03.jpg,AFNE01.jpg,AFSA03.jpg,FS,4,num_2,16,num_2,0.88349315268,,,2017_May_24_1328,60.0070250389,FEMA4ImagesEEG,001,200476,
AFSA25.JPG,AFNE24.JPG,AFSA24.JPG,AFNE21.JPG,AFSA21.JPG,AFNE25.JPG,,,,,,,,,,,,,,,,,0,4,4,2,,,,,,,AFSA08.jpg,AFNE10.jpg,AFSA09.jpg,AFNE11.jpg,AFSA08.jpg,FS,4,num_8,16,num_8,1.08341963915,,,2017_May_24_1328,60.0070250389,FEMA4ImagesEEG,001,200476,
AFSA21.JPG,AFNE23.JPG,AFNE21.JPG,AFSA25.JPG,AFNE25.JPG,AFSA23.JPG,,,,,,,,,,,,,,,,,0,5,5,4,,,,,,,AFNE02.jpg,AFSA01.jpg,AFSA11.jpg,AFNE05.jpg,AFNE02.jpg,FN,3,num_8,32,num_4,0.850154163665,,,2017_May_24_1328,60.0070250389,FEMA4ImagesEEG,001,200476,
AMNE22.JPG,AMSA24.JPG,AMSA22.JPG,AMNE25.JPG,AMNE24.JPG,AMSA25.JPG,,,,,,,,,,,,,,,,,0,6,6,7,,,,,,,AFNE08.jpg,AFSA15.jpg,AFSA17.jpg,AFNE18.jpg,AFSA15.jpg,FS,4,num_6,32,num_4,1.06678446371,,,2017_May_24_1328,60.0070250389,FEMA4ImagesEEG,001,200476,
AMSA21.JPG,AMNE22.JPG,AMNE21.JPG,AMSA23.JPG,AMSA22.JPG,AMNE23.JPG,,,,,,,,,,,,,,,,,0,7,7,1,,,,,,,AFNE16.jpg,AFSA04.jpg,AFSA05.jpg,AFNE12.jpg,AFSA05.jpg,FS,4,num_2,16,num_2,1.06660869822,,,2017_May_24_1328,60.0070250389,FEMA4ImagesEEG,001,200476,
AMNE23.JPG,AMNE24.JPG,AMNE22.JPG,AMSA24.JPG,AMSA22.JPG,AMSA23.JPG,,,,,,,,,,,,,,,,,0,8,8,9,,,,,,,AFNE11.jpg,AFNE15.jpg,AFSA01.jpg,AFSA08.jpg,AFSA08.jpg,FS,4,num_4,32,num_8,1.16676743247,,,2017_May_24_1328,60.0070250389,FEMA4ImagesEEG,001,200476,
AFSA21.JPG,AFNE22.JPG,AFNE21.JPG,AFSA23.JPG,AFSA22.JPG,AFNE23.JPG,,,,,,,,,,,,,,,,,0,9,9,0,,,,,,,AFNE15.jpg,AFSA17.jpg,AFSA07.jpg,AFNE08.jpg,AFSA17.jpg,FS,4,num_6,32,num_2,1.41670593061,,,2017_May_24_1328,60.0070250389,FEMA4ImagesEEG,001,200476,
AFSA21.JPG,AFNE23.JPG,AFNE21.JPG,AFSA25.JPG,AFNE25.JPG,AFSA23.JPG,,,,,,,,,,,,,,,,,,,,,0,0,0,4,,,AMNE11.jpg,AMSA14.jpg,AMNE13.jpg,AMSA03.jpg,AMSA14.jpg,MS,2,num_6,16,num_6,0.71674753062,,,2017_May_24_1328,60.0070250389,FEMA4ImagesEEG,001,200476,
AFSA21.JPG,AFNE22.JPG,AFNE21.JPG,AFSA23.JPG,AFSA22.JPG,AFNE23.JPG,,,,,,,,,,,,,,,,,,,,,0,1,1,0,,,AMSA11.jpg,AMNE19.jpg,AMNE12.jpg,AMSA08.jpg,AMSA11.jpg,MS,2,num_8,32,num_4,0.716774472734,,,2017_May_24_1328,60.0070250389,FEMA4ImagesEEG,001,200476,
AMSA25.JPG,AMNE24.JPG,AMSA24.JPG,AMNE26.JPG,AMSA21.JPG,AMNE25.JPG,,,,,,,,,,,,,,,,,,,,,0,2,2,3,,,AMNE11.jpg,AMSA10.jpg,AMSA19.jpg,AMNE06.jpg,AMSA10.jpg,MS,2,num_6,32,num_8,0.900111008086,,,2017_May_24_1328,60.0070250389,FEMA4ImagesEEG,001,200476,
AMSA21.JPG,AMNE22.JPG,AMNE21.JPG,AMSA23.JPG,AMSA22.JPG,AMNE23.JPG,,,,,,,,,,,,,,,,,,,,,0,3,3,1,,,AMNE19.jpg,AMSA01.jpg,AMSA18.jpg,AMNE02.jpg,AMNE19.jpg,MN,1,num_8,32,num_4,0.983234283514,,,2017_May_24_1328,60.0070250389,FEMA4ImagesEEG,001,200476,
AMNE23.JPG,AMNE24.JPG,AMNE22.JPG,AMSA24.JPG,AMSA22.JPG,AMSA23.JPG,,,,,,,,,,,,,,,,,,,,,0,4,4,9,,,AMNE11.jpg,AMNE10.jpg,AMSA03.jpg,AMSA18.jpg,AMSA03.jpg,MS,2,num_2,32,num_4,0.683454728103,,,2017_May_24_1328,60.0070250389,FEMA4ImagesEEG,001,200476,
AMNE22.JPG,AMSA24.JPG,AMSA22.JPG,AMNE25.JPG,AMNE24.JPG,AMSA25.JPG,,,,,,,,,,,,,,,,,,,,,0,5,5,7,,,AMNE14.jpg,AMNE05.jpg,AMSA17.jpg,AMSA02.jpg,AMSA17.jpg,MS,2,num_2,16,num_2,0.500174001441,,,2017_May_24_1328,60.0070250389,FEMA4ImagesEEG,001,200476,
AFSA25.JPG,AFNE24.JPG,AFSA24.JPG,AFNE21.JPG,AFSA21.JPG,AFNE25.JPG,,,,,,,,,,,,,,,,,,,,,0,6,6,2,,,AMSA19.jpg,AMNE11.jpg,AMSA09.jpg,AMNE20.jpg,AMSA19.jpg,MS,2,num_8,16,num_8,0.833454519627,,,2017_May_24_1328,60.0070250389,FEMA4ImagesEEG,001,200476,
AFNE22.JPG,AFSA24.JPG,AFSA22.JPG,AFNE25.JPG,AFNE24.JPG,AFSA25.JPG,,,,,,,,,,,,,,,,,,,,,0,7,7,6,,,AMSA01.jpg,AMNE09.jpg,AMSA16.jpg,AMNE17.jpg,AMNE17.jpg,MN,1,num_4,32,num_8,1.00009846722,,,2017_May_24_1328,60.0070250389,FEMA4ImagesEEG,001,200476,
AFNE23.JPG,AFNE24.JPG,AFNE22.JPG,AFSA24.JPG,AFSA22.JPG,AFSA23.JPG,,,,,,,,,,,,,,,,,,,,,0,8,8,8,,,AMSA14.jpg,AMNE20.jpg,AMSA03.jpg,AMNE12.jpg,AMSA14.jpg,MS,2,num_8,16,num_8,0.916597680887,,,2017_May_24_1328,60.0070250389,FEMA4ImagesEEG,001,200476,
AMSA21.JPG,AMNE23.JPG,AMNE21.JPG,AMSA25.JPG,AMNE25.JPG,AMSA23.JPG,,,,,,,,,,,,,,,,,,,,,0,9,9,5,,,AMSA16.jpg,AMNE04.jpg,AMNE01.jpg,AMSA19.jpg,AMNE01.jpg,MN,1,num_2,16,num_2,1.00011803233,,,2017_May_24_1328,60.0070250389,FEMA4ImagesEEG,001,200476,
,,,,,,,,,,,,,,,,,,,,,,,,,,,,,,,,,,,,,,,,,,,space,12.249172892,2017_May_24_1328,60.0070250389,FEMA4ImagesEEG,001,200476,
AFNE01.JPG,AFNE01.JPG,AFNE01.JPG,AFNE01.JPG,AFNE01.JPG,AFNE01.JPG,0,0,0,4,,,,,,,,,,,,,,,,,,,,,,,AFNE20.jpg,AFSA19.jpg,AFNE08.jpg,AFSA07.jpg,AFNE08.jpg,FN,3,num_2,32,num_8,1.71669717436,,,2017_May_24_1328,60.0070250389,FEMA4ImagesEEG,001,200476,
AFNE01.JPG,AFNE01.JPG,AFNE01.JPG,AFNE01.JPG,AFNE01.JPG,AFNE01.JPG,0,1,1,8,,,,,,,,,,,,,,,,,,,,,,,AFSA10.jpg,AFNE18.jpg,AFNE15.jpg,AFSA06.jpg,AFNE18.jpg,FN,3,num_6,32,num_8,1.15009890008,,,2017_May_24_1328,60.0070250389,FEMA4ImagesEEG,001,200476,
AFNE01.JPG,AFNE01.JPG,AFNE01.JPG,AFNE01.JPG,AFNE01.JPG,AFNE01.JPG,0,2,2,2,,,,,,,,,,,,,,,,,,,,,,,AFNE14.jpg,AFSA07.jpg,AFNE03.jpg,AFSA05.jpg,AFSA07.jpg,FS,4,num_6,32,num_8,0.916815783945,,,2017_May_24_1328,60.0070250389,FEMA4ImagesEEG,001,200476,
AFNE01.JPG,AFNE01.JPG,AFNE01.JPG,AFNE01.JPG,AFNE01.JPG,AFNE01.JPG,0,3,3,1,,,,,,,,,,,,,,,,,,,,,,,AFSA05.jpg,AFNE03.jpg,AFSA20.jpg,AFNE12.jpg,AFNE03.jpg,FN,3,num_6,16,num_6,0.9001087629,,,2017_May_24_1328,60.0070250389,FEMA4ImagesEEG,001,200476,
AFNE01.JPG,AFNE01.JPG,AFNE01.JPG,AFNE01.JPG,AFNE01.JPG,AFNE01.JPG,0,4,4,6,,,,,,,,,,,,,,,,,,,,,,,AFSA10.jpg,AFNE03.jpg,AFNE19.jpg,AFSA04.jpg,AFSA10.jpg,FS,4,num_8,16,num_8,0.850162502844,,,2017_May_24_1328,60.0070250389,FEMA4ImagesEEG,001,200476,
AFNE01.JPG,AFNE01.JPG,AFNE01.JPG,AFNE01.JPG,AFNE01.JPG,AFNE01.JPG,0,5,5,3,,,,,,,,,,,,,,,,,,,,,,,AFNE09.jpg,AFSA08.jpg,AFSA15.jpg,AFNE01.jpg,AFNE09.jpg,FN,3,num_8,16,num_8,0.916775050107,,,2017_May_24_1328,60.0070250389,FEMA4ImagesEEG,001,200476,
AFNE01.JPG,AFNE01.JPG,AFNE01.JPG,AFNE01.JPG,AFNE01.JPG,AFNE01.JPG,0,6,6,5,,,,,,,,,,,,,,,,,,,,,,,AFNE13.jpg,AFSA03.jpg,AFSA01.jpg,AFNE10.jpg,AFSA01.jpg,FS,4,num_2,32,num_8,1.58345155267,,,2017_May_24_1328,60.0070250389,FEMA4ImagesEEG,001,200476,
AFNE01.JPG,AFNE01.JPG,AFNE01.JPG,AFNE01.JPG,AFNE01.JPG,AFNE01.JPG,0,7,7,0,,,,,,,,,,,,,,,,,,,,,,,AFSA02.jpg,AFSA08.jpg,AFNE12.jpg,AFNE06.jpg,AFNE06.jpg,FN,3,num_4,32,num_8,0.999979472719,,,2017_May_24_1328,60.0070250389,FEMA4ImagesEEG,001,200476,
AFNE01.JPG,AFNE01.JPG,AFNE01.JPG,AFNE01.JPG,AFNE01.JPG,AFNE01.JPG,0,8,8,7,,,,,,,,,,,,,,,,,,,,,,,AFSA14.jpg,AFNE07.jpg,AFNE02.jpg,AFSA02.jpg,AFNE02.jpg,FN,3,num_2,32,num_4,0.916749070049,,,2017_May_24_1328,60.0070250389,FEMA4ImagesEEG,001,200476,
AFNE01.JPG,AFNE01.JPG,AFNE01.JPG,AFNE01.JPG,AFNE01.JPG,AFNE01.JPG,0,9,9,9,,,,,,,,,,,,,,,,,,,,,,,AFSA06.jpg,AFSA12.jpg,AFNE14.jpg,AFNE10.jpg,AFNE10.jpg,FN,3,num_4,16,num_4,0.950135207851,,,2017_May_24_1328,60.0070250389,FEMA4ImagesEEG,001,200476,
AFNE01.JPG,AFNE01.JPG,AFNE01.JPG,AFNE01.JPG,AFNE01.JPG,AFNE01.JPG,1,0,10,7,,,,,,,,,,,,,,,,,,,,,,,AFSA20.jpg,AFSA16.jpg,AFNE08.jpg,AFNE20.jpg,AFNE08.jpg,FN,3,num_2,32,num_4,0.766765957,,,2017_May_24_1328,60.0070250389,FEMA4ImagesEEG,001,200476,
AFNE01.JPG,AFNE01.JPG,AFNE01.JPG,AFNE01.JPG,AFNE01.JPG,AFNE01.JPG,1,1,11,9,,,,,,,,,,,,,,,,,,,,,,,AFSA03.jpg,AFSA10.jpg,AFNE18.jpg,AFNE16.jpg,AFNE16.jpg,FN,3,num_4,16,num_4,0.766761466628,,,2017_May_24_1328,60.0070250389,FEMA4ImagesEEG,001,200476,
AFNE01.JPG,AFNE01.JPG,AFNE01.JPG,AFNE01.JPG,AFNE01.JPG,AFNE01.JPG,1,2,12,6,,,,,,,,,,,,,,,,,,,,,,,AFSA03.jpg,AFNE07.jpg,AFNE20.jpg,AFSA05.jpg,AFNE07.jpg,FN,3,num_6,32,num_8,0.916753560421,,,2017_May_24_1328,60.0070250389,FEMA4ImagesEEG,001,200476,
AFNE01.JPG,AFNE01.JPG,AFNE01.JPG,AFNE01.JPG,AFNE01.JPG,AFNE01.JPG,1,3,13,1,,,,,,,,,,,,,,,,,,,,,,,AFSA05.jpg,AFNE10.jpg,AFSA01.jpg,AFNE18.jpg,AFNE10.jpg,FN,3,num_6,32,num_8,0.916751635959,,,2017_May_24_1328,60.0070250389,FEMA4ImagesEEG,001,200476,
AFNE01.JPG,AFNE01.JPG,AFNE01.JPG,AFNE01.JPG,AFNE01.JPG,AFNE01.JPG,1,4,14,2,,,,,,,,,,,,,,,,,,,,,,,AFNE05.jpg,AFNE11.jpg,AFSA03.jpg,AFSA01.jpg,AFNE11.jpg,FN,3,num_6,32,num_4,1.18346771796,,,2017_May_24_1328,60.0070250389,FEMA4ImagesEEG,001,200476,
AFNE01.JPG,AFNE01.JPG,AFNE01.JPG,AFNE01.JPG,AFNE01.JPG,AFNE01.JPG,1,5,15,3,,,,,,,,,,,,,,,,,,,,,,,AFNE15.jpg,AFSA17.jpg,AFNE20.jpg,AFSA13.jpg,AFSA13.jpg,FS,4,num_4,32,num_8,0.950142905582,,,2017_May_24_1328,60.0070250389,FEMA4ImagesEEG,001,200476,
AFNE01.JPG,AFNE01.JPG,AFNE01.JPG,AFNE01.JPG,AFNE01.JPG,AFNE01.JPG,1,6,16,8,,,,,,,,,,,,,,,,,,,,,,,AFSA08.jpg,AFSA03.jpg,AFNE12.jpg,AFNE19.jpg,AFSA08.jpg,FS,4,num_8,16,num_8,0.683492896147,,,2017_May_24_1328,60.0070250389,FEMA4ImagesEEG,001,200476,
AFNE01.JPG,AFNE01.JPG,AFNE01.JPG,AFNE01.JPG,AFNE01.JPG,AFNE01.JPG,1,7,17,4,,,,,,,,,,,,,,,,,,,,,,,AFSA19.jpg,AFNE08.jpg,AFNE01.jpg,AFSA08.jpg,AFNE01.jpg,FN,3,num_2,16,num_2,2.61668598058,,,2017_May_24_1328,60.0070250389,FEMA4ImagesEEG,001,200476,
AFNE01.JPG,AFNE01.JPG,AFNE01.JPG,AFNE01.JPG,AFNE01.JPG,AFNE01.JPG,1,8,18,0,,,,,,,,,,,,,,,,,,,,,,,AFSA02.jpg,AFNE15.jpg,AFSA11.jpg,AFNE03.jpg,AFSA11.jpg,FS,4,num_2,16,num_2,0.666768234223,,,2017_May_24_1328,60.0070250389,FEMA4ImagesEEG,001,200476,
AFNE01.JPG,AFNE01.JPG,AFNE01.JPG,AFNE01.JPG,AFNE01.JPG,AFNE01.JPG,1,9,19,5,,,,,,,,,,,,,,,,,,,,,,,AFSA03.jpg,AFSA07.jpg,AFNE17.jpg,AFNE11.jpg,AFSA07.jpg,FS,4,num_6,16,num_6,0.86676143459,,,2017_May_24_1328,60.0070250389,FEMA4ImagesEEG,001,200476,
AFNE01.JPG,AFNE01.JPG,AFNE01.JPG,AFNE01.JPG,AFNE01.JPG,AFNE01.JPG,2,0,20,1,,,,,,,,,,,,,,,,,,,,,,,AFSA02.jpg,AFSA17.jpg,AFNE18.jpg,AFNE13.jpg,AFSA02.jpg,FS,4,num_8,32,num_2,0.88343124988,,,2017_May_24_1328,60.0070250389,FEMA4ImagesEEG,001,200476,
AFNE01.JPG,AFNE01.JPG,AFNE01.JPG,AFNE01.JPG,AFNE01.JPG,AFNE01.JPG,2,1,21,5,,,,,,,,,,,,,,,,,,,,,,,AFSA02.jpg,AFSA07.jpg,AFNE14.jpg,AFNE20.jpg,AFSA07.jpg,FS,4,num_6,16,num_6,1.30013589759,,,2017_May_24_1328,60.0070250389,FEMA4ImagesEEG,001,200476,
AFNE01.JPG,AFNE01.JPG,AFNE01.JPG,AFNE01.JPG,AFNE01.JPG,AFNE01.JPG,2,2,22,0,,,,,,,,,,,,,,,,,,,,,,,AFSA13.jpg,AFNE09.jpg,AFSA10.jpg,AFNE11.jpg,AFSA10.jpg,FS,4,num_2,32,num_8,0.766763070365,,,2017_May_24_1328,60.0070250389,FEMA4ImagesEEG,001,200476,
AFNE01.JPG,AFNE01.JPG,AFNE01.JPG,AFNE01.JPG,AFNE01.JPG,AFNE01.JPG,2,3,23,2,,,,,,,,,,,,,,,,,,,,,,,AFNE09.jpg,AFSA05.jpg,AFNE10.jpg,AFSA10.jpg,AFSA05.jpg,FS,4,num_6,16,num_6,0.950119491667,,,2017_May_24_1328,60.0070250389,FEMA4ImagesEEG,001,200476,
AFNE01.JPG,AFNE01.JPG,AFNE01.JPG,AFNE01.JPG,AFNE01.JPG,AFNE01.JPG,2,4,24,9,,,,,,,,,,,,,,,,,,,,,,,AFSA12.jpg,AFSA01.jpg,AFNE10.jpg,AFNE15.jpg,AFSA12.jpg,FS,4,num_8,16,num_8,0.866800564923,,,2017_May_24_1328,60.0070250389,FEMA4ImagesEEG,001,200476,
AFNE01.JPG,AFNE01.JPG,AFNE01.JPG,AFNE01.JPG,AFNE01.JPG,AFNE01.JPG,2,5,25,6,,,,,,,,,,,,,,,,,,,,,,,AFNE02.jpg,AFSA09.jpg,AFSA05.jpg,AFNE19.jpg,AFSA09.jpg,FS,4,num_6,32,num_4,0.883526188903,,,2017_May_24_1328,60.0070250389,FEMA4ImagesEEG,001,200476,
AFNE01.JPG,AFNE01.JPG,AFNE01.JPG,AFNE01.JPG,AFNE01.JPG,AFNE01.JPG,2,6,26,8,,,,,,,,,,,,,,,,,,,,,,,AFNE03.jpg,AFSA12.jpg,AFSA17.jpg,AFNE15.jpg,AFSA12.jpg,FS,4,num_6,16,num_6,0.65042781888,,,2017_May_24_1328,60.0070250389,FEMA4ImagesEEG,001,200476,
AFNE01.JPG,AFNE01.JPG,AFNE01.JPG,AFNE01.JPG,AFNE01.JPG,AFNE01.JPG,2,7,27,3,,,,,,,,,,,,,,,,,,,,,,,AFNE11.jpg,AFNE09.jpg,AFSA14.jpg,AFSA06.jpg,AFNE09.jpg,FN,3,num_6,16,num_6,0.983466178412,,,2017_May_24_1328,60.0070250389,FEMA4ImagesEEG,001,200476,
AFNE01.JPG,AFNE01.JPG,AFNE01.JPG,AFNE01.JPG,AFNE01.JPG,AFNE01.JPG,2,8,28,4,,,,,,,,,,,,,,,,,,,,,,,AFNE08.jpg,AFSA08.jpg,AFSA19.jpg,AFNE17.jpg,AFNE08.jpg,FN,3,num_8,32,num_4,0.750149384607,,,2017_May_24_1328,60.0070250389,FEMA4ImagesEEG,001,200476,
AFNE01.JPG,AFNE01.JPG,AFNE01.JPG,AFNE01.JPG,AFNE01.JPG,AFNE01.JPG,2,9,29,7,,,,,,,,,,,,,,,,,,,,,,,AFNE06.jpg,AFSA17.jpg,AFNE09.jpg,AFSA04.jpg,AFNE09.jpg,FN,3,num_2,32,num_8,0.933447110467,,,2017_May_24_1328,60.0070250389,FEMA4ImagesEEG,001,200476,
AFNE01.JPG,AFNE01.JPG,AFNE01.JPG,AFNE01.JPG,AFNE01.JPG,AFNE01.JPG,3,0,30,7,,,,,,,,,,,,,,,,,,,,,,,AFNE05.jpg,AFSA04.jpg,AFNE15.jpg,AFSA07.jpg,AFNE05.jpg,FN,3,num_8,32,num_6,1.40007652855,,,2017_May_24_1328,60.0070250389,FEMA4ImagesEEG,001,200476,
AFNE01.JPG,AFNE01.JPG,AFNE01.JPG,AFNE01.JPG,AFNE01.JPG,AFNE01.JPG,3,1,31,2,,,,,,,,,,,,,,,,,,,,,,,AFSA18.jpg,AFNE20.jpg,AFSA09.jpg,AFNE12.jpg,AFNE20.jpg,FN,3,num_6,32,num_4,1.21669284429,,,2017_May_24_1328,60.0070250389,FEMA4ImagesEEG,001,200476,
AFNE01.JPG,AFNE01.JPG,AFNE01.JPG,AFNE01.JPG,AFNE01.JPG,AFNE01.JPG,3,2,32,6,,,,,,,,,,,,,,,,,,,,,,,AFSA03.jpg,AFNE10.jpg,AFNE07.jpg,AFSA05.jpg,AFSA05.jpg,FS,4,num_4,16,num_4,0.783464638866,,,2017_May_24_1328,60.0070250389,FEMA4ImagesEEG,001,200476,
AFNE01.JPG,AFNE01.JPG,AFNE01.JPG,AFNE01.JPG,AFNE01.JPG,AFNE01.JPG,3,3,33,1,,,,,,,,,,,,,,,,,,,,,,,AFNE08.jpg,AFSA17.jpg,AFNE09.jpg,AFSA15.jpg,AFSA15.jpg,FS,4,num_4,32,num_6,0.91680776549,,,2017_May_24_1328,60.0070250389,FEMA4ImagesEEG,001,200476,
AFNE01.JPG,AFNE01.JPG,AFNE01.JPG,AFNE01.JPG,AFNE01.JPG,AFNE01.JPG,3,4,34,8,,,,,,,,,,,,,,,,,,,,,,,AFSA13.jpg,AFSA16.jpg,AFNE03.jpg,AFNE10.jpg,AFSA16.jpg,FS,4,num_6,32,num_2,0.916763824178,,,2017_May_24_1328,60.0070250389,FEMA4ImagesEEG,001,200476,
AFNE01.JPG,AFNE01.JPG,AFNE01.JPG,AFNE01.JPG,AFNE01.JPG,AFNE01.JPG,3,5,35,5,,,,,,,,,,,,,,,,,,,,,,,AFNE07.jpg,AFSA07.jpg,AFSA20.jpg,AFNE16.jpg,AFNE07.jpg,FN,3,num_8,16,num_8,0.800119700143,,,2017_May_24_1328,60.0070250389,FEMA4ImagesEEG,001,200476,
AFNE01.JPG,AFNE01.JPG,AFNE01.JPG,AFNE01.JPG,AFNE01.JPG,AFNE01.JPG,3,6,36,4,,,,,,,,,,,,,,,,,,,,,,,AFNE13.jpg,AFSA19.jpg,AFNE15.jpg,AFSA02.jpg,AFNE13.jpg,FN,3,num_8,16,num_8,1.00007826055,,,2017_May_24_1328,60.0070250389,FEMA4ImagesEEG,001,200476,
AFNE01.JPG,AFNE01.JPG,AFNE01.JPG,AFNE01.JPG,AFNE01.JPG,AFNE01.JPG,3,7,37,0,,,,,,,,,,,,,,,,,,,,,,,AFNE10.jpg,AFSA10.jpg,AFNE18.jpg,AFSA09.jpg,AFSA10.jpg,FS,4,num_6,16,num_6,1.03342494741,,,2017_May_24_1328,60.0070250389,FEMA4ImagesEEG,001,200476,
AFNE01.JPG,AFNE01.JPG,AFNE01.JPG,AFNE01.JPG,AFNE01.JPG,AFNE01.JPG,3,8,38,9,,,,,,,,,,,,,,,,,,,,,,,AFNE07.jpg,AFNE04.jpg,AFSA06.jpg,AFSA05.jpg,AFSA06.jpg,FS,4,num_2,16,num_2,0.883419382502,,,2017_May_24_1328,60.0070250389,FEMA4ImagesEEG,001,200476,
AFNE01.JPG,AFNE01.JPG,AFNE01.JPG,AFNE01.JPG,AFNE01.JPG,AFNE01.JPG,3,9,39,3,,,,,,,,,,,,,,,,,,,,,,,AFSA06.jpg,AFNE10.jpg,AFNE14.jpg,AFSA10.jpg,AFSA10.jpg,FS,4,num_4,16,num_4,0.750082991435,,,2017_May_24_1328,60.0070250389,FEMA4ImagesEEG,001,200476,
AFNE01.JPG,AFNE01.JPG,AFNE01.JPG,AFNE01.JPG,AFNE01.JPG,AFNE01.JPG,4,0,40,8,,,,,,,,,,,,,,,,,,,,,,,AFNE14.jpg,AFNE10.jpg,AFSA18.jpg,AFSA06.jpg,AFNE14.jpg,FN,3,num_8,16,num_8,0.933427866083,,,2017_May_24_1328,60.0070250389,FEMA4ImagesEEG,001,200476,
AFNE01.JPG,AFNE01.JPG,AFNE01.JPG,AFNE01.JPG,AFNE01.JPG,AFNE01.JPG,4,1,41,4,,,,,,,,,,,,,,,,,,,,,,,AFNE18.jpg,AFSA14.jpg,AFNE14.jpg,AFSA08.jpg,AFSA14.jpg,FS,4,num_6,16,num_6,0.816767384298,,,2017_May_24_1328,60.0070250389,FEMA4ImagesEEG,001,200476,
AFNE01.JPG,AFNE01.JPG,AFNE01.JPG,AFNE01.JPG,AFNE01.JPG,AFNE01.JPG,4,2,42,7,,,,,,,,,,,,,,,,,,,,,,,AFNE02.jpg,AFSA17.jpg,AFNE09.jpg,AFSA14.jpg,AFSA14.jpg,FS,4,num_4,16,num_4,0.883472625399,,,2017_May_24_1328,60.0070250389,FEMA4ImagesEEG,001,200476,
AFNE01.JPG,AFNE01.JPG,AFNE01.JPG,AFNE01.JPG,AFNE01.JPG,AFNE01.JPG,4,3,43,6,,,,,,,,,,,,,,,,,,,,,,,AFSA10.jpg,AFSA12.jpg,AFNE01.jpg,AFNE17.jpg,AFNE01.jpg,FN,3,num_2,32,num_4,0.833469273639,,,2017_May_24_1328,60.0070250389,FEMA4ImagesEEG,001,200476,
AFNE01.JPG,AFNE01.JPG,AFNE01.JPG,AFNE01.JPG,AFNE01.JPG,AFNE01.JPG,4,4,44,2,,,,,,,,,,,,,,,,,,,,,,,AFNE10.jpg,AFNE18.jpg,AFSA18.jpg,AFSA13.jpg,AFNE18.jpg,FN,3,num_6,16,num_6,0.866726473905,,,2017_May_24_1328,60.0070250389,FEMA4ImagesEEG,001,200476,
AFNE01.JPG,AFNE01.JPG,AFNE01.JPG,AFNE01.JPG,AFNE01.JPG,AFNE01.JPG,4,5,45,0,,,,,,,,,,,,,,,,,,,,,,,AFSA18.jpg,AFNE01.jpg,AFNE16.jpg,AFSA19.jpg,AFSA19.jpg,FS,4,num_4,16,num_4,0.533469369751,,,2017_May_24_1328,60.0070250389,FEMA4ImagesEEG,001,200476,
AFNE01.JPG,AFNE01.JPG,AFNE01.JPG,AFNE01.JPG,AFNE01.JPG,AFNE01.JPG,4,6,46,9,,,,,,,,,,,,,,,,,,,,,,,AFSA17.jpg,AFNE06.jpg,AFSA05.jpg,AFNE04.jpg,AFSA17.jpg,FS,4,num_8,32,num_2,1.06649098673,,,2017_May_24_1328,60.0070250389,FEMA4ImagesEEG,001,200476,
AFNE01.JPG,AFNE01.JPG,AFNE01.JPG,AFNE01.JPG,AFNE01.JPG,AFNE01.JPG,4,7,47,3,,,,,,,,,,,,,,,,,,,,,,,AFSA15.jpg,AFNE12.jpg,AFSA16.jpg,AFNE01.jpg,AFNE01.jpg,FN,3,num_4,16,num_4,0.733491436695,,,2017_May_24_1328,60.0070250389,FEMA4ImagesEEG,001,200476,
AFNE01.JPG,AFNE01.JPG,AFNE01.JPG,AFNE01.JPG,AFNE01.JPG,AFNE01.JPG,4,8,48,5,,,,,,,,,,,,,,,,,,,,,,,AFSA13.jpg,AFNE01.jpg,AFSA20.jpg,AFNE03.jpg,AFNE01.jpg,FN,3,num_6,32,num_4,0.933418885339,,,2017_May_24_1328,60.0070250389,FEMA4ImagesEEG,001,200476,
AFNE01.JPG,AFNE01.JPG,AFNE01.JPG,AFNE01.JPG,AFNE01.JPG,AFNE01.JPG,4,9,49,1,,,,,,,,,,,,,,,,,,,,,,,AFNE11.jpg,AFSA10.jpg,AFSA03.jpg,AFNE02.jpg,AFNE11.jpg,FN,3,num_8,16,num_8,0.533466803841,,,2017_May_24_1328,60.0070250389,FEMA4ImagesEEG,001,200476,
AFNE01.JPG,AFNE01.JPG,AFNE01.JPG,AFNE01.JPG,AFNE01.JPG,AFNE01.JPG,5,0,50,4,,,,,,,,,,,,,,,,,,,,,,,AFSA10.jpg,AFNE08.jpg,AFNE04.jpg,AFSA14.jpg,AFNE08.jpg,FN,3,num_6,32,num_8,1.11675959046,,,2017_May_24_1328,60.0070250389,FEMA4ImagesEEG,001,200476,
AFNE01.JPG,AFNE01.JPG,AFNE01.JPG,AFNE01.JPG,AFNE01.JPG,AFNE01.JPG,5,1,51,3,,,,,,,,,,,,,,,,,,,,,,,AFSA14.jpg,AFNE08.jpg,AFNE02.jpg,AFSA19.jpg,AFSA19.jpg,FS,4,num_4,32,num_8,1.38339260069,,,2017_May_24_1328,60.0070250389,FEMA4ImagesEEG,001,200476,
AFNE01.JPG,AFNE01.JPG,AFNE01.JPG,AFNE01.JPG,AFNE01.JPG,AFNE01.JPG,5,2,52,6,,,,,,,,,,,,,,,,,,,,,,,AFSA10.jpg,AFSA20.jpg,AFNE10.jpg,AFNE03.jpg,AFNE03.jpg,FN,3,num_4,32,num_6,0.800168131827,,,2017_May_24_1328,60.0070250389,FEMA4ImagesEEG,001,200476,
AFNE01.JPG,AFNE01.JPG,AFNE01.JPG,AFNE01.JPG,AFNE01.JPG,AFNE01.JPG,5,3,53,5,,,,,,,,,,,,,,,,,,,,,,,AFSA10.jpg,AFSA13.jpg,AFNE07.jpg,AFNE19.jpg,AFNE07.jpg,FN,3,num_2,32,num_8,0.750142328325,,,2017_May_24_1328,60.0070250389,FEMA4ImagesEEG,001,200476,
AFNE01.JPG,AFNE01.JPG,AFNE01.JPG,AFNE01.JPG,AFNE01.JPG,AFNE01.JPG,5,4,54,9,,,,,,,,,,,,,,,,,,,,,,,AFSA09.jpg,AFNE17.jpg,AFNE11.jpg,AFSA19.jpg,AFNE11.jpg,FN,3,num_2,16,num_2,0.666785233538,,,2017_May_24_1328,60.0070250389,FEMA4ImagesEEG,001,200476,
AFNE01.JPG,AFNE01.JPG,AFNE01.JPG,AFNE01.JPG,AFNE01.JPG,AFNE01.JPG,5,5,55,0,,,,,,,,,,,,,,,,,,,,,,,AFSA11.jpg,AFSA08.jpg,AFNE11.jpg,AFNE16.jpg,AFSA08.jpg,FS,4,num_6,32,num_4,0.916784351459,,,2017_May_24_1328,60.0070250389,FEMA4ImagesEEG,001,200476,
AFNE01.JPG,AFNE01.JPG,AFNE01.JPG,AFNE01.JPG,AFNE01.JPG,AFNE01.JPG,5,6,56,2,,,,,,,,,,,,,,,,,,,,,,,AFSA02.jpg,AFSA18.jpg,AFNE12.jpg,AFNE14.jpg,AFSA02.jpg,FS,4,num_8,16,num_8,1.04996903252,,,2017_May_24_1328,60.0070250389,FEMA4ImagesEEG,001,200476,
AFNE01.JPG,AFNE01.JPG,AFNE01.JPG,AFNE01.JPG,AFNE01.JPG,AFNE01.JPG,5,7,57,1,,,,,,,,,,,,,,,,,,,,,,,AFNE04.jpg,AFSA18.jpg,AFSA20.jpg,AFNE14.jpg,AFNE04.jpg,FN,3,num_8,32,num_4,0.800116492785,,,2017_May_24_1328,60.0070250389,FEMA4ImagesEEG,001,200476,
AFNE01.JPG,AFNE01.JPG,AFNE01.JPG,AFNE01.JPG,AFNE01.JPG,AFNE01.JPG,5,8,58,7,,,,,,,,,,,,,,,,,,,,,,,AFNE07.jpg,AFSA13.jpg,AFSA16.jpg,AFNE11.jpg,AFSA13.jpg,FS,4,num_6,16,num_6,1.00011257967,,,2017_May_24_1328,60.0070250389,FEMA4ImagesEEG,001,200476,
AFNE01.JPG,AFNE01.JPG,AFNE01.JPG,AFNE01.JPG,AFNE01.JPG,AFNE01.JPG,5,9,59,8,,,,,,,,,,,,,,,,,,,,,,,AFSA06.jpg,AFNE06.jpg,AFSA18.jpg,AFNE03.jpg,AFNE06.jpg,FN,3,num_6,32,num_4,0.816823834553,,,2017_May_24_1328,60.0070250389,FEMA4ImagesEEG,001,200476,
,,,,,,,,,,,,,,,,,,,,,,,,,,,,,,,,,,,,,,,,,,,space,9.33303868026,2017_May_24_1328,60.0070250389,FEMA4ImagesEEG,001,200476,
AFNE01.JPG,AFNE01.JPG,AFNE01.JPG,AFNE01.JPG,AFNE01.JPG,AFNE01.JPG,,,,,0,0,0,3,,,,,,,,,,,,,,,,,,,AMNE02.jpg,AMSA15.jpg,AMNE20.jpg,AMSA13.jpg,AMSA13.jpg,MS,2,num_4,32,num_6,0.749957902939,,,2017_May_24_1328,60.0070250389,FEMA4ImagesEEG,001,200476,
AFNE01.JPG,AFNE01.JPG,AFNE01.JPG,AFNE01.JPG,AFNE01.JPG,AFNE01.JPG,,,,,0,1,1,7,,,,,,,,,,,,,,,,,,,AMNE06.jpg,AMSA03.jpg,AMNE19.jpg,AMSA09.jpg,AMNE06.jpg,MN,1,num_8,32,num_4,1.20018564421,,,2017_May_24_1328,60.0070250389,FEMA4ImagesEEG,001,200476,
AFNE01.JPG,AFNE01.JPG,AFNE01.JPG,AFNE01.JPG,AFNE01.JPG,AFNE01.JPG,,,,,0,2,2,5,,,,,,,,,,,,,,,,,,,AMSA17.jpg,AMNE01.jpg,AMNE19.jpg,AMSA06.jpg,AMNE19.jpg,MN,1,num_2,32,num_8,0.783465280314,,,2017_May_24_1328,60.0070250389,FEMA4ImagesEEG,001,200476,
AFNE01.JPG,AFNE01.JPG,AFNE01.JPG,AFNE01.JPG,AFNE01.JPG,AFNE01.JPG,,,,,0,3,3,6,,,,,,,,,,,,,,,,,,,AMSA06.jpg,AMNE08.jpg,AMNE13.jpg,AMSA05.jpg,AMSA06.jpg,MS,2,num_8,16,num_8,0.883421306964,,,2017_May_24_1328,60.0070250389,FEMA4ImagesEEG,001,200476,
AFNE01.JPG,AFNE01.JPG,AFNE01.JPG,AFNE01.JPG,AFNE01.JPG,AFNE01.JPG,,,,,0,4,4,2,,,,,,,,,,,,,,,,,,,AMSA09.jpg,AMSA12.jpg,AMNE03.jpg,AMNE01.jpg,AMSA12.jpg,MS,2,num_6,16,num_6,0.750191722298,,,2017_May_24_1328,60.0070250389,FEMA4ImagesEEG,001,200476,
AFNE01.JPG,AFNE01.JPG,AFNE01.JPG,AFNE01.JPG,AFNE01.JPG,AFNE01.JPG,,,,,0,5,5,1,,,,,,,,,,,,,,,,,,,AMNE05.jpg,AMSA02.jpg,AMNE03.jpg,AMSA11.jpg,AMNE05.jpg,MN,1,num_8,32,num_2,0.683481990942,,,2017_May_24_1328,60.0070250389,FEMA4ImagesEEG,001,200476,
AFNE01.JPG,AFNE01.JPG,AFNE01.JPG,AFNE01.JPG,AFNE01.JPG,AFNE01.JPG,,,,,0,6,6,9,,,,,,,,,,,,,,,,,,,AMSA19.jpg,AMNE20.jpg,AMNE03.jpg,AMSA09.jpg,AMNE20.jpg,MN,1,num_6,32,num_4,1.06677003042,,,2017_May_24_1328,60.0070250389,FEMA4ImagesEEG,001,200476,
AFNE01.JPG,AFNE01.JPG,AFNE01.JPG,AFNE01.JPG,AFNE01.JPG,AFNE01.JPG,,,,,0,7,7,8,,,,,,,,,,,,,,,,,,,AMSA10.jpg,AMSA04.jpg,AMNE09.jpg,AMNE01.jpg,AMSA04.jpg,MS,2,num_6,32,num_4,0.866695041535,,,2017_May_24_1328,60.0070250389,FEMA4ImagesEEG,001,200476,
AFNE01.JPG,AFNE01.JPG,AFNE01.JPG,AFNE01.JPG,AFNE01.JPG,AFNE01.JPG,,,,,0,8,8,4,,,,,,,,,,,,,,,,,,,AMSA04.jpg,AMNE20.jpg,AMNE09.jpg,AMSA14.jpg,AMSA04.jpg,MS,2,num_8,32,num_4,1.16660257219,,,2017_May_24_1328,60.0070250389,FEMA4ImagesEEG,001,200476,
AFNE01.JPG,AFNE01.JPG,AFNE01.JPG,AFNE01.JPG,AFNE01.JPG,AFNE01.JPG,,,,,0,9,9,0,,,,,,,,,,,,,,,,,,,AMNE03.jpg,AMNE07.jpg,AMSA15.jpg,AMSA14.jpg,AMSA15.jpg,MS,2,num_2,32,num_6,1.23374049133,,,2017_May_24_1328,60.0070250389,FEMA4ImagesEEG,001,200476,
AFNE01.JPG,AFNE01.JPG,AFNE01.JPG,AFNE01.JPG,AFNE01.JPG,AFNE01.JPG,,,,,1,0,10,3,,,,,,,,,,,,,,,,,,,AMNE18.jpg,AMSA15.jpg,AMSA08.jpg,AMNE20.jpg,AMNE18.jpg,MN,1,num_8,32,num_2,0.916626547463,,,2017_May_24_1328,60.0070250389,FEMA4ImagesEEG,001,200476,
AFNE01.JPG,AFNE01.JPG,AFNE01.JPG,AFNE01.JPG,AFNE01.JPG,AFNE01.JPG,,,,,1,1,11,6,,,,,,,,,,,,,,,,,,,AMNE15.jpg,AMSA01.jpg,AMSA09.jpg,AMNE01.jpg,AMSA01.jpg,MS,2,num_6,32,num_4,1.53339720343,,,2017_May_24_1328,60.0070250389,FEMA4ImagesEEG,001,200476,
AFNE01.JPG,AFNE01.JPG,AFNE01.JPG,AFNE01.JPG,AFNE01.JPG,AFNE01.JPG,,,,,1,2,12,7,,,,,,,,,,,,,,,,,,,AMNE15.jpg,AMSA03.jpg,AMSA01.jpg,AMNE05.jpg,AMSA03.jpg,MS,2,num_6,16,num_6,0.816870341892,,,2017_May_24_1328,60.0070250389,FEMA4ImagesEEG,001,200476,
AFNE01.JPG,AFNE01.JPG,AFNE01.JPG,AFNE01.JPG,AFNE01.JPG,AFNE01.JPG,,,,,1,3,13,2,,,,,,,,,,,,,,,,,,,AMNE17.jpg,AMSA07.jpg,AMSA20.jpg,AMNE07.jpg,AMNE07.jpg,MN,1,num_4,32,num_8,0.950164395268,,,2017_May_24_1328,60.0070250389,FEMA4ImagesEEG,001,200476,
AFNE01.JPG,AFNE01.JPG,AFNE01.JPG,AFNE01.JPG,AFNE01.JPG,AFNE01.JPG,,,,,1,4,14,4,,,,,,,,,,,,,,,,,,,AMNE09.jpg,AMSA16.jpg,AMNE20.jpg,AMSA06.jpg,AMSA16.jpg,MS,2,num_6,16,num_6,0.916790766292,,,2017_May_24_1328,60.0070250389,FEMA4ImagesEEG,001,200476,
AFNE01.JPG,AFNE01.JPG,AFNE01.JPG,AFNE01.JPG,AFNE01.JPG,AFNE01.JPG,,,,,1,5,15,1,,,,,,,,,,,,,,,,,,,AMSA04.jpg,AMNE20.jpg,AMNE15.jpg,AMSA05.jpg,AMNE20.jpg,MN,1,num_6,32,num_8,0.983421916259,,,2017_May_24_1328,60.0070250389,FEMA4ImagesEEG,001,200476,
AFNE01.JPG,AFNE01.JPG,AFNE01.JPG,AFNE01.JPG,AFNE01.JPG,AFNE01.JPG,,,,,1,6,16,9,,,,,,,,,,,,,,,,,,,AMNE11.jpg,AMNE02.jpg,AMSA04.jpg,AMSA13.jpg,AMNE02.jpg,MN,1,num_6,16,num_6,0.600168837467,,,2017_May_24_1328,60.0070250389,FEMA4ImagesEEG,001,200476,
AFNE01.JPG,AFNE01.JPG,AFNE01.JPG,AFNE01.JPG,AFNE01.JPG,AFNE01.JPG,,,,,1,7,17,5,,,,,,,,,,,,,,,,,,,AMNE05.jpg,AMSA10.jpg,AMSA13.jpg,AMNE01.jpg,AMNE01.jpg,MN,1,num_4,16,num_4,0.516623789095,,,2017_May_24_1328,60.0070250389,FEMA4ImagesEEG,001,200476,
AFNE01.JPG,AFNE01.JPG,AFNE01.JPG,AFNE01.JPG,AFNE01.JPG,AFNE01.JPG,,,,,1,8,18,8,,,,,,,,,,,,,,,,,,,AMSA05.jpg,AMNE09.jpg,AMSA13.jpg,AMNE13.jpg,AMSA05.jpg,MS,2,num_8,32,num_2,0.816754875472,,,2017_May_24_1328,60.0070250389,FEMA4ImagesEEG,001,200476,
AFNE01.JPG,AFNE01.JPG,AFNE01.JPG,AFNE01.JPG,AFNE01.JPG,AFNE01.JPG,,,,,1,9,19,0,,,,,,,,,,,,,,,,,,,AMSA14.jpg,AMNE16.jpg,AMSA08.jpg,AMNE09.jpg,AMSA08.jpg,MS,2,num_2,32,num_8,1.08344401536,,,2017_May_24_1328,60.0070250389,FEMA4ImagesEEG,001,200476,
AFNE01.JPG,AFNE01.JPG,AFNE01.JPG,AFNE01.JPG,AFNE01.JPG,AFNE01.JPG,,,,,2,0,20,5,,,,,,,,,,,,,,,,,,,AMSA20.jpg,AMNE14.jpg,AMNE02.jpg,AMSA04.jpg,AMNE14.jpg,MN,1,num_6,32,num_2,0.933419206063,,,2017_May_24_1328,60.0070250389,FEMA4ImagesEEG,001,200476,
AFNE01.JPG,AFNE01.JPG,AFNE01.JPG,AFNE01.JPG,AFNE01.JPG,AFNE01.JPG,,,,,2,1,21,2,,,,,,,,,,,,,,,,,,,AMSA01.jpg,AMSA14.jpg,AMNE04.jpg,AMNE19.jpg,AMNE19.jpg,MN,1,num_4,16,num_4,0.816735951812,,,2017_May_24_1328,60.0070250389,FEMA4ImagesEEG,001,200476,
AFNE01.JPG,AFNE01.JPG,AFNE01.JPG,AFNE01.JPG,AFNE01.JPG,AFNE01.JPG,,,,,2,2,22,3,,,,,,,,,,,,,,,,,,,AMSA18.jpg,AMNE12.jpg,AMSA02.jpg,AMNE08.jpg,AMSA02.jpg,MS,2,num_2,16,num_2,0.850097392686,,,2017_May_24_1328,60.0070250389,FEMA4ImagesEEG,001,200476,
AFNE01.JPG,AFNE01.JPG,AFNE01.JPG,AFNE01.JPG,AFNE01.JPG,AFNE01.JPG,,,,,2,3,23,7,,,,,,,,,,,,,,,,,,,AMSA05.jpg,AMNE16.jpg,AMSA10.jpg,AMNE18.jpg,AMNE18.jpg,MN,1,num_4,32,num_6,0.766744467546,,,2017_May_24_1328,60.0070250389,FEMA4ImagesEEG,001,200476,
AFNE01.JPG,AFNE01.JPG,AFNE01.JPG,AFNE01.JPG,AFNE01.JPG,AFNE01.JPG,,,,,2,4,24,0,,,,,,,,,,,,,,,,,,,AMNE07.jpg,AMSA18.jpg,AMNE01.jpg,AMSA09.jpg,AMSA18.jpg,MS,2,num_6,32,num_2,0.916724373121,,,2017_May_24_1328,60.0070250389,FEMA4ImagesEEG,001,200476,
AFNE01.JPG,AFNE01.JPG,AFNE01.JPG,AFNE01.JPG,AFNE01.JPG,AFNE01.JPG,,,,,2,5,25,1,,,,,,,,,,,,,,,,,,,AMSA02.jpg,AMNE01.jpg,AMSA01.jpg,AMNE04.jpg,AMSA02.jpg,MS,2,num_8,16,num_8,0.816776685882,,,2017_May_24_1328,60.0070250389,FEMA4ImagesEEG,001,200476,
AFNE01.JPG,AFNE01.JPG,AFNE01.JPG,AFNE01.JPG,AFNE01.JPG,AFNE01.JPG,,,,,2,6,26,6,,,,,,,,,,,,,,,,,,,AMNE04.jpg,AMNE02.jpg,AMSA05.jpg,AMSA01.jpg,AMSA05.jpg,MS,2,num_2,16,num_2,1.40007556626,,,2017_May_24_1328,60.0070250389,FEMA4ImagesEEG,001,200476,
AFNE01.JPG,AFNE01.JPG,AFNE01.JPG,AFNE01.JPG,AFNE01.JPG,AFNE01.JPG,,,,,2,7,27,4,,,,,,,,,,,,,,,,,,,AMSA02.jpg,AMNE07.jpg,AMSA19.jpg,AMNE15.jpg,AMNE15.jpg,MN,1,num_4,16,num_4,0.666785233538,,,2017_May_24_1328,60.0070250389,FEMA4ImagesEEG,001,200476,
AFNE01.JPG,AFNE01.JPG,AFNE01.JPG,AFNE01.JPG,AFNE01.JPG,AFNE01.JPG,,,,,2,8,28,9,,,,,,,,,,,,,,,,,,,AMNE12.jpg,AMNE04.jpg,AMSA18.jpg,AMSA09.jpg,AMSA18.jpg,MS,2,num_2,32,num_6,1.13342042489,,,2017_May_24_1328,60.0070250389,FEMA4ImagesEEG,001,200476,
AFNE01.JPG,AFNE01.JPG,AFNE01.JPG,AFNE01.JPG,AFNE01.JPG,AFNE01.JPG,,,,,2,9,29,8,,,,,,,,,,,,,,,,,,,AMSA17.jpg,AMNE01.jpg,AMSA01.jpg,AMNE20.jpg,AMNE01.jpg,MN,1,num_6,32,num_2,0.650143001927,,,2017_May_24_1328,60.0070250389,FEMA4ImagesEEG,001,200476,
AFNE01.JPG,AFNE01.JPG,AFNE01.JPG,AFNE01.JPG,AFNE01.JPG,AFNE01.JPG,,,,,3,0,30,9,,,,,,,,,,,,,,,,,,,AMNE14.jpg,AMSA20.jpg,AMSA02.jpg,AMNE07.jpg,AMSA20.jpg,MS,2,num_6,32,num_4,0.833442972973,,,2017_May_24_1328,60.0070250389,FEMA4ImagesEEG,001,200476,
AFNE01.JPG,AFNE01.JPG,AFNE01.JPG,AFNE01.JPG,AFNE01.JPG,AFNE01.JPG,,,,,3,1,31,4,,,,,,,,,,,,,,,,,,,AMNE08.jpg,AMSA07.jpg,AMSA04.jpg,AMNE16.jpg,AMNE08.jpg,MN,1,num_8,32,num_4,1.23342616623,,,2017_May_24_1328,60.0070250389,FEMA4ImagesEEG,001,200476,
AFNE01.JPG,AFNE01.JPG,AFNE01.JPG,AFNE01.JPG,AFNE01.JPG,AFNE01.JPG,,,,,3,2,32,3,,,,,,,,,,,,,,,,,,,AMNE16.jpg,AMSA12.jpg,AMSA18.jpg,AMNE15.jpg,AMSA18.jpg,MS,2,num_2,16,num_2,0.750090689166,,,2017_May_24_1328,60.0070250389,FEMA4ImagesEEG,001,200476,
AFNE01.JPG,AFNE01.JPG,AFNE01.JPG,AFNE01.JPG,AFNE01.JPG,AFNE01.JPG,,,,,3,3,33,1,,,,,,,,,,,,,,,,,,,AMSA12.jpg,AMNE11.jpg,AMSA03.jpg,AMNE04.jpg,AMNE11.jpg,MN,1,num_6,32,num_4,1.15011493722,,,2017_May_24_1328,60.0070250389,FEMA4ImagesEEG,001,200476,
AFNE01.JPG,AFNE01.JPG,AFNE01.JPG,AFNE01.JPG,AFNE01.JPG,AFNE01.JPG,,,,,3,4,34,5,,,,,,,,,,,,,,,,,,,AMSA14.jpg,AMSA12.jpg,AMNE09.jpg,AMNE19.jpg,AMSA14.jpg,MS,2,num_8,16,num_8,0.833459009882,,,2017_May_24_1328,60.0070250389,FEMA4ImagesEEG,001,200476,
AFNE01.JPG,AFNE01.JPG,AFNE01.JPG,AFNE01.JPG,AFNE01.JPG,AFNE01.JPG,,,,,3,5,35,6,,,,,,,,,,,,,,,,,,,AMSA10.jpg,AMSA20.jpg,AMNE08.jpg,AMNE07.jpg,AMNE07.jpg,MN,1,num_4,32,num_8,0.900134101394,,,2017_May_24_1328,60.0070250389,FEMA4ImagesEEG,001,200476,
AFNE01.JPG,AFNE01.JPG,AFNE01.JPG,AFNE01.JPG,AFNE01.JPG,AFNE01.JPG,,,,,3,6,36,2,,,,,,,,,,,,,,,,,,,AMSA06.jpg,AMSA07.jpg,AMNE20.jpg,AMNE11.jpg,AMSA06.jpg,MS,2,num_8,16,num_8,0.983339486178,,,2017_May_24_1328,60.0070250389,FEMA4ImagesEEG,001,200476,
AFNE01.JPG,AFNE01.JPG,AFNE01.JPG,AFNE01.JPG,AFNE01.JPG,AFNE01.JPG,,,,,3,7,37,7,,,,,,,,,,,,,,,,,,,AMSA12.jpg,AMNE10.jpg,AMSA14.jpg,AMNE19.jpg,AMSA14.jpg,MS,2,num_2,16,num_2,0.500107287429,,,2017_May_24_1328,60.0070250389,FEMA4ImagesEEG,001,200476,
AFNE01.JPG,AFNE01.JPG,AFNE01.JPG,AFNE01.JPG,AFNE01.JPG,AFNE01.JPG,,,,,3,8,38,0,,,,,,,,,,,,,,,,,,,AMSA09.jpg,AMNE12.jpg,AMSA06.jpg,AMNE15.jpg,AMSA09.jpg,MS,2,num_8,32,num_4,1.00011707016,,,2017_May_24_1328,60.0070250389,FEMA4ImagesEEG,001,200476,
AFNE01.JPG,AFNE01.JPG,AFNE01.JPG,AFNE01.JPG,AFNE01.JPG,AFNE01.JPG,,,,,3,9,39,8,,,,,,,,,,,,,,,,,,,AMNE13.jpg,AMSA07.jpg,AMNE17.jpg,AMSA05.jpg,AMNE13.jpg,MN,1,num_8,16,num_8,0.866707550362,,,2017_May_24_1328,60.0070250389,FEMA4ImagesEEG,001,200476,
AFNE01.JPG,AFNE01.JPG,AFNE01.JPG,AFNE01.JPG,AFNE01.JPG,AFNE01.JPG,,,,,4,0,40,9,,,,,,,,,,,,,,,,,,,AMNE20.jpg,AMSA18.jpg,AMNE01.jpg,AMSA16.jpg,AMNE01.jpg,MN,1,num_2,32,num_4,1.08311140805,,,2017_May_24_1328,60.0070250389,FEMA4ImagesEEG,001,200476,
AFNE01.JPG,AFNE01.JPG,AFNE01.JPG,AFNE01.JPG,AFNE01.JPG,AFNE01.JPG,,,,,4,1,41,1,,,,,,,,,,,,,,,,,,,AMSA12.jpg,AMSA14.jpg,AMNE05.jpg,AMNE02.jpg,AMNE05.jpg,MN,1,num_2,32,num_8,0.783451488474,,,2017_May_24_1328,60.0070250389,FEMA4ImagesEEG,001,200476,
AFNE01.JPG,AFNE01.JPG,AFNE01.JPG,AFNE01.JPG,AFNE01.JPG,AFNE01.JPG,,,,,4,2,42,3,,,,,,,,,,,,,,,,,,,AMNE05.jpg,AMSA17.jpg,AMSA20.jpg,AMNE11.jpg,AMSA17.jpg,MS,2,num_6,16,num_6,0.916815142613,,,2017_May_24_1328,60.0070250389,FEMA4ImagesEEG,001,200476,
AFNE01.JPG,AFNE01.JPG,AFNE01.JPG,AFNE01.JPG,AFNE01.JPG,AFNE01.JPG,,,,,4,3,43,7,,,,,,,,,,,,,,,,,,,AMNE01.jpg,AMSA03.jpg,AMNE10.jpg,AMSA18.jpg,AMSA03.jpg,MS,2,num_6,32,num_4,1.00011257967,,,2017_May_24_1328,60.0070250389,FEMA4ImagesEEG,001,200476,
AFNE01.JPG,AFNE01.JPG,AFNE01.JPG,AFNE01.JPG,AFNE01.JPG,AFNE01.JPG,,,,,4,4,44,4,,,,,,,,,,,,,,,,,,,AMNE13.jpg,AMNE15.jpg,AMSA07.jpg,AMSA03.jpg,AMNE13.jpg,MN,1,num_8,32,num_6,0.716818414046,,,2017_May_24_1328,60.0070250389,FEMA4ImagesEEG,001,200476,
AFNE01.JPG,AFNE01.JPG,AFNE01.JPG,AFNE01.JPG,AFNE01.JPG,AFNE01.JPG,,,,,4,5,45,6,,,,,,,,,,,,,,,,,,,AMNE07.jpg,AMSA13.jpg,AMNE16.jpg,AMSA01.jpg,AMNE07.jpg,MN,1,num_8,16,num_8,0.766766919289,,,2017_May_24_1328,60.0070250389,FEMA4ImagesEEG,001,200476,
AFNE01.JPG,AFNE01.JPG,AFNE01.JPG,AFNE01.JPG,AFNE01.JPG,AFNE01.JPG,,,,,4,6,46,8,,,,,,,,,,,,,,,,,,,AMSA02.jpg,AMNE12.jpg,AMNE13.jpg,AMSA15.jpg,AMNE13.jpg,MN,1,num_2,32,num_6,0.866797357448,,,2017_May_24_1328,60.0070250389,FEMA4ImagesEEG,001,200476,
AFNE01.JPG,AFNE01.JPG,AFNE01.JPG,AFNE01.JPG,AFNE01.JPG,AFNE01.JPG,,,,,4,7,47,0,,,,,,,,,,,,,,,,,,,AMSA12.jpg,AMNE05.jpg,AMSA20.jpg,AMNE16.jpg,AMSA12.jpg,MS,2,num_8,16,num_8,0.516773253796,,,2017_May_24_1328,60.0070250389,FEMA4ImagesEEG,001,200476,
AFNE01.JPG,AFNE01.JPG,AFNE01.JPG,AFNE01.JPG,AFNE01.JPG,AFNE01.JPG,,,,,4,8,48,2,,,,,,,,,,,,,,,,,,,AMSA14.jpg,AMSA02.jpg,AMNE16.jpg,AMNE18.jpg,AMSA02.jpg,MS,2,num_6,32,num_8,0.750172157073,,,2017_May_24_1328,60.0070250389,FEMA4ImagesEEG,001,200476,
AFNE01.JPG,AFNE01.JPG,AFNE01.JPG,AFNE01.JPG,AFNE01.JPG,AFNE01.JPG,,,,,4,9,49,5,,,,,,,,,,,,,,,,,,,AMNE06.jpg,AMNE03.jpg,AMSA14.jpg,AMSA15.jpg,AMNE03.jpg,MN,1,num_6,16,num_6,0.766735486686,,,2017_May_24_1328,60.0070250389,FEMA4ImagesEEG,001,200476,
AFNE01.JPG,AFNE01.JPG,AFNE01.JPG,AFNE01.JPG,AFNE01.JPG,AFNE01.JPG,,,,,5,0,50,7,,,,,,,,,,,,,,,,,,,AMNE11.jpg,AMSA08.jpg,AMSA19.jpg,AMNE07.jpg,AMNE11.jpg,MN,1,num_8,16,num_8,1.23339216772,,,2017_May_24_1328,60.0070250389,FEMA4ImagesEEG,001,200476,
AFNE01.JPG,AFNE01.JPG,AFNE01.JPG,AFNE01.JPG,AFNE01.JPG,AFNE01.JPG,,,,,5,1,51,2,,,,,,,,,,,,,,,,,,,AMNE16.jpg,AMSA10.jpg,AMSA06.jpg,AMNE08.jpg,AMSA06.jpg,MS,2,num_2,32,num_6,1.0501496091,,,2017_May_24_1328,60.0070250389,FEMA4ImagesEEG,001,200476,
AFNE01.JPG,AFNE01.JPG,AFNE01.JPG,AFNE01.JPG,AFNE01.JPG,AFNE01.JPG,,,,,5,2,52,1,,,,,,,,,,,,,,,,,,,AMNE08.jpg,AMNE05.jpg,AMSA19.jpg,AMSA02.jpg,AMNE05.jpg,MN,1,num_6,32,num_4,1.05014191137,,,2017_May_24_1328,60.0070250389,FEMA4ImagesEEG,001,200476,
AFNE01.JPG,AFNE01.JPG,AFNE01.JPG,AFNE01.JPG,AFNE01.JPG,AFNE01.JPG,,,,,5,3,53,5,,,,,,,,,,,,,,,,,,,AMNE16.jpg,AMSA15.jpg,AMSA09.jpg,AMNE19.jpg,AMSA15.jpg,MS,2,num_6,16,num_6,0.600149593083,,,2017_May_24_1328,60.0070250389,FEMA4ImagesEEG,001,200476,
AFNE01.JPG,AFNE01.JPG,AFNE01.JPG,AFNE01.JPG,AFNE01.JPG,AFNE01.JPG,,,,,5,4,54,0,,,,,,,,,,,,,,,,,,,AMNE12.jpg,AMSA20.jpg,AMNE18.jpg,AMSA16.jpg,AMNE12.jpg,MN,1,num_8,32,num_4,1.00015908701,,,2017_May_24_1328,60.0070250389,FEMA4ImagesEEG,001,200476,
AFNE01.JPG,AFNE01.JPG,AFNE01.JPG,AFNE01.JPG,AFNE01.JPG,AFNE01.JPG,,,,,5,5,55,9,,,,,,,,,,,,,,,,,,,AMNE03.jpg,AMSA19.jpg,AMNE01.jpg,AMSA16.jpg,AMSA16.jpg,MS,2,num_4,32,num_6,0.750100952806,,,2017_May_24_1328,60.0070250389,FEMA4ImagesEEG,001,200476,
AFNE01.JPG,AFNE01.JPG,AFNE01.JPG,AFNE01.JPG,AFNE01.JPG,AFNE01.JPG,,,,,5,6,56,3,,,,,,,,,,,,,,,,,,,AMNE12.jpg,AMNE11.jpg,AMSA13.jpg,AMSA11.jpg,AMNE12.jpg,MN,1,num_8,32,num_6,0.766603662749,,,2017_May_24_1328,60.0070250389,FEMA4ImagesEEG,001,200476,
AFNE01.JPG,AFNE01.JPG,AFNE01.JPG,AFNE01.JPG,AFNE01.JPG,AFNE01.JPG,,,,,5,7,57,8,,,,,,,,,,,,,,,,,,,AMNE02.jpg,AMSA04.jpg,AMSA12.jpg,AMNE18.jpg,AMNE02.jpg,MN,1,num_8,16,num_8,0.966743120342,,,2017_May_24_1328,60.0070250389,FEMA4ImagesEEG,001,200476,
AFNE01.JPG,AFNE01.JPG,AFNE01.JPG,AFNE01.JPG,AFNE01.JPG,AFNE01.JPG,,,,,5,8,58,6,,,,,,,,,,,,,,,,,,,AMNE15.jpg,AMSA13.jpg,AMNE16.jpg,AMSA17.jpg,AMSA13.jpg,MS,2,num_6,16,num_6,0.983394653536,,,2017_May_24_1328,60.0070250389,FEMA4ImagesEEG,001,200476,
AFNE01.JPG,AFNE01.JPG,AFNE01.JPG,AFNE01.JPG,AFNE01.JPG,AFNE01.JPG,,,,,5,9,59,4,,,,,,,,,,,,,,,,,,,AMNE06.jpg,AMSA18.jpg,AMNE19.jpg,AMSA05.jpg,AMSA18.jpg,MS,2,num_6,16,num_6,0.700468055671,,,2017_May_24_1328,60.0070250389,FEMA4ImagesEEG,001,200476,
,,,,,,,,,,,,,,,,,,,,,,,,,,,,,,,,,,,,,,,,,,,space,12.0158936247,2017_May_24_1328,60.0070250389,FEMA4ImagesEEG,001,200476,
AFNE01.JPG,AFNE01.JPG,AFNE01.JPG,AFNE01.JPG,AFNE01.JPG,AFNE01.JPG,,,,,,,,,0,0,0,5,,,,,,,,,,,,,,,AFNE07.jpg,AFSA07.jpg,AFNE13.jpg,AFSA03.jpg,AFSA07.jpg,FS,4,num_6,32,num_4,0.766773013282,,,2017_May_24_1328,60.0070250389,FEMA4ImagesEEG,001,200476,
AFNE01.JPG,AFNE01.JPG,AFNE01.JPG,AFNE01.JPG,AFNE01.JPG,AFNE01.JPG,,,,,,,,,0,1,1,9,,,,,,,,,,,,,,,AFSA06.jpg,AFSA08.jpg,AFNE02.jpg,AFNE17.jpg,AFSA06.jpg,FS,4,num_8,32,num_6,0.900088877068,,,2017_May_24_1328,60.0070250389,FEMA4ImagesEEG,001,200476,
AFNE01.JPG,AFNE01.JPG,AFNE01.JPG,AFNE01.JPG,AFNE01.JPG,AFNE01.JPG,,,,,,,,,0,2,2,0,,,,,,,,,,,,,,,AFNE11.jpg,AFNE01.jpg,AFSA05.jpg,AFSA04.jpg,AFSA04.jpg,FS,4,num_4,32,num_6,1.33350984717,,,2017_May_24_1328,60.0070250389,FEMA4ImagesEEG,001,200476,
AFNE01.JPG,AFNE01.JPG,AFNE01.JPG,AFNE01.JPG,AFNE01.JPG,AFNE01.JPG,,,,,,,,,0,3,3,6,,,,,,,,,,,,,,,AFNE19.jpg,AFNE15.jpg,AFSA02.jpg,AFSA05.jpg,AFNE19.jpg,FN,3,num_8,32,num_2,1.41676109785,,,2017_May_24_1328,60.0070250389,FEMA4ImagesEEG,001,200476,
AFNE01.JPG,AFNE01.JPG,AFNE01.JPG,AFNE01.JPG,AFNE01.JPG,AFNE01.JPG,,,,,,,,,0,4,4,4,,,,,,,,,,,,,,,AFSA09.jpg,AFNE12.jpg,AFSA08.jpg,AFNE06.jpg,AFSA09.jpg,FS,4,num_8,32,num_4,1.06673122093,,,2017_May_24_1328,60.0070250389,FEMA4ImagesEEG,001,200476,
AFNE01.JPG,AFNE01.JPG,AFNE01.JPG,AFNE01.JPG,AFNE01.JPG,AFNE01.JPG,,,,,,,,,0,5,5,1,,,,,,,,,,,,,,,AFSA11.jpg,AFNE01.jpg,AFSA13.jpg,AFNE15.jpg,AFSA13.jpg,FS,4,num_2,16,num_2,0.933481108863,,,2017_May_24_1328,60.0070250389,FEMA4ImagesEEG,001,200476,
AFNE01.JPG,AFNE01.JPG,AFNE01.JPG,AFNE01.JPG,AFNE01.JPG,AFNE01.JPG,,,,,,,,,0,6,6,8,,,,,,,,,,,,,,,AFSA06.jpg,AFNE13.jpg,AFNE14.jpg,AFSA13.jpg,AFSA06.jpg,FS,4,num_8,32,num_6,0.783460790059,,,2017_May_24_1328,60.0070250389,FEMA4ImagesEEG,001,200476,
AFNE01.JPG,AFNE01.JPG,AFNE01.JPG,AFNE01.JPG,AFNE01.JPG,AFNE01.JPG,,,,,,,,,0,7,7,7,,,,,,,,,,,,,,,AFNE10.jpg,AFSA01.jpg,AFSA14.jpg,AFNE06.jpg,AFSA01.jpg,FS,4,num_6,16,num_6,0.783337305184,,,2017_May_24_1328,60.0070250389,FEMA4ImagesEEG,001,200476,
AFNE01.JPG,AFNE01.JPG,AFNE01.JPG,AFNE01.JPG,AFNE01.JPG,AFNE01.JPG,,,,,,,,,0,8,8,2,,,,,,,,,,,,,,,AFSA14.jpg,AFNE01.jpg,AFSA06.jpg,AFNE06.jpg,AFSA06.jpg,FS,4,num_2,16,num_2,0.950090304366,,,2017_May_24_1328,60.0070250389,FEMA4ImagesEEG,001,200476,
AFNE01.JPG,AFNE01.JPG,AFNE01.JPG,AFNE01.JPG,AFNE01.JPG,AFNE01.JPG,,,,,,,,,0,9,9,3,,,,,,,,,,,,,,,AFNE09.jpg,AFSA18.jpg,AFSA05.jpg,AFNE19.jpg,AFNE09.jpg,FN,3,num_8,16,num_8,0.88343124988,,,2017_May_24_1328,60.0070250389,FEMA4ImagesEEG,001,200476,
AFNE01.JPG,AFNE01.JPG,AFNE01.JPG,AFNE01.JPG,AFNE01.JPG,AFNE01.JPG,,,,,,,,,1,0,10,7,,,,,,,,,,,,,,,AFNE10.jpg,AFNE08.jpg,AFSA01.jpg,AFSA18.jpg,AFSA01.jpg,FS,4,num_2,32,num_6,0.76676852291,,,2017_May_24_1328,60.0070250389,FEMA4ImagesEEG,001,200476,
AFNE01.JPG,AFNE01.JPG,AFNE01.JPG,AFNE01.JPG,AFNE01.JPG,AFNE01.JPG,,,,,,,,,1,1,11,9,,,,,,,,,,,,,,,AFSA02.jpg,AFNE20.jpg,AFSA03.jpg,AFNE06.jpg,AFNE20.jpg,FN,3,num_6,32,num_4,1.15009120235,,,2017_May_24_1328,60.0070250389,FEMA4ImagesEEG,001,200476,
AFNE01.JPG,AFNE01.JPG,AFNE01.JPG,AFNE01.JPG,AFNE01.JPG,AFNE01.JPG,,,,,,,,,1,2,12,6,,,,,,,,,,,,,,,AFNE05.jpg,AFNE09.jpg,AFSA09.jpg,AFSA15.jpg,AFNE09.jpg,FN,3,num_6,32,num_8,1.05014800548,,,2017_May_24_1328,60.0070250389,FEMA4ImagesEEG,001,200476,
AFNE01.JPG,AFNE01.JPG,AFNE01.JPG,AFNE01.JPG,AFNE01.JPG,AFNE01.JPG,,,,,,,,,1,3,13,5,,,,,,,,,,,,,,,AFNE20.jpg,AFNE07.jpg,AFSA18.jpg,AFSA02.jpg,AFSA18.jpg,FS,4,num_2,16,num_2,1.11680577695,,,2017_May_24_1328,60.0070250389,FEMA4ImagesEEG,001,200476,
AFNE01.JPG,AFNE01.JPG,AFNE01.JPG,AFNE01.JPG,AFNE01.JPG,AFNE01.JPG,,,,,,,,,1,4,14,0,,,,,,,,,,,,,,,AFSA07.jpg,AFNE05.jpg,AFNE03.jpg,AFSA01.jpg,AFSA01.jpg,FS,4,num_4,16,num_4,0.666768875788,,,2017_May_24_1328,60.0070250389,FEMA4ImagesEEG,001,200476,
AFNE01.JPG,AFNE01.JPG,AFNE01.JPG,AFNE01.JPG,AFNE01.JPG,AFNE01.JPG,,,,,,,,,1,5,15,3,,,,,,,,,,,,,,,AFNE01.jpg,AFNE05.jpg,AFSA16.jpg,AFSA19.jpg,AFSA16.jpg,FS,4,num_2,32,num_4,1.06675367267,,,2017_May_24_1328,60.0070250389,FEMA4ImagesEEG,001,200476,
AFNE01.JPG,AFNE01.JPG,AFNE01.JPG,AFNE01.JPG,AFNE01.JPG,AFNE01.JPG,,,,,,,,,1,6,16,4,,,,,,,,,,,,,,,AFNE09.jpg,AFSA04.jpg,AFNE18.jpg,AFSA11.jpg,AFNE18.jpg,FN,3,num_2,32,num_8,0.833449708414,,,2017_May_24_1328,60.0070250389,FEMA4ImagesEEG,001,200476,
AFNE01.JPG,AFNE01.JPG,AFNE01.JPG,AFNE01.JPG,AFNE01.JPG,AFNE01.JPG,,,,,,,,,1,7,17,2,,,,,,,,,,,,,,,AFSA17.jpg,AFNE06.jpg,AFNE14.jpg,AFSA15.jpg,AFSA17.jpg,FS,4,num_8,16,num_8,1.01674037799,,,2017_May_24_1328,60.0070250389,FEMA4ImagesEEG,001,200476,
AFNE01.JPG,AFNE01.JPG,AFNE01.JPG,AFNE01.JPG,AFNE01.JPG,AFNE01.JPG,,,,,,,,,1,8,18,1,,,,,,,,,,,,,,,AFNE05.jpg,AFSA06.jpg,AFSA11.jpg,AFNE11.jpg,AFSA06.jpg,FS,4,num_6,32,num_8,0.800130605348,,,2017_May_24_1328,60.0070250389,FEMA4ImagesEEG,001,200476,
AFNE01.JPG,AFNE01.JPG,AFNE01.JPG,AFNE01.JPG,AFNE01.JPG,AFNE01.JPG,,,,,,,,,1,9,19,8,,,,,,,,,,,,,,,AFSA05.jpg,AFNE02.jpg,AFSA12.jpg,AFNE16.jpg,AFSA12.jpg,FS,4,num_2,16,num_2,1.30005635403,,,2017_May_24_1328,60.0070250389,FEMA4ImagesEEG,001,200476,
AFNE01.JPG,AFNE01.JPG,AFNE01.JPG,AFNE01.JPG,AFNE01.JPG,AFNE01.JPG,,,,,,,,,2,0,20,0,,,,,,,,,,,,,,,AFNE18.jpg,AFNE06.jpg,AFSA19.jpg,AFSA08.jpg,AFSA08.jpg,FS,4,num_4,16,num_4,0.766640547779,,,2017_May_24_1328,60.0070250389,FEMA4ImagesEEG,001,200476,
AFNE01.JPG,AFNE01.JPG,AFNE01.JPG,AFNE01.JPG,AFNE01.JPG,AFNE01.JPG,,,,,,,,,2,1,21,8,,,,,,,,,,,,,,,AFNE17.jpg,AFNE07.jpg,AFSA02.jpg,AFSA14.jpg,AFSA02.jpg,FS,4,num_2,32,num_8,1.13339733169,,,2017_May_24_1328,60.0070250389,FEMA4ImagesEEG,001,200476,
AFNE01.JPG,AFNE01.JPG,AFNE01.JPG,AFNE01.JPG,AFNE01.JPG,AFNE01.JPG,,,,,,,,,2,2,22,3,,,,,,,,,,,,,,,AFSA18.jpg,AFNE13.jpg,AFSA06.jpg,AFNE19.jpg,AFNE13.jpg,FN,3,num_6,32,num_8,0.983424161561,,,2017_May_24_1328,60.0070250389,FEMA4ImagesEEG,001,200476,
AFNE01.JPG,AFNE01.JPG,AFNE01.JPG,AFNE01.JPG,AFNE01.JPG,AFNE01.JPG,,,,,,,,,2,3,23,7,,,,,,,,,,,,,,,AFNE18.jpg,AFNE05.jpg,AFSA11.jpg,AFSA17.jpg,AFSA11.jpg,FS,4,num_2,32,num_6,0.866844506236,,,2017_May_24_1328,60.0070250389,FEMA4ImagesEEG,001,200476,
AFNE01.JPG,AFNE01.JPG,AFNE01.JPG,AFNE01.JPG,AFNE01.JPG,AFNE01.JPG,,,,,,,,,2,4,24,4,,,,,,,,,,,,,,,AFSA06.jpg,AFNE02.jpg,AFSA07.jpg,AFNE06.jpg,AFNE06.jpg,FN,3,num_4,32,num_8,1.08340231911,,,2017_May_24_1328,60.0070250389,FEMA4ImagesEEG,001,200476,
AFNE01.JPG,AFNE01.JPG,AFNE01.JPG,AFNE01.JPG,AFNE01.JPG,AFNE01.JPG,,,,,,,,,2,5,25,9,,,,,,,,,,,,,,,AFSA01.jpg,AFSA05.jpg,AFNE14.jpg,AFNE08.jpg,AFNE08.jpg,FN,3,num_4,16,num_4,0.833475688356,,,2017_May_24_1328,60.0070250389,FEMA4ImagesEEG,001,200476,
AFNE01.JPG,AFNE01.JPG,AFNE01.JPG,AFNE01.JPG,AFNE01.JPG,AFNE01.JPG,,,,,,,,,2,6,26,1,,,,,,,,,,,,,,,AFSA15.jpg,AFNE01.jpg,AFSA13.jpg,AFNE15.jpg,AFSA13.jpg,FS,4,num_2,16,num_2,0.616789579508,,,2017_May_24_1328,60.0070250389,FEMA4ImagesEEG,001,200476,
AFNE01.JPG,AFNE01.JPG,AFNE01.JPG,AFNE01.JPG,AFNE01.JPG,AFNE01.JPG,,,,,,,,,2,7,27,5,,,,,,,,,,,,,,,AFNE06.jpg,AFSA12.jpg,AFSA13.jpg,AFNE18.jpg,AFSA12.jpg,FS,4,num_6,16,num_6,0.650192395784,,,2017_May_24_1328,60.0070250389,FEMA4ImagesEEG,001,200476,
AFNE01.JPG,AFNE01.JPG,AFNE01.JPG,AFNE01.JPG,AFNE01.JPG,AFNE01.JPG,,,,,,,,,2,8,28,6,,,,,,,,,,,,,,,AFNE18.jpg,AFSA14.jpg,AFSA02.jpg,AFNE03.jpg,AFNE03.jpg,FN,3,num_4,16,num_4,0.750119235017,,,2017_May_24_1328,60.0070250389,FEMA4ImagesEEG,001,200476,
AFNE01.JPG,AFNE01.JPG,AFNE01.JPG,AFNE01.JPG,AFNE01.JPG,AFNE01.JPG,,,,,,,,,2,9,29,2,,,,,,,,,,,,,,,AFNE07.jpg,AFSA07.jpg,AFNE18.jpg,AFSA03.jpg,AFSA03.jpg,FS,4,num_4,16,num_4,1.05012683664,,,2017_May_24_1328,60.0070250389,FEMA4ImagesEEG,001,200476,
AFNE01.JPG,AFNE01.JPG,AFNE01.JPG,AFNE01.JPG,AFNE01.JPG,AFNE01.JPG,,,,,,,,,3,0,30,3,,,,,,,,,,,,,,,AFNE05.jpg,AFNE14.jpg,AFSA06.jpg,AFSA10.jpg,AFNE14.jpg,FN,3,num_6,32,num_8,0.983441481483,,,2017_May_24_1328,60.0070250389,FEMA4ImagesEEG,001,200476,
AFNE01.JPG,AFNE01.JPG,AFNE01.JPG,AFNE01.JPG,AFNE01.JPG,AFNE01.JPG,,,,,,,,,3,1,31,2,,,,,,,,,,,,,,,AFNE08.jpg,AFNE03.jpg,AFSA10.jpg,AFSA05.jpg,AFNE08.jpg,FN,3,num_8,32,num_6,0.683465312468,,,2017_May_24_1328,60.0070250389,FEMA4ImagesEEG,001,200476,
AFNE01.JPG,AFNE01.JPG,AFNE01.JPG,AFNE01.JPG,AFNE01.JPG,AFNE01.JPG,,,,,,,,,3,2,32,5,,,,,,,,,,,,,,,AFNE17.jpg,AFNE02.jpg,AFSA02.jpg,AFSA18.jpg,AFNE02.jpg,FN,3,num_6,16,num_6,0.98350498802,,,2017_May_24_1328,60.0070250389,FEMA4ImagesEEG,001,200476,
AFNE01.JPG,AFNE01.JPG,AFNE01.JPG,AFNE01.JPG,AFNE01.JPG,AFNE01.JPG,,,,,,,,,3,3,33,7,,,,,,,,,,,,,,,AFNE03.jpg,AFNE06.jpg,AFSA07.jpg,AFSA15.jpg,AFSA15.jpg,FS,4,num_4,32,num_8,0.816754554748,,,2017_May_24_1328,60.0070250389,FEMA4ImagesEEG,001,200476,
AFNE01.JPG,AFNE01.JPG,AFNE01.JPG,AFNE01.JPG,AFNE01.JPG,AFNE01.JPG,,,,,,,,,3,4,34,8,,,,,,,,,,,,,,,AFNE13.jpg,AFSA04.jpg,AFSA20.jpg,AFNE04.jpg,AFSA04.jpg,FS,4,num_6,16,num_6,1.50007425121,,,2017_May_24_1328,60.0070250389,FEMA4ImagesEEG,001,200476,
AFNE01.JPG,AFNE01.JPG,AFNE01.JPG,AFNE01.JPG,AFNE01.JPG,AFNE01.JPG,,,,,,,,,3,5,35,0,,,,,,,,,,,,,,,AFSA02.jpg,AFNE12.jpg,AFSA16.jpg,AFNE19.jpg,AFNE19.jpg,FN,3,num_4,32,num_2,1.150102749,,,2017_May_24_1328,60.0070250389,FEMA4ImagesEEG,001,200476,
AFNE01.JPG,AFNE01.JPG,AFNE01.JPG,AFNE01.JPG,AFNE01.JPG,AFNE01.JPG,,,,,,,,,3,6,36,9,,,,,,,,,,,,,,,AFNE15.jpg,AFSA17.jpg,AFNE12.jpg,AFSA02.jpg,AFNE12.jpg,FN,3,num_2,32,num_8,1.00012284343,,,2017_May_24_1328,60.0070250389,FEMA4ImagesEEG,001,200476,
AFNE01.JPG,AFNE01.JPG,AFNE01.JPG,AFNE01.JPG,AFNE01.JPG,AFNE01.JPG,,,,,,,,,3,7,37,6,,,,,,,,,,,,,,,AFNE08.jpg,AFNE09.jpg,AFSA18.jpg,AFSA11.jpg,AFSA18.jpg,FS,4,num_2,32,num_4,0.80021463905,,,2017_May_24_1328,60.0070250389,FEMA4ImagesEEG,001,200476,
AFNE01.JPG,AFNE01.JPG,AFNE01.JPG,AFNE01.JPG,AFNE01.JPG,AFNE01.JPG,,,,,,,,,3,8,38,1,,,,,,,,,,,,,,,AFSA13.jpg,AFSA12.jpg,AFNE01.jpg,AFNE17.jpg,AFSA12.jpg,FS,4,num_6,16,num_6,0.683464350295,,,2017_May_24_1328,60.0070250389,FEMA4ImagesEEG,001,200476,
AFNE01.JPG,AFNE01.JPG,AFNE01.JPG,AFNE01.JPG,AFNE01.JPG,AFNE01.JPG,,,,,,,,,3,9,39,4,,,,,,,,,,,,,,,AFSA14.jpg,AFNE16.jpg,AFNE18.jpg,AFSA18.jpg,AFNE16.jpg,FN,3,num_6,32,num_8,0.700141863199,,,2017_May_24_1328,60.0070250389,FEMA4ImagesEEG,001,200476,
AFNE01.JPG,AFNE01.JPG,AFNE01.JPG,AFNE01.JPG,AFNE01.JPG,AFNE01.JPG,,,,,,,,,4,0,40,8,,,,,,,,,,,,,,,AFNE14.jpg,AFSA20.jpg,AFSA14.jpg,AFNE01.jpg,AFSA20.jpg,FS,4,num_6,16,num_6,0.866839374416,,,2017_May_24_1328,60.0070250389,FEMA4ImagesEEG,001,200476,
AFNE01.JPG,AFNE01.JPG,AFNE01.JPG,AFNE01.JPG,AFNE01.JPG,AFNE01.JPG,,,,,,,,,4,1,41,5,,,,,,,,,,,,,,,AFNE11.jpg,AFSA10.jpg,AFSA18.jpg,AFNE10.jpg,AFNE11.jpg,FN,3,num_8,32,num_2,0.78344860184,,,2017_May_24_1328,60.0070250389,FEMA4ImagesEEG,001,200476,
AFNE01.JPG,AFNE01.JPG,AFNE01.JPG,AFNE01.JPG,AFNE01.JPG,AFNE01.JPG,,,,,,,,,4,2,42,1,,,,,,,,,,,,,,,AFNE01.jpg,AFSA11.jpg,AFSA14.jpg,AFNE19.jpg,AFNE19.jpg,FN,3,num_4,16,num_4,0.85012176889,,,2017_May_24_1328,60.0070250389,FEMA4ImagesEEG,001,200476,
AFNE01.JPG,AFNE01.JPG,AFNE01.JPG,AFNE01.JPG,AFNE01.JPG,AFNE01.JPG,,,,,,,,,4,3,43,7,,,,,,,,,,,,,,,AFSA04.jpg,AFNE06.jpg,AFNE13.jpg,AFSA10.jpg,AFNE06.jpg,FN,3,num_6,32,num_8,0.900107479887,,,2017_May_24_1328,60.0070250389,FEMA4ImagesEEG,001,200476,
AFNE01.JPG,AFNE01.JPG,AFNE01.JPG,AFNE01.JPG,AFNE01.JPG,AFNE01.JPG,,,,,,,,,4,4,44,2,,,,,,,,,,,,,,,AFNE14.jpg,AFNE04.jpg,AFSA18.jpg,AFSA13.jpg,AFNE04.jpg,FN,3,num_6,32,num_8,0.81674781919,,,2017_May_24_1328,60.0070250389,FEMA4ImagesEEG,001,200476,
AFNE01.JPG,AFNE01.JPG,AFNE01.JPG,AFNE01.JPG,AFNE01.JPG,AFNE01.JPG,,,,,,,,,4,5,45,3,,,,,,,,,,,,,,,AFSA15.jpg,AFSA16.jpg,AFNE15.jpg,AFNE12.jpg,AFNE15.jpg,FN,3,num_2,32,num_8,0.833133138134,,,2017_May_24_1328,60.0070250389,FEMA4ImagesEEG,001,200476,
AFNE01.JPG,AFNE01.JPG,AFNE01.JPG,AFNE01.JPG,AFNE01.JPG,AFNE01.JPG,,,,,,,,,4,6,46,0,,,,,,,,,,,,,,,AFSA15.jpg,AFNE03.jpg,AFSA05.jpg,AFNE14.jpg,AFSA05.jpg,FS,4,num_2,32,num_6,1.10008945432,,,2017_May_24_1328,60.0070250389,FEMA4ImagesEEG,001,200476,
AFNE01.JPG,AFNE01.JPG,AFNE01.JPG,AFNE01.JPG,AFNE01.JPG,AFNE01.JPG,,,,,,,,,4,7,47,9,,,,,,,,,,,,,,,AFSA07.jpg,AFNE09.jpg,AFNE13.jpg,AFSA04.jpg,AFNE09.jpg,FN,3,num_6,32,num_2,1.30010029534,,,2017_May_24_1328,60.0070250389,FEMA4ImagesEEG,001,200476,
AFNE01.JPG,AFNE01.JPG,AFNE01.JPG,AFNE01.JPG,AFNE01.JPG,AFNE01.JPG,,,,,,,,,4,8,48,6,,,,,,,,,,,,,,,AFSA03.jpg,AFNE11.jpg,AFNE15.jpg,AFSA12.jpg,AFSA03.jpg,FS,4,num_8,32,num_6,0.800141189713,,,2017_May_24_1328,60.0070250389,FEMA4ImagesEEG,001,200476,
AFNE01.JPG,AFNE01.JPG,AFNE01.JPG,AFNE01.JPG,AFNE01.JPG,AFNE01.JPG,,,,,,,,,4,9,49,4,,,,,,,,,,,,,,,AFSA14.jpg,AFSA05.jpg,AFNE18.jpg,AFNE03.jpg,AFSA05.jpg,FS,4,num_6,16,num_6,0.966725800419,,,2017_May_24_1328,60.0070250389,FEMA4ImagesEEG,001,200476,
AFNE01.JPG,AFNE01.JPG,AFNE01.JPG,AFNE01.JPG,AFNE01.JPG,AFNE01.JPG,,,,,,,,,5,0,50,3,,,,,,,,,,,,,,,AFNE08.jpg,AFNE02.jpg,AFSA11.jpg,AFSA01.jpg,AFNE02.jpg,FN,3,num_6,32,num_2,0.966648822767,,,2017_May_24_1328,60.0070250389,FEMA4ImagesEEG,001,200476,
AFNE01.JPG,AFNE01.JPG,AFNE01.JPG,AFNE01.JPG,AFNE01.JPG,AFNE01.JPG,,,,,,,,,5,1,51,1,,,,,,,,,,,,,,,AFNE08.jpg,AFSA05.jpg,AFNE15.jpg,AFSA18.jpg,AFNE08.jpg,FN,3,num_8,16,num_8,0.816762573202,,,2017_May_24_1328,60.0070250389,FEMA4ImagesEEG,001,200476,
AFNE01.JPG,AFNE01.JPG,AFNE01.JPG,AFNE01.JPG,AFNE01.JPG,AFNE01.JPG,,,,,,,,,5,2,52,9,,,,,,,,,,,,,,,AFSA08.jpg,AFNE19.jpg,AFNE05.jpg,AFSA04.jpg,AFNE05.jpg,FN,3,num_2,16,num_2,0.733503304073,,,2017_May_24_1328,60.0070250389,FEMA4ImagesEEG,001,200476,
AFNE01.JPG,AFNE01.JPG,AFNE01.JPG,AFNE01.JPG,AFNE01.JPG,AFNE01.JPG,,,,,,,,,5,3,53,2,,,,,,,,,,,,,,,AFSA17.jpg,AFSA16.jpg,AFNE07.jpg,AFNE13.jpg,AFSA16.jpg,FS,4,num_6,32,num_8,0.800123869791,,,2017_May_24_1328,60.0070250389,FEMA4ImagesEEG,001,200476,
AFNE01.JPG,AFNE01.JPG,AFNE01.JPG,AFNE01.JPG,AFNE01.JPG,AFNE01.JPG,,,,,,,,,5,4,54,5,,,,,,,,,,,,,,,AFSA07.jpg,AFNE05.jpg,AFNE09.jpg,AFSA15.jpg,AFSA15.jpg,FS,4,num_4,16,num_4,0.916780181811,,,2017_May_24_1328,60.0070250389,FEMA4ImagesEEG,001,200476,
AFNE01.JPG,AFNE01.JPG,AFNE01.JPG,AFNE01.JPG,AFNE01.JPG,AFNE01.JPG,,,,,,,,,5,5,55,6,,,,,,,,,,,,,,,AFSA20.jpg,AFSA13.jpg,AFNE04.jpg,AFNE05.jpg,AFSA20.jpg,FS,4,num_8,32,num_4,0.883422589977,,,2017_May_24_1328,60.0070250389,FEMA4ImagesEEG,001,200476,
AFNE01.JPG,AFNE01.JPG,AFNE01.JPG,AFNE01.JPG,AFNE01.JPG,AFNE01.JPG,,,,,,,,,5,6,56,4,,,,,,,,,,,,,,,AFSA16.jpg,AFSA14.jpg,AFNE14.jpg,AFNE08.jpg,AFSA14.jpg,FS,4,num_6,16,num_6,0.69997026748,,,2017_May_24_1328,60.0070250389,FEMA4ImagesEEG,001,200476,
AFNE01.JPG,AFNE01.JPG,AFNE01.JPG,AFNE01.JPG,AFNE01.JPG,AFNE01.JPG,,,,,,,,,5,7,57,8,,,,,,,,,,,,,,,AFSA12.jpg,AFNE04.jpg,AFNE06.jpg,AFSA09.jpg,AFSA09.jpg,FS,4,num_4,32,num_2,1.23342071357,,,2017_May_24_1328,60.0070250389,FEMA4ImagesEEG,001,200476,
AFNE01.JPG,AFNE01.JPG,AFNE01.JPG,AFNE01.JPG,AFNE01.JPG,AFNE01.JPG,,,,,,,,,5,8,58,7,,,,,,,,,,,,,,,AFNE07.jpg,AFSA16.jpg,AFSA20.jpg,AFNE11.jpg,AFSA20.jpg,FS,4,num_2,32,num_6,1.18347156688,,,2017_May_24_1328,60.0070250389,FEMA4ImagesEEG,001,200476,
AFNE01.JPG,AFNE01.JPG,AFNE01.JPG,AFNE01.JPG,AFNE01.JPG,AFNE01.JPG,,,,,,,,,5,9,59,0,,,,,,,,,,,,,,,AFNE11.jpg,AFNE08.jpg,AFSA20.jpg,AFSA05.jpg,AFSA20.jpg,FS,4,num_2,32,num_4,1.20010353485,,,2017_May_24_1328,60.0070250389,FEMA4ImagesEEG,001,200476,
,,,,,,,,,,,,,,,,,,,,,,,,,,,,,,,,,,,,,,,,,,,space,11.3329171198,2017_May_24_1328,60.0070250389,FEMA4ImagesEEG,001,200476,
AFNE01.JPG,AFNE01.JPG,AFNE01.JPG,AFNE01.JPG,AFNE01.JPG,AFNE01.JPG,,,,,,,,,,,,,0,0,0,9,,,,,,,,,,,AMNE11.jpg,AMNE15.jpg,AMSA06.jpg,AMSA10.jpg,AMSA10.jpg,MS,2,num_4,16,num_4,0.650215489091,,,2017_May_24_1328,60.0070250389,FEMA4ImagesEEG,001,200476,
AFNE01.JPG,AFNE01.JPG,AFNE01.JPG,AFNE01.JPG,AFNE01.JPG,AFNE01.JPG,,,,,,,,,,,,,0,1,1,1,,,,,,,,,,,AMSA06.jpg,AMNE18.jpg,AMNE09.jpg,AMSA02.jpg,AMNE18.jpg,MN,1,num_6,32,num_4,0.816776044318,,,2017_May_24_1328,60.0070250389,FEMA4ImagesEEG,001,200476,
AFNE01.JPG,AFNE01.JPG,AFNE01.JPG,AFNE01.JPG,AFNE01.JPG,AFNE01.JPG,,,,,,,,,,,,,0,2,2,0,,,,,,,,,,,AMNE12.jpg,AMSA09.jpg,AMSA16.jpg,AMNE09.jpg,AMSA16.jpg,MS,2,num_2,32,num_6,0.650152303395,,,2017_May_24_1328,60.0070250389,FEMA4ImagesEEG,001,200476,
AFNE01.JPG,AFNE01.JPG,AFNE01.JPG,AFNE01.JPG,AFNE01.JPG,AFNE01.JPG,,,,,,,,,,,,,0,3,3,3,,,,,,,,,,,AMSA12.jpg,AMNE01.jpg,AMSA04.jpg,AMNE11.jpg,AMSA12.jpg,MS,2,num_8,32,num_2,0.666792610544,,,2017_May_24_1328,60.0070250389,FEMA4ImagesEEG,001,200476,
AFNE01.JPG,AFNE01.JPG,AFNE01.JPG,AFNE01.JPG,AFNE01.JPG,AFNE01.JPG,,,,,,,,,,,,,0,4,4,4,,,,,,,,,,,AMSA03.jpg,AMNE13.jpg,AMSA16.jpg,AMNE20.jpg,AMNE20.jpg,MN,1,num_4,16,num_4,0.916766390088,,,2017_May_24_1328,60.0070250389,FEMA4ImagesEEG,001,200476,
AFNE01.JPG,AFNE01.JPG,AFNE01.JPG,AFNE01.JPG,AFNE01.JPG,AFNE01.JPG,,,,,,,,,,,,,0,5,5,8,,,,,,,,,,,AMSA04.jpg,AMSA14.jpg,AMNE04.jpg,AMNE06.jpg,AMSA04.jpg,MS,2,num_8,16,num_8,0.799626081483,,,2017_May_24_1328,60.0070250389,FEMA4ImagesEEG,001,200476,
AFNE01.JPG,AFNE01.JPG,AFNE01.JPG,AFNE01.JPG,AFNE01.JPG,AFNE01.JPG,,,,,,,,,,,,,0,6,6,2,,,,,,,,,,,AMNE10.jpg,AMSA07.jpg,AMNE14.jpg,AMSA09.jpg,AMNE10.jpg,MN,1,num_8,32,num_4,1.13342555671,,,2017_May_24_1328,60.0070250389,FEMA4ImagesEEG,001,200476,
AFNE01.JPG,AFNE01.JPG,AFNE01.JPG,AFNE01.JPG,AFNE01.JPG,AFNE01.JPG,,,,,,,,,,,,,0,7,7,6,,,,,,,,,,,AMNE05.jpg,AMSA04.jpg,AMSA03.jpg,AMNE14.jpg,AMNE14.jpg,MN,1,num_4,32,num_6,1.25015275227,,,2017_May_24_1328,60.0070250389,FEMA4ImagesEEG,001,200476,
AFNE01.JPG,AFNE01.JPG,AFNE01.JPG,AFNE01.JPG,AFNE01.JPG,AFNE01.JPG,,,,,,,,,,,,,0,8,8,5,,,,,,,,,,,AMSA17.jpg,AMNE03.jpg,AMSA11.jpg,AMNE04.jpg,AMNE04.jpg,MN,1,num_4,16,num_4,0.917046075221,,,2017_May_24_1328,60.0070250389,FEMA4ImagesEEG,001,200476,
AFNE01.JPG,AFNE01.JPG,AFNE01.JPG,AFNE01.JPG,AFNE01.JPG,AFNE01.JPG,,,,,,,,,,,,,0,9,9,7,,,,,,,,,,,AMSA20.jpg,AMSA13.jpg,AMNE15.jpg,AMNE20.jpg,AMSA20.jpg,MS,2,num_8,32,num_6,0.816852380405,,,2017_May_24_1328,60.0070250389,FEMA4ImagesEEG,001,200476,
AFNE01.JPG,AFNE01.JPG,AFNE01.JPG,AFNE01.JPG,AFNE01.JPG,AFNE01.JPG,,,,,,,,,,,,,1,0,10,4,,,,,,,,,,,AMNE17.jpg,AMSA02.jpg,AMNE04.jpg,AMSA05.jpg,AMSA05.jpg,MS,2,num_4,16,num_4,0.683330922388,,,2017_May_24_1328,60.0070250389,FEMA4ImagesEEG,001,200476,
AFNE01.JPG,AFNE01.JPG,AFNE01.JPG,AFNE01.JPG,AFNE01.JPG,AFNE01.JPG,,,,,,,,,,,,,1,1,11,6,,,,,,,,,,,AMSA03.jpg,AMSA04.jpg,AMNE12.jpg,AMNE20.jpg,AMNE12.jpg,MN,1,num_2,32,num_4,0.93341311207,,,2017_May_24_1328,60.0070250389,FEMA4ImagesEEG,001,200476,
AFNE01.JPG,AFNE01.JPG,AFNE01.JPG,AFNE01.JPG,AFNE01.JPG,AFNE01.JPG,,,,,,,,,,,,,1,2,12,0,,,,,,,,,,,AMNE19.jpg,AMSA03.jpg,AMNE14.jpg,AMSA18.jpg,AMSA18.jpg,MS,2,num_4,16,num_4,0.866741869482,,,2017_May_24_1328,60.0070250389,FEMA4ImagesEEG,001,200476,
AFNE01.JPG,AFNE01.JPG,AFNE01.JPG,AFNE01.JPG,AFNE01.JPG,AFNE01.JPG,,,,,,,,,,,,,1,3,13,3,,,,,,,,,,,AMSA11.jpg,AMNE12.jpg,AMSA08.jpg,AMNE20.jpg,AMNE12.jpg,MN,1,num_6,16,num_6,1.00009910867,,,2017_May_24_1328,60.0070250389,FEMA4ImagesEEG,001,200476,
AFNE01.JPG,AFNE01.JPG,AFNE01.JPG,AFNE01.JPG,AFNE01.JPG,AFNE01.JPG,,,,,,,,,,,,,1,4,14,5,,,,,,,,,,,AMSA12.jpg,AMSA04.jpg,AMNE08.jpg,AMNE07.jpg,AMNE08.jpg,MN,1,num_2,32,num_8,1.31673258403,,,2017_May_24_1328,60.0070250389,FEMA4ImagesEEG,001,200476,
AFNE01.JPG,AFNE01.JPG,AFNE01.JPG,AFNE01.JPG,AFNE01.JPG,AFNE01.JPG,,,,,,,,,,,,,1,5,15,8,,,,,,,,,,,AMSA15.jpg,AMNE11.jpg,AMSA11.jpg,AMNE14.jpg,AMSA15.jpg,MS,2,num_8,32,num_6,0.850203557522,,,2017_May_24_1328,60.0070250389,FEMA4ImagesEEG,001,200476,
AFNE01.JPG,AFNE01.JPG,AFNE01.JPG,AFNE01.JPG,AFNE01.JPG,AFNE01.JPG,,,,,,,,,,,,,1,6,16,7,,,,,,,,,,,AMNE04.jpg,AMSA04.jpg,AMNE12.jpg,AMSA10.jpg,AMSA10.jpg,MS,2,num_4,32,num_2,1.5163992712,,,2017_May_24_1328,60.0070250389,FEMA4ImagesEEG,001,200476,
AFNE01.JPG,AFNE01.JPG,AFNE01.JPG,AFNE01.JPG,AFNE01.JPG,AFNE01.JPG,,,,,,,,,,,,,1,7,17,1,,,,,,,,,,,AMSA19.jpg,AMNE10.jpg,AMSA03.jpg,AMNE16.jpg,AMSA03.jpg,MS,2,num_2,16,num_2,0.766800596961,,,2017_May_24_1328,60.0070250389,FEMA4ImagesEEG,001,200476,
AFNE01.JPG,AFNE01.JPG,AFNE01.JPG,AFNE01.JPG,AFNE01.JPG,AFNE01.JPG,,,,,,,,,,,,,1,8,18,2,,,,,,,,,,,AMNE18.jpg,AMSA18.jpg,AMSA10.jpg,AMNE09.jpg,AMSA10.jpg,MS,2,num_2,32,num_6,0.683448954835,,,2017_May_24_1328,60.0070250389,FEMA4ImagesEEG,001,200476,
AFNE01.JPG,AFNE01.JPG,AFNE01.JPG,AFNE01.JPG,AFNE01.JPG,AFNE01.JPG,,,,,,,,,,,,,1,9,19,9,,,,,,,,,,,AMNE16.jpg,AMSA20.jpg,AMSA09.jpg,AMNE20.jpg,AMNE20.jpg,MN,1,num_4,16,num_4,1.10011126462,,,2017_May_24_1328,60.0070250389,FEMA4ImagesEEG,001,200476,
AFNE01.JPG,AFNE01.JPG,AFNE01.JPG,AFNE01.JPG,AFNE01.JPG,AFNE01.JPG,,,,,,,,,,,,,2,0,20,2,,,,,,,,,,,AMNE07.jpg,AMNE16.jpg,AMSA16.jpg,AMSA08.jpg,AMSA16.jpg,MS,2,num_2,32,num_4,0.93342946982,,,2017_May_24_1328,60.0070250389,FEMA4ImagesEEG,001,200476,
AFNE01.JPG,AFNE01.JPG,AFNE01.JPG,AFNE01.JPG,AFNE01.JPG,AFNE01.JPG,,,,,,,,,,,,,2,1,21,1,,,,,,,,,,,AMSA01.jpg,AMNE15.jpg,AMSA08.jpg,AMNE06.jpg,AMSA01.jpg,MS,2,num_8,16,num_8,0.7835486728,,,2017_May_24_1328,60.0070250389,FEMA4ImagesEEG,001,200476,
AFNE01.JPG,AFNE01.JPG,AFNE01.JPG,AFNE01.JPG,AFNE01.JPG,AFNE01.JPG,,,,,,,,,,,,,2,2,22,7,,,,,,,,,,,AMNE14.jpg,AMSA07.jpg,AMNE06.jpg,AMSA04.jpg,AMNE14.jpg,MN,1,num_8,16,num_8,0.583600376034,,,2017_May_24_1328,60.0070250389,FEMA4ImagesEEG,001,200476,
AFNE01.JPG,AFNE01.JPG,AFNE01.JPG,AFNE01.JPG,AFNE01.JPG,AFNE01.JPG,,,,,,,,,,,,,2,3,23,4,,,,,,,,,,,AMNE04.jpg,AMSA09.jpg,AMSA15.jpg,AMNE12.jpg,AMSA15.jpg,MS,2,num_2,16,num_2,0.900098819984,,,2017_May_24_1328,60.0070250389,FEMA4ImagesEEG,001,200476,
AFNE01.JPG,AFNE01.JPG,AFNE01.JPG,AFNE01.JPG,AFNE01.JPG,AFNE01.JPG,,,,,,,,,,,,,2,4,24,9,,,,,,,,,,,AMSA03.jpg,AMNE12.jpg,AMNE07.jpg,AMSA19.jpg,AMNE12.jpg,MN,1,num_6,32,num_4,1.23346722091,,,2017_May_24_1328,60.0070250389,FEMA4ImagesEEG,001,200476,
AFNE01.JPG,AFNE01.JPG,AFNE01.JPG,AFNE01.JPG,AFNE01.JPG,AFNE01.JPG,,,,,,,,,,,,,2,5,25,3,,,,,,,,,,,AMNE11.jpg,AMNE14.jpg,AMSA10.jpg,AMSA15.jpg,AMNE14.jpg,MN,1,num_6,16,num_6,1.2667125538,,,2017_May_24_1328,60.0070250389,FEMA4ImagesEEG,001,200476,
AFNE01.JPG,AFNE01.JPG,AFNE01.JPG,AFNE01.JPG,AFNE01.JPG,AFNE01.JPG,,,,,,,,,,,,,2,6,26,8,,,,,,,,,,,AMSA06.jpg,AMNE16.jpg,AMNE13.jpg,AMSA02.jpg,AMNE16.jpg,MN,1,num_6,16,num_6,1.21671144734,,,2017_May_24_1328,60.0070250389,FEMA4ImagesEEG,001,200476,
AFNE01.JPG,AFNE01.JPG,AFNE01.JPG,AFNE01.JPG,AFNE01.JPG,AFNE01.JPG,,,,,,,,,,,,,2,7,27,5,,,,,,,,,,,AMSA09.jpg,AMNE09.jpg,AMNE12.jpg,AMSA17.jpg,AMNE12.jpg,MN,1,num_2,32,num_8,1.13313207973,,,2017_May_24_1328,60.0070250389,FEMA4ImagesEEG,001,200476,
AFNE01.JPG,AFNE01.JPG,AFNE01.JPG,AFNE01.JPG,AFNE01.JPG,AFNE01.JPG,,,,,,,,,,,,,2,8,28,6,,,,,,,,,,,AMSA16.jpg,AMNE18.jpg,AMSA11.jpg,AMNE20.jpg,AMNE18.jpg,MN,1,num_6,32,num_8,1.98336899432,,,2017_May_24_1328,60.0070250389,FEMA4ImagesEEG,001,200476,
AFNE01.JPG,AFNE01.JPG,AFNE01.JPG,AFNE01.JPG,AFNE01.JPG,AFNE01.JPG,,,,,,,,,,,,,2,9,29,0,,,,,,,,,,,AMNE14.jpg,AMSA09.jpg,AMNE13.jpg,AMSA01.jpg,AMSA01.jpg,MS,2,num_4,16,num_4,0.583454760141,,,2017_May_24_1328,60.0070250389,FEMA4ImagesEEG,001,200476,
AFNE01.JPG,AFNE01.JPG,AFNE01.JPG,AFNE01.JPG,AFNE01.JPG,AFNE01.JPG,,,,,,,,,,,,,3,0,30,3,,,,,,,,,,,AMSA03.jpg,AMNE04.jpg,AMSA16.jpg,AMNE17.jpg,AMSA03.jpg,MS,2,num_8,16,num_8,0.683447671705,,,2017_May_24_1328,60.0070250389,FEMA4ImagesEEG,001,200476,
AFNE01.JPG,AFNE01.JPG,AFNE01.JPG,AFNE01.JPG,AFNE01.JPG,AFNE01.JPG,,,,,,,,,,,,,3,1,31,6,,,,,,,,,,,AMNE20.jpg,AMNE15.jpg,AMSA05.jpg,AMSA11.jpg,AMSA05.jpg,MS,2,num_2,32,num_4,1.05010662996,,,2017_May_24_1328,60.0070250389,FEMA4ImagesEEG,001,200476,
AFNE01.JPG,AFNE01.JPG,AFNE01.JPG,AFNE01.JPG,AFNE01.JPG,AFNE01.JPG,,,,,,,,,,,,,3,2,32,4,,,,,,,,,,,AMNE01.jpg,AMSA13.jpg,AMNE10.jpg,AMSA11.jpg,AMNE01.jpg,MN,1,num_8,16,num_8,0.81676417694,,,2017_May_24_1328,60.0070250389,FEMA4ImagesEEG,001,200476,
AFNE01.JPG,AFNE01.JPG,AFNE01.JPG,AFNE01.JPG,AFNE01.JPG,AFNE01.JPG,,,,,,,,,,,,,3,3,33,2,,,,,,,,,,,AMNE09.jpg,AMNE15.jpg,AMSA11.jpg,AMSA20.jpg,AMSA20.jpg,MS,2,num_4,16,num_4,1.38338522369,,,2017_May_24_1328,60.0070250389,FEMA4ImagesEEG,001,200476,
AFNE01.JPG,AFNE01.JPG,AFNE01.JPG,AFNE01.JPG,AFNE01.JPG,AFNE01.JPG,,,,,,,,,,,,,3,4,34,9,,,,,,,,,,,AMSA13.jpg,AMNE06.jpg,AMSA19.jpg,AMNE13.jpg,AMSA19.jpg,MS,2,num_2,16,num_2,0.816749422927,,,2017_May_24_1328,60.0070250389,FEMA4ImagesEEG,001,200476,
AFNE01.JPG,AFNE01.JPG,AFNE01.JPG,AFNE01.JPG,AFNE01.JPG,AFNE01.JPG,,,,,,,,,,,,,3,5,35,5,,,,,,,,,,,AMNE12.jpg,AMSA04.jpg,AMSA07.jpg,AMNE14.jpg,AMSA07.jpg,MS,2,num_2,32,num_6,0.683413673309,,,2017_May_24_1328,60.0070250389,FEMA4ImagesEEG,001,200476,
AFNE01.JPG,AFNE01.JPG,AFNE01.JPG,AFNE01.JPG,AFNE01.JPG,AFNE01.JPG,,,,,,,,,,,,,3,6,36,7,,,,,,,,,,,AMNE08.jpg,AMSA07.jpg,AMNE06.jpg,AMSA17.jpg,AMSA07.jpg,MS,2,num_6,32,num_4,1.30010125763,,,2017_May_24_1328,60.0070250389,FEMA4ImagesEEG,001,200476,
AFNE01.JPG,AFNE01.JPG,AFNE01.JPG,AFNE01.JPG,AFNE01.JPG,AFNE01.JPG,,,,,,,,,,,,,3,7,37,8,,,,,,,,,,,AMNE01.jpg,AMSA13.jpg,AMNE03.jpg,AMSA16.jpg,AMNE03.jpg,MN,1,num_2,32,num_8,0.750132064684,,,2017_May_24_1328,60.0070250389,FEMA4ImagesEEG,001,200476,
AFNE01.JPG,AFNE01.JPG,AFNE01.JPG,AFNE01.JPG,AFNE01.JPG,AFNE01.JPG,,,,,,,,,,,,,3,8,38,1,,,,,,,,,,,AMSA05.jpg,AMNE19.jpg,AMSA14.jpg,AMNE15.jpg,AMSA05.jpg,MS,2,num_8,16,num_8,0.883150923182,,,2017_May_24_1328,60.0070250389,FEMA4ImagesEEG,001,200476,
AFNE01.JPG,AFNE01.JPG,AFNE01.JPG,AFNE01.JPG,AFNE01.JPG,AFNE01.JPG,,,,,,,,,,,,,3,9,39,0,,,,,,,,,,,AMSA03.jpg,AMSA09.jpg,AMNE18.jpg,AMNE15.jpg,AMNE18.jpg,MN,1,num_2,32,num_4,0.866784848622,,,2017_May_24_1328,60.0070250389,FEMA4ImagesEEG,001,200476,
AFNE01.JPG,AFNE01.JPG,AFNE01.JPG,AFNE01.JPG,AFNE01.JPG,AFNE01.JPG,,,,,,,,,,,,,4,0,40,6,,,,,,,,,,,AMNE20.jpg,AMSA20.jpg,AMSA19.jpg,AMNE07.jpg,AMSA19.jpg,MS,2,num_2,32,num_8,0.916781785665,,,2017_May_24_1328,60.0070250389,FEMA4ImagesEEG,001,200476,
AFNE01.JPG,AFNE01.JPG,AFNE01.JPG,AFNE01.JPG,AFNE01.JPG,AFNE01.JPG,,,,,,,,,,,,,4,1,41,8,,,,,,,,,,,AMNE07.jpg,AMSA02.jpg,AMSA18.jpg,AMNE06.jpg,AMSA02.jpg,MS,2,num_6,32,num_8,1.16677929985,,,2017_May_24_1328,60.0070250389,FEMA4ImagesEEG,001,200476,
AFNE01.JPG,AFNE01.JPG,AFNE01.JPG,AFNE01.JPG,AFNE01.JPG,AFNE01.JPG,,,,,,,,,,,,,4,2,42,2,,,,,,,,,,,AMSA12.jpg,AMSA02.jpg,AMNE04.jpg,AMNE12.jpg,AMNE04.jpg,MN,1,num_2,16,num_2,0.650038440712,,,2017_May_24_1328,60.0070250389,FEMA4ImagesEEG,001,200476,
AFNE01.JPG,AFNE01.JPG,AFNE01.JPG,AFNE01.JPG,AFNE01.JPG,AFNE01.JPG,,,,,,,,,,,,,4,3,43,0,,,,,,,,,,,AMNE14.jpg,AMSA16.jpg,AMNE07.jpg,AMSA08.jpg,AMNE14.jpg,MN,1,num_8,16,num_8,0.800106870476,,,2017_May_24_1328,60.0070250389,FEMA4ImagesEEG,001,200476,
AFNE01.JPG,AFNE01.JPG,AFNE01.JPG,AFNE01.JPG,AFNE01.JPG,AFNE01.JPG,,,,,,,,,,,,,4,4,44,3,,,,,,,,,,,AMSA04.jpg,AMSA02.jpg,AMNE18.jpg,AMNE14.jpg,AMNE14.jpg,MN,1,num_4,32,num_8,0.983424803009,,,2017_May_24_1328,60.0070250389,FEMA4ImagesEEG,001,200476,
AFNE01.JPG,AFNE01.JPG,AFNE01.JPG,AFNE01.JPG,AFNE01.JPG,AFNE01.JPG,,,,,,,,,,,,,4,5,45,7,,,,,,,,,,,AMNE02.jpg,AMNE13.jpg,AMSA05.jpg,AMSA10.jpg,AMSA10.jpg,MS,2,num_4,16,num_4,0.733432420529,,,2017_May_24_1328,60.0070250389,FEMA4ImagesEEG,001,200476,
AFNE01.JPG,AFNE01.JPG,AFNE01.JPG,AFNE01.JPG,AFNE01.JPG,AFNE01.JPG,,,,,,,,,,,,,4,6,46,4,,,,,,,,,,,AMSA12.jpg,AMSA16.jpg,AMNE16.jpg,AMNE12.jpg,AMNE16.jpg,MN,1,num_2,32,num_4,0.833466707612,,,2017_May_24_1328,60.0070250389,FEMA4ImagesEEG,001,200476,
AFNE01.JPG,AFNE01.JPG,AFNE01.JPG,AFNE01.JPG,AFNE01.JPG,AFNE01.JPG,,,,,,,,,,,,,4,7,47,1,,,,,,,,,,,AMNE20.jpg,AMSA06.jpg,AMNE12.jpg,AMSA12.jpg,AMNE12.jpg,MN,1,num_2,32,num_6,0.966749214451,,,2017_May_24_1328,60.0070250389,FEMA4ImagesEEG,001,200476,
AFNE01.JPG,AFNE01.JPG,AFNE01.JPG,AFNE01.JPG,AFNE01.JPG,AFNE01.JPG,,,,,,,,,,,,,4,8,48,5,,,,,,,,,,,AMNE10.jpg,AMSA16.jpg,AMSA07.jpg,AMNE07.jpg,AMSA07.jpg,MS,2,num_2,16,num_2,0.950100568007,,,2017_May_24_1328,60.0070250389,FEMA4ImagesEEG,001,200476,
AFNE01.JPG,AFNE01.JPG,AFNE01.JPG,AFNE01.JPG,AFNE01.JPG,AFNE01.JPG,,,,,,,,,,,,,4,9,49,9,,,,,,,,,,,AMNE12.jpg,AMSA15.jpg,AMNE01.jpg,AMSA08.jpg,AMSA15.jpg,MS,2,num_6,32,num_4,0.883106340305,,,2017_May_24_1328,60.0070250389,FEMA4ImagesEEG,001,200476,
AFNE01.JPG,AFNE01.JPG,AFNE01.JPG,AFNE01.JPG,AFNE01.JPG,AFNE01.JPG,,,,,,,,,,,,,5,0,50,8,,,,,,,,,,,AMSA13.jpg,AMSA18.jpg,AMNE19.jpg,AMNE09.jpg,AMNE19.jpg,MN,1,num_2,32,num_4,0.783438017475,,,2017_May_24_1328,60.0070250389,FEMA4ImagesEEG,001,200476,
AFNE01.JPG,AFNE01.JPG,AFNE01.JPG,AFNE01.JPG,AFNE01.JPG,AFNE01.JPG,,,,,,,,,,,,,5,1,51,4,,,,,,,,,,,AMSA10.jpg,AMNE17.jpg,AMSA12.jpg,AMNE02.jpg,AMNE17.jpg,MN,1,num_6,32,num_4,1.21675186045,,,2017_May_24_1328,60.0070250389,FEMA4ImagesEEG,001,200476,
AFNE01.JPG,AFNE01.JPG,AFNE01.JPG,AFNE01.JPG,AFNE01.JPG,AFNE01.JPG,,,,,,,,,,,,,5,2,52,7,,,,,,,,,,,AMNE11.jpg,AMSA01.jpg,AMNE09.jpg,AMSA18.jpg,AMNE09.jpg,MN,1,num_2,16,num_2,1.05044180318,,,2017_May_24_1328,60.0070250389,FEMA4ImagesEEG,001,200476,
AFNE01.JPG,AFNE01.JPG,AFNE01.JPG,AFNE01.JPG,AFNE01.JPG,AFNE01.JPG,,,,,,,,,,,,,5,3,53,1,,,,,,,,,,,AMNE04.jpg,AMNE16.jpg,AMSA18.jpg,AMSA07.jpg,AMSA18.jpg,MS,2,num_2,16,num_2,0.733455834561,,,2017_May_24_1328,60.0070250389,FEMA4ImagesEEG,001,200476,
AFNE01.JPG,AFNE01.JPG,AFNE01.JPG,AFNE01.JPG,AFNE01.JPG,AFNE01.JPG,,,,,,,,,,,,,5,4,54,5,,,,,,,,,,,AMSA10.jpg,AMNE13.jpg,AMSA12.jpg,AMNE05.jpg,AMNE13.jpg,MN,1,num_6,32,num_8,0.716750096413,,,2017_May_24_1328,60.0070250389,FEMA4ImagesEEG,001,200476,
AFNE01.JPG,AFNE01.JPG,AFNE01.JPG,AFNE01.JPG,AFNE01.JPG,AFNE01.JPG,,,,,,,,,,,,,5,5,55,2,,,,,,,,,,,AMNE19.jpg,AMNE11.jpg,AMSA18.jpg,AMSA19.jpg,AMSA18.jpg,MS,2,num_2,32,num_4,0.983459763578,,,2017_May_24_1328,60.0070250389,FEMA4ImagesEEG,001,200476,
AFNE01.JPG,AFNE01.JPG,AFNE01.JPG,AFNE01.JPG,AFNE01.JPG,AFNE01.JPG,,,,,,,,,,,,,5,6,56,0,,,,,,,,,,,AMNE19.jpg,AMNE13.jpg,AMSA16.jpg,AMSA04.jpg,AMSA04.jpg,MS,2,num_4,16,num_4,0.616764882579,,,2017_May_24_1328,60.0070250389,FEMA4ImagesEEG,001,200476,
AFNE01.JPG,AFNE01.JPG,AFNE01.JPG,AFNE01.JPG,AFNE01.JPG,AFNE01.JPG,,,,,,,,,,,,,5,7,57,9,,,,,,,,,,,AMNE07.jpg,AMSA09.jpg,AMSA02.jpg,AMNE15.jpg,AMNE15.jpg,MN,1,num_4,16,num_4,0.733484059689,,,2017_May_24_1328,60.0070250389,FEMA4ImagesEEG,001,200476,
AFNE01.JPG,AFNE01.JPG,AFNE01.JPG,AFNE01.JPG,AFNE01.JPG,AFNE01.JPG,,,,,,,,,,,,,5,8,58,6,,,,,,,,,,,AMNE04.jpg,AMNE09.jpg,AMSA06.jpg,AMSA01.jpg,AMNE09.jpg,MN,1,num_6,32,num_8,1.00008307165,,,2017_May_24_1328,60.0070250389,FEMA4ImagesEEG,001,200476,
AFNE01.JPG,AFNE01.JPG,AFNE01.JPG,AFNE01.JPG,AFNE01.JPG,AFNE01.JPG,,,,,,,,,,,,,5,9,59,3,,,,,,,,,,,AMNE01.jpg,AMSA03.jpg,AMNE08.jpg,AMSA14.jpg,AMSA14.jpg,MS,2,num_4,16,num_4,0.61678540986,,,2017_May_24_1328,60.0070250389,FEMA4ImagesEEG,001,200476,
,,,,,,,,,,,,,,,,,,,,,,,,,,,,,,,,,,,,,,,,,,,space,8.66592051869,2017_May_24_1328,60.0070250389,FEMA4ImagesEEG,001,200476,
AFNE01.JPG,AFNE01.JPG,AFNE01.JPG,AFNE01.JPG,AFNE01.JPG,AFNE01.JPG,,,,,,,,,,,,,,,,,0,0,0,0,,,,,,,AFSA02.jpg,AFSA17.jpg,AFNE16.jpg,AFNE20.jpg,AFNE16.jpg,FN,3,num_2,32,num_4,0.91677344637,,,2017_May_24_1328,60.0070250389,FEMA4ImagesEEG,001,200476,
AFNE01.JPG,AFNE01.JPG,AFNE01.JPG,AFNE01.JPG,AFNE01.JPG,AFNE01.JPG,,,,,,,,,,,,,,,,,0,1,1,3,,,,,,,AFNE11.jpg,AFSA07.jpg,AFNE08.jpg,AFSA16.jpg,AFNE08.jpg,FN,3,num_2,16,num_2,1.50005949719,,,2017_May_24_1328,60.0070250389,FEMA4ImagesEEG,001,200476,
AFNE01.JPG,AFNE01.JPG,AFNE01.JPG,AFNE01.JPG,AFNE01.JPG,AFNE01.JPG,,,,,,,,,,,,,,,,,0,2,2,7,,,,,,,AFSA03.jpg,AFNE03.jpg,AFSA14.jpg,AFNE15.jpg,AFNE03.jpg,FN,3,num_6,16,num_6,1.08370990865,,,2017_May_24_1328,60.0070250389,FEMA4ImagesEEG,001,200476,
AFNE01.JPG,AFNE01.JPG,AFNE01.JPG,AFNE01.JPG,AFNE01.JPG,AFNE01.JPG,,,,,,,,,,,,,,,,,0,3,3,5,,,,,,,AFSA13.jpg,AFNE19.jpg,AFSA08.jpg,AFNE02.jpg,AFNE02.jpg,FN,3,num_4,32,num_6,1.0167464721,,,2017_May_24_1328,60.0070250389,FEMA4ImagesEEG,001,200476,
AFNE01.JPG,AFNE01.JPG,AFNE01.JPG,AFNE01.JPG,AFNE01.JPG,AFNE01.JPG,,,,,,,,,,,,,,,,,0,4,4,1,,,,,,,AFSA17.jpg,AFNE02.jpg,AFNE19.jpg,AFSA09.jpg,AFNE19.jpg,FN,3,num_2,16,num_2,0.883413609234,,,2017_May_24_1328,60.0070250389,FEMA4ImagesEEG,001,200476,
AFNE01.JPG,AFNE01.JPG,AFNE01.JPG,AFNE01.JPG,AFNE01.JPG,AFNE01.JPG,,,,,,,,,,,,,,,,,0,5,5,2,,,,,,,AFSA20.jpg,AFNE12.jpg,AFNE13.jpg,AFSA07.jpg,AFNE13.jpg,FN,3,num_2,16,num_2,1.20008942229,,,2017_May_24_1328,60.0070250389,FEMA4ImagesEEG,001,200476,
AFNE01.JPG,AFNE01.JPG,AFNE01.JPG,AFNE01.JPG,AFNE01.JPG,AFNE01.JPG,,,,,,,,,,,,,,,,,0,6,6,8,,,,,,,AFSA19.jpg,AFSA07.jpg,AFNE02.jpg,AFNE19.jpg,AFNE02.jpg,FN,3,num_2,32,num_6,0.966736705624,,,2017_May_24_1328,60.0070250389,FEMA4ImagesEEG,001,200476,
AFNE01.JPG,AFNE01.JPG,AFNE01.JPG,AFNE01.JPG,AFNE01.JPG,AFNE01.JPG,,,,,,,,,,,,,,,,,0,7,7,9,,,,,,,AFSA09.jpg,AFNE14.jpg,AFSA17.jpg,AFNE08.jpg,AFNE14.jpg,FN,3,num_6,16,num_6,1.01677373494,,,2017_May_24_1328,60.0070250389,FEMA4ImagesEEG,001,200476,
AFNE01.JPG,AFNE01.JPG,AFNE01.JPG,AFNE01.JPG,AFNE01.JPG,AFNE01.JPG,,,,,,,,,,,,,,,,,0,8,8,4,,,,,,,AFSA04.jpg,AFNE17.jpg,AFNE04.jpg,AFSA11.jpg,AFNE04.jpg,FN,3,num_2,32,num_6,1.15013610595,,,2017_May_24_1328,60.0070250389,FEMA4ImagesEEG,001,200476,
AFNE01.JPG,AFNE01.JPG,AFNE01.JPG,AFNE01.JPG,AFNE01.JPG,AFNE01.JPG,,,,,,,,,,,,,,,,,0,9,9,6,,,,,,,AFNE13.jpg,AFSA15.jpg,AFNE20.jpg,AFSA11.jpg,AFNE13.jpg,FN,3,num_8,32,num_2,0.950079720002,,,2017_May_24_1328,60.0070250389,FEMA4ImagesEEG,001,200476,
AFNE01.JPG,AFNE01.JPG,AFNE01.JPG,AFNE01.JPG,AFNE01.JPG,AFNE01.JPG,,,,,,,,,,,,,,,,,1,0,10,7,,,,,,,AFNE18.jpg,AFNE14.jpg,AFSA04.jpg,AFSA01.jpg,AFNE14.jpg,FN,3,num_6,32,num_8,0.950233995798,,,2017_May_24_1328,60.0070250389,FEMA4ImagesEEG,001,200476,
AFNE01.JPG,AFNE01.JPG,AFNE01.JPG,AFNE01.JPG,AFNE01.JPG,AFNE01.JPG,,,,,,,,,,,,,,,,,1,1,11,5,,,,,,,AFSA02.jpg,AFNE12.jpg,AFNE01.jpg,AFSA14.jpg,AFNE12.jpg,FN,3,num_6,16,num_6,0.916763824061,,,2017_May_24_1328,60.0070250389,FEMA4ImagesEEG,001,200476,
AFNE01.JPG,AFNE01.JPG,AFNE01.JPG,AFNE01.JPG,AFNE01.JPG,AFNE01.JPG,,,,,,,,,,,,,,,,,1,2,12,4,,,,,,,AFSA04.jpg,AFSA09.jpg,AFNE12.jpg,AFNE20.jpg,AFSA09.jpg,FS,4,num_6,16,num_6,1.03327965224,,,2017_May_24_1328,60.0070250389,FEMA4ImagesEEG,001,200476,
AFNE01.JPG,AFNE01.JPG,AFNE01.JPG,AFNE01.JPG,AFNE01.JPG,AFNE01.JPG,,,,,,,,,,,,,,,,,1,3,13,0,,,,,,,AFSA20.jpg,AFNE12.jpg,AFNE13.jpg,AFSA15.jpg,AFNE13.jpg,FN,3,num_2,32,num_8,1.03343553178,,,2017_May_24_1328,60.0070250389,FEMA4ImagesEEG,001,200476,
AFNE01.JPG,AFNE01.JPG,AFNE01.JPG,AFNE01.JPG,AFNE01.JPG,AFNE01.JPG,,,,,,,,,,,,,,,,,1,4,14,2,,,,,,,AFNE19.jpg,AFNE12.jpg,AFSA17.jpg,AFSA19.jpg,AFNE12.jpg,FN,3,num_6,16,num_6,0.899950958905,,,2017_May_24_1328,60.0070250389,FEMA4ImagesEEG,001,200476,
AFNE01.JPG,AFNE01.JPG,AFNE01.JPG,AFNE01.JPG,AFNE01.JPG,AFNE01.JPG,,,,,,,,,,,,,,,,,1,5,15,3,,,,,,,AFNE02.jpg,AFSA06.jpg,AFNE19.jpg,AFSA13.jpg,AFNE19.jpg,FN,3,num_2,16,num_2,1.21673005028,,,2017_May_24_1328,60.0070250389,FEMA4ImagesEEG,001,200476,
AFNE01.JPG,AFNE01.JPG,AFNE01.JPG,AFNE01.JPG,AFNE01.JPG,AFNE01.JPG,,,,,,,,,,,,,,,,,1,6,16,8,,,,,,,AFSA05.jpg,AFSA15.jpg,AFNE19.jpg,AFNE13.jpg,AFSA15.jpg,FS,4,num_6,16,num_6,0.800145359244,,,2017_May_24_1328,60.0070250389,FEMA4ImagesEEG,001,200476,
AFNE01.JPG,AFNE01.JPG,AFNE01.JPG,AFNE01.JPG,AFNE01.JPG,AFNE01.JPG,,,,,,,,,,,,,,,,,1,7,17,9,,,,,,,AFNE17.jpg,AFSA20.jpg,AFNE15.jpg,AFSA09.jpg,AFNE17.jpg,FN,3,num_8,16,num_8,0.966769100283,,,2017_May_24_1328,60.0070250389,FEMA4ImagesEEG,001,200476,
AFNE01.JPG,AFNE01.JPG,AFNE01.JPG,AFNE01.JPG,AFNE01.JPG,AFNE01.JPG,,,,,,,,,,,,,,,,,1,8,18,1,,,,,,,AFSA13.jpg,AFNE01.jpg,AFSA14.jpg,AFNE12.jpg,AFSA14.jpg,FS,4,num_2,16,num_2,1.31659659033,,,2017_May_24_1328,60.0070250389,FEMA4ImagesEEG,001,200476,
AFNE01.JPG,AFNE01.JPG,AFNE01.JPG,AFNE01.JPG,AFNE01.JPG,AFNE01.JPG,,,,,,,,,,,,,,,,,1,9,19,6,,,,,,,AFSA14.jpg,AFNE07.jpg,AFNE08.jpg,AFSA02.jpg,AFNE08.jpg,FN,3,num_2,32,num_6,1.03344387095,,,2017_May_24_1328,60.0070250389,FEMA4ImagesEEG,001,200476,
AFNE01.JPG,AFNE01.JPG,AFNE01.JPG,AFNE01.JPG,AFNE01.JPG,AFNE01.JPG,,,,,,,,,,,,,,,,,2,0,20,3,,,,,,,AFNE13.jpg,AFSA13.jpg,AFNE11.jpg,AFSA15.jpg,AFSA13.jpg,FS,4,num_6,16,num_6,0.750119235134,,,2017_May_24_1328,60.0070250389,FEMA4ImagesEEG,001,200476,
AFNE01.JPG,AFNE01.JPG,AFNE01.JPG,AFNE01.JPG,AFNE01.JPG,AFNE01.JPG,,,,,,,,,,,,,,,,,2,1,21,8,,,,,,,AFNE05.jpg,AFSA05.jpg,AFNE18.jpg,AFSA08.jpg,AFNE18.jpg,FN,3,num_2,32,num_8,0.933435884537,,,2017_May_24_1328,60.0070250389,FEMA4ImagesEEG,001,200476,
AFNE01.JPG,AFNE01.JPG,AFNE01.JPG,AFNE01.JPG,AFNE01.JPG,AFNE01.JPG,,,,,,,,,,,,,,,,,2,2,22,4,,,,,,,AFNE19.jpg,AFNE04.jpg,AFSA08.jpg,AFSA09.jpg,AFSA09.jpg,FS,4,num_4,16,num_4,0.866746359854,,,2017_May_24_1328,60.0070250389,FEMA4ImagesEEG,001,200476,
AFNE01.JPG,AFNE01.JPG,AFNE01.JPG,AFNE01.JPG,AFNE01.JPG,AFNE01.JPG,,,,,,,,,,,,,,,,,2,3,23,7,,,,,,,AFNE03.jpg,AFSA17.jpg,AFNE17.jpg,AFSA04.jpg,AFSA17.jpg,FS,4,num_6,16,num_6,0.750179213355,,,2017_May_24_1328,60.0070250389,FEMA4ImagesEEG,001,200476,
AFNE01.JPG,AFNE01.JPG,AFNE01.JPG,AFNE01.JPG,AFNE01.JPG,AFNE01.JPG,,,,,,,,,,,,,,,,,2,4,24,9,,,,,,,AFNE05.jpg,AFSA11.jpg,AFNE07.jpg,AFSA18.jpg,AFSA11.jpg,FS,4,num_6,16,num_6,0.800100455759,,,2017_May_24_1328,60.0070250389,FEMA4ImagesEEG,001,200476,
AFNE01.JPG,AFNE01.JPG,AFNE01.JPG,AFNE01.JPG,AFNE01.JPG,AFNE01.JPG,,,,,,,,,,,,,,,,,2,5,25,1,,,,,,,AFNE12.jpg,AFSA04.jpg,AFSA09.jpg,AFNE04.jpg,AFNE12.jpg,FN,3,num_8,32,num_4,1.31672167883,,,2017_May_24_1328,60.0070250389,FEMA4ImagesEEG,001,200476,
AFNE01.JPG,AFNE01.JPG,AFNE01.JPG,AFNE01.JPG,AFNE01.JPG,AFNE01.JPG,,,,,,,,,,,,,,,,,2,6,26,6,,,,,,,AFNE20.jpg,AFSA15.jpg,AFSA17.jpg,AFNE19.jpg,AFNE19.jpg,FN,3,num_4,32,num_2,0.916755484883,,,2017_May_24_1328,60.0070250389,FEMA4ImagesEEG,001,200476,
AFNE01.JPG,AFNE01.JPG,AFNE01.JPG,AFNE01.JPG,AFNE01.JPG,AFNE01.JPG,,,,,,,,,,,,,,,,,2,7,27,5,,,,,,,AFNE06.jpg,AFSA06.jpg,AFSA15.jpg,AFNE18.jpg,AFSA06.jpg,FS,4,num_6,16,num_6,0.833480178728,,,2017_May_24_1328,60.0070250389,FEMA4ImagesEEG,001,200476,
AFNE01.JPG,AFNE01.JPG,AFNE01.JPG,AFNE01.JPG,AFNE01.JPG,AFNE01.JPG,,,,,,,,,,,,,,,,,2,8,28,0,,,,,,,AFSA19.jpg,AFNE02.jpg,AFSA15.jpg,AFNE19.jpg,AFNE02.jpg,FN,3,num_6,32,num_4,1.03349198203,,,2017_May_24_1328,60.0070250389,FEMA4ImagesEEG,001,200476,
AFNE01.JPG,AFNE01.JPG,AFNE01.JPG,AFNE01.JPG,AFNE01.JPG,AFNE01.JPG,,,,,,,,,,,,,,,,,2,9,29,2,,,,,,,AFNE17.jpg,AFSA18.jpg,AFNE20.jpg,AFSA02.jpg,AFNE17.jpg,FN,3,num_8,16,num_8,0.816748781479,,,2017_May_24_1328,60.0070250389,FEMA4ImagesEEG,001,200476,
AFNE01.JPG,AFNE01.JPG,AFNE01.JPG,AFNE01.JPG,AFNE01.JPG,AFNE01.JPG,,,,,,,,,,,,,,,,,3,0,30,6,,,,,,,AFSA01.jpg,AFNE10.jpg,AFSA12.jpg,AFNE11.jpg,AFNE11.jpg,FN,3,num_4,16,num_4,1.0499529955,,,2017_May_24_1328,60.0070250389,FEMA4ImagesEEG,001,200476,
AFNE01.JPG,AFNE01.JPG,AFNE01.JPG,AFNE01.JPG,AFNE01.JPG,AFNE01.JPG,,,,,,,,,,,,,,,,,3,1,31,9,,,,,,,AFSA17.jpg,AFSA16.jpg,AFNE16.jpg,AFNE05.jpg,AFNE16.jpg,FN,3,num_2,32,num_8,0.850114712724,,,2017_May_24_1328,60.0070250389,FEMA4ImagesEEG,001,200476,
AFNE01.JPG,AFNE01.JPG,AFNE01.JPG,AFNE01.JPG,AFNE01.JPG,AFNE01.JPG,,,,,,,,,,,,,,,,,3,2,32,0,,,,,,,AFSA08.jpg,AFSA04.jpg,AFNE03.jpg,AFNE14.jpg,AFNE03.jpg,FN,3,num_2,32,num_4,0.733243184048,,,2017_May_24_1328,60.0070250389,FEMA4ImagesEEG,001,200476,
AFNE01.JPG,AFNE01.JPG,AFNE01.JPG,AFNE01.JPG,AFNE01.JPG,AFNE01.JPG,,,,,,,,,,,,,,,,,3,3,33,7,,,,,,,AFSA18.jpg,AFNE05.jpg,AFSA13.jpg,AFNE14.jpg,AFNE14.jpg,FN,3,num_4,16,num_4,0.86662704451,,,2017_May_24_1328,60.0070250389,FEMA4ImagesEEG,001,200476,
AFNE01.JPG,AFNE01.JPG,AFNE01.JPG,AFNE01.JPG,AFNE01.JPG,AFNE01.JPG,,,,,,,,,,,,,,,,,3,4,34,4,,,,,,,AFNE03.jpg,AFNE09.jpg,AFSA19.jpg,AFSA10.jpg,AFSA10.jpg,FS,4,num_4,16,num_4,0.633562031551,,,2017_May_24_1328,60.0070250389,FEMA4ImagesEEG,001,200476,
AFNE01.JPG,AFNE01.JPG,AFNE01.JPG,AFNE01.JPG,AFNE01.JPG,AFNE01.JPG,,,,,,,,,,,,,,,,,3,5,35,3,,,,,,,AFSA04.jpg,AFNE09.jpg,AFNE05.jpg,AFSA13.jpg,AFSA13.jpg,FS,4,num_4,16,num_4,0.916807444766,,,2017_May_24_1328,60.0070250389,FEMA4ImagesEEG,001,200476,
AFNE01.JPG,AFNE01.JPG,AFNE01.JPG,AFNE01.JPG,AFNE01.JPG,AFNE01.JPG,,,,,,,,,,,,,,,,,3,6,36,8,,,,,,,AFNE02.jpg,AFNE12.jpg,AFSA07.jpg,AFSA17.jpg,AFNE02.jpg,FN,3,num_8,16,num_8,1.43338793388,,,2017_May_24_1328,60.0070250389,FEMA4ImagesEEG,001,200476,
AFNE01.JPG,AFNE01.JPG,AFNE01.JPG,AFNE01.JPG,AFNE01.JPG,AFNE01.JPG,,,,,,,,,,,,,,,,,3,7,37,1,,,,,,,AFSA12.jpg,AFNE20.jpg,AFNE10.jpg,AFSA05.jpg,AFSA05.jpg,FS,4,num_4,16,num_4,0.700132882572,,,2017_May_24_1328,60.0070250389,FEMA4ImagesEEG,001,200476,
AFNE01.JPG,AFNE01.JPG,AFNE01.JPG,AFNE01.JPG,AFNE01.JPG,AFNE01.JPG,,,,,,,,,,,,,,,,,3,8,38,5,,,,,,,AFNE16.jpg,AFSA10.jpg,AFNE17.jpg,AFSA01.jpg,AFNE16.jpg,FN,3,num_8,16,num_8,1.46661466407,,,2017_May_24_1328,60.0070250389,FEMA4ImagesEEG,001,200476,
AFNE01.JPG,AFNE01.JPG,AFNE01.JPG,AFNE01.JPG,AFNE01.JPG,AFNE01.JPG,,,,,,,,,,,,,,,,,3,9,39,2,,,,,,,AFNE17.jpg,AFSA12.jpg,AFNE20.jpg,AFSA05.jpg,AFNE20.jpg,FN,3,num_2,32,num_8,1.0667395601,,,2017_May_24_1328,60.0070250389,FEMA4ImagesEEG,001,200476,
AFNE01.JPG,AFNE01.JPG,AFNE01.JPG,AFNE01.JPG,AFNE01.JPG,AFNE01.JPG,,,,,,,,,,,,,,,,,4,0,40,6,,,,,,,AFNE06.jpg,AFSA13.jpg,AFSA18.jpg,AFNE14.jpg,AFSA18.jpg,FS,4,num_2,32,num_6,0.766759542283,,,2017_May_24_1328,60.0070250389,FEMA4ImagesEEG,001,200476,
AFNE01.JPG,AFNE01.JPG,AFNE01.JPG,AFNE01.JPG,AFNE01.JPG,AFNE01.JPG,,,,,,,,,,,,,,,,,4,1,41,8,,,,,,,AFNE12.jpg,AFSA13.jpg,AFSA08.jpg,AFNE06.jpg,AFSA08.jpg,FS,4,num_2,16,num_2,0.900106838439,,,2017_May_24_1328,60.0070250389,FEMA4ImagesEEG,001,200476,
AFNE01.JPG,AFNE01.JPG,AFNE01.JPG,AFNE01.JPG,AFNE01.JPG,AFNE01.JPG,,,,,,,,,,,,,,,,,4,2,42,5,,,,,,,AFNE02.jpg,AFSA15.jpg,AFNE16.jpg,AFSA17.jpg,AFNE02.jpg,FN,3,num_8,32,num_4,0.766755051911,,,2017_May_24_1328,60.0070250389,FEMA4ImagesEEG,001,200476,
AFNE01.JPG,AFNE01.JPG,AFNE01.JPG,AFNE01.JPG,AFNE01.JPG,AFNE01.JPG,,,,,,,,,,,,,,,,,4,3,43,9,,,,,,,AFSA03.jpg,AFNE18.jpg,AFNE12.jpg,AFSA09.jpg,AFSA03.jpg,FS,4,num_8,32,num_4,1.08327819279,,,2017_May_24_1328,60.0070250389,FEMA4ImagesEEG,001,200476,
AFNE01.JPG,AFNE01.JPG,AFNE01.JPG,AFNE01.JPG,AFNE01.JPG,AFNE01.JPG,,,,,,,,,,,,,,,,,4,4,44,1,,,,,,,AFSA07.jpg,AFSA14.jpg,AFNE09.jpg,AFNE01.jpg,AFSA14.jpg,FS,4,num_6,32,num_8,0.816841154476,,,2017_May_24_1328,60.0070250389,FEMA4ImagesEEG,001,200476,
AFNE01.JPG,AFNE01.JPG,AFNE01.JPG,AFNE01.JPG,AFNE01.JPG,AFNE01.JPG,,,,,,,,,,,,,,,,,4,5,45,4,,,,,,,AFNE04.jpg,AFSA06.jpg,AFNE06.jpg,AFSA09.jpg,AFSA09.jpg,FS,4,num_4,16,num_4,0.666767913499,,,2017_May_24_1328,60.0070250389,FEMA4ImagesEEG,001,200476,
AFNE01.JPG,AFNE01.JPG,AFNE01.JPG,AFNE01.JPG,AFNE01.JPG,AFNE01.JPG,,,,,,,,,,,,,,,,,4,6,46,2,,,,,,,AFNE04.jpg,AFSA07.jpg,AFSA10.jpg,AFNE16.jpg,AFSA10.jpg,FS,4,num_2,32,num_8,0.983490554732,,,2017_May_24_1328,60.0070250389,FEMA4ImagesEEG,001,200476,
AFNE01.JPG,AFNE01.JPG,AFNE01.JPG,AFNE01.JPG,AFNE01.JPG,AFNE01.JPG,,,,,,,,,,,,,,,,,4,7,47,0,,,,,,,AFSA02.jpg,AFNE16.jpg,AFNE09.jpg,AFSA01.jpg,AFSA01.jpg,FS,4,num_4,16,num_4,1.15011942759,,,2017_May_24_1328,60.0070250389,FEMA4ImagesEEG,001,200476,
AFNE01.JPG,AFNE01.JPG,AFNE01.JPG,AFNE01.JPG,AFNE01.JPG,AFNE01.JPG,,,,,,,,,,,,,,,,,4,8,48,3,,,,,,,AFSA20.jpg,AFSA16.jpg,AFNE13.jpg,AFNE06.jpg,AFNE06.jpg,FN,3,num_4,16,num_4,0.933436525986,,,2017_May_24_1328,60.0070250389,FEMA4ImagesEEG,001,200476,
AFNE01.JPG,AFNE01.JPG,AFNE01.JPG,AFNE01.JPG,AFNE01.JPG,AFNE01.JPG,,,,,,,,,,,,,,,,,4,9,49,7,,,,,,,AFSA05.jpg,AFNE10.jpg,AFNE20.jpg,AFSA20.jpg,AFSA20.jpg,FS,4,num_4,16,num_4,1.26643126493,,,2017_May_24_1328,60.0070250389,FEMA4ImagesEEG,001,200476,
AFNE01.JPG,AFNE01.JPG,AFNE01.JPG,AFNE01.JPG,AFNE01.JPG,AFNE01.JPG,,,,,,,,,,,,,,,,,5,0,50,0,,,,,,,AFNE01.jpg,AFNE02.jpg,AFSA15.jpg,AFSA09.jpg,AFSA09.jpg,FS,4,num_4,16,num_4,0.700152768404,,,2017_May_24_1328,60.0070250389,FEMA4ImagesEEG,001,200476,
AFNE01.JPG,AFNE01.JPG,AFNE01.JPG,AFNE01.JPG,AFNE01.JPG,AFNE01.JPG,,,,,,,,,,,,,,,,,5,1,51,1,,,,,,,AFSA13.jpg,AFNE16.jpg,AFSA01.jpg,AFNE14.jpg,AFNE14.jpg,FN,3,num_4,16,num_4,1.56672272133,,,2017_May_24_1328,60.0070250389,FEMA4ImagesEEG,001,200476,
AFNE01.JPG,AFNE01.JPG,AFNE01.JPG,AFNE01.JPG,AFNE01.JPG,AFNE01.JPG,,,,,,,,,,,,,,,,,5,2,52,5,,,,,,,AFSA16.jpg,AFSA19.jpg,AFNE04.jpg,AFNE15.jpg,AFSA16.jpg,FS,4,num_8,16,num_8,0.71676902019,,,2017_May_24_1328,60.0070250389,FEMA4ImagesEEG,001,200476,
AFNE01.JPG,AFNE01.JPG,AFNE01.JPG,AFNE01.JPG,AFNE01.JPG,AFNE01.JPG,,,,,,,,,,,,,,,,,5,3,53,3,,,,,,,AFSA20.jpg,AFSA13.jpg,AFNE09.jpg,AFNE13.jpg,AFSA20.jpg,FS,4,num_8,32,num_6,1.08340552659,,,2017_May_24_1328,60.0070250389,FEMA4ImagesEEG,001,200476,
AFNE01.JPG,AFNE01.JPG,AFNE01.JPG,AFNE01.JPG,AFNE01.JPG,AFNE01.JPG,,,,,,,,,,,,,,,,,5,4,54,4,,,,,,,AFNE16.jpg,AFSA17.jpg,AFSA14.jpg,AFNE03.jpg,AFNE03.jpg,FN,3,num_4,16,num_4,1.01681126154,,,2017_May_24_1328,60.0070250389,FEMA4ImagesEEG,001,200476,
AFNE01.JPG,AFNE01.JPG,AFNE01.JPG,AFNE01.JPG,AFNE01.JPG,AFNE01.JPG,,,,,,,,,,,,,,,,,5,5,55,7,,,,,,,AFNE05.jpg,AFNE06.jpg,AFSA07.jpg,AFSA12.jpg,AFSA07.jpg,FS,4,num_2,32,num_4,1.01663068496,,,2017_May_24_1328,60.0070250389,FEMA4ImagesEEG,001,200476,
AFNE01.JPG,AFNE01.JPG,AFNE01.JPG,AFNE01.JPG,AFNE01.JPG,AFNE01.JPG,,,,,,,,,,,,,,,,,5,6,56,8,,,,,,,AFNE19.jpg,AFSA15.jpg,AFSA19.jpg,AFNE07.jpg,AFNE19.jpg,FN,3,num_8,16,num_8,0.816789194592,,,2017_May_24_1328,60.0070250389,FEMA4ImagesEEG,001,200476,
AFNE01.JPG,AFNE01.JPG,AFNE01.JPG,AFNE01.JPG,AFNE01.JPG,AFNE01.JPG,,,,,,,,,,,,,,,,,5,7,57,6,,,,,,,AFNE12.jpg,AFSA19.jpg,AFSA09.jpg,AFNE19.jpg,AFSA19.jpg,FS,4,num_6,32,num_4,1.15009152307,,,2017_May_24_1328,60.0070250389,FEMA4ImagesEEG,001,200476,
AFNE01.JPG,AFNE01.JPG,AFNE01.JPG,AFNE01.JPG,AFNE01.JPG,AFNE01.JPG,,,,,,,,,,,,,,,,,5,8,58,2,,,,,,,AFSA11.jpg,AFSA14.jpg,AFNE04.jpg,AFNE11.jpg,AFSA14.jpg,FS,4,num_6,32,num_2,0.93346218532,,,2017_May_24_1328,60.0070250389,FEMA4ImagesEEG,001,200476,
AFNE01.JPG,AFNE01.JPG,AFNE01.JPG,AFNE01.JPG,AFNE01.JPG,AFNE01.JPG,,,,,,,,,,,,,,,,,5,9,59,9,,,,,,,AFNE04.jpg,AFSA12.jpg,AFSA01.jpg,AFNE08.jpg,AFNE04.jpg,FN,3,num_8,32,num_4,0.983413256472,,,2017_May_24_1328,60.0070250389,FEMA4ImagesEEG,001,200476,
,,,,,,,,,,,,,,,,,,,,,,,,,,,,,,,,,,,,,,,,,,,space,9.83274536359,2017_May_24_1328,60.0070250389,FEMA4ImagesEEG,001,200476,
AFNE01.JPG,AFNE01.JPG,AFNE01.JPG,AFNE01.JPG,AFNE01.JPG,AFNE01.JPG,,,,,,,,,,,,,,,,,,,,,0,0,0,3,,,AMSA17.jpg,AMNE07.jpg,AMSA14.jpg,AMNE02.jpg,AMNE07.jpg,MN,1,num_6,32,num_8,0.766737090424,,,2017_May_24_1328,60.0070250389,FEMA4ImagesEEG,001,200476,
AFNE01.JPG,AFNE01.JPG,AFNE01.JPG,AFNE01.JPG,AFNE01.JPG,AFNE01.JPG,,,,,,,,,,,,,,,,,,,,,0,1,1,0,,,AMNE09.jpg,AMSA13.jpg,AMNE16.jpg,AMSA07.jpg,AMSA13.jpg,MS,2,num_6,16,num_6,0.8001299639,,,2017_May_24_1328,60.0070250389,FEMA4ImagesEEG,001,200476,
AFNE01.JPG,AFNE01.JPG,AFNE01.JPG,AFNE01.JPG,AFNE01.JPG,AFNE01.JPG,,,,,,,,,,,,,,,,,,,,,0,2,2,7,,,AMNE05.jpg,AMSA10.jpg,AMNE04.jpg,AMSA18.jpg,AMNE05.jpg,MN,1,num_8,16,num_8,0.800072551356,,,2017_May_24_1328,60.0070250389,FEMA4ImagesEEG,001,200476,
AFNE01.JPG,AFNE01.JPG,AFNE01.JPG,AFNE01.JPG,AFNE01.JPG,AFNE01.JPG,,,,,,,,,,,,,,,,,,,,,0,3,3,8,,,AMNE07.jpg,AMSA18.jpg,AMNE17.jpg,AMSA07.jpg,AMSA18.jpg,MS,2,num_6,16,num_6,0.783455658238,,,2017_May_24_1328,60.0070250389,FEMA4ImagesEEG,001,200476,
AFNE01.JPG,AFNE01.JPG,AFNE01.JPG,AFNE01.JPG,AFNE01.JPG,AFNE01.JPG,,,,,,,,,,,,,,,,,,,,,0,4,4,5,,,AMNE18.jpg,AMSA11.jpg,AMSA05.jpg,AMNE06.jpg,AMNE18.jpg,MN,1,num_8,32,num_4,0.933432677179,,,2017_May_24_1328,60.0070250389,FEMA4ImagesEEG,001,200476,
AFNE01.JPG,AFNE01.JPG,AFNE01.JPG,AFNE01.JPG,AFNE01.JPG,AFNE01.JPG,,,,,,,,,,,,,,,,,,,,,0,5,5,1,,,AMSA18.jpg,AMSA09.jpg,AMNE02.jpg,AMNE16.jpg,AMSA09.jpg,MS,2,num_6,16,num_6,0.766792578506,,,2017_May_24_1328,60.0070250389,FEMA4ImagesEEG,001,200476,
AFNE01.JPG,AFNE01.JPG,AFNE01.JPG,AFNE01.JPG,AFNE01.JPG,AFNE01.JPG,,,,,,,,,,,,,,,,,,,,,0,6,6,4,,,AMSA19.jpg,AMNE15.jpg,AMSA12.jpg,AMNE18.jpg,AMSA12.jpg,MS,2,num_2,16,num_2,0.850276044803,,,2017_May_24_1328,60.0070250389,FEMA4ImagesEEG,001,200476,
AFNE01.JPG,AFNE01.JPG,AFNE01.JPG,AFNE01.JPG,AFNE01.JPG,AFNE01.JPG,,,,,,,,,,,,,,,,,,,,,0,7,7,9,,,AMNE09.jpg,AMSA16.jpg,AMNE20.jpg,AMSA20.jpg,AMSA20.jpg,MS,2,num_4,32,num_6,0.95007138059,,,2017_May_24_1328,60.0070250389,FEMA4ImagesEEG,001,200476,
AFNE01.JPG,AFNE01.JPG,AFNE01.JPG,AFNE01.JPG,AFNE01.JPG,AFNE01.JPG,,,,,,,,,,,,,,,,,,,,,0,8,8,2,,,AMNE02.jpg,AMNE13.jpg,AMSA09.jpg,AMSA16.jpg,AMNE13.jpg,MN,1,num_6,32,num_8,1.05005819828,,,2017_May_24_1328,60.0070250389,FEMA4ImagesEEG,001,200476,
AFNE01.JPG,AFNE01.JPG,AFNE01.JPG,AFNE01.JPG,AFNE01.JPG,AFNE01.JPG,,,,,,,,,,,,,,,,,,,,,0,9,9,6,,,AMSA07.jpg,AMNE14.jpg,AMSA12.jpg,AMNE06.jpg,AMNE14.jpg,MN,1,num_6,16,num_6,1.11678524956,,,2017_May_24_1328,60.0070250389,FEMA4ImagesEEG,001,200476,
AFNE01.JPG,AFNE01.JPG,AFNE01.JPG,AFNE01.JPG,AFNE01.JPG,AFNE01.JPG,,,,,,,,,,,,,,,,,,,,,1,0,10,4,,,AMNE09.jpg,AMSA10.jpg,AMNE18.jpg,AMSA20.jpg,AMNE18.jpg,MN,1,num_2,32,num_6,0.683454086538,,,2017_May_24_1328,60.0070250389,FEMA4ImagesEEG,001,200476,
AFNE01.JPG,AFNE01.JPG,AFNE01.JPG,AFNE01.JPG,AFNE01.JPG,AFNE01.JPG,,,,,,,,,,,,,,,,,,,,,1,1,11,9,,,AMNE16.jpg,AMSA09.jpg,AMNE12.jpg,AMSA19.jpg,AMSA19.jpg,MS,2,num_4,16,num_4,0.650120550185,,,2017_May_24_1328,60.0070250389,FEMA4ImagesEEG,001,200476,
AFNE01.JPG,AFNE01.JPG,AFNE01.JPG,AFNE01.JPG,AFNE01.JPG,AFNE01.JPG,,,,,,,,,,,,,,,,,,,,,1,2,12,0,,,AMNE17.jpg,AMNE10.jpg,AMSA11.jpg,AMSA06.jpg,AMNE17.jpg,MN,1,num_8,32,num_4,0.916758050793,,,2017_May_24_1328,60.0070250389,FEMA4ImagesEEG,001,200476,
AFNE01.JPG,AFNE01.JPG,AFNE01.JPG,AFNE01.JPG,AFNE01.JPG,AFNE01.JPG,,,,,,,,,,,,,,,,,,,,,1,3,13,2,,,AMSA02.jpg,AMSA12.jpg,AMNE16.jpg,AMNE08.jpg,AMSA12.jpg,MS,2,num_6,16,num_6,0.600124896155,,,2017_May_24_1328,60.0070250389,FEMA4ImagesEEG,001,200476,
AFNE01.JPG,AFNE01.JPG,AFNE01.JPG,AFNE01.JPG,AFNE01.JPG,AFNE01.JPG,,,,,,,,,,,,,,,,,,,,,1,4,14,7,,,AMNE10.jpg,AMNE09.jpg,AMSA15.jpg,AMSA10.jpg,AMSA15.jpg,MS,2,num_2,16,num_2,0.666733594378,,,2017_May_24_1328,60.0070250389,FEMA4ImagesEEG,001,200476,
AFNE01.JPG,AFNE01.JPG,AFNE01.JPG,AFNE01.JPG,AFNE01.JPG,AFNE01.JPG,,,,,,,,,,,,,,,,,,,,,1,5,15,8,,,AMSA20.jpg,AMNE16.jpg,AMNE07.jpg,AMSA16.jpg,AMSA16.jpg,MS,2,num_4,32,num_2,1.15016593481,,,2017_May_24_1328,60.0070250389,FEMA4ImagesEEG,001,200476,
AFNE01.JPG,AFNE01.JPG,AFNE01.JPG,AFNE01.JPG,AFNE01.JPG,AFNE01.JPG,,,,,,,,,,,,,,,,,,,,,1,6,16,5,,,AMNE07.jpg,AMNE20.jpg,AMSA06.jpg,AMSA12.jpg,AMNE20.jpg,MN,1,num_6,32,num_8,1.11673425196,,,2017_May_24_1328,60.0070250389,FEMA4ImagesEEG,001,200476,
AFNE01.JPG,AFNE01.JPG,AFNE01.JPG,AFNE01.JPG,AFNE01.JPG,AFNE01.JPG,,,,,,,,,,,,,,,,,,,,,1,7,17,3,,,AMNE08.jpg,AMSA19.jpg,AMSA20.jpg,AMNE15.jpg,AMNE15.jpg,MN,1,num_4,16,num_4,1.00009044865,,,2017_May_24_1328,60.0070250389,FEMA4ImagesEEG,001,200476,
AFNE01.JPG,AFNE01.JPG,AFNE01.JPG,AFNE01.JPG,AFNE01.JPG,AFNE01.JPG,,,,,,,,,,,,,,,,,,,,,1,8,18,6,,,AMNE20.jpg,AMSA08.jpg,AMNE04.jpg,AMSA13.jpg,AMNE20.jpg,MN,1,num_8,32,num_4,0.833416672307,,,2017_May_24_1328,60.0070250389,FEMA4ImagesEEG,001,200476,
AFNE01.JPG,AFNE01.JPG,AFNE01.JPG,AFNE01.JPG,AFNE01.JPG,AFNE01.JPG,,,,,,,,,,,,,,,,,,,,,1,9,19,1,,,AMSA16.jpg,AMNE16.jpg,AMNE20.jpg,AMSA14.jpg,AMSA14.jpg,MS,2,num_4,32,num_8,1.06674886169,,,2017_May_24_1328,60.0070250389,FEMA4ImagesEEG,001,200476,
AFNE01.JPG,AFNE01.JPG,AFNE01.JPG,AFNE01.JPG,AFNE01.JPG,AFNE01.JPG,,,,,,,,,,,,,,,,,,,,,2,0,20,1,,,AMNE04.jpg,AMSA19.jpg,AMNE16.jpg,AMSA02.jpg,AMNE16.jpg,MN,1,num_2,32,num_6,0.916777615901,,,2017_May_24_1328,60.0070250389,FEMA4ImagesEEG,001,200476,
AFNE01.JPG,AFNE01.JPG,AFNE01.JPG,AFNE01.JPG,AFNE01.JPG,AFNE01.JPG,,,,,,,,,,,,,,,,,,,,,2,1,21,9,,,AMSA10.jpg,AMSA16.jpg,AMNE07.jpg,AMNE19.jpg,AMSA10.jpg,MS,2,num_8,32,num_2,0.883483209764,,,2017_May_24_1328,60.0070250389,FEMA4ImagesEEG,001,200476,
AFNE01.JPG,AFNE01.JPG,AFNE01.JPG,AFNE01.JPG,AFNE01.JPG,AFNE01.JPG,,,,,,,,,,,,,,,,,,,,,2,2,22,2,,,AMNE10.jpg,AMSA05.jpg,AMSA19.jpg,AMNE08.jpg,AMSA19.jpg,MS,2,num_2,16,num_2,0.600007505389,,,2017_May_24_1328,60.0070250389,FEMA4ImagesEEG,001,200476,
AFNE01.JPG,AFNE01.JPG,AFNE01.JPG,AFNE01.JPG,AFNE01.JPG,AFNE01.JPG,,,,,,,,,,,,,,,,,,,,,2,3,23,6,,,AMSA13.jpg,AMNE16.jpg,AMSA14.jpg,AMNE06.jpg,AMSA13.jpg,MS,2,num_8,32,num_2,0.93346122303,,,2017_May_24_1328,60.0070250389,FEMA4ImagesEEG,001,200476,
AFNE01.JPG,AFNE01.JPG,AFNE01.JPG,AFNE01.JPG,AFNE01.JPG,AFNE01.JPG,,,,,,,,,,,,,,,,,,,,,2,4,24,8,,,AMSA16.jpg,AMNE20.jpg,AMSA17.jpg,AMNE06.jpg,AMSA16.jpg,MS,2,num_8,16,num_8,0.633486337028,,,2017_May_24_1328,60.0070250389,FEMA4ImagesEEG,001,200476,
AFNE01.JPG,AFNE01.JPG,AFNE01.JPG,AFNE01.JPG,AFNE01.JPG,AFNE01.JPG,,,,,,,,,,,,,,,,,,,,,2,5,25,5,,,AMSA11.jpg,AMNE05.jpg,AMSA19.jpg,AMNE16.jpg,AMNE16.jpg,MN,1,num_4,32,num_6,1.01675930165,,,2017_May_24_1328,60.0070250389,FEMA4ImagesEEG,001,200476,
AFNE01.JPG,AFNE01.JPG,AFNE01.JPG,AFNE01.JPG,AFNE01.JPG,AFNE01.JPG,,,,,,,,,,,,,,,,,,,,,2,6,26,0,,,AMSA10.jpg,AMNE01.jpg,AMNE11.jpg,AMSA19.jpg,AMSA10.jpg,MS,2,num_8,32,num_4,0.583172188257,,,2017_May_24_1328,60.0070250389,FEMA4ImagesEEG,001,200476,
AFNE01.JPG,AFNE01.JPG,AFNE01.JPG,AFNE01.JPG,AFNE01.JPG,AFNE01.JPG,,,,,,,,,,,,,,,,,,,,,2,7,27,4,,,AMNE08.jpg,AMSA15.jpg,AMSA03.jpg,AMNE11.jpg,AMNE08.jpg,MN,1,num_8,16,num_8,0.950094473897,,,2017_May_24_1328,60.0070250389,FEMA4ImagesEEG,001,200476,
AFNE01.JPG,AFNE01.JPG,AFNE01.JPG,AFNE01.JPG,AFNE01.JPG,AFNE01.JPG,,,,,,,,,,,,,,,,,,,,,2,8,28,7,,,AMSA03.jpg,AMNE11.jpg,AMNE10.jpg,AMSA17.jpg,AMNE11.jpg,MN,1,num_6,32,num_4,1.0334358525,,,2017_May_24_1328,60.0070250389,FEMA4ImagesEEG,001,200476,
AFNE01.JPG,AFNE01.JPG,AFNE01.JPG,AFNE01.JPG,AFNE01.JPG,AFNE01.JPG,,,,,,,,,,,,,,,,,,,,,2,9,29,3,,,AMNE14.jpg,AMSA15.jpg,AMSA02.jpg,AMNE10.jpg,AMSA02.jpg,MS,2,num_2,16,num_2,0.950093832449,,,2017_May_24_1328,60.0070250389,FEMA4ImagesEEG,001,200476,
AFNE01.JPG,AFNE01.JPG,AFNE01.JPG,AFNE01.JPG,AFNE01.JPG,AFNE01.JPG,,,,,,,,,,,,,,,,,,,,,3,0,30,7,,,AMNE15.jpg,AMSA07.jpg,AMSA11.jpg,AMNE04.jpg,AMSA11.jpg,MS,2,num_2,32,num_4,0.833433992229,,,2017_May_24_1328,60.0070250389,FEMA4ImagesEEG,001,200476,
AFNE01.JPG,AFNE01.JPG,AFNE01.JPG,AFNE01.JPG,AFNE01.JPG,AFNE01.JPG,,,,,,,,,,,,,,,,,,,,,3,1,31,0,,,AMNE19.jpg,AMNE12.jpg,AMSA09.jpg,AMSA04.jpg,AMSA04.jpg,MS,2,num_4,16,num_4,0.53344980476,,,2017_May_24_1328,60.0070250389,FEMA4ImagesEEG,001,200476,
AFNE01.JPG,AFNE01.JPG,AFNE01.JPG,AFNE01.JPG,AFNE01.JPG,AFNE01.JPG,,,,,,,,,,,,,,,,,,,,,3,2,32,5,,,AMNE07.jpg,AMNE08.jpg,AMSA05.jpg,AMSA08.jpg,AMSA08.jpg,MS,2,num_4,16,num_4,0.700112355174,,,2017_May_24_1328,60.0070250389,FEMA4ImagesEEG,001,200476,
AFNE01.JPG,AFNE01.JPG,AFNE01.JPG,AFNE01.JPG,AFNE01.JPG,AFNE01.JPG,,,,,,,,,,,,,,,,,,,,,3,3,33,6,,,AMNE18.jpg,AMSA09.jpg,AMNE13.jpg,AMSA07.jpg,AMSA09.jpg,MS,2,num_6,32,num_4,1.98330516694,,,2017_May_24_1328,60.0070250389,FEMA4ImagesEEG,001,200476,
AFNE01.JPG,AFNE01.JPG,AFNE01.JPG,AFNE01.JPG,AFNE01.JPG,AFNE01.JPG,,,,,,,,,,,,,,,,,,,,,3,4,34,3,,,AMSA06.jpg,AMSA08.jpg,AMNE13.jpg,AMNE14.jpg,AMNE13.jpg,MN,1,num_2,32,num_8,0.766788408859,,,2017_May_24_1328,60.0070250389,FEMA4ImagesEEG,001,200476,
AFNE01.JPG,AFNE01.JPG,AFNE01.JPG,AFNE01.JPG,AFNE01.JPG,AFNE01.JPG,,,,,,,,,,,,,,,,,,,,,3,5,35,9,,,AMSA02.jpg,AMNE13.jpg,AMSA04.jpg,AMNE15.jpg,AMSA02.jpg,MS,2,num_8,32,num_6,0.983445651131,,,2017_May_24_1328,60.0070250389,FEMA4ImagesEEG,001,200476,
AFNE01.JPG,AFNE01.JPG,AFNE01.JPG,AFNE01.JPG,AFNE01.JPG,AFNE01.JPG,,,,,,,,,,,,,,,,,,,,,3,6,36,4,,,AMNE11.jpg,AMSA20.jpg,AMNE08.jpg,AMSA19.jpg,AMNE11.jpg,MN,1,num_8,16,num_8,0.750226362143,,,2017_May_24_1328,60.0070250389,FEMA4ImagesEEG,001,200476,
AFNE01.JPG,AFNE01.JPG,AFNE01.JPG,AFNE01.JPG,AFNE01.JPG,AFNE01.JPG,,,,,,,,,,,,,,,,,,,,,3,7,37,2,,,AMSA19.jpg,AMNE10.jpg,AMNE19.jpg,AMSA15.jpg,AMNE10.jpg,MN,1,num_6,16,num_6,0.683479104307,,,2017_May_24_1328,60.0070250389,FEMA4ImagesEEG,001,200476,
AFNE01.JPG,AFNE01.JPG,AFNE01.JPG,AFNE01.JPG,AFNE01.JPG,AFNE01.JPG,,,,,,,,,,,,,,,,,,,,,3,8,38,1,,,AMNE03.jpg,AMSA01.jpg,AMSA02.jpg,AMNE13.jpg,AMSA02.jpg,MS,2,num_2,16,num_2,1.08343503461,,,2017_May_24_1328,60.0070250389,FEMA4ImagesEEG,001,200476,
