IPosition2,IPosition3,IPosition1,IPosition6,IPosition4,IPosition5,TrialsM1.thisRepN,TrialsM1.thisTrialN,TrialsM1.thisN,TrialsM1.thisIndex,TrialsF1.thisRepN,TrialsF1.thisTrialN,TrialsF1.thisN,TrialsF1.thisIndex,TrialsM2.thisRepN,TrialsM2.thisTrialN,TrialsM2.thisN,TrialsM2.thisIndex,TrialsF2.thisRepN,TrialsF2.thisTrialN,TrialsF2.thisN,TrialsF2.thisIndex,TrialsM3.thisRepN,TrialsM3.thisTrialN,TrialsM3.thisN,TrialsM3.thisIndex,TrialsF3.thisRepN,TrialsF3.thisTrialN,TrialsF3.thisN,TrialsF3.thisIndex,InstrKey_resp.keys,InstrKey_resp.rt,Image0 _Position,Image1 _Position,Image2 _Position,Image3 _Position,Center_image,condition,code,correct_answer,accuracy,Key_Resp.keys,Key_Resp.rt,BreakKey_resp.keys,BreakKey_resp.rt,date,frameRate,expName,session,participant,
,,,,,,,,,,,,,,,,,,,,,,,,,,,,,,space,34.6644628678,,,,,,,,,,,,,,2017_Jul_05_1947,60.0043880516,MAFE4ImagesEEG,001,200489,
AMSA21.JPG,AMNE23.JPG,AMNE21.JPG,AMSA25.JPG,AMNE25.JPG,AMSA23.JPG,0,0,0,5,,,,,,,,,,,,,,,,,,,,,,,AMNE04.jpg,AMSA12.jpg,AMSA16.jpg,AMNE20.jpg,AMSA16.jpg,MS,2,num_2,32,num_8,0.916742521571,,,2017_Jul_05_1947,60.0043880516,MAFE4ImagesEEG,001,200489,
AMNE23.JPG,AMNE24.JPG,AMNE22.JPG,AMSA24.JPG,AMSA22.JPG,AMSA23.JPG,0,1,1,9,,,,,,,,,,,,,,,,,,,,,,,AMSA19.jpg,AMNE06.jpg,AMNE15.jpg,AMSA12.jpg,AMSA12.jpg,MS,2,num_4,32,num_2,1.43327758892,,,2017_Jul_05_1947,60.0043880516,MAFE4ImagesEEG,001,200489,
AFSA21.JPG,AFNE22.JPG,AFNE21.JPG,AFSA23.JPG,AFSA22.JPG,AFNE23.JPG,0,2,2,0,,,,,,,,,,,,,,,,,,,,,,,AMNE05.jpg,AMSA10.jpg,AMNE01.jpg,AMSA11.jpg,AMSA10.jpg,MS,2,num_6,32,num_8,0.816452829866,,,2017_Jul_05_1947,60.0043880516,MAFE4ImagesEEG,001,200489,
AFNE23.JPG,AFNE24.JPG,AFNE22.JPG,AFSA24.JPG,AFSA22.JPG,AFSA23.JPG,0,3,3,8,,,,,,,,,,,,,,,,,,,,,,,AMSA15.jpg,AMNE07.jpg,AMNE09.jpg,AMSA07.jpg,AMNE09.jpg,MN,1,num_2,16,num_2,0.750047629699,,,2017_Jul_05_1947,60.0043880516,MAFE4ImagesEEG,001,200489,
AFSA21.JPG,AFNE23.JPG,AFNE21.JPG,AFSA25.JPG,AFNE25.JPG,AFSA23.JPG,0,4,4,4,,,,,,,,,,,,,,,,,,,,,,,AMNE15.jpg,AMSA06.jpg,AMSA09.jpg,AMNE08.jpg,AMSA06.jpg,MS,2,num_6,32,num_2,1.0834518465,,,2017_Jul_05_1947,60.0043880516,MAFE4ImagesEEG,001,200489,
AFSA25.JPG,AFNE24.JPG,AFSA24.JPG,AFNE21.JPG,AFSA21.JPG,AFNE25.JPG,0,5,5,2,,,,,,,,,,,,,,,,,,,,,,,AMNE09.jpg,AMNE03.jpg,AMSA20.jpg,AMSA07.jpg,AMSA20.jpg,MS,2,num_2,32,num_6,0.866792524699,,,2017_Jul_05_1947,60.0043880516,MAFE4ImagesEEG,001,200489,
AMNE22.JPG,AMSA24.JPG,AMSA22.JPG,AMNE25.JPG,AMNE24.JPG,AMSA25.JPG,0,6,6,7,,,,,,,,,,,,,,,,,,,,,,,AMSA20.jpg,AMSA10.jpg,AMNE03.jpg,AMNE18.jpg,AMSA10.jpg,MS,2,num_6,32,num_2,0.933405884542,,,2017_Jul_05_1947,60.0043880516,MAFE4ImagesEEG,001,200489,
AFNE22.JPG,AFSA24.JPG,AFSA22.JPG,AFNE25.JPG,AFNE24.JPG,AFSA25.JPG,0,7,7,6,,,,,,,,,,,,,,,,,,,,,,,AMSA17.jpg,AMNE08.jpg,AMNE15.jpg,AMSA13.jpg,AMSA13.jpg,MS,2,num_4,32,num_6,0.733507109806,,,2017_Jul_05_1947,60.0043880516,MAFE4ImagesEEG,001,200489,
AMSA21.JPG,AMNE22.JPG,AMNE21.JPG,AMSA23.JPG,AMSA22.JPG,AMNE23.JPG,0,8,8,1,,,,,,,,,,,,,,,,,,,,,,,AMSA06.jpg,AMNE14.jpg,AMSA19.jpg,AMNE13.jpg,AMNE13.jpg,MN,1,num_4,32,num_2,1.03344636178,,,2017_Jul_05_1947,60.0043880516,MAFE4ImagesEEG,001,200489,
AMSA25.JPG,AMNE24.JPG,AMSA24.JPG,AMNE26.JPG,AMSA21.JPG,AMNE25.JPG,0,9,9,3,,,,,,,,,,,,,,,,,,,,,,,AMSA09.jpg,AMNE18.jpg,AMSA14.jpg,AMNE16.jpg,AMSA09.jpg,MS,2,num_8,32,num_6,1.21684791637,,,2017_Jul_05_1947,60.0043880516,MAFE4ImagesEEG,001,200489,
AFSA25.JPG,AFNE24.JPG,AFSA24.JPG,AFNE21.JPG,AFSA21.JPG,AFNE25.JPG,,,,,0,0,0,2,,,,,,,,,,,,,,,,,,,AFNE02.jpg,AFSA08.jpg,AFSA12.jpg,AFNE15.jpg,AFSA08.jpg,FS,4,num_6,32,num_4,0.950109660742,,,2017_Jul_05_1947,60.0043880516,MAFE4ImagesEEG,001,200489,
AMSA25.JPG,AMNE24.JPG,AMSA24.JPG,AMNE26.JPG,AMSA21.JPG,AMNE25.JPG,,,,,0,1,1,3,,,,,,,,,,,,,,,,,,,AFNE05.jpg,AFNE06.jpg,AFSA07.jpg,AFSA19.jpg,AFNE06.jpg,FN,3,num_6,32,num_2,0.283515160321,,,2017_Jul_05_1947,60.0043880516,MAFE4ImagesEEG,001,200489,
AFSA21.JPG,AFNE22.JPG,AFNE21.JPG,AFSA23.JPG,AFSA22.JPG,AFNE23.JPG,,,,,0,2,2,0,,,,,,,,,,,,,,,,,,,AFSA18.jpg,AFSA02.jpg,AFNE16.jpg,AFNE18.jpg,AFNE18.jpg,FN,3,num_4,32,num_8,0.650111392722,,,2017_Jul_05_1947,60.0043880516,MAFE4ImagesEEG,001,200489,
AMSA21.JPG,AMNE23.JPG,AMNE21.JPG,AMSA25.JPG,AMNE25.JPG,AMSA23.JPG,,,,,0,3,3,5,,,,,,,,,,,,,,,,,,,AFSA11.jpg,AFSA03.jpg,AFNE13.jpg,AFNE18.jpg,AFNE13.jpg,FN,3,num_2,32,num_6,0.533513717121,,,2017_Jul_05_1947,60.0043880516,MAFE4ImagesEEG,001,200489,
AFNE22.JPG,AFSA24.JPG,AFSA22.JPG,AFNE25.JPG,AFNE24.JPG,AFSA25.JPG,,,,,0,4,4,6,,,,,,,,,,,,,,,,,,,AFSA05.jpg,AFNE17.jpg,AFSA07.jpg,AFNE14.jpg,AFNE17.jpg,FN,3,num_6,16,num_6,0.483541589347,,,2017_Jul_05_1947,60.0043880516,MAFE4ImagesEEG,001,200489,
AMNE23.JPG,AMNE24.JPG,AMNE22.JPG,AMSA24.JPG,AMSA22.JPG,AMSA23.JPG,,,,,0,5,5,9,,,,,,,,,,,,,,,,,,,AFNE08.jpg,AFSA17.jpg,AFNE15.jpg,AFSA03.jpg,AFSA03.jpg,FS,4,num_4,32,num_6,0.650178427226,,,2017_Jul_05_1947,60.0043880516,MAFE4ImagesEEG,001,200489,
AFSA21.JPG,AFNE23.JPG,AFNE21.JPG,AFSA25.JPG,AFNE25.JPG,AFSA23.JPG,,,,,0,6,6,4,,,,,,,,,,,,,,,,,,,AFSA06.jpg,AFNE17.jpg,AFNE08.jpg,AFSA17.jpg,AFNE08.jpg,FN,3,num_2,32,num_8,1.00010135351,,,2017_Jul_05_1947,60.0043880516,MAFE4ImagesEEG,001,200489,
AMNE22.JPG,AMSA24.JPG,AMSA22.JPG,AMNE25.JPG,AMNE24.JPG,AMSA25.JPG,,,,,0,7,7,7,,,,,,,,,,,,,,,,,,,AFNE08.jpg,AFSA20.jpg,AFSA02.jpg,AFNE07.jpg,AFNE07.jpg,FN,3,num_4,16,num_4,0.566904911771,,,2017_Jul_05_1947,60.0043880516,MAFE4ImagesEEG,001,200489,
AFNE23.JPG,AFNE24.JPG,AFNE22.JPG,AFSA24.JPG,AFSA22.JPG,AFSA23.JPG,,,,,0,8,8,8,,,,,,,,,,,,,,,,,,,AFSA13.jpg,AFNE08.jpg,AFSA03.jpg,AFNE09.jpg,AFNE09.jpg,FN,3,num_4,32,num_8,0.450125056203,,,2017_Jul_05_1947,60.0043880516,MAFE4ImagesEEG,001,200489,
AMSA21.JPG,AMNE22.JPG,AMNE21.JPG,AMSA23.JPG,AMSA22.JPG,AMNE23.JPG,,,,,0,9,9,1,,,,,,,,,,,,,,,,,,,AFNE13.jpg,AFSA02.jpg,AFSA07.jpg,AFNE17.jpg,AFSA07.jpg,FS,4,num_2,32,num_4,0.550214927294,,,2017_Jul_05_1947,60.0043880516,MAFE4ImagesEEG,001,200489,
AFNE22.JPG,AFSA24.JPG,AFSA22.JPG,AFNE25.JPG,AFNE24.JPG,AFSA25.JPG,,,,,,,,,0,0,0,6,,,,,,,,,,,,,,,AMSA11.jpg,AMNE03.jpg,AMNE13.jpg,AMSA13.jpg,AMNE03.jpg,MN,1,num_6,32,num_2,0.300132978475,,,2017_Jul_05_1947,60.0043880516,MAFE4ImagesEEG,001,200489,
AMSA25.JPG,AMNE24.JPG,AMSA24.JPG,AMNE26.JPG,AMSA21.JPG,AMNE25.JPG,,,,,,,,,0,1,1,3,,,,,,,,,,,,,,,AMSA14.jpg,AMNE10.jpg,AMSA12.jpg,AMNE04.jpg,AMNE04.jpg,MN,1,num_4,32,num_8,0.466837813146,,,2017_Jul_05_1947,60.0043880516,MAFE4ImagesEEG,001,200489,
AFSA21.JPG,AFNE22.JPG,AFNE21.JPG,AFSA23.JPG,AFSA22.JPG,AFNE23.JPG,,,,,,,,,0,2,2,0,,,,,,,,,,,,,,,AMSA03.jpg,AMSA19.jpg,AMNE13.jpg,AMNE09.jpg,AMNE09.jpg,MN,1,num_4,32,num_6,0.633487480576,,,2017_Jul_05_1947,60.0043880516,MAFE4ImagesEEG,001,200489,
AFSA21.JPG,AFNE23.JPG,AFNE21.JPG,AFSA25.JPG,AFNE25.JPG,AFSA23.JPG,,,,,,,,,0,3,3,4,,,,,,,,,,,,,,,AMSA16.jpg,AMNE20.jpg,AMSA04.jpg,AMNE14.jpg,AMNE20.jpg,MN,1,num_6,16,num_6,0.566764107207,,,2017_Jul_05_1947,60.0043880516,MAFE4ImagesEEG,001,200489,
AMNE23.JPG,AMNE24.JPG,AMNE22.JPG,AMSA24.JPG,AMSA22.JPG,AMSA23.JPG,,,,,,,,,0,4,4,9,,,,,,,,,,,,,,,AMNE02.jpg,AMSA11.jpg,AMSA02.jpg,AMNE12.jpg,AMSA02.jpg,MS,2,num_2,32,num_8,1.08344126202,,,2017_Jul_05_1947,60.0043880516,MAFE4ImagesEEG,001,200489,
AFSA25.JPG,AFNE24.JPG,AFSA24.JPG,AFNE21.JPG,AFSA21.JPG,AFNE25.JPG,,,,,,,,,0,5,5,2,,,,,,,,,,,,,,,AMSA15.jpg,AMNE02.jpg,AMSA14.jpg,AMNE09.jpg,AMNE02.jpg,MN,1,num_6,32,num_2,0.999986208277,,,2017_Jul_05_1947,60.0043880516,MAFE4ImagesEEG,001,200489,
AMSA21.JPG,AMNE23.JPG,AMNE21.JPG,AMSA25.JPG,AMNE25.JPG,AMSA23.JPG,,,,,,,,,0,6,6,5,,,,,,,,,,,,,,,AMNE10.jpg,AMSA06.jpg,AMNE17.jpg,AMSA15.jpg,AMSA15.jpg,MS,2,num_4,16,num_4,0.533447003341,,,2017_Jul_05_1947,60.0043880516,MAFE4ImagesEEG,001,200489,
AMSA21.JPG,AMNE22.JPG,AMNE21.JPG,AMSA23.JPG,AMSA22.JPG,AMNE23.JPG,,,,,,,,,0,7,7,1,,,,,,,,,,,,,,,AMSA15.jpg,AMNE18.jpg,AMSA05.jpg,AMNE11.jpg,AMSA05.jpg,MS,2,num_2,32,num_8,0.883481867611,,,2017_Jul_05_1947,60.0043880516,MAFE4ImagesEEG,001,200489,
AMNE22.JPG,AMSA24.JPG,AMSA22.JPG,AMNE25.JPG,AMNE24.JPG,AMSA25.JPG,,,,,,,,,0,8,8,7,,,,,,,,,,,,,,,AMSA03.jpg,AMNE14.jpg,AMSA07.jpg,AMNE18.jpg,AMNE18.jpg,MN,1,num_4,32,num_2,1.43338150834,,,2017_Jul_05_1947,60.0043880516,MAFE4ImagesEEG,001,200489,
AFNE23.JPG,AFNE24.JPG,AFNE22.JPG,AFSA24.JPG,AFSA22.JPG,AFSA23.JPG,,,,,,,,,0,9,9,8,,,,,,,,,,,,,,,AMSA06.jpg,AMNE14.jpg,AMSA07.jpg,AMNE12.jpg,AMNE12.jpg,MN,1,num_4,32,num_8,0.616777289659,,,2017_Jul_05_1947,60.0043880516,MAFE4ImagesEEG,001,200489,
AMSA21.JPG,AMNE23.JPG,AMNE21.JPG,AMSA25.JPG,AMNE25.JPG,AMSA23.JPG,,,,,,,,,,,,,0,0,0,5,,,,,,,,,,,AFNE13.jpg,AFNE04.jpg,AFSA04.jpg,AFSA16.jpg,AFSA16.jpg,FS,4,num_4,32,num_2,0.383451718255,,,2017_Jul_05_1947,60.0043880516,MAFE4ImagesEEG,001,200489,
AMNE23.JPG,AMNE24.JPG,AMNE22.JPG,AMSA24.JPG,AMSA22.JPG,AMSA23.JPG,,,,,,,,,,,,,0,1,1,9,,,,,,,,,,,AFSA10.jpg,AFNE01.jpg,AFNE13.jpg,AFSA17.jpg,AFNE01.jpg,FN,3,num_6,16,num_6,0.500180576229,,,2017_Jul_05_1947,60.0043880516,MAFE4ImagesEEG,001,200489,
AFSA25.JPG,AFNE24.JPG,AFSA24.JPG,AFNE21.JPG,AFSA21.JPG,AFNE25.JPG,,,,,,,,,,,,,0,2,2,2,,,,,,,,,,,AFNE07.jpg,AFSA04.jpg,AFSA05.jpg,AFNE08.jpg,AFNE08.jpg,FN,3,num_4,32,num_8,0.266752368188,,,2017_Jul_05_1947,60.0043880516,MAFE4ImagesEEG,001,200489,
AMSA25.JPG,AMNE24.JPG,AMSA24.JPG,AMNE26.JPG,AMSA21.JPG,AMNE25.JPG,,,,,,,,,,,,,0,3,3,3,,,,,,,,,,,AFNE18.jpg,AFNE16.jpg,AFSA02.jpg,AFSA12.jpg,AFNE16.jpg,FN,3,num_6,32,num_2,0.50014529482,,,2017_Jul_05_1947,60.0043880516,MAFE4ImagesEEG,001,200489,
AFNE22.JPG,AFSA24.JPG,AFSA22.JPG,AFNE25.JPG,AFNE24.JPG,AFSA25.JPG,,,,,,,,,,,,,0,4,4,6,,,,,,,,,,,AFNE20.jpg,AFSA16.jpg,AFNE17.jpg,AFSA01.jpg,AFSA01.jpg,FS,4,num_4,16,num_4,0.466757948976,,,2017_Jul_05_1947,60.0043880516,MAFE4ImagesEEG,001,200489,
AMNE22.JPG,AMSA24.JPG,AMSA22.JPG,AMNE25.JPG,AMNE24.JPG,AMSA25.JPG,,,,,,,,,,,,,0,5,5,7,,,,,,,,,,,AFNE15.jpg,AFNE16.jpg,AFSA17.jpg,AFSA13.jpg,AFNE15.jpg,FN,3,num_8,32,num_6,0.416775878286,,,2017_Jul_05_1947,60.0043880516,MAFE4ImagesEEG,001,200489,
AFSA21.JPG,AFNE22.JPG,AFNE21.JPG,AFSA23.JPG,AFSA22.JPG,AFNE23.JPG,,,,,,,,,,,,,0,6,6,0,,,,,,,,,,,AFSA06.jpg,AFSA07.jpg,AFNE11.jpg,AFNE06.jpg,AFNE11.jpg,FN,3,num_2,32,num_8,0.700104368501,,,2017_Jul_05_1947,60.0043880516,MAFE4ImagesEEG,001,200489,
AMSA21.JPG,AMNE22.JPG,AMNE21.JPG,AMSA23.JPG,AMSA22.JPG,AMNE23.JPG,,,,,,,,,,,,,0,7,7,1,,,,,,,,,,,AFNE10.jpg,AFSA19.jpg,AFNE08.jpg,AFSA05.jpg,AFNE08.jpg,FN,3,num_2,16,num_2,0.666772510507,,,2017_Jul_05_1947,60.0043880516,MAFE4ImagesEEG,001,200489,
AFSA21.JPG,AFNE23.JPG,AFNE21.JPG,AFSA25.JPG,AFNE25.JPG,AFSA23.JPG,,,,,,,,,,,,,0,8,8,4,,,,,,,,,,,AFNE04.jpg,AFSA18.jpg,AFNE15.jpg,AFSA05.jpg,AFSA05.jpg,FS,4,num_4,16,num_4,0.70016947866,,,2017_Jul_05_1947,60.0043880516,MAFE4ImagesEEG,001,200489,
AFNE23.JPG,AFNE24.JPG,AFNE22.JPG,AFSA24.JPG,AFSA22.JPG,AFSA23.JPG,,,,,,,,,,,,,0,9,9,8,,,,,,,,,,,AFNE04.jpg,AFSA18.jpg,AFNE09.jpg,AFSA15.jpg,AFNE09.jpg,FN,3,num_2,32,num_6,0.566858083825,,,2017_Jul_05_1947,60.0043880516,MAFE4ImagesEEG,001,200489,
AMSA21.JPG,AMNE23.JPG,AMNE21.JPG,AMSA25.JPG,AMNE25.JPG,AMSA23.JPG,,,,,,,,,,,,,,,,,0,0,0,5,,,,,,,AMNE08.jpg,AMSA03.jpg,AMSA16.jpg,AMNE13.jpg,AMSA16.jpg,MS,2,num_2,16,num_2,0.850081050768,,,2017_Jul_05_1947,60.0043880516,MAFE4ImagesEEG,001,200489,
AMSA21.JPG,AMNE22.JPG,AMNE21.JPG,AMSA23.JPG,AMSA22.JPG,AMNE23.JPG,,,,,,,,,,,,,,,,,0,1,1,1,,,,,,,AMNE06.jpg,AMSA12.jpg,AMSA16.jpg,AMNE14.jpg,AMNE14.jpg,MN,1,num_4,32,num_8,1.01676247141,,,2017_Jul_05_1947,60.0043880516,MAFE4ImagesEEG,001,200489,
AMNE22.JPG,AMSA24.JPG,AMSA22.JPG,AMNE25.JPG,AMNE24.JPG,AMSA25.JPG,,,,,,,,,,,,,,,,,0,2,2,7,,,,,,,AMNE15.jpg,AMSA09.jpg,AMNE17.jpg,AMSA13.jpg,AMSA13.jpg,MS,2,num_4,32,num_2,1.13346374594,,,2017_Jul_05_1947,60.0043880516,MAFE4ImagesEEG,001,200489,
AMSA25.JPG,AMNE24.JPG,AMSA24.JPG,AMNE26.JPG,AMSA21.JPG,AMNE25.JPG,,,,,,,,,,,,,,,,,0,3,3,3,,,,,,,AMNE16.jpg,AMSA05.jpg,AMSA04.jpg,AMNE20.jpg,AMNE20.jpg,MN,1,num_4,32,num_8,1.20007967157,,,2017_Jul_05_1947,60.0043880516,MAFE4ImagesEEG,001,200489,
AFNE23.JPG,AFNE24.JPG,AFNE22.JPG,AFSA24.JPG,AFSA22.JPG,AFSA23.JPG,,,,,,,,,,,,,,,,,0,4,4,8,,,,,,,AMSA13.jpg,AMNE07.jpg,AMNE12.jpg,AMSA14.jpg,AMSA14.jpg,MS,2,num_4,32,num_6,0.700236192322,,,2017_Jul_05_1947,60.0043880516,MAFE4ImagesEEG,001,200489,
AFSA21.JPG,AFNE23.JPG,AFNE21.JPG,AFSA25.JPG,AFNE25.JPG,AFSA23.JPG,,,,,,,,,,,,,,,,,0,5,5,4,,,,,,,AMNE18.jpg,AMNE05.jpg,AMSA11.jpg,AMSA16.jpg,AMNE05.jpg,MN,1,num_6,32,num_2,1.16675486998,,,2017_Jul_05_1947,60.0043880516,MAFE4ImagesEEG,001,200489,
AFSA21.JPG,AFNE22.JPG,AFNE21.JPG,AFSA23.JPG,AFSA22.JPG,AFNE23.JPG,,,,,,,,,,,,,,,,,0,6,6,0,,,,,,,AMSA04.jpg,AMNE16.jpg,AMSA14.jpg,AMNE20.jpg,AMSA14.jpg,MS,2,num_2,32,num_8,1.68336563173,,,2017_Jul_05_1947,60.0043880516,MAFE4ImagesEEG,001,200489,
AFSA25.JPG,AFNE24.JPG,AFSA24.JPG,AFNE21.JPG,AFSA21.JPG,AFNE25.JPG,,,,,,,,,,,,,,,,,0,7,7,2,,,,,,,AMNE02.jpg,AMNE14.jpg,AMSA17.jpg,AMSA01.jpg,AMSA17.jpg,MS,2,num_2,16,num_2,0.750147379586,,,2017_Jul_05_1947,60.0043880516,MAFE4ImagesEEG,001,200489,
AFNE22.JPG,AFSA24.JPG,AFSA22.JPG,AFNE25.JPG,AFNE24.JPG,AFSA25.JPG,,,,,,,,,,,,,,,,,0,8,8,6,,,,,,,AMNE20.jpg,AMNE02.jpg,AMSA02.jpg,AMSA08.jpg,AMNE02.jpg,MN,1,num_6,32,num_2,1.01679390389,,,2017_Jul_05_1947,60.0043880516,MAFE4ImagesEEG,001,200489,
AMNE23.JPG,AMNE24.JPG,AMNE22.JPG,AMSA24.JPG,AMSA22.JPG,AMSA23.JPG,,,,,,,,,,,,,,,,,0,9,9,9,,,,,,,AMSA16.jpg,AMNE19.jpg,AMNE17.jpg,AMSA11.jpg,AMSA11.jpg,MS,2,num_4,16,num_4,0.816785436356,,,2017_Jul_05_1947,60.0043880516,MAFE4ImagesEEG,001,200489,
AFSA25.JPG,AFNE24.JPG,AFSA24.JPG,AFNE21.JPG,AFSA21.JPG,AFNE25.JPG,,,,,,,,,,,,,,,,,,,,,0,0,0,2,,,AFNE04.jpg,AFNE12.jpg,AFSA09.jpg,AFSA05.jpg,AFNE04.jpg,FN,3,num_8,32,num_6,0.600147604244,,,2017_Jul_05_1947,60.0043880516,MAFE4ImagesEEG,001,200489,
AMNE23.JPG,AMNE24.JPG,AMNE22.JPG,AMSA24.JPG,AMSA22.JPG,AMSA23.JPG,,,,,,,,,,,,,,,,,,,,,0,1,1,9,,,AFNE13.jpg,AFNE14.jpg,AFSA16.jpg,AFSA15.jpg,AFNE13.jpg,FN,3,num_8,32,num_2,0.666828319198,,,2017_Jul_05_1947,60.0043880516,MAFE4ImagesEEG,001,200489,
AMNE22.JPG,AMSA24.JPG,AMSA22.JPG,AMNE25.JPG,AMNE24.JPG,AMSA25.JPG,,,,,,,,,,,,,,,,,,,,,0,2,2,7,,,AFNE08.jpg,AFSA16.jpg,AFNE15.jpg,AFSA04.jpg,AFNE15.jpg,FN,3,num_2,32,num_8,0.433496653684,,,2017_Jul_05_1947,60.0043880516,MAFE4ImagesEEG,001,200489,
AMSA25.JPG,AMNE24.JPG,AMSA24.JPG,AMNE26.JPG,AMSA21.JPG,AMNE25.JPG,,,,,,,,,,,,,,,,,,,,,0,3,3,3,,,AFNE06.jpg,AFNE15.jpg,AFSA12.jpg,AFSA09.jpg,AFNE15.jpg,FN,3,num_6,32,num_4,1.11670255743,,,2017_Jul_05_1947,60.0043880516,MAFE4ImagesEEG,001,200489,
AFNE23.JPG,AFNE24.JPG,AFNE22.JPG,AFSA24.JPG,AFSA22.JPG,AFSA23.JPG,,,,,,,,,,,,,,,,,,,,,0,4,4,8,,,AFSA03.jpg,AFNE14.jpg,AFNE02.jpg,AFSA06.jpg,AFSA03.jpg,FS,4,num_8,32,num_2,0.50011642836,,,2017_Jul_05_1947,60.0043880516,MAFE4ImagesEEG,001,200489,
AFNE22.JPG,AFSA24.JPG,AFSA22.JPG,AFNE25.JPG,AFNE24.JPG,AFSA25.JPG,,,,,,,,,,,,,,,,,,,,,0,5,5,6,,,AFNE12.jpg,AFSA18.jpg,AFNE11.jpg,AFSA07.jpg,AFNE12.jpg,FN,3,num_8,16,num_8,0.600179998903,,,2017_Jul_05_1947,60.0043880516,MAFE4ImagesEEG,001,200489,
AFSA21.JPG,AFNE23.JPG,AFNE21.JPG,AFSA25.JPG,AFNE25.JPG,AFSA23.JPG,,,,,,,,,,,,,,,,,,,,,0,6,6,4,,,AFSA18.jpg,AFSA11.jpg,AFNE16.jpg,AFNE20.jpg,AFNE16.jpg,FN,3,num_2,16,num_2,0.800136506674,,,2017_Jul_05_1947,60.0043880516,MAFE4ImagesEEG,001,200489,
AMSA21.JPG,AMNE22.JPG,AMNE21.JPG,AMSA23.JPG,AMSA22.JPG,AMNE23.JPG,,,,,,,,,,,,,,,,,,,,,0,7,7,1,,,AFNE20.jpg,AFSA20.jpg,AFSA16.jpg,AFNE02.jpg,AFSA16.jpg,FS,4,num_2,32,num_8,0.70011912263,,,2017_Jul_05_1947,60.0043880516,MAFE4ImagesEEG,001,200489,
AMSA21.JPG,AMNE23.JPG,AMNE21.JPG,AMSA25.JPG,AMNE25.JPG,AMSA23.JPG,,,,,,,,,,,,,,,,,,,,,0,8,8,5,,,AFNE08.jpg,AFSA17.jpg,AFSA08.jpg,AFNE20.jpg,AFSA17.jpg,FS,4,num_6,16,num_6,0.600196997984,,,2017_Jul_05_1947,60.0043880516,MAFE4ImagesEEG,001,200489,
AFSA21.JPG,AFNE22.JPG,AFNE21.JPG,AFSA23.JPG,AFSA22.JPG,AFNE23.JPG,,,,,,,,,,,,,,,,,,,,,0,9,9,0,,,AFNE13.jpg,AFNE07.jpg,AFSA19.jpg,AFSA10.jpg,AFNE07.jpg,FN,3,num_6,32,num_4,1.38341868203,,,2017_Jul_05_1947,60.0043880516,MAFE4ImagesEEG,001,200489,
,,,,,,,,,,,,,,,,,,,,,,,,,,,,,,,,,,,,,,,,,,,space,4.53312947147,2017_Jul_05_1947,60.0043880516,MAFE4ImagesEEG,001,200489,
AFNE01.JPG,AFNE01.JPG,AFNE01.JPG,AFNE01.JPG,AFNE01.JPG,AFNE01.JPG,0,0,0,7,,,,,,,,,,,,,,,,,,,,,,,AMNE07.jpg,AMNE15.jpg,AMSA08.jpg,AMSA18.jpg,AMNE15.jpg,MN,1,num_6,32,num_4,0.716643284773,,,2017_Jul_05_1947,60.0043880516,MAFE4ImagesEEG,001,200489,
AFNE01.JPG,AFNE01.JPG,AFNE01.JPG,AFNE01.JPG,AFNE01.JPG,AFNE01.JPG,0,1,1,4,,,,,,,,,,,,,,,,,,,,,,,AMSA04.jpg,AMNE09.jpg,AMSA17.jpg,AMNE13.jpg,AMSA04.jpg,MS,2,num_8,32,num_2,1.2668011206,,,2017_Jul_05_1947,60.0043880516,MAFE4ImagesEEG,001,200489,
AFNE01.JPG,AFNE01.JPG,AFNE01.JPG,AFNE01.JPG,AFNE01.JPG,AFNE01.JPG,0,2,2,9,,,,,,,,,,,,,,,,,,,,,,,AMNE16.jpg,AMSA09.jpg,AMNE20.jpg,AMSA07.jpg,AMSA07.jpg,MS,2,num_4,32,num_8,0.983826405602,,,2017_Jul_05_1947,60.0043880516,MAFE4ImagesEEG,001,200489,
AFNE01.JPG,AFNE01.JPG,AFNE01.JPG,AFNE01.JPG,AFNE01.JPG,AFNE01.JPG,0,3,3,8,,,,,,,,,,,,,,,,,,,,,,,AMSA17.jpg,AMNE03.jpg,AMNE11.jpg,AMSA19.jpg,AMNE03.jpg,MN,1,num_6,16,num_6,0.466792588821,,,2017_Jul_05_1947,60.0043880516,MAFE4ImagesEEG,001,200489,
AFNE01.JPG,AFNE01.JPG,AFNE01.JPG,AFNE01.JPG,AFNE01.JPG,AFNE01.JPG,0,4,4,0,,,,,,,,,,,,,,,,,,,,,,,AMSA07.jpg,AMNE02.jpg,AMSA08.jpg,AMNE03.jpg,AMSA08.jpg,MS,2,num_2,16,num_2,0.800171146402,,,2017_Jul_05_1947,60.0043880516,MAFE4ImagesEEG,001,200489,
AFNE01.JPG,AFNE01.JPG,AFNE01.JPG,AFNE01.JPG,AFNE01.JPG,AFNE01.JPG,0,5,5,3,,,,,,,,,,,,,,,,,,,,,,,AMNE08.jpg,AMNE15.jpg,AMSA05.jpg,AMSA04.jpg,AMNE15.jpg,MN,1,num_6,32,num_8,0.300127846655,,,2017_Jul_05_1947,60.0043880516,MAFE4ImagesEEG,001,200489,
AFNE01.JPG,AFNE01.JPG,AFNE01.JPG,AFNE01.JPG,AFNE01.JPG,AFNE01.JPG,0,6,6,6,,,,,,,,,,,,,,,,,,,,,,,AMSA06.jpg,AMSA08.jpg,AMNE02.jpg,AMNE07.jpg,AMNE07.jpg,MN,1,num_4,32,num_2,0.783521575155,,,2017_Jul_05_1947,60.0043880516,MAFE4ImagesEEG,001,200489,
AFNE01.JPG,AFNE01.JPG,AFNE01.JPG,AFNE01.JPG,AFNE01.JPG,AFNE01.JPG,0,7,7,2,,,,,,,,,,,,,,,,,,,,,,,AMNE02.jpg,AMNE04.jpg,AMSA05.jpg,AMSA02.jpg,AMSA02.jpg,MS,2,num_4,32,num_8,0.650153730297,,,2017_Jul_05_1947,60.0043880516,MAFE4ImagesEEG,001,200489,
AFNE01.JPG,AFNE01.JPG,AFNE01.JPG,AFNE01.JPG,AFNE01.JPG,AFNE01.JPG,0,8,8,1,,,,,,,,,,,,,,,,,,,,,,,AMSA09.jpg,AMNE04.jpg,AMNE18.jpg,AMSA11.jpg,AMSA11.jpg,MS,2,num_4,32,num_2,0.733518977184,,,2017_Jul_05_1947,60.0043880516,MAFE4ImagesEEG,001,200489,
AFNE01.JPG,AFNE01.JPG,AFNE01.JPG,AFNE01.JPG,AFNE01.JPG,AFNE01.JPG,0,9,9,5,,,,,,,,,,,,,,,,,,,,,,,AMNE13.jpg,AMNE20.jpg,AMSA03.jpg,AMSA08.jpg,AMNE13.jpg,MN,1,num_8,16,num_8,0.316777738626,,,2017_Jul_05_1947,60.0043880516,MAFE4ImagesEEG,001,200489,
AFNE01.JPG,AFNE01.JPG,AFNE01.JPG,AFNE01.JPG,AFNE01.JPG,AFNE01.JPG,1,0,10,4,,,,,,,,,,,,,,,,,,,,,,,AMSA15.jpg,AMNE04.jpg,AMNE17.jpg,AMSA12.jpg,AMNE04.jpg,MN,1,num_6,16,num_6,0.766843778896,,,2017_Jul_05_1947,60.0043880516,MAFE4ImagesEEG,001,200489,
AFNE01.JPG,AFNE01.JPG,AFNE01.JPG,AFNE01.JPG,AFNE01.JPG,AFNE01.JPG,1,1,11,2,,,,,,,,,,,,,,,,,,,,,,,AMSA01.jpg,AMNE10.jpg,AMSA05.jpg,AMNE02.jpg,AMSA01.jpg,MS,2,num_8,16,num_8,1.09977971634,,,2017_Jul_05_1947,60.0043880516,MAFE4ImagesEEG,001,200489,
AFNE01.JPG,AFNE01.JPG,AFNE01.JPG,AFNE01.JPG,AFNE01.JPG,AFNE01.JPG,1,2,12,3,,,,,,,,,,,,,,,,,,,,,,,AMNE10.jpg,AMNE14.jpg,AMSA12.jpg,AMSA15.jpg,AMNE14.jpg,MN,1,num_6,32,num_2,0.500120597892,,,2017_Jul_05_1947,60.0043880516,MAFE4ImagesEEG,001,200489,
AFNE01.JPG,AFNE01.JPG,AFNE01.JPG,AFNE01.JPG,AFNE01.JPG,AFNE01.JPG,1,3,13,9,,,,,,,,,,,,,,,,,,,,,,,AMSA12.jpg,AMSA11.jpg,AMNE03.jpg,AMNE14.jpg,AMNE14.jpg,MN,1,num_4,32,num_6,0.583498995169,,,2017_Jul_05_1947,60.0043880516,MAFE4ImagesEEG,001,200489,
AFNE01.JPG,AFNE01.JPG,AFNE01.JPG,AFNE01.JPG,AFNE01.JPG,AFNE01.JPG,1,4,14,1,,,,,,,,,,,,,,,,,,,,,,,AMSA16.jpg,AMNE16.jpg,AMNE10.jpg,AMSA10.jpg,AMSA10.jpg,MS,2,num_4,32,num_8,1.20018776075,,,2017_Jul_05_1947,60.0043880516,MAFE4ImagesEEG,001,200489,
AFNE01.JPG,AFNE01.JPG,AFNE01.JPG,AFNE01.JPG,AFNE01.JPG,AFNE01.JPG,1,5,15,8,,,,,,,,,,,,,,,,,,,,,,,AMSA03.jpg,AMNE08.jpg,AMSA17.jpg,AMNE07.jpg,AMSA17.jpg,MS,2,num_2,32,num_6,1.50006607221,,,2017_Jul_05_1947,60.0043880516,MAFE4ImagesEEG,001,200489,
AFNE01.JPG,AFNE01.JPG,AFNE01.JPG,AFNE01.JPG,AFNE01.JPG,AFNE01.JPG,1,6,16,5,,,,,,,,,,,,,,,,,,,,,,,AMNE05.jpg,AMSA18.jpg,AMSA14.jpg,AMNE09.jpg,AMNE05.jpg,MN,1,num_8,16,num_8,0.550128007075,,,2017_Jul_05_1947,60.0043880516,MAFE4ImagesEEG,001,200489,
AFNE01.JPG,AFNE01.JPG,AFNE01.JPG,AFNE01.JPG,AFNE01.JPG,AFNE01.JPG,1,7,17,6,,,,,,,,,,,,,,,,,,,,,,,AMSA07.jpg,AMNE14.jpg,AMNE17.jpg,AMSA01.jpg,AMNE14.jpg,MN,1,num_6,16,num_6,0.866799901822,,,2017_Jul_05_1947,60.0043880516,MAFE4ImagesEEG,001,200489,
AFNE01.JPG,AFNE01.JPG,AFNE01.JPG,AFNE01.JPG,AFNE01.JPG,AFNE01.JPG,1,8,18,0,,,,,,,,,,,,,,,,,,,,,,,AMNE06.jpg,AMSA07.jpg,AMNE02.jpg,AMSA18.jpg,AMNE06.jpg,MN,1,num_8,32,num_4,0.800114054815,,,2017_Jul_05_1947,60.0043880516,MAFE4ImagesEEG,001,200489,
AFNE01.JPG,AFNE01.JPG,AFNE01.JPG,AFNE01.JPG,AFNE01.JPG,AFNE01.JPG,1,9,19,7,,,,,,,,,,,,,,,,,,,,,,,AMSA05.jpg,AMSA14.jpg,AMNE19.jpg,AMNE10.jpg,AMNE19.jpg,MN,1,num_2,16,num_2,0.650127750472,,,2017_Jul_05_1947,60.0043880516,MAFE4ImagesEEG,001,200489,
AFNE01.JPG,AFNE01.JPG,AFNE01.JPG,AFNE01.JPG,AFNE01.JPG,AFNE01.JPG,2,0,20,3,,,,,,,,,,,,,,,,,,,,,,,AMNE01.jpg,AMNE04.jpg,AMSA04.jpg,AMSA14.jpg,AMNE04.jpg,MN,1,num_6,16,num_6,0.583471090766,,,2017_Jul_05_1947,60.0043880516,MAFE4ImagesEEG,001,200489,
AFNE01.JPG,AFNE01.JPG,AFNE01.JPG,AFNE01.JPG,AFNE01.JPG,AFNE01.JPG,2,1,21,9,,,,,,,,,,,,,,,,,,,,,,,AMNE11.jpg,AMSA03.jpg,AMSA20.jpg,AMNE06.jpg,AMSA20.jpg,MS,2,num_2,32,num_8,0.549969882588,,,2017_Jul_05_1947,60.0043880516,MAFE4ImagesEEG,001,200489,
AFNE01.JPG,AFNE01.JPG,AFNE01.JPG,AFNE01.JPG,AFNE01.JPG,AFNE01.JPG,2,2,22,7,,,,,,,,,,,,,,,,,,,,,,,AMNE09.jpg,AMSA13.jpg,AMNE17.jpg,AMSA16.jpg,AMSA13.jpg,MS,2,num_6,32,num_2,0.81680468074,,,2017_Jul_05_1947,60.0043880516,MAFE4ImagesEEG,001,200489,
AFNE01.JPG,AFNE01.JPG,AFNE01.JPG,AFNE01.JPG,AFNE01.JPG,AFNE01.JPG,2,3,23,4,,,,,,,,,,,,,,,,,,,,,,,AMNE19.jpg,AMNE14.jpg,AMSA10.jpg,AMSA11.jpg,AMSA10.jpg,MS,2,num_2,32,num_8,0.316811095574,,,2017_Jul_05_1947,60.0043880516,MAFE4ImagesEEG,001,200489,
AFNE01.JPG,AFNE01.JPG,AFNE01.JPG,AFNE01.JPG,AFNE01.JPG,AFNE01.JPG,2,4,24,1,,,,,,,,,,,,,,,,,,,,,,,AMSA05.jpg,AMNE03.jpg,AMNE02.jpg,AMSA15.jpg,AMNE03.jpg,MN,1,num_6,16,num_6,0.700101802708,,,2017_Jul_05_1947,60.0043880516,MAFE4ImagesEEG,001,200489,
AFNE01.JPG,AFNE01.JPG,AFNE01.JPG,AFNE01.JPG,AFNE01.JPG,AFNE01.JPG,2,5,25,0,,,,,,,,,,,,,,,,,,,,,,,AMNE11.jpg,AMNE01.jpg,AMSA20.jpg,AMSA02.jpg,AMNE01.jpg,MN,1,num_6,32,num_8,0.600120020681,,,2017_Jul_05_1947,60.0043880516,MAFE4ImagesEEG,001,200489,
AFNE01.JPG,AFNE01.JPG,AFNE01.JPG,AFNE01.JPG,AFNE01.JPG,AFNE01.JPG,2,6,26,8,,,,,,,,,,,,,,,,,,,,,,,AMNE02.jpg,AMSA08.jpg,AMSA16.jpg,AMNE01.jpg,AMNE02.jpg,MN,1,num_8,16,num_8,1.05009946111,,,2017_Jul_05_1947,60.0043880516,MAFE4ImagesEEG,001,200489,
AFNE01.JPG,AFNE01.JPG,AFNE01.JPG,AFNE01.JPG,AFNE01.JPG,AFNE01.JPG,2,7,27,6,,,,,,,,,,,,,,,,,,,,,,,AMNE17.jpg,AMSA06.jpg,AMSA17.jpg,AMNE07.jpg,AMNE07.jpg,MN,1,num_4,32,num_2,0.883487961721,,,2017_Jul_05_1947,60.0043880516,MAFE4ImagesEEG,001,200489,
AFNE01.JPG,AFNE01.JPG,AFNE01.JPG,AFNE01.JPG,AFNE01.JPG,AFNE01.JPG,2,8,28,2,,,,,,,,,,,,,,,,,,,,,,,AMSA16.jpg,AMNE07.jpg,AMNE14.jpg,AMSA20.jpg,AMSA20.jpg,MS,2,num_4,32,num_6,0.60014118941,,,2017_Jul_05_1947,60.0043880516,MAFE4ImagesEEG,001,200489,
AFNE01.JPG,AFNE01.JPG,AFNE01.JPG,AFNE01.JPG,AFNE01.JPG,AFNE01.JPG,2,9,29,5,,,,,,,,,,,,,,,,,,,,,,,AMNE11.jpg,AMSA15.jpg,AMSA02.jpg,AMNE02.jpg,AMNE11.jpg,MN,1,num_8,32,num_4,0.58346627967,,,2017_Jul_05_1947,60.0043880516,MAFE4ImagesEEG,001,200489,
AFNE01.JPG,AFNE01.JPG,AFNE01.JPG,AFNE01.JPG,AFNE01.JPG,AFNE01.JPG,3,0,30,3,,,,,,,,,,,,,,,,,,,,,,,AMNE07.jpg,AMSA14.jpg,AMNE09.jpg,AMSA18.jpg,AMNE07.jpg,MN,1,num_8,16,num_8,0.433483182685,,,2017_Jul_05_1947,60.0043880516,MAFE4ImagesEEG,001,200489,
AFNE01.JPG,AFNE01.JPG,AFNE01.JPG,AFNE01.JPG,AFNE01.JPG,AFNE01.JPG,3,1,31,0,,,,,,,,,,,,,,,,,,,,,,,AMNE11.jpg,AMSA16.jpg,AMSA09.jpg,AMNE09.jpg,AMNE11.jpg,MN,1,num_8,32,num_2,0.450208448339,,,2017_Jul_05_1947,60.0043880516,MAFE4ImagesEEG,001,200489,
AFNE01.JPG,AFNE01.JPG,AFNE01.JPG,AFNE01.JPG,AFNE01.JPG,AFNE01.JPG,3,2,32,8,,,,,,,,,,,,,,,,,,,,,,,AMSA18.jpg,AMSA04.jpg,AMNE17.jpg,AMNE10.jpg,AMSA04.jpg,MS,2,num_6,32,num_8,0.933424166637,,,2017_Jul_05_1947,60.0043880516,MAFE4ImagesEEG,001,200489,
AFNE01.JPG,AFNE01.JPG,AFNE01.JPG,AFNE01.JPG,AFNE01.JPG,AFNE01.JPG,3,3,33,6,,,,,,,,,,,,,,,,,,,,,,,AMSA17.jpg,AMNE03.jpg,AMSA13.jpg,AMNE19.jpg,AMSA17.jpg,MS,2,num_8,16,num_8,1.08341688581,,,2017_Jul_05_1947,60.0043880516,MAFE4ImagesEEG,001,200489,
AFNE01.JPG,AFNE01.JPG,AFNE01.JPG,AFNE01.JPG,AFNE01.JPG,AFNE01.JPG,3,4,34,4,,,,,,,,,,,,,,,,,,,,,,,AMSA06.jpg,AMSA16.jpg,AMNE19.jpg,AMNE17.jpg,AMSA06.jpg,MS,2,num_8,32,num_6,0.633483631769,,,2017_Jul_05_1947,60.0043880516,MAFE4ImagesEEG,001,200489,
AFNE01.JPG,AFNE01.JPG,AFNE01.JPG,AFNE01.JPG,AFNE01.JPG,AFNE01.JPG,3,5,35,1,,,,,,,,,,,,,,,,,,,,,,,AMSA20.jpg,AMNE13.jpg,AMNE11.jpg,AMSA03.jpg,AMSA20.jpg,MS,2,num_8,16,num_8,0.466782966745,,,2017_Jul_05_1947,60.0043880516,MAFE4ImagesEEG,001,200489,
AFNE01.JPG,AFNE01.JPG,AFNE01.JPG,AFNE01.JPG,AFNE01.JPG,AFNE01.JPG,3,6,36,7,,,,,,,,,,,,,,,,,,,,,,,AMNE10.jpg,AMSA14.jpg,AMNE08.jpg,AMSA11.jpg,AMNE10.jpg,MN,1,num_8,32,num_6,0.766797271557,,,2017_Jul_05_1947,60.0043880516,MAFE4ImagesEEG,001,200489,
AFNE01.JPG,AFNE01.JPG,AFNE01.JPG,AFNE01.JPG,AFNE01.JPG,AFNE01.JPG,3,7,37,9,,,,,,,,,,,,,,,,,,,,,,,AMNE11.jpg,AMSA16.jpg,AMNE16.jpg,AMSA07.jpg,AMNE16.jpg,MN,1,num_2,32,num_8,0.500088844681,,,2017_Jul_05_1947,60.0043880516,MAFE4ImagesEEG,001,200489,
AFNE01.JPG,AFNE01.JPG,AFNE01.JPG,AFNE01.JPG,AFNE01.JPG,AFNE01.JPG,3,8,38,5,,,,,,,,,,,,,,,,,,,,,,,AMSA06.jpg,AMSA16.jpg,AMNE09.jpg,AMNE16.jpg,AMSA06.jpg,MS,2,num_8,32,num_6,0.566806444782,,,2017_Jul_05_1947,60.0043880516,MAFE4ImagesEEG,001,200489,
AFNE01.JPG,AFNE01.JPG,AFNE01.JPG,AFNE01.JPG,AFNE01.JPG,AFNE01.JPG,3,9,39,2,,,,,,,,,,,,,,,,,,,,,,,AMNE14.jpg,AMNE02.jpg,AMSA06.jpg,AMSA08.jpg,AMSA06.jpg,MS,2,num_2,32,num_8,0.733416340663,,,2017_Jul_05_1947,60.0043880516,MAFE4ImagesEEG,001,200489,
AFNE01.JPG,AFNE01.JPG,AFNE01.JPG,AFNE01.JPG,AFNE01.JPG,AFNE01.JPG,4,0,40,6,,,,,,,,,,,,,,,,,,,,,,,AMSA15.jpg,AMNE02.jpg,AMSA20.jpg,AMNE04.jpg,AMSA15.jpg,MS,2,num_8,32,num_2,1.18343972252,,,2017_Jul_05_1947,60.0043880516,MAFE4ImagesEEG,001,200489,
AFNE01.JPG,AFNE01.JPG,AFNE01.JPG,AFNE01.JPG,AFNE01.JPG,AFNE01.JPG,4,1,41,1,,,,,,,,,,,,,,,,,,,,,,,AMSA02.jpg,AMNE18.jpg,AMNE13.jpg,AMSA14.jpg,AMSA02.jpg,MS,2,num_8,32,num_6,0.683542679762,,,2017_Jul_05_1947,60.0043880516,MAFE4ImagesEEG,001,200489,
AFNE01.JPG,AFNE01.JPG,AFNE01.JPG,AFNE01.JPG,AFNE01.JPG,AFNE01.JPG,4,2,42,8,,,,,,,,,,,,,,,,,,,,,,,AMNE17.jpg,AMNE12.jpg,AMSA08.jpg,AMSA05.jpg,AMSA05.jpg,MS,2,num_4,32,num_8,0.550140195061,,,2017_Jul_05_1947,60.0043880516,MAFE4ImagesEEG,001,200489,
AFNE01.JPG,AFNE01.JPG,AFNE01.JPG,AFNE01.JPG,AFNE01.JPG,AFNE01.JPG,4,3,43,4,,,,,,,,,,,,,,,,,,,,,,,AMSA06.jpg,AMNE12.jpg,AMSA04.jpg,AMNE20.jpg,AMSA04.jpg,MS,2,num_2,16,num_2,0.600172621896,,,2017_Jul_05_1947,60.0043880516,MAFE4ImagesEEG,001,200489,
AFNE01.JPG,AFNE01.JPG,AFNE01.JPG,AFNE01.JPG,AFNE01.JPG,AFNE01.JPG,4,4,44,0,,,,,,,,,,,,,,,,,,,,,,,AMSA07.jpg,AMSA13.jpg,AMNE17.jpg,AMNE07.jpg,AMSA13.jpg,MS,2,num_6,32,num_4,1.2334326983,,,2017_Jul_05_1947,60.0043880516,MAFE4ImagesEEG,001,200489,
AFNE01.JPG,AFNE01.JPG,AFNE01.JPG,AFNE01.JPG,AFNE01.JPG,AFNE01.JPG,4,5,45,2,,,,,,,,,,,,,,,,,,,,,,,AMNE07.jpg,AMSA18.jpg,AMNE17.jpg,AMSA17.jpg,AMSA18.jpg,MS,2,num_6,16,num_6,0.500189556857,,,2017_Jul_05_1947,60.0043880516,MAFE4ImagesEEG,001,200489,
AFNE01.JPG,AFNE01.JPG,AFNE01.JPG,AFNE01.JPG,AFNE01.JPG,AFNE01.JPG,4,6,46,5,,,,,,,,,,,,,,,,,,,,,,,AMNE15.jpg,AMNE01.jpg,AMSA06.jpg,AMSA04.jpg,AMNE15.jpg,MN,1,num_8,16,num_8,1.06675384357,,,2017_Jul_05_1947,60.0043880516,MAFE4ImagesEEG,001,200489,
AFNE01.JPG,AFNE01.JPG,AFNE01.JPG,AFNE01.JPG,AFNE01.JPG,AFNE01.JPG,4,7,47,9,,,,,,,,,,,,,,,,,,,,,,,AMSA20.jpg,AMNE06.jpg,AMNE16.jpg,AMSA10.jpg,AMNE16.jpg,MN,1,num_2,32,num_4,0.650117807556,,,2017_Jul_05_1947,60.0043880516,MAFE4ImagesEEG,001,200489,
AFNE01.JPG,AFNE01.JPG,AFNE01.JPG,AFNE01.JPG,AFNE01.JPG,AFNE01.JPG,4,8,48,3,,,,,,,,,,,,,,,,,,,,,,,AMNE09.jpg,AMSA05.jpg,AMSA07.jpg,AMNE07.jpg,AMSA05.jpg,MS,2,num_6,32,num_8,0.90021900076,,,2017_Jul_05_1947,60.0043880516,MAFE4ImagesEEG,001,200489,
AFNE01.JPG,AFNE01.JPG,AFNE01.JPG,AFNE01.JPG,AFNE01.JPG,AFNE01.JPG,4,9,49,7,,,,,,,,,,,,,,,,,,,,,,,AMSA09.jpg,AMNE03.jpg,AMSA15.jpg,AMNE07.jpg,AMSA15.jpg,MS,2,num_2,16,num_2,0.816784794908,,,2017_Jul_05_1947,60.0043880516,MAFE4ImagesEEG,001,200489,
AFNE01.JPG,AFNE01.JPG,AFNE01.JPG,AFNE01.JPG,AFNE01.JPG,AFNE01.JPG,5,0,50,1,,,,,,,,,,,,,,,,,,,,,,,AMNE18.jpg,AMNE19.jpg,AMSA04.jpg,AMSA19.jpg,AMNE19.jpg,MN,1,num_6,32,num_8,0.766731520067,,,2017_Jul_05_1947,60.0043880516,MAFE4ImagesEEG,001,200489,
AFNE01.JPG,AFNE01.JPG,AFNE01.JPG,AFNE01.JPG,AFNE01.JPG,AFNE01.JPG,5,1,51,5,,,,,,,,,,,,,,,,,,,,,,,AMSA12.jpg,AMNE17.jpg,AMSA13.jpg,AMNE09.jpg,AMSA13.jpg,MS,2,num_2,32,num_4,0.800120790373,,,2017_Jul_05_1947,60.0043880516,MAFE4ImagesEEG,001,200489,
AFNE01.JPG,AFNE01.JPG,AFNE01.JPG,AFNE01.JPG,AFNE01.JPG,AFNE01.JPG,5,2,52,2,,,,,,,,,,,,,,,,,,,,,,,AMNE14.jpg,AMSA18.jpg,AMSA14.jpg,AMNE10.jpg,AMSA14.jpg,MS,2,num_2,32,num_8,0.766846344806,,,2017_Jul_05_1947,60.0043880516,MAFE4ImagesEEG,001,200489,
AFNE01.JPG,AFNE01.JPG,AFNE01.JPG,AFNE01.JPG,AFNE01.JPG,AFNE01.JPG,5,3,53,9,,,,,,,,,,,,,,,,,,,,,,,AMSA15.jpg,AMSA07.jpg,AMNE10.jpg,AMNE08.jpg,AMNE10.jpg,MN,1,num_2,32,num_4,0.633494857582,,,2017_Jul_05_1947,60.0043880516,MAFE4ImagesEEG,001,200489,
AFNE01.JPG,AFNE01.JPG,AFNE01.JPG,AFNE01.JPG,AFNE01.JPG,AFNE01.JPG,5,4,54,3,,,,,,,,,,,,,,,,,,,,,,,AMNE10.jpg,AMSA01.jpg,AMNE18.jpg,AMSA14.jpg,AMNE10.jpg,MN,1,num_8,16,num_8,0.716798201785,,,2017_Jul_05_1947,60.0043880516,MAFE4ImagesEEG,001,200489,
AFNE01.JPG,AFNE01.JPG,AFNE01.JPG,AFNE01.JPG,AFNE01.JPG,AFNE01.JPG,5,5,55,8,,,,,,,,,,,,,,,,,,,,,,,AMSA03.jpg,AMNE03.jpg,AMSA11.jpg,AMNE20.jpg,AMSA03.jpg,MS,2,num_8,32,num_2,0.716781844036,,,2017_Jul_05_1947,60.0043880516,MAFE4ImagesEEG,001,200489,
AFNE01.JPG,AFNE01.JPG,AFNE01.JPG,AFNE01.JPG,AFNE01.JPG,AFNE01.JPG,5,6,56,7,,,,,,,,,,,,,,,,,,,,,,,AMSA19.jpg,AMNE08.jpg,AMSA06.jpg,AMNE10.jpg,AMNE10.jpg,MN,1,num_4,32,num_8,1.01670281391,,,2017_Jul_05_1947,60.0043880516,MAFE4ImagesEEG,001,200489,
AFNE01.JPG,AFNE01.JPG,AFNE01.JPG,AFNE01.JPG,AFNE01.JPG,AFNE01.JPG,5,7,57,0,,,,,,,,,,,,,,,,,,,,,,,AMSA12.jpg,AMNE20.jpg,AMNE10.jpg,AMSA07.jpg,AMNE20.jpg,MN,1,num_6,16,num_6,0.533511151094,,,2017_Jul_05_1947,60.0043880516,MAFE4ImagesEEG,001,200489,
AFNE01.JPG,AFNE01.JPG,AFNE01.JPG,AFNE01.JPG,AFNE01.JPG,AFNE01.JPG,5,8,58,4,,,,,,,,,,,,,,,,,,,,,,,AMSA20.jpg,AMNE04.jpg,AMSA18.jpg,AMNE13.jpg,AMNE13.jpg,MN,1,num_4,16,num_4,1.13342782308,,,2017_Jul_05_1947,60.0043880516,MAFE4ImagesEEG,001,200489,
AFNE01.JPG,AFNE01.JPG,AFNE01.JPG,AFNE01.JPG,AFNE01.JPG,AFNE01.JPG,5,9,59,6,,,,,,,,,,,,,,,,,,,,,,,AMSA02.jpg,AMNE17.jpg,AMNE04.jpg,AMSA12.jpg,AMSA02.jpg,MS,2,num_8,32,num_6,0.516770489863,,,2017_Jul_05_1947,60.0043880516,MAFE4ImagesEEG,001,200489,
,,,,,,,,,,,,,,,,,,,,,,,,,,,,,,,,,,,,,,,,,,,space,39.547336293,2017_Jul_05_1947,60.0043880516,MAFE4ImagesEEG,001,200489,
AFNE01.JPG,AFNE01.JPG,AFNE01.JPG,AFNE01.JPG,AFNE01.JPG,AFNE01.JPG,,,,,0,0,0,8,,,,,,,,,,,,,,,,,,,AFNE06.jpg,AFNE13.jpg,AFSA02.jpg,AFSA11.jpg,AFNE13.jpg,FN,3,num_6,32,num_8,0.700109500438,,,2017_Jul_05_1947,60.0043880516,MAFE4ImagesEEG,001,200489,
AFNE01.JPG,AFNE01.JPG,AFNE01.JPG,AFNE01.JPG,AFNE01.JPG,AFNE01.JPG,,,,,0,1,1,1,,,,,,,,,,,,,,,,,,,AFNE20.jpg,AFSA04.jpg,AFSA02.jpg,AFNE17.jpg,AFSA02.jpg,FS,4,num_2,16,num_2,1.03344443743,,,2017_Jul_05_1947,60.0043880516,MAFE4ImagesEEG,001,200489,
AFNE01.JPG,AFNE01.JPG,AFNE01.JPG,AFNE01.JPG,AFNE01.JPG,AFNE01.JPG,,,,,0,2,2,2,,,,,,,,,,,,,,,,,,,AFNE20.jpg,AFNE08.jpg,AFSA18.jpg,AFSA07.jpg,AFNE08.jpg,FN,3,num_6,32,num_8,0.600178715889,,,2017_Jul_05_1947,60.0043880516,MAFE4ImagesEEG,001,200489,
AFNE01.JPG,AFNE01.JPG,AFNE01.JPG,AFNE01.JPG,AFNE01.JPG,AFNE01.JPG,,,,,0,3,3,3,,,,,,,,,,,,,,,,,,,AFSA18.jpg,AFNE10.jpg,AFSA02.jpg,AFNE02.jpg,AFSA02.jpg,FS,4,num_2,32,num_4,0.583835450583,,,2017_Jul_05_1947,60.0043880516,MAFE4ImagesEEG,001,200489,
AFNE01.JPG,AFNE01.JPG,AFNE01.JPG,AFNE01.JPG,AFNE01.JPG,AFNE01.JPG,,,,,0,4,4,4,,,,,,,,,,,,,,,,,,,AFNE17.jpg,AFSA20.jpg,AFSA06.jpg,AFNE02.jpg,AFSA20.jpg,FS,4,num_6,32,num_8,0.350149688893,,,2017_Jul_05_1947,60.0043880516,MAFE4ImagesEEG,001,200489,
AFNE01.JPG,AFNE01.JPG,AFNE01.JPG,AFNE01.JPG,AFNE01.JPG,AFNE01.JPG,,,,,0,5,5,7,,,,,,,,,,,,,,,,,,,AFSA18.jpg,AFNE10.jpg,AFSA01.jpg,AFNE12.jpg,AFNE12.jpg,FN,3,num_4,32,num_2,0.75014545524,,,2017_Jul_05_1947,60.0043880516,MAFE4ImagesEEG,001,200489,
AFNE01.JPG,AFNE01.JPG,AFNE01.JPG,AFNE01.JPG,AFNE01.JPG,AFNE01.JPG,,,,,0,6,6,0,,,,,,,,,,,,,,,,,,,AFSA03.jpg,AFSA17.jpg,AFNE07.jpg,AFNE01.jpg,AFNE01.jpg,FN,3,num_4,32,num_8,0.38350175356,,,2017_Jul_05_1947,60.0043880516,MAFE4ImagesEEG,001,200489,
AFNE01.JPG,AFNE01.JPG,AFNE01.JPG,AFNE01.JPG,AFNE01.JPG,AFNE01.JPG,,,,,0,7,7,5,,,,,,,,,,,,,,,,,,,AFSA01.jpg,AFSA14.jpg,AFNE03.jpg,AFNE13.jpg,AFNE13.jpg,FN,3,num_4,32,num_6,0.600015138858,,,2017_Jul_05_1947,60.0043880516,MAFE4ImagesEEG,001,200489,
AFNE01.JPG,AFNE01.JPG,AFNE01.JPG,AFNE01.JPG,AFNE01.JPG,AFNE01.JPG,,,,,0,8,8,9,,,,,,,,,,,,,,,,,,,AFSA20.jpg,AFNE04.jpg,AFSA04.jpg,AFNE18.jpg,AFSA04.jpg,FS,4,num_2,32,num_4,0.700114311534,,,2017_Jul_05_1947,60.0043880516,MAFE4ImagesEEG,001,200489,
AFNE01.JPG,AFNE01.JPG,AFNE01.JPG,AFNE01.JPG,AFNE01.JPG,AFNE01.JPG,,,,,0,9,9,6,,,,,,,,,,,,,,,,,,,AFNE01.jpg,AFSA09.jpg,AFNE17.jpg,AFSA20.jpg,AFSA20.jpg,FS,4,num_4,32,num_8,0.683468268369,,,2017_Jul_05_1947,60.0043880516,MAFE4ImagesEEG,001,200489,
AFNE01.JPG,AFNE01.JPG,AFNE01.JPG,AFNE01.JPG,AFNE01.JPG,AFNE01.JPG,,,,,1,0,10,5,,,,,,,,,,,,,,,,,,,AFSA07.jpg,AFSA11.jpg,AFNE04.jpg,AFNE20.jpg,AFNE20.jpg,FN,3,num_4,32,num_2,0.533461115905,,,2017_Jul_05_1947,60.0043880516,MAFE4ImagesEEG,001,200489,
AFNE01.JPG,AFNE01.JPG,AFNE01.JPG,AFNE01.JPG,AFNE01.JPG,AFNE01.JPG,,,,,1,1,11,9,,,,,,,,,,,,,,,,,,,AFSA14.jpg,AFNE09.jpg,AFNE06.jpg,AFSA16.jpg,AFNE09.jpg,FN,3,num_6,32,num_8,0.71676965605,,,2017_Jul_05_1947,60.0043880516,MAFE4ImagesEEG,001,200489,
AFNE01.JPG,AFNE01.JPG,AFNE01.JPG,AFNE01.JPG,AFNE01.JPG,AFNE01.JPG,,,,,1,2,12,6,,,,,,,,,,,,,,,,,,,AFNE13.jpg,AFSA18.jpg,AFNE06.jpg,AFSA11.jpg,AFNE13.jpg,FN,3,num_8,32,num_4,0.833442384726,,,2017_Jul_05_1947,60.0043880516,MAFE4ImagesEEG,001,200489,
AFNE01.JPG,AFNE01.JPG,AFNE01.JPG,AFNE01.JPG,AFNE01.JPG,AFNE01.JPG,,,,,1,3,13,4,,,,,,,,,,,,,,,,,,,AFSA07.jpg,AFNE15.jpg,AFNE18.jpg,AFSA02.jpg,AFSA07.jpg,FS,4,num_8,32,num_2,1.0501417988,,,2017_Jul_05_1947,60.0043880516,MAFE4ImagesEEG,001,200489,
AFNE01.JPG,AFNE01.JPG,AFNE01.JPG,AFNE01.JPG,AFNE01.JPG,AFNE01.JPG,,,,,1,4,14,7,,,,,,,,,,,,,,,,,,,AFNE19.jpg,AFSA08.jpg,AFNE16.jpg,AFSA09.jpg,AFNE16.jpg,FN,3,num_2,32,num_8,0.966746402439,,,2017_Jul_05_1947,60.0043880516,MAFE4ImagesEEG,001,200489,
AFNE01.JPG,AFNE01.JPG,AFNE01.JPG,AFNE01.JPG,AFNE01.JPG,AFNE01.JPG,,,,,1,5,15,3,,,,,,,,,,,,,,,,,,,AFNE14.jpg,AFNE13.jpg,AFSA09.jpg,AFSA01.jpg,AFNE13.jpg,FN,3,num_6,16,num_6,0.983464611927,,,2017_Jul_05_1947,60.0043880516,MAFE4ImagesEEG,001,200489,
AFNE01.JPG,AFNE01.JPG,AFNE01.JPG,AFNE01.JPG,AFNE01.JPG,AFNE01.JPG,,,,,1,6,16,0,,,,,,,,,,,,,,,,,,,AFSA15.jpg,AFNE13.jpg,AFNE03.jpg,AFSA17.jpg,AFNE13.jpg,FN,3,num_6,32,num_8,1.88335517573,,,2017_Jul_05_1947,60.0043880516,MAFE4ImagesEEG,001,200489,
AFNE01.JPG,AFNE01.JPG,AFNE01.JPG,AFNE01.JPG,AFNE01.JPG,AFNE01.JPG,,,,,1,7,17,8,,,,,,,,,,,,,,,,,,,AFSA12.jpg,AFNE06.jpg,AFNE08.jpg,AFSA18.jpg,AFSA12.jpg,FS,4,num_8,32,num_6,0.600177432992,,,2017_Jul_05_1947,60.0043880516,MAFE4ImagesEEG,001,200489,
AFNE01.JPG,AFNE01.JPG,AFNE01.JPG,AFNE01.JPG,AFNE01.JPG,AFNE01.JPG,,,,,1,8,18,2,,,,,,,,,,,,,,,,,,,AFSA07.jpg,AFSA08.jpg,AFNE07.jpg,AFNE05.jpg,AFNE07.jpg,FN,3,num_2,16,num_2,1.81669562939,,,2017_Jul_05_1947,60.0043880516,MAFE4ImagesEEG,001,200489,
AFNE01.JPG,AFNE01.JPG,AFNE01.JPG,AFNE01.JPG,AFNE01.JPG,AFNE01.JPG,,,,,1,9,19,1,,,,,,,,,,,,,,,,,,,AFSA08.jpg,AFNE01.jpg,AFSA07.jpg,AFNE16.jpg,AFSA07.jpg,FS,4,num_2,32,num_8,1.10007351346,,,2017_Jul_05_1947,60.0043880516,MAFE4ImagesEEG,001,200489,
AFNE01.JPG,AFNE01.JPG,AFNE01.JPG,AFNE01.JPG,AFNE01.JPG,AFNE01.JPG,,,,,2,0,20,9,,,,,,,,,,,,,,,,,,,AFSA09.jpg,AFNE06.jpg,AFNE16.jpg,AFSA04.jpg,AFNE16.jpg,FN,3,num_2,32,num_6,0.56679201161,,,2017_Jul_05_1947,60.0043880516,MAFE4ImagesEEG,001,200489,
AFNE01.JPG,AFNE01.JPG,AFNE01.JPG,AFNE01.JPG,AFNE01.JPG,AFNE01.JPG,,,,,2,1,21,0,,,,,,,,,,,,,,,,,,,AFNE12.jpg,AFSA07.jpg,AFNE16.jpg,AFSA05.jpg,AFSA05.jpg,FS,4,num_4,32,num_8,1.68344966543,,,2017_Jul_05_1947,60.0043880516,MAFE4ImagesEEG,001,200489,
AFNE01.JPG,AFNE01.JPG,AFNE01.JPG,AFNE01.JPG,AFNE01.JPG,AFNE01.JPG,,,,,2,2,22,8,,,,,,,,,,,,,,,,,,,AFSA10.jpg,AFNE07.jpg,AFNE12.jpg,AFSA12.jpg,AFNE07.jpg,FN,3,num_6,16,num_6,0.816730910796,,,2017_Jul_05_1947,60.0043880516,MAFE4ImagesEEG,001,200489,
AFNE01.JPG,AFNE01.JPG,AFNE01.JPG,AFNE01.JPG,AFNE01.JPG,AFNE01.JPG,,,,,2,3,23,3,,,,,,,,,,,,,,,,,,,AFNE11.jpg,AFNE20.jpg,AFSA10.jpg,AFSA09.jpg,AFSA09.jpg,FS,4,num_4,32,num_2,0.783111349796,,,2017_Jul_05_1947,60.0043880516,MAFE4ImagesEEG,001,200489,
AFNE01.JPG,AFNE01.JPG,AFNE01.JPG,AFNE01.JPG,AFNE01.JPG,AFNE01.JPG,,,,,2,4,24,4,,,,,,,,,,,,,,,,,,,AFSA07.jpg,AFNE17.jpg,AFSA12.jpg,AFNE14.jpg,AFSA07.jpg,FS,4,num_8,16,num_8,0.916793518933,,,2017_Jul_05_1947,60.0043880516,MAFE4ImagesEEG,001,200489,
AFNE01.JPG,AFNE01.JPG,AFNE01.JPG,AFNE01.JPG,AFNE01.JPG,AFNE01.JPG,,,,,2,5,25,6,,,,,,,,,,,,,,,,,,,AFNE11.jpg,AFNE12.jpg,AFSA14.jpg,AFSA02.jpg,AFSA14.jpg,FS,4,num_2,32,num_4,0.700099557405,,,2017_Jul_05_1947,60.0043880516,MAFE4ImagesEEG,001,200489,
AFNE01.JPG,AFNE01.JPG,AFNE01.JPG,AFNE01.JPG,AFNE01.JPG,AFNE01.JPG,,,,,2,6,26,5,,,,,,,,,,,,,,,,,,,AFSA20.jpg,AFSA05.jpg,AFNE09.jpg,AFNE20.jpg,AFSA05.jpg,FS,4,num_6,32,num_2,0.716781523312,,,2017_Jul_05_1947,60.0043880516,MAFE4ImagesEEG,001,200489,
AFNE01.JPG,AFNE01.JPG,AFNE01.JPG,AFNE01.JPG,AFNE01.JPG,AFNE01.JPG,,,,,2,7,27,2,,,,,,,,,,,,,,,,,,,AFNE05.jpg,AFSA17.jpg,AFNE11.jpg,AFSA18.jpg,AFSA17.jpg,FS,4,num_6,16,num_6,0.766736010439,,,2017_Jul_05_1947,60.0043880516,MAFE4ImagesEEG,001,200489,
AFNE01.JPG,AFNE01.JPG,AFNE01.JPG,AFNE01.JPG,AFNE01.JPG,AFNE01.JPG,,,,,2,8,28,7,,,,,,,,,,,,,,,,,,,AFSA02.jpg,AFNE15.jpg,AFNE02.jpg,AFSA09.jpg,AFSA09.jpg,FS,4,num_4,32,num_2,0.483459159266,,,2017_Jul_05_1947,60.0043880516,MAFE4ImagesEEG,001,200489,
AFNE01.JPG,AFNE01.JPG,AFNE01.JPG,AFNE01.JPG,AFNE01.JPG,AFNE01.JPG,,,,,2,9,29,1,,,,,,,,,,,,,,,,,,,AFNE20.jpg,AFSA14.jpg,AFSA18.jpg,AFNE19.jpg,AFSA14.jpg,FS,4,num_6,32,num_4,0.700141895097,,,2017_Jul_05_1947,60.0043880516,MAFE4ImagesEEG,001,200489,
AFNE01.JPG,AFNE01.JPG,AFNE01.JPG,AFNE01.JPG,AFNE01.JPG,AFNE01.JPG,,,,,3,0,30,4,,,,,,,,,,,,,,,,,,,AFSA20.jpg,AFNE14.jpg,AFSA03.jpg,AFNE06.jpg,AFNE06.jpg,FN,3,num_4,32,num_8,0.783427598537,,,2017_Jul_05_1947,60.0043880516,MAFE4ImagesEEG,001,200489,
AFNE01.JPG,AFNE01.JPG,AFNE01.JPG,AFNE01.JPG,AFNE01.JPG,AFNE01.JPG,,,,,3,1,31,5,,,,,,,,,,,,,,,,,,,AFSA07.jpg,AFNE12.jpg,AFNE19.jpg,AFSA01.jpg,AFNE12.jpg,FN,3,num_6,32,num_2,0.600121624302,,,2017_Jul_05_1947,60.0043880516,MAFE4ImagesEEG,001,200489,
AFNE01.JPG,AFNE01.JPG,AFNE01.JPG,AFNE01.JPG,AFNE01.JPG,AFNE01.JPG,,,,,3,2,32,1,,,,,,,,,,,,,,,,,,,AFNE03.jpg,AFSA08.jpg,AFNE20.jpg,AFSA11.jpg,AFNE20.jpg,FN,3,num_2,32,num_6,0.583493221784,,,2017_Jul_05_1947,60.0043880516,MAFE4ImagesEEG,001,200489,
AFNE01.JPG,AFNE01.JPG,AFNE01.JPG,AFNE01.JPG,AFNE01.JPG,AFNE01.JPG,,,,,3,3,33,2,,,,,,,,,,,,,,,,,,,AFSA03.jpg,AFNE03.jpg,AFNE20.jpg,AFSA17.jpg,AFSA03.jpg,FS,4,num_8,16,num_8,0.500133106718,,,2017_Jul_05_1947,60.0043880516,MAFE4ImagesEEG,001,200489,
AFNE01.JPG,AFNE01.JPG,AFNE01.JPG,AFNE01.JPG,AFNE01.JPG,AFNE01.JPG,,,,,3,4,34,9,,,,,,,,,,,,,,,,,,,AFNE14.jpg,AFNE08.jpg,AFSA09.jpg,AFSA15.jpg,AFSA09.jpg,FS,4,num_2,32,num_6,0.816854074597,,,2017_Jul_05_1947,60.0043880516,MAFE4ImagesEEG,001,200489,
AFNE01.JPG,AFNE01.JPG,AFNE01.JPG,AFNE01.JPG,AFNE01.JPG,AFNE01.JPG,,,,,3,5,35,8,,,,,,,,,,,,,,,,,,,AFSA07.jpg,AFNE11.jpg,AFSA11.jpg,AFNE08.jpg,AFNE08.jpg,FN,3,num_4,32,num_8,0.816636613454,,,2017_Jul_05_1947,60.0043880516,MAFE4ImagesEEG,001,200489,
AFNE01.JPG,AFNE01.JPG,AFNE01.JPG,AFNE01.JPG,AFNE01.JPG,AFNE01.JPG,,,,,3,6,36,0,,,,,,,,,,,,,,,,,,,AFSA01.jpg,AFNE11.jpg,AFNE09.jpg,AFSA07.jpg,AFNE11.jpg,FN,3,num_6,16,num_6,0.766788932378,,,2017_Jul_05_1947,60.0043880516,MAFE4ImagesEEG,001,200489,
AFNE01.JPG,AFNE01.JPG,AFNE01.JPG,AFNE01.JPG,AFNE01.JPG,AFNE01.JPG,,,,,3,7,37,6,,,,,,,,,,,,,,,,,,,AFSA11.jpg,AFSA15.jpg,AFNE07.jpg,AFNE05.jpg,AFSA11.jpg,FS,4,num_8,32,num_4,0.916812121868,,,2017_Jul_05_1947,60.0043880516,MAFE4ImagesEEG,001,200489,
AFNE01.JPG,AFNE01.JPG,AFNE01.JPG,AFNE01.JPG,AFNE01.JPG,AFNE01.JPG,,,,,3,8,38,7,,,,,,,,,,,,,,,,,,,AFSA19.jpg,AFNE16.jpg,AFSA18.jpg,AFNE07.jpg,AFSA19.jpg,FS,4,num_8,16,num_8,0.867005816312,,,2017_Jul_05_1947,60.0043880516,MAFE4ImagesEEG,001,200489,
AFNE01.JPG,AFNE01.JPG,AFNE01.JPG,AFNE01.JPG,AFNE01.JPG,AFNE01.JPG,,,,,3,9,39,3,,,,,,,,,,,,,,,,,,,AFNE09.jpg,AFSA19.jpg,AFSA16.jpg,AFNE03.jpg,AFNE03.jpg,FN,3,num_4,32,num_6,0.766725746798,,,2017_Jul_05_1947,60.0043880516,MAFE4ImagesEEG,001,200489,
AFNE01.JPG,AFNE01.JPG,AFNE01.JPG,AFNE01.JPG,AFNE01.JPG,AFNE01.JPG,,,,,4,0,40,1,,,,,,,,,,,,,,,,,,,AFNE14.jpg,AFSA18.jpg,AFSA17.jpg,AFNE01.jpg,AFSA18.jpg,FS,4,num_6,32,num_4,0.700116556603,,,2017_Jul_05_1947,60.0043880516,MAFE4ImagesEEG,001,200489,
AFNE01.JPG,AFNE01.JPG,AFNE01.JPG,AFNE01.JPG,AFNE01.JPG,AFNE01.JPG,,,,,4,1,41,5,,,,,,,,,,,,,,,,,,,AFNE06.jpg,AFSA12.jpg,AFNE16.jpg,AFSA05.jpg,AFNE06.jpg,FN,3,num_8,32,num_2,0.866776808514,,,2017_Jul_05_1947,60.0043880516,MAFE4ImagesEEG,001,200489,
AFNE01.JPG,AFNE01.JPG,AFNE01.JPG,AFNE01.JPG,AFNE01.JPG,AFNE01.JPG,,,,,4,2,42,3,,,,,,,,,,,,,,,,,,,AFNE10.jpg,AFSA18.jpg,AFSA01.jpg,AFNE11.jpg,AFNE11.jpg,FN,3,num_4,16,num_4,0.583538766718,,,2017_Jul_05_1947,60.0043880516,MAFE4ImagesEEG,001,200489,
AFNE01.JPG,AFNE01.JPG,AFNE01.JPG,AFNE01.JPG,AFNE01.JPG,AFNE01.JPG,,,,,4,3,43,4,,,,,,,,,,,,,,,,,,,AFSA13.jpg,AFNE18.jpg,AFSA20.jpg,AFNE05.jpg,AFNE05.jpg,FN,3,num_4,32,num_8,0.533579147886,,,2017_Jul_05_1947,60.0043880516,MAFE4ImagesEEG,001,200489,
AFNE01.JPG,AFNE01.JPG,AFNE01.JPG,AFNE01.JPG,AFNE01.JPG,AFNE01.JPG,,,,,4,4,44,2,,,,,,,,,,,,,,,,,,,AFNE08.jpg,AFSA02.jpg,AFNE12.jpg,AFSA10.jpg,AFNE08.jpg,FN,3,num_8,32,num_4,1.06667462108,,,2017_Jul_05_1947,60.0043880516,MAFE4ImagesEEG,001,200489,
AFNE01.JPG,AFNE01.JPG,AFNE01.JPG,AFNE01.JPG,AFNE01.JPG,AFNE01.JPG,,,,,4,5,45,9,,,,,,,,,,,,,,,,,,,AFNE19.jpg,AFNE01.jpg,AFSA18.jpg,AFSA07.jpg,AFNE19.jpg,FN,3,num_8,16,num_8,0.883351968252,,,2017_Jul_05_1947,60.0043880516,MAFE4ImagesEEG,001,200489,
AFNE01.JPG,AFNE01.JPG,AFNE01.JPG,AFNE01.JPG,AFNE01.JPG,AFNE01.JPG,,,,,4,6,46,7,,,,,,,,,,,,,,,,,,,AFSA16.jpg,AFNE12.jpg,AFNE11.jpg,AFSA19.jpg,AFSA16.jpg,FS,4,num_8,32,num_6,1.01672686939,,,2017_Jul_05_1947,60.0043880516,MAFE4ImagesEEG,001,200489,
AFNE01.JPG,AFNE01.JPG,AFNE01.JPG,AFNE01.JPG,AFNE01.JPG,AFNE01.JPG,,,,,4,7,47,8,,,,,,,,,,,,,,,,,,,AFNE18.jpg,AFSA13.jpg,AFSA04.jpg,AFNE13.jpg,AFNE13.jpg,FN,3,num_4,16,num_4,0.983450178639,,,2017_Jul_05_1947,60.0043880516,MAFE4ImagesEEG,001,200489,
AFNE01.JPG,AFNE01.JPG,AFNE01.JPG,AFNE01.JPG,AFNE01.JPG,AFNE01.JPG,,,,,4,8,48,6,,,,,,,,,,,,,,,,,,,AFNE14.jpg,AFSA07.jpg,AFSA08.jpg,AFNE12.jpg,AFSA07.jpg,FS,4,num_6,32,num_8,0.416791273863,,,2017_Jul_05_1947,60.0043880516,MAFE4ImagesEEG,001,200489,
AFNE01.JPG,AFNE01.JPG,AFNE01.JPG,AFNE01.JPG,AFNE01.JPG,AFNE01.JPG,,,,,4,9,49,0,,,,,,,,,,,,,,,,,,,AFNE14.jpg,AFSA07.jpg,AFNE10.jpg,AFSA16.jpg,AFNE10.jpg,FN,3,num_2,16,num_2,0.833500438486,,,2017_Jul_05_1947,60.0043880516,MAFE4ImagesEEG,001,200489,
AFNE01.JPG,AFNE01.JPG,AFNE01.JPG,AFNE01.JPG,AFNE01.JPG,AFNE01.JPG,,,,,5,0,50,0,,,,,,,,,,,,,,,,,,,AFNE14.jpg,AFSA06.jpg,AFSA14.jpg,AFNE12.jpg,AFNE12.jpg,FN,3,num_4,32,num_8,0.816826491035,,,2017_Jul_05_1947,60.0043880516,MAFE4ImagesEEG,001,200489,
AFNE01.JPG,AFNE01.JPG,AFNE01.JPG,AFNE01.JPG,AFNE01.JPG,AFNE01.JPG,,,,,5,1,51,5,,,,,,,,,,,,,,,,,,,AFSA14.jpg,AFNE19.jpg,AFNE10.jpg,AFSA12.jpg,AFNE10.jpg,FN,3,num_2,32,num_4,0.733480488532,,,2017_Jul_05_1947,60.0043880516,MAFE4ImagesEEG,001,200489,
AFNE01.JPG,AFNE01.JPG,AFNE01.JPG,AFNE01.JPG,AFNE01.JPG,AFNE01.JPG,,,,,5,2,52,7,,,,,,,,,,,,,,,,,,,AFSA04.jpg,AFNE20.jpg,AFNE07.jpg,AFSA14.jpg,AFSA14.jpg,FS,4,num_4,32,num_2,0.700212136842,,,2017_Jul_05_1947,60.0043880516,MAFE4ImagesEEG,001,200489,
AFNE01.JPG,AFNE01.JPG,AFNE01.JPG,AFNE01.JPG,AFNE01.JPG,AFNE01.JPG,,,,,5,3,53,2,,,,,,,,,,,,,,,,,,,AFNE12.jpg,AFNE02.jpg,AFSA17.jpg,AFSA16.jpg,AFNE02.jpg,FN,3,num_6,32,num_4,0.60013349168,,,2017_Jul_05_1947,60.0043880516,MAFE4ImagesEEG,001,200489,
AFNE01.JPG,AFNE01.JPG,AFNE01.JPG,AFNE01.JPG,AFNE01.JPG,AFNE01.JPG,,,,,5,4,54,6,,,,,,,,,,,,,,,,,,,AFSA08.jpg,AFNE19.jpg,AFNE15.jpg,AFSA14.jpg,AFSA08.jpg,FS,4,num_8,16,num_8,0.500105843879,,,2017_Jul_05_1947,60.0043880516,MAFE4ImagesEEG,001,200489,
AFNE01.JPG,AFNE01.JPG,AFNE01.JPG,AFNE01.JPG,AFNE01.JPG,AFNE01.JPG,,,,,5,5,55,3,,,,,,,,,,,,,,,,,,,AFSA10.jpg,AFNE03.jpg,AFSA05.jpg,AFNE01.jpg,AFSA05.jpg,FS,4,num_2,32,num_6,0.916721352609,,,2017_Jul_05_1947,60.0043880516,MAFE4ImagesEEG,001,200489,
AFNE01.JPG,AFNE01.JPG,AFNE01.JPG,AFNE01.JPG,AFNE01.JPG,AFNE01.JPG,,,,,5,6,56,4,,,,,,,,,,,,,,,,,,,AFNE13.jpg,AFSA15.jpg,AFSA14.jpg,AFNE03.jpg,AFNE13.jpg,FN,3,num_8,32,num_2,1.00011803198,,,2017_Jul_05_1947,60.0043880516,MAFE4ImagesEEG,001,200489,
AFNE01.JPG,AFNE01.JPG,AFNE01.JPG,AFNE01.JPG,AFNE01.JPG,AFNE01.JPG,,,,,5,7,57,1,,,,,,,,,,,,,,,,,,,AFNE07.jpg,AFSA01.jpg,AFNE01.jpg,AFSA12.jpg,AFSA12.jpg,FS,4,num_4,16,num_4,0.683434269973,,,2017_Jul_05_1947,60.0043880516,MAFE4ImagesEEG,001,200489,
AFNE01.JPG,AFNE01.JPG,AFNE01.JPG,AFNE01.JPG,AFNE01.JPG,AFNE01.JPG,,,,,5,8,58,9,,,,,,,,,,,,,,,,,,,AFSA11.jpg,AFSA20.jpg,AFNE19.jpg,AFNE11.jpg,AFNE19.jpg,FN,3,num_2,32,num_8,0.849842100171,,,2017_Jul_05_1947,60.0043880516,MAFE4ImagesEEG,001,200489,
AFNE01.JPG,AFNE01.JPG,AFNE01.JPG,AFNE01.JPG,AFNE01.JPG,AFNE01.JPG,,,,,5,9,59,8,,,,,,,,,,,,,,,,,,,AFNE09.jpg,AFSA16.jpg,AFSA03.jpg,AFNE18.jpg,AFNE18.jpg,FN,3,num_4,32,num_6,0.166880278965,,,2017_Jul_05_1947,60.0043880516,MAFE4ImagesEEG,001,200489,
,,,,,,,,,,,,,,,,,,,,,,,,,,,,,,,,,,,,,,,,,,,space,20.9487872531,2017_Jul_05_1947,60.0043880516,MAFE4ImagesEEG,001,200489,
AFNE01.JPG,AFNE01.JPG,AFNE01.JPG,AFNE01.JPG,AFNE01.JPG,AFNE01.JPG,,,,,,,,,0,0,0,0,,,,,,,,,,,,,,,AMNE10.jpg,AMNE03.jpg,AMSA17.jpg,AMSA10.jpg,AMNE10.jpg,MN,1,num_8,16,num_8,0.533641692018,,,2017_Jul_05_1947,60.0043880516,MAFE4ImagesEEG,001,200489,
AFNE01.JPG,AFNE01.JPG,AFNE01.JPG,AFNE01.JPG,AFNE01.JPG,AFNE01.JPG,,,,,,,,,0,1,1,1,,,,,,,,,,,,,,,AMSA20.jpg,AMNE06.jpg,AMNE04.jpg,AMSA19.jpg,AMNE04.jpg,MN,1,num_2,16,num_2,0.866780657438,,,2017_Jul_05_1947,60.0043880516,MAFE4ImagesEEG,001,200489,
AFNE01.JPG,AFNE01.JPG,AFNE01.JPG,AFNE01.JPG,AFNE01.JPG,AFNE01.JPG,,,,,,,,,0,2,2,6,,,,,,,,,,,,,,,AMSA19.jpg,AMSA08.jpg,AMNE08.jpg,AMNE09.jpg,AMNE09.jpg,MN,1,num_4,16,num_4,0.66675839806,,,2017_Jul_05_1947,60.0043880516,MAFE4ImagesEEG,001,200489,
AFNE01.JPG,AFNE01.JPG,AFNE01.JPG,AFNE01.JPG,AFNE01.JPG,AFNE01.JPG,,,,,,,,,0,3,3,3,,,,,,,,,,,,,,,AMSA11.jpg,AMNE17.jpg,AMNE18.jpg,AMSA07.jpg,AMNE18.jpg,MN,1,num_2,32,num_8,0.766799837584,,,2017_Jul_05_1947,60.0043880516,MAFE4ImagesEEG,001,200489,
AFNE01.JPG,AFNE01.JPG,AFNE01.JPG,AFNE01.JPG,AFNE01.JPG,AFNE01.JPG,,,,,,,,,0,4,4,7,,,,,,,,,,,,,,,AMNE07.jpg,AMNE03.jpg,AMSA19.jpg,AMSA04.jpg,AMSA19.jpg,MS,2,num_2,16,num_2,0.750147058861,,,2017_Jul_05_1947,60.0043880516,MAFE4ImagesEEG,001,200489,
AFNE01.JPG,AFNE01.JPG,AFNE01.JPG,AFNE01.JPG,AFNE01.JPG,AFNE01.JPG,,,,,,,,,0,5,5,4,,,,,,,,,,,,,,,AMNE04.jpg,AMSA12.jpg,AMNE05.jpg,AMSA04.jpg,AMSA04.jpg,MS,2,num_4,32,num_6,0.716801409144,,,2017_Jul_05_1947,60.0043880516,MAFE4ImagesEEG,001,200489,
AFNE01.JPG,AFNE01.JPG,AFNE01.JPG,AFNE01.JPG,AFNE01.JPG,AFNE01.JPG,,,,,,,,,0,6,6,5,,,,,,,,,,,,,,,AMNE03.jpg,AMSA05.jpg,AMSA10.jpg,AMNE13.jpg,AMNE03.jpg,MN,1,num_8,16,num_8,0.750178812072,,,2017_Jul_05_1947,60.0043880516,MAFE4ImagesEEG,001,200489,
AFNE01.JPG,AFNE01.JPG,AFNE01.JPG,AFNE01.JPG,AFNE01.JPG,AFNE01.JPG,,,,,,,,,0,7,7,8,,,,,,,,,,,,,,,AMNE06.jpg,AMNE10.jpg,AMSA19.jpg,AMSA09.jpg,AMNE10.jpg,MN,1,num_6,32,num_2,0.500220668619,,,2017_Jul_05_1947,60.0043880516,MAFE4ImagesEEG,001,200489,
AFNE01.JPG,AFNE01.JPG,AFNE01.JPG,AFNE01.JPG,AFNE01.JPG,AFNE01.JPG,,,,,,,,,0,8,8,9,,,,,,,,,,,,,,,AMSA02.jpg,AMNE02.jpg,AMSA09.jpg,AMNE15.jpg,AMNE15.jpg,MN,1,num_4,16,num_4,0.733462527045,,,2017_Jul_05_1947,60.0043880516,MAFE4ImagesEEG,001,200489,
AFNE01.JPG,AFNE01.JPG,AFNE01.JPG,AFNE01.JPG,AFNE01.JPG,AFNE01.JPG,,,,,,,,,0,9,9,2,,,,,,,,,,,,,,,AMNE02.jpg,AMSA20.jpg,AMNE09.jpg,AMSA14.jpg,AMSA14.jpg,MS,2,num_4,32,num_6,0.916929512401,,,2017_Jul_05_1947,60.0043880516,MAFE4ImagesEEG,001,200489,
AFNE01.JPG,AFNE01.JPG,AFNE01.JPG,AFNE01.JPG,AFNE01.JPG,AFNE01.JPG,,,,,,,,,1,0,10,4,,,,,,,,,,,,,,,AMSA14.jpg,AMNE05.jpg,AMSA10.jpg,AMNE10.jpg,AMSA14.jpg,MS,2,num_8,32,num_2,1.01676792407,,,2017_Jul_05_1947,60.0043880516,MAFE4ImagesEEG,001,200489,
AFNE01.JPG,AFNE01.JPG,AFNE01.JPG,AFNE01.JPG,AFNE01.JPG,AFNE01.JPG,,,,,,,,,1,1,11,3,,,,,,,,,,,,,,,AMNE16.jpg,AMNE14.jpg,AMSA19.jpg,AMSA20.jpg,AMSA19.jpg,MS,2,num_2,32,num_8,0.850123388343,,,2017_Jul_05_1947,60.0043880516,MAFE4ImagesEEG,001,200489,
AFNE01.JPG,AFNE01.JPG,AFNE01.JPG,AFNE01.JPG,AFNE01.JPG,AFNE01.JPG,,,,,,,,,1,2,12,7,,,,,,,,,,,,,,,AMNE08.jpg,AMSA09.jpg,AMSA14.jpg,AMNE05.jpg,AMNE08.jpg,MN,1,num_8,32,num_4,0.800100263092,,,2017_Jul_05_1947,60.0043880516,MAFE4ImagesEEG,001,200489,
AFNE01.JPG,AFNE01.JPG,AFNE01.JPG,AFNE01.JPG,AFNE01.JPG,AFNE01.JPG,,,,,,,,,1,3,13,0,,,,,,,,,,,,,,,AMSA04.jpg,AMSA12.jpg,AMNE04.jpg,AMNE13.jpg,AMSA04.jpg,MS,2,num_8,32,num_2,0.816979162861,,,2017_Jul_05_1947,60.0043880516,MAFE4ImagesEEG,001,200489,
AFNE01.JPG,AFNE01.JPG,AFNE01.JPG,AFNE01.JPG,AFNE01.JPG,AFNE01.JPG,,,,,,,,,1,4,14,5,,,,,,,,,,,,,,,AMSA07.jpg,AMNE11.jpg,AMSA15.jpg,AMNE05.jpg,AMNE05.jpg,MN,1,num_4,32,num_8,0.750216338551,,,2017_Jul_05_1947,60.0043880516,MAFE4ImagesEEG,001,200489,
AFNE01.JPG,AFNE01.JPG,AFNE01.JPG,AFNE01.JPG,AFNE01.JPG,AFNE01.JPG,,,,,,,,,1,5,15,1,,,,,,,,,,,,,,,AMSA01.jpg,AMNE09.jpg,AMSA03.jpg,AMNE17.jpg,AMNE09.jpg,MN,1,num_6,16,num_6,0.550141798798,,,2017_Jul_05_1947,60.0043880516,MAFE4ImagesEEG,001,200489,
AFNE01.JPG,AFNE01.JPG,AFNE01.JPG,AFNE01.JPG,AFNE01.JPG,AFNE01.JPG,,,,,,,,,1,6,16,6,,,,,,,,,,,,,,,AMSA02.jpg,AMNE14.jpg,AMNE08.jpg,AMSA20.jpg,AMSA20.jpg,MS,2,num_4,32,num_2,0.633513139677,,,2017_Jul_05_1947,60.0043880516,MAFE4ImagesEEG,001,200489,
AFNE01.JPG,AFNE01.JPG,AFNE01.JPG,AFNE01.JPG,AFNE01.JPG,AFNE01.JPG,,,,,,,,,1,7,17,9,,,,,,,,,,,,,,,AMSA01.jpg,AMSA18.jpg,AMNE14.jpg,AMNE07.jpg,AMNE14.jpg,MN,1,num_2,32,num_8,0.850074315211,,,2017_Jul_05_1947,60.0043880516,MAFE4ImagesEEG,001,200489,
AFNE01.JPG,AFNE01.JPG,AFNE01.JPG,AFNE01.JPG,AFNE01.JPG,AFNE01.JPG,,,,,,,,,1,8,18,8,,,,,,,,,,,,,,,AMNE09.jpg,AMSA05.jpg,AMSA15.jpg,AMNE03.jpg,AMSA05.jpg,MS,2,num_6,32,num_2,0.800146449474,,,2017_Jul_05_1947,60.0043880516,MAFE4ImagesEEG,001,200489,
AFNE01.JPG,AFNE01.JPG,AFNE01.JPG,AFNE01.JPG,AFNE01.JPG,AFNE01.JPG,,,,,,,,,1,9,19,2,,,,,,,,,,,,,,,AMNE12.jpg,AMSA17.jpg,AMSA09.jpg,AMNE05.jpg,AMSA09.jpg,MS,2,num_2,32,num_4,0.716779278126,,,2017_Jul_05_1947,60.0043880516,MAFE4ImagesEEG,001,200489,
AFNE01.JPG,AFNE01.JPG,AFNE01.JPG,AFNE01.JPG,AFNE01.JPG,AFNE01.JPG,,,,,,,,,2,0,20,5,,,,,,,,,,,,,,,AMSA08.jpg,AMNE20.jpg,AMSA13.jpg,AMNE18.jpg,AMSA13.jpg,MS,2,num_2,32,num_6,0.316770040896,,,2017_Jul_05_1947,60.0043880516,MAFE4ImagesEEG,001,200489,
AFNE01.JPG,AFNE01.JPG,AFNE01.JPG,AFNE01.JPG,AFNE01.JPG,AFNE01.JPG,,,,,,,,,2,1,21,0,,,,,,,,,,,,,,,AMSA05.jpg,AMSA09.jpg,AMNE20.jpg,AMNE14.jpg,AMNE14.jpg,MN,1,num_4,32,num_8,0.650144108105,,,2017_Jul_05_1947,60.0043880516,MAFE4ImagesEEG,001,200489,
AFNE01.JPG,AFNE01.JPG,AFNE01.JPG,AFNE01.JPG,AFNE01.JPG,AFNE01.JPG,,,,,,,,,2,2,22,7,,,,,,,,,,,,,,,AMSA16.jpg,AMSA03.jpg,AMNE15.jpg,AMNE01.jpg,AMNE01.jpg,MN,1,num_4,32,num_2,0.750100231031,,,2017_Jul_05_1947,60.0043880516,MAFE4ImagesEEG,001,200489,
AFNE01.JPG,AFNE01.JPG,AFNE01.JPG,AFNE01.JPG,AFNE01.JPG,AFNE01.JPG,,,,,,,,,2,3,23,9,,,,,,,,,,,,,,,AMNE07.jpg,AMNE10.jpg,AMSA05.jpg,AMSA13.jpg,AMNE10.jpg,MN,1,num_6,32,num_4,0.966753137996,,,2017_Jul_05_1947,60.0043880516,MAFE4ImagesEEG,001,200489,
AFNE01.JPG,AFNE01.JPG,AFNE01.JPG,AFNE01.JPG,AFNE01.JPG,AFNE01.JPG,,,,,,,,,2,4,24,4,,,,,,,,,,,,,,,AMSA06.jpg,AMNE06.jpg,AMSA19.jpg,AMNE14.jpg,AMNE14.jpg,MN,1,num_4,32,num_8,1.10012515238,,,2017_Jul_05_1947,60.0043880516,MAFE4ImagesEEG,001,200489,
AFNE01.JPG,AFNE01.JPG,AFNE01.JPG,AFNE01.JPG,AFNE01.JPG,AFNE01.JPG,,,,,,,,,2,5,25,1,,,,,,,,,,,,,,,AMSA19.jpg,AMSA02.jpg,AMNE20.jpg,AMNE19.jpg,AMNE19.jpg,MN,1,num_4,32,num_2,1.23347150779,,,2017_Jul_05_1947,60.0043880516,MAFE4ImagesEEG,001,200489,
AFNE01.JPG,AFNE01.JPG,AFNE01.JPG,AFNE01.JPG,AFNE01.JPG,AFNE01.JPG,,,,,,,,,2,6,26,6,,,,,,,,,,,,,,,AMNE20.jpg,AMSA05.jpg,AMNE04.jpg,AMSA17.jpg,AMSA17.jpg,MS,2,num_4,32,num_8,0.883441454498,,,2017_Jul_05_1947,60.0043880516,MAFE4ImagesEEG,001,200489,
AFNE01.JPG,AFNE01.JPG,AFNE01.JPG,AFNE01.JPG,AFNE01.JPG,AFNE01.JPG,,,,,,,,,2,7,27,8,,,,,,,,,,,,,,,AMNE15.jpg,AMSA13.jpg,AMSA09.jpg,AMNE05.jpg,AMNE15.jpg,MN,1,num_8,32,num_6,0.883435360505,,,2017_Jul_05_1947,60.0043880516,MAFE4ImagesEEG,001,200489,
AFNE01.JPG,AFNE01.JPG,AFNE01.JPG,AFNE01.JPG,AFNE01.JPG,AFNE01.JPG,,,,,,,,,2,8,28,3,,,,,,,,,,,,,,,AMSA10.jpg,AMSA05.jpg,AMNE10.jpg,AMNE01.jpg,AMSA05.jpg,MS,2,num_6,32,num_2,0.68319788517,,,2017_Jul_05_1947,60.0043880516,MAFE4ImagesEEG,001,200489,
AFNE01.JPG,AFNE01.JPG,AFNE01.JPG,AFNE01.JPG,AFNE01.JPG,AFNE01.JPG,,,,,,,,,2,9,29,2,,,,,,,,,,,,,,,AMNE04.jpg,AMSA18.jpg,AMNE16.jpg,AMSA08.jpg,AMSA08.jpg,MS,2,num_4,16,num_4,0.733489469159,,,2017_Jul_05_1947,60.0043880516,MAFE4ImagesEEG,001,200489,
AFNE01.JPG,AFNE01.JPG,AFNE01.JPG,AFNE01.JPG,AFNE01.JPG,AFNE01.JPG,,,,,,,,,3,0,30,4,,,,,,,,,,,,,,,AMNE01.jpg,AMSA11.jpg,AMNE20.jpg,AMSA20.jpg,AMSA11.jpg,MS,2,num_6,32,num_8,0.516805771273,,,2017_Jul_05_1947,60.0043880516,MAFE4ImagesEEG,001,200489,
AFNE01.JPG,AFNE01.JPG,AFNE01.JPG,AFNE01.JPG,AFNE01.JPG,AFNE01.JPG,,,,,,,,,3,1,31,2,,,,,,,,,,,,,,,AMSA14.jpg,AMNE20.jpg,AMNE06.jpg,AMSA02.jpg,AMNE06.jpg,MN,1,num_2,16,num_2,0.950075341621,,,2017_Jul_05_1947,60.0043880516,MAFE4ImagesEEG,001,200489,
AFNE01.JPG,AFNE01.JPG,AFNE01.JPG,AFNE01.JPG,AFNE01.JPG,AFNE01.JPG,,,,,,,,,3,2,32,7,,,,,,,,,,,,,,,AMNE05.jpg,AMSA04.jpg,AMSA13.jpg,AMNE20.jpg,AMNE20.jpg,MN,1,num_4,32,num_8,0.983419387718,,,2017_Jul_05_1947,60.0043880516,MAFE4ImagesEEG,001,200489,
AFNE01.JPG,AFNE01.JPG,AFNE01.JPG,AFNE01.JPG,AFNE01.JPG,AFNE01.JPG,,,,,,,,,3,3,33,1,,,,,,,,,,,,,,,AMSA12.jpg,AMNE18.jpg,AMSA15.jpg,AMNE16.jpg,AMSA12.jpg,MS,2,num_8,32,num_2,0.500190198421,,,2017_Jul_05_1947,60.0043880516,MAFE4ImagesEEG,001,200489,
AFNE01.JPG,AFNE01.JPG,AFNE01.JPG,AFNE01.JPG,AFNE01.JPG,AFNE01.JPG,,,,,,,,,3,4,34,6,,,,,,,,,,,,,,,AMNE19.jpg,AMSA06.jpg,AMSA07.jpg,AMNE08.jpg,AMSA07.jpg,MS,2,num_2,32,num_6,0.850131727522,,,2017_Jul_05_1947,60.0043880516,MAFE4ImagesEEG,001,200489,
AFNE01.JPG,AFNE01.JPG,AFNE01.JPG,AFNE01.JPG,AFNE01.JPG,AFNE01.JPG,,,,,,,,,3,5,35,0,,,,,,,,,,,,,,,AMNE11.jpg,AMSA04.jpg,AMSA19.jpg,AMNE09.jpg,AMNE09.jpg,MN,1,num_4,32,num_8,0.616760931909,,,2017_Jul_05_1947,60.0043880516,MAFE4ImagesEEG,001,200489,
AFNE01.JPG,AFNE01.JPG,AFNE01.JPG,AFNE01.JPG,AFNE01.JPG,AFNE01.JPG,,,,,,,,,3,6,36,9,,,,,,,,,,,,,,,AMSA14.jpg,AMSA20.jpg,AMNE17.jpg,AMNE16.jpg,AMSA20.jpg,MS,2,num_6,32,num_2,0.550150137977,,,2017_Jul_05_1947,60.0043880516,MAFE4ImagesEEG,001,200489,
AFNE01.JPG,AFNE01.JPG,AFNE01.JPG,AFNE01.JPG,AFNE01.JPG,AFNE01.JPG,,,,,,,,,3,7,37,5,,,,,,,,,,,,,,,AMNE07.jpg,AMNE05.jpg,AMSA10.jpg,AMSA15.jpg,AMSA15.jpg,MS,2,num_4,16,num_4,0.616760931909,,,2017_Jul_05_1947,60.0043880516,MAFE4ImagesEEG,001,200489,
AFNE01.JPG,AFNE01.JPG,AFNE01.JPG,AFNE01.JPG,AFNE01.JPG,AFNE01.JPG,,,,,,,,,3,8,38,3,,,,,,,,,,,,,,,AMNE01.jpg,AMNE17.jpg,AMSA12.jpg,AMSA06.jpg,AMNE17.jpg,MN,1,num_6,32,num_8,0.649766918854,,,2017_Jul_05_1947,60.0043880516,MAFE4ImagesEEG,001,200489,
AFNE01.JPG,AFNE01.JPG,AFNE01.JPG,AFNE01.JPG,AFNE01.JPG,AFNE01.JPG,,,,,,,,,3,9,39,8,,,,,,,,,,,,,,,AMSA01.jpg,AMNE01.jpg,AMNE18.jpg,AMSA18.jpg,AMNE01.jpg,MN,1,num_6,32,num_2,0.400145872147,,,2017_Jul_05_1947,60.0043880516,MAFE4ImagesEEG,001,200489,
AFNE01.JPG,AFNE01.JPG,AFNE01.JPG,AFNE01.JPG,AFNE01.JPG,AFNE01.JPG,,,,,,,,,4,0,40,4,,,,,,,,,,,,,,,AMSA08.jpg,AMNE18.jpg,AMNE05.jpg,AMSA10.jpg,AMNE18.jpg,MN,1,num_6,16,num_6,0.74968262855,,,2017_Jul_05_1947,60.0043880516,MAFE4ImagesEEG,001,200489,
AFNE01.JPG,AFNE01.JPG,AFNE01.JPG,AFNE01.JPG,AFNE01.JPG,AFNE01.JPG,,,,,,,,,4,1,41,5,,,,,,,,,,,,,,,AMSA14.jpg,AMNE15.jpg,AMNE11.jpg,AMSA07.jpg,AMSA07.jpg,MS,2,num_4,32,num_8,0.616781779914,,,2017_Jul_05_1947,60.0043880516,MAFE4ImagesEEG,001,200489,
AFNE01.JPG,AFNE01.JPG,AFNE01.JPG,AFNE01.JPG,AFNE01.JPG,AFNE01.JPG,,,,,,,,,4,2,42,6,,,,,,,,,,,,,,,AMSA12.jpg,AMSA07.jpg,AMNE04.jpg,AMNE11.jpg,AMSA12.jpg,MS,2,num_8,32,num_4,0.616895963089,,,2017_Jul_05_1947,60.0043880516,MAFE4ImagesEEG,001,200489,
AFNE01.JPG,AFNE01.JPG,AFNE01.JPG,AFNE01.JPG,AFNE01.JPG,AFNE01.JPG,,,,,,,,,4,3,43,0,,,,,,,,,,,,,,,AMSA10.jpg,AMNE04.jpg,AMSA02.jpg,AMNE16.jpg,AMNE04.jpg,MN,1,num_6,32,num_8,0.333450723905,,,2017_Jul_05_1947,60.0043880516,MAFE4ImagesEEG,001,200489,
AFNE01.JPG,AFNE01.JPG,AFNE01.JPG,AFNE01.JPG,AFNE01.JPG,AFNE01.JPG,,,,,,,,,4,4,44,8,,,,,,,,,,,,,,,AMSA13.jpg,AMNE16.jpg,AMNE07.jpg,AMSA04.jpg,AMNE16.jpg,MN,1,num_6,16,num_6,0.550136666978,,,2017_Jul_05_1947,60.0043880516,MAFE4ImagesEEG,001,200489,
AFNE01.JPG,AFNE01.JPG,AFNE01.JPG,AFNE01.JPG,AFNE01.JPG,AFNE01.JPG,,,,,,,,,4,5,45,3,,,,,,,,,,,,,,,AMNE15.jpg,AMNE20.jpg,AMSA11.jpg,AMSA12.jpg,AMNE15.jpg,MN,1,num_8,16,num_8,0.800146449474,,,2017_Jul_05_1947,60.0043880516,MAFE4ImagesEEG,001,200489,
AFNE01.JPG,AFNE01.JPG,AFNE01.JPG,AFNE01.JPG,AFNE01.JPG,AFNE01.JPG,,,,,,,,,4,6,46,2,,,,,,,,,,,,,,,AMSA20.jpg,AMSA11.jpg,AMNE07.jpg,AMNE09.jpg,AMNE07.jpg,MN,1,num_2,32,num_6,0.616767025902,,,2017_Jul_05_1947,60.0043880516,MAFE4ImagesEEG,001,200489,
AFNE01.JPG,AFNE01.JPG,AFNE01.JPG,AFNE01.JPG,AFNE01.JPG,AFNE01.JPG,,,,,,,,,4,7,47,1,,,,,,,,,,,,,,,AMNE12.jpg,AMSA13.jpg,AMNE18.jpg,AMSA10.jpg,AMSA13.jpg,MS,2,num_6,32,num_4,0.683453514357,,,2017_Jul_05_1947,60.0043880516,MAFE4ImagesEEG,001,200489,
AFNE01.JPG,AFNE01.JPG,AFNE01.JPG,AFNE01.JPG,AFNE01.JPG,AFNE01.JPG,,,,,,,,,4,8,48,7,,,,,,,,,,,,,,,AMNE15.jpg,AMSA05.jpg,AMNE10.jpg,AMSA03.jpg,AMNE10.jpg,MN,1,num_2,16,num_2,1.88336736371,,,2017_Jul_05_1947,60.0043880516,MAFE4ImagesEEG,001,200489,
AFNE01.JPG,AFNE01.JPG,AFNE01.JPG,AFNE01.JPG,AFNE01.JPG,AFNE01.JPG,,,,,,,,,4,9,49,9,,,,,,,,,,,,,,,AMSA18.jpg,AMNE16.jpg,AMSA07.jpg,AMNE02.jpg,AMNE16.jpg,MN,1,num_6,16,num_6,0.583503485541,,,2017_Jul_05_1947,60.0043880516,MAFE4ImagesEEG,001,200489,
AFNE01.JPG,AFNE01.JPG,AFNE01.JPG,AFNE01.JPG,AFNE01.JPG,AFNE01.JPG,,,,,,,,,5,0,50,3,,,,,,,,,,,,,,,AMNE08.jpg,AMSA08.jpg,AMNE19.jpg,AMSA17.jpg,AMSA08.jpg,MS,2,num_6,32,num_2,0.350203252397,,,2017_Jul_05_1947,60.0043880516,MAFE4ImagesEEG,001,200489,
AFNE01.JPG,AFNE01.JPG,AFNE01.JPG,AFNE01.JPG,AFNE01.JPG,AFNE01.JPG,,,,,,,,,5,1,51,9,,,,,,,,,,,,,,,AMSA17.jpg,AMSA16.jpg,AMNE14.jpg,AMNE12.jpg,AMSA17.jpg,MS,2,num_8,16,num_8,0.900152607705,,,2017_Jul_05_1947,60.0043880516,MAFE4ImagesEEG,001,200489,
AFNE01.JPG,AFNE01.JPG,AFNE01.JPG,AFNE01.JPG,AFNE01.JPG,AFNE01.JPG,,,,,,,,,5,2,52,8,,,,,,,,,,,,,,,AMNE20.jpg,AMSA05.jpg,AMNE01.jpg,AMSA01.jpg,AMSA01.jpg,MS,2,num_4,32,num_8,4.69980287366,,,2017_Jul_05_1947,60.0043880516,MAFE4ImagesEEG,001,200489,
AFNE01.JPG,AFNE01.JPG,AFNE01.JPG,AFNE01.JPG,AFNE01.JPG,AFNE01.JPG,,,,,,,,,5,3,53,7,,,,,,,,,,,,,,,AMSA08.jpg,AMSA03.jpg,AMNE07.jpg,AMNE05.jpg,AMSA03.jpg,MS,2,num_6,16,num_6,0.433591592475,,,2017_Jul_05_1947,60.0043880516,MAFE4ImagesEEG,001,200489,
AFNE01.JPG,AFNE01.JPG,AFNE01.JPG,AFNE01.JPG,AFNE01.JPG,AFNE01.JPG,,,,,,,,,5,4,54,5,,,,,,,,,,,,,,,AMNE13.jpg,AMSA12.jpg,AMSA14.jpg,AMNE11.jpg,AMSA14.jpg,MS,2,num_2,32,num_8,0.90011059097,,,2017_Jul_05_1947,60.0043880516,MAFE4ImagesEEG,001,200489,
AFNE01.JPG,AFNE01.JPG,AFNE01.JPG,AFNE01.JPG,AFNE01.JPG,AFNE01.JPG,,,,,,,,,5,5,55,4,,,,,,,,,,,,,,,AMSA05.jpg,AMSA09.jpg,AMNE01.jpg,AMNE19.jpg,AMSA05.jpg,MS,2,num_8,32,num_4,0.633470160654,,,2017_Jul_05_1947,60.0043880516,MAFE4ImagesEEG,001,200489,
AFNE01.JPG,AFNE01.JPG,AFNE01.JPG,AFNE01.JPG,AFNE01.JPG,AFNE01.JPG,,,,,,,,,5,6,56,2,,,,,,,,,,,,,,,AMNE06.jpg,AMNE01.jpg,AMSA17.jpg,AMSA20.jpg,AMSA17.jpg,MS,2,num_2,32,num_8,0.816839641309,,,2017_Jul_05_1947,60.0043880516,MAFE4ImagesEEG,001,200489,
AFNE01.JPG,AFNE01.JPG,AFNE01.JPG,AFNE01.JPG,AFNE01.JPG,AFNE01.JPG,,,,,,,,,5,7,57,1,,,,,,,,,,,,,,,AMSA07.jpg,AMSA13.jpg,AMNE06.jpg,AMNE11.jpg,AMSA07.jpg,MS,2,num_8,16,num_8,1.1500466034,,,2017_Jul_05_1947,60.0043880516,MAFE4ImagesEEG,001,200489,
AFNE01.JPG,AFNE01.JPG,AFNE01.JPG,AFNE01.JPG,AFNE01.JPG,AFNE01.JPG,,,,,,,,,5,8,58,0,,,,,,,,,,,,,,,AMNE01.jpg,AMSA09.jpg,AMNE13.jpg,AMSA05.jpg,AMNE01.jpg,MN,1,num_8,32,num_2,2.10006004246,,,2017_Jul_05_1947,60.0043880516,MAFE4ImagesEEG,001,200489,
AFNE01.JPG,AFNE01.JPG,AFNE01.JPG,AFNE01.JPG,AFNE01.JPG,AFNE01.JPG,,,,,,,,,5,9,59,6,,,,,,,,,,,,,,,AMNE12.jpg,AMNE03.jpg,AMSA19.jpg,AMSA04.jpg,AMSA04.jpg,MS,2,num_4,32,num_8,1.08378252853,,,2017_Jul_05_1947,60.0043880516,MAFE4ImagesEEG,001,200489,
,,,,,,,,,,,,,,,,,,,,,,,,,,,,,,,,,,,,,,,,,,,space,6.69963159901,2017_Jul_05_1947,60.0043880516,MAFE4ImagesEEG,001,200489,
AFNE01.JPG,AFNE01.JPG,AFNE01.JPG,AFNE01.JPG,AFNE01.JPG,AFNE01.JPG,,,,,,,,,,,,,0,0,0,7,,,,,,,,,,,AFSA19.jpg,AFNE12.jpg,AFNE17.jpg,AFSA12.jpg,AFSA12.jpg,FS,4,num_4,32,num_6,0.700240682694,,,2017_Jul_05_1947,60.0043880516,MAFE4ImagesEEG,001,200489,
AFNE01.JPG,AFNE01.JPG,AFNE01.JPG,AFNE01.JPG,AFNE01.JPG,AFNE01.JPG,,,,,,,,,,,,,0,1,1,5,,,,,,,,,,,AFNE06.jpg,AFSA03.jpg,AFNE19.jpg,AFSA12.jpg,AFNE06.jpg,FN,3,num_8,32,num_4,0.483521382674,,,2017_Jul_05_1947,60.0043880516,MAFE4ImagesEEG,001,200489,
AFNE01.JPG,AFNE01.JPG,AFNE01.JPG,AFNE01.JPG,AFNE01.JPG,AFNE01.JPG,,,,,,,,,,,,,0,2,2,4,,,,,,,,,,,AFSA01.jpg,AFNE07.jpg,AFNE17.jpg,AFSA16.jpg,AFNE07.jpg,FN,3,num_6,32,num_2,0.783466408029,,,2017_Jul_05_1947,60.0043880516,MAFE4ImagesEEG,001,200489,
AFNE01.JPG,AFNE01.JPG,AFNE01.JPG,AFNE01.JPG,AFNE01.JPG,AFNE01.JPG,,,,,,,,,,,,,0,3,3,1,,,,,,,,,,,AFSA16.jpg,AFNE06.jpg,AFNE05.jpg,AFSA07.jpg,AFNE06.jpg,FN,3,num_6,32,num_8,1.13341242762,,,2017_Jul_05_1947,60.0043880516,MAFE4ImagesEEG,001,200489,
AFNE01.JPG,AFNE01.JPG,AFNE01.JPG,AFNE01.JPG,AFNE01.JPG,AFNE01.JPG,,,,,,,,,,,,,0,4,4,6,,,,,,,,,,,AFNE07.jpg,AFNE06.jpg,AFSA11.jpg,AFSA15.jpg,AFSA15.jpg,FS,4,num_4,16,num_4,0.816787360818,,,2017_Jul_05_1947,60.0043880516,MAFE4ImagesEEG,001,200489,
AFNE01.JPG,AFNE01.JPG,AFNE01.JPG,AFNE01.JPG,AFNE01.JPG,AFNE01.JPG,,,,,,,,,,,,,0,5,5,8,,,,,,,,,,,AFNE20.jpg,AFSA08.jpg,AFNE11.jpg,AFSA10.jpg,AFSA10.jpg,FS,4,num_4,32,num_8,0.700150875724,,,2017_Jul_05_1947,60.0043880516,MAFE4ImagesEEG,001,200489,
AFNE01.JPG,AFNE01.JPG,AFNE01.JPG,AFNE01.JPG,AFNE01.JPG,AFNE01.JPG,,,,,,,,,,,,,0,6,6,2,,,,,,,,,,,AFNE18.jpg,AFSA03.jpg,AFNE19.jpg,AFSA18.jpg,AFSA18.jpg,FS,4,num_4,32,num_6,0.533434494399,,,2017_Jul_05_1947,60.0043880516,MAFE4ImagesEEG,001,200489,
AFNE01.JPG,AFNE01.JPG,AFNE01.JPG,AFNE01.JPG,AFNE01.JPG,AFNE01.JPG,,,,,,,,,,,,,0,7,7,0,,,,,,,,,,,AFSA07.jpg,AFNE13.jpg,AFSA02.jpg,AFNE18.jpg,AFNE13.jpg,FN,3,num_6,32,num_4,0.716786013683,,,2017_Jul_05_1947,60.0043880516,MAFE4ImagesEEG,001,200489,
AFNE01.JPG,AFNE01.JPG,AFNE01.JPG,AFNE01.JPG,AFNE01.JPG,AFNE01.JPG,,,,,,,,,,,,,0,8,8,9,,,,,,,,,,,AFSA16.jpg,AFNE16.jpg,AFSA17.jpg,AFNE20.jpg,AFSA17.jpg,FS,4,num_2,16,num_2,0.783327848651,,,2017_Jul_05_1947,60.0043880516,MAFE4ImagesEEG,001,200489,
AFNE01.JPG,AFNE01.JPG,AFNE01.JPG,AFNE01.JPG,AFNE01.JPG,AFNE01.JPG,,,,,,,,,,,,,0,9,9,3,,,,,,,,,,,AFNE12.jpg,AFNE07.jpg,AFSA09.jpg,AFSA07.jpg,AFSA07.jpg,FS,4,num_4,32,num_8,0.700130669167,,,2017_Jul_05_1947,60.0043880516,MAFE4ImagesEEG,001,200489,
AFNE01.JPG,AFNE01.JPG,AFNE01.JPG,AFNE01.JPG,AFNE01.JPG,AFNE01.JPG,,,,,,,,,,,,,1,0,10,3,,,,,,,,,,,AFNE18.jpg,AFSA07.jpg,AFSA02.jpg,AFNE04.jpg,AFSA02.jpg,FS,4,num_2,32,num_6,0.616772799171,,,2017_Jul_05_1947,60.0043880516,MAFE4ImagesEEG,001,200489,
AFNE01.JPG,AFNE01.JPG,AFNE01.JPG,AFNE01.JPG,AFNE01.JPG,AFNE01.JPG,,,,,,,,,,,,,1,1,11,7,,,,,,,,,,,AFSA14.jpg,AFSA16.jpg,AFNE08.jpg,AFNE06.jpg,AFNE06.jpg,FN,3,num_4,32,num_8,0.816774210543,,,2017_Jul_05_1947,60.0043880516,MAFE4ImagesEEG,001,200489,
AFNE01.JPG,AFNE01.JPG,AFNE01.JPG,AFNE01.JPG,AFNE01.JPG,AFNE01.JPG,,,,,,,,,,,,,1,2,12,6,,,,,,,,,,,AFSA07.jpg,AFNE11.jpg,AFSA10.jpg,AFNE01.jpg,AFNE11.jpg,FN,3,num_6,32,num_4,0.716742393211,,,2017_Jul_05_1947,60.0043880516,MAFE4ImagesEEG,001,200489,
AFNE01.JPG,AFNE01.JPG,AFNE01.JPG,AFNE01.JPG,AFNE01.JPG,AFNE01.JPG,,,,,,,,,,,,,1,3,13,8,,,,,,,,,,,AFNE03.jpg,AFSA14.jpg,AFSA05.jpg,AFNE08.jpg,AFSA05.jpg,FS,4,num_2,16,num_2,0.666782132816,,,2017_Jul_05_1947,60.0043880516,MAFE4ImagesEEG,001,200489,
AFNE01.JPG,AFNE01.JPG,AFNE01.JPG,AFNE01.JPG,AFNE01.JPG,AFNE01.JPG,,,,,,,,,,,,,1,4,14,5,,,,,,,,,,,AFNE20.jpg,AFSA16.jpg,AFNE15.jpg,AFSA09.jpg,AFNE15.jpg,FN,3,num_2,32,num_6,0.633493574685,,,2017_Jul_05_1947,60.0043880516,MAFE4ImagesEEG,001,200489,
AFNE01.JPG,AFNE01.JPG,AFNE01.JPG,AFNE01.JPG,AFNE01.JPG,AFNE01.JPG,,,,,,,,,,,,,1,5,15,4,,,,,,,,,,,AFNE07.jpg,AFSA16.jpg,AFNE10.jpg,AFSA02.jpg,AFSA02.jpg,FS,4,num_4,32,num_8,0.966650501476,,,2017_Jul_05_1947,60.0043880516,MAFE4ImagesEEG,001,200489,
AFNE01.JPG,AFNE01.JPG,AFNE01.JPG,AFNE01.JPG,AFNE01.JPG,AFNE01.JPG,,,,,,,,,,,,,1,6,16,9,,,,,,,,,,,AFSA01.jpg,AFNE10.jpg,AFSA09.jpg,AFNE07.jpg,AFSA01.jpg,FS,4,num_8,32,num_2,0.700089293765,,,2017_Jul_05_1947,60.0043880516,MAFE4ImagesEEG,001,200489,
AFNE01.JPG,AFNE01.JPG,AFNE01.JPG,AFNE01.JPG,AFNE01.JPG,AFNE01.JPG,,,,,,,,,,,,,1,7,17,0,,,,,,,,,,,AFSA04.jpg,AFNE14.jpg,AFSA15.jpg,AFNE08.jpg,AFSA04.jpg,FS,4,num_8,32,num_4,0.850085861981,,,2017_Jul_05_1947,60.0043880516,MAFE4ImagesEEG,001,200489,
AFNE01.JPG,AFNE01.JPG,AFNE01.JPG,AFNE01.JPG,AFNE01.JPG,AFNE01.JPG,,,,,,,,,,,,,1,8,18,2,,,,,,,,,,,AFSA11.jpg,AFNE20.jpg,AFNE17.jpg,AFSA18.jpg,AFSA11.jpg,FS,4,num_8,32,num_6,0.816850225674,,,2017_Jul_05_1947,60.0043880516,MAFE4ImagesEEG,001,200489,
AFNE01.JPG,AFNE01.JPG,AFNE01.JPG,AFNE01.JPG,AFNE01.JPG,AFNE01.JPG,,,,,,,,,,,,,1,9,19,1,,,,,,,,,,,AFNE20.jpg,AFSA17.jpg,AFNE05.jpg,AFSA13.jpg,AFNE05.jpg,FN,3,num_2,32,num_8,0.800121431821,,,2017_Jul_05_1947,60.0043880516,MAFE4ImagesEEG,001,200489,
AFNE01.JPG,AFNE01.JPG,AFNE01.JPG,AFNE01.JPG,AFNE01.JPG,AFNE01.JPG,,,,,,,,,,,,,2,0,20,5,,,,,,,,,,,AFNE01.jpg,AFSA03.jpg,AFSA13.jpg,AFNE14.jpg,AFSA13.jpg,FS,4,num_2,16,num_2,0.916759520653,,,2017_Jul_05_1947,60.0043880516,MAFE4ImagesEEG,001,200489,
AFNE01.JPG,AFNE01.JPG,AFNE01.JPG,AFNE01.JPG,AFNE01.JPG,AFNE01.JPG,,,,,,,,,,,,,2,1,21,1,,,,,,,,,,,AFSA06.jpg,AFNE08.jpg,AFSA18.jpg,AFNE10.jpg,AFSA18.jpg,FS,4,num_2,32,num_4,1.10012098285,,,2017_Jul_05_1947,60.0043880516,MAFE4ImagesEEG,001,200489,
AFNE01.JPG,AFNE01.JPG,AFNE01.JPG,AFNE01.JPG,AFNE01.JPG,AFNE01.JPG,,,,,,,,,,,,,2,2,22,7,,,,,,,,,,,AFNE06.jpg,AFNE10.jpg,AFSA14.jpg,AFSA08.jpg,AFNE06.jpg,FN,3,num_8,16,num_8,0.750543813221,,,2017_Jul_05_1947,60.0043880516,MAFE4ImagesEEG,001,200489,
AFNE01.JPG,AFNE01.JPG,AFNE01.JPG,AFNE01.JPG,AFNE01.JPG,AFNE01.JPG,,,,,,,,,,,,,2,3,23,4,,,,,,,,,,,AFNE15.jpg,AFNE16.jpg,AFSA12.jpg,AFSA07.jpg,AFNE16.jpg,FN,3,num_6,16,num_6,0.616780497017,,,2017_Jul_05_1947,60.0043880516,MAFE4ImagesEEG,001,200489,
AFNE01.JPG,AFNE01.JPG,AFNE01.JPG,AFNE01.JPG,AFNE01.JPG,AFNE01.JPG,,,,,,,,,,,,,2,4,24,3,,,,,,,,,,,AFSA14.jpg,AFNE07.jpg,AFNE17.jpg,AFSA07.jpg,AFSA07.jpg,FS,4,num_4,32,num_2,0.383504960802,,,2017_Jul_05_1947,60.0043880516,MAFE4ImagesEEG,001,200489,
AFNE01.JPG,AFNE01.JPG,AFNE01.JPG,AFNE01.JPG,AFNE01.JPG,AFNE01.JPG,,,,,,,,,,,,,2,5,25,9,,,,,,,,,,,AFSA20.jpg,AFSA12.jpg,AFNE06.jpg,AFNE09.jpg,AFNE09.jpg,FN,3,num_4,32,num_8,0.383574882057,,,2017_Jul_05_1947,60.0043880516,MAFE4ImagesEEG,001,200489,
AFNE01.JPG,AFNE01.JPG,AFNE01.JPG,AFNE01.JPG,AFNE01.JPG,AFNE01.JPG,,,,,,,,,,,,,2,6,26,2,,,,,,,,,,,AFNE13.jpg,AFSA01.jpg,AFNE02.jpg,AFSA12.jpg,AFNE13.jpg,FN,3,num_8,32,num_2,0.433394979453,,,2017_Jul_05_1947,60.0043880516,MAFE4ImagesEEG,001,200489,
AFNE01.JPG,AFNE01.JPG,AFNE01.JPG,AFNE01.JPG,AFNE01.JPG,AFNE01.JPG,,,,,,,,,,,,,2,7,27,8,,,,,,,,,,,AFNE02.jpg,AFNE15.jpg,AFSA05.jpg,AFSA12.jpg,AFNE02.jpg,FN,3,num_8,32,num_4,0.800095131155,,,2017_Jul_05_1947,60.0043880516,MAFE4ImagesEEG,001,200489,
AFNE01.JPG,AFNE01.JPG,AFNE01.JPG,AFNE01.JPG,AFNE01.JPG,AFNE01.JPG,,,,,,,,,,,,,2,8,28,6,,,,,,,,,,,AFSA18.jpg,AFNE05.jpg,AFSA07.jpg,AFNE10.jpg,AFSA07.jpg,FS,4,num_2,32,num_8,0.666764171445,,,2017_Jul_05_1947,60.0043880516,MAFE4ImagesEEG,001,200489,
AFNE01.JPG,AFNE01.JPG,AFNE01.JPG,AFNE01.JPG,AFNE01.JPG,AFNE01.JPG,,,,,,,,,,,,,2,9,29,0,,,,,,,,,,,AFNE09.jpg,AFSA07.jpg,AFSA06.jpg,AFNE06.jpg,AFNE09.jpg,FN,3,num_8,32,num_6,0.600126114674,,,2017_Jul_05_1947,60.0043880516,MAFE4ImagesEEG,001,200489,
AFNE01.JPG,AFNE01.JPG,AFNE01.JPG,AFNE01.JPG,AFNE01.JPG,AFNE01.JPG,,,,,,,,,,,,,3,0,30,4,,,,,,,,,,,AFSA18.jpg,AFNE11.jpg,AFNE07.jpg,AFSA15.jpg,AFNE11.jpg,FN,3,num_6,32,num_2,1.00004458276,,,2017_Jul_05_1947,60.0043880516,MAFE4ImagesEEG,001,200489,
AFNE01.JPG,AFNE01.JPG,AFNE01.JPG,AFNE01.JPG,AFNE01.JPG,AFNE01.JPG,,,,,,,,,,,,,3,1,31,5,,,,,,,,,,,AFNE13.jpg,AFSA20.jpg,AFSA09.jpg,AFNE03.jpg,AFNE03.jpg,FN,3,num_4,48,None,,,,2017_Jul_05_1947,60.0043880516,MAFE4ImagesEEG,001,200489,
AFNE01.JPG,AFNE01.JPG,AFNE01.JPG,AFNE01.JPG,AFNE01.JPG,AFNE01.JPG,,,,,,,,,,,,,3,2,32,2,,,,,,,,,,,AFNE07.jpg,AFSA02.jpg,AFSA20.jpg,AFNE19.jpg,AFSA02.jpg,FS,4,num_6,16,num_6,0.716790824779,,,2017_Jul_05_1947,60.0043880516,MAFE4ImagesEEG,001,200489,
AFNE01.JPG,AFNE01.JPG,AFNE01.JPG,AFNE01.JPG,AFNE01.JPG,AFNE01.JPG,,,,,,,,,,,,,3,3,33,3,,,,,,,,,,,AFSA17.jpg,AFNE12.jpg,AFSA06.jpg,AFNE16.jpg,AFSA06.jpg,FS,4,num_2,32,num_8,0.583449922036,,,2017_Jul_05_1947,60.0043880516,MAFE4ImagesEEG,001,200489,
AFNE01.JPG,AFNE01.JPG,AFNE01.JPG,AFNE01.JPG,AFNE01.JPG,AFNE01.JPG,,,,,,,,,,,,,3,4,34,7,,,,,,,,,,,AFNE20.jpg,AFNE07.jpg,AFSA13.jpg,AFSA07.jpg,AFNE20.jpg,FN,3,num_8,32,num_2,0.616802628036,,,2017_Jul_05_1947,60.0043880516,MAFE4ImagesEEG,001,200489,
AFNE01.JPG,AFNE01.JPG,AFNE01.JPG,AFNE01.JPG,AFNE01.JPG,AFNE01.JPG,,,,,,,,,,,,,3,5,35,0,,,,,,,,,,,AFSA03.jpg,AFSA12.jpg,AFNE07.jpg,AFNE03.jpg,AFNE07.jpg,FN,3,num_2,32,num_4,0.550120629952,,,2017_Jul_05_1947,60.0043880516,MAFE4ImagesEEG,001,200489,
AFNE01.JPG,AFNE01.JPG,AFNE01.JPG,AFNE01.JPG,AFNE01.JPG,AFNE01.JPG,,,,,,,,,,,,,3,6,36,1,,,,,,,,,,,AFNE09.jpg,AFSA19.jpg,AFNE08.jpg,AFSA17.jpg,AFNE08.jpg,FN,3,num_2,32,num_8,1.28344074881,,,2017_Jul_05_1947,60.0043880516,MAFE4ImagesEEG,001,200489,
AFNE01.JPG,AFNE01.JPG,AFNE01.JPG,AFNE01.JPG,AFNE01.JPG,AFNE01.JPG,,,,,,,,,,,,,3,7,37,6,,,,,,,,,,,AFSA05.jpg,AFSA08.jpg,AFNE05.jpg,AFNE14.jpg,AFNE14.jpg,FN,3,num_4,32,num_6,0.666871619062,,,2017_Jul_05_1947,60.0043880516,MAFE4ImagesEEG,001,200489,
AFNE01.JPG,AFNE01.JPG,AFNE01.JPG,AFNE01.JPG,AFNE01.JPG,AFNE01.JPG,,,,,,,,,,,,,3,8,38,8,,,,,,,,,,,AFNE01.jpg,AFNE14.jpg,AFSA13.jpg,AFSA14.jpg,AFSA14.jpg,FS,4,num_4,16,num_4,0.700435692095,,,2017_Jul_05_1947,60.0043880516,MAFE4ImagesEEG,001,200489,
AFNE01.JPG,AFNE01.JPG,AFNE01.JPG,AFNE01.JPG,AFNE01.JPG,AFNE01.JPG,,,,,,,,,,,,,3,9,39,9,,,,,,,,,,,AFNE10.jpg,AFSA18.jpg,AFSA02.jpg,AFNE20.jpg,AFNE20.jpg,FN,3,num_4,32,num_8,0.366821070551,,,2017_Jul_05_1947,60.0043880516,MAFE4ImagesEEG,001,200489,
AFNE01.JPG,AFNE01.JPG,AFNE01.JPG,AFNE01.JPG,AFNE01.JPG,AFNE01.JPG,,,,,,,,,,,,,4,0,40,3,,,,,,,,,,,AFSA20.jpg,AFNE11.jpg,AFNE07.jpg,AFSA13.jpg,AFSA20.jpg,FS,4,num_8,32,num_6,1.13342333271,,,2017_Jul_05_1947,60.0043880516,MAFE4ImagesEEG,001,200489,
AFNE01.JPG,AFNE01.JPG,AFNE01.JPG,AFNE01.JPG,AFNE01.JPG,AFNE01.JPG,,,,,,,,,,,,,4,1,41,2,,,,,,,,,,,AFNE01.jpg,AFNE08.jpg,AFSA11.jpg,AFSA12.jpg,AFSA11.jpg,FS,4,num_2,32,num_4,1.25003993197,,,2017_Jul_05_1947,60.0043880516,MAFE4ImagesEEG,001,200489,
AFNE01.JPG,AFNE01.JPG,AFNE01.JPG,AFNE01.JPG,AFNE01.JPG,AFNE01.JPG,,,,,,,,,,,,,4,2,42,4,,,,,,,,,,,AFNE07.jpg,AFNE18.jpg,AFSA15.jpg,AFSA17.jpg,AFNE18.jpg,FN,3,num_6,32,num_2,0.466795154731,,,2017_Jul_05_1947,60.0043880516,MAFE4ImagesEEG,001,200489,
AFNE01.JPG,AFNE01.JPG,AFNE01.JPG,AFNE01.JPG,AFNE01.JPG,AFNE01.JPG,,,,,,,,,,,,,4,3,43,9,,,,,,,,,,,AFNE10.jpg,AFNE20.jpg,AFSA11.jpg,AFSA16.jpg,AFSA16.jpg,FS,4,num_4,32,num_6,0.766920114751,,,2017_Jul_05_1947,60.0043880516,MAFE4ImagesEEG,001,200489,
AFNE01.JPG,AFNE01.JPG,AFNE01.JPG,AFNE01.JPG,AFNE01.JPG,AFNE01.JPG,,,,,,,,,,,,,4,4,44,6,,,,,,,,,,,AFSA04.jpg,AFNE12.jpg,AFSA20.jpg,AFNE16.jpg,AFSA20.jpg,FS,4,num_2,32,num_8,1.18340347905,,,2017_Jul_05_1947,60.0043880516,MAFE4ImagesEEG,001,200489,
AFNE01.JPG,AFNE01.JPG,AFNE01.JPG,AFNE01.JPG,AFNE01.JPG,AFNE01.JPG,,,,,,,,,,,,,4,5,45,5,,,,,,,,,,,AFSA09.jpg,AFNE02.jpg,AFSA19.jpg,AFNE16.jpg,AFNE16.jpg,FN,3,num_4,32,num_6,1.30009160307,,,2017_Jul_05_1947,60.0043880516,MAFE4ImagesEEG,001,200489,
AFNE01.JPG,AFNE01.JPG,AFNE01.JPG,AFNE01.JPG,AFNE01.JPG,AFNE01.JPG,,,,,,,,,,,,,4,6,46,0,,,,,,,,,,,AFNE06.jpg,AFSA06.jpg,AFNE03.jpg,AFSA11.jpg,AFNE03.jpg,FN,3,num_2,32,num_8,0.966414116556,,,2017_Jul_05_1947,60.0043880516,MAFE4ImagesEEG,001,200489,
AFNE01.JPG,AFNE01.JPG,AFNE01.JPG,AFNE01.JPG,AFNE01.JPG,AFNE01.JPG,,,,,,,,,,,,,4,7,47,8,,,,,,,,,,,AFNE19.jpg,AFSA19.jpg,AFSA15.jpg,AFNE01.jpg,AFSA19.jpg,FS,4,num_6,32,num_4,1.13343231345,,,2017_Jul_05_1947,60.0043880516,MAFE4ImagesEEG,001,200489,
AFNE01.JPG,AFNE01.JPG,AFNE01.JPG,AFNE01.JPG,AFNE01.JPG,AFNE01.JPG,,,,,,,,,,,,,4,8,48,7,,,,,,,,,,,AFSA13.jpg,AFSA03.jpg,AFNE14.jpg,AFNE17.jpg,AFNE14.jpg,FN,3,num_2,32,num_6,0.633489084314,,,2017_Jul_05_1947,60.0043880516,MAFE4ImagesEEG,001,200489,
AFNE01.JPG,AFNE01.JPG,AFNE01.JPG,AFNE01.JPG,AFNE01.JPG,AFNE01.JPG,,,,,,,,,,,,,4,9,49,1,,,,,,,,,,,AFNE02.jpg,AFSA02.jpg,AFSA16.jpg,AFNE03.jpg,AFNE03.jpg,FN,3,num_4,32,num_2,0.566774691688,,,2017_Jul_05_1947,60.0043880516,MAFE4ImagesEEG,001,200489,
AFNE01.JPG,AFNE01.JPG,AFNE01.JPG,AFNE01.JPG,AFNE01.JPG,AFNE01.JPG,,,,,,,,,,,,,5,0,50,7,,,,,,,,,,,AFSA06.jpg,AFNE17.jpg,AFSA10.jpg,AFNE04.jpg,AFNE04.jpg,FN,3,num_4,16,num_4,0.683472758741,,,2017_Jul_05_1947,60.0043880516,MAFE4ImagesEEG,001,200489,
AFNE01.JPG,AFNE01.JPG,AFNE01.JPG,AFNE01.JPG,AFNE01.JPG,AFNE01.JPG,,,,,,,,,,,,,5,1,51,6,,,,,,,,,,,AFNE09.jpg,AFSA05.jpg,AFSA16.jpg,AFNE02.jpg,AFNE09.jpg,FN,3,num_8,32,num_2,1.08347590186,,,2017_Jul_05_1947,60.0043880516,MAFE4ImagesEEG,001,200489,
AFNE01.JPG,AFNE01.JPG,AFNE01.JPG,AFNE01.JPG,AFNE01.JPG,AFNE01.JPG,,,,,,,,,,,,,5,2,52,1,,,,,,,,,,,AFNE02.jpg,AFNE19.jpg,AFSA04.jpg,AFSA13.jpg,AFSA13.jpg,FS,4,num_4,32,num_2,0.866780657438,,,2017_Jul_05_1947,60.0043880516,MAFE4ImagesEEG,001,200489,
AFNE01.JPG,AFNE01.JPG,AFNE01.JPG,AFNE01.JPG,AFNE01.JPG,AFNE01.JPG,,,,,,,,,,,,,5,3,53,8,,,,,,,,,,,AFNE03.jpg,AFNE08.jpg,AFSA12.jpg,AFSA16.jpg,AFNE03.jpg,FN,3,num_8,32,num_2,1.28340610908,,,2017_Jul_05_1947,60.0043880516,MAFE4ImagesEEG,001,200489,
AFNE01.JPG,AFNE01.JPG,AFNE01.JPG,AFNE01.JPG,AFNE01.JPG,AFNE01.JPG,,,,,,,,,,,,,5,4,54,4,,,,,,,,,,,AFNE07.jpg,AFSA10.jpg,AFSA11.jpg,AFNE04.jpg,AFNE07.jpg,FN,3,num_8,16,num_8,1.40006985702,,,2017_Jul_05_1947,60.0043880516,MAFE4ImagesEEG,001,200489,
AFNE01.JPG,AFNE01.JPG,AFNE01.JPG,AFNE01.JPG,AFNE01.JPG,AFNE01.JPG,,,,,,,,,,,,,5,5,55,3,,,,,,,,,,,AFSA04.jpg,AFNE07.jpg,AFNE14.jpg,AFSA16.jpg,AFNE07.jpg,FN,3,num_6,16,num_6,0.800143883564,,,2017_Jul_05_1947,60.0043880516,MAFE4ImagesEEG,001,200489,
AFNE01.JPG,AFNE01.JPG,AFNE01.JPG,AFNE01.JPG,AFNE01.JPG,AFNE01.JPG,,,,,,,,,,,,,5,6,56,2,,,,,,,,,,,AFNE20.jpg,AFSA02.jpg,AFSA08.jpg,AFNE15.jpg,AFNE20.jpg,FN,3,num_8,32,num_2,1.01677594252,,,2017_Jul_05_1947,60.0043880516,MAFE4ImagesEEG,001,200489,
AFNE01.JPG,AFNE01.JPG,AFNE01.JPG,AFNE01.JPG,AFNE01.JPG,AFNE01.JPG,,,,,,,,,,,,,5,7,57,0,,,,,,,,,,,AFSA11.jpg,AFNE03.jpg,AFSA12.jpg,AFNE09.jpg,AFSA12.jpg,FS,4,num_2,32,num_8,0.983387955232,,,2017_Jul_05_1947,60.0043880516,MAFE4ImagesEEG,001,200489,
AFNE01.JPG,AFNE01.JPG,AFNE01.JPG,AFNE01.JPG,AFNE01.JPG,AFNE01.JPG,,,,,,,,,,,,,5,8,58,5,,,,,,,,,,,AFSA18.jpg,AFNE04.jpg,AFSA09.jpg,AFNE14.jpg,AFNE14.jpg,FN,3,num_4,32,num_2,0.650166239124,,,2017_Jul_05_1947,60.0043880516,MAFE4ImagesEEG,001,200489,
AFNE01.JPG,AFNE01.JPG,AFNE01.JPG,AFNE01.JPG,AFNE01.JPG,AFNE01.JPG,,,,,,,,,,,,,5,9,59,9,,,,,,,,,,,AFSA06.jpg,AFSA16.jpg,AFNE15.jpg,AFNE10.jpg,AFNE10.jpg,FN,3,num_4,16,num_4,0.633569268975,,,2017_Jul_05_1947,60.0043880516,MAFE4ImagesEEG,001,200489,
,,,,,,,,,,,,,,,,,,,,,,,,,,,,,,,,,,,,,,,,,,,space,43.2634487546,2017_Jul_05_1947,60.0043880516,MAFE4ImagesEEG,001,200489,
AFNE01.JPG,AFNE01.JPG,AFNE01.JPG,AFNE01.JPG,AFNE01.JPG,AFNE01.JPG,,,,,,,,,,,,,,,,,0,0,0,6,,,,,,,AMNE08.jpg,AMSA11.jpg,AMSA12.jpg,AMNE16.jpg,AMSA11.jpg,MS,2,num_6,32,num_4,3.39997042785,,,2017_Jul_05_1947,60.0043880516,MAFE4ImagesEEG,001,200489,
AFNE01.JPG,AFNE01.JPG,AFNE01.JPG,AFNE01.JPG,AFNE01.JPG,AFNE01.JPG,,,,,,,,,,,,,,,,,0,1,1,8,,,,,,,AMSA14.jpg,AMNE17.jpg,AMNE08.jpg,AMSA12.jpg,AMNE17.jpg,MN,1,num_6,16,num_6,0.633476575487,,,2017_Jul_05_1947,60.0043880516,MAFE4ImagesEEG,001,200489,
AFNE01.JPG,AFNE01.JPG,AFNE01.JPG,AFNE01.JPG,AFNE01.JPG,AFNE01.JPG,,,,,,,,,,,,,,,,,0,2,2,3,,,,,,,AMSA05.jpg,AMNE06.jpg,AMNE20.jpg,AMSA07.jpg,AMNE20.jpg,MN,1,num_2,32,num_6,0.950135319843,,,2017_Jul_05_1947,60.0043880516,MAFE4ImagesEEG,001,200489,
AFNE01.JPG,AFNE01.JPG,AFNE01.JPG,AFNE01.JPG,AFNE01.JPG,AFNE01.JPG,,,,,,,,,,,,,,,,,0,3,3,5,,,,,,,AMNE16.jpg,AMNE10.jpg,AMSA17.jpg,AMSA08.jpg,AMNE10.jpg,MN,1,num_6,32,num_8,0.817116439226,,,2017_Jul_05_1947,60.0043880516,MAFE4ImagesEEG,001,200489,
AFNE01.JPG,AFNE01.JPG,AFNE01.JPG,AFNE01.JPG,AFNE01.JPG,AFNE01.JPG,,,,,,,,,,,,,,,,,0,4,4,4,,,,,,,AMSA16.jpg,AMNE06.jpg,AMSA08.jpg,AMNE19.jpg,AMNE19.jpg,MN,1,num_4,32,num_2,1.90000218106,,,2017_Jul_05_1947,60.0043880516,MAFE4ImagesEEG,001,200489,
AFNE01.JPG,AFNE01.JPG,AFNE01.JPG,AFNE01.JPG,AFNE01.JPG,AFNE01.JPG,,,,,,,,,,,,,,,,,0,5,5,7,,,,,,,AMSA18.jpg,AMNE13.jpg,AMSA01.jpg,AMNE14.jpg,AMNE13.jpg,MN,1,num_6,32,num_8,0.383545053308,,,2017_Jul_05_1947,60.0043880516,MAFE4ImagesEEG,001,200489,
AFNE01.JPG,AFNE01.JPG,AFNE01.JPG,AFNE01.JPG,AFNE01.JPG,AFNE01.JPG,,,,,,,,,,,,,,,,,0,6,6,0,,,,,,,AMNE18.jpg,AMSA16.jpg,AMSA05.jpg,AMNE16.jpg,AMNE16.jpg,MN,1,num_4,32,num_2,0.850140066817,,,2017_Jul_05_1947,60.0043880516,MAFE4ImagesEEG,001,200489,
AFNE01.JPG,AFNE01.JPG,AFNE01.JPG,AFNE01.JPG,AFNE01.JPG,AFNE01.JPG,,,,,,,,,,,,,,,,,0,7,7,9,,,,,,,AMSA14.jpg,AMNE02.jpg,AMSA17.jpg,AMNE04.jpg,AMSA14.jpg,MS,2,num_8,32,num_4,0.366803429904,,,2017_Jul_05_1947,60.0043880516,MAFE4ImagesEEG,001,200489,
AFNE01.JPG,AFNE01.JPG,AFNE01.JPG,AFNE01.JPG,AFNE01.JPG,AFNE01.JPG,,,,,,,,,,,,,,,,,0,8,8,1,,,,,,,AMSA05.jpg,AMNE12.jpg,AMSA14.jpg,AMNE19.jpg,AMNE12.jpg,MN,1,num_6,32,num_8,0.566797464038,,,2017_Jul_05_1947,60.0043880516,MAFE4ImagesEEG,001,200489,
AFNE01.JPG,AFNE01.JPG,AFNE01.JPG,AFNE01.JPG,AFNE01.JPG,AFNE01.JPG,,,,,,,,,,,,,,,,,0,9,9,2,,,,,,,AMNE04.jpg,AMSA09.jpg,AMSA11.jpg,AMNE09.jpg,AMNE04.jpg,MN,1,num_8,32,num_2,0.600127397571,,,2017_Jul_05_1947,60.0043880516,MAFE4ImagesEEG,001,200489,
AFNE01.JPG,AFNE01.JPG,AFNE01.JPG,AFNE01.JPG,AFNE01.JPG,AFNE01.JPG,,,,,,,,,,,,,,,,,1,0,10,5,,,,,,,AMNE08.jpg,AMSA16.jpg,AMNE07.jpg,AMSA02.jpg,AMSA16.jpg,MS,2,num_6,16,num_6,0.750124927843,,,2017_Jul_05_1947,60.0043880516,MAFE4ImagesEEG,001,200489,
AFNE01.JPG,AFNE01.JPG,AFNE01.JPG,AFNE01.JPG,AFNE01.JPG,AFNE01.JPG,,,,,,,,,,,,,,,,,1,1,11,7,,,,,,,AMNE16.jpg,AMNE15.jpg,AMSA07.jpg,AMSA03.jpg,AMSA07.jpg,MS,2,num_2,32,num_8,0.666836337768,,,2017_Jul_05_1947,60.0043880516,MAFE4ImagesEEG,001,200489,
AFNE01.JPG,AFNE01.JPG,AFNE01.JPG,AFNE01.JPG,AFNE01.JPG,AFNE01.JPG,,,,,,,,,,,,,,,,,1,2,12,0,,,,,,,AMNE18.jpg,AMSA10.jpg,AMSA15.jpg,AMNE06.jpg,AMNE06.jpg,MN,1,num_4,32,num_2,0.633372976677,,,2017_Jul_05_1947,60.0043880516,MAFE4ImagesEEG,001,200489,
AFNE01.JPG,AFNE01.JPG,AFNE01.JPG,AFNE01.JPG,AFNE01.JPG,AFNE01.JPG,,,,,,,,,,,,,,,,,1,3,13,3,,,,,,,AMSA13.jpg,AMNE01.jpg,AMNE15.jpg,AMSA19.jpg,AMNE15.jpg,MN,1,num_2,32,num_4,0.816741815885,,,2017_Jul_05_1947,60.0043880516,MAFE4ImagesEEG,001,200489,
AFNE01.JPG,AFNE01.JPG,AFNE01.JPG,AFNE01.JPG,AFNE01.JPG,AFNE01.JPG,,,,,,,,,,,,,,,,,1,4,14,8,,,,,,,AMNE04.jpg,AMNE06.jpg,AMSA17.jpg,AMSA15.jpg,AMNE06.jpg,MN,1,num_6,32,num_8,0.650106902351,,,2017_Jul_05_1947,60.0043880516,MAFE4ImagesEEG,001,200489,
AFNE01.JPG,AFNE01.JPG,AFNE01.JPG,AFNE01.JPG,AFNE01.JPG,AFNE01.JPG,,,,,,,,,,,,,,,,,1,5,15,6,,,,,,,AMNE02.jpg,AMNE16.jpg,AMSA20.jpg,AMSA17.jpg,AMNE16.jpg,MN,1,num_6,32,num_2,0.800109243719,,,2017_Jul_05_1947,60.0043880516,MAFE4ImagesEEG,001,200489,
AFNE01.JPG,AFNE01.JPG,AFNE01.JPG,AFNE01.JPG,AFNE01.JPG,AFNE01.JPG,,,,,,,,,,,,,,,,,1,6,16,1,,,,,,,AMNE10.jpg,AMSA03.jpg,AMSA19.jpg,AMNE15.jpg,AMSA03.jpg,MS,2,num_6,16,num_6,0.899991917307,,,2017_Jul_05_1947,60.0043880516,MAFE4ImagesEEG,001,200489,
AFNE01.JPG,AFNE01.JPG,AFNE01.JPG,AFNE01.JPG,AFNE01.JPG,AFNE01.JPG,,,,,,,,,,,,,,,,,1,7,17,9,,,,,,,AMNE13.jpg,AMNE15.jpg,AMSA03.jpg,AMSA04.jpg,AMNE13.jpg,MN,1,num_8,32,num_4,0.883316687075,,,2017_Jul_05_1947,60.0043880516,MAFE4ImagesEEG,001,200489,
AFNE01.JPG,AFNE01.JPG,AFNE01.JPG,AFNE01.JPG,AFNE01.JPG,AFNE01.JPG,,,,,,,,,,,,,,,,,1,8,18,4,,,,,,,AMSA04.jpg,AMNE12.jpg,AMSA03.jpg,AMNE02.jpg,AMNE02.jpg,MN,1,num_4,32,num_2,0.933452712372,,,2017_Jul_05_1947,60.0043880516,MAFE4ImagesEEG,001,200489,
AFNE01.JPG,AFNE01.JPG,AFNE01.JPG,AFNE01.JPG,AFNE01.JPG,AFNE01.JPG,,,,,,,,,,,,,,,,,1,9,19,2,,,,,,,AMNE10.jpg,AMNE12.jpg,AMSA17.jpg,AMSA02.jpg,AMSA02.jpg,MS,2,num_4,32,num_8,0.650177144329,,,2017_Jul_05_1947,60.0043880516,MAFE4ImagesEEG,001,200489,
AFNE01.JPG,AFNE01.JPG,AFNE01.JPG,AFNE01.JPG,AFNE01.JPG,AFNE01.JPG,,,,,,,,,,,,,,,,,2,0,20,5,,,,,,,AMNE03.jpg,AMSA13.jpg,AMNE19.jpg,AMSA19.jpg,AMSA19.jpg,MS,2,num_4,32,num_2,0.650129995542,,,2017_Jul_05_1947,60.0043880516,MAFE4ImagesEEG,001,200489,
AFNE01.JPG,AFNE01.JPG,AFNE01.JPG,AFNE01.JPG,AFNE01.JPG,AFNE01.JPG,,,,,,,,,,,,,,,,,2,1,21,8,,,,,,,AMSA06.jpg,AMNE11.jpg,AMSA01.jpg,AMNE12.jpg,AMNE12.jpg,MN,1,num_4,32,num_8,0.599838411668,,,2017_Jul_05_1947,60.0043880516,MAFE4ImagesEEG,001,200489,
AFNE01.JPG,AFNE01.JPG,AFNE01.JPG,AFNE01.JPG,AFNE01.JPG,AFNE01.JPG,,,,,,,,,,,,,,,,,2,2,22,9,,,,,,,AMNE15.jpg,AMSA07.jpg,AMSA13.jpg,AMNE12.jpg,AMSA07.jpg,MS,2,num_6,32,num_4,0.683436515159,,,2017_Jul_05_1947,60.0043880516,MAFE4ImagesEEG,001,200489,
AFNE01.JPG,AFNE01.JPG,AFNE01.JPG,AFNE01.JPG,AFNE01.JPG,AFNE01.JPG,,,,,,,,,,,,,,,,,2,3,23,3,,,,,,,AMNE17.jpg,AMNE15.jpg,AMSA17.jpg,AMSA07.jpg,AMNE17.jpg,MN,1,num_8,16,num_8,0.68357571587,,,2017_Jul_05_1947,60.0043880516,MAFE4ImagesEEG,001,200489,
AFNE01.JPG,AFNE01.JPG,AFNE01.JPG,AFNE01.JPG,AFNE01.JPG,AFNE01.JPG,,,,,,,,,,,,,,,,,2,4,24,1,,,,,,,AMNE03.jpg,AMSA06.jpg,AMNE05.jpg,AMSA09.jpg,AMNE05.jpg,MN,1,num_2,16,num_2,0.716663170606,,,2017_Jul_05_1947,60.0043880516,MAFE4ImagesEEG,001,200489,
AFNE01.JPG,AFNE01.JPG,AFNE01.JPG,AFNE01.JPG,AFNE01.JPG,AFNE01.JPG,,,,,,,,,,,,,,,,,2,5,25,6,,,,,,,AMSA18.jpg,AMNE19.jpg,AMSA02.jpg,AMNE01.jpg,AMSA02.jpg,MS,2,num_2,32,num_8,0.916841950733,,,2017_Jul_05_1947,60.0043880516,MAFE4ImagesEEG,001,200489,
AFNE01.JPG,AFNE01.JPG,AFNE01.JPG,AFNE01.JPG,AFNE01.JPG,AFNE01.JPG,,,,,,,,,,,,,,,,,2,6,26,4,,,,,,,AMSA01.jpg,AMNE05.jpg,AMNE16.jpg,AMSA19.jpg,AMNE05.jpg,MN,1,num_6,32,num_2,0.466832039761,,,2017_Jul_05_1947,60.0043880516,MAFE4ImagesEEG,001,200489,
AFNE01.JPG,AFNE01.JPG,AFNE01.JPG,AFNE01.JPG,AFNE01.JPG,AFNE01.JPG,,,,,,,,,,,,,,,,,2,7,27,2,,,,,,,AMNE09.jpg,AMSA19.jpg,AMNE16.jpg,AMSA07.jpg,AMSA19.jpg,MS,2,num_6,16,num_6,0.683600733639,,,2017_Jul_05_1947,60.0043880516,MAFE4ImagesEEG,001,200489,
AFNE01.JPG,AFNE01.JPG,AFNE01.JPG,AFNE01.JPG,AFNE01.JPG,AFNE01.JPG,,,,,,,,,,,,,,,,,2,8,28,0,,,,,,,AMNE05.jpg,AMSA16.jpg,AMSA11.jpg,AMNE12.jpg,AMNE05.jpg,MN,1,num_8,32,num_4,0.833505249466,,,2017_Jul_05_1947,60.0043880516,MAFE4ImagesEEG,001,200489,
AFNE01.JPG,AFNE01.JPG,AFNE01.JPG,AFNE01.JPG,AFNE01.JPG,AFNE01.JPG,,,,,,,,,,,,,,,,,2,9,29,7,,,,,,,AMNE07.jpg,AMSA15.jpg,AMNE09.jpg,AMSA09.jpg,AMNE09.jpg,MN,1,num_2,32,num_8,0.650117486715,,,2017_Jul_05_1947,60.0043880516,MAFE4ImagesEEG,001,200489,
AFNE01.JPG,AFNE01.JPG,AFNE01.JPG,AFNE01.JPG,AFNE01.JPG,AFNE01.JPG,,,,,,,,,,,,,,,,,3,0,30,2,,,,,,,AMNE18.jpg,AMSA01.jpg,AMNE17.jpg,AMSA12.jpg,AMNE18.jpg,MN,1,num_8,32,num_2,0.483480007388,,,2017_Jul_05_1947,60.0043880516,MAFE4ImagesEEG,001,200489,
AFNE01.JPG,AFNE01.JPG,AFNE01.JPG,AFNE01.JPG,AFNE01.JPG,AFNE01.JPG,,,,,,,,,,,,,,,,,3,1,31,8,,,,,,,AMSA02.jpg,AMNE14.jpg,AMSA16.jpg,AMNE08.jpg,AMSA16.jpg,MS,2,num_2,32,num_8,0.566851668991,,,2017_Jul_05_1947,60.0043880516,MAFE4ImagesEEG,001,200489,
AFNE01.JPG,AFNE01.JPG,AFNE01.JPG,AFNE01.JPG,AFNE01.JPG,AFNE01.JPG,,,,,,,,,,,,,,,,,3,2,32,4,,,,,,,AMSA19.jpg,AMNE06.jpg,AMSA03.jpg,AMNE08.jpg,AMNE08.jpg,MN,1,num_4,16,num_4,0.416925022029,,,2017_Jul_05_1947,60.0043880516,MAFE4ImagesEEG,001,200489,
AFNE01.JPG,AFNE01.JPG,AFNE01.JPG,AFNE01.JPG,AFNE01.JPG,AFNE01.JPG,,,,,,,,,,,,,,,,,3,3,33,6,,,,,,,AMSA17.jpg,AMNE02.jpg,AMSA16.jpg,AMNE17.jpg,AMSA17.jpg,MS,2,num_8,32,num_2,1.06662586867,,,2017_Jul_05_1947,60.0043880516,MAFE4ImagesEEG,001,200489,
AFNE01.JPG,AFNE01.JPG,AFNE01.JPG,AFNE01.JPG,AFNE01.JPG,AFNE01.JPG,,,,,,,,,,,,,,,,,3,4,34,7,,,,,,,AMSA01.jpg,AMNE02.jpg,AMSA16.jpg,AMNE19.jpg,AMNE19.jpg,MN,1,num_4,32,num_8,0.96680349391,,,2017_Jul_05_1947,60.0043880516,MAFE4ImagesEEG,001,200489,
AFNE01.JPG,AFNE01.JPG,AFNE01.JPG,AFNE01.JPG,AFNE01.JPG,AFNE01.JPG,,,,,,,,,,,,,,,,,3,5,35,3,,,,,,,AMNE04.jpg,AMSA07.jpg,AMNE13.jpg,AMSA02.jpg,AMNE04.jpg,MN,1,num_8,32,num_2,1.73334770242,,,2017_Jul_05_1947,60.0043880516,MAFE4ImagesEEG,001,200489,
AFNE01.JPG,AFNE01.JPG,AFNE01.JPG,AFNE01.JPG,AFNE01.JPG,AFNE01.JPG,,,,,,,,,,,,,,,,,3,6,36,9,,,,,,,AMSA02.jpg,AMSA04.jpg,AMNE18.jpg,AMNE08.jpg,AMNE08.jpg,MN,1,num_4,32,num_8,0.883420285652,,,2017_Jul_05_1947,60.0043880516,MAFE4ImagesEEG,001,200489,
AFNE01.JPG,AFNE01.JPG,AFNE01.JPG,AFNE01.JPG,AFNE01.JPG,AFNE01.JPG,,,,,,,,,,,,,,,,,3,7,37,0,,,,,,,AMNE14.jpg,AMSA04.jpg,AMNE08.jpg,AMSA09.jpg,AMSA09.jpg,MS,2,num_4,16,num_4,0.733142108656,,,2017_Jul_05_1947,60.0043880516,MAFE4ImagesEEG,001,200489,
AFNE01.JPG,AFNE01.JPG,AFNE01.JPG,AFNE01.JPG,AFNE01.JPG,AFNE01.JPG,,,,,,,,,,,,,,,,,3,8,38,5,,,,,,,AMSA02.jpg,AMNE02.jpg,AMNE09.jpg,AMSA05.jpg,AMSA02.jpg,MS,2,num_8,32,num_2,1.16667853401,,,2017_Jul_05_1947,60.0043880516,MAFE4ImagesEEG,001,200489,
AFNE01.JPG,AFNE01.JPG,AFNE01.JPG,AFNE01.JPG,AFNE01.JPG,AFNE01.JPG,,,,,,,,,,,,,,,,,3,9,39,1,,,,,,,AMNE20.jpg,AMNE07.jpg,AMSA15.jpg,AMSA13.jpg,AMSA15.jpg,MS,2,num_2,32,num_8,1.01676535804,,,2017_Jul_05_1947,60.0043880516,MAFE4ImagesEEG,001,200489,
AFNE01.JPG,AFNE01.JPG,AFNE01.JPG,AFNE01.JPG,AFNE01.JPG,AFNE01.JPG,,,,,,,,,,,,,,,,,4,0,40,2,,,,,,,AMSA03.jpg,AMSA12.jpg,AMNE15.jpg,AMNE10.jpg,AMSA12.jpg,MS,2,num_6,32,num_2,1.01659825305,,,2017_Jul_05_1947,60.0043880516,MAFE4ImagesEEG,001,200489,
AFNE01.JPG,AFNE01.JPG,AFNE01.JPG,AFNE01.JPG,AFNE01.JPG,AFNE01.JPG,,,,,,,,,,,,,,,,,4,1,41,1,,,,,,,AMSA14.jpg,AMNE19.jpg,AMSA04.jpg,AMNE16.jpg,AMSA14.jpg,MS,2,num_8,32,num_6,1.08344158286,,,2017_Jul_05_1947,60.0043880516,MAFE4ImagesEEG,001,200489,
AFNE01.JPG,AFNE01.JPG,AFNE01.JPG,AFNE01.JPG,AFNE01.JPG,AFNE01.JPG,,,,,,,,,,,,,,,,,4,2,42,9,,,,,,,AMSA11.jpg,AMSA06.jpg,AMNE03.jpg,AMNE07.jpg,AMNE07.jpg,MN,1,num_4,16,num_4,0.583479430061,,,2017_Jul_05_1947,60.0043880516,MAFE4ImagesEEG,001,200489,
AFNE01.JPG,AFNE01.JPG,AFNE01.JPG,AFNE01.JPG,AFNE01.JPG,AFNE01.JPG,,,,,,,,,,,,,,,,,4,3,43,8,,,,,,,AMSA16.jpg,AMNE05.jpg,AMSA04.jpg,AMNE17.jpg,AMNE05.jpg,MN,1,num_6,32,num_8,0.850145198638,,,2017_Jul_05_1947,60.0043880516,MAFE4ImagesEEG,001,200489,
AFNE01.JPG,AFNE01.JPG,AFNE01.JPG,AFNE01.JPG,AFNE01.JPG,AFNE01.JPG,,,,,,,,,,,,,,,,,4,4,44,6,,,,,,,AMNE06.jpg,AMSA19.jpg,AMNE09.jpg,AMSA04.jpg,AMNE06.jpg,MN,1,num_8,32,num_2,0.850188177661,,,2017_Jul_05_1947,60.0043880516,MAFE4ImagesEEG,001,200489,
AFNE01.JPG,AFNE01.JPG,AFNE01.JPG,AFNE01.JPG,AFNE01.JPG,AFNE01.JPG,,,,,,,,,,,,,,,,,4,5,45,5,,,,,,,AMNE09.jpg,AMSA13.jpg,AMSA12.jpg,AMNE17.jpg,AMSA13.jpg,MS,2,num_6,32,num_8,0.916747011826,,,2017_Jul_05_1947,60.0043880516,MAFE4ImagesEEG,001,200489,
AFNE01.JPG,AFNE01.JPG,AFNE01.JPG,AFNE01.JPG,AFNE01.JPG,AFNE01.JPG,,,,,,,,,,,,,,,,,4,6,46,3,,,,,,,AMNE07.jpg,AMSA05.jpg,AMNE08.jpg,AMSA16.jpg,AMSA16.jpg,MS,2,num_4,32,num_2,1.10008056974,,,2017_Jul_05_1947,60.0043880516,MAFE4ImagesEEG,001,200489,
AFNE01.JPG,AFNE01.JPG,AFNE01.JPG,AFNE01.JPG,AFNE01.JPG,AFNE01.JPG,,,,,,,,,,,,,,,,,4,7,47,0,,,,,,,AMSA12.jpg,AMNE07.jpg,AMNE08.jpg,AMSA08.jpg,AMNE08.jpg,MN,1,num_2,32,num_6,0.683536906494,,,2017_Jul_05_1947,60.0043880516,MAFE4ImagesEEG,001,200489,
AFNE01.JPG,AFNE01.JPG,AFNE01.JPG,AFNE01.JPG,AFNE01.JPG,AFNE01.JPG,,,,,,,,,,,,,,,,,4,8,48,4,,,,,,,AMSA04.jpg,AMSA15.jpg,AMNE17.jpg,AMNE20.jpg,AMNE20.jpg,MN,1,num_4,32,num_8,0.516876013135,,,2017_Jul_05_1947,60.0043880516,MAFE4ImagesEEG,001,200489,
AFNE01.JPG,AFNE01.JPG,AFNE01.JPG,AFNE01.JPG,AFNE01.JPG,AFNE01.JPG,,,,,,,,,,,,,,,,,4,9,49,7,,,,,,,AMSA13.jpg,AMNE10.jpg,AMNE04.jpg,AMSA16.jpg,AMSA16.jpg,MS,2,num_4,32,num_2,0.583502202528,,,2017_Jul_05_1947,60.0043880516,MAFE4ImagesEEG,001,200489,
AFNE01.JPG,AFNE01.JPG,AFNE01.JPG,AFNE01.JPG,AFNE01.JPG,AFNE01.JPG,,,,,,,,,,,,,,,,,5,0,50,5,,,,,,,AMSA11.jpg,AMNE05.jpg,AMNE07.jpg,AMSA01.jpg,AMNE05.jpg,MN,1,num_6,32,num_8,0.616775685805,,,2017_Jul_05_1947,60.0043880516,MAFE4ImagesEEG,001,200489,
AFNE01.JPG,AFNE01.JPG,AFNE01.JPG,AFNE01.JPG,AFNE01.JPG,AFNE01.JPG,,,,,,,,,,,,,,,,,5,1,51,8,,,,,,,AMNE13.jpg,AMSA09.jpg,AMSA10.jpg,AMNE16.jpg,AMNE16.jpg,MN,1,num_4,32,num_2,0.800121752545,,,2017_Jul_05_1947,60.0043880516,MAFE4ImagesEEG,001,200489,
AFNE01.JPG,AFNE01.JPG,AFNE01.JPG,AFNE01.JPG,AFNE01.JPG,AFNE01.JPG,,,,,,,,,,,,,,,,,5,2,52,0,,,,,,,AMSA09.jpg,AMNE14.jpg,AMSA06.jpg,AMNE08.jpg,AMSA06.jpg,MS,2,num_2,32,num_8,0.716835728264,,,2017_Jul_05_1947,60.0043880516,MAFE4ImagesEEG,001,200489,
AFNE01.JPG,AFNE01.JPG,AFNE01.JPG,AFNE01.JPG,AFNE01.JPG,AFNE01.JPG,,,,,,,,,,,,,,,,,5,3,53,1,,,,,,,AMNE03.jpg,AMSA09.jpg,AMNE19.jpg,AMSA19.jpg,AMNE19.jpg,MN,1,num_2,16,num_2,0.683447099524,,,2017_Jul_05_1947,60.0043880516,MAFE4ImagesEEG,001,200489,
AFNE01.JPG,AFNE01.JPG,AFNE01.JPG,AFNE01.JPG,AFNE01.JPG,AFNE01.JPG,,,,,,,,,,,,,,,,,5,4,54,7,,,,,,,AMNE11.jpg,AMSA18.jpg,AMNE10.jpg,AMSA09.jpg,AMSA09.jpg,MS,2,num_4,16,num_4,0.816818793304,,,2017_Jul_05_1947,60.0043880516,MAFE4ImagesEEG,001,200489,
AFNE01.JPG,AFNE01.JPG,AFNE01.JPG,AFNE01.JPG,AFNE01.JPG,AFNE01.JPG,,,,,,,,,,,,,,,,,5,5,55,6,,,,,,,AMSA15.jpg,AMNE10.jpg,AMSA10.jpg,AMNE01.jpg,AMSA10.jpg,MS,2,num_2,32,num_6,2.41667260032,,,2017_Jul_05_1947,60.0043880516,MAFE4ImagesEEG,001,200489,
AFNE01.JPG,AFNE01.JPG,AFNE01.JPG,AFNE01.JPG,AFNE01.JPG,AFNE01.JPG,,,,,,,,,,,,,,,,,5,6,56,9,,,,,,,AMSA15.jpg,AMNE05.jpg,AMSA07.jpg,AMNE20.jpg,AMNE20.jpg,MN,1,num_4,32,num_8,0.650175861316,,,2017_Jul_05_1947,60.0043880516,MAFE4ImagesEEG,001,200489,
AFNE01.JPG,AFNE01.JPG,AFNE01.JPG,AFNE01.JPG,AFNE01.JPG,AFNE01.JPG,,,,,,,,,,,,,,,,,5,7,57,2,,,,,,,AMNE15.jpg,AMSA13.jpg,AMNE13.jpg,AMSA07.jpg,AMSA13.jpg,MS,2,num_6,32,num_2,0.500131182373,,,2017_Jul_05_1947,60.0043880516,MAFE4ImagesEEG,001,200489,
AFNE01.JPG,AFNE01.JPG,AFNE01.JPG,AFNE01.JPG,AFNE01.JPG,AFNE01.JPG,,,,,,,,,,,,,,,,,5,8,58,4,,,,,,,AMNE04.jpg,AMNE05.jpg,AMSA06.jpg,AMSA12.jpg,AMNE04.jpg,MN,1,num_8,16,num_8,0.483480648836,,,2017_Jul_05_1947,60.0043880516,MAFE4ImagesEEG,001,200489,
AFNE01.JPG,AFNE01.JPG,AFNE01.JPG,AFNE01.JPG,AFNE01.JPG,AFNE01.JPG,,,,,,,,,,,,,,,,,5,9,59,3,,,,,,,AMSA13.jpg,AMNE10.jpg,AMSA12.jpg,AMNE01.jpg,AMSA12.jpg,MS,2,num_2,16,num_2,0.716659321683,,,2017_Jul_05_1947,60.0043880516,MAFE4ImagesEEG,001,200489,
,,,,,,,,,,,,,,,,,,,,,,,,,,,,,,,,,,,,,,,,,,,space,19.132271879,2017_Jul_05_1947,60.0043880516,MAFE4ImagesEEG,001,200489,
AFNE01.JPG,AFNE01.JPG,AFNE01.JPG,AFNE01.JPG,AFNE01.JPG,AFNE01.JPG,,,,,,,,,,,,,,,,,,,,,0,0,0,8,,,AFSA11.jpg,AFNE11.jpg,AFSA01.jpg,AFNE08.jpg,AFNE11.jpg,FN,3,num_6,32,num_8,0.683441646979,,,2017_Jul_05_1947,60.0043880516,MAFE4ImagesEEG,001,200489,
AFNE01.JPG,AFNE01.JPG,AFNE01.JPG,AFNE01.JPG,AFNE01.JPG,AFNE01.JPG,,,,,,,,,,,,,,,,,,,,,0,1,1,7,,,AFSA05.jpg,AFSA19.jpg,AFNE19.jpg,AFNE04.jpg,AFSA19.jpg,FS,4,num_6,32,num_2,0.816817189567,,,2017_Jul_05_1947,60.0043880516,MAFE4ImagesEEG,001,200489,
AFNE01.JPG,AFNE01.JPG,AFNE01.JPG,AFNE01.JPG,AFNE01.JPG,AFNE01.JPG,,,,,,,,,,,,,,,,,,,,,0,2,2,9,,,AFNE01.jpg,AFNE13.jpg,AFSA01.jpg,AFSA09.jpg,AFNE13.jpg,FN,3,num_6,32,num_8,0.700170440832,,,2017_Jul_05_1947,60.0043880516,MAFE4ImagesEEG,001,200489,
AFNE01.JPG,AFNE01.JPG,AFNE01.JPG,AFNE01.JPG,AFNE01.JPG,AFNE01.JPG,,,,,,,,,,,,,,,,,,,,,0,3,3,0,,,AFSA16.jpg,AFSA06.jpg,AFNE08.jpg,AFNE02.jpg,AFNE08.jpg,FN,3,num_2,16,num_2,0.899778946536,,,2017_Jul_05_1947,60.0043880516,MAFE4ImagesEEG,001,200489,
AFNE01.JPG,AFNE01.JPG,AFNE01.JPG,AFNE01.JPG,AFNE01.JPG,AFNE01.JPG,,,,,,,,,,,,,,,,,,,,,0,4,4,1,,,AFSA20.jpg,AFNE14.jpg,AFSA09.jpg,AFNE19.jpg,AFNE14.jpg,FN,3,num_6,16,num_6,0.550179966842,,,2017_Jul_05_1947,60.0043880516,MAFE4ImagesEEG,001,200489,
AFNE01.JPG,AFNE01.JPG,AFNE01.JPG,AFNE01.JPG,AFNE01.JPG,AFNE01.JPG,,,,,,,,,,,,,,,,,,,,,0,5,5,3,,,AFNE14.jpg,AFSA10.jpg,AFNE04.jpg,AFSA01.jpg,AFSA10.jpg,FS,4,num_6,32,num_2,0.600124190212,,,2017_Jul_05_1947,60.0043880516,MAFE4ImagesEEG,001,200489,
AFNE01.JPG,AFNE01.JPG,AFNE01.JPG,AFNE01.JPG,AFNE01.JPG,AFNE01.JPG,,,,,,,,,,,,,,,,,,,,,0,6,6,6,,,AFNE15.jpg,AFNE16.jpg,AFSA15.jpg,AFSA10.jpg,AFNE16.jpg,FN,3,num_6,32,num_8,0.633478499949,,,2017_Jul_05_1947,60.0043880516,MAFE4ImagesEEG,001,200489,
AFNE01.JPG,AFNE01.JPG,AFNE01.JPG,AFNE01.JPG,AFNE01.JPG,AFNE01.JPG,,,,,,,,,,,,,,,,,,,,,0,7,7,2,,,AFNE19.jpg,AFSA08.jpg,AFSA06.jpg,AFNE17.jpg,AFNE17.jpg,FN,3,num_4,32,num_2,0.766823251615,,,2017_Jul_05_1947,60.0043880516,MAFE4ImagesEEG,001,200489,
AFNE01.JPG,AFNE01.JPG,AFNE01.JPG,AFNE01.JPG,AFNE01.JPG,AFNE01.JPG,,,,,,,,,,,,,,,,,,,,,0,8,8,5,,,AFSA02.jpg,AFNE14.jpg,AFNE10.jpg,AFSA19.jpg,AFNE14.jpg,FN,3,num_6,16,num_6,0.28350842488,,,2017_Jul_05_1947,60.0043880516,MAFE4ImagesEEG,001,200489,
AFNE01.JPG,AFNE01.JPG,AFNE01.JPG,AFNE01.JPG,AFNE01.JPG,AFNE01.JPG,,,,,,,,,,,,,,,,,,,,,0,9,9,4,,,AFSA01.jpg,AFSA12.jpg,AFNE09.jpg,AFNE14.jpg,AFSA01.jpg,FS,4,num_8,32,num_2,0.75002132915,,,2017_Jul_05_1947,60.0043880516,MAFE4ImagesEEG,001,200489,
AFNE01.JPG,AFNE01.JPG,AFNE01.JPG,AFNE01.JPG,AFNE01.JPG,AFNE01.JPG,,,,,,,,,,,,,,,,,,,,,1,0,10,0,,,AFSA20.jpg,AFNE04.jpg,AFSA01.jpg,AFNE09.jpg,AFSA20.jpg,FS,4,num_8,16,num_8,0.616776648094,,,2017_Jul_05_1947,60.0043880516,MAFE4ImagesEEG,001,200489,
AFNE01.JPG,AFNE01.JPG,AFNE01.JPG,AFNE01.JPG,AFNE01.JPG,AFNE01.JPG,,,,,,,,,,,,,,,,,,,,,1,1,11,7,,,AFNE20.jpg,AFSA15.jpg,AFNE14.jpg,AFSA01.jpg,AFNE14.jpg,FN,3,num_2,16,num_2,0.700119443354,,,2017_Jul_05_1947,60.0043880516,MAFE4ImagesEEG,001,200489,
AFNE01.JPG,AFNE01.JPG,AFNE01.JPG,AFNE01.JPG,AFNE01.JPG,AFNE01.JPG,,,,,,,,,,,,,,,,,,,,,1,2,12,6,,,AFSA19.jpg,AFNE13.jpg,AFNE08.jpg,AFSA14.jpg,AFSA14.jpg,FS,4,num_4,32,num_8,0.583582387306,,,2017_Jul_05_1947,60.0043880516,MAFE4ImagesEEG,001,200489,
AFNE01.JPG,AFNE01.JPG,AFNE01.JPG,AFNE01.JPG,AFNE01.JPG,AFNE01.JPG,,,,,,,,,,,,,,,,,,,,,1,3,13,3,,,AFNE07.jpg,AFSA05.jpg,AFSA16.jpg,AFNE05.jpg,AFNE07.jpg,FN,3,num_8,32,num_2,0.583465638221,,,2017_Jul_05_1947,60.0043880516,MAFE4ImagesEEG,001,200489,
AFNE01.JPG,AFNE01.JPG,AFNE01.JPG,AFNE01.JPG,AFNE01.JPG,AFNE01.JPG,,,,,,,,,,,,,,,,,,,,,1,4,14,5,,,AFSA05.jpg,AFSA03.jpg,AFNE09.jpg,AFNE17.jpg,AFNE09.jpg,FN,3,num_2,32,num_8,0.699973827577,,,2017_Jul_05_1947,60.0043880516,MAFE4ImagesEEG,001,200489,
AFNE01.JPG,AFNE01.JPG,AFNE01.JPG,AFNE01.JPG,AFNE01.JPG,AFNE01.JPG,,,,,,,,,,,,,,,,,,,,,1,5,15,4,,,AFSA13.jpg,AFNE09.jpg,AFSA04.jpg,AFNE08.jpg,AFNE08.jpg,FN,3,num_4,32,num_2,1.39975392888,,,2017_Jul_05_1947,60.0043880516,MAFE4ImagesEEG,001,200489,
AFNE01.JPG,AFNE01.JPG,AFNE01.JPG,AFNE01.JPG,AFNE01.JPG,AFNE01.JPG,,,,,,,,,,,,,,,,,,,,,1,6,16,8,,,AFNE07.jpg,AFNE17.jpg,AFSA17.jpg,AFSA08.jpg,AFNE17.jpg,FN,3,num_6,32,num_8,0.733595633763,,,2017_Jul_05_1947,60.0043880516,MAFE4ImagesEEG,001,200489,
AFNE01.JPG,AFNE01.JPG,AFNE01.JPG,AFNE01.JPG,AFNE01.JPG,AFNE01.JPG,,,,,,,,,,,,,,,,,,,,,1,7,17,2,,,AFNE17.jpg,AFSA05.jpg,AFNE02.jpg,AFSA20.jpg,AFNE17.jpg,FN,3,num_8,32,num_2,0.716792107676,,,2017_Jul_05_1947,60.0043880516,MAFE4ImagesEEG,001,200489,
AFNE01.JPG,AFNE01.JPG,AFNE01.JPG,AFNE01.JPG,AFNE01.JPG,AFNE01.JPG,,,,,,,,,,,,,,,,,,,,,1,8,18,9,,,AFSA04.jpg,AFNE01.jpg,AFSA17.jpg,AFNE02.jpg,AFNE01.jpg,FN,3,num_6,32,num_8,0.516839769552,,,2017_Jul_05_1947,60.0043880516,MAFE4ImagesEEG,001,200489,
AFNE01.JPG,AFNE01.JPG,AFNE01.JPG,AFNE01.JPG,AFNE01.JPG,AFNE01.JPG,,,,,,,,,,,,,,,,,,,,,1,9,19,1,,,AFSA13.jpg,AFNE03.jpg,AFNE04.jpg,AFSA06.jpg,AFNE04.jpg,FN,3,num_2,32,num_4,0.466765967547,,,2017_Jul_05_1947,60.0043880516,MAFE4ImagesEEG,001,200489,
AFNE01.JPG,AFNE01.JPG,AFNE01.JPG,AFNE01.JPG,AFNE01.JPG,AFNE01.JPG,,,,,,,,,,,,,,,,,,,,,2,0,20,5,,,AFSA13.jpg,AFNE11.jpg,AFNE09.jpg,AFSA20.jpg,AFNE11.jpg,FN,3,num_6,32,num_2,0.450207165442,,,2017_Jul_05_1947,60.0043880516,MAFE4ImagesEEG,001,200489,
AFNE01.JPG,AFNE01.JPG,AFNE01.JPG,AFNE01.JPG,AFNE01.JPG,AFNE01.JPG,,,,,,,,,,,,,,,,,,,,,2,1,21,8,,,AFSA06.jpg,AFNE08.jpg,AFSA17.jpg,AFNE20.jpg,AFNE20.jpg,FN,3,num_4,32,num_8,0.766774819931,,,2017_Jul_05_1947,60.0043880516,MAFE4ImagesEEG,001,200489,
AFNE01.JPG,AFNE01.JPG,AFNE01.JPG,AFNE01.JPG,AFNE01.JPG,AFNE01.JPG,,,,,,,,,,,,,,,,,,,,,2,2,22,9,,,AFSA05.jpg,AFSA15.jpg,AFNE16.jpg,AFNE09.jpg,AFSA15.jpg,FS,4,num_6,16,num_6,0.700250946335,,,2017_Jul_05_1947,60.0043880516,MAFE4ImagesEEG,001,200489,
AFNE01.JPG,AFNE01.JPG,AFNE01.JPG,AFNE01.JPG,AFNE01.JPG,AFNE01.JPG,,,,,,,,,,,,,,,,,,,,,2,3,23,3,,,AFSA07.jpg,AFSA09.jpg,AFNE06.jpg,AFNE07.jpg,AFNE06.jpg,FN,3,num_2,32,num_8,0.883444982697,,,2017_Jul_05_1947,60.0043880516,MAFE4ImagesEEG,001,200489,
AFNE01.JPG,AFNE01.JPG,AFNE01.JPG,AFNE01.JPG,AFNE01.JPG,AFNE01.JPG,,,,,,,,,,,,,,,,,,,,,2,4,24,0,,,AFNE07.jpg,AFSA04.jpg,AFNE06.jpg,AFSA14.jpg,AFSA14.jpg,FS,4,num_4,32,num_2,0.516801280901,,,2017_Jul_05_1947,60.0043880516,MAFE4ImagesEEG,001,200489,
AFNE01.JPG,AFNE01.JPG,AFNE01.JPG,AFNE01.JPG,AFNE01.JPG,AFNE01.JPG,,,,,,,,,,,,,,,,,,,,,2,5,25,1,,,AFNE05.jpg,AFNE07.jpg,AFSA04.jpg,AFSA16.jpg,AFSA04.jpg,FS,4,num_2,32,num_4,0.500162614742,,,2017_Jul_05_1947,60.0043880516,MAFE4ImagesEEG,001,200489,
AFNE01.JPG,AFNE01.JPG,AFNE01.JPG,AFNE01.JPG,AFNE01.JPG,AFNE01.JPG,,,,,,,,,,,,,,,,,,,,,2,6,26,6,,,AFSA12.jpg,AFNE19.jpg,AFSA04.jpg,AFNE10.jpg,AFNE10.jpg,FN,3,num_4,32,num_2,0.45001568424,,,2017_Jul_05_1947,60.0043880516,MAFE4ImagesEEG,001,200489,
AFNE01.JPG,AFNE01.JPG,AFNE01.JPG,AFNE01.JPG,AFNE01.JPG,AFNE01.JPG,,,,,,,,,,,,,,,,,,,,,2,7,27,2,,,AFSA14.jpg,AFNE13.jpg,AFNE06.jpg,AFSA12.jpg,AFSA12.jpg,FS,4,num_4,32,num_2,0.866445164196,,,2017_Jul_05_1947,60.0043880516,MAFE4ImagesEEG,001,200489,
AFNE01.JPG,AFNE01.JPG,AFNE01.JPG,AFNE01.JPG,AFNE01.JPG,AFNE01.JPG,,,,,,,,,,,,,,,,,,,,,2,8,28,7,,,AFSA20.jpg,AFNE04.jpg,AFNE19.jpg,AFSA09.jpg,AFNE04.jpg,FN,3,num_6,32,num_2,1.0167281524,,,2017_Jul_05_1947,60.0043880516,MAFE4ImagesEEG,001,200489,
AFNE01.JPG,AFNE01.JPG,AFNE01.JPG,AFNE01.JPG,AFNE01.JPG,AFNE01.JPG,,,,,,,,,,,,,,,,,,,,,2,9,29,4,,,AFNE06.jpg,AFSA15.jpg,AFNE18.jpg,AFSA12.jpg,AFSA12.jpg,FS,4,num_4,32,num_2,1.11677247845,,,2017_Jul_05_1947,60.0043880516,MAFE4ImagesEEG,001,200489,
AFNE01.JPG,AFNE01.JPG,AFNE01.JPG,AFNE01.JPG,AFNE01.JPG,AFNE01.JPG,,,,,,,,,,,,,,,,,,,,,3,0,30,2,,,AFNE18.jpg,AFSA17.jpg,AFNE05.jpg,AFSA02.jpg,AFSA02.jpg,FS,4,num_4,32,num_8,1.13340056024,,,2017_Jul_05_1947,60.0043880516,MAFE4ImagesEEG,001,200489,
AFNE01.JPG,AFNE01.JPG,AFNE01.JPG,AFNE01.JPG,AFNE01.JPG,AFNE01.JPG,,,,,,,,,,,,,,,,,,,,,3,1,31,3,,,AFSA09.jpg,AFSA04.jpg,AFNE03.jpg,AFNE19.jpg,AFSA09.jpg,FS,4,num_8,32,num_4,1.33343757351,,,2017_Jul_05_1947,60.0043880516,MAFE4ImagesEEG,001,200489,
AFNE01.JPG,AFNE01.JPG,AFNE01.JPG,AFNE01.JPG,AFNE01.JPG,AFNE01.JPG,,,,,,,,,,,,,,,,,,,,,3,2,32,6,,,AFSA14.jpg,AFNE20.jpg,AFSA20.jpg,AFNE10.jpg,AFSA14.jpg,FS,4,num_8,16,num_8,1.26673280308,,,2017_Jul_05_1947,60.0043880516,MAFE4ImagesEEG,001,200489,
AFNE01.JPG,AFNE01.JPG,AFNE01.JPG,AFNE01.JPG,AFNE01.JPG,AFNE01.JPG,,,,,,,,,,,,,,,,,,,,,3,3,33,0,,,AFNE08.jpg,AFSA18.jpg,AFSA17.jpg,AFNE16.jpg,AFNE16.jpg,FN,3,num_4,32,num_6,0.316847659764,,,2017_Jul_05_1947,60.0043880516,MAFE4ImagesEEG,001,200489,
AFNE01.JPG,AFNE01.JPG,AFNE01.JPG,AFNE01.JPG,AFNE01.JPG,AFNE01.JPG,,,,,,,,,,,,,,,,,,,,,3,4,34,8,,,AFNE07.jpg,AFSA16.jpg,AFNE01.jpg,AFSA01.jpg,AFSA01.jpg,FS,4,num_4,32,num_2,0.350004073349,,,2017_Jul_05_1947,60.0043880516,MAFE4ImagesEEG,001,200489,
AFNE01.JPG,AFNE01.JPG,AFNE01.JPG,AFNE01.JPG,AFNE01.JPG,AFNE01.JPG,,,,,,,,,,,,,,,,,,,,,3,5,35,4,,,AFSA09.jpg,AFSA02.jpg,AFNE06.jpg,AFNE08.jpg,AFNE06.jpg,FN,3,num_2,32,num_8,0.733429170214,,,2017_Jul_05_1947,60.0043880516,MAFE4ImagesEEG,001,200489,
AFNE01.JPG,AFNE01.JPG,AFNE01.JPG,AFNE01.JPG,AFNE01.JPG,AFNE01.JPG,,,,,,,,,,,,,,,,,,,,,3,6,36,9,,,AFSA07.jpg,AFNE13.jpg,AFNE03.jpg,AFSA13.jpg,AFNE03.jpg,FN,3,num_2,32,num_4,0.650112996344,,,2017_Jul_05_1947,60.0043880516,MAFE4ImagesEEG,001,200489,
AFNE01.JPG,AFNE01.JPG,AFNE01.JPG,AFNE01.JPG,AFNE01.JPG,AFNE01.JPG,,,,,,,,,,,,,,,,,,,,,3,7,37,1,,,AFNE15.jpg,AFNE09.jpg,AFSA17.jpg,AFSA05.jpg,AFNE15.jpg,FN,3,num_8,16,num_8,0.566814142629,,,2017_Jul_05_1947,60.0043880516,MAFE4ImagesEEG,001,200489,
AFNE01.JPG,AFNE01.JPG,AFNE01.JPG,AFNE01.JPG,AFNE01.JPG,AFNE01.JPG,,,,,,,,,,,,,,,,,,,,,3,8,38,5,,,AFNE18.jpg,AFSA04.jpg,AFNE17.jpg,AFSA17.jpg,AFNE17.jpg,FN,3,num_2,16,num_2,0.733424359118,,,2017_Jul_05_1947,60.0043880516,MAFE4ImagesEEG,001,200489,
