IPosition2,IPosition3,IPosition1,IPosition6,IPosition4,IPosition5,TrialsF1.thisRepN,TrialsF1.thisTrialN,TrialsF1.thisN,TrialsF1.thisIndex,TrialsM1.thisRepN,TrialsM1.thisTrialN,TrialsM1.thisN,TrialsM1.thisIndex,TrialsF2.thisRepN,TrialsF2.thisTrialN,TrialsF2.thisN,TrialsF2.thisIndex,TrialsM2.thisRepN,TrialsM2.thisTrialN,TrialsM2.thisN,TrialsM2.thisIndex,TrialsF3.thisRepN,TrialsF3.thisTrialN,TrialsF3.thisN,TrialsF3.thisIndex,TrialsM3.thisRepN,TrialsM3.thisTrialN,TrialsM3.thisN,TrialsM3.thisIndex,InstrKey_resp.keys,InstrKey_resp.rt,Image0 _Position,Image1 _Position,Image2 _Position,Image3 _Position,Center_image,condition,code,correct_answer,accuracy,Key_Resp.keys,Key_Resp.rt,BreakKey_resp.keys,BreakKey_resp.rt,date,frameRate,expName,session,participant,
,,,,,,,,,,,,,,,,,,,,,,,,,,,,,,space,9.06628475094,,,,,,,,,,,,,,2017_May_26_1130,60.0034449225,FEMA4ImagesEEG,001,200510,
AFSA21.JPG,AFNE22.JPG,AFNE21.JPG,AFSA23.JPG,AFSA22.JPG,AFNE23.JPG,0,0,0,0,,,,,,,,,,,,,,,,,,,,,,,AFSA19.jpg,AFNE08.jpg,AFSA17.jpg,AFNE20.jpg,AFSA19.jpg,FS,4,num_8,32,num_4,1.01680452598,,,2017_May_26_1130,60.0034449225,FEMA4ImagesEEG,001,200510,
AFNE23.JPG,AFNE24.JPG,AFNE22.JPG,AFSA24.JPG,AFSA22.JPG,AFSA23.JPG,0,1,1,8,,,,,,,,,,,,,,,,,,,,,,,AFNE04.jpg,AFNE12.jpg,AFSA08.jpg,AFSA09.jpg,AFSA09.jpg,FS,4,num_4,32,num_6,0.568802398862,,,2017_May_26_1130,60.0034449225,FEMA4ImagesEEG,001,200510,
AFSA25.JPG,AFNE24.JPG,AFSA24.JPG,AFNE21.JPG,AFSA21.JPG,AFNE25.JPG,0,2,2,2,,,,,,,,,,,,,,,,,,,,,,,AFSA02.jpg,AFSA15.jpg,AFNE13.jpg,AFNE12.jpg,AFNE12.jpg,FN,3,num_4,16,num_4,0.650092004216,,,2017_May_26_1130,60.0034449225,FEMA4ImagesEEG,001,200510,
AMNE23.JPG,AMNE24.JPG,AMNE22.JPG,AMSA24.JPG,AMSA22.JPG,AMSA23.JPG,0,3,3,9,,,,,,,,,,,,,,,,,,,,,,,AFSA05.jpg,AFSA03.jpg,AFNE14.jpg,AFNE01.jpg,AFNE01.jpg,FN,3,num_4,32,num_2,2.01666981529,,,2017_May_26_1130,60.0034449225,FEMA4ImagesEEG,001,200510,
AMSA21.JPG,AMNE22.JPG,AMNE21.JPG,AMSA23.JPG,AMSA22.JPG,AMNE23.JPG,0,4,4,1,,,,,,,,,,,,,,,,,,,,,,,AFNE02.jpg,AFSA19.jpg,AFNE17.jpg,AFSA13.jpg,AFNE02.jpg,FN,3,num_8,32,num_4,1.10009202024,,,2017_May_26_1130,60.0034449225,FEMA4ImagesEEG,001,200510,
AMSA25.JPG,AMNE24.JPG,AMSA24.JPG,AMNE26.JPG,AMSA21.JPG,AMNE25.JPG,0,5,5,3,,,,,,,,,,,,,,,,,,,,,,,AFSA17.jpg,AFNE17.jpg,AFSA10.jpg,AFNE10.jpg,AFNE17.jpg,FN,3,num_6,32,num_8,0.800129643059,,,2017_May_26_1130,60.0034449225,FEMA4ImagesEEG,001,200510,
AFSA21.JPG,AFNE23.JPG,AFNE21.JPG,AFSA25.JPG,AFNE25.JPG,AFSA23.JPG,0,6,6,4,,,,,,,,,,,,,,,,,,,,,,,AFNE07.jpg,AFNE16.jpg,AFSA04.jpg,AFSA06.jpg,AFNE16.jpg,FN,3,num_6,16,num_6,0.483484300203,,,2017_May_26_1130,60.0034449225,FEMA4ImagesEEG,001,200510,
AFNE22.JPG,AFSA24.JPG,AFSA22.JPG,AFNE25.JPG,AFNE24.JPG,AFSA25.JPG,0,7,7,6,,,,,,,,,,,,,,,,,,,,,,,AFNE12.jpg,AFSA06.jpg,AFSA17.jpg,AFNE13.jpg,AFNE13.jpg,FN,3,num_4,32,num_8,0.700147957308,,,2017_May_26_1130,60.0034449225,FEMA4ImagesEEG,001,200510,
AMSA21.JPG,AMNE23.JPG,AMNE21.JPG,AMSA25.JPG,AMNE25.JPG,AMSA23.JPG,0,8,8,5,,,,,,,,,,,,,,,,,,,,,,,AFSA06.jpg,AFNE08.jpg,AFSA15.jpg,AFNE11.jpg,AFSA15.jpg,FS,4,num_2,32,num_6,0.833472801838,,,2017_May_26_1130,60.0034449225,FEMA4ImagesEEG,001,200510,
AMNE22.JPG,AMSA24.JPG,AMSA22.JPG,AMNE25.JPG,AMNE24.JPG,AMSA25.JPG,0,9,9,7,,,,,,,,,,,,,,,,,,,,,,,AFSA06.jpg,AFNE15.jpg,AFSA15.jpg,AFNE10.jpg,AFSA06.jpg,FS,4,num_8,16,num_8,0.816821268643,,,2017_May_26_1130,60.0034449225,FEMA4ImagesEEG,001,200510,
AFNE22.JPG,AFSA24.JPG,AFSA22.JPG,AFNE25.JPG,AFNE24.JPG,AFSA25.JPG,,,,,0,0,0,6,,,,,,,,,,,,,,,,,,,AMSA01.jpg,AMSA14.jpg,AMNE13.jpg,AMNE08.jpg,AMNE08.jpg,MN,1,num_4,32,num_2,0.983458480681,,,2017_May_26_1130,60.0034449225,FEMA4ImagesEEG,001,200510,
AMNE22.JPG,AMSA24.JPG,AMSA22.JPG,AMNE25.JPG,AMNE24.JPG,AMSA25.JPG,,,,,0,1,1,7,,,,,,,,,,,,,,,,,,,AMSA08.jpg,AMSA10.jpg,AMNE19.jpg,AMNE20.jpg,AMSA08.jpg,MS,2,num_8,32,num_6,0.850168917677,,,2017_May_26_1130,60.0034449225,FEMA4ImagesEEG,001,200510,
AMSA21.JPG,AMNE23.JPG,AMNE21.JPG,AMSA25.JPG,AMNE25.JPG,AMSA23.JPG,,,,,0,2,2,5,,,,,,,,,,,,,,,,,,,AMNE19.jpg,AMSA07.jpg,AMNE02.jpg,AMSA15.jpg,AMSA07.jpg,MS,2,num_6,32,num_4,1.05008802714,,,2017_May_26_1130,60.0034449225,FEMA4ImagesEEG,001,200510,
AFSA25.JPG,AFNE24.JPG,AFSA24.JPG,AFNE21.JPG,AFSA21.JPG,AFNE25.JPG,,,,,0,3,3,2,,,,,,,,,,,,,,,,,,,AMNE09.jpg,AMSA10.jpg,AMNE12.jpg,AMSA09.jpg,AMSA10.jpg,MS,2,num_6,32,num_8,1.05011849734,,,2017_May_26_1130,60.0034449225,FEMA4ImagesEEG,001,200510,
AMNE23.JPG,AMNE24.JPG,AMNE22.JPG,AMSA24.JPG,AMSA22.JPG,AMSA23.JPG,,,,,0,4,4,9,,,,,,,,,,,,,,,,,,,AMNE15.jpg,AMNE20.jpg,AMSA09.jpg,AMSA14.jpg,AMSA14.jpg,MS,2,num_4,16,num_4,1.11677402363,,,2017_May_26_1130,60.0034449225,FEMA4ImagesEEG,001,200510,
AMSA25.JPG,AMNE24.JPG,AMSA24.JPG,AMNE26.JPG,AMSA21.JPG,AMNE25.JPG,,,,,0,5,5,3,,,,,,,,,,,,,,,,,,,AMSA14.jpg,AMSA04.jpg,AMNE12.jpg,AMNE03.jpg,AMNE03.jpg,MN,1,num_4,32,num_2,1.35009081755,,,2017_May_26_1130,60.0034449225,FEMA4ImagesEEG,001,200510,
AMSA21.JPG,AMNE22.JPG,AMNE21.JPG,AMSA23.JPG,AMSA22.JPG,AMNE23.JPG,,,,,0,6,6,1,,,,,,,,,,,,,,,,,,,AMNE15.jpg,AMSA09.jpg,AMNE02.jpg,AMSA20.jpg,AMSA20.jpg,MS,2,num_4,32,num_6,0.950131359044,,,2017_May_26_1130,60.0034449225,FEMA4ImagesEEG,001,200510,
AFNE23.JPG,AFNE24.JPG,AFNE22.JPG,AFSA24.JPG,AFSA22.JPG,AFSA23.JPG,,,,,0,7,7,8,,,,,,,,,,,,,,,,,,,AMSA04.jpg,AMNE04.jpg,AMSA07.jpg,AMNE19.jpg,AMNE04.jpg,MN,1,num_6,32,num_8,0.933456732775,,,2017_May_26_1130,60.0034449225,FEMA4ImagesEEG,001,200510,
AFSA21.JPG,AFNE22.JPG,AFNE21.JPG,AFSA23.JPG,AFSA22.JPG,AFNE23.JPG,,,,,0,8,8,0,,,,,,,,,,,,,,,,,,,AMSA03.jpg,AMNE01.jpg,AMNE13.jpg,AMSA13.jpg,AMNE13.jpg,MN,1,num_2,16,num_2,1.05008674413,,,2017_May_26_1130,60.0034449225,FEMA4ImagesEEG,001,200510,
AFSA21.JPG,AFNE23.JPG,AFNE21.JPG,AFSA25.JPG,AFNE25.JPG,AFSA23.JPG,,,,,0,9,9,4,,,,,,,,,,,,,,,,,,,AMSA13.jpg,AMNE20.jpg,AMSA08.jpg,AMNE06.jpg,AMSA08.jpg,MS,2,num_2,16,num_2,0.900100423605,,,2017_May_26_1130,60.0034449225,FEMA4ImagesEEG,001,200510,
AMSA21.JPG,AMNE22.JPG,AMNE21.JPG,AMSA23.JPG,AMSA22.JPG,AMNE23.JPG,,,,,,,,,0,0,0,1,,,,,,,,,,,,,,,AFNE14.jpg,AFSA14.jpg,AFNE16.jpg,AFSA01.jpg,AFSA01.jpg,FS,4,num_4,32,num_2,0.750135913608,,,2017_May_26_1130,60.0034449225,FEMA4ImagesEEG,001,200510,
AFNE23.JPG,AFNE24.JPG,AFNE22.JPG,AFSA24.JPG,AFSA22.JPG,AFSA23.JPG,,,,,,,,,0,1,1,8,,,,,,,,,,,,,,,AFSA15.jpg,AFNE04.jpg,AFNE16.jpg,AFSA10.jpg,AFNE16.jpg,FN,3,num_2,32,num_4,0.766846142011,,,2017_May_26_1130,60.0034449225,FEMA4ImagesEEG,001,200510,
AFSA25.JPG,AFNE24.JPG,AFSA24.JPG,AFNE21.JPG,AFSA21.JPG,AFNE25.JPG,,,,,,,,,0,2,2,2,,,,,,,,,,,,,,,AFNE16.jpg,AFSA11.jpg,AFSA02.jpg,AFNE02.jpg,AFSA11.jpg,FS,4,num_6,32,num_2,1.28342663124,,,2017_May_26_1130,60.0034449225,FEMA4ImagesEEG,001,200510,
AMNE23.JPG,AMNE24.JPG,AMNE22.JPG,AMSA24.JPG,AMSA22.JPG,AMSA23.JPG,,,,,,,,,0,3,3,9,,,,,,,,,,,,,,,AFNE10.jpg,AFSA08.jpg,AFSA16.jpg,AFNE09.jpg,AFSA08.jpg,FS,4,num_6,16,num_6,0.650171227055,,,2017_May_26_1130,60.0034449225,FEMA4ImagesEEG,001,200510,
AMSA21.JPG,AMNE23.JPG,AMNE21.JPG,AMSA25.JPG,AMNE25.JPG,AMSA23.JPG,,,,,,,,,0,4,4,5,,,,,,,,,,,,,,,AFSA13.jpg,AFSA06.jpg,AFNE06.jpg,AFNE03.jpg,AFSA06.jpg,FS,4,num_6,32,num_2,0.966702065663,,,2017_May_26_1130,60.0034449225,FEMA4ImagesEEG,001,200510,
AMNE22.JPG,AMSA24.JPG,AMSA22.JPG,AMNE25.JPG,AMNE24.JPG,AMSA25.JPG,,,,,,,,,0,5,5,7,,,,,,,,,,,,,,,AFNE09.jpg,AFSA11.jpg,AFNE11.jpg,AFSA08.jpg,AFNE09.jpg,FN,3,num_8,16,num_8,0.783554766909,,,2017_May_26_1130,60.0034449225,FEMA4ImagesEEG,001,200510,
AMSA25.JPG,AMNE24.JPG,AMSA24.JPG,AMNE26.JPG,AMSA21.JPG,AMNE25.JPG,,,,,,,,,0,6,6,3,,,,,,,,,,,,,,,AFSA11.jpg,AFNE04.jpg,AFNE18.jpg,AFSA06.jpg,AFSA06.jpg,FS,4,num_4,16,num_4,1.11669993273,,,2017_May_26_1130,60.0034449225,FEMA4ImagesEEG,001,200510,
AFSA21.JPG,AFNE23.JPG,AFNE21.JPG,AFSA25.JPG,AFNE25.JPG,AFSA23.JPG,,,,,,,,,0,7,7,4,,,,,,,,,,,,,,,AFSA16.jpg,AFSA07.jpg,AFNE08.jpg,AFNE15.jpg,AFNE08.jpg,FN,3,num_2,32,num_6,1.30023019505,,,2017_May_26_1130,60.0034449225,FEMA4ImagesEEG,001,200510,
AFNE22.JPG,AFSA24.JPG,AFSA22.JPG,AFNE25.JPG,AFNE24.JPG,AFSA25.JPG,,,,,,,,,0,8,8,6,,,,,,,,,,,,,,,AFNE16.jpg,AFNE09.jpg,AFSA07.jpg,AFSA06.jpg,AFSA07.jpg,FS,4,num_2,16,num_2,1.11680705985,,,2017_May_26_1130,60.0034449225,FEMA4ImagesEEG,001,200510,
AFSA21.JPG,AFNE22.JPG,AFNE21.JPG,AFSA23.JPG,AFSA22.JPG,AFNE23.JPG,,,,,,,,,0,9,9,0,,,,,,,,,,,,,,,AFNE18.jpg,AFSA03.jpg,AFNE15.jpg,AFSA02.jpg,AFNE15.jpg,FN,3,num_2,16,num_2,1.13339733169,,,2017_May_26_1130,60.0034449225,FEMA4ImagesEEG,001,200510,
AFNE22.JPG,AFSA24.JPG,AFSA22.JPG,AFNE25.JPG,AFNE24.JPG,AFSA25.JPG,,,,,,,,,,,,,0,0,0,6,,,,,,,,,,,AMNE04.jpg,AMSA18.jpg,AMNE03.jpg,AMSA09.jpg,AMSA18.jpg,MS,2,num_6,16,num_6,0.60026121058,,,2017_May_26_1130,60.0034449225,FEMA4ImagesEEG,001,200510,
AFNE23.JPG,AFNE24.JPG,AFNE22.JPG,AFSA24.JPG,AFSA22.JPG,AFSA23.JPG,,,,,,,,,,,,,0,1,1,8,,,,,,,,,,,AMNE19.jpg,AMNE16.jpg,AMSA07.jpg,AMSA16.jpg,AMSA16.jpg,MS,2,num_4,16,num_4,0.916724693845,,,2017_May_26_1130,60.0034449225,FEMA4ImagesEEG,001,200510,
AMSA25.JPG,AMNE24.JPG,AMSA24.JPG,AMNE26.JPG,AMSA21.JPG,AMNE25.JPG,,,,,,,,,,,,,0,2,2,3,,,,,,,,,,,AMSA02.jpg,AMNE05.jpg,AMSA09.jpg,AMNE08.jpg,AMSA09.jpg,MS,2,num_2,16,num_2,1.46676669479,,,2017_May_26_1130,60.0034449225,FEMA4ImagesEEG,001,200510,
AFSA25.JPG,AFNE24.JPG,AFSA24.JPG,AFNE21.JPG,AFSA21.JPG,AFNE25.JPG,,,,,,,,,,,,,0,3,3,2,,,,,,,,,,,AMNE20.jpg,AMSA07.jpg,AMNE17.jpg,AMSA13.jpg,AMNE17.jpg,MN,1,num_2,32,num_4,1.33370132896,,,2017_May_26_1130,60.0034449225,FEMA4ImagesEEG,001,200510,
AFSA21.JPG,AFNE22.JPG,AFNE21.JPG,AFSA23.JPG,AFSA22.JPG,AFNE23.JPG,,,,,,,,,,,,,0,4,4,0,,,,,,,,,,,AMSA20.jpg,AMNE13.jpg,AMNE10.jpg,AMSA02.jpg,AMSA20.jpg,MS,2,num_8,16,num_8,1.43341263104,,,2017_May_26_1130,60.0034449225,FEMA4ImagesEEG,001,200510,
AMSA21.JPG,AMNE23.JPG,AMNE21.JPG,AMSA25.JPG,AMNE25.JPG,AMSA23.JPG,,,,,,,,,,,,,0,5,5,5,,,,,,,,,,,AMSA04.jpg,AMNE08.jpg,AMSA03.jpg,AMNE01.jpg,AMSA03.jpg,MS,2,num_2,16,num_2,1.71668434481,,,2017_May_26_1130,60.0034449225,FEMA4ImagesEEG,001,200510,
AMNE23.JPG,AMNE24.JPG,AMNE22.JPG,AMSA24.JPG,AMSA22.JPG,AMSA23.JPG,,,,,,,,,,,,,0,6,6,9,,,,,,,,,,,AMNE13.jpg,AMNE15.jpg,AMSA16.jpg,AMSA17.jpg,AMSA17.jpg,MS,2,num_4,32,num_6,0.466764449608,,,2017_May_26_1130,60.0034449225,FEMA4ImagesEEG,001,200510,
AMNE22.JPG,AMSA24.JPG,AMSA22.JPG,AMNE25.JPG,AMNE24.JPG,AMSA25.JPG,,,,,,,,,,,,,0,7,7,7,,,,,,,,,,,AMSA13.jpg,AMSA11.jpg,AMNE15.jpg,AMNE03.jpg,AMSA13.jpg,MS,2,num_8,16,num_8,0.933447431191,,,2017_May_26_1130,60.0034449225,FEMA4ImagesEEG,001,200510,
AMSA21.JPG,AMNE22.JPG,AMNE21.JPG,AMSA23.JPG,AMSA22.JPG,AMNE23.JPG,,,,,,,,,,,,,0,8,8,1,,,,,,,,,,,AMNE11.jpg,AMSA07.jpg,AMNE08.jpg,AMSA20.jpg,AMNE08.jpg,MN,1,num_2,32,num_6,0.950203525485,,,2017_May_26_1130,60.0034449225,FEMA4ImagesEEG,001,200510,
AFSA21.JPG,AFNE23.JPG,AFNE21.JPG,AFSA25.JPG,AFNE25.JPG,AFSA23.JPG,,,,,,,,,,,,,0,9,9,4,,,,,,,,,,,AMNE12.jpg,AMSA04.jpg,AMNE03.jpg,AMSA03.jpg,AMSA03.jpg,MS,2,num_4,32,num_8,1.15007388254,,,2017_May_26_1130,60.0034449225,FEMA4ImagesEEG,001,200510,
AMSA21.JPG,AMNE22.JPG,AMNE21.JPG,AMSA23.JPG,AMSA22.JPG,AMNE23.JPG,,,,,,,,,,,,,,,,,0,0,0,1,,,,,,,AFSA18.jpg,AFNE19.jpg,AFSA14.jpg,AFNE10.jpg,AFSA14.jpg,FS,4,num_2,32,num_4,0.916744900518,,,2017_May_26_1130,60.0034449225,FEMA4ImagesEEG,001,200510,
AMNE23.JPG,AMNE24.JPG,AMNE22.JPG,AMSA24.JPG,AMSA22.JPG,AMSA23.JPG,,,,,,,,,,,,,,,,,0,1,1,9,,,,,,,AFNE06.jpg,AFSA12.jpg,AFNE04.jpg,AFSA19.jpg,AFNE04.jpg,FN,3,num_2,32,num_8,0.833438803325,,,2017_May_26_1130,60.0034449225,FEMA4ImagesEEG,001,200510,
AFNE22.JPG,AFSA24.JPG,AFSA22.JPG,AFNE25.JPG,AFNE24.JPG,AFSA25.JPG,,,,,,,,,,,,,,,,,0,2,2,6,,,,,,,AFSA04.jpg,AFSA20.jpg,AFNE18.jpg,AFNE04.jpg,AFNE04.jpg,FN,3,num_4,16,num_4,0.533472577226,,,2017_May_26_1130,60.0034449225,FEMA4ImagesEEG,001,200510,
AFNE23.JPG,AFNE24.JPG,AFNE22.JPG,AFSA24.JPG,AFSA22.JPG,AFSA23.JPG,,,,,,,,,,,,,,,,,0,3,3,8,,,,,,,AFNE02.jpg,AFSA07.jpg,AFNE09.jpg,AFSA06.jpg,AFSA07.jpg,FS,4,num_6,16,num_6,1.13343485829,,,2017_May_26_1130,60.0034449225,FEMA4ImagesEEG,001,200510,
AFSA25.JPG,AFNE24.JPG,AFSA24.JPG,AFNE21.JPG,AFSA21.JPG,AFNE25.JPG,,,,,,,,,,,,,,,,,0,4,4,2,,,,,,,AFNE01.jpg,AFNE04.jpg,AFSA17.jpg,AFSA07.jpg,AFNE01.jpg,FN,3,num_8,16,num_8,1.36674395425,,,2017_May_26_1130,60.0034449225,FEMA4ImagesEEG,001,200510,
AFSA21.JPG,AFNE23.JPG,AFNE21.JPG,AFSA25.JPG,AFNE25.JPG,AFSA23.JPG,,,,,,,,,,,,,,,,,0,5,5,4,,,,,,,AFNE06.jpg,AFSA19.jpg,AFNE03.jpg,AFSA18.jpg,AFSA18.jpg,FS,4,num_4,32,num_2,2.03324244637,,,2017_May_26_1130,60.0034449225,FEMA4ImagesEEG,001,200510,
AFSA21.JPG,AFNE22.JPG,AFNE21.JPG,AFSA23.JPG,AFSA22.JPG,AFNE23.JPG,,,,,,,,,,,,,,,,,0,6,6,0,,,,,,,AFNE18.jpg,AFNE15.jpg,AFSA08.jpg,AFSA12.jpg,AFNE18.jpg,FN,3,num_8,32,num_6,0.900119026541,,,2017_May_26_1130,60.0034449225,FEMA4ImagesEEG,001,200510,
AMSA21.JPG,AMNE23.JPG,AMNE21.JPG,AMSA25.JPG,AMNE25.JPG,AMSA23.JPG,,,,,,,,,,,,,,,,,0,7,7,5,,,,,,,AFSA09.jpg,AFNE01.jpg,AFNE17.jpg,AFSA16.jpg,AFNE01.jpg,FN,3,num_6,32,num_8,0.866763359052,,,2017_May_26_1130,60.0034449225,FEMA4ImagesEEG,001,200510,
AMSA25.JPG,AMNE24.JPG,AMSA24.JPG,AMNE26.JPG,AMSA21.JPG,AMNE25.JPG,,,,,,,,,,,,,,,,,0,8,8,3,,,,,,,AFNE14.jpg,AFSA02.jpg,AFSA16.jpg,AFNE06.jpg,AFNE06.jpg,FN,3,num_4,32,num_2,1.41670528916,,,2017_May_26_1130,60.0034449225,FEMA4ImagesEEG,001,200510,
AMNE22.JPG,AMSA24.JPG,AMSA22.JPG,AMNE25.JPG,AMNE24.JPG,AMSA25.JPG,,,,,,,,,,,,,,,,,0,9,9,7,,,,,,,AFNE04.jpg,AFNE06.jpg,AFSA16.jpg,AFSA15.jpg,AFNE06.jpg,FN,3,num_6,32,num_8,1.06674469204,,,2017_May_26_1130,60.0034449225,FEMA4ImagesEEG,001,200510,
AMNE22.JPG,AMSA24.JPG,AMSA22.JPG,AMNE25.JPG,AMNE24.JPG,AMSA25.JPG,,,,,,,,,,,,,,,,,,,,,0,0,0,7,,,AMSA10.jpg,AMNE18.jpg,AMSA07.jpg,AMNE16.jpg,AMSA10.jpg,MS,2,num_8,32,num_6,0.883437664597,,,2017_May_26_1130,60.0034449225,FEMA4ImagesEEG,001,200510,
AMSA25.JPG,AMNE24.JPG,AMSA24.JPG,AMNE26.JPG,AMSA21.JPG,AMNE25.JPG,,,,,,,,,,,,,,,,,,,,,0,1,1,3,,,AMSA18.jpg,AMNE14.jpg,AMNE13.jpg,AMSA14.jpg,AMSA14.jpg,MS,2,num_4,16,num_4,1.66671787819,,,2017_May_26_1130,60.0034449225,FEMA4ImagesEEG,001,200510,
AFSA21.JPG,AFNE22.JPG,AFNE21.JPG,AFSA23.JPG,AFSA22.JPG,AFNE23.JPG,,,,,,,,,,,,,,,,,,,,,0,2,2,0,,,AMSA20.jpg,AMNE14.jpg,AMNE16.jpg,AMSA09.jpg,AMNE16.jpg,MN,1,num_2,16,num_2,1.31674477225,,,2017_May_26_1130,60.0034449225,FEMA4ImagesEEG,001,200510,
AFNE23.JPG,AFNE24.JPG,AFNE22.JPG,AFSA24.JPG,AFSA22.JPG,AFSA23.JPG,,,,,,,,,,,,,,,,,,,,,0,3,3,8,,,AMNE15.jpg,AMSA15.jpg,AMNE13.jpg,AMSA19.jpg,AMSA15.jpg,MS,2,num_6,16,num_6,1.00009173155,,,2017_May_26_1130,60.0034449225,FEMA4ImagesEEG,001,200510,
AFSA25.JPG,AFNE24.JPG,AFSA24.JPG,AFNE21.JPG,AFSA21.JPG,AFNE25.JPG,,,,,,,,,,,,,,,,,,,,,0,4,4,2,,,AMNE02.jpg,AMSA06.jpg,AMNE17.jpg,AMSA16.jpg,AMNE17.jpg,MN,1,num_2,16,num_2,0.666800628998,,,2017_May_26_1130,60.0034449225,FEMA4ImagesEEG,001,200510,
AMSA21.JPG,AMNE23.JPG,AMNE21.JPG,AMSA25.JPG,AMNE25.JPG,AMSA23.JPG,,,,,,,,,,,,,,,,,,,,,0,5,5,5,,,AMNE20.jpg,AMSA17.jpg,AMNE01.jpg,AMSA16.jpg,AMNE01.jpg,MN,1,num_2,16,num_2,1.18349530164,,,2017_May_26_1130,60.0034449225,FEMA4ImagesEEG,001,200510,
AMSA21.JPG,AMNE22.JPG,AMNE21.JPG,AMSA23.JPG,AMSA22.JPG,AMNE23.JPG,,,,,,,,,,,,,,,,,,,,,0,6,6,1,,,AMNE10.jpg,AMSA06.jpg,AMNE18.jpg,AMSA13.jpg,AMNE10.jpg,MN,1,num_8,16,num_8,0.850117599242,,,2017_May_26_1130,60.0034449225,FEMA4ImagesEEG,001,200510,
AFNE22.JPG,AFSA24.JPG,AFSA22.JPG,AFNE25.JPG,AFNE24.JPG,AFSA25.JPG,,,,,,,,,,,,,,,,,,,,,0,7,7,6,,,AMSA04.jpg,AMNE16.jpg,AMNE04.jpg,AMSA12.jpg,AMNE04.jpg,MN,1,num_2,16,num_2,0.900101706618,,,2017_May_26_1130,60.0034449225,FEMA4ImagesEEG,001,200510,
AMNE23.JPG,AMNE24.JPG,AMNE22.JPG,AMSA24.JPG,AMSA22.JPG,AMSA23.JPG,,,,,,,,,,,,,,,,,,,,,0,8,8,9,,,AMNE20.jpg,AMSA18.jpg,AMSA07.jpg,AMNE01.jpg,AMNE20.jpg,MN,1,num_8,16,num_8,0.833421804127,,,2017_May_26_1130,60.0034449225,FEMA4ImagesEEG,001,200510,
AFSA21.JPG,AFNE23.JPG,AFNE21.JPG,AFSA25.JPG,AFNE25.JPG,AFSA23.JPG,,,,,,,,,,,,,,,,,,,,,0,9,9,4,,,AMNE07.jpg,AMSA17.jpg,AMNE18.jpg,AMSA11.jpg,AMSA11.jpg,MS,2,num_4,16,num_4,1.18341447518,,,2017_May_26_1130,60.0034449225,FEMA4ImagesEEG,001,200510,
,,,,,,,,,,,,,,,,,,,,,,,,,,,,,,,,,,,,,,,,,,,space,4.86643877032,2017_May_26_1130,60.0034449225,FEMA4ImagesEEG,001,200510,
AFNE01.JPG,AFNE01.JPG,AFNE01.JPG,AFNE01.JPG,AFNE01.JPG,AFNE01.JPG,0,0,0,8,,,,,,,,,,,,,,,,,,,,,,,AFNE10.jpg,AFNE07.jpg,AFSA16.jpg,AFSA13.jpg,AFNE07.jpg,FN,3,num_6,32,num_8,0.650205225451,,,2017_May_26_1130,60.0034449225,FEMA4ImagesEEG,001,200510,
AFNE01.JPG,AFNE01.JPG,AFNE01.JPG,AFNE01.JPG,AFNE01.JPG,AFNE01.JPG,0,1,1,1,,,,,,,,,,,,,,,,,,,,,,,AFNE06.jpg,AFSA07.jpg,AFSA16.jpg,AFNE20.jpg,AFNE20.jpg,FN,3,num_4,16,num_4,0.633494676207,,,2017_May_26_1130,60.0034449225,FEMA4ImagesEEG,001,200510,
AFNE01.JPG,AFNE01.JPG,AFNE01.JPG,AFNE01.JPG,AFNE01.JPG,AFNE01.JPG,0,2,2,0,,,,,,,,,,,,,,,,,,,,,,,AFNE18.jpg,AFNE19.jpg,AFSA12.jpg,AFSA20.jpg,AFSA12.jpg,FS,4,num_2,16,num_2,1.100030759,,,2017_May_26_1130,60.0034449225,FEMA4ImagesEEG,001,200510,
AFNE01.JPG,AFNE01.JPG,AFNE01.JPG,AFNE01.JPG,AFNE01.JPG,AFNE01.JPG,0,3,3,5,,,,,,,,,,,,,,,,,,,,,,,AFSA01.jpg,AFSA15.jpg,AFNE02.jpg,AFNE08.jpg,AFSA15.jpg,FS,4,num_6,16,num_6,0.633461319259,,,2017_May_26_1130,60.0034449225,FEMA4ImagesEEG,001,200510,
AFNE01.JPG,AFNE01.JPG,AFNE01.JPG,AFNE01.JPG,AFNE01.JPG,AFNE01.JPG,0,4,4,9,,,,,,,,,,,,,,,,,,,,,,,AFSA14.jpg,AFNE18.jpg,AFSA11.jpg,AFNE06.jpg,AFSA11.jpg,FS,4,num_2,16,num_2,1.26701020054,,,2017_May_26_1130,60.0034449225,FEMA4ImagesEEG,001,200510,
AFNE01.JPG,AFNE01.JPG,AFNE01.JPG,AFNE01.JPG,AFNE01.JPG,AFNE01.JPG,0,5,5,3,,,,,,,,,,,,,,,,,,,,,,,AFSA14.jpg,AFNE14.jpg,AFSA13.jpg,AFNE17.jpg,AFSA14.jpg,FS,4,num_8,32,num_4,1.28348500584,,,2017_May_26_1130,60.0034449225,FEMA4ImagesEEG,001,200510,
AFNE01.JPG,AFNE01.JPG,AFNE01.JPG,AFNE01.JPG,AFNE01.JPG,AFNE01.JPG,0,6,6,2,,,,,,,,,,,,,,,,,,,,,,,AFSA10.jpg,AFSA17.jpg,AFNE17.jpg,AFNE13.jpg,AFSA10.jpg,FS,4,num_8,16,num_8,0.966804702417,,,2017_May_26_1130,60.0034449225,FEMA4ImagesEEG,001,200510,
AFNE01.JPG,AFNE01.JPG,AFNE01.JPG,AFNE01.JPG,AFNE01.JPG,AFNE01.JPG,0,7,7,4,,,,,,,,,,,,,,,,,,,,,,,AFSA09.jpg,AFNE04.jpg,AFNE10.jpg,AFSA15.jpg,AFSA15.jpg,FS,4,num_4,32,num_6,1.00005869532,,,2017_May_26_1130,60.0034449225,FEMA4ImagesEEG,001,200510,
AFNE01.JPG,AFNE01.JPG,AFNE01.JPG,AFNE01.JPG,AFNE01.JPG,AFNE01.JPG,0,8,8,6,,,,,,,,,,,,,,,,,,,,,,,AFSA18.jpg,AFNE07.jpg,AFNE03.jpg,AFSA12.jpg,AFNE03.jpg,FN,3,num_2,32,num_8,1.38340126071,,,2017_May_26_1130,60.0034449225,FEMA4ImagesEEG,001,200510,
AFNE01.JPG,AFNE01.JPG,AFNE01.JPG,AFNE01.JPG,AFNE01.JPG,AFNE01.JPG,0,9,9,7,,,,,,,,,,,,,,,,,,,,,,,AFSA15.jpg,AFNE11.jpg,AFNE06.jpg,AFSA12.jpg,AFNE06.jpg,FN,3,num_2,16,num_2,1.0500841781,,,2017_May_26_1130,60.0034449225,FEMA4ImagesEEG,001,200510,
AFNE01.JPG,AFNE01.JPG,AFNE01.JPG,AFNE01.JPG,AFNE01.JPG,AFNE01.JPG,1,0,10,4,,,,,,,,,,,,,,,,,,,,,,,AFSA08.jpg,AFSA20.jpg,AFNE04.jpg,AFNE08.jpg,AFNE08.jpg,FN,3,num_4,32,num_6,1.05009476258,,,2017_May_26_1130,60.0034449225,FEMA4ImagesEEG,001,200510,
AFNE01.JPG,AFNE01.JPG,AFNE01.JPG,AFNE01.JPG,AFNE01.JPG,AFNE01.JPG,1,1,11,9,,,,,,,,,,,,,,,,,,,,,,,AFNE09.jpg,AFSA08.jpg,AFNE17.jpg,AFSA04.jpg,AFNE09.jpg,FN,3,num_8,16,num_8,1.16674305627,,,2017_May_26_1130,60.0034449225,FEMA4ImagesEEG,001,200510,
AFNE01.JPG,AFNE01.JPG,AFNE01.JPG,AFNE01.JPG,AFNE01.JPG,AFNE01.JPG,1,2,12,2,,,,,,,,,,,,,,,,,,,,,,,AFSA01.jpg,AFNE12.jpg,AFSA17.jpg,AFNE15.jpg,AFNE15.jpg,FN,3,num_4,16,num_4,0.600101161283,,,2017_May_26_1130,60.0034449225,FEMA4ImagesEEG,001,200510,
AFNE01.JPG,AFNE01.JPG,AFNE01.JPG,AFNE01.JPG,AFNE01.JPG,AFNE01.JPG,1,3,13,5,,,,,,,,,,,,,,,,,,,,,,,AFSA08.jpg,AFNE03.jpg,AFNE02.jpg,AFSA20.jpg,AFSA20.jpg,FS,4,num_4,32,num_8,1.23341590248,,,2017_May_26_1130,60.0034449225,FEMA4ImagesEEG,001,200510,
AFNE01.JPG,AFNE01.JPG,AFNE01.JPG,AFNE01.JPG,AFNE01.JPG,AFNE01.JPG,1,4,14,7,,,,,,,,,,,,,,,,,,,,,,,AFSA12.jpg,AFNE20.jpg,AFNE12.jpg,AFSA15.jpg,AFNE20.jpg,FN,3,num_6,32,num_2,0.966757233022,,,2017_May_26_1130,60.0034449225,FEMA4ImagesEEG,001,200510,
AFNE01.JPG,AFNE01.JPG,AFNE01.JPG,AFNE01.JPG,AFNE01.JPG,AFNE01.JPG,1,5,15,8,,,,,,,,,,,,,,,,,,,,,,,AFNE12.jpg,AFSA12.jpg,AFSA09.jpg,AFNE18.jpg,AFNE18.jpg,FN,3,num_4,32,num_6,1.0834215635,,,2017_May_26_1130,60.0034449225,FEMA4ImagesEEG,001,200510,
AFNE01.JPG,AFNE01.JPG,AFNE01.JPG,AFNE01.JPG,AFNE01.JPG,AFNE01.JPG,1,6,16,3,,,,,,,,,,,,,,,,,,,,,,,AFSA04.jpg,AFNE06.jpg,AFSA14.jpg,AFNE19.jpg,AFNE19.jpg,FN,3,num_4,32,num_2,0.966869491851,,,2017_May_26_1130,60.0034449225,FEMA4ImagesEEG,001,200510,
AFNE01.JPG,AFNE01.JPG,AFNE01.JPG,AFNE01.JPG,AFNE01.JPG,AFNE01.JPG,1,7,17,1,,,,,,,,,,,,,,,,,,,,,,,AFSA13.jpg,AFNE14.jpg,AFSA02.jpg,AFNE15.jpg,AFSA02.jpg,FS,4,num_2,32,num_8,0.950120133115,,,2017_May_26_1130,60.0034449225,FEMA4ImagesEEG,001,200510,
AFNE01.JPG,AFNE01.JPG,AFNE01.JPG,AFNE01.JPG,AFNE01.JPG,AFNE01.JPG,1,8,18,6,,,,,,,,,,,,,,,,,,,,,,,AFNE15.jpg,AFSA02.jpg,AFNE17.jpg,AFSA03.jpg,AFSA02.jpg,FS,4,num_6,16,num_6,1.21676853893,,,2017_May_26_1130,60.0034449225,FEMA4ImagesEEG,001,200510,
AFNE01.JPG,AFNE01.JPG,AFNE01.JPG,AFNE01.JPG,AFNE01.JPG,AFNE01.JPG,1,9,19,0,,,,,,,,,,,,,,,,,,,,,,,AFNE02.jpg,AFNE06.jpg,AFSA16.jpg,AFSA10.jpg,AFNE06.jpg,FN,3,num_6,16,num_6,1.13344576326,,,2017_May_26_1130,60.0034449225,FEMA4ImagesEEG,001,200510,
AFNE01.JPG,AFNE01.JPG,AFNE01.JPG,AFNE01.JPG,AFNE01.JPG,AFNE01.JPG,2,0,20,3,,,,,,,,,,,,,,,,,,,,,,,AFSA07.jpg,AFSA01.jpg,AFNE06.jpg,AFNE03.jpg,AFNE06.jpg,FN,3,num_2,32,num_4,0.966737026349,,,2017_May_26_1130,60.0034449225,FEMA4ImagesEEG,001,200510,
AFNE01.JPG,AFNE01.JPG,AFNE01.JPG,AFNE01.JPG,AFNE01.JPG,AFNE01.JPG,2,1,21,8,,,,,,,,,,,,,,,,,,,,,,,AFSA14.jpg,AFSA01.jpg,AFNE02.jpg,AFNE04.jpg,AFNE02.jpg,FN,3,num_2,32,num_8,1.03346664354,,,2017_May_26_1130,60.0034449225,FEMA4ImagesEEG,001,200510,
AFNE01.JPG,AFNE01.JPG,AFNE01.JPG,AFNE01.JPG,AFNE01.JPG,AFNE01.JPG,2,2,22,4,,,,,,,,,,,,,,,,,,,,,,,AFSA04.jpg,AFNE02.jpg,AFNE11.jpg,AFSA05.jpg,AFSA04.jpg,FS,4,num_8,32,num_6,1.65002304525,,,2017_May_26_1130,60.0034449225,FEMA4ImagesEEG,001,200510,
AFNE01.JPG,AFNE01.JPG,AFNE01.JPG,AFNE01.JPG,AFNE01.JPG,AFNE01.JPG,2,3,23,7,,,,,,,,,,,,,,,,,,,,,,,AFNE12.jpg,AFSA09.jpg,AFSA11.jpg,AFNE14.jpg,AFSA11.jpg,FS,4,num_2,16,num_2,0.916506590671,,,2017_May_26_1130,60.0034449225,FEMA4ImagesEEG,001,200510,
AFNE01.JPG,AFNE01.JPG,AFNE01.JPG,AFNE01.JPG,AFNE01.JPG,AFNE01.JPG,2,4,24,6,,,,,,,,,,,,,,,,,,,,,,,AFNE18.jpg,AFSA08.jpg,AFSA20.jpg,AFNE11.jpg,AFSA20.jpg,FS,4,num_2,32,num_8,1.13341016124,,,2017_May_26_1130,60.0034449225,FEMA4ImagesEEG,001,200510,
AFNE01.JPG,AFNE01.JPG,AFNE01.JPG,AFNE01.JPG,AFNE01.JPG,AFNE01.JPG,2,5,25,9,,,,,,,,,,,,,,,,,,,,,,,AFSA17.jpg,AFNE09.jpg,AFSA16.jpg,AFNE16.jpg,AFNE16.jpg,FN,3,num_4,16,num_4,1.100109661,,,2017_May_26_1130,60.0034449225,FEMA4ImagesEEG,001,200510,
AFNE01.JPG,AFNE01.JPG,AFNE01.JPG,AFNE01.JPG,AFNE01.JPG,AFNE01.JPG,2,6,26,1,,,,,,,,,,,,,,,,,,,,,,,AFNE08.jpg,AFSA11.jpg,AFSA02.jpg,AFNE15.jpg,AFNE15.jpg,FN,3,num_4,16,num_4,0.883473587572,,,2017_May_26_1130,60.0034449225,FEMA4ImagesEEG,001,200510,
AFNE01.JPG,AFNE01.JPG,AFNE01.JPG,AFNE01.JPG,AFNE01.JPG,AFNE01.JPG,2,7,27,5,,,,,,,,,,,,,,,,,,,,,,,AFNE11.jpg,AFSA13.jpg,AFSA07.jpg,AFNE02.jpg,AFSA13.jpg,FS,4,num_6,32,num_8,0.783555408241,,,2017_May_26_1130,60.0034449225,FEMA4ImagesEEG,001,200510,
AFNE01.JPG,AFNE01.JPG,AFNE01.JPG,AFNE01.JPG,AFNE01.JPG,AFNE01.JPG,2,8,28,2,,,,,,,,,,,,,,,,,,,,,,,AFSA02.jpg,AFNE18.jpg,AFSA11.jpg,AFNE03.jpg,AFNE18.jpg,FN,3,num_6,32,num_4,0.983478687354,,,2017_May_26_1130,60.0034449225,FEMA4ImagesEEG,001,200510,
AFNE01.JPG,AFNE01.JPG,AFNE01.JPG,AFNE01.JPG,AFNE01.JPG,AFNE01.JPG,2,9,29,0,,,,,,,,,,,,,,,,,,,,,,,AFNE03.jpg,AFSA07.jpg,AFSA02.jpg,AFNE01.jpg,AFSA07.jpg,FS,4,num_6,16,num_6,0.800109115662,,,2017_May_26_1130,60.0034449225,FEMA4ImagesEEG,001,200510,
AFNE01.JPG,AFNE01.JPG,AFNE01.JPG,AFNE01.JPG,AFNE01.JPG,AFNE01.JPG,3,0,30,6,,,,,,,,,,,,,,,,,,,,,,,AFSA01.jpg,AFNE10.jpg,AFSA09.jpg,AFNE12.jpg,AFNE12.jpg,FN,3,num_4,16,num_4,1.91668909171,,,2017_May_26_1130,60.0034449225,FEMA4ImagesEEG,001,200510,
AFNE01.JPG,AFNE01.JPG,AFNE01.JPG,AFNE01.JPG,AFNE01.JPG,AFNE01.JPG,3,1,31,9,,,,,,,,,,,,,,,,,,,,,,,AFSA08.jpg,AFNE05.jpg,AFSA06.jpg,AFNE15.jpg,AFSA06.jpg,FS,4,num_2,16,num_2,1.34995771048,,,2017_May_26_1130,60.0034449225,FEMA4ImagesEEG,001,200510,
AFNE01.JPG,AFNE01.JPG,AFNE01.JPG,AFNE01.JPG,AFNE01.JPG,AFNE01.JPG,3,2,32,5,,,,,,,,,,,,,,,,,,,,,,,AFNE07.jpg,AFSA15.jpg,AFSA07.jpg,AFNE12.jpg,AFSA15.jpg,FS,4,num_6,16,num_6,0.600194817409,,,2017_May_26_1130,60.0034449225,FEMA4ImagesEEG,001,200510,
AFNE01.JPG,AFNE01.JPG,AFNE01.JPG,AFNE01.JPG,AFNE01.JPG,AFNE01.JPG,3,3,33,2,,,,,,,,,,,,,,,,,,,,,,,AFNE20.jpg,AFSA13.jpg,AFSA17.jpg,AFNE03.jpg,AFNE03.jpg,FN,3,num_4,32,num_8,0.850093543762,,,2017_May_26_1130,60.0034449225,FEMA4ImagesEEG,001,200510,
AFNE01.JPG,AFNE01.JPG,AFNE01.JPG,AFNE01.JPG,AFNE01.JPG,AFNE01.JPG,3,4,34,1,,,,,,,,,,,,,,,,,,,,,,,AFSA19.jpg,AFNE16.jpg,AFNE02.jpg,AFSA07.jpg,AFSA07.jpg,FS,4,num_4,16,num_4,1.46642767265,,,2017_May_26_1130,60.0034449225,FEMA4ImagesEEG,001,200510,
AFNE01.JPG,AFNE01.JPG,AFNE01.JPG,AFNE01.JPG,AFNE01.JPG,AFNE01.JPG,3,5,35,0,,,,,,,,,,,,,,,,,,,,,,,AFSA19.jpg,AFSA16.jpg,AFNE18.jpg,AFNE13.jpg,AFSA19.jpg,FS,4,num_8,32,num_4,1.45010425651,,,2017_May_26_1130,60.0034449225,FEMA4ImagesEEG,001,200510,
AFNE01.JPG,AFNE01.JPG,AFNE01.JPG,AFNE01.JPG,AFNE01.JPG,AFNE01.JPG,3,6,36,3,,,,,,,,,,,,,,,,,,,,,,,AFNE12.jpg,AFSA09.jpg,AFNE20.jpg,AFSA13.jpg,AFSA09.jpg,FS,4,num_6,32,num_8,0.933436205378,,,2017_May_26_1130,60.0034449225,FEMA4ImagesEEG,001,200510,
AFNE01.JPG,AFNE01.JPG,AFNE01.JPG,AFNE01.JPG,AFNE01.JPG,AFNE01.JPG,3,7,37,8,,,,,,,,,,,,,,,,,,,,,,,AFSA06.jpg,AFNE20.jpg,AFNE11.jpg,AFSA05.jpg,AFSA06.jpg,FS,4,num_8,16,num_8,0.867032459821,,,2017_May_26_1130,60.0034449225,FEMA4ImagesEEG,001,200510,
AFNE01.JPG,AFNE01.JPG,AFNE01.JPG,AFNE01.JPG,AFNE01.JPG,AFNE01.JPG,3,8,38,7,,,,,,,,,,,,,,,,,,,,,,,AFNE07.jpg,AFNE16.jpg,AFSA17.jpg,AFSA05.jpg,AFNE16.jpg,FN,3,num_6,16,num_6,0.533468728303,,,2017_May_26_1130,60.0034449225,FEMA4ImagesEEG,001,200510,
AFNE01.JPG,AFNE01.JPG,AFNE01.JPG,AFNE01.JPG,AFNE01.JPG,AFNE01.JPG,3,9,39,4,,,,,,,,,,,,,,,,,,,,,,,AFNE04.jpg,AFSA10.jpg,AFSA05.jpg,AFNE18.jpg,AFNE04.jpg,FN,3,num_8,32,num_6,0.733424722799,,,2017_May_26_1130,60.0034449225,FEMA4ImagesEEG,001,200510,
AFNE01.JPG,AFNE01.JPG,AFNE01.JPG,AFNE01.JPG,AFNE01.JPG,AFNE01.JPG,4,0,40,5,,,,,,,,,,,,,,,,,,,,,,,AFSA04.jpg,AFNE04.jpg,AFNE08.jpg,AFSA08.jpg,AFNE08.jpg,FN,3,num_2,16,num_2,0.816766101401,,,2017_May_26_1130,60.0034449225,FEMA4ImagesEEG,001,200510,
AFNE01.JPG,AFNE01.JPG,AFNE01.JPG,AFNE01.JPG,AFNE01.JPG,AFNE01.JPG,4,1,41,6,,,,,,,,,,,,,,,,,,,,,,,AFNE18.jpg,AFSA05.jpg,AFSA06.jpg,AFNE02.jpg,AFSA06.jpg,FS,4,num_2,32,num_6,0.600098916213,,,2017_May_26_1130,60.0034449225,FEMA4ImagesEEG,001,200510,
AFNE01.JPG,AFNE01.JPG,AFNE01.JPG,AFNE01.JPG,AFNE01.JPG,AFNE01.JPG,4,2,42,4,,,,,,,,,,,,,,,,,,,,,,,AFNE17.jpg,AFSA11.jpg,AFNE10.jpg,AFSA08.jpg,AFNE17.jpg,FN,3,num_8,16,num_8,1.03341789101,,,2017_May_26_1130,60.0034449225,FEMA4ImagesEEG,001,200510,
AFNE01.JPG,AFNE01.JPG,AFNE01.JPG,AFNE01.JPG,AFNE01.JPG,AFNE01.JPG,4,3,43,8,,,,,,,,,,,,,,,,,,,,,,,AFSA05.jpg,AFNE15.jpg,AFSA09.jpg,AFNE04.jpg,AFNE15.jpg,FN,3,num_6,16,num_6,0.500156681403,,,2017_May_26_1130,60.0034449225,FEMA4ImagesEEG,001,200510,
AFNE01.JPG,AFNE01.JPG,AFNE01.JPG,AFNE01.JPG,AFNE01.JPG,AFNE01.JPG,4,4,44,0,,,,,,,,,,,,,,,,,,,,,,,AFNE04.jpg,AFSA02.jpg,AFNE05.jpg,AFSA07.jpg,AFNE05.jpg,FN,3,num_2,32,num_6,1.16680977005,,,2017_May_26_1130,60.0034449225,FEMA4ImagesEEG,001,200510,
AFNE01.JPG,AFNE01.JPG,AFNE01.JPG,AFNE01.JPG,AFNE01.JPG,AFNE01.JPG,4,5,45,7,,,,,,,,,,,,,,,,,,,,,,,AFSA05.jpg,AFNE20.jpg,AFNE18.jpg,AFSA04.jpg,AFNE20.jpg,FN,3,num_6,16,num_6,0.750103518832,,,2017_May_26_1130,60.0034449225,FEMA4ImagesEEG,001,200510,
AFNE01.JPG,AFNE01.JPG,AFNE01.JPG,AFNE01.JPG,AFNE01.JPG,AFNE01.JPG,4,6,46,2,,,,,,,,,,,,,,,,,,,,,,,AFSA17.jpg,AFNE17.jpg,AFNE08.jpg,AFSA07.jpg,AFSA07.jpg,FS,4,num_4,32,num_2,1.23342071369,,,2017_May_26_1130,60.0034449225,FEMA4ImagesEEG,001,200510,
AFNE01.JPG,AFNE01.JPG,AFNE01.JPG,AFNE01.JPG,AFNE01.JPG,AFNE01.JPG,4,7,47,1,,,,,,,,,,,,,,,,,,,,,,,AFNE14.jpg,AFSA03.jpg,AFNE19.jpg,AFSA11.jpg,AFSA11.jpg,FS,4,num_4,16,num_4,0.71674400242,,,2017_May_26_1130,60.0034449225,FEMA4ImagesEEG,001,200510,
AFNE01.JPG,AFNE01.JPG,AFNE01.JPG,AFNE01.JPG,AFNE01.JPG,AFNE01.JPG,4,8,48,3,,,,,,,,,,,,,,,,,,,,,,,AFNE15.jpg,AFSA03.jpg,AFSA18.jpg,AFNE11.jpg,AFSA03.jpg,FS,4,num_6,16,num_6,1.51672802959,,,2017_May_26_1130,60.0034449225,FEMA4ImagesEEG,001,200510,
AFNE01.JPG,AFNE01.JPG,AFNE01.JPG,AFNE01.JPG,AFNE01.JPG,AFNE01.JPG,4,9,49,9,,,,,,,,,,,,,,,,,,,,,,,AFSA11.jpg,AFNE03.jpg,AFSA12.jpg,AFNE12.jpg,AFNE12.jpg,FN,3,num_4,16,num_4,0.783492222545,,,2017_May_26_1130,60.0034449225,FEMA4ImagesEEG,001,200510,
AFNE01.JPG,AFNE01.JPG,AFNE01.JPG,AFNE01.JPG,AFNE01.JPG,AFNE01.JPG,5,0,50,4,,,,,,,,,,,,,,,,,,,,,,,AFSA15.jpg,AFNE01.jpg,AFSA16.jpg,AFNE18.jpg,AFSA16.jpg,FS,4,num_2,32,num_6,1.08330385201,,,2017_May_26_1130,60.0034449225,FEMA4ImagesEEG,001,200510,
AFNE01.JPG,AFNE01.JPG,AFNE01.JPG,AFNE01.JPG,AFNE01.JPG,AFNE01.JPG,5,1,51,2,,,,,,,,,,,,,,,,,,,,,,,AFNE03.jpg,AFSA08.jpg,AFSA13.jpg,AFNE16.jpg,AFNE16.jpg,FN,3,num_4,32,num_2,1.05012202542,,,2017_May_26_1130,60.0034449225,FEMA4ImagesEEG,001,200510,
AFNE01.JPG,AFNE01.JPG,AFNE01.JPG,AFNE01.JPG,AFNE01.JPG,AFNE01.JPG,5,2,52,5,,,,,,,,,,,,,,,,,,,,,,,AFNE15.jpg,AFSA13.jpg,AFSA12.jpg,AFNE17.jpg,AFSA13.jpg,FS,4,num_6,32,num_4,1.05009315885,,,2017_May_26_1130,60.0034449225,FEMA4ImagesEEG,001,200510,
AFNE01.JPG,AFNE01.JPG,AFNE01.JPG,AFNE01.JPG,AFNE01.JPG,AFNE01.JPG,5,3,53,8,,,,,,,,,,,,,,,,,,,,,,,AFSA06.jpg,AFNE17.jpg,AFSA16.jpg,AFNE15.jpg,AFNE17.jpg,FN,3,num_6,16,num_6,1.11672655412,,,2017_May_26_1130,60.0034449225,FEMA4ImagesEEG,001,200510,
AFNE01.JPG,AFNE01.JPG,AFNE01.JPG,AFNE01.JPG,AFNE01.JPG,AFNE01.JPG,5,4,54,7,,,,,,,,,,,,,,,,,,,,,,,AFNE15.jpg,AFNE11.jpg,AFSA07.jpg,AFSA01.jpg,AFNE11.jpg,FN,3,num_6,16,num_6,1.43341551756,,,2017_May_26_1130,60.0034449225,FEMA4ImagesEEG,001,200510,
AFNE01.JPG,AFNE01.JPG,AFNE01.JPG,AFNE01.JPG,AFNE01.JPG,AFNE01.JPG,5,5,55,0,,,,,,,,,,,,,,,,,,,,,,,AFSA09.jpg,AFNE03.jpg,AFSA11.jpg,AFNE04.jpg,AFSA09.jpg,FS,4,num_8,32,num_4,1.05013228918,,,2017_May_26_1130,60.0034449225,FEMA4ImagesEEG,001,200510,
AFNE01.JPG,AFNE01.JPG,AFNE01.JPG,AFNE01.JPG,AFNE01.JPG,AFNE01.JPG,5,6,56,3,,,,,,,,,,,,,,,,,,,,,,,AFNE19.jpg,AFSA03.jpg,AFSA20.jpg,AFNE17.jpg,AFSA03.jpg,FS,4,num_6,32,num_2,0.866735775373,,,2017_May_26_1130,60.0034449225,FEMA4ImagesEEG,001,200510,
AFNE01.JPG,AFNE01.JPG,AFNE01.JPG,AFNE01.JPG,AFNE01.JPG,AFNE01.JPG,5,7,57,6,,,,,,,,,,,,,,,,,,,,,,,AFSA10.jpg,AFSA07.jpg,AFNE04.jpg,AFNE18.jpg,AFNE04.jpg,FN,3,num_2,32,num_6,1.06681429257,,,2017_May_26_1130,60.0034449225,FEMA4ImagesEEG,001,200510,
AFNE01.JPG,AFNE01.JPG,AFNE01.JPG,AFNE01.JPG,AFNE01.JPG,AFNE01.JPG,5,8,58,1,,,,,,,,,,,,,,,,,,,,,,,AFNE01.jpg,AFNE08.jpg,AFSA05.jpg,AFSA12.jpg,AFSA05.jpg,FS,4,num_2,32,num_8,0.816782459151,,,2017_May_26_1130,60.0034449225,FEMA4ImagesEEG,001,200510,
AFNE01.JPG,AFNE01.JPG,AFNE01.JPG,AFNE01.JPG,AFNE01.JPG,AFNE01.JPG,5,9,59,9,,,,,,,,,,,,,,,,,,,,,,,AFSA03.jpg,AFSA19.jpg,AFNE19.jpg,AFNE16.jpg,AFSA19.jpg,FS,4,num_6,32,num_2,0.600117519032,,,2017_May_26_1130,60.0034449225,FEMA4ImagesEEG,001,200510,
,,,,,,,,,,,,,,,,,,,,,,,,,,,,,,,,,,,,,,,,,,,space,2.51687428704,2017_May_26_1130,60.0034449225,FEMA4ImagesEEG,001,200510,
AFNE01.JPG,AFNE01.JPG,AFNE01.JPG,AFNE01.JPG,AFNE01.JPG,AFNE01.JPG,,,,,0,0,0,3,,,,,,,,,,,,,,,,,,,AMNE09.jpg,AMSA17.jpg,AMSA09.jpg,AMNE06.jpg,AMNE09.jpg,MN,1,num_8,16,num_8,0.966785137309,,,2017_May_26_1130,60.0034449225,FEMA4ImagesEEG,001,200510,
AFNE01.JPG,AFNE01.JPG,AFNE01.JPG,AFNE01.JPG,AFNE01.JPG,AFNE01.JPG,,,,,0,1,1,8,,,,,,,,,,,,,,,,,,,AMSA14.jpg,AMNE10.jpg,AMSA10.jpg,AMNE13.jpg,AMNE13.jpg,MN,1,num_4,32,num_6,1.08330192755,,,2017_May_26_1130,60.0034449225,FEMA4ImagesEEG,001,200510,
AFNE01.JPG,AFNE01.JPG,AFNE01.JPG,AFNE01.JPG,AFNE01.JPG,AFNE01.JPG,,,,,0,2,2,1,,,,,,,,,,,,,,,,,,,AMNE15.jpg,AMNE09.jpg,AMSA01.jpg,AMSA20.jpg,AMNE15.jpg,MN,1,num_8,16,num_8,1.0499966162,,,2017_May_26_1130,60.0034449225,FEMA4ImagesEEG,001,200510,
AFNE01.JPG,AFNE01.JPG,AFNE01.JPG,AFNE01.JPG,AFNE01.JPG,AFNE01.JPG,,,,,0,3,3,9,,,,,,,,,,,,,,,,,,,AMNE06.jpg,AMSA04.jpg,AMSA18.jpg,AMNE17.jpg,AMSA04.jpg,MS,2,num_6,16,num_6,0.583480419358,,,2017_May_26_1130,60.0034449225,FEMA4ImagesEEG,001,200510,
AFNE01.JPG,AFNE01.JPG,AFNE01.JPG,AFNE01.JPG,AFNE01.JPG,AFNE01.JPG,,,,,0,4,4,6,,,,,,,,,,,,,,,,,,,AMNE17.jpg,AMNE04.jpg,AMSA08.jpg,AMSA11.jpg,AMNE17.jpg,MN,1,num_8,16,num_8,1.55011384655,,,2017_May_26_1130,60.0034449225,FEMA4ImagesEEG,001,200510,
AFNE01.JPG,AFNE01.JPG,AFNE01.JPG,AFNE01.JPG,AFNE01.JPG,AFNE01.JPG,,,,,0,5,5,2,,,,,,,,,,,,,,,,,,,AMNE07.jpg,AMSA06.jpg,AMNE11.jpg,AMSA07.jpg,AMNE11.jpg,MN,1,num_2,32,num_4,0.866797999013,,,2017_May_26_1130,60.0034449225,FEMA4ImagesEEG,001,200510,
AFNE01.JPG,AFNE01.JPG,AFNE01.JPG,AFNE01.JPG,AFNE01.JPG,AFNE01.JPG,,,,,0,6,6,0,,,,,,,,,,,,,,,,,,,AMSA08.jpg,AMNE13.jpg,AMNE01.jpg,AMSA06.jpg,AMSA06.jpg,MS,2,num_4,32,num_6,0.900109083625,,,2017_May_26_1130,60.0034449225,FEMA4ImagesEEG,001,200510,
AFNE01.JPG,AFNE01.JPG,AFNE01.JPG,AFNE01.JPG,AFNE01.JPG,AFNE01.JPG,,,,,0,7,7,4,,,,,,,,,,,,,,,,,,,AMSA09.jpg,AMNE08.jpg,AMSA01.jpg,AMNE19.jpg,AMNE19.jpg,MN,1,num_4,16,num_4,0.633460036363,,,2017_May_26_1130,60.0034449225,FEMA4ImagesEEG,001,200510,
AFNE01.JPG,AFNE01.JPG,AFNE01.JPG,AFNE01.JPG,AFNE01.JPG,AFNE01.JPG,,,,,0,8,8,5,,,,,,,,,,,,,,,,,,,AMSA02.jpg,AMNE09.jpg,AMSA15.jpg,AMNE11.jpg,AMNE11.jpg,MN,1,num_4,32,num_8,0.749976505875,,,2017_May_26_1130,60.0034449225,FEMA4ImagesEEG,001,200510,
AFNE01.JPG,AFNE01.JPG,AFNE01.JPG,AFNE01.JPG,AFNE01.JPG,AFNE01.JPG,,,,,0,9,9,7,,,,,,,,,,,,,,,,,,,AMSA15.jpg,AMNE01.jpg,AMNE04.jpg,AMSA19.jpg,AMSA19.jpg,MS,2,num_4,16,num_4,1.56672175915,,,2017_May_26_1130,60.0034449225,FEMA4ImagesEEG,001,200510,
AFNE01.JPG,AFNE01.JPG,AFNE01.JPG,AFNE01.JPG,AFNE01.JPG,AFNE01.JPG,,,,,1,0,10,9,,,,,,,,,,,,,,,,,,,AMSA08.jpg,AMSA09.jpg,AMNE14.jpg,AMNE07.jpg,AMNE07.jpg,MN,1,num_4,32,num_8,1.9001571947,,,2017_May_26_1130,60.0034449225,FEMA4ImagesEEG,001,200510,
AFNE01.JPG,AFNE01.JPG,AFNE01.JPG,AFNE01.JPG,AFNE01.JPG,AFNE01.JPG,,,,,1,1,11,1,,,,,,,,,,,,,,,,,,,AMSA19.jpg,AMSA05.jpg,AMNE04.jpg,AMNE07.jpg,AMSA05.jpg,MS,2,num_6,16,num_6,0.766781031853,,,2017_May_26_1130,60.0034449225,FEMA4ImagesEEG,001,200510,
AFNE01.JPG,AFNE01.JPG,AFNE01.JPG,AFNE01.JPG,AFNE01.JPG,AFNE01.JPG,,,,,1,2,12,2,,,,,,,,,,,,,,,,,,,AMNE01.jpg,AMSA19.jpg,AMNE07.jpg,AMSA07.jpg,AMNE01.jpg,MN,1,num_8,16,num_8,0.883446324733,,,2017_May_26_1130,60.0034449225,FEMA4ImagesEEG,001,200510,
AFNE01.JPG,AFNE01.JPG,AFNE01.JPG,AFNE01.JPG,AFNE01.JPG,AFNE01.JPG,,,,,1,3,13,3,,,,,,,,,,,,,,,,,,,AMNE20.jpg,AMNE09.jpg,AMSA13.jpg,AMSA06.jpg,AMSA13.jpg,MS,2,num_2,32,num_6,0.850168917677,,,2017_May_26_1130,60.0034449225,FEMA4ImagesEEG,001,200510,
AFNE01.JPG,AFNE01.JPG,AFNE01.JPG,AFNE01.JPG,AFNE01.JPG,AFNE01.JPG,,,,,1,4,14,7,,,,,,,,,,,,,,,,,,,AMSA09.jpg,AMNE04.jpg,AMNE09.jpg,AMSA07.jpg,AMSA09.jpg,MS,2,num_8,32,num_2,0.850089053391,,,2017_May_26_1130,60.0034449225,FEMA4ImagesEEG,001,200510,
AFNE01.JPG,AFNE01.JPG,AFNE01.JPG,AFNE01.JPG,AFNE01.JPG,AFNE01.JPG,,,,,1,5,15,4,,,,,,,,,,,,,,,,,,,AMSA11.jpg,AMNE13.jpg,AMNE12.jpg,AMSA17.jpg,AMSA11.jpg,MS,2,num_8,16,num_8,0.966771345469,,,2017_May_26_1130,60.0034449225,FEMA4ImagesEEG,001,200510,
AFNE01.JPG,AFNE01.JPG,AFNE01.JPG,AFNE01.JPG,AFNE01.JPG,AFNE01.JPG,,,,,1,6,16,8,,,,,,,,,,,,,,,,,,,AMNE01.jpg,AMNE08.jpg,AMSA07.jpg,AMSA18.jpg,AMSA18.jpg,MS,2,num_4,16,num_4,0.516805007122,,,2017_May_26_1130,60.0034449225,FEMA4ImagesEEG,001,200510,
AFNE01.JPG,AFNE01.JPG,AFNE01.JPG,AFNE01.JPG,AFNE01.JPG,AFNE01.JPG,,,,,1,7,17,0,,,,,,,,,,,,,,,,,,,AMNE11.jpg,AMSA19.jpg,AMNE14.jpg,AMSA10.jpg,AMSA19.jpg,MS,2,num_6,32,num_8,0.933447751915,,,2017_May_26_1130,60.0034449225,FEMA4ImagesEEG,001,200510,
AFNE01.JPG,AFNE01.JPG,AFNE01.JPG,AFNE01.JPG,AFNE01.JPG,AFNE01.JPG,,,,,1,8,18,5,,,,,,,,,,,,,,,,,,,AMNE03.jpg,AMNE20.jpg,AMSA07.jpg,AMSA18.jpg,AMNE03.jpg,MN,1,num_8,16,num_8,2.03338004381,,,2017_May_26_1130,60.0034449225,FEMA4ImagesEEG,001,200510,
AFNE01.JPG,AFNE01.JPG,AFNE01.JPG,AFNE01.JPG,AFNE01.JPG,AFNE01.JPG,,,,,1,9,19,6,,,,,,,,,,,,,,,,,,,AMSA06.jpg,AMSA15.jpg,AMNE10.jpg,AMNE04.jpg,AMSA06.jpg,MS,2,num_8,32,num_2,1.03344964422,,,2017_May_26_1130,60.0034449225,FEMA4ImagesEEG,001,200510,
AFNE01.JPG,AFNE01.JPG,AFNE01.JPG,AFNE01.JPG,AFNE01.JPG,AFNE01.JPG,,,,,2,0,20,3,,,,,,,,,,,,,,,,,,,AMSA02.jpg,AMSA04.jpg,AMNE17.jpg,AMNE14.jpg,AMSA04.jpg,MS,2,num_6,16,num_6,1.0167875269,,,2017_May_26_1130,60.0034449225,FEMA4ImagesEEG,001,200510,
AFNE01.JPG,AFNE01.JPG,AFNE01.JPG,AFNE01.JPG,AFNE01.JPG,AFNE01.JPG,,,,,2,1,21,6,,,,,,,,,,,,,,,,,,,AMNE04.jpg,AMNE03.jpg,AMSA14.jpg,AMSA07.jpg,AMSA14.jpg,MS,2,num_2,32,num_4,0.950170489261,,,2017_May_26_1130,60.0034449225,FEMA4ImagesEEG,001,200510,
AFNE01.JPG,AFNE01.JPG,AFNE01.JPG,AFNE01.JPG,AFNE01.JPG,AFNE01.JPG,,,,,2,2,22,8,,,,,,,,,,,,,,,,,,,AMSA02.jpg,AMNE18.jpg,AMSA06.jpg,AMNE06.jpg,AMSA02.jpg,MS,2,num_8,16,num_8,1.00016261521,,,2017_May_26_1130,60.0034449225,FEMA4ImagesEEG,001,200510,
AFNE01.JPG,AFNE01.JPG,AFNE01.JPG,AFNE01.JPG,AFNE01.JPG,AFNE01.JPG,,,,,2,3,23,2,,,,,,,,,,,,,,,,,,,AMSA18.jpg,AMNE18.jpg,AMSA10.jpg,AMNE19.jpg,AMNE18.jpg,MN,1,num_6,16,num_6,0.850136522902,,,2017_May_26_1130,60.0034449225,FEMA4ImagesEEG,001,200510,
AFNE01.JPG,AFNE01.JPG,AFNE01.JPG,AFNE01.JPG,AFNE01.JPG,AFNE01.JPG,,,,,2,4,24,1,,,,,,,,,,,,,,,,,,,AMSA06.jpg,AMSA10.jpg,AMNE10.jpg,AMNE16.jpg,AMNE16.jpg,MN,1,num_4,32,num_6,0.966790269129,,,2017_May_26_1130,60.0034449225,FEMA4ImagesEEG,001,200510,
AFNE01.JPG,AFNE01.JPG,AFNE01.JPG,AFNE01.JPG,AFNE01.JPG,AFNE01.JPG,,,,,2,5,25,7,,,,,,,,,,,,,,,,,,,AMNE12.jpg,AMSA05.jpg,AMNE14.jpg,AMSA14.jpg,AMSA05.jpg,MS,2,num_6,32,num_4,1.01675096247,,,2017_May_26_1130,60.0034449225,FEMA4ImagesEEG,001,200510,
AFNE01.JPG,AFNE01.JPG,AFNE01.JPG,AFNE01.JPG,AFNE01.JPG,AFNE01.JPG,,,,,2,6,26,5,,,,,,,,,,,,,,,,,,,AMNE05.jpg,AMSA11.jpg,AMSA09.jpg,AMNE13.jpg,AMNE13.jpg,MN,1,num_4,32,num_8,0.766726506059,,,2017_May_26_1130,60.0034449225,FEMA4ImagesEEG,001,200510,
AFNE01.JPG,AFNE01.JPG,AFNE01.JPG,AFNE01.JPG,AFNE01.JPG,AFNE01.JPG,,,,,2,7,27,9,,,,,,,,,,,,,,,,,,,AMNE07.jpg,AMNE08.jpg,AMSA14.jpg,AMSA01.jpg,AMNE07.jpg,MN,1,num_8,16,num_8,0.983441802207,,,2017_May_26_1130,60.0034449225,FEMA4ImagesEEG,001,200510,
AFNE01.JPG,AFNE01.JPG,AFNE01.JPG,AFNE01.JPG,AFNE01.JPG,AFNE01.JPG,,,,,2,8,28,0,,,,,,,,,,,,,,,,,,,AMSA12.jpg,AMSA09.jpg,AMNE04.jpg,AMNE20.jpg,AMSA09.jpg,MS,2,num_6,16,num_6,0.750127253588,,,2017_May_26_1130,60.0034449225,FEMA4ImagesEEG,001,200510,
AFNE01.JPG,AFNE01.JPG,AFNE01.JPG,AFNE01.JPG,AFNE01.JPG,AFNE01.JPG,,,,,2,9,29,4,,,,,,,,,,,,,,,,,,,AMSA05.jpg,AMSA17.jpg,AMNE10.jpg,AMNE07.jpg,AMNE10.jpg,MN,1,num_2,16,num_2,1.08341418649,,,2017_May_26_1130,60.0034449225,FEMA4ImagesEEG,001,200510,
AFNE01.JPG,AFNE01.JPG,AFNE01.JPG,AFNE01.JPG,AFNE01.JPG,AFNE01.JPG,,,,,3,0,30,3,,,,,,,,,,,,,,,,,,,AMSA08.jpg,AMNE12.jpg,AMNE06.jpg,AMSA19.jpg,AMNE06.jpg,MN,1,num_2,16,num_2,2.36663458194,,,2017_May_26_1130,60.0034449225,FEMA4ImagesEEG,001,200510,
AFNE01.JPG,AFNE01.JPG,AFNE01.JPG,AFNE01.JPG,AFNE01.JPG,AFNE01.JPG,,,,,3,1,31,5,,,,,,,,,,,,,,,,,,,AMSA04.jpg,AMNE19.jpg,AMSA10.jpg,AMNE13.jpg,AMSA04.jpg,MS,2,num_8,16,num_8,0.800397460931,,,2017_May_26_1130,60.0034449225,FEMA4ImagesEEG,001,200510,
AFNE01.JPG,AFNE01.JPG,AFNE01.JPG,AFNE01.JPG,AFNE01.JPG,AFNE01.JPG,,,,,3,2,32,1,,,,,,,,,,,,,,,,,,,AMSA16.jpg,AMNE20.jpg,AMSA15.jpg,AMNE15.jpg,AMSA15.jpg,MS,2,num_2,16,num_2,0.983411973342,,,2017_May_26_1130,60.0034449225,FEMA4ImagesEEG,001,200510,
AFNE01.JPG,AFNE01.JPG,AFNE01.JPG,AFNE01.JPG,AFNE01.JPG,AFNE01.JPG,,,,,3,3,33,7,,,,,,,,,,,,,,,,,,,AMSA05.jpg,AMSA06.jpg,AMNE13.jpg,AMNE15.jpg,AMNE13.jpg,MN,1,num_2,32,num_8,1.16675299907,,,2017_May_26_1130,60.0034449225,FEMA4ImagesEEG,001,200510,
AFNE01.JPG,AFNE01.JPG,AFNE01.JPG,AFNE01.JPG,AFNE01.JPG,AFNE01.JPG,,,,,3,4,34,2,,,,,,,,,,,,,,,,,,,AMSA15.jpg,AMNE03.jpg,AMNE19.jpg,AMSA07.jpg,AMSA07.jpg,MS,2,num_4,32,num_6,1.53344338993,,,2017_May_26_1130,60.0034449225,FEMA4ImagesEEG,001,200510,
AFNE01.JPG,AFNE01.JPG,AFNE01.JPG,AFNE01.JPG,AFNE01.JPG,AFNE01.JPG,,,,,3,5,35,4,,,,,,,,,,,,,,,,,,,AMNE02.jpg,AMNE11.jpg,AMSA08.jpg,AMSA04.jpg,AMNE11.jpg,MN,1,num_6,32,num_2,1.25019059971,,,2017_May_26_1130,60.0034449225,FEMA4ImagesEEG,001,200510,
AFNE01.JPG,AFNE01.JPG,AFNE01.JPG,AFNE01.JPG,AFNE01.JPG,AFNE01.JPG,,,,,3,6,36,6,,,,,,,,,,,,,,,,,,,AMSA01.jpg,AMSA10.jpg,AMNE17.jpg,AMNE11.jpg,AMSA10.jpg,MS,2,num_6,32,num_4,1.00008884491,,,2017_May_26_1130,60.0034449225,FEMA4ImagesEEG,001,200510,
AFNE01.JPG,AFNE01.JPG,AFNE01.JPG,AFNE01.JPG,AFNE01.JPG,AFNE01.JPG,,,,,3,7,37,0,,,,,,,,,,,,,,,,,,,AMNE13.jpg,AMNE05.jpg,AMSA20.jpg,AMSA10.jpg,AMSA10.jpg,MS,2,num_4,32,num_2,1.28341187723,,,2017_May_26_1130,60.0034449225,FEMA4ImagesEEG,001,200510,
AFNE01.JPG,AFNE01.JPG,AFNE01.JPG,AFNE01.JPG,AFNE01.JPG,AFNE01.JPG,,,,,3,8,38,9,,,,,,,,,,,,,,,,,,,AMNE03.jpg,AMSA06.jpg,AMNE08.jpg,AMSA08.jpg,AMNE03.jpg,MN,1,num_8,32,num_4,1.20011347777,,,2017_May_26_1130,60.0034449225,FEMA4ImagesEEG,001,200510,
AFNE01.JPG,AFNE01.JPG,AFNE01.JPG,AFNE01.JPG,AFNE01.JPG,AFNE01.JPG,,,,,3,9,39,8,,,,,,,,,,,,,,,,,,,AMNE13.jpg,AMSA01.jpg,AMSA06.jpg,AMNE20.jpg,AMSA01.jpg,MS,2,num_6,16,num_6,0.933438129723,,,2017_May_26_1130,60.0034449225,FEMA4ImagesEEG,001,200510,
AFNE01.JPG,AFNE01.JPG,AFNE01.JPG,AFNE01.JPG,AFNE01.JPG,AFNE01.JPG,,,,,4,0,40,7,,,,,,,,,,,,,,,,,,,AMSA14.jpg,AMSA06.jpg,AMNE07.jpg,AMNE03.jpg,AMSA06.jpg,MS,2,num_6,32,num_2,1.00009076938,,,2017_May_26_1130,60.0034449225,FEMA4ImagesEEG,001,200510,
AFNE01.JPG,AFNE01.JPG,AFNE01.JPG,AFNE01.JPG,AFNE01.JPG,AFNE01.JPG,,,,,4,1,41,8,,,,,,,,,,,,,,,,,,,AMSA02.jpg,AMNE09.jpg,AMSA09.jpg,AMNE13.jpg,AMNE13.jpg,MN,1,num_4,16,num_4,0.933458336396,,,2017_May_26_1130,60.0034449225,FEMA4ImagesEEG,001,200510,
AFNE01.JPG,AFNE01.JPG,AFNE01.JPG,AFNE01.JPG,AFNE01.JPG,AFNE01.JPG,,,,,4,2,42,9,,,,,,,,,,,,,,,,,,,AMSA01.jpg,AMNE08.jpg,AMNE15.jpg,AMSA10.jpg,AMSA01.jpg,MS,2,num_8,16,num_8,1.03333578166,,,2017_May_26_1130,60.0034449225,FEMA4ImagesEEG,001,200510,
AFNE01.JPG,AFNE01.JPG,AFNE01.JPG,AFNE01.JPG,AFNE01.JPG,AFNE01.JPG,,,,,4,3,43,1,,,,,,,,,,,,,,,,,,,AMNE05.jpg,AMNE02.jpg,AMSA12.jpg,AMSA16.jpg,AMSA12.jpg,MS,2,num_2,32,num_4,1.40005311451,,,2017_May_26_1130,60.0034449225,FEMA4ImagesEEG,001,200510,
AFNE01.JPG,AFNE01.JPG,AFNE01.JPG,AFNE01.JPG,AFNE01.JPG,AFNE01.JPG,,,,,4,4,44,6,,,,,,,,,,,,,,,,,,,AMNE04.jpg,AMNE15.jpg,AMSA08.jpg,AMSA17.jpg,AMNE04.jpg,MN,1,num_8,32,num_2,0.75013687578,,,2017_May_26_1130,60.0034449225,FEMA4ImagesEEG,001,200510,
AFNE01.JPG,AFNE01.JPG,AFNE01.JPG,AFNE01.JPG,AFNE01.JPG,AFNE01.JPG,,,,,4,5,45,5,,,,,,,,,,,,,,,,,,,AMSA08.jpg,AMSA14.jpg,AMNE18.jpg,AMNE08.jpg,AMNE08.jpg,MN,1,num_4,32,num_8,1.20007081935,,,2017_May_26_1130,60.0034449225,FEMA4ImagesEEG,001,200510,
AFNE01.JPG,AFNE01.JPG,AFNE01.JPG,AFNE01.JPG,AFNE01.JPG,AFNE01.JPG,,,,,4,6,46,2,,,,,,,,,,,,,,,,,,,AMSA17.jpg,AMSA20.jpg,AMNE20.jpg,AMNE07.jpg,AMNE07.jpg,MN,1,num_4,16,num_4,1.06674469193,,,2017_May_26_1130,60.0034449225,FEMA4ImagesEEG,001,200510,
AFNE01.JPG,AFNE01.JPG,AFNE01.JPG,AFNE01.JPG,AFNE01.JPG,AFNE01.JPG,,,,,4,7,47,3,,,,,,,,,,,,,,,,,,,AMSA07.jpg,AMSA20.jpg,AMNE17.jpg,AMNE18.jpg,AMSA20.jpg,MS,2,num_6,32,num_2,1.30012210575,,,2017_May_26_1130,60.0034449225,FEMA4ImagesEEG,001,200510,
AFNE01.JPG,AFNE01.JPG,AFNE01.JPG,AFNE01.JPG,AFNE01.JPG,AFNE01.JPG,,,,,4,8,48,0,,,,,,,,,,,,,,,,,,,AMSA11.jpg,AMSA18.jpg,AMNE13.jpg,AMNE06.jpg,AMNE13.jpg,MN,1,num_2,32,num_6,1.70004179236,,,2017_May_26_1130,60.0034449225,FEMA4ImagesEEG,001,200510,
AFNE01.JPG,AFNE01.JPG,AFNE01.JPG,AFNE01.JPG,AFNE01.JPG,AFNE01.JPG,,,,,4,9,49,4,,,,,,,,,,,,,,,,,,,AMNE18.jpg,AMSA12.jpg,AMNE14.jpg,AMSA06.jpg,AMSA06.jpg,MS,2,num_4,32,num_6,1.31673482934,,,2017_May_26_1130,60.0034449225,FEMA4ImagesEEG,001,200510,
AFNE01.JPG,AFNE01.JPG,AFNE01.JPG,AFNE01.JPG,AFNE01.JPG,AFNE01.JPG,,,,,5,0,50,7,,,,,,,,,,,,,,,,,,,AMNE19.jpg,AMSA08.jpg,AMSA20.jpg,AMNE06.jpg,AMSA08.jpg,MS,2,num_6,32,num_4,1.5497536558,,,2017_May_26_1130,60.0034449225,FEMA4ImagesEEG,001,200510,
AFNE01.JPG,AFNE01.JPG,AFNE01.JPG,AFNE01.JPG,AFNE01.JPG,AFNE01.JPG,,,,,5,1,51,0,,,,,,,,,,,,,,,,,,,AMNE15.jpg,AMNE10.jpg,AMSA11.jpg,AMSA09.jpg,AMSA09.jpg,MS,2,num_4,32,num_8,0.933426262462,,,2017_May_26_1130,60.0034449225,FEMA4ImagesEEG,001,200510,
AFNE01.JPG,AFNE01.JPG,AFNE01.JPG,AFNE01.JPG,AFNE01.JPG,AFNE01.JPG,,,,,5,2,52,1,,,,,,,,,,,,,,,,,,,AMSA19.jpg,AMNE08.jpg,AMNE14.jpg,AMSA01.jpg,AMNE14.jpg,MN,1,num_2,16,num_2,0.933318173047,,,2017_May_26_1130,60.0034449225,FEMA4ImagesEEG,001,200510,
AFNE01.JPG,AFNE01.JPG,AFNE01.JPG,AFNE01.JPG,AFNE01.JPG,AFNE01.JPG,,,,,5,3,53,8,,,,,,,,,,,,,,,,,,,AMNE20.jpg,AMNE01.jpg,AMSA18.jpg,AMSA16.jpg,AMNE20.jpg,MN,1,num_8,16,num_8,1.11675766588,,,2017_May_26_1130,60.0034449225,FEMA4ImagesEEG,001,200510,
AFNE01.JPG,AFNE01.JPG,AFNE01.JPG,AFNE01.JPG,AFNE01.JPG,AFNE01.JPG,,,,,5,4,54,9,,,,,,,,,,,,,,,,,,,AMNE17.jpg,AMSA17.jpg,AMSA15.jpg,AMNE16.jpg,AMSA17.jpg,MS,2,num_6,32,num_8,1.08346261817,,,2017_May_26_1130,60.0034449225,FEMA4ImagesEEG,001,200510,
AFNE01.JPG,AFNE01.JPG,AFNE01.JPG,AFNE01.JPG,AFNE01.JPG,AFNE01.JPG,,,,,5,5,55,4,,,,,,,,,,,,,,,,,,,AMSA02.jpg,AMSA19.jpg,AMNE18.jpg,AMNE10.jpg,AMSA02.jpg,MS,2,num_8,16,num_8,1.1500905609,,,2017_May_26_1130,60.0034449225,FEMA4ImagesEEG,001,200510,
AFNE01.JPG,AFNE01.JPG,AFNE01.JPG,AFNE01.JPG,AFNE01.JPG,AFNE01.JPG,,,,,5,6,56,5,,,,,,,,,,,,,,,,,,,AMSA18.jpg,AMNE10.jpg,AMSA08.jpg,AMNE14.jpg,AMSA08.jpg,MS,2,num_2,16,num_2,1.4000309835,,,2017_May_26_1130,60.0034449225,FEMA4ImagesEEG,001,200510,
AFNE01.JPG,AFNE01.JPG,AFNE01.JPG,AFNE01.JPG,AFNE01.JPG,AFNE01.JPG,,,,,5,7,57,2,,,,,,,,,,,,,,,,,,,AMNE03.jpg,AMSA14.jpg,AMSA19.jpg,AMNE10.jpg,AMNE03.jpg,MN,1,num_8,16,num_8,1.26672249683,,,2017_May_26_1130,60.0034449225,FEMA4ImagesEEG,001,200510,
AFNE01.JPG,AFNE01.JPG,AFNE01.JPG,AFNE01.JPG,AFNE01.JPG,AFNE01.JPG,,,,,5,8,58,6,,,,,,,,,,,,,,,,,,,AMNE16.jpg,AMNE15.jpg,AMSA07.jpg,AMSA18.jpg,AMSA18.jpg,MS,2,num_4,16,num_4,0.666777215083,,,2017_May_26_1130,60.0034449225,FEMA4ImagesEEG,001,200510,
AFNE01.JPG,AFNE01.JPG,AFNE01.JPG,AFNE01.JPG,AFNE01.JPG,AFNE01.JPG,,,,,5,9,59,3,,,,,,,,,,,,,,,,,,,AMSA02.jpg,AMNE12.jpg,AMNE16.jpg,AMSA14.jpg,AMNE12.jpg,MN,1,num_6,32,num_2,1.23339826171,,,2017_May_26_1130,60.0034449225,FEMA4ImagesEEG,001,200510,
,,,,,,,,,,,,,,,,,,,,,,,,,,,,,,,,,,,,,,,,,,,space,31.0310681505,2017_May_26_1130,60.0034449225,FEMA4ImagesEEG,001,200510,
AFNE01.JPG,AFNE01.JPG,AFNE01.JPG,AFNE01.JPG,AFNE01.JPG,AFNE01.JPG,,,,,,,,,0,0,0,3,,,,,,,,,,,,,,,AFSA17.jpg,AFSA01.jpg,AFNE18.jpg,AFNE06.jpg,AFSA01.jpg,FS,4,num_6,32,num_4,0.866738662007,,,2017_May_26_1130,60.0034449225,FEMA4ImagesEEG,001,200510,
AFNE01.JPG,AFNE01.JPG,AFNE01.JPG,AFNE01.JPG,AFNE01.JPG,AFNE01.JPG,,,,,,,,,0,1,1,2,,,,,,,,,,,,,,,AFNE09.jpg,AFSA12.jpg,AFNE20.jpg,AFSA17.jpg,AFNE09.jpg,FN,3,num_8,32,num_2,1.10008560552,,,2017_May_26_1130,60.0034449225,FEMA4ImagesEEG,001,200510,
AFNE01.JPG,AFNE01.JPG,AFNE01.JPG,AFNE01.JPG,AFNE01.JPG,AFNE01.JPG,,,,,,,,,0,2,2,4,,,,,,,,,,,,,,,AFSA14.jpg,AFNE07.jpg,AFSA11.jpg,AFNE18.jpg,AFNE18.jpg,FN,3,num_4,32,num_8,0.683467878378,,,2017_May_26_1130,60.0034449225,FEMA4ImagesEEG,001,200510,
AFNE01.JPG,AFNE01.JPG,AFNE01.JPG,AFNE01.JPG,AFNE01.JPG,AFNE01.JPG,,,,,,,,,0,3,3,5,,,,,,,,,,,,,,,AFSA02.jpg,AFNE20.jpg,AFNE14.jpg,AFSA03.jpg,AFSA03.jpg,FS,4,num_4,16,num_4,0.600134197506,,,2017_May_26_1130,60.0034449225,FEMA4ImagesEEG,001,200510,
AFNE01.JPG,AFNE01.JPG,AFNE01.JPG,AFNE01.JPG,AFNE01.JPG,AFNE01.JPG,,,,,,,,,0,4,4,8,,,,,,,,,,,,,,,AFNE11.jpg,AFSA01.jpg,AFSA11.jpg,AFNE05.jpg,AFSA11.jpg,FS,4,num_2,16,num_2,0.483467621729,,,2017_May_26_1130,60.0034449225,FEMA4ImagesEEG,001,200510,
AFNE01.JPG,AFNE01.JPG,AFNE01.JPG,AFNE01.JPG,AFNE01.JPG,AFNE01.JPG,,,,,,,,,0,5,5,6,,,,,,,,,,,,,,,AFSA20.jpg,AFNE11.jpg,AFSA04.jpg,AFNE04.jpg,AFNE11.jpg,FN,3,num_6,16,num_6,0.8168414752,,,2017_May_26_1130,60.0034449225,FEMA4ImagesEEG,001,200510,
AFNE01.JPG,AFNE01.JPG,AFNE01.JPG,AFNE01.JPG,AFNE01.JPG,AFNE01.JPG,,,,,,,,,0,6,6,1,,,,,,,,,,,,,,,AFNE11.jpg,AFNE14.jpg,AFSA17.jpg,AFSA08.jpg,AFNE14.jpg,FN,3,num_6,16,num_6,1.18341158854,,,2017_May_26_1130,60.0034449225,FEMA4ImagesEEG,001,200510,
AFNE01.JPG,AFNE01.JPG,AFNE01.JPG,AFNE01.JPG,AFNE01.JPG,AFNE01.JPG,,,,,,,,,0,7,7,9,,,,,,,,,,,,,,,AFNE18.jpg,AFNE17.jpg,AFSA13.jpg,AFSA08.jpg,AFNE17.jpg,FN,3,num_6,32,num_8,1.11675638298,,,2017_May_26_1130,60.0034449225,FEMA4ImagesEEG,001,200510,
AFNE01.JPG,AFNE01.JPG,AFNE01.JPG,AFNE01.JPG,AFNE01.JPG,AFNE01.JPG,,,,,,,,,0,8,8,0,,,,,,,,,,,,,,,AFSA18.jpg,AFNE11.jpg,AFSA03.jpg,AFNE03.jpg,AFNE11.jpg,FN,3,num_6,16,num_6,0.600246456568,,,2017_May_26_1130,60.0034449225,FEMA4ImagesEEG,001,200510,
AFNE01.JPG,AFNE01.JPG,AFNE01.JPG,AFNE01.JPG,AFNE01.JPG,AFNE01.JPG,,,,,,,,,0,9,9,7,,,,,,,,,,,,,,,AFNE06.jpg,AFSA12.jpg,AFSA19.jpg,AFNE14.jpg,AFSA19.jpg,FS,4,num_2,16,num_2,0.916762861889,,,2017_May_26_1130,60.0034449225,FEMA4ImagesEEG,001,200510,
AFNE01.JPG,AFNE01.JPG,AFNE01.JPG,AFNE01.JPG,AFNE01.JPG,AFNE01.JPG,,,,,,,,,1,0,10,7,,,,,,,,,,,,,,,AFSA15.jpg,AFNE11.jpg,AFNE20.jpg,AFSA12.jpg,AFNE11.jpg,FN,3,num_6,16,num_6,0.750098386896,,,2017_May_26_1130,60.0034449225,FEMA4ImagesEEG,001,200510,
AFNE01.JPG,AFNE01.JPG,AFNE01.JPG,AFNE01.JPG,AFNE01.JPG,AFNE01.JPG,,,,,,,,,1,1,11,1,,,,,,,,,,,,,,,AFSA08.jpg,AFNE08.jpg,AFNE10.jpg,AFSA12.jpg,AFNE10.jpg,FN,3,num_2,32,num_8,0.799971197615,,,2017_May_26_1130,60.0034449225,FEMA4ImagesEEG,001,200510,
AFNE01.JPG,AFNE01.JPG,AFNE01.JPG,AFNE01.JPG,AFNE01.JPG,AFNE01.JPG,,,,,,,,,1,2,12,3,,,,,,,,,,,,,,,AFSA05.jpg,AFSA12.jpg,AFNE03.jpg,AFNE08.jpg,AFSA05.jpg,FS,4,num_8,32,num_6,0.900143402861,,,2017_May_26_1130,60.0034449225,FEMA4ImagesEEG,001,200510,
AFNE01.JPG,AFNE01.JPG,AFNE01.JPG,AFNE01.JPG,AFNE01.JPG,AFNE01.JPG,,,,,,,,,1,3,13,6,,,,,,,,,,,,,,,AFNE12.jpg,AFSA06.jpg,AFNE09.jpg,AFSA07.jpg,AFNE09.jpg,FN,3,num_2,32,num_8,0.700101449969,,,2017_May_26_1130,60.0034449225,FEMA4ImagesEEG,001,200510,
AFNE01.JPG,AFNE01.JPG,AFNE01.JPG,AFNE01.JPG,AFNE01.JPG,AFNE01.JPG,,,,,,,,,1,4,14,5,,,,,,,,,,,,,,,AFNE02.jpg,AFSA05.jpg,AFNE01.jpg,AFSA07.jpg,AFSA07.jpg,FS,4,num_4,16,num_4,0.866706267348,,,2017_May_26_1130,60.0034449225,FEMA4ImagesEEG,001,200510,
AFNE01.JPG,AFNE01.JPG,AFNE01.JPG,AFNE01.JPG,AFNE01.JPG,AFNE01.JPG,,,,,,,,,1,5,15,0,,,,,,,,,,,,,,,AFNE01.jpg,AFSA20.jpg,AFSA09.jpg,AFNE08.jpg,AFSA20.jpg,FS,4,num_6,16,num_6,0.783487090725,,,2017_May_26_1130,60.0034449225,FEMA4ImagesEEG,001,200510,
AFNE01.JPG,AFNE01.JPG,AFNE01.JPG,AFNE01.JPG,AFNE01.JPG,AFNE01.JPG,,,,,,,,,1,6,16,2,,,,,,,,,,,,,,,AFNE15.jpg,AFSA13.jpg,AFSA01.jpg,AFNE20.jpg,AFSA13.jpg,FS,4,num_6,32,num_2,0.86673737911,,,2017_May_26_1130,60.0034449225,FEMA4ImagesEEG,001,200510,
AFNE01.JPG,AFNE01.JPG,AFNE01.JPG,AFNE01.JPG,AFNE01.JPG,AFNE01.JPG,,,,,,,,,1,7,17,9,,,,,,,,,,,,,,,AFNE14.jpg,AFSA09.jpg,AFSA15.jpg,AFNE01.jpg,AFSA15.jpg,FS,4,num_2,16,num_2,0.600151196821,,,2017_May_26_1130,60.0034449225,FEMA4ImagesEEG,001,200510,
AFNE01.JPG,AFNE01.JPG,AFNE01.JPG,AFNE01.JPG,AFNE01.JPG,AFNE01.JPG,,,,,,,,,1,8,18,4,,,,,,,,,,,,,,,AFNE04.jpg,AFSA07.jpg,AFSA16.jpg,AFNE10.jpg,AFNE04.jpg,FN,3,num_8,32,num_4,0.683433238417,,,2017_May_26_1130,60.0034449225,FEMA4ImagesEEG,001,200510,
AFNE01.JPG,AFNE01.JPG,AFNE01.JPG,AFNE01.JPG,AFNE01.JPG,AFNE01.JPG,,,,,,,,,1,9,19,8,,,,,,,,,,,,,,,AFNE15.jpg,AFNE09.jpg,AFSA04.jpg,AFSA14.jpg,AFSA14.jpg,FS,4,num_4,32,num_8,1.3834121658,,,2017_May_26_1130,60.0034449225,FEMA4ImagesEEG,001,200510,
AFNE01.JPG,AFNE01.JPG,AFNE01.JPG,AFNE01.JPG,AFNE01.JPG,AFNE01.JPG,,,,,,,,,2,0,20,9,,,,,,,,,,,,,,,AFSA02.jpg,AFNE02.jpg,AFSA17.jpg,AFNE17.jpg,AFNE02.jpg,FN,3,num_6,32,num_8,1.58341691282,,,2017_May_26_1130,60.0034449225,FEMA4ImagesEEG,001,200510,
AFNE01.JPG,AFNE01.JPG,AFNE01.JPG,AFNE01.JPG,AFNE01.JPG,AFNE01.JPG,,,,,,,,,2,1,21,7,,,,,,,,,,,,,,,AFNE19.jpg,AFSA12.jpg,AFNE04.jpg,AFSA03.jpg,AFSA03.jpg,FS,4,num_4,16,num_4,1.06675688003,,,2017_May_26_1130,60.0034449225,FEMA4ImagesEEG,001,200510,
AFNE01.JPG,AFNE01.JPG,AFNE01.JPG,AFNE01.JPG,AFNE01.JPG,AFNE01.JPG,,,,,,,,,2,2,22,8,,,,,,,,,,,,,,,AFNE06.jpg,AFNE17.jpg,AFSA09.jpg,AFSA03.jpg,AFSA09.jpg,FS,4,num_2,32,num_8,1.40007364179,,,2017_May_26_1130,60.0034449225,FEMA4ImagesEEG,001,200510,
AFNE01.JPG,AFNE01.JPG,AFNE01.JPG,AFNE01.JPG,AFNE01.JPG,AFNE01.JPG,,,,,,,,,2,3,23,4,,,,,,,,,,,,,,,AFNE20.jpg,AFSA18.jpg,AFSA14.jpg,AFNE09.jpg,AFSA14.jpg,FS,4,num_2,16,num_2,1.04974579753,,,2017_May_26_1130,60.0034449225,FEMA4ImagesEEG,001,200510,
AFNE01.JPG,AFNE01.JPG,AFNE01.JPG,AFNE01.JPG,AFNE01.JPG,AFNE01.JPG,,,,,,,,,2,4,24,5,,,,,,,,,,,,,,,AFSA04.jpg,AFSA06.jpg,AFNE14.jpg,AFNE15.jpg,AFSA06.jpg,FS,4,num_6,16,num_6,0.950121095288,,,2017_May_26_1130,60.0034449225,FEMA4ImagesEEG,001,200510,
AFNE01.JPG,AFNE01.JPG,AFNE01.JPG,AFNE01.JPG,AFNE01.JPG,AFNE01.JPG,,,,,,,,,2,5,25,0,,,,,,,,,,,,,,,AFNE02.jpg,AFSA14.jpg,AFSA16.jpg,AFNE14.jpg,AFSA14.jpg,FS,4,num_6,16,num_6,0.53347129433,,,2017_May_26_1130,60.0034449225,FEMA4ImagesEEG,001,200510,
AFNE01.JPG,AFNE01.JPG,AFNE01.JPG,AFNE01.JPG,AFNE01.JPG,AFNE01.JPG,,,,,,,,,2,6,26,3,,,,,,,,,,,,,,,AFNE04.jpg,AFSA03.jpg,AFNE12.jpg,AFSA06.jpg,AFSA03.jpg,FS,4,num_6,32,num_8,1.31675086613,,,2017_May_26_1130,60.0034449225,FEMA4ImagesEEG,001,200510,
AFNE01.JPG,AFNE01.JPG,AFNE01.JPG,AFNE01.JPG,AFNE01.JPG,AFNE01.JPG,,,,,,,,,2,7,27,1,,,,,,,,,,,,,,,AFSA17.jpg,AFNE03.jpg,AFSA11.jpg,AFNE13.jpg,AFNE03.jpg,FN,3,num_6,32,num_4,0.800127397873,,,2017_May_26_1130,60.0034449225,FEMA4ImagesEEG,001,200510,
AFNE01.JPG,AFNE01.JPG,AFNE01.JPG,AFNE01.JPG,AFNE01.JPG,AFNE01.JPG,,,,,,,,,2,8,28,2,,,,,,,,,,,,,,,AFSA20.jpg,AFNE19.jpg,AFNE17.jpg,AFSA03.jpg,AFNE17.jpg,FN,3,num_2,16,num_2,1.38339933625,,,2017_May_26_1130,60.0034449225,FEMA4ImagesEEG,001,200510,
AFNE01.JPG,AFNE01.JPG,AFNE01.JPG,AFNE01.JPG,AFNE01.JPG,AFNE01.JPG,,,,,,,,,2,9,29,6,,,,,,,,,,,,,,,AFNE20.jpg,AFSA17.jpg,AFSA03.jpg,AFNE04.jpg,AFSA17.jpg,FS,4,num_6,32,num_2,1.38343590067,,,2017_May_26_1130,60.0034449225,FEMA4ImagesEEG,001,200510,
AFNE01.JPG,AFNE01.JPG,AFNE01.JPG,AFNE01.JPG,AFNE01.JPG,AFNE01.JPG,,,,,,,,,3,0,30,3,,,,,,,,,,,,,,,AFNE18.jpg,AFSA08.jpg,AFSA05.jpg,AFNE16.jpg,AFSA05.jpg,FS,4,num_2,32,num_8,0.950102813193,,,2017_May_26_1130,60.0034449225,FEMA4ImagesEEG,001,200510,
AFNE01.JPG,AFNE01.JPG,AFNE01.JPG,AFNE01.JPG,AFNE01.JPG,AFNE01.JPG,,,,,,,,,3,1,31,2,,,,,,,,,,,,,,,AFSA12.jpg,AFNE12.jpg,AFNE15.jpg,AFSA19.jpg,AFNE12.jpg,FN,3,num_6,16,num_6,0.766789691756,,,2017_May_26_1130,60.0034449225,FEMA4ImagesEEG,001,200510,
AFNE01.JPG,AFNE01.JPG,AFNE01.JPG,AFNE01.JPG,AFNE01.JPG,AFNE01.JPG,,,,,,,,,3,2,32,7,,,,,,,,,,,,,,,AFSA10.jpg,AFSA04.jpg,AFNE04.jpg,AFNE17.jpg,AFSA10.jpg,FS,4,num_8,16,num_8,1.01676058467,,,2017_May_26_1130,60.0034449225,FEMA4ImagesEEG,001,200510,
AFNE01.JPG,AFNE01.JPG,AFNE01.JPG,AFNE01.JPG,AFNE01.JPG,AFNE01.JPG,,,,,,,,,3,3,33,6,,,,,,,,,,,,,,,AFNE09.jpg,AFNE08.jpg,AFSA11.jpg,AFSA13.jpg,AFSA13.jpg,FS,4,num_4,16,num_4,1.5500269261,,,2017_May_26_1130,60.0034449225,FEMA4ImagesEEG,001,200510,
AFNE01.JPG,AFNE01.JPG,AFNE01.JPG,AFNE01.JPG,AFNE01.JPG,AFNE01.JPG,,,,,,,,,3,4,34,1,,,,,,,,,,,,,,,AFSA18.jpg,AFNE02.jpg,AFSA17.jpg,AFNE07.jpg,AFNE02.jpg,FN,3,num_6,32,num_8,0.866826224024,,,2017_May_26_1130,60.0034449225,FEMA4ImagesEEG,001,200510,
AFNE01.JPG,AFNE01.JPG,AFNE01.JPG,AFNE01.JPG,AFNE01.JPG,AFNE01.JPG,,,,,,,,,3,5,35,8,,,,,,,,,,,,,,,AFSA08.jpg,AFNE17.jpg,AFNE07.jpg,AFSA02.jpg,AFSA08.jpg,FS,4,num_8,32,num_4,1.06675848376,,,2017_May_26_1130,60.0034449225,FEMA4ImagesEEG,001,200510,
AFNE01.JPG,AFNE01.JPG,AFNE01.JPG,AFNE01.JPG,AFNE01.JPG,AFNE01.JPG,,,,,,,,,3,6,36,0,,,,,,,,,,,,,,,AFNE19.jpg,AFSA13.jpg,AFSA11.jpg,AFNE05.jpg,AFNE19.jpg,FN,3,num_8,32,num_6,1.21670022141,,,2017_May_26_1130,60.0034449225,FEMA4ImagesEEG,001,200510,
AFNE01.JPG,AFNE01.JPG,AFNE01.JPG,AFNE01.JPG,AFNE01.JPG,AFNE01.JPG,,,,,,,,,3,7,37,4,,,,,,,,,,,,,,,AFSA14.jpg,AFSA15.jpg,AFNE13.jpg,AFNE16.jpg,AFNE16.jpg,FN,3,num_4,32,num_2,1.13344448037,,,2017_May_26_1130,60.0034449225,FEMA4ImagesEEG,001,200510,
AFNE01.JPG,AFNE01.JPG,AFNE01.JPG,AFNE01.JPG,AFNE01.JPG,AFNE01.JPG,,,,,,,,,3,8,38,5,,,,,,,,,,,,,,,AFNE20.jpg,AFNE09.jpg,AFSA19.jpg,AFSA02.jpg,AFNE20.jpg,FN,3,num_8,16,num_8,1.71639503748,,,2017_May_26_1130,60.0034449225,FEMA4ImagesEEG,001,200510,
AFNE01.JPG,AFNE01.JPG,AFNE01.JPG,AFNE01.JPG,AFNE01.JPG,AFNE01.JPG,,,,,,,,,3,9,39,9,,,,,,,,,,,,,,,AFSA14.jpg,AFNE15.jpg,AFSA06.jpg,AFNE12.jpg,AFNE12.jpg,FN,3,num_4,16,num_4,0.750164459459,,,2017_May_26_1130,60.0034449225,FEMA4ImagesEEG,001,200510,
AFNE01.JPG,AFNE01.JPG,AFNE01.JPG,AFNE01.JPG,AFNE01.JPG,AFNE01.JPG,,,,,,,,,4,0,40,3,,,,,,,,,,,,,,,AFSA19.jpg,AFNE05.jpg,AFSA13.jpg,AFNE06.jpg,AFNE06.jpg,FN,3,num_4,32,num_8,1.01681029936,,,2017_May_26_1130,60.0034449225,FEMA4ImagesEEG,001,200510,
AFNE01.JPG,AFNE01.JPG,AFNE01.JPG,AFNE01.JPG,AFNE01.JPG,AFNE01.JPG,,,,,,,,,4,1,41,9,,,,,,,,,,,,,,,AFNE06.jpg,AFNE03.jpg,AFSA17.jpg,AFSA11.jpg,AFNE06.jpg,FN,3,num_8,32,num_6,1.30008201324,,,2017_May_26_1130,60.0034449225,FEMA4ImagesEEG,001,200510,
AFNE01.JPG,AFNE01.JPG,AFNE01.JPG,AFNE01.JPG,AFNE01.JPG,AFNE01.JPG,,,,,,,,,4,2,42,5,,,,,,,,,,,,,,,AFSA19.jpg,AFSA16.jpg,AFNE10.jpg,AFNE03.jpg,AFSA19.jpg,FS,4,num_8,32,num_6,0.733337160898,,,2017_May_26_1130,60.0034449225,FEMA4ImagesEEG,001,200510,
AFNE01.JPG,AFNE01.JPG,AFNE01.JPG,AFNE01.JPG,AFNE01.JPG,AFNE01.JPG,,,,,,,,,4,3,43,1,,,,,,,,,,,,,,,AFNE06.jpg,AFSA13.jpg,AFSA16.jpg,AFNE18.jpg,AFSA13.jpg,FS,4,num_6,32,num_8,1.16667698382,,,2017_May_26_1130,60.0034449225,FEMA4ImagesEEG,001,200510,
AFNE01.JPG,AFNE01.JPG,AFNE01.JPG,AFNE01.JPG,AFNE01.JPG,AFNE01.JPG,,,,,,,,,4,4,44,2,,,,,,,,,,,,,,,AFNE04.jpg,AFNE12.jpg,AFSA15.jpg,AFSA05.jpg,AFSA05.jpg,FS,4,num_4,16,num_4,0.80015401938,,,2017_May_26_1130,60.0034449225,FEMA4ImagesEEG,001,200510,
AFNE01.JPG,AFNE01.JPG,AFNE01.JPG,AFNE01.JPG,AFNE01.JPG,AFNE01.JPG,,,,,,,,,4,5,45,0,,,,,,,,,,,,,,,AFNE14.jpg,AFSA18.jpg,AFSA04.jpg,AFNE03.jpg,AFNE03.jpg,FN,3,num_4,32,num_2,1.30010318197,,,2017_May_26_1130,60.0034449225,FEMA4ImagesEEG,001,200510,
AFNE01.JPG,AFNE01.JPG,AFNE01.JPG,AFNE01.JPG,AFNE01.JPG,AFNE01.JPG,,,,,,,,,4,6,46,7,,,,,,,,,,,,,,,AFNE06.jpg,AFSA18.jpg,AFSA03.jpg,AFNE18.jpg,AFNE18.jpg,FN,3,num_4,32,num_6,1.5500561134,,,2017_May_26_1130,60.0034449225,FEMA4ImagesEEG,001,200510,
AFNE01.JPG,AFNE01.JPG,AFNE01.JPG,AFNE01.JPG,AFNE01.JPG,AFNE01.JPG,,,,,,,,,4,7,47,8,,,,,,,,,,,,,,,AFSA04.jpg,AFSA02.jpg,AFNE07.jpg,AFNE03.jpg,AFSA02.jpg,FS,4,num_6,32,num_4,1.25009405694,,,2017_May_26_1130,60.0034449225,FEMA4ImagesEEG,001,200510,
AFNE01.JPG,AFNE01.JPG,AFNE01.JPG,AFNE01.JPG,AFNE01.JPG,AFNE01.JPG,,,,,,,,,4,8,48,6,,,,,,,,,,,,,,,AFSA14.jpg,AFNE07.jpg,AFNE12.jpg,AFSA06.jpg,AFNE12.jpg,FN,3,num_2,16,num_2,1.60009538813,,,2017_May_26_1130,60.0034449225,FEMA4ImagesEEG,001,200510,
AFNE01.JPG,AFNE01.JPG,AFNE01.JPG,AFNE01.JPG,AFNE01.JPG,AFNE01.JPG,,,,,,,,,4,9,49,4,,,,,,,,,,,,,,,AFNE11.jpg,AFSA10.jpg,AFSA04.jpg,AFNE07.jpg,AFSA04.jpg,FS,4,num_2,32,num_4,1.51673572732,,,2017_May_26_1130,60.0034449225,FEMA4ImagesEEG,001,200510,
AFNE01.JPG,AFNE01.JPG,AFNE01.JPG,AFNE01.JPG,AFNE01.JPG,AFNE01.JPG,,,,,,,,,5,0,50,9,,,,,,,,,,,,,,,AFNE05.jpg,AFSA11.jpg,AFNE15.jpg,AFSA12.jpg,AFSA12.jpg,FS,4,num_4,16,num_4,0.91678980412,,,2017_May_26_1130,60.0034449225,FEMA4ImagesEEG,001,200510,
AFNE01.JPG,AFNE01.JPG,AFNE01.JPG,AFNE01.JPG,AFNE01.JPG,AFNE01.JPG,,,,,,,,,5,1,51,3,,,,,,,,,,,,,,,AFSA11.jpg,AFNE14.jpg,AFSA10.jpg,AFNE08.jpg,AFNE14.jpg,FN,3,num_6,32,num_4,1.08342252579,,,2017_May_26_1130,60.0034449225,FEMA4ImagesEEG,001,200510,
AFNE01.JPG,AFNE01.JPG,AFNE01.JPG,AFNE01.JPG,AFNE01.JPG,AFNE01.JPG,,,,,,,,,5,2,52,1,,,,,,,,,,,,,,,AFSA13.jpg,AFNE05.jpg,AFSA10.jpg,AFNE12.jpg,AFNE05.jpg,FN,3,num_6,16,num_6,1.7665266851,,,2017_May_26_1130,60.0034449225,FEMA4ImagesEEG,001,200510,
AFNE01.JPG,AFNE01.JPG,AFNE01.JPG,AFNE01.JPG,AFNE01.JPG,AFNE01.JPG,,,,,,,,,5,3,53,6,,,,,,,,,,,,,,,AFNE01.jpg,AFSA15.jpg,AFSA20.jpg,AFNE06.jpg,AFNE06.jpg,FN,3,num_4,16,num_4,0.683469161391,,,2017_May_26_1130,60.0034449225,FEMA4ImagesEEG,001,200510,
AFNE01.JPG,AFNE01.JPG,AFNE01.JPG,AFNE01.JPG,AFNE01.JPG,AFNE01.JPG,,,,,,,,,5,4,54,0,,,,,,,,,,,,,,,AFNE10.jpg,AFSA11.jpg,AFNE09.jpg,AFSA09.jpg,AFNE10.jpg,FN,3,num_8,16,num_8,1.15009569272,,,2017_May_26_1130,60.0034449225,FEMA4ImagesEEG,001,200510,
AFNE01.JPG,AFNE01.JPG,AFNE01.JPG,AFNE01.JPG,AFNE01.JPG,AFNE01.JPG,,,,,,,,,5,5,55,2,,,,,,,,,,,,,,,AFNE10.jpg,AFNE14.jpg,AFSA05.jpg,AFSA14.jpg,AFNE10.jpg,FN,3,num_8,32,num_4,0.966723555233,,,2017_May_26_1130,60.0034449225,FEMA4ImagesEEG,001,200510,
AFNE01.JPG,AFNE01.JPG,AFNE01.JPG,AFNE01.JPG,AFNE01.JPG,AFNE01.JPG,,,,,,,,,5,6,56,7,,,,,,,,,,,,,,,AFSA04.jpg,AFSA10.jpg,AFNE02.jpg,AFNE11.jpg,AFSA10.jpg,FS,4,num_6,32,num_2,1.09962662659,,,2017_May_26_1130,60.0034449225,FEMA4ImagesEEG,001,200510,
AFNE01.JPG,AFNE01.JPG,AFNE01.JPG,AFNE01.JPG,AFNE01.JPG,AFNE01.JPG,,,,,,,,,5,7,57,4,,,,,,,,,,,,,,,AFNE10.jpg,AFNE06.jpg,AFSA14.jpg,AFSA09.jpg,AFNE06.jpg,FN,3,num_6,32,num_2,1.15026472264,,,2017_May_26_1130,60.0034449225,FEMA4ImagesEEG,001,200510,
AFNE01.JPG,AFNE01.JPG,AFNE01.JPG,AFNE01.JPG,AFNE01.JPG,AFNE01.JPG,,,,,,,,,5,8,58,8,,,,,,,,,,,,,,,AFNE12.jpg,AFSA20.jpg,AFNE04.jpg,AFSA01.jpg,AFNE04.jpg,FN,3,num_2,16,num_2,0.816759365844,,,2017_May_26_1130,60.0034449225,FEMA4ImagesEEG,001,200510,
AFNE01.JPG,AFNE01.JPG,AFNE01.JPG,AFNE01.JPG,AFNE01.JPG,AFNE01.JPG,,,,,,,,,5,9,59,5,,,,,,,,,,,,,,,AFNE14.jpg,AFNE15.jpg,AFSA11.jpg,AFSA06.jpg,AFNE15.jpg,FN,3,num_6,32,num_8,1.41671298689,,,2017_May_26_1130,60.0034449225,FEMA4ImagesEEG,001,200510,
,,,,,,,,,,,,,,,,,,,,,,,,,,,,,,,,,,,,,,,,,,,space,57.7953903902,2017_May_26_1130,60.0034449225,FEMA4ImagesEEG,001,200510,
AFNE01.JPG,AFNE01.JPG,AFNE01.JPG,AFNE01.JPG,AFNE01.JPG,AFNE01.JPG,,,,,,,,,,,,,0,0,0,6,,,,,,,,,,,AMNE02.jpg,AMSA11.jpg,AMNE07.jpg,AMSA15.jpg,AMSA11.jpg,MS,2,num_6,32,num_2,0.916796539561,,,2017_May_26_1130,60.0034449225,FEMA4ImagesEEG,001,200510,
AFNE01.JPG,AFNE01.JPG,AFNE01.JPG,AFNE01.JPG,AFNE01.JPG,AFNE01.JPG,,,,,,,,,,,,,0,1,1,7,,,,,,,,,,,AMNE20.jpg,AMSA02.jpg,AMNE12.jpg,AMSA15.jpg,AMSA02.jpg,MS,2,num_6,16,num_6,0.550427851034,,,2017_May_26_1130,60.0034449225,FEMA4ImagesEEG,001,200510,
AFNE01.JPG,AFNE01.JPG,AFNE01.JPG,AFNE01.JPG,AFNE01.JPG,AFNE01.JPG,,,,,,,,,,,,,0,2,2,1,,,,,,,,,,,AMSA18.jpg,AMNE04.jpg,AMNE17.jpg,AMSA07.jpg,AMNE04.jpg,MN,1,num_6,32,num_8,0.816793684964,,,2017_May_26_1130,60.0034449225,FEMA4ImagesEEG,001,200510,
AFNE01.JPG,AFNE01.JPG,AFNE01.JPG,AFNE01.JPG,AFNE01.JPG,AFNE01.JPG,,,,,,,,,,,,,0,3,3,3,,,,,,,,,,,AMNE14.jpg,AMNE17.jpg,AMSA19.jpg,AMSA12.jpg,AMNE17.jpg,MN,1,num_6,16,num_6,0.500153794768,,,2017_May_26_1130,60.0034449225,FEMA4ImagesEEG,001,200510,
AFNE01.JPG,AFNE01.JPG,AFNE01.JPG,AFNE01.JPG,AFNE01.JPG,AFNE01.JPG,,,,,,,,,,,,,0,4,4,0,,,,,,,,,,,AMSA16.jpg,AMNE11.jpg,AMNE09.jpg,AMSA03.jpg,AMSA03.jpg,MS,2,num_4,16,num_4,0.883438626886,,,2017_May_26_1130,60.0034449225,FEMA4ImagesEEG,001,200510,
AFNE01.JPG,AFNE01.JPG,AFNE01.JPG,AFNE01.JPG,AFNE01.JPG,AFNE01.JPG,,,,,,,,,,,,,0,5,5,8,,,,,,,,,,,AMNE01.jpg,AMNE15.jpg,AMSA13.jpg,AMSA19.jpg,AMNE01.jpg,MN,1,num_8,16,num_8,0.76674222236,,,2017_May_26_1130,60.0034449225,FEMA4ImagesEEG,001,200510,
AFNE01.JPG,AFNE01.JPG,AFNE01.JPG,AFNE01.JPG,AFNE01.JPG,AFNE01.JPG,,,,,,,,,,,,,0,6,6,9,,,,,,,,,,,AMSA15.jpg,AMNE16.jpg,AMSA01.jpg,AMNE14.jpg,AMSA15.jpg,MS,2,num_8,16,num_8,1.15007452387,,,2017_May_26_1130,60.0034449225,FEMA4ImagesEEG,001,200510,
AFNE01.JPG,AFNE01.JPG,AFNE01.JPG,AFNE01.JPG,AFNE01.JPG,AFNE01.JPG,,,,,,,,,,,,,0,7,7,5,,,,,,,,,,,AMSA16.jpg,AMNE12.jpg,AMSA15.jpg,AMNE08.jpg,AMNE12.jpg,MN,1,num_6,32,num_4,0.800100455759,,,2017_May_26_1130,60.0034449225,FEMA4ImagesEEG,001,200510,
AFNE01.JPG,AFNE01.JPG,AFNE01.JPG,AFNE01.JPG,AFNE01.JPG,AFNE01.JPG,,,,,,,,,,,,,0,8,8,2,,,,,,,,,,,AMNE04.jpg,AMNE13.jpg,AMSA10.jpg,AMSA18.jpg,AMNE04.jpg,MN,1,num_8,16,num_8,0.666956187924,,,2017_May_26_1130,60.0034449225,FEMA4ImagesEEG,001,200510,
AFNE01.JPG,AFNE01.JPG,AFNE01.JPG,AFNE01.JPG,AFNE01.JPG,AFNE01.JPG,,,,,,,,,,,,,0,9,9,4,,,,,,,,,,,AMSA12.jpg,AMSA07.jpg,AMNE03.jpg,AMNE05.jpg,AMSA07.jpg,MS,2,num_6,16,num_6,0.850125617697,,,2017_May_26_1130,60.0034449225,FEMA4ImagesEEG,001,200510,
AFNE01.JPG,AFNE01.JPG,AFNE01.JPG,AFNE01.JPG,AFNE01.JPG,AFNE01.JPG,,,,,,,,,,,,,1,0,10,6,,,,,,,,,,,AMNE14.jpg,AMNE06.jpg,AMSA20.jpg,AMSA06.jpg,AMSA20.jpg,MS,2,num_2,32,num_6,0.866642760811,,,2017_May_26_1130,60.0034449225,FEMA4ImagesEEG,001,200510,
AFNE01.JPG,AFNE01.JPG,AFNE01.JPG,AFNE01.JPG,AFNE01.JPG,AFNE01.JPG,,,,,,,,,,,,,1,1,11,0,,,,,,,,,,,AMSA14.jpg,AMNE16.jpg,AMSA10.jpg,AMNE17.jpg,AMSA10.jpg,MS,2,num_2,32,num_8,1.71679275483,,,2017_May_26_1130,60.0034449225,FEMA4ImagesEEG,001,200510,
AFNE01.JPG,AFNE01.JPG,AFNE01.JPG,AFNE01.JPG,AFNE01.JPG,AFNE01.JPG,,,,,,,,,,,,,1,2,12,7,,,,,,,,,,,AMNE10.jpg,AMSA02.jpg,AMSA04.jpg,AMNE17.jpg,AMSA04.jpg,MS,2,num_2,16,num_2,1.01672081288,,,2017_May_26_1130,60.0034449225,FEMA4ImagesEEG,001,200510,
AFNE01.JPG,AFNE01.JPG,AFNE01.JPG,AFNE01.JPG,AFNE01.JPG,AFNE01.JPG,,,,,,,,,,,,,1,3,13,3,,,,,,,,,,,AMSA20.jpg,AMSA01.jpg,AMNE15.jpg,AMNE17.jpg,AMNE17.jpg,MN,1,num_4,16,num_4,0.583483947441,,,2017_May_26_1130,60.0034449225,FEMA4ImagesEEG,001,200510,
AFNE01.JPG,AFNE01.JPG,AFNE01.JPG,AFNE01.JPG,AFNE01.JPG,AFNE01.JPG,,,,,,,,,,,,,1,4,14,4,,,,,,,,,,,AMNE15.jpg,AMSA17.jpg,AMNE16.jpg,AMSA06.jpg,AMSA17.jpg,MS,2,num_6,16,num_6,0.500134871108,,,2017_May_26_1130,60.0034449225,FEMA4ImagesEEG,001,200510,
AFNE01.JPG,AFNE01.JPG,AFNE01.JPG,AFNE01.JPG,AFNE01.JPG,AFNE01.JPG,,,,,,,,,,,,,1,5,15,5,,,,,,,,,,,AMSA06.jpg,AMSA17.jpg,AMNE15.jpg,AMNE14.jpg,AMNE15.jpg,MN,1,num_2,32,num_8,1.06676361558,,,2017_May_26_1130,60.0034449225,FEMA4ImagesEEG,001,200510,
AFNE01.JPG,AFNE01.JPG,AFNE01.JPG,AFNE01.JPG,AFNE01.JPG,AFNE01.JPG,,,,,,,,,,,,,1,6,16,9,,,,,,,,,,,AMNE15.jpg,AMSA02.jpg,AMNE12.jpg,AMSA01.jpg,AMSA01.jpg,MS,2,num_4,16,num_4,0.866747642867,,,2017_May_26_1130,60.0034449225,FEMA4ImagesEEG,001,200510,
AFNE01.JPG,AFNE01.JPG,AFNE01.JPG,AFNE01.JPG,AFNE01.JPG,AFNE01.JPG,,,,,,,,,,,,,1,7,17,1,,,,,,,,,,,AMNE06.jpg,AMNE12.jpg,AMSA15.jpg,AMSA08.jpg,AMSA08.jpg,MS,2,num_4,32,num_2,1.15008799499,,,2017_May_26_1130,60.0034449225,FEMA4ImagesEEG,001,200510,
AFNE01.JPG,AFNE01.JPG,AFNE01.JPG,AFNE01.JPG,AFNE01.JPG,AFNE01.JPG,,,,,,,,,,,,,1,8,18,8,,,,,,,,,,,AMSA14.jpg,AMSA16.jpg,AMNE13.jpg,AMNE07.jpg,AMSA14.jpg,MS,2,num_8,16,num_8,1.06674661639,,,2017_May_26_1130,60.0034449225,FEMA4ImagesEEG,001,200510,
AFNE01.JPG,AFNE01.JPG,AFNE01.JPG,AFNE01.JPG,AFNE01.JPG,AFNE01.JPG,,,,,,,,,,,,,1,9,19,2,,,,,,,,,,,AMSA14.jpg,AMNE11.jpg,AMNE17.jpg,AMSA01.jpg,AMSA01.jpg,MS,2,num_4,32,num_6,1.25008315186,,,2017_May_26_1130,60.0034449225,FEMA4ImagesEEG,001,200510,
AFNE01.JPG,AFNE01.JPG,AFNE01.JPG,AFNE01.JPG,AFNE01.JPG,AFNE01.JPG,,,,,,,,,,,,,2,0,20,2,,,,,,,,,,,AMNE14.jpg,AMSA20.jpg,AMNE05.jpg,AMSA07.jpg,AMSA20.jpg,MS,2,num_6,32,num_2,1.01685969334,,,2017_May_26_1130,60.0034449225,FEMA4ImagesEEG,001,200510,
AFNE01.JPG,AFNE01.JPG,AFNE01.JPG,AFNE01.JPG,AFNE01.JPG,AFNE01.JPG,,,,,,,,,,,,,2,1,21,8,,,,,,,,,,,AMNE01.jpg,AMSA12.jpg,AMSA15.jpg,AMNE15.jpg,AMNE15.jpg,MN,1,num_4,32,num_6,2.38334577275,,,2017_May_26_1130,60.0034449225,FEMA4ImagesEEG,001,200510,
AFNE01.JPG,AFNE01.JPG,AFNE01.JPG,AFNE01.JPG,AFNE01.JPG,AFNE01.JPG,,,,,,,,,,,,,2,2,22,5,,,,,,,,,,,AMNE03.jpg,AMNE19.jpg,AMSA10.jpg,AMSA14.jpg,AMSA14.jpg,MS,2,num_4,16,num_4,1.28329480707,,,2017_May_26_1130,60.0034449225,FEMA4ImagesEEG,001,200510,
AFNE01.JPG,AFNE01.JPG,AFNE01.JPG,AFNE01.JPG,AFNE01.JPG,AFNE01.JPG,,,,,,,,,,,,,2,3,23,7,,,,,,,,,,,AMNE18.jpg,AMNE05.jpg,AMSA09.jpg,AMSA01.jpg,AMNE05.jpg,MN,1,num_6,32,num_2,0.833824011963,,,2017_May_26_1130,60.0034449225,FEMA4ImagesEEG,001,200510,
AFNE01.JPG,AFNE01.JPG,AFNE01.JPG,AFNE01.JPG,AFNE01.JPG,AFNE01.JPG,,,,,,,,,,,,,2,4,24,3,,,,,,,,,,,AMSA06.jpg,AMSA08.jpg,AMNE16.jpg,AMNE13.jpg,AMSA06.jpg,MS,2,num_8,32,num_4,1.31662353245,,,2017_May_26_1130,60.0034449225,FEMA4ImagesEEG,001,200510,
AFNE01.JPG,AFNE01.JPG,AFNE01.JPG,AFNE01.JPG,AFNE01.JPG,AFNE01.JPG,,,,,,,,,,,,,2,5,25,9,,,,,,,,,,,AMSA15.jpg,AMNE14.jpg,AMSA13.jpg,AMNE12.jpg,AMNE12.jpg,MN,1,num_4,32,num_2,0.916747466428,,,2017_May_26_1130,60.0034449225,FEMA4ImagesEEG,001,200510,
AFNE01.JPG,AFNE01.JPG,AFNE01.JPG,AFNE01.JPG,AFNE01.JPG,AFNE01.JPG,,,,,,,,,,,,,2,6,26,6,,,,,,,,,,,AMNE07.jpg,AMNE02.jpg,AMSA08.jpg,AMSA20.jpg,AMNE07.jpg,MN,1,num_8,16,num_8,0.850106694037,,,2017_May_26_1130,60.0034449225,FEMA4ImagesEEG,001,200510,
AFNE01.JPG,AFNE01.JPG,AFNE01.JPG,AFNE01.JPG,AFNE01.JPG,AFNE01.JPG,,,,,,,,,,,,,2,7,27,0,,,,,,,,,,,AMSA20.jpg,AMNE09.jpg,AMNE10.jpg,AMSA08.jpg,AMNE09.jpg,MN,1,num_6,32,num_2,0.850119844428,,,2017_May_26_1130,60.0034449225,FEMA4ImagesEEG,001,200510,
AFNE01.JPG,AFNE01.JPG,AFNE01.JPG,AFNE01.JPG,AFNE01.JPG,AFNE01.JPG,,,,,,,,,,,,,2,8,28,1,,,,,,,,,,,AMSA19.jpg,AMNE16.jpg,AMNE17.jpg,AMSA03.jpg,AMNE16.jpg,MN,1,num_6,32,num_4,1.03344098432,,,2017_May_26_1130,60.0034449225,FEMA4ImagesEEG,001,200510,
AFNE01.JPG,AFNE01.JPG,AFNE01.JPG,AFNE01.JPG,AFNE01.JPG,AFNE01.JPG,,,,,,,,,,,,,2,9,29,4,,,,,,,,,,,AMNE13.jpg,AMNE19.jpg,AMSA11.jpg,AMSA16.jpg,AMSA11.jpg,MS,2,num_2,32,num_4,0.833460292779,,,2017_May_26_1130,60.0034449225,FEMA4ImagesEEG,001,200510,
AFNE01.JPG,AFNE01.JPG,AFNE01.JPG,AFNE01.JPG,AFNE01.JPG,AFNE01.JPG,,,,,,,,,,,,,3,0,30,0,,,,,,,,,,,AMNE01.jpg,AMSA20.jpg,AMNE18.jpg,AMSA10.jpg,AMSA10.jpg,MS,2,num_4,32,num_2,1.28341316013,,,2017_May_26_1130,60.0034449225,FEMA4ImagesEEG,001,200510,
AFNE01.JPG,AFNE01.JPG,AFNE01.JPG,AFNE01.JPG,AFNE01.JPG,AFNE01.JPG,,,,,,,,,,,,,3,1,31,8,,,,,,,,,,,AMSA19.jpg,AMNE08.jpg,AMNE16.jpg,AMSA08.jpg,AMSA19.jpg,MS,2,num_8,32,num_2,1.316465087,,,2017_May_26_1130,60.0034449225,FEMA4ImagesEEG,001,200510,
AFNE01.JPG,AFNE01.JPG,AFNE01.JPG,AFNE01.JPG,AFNE01.JPG,AFNE01.JPG,,,,,,,,,,,,,3,2,32,7,,,,,,,,,,,AMSA02.jpg,AMNE07.jpg,AMNE14.jpg,AMSA12.jpg,AMNE14.jpg,MN,1,num_2,32,num_6,1.30009259761,,,2017_May_26_1130,60.0034449225,FEMA4ImagesEEG,001,200510,
AFNE01.JPG,AFNE01.JPG,AFNE01.JPG,AFNE01.JPG,AFNE01.JPG,AFNE01.JPG,,,,,,,,,,,,,3,3,33,6,,,,,,,,,,,AMSA16.jpg,AMSA10.jpg,AMNE07.jpg,AMNE04.jpg,AMNE07.jpg,MN,1,num_2,16,num_2,1.03344387095,,,2017_May_26_1130,60.0034449225,FEMA4ImagesEEG,001,200510,
AFNE01.JPG,AFNE01.JPG,AFNE01.JPG,AFNE01.JPG,AFNE01.JPG,AFNE01.JPG,,,,,,,,,,,,,3,4,34,9,,,,,,,,,,,AMNE14.jpg,AMSA07.jpg,AMNE05.jpg,AMSA02.jpg,AMSA07.jpg,MS,2,num_6,32,num_8,1.1666927,,,2017_May_26_1130,60.0034449225,FEMA4ImagesEEG,001,200510,
AFNE01.JPG,AFNE01.JPG,AFNE01.JPG,AFNE01.JPG,AFNE01.JPG,AFNE01.JPG,,,,,,,,,,,,,3,5,35,3,,,,,,,,,,,AMSA10.jpg,AMNE13.jpg,AMSA16.jpg,AMNE06.jpg,AMNE06.jpg,MN,1,num_4,16,num_4,0.850085846032,,,2017_May_26_1130,60.0034449225,FEMA4ImagesEEG,001,200510,
AFNE01.JPG,AFNE01.JPG,AFNE01.JPG,AFNE01.JPG,AFNE01.JPG,AFNE01.JPG,,,,,,,,,,,,,3,6,36,2,,,,,,,,,,,AMNE01.jpg,AMSA13.jpg,AMNE04.jpg,AMSA17.jpg,AMNE04.jpg,MN,1,num_2,32,num_8,0.916793011478,,,2017_May_26_1130,60.0034449225,FEMA4ImagesEEG,001,200510,
AFNE01.JPG,AFNE01.JPG,AFNE01.JPG,AFNE01.JPG,AFNE01.JPG,AFNE01.JPG,,,,,,,,,,,,,3,7,37,4,,,,,,,,,,,AMSA18.jpg,AMNE06.jpg,AMSA17.jpg,AMNE02.jpg,AMSA17.jpg,MS,2,num_2,32,num_4,1.21660175431,,,2017_May_26_1130,60.0034449225,FEMA4ImagesEEG,001,200510,
AFNE01.JPG,AFNE01.JPG,AFNE01.JPG,AFNE01.JPG,AFNE01.JPG,AFNE01.JPG,,,,,,,,,,,,,3,8,38,1,,,,,,,,,,,AMSA13.jpg,AMSA12.jpg,AMNE06.jpg,AMNE07.jpg,AMNE07.jpg,MN,1,num_4,16,num_4,0.783474902622,,,2017_May_26_1130,60.0034449225,FEMA4ImagesEEG,001,200510,
AFNE01.JPG,AFNE01.JPG,AFNE01.JPG,AFNE01.JPG,AFNE01.JPG,AFNE01.JPG,,,,,,,,,,,,,3,9,39,5,,,,,,,,,,,AMSA09.jpg,AMSA06.jpg,AMNE03.jpg,AMNE07.jpg,AMNE03.jpg,MN,1,num_2,32,num_6,1.20008108299,,,2017_May_26_1130,60.0034449225,FEMA4ImagesEEG,001,200510,
AFNE01.JPG,AFNE01.JPG,AFNE01.JPG,AFNE01.JPG,AFNE01.JPG,AFNE01.JPG,,,,,,,,,,,,,4,0,40,1,,,,,,,,,,,AMNE10.jpg,AMSA06.jpg,AMSA15.jpg,AMNE03.jpg,AMSA06.jpg,MS,2,num_6,32,num_8,0.800183527404,,,2017_May_26_1130,60.0034449225,FEMA4ImagesEEG,001,200510,
AFNE01.JPG,AFNE01.JPG,AFNE01.JPG,AFNE01.JPG,AFNE01.JPG,AFNE01.JPG,,,,,,,,,,,,,4,1,41,3,,,,,,,,,,,AMNE11.jpg,AMSA02.jpg,AMNE10.jpg,AMSA18.jpg,AMNE10.jpg,MN,1,num_2,16,num_2,1.2334697867,,,2017_May_26_1130,60.0034449225,FEMA4ImagesEEG,001,200510,
AFNE01.JPG,AFNE01.JPG,AFNE01.JPG,AFNE01.JPG,AFNE01.JPG,AFNE01.JPG,,,,,,,,,,,,,4,2,42,9,,,,,,,,,,,AMNE04.jpg,AMNE15.jpg,AMSA16.jpg,AMSA20.jpg,AMSA16.jpg,MS,2,num_2,16,num_2,1.76667775353,,,2017_May_26_1130,60.0034449225,FEMA4ImagesEEG,001,200510,
AFNE01.JPG,AFNE01.JPG,AFNE01.JPG,AFNE01.JPG,AFNE01.JPG,AFNE01.JPG,,,,,,,,,,,,,4,3,43,7,,,,,,,,,,,AMSA06.jpg,AMNE01.jpg,AMSA14.jpg,AMNE11.jpg,AMNE11.jpg,MN,1,num_4,32,num_8,1.61671709234,,,2017_May_26_1130,60.0034449225,FEMA4ImagesEEG,001,200510,
AFNE01.JPG,AFNE01.JPG,AFNE01.JPG,AFNE01.JPG,AFNE01.JPG,AFNE01.JPG,,,,,,,,,,,,,4,4,44,0,,,,,,,,,,,AMNE18.jpg,AMSA09.jpg,AMNE17.jpg,AMSA13.jpg,AMNE18.jpg,MN,1,num_8,32,num_4,1.53352966893,,,2017_May_26_1130,60.0034449225,FEMA4ImagesEEG,001,200510,
AFNE01.JPG,AFNE01.JPG,AFNE01.JPG,AFNE01.JPG,AFNE01.JPG,AFNE01.JPG,,,,,,,,,,,,,4,5,45,5,,,,,,,,,,,AMSA10.jpg,AMNE20.jpg,AMNE03.jpg,AMSA18.jpg,AMSA18.jpg,MS,2,num_4,16,num_4,3.53323138086,,,2017_May_26_1130,60.0034449225,FEMA4ImagesEEG,001,200510,
AFNE01.JPG,AFNE01.JPG,AFNE01.JPG,AFNE01.JPG,AFNE01.JPG,AFNE01.JPG,,,,,,,,,,,,,4,6,46,6,,,,,,,,,,,AMSA11.jpg,AMSA15.jpg,AMNE14.jpg,AMNE19.jpg,AMNE19.jpg,MN,1,num_4,16,num_4,0.866808262654,,,2017_May_26_1130,60.0034449225,FEMA4ImagesEEG,001,200510,
AFNE01.JPG,AFNE01.JPG,AFNE01.JPG,AFNE01.JPG,AFNE01.JPG,AFNE01.JPG,,,,,,,,,,,,,4,7,47,2,,,,,,,,,,,AMSA15.jpg,AMSA01.jpg,AMNE03.jpg,AMNE02.jpg,AMSA15.jpg,MS,2,num_8,16,num_8,1.01683531702,,,2017_May_26_1130,60.0034449225,FEMA4ImagesEEG,001,200510,
AFNE01.JPG,AFNE01.JPG,AFNE01.JPG,AFNE01.JPG,AFNE01.JPG,AFNE01.JPG,,,,,,,,,,,,,4,8,48,4,,,,,,,,,,,AMSA04.jpg,AMNE18.jpg,AMSA07.jpg,AMNE20.jpg,AMSA07.jpg,MS,2,num_2,32,num_6,2.21665916662,,,2017_May_26_1130,60.0034449225,FEMA4ImagesEEG,001,200510,
AFNE01.JPG,AFNE01.JPG,AFNE01.JPG,AFNE01.JPG,AFNE01.JPG,AFNE01.JPG,,,,,,,,,,,,,4,9,49,8,,,,,,,,,,,AMSA01.jpg,AMNE17.jpg,AMSA17.jpg,AMNE20.jpg,AMNE20.jpg,MN,1,num_4,32,num_6,0.800122586777,,,2017_May_26_1130,60.0034449225,FEMA4ImagesEEG,001,200510,
AFNE01.JPG,AFNE01.JPG,AFNE01.JPG,AFNE01.JPG,AFNE01.JPG,AFNE01.JPG,,,,,,,,,,,,,5,0,50,8,,,,,,,,,,,AMSA18.jpg,AMSA07.jpg,AMNE04.jpg,AMNE08.jpg,AMNE04.jpg,MN,1,num_2,32,num_8,1.4833967383,,,2017_May_26_1130,60.0034449225,FEMA4ImagesEEG,001,200510,
AFNE01.JPG,AFNE01.JPG,AFNE01.JPG,AFNE01.JPG,AFNE01.JPG,AFNE01.JPG,,,,,,,,,,,,,5,1,51,4,,,,,,,,,,,AMNE10.jpg,AMSA03.jpg,AMSA12.jpg,AMNE19.jpg,AMNE19.jpg,MN,1,num_4,16,num_4,0.800120983156,,,2017_May_26_1130,60.0034449225,FEMA4ImagesEEG,001,200510,
AFNE01.JPG,AFNE01.JPG,AFNE01.JPG,AFNE01.JPG,AFNE01.JPG,AFNE01.JPG,,,,,,,,,,,,,5,2,52,6,,,,,,,,,,,AMSA08.jpg,AMNE18.jpg,AMSA02.jpg,AMNE01.jpg,AMNE18.jpg,MN,1,num_6,32,num_8,2.79996959388,,,2017_May_26_1130,60.0034449225,FEMA4ImagesEEG,001,200510,
AFNE01.JPG,AFNE01.JPG,AFNE01.JPG,AFNE01.JPG,AFNE01.JPG,AFNE01.JPG,,,,,,,,,,,,,5,3,53,9,,,,,,,,,,,AMSA06.jpg,AMNE18.jpg,AMNE20.jpg,AMSA04.jpg,AMNE20.jpg,MN,1,num_2,16,num_2,1.05014351499,,,2017_May_26_1130,60.0034449225,FEMA4ImagesEEG,001,200510,
AFNE01.JPG,AFNE01.JPG,AFNE01.JPG,AFNE01.JPG,AFNE01.JPG,AFNE01.JPG,,,,,,,,,,,,,5,4,54,3,,,,,,,,,,,AMSA05.jpg,AMNE04.jpg,AMNE15.jpg,AMSA02.jpg,AMSA05.jpg,MS,2,num_8,32,num_2,0.950095436187,,,2017_May_26_1130,60.0034449225,FEMA4ImagesEEG,001,200510,
AFNE01.JPG,AFNE01.JPG,AFNE01.JPG,AFNE01.JPG,AFNE01.JPG,AFNE01.JPG,,,,,,,,,,,,,5,5,55,1,,,,,,,,,,,AMSA13.jpg,AMSA01.jpg,AMNE11.jpg,AMNE08.jpg,AMSA13.jpg,MS,2,num_8,16,num_8,1.48339192721,,,2017_May_26_1130,60.0034449225,FEMA4ImagesEEG,001,200510,
AFNE01.JPG,AFNE01.JPG,AFNE01.JPG,AFNE01.JPG,AFNE01.JPG,AFNE01.JPG,,,,,,,,,,,,,5,6,56,5,,,,,,,,,,,AMSA01.jpg,AMNE20.jpg,AMSA02.jpg,AMNE05.jpg,AMSA02.jpg,MS,2,num_2,32,num_6,1.98336418322,,,2017_May_26_1130,60.0034449225,FEMA4ImagesEEG,001,200510,
AFNE01.JPG,AFNE01.JPG,AFNE01.JPG,AFNE01.JPG,AFNE01.JPG,AFNE01.JPG,,,,,,,,,,,,,5,7,57,0,,,,,,,,,,,AMSA09.jpg,AMNE20.jpg,AMSA15.jpg,AMNE08.jpg,AMSA09.jpg,MS,2,num_8,32,num_4,2.86661293206,,,2017_May_26_1130,60.0034449225,FEMA4ImagesEEG,001,200510,
AFNE01.JPG,AFNE01.JPG,AFNE01.JPG,AFNE01.JPG,AFNE01.JPG,AFNE01.JPG,,,,,,,,,,,,,5,8,58,7,,,,,,,,,,,AMNE19.jpg,AMSA20.jpg,AMNE20.jpg,AMSA06.jpg,AMNE19.jpg,MN,1,num_8,16,num_8,1.18347477424,,,2017_May_26_1130,60.0034449225,FEMA4ImagesEEG,001,200510,
AFNE01.JPG,AFNE01.JPG,AFNE01.JPG,AFNE01.JPG,AFNE01.JPG,AFNE01.JPG,,,,,,,,,,,,,5,9,59,2,,,,,,,,,,,AMNE07.jpg,AMSA05.jpg,AMSA18.jpg,AMNE05.jpg,AMNE07.jpg,MN,1,num_8,32,num_4,0.716787623009,,,2017_May_26_1130,60.0034449225,FEMA4ImagesEEG,001,200510,
,,,,,,,,,,,,,,,,,,,,,,,,,,,,,,,,,,,,,,,,,,,space,105.475310885,2017_May_26_1130,60.0034449225,FEMA4ImagesEEG,001,200510,
AFNE01.JPG,AFNE01.JPG,AFNE01.JPG,AFNE01.JPG,AFNE01.JPG,AFNE01.JPG,,,,,,,,,,,,,,,,,0,0,0,1,,,,,,,AFNE20.jpg,AFSA12.jpg,AFNE02.jpg,AFSA19.jpg,AFNE02.jpg,FN,3,num_2,32,num_8,1.58341562992,,,2017_May_26_1130,60.0034449225,FEMA4ImagesEEG,001,200510,
AFNE01.JPG,AFNE01.JPG,AFNE01.JPG,AFNE01.JPG,AFNE01.JPG,AFNE01.JPG,,,,,,,,,,,,,,,,,0,1,1,6,,,,,,,AFNE10.jpg,AFSA17.jpg,AFSA11.jpg,AFNE14.jpg,AFSA11.jpg,FS,4,num_2,16,num_2,0.700145070674,,,2017_May_26_1130,60.0034449225,FEMA4ImagesEEG,001,200510,
AFNE01.JPG,AFNE01.JPG,AFNE01.JPG,AFNE01.JPG,AFNE01.JPG,AFNE01.JPG,,,,,,,,,,,,,,,,,0,2,2,3,,,,,,,AFNE19.jpg,AFNE20.jpg,AFSA14.jpg,AFSA09.jpg,AFSA14.jpg,FS,4,num_2,32,num_4,0.700146995019,,,2017_May_26_1130,60.0034449225,FEMA4ImagesEEG,001,200510,
AFNE01.JPG,AFNE01.JPG,AFNE01.JPG,AFNE01.JPG,AFNE01.JPG,AFNE01.JPG,,,,,,,,,,,,,,,,,0,3,3,7,,,,,,,AFNE18.jpg,AFSA04.jpg,AFNE05.jpg,AFSA03.jpg,AFSA04.jpg,FS,4,num_6,32,num_8,0.933417602442,,,2017_May_26_1130,60.0034449225,FEMA4ImagesEEG,001,200510,
AFNE01.JPG,AFNE01.JPG,AFNE01.JPG,AFNE01.JPG,AFNE01.JPG,AFNE01.JPG,,,,,,,,,,,,,,,,,0,4,4,2,,,,,,,AFSA08.jpg,AFNE04.jpg,AFSA19.jpg,AFNE05.jpg,AFNE04.jpg,FN,3,num_6,16,num_6,1.98336386238,,,2017_May_26_1130,60.0034449225,FEMA4ImagesEEG,001,200510,
AFNE01.JPG,AFNE01.JPG,AFNE01.JPG,AFNE01.JPG,AFNE01.JPG,AFNE01.JPG,,,,,,,,,,,,,,,,,0,5,5,8,,,,,,,AFNE20.jpg,AFSA16.jpg,AFNE02.jpg,AFSA13.jpg,AFSA16.jpg,FS,4,num_6,16,num_6,0.783468808513,,,2017_May_26_1130,60.0034449225,FEMA4ImagesEEG,001,200510,
AFNE01.JPG,AFNE01.JPG,AFNE01.JPG,AFNE01.JPG,AFNE01.JPG,AFNE01.JPG,,,,,,,,,,,,,,,,,0,6,6,9,,,,,,,AFSA04.jpg,AFSA09.jpg,AFNE07.jpg,AFNE04.jpg,AFSA09.jpg,FS,4,num_6,16,num_6,1.86669953179,,,2017_May_26_1130,60.0034449225,FEMA4ImagesEEG,001,200510,
AFNE01.JPG,AFNE01.JPG,AFNE01.JPG,AFNE01.JPG,AFNE01.JPG,AFNE01.JPG,,,,,,,,,,,,,,,,,0,7,7,4,,,,,,,AFNE01.jpg,AFNE14.jpg,AFSA01.jpg,AFSA11.jpg,AFSA01.jpg,FS,4,num_2,32,num_4,0.883134886157,,,2017_May_26_1130,60.0034449225,FEMA4ImagesEEG,001,200510,
AFNE01.JPG,AFNE01.JPG,AFNE01.JPG,AFNE01.JPG,AFNE01.JPG,AFNE01.JPG,,,,,,,,,,,,,,,,,0,8,8,5,,,,,,,AFNE18.jpg,AFSA04.jpg,AFSA12.jpg,AFNE15.jpg,AFNE18.jpg,FN,3,num_8,16,num_8,0.950000176439,,,2017_May_26_1130,60.0034449225,FEMA4ImagesEEG,001,200510,
AFNE01.JPG,AFNE01.JPG,AFNE01.JPG,AFNE01.JPG,AFNE01.JPG,AFNE01.JPG,,,,,,,,,,,,,,,,,0,9,9,0,,,,,,,AFSA13.jpg,AFSA14.jpg,AFNE15.jpg,AFNE14.jpg,AFNE14.jpg,FN,3,num_4,32,num_2,1.33345532138,,,2017_May_26_1130,60.0034449225,FEMA4ImagesEEG,001,200510,
AFNE01.JPG,AFNE01.JPG,AFNE01.JPG,AFNE01.JPG,AFNE01.JPG,AFNE01.JPG,,,,,,,,,,,,,,,,,1,0,10,0,,,,,,,AFSA11.jpg,AFSA08.jpg,AFNE11.jpg,AFNE19.jpg,AFSA11.jpg,FS,4,num_8,16,num_8,0.883524585166,,,2017_May_26_1130,60.0034449225,FEMA4ImagesEEG,001,200510,
AFNE01.JPG,AFNE01.JPG,AFNE01.JPG,AFNE01.JPG,AFNE01.JPG,AFNE01.JPG,,,,,,,,,,,,,,,,,1,1,11,2,,,,,,,AFSA19.jpg,AFNE19.jpg,AFNE05.jpg,AFSA08.jpg,AFNE19.jpg,FN,3,num_6,32,num_4,0.916546683176,,,2017_May_26_1130,60.0034449225,FEMA4ImagesEEG,001,200510,
AFNE01.JPG,AFNE01.JPG,AFNE01.JPG,AFNE01.JPG,AFNE01.JPG,AFNE01.JPG,,,,,,,,,,,,,,,,,1,2,12,3,,,,,,,AFSA11.jpg,AFNE20.jpg,AFNE11.jpg,AFSA08.jpg,AFSA11.jpg,FS,4,num_8,32,num_2,1.56662008457,,,2017_May_26_1130,60.0034449225,FEMA4ImagesEEG,001,200510,
AFNE01.JPG,AFNE01.JPG,AFNE01.JPG,AFNE01.JPG,AFNE01.JPG,AFNE01.JPG,,,,,,,,,,,,,,,,,1,3,13,1,,,,,,,AFSA19.jpg,AFSA05.jpg,AFNE06.jpg,AFNE17.jpg,AFNE06.jpg,FN,3,num_2,16,num_2,1.30008361686,,,2017_May_26_1130,60.0034449225,FEMA4ImagesEEG,001,200510,
AFNE01.JPG,AFNE01.JPG,AFNE01.JPG,AFNE01.JPG,AFNE01.JPG,AFNE01.JPG,,,,,,,,,,,,,,,,,1,4,14,4,,,,,,,AFNE12.jpg,AFNE04.jpg,AFSA02.jpg,AFSA11.jpg,AFNE04.jpg,FN,3,num_6,16,num_6,0.767046925263,,,2017_May_26_1130,60.0034449225,FEMA4ImagesEEG,001,200510,
AFNE01.JPG,AFNE01.JPG,AFNE01.JPG,AFNE01.JPG,AFNE01.JPG,AFNE01.JPG,,,,,,,,,,,,,,,,,1,5,15,7,,,,,,,AFNE08.jpg,AFNE12.jpg,AFSA04.jpg,AFSA07.jpg,AFNE12.jpg,FN,3,num_6,16,num_6,0.700086695957,,,2017_May_26_1130,60.0034449225,FEMA4ImagesEEG,001,200510,
AFNE01.JPG,AFNE01.JPG,AFNE01.JPG,AFNE01.JPG,AFNE01.JPG,AFNE01.JPG,,,,,,,,,,,,,,,,,1,6,16,8,,,,,,,AFNE18.jpg,AFNE13.jpg,AFSA04.jpg,AFSA01.jpg,AFNE13.jpg,FN,3,num_6,32,num_4,1.01677341422,,,2017_May_26_1130,60.0034449225,FEMA4ImagesEEG,001,200510,
AFNE01.JPG,AFNE01.JPG,AFNE01.JPG,AFNE01.JPG,AFNE01.JPG,AFNE01.JPG,,,,,,,,,,,,,,,,,1,7,17,5,,,,,,,AFNE19.jpg,AFSA02.jpg,AFNE01.jpg,AFSA15.jpg,AFNE01.jpg,FN,3,num_2,32,num_8,0.81677187467,,,2017_May_26_1130,60.0034449225,FEMA4ImagesEEG,001,200510,
AFNE01.JPG,AFNE01.JPG,AFNE01.JPG,AFNE01.JPG,AFNE01.JPG,AFNE01.JPG,,,,,,,,,,,,,,,,,1,8,18,9,,,,,,,AFNE15.jpg,AFSA10.jpg,AFSA17.jpg,AFNE19.jpg,AFSA10.jpg,FS,4,num_6,16,num_6,0.716703589191,,,2017_May_26_1130,60.0034449225,FEMA4ImagesEEG,001,200510,
AFNE01.JPG,AFNE01.JPG,AFNE01.JPG,AFNE01.JPG,AFNE01.JPG,AFNE01.JPG,,,,,,,,,,,,,,,,,1,9,19,6,,,,,,,AFNE15.jpg,AFSA01.jpg,AFSA04.jpg,AFNE19.jpg,AFNE15.jpg,FN,3,num_8,16,num_8,0.850110863685,,,2017_May_26_1130,60.0034449225,FEMA4ImagesEEG,001,200510,
AFNE01.JPG,AFNE01.JPG,AFNE01.JPG,AFNE01.JPG,AFNE01.JPG,AFNE01.JPG,,,,,,,,,,,,,,,,,2,0,20,5,,,,,,,AFNE16.jpg,AFNE14.jpg,AFSA15.jpg,AFSA20.jpg,AFNE16.jpg,FN,3,num_8,32,num_4,1.10010292544,,,2017_May_26_1130,60.0034449225,FEMA4ImagesEEG,001,200510,
AFNE01.JPG,AFNE01.JPG,AFNE01.JPG,AFNE01.JPG,AFNE01.JPG,AFNE01.JPG,,,,,,,,,,,,,,,,,2,1,21,9,,,,,,,AFSA16.jpg,AFSA20.jpg,AFNE02.jpg,AFNE01.jpg,AFSA16.jpg,FS,4,num_8,32,num_4,0.866744114668,,,2017_May_26_1130,60.0034449225,FEMA4ImagesEEG,001,200510,
AFNE01.JPG,AFNE01.JPG,AFNE01.JPG,AFNE01.JPG,AFNE01.JPG,AFNE01.JPG,,,,,,,,,,,,,,,,,2,2,22,1,,,,,,,AFNE19.jpg,AFNE10.jpg,AFSA04.jpg,AFSA20.jpg,AFSA04.jpg,FS,4,num_2,32,num_8,0.983525515418,,,2017_May_26_1130,60.0034449225,FEMA4ImagesEEG,001,200510,
AFNE01.JPG,AFNE01.JPG,AFNE01.JPG,AFNE01.JPG,AFNE01.JPG,AFNE01.JPG,,,,,,,,,,,,,,,,,2,3,23,0,,,,,,,AFSA07.jpg,AFSA02.jpg,AFNE07.jpg,AFNE18.jpg,AFSA07.jpg,FS,4,num_8,32,num_4,1.00012091896,,,2017_May_26_1130,60.0034449225,FEMA4ImagesEEG,001,200510,
AFNE01.JPG,AFNE01.JPG,AFNE01.JPG,AFNE01.JPG,AFNE01.JPG,AFNE01.JPG,,,,,,,,,,,,,,,,,2,4,24,8,,,,,,,AFNE07.jpg,AFNE13.jpg,AFSA17.jpg,AFSA14.jpg,AFNE13.jpg,FN,3,num_6,16,num_6,0.666779460153,,,2017_May_26_1130,60.0034449225,FEMA4ImagesEEG,001,200510,
AFNE01.JPG,AFNE01.JPG,AFNE01.JPG,AFNE01.JPG,AFNE01.JPG,AFNE01.JPG,,,,,,,,,,,,,,,,,2,5,25,6,,,,,,,AFNE17.jpg,AFSA16.jpg,AFNE07.jpg,AFSA19.jpg,AFSA16.jpg,FS,4,num_6,16,num_6,0.866779075353,,,2017_May_26_1130,60.0034449225,FEMA4ImagesEEG,001,200510,
AFNE01.JPG,AFNE01.JPG,AFNE01.JPG,AFNE01.JPG,AFNE01.JPG,AFNE01.JPG,,,,,,,,,,,,,,,,,2,6,26,4,,,,,,,AFNE12.jpg,AFSA18.jpg,AFSA12.jpg,AFNE20.jpg,AFNE12.jpg,FN,3,num_8,16,num_8,0.783472336712,,,2017_May_26_1130,60.0034449225,FEMA4ImagesEEG,001,200510,
AFNE01.JPG,AFNE01.JPG,AFNE01.JPG,AFNE01.JPG,AFNE01.JPG,AFNE01.JPG,,,,,,,,,,,,,,,,,2,7,27,7,,,,,,,AFNE13.jpg,AFSA13.jpg,AFNE09.jpg,AFSA20.jpg,AFSA20.jpg,FS,4,num_4,16,num_4,1.58338419732,,,2017_May_26_1130,60.0034449225,FEMA4ImagesEEG,001,200510,
AFNE01.JPG,AFNE01.JPG,AFNE01.JPG,AFNE01.JPG,AFNE01.JPG,AFNE01.JPG,,,,,,,,,,,,,,,,,2,8,28,2,,,,,,,AFSA07.jpg,AFSA20.jpg,AFNE07.jpg,AFNE08.jpg,AFNE08.jpg,FN,3,num_4,32,num_2,0.833514818689,,,2017_May_26_1130,60.0034449225,FEMA4ImagesEEG,001,200510,
AFNE01.JPG,AFNE01.JPG,AFNE01.JPG,AFNE01.JPG,AFNE01.JPG,AFNE01.JPG,,,,,,,,,,,,,,,,,2,9,29,3,,,,,,,AFNE02.jpg,AFSA19.jpg,AFSA15.jpg,AFNE08.jpg,AFSA15.jpg,FS,4,num_2,16,num_2,0.46680839092,,,2017_May_26_1130,60.0034449225,FEMA4ImagesEEG,001,200510,
AFNE01.JPG,AFNE01.JPG,AFNE01.JPG,AFNE01.JPG,AFNE01.JPG,AFNE01.JPG,,,,,,,,,,,,,,,,,3,0,30,2,,,,,,,AFNE05.jpg,AFSA14.jpg,AFSA07.jpg,AFNE13.jpg,AFSA07.jpg,FS,4,num_2,32,num_8,1.30007527757,,,2017_May_26_1130,60.0034449225,FEMA4ImagesEEG,001,200510,
AFNE01.JPG,AFNE01.JPG,AFNE01.JPG,AFNE01.JPG,AFNE01.JPG,AFNE01.JPG,,,,,,,,,,,,,,,,,3,1,31,6,,,,,,,AFSA12.jpg,AFSA10.jpg,AFNE13.jpg,AFNE16.jpg,AFNE13.jpg,FN,3,num_2,16,num_2,1.21671529615,,,2017_May_26_1130,60.0034449225,FEMA4ImagesEEG,001,200510,
AFNE01.JPG,AFNE01.JPG,AFNE01.JPG,AFNE01.JPG,AFNE01.JPG,AFNE01.JPG,,,,,,,,,,,,,,,,,3,2,32,9,,,,,,,AFSA18.jpg,AFNE06.jpg,AFSA01.jpg,AFNE10.jpg,AFSA18.jpg,FS,4,num_8,16,num_8,1.16677384719,,,2017_May_26_1130,60.0034449225,FEMA4ImagesEEG,001,200510,
AFNE01.JPG,AFNE01.JPG,AFNE01.JPG,AFNE01.JPG,AFNE01.JPG,AFNE01.JPG,,,,,,,,,,,,,,,,,3,3,33,1,,,,,,,AFSA06.jpg,AFNE04.jpg,AFSA18.jpg,AFNE11.jpg,AFSA18.jpg,FS,4,num_2,16,num_2,1.1167214223,,,2017_May_26_1130,60.0034449225,FEMA4ImagesEEG,001,200510,
AFNE01.JPG,AFNE01.JPG,AFNE01.JPG,AFNE01.JPG,AFNE01.JPG,AFNE01.JPG,,,,,,,,,,,,,,,,,3,4,34,0,,,,,,,AFNE10.jpg,AFNE01.jpg,AFSA20.jpg,AFSA13.jpg,AFNE01.jpg,FN,3,num_6,32,num_4,0.850107656326,,,2017_May_26_1130,60.0034449225,FEMA4ImagesEEG,001,200510,
AFNE01.JPG,AFNE01.JPG,AFNE01.JPG,AFNE01.JPG,AFNE01.JPG,AFNE01.JPG,,,,,,,,,,,,,,,,,3,5,35,8,,,,,,,AFSA05.jpg,AFSA07.jpg,AFNE13.jpg,AFNE19.jpg,AFNE13.jpg,FN,3,num_2,16,num_2,0.866897428292,,,2017_May_26_1130,60.0034449225,FEMA4ImagesEEG,001,200510,
AFNE01.JPG,AFNE01.JPG,AFNE01.JPG,AFNE01.JPG,AFNE01.JPG,AFNE01.JPG,,,,,,,,,,,,,,,,,3,6,36,5,,,,,,,AFNE17.jpg,AFSA02.jpg,AFNE18.jpg,AFSA08.jpg,AFSA08.jpg,FS,4,num_4,16,num_4,0.883481926867,,,2017_May_26_1130,60.0034449225,FEMA4ImagesEEG,001,200510,
AFNE01.JPG,AFNE01.JPG,AFNE01.JPG,AFNE01.JPG,AFNE01.JPG,AFNE01.JPG,,,,,,,,,,,,,,,,,3,7,37,4,,,,,,,AFSA07.jpg,AFNE19.jpg,AFNE15.jpg,AFSA10.jpg,AFSA07.jpg,FS,4,num_8,32,num_6,1.01675641513,,,2017_May_26_1130,60.0034449225,FEMA4ImagesEEG,001,200510,
AFNE01.JPG,AFNE01.JPG,AFNE01.JPG,AFNE01.JPG,AFNE01.JPG,AFNE01.JPG,,,,,,,,,,,,,,,,,3,8,38,7,,,,,,,AFSA01.jpg,AFNE10.jpg,AFNE17.jpg,AFSA19.jpg,AFSA19.jpg,FS,4,num_4,32,num_8,0.716785698547,,,2017_May_26_1130,60.0034449225,FEMA4ImagesEEG,001,200510,
AFNE01.JPG,AFNE01.JPG,AFNE01.JPG,AFNE01.JPG,AFNE01.JPG,AFNE01.JPG,,,,,,,,,,,,,,,,,3,9,39,3,,,,,,,AFSA12.jpg,AFNE01.jpg,AFSA18.jpg,AFNE06.jpg,AFSA18.jpg,FS,4,num_2,32,num_6,0.966860831948,,,2017_May_26_1130,60.0034449225,FEMA4ImagesEEG,001,200510,
AFNE01.JPG,AFNE01.JPG,AFNE01.JPG,AFNE01.JPG,AFNE01.JPG,AFNE01.JPG,,,,,,,,,,,,,,,,,4,0,40,1,,,,,,,AFNE17.jpg,AFNE07.jpg,AFSA03.jpg,AFSA04.jpg,AFSA04.jpg,FS,4,num_4,32,num_2,1.08330577647,,,2017_May_26_1130,60.0034449225,FEMA4ImagesEEG,001,200510,
AFNE01.JPG,AFNE01.JPG,AFNE01.JPG,AFNE01.JPG,AFNE01.JPG,AFNE01.JPG,,,,,,,,,,,,,,,,,4,1,41,2,,,,,,,AFSA08.jpg,AFNE01.jpg,AFNE12.jpg,AFSA10.jpg,AFNE01.jpg,FN,3,num_6,16,num_6,1.26680011582,,,2017_May_26_1130,60.0034449225,FEMA4ImagesEEG,001,200510,
AFNE01.JPG,AFNE01.JPG,AFNE01.JPG,AFNE01.JPG,AFNE01.JPG,AFNE01.JPG,,,,,,,,,,,,,,,,,4,2,42,4,,,,,,,AFSA20.jpg,AFNE20.jpg,AFSA12.jpg,AFNE11.jpg,AFNE20.jpg,FN,3,num_6,16,num_6,1.2168554595,,,2017_May_26_1130,60.0034449225,FEMA4ImagesEEG,001,200510,
AFNE01.JPG,AFNE01.JPG,AFNE01.JPG,AFNE01.JPG,AFNE01.JPG,AFNE01.JPG,,,,,,,,,,,,,,,,,4,3,43,3,,,,,,,AFSA09.jpg,AFSA07.jpg,AFNE10.jpg,AFNE18.jpg,AFNE18.jpg,FN,3,num_4,16,num_4,1.8500332447,,,2017_May_26_1130,60.0034449225,FEMA4ImagesEEG,001,200510,
AFNE01.JPG,AFNE01.JPG,AFNE01.JPG,AFNE01.JPG,AFNE01.JPG,AFNE01.JPG,,,,,,,,,,,,,,,,,4,4,44,0,,,,,,,AFNE06.jpg,AFNE08.jpg,AFSA03.jpg,AFSA05.jpg,AFSA03.jpg,FS,4,num_2,32,num_8,1.04980064405,,,2017_May_26_1130,60.0034449225,FEMA4ImagesEEG,001,200510,
AFNE01.JPG,AFNE01.JPG,AFNE01.JPG,AFNE01.JPG,AFNE01.JPG,AFNE01.JPG,,,,,,,,,,,,,,,,,4,5,45,7,,,,,,,AFNE14.jpg,AFNE12.jpg,AFSA01.jpg,AFSA18.jpg,AFSA18.jpg,FS,4,num_4,16,num_4,0.833458368434,,,2017_May_26_1130,60.0034449225,FEMA4ImagesEEG,001,200510,
AFNE01.JPG,AFNE01.JPG,AFNE01.JPG,AFNE01.JPG,AFNE01.JPG,AFNE01.JPG,,,,,,,,,,,,,,,,,4,6,46,8,,,,,,,AFSA20.jpg,AFNE11.jpg,AFNE12.jpg,AFSA05.jpg,AFNE12.jpg,FN,3,num_2,16,num_2,0.73345679685,,,2017_May_26_1130,60.0034449225,FEMA4ImagesEEG,001,200510,
AFNE01.JPG,AFNE01.JPG,AFNE01.JPG,AFNE01.JPG,AFNE01.JPG,AFNE01.JPG,,,,,,,,,,,,,,,,,4,7,47,6,,,,,,,AFSA05.jpg,AFNE06.jpg,AFSA13.jpg,AFNE20.jpg,AFNE20.jpg,FN,3,num_4,32,num_2,0.800123228226,,,2017_May_26_1130,60.0034449225,FEMA4ImagesEEG,001,200510,
AFNE01.JPG,AFNE01.JPG,AFNE01.JPG,AFNE01.JPG,AFNE01.JPG,AFNE01.JPG,,,,,,,,,,,,,,,,,4,8,48,5,,,,,,,AFNE10.jpg,AFNE07.jpg,AFSA16.jpg,AFSA03.jpg,AFNE10.jpg,FN,3,num_8,16,num_8,0.75012917805,,,2017_May_26_1130,60.0034449225,FEMA4ImagesEEG,001,200510,
AFNE01.JPG,AFNE01.JPG,AFNE01.JPG,AFNE01.JPG,AFNE01.JPG,AFNE01.JPG,,,,,,,,,,,,,,,,,4,9,49,9,,,,,,,AFNE13.jpg,AFSA16.jpg,AFNE17.jpg,AFSA18.jpg,AFSA18.jpg,FS,4,num_4,32,num_6,0.566765700467,,,2017_May_26_1130,60.0034449225,FEMA4ImagesEEG,001,200510,
AFNE01.JPG,AFNE01.JPG,AFNE01.JPG,AFNE01.JPG,AFNE01.JPG,AFNE01.JPG,,,,,,,,,,,,,,,,,5,0,50,6,,,,,,,AFSA07.jpg,AFSA06.jpg,AFNE17.jpg,AFNE19.jpg,AFSA06.jpg,FS,4,num_6,32,num_8,0.933452242287,,,2017_May_26_1130,60.0034449225,FEMA4ImagesEEG,001,200510,
AFNE01.JPG,AFNE01.JPG,AFNE01.JPG,AFNE01.JPG,AFNE01.JPG,AFNE01.JPG,,,,,,,,,,,,,,,,,5,1,51,7,,,,,,,AFNE02.jpg,AFSA07.jpg,AFNE15.jpg,AFSA06.jpg,AFSA06.jpg,FS,4,num_4,32,num_6,0.833297677687,,,2017_May_26_1130,60.0034449225,FEMA4ImagesEEG,001,200510,
AFNE01.JPG,AFNE01.JPG,AFNE01.JPG,AFNE01.JPG,AFNE01.JPG,AFNE01.JPG,,,,,,,,,,,,,,,,,5,2,52,5,,,,,,,AFNE15.jpg,AFNE14.jpg,AFSA03.jpg,AFSA19.jpg,AFSA03.jpg,FS,4,num_2,32,num_6,2.08339397993,,,2017_May_26_1130,60.0034449225,FEMA4ImagesEEG,001,200510,
AFNE01.JPG,AFNE01.JPG,AFNE01.JPG,AFNE01.JPG,AFNE01.JPG,AFNE01.JPG,,,,,,,,,,,,,,,,,5,3,53,4,,,,,,,AFSA03.jpg,AFSA11.jpg,AFNE12.jpg,AFNE16.jpg,AFSA03.jpg,FS,4,num_8,32,num_4,0.883515283698,,,2017_May_26_1130,60.0034449225,FEMA4ImagesEEG,001,200510,
AFNE01.JPG,AFNE01.JPG,AFNE01.JPG,AFNE01.JPG,AFNE01.JPG,AFNE01.JPG,,,,,,,,,,,,,,,,,5,4,54,2,,,,,,,AFSA04.jpg,AFSA15.jpg,AFNE04.jpg,AFNE08.jpg,AFSA15.jpg,FS,4,num_6,16,num_6,0.700121015194,,,2017_May_26_1130,60.0034449225,FEMA4ImagesEEG,001,200510,
AFNE01.JPG,AFNE01.JPG,AFNE01.JPG,AFNE01.JPG,AFNE01.JPG,AFNE01.JPG,,,,,,,,,,,,,,,,,5,5,55,3,,,,,,,AFSA06.jpg,AFNE12.jpg,AFSA19.jpg,AFNE04.jpg,AFSA19.jpg,FS,4,num_2,16,num_2,1.88314065954,,,2017_May_26_1130,60.0034449225,FEMA4ImagesEEG,001,200510,
AFNE01.JPG,AFNE01.JPG,AFNE01.JPG,AFNE01.JPG,AFNE01.JPG,AFNE01.JPG,,,,,,,,,,,,,,,,,5,6,56,9,,,,,,,AFNE16.jpg,AFSA12.jpg,AFSA18.jpg,AFNE03.jpg,AFSA12.jpg,FS,4,num_6,16,num_6,0.550117054023,,,2017_May_26_1130,60.0034449225,FEMA4ImagesEEG,001,200510,
AFNE01.JPG,AFNE01.JPG,AFNE01.JPG,AFNE01.JPG,AFNE01.JPG,AFNE01.JPG,,,,,,,,,,,,,,,,,5,7,57,0,,,,,,,AFNE20.jpg,AFNE09.jpg,AFSA09.jpg,AFSA05.jpg,AFNE20.jpg,FN,3,num_8,16,num_8,0.866823658114,,,2017_May_26_1130,60.0034449225,FEMA4ImagesEEG,001,200510,
AFNE01.JPG,AFNE01.JPG,AFNE01.JPG,AFNE01.JPG,AFNE01.JPG,AFNE01.JPG,,,,,,,,,,,,,,,,,5,8,58,8,,,,,,,AFSA05.jpg,AFSA20.jpg,AFNE05.jpg,AFNE13.jpg,AFSA05.jpg,FS,4,num_8,32,num_2,0.76675858011,,,2017_May_26_1130,60.0034449225,FEMA4ImagesEEG,001,200510,
AFNE01.JPG,AFNE01.JPG,AFNE01.JPG,AFNE01.JPG,AFNE01.JPG,AFNE01.JPG,,,,,,,,,,,,,,,,,5,9,59,1,,,,,,,AFSA11.jpg,AFSA13.jpg,AFNE08.jpg,AFNE12.jpg,AFNE12.jpg,FN,3,num_4,16,num_4,0.650147171458,,,2017_May_26_1130,60.0034449225,FEMA4ImagesEEG,001,200510,
,,,,,,,,,,,,,,,,,,,,,,,,,,,,,,,,,,,,,,,,,,,space,2.79986503266,2017_May_26_1130,60.0034449225,FEMA4ImagesEEG,001,200510,
AFNE01.JPG,AFNE01.JPG,AFNE01.JPG,AFNE01.JPG,AFNE01.JPG,AFNE01.JPG,,,,,,,,,,,,,,,,,,,,,0,0,0,4,,,AMNE10.jpg,AMNE17.jpg,AMSA11.jpg,AMSA15.jpg,AMSA11.jpg,MS,2,num_2,16,num_2,0.86663827044,,,2017_May_26_1130,60.0034449225,FEMA4ImagesEEG,001,200510,
AFNE01.JPG,AFNE01.JPG,AFNE01.JPG,AFNE01.JPG,AFNE01.JPG,AFNE01.JPG,,,,,,,,,,,,,,,,,,,,,0,1,1,5,,,AMNE10.jpg,AMSA04.jpg,AMSA05.jpg,AMNE12.jpg,AMSA04.jpg,MS,2,num_6,16,num_6,0.600145423436,,,2017_May_26_1130,60.0034449225,FEMA4ImagesEEG,001,200510,
AFNE01.JPG,AFNE01.JPG,AFNE01.JPG,AFNE01.JPG,AFNE01.JPG,AFNE01.JPG,,,,,,,,,,,,,,,,,,,,,0,2,2,8,,,AMSA19.jpg,AMNE03.jpg,AMNE13.jpg,AMSA14.jpg,AMSA14.jpg,MS,2,num_4,16,num_4,0.750023333821,,,2017_May_26_1130,60.0034449225,FEMA4ImagesEEG,001,200510,
AFNE01.JPG,AFNE01.JPG,AFNE01.JPG,AFNE01.JPG,AFNE01.JPG,AFNE01.JPG,,,,,,,,,,,,,,,,,,,,,0,3,3,2,,,AMSA12.jpg,AMNE15.jpg,AMSA09.jpg,AMNE16.jpg,AMNE15.jpg,MN,1,num_6,16,num_6,0.766783918487,,,2017_May_26_1130,60.0034449225,FEMA4ImagesEEG,001,200510,
AFNE01.JPG,AFNE01.JPG,AFNE01.JPG,AFNE01.JPG,AFNE01.JPG,AFNE01.JPG,,,,,,,,,,,,,,,,,,,,,0,4,4,9,,,AMNE04.jpg,AMSA01.jpg,AMNE17.jpg,AMSA12.jpg,AMNE04.jpg,MN,1,num_8,16,num_8,0.983302601147,,,2017_May_26_1130,60.0034449225,FEMA4ImagesEEG,001,200510,
AFNE01.JPG,AFNE01.JPG,AFNE01.JPG,AFNE01.JPG,AFNE01.JPG,AFNE01.JPG,,,,,,,,,,,,,,,,,,,,,0,5,5,1,,,AMSA12.jpg,AMNE09.jpg,AMNE14.jpg,AMSA18.jpg,AMNE14.jpg,MN,1,num_2,16,num_2,0.533461672021,,,2017_May_26_1130,60.0034449225,FEMA4ImagesEEG,001,200510,
AFNE01.JPG,AFNE01.JPG,AFNE01.JPG,AFNE01.JPG,AFNE01.JPG,AFNE01.JPG,,,,,,,,,,,,,,,,,,,,,0,6,6,6,,,AMNE18.jpg,AMNE05.jpg,AMSA11.jpg,AMSA04.jpg,AMNE05.jpg,MN,1,num_6,16,num_6,0.550174787175,,,2017_May_26_1130,60.0034449225,FEMA4ImagesEEG,001,200510,
AFNE01.JPG,AFNE01.JPG,AFNE01.JPG,AFNE01.JPG,AFNE01.JPG,AFNE01.JPG,,,,,,,,,,,,,,,,,,,,,0,7,7,0,,,AMSA10.jpg,AMNE09.jpg,AMNE02.jpg,AMSA06.jpg,AMNE02.jpg,MN,1,num_2,32,num_8,1.01679362089,,,2017_May_26_1130,60.0034449225,FEMA4ImagesEEG,001,200510,
AFNE01.JPG,AFNE01.JPG,AFNE01.JPG,AFNE01.JPG,AFNE01.JPG,AFNE01.JPG,,,,,,,,,,,,,,,,,,,,,0,8,8,3,,,AMNE18.jpg,AMSA19.jpg,AMNE06.jpg,AMSA15.jpg,AMSA19.jpg,MS,2,num_6,32,num_8,1.38340414735,,,2017_May_26_1130,60.0034449225,FEMA4ImagesEEG,001,200510,
AFNE01.JPG,AFNE01.JPG,AFNE01.JPG,AFNE01.JPG,AFNE01.JPG,AFNE01.JPG,,,,,,,,,,,,,,,,,,,,,0,9,9,7,,,AMNE13.jpg,AMSA02.jpg,AMNE06.jpg,AMSA19.jpg,AMNE06.jpg,MN,1,num_2,32,num_8,1.20012277924,,,2017_May_26_1130,60.0034449225,FEMA4ImagesEEG,001,200510,
AFNE01.JPG,AFNE01.JPG,AFNE01.JPG,AFNE01.JPG,AFNE01.JPG,AFNE01.JPG,,,,,,,,,,,,,,,,,,,,,1,0,10,7,,,AMNE14.jpg,AMNE01.jpg,AMSA02.jpg,AMSA07.jpg,AMSA07.jpg,MS,2,num_4,16,num_4,1.6500650621,,,2017_May_26_1130,60.0034449225,FEMA4ImagesEEG,001,200510,
AFNE01.JPG,AFNE01.JPG,AFNE01.JPG,AFNE01.JPG,AFNE01.JPG,AFNE01.JPG,,,,,,,,,,,,,,,,,,,,,1,1,11,6,,,AMSA09.jpg,AMSA07.jpg,AMNE09.jpg,AMNE01.jpg,AMSA07.jpg,MS,2,num_6,16,num_6,1.18339426862,,,2017_May_26_1130,60.0034449225,FEMA4ImagesEEG,001,200510,
AFNE01.JPG,AFNE01.JPG,AFNE01.JPG,AFNE01.JPG,AFNE01.JPG,AFNE01.JPG,,,,,,,,,,,,,,,,,,,,,1,2,12,9,,,AMSA16.jpg,AMNE20.jpg,AMNE01.jpg,AMSA07.jpg,AMSA16.jpg,MS,2,num_8,32,num_4,1.40009545221,,,2017_May_26_1130,60.0034449225,FEMA4ImagesEEG,001,200510,
AFNE01.JPG,AFNE01.JPG,AFNE01.JPG,AFNE01.JPG,AFNE01.JPG,AFNE01.JPG,,,,,,,,,,,,,,,,,,,,,1,3,13,4,,,AMNE06.jpg,AMSA12.jpg,AMNE09.jpg,AMSA13.jpg,AMNE06.jpg,MN,1,num_8,16,num_8,0.916832783259,,,2017_May_26_1130,60.0034449225,FEMA4ImagesEEG,001,200510,
AFNE01.JPG,AFNE01.JPG,AFNE01.JPG,AFNE01.JPG,AFNE01.JPG,AFNE01.JPG,,,,,,,,,,,,,,,,,,,,,1,4,14,8,,,AMNE03.jpg,AMNE19.jpg,AMSA10.jpg,AMSA16.jpg,AMNE19.jpg,MN,1,num_6,32,num_4,1.58341210173,,,2017_May_26_1130,60.0034449225,FEMA4ImagesEEG,001,200510,
AFNE01.JPG,AFNE01.JPG,AFNE01.JPG,AFNE01.JPG,AFNE01.JPG,AFNE01.JPG,,,,,,,,,,,,,,,,,,,,,1,5,15,0,,,AMNE16.jpg,AMSA19.jpg,AMNE12.jpg,AMSA10.jpg,AMNE16.jpg,MN,1,num_8,32,num_2,1.05012715736,,,2017_May_26_1130,60.0034449225,FEMA4ImagesEEG,001,200510,
AFNE01.JPG,AFNE01.JPG,AFNE01.JPG,AFNE01.JPG,AFNE01.JPG,AFNE01.JPG,,,,,,,,,,,,,,,,,,,,,1,6,16,3,,,AMNE13.jpg,AMNE04.jpg,AMSA18.jpg,AMSA02.jpg,AMNE13.jpg,MN,1,num_8,16,num_8,1.83340705012,,,2017_May_26_1130,60.0034449225,FEMA4ImagesEEG,001,200510,
AFNE01.JPG,AFNE01.JPG,AFNE01.JPG,AFNE01.JPG,AFNE01.JPG,AFNE01.JPG,,,,,,,,,,,,,,,,,,,,,1,7,17,5,,,AMNE12.jpg,AMSA17.jpg,AMSA12.jpg,AMNE03.jpg,AMNE03.jpg,MN,1,num_4,16,num_4,1.50014898367,,,2017_May_26_1130,60.0034449225,FEMA4ImagesEEG,001,200510,
AFNE01.JPG,AFNE01.JPG,AFNE01.JPG,AFNE01.JPG,AFNE01.JPG,AFNE01.JPG,,,,,,,,,,,,,,,,,,,,,1,8,18,2,,,AMNE14.jpg,AMSA15.jpg,AMNE03.jpg,AMSA14.jpg,AMSA15.jpg,MS,2,num_6,16,num_6,0.80013734079,,,2017_May_26_1130,60.0034449225,FEMA4ImagesEEG,001,200510,
AFNE01.JPG,AFNE01.JPG,AFNE01.JPG,AFNE01.JPG,AFNE01.JPG,AFNE01.JPG,,,,,,,,,,,,,,,,,,,,,1,9,19,1,,,AMSA06.jpg,AMNE15.jpg,AMSA07.jpg,AMNE19.jpg,AMNE19.jpg,MN,1,num_4,16,num_4,1.21668610885,,,2017_May_26_1130,60.0034449225,FEMA4ImagesEEG,001,200510,
AFNE01.JPG,AFNE01.JPG,AFNE01.JPG,AFNE01.JPG,AFNE01.JPG,AFNE01.JPG,,,,,,,,,,,,,,,,,,,,,2,0,20,9,,,AMSA15.jpg,AMSA04.jpg,AMNE02.jpg,AMNE17.jpg,AMNE02.jpg,MN,1,num_2,32,num_6,0.7667951443,,,2017_May_26_1130,60.0034449225,FEMA4ImagesEEG,001,200510,
AFNE01.JPG,AFNE01.JPG,AFNE01.JPG,AFNE01.JPG,AFNE01.JPG,AFNE01.JPG,,,,,,,,,,,,,,,,,,,,,2,1,21,3,,,AMNE01.jpg,AMNE05.jpg,AMSA08.jpg,AMSA05.jpg,AMNE05.jpg,MN,1,num_6,16,num_6,1.06672544766,,,2017_May_26_1130,60.0034449225,FEMA4ImagesEEG,001,200510,
AFNE01.JPG,AFNE01.JPG,AFNE01.JPG,AFNE01.JPG,AFNE01.JPG,AFNE01.JPG,,,,,,,,,,,,,,,,,,,,,2,2,22,6,,,AMNE19.jpg,AMSA03.jpg,AMNE16.jpg,AMSA01.jpg,AMNE16.jpg,MN,1,num_2,16,num_2,0.750104801729,,,2017_May_26_1130,60.0034449225,FEMA4ImagesEEG,001,200510,
AFNE01.JPG,AFNE01.JPG,AFNE01.JPG,AFNE01.JPG,AFNE01.JPG,AFNE01.JPG,,,,,,,,,,,,,,,,,,,,,2,3,23,8,,,AMSA06.jpg,AMNE01.jpg,AMNE14.jpg,AMSA05.jpg,AMSA06.jpg,MS,2,num_8,32,num_4,0.76678488066,,,2017_May_26_1130,60.0034449225,FEMA4ImagesEEG,001,200510,
AFNE01.JPG,AFNE01.JPG,AFNE01.JPG,AFNE01.JPG,AFNE01.JPG,AFNE01.JPG,,,,,,,,,,,,,,,,,,,,,2,4,24,7,,,AMSA01.jpg,AMSA08.jpg,AMNE20.jpg,AMNE01.jpg,AMSA01.jpg,MS,2,num_8,16,num_8,0.900147893117,,,2017_May_26_1130,60.0034449225,FEMA4ImagesEEG,001,200510,
AFNE01.JPG,AFNE01.JPG,AFNE01.JPG,AFNE01.JPG,AFNE01.JPG,AFNE01.JPG,,,,,,,,,,,,,,,,,,,,,2,5,25,0,,,AMNE01.jpg,AMNE05.jpg,AMSA05.jpg,AMSA16.jpg,AMSA16.jpg,MS,2,num_4,32,num_2,0.733473154483,,,2017_May_26_1130,60.0034449225,FEMA4ImagesEEG,001,200510,
AFNE01.JPG,AFNE01.JPG,AFNE01.JPG,AFNE01.JPG,AFNE01.JPG,AFNE01.JPG,,,,,,,,,,,,,,,,,,,,,2,6,26,2,,,AMSA05.jpg,AMSA15.jpg,AMNE02.jpg,AMNE20.jpg,AMNE02.jpg,MN,1,num_2,16,num_2,0.633448489709,,,2017_May_26_1130,60.0034449225,FEMA4ImagesEEG,001,200510,
AFNE01.JPG,AFNE01.JPG,AFNE01.JPG,AFNE01.JPG,AFNE01.JPG,AFNE01.JPG,,,,,,,,,,,,,,,,,,,,,2,7,27,4,,,AMSA13.jpg,AMNE13.jpg,AMNE03.jpg,AMSA03.jpg,AMSA03.jpg,MS,2,num_4,32,num_8,1.7000664894,,,2017_May_26_1130,60.0034449225,FEMA4ImagesEEG,001,200510,
AFNE01.JPG,AFNE01.JPG,AFNE01.JPG,AFNE01.JPG,AFNE01.JPG,AFNE01.JPG,,,,,,,,,,,,,,,,,,,,,2,8,28,5,,,AMNE05.jpg,AMSA15.jpg,AMSA14.jpg,AMNE08.jpg,AMSA15.jpg,MS,2,num_6,16,num_6,1.11673617642,,,2017_May_26_1130,60.0034449225,FEMA4ImagesEEG,001,200510,
AFNE01.JPG,AFNE01.JPG,AFNE01.JPG,AFNE01.JPG,AFNE01.JPG,AFNE01.JPG,,,,,,,,,,,,,,,,,,,,,2,9,29,1,,,AMSA16.jpg,AMSA08.jpg,AMNE01.jpg,AMNE14.jpg,AMSA08.jpg,MS,2,num_6,32,num_8,0.88344504172,,,2017_May_26_1130,60.0034449225,FEMA4ImagesEEG,001,200510,
AFNE01.JPG,AFNE01.JPG,AFNE01.JPG,AFNE01.JPG,AFNE01.JPG,AFNE01.JPG,,,,,,,,,,,,,,,,,,,,,3,0,30,4,,,AMNE10.jpg,AMNE12.jpg,AMSA06.jpg,AMSA11.jpg,AMSA06.jpg,MS,2,num_2,32,num_4,0.883724406129,,,2017_May_26_1130,60.0034449225,FEMA4ImagesEEG,001,200510,
AFNE01.JPG,AFNE01.JPG,AFNE01.JPG,AFNE01.JPG,AFNE01.JPG,AFNE01.JPG,,,,,,,,,,,,,,,,,,,,,3,1,31,5,,,AMSA10.jpg,AMNE07.jpg,AMSA17.jpg,AMNE16.jpg,AMSA10.jpg,MS,2,num_8,32,num_6,0.850164427306,,,2017_May_26_1130,60.0034449225,FEMA4ImagesEEG,001,200510,
AFNE01.JPG,AFNE01.JPG,AFNE01.JPG,AFNE01.JPG,AFNE01.JPG,AFNE01.JPG,,,,,,,,,,,,,,,,,,,,,3,2,32,9,,,AMSA02.jpg,AMSA19.jpg,AMNE17.jpg,AMNE10.jpg,AMNE10.jpg,MN,1,num_4,16,num_4,0.750116669107,,,2017_May_26_1130,60.0034449225,FEMA4ImagesEEG,001,200510,
AFNE01.JPG,AFNE01.JPG,AFNE01.JPG,AFNE01.JPG,AFNE01.JPG,AFNE01.JPG,,,,,,,,,,,,,,,,,,,,,3,3,33,3,,,AMNE03.jpg,AMNE20.jpg,AMSA12.jpg,AMSA14.jpg,AMNE03.jpg,MN,1,num_8,16,num_8,1.10011158534,,,2017_May_26_1130,60.0034449225,FEMA4ImagesEEG,001,200510,
AFNE01.JPG,AFNE01.JPG,AFNE01.JPG,AFNE01.JPG,AFNE01.JPG,AFNE01.JPG,,,,,,,,,,,,,,,,,,,,,3,4,34,8,,,AMSA08.jpg,AMNE07.jpg,AMNE09.jpg,AMSA03.jpg,AMNE07.jpg,MN,1,num_6,16,num_6,0.700129995937,,,2017_May_26_1130,60.0034449225,FEMA4ImagesEEG,001,200510,
AFNE01.JPG,AFNE01.JPG,AFNE01.JPG,AFNE01.JPG,AFNE01.JPG,AFNE01.JPG,,,,,,,,,,,,,,,,,,,,,3,5,35,2,,,AMSA05.jpg,AMSA03.jpg,AMNE03.jpg,AMNE12.jpg,AMNE12.jpg,MN,1,num_4,16,num_4,0.850158974645,,,2017_May_26_1130,60.0034449225,FEMA4ImagesEEG,001,200510,
AFNE01.JPG,AFNE01.JPG,AFNE01.JPG,AFNE01.JPG,AFNE01.JPG,AFNE01.JPG,,,,,,,,,,,,,,,,,,,,,3,6,36,7,,,AMNE10.jpg,AMNE08.jpg,AMSA10.jpg,AMSA18.jpg,AMNE08.jpg,MN,1,num_6,32,num_2,1.48342496343,,,2017_May_26_1130,60.0034449225,FEMA4ImagesEEG,001,200510,
AFNE01.JPG,AFNE01.JPG,AFNE01.JPG,AFNE01.JPG,AFNE01.JPG,AFNE01.JPG,,,,,,,,,,,,,,,,,,,,,3,7,37,6,,,AMSA02.jpg,AMNE20.jpg,AMSA03.jpg,AMNE07.jpg,AMNE20.jpg,MN,1,num_6,16,num_6,1.6667592536,,,2017_May_26_1130,60.0034449225,FEMA4ImagesEEG,001,200510,
AFNE01.JPG,AFNE01.JPG,AFNE01.JPG,AFNE01.JPG,AFNE01.JPG,AFNE01.JPG,,,,,,,,,,,,,,,,,,,,,3,8,38,0,,,AMSA02.jpg,AMSA14.jpg,AMNE17.jpg,AMNE20.jpg,AMNE20.jpg,MN,1,num_4,16,num_4,0.483460565563,,,2017_May_26_1130,60.0034449225,FEMA4ImagesEEG,001,200510,
