IPosition2,IPosition3,IPosition1,IPosition6,IPosition4,IPosition5,TrialsF1.thisRepN,TrialsF1.thisTrialN,TrialsF1.thisN,TrialsF1.thisIndex,TrialsM1.thisRepN,TrialsM1.thisTrialN,TrialsM1.thisN,TrialsM1.thisIndex,TrialsF2.thisRepN,TrialsF2.thisTrialN,TrialsF2.thisN,TrialsF2.thisIndex,TrialsM2.thisRepN,TrialsM2.thisTrialN,TrialsM2.thisN,TrialsM2.thisIndex,TrialsF3.thisRepN,TrialsF3.thisTrialN,TrialsF3.thisN,TrialsF3.thisIndex,TrialsM3.thisRepN,TrialsM3.thisTrialN,TrialsM3.thisN,TrialsM3.thisIndex,InstrKey_resp.keys,InstrKey_resp.rt,Image0 _Position,Image1 _Position,Image2 _Position,Image3 _Position,Center_image,condition,code,correct_answer,accuracy,Key_Resp.keys,Key_Resp.rt,BreakKey_resp.keys,BreakKey_resp.rt,date,frameRate,expName,session,participant,
,,,,,,,,,,,,,,,,,,,,,,,,,,,,,,space,7.94969483186,,,,,,,,,,,,,,2017_Jun_07_1424,59.9957088284,FEMA4ImagesEEG,001,200537,
AFSA25.JPG,AFNE24.JPG,AFSA24.JPG,AFNE21.JPG,AFSA21.JPG,AFNE25.JPG,0,0,0,2,,,,,,,,,,,,,,,,,,,,,,,AFSA08.jpg,AFNE03.jpg,AFNE06.jpg,AFSA10.jpg,AFSA10.jpg,FS,4,num_4,32,num_8,2.26667021634,,,2017_Jun_07_1424,59.9957088284,FEMA4ImagesEEG,001,200537,
AFNE23.JPG,AFNE24.JPG,AFNE22.JPG,AFSA24.JPG,AFSA22.JPG,AFSA23.JPG,0,1,1,8,,,,,,,,,,,,,,,,,,,,,,,AFSA10.jpg,AFSA16.jpg,AFNE01.jpg,AFNE18.jpg,AFNE18.jpg,FN,3,num_4,16,num_4,1.366754218,,,2017_Jun_07_1424,59.9957088284,FEMA4ImagesEEG,001,200537,
AMSA21.JPG,AMNE23.JPG,AMNE21.JPG,AMSA25.JPG,AMNE25.JPG,AMSA23.JPG,0,2,2,5,,,,,,,,,,,,,,,,,,,,,,,AFNE16.jpg,AFSA09.jpg,AFNE15.jpg,AFSA02.jpg,AFSA02.jpg,FS,4,num_4,32,num_6,0.650129530812,,,2017_Jun_07_1424,59.9957088284,FEMA4ImagesEEG,001,200537,
AMSA21.JPG,AMNE22.JPG,AMNE21.JPG,AMSA23.JPG,AMSA22.JPG,AMNE23.JPG,0,3,3,1,,,,,,,,,,,,,,,,,,,,,,,AFSA12.jpg,AFNE17.jpg,AFSA15.jpg,AFNE19.jpg,AFSA12.jpg,FS,4,num_8,16,num_8,1.20015966427,,,2017_Jun_07_1424,59.9957088284,FEMA4ImagesEEG,001,200537,
AFNE22.JPG,AFSA24.JPG,AFSA22.JPG,AFNE25.JPG,AFNE24.JPG,AFSA25.JPG,0,4,4,6,,,,,,,,,,,,,,,,,,,,,,,AFNE10.jpg,AFNE03.jpg,AFSA18.jpg,AFSA13.jpg,AFNE10.jpg,FN,3,num_8,32,num_6,0.733441401506,,,2017_Jun_07_1424,59.9957088284,FEMA4ImagesEEG,001,200537,
AMNE23.JPG,AMNE24.JPG,AMNE22.JPG,AMSA24.JPG,AMSA22.JPG,AMSA23.JPG,0,5,5,9,,,,,,,,,,,,,,,,,,,,,,,AFNE08.jpg,AFNE07.jpg,AFSA18.jpg,AFSA02.jpg,AFSA02.jpg,FS,4,num_4,16,num_4,1.55007471633,,,2017_Jun_07_1424,59.9957088284,FEMA4ImagesEEG,001,200537,
AFSA21.JPG,AFNE22.JPG,AFNE21.JPG,AFSA23.JPG,AFSA22.JPG,AFNE23.JPG,0,6,6,0,,,,,,,,,,,,,,,,,,,,,,,AFSA11.jpg,AFNE03.jpg,AFSA14.jpg,AFNE04.jpg,AFNE03.jpg,FN,3,num_6,16,num_6,1.70001452952,,,2017_Jun_07_1424,59.9957088284,FEMA4ImagesEEG,001,200537,
AMNE22.JPG,AMSA24.JPG,AMSA22.JPG,AMNE25.JPG,AMNE24.JPG,AMSA25.JPG,0,7,7,7,,,,,,,,,,,,,,,,,,,,,,,AFSA19.jpg,AFNE08.jpg,AFNE05.jpg,AFSA17.jpg,AFNE05.jpg,FN,3,num_2,32,num_8,1.28298465163,,,2017_Jun_07_1424,59.9957088284,FEMA4ImagesEEG,001,200537,
AMSA25.JPG,AMNE24.JPG,AMSA24.JPG,AMNE26.JPG,AMSA21.JPG,AMNE25.JPG,0,8,8,3,,,,,,,,,,,,,,,,,,,,,,,AFSA09.jpg,AFNE05.jpg,AFNE16.jpg,AFSA01.jpg,AFNE16.jpg,FN,3,num_2,16,num_2,1.38335796073,,,2017_Jun_07_1424,59.9957088284,FEMA4ImagesEEG,001,200537,
AFSA21.JPG,AFNE23.JPG,AFNE21.JPG,AFSA25.JPG,AFNE25.JPG,AFSA23.JPG,0,9,9,4,,,,,,,,,,,,,,,,,,,,,,,AFNE08.jpg,AFNE06.jpg,AFSA11.jpg,AFSA04.jpg,AFNE08.jpg,FN,3,num_8,32,num_6,1.08344241162,,,2017_Jun_07_1424,59.9957088284,FEMA4ImagesEEG,001,200537,
AMSA25.JPG,AMNE24.JPG,AMSA24.JPG,AMNE26.JPG,AMSA21.JPG,AMNE25.JPG,,,,,0,0,0,3,,,,,,,,,,,,,,,,,,,AMNE02.jpg,AMSA02.jpg,AMNE08.jpg,AMSA15.jpg,AMSA15.jpg,MS,2,num_4,16,num_4,0.766780390171,,,2017_Jun_07_1424,59.9957088284,FEMA4ImagesEEG,001,200537,
AMNE22.JPG,AMSA24.JPG,AMSA22.JPG,AMNE25.JPG,AMNE24.JPG,AMSA25.JPG,,,,,0,1,1,7,,,,,,,,,,,,,,,,,,,AMNE10.jpg,AMSA15.jpg,AMNE17.jpg,AMSA03.jpg,AMSA03.jpg,MS,2,num_4,16,num_4,1.35009851516,,,2017_Jun_07_1424,59.9957088284,FEMA4ImagesEEG,001,200537,
AMSA21.JPG,AMNE22.JPG,AMNE21.JPG,AMSA23.JPG,AMSA22.JPG,AMNE23.JPG,,,,,0,2,2,1,,,,,,,,,,,,,,,,,,,AMNE09.jpg,AMSA12.jpg,AMNE12.jpg,AMSA10.jpg,AMSA12.jpg,MS,2,num_6,32,num_2,2.94997355505,,,2017_Jun_07_1424,59.9957088284,FEMA4ImagesEEG,001,200537,
AMSA21.JPG,AMNE23.JPG,AMNE21.JPG,AMSA25.JPG,AMNE25.JPG,AMSA23.JPG,,,,,0,3,3,5,,,,,,,,,,,,,,,,,,,AMSA09.jpg,AMSA12.jpg,AMNE08.jpg,AMNE15.jpg,AMSA12.jpg,MS,2,num_6,16,num_6,1.00012316415,,,2017_Jun_07_1424,59.9957088284,FEMA4ImagesEEG,001,200537,
AMNE23.JPG,AMNE24.JPG,AMNE22.JPG,AMSA24.JPG,AMSA22.JPG,AMSA23.JPG,,,,,0,4,4,9,,,,,,,,,,,,,,,,,,,AMSA19.jpg,AMNE04.jpg,AMNE07.jpg,AMSA01.jpg,AMSA01.jpg,MS,2,num_4,32,num_8,1.66671563289,,,2017_Jun_07_1424,59.9957088284,FEMA4ImagesEEG,001,200537,
AFSA21.JPG,AFNE23.JPG,AFNE21.JPG,AFSA25.JPG,AFNE25.JPG,AFSA23.JPG,,,,,0,5,5,4,,,,,,,,,,,,,,,,,,,AMNE20.jpg,AMNE18.jpg,AMSA15.jpg,AMSA09.jpg,AMNE20.jpg,MN,1,num_8,16,num_8,1.18338368414,,,2017_Jun_07_1424,59.9957088284,FEMA4ImagesEEG,001,200537,
AFSA25.JPG,AFNE24.JPG,AFSA24.JPG,AFNE21.JPG,AFSA21.JPG,AFNE25.JPG,,,,,0,6,6,2,,,,,,,,,,,,,,,,,,,AMSA04.jpg,AMSA06.jpg,AMNE16.jpg,AMNE02.jpg,AMNE16.jpg,MN,1,num_2,16,num_2,1.35009434563,,,2017_Jun_07_1424,59.9957088284,FEMA4ImagesEEG,001,200537,
AFSA21.JPG,AFNE22.JPG,AFNE21.JPG,AFSA23.JPG,AFSA22.JPG,AFNE23.JPG,,,,,0,7,7,0,,,,,,,,,,,,,,,,,,,AMNE10.jpg,AMSA16.jpg,AMSA07.jpg,AMNE05.jpg,AMSA07.jpg,MS,2,num_2,16,num_2,0.766741901403,,,2017_Jun_07_1424,59.9957088284,FEMA4ImagesEEG,001,200537,
AFNE22.JPG,AFSA24.JPG,AFSA22.JPG,AFNE25.JPG,AFNE24.JPG,AFSA25.JPG,,,,,0,8,8,6,,,,,,,,,,,,,,,,,,,AMSA09.jpg,AMNE10.jpg,AMNE06.jpg,AMSA16.jpg,AMNE06.jpg,MN,1,num_2,32,num_6,0.933411187492,,,2017_Jun_07_1424,59.9957088284,FEMA4ImagesEEG,001,200537,
AFNE23.JPG,AFNE24.JPG,AFNE22.JPG,AFSA24.JPG,AFSA22.JPG,AFSA23.JPG,,,,,0,9,9,8,,,,,,,,,,,,,,,,,,,AMSA19.jpg,AMSA10.jpg,AMNE05.jpg,AMNE02.jpg,AMNE05.jpg,MN,1,num_2,16,num_2,1.01679875283,,,2017_Jun_07_1424,59.9957088284,FEMA4ImagesEEG,001,200537,
AMSA25.JPG,AMNE24.JPG,AMSA24.JPG,AMNE26.JPG,AMSA21.JPG,AMNE25.JPG,,,,,,,,,0,0,0,3,,,,,,,,,,,,,,,AFNE08.jpg,AFSA14.jpg,AFSA11.jpg,AFNE07.jpg,AFNE07.jpg,FN,3,num_4,16,num_4,0.600165630225,,,2017_Jun_07_1424,59.9957088284,FEMA4ImagesEEG,001,200537,
AMSA21.JPG,AMNE22.JPG,AMNE21.JPG,AMSA23.JPG,AMSA22.JPG,AMNE23.JPG,,,,,,,,,0,1,1,1,,,,,,,,,,,,,,,AFSA15.jpg,AFNE02.jpg,AFSA04.jpg,AFNE10.jpg,AFSA04.jpg,FS,4,num_2,16,num_2,1.90008599032,,,2017_Jun_07_1424,59.9957088284,FEMA4ImagesEEG,001,200537,
AMNE23.JPG,AMNE24.JPG,AMNE22.JPG,AMSA24.JPG,AMSA22.JPG,AMSA23.JPG,,,,,,,,,0,2,2,9,,,,,,,,,,,,,,,AFNE04.jpg,AFSA12.jpg,AFSA10.jpg,AFNE09.jpg,AFSA12.jpg,FS,4,num_6,32,num_8,1.05013774172,,,2017_Jun_07_1424,59.9957088284,FEMA4ImagesEEG,001,200537,
AMNE22.JPG,AMSA24.JPG,AMSA22.JPG,AMNE25.JPG,AMNE24.JPG,AMSA25.JPG,,,,,,,,,0,3,3,7,,,,,,,,,,,,,,,AFNE12.jpg,AFSA18.jpg,AFNE17.jpg,AFSA05.jpg,AFNE12.jpg,FN,3,num_8,16,num_8,1.13354743808,,,2017_Jun_07_1424,59.9957088284,FEMA4ImagesEEG,001,200537,
AFSA21.JPG,AFNE22.JPG,AFNE21.JPG,AFSA23.JPG,AFSA22.JPG,AFNE23.JPG,,,,,,,,,0,4,4,0,,,,,,,,,,,,,,,AFSA10.jpg,AFNE06.jpg,AFSA07.jpg,AFNE12.jpg,AFNE06.jpg,FN,3,num_6,32,num_4,1.0001055235,,,2017_Jun_07_1424,59.9957088284,FEMA4ImagesEEG,001,200537,
AFSA25.JPG,AFNE24.JPG,AFSA24.JPG,AFNE21.JPG,AFSA21.JPG,AFNE25.JPG,,,,,,,,,0,5,5,2,,,,,,,,,,,,,,,AFNE12.jpg,AFNE07.jpg,AFSA09.jpg,AFSA12.jpg,AFSA09.jpg,FS,4,num_2,32,num_8,2.19988254504,,,2017_Jun_07_1424,59.9957088284,FEMA4ImagesEEG,001,200537,
AMSA21.JPG,AMNE23.JPG,AMNE21.JPG,AMSA25.JPG,AMNE25.JPG,AMSA23.JPG,,,,,,,,,0,6,6,5,,,,,,,,,,,,,,,AFSA05.jpg,AFNE08.jpg,AFSA18.jpg,AFNE10.jpg,AFNE08.jpg,FN,3,num_6,32,num_4,0.950118529378,,,2017_Jun_07_1424,59.9957088284,FEMA4ImagesEEG,001,200537,
AFNE22.JPG,AFSA24.JPG,AFSA22.JPG,AFNE25.JPG,AFNE24.JPG,AFSA25.JPG,,,,,,,,,0,7,7,6,,,,,,,,,,,,,,,AFNE01.jpg,AFSA15.jpg,AFNE02.jpg,AFSA03.jpg,AFSA15.jpg,FS,4,num_6,16,num_6,1.10011254763,,,2017_Jun_07_1424,59.9957088284,FEMA4ImagesEEG,001,200537,
AFSA21.JPG,AFNE23.JPG,AFNE21.JPG,AFSA25.JPG,AFNE25.JPG,AFSA23.JPG,,,,,,,,,0,8,8,4,,,,,,,,,,,,,,,AFSA17.jpg,AFNE16.jpg,AFSA11.jpg,AFNE15.jpg,AFNE15.jpg,FN,3,num_4,16,num_4,0.849803595105,,,2017_Jun_07_1424,59.9957088284,FEMA4ImagesEEG,001,200537,
AFNE23.JPG,AFNE24.JPG,AFNE22.JPG,AFSA24.JPG,AFSA22.JPG,AFSA23.JPG,,,,,,,,,0,9,9,8,,,,,,,,,,,,,,,AFNE16.jpg,AFNE01.jpg,AFSA16.jpg,AFSA06.jpg,AFSA06.jpg,FS,4,num_4,16,num_4,1.31675920566,,,2017_Jun_07_1424,59.9957088284,FEMA4ImagesEEG,001,200537,
AMNE23.JPG,AMNE24.JPG,AMNE22.JPG,AMSA24.JPG,AMSA22.JPG,AMSA23.JPG,,,,,,,,,,,,,0,0,0,9,,,,,,,,,,,AMNE19.jpg,AMSA10.jpg,AMSA14.jpg,AMNE15.jpg,AMSA14.jpg,MS,2,num_2,16,num_2,0.866768170148,,,2017_Jun_07_1424,59.9957088284,FEMA4ImagesEEG,001,200537,
AMSA21.JPG,AMNE22.JPG,AMNE21.JPG,AMSA23.JPG,AMSA22.JPG,AMNE23.JPG,,,,,,,,,,,,,0,1,1,1,,,,,,,,,,,AMNE01.jpg,AMSA14.jpg,AMSA07.jpg,AMNE03.jpg,AMNE01.jpg,MN,1,num_8,16,num_8,0.850112788379,,,2017_Jun_07_1424,59.9957088284,FEMA4ImagesEEG,001,200537,
AFSA21.JPG,AFNE23.JPG,AFNE21.JPG,AFSA25.JPG,AFNE25.JPG,AFSA23.JPG,,,,,,,,,,,,,0,2,2,4,,,,,,,,,,,AMSA12.jpg,AMNE09.jpg,AMNE04.jpg,AMSA13.jpg,AMSA13.jpg,MS,2,num_4,16,num_4,0.800122265937,,,2017_Jun_07_1424,59.9957088284,FEMA4ImagesEEG,001,200537,
AFSA21.JPG,AFNE22.JPG,AFNE21.JPG,AFSA23.JPG,AFSA22.JPG,AFNE23.JPG,,,,,,,,,,,,,0,3,3,0,,,,,,,,,,,AMSA12.jpg,AMNE05.jpg,AMSA13.jpg,AMNE08.jpg,AMNE05.jpg,MN,1,num_6,32,num_4,1.2001381747,,,2017_Jun_07_1424,59.9957088284,FEMA4ImagesEEG,001,200537,
AFSA25.JPG,AFNE24.JPG,AFSA24.JPG,AFNE21.JPG,AFSA21.JPG,AFNE25.JPG,,,,,,,,,,,,,0,4,4,2,,,,,,,,,,,AMNE03.jpg,AMSA20.jpg,AMSA02.jpg,AMNE11.jpg,AMSA02.jpg,MS,2,num_2,32,num_6,1.33345115185,,,2017_Jun_07_1424,59.9957088284,FEMA4ImagesEEG,001,200537,
AMSA25.JPG,AMNE24.JPG,AMSA24.JPG,AMNE26.JPG,AMSA21.JPG,AMNE25.JPG,,,,,,,,,,,,,0,5,5,3,,,,,,,,,,,AMSA06.jpg,AMSA15.jpg,AMNE03.jpg,AMNE15.jpg,AMNE03.jpg,MN,1,num_2,16,num_2,1.05013838341,,,2017_Jun_07_1424,59.9957088284,FEMA4ImagesEEG,001,200537,
AFNE23.JPG,AFNE24.JPG,AFNE22.JPG,AFSA24.JPG,AFSA22.JPG,AFSA23.JPG,,,,,,,,,,,,,0,6,6,8,,,,,,,,,,,AMSA16.jpg,AMNE19.jpg,AMNE17.jpg,AMSA09.jpg,AMSA09.jpg,MS,2,num_4,32,num_8,1.1502448367,,,2017_Jun_07_1424,59.9957088284,FEMA4ImagesEEG,001,200537,
AMSA21.JPG,AMNE23.JPG,AMNE21.JPG,AMSA25.JPG,AMNE25.JPG,AMSA23.JPG,,,,,,,,,,,,,0,7,7,5,,,,,,,,,,,AMNE06.jpg,AMSA05.jpg,AMSA10.jpg,AMNE08.jpg,AMNE06.jpg,MN,1,num_8,32,num_4,1.96669533011,,,2017_Jun_07_1424,59.9957088284,FEMA4ImagesEEG,001,200537,
AMNE22.JPG,AMSA24.JPG,AMSA22.JPG,AMNE25.JPG,AMNE24.JPG,AMSA25.JPG,,,,,,,,,,,,,0,8,8,7,,,,,,,,,,,AMNE13.jpg,AMNE12.jpg,AMSA20.jpg,AMSA17.jpg,AMSA20.jpg,MS,2,num_2,16,num_2,1.05011400697,,,2017_Jun_07_1424,59.9957088284,FEMA4ImagesEEG,001,200537,
AFNE22.JPG,AFSA24.JPG,AFSA22.JPG,AFNE25.JPG,AFNE24.JPG,AFSA25.JPG,,,,,,,,,,,,,0,9,9,6,,,,,,,,,,,AMSA13.jpg,AMNE15.jpg,AMNE01.jpg,AMSA19.jpg,AMNE01.jpg,MN,1,num_2,32,num_6,2.20013368432,,,2017_Jun_07_1424,59.9957088284,FEMA4ImagesEEG,001,200537,
AMSA25.JPG,AMNE24.JPG,AMSA24.JPG,AMNE26.JPG,AMSA21.JPG,AMNE25.JPG,,,,,,,,,,,,,,,,,0,0,0,3,,,,,,,AFSA04.jpg,AFNE07.jpg,AFNE08.jpg,AFSA05.jpg,AFSA05.jpg,FS,4,num_4,16,num_4,0.933509654598,,,2017_Jun_07_1424,59.9957088284,FEMA4ImagesEEG,001,200537,
AMNE23.JPG,AMNE24.JPG,AMNE22.JPG,AMSA24.JPG,AMSA22.JPG,AMSA23.JPG,,,,,,,,,,,,,,,,,0,1,1,9,,,,,,,AFSA08.jpg,AFNE14.jpg,AFSA09.jpg,AFNE08.jpg,AFNE14.jpg,FN,3,num_6,16,num_6,0.700138655957,,,2017_Jun_07_1424,59.9957088284,FEMA4ImagesEEG,001,200537,
AFNE23.JPG,AFNE24.JPG,AFNE22.JPG,AFSA24.JPG,AFSA22.JPG,AFSA23.JPG,,,,,,,,,,,,,,,,,0,2,2,8,,,,,,,AFSA09.jpg,AFNE06.jpg,AFSA03.jpg,AFNE05.jpg,AFNE05.jpg,FN,3,num_4,32,num_2,1.96669436805,,,2017_Jun_07_1424,59.9957088284,FEMA4ImagesEEG,001,200537,
AFNE22.JPG,AFSA24.JPG,AFSA22.JPG,AFNE25.JPG,AFNE24.JPG,AFSA25.JPG,,,,,,,,,,,,,,,,,0,3,3,6,,,,,,,AFSA12.jpg,AFSA01.jpg,AFNE15.jpg,AFNE04.jpg,AFNE04.jpg,FN,3,num_4,16,num_4,0.816756479209,,,2017_Jun_07_1424,59.9957088284,FEMA4ImagesEEG,001,200537,
AMSA21.JPG,AMNE22.JPG,AMNE21.JPG,AMSA23.JPG,AMSA22.JPG,AMNE23.JPG,,,,,,,,,,,,,,,,,0,4,4,1,,,,,,,AFSA09.jpg,AFSA11.jpg,AFNE04.jpg,AFNE17.jpg,AFSA11.jpg,FS,4,num_6,16,num_6,0.950145471608,,,2017_Jun_07_1424,59.9957088284,FEMA4ImagesEEG,001,200537,
AFSA21.JPG,AFNE22.JPG,AFNE21.JPG,AFSA23.JPG,AFSA22.JPG,AFNE23.JPG,,,,,,,,,,,,,,,,,0,5,5,0,,,,,,,AFSA07.jpg,AFNE20.jpg,AFSA17.jpg,AFNE13.jpg,AFNE20.jpg,FN,3,num_6,16,num_6,0.883487700019,,,2017_Jun_07_1424,59.9957088284,FEMA4ImagesEEG,001,200537,
AFSA25.JPG,AFNE24.JPG,AFSA24.JPG,AFNE21.JPG,AFSA21.JPG,AFNE25.JPG,,,,,,,,,,,,,,,,,0,6,6,2,,,,,,,AFNE02.jpg,AFNE06.jpg,AFSA01.jpg,AFSA09.jpg,AFSA01.jpg,FS,4,num_2,32,num_8,1.38343686284,,,2017_Jun_07_1424,59.9957088284,FEMA4ImagesEEG,001,200537,
AFSA21.JPG,AFNE23.JPG,AFNE21.JPG,AFSA25.JPG,AFNE25.JPG,AFSA23.JPG,,,,,,,,,,,,,,,,,0,7,7,4,,,,,,,AFSA17.jpg,AFNE03.jpg,AFNE02.jpg,AFSA08.jpg,AFNE03.jpg,FN,3,num_6,16,num_6,0.666778818704,,,2017_Jun_07_1424,59.9957088284,FEMA4ImagesEEG,001,200537,
AMSA21.JPG,AMNE23.JPG,AMNE21.JPG,AMSA25.JPG,AMNE25.JPG,AMSA23.JPG,,,,,,,,,,,,,,,,,0,8,8,5,,,,,,,AFSA08.jpg,AFNE08.jpg,AFSA04.jpg,AFNE03.jpg,AFSA08.jpg,FS,4,num_8,32,num_6,0.700112355174,,,2017_Jun_07_1424,59.9957088284,FEMA4ImagesEEG,001,200537,
AMNE22.JPG,AMSA24.JPG,AMSA22.JPG,AMNE25.JPG,AMNE24.JPG,AMSA25.JPG,,,,,,,,,,,,,,,,,0,9,9,7,,,,,,,AFNE04.jpg,AFNE13.jpg,AFSA03.jpg,AFSA12.jpg,AFSA12.jpg,FS,4,num_4,16,num_4,0.666789403185,,,2017_Jun_07_1424,59.9957088284,FEMA4ImagesEEG,001,200537,
AFSA21.JPG,AFNE23.JPG,AFNE21.JPG,AFSA25.JPG,AFNE25.JPG,AFSA23.JPG,,,,,,,,,,,,,,,,,,,,,0,0,0,4,,,AMNE08.jpg,AMSA08.jpg,AMNE14.jpg,AMSA19.jpg,AMSA19.jpg,MS,2,num_4,16,num_4,1.18343436089,,,2017_Jun_07_1424,59.9957088284,FEMA4ImagesEEG,001,200537,
AFSA25.JPG,AFNE24.JPG,AFSA24.JPG,AFNE21.JPG,AFSA21.JPG,AFNE25.JPG,,,,,,,,,,,,,,,,,,,,,0,1,1,2,,,AMSA03.jpg,AMNE13.jpg,AMNE14.jpg,AMSA09.jpg,AMNE13.jpg,MN,1,num_6,32,num_4,1.11677113711,,,2017_Jun_07_1424,59.9957088284,FEMA4ImagesEEG,001,200537,
AMNE22.JPG,AMSA24.JPG,AMSA22.JPG,AMNE25.JPG,AMNE24.JPG,AMSA25.JPG,,,,,,,,,,,,,,,,,,,,,0,2,2,7,,,AMSA02.jpg,AMNE11.jpg,AMNE03.jpg,AMSA06.jpg,AMNE11.jpg,MN,1,num_6,16,num_6,0.500219225651,,,2017_Jun_07_1424,59.9957088284,FEMA4ImagesEEG,001,200537,
AFNE23.JPG,AFNE24.JPG,AFNE22.JPG,AFSA24.JPG,AFSA22.JPG,AFSA23.JPG,,,,,,,,,,,,,,,,,,,,,0,3,3,8,,,AMNE20.jpg,AMSA10.jpg,AMSA11.jpg,AMNE19.jpg,AMNE20.jpg,MN,1,num_8,16,num_8,1.21673710644,,,2017_Jun_07_1424,59.9957088284,FEMA4ImagesEEG,001,200537,
AMNE23.JPG,AMNE24.JPG,AMNE22.JPG,AMSA24.JPG,AMSA22.JPG,AMSA23.JPG,,,,,,,,,,,,,,,,,,,,,0,4,4,9,,,AMNE15.jpg,AMSA19.jpg,AMSA10.jpg,AMNE11.jpg,AMSA19.jpg,MS,2,num_6,32,num_4,1.55002788827,,,2017_Jun_07_1424,59.9957088284,FEMA4ImagesEEG,001,200537,
AMSA25.JPG,AMNE24.JPG,AMSA24.JPG,AMNE26.JPG,AMSA21.JPG,AMNE25.JPG,,,,,,,,,,,,,,,,,,,,,0,5,5,3,,,AMNE11.jpg,AMNE05.jpg,AMSA09.jpg,AMSA20.jpg,AMNE05.jpg,MN,1,num_6,32,num_4,1.46670318814,,,2017_Jun_07_1424,59.9957088284,FEMA4ImagesEEG,001,200537,
AMSA21.JPG,AMNE23.JPG,AMNE21.JPG,AMSA25.JPG,AMNE25.JPG,AMSA23.JPG,,,,,,,,,,,,,,,,,,,,,0,6,6,5,,,AMNE16.jpg,AMSA04.jpg,AMNE14.jpg,AMSA07.jpg,AMSA04.jpg,MS,2,num_6,16,num_6,0.800135737052,,,2017_Jun_07_1424,59.9957088284,FEMA4ImagesEEG,001,200537,
AMSA21.JPG,AMNE22.JPG,AMNE21.JPG,AMSA23.JPG,AMSA22.JPG,AMNE23.JPG,,,,,,,,,,,,,,,,,,,,,0,7,7,1,,,AMNE16.jpg,AMNE17.jpg,AMSA14.jpg,AMSA03.jpg,AMNE17.jpg,MN,1,num_6,32,num_8,1.23345150449,,,2017_Jun_07_1424,59.9957088284,FEMA4ImagesEEG,001,200537,
AFNE22.JPG,AFSA24.JPG,AFSA22.JPG,AFNE25.JPG,AFNE24.JPG,AFSA25.JPG,,,,,,,,,,,,,,,,,,,,,0,8,8,6,,,AMNE06.jpg,AMSA17.jpg,AMNE07.jpg,AMSA05.jpg,AMSA17.jpg,MS,2,num_6,16,num_6,1.06675816304,,,2017_Jun_07_1424,59.9957088284,FEMA4ImagesEEG,001,200537,
AFSA21.JPG,AFNE22.JPG,AFNE21.JPG,AFSA23.JPG,AFSA22.JPG,AFNE23.JPG,,,,,,,,,,,,,,,,,,,,,0,9,9,0,,,AMNE07.jpg,AMSA13.jpg,AMSA09.jpg,AMNE06.jpg,AMNE07.jpg,MN,1,num_8,32,num_4,2.11669832887,,,2017_Jun_07_1424,59.9957088284,FEMA4ImagesEEG,001,200537,
,,,,,,,,,,,,,,,,,,,,,,,,,,,,,,,,,,,,,,,,,,,space,6.29936515959,2017_Jun_07_1424,59.9957088284,FEMA4ImagesEEG,001,200537,
AFNE01.JPG,AFNE01.JPG,AFNE01.JPG,AFNE01.JPG,AFNE01.JPG,AFNE01.JPG,0,0,0,3,,,,,,,,,,,,,,,,,,,,,,,AFSA03.jpg,AFNE17.jpg,AFNE18.jpg,AFSA05.jpg,AFSA03.jpg,FS,4,num_8,32,num_4,1.11676696735,,,2017_Jun_07_1424,59.9957088284,FEMA4ImagesEEG,001,200537,
AFNE01.JPG,AFNE01.JPG,AFNE01.JPG,AFNE01.JPG,AFNE01.JPG,AFNE01.JPG,0,1,1,4,,,,,,,,,,,,,,,,,,,,,,,AFSA03.jpg,AFNE09.jpg,AFNE03.jpg,AFSA19.jpg,AFSA19.jpg,FS,4,num_4,16,num_4,0.766805408057,,,2017_Jun_07_1424,59.9957088284,FEMA4ImagesEEG,001,200537,
AFNE01.JPG,AFNE01.JPG,AFNE01.JPG,AFNE01.JPG,AFNE01.JPG,AFNE01.JPG,0,2,2,6,,,,,,,,,,,,,,,,,,,,,,,AFSA13.jpg,AFNE08.jpg,AFNE18.jpg,AFSA08.jpg,AFSA08.jpg,FS,4,num_4,16,num_4,0.983453028137,,,2017_Jun_07_1424,59.9957088284,FEMA4ImagesEEG,001,200537,
AFNE01.JPG,AFNE01.JPG,AFNE01.JPG,AFNE01.JPG,AFNE01.JPG,AFNE01.JPG,0,3,3,0,,,,,,,,,,,,,,,,,,,,,,,AFSA12.jpg,AFNE08.jpg,AFSA03.jpg,AFNE15.jpg,AFNE15.jpg,FN,3,num_4,32,num_6,1.10012954683,,,2017_Jun_07_1424,59.9957088284,FEMA4ImagesEEG,001,200537,
AFNE01.JPG,AFNE01.JPG,AFNE01.JPG,AFNE01.JPG,AFNE01.JPG,AFNE01.JPG,0,4,4,1,,,,,,,,,,,,,,,,,,,,,,,AFSA16.jpg,AFNE01.jpg,AFNE09.jpg,AFSA06.jpg,AFNE09.jpg,FN,3,num_2,16,num_2,0.683336054441,,,2017_Jun_07_1424,59.9957088284,FEMA4ImagesEEG,001,200537,
AFNE01.JPG,AFNE01.JPG,AFNE01.JPG,AFNE01.JPG,AFNE01.JPG,AFNE01.JPG,0,5,5,9,,,,,,,,,,,,,,,,,,,,,,,AFNE09.jpg,AFSA15.jpg,AFSA04.jpg,AFNE05.jpg,AFNE05.jpg,FN,3,num_4,32,num_8,1.11669993261,,,2017_Jun_07_1424,59.9957088284,FEMA4ImagesEEG,001,200537,
AFNE01.JPG,AFNE01.JPG,AFNE01.JPG,AFNE01.JPG,AFNE01.JPG,AFNE01.JPG,0,6,6,2,,,,,,,,,,,,,,,,,,,,,,,AFNE07.jpg,AFSA20.jpg,AFNE02.jpg,AFSA06.jpg,AFNE02.jpg,FN,3,num_2,32,num_8,1.00008050562,,,2017_Jun_07_1424,59.9957088284,FEMA4ImagesEEG,001,200537,
AFNE01.JPG,AFNE01.JPG,AFNE01.JPG,AFNE01.JPG,AFNE01.JPG,AFNE01.JPG,0,7,7,8,,,,,,,,,,,,,,,,,,,,,,,AFSA01.jpg,AFNE06.jpg,AFNE04.jpg,AFSA14.jpg,AFSA14.jpg,FS,4,num_4,32,num_8,1.10015488532,,,2017_Jun_07_1424,59.9957088284,FEMA4ImagesEEG,001,200537,
AFNE01.JPG,AFNE01.JPG,AFNE01.JPG,AFNE01.JPG,AFNE01.JPG,AFNE01.JPG,0,8,8,7,,,,,,,,,,,,,,,,,,,,,,,AFNE07.jpg,AFSA08.jpg,AFSA17.jpg,AFNE03.jpg,AFSA08.jpg,FS,4,num_6,16,num_6,1.1167567037,,,2017_Jun_07_1424,59.9957088284,FEMA4ImagesEEG,001,200537,
AFNE01.JPG,AFNE01.JPG,AFNE01.JPG,AFNE01.JPG,AFNE01.JPG,AFNE01.JPG,0,9,9,5,,,,,,,,,,,,,,,,,,,,,,,AFNE06.jpg,AFSA05.jpg,AFSA16.jpg,AFNE11.jpg,AFSA05.jpg,FS,4,num_6,32,num_2,0.900165213039,,,2017_Jun_07_1424,59.9957088284,FEMA4ImagesEEG,001,200537,
AFNE01.JPG,AFNE01.JPG,AFNE01.JPG,AFNE01.JPG,AFNE01.JPG,AFNE01.JPG,1,0,10,6,,,,,,,,,,,,,,,,,,,,,,,AFSA15.jpg,AFSA06.jpg,AFNE04.jpg,AFNE14.jpg,AFSA15.jpg,FS,4,num_8,16,num_8,0.950147075113,,,2017_Jun_07_1424,59.9957088284,FEMA4ImagesEEG,001,200537,
AFNE01.JPG,AFNE01.JPG,AFNE01.JPG,AFNE01.JPG,AFNE01.JPG,AFNE01.JPG,1,1,11,5,,,,,,,,,,,,,,,,,,,,,,,AFSA06.jpg,AFNE13.jpg,AFSA04.jpg,AFNE06.jpg,AFNE06.jpg,FN,3,num_4,32,num_8,1.08348378702,,,2017_Jun_07_1424,59.9957088284,FEMA4ImagesEEG,001,200537,
AFNE01.JPG,AFNE01.JPG,AFNE01.JPG,AFNE01.JPG,AFNE01.JPG,AFNE01.JPG,1,2,12,1,,,,,,,,,,,,,,,,,,,,,,,AFNE17.jpg,AFSA10.jpg,AFNE05.jpg,AFSA15.jpg,AFNE05.jpg,FN,3,num_2,32,num_6,0.966754987836,,,2017_Jun_07_1424,59.9957088284,FEMA4ImagesEEG,001,200537,
AFNE01.JPG,AFNE01.JPG,AFNE01.JPG,AFNE01.JPG,AFNE01.JPG,AFNE01.JPG,1,3,13,0,,,,,,,,,,,,,,,,,,,,,,,AFNE03.jpg,AFSA13.jpg,AFSA10.jpg,AFNE05.jpg,AFSA13.jpg,FS,4,num_6,16,num_6,0.833475046791,,,2017_Jun_07_1424,59.9957088284,FEMA4ImagesEEG,001,200537,
AFNE01.JPG,AFNE01.JPG,AFNE01.JPG,AFNE01.JPG,AFNE01.JPG,AFNE01.JPG,1,4,14,2,,,,,,,,,,,,,,,,,,,,,,,AFSA14.jpg,AFNE02.jpg,AFSA18.jpg,AFNE13.jpg,AFNE02.jpg,FN,3,num_6,32,num_2,1.93336211448,,,2017_Jun_07_1424,59.9957088284,FEMA4ImagesEEG,001,200537,
AFNE01.JPG,AFNE01.JPG,AFNE01.JPG,AFNE01.JPG,AFNE01.JPG,AFNE01.JPG,1,5,15,4,,,,,,,,,,,,,,,,,,,,,,,AFSA18.jpg,AFSA17.jpg,AFNE17.jpg,AFNE15.jpg,AFNE15.jpg,FN,3,num_4,16,num_4,0.95011692564,,,2017_Jun_07_1424,59.9957088284,FEMA4ImagesEEG,001,200537,
AFNE01.JPG,AFNE01.JPG,AFNE01.JPG,AFNE01.JPG,AFNE01.JPG,AFNE01.JPG,1,6,16,3,,,,,,,,,,,,,,,,,,,,,,,AFSA07.jpg,AFSA17.jpg,AFNE01.jpg,AFNE17.jpg,AFSA17.jpg,FS,4,num_6,16,num_6,0.700166239403,,,2017_Jun_07_1424,59.9957088284,FEMA4ImagesEEG,001,200537,
AFNE01.JPG,AFNE01.JPG,AFNE01.JPG,AFNE01.JPG,AFNE01.JPG,AFNE01.JPG,1,7,17,8,,,,,,,,,,,,,,,,,,,,,,,AFSA15.jpg,AFNE20.jpg,AFSA11.jpg,AFNE15.jpg,AFSA11.jpg,FS,4,num_2,16,num_2,1.20016415464,,,2017_Jun_07_1424,59.9957088284,FEMA4ImagesEEG,001,200537,
AFNE01.JPG,AFNE01.JPG,AFNE01.JPG,AFNE01.JPG,AFNE01.JPG,AFNE01.JPG,1,8,18,7,,,,,,,,,,,,,,,,,,,,,,,AFSA01.jpg,AFNE14.jpg,AFNE03.jpg,AFSA06.jpg,AFNE14.jpg,FN,3,num_6,32,num_2,1.50009221258,,,2017_Jun_07_1424,59.9957088284,FEMA4ImagesEEG,001,200537,
AFNE01.JPG,AFNE01.JPG,AFNE01.JPG,AFNE01.JPG,AFNE01.JPG,AFNE01.JPG,1,9,19,9,,,,,,,,,,,,,,,,,,,,,,,AFSA03.jpg,AFNE12.jpg,AFSA06.jpg,AFNE11.jpg,AFNE11.jpg,FN,3,num_4,16,num_4,0.916764465626,,,2017_Jun_07_1424,59.9957088284,FEMA4ImagesEEG,001,200537,
AFNE01.JPG,AFNE01.JPG,AFNE01.JPG,AFNE01.JPG,AFNE01.JPG,AFNE01.JPG,2,0,20,7,,,,,,,,,,,,,,,,,,,,,,,AFSA09.jpg,AFNE20.jpg,AFSA18.jpg,AFNE06.jpg,AFSA09.jpg,FS,4,num_8,16,num_8,1.20010802522,,,2017_Jun_07_1424,59.9957088284,FEMA4ImagesEEG,001,200537,
AFNE01.JPG,AFNE01.JPG,AFNE01.JPG,AFNE01.JPG,AFNE01.JPG,AFNE01.JPG,2,1,21,1,,,,,,,,,,,,,,,,,,,,,,,AFSA02.jpg,AFNE09.jpg,AFNE03.jpg,AFSA06.jpg,AFSA02.jpg,FS,4,num_8,32,num_4,1.01676250924,,,2017_Jun_07_1424,59.9957088284,FEMA4ImagesEEG,001,200537,
AFNE01.JPG,AFNE01.JPG,AFNE01.JPG,AFNE01.JPG,AFNE01.JPG,AFNE01.JPG,2,2,22,2,,,,,,,,,,,,,,,,,,,,,,,AFSA15.jpg,AFSA04.jpg,AFNE11.jpg,AFNE04.jpg,AFSA15.jpg,FS,4,num_8,32,num_2,1.45007314463,,,2017_Jun_07_1424,59.9957088284,FEMA4ImagesEEG,001,200537,
AFNE01.JPG,AFNE01.JPG,AFNE01.JPG,AFNE01.JPG,AFNE01.JPG,AFNE01.JPG,2,3,23,0,,,,,,,,,,,,,,,,,,,,,,,AFNE20.jpg,AFSA04.jpg,AFNE01.jpg,AFSA11.jpg,AFNE01.jpg,FN,3,num_2,16,num_2,1.50011979626,,,2017_Jun_07_1424,59.9957088284,FEMA4ImagesEEG,001,200537,
AFNE01.JPG,AFNE01.JPG,AFNE01.JPG,AFNE01.JPG,AFNE01.JPG,AFNE01.JPG,2,4,24,5,,,,,,,,,,,,,,,,,,,,,,,AFSA11.jpg,AFNE16.jpg,AFSA15.jpg,AFNE20.jpg,AFNE20.jpg,FN,3,num_4,32,num_8,1.11675766599,,,2017_Jun_07_1424,59.9957088284,FEMA4ImagesEEG,001,200537,
AFNE01.JPG,AFNE01.JPG,AFNE01.JPG,AFNE01.JPG,AFNE01.JPG,AFNE01.JPG,2,5,25,4,,,,,,,,,,,,,,,,,,,,,,,AFNE11.jpg,AFSA16.jpg,AFNE14.jpg,AFSA18.jpg,AFSA16.jpg,FS,4,num_6,32,num_4,0.883505020058,,,2017_Jun_07_1424,59.9957088284,FEMA4ImagesEEG,001,200537,
AFNE01.JPG,AFNE01.JPG,AFNE01.JPG,AFNE01.JPG,AFNE01.JPG,AFNE01.JPG,2,6,26,8,,,,,,,,,,,,,,,,,,,,,,,AFNE14.jpg,AFSA01.jpg,AFSA04.jpg,AFNE10.jpg,AFNE14.jpg,FN,3,num_8,32,num_2,1.41671811882,,,2017_Jun_07_1424,59.9957088284,FEMA4ImagesEEG,001,200537,
AFNE01.JPG,AFNE01.JPG,AFNE01.JPG,AFNE01.JPG,AFNE01.JPG,AFNE01.JPG,2,7,27,6,,,,,,,,,,,,,,,,,,,,,,,AFSA13.jpg,AFNE15.jpg,AFNE05.jpg,AFSA19.jpg,AFSA13.jpg,FS,4,num_8,16,num_8,0.983453028137,,,2017_Jun_07_1424,59.9957088284,FEMA4ImagesEEG,001,200537,
AFNE01.JPG,AFNE01.JPG,AFNE01.JPG,AFNE01.JPG,AFNE01.JPG,AFNE01.JPG,2,8,28,9,,,,,,,,,,,,,,,,,,,,,,,AFSA20.jpg,AFNE19.jpg,AFNE02.jpg,AFSA18.jpg,AFSA18.jpg,FS,4,num_4,16,num_4,1.30006918358,,,2017_Jun_07_1424,59.9957088284,FEMA4ImagesEEG,001,200537,
AFNE01.JPG,AFNE01.JPG,AFNE01.JPG,AFNE01.JPG,AFNE01.JPG,AFNE01.JPG,2,9,29,3,,,,,,,,,,,,,,,,,,,,,,,AFSA18.jpg,AFNE16.jpg,AFSA07.jpg,AFNE18.jpg,AFSA07.jpg,FS,4,num_2,16,num_2,1.28343625343,,,2017_Jun_07_1424,59.9957088284,FEMA4ImagesEEG,001,200537,
AFNE01.JPG,AFNE01.JPG,AFNE01.JPG,AFNE01.JPG,AFNE01.JPG,AFNE01.JPG,3,0,30,3,,,,,,,,,,,,,,,,,,,,,,,AFSA07.jpg,AFSA20.jpg,AFNE12.jpg,AFNE05.jpg,AFSA20.jpg,FS,4,num_6,16,num_6,2.06665937509,,,2017_Jun_07_1424,59.9957088284,FEMA4ImagesEEG,001,200537,
AFNE01.JPG,AFNE01.JPG,AFNE01.JPG,AFNE01.JPG,AFNE01.JPG,AFNE01.JPG,3,1,31,0,,,,,,,,,,,,,,,,,,,,,,,AFSA03.jpg,AFNE03.jpg,AFSA02.jpg,AFNE14.jpg,AFSA02.jpg,FS,4,num_2,32,num_6,0.850113750435,,,2017_Jun_07_1424,59.9957088284,FEMA4ImagesEEG,001,200537,
AFNE01.JPG,AFNE01.JPG,AFNE01.JPG,AFNE01.JPG,AFNE01.JPG,AFNE01.JPG,3,2,32,1,,,,,,,,,,,,,,,,,,,,,,,AFSA20.jpg,AFNE09.jpg,AFSA02.jpg,AFNE03.jpg,AFNE09.jpg,FN,3,num_6,32,num_8,1.50008034543,,,2017_Jun_07_1424,59.9957088284,FEMA4ImagesEEG,001,200537,
AFNE01.JPG,AFNE01.JPG,AFNE01.JPG,AFNE01.JPG,AFNE01.JPG,AFNE01.JPG,3,3,33,2,,,,,,,,,,,,,,,,,,,,,,,AFSA19.jpg,AFSA05.jpg,AFNE11.jpg,AFNE03.jpg,AFSA05.jpg,FS,4,num_6,16,num_6,0.749986769632,,,2017_Jun_07_1424,59.9957088284,FEMA4ImagesEEG,001,200537,
AFNE01.JPG,AFNE01.JPG,AFNE01.JPG,AFNE01.JPG,AFNE01.JPG,AFNE01.JPG,3,4,34,7,,,,,,,,,,,,,,,,,,,,,,,AFNE19.jpg,AFNE15.jpg,AFSA04.jpg,AFSA11.jpg,AFNE15.jpg,FN,3,num_6,32,num_8,1.60008512437,,,2017_Jun_07_1424,59.9957088284,FEMA4ImagesEEG,001,200537,
AFNE01.JPG,AFNE01.JPG,AFNE01.JPG,AFNE01.JPG,AFNE01.JPG,AFNE01.JPG,3,5,35,6,,,,,,,,,,,,,,,,,,,,,,,AFNE06.jpg,AFSA16.jpg,AFSA03.jpg,AFNE14.jpg,AFSA03.jpg,FS,4,num_2,16,num_2,1.31673162174,,,2017_Jun_07_1424,59.9957088284,FEMA4ImagesEEG,001,200537,
AFNE01.JPG,AFNE01.JPG,AFNE01.JPG,AFNE01.JPG,AFNE01.JPG,AFNE01.JPG,3,6,36,9,,,,,,,,,,,,,,,,,,,,,,,AFSA20.jpg,AFSA14.jpg,AFNE15.jpg,AFNE17.jpg,AFSA14.jpg,FS,4,num_6,32,num_8,1.06676746462,,,2017_Jun_07_1424,59.9957088284,FEMA4ImagesEEG,001,200537,
AFNE01.JPG,AFNE01.JPG,AFNE01.JPG,AFNE01.JPG,AFNE01.JPG,AFNE01.JPG,3,7,37,5,,,,,,,,,,,,,,,,,,,,,,,AFNE11.jpg,AFNE06.jpg,AFSA19.jpg,AFSA10.jpg,AFNE06.jpg,FN,3,num_6,32,num_8,3.13330752426,,,2017_Jun_07_1424,59.9957088284,FEMA4ImagesEEG,001,200537,
AFNE01.JPG,AFNE01.JPG,AFNE01.JPG,AFNE01.JPG,AFNE01.JPG,AFNE01.JPG,3,8,38,4,,,,,,,,,,,,,,,,,,,,,,,AFNE10.jpg,AFNE11.jpg,AFSA14.jpg,AFSA02.jpg,AFNE10.jpg,FN,3,num_8,32,num_4,1.3501341173,,,2017_Jun_07_1424,59.9957088284,FEMA4ImagesEEG,001,200537,
AFNE01.JPG,AFNE01.JPG,AFNE01.JPG,AFNE01.JPG,AFNE01.JPG,AFNE01.JPG,3,9,39,8,,,,,,,,,,,,,,,,,,,,,,,AFNE03.jpg,AFSA02.jpg,AFNE08.jpg,AFSA04.jpg,AFNE03.jpg,FN,3,num_8,16,num_8,0.900212361943,,,2017_Jun_07_1424,59.9957088284,FEMA4ImagesEEG,001,200537,
AFNE01.JPG,AFNE01.JPG,AFNE01.JPG,AFNE01.JPG,AFNE01.JPG,AFNE01.JPG,4,0,40,4,,,,,,,,,,,,,,,,,,,,,,,AFSA15.jpg,AFNE12.jpg,AFNE17.jpg,AFSA02.jpg,AFSA02.jpg,FS,4,num_4,32,num_8,0.933439092012,,,2017_Jun_07_1424,59.9957088284,FEMA4ImagesEEG,001,200537,
AFNE01.JPG,AFNE01.JPG,AFNE01.JPG,AFNE01.JPG,AFNE01.JPG,AFNE01.JPG,4,1,41,3,,,,,,,,,,,,,,,,,,,,,,,AFNE04.jpg,AFSA10.jpg,AFNE19.jpg,AFSA02.jpg,AFNE19.jpg,FN,3,num_2,16,num_2,0.850155767286,,,2017_Jun_07_1424,59.9957088284,FEMA4ImagesEEG,001,200537,
AFNE01.JPG,AFNE01.JPG,AFNE01.JPG,AFNE01.JPG,AFNE01.JPG,AFNE01.JPG,4,2,42,5,,,,,,,,,,,,,,,,,,,,,,,AFSA12.jpg,AFSA15.jpg,AFNE11.jpg,AFNE05.jpg,AFSA15.jpg,FS,4,num_6,16,num_6,0.450184762012,,,2017_Jun_07_1424,59.9957088284,FEMA4ImagesEEG,001,200537,
AFNE01.JPG,AFNE01.JPG,AFNE01.JPG,AFNE01.JPG,AFNE01.JPG,AFNE01.JPG,4,3,43,2,,,,,,,,,,,,,,,,,,,,,,,AFSA17.jpg,AFNE07.jpg,AFNE14.jpg,AFSA18.jpg,AFSA18.jpg,FS,4,num_4,16,num_4,1.05012555374,,,2017_Jun_07_1424,59.9957088284,FEMA4ImagesEEG,001,200537,
AFNE01.JPG,AFNE01.JPG,AFNE01.JPG,AFNE01.JPG,AFNE01.JPG,AFNE01.JPG,4,4,44,8,,,,,,,,,,,,,,,,,,,,,,,AFNE04.jpg,AFNE13.jpg,AFSA12.jpg,AFSA19.jpg,AFNE13.jpg,FN,3,num_6,32,num_8,0.983361296589,,,2017_Jun_07_1424,59.9957088284,FEMA4ImagesEEG,001,200537,
AFNE01.JPG,AFNE01.JPG,AFNE01.JPG,AFNE01.JPG,AFNE01.JPG,AFNE01.JPG,4,5,45,1,,,,,,,,,,,,,,,,,,,,,,,AFNE14.jpg,AFSA08.jpg,AFSA15.jpg,AFNE06.jpg,AFNE06.jpg,FN,3,num_4,16,num_4,0.650177000323,,,2017_Jun_07_1424,59.9957088284,FEMA4ImagesEEG,001,200537,
AFNE01.JPG,AFNE01.JPG,AFNE01.JPG,AFNE01.JPG,AFNE01.JPG,AFNE01.JPG,4,6,46,0,,,,,,,,,,,,,,,,,,,,,,,AFNE03.jpg,AFSA03.jpg,AFSA06.jpg,AFNE18.jpg,AFSA03.jpg,FS,4,num_6,16,num_6,0.46681095683,,,2017_Jun_07_1424,59.9957088284,FEMA4ImagesEEG,001,200537,
AFNE01.JPG,AFNE01.JPG,AFNE01.JPG,AFNE01.JPG,AFNE01.JPG,AFNE01.JPG,4,7,47,7,,,,,,,,,,,,,,,,,,,,,,,AFNE15.jpg,AFSA09.jpg,AFNE02.jpg,AFSA12.jpg,AFNE02.jpg,FN,3,num_2,16,num_2,0.683504121844,,,2017_Jun_07_1424,59.9957088284,FEMA4ImagesEEG,001,200537,
AFNE01.JPG,AFNE01.JPG,AFNE01.JPG,AFNE01.JPG,AFNE01.JPG,AFNE01.JPG,4,8,48,9,,,,,,,,,,,,,,,,,,,,,,,AFSA17.jpg,AFNE18.jpg,AFNE12.jpg,AFSA06.jpg,AFSA17.jpg,FS,4,num_8,32,num_4,1.10010356689,,,2017_Jun_07_1424,59.9957088284,FEMA4ImagesEEG,001,200537,
AFNE01.JPG,AFNE01.JPG,AFNE01.JPG,AFNE01.JPG,AFNE01.JPG,AFNE01.JPG,4,9,49,6,,,,,,,,,,,,,,,,,,,,,,,AFNE09.jpg,AFSA18.jpg,AFNE17.jpg,AFSA14.jpg,AFSA18.jpg,FS,4,num_6,16,num_6,0.783503448358,,,2017_Jun_07_1424,59.9957088284,FEMA4ImagesEEG,001,200537,
AFNE01.JPG,AFNE01.JPG,AFNE01.JPG,AFNE01.JPG,AFNE01.JPG,AFNE01.JPG,5,0,50,1,,,,,,,,,,,,,,,,,,,,,,,AFSA08.jpg,AFNE01.jpg,AFNE17.jpg,AFSA09.jpg,AFNE01.jpg,FN,3,num_6,16,num_6,0.933469241718,,,2017_Jun_07_1424,59.9957088284,FEMA4ImagesEEG,001,200537,
AFNE01.JPG,AFNE01.JPG,AFNE01.JPG,AFNE01.JPG,AFNE01.JPG,AFNE01.JPG,5,1,51,0,,,,,,,,,,,,,,,,,,,,,,,AFSA18.jpg,AFSA07.jpg,AFNE19.jpg,AFNE18.jpg,AFNE19.jpg,FN,3,num_2,16,num_2,1.31672937679,,,2017_Jun_07_1424,59.9957088284,FEMA4ImagesEEG,001,200537,
AFNE01.JPG,AFNE01.JPG,AFNE01.JPG,AFNE01.JPG,AFNE01.JPG,AFNE01.JPG,5,2,52,6,,,,,,,,,,,,,,,,,,,,,,,AFSA01.jpg,AFNE05.jpg,AFSA17.jpg,AFNE01.jpg,AFSA17.jpg,FS,4,num_2,16,num_2,2.25001034373,,,2017_Jun_07_1424,59.9957088284,FEMA4ImagesEEG,001,200537,
AFNE01.JPG,AFNE01.JPG,AFNE01.JPG,AFNE01.JPG,AFNE01.JPG,AFNE01.JPG,5,3,53,9,,,,,,,,,,,,,,,,,,,,,,,AFNE12.jpg,AFSA02.jpg,AFNE13.jpg,AFSA14.jpg,AFNE12.jpg,FN,3,num_8,32,num_2,2.71662436659,,,2017_Jun_07_1424,59.9957088284,FEMA4ImagesEEG,001,200537,
AFNE01.JPG,AFNE01.JPG,AFNE01.JPG,AFNE01.JPG,AFNE01.JPG,AFNE01.JPG,5,4,54,5,,,,,,,,,,,,,,,,,,,,,,,AFSA03.jpg,AFNE12.jpg,AFNE10.jpg,AFSA08.jpg,AFSA03.jpg,FS,4,num_8,32,num_4,1.16678860132,,,2017_Jun_07_1424,59.9957088284,FEMA4ImagesEEG,001,200537,
AFNE01.JPG,AFNE01.JPG,AFNE01.JPG,AFNE01.JPG,AFNE01.JPG,AFNE01.JPG,5,5,55,2,,,,,,,,,,,,,,,,,,,,,,,AFSA04.jpg,AFSA19.jpg,AFNE07.jpg,AFNE10.jpg,AFSA19.jpg,FS,4,num_6,16,num_6,0.400429663016,,,2017_Jun_07_1424,59.9957088284,FEMA4ImagesEEG,001,200537,
AFNE01.JPG,AFNE01.JPG,AFNE01.JPG,AFNE01.JPG,AFNE01.JPG,AFNE01.JPG,5,6,56,8,,,,,,,,,,,,,,,,,,,,,,,AFSA09.jpg,AFNE20.jpg,AFNE06.jpg,AFSA02.jpg,AFNE20.jpg,FN,3,num_6,16,num_6,0.466800051741,,,2017_Jun_07_1424,59.9957088284,FEMA4ImagesEEG,001,200537,
AFNE01.JPG,AFNE01.JPG,AFNE01.JPG,AFNE01.JPG,AFNE01.JPG,AFNE01.JPG,5,7,57,7,,,,,,,,,,,,,,,,,,,,,,,AFNE17.jpg,AFNE20.jpg,AFSA06.jpg,AFSA11.jpg,AFNE20.jpg,FN,3,num_6,16,num_6,0.550128921401,,,2017_Jun_07_1424,59.9957088284,FEMA4ImagesEEG,001,200537,
AFNE01.JPG,AFNE01.JPG,AFNE01.JPG,AFNE01.JPG,AFNE01.JPG,AFNE01.JPG,5,8,58,4,,,,,,,,,,,,,,,,,,,,,,,AFNE14.jpg,AFNE13.jpg,AFSA09.jpg,AFSA10.jpg,AFSA10.jpg,FS,4,num_4,32,num_8,0.983492158353,,,2017_Jun_07_1424,59.9957088284,FEMA4ImagesEEG,001,200537,
AFNE01.JPG,AFNE01.JPG,AFNE01.JPG,AFNE01.JPG,AFNE01.JPG,AFNE01.JPG,5,9,59,3,,,,,,,,,,,,,,,,,,,,,,,AFNE14.jpg,AFNE05.jpg,AFSA20.jpg,AFSA19.jpg,AFSA19.jpg,FS,4,num_4,16,num_4,1.46677984507,,,2017_Jun_07_1424,59.9957088284,FEMA4ImagesEEG,001,200537,
,,,,,,,,,,,,,,,,,,,,,,,,,,,,,,,,,,,,,,,,,,,space,7.36630518199,2017_Jun_07_1424,59.9957088284,FEMA4ImagesEEG,001,200537,
AFNE01.JPG,AFNE01.JPG,AFNE01.JPG,AFNE01.JPG,AFNE01.JPG,AFNE01.JPG,,,,,0,0,0,4,,,,,,,,,,,,,,,,,,,AMSA14.jpg,AMNE10.jpg,AMNE07.jpg,AMSA02.jpg,AMNE10.jpg,MN,1,num_6,32,num_8,1.1667481882,,,2017_Jun_07_1424,59.9957088284,FEMA4ImagesEEG,001,200537,
AFNE01.JPG,AFNE01.JPG,AFNE01.JPG,AFNE01.JPG,AFNE01.JPG,AFNE01.JPG,,,,,0,1,1,8,,,,,,,,,,,,,,,,,,,AMNE07.jpg,AMSA19.jpg,AMNE20.jpg,AMSA12.jpg,AMSA19.jpg,MS,2,num_6,32,num_8,1.20009872364,,,2017_Jun_07_1424,59.9957088284,FEMA4ImagesEEG,001,200537,
AFNE01.JPG,AFNE01.JPG,AFNE01.JPG,AFNE01.JPG,AFNE01.JPG,AFNE01.JPG,,,,,0,2,2,9,,,,,,,,,,,,,,,,,,,AMSA14.jpg,AMNE13.jpg,AMSA11.jpg,AMNE09.jpg,AMSA11.jpg,MS,2,num_2,16,num_2,1.20010962896,,,2017_Jun_07_1424,59.9957088284,FEMA4ImagesEEG,001,200537,
AFNE01.JPG,AFNE01.JPG,AFNE01.JPG,AFNE01.JPG,AFNE01.JPG,AFNE01.JPG,,,,,0,3,3,2,,,,,,,,,,,,,,,,,,,AMSA05.jpg,AMNE19.jpg,AMNE02.jpg,AMSA14.jpg,AMNE02.jpg,MN,1,num_2,16,num_2,0.700166881084,,,2017_Jun_07_1424,59.9957088284,FEMA4ImagesEEG,001,200537,
AFNE01.JPG,AFNE01.JPG,AFNE01.JPG,AFNE01.JPG,AFNE01.JPG,AFNE01.JPG,,,,,0,4,4,0,,,,,,,,,,,,,,,,,,,AMSA01.jpg,AMNE01.jpg,AMSA11.jpg,AMNE16.jpg,AMNE01.jpg,MN,1,num_6,16,num_6,0.833750241669,,,2017_Jun_07_1424,59.9957088284,FEMA4ImagesEEG,001,200537,
AFNE01.JPG,AFNE01.JPG,AFNE01.JPG,AFNE01.JPG,AFNE01.JPG,AFNE01.JPG,,,,,0,5,5,1,,,,,,,,,,,,,,,,,,,AMSA11.jpg,AMSA06.jpg,AMNE01.jpg,AMNE19.jpg,AMNE01.jpg,MN,1,num_2,16,num_2,0.650161284255,,,2017_Jun_07_1424,59.9957088284,FEMA4ImagesEEG,001,200537,
AFNE01.JPG,AFNE01.JPG,AFNE01.JPG,AFNE01.JPG,AFNE01.JPG,AFNE01.JPG,,,,,0,6,6,7,,,,,,,,,,,,,,,,,,,AMNE16.jpg,AMSA13.jpg,AMNE14.jpg,AMSA16.jpg,AMNE14.jpg,MN,1,num_2,32,num_4,1.40006562346,,,2017_Jun_07_1424,59.9957088284,FEMA4ImagesEEG,001,200537,
AFNE01.JPG,AFNE01.JPG,AFNE01.JPG,AFNE01.JPG,AFNE01.JPG,AFNE01.JPG,,,,,0,7,7,5,,,,,,,,,,,,,,,,,,,AMNE04.jpg,AMNE19.jpg,AMSA03.jpg,AMSA06.jpg,AMSA06.jpg,MS,2,num_4,32,num_6,1.53342286241,,,2017_Jun_07_1424,59.9957088284,FEMA4ImagesEEG,001,200537,
AFNE01.JPG,AFNE01.JPG,AFNE01.JPG,AFNE01.JPG,AFNE01.JPG,AFNE01.JPG,,,,,0,8,8,3,,,,,,,,,,,,,,,,,,,AMNE20.jpg,AMSA06.jpg,AMNE17.jpg,AMSA19.jpg,AMNE17.jpg,MN,1,num_2,32,num_8,1.05009219656,,,2017_Jun_07_1424,59.9957088284,FEMA4ImagesEEG,001,200537,
AFNE01.JPG,AFNE01.JPG,AFNE01.JPG,AFNE01.JPG,AFNE01.JPG,AFNE01.JPG,,,,,0,9,9,6,,,,,,,,,,,,,,,,,,,AMSA18.jpg,AMNE04.jpg,AMNE13.jpg,AMSA15.jpg,AMNE04.jpg,MN,1,num_6,16,num_6,0.56683914992,,,2017_Jun_07_1424,59.9957088284,FEMA4ImagesEEG,001,200537,
AFNE01.JPG,AFNE01.JPG,AFNE01.JPG,AFNE01.JPG,AFNE01.JPG,AFNE01.JPG,,,,,1,0,10,3,,,,,,,,,,,,,,,,,,,AMSA05.jpg,AMSA13.jpg,AMNE20.jpg,AMNE04.jpg,AMNE04.jpg,MN,1,num_4,16,num_4,0.94999408233,,,2017_Jun_07_1424,59.9957088284,FEMA4ImagesEEG,001,200537,
AFNE01.JPG,AFNE01.JPG,AFNE01.JPG,AFNE01.JPG,AFNE01.JPG,AFNE01.JPG,,,,,1,1,11,0,,,,,,,,,,,,,,,,,,,AMNE12.jpg,AMSA10.jpg,AMSA17.jpg,AMNE01.jpg,AMNE12.jpg,MN,1,num_8,32,num_6,1.13348264853,,,2017_Jun_07_1424,59.9957088284,FEMA4ImagesEEG,001,200537,
AFNE01.JPG,AFNE01.JPG,AFNE01.JPG,AFNE01.JPG,AFNE01.JPG,AFNE01.JPG,,,,,1,2,12,5,,,,,,,,,,,,,,,,,,,AMNE18.jpg,AMSA15.jpg,AMSA06.jpg,AMNE17.jpg,AMNE18.jpg,MN,1,num_8,32,num_4,1.93337141583,,,2017_Jun_07_1424,59.9957088284,FEMA4ImagesEEG,001,200537,
AFNE01.JPG,AFNE01.JPG,AFNE01.JPG,AFNE01.JPG,AFNE01.JPG,AFNE01.JPG,,,,,1,3,13,8,,,,,,,,,,,,,,,,,,,AMSA08.jpg,AMSA15.jpg,AMNE09.jpg,AMNE18.jpg,AMSA08.jpg,MS,2,num_8,16,num_8,1.55005964171,,,2017_Jun_07_1424,59.9957088284,FEMA4ImagesEEG,001,200537,
AFNE01.JPG,AFNE01.JPG,AFNE01.JPG,AFNE01.JPG,AFNE01.JPG,AFNE01.JPG,,,,,1,4,14,1,,,,,,,,,,,,,,,,,,,AMNE14.jpg,AMSA12.jpg,AMNE18.jpg,AMSA20.jpg,AMNE14.jpg,MN,1,num_8,16,num_8,0.633492751746,,,2017_Jun_07_1424,59.9957088284,FEMA4ImagesEEG,001,200537,
AFNE01.JPG,AFNE01.JPG,AFNE01.JPG,AFNE01.JPG,AFNE01.JPG,AFNE01.JPG,,,,,1,5,15,7,,,,,,,,,,,,,,,,,,,AMSA05.jpg,AMNE03.jpg,AMNE06.jpg,AMSA15.jpg,AMNE03.jpg,MN,1,num_6,32,num_4,0.81682511745,,,2017_Jun_07_1424,59.9957088284,FEMA4ImagesEEG,001,200537,
AFNE01.JPG,AFNE01.JPG,AFNE01.JPG,AFNE01.JPG,AFNE01.JPG,AFNE01.JPG,,,,,1,6,16,9,,,,,,,,,,,,,,,,,,,AMNE13.jpg,AMSA07.jpg,AMNE09.jpg,AMSA01.jpg,AMSA01.jpg,MS,2,num_4,32,num_6,1.30007816432,,,2017_Jun_07_1424,59.9957088284,FEMA4ImagesEEG,001,200537,
AFNE01.JPG,AFNE01.JPG,AFNE01.JPG,AFNE01.JPG,AFNE01.JPG,AFNE01.JPG,,,,,1,7,17,2,,,,,,,,,,,,,,,,,,,AMSA15.jpg,AMNE17.jpg,AMSA05.jpg,AMNE08.jpg,AMNE08.jpg,MN,1,num_4,32,num_8,0.916773766978,,,2017_Jun_07_1424,59.9957088284,FEMA4ImagesEEG,001,200537,
AFNE01.JPG,AFNE01.JPG,AFNE01.JPG,AFNE01.JPG,AFNE01.JPG,AFNE01.JPG,,,,,1,8,18,6,,,,,,,,,,,,,,,,,,,AMSA14.jpg,AMNE04.jpg,AMSA11.jpg,AMNE15.jpg,AMSA11.jpg,MS,2,num_2,32,num_6,1.13344255602,,,2017_Jun_07_1424,59.9957088284,FEMA4ImagesEEG,001,200537,
AFNE01.JPG,AFNE01.JPG,AFNE01.JPG,AFNE01.JPG,AFNE01.JPG,AFNE01.JPG,,,,,1,9,19,4,,,,,,,,,,,,,,,,,,,AMNE02.jpg,AMSA16.jpg,AMNE12.jpg,AMSA07.jpg,AMSA16.jpg,MS,2,num_6,32,num_4,1.43343379977,,,2017_Jun_07_1424,59.9957088284,FEMA4ImagesEEG,001,200537,
AFNE01.JPG,AFNE01.JPG,AFNE01.JPG,AFNE01.JPG,AFNE01.JPG,AFNE01.JPG,,,,,2,0,20,6,,,,,,,,,,,,,,,,,,,AMNE17.jpg,AMSA11.jpg,AMNE11.jpg,AMSA15.jpg,AMNE17.jpg,MN,1,num_8,16,num_8,0.733460324816,,,2017_Jun_07_1424,59.9957088284,FEMA4ImagesEEG,001,200537,
AFNE01.JPG,AFNE01.JPG,AFNE01.JPG,AFNE01.JPG,AFNE01.JPG,AFNE01.JPG,,,,,2,1,21,4,,,,,,,,,,,,,,,,,,,AMSA04.jpg,AMNE17.jpg,AMSA13.jpg,AMNE07.jpg,AMSA13.jpg,MS,2,num_2,32,num_8,1.24998211884,,,2017_Jun_07_1424,59.9957088284,FEMA4ImagesEEG,001,200537,
AFNE01.JPG,AFNE01.JPG,AFNE01.JPG,AFNE01.JPG,AFNE01.JPG,AFNE01.JPG,,,,,2,2,22,5,,,,,,,,,,,,,,,,,,,AMNE11.jpg,AMSA12.jpg,AMSA03.jpg,AMNE06.jpg,AMNE06.jpg,MN,1,num_4,32,num_8,1.0501194594,,,2017_Jun_07_1424,59.9957088284,FEMA4ImagesEEG,001,200537,
AFNE01.JPG,AFNE01.JPG,AFNE01.JPG,AFNE01.JPG,AFNE01.JPG,AFNE01.JPG,,,,,2,3,23,0,,,,,,,,,,,,,,,,,,,AMNE07.jpg,AMSA06.jpg,AMSA12.jpg,AMNE13.jpg,AMSA06.jpg,MS,2,num_6,32,num_8,1.2498009007,,,2017_Jun_07_1424,59.9957088284,FEMA4ImagesEEG,001,200537,
AFNE01.JPG,AFNE01.JPG,AFNE01.JPG,AFNE01.JPG,AFNE01.JPG,AFNE01.JPG,,,,,2,4,24,8,,,,,,,,,,,,,,,,,,,AMSA13.jpg,AMNE09.jpg,AMSA07.jpg,AMNE20.jpg,AMSA13.jpg,MS,2,num_8,32,num_4,1.28341732989,,,2017_Jun_07_1424,59.9957088284,FEMA4ImagesEEG,001,200537,
AFNE01.JPG,AFNE01.JPG,AFNE01.JPG,AFNE01.JPG,AFNE01.JPG,AFNE01.JPG,,,,,2,5,25,1,,,,,,,,,,,,,,,,,,,AMSA08.jpg,AMSA02.jpg,AMNE02.jpg,AMNE18.jpg,AMNE02.jpg,MN,1,num_2,32,num_6,0.633304156596,,,2017_Jun_07_1424,59.9957088284,FEMA4ImagesEEG,001,200537,
AFNE01.JPG,AFNE01.JPG,AFNE01.JPG,AFNE01.JPG,AFNE01.JPG,AFNE01.JPG,,,,,2,6,26,7,,,,,,,,,,,,,,,,,,,AMNE20.jpg,AMSA05.jpg,AMNE14.jpg,AMSA10.jpg,AMNE14.jpg,MN,1,num_2,16,num_2,2.48331270437,,,2017_Jun_07_1424,59.9957088284,FEMA4ImagesEEG,001,200537,
AFNE01.JPG,AFNE01.JPG,AFNE01.JPG,AFNE01.JPG,AFNE01.JPG,AFNE01.JPG,,,,,2,7,27,3,,,,,,,,,,,,,,,,,,,AMNE13.jpg,AMSA08.jpg,AMNE15.jpg,AMSA11.jpg,AMSA11.jpg,MS,2,num_4,32,num_8,1.41676687123,,,2017_Jun_07_1424,59.9957088284,FEMA4ImagesEEG,001,200537,
AFNE01.JPG,AFNE01.JPG,AFNE01.JPG,AFNE01.JPG,AFNE01.JPG,AFNE01.JPG,,,,,2,8,28,2,,,,,,,,,,,,,,,,,,,AMSA12.jpg,AMNE02.jpg,AMNE07.jpg,AMSA05.jpg,AMNE02.jpg,MN,1,num_6,32,num_4,2.44998750719,,,2017_Jun_07_1424,59.9957088284,FEMA4ImagesEEG,001,200537,
AFNE01.JPG,AFNE01.JPG,AFNE01.JPG,AFNE01.JPG,AFNE01.JPG,AFNE01.JPG,,,,,2,9,29,9,,,,,,,,,,,,,,,,,,,AMNE04.jpg,AMSA09.jpg,AMSA05.jpg,AMNE19.jpg,AMSA09.jpg,MS,2,num_6,16,num_6,0.433504362591,,,2017_Jun_07_1424,59.9957088284,FEMA4ImagesEEG,001,200537,
AFNE01.JPG,AFNE01.JPG,AFNE01.JPG,AFNE01.JPG,AFNE01.JPG,AFNE01.JPG,,,,,3,0,30,9,,,,,,,,,,,,,,,,,,,AMNE18.jpg,AMSA03.jpg,AMNE19.jpg,AMSA01.jpg,AMNE19.jpg,MN,1,num_2,32,num_8,1.11673328979,,,2017_Jun_07_1424,59.9957088284,FEMA4ImagesEEG,001,200537,
AFNE01.JPG,AFNE01.JPG,AFNE01.JPG,AFNE01.JPG,AFNE01.JPG,AFNE01.JPG,,,,,3,1,31,5,,,,,,,,,,,,,,,,,,,AMSA10.jpg,AMNE09.jpg,AMNE01.jpg,AMSA05.jpg,AMNE01.jpg,MN,1,num_2,16,num_2,0.583516983781,,,2017_Jun_07_1424,59.9957088284,FEMA4ImagesEEG,001,200537,
AFNE01.JPG,AFNE01.JPG,AFNE01.JPG,AFNE01.JPG,AFNE01.JPG,AFNE01.JPG,,,,,3,2,32,4,,,,,,,,,,,,,,,,,,,AMSA02.jpg,AMSA16.jpg,AMNE10.jpg,AMNE01.jpg,AMSA02.jpg,MS,2,num_8,16,num_8,1.35003917851,,,2017_Jun_07_1424,59.9957088284,FEMA4ImagesEEG,001,200537,
AFNE01.JPG,AFNE01.JPG,AFNE01.JPG,AFNE01.JPG,AFNE01.JPG,AFNE01.JPG,,,,,3,3,33,6,,,,,,,,,,,,,,,,,,,AMNE14.jpg,AMSA19.jpg,AMNE10.jpg,AMSA14.jpg,AMNE10.jpg,MN,1,num_2,16,num_2,1.38344680564,,,2017_Jun_07_1424,59.9957088284,FEMA4ImagesEEG,001,200537,
AFNE01.JPG,AFNE01.JPG,AFNE01.JPG,AFNE01.JPG,AFNE01.JPG,AFNE01.JPG,,,,,3,4,34,1,,,,,,,,,,,,,,,,,,,AMSA05.jpg,AMNE01.jpg,AMSA13.jpg,AMNE12.jpg,AMNE01.jpg,MN,1,num_6,16,num_6,1.13337295549,,,2017_Jun_07_1424,59.9957088284,FEMA4ImagesEEG,001,200537,
AFNE01.JPG,AFNE01.JPG,AFNE01.JPG,AFNE01.JPG,AFNE01.JPG,AFNE01.JPG,,,,,3,5,35,0,,,,,,,,,,,,,,,,,,,AMNE15.jpg,AMNE11.jpg,AMSA16.jpg,AMSA15.jpg,AMSA15.jpg,MS,2,num_4,16,num_4,0.450185083086,,,2017_Jun_07_1424,59.9957088284,FEMA4ImagesEEG,001,200537,
AFNE01.JPG,AFNE01.JPG,AFNE01.JPG,AFNE01.JPG,AFNE01.JPG,AFNE01.JPG,,,,,3,6,36,2,,,,,,,,,,,,,,,,,,,AMSA14.jpg,AMSA05.jpg,AMNE14.jpg,AMNE11.jpg,AMNE14.jpg,MN,1,num_2,32,num_8,0.800091154175,,,2017_Jun_07_1424,59.9957088284,FEMA4ImagesEEG,001,200537,
AFNE01.JPG,AFNE01.JPG,AFNE01.JPG,AFNE01.JPG,AFNE01.JPG,AFNE01.JPG,,,,,3,7,37,8,,,,,,,,,,,,,,,,,,,AMSA11.jpg,AMSA01.jpg,AMNE20.jpg,AMNE18.jpg,AMSA01.jpg,MS,2,num_6,16,num_6,0.900156232528,,,2017_Jun_07_1424,59.9957088284,FEMA4ImagesEEG,001,200537,
AFNE01.JPG,AFNE01.JPG,AFNE01.JPG,AFNE01.JPG,AFNE01.JPG,AFNE01.JPG,,,,,3,8,38,3,,,,,,,,,,,,,,,,,,,AMSA01.jpg,AMNE10.jpg,AMSA07.jpg,AMNE04.jpg,AMNE04.jpg,MN,1,num_4,16,num_4,0.633519373136,,,2017_Jun_07_1424,59.9957088284,FEMA4ImagesEEG,001,200537,
AFNE01.JPG,AFNE01.JPG,AFNE01.JPG,AFNE01.JPG,AFNE01.JPG,AFNE01.JPG,,,,,3,9,39,7,,,,,,,,,,,,,,,,,,,AMNE16.jpg,AMSA14.jpg,AMSA17.jpg,AMNE18.jpg,AMSA17.jpg,MS,2,num_2,32,num_6,0.916791728465,,,2017_Jun_07_1424,59.9957088284,FEMA4ImagesEEG,001,200537,
AFNE01.JPG,AFNE01.JPG,AFNE01.JPG,AFNE01.JPG,AFNE01.JPG,AFNE01.JPG,,,,,4,0,40,9,,,,,,,,,,,,,,,,,,,AMNE20.jpg,AMNE19.jpg,AMSA11.jpg,AMSA04.jpg,AMNE20.jpg,MN,1,num_8,32,num_6,1.38342948561,,,2017_Jun_07_1424,59.9957088284,FEMA4ImagesEEG,001,200537,
AFNE01.JPG,AFNE01.JPG,AFNE01.JPG,AFNE01.JPG,AFNE01.JPG,AFNE01.JPG,,,,,4,1,41,1,,,,,,,,,,,,,,,,,,,AMSA11.jpg,AMSA02.jpg,AMNE04.jpg,AMNE10.jpg,AMSA02.jpg,MS,2,num_6,32,num_2,1.00013599382,,,2017_Jun_07_1424,59.9957088284,FEMA4ImagesEEG,001,200537,
AFNE01.JPG,AFNE01.JPG,AFNE01.JPG,AFNE01.JPG,AFNE01.JPG,AFNE01.JPG,,,,,4,2,42,6,,,,,,,,,,,,,,,,,,,AMNE14.jpg,AMNE19.jpg,AMSA02.jpg,AMSA05.jpg,AMNE14.jpg,MN,1,num_8,16,num_8,0.63349563838,,,2017_Jun_07_1424,59.9957088284,FEMA4ImagesEEG,001,200537,
AFNE01.JPG,AFNE01.JPG,AFNE01.JPG,AFNE01.JPG,AFNE01.JPG,AFNE01.JPG,,,,,4,3,43,2,,,,,,,,,,,,,,,,,,,AMSA20.jpg,AMSA04.jpg,AMNE09.jpg,AMNE16.jpg,AMNE16.jpg,MN,1,num_4,16,num_4,0.933469562326,,,2017_Jun_07_1424,59.9957088284,FEMA4ImagesEEG,001,200537,
AFNE01.JPG,AFNE01.JPG,AFNE01.JPG,AFNE01.JPG,AFNE01.JPG,AFNE01.JPG,,,,,4,4,44,4,,,,,,,,,,,,,,,,,,,AMSA16.jpg,AMNE08.jpg,AMNE03.jpg,AMSA03.jpg,AMNE03.jpg,MN,1,num_2,32,num_8,0.883126867935,,,2017_Jun_07_1424,59.9957088284,FEMA4ImagesEEG,001,200537,
AFNE01.JPG,AFNE01.JPG,AFNE01.JPG,AFNE01.JPG,AFNE01.JPG,AFNE01.JPG,,,,,4,5,45,5,,,,,,,,,,,,,,,,,,,AMSA03.jpg,AMNE16.jpg,AMNE04.jpg,AMSA11.jpg,AMNE16.jpg,MN,1,num_6,32,num_4,0.833446180215,,,2017_Jun_07_1424,59.9957088284,FEMA4ImagesEEG,001,200537,
AFNE01.JPG,AFNE01.JPG,AFNE01.JPG,AFNE01.JPG,AFNE01.JPG,AFNE01.JPG,,,,,4,6,46,3,,,,,,,,,,,,,,,,,,,AMNE01.jpg,AMSA19.jpg,AMNE09.jpg,AMSA11.jpg,AMSA19.jpg,MS,2,num_6,32,num_4,1.03345605917,,,2017_Jun_07_1424,59.9957088284,FEMA4ImagesEEG,001,200537,
AFNE01.JPG,AFNE01.JPG,AFNE01.JPG,AFNE01.JPG,AFNE01.JPG,AFNE01.JPG,,,,,4,7,47,8,,,,,,,,,,,,,,,,,,,AMSA08.jpg,AMNE16.jpg,AMNE20.jpg,AMSA06.jpg,AMSA06.jpg,MS,2,num_4,32,num_6,0.850155125838,,,2017_Jun_07_1424,59.9957088284,FEMA4ImagesEEG,001,200537,
AFNE01.JPG,AFNE01.JPG,AFNE01.JPG,AFNE01.JPG,AFNE01.JPG,AFNE01.JPG,,,,,4,8,48,0,,,,,,,,,,,,,,,,,,,AMNE13.jpg,AMNE20.jpg,AMSA14.jpg,AMSA09.jpg,AMSA09.jpg,MS,2,num_4,32,num_8,1.48343747226,,,2017_Jun_07_1424,59.9957088284,FEMA4ImagesEEG,001,200537,
AFNE01.JPG,AFNE01.JPG,AFNE01.JPG,AFNE01.JPG,AFNE01.JPG,AFNE01.JPG,,,,,4,9,49,7,,,,,,,,,,,,,,,,,,,AMSA02.jpg,AMSA15.jpg,AMNE20.jpg,AMNE01.jpg,AMNE20.jpg,MN,1,num_2,32,num_8,0.783508580178,,,2017_Jun_07_1424,59.9957088284,FEMA4ImagesEEG,001,200537,
AFNE01.JPG,AFNE01.JPG,AFNE01.JPG,AFNE01.JPG,AFNE01.JPG,AFNE01.JPG,,,,,5,0,50,3,,,,,,,,,,,,,,,,,,,AMNE02.jpg,AMSA20.jpg,AMSA08.jpg,AMNE08.jpg,AMNE02.jpg,MN,1,num_8,32,num_4,0.900137308752,,,2017_Jun_07_1424,59.9957088284,FEMA4ImagesEEG,001,200537,
AFNE01.JPG,AFNE01.JPG,AFNE01.JPG,AFNE01.JPG,AFNE01.JPG,AFNE01.JPG,,,,,5,1,51,5,,,,,,,,,,,,,,,,,,,AMSA05.jpg,AMSA04.jpg,AMNE13.jpg,AMNE18.jpg,AMSA05.jpg,MS,2,num_8,32,num_2,1.8665513501,,,2017_Jun_07_1424,59.9957088284,FEMA4ImagesEEG,001,200537,
AFNE01.JPG,AFNE01.JPG,AFNE01.JPG,AFNE01.JPG,AFNE01.JPG,AFNE01.JPG,,,,,5,2,52,7,,,,,,,,,,,,,,,,,,,AMNE18.jpg,AMSA06.jpg,AMSA07.jpg,AMNE11.jpg,AMNE18.jpg,MN,1,num_8,32,num_6,0.800127077149,,,2017_Jun_07_1424,59.9957088284,FEMA4ImagesEEG,001,200537,
AFNE01.JPG,AFNE01.JPG,AFNE01.JPG,AFNE01.JPG,AFNE01.JPG,AFNE01.JPG,,,,,5,3,53,1,,,,,,,,,,,,,,,,,,,AMNE05.jpg,AMNE15.jpg,AMSA12.jpg,AMSA15.jpg,AMNE05.jpg,MN,1,num_8,32,num_4,0.683498027967,,,2017_Jun_07_1424,59.9957088284,FEMA4ImagesEEG,001,200537,
AFNE01.JPG,AFNE01.JPG,AFNE01.JPG,AFNE01.JPG,AFNE01.JPG,AFNE01.JPG,,,,,5,4,54,9,,,,,,,,,,,,,,,,,,,AMNE08.jpg,AMNE13.jpg,AMSA08.jpg,AMSA16.jpg,AMSA16.jpg,MS,2,num_4,16,num_4,0.85011695791,,,2017_Jun_07_1424,59.9957088284,FEMA4ImagesEEG,001,200537,
AFNE01.JPG,AFNE01.JPG,AFNE01.JPG,AFNE01.JPG,AFNE01.JPG,AFNE01.JPG,,,,,5,5,55,4,,,,,,,,,,,,,,,,,,,AMSA19.jpg,AMNE15.jpg,AMSA16.jpg,AMNE13.jpg,AMNE13.jpg,MN,1,num_4,32,num_6,1.5499977388,,,2017_Jun_07_1424,59.9957088284,FEMA4ImagesEEG,001,200537,
AFNE01.JPG,AFNE01.JPG,AFNE01.JPG,AFNE01.JPG,AFNE01.JPG,AFNE01.JPG,,,,,5,6,56,6,,,,,,,,,,,,,,,,,,,AMSA09.jpg,AMNE16.jpg,AMSA17.jpg,AMNE03.jpg,AMNE16.jpg,MN,1,num_6,16,num_6,0.683492575306,,,2017_Jun_07_1424,59.9957088284,FEMA4ImagesEEG,001,200537,
AFNE01.JPG,AFNE01.JPG,AFNE01.JPG,AFNE01.JPG,AFNE01.JPG,AFNE01.JPG,,,,,5,7,57,2,,,,,,,,,,,,,,,,,,,AMNE03.jpg,AMNE18.jpg,AMSA03.jpg,AMSA08.jpg,AMSA08.jpg,MS,2,num_4,16,num_4,0.883464286104,,,2017_Jun_07_1424,59.9957088284,FEMA4ImagesEEG,001,200537,
AFNE01.JPG,AFNE01.JPG,AFNE01.JPG,AFNE01.JPG,AFNE01.JPG,AFNE01.JPG,,,,,5,8,58,8,,,,,,,,,,,,,,,,,,,AMSA15.jpg,AMSA14.jpg,AMNE13.jpg,AMNE18.jpg,AMSA15.jpg,MS,2,num_8,16,num_8,1.15012904978,,,2017_Jun_07_1424,59.9957088284,FEMA4ImagesEEG,001,200537,
AFNE01.JPG,AFNE01.JPG,AFNE01.JPG,AFNE01.JPG,AFNE01.JPG,AFNE01.JPG,,,,,5,9,59,0,,,,,,,,,,,,,,,,,,,AMSA14.jpg,AMNE08.jpg,AMNE07.jpg,AMSA09.jpg,AMSA14.jpg,MS,2,num_8,16,num_8,0.76678103162,,,2017_Jun_07_1424,59.9957088284,FEMA4ImagesEEG,001,200537,
,,,,,,,,,,,,,,,,,,,,,,,,,,,,,,,,,,,,,,,,,,,space,11.8825841758,2017_Jun_07_1424,59.9957088284,FEMA4ImagesEEG,001,200537,
AFNE01.JPG,AFNE01.JPG,AFNE01.JPG,AFNE01.JPG,AFNE01.JPG,AFNE01.JPG,,,,,,,,,0,0,0,3,,,,,,,,,,,,,,,AFNE19.jpg,AFNE09.jpg,AFSA17.jpg,AFSA14.jpg,AFNE09.jpg,FN,3,num_6,16,num_6,0.616844105301,,,2017_Jun_07_1424,59.9957088284,FEMA4ImagesEEG,001,200537,
AFNE01.JPG,AFNE01.JPG,AFNE01.JPG,AFNE01.JPG,AFNE01.JPG,AFNE01.JPG,,,,,,,,,0,1,1,1,,,,,,,,,,,,,,,AFSA06.jpg,AFNE14.jpg,AFSA19.jpg,AFNE10.jpg,AFNE10.jpg,FN,3,num_4,32,num_2,1.26676643803,,,2017_Jun_07_1424,59.9957088284,FEMA4ImagesEEG,001,200537,
AFNE01.JPG,AFNE01.JPG,AFNE01.JPG,AFNE01.JPG,AFNE01.JPG,AFNE01.JPG,,,,,,,,,0,2,2,5,,,,,,,,,,,,,,,AFNE16.jpg,AFNE05.jpg,AFSA06.jpg,AFSA15.jpg,AFSA15.jpg,FS,4,num_4,16,num_4,0.600198666332,,,2017_Jun_07_1424,59.9957088284,FEMA4ImagesEEG,001,200537,
AFNE01.JPG,AFNE01.JPG,AFNE01.JPG,AFNE01.JPG,AFNE01.JPG,AFNE01.JPG,,,,,,,,,0,3,3,4,,,,,,,,,,,,,,,AFNE14.jpg,AFNE04.jpg,AFSA07.jpg,AFSA04.jpg,AFNE14.jpg,FN,3,num_8,16,num_8,0.933476618491,,,2017_Jun_07_1424,59.9957088284,FEMA4ImagesEEG,001,200537,
AFNE01.JPG,AFNE01.JPG,AFNE01.JPG,AFNE01.JPG,AFNE01.JPG,AFNE01.JPG,,,,,,,,,0,4,4,0,,,,,,,,,,,,,,,AFSA18.jpg,AFNE10.jpg,AFNE06.jpg,AFSA19.jpg,AFNE10.jpg,FN,3,num_6,32,num_8,1.20004676399,,,2017_Jun_07_1424,59.9957088284,FEMA4ImagesEEG,001,200537,
AFNE01.JPG,AFNE01.JPG,AFNE01.JPG,AFNE01.JPG,AFNE01.JPG,AFNE01.JPG,,,,,,,,,0,5,5,7,,,,,,,,,,,,,,,AFSA05.jpg,AFNE12.jpg,AFNE05.jpg,AFSA12.jpg,AFSA05.jpg,FS,4,num_8,16,num_8,1.36676448165,,,2017_Jun_07_1424,59.9957088284,FEMA4ImagesEEG,001,200537,
AFNE01.JPG,AFNE01.JPG,AFNE01.JPG,AFNE01.JPG,AFNE01.JPG,AFNE01.JPG,,,,,,,,,0,6,6,2,,,,,,,,,,,,,,,AFNE08.jpg,AFSA08.jpg,AFSA20.jpg,AFNE18.jpg,AFNE08.jpg,FN,3,num_8,16,num_8,0.816770591773,,,2017_Jun_07_1424,59.9957088284,FEMA4ImagesEEG,001,200537,
AFNE01.JPG,AFNE01.JPG,AFNE01.JPG,AFNE01.JPG,AFNE01.JPG,AFNE01.JPG,,,,,,,,,0,7,7,9,,,,,,,,,,,,,,,AFSA12.jpg,AFNE19.jpg,AFSA04.jpg,AFNE04.jpg,AFNE19.jpg,FN,3,num_6,16,num_6,1.6000492014,,,2017_Jun_07_1424,59.9957088284,FEMA4ImagesEEG,001,200537,
AFNE01.JPG,AFNE01.JPG,AFNE01.JPG,AFNE01.JPG,AFNE01.JPG,AFNE01.JPG,,,,,,,,,0,8,8,6,,,,,,,,,,,,,,,AFSA15.jpg,AFNE20.jpg,AFSA10.jpg,AFNE19.jpg,AFNE19.jpg,FN,3,num_4,16,num_4,0.716794037726,,,2017_Jun_07_1424,59.9957088284,FEMA4ImagesEEG,001,200537,
AFNE01.JPG,AFNE01.JPG,AFNE01.JPG,AFNE01.JPG,AFNE01.JPG,AFNE01.JPG,,,,,,,,,0,9,9,8,,,,,,,,,,,,,,,AFSA09.jpg,AFSA08.jpg,AFNE03.jpg,AFNE17.jpg,AFNE17.jpg,FN,3,num_4,16,num_4,1.75011314102,,,2017_Jun_07_1424,59.9957088284,FEMA4ImagesEEG,001,200537,
AFNE01.JPG,AFNE01.JPG,AFNE01.JPG,AFNE01.JPG,AFNE01.JPG,AFNE01.JPG,,,,,,,,,1,0,10,1,,,,,,,,,,,,,,,AFSA10.jpg,AFSA05.jpg,AFNE13.jpg,AFNE07.jpg,AFSA05.jpg,FS,4,num_6,16,num_6,1.33340849332,,,2017_Jun_07_1424,59.9957088284,FEMA4ImagesEEG,001,200537,
AFNE01.JPG,AFNE01.JPG,AFNE01.JPG,AFNE01.JPG,AFNE01.JPG,AFNE01.JPG,,,,,,,,,1,1,11,0,,,,,,,,,,,,,,,AFSA03.jpg,AFSA04.jpg,AFNE05.jpg,AFNE13.jpg,AFNE05.jpg,FN,3,num_2,32,num_8,1.96667544427,,,2017_Jun_07_1424,59.9957088284,FEMA4ImagesEEG,001,200537,
AFNE01.JPG,AFNE01.JPG,AFNE01.JPG,AFNE01.JPG,AFNE01.JPG,AFNE01.JPG,,,,,,,,,1,2,12,4,,,,,,,,,,,,,,,AFSA02.jpg,AFNE08.jpg,AFNE20.jpg,AFSA14.jpg,AFSA14.jpg,FS,4,num_4,32,num_8,1.33341105934,,,2017_Jun_07_1424,59.9957088284,FEMA4ImagesEEG,001,200537,
AFNE01.JPG,AFNE01.JPG,AFNE01.JPG,AFNE01.JPG,AFNE01.JPG,AFNE01.JPG,,,,,,,,,1,3,13,9,,,,,,,,,,,,,,,AFSA03.jpg,AFNE11.jpg,AFSA15.jpg,AFNE20.jpg,AFSA15.jpg,FS,4,num_2,32,num_8,1.5167828761,,,2017_Jun_07_1424,59.9957088284,FEMA4ImagesEEG,001,200537,
AFNE01.JPG,AFNE01.JPG,AFNE01.JPG,AFNE01.JPG,AFNE01.JPG,AFNE01.JPG,,,,,,,,,1,4,14,8,,,,,,,,,,,,,,,AFNE03.jpg,AFSA16.jpg,AFSA02.jpg,AFNE17.jpg,AFNE17.jpg,FN,3,num_4,32,num_8,2.55000351206,,,2017_Jun_07_1424,59.9957088284,FEMA4ImagesEEG,001,200537,
AFNE01.JPG,AFNE01.JPG,AFNE01.JPG,AFNE01.JPG,AFNE01.JPG,AFNE01.JPG,,,,,,,,,1,5,15,3,,,,,,,,,,,,,,,AFNE07.jpg,AFSA04.jpg,AFSA10.jpg,AFNE10.jpg,AFSA04.jpg,FS,4,num_6,16,num_6,0.766927609919,,,2017_Jun_07_1424,59.9957088284,FEMA4ImagesEEG,001,200537,
AFNE01.JPG,AFNE01.JPG,AFNE01.JPG,AFNE01.JPG,AFNE01.JPG,AFNE01.JPG,,,,,,,,,1,6,16,2,,,,,,,,,,,,,,,AFNE17.jpg,AFSA20.jpg,AFNE03.jpg,AFSA12.jpg,AFSA20.jpg,FS,4,num_6,16,num_6,1.36676736828,,,2017_Jun_07_1424,59.9957088284,FEMA4ImagesEEG,001,200537,
AFNE01.JPG,AFNE01.JPG,AFNE01.JPG,AFNE01.JPG,AFNE01.JPG,AFNE01.JPG,,,,,,,,,1,7,17,5,,,,,,,,,,,,,,,AFNE12.jpg,AFNE17.jpg,AFSA14.jpg,AFSA03.jpg,AFNE17.jpg,FN,3,num_6,16,num_6,0.666773686884,,,2017_Jun_07_1424,59.9957088284,FEMA4ImagesEEG,001,200537,
AFNE01.JPG,AFNE01.JPG,AFNE01.JPG,AFNE01.JPG,AFNE01.JPG,AFNE01.JPG,,,,,,,,,1,8,18,7,,,,,,,,,,,,,,,AFNE13.jpg,AFNE16.jpg,AFSA19.jpg,AFSA08.jpg,AFNE16.jpg,FN,3,num_6,32,num_2,1.56671534432,,,2017_Jun_07_1424,59.9957088284,FEMA4ImagesEEG,001,200537,
AFNE01.JPG,AFNE01.JPG,AFNE01.JPG,AFNE01.JPG,AFNE01.JPG,AFNE01.JPG,,,,,,,,,1,9,19,6,,,,,,,,,,,,,,,AFNE05.jpg,AFSA15.jpg,AFNE19.jpg,AFSA06.jpg,AFSA15.jpg,FS,4,num_6,16,num_6,0.666876965202,,,2017_Jun_07_1424,59.9957088284,FEMA4ImagesEEG,001,200537,
AFNE01.JPG,AFNE01.JPG,AFNE01.JPG,AFNE01.JPG,AFNE01.JPG,AFNE01.JPG,,,,,,,,,2,0,20,7,,,,,,,,,,,,,,,AFSA08.jpg,AFSA13.jpg,AFNE18.jpg,AFNE20.jpg,AFNE20.jpg,FN,3,num_4,32,num_2,1.36670225812,,,2017_Jun_07_1424,59.9957088284,FEMA4ImagesEEG,001,200537,
AFNE01.JPG,AFNE01.JPG,AFNE01.JPG,AFNE01.JPG,AFNE01.JPG,AFNE01.JPG,,,,,,,,,2,1,21,5,,,,,,,,,,,,,,,AFNE10.jpg,AFSA08.jpg,AFNE09.jpg,AFSA19.jpg,AFNE10.jpg,FN,3,num_8,16,num_8,1.04995427863,,,2017_Jun_07_1424,59.9957088284,FEMA4ImagesEEG,001,200537,
AFNE01.JPG,AFNE01.JPG,AFNE01.JPG,AFNE01.JPG,AFNE01.JPG,AFNE01.JPG,,,,,,,,,2,2,22,4,,,,,,,,,,,,,,,AFNE04.jpg,AFSA07.jpg,AFSA15.jpg,AFNE07.jpg,AFNE04.jpg,FN,3,num_8,16,num_8,1.03344836156,,,2017_Jun_07_1424,59.9957088284,FEMA4ImagesEEG,001,200537,
AFNE01.JPG,AFNE01.JPG,AFNE01.JPG,AFNE01.JPG,AFNE01.JPG,AFNE01.JPG,,,,,,,,,2,3,23,3,,,,,,,,,,,,,,,AFSA20.jpg,AFNE07.jpg,AFNE17.jpg,AFSA18.jpg,AFSA18.jpg,FS,4,num_4,16,num_4,1.31673579151,,,2017_Jun_07_1424,59.9957088284,FEMA4ImagesEEG,001,200537,
AFNE01.JPG,AFNE01.JPG,AFNE01.JPG,AFNE01.JPG,AFNE01.JPG,AFNE01.JPG,,,,,,,,,2,4,24,6,,,,,,,,,,,,,,,AFSA09.jpg,AFSA16.jpg,AFNE17.jpg,AFNE11.jpg,AFNE17.jpg,FN,3,num_2,16,num_2,0.683487122646,,,2017_Jun_07_1424,59.9957088284,FEMA4ImagesEEG,001,200537,
AFNE01.JPG,AFNE01.JPG,AFNE01.JPG,AFNE01.JPG,AFNE01.JPG,AFNE01.JPG,,,,,,,,,2,5,25,9,,,,,,,,,,,,,,,AFNE01.jpg,AFNE12.jpg,AFSA15.jpg,AFSA02.jpg,AFNE12.jpg,FN,3,num_6,32,num_8,1.3164423143,,,2017_Jun_07_1424,59.9957088284,FEMA4ImagesEEG,001,200537,
AFNE01.JPG,AFNE01.JPG,AFNE01.JPG,AFNE01.JPG,AFNE01.JPG,AFNE01.JPG,,,,,,,,,2,6,26,0,,,,,,,,,,,,,,,AFNE08.jpg,AFSA14.jpg,AFSA13.jpg,AFNE05.jpg,AFSA14.jpg,FS,4,num_6,16,num_6,1.21678650053,,,2017_Jun_07_1424,59.9957088284,FEMA4ImagesEEG,001,200537,
AFNE01.JPG,AFNE01.JPG,AFNE01.JPG,AFNE01.JPG,AFNE01.JPG,AFNE01.JPG,,,,,,,,,2,7,27,8,,,,,,,,,,,,,,,AFSA07.jpg,AFNE03.jpg,AFNE16.jpg,AFSA06.jpg,AFSA07.jpg,FS,4,num_8,16,num_8,3.03361546691,,,2017_Jun_07_1424,59.9957088284,FEMA4ImagesEEG,001,200537,
AFNE01.JPG,AFNE01.JPG,AFNE01.JPG,AFNE01.JPG,AFNE01.JPG,AFNE01.JPG,,,,,,,,,2,8,28,1,,,,,,,,,,,,,,,AFNE14.jpg,AFNE06.jpg,AFSA15.jpg,AFSA01.jpg,AFSA01.jpg,FS,4,num_4,32,num_8,0.916784030851,,,2017_Jun_07_1424,59.9957088284,FEMA4ImagesEEG,001,200537,
AFNE01.JPG,AFNE01.JPG,AFNE01.JPG,AFNE01.JPG,AFNE01.JPG,AFNE01.JPG,,,,,,,,,2,9,29,2,,,,,,,,,,,,,,,AFNE20.jpg,AFNE01.jpg,AFSA13.jpg,AFSA09.jpg,AFSA13.jpg,FS,4,num_2,16,num_2,0.716833489016,,,2017_Jun_07_1424,59.9957088284,FEMA4ImagesEEG,001,200537,
AFNE01.JPG,AFNE01.JPG,AFNE01.JPG,AFNE01.JPG,AFNE01.JPG,AFNE01.JPG,,,,,,,,,3,0,30,5,,,,,,,,,,,,,,,AFNE14.jpg,AFNE19.jpg,AFSA09.jpg,AFSA12.jpg,AFNE14.jpg,FN,3,num_8,16,num_8,0.916802954394,,,2017_Jun_07_1424,59.9957088284,FEMA4ImagesEEG,001,200537,
AFNE01.JPG,AFNE01.JPG,AFNE01.JPG,AFNE01.JPG,AFNE01.JPG,AFNE01.JPG,,,,,,,,,3,1,31,6,,,,,,,,,,,,,,,AFNE14.jpg,AFSA19.jpg,AFNE10.jpg,AFSA03.jpg,AFNE10.jpg,FN,3,num_2,32,num_8,0.816666351398,,,2017_Jun_07_1424,59.9957088284,FEMA4ImagesEEG,001,200537,
AFNE01.JPG,AFNE01.JPG,AFNE01.JPG,AFNE01.JPG,AFNE01.JPG,AFNE01.JPG,,,,,,,,,3,2,32,2,,,,,,,,,,,,,,,AFNE11.jpg,AFSA17.jpg,AFNE09.jpg,AFSA02.jpg,AFSA17.jpg,FS,4,num_6,16,num_6,0.716777679976,,,2017_Jun_07_1424,59.9957088284,FEMA4ImagesEEG,001,200537,
AFNE01.JPG,AFNE01.JPG,AFNE01.JPG,AFNE01.JPG,AFNE01.JPG,AFNE01.JPG,,,,,,,,,3,3,33,8,,,,,,,,,,,,,,,AFNE10.jpg,AFSA08.jpg,AFNE13.jpg,AFSA11.jpg,AFSA11.jpg,FS,4,num_4,32,num_8,2.38329220912,,,2017_Jun_07_1424,59.9957088284,FEMA4ImagesEEG,001,200537,
AFNE01.JPG,AFNE01.JPG,AFNE01.JPG,AFNE01.JPG,AFNE01.JPG,AFNE01.JPG,,,,,,,,,3,4,34,7,,,,,,,,,,,,,,,AFSA09.jpg,AFNE16.jpg,AFNE03.jpg,AFSA06.jpg,AFNE03.jpg,FN,3,num_2,32,num_6,1.10016514896,,,2017_Jun_07_1424,59.9957088284,FEMA4ImagesEEG,001,200537,
AFNE01.JPG,AFNE01.JPG,AFNE01.JPG,AFNE01.JPG,AFNE01.JPG,AFNE01.JPG,,,,,,,,,3,5,35,1,,,,,,,,,,,,,,,AFSA10.jpg,AFNE16.jpg,AFNE05.jpg,AFSA09.jpg,AFSA09.jpg,FS,4,num_4,32,num_6,0.850114071043,,,2017_Jun_07_1424,59.9957088284,FEMA4ImagesEEG,001,200537,
AFNE01.JPG,AFNE01.JPG,AFNE01.JPG,AFNE01.JPG,AFNE01.JPG,AFNE01.JPG,,,,,,,,,3,6,36,0,,,,,,,,,,,,,,,AFNE03.jpg,AFSA06.jpg,AFNE09.jpg,AFSA12.jpg,AFNE03.jpg,FN,3,num_8,32,num_4,0.933449676493,,,2017_Jun_07_1424,59.9957088284,FEMA4ImagesEEG,001,200537,
AFNE01.JPG,AFNE01.JPG,AFNE01.JPG,AFNE01.JPG,AFNE01.JPG,AFNE01.JPG,,,,,,,,,3,7,37,4,,,,,,,,,,,,,,,AFSA15.jpg,AFSA14.jpg,AFNE01.jpg,AFNE08.jpg,AFNE01.jpg,FN,3,num_2,16,num_2,0.783482600469,,,2017_Jun_07_1424,59.9957088284,FEMA4ImagesEEG,001,200537,
AFNE01.JPG,AFNE01.JPG,AFNE01.JPG,AFNE01.JPG,AFNE01.JPG,AFNE01.JPG,,,,,,,,,3,8,38,9,,,,,,,,,,,,,,,AFSA02.jpg,AFNE11.jpg,AFNE14.jpg,AFSA13.jpg,AFNE11.jpg,FN,3,num_6,16,num_6,1.18350877287,,,2017_Jun_07_1424,59.9957088284,FEMA4ImagesEEG,001,200537,
AFNE01.JPG,AFNE01.JPG,AFNE01.JPG,AFNE01.JPG,AFNE01.JPG,AFNE01.JPG,,,,,,,,,3,9,39,3,,,,,,,,,,,,,,,AFSA10.jpg,AFSA13.jpg,AFNE16.jpg,AFNE14.jpg,AFNE14.jpg,FN,3,num_4,16,num_4,0.51678993227,,,2017_Jun_07_1424,59.9957088284,FEMA4ImagesEEG,001,200537,
AFNE01.JPG,AFNE01.JPG,AFNE01.JPG,AFNE01.JPG,AFNE01.JPG,AFNE01.JPG,,,,,,,,,4,0,40,7,,,,,,,,,,,,,,,AFNE16.jpg,AFSA03.jpg,AFNE08.jpg,AFSA17.jpg,AFSA17.jpg,FS,4,num_4,32,num_8,1.26675970247,,,2017_Jun_07_1424,59.9957088284,FEMA4ImagesEEG,001,200537,
AFNE01.JPG,AFNE01.JPG,AFNE01.JPG,AFNE01.JPG,AFNE01.JPG,AFNE01.JPG,,,,,,,,,4,1,41,6,,,,,,,,,,,,,,,AFSA04.jpg,AFSA19.jpg,AFNE09.jpg,AFNE13.jpg,AFSA04.jpg,FS,4,num_8,16,num_8,0.850177256856,,,2017_Jun_07_1424,59.9957088284,FEMA4ImagesEEG,001,200537,
AFNE01.JPG,AFNE01.JPG,AFNE01.JPG,AFNE01.JPG,AFNE01.JPG,AFNE01.JPG,,,,,,,,,4,2,42,0,,,,,,,,,,,,,,,AFSA02.jpg,AFNE18.jpg,AFNE16.jpg,AFSA14.jpg,AFSA02.jpg,FS,4,num_8,32,num_4,1.71669813665,,,2017_Jun_07_1424,59.9957088284,FEMA4ImagesEEG,001,200537,
AFNE01.JPG,AFNE01.JPG,AFNE01.JPG,AFNE01.JPG,AFNE01.JPG,AFNE01.JPG,,,,,,,,,4,3,43,8,,,,,,,,,,,,,,,AFSA17.jpg,AFSA11.jpg,AFNE06.jpg,AFNE14.jpg,AFSA17.jpg,FS,4,num_8,16,num_8,1.43343925243,,,2017_Jun_07_1424,59.9957088284,FEMA4ImagesEEG,001,200537,
AFNE01.JPG,AFNE01.JPG,AFNE01.JPG,AFNE01.JPG,AFNE01.JPG,AFNE01.JPG,,,,,,,,,4,4,44,3,,,,,,,,,,,,,,,AFNE19.jpg,AFSA09.jpg,AFSA07.jpg,AFNE17.jpg,AFSA07.jpg,FS,4,num_2,16,num_2,1.03354105516,,,2017_Jun_07_1424,59.9957088284,FEMA4ImagesEEG,001,200537,
AFNE01.JPG,AFNE01.JPG,AFNE01.JPG,AFNE01.JPG,AFNE01.JPG,AFNE01.JPG,,,,,,,,,4,5,45,9,,,,,,,,,,,,,,,AFNE16.jpg,AFSA04.jpg,AFNE11.jpg,AFSA15.jpg,AFSA04.jpg,FS,4,num_6,16,num_6,0.516791856848,,,2017_Jun_07_1424,59.9957088284,FEMA4ImagesEEG,001,200537,
AFNE01.JPG,AFNE01.JPG,AFNE01.JPG,AFNE01.JPG,AFNE01.JPG,AFNE01.JPG,,,,,,,,,4,6,46,4,,,,,,,,,,,,,,,AFSA06.jpg,AFNE08.jpg,AFNE17.jpg,AFSA03.jpg,AFNE08.jpg,FN,3,num_6,32,num_8,1.33347135829,,,2017_Jun_07_1424,59.9957088284,FEMA4ImagesEEG,001,200537,
AFNE01.JPG,AFNE01.JPG,AFNE01.JPG,AFNE01.JPG,AFNE01.JPG,AFNE01.JPG,,,,,,,,,4,7,47,5,,,,,,,,,,,,,,,AFSA12.jpg,AFNE05.jpg,AFSA20.jpg,AFNE08.jpg,AFNE08.jpg,FN,3,num_4,32,num_6,1.0167779047,,,2017_Jun_07_1424,59.9957088284,FEMA4ImagesEEG,001,200537,
AFNE01.JPG,AFNE01.JPG,AFNE01.JPG,AFNE01.JPG,AFNE01.JPG,AFNE01.JPG,,,,,,,,,4,8,48,2,,,,,,,,,,,,,,,AFNE20.jpg,AFSA07.jpg,AFSA02.jpg,AFNE14.jpg,AFNE14.jpg,FN,3,num_4,32,num_8,0.849999887636,,,2017_Jun_07_1424,59.9957088284,FEMA4ImagesEEG,001,200537,
AFNE01.JPG,AFNE01.JPG,AFNE01.JPG,AFNE01.JPG,AFNE01.JPG,AFNE01.JPG,,,,,,,,,4,9,49,1,,,,,,,,,,,,,,,AFSA05.jpg,AFSA04.jpg,AFNE07.jpg,AFNE17.jpg,AFNE17.jpg,FN,3,num_4,32,num_2,0.916819953592,,,2017_Jun_07_1424,59.9957088284,FEMA4ImagesEEG,001,200537,
AFNE01.JPG,AFNE01.JPG,AFNE01.JPG,AFNE01.JPG,AFNE01.JPG,AFNE01.JPG,,,,,,,,,5,0,50,6,,,,,,,,,,,,,,,AFSA01.jpg,AFNE05.jpg,AFSA02.jpg,AFNE03.jpg,AFNE05.jpg,FN,3,num_6,32,num_8,0.8167731578,,,2017_Jun_07_1424,59.9957088284,FEMA4ImagesEEG,001,200537,
AFNE01.JPG,AFNE01.JPG,AFNE01.JPG,AFNE01.JPG,AFNE01.JPG,AFNE01.JPG,,,,,,,,,5,1,51,1,,,,,,,,,,,,,,,AFNE01.jpg,AFNE17.jpg,AFSA12.jpg,AFSA11.jpg,AFNE17.jpg,FN,3,num_6,32,num_4,0.966779684881,,,2017_Jun_07_1424,59.9957088284,FEMA4ImagesEEG,001,200537,
AFNE01.JPG,AFNE01.JPG,AFNE01.JPG,AFNE01.JPG,AFNE01.JPG,AFNE01.JPG,,,,,,,,,5,2,52,5,,,,,,,,,,,,,,,AFSA11.jpg,AFNE20.jpg,AFSA12.jpg,AFNE17.jpg,AFSA12.jpg,FS,4,num_2,16,num_2,1.31674316828,,,2017_Jun_07_1424,59.9957088284,FEMA4ImagesEEG,001,200537,
AFNE01.JPG,AFNE01.JPG,AFNE01.JPG,AFNE01.JPG,AFNE01.JPG,AFNE01.JPG,,,,,,,,,5,3,53,0,,,,,,,,,,,,,,,AFNE06.jpg,AFNE20.jpg,AFSA17.jpg,AFSA14.jpg,AFSA17.jpg,FS,4,num_2,32,num_4,0.900145968655,,,2017_Jun_07_1424,59.9957088284,FEMA4ImagesEEG,001,200537,
AFNE01.JPG,AFNE01.JPG,AFNE01.JPG,AFNE01.JPG,AFNE01.JPG,AFNE01.JPG,,,,,,,,,5,4,54,8,,,,,,,,,,,,,,,AFSA04.jpg,AFNE12.jpg,AFSA09.jpg,AFNE03.jpg,AFNE03.jpg,FN,3,num_4,32,num_6,1.13341240631,,,2017_Jun_07_1424,59.9957088284,FEMA4ImagesEEG,001,200537,
AFNE01.JPG,AFNE01.JPG,AFNE01.JPG,AFNE01.JPG,AFNE01.JPG,AFNE01.JPG,,,,,,,,,5,5,55,2,,,,,,,,,,,,,,,AFNE04.jpg,AFSA02.jpg,AFSA09.jpg,AFNE17.jpg,AFNE04.jpg,FN,3,num_8,32,num_6,1.28340353793,,,2017_Jun_07_1424,59.9957088284,FEMA4ImagesEEG,001,200537,
AFNE01.JPG,AFNE01.JPG,AFNE01.JPG,AFNE01.JPG,AFNE01.JPG,AFNE01.JPG,,,,,,,,,5,6,56,4,,,,,,,,,,,,,,,AFSA12.jpg,AFNE17.jpg,AFSA10.jpg,AFNE09.jpg,AFNE09.jpg,FN,3,num_4,16,num_4,0.833341298392,,,2017_Jun_07_1424,59.9957088284,FEMA4ImagesEEG,001,200537,
AFNE01.JPG,AFNE01.JPG,AFNE01.JPG,AFNE01.JPG,AFNE01.JPG,AFNE01.JPG,,,,,,,,,5,7,57,7,,,,,,,,,,,,,,,AFNE01.jpg,AFSA14.jpg,AFSA06.jpg,AFNE14.jpg,AFNE01.jpg,FN,3,num_8,16,num_8,1.15016946313,,,2017_Jun_07_1424,59.9957088284,FEMA4ImagesEEG,001,200537,
AFNE01.JPG,AFNE01.JPG,AFNE01.JPG,AFNE01.JPG,AFNE01.JPG,AFNE01.JPG,,,,,,,,,5,8,58,3,,,,,,,,,,,,,,,AFSA07.jpg,AFSA19.jpg,AFNE10.jpg,AFNE01.jpg,AFNE01.jpg,FN,3,num_4,16,num_4,0.66678106389,,,2017_Jun_07_1424,59.9957088284,FEMA4ImagesEEG,001,200537,
AFNE01.JPG,AFNE01.JPG,AFNE01.JPG,AFNE01.JPG,AFNE01.JPG,AFNE01.JPG,,,,,,,,,5,9,59,9,,,,,,,,,,,,,,,AFSA17.jpg,AFNE01.jpg,AFNE04.jpg,AFSA16.jpg,AFSA16.jpg,FS,4,num_4,32,num_8,1.13345859293,,,2017_Jun_07_1424,59.9957088284,FEMA4ImagesEEG,001,200537,
,,,,,,,,,,,,,,,,,,,,,,,,,,,,,,,,,,,,,,,,,,,space,10.4662862264,2017_Jun_07_1424,59.9957088284,FEMA4ImagesEEG,001,200537,
AFNE01.JPG,AFNE01.JPG,AFNE01.JPG,AFNE01.JPG,AFNE01.JPG,AFNE01.JPG,,,,,,,,,,,,,0,0,0,8,,,,,,,,,,,AMNE13.jpg,AMSA18.jpg,AMNE02.jpg,AMSA12.jpg,AMSA18.jpg,MS,2,num_6,16,num_6,0.600123292301,,,2017_Jun_07_1424,59.9957088284,FEMA4ImagesEEG,001,200537,
AFNE01.JPG,AFNE01.JPG,AFNE01.JPG,AFNE01.JPG,AFNE01.JPG,AFNE01.JPG,,,,,,,,,,,,,0,1,1,1,,,,,,,,,,,AMNE02.jpg,AMNE19.jpg,AMSA17.jpg,AMSA19.jpg,AMNE19.jpg,MN,1,num_6,32,num_4,0.700141863432,,,2017_Jun_07_1424,59.9957088284,FEMA4ImagesEEG,001,200537,
AFNE01.JPG,AFNE01.JPG,AFNE01.JPG,AFNE01.JPG,AFNE01.JPG,AFNE01.JPG,,,,,,,,,,,,,0,2,2,5,,,,,,,,,,,AMNE17.jpg,AMSA17.jpg,AMNE15.jpg,AMSA05.jpg,AMNE17.jpg,MN,1,num_8,32,num_6,0.73347572051,,,2017_Jun_07_1424,59.9957088284,FEMA4ImagesEEG,001,200537,
AFNE01.JPG,AFNE01.JPG,AFNE01.JPG,AFNE01.JPG,AFNE01.JPG,AFNE01.JPG,,,,,,,,,,,,,0,3,3,2,,,,,,,,,,,AMSA14.jpg,AMSA11.jpg,AMNE19.jpg,AMNE02.jpg,AMSA11.jpg,MS,2,num_6,16,num_6,1.0999970811,,,2017_Jun_07_1424,59.9957088284,FEMA4ImagesEEG,001,200537,
AFNE01.JPG,AFNE01.JPG,AFNE01.JPG,AFNE01.JPG,AFNE01.JPG,AFNE01.JPG,,,,,,,,,,,,,0,4,4,3,,,,,,,,,,,AMNE07.jpg,AMSA15.jpg,AMNE08.jpg,AMSA04.jpg,AMNE08.jpg,MN,1,num_2,32,num_8,0.883470059372,,,2017_Jun_07_1424,59.9957088284,FEMA4ImagesEEG,001,200537,
AFNE01.JPG,AFNE01.JPG,AFNE01.JPG,AFNE01.JPG,AFNE01.JPG,AFNE01.JPG,,,,,,,,,,,,,0,5,5,4,,,,,,,,,,,AMNE05.jpg,AMSA19.jpg,AMSA14.jpg,AMNE03.jpg,AMNE03.jpg,MN,1,num_4,16,num_4,0.966732856585,,,2017_Jun_07_1424,59.9957088284,FEMA4ImagesEEG,001,200537,
AFNE01.JPG,AFNE01.JPG,AFNE01.JPG,AFNE01.JPG,AFNE01.JPG,AFNE01.JPG,,,,,,,,,,,,,0,6,6,0,,,,,,,,,,,AMSA20.jpg,AMNE07.jpg,AMNE20.jpg,AMSA02.jpg,AMSA20.jpg,MS,2,num_8,32,num_2,0.983437632443,,,2017_Jun_07_1424,59.9957088284,FEMA4ImagesEEG,001,200537,
AFNE01.JPG,AFNE01.JPG,AFNE01.JPG,AFNE01.JPG,AFNE01.JPG,AFNE01.JPG,,,,,,,,,,,,,0,7,7,6,,,,,,,,,,,AMSA07.jpg,AMNE01.jpg,AMNE14.jpg,AMSA06.jpg,AMNE14.jpg,MN,1,num_2,16,num_2,0.666811213363,,,2017_Jun_07_1424,59.9957088284,FEMA4ImagesEEG,001,200537,
AFNE01.JPG,AFNE01.JPG,AFNE01.JPG,AFNE01.JPG,AFNE01.JPG,AFNE01.JPG,,,,,,,,,,,,,0,8,8,7,,,,,,,,,,,AMNE04.jpg,AMNE16.jpg,AMSA07.jpg,AMSA13.jpg,AMSA13.jpg,MS,2,num_4,16,num_4,1.06675399351,,,2017_Jun_07_1424,59.9957088284,FEMA4ImagesEEG,001,200537,
AFNE01.JPG,AFNE01.JPG,AFNE01.JPG,AFNE01.JPG,AFNE01.JPG,AFNE01.JPG,,,,,,,,,,,,,0,9,9,9,,,,,,,,,,,AMNE02.jpg,AMNE18.jpg,AMSA11.jpg,AMSA14.jpg,AMSA11.jpg,MS,2,num_2,16,num_2,1.33343415265,,,2017_Jun_07_1424,59.9957088284,FEMA4ImagesEEG,001,200537,
AFNE01.JPG,AFNE01.JPG,AFNE01.JPG,AFNE01.JPG,AFNE01.JPG,AFNE01.JPG,,,,,,,,,,,,,1,0,10,6,,,,,,,,,,,AMNE16.jpg,AMSA14.jpg,AMSA10.jpg,AMNE10.jpg,AMSA10.jpg,MS,2,num_2,32,num_4,0.950124302879,,,2017_Jun_07_1424,59.9957088284,FEMA4ImagesEEG,001,200537,
AFNE01.JPG,AFNE01.JPG,AFNE01.JPG,AFNE01.JPG,AFNE01.JPG,AFNE01.JPG,,,,,,,,,,,,,1,1,11,9,,,,,,,,,,,AMNE01.jpg,AMNE11.jpg,AMSA07.jpg,AMSA19.jpg,AMNE11.jpg,MN,1,num_6,32,num_8,0.933458657237,,,2017_Jun_07_1424,59.9957088284,FEMA4ImagesEEG,001,200537,
AFNE01.JPG,AFNE01.JPG,AFNE01.JPG,AFNE01.JPG,AFNE01.JPG,AFNE01.JPG,,,,,,,,,,,,,1,2,12,3,,,,,,,,,,,AMSA11.jpg,AMNE14.jpg,AMSA17.jpg,AMNE11.jpg,AMSA17.jpg,MS,2,num_2,16,num_2,0.900145006599,,,2017_Jun_07_1424,59.9957088284,FEMA4ImagesEEG,001,200537,
AFNE01.JPG,AFNE01.JPG,AFNE01.JPG,AFNE01.JPG,AFNE01.JPG,AFNE01.JPG,,,,,,,,,,,,,1,3,13,0,,,,,,,,,,,AMNE07.jpg,AMSA07.jpg,AMNE20.jpg,AMSA04.jpg,AMSA07.jpg,MS,2,num_6,16,num_6,0.650141077349,,,2017_Jun_07_1424,59.9957088284,FEMA4ImagesEEG,001,200537,
AFNE01.JPG,AFNE01.JPG,AFNE01.JPG,AFNE01.JPG,AFNE01.JPG,AFNE01.JPG,,,,,,,,,,,,,1,4,14,2,,,,,,,,,,,AMSA16.jpg,AMNE18.jpg,AMSA18.jpg,AMNE07.jpg,AMNE07.jpg,MN,1,num_4,16,num_4,0.600161460461,,,2017_Jun_07_1424,59.9957088284,FEMA4ImagesEEG,001,200537,
AFNE01.JPG,AFNE01.JPG,AFNE01.JPG,AFNE01.JPG,AFNE01.JPG,AFNE01.JPG,,,,,,,,,,,,,1,5,15,4,,,,,,,,,,,AMSA19.jpg,AMNE05.jpg,AMNE04.jpg,AMSA12.jpg,AMSA12.jpg,MS,2,num_4,32,num_6,0.65022126236,,,2017_Jun_07_1424,59.9957088284,FEMA4ImagesEEG,001,200537,
AFNE01.JPG,AFNE01.JPG,AFNE01.JPG,AFNE01.JPG,AFNE01.JPG,AFNE01.JPG,,,,,,,,,,,,,1,6,16,5,,,,,,,,,,,AMNE20.jpg,AMSA01.jpg,AMSA09.jpg,AMNE01.jpg,AMNE01.jpg,MN,1,num_4,32,num_2,1.93337301956,,,2017_Jun_07_1424,59.9957088284,FEMA4ImagesEEG,001,200537,
AFNE01.JPG,AFNE01.JPG,AFNE01.JPG,AFNE01.JPG,AFNE01.JPG,AFNE01.JPG,,,,,,,,,,,,,1,7,17,8,,,,,,,,,,,AMSA11.jpg,AMNE16.jpg,AMSA05.jpg,AMNE10.jpg,AMSA11.jpg,MS,2,num_8,32,num_6,0.916767352261,,,2017_Jun_07_1424,59.9957088284,FEMA4ImagesEEG,001,200537,
AFNE01.JPG,AFNE01.JPG,AFNE01.JPG,AFNE01.JPG,AFNE01.JPG,AFNE01.JPG,,,,,,,,,,,,,1,8,18,1,,,,,,,,,,,AMSA12.jpg,AMNE19.jpg,AMSA20.jpg,AMNE02.jpg,AMSA12.jpg,MS,2,num_8,32,num_6,0.816805552458,,,2017_Jun_07_1424,59.9957088284,FEMA4ImagesEEG,001,200537,
AFNE01.JPG,AFNE01.JPG,AFNE01.JPG,AFNE01.JPG,AFNE01.JPG,AFNE01.JPG,,,,,,,,,,,,,1,9,19,7,,,,,,,,,,,AMSA13.jpg,AMNE08.jpg,AMSA01.jpg,AMNE01.jpg,AMSA13.jpg,MS,2,num_8,16,num_8,1.11674002535,,,2017_Jun_07_1424,59.9957088284,FEMA4ImagesEEG,001,200537,
AFNE01.JPG,AFNE01.JPG,AFNE01.JPG,AFNE01.JPG,AFNE01.JPG,AFNE01.JPG,,,,,,,,,,,,,2,0,20,7,,,,,,,,,,,AMSA10.jpg,AMNE03.jpg,AMSA11.jpg,AMNE17.jpg,AMNE03.jpg,MN,1,num_6,16,num_6,1.35015432397,,,2017_Jun_07_1424,59.9957088284,FEMA4ImagesEEG,001,200537,
AFNE01.JPG,AFNE01.JPG,AFNE01.JPG,AFNE01.JPG,AFNE01.JPG,AFNE01.JPG,,,,,,,,,,,,,2,1,21,0,,,,,,,,,,,AMNE08.jpg,AMSA09.jpg,AMSA12.jpg,AMNE03.jpg,AMSA12.jpg,MS,2,num_2,16,num_2,0.550160354003,,,2017_Jun_07_1424,59.9957088284,FEMA4ImagesEEG,001,200537,
AFNE01.JPG,AFNE01.JPG,AFNE01.JPG,AFNE01.JPG,AFNE01.JPG,AFNE01.JPG,,,,,,,,,,,,,2,2,22,8,,,,,,,,,,,AMSA14.jpg,AMSA11.jpg,AMNE18.jpg,AMNE13.jpg,AMSA14.jpg,MS,2,num_8,16,num_8,1.00014337082,,,2017_Jun_07_1424,59.9957088284,FEMA4ImagesEEG,001,200537,
AFNE01.JPG,AFNE01.JPG,AFNE01.JPG,AFNE01.JPG,AFNE01.JPG,AFNE01.JPG,,,,,,,,,,,,,2,3,23,2,,,,,,,,,,,AMSA01.jpg,AMSA07.jpg,AMNE06.jpg,AMNE17.jpg,AMNE06.jpg,MN,1,num_2,32,num_4,1.30009067315,,,2017_Jun_07_1424,59.9957088284,FEMA4ImagesEEG,001,200537,
AFNE01.JPG,AFNE01.JPG,AFNE01.JPG,AFNE01.JPG,AFNE01.JPG,AFNE01.JPG,,,,,,,,,,,,,2,4,24,6,,,,,,,,,,,AMSA13.jpg,AMNE07.jpg,AMNE05.jpg,AMSA11.jpg,AMNE05.jpg,MN,1,num_2,32,num_4,1.31677556317,,,2017_Jun_07_1424,59.9957088284,FEMA4ImagesEEG,001,200537,
AFNE01.JPG,AFNE01.JPG,AFNE01.JPG,AFNE01.JPG,AFNE01.JPG,AFNE01.JPG,,,,,,,,,,,,,2,5,25,3,,,,,,,,,,,AMNE04.jpg,AMSA19.jpg,AMSA11.jpg,AMNE05.jpg,AMSA11.jpg,MS,2,num_2,16,num_2,1.48343105754,,,2017_Jun_07_1424,59.9957088284,FEMA4ImagesEEG,001,200537,
AFNE01.JPG,AFNE01.JPG,AFNE01.JPG,AFNE01.JPG,AFNE01.JPG,AFNE01.JPG,,,,,,,,,,,,,2,6,26,4,,,,,,,,,,,AMSA17.jpg,AMNE19.jpg,AMSA08.jpg,AMNE07.jpg,AMNE07.jpg,MN,1,num_4,16,num_4,0.533527423628,,,2017_Jun_07_1424,59.9957088284,FEMA4ImagesEEG,001,200537,
AFNE01.JPG,AFNE01.JPG,AFNE01.JPG,AFNE01.JPG,AFNE01.JPG,AFNE01.JPG,,,,,,,,,,,,,2,7,27,1,,,,,,,,,,,AMNE05.jpg,AMSA08.jpg,AMSA12.jpg,AMNE04.jpg,AMNE05.jpg,MN,1,num_8,32,num_4,1.01675128308,,,2017_Jun_07_1424,59.9957088284,FEMA4ImagesEEG,001,200537,
AFNE01.JPG,AFNE01.JPG,AFNE01.JPG,AFNE01.JPG,AFNE01.JPG,AFNE01.JPG,,,,,,,,,,,,,2,8,28,9,,,,,,,,,,,AMSA18.jpg,AMNE20.jpg,AMSA07.jpg,AMNE03.jpg,AMSA18.jpg,MS,2,num_8,32,num_4,1.18347862316,,,2017_Jun_07_1424,59.9957088284,FEMA4ImagesEEG,001,200537,
AFNE01.JPG,AFNE01.JPG,AFNE01.JPG,AFNE01.JPG,AFNE01.JPG,AFNE01.JPG,,,,,,,,,,,,,2,9,29,5,,,,,,,,,,,AMSA03.jpg,AMSA15.jpg,AMNE13.jpg,AMNE06.jpg,AMSA03.jpg,MS,2,num_8,16,num_8,0.71686171391,,,2017_Jun_07_1424,59.9957088284,FEMA4ImagesEEG,001,200537,
AFNE01.JPG,AFNE01.JPG,AFNE01.JPG,AFNE01.JPG,AFNE01.JPG,AFNE01.JPG,,,,,,,,,,,,,3,0,30,8,,,,,,,,,,,AMNE17.jpg,AMSA04.jpg,AMNE16.jpg,AMSA07.jpg,AMNE17.jpg,MN,1,num_8,32,num_2,1.51671584137,,,2017_Jun_07_1424,59.9957088284,FEMA4ImagesEEG,001,200537,
AFNE01.JPG,AFNE01.JPG,AFNE01.JPG,AFNE01.JPG,AFNE01.JPG,AFNE01.JPG,,,,,,,,,,,,,3,1,31,0,,,,,,,,,,,AMNE12.jpg,AMNE02.jpg,AMSA11.jpg,AMSA08.jpg,AMSA11.jpg,MS,2,num_2,16,num_2,0.766815992305,,,2017_Jun_07_1424,59.9957088284,FEMA4ImagesEEG,001,200537,
AFNE01.JPG,AFNE01.JPG,AFNE01.JPG,AFNE01.JPG,AFNE01.JPG,AFNE01.JPG,,,,,,,,,,,,,3,2,32,4,,,,,,,,,,,AMNE11.jpg,AMSA04.jpg,AMSA11.jpg,AMNE05.jpg,AMSA11.jpg,MS,2,num_2,16,num_2,0.683488405775,,,2017_Jun_07_1424,59.9957088284,FEMA4ImagesEEG,001,200537,
AFNE01.JPG,AFNE01.JPG,AFNE01.JPG,AFNE01.JPG,AFNE01.JPG,AFNE01.JPG,,,,,,,,,,,,,3,3,33,7,,,,,,,,,,,AMSA12.jpg,AMNE15.jpg,AMSA13.jpg,AMNE13.jpg,AMSA12.jpg,MS,2,num_8,32,num_4,0.833495894913,,,2017_Jun_07_1424,59.9957088284,FEMA4ImagesEEG,001,200537,
AFNE01.JPG,AFNE01.JPG,AFNE01.JPG,AFNE01.JPG,AFNE01.JPG,AFNE01.JPG,,,,,,,,,,,,,3,4,34,1,,,,,,,,,,,AMSA07.jpg,AMSA18.jpg,AMNE12.jpg,AMNE02.jpg,AMSA07.jpg,MS,2,num_8,32,num_2,0.916616283823,,,2017_Jun_07_1424,59.9957088284,FEMA4ImagesEEG,001,200537,
AFNE01.JPG,AFNE01.JPG,AFNE01.JPG,AFNE01.JPG,AFNE01.JPG,AFNE01.JPG,,,,,,,,,,,,,3,5,35,3,,,,,,,,,,,AMSA11.jpg,AMSA14.jpg,AMNE13.jpg,AMNE08.jpg,AMSA11.jpg,MS,2,num_8,32,num_6,1.1667449805,,,2017_Jun_07_1424,59.9957088284,FEMA4ImagesEEG,001,200537,
AFNE01.JPG,AFNE01.JPG,AFNE01.JPG,AFNE01.JPG,AFNE01.JPG,AFNE01.JPG,,,,,,,,,,,,,3,6,36,5,,,,,,,,,,,AMSA17.jpg,AMSA09.jpg,AMNE16.jpg,AMNE10.jpg,AMNE16.jpg,MN,1,num_2,32,num_4,1.16679052566,,,2017_Jun_07_1424,59.9957088284,FEMA4ImagesEEG,001,200537,
AFNE01.JPG,AFNE01.JPG,AFNE01.JPG,AFNE01.JPG,AFNE01.JPG,AFNE01.JPG,,,,,,,,,,,,,3,7,37,6,,,,,,,,,,,AMNE06.jpg,AMSA11.jpg,AMSA15.jpg,AMNE17.jpg,AMNE06.jpg,MN,1,num_8,32,num_2,1.60006299336,,,2017_Jun_07_1424,59.9957088284,FEMA4ImagesEEG,001,200537,
AFNE01.JPG,AFNE01.JPG,AFNE01.JPG,AFNE01.JPG,AFNE01.JPG,AFNE01.JPG,,,,,,,,,,,,,3,8,38,9,,,,,,,,,,,AMSA11.jpg,AMNE20.jpg,AMNE13.jpg,AMSA07.jpg,AMSA11.jpg,MS,2,num_8,32,num_6,1.28344010212,,,2017_Jun_07_1424,59.9957088284,FEMA4ImagesEEG,001,200537,
AFNE01.JPG,AFNE01.JPG,AFNE01.JPG,AFNE01.JPG,AFNE01.JPG,AFNE01.JPG,,,,,,,,,,,,,3,9,39,2,,,,,,,,,,,AMSA20.jpg,AMNE09.jpg,AMNE08.jpg,AMSA16.jpg,AMNE09.jpg,MN,1,num_6,32,num_4,1.18343724776,,,2017_Jun_07_1424,59.9957088284,FEMA4ImagesEEG,001,200537,
AFNE01.JPG,AFNE01.JPG,AFNE01.JPG,AFNE01.JPG,AFNE01.JPG,AFNE01.JPG,,,,,,,,,,,,,4,0,40,1,,,,,,,,,,,AMSA15.jpg,AMNE18.jpg,AMSA20.jpg,AMNE11.jpg,AMNE11.jpg,MN,1,num_4,32,num_2,1.41672453354,,,2017_Jun_07_1424,59.9957088284,FEMA4ImagesEEG,001,200537,
AFNE01.JPG,AFNE01.JPG,AFNE01.JPG,AFNE01.JPG,AFNE01.JPG,AFNE01.JPG,,,,,,,,,,,,,4,1,41,3,,,,,,,,,,,AMSA07.jpg,AMSA18.jpg,AMNE20.jpg,AMNE12.jpg,AMNE12.jpg,MN,1,num_4,32,num_6,1.36678019771,,,2017_Jun_07_1424,59.9957088284,FEMA4ImagesEEG,001,200537,
AFNE01.JPG,AFNE01.JPG,AFNE01.JPG,AFNE01.JPG,AFNE01.JPG,AFNE01.JPG,,,,,,,,,,,,,4,2,42,8,,,,,,,,,,,AMNE04.jpg,AMSA05.jpg,AMNE02.jpg,AMSA03.jpg,AMNE02.jpg,MN,1,num_2,16,num_2,1.26675585378,,,2017_Jun_07_1424,59.9957088284,FEMA4ImagesEEG,001,200537,
AFNE01.JPG,AFNE01.JPG,AFNE01.JPG,AFNE01.JPG,AFNE01.JPG,AFNE01.JPG,,,,,,,,,,,,,4,3,43,6,,,,,,,,,,,AMNE05.jpg,AMSA16.jpg,AMSA07.jpg,AMNE04.jpg,AMNE04.jpg,MN,1,num_4,32,num_8,0.900108763017,,,2017_Jun_07_1424,59.9957088284,FEMA4ImagesEEG,001,200537,
AFNE01.JPG,AFNE01.JPG,AFNE01.JPG,AFNE01.JPG,AFNE01.JPG,AFNE01.JPG,,,,,,,,,,,,,4,4,44,0,,,,,,,,,,,AMNE15.jpg,AMNE03.jpg,AMSA08.jpg,AMSA20.jpg,AMSA20.jpg,MS,2,num_4,16,num_4,1.03344836133,,,2017_Jun_07_1424,59.9957088284,FEMA4ImagesEEG,001,200537,
AFNE01.JPG,AFNE01.JPG,AFNE01.JPG,AFNE01.JPG,AFNE01.JPG,AFNE01.JPG,,,,,,,,,,,,,4,5,45,5,,,,,,,,,,,AMSA05.jpg,AMSA07.jpg,AMNE20.jpg,AMNE09.jpg,AMSA07.jpg,MS,2,num_6,32,num_2,1.06674084323,,,2017_Jun_07_1424,59.9957088284,FEMA4ImagesEEG,001,200537,
AFNE01.JPG,AFNE01.JPG,AFNE01.JPG,AFNE01.JPG,AFNE01.JPG,AFNE01.JPG,,,,,,,,,,,,,4,6,46,4,,,,,,,,,,,AMNE04.jpg,AMSA13.jpg,AMSA17.jpg,AMNE17.jpg,AMSA13.jpg,MS,2,num_6,16,num_6,0.46687029372,,,2017_Jun_07_1424,59.9957088284,FEMA4ImagesEEG,001,200537,
AFNE01.JPG,AFNE01.JPG,AFNE01.JPG,AFNE01.JPG,AFNE01.JPG,AFNE01.JPG,,,,,,,,,,,,,4,7,47,7,,,,,,,,,,,AMNE16.jpg,AMSA20.jpg,AMNE19.jpg,AMSA19.jpg,AMSA20.jpg,MS,2,num_6,16,num_6,0.466823145049,,,2017_Jun_07_1424,59.9957088284,FEMA4ImagesEEG,001,200537,
AFNE01.JPG,AFNE01.JPG,AFNE01.JPG,AFNE01.JPG,AFNE01.JPG,AFNE01.JPG,,,,,,,,,,,,,4,8,48,2,,,,,,,,,,,AMSA13.jpg,AMSA12.jpg,AMNE15.jpg,AMNE02.jpg,AMSA13.jpg,MS,2,num_8,32,num_6,0.816784704337,,,2017_Jun_07_1424,59.9957088284,FEMA4ImagesEEG,001,200537,
AFNE01.JPG,AFNE01.JPG,AFNE01.JPG,AFNE01.JPG,AFNE01.JPG,AFNE01.JPG,,,,,,,,,,,,,4,9,49,9,,,,,,,,,,,AMNE12.jpg,AMSA17.jpg,AMSA15.jpg,AMNE11.jpg,AMSA17.jpg,MS,2,num_6,32,num_8,1.03344290867,,,2017_Jun_07_1424,59.9957088284,FEMA4ImagesEEG,001,200537,
AFNE01.JPG,AFNE01.JPG,AFNE01.JPG,AFNE01.JPG,AFNE01.JPG,AFNE01.JPG,,,,,,,,,,,,,5,0,50,2,,,,,,,,,,,AMSA09.jpg,AMNE18.jpg,AMSA06.jpg,AMNE15.jpg,AMNE18.jpg,MN,1,num_6,16,num_6,0.600172044709,,,2017_Jun_07_1424,59.9957088284,FEMA4ImagesEEG,001,200537,
AFNE01.JPG,AFNE01.JPG,AFNE01.JPG,AFNE01.JPG,AFNE01.JPG,AFNE01.JPG,,,,,,,,,,,,,5,1,51,9,,,,,,,,,,,AMNE07.jpg,AMSA20.jpg,AMSA01.jpg,AMNE02.jpg,AMNE02.jpg,MN,1,num_4,16,num_4,0.966826833552,,,2017_Jun_07_1424,59.9957088284,FEMA4ImagesEEG,001,200537,
AFNE01.JPG,AFNE01.JPG,AFNE01.JPG,AFNE01.JPG,AFNE01.JPG,AFNE01.JPG,,,,,,,,,,,,,5,2,52,7,,,,,,,,,,,AMNE13.jpg,AMSA19.jpg,AMNE08.jpg,AMSA14.jpg,AMSA19.jpg,MS,2,num_6,16,num_6,0.566807075869,,,2017_Jun_07_1424,59.9957088284,FEMA4ImagesEEG,001,200537,
AFNE01.JPG,AFNE01.JPG,AFNE01.JPG,AFNE01.JPG,AFNE01.JPG,AFNE01.JPG,,,,,,,,,,,,,5,3,53,6,,,,,,,,,,,AMNE11.jpg,AMNE02.jpg,AMSA02.jpg,AMSA08.jpg,AMNE11.jpg,MN,1,num_8,16,num_8,0.916831179522,,,2017_Jun_07_1424,59.9957088284,FEMA4ImagesEEG,001,200537,
AFNE01.JPG,AFNE01.JPG,AFNE01.JPG,AFNE01.JPG,AFNE01.JPG,AFNE01.JPG,,,,,,,,,,,,,5,4,54,1,,,,,,,,,,,AMNE13.jpg,AMSA12.jpg,AMNE16.jpg,AMSA17.jpg,AMNE16.jpg,MN,1,num_2,32,num_6,1.316722641,,,2017_Jun_07_1424,59.9957088284,FEMA4ImagesEEG,001,200537,
AFNE01.JPG,AFNE01.JPG,AFNE01.JPG,AFNE01.JPG,AFNE01.JPG,AFNE01.JPG,,,,,,,,,,,,,5,5,55,3,,,,,,,,,,,AMSA03.jpg,AMNE04.jpg,AMNE14.jpg,AMSA18.jpg,AMSA18.jpg,MS,2,num_4,16,num_4,0.733461287105,,,2017_Jun_07_1424,59.9957088284,FEMA4ImagesEEG,001,200537,
AFNE01.JPG,AFNE01.JPG,AFNE01.JPG,AFNE01.JPG,AFNE01.JPG,AFNE01.JPG,,,,,,,,,,,,,5,6,56,5,,,,,,,,,,,AMSA20.jpg,AMNE16.jpg,AMSA14.jpg,AMNE06.jpg,AMNE16.jpg,MN,1,num_6,32,num_8,1.03345253109,,,2017_Jun_07_1424,59.9957088284,FEMA4ImagesEEG,001,200537,
AFNE01.JPG,AFNE01.JPG,AFNE01.JPG,AFNE01.JPG,AFNE01.JPG,AFNE01.JPG,,,,,,,,,,,,,5,7,57,8,,,,,,,,,,,AMSA16.jpg,AMSA12.jpg,AMNE20.jpg,AMNE09.jpg,AMNE20.jpg,MN,1,num_2,32,num_6,1.21675763396,,,2017_Jun_07_1424,59.9957088284,FEMA4ImagesEEG,001,200537,
AFNE01.JPG,AFNE01.JPG,AFNE01.JPG,AFNE01.JPG,AFNE01.JPG,AFNE01.JPG,,,,,,,,,,,,,5,8,58,0,,,,,,,,,,,AMSA03.jpg,AMSA19.jpg,AMNE09.jpg,AMNE10.jpg,AMSA19.jpg,MS,2,num_6,16,num_6,0.600130027859,,,2017_Jun_07_1424,59.9957088284,FEMA4ImagesEEG,001,200537,
AFNE01.JPG,AFNE01.JPG,AFNE01.JPG,AFNE01.JPG,AFNE01.JPG,AFNE01.JPG,,,,,,,,,,,,,5,9,59,4,,,,,,,,,,,AMSA04.jpg,AMNE09.jpg,AMSA03.jpg,AMNE19.jpg,AMNE19.jpg,MN,1,num_4,16,num_4,0.483520543901,,,2017_Jun_07_1424,59.9957088284,FEMA4ImagesEEG,001,200537,
,,,,,,,,,,,,,,,,,,,,,,,,,,,,,,,,,,,,,,,,,,,space,11.2993038981,2017_Jun_07_1424,59.9957088284,FEMA4ImagesEEG,001,200537,
AFNE01.JPG,AFNE01.JPG,AFNE01.JPG,AFNE01.JPG,AFNE01.JPG,AFNE01.JPG,,,,,,,,,,,,,,,,,0,0,0,2,,,,,,,AFNE06.jpg,AFSA16.jpg,AFNE07.jpg,AFSA11.jpg,AFNE07.jpg,FN,3,num_2,16,num_2,0.616811389802,,,2017_Jun_07_1424,59.9957088284,FEMA4ImagesEEG,001,200537,
AFNE01.JPG,AFNE01.JPG,AFNE01.JPG,AFNE01.JPG,AFNE01.JPG,AFNE01.JPG,,,,,,,,,,,,,,,,,0,1,1,5,,,,,,,AFNE03.jpg,AFSA11.jpg,AFSA10.jpg,AFNE15.jpg,AFNE15.jpg,FN,3,num_4,32,num_8,1.25006390736,,,2017_Jun_07_1424,59.9957088284,FEMA4ImagesEEG,001,200537,
AFNE01.JPG,AFNE01.JPG,AFNE01.JPG,AFNE01.JPG,AFNE01.JPG,AFNE01.JPG,,,,,,,,,,,,,,,,,0,2,2,0,,,,,,,AFNE09.jpg,AFSA05.jpg,AFNE10.jpg,AFSA07.jpg,AFSA07.jpg,FS,4,num_4,32,num_6,0.53353095171,,,2017_Jun_07_1424,59.9957088284,FEMA4ImagesEEG,001,200537,
AFNE01.JPG,AFNE01.JPG,AFNE01.JPG,AFNE01.JPG,AFNE01.JPG,AFNE01.JPG,,,,,,,,,,,,,,,,,0,3,3,8,,,,,,,AFNE07.jpg,AFSA01.jpg,AFNE12.jpg,AFSA11.jpg,AFNE12.jpg,FN,3,num_2,16,num_2,0.883482888807,,,2017_Jun_07_1424,59.9957088284,FEMA4ImagesEEG,001,200537,
AFNE01.JPG,AFNE01.JPG,AFNE01.JPG,AFNE01.JPG,AFNE01.JPG,AFNE01.JPG,,,,,,,,,,,,,,,,,0,4,4,7,,,,,,,AFSA08.jpg,AFSA03.jpg,AFNE06.jpg,AFNE09.jpg,AFSA03.jpg,FS,4,num_6,32,num_4,0.916767993709,,,2017_Jun_07_1424,59.9957088284,FEMA4ImagesEEG,001,200537,
AFNE01.JPG,AFNE01.JPG,AFNE01.JPG,AFNE01.JPG,AFNE01.JPG,AFNE01.JPG,,,,,,,,,,,,,,,,,0,5,5,3,,,,,,,AFSA02.jpg,AFNE08.jpg,AFNE07.jpg,AFSA03.jpg,AFNE07.jpg,FN,3,num_2,16,num_2,1.28346191254,,,2017_Jun_07_1424,59.9957088284,FEMA4ImagesEEG,001,200537,
AFNE01.JPG,AFNE01.JPG,AFNE01.JPG,AFNE01.JPG,AFNE01.JPG,AFNE01.JPG,,,,,,,,,,,,,,,,,0,6,6,1,,,,,,,AFNE16.jpg,AFSA12.jpg,AFNE11.jpg,AFSA10.jpg,AFNE16.jpg,FN,3,num_8,16,num_8,1.10016001714,,,2017_Jun_07_1424,59.9957088284,FEMA4ImagesEEG,001,200537,
AFNE01.JPG,AFNE01.JPG,AFNE01.JPG,AFNE01.JPG,AFNE01.JPG,AFNE01.JPG,,,,,,,,,,,,,,,,,0,7,7,9,,,,,,,AFSA12.jpg,AFNE17.jpg,AFSA19.jpg,AFNE12.jpg,AFSA12.jpg,FS,4,num_8,16,num_8,0.700152127072,,,2017_Jun_07_1424,59.9957088284,FEMA4ImagesEEG,001,200537,
AFNE01.JPG,AFNE01.JPG,AFNE01.JPG,AFNE01.JPG,AFNE01.JPG,AFNE01.JPG,,,,,,,,,,,,,,,,,0,8,8,4,,,,,,,AFNE02.jpg,AFNE05.jpg,AFSA17.jpg,AFSA18.jpg,AFSA17.jpg,FS,4,num_2,16,num_2,0.866779396078,,,2017_Jun_07_1424,59.9957088284,FEMA4ImagesEEG,001,200537,
AFNE01.JPG,AFNE01.JPG,AFNE01.JPG,AFNE01.JPG,AFNE01.JPG,AFNE01.JPG,,,,,,,,,,,,,,,,,0,9,9,6,,,,,,,AFSA10.jpg,AFNE06.jpg,AFNE11.jpg,AFSA14.jpg,AFSA10.jpg,FS,4,num_8,16,num_8,1.05015634466,,,2017_Jun_07_1424,59.9957088284,FEMA4ImagesEEG,001,200537,
AFNE01.JPG,AFNE01.JPG,AFNE01.JPG,AFNE01.JPG,AFNE01.JPG,AFNE01.JPG,,,,,,,,,,,,,,,,,1,0,10,2,,,,,,,AFNE08.jpg,AFSA02.jpg,AFSA01.jpg,AFNE11.jpg,AFNE11.jpg,FN,3,num_4,16,num_4,0.816791760502,,,2017_Jun_07_1424,59.9957088284,FEMA4ImagesEEG,001,200537,
AFNE01.JPG,AFNE01.JPG,AFNE01.JPG,AFNE01.JPG,AFNE01.JPG,AFNE01.JPG,,,,,,,,,,,,,,,,,1,1,11,7,,,,,,,AFSA06.jpg,AFSA16.jpg,AFNE20.jpg,AFNE08.jpg,AFSA16.jpg,FS,4,num_6,16,num_6,0.966803740244,,,2017_Jun_07_1424,59.9957088284,FEMA4ImagesEEG,001,200537,
AFNE01.JPG,AFNE01.JPG,AFNE01.JPG,AFNE01.JPG,AFNE01.JPG,AFNE01.JPG,,,,,,,,,,,,,,,,,1,2,12,3,,,,,,,AFNE01.jpg,AFNE11.jpg,AFSA11.jpg,AFSA15.jpg,AFSA11.jpg,FS,4,num_2,16,num_2,0.750154837267,,,2017_Jun_07_1424,59.9957088284,FEMA4ImagesEEG,001,200537,
AFNE01.JPG,AFNE01.JPG,AFNE01.JPG,AFNE01.JPG,AFNE01.JPG,AFNE01.JPG,,,,,,,,,,,,,,,,,1,3,13,4,,,,,,,AFSA01.jpg,AFNE17.jpg,AFNE14.jpg,AFSA19.jpg,AFSA01.jpg,FS,4,num_8,32,num_4,0.733494323213,,,2017_Jun_07_1424,59.9957088284,FEMA4ImagesEEG,001,200537,
AFNE01.JPG,AFNE01.JPG,AFNE01.JPG,AFNE01.JPG,AFNE01.JPG,AFNE01.JPG,,,,,,,,,,,,,,,,,1,4,14,0,,,,,,,AFNE18.jpg,AFSA04.jpg,AFNE12.jpg,AFSA13.jpg,AFSA04.jpg,FS,4,num_6,16,num_6,0.48352150619,,,2017_Jun_07_1424,59.9957088284,FEMA4ImagesEEG,001,200537,
AFNE01.JPG,AFNE01.JPG,AFNE01.JPG,AFNE01.JPG,AFNE01.JPG,AFNE01.JPG,,,,,,,,,,,,,,,,,1,5,15,1,,,,,,,AFNE09.jpg,AFSA07.jpg,AFSA17.jpg,AFNE02.jpg,AFSA17.jpg,FS,4,num_2,32,num_4,0.883485134225,,,2017_Jun_07_1424,59.9957088284,FEMA4ImagesEEG,001,200537,
AFNE01.JPG,AFNE01.JPG,AFNE01.JPG,AFNE01.JPG,AFNE01.JPG,AFNE01.JPG,,,,,,,,,,,,,,,,,1,6,16,8,,,,,,,AFSA11.jpg,AFSA17.jpg,AFNE12.jpg,AFNE14.jpg,AFNE12.jpg,FN,3,num_2,16,num_2,1.48341886932,,,2017_Jun_07_1424,59.9957088284,FEMA4ImagesEEG,001,200537,
AFNE01.JPG,AFNE01.JPG,AFNE01.JPG,AFNE01.JPG,AFNE01.JPG,AFNE01.JPG,,,,,,,,,,,,,,,,,1,7,17,5,,,,,,,AFSA07.jpg,AFNE20.jpg,AFSA13.jpg,AFNE07.jpg,AFSA13.jpg,FS,4,num_2,32,num_6,1.54995989148,,,2017_Jun_07_1424,59.9957088284,FEMA4ImagesEEG,001,200537,
AFNE01.JPG,AFNE01.JPG,AFNE01.JPG,AFNE01.JPG,AFNE01.JPG,AFNE01.JPG,,,,,,,,,,,,,,,,,1,8,18,6,,,,,,,AFSA17.jpg,AFNE03.jpg,AFNE19.jpg,AFSA05.jpg,AFNE19.jpg,FN,3,num_2,32,num_6,1.05011336552,,,2017_Jun_07_1424,59.9957088284,FEMA4ImagesEEG,001,200537,
AFNE01.JPG,AFNE01.JPG,AFNE01.JPG,AFNE01.JPG,AFNE01.JPG,AFNE01.JPG,,,,,,,,,,,,,,,,,1,9,19,9,,,,,,,AFNE12.jpg,AFNE09.jpg,AFSA02.jpg,AFSA08.jpg,AFSA08.jpg,FS,4,num_4,16,num_4,0.950171130942,,,2017_Jun_07_1424,59.9957088284,FEMA4ImagesEEG,001,200537,
AFNE01.JPG,AFNE01.JPG,AFNE01.JPG,AFNE01.JPG,AFNE01.JPG,AFNE01.JPG,,,,,,,,,,,,,,,,,2,0,20,2,,,,,,,AFNE08.jpg,AFSA03.jpg,AFNE07.jpg,AFSA15.jpg,AFSA15.jpg,FS,4,num_4,16,num_4,0.783554446185,,,2017_Jun_07_1424,59.9957088284,FEMA4ImagesEEG,001,200537,
AFNE01.JPG,AFNE01.JPG,AFNE01.JPG,AFNE01.JPG,AFNE01.JPG,AFNE01.JPG,,,,,,,,,,,,,,,,,2,1,21,9,,,,,,,AFSA04.jpg,AFNE01.jpg,AFNE13.jpg,AFSA19.jpg,AFSA04.jpg,FS,4,num_8,16,num_8,0.816818702733,,,2017_Jun_07_1424,59.9957088284,FEMA4ImagesEEG,001,200537,
AFNE01.JPG,AFNE01.JPG,AFNE01.JPG,AFNE01.JPG,AFNE01.JPG,AFNE01.JPG,,,,,,,,,,,,,,,,,2,2,22,0,,,,,,,AFSA09.jpg,AFNE19.jpg,AFNE05.jpg,AFSA07.jpg,AFSA09.jpg,FS,4,num_8,32,num_2,1.23345631571,,,2017_Jun_07_1424,59.9957088284,FEMA4ImagesEEG,001,200537,
AFNE01.JPG,AFNE01.JPG,AFNE01.JPG,AFNE01.JPG,AFNE01.JPG,AFNE01.JPG,,,,,,,,,,,,,,,,,2,3,23,5,,,,,,,AFSA12.jpg,AFNE10.jpg,AFNE11.jpg,AFSA11.jpg,AFNE10.jpg,FN,3,num_6,32,num_8,1.33344986872,,,2017_Jun_07_1424,59.9957088284,FEMA4ImagesEEG,001,200537,
AFNE01.JPG,AFNE01.JPG,AFNE01.JPG,AFNE01.JPG,AFNE01.JPG,AFNE01.JPG,,,,,,,,,,,,,,,,,2,4,24,1,,,,,,,AFSA04.jpg,AFNE01.jpg,AFNE07.jpg,AFSA06.jpg,AFNE07.jpg,FN,3,num_2,16,num_2,0.83373420476,,,2017_Jun_07_1424,59.9957088284,FEMA4ImagesEEG,001,200537,
AFNE01.JPG,AFNE01.JPG,AFNE01.JPG,AFNE01.JPG,AFNE01.JPG,AFNE01.JPG,,,,,,,,,,,,,,,,,2,5,25,4,,,,,,,AFSA14.jpg,AFSA17.jpg,AFNE16.jpg,AFNE10.jpg,AFNE10.jpg,FN,3,num_4,32,num_2,1.16673824494,,,2017_Jun_07_1424,59.9957088284,FEMA4ImagesEEG,001,200537,
AFNE01.JPG,AFNE01.JPG,AFNE01.JPG,AFNE01.JPG,AFNE01.JPG,AFNE01.JPG,,,,,,,,,,,,,,,,,2,6,26,8,,,,,,,AFSA04.jpg,AFSA02.jpg,AFNE12.jpg,AFNE14.jpg,AFNE12.jpg,FN,3,num_2,16,num_2,1.00012220186,,,2017_Jun_07_1424,59.9957088284,FEMA4ImagesEEG,001,200537,
AFNE01.JPG,AFNE01.JPG,AFNE01.JPG,AFNE01.JPG,AFNE01.JPG,AFNE01.JPG,,,,,,,,,,,,,,,,,2,7,27,6,,,,,,,AFNE04.jpg,AFNE19.jpg,AFSA07.jpg,AFSA13.jpg,AFSA07.jpg,FS,4,num_2,32,num_4,0.816785666626,,,2017_Jun_07_1424,59.9957088284,FEMA4ImagesEEG,001,200537,
AFNE01.JPG,AFNE01.JPG,AFNE01.JPG,AFNE01.JPG,AFNE01.JPG,AFNE01.JPG,,,,,,,,,,,,,,,,,2,8,28,3,,,,,,,AFNE11.jpg,AFSA17.jpg,AFSA20.jpg,AFNE04.jpg,AFSA17.jpg,FS,4,num_6,32,num_4,1.00014208793,,,2017_Jun_07_1424,59.9957088284,FEMA4ImagesEEG,001,200537,
AFNE01.JPG,AFNE01.JPG,AFNE01.JPG,AFNE01.JPG,AFNE01.JPG,AFNE01.JPG,,,,,,,,,,,,,,,,,2,9,29,7,,,,,,,AFNE13.jpg,AFSA18.jpg,AFSA13.jpg,AFNE03.jpg,AFNE13.jpg,FN,3,num_8,16,num_8,0.766766598681,,,2017_Jun_07_1424,59.9957088284,FEMA4ImagesEEG,001,200537,
AFNE01.JPG,AFNE01.JPG,AFNE01.JPG,AFNE01.JPG,AFNE01.JPG,AFNE01.JPG,,,,,,,,,,,,,,,,,3,0,30,9,,,,,,,AFSA17.jpg,AFNE11.jpg,AFNE05.jpg,AFSA20.jpg,AFSA17.jpg,FS,4,num_8,32,num_6,0.983535779174,,,2017_Jun_07_1424,59.9957088284,FEMA4ImagesEEG,001,200537,
AFNE01.JPG,AFNE01.JPG,AFNE01.JPG,AFNE01.JPG,AFNE01.JPG,AFNE01.JPG,,,,,,,,,,,,,,,,,3,1,31,6,,,,,,,AFSA02.jpg,AFNE14.jpg,AFSA06.jpg,AFNE06.jpg,AFNE06.jpg,FN,3,num_4,16,num_4,0.566840432817,,,2017_Jun_07_1424,59.9957088284,FEMA4ImagesEEG,001,200537,
AFNE01.JPG,AFNE01.JPG,AFNE01.JPG,AFNE01.JPG,AFNE01.JPG,AFNE01.JPG,,,,,,,,,,,,,,,,,3,2,32,0,,,,,,,AFSA17.jpg,AFNE02.jpg,AFSA02.jpg,AFNE18.jpg,AFSA17.jpg,FS,4,num_8,16,num_8,0.800150170457,,,2017_Jun_07_1424,59.9957088284,FEMA4ImagesEEG,001,200537,
AFNE01.JPG,AFNE01.JPG,AFNE01.JPG,AFNE01.JPG,AFNE01.JPG,AFNE01.JPG,,,,,,,,,,,,,,,,,3,3,33,8,,,,,,,AFSA04.jpg,AFNE01.jpg,AFNE18.jpg,AFSA07.jpg,AFNE01.jpg,FN,3,num_6,32,num_8,0.983443085104,,,2017_Jun_07_1424,59.9957088284,FEMA4ImagesEEG,001,200537,
AFNE01.JPG,AFNE01.JPG,AFNE01.JPG,AFNE01.JPG,AFNE01.JPG,AFNE01.JPG,,,,,,,,,,,,,,,,,3,4,34,3,,,,,,,AFSA18.jpg,AFSA08.jpg,AFNE09.jpg,AFNE18.jpg,AFNE09.jpg,FN,3,num_2,16,num_2,0.666798063088,,,2017_Jun_07_1424,59.9957088284,FEMA4ImagesEEG,001,200537,
AFNE01.JPG,AFNE01.JPG,AFNE01.JPG,AFNE01.JPG,AFNE01.JPG,AFNE01.JPG,,,,,,,,,,,,,,,,,3,5,35,5,,,,,,,AFSA07.jpg,AFNE15.jpg,AFNE13.jpg,AFSA03.jpg,AFNE15.jpg,FN,3,num_6,16,num_6,0.966799891321,,,2017_Jun_07_1424,59.9957088284,FEMA4ImagesEEG,001,200537,
AFNE01.JPG,AFNE01.JPG,AFNE01.JPG,AFNE01.JPG,AFNE01.JPG,AFNE01.JPG,,,,,,,,,,,,,,,,,3,6,36,7,,,,,,,AFNE18.jpg,AFSA10.jpg,AFNE17.jpg,AFSA19.jpg,AFSA19.jpg,FS,4,num_4,32,num_8,1.23344508978,,,2017_Jun_07_1424,59.9957088284,FEMA4ImagesEEG,001,200537,
AFNE01.JPG,AFNE01.JPG,AFNE01.JPG,AFNE01.JPG,AFNE01.JPG,AFNE01.JPG,,,,,,,,,,,,,,,,,3,7,37,2,,,,,,,AFSA11.jpg,AFSA14.jpg,AFNE11.jpg,AFNE16.jpg,AFNE16.jpg,FN,3,num_4,32,num_6,0.85011150525,,,2017_Jun_07_1424,59.9957088284,FEMA4ImagesEEG,001,200537,
AFNE01.JPG,AFNE01.JPG,AFNE01.JPG,AFNE01.JPG,AFNE01.JPG,AFNE01.JPG,,,,,,,,,,,,,,,,,3,8,38,1,,,,,,,AFNE16.jpg,AFSA06.jpg,AFNE01.jpg,AFSA13.jpg,AFSA13.jpg,FS,4,num_4,16,num_4,0.833509686869,,,2017_Jun_07_1424,59.9957088284,FEMA4ImagesEEG,001,200537,
AFNE01.JPG,AFNE01.JPG,AFNE01.JPG,AFNE01.JPG,AFNE01.JPG,AFNE01.JPG,,,,,,,,,,,,,,,,,3,9,39,4,,,,,,,AFNE02.jpg,AFSA06.jpg,AFSA02.jpg,AFNE03.jpg,AFNE03.jpg,FN,3,num_4,32,num_8,0.916760296095,,,2017_Jun_07_1424,59.9957088284,FEMA4ImagesEEG,001,200537,
AFNE01.JPG,AFNE01.JPG,AFNE01.JPG,AFNE01.JPG,AFNE01.JPG,AFNE01.JPG,,,,,,,,,,,,,,,,,4,0,40,0,,,,,,,AFSA15.jpg,AFNE07.jpg,AFSA14.jpg,AFNE17.jpg,AFNE07.jpg,FN,3,num_6,16,num_6,0.533529668814,,,2017_Jun_07_1424,59.9957088284,FEMA4ImagesEEG,001,200537,
AFNE01.JPG,AFNE01.JPG,AFNE01.JPG,AFNE01.JPG,AFNE01.JPG,AFNE01.JPG,,,,,,,,,,,,,,,,,4,1,41,3,,,,,,,AFSA02.jpg,AFNE04.jpg,AFNE06.jpg,AFSA17.jpg,AFNE06.jpg,FN,3,num_2,32,num_6,0.816789194709,,,2017_Jun_07_1424,59.9957088284,FEMA4ImagesEEG,001,200537,
AFNE01.JPG,AFNE01.JPG,AFNE01.JPG,AFNE01.JPG,AFNE01.JPG,AFNE01.JPG,,,,,,,,,,,,,,,,,4,2,42,7,,,,,,,AFSA09.jpg,AFNE07.jpg,AFSA07.jpg,AFNE06.jpg,AFNE06.jpg,FN,3,num_4,16,num_4,0.716429997934,,,2017_Jun_07_1424,59.9957088284,FEMA4ImagesEEG,001,200537,
AFNE01.JPG,AFNE01.JPG,AFNE01.JPG,AFNE01.JPG,AFNE01.JPG,AFNE01.JPG,,,,,,,,,,,,,,,,,4,3,43,8,,,,,,,AFSA07.jpg,AFSA05.jpg,AFNE11.jpg,AFNE14.jpg,AFSA05.jpg,FS,4,num_6,16,num_6,0.666774328332,,,2017_Jun_07_1424,59.9957088284,FEMA4ImagesEEG,001,200537,
AFNE01.JPG,AFNE01.JPG,AFNE01.JPG,AFNE01.JPG,AFNE01.JPG,AFNE01.JPG,,,,,,,,,,,,,,,,,4,4,44,5,,,,,,,AFNE11.jpg,AFSA10.jpg,AFSA16.jpg,AFNE14.jpg,AFSA16.jpg,FS,4,num_2,16,num_2,0.916772804921,,,2017_Jun_07_1424,59.9957088284,FEMA4ImagesEEG,001,200537,
AFNE01.JPG,AFNE01.JPG,AFNE01.JPG,AFNE01.JPG,AFNE01.JPG,AFNE01.JPG,,,,,,,,,,,,,,,,,4,5,45,1,,,,,,,AFSA01.jpg,AFNE18.jpg,AFNE01.jpg,AFSA16.jpg,AFNE18.jpg,FN,3,num_6,16,num_6,0.533490217989,,,2017_Jun_07_1424,59.9957088284,FEMA4ImagesEEG,001,200537,
AFNE01.JPG,AFNE01.JPG,AFNE01.JPG,AFNE01.JPG,AFNE01.JPG,AFNE01.JPG,,,,,,,,,,,,,,,,,4,6,46,9,,,,,,,AFNE01.jpg,AFSA20.jpg,AFSA03.jpg,AFNE15.jpg,AFNE15.jpg,FN,3,num_4,16,num_4,0.950105379103,,,2017_Jun_07_1424,59.9957088284,FEMA4ImagesEEG,001,200537,
AFNE01.JPG,AFNE01.JPG,AFNE01.JPG,AFNE01.JPG,AFNE01.JPG,AFNE01.JPG,,,,,,,,,,,,,,,,,4,7,47,4,,,,,,,AFSA12.jpg,AFSA05.jpg,AFNE17.jpg,AFNE20.jpg,AFNE17.jpg,FN,3,num_2,16,num_2,0.916788841831,,,2017_Jun_07_1424,59.9957088284,FEMA4ImagesEEG,001,200537,
AFNE01.JPG,AFNE01.JPG,AFNE01.JPG,AFNE01.JPG,AFNE01.JPG,AFNE01.JPG,,,,,,,,,,,,,,,,,4,8,48,2,,,,,,,AFNE09.jpg,AFSA03.jpg,AFSA11.jpg,AFNE02.jpg,AFSA11.jpg,FS,4,num_2,16,num_2,0.466782411095,,,2017_Jun_07_1424,59.9957088284,FEMA4ImagesEEG,001,200537,
AFNE01.JPG,AFNE01.JPG,AFNE01.JPG,AFNE01.JPG,AFNE01.JPG,AFNE01.JPG,,,,,,,,,,,,,,,,,4,9,49,6,,,,,,,AFNE14.jpg,AFNE13.jpg,AFSA06.jpg,AFSA19.jpg,AFNE13.jpg,FN,3,num_6,16,num_6,0.666803194908,,,2017_Jun_07_1424,59.9957088284,FEMA4ImagesEEG,001,200537,
AFNE01.JPG,AFNE01.JPG,AFNE01.JPG,AFNE01.JPG,AFNE01.JPG,AFNE01.JPG,,,,,,,,,,,,,,,,,5,0,50,3,,,,,,,AFSA12.jpg,AFNE17.jpg,AFSA09.jpg,AFNE12.jpg,AFNE17.jpg,FN,3,num_6,32,num_2,0.750135913724,,,2017_Jun_07_1424,59.9957088284,FEMA4ImagesEEG,001,200537,
AFNE01.JPG,AFNE01.JPG,AFNE01.JPG,AFNE01.JPG,AFNE01.JPG,AFNE01.JPG,,,,,,,,,,,,,,,,,5,1,51,7,,,,,,,AFSA06.jpg,AFSA12.jpg,AFNE17.jpg,AFNE02.jpg,AFSA12.jpg,FS,4,num_6,16,num_6,0.533474180847,,,2017_Jun_07_1424,59.9957088284,FEMA4ImagesEEG,001,200537,
AFNE01.JPG,AFNE01.JPG,AFNE01.JPG,AFNE01.JPG,AFNE01.JPG,AFNE01.JPG,,,,,,,,,,,,,,,,,5,2,52,9,,,,,,,AFSA01.jpg,AFNE18.jpg,AFNE17.jpg,AFSA05.jpg,AFNE17.jpg,FN,3,num_2,32,num_4,1.06674276758,,,2017_Jun_07_1424,59.9957088284,FEMA4ImagesEEG,001,200537,
AFNE01.JPG,AFNE01.JPG,AFNE01.JPG,AFNE01.JPG,AFNE01.JPG,AFNE01.JPG,,,,,,,,,,,,,,,,,5,3,53,0,,,,,,,AFNE15.jpg,AFSA02.jpg,AFNE07.jpg,AFSA07.jpg,AFNE15.jpg,FN,3,num_8,16,num_8,0.81678213831,,,2017_Jun_07_1424,59.9957088284,FEMA4ImagesEEG,001,200537,
AFNE01.JPG,AFNE01.JPG,AFNE01.JPG,AFNE01.JPG,AFNE01.JPG,AFNE01.JPG,,,,,,,,,,,,,,,,,5,4,54,1,,,,,,,AFNE01.jpg,AFSA17.jpg,AFNE16.jpg,AFSA16.jpg,AFNE01.jpg,FN,3,num_8,32,num_2,1.16675909329,,,2017_Jun_07_1424,59.9957088284,FEMA4ImagesEEG,001,200537,
AFNE01.JPG,AFNE01.JPG,AFNE01.JPG,AFNE01.JPG,AFNE01.JPG,AFNE01.JPG,,,,,,,,,,,,,,,,,5,5,55,2,,,,,,,AFNE01.jpg,AFSA01.jpg,AFNE03.jpg,AFSA20.jpg,AFNE01.jpg,FN,3,num_8,32,num_4,0.783466883935,,,2017_Jun_07_1424,59.9957088284,FEMA4ImagesEEG,001,200537,
AFNE01.JPG,AFNE01.JPG,AFNE01.JPG,AFNE01.JPG,AFNE01.JPG,AFNE01.JPG,,,,,,,,,,,,,,,,,5,6,56,5,,,,,,,AFNE09.jpg,AFSA04.jpg,AFNE17.jpg,AFSA02.jpg,AFNE17.jpg,FN,3,num_2,32,num_8,1.11676760879,,,2017_Jun_07_1424,59.9957088284,FEMA4ImagesEEG,001,200537,
AFNE01.JPG,AFNE01.JPG,AFNE01.JPG,AFNE01.JPG,AFNE01.JPG,AFNE01.JPG,,,,,,,,,,,,,,,,,5,7,57,4,,,,,,,AFSA07.jpg,AFNE18.jpg,AFNE06.jpg,AFSA06.jpg,AFSA07.jpg,FS,4,num_8,32,num_6,1.20008364902,,,2017_Jun_07_1424,59.9957088284,FEMA4ImagesEEG,001,200537,
AFNE01.JPG,AFNE01.JPG,AFNE01.JPG,AFNE01.JPG,AFNE01.JPG,AFNE01.JPG,,,,,,,,,,,,,,,,,5,8,58,6,,,,,,,AFSA15.jpg,AFNE17.jpg,AFNE02.jpg,AFSA07.jpg,AFNE17.jpg,FN,3,num_6,16,num_6,1.46683854051,,,2017_Jun_07_1424,59.9957088284,FEMA4ImagesEEG,001,200537,
AFNE01.JPG,AFNE01.JPG,AFNE01.JPG,AFNE01.JPG,AFNE01.JPG,AFNE01.JPG,,,,,,,,,,,,,,,,,5,9,59,8,,,,,,,AFSA18.jpg,AFNE16.jpg,AFSA14.jpg,AFNE13.jpg,AFNE13.jpg,FN,3,num_4,32,num_6,1.41671170387,,,2017_Jun_07_1424,59.9957088284,FEMA4ImagesEEG,001,200537,
,,,,,,,,,,,,,,,,,,,,,,,,,,,,,,,,,,,,,,,,,,,space,10.8660041678,2017_Jun_07_1424,59.9957088284,FEMA4ImagesEEG,001,200537,
AFNE01.JPG,AFNE01.JPG,AFNE01.JPG,AFNE01.JPG,AFNE01.JPG,AFNE01.JPG,,,,,,,,,,,,,,,,,,,,,0,0,0,8,,,AMSA07.jpg,AMNE17.jpg,AMSA06.jpg,AMNE14.jpg,AMSA07.jpg,MS,2,num_8,32,num_4,0.983457197668,,,2017_Jun_07_1424,59.9957088284,FEMA4ImagesEEG,001,200537,
AFNE01.JPG,AFNE01.JPG,AFNE01.JPG,AFNE01.JPG,AFNE01.JPG,AFNE01.JPG,,,,,,,,,,,,,,,,,,,,,0,1,1,9,,,AMNE16.jpg,AMNE13.jpg,AMSA13.jpg,AMSA20.jpg,AMNE13.jpg,MN,1,num_6,32,num_2,0.733505549375,,,2017_Jun_07_1424,59.9957088284,FEMA4ImagesEEG,001,200537,
AFNE01.JPG,AFNE01.JPG,AFNE01.JPG,AFNE01.JPG,AFNE01.JPG,AFNE01.JPG,,,,,,,,,,,,,,,,,,,,,0,2,2,0,,,AMNE20.jpg,AMNE19.jpg,AMSA02.jpg,AMSA16.jpg,AMSA02.jpg,MS,2,num_2,16,num_2,0.616767769214,,,2017_Jun_07_1424,59.9957088284,FEMA4ImagesEEG,001,200537,
AFNE01.JPG,AFNE01.JPG,AFNE01.JPG,AFNE01.JPG,AFNE01.JPG,AFNE01.JPG,,,,,,,,,,,,,,,,,,,,,0,3,3,3,,,AMNE01.jpg,AMSA15.jpg,AMNE05.jpg,AMSA08.jpg,AMSA08.jpg,MS,2,num_4,16,num_4,0.900134422118,,,2017_Jun_07_1424,59.9957088284,FEMA4ImagesEEG,001,200537,
AFNE01.JPG,AFNE01.JPG,AFNE01.JPG,AFNE01.JPG,AFNE01.JPG,AFNE01.JPG,,,,,,,,,,,,,,,,,,,,,0,4,4,5,,,AMNE18.jpg,AMNE20.jpg,AMSA05.jpg,AMSA09.jpg,AMSA09.jpg,MS,2,num_4,32,num_8,0.883431249764,,,2017_Jun_07_1424,59.9957088284,FEMA4ImagesEEG,001,200537,
AFNE01.JPG,AFNE01.JPG,AFNE01.JPG,AFNE01.JPG,AFNE01.JPG,AFNE01.JPG,,,,,,,,,,,,,,,,,,,,,0,5,5,7,,,AMSA03.jpg,AMNE10.jpg,AMSA14.jpg,AMNE14.jpg,AMNE14.jpg,MN,1,num_4,16,num_4,0.500158285024,,,2017_Jun_07_1424,59.9957088284,FEMA4ImagesEEG,001,200537,
AFNE01.JPG,AFNE01.JPG,AFNE01.JPG,AFNE01.JPG,AFNE01.JPG,AFNE01.JPG,,,,,,,,,,,,,,,,,,,,,0,6,6,6,,,AMSA02.jpg,AMNE13.jpg,AMSA20.jpg,AMNE16.jpg,AMSA20.jpg,MS,2,num_2,16,num_2,0.950104095973,,,2017_Jun_07_1424,59.9957088284,FEMA4ImagesEEG,001,200537,
AFNE01.JPG,AFNE01.JPG,AFNE01.JPG,AFNE01.JPG,AFNE01.JPG,AFNE01.JPG,,,,,,,,,,,,,,,,,,,,,0,7,7,2,,,AMNE07.jpg,AMNE02.jpg,AMSA03.jpg,AMSA01.jpg,AMNE02.jpg,MN,1,num_6,16,num_6,0.950102171628,,,2017_Jun_07_1424,59.9957088284,FEMA4ImagesEEG,001,200537,
AFNE01.JPG,AFNE01.JPG,AFNE01.JPG,AFNE01.JPG,AFNE01.JPG,AFNE01.JPG,,,,,,,,,,,,,,,,,,,,,0,8,8,4,,,AMNE12.jpg,AMNE17.jpg,AMSA05.jpg,AMSA03.jpg,AMNE12.jpg,MN,1,num_8,16,num_8,0.85013331566,,,2017_Jun_07_1424,59.9957088284,FEMA4ImagesEEG,001,200537,
AFNE01.JPG,AFNE01.JPG,AFNE01.JPG,AFNE01.JPG,AFNE01.JPG,AFNE01.JPG,,,,,,,,,,,,,,,,,,,,,0,9,9,1,,,AMNE05.jpg,AMSA03.jpg,AMNE08.jpg,AMSA19.jpg,AMSA19.jpg,MS,2,num_4,16,num_4,0.600147027289,,,2017_Jun_07_1424,59.9957088284,FEMA4ImagesEEG,001,200537,
AFNE01.JPG,AFNE01.JPG,AFNE01.JPG,AFNE01.JPG,AFNE01.JPG,AFNE01.JPG,,,,,,,,,,,,,,,,,,,,,1,0,10,9,,,AMNE04.jpg,AMSA15.jpg,AMSA19.jpg,AMNE02.jpg,AMNE02.jpg,MN,1,num_4,32,num_8,0.933550709626,,,2017_Jun_07_1424,59.9957088284,FEMA4ImagesEEG,001,200537,
AFNE01.JPG,AFNE01.JPG,AFNE01.JPG,AFNE01.JPG,AFNE01.JPG,AFNE01.JPG,,,,,,,,,,,,,,,,,,,,,1,1,11,6,,,AMNE10.jpg,AMSA07.jpg,AMSA11.jpg,AMNE06.jpg,AMNE10.jpg,MN,1,num_8,16,num_8,0.833511931822,,,2017_Jun_07_1424,59.9957088284,FEMA4ImagesEEG,001,200537,
AFNE01.JPG,AFNE01.JPG,AFNE01.JPG,AFNE01.JPG,AFNE01.JPG,AFNE01.JPG,,,,,,,,,,,,,,,,,,,,,1,2,12,1,,,AMSA13.jpg,AMNE19.jpg,AMNE18.jpg,AMSA04.jpg,AMNE18.jpg,MN,1,num_2,32,num_8,0.766792257782,,,2017_Jun_07_1424,59.9957088284,FEMA4ImagesEEG,001,200537,
AFNE01.JPG,AFNE01.JPG,AFNE01.JPG,AFNE01.JPG,AFNE01.JPG,AFNE01.JPG,,,,,,,,,,,,,,,,,,,,,1,3,13,4,,,AMSA17.jpg,AMNE01.jpg,AMNE20.jpg,AMSA03.jpg,AMNE20.jpg,MN,1,num_2,16,num_2,1.16677320586,,,2017_Jun_07_1424,59.9957088284,FEMA4ImagesEEG,001,200537,
AFNE01.JPG,AFNE01.JPG,AFNE01.JPG,AFNE01.JPG,AFNE01.JPG,AFNE01.JPG,,,,,,,,,,,,,,,,,,,,,1,4,14,3,,,AMSA07.jpg,AMSA14.jpg,AMNE01.jpg,AMNE10.jpg,AMNE10.jpg,MN,1,num_4,16,num_4,1.01675577345,,,2017_Jun_07_1424,59.9957088284,FEMA4ImagesEEG,001,200537,
AFNE01.JPG,AFNE01.JPG,AFNE01.JPG,AFNE01.JPG,AFNE01.JPG,AFNE01.JPG,,,,,,,,,,,,,,,,,,,,,1,5,15,5,,,AMSA15.jpg,AMNE02.jpg,AMNE20.jpg,AMSA11.jpg,AMSA11.jpg,MS,2,num_4,32,num_6,2.00003913045,,,2017_Jun_07_1424,59.9957088284,FEMA4ImagesEEG,001,200537,
AFNE01.JPG,AFNE01.JPG,AFNE01.JPG,AFNE01.JPG,AFNE01.JPG,AFNE01.JPG,,,,,,,,,,,,,,,,,,,,,1,6,16,8,,,AMNE16.jpg,AMSA09.jpg,AMNE07.jpg,AMSA14.jpg,AMSA14.jpg,MS,2,num_4,16,num_4,0.550178956939,,,2017_Jun_07_1424,59.9957088284,FEMA4ImagesEEG,001,200537,
AFNE01.JPG,AFNE01.JPG,AFNE01.JPG,AFNE01.JPG,AFNE01.JPG,AFNE01.JPG,,,,,,,,,,,,,,,,,,,,,1,7,17,0,,,AMNE02.jpg,AMSA06.jpg,AMSA14.jpg,AMNE04.jpg,AMSA14.jpg,MS,2,num_2,16,num_2,1.00005997834,,,2017_Jun_07_1424,59.9957088284,FEMA4ImagesEEG,001,200537,
AFNE01.JPG,AFNE01.JPG,AFNE01.JPG,AFNE01.JPG,AFNE01.JPG,AFNE01.JPG,,,,,,,,,,,,,,,,,,,,,1,8,18,7,,,AMSA19.jpg,AMNE06.jpg,AMNE07.jpg,AMSA04.jpg,AMSA19.jpg,MS,2,num_8,16,num_8,0.90019600396,,,2017_Jun_07_1424,59.9957088284,FEMA4ImagesEEG,001,200537,
AFNE01.JPG,AFNE01.JPG,AFNE01.JPG,AFNE01.JPG,AFNE01.JPG,AFNE01.JPG,,,,,,,,,,,,,,,,,,,,,1,9,19,2,,,AMNE08.jpg,AMSA10.jpg,AMNE12.jpg,AMSA12.jpg,AMSA12.jpg,MS,2,num_4,32,num_6,0.666775290389,,,2017_Jun_07_1424,59.9957088284,FEMA4ImagesEEG,001,200537,
AFNE01.JPG,AFNE01.JPG,AFNE01.JPG,AFNE01.JPG,AFNE01.JPG,AFNE01.JPG,,,,,,,,,,,,,,,,,,,,,2,0,20,8,,,AMSA02.jpg,AMNE13.jpg,AMSA19.jpg,AMNE02.jpg,AMSA02.jpg,MS,2,num_8,16,num_8,1.30009291833,,,2017_Jun_07_1424,59.9957088284,FEMA4ImagesEEG,001,200537,
AFNE01.JPG,AFNE01.JPG,AFNE01.JPG,AFNE01.JPG,AFNE01.JPG,AFNE01.JPG,,,,,,,,,,,,,,,,,,,,,2,1,21,2,,,AMNE12.jpg,AMSA04.jpg,AMNE04.jpg,AMSA12.jpg,AMNE04.jpg,MN,1,num_2,16,num_2,0.866789338877,,,2017_Jun_07_1424,59.9957088284,FEMA4ImagesEEG,001,200537,
AFNE01.JPG,AFNE01.JPG,AFNE01.JPG,AFNE01.JPG,AFNE01.JPG,AFNE01.JPG,,,,,,,,,,,,,,,,,,,,,2,2,22,0,,,AMNE20.jpg,AMSA02.jpg,AMSA09.jpg,AMNE01.jpg,AMSA09.jpg,MS,2,num_2,32,num_8,0.833525082562,,,2017_Jun_07_1424,59.9957088284,FEMA4ImagesEEG,001,200537,
AFNE01.JPG,AFNE01.JPG,AFNE01.JPG,AFNE01.JPG,AFNE01.JPG,AFNE01.JPG,,,,,,,,,,,,,,,,,,,,,2,3,23,1,,,AMSA20.jpg,AMSA10.jpg,AMNE15.jpg,AMNE10.jpg,AMNE10.jpg,MN,1,num_4,32,num_6,0.816760328133,,,2017_Jun_07_1424,59.9957088284,FEMA4ImagesEEG,001,200537,
AFNE01.JPG,AFNE01.JPG,AFNE01.JPG,AFNE01.JPG,AFNE01.JPG,AFNE01.JPG,,,,,,,,,,,,,,,,,,,,,2,4,24,3,,,AMNE01.jpg,AMSA10.jpg,AMSA09.jpg,AMNE07.jpg,AMSA09.jpg,MS,2,num_2,32,num_4,0.833506158786,,,2017_Jun_07_1424,59.9957088284,FEMA4ImagesEEG,001,200537,
AFNE01.JPG,AFNE01.JPG,AFNE01.JPG,AFNE01.JPG,AFNE01.JPG,AFNE01.JPG,,,,,,,,,,,,,,,,,,,,,2,5,25,6,,,AMNE02.jpg,AMSA15.jpg,AMNE07.jpg,AMSA18.jpg,AMNE07.jpg,MN,1,num_2,16,num_2,0.683486481197,,,2017_Jun_07_1424,59.9957088284,FEMA4ImagesEEG,001,200537,
AFNE01.JPG,AFNE01.JPG,AFNE01.JPG,AFNE01.JPG,AFNE01.JPG,AFNE01.JPG,,,,,,,,,,,,,,,,,,,,,2,6,26,7,,,AMSA13.jpg,AMNE11.jpg,AMNE16.jpg,AMSA02.jpg,AMSA02.jpg,MS,2,num_4,16,num_4,0.800154981436,,,2017_Jun_07_1424,59.9957088284,FEMA4ImagesEEG,001,200537,
AFNE01.JPG,AFNE01.JPG,AFNE01.JPG,AFNE01.JPG,AFNE01.JPG,AFNE01.JPG,,,,,,,,,,,,,,,,,,,,,2,7,27,9,,,AMSA01.jpg,AMNE20.jpg,AMNE08.jpg,AMSA12.jpg,AMNE08.jpg,MN,1,num_2,16,num_2,0.683446709532,,,2017_Jun_07_1424,59.9957088284,FEMA4ImagesEEG,001,200537,
AFNE01.JPG,AFNE01.JPG,AFNE01.JPG,AFNE01.JPG,AFNE01.JPG,AFNE01.JPG,,,,,,,,,,,,,,,,,,,,,2,8,28,4,,,AMNE17.jpg,AMNE12.jpg,AMSA14.jpg,AMSA11.jpg,AMNE17.jpg,MN,1,num_8,16,num_8,1.41670047818,,,2017_Jun_07_1424,59.9957088284,FEMA4ImagesEEG,001,200537,
AFNE01.JPG,AFNE01.JPG,AFNE01.JPG,AFNE01.JPG,AFNE01.JPG,AFNE01.JPG,,,,,,,,,,,,,,,,,,,,,2,9,29,5,,,AMNE11.jpg,AMNE14.jpg,AMSA08.jpg,AMSA11.jpg,AMSA11.jpg,MS,2,num_4,32,num_2,0.950135528808,,,2017_Jun_07_1424,59.9957088284,FEMA4ImagesEEG,001,200537,
AFNE01.JPG,AFNE01.JPG,AFNE01.JPG,AFNE01.JPG,AFNE01.JPG,AFNE01.JPG,,,,,,,,,,,,,,,,,,,,,3,0,30,0,,,AMNE15.jpg,AMSA04.jpg,AMNE14.jpg,AMSA03.jpg,AMSA04.jpg,MS,2,num_6,16,num_6,0.750151950633,,,2017_Jun_07_1424,59.9957088284,FEMA4ImagesEEG,001,200537,
AFNE01.JPG,AFNE01.JPG,AFNE01.JPG,AFNE01.JPG,AFNE01.JPG,AFNE01.JPG,,,,,,,,,,,,,,,,,,,,,3,1,31,3,,,AMSA19.jpg,AMNE17.jpg,AMSA11.jpg,AMNE03.jpg,AMNE17.jpg,MN,1,num_6,32,num_2,0.716780566843,,,2017_Jun_07_1424,59.9957088284,FEMA4ImagesEEG,001,200537,
AFNE01.JPG,AFNE01.JPG,AFNE01.JPG,AFNE01.JPG,AFNE01.JPG,AFNE01.JPG,,,,,,,,,,,,,,,,,,,,,3,2,32,2,,,AMSA06.jpg,AMNE07.jpg,AMNE13.jpg,AMSA03.jpg,AMSA03.jpg,MS,2,num_4,16,num_4,1.01669226703,,,2017_Jun_07_1424,59.9957088284,FEMA4ImagesEEG,001,200537,
AFNE01.JPG,AFNE01.JPG,AFNE01.JPG,AFNE01.JPG,AFNE01.JPG,AFNE01.JPG,,,,,,,,,,,,,,,,,,,,,3,3,33,1,,,AMSA16.jpg,AMNE14.jpg,AMNE06.jpg,AMSA15.jpg,AMSA16.jpg,MS,2,num_8,32,num_2,1.30008939025,,,2017_Jun_07_1424,59.9957088284,FEMA4ImagesEEG,001,200537,
AFNE01.JPG,AFNE01.JPG,AFNE01.JPG,AFNE01.JPG,AFNE01.JPG,AFNE01.JPG,,,,,,,,,,,,,,,,,,,,,3,4,34,4,,,AMNE20.jpg,AMSA17.jpg,AMSA15.jpg,AMNE13.jpg,AMNE20.jpg,MN,1,num_8,32,num_4,0.83347600908,,,2017_Jun_07_1424,59.9957088284,FEMA4ImagesEEG,001,200537,
AFNE01.JPG,AFNE01.JPG,AFNE01.JPG,AFNE01.JPG,AFNE01.JPG,AFNE01.JPG,,,,,,,,,,,,,,,,,,,,,3,5,35,9,,,AMSA10.jpg,AMSA03.jpg,AMNE01.jpg,AMNE08.jpg,AMSA03.jpg,MS,2,num_6,32,num_8,1.10012441501,,,2017_Jun_07_1424,59.9957088284,FEMA4ImagesEEG,001,200537,
AFNE01.JPG,AFNE01.JPG,AFNE01.JPG,AFNE01.JPG,AFNE01.JPG,AFNE01.JPG,,,,,,,,,,,,,,,,,,,,,3,6,36,6,,,AMSA07.jpg,AMSA13.jpg,AMNE09.jpg,AMNE06.jpg,AMSA13.jpg,MS,2,num_6,32,num_4,1.33349284786,,,2017_Jun_07_1424,59.9957088284,FEMA4ImagesEEG,001,200537,
AFNE01.JPG,AFNE01.JPG,AFNE01.JPG,AFNE01.JPG,AFNE01.JPG,AFNE01.JPG,,,,,,,,,,,,,,,,,,,,,3,7,37,5,,,AMNE02.jpg,AMSA06.jpg,AMNE01.jpg,AMSA13.jpg,AMNE02.jpg,MN,1,num_8,16,num_8,0.91676222044,,,2017_Jun_07_1424,59.9957088284,FEMA4ImagesEEG,001,200537,
AFNE01.JPG,AFNE01.JPG,AFNE01.JPG,AFNE01.JPG,AFNE01.JPG,AFNE01.JPG,,,,,,,,,,,,,,,,,,,,,3,8,38,8,,,AMNE13.jpg,AMSA09.jpg,AMNE04.jpg,AMSA07.jpg,AMNE13.jpg,MN,1,num_8,32,num_4,0.733465136029,,,2017_Jun_07_1424,59.9957088284,FEMA4ImagesEEG,001,200537,
