IPosition2,IPosition3,IPosition1,IPosition6,IPosition4,IPosition5,TrialsF1.thisRepN,TrialsF1.thisTrialN,TrialsF1.thisN,TrialsF1.thisIndex,TrialsM1.thisRepN,TrialsM1.thisTrialN,TrialsM1.thisN,TrialsM1.thisIndex,TrialsF2.thisRepN,TrialsF2.thisTrialN,TrialsF2.thisN,TrialsF2.thisIndex,TrialsM2.thisRepN,TrialsM2.thisTrialN,TrialsM2.thisN,TrialsM2.thisIndex,TrialsF3.thisRepN,TrialsF3.thisTrialN,TrialsF3.thisN,TrialsF3.thisIndex,TrialsM3.thisRepN,TrialsM3.thisTrialN,TrialsM3.thisN,TrialsM3.thisIndex,InstrKey_resp.keys,InstrKey_resp.rt,Image0 _Position,Image1 _Position,Image2 _Position,Image3 _Position,Center_image,condition,code,correct_answer,accuracy,Key_Resp.keys,Key_Resp.rt,BreakKey_resp.keys,BreakKey_resp.rt,date,frameRate,expName,session,participant,
,,,,,,,,,,,,,,,,,,,,,,,,,,,,,,space,0.916842084611,,,,,,,,,,,,,,2017_Jun_01_1650,60.0203096579,FEMA4ImagesEEG,001,200526,
AFNE22.JPG,AFSA24.JPG,AFSA22.JPG,AFNE25.JPG,AFNE24.JPG,AFSA25.JPG,0,0,0,6,,,,,,,,,,,,,,,,,,,,,,,AFNE19.jpg,AFNE09.jpg,AFSA07.jpg,AFSA11.jpg,AFSA11.jpg,FS,4,num_4,48,None,,,,2017_Jun_01_1650,60.0203096579,FEMA4ImagesEEG,001,200526,
AFSA25.JPG,AFNE24.JPG,AFSA24.JPG,AFNE21.JPG,AFSA21.JPG,AFNE25.JPG,0,1,1,2,,,,,,,,,,,,,,,,,,,,,,,AFSA14.jpg,AFSA02.jpg,AFNE08.jpg,AFNE01.jpg,AFNE08.jpg,FN,3,num_2,48,None,,,,2017_Jun_01_1650,60.0203096579,FEMA4ImagesEEG,001,200526,
AFSA21.JPG,AFNE22.JPG,AFNE21.JPG,AFSA23.JPG,AFSA22.JPG,AFNE23.JPG,0,2,2,0,,,,,,,,,,,,,,,,,,,,,,,AFSA02.jpg,AFNE14.jpg,AFNE04.jpg,AFSA16.jpg,AFNE04.jpg,FN,3,num_2,32,num_8,0.466636474244,,,2017_Jun_01_1650,60.0203096579,FEMA4ImagesEEG,001,200526,
AMSA21.JPG,AMNE22.JPG,AMNE21.JPG,AMSA23.JPG,AMSA22.JPG,AMNE23.JPG,0,3,3,1,,,,,,,,,,,,,,,,,,,,,,,AFNE14.jpg,AFSA13.jpg,AFSA03.jpg,AFNE01.jpg,AFNE14.jpg,FN,3,num_8,32,num_4,0.35012706113,,,2017_Jun_01_1650,60.0203096579,FEMA4ImagesEEG,001,200526,
AFNE23.JPG,AFNE24.JPG,AFNE22.JPG,AFSA24.JPG,AFSA22.JPG,AFSA23.JPG,0,4,4,8,,,,,,,,,,,,,,,,,,,,,,,AFNE10.jpg,AFSA11.jpg,AFSA07.jpg,AFNE07.jpg,AFNE07.jpg,FN,3,num_4,32,num_2,0.400049586548,,,2017_Jun_01_1650,60.0203096579,FEMA4ImagesEEG,001,200526,
AMSA21.JPG,AMNE23.JPG,AMNE21.JPG,AMSA25.JPG,AMNE25.JPG,AMSA23.JPG,0,5,5,5,,,,,,,,,,,,,,,,,,,,,,,AFSA11.jpg,AFNE08.jpg,AFNE10.jpg,AFSA05.jpg,AFSA05.jpg,FS,4,num_4,32,num_6,0.283559417585,,,2017_Jun_01_1650,60.0203096579,FEMA4ImagesEEG,001,200526,
AFSA21.JPG,AFNE23.JPG,AFNE21.JPG,AFSA25.JPG,AFNE25.JPG,AFSA23.JPG,0,6,6,4,,,,,,,,,,,,,,,,,,,,,,,AFNE19.jpg,AFSA15.jpg,AFSA17.jpg,AFNE14.jpg,AFSA15.jpg,FS,4,num_6,32,num_8,0.28346127132,,,2017_Jun_01_1650,60.0203096579,FEMA4ImagesEEG,001,200526,
AMSA25.JPG,AMNE24.JPG,AMSA24.JPG,AMNE26.JPG,AMSA21.JPG,AMNE25.JPG,0,7,7,3,,,,,,,,,,,,,,,,,,,,,,,AFSA01.jpg,AFNE02.jpg,AFNE05.jpg,AFSA05.jpg,AFNE05.jpg,FN,3,num_2,32,num_4,0.383503576741,,,2017_Jun_01_1650,60.0203096579,FEMA4ImagesEEG,001,200526,
AMNE22.JPG,AMSA24.JPG,AMSA22.JPG,AMNE25.JPG,AMNE24.JPG,AMSA25.JPG,0,8,8,7,,,,,,,,,,,,,,,,,,,,,,,AFSA16.jpg,AFNE15.jpg,AFSA09.jpg,AFNE14.jpg,AFNE15.jpg,FN,3,num_6,32,num_2,0.333510809578,,,2017_Jun_01_1650,60.0203096579,FEMA4ImagesEEG,001,200526,
AMNE23.JPG,AMNE24.JPG,AMNE22.JPG,AMSA24.JPG,AMSA22.JPG,AMSA23.JPG,0,9,9,9,,,,,,,,,,,,,,,,,,,,,,,AFNE01.jpg,AFNE16.jpg,AFSA14.jpg,AFSA11.jpg,AFSA11.jpg,FS,4,num_4,32,num_6,0.366830554092,,,2017_Jun_01_1650,60.0203096579,FEMA4ImagesEEG,001,200526,
AMSA21.JPG,AMNE23.JPG,AMNE21.JPG,AMSA25.JPG,AMNE25.JPG,AMSA23.JPG,,,,,0,0,0,5,,,,,,,,,,,,,,,,,,,AMNE02.jpg,AMSA19.jpg,AMNE06.jpg,AMSA13.jpg,AMSA19.jpg,MS,2,num_6,32,num_8,0.250176487258,,,2017_Jun_01_1650,60.0203096579,FEMA4ImagesEEG,001,200526,
AMNE22.JPG,AMSA24.JPG,AMSA22.JPG,AMNE25.JPG,AMNE24.JPG,AMSA25.JPG,,,,,0,1,1,7,,,,,,,,,,,,,,,,,,,AMNE04.jpg,AMSA13.jpg,AMNE15.jpg,AMSA08.jpg,AMNE04.jpg,MN,1,num_8,32,num_4,0.333678877214,,,2017_Jun_01_1650,60.0203096579,FEMA4ImagesEEG,001,200526,
AMNE23.JPG,AMNE24.JPG,AMNE22.JPG,AMSA24.JPG,AMSA22.JPG,AMSA23.JPG,,,,,0,2,2,9,,,,,,,,,,,,,,,,,,,AMSA13.jpg,AMSA08.jpg,AMNE06.jpg,AMNE05.jpg,AMNE05.jpg,MN,1,num_4,32,num_2,0.366782122524,,,2017_Jun_01_1650,60.0203096579,FEMA4ImagesEEG,001,200526,
AFNE23.JPG,AFNE24.JPG,AFNE22.JPG,AFSA24.JPG,AFSA22.JPG,AFSA23.JPG,,,,,0,3,3,8,,,,,,,,,,,,,,,,,,,AMNE04.jpg,AMSA20.jpg,AMNE01.jpg,AMSA19.jpg,AMSA19.jpg,MS,2,num_4,32,num_6,0.316805392038,,,2017_Jun_01_1650,60.0203096579,FEMA4ImagesEEG,001,200526,
AFSA25.JPG,AFNE24.JPG,AFSA24.JPG,AFNE21.JPG,AFSA21.JPG,AFNE25.JPG,,,,,0,4,4,2,,,,,,,,,,,,,,,,,,,AMNE09.jpg,AMSA17.jpg,AMSA03.jpg,AMNE20.jpg,AMNE09.jpg,MN,1,num_8,16,num_8,0.30014776485,,,2017_Jun_01_1650,60.0203096579,FEMA4ImagesEEG,001,200526,
AMSA21.JPG,AMNE22.JPG,AMNE21.JPG,AMSA23.JPG,AMSA22.JPG,AMNE23.JPG,,,,,0,5,5,1,,,,,,,,,,,,,,,,,,,AMNE09.jpg,AMSA19.jpg,AMNE12.jpg,AMSA04.jpg,AMSA04.jpg,MS,2,num_4,16,num_4,0.283483722946,,,2017_Jun_01_1650,60.0203096579,FEMA4ImagesEEG,001,200526,
AFSA21.JPG,AFNE23.JPG,AFNE21.JPG,AFSA25.JPG,AFNE25.JPG,AFSA23.JPG,,,,,0,6,6,4,,,,,,,,,,,,,,,,,,,AMSA12.jpg,AMNE08.jpg,AMSA02.jpg,AMNE11.jpg,AMNE11.jpg,MN,1,num_4,32,num_2,0.300213516457,,,2017_Jun_01_1650,60.0203096579,FEMA4ImagesEEG,001,200526,
AFNE22.JPG,AFSA24.JPG,AFSA22.JPG,AFNE25.JPG,AFNE24.JPG,AFSA25.JPG,,,,,0,7,7,6,,,,,,,,,,,,,,,,,,,AMNE11.jpg,AMSA11.jpg,AMSA19.jpg,AMNE12.jpg,AMSA19.jpg,MS,2,num_2,32,num_6,0.550219690893,,,2017_Jun_01_1650,60.0203096579,FEMA4ImagesEEG,001,200526,
AFSA21.JPG,AFNE22.JPG,AFNE21.JPG,AFSA23.JPG,AFSA22.JPG,AFNE23.JPG,,,,,0,8,8,0,,,,,,,,,,,,,,,,,,,AMSA02.jpg,AMNE13.jpg,AMNE05.jpg,AMSA16.jpg,AMSA16.jpg,MS,2,num_4,32,num_8,0.300192347728,,,2017_Jun_01_1650,60.0203096579,FEMA4ImagesEEG,001,200526,
AMSA25.JPG,AMNE24.JPG,AMSA24.JPG,AMNE26.JPG,AMSA21.JPG,AMNE25.JPG,,,,,0,9,9,3,,,,,,,,,,,,,,,,,,,AMNE02.jpg,AMNE03.jpg,AMSA12.jpg,AMSA09.jpg,AMNE03.jpg,MN,1,num_6,32,num_4,0.266854320886,,,2017_Jun_01_1650,60.0203096579,FEMA4ImagesEEG,001,200526,
AMSA21.JPG,AMNE23.JPG,AMNE21.JPG,AMSA25.JPG,AMNE25.JPG,AMSA23.JPG,,,,,,,,,0,0,0,5,,,,,,,,,,,,,,,AFNE18.jpg,AFSA16.jpg,AFSA08.jpg,AFNE02.jpg,AFSA08.jpg,FS,4,num_2,16,num_2,0.266788569279,,,2017_Jun_01_1650,60.0203096579,FEMA4ImagesEEG,001,200526,
AFSA21.JPG,AFNE22.JPG,AFNE21.JPG,AFSA23.JPG,AFSA22.JPG,AFNE23.JPG,,,,,,,,,0,1,1,0,,,,,,,,,,,,,,,AFNE18.jpg,AFNE08.jpg,AFSA02.jpg,AFSA15.jpg,AFNE08.jpg,FN,3,num_6,16,num_6,0.250125168823,,,2017_Jun_01_1650,60.0203096579,FEMA4ImagesEEG,001,200526,
AFNE23.JPG,AFNE24.JPG,AFNE22.JPG,AFSA24.JPG,AFSA22.JPG,AFSA23.JPG,,,,,,,,,0,2,2,8,,,,,,,,,,,,,,,AFSA11.jpg,AFSA14.jpg,AFNE13.jpg,AFNE04.jpg,AFSA11.jpg,FS,4,num_8,16,num_8,0.466839502566,,,2017_Jun_01_1650,60.0203096579,FEMA4ImagesEEG,001,200526,
AMSA21.JPG,AMNE22.JPG,AMNE21.JPG,AMSA23.JPG,AMSA22.JPG,AMNE23.JPG,,,,,,,,,0,3,3,1,,,,,,,,,,,,,,,AFSA08.jpg,AFSA06.jpg,AFNE16.jpg,AFNE10.jpg,AFNE16.jpg,FN,3,num_2,32,num_4,0.233501860872,,,2017_Jun_01_1650,60.0203096579,FEMA4ImagesEEG,001,200526,
AMNE22.JPG,AMSA24.JPG,AMSA22.JPG,AMNE25.JPG,AMNE24.JPG,AMSA25.JPG,,,,,,,,,0,4,4,7,,,,,,,,,,,,,,,AFSA09.jpg,AFNE08.jpg,AFSA13.jpg,AFNE11.jpg,AFSA13.jpg,FS,4,num_2,16,num_2,0.300178876612,,,2017_Jun_01_1650,60.0203096579,FEMA4ImagesEEG,001,200526,
AMSA25.JPG,AMNE24.JPG,AMSA24.JPG,AMNE26.JPG,AMSA21.JPG,AMNE25.JPG,,,,,,,,,0,5,5,3,,,,,,,,,,,,,,,AFNE18.jpg,AFNE17.jpg,AFSA03.jpg,AFSA11.jpg,AFSA11.jpg,FS,4,num_4,32,num_6,0.416820755461,,,2017_Jun_01_1650,60.0203096579,FEMA4ImagesEEG,001,200526,
AFNE22.JPG,AFSA24.JPG,AFSA22.JPG,AFNE25.JPG,AFNE24.JPG,AFSA25.JPG,,,,,,,,,0,6,6,6,,,,,,,,,,,,,,,AFNE04.jpg,AFSA11.jpg,AFSA04.jpg,AFNE10.jpg,AFNE10.jpg,FN,3,num_4,32,num_8,0.383490747074,,,2017_Jun_01_1650,60.0203096579,FEMA4ImagesEEG,001,200526,
AMNE23.JPG,AMNE24.JPG,AMNE22.JPG,AMSA24.JPG,AMSA22.JPG,AMSA23.JPG,,,,,,,,,0,7,7,9,,,,,,,,,,,,,,,AFNE01.jpg,AFSA01.jpg,AFNE18.jpg,AFSA03.jpg,AFNE01.jpg,FN,3,num_8,32,num_2,0.316782940179,,,2017_Jun_01_1650,60.0203096579,FEMA4ImagesEEG,001,200526,
AFSA25.JPG,AFNE24.JPG,AFSA24.JPG,AFNE21.JPG,AFSA21.JPG,AFNE25.JPG,,,,,,,,,0,8,8,2,,,,,,,,,,,,,,,AFSA20.jpg,AFNE13.jpg,AFNE16.jpg,AFSA14.jpg,AFSA20.jpg,FS,4,num_8,32,num_4,0.266823209124,,,2017_Jun_01_1650,60.0203096579,FEMA4ImagesEEG,001,200526,
AFSA21.JPG,AFNE23.JPG,AFNE21.JPG,AFSA25.JPG,AFNE25.JPG,AFSA23.JPG,,,,,,,,,0,9,9,4,,,,,,,,,,,,,,,AFNE06.jpg,AFSA03.jpg,AFNE02.jpg,AFSA06.jpg,AFNE02.jpg,FN,3,num_2,32,num_6,0.283451969735,,,2017_Jun_01_1650,60.0203096579,FEMA4ImagesEEG,001,200526,
AFNE23.JPG,AFNE24.JPG,AFNE22.JPG,AFSA24.JPG,AFSA22.JPG,AFSA23.JPG,,,,,,,,,,,,,0,0,0,8,,,,,,,,,,,AMSA09.jpg,AMNE19.jpg,AMSA14.jpg,AMNE02.jpg,AMSA09.jpg,MS,2,num_8,16,num_8,0.316791600315,,,2017_Jun_01_1650,60.0203096579,FEMA4ImagesEEG,001,200526,
AMSA21.JPG,AMNE22.JPG,AMNE21.JPG,AMSA23.JPG,AMSA22.JPG,AMNE23.JPG,,,,,,,,,,,,,0,1,1,1,,,,,,,,,,,AMSA07.jpg,AMNE20.jpg,AMNE18.jpg,AMSA15.jpg,AMNE18.jpg,MN,1,num_2,16,num_2,0.266805568477,,,2017_Jun_01_1650,60.0203096579,FEMA4ImagesEEG,001,200526,
AFSA25.JPG,AFNE24.JPG,AFSA24.JPG,AFNE21.JPG,AFSA21.JPG,AFNE25.JPG,,,,,,,,,,,,,0,2,2,2,,,,,,,,,,,AMSA08.jpg,AMNE15.jpg,AMNE01.jpg,AMSA19.jpg,AMSA08.jpg,MS,2,num_8,32,num_4,0.266803644132,,,2017_Jun_01_1650,60.0203096579,FEMA4ImagesEEG,001,200526,
AFSA21.JPG,AFNE23.JPG,AFNE21.JPG,AFSA25.JPG,AFNE25.JPG,AFSA23.JPG,,,,,,,,,,,,,0,3,3,4,,,,,,,,,,,AMSA13.jpg,AMSA16.jpg,AMNE06.jpg,AMNE15.jpg,AMSA16.jpg,MS,2,num_6,16,num_6,0.300275098532,,,2017_Jun_01_1650,60.0203096579,FEMA4ImagesEEG,001,200526,
AMNE22.JPG,AMSA24.JPG,AMSA22.JPG,AMNE25.JPG,AMNE24.JPG,AMSA25.JPG,,,,,,,,,,,,,0,4,4,7,,,,,,,,,,,AMSA04.jpg,AMNE05.jpg,AMSA17.jpg,AMNE14.jpg,AMSA04.jpg,MS,2,num_8,16,num_8,0.300156104146,,,2017_Jun_01_1650,60.0203096579,FEMA4ImagesEEG,001,200526,
AMNE23.JPG,AMNE24.JPG,AMNE22.JPG,AMSA24.JPG,AMSA22.JPG,AMSA23.JPG,,,,,,,,,,,,,0,5,5,9,,,,,,,,,,,AMSA16.jpg,AMNE15.jpg,AMNE09.jpg,AMSA07.jpg,AMNE09.jpg,MN,1,num_2,16,num_2,0.266806530766,,,2017_Jun_01_1650,60.0203096579,FEMA4ImagesEEG,001,200526,
AFNE22.JPG,AFSA24.JPG,AFSA22.JPG,AFNE25.JPG,AFNE24.JPG,AFSA25.JPG,,,,,,,,,,,,,0,6,6,6,,,,,,,,,,,AMNE15.jpg,AMNE04.jpg,AMSA12.jpg,AMSA09.jpg,AMNE04.jpg,MN,1,num_6,32,num_4,0.433453364763,,,2017_Jun_01_1650,60.0203096579,FEMA4ImagesEEG,001,200526,
AMSA25.JPG,AMNE24.JPG,AMSA24.JPG,AMNE26.JPG,AMSA21.JPG,AMNE25.JPG,,,,,,,,,,,,,0,7,7,3,,,,,,,,,,,AMNE15.jpg,AMSA07.jpg,AMSA15.jpg,AMNE09.jpg,AMNE09.jpg,MN,1,num_4,32,num_6,0.267037784215,,,2017_Jun_01_1650,60.0203096579,FEMA4ImagesEEG,001,200526,
AFSA21.JPG,AFNE22.JPG,AFNE21.JPG,AFSA23.JPG,AFSA22.JPG,AFNE23.JPG,,,,,,,,,,,,,0,8,8,0,,,,,,,,,,,AMNE14.jpg,AMNE06.jpg,AMSA03.jpg,AMSA06.jpg,AMNE06.jpg,MN,1,num_6,32,num_8,0.383474710165,,,2017_Jun_01_1650,60.0203096579,FEMA4ImagesEEG,001,200526,
AMSA21.JPG,AMNE23.JPG,AMNE21.JPG,AMSA25.JPG,AMNE25.JPG,AMSA23.JPG,,,,,,,,,,,,,0,9,9,5,,,,,,,,,,,AMSA19.jpg,AMSA15.jpg,AMNE08.jpg,AMNE12.jpg,AMSA15.jpg,MS,2,num_6,32,num_2,0.350188322365,,,2017_Jun_01_1650,60.0203096579,FEMA4ImagesEEG,001,200526,
AFSA25.JPG,AFNE24.JPG,AFSA24.JPG,AFNE21.JPG,AFSA21.JPG,AFNE25.JPG,,,,,,,,,,,,,,,,,0,0,0,2,,,,,,,AFNE01.jpg,AFSA20.jpg,AFSA02.jpg,AFNE10.jpg,AFSA20.jpg,FS,4,num_6,32,num_4,0.866747322027,,,2017_Jun_01_1650,60.0203096579,FEMA4ImagesEEG,001,200526,
AMSA21.JPG,AMNE22.JPG,AMNE21.JPG,AMSA23.JPG,AMSA22.JPG,AMNE23.JPG,,,,,,,,,,,,,,,,,0,1,1,1,,,,,,,AFNE14.jpg,AFSA11.jpg,AFSA19.jpg,AFNE04.jpg,AFSA19.jpg,FS,4,num_2,32,num_6,0.483506431337,,,2017_Jun_01_1650,60.0203096579,FEMA4ImagesEEG,001,200526,
AFNE22.JPG,AFSA24.JPG,AFSA22.JPG,AFNE25.JPG,AFNE24.JPG,AFSA25.JPG,,,,,,,,,,,,,,,,,0,2,2,6,,,,,,,AFNE07.jpg,AFSA09.jpg,AFSA07.jpg,AFNE02.jpg,AFSA07.jpg,FS,4,num_2,32,num_8,0.450104577234,,,2017_Jun_01_1650,60.0203096579,FEMA4ImagesEEG,001,200526,
AMNE22.JPG,AMSA24.JPG,AMSA22.JPG,AMNE25.JPG,AMNE24.JPG,AMSA25.JPG,,,,,,,,,,,,,,,,,0,3,3,7,,,,,,,AFNE13.jpg,AFNE04.jpg,AFSA15.jpg,AFSA04.jpg,AFNE04.jpg,FN,3,num_6,32,num_2,0.433558246819,,,2017_Jun_01_1650,60.0203096579,FEMA4ImagesEEG,001,200526,
AMNE23.JPG,AMNE24.JPG,AMNE22.JPG,AMSA24.JPG,AMSA22.JPG,AMSA23.JPG,,,,,,,,,,,,,,,,,0,4,4,9,,,,,,,AFSA02.jpg,AFNE20.jpg,AFSA01.jpg,AFNE15.jpg,AFSA02.jpg,FS,4,num_8,16,num_8,0.950116605032,,,2017_Jun_01_1650,60.0203096579,FEMA4ImagesEEG,001,200526,
AFSA21.JPG,AFNE23.JPG,AFNE21.JPG,AFSA25.JPG,AFNE25.JPG,AFSA23.JPG,,,,,,,,,,,,,,,,,0,5,5,4,,,,,,,AFNE13.jpg,AFSA15.jpg,AFNE07.jpg,AFSA11.jpg,AFNE13.jpg,FN,3,num_8,32,num_6,0.800115209771,,,2017_Jun_01_1650,60.0203096579,FEMA4ImagesEEG,001,200526,
AMSA25.JPG,AMNE24.JPG,AMSA24.JPG,AMNE26.JPG,AMSA21.JPG,AMNE25.JPG,,,,,,,,,,,,,,,,,0,6,6,3,,,,,,,AFNE01.jpg,AFSA07.jpg,AFNE08.jpg,AFSA06.jpg,AFNE01.jpg,FN,3,num_8,16,num_8,0.58380148001,,,2017_Jun_01_1650,60.0203096579,FEMA4ImagesEEG,001,200526,
AFSA21.JPG,AFNE22.JPG,AFNE21.JPG,AFSA23.JPG,AFSA22.JPG,AFNE23.JPG,,,,,,,,,,,,,,,,,0,7,7,0,,,,,,,AFNE20.jpg,AFSA03.jpg,AFNE05.jpg,AFSA11.jpg,AFSA11.jpg,FS,4,num_4,16,num_4,0.483141429257,,,2017_Jun_01_1650,60.0203096579,FEMA4ImagesEEG,001,200526,
AMSA21.JPG,AMNE23.JPG,AMNE21.JPG,AMSA25.JPG,AMNE25.JPG,AMSA23.JPG,,,,,,,,,,,,,,,,,0,8,8,5,,,,,,,AFNE20.jpg,AFSA10.jpg,AFNE06.jpg,AFSA02.jpg,AFSA02.jpg,FS,4,num_4,16,num_4,0.683450237848,,,2017_Jun_01_1650,60.0203096579,FEMA4ImagesEEG,001,200526,
AFNE23.JPG,AFNE24.JPG,AFNE22.JPG,AFSA24.JPG,AFSA22.JPG,AFSA23.JPG,,,,,,,,,,,,,,,,,0,9,9,8,,,,,,,AFNE10.jpg,AFSA01.jpg,AFSA08.jpg,AFNE03.jpg,AFSA08.jpg,FS,4,num_2,32,num_6,0.91688634688,,,2017_Jun_01_1650,60.0203096579,FEMA4ImagesEEG,001,200526,
AFNE22.JPG,AFSA24.JPG,AFSA22.JPG,AFNE25.JPG,AFNE24.JPG,AFSA25.JPG,,,,,,,,,,,,,,,,,,,,,0,0,0,6,,,AMNE19.jpg,AMSA16.jpg,AMSA11.jpg,AMNE16.jpg,AMNE16.jpg,MN,1,num_4,32,num_8,0.766763070365,,,2017_Jun_01_1650,60.0203096579,FEMA4ImagesEEG,001,200526,
AMSA25.JPG,AMNE24.JPG,AMSA24.JPG,AMNE26.JPG,AMSA21.JPG,AMNE25.JPG,,,,,,,,,,,,,,,,,,,,,0,1,1,3,,,AMNE05.jpg,AMNE03.jpg,AMSA02.jpg,AMSA19.jpg,AMSA19.jpg,MS,2,num_4,32,num_6,0.700250273338,,,2017_Jun_01_1650,60.0203096579,FEMA4ImagesEEG,001,200526,
AFSA21.JPG,AFNE23.JPG,AFNE21.JPG,AFSA25.JPG,AFNE25.JPG,AFSA23.JPG,,,,,,,,,,,,,,,,,,,,,0,2,2,4,,,AMSA05.jpg,AMSA06.jpg,AMNE19.jpg,AMNE10.jpg,AMNE10.jpg,MN,1,num_4,32,num_6,0.350209170487,,,2017_Jun_01_1650,60.0203096579,FEMA4ImagesEEG,001,200526,
AFNE23.JPG,AFNE24.JPG,AFNE22.JPG,AFSA24.JPG,AFSA22.JPG,AFSA23.JPG,,,,,,,,,,,,,,,,,,,,,0,3,3,8,,,AMSA07.jpg,AMSA18.jpg,AMNE08.jpg,AMNE15.jpg,AMNE08.jpg,MN,1,num_2,32,num_8,0.516734123696,,,2017_Jun_01_1650,60.0203096579,FEMA4ImagesEEG,001,200526,
AMNE22.JPG,AMSA24.JPG,AMSA22.JPG,AMNE25.JPG,AMNE24.JPG,AMSA25.JPG,,,,,,,,,,,,,,,,,,,,,0,4,4,7,,,AMSA12.jpg,AMNE16.jpg,AMSA20.jpg,AMNE05.jpg,AMSA20.jpg,MS,2,num_2,32,num_4,0.383434938267,,,2017_Jun_01_1650,60.0203096579,FEMA4ImagesEEG,001,200526,
AFSA25.JPG,AFNE24.JPG,AFSA24.JPG,AFNE21.JPG,AFSA21.JPG,AFNE25.JPG,,,,,,,,,,,,,,,,,,,,,0,5,5,2,,,AMSA01.jpg,AMSA03.jpg,AMNE17.jpg,AMNE20.jpg,AMSA01.jpg,MS,2,num_8,32,num_2,0.316793845268,,,2017_Jun_01_1650,60.0203096579,FEMA4ImagesEEG,001,200526,
AMNE23.JPG,AMNE24.JPG,AMNE22.JPG,AMSA24.JPG,AMSA22.JPG,AMSA23.JPG,,,,,,,,,,,,,,,,,,,,,0,6,6,9,,,AMSA05.jpg,AMSA02.jpg,AMNE07.jpg,AMNE01.jpg,AMSA02.jpg,MS,2,num_6,16,num_6,0.41690126108,,,2017_Jun_01_1650,60.0203096579,FEMA4ImagesEEG,001,200526,
AMSA21.JPG,AMNE23.JPG,AMNE21.JPG,AMSA25.JPG,AMNE25.JPG,AMSA23.JPG,,,,,,,,,,,,,,,,,,,,,0,7,7,5,,,AMNE20.jpg,AMNE13.jpg,AMSA07.jpg,AMSA13.jpg,AMSA07.jpg,MS,2,num_2,32,num_8,0.600100840675,,,2017_Jun_01_1650,60.0203096579,FEMA4ImagesEEG,001,200526,
AFSA21.JPG,AFNE22.JPG,AFNE21.JPG,AFSA23.JPG,AFSA22.JPG,AFNE23.JPG,,,,,,,,,,,,,,,,,,,,,0,8,8,0,,,AMNE04.jpg,AMSA13.jpg,AMNE18.jpg,AMSA08.jpg,AMSA08.jpg,MS,2,num_4,16,num_4,0.600164026255,,,2017_Jun_01_1650,60.0203096579,FEMA4ImagesEEG,001,200526,
AMSA21.JPG,AMNE22.JPG,AMNE21.JPG,AMSA23.JPG,AMSA22.JPG,AMNE23.JPG,,,,,,,,,,,,,,,,,,,,,0,9,9,1,,,AMSA19.jpg,AMSA03.jpg,AMNE08.jpg,AMNE11.jpg,AMNE11.jpg,MN,1,num_4,32,num_2,0.383488181047,,,2017_Jun_01_1650,60.0203096579,FEMA4ImagesEEG,001,200526,
,,,,,,,,,,,,,,,,,,,,,,,,,,,,,,,,,,,,,,,,,,,space,4.03292780044,2017_Jun_01_1650,60.0203096579,FEMA4ImagesEEG,001,200526,
AFNE01.JPG,AFNE01.JPG,AFNE01.JPG,AFNE01.JPG,AFNE01.JPG,AFNE01.JPG,0,0,0,8,,,,,,,,,,,,,,,,,,,,,,,AFSA06.jpg,AFNE09.jpg,AFSA05.jpg,AFNE06.jpg,AFNE06.jpg,FN,3,num_4,32,num_8,0.350285185967,,,2017_Jun_01_1650,60.0203096579,FEMA4ImagesEEG,001,200526,
AFNE01.JPG,AFNE01.JPG,AFNE01.JPG,AFNE01.JPG,AFNE01.JPG,AFNE01.JPG,0,1,1,7,,,,,,,,,,,,,,,,,,,,,,,AFSA05.jpg,AFNE12.jpg,AFSA01.jpg,AFNE02.jpg,AFNE12.jpg,FN,3,num_6,32,num_4,0.30005635391,,,2017_Jun_01_1650,60.0203096579,FEMA4ImagesEEG,001,200526,
AFNE01.JPG,AFNE01.JPG,AFNE01.JPG,AFNE01.JPG,AFNE01.JPG,AFNE01.JPG,0,2,2,1,,,,,,,,,,,,,,,,,,,,,,,AFSA10.jpg,AFNE18.jpg,AFNE19.jpg,AFSA16.jpg,AFSA16.jpg,FS,4,num_4,32,num_2,0.300159311621,,,2017_Jun_01_1650,60.0203096579,FEMA4ImagesEEG,001,200526,
AFNE01.JPG,AFNE01.JPG,AFNE01.JPG,AFNE01.JPG,AFNE01.JPG,AFNE01.JPG,0,3,3,3,,,,,,,,,,,,,,,,,,,,,,,AFSA07.jpg,AFNE05.jpg,AFNE11.jpg,AFSA02.jpg,AFNE11.jpg,FN,3,num_2,32,num_6,0.333510809345,,,2017_Jun_01_1650,60.0203096579,FEMA4ImagesEEG,001,200526,
AFNE01.JPG,AFNE01.JPG,AFNE01.JPG,AFNE01.JPG,AFNE01.JPG,AFNE01.JPG,0,4,4,5,,,,,,,,,,,,,,,,,,,,,,,AFNE16.jpg,AFNE05.jpg,AFSA03.jpg,AFSA14.jpg,AFNE16.jpg,FN,3,num_8,16,num_8,0.23350218148,,,2017_Jun_01_1650,60.0203096579,FEMA4ImagesEEG,001,200526,
AFNE01.JPG,AFNE01.JPG,AFNE01.JPG,AFNE01.JPG,AFNE01.JPG,AFNE01.JPG,0,5,5,0,,,,,,,,,,,,,,,,,,,,,,,AFSA10.jpg,AFNE04.jpg,AFSA18.jpg,AFNE06.jpg,AFNE06.jpg,FN,3,num_4,16,num_4,0.266786965542,,,2017_Jun_01_1650,60.0203096579,FEMA4ImagesEEG,001,200526,
AFNE01.JPG,AFNE01.JPG,AFNE01.JPG,AFNE01.JPG,AFNE01.JPG,AFNE01.JPG,0,6,6,2,,,,,,,,,,,,,,,,,,,,,,,AFSA20.jpg,AFNE11.jpg,AFNE06.jpg,AFSA18.jpg,AFSA18.jpg,FS,4,num_4,32,num_2,0.383479521377,,,2017_Jun_01_1650,60.0203096579,FEMA4ImagesEEG,001,200526,
AFNE01.JPG,AFNE01.JPG,AFNE01.JPG,AFNE01.JPG,AFNE01.JPG,AFNE01.JPG,0,7,7,9,,,,,,,,,,,,,,,,,,,,,,,AFSA14.jpg,AFNE01.jpg,AFNE07.jpg,AFSA20.jpg,AFSA20.jpg,FS,4,num_4,32,num_6,0.333522035275,,,2017_Jun_01_1650,60.0203096579,FEMA4ImagesEEG,001,200526,
AFNE01.JPG,AFNE01.JPG,AFNE01.JPG,AFNE01.JPG,AFNE01.JPG,AFNE01.JPG,0,8,8,4,,,,,,,,,,,,,,,,,,,,,,,AFNE11.jpg,AFSA16.jpg,AFNE03.jpg,AFSA01.jpg,AFNE03.jpg,FN,3,num_2,32,num_8,0.433503721142,,,2017_Jun_01_1650,60.0203096579,FEMA4ImagesEEG,001,200526,
AFNE01.JPG,AFNE01.JPG,AFNE01.JPG,AFNE01.JPG,AFNE01.JPG,AFNE01.JPG,0,9,9,6,,,,,,,,,,,,,,,,,,,,,,,AFSA06.jpg,AFNE06.jpg,AFSA11.jpg,AFNE12.jpg,AFNE06.jpg,FN,3,num_6,32,num_4,0.316769469297,,,2017_Jun_01_1650,60.0203096579,FEMA4ImagesEEG,001,200526,
AFNE01.JPG,AFNE01.JPG,AFNE01.JPG,AFNE01.JPG,AFNE01.JPG,AFNE01.JPG,1,0,10,9,,,,,,,,,,,,,,,,,,,,,,,AFNE07.jpg,AFNE04.jpg,AFSA09.jpg,AFSA08.jpg,AFSA09.jpg,FS,4,num_2,16,num_2,0.333502790891,,,2017_Jun_01_1650,60.0203096579,FEMA4ImagesEEG,001,200526,
AFNE01.JPG,AFNE01.JPG,AFNE01.JPG,AFNE01.JPG,AFNE01.JPG,AFNE01.JPG,1,1,11,3,,,,,,,,,,,,,,,,,,,,,,,AFSA09.jpg,AFSA18.jpg,AFNE10.jpg,AFNE01.jpg,AFNE01.jpg,FN,3,num_4,32,num_6,0.350186718628,,,2017_Jun_01_1650,60.0203096579,FEMA4ImagesEEG,001,200526,
AFNE01.JPG,AFNE01.JPG,AFNE01.JPG,AFNE01.JPG,AFNE01.JPG,AFNE01.JPG,1,2,12,5,,,,,,,,,,,,,,,,,,,,,,,AFNE14.jpg,AFSA13.jpg,AFNE18.jpg,AFSA17.jpg,AFNE14.jpg,FN,3,num_8,16,num_8,0.450168725336,,,2017_Jun_01_1650,60.0203096579,FEMA4ImagesEEG,001,200526,
AFNE01.JPG,AFNE01.JPG,AFNE01.JPG,AFNE01.JPG,AFNE01.JPG,AFNE01.JPG,1,3,13,0,,,,,,,,,,,,,,,,,,,,,,,AFSA08.jpg,AFNE11.jpg,AFSA07.jpg,AFNE03.jpg,AFSA07.jpg,FS,4,num_2,32,num_4,0.350050725043,,,2017_Jun_01_1650,60.0203096579,FEMA4ImagesEEG,001,200526,
AFNE01.JPG,AFNE01.JPG,AFNE01.JPG,AFNE01.JPG,AFNE01.JPG,AFNE01.JPG,1,4,14,1,,,,,,,,,,,,,,,,,,,,,,,AFSA06.jpg,AFNE04.jpg,AFSA14.jpg,AFNE19.jpg,AFSA06.jpg,FS,4,num_8,32,num_2,0.28334740852,,,2017_Jun_01_1650,60.0203096579,FEMA4ImagesEEG,001,200526,
AFNE01.JPG,AFNE01.JPG,AFNE01.JPG,AFNE01.JPG,AFNE01.JPG,AFNE01.JPG,1,5,15,6,,,,,,,,,,,,,,,,,,,,,,,AFSA03.jpg,AFNE11.jpg,AFSA10.jpg,AFNE09.jpg,AFSA03.jpg,FS,4,num_8,32,num_6,0.266647443641,,,2017_Jun_01_1650,60.0203096579,FEMA4ImagesEEG,001,200526,
AFNE01.JPG,AFNE01.JPG,AFNE01.JPG,AFNE01.JPG,AFNE01.JPG,AFNE01.JPG,1,6,16,8,,,,,,,,,,,,,,,,,,,,,,,AFSA10.jpg,AFSA16.jpg,AFNE07.jpg,AFNE02.jpg,AFSA16.jpg,FS,4,num_6,32,num_8,0.300150330877,,,2017_Jun_01_1650,60.0203096579,FEMA4ImagesEEG,001,200526,
AFNE01.JPG,AFNE01.JPG,AFNE01.JPG,AFNE01.JPG,AFNE01.JPG,AFNE01.JPG,1,7,17,2,,,,,,,,,,,,,,,,,,,,,,,AFSA17.jpg,AFSA07.jpg,AFNE17.jpg,AFNE06.jpg,AFSA17.jpg,FS,4,num_8,32,num_4,0.300276060821,,,2017_Jun_01_1650,60.0203096579,FEMA4ImagesEEG,001,200526,
AFNE01.JPG,AFNE01.JPG,AFNE01.JPG,AFNE01.JPG,AFNE01.JPG,AFNE01.JPG,1,8,18,4,,,,,,,,,,,,,,,,,,,,,,,AFSA16.jpg,AFNE17.jpg,AFNE05.jpg,AFSA02.jpg,AFSA16.jpg,FS,4,num_8,32,num_2,0.300143274711,,,2017_Jun_01_1650,60.0203096579,FEMA4ImagesEEG,001,200526,
AFNE01.JPG,AFNE01.JPG,AFNE01.JPG,AFNE01.JPG,AFNE01.JPG,AFNE01.JPG,1,9,19,7,,,,,,,,,,,,,,,,,,,,,,,AFSA16.jpg,AFNE18.jpg,AFNE20.jpg,AFSA07.jpg,AFSA16.jpg,FS,4,num_8,32,num_6,0.250166544225,,,2017_Jun_01_1650,60.0203096579,FEMA4ImagesEEG,001,200526,
AFNE01.JPG,AFNE01.JPG,AFNE01.JPG,AFNE01.JPG,AFNE01.JPG,AFNE01.JPG,2,0,20,1,,,,,,,,,,,,,,,,,,,,,,,AFSA12.jpg,AFSA01.jpg,AFNE11.jpg,AFNE19.jpg,AFNE11.jpg,FN,3,num_2,32,num_8,0.333570787683,,,2017_Jun_01_1650,60.0203096579,FEMA4ImagesEEG,001,200526,
AFNE01.JPG,AFNE01.JPG,AFNE01.JPG,AFNE01.JPG,AFNE01.JPG,AFNE01.JPG,2,1,21,3,,,,,,,,,,,,,,,,,,,,,,,AFNE12.jpg,AFNE03.jpg,AFSA05.jpg,AFSA04.jpg,AFNE03.jpg,FN,3,num_6,32,num_4,0.316813410493,,,2017_Jun_01_1650,60.0203096579,FEMA4ImagesEEG,001,200526,
AFNE01.JPG,AFNE01.JPG,AFNE01.JPG,AFNE01.JPG,AFNE01.JPG,AFNE01.JPG,2,2,22,7,,,,,,,,,,,,,,,,,,,,,,,AFNE10.jpg,AFNE16.jpg,AFSA17.jpg,AFSA08.jpg,AFNE10.jpg,FN,3,num_8,32,num_2,0.300214799587,,,2017_Jun_01_1650,60.0203096579,FEMA4ImagesEEG,001,200526,
AFNE01.JPG,AFNE01.JPG,AFNE01.JPG,AFNE01.JPG,AFNE01.JPG,AFNE01.JPG,2,3,23,4,,,,,,,,,,,,,,,,,,,,,,,AFSA18.jpg,AFNE11.jpg,AFNE17.jpg,AFSA09.jpg,AFNE11.jpg,FN,3,num_6,16,num_6,0.283466082066,,,2017_Jun_01_1650,60.0203096579,FEMA4ImagesEEG,001,200526,
AFNE01.JPG,AFNE01.JPG,AFNE01.JPG,AFNE01.JPG,AFNE01.JPG,AFNE01.JPG,2,4,24,5,,,,,,,,,,,,,,,,,,,,,,,AFNE19.jpg,AFSA18.jpg,AFNE20.jpg,AFSA01.jpg,AFSA01.jpg,FS,4,num_4,32,num_8,0.333568221889,,,2017_Jun_01_1650,60.0203096579,FEMA4ImagesEEG,001,200526,
AFNE01.JPG,AFNE01.JPG,AFNE01.JPG,AFNE01.JPG,AFNE01.JPG,AFNE01.JPG,2,5,25,9,,,,,,,,,,,,,,,,,,,,,,,AFSA03.jpg,AFNE14.jpg,AFNE05.jpg,AFSA10.jpg,AFNE05.jpg,FN,3,num_2,32,num_4,0.300188498804,,,2017_Jun_01_1650,60.0203096579,FEMA4ImagesEEG,001,200526,
AFNE01.JPG,AFNE01.JPG,AFNE01.JPG,AFNE01.JPG,AFNE01.JPG,AFNE01.JPG,2,6,26,6,,,,,,,,,,,,,,,,,,,,,,,AFSA02.jpg,AFSA04.jpg,AFNE04.jpg,AFNE17.jpg,AFSA04.jpg,FS,4,num_6,32,num_2,0.283507137094,,,2017_Jun_01_1650,60.0203096579,FEMA4ImagesEEG,001,200526,
AFNE01.JPG,AFNE01.JPG,AFNE01.JPG,AFNE01.JPG,AFNE01.JPG,AFNE01.JPG,2,7,27,8,,,,,,,,,,,,,,,,,,,,,,,AFSA17.jpg,AFNE18.jpg,AFSA01.jpg,AFNE13.jpg,AFSA01.jpg,FS,4,num_2,32,num_6,0.250133507885,,,2017_Jun_01_1650,60.0203096579,FEMA4ImagesEEG,001,200526,
AFNE01.JPG,AFNE01.JPG,AFNE01.JPG,AFNE01.JPG,AFNE01.JPG,AFNE01.JPG,2,8,28,2,,,,,,,,,,,,,,,,,,,,,,,AFSA12.jpg,AFNE05.jpg,AFNE06.jpg,AFSA09.jpg,AFNE06.jpg,FN,3,num_2,32,num_8,0.316808278672,,,2017_Jun_01_1650,60.0203096579,FEMA4ImagesEEG,001,200526,
AFNE01.JPG,AFNE01.JPG,AFNE01.JPG,AFNE01.JPG,AFNE01.JPG,AFNE01.JPG,2,9,29,0,,,,,,,,,,,,,,,,,,,,,,,AFSA06.jpg,AFNE04.jpg,AFNE16.jpg,AFSA17.jpg,AFSA06.jpg,FS,4,num_8,32,num_4,0.433540606173,,,2017_Jun_01_1650,60.0203096579,FEMA4ImagesEEG,001,200526,
AFNE01.JPG,AFNE01.JPG,AFNE01.JPG,AFNE01.JPG,AFNE01.JPG,AFNE01.JPG,3,0,30,5,,,,,,,,,,,,,,,,,,,,,,,AFNE08.jpg,AFNE19.jpg,AFSA12.jpg,AFSA01.jpg,AFNE19.jpg,FN,3,num_6,32,num_2,0.30018561217,,,2017_Jun_01_1650,60.0203096579,FEMA4ImagesEEG,001,200526,
AFNE01.JPG,AFNE01.JPG,AFNE01.JPG,AFNE01.JPG,AFNE01.JPG,AFNE01.JPG,3,1,31,8,,,,,,,,,,,,,,,,,,,,,,,AFSA16.jpg,AFNE12.jpg,AFNE13.jpg,AFSA08.jpg,AFSA08.jpg,FS,4,num_4,32,num_6,0.350138286827,,,2017_Jun_01_1650,60.0203096579,FEMA4ImagesEEG,001,200526,
AFNE01.JPG,AFNE01.JPG,AFNE01.JPG,AFNE01.JPG,AFNE01.JPG,AFNE01.JPG,3,2,32,3,,,,,,,,,,,,,,,,,,,,,,,AFSA17.jpg,AFNE09.jpg,AFSA05.jpg,AFNE18.jpg,AFNE09.jpg,FN,3,num_6,32,num_8,0.366778273601,,,2017_Jun_01_1650,60.0203096579,FEMA4ImagesEEG,001,200526,
AFNE01.JPG,AFNE01.JPG,AFNE01.JPG,AFNE01.JPG,AFNE01.JPG,AFNE01.JPG,3,3,33,2,,,,,,,,,,,,,,,,,,,,,,,AFSA09.jpg,AFSA08.jpg,AFNE08.jpg,AFNE06.jpg,AFNE06.jpg,FN,3,num_4,16,num_4,0.300173744792,,,2017_Jun_01_1650,60.0203096579,FEMA4ImagesEEG,001,200526,
AFNE01.JPG,AFNE01.JPG,AFNE01.JPG,AFNE01.JPG,AFNE01.JPG,AFNE01.JPG,3,4,34,7,,,,,,,,,,,,,,,,,,,,,,,AFSA05.jpg,AFSA18.jpg,AFNE10.jpg,AFNE07.jpg,AFSA18.jpg,FS,4,num_6,32,num_2,0.383354111807,,,2017_Jun_01_1650,60.0203096579,FEMA4ImagesEEG,001,200526,
AFNE01.JPG,AFNE01.JPG,AFNE01.JPG,AFNE01.JPG,AFNE01.JPG,AFNE01.JPG,3,5,35,9,,,,,,,,,,,,,,,,,,,,,,,AFNE03.jpg,AFSA20.jpg,AFNE18.jpg,AFSA05.jpg,AFSA05.jpg,FS,4,num_4,32,num_6,0.266843094956,,,2017_Jun_01_1650,60.0203096579,FEMA4ImagesEEG,001,200526,
AFNE01.JPG,AFNE01.JPG,AFNE01.JPG,AFNE01.JPG,AFNE01.JPG,AFNE01.JPG,3,6,36,0,,,,,,,,,,,,,,,,,,,,,,,AFNE07.jpg,AFSA01.jpg,AFNE14.jpg,AFSA15.jpg,AFSA01.jpg,FS,4,num_6,32,num_8,0.950119170826,,,2017_Jun_01_1650,60.0203096579,FEMA4ImagesEEG,001,200526,
AFNE01.JPG,AFNE01.JPG,AFNE01.JPG,AFNE01.JPG,AFNE01.JPG,AFNE01.JPG,3,7,37,6,,,,,,,,,,,,,,,,,,,,,,,AFNE15.jpg,AFNE03.jpg,AFSA19.jpg,AFSA14.jpg,AFSA19.jpg,FS,4,num_2,32,num_4,0.383251795778,,,2017_Jun_01_1650,60.0203096579,FEMA4ImagesEEG,001,200526,
AFNE01.JPG,AFNE01.JPG,AFNE01.JPG,AFNE01.JPG,AFNE01.JPG,AFNE01.JPG,3,8,38,4,,,,,,,,,,,,,,,,,,,,,,,AFNE02.jpg,AFSA05.jpg,AFNE13.jpg,AFSA08.jpg,AFSA05.jpg,FS,4,num_6,32,num_2,0.333520752378,,,2017_Jun_01_1650,60.0203096579,FEMA4ImagesEEG,001,200526,
AFNE01.JPG,AFNE01.JPG,AFNE01.JPG,AFNE01.JPG,AFNE01.JPG,AFNE01.JPG,3,9,39,1,,,,,,,,,,,,,,,,,,,,,,,AFNE01.jpg,AFSA03.jpg,AFSA19.jpg,AFNE12.jpg,AFSA03.jpg,FS,4,num_6,16,num_6,0.416948409984,,,2017_Jun_01_1650,60.0203096579,FEMA4ImagesEEG,001,200526,
AFNE01.JPG,AFNE01.JPG,AFNE01.JPG,AFNE01.JPG,AFNE01.JPG,AFNE01.JPG,4,0,40,3,,,,,,,,,,,,,,,,,,,,,,,AFNE02.jpg,AFSA18.jpg,AFSA10.jpg,AFNE15.jpg,AFNE02.jpg,FN,3,num_8,16,num_8,0.400186863029,,,2017_Jun_01_1650,60.0203096579,FEMA4ImagesEEG,001,200526,
AFNE01.JPG,AFNE01.JPG,AFNE01.JPG,AFNE01.JPG,AFNE01.JPG,AFNE01.JPG,4,1,41,5,,,,,,,,,,,,,,,,,,,,,,,AFNE05.jpg,AFSA03.jpg,AFSA16.jpg,AFNE19.jpg,AFSA03.jpg,FS,4,num_6,32,num_4,0.316967365798,,,2017_Jun_01_1650,60.0203096579,FEMA4ImagesEEG,001,200526,
AFNE01.JPG,AFNE01.JPG,AFNE01.JPG,AFNE01.JPG,AFNE01.JPG,AFNE01.JPG,4,2,42,6,,,,,,,,,,,,,,,,,,,,,,,AFNE05.jpg,AFSA04.jpg,AFSA14.jpg,AFNE08.jpg,AFNE05.jpg,FN,3,num_8,32,num_2,0.333502149442,,,2017_Jun_01_1650,60.0203096579,FEMA4ImagesEEG,001,200526,
AFNE01.JPG,AFNE01.JPG,AFNE01.JPG,AFNE01.JPG,AFNE01.JPG,AFNE01.JPG,4,3,43,7,,,,,,,,,,,,,,,,,,,,,,,AFNE06.jpg,AFSA08.jpg,AFSA20.jpg,AFNE20.jpg,AFSA20.jpg,FS,4,num_2,32,num_6,0.300152576063,,,2017_Jun_01_1650,60.0203096579,FEMA4ImagesEEG,001,200526,
AFNE01.JPG,AFNE01.JPG,AFNE01.JPG,AFNE01.JPG,AFNE01.JPG,AFNE01.JPG,4,4,44,4,,,,,,,,,,,,,,,,,,,,,,,AFSA16.jpg,AFNE02.jpg,AFNE11.jpg,AFSA05.jpg,AFSA16.jpg,FS,4,num_8,16,num_8,0.366844025208,,,2017_Jun_01_1650,60.0203096579,FEMA4ImagesEEG,001,200526,
AFNE01.JPG,AFNE01.JPG,AFNE01.JPG,AFNE01.JPG,AFNE01.JPG,AFNE01.JPG,4,5,45,2,,,,,,,,,,,,,,,,,,,,,,,AFSA07.jpg,AFNE09.jpg,AFSA18.jpg,AFNE04.jpg,AFSA18.jpg,FS,4,num_2,32,num_6,0.316795128165,,,2017_Jun_01_1650,60.0203096579,FEMA4ImagesEEG,001,200526,
AFNE01.JPG,AFNE01.JPG,AFNE01.JPG,AFNE01.JPG,AFNE01.JPG,AFNE01.JPG,4,6,46,0,,,,,,,,,,,,,,,,,,,,,,,AFSA20.jpg,AFSA08.jpg,AFNE15.jpg,AFNE04.jpg,AFSA20.jpg,FS,4,num_8,32,num_2,0.283456139266,,,2017_Jun_01_1650,60.0203096579,FEMA4ImagesEEG,001,200526,
AFNE01.JPG,AFNE01.JPG,AFNE01.JPG,AFNE01.JPG,AFNE01.JPG,AFNE01.JPG,4,7,47,9,,,,,,,,,,,,,,,,,,,,,,,AFNE02.jpg,AFSA20.jpg,AFSA03.jpg,AFNE08.jpg,AFSA03.jpg,FS,4,num_2,32,num_4,0.300095163519,,,2017_Jun_01_1650,60.0203096579,FEMA4ImagesEEG,001,200526,
AFNE01.JPG,AFNE01.JPG,AFNE01.JPG,AFNE01.JPG,AFNE01.JPG,AFNE01.JPG,4,8,48,8,,,,,,,,,,,,,,,,,,,,,,,AFSA13.jpg,AFNE09.jpg,AFSA01.jpg,AFNE05.jpg,AFNE05.jpg,FN,3,num_4,32,num_8,0.333558599697,,,2017_Jun_01_1650,60.0203096579,FEMA4ImagesEEG,001,200526,
AFNE01.JPG,AFNE01.JPG,AFNE01.JPG,AFNE01.JPG,AFNE01.JPG,AFNE01.JPG,4,9,49,1,,,,,,,,,,,,,,,,,,,,,,,AFNE13.jpg,AFSA09.jpg,AFSA17.jpg,AFNE03.jpg,AFNE03.jpg,FN,3,num_4,32,num_6,0.283564549405,,,2017_Jun_01_1650,60.0203096579,FEMA4ImagesEEG,001,200526,
AFNE01.JPG,AFNE01.JPG,AFNE01.JPG,AFNE01.JPG,AFNE01.JPG,AFNE01.JPG,5,0,50,5,,,,,,,,,,,,,,,,,,,,,,,AFSA08.jpg,AFNE09.jpg,AFSA19.jpg,AFNE18.jpg,AFNE18.jpg,FN,3,num_4,32,num_2,0.283543701284,,,2017_Jun_01_1650,60.0203096579,FEMA4ImagesEEG,001,200526,
AFNE01.JPG,AFNE01.JPG,AFNE01.JPG,AFNE01.JPG,AFNE01.JPG,AFNE01.JPG,5,1,51,4,,,,,,,,,,,,,,,,,,,,,,,AFSA08.jpg,AFNE05.jpg,AFNE20.jpg,AFSA02.jpg,AFNE20.jpg,FN,3,num_2,32,num_4,0.350173889194,,,2017_Jun_01_1650,60.0203096579,FEMA4ImagesEEG,001,200526,
AFNE01.JPG,AFNE01.JPG,AFNE01.JPG,AFNE01.JPG,AFNE01.JPG,AFNE01.JPG,5,2,52,6,,,,,,,,,,,,,,,,,,,,,,,AFSA07.jpg,AFNE07.jpg,AFSA20.jpg,AFNE16.jpg,AFSA07.jpg,FS,4,num_8,16,num_8,0.38354655588,,,2017_Jun_01_1650,60.0203096579,FEMA4ImagesEEG,001,200526,
AFNE01.JPG,AFNE01.JPG,AFNE01.JPG,AFNE01.JPG,AFNE01.JPG,AFNE01.JPG,5,3,53,0,,,,,,,,,,,,,,,,,,,,,,,AFSA08.jpg,AFNE09.jpg,AFSA09.jpg,AFNE03.jpg,AFNE09.jpg,FN,3,num_6,16,num_6,0.316816938575,,,2017_Jun_01_1650,60.0203096579,FEMA4ImagesEEG,001,200526,
AFNE01.JPG,AFNE01.JPG,AFNE01.JPG,AFNE01.JPG,AFNE01.JPG,AFNE01.JPG,5,4,54,1,,,,,,,,,,,,,,,,,,,,,,,AFNE17.jpg,AFSA11.jpg,AFNE14.jpg,AFSA10.jpg,AFSA10.jpg,FS,4,num_4,32,num_2,0.316823032917,,,2017_Jun_01_1650,60.0203096579,FEMA4ImagesEEG,001,200526,
AFNE01.JPG,AFNE01.JPG,AFNE01.JPG,AFNE01.JPG,AFNE01.JPG,AFNE01.JPG,5,5,55,7,,,,,,,,,,,,,,,,,,,,,,,AFNE11.jpg,AFSA10.jpg,AFSA08.jpg,AFNE10.jpg,AFSA10.jpg,FS,4,num_6,32,num_4,0.416764946887,,,2017_Jun_01_1650,60.0203096579,FEMA4ImagesEEG,001,200526,
AFNE01.JPG,AFNE01.JPG,AFNE01.JPG,AFNE01.JPG,AFNE01.JPG,AFNE01.JPG,5,6,56,8,,,,,,,,,,,,,,,,,,,,,,,AFSA06.jpg,AFNE03.jpg,AFNE09.jpg,AFSA11.jpg,AFSA11.jpg,FS,4,num_4,32,num_8,1.93338520778,,,2017_Jun_01_1650,60.0203096579,FEMA4ImagesEEG,001,200526,
AFNE01.JPG,AFNE01.JPG,AFNE01.JPG,AFNE01.JPG,AFNE01.JPG,AFNE01.JPG,5,7,57,3,,,,,,,,,,,,,,,,,,,,,,,AFSA04.jpg,AFNE06.jpg,AFSA14.jpg,AFNE12.jpg,AFSA14.jpg,FS,4,num_2,32,num_6,0.366820611292,,,2017_Jun_01_1650,60.0203096579,FEMA4ImagesEEG,001,200526,
AFNE01.JPG,AFNE01.JPG,AFNE01.JPG,AFNE01.JPG,AFNE01.JPG,AFNE01.JPG,5,8,58,2,,,,,,,,,,,,,,,,,,,,,,,AFSA04.jpg,AFNE09.jpg,AFSA01.jpg,AFNE08.jpg,AFNE09.jpg,FN,3,num_6,32,num_2,0.866765604354,,,2017_Jun_01_1650,60.0203096579,FEMA4ImagesEEG,001,200526,
AFNE01.JPG,AFNE01.JPG,AFNE01.JPG,AFNE01.JPG,AFNE01.JPG,AFNE01.JPG,5,9,59,9,,,,,,,,,,,,,,,,,,,,,,,AFNE19.jpg,AFNE03.jpg,AFSA08.jpg,AFSA01.jpg,AFSA08.jpg,FS,4,num_2,32,num_4,0.300173744792,,,2017_Jun_01_1650,60.0203096579,FEMA4ImagesEEG,001,200526,
,,,,,,,,,,,,,,,,,,,,,,,,,,,,,,,,,,,,,,,,,,,space,2.74996527983,2017_Jun_01_1650,60.0203096579,FEMA4ImagesEEG,001,200526,
AFNE01.JPG,AFNE01.JPG,AFNE01.JPG,AFNE01.JPG,AFNE01.JPG,AFNE01.JPG,,,,,0,0,0,1,,,,,,,,,,,,,,,,,,,AMSA09.jpg,AMNE17.jpg,AMSA06.jpg,AMNE07.jpg,AMSA09.jpg,MS,2,num_8,16,num_8,0.567007859237,,,2017_Jun_01_1650,60.0203096579,FEMA4ImagesEEG,001,200526,
AFNE01.JPG,AFNE01.JPG,AFNE01.JPG,AFNE01.JPG,AFNE01.JPG,AFNE01.JPG,,,,,0,1,1,3,,,,,,,,,,,,,,,,,,,AMNE01.jpg,AMSA02.jpg,AMSA17.jpg,AMNE18.jpg,AMNE18.jpg,MN,1,num_4,32,num_2,0.26678279601,,,2017_Jun_01_1650,60.0203096579,FEMA4ImagesEEG,001,200526,
AFNE01.JPG,AFNE01.JPG,AFNE01.JPG,AFNE01.JPG,AFNE01.JPG,AFNE01.JPG,,,,,0,2,2,5,,,,,,,,,,,,,,,,,,,AMNE12.jpg,AMSA19.jpg,AMSA05.jpg,AMNE18.jpg,AMNE18.jpg,MN,1,num_4,16,num_4,0.283497835509,,,2017_Jun_01_1650,60.0203096579,FEMA4ImagesEEG,001,200526,
AFNE01.JPG,AFNE01.JPG,AFNE01.JPG,AFNE01.JPG,AFNE01.JPG,AFNE01.JPG,,,,,0,3,3,4,,,,,,,,,,,,,,,,,,,AMSA05.jpg,AMNE01.jpg,AMSA04.jpg,AMNE08.jpg,AMSA04.jpg,MS,2,num_2,32,num_6,0.316810203018,,,2017_Jun_01_1650,60.0203096579,FEMA4ImagesEEG,001,200526,
AFNE01.JPG,AFNE01.JPG,AFNE01.JPG,AFNE01.JPG,AFNE01.JPG,AFNE01.JPG,,,,,0,4,4,9,,,,,,,,,,,,,,,,,,,AMNE17.jpg,AMSA11.jpg,AMNE03.jpg,AMSA07.jpg,AMNE03.jpg,MN,1,num_2,32,num_8,0.366823818535,,,2017_Jun_01_1650,60.0203096579,FEMA4ImagesEEG,001,200526,
AFNE01.JPG,AFNE01.JPG,AFNE01.JPG,AFNE01.JPG,AFNE01.JPG,AFNE01.JPG,,,,,0,5,5,7,,,,,,,,,,,,,,,,,,,AMSA16.jpg,AMSA04.jpg,AMNE08.jpg,AMNE09.jpg,AMSA16.jpg,MS,2,num_8,32,num_2,0.233524633339,,,2017_Jun_01_1650,60.0203096579,FEMA4ImagesEEG,001,200526,
AFNE01.JPG,AFNE01.JPG,AFNE01.JPG,AFNE01.JPG,AFNE01.JPG,AFNE01.JPG,,,,,0,6,6,0,,,,,,,,,,,,,,,,,,,AMSA04.jpg,AMSA17.jpg,AMNE01.jpg,AMNE07.jpg,AMNE07.jpg,MN,1,num_4,32,num_6,0.266853358597,,,2017_Jun_01_1650,60.0203096579,FEMA4ImagesEEG,001,200526,
AFNE01.JPG,AFNE01.JPG,AFNE01.JPG,AFNE01.JPG,AFNE01.JPG,AFNE01.JPG,,,,,0,7,7,6,,,,,,,,,,,,,,,,,,,AMSA06.jpg,AMNE12.jpg,AMNE11.jpg,AMSA12.jpg,AMSA12.jpg,MS,2,num_4,16,num_4,0.266835076502,,,2017_Jun_01_1650,60.0203096579,FEMA4ImagesEEG,001,200526,
AFNE01.JPG,AFNE01.JPG,AFNE01.JPG,AFNE01.JPG,AFNE01.JPG,AFNE01.JPG,,,,,0,8,8,8,,,,,,,,,,,,,,,,,,,AMNE13.jpg,AMSA17.jpg,AMNE09.jpg,AMSA15.jpg,AMNE09.jpg,MN,1,num_2,32,num_8,0.350144380936,,,2017_Jun_01_1650,60.0203096579,FEMA4ImagesEEG,001,200526,
AFNE01.JPG,AFNE01.JPG,AFNE01.JPG,AFNE01.JPG,AFNE01.JPG,AFNE01.JPG,,,,,0,9,9,2,,,,,,,,,,,,,,,,,,,AMSA15.jpg,AMSA04.jpg,AMNE01.jpg,AMNE03.jpg,AMNE03.jpg,MN,1,num_4,32,num_2,0.33348098048,,,2017_Jun_01_1650,60.0203096579,FEMA4ImagesEEG,001,200526,
AFNE01.JPG,AFNE01.JPG,AFNE01.JPG,AFNE01.JPG,AFNE01.JPG,AFNE01.JPG,,,,,1,0,10,3,,,,,,,,,,,,,,,,,,,AMSA12.jpg,AMSA09.jpg,AMNE01.jpg,AMNE13.jpg,AMNE01.jpg,MN,1,num_2,32,num_6,0.283325277269,,,2017_Jun_01_1650,60.0203096579,FEMA4ImagesEEG,001,200526,
AFNE01.JPG,AFNE01.JPG,AFNE01.JPG,AFNE01.JPG,AFNE01.JPG,AFNE01.JPG,,,,,1,1,11,2,,,,,,,,,,,,,,,,,,,AMNE06.jpg,AMSA05.jpg,AMNE02.jpg,AMSA04.jpg,AMNE02.jpg,MN,1,num_2,32,num_4,0.250180335948,,,2017_Jun_01_1650,60.0203096579,FEMA4ImagesEEG,001,200526,
AFNE01.JPG,AFNE01.JPG,AFNE01.JPG,AFNE01.JPG,AFNE01.JPG,AFNE01.JPG,,,,,1,2,12,1,,,,,,,,,,,,,,,,,,,AMSA14.jpg,AMSA16.jpg,AMNE09.jpg,AMNE13.jpg,AMNE09.jpg,MN,1,num_2,32,num_8,0.283482119208,,,2017_Jun_01_1650,60.0203096579,FEMA4ImagesEEG,001,200526,
AFNE01.JPG,AFNE01.JPG,AFNE01.JPG,AFNE01.JPG,AFNE01.JPG,AFNE01.JPG,,,,,1,3,13,9,,,,,,,,,,,,,,,,,,,AMNE15.jpg,AMNE12.jpg,AMSA06.jpg,AMSA08.jpg,AMNE15.jpg,MN,1,num_8,32,num_2,0.25018995814,,,2017_Jun_01_1650,60.0203096579,FEMA4ImagesEEG,001,200526,
AFNE01.JPG,AFNE01.JPG,AFNE01.JPG,AFNE01.JPG,AFNE01.JPG,AFNE01.JPG,,,,,1,4,14,0,,,,,,,,,,,,,,,,,,,AMNE05.jpg,AMNE20.jpg,AMSA06.jpg,AMSA01.jpg,AMSA06.jpg,MS,2,num_2,32,num_6,0.200312336441,,,2017_Jun_01_1650,60.0203096579,FEMA4ImagesEEG,001,200526,
AFNE01.JPG,AFNE01.JPG,AFNE01.JPG,AFNE01.JPG,AFNE01.JPG,AFNE01.JPG,,,,,1,5,15,8,,,,,,,,,,,,,,,,,,,AMNE12.jpg,AMSA19.jpg,AMNE05.jpg,AMSA11.jpg,AMSA19.jpg,MS,2,num_6,32,num_4,0.283535041381,,,2017_Jun_01_1650,60.0203096579,FEMA4ImagesEEG,001,200526,
AFNE01.JPG,AFNE01.JPG,AFNE01.JPG,AFNE01.JPG,AFNE01.JPG,AFNE01.JPG,,,,,1,6,16,6,,,,,,,,,,,,,,,,,,,AMSA20.jpg,AMSA13.jpg,AMNE04.jpg,AMNE15.jpg,AMNE15.jpg,MN,1,num_4,32,num_8,0.500165341422,,,2017_Jun_01_1650,60.0203096579,FEMA4ImagesEEG,001,200526,
AFNE01.JPG,AFNE01.JPG,AFNE01.JPG,AFNE01.JPG,AFNE01.JPG,AFNE01.JPG,,,,,1,7,17,7,,,,,,,,,,,,,,,,,,,AMNE11.jpg,AMNE01.jpg,AMSA15.jpg,AMSA01.jpg,AMSA15.jpg,MS,2,num_2,16,num_2,0.266875489615,,,2017_Jun_01_1650,60.0203096579,FEMA4ImagesEEG,001,200526,
AFNE01.JPG,AFNE01.JPG,AFNE01.JPG,AFNE01.JPG,AFNE01.JPG,AFNE01.JPG,,,,,1,8,18,4,,,,,,,,,,,,,,,,,,,AMSA14.jpg,AMNE18.jpg,AMSA03.jpg,AMNE19.jpg,AMNE19.jpg,MN,1,num_4,32,num_6,0.350011915667,,,2017_Jun_01_1650,60.0203096579,FEMA4ImagesEEG,001,200526,
AFNE01.JPG,AFNE01.JPG,AFNE01.JPG,AFNE01.JPG,AFNE01.JPG,AFNE01.JPG,,,,,1,9,19,5,,,,,,,,,,,,,,,,,,,AMSA12.jpg,AMNE14.jpg,AMSA13.jpg,AMNE20.jpg,AMSA13.jpg,MS,2,num_2,32,num_4,0.25018995814,,,2017_Jun_01_1650,60.0203096579,FEMA4ImagesEEG,001,200526,
AFNE01.JPG,AFNE01.JPG,AFNE01.JPG,AFNE01.JPG,AFNE01.JPG,AFNE01.JPG,,,,,2,0,20,2,,,,,,,,,,,,,,,,,,,AMSA12.jpg,AMNE20.jpg,AMSA10.jpg,AMNE15.jpg,AMNE15.jpg,MN,1,num_4,32,num_8,0.350144381169,,,2017_Jun_01_1650,60.0203096579,FEMA4ImagesEEG,001,200526,
AFNE01.JPG,AFNE01.JPG,AFNE01.JPG,AFNE01.JPG,AFNE01.JPG,AFNE01.JPG,,,,,2,1,21,9,,,,,,,,,,,,,,,,,,,AMSA05.jpg,AMSA16.jpg,AMNE05.jpg,AMNE14.jpg,AMNE05.jpg,MN,1,num_2,16,num_2,0.316810523858,,,2017_Jun_01_1650,60.0203096579,FEMA4ImagesEEG,001,200526,
AFNE01.JPG,AFNE01.JPG,AFNE01.JPG,AFNE01.JPG,AFNE01.JPG,AFNE01.JPG,,,,,2,2,22,7,,,,,,,,,,,,,,,,,,,AMNE05.jpg,AMSA06.jpg,AMSA20.jpg,AMNE02.jpg,AMNE05.jpg,MN,1,num_8,32,num_6,0.950153810903,,,2017_Jun_01_1650,60.0203096579,FEMA4ImagesEEG,001,200526,
AFNE01.JPG,AFNE01.JPG,AFNE01.JPG,AFNE01.JPG,AFNE01.JPG,AFNE01.JPG,,,,,2,3,23,4,,,,,,,,,,,,,,,,,,,AMNE16.jpg,AMNE06.jpg,AMSA12.jpg,AMSA11.jpg,AMNE06.jpg,MN,1,num_6,32,num_4,0.283473459305,,,2017_Jun_01_1650,60.0203096579,FEMA4ImagesEEG,001,200526,
AFNE01.JPG,AFNE01.JPG,AFNE01.JPG,AFNE01.JPG,AFNE01.JPG,AFNE01.JPG,,,,,2,4,24,8,,,,,,,,,,,,,,,,,,,AMNE14.jpg,AMSA08.jpg,AMNE17.jpg,AMSA12.jpg,AMSA08.jpg,MS,2,num_6,32,num_8,0.26680268161,,,2017_Jun_01_1650,60.0203096579,FEMA4ImagesEEG,001,200526,
AFNE01.JPG,AFNE01.JPG,AFNE01.JPG,AFNE01.JPG,AFNE01.JPG,AFNE01.JPG,,,,,2,5,25,5,,,,,,,,,,,,,,,,,,,AMSA03.jpg,AMNE20.jpg,AMSA18.jpg,AMNE12.jpg,AMSA18.jpg,MS,2,num_2,16,num_2,0.283470572438,,,2017_Jun_01_1650,60.0203096579,FEMA4ImagesEEG,001,200526,
AFNE01.JPG,AFNE01.JPG,AFNE01.JPG,AFNE01.JPG,AFNE01.JPG,AFNE01.JPG,,,,,2,6,26,3,,,,,,,,,,,,,,,,,,,AMSA20.jpg,AMNE19.jpg,AMSA04.jpg,AMNE03.jpg,AMNE03.jpg,MN,1,num_4,32,num_6,0.250193807064,,,2017_Jun_01_1650,60.0203096579,FEMA4ImagesEEG,001,200526,
AFNE01.JPG,AFNE01.JPG,AFNE01.JPG,AFNE01.JPG,AFNE01.JPG,AFNE01.JPG,,,,,2,7,27,1,,,,,,,,,,,,,,,,,,,AMNE01.jpg,AMNE02.jpg,AMSA13.jpg,AMSA15.jpg,AMNE01.jpg,MN,1,num_8,32,num_4,0.316803146852,,,2017_Jun_01_1650,60.0203096579,FEMA4ImagesEEG,001,200526,
AFNE01.JPG,AFNE01.JPG,AFNE01.JPG,AFNE01.JPG,AFNE01.JPG,AFNE01.JPG,,,,,2,8,28,6,,,,,,,,,,,,,,,,,,,AMNE16.jpg,AMSA08.jpg,AMSA16.jpg,AMNE12.jpg,AMSA16.jpg,MS,2,num_2,32,num_8,0.600172686391,,,2017_Jun_01_1650,60.0203096579,FEMA4ImagesEEG,001,200526,
AFNE01.JPG,AFNE01.JPG,AFNE01.JPG,AFNE01.JPG,AFNE01.JPG,AFNE01.JPG,,,,,2,9,29,0,,,,,,,,,,,,,,,,,,,AMSA15.jpg,AMNE12.jpg,AMNE19.jpg,AMSA10.jpg,AMSA10.jpg,MS,2,num_4,32,num_2,0.283515796764,,,2017_Jun_01_1650,60.0203096579,FEMA4ImagesEEG,001,200526,
AFNE01.JPG,AFNE01.JPG,AFNE01.JPG,AFNE01.JPG,AFNE01.JPG,AFNE01.JPG,,,,,3,0,30,1,,,,,,,,,,,,,,,,,,,AMNE03.jpg,AMSA15.jpg,AMNE18.jpg,AMSA16.jpg,AMSA16.jpg,MS,2,num_4,32,num_6,0.28365371516,,,2017_Jun_01_1650,60.0203096579,FEMA4ImagesEEG,001,200526,
AFNE01.JPG,AFNE01.JPG,AFNE01.JPG,AFNE01.JPG,AFNE01.JPG,AFNE01.JPG,,,,,3,1,31,8,,,,,,,,,,,,,,,,,,,AMSA10.jpg,AMNE01.jpg,AMNE02.jpg,AMSA19.jpg,AMSA10.jpg,MS,2,num_8,32,num_4,0.250156601425,,,2017_Jun_01_1650,60.0203096579,FEMA4ImagesEEG,001,200526,
AFNE01.JPG,AFNE01.JPG,AFNE01.JPG,AFNE01.JPG,AFNE01.JPG,AFNE01.JPG,,,,,3,2,32,0,,,,,,,,,,,,,,,,,,,AMSA20.jpg,AMNE09.jpg,AMNE12.jpg,AMSA18.jpg,AMNE12.jpg,MN,1,num_2,32,num_8,0.333536147838,,,2017_Jun_01_1650,60.0203096579,FEMA4ImagesEEG,001,200526,
AFNE01.JPG,AFNE01.JPG,AFNE01.JPG,AFNE01.JPG,AFNE01.JPG,AFNE01.JPG,,,,,3,3,33,3,,,,,,,,,,,,,,,,,,,AMSA09.jpg,AMSA16.jpg,AMNE13.jpg,AMNE18.jpg,AMSA09.jpg,MS,2,num_8,32,num_2,0.333521072986,,,2017_Jun_01_1650,60.0203096579,FEMA4ImagesEEG,001,200526,
AFNE01.JPG,AFNE01.JPG,AFNE01.JPG,AFNE01.JPG,AFNE01.JPG,AFNE01.JPG,,,,,3,4,34,4,,,,,,,,,,,,,,,,,,,AMSA08.jpg,AMSA06.jpg,AMNE02.jpg,AMNE16.jpg,AMNE16.jpg,MN,1,num_4,32,num_6,0.316805712879,,,2017_Jun_01_1650,60.0203096579,FEMA4ImagesEEG,001,200526,
AFNE01.JPG,AFNE01.JPG,AFNE01.JPG,AFNE01.JPG,AFNE01.JPG,AFNE01.JPG,,,,,3,5,35,9,,,,,,,,,,,,,,,,,,,AMSA14.jpg,AMSA10.jpg,AMNE11.jpg,AMNE09.jpg,AMSA10.jpg,MS,2,num_6,32,num_4,0.266797550023,,,2017_Jun_01_1650,60.0203096579,FEMA4ImagesEEG,001,200526,
AFNE01.JPG,AFNE01.JPG,AFNE01.JPG,AFNE01.JPG,AFNE01.JPG,AFNE01.JPG,,,,,3,6,36,7,,,,,,,,,,,,,,,,,,,AMNE11.jpg,AMNE20.jpg,AMSA03.jpg,AMSA06.jpg,AMNE11.jpg,MN,1,num_8,16,num_8,0.316852540709,,,2017_Jun_01_1650,60.0203096579,FEMA4ImagesEEG,001,200526,
AFNE01.JPG,AFNE01.JPG,AFNE01.JPG,AFNE01.JPG,AFNE01.JPG,AFNE01.JPG,,,,,3,7,37,2,,,,,,,,,,,,,,,,,,,AMSA19.jpg,AMNE10.jpg,AMNE07.jpg,AMSA09.jpg,AMNE07.jpg,MN,1,num_2,16,num_2,0.533485086169,,,2017_Jun_01_1650,60.0203096579,FEMA4ImagesEEG,001,200526,
AFNE01.JPG,AFNE01.JPG,AFNE01.JPG,AFNE01.JPG,AFNE01.JPG,AFNE01.JPG,,,,,3,8,38,6,,,,,,,,,,,,,,,,,,,AMNE07.jpg,AMNE20.jpg,AMSA03.jpg,AMSA15.jpg,AMSA15.jpg,MS,2,num_4,32,num_6,0.383485615253,,,2017_Jun_01_1650,60.0203096579,FEMA4ImagesEEG,001,200526,
AFNE01.JPG,AFNE01.JPG,AFNE01.JPG,AFNE01.JPG,AFNE01.JPG,AFNE01.JPG,,,,,3,9,39,5,,,,,,,,,,,,,,,,,,,AMNE14.jpg,AMSA05.jpg,AMNE10.jpg,AMSA09.jpg,AMSA05.jpg,MS,2,num_6,32,num_4,0.316866974114,,,2017_Jun_01_1650,60.0203096579,FEMA4ImagesEEG,001,200526,
AFNE01.JPG,AFNE01.JPG,AFNE01.JPG,AFNE01.JPG,AFNE01.JPG,AFNE01.JPG,,,,,4,0,40,8,,,,,,,,,,,,,,,,,,,AMSA09.jpg,AMNE18.jpg,AMNE03.jpg,AMSA14.jpg,AMNE18.jpg,MN,1,num_6,32,num_8,0.350180945592,,,2017_Jun_01_1650,60.0203096579,FEMA4ImagesEEG,001,200526,
AFNE01.JPG,AFNE01.JPG,AFNE01.JPG,AFNE01.JPG,AFNE01.JPG,AFNE01.JPG,,,,,4,1,41,6,,,,,,,,,,,,,,,,,,,AMSA03.jpg,AMNE17.jpg,AMSA17.jpg,AMNE13.jpg,AMSA17.jpg,MS,2,num_2,16,num_2,0.283591491636,,,2017_Jun_01_1650,60.0203096579,FEMA4ImagesEEG,001,200526,
AFNE01.JPG,AFNE01.JPG,AFNE01.JPG,AFNE01.JPG,AFNE01.JPG,AFNE01.JPG,,,,,4,2,42,1,,,,,,,,,,,,,,,,,,,AMSA06.jpg,AMNE18.jpg,AMSA05.jpg,AMNE02.jpg,AMSA05.jpg,MS,2,num_2,32,num_6,0.48355293856,,,2017_Jun_01_1650,60.0203096579,FEMA4ImagesEEG,001,200526,
AFNE01.JPG,AFNE01.JPG,AFNE01.JPG,AFNE01.JPG,AFNE01.JPG,AFNE01.JPG,,,,,4,3,43,7,,,,,,,,,,,,,,,,,,,AMNE14.jpg,AMNE17.jpg,AMSA05.jpg,AMSA12.jpg,AMSA05.jpg,MS,2,num_2,32,num_4,0.300219289726,,,2017_Jun_01_1650,60.0203096579,FEMA4ImagesEEG,001,200526,
AFNE01.JPG,AFNE01.JPG,AFNE01.JPG,AFNE01.JPG,AFNE01.JPG,AFNE01.JPG,,,,,4,4,44,0,,,,,,,,,,,,,,,,,,,AMNE20.jpg,AMSA16.jpg,AMSA18.jpg,AMNE14.jpg,AMSA16.jpg,MS,2,num_6,32,num_8,0.38369569974,,,2017_Jun_01_1650,60.0203096579,FEMA4ImagesEEG,001,200526,
AFNE01.JPG,AFNE01.JPG,AFNE01.JPG,AFNE01.JPG,AFNE01.JPG,AFNE01.JPG,,,,,4,5,45,9,,,,,,,,,,,,,,,,,,,AMNE09.jpg,AMNE06.jpg,AMSA10.jpg,AMSA01.jpg,AMNE09.jpg,MN,1,num_8,32,num_2,0.31691091531,,,2017_Jun_01_1650,60.0203096579,FEMA4ImagesEEG,001,200526,
AFNE01.JPG,AFNE01.JPG,AFNE01.JPG,AFNE01.JPG,AFNE01.JPG,AFNE01.JPG,,,,,4,6,46,5,,,,,,,,,,,,,,,,,,,AMNE15.jpg,AMSA08.jpg,AMSA20.jpg,AMNE18.jpg,AMNE18.jpg,MN,1,num_4,32,num_6,0.350199548295,,,2017_Jun_01_1650,60.0203096579,FEMA4ImagesEEG,001,200526,
AFNE01.JPG,AFNE01.JPG,AFNE01.JPG,AFNE01.JPG,AFNE01.JPG,AFNE01.JPG,,,,,4,7,47,4,,,,,,,,,,,,,,,,,,,AMSA15.jpg,AMNE13.jpg,AMSA04.jpg,AMNE14.jpg,AMNE14.jpg,MN,1,num_4,16,num_4,0.350258564344,,,2017_Jun_01_1650,60.0203096579,FEMA4ImagesEEG,001,200526,
AFNE01.JPG,AFNE01.JPG,AFNE01.JPG,AFNE01.JPG,AFNE01.JPG,AFNE01.JPG,,,,,4,8,48,2,,,,,,,,,,,,,,,,,,,AMNE13.jpg,AMSA05.jpg,AMSA10.jpg,AMNE01.jpg,AMSA10.jpg,MS,2,num_2,32,num_8,0.333501507761,,,2017_Jun_01_1650,60.0203096579,FEMA4ImagesEEG,001,200526,
AFNE01.JPG,AFNE01.JPG,AFNE01.JPG,AFNE01.JPG,AFNE01.JPG,AFNE01.JPG,,,,,4,9,49,3,,,,,,,,,,,,,,,,,,,AMSA08.jpg,AMNE07.jpg,AMSA07.jpg,AMNE01.jpg,AMSA08.jpg,MS,2,num_8,32,num_2,0.283510664944,,,2017_Jun_01_1650,60.0203096579,FEMA4ImagesEEG,001,200526,
AFNE01.JPG,AFNE01.JPG,AFNE01.JPG,AFNE01.JPG,AFNE01.JPG,AFNE01.JPG,,,,,5,0,50,2,,,,,,,,,,,,,,,,,,,AMSA13.jpg,AMNE16.jpg,AMNE04.jpg,AMSA15.jpg,AMNE04.jpg,MN,1,num_2,32,num_6,0.300159632228,,,2017_Jun_01_1650,60.0203096579,FEMA4ImagesEEG,001,200526,
AFNE01.JPG,AFNE01.JPG,AFNE01.JPG,AFNE01.JPG,AFNE01.JPG,AFNE01.JPG,,,,,5,1,51,4,,,,,,,,,,,,,,,,,,,AMSA14.jpg,AMNE20.jpg,AMNE13.jpg,AMSA02.jpg,AMSA02.jpg,MS,2,num_4,16,num_4,0.300155141857,,,2017_Jun_01_1650,60.0203096579,FEMA4ImagesEEG,001,200526,
AFNE01.JPG,AFNE01.JPG,AFNE01.JPG,AFNE01.JPG,AFNE01.JPG,AFNE01.JPG,,,,,5,2,52,5,,,,,,,,,,,,,,,,,,,AMNE06.jpg,AMSA19.jpg,AMNE18.jpg,AMSA17.jpg,AMNE06.jpg,MN,1,num_8,16,num_8,0.300293701701,,,2017_Jun_01_1650,60.0203096579,FEMA4ImagesEEG,001,200526,
AFNE01.JPG,AFNE01.JPG,AFNE01.JPG,AFNE01.JPG,AFNE01.JPG,AFNE01.JPG,,,,,5,3,53,1,,,,,,,,,,,,,,,,,,,AMNE12.jpg,AMSA19.jpg,AMNE06.jpg,AMSA12.jpg,AMNE12.jpg,MN,1,num_8,32,num_2,0.333570146468,,,2017_Jun_01_1650,60.0203096579,FEMA4ImagesEEG,001,200526,
AFNE01.JPG,AFNE01.JPG,AFNE01.JPG,AFNE01.JPG,AFNE01.JPG,AFNE01.JPG,,,,,5,4,54,7,,,,,,,,,,,,,,,,,,,AMNE11.jpg,AMNE12.jpg,AMSA12.jpg,AMSA20.jpg,AMSA12.jpg,MS,2,num_2,32,num_6,0.283538248623,,,2017_Jun_01_1650,60.0203096579,FEMA4ImagesEEG,001,200526,
AFNE01.JPG,AFNE01.JPG,AFNE01.JPG,AFNE01.JPG,AFNE01.JPG,AFNE01.JPG,,,,,5,5,55,0,,,,,,,,,,,,,,,,,,,AMSA08.jpg,AMSA04.jpg,AMNE05.jpg,AMNE06.jpg,AMSA04.jpg,MS,2,num_6,32,num_4,0.250154035399,,,2017_Jun_01_1650,60.0203096579,FEMA4ImagesEEG,001,200526,
AFNE01.JPG,AFNE01.JPG,AFNE01.JPG,AFNE01.JPG,AFNE01.JPG,AFNE01.JPG,,,,,5,6,56,8,,,,,,,,,,,,,,,,,,,AMNE11.jpg,AMNE12.jpg,AMSA17.jpg,AMSA14.jpg,AMSA17.jpg,MS,2,num_2,32,num_8,0.316933046561,,,2017_Jun_01_1650,60.0203096579,FEMA4ImagesEEG,001,200526,
AFNE01.JPG,AFNE01.JPG,AFNE01.JPG,AFNE01.JPG,AFNE01.JPG,AFNE01.JPG,,,,,5,7,57,3,,,,,,,,,,,,,,,,,,,AMSA09.jpg,AMNE04.jpg,AMNE07.jpg,AMSA11.jpg,AMNE07.jpg,MN,1,num_2,16,num_2,0.383770111715,,,2017_Jun_01_1650,60.0203096579,FEMA4ImagesEEG,001,200526,
AFNE01.JPG,AFNE01.JPG,AFNE01.JPG,AFNE01.JPG,AFNE01.JPG,AFNE01.JPG,,,,,5,8,58,9,,,,,,,,,,,,,,,,,,,AMNE07.jpg,AMSA16.jpg,AMSA15.jpg,AMNE16.jpg,AMNE16.jpg,MN,1,num_4,32,num_8,0.916758050909,,,2017_Jun_01_1650,60.0203096579,FEMA4ImagesEEG,001,200526,
AFNE01.JPG,AFNE01.JPG,AFNE01.JPG,AFNE01.JPG,AFNE01.JPG,AFNE01.JPG,,,,,5,9,59,6,,,,,,,,,,,,,,,,,,,AMSA09.jpg,AMNE14.jpg,AMSA07.jpg,AMNE05.jpg,AMNE05.jpg,MN,1,num_4,32,num_6,0.800139906583,,,2017_Jun_01_1650,60.0203096579,FEMA4ImagesEEG,001,200526,
,,,,,,,,,,,,,,,,,,,,,,,,,,,,,,,,,,,,,,,,,,,space,0.833457406377,2017_Jun_01_1650,60.0203096579,FEMA4ImagesEEG,001,200526,
AFNE01.JPG,AFNE01.JPG,AFNE01.JPG,AFNE01.JPG,AFNE01.JPG,AFNE01.JPG,,,,,,,,,0,0,0,9,,,,,,,,,,,,,,,AFSA02.jpg,AFNE08.jpg,AFNE15.jpg,AFSA09.jpg,AFNE08.jpg,FN,3,num_6,32,num_8,0.433519437211,,,2017_Jun_01_1650,60.0203096579,FEMA4ImagesEEG,001,200526,
AFNE01.JPG,AFNE01.JPG,AFNE01.JPG,AFNE01.JPG,AFNE01.JPG,AFNE01.JPG,,,,,,,,,0,1,1,0,,,,,,,,,,,,,,,AFNE02.jpg,AFSA07.jpg,AFNE19.jpg,AFSA18.jpg,AFSA07.jpg,FS,4,num_6,32,num_4,0.233521746472,,,2017_Jun_01_1650,60.0203096579,FEMA4ImagesEEG,001,200526,
AFNE01.JPG,AFNE01.JPG,AFNE01.JPG,AFNE01.JPG,AFNE01.JPG,AFNE01.JPG,,,,,,,,,0,2,2,4,,,,,,,,,,,,,,,AFSA16.jpg,AFNE09.jpg,AFNE10.jpg,AFSA19.jpg,AFSA19.jpg,FS,4,num_4,32,num_2,0.233524633339,,,2017_Jun_01_1650,60.0203096579,FEMA4ImagesEEG,001,200526,
AFNE01.JPG,AFNE01.JPG,AFNE01.JPG,AFNE01.JPG,AFNE01.JPG,AFNE01.JPG,,,,,,,,,0,3,3,3,,,,,,,,,,,,,,,AFNE02.jpg,AFSA04.jpg,AFNE14.jpg,AFSA06.jpg,AFNE02.jpg,FN,3,num_8,32,num_6,0.266885111807,,,2017_Jun_01_1650,60.0203096579,FEMA4ImagesEEG,001,200526,
AFNE01.JPG,AFNE01.JPG,AFNE01.JPG,AFNE01.JPG,AFNE01.JPG,AFNE01.JPG,,,,,,,,,0,4,4,5,,,,,,,,,,,,,,,AFSA02.jpg,AFNE14.jpg,AFSA13.jpg,AFNE12.jpg,AFNE12.jpg,FN,3,num_4,32,num_8,0.0168468635529,,,2017_Jun_01_1650,60.0203096579,FEMA4ImagesEEG,001,200526,
AFNE01.JPG,AFNE01.JPG,AFNE01.JPG,AFNE01.JPG,AFNE01.JPG,AFNE01.JPG,,,,,,,,,0,5,5,7,,,,,,,,,,,,,,,AFSA12.jpg,AFNE13.jpg,AFSA18.jpg,AFNE02.jpg,AFNE02.jpg,FN,3,num_4,16,num_4,0.450165838469,,,2017_Jun_01_1650,60.0203096579,FEMA4ImagesEEG,001,200526,
AFNE01.JPG,AFNE01.JPG,AFNE01.JPG,AFNE01.JPG,AFNE01.JPG,AFNE01.JPG,,,,,,,,,0,6,6,6,,,,,,,,,,,,,,,AFSA06.jpg,AFSA20.jpg,AFNE10.jpg,AFNE11.jpg,AFNE11.jpg,FN,3,num_4,32,num_2,0.250165581936,,,2017_Jun_01_1650,60.0203096579,FEMA4ImagesEEG,001,200526,
AFNE01.JPG,AFNE01.JPG,AFNE01.JPG,AFNE01.JPG,AFNE01.JPG,AFNE01.JPG,,,,,,,,,0,7,7,1,,,,,,,,,,,,,,,AFSA17.jpg,AFNE17.jpg,AFNE07.jpg,AFSA16.jpg,AFSA16.jpg,FS,4,num_4,32,num_6,0.250137677416,,,2017_Jun_01_1650,60.0203096579,FEMA4ImagesEEG,001,200526,
AFNE01.JPG,AFNE01.JPG,AFNE01.JPG,AFNE01.JPG,AFNE01.JPG,AFNE01.JPG,,,,,,,,,0,8,8,2,,,,,,,,,,,,,,,AFNE20.jpg,AFSA09.jpg,AFNE16.jpg,AFSA19.jpg,AFSA19.jpg,FS,4,num_4,32,num_8,0.350264017005,,,2017_Jun_01_1650,60.0203096579,FEMA4ImagesEEG,001,200526,
AFNE01.JPG,AFNE01.JPG,AFNE01.JPG,AFNE01.JPG,AFNE01.JPG,AFNE01.JPG,,,,,,,,,0,9,9,8,,,,,,,,,,,,,,,AFNE03.jpg,AFNE09.jpg,AFSA15.jpg,AFSA06.jpg,AFNE09.jpg,FN,3,num_6,32,num_4,0.250154356007,,,2017_Jun_01_1650,60.0203096579,FEMA4ImagesEEG,001,200526,
AFNE01.JPG,AFNE01.JPG,AFNE01.JPG,AFNE01.JPG,AFNE01.JPG,AFNE01.JPG,,,,,,,,,1,0,10,8,,,,,,,,,,,,,,,AFNE14.jpg,AFSA20.jpg,AFSA10.jpg,AFNE01.jpg,AFSA20.jpg,FS,4,num_6,32,num_2,0.26683700108,,,2017_Jun_01_1650,60.0203096579,FEMA4ImagesEEG,001,200526,
AFNE01.JPG,AFNE01.JPG,AFNE01.JPG,AFNE01.JPG,AFNE01.JPG,AFNE01.JPG,,,,,,,,,1,1,11,2,,,,,,,,,,,,,,,AFNE05.jpg,AFSA02.jpg,AFSA04.jpg,AFNE02.jpg,AFNE05.jpg,FN,3,num_8,32,num_6,0.316807316616,,,2017_Jun_01_1650,60.0203096579,FEMA4ImagesEEG,001,200526,
AFNE01.JPG,AFNE01.JPG,AFNE01.JPG,AFNE01.JPG,AFNE01.JPG,AFNE01.JPG,,,,,,,,,1,2,12,6,,,,,,,,,,,,,,,AFNE06.jpg,AFNE14.jpg,AFSA07.jpg,AFSA17.jpg,AFSA17.jpg,FS,4,num_4,32,num_8,0.400202579331,,,2017_Jun_01_1650,60.0203096579,FEMA4ImagesEEG,001,200526,
AFNE01.JPG,AFNE01.JPG,AFNE01.JPG,AFNE01.JPG,AFNE01.JPG,AFNE01.JPG,,,,,,,,,1,3,13,3,,,,,,,,,,,,,,,AFSA19.jpg,AFNE03.jpg,AFNE20.jpg,AFSA01.jpg,AFSA19.jpg,FS,4,num_8,32,num_4,0.433454968734,,,2017_Jun_01_1650,60.0203096579,FEMA4ImagesEEG,001,200526,
AFNE01.JPG,AFNE01.JPG,AFNE01.JPG,AFNE01.JPG,AFNE01.JPG,AFNE01.JPG,,,,,,,,,1,4,14,1,,,,,,,,,,,,,,,AFSA01.jpg,AFNE05.jpg,AFSA11.jpg,AFNE12.jpg,AFSA01.jpg,FS,4,num_8,32,num_2,0.316788071999,,,2017_Jun_01_1650,60.0203096579,FEMA4ImagesEEG,001,200526,
AFNE01.JPG,AFNE01.JPG,AFNE01.JPG,AFNE01.JPG,AFNE01.JPG,AFNE01.JPG,,,,,,,,,1,5,15,4,,,,,,,,,,,,,,,AFNE18.jpg,AFNE02.jpg,AFSA05.jpg,AFSA04.jpg,AFSA04.jpg,FS,4,num_4,32,num_6,0.283531192457,,,2017_Jun_01_1650,60.0203096579,FEMA4ImagesEEG,001,200526,
AFNE01.JPG,AFNE01.JPG,AFNE01.JPG,AFNE01.JPG,AFNE01.JPG,AFNE01.JPG,,,,,,,,,1,6,16,7,,,,,,,,,,,,,,,AFNE06.jpg,AFNE16.jpg,AFSA07.jpg,AFSA20.jpg,AFSA20.jpg,FS,4,num_4,32,num_8,0.333548015216,,,2017_Jun_01_1650,60.0203096579,FEMA4ImagesEEG,001,200526,
AFNE01.JPG,AFNE01.JPG,AFNE01.JPG,AFNE01.JPG,AFNE01.JPG,AFNE01.JPG,,,,,,,,,1,7,17,0,,,,,,,,,,,,,,,AFSA20.jpg,AFNE15.jpg,AFNE05.jpg,AFSA01.jpg,AFSA20.jpg,FS,4,num_8,32,num_4,0.466769260587,,,2017_Jun_01_1650,60.0203096579,FEMA4ImagesEEG,001,200526,
AFNE01.JPG,AFNE01.JPG,AFNE01.JPG,AFNE01.JPG,AFNE01.JPG,AFNE01.JPG,,,,,,,,,1,8,18,5,,,,,,,,,,,,,,,AFNE02.jpg,AFNE11.jpg,AFSA12.jpg,AFSA02.jpg,AFNE02.jpg,FN,3,num_8,32,num_2,0.300190102542,,,2017_Jun_01_1650,60.0203096579,FEMA4ImagesEEG,001,200526,
AFNE01.JPG,AFNE01.JPG,AFNE01.JPG,AFNE01.JPG,AFNE01.JPG,AFNE01.JPG,,,,,,,,,1,9,19,9,,,,,,,,,,,,,,,AFSA16.jpg,AFNE17.jpg,AFNE09.jpg,AFSA04.jpg,AFNE17.jpg,FN,3,num_6,16,num_6,0.316792241763,,,2017_Jun_01_1650,60.0203096579,FEMA4ImagesEEG,001,200526,
AFNE01.JPG,AFNE01.JPG,AFNE01.JPG,AFNE01.JPG,AFNE01.JPG,AFNE01.JPG,,,,,,,,,2,0,20,9,,,,,,,,,,,,,,,AFNE19.jpg,AFSA08.jpg,AFSA05.jpg,AFNE01.jpg,AFNE19.jpg,FN,3,num_8,16,num_8,0.516807893757,,,2017_Jun_01_1650,60.0203096579,FEMA4ImagesEEG,001,200526,
AFNE01.JPG,AFNE01.JPG,AFNE01.JPG,AFNE01.JPG,AFNE01.JPG,AFNE01.JPG,,,,,,,,,2,1,21,0,,,,,,,,,,,,,,,AFNE05.jpg,AFSA05.jpg,AFSA15.jpg,AFNE10.jpg,AFNE10.jpg,FN,3,num_4,16,num_4,0.266809738241,,,2017_Jun_01_1650,60.0203096579,FEMA4ImagesEEG,001,200526,
AFNE01.JPG,AFNE01.JPG,AFNE01.JPG,AFNE01.JPG,AFNE01.JPG,AFNE01.JPG,,,,,,,,,2,2,22,3,,,,,,,,,,,,,,,AFSA02.jpg,AFNE06.jpg,AFNE12.jpg,AFSA16.jpg,AFSA16.jpg,FS,4,num_4,32,num_2,0.266855603782,,,2017_Jun_01_1650,60.0203096579,FEMA4ImagesEEG,001,200526,
AFNE01.JPG,AFNE01.JPG,AFNE01.JPG,AFNE01.JPG,AFNE01.JPG,AFNE01.JPG,,,,,,,,,2,3,23,8,,,,,,,,,,,,,,,AFSA02.jpg,AFSA05.jpg,AFNE11.jpg,AFNE10.jpg,AFNE10.jpg,FN,3,num_4,32,num_6,0.350219113519,,,2017_Jun_01_1650,60.0203096579,FEMA4ImagesEEG,001,200526,
AFNE01.JPG,AFNE01.JPG,AFNE01.JPG,AFNE01.JPG,AFNE01.JPG,AFNE01.JPG,,,,,,,,,2,4,24,5,,,,,,,,,,,,,,,AFSA16.jpg,AFSA01.jpg,AFNE12.jpg,AFNE02.jpg,AFNE02.jpg,FN,3,num_4,32,num_8,0.266867792001,,,2017_Jun_01_1650,60.0203096579,FEMA4ImagesEEG,001,200526,
AFNE01.JPG,AFNE01.JPG,AFNE01.JPG,AFNE01.JPG,AFNE01.JPG,AFNE01.JPG,,,,,,,,,2,5,25,6,,,,,,,,,,,,,,,AFSA02.jpg,AFNE03.jpg,AFNE16.jpg,AFSA05.jpg,AFSA02.jpg,FS,4,num_8,32,num_4,0.066868818365,,,2017_Jun_01_1650,60.0203096579,FEMA4ImagesEEG,001,200526,
AFNE01.JPG,AFNE01.JPG,AFNE01.JPG,AFNE01.JPG,AFNE01.JPG,AFNE01.JPG,,,,,,,,,2,6,26,7,,,,,,,,,,,,,,,AFNE12.jpg,AFSA01.jpg,AFSA19.jpg,AFNE15.jpg,AFNE15.jpg,FN,3,num_4,32,num_2,0.333538393024,,,2017_Jun_01_1650,60.0203096579,FEMA4ImagesEEG,001,200526,
AFNE01.JPG,AFNE01.JPG,AFNE01.JPG,AFNE01.JPG,AFNE01.JPG,AFNE01.JPG,,,,,,,,,2,7,27,2,,,,,,,,,,,,,,,AFSA02.jpg,AFSA14.jpg,AFNE14.jpg,AFNE10.jpg,AFSA14.jpg,FS,4,num_6,16,num_6,0.316709811334,,,2017_Jun_01_1650,60.0203096579,FEMA4ImagesEEG,001,200526,
AFNE01.JPG,AFNE01.JPG,AFNE01.JPG,AFNE01.JPG,AFNE01.JPG,AFNE01.JPG,,,,,,,,,2,8,28,1,,,,,,,,,,,,,,,AFNE10.jpg,AFSA18.jpg,AFNE17.jpg,AFSA14.jpg,AFNE17.jpg,FN,3,num_2,32,num_8,0.316856069025,,,2017_Jun_01_1650,60.0203096579,FEMA4ImagesEEG,001,200526,
AFNE01.JPG,AFNE01.JPG,AFNE01.JPG,AFNE01.JPG,AFNE01.JPG,AFNE01.JPG,,,,,,,,,2,9,29,4,,,,,,,,,,,,,,,AFSA14.jpg,AFNE07.jpg,AFSA03.jpg,AFNE08.jpg,AFNE08.jpg,FN,3,num_4,16,num_4,0.0668264806736,,,2017_Jun_01_1650,60.0203096579,FEMA4ImagesEEG,001,200526,
AFNE01.JPG,AFNE01.JPG,AFNE01.JPG,AFNE01.JPG,AFNE01.JPG,AFNE01.JPG,,,,,,,,,3,0,30,6,,,,,,,,,,,,,,,AFSA11.jpg,AFNE11.jpg,AFNE13.jpg,AFSA01.jpg,AFSA01.jpg,FS,4,num_4,32,num_2,0.283505533123,,,2017_Jun_01_1650,60.0203096579,FEMA4ImagesEEG,001,200526,
AFNE01.JPG,AFNE01.JPG,AFNE01.JPG,AFNE01.JPG,AFNE01.JPG,AFNE01.JPG,,,,,,,,,3,1,31,3,,,,,,,,,,,,,,,AFNE18.jpg,AFNE04.jpg,AFSA18.jpg,AFSA07.jpg,AFNE04.jpg,FN,3,num_6,16,num_6,0.333510167897,,,2017_Jun_01_1650,60.0203096579,FEMA4ImagesEEG,001,200526,
AFNE01.JPG,AFNE01.JPG,AFNE01.JPG,AFNE01.JPG,AFNE01.JPG,AFNE01.JPG,,,,,,,,,3,2,32,9,,,,,,,,,,,,,,,AFSA04.jpg,AFNE11.jpg,AFSA16.jpg,AFNE08.jpg,AFNE08.jpg,FN,3,num_4,32,num_8,0.250177128706,,,2017_Jun_01_1650,60.0203096579,FEMA4ImagesEEG,001,200526,
AFNE01.JPG,AFNE01.JPG,AFNE01.JPG,AFNE01.JPG,AFNE01.JPG,AFNE01.JPG,,,,,,,,,3,3,33,5,,,,,,,,,,,,,,,AFSA06.jpg,AFSA11.jpg,AFNE18.jpg,AFNE04.jpg,AFNE18.jpg,FN,3,num_2,32,num_4,0.250186109217,,,2017_Jun_01_1650,60.0203096579,FEMA4ImagesEEG,001,200526,
AFNE01.JPG,AFNE01.JPG,AFNE01.JPG,AFNE01.JPG,AFNE01.JPG,AFNE01.JPG,,,,,,,,,3,4,34,0,,,,,,,,,,,,,,,AFNE07.jpg,AFSA01.jpg,AFSA14.jpg,AFNE08.jpg,AFNE08.jpg,FN,3,num_4,32,num_2,0.300198120996,,,2017_Jun_01_1650,60.0203096579,FEMA4ImagesEEG,001,200526,
AFNE01.JPG,AFNE01.JPG,AFNE01.JPG,AFNE01.JPG,AFNE01.JPG,AFNE01.JPG,,,,,,,,,3,5,35,1,,,,,,,,,,,,,,,AFSA16.jpg,AFNE19.jpg,AFSA04.jpg,AFNE10.jpg,AFNE19.jpg,FN,3,num_6,16,num_6,0.28346512001,,,2017_Jun_01_1650,60.0203096579,FEMA4ImagesEEG,001,200526,
AFNE01.JPG,AFNE01.JPG,AFNE01.JPG,AFNE01.JPG,AFNE01.JPG,AFNE01.JPG,,,,,,,,,3,6,36,4,,,,,,,,,,,,,,,AFSA14.jpg,AFSA12.jpg,AFNE15.jpg,AFNE03.jpg,AFSA12.jpg,FS,4,num_6,32,num_8,0.566786548588,,,2017_Jun_01_1650,60.0203096579,FEMA4ImagesEEG,001,200526,
AFNE01.JPG,AFNE01.JPG,AFNE01.JPG,AFNE01.JPG,AFNE01.JPG,AFNE01.JPG,,,,,,,,,3,7,37,8,,,,,,,,,,,,,,,AFNE14.jpg,AFSA14.jpg,AFSA08.jpg,AFNE08.jpg,AFNE08.jpg,FN,3,num_4,16,num_4,0.300216723932,,,2017_Jun_01_1650,60.0203096579,FEMA4ImagesEEG,001,200526,
AFNE01.JPG,AFNE01.JPG,AFNE01.JPG,AFNE01.JPG,AFNE01.JPG,AFNE01.JPG,,,,,,,,,3,8,38,2,,,,,,,,,,,,,,,AFNE04.jpg,AFSA07.jpg,AFSA02.jpg,AFNE19.jpg,AFNE04.jpg,FN,3,num_8,32,num_2,0.283494628035,,,2017_Jun_01_1650,60.0203096579,FEMA4ImagesEEG,001,200526,
AFNE01.JPG,AFNE01.JPG,AFNE01.JPG,AFNE01.JPG,AFNE01.JPG,AFNE01.JPG,,,,,,,,,3,9,39,7,,,,,,,,,,,,,,,AFSA09.jpg,AFNE16.jpg,AFSA02.jpg,AFNE06.jpg,AFSA09.jpg,FS,4,num_8,32,num_6,0.300195234362,,,2017_Jun_01_1650,60.0203096579,FEMA4ImagesEEG,001,200526,
AFNE01.JPG,AFNE01.JPG,AFNE01.JPG,AFNE01.JPG,AFNE01.JPG,AFNE01.JPG,,,,,,,,,4,0,40,8,,,,,,,,,,,,,,,AFNE03.jpg,AFSA01.jpg,AFNE06.jpg,AFSA08.jpg,AFNE03.jpg,FN,3,num_8,16,num_8,0.300192668568,,,2017_Jun_01_1650,60.0203096579,FEMA4ImagesEEG,001,200526,
AFNE01.JPG,AFNE01.JPG,AFNE01.JPG,AFNE01.JPG,AFNE01.JPG,AFNE01.JPG,,,,,,,,,4,1,41,5,,,,,,,,,,,,,,,AFSA08.jpg,AFNE15.jpg,AFNE08.jpg,AFSA19.jpg,AFSA08.jpg,FS,4,num_8,32,num_4,0.233507634141,,,2017_Jun_01_1650,60.0203096579,FEMA4ImagesEEG,001,200526,
AFNE01.JPG,AFNE01.JPG,AFNE01.JPG,AFNE01.JPG,AFNE01.JPG,AFNE01.JPG,,,,,,,,,4,2,42,6,,,,,,,,,,,,,,,AFSA13.jpg,AFNE04.jpg,AFSA08.jpg,AFNE15.jpg,AFNE15.jpg,FN,3,num_4,32,num_2,0.300183046376,,,2017_Jun_01_1650,60.0203096579,FEMA4ImagesEEG,001,200526,
AFNE01.JPG,AFNE01.JPG,AFNE01.JPG,AFNE01.JPG,AFNE01.JPG,AFNE01.JPG,,,,,,,,,4,3,43,7,,,,,,,,,,,,,,,AFSA15.jpg,AFNE16.jpg,AFSA04.jpg,AFNE17.jpg,AFNE16.jpg,FN,3,num_6,16,num_6,0.266801078105,,,2017_Jun_01_1650,60.0203096579,FEMA4ImagesEEG,001,200526,
AFNE01.JPG,AFNE01.JPG,AFNE01.JPG,AFNE01.JPG,AFNE01.JPG,AFNE01.JPG,,,,,,,,,4,4,44,1,,,,,,,,,,,,,,,AFNE17.jpg,AFSA18.jpg,AFNE08.jpg,AFSA14.jpg,AFSA14.jpg,FS,4,num_4,32,num_8,0.366830233252,,,2017_Jun_01_1650,60.0203096579,FEMA4ImagesEEG,001,200526,
AFNE01.JPG,AFNE01.JPG,AFNE01.JPG,AFNE01.JPG,AFNE01.JPG,AFNE01.JPG,,,,,,,,,4,5,45,2,,,,,,,,,,,,,,,AFSA17.jpg,AFSA03.jpg,AFNE07.jpg,AFNE09.jpg,AFNE07.jpg,FN,3,num_2,32,num_4,0.28363222559,,,2017_Jun_01_1650,60.0203096579,FEMA4ImagesEEG,001,200526,
AFNE01.JPG,AFNE01.JPG,AFNE01.JPG,AFNE01.JPG,AFNE01.JPG,AFNE01.JPG,,,,,,,,,4,6,46,3,,,,,,,,,,,,,,,AFSA20.jpg,AFSA13.jpg,AFNE20.jpg,AFNE10.jpg,AFSA13.jpg,FS,4,num_6,32,num_2,0.38351961365,,,2017_Jun_01_1650,60.0203096579,FEMA4ImagesEEG,001,200526,
AFNE01.JPG,AFNE01.JPG,AFNE01.JPG,AFNE01.JPG,AFNE01.JPG,AFNE01.JPG,,,,,,,,,4,7,47,9,,,,,,,,,,,,,,,AFNE06.jpg,AFNE01.jpg,AFSA01.jpg,AFSA10.jpg,AFNE01.jpg,FN,3,num_6,16,num_6,3.7166378377,,,2017_Jun_01_1650,60.0203096579,FEMA4ImagesEEG,001,200526,
AFNE01.JPG,AFNE01.JPG,AFNE01.JPG,AFNE01.JPG,AFNE01.JPG,AFNE01.JPG,,,,,,,,,4,8,48,4,,,,,,,,,,,,,,,AFSA11.jpg,AFSA01.jpg,AFNE04.jpg,AFNE15.jpg,AFSA01.jpg,FS,4,num_6,32,num_8,0.283501042984,,,2017_Jun_01_1650,60.0203096579,FEMA4ImagesEEG,001,200526,
AFNE01.JPG,AFNE01.JPG,AFNE01.JPG,AFNE01.JPG,AFNE01.JPG,AFNE01.JPG,,,,,,,,,4,9,49,0,,,,,,,,,,,,,,,AFNE16.jpg,AFNE12.jpg,AFSA18.jpg,AFSA15.jpg,AFSA18.jpg,FS,4,num_2,32,num_4,0.300189461093,,,2017_Jun_01_1650,60.0203096579,FEMA4ImagesEEG,001,200526,
AFNE01.JPG,AFNE01.JPG,AFNE01.JPG,AFNE01.JPG,AFNE01.JPG,AFNE01.JPG,,,,,,,,,5,0,50,4,,,,,,,,,,,,,,,AFNE14.jpg,AFSA12.jpg,AFSA17.jpg,AFNE04.jpg,AFSA12.jpg,FS,4,num_6,32,num_4,0.31683137198,,,2017_Jun_01_1650,60.0203096579,FEMA4ImagesEEG,001,200526,
AFNE01.JPG,AFNE01.JPG,AFNE01.JPG,AFNE01.JPG,AFNE01.JPG,AFNE01.JPG,,,,,,,,,5,1,51,3,,,,,,,,,,,,,,,AFSA17.jpg,AFNE11.jpg,AFSA12.jpg,AFNE10.jpg,AFNE10.jpg,FN,3,num_4,32,num_2,0.300158669939,,,2017_Jun_01_1650,60.0203096579,FEMA4ImagesEEG,001,200526,
AFNE01.JPG,AFNE01.JPG,AFNE01.JPG,AFNE01.JPG,AFNE01.JPG,AFNE01.JPG,,,,,,,,,5,2,52,6,,,,,,,,,,,,,,,AFSA02.jpg,AFNE01.jpg,AFNE15.jpg,AFSA04.jpg,AFNE15.jpg,FN,3,num_2,32,num_6,0.316823674133,,,2017_Jun_01_1650,60.0203096579,FEMA4ImagesEEG,001,200526,
AFNE01.JPG,AFNE01.JPG,AFNE01.JPG,AFNE01.JPG,AFNE01.JPG,AFNE01.JPG,,,,,,,,,5,3,53,1,,,,,,,,,,,,,,,AFSA19.jpg,AFNE02.jpg,AFSA04.jpg,AFNE01.jpg,AFSA19.jpg,FS,4,num_8,16,num_8,0.516835156828,,,2017_Jun_01_1650,60.0203096579,FEMA4ImagesEEG,001,200526,
AFNE01.JPG,AFNE01.JPG,AFNE01.JPG,AFNE01.JPG,AFNE01.JPG,AFNE01.JPG,,,,,,,,,5,4,54,2,,,,,,,,,,,,,,,AFSA13.jpg,AFNE07.jpg,AFNE11.jpg,AFSA16.jpg,AFNE07.jpg,FN,3,num_6,32,num_4,0.383515444119,,,2017_Jun_01_1650,60.0203096579,FEMA4ImagesEEG,001,200526,
AFNE01.JPG,AFNE01.JPG,AFNE01.JPG,AFNE01.JPG,AFNE01.JPG,AFNE01.JPG,,,,,,,,,5,5,55,0,,,,,,,,,,,,,,,AFSA05.jpg,AFNE01.jpg,AFNE04.jpg,AFSA17.jpg,AFNE04.jpg,FN,3,num_2,32,num_4,1.08335645334,,,2017_Jun_01_1650,60.0203096579,FEMA4ImagesEEG,001,200526,
AFNE01.JPG,AFNE01.JPG,AFNE01.JPG,AFNE01.JPG,AFNE01.JPG,AFNE01.JPG,,,,,,,,,5,6,56,5,,,,,,,,,,,,,,,AFSA14.jpg,AFSA13.jpg,AFNE19.jpg,AFNE03.jpg,AFSA13.jpg,FS,4,num_6,32,num_2,0.283478270285,,,2017_Jun_01_1650,60.0203096579,FEMA4ImagesEEG,001,200526,
AFNE01.JPG,AFNE01.JPG,AFNE01.JPG,AFNE01.JPG,AFNE01.JPG,AFNE01.JPG,,,,,,,,,5,7,57,9,,,,,,,,,,,,,,,AFSA07.jpg,AFSA19.jpg,AFNE13.jpg,AFNE17.jpg,AFNE13.jpg,FN,3,num_2,32,num_6,0.283516117604,,,2017_Jun_01_1650,60.0203096579,FEMA4ImagesEEG,001,200526,
AFNE01.JPG,AFNE01.JPG,AFNE01.JPG,AFNE01.JPG,AFNE01.JPG,AFNE01.JPG,,,,,,,,,5,8,58,8,,,,,,,,,,,,,,,AFNE09.jpg,AFNE07.jpg,AFSA04.jpg,AFSA13.jpg,AFNE07.jpg,FN,3,num_6,32,num_8,0.266674385872,,,2017_Jun_01_1650,60.0203096579,FEMA4ImagesEEG,001,200526,
AFNE01.JPG,AFNE01.JPG,AFNE01.JPG,AFNE01.JPG,AFNE01.JPG,AFNE01.JPG,,,,,,,,,5,9,59,7,,,,,,,,,,,,,,,AFSA02.jpg,AFSA19.jpg,AFNE15.jpg,AFNE03.jpg,AFNE03.jpg,FN,3,num_4,16,num_4,0.266861056443,,,2017_Jun_01_1650,60.0203096579,FEMA4ImagesEEG,001,200526,
,,,,,,,,,,,,,,,,,,,,,,,,,,,,,,,,,,,,,,,,,,,space,0.650115418248,2017_Jun_01_1650,60.0203096579,FEMA4ImagesEEG,001,200526,
AFNE01.JPG,AFNE01.JPG,AFNE01.JPG,AFNE01.JPG,AFNE01.JPG,AFNE01.JPG,,,,,,,,,,,,,0,0,0,9,,,,,,,,,,,AMSA02.jpg,AMSA11.jpg,AMNE10.jpg,AMNE08.jpg,AMNE08.jpg,MN,1,num_4,32,num_2,0.300122747198,,,2017_Jun_01_1650,60.0203096579,FEMA4ImagesEEG,001,200526,
AFNE01.JPG,AFNE01.JPG,AFNE01.JPG,AFNE01.JPG,AFNE01.JPG,AFNE01.JPG,,,,,,,,,,,,,0,1,1,7,,,,,,,,,,,AMSA07.jpg,AMNE14.jpg,AMNE11.jpg,AMSA08.jpg,AMSA07.jpg,MS,2,num_8,32,num_6,0.300179838901,,,2017_Jun_01_1650,60.0203096579,FEMA4ImagesEEG,001,200526,
AFNE01.JPG,AFNE01.JPG,AFNE01.JPG,AFNE01.JPG,AFNE01.JPG,AFNE01.JPG,,,,,,,,,,,,,0,2,2,2,,,,,,,,,,,AMNE08.jpg,AMNE02.jpg,AMSA06.jpg,AMSA04.jpg,AMSA04.jpg,MS,2,num_4,32,num_8,0.283492382849,,,2017_Jun_01_1650,60.0203096579,FEMA4ImagesEEG,001,200526,
AFNE01.JPG,AFNE01.JPG,AFNE01.JPG,AFNE01.JPG,AFNE01.JPG,AFNE01.JPG,,,,,,,,,,,,,0,3,3,0,,,,,,,,,,,AMNE10.jpg,AMSA20.jpg,AMSA16.jpg,AMNE19.jpg,AMSA16.jpg,MS,2,num_2,32,num_4,0.183462586254,,,2017_Jun_01_1650,60.0203096579,FEMA4ImagesEEG,001,200526,
AFNE01.JPG,AFNE01.JPG,AFNE01.JPG,AFNE01.JPG,AFNE01.JPG,AFNE01.JPG,,,,,,,,,,,,,0,4,4,5,,,,,,,,,,,AMNE11.jpg,AMNE16.jpg,AMSA03.jpg,AMSA09.jpg,AMNE16.jpg,MN,1,num_6,32,num_2,0.233545160852,,,2017_Jun_01_1650,60.0203096579,FEMA4ImagesEEG,001,200526,
AFNE01.JPG,AFNE01.JPG,AFNE01.JPG,AFNE01.JPG,AFNE01.JPG,AFNE01.JPG,,,,,,,,,,,,,0,5,5,4,,,,,,,,,,,AMSA09.jpg,AMNE16.jpg,AMSA05.jpg,AMNE02.jpg,AMNE02.jpg,MN,1,num_4,32,num_6,0.333495734725,,,2017_Jun_01_1650,60.0203096579,FEMA4ImagesEEG,001,200526,
AFNE01.JPG,AFNE01.JPG,AFNE01.JPG,AFNE01.JPG,AFNE01.JPG,AFNE01.JPG,,,,,,,,,,,,,0,6,6,8,,,,,,,,,,,AMNE18.jpg,AMNE15.jpg,AMSA18.jpg,AMSA11.jpg,AMNE15.jpg,MN,1,num_6,32,num_8,0.266816473566,,,2017_Jun_01_1650,60.0203096579,FEMA4ImagesEEG,001,200526,
AFNE01.JPG,AFNE01.JPG,AFNE01.JPG,AFNE01.JPG,AFNE01.JPG,AFNE01.JPG,,,,,,,,,,,,,0,7,7,3,,,,,,,,,,,AMNE06.jpg,AMSA09.jpg,AMSA13.jpg,AMNE14.jpg,AMSA13.jpg,MS,2,num_2,32,num_4,0.217173954239,,,2017_Jun_01_1650,60.0203096579,FEMA4ImagesEEG,001,200526,
AFNE01.JPG,AFNE01.JPG,AFNE01.JPG,AFNE01.JPG,AFNE01.JPG,AFNE01.JPG,,,,,,,,,,,,,0,8,8,1,,,,,,,,,,,AMNE08.jpg,AMSA14.jpg,AMSA08.jpg,AMNE10.jpg,AMNE08.jpg,MN,1,num_8,32,num_2,0.266800115816,,,2017_Jun_01_1650,60.0203096579,FEMA4ImagesEEG,001,200526,
AFNE01.JPG,AFNE01.JPG,AFNE01.JPG,AFNE01.JPG,AFNE01.JPG,AFNE01.JPG,,,,,,,,,,,,,0,9,9,6,,,,,,,,,,,AMNE11.jpg,AMSA19.jpg,AMNE05.jpg,AMSA01.jpg,AMNE11.jpg,MN,1,num_8,32,num_6,0.283390708268,,,2017_Jun_01_1650,60.0203096579,FEMA4ImagesEEG,001,200526,
AFNE01.JPG,AFNE01.JPG,AFNE01.JPG,AFNE01.JPG,AFNE01.JPG,AFNE01.JPG,,,,,,,,,,,,,1,0,10,7,,,,,,,,,,,AMNE19.jpg,AMSA05.jpg,AMSA06.jpg,AMNE13.jpg,AMSA06.jpg,MS,2,num_2,32,num_8,0.233492559288,,,2017_Jun_01_1650,60.0203096579,FEMA4ImagesEEG,001,200526,
AFNE01.JPG,AFNE01.JPG,AFNE01.JPG,AFNE01.JPG,AFNE01.JPG,AFNE01.JPG,,,,,,,,,,,,,1,1,11,3,,,,,,,,,,,AMNE18.jpg,AMSA09.jpg,AMNE10.jpg,AMSA19.jpg,AMSA19.jpg,MS,2,num_4,16,num_4,0.266797229182,,,2017_Jun_01_1650,60.0203096579,FEMA4ImagesEEG,001,200526,
AFNE01.JPG,AFNE01.JPG,AFNE01.JPG,AFNE01.JPG,AFNE01.JPG,AFNE01.JPG,,,,,,,,,,,,,1,2,12,2,,,,,,,,,,,AMNE04.jpg,AMNE06.jpg,AMSA02.jpg,AMSA13.jpg,AMNE04.jpg,MN,1,num_8,32,num_2,0.266844378086,,,2017_Jun_01_1650,60.0203096579,FEMA4ImagesEEG,001,200526,
AFNE01.JPG,AFNE01.JPG,AFNE01.JPG,AFNE01.JPG,AFNE01.JPG,AFNE01.JPG,,,,,,,,,,,,,1,3,13,9,,,,,,,,,,,AMSA05.jpg,AMNE02.jpg,AMNE11.jpg,AMSA14.jpg,AMNE02.jpg,MN,1,num_6,16,num_6,0.283558775904,,,2017_Jun_01_1650,60.0203096579,FEMA4ImagesEEG,001,200526,
AFNE01.JPG,AFNE01.JPG,AFNE01.JPG,AFNE01.JPG,AFNE01.JPG,AFNE01.JPG,,,,,,,,,,,,,1,4,14,5,,,,,,,,,,,AMSA16.jpg,AMNE12.jpg,AMSA03.jpg,AMNE16.jpg,AMNE16.jpg,MN,1,num_4,32,num_8,0.266789210495,,,2017_Jun_01_1650,60.0203096579,FEMA4ImagesEEG,001,200526,
AFNE01.JPG,AFNE01.JPG,AFNE01.JPG,AFNE01.JPG,AFNE01.JPG,AFNE01.JPG,,,,,,,,,,,,,1,5,15,1,,,,,,,,,,,AMSA01.jpg,AMNE06.jpg,AMSA13.jpg,AMNE12.jpg,AMNE12.jpg,MN,1,num_4,16,num_4,0.250154997688,,,2017_Jun_01_1650,60.0203096579,FEMA4ImagesEEG,001,200526,
AFNE01.JPG,AFNE01.JPG,AFNE01.JPG,AFNE01.JPG,AFNE01.JPG,AFNE01.JPG,,,,,,,,,,,,,1,6,16,0,,,,,,,,,,,AMNE15.jpg,AMNE12.jpg,AMSA19.jpg,AMSA02.jpg,AMNE12.jpg,MN,1,num_6,32,num_2,0.300185932778,,,2017_Jun_01_1650,60.0203096579,FEMA4ImagesEEG,001,200526,
AFNE01.JPG,AFNE01.JPG,AFNE01.JPG,AFNE01.JPG,AFNE01.JPG,AFNE01.JPG,,,,,,,,,,,,,1,7,17,6,,,,,,,,,,,AMSA06.jpg,AMNE10.jpg,AMSA16.jpg,AMNE05.jpg,AMSA06.jpg,MS,2,num_8,32,num_6,0.216808631318,,,2017_Jun_01_1650,60.0203096579,FEMA4ImagesEEG,001,200526,
AFNE01.JPG,AFNE01.JPG,AFNE01.JPG,AFNE01.JPG,AFNE01.JPG,AFNE01.JPG,,,,,,,,,,,,,1,8,18,8,,,,,,,,,,,AMNE10.jpg,AMSA16.jpg,AMSA12.jpg,AMNE08.jpg,AMNE08.jpg,MN,1,num_4,32,num_8,0.0835177856497,,,2017_Jun_01_1650,60.0203096579,FEMA4ImagesEEG,001,200526,
AFNE01.JPG,AFNE01.JPG,AFNE01.JPG,AFNE01.JPG,AFNE01.JPG,AFNE01.JPG,,,,,,,,,,,,,1,9,19,4,,,,,,,,,,,AMNE05.jpg,AMSA02.jpg,AMNE02.jpg,AMSA10.jpg,AMNE02.jpg,MN,1,num_2,32,num_4,0.250267256517,,,2017_Jun_01_1650,60.0203096579,FEMA4ImagesEEG,001,200526,
AFNE01.JPG,AFNE01.JPG,AFNE01.JPG,AFNE01.JPG,AFNE01.JPG,AFNE01.JPG,,,,,,,,,,,,,2,0,20,1,,,,,,,,,,,AMSA15.jpg,AMNE14.jpg,AMSA08.jpg,AMNE16.jpg,AMNE14.jpg,MN,1,num_6,32,num_2,0.466784977121,,,2017_Jun_01_1650,60.0203096579,FEMA4ImagesEEG,001,200526,
AFNE01.JPG,AFNE01.JPG,AFNE01.JPG,AFNE01.JPG,AFNE01.JPG,AFNE01.JPG,,,,,,,,,,,,,2,1,21,8,,,,,,,,,,,AMNE17.jpg,AMSA07.jpg,AMNE05.jpg,AMSA14.jpg,AMSA14.jpg,MS,2,num_4,32,num_6,0.283507457701,,,2017_Jun_01_1650,60.0203096579,FEMA4ImagesEEG,001,200526,
AFNE01.JPG,AFNE01.JPG,AFNE01.JPG,AFNE01.JPG,AFNE01.JPG,AFNE01.JPG,,,,,,,,,,,,,2,2,22,9,,,,,,,,,,,AMSA20.jpg,AMNE07.jpg,AMSA01.jpg,AMNE02.jpg,AMNE07.jpg,MN,1,num_6,32,num_8,0.283493024297,,,2017_Jun_01_1650,60.0203096579,FEMA4ImagesEEG,001,200526,
AFNE01.JPG,AFNE01.JPG,AFNE01.JPG,AFNE01.JPG,AFNE01.JPG,AFNE01.JPG,,,,,,,,,,,,,2,3,23,2,,,,,,,,,,,AMNE04.jpg,AMSA06.jpg,AMSA18.jpg,AMNE02.jpg,AMSA06.jpg,MS,2,num_6,32,num_4,0.216831083409,,,2017_Jun_01_1650,60.0203096579,FEMA4ImagesEEG,001,200526,
AFNE01.JPG,AFNE01.JPG,AFNE01.JPG,AFNE01.JPG,AFNE01.JPG,AFNE01.JPG,,,,,,,,,,,,,2,4,24,6,,,,,,,,,,,AMSA18.jpg,AMNE07.jpg,AMSA15.jpg,AMNE10.jpg,AMSA18.jpg,MS,2,num_8,32,num_2,0.300186895067,,,2017_Jun_01_1650,60.0203096579,FEMA4ImagesEEG,001,200526,
AFNE01.JPG,AFNE01.JPG,AFNE01.JPG,AFNE01.JPG,AFNE01.JPG,AFNE01.JPG,,,,,,,,,,,,,2,5,25,3,,,,,,,,,,,AMSA14.jpg,AMNE05.jpg,AMNE06.jpg,AMSA05.jpg,AMNE06.jpg,MN,1,num_2,32,num_6,0.100187921431,,,2017_Jun_01_1650,60.0203096579,FEMA4ImagesEEG,001,200526,
AFNE01.JPG,AFNE01.JPG,AFNE01.JPG,AFNE01.JPG,AFNE01.JPG,AFNE01.JPG,,,,,,,,,,,,,2,6,26,5,,,,,,,,,,,AMSA18.jpg,AMNE05.jpg,AMSA14.jpg,AMNE02.jpg,AMSA18.jpg,MS,2,num_8,16,num_8,0.283863799646,,,2017_Jun_01_1650,60.0203096579,FEMA4ImagesEEG,001,200526,
AFNE01.JPG,AFNE01.JPG,AFNE01.JPG,AFNE01.JPG,AFNE01.JPG,AFNE01.JPG,,,,,,,,,,,,,2,7,27,7,,,,,,,,,,,AMNE04.jpg,AMNE02.jpg,AMSA13.jpg,AMSA02.jpg,AMNE04.jpg,MN,1,num_8,32,num_4,0.400162165985,,,2017_Jun_01_1650,60.0203096579,FEMA4ImagesEEG,001,200526,
AFNE01.JPG,AFNE01.JPG,AFNE01.JPG,AFNE01.JPG,AFNE01.JPG,AFNE01.JPG,,,,,,,,,,,,,2,8,28,0,,,,,,,,,,,AMNE13.jpg,AMSA15.jpg,AMNE03.jpg,AMSA12.jpg,AMSA15.jpg,MS,2,num_6,32,num_2,0.250192524167,,,2017_Jun_01_1650,60.0203096579,FEMA4ImagesEEG,001,200526,
AFNE01.JPG,AFNE01.JPG,AFNE01.JPG,AFNE01.JPG,AFNE01.JPG,AFNE01.JPG,,,,,,,,,,,,,2,9,29,4,,,,,,,,,,,AMNE09.jpg,AMSA13.jpg,AMNE10.jpg,AMSA04.jpg,AMNE09.jpg,MN,1,num_8,32,num_6,0.266704856185,,,2017_Jun_01_1650,60.0203096579,FEMA4ImagesEEG,001,200526,
AFNE01.JPG,AFNE01.JPG,AFNE01.JPG,AFNE01.JPG,AFNE01.JPG,AFNE01.JPG,,,,,,,,,,,,,3,0,30,9,,,,,,,,,,,AMSA15.jpg,AMSA08.jpg,AMNE03.jpg,AMNE18.jpg,AMSA15.jpg,MS,2,num_8,16,num_8,0.266820963938,,,2017_Jun_01_1650,60.0203096579,FEMA4ImagesEEG,001,200526,
AFNE01.JPG,AFNE01.JPG,AFNE01.JPG,AFNE01.JPG,AFNE01.JPG,AFNE01.JPG,,,,,,,,,,,,,3,1,31,5,,,,,,,,,,,AMNE07.jpg,AMSA17.jpg,AMSA05.jpg,AMNE12.jpg,AMSA17.jpg,MS,2,num_6,32,num_4,0.16684569302,,,2017_Jun_01_1650,60.0203096579,FEMA4ImagesEEG,001,200526,
AFNE01.JPG,AFNE01.JPG,AFNE01.JPG,AFNE01.JPG,AFNE01.JPG,AFNE01.JPG,,,,,,,,,,,,,3,2,32,0,,,,,,,,,,,AMNE04.jpg,AMSA09.jpg,AMSA02.jpg,AMNE13.jpg,AMSA09.jpg,MS,2,num_6,32,num_2,0.333467509598,,,2017_Jun_01_1650,60.0203096579,FEMA4ImagesEEG,001,200526,
AFNE01.JPG,AFNE01.JPG,AFNE01.JPG,AFNE01.JPG,AFNE01.JPG,AFNE01.JPG,,,,,,,,,,,,,3,3,33,2,,,,,,,,,,,AMNE11.jpg,AMSA04.jpg,AMNE05.jpg,AMSA06.jpg,AMSA06.jpg,MS,2,num_4,32,num_6,0.283530871617,,,2017_Jun_01_1650,60.0203096579,FEMA4ImagesEEG,001,200526,
AFNE01.JPG,AFNE01.JPG,AFNE01.JPG,AFNE01.JPG,AFNE01.JPG,AFNE01.JPG,,,,,,,,,,,,,3,4,34,3,,,,,,,,,,,AMSA03.jpg,AMNE07.jpg,AMNE03.jpg,AMSA05.jpg,AMSA03.jpg,MS,2,num_8,16,num_8,0.333512413315,,,2017_Jun_01_1650,60.0203096579,FEMA4ImagesEEG,001,200526,
AFNE01.JPG,AFNE01.JPG,AFNE01.JPG,AFNE01.JPG,AFNE01.JPG,AFNE01.JPG,,,,,,,,,,,,,3,5,35,4,,,,,,,,,,,AMNE02.jpg,AMNE03.jpg,AMSA13.jpg,AMSA07.jpg,AMNE02.jpg,MN,1,num_8,32,num_4,0.266865546815,,,2017_Jun_01_1650,60.0203096579,FEMA4ImagesEEG,001,200526,
AFNE01.JPG,AFNE01.JPG,AFNE01.JPG,AFNE01.JPG,AFNE01.JPG,AFNE01.JPG,,,,,,,,,,,,,3,6,36,8,,,,,,,,,,,AMNE20.jpg,AMSA01.jpg,AMSA14.jpg,AMNE03.jpg,AMNE03.jpg,MN,1,num_4,32,num_2,0.266781512881,,,2017_Jun_01_1650,60.0203096579,FEMA4ImagesEEG,001,200526,
AFNE01.JPG,AFNE01.JPG,AFNE01.JPG,AFNE01.JPG,AFNE01.JPG,AFNE01.JPG,,,,,,,,,,,,,3,7,37,6,,,,,,,,,,,AMNE18.jpg,AMSA04.jpg,AMSA05.jpg,AMNE20.jpg,AMSA05.jpg,MS,2,num_2,32,num_6,0.350165870506,,,2017_Jun_01_1650,60.0203096579,FEMA4ImagesEEG,001,200526,
AFNE01.JPG,AFNE01.JPG,AFNE01.JPG,AFNE01.JPG,AFNE01.JPG,AFNE01.JPG,,,,,,,,,,,,,3,8,38,1,,,,,,,,,,,AMNE19.jpg,AMSA04.jpg,AMNE13.jpg,AMSA10.jpg,AMSA10.jpg,MS,2,num_4,32,num_8,0.300154500408,,,2017_Jun_01_1650,60.0203096579,FEMA4ImagesEEG,001,200526,
AFNE01.JPG,AFNE01.JPG,AFNE01.JPG,AFNE01.JPG,AFNE01.JPG,AFNE01.JPG,,,,,,,,,,,,,3,9,39,7,,,,,,,,,,,AMNE19.jpg,AMSA18.jpg,AMSA01.jpg,AMNE14.jpg,AMNE19.jpg,MN,1,num_8,32,num_4,0.283521890873,,,2017_Jun_01_1650,60.0203096579,FEMA4ImagesEEG,001,200526,
AFNE01.JPG,AFNE01.JPG,AFNE01.JPG,AFNE01.JPG,AFNE01.JPG,AFNE01.JPG,,,,,,,,,,,,,4,0,40,2,,,,,,,,,,,AMNE02.jpg,AMSA17.jpg,AMSA08.jpg,AMNE18.jpg,AMSA17.jpg,MS,2,num_6,32,num_2,0.283511948073,,,2017_Jun_01_1650,60.0203096579,FEMA4ImagesEEG,001,200526,
AFNE01.JPG,AFNE01.JPG,AFNE01.JPG,AFNE01.JPG,AFNE01.JPG,AFNE01.JPG,,,,,,,,,,,,,4,1,41,6,,,,,,,,,,,AMSA03.jpg,AMNE17.jpg,AMSA09.jpg,AMNE18.jpg,AMNE18.jpg,MN,1,num_4,32,num_6,0.250156601192,,,2017_Jun_01_1650,60.0203096579,FEMA4ImagesEEG,001,200526,
AFNE01.JPG,AFNE01.JPG,AFNE01.JPG,AFNE01.JPG,AFNE01.JPG,AFNE01.JPG,,,,,,,,,,,,,4,2,42,9,,,,,,,,,,,AMNE15.jpg,AMSA03.jpg,AMSA13.jpg,AMNE12.jpg,AMSA03.jpg,MS,2,num_6,32,num_8,0.466799730901,,,2017_Jun_01_1650,60.0203096579,FEMA4ImagesEEG,001,200526,
AFNE01.JPG,AFNE01.JPG,AFNE01.JPG,AFNE01.JPG,AFNE01.JPG,AFNE01.JPG,,,,,,,,,,,,,4,3,43,4,,,,,,,,,,,AMSA03.jpg,AMSA20.jpg,AMNE04.jpg,AMNE07.jpg,AMSA20.jpg,MS,2,num_6,32,num_4,0.266856886912,,,2017_Jun_01_1650,60.0203096579,FEMA4ImagesEEG,001,200526,
AFNE01.JPG,AFNE01.JPG,AFNE01.JPG,AFNE01.JPG,AFNE01.JPG,AFNE01.JPG,,,,,,,,,,,,,4,4,44,7,,,,,,,,,,,AMSA01.jpg,AMNE13.jpg,AMNE03.jpg,AMSA09.jpg,AMSA01.jpg,MS,2,num_8,32,num_2,0.28359951009,,,2017_Jun_01_1650,60.0203096579,FEMA4ImagesEEG,001,200526,
AFNE01.JPG,AFNE01.JPG,AFNE01.JPG,AFNE01.JPG,AFNE01.JPG,AFNE01.JPG,,,,,,,,,,,,,4,5,45,0,,,,,,,,,,,AMNE05.jpg,AMNE03.jpg,AMSA11.jpg,AMSA09.jpg,AMSA09.jpg,MS,2,num_4,32,num_6,0.316839711275,,,2017_Jun_01_1650,60.0203096579,FEMA4ImagesEEG,001,200526,
AFNE01.JPG,AFNE01.JPG,AFNE01.JPG,AFNE01.JPG,AFNE01.JPG,AFNE01.JPG,,,,,,,,,,,,,4,6,46,8,,,,,,,,,,,AMSA20.jpg,AMNE18.jpg,AMSA09.jpg,AMNE09.jpg,AMSA09.jpg,MS,2,num_2,32,num_8,0.333526846487,,,2017_Jun_01_1650,60.0203096579,FEMA4ImagesEEG,001,200526,
AFNE01.JPG,AFNE01.JPG,AFNE01.JPG,AFNE01.JPG,AFNE01.JPG,AFNE01.JPG,,,,,,,,,,,,,4,7,47,5,,,,,,,,,,,AMNE06.jpg,AMSA09.jpg,AMNE14.jpg,AMSA18.jpg,AMNE06.jpg,MN,1,num_8,32,num_4,0.283543059835,,,2017_Jun_01_1650,60.0203096579,FEMA4ImagesEEG,001,200526,
AFNE01.JPG,AFNE01.JPG,AFNE01.JPG,AFNE01.JPG,AFNE01.JPG,AFNE01.JPG,,,,,,,,,,,,,4,8,48,1,,,,,,,,,,,AMNE05.jpg,AMSA05.jpg,AMNE03.jpg,AMSA20.jpg,AMNE05.jpg,MN,1,num_8,32,num_2,0.266808455111,,,2017_Jun_01_1650,60.0203096579,FEMA4ImagesEEG,001,200526,
AFNE01.JPG,AFNE01.JPG,AFNE01.JPG,AFNE01.JPG,AFNE01.JPG,AFNE01.JPG,,,,,,,,,,,,,4,9,49,3,,,,,,,,,,,AMSA01.jpg,AMNE03.jpg,AMSA10.jpg,AMNE05.jpg,AMNE03.jpg,MN,1,num_6,16,num_6,0.283648262499,,,2017_Jun_01_1650,60.0203096579,FEMA4ImagesEEG,001,200526,
AFNE01.JPG,AFNE01.JPG,AFNE01.JPG,AFNE01.JPG,AFNE01.JPG,AFNE01.JPG,,,,,,,,,,,,,5,0,50,7,,,,,,,,,,,AMSA06.jpg,AMSA20.jpg,AMNE08.jpg,AMNE20.jpg,AMSA20.jpg,MS,2,num_6,32,num_8,0.533458143938,,,2017_Jun_01_1650,60.0203096579,FEMA4ImagesEEG,001,200526,
AFNE01.JPG,AFNE01.JPG,AFNE01.JPG,AFNE01.JPG,AFNE01.JPG,AFNE01.JPG,,,,,,,,,,,,,5,1,51,6,,,,,,,,,,,AMNE08.jpg,AMNE11.jpg,AMSA20.jpg,AMSA15.jpg,AMNE11.jpg,MN,1,num_6,32,num_4,0.366764802486,,,2017_Jun_01_1650,60.0203096579,FEMA4ImagesEEG,001,200526,
AFNE01.JPG,AFNE01.JPG,AFNE01.JPG,AFNE01.JPG,AFNE01.JPG,AFNE01.JPG,,,,,,,,,,,,,5,2,52,3,,,,,,,,,,,AMNE04.jpg,AMSA08.jpg,AMSA17.jpg,AMNE18.jpg,AMNE18.jpg,MN,1,num_4,32,num_2,0.317168148933,,,2017_Jun_01_1650,60.0203096579,FEMA4ImagesEEG,001,200526,
AFNE01.JPG,AFNE01.JPG,AFNE01.JPG,AFNE01.JPG,AFNE01.JPG,AFNE01.JPG,,,,,,,,,,,,,5,3,53,5,,,,,,,,,,,AMSA10.jpg,AMNE09.jpg,AMNE15.jpg,AMSA17.jpg,AMNE09.jpg,MN,1,num_6,16,num_6,0.28364216839,,,2017_Jun_01_1650,60.0203096579,FEMA4ImagesEEG,001,200526,
AFNE01.JPG,AFNE01.JPG,AFNE01.JPG,AFNE01.JPG,AFNE01.JPG,AFNE01.JPG,,,,,,,,,,,,,5,4,54,2,,,,,,,,,,,AMNE13.jpg,AMSA18.jpg,AMSA06.jpg,AMNE14.jpg,AMNE14.jpg,MN,1,num_4,32,num_8,0.300178235164,,,2017_Jun_01_1650,60.0203096579,FEMA4ImagesEEG,001,200526,
AFNE01.JPG,AFNE01.JPG,AFNE01.JPG,AFNE01.JPG,AFNE01.JPG,AFNE01.JPG,,,,,,,,,,,,,5,5,55,0,,,,,,,,,,,AMNE03.jpg,AMNE15.jpg,AMSA13.jpg,AMSA15.jpg,AMSA13.jpg,MS,2,num_2,32,num_4,0.266857528361,,,2017_Jun_01_1650,60.0203096579,FEMA4ImagesEEG,001,200526,
AFNE01.JPG,AFNE01.JPG,AFNE01.JPG,AFNE01.JPG,AFNE01.JPG,AFNE01.JPG,,,,,,,,,,,,,5,6,56,4,,,,,,,,,,,AMSA10.jpg,AMNE01.jpg,AMNE18.jpg,AMSA03.jpg,AMNE18.jpg,MN,1,num_2,16,num_2,0.40016056248,,,2017_Jun_01_1650,60.0203096579,FEMA4ImagesEEG,001,200526,
AFNE01.JPG,AFNE01.JPG,AFNE01.JPG,AFNE01.JPG,AFNE01.JPG,AFNE01.JPG,,,,,,,,,,,,,5,7,57,9,,,,,,,,,,,AMNE09.jpg,AMSA06.jpg,AMSA20.jpg,AMNE02.jpg,AMSA06.jpg,MS,2,num_6,16,num_6,0.41679990734,,,2017_Jun_01_1650,60.0203096579,FEMA4ImagesEEG,001,200526,
AFNE01.JPG,AFNE01.JPG,AFNE01.JPG,AFNE01.JPG,AFNE01.JPG,AFNE01.JPG,,,,,,,,,,,,,5,8,58,8,,,,,,,,,,,AMSA02.jpg,AMNE17.jpg,AMNE13.jpg,AMSA01.jpg,AMNE13.jpg,MN,1,num_2,32,num_8,1.4501514053,,,2017_Jun_01_1650,60.0203096579,FEMA4ImagesEEG,001,200526,
AFNE01.JPG,AFNE01.JPG,AFNE01.JPG,AFNE01.JPG,AFNE01.JPG,AFNE01.JPG,,,,,,,,,,,,,5,9,59,1,,,,,,,,,,,AMNE17.jpg,AMSA19.jpg,AMSA15.jpg,AMNE04.jpg,AMNE04.jpg,MN,1,num_4,16,num_4,0.916799105471,,,2017_Jun_01_1650,60.0203096579,FEMA4ImagesEEG,001,200526,
,,,,,,,,,,,,,,,,,,,,,,,,,,,,,,,,,,,,,,,,,,,space,0.683213210898,2017_Jun_01_1650,60.0203096579,FEMA4ImagesEEG,001,200526,
AFNE01.JPG,AFNE01.JPG,AFNE01.JPG,AFNE01.JPG,AFNE01.JPG,AFNE01.JPG,,,,,,,,,,,,,,,,,0,0,0,6,,,,,,,AFSA04.jpg,AFNE06.jpg,AFSA15.jpg,AFNE17.jpg,AFSA04.jpg,FS,4,num_8,32,num_2,0.216819857247,,,2017_Jun_01_1650,60.0203096579,FEMA4ImagesEEG,001,200526,
AFNE01.JPG,AFNE01.JPG,AFNE01.JPG,AFNE01.JPG,AFNE01.JPG,AFNE01.JPG,,,,,,,,,,,,,,,,,0,1,1,1,,,,,,,AFNE11.jpg,AFNE03.jpg,AFSA07.jpg,AFSA17.jpg,AFSA07.jpg,FS,4,num_2,32,num_6,0.266827378655,,,2017_Jun_01_1650,60.0203096579,FEMA4ImagesEEG,001,200526,
AFNE01.JPG,AFNE01.JPG,AFNE01.JPG,AFNE01.JPG,AFNE01.JPG,AFNE01.JPG,,,,,,,,,,,,,,,,,0,2,2,7,,,,,,,AFSA02.jpg,AFSA16.jpg,AFNE09.jpg,AFNE10.jpg,AFSA02.jpg,FS,4,num_8,16,num_8,0.183491773438,,,2017_Jun_01_1650,60.0203096579,FEMA4ImagesEEG,001,200526,
AFNE01.JPG,AFNE01.JPG,AFNE01.JPG,AFNE01.JPG,AFNE01.JPG,AFNE01.JPG,,,,,,,,,,,,,,,,,0,3,3,4,,,,,,,AFNE04.jpg,AFSA20.jpg,AFSA08.jpg,AFNE02.jpg,AFNE02.jpg,FN,3,num_4,16,num_4,0.233515011147,,,2017_Jun_01_1650,60.0203096579,FEMA4ImagesEEG,001,200526,
AFNE01.JPG,AFNE01.JPG,AFNE01.JPG,AFNE01.JPG,AFNE01.JPG,AFNE01.JPG,,,,,,,,,,,,,,,,,0,4,4,0,,,,,,,AFNE14.jpg,AFNE09.jpg,AFSA16.jpg,AFSA11.jpg,AFSA16.jpg,FS,4,num_2,16,num_2,0.216840384761,,,2017_Jun_01_1650,60.0203096579,FEMA4ImagesEEG,001,200526,
AFNE01.JPG,AFNE01.JPG,AFNE01.JPG,AFNE01.JPG,AFNE01.JPG,AFNE01.JPG,,,,,,,,,,,,,,,,,0,5,5,2,,,,,,,AFNE06.jpg,AFNE17.jpg,AFSA04.jpg,AFSA16.jpg,AFNE17.jpg,FN,3,num_6,16,num_6,0.283497514669,,,2017_Jun_01_1650,60.0203096579,FEMA4ImagesEEG,001,200526,
AFNE01.JPG,AFNE01.JPG,AFNE01.JPG,AFNE01.JPG,AFNE01.JPG,AFNE01.JPG,,,,,,,,,,,,,,,,,0,6,6,5,,,,,,,AFNE14.jpg,AFNE03.jpg,AFSA02.jpg,AFSA14.jpg,AFNE14.jpg,FN,3,num_8,16,num_8,0.250189316692,,,2017_Jun_01_1650,60.0203096579,FEMA4ImagesEEG,001,200526,
AFNE01.JPG,AFNE01.JPG,AFNE01.JPG,AFNE01.JPG,AFNE01.JPG,AFNE01.JPG,,,,,,,,,,,,,,,,,0,7,7,9,,,,,,,AFNE20.jpg,AFSA02.jpg,AFSA11.jpg,AFNE12.jpg,AFNE12.jpg,FN,3,num_4,16,num_4,0.216807027813,,,2017_Jun_01_1650,60.0203096579,FEMA4ImagesEEG,001,200526,
AFNE01.JPG,AFNE01.JPG,AFNE01.JPG,AFNE01.JPG,AFNE01.JPG,AFNE01.JPG,,,,,,,,,,,,,,,,,0,8,8,3,,,,,,,AFSA10.jpg,AFNE02.jpg,AFNE18.jpg,AFSA11.jpg,AFNE02.jpg,FN,3,num_6,32,num_2,0.250192845007,,,2017_Jun_01_1650,60.0203096579,FEMA4ImagesEEG,001,200526,
AFNE01.JPG,AFNE01.JPG,AFNE01.JPG,AFNE01.JPG,AFNE01.JPG,AFNE01.JPG,,,,,,,,,,,,,,,,,0,9,9,8,,,,,,,AFSA11.jpg,AFSA05.jpg,AFNE14.jpg,AFNE13.jpg,AFSA05.jpg,FS,4,num_6,16,num_6,0.233524953946,,,2017_Jun_01_1650,60.0203096579,FEMA4ImagesEEG,001,200526,
AFNE01.JPG,AFNE01.JPG,AFNE01.JPG,AFNE01.JPG,AFNE01.JPG,AFNE01.JPG,,,,,,,,,,,,,,,,,1,0,10,0,,,,,,,AFNE06.jpg,AFNE11.jpg,AFSA01.jpg,AFSA20.jpg,AFNE06.jpg,FN,3,num_8,32,num_4,0.350137966219,,,2017_Jun_01_1650,60.0203096579,FEMA4ImagesEEG,001,200526,
AFNE01.JPG,AFNE01.JPG,AFNE01.JPG,AFNE01.JPG,AFNE01.JPG,AFNE01.JPG,,,,,,,,,,,,,,,,,1,1,11,9,,,,,,,AFSA20.jpg,AFSA12.jpg,AFNE11.jpg,AFNE05.jpg,AFSA12.jpg,FS,4,num_6,32,num_2,0.283504570834,,,2017_Jun_01_1650,60.0203096579,FEMA4ImagesEEG,001,200526,
AFNE01.JPG,AFNE01.JPG,AFNE01.JPG,AFNE01.JPG,AFNE01.JPG,AFNE01.JPG,,,,,,,,,,,,,,,,,1,2,12,6,,,,,,,AFSA04.jpg,AFNE15.jpg,AFSA16.jpg,AFNE12.jpg,AFSA04.jpg,FS,4,num_8,32,num_6,0.566668195417,,,2017_Jun_01_1650,60.0203096579,FEMA4ImagesEEG,001,200526,
AFNE01.JPG,AFNE01.JPG,AFNE01.JPG,AFNE01.JPG,AFNE01.JPG,AFNE01.JPG,,,,,,,,,,,,,,,,,1,3,13,4,,,,,,,AFSA12.jpg,AFNE14.jpg,AFNE09.jpg,AFSA17.jpg,AFNE14.jpg,FN,3,num_6,32,num_8,0.333526205039,,,2017_Jun_01_1650,60.0203096579,FEMA4ImagesEEG,001,200526,
AFNE01.JPG,AFNE01.JPG,AFNE01.JPG,AFNE01.JPG,AFNE01.JPG,AFNE01.JPG,,,,,,,,,,,,,,,,,1,4,14,3,,,,,,,AFNE16.jpg,AFSA13.jpg,AFNE20.jpg,AFSA07.jpg,AFNE16.jpg,FN,3,num_8,32,num_4,0.300172461895,,,2017_Jun_01_1650,60.0203096579,FEMA4ImagesEEG,001,200526,
AFNE01.JPG,AFNE01.JPG,AFNE01.JPG,AFNE01.JPG,AFNE01.JPG,AFNE01.JPG,,,,,,,,,,,,,,,,,1,5,15,1,,,,,,,AFNE06.jpg,AFSA17.jpg,AFNE12.jpg,AFSA18.jpg,AFSA18.jpg,FS,4,num_4,32,num_2,0.300189781701,,,2017_Jun_01_1650,60.0203096579,FEMA4ImagesEEG,001,200526,
AFNE01.JPG,AFNE01.JPG,AFNE01.JPG,AFNE01.JPG,AFNE01.JPG,AFNE01.JPG,,,,,,,,,,,,,,,,,1,6,16,5,,,,,,,AFSA02.jpg,AFNE14.jpg,AFNE13.jpg,AFSA19.jpg,AFNE13.jpg,FN,3,num_2,32,num_6,0.316797373584,,,2017_Jun_01_1650,60.0203096579,FEMA4ImagesEEG,001,200526,
AFNE01.JPG,AFNE01.JPG,AFNE01.JPG,AFNE01.JPG,AFNE01.JPG,AFNE01.JPG,,,,,,,,,,,,,,,,,1,7,17,8,,,,,,,AFSA09.jpg,AFNE16.jpg,AFSA18.jpg,AFNE06.jpg,AFSA09.jpg,FS,4,num_8,16,num_8,0.283554606605,,,2017_Jun_01_1650,60.0203096579,FEMA4ImagesEEG,001,200526,
AFNE01.JPG,AFNE01.JPG,AFNE01.JPG,AFNE01.JPG,AFNE01.JPG,AFNE01.JPG,,,,,,,,,,,,,,,,,1,8,18,2,,,,,,,AFSA12.jpg,AFNE10.jpg,AFSA02.jpg,AFNE02.jpg,AFSA12.jpg,FS,4,num_8,32,num_4,0.266798512079,,,2017_Jun_01_1650,60.0203096579,FEMA4ImagesEEG,001,200526,
AFNE01.JPG,AFNE01.JPG,AFNE01.JPG,AFNE01.JPG,AFNE01.JPG,AFNE01.JPG,,,,,,,,,,,,,,,,,1,9,19,7,,,,,,,AFSA10.jpg,AFNE07.jpg,AFSA04.jpg,AFNE17.jpg,AFSA10.jpg,FS,4,num_8,32,num_2,0.300202290528,,,2017_Jun_01_1650,60.0203096579,FEMA4ImagesEEG,001,200526,
AFNE01.JPG,AFNE01.JPG,AFNE01.JPG,AFNE01.JPG,AFNE01.JPG,AFNE01.JPG,,,,,,,,,,,,,,,,,2,0,20,6,,,,,,,AFNE20.jpg,AFNE14.jpg,AFSA01.jpg,AFSA09.jpg,AFSA09.jpg,FS,4,num_4,32,num_6,0.283521891106,,,2017_Jun_01_1650,60.0203096579,FEMA4ImagesEEG,001,200526,
AFNE01.JPG,AFNE01.JPG,AFNE01.JPG,AFNE01.JPG,AFNE01.JPG,AFNE01.JPG,,,,,,,,,,,,,,,,,2,1,21,3,,,,,,,AFSA10.jpg,AFNE06.jpg,AFSA01.jpg,AFNE02.jpg,AFNE02.jpg,FN,3,num_4,32,num_8,0.250226843404,,,2017_Jun_01_1650,60.0203096579,FEMA4ImagesEEG,001,200526,
AFNE01.JPG,AFNE01.JPG,AFNE01.JPG,AFNE01.JPG,AFNE01.JPG,AFNE01.JPG,,,,,,,,,,,,,,,,,2,2,22,7,,,,,,,AFSA06.jpg,AFSA01.jpg,AFNE06.jpg,AFNE10.jpg,AFNE06.jpg,FN,3,num_2,32,num_4,0.31715435721,,,2017_Jun_01_1650,60.0203096579,FEMA4ImagesEEG,001,200526,
AFNE01.JPG,AFNE01.JPG,AFNE01.JPG,AFNE01.JPG,AFNE01.JPG,AFNE01.JPG,,,,,,,,,,,,,,,,,2,3,23,1,,,,,,,AFSA08.jpg,AFNE11.jpg,AFNE16.jpg,AFSA05.jpg,AFSA08.jpg,FS,4,num_8,32,num_2,0.26685239654,,,2017_Jun_01_1650,60.0203096579,FEMA4ImagesEEG,001,200526,
AFNE01.JPG,AFNE01.JPG,AFNE01.JPG,AFNE01.JPG,AFNE01.JPG,AFNE01.JPG,,,,,,,,,,,,,,,,,2,4,24,2,,,,,,,AFSA13.jpg,AFNE03.jpg,AFNE05.jpg,AFSA09.jpg,AFSA13.jpg,FS,4,num_8,32,num_6,0.216878552921,,,2017_Jun_01_1650,60.0203096579,FEMA4ImagesEEG,001,200526,
AFNE01.JPG,AFNE01.JPG,AFNE01.JPG,AFNE01.JPG,AFNE01.JPG,AFNE01.JPG,,,,,,,,,,,,,,,,,2,5,25,0,,,,,,,AFSA16.jpg,AFSA11.jpg,AFNE16.jpg,AFNE06.jpg,AFSA16.jpg,FS,4,num_8,16,num_8,0.283503929386,,,2017_Jun_01_1650,60.0203096579,FEMA4ImagesEEG,001,200526,
AFNE01.JPG,AFNE01.JPG,AFNE01.JPG,AFNE01.JPG,AFNE01.JPG,AFNE01.JPG,,,,,,,,,,,,,,,,,2,6,26,9,,,,,,,AFSA15.jpg,AFNE17.jpg,AFNE10.jpg,AFSA10.jpg,AFNE10.jpg,FN,3,num_2,32,num_4,0.233527840581,,,2017_Jun_01_1650,60.0203096579,FEMA4ImagesEEG,001,200526,
AFNE01.JPG,AFNE01.JPG,AFNE01.JPG,AFNE01.JPG,AFNE01.JPG,AFNE01.JPG,,,,,,,,,,,,,,,,,2,7,27,4,,,,,,,AFSA11.jpg,AFSA02.jpg,AFNE09.jpg,AFNE15.jpg,AFNE09.jpg,FN,3,num_2,16,num_2,0.283536003437,,,2017_Jun_01_1650,60.0203096579,FEMA4ImagesEEG,001,200526,
AFNE01.JPG,AFNE01.JPG,AFNE01.JPG,AFNE01.JPG,AFNE01.JPG,AFNE01.JPG,,,,,,,,,,,,,,,,,2,8,28,8,,,,,,,AFNE16.jpg,AFSA09.jpg,AFNE19.jpg,AFSA02.jpg,AFNE16.jpg,FN,3,num_8,32,num_6,0.266810058616,,,2017_Jun_01_1650,60.0203096579,FEMA4ImagesEEG,001,200526,
AFNE01.JPG,AFNE01.JPG,AFNE01.JPG,AFNE01.JPG,AFNE01.JPG,AFNE01.JPG,,,,,,,,,,,,,,,,,2,9,29,5,,,,,,,AFNE14.jpg,AFNE20.jpg,AFSA13.jpg,AFSA19.jpg,AFSA13.jpg,FS,4,num_2,32,num_8,0.300199083285,,,2017_Jun_01_1650,60.0203096579,FEMA4ImagesEEG,001,200526,
AFNE01.JPG,AFNE01.JPG,AFNE01.JPG,AFNE01.JPG,AFNE01.JPG,AFNE01.JPG,,,,,,,,,,,,,,,,,3,0,30,5,,,,,,,AFSA08.jpg,AFSA14.jpg,AFNE15.jpg,AFNE14.jpg,AFNE15.jpg,FN,3,num_2,32,num_4,0.266860094154,,,2017_Jun_01_1650,60.0203096579,FEMA4ImagesEEG,001,200526,
AFNE01.JPG,AFNE01.JPG,AFNE01.JPG,AFNE01.JPG,AFNE01.JPG,AFNE01.JPG,,,,,,,,,,,,,,,,,3,1,31,8,,,,,,,AFNE06.jpg,AFSA17.jpg,AFNE15.jpg,AFSA08.jpg,AFNE06.jpg,FN,3,num_8,32,num_2,0.266936751083,,,2017_Jun_01_1650,60.0203096579,FEMA4ImagesEEG,001,200526,
AFNE01.JPG,AFNE01.JPG,AFNE01.JPG,AFNE01.JPG,AFNE01.JPG,AFNE01.JPG,,,,,,,,,,,,,,,,,3,2,32,1,,,,,,,AFNE07.jpg,AFSA19.jpg,AFSA04.jpg,AFNE13.jpg,AFSA19.jpg,FS,4,num_6,16,num_6,0.450166800758,,,2017_Jun_01_1650,60.0203096579,FEMA4ImagesEEG,001,200526,
AFNE01.JPG,AFNE01.JPG,AFNE01.JPG,AFNE01.JPG,AFNE01.JPG,AFNE01.JPG,,,,,,,,,,,,,,,,,3,3,33,7,,,,,,,AFNE06.jpg,AFSA17.jpg,AFSA16.jpg,AFNE07.jpg,AFSA16.jpg,FS,4,num_2,32,num_6,0.466808070196,,,2017_Jun_01_1650,60.0203096579,FEMA4ImagesEEG,001,200526,
AFNE01.JPG,AFNE01.JPG,AFNE01.JPG,AFNE01.JPG,AFNE01.JPG,AFNE01.JPG,,,,,,,,,,,,,,,,,3,4,34,4,,,,,,,AFNE03.jpg,AFSA06.jpg,AFNE14.jpg,AFSA20.jpg,AFSA20.jpg,FS,4,num_4,32,num_8,0.400177240837,,,2017_Jun_01_1650,60.0203096579,FEMA4ImagesEEG,001,200526,
AFNE01.JPG,AFNE01.JPG,AFNE01.JPG,AFNE01.JPG,AFNE01.JPG,AFNE01.JPG,,,,,,,,,,,,,,,,,3,5,35,9,,,,,,,AFSA06.jpg,AFNE07.jpg,AFNE09.jpg,AFSA08.jpg,AFNE07.jpg,FN,3,num_6,32,num_4,0.233543557115,,,2017_Jun_01_1650,60.0203096579,FEMA4ImagesEEG,001,200526,
AFNE01.JPG,AFNE01.JPG,AFNE01.JPG,AFNE01.JPG,AFNE01.JPG,AFNE01.JPG,,,,,,,,,,,,,,,,,3,6,36,0,,,,,,,AFSA03.jpg,AFNE13.jpg,AFSA17.jpg,AFNE02.jpg,AFSA03.jpg,FS,4,num_8,32,num_2,0.350155607099,,,2017_Jun_01_1650,60.0203096579,FEMA4ImagesEEG,001,200526,
AFNE01.JPG,AFNE01.JPG,AFNE01.JPG,AFNE01.JPG,AFNE01.JPG,AFNE01.JPG,,,,,,,,,,,,,,,,,3,7,37,3,,,,,,,AFSA05.jpg,AFNE04.jpg,AFSA17.jpg,AFNE03.jpg,AFNE04.jpg,FN,3,num_6,16,num_6,0.100190487457,,,2017_Jun_01_1650,60.0203096579,FEMA4ImagesEEG,001,200526,
AFNE01.JPG,AFNE01.JPG,AFNE01.JPG,AFNE01.JPG,AFNE01.JPG,AFNE01.JPG,,,,,,,,,,,,,,,,,3,8,38,2,,,,,,,AFSA13.jpg,AFNE20.jpg,AFNE03.jpg,AFSA09.jpg,AFNE20.jpg,FN,3,num_6,32,num_8,0.283648262499,,,2017_Jun_01_1650,60.0203096579,FEMA4ImagesEEG,001,200526,
AFNE01.JPG,AFNE01.JPG,AFNE01.JPG,AFNE01.JPG,AFNE01.JPG,AFNE01.JPG,,,,,,,,,,,,,,,,,3,9,39,6,,,,,,,AFSA02.jpg,AFNE09.jpg,AFSA04.jpg,AFNE05.jpg,AFSA02.jpg,FS,4,num_8,32,num_4,0.266820001649,,,2017_Jun_01_1650,60.0203096579,FEMA4ImagesEEG,001,200526,
AFNE01.JPG,AFNE01.JPG,AFNE01.JPG,AFNE01.JPG,AFNE01.JPG,AFNE01.JPG,,,,,,,,,,,,,,,,,4,0,40,7,,,,,,,AFSA20.jpg,AFNE02.jpg,AFNE04.jpg,AFSA19.jpg,AFSA20.jpg,FS,4,num_8,32,num_2,0.300188498804,,,2017_Jun_01_1650,60.0203096579,FEMA4ImagesEEG,001,200526,
AFNE01.JPG,AFNE01.JPG,AFNE01.JPG,AFNE01.JPG,AFNE01.JPG,AFNE01.JPG,,,,,,,,,,,,,,,,,4,1,41,4,,,,,,,AFSA09.jpg,AFNE05.jpg,AFNE09.jpg,AFSA13.jpg,AFNE05.jpg,FN,3,num_6,16,num_6,0.250142168021,,,2017_Jun_01_1650,60.0203096579,FEMA4ImagesEEG,001,200526,
AFNE01.JPG,AFNE01.JPG,AFNE01.JPG,AFNE01.JPG,AFNE01.JPG,AFNE01.JPG,,,,,,,,,,,,,,,,,4,2,42,6,,,,,,,AFNE17.jpg,AFSA03.jpg,AFNE01.jpg,AFSA07.jpg,AFSA03.jpg,FS,4,num_6,32,num_8,0.350184473442,,,2017_Jun_01_1650,60.0203096579,FEMA4ImagesEEG,001,200526,
AFNE01.JPG,AFNE01.JPG,AFNE01.JPG,AFNE01.JPG,AFNE01.JPG,AFNE01.JPG,,,,,,,,,,,,,,,,,4,3,43,3,,,,,,,AFSA07.jpg,AFSA13.jpg,AFNE07.jpg,AFNE17.jpg,AFSA07.jpg,FS,4,num_8,32,num_4,0.133478799602,,,2017_Jun_01_1650,60.0203096579,FEMA4ImagesEEG,001,200526,
AFNE01.JPG,AFNE01.JPG,AFNE01.JPG,AFNE01.JPG,AFNE01.JPG,AFNE01.JPG,,,,,,,,,,,,,,,,,4,4,44,5,,,,,,,AFNE03.jpg,AFSA11.jpg,AFNE18.jpg,AFSA07.jpg,AFSA11.jpg,FS,4,num_6,32,num_2,0.300474598771,,,2017_Jun_01_1650,60.0203096579,FEMA4ImagesEEG,001,200526,
AFNE01.JPG,AFNE01.JPG,AFNE01.JPG,AFNE01.JPG,AFNE01.JPG,AFNE01.JPG,,,,,,,,,,,,,,,,,4,5,45,0,,,,,,,AFSA13.jpg,AFNE08.jpg,AFNE06.jpg,AFSA10.jpg,AFSA10.jpg,FS,4,num_4,32,num_6,0.233466579346,,,2017_Jun_01_1650,60.0203096579,FEMA4ImagesEEG,001,200526,
AFNE01.JPG,AFNE01.JPG,AFNE01.JPG,AFNE01.JPG,AFNE01.JPG,AFNE01.JPG,,,,,,,,,,,,,,,,,4,6,46,1,,,,,,,AFSA06.jpg,AFNE20.jpg,AFSA03.jpg,AFNE05.jpg,AFSA06.jpg,FS,4,num_8,16,num_8,0.316768506775,,,2017_Jun_01_1650,60.0203096579,FEMA4ImagesEEG,001,200526,
AFNE01.JPG,AFNE01.JPG,AFNE01.JPG,AFNE01.JPG,AFNE01.JPG,AFNE01.JPG,,,,,,,,,,,,,,,,,4,7,47,9,,,,,,,AFNE09.jpg,AFNE17.jpg,AFSA17.jpg,AFSA05.jpg,AFSA05.jpg,FS,4,num_4,32,num_6,0.20019045542,,,2017_Jun_01_1650,60.0203096579,FEMA4ImagesEEG,001,200526,
AFNE01.JPG,AFNE01.JPG,AFNE01.JPG,AFNE01.JPG,AFNE01.JPG,AFNE01.JPG,,,,,,,,,,,,,,,,,4,8,48,2,,,,,,,AFSA06.jpg,AFNE06.jpg,AFSA05.jpg,AFNE10.jpg,AFNE10.jpg,FN,3,num_4,32,num_2,0.300187857356,,,2017_Jun_01_1650,60.0203096579,FEMA4ImagesEEG,001,200526,
AFNE01.JPG,AFNE01.JPG,AFNE01.JPG,AFNE01.JPG,AFNE01.JPG,AFNE01.JPG,,,,,,,,,,,,,,,,,4,9,49,8,,,,,,,AFNE08.jpg,AFSA09.jpg,AFNE01.jpg,AFSA03.jpg,AFNE08.jpg,FN,3,num_8,32,num_4,0.250168789178,,,2017_Jun_01_1650,60.0203096579,FEMA4ImagesEEG,001,200526,
AFNE01.JPG,AFNE01.JPG,AFNE01.JPG,AFNE01.JPG,AFNE01.JPG,AFNE01.JPG,,,,,,,,,,,,,,,,,5,0,50,7,,,,,,,AFSA12.jpg,AFSA06.jpg,AFNE02.jpg,AFNE18.jpg,AFSA12.jpg,FS,4,num_8,16,num_8,0.433451440418,,,2017_Jun_01_1650,60.0203096579,FEMA4ImagesEEG,001,200526,
AFNE01.JPG,AFNE01.JPG,AFNE01.JPG,AFNE01.JPG,AFNE01.JPG,AFNE01.JPG,,,,,,,,,,,,,,,,,5,1,51,1,,,,,,,AFNE11.jpg,AFSA15.jpg,AFSA17.jpg,AFNE12.jpg,AFNE12.jpg,FN,3,num_4,32,num_6,0.183511017822,,,2017_Jun_01_1650,60.0203096579,FEMA4ImagesEEG,001,200526,
AFNE01.JPG,AFNE01.JPG,AFNE01.JPG,AFNE01.JPG,AFNE01.JPG,AFNE01.JPG,,,,,,,,,,,,,,,,,5,2,52,6,,,,,,,AFNE10.jpg,AFSA04.jpg,AFSA11.jpg,AFNE07.jpg,AFSA11.jpg,FS,4,num_2,16,num_2,0.266813266324,,,2017_Jun_01_1650,60.0203096579,FEMA4ImagesEEG,001,200526,
AFNE01.JPG,AFNE01.JPG,AFNE01.JPG,AFNE01.JPG,AFNE01.JPG,AFNE01.JPG,,,,,,,,,,,,,,,,,5,3,53,8,,,,,,,AFNE16.jpg,AFSA02.jpg,AFSA11.jpg,AFNE06.jpg,AFSA11.jpg,FS,4,num_2,32,num_4,0.216842309106,,,2017_Jun_01_1650,60.0203096579,FEMA4ImagesEEG,001,200526,
AFNE01.JPG,AFNE01.JPG,AFNE01.JPG,AFNE01.JPG,AFNE01.JPG,AFNE01.JPG,,,,,,,,,,,,,,,,,5,4,54,5,,,,,,,AFNE19.jpg,AFNE15.jpg,AFSA16.jpg,AFSA01.jpg,AFSA01.jpg,FS,4,num_4,32,num_8,0.216854497325,,,2017_Jun_01_1650,60.0203096579,FEMA4ImagesEEG,001,200526,
AFNE01.JPG,AFNE01.JPG,AFNE01.JPG,AFNE01.JPG,AFNE01.JPG,AFNE01.JPG,,,,,,,,,,,,,,,,,5,5,55,4,,,,,,,AFSA13.jpg,AFNE01.jpg,AFNE07.jpg,AFSA16.jpg,AFNE07.jpg,FN,3,num_2,32,num_6,0.0335445832461,,,2017_Jun_01_1650,60.0203096579,FEMA4ImagesEEG,001,200526,
AFNE01.JPG,AFNE01.JPG,AFNE01.JPG,AFNE01.JPG,AFNE01.JPG,AFNE01.JPG,,,,,,,,,,,,,,,,,5,6,56,3,,,,,,,AFSA15.jpg,AFSA07.jpg,AFNE14.jpg,AFNE19.jpg,AFNE19.jpg,FN,3,num_4,32,num_2,0.250162695302,,,2017_Jun_01_1650,60.0203096579,FEMA4ImagesEEG,001,200526,
AFNE01.JPG,AFNE01.JPG,AFNE01.JPG,AFNE01.JPG,AFNE01.JPG,AFNE01.JPG,,,,,,,,,,,,,,,,,5,7,57,0,,,,,,,AFSA15.jpg,AFNE07.jpg,AFSA11.jpg,AFNE08.jpg,AFSA15.jpg,FS,4,num_8,32,num_4,0.250230371254,,,2017_Jun_01_1650,60.0203096579,FEMA4ImagesEEG,001,200526,
AFNE01.JPG,AFNE01.JPG,AFNE01.JPG,AFNE01.JPG,AFNE01.JPG,AFNE01.JPG,,,,,,,,,,,,,,,,,5,8,58,2,,,,,,,AFSA20.jpg,AFSA05.jpg,AFNE05.jpg,AFNE06.jpg,AFSA20.jpg,FS,4,num_8,16,num_8,0.266793059651,,,2017_Jun_01_1650,60.0203096579,FEMA4ImagesEEG,001,200526,
AFNE01.JPG,AFNE01.JPG,AFNE01.JPG,AFNE01.JPG,AFNE01.JPG,AFNE01.JPG,,,,,,,,,,,,,,,,,5,9,59,9,,,,,,,AFNE09.jpg,AFSA01.jpg,AFNE16.jpg,AFSA16.jpg,AFNE16.jpg,FN,3,num_2,32,num_6,0.166816505836,,,2017_Jun_01_1650,60.0203096579,FEMA4ImagesEEG,001,200526,
,,,,,,,,,,,,,,,,,,,,,,,,,,,,,,,,,,,,,,,,,,,space,0.633417057106,2017_Jun_01_1650,60.0203096579,FEMA4ImagesEEG,001,200526,
AFNE01.JPG,AFNE01.JPG,AFNE01.JPG,AFNE01.JPG,AFNE01.JPG,AFNE01.JPG,,,,,,,,,,,,,,,,,,,,,0,0,0,9,,,AMNE07.jpg,AMSA18.jpg,AMSA08.jpg,AMNE09.jpg,AMNE07.jpg,MN,1,num_8,32,num_4,0.516807893757,,,2017_Jun_01_1650,60.0203096579,FEMA4ImagesEEG,001,200526,
AFNE01.JPG,AFNE01.JPG,AFNE01.JPG,AFNE01.JPG,AFNE01.JPG,AFNE01.JPG,,,,,,,,,,,,,,,,,,,,,0,1,1,4,,,AMSA13.jpg,AMSA01.jpg,AMNE10.jpg,AMNE16.jpg,AMNE16.jpg,MN,1,num_4,32,num_6,0.233531689504,,,2017_Jun_01_1650,60.0203096579,FEMA4ImagesEEG,001,200526,
AFNE01.JPG,AFNE01.JPG,AFNE01.JPG,AFNE01.JPG,AFNE01.JPG,AFNE01.JPG,,,,,,,,,,,,,,,,,,,,,0,2,2,5,,,AMSA19.jpg,AMNE06.jpg,AMNE18.jpg,AMSA14.jpg,AMNE18.jpg,MN,1,num_2,16,num_2,0.350183832226,,,2017_Jun_01_1650,60.0203096579,FEMA4ImagesEEG,001,200526,
AFNE01.JPG,AFNE01.JPG,AFNE01.JPG,AFNE01.JPG,AFNE01.JPG,AFNE01.JPG,,,,,,,,,,,,,,,,,,,,,0,3,3,1,,,AMSA18.jpg,AMSA09.jpg,AMNE13.jpg,AMNE05.jpg,AMSA09.jpg,MS,2,num_6,32,num_8,0.283532475354,,,2017_Jun_01_1650,60.0203096579,FEMA4ImagesEEG,001,200526,
AFNE01.JPG,AFNE01.JPG,AFNE01.JPG,AFNE01.JPG,AFNE01.JPG,AFNE01.JPG,,,,,,,,,,,,,,,,,,,,,0,4,4,3,,,AMNE20.jpg,AMSA16.jpg,AMNE04.jpg,AMSA06.jpg,AMNE04.jpg,MN,1,num_2,32,num_4,0.266868433449,,,2017_Jun_01_1650,60.0203096579,FEMA4ImagesEEG,001,200526,
AFNE01.JPG,AFNE01.JPG,AFNE01.JPG,AFNE01.JPG,AFNE01.JPG,AFNE01.JPG,,,,,,,,,,,,,,,,,,,,,0,5,5,6,,,AMSA18.jpg,AMNE09.jpg,AMSA20.jpg,AMNE16.jpg,AMNE09.jpg,MN,1,num_6,16,num_6,0.283484043786,,,2017_Jun_01_1650,60.0203096579,FEMA4ImagesEEG,001,200526,
AFNE01.JPG,AFNE01.JPG,AFNE01.JPG,AFNE01.JPG,AFNE01.JPG,AFNE01.JPG,,,,,,,,,,,,,,,,,,,,,0,6,6,7,,,AMNE07.jpg,AMNE03.jpg,AMSA02.jpg,AMSA15.jpg,AMSA15.jpg,MS,2,num_4,32,num_2,0.283506495412,,,2017_Jun_01_1650,60.0203096579,FEMA4ImagesEEG,001,200526,
AFNE01.JPG,AFNE01.JPG,AFNE01.JPG,AFNE01.JPG,AFNE01.JPG,AFNE01.JPG,,,,,,,,,,,,,,,,,,,,,0,7,7,2,,,AMSA07.jpg,AMNE12.jpg,AMNE05.jpg,AMSA14.jpg,AMSA07.jpg,MS,2,num_8,16,num_8,0.283557172166,,,2017_Jun_01_1650,60.0203096579,FEMA4ImagesEEG,001,200526,
AFNE01.JPG,AFNE01.JPG,AFNE01.JPG,AFNE01.JPG,AFNE01.JPG,AFNE01.JPG,,,,,,,,,,,,,,,,,,,,,0,8,8,0,,,AMNE13.jpg,AMSA05.jpg,AMNE10.jpg,AMSA01.jpg,AMNE13.jpg,MN,1,num_8,32,num_4,0.300186253618,,,2017_Jun_01_1650,60.0203096579,FEMA4ImagesEEG,001,200526,
AFNE01.JPG,AFNE01.JPG,AFNE01.JPG,AFNE01.JPG,AFNE01.JPG,AFNE01.JPG,,,,,,,,,,,,,,,,,,,,,0,9,9,8,,,AMSA19.jpg,AMNE13.jpg,AMNE14.jpg,AMSA10.jpg,AMSA19.jpg,MS,2,num_8,32,num_6,0.283525419189,,,2017_Jun_01_1650,60.0203096579,FEMA4ImagesEEG,001,200526,
AFNE01.JPG,AFNE01.JPG,AFNE01.JPG,AFNE01.JPG,AFNE01.JPG,AFNE01.JPG,,,,,,,,,,,,,,,,,,,,,1,0,10,4,,,AMNE07.jpg,AMSA14.jpg,AMSA07.jpg,AMNE14.jpg,AMSA07.jpg,MS,2,num_2,16,num_2,0.383545272751,,,2017_Jun_01_1650,60.0203096579,FEMA4ImagesEEG,001,200526,
AFNE01.JPG,AFNE01.JPG,AFNE01.JPG,AFNE01.JPG,AFNE01.JPG,AFNE01.JPG,,,,,,,,,,,,,,,,,,,,,1,1,11,8,,,AMNE02.jpg,AMSA03.jpg,AMNE15.jpg,AMSA10.jpg,AMNE02.jpg,MN,1,num_8,16,num_8,0.250218503876,,,2017_Jun_01_1650,60.0203096579,FEMA4ImagesEEG,001,200526,
AFNE01.JPG,AFNE01.JPG,AFNE01.JPG,AFNE01.JPG,AFNE01.JPG,AFNE01.JPG,,,,,,,,,,,,,,,,,,,,,1,2,12,2,,,AMSA20.jpg,AMNE08.jpg,AMNE15.jpg,AMSA09.jpg,AMNE08.jpg,MN,1,num_6,32,num_4,0.300161556574,,,2017_Jun_01_1650,60.0203096579,FEMA4ImagesEEG,001,200526,
AFNE01.JPG,AFNE01.JPG,AFNE01.JPG,AFNE01.JPG,AFNE01.JPG,AFNE01.JPG,,,,,,,,,,,,,,,,,,,,,1,3,13,0,,,AMNE14.jpg,AMNE01.jpg,AMSA17.jpg,AMSA20.jpg,AMNE01.jpg,MN,1,num_6,16,num_6,0.30054516159,,,2017_Jun_01_1650,60.0203096579,FEMA4ImagesEEG,001,200526,
AFNE01.JPG,AFNE01.JPG,AFNE01.JPG,AFNE01.JPG,AFNE01.JPG,AFNE01.JPG,,,,,,,,,,,,,,,,,,,,,1,4,14,3,,,AMNE14.jpg,AMSA03.jpg,AMNE07.jpg,AMSA13.jpg,AMNE14.jpg,MN,1,num_8,32,num_2,0.633443999337,,,2017_Jun_01_1650,60.0203096579,FEMA4ImagesEEG,001,200526,
AFNE01.JPG,AFNE01.JPG,AFNE01.JPG,AFNE01.JPG,AFNE01.JPG,AFNE01.JPG,,,,,,,,,,,,,,,,,,,,,1,5,15,9,,,AMNE01.jpg,AMSA07.jpg,AMNE05.jpg,AMSA14.jpg,AMSA07.jpg,MS,2,num_6,32,num_8,0.267101932084,,,2017_Jun_01_1650,60.0203096579,FEMA4ImagesEEG,001,200526,
AFNE01.JPG,AFNE01.JPG,AFNE01.JPG,AFNE01.JPG,AFNE01.JPG,AFNE01.JPG,,,,,,,,,,,,,,,,,,,,,1,6,16,7,,,AMSA11.jpg,AMNE12.jpg,AMSA19.jpg,AMNE18.jpg,AMSA19.jpg,MS,2,num_2,32,num_4,0.250175204361,,,2017_Jun_01_1650,60.0203096579,FEMA4ImagesEEG,001,200526,
AFNE01.JPG,AFNE01.JPG,AFNE01.JPG,AFNE01.JPG,AFNE01.JPG,AFNE01.JPG,,,,,,,,,,,,,,,,,,,,,1,7,17,5,,,AMSA03.jpg,AMNE01.jpg,AMNE16.jpg,AMSA19.jpg,AMNE01.jpg,MN,1,num_6,16,num_6,0.250289066928,,,2017_Jun_01_1650,60.0203096579,FEMA4ImagesEEG,001,200526,
AFNE01.JPG,AFNE01.JPG,AFNE01.JPG,AFNE01.JPG,AFNE01.JPG,AFNE01.JPG,,,,,,,,,,,,,,,,,,,,,1,8,18,1,,,AMNE14.jpg,AMSA14.jpg,AMSA15.jpg,AMNE09.jpg,AMNE09.jpg,MN,1,num_4,32,num_2,0.000224197283387,,,2017_Jun_01_1650,60.0203096579,FEMA4ImagesEEG,001,200526,
AFNE01.JPG,AFNE01.JPG,AFNE01.JPG,AFNE01.JPG,AFNE01.JPG,AFNE01.JPG,,,,,,,,,,,,,,,,,,,,,1,9,19,6,,,AMSA02.jpg,AMNE19.jpg,AMSA19.jpg,AMNE09.jpg,AMSA19.jpg,MS,2,num_2,32,num_8,0.26679787063,,,2017_Jun_01_1650,60.0203096579,FEMA4ImagesEEG,001,200526,
AFNE01.JPG,AFNE01.JPG,AFNE01.JPG,AFNE01.JPG,AFNE01.JPG,AFNE01.JPG,,,,,,,,,,,,,,,,,,,,,2,0,20,9,,,AMSA11.jpg,AMNE06.jpg,AMNE16.jpg,AMSA15.jpg,AMNE06.jpg,MN,1,num_6,32,num_4,0.283264336875,,,2017_Jun_01_1650,60.0203096579,FEMA4ImagesEEG,001,200526,
AFNE01.JPG,AFNE01.JPG,AFNE01.JPG,AFNE01.JPG,AFNE01.JPG,AFNE01.JPG,,,,,,,,,,,,,,,,,,,,,2,1,21,7,,,AMNE11.jpg,AMSA02.jpg,AMNE07.jpg,AMSA17.jpg,AMSA17.jpg,MS,2,num_4,32,num_6,0.250166223384,,,2017_Jun_01_1650,60.0203096579,FEMA4ImagesEEG,001,200526,
AFNE01.JPG,AFNE01.JPG,AFNE01.JPG,AFNE01.JPG,AFNE01.JPG,AFNE01.JPG,,,,,,,,,,,,,,,,,,,,,2,2,22,8,,,AMSA05.jpg,AMNE18.jpg,AMSA15.jpg,AMNE01.jpg,AMNE18.jpg,MN,1,num_6,32,num_2,0.333547052927,,,2017_Jun_01_1650,60.0203096579,FEMA4ImagesEEG,001,200526,
AFNE01.JPG,AFNE01.JPG,AFNE01.JPG,AFNE01.JPG,AFNE01.JPG,AFNE01.JPG,,,,,,,,,,,,,,,,,,,,,2,3,23,2,,,AMNE01.jpg,AMSA02.jpg,AMSA20.jpg,AMNE02.jpg,AMNE01.jpg,MN,1,num_8,16,num_8,0.566742928,,,2017_Jun_01_1650,60.0203096579,FEMA4ImagesEEG,001,200526,
AFNE01.JPG,AFNE01.JPG,AFNE01.JPG,AFNE01.JPG,AFNE01.JPG,AFNE01.JPG,,,,,,,,,,,,,,,,,,,,,2,4,24,5,,,AMNE06.jpg,AMSA14.jpg,AMSA19.jpg,AMNE04.jpg,AMSA19.jpg,MS,2,num_2,32,num_4,0.333543204237,,,2017_Jun_01_1650,60.0203096579,FEMA4ImagesEEG,001,200526,
AFNE01.JPG,AFNE01.JPG,AFNE01.JPG,AFNE01.JPG,AFNE01.JPG,AFNE01.JPG,,,,,,,,,,,,,,,,,,,,,2,5,25,1,,,AMNE05.jpg,AMSA10.jpg,AMSA14.jpg,AMNE01.jpg,AMNE01.jpg,MN,1,num_4,32,num_6,0.066848611692,,,2017_Jun_01_1650,60.0203096579,FEMA4ImagesEEG,001,200526,
AFNE01.JPG,AFNE01.JPG,AFNE01.JPG,AFNE01.JPG,AFNE01.JPG,AFNE01.JPG,,,,,,,,,,,,,,,,,,,,,2,6,26,4,,,AMSA17.jpg,AMNE20.jpg,AMNE07.jpg,AMSA09.jpg,AMNE07.jpg,MN,1,num_2,16,num_2,0.366768009961,,,2017_Jun_01_1650,60.0203096579,FEMA4ImagesEEG,001,200526,
AFNE01.JPG,AFNE01.JPG,AFNE01.JPG,AFNE01.JPG,AFNE01.JPG,AFNE01.JPG,,,,,,,,,,,,,,,,,,,,,2,7,27,6,,,AMNE17.jpg,AMSA15.jpg,AMNE06.jpg,AMSA02.jpg,AMSA15.jpg,MS,2,num_6,32,num_8,0.416880733799,,,2017_Jun_01_1650,60.0203096579,FEMA4ImagesEEG,001,200526,
AFNE01.JPG,AFNE01.JPG,AFNE01.JPG,AFNE01.JPG,AFNE01.JPG,AFNE01.JPG,,,,,,,,,,,,,,,,,,,,,2,8,28,0,,,AMNE13.jpg,AMSA03.jpg,AMNE06.jpg,AMSA02.jpg,AMSA02.jpg,MS,2,num_4,16,num_4,0.133507987019,,,2017_Jun_01_1650,60.0203096579,FEMA4ImagesEEG,001,200526,
AFNE01.JPG,AFNE01.JPG,AFNE01.JPG,AFNE01.JPG,AFNE01.JPG,AFNE01.JPG,,,,,,,,,,,,,,,,,,,,,2,9,29,3,,,AMSA13.jpg,AMSA09.jpg,AMNE13.jpg,AMNE16.jpg,AMSA09.jpg,MS,2,num_6,16,num_6,0.283527343534,,,2017_Jun_01_1650,60.0203096579,FEMA4ImagesEEG,001,200526,
AFNE01.JPG,AFNE01.JPG,AFNE01.JPG,AFNE01.JPG,AFNE01.JPG,AFNE01.JPG,,,,,,,,,,,,,,,,,,,,,3,0,30,7,,,AMSA12.jpg,AMNE16.jpg,AMNE08.jpg,AMSA06.jpg,AMSA06.jpg,MS,2,num_4,16,num_4,0.500044743065,,,2017_Jun_01_1650,60.0203096579,FEMA4ImagesEEG,001,200526,
AFNE01.JPG,AFNE01.JPG,AFNE01.JPG,AFNE01.JPG,AFNE01.JPG,AFNE01.JPG,,,,,,,,,,,,,,,,,,,,,3,1,31,9,,,AMNE04.jpg,AMSA07.jpg,AMNE18.jpg,AMSA04.jpg,AMNE04.jpg,MN,1,num_8,32,num_6,0.300156104146,,,2017_Jun_01_1650,60.0203096579,FEMA4ImagesEEG,001,200526,
AFNE01.JPG,AFNE01.JPG,AFNE01.JPG,AFNE01.JPG,AFNE01.JPG,AFNE01.JPG,,,,,,,,,,,,,,,,,,,,,3,2,32,3,,,AMNE09.jpg,AMNE14.jpg,AMSA16.jpg,AMSA17.jpg,AMNE09.jpg,MN,1,num_8,16,num_8,0.366840817733,,,2017_Jun_01_1650,60.0203096579,FEMA4ImagesEEG,001,200526,
AFNE01.JPG,AFNE01.JPG,AFNE01.JPG,AFNE01.JPG,AFNE01.JPG,AFNE01.JPG,,,,,,,,,,,,,,,,,,,,,3,3,33,5,,,AMSA05.jpg,AMNE04.jpg,AMSA09.jpg,AMNE12.jpg,AMNE12.jpg,MN,1,num_4,32,num_2,0.300154821249,,,2017_Jun_01_1650,60.0203096579,FEMA4ImagesEEG,001,200526,
AFNE01.JPG,AFNE01.JPG,AFNE01.JPG,AFNE01.JPG,AFNE01.JPG,AFNE01.JPG,,,,,,,,,,,,,,,,,,,,,3,4,34,1,,,AMNE08.jpg,AMNE15.jpg,AMSA18.jpg,AMSA03.jpg,AMNE08.jpg,MN,1,num_8,32,num_4,0.0835190685466,,,2017_Jun_01_1650,60.0203096579,FEMA4ImagesEEG,001,200526,
AFNE01.JPG,AFNE01.JPG,AFNE01.JPG,AFNE01.JPG,AFNE01.JPG,AFNE01.JPG,,,,,,,,,,,,,,,,,,,,,3,5,35,0,,,AMNE11.jpg,AMSA18.jpg,AMNE17.jpg,AMSA13.jpg,AMNE11.jpg,MN,1,num_8,32,num_6,0.0502955457196,,,2017_Jun_01_1650,60.0203096579,FEMA4ImagesEEG,001,200526,
AFNE01.JPG,AFNE01.JPG,AFNE01.JPG,AFNE01.JPG,AFNE01.JPG,AFNE01.JPG,,,,,,,,,,,,,,,,,,,,,3,6,36,6,,,AMSA13.jpg,AMNE04.jpg,AMSA06.jpg,AMNE14.jpg,AMSA13.jpg,MS,2,num_8,16,num_8,0.600492784753,,,2017_Jun_01_1650,60.0203096579,FEMA4ImagesEEG,001,200526,
AFNE01.JPG,AFNE01.JPG,AFNE01.JPG,AFNE01.JPG,AFNE01.JPG,AFNE01.JPG,,,,,,,,,,,,,,,,,,,,,3,7,37,8,,,AMSA15.jpg,AMNE20.jpg,AMNE01.jpg,AMSA14.jpg,AMSA14.jpg,MS,2,num_4,16,num_4,0.300184329273,,,2017_Jun_01_1650,60.0203096579,FEMA4ImagesEEG,001,200526,
AFNE01.JPG,AFNE01.JPG,AFNE01.JPG,AFNE01.JPG,AFNE01.JPG,AFNE01.JPG,,,,,,,,,,,,,,,,,,,,,3,8,38,4,,,AMNE15.jpg,AMSA10.jpg,AMNE07.jpg,AMSA17.jpg,AMNE07.jpg,MN,1,num_2,16,num_2,0.400011097547,,,2017_Jun_01_1650,60.0203096579,FEMA4ImagesEEG,001,200526,
