IPosition2,IPosition3,IPosition1,IPosition6,IPosition4,IPosition5,TrialsF1.thisRepN,TrialsF1.thisTrialN,TrialsF1.thisN,TrialsF1.thisIndex,TrialsM1.thisRepN,TrialsM1.thisTrialN,TrialsM1.thisN,TrialsM1.thisIndex,TrialsF2.thisRepN,TrialsF2.thisTrialN,TrialsF2.thisN,TrialsF2.thisIndex,TrialsM2.thisRepN,TrialsM2.thisTrialN,TrialsM2.thisN,TrialsM2.thisIndex,TrialsF3.thisRepN,TrialsF3.thisTrialN,TrialsF3.thisN,TrialsF3.thisIndex,TrialsM3.thisRepN,TrialsM3.thisTrialN,TrialsM3.thisN,TrialsM3.thisIndex,InstrKey_resp.keys,InstrKey_resp.rt,Image0 _Position,Image1 _Position,Image2 _Position,Image3 _Position,Center_image,condition,code,correct_answer,accuracy,Key_Resp.keys,Key_Resp.rt,BreakKey_resp.keys,BreakKey_resp.rt,date,frameRate,expName,session,participant,
,,,,,,,,,,,,,,,,,,,,,,,,,,,,,,space,12.8826428516,,,,,,,,,,,,,,2017_Jun_08_1341,60.0067170284,FEMA4ImagesEEG,001,200515,
AFSA21.JPG,AFNE23.JPG,AFNE21.JPG,AFSA25.JPG,AFNE25.JPG,AFSA23.JPG,0,0,0,4,,,,,,,,,,,,,,,,,,,,,,,AFNE12.jpg,AFSA16.jpg,AFNE16.jpg,AFSA09.jpg,AFNE16.jpg,FN,3,num_2,32,num_4,1.36675327691,,,2017_Jun_08_1341,60.0067170284,FEMA4ImagesEEG,001,200515,
AMSA21.JPG,AMNE22.JPG,AMNE21.JPG,AMSA23.JPG,AMSA22.JPG,AMNE23.JPG,0,1,1,1,,,,,,,,,,,,,,,,,,,,,,,AFSA17.jpg,AFNE18.jpg,AFSA19.jpg,AFNE04.jpg,AFNE04.jpg,FN,3,num_4,32,num_6,0.550147716385,,,2017_Jun_08_1341,60.0067170284,FEMA4ImagesEEG,001,200515,
AMSA25.JPG,AMNE24.JPG,AMSA24.JPG,AMNE26.JPG,AMSA21.JPG,AMNE25.JPG,0,2,2,3,,,,,,,,,,,,,,,,,,,,,,,AFSA13.jpg,AFNE18.jpg,AFNE03.jpg,AFSA05.jpg,AFSA13.jpg,FS,4,num_8,16,num_8,0.500131663393,,,2017_Jun_08_1341,60.0067170284,FEMA4ImagesEEG,001,200515,
AMNE22.JPG,AMSA24.JPG,AMSA22.JPG,AMNE25.JPG,AMNE24.JPG,AMSA25.JPG,0,3,3,7,,,,,,,,,,,,,,,,,,,,,,,AFNE06.jpg,AFNE05.jpg,AFSA06.jpg,AFSA11.jpg,AFNE05.jpg,FN,3,num_6,16,num_6,0.400140612013,,,2017_Jun_08_1341,60.0067170284,FEMA4ImagesEEG,001,200515,
AFNE23.JPG,AFNE24.JPG,AFNE22.JPG,AFSA24.JPG,AFSA22.JPG,AFSA23.JPG,0,4,4,8,,,,,,,,,,,,,,,,,,,,,,,AFSA17.jpg,AFNE18.jpg,AFNE03.jpg,AFSA06.jpg,AFSA06.jpg,FS,4,num_4,16,num_4,0.483511605464,,,2017_Jun_08_1341,60.0067170284,FEMA4ImagesEEG,001,200515,
AFSA21.JPG,AFNE22.JPG,AFNE21.JPG,AFSA23.JPG,AFSA22.JPG,AFNE23.JPG,0,5,5,0,,,,,,,,,,,,,,,,,,,,,,,AFNE17.jpg,AFSA10.jpg,AFSA03.jpg,AFNE15.jpg,AFNE15.jpg,FN,3,num_4,32,num_6,0.316800730259,,,2017_Jun_08_1341,60.0067170284,FEMA4ImagesEEG,001,200515,
AFSA25.JPG,AFNE24.JPG,AFSA24.JPG,AFNE21.JPG,AFSA21.JPG,AFNE25.JPG,0,6,6,2,,,,,,,,,,,,,,,,,,,,,,,AFSA16.jpg,AFNE04.jpg,AFSA09.jpg,AFNE13.jpg,AFNE13.jpg,FN,3,num_4,32,num_8,0.41676997138,,,2017_Jun_08_1341,60.0067170284,FEMA4ImagesEEG,001,200515,
AMSA21.JPG,AMNE23.JPG,AMNE21.JPG,AMSA25.JPG,AMNE25.JPG,AMSA23.JPG,0,7,7,5,,,,,,,,,,,,,,,,,,,,,,,AFNE09.jpg,AFSA17.jpg,AFNE03.jpg,AFSA03.jpg,AFSA03.jpg,FS,4,num_4,16,num_4,0.483489474465,,,2017_Jun_08_1341,60.0067170284,FEMA4ImagesEEG,001,200515,
AMNE23.JPG,AMNE24.JPG,AMNE22.JPG,AMSA24.JPG,AMSA22.JPG,AMSA23.JPG,0,8,8,9,,,,,,,,,,,,,,,,,,,,,,,AFNE18.jpg,AFSA15.jpg,AFNE02.jpg,AFSA20.jpg,AFSA15.jpg,FS,4,num_6,16,num_6,0.433502929471,,,2017_Jun_08_1341,60.0067170284,FEMA4ImagesEEG,001,200515,
AFNE22.JPG,AFSA24.JPG,AFSA22.JPG,AFNE25.JPG,AFNE24.JPG,AFSA25.JPG,0,9,9,6,,,,,,,,,,,,,,,,,,,,,,,AFNE09.jpg,AFSA17.jpg,AFSA15.jpg,AFNE12.jpg,AFSA15.jpg,FS,4,num_2,16,num_2,1.44992348769,,,2017_Jun_08_1341,60.0067170284,FEMA4ImagesEEG,001,200515,
AMNE23.JPG,AMNE24.JPG,AMNE22.JPG,AMSA24.JPG,AMSA22.JPG,AMSA23.JPG,,,,,0,0,0,9,,,,,,,,,,,,,,,,,,,AMSA15.jpg,AMSA07.jpg,AMNE08.jpg,AMNE06.jpg,AMSA15.jpg,MS,2,num_8,16,num_8,1.01675156096,,,2017_Jun_08_1341,60.0067170284,FEMA4ImagesEEG,001,200515,
AFSA21.JPG,AFNE22.JPG,AFNE21.JPG,AFSA23.JPG,AFSA22.JPG,AFNE23.JPG,,,,,0,1,1,0,,,,,,,,,,,,,,,,,,,AMSA20.jpg,AMSA01.jpg,AMNE15.jpg,AMNE19.jpg,AMNE19.jpg,MN,1,num_4,32,num_2,1.18342138156,,,2017_Jun_08_1341,60.0067170284,FEMA4ImagesEEG,001,200515,
AMSA21.JPG,AMNE23.JPG,AMNE21.JPG,AMSA25.JPG,AMNE25.JPG,AMSA23.JPG,,,,,0,2,2,5,,,,,,,,,,,,,,,,,,,AMNE09.jpg,AMNE01.jpg,AMSA08.jpg,AMSA20.jpg,AMNE09.jpg,MN,1,num_8,16,num_8,0.73346517848,,,2017_Jun_08_1341,60.0067170284,FEMA4ImagesEEG,001,200515,
AFSA21.JPG,AFNE23.JPG,AFNE21.JPG,AFSA25.JPG,AFNE25.JPG,AFSA23.JPG,,,,,0,3,3,4,,,,,,,,,,,,,,,,,,,AMSA15.jpg,AMSA13.jpg,AMNE13.jpg,AMNE19.jpg,AMNE13.jpg,MN,1,num_2,32,num_8,0.766728708297,,,2017_Jun_08_1341,60.0067170284,FEMA4ImagesEEG,001,200515,
AFNE23.JPG,AFNE24.JPG,AFNE22.JPG,AFSA24.JPG,AFSA22.JPG,AFSA23.JPG,,,,,0,4,4,8,,,,,,,,,,,,,,,,,,,AMSA01.jpg,AMNE18.jpg,AMSA04.jpg,AMNE17.jpg,AMNE17.jpg,MN,1,num_4,16,num_4,0.816745082027,,,2017_Jun_08_1341,60.0067170284,FEMA4ImagesEEG,001,200515,
AMSA21.JPG,AMNE22.JPG,AMNE21.JPG,AMSA23.JPG,AMSA22.JPG,AMNE23.JPG,,,,,0,5,5,1,,,,,,,,,,,,,,,,,,,AMNE19.jpg,AMSA14.jpg,AMNE03.jpg,AMSA10.jpg,AMNE03.jpg,MN,1,num_2,32,num_8,0.983429977365,,,2017_Jun_08_1341,60.0067170284,FEMA4ImagesEEG,001,200515,
AMSA25.JPG,AMNE24.JPG,AMSA24.JPG,AMNE26.JPG,AMSA21.JPG,AMNE25.JPG,,,,,0,6,6,3,,,,,,,,,,,,,,,,,,,AMSA09.jpg,AMNE12.jpg,AMNE09.jpg,AMSA03.jpg,AMSA03.jpg,MS,2,num_4,16,num_4,0.966747375311,,,2017_Jun_08_1341,60.0067170284,FEMA4ImagesEEG,001,200515,
AFNE22.JPG,AFSA24.JPG,AFSA22.JPG,AFNE25.JPG,AFNE24.JPG,AFSA25.JPG,,,,,0,7,7,6,,,,,,,,,,,,,,,,,,,AMNE01.jpg,AMSA16.jpg,AMNE13.jpg,AMSA09.jpg,AMNE13.jpg,MN,1,num_2,32,num_6,0.316670189452,,,2017_Jun_08_1341,60.0067170284,FEMA4ImagesEEG,001,200515,
AMNE22.JPG,AMSA24.JPG,AMSA22.JPG,AMNE25.JPG,AMNE24.JPG,AMSA25.JPG,,,,,0,8,8,7,,,,,,,,,,,,,,,,,,,AMSA10.jpg,AMSA02.jpg,AMNE05.jpg,AMNE16.jpg,AMNE05.jpg,MN,1,num_2,32,num_4,0.383492970523,,,2017_Jun_08_1341,60.0067170284,FEMA4ImagesEEG,001,200515,
AFSA25.JPG,AFNE24.JPG,AFSA24.JPG,AFNE21.JPG,AFSA21.JPG,AFNE25.JPG,,,,,0,9,9,2,,,,,,,,,,,,,,,,,,,AMSA13.jpg,AMNE12.jpg,AMSA03.jpg,AMNE18.jpg,AMSA13.jpg,MS,2,num_8,16,num_8,0.966725565053,,,2017_Jun_08_1341,60.0067170284,FEMA4ImagesEEG,001,200515,
AMSA25.JPG,AMNE24.JPG,AMSA24.JPG,AMNE26.JPG,AMSA21.JPG,AMNE25.JPG,,,,,,,,,0,0,0,3,,,,,,,,,,,,,,,AFSA17.jpg,AFNE16.jpg,AFNE02.jpg,AFSA05.jpg,AFSA05.jpg,FS,4,num_4,16,num_4,0.816766571546,,,2017_Jun_08_1341,60.0067170284,FEMA4ImagesEEG,001,200515,
AMNE22.JPG,AMSA24.JPG,AMSA22.JPG,AMNE25.JPG,AMNE24.JPG,AMSA25.JPG,,,,,,,,,0,1,1,7,,,,,,,,,,,,,,,AFSA07.jpg,AFNE14.jpg,AFNE16.jpg,AFSA05.jpg,AFNE16.jpg,FN,3,num_2,32,num_4,0.7168053489,,,2017_Jun_08_1341,60.0067170284,FEMA4ImagesEEG,001,200515,
AFNE22.JPG,AFSA24.JPG,AFSA22.JPG,AFNE25.JPG,AFNE24.JPG,AFSA25.JPG,,,,,,,,,0,2,2,6,,,,,,,,,,,,,,,AFSA12.jpg,AFNE01.jpg,AFSA01.jpg,AFNE03.jpg,AFSA01.jpg,FS,4,num_2,32,num_8,0.333573459997,,,2017_Jun_08_1341,60.0067170284,FEMA4ImagesEEG,001,200515,
AMNE23.JPG,AMNE24.JPG,AMNE22.JPG,AMSA24.JPG,AMSA22.JPG,AMSA23.JPG,,,,,,,,,0,3,3,9,,,,,,,,,,,,,,,AFSA10.jpg,AFNE17.jpg,AFNE05.jpg,AFSA08.jpg,AFNE17.jpg,FN,3,num_6,16,num_6,0.583501373887,,,2017_Jun_08_1341,60.0067170284,FEMA4ImagesEEG,001,200515,
AFSA21.JPG,AFNE23.JPG,AFNE21.JPG,AFSA25.JPG,AFNE25.JPG,AFSA23.JPG,,,,,,,,,0,4,4,4,,,,,,,,,,,,,,,AFNE09.jpg,AFSA07.jpg,AFNE15.jpg,AFSA06.jpg,AFSA07.jpg,FS,4,num_6,32,num_8,0.550139697909,,,2017_Jun_08_1341,60.0067170284,FEMA4ImagesEEG,001,200515,
AFNE23.JPG,AFNE24.JPG,AFNE22.JPG,AFSA24.JPG,AFSA22.JPG,AFSA23.JPG,,,,,,,,,0,5,5,8,,,,,,,,,,,,,,,AFSA01.jpg,AFNE07.jpg,AFNE10.jpg,AFSA13.jpg,AFSA13.jpg,FS,4,num_4,32,num_6,0.533488849025,,,2017_Jun_08_1341,60.0067170284,FEMA4ImagesEEG,001,200515,
AMSA21.JPG,AMNE22.JPG,AMNE21.JPG,AMSA23.JPG,AMSA22.JPG,AMNE23.JPG,,,,,,,,,0,6,6,1,,,,,,,,,,,,,,,AFNE01.jpg,AFSA14.jpg,AFSA17.jpg,AFNE12.jpg,AFNE12.jpg,FN,3,num_4,32,num_8,0.616778054005,,,2017_Jun_08_1341,60.0067170284,FEMA4ImagesEEG,001,200515,
AMSA21.JPG,AMNE23.JPG,AMNE21.JPG,AMSA25.JPG,AMNE25.JPG,AMSA23.JPG,,,,,,,,,0,7,7,5,,,,,,,,,,,,,,,AFSA08.jpg,AFSA12.jpg,AFNE18.jpg,AFNE07.jpg,AFSA12.jpg,FS,4,num_6,32,num_4,0.216809037402,,,2017_Jun_08_1341,60.0067170284,FEMA4ImagesEEG,001,200515,
AFSA21.JPG,AFNE22.JPG,AFNE21.JPG,AFSA23.JPG,AFSA22.JPG,AFNE23.JPG,,,,,,,,,0,8,8,0,,,,,,,,,,,,,,,AFNE06.jpg,AFSA18.jpg,AFSA09.jpg,AFNE07.jpg,AFSA18.jpg,FS,4,num_6,16,num_6,0.533544978363,,,2017_Jun_08_1341,60.0067170284,FEMA4ImagesEEG,001,200515,
AFSA25.JPG,AFNE24.JPG,AFSA24.JPG,AFNE21.JPG,AFSA21.JPG,AFNE25.JPG,,,,,,,,,0,9,9,2,,,,,,,,,,,,,,,AFSA02.jpg,AFSA15.jpg,AFNE14.jpg,AFNE06.jpg,AFNE06.jpg,FN,3,num_4,32,num_6,1.00007890181,,,2017_Jun_08_1341,60.0067170284,FEMA4ImagesEEG,001,200515,
AFSA21.JPG,AFNE23.JPG,AFNE21.JPG,AFSA25.JPG,AFNE25.JPG,AFSA23.JPG,,,,,,,,,,,,,0,0,0,4,,,,,,,,,,,AMSA04.jpg,AMSA18.jpg,AMNE13.jpg,AMNE10.jpg,AMSA04.jpg,MS,2,num_8,32,num_6,0.683442710708,,,2017_Jun_08_1341,60.0067170284,FEMA4ImagesEEG,001,200515,
AMSA25.JPG,AMNE24.JPG,AMSA24.JPG,AMNE26.JPG,AMSA21.JPG,AMNE25.JPG,,,,,,,,,,,,,0,1,1,3,,,,,,,,,,,AMNE15.jpg,AMSA11.jpg,AMNE07.jpg,AMSA06.jpg,AMNE15.jpg,MN,1,num_8,16,num_8,0.366788558209,,,2017_Jun_08_1341,60.0067170284,FEMA4ImagesEEG,001,200515,
AMNE23.JPG,AMNE24.JPG,AMNE22.JPG,AMSA24.JPG,AMSA22.JPG,AMSA23.JPG,,,,,,,,,,,,,0,2,2,9,,,,,,,,,,,AMNE15.jpg,AMNE03.jpg,AMSA01.jpg,AMSA20.jpg,AMSA01.jpg,MS,2,num_2,32,num_6,0.666774541913,,,2017_Jun_08_1341,60.0067170284,FEMA4ImagesEEG,001,200515,
AFNE22.JPG,AFSA24.JPG,AFSA22.JPG,AFNE25.JPG,AFNE24.JPG,AFSA25.JPG,,,,,,,,,,,,,0,3,3,6,,,,,,,,,,,AMSA14.jpg,AMNE09.jpg,AMNE05.jpg,AMSA19.jpg,AMSA19.jpg,MS,2,num_4,16,num_4,0.450136779182,,,2017_Jun_08_1341,60.0067170284,FEMA4ImagesEEG,001,200515,
AMNE22.JPG,AMSA24.JPG,AMSA22.JPG,AMNE25.JPG,AMNE24.JPG,AMSA25.JPG,,,,,,,,,,,,,0,4,4,7,,,,,,,,,,,AMSA02.jpg,AMSA13.jpg,AMNE13.jpg,AMNE20.jpg,AMNE20.jpg,MN,1,num_4,16,num_4,0.616798902045,,,2017_Jun_08_1341,60.0067170284,FEMA4ImagesEEG,001,200515,
AFSA25.JPG,AFNE24.JPG,AFSA24.JPG,AFNE21.JPG,AFSA21.JPG,AFNE25.JPG,,,,,,,,,,,,,0,5,5,2,,,,,,,,,,,AMNE03.jpg,AMSA10.jpg,AMSA15.jpg,AMNE14.jpg,AMNE03.jpg,MN,1,num_8,16,num_8,0.933551200704,,,2017_Jun_08_1341,60.0067170284,FEMA4ImagesEEG,001,200515,
AMSA21.JPG,AMNE23.JPG,AMNE21.JPG,AMSA25.JPG,AMNE25.JPG,AMSA23.JPG,,,,,,,,,,,,,0,6,6,5,,,,,,,,,,,AMSA05.jpg,AMSA18.jpg,AMNE08.jpg,AMNE03.jpg,AMNE03.jpg,MN,1,num_4,32,num_6,0.80010225162,,,2017_Jun_08_1341,60.0067170284,FEMA4ImagesEEG,001,200515,
AFNE23.JPG,AFNE24.JPG,AFNE22.JPG,AFSA24.JPG,AFSA22.JPG,AFSA23.JPG,,,,,,,,,,,,,0,7,7,8,,,,,,,,,,,AMNE13.jpg,AMSA18.jpg,AMSA02.jpg,AMNE06.jpg,AMSA02.jpg,MS,2,num_2,32,num_4,0.716797009685,,,2017_Jun_08_1341,60.0067170284,FEMA4ImagesEEG,001,200515,
AFSA21.JPG,AFNE22.JPG,AFNE21.JPG,AFSA23.JPG,AFSA22.JPG,AFNE23.JPG,,,,,,,,,,,,,0,8,8,0,,,,,,,,,,,AMSA11.jpg,AMNE15.jpg,AMNE14.jpg,AMSA17.jpg,AMSA17.jpg,MS,2,num_4,32,num_8,0.416795630506,,,2017_Jun_08_1341,60.0067170284,FEMA4ImagesEEG,001,200515,
AMSA21.JPG,AMNE22.JPG,AMNE21.JPG,AMSA23.JPG,AMSA22.JPG,AMNE23.JPG,,,,,,,,,,,,,0,9,9,1,,,,,,,,,,,AMSA03.jpg,AMSA15.jpg,AMNE14.jpg,AMNE15.jpg,AMSA03.jpg,MS,2,num_8,32,num_6,0.600178523377,,,2017_Jun_08_1341,60.0067170284,FEMA4ImagesEEG,001,200515,
AMNE23.JPG,AMNE24.JPG,AMNE22.JPG,AMSA24.JPG,AMSA22.JPG,AMSA23.JPG,,,,,,,,,,,,,,,,,0,0,0,9,,,,,,,AFNE16.jpg,AFSA05.jpg,AFSA11.jpg,AFNE07.jpg,AFNE16.jpg,FN,3,num_8,16,num_8,0.600153826465,,,2017_Jun_08_1341,60.0067170284,FEMA4ImagesEEG,001,200515,
AMSA21.JPG,AMNE22.JPG,AMNE21.JPG,AMSA23.JPG,AMSA22.JPG,AMNE23.JPG,,,,,,,,,,,,,,,,,0,1,1,1,,,,,,,AFSA02.jpg,AFSA06.jpg,AFNE06.jpg,AFNE20.jpg,AFSA06.jpg,FS,4,num_6,32,num_2,1.45011785558,,,2017_Jun_08_1341,60.0067170284,FEMA4ImagesEEG,001,200515,
AMSA25.JPG,AMNE24.JPG,AMSA24.JPG,AMNE26.JPG,AMSA21.JPG,AMNE25.JPG,,,,,,,,,,,,,,,,,0,2,2,3,,,,,,,AFSA06.jpg,AFNE02.jpg,AFNE04.jpg,AFSA12.jpg,AFNE04.jpg,FN,3,num_2,32,num_8,1.55012462317,,,2017_Jun_08_1341,60.0067170284,FEMA4ImagesEEG,001,200515,
AFSA25.JPG,AFNE24.JPG,AFSA24.JPG,AFNE21.JPG,AFSA21.JPG,AFNE25.JPG,,,,,,,,,,,,,,,,,0,3,3,2,,,,,,,AFSA14.jpg,AFNE15.jpg,AFSA11.jpg,AFNE17.jpg,AFSA14.jpg,FS,4,num_8,32,num_6,0.350114936851,,,2017_Jun_08_1341,60.0067170284,FEMA4ImagesEEG,001,200515,
AFSA21.JPG,AFNE22.JPG,AFNE21.JPG,AFSA23.JPG,AFSA22.JPG,AFNE23.JPG,,,,,,,,,,,,,,,,,0,4,4,0,,,,,,,AFSA07.jpg,AFSA18.jpg,AFNE09.jpg,AFNE02.jpg,AFNE09.jpg,FN,3,num_2,32,num_4,0.383528251821,,,2017_Jun_08_1341,60.0067170284,FEMA4ImagesEEG,001,200515,
AFSA21.JPG,AFNE23.JPG,AFNE21.JPG,AFSA25.JPG,AFNE25.JPG,AFSA23.JPG,,,,,,,,,,,,,,,,,0,5,5,4,,,,,,,AFNE02.jpg,AFNE01.jpg,AFSA01.jpg,AFSA02.jpg,AFSA02.jpg,FS,4,num_4,32,num_6,0.333645305549,,,2017_Jun_08_1341,60.0067170284,FEMA4ImagesEEG,001,200515,
AMSA21.JPG,AMNE23.JPG,AMNE21.JPG,AMSA25.JPG,AMNE25.JPG,AMSA23.JPG,,,,,,,,,,,,,,,,,0,6,6,5,,,,,,,AFNE01.jpg,AFNE17.jpg,AFSA17.jpg,AFSA10.jpg,AFSA10.jpg,FS,4,num_4,32,num_2,1.74995822373,,,2017_Jun_08_1341,60.0067170284,FEMA4ImagesEEG,001,200515,
AFNE23.JPG,AFNE24.JPG,AFNE22.JPG,AFSA24.JPG,AFSA22.JPG,AFSA23.JPG,,,,,,,,,,,,,,,,,0,7,7,8,,,,,,,AFSA13.jpg,AFSA02.jpg,AFNE03.jpg,AFNE05.jpg,AFNE03.jpg,FN,3,num_2,32,num_8,1.05016487593,,,2017_Jun_08_1341,60.0067170284,FEMA4ImagesEEG,001,200515,
AFNE22.JPG,AFSA24.JPG,AFSA22.JPG,AFNE25.JPG,AFNE24.JPG,AFSA25.JPG,,,,,,,,,,,,,,,,,0,8,8,6,,,,,,,AFNE18.jpg,AFNE15.jpg,AFSA14.jpg,AFSA11.jpg,AFNE18.jpg,FN,3,num_8,32,num_6,0.517121212753,,,2017_Jun_08_1341,60.0067170284,FEMA4ImagesEEG,001,200515,
AMNE22.JPG,AMSA24.JPG,AMSA22.JPG,AMNE25.JPG,AMNE24.JPG,AMSA25.JPG,,,,,,,,,,,,,,,,,0,9,9,7,,,,,,,AFSA02.jpg,AFNE13.jpg,AFNE07.jpg,AFSA06.jpg,AFSA02.jpg,FS,4,num_8,32,num_4,0.93348897732,,,2017_Jun_08_1341,60.0067170284,FEMA4ImagesEEG,001,200515,
AMNE22.JPG,AMSA24.JPG,AMSA22.JPG,AMNE25.JPG,AMNE24.JPG,AMSA25.JPG,,,,,,,,,,,,,,,,,,,,,0,0,0,7,,,AMNE12.jpg,AMNE09.jpg,AMSA04.jpg,AMSA01.jpg,AMSA04.jpg,MS,2,num_2,16,num_2,1.2167031935,,,2017_Jun_08_1341,60.0067170284,FEMA4ImagesEEG,001,200515,
AFNE23.JPG,AFNE24.JPG,AFNE22.JPG,AFSA24.JPG,AFSA22.JPG,AFSA23.JPG,,,,,,,,,,,,,,,,,,,,,0,1,1,8,,,AMSA07.jpg,AMSA15.jpg,AMNE10.jpg,AMNE09.jpg,AMSA15.jpg,MS,2,num_6,16,num_6,0.70013942528,,,2017_Jun_08_1341,60.0067170284,FEMA4ImagesEEG,001,200515,
AFSA21.JPG,AFNE23.JPG,AFNE21.JPG,AFSA25.JPG,AFNE25.JPG,AFSA23.JPG,,,,,,,,,,,,,,,,,,,,,0,2,2,4,,,AMNE13.jpg,AMNE07.jpg,AMSA14.jpg,AMSA11.jpg,AMNE13.jpg,MN,1,num_8,16,num_8,0.983455636493,,,2017_Jun_08_1341,60.0067170284,FEMA4ImagesEEG,001,200515,
AMSA21.JPG,AMNE23.JPG,AMNE21.JPG,AMSA25.JPG,AMNE25.JPG,AMSA23.JPG,,,,,,,,,,,,,,,,,,,,,0,3,3,5,,,AMSA14.jpg,AMSA11.jpg,AMNE11.jpg,AMNE15.jpg,AMSA14.jpg,MS,2,num_8,32,num_6,0.716737672956,,,2017_Jun_08_1341,60.0067170284,FEMA4ImagesEEG,001,200515,
AMSA25.JPG,AMNE24.JPG,AMSA24.JPG,AMNE26.JPG,AMSA21.JPG,AMNE25.JPG,,,,,,,,,,,,,,,,,,,,,0,4,4,3,,,AMNE02.jpg,AMSA15.jpg,AMNE06.jpg,AMSA12.jpg,AMSA15.jpg,MS,2,num_6,32,num_8,0.783520682378,,,2017_Jun_08_1341,60.0067170284,FEMA4ImagesEEG,001,200515,
AFSA21.JPG,AFNE22.JPG,AFNE21.JPG,AFSA23.JPG,AFSA22.JPG,AFNE23.JPG,,,,,,,,,,,,,,,,,,,,,0,5,5,0,,,AMSA16.jpg,AMNE12.jpg,AMNE13.jpg,AMSA08.jpg,AMSA08.jpg,MS,2,num_4,32,num_6,0.61680467535,,,2017_Jun_08_1341,60.0067170284,FEMA4ImagesEEG,001,200515,
AMSA21.JPG,AMNE22.JPG,AMNE21.JPG,AMSA23.JPG,AMSA22.JPG,AMNE23.JPG,,,,,,,,,,,,,,,,,,,,,0,6,6,1,,,AMSA10.jpg,AMNE15.jpg,AMNE19.jpg,AMSA08.jpg,AMNE19.jpg,MN,1,num_2,16,num_2,0.583498166494,,,2017_Jun_08_1341,60.0067170284,FEMA4ImagesEEG,001,200515,
AMNE23.JPG,AMNE24.JPG,AMNE22.JPG,AMSA24.JPG,AMSA22.JPG,AMSA23.JPG,,,,,,,,,,,,,,,,,,,,,0,7,7,9,,,AMSA09.jpg,AMNE09.jpg,AMSA08.jpg,AMNE03.jpg,AMNE09.jpg,MN,1,num_6,32,num_8,0.333518292873,,,2017_Jun_08_1341,60.0067170284,FEMA4ImagesEEG,001,200515,
AFSA25.JPG,AFNE24.JPG,AFSA24.JPG,AFNE21.JPG,AFSA21.JPG,AFNE25.JPG,,,,,,,,,,,,,,,,,,,,,0,8,8,2,,,AMSA11.jpg,AMNE16.jpg,AMSA02.jpg,AMNE18.jpg,AMSA02.jpg,MS,2,num_2,32,num_4,0.383805049651,,,2017_Jun_08_1341,60.0067170284,FEMA4ImagesEEG,001,200515,
AFNE22.JPG,AFSA24.JPG,AFSA22.JPG,AFNE25.JPG,AFNE24.JPG,AFSA25.JPG,,,,,,,,,,,,,,,,,,,,,0,9,9,6,,,AMNE20.jpg,AMNE16.jpg,AMSA07.jpg,AMSA19.jpg,AMSA19.jpg,MS,2,num_4,16,num_4,0.683449125489,,,2017_Jun_08_1341,60.0067170284,FEMA4ImagesEEG,001,200515,
,,,,,,,,,,,,,,,,,,,,,,,,,,,,,,,,,,,,,,,,,,,space,2.46659871275,2017_Jun_08_1341,60.0067170284,FEMA4ImagesEEG,001,200515,
AFNE01.JPG,AFNE01.JPG,AFNE01.JPG,AFNE01.JPG,AFNE01.JPG,AFNE01.JPG,0,0,0,1,,,,,,,,,,,,,,,,,,,,,,,AFSA15.jpg,AFSA04.jpg,AFNE05.jpg,AFNE01.jpg,AFNE05.jpg,FN,3,num_2,16,num_2,0.850226072944,,,2017_Jun_08_1341,60.0067170284,FEMA4ImagesEEG,001,200515,
AFNE01.JPG,AFNE01.JPG,AFNE01.JPG,AFNE01.JPG,AFNE01.JPG,AFNE01.JPG,0,1,1,7,,,,,,,,,,,,,,,,,,,,,,,AFNE16.jpg,AFNE09.jpg,AFSA12.jpg,AFSA13.jpg,AFNE09.jpg,FN,3,num_6,16,num_6,1.01674193878,,,2017_Jun_08_1341,60.0067170284,FEMA4ImagesEEG,001,200515,
AFNE01.JPG,AFNE01.JPG,AFNE01.JPG,AFNE01.JPG,AFNE01.JPG,AFNE01.JPG,0,2,2,2,,,,,,,,,,,,,,,,,,,,,,,AFSA13.jpg,AFSA04.jpg,AFNE17.jpg,AFNE07.jpg,AFNE17.jpg,FN,3,num_2,16,num_2,1.0001116172,,,2017_Jun_08_1341,60.0067170284,FEMA4ImagesEEG,001,200515,
AFNE01.JPG,AFNE01.JPG,AFNE01.JPG,AFNE01.JPG,AFNE01.JPG,AFNE01.JPG,0,3,3,9,,,,,,,,,,,,,,,,,,,,,,,AFSA07.jpg,AFSA10.jpg,AFNE16.jpg,AFNE14.jpg,AFNE16.jpg,FN,3,num_2,32,num_4,1.06660050889,,,2017_Jun_08_1341,60.0067170284,FEMA4ImagesEEG,001,200515,
AFNE01.JPG,AFNE01.JPG,AFNE01.JPG,AFNE01.JPG,AFNE01.JPG,AFNE01.JPG,0,4,4,3,,,,,,,,,,,,,,,,,,,,,,,AFSA20.jpg,AFSA11.jpg,AFNE14.jpg,AFNE13.jpg,AFSA20.jpg,FS,4,num_8,32,num_2,1.26675901814,,,2017_Jun_08_1341,60.0067170284,FEMA4ImagesEEG,001,200515,
AFNE01.JPG,AFNE01.JPG,AFNE01.JPG,AFNE01.JPG,AFNE01.JPG,AFNE01.JPG,0,5,5,8,,,,,,,,,,,,,,,,,,,,,,,AFNE03.jpg,AFNE13.jpg,AFSA01.jpg,AFSA13.jpg,AFNE13.jpg,FN,3,num_6,16,num_6,1.11672561316,,,2017_Jun_08_1341,60.0067170284,FEMA4ImagesEEG,001,200515,
AFNE01.JPG,AFNE01.JPG,AFNE01.JPG,AFNE01.JPG,AFNE01.JPG,AFNE01.JPG,0,6,6,4,,,,,,,,,,,,,,,,,,,,,,,AFSA01.jpg,AFSA13.jpg,AFNE09.jpg,AFNE02.jpg,AFSA13.jpg,FS,4,num_6,32,num_8,1.50005404453,,,2017_Jun_08_1341,60.0067170284,FEMA4ImagesEEG,001,200515,
AFNE01.JPG,AFNE01.JPG,AFNE01.JPG,AFNE01.JPG,AFNE01.JPG,AFNE01.JPG,0,7,7,5,,,,,,,,,,,,,,,,,,,,,,,AFSA16.jpg,AFSA17.jpg,AFNE18.jpg,AFNE13.jpg,AFSA17.jpg,FS,4,num_6,16,num_6,0.800091987971,,,2017_Jun_08_1341,60.0067170284,FEMA4ImagesEEG,001,200515,
AFNE01.JPG,AFNE01.JPG,AFNE01.JPG,AFNE01.JPG,AFNE01.JPG,AFNE01.JPG,0,8,8,0,,,,,,,,,,,,,,,,,,,,,,,AFSA01.jpg,AFSA09.jpg,AFNE09.jpg,AFNE20.jpg,AFNE20.jpg,FN,3,num_4,16,num_4,1.13342104478,,,2017_Jun_08_1341,60.0067170284,FEMA4ImagesEEG,001,200515,
AFNE01.JPG,AFNE01.JPG,AFNE01.JPG,AFNE01.JPG,AFNE01.JPG,AFNE01.JPG,0,9,9,6,,,,,,,,,,,,,,,,,,,,,,,AFNE13.jpg,AFSA20.jpg,AFSA12.jpg,AFNE19.jpg,AFSA20.jpg,FS,4,num_6,16,num_6,0.300219802495,,,2017_Jun_08_1341,60.0067170284,FEMA4ImagesEEG,001,200515,
AFNE01.JPG,AFNE01.JPG,AFNE01.JPG,AFNE01.JPG,AFNE01.JPG,AFNE01.JPG,1,0,10,8,,,,,,,,,,,,,,,,,,,,,,,AFSA06.jpg,AFNE06.jpg,AFNE14.jpg,AFSA05.jpg,AFNE06.jpg,FN,3,num_6,32,num_4,0.850155831084,,,2017_Jun_08_1341,60.0067170284,FEMA4ImagesEEG,001,200515,
AFNE01.JPG,AFNE01.JPG,AFNE01.JPG,AFNE01.JPG,AFNE01.JPG,AFNE01.JPG,1,1,11,4,,,,,,,,,,,,,,,,,,,,,,,AFSA05.jpg,AFSA15.jpg,AFNE16.jpg,AFNE02.jpg,AFNE02.jpg,FN,3,num_4,32,num_6,0.416776065422,,,2017_Jun_08_1341,60.0067170284,FEMA4ImagesEEG,001,200515,
AFNE01.JPG,AFNE01.JPG,AFNE01.JPG,AFNE01.JPG,AFNE01.JPG,AFNE01.JPG,1,2,12,5,,,,,,,,,,,,,,,,,,,,,,,AFNE18.jpg,AFSA05.jpg,AFNE11.jpg,AFSA11.jpg,AFSA05.jpg,FS,4,num_6,32,num_8,0.250161411945,,,2017_Jun_08_1341,60.0067170284,FEMA4ImagesEEG,001,200515,
AFNE01.JPG,AFNE01.JPG,AFNE01.JPG,AFNE01.JPG,AFNE01.JPG,AFNE01.JPG,1,3,13,2,,,,,,,,,,,,,,,,,,,,,,,AFSA10.jpg,AFNE11.jpg,AFSA03.jpg,AFNE14.jpg,AFSA03.jpg,FS,4,num_2,32,num_4,0.316655435452,,,2017_Jun_08_1341,60.0067170284,FEMA4ImagesEEG,001,200515,
AFNE01.JPG,AFNE01.JPG,AFNE01.JPG,AFNE01.JPG,AFNE01.JPG,AFNE01.JPG,1,4,14,0,,,,,,,,,,,,,,,,,,,,,,,AFSA02.jpg,AFNE14.jpg,AFSA01.jpg,AFNE10.jpg,AFNE14.jpg,FN,3,num_6,16,num_6,0.416796592724,,,2017_Jun_08_1341,60.0067170284,FEMA4ImagesEEG,001,200515,
AFNE01.JPG,AFNE01.JPG,AFNE01.JPG,AFNE01.JPG,AFNE01.JPG,AFNE01.JPG,1,5,15,6,,,,,,,,,,,,,,,,,,,,,,,AFNE17.jpg,AFNE12.jpg,AFSA12.jpg,AFSA13.jpg,AFNE17.jpg,FN,3,num_8,32,num_4,0.950148486159,,,2017_Jun_08_1341,60.0067170284,FEMA4ImagesEEG,001,200515,
AFNE01.JPG,AFNE01.JPG,AFNE01.JPG,AFNE01.JPG,AFNE01.JPG,AFNE01.JPG,1,6,16,7,,,,,,,,,,,,,,,,,,,,,,,AFNE15.jpg,AFSA17.jpg,AFSA05.jpg,AFNE06.jpg,AFNE15.jpg,FN,3,num_8,16,num_8,1.03340497575,,,2017_Jun_08_1341,60.0067170284,FEMA4ImagesEEG,001,200515,
AFNE01.JPG,AFNE01.JPG,AFNE01.JPG,AFNE01.JPG,AFNE01.JPG,AFNE01.JPG,1,7,17,3,,,,,,,,,,,,,,,,,,,,,,,AFNE07.jpg,AFNE14.jpg,AFSA19.jpg,AFSA20.jpg,AFSA19.jpg,FS,4,num_2,16,num_2,1.34986636406,,,2017_Jun_08_1341,60.0067170284,FEMA4ImagesEEG,001,200515,
AFNE01.JPG,AFNE01.JPG,AFNE01.JPG,AFNE01.JPG,AFNE01.JPG,AFNE01.JPG,1,8,18,1,,,,,,,,,,,,,,,,,,,,,,,AFNE05.jpg,AFNE19.jpg,AFSA11.jpg,AFSA03.jpg,AFSA03.jpg,FS,4,num_4,16,num_4,0.533541450233,,,2017_Jun_08_1341,60.0067170284,FEMA4ImagesEEG,001,200515,
AFNE01.JPG,AFNE01.JPG,AFNE01.JPG,AFNE01.JPG,AFNE01.JPG,AFNE01.JPG,1,9,19,9,,,,,,,,,,,,,,,,,,,,,,,AFSA06.jpg,AFNE02.jpg,AFSA05.jpg,AFNE07.jpg,AFSA05.jpg,FS,4,num_2,32,num_6,0.54999889345,,,2017_Jun_08_1341,60.0067170284,FEMA4ImagesEEG,001,200515,
AFNE01.JPG,AFNE01.JPG,AFNE01.JPG,AFNE01.JPG,AFNE01.JPG,AFNE01.JPG,2,0,20,0,,,,,,,,,,,,,,,,,,,,,,,AFNE17.jpg,AFSA12.jpg,AFSA11.jpg,AFNE03.jpg,AFSA12.jpg,FS,4,num_6,32,num_4,0.400152800101,,,2017_Jun_08_1341,60.0067170284,FEMA4ImagesEEG,001,200515,
AFNE01.JPG,AFNE01.JPG,AFNE01.JPG,AFNE01.JPG,AFNE01.JPG,AFNE01.JPG,2,1,21,8,,,,,,,,,,,,,,,,,,,,,,,AFSA20.jpg,AFNE10.jpg,AFSA10.jpg,AFNE11.jpg,AFNE10.jpg,FN,3,num_6,16,num_6,0.766776177681,,,2017_Jun_08_1341,60.0067170284,FEMA4ImagesEEG,001,200515,
AFNE01.JPG,AFNE01.JPG,AFNE01.JPG,AFNE01.JPG,AFNE01.JPG,AFNE01.JPG,2,2,22,3,,,,,,,,,,,,,,,,,,,,,,,AFSA03.jpg,AFNE13.jpg,AFSA06.jpg,AFNE16.jpg,AFNE16.jpg,FN,3,num_4,16,num_4,0.683452974357,,,2017_Jun_08_1341,60.0067170284,FEMA4ImagesEEG,001,200515,
AFNE01.JPG,AFNE01.JPG,AFNE01.JPG,AFNE01.JPG,AFNE01.JPG,AFNE01.JPG,2,3,23,4,,,,,,,,,,,,,,,,,,,,,,,AFNE04.jpg,AFNE15.jpg,AFSA01.jpg,AFSA06.jpg,AFSA01.jpg,FS,4,num_2,16,num_2,1.1834717376,,,2017_Jun_08_1341,60.0067170284,FEMA4ImagesEEG,001,200515,
AFNE01.JPG,AFNE01.JPG,AFNE01.JPG,AFNE01.JPG,AFNE01.JPG,AFNE01.JPG,2,4,24,2,,,,,,,,,,,,,,,,,,,,,,,AFNE01.jpg,AFSA11.jpg,AFNE16.jpg,AFSA12.jpg,AFSA11.jpg,FS,4,num_6,32,num_4,0.400207646484,,,2017_Jun_08_1341,60.0067170284,FEMA4ImagesEEG,001,200515,
AFNE01.JPG,AFNE01.JPG,AFNE01.JPG,AFNE01.JPG,AFNE01.JPG,AFNE01.JPG,2,5,25,1,,,,,,,,,,,,,,,,,,,,,,,AFSA02.jpg,AFSA04.jpg,AFNE02.jpg,AFNE16.jpg,AFSA04.jpg,FS,4,num_6,16,num_6,0.316820616083,,,2017_Jun_08_1341,60.0067170284,FEMA4ImagesEEG,001,200515,
AFNE01.JPG,AFNE01.JPG,AFNE01.JPG,AFNE01.JPG,AFNE01.JPG,AFNE01.JPG,2,6,26,5,,,,,,,,,,,,,,,,,,,,,,,AFSA19.jpg,AFSA05.jpg,AFNE02.jpg,AFNE19.jpg,AFNE02.jpg,FN,3,num_2,32,num_8,0.400175572575,,,2017_Jun_08_1341,60.0067170284,FEMA4ImagesEEG,001,200515,
AFNE01.JPG,AFNE01.JPG,AFNE01.JPG,AFNE01.JPG,AFNE01.JPG,AFNE01.JPG,2,7,27,6,,,,,,,,,,,,,,,,,,,,,,,AFNE06.jpg,AFSA08.jpg,AFNE03.jpg,AFSA07.jpg,AFNE06.jpg,FN,3,num_8,32,num_4,0.400174289618,,,2017_Jun_08_1341,60.0067170284,FEMA4ImagesEEG,001,200515,
AFNE01.JPG,AFNE01.JPG,AFNE01.JPG,AFNE01.JPG,AFNE01.JPG,AFNE01.JPG,2,8,28,9,,,,,,,,,,,,,,,,,,,,,,,AFSA18.jpg,AFNE03.jpg,AFNE15.jpg,AFSA13.jpg,AFNE03.jpg,FN,3,num_6,16,num_6,0.73351136491,,,2017_Jun_08_1341,60.0067170284,FEMA4ImagesEEG,001,200515,
AFNE01.JPG,AFNE01.JPG,AFNE01.JPG,AFNE01.JPG,AFNE01.JPG,AFNE01.JPG,2,9,29,7,,,,,,,,,,,,,,,,,,,,,,,AFSA14.jpg,AFNE06.jpg,AFSA01.jpg,AFNE05.jpg,AFSA01.jpg,FS,4,num_2,32,num_6,0.633193159661,,,2017_Jun_08_1341,60.0067170284,FEMA4ImagesEEG,001,200515,
AFNE01.JPG,AFNE01.JPG,AFNE01.JPG,AFNE01.JPG,AFNE01.JPG,AFNE01.JPG,3,0,30,2,,,,,,,,,,,,,,,,,,,,,,,AFSA01.jpg,AFNE02.jpg,AFSA07.jpg,AFNE18.jpg,AFNE18.jpg,FN,3,num_4,16,num_4,0.650115353812,,,2017_Jun_08_1341,60.0067170284,FEMA4ImagesEEG,001,200515,
AFNE01.JPG,AFNE01.JPG,AFNE01.JPG,AFNE01.JPG,AFNE01.JPG,AFNE01.JPG,3,1,31,3,,,,,,,,,,,,,,,,,,,,,,,AFSA01.jpg,AFNE13.jpg,AFNE20.jpg,AFSA05.jpg,AFSA05.jpg,FS,4,num_4,32,num_6,0.283514748706,,,2017_Jun_08_1341,60.0067170284,FEMA4ImagesEEG,001,200515,
AFNE01.JPG,AFNE01.JPG,AFNE01.JPG,AFNE01.JPG,AFNE01.JPG,AFNE01.JPG,3,2,32,0,,,,,,,,,,,,,,,,,,,,,,,AFSA04.jpg,AFNE17.jpg,AFSA18.jpg,AFNE12.jpg,AFSA18.jpg,FS,4,num_2,32,num_6,0.35030449365,,,2017_Jun_08_1341,60.0067170284,FEMA4ImagesEEG,001,200515,
AFNE01.JPG,AFNE01.JPG,AFNE01.JPG,AFNE01.JPG,AFNE01.JPG,AFNE01.JPG,3,3,33,1,,,,,,,,,,,,,,,,,,,,,,,AFNE14.jpg,AFSA05.jpg,AFSA14.jpg,AFNE06.jpg,AFSA14.jpg,FS,4,num_2,32,num_6,0.766798950157,,,2017_Jun_08_1341,60.0067170284,FEMA4ImagesEEG,001,200515,
AFNE01.JPG,AFNE01.JPG,AFNE01.JPG,AFNE01.JPG,AFNE01.JPG,AFNE01.JPG,3,4,34,5,,,,,,,,,,,,,,,,,,,,,,,AFNE02.jpg,AFSA01.jpg,AFSA19.jpg,AFNE05.jpg,AFNE02.jpg,FN,3,num_8,16,num_8,0.966740319052,,,2017_Jun_08_1341,60.0067170284,FEMA4ImagesEEG,001,200515,
AFNE01.JPG,AFNE01.JPG,AFNE01.JPG,AFNE01.JPG,AFNE01.JPG,AFNE01.JPG,3,5,35,9,,,,,,,,,,,,,,,,,,,,,,,AFSA09.jpg,AFNE02.jpg,AFSA10.jpg,AFNE20.jpg,AFSA10.jpg,FS,4,num_2,32,num_6,0.63348823962,,,2017_Jun_08_1341,60.0067170284,FEMA4ImagesEEG,001,200515,
AFNE01.JPG,AFNE01.JPG,AFNE01.JPG,AFNE01.JPG,AFNE01.JPG,AFNE01.JPG,3,6,36,8,,,,,,,,,,,,,,,,,,,,,,,AFSA18.jpg,AFSA11.jpg,AFNE05.jpg,AFNE14.jpg,AFSA18.jpg,FS,4,num_8,16,num_8,0.816837134145,,,2017_Jun_08_1341,60.0067170284,FEMA4ImagesEEG,001,200515,
AFNE01.JPG,AFNE01.JPG,AFNE01.JPG,AFNE01.JPG,AFNE01.JPG,AFNE01.JPG,3,7,37,4,,,,,,,,,,,,,,,,,,,,,,,AFNE08.jpg,AFSA17.jpg,AFSA15.jpg,AFNE11.jpg,AFNE11.jpg,FN,3,num_4,16,num_4,0.383504837868,,,2017_Jun_08_1341,60.0067170284,FEMA4ImagesEEG,001,200515,
AFNE01.JPG,AFNE01.JPG,AFNE01.JPG,AFNE01.JPG,AFNE01.JPG,AFNE01.JPG,3,8,38,7,,,,,,,,,,,,,,,,,,,,,,,AFSA02.jpg,AFNE13.jpg,AFNE05.jpg,AFSA20.jpg,AFSA02.jpg,FS,4,num_8,32,num_6,0.31680714504,,,2017_Jun_08_1341,60.0067170284,FEMA4ImagesEEG,001,200515,
AFNE01.JPG,AFNE01.JPG,AFNE01.JPG,AFNE01.JPG,AFNE01.JPG,AFNE01.JPG,3,9,39,6,,,,,,,,,,,,,,,,,,,,,,,AFNE16.jpg,AFSA09.jpg,AFNE12.jpg,AFSA12.jpg,AFSA12.jpg,FS,4,num_4,32,num_8,0.433439743871,,,2017_Jun_08_1341,60.0067170284,FEMA4ImagesEEG,001,200515,
AFNE01.JPG,AFNE01.JPG,AFNE01.JPG,AFNE01.JPG,AFNE01.JPG,AFNE01.JPG,4,0,40,3,,,,,,,,,,,,,,,,,,,,,,,AFSA06.jpg,AFSA11.jpg,AFNE02.jpg,AFNE18.jpg,AFNE18.jpg,FN,3,num_4,32,num_8,0.516794058885,,,2017_Jun_08_1341,60.0067170284,FEMA4ImagesEEG,001,200515,
AFNE01.JPG,AFNE01.JPG,AFNE01.JPG,AFNE01.JPG,AFNE01.JPG,AFNE01.JPG,4,1,41,9,,,,,,,,,,,,,,,,,,,,,,,AFNE14.jpg,AFSA16.jpg,AFNE12.jpg,AFSA08.jpg,AFSA08.jpg,FS,4,num_4,16,num_4,0.58347892215,,,2017_Jun_08_1341,60.0067170284,FEMA4ImagesEEG,001,200515,
AFNE01.JPG,AFNE01.JPG,AFNE01.JPG,AFNE01.JPG,AFNE01.JPG,AFNE01.JPG,4,2,42,8,,,,,,,,,,,,,,,,,,,,,,,AFNE10.jpg,AFSA12.jpg,AFSA20.jpg,AFNE20.jpg,AFNE20.jpg,FN,3,num_4,32,num_6,0.500120437526,,,2017_Jun_08_1341,60.0067170284,FEMA4ImagesEEG,001,200515,
AFNE01.JPG,AFNE01.JPG,AFNE01.JPG,AFNE01.JPG,AFNE01.JPG,AFNE01.JPG,4,3,43,1,,,,,,,,,,,,,,,,,,,,,,,AFNE19.jpg,AFSA05.jpg,AFNE07.jpg,AFSA10.jpg,AFSA10.jpg,FS,4,num_4,16,num_4,0.316796560652,,,2017_Jun_08_1341,60.0067170284,FEMA4ImagesEEG,001,200515,
AFNE01.JPG,AFNE01.JPG,AFNE01.JPG,AFNE01.JPG,AFNE01.JPG,AFNE01.JPG,4,4,44,2,,,,,,,,,,,,,,,,,,,,,,,AFSA13.jpg,AFNE07.jpg,AFNE15.jpg,AFSA02.jpg,AFNE07.jpg,FN,3,num_6,16,num_6,0.466743045336,,,2017_Jun_08_1341,60.0067170284,FEMA4ImagesEEG,001,200515,
AFNE01.JPG,AFNE01.JPG,AFNE01.JPG,AFNE01.JPG,AFNE01.JPG,AFNE01.JPG,4,5,45,4,,,,,,,,,,,,,,,,,,,,,,,AFNE02.jpg,AFSA06.jpg,AFSA12.jpg,AFNE05.jpg,AFNE02.jpg,FN,3,num_8,16,num_8,1.25009726413,,,2017_Jun_08_1341,60.0067170284,FEMA4ImagesEEG,001,200515,
AFNE01.JPG,AFNE01.JPG,AFNE01.JPG,AFNE01.JPG,AFNE01.JPG,AFNE01.JPG,4,6,46,6,,,,,,,,,,,,,,,,,,,,,,,AFSA07.jpg,AFNE12.jpg,AFNE14.jpg,AFSA02.jpg,AFNE12.jpg,FN,3,num_6,32,num_4,0.383483669089,,,2017_Jun_08_1341,60.0067170284,FEMA4ImagesEEG,001,200515,
AFNE01.JPG,AFNE01.JPG,AFNE01.JPG,AFNE01.JPG,AFNE01.JPG,AFNE01.JPG,4,7,47,0,,,,,,,,,,,,,,,,,,,,,,,AFNE04.jpg,AFSA18.jpg,AFSA01.jpg,AFNE06.jpg,AFNE06.jpg,FN,3,num_4,32,num_8,0.56679824453,,,2017_Jun_08_1341,60.0067170284,FEMA4ImagesEEG,001,200515,
AFNE01.JPG,AFNE01.JPG,AFNE01.JPG,AFNE01.JPG,AFNE01.JPG,AFNE01.JPG,4,8,48,5,,,,,,,,,,,,,,,,,,,,,,,AFSA11.jpg,AFNE18.jpg,AFNE15.jpg,AFSA20.jpg,AFNE15.jpg,FN,3,num_2,32,num_6,0.533523168107,,,2017_Jun_08_1341,60.0067170284,FEMA4ImagesEEG,001,200515,
AFNE01.JPG,AFNE01.JPG,AFNE01.JPG,AFNE01.JPG,AFNE01.JPG,AFNE01.JPG,4,9,49,7,,,,,,,,,,,,,,,,,,,,,,,AFSA07.jpg,AFNE14.jpg,AFSA11.jpg,AFNE01.jpg,AFSA07.jpg,FS,4,num_8,32,num_6,0.750210966135,,,2017_Jun_08_1341,60.0067170284,FEMA4ImagesEEG,001,200515,
AFNE01.JPG,AFNE01.JPG,AFNE01.JPG,AFNE01.JPG,AFNE01.JPG,AFNE01.JPG,5,0,50,8,,,,,,,,,,,,,,,,,,,,,,,AFSA05.jpg,AFSA13.jpg,AFNE13.jpg,AFNE10.jpg,AFNE10.jpg,FN,3,num_4,16,num_4,0.633454562016,,,2017_Jun_08_1341,60.0067170284,FEMA4ImagesEEG,001,200515,
AFNE01.JPG,AFNE01.JPG,AFNE01.JPG,AFNE01.JPG,AFNE01.JPG,AFNE01.JPG,5,1,51,1,,,,,,,,,,,,,,,,,,,,,,,AFNE02.jpg,AFNE04.jpg,AFSA07.jpg,AFSA20.jpg,AFSA07.jpg,FS,4,num_2,32,num_6,0.433444875696,,,2017_Jun_08_1341,60.0067170284,FEMA4ImagesEEG,001,200515,
AFNE01.JPG,AFNE01.JPG,AFNE01.JPG,AFNE01.JPG,AFNE01.JPG,AFNE01.JPG,5,2,52,7,,,,,,,,,,,,,,,,,,,,,,,AFSA20.jpg,AFSA01.jpg,AFNE04.jpg,AFNE03.jpg,AFSA20.jpg,FS,4,num_8,16,num_8,0.750096783018,,,2017_Jun_08_1341,60.0067170284,FEMA4ImagesEEG,001,200515,
AFNE01.JPG,AFNE01.JPG,AFNE01.JPG,AFNE01.JPG,AFNE01.JPG,AFNE01.JPG,5,3,53,6,,,,,,,,,,,,,,,,,,,,,,,AFNE04.jpg,AFSA02.jpg,AFNE06.jpg,AFSA18.jpg,AFNE04.jpg,FN,3,num_8,32,num_2,1.2167753598,,,2017_Jun_08_1341,60.0067170284,FEMA4ImagesEEG,001,200515,
AFNE01.JPG,AFNE01.JPG,AFNE01.JPG,AFNE01.JPG,AFNE01.JPG,AFNE01.JPG,5,4,54,2,,,,,,,,,,,,,,,,,,,,,,,AFNE05.jpg,AFNE06.jpg,AFSA02.jpg,AFSA19.jpg,AFSA02.jpg,FS,4,num_2,32,num_8,0.400195779137,,,2017_Jun_08_1341,60.0067170284,FEMA4ImagesEEG,001,200515,
AFNE01.JPG,AFNE01.JPG,AFNE01.JPG,AFNE01.JPG,AFNE01.JPG,AFNE01.JPG,5,5,55,3,,,,,,,,,,,,,,,,,,,,,,,AFSA11.jpg,AFNE12.jpg,AFNE09.jpg,AFSA08.jpg,AFSA08.jpg,FS,4,num_4,16,num_4,0.350151180368,,,2017_Jun_08_1341,60.0067170284,FEMA4ImagesEEG,001,200515,
AFNE01.JPG,AFNE01.JPG,AFNE01.JPG,AFNE01.JPG,AFNE01.JPG,AFNE01.JPG,5,6,56,9,,,,,,,,,,,,,,,,,,,,,,,AFNE14.jpg,AFNE16.jpg,AFSA09.jpg,AFSA11.jpg,AFSA11.jpg,FS,4,num_4,32,num_8,0.683468049094,,,2017_Jun_08_1341,60.0067170284,FEMA4ImagesEEG,001,200515,
AFNE01.JPG,AFNE01.JPG,AFNE01.JPG,AFNE01.JPG,AFNE01.JPG,AFNE01.JPG,5,7,57,0,,,,,,,,,,,,,,,,,,,,,,,AFNE12.jpg,AFSA07.jpg,AFNE16.jpg,AFSA12.jpg,AFSA07.jpg,FS,4,num_6,16,num_6,0.483489795204,,,2017_Jun_08_1341,60.0067170284,FEMA4ImagesEEG,001,200515,
AFNE01.JPG,AFNE01.JPG,AFNE01.JPG,AFNE01.JPG,AFNE01.JPG,AFNE01.JPG,5,8,58,4,,,,,,,,,,,,,,,,,,,,,,,AFNE02.jpg,AFSA12.jpg,AFSA06.jpg,AFNE10.jpg,AFSA12.jpg,FS,4,num_6,16,num_6,0.700104785459,,,2017_Jun_08_1341,60.0067170284,FEMA4ImagesEEG,001,200515,
AFNE01.JPG,AFNE01.JPG,AFNE01.JPG,AFNE01.JPG,AFNE01.JPG,AFNE01.JPG,5,9,59,5,,,,,,,,,,,,,,,,,,,,,,,AFNE16.jpg,AFSA13.jpg,AFSA06.jpg,AFNE19.jpg,AFSA06.jpg,FS,4,num_2,32,num_4,0.317724458824,,,2017_Jun_08_1341,60.0067170284,FEMA4ImagesEEG,001,200515,
,,,,,,,,,,,,,,,,,,,,,,,,,,,,,,,,,,,,,,,,,,,space,3.99978767073,2017_Jun_08_1341,60.0067170284,FEMA4ImagesEEG,001,200515,
AFNE01.JPG,AFNE01.JPG,AFNE01.JPG,AFNE01.JPG,AFNE01.JPG,AFNE01.JPG,,,,,0,0,0,8,,,,,,,,,,,,,,,,,,,AMSA02.jpg,AMNE04.jpg,AMSA16.jpg,AMNE13.jpg,AMSA02.jpg,MS,2,num_8,32,num_6,0.266754207054,,,2017_Jun_08_1341,60.0067170284,FEMA4ImagesEEG,001,200515,
AFNE01.JPG,AFNE01.JPG,AFNE01.JPG,AFNE01.JPG,AFNE01.JPG,AFNE01.JPG,,,,,0,1,1,5,,,,,,,,,,,,,,,,,,,AMSA08.jpg,AMSA02.jpg,AMNE06.jpg,AMNE17.jpg,AMNE17.jpg,MN,1,num_4,16,num_4,0.666800842517,,,2017_Jun_08_1341,60.0067170284,FEMA4ImagesEEG,001,200515,
AFNE01.JPG,AFNE01.JPG,AFNE01.JPG,AFNE01.JPG,AFNE01.JPG,AFNE01.JPG,,,,,0,2,2,7,,,,,,,,,,,,,,,,,,,AMSA17.jpg,AMNE01.jpg,AMNE09.jpg,AMSA07.jpg,AMNE01.jpg,MN,1,num_6,32,num_8,0.550072342701,,,2017_Jun_08_1341,60.0067170284,FEMA4ImagesEEG,001,200515,
AFNE01.JPG,AFNE01.JPG,AFNE01.JPG,AFNE01.JPG,AFNE01.JPG,AFNE01.JPG,,,,,0,3,3,2,,,,,,,,,,,,,,,,,,,AMSA01.jpg,AMNE03.jpg,AMNE11.jpg,AMSA20.jpg,AMSA20.jpg,MS,2,num_4,32,num_6,0.233484262455,,,2017_Jun_08_1341,60.0067170284,FEMA4ImagesEEG,001,200515,
AFNE01.JPG,AFNE01.JPG,AFNE01.JPG,AFNE01.JPG,AFNE01.JPG,AFNE01.JPG,,,,,0,4,4,4,,,,,,,,,,,,,,,,,,,AMSA03.jpg,AMNE09.jpg,AMSA12.jpg,AMNE13.jpg,AMNE09.jpg,MN,1,num_6,32,num_4,0.56679888601,,,2017_Jun_08_1341,60.0067170284,FEMA4ImagesEEG,001,200515,
AFNE01.JPG,AFNE01.JPG,AFNE01.JPG,AFNE01.JPG,AFNE01.JPG,AFNE01.JPG,,,,,0,5,5,3,,,,,,,,,,,,,,,,,,,AMNE07.jpg,AMSA02.jpg,AMSA12.jpg,AMNE04.jpg,AMNE04.jpg,MN,1,num_4,16,num_4,0.966732300574,,,2017_Jun_08_1341,60.0067170284,FEMA4ImagesEEG,001,200515,
AFNE01.JPG,AFNE01.JPG,AFNE01.JPG,AFNE01.JPG,AFNE01.JPG,AFNE01.JPG,,,,,0,6,6,0,,,,,,,,,,,,,,,,,,,AMSA19.jpg,AMNE01.jpg,AMSA15.jpg,AMNE18.jpg,AMSA19.jpg,MS,2,num_8,32,num_6,0.283565746222,,,2017_Jun_08_1341,60.0067170284,FEMA4ImagesEEG,001,200515,
AFNE01.JPG,AFNE01.JPG,AFNE01.JPG,AFNE01.JPG,AFNE01.JPG,AFNE01.JPG,,,,,0,7,7,1,,,,,,,,,,,,,,,,,,,AMSA02.jpg,AMSA06.jpg,AMNE08.jpg,AMNE01.jpg,AMNE01.jpg,MN,1,num_4,32,num_8,0.866873393697,,,2017_Jun_08_1341,60.0067170284,FEMA4ImagesEEG,001,200515,
AFNE01.JPG,AFNE01.JPG,AFNE01.JPG,AFNE01.JPG,AFNE01.JPG,AFNE01.JPG,,,,,0,8,8,9,,,,,,,,,,,,,,,,,,,AMNE01.jpg,AMNE19.jpg,AMSA14.jpg,AMSA01.jpg,AMNE19.jpg,MN,1,num_6,16,num_6,0.533516432586,,,2017_Jun_08_1341,60.0067170284,FEMA4ImagesEEG,001,200515,
AFNE01.JPG,AFNE01.JPG,AFNE01.JPG,AFNE01.JPG,AFNE01.JPG,AFNE01.JPG,,,,,0,9,9,6,,,,,,,,,,,,,,,,,,,AMSA01.jpg,AMSA10.jpg,AMNE05.jpg,AMNE14.jpg,AMSA01.jpg,MS,2,num_8,32,num_4,0.950125713685,,,2017_Jun_08_1341,60.0067170284,FEMA4ImagesEEG,001,200515,
AFNE01.JPG,AFNE01.JPG,AFNE01.JPG,AFNE01.JPG,AFNE01.JPG,AFNE01.JPG,,,,,1,0,10,9,,,,,,,,,,,,,,,,,,,AMNE18.jpg,AMNE12.jpg,AMSA20.jpg,AMSA19.jpg,AMSA19.jpg,MS,2,num_4,32,num_8,0.933393397074,,,2017_Jun_08_1341,60.0067170284,FEMA4ImagesEEG,001,200515,
AFNE01.JPG,AFNE01.JPG,AFNE01.JPG,AFNE01.JPG,AFNE01.JPG,AFNE01.JPG,,,,,1,1,11,2,,,,,,,,,,,,,,,,,,,AMSA12.jpg,AMSA19.jpg,AMNE09.jpg,AMNE17.jpg,AMSA19.jpg,MS,2,num_6,16,num_6,0.416779272815,,,2017_Jun_08_1341,60.0067170284,FEMA4ImagesEEG,001,200515,
AFNE01.JPG,AFNE01.JPG,AFNE01.JPG,AFNE01.JPG,AFNE01.JPG,AFNE01.JPG,,,,,1,2,12,5,,,,,,,,,,,,,,,,,,,AMSA14.jpg,AMSA05.jpg,AMNE10.jpg,AMNE11.jpg,AMNE11.jpg,MN,1,num_4,32,num_8,0.333448692492,,,2017_Jun_08_1341,60.0067170284,FEMA4ImagesEEG,001,200515,
AFNE01.JPG,AFNE01.JPG,AFNE01.JPG,AFNE01.JPG,AFNE01.JPG,AFNE01.JPG,,,,,1,3,13,4,,,,,,,,,,,,,,,,,,,AMSA15.jpg,AMNE08.jpg,AMSA03.jpg,AMNE07.jpg,AMNE08.jpg,MN,1,num_6,16,num_6,0.466795967282,,,2017_Jun_08_1341,60.0067170284,FEMA4ImagesEEG,001,200515,
AFNE01.JPG,AFNE01.JPG,AFNE01.JPG,AFNE01.JPG,AFNE01.JPG,AFNE01.JPG,,,,,1,4,14,6,,,,,,,,,,,,,,,,,,,AMNE03.jpg,AMSA14.jpg,AMNE17.jpg,AMSA03.jpg,AMSA03.jpg,MS,2,num_4,32,num_6,0.700015299255,,,2017_Jun_08_1341,60.0067170284,FEMA4ImagesEEG,001,200515,
AFNE01.JPG,AFNE01.JPG,AFNE01.JPG,AFNE01.JPG,AFNE01.JPG,AFNE01.JPG,,,,,1,5,15,7,,,,,,,,,,,,,,,,,,,AMNE20.jpg,AMSA12.jpg,AMNE10.jpg,AMSA11.jpg,AMSA12.jpg,MS,2,num_6,32,num_8,1.0334020891,,,2017_Jun_08_1341,60.0067170284,FEMA4ImagesEEG,001,200515,
AFNE01.JPG,AFNE01.JPG,AFNE01.JPG,AFNE01.JPG,AFNE01.JPG,AFNE01.JPG,,,,,1,6,16,8,,,,,,,,,,,,,,,,,,,AMNE15.jpg,AMNE20.jpg,AMSA11.jpg,AMSA10.jpg,AMNE15.jpg,MN,1,num_8,32,num_6,0.43350677834,,,2017_Jun_08_1341,60.0067170284,FEMA4ImagesEEG,001,200515,
AFNE01.JPG,AFNE01.JPG,AFNE01.JPG,AFNE01.JPG,AFNE01.JPG,AFNE01.JPG,,,,,1,7,17,1,,,,,,,,,,,,,,,,,,,AMNE16.jpg,AMNE17.jpg,AMSA14.jpg,AMSA20.jpg,AMSA14.jpg,MS,2,num_2,32,num_4,0.000209763360544,,,2017_Jun_08_1341,60.0067170284,FEMA4ImagesEEG,001,200515,
AFNE01.JPG,AFNE01.JPG,AFNE01.JPG,AFNE01.JPG,AFNE01.JPG,AFNE01.JPG,,,,,1,8,18,0,,,,,,,,,,,,,,,,,,,AMNE01.jpg,AMNE05.jpg,AMSA14.jpg,AMSA20.jpg,AMNE05.jpg,MN,1,num_6,16,num_6,0.800094553882,,,2017_Jun_08_1341,60.0067170284,FEMA4ImagesEEG,001,200515,
AFNE01.JPG,AFNE01.JPG,AFNE01.JPG,AFNE01.JPG,AFNE01.JPG,AFNE01.JPG,,,,,1,9,19,3,,,,,,,,,,,,,,,,,,,AMNE13.jpg,AMNE06.jpg,AMSA15.jpg,AMSA20.jpg,AMNE06.jpg,MN,1,num_6,32,num_8,0.816862472533,,,2017_Jun_08_1341,60.0067170284,FEMA4ImagesEEG,001,200515,
AFNE01.JPG,AFNE01.JPG,AFNE01.JPG,AFNE01.JPG,AFNE01.JPG,AFNE01.JPG,,,,,2,0,20,7,,,,,,,,,,,,,,,,,,,AMNE12.jpg,AMSA10.jpg,AMSA12.jpg,AMNE18.jpg,AMNE12.jpg,MN,1,num_8,16,num_8,0.766632486571,,,2017_Jun_08_1341,60.0067170284,FEMA4ImagesEEG,001,200515,
AFNE01.JPG,AFNE01.JPG,AFNE01.JPG,AFNE01.JPG,AFNE01.JPG,AFNE01.JPG,,,,,2,1,21,8,,,,,,,,,,,,,,,,,,,AMSA03.jpg,AMSA04.jpg,AMNE13.jpg,AMNE20.jpg,AMSA04.jpg,MS,2,num_6,32,num_4,0.400210212398,,,2017_Jun_08_1341,60.0067170284,FEMA4ImagesEEG,001,200515,
AFNE01.JPG,AFNE01.JPG,AFNE01.JPG,AFNE01.JPG,AFNE01.JPG,AFNE01.JPG,,,,,2,2,22,5,,,,,,,,,,,,,,,,,,,AMNE17.jpg,AMSA08.jpg,AMSA03.jpg,AMNE02.jpg,AMSA03.jpg,MS,2,num_2,32,num_6,0.466783779199,,,2017_Jun_08_1341,60.0067170284,FEMA4ImagesEEG,001,200515,
AFNE01.JPG,AFNE01.JPG,AFNE01.JPG,AFNE01.JPG,AFNE01.JPG,AFNE01.JPG,,,,,2,3,23,6,,,,,,,,,,,,,,,,,,,AMNE05.jpg,AMSA10.jpg,AMSA11.jpg,AMNE07.jpg,AMNE05.jpg,MN,1,num_8,32,num_4,0.500121720483,,,2017_Jun_08_1341,60.0067170284,FEMA4ImagesEEG,001,200515,
AFNE01.JPG,AFNE01.JPG,AFNE01.JPG,AFNE01.JPG,AFNE01.JPG,AFNE01.JPG,,,,,2,4,24,1,,,,,,,,,,,,,,,,,,,AMSA09.jpg,AMNE20.jpg,AMSA13.jpg,AMNE03.jpg,AMNE03.jpg,MN,1,num_4,32,num_8,0.616771318484,,,2017_Jun_08_1341,60.0067170284,FEMA4ImagesEEG,001,200515,
AFNE01.JPG,AFNE01.JPG,AFNE01.JPG,AFNE01.JPG,AFNE01.JPG,AFNE01.JPG,,,,,2,5,25,2,,,,,,,,,,,,,,,,,,,AMNE07.jpg,AMNE20.jpg,AMSA17.jpg,AMSA18.jpg,AMNE07.jpg,MN,1,num_8,32,num_6,0.266792375005,,,2017_Jun_08_1341,60.0067170284,FEMA4ImagesEEG,001,200515,
AFNE01.JPG,AFNE01.JPG,AFNE01.JPG,AFNE01.JPG,AFNE01.JPG,AFNE01.JPG,,,,,2,6,26,0,,,,,,,,,,,,,,,,,,,AMNE10.jpg,AMSA17.jpg,AMSA14.jpg,AMNE14.jpg,AMSA14.jpg,MS,2,num_2,32,num_8,0.700139746019,,,2017_Jun_08_1341,60.0067170284,FEMA4ImagesEEG,001,200515,
AFNE01.JPG,AFNE01.JPG,AFNE01.JPG,AFNE01.JPG,AFNE01.JPG,AFNE01.JPG,,,,,2,7,27,3,,,,,,,,,,,,,,,,,,,AMSA18.jpg,AMNE13.jpg,AMSA20.jpg,AMNE03.jpg,AMNE03.jpg,MN,1,num_4,16,num_4,0.733454914829,,,2017_Jun_08_1341,60.0067170284,FEMA4ImagesEEG,001,200515,
AFNE01.JPG,AFNE01.JPG,AFNE01.JPG,AFNE01.JPG,AFNE01.JPG,AFNE01.JPG,,,,,2,8,28,4,,,,,,,,,,,,,,,,,,,AMNE08.jpg,AMNE09.jpg,AMSA16.jpg,AMSA04.jpg,AMNE09.jpg,MN,1,num_6,16,num_6,0.5168450564,,,2017_Jun_08_1341,60.0067170284,FEMA4ImagesEEG,001,200515,
AFNE01.JPG,AFNE01.JPG,AFNE01.JPG,AFNE01.JPG,AFNE01.JPG,AFNE01.JPG,,,,,2,9,29,9,,,,,,,,,,,,,,,,,,,AMSA08.jpg,AMNE16.jpg,AMNE10.jpg,AMSA11.jpg,AMSA11.jpg,MS,2,num_4,16,num_4,0.483378178003,,,2017_Jun_08_1341,60.0067170284,FEMA4ImagesEEG,001,200515,
AFNE01.JPG,AFNE01.JPG,AFNE01.JPG,AFNE01.JPG,AFNE01.JPG,AFNE01.JPG,,,,,3,0,30,0,,,,,,,,,,,,,,,,,,,AMNE10.jpg,AMNE12.jpg,AMSA16.jpg,AMSA10.jpg,AMSA16.jpg,MS,2,num_2,32,num_4,0.650148389937,,,2017_Jun_08_1341,60.0067170284,FEMA4ImagesEEG,001,200515,
AFNE01.JPG,AFNE01.JPG,AFNE01.JPG,AFNE01.JPG,AFNE01.JPG,AFNE01.JPG,,,,,3,1,31,3,,,,,,,,,,,,,,,,,,,AMNE07.jpg,AMNE02.jpg,AMSA13.jpg,AMSA04.jpg,AMSA13.jpg,MS,2,num_2,16,num_2,1.28343680911,,,2017_Jun_08_1341,60.0067170284,FEMA4ImagesEEG,001,200515,
AFNE01.JPG,AFNE01.JPG,AFNE01.JPG,AFNE01.JPG,AFNE01.JPG,AFNE01.JPG,,,,,3,2,32,1,,,,,,,,,,,,,,,,,,,AMNE19.jpg,AMSA17.jpg,AMSA05.jpg,AMNE20.jpg,AMNE19.jpg,MN,1,num_8,16,num_8,1.03346591618,,,2017_Jun_08_1341,60.0067170284,FEMA4ImagesEEG,001,200515,
AFNE01.JPG,AFNE01.JPG,AFNE01.JPG,AFNE01.JPG,AFNE01.JPG,AFNE01.JPG,,,,,3,3,33,2,,,,,,,,,,,,,,,,,,,AMNE20.jpg,AMNE13.jpg,AMSA18.jpg,AMSA05.jpg,AMNE13.jpg,MN,1,num_6,32,num_4,0.516830943881,,,2017_Jun_08_1341,60.0067170284,FEMA4ImagesEEG,001,200515,
AFNE01.JPG,AFNE01.JPG,AFNE01.JPG,AFNE01.JPG,AFNE01.JPG,AFNE01.JPG,,,,,3,4,34,8,,,,,,,,,,,,,,,,,,,AMNE13.jpg,AMNE17.jpg,AMSA16.jpg,AMSA04.jpg,AMSA16.jpg,MS,2,num_2,32,num_8,0.333460239097,,,2017_Jun_08_1341,60.0067170284,FEMA4ImagesEEG,001,200515,
AFNE01.JPG,AFNE01.JPG,AFNE01.JPG,AFNE01.JPG,AFNE01.JPG,AFNE01.JPG,,,,,3,5,35,9,,,,,,,,,,,,,,,,,,,AMNE16.jpg,AMSA09.jpg,AMSA10.jpg,AMNE09.jpg,AMNE16.jpg,MN,1,num_8,32,num_6,1.68349467044,,,2017_Jun_08_1341,60.0067170284,FEMA4ImagesEEG,001,200515,
AFNE01.JPG,AFNE01.JPG,AFNE01.JPG,AFNE01.JPG,AFNE01.JPG,AFNE01.JPG,,,,,3,6,36,5,,,,,,,,,,,,,,,,,,,AMSA13.jpg,AMNE12.jpg,AMNE13.jpg,AMSA14.jpg,AMNE13.jpg,MN,1,num_2,32,num_6,0.883498583456,,,2017_Jun_08_1341,60.0067170284,FEMA4ImagesEEG,001,200515,
AFNE01.JPG,AFNE01.JPG,AFNE01.JPG,AFNE01.JPG,AFNE01.JPG,AFNE01.JPG,,,,,3,7,37,4,,,,,,,,,,,,,,,,,,,AMNE11.jpg,AMNE03.jpg,AMSA16.jpg,AMSA12.jpg,AMSA12.jpg,MS,2,num_4,32,num_6,0.583466734066,,,2017_Jun_08_1341,60.0067170284,FEMA4ImagesEEG,001,200515,
AFNE01.JPG,AFNE01.JPG,AFNE01.JPG,AFNE01.JPG,AFNE01.JPG,AFNE01.JPG,,,,,3,8,38,6,,,,,,,,,,,,,,,,,,,AMNE06.jpg,AMSA07.jpg,AMSA04.jpg,AMNE10.jpg,AMSA07.jpg,MS,2,num_6,32,num_8,0.733441443788,,,2017_Jun_08_1341,60.0067170284,FEMA4ImagesEEG,001,200515,
AFNE01.JPG,AFNE01.JPG,AFNE01.JPG,AFNE01.JPG,AFNE01.JPG,AFNE01.JPG,,,,,3,9,39,7,,,,,,,,,,,,,,,,,,,AMSA03.jpg,AMNE19.jpg,AMNE18.jpg,AMSA09.jpg,AMNE19.jpg,MN,1,num_6,16,num_6,0.533496867502,,,2017_Jun_08_1341,60.0067170284,FEMA4ImagesEEG,001,200515,
AFNE01.JPG,AFNE01.JPG,AFNE01.JPG,AFNE01.JPG,AFNE01.JPG,AFNE01.JPG,,,,,4,0,40,0,,,,,,,,,,,,,,,,,,,AMNE20.jpg,AMSA19.jpg,AMSA20.jpg,AMNE17.jpg,AMSA19.jpg,MS,2,num_6,32,num_4,0.633482466317,,,2017_Jun_08_1341,60.0067170284,FEMA4ImagesEEG,001,200515,
AFNE01.JPG,AFNE01.JPG,AFNE01.JPG,AFNE01.JPG,AFNE01.JPG,AFNE01.JPG,,,,,4,1,41,6,,,,,,,,,,,,,,,,,,,AMSA05.jpg,AMNE04.jpg,AMSA04.jpg,AMNE19.jpg,AMNE19.jpg,MN,1,num_4,32,num_6,0.333474030878,,,2017_Jun_08_1341,60.0067170284,FEMA4ImagesEEG,001,200515,
AFNE01.JPG,AFNE01.JPG,AFNE01.JPG,AFNE01.JPG,AFNE01.JPG,AFNE01.JPG,,,,,4,2,42,9,,,,,,,,,,,,,,,,,,,AMNE11.jpg,AMNE18.jpg,AMSA06.jpg,AMSA09.jpg,AMNE11.jpg,MN,1,num_8,32,num_4,0.266846579911,,,2017_Jun_08_1341,60.0067170284,FEMA4ImagesEEG,001,200515,
AFNE01.JPG,AFNE01.JPG,AFNE01.JPG,AFNE01.JPG,AFNE01.JPG,AFNE01.JPG,,,,,4,3,43,5,,,,,,,,,,,,,,,,,,,AMSA11.jpg,AMNE14.jpg,AMNE10.jpg,AMSA05.jpg,AMSA11.jpg,MS,2,num_8,32,num_6,0.416839571762,,,2017_Jun_08_1341,60.0067170284,FEMA4ImagesEEG,001,200515,
AFNE01.JPG,AFNE01.JPG,AFNE01.JPG,AFNE01.JPG,AFNE01.JPG,AFNE01.JPG,,,,,4,4,44,8,,,,,,,,,,,,,,,,,,,AMNE03.jpg,AMSA03.jpg,AMSA08.jpg,AMNE12.jpg,AMSA08.jpg,MS,2,num_2,32,num_8,0.583464168152,,,2017_Jun_08_1341,60.0067170284,FEMA4ImagesEEG,001,200515,
AFNE01.JPG,AFNE01.JPG,AFNE01.JPG,AFNE01.JPG,AFNE01.JPG,AFNE01.JPG,,,,,4,5,45,2,,,,,,,,,,,,,,,,,,,AMSA12.jpg,AMSA10.jpg,AMNE18.jpg,AMNE17.jpg,AMSA12.jpg,MS,2,num_8,32,num_4,0.566825828091,,,2017_Jun_08_1341,60.0067170284,FEMA4ImagesEEG,001,200515,
AFNE01.JPG,AFNE01.JPG,AFNE01.JPG,AFNE01.JPG,AFNE01.JPG,AFNE01.JPG,,,,,4,6,46,4,,,,,,,,,,,,,,,,,,,AMNE02.jpg,AMSA14.jpg,AMSA02.jpg,AMNE04.jpg,AMSA14.jpg,MS,2,num_6,16,num_6,0.466824192323,,,2017_Jun_08_1341,60.0067170284,FEMA4ImagesEEG,001,200515,
AFNE01.JPG,AFNE01.JPG,AFNE01.JPG,AFNE01.JPG,AFNE01.JPG,AFNE01.JPG,,,,,4,7,47,7,,,,,,,,,,,,,,,,,,,AMSA08.jpg,AMNE11.jpg,AMSA06.jpg,AMNE07.jpg,AMNE11.jpg,MN,1,num_6,32,num_8,0.266808732698,,,2017_Jun_08_1341,60.0067170284,FEMA4ImagesEEG,001,200515,
AFNE01.JPG,AFNE01.JPG,AFNE01.JPG,AFNE01.JPG,AFNE01.JPG,AFNE01.JPG,,,,,4,8,48,1,,,,,,,,,,,,,,,,,,,AMSA08.jpg,AMNE03.jpg,AMSA11.jpg,AMNE10.jpg,AMSA11.jpg,MS,2,num_2,32,num_8,0.950181201546,,,2017_Jun_08_1341,60.0067170284,FEMA4ImagesEEG,001,200515,
AFNE01.JPG,AFNE01.JPG,AFNE01.JPG,AFNE01.JPG,AFNE01.JPG,AFNE01.JPG,,,,,4,9,49,3,,,,,,,,,,,,,,,,,,,AMSA06.jpg,AMNE14.jpg,AMSA15.jpg,AMNE04.jpg,AMSA06.jpg,MS,2,num_8,32,num_4,0.566658402289,,,2017_Jun_08_1341,60.0067170284,FEMA4ImagesEEG,001,200515,
AFNE01.JPG,AFNE01.JPG,AFNE01.JPG,AFNE01.JPG,AFNE01.JPG,AFNE01.JPG,,,,,5,0,50,7,,,,,,,,,,,,,,,,,,,AMNE12.jpg,AMNE06.jpg,AMSA07.jpg,AMSA06.jpg,AMNE06.jpg,MN,1,num_6,16,num_6,0.266789809093,,,2017_Jun_08_1341,60.0067170284,FEMA4ImagesEEG,001,200515,
AFNE01.JPG,AFNE01.JPG,AFNE01.JPG,AFNE01.JPG,AFNE01.JPG,AFNE01.JPG,,,,,5,1,51,2,,,,,,,,,,,,,,,,,,,AMSA17.jpg,AMSA08.jpg,AMNE19.jpg,AMNE07.jpg,AMSA08.jpg,MS,2,num_6,32,num_4,2.01667618727,,,2017_Jun_08_1341,60.0067170284,FEMA4ImagesEEG,001,200515,
AFNE01.JPG,AFNE01.JPG,AFNE01.JPG,AFNE01.JPG,AFNE01.JPG,AFNE01.JPG,,,,,5,2,52,8,,,,,,,,,,,,,,,,,,,AMSA01.jpg,AMSA08.jpg,AMNE10.jpg,AMNE08.jpg,AMNE08.jpg,MN,1,num_4,32,num_6,0.350151821847,,,2017_Jun_08_1341,60.0067170284,FEMA4ImagesEEG,001,200515,
AFNE01.JPG,AFNE01.JPG,AFNE01.JPG,AFNE01.JPG,AFNE01.JPG,AFNE01.JPG,,,,,5,3,53,6,,,,,,,,,,,,,,,,,,,AMSA01.jpg,AMNE08.jpg,AMNE11.jpg,AMSA15.jpg,AMSA15.jpg,MS,2,num_4,16,num_4,0.83348413416,,,2017_Jun_08_1341,60.0067170284,FEMA4ImagesEEG,001,200515,
AFNE01.JPG,AFNE01.JPG,AFNE01.JPG,AFNE01.JPG,AFNE01.JPG,AFNE01.JPG,,,,,5,4,54,9,,,,,,,,,,,,,,,,,,,AMSA10.jpg,AMSA08.jpg,AMNE03.jpg,AMNE01.jpg,AMNE03.jpg,MN,1,num_2,32,num_8,0.350173632105,,,2017_Jun_08_1341,60.0067170284,FEMA4ImagesEEG,001,200515,
AFNE01.JPG,AFNE01.JPG,AFNE01.JPG,AFNE01.JPG,AFNE01.JPG,AFNE01.JPG,,,,,5,5,55,5,,,,,,,,,,,,,,,,,,,AMSA07.jpg,AMNE20.jpg,AMNE13.jpg,AMSA12.jpg,AMNE20.jpg,MN,1,num_6,32,num_4,0.68347702979,,,2017_Jun_08_1341,60.0067170284,FEMA4ImagesEEG,001,200515,
AFNE01.JPG,AFNE01.JPG,AFNE01.JPG,AFNE01.JPG,AFNE01.JPG,AFNE01.JPG,,,,,5,6,56,3,,,,,,,,,,,,,,,,,,,AMSA04.jpg,AMSA08.jpg,AMNE17.jpg,AMNE12.jpg,AMSA08.jpg,MS,2,num_6,16,num_6,0.300146673984,,,2017_Jun_08_1341,60.0067170284,FEMA4ImagesEEG,001,200515,
AFNE01.JPG,AFNE01.JPG,AFNE01.JPG,AFNE01.JPG,AFNE01.JPG,AFNE01.JPG,,,,,5,7,57,0,,,,,,,,,,,,,,,,,,,AMSA12.jpg,AMSA09.jpg,AMNE08.jpg,AMNE01.jpg,AMSA12.jpg,MS,2,num_8,16,num_8,0.250176486681,,,2017_Jun_08_1341,60.0067170284,FEMA4ImagesEEG,001,200515,
AFNE01.JPG,AFNE01.JPG,AFNE01.JPG,AFNE01.JPG,AFNE01.JPG,AFNE01.JPG,,,,,5,8,58,4,,,,,,,,,,,,,,,,,,,AMNE13.jpg,AMSA07.jpg,AMSA09.jpg,AMNE02.jpg,AMSA07.jpg,MS,2,num_6,32,num_2,0.4501377414,,,2017_Jun_08_1341,60.0067170284,FEMA4ImagesEEG,001,200515,
AFNE01.JPG,AFNE01.JPG,AFNE01.JPG,AFNE01.JPG,AFNE01.JPG,AFNE01.JPG,,,,,5,9,59,1,,,,,,,,,,,,,,,,,,,AMSA17.jpg,AMNE18.jpg,AMNE17.jpg,AMSA19.jpg,AMSA19.jpg,MS,2,num_4,16,num_4,0.283461506018,,,2017_Jun_08_1341,60.0067170284,FEMA4ImagesEEG,001,200515,
,,,,,,,,,,,,,,,,,,,,,,,,,,,,,,,,,,,,,,,,,,,space,17.4321327321,2017_Jun_08_1341,60.0067170284,FEMA4ImagesEEG,001,200515,
AFNE01.JPG,AFNE01.JPG,AFNE01.JPG,AFNE01.JPG,AFNE01.JPG,AFNE01.JPG,,,,,,,,,0,0,0,8,,,,,,,,,,,,,,,AFNE19.jpg,AFNE10.jpg,AFSA19.jpg,AFSA08.jpg,AFSA19.jpg,FS,4,num_2,32,num_8,0.300155013199,,,2017_Jun_08_1341,60.0067170284,FEMA4ImagesEEG,001,200515,
AFNE01.JPG,AFNE01.JPG,AFNE01.JPG,AFNE01.JPG,AFNE01.JPG,AFNE01.JPG,,,,,,,,,0,1,1,5,,,,,,,,,,,,,,,AFNE17.jpg,AFSA19.jpg,AFNE20.jpg,AFSA11.jpg,AFNE20.jpg,FN,3,num_2,32,num_4,0.250171354855,,,2017_Jun_08_1341,60.0067170284,FEMA4ImagesEEG,001,200515,
AFNE01.JPG,AFNE01.JPG,AFNE01.JPG,AFNE01.JPG,AFNE01.JPG,AFNE01.JPG,,,,,,,,,0,2,2,7,,,,,,,,,,,,,,,AFNE07.jpg,AFSA17.jpg,AFSA04.jpg,AFNE20.jpg,AFNE20.jpg,FN,3,num_4,32,num_6,0.233463414415,,,2017_Jun_08_1341,60.0067170284,FEMA4ImagesEEG,001,200515,
AFNE01.JPG,AFNE01.JPG,AFNE01.JPG,AFNE01.JPG,AFNE01.JPG,AFNE01.JPG,,,,,,,,,0,3,3,2,,,,,,,,,,,,,,,AFNE16.jpg,AFSA01.jpg,AFSA12.jpg,AFNE04.jpg,AFNE04.jpg,FN,3,num_4,16,num_4,0.616813656045,,,2017_Jun_08_1341,60.0067170284,FEMA4ImagesEEG,001,200515,
AFNE01.JPG,AFNE01.JPG,AFNE01.JPG,AFNE01.JPG,AFNE01.JPG,AFNE01.JPG,,,,,,,,,0,4,4,1,,,,,,,,,,,,,,,AFSA10.jpg,AFNE12.jpg,AFSA05.jpg,AFNE07.jpg,AFNE12.jpg,FN,3,num_6,32,num_8,0.316804899867,,,2017_Jun_08_1341,60.0067170284,FEMA4ImagesEEG,001,200515,
AFNE01.JPG,AFNE01.JPG,AFNE01.JPG,AFNE01.JPG,AFNE01.JPG,AFNE01.JPG,,,,,,,,,0,5,5,0,,,,,,,,,,,,,,,AFSA18.jpg,AFNE17.jpg,AFSA01.jpg,AFNE20.jpg,AFSA01.jpg,FS,4,num_2,32,num_4,0.350115578331,,,2017_Jun_08_1341,60.0067170284,FEMA4ImagesEEG,001,200515,
AFNE01.JPG,AFNE01.JPG,AFNE01.JPG,AFNE01.JPG,AFNE01.JPG,AFNE01.JPG,,,,,,,,,0,6,6,9,,,,,,,,,,,,,,,AFSA15.jpg,AFNE08.jpg,AFNE15.jpg,AFSA17.jpg,AFSA15.jpg,FS,4,num_8,32,num_4,0.366821273597,,,2017_Jun_08_1341,60.0067170284,FEMA4ImagesEEG,001,200515,
AFNE01.JPG,AFNE01.JPG,AFNE01.JPG,AFNE01.JPG,AFNE01.JPG,AFNE01.JPG,,,,,,,,,0,7,7,3,,,,,,,,,,,,,,,AFSA02.jpg,AFSA07.jpg,AFNE16.jpg,AFNE20.jpg,AFSA07.jpg,FS,4,num_6,16,num_6,0.166818322798,,,2017_Jun_08_1341,60.0067170284,FEMA4ImagesEEG,001,200515,
AFNE01.JPG,AFNE01.JPG,AFNE01.JPG,AFNE01.JPG,AFNE01.JPG,AFNE01.JPG,,,,,,,,,0,8,8,6,,,,,,,,,,,,,,,AFNE09.jpg,AFNE02.jpg,AFSA07.jpg,AFSA15.jpg,AFSA07.jpg,FS,4,num_2,32,num_8,0.383580853031,,,2017_Jun_08_1341,60.0067170284,FEMA4ImagesEEG,001,200515,
AFNE01.JPG,AFNE01.JPG,AFNE01.JPG,AFNE01.JPG,AFNE01.JPG,AFNE01.JPG,,,,,,,,,0,9,9,4,,,,,,,,,,,,,,,AFNE02.jpg,AFSA06.jpg,AFNE08.jpg,AFSA17.jpg,AFNE02.jpg,FN,3,num_8,32,num_2,0.316792391042,,,2017_Jun_08_1341,60.0067170284,FEMA4ImagesEEG,001,200515,
AFNE01.JPG,AFNE01.JPG,AFNE01.JPG,AFNE01.JPG,AFNE01.JPG,AFNE01.JPG,,,,,,,,,1,0,10,4,,,,,,,,,,,,,,,AFSA20.jpg,AFSA08.jpg,AFNE07.jpg,AFNE02.jpg,AFSA20.jpg,FS,4,num_8,16,num_8,1.20009211627,,,2017_Jun_08_1341,60.0067170284,FEMA4ImagesEEG,001,200515,
AFNE01.JPG,AFNE01.JPG,AFNE01.JPG,AFNE01.JPG,AFNE01.JPG,AFNE01.JPG,,,,,,,,,1,1,11,6,,,,,,,,,,,,,,,AFSA19.jpg,AFNE03.jpg,AFSA02.jpg,AFNE10.jpg,AFNE03.jpg,FN,3,num_6,16,num_6,0.583462243718,,,2017_Jun_08_1341,60.0067170284,FEMA4ImagesEEG,001,200515,
AFNE01.JPG,AFNE01.JPG,AFNE01.JPG,AFNE01.JPG,AFNE01.JPG,AFNE01.JPG,,,,,,,,,1,2,12,7,,,,,,,,,,,,,,,AFSA15.jpg,AFNE15.jpg,AFSA01.jpg,AFNE06.jpg,AFNE15.jpg,FN,3,num_6,32,num_4,1.2834342432,,,2017_Jun_08_1341,60.0067170284,FEMA4ImagesEEG,001,200515,
AFNE01.JPG,AFNE01.JPG,AFNE01.JPG,AFNE01.JPG,AFNE01.JPG,AFNE01.JPG,,,,,,,,,1,3,13,5,,,,,,,,,,,,,,,AFSA19.jpg,AFNE06.jpg,AFSA03.jpg,AFNE18.jpg,AFSA03.jpg,FS,4,num_2,32,num_6,0.916858976476,,,2017_Jun_08_1341,60.0067170284,FEMA4ImagesEEG,001,200515,
AFNE01.JPG,AFNE01.JPG,AFNE01.JPG,AFNE01.JPG,AFNE01.JPG,AFNE01.JPG,,,,,,,,,1,4,14,9,,,,,,,,,,,,,,,AFSA20.jpg,AFNE08.jpg,AFNE17.jpg,AFSA11.jpg,AFSA20.jpg,FS,4,num_8,32,num_4,0.716821385855,,,2017_Jun_08_1341,60.0067170284,FEMA4ImagesEEG,001,200515,
AFNE01.JPG,AFNE01.JPG,AFNE01.JPG,AFNE01.JPG,AFNE01.JPG,AFNE01.JPG,,,,,,,,,1,5,15,8,,,,,,,,,,,,,,,AFNE11.jpg,AFNE17.jpg,AFSA06.jpg,AFSA02.jpg,AFSA02.jpg,FS,4,num_4,32,num_6,0.533593089227,,,2017_Jun_08_1341,60.0067170284,FEMA4ImagesEEG,001,200515,
AFNE01.JPG,AFNE01.JPG,AFNE01.JPG,AFNE01.JPG,AFNE01.JPG,AFNE01.JPG,,,,,,,,,1,6,16,0,,,,,,,,,,,,,,,AFSA20.jpg,AFSA09.jpg,AFNE01.jpg,AFNE11.jpg,AFNE01.jpg,FN,3,num_2,32,num_8,0.300152447287,,,2017_Jun_08_1341,60.0067170284,FEMA4ImagesEEG,001,200515,
AFNE01.JPG,AFNE01.JPG,AFNE01.JPG,AFNE01.JPG,AFNE01.JPG,AFNE01.JPG,,,,,,,,,1,7,17,1,,,,,,,,,,,,,,,AFNE18.jpg,AFSA09.jpg,AFSA02.jpg,AFNE07.jpg,AFNE07.jpg,FN,3,num_4,16,num_4,0.383480782437,,,2017_Jun_08_1341,60.0067170284,FEMA4ImagesEEG,001,200515,
AFNE01.JPG,AFNE01.JPG,AFNE01.JPG,AFNE01.JPG,AFNE01.JPG,AFNE01.JPG,,,,,,,,,1,8,18,3,,,,,,,,,,,,,,,AFSA20.jpg,AFNE14.jpg,AFNE05.jpg,AFSA09.jpg,AFSA20.jpg,FS,4,num_8,32,num_6,0.35016080254,,,2017_Jun_08_1341,60.0067170284,FEMA4ImagesEEG,001,200515,
AFNE01.JPG,AFNE01.JPG,AFNE01.JPG,AFNE01.JPG,AFNE01.JPG,AFNE01.JPG,,,,,,,,,1,9,19,2,,,,,,,,,,,,,,,AFNE09.jpg,AFSA03.jpg,AFNE20.jpg,AFSA19.jpg,AFSA19.jpg,FS,4,num_4,32,num_6,0.783503362469,,,2017_Jun_08_1341,60.0067170284,FEMA4ImagesEEG,001,200515,
AFNE01.JPG,AFNE01.JPG,AFNE01.JPG,AFNE01.JPG,AFNE01.JPG,AFNE01.JPG,,,,,,,,,2,0,20,1,,,,,,,,,,,,,,,AFSA15.jpg,AFNE10.jpg,AFNE18.jpg,AFSA12.jpg,AFSA12.jpg,FS,4,num_4,16,num_4,0.533445549247,,,2017_Jun_08_1341,60.0067170284,FEMA4ImagesEEG,001,200515,
AFNE01.JPG,AFNE01.JPG,AFNE01.JPG,AFNE01.JPG,AFNE01.JPG,AFNE01.JPG,,,,,,,,,2,1,21,4,,,,,,,,,,,,,,,AFSA10.jpg,AFNE16.jpg,AFNE12.jpg,AFSA13.jpg,AFNE16.jpg,FN,3,num_6,32,num_4,0.750180495919,,,2017_Jun_08_1341,60.0067170284,FEMA4ImagesEEG,001,200515,
AFNE01.JPG,AFNE01.JPG,AFNE01.JPG,AFNE01.JPG,AFNE01.JPG,AFNE01.JPG,,,,,,,,,2,2,22,7,,,,,,,,,,,,,,,AFNE12.jpg,AFNE06.jpg,AFSA02.jpg,AFSA08.jpg,AFNE12.jpg,FN,3,num_8,32,num_6,0.316809390215,,,2017_Jun_08_1341,60.0067170284,FEMA4ImagesEEG,001,200515,
AFNE01.JPG,AFNE01.JPG,AFNE01.JPG,AFNE01.JPG,AFNE01.JPG,AFNE01.JPG,,,,,,,,,2,3,23,8,,,,,,,,,,,,,,,AFSA17.jpg,AFNE13.jpg,AFSA13.jpg,AFNE06.jpg,AFNE06.jpg,FN,3,num_4,16,num_4,0.733449462265,,,2017_Jun_08_1341,60.0067170284,FEMA4ImagesEEG,001,200515,
AFNE01.JPG,AFNE01.JPG,AFNE01.JPG,AFNE01.JPG,AFNE01.JPG,AFNE01.JPG,,,,,,,,,2,4,24,6,,,,,,,,,,,,,,,AFSA05.jpg,AFNE12.jpg,AFSA07.jpg,AFNE16.jpg,AFNE16.jpg,FN,3,num_4,32,num_6,0.400270832084,,,2017_Jun_08_1341,60.0067170284,FEMA4ImagesEEG,001,200515,
AFNE01.JPG,AFNE01.JPG,AFNE01.JPG,AFNE01.JPG,AFNE01.JPG,AFNE01.JPG,,,,,,,,,2,5,25,3,,,,,,,,,,,,,,,AFSA09.jpg,AFSA18.jpg,AFNE18.jpg,AFNE19.jpg,AFSA09.jpg,FS,4,num_8,16,num_8,0.233467584023,,,2017_Jun_08_1341,60.0067170284,FEMA4ImagesEEG,001,200515,
AFNE01.JPG,AFNE01.JPG,AFNE01.JPG,AFNE01.JPG,AFNE01.JPG,AFNE01.JPG,,,,,,,,,2,6,26,9,,,,,,,,,,,,,,,AFSA17.jpg,AFNE10.jpg,AFSA13.jpg,AFNE11.jpg,AFNE10.jpg,FN,3,num_6,32,num_4,0.483478248598,,,2017_Jun_08_1341,60.0067170284,FEMA4ImagesEEG,001,200515,
AFNE01.JPG,AFNE01.JPG,AFNE01.JPG,AFNE01.JPG,AFNE01.JPG,AFNE01.JPG,,,,,,,,,2,7,27,0,,,,,,,,,,,,,,,AFSA07.jpg,AFNE07.jpg,AFNE18.jpg,AFSA20.jpg,AFNE07.jpg,FN,3,num_6,16,num_6,0.0335364787788,,,2017_Jun_08_1341,60.0067170284,FEMA4ImagesEEG,001,200515,
AFNE01.JPG,AFNE01.JPG,AFNE01.JPG,AFNE01.JPG,AFNE01.JPG,AFNE01.JPG,,,,,,,,,2,8,28,5,,,,,,,,,,,,,,,AFNE20.jpg,AFSA10.jpg,AFNE01.jpg,AFSA11.jpg,AFSA11.jpg,FS,4,num_4,16,num_4,0.816829115669,,,2017_Jun_08_1341,60.0067170284,FEMA4ImagesEEG,001,200515,
AFNE01.JPG,AFNE01.JPG,AFNE01.JPG,AFNE01.JPG,AFNE01.JPG,AFNE01.JPG,,,,,,,,,2,9,29,2,,,,,,,,,,,,,,,AFSA20.jpg,AFNE03.jpg,AFNE14.jpg,AFSA08.jpg,AFNE03.jpg,FN,3,num_6,32,num_8,0.333469219793,,,2017_Jun_08_1341,60.0067170284,FEMA4ImagesEEG,001,200515,
AFNE01.JPG,AFNE01.JPG,AFNE01.JPG,AFNE01.JPG,AFNE01.JPG,AFNE01.JPG,,,,,,,,,3,0,30,0,,,,,,,,,,,,,,,AFNE16.jpg,AFNE15.jpg,AFSA13.jpg,AFSA12.jpg,AFNE16.jpg,FN,3,num_8,32,num_6,0.416780876509,,,2017_Jun_08_1341,60.0067170284,FEMA4ImagesEEG,001,200515,
AFNE01.JPG,AFNE01.JPG,AFNE01.JPG,AFNE01.JPG,AFNE01.JPG,AFNE01.JPG,,,,,,,,,3,1,31,4,,,,,,,,,,,,,,,AFNE15.jpg,AFSA14.jpg,AFNE13.jpg,AFSA02.jpg,AFSA02.jpg,FS,4,num_4,32,num_8,0.366784388603,,,2017_Jun_08_1341,60.0067170284,FEMA4ImagesEEG,001,200515,
AFNE01.JPG,AFNE01.JPG,AFNE01.JPG,AFNE01.JPG,AFNE01.JPG,AFNE01.JPG,,,,,,,,,3,2,32,2,,,,,,,,,,,,,,,AFNE10.jpg,AFNE11.jpg,AFSA16.jpg,AFSA15.jpg,AFNE10.jpg,FN,3,num_8,32,num_4,0.900065719439,,,2017_Jun_08_1341,60.0067170284,FEMA4ImagesEEG,001,200515,
AFNE01.JPG,AFNE01.JPG,AFNE01.JPG,AFNE01.JPG,AFNE01.JPG,AFNE01.JPG,,,,,,,,,3,3,33,6,,,,,,,,,,,,,,,AFSA08.jpg,AFSA11.jpg,AFNE05.jpg,AFNE11.jpg,AFSA11.jpg,FS,4,num_6,32,num_4,1.94999709731,,,2017_Jun_08_1341,60.0067170284,FEMA4ImagesEEG,001,200515,
AFNE01.JPG,AFNE01.JPG,AFNE01.JPG,AFNE01.JPG,AFNE01.JPG,AFNE01.JPG,,,,,,,,,3,4,34,1,,,,,,,,,,,,,,,AFSA08.jpg,AFNE17.jpg,AFSA03.jpg,AFNE12.jpg,AFNE12.jpg,FN,3,num_4,32,num_6,0.333488143398,,,2017_Jun_08_1341,60.0067170284,FEMA4ImagesEEG,001,200515,
AFNE01.JPG,AFNE01.JPG,AFNE01.JPG,AFNE01.JPG,AFNE01.JPG,AFNE01.JPG,,,,,,,,,3,5,35,5,,,,,,,,,,,,,,,AFSA12.jpg,AFNE17.jpg,AFSA09.jpg,AFNE19.jpg,AFSA09.jpg,FS,4,num_2,32,num_4,0.383503554911,,,2017_Jun_08_1341,60.0067170284,FEMA4ImagesEEG,001,200515,
AFNE01.JPG,AFNE01.JPG,AFNE01.JPG,AFNE01.JPG,AFNE01.JPG,AFNE01.JPG,,,,,,,,,3,6,36,3,,,,,,,,,,,,,,,AFNE14.jpg,AFNE08.jpg,AFSA16.jpg,AFSA05.jpg,AFNE08.jpg,FN,3,num_6,16,num_6,0.333518613612,,,2017_Jun_08_1341,60.0067170284,FEMA4ImagesEEG,001,200515,
AFNE01.JPG,AFNE01.JPG,AFNE01.JPG,AFNE01.JPG,AFNE01.JPG,AFNE01.JPG,,,,,,,,,3,7,37,8,,,,,,,,,,,,,,,AFNE02.jpg,AFNE11.jpg,AFSA20.jpg,AFSA18.jpg,AFNE11.jpg,FN,3,num_6,32,num_4,0.583483733237,,,2017_Jun_08_1341,60.0067170284,FEMA4ImagesEEG,001,200515,
AFNE01.JPG,AFNE01.JPG,AFNE01.JPG,AFNE01.JPG,AFNE01.JPG,AFNE01.JPG,,,,,,,,,3,8,38,9,,,,,,,,,,,,,,,AFNE16.jpg,AFNE14.jpg,AFSA01.jpg,AFSA04.jpg,AFSA01.jpg,FS,4,num_2,32,num_4,0.400189685095,,,2017_Jun_08_1341,60.0067170284,FEMA4ImagesEEG,001,200515,
AFNE01.JPG,AFNE01.JPG,AFNE01.JPG,AFNE01.JPG,AFNE01.JPG,AFNE01.JPG,,,,,,,,,3,9,39,7,,,,,,,,,,,,,,,AFSA05.jpg,AFNE03.jpg,AFNE19.jpg,AFSA07.jpg,AFNE03.jpg,FN,3,num_6,16,num_6,0.73345812222,,,2017_Jun_08_1341,60.0067170284,FEMA4ImagesEEG,001,200515,
AFNE01.JPG,AFNE01.JPG,AFNE01.JPG,AFNE01.JPG,AFNE01.JPG,AFNE01.JPG,,,,,,,,,4,0,40,8,,,,,,,,,,,,,,,AFSA08.jpg,AFNE15.jpg,AFNE20.jpg,AFSA10.jpg,AFSA10.jpg,FS,4,num_4,32,num_8,0.333532405391,,,2017_Jun_08_1341,60.0067170284,FEMA4ImagesEEG,001,200515,
AFNE01.JPG,AFNE01.JPG,AFNE01.JPG,AFNE01.JPG,AFNE01.JPG,AFNE01.JPG,,,,,,,,,4,1,41,9,,,,,,,,,,,,,,,AFSA12.jpg,AFNE20.jpg,AFNE14.jpg,AFSA18.jpg,AFSA12.jpg,FS,4,num_8,32,num_4,0.300265347445,,,2017_Jun_08_1341,60.0067170284,FEMA4ImagesEEG,001,200515,
AFNE01.JPG,AFNE01.JPG,AFNE01.JPG,AFNE01.JPG,AFNE01.JPG,AFNE01.JPG,,,,,,,,,4,2,42,3,,,,,,,,,,,,,,,AFSA14.jpg,AFNE19.jpg,AFSA13.jpg,AFNE20.jpg,AFSA13.jpg,FS,4,num_2,32,num_6,0.450151212443,,,2017_Jun_08_1341,60.0067170284,FEMA4ImagesEEG,001,200515,
AFNE01.JPG,AFNE01.JPG,AFNE01.JPG,AFNE01.JPG,AFNE01.JPG,AFNE01.JPG,,,,,,,,,4,3,43,5,,,,,,,,,,,,,,,AFSA09.jpg,AFNE11.jpg,AFNE04.jpg,AFSA08.jpg,AFSA09.jpg,FS,4,num_8,16,num_8,0.716779048296,,,2017_Jun_08_1341,60.0067170284,FEMA4ImagesEEG,001,200515,
AFNE01.JPG,AFNE01.JPG,AFNE01.JPG,AFNE01.JPG,AFNE01.JPG,AFNE01.JPG,,,,,,,,,4,4,44,4,,,,,,,,,,,,,,,AFNE07.jpg,AFNE08.jpg,AFSA12.jpg,AFSA06.jpg,AFNE07.jpg,FN,3,num_8,32,num_4,0.766775215465,,,2017_Jun_08_1341,60.0067170284,FEMA4ImagesEEG,001,200515,
AFNE01.JPG,AFNE01.JPG,AFNE01.JPG,AFNE01.JPG,AFNE01.JPG,AFNE01.JPG,,,,,,,,,4,5,45,7,,,,,,,,,,,,,,,AFNE03.jpg,AFSA18.jpg,AFNE20.jpg,AFSA04.jpg,AFNE20.jpg,FN,3,num_2,32,num_4,0.833452060253,,,2017_Jun_08_1341,60.0067170284,FEMA4ImagesEEG,001,200515,
AFNE01.JPG,AFNE01.JPG,AFNE01.JPG,AFNE01.JPG,AFNE01.JPG,AFNE01.JPG,,,,,,,,,4,6,46,1,,,,,,,,,,,,,,,AFNE06.jpg,AFNE15.jpg,AFSA18.jpg,AFSA20.jpg,AFNE15.jpg,FN,3,num_6,32,num_4,0.483489474467,,,2017_Jun_08_1341,60.0067170284,FEMA4ImagesEEG,001,200515,
AFNE01.JPG,AFNE01.JPG,AFNE01.JPG,AFNE01.JPG,AFNE01.JPG,AFNE01.JPG,,,,,,,,,4,7,47,0,,,,,,,,,,,,,,,AFSA20.jpg,AFNE10.jpg,AFNE12.jpg,AFSA08.jpg,AFSA20.jpg,FS,4,num_8,32,num_6,0.400164346707,,,2017_Jun_08_1341,60.0067170284,FEMA4ImagesEEG,001,200515,
AFNE01.JPG,AFNE01.JPG,AFNE01.JPG,AFNE01.JPG,AFNE01.JPG,AFNE01.JPG,,,,,,,,,4,8,48,2,,,,,,,,,,,,,,,AFSA08.jpg,AFSA03.jpg,AFNE06.jpg,AFNE13.jpg,AFSA03.jpg,FS,4,num_6,32,num_8,0.366904024282,,,2017_Jun_08_1341,60.0067170284,FEMA4ImagesEEG,001,200515,
AFNE01.JPG,AFNE01.JPG,AFNE01.JPG,AFNE01.JPG,AFNE01.JPG,AFNE01.JPG,,,,,,,,,4,9,49,6,,,,,,,,,,,,,,,AFSA14.jpg,AFNE15.jpg,AFNE04.jpg,AFSA09.jpg,AFSA09.jpg,FS,4,num_4,16,num_4,0.983428373669,,,2017_Jun_08_1341,60.0067170284,FEMA4ImagesEEG,001,200515,
AFNE01.JPG,AFNE01.JPG,AFNE01.JPG,AFNE01.JPG,AFNE01.JPG,AFNE01.JPG,,,,,,,,,5,0,50,2,,,,,,,,,,,,,,,AFSA12.jpg,AFSA14.jpg,AFNE05.jpg,AFNE06.jpg,AFSA12.jpg,FS,4,num_8,32,num_6,0.416850476891,,,2017_Jun_08_1341,60.0067170284,FEMA4ImagesEEG,001,200515,
AFNE01.JPG,AFNE01.JPG,AFNE01.JPG,AFNE01.JPG,AFNE01.JPG,AFNE01.JPG,,,,,,,,,5,1,51,0,,,,,,,,,,,,,,,AFNE07.jpg,AFNE05.jpg,AFSA12.jpg,AFSA09.jpg,AFNE05.jpg,FN,3,num_6,32,num_8,0.450117855577,,,2017_Jun_08_1341,60.0067170284,FEMA4ImagesEEG,001,200515,
AFNE01.JPG,AFNE01.JPG,AFNE01.JPG,AFNE01.JPG,AFNE01.JPG,AFNE01.JPG,,,,,,,,,5,2,52,9,,,,,,,,,,,,,,,AFSA09.jpg,AFNE10.jpg,AFNE08.jpg,AFSA19.jpg,AFNE08.jpg,FN,3,num_2,16,num_2,0.266771206227,,,2017_Jun_08_1341,60.0067170284,FEMA4ImagesEEG,001,200515,
AFNE01.JPG,AFNE01.JPG,AFNE01.JPG,AFNE01.JPG,AFNE01.JPG,AFNE01.JPG,,,,,,,,,5,3,53,6,,,,,,,,,,,,,,,AFNE14.jpg,AFNE05.jpg,AFSA08.jpg,AFSA03.jpg,AFSA03.jpg,FS,4,num_4,16,num_4,0.233499657932,,,2017_Jun_08_1341,60.0067170284,FEMA4ImagesEEG,001,200515,
AFNE01.JPG,AFNE01.JPG,AFNE01.JPG,AFNE01.JPG,AFNE01.JPG,AFNE01.JPG,,,,,,,,,5,4,54,1,,,,,,,,,,,,,,,AFNE09.jpg,AFSA08.jpg,AFNE11.jpg,AFSA05.jpg,AFSA08.jpg,FS,4,num_6,16,num_6,0.0835413059012,,,2017_Jun_08_1341,60.0067170284,FEMA4ImagesEEG,001,200515,
AFNE01.JPG,AFNE01.JPG,AFNE01.JPG,AFNE01.JPG,AFNE01.JPG,AFNE01.JPG,,,,,,,,,5,5,55,3,,,,,,,,,,,,,,,AFSA08.jpg,AFSA03.jpg,AFNE05.jpg,AFNE10.jpg,AFSA03.jpg,FS,4,num_6,32,num_8,0.350153425541,,,2017_Jun_08_1341,60.0067170284,FEMA4ImagesEEG,001,200515,
AFNE01.JPG,AFNE01.JPG,AFNE01.JPG,AFNE01.JPG,AFNE01.JPG,AFNE01.JPG,,,,,,,,,5,6,56,5,,,,,,,,,,,,,,,AFSA16.jpg,AFNE01.jpg,AFSA01.jpg,AFNE20.jpg,AFNE20.jpg,FN,3,num_4,16,num_4,0.33355100826,,,2017_Jun_08_1341,60.0067170284,FEMA4ImagesEEG,001,200515,
AFNE01.JPG,AFNE01.JPG,AFNE01.JPG,AFNE01.JPG,AFNE01.JPG,AFNE01.JPG,,,,,,,,,5,7,57,4,,,,,,,,,,,,,,,AFSA09.jpg,AFNE04.jpg,AFSA01.jpg,AFNE16.jpg,AFNE16.jpg,FN,3,num_4,32,num_6,0.28348139184,,,2017_Jun_08_1341,60.0067170284,FEMA4ImagesEEG,001,200515,
AFNE01.JPG,AFNE01.JPG,AFNE01.JPG,AFNE01.JPG,AFNE01.JPG,AFNE01.JPG,,,,,,,,,5,8,58,7,,,,,,,,,,,,,,,AFNE05.jpg,AFSA12.jpg,AFNE13.jpg,AFSA13.jpg,AFNE13.jpg,FN,3,num_2,32,num_4,0.450131647358,,,2017_Jun_08_1341,60.0067170284,FEMA4ImagesEEG,001,200515,
AFNE01.JPG,AFNE01.JPG,AFNE01.JPG,AFNE01.JPG,AFNE01.JPG,AFNE01.JPG,,,,,,,,,5,9,59,8,,,,,,,,,,,,,,,AFNE09.jpg,AFNE14.jpg,AFSA06.jpg,AFSA02.jpg,AFNE09.jpg,FN,3,num_8,32,num_6,0.416924246882,,,2017_Jun_08_1341,60.0067170284,FEMA4ImagesEEG,001,200515,
,,,,,,,,,,,,,,,,,,,,,,,,,,,,,,,,,,,,,,,,,,,space,15.2486549005,2017_Jun_08_1341,60.0067170284,FEMA4ImagesEEG,001,200515,
AFNE01.JPG,AFNE01.JPG,AFNE01.JPG,AFNE01.JPG,AFNE01.JPG,AFNE01.JPG,,,,,,,,,,,,,0,0,0,0,,,,,,,,,,,AMNE09.jpg,AMSA11.jpg,AMSA03.jpg,AMNE19.jpg,AMNE19.jpg,MN,1,num_4,16,num_4,0.316838577472,,,2017_Jun_08_1341,60.0067170284,FEMA4ImagesEEG,001,200515,
AFNE01.JPG,AFNE01.JPG,AFNE01.JPG,AFNE01.JPG,AFNE01.JPG,AFNE01.JPG,,,,,,,,,,,,,0,1,1,5,,,,,,,,,,,AMSA17.jpg,AMNE10.jpg,AMNE02.jpg,AMSA13.jpg,AMSA13.jpg,MS,2,num_4,32,num_6,0.383511894128,,,2017_Jun_08_1341,60.0067170284,FEMA4ImagesEEG,001,200515,
AFNE01.JPG,AFNE01.JPG,AFNE01.JPG,AFNE01.JPG,AFNE01.JPG,AFNE01.JPG,,,,,,,,,,,,,0,2,2,1,,,,,,,,,,,AMSA09.jpg,AMNE09.jpg,AMSA20.jpg,AMNE05.jpg,AMSA20.jpg,MS,2,num_2,32,num_8,0.216867732654,,,2017_Jun_08_1341,60.0067170284,FEMA4ImagesEEG,001,200515,
AFNE01.JPG,AFNE01.JPG,AFNE01.JPG,AFNE01.JPG,AFNE01.JPG,AFNE01.JPG,,,,,,,,,,,,,0,3,3,3,,,,,,,,,,,AMSA08.jpg,AMNE17.jpg,AMNE19.jpg,AMSA02.jpg,AMSA02.jpg,MS,2,num_4,32,num_6,0.383482706871,,,2017_Jun_08_1341,60.0067170284,FEMA4ImagesEEG,001,200515,
AFNE01.JPG,AFNE01.JPG,AFNE01.JPG,AFNE01.JPG,AFNE01.JPG,AFNE01.JPG,,,,,,,,,,,,,0,4,4,8,,,,,,,,,,,AMSA16.jpg,AMNE07.jpg,AMSA05.jpg,AMNE04.jpg,AMSA16.jpg,MS,2,num_8,32,num_2,0.233622821741,,,2017_Jun_08_1341,60.0067170284,FEMA4ImagesEEG,001,200515,
AFNE01.JPG,AFNE01.JPG,AFNE01.JPG,AFNE01.JPG,AFNE01.JPG,AFNE01.JPG,,,,,,,,,,,,,0,5,5,2,,,,,,,,,,,AMSA04.jpg,AMNE20.jpg,AMNE19.jpg,AMSA15.jpg,AMSA04.jpg,MS,2,num_8,16,num_8,0.550107303261,,,2017_Jun_08_1341,60.0067170284,FEMA4ImagesEEG,001,200515,
AFNE01.JPG,AFNE01.JPG,AFNE01.JPG,AFNE01.JPG,AFNE01.JPG,AFNE01.JPG,,,,,,,,,,,,,0,6,6,6,,,,,,,,,,,AMSA01.jpg,AMNE09.jpg,AMSA10.jpg,AMNE05.jpg,AMSA10.jpg,MS,2,num_2,32,num_6,0.300149881374,,,2017_Jun_08_1341,60.0067170284,FEMA4ImagesEEG,001,200515,
AFNE01.JPG,AFNE01.JPG,AFNE01.JPG,AFNE01.JPG,AFNE01.JPG,AFNE01.JPG,,,,,,,,,,,,,0,7,7,7,,,,,,,,,,,AMNE20.jpg,AMSA10.jpg,AMNE09.jpg,AMSA20.jpg,AMNE20.jpg,MN,1,num_8,32,num_4,0.416788894987,,,2017_Jun_08_1341,60.0067170284,FEMA4ImagesEEG,001,200515,
AFNE01.JPG,AFNE01.JPG,AFNE01.JPG,AFNE01.JPG,AFNE01.JPG,AFNE01.JPG,,,,,,,,,,,,,0,8,8,4,,,,,,,,,,,AMSA06.jpg,AMSA15.jpg,AMNE11.jpg,AMNE12.jpg,AMNE12.jpg,MN,1,num_4,32,num_6,0.33351251957,,,2017_Jun_08_1341,60.0067170284,FEMA4ImagesEEG,001,200515,
AFNE01.JPG,AFNE01.JPG,AFNE01.JPG,AFNE01.JPG,AFNE01.JPG,AFNE01.JPG,,,,,,,,,,,,,0,9,9,9,,,,,,,,,,,AMNE14.jpg,AMSA12.jpg,AMSA16.jpg,AMNE12.jpg,AMSA12.jpg,MS,2,num_6,32,num_4,0.400275643169,,,2017_Jun_08_1341,60.0067170284,FEMA4ImagesEEG,001,200515,
AFNE01.JPG,AFNE01.JPG,AFNE01.JPG,AFNE01.JPG,AFNE01.JPG,AFNE01.JPG,,,,,,,,,,,,,1,0,10,7,,,,,,,,,,,AMSA01.jpg,AMNE03.jpg,AMSA15.jpg,AMNE08.jpg,AMSA01.jpg,MS,2,num_8,16,num_8,0.933431565023,,,2017_Jun_08_1341,60.0067170284,FEMA4ImagesEEG,001,200515,
AFNE01.JPG,AFNE01.JPG,AFNE01.JPG,AFNE01.JPG,AFNE01.JPG,AFNE01.JPG,,,,,,,,,,,,,1,1,11,3,,,,,,,,,,,AMNE02.jpg,AMSA12.jpg,AMSA19.jpg,AMNE12.jpg,AMNE02.jpg,MN,1,num_8,16,num_8,0.933456903411,,,2017_Jun_08_1341,60.0067170284,FEMA4ImagesEEG,001,200515,
AFNE01.JPG,AFNE01.JPG,AFNE01.JPG,AFNE01.JPG,AFNE01.JPG,AFNE01.JPG,,,,,,,,,,,,,1,2,12,8,,,,,,,,,,,AMSA11.jpg,AMSA08.jpg,AMNE15.jpg,AMNE10.jpg,AMSA08.jpg,MS,2,num_6,16,num_6,0.700125954239,,,2017_Jun_08_1341,60.0067170284,FEMA4ImagesEEG,001,200515,
AFNE01.JPG,AFNE01.JPG,AFNE01.JPG,AFNE01.JPG,AFNE01.JPG,AFNE01.JPG,,,,,,,,,,,,,1,3,13,0,,,,,,,,,,,AMNE06.jpg,AMSA18.jpg,AMNE01.jpg,AMSA04.jpg,AMNE06.jpg,MN,1,num_8,16,num_8,0.766827816675,,,2017_Jun_08_1341,60.0067170284,FEMA4ImagesEEG,001,200515,
AFNE01.JPG,AFNE01.JPG,AFNE01.JPG,AFNE01.JPG,AFNE01.JPG,AFNE01.JPG,,,,,,,,,,,,,1,4,14,1,,,,,,,,,,,AMNE01.jpg,AMNE13.jpg,AMSA05.jpg,AMSA08.jpg,AMSA08.jpg,MS,2,num_4,32,num_6,0.850185980558,,,2017_Jun_08_1341,60.0067170284,FEMA4ImagesEEG,001,200515,
AFNE01.JPG,AFNE01.JPG,AFNE01.JPG,AFNE01.JPG,AFNE01.JPG,AFNE01.JPG,,,,,,,,,,,,,1,5,15,9,,,,,,,,,,,AMSA17.jpg,AMNE09.jpg,AMSA15.jpg,AMNE06.jpg,AMSA17.jpg,MS,2,num_8,16,num_8,0.700130444588,,,2017_Jun_08_1341,60.0067170284,FEMA4ImagesEEG,001,200515,
AFNE01.JPG,AFNE01.JPG,AFNE01.JPG,AFNE01.JPG,AFNE01.JPG,AFNE01.JPG,,,,,,,,,,,,,1,6,16,2,,,,,,,,,,,AMSA03.jpg,AMNE16.jpg,AMNE14.jpg,AMSA10.jpg,AMSA03.jpg,MS,2,num_8,32,num_4,0.433648224276,,,2017_Jun_08_1341,60.0067170284,FEMA4ImagesEEG,001,200515,
AFNE01.JPG,AFNE01.JPG,AFNE01.JPG,AFNE01.JPG,AFNE01.JPG,AFNE01.JPG,,,,,,,,,,,,,1,7,17,4,,,,,,,,,,,AMSA12.jpg,AMNE09.jpg,AMSA18.jpg,AMNE18.jpg,AMNE09.jpg,MN,1,num_6,16,num_6,0.283495825101,,,2017_Jun_08_1341,60.0067170284,FEMA4ImagesEEG,001,200515,
AFNE01.JPG,AFNE01.JPG,AFNE01.JPG,AFNE01.JPG,AFNE01.JPG,AFNE01.JPG,,,,,,,,,,,,,1,8,18,5,,,,,,,,,,,AMSA15.jpg,AMSA10.jpg,AMNE15.jpg,AMNE17.jpg,AMNE17.jpg,MN,1,num_4,16,num_4,1.18343773925,,,2017_Jun_08_1341,60.0067170284,FEMA4ImagesEEG,001,200515,
AFNE01.JPG,AFNE01.JPG,AFNE01.JPG,AFNE01.JPG,AFNE01.JPG,AFNE01.JPG,,,,,,,,,,,,,1,9,19,6,,,,,,,,,,,AMSA17.jpg,AMSA01.jpg,AMNE15.jpg,AMNE04.jpg,AMSA01.jpg,MS,2,num_6,16,num_6,0.26680488383,,,2017_Jun_08_1341,60.0067170284,FEMA4ImagesEEG,001,200515,
AFNE01.JPG,AFNE01.JPG,AFNE01.JPG,AFNE01.JPG,AFNE01.JPG,AFNE01.JPG,,,,,,,,,,,,,2,0,20,5,,,,,,,,,,,AMSA02.jpg,AMNE14.jpg,AMSA07.jpg,AMNE04.jpg,AMSA07.jpg,MS,2,num_2,32,num_8,1.16670830929,,,2017_Jun_08_1341,60.0067170284,FEMA4ImagesEEG,001,200515,
AFNE01.JPG,AFNE01.JPG,AFNE01.JPG,AFNE01.JPG,AFNE01.JPG,AFNE01.JPG,,,,,,,,,,,,,2,1,21,4,,,,,,,,,,,AMSA10.jpg,AMSA01.jpg,AMNE01.jpg,AMNE17.jpg,AMSA01.jpg,MS,2,num_6,32,num_4,0.35004854386,,,2017_Jun_08_1341,60.0067170284,FEMA4ImagesEEG,001,200515,
AFNE01.JPG,AFNE01.JPG,AFNE01.JPG,AFNE01.JPG,AFNE01.JPG,AFNE01.JPG,,,,,,,,,,,,,2,2,22,8,,,,,,,,,,,AMNE04.jpg,AMNE09.jpg,AMSA20.jpg,AMSA11.jpg,AMSA11.jpg,MS,2,num_4,32,num_6,0.466841832971,,,2017_Jun_08_1341,60.0067170284,FEMA4ImagesEEG,001,200515,
AFNE01.JPG,AFNE01.JPG,AFNE01.JPG,AFNE01.JPG,AFNE01.JPG,AFNE01.JPG,,,,,,,,,,,,,2,3,23,0,,,,,,,,,,,AMSA03.jpg,AMNE14.jpg,AMNE01.jpg,AMSA18.jpg,AMSA03.jpg,MS,2,num_8,16,num_8,0.366984850532,,,2017_Jun_08_1341,60.0067170284,FEMA4ImagesEEG,001,200515,
AFNE01.JPG,AFNE01.JPG,AFNE01.JPG,AFNE01.JPG,AFNE01.JPG,AFNE01.JPG,,,,,,,,,,,,,2,4,24,7,,,,,,,,,,,AMNE03.jpg,AMNE17.jpg,AMSA07.jpg,AMSA09.jpg,AMNE17.jpg,MN,1,num_6,16,num_6,0.200194752771,,,2017_Jun_08_1341,60.0067170284,FEMA4ImagesEEG,001,200515,
AFNE01.JPG,AFNE01.JPG,AFNE01.JPG,AFNE01.JPG,AFNE01.JPG,AFNE01.JPG,,,,,,,,,,,,,2,5,25,1,,,,,,,,,,,AMSA09.jpg,AMNE18.jpg,AMNE02.jpg,AMSA02.jpg,AMSA09.jpg,MS,2,num_8,16,num_8,0.750241436346,,,2017_Jun_08_1341,60.0067170284,FEMA4ImagesEEG,001,200515,
AFNE01.JPG,AFNE01.JPG,AFNE01.JPG,AFNE01.JPG,AFNE01.JPG,AFNE01.JPG,,,,,,,,,,,,,2,6,26,6,,,,,,,,,,,AMSA13.jpg,AMNE03.jpg,AMSA19.jpg,AMNE18.jpg,AMSA13.jpg,MS,2,num_8,32,num_6,0.48353341572,,,2017_Jun_08_1341,60.0067170284,FEMA4ImagesEEG,001,200515,
AFNE01.JPG,AFNE01.JPG,AFNE01.JPG,AFNE01.JPG,AFNE01.JPG,AFNE01.JPG,,,,,,,,,,,,,2,7,27,9,,,,,,,,,,,AMSA15.jpg,AMNE19.jpg,AMNE11.jpg,AMSA13.jpg,AMSA13.jpg,MS,2,num_4,16,num_4,1.30034873961,,,2017_Jun_08_1341,60.0067170284,FEMA4ImagesEEG,001,200515,
AFNE01.JPG,AFNE01.JPG,AFNE01.JPG,AFNE01.JPG,AFNE01.JPG,AFNE01.JPG,,,,,,,,,,,,,2,8,28,2,,,,,,,,,,,AMNE09.jpg,AMNE14.jpg,AMSA19.jpg,AMSA07.jpg,AMNE14.jpg,MN,1,num_6,16,num_6,0.400133235016,,,2017_Jun_08_1341,60.0067170284,FEMA4ImagesEEG,001,200515,
AFNE01.JPG,AFNE01.JPG,AFNE01.JPG,AFNE01.JPG,AFNE01.JPG,AFNE01.JPG,,,,,,,,,,,,,2,9,29,3,,,,,,,,,,,AMNE12.jpg,AMNE02.jpg,AMSA01.jpg,AMSA08.jpg,AMSA08.jpg,MS,2,num_4,16,num_4,1.76675725408,,,2017_Jun_08_1341,60.0067170284,FEMA4ImagesEEG,001,200515,
AFNE01.JPG,AFNE01.JPG,AFNE01.JPG,AFNE01.JPG,AFNE01.JPG,AFNE01.JPG,,,,,,,,,,,,,3,0,30,9,,,,,,,,,,,AMNE09.jpg,AMSA06.jpg,AMSA18.jpg,AMNE14.jpg,AMSA06.jpg,MS,2,num_6,16,num_6,2.28332872004,,,2017_Jun_08_1341,60.0067170284,FEMA4ImagesEEG,001,200515,
AFNE01.JPG,AFNE01.JPG,AFNE01.JPG,AFNE01.JPG,AFNE01.JPG,AFNE01.JPG,,,,,,,,,,,,,3,1,31,1,,,,,,,,,,,AMNE05.jpg,AMSA12.jpg,AMNE13.jpg,AMSA10.jpg,AMSA10.jpg,MS,2,num_4,16,num_4,0.633499144749,,,2017_Jun_08_1341,60.0067170284,FEMA4ImagesEEG,001,200515,
AFNE01.JPG,AFNE01.JPG,AFNE01.JPG,AFNE01.JPG,AFNE01.JPG,AFNE01.JPG,,,,,,,,,,,,,3,2,32,4,,,,,,,,,,,AMSA05.jpg,AMSA18.jpg,AMNE16.jpg,AMNE04.jpg,AMSA05.jpg,MS,2,num_8,16,num_8,0.333491992267,,,2017_Jun_08_1341,60.0067170284,FEMA4ImagesEEG,001,200515,
AFNE01.JPG,AFNE01.JPG,AFNE01.JPG,AFNE01.JPG,AFNE01.JPG,AFNE01.JPG,,,,,,,,,,,,,3,3,33,7,,,,,,,,,,,AMSA14.jpg,AMNE15.jpg,AMSA11.jpg,AMNE06.jpg,AMSA11.jpg,MS,2,num_2,16,num_2,1.61669081297,,,2017_Jun_08_1341,60.0067170284,FEMA4ImagesEEG,001,200515,
AFNE01.JPG,AFNE01.JPG,AFNE01.JPG,AFNE01.JPG,AFNE01.JPG,AFNE01.JPG,,,,,,,,,,,,,3,4,34,5,,,,,,,,,,,AMSA15.jpg,AMSA04.jpg,AMNE01.jpg,AMNE10.jpg,AMSA04.jpg,MS,2,num_6,16,num_6,0.650215424406,,,2017_Jun_08_1341,60.0067170284,FEMA4ImagesEEG,001,200515,
AFNE01.JPG,AFNE01.JPG,AFNE01.JPG,AFNE01.JPG,AFNE01.JPG,AFNE01.JPG,,,,,,,,,,,,,3,5,35,2,,,,,,,,,,,AMSA20.jpg,AMNE09.jpg,AMSA12.jpg,AMNE18.jpg,AMSA12.jpg,MS,2,num_2,32,num_8,0.316885726117,,,2017_Jun_08_1341,60.0067170284,FEMA4ImagesEEG,001,200515,
AFNE01.JPG,AFNE01.JPG,AFNE01.JPG,AFNE01.JPG,AFNE01.JPG,AFNE01.JPG,,,,,,,,,,,,,3,6,36,3,,,,,,,,,,,AMNE12.jpg,AMNE03.jpg,AMSA05.jpg,AMSA19.jpg,AMNE03.jpg,MN,1,num_6,16,num_6,0.700147764497,,,2017_Jun_08_1341,60.0067170284,FEMA4ImagesEEG,001,200515,
AFNE01.JPG,AFNE01.JPG,AFNE01.JPG,AFNE01.JPG,AFNE01.JPG,AFNE01.JPG,,,,,,,,,,,,,3,7,37,0,,,,,,,,,,,AMNE15.jpg,AMSA11.jpg,AMNE14.jpg,AMSA14.jpg,AMNE14.jpg,MN,1,num_2,32,num_4,0.383485593522,,,2017_Jun_08_1341,60.0067170284,FEMA4ImagesEEG,001,200515,
AFNE01.JPG,AFNE01.JPG,AFNE01.JPG,AFNE01.JPG,AFNE01.JPG,AFNE01.JPG,,,,,,,,,,,,,3,8,38,8,,,,,,,,,,,AMSA15.jpg,AMSA18.jpg,AMNE16.jpg,AMNE18.jpg,AMSA18.jpg,MS,2,num_6,16,num_6,0.166925128913,,,2017_Jun_08_1341,60.0067170284,FEMA4ImagesEEG,001,200515,
AFNE01.JPG,AFNE01.JPG,AFNE01.JPG,AFNE01.JPG,AFNE01.JPG,AFNE01.JPG,,,,,,,,,,,,,3,9,39,6,,,,,,,,,,,AMSA07.jpg,AMNE10.jpg,AMSA06.jpg,AMNE13.jpg,AMSA07.jpg,MS,2,num_8,32,num_4,1.33340571345,,,2017_Jun_08_1341,60.0067170284,FEMA4ImagesEEG,001,200515,
AFNE01.JPG,AFNE01.JPG,AFNE01.JPG,AFNE01.JPG,AFNE01.JPG,AFNE01.JPG,,,,,,,,,,,,,4,0,40,3,,,,,,,,,,,AMSA15.jpg,AMNE14.jpg,AMNE18.jpg,AMSA04.jpg,AMNE18.jpg,MN,1,num_2,32,num_8,0.88274677104,,,2017_Jun_08_1341,60.0067170284,FEMA4ImagesEEG,001,200515,
AFNE01.JPG,AFNE01.JPG,AFNE01.JPG,AFNE01.JPG,AFNE01.JPG,AFNE01.JPG,,,,,,,,,,,,,4,1,41,0,,,,,,,,,,,AMSA02.jpg,AMNE02.jpg,AMNE03.jpg,AMSA03.jpg,AMNE02.jpg,MN,1,num_6,16,num_6,1.1001036308,,,2017_Jun_08_1341,60.0067170284,FEMA4ImagesEEG,001,200515,
AFNE01.JPG,AFNE01.JPG,AFNE01.JPG,AFNE01.JPG,AFNE01.JPG,AFNE01.JPG,,,,,,,,,,,,,4,2,42,7,,,,,,,,,,,AMSA18.jpg,AMNE19.jpg,AMSA04.jpg,AMNE14.jpg,AMNE19.jpg,MN,1,num_6,16,num_6,0.600120148862,,,2017_Jun_08_1341,60.0067170284,FEMA4ImagesEEG,001,200515,
AFNE01.JPG,AFNE01.JPG,AFNE01.JPG,AFNE01.JPG,AFNE01.JPG,AFNE01.JPG,,,,,,,,,,,,,4,3,43,9,,,,,,,,,,,AMSA13.jpg,AMSA03.jpg,AMNE04.jpg,AMNE15.jpg,AMSA13.jpg,MS,2,num_8,32,num_4,0.8167752315,,,2017_Jun_08_1341,60.0067170284,FEMA4ImagesEEG,001,200515,
AFNE01.JPG,AFNE01.JPG,AFNE01.JPG,AFNE01.JPG,AFNE01.JPG,AFNE01.JPG,,,,,,,,,,,,,4,4,44,1,,,,,,,,,,,AMNE10.jpg,AMNE11.jpg,AMSA01.jpg,AMSA14.jpg,AMSA14.jpg,MS,2,num_4,16,num_4,1.23340920951,,,2017_Jun_08_1341,60.0067170284,FEMA4ImagesEEG,001,200515,
AFNE01.JPG,AFNE01.JPG,AFNE01.JPG,AFNE01.JPG,AFNE01.JPG,AFNE01.JPG,,,,,,,,,,,,,4,5,45,4,,,,,,,,,,,AMNE09.jpg,AMNE20.jpg,AMSA03.jpg,AMSA20.jpg,AMNE20.jpg,MN,1,num_6,16,num_6,0.450209586956,,,2017_Jun_08_1341,60.0067170284,FEMA4ImagesEEG,001,200515,
AFNE01.JPG,AFNE01.JPG,AFNE01.JPG,AFNE01.JPG,AFNE01.JPG,AFNE01.JPG,,,,,,,,,,,,,4,6,46,8,,,,,,,,,,,AMSA03.jpg,AMNE05.jpg,AMSA01.jpg,AMNE02.jpg,AMNE02.jpg,MN,1,num_4,32,num_6,0.533475698721,,,2017_Jun_08_1341,60.0067170284,FEMA4ImagesEEG,001,200515,
AFNE01.JPG,AFNE01.JPG,AFNE01.JPG,AFNE01.JPG,AFNE01.JPG,AFNE01.JPG,,,,,,,,,,,,,4,7,47,2,,,,,,,,,,,AMNE15.jpg,AMSA18.jpg,AMSA01.jpg,AMNE14.jpg,AMNE14.jpg,MN,1,num_4,16,num_4,0.000245365399678,,,2017_Jun_08_1341,60.0067170284,FEMA4ImagesEEG,001,200515,
AFNE01.JPG,AFNE01.JPG,AFNE01.JPG,AFNE01.JPG,AFNE01.JPG,AFNE01.JPG,,,,,,,,,,,,,4,8,48,6,,,,,,,,,,,AMSA13.jpg,AMNE17.jpg,AMNE02.jpg,AMSA09.jpg,AMNE02.jpg,MN,1,num_2,32,num_6,0.383521195561,,,2017_Jun_08_1341,60.0067170284,FEMA4ImagesEEG,001,200515,
AFNE01.JPG,AFNE01.JPG,AFNE01.JPG,AFNE01.JPG,AFNE01.JPG,AFNE01.JPG,,,,,,,,,,,,,4,9,49,5,,,,,,,,,,,AMNE02.jpg,AMSA15.jpg,AMNE12.jpg,AMSA09.jpg,AMSA15.jpg,MS,2,num_6,16,num_6,1.00011290016,,,2017_Jun_08_1341,60.0067170284,FEMA4ImagesEEG,001,200515,
AFNE01.JPG,AFNE01.JPG,AFNE01.JPG,AFNE01.JPG,AFNE01.JPG,AFNE01.JPG,,,,,,,,,,,,,5,0,50,3,,,,,,,,,,,AMSA09.jpg,AMNE17.jpg,AMNE18.jpg,AMSA03.jpg,AMNE17.jpg,MN,1,num_6,32,num_4,1.41697909326,,,2017_Jun_08_1341,60.0067170284,FEMA4ImagesEEG,001,200515,
AFNE01.JPG,AFNE01.JPG,AFNE01.JPG,AFNE01.JPG,AFNE01.JPG,AFNE01.JPG,,,,,,,,,,,,,5,1,51,2,,,,,,,,,,,AMSA07.jpg,AMSA09.jpg,AMNE05.jpg,AMNE02.jpg,AMNE02.jpg,MN,1,num_4,16,num_4,0.866851583442,,,2017_Jun_08_1341,60.0067170284,FEMA4ImagesEEG,001,200515,
AFNE01.JPG,AFNE01.JPG,AFNE01.JPG,AFNE01.JPG,AFNE01.JPG,AFNE01.JPG,,,,,,,,,,,,,5,2,52,4,,,,,,,,,,,AMNE15.jpg,AMNE07.jpg,AMSA10.jpg,AMSA16.jpg,AMSA10.jpg,MS,2,num_2,32,num_6,0.683344564546,,,2017_Jun_08_1341,60.0067170284,FEMA4ImagesEEG,001,200515,
AFNE01.JPG,AFNE01.JPG,AFNE01.JPG,AFNE01.JPG,AFNE01.JPG,AFNE01.JPG,,,,,,,,,,,,,5,3,53,1,,,,,,,,,,,AMNE20.jpg,AMNE03.jpg,AMSA18.jpg,AMSA02.jpg,AMSA02.jpg,MS,2,num_4,32,num_8,0.0335428935596,,,2017_Jun_08_1341,60.0067170284,FEMA4ImagesEEG,001,200515,
AFNE01.JPG,AFNE01.JPG,AFNE01.JPG,AFNE01.JPG,AFNE01.JPG,AFNE01.JPG,,,,,,,,,,,,,5,4,54,0,,,,,,,,,,,AMNE15.jpg,AMSA07.jpg,AMNE14.jpg,AMSA13.jpg,AMSA13.jpg,MS,2,num_4,32,num_6,1.40005754059,,,2017_Jun_08_1341,60.0067170284,FEMA4ImagesEEG,001,200515,
AFNE01.JPG,AFNE01.JPG,AFNE01.JPG,AFNE01.JPG,AFNE01.JPG,AFNE01.JPG,,,,,,,,,,,,,5,5,55,8,,,,,,,,,,,AMSA15.jpg,AMNE05.jpg,AMSA16.jpg,AMNE14.jpg,AMSA15.jpg,MS,2,num_8,32,num_4,1.51669847864,,,2017_Jun_08_1341,60.0067170284,FEMA4ImagesEEG,001,200515,
AFNE01.JPG,AFNE01.JPG,AFNE01.JPG,AFNE01.JPG,AFNE01.JPG,AFNE01.JPG,,,,,,,,,,,,,5,6,56,9,,,,,,,,,,,AMNE08.jpg,AMSA18.jpg,AMSA10.jpg,AMNE18.jpg,AMNE08.jpg,MN,1,num_8,16,num_8,0.933535484488,,,2017_Jun_08_1341,60.0067170284,FEMA4ImagesEEG,001,200515,
AFNE01.JPG,AFNE01.JPG,AFNE01.JPG,AFNE01.JPG,AFNE01.JPG,AFNE01.JPG,,,,,,,,,,,,,5,7,57,5,,,,,,,,,,,AMSA09.jpg,AMNE06.jpg,AMNE05.jpg,AMSA03.jpg,AMNE06.jpg,MN,1,num_6,16,num_6,0.73345106596,,,2017_Jun_08_1341,60.0067170284,FEMA4ImagesEEG,001,200515,
AFNE01.JPG,AFNE01.JPG,AFNE01.JPG,AFNE01.JPG,AFNE01.JPG,AFNE01.JPG,,,,,,,,,,,,,5,8,58,6,,,,,,,,,,,AMSA16.jpg,AMSA03.jpg,AMNE10.jpg,AMNE18.jpg,AMSA16.jpg,MS,2,num_8,16,num_8,0.716495514944,,,2017_Jun_08_1341,60.0067170284,FEMA4ImagesEEG,001,200515,
AFNE01.JPG,AFNE01.JPG,AFNE01.JPG,AFNE01.JPG,AFNE01.JPG,AFNE01.JPG,,,,,,,,,,,,,5,9,59,7,,,,,,,,,,,AMSA12.jpg,AMNE10.jpg,AMNE07.jpg,AMSA04.jpg,AMNE07.jpg,MN,1,num_2,32,num_6,0.800190775608,,,2017_Jun_08_1341,60.0067170284,FEMA4ImagesEEG,001,200515,
,,,,,,,,,,,,,,,,,,,,,,,,,,,,,,,,,,,,,,,,,,,space,6.84967376024,2017_Jun_08_1341,60.0067170284,FEMA4ImagesEEG,001,200515,
AFNE01.JPG,AFNE01.JPG,AFNE01.JPG,AFNE01.JPG,AFNE01.JPG,AFNE01.JPG,,,,,,,,,,,,,,,,,0,0,0,0,,,,,,,AFSA09.jpg,AFSA10.jpg,AFNE10.jpg,AFNE13.jpg,AFSA09.jpg,FS,4,num_8,32,num_4,0.300168804981,,,2017_Jun_08_1341,60.0067170284,FEMA4ImagesEEG,001,200515,
AFNE01.JPG,AFNE01.JPG,AFNE01.JPG,AFNE01.JPG,AFNE01.JPG,AFNE01.JPG,,,,,,,,,,,,,,,,,0,1,1,6,,,,,,,AFSA10.jpg,AFNE16.jpg,AFSA04.jpg,AFNE14.jpg,AFSA04.jpg,FS,4,num_2,32,num_6,0.283527899008,,,2017_Jun_08_1341,60.0067170284,FEMA4ImagesEEG,001,200515,
AFNE01.JPG,AFNE01.JPG,AFNE01.JPG,AFNE01.JPG,AFNE01.JPG,AFNE01.JPG,,,,,,,,,,,,,,,,,0,2,2,9,,,,,,,AFSA07.jpg,AFNE08.jpg,AFSA03.jpg,AFNE11.jpg,AFSA07.jpg,FS,4,num_8,16,num_8,0.283516993879,,,2017_Jun_08_1341,60.0067170284,FEMA4ImagesEEG,001,200515,
AFNE01.JPG,AFNE01.JPG,AFNE01.JPG,AFNE01.JPG,AFNE01.JPG,AFNE01.JPG,,,,,,,,,,,,,,,,,0,3,3,3,,,,,,,AFSA18.jpg,AFNE11.jpg,AFNE19.jpg,AFSA08.jpg,AFNE19.jpg,FN,3,num_2,32,num_4,0.316900159376,,,2017_Jun_08_1341,60.0067170284,FEMA4ImagesEEG,001,200515,
AFNE01.JPG,AFNE01.JPG,AFNE01.JPG,AFNE01.JPG,AFNE01.JPG,AFNE01.JPG,,,,,,,,,,,,,,,,,0,4,4,1,,,,,,,AFSA08.jpg,AFNE11.jpg,AFSA09.jpg,AFNE13.jpg,AFNE13.jpg,FN,3,num_4,32,num_6,0.300158862068,,,2017_Jun_08_1341,60.0067170284,FEMA4ImagesEEG,001,200515,
AFNE01.JPG,AFNE01.JPG,AFNE01.JPG,AFNE01.JPG,AFNE01.JPG,AFNE01.JPG,,,,,,,,,,,,,,,,,0,5,5,7,,,,,,,AFSA13.jpg,AFNE07.jpg,AFNE12.jpg,AFSA10.jpg,AFNE12.jpg,FN,3,num_2,16,num_2,0.300026717565,,,2017_Jun_08_1341,60.0067170284,FEMA4ImagesEEG,001,200515,
AFNE01.JPG,AFNE01.JPG,AFNE01.JPG,AFNE01.JPG,AFNE01.JPG,AFNE01.JPG,,,,,,,,,,,,,,,,,0,6,6,8,,,,,,,AFNE09.jpg,AFSA18.jpg,AFSA16.jpg,AFNE10.jpg,AFSA16.jpg,FS,4,num_2,32,num_8,0.316812276866,,,2017_Jun_08_1341,60.0067170284,FEMA4ImagesEEG,001,200515,
AFNE01.JPG,AFNE01.JPG,AFNE01.JPG,AFNE01.JPG,AFNE01.JPG,AFNE01.JPG,,,,,,,,,,,,,,,,,0,7,7,5,,,,,,,AFNE09.jpg,AFSA04.jpg,AFSA07.jpg,AFNE01.jpg,AFNE01.jpg,FN,3,num_4,16,num_4,0.433482722909,,,2017_Jun_08_1341,60.0067170284,FEMA4ImagesEEG,001,200515,
AFNE01.JPG,AFNE01.JPG,AFNE01.JPG,AFNE01.JPG,AFNE01.JPG,AFNE01.JPG,,,,,,,,,,,,,,,,,0,8,8,2,,,,,,,AFNE10.jpg,AFNE06.jpg,AFSA14.jpg,AFSA09.jpg,AFNE06.jpg,FN,3,num_6,16,num_6,0.450133892531,,,2017_Jun_08_1341,60.0067170284,FEMA4ImagesEEG,001,200515,
AFNE01.JPG,AFNE01.JPG,AFNE01.JPG,AFNE01.JPG,AFNE01.JPG,AFNE01.JPG,,,,,,,,,,,,,,,,,0,9,9,4,,,,,,,AFNE11.jpg,AFNE06.jpg,AFSA02.jpg,AFSA08.jpg,AFSA02.jpg,FS,4,num_2,32,num_4,0.316823181995,,,2017_Jun_08_1341,60.0067170284,FEMA4ImagesEEG,001,200515,
AFNE01.JPG,AFNE01.JPG,AFNE01.JPG,AFNE01.JPG,AFNE01.JPG,AFNE01.JPG,,,,,,,,,,,,,,,,,1,0,10,4,,,,,,,AFNE18.jpg,AFNE13.jpg,AFSA15.jpg,AFSA13.jpg,AFSA15.jpg,FS,4,num_2,32,num_8,0.383495857173,,,2017_Jun_08_1341,60.0067170284,FEMA4ImagesEEG,001,200515,
AFNE01.JPG,AFNE01.JPG,AFNE01.JPG,AFNE01.JPG,AFNE01.JPG,AFNE01.JPG,,,,,,,,,,,,,,,,,1,1,11,9,,,,,,,AFSA15.jpg,AFNE03.jpg,AFNE10.jpg,AFSA12.jpg,AFSA12.jpg,FS,4,num_4,32,num_2,0.466777043677,,,2017_Jun_08_1341,60.0067170284,FEMA4ImagesEEG,001,200515,
AFNE01.JPG,AFNE01.JPG,AFNE01.JPG,AFNE01.JPG,AFNE01.JPG,AFNE01.JPG,,,,,,,,,,,,,,,,,1,2,12,0,,,,,,,AFSA17.jpg,AFSA15.jpg,AFNE03.jpg,AFNE18.jpg,AFNE18.jpg,FN,3,num_4,32,num_6,0.400192892486,,,2017_Jun_08_1341,60.0067170284,FEMA4ImagesEEG,001,200515,
AFNE01.JPG,AFNE01.JPG,AFNE01.JPG,AFNE01.JPG,AFNE01.JPG,AFNE01.JPG,,,,,,,,,,,,,,,,,1,3,13,2,,,,,,,AFSA16.jpg,AFSA08.jpg,AFNE05.jpg,AFNE01.jpg,AFNE01.jpg,FN,3,num_4,16,num_4,0.900069247569,,,2017_Jun_08_1341,60.0067170284,FEMA4ImagesEEG,001,200515,
AFNE01.JPG,AFNE01.JPG,AFNE01.JPG,AFNE01.JPG,AFNE01.JPG,AFNE01.JPG,,,,,,,,,,,,,,,,,1,4,14,1,,,,,,,AFNE10.jpg,AFNE17.jpg,AFSA10.jpg,AFSA17.jpg,AFNE17.jpg,FN,3,num_6,16,num_6,0.533455492161,,,2017_Jun_08_1341,60.0067170284,FEMA4ImagesEEG,001,200515,
AFNE01.JPG,AFNE01.JPG,AFNE01.JPG,AFNE01.JPG,AFNE01.JPG,AFNE01.JPG,,,,,,,,,,,,,,,,,1,5,15,7,,,,,,,AFNE16.jpg,AFNE02.jpg,AFSA14.jpg,AFSA02.jpg,AFSA14.jpg,FS,4,num_2,16,num_2,0.45015185392,,,2017_Jun_08_1341,60.0067170284,FEMA4ImagesEEG,001,200515,
AFNE01.JPG,AFNE01.JPG,AFNE01.JPG,AFNE01.JPG,AFNE01.JPG,AFNE01.JPG,,,,,,,,,,,,,,,,,1,6,16,8,,,,,,,AFNE11.jpg,AFSA01.jpg,AFSA11.jpg,AFNE19.jpg,AFNE11.jpg,FN,3,num_8,16,num_8,0.533459020289,,,2017_Jun_08_1341,60.0067170284,FEMA4ImagesEEG,001,200515,
AFNE01.JPG,AFNE01.JPG,AFNE01.JPG,AFNE01.JPG,AFNE01.JPG,AFNE01.JPG,,,,,,,,,,,,,,,,,1,7,17,3,,,,,,,AFNE18.jpg,AFSA15.jpg,AFNE02.jpg,AFSA17.jpg,AFNE02.jpg,FN,3,num_2,32,num_4,0.266778262485,,,2017_Jun_08_1341,60.0067170284,FEMA4ImagesEEG,001,200515,
AFNE01.JPG,AFNE01.JPG,AFNE01.JPG,AFNE01.JPG,AFNE01.JPG,AFNE01.JPG,,,,,,,,,,,,,,,,,1,8,18,6,,,,,,,AFSA12.jpg,AFNE03.jpg,AFSA07.jpg,AFNE17.jpg,AFNE03.jpg,FN,3,num_6,16,num_6,0.23348650763,,,2017_Jun_08_1341,60.0067170284,FEMA4ImagesEEG,001,200515,
AFNE01.JPG,AFNE01.JPG,AFNE01.JPG,AFNE01.JPG,AFNE01.JPG,AFNE01.JPG,,,,,,,,,,,,,,,,,1,9,19,5,,,,,,,AFNE07.jpg,AFSA05.jpg,AFNE01.jpg,AFSA18.jpg,AFNE07.jpg,FN,3,num_8,32,num_4,1.00011706977,,,2017_Jun_08_1341,60.0067170284,FEMA4ImagesEEG,001,200515,
AFNE01.JPG,AFNE01.JPG,AFNE01.JPG,AFNE01.JPG,AFNE01.JPG,AFNE01.JPG,,,,,,,,,,,,,,,,,2,0,20,0,,,,,,,AFSA08.jpg,AFNE19.jpg,AFSA20.jpg,AFNE09.jpg,AFNE19.jpg,FN,3,num_6,32,num_4,1.03349125457,,,2017_Jun_08_1341,60.0067170284,FEMA4ImagesEEG,001,200515,
AFNE01.JPG,AFNE01.JPG,AFNE01.JPG,AFNE01.JPG,AFNE01.JPG,AFNE01.JPG,,,,,,,,,,,,,,,,,2,1,21,9,,,,,,,AFNE09.jpg,AFNE18.jpg,AFSA02.jpg,AFSA08.jpg,AFNE09.jpg,FN,3,num_8,16,num_8,0.450174947135,,,2017_Jun_08_1341,60.0067170284,FEMA4ImagesEEG,001,200515,
AFNE01.JPG,AFNE01.JPG,AFNE01.JPG,AFNE01.JPG,AFNE01.JPG,AFNE01.JPG,,,,,,,,,,,,,,,,,2,2,22,6,,,,,,,AFNE09.jpg,AFNE18.jpg,AFSA05.jpg,AFSA12.jpg,AFNE18.jpg,FN,3,num_6,32,num_4,0.300186445629,,,2017_Jun_08_1341,60.0067170284,FEMA4ImagesEEG,001,200515,
AFNE01.JPG,AFNE01.JPG,AFNE01.JPG,AFNE01.JPG,AFNE01.JPG,AFNE01.JPG,,,,,,,,,,,,,,,,,2,3,23,1,,,,,,,AFNE04.jpg,AFSA11.jpg,AFNE14.jpg,AFSA09.jpg,AFSA09.jpg,FS,4,num_4,32,num_6,0.316816125734,,,2017_Jun_08_1341,60.0067170284,FEMA4ImagesEEG,001,200515,
AFNE01.JPG,AFNE01.JPG,AFNE01.JPG,AFNE01.JPG,AFNE01.JPG,AFNE01.JPG,,,,,,,,,,,,,,,,,2,4,24,8,,,,,,,AFSA10.jpg,AFNE10.jpg,AFNE20.jpg,AFSA14.jpg,AFNE20.jpg,FN,3,num_2,32,num_4,0.850194640514,,,2017_Jun_08_1341,60.0067170284,FEMA4ImagesEEG,001,200515,
AFNE01.JPG,AFNE01.JPG,AFNE01.JPG,AFNE01.JPG,AFNE01.JPG,AFNE01.JPG,,,,,,,,,,,,,,,,,2,5,25,4,,,,,,,AFSA03.jpg,AFNE14.jpg,AFSA18.jpg,AFNE15.jpg,AFNE14.jpg,FN,3,num_6,16,num_6,0.366777653082,,,2017_Jun_08_1341,60.0067170284,FEMA4ImagesEEG,001,200515,
AFNE01.JPG,AFNE01.JPG,AFNE01.JPG,AFNE01.JPG,AFNE01.JPG,AFNE01.JPG,,,,,,,,,,,,,,,,,2,6,26,3,,,,,,,AFSA05.jpg,AFNE07.jpg,AFSA10.jpg,AFNE14.jpg,AFNE14.jpg,FN,3,num_4,32,num_8,0.566799527487,,,2017_Jun_08_1341,60.0067170284,FEMA4ImagesEEG,001,200515,
AFNE01.JPG,AFNE01.JPG,AFNE01.JPG,AFNE01.JPG,AFNE01.JPG,AFNE01.JPG,,,,,,,,,,,,,,,,,2,7,27,5,,,,,,,AFSA18.jpg,AFNE18.jpg,AFNE09.jpg,AFSA17.jpg,AFSA17.jpg,FS,4,num_4,16,num_4,0.950095884949,,,2017_Jun_08_1341,60.0067170284,FEMA4ImagesEEG,001,200515,
AFNE01.JPG,AFNE01.JPG,AFNE01.JPG,AFNE01.JPG,AFNE01.JPG,AFNE01.JPG,,,,,,,,,,,,,,,,,2,8,28,2,,,,,,,AFSA02.jpg,AFNE11.jpg,AFSA18.jpg,AFNE16.jpg,AFSA02.jpg,FS,4,num_8,32,num_6,0.516801115145,,,2017_Jun_08_1341,60.0067170284,FEMA4ImagesEEG,001,200515,
AFNE01.JPG,AFNE01.JPG,AFNE01.JPG,AFNE01.JPG,AFNE01.JPG,AFNE01.JPG,,,,,,,,,,,,,,,,,2,9,29,7,,,,,,,AFNE08.jpg,AFSA11.jpg,AFSA08.jpg,AFNE18.jpg,AFNE08.jpg,FN,3,num_8,16,num_8,0.866788718578,,,2017_Jun_08_1341,60.0067170284,FEMA4ImagesEEG,001,200515,
AFNE01.JPG,AFNE01.JPG,AFNE01.JPG,AFNE01.JPG,AFNE01.JPG,AFNE01.JPG,,,,,,,,,,,,,,,,,3,0,30,5,,,,,,,AFSA15.jpg,AFNE10.jpg,AFSA14.jpg,AFNE13.jpg,AFNE13.jpg,FN,3,num_4,32,num_2,0.51649801671,,,2017_Jun_08_1341,60.0067170284,FEMA4ImagesEEG,001,200515,
AFNE01.JPG,AFNE01.JPG,AFNE01.JPG,AFNE01.JPG,AFNE01.JPG,AFNE01.JPG,,,,,,,,,,,,,,,,,3,1,31,3,,,,,,,AFSA20.jpg,AFSA05.jpg,AFNE01.jpg,AFNE05.jpg,AFNE05.jpg,FN,3,num_4,32,num_8,2.08339504888,,,2017_Jun_08_1341,60.0067170284,FEMA4ImagesEEG,001,200515,
AFNE01.JPG,AFNE01.JPG,AFNE01.JPG,AFNE01.JPG,AFNE01.JPG,AFNE01.JPG,,,,,,,,,,,,,,,,,3,2,32,7,,,,,,,AFSA20.jpg,AFSA03.jpg,AFNE20.jpg,AFNE04.jpg,AFSA03.jpg,FS,4,num_6,32,num_4,0.80008140358,,,2017_Jun_08_1341,60.0067170284,FEMA4ImagesEEG,001,200515,
AFNE01.JPG,AFNE01.JPG,AFNE01.JPG,AFNE01.JPG,AFNE01.JPG,AFNE01.JPG,,,,,,,,,,,,,,,,,3,3,33,6,,,,,,,AFNE01.jpg,AFNE11.jpg,AFSA08.jpg,AFSA16.jpg,AFSA08.jpg,FS,4,num_2,16,num_2,1.50005436527,,,2017_Jun_08_1341,60.0067170284,FEMA4ImagesEEG,001,200515,
AFNE01.JPG,AFNE01.JPG,AFNE01.JPG,AFNE01.JPG,AFNE01.JPG,AFNE01.JPG,,,,,,,,,,,,,,,,,3,4,34,8,,,,,,,AFNE17.jpg,AFSA01.jpg,AFNE04.jpg,AFSA10.jpg,AFSA01.jpg,FS,4,num_6,16,num_6,1.63337373577,,,2017_Jun_08_1341,60.0067170284,FEMA4ImagesEEG,001,200515,
AFNE01.JPG,AFNE01.JPG,AFNE01.JPG,AFNE01.JPG,AFNE01.JPG,AFNE01.JPG,,,,,,,,,,,,,,,,,3,5,35,1,,,,,,,AFSA05.jpg,AFNE05.jpg,AFNE11.jpg,AFSA16.jpg,AFSA16.jpg,FS,4,num_4,16,num_4,2.43361326372,,,2017_Jun_08_1341,60.0067170284,FEMA4ImagesEEG,001,200515,
AFNE01.JPG,AFNE01.JPG,AFNE01.JPG,AFNE01.JPG,AFNE01.JPG,AFNE01.JPG,,,,,,,,,,,,,,,,,3,6,36,2,,,,,,,AFNE10.jpg,AFSA03.jpg,AFNE05.jpg,AFSA12.jpg,AFSA12.jpg,FS,4,num_4,32,num_8,0.950238934582,,,2017_Jun_08_1341,60.0067170284,FEMA4ImagesEEG,001,200515,
AFNE01.JPG,AFNE01.JPG,AFNE01.JPG,AFNE01.JPG,AFNE01.JPG,AFNE01.JPG,,,,,,,,,,,,,,,,,3,7,37,0,,,,,,,AFSA07.jpg,AFSA06.jpg,AFNE18.jpg,AFNE13.jpg,AFSA07.jpg,FS,4,num_8,32,num_6,0.366638452319,,,2017_Jun_08_1341,60.0067170284,FEMA4ImagesEEG,001,200515,
AFNE01.JPG,AFNE01.JPG,AFNE01.JPG,AFNE01.JPG,AFNE01.JPG,AFNE01.JPG,,,,,,,,,,,,,,,,,3,8,38,9,,,,,,,AFSA11.jpg,AFNE17.jpg,AFNE09.jpg,AFSA04.jpg,AFSA04.jpg,FS,4,num_4,16,num_4,1.21675354954,,,2017_Jun_08_1341,60.0067170284,FEMA4ImagesEEG,001,200515,
AFNE01.JPG,AFNE01.JPG,AFNE01.JPG,AFNE01.JPG,AFNE01.JPG,AFNE01.JPG,,,,,,,,,,,,,,,,,3,9,39,4,,,,,,,AFNE05.jpg,AFSA15.jpg,AFSA14.jpg,AFNE14.jpg,AFSA14.jpg,FS,4,num_2,32,num_8,0.316791108085,,,2017_Jun_08_1341,60.0067170284,FEMA4ImagesEEG,001,200515,
AFNE01.JPG,AFNE01.JPG,AFNE01.JPG,AFNE01.JPG,AFNE01.JPG,AFNE01.JPG,,,,,,,,,,,,,,,,,4,0,40,3,,,,,,,AFSA11.jpg,AFSA01.jpg,AFNE13.jpg,AFNE09.jpg,AFSA01.jpg,FS,4,num_6,16,num_6,0.383466349178,,,2017_Jun_08_1341,60.0067170284,FEMA4ImagesEEG,001,200515,
AFNE01.JPG,AFNE01.JPG,AFNE01.JPG,AFNE01.JPG,AFNE01.JPG,AFNE01.JPG,,,,,,,,,,,,,,,,,4,1,41,4,,,,,,,AFSA08.jpg,AFNE18.jpg,AFSA02.jpg,AFNE20.jpg,AFNE20.jpg,FN,3,num_4,32,num_2,1.06672880452,,,2017_Jun_08_1341,60.0067170284,FEMA4ImagesEEG,001,200515,
AFNE01.JPG,AFNE01.JPG,AFNE01.JPG,AFNE01.JPG,AFNE01.JPG,AFNE01.JPG,,,,,,,,,,,,,,,,,4,2,42,2,,,,,,,AFNE12.jpg,AFSA08.jpg,AFSA17.jpg,AFNE08.jpg,AFNE08.jpg,FN,3,num_4,32,num_8,0.733655697497,,,2017_Jun_08_1341,60.0067170284,FEMA4ImagesEEG,001,200515,
AFNE01.JPG,AFNE01.JPG,AFNE01.JPG,AFNE01.JPG,AFNE01.JPG,AFNE01.JPG,,,,,,,,,,,,,,,,,4,3,43,5,,,,,,,AFSA17.jpg,AFNE20.jpg,AFNE19.jpg,AFSA14.jpg,AFSA14.jpg,FS,4,num_4,32,num_6,0.316834087123,,,2017_Jun_08_1341,60.0067170284,FEMA4ImagesEEG,001,200515,
AFNE01.JPG,AFNE01.JPG,AFNE01.JPG,AFNE01.JPG,AFNE01.JPG,AFNE01.JPG,,,,,,,,,,,,,,,,,4,4,44,7,,,,,,,AFSA17.jpg,AFSA07.jpg,AFNE08.jpg,AFNE16.jpg,AFSA07.jpg,FS,4,num_6,16,num_6,0.816507414365,,,2017_Jun_08_1341,60.0067170284,FEMA4ImagesEEG,001,200515,
AFNE01.JPG,AFNE01.JPG,AFNE01.JPG,AFNE01.JPG,AFNE01.JPG,AFNE01.JPG,,,,,,,,,,,,,,,,,4,5,45,6,,,,,,,AFSA04.jpg,AFNE03.jpg,AFNE08.jpg,AFSA11.jpg,AFNE03.jpg,FN,3,num_6,32,num_4,0.966768544091,,,2017_Jun_08_1341,60.0067170284,FEMA4ImagesEEG,001,200515,
AFNE01.JPG,AFNE01.JPG,AFNE01.JPG,AFNE01.JPG,AFNE01.JPG,AFNE01.JPG,,,,,,,,,,,,,,,,,4,6,46,9,,,,,,,AFSA03.jpg,AFNE18.jpg,AFNE11.jpg,AFSA10.jpg,AFSA03.jpg,FS,4,num_8,32,num_6,0.250158846031,,,2017_Jun_08_1341,60.0067170284,FEMA4ImagesEEG,001,200515,
AFNE01.JPG,AFNE01.JPG,AFNE01.JPG,AFNE01.JPG,AFNE01.JPG,AFNE01.JPG,,,,,,,,,,,,,,,,,4,7,47,1,,,,,,,AFSA17.jpg,AFSA05.jpg,AFNE20.jpg,AFNE05.jpg,AFNE20.jpg,FN,3,num_2,32,num_8,1.65006628073,,,2017_Jun_08_1341,60.0067170284,FEMA4ImagesEEG,001,200515,
AFNE01.JPG,AFNE01.JPG,AFNE01.JPG,AFNE01.JPG,AFNE01.JPG,AFNE01.JPG,,,,,,,,,,,,,,,,,4,8,48,8,,,,,,,AFNE12.jpg,AFNE03.jpg,AFSA04.jpg,AFSA01.jpg,AFNE12.jpg,FN,3,num_8,16,num_8,0.800145230658,,,2017_Jun_08_1341,60.0067170284,FEMA4ImagesEEG,001,200515,
AFNE01.JPG,AFNE01.JPG,AFNE01.JPG,AFNE01.JPG,AFNE01.JPG,AFNE01.JPG,,,,,,,,,,,,,,,,,4,9,49,0,,,,,,,AFSA16.jpg,AFSA14.jpg,AFNE07.jpg,AFNE03.jpg,AFNE07.jpg,FN,3,num_2,16,num_2,0.866782624536,,,2017_Jun_08_1341,60.0067170284,FEMA4ImagesEEG,001,200515,
AFNE01.JPG,AFNE01.JPG,AFNE01.JPG,AFNE01.JPG,AFNE01.JPG,AFNE01.JPG,,,,,,,,,,,,,,,,,5,0,50,4,,,,,,,AFSA19.jpg,AFSA16.jpg,AFNE04.jpg,AFNE05.jpg,AFNE04.jpg,FN,3,num_2,16,num_2,1.21669325059,,,2017_Jun_08_1341,60.0067170284,FEMA4ImagesEEG,001,200515,
AFNE01.JPG,AFNE01.JPG,AFNE01.JPG,AFNE01.JPG,AFNE01.JPG,AFNE01.JPG,,,,,,,,,,,,,,,,,5,1,51,6,,,,,,,AFSA17.jpg,AFNE12.jpg,AFSA02.jpg,AFNE03.jpg,AFNE12.jpg,FN,3,num_6,16,num_6,0.616779016222,,,2017_Jun_08_1341,60.0067170284,FEMA4ImagesEEG,001,200515,
AFNE01.JPG,AFNE01.JPG,AFNE01.JPG,AFNE01.JPG,AFNE01.JPG,AFNE01.JPG,,,,,,,,,,,,,,,,,5,2,52,7,,,,,,,AFSA03.jpg,AFNE15.jpg,AFNE02.jpg,AFSA18.jpg,AFNE15.jpg,FN,3,num_6,16,num_6,0.566766170621,,,2017_Jun_08_1341,60.0067170284,FEMA4ImagesEEG,001,200515,
AFNE01.JPG,AFNE01.JPG,AFNE01.JPG,AFNE01.JPG,AFNE01.JPG,AFNE01.JPG,,,,,,,,,,,,,,,,,5,3,53,0,,,,,,,AFNE03.jpg,AFSA10.jpg,AFNE07.jpg,AFSA14.jpg,AFSA10.jpg,FS,4,num_6,16,num_6,0.700159952583,,,2017_Jun_08_1341,60.0067170284,FEMA4ImagesEEG,001,200515,
AFNE01.JPG,AFNE01.JPG,AFNE01.JPG,AFNE01.JPG,AFNE01.JPG,AFNE01.JPG,,,,,,,,,,,,,,,,,5,4,54,2,,,,,,,AFSA02.jpg,AFNE07.jpg,AFNE11.jpg,AFSA19.jpg,AFSA19.jpg,FS,4,num_4,16,num_4,0.566818130355,,,2017_Jun_08_1341,60.0067170284,FEMA4ImagesEEG,001,200515,
AFNE01.JPG,AFNE01.JPG,AFNE01.JPG,AFNE01.JPG,AFNE01.JPG,AFNE01.JPG,,,,,,,,,,,,,,,,,5,5,55,3,,,,,,,AFNE02.jpg,AFNE08.jpg,AFSA11.jpg,AFSA07.jpg,AFNE02.jpg,FN,3,num_8,16,num_8,0.716822027334,,,2017_Jun_08_1341,60.0067170284,FEMA4ImagesEEG,001,200515,
AFNE01.JPG,AFNE01.JPG,AFNE01.JPG,AFNE01.JPG,AFNE01.JPG,AFNE01.JPG,,,,,,,,,,,,,,,,,5,6,56,8,,,,,,,AFNE14.jpg,AFSA03.jpg,AFSA02.jpg,AFNE01.jpg,AFNE14.jpg,FN,3,num_8,32,num_4,0.883441812637,,,2017_Jun_08_1341,60.0067170284,FEMA4ImagesEEG,001,200515,
AFNE01.JPG,AFNE01.JPG,AFNE01.JPG,AFNE01.JPG,AFNE01.JPG,AFNE01.JPG,,,,,,,,,,,,,,,,,5,7,57,5,,,,,,,AFSA14.jpg,AFNE16.jpg,AFNE09.jpg,AFSA03.jpg,AFSA14.jpg,FS,4,num_8,16,num_8,1.03346559544,,,2017_Jun_08_1341,60.0067170284,FEMA4ImagesEEG,001,200515,
AFNE01.JPG,AFNE01.JPG,AFNE01.JPG,AFNE01.JPG,AFNE01.JPG,AFNE01.JPG,,,,,,,,,,,,,,,,,5,8,58,9,,,,,,,AFSA01.jpg,AFNE06.jpg,AFSA18.jpg,AFNE01.jpg,AFSA01.jpg,FS,4,num_8,32,num_2,0.300038264173,,,2017_Jun_08_1341,60.0067170284,FEMA4ImagesEEG,001,200515,
AFNE01.JPG,AFNE01.JPG,AFNE01.JPG,AFNE01.JPG,AFNE01.JPG,AFNE01.JPG,,,,,,,,,,,,,,,,,5,9,59,1,,,,,,,AFNE13.jpg,AFSA09.jpg,AFNE03.jpg,AFSA14.jpg,AFNE03.jpg,FN,3,num_2,32,num_4,0.816766892285,,,2017_Jun_08_1341,60.0067170284,FEMA4ImagesEEG,001,200515,
,,,,,,,,,,,,,,,,,,,,,,,,,,,,,,,,,,,,,,,,,,,space,5.59972980939,2017_Jun_08_1341,60.0067170284,FEMA4ImagesEEG,001,200515,
AFNE01.JPG,AFNE01.JPG,AFNE01.JPG,AFNE01.JPG,AFNE01.JPG,AFNE01.JPG,,,,,,,,,,,,,,,,,,,,,0,0,0,6,,,AMSA03.jpg,AMNE12.jpg,AMSA06.jpg,AMNE10.jpg,AMNE12.jpg,MN,1,num_6,32,num_4,0.583488865062,,,2017_Jun_08_1341,60.0067170284,FEMA4ImagesEEG,001,200515,
AFNE01.JPG,AFNE01.JPG,AFNE01.JPG,AFNE01.JPG,AFNE01.JPG,AFNE01.JPG,,,,,,,,,,,,,,,,,,,,,0,1,1,9,,,AMSA14.jpg,AMNE07.jpg,AMSA11.jpg,AMNE09.jpg,AMSA14.jpg,MS,2,num_8,32,num_6,0.266805846048,,,2017_Jun_08_1341,60.0067170284,FEMA4ImagesEEG,001,200515,
AFNE01.JPG,AFNE01.JPG,AFNE01.JPG,AFNE01.JPG,AFNE01.JPG,AFNE01.JPG,,,,,,,,,,,,,,,,,,,,,0,2,2,3,,,AMSA08.jpg,AMNE09.jpg,AMNE10.jpg,AMSA03.jpg,AMNE09.jpg,MN,1,num_6,16,num_6,0.783458138258,,,2017_Jun_08_1341,60.0067170284,FEMA4ImagesEEG,001,200515,
AFNE01.JPG,AFNE01.JPG,AFNE01.JPG,AFNE01.JPG,AFNE01.JPG,AFNE01.JPG,,,,,,,,,,,,,,,,,,,,,0,3,3,0,,,AMNE19.jpg,AMNE16.jpg,AMSA14.jpg,AMSA18.jpg,AMSA18.jpg,MS,2,num_4,32,num_2,0.70010093659,,,2017_Jun_08_1341,60.0067170284,FEMA4ImagesEEG,001,200515,
AFNE01.JPG,AFNE01.JPG,AFNE01.JPG,AFNE01.JPG,AFNE01.JPG,AFNE01.JPG,,,,,,,,,,,,,,,,,,,,,0,4,4,1,,,AMNE10.jpg,AMSA18.jpg,AMSA04.jpg,AMNE14.jpg,AMNE10.jpg,MN,1,num_8,16,num_8,0.733435991222,,,2017_Jun_08_1341,60.0067170284,FEMA4ImagesEEG,001,200515,
AFNE01.JPG,AFNE01.JPG,AFNE01.JPG,AFNE01.JPG,AFNE01.JPG,AFNE01.JPG,,,,,,,,,,,,,,,,,,,,,0,5,5,4,,,AMNE17.jpg,AMSA04.jpg,AMNE16.jpg,AMSA06.jpg,AMNE16.jpg,MN,1,num_2,32,num_4,0.30013352368,,,2017_Jun_08_1341,60.0067170284,FEMA4ImagesEEG,001,200515,
AFNE01.JPG,AFNE01.JPG,AFNE01.JPG,AFNE01.JPG,AFNE01.JPG,AFNE01.JPG,,,,,,,,,,,,,,,,,,,,,0,6,6,5,,,AMNE12.jpg,AMSA04.jpg,AMNE11.jpg,AMSA08.jpg,AMNE12.jpg,MN,1,num_8,32,num_6,0.433472138518,,,2017_Jun_08_1341,60.0067170284,FEMA4ImagesEEG,001,200515,
AFNE01.JPG,AFNE01.JPG,AFNE01.JPG,AFNE01.JPG,AFNE01.JPG,AFNE01.JPG,,,,,,,,,,,,,,,,,,,,,0,7,7,7,,,AMNE02.jpg,AMNE18.jpg,AMSA18.jpg,AMSA19.jpg,AMNE18.jpg,MN,1,num_6,32,num_4,0.383529855517,,,2017_Jun_08_1341,60.0067170284,FEMA4ImagesEEG,001,200515,
AFNE01.JPG,AFNE01.JPG,AFNE01.JPG,AFNE01.JPG,AFNE01.JPG,AFNE01.JPG,,,,,,,,,,,,,,,,,,,,,0,8,8,2,,,AMSA05.jpg,AMSA06.jpg,AMNE20.jpg,AMNE19.jpg,AMSA06.jpg,MS,2,num_6,32,num_8,0.500152832175,,,2017_Jun_08_1341,60.0067170284,FEMA4ImagesEEG,001,200515,
AFNE01.JPG,AFNE01.JPG,AFNE01.JPG,AFNE01.JPG,AFNE01.JPG,AFNE01.JPG,,,,,,,,,,,,,,,,,,,,,0,9,9,8,,,AMSA05.jpg,AMNE13.jpg,AMSA01.jpg,AMNE11.jpg,AMSA01.jpg,MS,2,num_2,16,num_2,1.00013054081,,,2017_Jun_08_1341,60.0067170284,FEMA4ImagesEEG,001,200515,
AFNE01.JPG,AFNE01.JPG,AFNE01.JPG,AFNE01.JPG,AFNE01.JPG,AFNE01.JPG,,,,,,,,,,,,,,,,,,,,,1,0,10,1,,,AMNE12.jpg,AMSA17.jpg,AMSA04.jpg,AMNE11.jpg,AMNE12.jpg,MN,1,num_8,32,num_6,0.633626157427,,,2017_Jun_08_1341,60.0067170284,FEMA4ImagesEEG,001,200515,
AFNE01.JPG,AFNE01.JPG,AFNE01.JPG,AFNE01.JPG,AFNE01.JPG,AFNE01.JPG,,,,,,,,,,,,,,,,,,,,,1,1,11,8,,,AMNE20.jpg,AMSA10.jpg,AMNE16.jpg,AMSA16.jpg,AMNE20.jpg,MN,1,num_8,16,num_8,0.516816189882,,,2017_Jun_08_1341,60.0067170284,FEMA4ImagesEEG,001,200515,
AFNE01.JPG,AFNE01.JPG,AFNE01.JPG,AFNE01.JPG,AFNE01.JPG,AFNE01.JPG,,,,,,,,,,,,,,,,,,,,,1,2,12,2,,,AMSA08.jpg,AMNE18.jpg,AMSA12.jpg,AMNE12.jpg,AMSA08.jpg,MS,2,num_8,32,num_4,0.800150362484,,,2017_Jun_08_1341,60.0067170284,FEMA4ImagesEEG,001,200515,
AFNE01.JPG,AFNE01.JPG,AFNE01.JPG,AFNE01.JPG,AFNE01.JPG,AFNE01.JPG,,,,,,,,,,,,,,,,,,,,,1,3,13,7,,,AMSA05.jpg,AMNE01.jpg,AMSA06.jpg,AMNE17.jpg,AMNE01.jpg,MN,1,num_6,16,num_6,0.416798517159,,,2017_Jun_08_1341,60.0067170284,FEMA4ImagesEEG,001,200515,
AFNE01.JPG,AFNE01.JPG,AFNE01.JPG,AFNE01.JPG,AFNE01.JPG,AFNE01.JPG,,,,,,,,,,,,,,,,,,,,,1,4,14,5,,,AMNE10.jpg,AMSA08.jpg,AMNE17.jpg,AMSA06.jpg,AMNE10.jpg,MN,1,num_8,16,num_8,0.266818034133,,,2017_Jun_08_1341,60.0067170284,FEMA4ImagesEEG,001,200515,
AFNE01.JPG,AFNE01.JPG,AFNE01.JPG,AFNE01.JPG,AFNE01.JPG,AFNE01.JPG,,,,,,,,,,,,,,,,,,,,,1,5,15,3,,,AMNE13.jpg,AMSA15.jpg,AMNE19.jpg,AMSA17.jpg,AMSA17.jpg,MS,2,num_4,32,num_6,1.06674644517,,,2017_Jun_08_1341,60.0067170284,FEMA4ImagesEEG,001,200515,
AFNE01.JPG,AFNE01.JPG,AFNE01.JPG,AFNE01.JPG,AFNE01.JPG,AFNE01.JPG,,,,,,,,,,,,,,,,,,,,,1,6,16,4,,,AMNE05.jpg,AMNE20.jpg,AMSA08.jpg,AMSA17.jpg,AMNE05.jpg,MN,1,num_8,32,num_4,1.23349228093,,,2017_Jun_08_1341,60.0067170284,FEMA4ImagesEEG,001,200515,
AFNE01.JPG,AFNE01.JPG,AFNE01.JPG,AFNE01.JPG,AFNE01.JPG,AFNE01.JPG,,,,,,,,,,,,,,,,,,,,,1,7,17,6,,,AMNE10.jpg,AMNE01.jpg,AMSA05.jpg,AMSA09.jpg,AMSA09.jpg,MS,2,num_4,16,num_4,0.350053996426,,,2017_Jun_08_1341,60.0067170284,FEMA4ImagesEEG,001,200515,
AFNE01.JPG,AFNE01.JPG,AFNE01.JPG,AFNE01.JPG,AFNE01.JPG,AFNE01.JPG,,,,,,,,,,,,,,,,,,,,,1,8,18,0,,,AMNE08.jpg,AMSA11.jpg,AMNE13.jpg,AMSA03.jpg,AMNE13.jpg,MN,1,num_2,32,num_4,0.783441139087,,,2017_Jun_08_1341,60.0067170284,FEMA4ImagesEEG,001,200515,
AFNE01.JPG,AFNE01.JPG,AFNE01.JPG,AFNE01.JPG,AFNE01.JPG,AFNE01.JPG,,,,,,,,,,,,,,,,,,,,,1,9,19,9,,,AMSA13.jpg,AMSA05.jpg,AMNE18.jpg,AMNE05.jpg,AMSA05.jpg,MS,2,num_6,16,num_6,0.216846243135,,,2017_Jun_08_1341,60.0067170284,FEMA4ImagesEEG,001,200515,
AFNE01.JPG,AFNE01.JPG,AFNE01.JPG,AFNE01.JPG,AFNE01.JPG,AFNE01.JPG,,,,,,,,,,,,,,,,,,,,,2,0,20,0,,,AMSA10.jpg,AMNE13.jpg,AMSA20.jpg,AMNE16.jpg,AMSA20.jpg,MS,2,num_2,32,num_8,0.150163945784,,,2017_Jun_08_1341,60.0067170284,FEMA4ImagesEEG,001,200515,
AFNE01.JPG,AFNE01.JPG,AFNE01.JPG,AFNE01.JPG,AFNE01.JPG,AFNE01.JPG,,,,,,,,,,,,,,,,,,,,,2,1,21,8,,,AMSA03.jpg,AMNE18.jpg,AMNE20.jpg,AMSA09.jpg,AMSA09.jpg,MS,2,num_4,32,num_2,0.0668878911056,,,2017_Jun_08_1341,60.0067170284,FEMA4ImagesEEG,001,200515,
AFNE01.JPG,AFNE01.JPG,AFNE01.JPG,AFNE01.JPG,AFNE01.JPG,AFNE01.JPG,,,,,,,,,,,,,,,,,,,,,2,2,22,4,,,AMNE06.jpg,AMNE03.jpg,AMSA13.jpg,AMSA01.jpg,AMSA13.jpg,MS,2,num_2,32,num_8,0.316781165175,,,2017_Jun_08_1341,60.0067170284,FEMA4ImagesEEG,001,200515,
AFNE01.JPG,AFNE01.JPG,AFNE01.JPG,AFNE01.JPG,AFNE01.JPG,AFNE01.JPG,,,,,,,,,,,,,,,,,,,,,2,3,23,6,,,AMNE11.jpg,AMSA07.jpg,AMSA12.jpg,AMNE20.jpg,AMNE20.jpg,MN,1,num_4,32,num_8,0.600224068325,,,2017_Jun_08_1341,60.0067170284,FEMA4ImagesEEG,001,200515,
AFNE01.JPG,AFNE01.JPG,AFNE01.JPG,AFNE01.JPG,AFNE01.JPG,AFNE01.JPG,,,,,,,,,,,,,,,,,,,,,2,4,24,7,,,AMNE13.jpg,AMNE18.jpg,AMSA01.jpg,AMSA07.jpg,AMNE18.jpg,MN,1,num_6,16,num_6,0.300182276022,,,2017_Jun_08_1341,60.0067170284,FEMA4ImagesEEG,001,200515,
AFNE01.JPG,AFNE01.JPG,AFNE01.JPG,AFNE01.JPG,AFNE01.JPG,AFNE01.JPG,,,,,,,,,,,,,,,,,,,,,2,5,25,9,,,AMNE20.jpg,AMSA03.jpg,AMSA04.jpg,AMNE03.jpg,AMSA04.jpg,MS,2,num_2,32,num_4,0.400098274455,,,2017_Jun_08_1341,60.0067170284,FEMA4ImagesEEG,001,200515,
AFNE01.JPG,AFNE01.JPG,AFNE01.JPG,AFNE01.JPG,AFNE01.JPG,AFNE01.JPG,,,,,,,,,,,,,,,,,,,,,2,6,26,2,,,AMNE13.jpg,AMSA03.jpg,AMNE11.jpg,AMSA19.jpg,AMNE13.jpg,MN,1,num_8,32,num_6,0.28346824154,,,2017_Jun_08_1341,60.0067170284,FEMA4ImagesEEG,001,200515,
AFNE01.JPG,AFNE01.JPG,AFNE01.JPG,AFNE01.JPG,AFNE01.JPG,AFNE01.JPG,,,,,,,,,,,,,,,,,,,,,2,7,27,1,,,AMNE11.jpg,AMSA18.jpg,AMSA19.jpg,AMNE19.jpg,AMNE11.jpg,MN,1,num_8,16,num_8,0.433472459257,,,2017_Jun_08_1341,60.0067170284,FEMA4ImagesEEG,001,200515,
AFNE01.JPG,AFNE01.JPG,AFNE01.JPG,AFNE01.JPG,AFNE01.JPG,AFNE01.JPG,,,,,,,,,,,,,,,,,,,,,2,8,28,3,,,AMSA06.jpg,AMNE14.jpg,AMSA03.jpg,AMNE17.jpg,AMNE14.jpg,MN,1,num_6,32,num_4,0.350188386101,,,2017_Jun_08_1341,60.0067170284,FEMA4ImagesEEG,001,200515,
AFNE01.JPG,AFNE01.JPG,AFNE01.JPG,AFNE01.JPG,AFNE01.JPG,AFNE01.JPG,,,,,,,,,,,,,,,,,,,,,2,9,29,5,,,AMNE19.jpg,AMSA02.jpg,AMNE11.jpg,AMSA13.jpg,AMNE11.jpg,MN,1,num_2,32,num_6,0.450126194793,,,2017_Jun_08_1341,60.0067170284,FEMA4ImagesEEG,001,200515,
AFNE01.JPG,AFNE01.JPG,AFNE01.JPG,AFNE01.JPG,AFNE01.JPG,AFNE01.JPG,,,,,,,,,,,,,,,,,,,,,3,0,30,1,,,AMSA13.jpg,AMNE15.jpg,AMNE17.jpg,AMSA07.jpg,AMNE17.jpg,MN,1,num_2,32,num_8,0.466794684326,,,2017_Jun_08_1341,60.0067170284,FEMA4ImagesEEG,001,200515,
AFNE01.JPG,AFNE01.JPG,AFNE01.JPG,AFNE01.JPG,AFNE01.JPG,AFNE01.JPG,,,,,,,,,,,,,,,,,,,,,3,1,31,9,,,AMSA10.jpg,AMSA13.jpg,AMNE01.jpg,AMNE15.jpg,AMNE15.jpg,MN,1,num_4,16,num_4,1.0498159118,,,2017_Jun_08_1341,60.0067170284,FEMA4ImagesEEG,001,200515,
AFNE01.JPG,AFNE01.JPG,AFNE01.JPG,AFNE01.JPG,AFNE01.JPG,AFNE01.JPG,,,,,,,,,,,,,,,,,,,,,3,2,32,5,,,AMSA14.jpg,AMNE12.jpg,AMSA04.jpg,AMNE03.jpg,AMSA04.jpg,MS,2,num_2,16,num_2,1.13346723121,,,2017_Jun_08_1341,60.0067170284,FEMA4ImagesEEG,001,200515,
AFNE01.JPG,AFNE01.JPG,AFNE01.JPG,AFNE01.JPG,AFNE01.JPG,AFNE01.JPG,,,,,,,,,,,,,,,,,,,,,3,3,33,6,,,AMSA14.jpg,AMNE11.jpg,AMNE08.jpg,AMSA07.jpg,AMNE08.jpg,MN,1,num_2,32,num_4,0.400048880638,,,2017_Jun_08_1341,60.0067170284,FEMA4ImagesEEG,001,200515,
AFNE01.JPG,AFNE01.JPG,AFNE01.JPG,AFNE01.JPG,AFNE01.JPG,AFNE01.JPG,,,,,,,,,,,,,,,,,,,,,3,4,34,2,,,AMNE02.jpg,AMNE14.jpg,AMSA05.jpg,AMSA09.jpg,AMSA05.jpg,MS,2,num_2,16,num_2,0.883432190465,,,2017_Jun_08_1341,60.0067170284,FEMA4ImagesEEG,001,200515,
AFNE01.JPG,AFNE01.JPG,AFNE01.JPG,AFNE01.JPG,AFNE01.JPG,AFNE01.JPG,,,,,,,,,,,,,,,,,,,,,3,5,35,4,,,AMNE10.jpg,AMNE09.jpg,AMSA18.jpg,AMSA19.jpg,AMSA19.jpg,MS,2,num_4,32,num_8,0.63346001458,,,2017_Jun_08_1341,60.0067170284,FEMA4ImagesEEG,001,200515,
AFNE01.JPG,AFNE01.JPG,AFNE01.JPG,AFNE01.JPG,AFNE01.JPG,AFNE01.JPG,,,,,,,,,,,,,,,,,,,,,3,6,36,0,,,AMNE04.jpg,AMSA08.jpg,AMNE20.jpg,AMSA07.jpg,AMSA07.jpg,MS,2,num_4,16,num_4,0.300171370893,,,2017_Jun_08_1341,60.0067170284,FEMA4ImagesEEG,001,200515,
AFNE01.JPG,AFNE01.JPG,AFNE01.JPG,AFNE01.JPG,AFNE01.JPG,AFNE01.JPG,,,,,,,,,,,,,,,,,,,,,3,7,37,7,,,AMNE09.jpg,AMNE12.jpg,AMSA13.jpg,AMSA05.jpg,AMNE09.jpg,MN,1,num_8,16,num_8,0.833553093064,,,2017_Jun_08_1341,60.0067170284,FEMA4ImagesEEG,001,200515,
AFNE01.JPG,AFNE01.JPG,AFNE01.JPG,AFNE01.JPG,AFNE01.JPG,AFNE01.JPG,,,,,,,,,,,,,,,,,,,,,3,8,38,8,,,AMSA11.jpg,AMSA09.jpg,AMNE19.jpg,AMNE14.jpg,AMNE19.jpg,MN,1,num_2,32,num_6,0.100164891963,,,2017_Jun_08_1341,60.0067170284,FEMA4ImagesEEG,001,200515,
