IPosition2,IPosition3,IPosition1,IPosition6,IPosition4,IPosition5,TrialsF1.thisRepN,TrialsF1.thisTrialN,TrialsF1.thisN,TrialsF1.thisIndex,TrialsM1.thisRepN,TrialsM1.thisTrialN,TrialsM1.thisN,TrialsM1.thisIndex,TrialsF2.thisRepN,TrialsF2.thisTrialN,TrialsF2.thisN,TrialsF2.thisIndex,TrialsM2.thisRepN,TrialsM2.thisTrialN,TrialsM2.thisN,TrialsM2.thisIndex,TrialsF3.thisRepN,TrialsF3.thisTrialN,TrialsF3.thisN,TrialsF3.thisIndex,TrialsM3.thisRepN,TrialsM3.thisTrialN,TrialsM3.thisN,TrialsM3.thisIndex,InstrKey_resp.keys,InstrKey_resp.rt,Image0 _Position,Image1 _Position,Image2 _Position,Image3 _Position,Center_image,condition,code,correct_answer,accuracy,Key_Resp.keys,Key_Resp.rt,BreakKey_resp.keys,BreakKey_resp.rt,date,frameRate,expName,session,participant,
,,,,,,,,,,,,,,,,,,,,,,,,,,,,,,space,9.54956987174,,,,,,,,,,,,,,2017_May_25_1057,60.012107182,FEMA4ImagesEEG,001,200501,
AFNE23.JPG,AFNE24.JPG,AFNE22.JPG,AFSA24.JPG,AFSA22.JPG,AFSA23.JPG,0,0,0,8,,,,,,,,,,,,,,,,,,,,,,,AFNE03.jpg,AFSA16.jpg,AFSA02.jpg,AFNE13.jpg,AFSA02.jpg,FS,4,num_2,32,num_6,1.80005683517,,,2017_May_25_1057,60.012107182,FEMA4ImagesEEG,001,200501,
AFSA21.JPG,AFNE23.JPG,AFNE21.JPG,AFSA25.JPG,AFNE25.JPG,AFSA23.JPG,0,1,1,4,,,,,,,,,,,,,,,,,,,,,,,AFSA09.jpg,AFSA06.jpg,AFNE14.jpg,AFNE05.jpg,AFSA09.jpg,FS,4,num_8,16,num_8,1.25008251029,,,2017_May_25_1057,60.012107182,FEMA4ImagesEEG,001,200501,
AFSA25.JPG,AFNE24.JPG,AFSA24.JPG,AFNE21.JPG,AFSA21.JPG,AFNE25.JPG,0,2,2,2,,,,,,,,,,,,,,,,,,,,,,,AFNE10.jpg,AFSA01.jpg,AFNE09.jpg,AFSA02.jpg,AFNE10.jpg,FN,3,num_8,32,num_2,1.3167406026,,,2017_May_25_1057,60.012107182,FEMA4ImagesEEG,001,200501,
AMSA25.JPG,AMNE24.JPG,AMSA24.JPG,AMNE26.JPG,AMSA21.JPG,AMNE25.JPG,0,3,3,3,,,,,,,,,,,,,,,,,,,,,,,AFSA07.jpg,AFNE02.jpg,AFNE20.jpg,AFSA17.jpg,AFSA17.jpg,FS,4,num_4,16,num_4,0.733433703543,,,2017_May_25_1057,60.012107182,FEMA4ImagesEEG,001,200501,
AFSA21.JPG,AFNE22.JPG,AFNE21.JPG,AFSA23.JPG,AFSA22.JPG,AFNE23.JPG,0,4,4,0,,,,,,,,,,,,,,,,,,,,,,,AFSA09.jpg,AFNE02.jpg,AFSA18.jpg,AFNE14.jpg,AFNE14.jpg,FN,3,num_4,32,num_6,0.533446597285,,,2017_May_25_1057,60.012107182,FEMA4ImagesEEG,001,200501,
AMNE23.JPG,AMNE24.JPG,AMNE22.JPG,AMSA24.JPG,AMSA22.JPG,AMSA23.JPG,0,5,5,9,,,,,,,,,,,,,,,,,,,,,,,AFSA17.jpg,AFSA12.jpg,AFNE14.jpg,AFNE02.jpg,AFSA17.jpg,FS,4,num_8,16,num_8,0.683483273839,,,2017_May_25_1057,60.012107182,FEMA4ImagesEEG,001,200501,
AMNE22.JPG,AMSA24.JPG,AMSA22.JPG,AMNE25.JPG,AMNE24.JPG,AMSA25.JPG,0,6,6,7,,,,,,,,,,,,,,,,,,,,,,,AFNE16.jpg,AFSA05.jpg,AFSA08.jpg,AFNE15.jpg,AFNE16.jpg,FN,3,num_8,16,num_8,0.750119235017,,,2017_May_25_1057,60.012107182,FEMA4ImagesEEG,001,200501,
AMSA21.JPG,AMNE22.JPG,AMNE21.JPG,AMSA23.JPG,AMSA22.JPG,AMNE23.JPG,0,7,7,1,,,,,,,,,,,,,,,,,,,,,,,AFNE01.jpg,AFNE18.jpg,AFSA19.jpg,AFSA06.jpg,AFNE18.jpg,FN,3,num_6,32,num_4,1.43339242425,,,2017_May_25_1057,60.012107182,FEMA4ImagesEEG,001,200501,
AFNE22.JPG,AFSA24.JPG,AFSA22.JPG,AFNE25.JPG,AFNE24.JPG,AFSA25.JPG,0,8,8,6,,,,,,,,,,,,,,,,,,,,,,,AFNE16.jpg,AFNE18.jpg,AFSA20.jpg,AFSA07.jpg,AFNE16.jpg,FN,3,num_8,32,num_6,0.749969770201,,,2017_May_25_1057,60.012107182,FEMA4ImagesEEG,001,200501,
AMSA21.JPG,AMNE23.JPG,AMNE21.JPG,AMSA25.JPG,AMNE25.JPG,AMSA23.JPG,0,9,9,5,,,,,,,,,,,,,,,,,,,,,,,AFSA20.jpg,AFNE10.jpg,AFSA07.jpg,AFNE17.jpg,AFSA20.jpg,FS,4,num_8,16,num_8,0.466780807241,,,2017_May_25_1057,60.012107182,FEMA4ImagesEEG,001,200501,
AFNE23.JPG,AFNE24.JPG,AFNE22.JPG,AFSA24.JPG,AFSA22.JPG,AFSA23.JPG,,,,,0,0,0,8,,,,,,,,,,,,,,,,,,,AMNE19.jpg,AMSA19.jpg,AMSA20.jpg,AMNE11.jpg,AMSA19.jpg,MS,2,num_6,32,num_8,0.583460533409,,,2017_May_25_1057,60.012107182,FEMA4ImagesEEG,001,200501,
AMSA21.JPG,AMNE23.JPG,AMNE21.JPG,AMSA25.JPG,AMNE25.JPG,AMSA23.JPG,,,,,0,1,1,5,,,,,,,,,,,,,,,,,,,AMNE18.jpg,AMSA06.jpg,AMSA03.jpg,AMNE10.jpg,AMNE10.jpg,MN,1,num_4,32,num_8,2.69999496429,,,2017_May_25_1057,60.012107182,FEMA4ImagesEEG,001,200501,
AMSA25.JPG,AMNE24.JPG,AMSA24.JPG,AMNE26.JPG,AMSA21.JPG,AMNE25.JPG,,,,,0,2,2,3,,,,,,,,,,,,,,,,,,,AMSA17.jpg,AMNE10.jpg,AMSA19.jpg,AMNE16.jpg,AMSA17.jpg,MS,2,num_8,32,num_2,1.48339064419,,,2017_May_25_1057,60.012107182,FEMA4ImagesEEG,001,200501,
AFSA25.JPG,AFNE24.JPG,AFSA24.JPG,AFNE21.JPG,AFSA21.JPG,AFNE25.JPG,,,,,0,3,3,2,,,,,,,,,,,,,,,,,,,AMSA07.jpg,AMSA11.jpg,AMNE05.jpg,AMNE20.jpg,AMSA11.jpg,MS,2,num_6,16,num_6,0.583466306794,,,2017_May_25_1057,60.012107182,FEMA4ImagesEEG,001,200501,
AFSA21.JPG,AFNE22.JPG,AFNE21.JPG,AFSA23.JPG,AFSA22.JPG,AFNE23.JPG,,,,,0,4,4,0,,,,,,,,,,,,,,,,,,,AMSA09.jpg,AMNE19.jpg,AMSA16.jpg,AMNE18.jpg,AMSA16.jpg,MS,2,num_2,32,num_4,0.70017906907,,,2017_May_25_1057,60.012107182,FEMA4ImagesEEG,001,200501,
AFNE22.JPG,AFSA24.JPG,AFSA22.JPG,AFNE25.JPG,AFNE24.JPG,AFSA25.JPG,,,,,0,5,5,6,,,,,,,,,,,,,,,,,,,AMSA13.jpg,AMNE05.jpg,AMSA06.jpg,AMNE18.jpg,AMNE18.jpg,MN,1,num_4,32,num_8,0.599993392709,,,2017_May_25_1057,60.012107182,FEMA4ImagesEEG,001,200501,
AFSA21.JPG,AFNE23.JPG,AFNE21.JPG,AFSA25.JPG,AFNE25.JPG,AFSA23.JPG,,,,,0,6,6,4,,,,,,,,,,,,,,,,,,,AMNE04.jpg,AMSA03.jpg,AMNE12.jpg,AMSA14.jpg,AMNE12.jpg,MN,1,num_2,32,num_8,0.866625120165,,,2017_May_25_1057,60.012107182,FEMA4ImagesEEG,001,200501,
AMNE23.JPG,AMNE24.JPG,AMNE22.JPG,AMSA24.JPG,AMSA22.JPG,AMSA23.JPG,,,,,0,7,7,9,,,,,,,,,,,,,,,,,,,AMSA03.jpg,AMNE01.jpg,AMNE10.jpg,AMSA05.jpg,AMNE10.jpg,MN,1,num_2,32,num_8,0.750118914293,,,2017_May_25_1057,60.012107182,FEMA4ImagesEEG,001,200501,
AMNE22.JPG,AMSA24.JPG,AMSA22.JPG,AMNE25.JPG,AMNE24.JPG,AMSA25.JPG,,,,,0,8,8,7,,,,,,,,,,,,,,,,,,,AMNE05.jpg,AMSA05.jpg,AMSA18.jpg,AMNE20.jpg,AMNE20.jpg,MN,1,num_4,32,num_2,1.08346903301,,,2017_May_25_1057,60.012107182,FEMA4ImagesEEG,001,200501,
AMSA21.JPG,AMNE22.JPG,AMNE21.JPG,AMSA23.JPG,AMSA22.JPG,AMNE23.JPG,,,,,0,9,9,1,,,,,,,,,,,,,,,,,,,AMNE01.jpg,AMNE16.jpg,AMSA18.jpg,AMSA08.jpg,AMSA08.jpg,MS,2,num_4,32,num_8,1.48337428644,,,2017_May_25_1057,60.012107182,FEMA4ImagesEEG,001,200501,
AMNE22.JPG,AMSA24.JPG,AMSA22.JPG,AMNE25.JPG,AMNE24.JPG,AMSA25.JPG,,,,,,,,,0,0,0,7,,,,,,,,,,,,,,,AFNE03.jpg,AFSA02.jpg,AFNE04.jpg,AFSA20.jpg,AFSA02.jpg,FS,4,num_6,32,num_8,2.38335411192,,,2017_May_25_1057,60.012107182,FEMA4ImagesEEG,001,200501,
AMSA21.JPG,AMNE22.JPG,AMNE21.JPG,AMSA23.JPG,AMSA22.JPG,AMNE23.JPG,,,,,,,,,0,1,1,1,,,,,,,,,,,,,,,AFNE10.jpg,AFSA02.jpg,AFNE19.jpg,AFSA19.jpg,AFSA02.jpg,FS,4,num_6,16,num_6,1.06674052228,,,2017_May_25_1057,60.012107182,FEMA4ImagesEEG,001,200501,
AMSA25.JPG,AMNE24.JPG,AMSA24.JPG,AMNE26.JPG,AMSA21.JPG,AMNE25.JPG,,,,,,,,,0,2,2,3,,,,,,,,,,,,,,,AFNE10.jpg,AFSA11.jpg,AFNE09.jpg,AFSA05.jpg,AFNE10.jpg,FN,3,num_8,32,num_2,0.833774938714,,,2017_May_25_1057,60.012107182,FEMA4ImagesEEG,001,200501,
AFSA21.JPG,AFNE23.JPG,AFNE21.JPG,AFSA25.JPG,AFNE25.JPG,AFSA23.JPG,,,,,,,,,0,3,3,4,,,,,,,,,,,,,,,AFNE02.jpg,AFSA09.jpg,AFSA12.jpg,AFNE20.jpg,AFSA09.jpg,FS,4,num_6,32,num_8,0.833479216555,,,2017_May_25_1057,60.012107182,FEMA4ImagesEEG,001,200501,
AFSA21.JPG,AFNE22.JPG,AFNE21.JPG,AFSA23.JPG,AFSA22.JPG,AFNE23.JPG,,,,,,,,,0,4,4,0,,,,,,,,,,,,,,,AFSA16.jpg,AFNE05.jpg,AFSA11.jpg,AFNE15.jpg,AFNE15.jpg,FN,3,num_4,16,num_4,0.566787831602,,,2017_May_25_1057,60.012107182,FEMA4ImagesEEG,001,200501,
AFSA25.JPG,AFNE24.JPG,AFSA24.JPG,AFNE21.JPG,AFSA21.JPG,AFNE25.JPG,,,,,,,,,0,5,5,2,,,,,,,,,,,,,,,AFSA19.jpg,AFNE04.jpg,AFNE03.jpg,AFSA05.jpg,AFNE03.jpg,FN,3,num_2,32,num_8,0.633533806424,,,2017_May_25_1057,60.012107182,FEMA4ImagesEEG,001,200501,
AFNE23.JPG,AFNE24.JPG,AFNE22.JPG,AFSA24.JPG,AFSA22.JPG,AFSA23.JPG,,,,,,,,,0,6,6,8,,,,,,,,,,,,,,,AFSA08.jpg,AFNE19.jpg,AFNE13.jpg,AFSA05.jpg,AFSA08.jpg,FS,4,num_8,16,num_8,0.55014014733,,,2017_May_25_1057,60.012107182,FEMA4ImagesEEG,001,200501,
AMSA21.JPG,AMNE23.JPG,AMNE21.JPG,AMSA25.JPG,AMNE25.JPG,AMSA23.JPG,,,,,,,,,0,7,7,5,,,,,,,,,,,,,,,AFSA11.jpg,AFNE03.jpg,AFNE20.jpg,AFSA15.jpg,AFSA15.jpg,FS,4,num_4,32,num_8,2.54996855138,,,2017_May_25_1057,60.012107182,FEMA4ImagesEEG,001,200501,
AMNE23.JPG,AMNE24.JPG,AMNE22.JPG,AMSA24.JPG,AMSA22.JPG,AMSA23.JPG,,,,,,,,,0,8,8,9,,,,,,,,,,,,,,,AFNE07.jpg,AFNE15.jpg,AFSA07.jpg,AFSA04.jpg,AFSA07.jpg,FS,4,num_2,32,num_6,0.616778353695,,,2017_May_25_1057,60.012107182,FEMA4ImagesEEG,001,200501,
AFNE22.JPG,AFSA24.JPG,AFSA22.JPG,AFNE25.JPG,AFNE24.JPG,AFSA25.JPG,,,,,,,,,0,9,9,6,,,,,,,,,,,,,,,AFNE09.jpg,AFSA17.jpg,AFNE02.jpg,AFSA04.jpg,AFNE09.jpg,FN,3,num_8,32,num_2,1.98307872459,,,2017_May_25_1057,60.012107182,FEMA4ImagesEEG,001,200501,
AFNE23.JPG,AFNE24.JPG,AFNE22.JPG,AFSA24.JPG,AFSA22.JPG,AFSA23.JPG,,,,,,,,,,,,,0,0,0,8,,,,,,,,,,,AMNE19.jpg,AMSA09.jpg,AMSA20.jpg,AMNE05.jpg,AMNE05.jpg,MN,1,num_4,32,num_6,0.950087417732,,,2017_May_25_1057,60.012107182,FEMA4ImagesEEG,001,200501,
AFNE22.JPG,AFSA24.JPG,AFSA22.JPG,AFNE25.JPG,AFNE24.JPG,AFSA25.JPG,,,,,,,,,,,,,0,1,1,6,,,,,,,,,,,AMNE04.jpg,AMSA15.jpg,AMNE06.jpg,AMSA17.jpg,AMSA15.jpg,MS,2,num_6,32,num_4,0.6667836298,,,2017_May_25_1057,60.012107182,FEMA4ImagesEEG,001,200501,
AMSA25.JPG,AMNE24.JPG,AMSA24.JPG,AMNE26.JPG,AMSA21.JPG,AMNE25.JPG,,,,,,,,,,,,,0,2,2,3,,,,,,,,,,,AMSA03.jpg,AMSA16.jpg,AMNE12.jpg,AMNE13.jpg,AMSA16.jpg,MS,2,num_6,32,num_8,0.650111890165,,,2017_May_25_1057,60.012107182,FEMA4ImagesEEG,001,200501,
AMSA21.JPG,AMNE22.JPG,AMNE21.JPG,AMSA23.JPG,AMSA22.JPG,AMNE23.JPG,,,,,,,,,,,,,0,3,3,1,,,,,,,,,,,AMNE19.jpg,AMNE13.jpg,AMSA08.jpg,AMSA04.jpg,AMSA04.jpg,MS,2,num_4,32,num_2,2.94995463139,,,2017_May_25_1057,60.012107182,FEMA4ImagesEEG,001,200501,
AFSA25.JPG,AFNE24.JPG,AFSA24.JPG,AFNE21.JPG,AFSA21.JPG,AFNE25.JPG,,,,,,,,,,,,,0,4,4,2,,,,,,,,,,,AMSA06.jpg,AMNE11.jpg,AMNE02.jpg,AMSA13.jpg,AMSA06.jpg,MS,2,num_8,32,num_4,0.6334423956,,,2017_May_25_1057,60.012107182,FEMA4ImagesEEG,001,200501,
AMSA21.JPG,AMNE23.JPG,AMNE21.JPG,AMSA25.JPG,AMNE25.JPG,AMSA23.JPG,,,,,,,,,,,,,0,5,5,5,,,,,,,,,,,AMSA03.jpg,AMSA13.jpg,AMNE16.jpg,AMNE20.jpg,AMSA03.jpg,MS,2,num_8,32,num_6,0.449990714551,,,2017_May_25_1057,60.012107182,FEMA4ImagesEEG,001,200501,
AMNE22.JPG,AMSA24.JPG,AMSA22.JPG,AMNE25.JPG,AMNE24.JPG,AMSA25.JPG,,,,,,,,,,,,,0,6,6,7,,,,,,,,,,,AMNE16.jpg,AMNE20.jpg,AMSA05.jpg,AMSA11.jpg,AMNE20.jpg,MN,1,num_6,32,num_8,0.766778145102,,,2017_May_25_1057,60.012107182,FEMA4ImagesEEG,001,200501,
AMNE23.JPG,AMNE24.JPG,AMNE22.JPG,AMSA24.JPG,AMSA22.JPG,AMSA23.JPG,,,,,,,,,,,,,0,7,7,9,,,,,,,,,,,AMSA17.jpg,AMNE05.jpg,AMSA19.jpg,AMNE04.jpg,AMNE05.jpg,MN,1,num_6,32,num_8,0.783455016674,,,2017_May_25_1057,60.012107182,FEMA4ImagesEEG,001,200501,
AFSA21.JPG,AFNE23.JPG,AFNE21.JPG,AFSA25.JPG,AFNE25.JPG,AFSA23.JPG,,,,,,,,,,,,,0,8,8,4,,,,,,,,,,,AMSA07.jpg,AMNE18.jpg,AMSA10.jpg,AMNE04.jpg,AMSA07.jpg,MS,2,num_8,32,num_6,0.566781095928,,,2017_May_25_1057,60.012107182,FEMA4ImagesEEG,001,200501,
AFSA21.JPG,AFNE22.JPG,AFNE21.JPG,AFSA23.JPG,AFSA22.JPG,AFNE23.JPG,,,,,,,,,,,,,0,9,9,0,,,,,,,,,,,AMNE04.jpg,AMSA02.jpg,AMSA18.jpg,AMNE16.jpg,AMSA02.jpg,MS,2,num_6,32,num_2,0.616776108509,,,2017_May_25_1057,60.012107182,FEMA4ImagesEEG,001,200501,
AFSA21.JPG,AFNE22.JPG,AFNE21.JPG,AFSA23.JPG,AFSA22.JPG,AFNE23.JPG,,,,,,,,,,,,,,,,,0,0,0,0,,,,,,,AFSA09.jpg,AFSA06.jpg,AFNE11.jpg,AFNE04.jpg,AFSA06.jpg,FS,4,num_6,32,num_4,0.616761995945,,,2017_May_25_1057,60.012107182,FEMA4ImagesEEG,001,200501,
AFNE22.JPG,AFSA24.JPG,AFSA22.JPG,AFNE25.JPG,AFNE24.JPG,AFSA25.JPG,,,,,,,,,,,,,,,,,0,1,1,6,,,,,,,AFSA12.jpg,AFNE10.jpg,AFSA16.jpg,AFNE11.jpg,AFNE10.jpg,FN,3,num_6,16,num_6,0.633471903624,,,2017_May_25_1057,60.012107182,FEMA4ImagesEEG,001,200501,
AFNE23.JPG,AFNE24.JPG,AFNE22.JPG,AFSA24.JPG,AFSA22.JPG,AFSA23.JPG,,,,,,,,,,,,,,,,,0,2,2,8,,,,,,,AFSA09.jpg,AFSA05.jpg,AFNE07.jpg,AFNE04.jpg,AFNE04.jpg,FN,3,num_4,32,num_2,0.900142119848,,,2017_May_25_1057,60.012107182,FEMA4ImagesEEG,001,200501,
AMSA21.JPG,AMNE23.JPG,AMNE21.JPG,AMSA25.JPG,AMNE25.JPG,AMSA23.JPG,,,,,,,,,,,,,,,,,0,3,3,5,,,,,,,AFSA03.jpg,AFSA13.jpg,AFNE19.jpg,AFNE15.jpg,AFNE19.jpg,FN,3,num_2,32,num_8,0.617111923173,,,2017_May_25_1057,60.012107182,FEMA4ImagesEEG,001,200501,
AFSA21.JPG,AFNE23.JPG,AFNE21.JPG,AFSA25.JPG,AFNE25.JPG,AFSA23.JPG,,,,,,,,,,,,,,,,,0,4,4,4,,,,,,,AFSA04.jpg,AFSA02.jpg,AFNE19.jpg,AFNE20.jpg,AFSA04.jpg,FS,4,num_8,16,num_8,0.783491581096,,,2017_May_25_1057,60.012107182,FEMA4ImagesEEG,001,200501,
AMSA21.JPG,AMNE22.JPG,AMNE21.JPG,AMSA23.JPG,AMSA22.JPG,AMNE23.JPG,,,,,,,,,,,,,,,,,0,5,5,1,,,,,,,AFSA11.jpg,AFSA06.jpg,AFNE12.jpg,AFNE19.jpg,AFSA06.jpg,FS,4,num_6,32,num_8,1.25010335841,,,2017_May_25_1057,60.012107182,FEMA4ImagesEEG,001,200501,
AMNE22.JPG,AMSA24.JPG,AMSA22.JPG,AMNE25.JPG,AMNE24.JPG,AMSA25.JPG,,,,,,,,,,,,,,,,,0,6,6,7,,,,,,,AFSA14.jpg,AFSA05.jpg,AFNE05.jpg,AFNE04.jpg,AFNE04.jpg,FN,3,num_4,32,num_8,0.800101097208,,,2017_May_25_1057,60.012107182,FEMA4ImagesEEG,001,200501,
AFSA25.JPG,AFNE24.JPG,AFSA24.JPG,AFNE21.JPG,AFSA21.JPG,AFNE25.JPG,,,,,,,,,,,,,,,,,0,7,7,2,,,,,,,AFNE19.jpg,AFSA15.jpg,AFSA16.jpg,AFNE20.jpg,AFNE19.jpg,FN,3,num_8,32,num_6,0.483133090078,,,2017_May_25_1057,60.012107182,FEMA4ImagesEEG,001,200501,
AMNE23.JPG,AMNE24.JPG,AMNE22.JPG,AMSA24.JPG,AMSA22.JPG,AMSA23.JPG,,,,,,,,,,,,,,,,,0,8,8,9,,,,,,,AFNE04.jpg,AFSA01.jpg,AFNE05.jpg,AFSA16.jpg,AFNE05.jpg,FN,3,num_2,32,num_4,0.616790862521,,,2017_May_25_1057,60.012107182,FEMA4ImagesEEG,001,200501,
AMSA25.JPG,AMNE24.JPG,AMSA24.JPG,AMNE26.JPG,AMSA21.JPG,AMNE25.JPG,,,,,,,,,,,,,,,,,0,9,9,3,,,,,,,AFSA02.jpg,AFSA01.jpg,AFNE04.jpg,AFNE03.jpg,AFNE04.jpg,FN,3,num_2,16,num_2,3.54989189457,,,2017_May_25_1057,60.012107182,FEMA4ImagesEEG,001,200501,
AFSA21.JPG,AFNE23.JPG,AFNE21.JPG,AFSA25.JPG,AFNE25.JPG,AFSA23.JPG,,,,,,,,,,,,,,,,,,,,,0,0,0,4,,,AMSA16.jpg,AMSA02.jpg,AMNE17.jpg,AMNE07.jpg,AMSA16.jpg,MS,2,num_8,32,num_4,1.66668131377,,,2017_May_25_1057,60.012107182,FEMA4ImagesEEG,001,200501,
AMSA21.JPG,AMNE23.JPG,AMNE21.JPG,AMSA25.JPG,AMNE25.JPG,AMSA23.JPG,,,,,,,,,,,,,,,,,,,,,0,1,1,5,,,AMNE20.jpg,AMSA04.jpg,AMNE16.jpg,AMSA07.jpg,AMSA07.jpg,MS,2,num_4,16,num_4,0.433462024899,,,2017_May_25_1057,60.012107182,FEMA4ImagesEEG,001,200501,
AMNE22.JPG,AMSA24.JPG,AMSA22.JPG,AMNE25.JPG,AMNE24.JPG,AMSA25.JPG,,,,,,,,,,,,,,,,,,,,,0,2,2,7,,,AMSA01.jpg,AMNE19.jpg,AMNE08.jpg,AMSA13.jpg,AMSA13.jpg,MS,2,num_4,16,num_4,0.566775322659,,,2017_May_25_1057,60.012107182,FEMA4ImagesEEG,001,200501,
AMNE23.JPG,AMNE24.JPG,AMNE22.JPG,AMSA24.JPG,AMSA22.JPG,AMSA23.JPG,,,,,,,,,,,,,,,,,,,,,0,3,3,9,,,AMNE03.jpg,AMNE04.jpg,AMSA05.jpg,AMSA18.jpg,AMNE04.jpg,MN,1,num_6,16,num_6,0.866750208777,,,2017_May_25_1057,60.012107182,FEMA4ImagesEEG,001,200501,
AMSA25.JPG,AMNE24.JPG,AMSA24.JPG,AMNE26.JPG,AMSA21.JPG,AMNE25.JPG,,,,,,,,,,,,,,,,,,,,,0,4,4,3,,,AMSA16.jpg,AMNE18.jpg,AMNE16.jpg,AMSA13.jpg,AMSA13.jpg,MS,2,num_4,32,num_2,1.51658722479,,,2017_May_25_1057,60.012107182,FEMA4ImagesEEG,001,200501,
AFNE23.JPG,AFNE24.JPG,AFNE22.JPG,AFSA24.JPG,AFSA22.JPG,AFSA23.JPG,,,,,,,,,,,,,,,,,,,,,0,5,5,8,,,AMNE05.jpg,AMNE15.jpg,AMSA05.jpg,AMSA13.jpg,AMSA05.jpg,MS,2,num_2,32,num_8,0.650193358073,,,2017_May_25_1057,60.012107182,FEMA4ImagesEEG,001,200501,
AFNE22.JPG,AFSA24.JPG,AFSA22.JPG,AFNE25.JPG,AFNE24.JPG,AFSA25.JPG,,,,,,,,,,,,,,,,,,,,,0,6,6,6,,,AMNE17.jpg,AMSA05.jpg,AMNE13.jpg,AMSA09.jpg,AMSA05.jpg,MS,2,num_6,16,num_6,0.450116123888,,,2017_May_25_1057,60.012107182,FEMA4ImagesEEG,001,200501,
AFSA21.JPG,AFNE22.JPG,AFNE21.JPG,AFSA23.JPG,AFSA22.JPG,AFNE23.JPG,,,,,,,,,,,,,,,,,,,,,0,7,7,0,,,AMNE15.jpg,AMNE16.jpg,AMSA19.jpg,AMSA04.jpg,AMSA19.jpg,MS,2,num_2,16,num_2,0.300179518061,,,2017_May_25_1057,60.012107182,FEMA4ImagesEEG,001,200501,
AMSA21.JPG,AMNE22.JPG,AMNE21.JPG,AMSA23.JPG,AMSA22.JPG,AMNE23.JPG,,,,,,,,,,,,,,,,,,,,,0,8,8,1,,,AMNE16.jpg,AMNE11.jpg,AMSA12.jpg,AMSA15.jpg,AMNE16.jpg,MN,1,num_8,16,num_8,0.683468199102,,,2017_May_25_1057,60.012107182,FEMA4ImagesEEG,001,200501,
AFSA25.JPG,AFNE24.JPG,AFSA24.JPG,AFNE21.JPG,AFSA21.JPG,AFNE25.JPG,,,,,,,,,,,,,,,,,,,,,0,9,9,2,,,AMNE15.jpg,AMSA09.jpg,AMSA02.jpg,AMNE20.jpg,AMSA02.jpg,MS,2,num_2,48,None,,,,2017_May_25_1057,60.012107182,FEMA4ImagesEEG,001,200501,
,,,,,,,,,,,,,,,,,,,,,,,,,,,,,,,,,,,,,,,,,,,space,11.5159303495,2017_May_25_1057,60.012107182,FEMA4ImagesEEG,001,200501,
AFNE01.JPG,AFNE01.JPG,AFNE01.JPG,AFNE01.JPG,AFNE01.JPG,AFNE01.JPG,0,0,0,7,,,,,,,,,,,,,,,,,,,,,,,AFSA19.jpg,AFSA15.jpg,AFNE13.jpg,AFNE17.jpg,AFSA15.jpg,FS,4,num_6,32,num_4,0.650147812907,,,2017_May_25_1057,60.012107182,FEMA4ImagesEEG,001,200501,
AFNE01.JPG,AFNE01.JPG,AFNE01.JPG,AFNE01.JPG,AFNE01.JPG,AFNE01.JPG,0,1,1,3,,,,,,,,,,,,,,,,,,,,,,,AFSA02.jpg,AFNE11.jpg,AFNE03.jpg,AFSA17.jpg,AFNE03.jpg,FN,3,num_2,32,num_6,0.333485791693,,,2017_May_25_1057,60.012107182,FEMA4ImagesEEG,001,200501,
AFNE01.JPG,AFNE01.JPG,AFNE01.JPG,AFNE01.JPG,AFNE01.JPG,AFNE01.JPG,0,2,2,6,,,,,,,,,,,,,,,,,,,,,,,AFNE16.jpg,AFSA17.jpg,AFNE14.jpg,AFSA05.jpg,AFNE16.jpg,FN,3,num_8,16,num_8,0.383872106904,,,2017_May_25_1057,60.012107182,FEMA4ImagesEEG,001,200501,
AFNE01.JPG,AFNE01.JPG,AFNE01.JPG,AFNE01.JPG,AFNE01.JPG,AFNE01.JPG,0,3,3,4,,,,,,,,,,,,,,,,,,,,,,,AFSA20.jpg,AFSA16.jpg,AFNE07.jpg,AFNE01.jpg,AFSA16.jpg,FS,4,num_6,32,num_8,0.433523606975,,,2017_May_25_1057,60.012107182,FEMA4ImagesEEG,001,200501,
AFNE01.JPG,AFNE01.JPG,AFNE01.JPG,AFNE01.JPG,AFNE01.JPG,AFNE01.JPG,0,4,4,8,,,,,,,,,,,,,,,,,,,,,,,AFSA17.jpg,AFSA06.jpg,AFNE13.jpg,AFNE06.jpg,AFNE13.jpg,FN,3,num_2,16,num_2,0.983453028137,,,2017_May_25_1057,60.012107182,FEMA4ImagesEEG,001,200501,
AFNE01.JPG,AFNE01.JPG,AFNE01.JPG,AFNE01.JPG,AFNE01.JPG,AFNE01.JPG,0,5,5,2,,,,,,,,,,,,,,,,,,,,,,,AFSA01.jpg,AFNE12.jpg,AFSA19.jpg,AFNE13.jpg,AFNE12.jpg,FN,3,num_6,32,num_4,0.666822118568,,,2017_May_25_1057,60.012107182,FEMA4ImagesEEG,001,200501,
AFNE01.JPG,AFNE01.JPG,AFNE01.JPG,AFNE01.JPG,AFNE01.JPG,AFNE01.JPG,0,6,6,5,,,,,,,,,,,,,,,,,,,,,,,AFSA14.jpg,AFNE17.jpg,AFNE05.jpg,AFSA11.jpg,AFSA11.jpg,FS,4,num_4,32,num_8,0.716764529818,,,2017_May_25_1057,60.012107182,FEMA4ImagesEEG,001,200501,
AFNE01.JPG,AFNE01.JPG,AFNE01.JPG,AFNE01.JPG,AFNE01.JPG,AFNE01.JPG,0,7,7,0,,,,,,,,,,,,,,,,,,,,,,,AFSA08.jpg,AFNE16.jpg,AFSA01.jpg,AFNE15.jpg,AFSA08.jpg,FS,4,num_8,32,num_6,0.700074507855,,,2017_May_25_1057,60.012107182,FEMA4ImagesEEG,001,200501,
AFNE01.JPG,AFNE01.JPG,AFNE01.JPG,AFNE01.JPG,AFNE01.JPG,AFNE01.JPG,0,8,8,1,,,,,,,,,,,,,,,,,,,,,,,AFSA10.jpg,AFNE13.jpg,AFSA07.jpg,AFNE17.jpg,AFNE13.jpg,FN,3,num_6,32,num_2,3.14992954955,,,2017_May_25_1057,60.012107182,FEMA4ImagesEEG,001,200501,
AFNE01.JPG,AFNE01.JPG,AFNE01.JPG,AFNE01.JPG,AFNE01.JPG,AFNE01.JPG,0,9,9,9,,,,,,,,,,,,,,,,,,,,,,,AFNE08.jpg,AFSA19.jpg,AFNE12.jpg,AFSA16.jpg,AFNE12.jpg,FN,3,num_2,32,num_4,0.583476570435,,,2017_May_25_1057,60.012107182,FEMA4ImagesEEG,001,200501,
AFNE01.JPG,AFNE01.JPG,AFNE01.JPG,AFNE01.JPG,AFNE01.JPG,AFNE01.JPG,1,0,10,9,,,,,,,,,,,,,,,,,,,,,,,AFNE19.jpg,AFNE10.jpg,AFSA04.jpg,AFSA08.jpg,AFNE10.jpg,FN,3,num_6,16,num_6,0.450184441521,,,2017_May_25_1057,60.012107182,FEMA4ImagesEEG,001,200501,
AFNE01.JPG,AFNE01.JPG,AFNE01.JPG,AFNE01.JPG,AFNE01.JPG,AFNE01.JPG,1,1,11,0,,,,,,,,,,,,,,,,,,,,,,,AFSA11.jpg,AFNE09.jpg,AFNE20.jpg,AFSA05.jpg,AFSA05.jpg,FS,4,num_4,32,num_2,0.966791552026,,,2017_May_25_1057,60.012107182,FEMA4ImagesEEG,001,200501,
AFNE01.JPG,AFNE01.JPG,AFNE01.JPG,AFNE01.JPG,AFNE01.JPG,AFNE01.JPG,1,2,12,4,,,,,,,,,,,,,,,,,,,,,,,AFNE01.jpg,AFSA03.jpg,AFNE15.jpg,AFSA05.jpg,AFNE01.jpg,FN,3,num_8,16,num_8,2.33334979799,,,2017_May_25_1057,60.012107182,FEMA4ImagesEEG,001,200501,
AFNE01.JPG,AFNE01.JPG,AFNE01.JPG,AFNE01.JPG,AFNE01.JPG,AFNE01.JPG,1,3,13,2,,,,,,,,,,,,,,,,,,,,,,,AFNE07.jpg,AFSA18.jpg,AFNE15.jpg,AFSA16.jpg,AFNE15.jpg,FN,3,num_2,32,num_8,2.05009732849,,,2017_May_25_1057,60.012107182,FEMA4ImagesEEG,001,200501,
AFNE01.JPG,AFNE01.JPG,AFNE01.JPG,AFNE01.JPG,AFNE01.JPG,AFNE01.JPG,1,4,14,1,,,,,,,,,,,,,,,,,,,,,,,AFNE08.jpg,AFSA06.jpg,AFNE09.jpg,AFSA08.jpg,AFNE09.jpg,FN,3,num_2,32,num_4,0.633465809631,,,2017_May_25_1057,60.012107182,FEMA4ImagesEEG,001,200501,
AFNE01.JPG,AFNE01.JPG,AFNE01.JPG,AFNE01.JPG,AFNE01.JPG,AFNE01.JPG,1,5,15,7,,,,,,,,,,,,,,,,,,,,,,,AFNE17.jpg,AFSA03.jpg,AFSA06.jpg,AFNE02.jpg,AFSA06.jpg,FS,4,num_2,32,num_8,0.600152158993,,,2017_May_25_1057,60.012107182,FEMA4ImagesEEG,001,200501,
AFNE01.JPG,AFNE01.JPG,AFNE01.JPG,AFNE01.JPG,AFNE01.JPG,AFNE01.JPG,1,6,16,5,,,,,,,,,,,,,,,,,,,,,,,AFNE14.jpg,AFSA18.jpg,AFSA19.jpg,AFNE11.jpg,AFSA19.jpg,FS,4,num_2,32,num_6,0.550157467253,,,2017_May_25_1057,60.012107182,FEMA4ImagesEEG,001,200501,
AFNE01.JPG,AFNE01.JPG,AFNE01.JPG,AFNE01.JPG,AFNE01.JPG,AFNE01.JPG,1,7,17,3,,,,,,,,,,,,,,,,,,,,,,,AFSA05.jpg,AFSA20.jpg,AFNE08.jpg,AFNE07.jpg,AFNE08.jpg,FN,3,num_2,32,num_6,0.400178844575,,,2017_May_25_1057,60.012107182,FEMA4ImagesEEG,001,200501,
AFNE01.JPG,AFNE01.JPG,AFNE01.JPG,AFNE01.JPG,AFNE01.JPG,AFNE01.JPG,1,8,18,6,,,,,,,,,,,,,,,,,,,,,,,AFSA04.jpg,AFSA09.jpg,AFNE16.jpg,AFNE10.jpg,AFSA04.jpg,FS,4,num_8,16,num_8,0.816750064492,,,2017_May_25_1057,60.012107182,FEMA4ImagesEEG,001,200501,
AFNE01.JPG,AFNE01.JPG,AFNE01.JPG,AFNE01.JPG,AFNE01.JPG,AFNE01.JPG,1,9,19,8,,,,,,,,,,,,,,,,,,,,,,,AFSA11.jpg,AFSA20.jpg,AFNE17.jpg,AFNE20.jpg,AFSA11.jpg,FS,4,num_8,32,num_6,1.10010068025,,,2017_May_25_1057,60.012107182,FEMA4ImagesEEG,001,200501,
AFNE01.JPG,AFNE01.JPG,AFNE01.JPG,AFNE01.JPG,AFNE01.JPG,AFNE01.JPG,2,0,20,0,,,,,,,,,,,,,,,,,,,,,,,AFNE11.jpg,AFSA20.jpg,AFNE03.jpg,AFSA07.jpg,AFNE03.jpg,FN,3,num_2,32,num_4,0.833538874169,,,2017_May_25_1057,60.012107182,FEMA4ImagesEEG,001,200501,
AFNE01.JPG,AFNE01.JPG,AFNE01.JPG,AFNE01.JPG,AFNE01.JPG,AFNE01.JPG,2,1,21,4,,,,,,,,,,,,,,,,,,,,,,,AFNE17.jpg,AFNE12.jpg,AFSA04.jpg,AFSA10.jpg,AFNE12.jpg,FN,3,num_6,32,num_8,0.566838508472,,,2017_May_25_1057,60.012107182,FEMA4ImagesEEG,001,200501,
AFNE01.JPG,AFNE01.JPG,AFNE01.JPG,AFNE01.JPG,AFNE01.JPG,AFNE01.JPG,2,2,22,5,,,,,,,,,,,,,,,,,,,,,,,AFSA04.jpg,AFNE17.jpg,AFNE18.jpg,AFSA05.jpg,AFNE18.jpg,FN,3,num_2,32,num_8,0.55014014733,,,2017_May_25_1057,60.012107182,FEMA4ImagesEEG,001,200501,
AFNE01.JPG,AFNE01.JPG,AFNE01.JPG,AFNE01.JPG,AFNE01.JPG,AFNE01.JPG,2,3,23,8,,,,,,,,,,,,,,,,,,,,,,,AFSA05.jpg,AFNE14.jpg,AFNE20.jpg,AFSA15.jpg,AFNE14.jpg,FN,3,num_6,32,num_8,0.433567869128,,,2017_May_25_1057,60.012107182,FEMA4ImagesEEG,001,200501,
AFNE01.JPG,AFNE01.JPG,AFNE01.JPG,AFNE01.JPG,AFNE01.JPG,AFNE01.JPG,2,4,24,7,,,,,,,,,,,,,,,,,,,,,,,AFSA10.jpg,AFNE02.jpg,AFNE07.jpg,AFSA20.jpg,AFSA10.jpg,FS,4,num_8,16,num_8,1.40017627866,,,2017_May_25_1057,60.012107182,FEMA4ImagesEEG,001,200501,
AFNE01.JPG,AFNE01.JPG,AFNE01.JPG,AFNE01.JPG,AFNE01.JPG,AFNE01.JPG,2,5,25,3,,,,,,,,,,,,,,,,,,,,,,,AFNE04.jpg,AFNE03.jpg,AFSA20.jpg,AFSA17.jpg,AFSA20.jpg,FS,4,num_2,32,num_8,1.26672891167,,,2017_May_25_1057,60.012107182,FEMA4ImagesEEG,001,200501,
AFNE01.JPG,AFNE01.JPG,AFNE01.JPG,AFNE01.JPG,AFNE01.JPG,AFNE01.JPG,2,6,26,6,,,,,,,,,,,,,,,,,,,,,,,AFSA06.jpg,AFSA11.jpg,AFNE06.jpg,AFNE13.jpg,AFSA11.jpg,FS,4,num_6,32,num_8,0.466602155124,,,2017_May_25_1057,60.012107182,FEMA4ImagesEEG,001,200501,
AFNE01.JPG,AFNE01.JPG,AFNE01.JPG,AFNE01.JPG,AFNE01.JPG,AFNE01.JPG,2,7,27,2,,,,,,,,,,,,,,,,,,,,,,,AFSA04.jpg,AFSA13.jpg,AFNE08.jpg,AFNE17.jpg,AFNE17.jpg,FN,3,num_4,32,num_8,0.700126467738,,,2017_May_25_1057,60.012107182,FEMA4ImagesEEG,001,200501,
AFNE01.JPG,AFNE01.JPG,AFNE01.JPG,AFNE01.JPG,AFNE01.JPG,AFNE01.JPG,2,8,28,9,,,,,,,,,,,,,,,,,,,,,,,AFNE09.jpg,AFNE02.jpg,AFSA07.jpg,AFSA06.jpg,AFSA06.jpg,FS,4,num_4,32,num_8,0.550186975277,,,2017_May_25_1057,60.012107182,FEMA4ImagesEEG,001,200501,
AFNE01.JPG,AFNE01.JPG,AFNE01.JPG,AFNE01.JPG,AFNE01.JPG,AFNE01.JPG,2,9,29,1,,,,,,,,,,,,,,,,,,,,,,,AFNE13.jpg,AFSA19.jpg,AFSA09.jpg,AFNE08.jpg,AFSA09.jpg,FS,4,num_2,32,num_8,0.450159744476,,,2017_May_25_1057,60.012107182,FEMA4ImagesEEG,001,200501,
AFNE01.JPG,AFNE01.JPG,AFNE01.JPG,AFNE01.JPG,AFNE01.JPG,AFNE01.JPG,3,0,30,4,,,,,,,,,,,,,,,,,,,,,,,AFSA15.jpg,AFNE15.jpg,AFSA11.jpg,AFNE06.jpg,AFSA11.jpg,FS,4,num_2,32,num_8,0.483510600985,,,2017_May_25_1057,60.012107182,FEMA4ImagesEEG,001,200501,
AFNE01.JPG,AFNE01.JPG,AFNE01.JPG,AFNE01.JPG,AFNE01.JPG,AFNE01.JPG,3,1,31,2,,,,,,,,,,,,,,,,,,,,,,,AFSA06.jpg,AFSA16.jpg,AFNE15.jpg,AFNE04.jpg,AFSA06.jpg,FS,4,num_8,16,num_8,0.516764593893,,,2017_May_25_1057,60.012107182,FEMA4ImagesEEG,001,200501,
AFNE01.JPG,AFNE01.JPG,AFNE01.JPG,AFNE01.JPG,AFNE01.JPG,AFNE01.JPG,3,2,32,8,,,,,,,,,,,,,,,,,,,,,,,AFNE19.jpg,AFSA15.jpg,AFSA03.jpg,AFNE02.jpg,AFNE02.jpg,FN,3,num_4,32,num_6,0.266770928516,,,2017_May_25_1057,60.012107182,FEMA4ImagesEEG,001,200501,
AFNE01.JPG,AFNE01.JPG,AFNE01.JPG,AFNE01.JPG,AFNE01.JPG,AFNE01.JPG,3,3,33,3,,,,,,,,,,,,,,,,,,,,,,,AFNE13.jpg,AFNE14.jpg,AFSA03.jpg,AFSA06.jpg,AFNE14.jpg,FN,3,num_6,32,num_2,0.383497482748,,,2017_May_25_1057,60.012107182,FEMA4ImagesEEG,001,200501,
AFNE01.JPG,AFNE01.JPG,AFNE01.JPG,AFNE01.JPG,AFNE01.JPG,AFNE01.JPG,3,4,34,1,,,,,,,,,,,,,,,,,,,,,,,AFSA16.jpg,AFSA03.jpg,AFNE14.jpg,AFNE05.jpg,AFNE14.jpg,FN,3,num_2,32,num_4,0.316841314896,,,2017_May_25_1057,60.012107182,FEMA4ImagesEEG,001,200501,
AFNE01.JPG,AFNE01.JPG,AFNE01.JPG,AFNE01.JPG,AFNE01.JPG,AFNE01.JPG,3,5,35,6,,,,,,,,,,,,,,,,,,,,,,,AFNE18.jpg,AFSA13.jpg,AFNE09.jpg,AFSA17.jpg,AFSA17.jpg,FS,4,num_4,16,num_4,1.18339523079,,,2017_May_25_1057,60.012107182,FEMA4ImagesEEG,001,200501,
AFNE01.JPG,AFNE01.JPG,AFNE01.JPG,AFNE01.JPG,AFNE01.JPG,AFNE01.JPG,3,6,36,5,,,,,,,,,,,,,,,,,,,,,,,AFNE09.jpg,AFSA05.jpg,AFSA18.jpg,AFNE12.jpg,AFSA18.jpg,FS,4,num_2,16,num_2,1.08344209089,,,2017_May_25_1057,60.012107182,FEMA4ImagesEEG,001,200501,
AFNE01.JPG,AFNE01.JPG,AFNE01.JPG,AFNE01.JPG,AFNE01.JPG,AFNE01.JPG,3,7,37,9,,,,,,,,,,,,,,,,,,,,,,,AFNE17.jpg,AFSA15.jpg,AFSA07.jpg,AFNE03.jpg,AFNE17.jpg,FN,3,num_8,16,num_8,0.733701521414,,,2017_May_25_1057,60.012107182,FEMA4ImagesEEG,001,200501,
AFNE01.JPG,AFNE01.JPG,AFNE01.JPG,AFNE01.JPG,AFNE01.JPG,AFNE01.JPG,3,8,38,0,,,,,,,,,,,,,,,,,,,,,,,AFSA13.jpg,AFNE02.jpg,AFNE10.jpg,AFSA06.jpg,AFNE02.jpg,FN,3,num_6,16,num_6,0.966821380891,,,2017_May_25_1057,60.012107182,FEMA4ImagesEEG,001,200501,
AFNE01.JPG,AFNE01.JPG,AFNE01.JPG,AFNE01.JPG,AFNE01.JPG,AFNE01.JPG,3,9,39,7,,,,,,,,,,,,,,,,,,,,,,,AFNE15.jpg,AFNE16.jpg,AFSA02.jpg,AFSA01.jpg,AFSA01.jpg,FS,4,num_4,32,num_6,0.583444817108,,,2017_May_25_1057,60.012107182,FEMA4ImagesEEG,001,200501,
AFNE01.JPG,AFNE01.JPG,AFNE01.JPG,AFNE01.JPG,AFNE01.JPG,AFNE01.JPG,4,0,40,9,,,,,,,,,,,,,,,,,,,,,,,AFNE04.jpg,AFSA03.jpg,AFNE13.jpg,AFSA13.jpg,AFNE13.jpg,FN,3,num_2,32,num_6,0.550139185041,,,2017_May_25_1057,60.012107182,FEMA4ImagesEEG,001,200501,
AFNE01.JPG,AFNE01.JPG,AFNE01.JPG,AFNE01.JPG,AFNE01.JPG,AFNE01.JPG,4,1,41,8,,,,,,,,,,,,,,,,,,,,,,,AFNE15.jpg,AFSA11.jpg,AFSA19.jpg,AFNE13.jpg,AFNE15.jpg,FN,3,num_8,32,num_6,0.450174498488,,,2017_May_25_1057,60.012107182,FEMA4ImagesEEG,001,200501,
AFNE01.JPG,AFNE01.JPG,AFNE01.JPG,AFNE01.JPG,AFNE01.JPG,AFNE01.JPG,4,2,42,0,,,,,,,,,,,,,,,,,,,,,,,AFSA06.jpg,AFNE01.jpg,AFNE06.jpg,AFSA02.jpg,AFNE01.jpg,FN,3,num_6,16,num_6,0.483480130672,,,2017_May_25_1057,60.012107182,FEMA4ImagesEEG,001,200501,
AFNE01.JPG,AFNE01.JPG,AFNE01.JPG,AFNE01.JPG,AFNE01.JPG,AFNE01.JPG,4,3,43,7,,,,,,,,,,,,,,,,,,,,,,,AFNE03.jpg,AFNE18.jpg,AFSA05.jpg,AFSA18.jpg,AFNE18.jpg,FN,3,num_6,16,num_6,0.400140034966,,,2017_May_25_1057,60.012107182,FEMA4ImagesEEG,001,200501,
AFNE01.JPG,AFNE01.JPG,AFNE01.JPG,AFNE01.JPG,AFNE01.JPG,AFNE01.JPG,4,4,44,6,,,,,,,,,,,,,,,,,,,,,,,AFNE08.jpg,AFSA16.jpg,AFNE20.jpg,AFSA06.jpg,AFSA16.jpg,FS,4,num_6,16,num_6,0.50016854878,,,2017_May_25_1057,60.012107182,FEMA4ImagesEEG,001,200501,
AFNE01.JPG,AFNE01.JPG,AFNE01.JPG,AFNE01.JPG,AFNE01.JPG,AFNE01.JPG,4,5,45,1,,,,,,,,,,,,,,,,,,,,,,,AFNE19.jpg,AFSA09.jpg,AFNE02.jpg,AFSA03.jpg,AFNE19.jpg,FN,3,num_8,32,num_6,0.600132273161,,,2017_May_25_1057,60.012107182,FEMA4ImagesEEG,001,200501,
AFNE01.JPG,AFNE01.JPG,AFNE01.JPG,AFNE01.JPG,AFNE01.JPG,AFNE01.JPG,4,6,46,5,,,,,,,,,,,,,,,,,,,,,,,AFNE09.jpg,AFSA16.jpg,AFSA14.jpg,AFNE19.jpg,AFSA14.jpg,FS,4,num_2,32,num_4,1.03343745624,,,2017_May_25_1057,60.012107182,FEMA4ImagesEEG,001,200501,
AFNE01.JPG,AFNE01.JPG,AFNE01.JPG,AFNE01.JPG,AFNE01.JPG,AFNE01.JPG,4,7,47,3,,,,,,,,,,,,,,,,,,,,,,,AFNE09.jpg,AFSA10.jpg,AFSA09.jpg,AFNE15.jpg,AFSA09.jpg,FS,4,num_2,32,num_8,0.700108185527,,,2017_May_25_1057,60.012107182,FEMA4ImagesEEG,001,200501,
AFNE01.JPG,AFNE01.JPG,AFNE01.JPG,AFNE01.JPG,AFNE01.JPG,AFNE01.JPG,4,8,48,2,,,,,,,,,,,,,,,,,,,,,,,AFSA06.jpg,AFSA02.jpg,AFNE12.jpg,AFNE20.jpg,AFNE12.jpg,FN,3,num_2,32,num_8,1.65007757093,,,2017_May_25_1057,60.012107182,FEMA4ImagesEEG,001,200501,
AFNE01.JPG,AFNE01.JPG,AFNE01.JPG,AFNE01.JPG,AFNE01.JPG,AFNE01.JPG,4,9,49,4,,,,,,,,,,,,,,,,,,,,,,,AFNE17.jpg,AFNE13.jpg,AFSA14.jpg,AFSA16.jpg,AFSA16.jpg,FS,4,num_4,32,num_8,0.466799730901,,,2017_May_25_1057,60.012107182,FEMA4ImagesEEG,001,200501,
AFNE01.JPG,AFNE01.JPG,AFNE01.JPG,AFNE01.JPG,AFNE01.JPG,AFNE01.JPG,5,0,50,7,,,,,,,,,,,,,,,,,,,,,,,AFSA11.jpg,AFSA07.jpg,AFNE13.jpg,AFNE01.jpg,AFNE13.jpg,FN,3,num_2,16,num_2,0.916800709325,,,2017_May_25_1057,60.012107182,FEMA4ImagesEEG,001,200501,
AFNE01.JPG,AFNE01.JPG,AFNE01.JPG,AFNE01.JPG,AFNE01.JPG,AFNE01.JPG,5,1,51,0,,,,,,,,,,,,,,,,,,,,,,,AFNE09.jpg,AFNE04.jpg,AFSA09.jpg,AFSA17.jpg,AFNE04.jpg,FN,3,num_6,32,num_8,0.616786692874,,,2017_May_25_1057,60.012107182,FEMA4ImagesEEG,001,200501,
AFNE01.JPG,AFNE01.JPG,AFNE01.JPG,AFNE01.JPG,AFNE01.JPG,AFNE01.JPG,5,2,52,8,,,,,,,,,,,,,,,,,,,,,,,AFNE05.jpg,AFSA01.jpg,AFNE18.jpg,AFSA18.jpg,AFNE18.jpg,FN,3,num_2,32,num_6,0.450147556374,,,2017_May_25_1057,60.012107182,FEMA4ImagesEEG,001,200501,
AFNE01.JPG,AFNE01.JPG,AFNE01.JPG,AFNE01.JPG,AFNE01.JPG,AFNE01.JPG,5,3,53,4,,,,,,,,,,,,,,,,,,,,,,,AFSA15.jpg,AFSA07.jpg,AFNE16.jpg,AFNE18.jpg,AFSA07.jpg,FS,4,num_6,32,num_2,0.733456796734,,,2017_May_25_1057,60.012107182,FEMA4ImagesEEG,001,200501,
AFNE01.JPG,AFNE01.JPG,AFNE01.JPG,AFNE01.JPG,AFNE01.JPG,AFNE01.JPG,5,4,54,3,,,,,,,,,,,,,,,,,,,,,,,AFSA15.jpg,AFNE05.jpg,AFNE13.jpg,AFSA03.jpg,AFSA03.jpg,FS,4,num_4,16,num_4,3.11668261269,,,2017_May_25_1057,60.012107182,FEMA4ImagesEEG,001,200501,
AFNE01.JPG,AFNE01.JPG,AFNE01.JPG,AFNE01.JPG,AFNE01.JPG,AFNE01.JPG,5,5,55,2,,,,,,,,,,,,,,,,,,,,,,,AFNE04.jpg,AFSA18.jpg,AFSA04.jpg,AFNE18.jpg,AFSA18.jpg,FS,4,num_6,32,num_4,0.783454695949,,,2017_May_25_1057,60.012107182,FEMA4ImagesEEG,001,200501,
AFNE01.JPG,AFNE01.JPG,AFNE01.JPG,AFNE01.JPG,AFNE01.JPG,AFNE01.JPG,5,6,56,5,,,,,,,,,,,,,,,,,,,,,,,AFSA05.jpg,AFSA08.jpg,AFNE15.jpg,AFNE11.jpg,AFNE11.jpg,FN,3,num_4,16,num_4,1.03341243847,,,2017_May_25_1057,60.012107182,FEMA4ImagesEEG,001,200501,
AFNE01.JPG,AFNE01.JPG,AFNE01.JPG,AFNE01.JPG,AFNE01.JPG,AFNE01.JPG,5,7,57,9,,,,,,,,,,,,,,,,,,,,,,,AFSA13.jpg,AFNE15.jpg,AFSA14.jpg,AFNE19.jpg,AFNE15.jpg,FN,3,num_6,32,num_4,0.433334691101,,,2017_May_25_1057,60.012107182,FEMA4ImagesEEG,001,200501,
AFNE01.JPG,AFNE01.JPG,AFNE01.JPG,AFNE01.JPG,AFNE01.JPG,AFNE01.JPG,5,8,58,6,,,,,,,,,,,,,,,,,,,,,,,AFNE18.jpg,AFSA15.jpg,AFSA13.jpg,AFNE07.jpg,AFNE18.jpg,FN,3,num_8,32,num_4,0.566818622523,,,2017_May_25_1057,60.012107182,FEMA4ImagesEEG,001,200501,
AFNE01.JPG,AFNE01.JPG,AFNE01.JPG,AFNE01.JPG,AFNE01.JPG,AFNE01.JPG,5,9,59,1,,,,,,,,,,,,,,,,,,,,,,,AFNE05.jpg,AFNE04.jpg,AFSA11.jpg,AFSA16.jpg,AFNE04.jpg,FN,3,num_6,32,num_4,0.533451729221,,,2017_May_25_1057,60.012107182,FEMA4ImagesEEG,001,200501,
,,,,,,,,,,,,,,,,,,,,,,,,,,,,,,,,,,,,,,,,,,,space,3.24993304559,2017_May_25_1057,60.012107182,FEMA4ImagesEEG,001,200501,
AFNE01.JPG,AFNE01.JPG,AFNE01.JPG,AFNE01.JPG,AFNE01.JPG,AFNE01.JPG,,,,,0,0,0,3,,,,,,,,,,,,,,,,,,,AMSA02.jpg,AMNE14.jpg,AMNE10.jpg,AMSA16.jpg,AMNE10.jpg,MN,1,num_2,32,num_4,1.20010064822,,,2017_May_25_1057,60.012107182,FEMA4ImagesEEG,001,200501,
AFNE01.JPG,AFNE01.JPG,AFNE01.JPG,AFNE01.JPG,AFNE01.JPG,AFNE01.JPG,,,,,0,1,1,6,,,,,,,,,,,,,,,,,,,AMNE05.jpg,AMNE09.jpg,AMSA16.jpg,AMSA17.jpg,AMNE09.jpg,MN,1,num_6,16,num_6,0.416785153328,,,2017_May_25_1057,60.012107182,FEMA4ImagesEEG,001,200501,
AFNE01.JPG,AFNE01.JPG,AFNE01.JPG,AFNE01.JPG,AFNE01.JPG,AFNE01.JPG,,,,,0,2,2,8,,,,,,,,,,,,,,,,,,,AMSA07.jpg,AMNE14.jpg,AMNE16.jpg,AMSA19.jpg,AMSA19.jpg,MS,2,num_4,32,num_2,0.516776140546,,,2017_May_25_1057,60.012107182,FEMA4ImagesEEG,001,200501,
AFNE01.JPG,AFNE01.JPG,AFNE01.JPG,AFNE01.JPG,AFNE01.JPG,AFNE01.JPG,,,,,0,3,3,1,,,,,,,,,,,,,,,,,,,AMNE06.jpg,AMSA08.jpg,AMNE10.jpg,AMSA06.jpg,AMNE06.jpg,MN,1,num_8,16,num_8,0.500118192751,,,2017_May_25_1057,60.012107182,FEMA4ImagesEEG,001,200501,
AFNE01.JPG,AFNE01.JPG,AFNE01.JPG,AFNE01.JPG,AFNE01.JPG,AFNE01.JPG,,,,,0,4,4,9,,,,,,,,,,,,,,,,,,,AMNE12.jpg,AMNE10.jpg,AMSA09.jpg,AMSA19.jpg,AMSA19.jpg,MS,2,num_4,32,num_2,0.916627188912,,,2017_May_25_1057,60.012107182,FEMA4ImagesEEG,001,200501,
AFNE01.JPG,AFNE01.JPG,AFNE01.JPG,AFNE01.JPG,AFNE01.JPG,AFNE01.JPG,,,,,0,5,5,4,,,,,,,,,,,,,,,,,,,AMNE14.jpg,AMSA12.jpg,AMNE04.jpg,AMSA11.jpg,AMSA11.jpg,MS,2,num_4,16,num_4,1.91677088034,,,2017_May_25_1057,60.012107182,FEMA4ImagesEEG,001,200501,
AFNE01.JPG,AFNE01.JPG,AFNE01.JPG,AFNE01.JPG,AFNE01.JPG,AFNE01.JPG,,,,,0,6,6,5,,,,,,,,,,,,,,,,,,,AMNE08.jpg,AMNE01.jpg,AMSA19.jpg,AMSA17.jpg,AMNE08.jpg,MN,1,num_8,16,num_8,0.633469658555,,,2017_May_25_1057,60.012107182,FEMA4ImagesEEG,001,200501,
AFNE01.JPG,AFNE01.JPG,AFNE01.JPG,AFNE01.JPG,AFNE01.JPG,AFNE01.JPG,,,,,0,7,7,2,,,,,,,,,,,,,,,,,,,AMNE06.jpg,AMSA06.jpg,AMNE01.jpg,AMSA03.jpg,AMNE06.jpg,MN,1,num_8,32,num_6,0.41683679237,,,2017_May_25_1057,60.012107182,FEMA4ImagesEEG,001,200501,
AFNE01.JPG,AFNE01.JPG,AFNE01.JPG,AFNE01.JPG,AFNE01.JPG,AFNE01.JPG,,,,,0,8,8,0,,,,,,,,,,,,,,,,,,,AMNE04.jpg,AMNE02.jpg,AMSA16.jpg,AMSA01.jpg,AMSA01.jpg,MS,2,num_4,32,num_2,0.86679415009,,,2017_May_25_1057,60.012107182,FEMA4ImagesEEG,001,200501,
AFNE01.JPG,AFNE01.JPG,AFNE01.JPG,AFNE01.JPG,AFNE01.JPG,AFNE01.JPG,,,,,0,9,9,7,,,,,,,,,,,,,,,,,,,AMNE12.jpg,AMNE05.jpg,AMSA02.jpg,AMSA17.jpg,AMSA17.jpg,MS,2,num_4,32,num_8,3.88323207037,,,2017_May_25_1057,60.012107182,FEMA4ImagesEEG,001,200501,
AFNE01.JPG,AFNE01.JPG,AFNE01.JPG,AFNE01.JPG,AFNE01.JPG,AFNE01.JPG,,,,,1,0,10,3,,,,,,,,,,,,,,,,,,,AMNE08.jpg,AMSA15.jpg,AMSA10.jpg,AMNE18.jpg,AMSA10.jpg,MS,2,num_2,32,num_6,0.550021152827,,,2017_May_25_1057,60.012107182,FEMA4ImagesEEG,001,200501,
AFNE01.JPG,AFNE01.JPG,AFNE01.JPG,AFNE01.JPG,AFNE01.JPG,AFNE01.JPG,,,,,1,1,11,9,,,,,,,,,,,,,,,,,,,AMSA14.jpg,AMNE13.jpg,AMNE06.jpg,AMSA10.jpg,AMSA14.jpg,MS,2,num_8,32,num_6,1.21673646499,,,2017_May_25_1057,60.012107182,FEMA4ImagesEEG,001,200501,
AFNE01.JPG,AFNE01.JPG,AFNE01.JPG,AFNE01.JPG,AFNE01.JPG,AFNE01.JPG,,,,,1,2,12,1,,,,,,,,,,,,,,,,,,,AMSA09.jpg,AMNE09.jpg,AMSA04.jpg,AMNE11.jpg,AMSA04.jpg,MS,2,num_2,32,num_6,0.383513519657,,,2017_May_25_1057,60.012107182,FEMA4ImagesEEG,001,200501,
AFNE01.JPG,AFNE01.JPG,AFNE01.JPG,AFNE01.JPG,AFNE01.JPG,AFNE01.JPG,,,,,1,3,13,5,,,,,,,,,,,,,,,,,,,AMNE16.jpg,AMNE20.jpg,AMSA10.jpg,AMSA12.jpg,AMNE20.jpg,MN,1,num_6,16,num_6,0.750105443178,,,2017_May_25_1057,60.012107182,FEMA4ImagesEEG,001,200501,
AFNE01.JPG,AFNE01.JPG,AFNE01.JPG,AFNE01.JPG,AFNE01.JPG,AFNE01.JPG,,,,,1,4,14,0,,,,,,,,,,,,,,,,,,,AMNE05.jpg,AMSA05.jpg,AMNE09.jpg,AMSA07.jpg,AMSA05.jpg,MS,2,num_6,32,num_2,1.00013952178,,,2017_May_25_1057,60.012107182,FEMA4ImagesEEG,001,200501,
AFNE01.JPG,AFNE01.JPG,AFNE01.JPG,AFNE01.JPG,AFNE01.JPG,AFNE01.JPG,,,,,1,5,15,8,,,,,,,,,,,,,,,,,,,AMNE20.jpg,AMSA15.jpg,AMNE03.jpg,AMSA10.jpg,AMNE03.jpg,MN,1,num_2,32,num_4,0.716863317648,,,2017_May_25_1057,60.012107182,FEMA4ImagesEEG,001,200501,
AFNE01.JPG,AFNE01.JPG,AFNE01.JPG,AFNE01.JPG,AFNE01.JPG,AFNE01.JPG,,,,,1,6,16,2,,,,,,,,,,,,,,,,,,,AMNE16.jpg,AMNE02.jpg,AMSA08.jpg,AMSA05.jpg,AMNE16.jpg,MN,1,num_8,32,num_6,0.483537542983,,,2017_May_25_1057,60.012107182,FEMA4ImagesEEG,001,200501,
AFNE01.JPG,AFNE01.JPG,AFNE01.JPG,AFNE01.JPG,AFNE01.JPG,AFNE01.JPG,,,,,1,7,17,6,,,,,,,,,,,,,,,,,,,AMNE06.jpg,AMNE01.jpg,AMSA18.jpg,AMSA20.jpg,AMSA20.jpg,MS,2,num_4,32,num_6,0.36679655558,,,2017_May_25_1057,60.012107182,FEMA4ImagesEEG,001,200501,
AFNE01.JPG,AFNE01.JPG,AFNE01.JPG,AFNE01.JPG,AFNE01.JPG,AFNE01.JPG,,,,,1,8,18,4,,,,,,,,,,,,,,,,,,,AMSA02.jpg,AMSA18.jpg,AMNE09.jpg,AMNE19.jpg,AMNE09.jpg,MN,1,num_2,32,num_4,0.516836118884,,,2017_May_25_1057,60.012107182,FEMA4ImagesEEG,001,200501,
AFNE01.JPG,AFNE01.JPG,AFNE01.JPG,AFNE01.JPG,AFNE01.JPG,AFNE01.JPG,,,,,1,9,19,7,,,,,,,,,,,,,,,,,,,AMSA12.jpg,AMNE06.jpg,AMNE18.jpg,AMSA15.jpg,AMNE18.jpg,MN,1,num_2,32,num_4,1.33341490815,,,2017_May_25_1057,60.012107182,FEMA4ImagesEEG,001,200501,
AFNE01.JPG,AFNE01.JPG,AFNE01.JPG,AFNE01.JPG,AFNE01.JPG,AFNE01.JPG,,,,,2,0,20,2,,,,,,,,,,,,,,,,,,,AMSA04.jpg,AMNE12.jpg,AMNE10.jpg,AMSA09.jpg,AMSA04.jpg,MS,2,num_8,32,num_6,1.23341526103,,,2017_May_25_1057,60.012107182,FEMA4ImagesEEG,001,200501,
AFNE01.JPG,AFNE01.JPG,AFNE01.JPG,AFNE01.JPG,AFNE01.JPG,AFNE01.JPG,,,,,2,1,21,4,,,,,,,,,,,,,,,,,,,AMNE12.jpg,AMNE04.jpg,AMSA02.jpg,AMSA06.jpg,AMNE12.jpg,MN,1,num_8,32,num_4,1.53342093807,,,2017_May_25_1057,60.012107182,FEMA4ImagesEEG,001,200501,
AFNE01.JPG,AFNE01.JPG,AFNE01.JPG,AFNE01.JPG,AFNE01.JPG,AFNE01.JPG,,,,,2,2,22,0,,,,,,,,,,,,,,,,,,,AMNE09.jpg,AMNE01.jpg,AMSA03.jpg,AMSA12.jpg,AMNE09.jpg,MN,1,num_8,16,num_8,0.516853118083,,,2017_May_25_1057,60.012107182,FEMA4ImagesEEG,001,200501,
AFNE01.JPG,AFNE01.JPG,AFNE01.JPG,AFNE01.JPG,AFNE01.JPG,AFNE01.JPG,,,,,2,3,23,6,,,,,,,,,,,,,,,,,,,AMSA08.jpg,AMSA02.jpg,AMNE20.jpg,AMNE06.jpg,AMNE20.jpg,MN,1,num_2,16,num_2,1.63337792689,,,2017_May_25_1057,60.012107182,FEMA4ImagesEEG,001,200501,
AFNE01.JPG,AFNE01.JPG,AFNE01.JPG,AFNE01.JPG,AFNE01.JPG,AFNE01.JPG,,,,,2,4,24,5,,,,,,,,,,,,,,,,,,,AMNE02.jpg,AMSA07.jpg,AMNE15.jpg,AMSA08.jpg,AMSA07.jpg,MS,2,num_6,32,num_4,0.433508211398,,,2017_May_25_1057,60.012107182,FEMA4ImagesEEG,001,200501,
AFNE01.JPG,AFNE01.JPG,AFNE01.JPG,AFNE01.JPG,AFNE01.JPG,AFNE01.JPG,,,,,2,5,25,1,,,,,,,,,,,,,,,,,,,AMNE18.jpg,AMNE09.jpg,AMSA05.jpg,AMSA11.jpg,AMNE18.jpg,MN,1,num_8,32,num_4,0.600144461263,,,2017_May_25_1057,60.012107182,FEMA4ImagesEEG,001,200501,
AFNE01.JPG,AFNE01.JPG,AFNE01.JPG,AFNE01.JPG,AFNE01.JPG,AFNE01.JPG,,,,,2,6,26,7,,,,,,,,,,,,,,,,,,,AMSA12.jpg,AMNE07.jpg,AMNE06.jpg,AMSA07.jpg,AMSA07.jpg,MS,2,num_4,16,num_4,0.750078501063,,,2017_May_25_1057,60.012107182,FEMA4ImagesEEG,001,200501,
AFNE01.JPG,AFNE01.JPG,AFNE01.JPG,AFNE01.JPG,AFNE01.JPG,AFNE01.JPG,,,,,2,7,27,3,,,,,,,,,,,,,,,,,,,AMNE14.jpg,AMNE08.jpg,AMSA07.jpg,AMSA05.jpg,AMNE08.jpg,MN,1,num_6,16,num_6,0.366808102233,,,2017_May_25_1057,60.012107182,FEMA4ImagesEEG,001,200501,
AFNE01.JPG,AFNE01.JPG,AFNE01.JPG,AFNE01.JPG,AFNE01.JPG,AFNE01.JPG,,,,,2,8,28,8,,,,,,,,,,,,,,,,,,,AMNE12.jpg,AMNE10.jpg,AMSA02.jpg,AMSA10.jpg,AMNE10.jpg,MN,1,num_6,32,num_8,0.666808006004,,,2017_May_25_1057,60.012107182,FEMA4ImagesEEG,001,200501,
AFNE01.JPG,AFNE01.JPG,AFNE01.JPG,AFNE01.JPG,AFNE01.JPG,AFNE01.JPG,,,,,2,9,29,9,,,,,,,,,,,,,,,,,,,AMSA10.jpg,AMSA09.jpg,AMNE20.jpg,AMNE06.jpg,AMNE20.jpg,MN,1,num_2,32,num_8,0.150187424384,,,2017_May_25_1057,60.012107182,FEMA4ImagesEEG,001,200501,
AFNE01.JPG,AFNE01.JPG,AFNE01.JPG,AFNE01.JPG,AFNE01.JPG,AFNE01.JPG,,,,,3,0,30,1,,,,,,,,,,,,,,,,,,,AMSA10.jpg,AMNE15.jpg,AMSA06.jpg,AMNE01.jpg,AMSA06.jpg,MS,2,num_2,32,num_4,1.13341304788,,,2017_May_25_1057,60.012107182,FEMA4ImagesEEG,001,200501,
AFNE01.JPG,AFNE01.JPG,AFNE01.JPG,AFNE01.JPG,AFNE01.JPG,AFNE01.JPG,,,,,3,1,31,9,,,,,,,,,,,,,,,,,,,AMNE13.jpg,AMSA12.jpg,AMNE20.jpg,AMSA11.jpg,AMSA11.jpg,MS,2,num_4,32,num_6,0.500171114691,,,2017_May_25_1057,60.012107182,FEMA4ImagesEEG,001,200501,
AFNE01.JPG,AFNE01.JPG,AFNE01.JPG,AFNE01.JPG,AFNE01.JPG,AFNE01.JPG,,,,,3,2,32,7,,,,,,,,,,,,,,,,,,,AMNE11.jpg,AMNE08.jpg,AMSA12.jpg,AMSA11.jpg,AMNE11.jpg,MN,1,num_8,32,num_4,0.633478959906,,,2017_May_25_1057,60.012107182,FEMA4ImagesEEG,001,200501,
AFNE01.JPG,AFNE01.JPG,AFNE01.JPG,AFNE01.JPG,AFNE01.JPG,AFNE01.JPG,,,,,3,3,33,2,,,,,,,,,,,,,,,,,,,AMSA06.jpg,AMNE08.jpg,AMSA14.jpg,AMNE04.jpg,AMSA06.jpg,MS,2,num_8,32,num_6,0.550229954417,,,2017_May_25_1057,60.012107182,FEMA4ImagesEEG,001,200501,
AFNE01.JPG,AFNE01.JPG,AFNE01.JPG,AFNE01.JPG,AFNE01.JPG,AFNE01.JPG,,,,,3,4,34,4,,,,,,,,,,,,,,,,,,,AMNE05.jpg,AMSA20.jpg,AMNE20.jpg,AMSA04.jpg,AMSA20.jpg,MS,2,num_6,32,num_2,1.13343133009,,,2017_May_25_1057,60.012107182,FEMA4ImagesEEG,001,200501,
AFNE01.JPG,AFNE01.JPG,AFNE01.JPG,AFNE01.JPG,AFNE01.JPG,AFNE01.JPG,,,,,3,5,35,5,,,,,,,,,,,,,,,,,,,AMSA09.jpg,AMNE01.jpg,AMNE12.jpg,AMSA19.jpg,AMNE01.jpg,MN,1,num_6,32,num_8,0.633467734093,,,2017_May_25_1057,60.012107182,FEMA4ImagesEEG,001,200501,
AFNE01.JPG,AFNE01.JPG,AFNE01.JPG,AFNE01.JPG,AFNE01.JPG,AFNE01.JPG,,,,,3,6,36,0,,,,,,,,,,,,,,,,,,,AMNE02.jpg,AMSA09.jpg,AMSA08.jpg,AMNE03.jpg,AMNE03.jpg,MN,1,num_4,16,num_4,0.683444143622,,,2017_May_25_1057,60.012107182,FEMA4ImagesEEG,001,200501,
AFNE01.JPG,AFNE01.JPG,AFNE01.JPG,AFNE01.JPG,AFNE01.JPG,AFNE01.JPG,,,,,3,7,37,8,,,,,,,,,,,,,,,,,,,AMSA08.jpg,AMNE02.jpg,AMNE01.jpg,AMSA14.jpg,AMSA14.jpg,MS,2,num_4,32,num_6,0.583461174974,,,2017_May_25_1057,60.012107182,FEMA4ImagesEEG,001,200501,
AFNE01.JPG,AFNE01.JPG,AFNE01.JPG,AFNE01.JPG,AFNE01.JPG,AFNE01.JPG,,,,,3,8,38,6,,,,,,,,,,,,,,,,,,,AMNE02.jpg,AMSA04.jpg,AMNE11.jpg,AMSA18.jpg,AMNE11.jpg,MN,1,num_2,32,num_8,0.550116412458,,,2017_May_25_1057,60.012107182,FEMA4ImagesEEG,001,200501,
AFNE01.JPG,AFNE01.JPG,AFNE01.JPG,AFNE01.JPG,AFNE01.JPG,AFNE01.JPG,,,,,3,9,39,3,,,,,,,,,,,,,,,,,,,AMNE13.jpg,AMNE15.jpg,AMSA10.jpg,AMSA08.jpg,AMNE13.jpg,MN,1,num_8,32,num_4,1.20013175998,,,2017_May_25_1057,60.012107182,FEMA4ImagesEEG,001,200501,
AFNE01.JPG,AFNE01.JPG,AFNE01.JPG,AFNE01.JPG,AFNE01.JPG,AFNE01.JPG,,,,,4,0,40,3,,,,,,,,,,,,,,,,,,,AMNE20.jpg,AMSA02.jpg,AMNE17.jpg,AMSA07.jpg,AMSA02.jpg,MS,2,num_6,32,num_4,1.53340746707,,,2017_May_25_1057,60.012107182,FEMA4ImagesEEG,001,200501,
AFNE01.JPG,AFNE01.JPG,AFNE01.JPG,AFNE01.JPG,AFNE01.JPG,AFNE01.JPG,,,,,4,1,41,0,,,,,,,,,,,,,,,,,,,AMNE18.jpg,AMSA06.jpg,AMNE06.jpg,AMSA10.jpg,AMSA06.jpg,MS,2,num_6,32,num_4,0.583428138634,,,2017_May_25_1057,60.012107182,FEMA4ImagesEEG,001,200501,
AFNE01.JPG,AFNE01.JPG,AFNE01.JPG,AFNE01.JPG,AFNE01.JPG,AFNE01.JPG,,,,,4,2,42,5,,,,,,,,,,,,,,,,,,,AMSA14.jpg,AMNE12.jpg,AMSA04.jpg,AMNE11.jpg,AMNE11.jpg,MN,1,num_4,32,num_6,0.583441930474,,,2017_May_25_1057,60.012107182,FEMA4ImagesEEG,001,200501,
AFNE01.JPG,AFNE01.JPG,AFNE01.JPG,AFNE01.JPG,AFNE01.JPG,AFNE01.JPG,,,,,4,3,43,2,,,,,,,,,,,,,,,,,,,AMSA14.jpg,AMNE06.jpg,AMSA12.jpg,AMNE03.jpg,AMNE03.jpg,MN,1,num_4,32,num_2,0.933467637864,,,2017_May_25_1057,60.012107182,FEMA4ImagesEEG,001,200501,
AFNE01.JPG,AFNE01.JPG,AFNE01.JPG,AFNE01.JPG,AFNE01.JPG,AFNE01.JPG,,,,,4,4,44,6,,,,,,,,,,,,,,,,,,,AMSA02.jpg,AMNE06.jpg,AMNE18.jpg,AMSA09.jpg,AMNE06.jpg,MN,1,num_6,32,num_4,0.78345982777,,,2017_May_25_1057,60.012107182,FEMA4ImagesEEG,001,200501,
AFNE01.JPG,AFNE01.JPG,AFNE01.JPG,AFNE01.JPG,AFNE01.JPG,AFNE01.JPG,,,,,4,5,45,8,,,,,,,,,,,,,,,,,,,AMNE10.jpg,AMSA04.jpg,AMSA13.jpg,AMNE13.jpg,AMNE13.jpg,MN,1,num_4,16,num_4,0.600456862012,,,2017_May_25_1057,60.012107182,FEMA4ImagesEEG,001,200501,
AFNE01.JPG,AFNE01.JPG,AFNE01.JPG,AFNE01.JPG,AFNE01.JPG,AFNE01.JPG,,,,,4,6,46,7,,,,,,,,,,,,,,,,,,,AMNE20.jpg,AMSA03.jpg,AMSA20.jpg,AMNE01.jpg,AMNE20.jpg,MN,1,num_8,32,num_4,0.750135272043,,,2017_May_25_1057,60.012107182,FEMA4ImagesEEG,001,200501,
AFNE01.JPG,AFNE01.JPG,AFNE01.JPG,AFNE01.JPG,AFNE01.JPG,AFNE01.JPG,,,,,4,7,47,1,,,,,,,,,,,,,,,,,,,AMNE15.jpg,AMNE20.jpg,AMSA11.jpg,AMSA08.jpg,AMSA11.jpg,MS,2,num_2,32,num_4,0.533468728303,,,2017_May_25_1057,60.012107182,FEMA4ImagesEEG,001,200501,
AFNE01.JPG,AFNE01.JPG,AFNE01.JPG,AFNE01.JPG,AFNE01.JPG,AFNE01.JPG,,,,,4,8,48,9,,,,,,,,,,,,,,,,,,,AMSA10.jpg,AMNE07.jpg,AMNE19.jpg,AMSA07.jpg,AMNE19.jpg,MN,1,num_2,32,num_4,1.25006711483,,,2017_May_25_1057,60.012107182,FEMA4ImagesEEG,001,200501,
AFNE01.JPG,AFNE01.JPG,AFNE01.JPG,AFNE01.JPG,AFNE01.JPG,AFNE01.JPG,,,,,4,9,49,4,,,,,,,,,,,,,,,,,,,AMSA12.jpg,AMNE03.jpg,AMNE06.jpg,AMSA09.jpg,AMSA09.jpg,MS,2,num_4,16,num_4,0.750122121768,,,2017_May_25_1057,60.012107182,FEMA4ImagesEEG,001,200501,
AFNE01.JPG,AFNE01.JPG,AFNE01.JPG,AFNE01.JPG,AFNE01.JPG,AFNE01.JPG,,,,,5,0,50,1,,,,,,,,,,,,,,,,,,,AMSA08.jpg,AMSA02.jpg,AMNE10.jpg,AMNE17.jpg,AMNE10.jpg,MN,1,num_2,32,num_4,1.7001283922,,,2017_May_25_1057,60.012107182,FEMA4ImagesEEG,001,200501,
AFNE01.JPG,AFNE01.JPG,AFNE01.JPG,AFNE01.JPG,AFNE01.JPG,AFNE01.JPG,,,,,5,1,51,3,,,,,,,,,,,,,,,,,,,AMNE01.jpg,AMNE16.jpg,AMSA09.jpg,AMSA19.jpg,AMSA09.jpg,MS,2,num_2,32,num_4,0.850162502844,,,2017_May_25_1057,60.012107182,FEMA4ImagesEEG,001,200501,
AFNE01.JPG,AFNE01.JPG,AFNE01.JPG,AFNE01.JPG,AFNE01.JPG,AFNE01.JPG,,,,,5,2,52,9,,,,,,,,,,,,,,,,,,,AMNE15.jpg,AMSA16.jpg,AMSA12.jpg,AMNE11.jpg,AMNE15.jpg,MN,1,num_8,32,num_4,2.20001436921,,,2017_May_25_1057,60.012107182,FEMA4ImagesEEG,001,200501,
AFNE01.JPG,AFNE01.JPG,AFNE01.JPG,AFNE01.JPG,AFNE01.JPG,AFNE01.JPG,,,,,5,3,53,4,,,,,,,,,,,,,,,,,,,AMSA05.jpg,AMNE16.jpg,AMNE04.jpg,AMSA09.jpg,AMSA09.jpg,MS,2,num_4,16,num_4,0.750144573511,,,2017_May_25_1057,60.012107182,FEMA4ImagesEEG,001,200501,
AFNE01.JPG,AFNE01.JPG,AFNE01.JPG,AFNE01.JPG,AFNE01.JPG,AFNE01.JPG,,,,,5,4,54,0,,,,,,,,,,,,,,,,,,,AMNE08.jpg,AMSA06.jpg,AMSA01.jpg,AMNE12.jpg,AMSA06.jpg,MS,2,num_6,32,num_4,0.483451905544,,,2017_May_25_1057,60.012107182,FEMA4ImagesEEG,001,200501,
AFNE01.JPG,AFNE01.JPG,AFNE01.JPG,AFNE01.JPG,AFNE01.JPG,AFNE01.JPG,,,,,5,5,55,6,,,,,,,,,,,,,,,,,,,AMSA15.jpg,AMNE04.jpg,AMNE13.jpg,AMSA09.jpg,AMNE13.jpg,MN,1,num_2,32,num_4,2.41693654261,,,2017_May_25_1057,60.012107182,FEMA4ImagesEEG,001,200501,
AFNE01.JPG,AFNE01.JPG,AFNE01.JPG,AFNE01.JPG,AFNE01.JPG,AFNE01.JPG,,,,,5,6,56,8,,,,,,,,,,,,,,,,,,,AMSA05.jpg,AMNE20.jpg,AMNE13.jpg,AMSA03.jpg,AMNE20.jpg,MN,1,num_6,32,num_4,0.300167329959,,,2017_May_25_1057,60.012107182,FEMA4ImagesEEG,001,200501,
AFNE01.JPG,AFNE01.JPG,AFNE01.JPG,AFNE01.JPG,AFNE01.JPG,AFNE01.JPG,,,,,5,7,57,5,,,,,,,,,,,,,,,,,,,AMNE10.jpg,AMSA04.jpg,AMSA18.jpg,AMNE05.jpg,AMSA04.jpg,MS,2,num_6,32,num_4,2.36663939303,,,2017_May_25_1057,60.012107182,FEMA4ImagesEEG,001,200501,
AFNE01.JPG,AFNE01.JPG,AFNE01.JPG,AFNE01.JPG,AFNE01.JPG,AFNE01.JPG,,,,,5,8,58,2,,,,,,,,,,,,,,,,,,,AMNE04.jpg,AMNE16.jpg,AMSA03.jpg,AMSA12.jpg,AMSA12.jpg,MS,2,num_4,16,num_4,0.366646770155,,,2017_May_25_1057,60.012107182,FEMA4ImagesEEG,001,200501,
AFNE01.JPG,AFNE01.JPG,AFNE01.JPG,AFNE01.JPG,AFNE01.JPG,AFNE01.JPG,,,,,5,9,59,7,,,,,,,,,,,,,,,,,,,AMNE03.jpg,AMNE09.jpg,AMSA08.jpg,AMSA11.jpg,AMNE09.jpg,MN,1,num_6,32,num_4,2.66661620361,,,2017_May_25_1057,60.012107182,FEMA4ImagesEEG,001,200501,
,,,,,,,,,,,,,,,,,,,,,,,,,,,,,,,,,,,,,,,,,,,space,1.13338097394,2017_May_25_1057,60.012107182,FEMA4ImagesEEG,001,200501,
AFNE01.JPG,AFNE01.JPG,AFNE01.JPG,AFNE01.JPG,AFNE01.JPG,AFNE01.JPG,,,,,,,,,0,0,0,6,,,,,,,,,,,,,,,AFNE04.jpg,AFNE15.jpg,AFSA17.jpg,AFSA15.jpg,AFNE04.jpg,FN,3,num_8,32,num_4,0.0335304707987,,,2017_May_25_1057,60.012107182,FEMA4ImagesEEG,001,200501,
AFNE01.JPG,AFNE01.JPG,AFNE01.JPG,AFNE01.JPG,AFNE01.JPG,AFNE01.JPG,,,,,,,,,0,1,1,9,,,,,,,,,,,,,,,AFNE07.jpg,AFNE05.jpg,AFSA20.jpg,AFSA18.jpg,AFNE05.jpg,FN,3,num_6,16,num_6,0.766770126764,,,2017_May_25_1057,60.012107182,FEMA4ImagesEEG,001,200501,
AFNE01.JPG,AFNE01.JPG,AFNE01.JPG,AFNE01.JPG,AFNE01.JPG,AFNE01.JPG,,,,,,,,,0,2,2,7,,,,,,,,,,,,,,,AFNE14.jpg,AFSA17.jpg,AFSA20.jpg,AFNE02.jpg,AFNE14.jpg,FN,3,num_8,32,num_4,0.650108041242,,,2017_May_25_1057,60.012107182,FEMA4ImagesEEG,001,200501,
AFNE01.JPG,AFNE01.JPG,AFNE01.JPG,AFNE01.JPG,AFNE01.JPG,AFNE01.JPG,,,,,,,,,0,3,3,3,,,,,,,,,,,,,,,AFNE18.jpg,AFNE20.jpg,AFSA02.jpg,AFSA20.jpg,AFNE20.jpg,FN,3,num_6,32,num_8,1.15006361878,,,2017_May_25_1057,60.012107182,FEMA4ImagesEEG,001,200501,
AFNE01.JPG,AFNE01.JPG,AFNE01.JPG,AFNE01.JPG,AFNE01.JPG,AFNE01.JPG,,,,,,,,,0,4,4,4,,,,,,,,,,,,,,,AFSA05.jpg,AFNE02.jpg,AFNE01.jpg,AFSA01.jpg,AFSA05.jpg,FS,4,num_8,16,num_8,0.450172894867,,,2017_May_25_1057,60.012107182,FEMA4ImagesEEG,001,200501,
AFNE01.JPG,AFNE01.JPG,AFNE01.JPG,AFNE01.JPG,AFNE01.JPG,AFNE01.JPG,,,,,,,,,0,5,5,2,,,,,,,,,,,,,,,AFSA12.jpg,AFNE10.jpg,AFSA13.jpg,AFNE08.jpg,AFSA13.jpg,FS,4,num_2,32,num_8,0.433493136661,,,2017_May_25_1057,60.012107182,FEMA4ImagesEEG,001,200501,
AFNE01.JPG,AFNE01.JPG,AFNE01.JPG,AFNE01.JPG,AFNE01.JPG,AFNE01.JPG,,,,,,,,,0,6,6,1,,,,,,,,,,,,,,,AFSA03.jpg,AFSA17.jpg,AFNE05.jpg,AFNE20.jpg,AFSA17.jpg,FS,4,num_6,32,num_8,0.500143531128,,,2017_May_25_1057,60.012107182,FEMA4ImagesEEG,001,200501,
AFNE01.JPG,AFNE01.JPG,AFNE01.JPG,AFNE01.JPG,AFNE01.JPG,AFNE01.JPG,,,,,,,,,0,7,7,5,,,,,,,,,,,,,,,AFSA17.jpg,AFSA19.jpg,AFNE13.jpg,AFNE20.jpg,AFSA17.jpg,FS,4,num_8,32,num_6,0.9501259065,,,2017_May_25_1057,60.012107182,FEMA4ImagesEEG,001,200501,
AFNE01.JPG,AFNE01.JPG,AFNE01.JPG,AFNE01.JPG,AFNE01.JPG,AFNE01.JPG,,,,,,,,,0,8,8,8,,,,,,,,,,,,,,,AFNE01.jpg,AFNE11.jpg,AFSA18.jpg,AFSA03.jpg,AFNE11.jpg,FN,3,num_6,16,num_6,1.41669406323,,,2017_May_25_1057,60.012107182,FEMA4ImagesEEG,001,200501,
AFNE01.JPG,AFNE01.JPG,AFNE01.JPG,AFNE01.JPG,AFNE01.JPG,AFNE01.JPG,,,,,,,,,0,9,9,0,,,,,,,,,,,,,,,AFSA04.jpg,AFNE19.jpg,AFNE10.jpg,AFSA19.jpg,AFSA04.jpg,FS,4,num_8,32,num_6,0.500107928994,,,2017_May_25_1057,60.012107182,FEMA4ImagesEEG,001,200501,
AFNE01.JPG,AFNE01.JPG,AFNE01.JPG,AFNE01.JPG,AFNE01.JPG,AFNE01.JPG,,,,,,,,,1,0,10,2,,,,,,,,,,,,,,,AFSA07.jpg,AFSA20.jpg,AFNE14.jpg,AFNE20.jpg,AFSA07.jpg,FS,4,num_8,32,num_6,0.41680247325,,,2017_May_25_1057,60.012107182,FEMA4ImagesEEG,001,200501,
AFNE01.JPG,AFNE01.JPG,AFNE01.JPG,AFNE01.JPG,AFNE01.JPG,AFNE01.JPG,,,,,,,,,1,1,11,8,,,,,,,,,,,,,,,AFNE06.jpg,AFNE12.jpg,AFSA05.jpg,AFSA02.jpg,AFSA05.jpg,FS,4,num_2,32,num_6,0.316799618653,,,2017_May_25_1057,60.012107182,FEMA4ImagesEEG,001,200501,
AFNE01.JPG,AFNE01.JPG,AFNE01.JPG,AFNE01.JPG,AFNE01.JPG,AFNE01.JPG,,,,,,,,,1,2,12,9,,,,,,,,,,,,,,,AFNE13.jpg,AFNE17.jpg,AFSA18.jpg,AFSA10.jpg,AFNE17.jpg,FN,3,num_6,32,num_4,1.1334133686,,,2017_May_25_1057,60.012107182,FEMA4ImagesEEG,001,200501,
AFNE01.JPG,AFNE01.JPG,AFNE01.JPG,AFNE01.JPG,AFNE01.JPG,AFNE01.JPG,,,,,,,,,1,3,13,7,,,,,,,,,,,,,,,AFNE13.jpg,AFSA08.jpg,AFNE17.jpg,AFSA03.jpg,AFNE13.jpg,FN,3,num_8,32,num_4,2.58331876632,,,2017_May_25_1057,60.012107182,FEMA4ImagesEEG,001,200501,
AFNE01.JPG,AFNE01.JPG,AFNE01.JPG,AFNE01.JPG,AFNE01.JPG,AFNE01.JPG,,,,,,,,,1,4,14,3,,,,,,,,,,,,,,,AFNE16.jpg,AFSA11.jpg,AFSA03.jpg,AFNE02.jpg,AFSA11.jpg,FS,4,num_6,32,num_2,0.266824492137,,,2017_May_25_1057,60.012107182,FEMA4ImagesEEG,001,200501,
AFNE01.JPG,AFNE01.JPG,AFNE01.JPG,AFNE01.JPG,AFNE01.JPG,AFNE01.JPG,,,,,,,,,1,5,15,4,,,,,,,,,,,,,,,AFNE05.jpg,AFSA15.jpg,AFNE11.jpg,AFSA02.jpg,AFSA15.jpg,FS,4,num_6,16,num_6,0.583492286736,,,2017_May_25_1057,60.012107182,FEMA4ImagesEEG,001,200501,
AFNE01.JPG,AFNE01.JPG,AFNE01.JPG,AFNE01.JPG,AFNE01.JPG,AFNE01.JPG,,,,,,,,,1,6,16,1,,,,,,,,,,,,,,,AFSA12.jpg,AFSA04.jpg,AFNE20.jpg,AFNE16.jpg,AFNE20.jpg,FN,3,num_2,32,num_4,0.416825887281,,,2017_May_25_1057,60.012107182,FEMA4ImagesEEG,001,200501,
AFNE01.JPG,AFNE01.JPG,AFNE01.JPG,AFNE01.JPG,AFNE01.JPG,AFNE01.JPG,,,,,,,,,1,7,17,0,,,,,,,,,,,,,,,AFSA15.jpg,AFNE07.jpg,AFSA10.jpg,AFNE01.jpg,AFNE01.jpg,FN,3,num_4,16,num_4,1.11673393124,,,2017_May_25_1057,60.012107182,FEMA4ImagesEEG,001,200501,
AFNE01.JPG,AFNE01.JPG,AFNE01.JPG,AFNE01.JPG,AFNE01.JPG,AFNE01.JPG,,,,,,,,,1,8,18,5,,,,,,,,,,,,,,,AFSA15.jpg,AFSA01.jpg,AFNE10.jpg,AFNE03.jpg,AFSA01.jpg,FS,4,num_6,16,num_6,0.550206219661,,,2017_May_25_1057,60.012107182,FEMA4ImagesEEG,001,200501,
AFNE01.JPG,AFNE01.JPG,AFNE01.JPG,AFNE01.JPG,AFNE01.JPG,AFNE01.JPG,,,,,,,,,1,9,19,6,,,,,,,,,,,,,,,AFNE12.jpg,AFSA03.jpg,AFSA01.jpg,AFNE01.jpg,AFSA03.jpg,FS,4,num_6,32,num_8,0.483491677209,,,2017_May_25_1057,60.012107182,FEMA4ImagesEEG,001,200501,
AFNE01.JPG,AFNE01.JPG,AFNE01.JPG,AFNE01.JPG,AFNE01.JPG,AFNE01.JPG,,,,,,,,,2,0,20,2,,,,,,,,,,,,,,,AFNE03.jpg,AFNE13.jpg,AFSA07.jpg,AFSA02.jpg,AFSA02.jpg,FS,4,num_4,32,num_6,0.650143001927,,,2017_May_25_1057,60.012107182,FEMA4ImagesEEG,001,200501,
AFNE01.JPG,AFNE01.JPG,AFNE01.JPG,AFNE01.JPG,AFNE01.JPG,AFNE01.JPG,,,,,,,,,2,1,21,8,,,,,,,,,,,,,,,AFNE15.jpg,AFNE11.jpg,AFSA08.jpg,AFSA17.jpg,AFNE15.jpg,FN,3,num_8,32,num_4,0.666807364556,,,2017_May_25_1057,60.012107182,FEMA4ImagesEEG,001,200501,
AFNE01.JPG,AFNE01.JPG,AFNE01.JPG,AFNE01.JPG,AFNE01.JPG,AFNE01.JPG,,,,,,,,,2,2,22,1,,,,,,,,,,,,,,,AFNE11.jpg,AFSA18.jpg,AFNE20.jpg,AFSA19.jpg,AFSA19.jpg,FS,4,num_4,16,num_4,0.466793316067,,,2017_May_25_1057,60.012107182,FEMA4ImagesEEG,001,200501,
AFNE01.JPG,AFNE01.JPG,AFNE01.JPG,AFNE01.JPG,AFNE01.JPG,AFNE01.JPG,,,,,,,,,2,3,23,4,,,,,,,,,,,,,,,AFSA20.jpg,AFSA09.jpg,AFNE17.jpg,AFNE20.jpg,AFNE17.jpg,FN,3,num_2,32,num_4,0.500156681519,,,2017_May_25_1057,60.012107182,FEMA4ImagesEEG,001,200501,
AFNE01.JPG,AFNE01.JPG,AFNE01.JPG,AFNE01.JPG,AFNE01.JPG,AFNE01.JPG,,,,,,,,,2,4,24,5,,,,,,,,,,,,,,,AFNE06.jpg,AFSA04.jpg,AFNE11.jpg,AFSA12.jpg,AFNE11.jpg,FN,3,num_2,32,num_4,0.400140034966,,,2017_May_25_1057,60.012107182,FEMA4ImagesEEG,001,200501,
AFNE01.JPG,AFNE01.JPG,AFNE01.JPG,AFNE01.JPG,AFNE01.JPG,AFNE01.JPG,,,,,,,,,2,5,25,3,,,,,,,,,,,,,,,AFNE09.jpg,AFSA15.jpg,AFSA11.jpg,AFNE01.jpg,AFSA11.jpg,FS,4,num_2,32,num_4,0.683470123564,,,2017_May_25_1057,60.012107182,FEMA4ImagesEEG,001,200501,
AFNE01.JPG,AFNE01.JPG,AFNE01.JPG,AFNE01.JPG,AFNE01.JPG,AFNE01.JPG,,,,,,,,,2,6,26,7,,,,,,,,,,,,,,,AFSA11.jpg,AFSA06.jpg,AFNE04.jpg,AFNE17.jpg,AFSA06.jpg,FS,4,num_6,32,num_4,1.05008610256,,,2017_May_25_1057,60.012107182,FEMA4ImagesEEG,001,200501,
AFNE01.JPG,AFNE01.JPG,AFNE01.JPG,AFNE01.JPG,AFNE01.JPG,AFNE01.JPG,,,,,,,,,2,7,27,6,,,,,,,,,,,,,,,AFNE19.jpg,AFNE13.jpg,AFSA05.jpg,AFSA17.jpg,AFNE19.jpg,FN,3,num_8,32,num_4,0.78350569366,,,2017_May_25_1057,60.012107182,FEMA4ImagesEEG,001,200501,
AFNE01.JPG,AFNE01.JPG,AFNE01.JPG,AFNE01.JPG,AFNE01.JPG,AFNE01.JPG,,,,,,,,,2,8,28,0,,,,,,,,,,,,,,,AFNE02.jpg,AFNE13.jpg,AFSA01.jpg,AFSA09.jpg,AFSA09.jpg,FS,4,num_4,16,num_4,1.38316487544,,,2017_May_25_1057,60.012107182,FEMA4ImagesEEG,001,200501,
AFNE01.JPG,AFNE01.JPG,AFNE01.JPG,AFNE01.JPG,AFNE01.JPG,AFNE01.JPG,,,,,,,,,2,9,29,9,,,,,,,,,,,,,,,AFNE15.jpg,AFSA07.jpg,AFNE13.jpg,AFSA08.jpg,AFNE15.jpg,FN,3,num_8,32,num_4,1.25006839773,,,2017_May_25_1057,60.012107182,FEMA4ImagesEEG,001,200501,
AFNE01.JPG,AFNE01.JPG,AFNE01.JPG,AFNE01.JPG,AFNE01.JPG,AFNE01.JPG,,,,,,,,,3,0,30,3,,,,,,,,,,,,,,,AFNE10.jpg,AFSA19.jpg,AFNE17.jpg,AFSA02.jpg,AFNE10.jpg,FN,3,num_8,32,num_6,0.333481622045,,,2017_May_25_1057,60.012107182,FEMA4ImagesEEG,001,200501,
AFNE01.JPG,AFNE01.JPG,AFNE01.JPG,AFNE01.JPG,AFNE01.JPG,AFNE01.JPG,,,,,,,,,3,1,31,9,,,,,,,,,,,,,,,AFSA07.jpg,AFNE14.jpg,AFNE02.jpg,AFSA13.jpg,AFNE14.jpg,FN,3,num_6,16,num_6,0.550083376351,,,2017_May_25_1057,60.012107182,FEMA4ImagesEEG,001,200501,
AFNE01.JPG,AFNE01.JPG,AFNE01.JPG,AFNE01.JPG,AFNE01.JPG,AFNE01.JPG,,,,,,,,,3,2,32,5,,,,,,,,,,,,,,,AFNE19.jpg,AFSA19.jpg,AFSA20.jpg,AFNE03.jpg,AFSA19.jpg,FS,4,num_6,16,num_6,1.16676807392,,,2017_May_25_1057,60.012107182,FEMA4ImagesEEG,001,200501,
AFNE01.JPG,AFNE01.JPG,AFNE01.JPG,AFNE01.JPG,AFNE01.JPG,AFNE01.JPG,,,,,,,,,3,3,33,7,,,,,,,,,,,,,,,AFSA16.jpg,AFSA05.jpg,AFNE03.jpg,AFNE18.jpg,AFNE03.jpg,FN,3,num_2,32,num_6,0.433507890673,,,2017_May_25_1057,60.012107182,FEMA4ImagesEEG,001,200501,
AFNE01.JPG,AFNE01.JPG,AFNE01.JPG,AFNE01.JPG,AFNE01.JPG,AFNE01.JPG,,,,,,,,,3,4,34,4,,,,,,,,,,,,,,,AFNE20.jpg,AFNE10.jpg,AFSA10.jpg,AFSA01.jpg,AFSA10.jpg,FS,4,num_2,32,num_6,1.40008615074,,,2017_May_25_1057,60.012107182,FEMA4ImagesEEG,001,200501,
AFNE01.JPG,AFNE01.JPG,AFNE01.JPG,AFNE01.JPG,AFNE01.JPG,AFNE01.JPG,,,,,,,,,3,5,35,0,,,,,,,,,,,,,,,AFSA19.jpg,AFNE10.jpg,AFSA09.jpg,AFNE19.jpg,AFNE10.jpg,FN,3,num_6,32,num_4,0.366816120804,,,2017_May_25_1057,60.012107182,FEMA4ImagesEEG,001,200501,
AFNE01.JPG,AFNE01.JPG,AFNE01.JPG,AFNE01.JPG,AFNE01.JPG,AFNE01.JPG,,,,,,,,,3,6,36,6,,,,,,,,,,,,,,,AFNE15.jpg,AFNE19.jpg,AFSA11.jpg,AFSA17.jpg,AFNE15.jpg,FN,3,num_8,32,num_4,0.450136972009,,,2017_May_25_1057,60.012107182,FEMA4ImagesEEG,001,200501,
AFNE01.JPG,AFNE01.JPG,AFNE01.JPG,AFNE01.JPG,AFNE01.JPG,AFNE01.JPG,,,,,,,,,3,7,37,2,,,,,,,,,,,,,,,AFNE05.jpg,AFSA04.jpg,AFNE07.jpg,AFSA05.jpg,AFSA04.jpg,FS,4,num_6,16,num_6,0.600110142143,,,2017_May_25_1057,60.012107182,FEMA4ImagesEEG,001,200501,
AFNE01.JPG,AFNE01.JPG,AFNE01.JPG,AFNE01.JPG,AFNE01.JPG,AFNE01.JPG,,,,,,,,,3,8,38,1,,,,,,,,,,,,,,,AFNE11.jpg,AFNE08.jpg,AFSA14.jpg,AFSA18.jpg,AFSA18.jpg,FS,4,num_4,32,num_6,0.466764770332,,,2017_May_25_1057,60.012107182,FEMA4ImagesEEG,001,200501,
AFNE01.JPG,AFNE01.JPG,AFNE01.JPG,AFNE01.JPG,AFNE01.JPG,AFNE01.JPG,,,,,,,,,3,9,39,8,,,,,,,,,,,,,,,AFNE09.jpg,AFNE17.jpg,AFSA11.jpg,AFSA16.jpg,AFNE09.jpg,FN,3,num_8,32,num_6,0.466778882896,,,2017_May_25_1057,60.012107182,FEMA4ImagesEEG,001,200501,
AFNE01.JPG,AFNE01.JPG,AFNE01.JPG,AFNE01.JPG,AFNE01.JPG,AFNE01.JPG,,,,,,,,,4,0,40,2,,,,,,,,,,,,,,,AFSA13.jpg,AFNE11.jpg,AFNE09.jpg,AFSA10.jpg,AFNE09.jpg,FN,3,num_2,32,num_6,0.633461319259,,,2017_May_25_1057,60.012107182,FEMA4ImagesEEG,001,200501,
AFNE01.JPG,AFNE01.JPG,AFNE01.JPG,AFNE01.JPG,AFNE01.JPG,AFNE01.JPG,,,,,,,,,4,1,41,0,,,,,,,,,,,,,,,AFSA13.jpg,AFSA04.jpg,AFNE07.jpg,AFNE19.jpg,AFNE19.jpg,FN,3,num_4,32,num_8,0.666773045436,,,2017_May_25_1057,60.012107182,FEMA4ImagesEEG,001,200501,
AFNE01.JPG,AFNE01.JPG,AFNE01.JPG,AFNE01.JPG,AFNE01.JPG,AFNE01.JPG,,,,,,,,,4,2,42,4,,,,,,,,,,,,,,,AFNE05.jpg,AFSA01.jpg,AFSA11.jpg,AFNE15.jpg,AFSA11.jpg,FS,4,num_2,32,num_8,0.766746712616,,,2017_May_25_1057,60.012107182,FEMA4ImagesEEG,001,200501,
AFNE01.JPG,AFNE01.JPG,AFNE01.JPG,AFNE01.JPG,AFNE01.JPG,AFNE01.JPG,,,,,,,,,4,3,43,9,,,,,,,,,,,,,,,AFSA10.jpg,AFNE16.jpg,AFSA01.jpg,AFNE08.jpg,AFNE08.jpg,FN,3,num_4,16,num_4,2.0000169992,,,2017_May_25_1057,60.012107182,FEMA4ImagesEEG,001,200501,
AFNE01.JPG,AFNE01.JPG,AFNE01.JPG,AFNE01.JPG,AFNE01.JPG,AFNE01.JPG,,,,,,,,,4,4,44,7,,,,,,,,,,,,,,,AFSA01.jpg,AFSA12.jpg,AFNE14.jpg,AFNE16.jpg,AFSA12.jpg,FS,4,num_6,32,num_4,0.583320690901,,,2017_May_25_1057,60.012107182,FEMA4ImagesEEG,001,200501,
AFNE01.JPG,AFNE01.JPG,AFNE01.JPG,AFNE01.JPG,AFNE01.JPG,AFNE01.JPG,,,,,,,,,4,5,45,8,,,,,,,,,,,,,,,AFSA09.jpg,AFSA17.jpg,AFNE12.jpg,AFNE17.jpg,AFNE12.jpg,FN,3,num_2,32,num_4,0.816783421324,,,2017_May_25_1057,60.012107182,FEMA4ImagesEEG,001,200501,
AFNE01.JPG,AFNE01.JPG,AFNE01.JPG,AFNE01.JPG,AFNE01.JPG,AFNE01.JPG,,,,,,,,,4,6,46,6,,,,,,,,,,,,,,,AFNE14.jpg,AFNE12.jpg,AFSA05.jpg,AFSA01.jpg,AFNE14.jpg,FN,3,num_8,32,num_4,1.91668139386,,,2017_May_25_1057,60.012107182,FEMA4ImagesEEG,001,200501,
AFNE01.JPG,AFNE01.JPG,AFNE01.JPG,AFNE01.JPG,AFNE01.JPG,AFNE01.JPG,,,,,,,,,4,7,47,1,,,,,,,,,,,,,,,AFNE12.jpg,AFSA17.jpg,AFSA02.jpg,AFNE10.jpg,AFSA17.jpg,FS,4,num_6,32,num_4,0.533474180964,,,2017_May_25_1057,60.012107182,FEMA4ImagesEEG,001,200501,
AFNE01.JPG,AFNE01.JPG,AFNE01.JPG,AFNE01.JPG,AFNE01.JPG,AFNE01.JPG,,,,,,,,,4,8,48,5,,,,,,,,,,,,,,,AFSA09.jpg,AFNE05.jpg,AFNE01.jpg,AFSA20.jpg,AFNE01.jpg,FN,3,num_2,32,num_8,0.533450125367,,,2017_May_25_1057,60.012107182,FEMA4ImagesEEG,001,200501,
AFNE01.JPG,AFNE01.JPG,AFNE01.JPG,AFNE01.JPG,AFNE01.JPG,AFNE01.JPG,,,,,,,,,4,9,49,3,,,,,,,,,,,,,,,AFNE18.jpg,AFSA15.jpg,AFNE09.jpg,AFSA11.jpg,AFNE18.jpg,FN,3,num_8,16,num_8,0.483458641102,,,2017_May_25_1057,60.012107182,FEMA4ImagesEEG,001,200501,
AFNE01.JPG,AFNE01.JPG,AFNE01.JPG,AFNE01.JPG,AFNE01.JPG,AFNE01.JPG,,,,,,,,,5,0,50,5,,,,,,,,,,,,,,,AFSA19.jpg,AFNE01.jpg,AFSA18.jpg,AFNE04.jpg,AFSA19.jpg,FS,4,num_8,16,num_8,0.416795096244,,,2017_May_25_1057,60.012107182,FEMA4ImagesEEG,001,200501,
AFNE01.JPG,AFNE01.JPG,AFNE01.JPG,AFNE01.JPG,AFNE01.JPG,AFNE01.JPG,,,,,,,,,5,1,51,4,,,,,,,,,,,,,,,AFNE05.jpg,AFNE03.jpg,AFSA06.jpg,AFSA13.jpg,AFNE03.jpg,FN,3,num_6,32,num_8,0.266781512881,,,2017_May_25_1057,60.012107182,FEMA4ImagesEEG,001,200501,
AFNE01.JPG,AFNE01.JPG,AFNE01.JPG,AFNE01.JPG,AFNE01.JPG,AFNE01.JPG,,,,,,,,,5,2,52,6,,,,,,,,,,,,,,,AFNE06.jpg,AFSA07.jpg,AFSA12.jpg,AFNE10.jpg,AFNE10.jpg,FN,3,num_4,32,num_8,0.6167992017,,,2017_May_25_1057,60.012107182,FEMA4ImagesEEG,001,200501,
AFNE01.JPG,AFNE01.JPG,AFNE01.JPG,AFNE01.JPG,AFNE01.JPG,AFNE01.JPG,,,,,,,,,5,3,53,0,,,,,,,,,,,,,,,AFNE07.jpg,AFNE02.jpg,AFSA04.jpg,AFSA18.jpg,AFNE07.jpg,FN,3,num_8,16,num_8,1.65007404273,,,2017_May_25_1057,60.012107182,FEMA4ImagesEEG,001,200501,
AFNE01.JPG,AFNE01.JPG,AFNE01.JPG,AFNE01.JPG,AFNE01.JPG,AFNE01.JPG,,,,,,,,,5,4,54,7,,,,,,,,,,,,,,,AFNE20.jpg,AFNE12.jpg,AFSA19.jpg,AFSA10.jpg,AFSA19.jpg,FS,4,num_2,32,num_8,0.466767336242,,,2017_May_25_1057,60.012107182,FEMA4ImagesEEG,001,200501,
AFNE01.JPG,AFNE01.JPG,AFNE01.JPG,AFNE01.JPG,AFNE01.JPG,AFNE01.JPG,,,,,,,,,5,5,55,9,,,,,,,,,,,,,,,AFNE01.jpg,AFNE19.jpg,AFSA02.jpg,AFSA18.jpg,AFSA02.jpg,FS,4,num_2,32,num_8,3.33327570709,,,2017_May_25_1057,60.012107182,FEMA4ImagesEEG,001,200501,
AFNE01.JPG,AFNE01.JPG,AFNE01.JPG,AFNE01.JPG,AFNE01.JPG,AFNE01.JPG,,,,,,,,,5,6,56,3,,,,,,,,,,,,,,,AFNE08.jpg,AFNE04.jpg,AFSA02.jpg,AFSA20.jpg,AFNE08.jpg,FN,3,num_8,16,num_8,1.78339151025,,,2017_May_25_1057,60.012107182,FEMA4ImagesEEG,001,200501,
AFNE01.JPG,AFNE01.JPG,AFNE01.JPG,AFNE01.JPG,AFNE01.JPG,AFNE01.JPG,,,,,,,,,5,7,57,8,,,,,,,,,,,,,,,AFNE02.jpg,AFNE09.jpg,AFSA09.jpg,AFSA07.jpg,AFNE09.jpg,FN,3,num_6,32,num_8,0.550141109503,,,2017_May_25_1057,60.012107182,FEMA4ImagesEEG,001,200501,
AFNE01.JPG,AFNE01.JPG,AFNE01.JPG,AFNE01.JPG,AFNE01.JPG,AFNE01.JPG,,,,,,,,,5,8,58,1,,,,,,,,,,,,,,,AFSA19.jpg,AFNE08.jpg,AFSA06.jpg,AFNE06.jpg,AFSA06.jpg,FS,4,num_2,32,num_8,0.833442652249,,,2017_May_25_1057,60.012107182,FEMA4ImagesEEG,001,200501,
AFNE01.JPG,AFNE01.JPG,AFNE01.JPG,AFNE01.JPG,AFNE01.JPG,AFNE01.JPG,,,,,,,,,5,9,59,2,,,,,,,,,,,,,,,AFNE10.jpg,AFSA15.jpg,AFNE19.jpg,AFSA02.jpg,AFSA15.jpg,FS,4,num_6,32,num_8,0.483513487619,,,2017_May_25_1057,60.012107182,FEMA4ImagesEEG,001,200501,
,,,,,,,,,,,,,,,,,,,,,,,,,,,,,,,,,,,,,,,,,,,space,3.6998977802,2017_May_25_1057,60.012107182,FEMA4ImagesEEG,001,200501,
AFNE01.JPG,AFNE01.JPG,AFNE01.JPG,AFNE01.JPG,AFNE01.JPG,AFNE01.JPG,,,,,,,,,,,,,0,0,0,6,,,,,,,,,,,AMSA07.jpg,AMSA01.jpg,AMNE09.jpg,AMNE10.jpg,AMNE09.jpg,MN,1,num_2,32,num_6,0.598406371661,,,2017_May_25_1057,60.012107182,FEMA4ImagesEEG,001,200501,
AFNE01.JPG,AFNE01.JPG,AFNE01.JPG,AFNE01.JPG,AFNE01.JPG,AFNE01.JPG,,,,,,,,,,,,,0,1,1,0,,,,,,,,,,,AMNE13.jpg,AMSA01.jpg,AMNE09.jpg,AMSA02.jpg,AMNE09.jpg,MN,1,num_2,32,num_4,0.500154115492,,,2017_May_25_1057,60.012107182,FEMA4ImagesEEG,001,200501,
AFNE01.JPG,AFNE01.JPG,AFNE01.JPG,AFNE01.JPG,AFNE01.JPG,AFNE01.JPG,,,,,,,,,,,,,0,2,2,4,,,,,,,,,,,AMNE13.jpg,AMNE19.jpg,AMSA05.jpg,AMSA14.jpg,AMSA05.jpg,MS,2,num_2,32,num_8,1.63336958759,,,2017_May_25_1057,60.012107182,FEMA4ImagesEEG,001,200501,
AFNE01.JPG,AFNE01.JPG,AFNE01.JPG,AFNE01.JPG,AFNE01.JPG,AFNE01.JPG,,,,,,,,,,,,,0,3,3,5,,,,,,,,,,,AMSA08.jpg,AMNE05.jpg,AMSA19.jpg,AMNE14.jpg,AMSA08.jpg,MS,2,num_8,32,num_4,0.700028321357,,,2017_May_25_1057,60.012107182,FEMA4ImagesEEG,001,200501,
AFNE01.JPG,AFNE01.JPG,AFNE01.JPG,AFNE01.JPG,AFNE01.JPG,AFNE01.JPG,,,,,,,,,,,,,0,4,4,2,,,,,,,,,,,AMSA14.jpg,AMNE08.jpg,AMNE05.jpg,AMSA02.jpg,AMSA02.jpg,MS,2,num_4,32,num_6,0.883443437982,,,2017_May_25_1057,60.012107182,FEMA4ImagesEEG,001,200501,
AFNE01.JPG,AFNE01.JPG,AFNE01.JPG,AFNE01.JPG,AFNE01.JPG,AFNE01.JPG,,,,,,,,,,,,,0,5,5,1,,,,,,,,,,,AMSA14.jpg,AMSA08.jpg,AMNE05.jpg,AMNE06.jpg,AMNE06.jpg,MN,1,num_4,16,num_4,0.400128167588,,,2017_May_25_1057,60.012107182,FEMA4ImagesEEG,001,200501,
AFNE01.JPG,AFNE01.JPG,AFNE01.JPG,AFNE01.JPG,AFNE01.JPG,AFNE01.JPG,,,,,,,,,,,,,0,6,6,7,,,,,,,,,,,AMSA06.jpg,AMSA16.jpg,AMNE12.jpg,AMNE11.jpg,AMNE11.jpg,MN,1,num_4,16,num_4,0.716645214474,,,2017_May_25_1057,60.012107182,FEMA4ImagesEEG,001,200501,
AFNE01.JPG,AFNE01.JPG,AFNE01.JPG,AFNE01.JPG,AFNE01.JPG,AFNE01.JPG,,,,,,,,,,,,,0,7,7,9,,,,,,,,,,,AMSA11.jpg,AMNE05.jpg,AMNE10.jpg,AMSA16.jpg,AMNE05.jpg,MN,1,num_6,32,num_4,2.93332298414,,,2017_May_25_1057,60.012107182,FEMA4ImagesEEG,001,200501,
AFNE01.JPG,AFNE01.JPG,AFNE01.JPG,AFNE01.JPG,AFNE01.JPG,AFNE01.JPG,,,,,,,,,,,,,0,8,8,3,,,,,,,,,,,AMNE11.jpg,AMNE15.jpg,AMSA14.jpg,AMSA06.jpg,AMNE15.jpg,MN,1,num_6,32,num_4,0.533477709047,,,2017_May_25_1057,60.012107182,FEMA4ImagesEEG,001,200501,
AFNE01.JPG,AFNE01.JPG,AFNE01.JPG,AFNE01.JPG,AFNE01.JPG,AFNE01.JPG,,,,,,,,,,,,,0,9,9,8,,,,,,,,,,,AMSA18.jpg,AMNE16.jpg,AMSA14.jpg,AMNE07.jpg,AMNE07.jpg,MN,1,num_4,16,num_4,0.766808615532,,,2017_May_25_1057,60.012107182,FEMA4ImagesEEG,001,200501,
AFNE01.JPG,AFNE01.JPG,AFNE01.JPG,AFNE01.JPG,AFNE01.JPG,AFNE01.JPG,,,,,,,,,,,,,1,0,10,0,,,,,,,,,,,AMNE18.jpg,AMSA16.jpg,AMNE15.jpg,AMSA02.jpg,AMSA02.jpg,MS,2,num_4,16,num_4,0.483490394312,,,2017_May_25_1057,60.012107182,FEMA4ImagesEEG,001,200501,
AFNE01.JPG,AFNE01.JPG,AFNE01.JPG,AFNE01.JPG,AFNE01.JPG,AFNE01.JPG,,,,,,,,,,,,,1,1,11,1,,,,,,,,,,,AMSA07.jpg,AMNE16.jpg,AMSA20.jpg,AMNE09.jpg,AMNE09.jpg,MN,1,num_4,16,num_4,0.566775643383,,,2017_May_25_1057,60.012107182,FEMA4ImagesEEG,001,200501,
AFNE01.JPG,AFNE01.JPG,AFNE01.JPG,AFNE01.JPG,AFNE01.JPG,AFNE01.JPG,,,,,,,,,,,,,1,2,12,7,,,,,,,,,,,AMSA10.jpg,AMNE08.jpg,AMSA15.jpg,AMNE19.jpg,AMNE08.jpg,MN,1,num_6,32,num_4,0.833474726183,,,2017_May_25_1057,60.012107182,FEMA4ImagesEEG,001,200501,
AFNE01.JPG,AFNE01.JPG,AFNE01.JPG,AFNE01.JPG,AFNE01.JPG,AFNE01.JPG,,,,,,,,,,,,,1,3,13,4,,,,,,,,,,,AMNE01.jpg,AMSA15.jpg,AMSA13.jpg,AMNE09.jpg,AMNE09.jpg,MN,1,num_4,16,num_4,0.333498300519,,,2017_May_25_1057,60.012107182,FEMA4ImagesEEG,001,200501,
AFNE01.JPG,AFNE01.JPG,AFNE01.JPG,AFNE01.JPG,AFNE01.JPG,AFNE01.JPG,,,,,,,,,,,,,1,4,14,6,,,,,,,,,,,AMSA16.jpg,AMNE10.jpg,AMNE19.jpg,AMSA09.jpg,AMSA16.jpg,MS,2,num_8,32,num_6,0.433760633692,,,2017_May_25_1057,60.012107182,FEMA4ImagesEEG,001,200501,
AFNE01.JPG,AFNE01.JPG,AFNE01.JPG,AFNE01.JPG,AFNE01.JPG,AFNE01.JPG,,,,,,,,,,,,,1,5,15,8,,,,,,,,,,,AMNE08.jpg,AMSA04.jpg,AMSA05.jpg,AMNE16.jpg,AMSA05.jpg,MS,2,num_2,32,num_8,0.600018089754,,,2017_May_25_1057,60.012107182,FEMA4ImagesEEG,001,200501,
AFNE01.JPG,AFNE01.JPG,AFNE01.JPG,AFNE01.JPG,AFNE01.JPG,AFNE01.JPG,,,,,,,,,,,,,1,6,16,2,,,,,,,,,,,AMSA11.jpg,AMSA03.jpg,AMNE12.jpg,AMNE11.jpg,AMNE12.jpg,MN,1,num_2,32,num_8,0.466630059527,,,2017_May_25_1057,60.012107182,FEMA4ImagesEEG,001,200501,
AFNE01.JPG,AFNE01.JPG,AFNE01.JPG,AFNE01.JPG,AFNE01.JPG,AFNE01.JPG,,,,,,,,,,,,,1,7,17,9,,,,,,,,,,,AMSA18.jpg,AMNE13.jpg,AMSA19.jpg,AMNE09.jpg,AMNE09.jpg,MN,1,num_4,32,num_8,0.633462602156,,,2017_May_25_1057,60.012107182,FEMA4ImagesEEG,001,200501,
AFNE01.JPG,AFNE01.JPG,AFNE01.JPG,AFNE01.JPG,AFNE01.JPG,AFNE01.JPG,,,,,,,,,,,,,1,8,18,3,,,,,,,,,,,AMNE08.jpg,AMSA12.jpg,AMSA07.jpg,AMNE03.jpg,AMNE03.jpg,MN,1,num_4,32,num_8,0.350161380251,,,2017_May_25_1057,60.012107182,FEMA4ImagesEEG,001,200501,
AFNE01.JPG,AFNE01.JPG,AFNE01.JPG,AFNE01.JPG,AFNE01.JPG,AFNE01.JPG,,,,,,,,,,,,,1,9,19,5,,,,,,,,,,,AMNE11.jpg,AMSA06.jpg,AMSA07.jpg,AMNE08.jpg,AMSA07.jpg,MS,2,num_2,32,num_8,0.65014909592,,,2017_May_25_1057,60.012107182,FEMA4ImagesEEG,001,200501,
AFNE01.JPG,AFNE01.JPG,AFNE01.JPG,AFNE01.JPG,AFNE01.JPG,AFNE01.JPG,,,,,,,,,,,,,2,0,20,6,,,,,,,,,,,AMNE13.jpg,AMSA02.jpg,AMNE06.jpg,AMSA06.jpg,AMNE13.jpg,MN,1,num_8,16,num_8,0.550141430227,,,2017_May_25_1057,60.012107182,FEMA4ImagesEEG,001,200501,
AFNE01.JPG,AFNE01.JPG,AFNE01.JPG,AFNE01.JPG,AFNE01.JPG,AFNE01.JPG,,,,,,,,,,,,,2,1,21,4,,,,,,,,,,,AMSA09.jpg,AMNE13.jpg,AMNE06.jpg,AMSA03.jpg,AMNE13.jpg,MN,1,num_6,32,num_8,2.29992902023,,,2017_May_25_1057,60.012107182,FEMA4ImagesEEG,001,200501,
AFNE01.JPG,AFNE01.JPG,AFNE01.JPG,AFNE01.JPG,AFNE01.JPG,AFNE01.JPG,,,,,,,,,,,,,2,2,22,0,,,,,,,,,,,AMSA17.jpg,AMSA12.jpg,AMNE10.jpg,AMNE15.jpg,AMNE10.jpg,MN,1,num_2,32,num_8,1.31673226331,,,2017_May_25_1057,60.012107182,FEMA4ImagesEEG,001,200501,
AFNE01.JPG,AFNE01.JPG,AFNE01.JPG,AFNE01.JPG,AFNE01.JPG,AFNE01.JPG,,,,,,,,,,,,,2,3,23,8,,,,,,,,,,,AMSA09.jpg,AMNE16.jpg,AMNE01.jpg,AMSA10.jpg,AMNE16.jpg,MN,1,num_6,32,num_8,0.733460004209,,,2017_May_25_1057,60.012107182,FEMA4ImagesEEG,001,200501,
AFNE01.JPG,AFNE01.JPG,AFNE01.JPG,AFNE01.JPG,AFNE01.JPG,AFNE01.JPG,,,,,,,,,,,,,2,4,24,1,,,,,,,,,,,AMNE17.jpg,AMNE11.jpg,AMSA14.jpg,AMSA12.jpg,AMNE17.jpg,MN,1,num_8,16,num_8,0.483469546307,,,2017_May_25_1057,60.012107182,FEMA4ImagesEEG,001,200501,
AFNE01.JPG,AFNE01.JPG,AFNE01.JPG,AFNE01.JPG,AFNE01.JPG,AFNE01.JPG,,,,,,,,,,,,,2,5,25,5,,,,,,,,,,,AMSA15.jpg,AMSA20.jpg,AMNE10.jpg,AMNE14.jpg,AMNE14.jpg,MN,1,num_4,32,num_8,0.633504939848,,,2017_May_25_1057,60.012107182,FEMA4ImagesEEG,001,200501,
AFNE01.JPG,AFNE01.JPG,AFNE01.JPG,AFNE01.JPG,AFNE01.JPG,AFNE01.JPG,,,,,,,,,,,,,2,6,26,3,,,,,,,,,,,AMSA02.jpg,AMSA06.jpg,AMNE02.jpg,AMNE09.jpg,AMSA06.jpg,MS,2,num_6,32,num_8,0.350158172892,,,2017_May_25_1057,60.012107182,FEMA4ImagesEEG,001,200501,
AFNE01.JPG,AFNE01.JPG,AFNE01.JPG,AFNE01.JPG,AFNE01.JPG,AFNE01.JPG,,,,,,,,,,,,,2,7,27,9,,,,,,,,,,,AMNE04.jpg,AMNE02.jpg,AMSA01.jpg,AMSA09.jpg,AMSA01.jpg,MS,2,num_2,32,num_8,0.450173536316,,,2017_May_25_1057,60.012107182,FEMA4ImagesEEG,001,200501,
AFNE01.JPG,AFNE01.JPG,AFNE01.JPG,AFNE01.JPG,AFNE01.JPG,AFNE01.JPG,,,,,,,,,,,,,2,8,28,2,,,,,,,,,,,AMSA09.jpg,AMNE19.jpg,AMNE10.jpg,AMSA17.jpg,AMNE10.jpg,MN,1,num_2,32,num_8,0.31691636797,,,2017_May_25_1057,60.012107182,FEMA4ImagesEEG,001,200501,
AFNE01.JPG,AFNE01.JPG,AFNE01.JPG,AFNE01.JPG,AFNE01.JPG,AFNE01.JPG,,,,,,,,,,,,,2,9,29,7,,,,,,,,,,,AMNE01.jpg,AMSA19.jpg,AMSA04.jpg,AMNE04.jpg,AMSA19.jpg,MS,2,num_6,32,num_8,0.550113846664,,,2017_May_25_1057,60.012107182,FEMA4ImagesEEG,001,200501,
AFNE01.JPG,AFNE01.JPG,AFNE01.JPG,AFNE01.JPG,AFNE01.JPG,AFNE01.JPG,,,,,,,,,,,,,3,0,30,2,,,,,,,,,,,AMSA14.jpg,AMNE16.jpg,AMSA15.jpg,AMNE02.jpg,AMNE16.jpg,MN,1,num_6,32,num_4,0.98352391168,,,2017_May_25_1057,60.012107182,FEMA4ImagesEEG,001,200501,
AFNE01.JPG,AFNE01.JPG,AFNE01.JPG,AFNE01.JPG,AFNE01.JPG,AFNE01.JPG,,,,,,,,,,,,,3,1,31,7,,,,,,,,,,,AMNE07.jpg,AMSA06.jpg,AMNE02.jpg,AMSA04.jpg,AMSA04.jpg,MS,2,num_4,32,num_6,1.55002660537,,,2017_May_25_1057,60.012107182,FEMA4ImagesEEG,001,200501,
AFNE01.JPG,AFNE01.JPG,AFNE01.JPG,AFNE01.JPG,AFNE01.JPG,AFNE01.JPG,,,,,,,,,,,,,3,2,32,1,,,,,,,,,,,AMSA04.jpg,AMNE04.jpg,AMSA05.jpg,AMNE07.jpg,AMNE07.jpg,MN,1,num_4,16,num_4,4.76647953631,,,2017_May_25_1057,60.012107182,FEMA4ImagesEEG,001,200501,
AFNE01.JPG,AFNE01.JPG,AFNE01.JPG,AFNE01.JPG,AFNE01.JPG,AFNE01.JPG,,,,,,,,,,,,,3,3,33,9,,,,,,,,,,,AMSA18.jpg,AMNE13.jpg,AMSA08.jpg,AMNE14.jpg,AMSA18.jpg,MS,2,num_8,32,num_4,0.70014731586,,,2017_May_25_1057,60.012107182,FEMA4ImagesEEG,001,200501,
AFNE01.JPG,AFNE01.JPG,AFNE01.JPG,AFNE01.JPG,AFNE01.JPG,AFNE01.JPG,,,,,,,,,,,,,3,4,34,6,,,,,,,,,,,AMSA07.jpg,AMSA15.jpg,AMNE12.jpg,AMNE11.jpg,AMSA15.jpg,MS,2,num_6,32,num_4,0.600147989346,,,2017_May_25_1057,60.012107182,FEMA4ImagesEEG,001,200501,
AFNE01.JPG,AFNE01.JPG,AFNE01.JPG,AFNE01.JPG,AFNE01.JPG,AFNE01.JPG,,,,,,,,,,,,,3,5,35,4,,,,,,,,,,,AMNE12.jpg,AMSA20.jpg,AMSA10.jpg,AMNE03.jpg,AMSA10.jpg,MS,2,num_2,32,num_4,0.550131487311,,,2017_May_25_1057,60.012107182,FEMA4ImagesEEG,001,200501,
AFNE01.JPG,AFNE01.JPG,AFNE01.JPG,AFNE01.JPG,AFNE01.JPG,AFNE01.JPG,,,,,,,,,,,,,3,6,36,0,,,,,,,,,,,AMNE02.jpg,AMSA05.jpg,AMSA17.jpg,AMNE08.jpg,AMNE02.jpg,MN,1,num_8,32,num_6,3.26688992302,,,2017_May_25_1057,60.012107182,FEMA4ImagesEEG,001,200501,
AFNE01.JPG,AFNE01.JPG,AFNE01.JPG,AFNE01.JPG,AFNE01.JPG,AFNE01.JPG,,,,,,,,,,,,,3,7,37,3,,,,,,,,,,,AMNE03.jpg,AMSA08.jpg,AMSA04.jpg,AMNE13.jpg,AMSA08.jpg,MS,2,num_6,32,num_4,0.466766373953,,,2017_May_25_1057,60.012107182,FEMA4ImagesEEG,001,200501,
AFNE01.JPG,AFNE01.JPG,AFNE01.JPG,AFNE01.JPG,AFNE01.JPG,AFNE01.JPG,,,,,,,,,,,,,3,8,38,5,,,,,,,,,,,AMSA06.jpg,AMNE18.jpg,AMSA07.jpg,AMNE05.jpg,AMNE05.jpg,MN,1,num_4,32,num_8,0.350146626239,,,2017_May_25_1057,60.012107182,FEMA4ImagesEEG,001,200501,
AFNE01.JPG,AFNE01.JPG,AFNE01.JPG,AFNE01.JPG,AFNE01.JPG,AFNE01.JPG,,,,,,,,,,,,,3,9,39,8,,,,,,,,,,,AMNE06.jpg,AMSA07.jpg,AMNE16.jpg,AMSA16.jpg,AMSA16.jpg,MS,2,num_4,32,num_8,0.383477276075,,,2017_May_25_1057,60.012107182,FEMA4ImagesEEG,001,200501,
AFNE01.JPG,AFNE01.JPG,AFNE01.JPG,AFNE01.JPG,AFNE01.JPG,AFNE01.JPG,,,,,,,,,,,,,4,0,40,2,,,,,,,,,,,AMNE11.jpg,AMSA01.jpg,AMSA14.jpg,AMNE07.jpg,AMNE11.jpg,MN,1,num_8,32,num_6,2.46669067943,,,2017_May_25_1057,60.012107182,FEMA4ImagesEEG,001,200501,
AFNE01.JPG,AFNE01.JPG,AFNE01.JPG,AFNE01.JPG,AFNE01.JPG,AFNE01.JPG,,,,,,,,,,,,,4,1,41,5,,,,,,,,,,,AMNE18.jpg,AMNE15.jpg,AMSA20.jpg,AMSA09.jpg,AMNE15.jpg,MN,1,num_6,32,num_2,0.583472721511,,,2017_May_25_1057,60.012107182,FEMA4ImagesEEG,001,200501,
AFNE01.JPG,AFNE01.JPG,AFNE01.JPG,AFNE01.JPG,AFNE01.JPG,AFNE01.JPG,,,,,,,,,,,,,4,2,42,1,,,,,,,,,,,AMNE18.jpg,AMNE07.jpg,AMSA11.jpg,AMSA16.jpg,AMNE18.jpg,MN,1,num_8,32,num_4,0.500166624319,,,2017_May_25_1057,60.012107182,FEMA4ImagesEEG,001,200501,
AFNE01.JPG,AFNE01.JPG,AFNE01.JPG,AFNE01.JPG,AFNE01.JPG,AFNE01.JPG,,,,,,,,,,,,,4,3,43,4,,,,,,,,,,,AMSA11.jpg,AMSA16.jpg,AMNE01.jpg,AMNE16.jpg,AMSA11.jpg,MS,2,num_8,32,num_4,0.800108794938,,,2017_May_25_1057,60.012107182,FEMA4ImagesEEG,001,200501,
AFNE01.JPG,AFNE01.JPG,AFNE01.JPG,AFNE01.JPG,AFNE01.JPG,AFNE01.JPG,,,,,,,,,,,,,4,4,44,9,,,,,,,,,,,AMNE19.jpg,AMSA09.jpg,AMNE09.jpg,AMSA04.jpg,AMSA04.jpg,MS,2,num_4,16,num_4,0.766818558332,,,2017_May_25_1057,60.012107182,FEMA4ImagesEEG,001,200501,
AFNE01.JPG,AFNE01.JPG,AFNE01.JPG,AFNE01.JPG,AFNE01.JPG,AFNE01.JPG,,,,,,,,,,,,,4,5,45,6,,,,,,,,,,,AMSA05.jpg,AMNE18.jpg,AMSA14.jpg,AMNE07.jpg,AMNE18.jpg,MN,1,num_6,32,num_4,0.533483803156,,,2017_May_25_1057,60.012107182,FEMA4ImagesEEG,001,200501,
AFNE01.JPG,AFNE01.JPG,AFNE01.JPG,AFNE01.JPG,AFNE01.JPG,AFNE01.JPG,,,,,,,,,,,,,4,6,46,0,,,,,,,,,,,AMNE09.jpg,AMSA01.jpg,AMSA19.jpg,AMNE01.jpg,AMSA01.jpg,MS,2,num_6,32,num_4,0.683490330237,,,2017_May_25_1057,60.012107182,FEMA4ImagesEEG,001,200501,
AFNE01.JPG,AFNE01.JPG,AFNE01.JPG,AFNE01.JPG,AFNE01.JPG,AFNE01.JPG,,,,,,,,,,,,,4,7,47,8,,,,,,,,,,,AMNE06.jpg,AMNE14.jpg,AMSA11.jpg,AMSA03.jpg,AMSA03.jpg,MS,2,num_4,16,num_4,0.416812095442,,,2017_May_25_1057,60.012107182,FEMA4ImagesEEG,001,200501,
AFNE01.JPG,AFNE01.JPG,AFNE01.JPG,AFNE01.JPG,AFNE01.JPG,AFNE01.JPG,,,,,,,,,,,,,4,8,48,7,,,,,,,,,,,AMNE08.jpg,AMSA18.jpg,AMSA05.jpg,AMNE14.jpg,AMNE14.jpg,MN,1,num_4,32,num_6,2.88354831992,,,2017_May_25_1057,60.012107182,FEMA4ImagesEEG,001,200501,
AFNE01.JPG,AFNE01.JPG,AFNE01.JPG,AFNE01.JPG,AFNE01.JPG,AFNE01.JPG,,,,,,,,,,,,,4,9,49,3,,,,,,,,,,,AMSA01.jpg,AMNE17.jpg,AMSA06.jpg,AMNE03.jpg,AMSA06.jpg,MS,2,num_2,32,num_4,0.583497739164,,,2017_May_25_1057,60.012107182,FEMA4ImagesEEG,001,200501,
AFNE01.JPG,AFNE01.JPG,AFNE01.JPG,AFNE01.JPG,AFNE01.JPG,AFNE01.JPG,,,,,,,,,,,,,5,0,50,0,,,,,,,,,,,AMNE06.jpg,AMNE18.jpg,AMSA07.jpg,AMSA16.jpg,AMSA16.jpg,MS,2,num_4,16,num_4,0.433466515271,,,2017_May_25_1057,60.012107182,FEMA4ImagesEEG,001,200501,
AFNE01.JPG,AFNE01.JPG,AFNE01.JPG,AFNE01.JPG,AFNE01.JPG,AFNE01.JPG,,,,,,,,,,,,,5,1,51,8,,,,,,,,,,,AMNE14.jpg,AMNE06.jpg,AMSA11.jpg,AMSA17.jpg,AMSA17.jpg,MS,2,num_4,16,num_4,0.566725928686,,,2017_May_25_1057,60.012107182,FEMA4ImagesEEG,001,200501,
AFNE01.JPG,AFNE01.JPG,AFNE01.JPG,AFNE01.JPG,AFNE01.JPG,AFNE01.JPG,,,,,,,,,,,,,5,2,52,9,,,,,,,,,,,AMNE19.jpg,AMSA03.jpg,AMSA18.jpg,AMNE09.jpg,AMNE09.jpg,MN,1,num_4,16,num_4,0.450117406901,,,2017_May_25_1057,60.012107182,FEMA4ImagesEEG,001,200501,
AFNE01.JPG,AFNE01.JPG,AFNE01.JPG,AFNE01.JPG,AFNE01.JPG,AFNE01.JPG,,,,,,,,,,,,,5,3,53,4,,,,,,,,,,,AMNE06.jpg,AMSA18.jpg,AMSA11.jpg,AMNE01.jpg,AMNE01.jpg,MN,1,num_4,16,num_4,0.366748444736,,,2017_May_25_1057,60.012107182,FEMA4ImagesEEG,001,200501,
AFNE01.JPG,AFNE01.JPG,AFNE01.JPG,AFNE01.JPG,AFNE01.JPG,AFNE01.JPG,,,,,,,,,,,,,5,4,54,6,,,,,,,,,,,AMSA20.jpg,AMNE04.jpg,AMNE17.jpg,AMSA19.jpg,AMNE17.jpg,MN,1,num_2,32,num_4,0.500128135667,,,2017_May_25_1057,60.012107182,FEMA4ImagesEEG,001,200501,
AFNE01.JPG,AFNE01.JPG,AFNE01.JPG,AFNE01.JPG,AFNE01.JPG,AFNE01.JPG,,,,,,,,,,,,,5,5,55,5,,,,,,,,,,,AMSA13.jpg,AMNE09.jpg,AMSA04.jpg,AMNE14.jpg,AMSA04.jpg,MS,2,num_2,32,num_4,0.333486753982,,,2017_May_25_1057,60.012107182,FEMA4ImagesEEG,001,200501,
AFNE01.JPG,AFNE01.JPG,AFNE01.JPG,AFNE01.JPG,AFNE01.JPG,AFNE01.JPG,,,,,,,,,,,,,5,6,56,1,,,,,,,,,,,AMSA04.jpg,AMSA03.jpg,AMNE10.jpg,AMNE12.jpg,AMNE10.jpg,MN,1,num_2,32,num_4,0.533481237246,,,2017_May_25_1057,60.012107182,FEMA4ImagesEEG,001,200501,
AFNE01.JPG,AFNE01.JPG,AFNE01.JPG,AFNE01.JPG,AFNE01.JPG,AFNE01.JPG,,,,,,,,,,,,,5,7,57,7,,,,,,,,,,,AMNE02.jpg,AMSA03.jpg,AMNE07.jpg,AMSA10.jpg,AMSA03.jpg,MS,2,num_6,32,num_4,0.200163513189,,,2017_May_25_1057,60.012107182,FEMA4ImagesEEG,001,200501,
AFNE01.JPG,AFNE01.JPG,AFNE01.JPG,AFNE01.JPG,AFNE01.JPG,AFNE01.JPG,,,,,,,,,,,,,5,8,58,2,,,,,,,,,,,AMSA02.jpg,AMNE14.jpg,AMSA14.jpg,AMNE18.jpg,AMSA14.jpg,MS,2,num_2,32,num_4,0.483483017306,,,2017_May_25_1057,60.012107182,FEMA4ImagesEEG,001,200501,
AFNE01.JPG,AFNE01.JPG,AFNE01.JPG,AFNE01.JPG,AFNE01.JPG,AFNE01.JPG,,,,,,,,,,,,,5,9,59,3,,,,,,,,,,,AMNE11.jpg,AMSA11.jpg,AMSA10.jpg,AMNE12.jpg,AMSA10.jpg,MS,2,num_2,32,num_4,1.36678597121,,,2017_May_25_1057,60.012107182,FEMA4ImagesEEG,001,200501,
,,,,,,,,,,,,,,,,,,,,,,,,,,,,,,,,,,,,,,,,,,,space,3.3668950228,2017_May_25_1057,60.012107182,FEMA4ImagesEEG,001,200501,
AFNE01.JPG,AFNE01.JPG,AFNE01.JPG,AFNE01.JPG,AFNE01.JPG,AFNE01.JPG,,,,,,,,,,,,,,,,,0,0,0,5,,,,,,,AFNE03.jpg,AFSA20.jpg,AFNE12.jpg,AFSA11.jpg,AFNE03.jpg,FN,3,num_8,32,num_4,1.38336533785,,,2017_May_25_1057,60.012107182,FEMA4ImagesEEG,001,200501,
AFNE01.JPG,AFNE01.JPG,AFNE01.JPG,AFNE01.JPG,AFNE01.JPG,AFNE01.JPG,,,,,,,,,,,,,,,,,0,1,1,3,,,,,,,AFNE15.jpg,AFSA17.jpg,AFSA08.jpg,AFNE11.jpg,AFNE15.jpg,FN,3,num_8,32,num_4,0.0168510333169,,,2017_May_25_1057,60.012107182,FEMA4ImagesEEG,001,200501,
AFNE01.JPG,AFNE01.JPG,AFNE01.JPG,AFNE01.JPG,AFNE01.JPG,AFNE01.JPG,,,,,,,,,,,,,,,,,0,2,2,9,,,,,,,AFNE14.jpg,AFNE06.jpg,AFSA13.jpg,AFSA07.jpg,AFSA07.jpg,FS,4,num_4,32,num_8,0.650223828387,,,2017_May_25_1057,60.012107182,FEMA4ImagesEEG,001,200501,
AFNE01.JPG,AFNE01.JPG,AFNE01.JPG,AFNE01.JPG,AFNE01.JPG,AFNE01.JPG,,,,,,,,,,,,,,,,,0,3,3,0,,,,,,,AFSA08.jpg,AFSA12.jpg,AFNE04.jpg,AFNE02.jpg,AFSA08.jpg,FS,4,num_8,16,num_8,1.30008778651,,,2017_May_25_1057,60.012107182,FEMA4ImagesEEG,001,200501,
AFNE01.JPG,AFNE01.JPG,AFNE01.JPG,AFNE01.JPG,AFNE01.JPG,AFNE01.JPG,,,,,,,,,,,,,,,,,0,4,4,2,,,,,,,AFSA03.jpg,AFNE12.jpg,AFSA09.jpg,AFNE04.jpg,AFSA03.jpg,FS,4,num_8,16,num_8,0.366854288732,,,2017_May_25_1057,60.012107182,FEMA4ImagesEEG,001,200501,
AFNE01.JPG,AFNE01.JPG,AFNE01.JPG,AFNE01.JPG,AFNE01.JPG,AFNE01.JPG,,,,,,,,,,,,,,,,,0,5,5,8,,,,,,,AFNE08.jpg,AFSA19.jpg,AFSA10.jpg,AFNE12.jpg,AFSA19.jpg,FS,4,num_6,32,num_8,0.566754474537,,,2017_May_25_1057,60.012107182,FEMA4ImagesEEG,001,200501,
AFNE01.JPG,AFNE01.JPG,AFNE01.JPG,AFNE01.JPG,AFNE01.JPG,AFNE01.JPG,,,,,,,,,,,,,,,,,0,6,6,4,,,,,,,AFSA02.jpg,AFNE20.jpg,AFSA12.jpg,AFNE15.jpg,AFSA02.jpg,FS,4,num_8,16,num_8,1.75001788116,,,2017_May_25_1057,60.012107182,FEMA4ImagesEEG,001,200501,
AFNE01.JPG,AFNE01.JPG,AFNE01.JPG,AFNE01.JPG,AFNE01.JPG,AFNE01.JPG,,,,,,,,,,,,,,,,,0,7,7,6,,,,,,,AFSA05.jpg,AFNE01.jpg,AFNE02.jpg,AFSA15.jpg,AFSA15.jpg,FS,4,num_4,16,num_4,0.566761530819,,,2017_May_25_1057,60.012107182,FEMA4ImagesEEG,001,200501,
AFNE01.JPG,AFNE01.JPG,AFNE01.JPG,AFNE01.JPG,AFNE01.JPG,AFNE01.JPG,,,,,,,,,,,,,,,,,0,8,8,1,,,,,,,AFSA06.jpg,AFNE15.jpg,AFNE12.jpg,AFSA05.jpg,AFNE15.jpg,FN,3,num_6,32,num_2,1.63344496151,,,2017_May_25_1057,60.012107182,FEMA4ImagesEEG,001,200501,
AFNE01.JPG,AFNE01.JPG,AFNE01.JPG,AFNE01.JPG,AFNE01.JPG,AFNE01.JPG,,,,,,,,,,,,,,,,,0,9,9,7,,,,,,,AFSA01.jpg,AFNE17.jpg,AFSA08.jpg,AFNE05.jpg,AFNE17.jpg,FN,3,num_6,32,num_4,0.650102267973,,,2017_May_25_1057,60.012107182,FEMA4ImagesEEG,001,200501,
AFNE01.JPG,AFNE01.JPG,AFNE01.JPG,AFNE01.JPG,AFNE01.JPG,AFNE01.JPG,,,,,,,,,,,,,,,,,1,0,10,5,,,,,,,AFSA10.jpg,AFNE05.jpg,AFSA02.jpg,AFNE19.jpg,AFSA10.jpg,FS,4,num_8,32,num_4,0.433560492122,,,2017_May_25_1057,60.012107182,FEMA4ImagesEEG,001,200501,
AFNE01.JPG,AFNE01.JPG,AFNE01.JPG,AFNE01.JPG,AFNE01.JPG,AFNE01.JPG,,,,,,,,,,,,,,,,,1,1,11,8,,,,,,,AFSA16.jpg,AFSA14.jpg,AFNE08.jpg,AFNE04.jpg,AFSA14.jpg,FS,4,num_6,32,num_4,0.716783453361,,,2017_May_25_1057,60.012107182,FEMA4ImagesEEG,001,200501,
AFNE01.JPG,AFNE01.JPG,AFNE01.JPG,AFNE01.JPG,AFNE01.JPG,AFNE01.JPG,,,,,,,,,,,,,,,,,1,2,12,2,,,,,,,AFNE04.jpg,AFNE20.jpg,AFSA15.jpg,AFSA11.jpg,AFNE20.jpg,FN,3,num_6,16,num_6,0.716784415534,,,2017_May_25_1057,60.012107182,FEMA4ImagesEEG,001,200501,
AFNE01.JPG,AFNE01.JPG,AFNE01.JPG,AFNE01.JPG,AFNE01.JPG,AFNE01.JPG,,,,,,,,,,,,,,,,,1,3,13,7,,,,,,,AFSA04.jpg,AFSA17.jpg,AFNE14.jpg,AFNE12.jpg,AFNE12.jpg,FN,3,num_4,32,num_2,3.2166152253,,,2017_May_25_1057,60.012107182,FEMA4ImagesEEG,001,200501,
AFNE01.JPG,AFNE01.JPG,AFNE01.JPG,AFNE01.JPG,AFNE01.JPG,AFNE01.JPG,,,,,,,,,,,,,,,,,1,4,14,0,,,,,,,AFNE18.jpg,AFSA14.jpg,AFNE04.jpg,AFSA06.jpg,AFSA06.jpg,FS,4,num_4,32,num_8,0.400136506883,,,2017_May_25_1057,60.012107182,FEMA4ImagesEEG,001,200501,
AFNE01.JPG,AFNE01.JPG,AFNE01.JPG,AFNE01.JPG,AFNE01.JPG,AFNE01.JPG,,,,,,,,,,,,,,,,,1,5,15,4,,,,,,,AFSA09.jpg,AFNE02.jpg,AFNE14.jpg,AFSA11.jpg,AFSA09.jpg,FS,4,num_8,32,num_6,0.65019496181,,,2017_May_25_1057,60.012107182,FEMA4ImagesEEG,001,200501,
AFNE01.JPG,AFNE01.JPG,AFNE01.JPG,AFNE01.JPG,AFNE01.JPG,AFNE01.JPG,,,,,,,,,,,,,,,,,1,6,16,1,,,,,,,AFNE13.jpg,AFSA13.jpg,AFNE03.jpg,AFSA08.jpg,AFNE13.jpg,FN,3,num_8,32,num_4,0.433506607777,,,2017_May_25_1057,60.012107182,FEMA4ImagesEEG,001,200501,
AFNE01.JPG,AFNE01.JPG,AFNE01.JPG,AFNE01.JPG,AFNE01.JPG,AFNE01.JPG,,,,,,,,,,,,,,,,,1,7,17,6,,,,,,,AFNE04.jpg,AFSA19.jpg,AFSA06.jpg,AFNE07.jpg,AFSA19.jpg,FS,4,num_6,32,num_2,0.66682660894,,,2017_May_25_1057,60.012107182,FEMA4ImagesEEG,001,200501,
AFNE01.JPG,AFNE01.JPG,AFNE01.JPG,AFNE01.JPG,AFNE01.JPG,AFNE01.JPG,,,,,,,,,,,,,,,,,1,8,18,3,,,,,,,AFSA05.jpg,AFSA10.jpg,AFNE16.jpg,AFNE02.jpg,AFNE02.jpg,FN,3,num_4,16,num_4,1.90003499272,,,2017_May_25_1057,60.012107182,FEMA4ImagesEEG,001,200501,
AFNE01.JPG,AFNE01.JPG,AFNE01.JPG,AFNE01.JPG,AFNE01.JPG,AFNE01.JPG,,,,,,,,,,,,,,,,,1,9,19,9,,,,,,,AFNE08.jpg,AFNE05.jpg,AFSA11.jpg,AFSA03.jpg,AFSA03.jpg,FS,4,num_4,16,num_4,0.583469834877,,,2017_May_25_1057,60.012107182,FEMA4ImagesEEG,001,200501,
AFNE01.JPG,AFNE01.JPG,AFNE01.JPG,AFNE01.JPG,AFNE01.JPG,AFNE01.JPG,,,,,,,,,,,,,,,,,2,0,20,5,,,,,,,AFNE17.jpg,AFSA14.jpg,AFSA19.jpg,AFNE10.jpg,AFNE17.jpg,FN,3,num_8,32,num_2,0.933495221427,,,2017_May_25_1057,60.012107182,FEMA4ImagesEEG,001,200501,
AFNE01.JPG,AFNE01.JPG,AFNE01.JPG,AFNE01.JPG,AFNE01.JPG,AFNE01.JPG,,,,,,,,,,,,,,,,,2,1,21,0,,,,,,,AFSA02.jpg,AFNE05.jpg,AFSA18.jpg,AFNE02.jpg,AFSA02.jpg,FS,4,num_8,32,num_4,0.500157643692,,,2017_May_25_1057,60.012107182,FEMA4ImagesEEG,001,200501,
AFNE01.JPG,AFNE01.JPG,AFNE01.JPG,AFNE01.JPG,AFNE01.JPG,AFNE01.JPG,,,,,,,,,,,,,,,,,2,2,22,2,,,,,,,AFSA04.jpg,AFNE20.jpg,AFNE05.jpg,AFSA19.jpg,AFNE05.jpg,FN,3,num_2,32,num_4,2.20026230114,,,2017_May_25_1057,60.012107182,FEMA4ImagesEEG,001,200501,
AFNE01.JPG,AFNE01.JPG,AFNE01.JPG,AFNE01.JPG,AFNE01.JPG,AFNE01.JPG,,,,,,,,,,,,,,,,,2,3,23,4,,,,,,,AFNE04.jpg,AFNE19.jpg,AFSA10.jpg,AFSA13.jpg,AFNE04.jpg,FN,3,num_8,32,num_4,4.3998587461,,,2017_May_25_1057,60.012107182,FEMA4ImagesEEG,001,200501,
AFNE01.JPG,AFNE01.JPG,AFNE01.JPG,AFNE01.JPG,AFNE01.JPG,AFNE01.JPG,,,,,,,,,,,,,,,,,2,4,24,3,,,,,,,AFNE06.jpg,AFSA19.jpg,AFNE05.jpg,AFSA20.jpg,AFNE05.jpg,FN,3,num_2,32,num_4,1.18342377665,,,2017_May_25_1057,60.012107182,FEMA4ImagesEEG,001,200501,
AFNE01.JPG,AFNE01.JPG,AFNE01.JPG,AFNE01.JPG,AFNE01.JPG,AFNE01.JPG,,,,,,,,,,,,,,,,,2,5,25,8,,,,,,,AFNE06.jpg,AFNE04.jpg,AFSA02.jpg,AFSA05.jpg,AFSA05.jpg,FS,4,num_4,16,num_4,0.683589118067,,,2017_May_25_1057,60.012107182,FEMA4ImagesEEG,001,200501,
AFNE01.JPG,AFNE01.JPG,AFNE01.JPG,AFNE01.JPG,AFNE01.JPG,AFNE01.JPG,,,,,,,,,,,,,,,,,2,6,26,9,,,,,,,AFSA08.jpg,AFNE09.jpg,AFSA20.jpg,AFNE11.jpg,AFNE11.jpg,FN,3,num_4,16,num_4,0.500205113203,,,2017_May_25_1057,60.012107182,FEMA4ImagesEEG,001,200501,
AFNE01.JPG,AFNE01.JPG,AFNE01.JPG,AFNE01.JPG,AFNE01.JPG,AFNE01.JPG,,,,,,,,,,,,,,,,,2,7,27,6,,,,,,,AFSA16.jpg,AFSA13.jpg,AFNE16.jpg,AFNE20.jpg,AFNE20.jpg,FN,3,num_4,16,num_4,0.516780630918,,,2017_May_25_1057,60.012107182,FEMA4ImagesEEG,001,200501,
AFNE01.JPG,AFNE01.JPG,AFNE01.JPG,AFNE01.JPG,AFNE01.JPG,AFNE01.JPG,,,,,,,,,,,,,,,,,2,8,28,1,,,,,,,AFNE07.jpg,AFSA04.jpg,AFNE13.jpg,AFSA20.jpg,AFNE07.jpg,FN,3,num_8,32,num_4,0.583468872705,,,2017_May_25_1057,60.012107182,FEMA4ImagesEEG,001,200501,
AFNE01.JPG,AFNE01.JPG,AFNE01.JPG,AFNE01.JPG,AFNE01.JPG,AFNE01.JPG,,,,,,,,,,,,,,,,,2,9,29,7,,,,,,,AFSA07.jpg,AFNE02.jpg,AFSA19.jpg,AFNE13.jpg,AFNE02.jpg,FN,3,num_6,16,num_6,3.99956251075,,,2017_May_25_1057,60.012107182,FEMA4ImagesEEG,001,200501,
AFNE01.JPG,AFNE01.JPG,AFNE01.JPG,AFNE01.JPG,AFNE01.JPG,AFNE01.JPG,,,,,,,,,,,,,,,,,3,0,30,2,,,,,,,AFSA11.jpg,AFSA02.jpg,AFNE11.jpg,AFNE17.jpg,AFSA02.jpg,FS,4,num_6,32,num_4,1.91653545725,,,2017_May_25_1057,60.012107182,FEMA4ImagesEEG,001,200501,
AFNE01.JPG,AFNE01.JPG,AFNE01.JPG,AFNE01.JPG,AFNE01.JPG,AFNE01.JPG,,,,,,,,,,,,,,,,,3,1,31,9,,,,,,,AFSA15.jpg,AFNE14.jpg,AFSA11.jpg,AFNE01.jpg,AFSA11.jpg,FS,4,num_2,32,num_6,0.983417105279,,,2017_May_25_1057,60.012107182,FEMA4ImagesEEG,001,200501,
AFNE01.JPG,AFNE01.JPG,AFNE01.JPG,AFNE01.JPG,AFNE01.JPG,AFNE01.JPG,,,,,,,,,,,,,,,,,3,2,32,8,,,,,,,AFSA15.jpg,AFNE02.jpg,AFNE10.jpg,AFSA01.jpg,AFNE10.jpg,FN,3,num_2,32,num_4,0.516777744284,,,2017_May_25_1057,60.012107182,FEMA4ImagesEEG,001,200501,
AFNE01.JPG,AFNE01.JPG,AFNE01.JPG,AFNE01.JPG,AFNE01.JPG,AFNE01.JPG,,,,,,,,,,,,,,,,,3,3,33,1,,,,,,,AFSA15.jpg,AFNE02.jpg,AFNE12.jpg,AFSA07.jpg,AFNE02.jpg,FN,3,num_6,32,num_4,0.583635978168,,,2017_May_25_1057,60.012107182,FEMA4ImagesEEG,001,200501,
AFNE01.JPG,AFNE01.JPG,AFNE01.JPG,AFNE01.JPG,AFNE01.JPG,AFNE01.JPG,,,,,,,,,,,,,,,,,3,4,34,6,,,,,,,AFSA17.jpg,AFSA08.jpg,AFNE08.jpg,AFNE09.jpg,AFSA17.jpg,FS,4,num_8,32,num_6,0.600031881477,,,2017_May_25_1057,60.012107182,FEMA4ImagesEEG,001,200501,
AFNE01.JPG,AFNE01.JPG,AFNE01.JPG,AFNE01.JPG,AFNE01.JPG,AFNE01.JPG,,,,,,,,,,,,,,,,,3,5,35,7,,,,,,,AFSA07.jpg,AFNE02.jpg,AFNE18.jpg,AFSA16.jpg,AFSA16.jpg,FS,4,num_4,16,num_4,0.466804221272,,,2017_May_25_1057,60.012107182,FEMA4ImagesEEG,001,200501,
AFNE01.JPG,AFNE01.JPG,AFNE01.JPG,AFNE01.JPG,AFNE01.JPG,AFNE01.JPG,,,,,,,,,,,,,,,,,3,6,36,0,,,,,,,AFSA14.jpg,AFNE01.jpg,AFNE07.jpg,AFSA19.jpg,AFNE01.jpg,FN,3,num_6,32,num_2,0.166817467893,,,2017_May_25_1057,60.012107182,FEMA4ImagesEEG,001,200501,
AFNE01.JPG,AFNE01.JPG,AFNE01.JPG,AFNE01.JPG,AFNE01.JPG,AFNE01.JPG,,,,,,,,,,,,,,,,,3,7,37,4,,,,,,,AFSA14.jpg,AFSA11.jpg,AFNE17.jpg,AFNE03.jpg,AFNE17.jpg,FN,3,num_2,32,num_8,0.466780807241,,,2017_May_25_1057,60.012107182,FEMA4ImagesEEG,001,200501,
AFNE01.JPG,AFNE01.JPG,AFNE01.JPG,AFNE01.JPG,AFNE01.JPG,AFNE01.JPG,,,,,,,,,,,,,,,,,3,8,38,3,,,,,,,AFNE01.jpg,AFNE20.jpg,AFSA01.jpg,AFSA11.jpg,AFSA01.jpg,FS,4,num_2,32,num_4,0.60014093318,,,2017_May_25_1057,60.012107182,FEMA4ImagesEEG,001,200501,
AFNE01.JPG,AFNE01.JPG,AFNE01.JPG,AFNE01.JPG,AFNE01.JPG,AFNE01.JPG,,,,,,,,,,,,,,,,,3,9,39,5,,,,,,,AFNE17.jpg,AFNE07.jpg,AFSA04.jpg,AFSA16.jpg,AFNE07.jpg,FN,3,num_6,16,num_6,0.483500658069,,,2017_May_25_1057,60.012107182,FEMA4ImagesEEG,001,200501,
AFNE01.JPG,AFNE01.JPG,AFNE01.JPG,AFNE01.JPG,AFNE01.JPG,AFNE01.JPG,,,,,,,,,,,,,,,,,4,0,40,6,,,,,,,AFSA19.jpg,AFNE10.jpg,AFNE18.jpg,AFSA13.jpg,AFSA19.jpg,FS,4,num_8,32,num_4,0.516813346301,,,2017_May_25_1057,60.012107182,FEMA4ImagesEEG,001,200501,
AFNE01.JPG,AFNE01.JPG,AFNE01.JPG,AFNE01.JPG,AFNE01.JPG,AFNE01.JPG,,,,,,,,,,,,,,,,,4,1,41,0,,,,,,,AFNE18.jpg,AFSA11.jpg,AFNE17.jpg,AFSA14.jpg,AFSA14.jpg,FS,4,num_4,32,num_6,0.166852428578,,,2017_May_25_1057,60.012107182,FEMA4ImagesEEG,001,200501,
AFNE01.JPG,AFNE01.JPG,AFNE01.JPG,AFNE01.JPG,AFNE01.JPG,AFNE01.JPG,,,,,,,,,,,,,,,,,4,2,42,5,,,,,,,AFNE05.jpg,AFSA13.jpg,AFNE11.jpg,AFSA08.jpg,AFSA13.jpg,FS,4,num_6,32,num_4,0.900115498458,,,2017_May_25_1057,60.012107182,FEMA4ImagesEEG,001,200501,
AFNE01.JPG,AFNE01.JPG,AFNE01.JPG,AFNE01.JPG,AFNE01.JPG,AFNE01.JPG,,,,,,,,,,,,,,,,,4,3,43,2,,,,,,,AFSA05.jpg,AFNE01.jpg,AFSA08.jpg,AFNE02.jpg,AFNE02.jpg,FN,3,num_4,16,num_4,0.0834982204251,,,2017_May_25_1057,60.012107182,FEMA4ImagesEEG,001,200501,
AFNE01.JPG,AFNE01.JPG,AFNE01.JPG,AFNE01.JPG,AFNE01.JPG,AFNE01.JPG,,,,,,,,,,,,,,,,,4,4,44,9,,,,,,,AFNE04.jpg,AFNE14.jpg,AFSA20.jpg,AFSA19.jpg,AFSA19.jpg,FS,4,num_4,32,num_8,0.700436943909,,,2017_May_25_1057,60.012107182,FEMA4ImagesEEG,001,200501,
AFNE01.JPG,AFNE01.JPG,AFNE01.JPG,AFNE01.JPG,AFNE01.JPG,AFNE01.JPG,,,,,,,,,,,,,,,,,4,5,45,1,,,,,,,AFSA02.jpg,AFSA03.jpg,AFNE02.jpg,AFNE07.jpg,AFNE07.jpg,FN,3,num_4,32,num_8,0.950108586578,,,2017_May_25_1057,60.012107182,FEMA4ImagesEEG,001,200501,
AFNE01.JPG,AFNE01.JPG,AFNE01.JPG,AFNE01.JPG,AFNE01.JPG,AFNE01.JPG,,,,,,,,,,,,,,,,,4,6,46,8,,,,,,,AFNE14.jpg,AFNE12.jpg,AFSA03.jpg,AFSA20.jpg,AFNE12.jpg,FN,3,num_6,16,num_6,0.583431666833,,,2017_May_25_1057,60.012107182,FEMA4ImagesEEG,001,200501,
AFNE01.JPG,AFNE01.JPG,AFNE01.JPG,AFNE01.JPG,AFNE01.JPG,AFNE01.JPG,,,,,,,,,,,,,,,,,4,7,47,3,,,,,,,AFSA05.jpg,AFSA19.jpg,AFNE18.jpg,AFNE03.jpg,AFSA05.jpg,FS,4,num_8,32,num_4,0.716786660836,,,2017_May_25_1057,60.012107182,FEMA4ImagesEEG,001,200501,
AFNE01.JPG,AFNE01.JPG,AFNE01.JPG,AFNE01.JPG,AFNE01.JPG,AFNE01.JPG,,,,,,,,,,,,,,,,,4,8,48,7,,,,,,,AFSA06.jpg,AFNE18.jpg,AFSA20.jpg,AFNE14.jpg,AFSA20.jpg,FS,4,num_2,16,num_2,1.2667901729,,,2017_May_25_1057,60.012107182,FEMA4ImagesEEG,001,200501,
AFNE01.JPG,AFNE01.JPG,AFNE01.JPG,AFNE01.JPG,AFNE01.JPG,AFNE01.JPG,,,,,,,,,,,,,,,,,4,9,49,4,,,,,,,AFSA09.jpg,AFSA20.jpg,AFNE08.jpg,AFNE04.jpg,AFNE04.jpg,FN,3,num_4,32,num_6,0.500167265884,,,2017_May_25_1057,60.012107182,FEMA4ImagesEEG,001,200501,
AFNE01.JPG,AFNE01.JPG,AFNE01.JPG,AFNE01.JPG,AFNE01.JPG,AFNE01.JPG,,,,,,,,,,,,,,,,,5,0,50,2,,,,,,,AFSA06.jpg,AFNE11.jpg,AFNE04.jpg,AFSA12.jpg,AFSA12.jpg,FS,4,num_4,16,num_4,0.650119587779,,,2017_May_25_1057,60.012107182,FEMA4ImagesEEG,001,200501,
AFNE01.JPG,AFNE01.JPG,AFNE01.JPG,AFNE01.JPG,AFNE01.JPG,AFNE01.JPG,,,,,,,,,,,,,,,,,5,1,51,9,,,,,,,AFNE10.jpg,AFSA12.jpg,AFNE20.jpg,AFSA20.jpg,AFNE10.jpg,FN,3,num_8,16,num_8,0.766722336411,,,2017_May_25_1057,60.012107182,FEMA4ImagesEEG,001,200501,
AFNE01.JPG,AFNE01.JPG,AFNE01.JPG,AFNE01.JPG,AFNE01.JPG,AFNE01.JPG,,,,,,,,,,,,,,,,,5,2,52,8,,,,,,,AFNE20.jpg,AFSA15.jpg,AFSA18.jpg,AFNE04.jpg,AFSA15.jpg,FS,4,num_6,32,num_4,1.19980652968,,,2017_May_25_1057,60.012107182,FEMA4ImagesEEG,001,200501,
AFNE01.JPG,AFNE01.JPG,AFNE01.JPG,AFNE01.JPG,AFNE01.JPG,AFNE01.JPG,,,,,,,,,,,,,,,,,5,3,53,6,,,,,,,AFSA12.jpg,AFNE04.jpg,AFNE07.jpg,AFSA19.jpg,AFSA12.jpg,FS,4,num_8,32,num_2,1.9167022421,,,2017_May_25_1057,60.012107182,FEMA4ImagesEEG,001,200501,
AFNE01.JPG,AFNE01.JPG,AFNE01.JPG,AFNE01.JPG,AFNE01.JPG,AFNE01.JPG,,,,,,,,,,,,,,,,,5,4,54,5,,,,,,,AFSA17.jpg,AFNE19.jpg,AFSA03.jpg,AFNE18.jpg,AFSA03.jpg,FS,4,num_2,32,num_4,0.483481413685,,,2017_May_25_1057,60.012107182,FEMA4ImagesEEG,001,200501,
AFNE01.JPG,AFNE01.JPG,AFNE01.JPG,AFNE01.JPG,AFNE01.JPG,AFNE01.JPG,,,,,,,,,,,,,,,,,5,5,55,1,,,,,,,AFSA02.jpg,AFNE20.jpg,AFSA16.jpg,AFNE12.jpg,AFNE20.jpg,FN,3,num_6,16,num_6,0.700144108385,,,2017_May_25_1057,60.012107182,FEMA4ImagesEEG,001,200501,
AFNE01.JPG,AFNE01.JPG,AFNE01.JPG,AFNE01.JPG,AFNE01.JPG,AFNE01.JPG,,,,,,,,,,,,,,,,,5,6,56,7,,,,,,,AFNE19.jpg,AFSA05.jpg,AFNE20.jpg,AFSA01.jpg,AFSA05.jpg,FS,4,num_6,32,num_4,0.583482023096,,,2017_May_25_1057,60.012107182,FEMA4ImagesEEG,001,200501,
AFNE01.JPG,AFNE01.JPG,AFNE01.JPG,AFNE01.JPG,AFNE01.JPG,AFNE01.JPG,,,,,,,,,,,,,,,,,5,7,57,3,,,,,,,AFNE13.jpg,AFNE04.jpg,AFSA03.jpg,AFSA14.jpg,AFSA03.jpg,FS,4,num_2,32,num_4,0.466801976087,,,2017_May_25_1057,60.012107182,FEMA4ImagesEEG,001,200501,
AFNE01.JPG,AFNE01.JPG,AFNE01.JPG,AFNE01.JPG,AFNE01.JPG,AFNE01.JPG,,,,,,,,,,,,,,,,,5,8,58,0,,,,,,,AFSA20.jpg,AFNE10.jpg,AFSA14.jpg,AFNE20.jpg,AFSA14.jpg,FS,4,num_2,32,num_4,1.36641455442,,,2017_May_25_1057,60.012107182,FEMA4ImagesEEG,001,200501,
AFNE01.JPG,AFNE01.JPG,AFNE01.JPG,AFNE01.JPG,AFNE01.JPG,AFNE01.JPG,,,,,,,,,,,,,,,,,5,9,59,4,,,,,,,AFNE20.jpg,AFNE09.jpg,AFSA04.jpg,AFSA08.jpg,AFNE09.jpg,FN,3,num_6,32,num_4,0.600108538289,,,2017_May_25_1057,60.012107182,FEMA4ImagesEEG,001,200501,
,,,,,,,,,,,,,,,,,,,,,,,,,,,,,,,,,,,,,,,,,,,space,4.96630466892,2017_May_25_1057,60.012107182,FEMA4ImagesEEG,001,200501,
AFNE01.JPG,AFNE01.JPG,AFNE01.JPG,AFNE01.JPG,AFNE01.JPG,AFNE01.JPG,,,,,,,,,,,,,,,,,,,,,0,0,0,0,,,AMSA11.jpg,AMNE06.jpg,AMSA19.jpg,AMNE13.jpg,AMSA11.jpg,MS,2,num_8,32,num_4,0.866834242595,,,2017_May_25_1057,60.012107182,FEMA4ImagesEEG,001,200501,
AFNE01.JPG,AFNE01.JPG,AFNE01.JPG,AFNE01.JPG,AFNE01.JPG,AFNE01.JPG,,,,,,,,,,,,,,,,,,,,,0,1,1,2,,,AMNE06.jpg,AMSA12.jpg,AMNE20.jpg,AMSA10.jpg,AMSA12.jpg,MS,2,num_6,32,num_4,0.516814629314,,,2017_May_25_1057,60.012107182,FEMA4ImagesEEG,001,200501,
AFNE01.JPG,AFNE01.JPG,AFNE01.JPG,AFNE01.JPG,AFNE01.JPG,AFNE01.JPG,,,,,,,,,,,,,,,,,,,,,0,2,2,4,,,AMNE17.jpg,AMSA10.jpg,AMSA04.jpg,AMNE01.jpg,AMSA10.jpg,MS,2,num_6,16,num_6,0.983448858489,,,2017_May_25_1057,60.012107182,FEMA4ImagesEEG,001,200501,
AFNE01.JPG,AFNE01.JPG,AFNE01.JPG,AFNE01.JPG,AFNE01.JPG,AFNE01.JPG,,,,,,,,,,,,,,,,,,,,,0,3,3,9,,,AMNE14.jpg,AMSA17.jpg,AMSA18.jpg,AMNE07.jpg,AMNE14.jpg,MN,1,num_8,32,num_4,0.533319904935,,,2017_May_25_1057,60.012107182,FEMA4ImagesEEG,001,200501,
AFNE01.JPG,AFNE01.JPG,AFNE01.JPG,AFNE01.JPG,AFNE01.JPG,AFNE01.JPG,,,,,,,,,,,,,,,,,,,,,0,4,4,5,,,AMNE12.jpg,AMNE05.jpg,AMSA20.jpg,AMSA08.jpg,AMSA20.jpg,MS,2,num_2,32,num_8,0.700138976565,,,2017_May_25_1057,60.012107182,FEMA4ImagesEEG,001,200501,
AFNE01.JPG,AFNE01.JPG,AFNE01.JPG,AFNE01.JPG,AFNE01.JPG,AFNE01.JPG,,,,,,,,,,,,,,,,,,,,,0,5,5,3,,,AMNE09.jpg,AMSA06.jpg,AMSA02.jpg,AMNE11.jpg,AMNE11.jpg,MN,1,num_4,32,num_6,0.850112146698,,,2017_May_25_1057,60.012107182,FEMA4ImagesEEG,001,200501,
AFNE01.JPG,AFNE01.JPG,AFNE01.JPG,AFNE01.JPG,AFNE01.JPG,AFNE01.JPG,,,,,,,,,,,,,,,,,,,,,0,6,6,6,,,AMSA16.jpg,AMSA02.jpg,AMNE04.jpg,AMNE20.jpg,AMNE04.jpg,MN,1,num_2,32,num_4,0.583463099319,,,2017_May_25_1057,60.012107182,FEMA4ImagesEEG,001,200501,
AFNE01.JPG,AFNE01.JPG,AFNE01.JPG,AFNE01.JPG,AFNE01.JPG,AFNE01.JPG,,,,,,,,,,,,,,,,,,,,,0,7,7,7,,,AMSA09.jpg,AMSA14.jpg,AMNE01.jpg,AMNE06.jpg,AMSA14.jpg,MS,2,num_6,32,num_8,0.433496664744,,,2017_May_25_1057,60.012107182,FEMA4ImagesEEG,001,200501,
AFNE01.JPG,AFNE01.JPG,AFNE01.JPG,AFNE01.JPG,AFNE01.JPG,AFNE01.JPG,,,,,,,,,,,,,,,,,,,,,0,8,8,8,,,AMNE08.jpg,AMNE12.jpg,AMSA04.jpg,AMSA10.jpg,AMSA04.jpg,MS,2,num_2,32,num_6,0.516772612347,,,2017_May_25_1057,60.012107182,FEMA4ImagesEEG,001,200501,
AFNE01.JPG,AFNE01.JPG,AFNE01.JPG,AFNE01.JPG,AFNE01.JPG,AFNE01.JPG,,,,,,,,,,,,,,,,,,,,,0,9,9,1,,,AMSA12.jpg,AMSA14.jpg,AMNE12.jpg,AMNE05.jpg,AMSA14.jpg,MS,2,num_6,16,num_6,3.28332591883,,,2017_May_25_1057,60.012107182,FEMA4ImagesEEG,001,200501,
AFNE01.JPG,AFNE01.JPG,AFNE01.JPG,AFNE01.JPG,AFNE01.JPG,AFNE01.JPG,,,,,,,,,,,,,,,,,,,,,1,0,10,7,,,AMSA05.jpg,AMSA12.jpg,AMNE05.jpg,AMNE18.jpg,AMSA12.jpg,MS,2,num_6,32,num_8,3.48324246227,,,2017_May_25_1057,60.012107182,FEMA4ImagesEEG,001,200501,
AFNE01.JPG,AFNE01.JPG,AFNE01.JPG,AFNE01.JPG,AFNE01.JPG,AFNE01.JPG,,,,,,,,,,,,,,,,,,,,,1,1,11,3,,,AMSA05.jpg,AMNE14.jpg,AMNE03.jpg,AMSA18.jpg,AMNE14.jpg,MN,1,num_6,32,num_8,0.450153329642,,,2017_May_25_1057,60.012107182,FEMA4ImagesEEG,001,200501,
AFNE01.JPG,AFNE01.JPG,AFNE01.JPG,AFNE01.JPG,AFNE01.JPG,AFNE01.JPG,,,,,,,,,,,,,,,,,,,,,1,2,12,8,,,AMSA02.jpg,AMNE06.jpg,AMSA09.jpg,AMNE16.jpg,AMSA09.jpg,MS,2,num_2,32,num_8,0.433477099636,,,2017_May_25_1057,60.012107182,FEMA4ImagesEEG,001,200501,
AFNE01.JPG,AFNE01.JPG,AFNE01.JPG,AFNE01.JPG,AFNE01.JPG,AFNE01.JPG,,,,,,,,,,,,,,,,,,,,,1,3,13,5,,,AMSA02.jpg,AMNE18.jpg,AMSA12.jpg,AMNE14.jpg,AMNE18.jpg,MN,1,num_6,32,num_2,0.283488854766,,,2017_May_25_1057,60.012107182,FEMA4ImagesEEG,001,200501,
AFNE01.JPG,AFNE01.JPG,AFNE01.JPG,AFNE01.JPG,AFNE01.JPG,AFNE01.JPG,,,,,,,,,,,,,,,,,,,,,1,4,14,1,,,AMNE15.jpg,AMSA20.jpg,AMNE16.jpg,AMSA17.jpg,AMNE15.jpg,MN,1,num_8,16,num_8,0.13348810107,,,2017_May_25_1057,60.012107182,FEMA4ImagesEEG,001,200501,
AFNE01.JPG,AFNE01.JPG,AFNE01.JPG,AFNE01.JPG,AFNE01.JPG,AFNE01.JPG,,,,,,,,,,,,,,,,,,,,,1,5,15,4,,,AMSA12.jpg,AMNE18.jpg,AMNE10.jpg,AMSA14.jpg,AMNE18.jpg,MN,1,num_6,16,num_6,0.400138752069,,,2017_May_25_1057,60.012107182,FEMA4ImagesEEG,001,200501,
AFNE01.JPG,AFNE01.JPG,AFNE01.JPG,AFNE01.JPG,AFNE01.JPG,AFNE01.JPG,,,,,,,,,,,,,,,,,,,,,1,6,16,2,,,AMNE20.jpg,AMSA18.jpg,AMSA19.jpg,AMNE19.jpg,AMSA18.jpg,MS,2,num_6,32,num_4,0.450144990464,,,2017_May_25_1057,60.012107182,FEMA4ImagesEEG,001,200501,
AFNE01.JPG,AFNE01.JPG,AFNE01.JPG,AFNE01.JPG,AFNE01.JPG,AFNE01.JPG,,,,,,,,,,,,,,,,,,,,,1,7,17,9,,,AMSA06.jpg,AMNE20.jpg,AMNE02.jpg,AMSA04.jpg,AMNE02.jpg,MN,1,num_2,32,num_4,0.467077812529,,,2017_May_25_1057,60.012107182,FEMA4ImagesEEG,001,200501,
AFNE01.JPG,AFNE01.JPG,AFNE01.JPG,AFNE01.JPG,AFNE01.JPG,AFNE01.JPG,,,,,,,,,,,,,,,,,,,,,1,8,18,6,,,AMSA18.jpg,AMSA02.jpg,AMNE06.jpg,AMNE10.jpg,AMSA02.jpg,MS,2,num_6,32,num_4,0.450017977506,,,2017_May_25_1057,60.012107182,FEMA4ImagesEEG,001,200501,
AFNE01.JPG,AFNE01.JPG,AFNE01.JPG,AFNE01.JPG,AFNE01.JPG,AFNE01.JPG,,,,,,,,,,,,,,,,,,,,,1,9,19,0,,,AMSA10.jpg,AMSA18.jpg,AMNE17.jpg,AMNE11.jpg,AMSA10.jpg,MS,2,num_8,32,num_4,0.450108426157,,,2017_May_25_1057,60.012107182,FEMA4ImagesEEG,001,200501,
AFNE01.JPG,AFNE01.JPG,AFNE01.JPG,AFNE01.JPG,AFNE01.JPG,AFNE01.JPG,,,,,,,,,,,,,,,,,,,,,2,0,20,6,,,AMNE20.jpg,AMSA15.jpg,AMSA05.jpg,AMNE15.jpg,AMNE15.jpg,MN,1,num_4,16,num_4,0.350152399507,,,2017_May_25_1057,60.012107182,FEMA4ImagesEEG,001,200501,
AFNE01.JPG,AFNE01.JPG,AFNE01.JPG,AFNE01.JPG,AFNE01.JPG,AFNE01.JPG,,,,,,,,,,,,,,,,,,,,,2,1,21,2,,,AMSA10.jpg,AMNE12.jpg,AMNE11.jpg,AMSA19.jpg,AMSA19.jpg,MS,2,num_4,32,num_6,1.38340446807,,,2017_May_25_1057,60.012107182,FEMA4ImagesEEG,001,200501,
AFNE01.JPG,AFNE01.JPG,AFNE01.JPG,AFNE01.JPG,AFNE01.JPG,AFNE01.JPG,,,,,,,,,,,,,,,,,,,,,2,2,22,5,,,AMSA18.jpg,AMSA11.jpg,AMNE03.jpg,AMNE17.jpg,AMSA18.jpg,MS,2,num_8,32,num_4,0.600163705647,,,2017_May_25_1057,60.012107182,FEMA4ImagesEEG,001,200501,
AFNE01.JPG,AFNE01.JPG,AFNE01.JPG,AFNE01.JPG,AFNE01.JPG,AFNE01.JPG,,,,,,,,,,,,,,,,,,,,,2,3,23,1,,,AMSA02.jpg,AMSA04.jpg,AMNE15.jpg,AMNE08.jpg,AMNE08.jpg,MN,1,num_4,16,num_4,0.60018134641,,,2017_May_25_1057,60.012107182,FEMA4ImagesEEG,001,200501,
AFNE01.JPG,AFNE01.JPG,AFNE01.JPG,AFNE01.JPG,AFNE01.JPG,AFNE01.JPG,,,,,,,,,,,,,,,,,,,,,2,4,24,9,,,AMSA01.jpg,AMNE06.jpg,AMSA18.jpg,AMNE10.jpg,AMSA01.jpg,MS,2,num_8,32,num_6,0.733433703543,,,2017_May_25_1057,60.012107182,FEMA4ImagesEEG,001,200501,
AFNE01.JPG,AFNE01.JPG,AFNE01.JPG,AFNE01.JPG,AFNE01.JPG,AFNE01.JPG,,,,,,,,,,,,,,,,,,,,,2,5,25,7,,,AMNE07.jpg,AMSA17.jpg,AMNE11.jpg,AMSA01.jpg,AMNE11.jpg,MN,1,num_2,32,num_4,3.01618870546,,,2017_May_25_1057,60.012107182,FEMA4ImagesEEG,001,200501,
AFNE01.JPG,AFNE01.JPG,AFNE01.JPG,AFNE01.JPG,AFNE01.JPG,AFNE01.JPG,,,,,,,,,,,,,,,,,,,,,2,6,26,4,,,AMSA13.jpg,AMNE12.jpg,AMSA03.jpg,AMNE01.jpg,AMSA03.jpg,MS,2,num_2,32,num_4,2.3500504042,,,2017_May_25_1057,60.012107182,FEMA4ImagesEEG,001,200501,
AFNE01.JPG,AFNE01.JPG,AFNE01.JPG,AFNE01.JPG,AFNE01.JPG,AFNE01.JPG,,,,,,,,,,,,,,,,,,,,,2,7,27,3,,,AMSA11.jpg,AMSA20.jpg,AMNE17.jpg,AMNE14.jpg,AMNE14.jpg,MN,1,num_4,16,num_4,0.733445891645,,,2017_May_25_1057,60.012107182,FEMA4ImagesEEG,001,200501,
AFNE01.JPG,AFNE01.JPG,AFNE01.JPG,AFNE01.JPG,AFNE01.JPG,AFNE01.JPG,,,,,,,,,,,,,,,,,,,,,2,8,28,0,,,AMSA13.jpg,AMNE15.jpg,AMNE10.jpg,AMSA15.jpg,AMNE10.jpg,MN,1,num_2,32,num_4,0.633725608932,,,2017_May_25_1057,60.012107182,FEMA4ImagesEEG,001,200501,
AFNE01.JPG,AFNE01.JPG,AFNE01.JPG,AFNE01.JPG,AFNE01.JPG,AFNE01.JPG,,,,,,,,,,,,,,,,,,,,,2,9,29,8,,,AMSA17.jpg,AMNE17.jpg,AMNE13.jpg,AMSA09.jpg,AMNE13.jpg,MN,1,num_2,32,num_4,0.38351736858,,,2017_May_25_1057,60.012107182,FEMA4ImagesEEG,001,200501,
AFNE01.JPG,AFNE01.JPG,AFNE01.JPG,AFNE01.JPG,AFNE01.JPG,AFNE01.JPG,,,,,,,,,,,,,,,,,,,,,3,0,30,6,,,AMNE04.jpg,AMNE14.jpg,AMSA05.jpg,AMSA13.jpg,AMNE14.jpg,MN,1,num_6,16,num_6,2.16663817433,,,2017_May_25_1057,60.012107182,FEMA4ImagesEEG,001,200501,
AFNE01.JPG,AFNE01.JPG,AFNE01.JPG,AFNE01.JPG,AFNE01.JPG,AFNE01.JPG,,,,,,,,,,,,,,,,,,,,,3,1,31,4,,,AMSA12.jpg,AMSA04.jpg,AMNE13.jpg,AMNE17.jpg,AMNE13.jpg,MN,1,num_2,32,num_8,1.90002633282,,,2017_May_25_1057,60.012107182,FEMA4ImagesEEG,001,200501,
AFNE01.JPG,AFNE01.JPG,AFNE01.JPG,AFNE01.JPG,AFNE01.JPG,AFNE01.JPG,,,,,,,,,,,,,,,,,,,,,3,2,32,5,,,AMSA01.jpg,AMNE11.jpg,AMNE12.jpg,AMSA10.jpg,AMSA10.jpg,MS,2,num_4,32,num_8,0.483420473058,,,2017_May_25_1057,60.012107182,FEMA4ImagesEEG,001,200501,
AFNE01.JPG,AFNE01.JPG,AFNE01.JPG,AFNE01.JPG,AFNE01.JPG,AFNE01.JPG,,,,,,,,,,,,,,,,,,,,,3,3,33,9,,,AMNE20.jpg,AMSA09.jpg,AMNE02.jpg,AMSA05.jpg,AMSA05.jpg,MS,2,num_4,16,num_4,0.466807428747,,,2017_May_25_1057,60.012107182,FEMA4ImagesEEG,001,200501,
AFNE01.JPG,AFNE01.JPG,AFNE01.JPG,AFNE01.JPG,AFNE01.JPG,AFNE01.JPG,,,,,,,,,,,,,,,,,,,,,3,4,34,1,,,AMSA02.jpg,AMSA07.jpg,AMNE04.jpg,AMNE18.jpg,AMNE18.jpg,MN,1,num_4,32,num_6,0.400156071992,,,2017_May_25_1057,60.012107182,FEMA4ImagesEEG,001,200501,
AFNE01.JPG,AFNE01.JPG,AFNE01.JPG,AFNE01.JPG,AFNE01.JPG,AFNE01.JPG,,,,,,,,,,,,,,,,,,,,,3,5,35,0,,,AMSA20.jpg,AMNE17.jpg,AMNE16.jpg,AMSA08.jpg,AMSA20.jpg,MS,2,num_8,32,num_4,0.666762140347,,,2017_May_25_1057,60.012107182,FEMA4ImagesEEG,001,200501,
AFNE01.JPG,AFNE01.JPG,AFNE01.JPG,AFNE01.JPG,AFNE01.JPG,AFNE01.JPG,,,,,,,,,,,,,,,,,,,,,3,6,36,8,,,AMSA15.jpg,AMNE19.jpg,AMSA10.jpg,AMNE11.jpg,AMSA15.jpg,MS,2,num_8,32,num_4,0.449847343843,,,2017_May_25_1057,60.012107182,FEMA4ImagesEEG,001,200501,
AFNE01.JPG,AFNE01.JPG,AFNE01.JPG,AFNE01.JPG,AFNE01.JPG,AFNE01.JPG,,,,,,,,,,,,,,,,,,,,,3,7,37,2,,,AMSA14.jpg,AMSA16.jpg,AMNE04.jpg,AMNE06.jpg,AMNE06.jpg,MN,1,num_4,16,num_4,0.4001756371,,,2017_May_25_1057,60.012107182,FEMA4ImagesEEG,001,200501,
AFNE01.JPG,AFNE01.JPG,AFNE01.JPG,AFNE01.JPG,AFNE01.JPG,AFNE01.JPG,,,,,,,,,,,,,,,,,,,,,3,8,38,3,,,AMSA03.jpg,AMNE08.jpg,AMNE19.jpg,AMSA04.jpg,AMNE08.jpg,MN,1,num_6,32,num_4,0.700143466936,,,2017_May_25_1057,60.012107182,FEMA4ImagesEEG,001,200501,
AFNE01.JPG,AFNE01.JPG,AFNE01.JPG,AFNE01.JPG,AFNE01.JPG,AFNE01.JPG,,,,,,,,,,,,,,,,,,,,,3,9,39,7,,,AMNE15.jpg,AMSA01.jpg,AMNE13.jpg,AMSA15.jpg,AMSA01.jpg,MS,2,num_6,32,num_4,0.566794567043,,,2017_May_25_1057,60.012107182,FEMA4ImagesEEG,001,200501,
AFNE01.JPG,AFNE01.JPG,AFNE01.JPG,AFNE01.JPG,AFNE01.JPG,AFNE01.JPG,,,,,,,,,,,,,,,,,,,,,4,0,40,3,,,AMSA06.jpg,AMNE20.jpg,AMNE14.jpg,AMSA12.jpg,AMSA12.jpg,MS,2,num_4,16,num_4,0.466748412582,,,2017_May_25_1057,60.012107182,FEMA4ImagesEEG,001,200501,
