IPosition2,IPosition3,IPosition1,IPosition6,IPosition4,IPosition5,TrialsF1.thisRepN,TrialsF1.thisTrialN,TrialsF1.thisN,TrialsF1.thisIndex,TrialsM1.thisRepN,TrialsM1.thisTrialN,TrialsM1.thisN,TrialsM1.thisIndex,TrialsF2.thisRepN,TrialsF2.thisTrialN,TrialsF2.thisN,TrialsF2.thisIndex,TrialsM2.thisRepN,TrialsM2.thisTrialN,TrialsM2.thisN,TrialsM2.thisIndex,TrialsF3.thisRepN,TrialsF3.thisTrialN,TrialsF3.thisN,TrialsF3.thisIndex,TrialsM3.thisRepN,TrialsM3.thisTrialN,TrialsM3.thisN,TrialsM3.thisIndex,InstrKey_resp.keys,InstrKey_resp.rt,Image0 _Position,Image1 _Position,Image2 _Position,Image3 _Position,Center_image,condition,code,correct_answer,accuracy,Key_Resp.keys,Key_Resp.rt,BreakKey_resp.keys,BreakKey_resp.rt,date,frameRate,expName,session,participant,
,,,,,,,,,,,,,,,,,,,,,,,,,,,,,,space,1.41675906628,,,,,,,,,,,,,,2017_Jun_12_1246,59.9997883088,FEMA4ImagesEEG,001,200552,
AMNE22.JPG,AMSA24.JPG,AMSA22.JPG,AMNE25.JPG,AMNE24.JPG,AMSA25.JPG,0,0,0,7,,,,,,,,,,,,,,,,,,,,,,,AFNE11.jpg,AFSA04.jpg,AFNE16.jpg,AFSA13.jpg,AFSA13.jpg,FS,4,num_4,32,num_8,1.15009177948,,,2017_Jun_12_1246,59.9997883088,FEMA4ImagesEEG,001,200552,
AFNE23.JPG,AFNE24.JPG,AFNE22.JPG,AFSA24.JPG,AFSA22.JPG,AFSA23.JPG,0,1,1,8,,,,,,,,,,,,,,,,,,,,,,,AFNE20.jpg,AFSA07.jpg,AFNE05.jpg,AFSA05.jpg,AFSA07.jpg,FS,4,num_6,32,num_4,1.08346785663,,,2017_Jun_12_1246,59.9997883088,FEMA4ImagesEEG,001,200552,
AMSA25.JPG,AMNE24.JPG,AMSA24.JPG,AMNE26.JPG,AMSA21.JPG,AMNE25.JPG,0,2,2,3,,,,,,,,,,,,,,,,,,,,,,,AFSA05.jpg,AFNE09.jpg,AFNE03.jpg,AFSA20.jpg,AFNE09.jpg,FN,3,num_6,16,num_6,0.850134020788,,,2017_Jun_12_1246,59.9997883088,FEMA4ImagesEEG,001,200552,
AMNE23.JPG,AMNE24.JPG,AMNE22.JPG,AMSA24.JPG,AMSA22.JPG,AMSA23.JPG,0,3,3,9,,,,,,,,,,,,,,,,,,,,,,,AFNE20.jpg,AFSA09.jpg,AFSA16.jpg,AFNE04.jpg,AFNE04.jpg,FN,3,num_4,32,num_8,0.850165773998,,,2017_Jun_12_1246,59.9997883088,FEMA4ImagesEEG,001,200552,
AFNE22.JPG,AFSA24.JPG,AFSA22.JPG,AFNE25.JPG,AFNE24.JPG,AFSA25.JPG,0,4,4,6,,,,,,,,,,,,,,,,,,,,,,,AFNE05.jpg,AFNE06.jpg,AFSA18.jpg,AFSA04.jpg,AFNE06.jpg,FN,3,num_6,16,num_6,0.90006732312,,,2017_Jun_12_1246,59.9997883088,FEMA4ImagesEEG,001,200552,
AFSA21.JPG,AFNE23.JPG,AFNE21.JPG,AFSA25.JPG,AFNE25.JPG,AFSA23.JPG,0,5,5,4,,,,,,,,,,,,,,,,,,,,,,,AFNE04.jpg,AFNE09.jpg,AFSA17.jpg,AFSA03.jpg,AFSA17.jpg,FS,4,num_2,32,num_4,0.91675441555,,,2017_Jun_12_1246,59.9997883088,FEMA4ImagesEEG,001,200552,
AFSA25.JPG,AFNE24.JPG,AFSA24.JPG,AFNE21.JPG,AFSA21.JPG,AFNE25.JPG,0,6,6,2,,,,,,,,,,,,,,,,,,,,,,,AFNE09.jpg,AFSA09.jpg,AFNE19.jpg,AFSA16.jpg,AFSA09.jpg,FS,4,num_6,32,num_4,0.700166688126,,,2017_Jun_12_1246,59.9997883088,FEMA4ImagesEEG,001,200552,
AMSA21.JPG,AMNE23.JPG,AMNE21.JPG,AMSA25.JPG,AMNE25.JPG,AMSA23.JPG,0,7,7,5,,,,,,,,,,,,,,,,,,,,,,,AFNE17.jpg,AFSA08.jpg,AFNE11.jpg,AFSA06.jpg,AFSA06.jpg,FS,4,num_4,32,num_8,1.53339807986,,,2017_Jun_12_1246,59.9997883088,FEMA4ImagesEEG,001,200552,
AMSA21.JPG,AMNE22.JPG,AMNE21.JPG,AMSA23.JPG,AMSA22.JPG,AMNE23.JPG,0,8,8,1,,,,,,,,,,,,,,,,,,,,,,,AFNE08.jpg,AFSA03.jpg,AFNE10.jpg,AFSA02.jpg,AFSA02.jpg,FS,4,num_4,32,num_6,1.41672410571,,,2017_Jun_12_1246,59.9997883088,FEMA4ImagesEEG,001,200552,
AFSA21.JPG,AFNE22.JPG,AFNE21.JPG,AFSA23.JPG,AFSA22.JPG,AFNE23.JPG,0,9,9,0,,,,,,,,,,,,,,,,,,,,,,,AFNE09.jpg,AFSA05.jpg,AFNE14.jpg,AFSA13.jpg,AFNE14.jpg,FN,3,num_2,16,num_2,1.4165197949,,,2017_Jun_12_1246,59.9997883088,FEMA4ImagesEEG,001,200552,
AMNE22.JPG,AMSA24.JPG,AMSA22.JPG,AMNE25.JPG,AMNE24.JPG,AMSA25.JPG,,,,,0,0,0,7,,,,,,,,,,,,,,,,,,,AMSA15.jpg,AMNE03.jpg,AMNE07.jpg,AMSA03.jpg,AMNE07.jpg,MN,1,num_2,32,num_4,1.30012775038,,,2017_Jun_12_1246,59.9997883088,FEMA4ImagesEEG,001,200552,
AMSA25.JPG,AMNE24.JPG,AMSA24.JPG,AMNE26.JPG,AMSA21.JPG,AMNE25.JPG,,,,,0,1,1,3,,,,,,,,,,,,,,,,,,,AMNE20.jpg,AMSA07.jpg,AMSA08.jpg,AMNE09.jpg,AMSA07.jpg,MS,2,num_6,16,num_6,1.05006640899,,,2017_Jun_12_1246,59.9997883088,FEMA4ImagesEEG,001,200552,
AFNE23.JPG,AFNE24.JPG,AFNE22.JPG,AFSA24.JPG,AFSA22.JPG,AFSA23.JPG,,,,,0,2,2,8,,,,,,,,,,,,,,,,,,,AMNE06.jpg,AMNE08.jpg,AMSA03.jpg,AMSA13.jpg,AMNE06.jpg,MN,1,num_8,16,num_8,0.966741922719,,,2017_Jun_12_1246,59.9997883088,FEMA4ImagesEEG,001,200552,
AFNE22.JPG,AFSA24.JPG,AFSA22.JPG,AFNE25.JPG,AFNE24.JPG,AFSA25.JPG,,,,,0,3,3,6,,,,,,,,,,,,,,,,,,,AMNE18.jpg,AMNE14.jpg,AMSA13.jpg,AMSA19.jpg,AMSA13.jpg,MS,2,num_2,16,num_2,0.33348557743,,,2017_Jun_12_1246,59.9997883088,FEMA4ImagesEEG,001,200552,
AMNE23.JPG,AMNE24.JPG,AMNE22.JPG,AMSA24.JPG,AMSA22.JPG,AMSA23.JPG,,,,,0,4,4,9,,,,,,,,,,,,,,,,,,,AMNE11.jpg,AMNE17.jpg,AMSA01.jpg,AMSA13.jpg,AMSA01.jpg,MS,2,num_2,32,num_4,0.933521051193,,,2017_Jun_12_1246,59.9997883088,FEMA4ImagesEEG,001,200552,
AFSA21.JPG,AFNE22.JPG,AFNE21.JPG,AFSA23.JPG,AFSA22.JPG,AFNE23.JPG,,,,,0,5,5,0,,,,,,,,,,,,,,,,,,,AMSA12.jpg,AMNE05.jpg,AMNE02.jpg,AMSA02.jpg,AMNE02.jpg,MN,1,num_2,32,num_8,0.333457352419,,,2017_Jun_12_1246,59.9997883088,FEMA4ImagesEEG,001,200552,
AFSA21.JPG,AFNE23.JPG,AFNE21.JPG,AFSA25.JPG,AFNE25.JPG,AFSA23.JPG,,,,,0,6,6,4,,,,,,,,,,,,,,,,,,,AMNE18.jpg,AMNE16.jpg,AMSA10.jpg,AMSA06.jpg,AMSA06.jpg,MS,2,num_4,32,num_2,0.333532405377,,,2017_Jun_12_1246,59.9997883088,FEMA4ImagesEEG,001,200552,
AMSA21.JPG,AMNE23.JPG,AMNE21.JPG,AMSA25.JPG,AMNE25.JPG,AMSA23.JPG,,,,,0,7,7,5,,,,,,,,,,,,,,,,,,,AMNE19.jpg,AMNE20.jpg,AMSA04.jpg,AMSA07.jpg,AMNE20.jpg,MN,1,num_6,16,num_6,0.316834087134,,,2017_Jun_12_1246,59.9997883088,FEMA4ImagesEEG,001,200552,
AFSA25.JPG,AFNE24.JPG,AFSA24.JPG,AFNE21.JPG,AFSA21.JPG,AFNE25.JPG,,,,,0,8,8,2,,,,,,,,,,,,,,,,,,,AMSA13.jpg,AMSA06.jpg,AMNE07.jpg,AMNE17.jpg,AMNE17.jpg,MN,1,num_4,16,num_4,0.350151821855,,,2017_Jun_12_1246,59.9997883088,FEMA4ImagesEEG,001,200552,
AMSA21.JPG,AMNE22.JPG,AMNE21.JPG,AMSA23.JPG,AMSA22.JPG,AMNE23.JPG,,,,,0,9,9,1,,,,,,,,,,,,,,,,,,,AMNE15.jpg,AMSA04.jpg,AMNE17.jpg,AMSA06.jpg,AMNE15.jpg,MN,1,num_8,16,num_8,0.233527562232,,,2017_Jun_12_1246,59.9997883088,FEMA4ImagesEEG,001,200552,
AMSA21.JPG,AMNE23.JPG,AMNE21.JPG,AMSA25.JPG,AMNE25.JPG,AMSA23.JPG,,,,,,,,,0,0,0,5,,,,,,,,,,,,,,,AFSA18.jpg,AFNE11.jpg,AFNE09.jpg,AFSA12.jpg,AFNE09.jpg,FN,3,num_2,16,num_2,0.283453166776,,,2017_Jun_12_1246,59.9997883088,FEMA4ImagesEEG,001,200552,
AFSA21.JPG,AFNE22.JPG,AFNE21.JPG,AFSA23.JPG,AFSA22.JPG,AFNE23.JPG,,,,,,,,,0,1,1,0,,,,,,,,,,,,,,,AFNE12.jpg,AFNE20.jpg,AFSA05.jpg,AFSA14.jpg,AFNE12.jpg,FN,3,num_8,32,num_4,1.03313010238,,,2017_Jun_12_1246,59.9997883088,FEMA4ImagesEEG,001,200552,
AFNE22.JPG,AFSA24.JPG,AFSA22.JPG,AFNE25.JPG,AFNE24.JPG,AFSA25.JPG,,,,,,,,,0,2,2,6,,,,,,,,,,,,,,,AFNE04.jpg,AFNE09.jpg,AFSA13.jpg,AFSA01.jpg,AFSA01.jpg,FS,4,num_4,32,num_6,0.350217573345,,,2017_Jun_12_1246,59.9997883088,FEMA4ImagesEEG,001,200552,
AFSA21.JPG,AFNE23.JPG,AFNE21.JPG,AFSA25.JPG,AFNE25.JPG,AFSA23.JPG,,,,,,,,,0,3,3,4,,,,,,,,,,,,,,,AFNE09.jpg,AFNE04.jpg,AFSA11.jpg,AFSA03.jpg,AFNE04.jpg,FN,3,num_6,32,num_8,0.266839844408,,,2017_Jun_12_1246,59.9997883088,FEMA4ImagesEEG,001,200552,
AFSA25.JPG,AFNE24.JPG,AFSA24.JPG,AFNE21.JPG,AFSA21.JPG,AFNE25.JPG,,,,,,,,,0,4,4,2,,,,,,,,,,,,,,,AFSA01.jpg,AFNE11.jpg,AFNE20.jpg,AFSA19.jpg,AFSA19.jpg,FS,4,num_4,32,num_6,1.05016423448,,,2017_Jun_12_1246,59.9997883088,FEMA4ImagesEEG,001,200552,
AMNE22.JPG,AMSA24.JPG,AMSA22.JPG,AMNE25.JPG,AMNE24.JPG,AMSA25.JPG,,,,,,,,,0,5,5,7,,,,,,,,,,,,,,,AFNE16.jpg,AFNE11.jpg,AFSA07.jpg,AFSA14.jpg,AFNE16.jpg,FN,3,num_8,32,num_4,1.08346112113,,,2017_Jun_12_1246,59.9997883088,FEMA4ImagesEEG,001,200552,
AMSA25.JPG,AMNE24.JPG,AMSA24.JPG,AMNE26.JPG,AMSA21.JPG,AMNE25.JPG,,,,,,,,,0,6,6,3,,,,,,,,,,,,,,,AFSA03.jpg,AFNE15.jpg,AFSA06.jpg,AFNE02.jpg,AFNE15.jpg,FN,3,num_6,32,num_8,0.433520570165,,,2017_Jun_12_1246,59.9997883088,FEMA4ImagesEEG,001,200552,
AFNE23.JPG,AFNE24.JPG,AFNE22.JPG,AFSA24.JPG,AFSA22.JPG,AFSA23.JPG,,,,,,,,,0,7,7,8,,,,,,,,,,,,,,,AFNE06.jpg,AFSA04.jpg,AFNE20.jpg,AFSA15.jpg,AFSA04.jpg,FS,4,num_6,32,num_8,0.816620314494,,,2017_Jun_12_1246,59.9997883088,FEMA4ImagesEEG,001,200552,
AMNE23.JPG,AMNE24.JPG,AMNE22.JPG,AMSA24.JPG,AMSA22.JPG,AMSA23.JPG,,,,,,,,,0,8,8,9,,,,,,,,,,,,,,,AFSA08.jpg,AFNE12.jpg,AFSA17.jpg,AFNE13.jpg,AFSA08.jpg,FS,4,num_8,32,num_2,0.316759996349,,,2017_Jun_12_1246,59.9997883088,FEMA4ImagesEEG,001,200552,
AMSA21.JPG,AMNE22.JPG,AMNE21.JPG,AMSA23.JPG,AMSA22.JPG,AMNE23.JPG,,,,,,,,,0,9,9,1,,,,,,,,,,,,,,,AFNE05.jpg,AFNE18.jpg,AFSA15.jpg,AFSA03.jpg,AFSA03.jpg,FS,4,num_4,16,num_4,0.416693956184,,,2017_Jun_12_1246,59.9997883088,FEMA4ImagesEEG,001,200552,
AMSA21.JPG,AMNE22.JPG,AMNE21.JPG,AMSA23.JPG,AMSA22.JPG,AMNE23.JPG,,,,,,,,,,,,,0,0,0,1,,,,,,,,,,,AMSA14.jpg,AMNE19.jpg,AMSA02.jpg,AMNE02.jpg,AMNE19.jpg,MN,1,num_6,32,num_4,0.41679787566,,,2017_Jun_12_1246,59.9997883088,FEMA4ImagesEEG,001,200552,
AMSA25.JPG,AMNE24.JPG,AMSA24.JPG,AMNE26.JPG,AMSA21.JPG,AMNE25.JPG,,,,,,,,,,,,,0,1,1,3,,,,,,,,,,,AMSA13.jpg,AMNE19.jpg,AMNE16.jpg,AMSA11.jpg,AMNE16.jpg,MN,1,num_2,32,num_6,0.383507724502,,,2017_Jun_12_1246,59.9997883088,FEMA4ImagesEEG,001,200552,
AMSA21.JPG,AMNE23.JPG,AMNE21.JPG,AMSA25.JPG,AMNE25.JPG,AMSA23.JPG,,,,,,,,,,,,,0,2,2,5,,,,,,,,,,,AMSA20.jpg,AMNE18.jpg,AMSA05.jpg,AMNE19.jpg,AMNE18.jpg,MN,1,num_6,32,num_8,0.833290087001,,,2017_Jun_12_1246,59.9997883088,FEMA4ImagesEEG,001,200552,
AFSA21.JPG,AFNE23.JPG,AFNE21.JPG,AFSA25.JPG,AFNE25.JPG,AFSA23.JPG,,,,,,,,,,,,,0,3,3,4,,,,,,,,,,,AMNE10.jpg,AMNE18.jpg,AMSA05.jpg,AMSA14.jpg,AMSA05.jpg,MS,2,num_2,16,num_2,2.53302826773,,,2017_Jun_12_1246,59.9997883088,FEMA4ImagesEEG,001,200552,
AFSA21.JPG,AFNE22.JPG,AFNE21.JPG,AFSA23.JPG,AFSA22.JPG,AFNE23.JPG,,,,,,,,,,,,,0,4,4,0,,,,,,,,,,,AMNE19.jpg,AMSA08.jpg,AMSA05.jpg,AMNE05.jpg,AMNE05.jpg,MN,1,num_4,16,num_4,0.833440192917,,,2017_Jun_12_1246,59.9997883088,FEMA4ImagesEEG,001,200552,
AFNE22.JPG,AFSA24.JPG,AFSA22.JPG,AFNE25.JPG,AFNE24.JPG,AFSA25.JPG,,,,,,,,,,,,,0,5,5,6,,,,,,,,,,,AMNE07.jpg,AMNE09.jpg,AMSA10.jpg,AMSA18.jpg,AMNE07.jpg,MN,1,num_8,32,num_6,0.316833124903,,,2017_Jun_12_1246,59.9997883088,FEMA4ImagesEEG,001,200552,
AMNE23.JPG,AMNE24.JPG,AMNE22.JPG,AMSA24.JPG,AMSA22.JPG,AMSA23.JPG,,,,,,,,,,,,,0,6,6,9,,,,,,,,,,,AMSA13.jpg,AMSA08.jpg,AMNE03.jpg,AMNE05.jpg,AMNE03.jpg,MN,1,num_2,32,num_8,0.550154131197,,,2017_Jun_12_1246,59.9997883088,FEMA4ImagesEEG,001,200552,
AFSA25.JPG,AFNE24.JPG,AFSA24.JPG,AFNE21.JPG,AFSA21.JPG,AFNE25.JPG,,,,,,,,,,,,,0,7,7,2,,,,,,,,,,,AMNE02.jpg,AMSA08.jpg,AMNE01.jpg,AMSA18.jpg,AMSA18.jpg,MS,2,num_4,32,num_2,1.56670651317,,,2017_Jun_12_1246,59.9997883088,FEMA4ImagesEEG,001,200552,
AMNE22.JPG,AMSA24.JPG,AMSA22.JPG,AMNE25.JPG,AMNE24.JPG,AMSA25.JPG,,,,,,,,,,,,,0,8,8,7,,,,,,,,,,,AMNE05.jpg,AMNE10.jpg,AMSA17.jpg,AMSA05.jpg,AMSA05.jpg,MS,2,num_4,32,num_6,0.450065895857,,,2017_Jun_12_1246,59.9997883088,FEMA4ImagesEEG,001,200552,
AFNE23.JPG,AFNE24.JPG,AFNE22.JPG,AFSA24.JPG,AFSA22.JPG,AFSA23.JPG,,,,,,,,,,,,,0,9,9,8,,,,,,,,,,,AMNE13.jpg,AMNE06.jpg,AMSA02.jpg,AMSA05.jpg,AMSA05.jpg,MS,2,num_4,32,num_8,0.300129033334,,,2017_Jun_12_1246,59.9997883088,FEMA4ImagesEEG,001,200552,
AFNE22.JPG,AFSA24.JPG,AFSA22.JPG,AFNE25.JPG,AFNE24.JPG,AFSA25.JPG,,,,,,,,,,,,,,,,,0,0,0,6,,,,,,,AFSA01.jpg,AFNE17.jpg,AFSA07.jpg,AFNE08.jpg,AFNE08.jpg,FN,3,num_4,16,num_4,0.416810063762,,,2017_Jun_12_1246,59.9997883088,FEMA4ImagesEEG,001,200552,
AFSA21.JPG,AFNE23.JPG,AFNE21.JPG,AFSA25.JPG,AFNE25.JPG,AFSA23.JPG,,,,,,,,,,,,,,,,,0,1,1,4,,,,,,,AFSA20.jpg,AFSA14.jpg,AFNE19.jpg,AFNE18.jpg,AFSA20.jpg,FS,4,num_8,32,num_2,0.716901891341,,,2017_Jun_12_1246,59.9997883088,FEMA4ImagesEEG,001,200552,
AFSA21.JPG,AFNE22.JPG,AFNE21.JPG,AFSA23.JPG,AFSA22.JPG,AFNE23.JPG,,,,,,,,,,,,,,,,,0,2,2,0,,,,,,,AFSA02.jpg,AFSA07.jpg,AFNE18.jpg,AFNE16.jpg,AFNE18.jpg,FN,3,num_2,16,num_2,0.41680557339,,,2017_Jun_12_1246,59.9997883088,FEMA4ImagesEEG,001,200552,
AFNE23.JPG,AFNE24.JPG,AFNE22.JPG,AFSA24.JPG,AFSA22.JPG,AFSA23.JPG,,,,,,,,,,,,,,,,,0,3,3,8,,,,,,,AFNE16.jpg,AFSA09.jpg,AFSA01.jpg,AFNE11.jpg,AFNE16.jpg,FN,3,num_8,32,num_6,0.633420884435,,,2017_Jun_12_1246,59.9997883088,FEMA4ImagesEEG,001,200552,
AMNE23.JPG,AMNE24.JPG,AMNE22.JPG,AMSA24.JPG,AMSA22.JPG,AMSA23.JPG,,,,,,,,,,,,,,,,,0,4,4,9,,,,,,,AFSA12.jpg,AFNE18.jpg,AFNE14.jpg,AFSA07.jpg,AFNE18.jpg,FN,3,num_6,32,num_8,0.283593971224,,,2017_Jun_12_1246,59.9997883088,FEMA4ImagesEEG,001,200552,
AMSA21.JPG,AMNE23.JPG,AMNE21.JPG,AMSA25.JPG,AMNE25.JPG,AMSA23.JPG,,,,,,,,,,,,,,,,,0,5,5,5,,,,,,,AFNE02.jpg,AFSA11.jpg,AFSA15.jpg,AFNE17.jpg,AFNE02.jpg,FN,3,num_8,32,num_4,0.400347167975,,,2017_Jun_12_1246,59.9997883088,FEMA4ImagesEEG,001,200552,
AMSA25.JPG,AMNE24.JPG,AMSA24.JPG,AMNE26.JPG,AMSA21.JPG,AMNE25.JPG,,,,,,,,,,,,,,,,,0,6,6,3,,,,,,,AFNE02.jpg,AFSA19.jpg,AFSA02.jpg,AFNE11.jpg,AFNE11.jpg,FN,3,num_4,32,num_8,1.28340313153,,,2017_Jun_12_1246,59.9997883088,FEMA4ImagesEEG,001,200552,
AMNE22.JPG,AMSA24.JPG,AMSA22.JPG,AMNE25.JPG,AMNE24.JPG,AMSA25.JPG,,,,,,,,,,,,,,,,,0,7,7,7,,,,,,,AFSA15.jpg,AFSA04.jpg,AFNE11.jpg,AFNE12.jpg,AFSA04.jpg,FS,4,num_6,16,num_6,0.933431885787,,,2017_Jun_12_1246,59.9997883088,FEMA4ImagesEEG,001,200552,
AFSA25.JPG,AFNE24.JPG,AFSA24.JPG,AFNE21.JPG,AFSA21.JPG,AFNE25.JPG,,,,,,,,,,,,,,,,,0,8,8,2,,,,,,,AFNE08.jpg,AFSA15.jpg,AFNE07.jpg,AFSA12.jpg,AFNE08.jpg,FN,3,num_8,32,num_2,0.866728098888,,,2017_Jun_12_1246,59.9997883088,FEMA4ImagesEEG,001,200552,
AMSA21.JPG,AMNE22.JPG,AMNE21.JPG,AMSA23.JPG,AMSA22.JPG,AMNE23.JPG,,,,,,,,,,,,,,,,,0,9,9,1,,,,,,,AFSA12.jpg,AFNE02.jpg,AFSA16.jpg,AFNE13.jpg,AFNE13.jpg,FN,3,num_4,32,num_2,0.533540167264,,,2017_Jun_12_1246,59.9997883088,FEMA4ImagesEEG,001,200552,
AMNE23.JPG,AMNE24.JPG,AMNE22.JPG,AMSA24.JPG,AMSA22.JPG,AMSA23.JPG,,,,,,,,,,,,,,,,,,,,,0,0,0,9,,,AMSA03.jpg,AMNE01.jpg,AMSA07.jpg,AMNE10.jpg,AMNE01.jpg,MN,1,num_6,32,num_4,0.56675590697,,,2017_Jun_12_1246,59.9997883088,FEMA4ImagesEEG,001,200552,
AFNE23.JPG,AFNE24.JPG,AFNE22.JPG,AFSA24.JPG,AFSA22.JPG,AFSA23.JPG,,,,,,,,,,,,,,,,,,,,,0,1,1,8,,,AMNE06.jpg,AMSA11.jpg,AMSA16.jpg,AMNE15.jpg,AMNE06.jpg,MN,1,num_8,32,num_6,0.850084947771,,,2017_Jun_12_1246,59.9997883088,FEMA4ImagesEEG,001,200552,
AMNE22.JPG,AMSA24.JPG,AMSA22.JPG,AMNE25.JPG,AMNE24.JPG,AMSA25.JPG,,,,,,,,,,,,,,,,,,,,,0,2,2,7,,,AMSA12.jpg,AMSA19.jpg,AMNE18.jpg,AMNE03.jpg,AMSA19.jpg,MS,2,num_6,32,num_4,0.966714659939,,,2017_Jun_12_1246,59.9997883088,FEMA4ImagesEEG,001,200552,
AMSA25.JPG,AMNE24.JPG,AMSA24.JPG,AMNE26.JPG,AMSA21.JPG,AMNE25.JPG,,,,,,,,,,,,,,,,,,,,,0,3,3,3,,,AMSA02.jpg,AMNE03.jpg,AMSA15.jpg,AMNE13.jpg,AMSA15.jpg,MS,2,num_2,32,num_8,0.316922290367,,,2017_Jun_12_1246,59.9997883088,FEMA4ImagesEEG,001,200552,
AFSA21.JPG,AFNE23.JPG,AFNE21.JPG,AFSA25.JPG,AFNE25.JPG,AFSA23.JPG,,,,,,,,,,,,,,,,,,,,,0,4,4,4,,,AMNE18.jpg,AMSA14.jpg,AMNE13.jpg,AMSA06.jpg,AMNE13.jpg,MN,1,num_2,16,num_2,0.366838593502,,,2017_Jun_12_1246,59.9997883088,FEMA4ImagesEEG,001,200552,
AMSA21.JPG,AMNE23.JPG,AMNE21.JPG,AMSA25.JPG,AMNE25.JPG,AMSA23.JPG,,,,,,,,,,,,,,,,,,,,,0,5,5,5,,,AMNE13.jpg,AMSA13.jpg,AMNE02.jpg,AMSA12.jpg,AMSA12.jpg,MS,2,num_4,16,num_4,0.683503971843,,,2017_Jun_12_1246,59.9997883088,FEMA4ImagesEEG,001,200552,
AFNE22.JPG,AFSA24.JPG,AFSA22.JPG,AFNE25.JPG,AFNE24.JPG,AFSA25.JPG,,,,,,,,,,,,,,,,,,,,,0,6,6,6,,,AMSA01.jpg,AMNE05.jpg,AMSA14.jpg,AMNE11.jpg,AMSA14.jpg,MS,2,num_2,32,num_8,0.666738298431,,,2017_Jun_12_1246,59.9997883088,FEMA4ImagesEEG,001,200552,
AFSA25.JPG,AFNE24.JPG,AFSA24.JPG,AFNE21.JPG,AFSA21.JPG,AFNE25.JPG,,,,,,,,,,,,,,,,,,,,,0,7,7,2,,,AMSA14.jpg,AMNE05.jpg,AMNE19.jpg,AMSA12.jpg,AMNE19.jpg,MN,1,num_2,16,num_2,0.51678026712,,,2017_Jun_12_1246,59.9997883088,FEMA4ImagesEEG,001,200552,
AMSA21.JPG,AMNE22.JPG,AMNE21.JPG,AMSA23.JPG,AMSA22.JPG,AMNE23.JPG,,,,,,,,,,,,,,,,,,,,,0,8,8,1,,,AMSA19.jpg,AMSA11.jpg,AMNE17.jpg,AMNE20.jpg,AMSA19.jpg,MS,2,num_8,32,num_6,0.966784581018,,,2017_Jun_12_1246,59.9997883088,FEMA4ImagesEEG,001,200552,
AFSA21.JPG,AFNE22.JPG,AFNE21.JPG,AFSA23.JPG,AFSA22.JPG,AFNE23.JPG,,,,,,,,,,,,,,,,,,,,,0,9,9,0,,,AMNE13.jpg,AMNE19.jpg,AMSA11.jpg,AMSA04.jpg,AMSA11.jpg,MS,2,num_2,32,num_4,0.633503314399,,,2017_Jun_12_1246,59.9997883088,FEMA4ImagesEEG,001,200552,
,,,,,,,,,,,,,,,,,,,,,,,,,,,,,,,,,,,,,,,,,,,space,3.00022227218,2017_Jun_12_1246,59.9997883088,FEMA4ImagesEEG,001,200552,
AFNE01.JPG,AFNE01.JPG,AFNE01.JPG,AFNE01.JPG,AFNE01.JPG,AFNE01.JPG,0,0,0,2,,,,,,,,,,,,,,,,,,,,,,,AFNE12.jpg,AFSA05.jpg,AFNE14.jpg,AFSA12.jpg,AFSA12.jpg,FS,4,num_4,32,num_2,1.23336655123,,,2017_Jun_12_1246,59.9997883088,FEMA4ImagesEEG,001,200552,
AFNE01.JPG,AFNE01.JPG,AFNE01.JPG,AFNE01.JPG,AFNE01.JPG,AFNE01.JPG,0,1,1,9,,,,,,,,,,,,,,,,,,,,,,,AFNE19.jpg,AFNE18.jpg,AFSA07.jpg,AFSA17.jpg,AFSA17.jpg,FS,4,num_4,32,num_2,0.850201696798,,,2017_Jun_12_1246,59.9997883088,FEMA4ImagesEEG,001,200552,
AFNE01.JPG,AFNE01.JPG,AFNE01.JPG,AFNE01.JPG,AFNE01.JPG,AFNE01.JPG,0,2,2,5,,,,,,,,,,,,,,,,,,,,,,,AFNE03.jpg,AFNE11.jpg,AFSA01.jpg,AFSA12.jpg,AFNE03.jpg,FN,3,num_8,16,num_8,1.01677401271,,,2017_Jun_12_1246,59.9997883088,FEMA4ImagesEEG,001,200552,
AFNE01.JPG,AFNE01.JPG,AFNE01.JPG,AFNE01.JPG,AFNE01.JPG,AFNE01.JPG,0,3,3,6,,,,,,,,,,,,,,,,,,,,,,,AFNE03.jpg,AFNE19.jpg,AFSA19.jpg,AFSA18.jpg,AFNE03.jpg,FN,3,num_8,32,num_4,0.900120245118,,,2017_Jun_12_1246,59.9997883088,FEMA4ImagesEEG,001,200552,
AFNE01.JPG,AFNE01.JPG,AFNE01.JPG,AFNE01.JPG,AFNE01.JPG,AFNE01.JPG,0,4,4,7,,,,,,,,,,,,,,,,,,,,,,,AFSA09.jpg,AFNE16.jpg,AFNE01.jpg,AFSA14.jpg,AFSA09.jpg,FS,4,num_8,32,num_6,0.833490228164,,,2017_Jun_12_1246,59.9997883088,FEMA4ImagesEEG,001,200552,
AFNE01.JPG,AFNE01.JPG,AFNE01.JPG,AFNE01.JPG,AFNE01.JPG,AFNE01.JPG,0,5,5,0,,,,,,,,,,,,,,,,,,,,,,,AFNE12.jpg,AFSA08.jpg,AFSA03.jpg,AFNE08.jpg,AFSA08.jpg,FS,4,num_6,16,num_6,1.30008316762,,,2017_Jun_12_1246,59.9997883088,FEMA4ImagesEEG,001,200552,
AFNE01.JPG,AFNE01.JPG,AFNE01.JPG,AFNE01.JPG,AFNE01.JPG,AFNE01.JPG,0,6,6,1,,,,,,,,,,,,,,,,,,,,,,,AFSA11.jpg,AFSA13.jpg,AFNE12.jpg,AFNE10.jpg,AFSA11.jpg,FS,4,num_8,16,num_8,0.950109355967,,,2017_Jun_12_1246,59.9997883088,FEMA4ImagesEEG,001,200552,
AFNE01.JPG,AFNE01.JPG,AFNE01.JPG,AFNE01.JPG,AFNE01.JPG,AFNE01.JPG,0,7,7,8,,,,,,,,,,,,,,,,,,,,,,,AFNE19.jpg,AFSA05.jpg,AFNE10.jpg,AFSA13.jpg,AFSA13.jpg,FS,4,num_4,16,num_4,0.416798517166,,,2017_Jun_12_1246,59.9997883088,FEMA4ImagesEEG,001,200552,
AFNE01.JPG,AFNE01.JPG,AFNE01.JPG,AFNE01.JPG,AFNE01.JPG,AFNE01.JPG,0,8,8,4,,,,,,,,,,,,,,,,,,,,,,,AFNE13.jpg,AFSA10.jpg,AFNE14.jpg,AFSA15.jpg,AFSA10.jpg,FS,4,num_6,16,num_6,0.616680228559,,,2017_Jun_12_1246,59.9997883088,FEMA4ImagesEEG,001,200552,
AFNE01.JPG,AFNE01.JPG,AFNE01.JPG,AFNE01.JPG,AFNE01.JPG,AFNE01.JPG,0,9,9,3,,,,,,,,,,,,,,,,,,,,,,,AFNE20.jpg,AFSA14.jpg,AFNE09.jpg,AFSA13.jpg,AFNE20.jpg,FN,3,num_8,16,num_8,0.96677976998,,,2017_Jun_12_1246,59.9997883088,FEMA4ImagesEEG,001,200552,
AFNE01.JPG,AFNE01.JPG,AFNE01.JPG,AFNE01.JPG,AFNE01.JPG,AFNE01.JPG,1,0,10,6,,,,,,,,,,,,,,,,,,,,,,,AFNE18.jpg,AFSA08.jpg,AFSA11.jpg,AFNE04.jpg,AFSA11.jpg,FS,4,num_2,16,num_2,0.383508366009,,,2017_Jun_12_1246,59.9997883088,FEMA4ImagesEEG,001,200552,
AFNE01.JPG,AFNE01.JPG,AFNE01.JPG,AFNE01.JPG,AFNE01.JPG,AFNE01.JPG,1,1,11,8,,,,,,,,,,,,,,,,,,,,,,,AFNE15.jpg,AFSA17.jpg,AFNE13.jpg,AFSA20.jpg,AFSA20.jpg,FS,4,num_4,32,num_6,0.716767501668,,,2017_Jun_12_1246,59.9997883088,FEMA4ImagesEEG,001,200552,
AFNE01.JPG,AFNE01.JPG,AFNE01.JPG,AFNE01.JPG,AFNE01.JPG,AFNE01.JPG,1,2,12,9,,,,,,,,,,,,,,,,,,,,,,,AFSA15.jpg,AFNE18.jpg,AFNE17.jpg,AFSA08.jpg,AFSA15.jpg,FS,4,num_8,32,num_4,0.450199002575,,,2017_Jun_12_1246,59.9997883088,FEMA4ImagesEEG,001,200552,
AFNE01.JPG,AFNE01.JPG,AFNE01.JPG,AFNE01.JPG,AFNE01.JPG,AFNE01.JPG,1,3,13,1,,,,,,,,,,,,,,,,,,,,,,,AFNE10.jpg,AFNE09.jpg,AFSA08.jpg,AFSA16.jpg,AFNE10.jpg,FN,3,num_8,16,num_8,0.466743366094,,,2017_Jun_12_1246,59.9997883088,FEMA4ImagesEEG,001,200552,
AFNE01.JPG,AFNE01.JPG,AFNE01.JPG,AFNE01.JPG,AFNE01.JPG,AFNE01.JPG,1,4,14,2,,,,,,,,,,,,,,,,,,,,,,,AFSA01.jpg,AFSA14.jpg,AFNE19.jpg,AFNE05.jpg,AFSA14.jpg,FS,4,num_6,32,num_2,0.350155029213,,,2017_Jun_12_1246,59.9997883088,FEMA4ImagesEEG,001,200552,
AFNE01.JPG,AFNE01.JPG,AFNE01.JPG,AFNE01.JPG,AFNE01.JPG,AFNE01.JPG,1,5,15,5,,,,,,,,,,,,,,,,,,,,,,,AFSA16.jpg,AFSA09.jpg,AFNE18.jpg,AFNE02.jpg,AFNE18.jpg,FN,3,num_2,32,num_6,0.316780844412,,,2017_Jun_12_1246,59.9997883088,FEMA4ImagesEEG,001,200552,
AFNE01.JPG,AFNE01.JPG,AFNE01.JPG,AFNE01.JPG,AFNE01.JPG,AFNE01.JPG,1,6,16,4,,,,,,,,,,,,,,,,,,,,,,,AFNE13.jpg,AFNE12.jpg,AFSA15.jpg,AFSA10.jpg,AFSA10.jpg,FS,4,num_4,32,num_8,0.81672936579,,,2017_Jun_12_1246,59.9997883088,FEMA4ImagesEEG,001,200552,
AFNE01.JPG,AFNE01.JPG,AFNE01.JPG,AFNE01.JPG,AFNE01.JPG,AFNE01.JPG,1,7,17,7,,,,,,,,,,,,,,,,,,,,,,,AFNE17.jpg,AFNE15.jpg,AFSA19.jpg,AFSA20.jpg,AFSA19.jpg,FS,4,num_2,32,num_4,0.466766459285,,,2017_Jun_12_1246,59.9997883088,FEMA4ImagesEEG,001,200552,
AFNE01.JPG,AFNE01.JPG,AFNE01.JPG,AFNE01.JPG,AFNE01.JPG,AFNE01.JPG,1,8,18,3,,,,,,,,,,,,,,,,,,,,,,,AFSA16.jpg,AFSA04.jpg,AFNE02.jpg,AFNE11.jpg,AFNE11.jpg,FN,3,num_4,32,num_2,0.300132882199,,,2017_Jun_12_1246,59.9997883088,FEMA4ImagesEEG,001,200552,
AFNE01.JPG,AFNE01.JPG,AFNE01.JPG,AFNE01.JPG,AFNE01.JPG,AFNE01.JPG,1,9,19,0,,,,,,,,,,,,,,,,,,,,,,,AFSA01.jpg,AFNE05.jpg,AFNE17.jpg,AFSA20.jpg,AFNE05.jpg,FN,3,num_6,32,num_8,0.750135592476,,,2017_Jun_12_1246,59.9997883088,FEMA4ImagesEEG,001,200552,
AFNE01.JPG,AFNE01.JPG,AFNE01.JPG,AFNE01.JPG,AFNE01.JPG,AFNE01.JPG,2,0,20,6,,,,,,,,,,,,,,,,,,,,,,,AFSA20.jpg,AFSA17.jpg,AFNE09.jpg,AFNE04.jpg,AFNE04.jpg,FN,3,num_4,32,num_6,1.16675866535,,,2017_Jun_12_1246,59.9997883088,FEMA4ImagesEEG,001,200552,
AFNE01.JPG,AFNE01.JPG,AFNE01.JPG,AFNE01.JPG,AFNE01.JPG,AFNE01.JPG,2,1,21,7,,,,,,,,,,,,,,,,,,,,,,,AFNE08.jpg,AFSA13.jpg,AFNE07.jpg,AFSA19.jpg,AFSA13.jpg,FS,4,num_6,32,num_4,0.500200301583,,,2017_Jun_12_1246,59.9997883088,FEMA4ImagesEEG,001,200552,
AFNE01.JPG,AFNE01.JPG,AFNE01.JPG,AFNE01.JPG,AFNE01.JPG,AFNE01.JPG,2,2,22,5,,,,,,,,,,,,,,,,,,,,,,,AFSA05.jpg,AFNE02.jpg,AFSA10.jpg,AFNE10.jpg,AFSA10.jpg,FS,4,num_2,16,num_2,0.816798003973,,,2017_Jun_12_1246,59.9997883088,FEMA4ImagesEEG,001,200552,
AFNE01.JPG,AFNE01.JPG,AFNE01.JPG,AFNE01.JPG,AFNE01.JPG,AFNE01.JPG,2,3,23,9,,,,,,,,,,,,,,,,,,,,,,,AFSA14.jpg,AFNE20.jpg,AFNE17.jpg,AFSA20.jpg,AFNE17.jpg,FN,3,num_2,32,num_8,0.783507532033,,,2017_Jun_12_1246,59.9997883088,FEMA4ImagesEEG,001,200552,
AFNE01.JPG,AFNE01.JPG,AFNE01.JPG,AFNE01.JPG,AFNE01.JPG,AFNE01.JPG,2,4,24,4,,,,,,,,,,,,,,,,,,,,,,,AFNE06.jpg,AFNE03.jpg,AFSA02.jpg,AFSA04.jpg,AFNE03.jpg,FN,3,num_6,32,num_4,0.416781838692,,,2017_Jun_12_1246,59.9997883088,FEMA4ImagesEEG,001,200552,
AFNE01.JPG,AFNE01.JPG,AFNE01.JPG,AFNE01.JPG,AFNE01.JPG,AFNE01.JPG,2,5,25,3,,,,,,,,,,,,,,,,,,,,,,,AFSA20.jpg,AFNE13.jpg,AFSA07.jpg,AFNE05.jpg,AFNE05.jpg,FN,3,num_4,32,num_6,0.733486667974,,,2017_Jun_12_1246,59.9997883088,FEMA4ImagesEEG,001,200552,
AFNE01.JPG,AFNE01.JPG,AFNE01.JPG,AFNE01.JPG,AFNE01.JPG,AFNE01.JPG,2,6,26,1,,,,,,,,,,,,,,,,,,,,,,,AFNE07.jpg,AFNE15.jpg,AFSA15.jpg,AFSA20.jpg,AFNE15.jpg,FN,3,num_6,16,num_6,0.816783570684,,,2017_Jun_12_1246,59.9997883088,FEMA4ImagesEEG,001,200552,
AFNE01.JPG,AFNE01.JPG,AFNE01.JPG,AFNE01.JPG,AFNE01.JPG,AFNE01.JPG,2,7,27,0,,,,,,,,,,,,,,,,,,,,,,,AFSA07.jpg,AFSA03.jpg,AFNE12.jpg,AFNE09.jpg,AFSA03.jpg,FS,4,num_6,16,num_6,1.66666035878,,,2017_Jun_12_1246,59.9997883088,FEMA4ImagesEEG,001,200552,
AFNE01.JPG,AFNE01.JPG,AFNE01.JPG,AFNE01.JPG,AFNE01.JPG,AFNE01.JPG,2,8,28,8,,,,,,,,,,,,,,,,,,,,,,,AFSA02.jpg,AFNE17.jpg,AFNE13.jpg,AFSA03.jpg,AFSA02.jpg,FS,4,num_8,32,num_2,0.300196067838,,,2017_Jun_12_1246,59.9997883088,FEMA4ImagesEEG,001,200552,
AFNE01.JPG,AFNE01.JPG,AFNE01.JPG,AFNE01.JPG,AFNE01.JPG,AFNE01.JPG,2,9,29,2,,,,,,,,,,,,,,,,,,,,,,,AFNE13.jpg,AFSA19.jpg,AFSA15.jpg,AFNE11.jpg,AFNE13.jpg,FN,3,num_8,16,num_8,0.51679983217,,,2017_Jun_12_1246,59.9997883088,FEMA4ImagesEEG,001,200552,
AFNE01.JPG,AFNE01.JPG,AFNE01.JPG,AFNE01.JPG,AFNE01.JPG,AFNE01.JPG,3,0,30,4,,,,,,,,,,,,,,,,,,,,,,,AFNE17.jpg,AFSA06.jpg,AFSA17.jpg,AFNE05.jpg,AFNE05.jpg,FN,3,num_4,16,num_4,0.583506826486,,,2017_Jun_12_1246,59.9997883088,FEMA4ImagesEEG,001,200552,
AFNE01.JPG,AFNE01.JPG,AFNE01.JPG,AFNE01.JPG,AFNE01.JPG,AFNE01.JPG,3,1,31,5,,,,,,,,,,,,,,,,,,,,,,,AFSA17.jpg,AFNE19.jpg,AFSA04.jpg,AFNE12.jpg,AFSA17.jpg,FS,4,num_8,16,num_8,0.333465370932,,,2017_Jun_12_1246,59.9997883088,FEMA4ImagesEEG,001,200552,
AFNE01.JPG,AFNE01.JPG,AFNE01.JPG,AFNE01.JPG,AFNE01.JPG,AFNE01.JPG,3,2,32,8,,,,,,,,,,,,,,,,,,,,,,,AFSA19.jpg,AFSA17.jpg,AFNE01.jpg,AFNE02.jpg,AFSA17.jpg,FS,4,num_6,16,num_6,0.516847301624,,,2017_Jun_12_1246,59.9997883088,FEMA4ImagesEEG,001,200552,
AFNE01.JPG,AFNE01.JPG,AFNE01.JPG,AFNE01.JPG,AFNE01.JPG,AFNE01.JPG,3,3,33,0,,,,,,,,,,,,,,,,,,,,,,,AFSA11.jpg,AFNE19.jpg,AFSA03.jpg,AFNE18.jpg,AFSA11.jpg,FS,4,num_8,32,num_2,0.266944726056,,,2017_Jun_12_1246,59.9997883088,FEMA4ImagesEEG,001,200552,
AFNE01.JPG,AFNE01.JPG,AFNE01.JPG,AFNE01.JPG,AFNE01.JPG,AFNE01.JPG,3,4,34,7,,,,,,,,,,,,,,,,,,,,,,,AFNE20.jpg,AFNE02.jpg,AFSA06.jpg,AFSA14.jpg,AFSA14.jpg,FS,4,num_4,16,num_4,0.650146465516,,,2017_Jun_12_1246,59.9997883088,FEMA4ImagesEEG,001,200552,
AFNE01.JPG,AFNE01.JPG,AFNE01.JPG,AFNE01.JPG,AFNE01.JPG,AFNE01.JPG,3,5,35,9,,,,,,,,,,,,,,,,,,,,,,,AFSA18.jpg,AFNE18.jpg,AFNE19.jpg,AFSA16.jpg,AFNE19.jpg,FN,3,num_2,32,num_8,0.466773515509,,,2017_Jun_12_1246,59.9997883088,FEMA4ImagesEEG,001,200552,
AFNE01.JPG,AFNE01.JPG,AFNE01.JPG,AFNE01.JPG,AFNE01.JPG,AFNE01.JPG,3,6,36,6,,,,,,,,,,,,,,,,,,,,,,,AFNE09.jpg,AFNE04.jpg,AFSA09.jpg,AFSA13.jpg,AFSA13.jpg,FS,4,num_4,32,num_2,0.416793385346,,,2017_Jun_12_1246,59.9997883088,FEMA4ImagesEEG,001,200552,
AFNE01.JPG,AFNE01.JPG,AFNE01.JPG,AFNE01.JPG,AFNE01.JPG,AFNE01.JPG,3,7,37,2,,,,,,,,,,,,,,,,,,,,,,,AFSA13.jpg,AFSA18.jpg,AFNE04.jpg,AFNE17.jpg,AFNE04.jpg,FN,3,num_2,32,num_6,0.400041182933,,,2017_Jun_12_1246,59.9997883088,FEMA4ImagesEEG,001,200552,
AFNE01.JPG,AFNE01.JPG,AFNE01.JPG,AFNE01.JPG,AFNE01.JPG,AFNE01.JPG,3,8,38,3,,,,,,,,,,,,,,,,,,,,,,,AFNE16.jpg,AFSA05.jpg,AFSA06.jpg,AFNE11.jpg,AFNE11.jpg,FN,3,num_4,16,num_4,0.650177897944,,,2017_Jun_12_1246,59.9997883088,FEMA4ImagesEEG,001,200552,
AFNE01.JPG,AFNE01.JPG,AFNE01.JPG,AFNE01.JPG,AFNE01.JPG,AFNE01.JPG,3,9,39,1,,,,,,,,,,,,,,,,,,,,,,,AFNE06.jpg,AFSA17.jpg,AFNE10.jpg,AFSA13.jpg,AFNE06.jpg,FN,3,num_8,32,num_4,0.666805332876,,,2017_Jun_12_1246,59.9997883088,FEMA4ImagesEEG,001,200552,
AFNE01.JPG,AFNE01.JPG,AFNE01.JPG,AFNE01.JPG,AFNE01.JPG,AFNE01.JPG,4,0,40,1,,,,,,,,,,,,,,,,,,,,,,,AFNE03.jpg,AFSA08.jpg,AFSA16.jpg,AFNE19.jpg,AFNE03.jpg,FN,3,num_8,32,num_2,0.650107335299,,,2017_Jun_12_1246,59.9997883088,FEMA4ImagesEEG,001,200552,
AFNE01.JPG,AFNE01.JPG,AFNE01.JPG,AFNE01.JPG,AFNE01.JPG,AFNE01.JPG,4,1,41,7,,,,,,,,,,,,,,,,,,,,,,,AFNE05.jpg,AFSA18.jpg,AFSA04.jpg,AFNE19.jpg,AFNE19.jpg,FN,3,num_4,16,num_4,2.6667184126,,,2017_Jun_12_1246,59.9997883088,FEMA4ImagesEEG,001,200552,
AFNE01.JPG,AFNE01.JPG,AFNE01.JPG,AFNE01.JPG,AFNE01.JPG,AFNE01.JPG,4,2,42,6,,,,,,,,,,,,,,,,,,,,,,,AFNE02.jpg,AFNE13.jpg,AFSA10.jpg,AFSA15.jpg,AFNE13.jpg,FN,3,num_6,32,num_8,0.466851775884,,,2017_Jun_12_1246,59.9997883088,FEMA4ImagesEEG,001,200552,
AFNE01.JPG,AFNE01.JPG,AFNE01.JPG,AFNE01.JPG,AFNE01.JPG,AFNE01.JPG,4,3,43,8,,,,,,,,,,,,,,,,,,,,,,,AFSA15.jpg,AFNE19.jpg,AFSA06.jpg,AFNE10.jpg,AFNE19.jpg,FN,3,num_6,32,num_2,1.29977622034,,,2017_Jun_12_1246,59.9997883088,FEMA4ImagesEEG,001,200552,
AFNE01.JPG,AFNE01.JPG,AFNE01.JPG,AFNE01.JPG,AFNE01.JPG,AFNE01.JPG,4,4,44,5,,,,,,,,,,,,,,,,,,,,,,,AFNE16.jpg,AFNE02.jpg,AFSA14.jpg,AFSA16.jpg,AFSA14.jpg,FS,4,num_2,32,num_6,0.250252501806,,,2017_Jun_12_1246,59.9997883088,FEMA4ImagesEEG,001,200552,
AFNE01.JPG,AFNE01.JPG,AFNE01.JPG,AFNE01.JPG,AFNE01.JPG,AFNE01.JPG,4,5,45,9,,,,,,,,,,,,,,,,,,,,,,,AFNE14.jpg,AFSA19.jpg,AFSA04.jpg,AFNE19.jpg,AFNE19.jpg,FN,3,num_4,32,num_8,0.5501919784,,,2017_Jun_12_1246,59.9997883088,FEMA4ImagesEEG,001,200552,
AFNE01.JPG,AFNE01.JPG,AFNE01.JPG,AFNE01.JPG,AFNE01.JPG,AFNE01.JPG,4,6,46,0,,,,,,,,,,,,,,,,,,,,,,,AFSA17.jpg,AFNE08.jpg,AFSA01.jpg,AFNE13.jpg,AFSA17.jpg,FS,4,num_8,32,num_2,0.383514139336,,,2017_Jun_12_1246,59.9997883088,FEMA4ImagesEEG,001,200552,
AFNE01.JPG,AFNE01.JPG,AFNE01.JPG,AFNE01.JPG,AFNE01.JPG,AFNE01.JPG,4,7,47,2,,,,,,,,,,,,,,,,,,,,,,,AFNE17.jpg,AFSA12.jpg,AFNE04.jpg,AFSA04.jpg,AFNE04.jpg,FN,3,num_2,16,num_2,1.40013323503,,,2017_Jun_12_1246,59.9997883088,FEMA4ImagesEEG,001,200552,
AFNE01.JPG,AFNE01.JPG,AFNE01.JPG,AFNE01.JPG,AFNE01.JPG,AFNE01.JPG,4,8,48,3,,,,,,,,,,,,,,,,,,,,,,,AFSA08.jpg,AFSA03.jpg,AFNE07.jpg,AFNE01.jpg,AFSA08.jpg,FS,4,num_8,32,num_6,0.566827111004,,,2017_Jun_12_1246,59.9997883088,FEMA4ImagesEEG,001,200552,
AFNE01.JPG,AFNE01.JPG,AFNE01.JPG,AFNE01.JPG,AFNE01.JPG,AFNE01.JPG,4,9,49,4,,,,,,,,,,,,,,,,,,,,,,,AFNE02.jpg,AFSA15.jpg,AFSA20.jpg,AFNE05.jpg,AFSA20.jpg,FS,4,num_2,32,num_8,1.05009206815,,,2017_Jun_12_1246,59.9997883088,FEMA4ImagesEEG,001,200552,
AFNE01.JPG,AFNE01.JPG,AFNE01.JPG,AFNE01.JPG,AFNE01.JPG,AFNE01.JPG,5,0,50,7,,,,,,,,,,,,,,,,,,,,,,,AFNE07.jpg,AFSA10.jpg,AFSA03.jpg,AFNE15.jpg,AFNE15.jpg,FN,3,num_4,16,num_4,0.500170152111,,,2017_Jun_12_1246,59.9997883088,FEMA4ImagesEEG,001,200552,
AFNE01.JPG,AFNE01.JPG,AFNE01.JPG,AFNE01.JPG,AFNE01.JPG,AFNE01.JPG,5,1,51,1,,,,,,,,,,,,,,,,,,,,,,,AFSA20.jpg,AFSA19.jpg,AFNE17.jpg,AFNE18.jpg,AFNE18.jpg,FN,3,num_4,32,num_2,1.53338621248,,,2017_Jun_12_1246,59.9997883088,FEMA4ImagesEEG,001,200552,
AFNE01.JPG,AFNE01.JPG,AFNE01.JPG,AFNE01.JPG,AFNE01.JPG,AFNE01.JPG,5,2,52,9,,,,,,,,,,,,,,,,,,,,,,,AFSA03.jpg,AFNE05.jpg,AFNE02.jpg,AFSA05.jpg,AFSA05.jpg,FS,4,num_4,32,num_8,0.333485577488,,,2017_Jun_12_1246,59.9997883088,FEMA4ImagesEEG,001,200552,
AFNE01.JPG,AFNE01.JPG,AFNE01.JPG,AFNE01.JPG,AFNE01.JPG,AFNE01.JPG,5,3,53,6,,,,,,,,,,,,,,,,,,,,,,,AFNE02.jpg,AFSA13.jpg,AFSA07.jpg,AFNE19.jpg,AFNE19.jpg,FN,3,num_4,32,num_6,0.63349048479,,,2017_Jun_12_1246,59.9997883088,FEMA4ImagesEEG,001,200552,
AFNE01.JPG,AFNE01.JPG,AFNE01.JPG,AFNE01.JPG,AFNE01.JPG,AFNE01.JPG,5,4,54,3,,,,,,,,,,,,,,,,,,,,,,,AFSA14.jpg,AFNE02.jpg,AFSA07.jpg,AFNE01.jpg,AFNE01.jpg,FN,3,num_4,32,num_2,1.43339387816,,,2017_Jun_12_1246,59.9997883088,FEMA4ImagesEEG,001,200552,
AFNE01.JPG,AFNE01.JPG,AFNE01.JPG,AFNE01.JPG,AFNE01.JPG,AFNE01.JPG,5,5,55,8,,,,,,,,,,,,,,,,,,,,,,,AFNE11.jpg,AFNE19.jpg,AFSA19.jpg,AFSA02.jpg,AFNE11.jpg,FN,3,num_8,16,num_8,0.500184906123,,,2017_Jun_12_1246,59.9997883088,FEMA4ImagesEEG,001,200552,
AFNE01.JPG,AFNE01.JPG,AFNE01.JPG,AFNE01.JPG,AFNE01.JPG,AFNE01.JPG,5,6,56,0,,,,,,,,,,,,,,,,,,,,,,,AFNE03.jpg,AFNE08.jpg,AFSA16.jpg,AFSA15.jpg,AFNE03.jpg,FN,3,num_8,32,num_4,0.550133924582,,,2017_Jun_12_1246,59.9997883088,FEMA4ImagesEEG,001,200552,
AFNE01.JPG,AFNE01.JPG,AFNE01.JPG,AFNE01.JPG,AFNE01.JPG,AFNE01.JPG,5,7,57,4,,,,,,,,,,,,,,,,,,,,,,,AFNE18.jpg,AFNE05.jpg,AFSA13.jpg,AFSA17.jpg,AFNE18.jpg,FN,3,num_8,32,num_6,0.283598461596,,,2017_Jun_12_1246,59.9997883088,FEMA4ImagesEEG,001,200552,
AFNE01.JPG,AFNE01.JPG,AFNE01.JPG,AFNE01.JPG,AFNE01.JPG,AFNE01.JPG,5,8,58,2,,,,,,,,,,,,,,,,,,,,,,,AFNE07.jpg,AFSA04.jpg,AFNE09.jpg,AFSA15.jpg,AFNE09.jpg,FN,3,num_2,16,num_2,0.450108554156,,,2017_Jun_12_1246,59.9997883088,FEMA4ImagesEEG,001,200552,
AFNE01.JPG,AFNE01.JPG,AFNE01.JPG,AFNE01.JPG,AFNE01.JPG,AFNE01.JPG,5,9,59,5,,,,,,,,,,,,,,,,,,,,,,,AFNE17.jpg,AFSA14.jpg,AFNE03.jpg,AFSA05.jpg,AFNE03.jpg,FN,3,num_2,32,num_4,0.350147331541,,,2017_Jun_12_1246,59.9997883088,FEMA4ImagesEEG,001,200552,
,,,,,,,,,,,,,,,,,,,,,,,,,,,,,,,,,,,,,,,,,,,space,12.0492190164,2017_Jun_12_1246,59.9997883088,FEMA4ImagesEEG,001,200552,
AFNE01.JPG,AFNE01.JPG,AFNE01.JPG,AFNE01.JPG,AFNE01.JPG,AFNE01.JPG,,,,,0,0,0,5,,,,,,,,,,,,,,,,,,,AMSA09.jpg,AMNE10.jpg,AMSA11.jpg,AMNE02.jpg,AMNE10.jpg,MN,1,num_6,32,num_8,0.400300660811,,,2017_Jun_12_1246,59.9997883088,FEMA4ImagesEEG,001,200552,
AFNE01.JPG,AFNE01.JPG,AFNE01.JPG,AFNE01.JPG,AFNE01.JPG,AFNE01.JPG,,,,,0,1,1,9,,,,,,,,,,,,,,,,,,,AMNE03.jpg,AMSA05.jpg,AMNE13.jpg,AMSA12.jpg,AMNE13.jpg,MN,1,num_2,16,num_2,0.483468626393,,,2017_Jun_12_1246,59.9997883088,FEMA4ImagesEEG,001,200552,
AFNE01.JPG,AFNE01.JPG,AFNE01.JPG,AFNE01.JPG,AFNE01.JPG,AFNE01.JPG,,,,,0,2,2,3,,,,,,,,,,,,,,,,,,,AMNE14.jpg,AMSA03.jpg,AMNE17.jpg,AMSA18.jpg,AMSA18.jpg,MS,2,num_4,16,num_4,0.300380172033,,,2017_Jun_12_1246,59.9997883088,FEMA4ImagesEEG,001,200552,
AFNE01.JPG,AFNE01.JPG,AFNE01.JPG,AFNE01.JPG,AFNE01.JPG,AFNE01.JPG,,,,,0,3,3,8,,,,,,,,,,,,,,,,,,,AMNE06.jpg,AMSA07.jpg,AMSA03.jpg,AMNE14.jpg,AMNE06.jpg,MN,1,num_8,16,num_8,0.73349661089,,,2017_Jun_12_1246,59.9997883088,FEMA4ImagesEEG,001,200552,
AFNE01.JPG,AFNE01.JPG,AFNE01.JPG,AFNE01.JPG,AFNE01.JPG,AFNE01.JPG,,,,,0,4,4,7,,,,,,,,,,,,,,,,,,,AMSA11.jpg,AMSA14.jpg,AMNE05.jpg,AMNE06.jpg,AMSA11.jpg,MS,2,num_8,32,num_2,0.866439433768,,,2017_Jun_12_1246,59.9997883088,FEMA4ImagesEEG,001,200552,
AFNE01.JPG,AFNE01.JPG,AFNE01.JPG,AFNE01.JPG,AFNE01.JPG,AFNE01.JPG,,,,,0,5,5,2,,,,,,,,,,,,,,,,,,,AMSA18.jpg,AMNE01.jpg,AMNE19.jpg,AMSA16.jpg,AMSA18.jpg,MS,2,num_8,16,num_8,0.416894418129,,,2017_Jun_12_1246,59.9997883088,FEMA4ImagesEEG,001,200552,
AFNE01.JPG,AFNE01.JPG,AFNE01.JPG,AFNE01.JPG,AFNE01.JPG,AFNE01.JPG,,,,,0,6,6,0,,,,,,,,,,,,,,,,,,,AMSA06.jpg,AMNE09.jpg,AMNE12.jpg,AMSA20.jpg,AMSA20.jpg,MS,2,num_4,16,num_4,0.283496466582,,,2017_Jun_12_1246,59.9997883088,FEMA4ImagesEEG,001,200552,
AFNE01.JPG,AFNE01.JPG,AFNE01.JPG,AFNE01.JPG,AFNE01.JPG,AFNE01.JPG,,,,,0,7,7,6,,,,,,,,,,,,,,,,,,,AMSA01.jpg,AMNE20.jpg,AMNE09.jpg,AMSA09.jpg,AMNE09.jpg,MN,1,num_2,32,num_6,0.366819349176,,,2017_Jun_12_1246,59.9997883088,FEMA4ImagesEEG,001,200552,
AFNE01.JPG,AFNE01.JPG,AFNE01.JPG,AFNE01.JPG,AFNE01.JPG,AFNE01.JPG,,,,,0,8,8,4,,,,,,,,,,,,,,,,,,,AMSA08.jpg,AMNE13.jpg,AMSA16.jpg,AMNE10.jpg,AMSA16.jpg,MS,2,num_2,16,num_2,0.450170777505,,,2017_Jun_12_1246,59.9997883088,FEMA4ImagesEEG,001,200552,
AFNE01.JPG,AFNE01.JPG,AFNE01.JPG,AFNE01.JPG,AFNE01.JPG,AFNE01.JPG,,,,,0,9,9,1,,,,,,,,,,,,,,,,,,,AMSA18.jpg,AMNE07.jpg,AMSA04.jpg,AMNE04.jpg,AMSA04.jpg,MS,2,num_2,32,num_8,0.283572161046,,,2017_Jun_12_1246,59.9997883088,FEMA4ImagesEEG,001,200552,
AFNE01.JPG,AFNE01.JPG,AFNE01.JPG,AFNE01.JPG,AFNE01.JPG,AFNE01.JPG,,,,,1,0,10,8,,,,,,,,,,,,,,,,,,,AMNE09.jpg,AMSA11.jpg,AMSA18.jpg,AMNE04.jpg,AMNE04.jpg,MN,1,num_4,16,num_4,0.63339650823,,,2017_Jun_12_1246,59.9997883088,FEMA4ImagesEEG,001,200552,
AFNE01.JPG,AFNE01.JPG,AFNE01.JPG,AFNE01.JPG,AFNE01.JPG,AFNE01.JPG,,,,,1,1,11,4,,,,,,,,,,,,,,,,,,,AMSA06.jpg,AMNE09.jpg,AMSA07.jpg,AMNE14.jpg,AMNE09.jpg,MN,1,num_6,32,num_4,0.266838561452,,,2017_Jun_12_1246,59.9997883088,FEMA4ImagesEEG,001,200552,
AFNE01.JPG,AFNE01.JPG,AFNE01.JPG,AFNE01.JPG,AFNE01.JPG,AFNE01.JPG,,,,,1,2,12,1,,,,,,,,,,,,,,,,,,,AMNE13.jpg,AMNE01.jpg,AMSA07.jpg,AMSA13.jpg,AMSA13.jpg,MS,2,num_4,32,num_6,0.283565104764,,,2017_Jun_12_1246,59.9997883088,FEMA4ImagesEEG,001,200552,
AFNE01.JPG,AFNE01.JPG,AFNE01.JPG,AFNE01.JPG,AFNE01.JPG,AFNE01.JPG,,,,,1,3,13,3,,,,,,,,,,,,,,,,,,,AMSA06.jpg,AMNE04.jpg,AMSA02.jpg,AMNE10.jpg,AMSA06.jpg,MS,2,num_8,16,num_8,0.533462869178,,,2017_Jun_12_1246,59.9997883088,FEMA4ImagesEEG,001,200552,
AFNE01.JPG,AFNE01.JPG,AFNE01.JPG,AFNE01.JPG,AFNE01.JPG,AFNE01.JPG,,,,,1,4,14,2,,,,,,,,,,,,,,,,,,,AMNE11.jpg,AMSA16.jpg,AMSA13.jpg,AMNE20.jpg,AMSA13.jpg,MS,2,num_2,16,num_2,0.850176679145,,,2017_Jun_12_1246,59.9997883088,FEMA4ImagesEEG,001,200552,
AFNE01.JPG,AFNE01.JPG,AFNE01.JPG,AFNE01.JPG,AFNE01.JPG,AFNE01.JPG,,,,,1,5,15,5,,,,,,,,,,,,,,,,,,,AMSA08.jpg,AMNE07.jpg,AMNE19.jpg,AMSA18.jpg,AMSA08.jpg,MS,2,num_8,32,num_2,1.03347714205,,,2017_Jun_12_1246,59.9997883088,FEMA4ImagesEEG,001,200552,
AFNE01.JPG,AFNE01.JPG,AFNE01.JPG,AFNE01.JPG,AFNE01.JPG,AFNE01.JPG,,,,,1,6,16,0,,,,,,,,,,,,,,,,,,,AMSA15.jpg,AMNE13.jpg,AMNE16.jpg,AMSA18.jpg,AMNE16.jpg,MN,1,num_2,32,num_4,0.533502320061,,,2017_Jun_12_1246,59.9997883088,FEMA4ImagesEEG,001,200552,
AFNE01.JPG,AFNE01.JPG,AFNE01.JPG,AFNE01.JPG,AFNE01.JPG,AFNE01.JPG,,,,,1,7,17,9,,,,,,,,,,,,,,,,,,,AMSA11.jpg,AMNE16.jpg,AMNE02.jpg,AMSA20.jpg,AMNE16.jpg,MN,1,num_6,16,num_6,0.383529214014,,,2017_Jun_12_1246,59.9997883088,FEMA4ImagesEEG,001,200552,
AFNE01.JPG,AFNE01.JPG,AFNE01.JPG,AFNE01.JPG,AFNE01.JPG,AFNE01.JPG,,,,,1,8,18,7,,,,,,,,,,,,,,,,,,,AMNE07.jpg,AMNE19.jpg,AMSA06.jpg,AMSA20.jpg,AMSA06.jpg,MS,2,num_2,16,num_2,1.2833546999,,,2017_Jun_12_1246,59.9997883088,FEMA4ImagesEEG,001,200552,
AFNE01.JPG,AFNE01.JPG,AFNE01.JPG,AFNE01.JPG,AFNE01.JPG,AFNE01.JPG,,,,,1,9,19,6,,,,,,,,,,,,,,,,,,,AMSA04.jpg,AMNE08.jpg,AMSA20.jpg,AMNE01.jpg,AMNE01.jpg,MN,1,num_4,32,num_8,0.283565104764,,,2017_Jun_12_1246,59.9997883088,FEMA4ImagesEEG,001,200552,
AFNE01.JPG,AFNE01.JPG,AFNE01.JPG,AFNE01.JPG,AFNE01.JPG,AFNE01.JPG,,,,,2,0,20,8,,,,,,,,,,,,,,,,,,,AMSA15.jpg,AMSA04.jpg,AMNE14.jpg,AMNE02.jpg,AMNE02.jpg,MN,1,num_4,16,num_4,0.316849803319,,,2017_Jun_12_1246,59.9997883088,FEMA4ImagesEEG,001,200552,
AFNE01.JPG,AFNE01.JPG,AFNE01.JPG,AFNE01.JPG,AFNE01.JPG,AFNE01.JPG,,,,,2,1,21,1,,,,,,,,,,,,,,,,,,,AMNE07.jpg,AMSA17.jpg,AMSA01.jpg,AMNE16.jpg,AMNE07.jpg,MN,1,num_8,32,num_6,0.483516095788,,,2017_Jun_12_1246,59.9997883088,FEMA4ImagesEEG,001,200552,
AFNE01.JPG,AFNE01.JPG,AFNE01.JPG,AFNE01.JPG,AFNE01.JPG,AFNE01.JPG,,,,,2,2,22,2,,,,,,,,,,,,,,,,,,,AMNE02.jpg,AMSA07.jpg,AMNE10.jpg,AMSA11.jpg,AMSA11.jpg,MS,2,num_4,32,num_8,1.36676899309,,,2017_Jun_12_1246,59.9997883088,FEMA4ImagesEEG,001,200552,
AFNE01.JPG,AFNE01.JPG,AFNE01.JPG,AFNE01.JPG,AFNE01.JPG,AFNE01.JPG,,,,,2,3,23,5,,,,,,,,,,,,,,,,,,,AMSA12.jpg,AMSA17.jpg,AMNE07.jpg,AMNE11.jpg,AMSA17.jpg,MS,2,num_6,32,num_2,0.683503651177,,,2017_Jun_12_1246,59.9997883088,FEMA4ImagesEEG,001,200552,
AFNE01.JPG,AFNE01.JPG,AFNE01.JPG,AFNE01.JPG,AFNE01.JPG,AFNE01.JPG,,,,,2,4,24,0,,,,,,,,,,,,,,,,,,,AMNE20.jpg,AMNE03.jpg,AMSA13.jpg,AMSA02.jpg,AMNE20.jpg,MN,1,num_8,32,num_6,1.15013860742,,,2017_Jun_12_1246,59.9997883088,FEMA4ImagesEEG,001,200552,
AFNE01.JPG,AFNE01.JPG,AFNE01.JPG,AFNE01.JPG,AFNE01.JPG,AFNE01.JPG,,,,,2,5,25,4,,,,,,,,,,,,,,,,,,,AMSA07.jpg,AMNE12.jpg,AMNE09.jpg,AMSA13.jpg,AMNE09.jpg,MN,1,num_2,32,num_4,0.383548137615,,,2017_Jun_12_1246,59.9997883088,FEMA4ImagesEEG,001,200552,
AFNE01.JPG,AFNE01.JPG,AFNE01.JPG,AFNE01.JPG,AFNE01.JPG,AFNE01.JPG,,,,,2,6,26,6,,,,,,,,,,,,,,,,,,,AMNE05.jpg,AMSA03.jpg,AMSA08.jpg,AMNE11.jpg,AMNE05.jpg,MN,1,num_8,16,num_8,0.483473437547,,,2017_Jun_12_1246,59.9997883088,FEMA4ImagesEEG,001,200552,
AFNE01.JPG,AFNE01.JPG,AFNE01.JPG,AFNE01.JPG,AFNE01.JPG,AFNE01.JPG,,,,,2,7,27,7,,,,,,,,,,,,,,,,,,,AMNE16.jpg,AMSA20.jpg,AMSA09.jpg,AMNE09.jpg,AMNE09.jpg,MN,1,num_4,32,num_2,1.18342619261,,,2017_Jun_12_1246,59.9997883088,FEMA4ImagesEEG,001,200552,
AFNE01.JPG,AFNE01.JPG,AFNE01.JPG,AFNE01.JPG,AFNE01.JPG,AFNE01.JPG,,,,,2,8,28,9,,,,,,,,,,,,,,,,,,,AMSA07.jpg,AMNE13.jpg,AMNE17.jpg,AMSA03.jpg,AMNE17.jpg,MN,1,num_2,32,num_6,0.500192924577,,,2017_Jun_12_1246,59.9997883088,FEMA4ImagesEEG,001,200552,
AFNE01.JPG,AFNE01.JPG,AFNE01.JPG,AFNE01.JPG,AFNE01.JPG,AFNE01.JPG,,,,,2,9,29,3,,,,,,,,,,,,,,,,,,,AMNE07.jpg,AMSA08.jpg,AMSA18.jpg,AMNE18.jpg,AMSA08.jpg,MS,2,num_6,16,num_6,0.650135881151,,,2017_Jun_12_1246,59.9997883088,FEMA4ImagesEEG,001,200552,
AFNE01.JPG,AFNE01.JPG,AFNE01.JPG,AFNE01.JPG,AFNE01.JPG,AFNE01.JPG,,,,,3,0,30,6,,,,,,,,,,,,,,,,,,,AMNE03.jpg,AMSA02.jpg,AMSA05.jpg,AMNE19.jpg,AMNE19.jpg,MN,1,num_4,32,num_8,0.649992831517,,,2017_Jun_12_1246,59.9997883088,FEMA4ImagesEEG,001,200552,
AFNE01.JPG,AFNE01.JPG,AFNE01.JPG,AFNE01.JPG,AFNE01.JPG,AFNE01.JPG,,,,,3,1,31,8,,,,,,,,,,,,,,,,,,,AMNE17.jpg,AMNE03.jpg,AMSA09.jpg,AMSA04.jpg,AMNE17.jpg,MN,1,num_8,32,num_2,0.600222785375,,,2017_Jun_12_1246,59.9997883088,FEMA4ImagesEEG,001,200552,
AFNE01.JPG,AFNE01.JPG,AFNE01.JPG,AFNE01.JPG,AFNE01.JPG,AFNE01.JPG,,,,,3,2,32,5,,,,,,,,,,,,,,,,,,,AMNE07.jpg,AMNE03.jpg,AMSA04.jpg,AMSA14.jpg,AMNE07.jpg,MN,1,num_8,16,num_8,1.00014369108,,,2017_Jun_12_1246,59.9997883088,FEMA4ImagesEEG,001,200552,
AFNE01.JPG,AFNE01.JPG,AFNE01.JPG,AFNE01.JPG,AFNE01.JPG,AFNE01.JPG,,,,,3,3,33,1,,,,,,,,,,,,,,,,,,,AMNE04.jpg,AMSA13.jpg,AMSA07.jpg,AMNE09.jpg,AMNE09.jpg,MN,1,num_4,32,num_6,0.750166062673,,,2017_Jun_12_1246,59.9997883088,FEMA4ImagesEEG,001,200552,
AFNE01.JPG,AFNE01.JPG,AFNE01.JPG,AFNE01.JPG,AFNE01.JPG,AFNE01.JPG,,,,,3,4,34,4,,,,,,,,,,,,,,,,,,,AMSA04.jpg,AMNE07.jpg,AMNE02.jpg,AMSA10.jpg,AMSA10.jpg,MS,2,num_4,16,num_4,1.15013090963,,,2017_Jun_12_1246,59.9997883088,FEMA4ImagesEEG,001,200552,
AFNE01.JPG,AFNE01.JPG,AFNE01.JPG,AFNE01.JPG,AFNE01.JPG,AFNE01.JPG,,,,,3,5,35,2,,,,,,,,,,,,,,,,,,,AMSA18.jpg,AMNE10.jpg,AMSA04.jpg,AMNE12.jpg,AMNE10.jpg,MN,1,num_6,16,num_6,1.11678879877,,,2017_Jun_12_1246,59.9997883088,FEMA4ImagesEEG,001,200552,
AFNE01.JPG,AFNE01.JPG,AFNE01.JPG,AFNE01.JPG,AFNE01.JPG,AFNE01.JPG,,,,,3,6,36,0,,,,,,,,,,,,,,,,,,,AMSA02.jpg,AMNE09.jpg,AMNE06.jpg,AMSA12.jpg,AMNE09.jpg,MN,1,num_6,16,num_6,0.700145840063,,,2017_Jun_12_1246,59.9997883088,FEMA4ImagesEEG,001,200552,
AFNE01.JPG,AFNE01.JPG,AFNE01.JPG,AFNE01.JPG,AFNE01.JPG,AFNE01.JPG,,,,,3,7,37,7,,,,,,,,,,,,,,,,,,,AMSA11.jpg,AMSA02.jpg,AMNE03.jpg,AMNE05.jpg,AMSA02.jpg,MS,2,num_6,16,num_6,1.78337218019,,,2017_Jun_12_1246,59.9997883088,FEMA4ImagesEEG,001,200552,
AFNE01.JPG,AFNE01.JPG,AFNE01.JPG,AFNE01.JPG,AFNE01.JPG,AFNE01.JPG,,,,,3,8,38,3,,,,,,,,,,,,,,,,,,,AMNE12.jpg,AMSA20.jpg,AMSA12.jpg,AMNE06.jpg,AMSA20.jpg,MS,2,num_6,32,num_8,0.38351959188,,,2017_Jun_12_1246,59.9997883088,FEMA4ImagesEEG,001,200552,
AFNE01.JPG,AFNE01.JPG,AFNE01.JPG,AFNE01.JPG,AFNE01.JPG,AFNE01.JPG,,,,,3,9,39,9,,,,,,,,,,,,,,,,,,,AMSA07.jpg,AMSA11.jpg,AMNE01.jpg,AMNE08.jpg,AMNE01.jpg,MN,1,num_2,32,num_4,0.566760718066,,,2017_Jun_12_1246,59.9997883088,FEMA4ImagesEEG,001,200552,
AFNE01.JPG,AFNE01.JPG,AFNE01.JPG,AFNE01.JPG,AFNE01.JPG,AFNE01.JPG,,,,,4,0,40,2,,,,,,,,,,,,,,,,,,,AMNE06.jpg,AMNE10.jpg,AMSA12.jpg,AMSA11.jpg,AMSA12.jpg,MS,2,num_2,32,num_4,0.633474127098,,,2017_Jun_12_1246,59.9997883088,FEMA4ImagesEEG,001,200552,
AFNE01.JPG,AFNE01.JPG,AFNE01.JPG,AFNE01.JPG,AFNE01.JPG,AFNE01.JPG,,,,,4,1,41,4,,,,,,,,,,,,,,,,,,,AMSA08.jpg,AMSA13.jpg,AMNE12.jpg,AMNE05.jpg,AMNE05.jpg,MN,1,num_4,32,num_8,2.51664972631,,,2017_Jun_12_1246,59.9997883088,FEMA4ImagesEEG,001,200552,
AFNE01.JPG,AFNE01.JPG,AFNE01.JPG,AFNE01.JPG,AFNE01.JPG,AFNE01.JPG,,,,,4,2,42,3,,,,,,,,,,,,,,,,,,,AMSA01.jpg,AMNE05.jpg,AMSA16.jpg,AMNE11.jpg,AMNE11.jpg,MN,1,num_4,32,num_6,0.666753373167,,,2017_Jun_12_1246,59.9997883088,FEMA4ImagesEEG,001,200552,
AFNE01.JPG,AFNE01.JPG,AFNE01.JPG,AFNE01.JPG,AFNE01.JPG,AFNE01.JPG,,,,,4,3,43,7,,,,,,,,,,,,,,,,,,,AMSA09.jpg,AMNE11.jpg,AMNE03.jpg,AMSA05.jpg,AMNE03.jpg,MN,1,num_2,32,num_4,0.883570108272,,,2017_Jun_12_1246,59.9997883088,FEMA4ImagesEEG,001,200552,
AFNE01.JPG,AFNE01.JPG,AFNE01.JPG,AFNE01.JPG,AFNE01.JPG,AFNE01.JPG,,,,,4,4,44,6,,,,,,,,,,,,,,,,,,,AMSA03.jpg,AMNE12.jpg,AMNE08.jpg,AMSA20.jpg,AMNE08.jpg,MN,1,num_2,32,num_8,0.650170841662,,,2017_Jun_12_1246,59.9997883088,FEMA4ImagesEEG,001,200552,
AFNE01.JPG,AFNE01.JPG,AFNE01.JPG,AFNE01.JPG,AFNE01.JPG,AFNE01.JPG,,,,,4,5,45,1,,,,,,,,,,,,,,,,,,,AMSA05.jpg,AMNE08.jpg,AMSA03.jpg,AMNE13.jpg,AMSA05.jpg,MS,2,num_8,32,num_2,0.550140018691,,,2017_Jun_12_1246,59.9997883088,FEMA4ImagesEEG,001,200552,
AFNE01.JPG,AFNE01.JPG,AFNE01.JPG,AFNE01.JPG,AFNE01.JPG,AFNE01.JPG,,,,,4,6,46,0,,,,,,,,,,,,,,,,,,,AMSA19.jpg,AMNE11.jpg,AMNE01.jpg,AMSA18.jpg,AMSA19.jpg,MS,2,num_8,32,num_6,0.300171370851,,,2017_Jun_12_1246,59.9997883088,FEMA4ImagesEEG,001,200552,
AFNE01.JPG,AFNE01.JPG,AFNE01.JPG,AFNE01.JPG,AFNE01.JPG,AFNE01.JPG,,,,,4,7,47,5,,,,,,,,,,,,,,,,,,,AMSA18.jpg,AMNE09.jpg,AMSA03.jpg,AMNE07.jpg,AMSA18.jpg,MS,2,num_8,32,num_4,0.333441636234,,,2017_Jun_12_1246,59.9997883088,FEMA4ImagesEEG,001,200552,
AFNE01.JPG,AFNE01.JPG,AFNE01.JPG,AFNE01.JPG,AFNE01.JPG,AFNE01.JPG,,,,,4,8,48,8,,,,,,,,,,,,,,,,,,,AMSA09.jpg,AMNE09.jpg,AMSA13.jpg,AMNE03.jpg,AMNE09.jpg,MN,1,num_6,32,num_8,0.316782127367,,,2017_Jun_12_1246,59.9997883088,FEMA4ImagesEEG,001,200552,
AFNE01.JPG,AFNE01.JPG,AFNE01.JPG,AFNE01.JPG,AFNE01.JPG,AFNE01.JPG,,,,,4,9,49,9,,,,,,,,,,,,,,,,,,,AMSA11.jpg,AMSA07.jpg,AMNE08.jpg,AMNE12.jpg,AMSA11.jpg,MS,2,num_8,32,num_2,0.683475746831,,,2017_Jun_12_1246,59.9997883088,FEMA4ImagesEEG,001,200552,
AFNE01.JPG,AFNE01.JPG,AFNE01.JPG,AFNE01.JPG,AFNE01.JPG,AFNE01.JPG,,,,,5,0,50,5,,,,,,,,,,,,,,,,,,,AMSA10.jpg,AMNE18.jpg,AMSA03.jpg,AMNE20.jpg,AMSA10.jpg,MS,2,num_8,32,num_4,0.600130733219,,,2017_Jun_12_1246,59.9997883088,FEMA4ImagesEEG,001,200552,
AFNE01.JPG,AFNE01.JPG,AFNE01.JPG,AFNE01.JPG,AFNE01.JPG,AFNE01.JPG,,,,,5,1,51,8,,,,,,,,,,,,,,,,,,,AMNE20.jpg,AMNE05.jpg,AMSA07.jpg,AMSA06.jpg,AMSA06.jpg,MS,2,num_4,32,num_6,0.700082013034,,,2017_Jun_12_1246,59.9997883088,FEMA4ImagesEEG,001,200552,
AFNE01.JPG,AFNE01.JPG,AFNE01.JPG,AFNE01.JPG,AFNE01.JPG,AFNE01.JPG,,,,,5,2,52,1,,,,,,,,,,,,,,,,,,,AMSA19.jpg,AMNE10.jpg,AMSA06.jpg,AMNE05.jpg,AMNE10.jpg,MN,1,num_6,32,num_8,0.766637297638,,,2017_Jun_12_1246,59.9997883088,FEMA4ImagesEEG,001,200552,
AFNE01.JPG,AFNE01.JPG,AFNE01.JPG,AFNE01.JPG,AFNE01.JPG,AFNE01.JPG,,,,,5,3,53,9,,,,,,,,,,,,,,,,,,,AMNE13.jpg,AMSA04.jpg,AMNE04.jpg,AMSA06.jpg,AMSA04.jpg,MS,2,num_6,32,num_2,0.61672994314,,,2017_Jun_12_1246,59.9997883088,FEMA4ImagesEEG,001,200552,
AFNE01.JPG,AFNE01.JPG,AFNE01.JPG,AFNE01.JPG,AFNE01.JPG,AFNE01.JPG,,,,,5,4,54,7,,,,,,,,,,,,,,,,,,,AMNE02.jpg,AMNE16.jpg,AMSA19.jpg,AMSA10.jpg,AMNE02.jpg,MN,1,num_8,32,num_4,0.816841945227,,,2017_Jun_12_1246,59.9997883088,FEMA4ImagesEEG,001,200552,
AFNE01.JPG,AFNE01.JPG,AFNE01.JPG,AFNE01.JPG,AFNE01.JPG,AFNE01.JPG,,,,,5,5,55,2,,,,,,,,,,,,,,,,,,,AMSA14.jpg,AMNE10.jpg,AMSA02.jpg,AMNE12.jpg,AMNE10.jpg,MN,1,num_6,16,num_6,1.53345805808,,,2017_Jun_12_1246,59.9997883088,FEMA4ImagesEEG,001,200552,
AFNE01.JPG,AFNE01.JPG,AFNE01.JPG,AFNE01.JPG,AFNE01.JPG,AFNE01.JPG,,,,,5,6,56,6,,,,,,,,,,,,,,,,,,,AMSA11.jpg,AMNE04.jpg,AMNE12.jpg,AMSA16.jpg,AMSA11.jpg,MS,2,num_8,16,num_8,1.21668042103,,,2017_Jun_12_1246,59.9997883088,FEMA4ImagesEEG,001,200552,
AFNE01.JPG,AFNE01.JPG,AFNE01.JPG,AFNE01.JPG,AFNE01.JPG,AFNE01.JPG,,,,,5,7,57,4,,,,,,,,,,,,,,,,,,,AMNE14.jpg,AMSA04.jpg,AMSA20.jpg,AMNE16.jpg,AMSA20.jpg,MS,2,num_2,16,num_2,0.566772264661,,,2017_Jun_12_1246,59.9997883088,FEMA4ImagesEEG,001,200552,
AFNE01.JPG,AFNE01.JPG,AFNE01.JPG,AFNE01.JPG,AFNE01.JPG,AFNE01.JPG,,,,,5,8,58,0,,,,,,,,,,,,,,,,,,,AMNE11.jpg,AMSA18.jpg,AMSA03.jpg,AMNE15.jpg,AMSA18.jpg,MS,2,num_6,32,num_4,0.600087433471,,,2017_Jun_12_1246,59.9997883088,FEMA4ImagesEEG,001,200552,
AFNE01.JPG,AFNE01.JPG,AFNE01.JPG,AFNE01.JPG,AFNE01.JPG,AFNE01.JPG,,,,,5,9,59,3,,,,,,,,,,,,,,,,,,,AMSA19.jpg,AMNE20.jpg,AMNE19.jpg,AMSA14.jpg,AMSA14.jpg,MS,2,num_4,16,num_4,0.566709079023,,,2017_Jun_12_1246,59.9997883088,FEMA4ImagesEEG,001,200552,
,,,,,,,,,,,,,,,,,,,,,,,,,,,,,,,,,,,,,,,,,,,space,19.9649076159,2017_Jun_12_1246,59.9997883088,FEMA4ImagesEEG,001,200552,
AFNE01.JPG,AFNE01.JPG,AFNE01.JPG,AFNE01.JPG,AFNE01.JPG,AFNE01.JPG,,,,,,,,,0,0,0,6,,,,,,,,,,,,,,,AFNE13.jpg,AFNE04.jpg,AFSA20.jpg,AFSA07.jpg,AFNE13.jpg,FN,3,num_8,16,num_8,0.46676517633,,,2017_Jun_12_1246,59.9997883088,FEMA4ImagesEEG,001,200552,
AFNE01.JPG,AFNE01.JPG,AFNE01.JPG,AFNE01.JPG,AFNE01.JPG,AFNE01.JPG,,,,,,,,,0,1,1,8,,,,,,,,,,,,,,,AFSA20.jpg,AFNE20.jpg,AFNE01.jpg,AFSA17.jpg,AFSA20.jpg,FS,4,num_8,32,num_2,0.350146048586,,,2017_Jun_12_1246,59.9997883088,FEMA4ImagesEEG,001,200552,
AFNE01.JPG,AFNE01.JPG,AFNE01.JPG,AFNE01.JPG,AFNE01.JPG,AFNE01.JPG,,,,,,,,,0,2,2,9,,,,,,,,,,,,,,,AFNE19.jpg,AFNE08.jpg,AFSA06.jpg,AFSA19.jpg,AFSA19.jpg,FS,4,num_4,16,num_4,0.36686072452,,,2017_Jun_12_1246,59.9997883088,FEMA4ImagesEEG,001,200552,
AFNE01.JPG,AFNE01.JPG,AFNE01.JPG,AFNE01.JPG,AFNE01.JPG,AFNE01.JPG,,,,,,,,,0,3,3,1,,,,,,,,,,,,,,,AFSA16.jpg,AFSA02.jpg,AFNE08.jpg,AFNE01.jpg,AFSA16.jpg,FS,4,num_8,32,num_6,0.283533351612,,,2017_Jun_12_1246,59.9997883088,FEMA4ImagesEEG,001,200552,
AFNE01.JPG,AFNE01.JPG,AFNE01.JPG,AFNE01.JPG,AFNE01.JPG,AFNE01.JPG,,,,,,,,,0,4,4,3,,,,,,,,,,,,,,,AFSA03.jpg,AFNE17.jpg,AFNE20.jpg,AFSA13.jpg,AFSA13.jpg,FS,4,num_4,32,num_8,0.283536558971,,,2017_Jun_12_1246,59.9997883088,FEMA4ImagesEEG,001,200552,
AFNE01.JPG,AFNE01.JPG,AFNE01.JPG,AFNE01.JPG,AFNE01.JPG,AFNE01.JPG,,,,,,,,,0,5,5,0,,,,,,,,,,,,,,,AFSA10.jpg,AFSA17.jpg,AFNE12.jpg,AFNE13.jpg,AFNE13.jpg,FN,3,num_4,32,num_8,0.93344214937,,,2017_Jun_12_1246,59.9997883088,FEMA4ImagesEEG,001,200552,
AFNE01.JPG,AFNE01.JPG,AFNE01.JPG,AFNE01.JPG,AFNE01.JPG,AFNE01.JPG,,,,,,,,,0,6,6,2,,,,,,,,,,,,,,,AFNE11.jpg,AFNE07.jpg,AFSA13.jpg,AFSA17.jpg,AFSA13.jpg,FS,4,num_2,32,num_4,0.750127573963,,,2017_Jun_12_1246,59.9997883088,FEMA4ImagesEEG,001,200552,
AFNE01.JPG,AFNE01.JPG,AFNE01.JPG,AFNE01.JPG,AFNE01.JPG,AFNE01.JPG,,,,,,,,,0,7,7,7,,,,,,,,,,,,,,,AFSA03.jpg,AFNE16.jpg,AFNE04.jpg,AFSA18.jpg,AFNE16.jpg,FN,3,num_6,32,num_2,0.266745867848,,,2017_Jun_12_1246,59.9997883088,FEMA4ImagesEEG,001,200552,
AFNE01.JPG,AFNE01.JPG,AFNE01.JPG,AFNE01.JPG,AFNE01.JPG,AFNE01.JPG,,,,,,,,,0,8,8,5,,,,,,,,,,,,,,,AFNE13.jpg,AFSA11.jpg,AFNE14.jpg,AFSA14.jpg,AFNE13.jpg,FN,3,num_8,32,num_6,0.333507708507,,,2017_Jun_12_1246,59.9997883088,FEMA4ImagesEEG,001,200552,
AFNE01.JPG,AFNE01.JPG,AFNE01.JPG,AFNE01.JPG,AFNE01.JPG,AFNE01.JPG,,,,,,,,,0,9,9,4,,,,,,,,,,,,,,,AFSA06.jpg,AFNE14.jpg,AFSA04.jpg,AFNE11.jpg,AFSA04.jpg,FS,4,num_2,32,num_4,0.316897914163,,,2017_Jun_12_1246,59.9997883088,FEMA4ImagesEEG,001,200552,
AFNE01.JPG,AFNE01.JPG,AFNE01.JPG,AFNE01.JPG,AFNE01.JPG,AFNE01.JPG,,,,,,,,,1,0,10,0,,,,,,,,,,,,,,,AFNE09.jpg,AFSA10.jpg,AFNE06.jpg,AFSA07.jpg,AFNE09.jpg,FN,3,num_8,16,num_8,0.433427876502,,,2017_Jun_12_1246,59.9997883088,FEMA4ImagesEEG,001,200552,
AFNE01.JPG,AFNE01.JPG,AFNE01.JPG,AFNE01.JPG,AFNE01.JPG,AFNE01.JPG,,,,,,,,,1,1,11,2,,,,,,,,,,,,,,,AFSA10.jpg,AFSA17.jpg,AFNE14.jpg,AFNE13.jpg,AFNE14.jpg,FN,3,num_2,16,num_2,0.433527305664,,,2017_Jun_12_1246,59.9997883088,FEMA4ImagesEEG,001,200552,
AFNE01.JPG,AFNE01.JPG,AFNE01.JPG,AFNE01.JPG,AFNE01.JPG,AFNE01.JPG,,,,,,,,,1,2,12,6,,,,,,,,,,,,,,,AFSA02.jpg,AFNE05.jpg,AFSA17.jpg,AFNE17.jpg,AFNE17.jpg,FN,3,num_4,32,num_6,0.416782480199,,,2017_Jun_12_1246,59.9997883088,FEMA4ImagesEEG,001,200552,
AFNE01.JPG,AFNE01.JPG,AFNE01.JPG,AFNE01.JPG,AFNE01.JPG,AFNE01.JPG,,,,,,,,,1,3,13,4,,,,,,,,,,,,,,,AFNE08.jpg,AFSA06.jpg,AFNE05.jpg,AFSA11.jpg,AFSA11.jpg,FS,4,num_4,16,num_4,0.516810737317,,,2017_Jun_12_1246,59.9997883088,FEMA4ImagesEEG,001,200552,
AFNE01.JPG,AFNE01.JPG,AFNE01.JPG,AFNE01.JPG,AFNE01.JPG,AFNE01.JPG,,,,,,,,,1,4,14,8,,,,,,,,,,,,,,,AFNE17.jpg,AFNE09.jpg,AFSA15.jpg,AFSA11.jpg,AFNE17.jpg,FN,3,num_8,32,num_4,0.216673044022,,,2017_Jun_12_1246,59.9997883088,FEMA4ImagesEEG,001,200552,
AFNE01.JPG,AFNE01.JPG,AFNE01.JPG,AFNE01.JPG,AFNE01.JPG,AFNE01.JPG,,,,,,,,,1,5,15,3,,,,,,,,,,,,,,,AFSA01.jpg,AFNE08.jpg,AFSA06.jpg,AFNE14.jpg,AFNE08.jpg,FN,3,num_6,32,num_2,0.466792759893,,,2017_Jun_12_1246,59.9997883088,FEMA4ImagesEEG,001,200552,
AFNE01.JPG,AFNE01.JPG,AFNE01.JPG,AFNE01.JPG,AFNE01.JPG,AFNE01.JPG,,,,,,,,,1,6,16,9,,,,,,,,,,,,,,,AFNE14.jpg,AFSA16.jpg,AFNE05.jpg,AFSA14.jpg,AFNE14.jpg,FN,3,num_8,16,num_8,0.250152431254,,,2017_Jun_12_1246,59.9997883088,FEMA4ImagesEEG,001,200552,
AFNE01.JPG,AFNE01.JPG,AFNE01.JPG,AFNE01.JPG,AFNE01.JPG,AFNE01.JPG,,,,,,,,,1,7,17,1,,,,,,,,,,,,,,,AFSA05.jpg,AFNE15.jpg,AFSA19.jpg,AFNE08.jpg,AFSA19.jpg,FS,4,num_2,32,num_8,0.26678531873,,,2017_Jun_12_1246,59.9997883088,FEMA4ImagesEEG,001,200552,
AFNE01.JPG,AFNE01.JPG,AFNE01.JPG,AFNE01.JPG,AFNE01.JPG,AFNE01.JPG,,,,,,,,,1,8,18,7,,,,,,,,,,,,,,,AFSA02.jpg,AFSA04.jpg,AFNE10.jpg,AFNE17.jpg,AFSA02.jpg,FS,4,num_8,32,num_6,0.366801387805,,,2017_Jun_12_1246,59.9997883088,FEMA4ImagesEEG,001,200552,
AFNE01.JPG,AFNE01.JPG,AFNE01.JPG,AFNE01.JPG,AFNE01.JPG,AFNE01.JPG,,,,,,,,,1,9,19,5,,,,,,,,,,,,,,,AFSA13.jpg,AFNE08.jpg,AFNE19.jpg,AFSA15.jpg,AFNE19.jpg,FN,3,num_2,32,num_8,0.450247113418,,,2017_Jun_12_1246,59.9997883088,FEMA4ImagesEEG,001,200552,
AFNE01.JPG,AFNE01.JPG,AFNE01.JPG,AFNE01.JPG,AFNE01.JPG,AFNE01.JPG,,,,,,,,,2,0,20,0,,,,,,,,,,,,,,,AFNE16.jpg,AFNE20.jpg,AFSA14.jpg,AFSA08.jpg,AFSA14.jpg,FS,4,num_2,32,num_4,0.366797218216,,,2017_Jun_12_1246,59.9997883088,FEMA4ImagesEEG,001,200552,
AFNE01.JPG,AFNE01.JPG,AFNE01.JPG,AFNE01.JPG,AFNE01.JPG,AFNE01.JPG,,,,,,,,,2,1,21,6,,,,,,,,,,,,,,,AFSA16.jpg,AFNE01.jpg,AFSA13.jpg,AFNE17.jpg,AFSA16.jpg,FS,4,num_8,32,num_2,0.433447762334,,,2017_Jun_12_1246,59.9997883088,FEMA4ImagesEEG,001,200552,
AFNE01.JPG,AFNE01.JPG,AFNE01.JPG,AFNE01.JPG,AFNE01.JPG,AFNE01.JPG,,,,,,,,,2,2,22,1,,,,,,,,,,,,,,,AFSA03.jpg,AFNE15.jpg,AFNE07.jpg,AFSA13.jpg,AFSA13.jpg,FS,4,num_4,16,num_4,0.383580853057,,,2017_Jun_12_1246,59.9997883088,FEMA4ImagesEEG,001,200552,
AFNE01.JPG,AFNE01.JPG,AFNE01.JPG,AFNE01.JPG,AFNE01.JPG,AFNE01.JPG,,,,,,,,,2,3,23,4,,,,,,,,,,,,,,,AFNE16.jpg,AFSA14.jpg,AFSA20.jpg,AFNE10.jpg,AFNE10.jpg,FN,3,num_4,32,num_6,0.383520233328,,,2017_Jun_12_1246,59.9997883088,FEMA4ImagesEEG,001,200552,
AFNE01.JPG,AFNE01.JPG,AFNE01.JPG,AFNE01.JPG,AFNE01.JPG,AFNE01.JPG,,,,,,,,,2,4,24,3,,,,,,,,,,,,,,,AFNE07.jpg,AFNE13.jpg,AFSA14.jpg,AFSA12.jpg,AFSA12.jpg,FS,4,num_4,32,num_6,0.583312779316,,,2017_Jun_12_1246,59.9997883088,FEMA4ImagesEEG,001,200552,
AFNE01.JPG,AFNE01.JPG,AFNE01.JPG,AFNE01.JPG,AFNE01.JPG,AFNE01.JPG,,,,,,,,,2,5,25,9,,,,,,,,,,,,,,,AFSA15.jpg,AFNE15.jpg,AFNE11.jpg,AFSA09.jpg,AFSA09.jpg,FS,4,num_4,32,num_2,0.283501277678,,,2017_Jun_12_1246,59.9997883088,FEMA4ImagesEEG,001,200552,
AFNE01.JPG,AFNE01.JPG,AFNE01.JPG,AFNE01.JPG,AFNE01.JPG,AFNE01.JPG,,,,,,,,,2,6,26,8,,,,,,,,,,,,,,,AFSA03.jpg,AFNE16.jpg,AFNE09.jpg,AFSA19.jpg,AFSA19.jpg,FS,4,num_4,32,num_8,0.616753357055,,,2017_Jun_12_1246,59.9997883088,FEMA4ImagesEEG,001,200552,
AFNE01.JPG,AFNE01.JPG,AFNE01.JPG,AFNE01.JPG,AFNE01.JPG,AFNE01.JPG,,,,,,,,,2,7,27,2,,,,,,,,,,,,,,,AFNE10.jpg,AFNE04.jpg,AFSA06.jpg,AFSA08.jpg,AFSA08.jpg,FS,4,num_4,16,num_4,0.35013867158,,,2017_Jun_12_1246,59.9997883088,FEMA4ImagesEEG,001,200552,
AFNE01.JPG,AFNE01.JPG,AFNE01.JPG,AFNE01.JPG,AFNE01.JPG,AFNE01.JPG,,,,,,,,,2,8,28,7,,,,,,,,,,,,,,,AFNE05.jpg,AFSA13.jpg,AFSA18.jpg,AFNE03.jpg,AFSA13.jpg,FS,4,num_6,32,num_8,0.63347091974,,,2017_Jun_12_1246,59.9997883088,FEMA4ImagesEEG,001,200552,
AFNE01.JPG,AFNE01.JPG,AFNE01.JPG,AFNE01.JPG,AFNE01.JPG,AFNE01.JPG,,,,,,,,,2,9,29,5,,,,,,,,,,,,,,,AFSA11.jpg,AFNE19.jpg,AFNE15.jpg,AFSA13.jpg,AFNE15.jpg,FN,3,num_2,16,num_2,0.366826726182,,,2017_Jun_12_1246,59.9997883088,FEMA4ImagesEEG,001,200552,
AFNE01.JPG,AFNE01.JPG,AFNE01.JPG,AFNE01.JPG,AFNE01.JPG,AFNE01.JPG,,,,,,,,,3,0,30,7,,,,,,,,,,,,,,,AFSA02.jpg,AFSA05.jpg,AFNE15.jpg,AFNE10.jpg,AFSA05.jpg,FS,4,num_6,16,num_6,0.716778406815,,,2017_Jun_12_1246,59.9997883088,FEMA4ImagesEEG,001,200552,
AFNE01.JPG,AFNE01.JPG,AFNE01.JPG,AFNE01.JPG,AFNE01.JPG,AFNE01.JPG,,,,,,,,,3,1,31,1,,,,,,,,,,,,,,,AFSA08.jpg,AFSA03.jpg,AFNE15.jpg,AFNE12.jpg,AFSA03.jpg,FS,4,num_6,32,num_4,0.316814522026,,,2017_Jun_12_1246,59.9997883088,FEMA4ImagesEEG,001,200552,
AFNE01.JPG,AFNE01.JPG,AFNE01.JPG,AFNE01.JPG,AFNE01.JPG,AFNE01.JPG,,,,,,,,,3,2,32,9,,,,,,,,,,,,,,,AFSA06.jpg,AFSA19.jpg,AFNE07.jpg,AFNE15.jpg,AFSA06.jpg,FS,4,num_8,32,num_6,0.400131952076,,,2017_Jun_12_1246,59.9997883088,FEMA4ImagesEEG,001,200552,
AFNE01.JPG,AFNE01.JPG,AFNE01.JPG,AFNE01.JPG,AFNE01.JPG,AFNE01.JPG,,,,,,,,,3,3,33,8,,,,,,,,,,,,,,,AFNE05.jpg,AFNE20.jpg,AFSA05.jpg,AFSA08.jpg,AFSA05.jpg,FS,4,num_2,32,num_8,0.500135833048,,,2017_Jun_12_1246,59.9997883088,FEMA4ImagesEEG,001,200552,
AFNE01.JPG,AFNE01.JPG,AFNE01.JPG,AFNE01.JPG,AFNE01.JPG,AFNE01.JPG,,,,,,,,,3,4,34,6,,,,,,,,,,,,,,,AFNE16.jpg,AFNE09.jpg,AFSA04.jpg,AFSA08.jpg,AFSA04.jpg,FS,4,num_2,32,num_6,0.566792150494,,,2017_Jun_12_1246,59.9997883088,FEMA4ImagesEEG,001,200552,
AFNE01.JPG,AFNE01.JPG,AFNE01.JPG,AFNE01.JPG,AFNE01.JPG,AFNE01.JPG,,,,,,,,,3,5,35,3,,,,,,,,,,,,,,,AFSA03.jpg,AFNE04.jpg,AFSA01.jpg,AFNE14.jpg,AFSA03.jpg,FS,4,num_8,32,num_2,0.300137051789,,,2017_Jun_12_1246,59.9997883088,FEMA4ImagesEEG,001,200552,
AFNE01.JPG,AFNE01.JPG,AFNE01.JPG,AFNE01.JPG,AFNE01.JPG,AFNE01.JPG,,,,,,,,,3,6,36,0,,,,,,,,,,,,,,,AFSA18.jpg,AFNE07.jpg,AFNE18.jpg,AFSA16.jpg,AFNE07.jpg,FN,3,num_6,32,num_2,0.466836380423,,,2017_Jun_12_1246,59.9997883088,FEMA4ImagesEEG,001,200552,
AFNE01.JPG,AFNE01.JPG,AFNE01.JPG,AFNE01.JPG,AFNE01.JPG,AFNE01.JPG,,,,,,,,,3,7,37,4,,,,,,,,,,,,,,,AFSA12.jpg,AFSA05.jpg,AFNE17.jpg,AFNE03.jpg,AFSA12.jpg,FS,4,num_8,16,num_8,0.4168732494,,,2017_Jun_12_1246,59.9997883088,FEMA4ImagesEEG,001,200552,
AFNE01.JPG,AFNE01.JPG,AFNE01.JPG,AFNE01.JPG,AFNE01.JPG,AFNE01.JPG,,,,,,,,,3,8,38,5,,,,,,,,,,,,,,,AFNE20.jpg,AFSA14.jpg,AFNE09.jpg,AFSA15.jpg,AFSA15.jpg,FS,4,num_4,16,num_4,0.266790450609,,,2017_Jun_12_1246,59.9997883088,FEMA4ImagesEEG,001,200552,
AFNE01.JPG,AFNE01.JPG,AFNE01.JPG,AFNE01.JPG,AFNE01.JPG,AFNE01.JPG,,,,,,,,,3,9,39,2,,,,,,,,,,,,,,,AFSA07.jpg,AFNE01.jpg,AFNE18.jpg,AFSA04.jpg,AFNE01.jpg,FN,3,num_6,16,num_6,0.316847878916,,,2017_Jun_12_1246,59.9997883088,FEMA4ImagesEEG,001,200552,
AFNE01.JPG,AFNE01.JPG,AFNE01.JPG,AFNE01.JPG,AFNE01.JPG,AFNE01.JPG,,,,,,,,,4,0,40,7,,,,,,,,,,,,,,,AFSA20.jpg,AFSA05.jpg,AFNE19.jpg,AFNE04.jpg,AFNE04.jpg,FN,3,num_4,32,num_8,0.600118865899,,,2017_Jun_12_1246,59.9997883088,FEMA4ImagesEEG,001,200552,
AFNE01.JPG,AFNE01.JPG,AFNE01.JPG,AFNE01.JPG,AFNE01.JPG,AFNE01.JPG,,,,,,,,,4,1,41,6,,,,,,,,,,,,,,,AFNE08.jpg,AFSA02.jpg,AFSA10.jpg,AFNE14.jpg,AFSA02.jpg,FS,4,num_6,16,num_6,0.300222368387,,,2017_Jun_12_1246,59.9997883088,FEMA4ImagesEEG,001,200552,
AFNE01.JPG,AFNE01.JPG,AFNE01.JPG,AFNE01.JPG,AFNE01.JPG,AFNE01.JPG,,,,,,,,,4,2,42,3,,,,,,,,,,,,,,,AFSA01.jpg,AFSA09.jpg,AFNE12.jpg,AFNE11.jpg,AFSA01.jpg,FS,4,num_8,32,num_2,0.283465675602,,,2017_Jun_12_1246,59.9997883088,FEMA4ImagesEEG,001,200552,
AFNE01.JPG,AFNE01.JPG,AFNE01.JPG,AFNE01.JPG,AFNE01.JPG,AFNE01.JPG,,,,,,,,,4,3,43,0,,,,,,,,,,,,,,,AFNE19.jpg,AFNE03.jpg,AFSA06.jpg,AFSA12.jpg,AFSA06.jpg,FS,4,num_2,32,num_4,0.466796929541,,,2017_Jun_12_1246,59.9997883088,FEMA4ImagesEEG,001,200552,
AFNE01.JPG,AFNE01.JPG,AFNE01.JPG,AFNE01.JPG,AFNE01.JPG,AFNE01.JPG,,,,,,,,,4,4,44,2,,,,,,,,,,,,,,,AFNE04.jpg,AFSA20.jpg,AFNE15.jpg,AFSA10.jpg,AFSA20.jpg,FS,4,num_6,32,num_4,0.316835690814,,,2017_Jun_12_1246,59.9997883088,FEMA4ImagesEEG,001,200552,
AFNE01.JPG,AFNE01.JPG,AFNE01.JPG,AFNE01.JPG,AFNE01.JPG,AFNE01.JPG,,,,,,,,,4,5,45,5,,,,,,,,,,,,,,,AFSA09.jpg,AFNE09.jpg,AFSA02.jpg,AFNE14.jpg,AFSA09.jpg,FS,4,num_8,16,num_8,0.366822877259,,,2017_Jun_12_1246,59.9997883088,FEMA4ImagesEEG,001,200552,
AFNE01.JPG,AFNE01.JPG,AFNE01.JPG,AFNE01.JPG,AFNE01.JPG,AFNE01.JPG,,,,,,,,,4,6,46,8,,,,,,,,,,,,,,,AFNE17.jpg,AFSA16.jpg,AFSA06.jpg,AFNE06.jpg,AFNE17.jpg,FN,3,num_8,32,num_2,1.35010082432,,,2017_Jun_12_1246,59.9997883088,FEMA4ImagesEEG,001,200552,
AFNE01.JPG,AFNE01.JPG,AFNE01.JPG,AFNE01.JPG,AFNE01.JPG,AFNE01.JPG,,,,,,,,,4,7,47,4,,,,,,,,,,,,,,,AFSA14.jpg,AFSA09.jpg,AFNE14.jpg,AFNE20.jpg,AFNE20.jpg,FN,3,num_4,32,num_6,0.500176246162,,,2017_Jun_12_1246,59.9997883088,FEMA4ImagesEEG,001,200552,
AFNE01.JPG,AFNE01.JPG,AFNE01.JPG,AFNE01.JPG,AFNE01.JPG,AFNE01.JPG,,,,,,,,,4,8,48,9,,,,,,,,,,,,,,,AFNE05.jpg,AFSA05.jpg,AFSA20.jpg,AFNE15.jpg,AFSA20.jpg,FS,4,num_2,32,num_4,0.333544272755,,,2017_Jun_12_1246,59.9997883088,FEMA4ImagesEEG,001,200552,
AFNE01.JPG,AFNE01.JPG,AFNE01.JPG,AFNE01.JPG,AFNE01.JPG,AFNE01.JPG,,,,,,,,,4,9,49,1,,,,,,,,,,,,,,,AFNE14.jpg,AFSA03.jpg,AFSA08.jpg,AFNE10.jpg,AFSA08.jpg,FS,4,num_2,32,num_8,0.400198665797,,,2017_Jun_12_1246,59.9997883088,FEMA4ImagesEEG,001,200552,
AFNE01.JPG,AFNE01.JPG,AFNE01.JPG,AFNE01.JPG,AFNE01.JPG,AFNE01.JPG,,,,,,,,,5,0,50,1,,,,,,,,,,,,,,,AFNE04.jpg,AFSA06.jpg,AFNE12.jpg,AFSA10.jpg,AFNE04.jpg,FN,3,num_8,32,num_2,0.233532694052,,,2017_Jun_12_1246,59.9997883088,FEMA4ImagesEEG,001,200552,
AFNE01.JPG,AFNE01.JPG,AFNE01.JPG,AFNE01.JPG,AFNE01.JPG,AFNE01.JPG,,,,,,,,,5,1,51,7,,,,,,,,,,,,,,,AFSA07.jpg,AFNE03.jpg,AFNE18.jpg,AFSA14.jpg,AFNE03.jpg,FN,3,num_6,16,num_6,0.283562218072,,,2017_Jun_12_1246,59.9997883088,FEMA4ImagesEEG,001,200552,
AFNE01.JPG,AFNE01.JPG,AFNE01.JPG,AFNE01.JPG,AFNE01.JPG,AFNE01.JPG,,,,,,,,,5,2,52,2,,,,,,,,,,,,,,,AFNE11.jpg,AFNE09.jpg,AFSA07.jpg,AFSA03.jpg,AFNE11.jpg,FN,3,num_8,32,num_4,0.416840213235,,,2017_Jun_12_1246,59.9997883088,FEMA4ImagesEEG,001,200552,
AFNE01.JPG,AFNE01.JPG,AFNE01.JPG,AFNE01.JPG,AFNE01.JPG,AFNE01.JPG,,,,,,,,,5,3,53,0,,,,,,,,,,,,,,,AFSA06.jpg,AFNE04.jpg,AFSA08.jpg,AFNE10.jpg,AFNE10.jpg,FN,3,num_4,32,num_8,0.55016792292,,,2017_Jun_12_1246,59.9997883088,FEMA4ImagesEEG,001,200552,
AFNE01.JPG,AFNE01.JPG,AFNE01.JPG,AFNE01.JPG,AFNE01.JPG,AFNE01.JPG,,,,,,,,,5,4,54,5,,,,,,,,,,,,,,,AFSA05.jpg,AFNE10.jpg,AFNE05.jpg,AFSA18.jpg,AFSA18.jpg,FS,4,num_4,32,num_2,0.00021361222025,,,2017_Jun_12_1246,59.9997883088,FEMA4ImagesEEG,001,200552,
AFNE01.JPG,AFNE01.JPG,AFNE01.JPG,AFNE01.JPG,AFNE01.JPG,AFNE01.JPG,,,,,,,,,5,5,55,6,,,,,,,,,,,,,,,AFNE02.jpg,AFSA10.jpg,AFSA01.jpg,AFNE08.jpg,AFSA10.jpg,FS,4,num_6,16,num_6,0.250229729398,,,2017_Jun_12_1246,59.9997883088,FEMA4ImagesEEG,001,200552,
AFNE01.JPG,AFNE01.JPG,AFNE01.JPG,AFNE01.JPG,AFNE01.JPG,AFNE01.JPG,,,,,,,,,5,6,56,9,,,,,,,,,,,,,,,AFSA20.jpg,AFSA09.jpg,AFNE15.jpg,AFNE02.jpg,AFSA20.jpg,FS,4,num_8,32,num_6,0.433510627248,,,2017_Jun_12_1246,59.9997883088,FEMA4ImagesEEG,001,200552,
AFNE01.JPG,AFNE01.JPG,AFNE01.JPG,AFNE01.JPG,AFNE01.JPG,AFNE01.JPG,,,,,,,,,5,7,57,8,,,,,,,,,,,,,,,AFNE14.jpg,AFSA09.jpg,AFNE19.jpg,AFSA14.jpg,AFSA14.jpg,FS,4,num_4,32,num_2,1.18340213719,,,2017_Jun_12_1246,59.9997883088,FEMA4ImagesEEG,001,200552,
AFNE01.JPG,AFNE01.JPG,AFNE01.JPG,AFNE01.JPG,AFNE01.JPG,AFNE01.JPG,,,,,,,,,5,8,58,3,,,,,,,,,,,,,,,AFSA16.jpg,AFNE11.jpg,AFNE09.jpg,AFSA10.jpg,AFNE11.jpg,FN,3,num_6,32,num_4,0.43346700666,,,2017_Jun_12_1246,59.9997883088,FEMA4ImagesEEG,001,200552,
AFNE01.JPG,AFNE01.JPG,AFNE01.JPG,AFNE01.JPG,AFNE01.JPG,AFNE01.JPG,,,,,,,,,5,9,59,4,,,,,,,,,,,,,,,AFSA02.jpg,AFNE15.jpg,AFSA19.jpg,AFNE08.jpg,AFNE15.jpg,FN,3,num_6,16,num_6,0.766785479093,,,2017_Jun_12_1246,59.9997883088,FEMA4ImagesEEG,001,200552,
,,,,,,,,,,,,,,,,,,,,,,,,,,,,,,,,,,,,,,,,,,,space,48.7962581937,2017_Jun_12_1246,59.9997883088,FEMA4ImagesEEG,001,200552,
AFNE01.JPG,AFNE01.JPG,AFNE01.JPG,AFNE01.JPG,AFNE01.JPG,AFNE01.JPG,,,,,,,,,,,,,0,0,0,4,,,,,,,,,,,AMNE10.jpg,AMSA11.jpg,AMNE05.jpg,AMSA16.jpg,AMSA11.jpg,MS,2,num_6,32,num_8,0.333493275219,,,2017_Jun_12_1246,59.9997883088,FEMA4ImagesEEG,001,200552,
AFNE01.JPG,AFNE01.JPG,AFNE01.JPG,AFNE01.JPG,AFNE01.JPG,AFNE01.JPG,,,,,,,,,,,,,0,1,1,3,,,,,,,,,,,AMSA01.jpg,AMNE14.jpg,AMSA06.jpg,AMNE17.jpg,AMSA01.jpg,MS,2,num_8,32,num_4,0.866885581752,,,2017_Jun_12_1246,59.9997883088,FEMA4ImagesEEG,001,200552,
AFNE01.JPG,AFNE01.JPG,AFNE01.JPG,AFNE01.JPG,AFNE01.JPG,AFNE01.JPG,,,,,,,,,,,,,0,2,2,0,,,,,,,,,,,AMNE09.jpg,AMSA17.jpg,AMSA18.jpg,AMNE11.jpg,AMSA17.jpg,MS,2,num_6,32,num_2,0.316775071144,,,2017_Jun_12_1246,59.9997883088,FEMA4ImagesEEG,001,200552,
AFNE01.JPG,AFNE01.JPG,AFNE01.JPG,AFNE01.JPG,AFNE01.JPG,AFNE01.JPG,,,,,,,,,,,,,0,3,3,5,,,,,,,,,,,AMSA10.jpg,AMNE11.jpg,AMNE03.jpg,AMSA14.jpg,AMNE11.jpg,MN,1,num_6,32,num_8,0.316819974571,,,2017_Jun_12_1246,59.9997883088,FEMA4ImagesEEG,001,200552,
AFNE01.JPG,AFNE01.JPG,AFNE01.JPG,AFNE01.JPG,AFNE01.JPG,AFNE01.JPG,,,,,,,,,,,,,0,4,4,7,,,,,,,,,,,AMSA05.jpg,AMNE10.jpg,AMNE17.jpg,AMSA02.jpg,AMSA05.jpg,MS,2,num_8,32,num_6,0.533435606339,,,2017_Jun_12_1246,59.9997883088,FEMA4ImagesEEG,001,200552,
AFNE01.JPG,AFNE01.JPG,AFNE01.JPG,AFNE01.JPG,AFNE01.JPG,AFNE01.JPG,,,,,,,,,,,,,0,5,5,1,,,,,,,,,,,AMNE18.jpg,AMSA15.jpg,AMNE12.jpg,AMSA06.jpg,AMSA15.jpg,MS,2,num_6,32,num_2,0.55013905646,,,2017_Jun_12_1246,59.9997883088,FEMA4ImagesEEG,001,200552,
AFNE01.JPG,AFNE01.JPG,AFNE01.JPG,AFNE01.JPG,AFNE01.JPG,AFNE01.JPG,,,,,,,,,,,,,0,6,6,6,,,,,,,,,,,AMSA05.jpg,AMNE08.jpg,AMNE05.jpg,AMSA02.jpg,AMNE08.jpg,MN,1,num_6,32,num_8,0.666687942343,,,2017_Jun_12_1246,59.9997883088,FEMA4ImagesEEG,001,200552,
AFNE01.JPG,AFNE01.JPG,AFNE01.JPG,AFNE01.JPG,AFNE01.JPG,AFNE01.JPG,,,,,,,,,,,,,0,7,7,2,,,,,,,,,,,AMNE19.jpg,AMSA12.jpg,AMNE17.jpg,AMSA19.jpg,AMNE17.jpg,MN,1,num_2,32,num_4,2.08340755769,,,2017_Jun_12_1246,59.9997883088,FEMA4ImagesEEG,001,200552,
AFNE01.JPG,AFNE01.JPG,AFNE01.JPG,AFNE01.JPG,AFNE01.JPG,AFNE01.JPG,,,,,,,,,,,,,0,8,8,9,,,,,,,,,,,AMNE14.jpg,AMNE12.jpg,AMSA10.jpg,AMSA20.jpg,AMNE12.jpg,MN,1,num_6,32,num_2,0.383470198023,,,2017_Jun_12_1246,59.9997883088,FEMA4ImagesEEG,001,200552,
AFNE01.JPG,AFNE01.JPG,AFNE01.JPG,AFNE01.JPG,AFNE01.JPG,AFNE01.JPG,,,,,,,,,,,,,0,9,9,8,,,,,,,,,,,AMSA16.jpg,AMSA13.jpg,AMNE12.jpg,AMNE18.jpg,AMSA16.jpg,MS,2,num_8,32,num_6,0.433484005858,,,2017_Jun_12_1246,59.9997883088,FEMA4ImagesEEG,001,200552,
AFNE01.JPG,AFNE01.JPG,AFNE01.JPG,AFNE01.JPG,AFNE01.JPG,AFNE01.JPG,,,,,,,,,,,,,1,0,10,6,,,,,,,,,,,AMNE14.jpg,AMSA17.jpg,AMSA13.jpg,AMNE07.jpg,AMNE14.jpg,MN,1,num_8,32,num_4,0.733483139833,,,2017_Jun_12_1246,59.9997883088,FEMA4ImagesEEG,001,200552,
AFNE01.JPG,AFNE01.JPG,AFNE01.JPG,AFNE01.JPG,AFNE01.JPG,AFNE01.JPG,,,,,,,,,,,,,1,1,11,5,,,,,,,,,,,AMNE13.jpg,AMSA08.jpg,AMNE11.jpg,AMSA15.jpg,AMSA08.jpg,MS,2,num_6,32,num_4,0.866763059399,,,2017_Jun_12_1246,59.9997883088,FEMA4ImagesEEG,001,200552,
AFNE01.JPG,AFNE01.JPG,AFNE01.JPG,AFNE01.JPG,AFNE01.JPG,AFNE01.JPG,,,,,,,,,,,,,1,2,12,7,,,,,,,,,,,AMNE04.jpg,AMSA10.jpg,AMSA04.jpg,AMNE14.jpg,AMSA10.jpg,MS,2,num_6,16,num_6,0.900102925196,,,2017_Jun_12_1246,59.9997883088,FEMA4ImagesEEG,001,200552,
AFNE01.JPG,AFNE01.JPG,AFNE01.JPG,AFNE01.JPG,AFNE01.JPG,AFNE01.JPG,,,,,,,,,,,,,1,3,13,0,,,,,,,,,,,AMSA13.jpg,AMNE05.jpg,AMSA06.jpg,AMNE14.jpg,AMSA06.jpg,MS,2,num_2,16,num_2,0.899851465714,,,2017_Jun_12_1246,59.9997883088,FEMA4ImagesEEG,001,200552,
AFNE01.JPG,AFNE01.JPG,AFNE01.JPG,AFNE01.JPG,AFNE01.JPG,AFNE01.JPG,,,,,,,,,,,,,1,4,14,2,,,,,,,,,,,AMNE20.jpg,AMSA05.jpg,AMNE05.jpg,AMSA17.jpg,AMSA05.jpg,MS,2,num_6,16,num_6,0.450144797622,,,2017_Jun_12_1246,59.9997883088,FEMA4ImagesEEG,001,200552,
AFNE01.JPG,AFNE01.JPG,AFNE01.JPG,AFNE01.JPG,AFNE01.JPG,AFNE01.JPG,,,,,,,,,,,,,1,5,15,1,,,,,,,,,,,AMSA08.jpg,AMSA17.jpg,AMNE15.jpg,AMNE05.jpg,AMNE15.jpg,MN,1,num_2,32,num_8,0.366794331523,,,2017_Jun_12_1246,59.9997883088,FEMA4ImagesEEG,001,200552,
AFNE01.JPG,AFNE01.JPG,AFNE01.JPG,AFNE01.JPG,AFNE01.JPG,AFNE01.JPG,,,,,,,,,,,,,1,6,16,3,,,,,,,,,,,AMSA12.jpg,AMSA19.jpg,AMNE16.jpg,AMNE11.jpg,AMNE11.jpg,MN,1,num_4,32,num_2,0.633505238802,,,2017_Jun_12_1246,59.9997883088,FEMA4ImagesEEG,001,200552,
AFNE01.JPG,AFNE01.JPG,AFNE01.JPG,AFNE01.JPG,AFNE01.JPG,AFNE01.JPG,,,,,,,,,,,,,1,7,17,4,,,,,,,,,,,AMSA11.jpg,AMSA08.jpg,AMNE06.jpg,AMNE13.jpg,AMSA08.jpg,MS,2,num_6,16,num_6,0.600148053141,,,2017_Jun_12_1246,59.9997883088,FEMA4ImagesEEG,001,200552,
AFNE01.JPG,AFNE01.JPG,AFNE01.JPG,AFNE01.JPG,AFNE01.JPG,AFNE01.JPG,,,,,,,,,,,,,1,8,18,9,,,,,,,,,,,AMNE06.jpg,AMSA20.jpg,AMSA17.jpg,AMNE17.jpg,AMSA20.jpg,MS,2,num_6,32,num_2,0.850131775602,,,2017_Jun_12_1246,59.9997883088,FEMA4ImagesEEG,001,200552,
AFNE01.JPG,AFNE01.JPG,AFNE01.JPG,AFNE01.JPG,AFNE01.JPG,AFNE01.JPG,,,,,,,,,,,,,1,9,19,8,,,,,,,,,,,AMNE17.jpg,AMSA16.jpg,AMNE14.jpg,AMSA09.jpg,AMNE17.jpg,MN,1,num_8,16,num_8,1.183431966,,,2017_Jun_12_1246,59.9997883088,FEMA4ImagesEEG,001,200552,
AFNE01.JPG,AFNE01.JPG,AFNE01.JPG,AFNE01.JPG,AFNE01.JPG,AFNE01.JPG,,,,,,,,,,,,,2,0,20,8,,,,,,,,,,,AMNE02.jpg,AMSA16.jpg,AMNE14.jpg,AMSA10.jpg,AMSA16.jpg,MS,2,num_6,32,num_4,0.483480173047,,,2017_Jun_12_1246,59.9997883088,FEMA4ImagesEEG,001,200552,
AFNE01.JPG,AFNE01.JPG,AFNE01.JPG,AFNE01.JPG,AFNE01.JPG,AFNE01.JPG,,,,,,,,,,,,,2,1,21,0,,,,,,,,,,,AMNE12.jpg,AMSA18.jpg,AMNE10.jpg,AMSA07.jpg,AMNE10.jpg,MN,1,num_2,16,num_2,0.700164442882,,,2017_Jun_12_1246,59.9997883088,FEMA4ImagesEEG,001,200552,
AFNE01.JPG,AFNE01.JPG,AFNE01.JPG,AFNE01.JPG,AFNE01.JPG,AFNE01.JPG,,,,,,,,,,,,,2,2,22,3,,,,,,,,,,,AMNE08.jpg,AMSA02.jpg,AMSA07.jpg,AMNE18.jpg,AMNE08.jpg,MN,1,num_8,16,num_8,0.950053547393,,,2017_Jun_12_1246,59.9997883088,FEMA4ImagesEEG,001,200552,
AFNE01.JPG,AFNE01.JPG,AFNE01.JPG,AFNE01.JPG,AFNE01.JPG,AFNE01.JPG,,,,,,,,,,,,,2,3,23,4,,,,,,,,,,,AMSA18.jpg,AMSA09.jpg,AMNE15.jpg,AMNE06.jpg,AMSA18.jpg,MS,2,num_8,32,num_4,0.550122057262,,,2017_Jun_12_1246,59.9997883088,FEMA4ImagesEEG,001,200552,
AFNE01.JPG,AFNE01.JPG,AFNE01.JPG,AFNE01.JPG,AFNE01.JPG,AFNE01.JPG,,,,,,,,,,,,,2,4,24,2,,,,,,,,,,,AMNE08.jpg,AMNE04.jpg,AMSA19.jpg,AMSA10.jpg,AMNE08.jpg,MN,1,num_8,32,num_6,0.466857228428,,,2017_Jun_12_1246,59.9997883088,FEMA4ImagesEEG,001,200552,
AFNE01.JPG,AFNE01.JPG,AFNE01.JPG,AFNE01.JPG,AFNE01.JPG,AFNE01.JPG,,,,,,,,,,,,,2,5,25,5,,,,,,,,,,,AMSA17.jpg,AMSA20.jpg,AMNE03.jpg,AMNE10.jpg,AMNE03.jpg,MN,1,num_2,32,num_8,0.266827014799,,,2017_Jun_12_1246,59.9997883088,FEMA4ImagesEEG,001,200552,
AFNE01.JPG,AFNE01.JPG,AFNE01.JPG,AFNE01.JPG,AFNE01.JPG,AFNE01.JPG,,,,,,,,,,,,,2,6,26,9,,,,,,,,,,,AMNE04.jpg,AMSA20.jpg,AMSA15.jpg,AMNE18.jpg,AMNE18.jpg,MN,1,num_4,32,num_2,0.250197013956,,,2017_Jun_12_1246,59.9997883088,FEMA4ImagesEEG,001,200552,
AFNE01.JPG,AFNE01.JPG,AFNE01.JPG,AFNE01.JPG,AFNE01.JPG,AFNE01.JPG,,,,,,,,,,,,,2,7,27,6,,,,,,,,,,,AMSA19.jpg,AMSA13.jpg,AMNE16.jpg,AMNE14.jpg,AMNE14.jpg,MN,1,num_4,16,num_4,0.416823855543,,,2017_Jun_12_1246,59.9997883088,FEMA4ImagesEEG,001,200552,
AFNE01.JPG,AFNE01.JPG,AFNE01.JPG,AFNE01.JPG,AFNE01.JPG,AFNE01.JPG,,,,,,,,,,,,,2,8,28,7,,,,,,,,,,,AMSA01.jpg,AMNE08.jpg,AMNE06.jpg,AMSA08.jpg,AMNE06.jpg,MN,1,num_2,32,num_6,0.416883512982,,,2017_Jun_12_1246,59.9997883088,FEMA4ImagesEEG,001,200552,
AFNE01.JPG,AFNE01.JPG,AFNE01.JPG,AFNE01.JPG,AFNE01.JPG,AFNE01.JPG,,,,,,,,,,,,,2,9,29,1,,,,,,,,,,,AMNE07.jpg,AMSA05.jpg,AMNE03.jpg,AMSA09.jpg,AMNE07.jpg,MN,1,num_8,32,num_6,0.416793385346,,,2017_Jun_12_1246,59.9997883088,FEMA4ImagesEEG,001,200552,
AFNE01.JPG,AFNE01.JPG,AFNE01.JPG,AFNE01.JPG,AFNE01.JPG,AFNE01.JPG,,,,,,,,,,,,,3,0,30,8,,,,,,,,,,,AMNE10.jpg,AMSA05.jpg,AMNE15.jpg,AMSA08.jpg,AMSA05.jpg,MS,2,num_6,32,num_2,0.450164683454,,,2017_Jun_12_1246,59.9997883088,FEMA4ImagesEEG,001,200552,
AFNE01.JPG,AFNE01.JPG,AFNE01.JPG,AFNE01.JPG,AFNE01.JPG,AFNE01.JPG,,,,,,,,,,,,,3,1,31,6,,,,,,,,,,,AMSA13.jpg,AMSA01.jpg,AMNE02.jpg,AMNE14.jpg,AMNE14.jpg,MN,1,num_4,16,num_4,0.750155798974,,,2017_Jun_12_1246,59.9997883088,FEMA4ImagesEEG,001,200552,
AFNE01.JPG,AFNE01.JPG,AFNE01.JPG,AFNE01.JPG,AFNE01.JPG,AFNE01.JPG,,,,,,,,,,,,,3,2,32,4,,,,,,,,,,,AMSA16.jpg,AMSA18.jpg,AMNE17.jpg,AMNE08.jpg,AMNE08.jpg,MN,1,num_4,32,num_8,0.900146224943,,,2017_Jun_12_1246,59.9997883088,FEMA4ImagesEEG,001,200552,
AFNE01.JPG,AFNE01.JPG,AFNE01.JPG,AFNE01.JPG,AFNE01.JPG,AFNE01.JPG,,,,,,,,,,,,,3,3,33,7,,,,,,,,,,,AMSA09.jpg,AMSA05.jpg,AMNE10.jpg,AMNE07.jpg,AMNE10.jpg,MN,1,num_2,32,num_4,0.283458298654,,,2017_Jun_12_1246,59.9997883088,FEMA4ImagesEEG,001,200552,
AFNE01.JPG,AFNE01.JPG,AFNE01.JPG,AFNE01.JPG,AFNE01.JPG,AFNE01.JPG,,,,,,,,,,,,,3,4,34,0,,,,,,,,,,,AMNE16.jpg,AMSA04.jpg,AMSA14.jpg,AMNE07.jpg,AMSA14.jpg,MS,2,num_2,32,num_6,0.333475955355,,,2017_Jun_12_1246,59.9997883088,FEMA4ImagesEEG,001,200552,
AFNE01.JPG,AFNE01.JPG,AFNE01.JPG,AFNE01.JPG,AFNE01.JPG,AFNE01.JPG,,,,,,,,,,,,,3,5,35,5,,,,,,,,,,,AMNE19.jpg,AMSA07.jpg,AMSA10.jpg,AMNE04.jpg,AMNE19.jpg,MN,1,num_8,16,num_8,1.50007842068,,,2017_Jun_12_1246,59.9997883088,FEMA4ImagesEEG,001,200552,
AFNE01.JPG,AFNE01.JPG,AFNE01.JPG,AFNE01.JPG,AFNE01.JPG,AFNE01.JPG,,,,,,,,,,,,,3,6,36,1,,,,,,,,,,,AMSA17.jpg,AMNE17.jpg,AMNE04.jpg,AMSA16.jpg,AMSA16.jpg,MS,2,num_4,32,num_2,0.333355036681,,,2017_Jun_12_1246,59.9997883088,FEMA4ImagesEEG,001,200552,
AFNE01.JPG,AFNE01.JPG,AFNE01.JPG,AFNE01.JPG,AFNE01.JPG,AFNE01.JPG,,,,,,,,,,,,,3,7,37,2,,,,,,,,,,,AMSA03.jpg,AMSA18.jpg,AMNE08.jpg,AMNE19.jpg,AMSA18.jpg,MS,2,num_6,32,num_4,0.516778021934,,,2017_Jun_12_1246,59.9997883088,FEMA4ImagesEEG,001,200552,
AFNE01.JPG,AFNE01.JPG,AFNE01.JPG,AFNE01.JPG,AFNE01.JPG,AFNE01.JPG,,,,,,,,,,,,,3,8,38,9,,,,,,,,,,,AMNE05.jpg,AMNE17.jpg,AMSA20.jpg,AMSA10.jpg,AMSA20.jpg,MS,2,num_2,32,num_6,0.533287104161,,,2017_Jun_12_1246,59.9997883088,FEMA4ImagesEEG,001,200552,
AFNE01.JPG,AFNE01.JPG,AFNE01.JPG,AFNE01.JPG,AFNE01.JPG,AFNE01.JPG,,,,,,,,,,,,,3,9,39,3,,,,,,,,,,,AMSA17.jpg,AMNE16.jpg,AMNE04.jpg,AMSA06.jpg,AMSA06.jpg,MS,2,num_4,32,num_2,0.933475185535,,,2017_Jun_12_1246,59.9997883088,FEMA4ImagesEEG,001,200552,
AFNE01.JPG,AFNE01.JPG,AFNE01.JPG,AFNE01.JPG,AFNE01.JPG,AFNE01.JPG,,,,,,,,,,,,,4,0,40,8,,,,,,,,,,,AMSA03.jpg,AMNE11.jpg,AMSA20.jpg,AMNE03.jpg,AMSA20.jpg,MS,2,num_2,32,num_8,0.333779695269,,,2017_Jun_12_1246,59.9997883088,FEMA4ImagesEEG,001,200552,
AFNE01.JPG,AFNE01.JPG,AFNE01.JPG,AFNE01.JPG,AFNE01.JPG,AFNE01.JPG,,,,,,,,,,,,,4,1,41,4,,,,,,,,,,,AMSA20.jpg,AMNE16.jpg,AMSA04.jpg,AMNE09.jpg,AMSA04.jpg,MS,2,num_2,32,num_4,0.250166864484,,,2017_Jun_12_1246,59.9997883088,FEMA4ImagesEEG,001,200552,
AFNE01.JPG,AFNE01.JPG,AFNE01.JPG,AFNE01.JPG,AFNE01.JPG,AFNE01.JPG,,,,,,,,,,,,,4,2,42,9,,,,,,,,,,,AMSA20.jpg,AMNE01.jpg,AMSA13.jpg,AMNE14.jpg,AMSA20.jpg,MS,2,num_8,32,num_2,0.866635405342,,,2017_Jun_12_1246,59.9997883088,FEMA4ImagesEEG,001,200552,
AFNE01.JPG,AFNE01.JPG,AFNE01.JPG,AFNE01.JPG,AFNE01.JPG,AFNE01.JPG,,,,,,,,,,,,,4,3,43,1,,,,,,,,,,,AMSA06.jpg,AMSA02.jpg,AMNE19.jpg,AMNE16.jpg,AMNE19.jpg,MN,1,num_2,32,num_8,0.58345326304,,,2017_Jun_12_1246,59.9997883088,FEMA4ImagesEEG,001,200552,
AFNE01.JPG,AFNE01.JPG,AFNE01.JPG,AFNE01.JPG,AFNE01.JPG,AFNE01.JPG,,,,,,,,,,,,,4,4,44,3,,,,,,,,,,,AMSA10.jpg,AMNE10.jpg,AMNE14.jpg,AMSA06.jpg,AMSA10.jpg,MS,2,num_8,32,num_6,0.833183280891,,,2017_Jun_12_1246,59.9997883088,FEMA4ImagesEEG,001,200552,
AFNE01.JPG,AFNE01.JPG,AFNE01.JPG,AFNE01.JPG,AFNE01.JPG,AFNE01.JPG,,,,,,,,,,,,,4,5,45,7,,,,,,,,,,,AMNE11.jpg,AMSA11.jpg,AMNE09.jpg,AMSA02.jpg,AMSA11.jpg,MS,2,num_6,16,num_6,0.950141429901,,,2017_Jun_12_1246,59.9997883088,FEMA4ImagesEEG,001,200552,
AFNE01.JPG,AFNE01.JPG,AFNE01.JPG,AFNE01.JPG,AFNE01.JPG,AFNE01.JPG,,,,,,,,,,,,,4,6,46,0,,,,,,,,,,,AMNE11.jpg,AMSA19.jpg,AMSA08.jpg,AMNE08.jpg,AMSA19.jpg,MS,2,num_6,32,num_4,1.91673388821,,,2017_Jun_12_1246,59.9997883088,FEMA4ImagesEEG,001,200552,
AFNE01.JPG,AFNE01.JPG,AFNE01.JPG,AFNE01.JPG,AFNE01.JPG,AFNE01.JPG,,,,,,,,,,,,,4,7,47,5,,,,,,,,,,,AMSA06.jpg,AMNE17.jpg,AMNE12.jpg,AMSA05.jpg,AMNE12.jpg,MN,1,num_2,16,num_2,1.16670061153,,,2017_Jun_12_1246,59.9997883088,FEMA4ImagesEEG,001,200552,
AFNE01.JPG,AFNE01.JPG,AFNE01.JPG,AFNE01.JPG,AFNE01.JPG,AFNE01.JPG,,,,,,,,,,,,,4,8,48,6,,,,,,,,,,,AMSA04.jpg,AMSA19.jpg,AMNE20.jpg,AMNE03.jpg,AMNE03.jpg,MN,1,num_4,16,num_4,0.916742548172,,,2017_Jun_12_1246,59.9997883088,FEMA4ImagesEEG,001,200552,
AFNE01.JPG,AFNE01.JPG,AFNE01.JPG,AFNE01.JPG,AFNE01.JPG,AFNE01.JPG,,,,,,,,,,,,,4,9,49,2,,,,,,,,,,,AMNE15.jpg,AMNE10.jpg,AMSA07.jpg,AMSA15.jpg,AMSA07.jpg,MS,2,num_2,16,num_2,1.05004363653,,,2017_Jun_12_1246,59.9997883088,FEMA4ImagesEEG,001,200552,
AFNE01.JPG,AFNE01.JPG,AFNE01.JPG,AFNE01.JPG,AFNE01.JPG,AFNE01.JPG,,,,,,,,,,,,,5,0,50,7,,,,,,,,,,,AMSA05.jpg,AMNE05.jpg,AMSA07.jpg,AMNE15.jpg,AMSA05.jpg,MS,2,num_8,32,num_6,0.850170585094,,,2017_Jun_12_1246,59.9997883088,FEMA4ImagesEEG,001,200552,
AFNE01.JPG,AFNE01.JPG,AFNE01.JPG,AFNE01.JPG,AFNE01.JPG,AFNE01.JPG,,,,,,,,,,,,,5,1,51,3,,,,,,,,,,,AMSA05.jpg,AMNE18.jpg,AMNE17.jpg,AMSA09.jpg,AMNE17.jpg,MN,1,num_2,32,num_6,0.800181474187,,,2017_Jun_12_1246,59.9997883088,FEMA4ImagesEEG,001,200552,
AFNE01.JPG,AFNE01.JPG,AFNE01.JPG,AFNE01.JPG,AFNE01.JPG,AFNE01.JPG,,,,,,,,,,,,,5,2,52,2,,,,,,,,,,,AMNE02.jpg,AMNE13.jpg,AMSA13.jpg,AMSA16.jpg,AMSA13.jpg,MS,2,num_2,16,num_2,1.38341438945,,,2017_Jun_12_1246,59.9997883088,FEMA4ImagesEEG,001,200552,
AFNE01.JPG,AFNE01.JPG,AFNE01.JPG,AFNE01.JPG,AFNE01.JPG,AFNE01.JPG,,,,,,,,,,,,,5,3,53,0,,,,,,,,,,,AMNE16.jpg,AMSA04.jpg,AMSA07.jpg,AMNE02.jpg,AMNE02.jpg,MN,1,num_4,16,num_4,0.366804595164,,,2017_Jun_12_1246,59.9997883088,FEMA4ImagesEEG,001,200552,
AFNE01.JPG,AFNE01.JPG,AFNE01.JPG,AFNE01.JPG,AFNE01.JPG,AFNE01.JPG,,,,,,,,,,,,,5,4,54,1,,,,,,,,,,,AMNE13.jpg,AMSA09.jpg,AMSA06.jpg,AMNE11.jpg,AMNE11.jpg,MN,1,num_4,32,num_6,0.300260536314,,,2017_Jun_12_1246,59.9997883088,FEMA4ImagesEEG,001,200552,
AFNE01.JPG,AFNE01.JPG,AFNE01.JPG,AFNE01.JPG,AFNE01.JPG,AFNE01.JPG,,,,,,,,,,,,,5,5,55,8,,,,,,,,,,,AMNE16.jpg,AMSA06.jpg,AMSA20.jpg,AMNE20.jpg,AMSA20.jpg,MS,2,num_2,32,num_8,0.31683633232,,,2017_Jun_12_1246,59.9997883088,FEMA4ImagesEEG,001,200552,
AFNE01.JPG,AFNE01.JPG,AFNE01.JPG,AFNE01.JPG,AFNE01.JPG,AFNE01.JPG,,,,,,,,,,,,,5,6,56,5,,,,,,,,,,,AMNE01.jpg,AMSA18.jpg,AMNE19.jpg,AMSA11.jpg,AMNE19.jpg,MN,1,num_2,32,num_8,0.71684896946,,,2017_Jun_12_1246,59.9997883088,FEMA4ImagesEEG,001,200552,
AFNE01.JPG,AFNE01.JPG,AFNE01.JPG,AFNE01.JPG,AFNE01.JPG,AFNE01.JPG,,,,,,,,,,,,,5,7,57,9,,,,,,,,,,,AMNE20.jpg,AMNE03.jpg,AMSA20.jpg,AMSA06.jpg,AMNE03.jpg,MN,1,num_6,32,num_2,0.450165966467,,,2017_Jun_12_1246,59.9997883088,FEMA4ImagesEEG,001,200552,
AFNE01.JPG,AFNE01.JPG,AFNE01.JPG,AFNE01.JPG,AFNE01.JPG,AFNE01.JPG,,,,,,,,,,,,,5,8,58,6,,,,,,,,,,,AMNE19.jpg,AMNE01.jpg,AMSA18.jpg,AMSA10.jpg,AMNE19.jpg,MN,1,num_8,32,num_6,0.316816767212,,,2017_Jun_12_1246,59.9997883088,FEMA4ImagesEEG,001,200552,
AFNE01.JPG,AFNE01.JPG,AFNE01.JPG,AFNE01.JPG,AFNE01.JPG,AFNE01.JPG,,,,,,,,,,,,,5,9,59,4,,,,,,,,,,,AMNE15.jpg,AMSA16.jpg,AMSA03.jpg,AMNE07.jpg,AMNE15.jpg,MN,1,num_8,32,num_4,0.55001493037,,,2017_Jun_12_1246,59.9997883088,FEMA4ImagesEEG,001,200552,
,,,,,,,,,,,,,,,,,,,,,,,,,,,,,,,,,,,,,,,,,,,space,14.9986907431,2017_Jun_12_1246,59.9997883088,FEMA4ImagesEEG,001,200552,
AFNE01.JPG,AFNE01.JPG,AFNE01.JPG,AFNE01.JPG,AFNE01.JPG,AFNE01.JPG,,,,,,,,,,,,,,,,,0,0,0,8,,,,,,,AFSA03.jpg,AFNE14.jpg,AFSA06.jpg,AFNE08.jpg,AFSA03.jpg,FS,4,num_8,16,num_8,0.28363983694,,,2017_Jun_12_1246,59.9997883088,FEMA4ImagesEEG,001,200552,
AFNE01.JPG,AFNE01.JPG,AFNE01.JPG,AFNE01.JPG,AFNE01.JPG,AFNE01.JPG,,,,,,,,,,,,,,,,,0,1,1,7,,,,,,,AFSA19.jpg,AFSA05.jpg,AFNE17.jpg,AFNE07.jpg,AFNE17.jpg,FN,3,num_2,16,num_2,0.583522542671,,,2017_Jun_12_1246,59.9997883088,FEMA4ImagesEEG,001,200552,
AFNE01.JPG,AFNE01.JPG,AFNE01.JPG,AFNE01.JPG,AFNE01.JPG,AFNE01.JPG,,,,,,,,,,,,,,,,,0,2,2,5,,,,,,,AFSA10.jpg,AFNE06.jpg,AFSA07.jpg,AFNE11.jpg,AFSA07.jpg,FS,4,num_2,32,num_6,0.0668083478231,,,2017_Jun_12_1246,59.9997883088,FEMA4ImagesEEG,001,200552,
AFNE01.JPG,AFNE01.JPG,AFNE01.JPG,AFNE01.JPG,AFNE01.JPG,AFNE01.JPG,,,,,,,,,,,,,,,,,0,3,3,9,,,,,,,AFNE14.jpg,AFSA06.jpg,AFSA16.jpg,AFNE16.jpg,AFNE14.jpg,FN,3,num_8,32,num_4,4.66645444429,,,2017_Jun_12_1246,59.9997883088,FEMA4ImagesEEG,001,200552,
AFNE01.JPG,AFNE01.JPG,AFNE01.JPG,AFNE01.JPG,AFNE01.JPG,AFNE01.JPG,,,,,,,,,,,,,,,,,0,4,4,0,,,,,,,AFSA06.jpg,AFNE01.jpg,AFNE04.jpg,AFSA04.jpg,AFNE04.jpg,FN,3,num_2,32,num_6,0.583498807973,,,2017_Jun_12_1246,59.9997883088,FEMA4ImagesEEG,001,200552,
AFNE01.JPG,AFNE01.JPG,AFNE01.JPG,AFNE01.JPG,AFNE01.JPG,AFNE01.JPG,,,,,,,,,,,,,,,,,0,5,5,1,,,,,,,AFSA15.jpg,AFNE15.jpg,AFSA12.jpg,AFNE20.jpg,AFSA12.jpg,FS,4,num_2,32,num_8,0.350149576669,,,2017_Jun_12_1246,59.9997883088,FEMA4ImagesEEG,001,200552,
AFNE01.JPG,AFNE01.JPG,AFNE01.JPG,AFNE01.JPG,AFNE01.JPG,AFNE01.JPG,,,,,,,,,,,,,,,,,0,6,6,4,,,,,,,AFNE05.jpg,AFNE13.jpg,AFSA08.jpg,AFSA11.jpg,AFSA08.jpg,FS,4,num_2,32,num_4,0.433442951238,,,2017_Jun_12_1246,59.9997883088,FEMA4ImagesEEG,001,200552,
AFNE01.JPG,AFNE01.JPG,AFNE01.JPG,AFNE01.JPG,AFNE01.JPG,AFNE01.JPG,,,,,,,,,,,,,,,,,0,7,7,2,,,,,,,AFSA05.jpg,AFNE13.jpg,AFNE19.jpg,AFSA17.jpg,AFNE19.jpg,FN,3,num_2,16,num_2,0.383533383661,,,2017_Jun_12_1246,59.9997883088,FEMA4ImagesEEG,001,200552,
AFNE01.JPG,AFNE01.JPG,AFNE01.JPG,AFNE01.JPG,AFNE01.JPG,AFNE01.JPG,,,,,,,,,,,,,,,,,0,8,8,6,,,,,,,AFNE18.jpg,AFNE01.jpg,AFSA20.jpg,AFSA12.jpg,AFSA12.jpg,FS,4,num_4,32,num_6,0.383460575889,,,2017_Jun_12_1246,59.9997883088,FEMA4ImagesEEG,001,200552,
AFNE01.JPG,AFNE01.JPG,AFNE01.JPG,AFNE01.JPG,AFNE01.JPG,AFNE01.JPG,,,,,,,,,,,,,,,,,0,9,9,3,,,,,,,AFSA01.jpg,AFNE16.jpg,AFSA07.jpg,AFNE14.jpg,AFNE14.jpg,FN,3,num_4,32,num_8,0.300126467424,,,2017_Jun_12_1246,59.9997883088,FEMA4ImagesEEG,001,200552,
AFNE01.JPG,AFNE01.JPG,AFNE01.JPG,AFNE01.JPG,AFNE01.JPG,AFNE01.JPG,,,,,,,,,,,,,,,,,1,0,10,6,,,,,,,AFNE16.jpg,AFNE05.jpg,AFSA15.jpg,AFSA07.jpg,AFNE16.jpg,FN,3,num_8,32,num_2,0.300163031672,,,2017_Jun_12_1246,59.9997883088,FEMA4ImagesEEG,001,200552,
AFNE01.JPG,AFNE01.JPG,AFNE01.JPG,AFNE01.JPG,AFNE01.JPG,AFNE01.JPG,,,,,,,,,,,,,,,,,1,1,11,3,,,,,,,AFNE08.jpg,AFNE06.jpg,AFSA12.jpg,AFSA14.jpg,AFNE08.jpg,FN,3,num_8,32,num_4,0.550121415756,,,2017_Jun_12_1246,59.9997883088,FEMA4ImagesEEG,001,200552,
AFNE01.JPG,AFNE01.JPG,AFNE01.JPG,AFNE01.JPG,AFNE01.JPG,AFNE01.JPG,,,,,,,,,,,,,,,,,1,2,12,4,,,,,,,AFSA12.jpg,AFNE19.jpg,AFSA07.jpg,AFNE10.jpg,AFSA07.jpg,FS,4,num_2,32,num_4,0.533505527419,,,2017_Jun_12_1246,59.9997883088,FEMA4ImagesEEG,001,200552,
AFNE01.JPG,AFNE01.JPG,AFNE01.JPG,AFNE01.JPG,AFNE01.JPG,AFNE01.JPG,,,,,,,,,,,,,,,,,1,3,13,8,,,,,,,AFNE16.jpg,AFNE05.jpg,AFSA12.jpg,AFSA17.jpg,AFSA17.jpg,FS,4,num_4,32,num_8,1.80002880236,,,2017_Jun_12_1246,59.9997883088,FEMA4ImagesEEG,001,200552,
AFNE01.JPG,AFNE01.JPG,AFNE01.JPG,AFNE01.JPG,AFNE01.JPG,AFNE01.JPG,,,,,,,,,,,,,,,,,1,4,14,1,,,,,,,AFSA17.jpg,AFNE03.jpg,AFSA13.jpg,AFNE19.jpg,AFNE19.jpg,FN,3,num_4,32,num_6,0.466766459285,,,2017_Jun_12_1246,59.9997883088,FEMA4ImagesEEG,001,200552,
AFNE01.JPG,AFNE01.JPG,AFNE01.JPG,AFNE01.JPG,AFNE01.JPG,AFNE01.JPG,,,,,,,,,,,,,,,,,1,5,15,2,,,,,,,AFNE13.jpg,AFNE01.jpg,AFSA18.jpg,AFSA10.jpg,AFNE13.jpg,FN,3,num_8,16,num_8,0.666817841702,,,2017_Jun_12_1246,59.9997883088,FEMA4ImagesEEG,001,200552,
AFNE01.JPG,AFNE01.JPG,AFNE01.JPG,AFNE01.JPG,AFNE01.JPG,AFNE01.JPG,,,,,,,,,,,,,,,,,1,6,16,0,,,,,,,AFSA08.jpg,AFNE09.jpg,AFSA15.jpg,AFNE10.jpg,AFSA15.jpg,FS,4,num_2,16,num_2,0.350207951153,,,2017_Jun_12_1246,59.9997883088,FEMA4ImagesEEG,001,200552,
AFNE01.JPG,AFNE01.JPG,AFNE01.JPG,AFNE01.JPG,AFNE01.JPG,AFNE01.JPG,,,,,,,,,,,,,,,,,1,7,17,9,,,,,,,AFSA06.jpg,AFNE20.jpg,AFNE05.jpg,AFSA13.jpg,AFNE05.jpg,FN,3,num_2,32,num_4,0.400189043663,,,2017_Jun_12_1246,59.9997883088,FEMA4ImagesEEG,001,200552,
AFNE01.JPG,AFNE01.JPG,AFNE01.JPG,AFNE01.JPG,AFNE01.JPG,AFNE01.JPG,,,,,,,,,,,,,,,,,1,8,18,7,,,,,,,AFNE14.jpg,AFNE13.jpg,AFSA01.jpg,AFSA03.jpg,AFNE13.jpg,FN,3,num_6,16,num_6,1.60011309257,,,2017_Jun_12_1246,59.9997883088,FEMA4ImagesEEG,001,200552,
AFNE01.JPG,AFNE01.JPG,AFNE01.JPG,AFNE01.JPG,AFNE01.JPG,AFNE01.JPG,,,,,,,,,,,,,,,,,1,9,19,5,,,,,,,AFNE15.jpg,AFNE01.jpg,AFSA14.jpg,AFSA16.jpg,AFSA14.jpg,FS,4,num_2,16,num_2,0.466911754047,,,2017_Jun_12_1246,59.9997883088,FEMA4ImagesEEG,001,200552,
AFNE01.JPG,AFNE01.JPG,AFNE01.JPG,AFNE01.JPG,AFNE01.JPG,AFNE01.JPG,,,,,,,,,,,,,,,,,2,0,20,1,,,,,,,AFSA18.jpg,AFSA01.jpg,AFNE11.jpg,AFNE19.jpg,AFSA18.jpg,FS,4,num_8,32,num_4,0.433489458461,,,2017_Jun_12_1246,59.9997883088,FEMA4ImagesEEG,001,200552,
AFNE01.JPG,AFNE01.JPG,AFNE01.JPG,AFNE01.JPG,AFNE01.JPG,AFNE01.JPG,,,,,,,,,,,,,,,,,2,1,21,3,,,,,,,AFNE03.jpg,AFSA05.jpg,AFNE13.jpg,AFSA02.jpg,AFSA05.jpg,FS,4,num_6,32,num_8,0.500176566886,,,2017_Jun_12_1246,59.9997883088,FEMA4ImagesEEG,001,200552,
AFNE01.JPG,AFNE01.JPG,AFNE01.JPG,AFNE01.JPG,AFNE01.JPG,AFNE01.JPG,,,,,,,,,,,,,,,,,2,2,22,6,,,,,,,AFSA10.jpg,AFNE10.jpg,AFSA14.jpg,AFNE15.jpg,AFSA14.jpg,FS,4,num_2,16,num_2,0.8001603054,,,2017_Jun_12_1246,59.9997883088,FEMA4ImagesEEG,001,200552,
AFNE01.JPG,AFNE01.JPG,AFNE01.JPG,AFNE01.JPG,AFNE01.JPG,AFNE01.JPG,,,,,,,,,,,,,,,,,2,3,23,2,,,,,,,AFSA08.jpg,AFNE12.jpg,AFNE03.jpg,AFSA01.jpg,AFNE03.jpg,FN,3,num_2,32,num_4,0.666779352992,,,2017_Jun_12_1246,59.9997883088,FEMA4ImagesEEG,001,200552,
AFNE01.JPG,AFNE01.JPG,AFNE01.JPG,AFNE01.JPG,AFNE01.JPG,AFNE01.JPG,,,,,,,,,,,,,,,,,2,4,24,0,,,,,,,AFNE03.jpg,AFSA09.jpg,AFSA12.jpg,AFNE04.jpg,AFNE04.jpg,FN,3,num_4,32,num_8,0.283481071121,,,2017_Jun_12_1246,59.9997883088,FEMA4ImagesEEG,001,200552,
AFNE01.JPG,AFNE01.JPG,AFNE01.JPG,AFNE01.JPG,AFNE01.JPG,AFNE01.JPG,,,,,,,,,,,,,,,,,2,5,25,4,,,,,,,AFSA20.jpg,AFNE05.jpg,AFNE14.jpg,AFSA15.jpg,AFSA15.jpg,FS,4,num_4,16,num_4,0.566769378027,,,2017_Jun_12_1246,59.9997883088,FEMA4ImagesEEG,001,200552,
AFNE01.JPG,AFNE01.JPG,AFNE01.JPG,AFNE01.JPG,AFNE01.JPG,AFNE01.JPG,,,,,,,,,,,,,,,,,2,6,26,7,,,,,,,AFSA03.jpg,AFNE05.jpg,AFNE10.jpg,AFSA12.jpg,AFSA03.jpg,FS,4,num_8,32,num_6,0.566743718868,,,2017_Jun_12_1246,59.9997883088,FEMA4ImagesEEG,001,200552,
AFNE01.JPG,AFNE01.JPG,AFNE01.JPG,AFNE01.JPG,AFNE01.JPG,AFNE01.JPG,,,,,,,,,,,,,,,,,2,7,27,8,,,,,,,AFSA15.jpg,AFSA19.jpg,AFNE14.jpg,AFNE01.jpg,AFSA19.jpg,FS,4,num_6,32,num_2,0.700180479907,,,2017_Jun_12_1246,59.9997883088,FEMA4ImagesEEG,001,200552,
AFNE01.JPG,AFNE01.JPG,AFNE01.JPG,AFNE01.JPG,AFNE01.JPG,AFNE01.JPG,,,,,,,,,,,,,,,,,2,8,28,9,,,,,,,AFSA02.jpg,AFSA15.jpg,AFNE18.jpg,AFNE11.jpg,AFSA15.jpg,FS,4,num_6,32,num_8,0.633438525081,,,2017_Jun_12_1246,59.9997883088,FEMA4ImagesEEG,001,200552,
AFNE01.JPG,AFNE01.JPG,AFNE01.JPG,AFNE01.JPG,AFNE01.JPG,AFNE01.JPG,,,,,,,,,,,,,,,,,2,9,29,5,,,,,,,AFSA18.jpg,AFSA16.jpg,AFNE11.jpg,AFNE02.jpg,AFSA16.jpg,FS,4,num_6,32,num_4,0.533511300746,,,2017_Jun_12_1246,59.9997883088,FEMA4ImagesEEG,001,200552,
AFNE01.JPG,AFNE01.JPG,AFNE01.JPG,AFNE01.JPG,AFNE01.JPG,AFNE01.JPG,,,,,,,,,,,,,,,,,3,0,30,7,,,,,,,AFSA17.jpg,AFSA14.jpg,AFNE03.jpg,AFNE20.jpg,AFSA17.jpg,FS,4,num_8,32,num_2,0.533429512288,,,2017_Jun_12_1246,59.9997883088,FEMA4ImagesEEG,001,200552,
AFNE01.JPG,AFNE01.JPG,AFNE01.JPG,AFNE01.JPG,AFNE01.JPG,AFNE01.JPG,,,,,,,,,,,,,,,,,3,1,31,1,,,,,,,AFSA17.jpg,AFNE11.jpg,AFSA12.jpg,AFNE18.jpg,AFSA17.jpg,FS,4,num_8,16,num_8,0.250130941742,,,2017_Jun_12_1246,59.9997883088,FEMA4ImagesEEG,001,200552,
AFNE01.JPG,AFNE01.JPG,AFNE01.JPG,AFNE01.JPG,AFNE01.JPG,AFNE01.JPG,,,,,,,,,,,,,,,,,3,2,32,5,,,,,,,AFSA07.jpg,AFNE04.jpg,AFSA09.jpg,AFNE06.jpg,AFSA07.jpg,FS,4,num_8,32,num_6,0.350109163555,,,2017_Jun_12_1246,59.9997883088,FEMA4ImagesEEG,001,200552,
AFNE01.JPG,AFNE01.JPG,AFNE01.JPG,AFNE01.JPG,AFNE01.JPG,AFNE01.JPG,,,,,,,,,,,,,,,,,3,3,33,6,,,,,,,AFSA20.jpg,AFNE06.jpg,AFNE10.jpg,AFSA10.jpg,AFSA20.jpg,FS,4,num_8,32,num_4,0.333460559836,,,2017_Jun_12_1246,59.9997883088,FEMA4ImagesEEG,001,200552,
AFNE01.JPG,AFNE01.JPG,AFNE01.JPG,AFNE01.JPG,AFNE01.JPG,AFNE01.JPG,,,,,,,,,,,,,,,,,3,4,34,8,,,,,,,AFNE15.jpg,AFNE17.jpg,AFSA07.jpg,AFSA01.jpg,AFSA01.jpg,FS,4,num_4,32,num_2,0.716858912318,,,2017_Jun_12_1246,59.9997883088,FEMA4ImagesEEG,001,200552,
AFNE01.JPG,AFNE01.JPG,AFNE01.JPG,AFNE01.JPG,AFNE01.JPG,AFNE01.JPG,,,,,,,,,,,,,,,,,3,5,35,2,,,,,,,AFSA12.jpg,AFNE18.jpg,AFSA20.jpg,AFNE13.jpg,AFNE13.jpg,FN,3,num_4,32,num_6,0.800097761268,,,2017_Jun_12_1246,59.9997883088,FEMA4ImagesEEG,001,200552,
AFNE01.JPG,AFNE01.JPG,AFNE01.JPG,AFNE01.JPG,AFNE01.JPG,AFNE01.JPG,,,,,,,,,,,,,,,,,3,6,36,9,,,,,,,AFSA03.jpg,AFNE04.jpg,AFSA01.jpg,AFNE06.jpg,AFNE04.jpg,FN,3,num_6,32,num_8,0.616840598115,,,2017_Jun_12_1246,59.9997883088,FEMA4ImagesEEG,001,200552,
AFNE01.JPG,AFNE01.JPG,AFNE01.JPG,AFNE01.JPG,AFNE01.JPG,AFNE01.JPG,,,,,,,,,,,,,,,,,3,7,37,0,,,,,,,AFSA05.jpg,AFNE12.jpg,AFNE19.jpg,AFSA18.jpg,AFSA18.jpg,FS,4,num_4,16,num_4,0.116824400844,,,2017_Jun_12_1246,59.9997883088,FEMA4ImagesEEG,001,200552,
AFNE01.JPG,AFNE01.JPG,AFNE01.JPG,AFNE01.JPG,AFNE01.JPG,AFNE01.JPG,,,,,,,,,,,,,,,,,3,8,38,3,,,,,,,AFNE20.jpg,AFNE03.jpg,AFSA05.jpg,AFSA15.jpg,AFNE20.jpg,FN,3,num_8,32,num_2,0.316834728641,,,2017_Jun_12_1246,59.9997883088,FEMA4ImagesEEG,001,200552,
AFNE01.JPG,AFNE01.JPG,AFNE01.JPG,AFNE01.JPG,AFNE01.JPG,AFNE01.JPG,,,,,,,,,,,,,,,,,3,9,39,4,,,,,,,AFNE17.jpg,AFNE11.jpg,AFSA11.jpg,AFSA18.jpg,AFSA18.jpg,FS,4,num_4,32,num_8,0.500040573475,,,2017_Jun_12_1246,59.9997883088,FEMA4ImagesEEG,001,200552,
AFNE01.JPG,AFNE01.JPG,AFNE01.JPG,AFNE01.JPG,AFNE01.JPG,AFNE01.JPG,,,,,,,,,,,,,,,,,4,0,40,7,,,,,,,AFSA11.jpg,AFNE20.jpg,AFSA01.jpg,AFNE01.jpg,AFNE01.jpg,FN,3,num_4,32,num_6,0.566783811257,,,2017_Jun_12_1246,59.9997883088,FEMA4ImagesEEG,001,200552,
AFNE01.JPG,AFNE01.JPG,AFNE01.JPG,AFNE01.JPG,AFNE01.JPG,AFNE01.JPG,,,,,,,,,,,,,,,,,4,1,41,4,,,,,,,AFNE19.jpg,AFNE14.jpg,AFSA07.jpg,AFSA03.jpg,AFNE14.jpg,FN,3,num_6,32,num_4,0.483538547531,,,2017_Jun_12_1246,59.9997883088,FEMA4ImagesEEG,001,200552,
AFNE01.JPG,AFNE01.JPG,AFNE01.JPG,AFNE01.JPG,AFNE01.JPG,AFNE01.JPG,,,,,,,,,,,,,,,,,4,2,42,6,,,,,,,AFNE10.jpg,AFSA02.jpg,AFSA19.jpg,AFNE16.jpg,AFSA19.jpg,FS,4,num_2,16,num_2,0.416780235071,,,2017_Jun_12_1246,59.9997883088,FEMA4ImagesEEG,001,200552,
AFNE01.JPG,AFNE01.JPG,AFNE01.JPG,AFNE01.JPG,AFNE01.JPG,AFNE01.JPG,,,,,,,,,,,,,,,,,4,3,43,1,,,,,,,AFSA12.jpg,AFNE05.jpg,AFSA19.jpg,AFNE16.jpg,AFNE05.jpg,FN,3,num_6,32,num_8,0.63345199608,,,2017_Jun_12_1246,59.9997883088,FEMA4ImagesEEG,001,200552,
AFNE01.JPG,AFNE01.JPG,AFNE01.JPG,AFNE01.JPG,AFNE01.JPG,AFNE01.JPG,,,,,,,,,,,,,,,,,4,4,44,8,,,,,,,AFSA05.jpg,AFNE18.jpg,AFNE05.jpg,AFSA02.jpg,AFSA05.jpg,FS,4,num_8,16,num_8,0.633553349646,,,2017_Jun_12_1246,59.9997883088,FEMA4ImagesEEG,001,200552,
AFNE01.JPG,AFNE01.JPG,AFNE01.JPG,AFNE01.JPG,AFNE01.JPG,AFNE01.JPG,,,,,,,,,,,,,,,,,4,5,45,9,,,,,,,AFNE06.jpg,AFSA08.jpg,AFSA12.jpg,AFNE14.jpg,AFNE14.jpg,FN,3,num_4,16,num_4,0.616735716467,,,2017_Jun_12_1246,59.9997883088,FEMA4ImagesEEG,001,200552,
AFNE01.JPG,AFNE01.JPG,AFNE01.JPG,AFNE01.JPG,AFNE01.JPG,AFNE01.JPG,,,,,,,,,,,,,,,,,4,6,46,2,,,,,,,AFNE09.jpg,AFSA04.jpg,AFSA15.jpg,AFNE13.jpg,AFSA04.jpg,FS,4,num_6,16,num_6,0.483417308191,,,2017_Jun_12_1246,59.9997883088,FEMA4ImagesEEG,001,200552,
AFNE01.JPG,AFNE01.JPG,AFNE01.JPG,AFNE01.JPG,AFNE01.JPG,AFNE01.JPG,,,,,,,,,,,,,,,,,4,7,47,5,,,,,,,AFNE07.jpg,AFSA19.jpg,AFSA15.jpg,AFNE19.jpg,AFSA19.jpg,FS,4,num_6,32,num_2,0.766859890602,,,2017_Jun_12_1246,59.9997883088,FEMA4ImagesEEG,001,200552,
AFNE01.JPG,AFNE01.JPG,AFNE01.JPG,AFNE01.JPG,AFNE01.JPG,AFNE01.JPG,,,,,,,,,,,,,,,,,4,8,48,0,,,,,,,AFSA04.jpg,AFNE09.jpg,AFSA06.jpg,AFNE17.jpg,AFSA06.jpg,FS,4,num_2,32,num_8,0.883342383488,,,2017_Jun_12_1246,59.9997883088,FEMA4ImagesEEG,001,200552,
AFNE01.JPG,AFNE01.JPG,AFNE01.JPG,AFNE01.JPG,AFNE01.JPG,AFNE01.JPG,,,,,,,,,,,,,,,,,4,9,49,3,,,,,,,AFNE09.jpg,AFSA06.jpg,AFSA20.jpg,AFNE12.jpg,AFSA20.jpg,FS,4,num_2,16,num_2,0.683376959176,,,2017_Jun_12_1246,59.9997883088,FEMA4ImagesEEG,001,200552,
AFNE01.JPG,AFNE01.JPG,AFNE01.JPG,AFNE01.JPG,AFNE01.JPG,AFNE01.JPG,,,,,,,,,,,,,,,,,5,0,50,7,,,,,,,AFSA17.jpg,AFNE04.jpg,AFNE10.jpg,AFSA11.jpg,AFSA17.jpg,FS,4,num_8,16,num_8,2.08328535612,,,2017_Jun_12_1246,59.9997883088,FEMA4ImagesEEG,001,200552,
AFNE01.JPG,AFNE01.JPG,AFNE01.JPG,AFNE01.JPG,AFNE01.JPG,AFNE01.JPG,,,,,,,,,,,,,,,,,5,1,51,5,,,,,,,AFNE08.jpg,AFSA18.jpg,AFSA14.jpg,AFNE03.jpg,AFNE03.jpg,FN,3,num_4,32,num_2,1.13345632609,,,2017_Jun_12_1246,59.9997883088,FEMA4ImagesEEG,001,200552,
AFNE01.JPG,AFNE01.JPG,AFNE01.JPG,AFNE01.JPG,AFNE01.JPG,AFNE01.JPG,,,,,,,,,,,,,,,,,5,2,52,2,,,,,,,AFNE11.jpg,AFSA02.jpg,AFNE18.jpg,AFSA14.jpg,AFNE18.jpg,FN,3,num_2,32,num_8,0.900064436486,,,2017_Jun_12_1246,59.9997883088,FEMA4ImagesEEG,001,200552,
AFNE01.JPG,AFNE01.JPG,AFNE01.JPG,AFNE01.JPG,AFNE01.JPG,AFNE01.JPG,,,,,,,,,,,,,,,,,5,3,53,4,,,,,,,AFNE07.jpg,AFSA19.jpg,AFNE18.jpg,AFSA10.jpg,AFSA19.jpg,FS,4,num_6,16,num_6,0.416805573448,,,2017_Jun_12_1246,59.9997883088,FEMA4ImagesEEG,001,200552,
AFNE01.JPG,AFNE01.JPG,AFNE01.JPG,AFNE01.JPG,AFNE01.JPG,AFNE01.JPG,,,,,,,,,,,,,,,,,5,4,54,8,,,,,,,AFSA11.jpg,AFNE10.jpg,AFNE13.jpg,AFSA17.jpg,AFSA17.jpg,FS,4,num_4,16,num_4,0.533483396459,,,2017_Jun_12_1246,59.9997883088,FEMA4ImagesEEG,001,200552,
AFNE01.JPG,AFNE01.JPG,AFNE01.JPG,AFNE01.JPG,AFNE01.JPG,AFNE01.JPG,,,,,,,,,,,,,,,,,5,5,55,1,,,,,,,AFNE12.jpg,AFNE13.jpg,AFSA07.jpg,AFSA02.jpg,AFNE12.jpg,FN,3,num_8,16,num_8,0.36670099647,,,2017_Jun_12_1246,59.9997883088,FEMA4ImagesEEG,001,200552,
AFNE01.JPG,AFNE01.JPG,AFNE01.JPG,AFNE01.JPG,AFNE01.JPG,AFNE01.JPG,,,,,,,,,,,,,,,,,5,6,56,3,,,,,,,AFSA01.jpg,AFNE01.jpg,AFSA14.jpg,AFNE02.jpg,AFSA14.jpg,FS,4,num_2,16,num_2,0.750142007193,,,2017_Jun_12_1246,59.9997883088,FEMA4ImagesEEG,001,200552,
AFNE01.JPG,AFNE01.JPG,AFNE01.JPG,AFNE01.JPG,AFNE01.JPG,AFNE01.JPG,,,,,,,,,,,,,,,,,5,7,57,0,,,,,,,AFNE16.jpg,AFSA05.jpg,AFNE01.jpg,AFSA09.jpg,AFNE01.jpg,FN,3,num_2,32,num_6,0.300174257543,,,2017_Jun_12_1246,59.9997883088,FEMA4ImagesEEG,001,200552,
AFNE01.JPG,AFNE01.JPG,AFNE01.JPG,AFNE01.JPG,AFNE01.JPG,AFNE01.JPG,,,,,,,,,,,,,,,,,5,8,58,9,,,,,,,AFSA05.jpg,AFSA16.jpg,AFNE16.jpg,AFNE15.jpg,AFNE15.jpg,FN,3,num_4,16,num_4,0.300166880537,,,2017_Jun_12_1246,59.9997883088,FEMA4ImagesEEG,001,200552,
AFNE01.JPG,AFNE01.JPG,AFNE01.JPG,AFNE01.JPG,AFNE01.JPG,AFNE01.JPG,,,,,,,,,,,,,,,,,5,9,59,6,,,,,,,AFNE09.jpg,AFSA06.jpg,AFNE14.jpg,AFSA03.jpg,AFNE09.jpg,FN,3,num_8,16,num_8,0.400182308105,,,2017_Jun_12_1246,59.9997883088,FEMA4ImagesEEG,001,200552,
,,,,,,,,,,,,,,,,,,,,,,,,,,,,,,,,,,,,,,,,,,,space,29.5149081131,2017_Jun_12_1246,59.9997883088,FEMA4ImagesEEG,001,200552,
AFNE01.JPG,AFNE01.JPG,AFNE01.JPG,AFNE01.JPG,AFNE01.JPG,AFNE01.JPG,,,,,,,,,,,,,,,,,,,,,0,0,0,2,,,AMSA19.jpg,AMNE04.jpg,AMSA02.jpg,AMNE09.jpg,AMSA02.jpg,MS,2,num_2,32,num_8,0.383453519607,,,2017_Jun_12_1246,59.9997883088,FEMA4ImagesEEG,001,200552,
AFNE01.JPG,AFNE01.JPG,AFNE01.JPG,AFNE01.JPG,AFNE01.JPG,AFNE01.JPG,,,,,,,,,,,,,,,,,,,,,0,1,1,4,,,AMSA16.jpg,AMNE14.jpg,AMSA18.jpg,AMNE08.jpg,AMNE08.jpg,MN,1,num_4,16,num_4,0.616816863418,,,2017_Jun_12_1246,59.9997883088,FEMA4ImagesEEG,001,200552,
AFNE01.JPG,AFNE01.JPG,AFNE01.JPG,AFNE01.JPG,AFNE01.JPG,AFNE01.JPG,,,,,,,,,,,,,,,,,,,,,0,2,2,9,,,AMNE02.jpg,AMSA02.jpg,AMSA13.jpg,AMNE05.jpg,AMSA13.jpg,MS,2,num_2,16,num_2,0.550133283075,,,2017_Jun_12_1246,59.9997883088,FEMA4ImagesEEG,001,200552,
AFNE01.JPG,AFNE01.JPG,AFNE01.JPG,AFNE01.JPG,AFNE01.JPG,AFNE01.JPG,,,,,,,,,,,,,,,,,,,,,0,3,3,1,,,AMSA05.jpg,AMNE18.jpg,AMNE04.jpg,AMSA08.jpg,AMNE04.jpg,MN,1,num_2,32,num_6,0.38351702597,,,2017_Jun_12_1246,59.9997883088,FEMA4ImagesEEG,001,200552,
AFNE01.JPG,AFNE01.JPG,AFNE01.JPG,AFNE01.JPG,AFNE01.JPG,AFNE01.JPG,,,,,,,,,,,,,,,,,,,,,0,4,4,5,,,AMSA12.jpg,AMNE16.jpg,AMNE18.jpg,AMSA01.jpg,AMSA01.jpg,MS,2,num_4,16,num_4,0.400177176227,,,2017_Jun_12_1246,59.9997883088,FEMA4ImagesEEG,001,200552,
AFNE01.JPG,AFNE01.JPG,AFNE01.JPG,AFNE01.JPG,AFNE01.JPG,AFNE01.JPG,,,,,,,,,,,,,,,,,,,,,0,5,5,3,,,AMSA08.jpg,AMNE11.jpg,AMNE12.jpg,AMSA18.jpg,AMNE12.jpg,MN,1,num_2,32,num_8,0.266852353234,,,2017_Jun_12_1246,59.9997883088,FEMA4ImagesEEG,001,200552,
AFNE01.JPG,AFNE01.JPG,AFNE01.JPG,AFNE01.JPG,AFNE01.JPG,AFNE01.JPG,,,,,,,,,,,,,,,,,,,,,0,6,6,7,,,AMNE09.jpg,AMNE14.jpg,AMSA05.jpg,AMSA10.jpg,AMNE09.jpg,MN,1,num_8,32,num_2,0.36685398902,,,2017_Jun_12_1246,59.9997883088,FEMA4ImagesEEG,001,200552,
AFNE01.JPG,AFNE01.JPG,AFNE01.JPG,AFNE01.JPG,AFNE01.JPG,AFNE01.JPG,,,,,,,,,,,,,,,,,,,,,0,7,7,6,,,AMSA10.jpg,AMNE03.jpg,AMSA03.jpg,AMNE04.jpg,AMNE03.jpg,MN,1,num_6,16,num_6,0.283536558971,,,2017_Jun_12_1246,59.9997883088,FEMA4ImagesEEG,001,200552,
AFNE01.JPG,AFNE01.JPG,AFNE01.JPG,AFNE01.JPG,AFNE01.JPG,AFNE01.JPG,,,,,,,,,,,,,,,,,,,,,0,8,8,8,,,AMNE19.jpg,AMSA11.jpg,AMNE03.jpg,AMSA17.jpg,AMNE19.jpg,MN,1,num_8,32,num_4,0.300187407818,,,2017_Jun_12_1246,59.9997883088,FEMA4ImagesEEG,001,200552,
AFNE01.JPG,AFNE01.JPG,AFNE01.JPG,AFNE01.JPG,AFNE01.JPG,AFNE01.JPG,,,,,,,,,,,,,,,,,,,,,0,9,9,0,,,AMSA10.jpg,AMNE01.jpg,AMSA16.jpg,AMNE04.jpg,AMSA16.jpg,MS,2,num_2,32,num_8,0.266852353234,,,2017_Jun_12_1246,59.9997883088,FEMA4ImagesEEG,001,200552,
AFNE01.JPG,AFNE01.JPG,AFNE01.JPG,AFNE01.JPG,AFNE01.JPG,AFNE01.JPG,,,,,,,,,,,,,,,,,,,,,1,0,10,1,,,AMSA02.jpg,AMNE19.jpg,AMNE16.jpg,AMSA16.jpg,AMNE16.jpg,MN,1,num_2,32,num_6,1.01671563816,,,2017_Jun_12_1246,59.9997883088,FEMA4ImagesEEG,001,200552,
AFNE01.JPG,AFNE01.JPG,AFNE01.JPG,AFNE01.JPG,AFNE01.JPG,AFNE01.JPG,,,,,,,,,,,,,,,,,,,,,1,1,11,3,,,AMNE03.jpg,AMNE18.jpg,AMSA04.jpg,AMSA18.jpg,AMSA18.jpg,MS,2,num_4,32,num_2,0.633463221951,,,2017_Jun_12_1246,59.9997883088,FEMA4ImagesEEG,001,200552,
AFNE01.JPG,AFNE01.JPG,AFNE01.JPG,AFNE01.JPG,AFNE01.JPG,AFNE01.JPG,,,,,,,,,,,,,,,,,,,,,1,2,12,2,,,AMNE16.jpg,AMSA06.jpg,AMNE05.jpg,AMSA20.jpg,AMSA06.jpg,MS,2,num_6,32,num_8,0.400160818594,,,2017_Jun_12_1246,59.9997883088,FEMA4ImagesEEG,001,200552,
AFNE01.JPG,AFNE01.JPG,AFNE01.JPG,AFNE01.JPG,AFNE01.JPG,AFNE01.JPG,,,,,,,,,,,,,,,,,,,,,1,3,13,0,,,AMNE05.jpg,AMSA05.jpg,AMNE12.jpg,AMSA19.jpg,AMNE12.jpg,MN,1,num_2,32,num_6,0.466916565201,,,2017_Jun_12_1246,59.9997883088,FEMA4ImagesEEG,001,200552,
AFNE01.JPG,AFNE01.JPG,AFNE01.JPG,AFNE01.JPG,AFNE01.JPG,AFNE01.JPG,,,,,,,,,,,,,,,,,,,,,1,4,14,6,,,AMNE05.jpg,AMSA08.jpg,AMNE13.jpg,AMSA04.jpg,AMSA08.jpg,MS,2,num_6,32,num_2,0.283493259223,,,2017_Jun_12_1246,59.9997883088,FEMA4ImagesEEG,001,200552,
AFNE01.JPG,AFNE01.JPG,AFNE01.JPG,AFNE01.JPG,AFNE01.JPG,AFNE01.JPG,,,,,,,,,,,,,,,,,,,,,1,5,15,7,,,AMSA12.jpg,AMNE18.jpg,AMNE09.jpg,AMSA14.jpg,AMNE18.jpg,MN,1,num_6,16,num_6,0.766825892206,,,2017_Jun_12_1246,59.9997883088,FEMA4ImagesEEG,001,200552,
AFNE01.JPG,AFNE01.JPG,AFNE01.JPG,AFNE01.JPG,AFNE01.JPG,AFNE01.JPG,,,,,,,,,,,,,,,,,,,,,1,6,16,9,,,AMSA08.jpg,AMNE13.jpg,AMNE07.jpg,AMSA10.jpg,AMSA10.jpg,MS,2,num_4,32,num_8,0.96675828041,,,2017_Jun_12_1246,59.9997883088,FEMA4ImagesEEG,001,200552,
AFNE01.JPG,AFNE01.JPG,AFNE01.JPG,AFNE01.JPG,AFNE01.JPG,AFNE01.JPG,,,,,,,,,,,,,,,,,,,,,1,7,17,4,,,AMNE15.jpg,AMSA17.jpg,AMNE09.jpg,AMSA03.jpg,AMNE09.jpg,MN,1,num_2,16,num_2,0.800168644637,,,2017_Jun_12_1246,59.9997883088,FEMA4ImagesEEG,001,200552,
AFNE01.JPG,AFNE01.JPG,AFNE01.JPG,AFNE01.JPG,AFNE01.JPG,AFNE01.JPG,,,,,,,,,,,,,,,,,,,,,1,8,18,8,,,AMNE15.jpg,AMSA04.jpg,AMNE03.jpg,AMSA11.jpg,AMSA11.jpg,MS,2,num_4,32,num_6,0.666793144774,,,2017_Jun_12_1246,59.9997883088,FEMA4ImagesEEG,001,200552,
AFNE01.JPG,AFNE01.JPG,AFNE01.JPG,AFNE01.JPG,AFNE01.JPG,AFNE01.JPG,,,,,,,,,,,,,,,,,,,,,1,9,19,5,,,AMSA03.jpg,AMSA04.jpg,AMNE06.jpg,AMNE07.jpg,AMSA03.jpg,MS,2,num_8,32,num_2,0.516967578733,,,2017_Jun_12_1246,59.9997883088,FEMA4ImagesEEG,001,200552,
AFNE01.JPG,AFNE01.JPG,AFNE01.JPG,AFNE01.JPG,AFNE01.JPG,AFNE01.JPG,,,,,,,,,,,,,,,,,,,,,2,0,20,6,,,AMNE03.jpg,AMSA05.jpg,AMNE17.jpg,AMSA10.jpg,AMSA05.jpg,MS,2,num_6,32,num_4,0.533516432624,,,2017_Jun_12_1246,59.9997883088,FEMA4ImagesEEG,001,200552,
AFNE01.JPG,AFNE01.JPG,AFNE01.JPG,AFNE01.JPG,AFNE01.JPG,AFNE01.JPG,,,,,,,,,,,,,,,,,,,,,2,1,21,9,,,AMSA04.jpg,AMNE10.jpg,AMNE13.jpg,AMSA14.jpg,AMNE10.jpg,MN,1,num_6,32,num_8,0.733491158346,,,2017_Jun_12_1246,59.9997883088,FEMA4ImagesEEG,001,200552,
AFNE01.JPG,AFNE01.JPG,AFNE01.JPG,AFNE01.JPG,AFNE01.JPG,AFNE01.JPG,,,,,,,,,,,,,,,,,,,,,2,2,22,0,,,AMSA10.jpg,AMNE06.jpg,AMNE04.jpg,AMSA16.jpg,AMNE04.jpg,MN,1,num_2,16,num_2,0.41682193114,,,2017_Jun_12_1246,59.9997883088,FEMA4ImagesEEG,001,200552,
AFNE01.JPG,AFNE01.JPG,AFNE01.JPG,AFNE01.JPG,AFNE01.JPG,AFNE01.JPG,,,,,,,,,,,,,,,,,,,,,2,3,23,1,,,AMSA09.jpg,AMNE05.jpg,AMNE01.jpg,AMSA06.jpg,AMNE01.jpg,MN,1,num_2,32,num_6,0.516765513108,,,2017_Jun_12_1246,59.9997883088,FEMA4ImagesEEG,001,200552,
AFNE01.JPG,AFNE01.JPG,AFNE01.JPG,AFNE01.JPG,AFNE01.JPG,AFNE01.JPG,,,,,,,,,,,,,,,,,,,,,2,4,24,3,,,AMNE19.jpg,AMSA14.jpg,AMSA11.jpg,AMNE02.jpg,AMSA14.jpg,MS,2,num_6,32,num_4,0.683575175994,,,2017_Jun_12_1246,59.9997883088,FEMA4ImagesEEG,001,200552,
AFNE01.JPG,AFNE01.JPG,AFNE01.JPG,AFNE01.JPG,AFNE01.JPG,AFNE01.JPG,,,,,,,,,,,,,,,,,,,,,2,5,25,5,,,AMNE17.jpg,AMNE02.jpg,AMSA17.jpg,AMSA20.jpg,AMSA20.jpg,MS,2,num_4,32,num_8,0.266871276835,,,2017_Jun_12_1246,59.9997883088,FEMA4ImagesEEG,001,200552,
AFNE01.JPG,AFNE01.JPG,AFNE01.JPG,AFNE01.JPG,AFNE01.JPG,AFNE01.JPG,,,,,,,,,,,,,,,,,,,,,2,6,26,4,,,AMNE01.jpg,AMNE11.jpg,AMSA01.jpg,AMSA12.jpg,AMSA01.jpg,MS,2,num_2,16,num_2,1.51670970448,,,2017_Jun_12_1246,59.9997883088,FEMA4ImagesEEG,001,200552,
AFNE01.JPG,AFNE01.JPG,AFNE01.JPG,AFNE01.JPG,AFNE01.JPG,AFNE01.JPG,,,,,,,,,,,,,,,,,,,,,2,7,27,8,,,AMNE18.jpg,AMSA10.jpg,AMSA12.jpg,AMNE12.jpg,AMNE18.jpg,MN,1,num_8,32,num_6,0.900121207291,,,2017_Jun_12_1246,59.9997883088,FEMA4ImagesEEG,001,200552,
AFNE01.JPG,AFNE01.JPG,AFNE01.JPG,AFNE01.JPG,AFNE01.JPG,AFNE01.JPG,,,,,,,,,,,,,,,,,,,,,2,8,28,7,,,AMSA19.jpg,AMSA17.jpg,AMNE11.jpg,AMNE10.jpg,AMSA19.jpg,MS,2,num_8,16,num_8,0.950211350981,,,2017_Jun_12_1246,59.9997883088,FEMA4ImagesEEG,001,200552,
AFNE01.JPG,AFNE01.JPG,AFNE01.JPG,AFNE01.JPG,AFNE01.JPG,AFNE01.JPG,,,,,,,,,,,,,,,,,,,,,2,9,29,2,,,AMNE05.jpg,AMSA16.jpg,AMSA14.jpg,AMNE19.jpg,AMNE19.jpg,MN,1,num_4,16,num_4,1.23343775526,,,2017_Jun_12_1246,59.9997883088,FEMA4ImagesEEG,001,200552,
AFNE01.JPG,AFNE01.JPG,AFNE01.JPG,AFNE01.JPG,AFNE01.JPG,AFNE01.JPG,,,,,,,,,,,,,,,,,,,,,3,0,30,7,,,AMSA19.jpg,AMSA04.jpg,AMNE12.jpg,AMNE08.jpg,AMNE12.jpg,MN,1,num_2,32,num_8,0.90000926936,,,2017_Jun_12_1246,59.9997883088,FEMA4ImagesEEG,001,200552,
AFNE01.JPG,AFNE01.JPG,AFNE01.JPG,AFNE01.JPG,AFNE01.JPG,AFNE01.JPG,,,,,,,,,,,,,,,,,,,,,3,1,31,8,,,AMNE17.jpg,AMSA18.jpg,AMNE15.jpg,AMSA09.jpg,AMSA18.jpg,MS,2,num_6,32,num_2,1.16674551502,,,2017_Jun_12_1246,59.9997883088,FEMA4ImagesEEG,001,200552,
AFNE01.JPG,AFNE01.JPG,AFNE01.JPG,AFNE01.JPG,AFNE01.JPG,AFNE01.JPG,,,,,,,,,,,,,,,,,,,,,3,2,32,5,,,AMNE19.jpg,AMNE09.jpg,AMSA20.jpg,AMSA19.jpg,AMNE19.jpg,MN,1,num_8,32,num_6,2.00003335683,,,2017_Jun_12_1246,59.9997883088,FEMA4ImagesEEG,001,200552,
AFNE01.JPG,AFNE01.JPG,AFNE01.JPG,AFNE01.JPG,AFNE01.JPG,AFNE01.JPG,,,,,,,,,,,,,,,,,,,,,3,3,33,4,,,AMNE11.jpg,AMNE16.jpg,AMSA16.jpg,AMSA20.jpg,AMSA16.jpg,MS,2,num_2,16,num_2,1.21671987191,,,2017_Jun_12_1246,59.9997883088,FEMA4ImagesEEG,001,200552,
AFNE01.JPG,AFNE01.JPG,AFNE01.JPG,AFNE01.JPG,AFNE01.JPG,AFNE01.JPG,,,,,,,,,,,,,,,,,,,,,3,4,34,9,,,AMNE19.jpg,AMSA19.jpg,AMSA17.jpg,AMNE13.jpg,AMSA17.jpg,MS,2,num_2,32,num_8,0.500110173889,,,2017_Jun_12_1246,59.9997883088,FEMA4ImagesEEG,001,200552,
AFNE01.JPG,AFNE01.JPG,AFNE01.JPG,AFNE01.JPG,AFNE01.JPG,AFNE01.JPG,,,,,,,,,,,,,,,,,,,,,3,5,35,6,,,AMSA03.jpg,AMSA14.jpg,AMNE14.jpg,AMNE04.jpg,AMSA14.jpg,MS,2,num_6,32,num_8,0.783434082812,,,2017_Jun_12_1246,59.9997883088,FEMA4ImagesEEG,001,200552,
AFNE01.JPG,AFNE01.JPG,AFNE01.JPG,AFNE01.JPG,AFNE01.JPG,AFNE01.JPG,,,,,,,,,,,,,,,,,,,,,3,6,36,1,,,AMNE18.jpg,AMNE05.jpg,AMSA12.jpg,AMSA05.jpg,AMSA05.jpg,MS,2,num_4,48,None,,,,2017_Jun_12_1246,59.9997883088,FEMA4ImagesEEG,001,200552,
AFNE01.JPG,AFNE01.JPG,AFNE01.JPG,AFNE01.JPG,AFNE01.JPG,AFNE01.JPG,,,,,,,,,,,,,,,,,,,,,3,7,37,3,,,AMSA17.jpg,AMSA18.jpg,AMNE12.jpg,AMNE11.jpg,AMSA17.jpg,MS,2,num_8,32,num_6,0.366851423052,,,2017_Jun_12_1246,59.9997883088,FEMA4ImagesEEG,001,200552,
AFNE01.JPG,AFNE01.JPG,AFNE01.JPG,AFNE01.JPG,AFNE01.JPG,AFNE01.JPG,,,,,,,,,,,,,,,,,,,,,3,8,38,2,,,AMNE06.jpg,AMSA20.jpg,AMSA12.jpg,AMNE07.jpg,AMSA20.jpg,MS,2,num_6,32,num_2,0.733438236406,,,2017_Jun_12_1246,59.9997883088,FEMA4ImagesEEG,001,200552,
