IPosition2,IPosition3,IPosition1,IPosition6,IPosition4,IPosition5,TrialsF1.thisRepN,TrialsF1.thisTrialN,TrialsF1.thisN,TrialsF1.thisIndex,TrialsM1.thisRepN,TrialsM1.thisTrialN,TrialsM1.thisN,TrialsM1.thisIndex,TrialsF2.thisRepN,TrialsF2.thisTrialN,TrialsF2.thisN,TrialsF2.thisIndex,TrialsM2.thisRepN,TrialsM2.thisTrialN,TrialsM2.thisN,TrialsM2.thisIndex,TrialsF3.thisRepN,TrialsF3.thisTrialN,TrialsF3.thisN,TrialsF3.thisIndex,TrialsM3.thisRepN,TrialsM3.thisTrialN,TrialsM3.thisN,TrialsM3.thisIndex,InstrKey_resp.keys,InstrKey_resp.rt,Image0 _Position,Image1 _Position,Image2 _Position,Image3 _Position,Center_image,condition,code,correct_answer,accuracy,Key_Resp.keys,Key_Resp.rt,BreakKey_resp.keys,BreakKey_resp.rt,date,frameRate,expName,session,participant,
,,,,,,,,,,,,,,,,,,,,,,,,,,,,,,space,11.4496478436,,,,,,,,,,,,,,2017_Jun_06_1045,60.0086420368,FEMA4ImagesEEG,001,200525,
AMNE22.JPG,AMSA24.JPG,AMSA22.JPG,AMNE25.JPG,AMNE24.JPG,AMSA25.JPG,0,0,0,7,,,,,,,,,,,,,,,,,,,,,,,AFNE18.jpg,AFNE09.jpg,AFSA09.jpg,AFSA19.jpg,AFSA09.jpg,FS,4,num_2,16,num_2,1.08348410786,,,2017_Jun_06_1045,60.0086420368,FEMA4ImagesEEG,001,200525,
AMSA21.JPG,AMNE22.JPG,AMNE21.JPG,AMSA23.JPG,AMSA22.JPG,AMNE23.JPG,0,1,1,1,,,,,,,,,,,,,,,,,,,,,,,AFSA20.jpg,AFNE07.jpg,AFSA10.jpg,AFNE04.jpg,AFNE07.jpg,FN,3,num_6,32,num_4,0.933447751915,,,2017_Jun_06_1045,60.0086420368,FEMA4ImagesEEG,001,200525,
AMSA25.JPG,AMNE24.JPG,AMSA24.JPG,AMNE26.JPG,AMSA21.JPG,AMNE25.JPG,0,2,2,3,,,,,,,,,,,,,,,,,,,,,,,AFSA04.jpg,AFSA11.jpg,AFNE07.jpg,AFNE11.jpg,AFNE07.jpg,FN,3,num_2,16,num_2,0.766985663911,,,2017_Jun_06_1045,60.0086420368,FEMA4ImagesEEG,001,200525,
AFNE22.JPG,AFSA24.JPG,AFSA22.JPG,AFNE25.JPG,AFNE24.JPG,AFSA25.JPG,0,3,3,6,,,,,,,,,,,,,,,,,,,,,,,AFNE09.jpg,AFSA09.jpg,AFNE08.jpg,AFSA01.jpg,AFSA01.jpg,FS,4,num_4,32,num_6,0.683566987049,,,2017_Jun_06_1045,60.0086420368,FEMA4ImagesEEG,001,200525,
AFSA21.JPG,AFNE23.JPG,AFNE21.JPG,AFSA25.JPG,AFNE25.JPG,AFSA23.JPG,0,4,4,4,,,,,,,,,,,,,,,,,,,,,,,AFNE19.jpg,AFSA05.jpg,AFSA15.jpg,AFNE20.jpg,AFNE20.jpg,FN,3,num_4,16,num_4,0.75020134449,,,2017_Jun_06_1045,60.0086420368,FEMA4ImagesEEG,001,200525,
AMNE23.JPG,AMNE24.JPG,AMNE22.JPG,AMSA24.JPG,AMSA22.JPG,AMSA23.JPG,0,5,5,9,,,,,,,,,,,,,,,,,,,,,,,AFSA16.jpg,AFSA06.jpg,AFNE15.jpg,AFNE14.jpg,AFSA06.jpg,FS,4,num_6,16,num_6,0.783429999137,,,2017_Jun_06_1045,60.0086420368,FEMA4ImagesEEG,001,200525,
AFSA21.JPG,AFNE22.JPG,AFNE21.JPG,AFSA23.JPG,AFSA22.JPG,AFNE23.JPG,0,6,6,0,,,,,,,,,,,,,,,,,,,,,,,AFSA11.jpg,AFSA02.jpg,AFNE07.jpg,AFNE05.jpg,AFNE07.jpg,FN,3,num_2,32,num_4,0.766757617705,,,2017_Jun_06_1045,60.0086420368,FEMA4ImagesEEG,001,200525,
AFNE23.JPG,AFNE24.JPG,AFNE22.JPG,AFSA24.JPG,AFSA22.JPG,AFSA23.JPG,0,7,7,8,,,,,,,,,,,,,,,,,,,,,,,AFNE16.jpg,AFNE05.jpg,AFSA08.jpg,AFSA18.jpg,AFNE16.jpg,FN,3,num_8,32,num_4,0.916809048271,,,2017_Jun_06_1045,60.0086420368,FEMA4ImagesEEG,001,200525,
AFSA25.JPG,AFNE24.JPG,AFSA24.JPG,AFNE21.JPG,AFSA21.JPG,AFNE25.JPG,0,8,8,2,,,,,,,,,,,,,,,,,,,,,,,AFNE07.jpg,AFNE05.jpg,AFSA05.jpg,AFSA18.jpg,AFSA18.jpg,FS,4,num_4,32,num_6,0.716772868996,,,2017_Jun_06_1045,60.0086420368,FEMA4ImagesEEG,001,200525,
AMSA21.JPG,AMNE23.JPG,AMNE21.JPG,AMSA25.JPG,AMNE25.JPG,AMSA23.JPG,0,9,9,5,,,,,,,,,,,,,,,,,,,,,,,AFNE14.jpg,AFNE09.jpg,AFSA05.jpg,AFSA06.jpg,AFNE09.jpg,FN,3,num_6,32,num_8,0.566840753658,,,2017_Jun_06_1045,60.0086420368,FEMA4ImagesEEG,001,200525,
AMNE23.JPG,AMNE24.JPG,AMNE22.JPG,AMSA24.JPG,AMSA22.JPG,AMSA23.JPG,,,,,0,0,0,9,,,,,,,,,,,,,,,,,,,AMNE02.jpg,AMNE09.jpg,AMSA03.jpg,AMSA04.jpg,AMSA04.jpg,MS,2,num_4,32,num_2,0.566814452875,,,2017_Jun_06_1045,60.0086420368,FEMA4ImagesEEG,001,200525,
AMNE22.JPG,AMSA24.JPG,AMSA22.JPG,AMNE25.JPG,AMNE24.JPG,AMSA25.JPG,,,,,0,1,1,7,,,,,,,,,,,,,,,,,,,AMNE08.jpg,AMSA06.jpg,AMNE19.jpg,AMSA02.jpg,AMSA02.jpg,MS,2,num_4,16,num_4,0.600125858327,,,2017_Jun_06_1045,60.0086420368,FEMA4ImagesEEG,001,200525,
AFNE23.JPG,AFNE24.JPG,AFNE22.JPG,AFSA24.JPG,AFSA22.JPG,AFSA23.JPG,,,,,0,2,2,8,,,,,,,,,,,,,,,,,,,AMNE11.jpg,AMSA02.jpg,AMNE13.jpg,AMSA16.jpg,AMNE13.jpg,MN,1,num_2,32,num_6,0.316681907279,,,2017_Jun_06_1045,60.0086420368,FEMA4ImagesEEG,001,200525,
AFSA21.JPG,AFNE23.JPG,AFNE21.JPG,AFSA25.JPG,AFNE25.JPG,AFSA23.JPG,,,,,0,3,3,4,,,,,,,,,,,,,,,,,,,AMNE20.jpg,AMNE09.jpg,AMSA19.jpg,AMSA07.jpg,AMNE09.jpg,MN,1,num_6,32,num_8,0.666801591404,,,2017_Jun_06_1045,60.0086420368,FEMA4ImagesEEG,001,200525,
AMSA25.JPG,AMNE24.JPG,AMSA24.JPG,AMNE26.JPG,AMSA21.JPG,AMNE25.JPG,,,,,0,4,4,3,,,,,,,,,,,,,,,,,,,AMNE09.jpg,AMSA17.jpg,AMNE01.jpg,AMSA08.jpg,AMNE01.jpg,MN,1,num_2,32,num_6,0.716796282912,,,2017_Jun_06_1045,60.0086420368,FEMA4ImagesEEG,001,200525,
AFSA21.JPG,AFNE22.JPG,AFNE21.JPG,AFSA23.JPG,AFSA22.JPG,AFNE23.JPG,,,,,0,5,5,0,,,,,,,,,,,,,,,,,,,AMSA05.jpg,AMNE16.jpg,AMSA12.jpg,AMNE18.jpg,AMNE18.jpg,MN,1,num_4,16,num_4,1.11676568445,,,2017_Jun_06_1045,60.0086420368,FEMA4ImagesEEG,001,200525,
AFNE22.JPG,AFSA24.JPG,AFSA22.JPG,AFNE25.JPG,AFNE24.JPG,AFSA25.JPG,,,,,0,6,6,6,,,,,,,,,,,,,,,,,,,AMNE01.jpg,AMSA01.jpg,AMSA12.jpg,AMNE11.jpg,AMNE11.jpg,MN,1,num_4,32,num_6,0.583519870182,,,2017_Jun_06_1045,60.0086420368,FEMA4ImagesEEG,001,200525,
AMSA21.JPG,AMNE22.JPG,AMNE21.JPG,AMSA23.JPG,AMSA22.JPG,AMNE23.JPG,,,,,0,7,7,1,,,,,,,,,,,,,,,,,,,AMSA14.jpg,AMNE05.jpg,AMSA16.jpg,AMNE17.jpg,AMNE05.jpg,MN,1,num_6,32,num_2,0.866795112379,,,2017_Jun_06_1045,60.0086420368,FEMA4ImagesEEG,001,200525,
AMSA21.JPG,AMNE23.JPG,AMNE21.JPG,AMSA25.JPG,AMNE25.JPG,AMSA23.JPG,,,,,0,8,8,5,,,,,,,,,,,,,,,,,,,AMSA18.jpg,AMSA17.jpg,AMNE16.jpg,AMNE12.jpg,AMNE12.jpg,MN,1,num_4,32,num_6,4.91605434753,,,2017_Jun_06_1045,60.0086420368,FEMA4ImagesEEG,001,200525,
AFSA25.JPG,AFNE24.JPG,AFSA24.JPG,AFNE21.JPG,AFSA21.JPG,AFNE25.JPG,,,,,0,9,9,2,,,,,,,,,,,,,,,,,,,AMNE12.jpg,AMSA10.jpg,AMNE18.jpg,AMSA18.jpg,AMNE18.jpg,MN,1,num_2,32,num_8,1.10013147118,,,2017_Jun_06_1045,60.0086420368,FEMA4ImagesEEG,001,200525,
AFNE22.JPG,AFSA24.JPG,AFSA22.JPG,AFNE25.JPG,AFNE24.JPG,AFSA25.JPG,,,,,,,,,0,0,0,6,,,,,,,,,,,,,,,AFSA04.jpg,AFNE07.jpg,AFNE06.jpg,AFSA07.jpg,AFSA04.jpg,FS,4,num_8,32,num_4,0.633482488105,,,2017_Jun_06_1045,60.0086420368,FEMA4ImagesEEG,001,200525,
AFSA21.JPG,AFNE22.JPG,AFNE21.JPG,AFSA23.JPG,AFSA22.JPG,AFNE23.JPG,,,,,,,,,0,1,1,0,,,,,,,,,,,,,,,AFNE11.jpg,AFNE10.jpg,AFSA03.jpg,AFSA08.jpg,AFNE11.jpg,FN,3,num_8,16,num_8,0.816988053266,,,2017_Jun_06_1045,60.0086420368,FEMA4ImagesEEG,001,200525,
AFNE23.JPG,AFNE24.JPG,AFNE22.JPG,AFSA24.JPG,AFSA22.JPG,AFSA23.JPG,,,,,,,,,0,2,2,8,,,,,,,,,,,,,,,AFNE09.jpg,AFSA05.jpg,AFSA16.jpg,AFNE18.jpg,AFNE09.jpg,FN,3,num_8,32,num_2,0.300200366182,,,2017_Jun_06_1045,60.0086420368,FEMA4ImagesEEG,001,200525,
AMNE22.JPG,AMSA24.JPG,AMSA22.JPG,AMNE25.JPG,AMNE24.JPG,AMSA25.JPG,,,,,,,,,0,3,3,7,,,,,,,,,,,,,,,AFSA01.jpg,AFNE04.jpg,AFNE20.jpg,AFSA15.jpg,AFNE04.jpg,FN,3,num_6,32,num_4,0.500035120873,,,2017_Jun_06_1045,60.0086420368,FEMA4ImagesEEG,001,200525,
AMNE23.JPG,AMNE24.JPG,AMNE22.JPG,AMSA24.JPG,AMSA22.JPG,AMSA23.JPG,,,,,,,,,0,4,4,9,,,,,,,,,,,,,,,AFNE03.jpg,AFSA16.jpg,AFSA08.jpg,AFNE07.jpg,AFSA08.jpg,FS,4,num_2,32,num_6,0.550133091165,,,2017_Jun_06_1045,60.0086420368,FEMA4ImagesEEG,001,200525,
AMSA25.JPG,AMNE24.JPG,AMSA24.JPG,AMNE26.JPG,AMSA21.JPG,AMNE25.JPG,,,,,,,,,0,5,5,3,,,,,,,,,,,,,,,AFNE05.jpg,AFSA01.jpg,AFSA13.jpg,AFNE14.jpg,AFNE14.jpg,FN,3,num_4,32,num_2,0.650152303278,,,2017_Jun_06_1045,60.0086420368,FEMA4ImagesEEG,001,200525,
AFSA25.JPG,AFNE24.JPG,AFSA24.JPG,AFNE21.JPG,AFSA21.JPG,AFNE25.JPG,,,,,,,,,0,6,6,2,,,,,,,,,,,,,,,AFNE02.jpg,AFNE15.jpg,AFSA09.jpg,AFSA08.jpg,AFSA09.jpg,FS,4,num_2,32,num_8,0.683519196697,,,2017_Jun_06_1045,60.0086420368,FEMA4ImagesEEG,001,200525,
AMSA21.JPG,AMNE23.JPG,AMNE21.JPG,AMSA25.JPG,AMNE25.JPG,AMSA23.JPG,,,,,,,,,0,7,7,5,,,,,,,,,,,,,,,AFNE13.jpg,AFSA09.jpg,AFSA02.jpg,AFNE01.jpg,AFNE01.jpg,FN,3,num_4,32,num_2,0.316808278672,,,2017_Jun_06_1045,60.0086420368,FEMA4ImagesEEG,001,200525,
AMSA21.JPG,AMNE22.JPG,AMNE21.JPG,AMSA23.JPG,AMSA22.JPG,AMNE23.JPG,,,,,,,,,0,8,8,1,,,,,,,,,,,,,,,AFNE14.jpg,AFNE11.jpg,AFSA14.jpg,AFSA08.jpg,AFNE11.jpg,FN,3,num_6,16,num_6,0.33354063821,,,2017_Jun_06_1045,60.0086420368,FEMA4ImagesEEG,001,200525,
AFSA21.JPG,AFNE23.JPG,AFNE21.JPG,AFSA25.JPG,AFNE25.JPG,AFSA23.JPG,,,,,,,,,0,9,9,4,,,,,,,,,,,,,,,AFNE14.jpg,AFSA07.jpg,AFNE03.jpg,AFSA15.jpg,AFNE14.jpg,FN,3,num_8,32,num_4,0.383478879696,,,2017_Jun_06_1045,60.0086420368,FEMA4ImagesEEG,001,200525,
AMSA25.JPG,AMNE24.JPG,AMSA24.JPG,AMNE26.JPG,AMSA21.JPG,AMNE25.JPG,,,,,,,,,,,,,0,0,0,3,,,,,,,,,,,AMNE05.jpg,AMNE15.jpg,AMSA07.jpg,AMSA11.jpg,AMNE15.jpg,MN,1,num_6,16,num_6,0.550208785571,,,2017_Jun_06_1045,60.0086420368,FEMA4ImagesEEG,001,200525,
AFSA21.JPG,AFNE22.JPG,AFNE21.JPG,AFSA23.JPG,AFSA22.JPG,AFNE23.JPG,,,,,,,,,,,,,0,1,1,0,,,,,,,,,,,AMSA16.jpg,AMNE20.jpg,AMNE10.jpg,AMSA15.jpg,AMNE20.jpg,MN,1,num_6,32,num_8,0.633479922079,,,2017_Jun_06_1045,60.0086420368,FEMA4ImagesEEG,001,200525,
AFNE22.JPG,AFSA24.JPG,AFSA22.JPG,AFNE25.JPG,AFNE24.JPG,AFSA25.JPG,,,,,,,,,,,,,0,2,2,6,,,,,,,,,,,AMSA01.jpg,AMSA08.jpg,AMNE15.jpg,AMNE03.jpg,AMNE03.jpg,MN,1,num_4,16,num_4,0.600132273044,,,2017_Jun_06_1045,60.0086420368,FEMA4ImagesEEG,001,200525,
AMNE23.JPG,AMNE24.JPG,AMNE22.JPG,AMSA24.JPG,AMSA22.JPG,AMSA23.JPG,,,,,,,,,,,,,0,3,3,9,,,,,,,,,,,AMNE16.jpg,AMSA02.jpg,AMNE19.jpg,AMSA13.jpg,AMSA13.jpg,MS,2,num_4,32,num_8,0.55015009013,,,2017_Jun_06_1045,60.0086420368,FEMA4ImagesEEG,001,200525,
AFSA21.JPG,AFNE23.JPG,AFNE21.JPG,AFSA25.JPG,AFNE25.JPG,AFSA23.JPG,,,,,,,,,,,,,0,4,4,4,,,,,,,,,,,AMSA06.jpg,AMNE19.jpg,AMSA01.jpg,AMNE10.jpg,AMSA01.jpg,MS,2,num_2,32,num_6,0.466770864325,,,2017_Jun_06_1045,60.0086420368,FEMA4ImagesEEG,001,200525,
AFNE23.JPG,AFNE24.JPG,AFNE22.JPG,AFSA24.JPG,AFSA22.JPG,AFSA23.JPG,,,,,,,,,,,,,0,5,5,8,,,,,,,,,,,AMNE13.jpg,AMSA20.jpg,AMNE07.jpg,AMSA10.jpg,AMNE13.jpg,MN,1,num_8,32,num_4,0.866787093924,,,2017_Jun_06_1045,60.0086420368,FEMA4ImagesEEG,001,200525,
AMNE22.JPG,AMSA24.JPG,AMSA22.JPG,AMNE25.JPG,AMNE24.JPG,AMSA25.JPG,,,,,,,,,,,,,0,6,6,7,,,,,,,,,,,AMSA01.jpg,AMNE20.jpg,AMSA07.jpg,AMNE11.jpg,AMNE20.jpg,MN,1,num_6,16,num_6,0.650117021985,,,2017_Jun_06_1045,60.0086420368,FEMA4ImagesEEG,001,200525,
AMSA21.JPG,AMNE23.JPG,AMNE21.JPG,AMSA25.JPG,AMNE25.JPG,AMSA23.JPG,,,,,,,,,,,,,0,7,7,5,,,,,,,,,,,AMSA16.jpg,AMNE05.jpg,AMNE15.jpg,AMSA19.jpg,AMSA19.jpg,MS,2,num_4,16,num_4,1.0668774785,,,2017_Jun_06_1045,60.0086420368,FEMA4ImagesEEG,001,200525,
AFSA25.JPG,AFNE24.JPG,AFSA24.JPG,AFNE21.JPG,AFSA21.JPG,AFNE25.JPG,,,,,,,,,,,,,0,8,8,2,,,,,,,,,,,AMNE04.jpg,AMSA03.jpg,AMSA09.jpg,AMNE16.jpg,AMSA03.jpg,MS,2,num_6,32,num_4,0.533498557052,,,2017_Jun_06_1045,60.0086420368,FEMA4ImagesEEG,001,200525,
AMSA21.JPG,AMNE22.JPG,AMNE21.JPG,AMSA23.JPG,AMSA22.JPG,AMNE23.JPG,,,,,,,,,,,,,0,9,9,1,,,,,,,,,,,AMSA10.jpg,AMNE16.jpg,AMNE09.jpg,AMSA02.jpg,AMNE16.jpg,MN,1,num_6,32,num_4,0.41682652873,,,2017_Jun_06_1045,60.0086420368,FEMA4ImagesEEG,001,200525,
AFSA25.JPG,AFNE24.JPG,AFSA24.JPG,AFNE21.JPG,AFSA21.JPG,AFNE25.JPG,,,,,,,,,,,,,,,,,0,0,0,2,,,,,,,AFNE05.jpg,AFSA18.jpg,AFNE13.jpg,AFSA03.jpg,AFSA03.jpg,FS,4,num_4,32,num_6,0.533509782981,,,2017_Jun_06_1045,60.0086420368,FEMA4ImagesEEG,001,200525,
AFNE23.JPG,AFNE24.JPG,AFNE22.JPG,AFSA24.JPG,AFSA22.JPG,AFSA23.JPG,,,,,,,,,,,,,,,,,0,1,1,8,,,,,,,AFNE15.jpg,AFNE18.jpg,AFSA02.jpg,AFSA10.jpg,AFSA10.jpg,FS,4,num_4,32,num_2,0.683449275559,,,2017_Jun_06_1045,60.0086420368,FEMA4ImagesEEG,001,200525,
AMSA21.JPG,AMNE22.JPG,AMNE21.JPG,AMSA23.JPG,AMSA22.JPG,AMNE23.JPG,,,,,,,,,,,,,,,,,0,2,2,1,,,,,,,AFSA16.jpg,AFSA07.jpg,AFNE16.jpg,AFNE15.jpg,AFNE15.jpg,FN,3,num_4,16,num_4,0.316825598711,,,2017_Jun_06_1045,60.0086420368,FEMA4ImagesEEG,001,200525,
AMSA25.JPG,AMNE24.JPG,AMSA24.JPG,AMNE26.JPG,AMSA21.JPG,AMNE25.JPG,,,,,,,,,,,,,,,,,0,3,3,3,,,,,,,AFSA05.jpg,AFNE17.jpg,AFNE06.jpg,AFSA15.jpg,AFSA05.jpg,FS,4,num_8,32,num_6,0.266837963136,,,2017_Jun_06_1045,60.0086420368,FEMA4ImagesEEG,001,200525,
AFNE22.JPG,AFSA24.JPG,AFSA22.JPG,AFNE25.JPG,AFNE24.JPG,AFSA25.JPG,,,,,,,,,,,,,,,,,0,4,4,6,,,,,,,AFNE15.jpg,AFSA16.jpg,AFSA19.jpg,AFNE17.jpg,AFSA19.jpg,FS,4,num_2,32,num_4,0.316668436164,,,2017_Jun_06_1045,60.0086420368,FEMA4ImagesEEG,001,200525,
AFSA21.JPG,AFNE23.JPG,AFNE21.JPG,AFSA25.JPG,AFNE25.JPG,AFSA23.JPG,,,,,,,,,,,,,,,,,0,5,5,4,,,,,,,AFNE02.jpg,AFSA18.jpg,AFNE01.jpg,AFSA17.jpg,AFNE01.jpg,FN,3,num_2,16,num_2,0.583491003839,,,2017_Jun_06_1045,60.0086420368,FEMA4ImagesEEG,001,200525,
AMNE22.JPG,AMSA24.JPG,AMSA22.JPG,AMNE25.JPG,AMNE24.JPG,AMSA25.JPG,,,,,,,,,,,,,,,,,0,6,6,7,,,,,,,AFNE16.jpg,AFSA05.jpg,AFNE02.jpg,AFSA09.jpg,AFSA05.jpg,FS,4,num_6,32,num_2,0.250211768551,,,2017_Jun_06_1045,60.0086420368,FEMA4ImagesEEG,001,200525,
AMSA21.JPG,AMNE23.JPG,AMNE21.JPG,AMSA25.JPG,AMNE25.JPG,AMSA23.JPG,,,,,,,,,,,,,,,,,0,7,7,5,,,,,,,AFNE01.jpg,AFSA04.jpg,AFSA15.jpg,AFNE07.jpg,AFSA15.jpg,FS,4,num_2,32,num_4,0.333603824023,,,2017_Jun_06_1045,60.0086420368,FEMA4ImagesEEG,001,200525,
AMNE23.JPG,AMNE24.JPG,AMNE22.JPG,AMSA24.JPG,AMSA22.JPG,AMSA23.JPG,,,,,,,,,,,,,,,,,0,8,8,9,,,,,,,AFNE02.jpg,AFNE01.jpg,AFSA02.jpg,AFSA14.jpg,AFNE02.jpg,FN,3,num_8,32,num_4,0.266811341746,,,2017_Jun_06_1045,60.0086420368,FEMA4ImagesEEG,001,200525,
AFSA21.JPG,AFNE22.JPG,AFNE21.JPG,AFSA23.JPG,AFSA22.JPG,AFNE23.JPG,,,,,,,,,,,,,,,,,0,9,9,0,,,,,,,AFSA07.jpg,AFSA15.jpg,AFNE08.jpg,AFNE04.jpg,AFSA07.jpg,FS,4,num_8,32,num_4,0.36678789556,,,2017_Jun_06_1045,60.0086420368,FEMA4ImagesEEG,001,200525,
AFNE23.JPG,AFNE24.JPG,AFNE22.JPG,AFSA24.JPG,AFSA22.JPG,AFSA23.JPG,,,,,,,,,,,,,,,,,,,,,0,0,0,8,,,AMSA08.jpg,AMSA20.jpg,AMNE11.jpg,AMNE03.jpg,AMSA08.jpg,MS,2,num_8,32,num_6,0.516761386301,,,2017_Jun_06_1045,60.0086420368,FEMA4ImagesEEG,001,200525,
AFSA21.JPG,AFNE23.JPG,AFNE21.JPG,AFSA25.JPG,AFNE25.JPG,AFSA23.JPG,,,,,,,,,,,,,,,,,,,,,0,1,1,4,,,AMNE18.jpg,AMSA09.jpg,AMNE01.jpg,AMSA14.jpg,AMNE18.jpg,MN,1,num_8,32,num_2,0.300155462697,,,2017_Jun_06_1045,60.0086420368,FEMA4ImagesEEG,001,200525,
AMSA25.JPG,AMNE24.JPG,AMSA24.JPG,AMNE26.JPG,AMSA21.JPG,AMNE25.JPG,,,,,,,,,,,,,,,,,,,,,0,2,2,3,,,AMSA09.jpg,AMSA17.jpg,AMNE09.jpg,AMNE12.jpg,AMSA17.jpg,MS,2,num_6,32,num_4,0.616783164674,,,2017_Jun_06_1045,60.0086420368,FEMA4ImagesEEG,001,200525,
AFNE22.JPG,AFSA24.JPG,AFSA22.JPG,AFNE25.JPG,AFNE24.JPG,AFSA25.JPG,,,,,,,,,,,,,,,,,,,,,0,3,3,6,,,AMNE11.jpg,AMSA04.jpg,AMSA17.jpg,AMNE16.jpg,AMSA04.jpg,MS,2,num_6,16,num_6,0.366764160804,,,2017_Jun_06_1045,60.0086420368,FEMA4ImagesEEG,001,200525,
AFSA25.JPG,AFNE24.JPG,AFSA24.JPG,AFNE21.JPG,AFSA21.JPG,AFNE25.JPG,,,,,,,,,,,,,,,,,,,,,0,4,4,2,,,AMSA13.jpg,AMNE18.jpg,AMNE16.jpg,AMSA01.jpg,AMSA13.jpg,MS,2,num_8,32,num_4,0.383522179676,,,2017_Jun_06_1045,60.0086420368,FEMA4ImagesEEG,001,200525,
AFSA21.JPG,AFNE22.JPG,AFNE21.JPG,AFSA23.JPG,AFSA22.JPG,AFNE23.JPG,,,,,,,,,,,,,,,,,,,,,0,5,5,0,,,AMSA02.jpg,AMNE08.jpg,AMSA13.jpg,AMNE11.jpg,AMNE08.jpg,MN,1,num_6,32,num_8,0.366805215599,,,2017_Jun_06_1045,60.0086420368,FEMA4ImagesEEG,001,200525,
AMNE22.JPG,AMSA24.JPG,AMSA22.JPG,AMNE25.JPG,AMNE24.JPG,AMSA25.JPG,,,,,,,,,,,,,,,,,,,,,0,6,6,7,,,AMSA14.jpg,AMNE01.jpg,AMNE03.jpg,AMSA04.jpg,AMNE03.jpg,MN,1,num_2,32,num_4,0.266809417401,,,2017_Jun_06_1045,60.0086420368,FEMA4ImagesEEG,001,200525,
AMSA21.JPG,AMNE22.JPG,AMNE21.JPG,AMSA23.JPG,AMSA22.JPG,AMNE23.JPG,,,,,,,,,,,,,,,,,,,,,0,7,7,1,,,AMNE13.jpg,AMNE09.jpg,AMSA03.jpg,AMSA17.jpg,AMNE09.jpg,MN,1,num_6,32,num_4,0.433459779713,,,2017_Jun_06_1045,60.0086420368,FEMA4ImagesEEG,001,200525,
AMNE23.JPG,AMNE24.JPG,AMNE22.JPG,AMSA24.JPG,AMSA22.JPG,AMSA23.JPG,,,,,,,,,,,,,,,,,,,,,0,8,8,9,,,AMSA18.jpg,AMNE09.jpg,AMNE18.jpg,AMSA12.jpg,AMNE18.jpg,MN,1,num_2,32,num_6,0.416893242626,,,2017_Jun_06_1045,60.0086420368,FEMA4ImagesEEG,001,200525,
AMSA21.JPG,AMNE23.JPG,AMNE21.JPG,AMSA25.JPG,AMNE25.JPG,AMSA23.JPG,,,,,,,,,,,,,,,,,,,,,0,9,9,5,,,AMSA02.jpg,AMSA15.jpg,AMNE15.jpg,AMNE18.jpg,AMSA02.jpg,MS,2,num_8,32,num_4,0.833528289571,,,2017_Jun_06_1045,60.0086420368,FEMA4ImagesEEG,001,200525,
,,,,,,,,,,,,,,,,,,,,,,,,,,,,,,,,,,,,,,,,,,,space,4.23313589673,2017_Jun_06_1045,60.0086420368,FEMA4ImagesEEG,001,200525,
AFNE01.JPG,AFNE01.JPG,AFNE01.JPG,AFNE01.JPG,AFNE01.JPG,AFNE01.JPG,0,0,0,7,,,,,,,,,,,,,,,,,,,,,,,AFNE01.jpg,AFNE20.jpg,AFSA12.jpg,AFSA16.jpg,AFSA12.jpg,FS,4,num_2,32,num_6,0.91669261991,,,2017_Jun_06_1045,60.0086420368,FEMA4ImagesEEG,001,200525,
AFNE01.JPG,AFNE01.JPG,AFNE01.JPG,AFNE01.JPG,AFNE01.JPG,AFNE01.JPG,0,1,1,8,,,,,,,,,,,,,,,,,,,,,,,AFNE19.jpg,AFSA04.jpg,AFNE07.jpg,AFSA01.jpg,AFNE19.jpg,FN,3,num_8,32,num_4,0.583572151139,,,2017_Jun_06_1045,60.0086420368,FEMA4ImagesEEG,001,200525,
AFNE01.JPG,AFNE01.JPG,AFNE01.JPG,AFNE01.JPG,AFNE01.JPG,AFNE01.JPG,0,2,2,5,,,,,,,,,,,,,,,,,,,,,,,AFNE01.jpg,AFNE11.jpg,AFSA06.jpg,AFSA03.jpg,AFNE11.jpg,FN,3,num_6,32,num_4,0.566785265692,,,2017_Jun_06_1045,60.0086420368,FEMA4ImagesEEG,001,200525,
AFNE01.JPG,AFNE01.JPG,AFNE01.JPG,AFNE01.JPG,AFNE01.JPG,AFNE01.JPG,0,3,3,9,,,,,,,,,,,,,,,,,,,,,,,AFSA02.jpg,AFNE09.jpg,AFSA08.jpg,AFNE04.jpg,AFSA02.jpg,FS,4,num_8,16,num_8,0.566755757667,,,2017_Jun_06_1045,60.0086420368,FEMA4ImagesEEG,001,200525,
AFNE01.JPG,AFNE01.JPG,AFNE01.JPG,AFNE01.JPG,AFNE01.JPG,AFNE01.JPG,0,4,4,0,,,,,,,,,,,,,,,,,,,,,,,AFNE04.jpg,AFSA17.jpg,AFSA13.jpg,AFNE12.jpg,AFSA17.jpg,FS,4,num_6,32,num_8,0.366786291823,,,2017_Jun_06_1045,60.0086420368,FEMA4ImagesEEG,001,200525,
AFNE01.JPG,AFNE01.JPG,AFNE01.JPG,AFNE01.JPG,AFNE01.JPG,AFNE01.JPG,0,5,5,6,,,,,,,,,,,,,,,,,,,,,,,AFNE04.jpg,AFSA12.jpg,AFSA11.jpg,AFNE01.jpg,AFNE01.jpg,FN,3,num_4,32,num_2,0.283476666547,,,2017_Jun_06_1045,60.0086420368,FEMA4ImagesEEG,001,200525,
AFNE01.JPG,AFNE01.JPG,AFNE01.JPG,AFNE01.JPG,AFNE01.JPG,AFNE01.JPG,0,6,6,4,,,,,,,,,,,,,,,,,,,,,,,AFSA18.jpg,AFNE10.jpg,AFSA17.jpg,AFNE08.jpg,AFSA18.jpg,FS,4,num_8,32,num_6,0.316836182959,,,2017_Jun_06_1045,60.0086420368,FEMA4ImagesEEG,001,200525,
AFNE01.JPG,AFNE01.JPG,AFNE01.JPG,AFNE01.JPG,AFNE01.JPG,AFNE01.JPG,0,7,7,3,,,,,,,,,,,,,,,,,,,,,,,AFSA13.jpg,AFNE12.jpg,AFSA08.jpg,AFNE03.jpg,AFNE03.jpg,FN,3,num_4,16,num_4,0.516880701762,,,2017_Jun_06_1045,60.0086420368,FEMA4ImagesEEG,001,200525,
AFNE01.JPG,AFNE01.JPG,AFNE01.JPG,AFNE01.JPG,AFNE01.JPG,AFNE01.JPG,0,8,8,2,,,,,,,,,,,,,,,,,,,,,,,AFNE15.jpg,AFSA02.jpg,AFNE17.jpg,AFSA13.jpg,AFSA13.jpg,FS,4,num_4,32,num_2,0.683514706325,,,2017_Jun_06_1045,60.0086420368,FEMA4ImagesEEG,001,200525,
AFNE01.JPG,AFNE01.JPG,AFNE01.JPG,AFNE01.JPG,AFNE01.JPG,AFNE01.JPG,0,9,9,1,,,,,,,,,,,,,,,,,,,,,,,AFSA20.jpg,AFNE11.jpg,AFSA04.jpg,AFNE17.jpg,AFSA04.jpg,FS,4,num_2,32,num_4,0.300181763247,,,2017_Jun_06_1045,60.0086420368,FEMA4ImagesEEG,001,200525,
AFNE01.JPG,AFNE01.JPG,AFNE01.JPG,AFNE01.JPG,AFNE01.JPG,AFNE01.JPG,1,0,10,3,,,,,,,,,,,,,,,,,,,,,,,AFNE04.jpg,AFNE08.jpg,AFSA03.jpg,AFSA18.jpg,AFSA03.jpg,FS,4,num_2,32,num_6,0.333521073218,,,2017_Jun_06_1045,60.0086420368,FEMA4ImagesEEG,001,200525,
AFNE01.JPG,AFNE01.JPG,AFNE01.JPG,AFNE01.JPG,AFNE01.JPG,AFNE01.JPG,1,1,11,0,,,,,,,,,,,,,,,,,,,,,,,AFSA13.jpg,AFSA12.jpg,AFNE03.jpg,AFNE12.jpg,AFSA12.jpg,FS,4,num_6,32,num_8,0.300174707081,,,2017_Jun_06_1045,60.0086420368,FEMA4ImagesEEG,001,200525,
AFNE01.JPG,AFNE01.JPG,AFNE01.JPG,AFNE01.JPG,AFNE01.JPG,AFNE01.JPG,1,2,12,4,,,,,,,,,,,,,,,,,,,,,,,AFNE14.jpg,AFSA09.jpg,AFSA12.jpg,AFNE11.jpg,AFNE14.jpg,FN,3,num_8,32,num_4,0.65016673645,,,2017_Jun_06_1045,60.0086420368,FEMA4ImagesEEG,001,200525,
AFNE01.JPG,AFNE01.JPG,AFNE01.JPG,AFNE01.JPG,AFNE01.JPG,AFNE01.JPG,1,3,13,1,,,,,,,,,,,,,,,,,,,,,,,AFSA06.jpg,AFSA03.jpg,AFNE16.jpg,AFNE04.jpg,AFSA03.jpg,FS,4,num_6,16,num_6,0.300192026887,,,2017_Jun_06_1045,60.0086420368,FEMA4ImagesEEG,001,200525,
AFNE01.JPG,AFNE01.JPG,AFNE01.JPG,AFNE01.JPG,AFNE01.JPG,AFNE01.JPG,1,4,14,8,,,,,,,,,,,,,,,,,,,,,,,AFNE11.jpg,AFNE20.jpg,AFSA05.jpg,AFSA06.jpg,AFSA05.jpg,FS,4,num_2,32,num_4,0.266808134271,,,2017_Jun_06_1045,60.0086420368,FEMA4ImagesEEG,001,200525,
AFNE01.JPG,AFNE01.JPG,AFNE01.JPG,AFNE01.JPG,AFNE01.JPG,AFNE01.JPG,1,5,15,9,,,,,,,,,,,,,,,,,,,,,,,AFSA06.jpg,AFNE17.jpg,AFSA15.jpg,AFNE12.jpg,AFNE12.jpg,FN,3,num_4,32,num_8,0.333508243319,,,2017_Jun_06_1045,60.0086420368,FEMA4ImagesEEG,001,200525,
AFNE01.JPG,AFNE01.JPG,AFNE01.JPG,AFNE01.JPG,AFNE01.JPG,AFNE01.JPG,1,6,16,2,,,,,,,,,,,,,,,,,,,,,,,AFNE19.jpg,AFNE09.jpg,AFSA14.jpg,AFSA04.jpg,AFNE19.jpg,FN,3,num_8,32,num_6,0.516818157397,,,2017_Jun_06_1045,60.0086420368,FEMA4ImagesEEG,001,200525,
AFNE01.JPG,AFNE01.JPG,AFNE01.JPG,AFNE01.JPG,AFNE01.JPG,AFNE01.JPG,1,7,17,7,,,,,,,,,,,,,,,,,,,,,,,AFSA06.jpg,AFNE06.jpg,AFNE12.jpg,AFSA20.jpg,AFSA20.jpg,FS,4,num_4,32,num_2,0.566791359568,,,2017_Jun_06_1045,60.0086420368,FEMA4ImagesEEG,001,200525,
AFNE01.JPG,AFNE01.JPG,AFNE01.JPG,AFNE01.JPG,AFNE01.JPG,AFNE01.JPG,1,8,18,6,,,,,,,,,,,,,,,,,,,,,,,AFSA10.jpg,AFNE03.jpg,AFNE18.jpg,AFSA12.jpg,AFSA12.jpg,FS,4,num_4,16,num_4,0.600151517428,,,2017_Jun_06_1045,60.0086420368,FEMA4ImagesEEG,001,200525,
AFNE01.JPG,AFNE01.JPG,AFNE01.JPG,AFNE01.JPG,AFNE01.JPG,AFNE01.JPG,1,9,19,5,,,,,,,,,,,,,,,,,,,,,,,AFNE16.jpg,AFNE17.jpg,AFSA02.jpg,AFSA19.jpg,AFSA19.jpg,FS,4,num_4,32,num_6,0.300115049351,,,2017_Jun_06_1045,60.0086420368,FEMA4ImagesEEG,001,200525,
AFNE01.JPG,AFNE01.JPG,AFNE01.JPG,AFNE01.JPG,AFNE01.JPG,AFNE01.JPG,2,0,20,0,,,,,,,,,,,,,,,,,,,,,,,AFSA18.jpg,AFNE20.jpg,AFSA02.jpg,AFNE18.jpg,AFNE20.jpg,FN,3,num_6,32,num_4,0.266832189867,,,2017_Jun_06_1045,60.0086420368,FEMA4ImagesEEG,001,200525,
AFNE01.JPG,AFNE01.JPG,AFNE01.JPG,AFNE01.JPG,AFNE01.JPG,AFNE01.JPG,2,1,21,6,,,,,,,,,,,,,,,,,,,,,,,AFNE10.jpg,AFSA08.jpg,AFSA20.jpg,AFNE01.jpg,AFSA20.jpg,FS,4,num_2,16,num_2,0.616806257982,,,2017_Jun_06_1045,60.0086420368,FEMA4ImagesEEG,001,200525,
AFNE01.JPG,AFNE01.JPG,AFNE01.JPG,AFNE01.JPG,AFNE01.JPG,AFNE01.JPG,2,2,22,1,,,,,,,,,,,,,,,,,,,,,,,AFSA12.jpg,AFNE11.jpg,AFSA08.jpg,AFNE09.jpg,AFNE11.jpg,FN,3,num_6,16,num_6,0.533547951141,,,2017_Jun_06_1045,60.0086420368,FEMA4ImagesEEG,001,200525,
AFNE01.JPG,AFNE01.JPG,AFNE01.JPG,AFNE01.JPG,AFNE01.JPG,AFNE01.JPG,2,3,23,7,,,,,,,,,,,,,,,,,,,,,,,AFSA14.jpg,AFSA10.jpg,AFNE18.jpg,AFNE06.jpg,AFSA14.jpg,FS,4,num_8,32,num_6,0.316806674935,,,2017_Jun_06_1045,60.0086420368,FEMA4ImagesEEG,001,200525,
AFNE01.JPG,AFNE01.JPG,AFNE01.JPG,AFNE01.JPG,AFNE01.JPG,AFNE01.JPG,2,4,24,5,,,,,,,,,,,,,,,,,,,,,,,AFNE15.jpg,AFNE12.jpg,AFSA13.jpg,AFSA01.jpg,AFNE12.jpg,FN,3,num_6,32,num_4,0.583480739966,,,2017_Jun_06_1045,60.0086420368,FEMA4ImagesEEG,001,200525,
AFNE01.JPG,AFNE01.JPG,AFNE01.JPG,AFNE01.JPG,AFNE01.JPG,AFNE01.JPG,2,5,25,2,,,,,,,,,,,,,,,,,,,,,,,AFNE04.jpg,AFSA06.jpg,AFSA20.jpg,AFNE17.jpg,AFNE04.jpg,FN,3,num_8,32,num_2,0.316941065015,,,2017_Jun_06_1045,60.0086420368,FEMA4ImagesEEG,001,200525,
AFNE01.JPG,AFNE01.JPG,AFNE01.JPG,AFNE01.JPG,AFNE01.JPG,AFNE01.JPG,2,6,26,3,,,,,,,,,,,,,,,,,,,,,,,AFSA08.jpg,AFNE03.jpg,AFSA12.jpg,AFNE09.jpg,AFNE09.jpg,FN,3,num_4,32,num_6,0.333527167328,,,2017_Jun_06_1045,60.0086420368,FEMA4ImagesEEG,001,200525,
AFNE01.JPG,AFNE01.JPG,AFNE01.JPG,AFNE01.JPG,AFNE01.JPG,AFNE01.JPG,2,7,27,8,,,,,,,,,,,,,,,,,,,,,,,AFSA13.jpg,AFSA05.jpg,AFNE12.jpg,AFNE05.jpg,AFSA05.jpg,FS,4,num_6,32,num_2,0.400157996453,,,2017_Jun_06_1045,60.0086420368,FEMA4ImagesEEG,001,200525,
AFNE01.JPG,AFNE01.JPG,AFNE01.JPG,AFNE01.JPG,AFNE01.JPG,AFNE01.JPG,2,8,28,9,,,,,,,,,,,,,,,,,,,,,,,AFNE17.jpg,AFNE04.jpg,AFSA10.jpg,AFSA01.jpg,AFSA01.jpg,FS,4,num_4,16,num_4,0.350205321796,,,2017_Jun_06_1045,60.0086420368,FEMA4ImagesEEG,001,200525,
AFNE01.JPG,AFNE01.JPG,AFNE01.JPG,AFNE01.JPG,AFNE01.JPG,AFNE01.JPG,2,9,29,4,,,,,,,,,,,,,,,,,,,,,,,AFSA12.jpg,AFSA13.jpg,AFNE01.jpg,AFNE07.jpg,AFSA12.jpg,FS,4,num_8,32,num_6,0.266829944681,,,2017_Jun_06_1045,60.0086420368,FEMA4ImagesEEG,001,200525,
AFNE01.JPG,AFNE01.JPG,AFNE01.JPG,AFNE01.JPG,AFNE01.JPG,AFNE01.JPG,3,0,30,0,,,,,,,,,,,,,,,,,,,,,,,AFSA18.jpg,AFNE16.jpg,AFSA03.jpg,AFNE09.jpg,AFNE16.jpg,FN,3,num_6,32,num_2,0.750120838871,,,2017_Jun_06_1045,60.0086420368,FEMA4ImagesEEG,001,200525,
AFNE01.JPG,AFNE01.JPG,AFNE01.JPG,AFNE01.JPG,AFNE01.JPG,AFNE01.JPG,3,1,31,4,,,,,,,,,,,,,,,,,,,,,,,AFNE12.jpg,AFSA12.jpg,AFNE06.jpg,AFSA17.jpg,AFSA12.jpg,FS,4,num_6,32,num_2,0.633474790491,,,2017_Jun_06_1045,60.0086420368,FEMA4ImagesEEG,001,200525,
AFNE01.JPG,AFNE01.JPG,AFNE01.JPG,AFNE01.JPG,AFNE01.JPG,AFNE01.JPG,3,2,32,5,,,,,,,,,,,,,,,,,,,,,,,AFNE17.jpg,AFSA01.jpg,AFNE18.jpg,AFSA15.jpg,AFNE17.jpg,FN,3,num_8,32,num_6,0.600117519032,,,2017_Jun_06_1045,60.0086420368,FEMA4ImagesEEG,001,200525,
AFNE01.JPG,AFNE01.JPG,AFNE01.JPG,AFNE01.JPG,AFNE01.JPG,AFNE01.JPG,3,3,33,7,,,,,,,,,,,,,,,,,,,,,,,AFNE18.jpg,AFNE16.jpg,AFSA03.jpg,AFSA18.jpg,AFSA03.jpg,FS,4,num_2,16,num_2,0.600131310988,,,2017_Jun_06_1045,60.0086420368,FEMA4ImagesEEG,001,200525,
AFNE01.JPG,AFNE01.JPG,AFNE01.JPG,AFNE01.JPG,AFNE01.JPG,AFNE01.JPG,3,4,34,3,,,,,,,,,,,,,,,,,,,,,,,AFNE04.jpg,AFNE01.jpg,AFSA07.jpg,AFSA08.jpg,AFNE01.jpg,FN,3,num_6,16,num_6,0.350211736513,,,2017_Jun_06_1045,60.0086420368,FEMA4ImagesEEG,001,200525,
AFNE01.JPG,AFNE01.JPG,AFNE01.JPG,AFNE01.JPG,AFNE01.JPG,AFNE01.JPG,3,5,35,2,,,,,,,,,,,,,,,,,,,,,,,AFSA08.jpg,AFNE09.jpg,AFNE01.jpg,AFSA01.jpg,AFSA01.jpg,FS,4,num_4,16,num_4,0.300159632228,,,2017_Jun_06_1045,60.0086420368,FEMA4ImagesEEG,001,200525,
AFNE01.JPG,AFNE01.JPG,AFNE01.JPG,AFNE01.JPG,AFNE01.JPG,AFNE01.JPG,3,6,36,9,,,,,,,,,,,,,,,,,,,,,,,AFSA18.jpg,AFSA03.jpg,AFNE15.jpg,AFNE12.jpg,AFSA18.jpg,FS,4,num_8,32,num_4,0.583529492607,,,2017_Jun_06_1045,60.0086420368,FEMA4ImagesEEG,001,200525,
AFNE01.JPG,AFNE01.JPG,AFNE01.JPG,AFNE01.JPG,AFNE01.JPG,AFNE01.JPG,3,7,37,6,,,,,,,,,,,,,,,,,,,,,,,AFSA13.jpg,AFSA18.jpg,AFNE10.jpg,AFNE04.jpg,AFSA13.jpg,FS,4,num_8,32,num_6,0.650143322535,,,2017_Jun_06_1045,60.0086420368,FEMA4ImagesEEG,001,200525,
AFNE01.JPG,AFNE01.JPG,AFNE01.JPG,AFNE01.JPG,AFNE01.JPG,AFNE01.JPG,3,8,38,1,,,,,,,,,,,,,,,,,,,,,,,AFNE12.jpg,AFNE07.jpg,AFSA19.jpg,AFSA05.jpg,AFSA05.jpg,FS,4,num_4,16,num_4,0.533614665037,,,2017_Jun_06_1045,60.0086420368,FEMA4ImagesEEG,001,200525,
AFNE01.JPG,AFNE01.JPG,AFNE01.JPG,AFNE01.JPG,AFNE01.JPG,AFNE01.JPG,3,9,39,8,,,,,,,,,,,,,,,,,,,,,,,AFSA02.jpg,AFSA19.jpg,AFNE06.jpg,AFNE05.jpg,AFSA02.jpg,FS,4,num_8,32,num_6,0.700112355174,,,2017_Jun_06_1045,60.0086420368,FEMA4ImagesEEG,001,200525,
AFNE01.JPG,AFNE01.JPG,AFNE01.JPG,AFNE01.JPG,AFNE01.JPG,AFNE01.JPG,4,0,40,2,,,,,,,,,,,,,,,,,,,,,,,AFSA19.jpg,AFNE11.jpg,AFNE08.jpg,AFSA18.jpg,AFNE11.jpg,FN,3,num_6,32,num_4,0.583511851961,,,2017_Jun_06_1045,60.0086420368,FEMA4ImagesEEG,001,200525,
AFNE01.JPG,AFNE01.JPG,AFNE01.JPG,AFNE01.JPG,AFNE01.JPG,AFNE01.JPG,4,1,41,3,,,,,,,,,,,,,,,,,,,,,,,AFNE16.jpg,AFSA03.jpg,AFSA06.jpg,AFNE08.jpg,AFSA06.jpg,FS,4,num_2,32,num_6,0.300184008665,,,2017_Jun_06_1045,60.0086420368,FEMA4ImagesEEG,001,200525,
AFNE01.JPG,AFNE01.JPG,AFNE01.JPG,AFNE01.JPG,AFNE01.JPG,AFNE01.JPG,4,2,42,1,,,,,,,,,,,,,,,,,,,,,,,AFNE06.jpg,AFSA03.jpg,AFSA12.jpg,AFNE15.jpg,AFSA12.jpg,FS,4,num_2,32,num_4,0.683484236244,,,2017_Jun_06_1045,60.0086420368,FEMA4ImagesEEG,001,200525,
AFNE01.JPG,AFNE01.JPG,AFNE01.JPG,AFNE01.JPG,AFNE01.JPG,AFNE01.JPG,4,3,43,5,,,,,,,,,,,,,,,,,,,,,,,AFSA11.jpg,AFSA10.jpg,AFNE16.jpg,AFNE05.jpg,AFNE05.jpg,FN,3,num_4,32,num_2,0.600139329443,,,2017_Jun_06_1045,60.0086420368,FEMA4ImagesEEG,001,200525,
AFNE01.JPG,AFNE01.JPG,AFNE01.JPG,AFNE01.JPG,AFNE01.JPG,AFNE01.JPG,4,4,44,9,,,,,,,,,,,,,,,,,,,,,,,AFNE11.jpg,AFSA16.jpg,AFNE15.jpg,AFSA02.jpg,AFSA02.jpg,FS,4,num_4,32,num_6,0.233508275589,,,2017_Jun_06_1045,60.0086420368,FEMA4ImagesEEG,001,200525,
AFNE01.JPG,AFNE01.JPG,AFNE01.JPG,AFNE01.JPG,AFNE01.JPG,AFNE01.JPG,4,5,45,8,,,,,,,,,,,,,,,,,,,,,,,AFNE07.jpg,AFSA10.jpg,AFSA11.jpg,AFNE10.jpg,AFSA10.jpg,FS,4,num_6,32,num_8,0.38350453903,,,2017_Jun_06_1045,60.0086420368,FEMA4ImagesEEG,001,200525,
AFNE01.JPG,AFNE01.JPG,AFNE01.JPG,AFNE01.JPG,AFNE01.JPG,AFNE01.JPG,4,6,46,0,,,,,,,,,,,,,,,,,,,,,,,AFSA20.jpg,AFSA09.jpg,AFNE16.jpg,AFNE11.jpg,AFSA20.jpg,FS,4,num_8,32,num_4,0.250267897965,,,2017_Jun_06_1045,60.0086420368,FEMA4ImagesEEG,001,200525,
AFNE01.JPG,AFNE01.JPG,AFNE01.JPG,AFNE01.JPG,AFNE01.JPG,AFNE01.JPG,4,7,47,4,,,,,,,,,,,,,,,,,,,,,,,AFNE16.jpg,AFSA12.jpg,AFNE03.jpg,AFSA04.jpg,AFNE03.jpg,FN,3,num_2,32,num_6,0.200139136985,,,2017_Jun_06_1045,60.0086420368,FEMA4ImagesEEG,001,200525,
AFNE01.JPG,AFNE01.JPG,AFNE01.JPG,AFNE01.JPG,AFNE01.JPG,AFNE01.JPG,4,8,48,7,,,,,,,,,,,,,,,,,,,,,,,AFNE19.jpg,AFSA13.jpg,AFSA20.jpg,AFNE16.jpg,AFSA20.jpg,FS,4,num_2,16,num_2,0.750154837035,,,2017_Jun_06_1045,60.0086420368,FEMA4ImagesEEG,001,200525,
AFNE01.JPG,AFNE01.JPG,AFNE01.JPG,AFNE01.JPG,AFNE01.JPG,AFNE01.JPG,4,9,49,6,,,,,,,,,,,,,,,,,,,,,,,AFSA03.jpg,AFSA09.jpg,AFNE11.jpg,AFNE20.jpg,AFSA03.jpg,FS,4,num_8,32,num_6,0.250147941289,,,2017_Jun_06_1045,60.0086420368,FEMA4ImagesEEG,001,200525,
AFNE01.JPG,AFNE01.JPG,AFNE01.JPG,AFNE01.JPG,AFNE01.JPG,AFNE01.JPG,5,0,50,1,,,,,,,,,,,,,,,,,,,,,,,AFSA19.jpg,AFNE06.jpg,AFNE04.jpg,AFSA17.jpg,AFSA17.jpg,FS,4,num_4,16,num_4,0.683430031175,,,2017_Jun_06_1045,60.0086420368,FEMA4ImagesEEG,001,200525,
AFNE01.JPG,AFNE01.JPG,AFNE01.JPG,AFNE01.JPG,AFNE01.JPG,AFNE01.JPG,5,1,51,3,,,,,,,,,,,,,,,,,,,,,,,AFNE06.jpg,AFSA11.jpg,AFSA12.jpg,AFNE17.jpg,AFNE17.jpg,FN,3,num_4,32,num_6,0.58357086801,,,2017_Jun_06_1045,60.0086420368,FEMA4ImagesEEG,001,200525,
AFNE01.JPG,AFNE01.JPG,AFNE01.JPG,AFNE01.JPG,AFNE01.JPG,AFNE01.JPG,5,2,52,6,,,,,,,,,,,,,,,,,,,,,,,AFNE10.jpg,AFSA15.jpg,AFNE15.jpg,AFSA09.jpg,AFSA09.jpg,FS,4,num_4,16,num_4,0.700149240438,,,2017_Jun_06_1045,60.0086420368,FEMA4ImagesEEG,001,200525,
AFNE01.JPG,AFNE01.JPG,AFNE01.JPG,AFNE01.JPG,AFNE01.JPG,AFNE01.JPG,5,3,53,0,,,,,,,,,,,,,,,,,,,,,,,AFSA16.jpg,AFNE05.jpg,AFSA02.jpg,AFNE09.jpg,AFNE09.jpg,FN,3,num_4,16,num_4,0.450175140053,,,2017_Jun_06_1045,60.0086420368,FEMA4ImagesEEG,001,200525,
AFNE01.JPG,AFNE01.JPG,AFNE01.JPG,AFNE01.JPG,AFNE01.JPG,AFNE01.JPG,5,4,54,9,,,,,,,,,,,,,,,,,,,,,,,AFSA04.jpg,AFNE03.jpg,AFNE17.jpg,AFSA15.jpg,AFSA15.jpg,FS,4,num_4,16,num_4,0.400142280152,,,2017_Jun_06_1045,60.0086420368,FEMA4ImagesEEG,001,200525,
AFNE01.JPG,AFNE01.JPG,AFNE01.JPG,AFNE01.JPG,AFNE01.JPG,AFNE01.JPG,5,5,55,4,,,,,,,,,,,,,,,,,,,,,,,AFSA01.jpg,AFNE15.jpg,AFNE04.jpg,AFSA04.jpg,AFNE04.jpg,FN,3,num_2,32,num_4,0.633498845622,,,2017_Jun_06_1045,60.0086420368,FEMA4ImagesEEG,001,200525,
AFNE01.JPG,AFNE01.JPG,AFNE01.JPG,AFNE01.JPG,AFNE01.JPG,AFNE01.JPG,5,6,56,2,,,,,,,,,,,,,,,,,,,,,,,AFSA11.jpg,AFNE19.jpg,AFNE07.jpg,AFSA16.jpg,AFSA11.jpg,FS,4,num_8,32,num_2,0.43319773511,,,2017_Jun_06_1045,60.0086420368,FEMA4ImagesEEG,001,200525,
AFNE01.JPG,AFNE01.JPG,AFNE01.JPG,AFNE01.JPG,AFNE01.JPG,AFNE01.JPG,5,7,57,5,,,,,,,,,,,,,,,,,,,,,,,AFNE15.jpg,AFSA01.jpg,AFNE07.jpg,AFSA16.jpg,AFNE07.jpg,FN,3,num_2,32,num_8,0.550162919797,,,2017_Jun_06_1045,60.0086420368,FEMA4ImagesEEG,001,200525,
AFNE01.JPG,AFNE01.JPG,AFNE01.JPG,AFNE01.JPG,AFNE01.JPG,AFNE01.JPG,5,8,58,7,,,,,,,,,,,,,,,,,,,,,,,AFNE12.jpg,AFSA09.jpg,AFSA20.jpg,AFNE17.jpg,AFNE17.jpg,FN,3,num_4,16,num_4,0.366842100862,,,2017_Jun_06_1045,60.0086420368,FEMA4ImagesEEG,001,200525,
AFNE01.JPG,AFNE01.JPG,AFNE01.JPG,AFNE01.JPG,AFNE01.JPG,AFNE01.JPG,5,9,59,8,,,,,,,,,,,,,,,,,,,,,,,AFNE17.jpg,AFSA17.jpg,AFSA20.jpg,AFNE10.jpg,AFNE10.jpg,FN,3,num_4,32,num_6,0.350149192382,,,2017_Jun_06_1045,60.0086420368,FEMA4ImagesEEG,001,200525,
,,,,,,,,,,,,,,,,,,,,,,,,,,,,,,,,,,,,,,,,,,,space,1.80037565064,2017_Jun_06_1045,60.0086420368,FEMA4ImagesEEG,001,200525,
AFNE01.JPG,AFNE01.JPG,AFNE01.JPG,AFNE01.JPG,AFNE01.JPG,AFNE01.JPG,,,,,0,0,0,6,,,,,,,,,,,,,,,,,,,AMSA18.jpg,AMSA05.jpg,AMNE04.jpg,AMNE17.jpg,AMNE17.jpg,MN,1,num_4,16,num_4,0.616798880976,,,2017_Jun_06_1045,60.0086420368,FEMA4ImagesEEG,001,200525,
AFNE01.JPG,AFNE01.JPG,AFNE01.JPG,AFNE01.JPG,AFNE01.JPG,AFNE01.JPG,,,,,0,1,1,4,,,,,,,,,,,,,,,,,,,AMNE03.jpg,AMSA17.jpg,AMNE13.jpg,AMSA06.jpg,AMSA17.jpg,MS,2,num_6,32,num_4,1.13342748117,,,2017_Jun_06_1045,60.0086420368,FEMA4ImagesEEG,001,200525,
AFNE01.JPG,AFNE01.JPG,AFNE01.JPG,AFNE01.JPG,AFNE01.JPG,AFNE01.JPG,,,,,0,2,2,5,,,,,,,,,,,,,,,,,,,AMSA07.jpg,AMSA11.jpg,AMNE13.jpg,AMNE16.jpg,AMNE16.jpg,MN,1,num_4,32,num_2,0.850099958479,,,2017_Jun_06_1045,60.0086420368,FEMA4ImagesEEG,001,200525,
AFNE01.JPG,AFNE01.JPG,AFNE01.JPG,AFNE01.JPG,AFNE01.JPG,AFNE01.JPG,,,,,0,3,3,3,,,,,,,,,,,,,,,,,,,AMNE16.jpg,AMSA19.jpg,AMSA16.jpg,AMNE18.jpg,AMNE16.jpg,MN,1,num_8,16,num_8,1.5500278885,,,2017_Jun_06_1045,60.0086420368,FEMA4ImagesEEG,001,200525,
AFNE01.JPG,AFNE01.JPG,AFNE01.JPG,AFNE01.JPG,AFNE01.JPG,AFNE01.JPG,,,,,0,4,4,0,,,,,,,,,,,,,,,,,,,AMNE10.jpg,AMSA17.jpg,AMNE12.jpg,AMSA09.jpg,AMSA17.jpg,MS,2,num_6,32,num_4,0.566817980958,,,2017_Jun_06_1045,60.0086420368,FEMA4ImagesEEG,001,200525,
AFNE01.JPG,AFNE01.JPG,AFNE01.JPG,AFNE01.JPG,AFNE01.JPG,AFNE01.JPG,,,,,0,5,5,8,,,,,,,,,,,,,,,,,,,AMSA03.jpg,AMNE05.jpg,AMNE07.jpg,AMSA17.jpg,AMNE05.jpg,MN,1,num_6,16,num_6,1.13346532849,,,2017_Jun_06_1045,60.0086420368,FEMA4ImagesEEG,001,200525,
AFNE01.JPG,AFNE01.JPG,AFNE01.JPG,AFNE01.JPG,AFNE01.JPG,AFNE01.JPG,,,,,0,6,6,1,,,,,,,,,,,,,,,,,,,AMNE18.jpg,AMNE08.jpg,AMSA11.jpg,AMSA15.jpg,AMNE18.jpg,MN,1,num_8,16,num_8,0.900099140825,,,2017_Jun_06_1045,60.0086420368,FEMA4ImagesEEG,001,200525,
AFNE01.JPG,AFNE01.JPG,AFNE01.JPG,AFNE01.JPG,AFNE01.JPG,AFNE01.JPG,,,,,0,7,7,7,,,,,,,,,,,,,,,,,,,AMSA10.jpg,AMNE15.jpg,AMNE13.jpg,AMSA06.jpg,AMNE13.jpg,MN,1,num_2,16,num_2,0.683472368633,,,2017_Jun_06_1045,60.0086420368,FEMA4ImagesEEG,001,200525,
AFNE01.JPG,AFNE01.JPG,AFNE01.JPG,AFNE01.JPG,AFNE01.JPG,AFNE01.JPG,,,,,0,8,8,2,,,,,,,,,,,,,,,,,,,AMSA12.jpg,AMNE17.jpg,AMNE10.jpg,AMSA09.jpg,AMNE10.jpg,MN,1,num_2,32,num_4,0.533437295817,,,2017_Jun_06_1045,60.0086420368,FEMA4ImagesEEG,001,200525,
AFNE01.JPG,AFNE01.JPG,AFNE01.JPG,AFNE01.JPG,AFNE01.JPG,AFNE01.JPG,,,,,0,9,9,9,,,,,,,,,,,,,,,,,,,AMNE17.jpg,AMNE06.jpg,AMSA06.jpg,AMSA05.jpg,AMSA06.jpg,MS,2,num_2,16,num_2,0.866780678974,,,2017_Jun_06_1045,60.0086420368,FEMA4ImagesEEG,001,200525,
AFNE01.JPG,AFNE01.JPG,AFNE01.JPG,AFNE01.JPG,AFNE01.JPG,AFNE01.JPG,,,,,1,0,10,7,,,,,,,,,,,,,,,,,,,AMSA01.jpg,AMNE08.jpg,AMNE05.jpg,AMSA15.jpg,AMNE05.jpg,MN,1,num_2,32,num_8,0.666646353202,,,2017_Jun_06_1045,60.0086420368,FEMA4ImagesEEG,001,200525,
AFNE01.JPG,AFNE01.JPG,AFNE01.JPG,AFNE01.JPG,AFNE01.JPG,AFNE01.JPG,,,,,1,1,11,9,,,,,,,,,,,,,,,,,,,AMSA12.jpg,AMNE15.jpg,AMSA15.jpg,AMNE06.jpg,AMNE06.jpg,MN,1,num_4,32,num_6,0.66665180563,,,2017_Jun_06_1045,60.0086420368,FEMA4ImagesEEG,001,200525,
AFNE01.JPG,AFNE01.JPG,AFNE01.JPG,AFNE01.JPG,AFNE01.JPG,AFNE01.JPG,,,,,1,2,12,5,,,,,,,,,,,,,,,,,,,AMNE08.jpg,AMSA01.jpg,AMNE09.jpg,AMSA03.jpg,AMSA01.jpg,MS,2,num_6,32,num_4,0.683512461139,,,2017_Jun_06_1045,60.0086420368,FEMA4ImagesEEG,001,200525,
AFNE01.JPG,AFNE01.JPG,AFNE01.JPG,AFNE01.JPG,AFNE01.JPG,AFNE01.JPG,,,,,1,3,13,6,,,,,,,,,,,,,,,,,,,AMNE05.jpg,AMSA19.jpg,AMSA05.jpg,AMNE12.jpg,AMSA19.jpg,MS,2,num_6,16,num_6,1.00016133231,,,2017_Jun_06_1045,60.0086420368,FEMA4ImagesEEG,001,200525,
AFNE01.JPG,AFNE01.JPG,AFNE01.JPG,AFNE01.JPG,AFNE01.JPG,AFNE01.JPG,,,,,1,4,14,2,,,,,,,,,,,,,,,,,,,AMSA14.jpg,AMNE16.jpg,AMNE01.jpg,AMSA15.jpg,AMSA15.jpg,MS,2,num_4,16,num_4,0.750115065603,,,2017_Jun_06_1045,60.0086420368,FEMA4ImagesEEG,001,200525,
AFNE01.JPG,AFNE01.JPG,AFNE01.JPG,AFNE01.JPG,AFNE01.JPG,AFNE01.JPG,,,,,1,5,15,8,,,,,,,,,,,,,,,,,,,AMSA11.jpg,AMNE02.jpg,AMNE10.jpg,AMSA03.jpg,AMNE10.jpg,MN,1,num_2,32,num_6,0.983437311836,,,2017_Jun_06_1045,60.0086420368,FEMA4ImagesEEG,001,200525,
AFNE01.JPG,AFNE01.JPG,AFNE01.JPG,AFNE01.JPG,AFNE01.JPG,AFNE01.JPG,,,,,1,6,16,3,,,,,,,,,,,,,,,,,,,AMSA06.jpg,AMSA10.jpg,AMNE18.jpg,AMNE14.jpg,AMNE14.jpg,MN,1,num_4,32,num_2,0.833509686869,,,2017_Jun_06_1045,60.0086420368,FEMA4ImagesEEG,001,200525,
AFNE01.JPG,AFNE01.JPG,AFNE01.JPG,AFNE01.JPG,AFNE01.JPG,AFNE01.JPG,,,,,1,7,17,1,,,,,,,,,,,,,,,,,,,AMNE11.jpg,AMSA13.jpg,AMSA09.jpg,AMNE04.jpg,AMSA09.jpg,MS,2,num_2,16,num_2,0.483457678929,,,2017_Jun_06_1045,60.0086420368,FEMA4ImagesEEG,001,200525,
AFNE01.JPG,AFNE01.JPG,AFNE01.JPG,AFNE01.JPG,AFNE01.JPG,AFNE01.JPG,,,,,1,8,18,0,,,,,,,,,,,,,,,,,,,AMSA10.jpg,AMSA11.jpg,AMNE15.jpg,AMNE14.jpg,AMSA10.jpg,MS,2,num_8,32,num_6,0.76680893614,,,2017_Jun_06_1045,60.0086420368,FEMA4ImagesEEG,001,200525,
AFNE01.JPG,AFNE01.JPG,AFNE01.JPG,AFNE01.JPG,AFNE01.JPG,AFNE01.JPG,,,,,1,9,19,4,,,,,,,,,,,,,,,,,,,AMNE13.jpg,AMNE14.jpg,AMSA02.jpg,AMSA09.jpg,AMNE14.jpg,MN,1,num_6,32,num_4,0.683447671821,,,2017_Jun_06_1045,60.0086420368,FEMA4ImagesEEG,001,200525,
AFNE01.JPG,AFNE01.JPG,AFNE01.JPG,AFNE01.JPG,AFNE01.JPG,AFNE01.JPG,,,,,2,0,20,2,,,,,,,,,,,,,,,,,,,AMSA17.jpg,AMSA14.jpg,AMNE07.jpg,AMNE12.jpg,AMNE12.jpg,MN,1,num_4,32,num_6,0.483449981082,,,2017_Jun_06_1045,60.0086420368,FEMA4ImagesEEG,001,200525,
AFNE01.JPG,AFNE01.JPG,AFNE01.JPG,AFNE01.JPG,AFNE01.JPG,AFNE01.JPG,,,,,2,1,21,9,,,,,,,,,,,,,,,,,,,AMSA02.jpg,AMNE10.jpg,AMNE09.jpg,AMSA19.jpg,AMSA02.jpg,MS,2,num_8,32,num_4,0.566795208491,,,2017_Jun_06_1045,60.0086420368,FEMA4ImagesEEG,001,200525,
AFNE01.JPG,AFNE01.JPG,AFNE01.JPG,AFNE01.JPG,AFNE01.JPG,AFNE01.JPG,,,,,2,2,22,3,,,,,,,,,,,,,,,,,,,AMNE20.jpg,AMSA09.jpg,AMSA13.jpg,AMNE01.jpg,AMNE20.jpg,MN,1,num_8,32,num_2,0.983441802207,,,2017_Jun_06_1045,60.0086420368,FEMA4ImagesEEG,001,200525,
AFNE01.JPG,AFNE01.JPG,AFNE01.JPG,AFNE01.JPG,AFNE01.JPG,AFNE01.JPG,,,,,2,3,23,1,,,,,,,,,,,,,,,,,,,AMNE02.jpg,AMSA11.jpg,AMSA02.jpg,AMNE05.jpg,AMNE05.jpg,MN,1,num_4,16,num_4,0.833469273522,,,2017_Jun_06_1045,60.0086420368,FEMA4ImagesEEG,001,200525,
AFNE01.JPG,AFNE01.JPG,AFNE01.JPG,AFNE01.JPG,AFNE01.JPG,AFNE01.JPG,,,,,2,4,24,6,,,,,,,,,,,,,,,,,,,AMNE11.jpg,AMSA09.jpg,AMNE19.jpg,AMSA19.jpg,AMSA19.jpg,MS,2,num_4,32,num_2,0.400155430427,,,2017_Jun_06_1045,60.0086420368,FEMA4ImagesEEG,001,200525,
AFNE01.JPG,AFNE01.JPG,AFNE01.JPG,AFNE01.JPG,AFNE01.JPG,AFNE01.JPG,,,,,2,5,25,7,,,,,,,,,,,,,,,,,,,AMSA14.jpg,AMSA07.jpg,AMNE10.jpg,AMNE05.jpg,AMNE05.jpg,MN,1,num_4,16,num_4,0.68345986004,,,2017_Jun_06_1045,60.0086420368,FEMA4ImagesEEG,001,200525,
AFNE01.JPG,AFNE01.JPG,AFNE01.JPG,AFNE01.JPG,AFNE01.JPG,AFNE01.JPG,,,,,2,6,26,0,,,,,,,,,,,,,,,,,,,AMNE11.jpg,AMSA16.jpg,AMSA19.jpg,AMNE17.jpg,AMNE11.jpg,MN,1,num_8,32,num_6,0.800097248284,,,2017_Jun_06_1045,60.0086420368,FEMA4ImagesEEG,001,200525,
AFNE01.JPG,AFNE01.JPG,AFNE01.JPG,AFNE01.JPG,AFNE01.JPG,AFNE01.JPG,,,,,2,7,27,8,,,,,,,,,,,,,,,,,,,AMNE09.jpg,AMSA20.jpg,AMNE06.jpg,AMSA17.jpg,AMNE09.jpg,MN,1,num_8,32,num_4,0.516813667025,,,2017_Jun_06_1045,60.0086420368,FEMA4ImagesEEG,001,200525,
AFNE01.JPG,AFNE01.JPG,AFNE01.JPG,AFNE01.JPG,AFNE01.JPG,AFNE01.JPG,,,,,2,8,28,5,,,,,,,,,,,,,,,,,,,AMNE07.jpg,AMSA13.jpg,AMNE06.jpg,AMSA10.jpg,AMNE06.jpg,MN,1,num_2,16,num_2,0.683485519141,,,2017_Jun_06_1045,60.0086420368,FEMA4ImagesEEG,001,200525,
AFNE01.JPG,AFNE01.JPG,AFNE01.JPG,AFNE01.JPG,AFNE01.JPG,AFNE01.JPG,,,,,2,9,29,4,,,,,,,,,,,,,,,,,,,AMSA17.jpg,AMNE19.jpg,AMNE04.jpg,AMSA08.jpg,AMNE19.jpg,MN,1,num_6,32,num_4,0.400153506082,,,2017_Jun_06_1045,60.0086420368,FEMA4ImagesEEG,001,200525,
AFNE01.JPG,AFNE01.JPG,AFNE01.JPG,AFNE01.JPG,AFNE01.JPG,AFNE01.JPG,,,,,3,0,30,1,,,,,,,,,,,,,,,,,,,AMNE01.jpg,AMNE04.jpg,AMSA01.jpg,AMSA09.jpg,AMSA09.jpg,MS,2,num_4,32,num_6,0.483460244723,,,2017_Jun_06_1045,60.0086420368,FEMA4ImagesEEG,001,200525,
AFNE01.JPG,AFNE01.JPG,AFNE01.JPG,AFNE01.JPG,AFNE01.JPG,AFNE01.JPG,,,,,3,1,31,4,,,,,,,,,,,,,,,,,,,AMSA12.jpg,AMSA08.jpg,AMNE13.jpg,AMNE04.jpg,AMSA08.jpg,MS,2,num_6,32,num_4,0.466495990288,,,2017_Jun_06_1045,60.0086420368,FEMA4ImagesEEG,001,200525,
AFNE01.JPG,AFNE01.JPG,AFNE01.JPG,AFNE01.JPG,AFNE01.JPG,AFNE01.JPG,,,,,3,2,32,0,,,,,,,,,,,,,,,,,,,AMNE02.jpg,AMNE20.jpg,AMSA07.jpg,AMSA17.jpg,AMSA07.jpg,MS,2,num_2,32,num_4,0.633483129786,,,2017_Jun_06_1045,60.0086420368,FEMA4ImagesEEG,001,200525,
AFNE01.JPG,AFNE01.JPG,AFNE01.JPG,AFNE01.JPG,AFNE01.JPG,AFNE01.JPG,,,,,3,3,33,3,,,,,,,,,,,,,,,,,,,AMSA12.jpg,AMNE16.jpg,AMSA19.jpg,AMNE14.jpg,AMNE14.jpg,MN,1,num_4,32,num_6,0.316798977321,,,2017_Jun_06_1045,60.0086420368,FEMA4ImagesEEG,001,200525,
AFNE01.JPG,AFNE01.JPG,AFNE01.JPG,AFNE01.JPG,AFNE01.JPG,AFNE01.JPG,,,,,3,4,34,2,,,,,,,,,,,,,,,,,,,AMSA13.jpg,AMNE17.jpg,AMNE14.jpg,AMSA05.jpg,AMNE17.jpg,MN,1,num_6,32,num_4,0.800224902807,,,2017_Jun_06_1045,60.0086420368,FEMA4ImagesEEG,001,200525,
AFNE01.JPG,AFNE01.JPG,AFNE01.JPG,AFNE01.JPG,AFNE01.JPG,AFNE01.JPG,,,,,3,5,35,8,,,,,,,,,,,,,,,,,,,AMSA12.jpg,AMNE02.jpg,AMSA17.jpg,AMNE05.jpg,AMNE05.jpg,MN,1,num_4,32,num_6,0.450150443241,,,2017_Jun_06_1045,60.0086420368,FEMA4ImagesEEG,001,200525,
AFNE01.JPG,AFNE01.JPG,AFNE01.JPG,AFNE01.JPG,AFNE01.JPG,AFNE01.JPG,,,,,3,6,36,6,,,,,,,,,,,,,,,,,,,AMSA16.jpg,AMNE13.jpg,AMSA12.jpg,AMNE18.jpg,AMSA16.jpg,MS,2,num_8,32,num_4,0.283468968933,,,2017_Jun_06_1045,60.0086420368,FEMA4ImagesEEG,001,200525,
AFNE01.JPG,AFNE01.JPG,AFNE01.JPG,AFNE01.JPG,AFNE01.JPG,AFNE01.JPG,,,,,3,7,37,7,,,,,,,,,,,,,,,,,,,AMSA06.jpg,AMNE09.jpg,AMSA14.jpg,AMNE16.jpg,AMNE09.jpg,MN,1,num_6,32,num_2,0.583449628204,,,2017_Jun_06_1045,60.0086420368,FEMA4ImagesEEG,001,200525,
AFNE01.JPG,AFNE01.JPG,AFNE01.JPG,AFNE01.JPG,AFNE01.JPG,AFNE01.JPG,,,,,3,8,38,5,,,,,,,,,,,,,,,,,,,AMSA10.jpg,AMSA02.jpg,AMNE02.jpg,AMNE12.jpg,AMSA02.jpg,MS,2,num_6,32,num_8,0.666817307472,,,2017_Jun_06_1045,60.0086420368,FEMA4ImagesEEG,001,200525,
AFNE01.JPG,AFNE01.JPG,AFNE01.JPG,AFNE01.JPG,AFNE01.JPG,AFNE01.JPG,,,,,3,9,39,9,,,,,,,,,,,,,,,,,,,AMSA15.jpg,AMSA01.jpg,AMNE09.jpg,AMNE03.jpg,AMNE03.jpg,MN,1,num_4,32,num_6,0.783447639551,,,2017_Jun_06_1045,60.0086420368,FEMA4ImagesEEG,001,200525,
AFNE01.JPG,AFNE01.JPG,AFNE01.JPG,AFNE01.JPG,AFNE01.JPG,AFNE01.JPG,,,,,4,0,40,5,,,,,,,,,,,,,,,,,,,AMNE19.jpg,AMNE09.jpg,AMSA14.jpg,AMSA19.jpg,AMSA19.jpg,MS,2,num_4,32,num_2,0.766918308567,,,2017_Jun_06_1045,60.0086420368,FEMA4ImagesEEG,001,200525,
AFNE01.JPG,AFNE01.JPG,AFNE01.JPG,AFNE01.JPG,AFNE01.JPG,AFNE01.JPG,,,,,4,1,41,2,,,,,,,,,,,,,,,,,,,AMNE14.jpg,AMNE17.jpg,AMSA13.jpg,AMSA01.jpg,AMNE17.jpg,MN,1,num_6,32,num_4,0.283379803412,,,2017_Jun_06_1045,60.0086420368,FEMA4ImagesEEG,001,200525,
AFNE01.JPG,AFNE01.JPG,AFNE01.JPG,AFNE01.JPG,AFNE01.JPG,AFNE01.JPG,,,,,4,2,42,9,,,,,,,,,,,,,,,,,,,AMSA09.jpg,AMNE09.jpg,AMNE18.jpg,AMSA05.jpg,AMSA05.jpg,MS,2,num_4,32,num_6,0.366803932702,,,2017_Jun_06_1045,60.0086420368,FEMA4ImagesEEG,001,200525,
AFNE01.JPG,AFNE01.JPG,AFNE01.JPG,AFNE01.JPG,AFNE01.JPG,AFNE01.JPG,,,,,4,3,43,1,,,,,,,,,,,,,,,,,,,AMSA10.jpg,AMNE09.jpg,AMSA11.jpg,AMNE04.jpg,AMSA10.jpg,MS,2,num_8,32,num_4,1.10008047358,,,2017_Jun_06_1045,60.0086420368,FEMA4ImagesEEG,001,200525,
AFNE01.JPG,AFNE01.JPG,AFNE01.JPG,AFNE01.JPG,AFNE01.JPG,AFNE01.JPG,,,,,4,4,44,6,,,,,,,,,,,,,,,,,,,AMNE18.jpg,AMNE04.jpg,AMSA20.jpg,AMSA03.jpg,AMNE04.jpg,MN,1,num_6,16,num_6,0.433494740399,,,2017_Jun_06_1045,60.0086420368,FEMA4ImagesEEG,001,200525,
AFNE01.JPG,AFNE01.JPG,AFNE01.JPG,AFNE01.JPG,AFNE01.JPG,AFNE01.JPG,,,,,4,5,45,8,,,,,,,,,,,,,,,,,,,AMNE14.jpg,AMNE03.jpg,AMSA18.jpg,AMSA05.jpg,AMNE03.jpg,MN,1,num_6,32,num_8,0.616923328256,,,2017_Jun_06_1045,60.0086420368,FEMA4ImagesEEG,001,200525,
AFNE01.JPG,AFNE01.JPG,AFNE01.JPG,AFNE01.JPG,AFNE01.JPG,AFNE01.JPG,,,,,4,6,46,4,,,,,,,,,,,,,,,,,,,AMSA02.jpg,AMNE05.jpg,AMNE12.jpg,AMSA01.jpg,AMSA02.jpg,MS,2,num_8,32,num_4,0.667122331215,,,2017_Jun_06_1045,60.0086420368,FEMA4ImagesEEG,001,200525,
AFNE01.JPG,AFNE01.JPG,AFNE01.JPG,AFNE01.JPG,AFNE01.JPG,AFNE01.JPG,,,,,4,7,47,0,,,,,,,,,,,,,,,,,,,AMNE16.jpg,AMSA20.jpg,AMSA06.jpg,AMNE04.jpg,AMSA06.jpg,MS,2,num_2,16,num_2,1.98338246532,,,2017_Jun_06_1045,60.0086420368,FEMA4ImagesEEG,001,200525,
AFNE01.JPG,AFNE01.JPG,AFNE01.JPG,AFNE01.JPG,AFNE01.JPG,AFNE01.JPG,,,,,4,8,48,7,,,,,,,,,,,,,,,,,,,AMSA07.jpg,AMSA20.jpg,AMNE11.jpg,AMNE04.jpg,AMNE11.jpg,MN,1,num_2,32,num_8,0.750129177934,,,2017_Jun_06_1045,60.0086420368,FEMA4ImagesEEG,001,200525,
AFNE01.JPG,AFNE01.JPG,AFNE01.JPG,AFNE01.JPG,AFNE01.JPG,AFNE01.JPG,,,,,4,9,49,3,,,,,,,,,,,,,,,,,,,AMSA01.jpg,AMNE03.jpg,AMNE05.jpg,AMSA18.jpg,AMSA01.jpg,MS,2,num_8,32,num_4,0.566799378255,,,2017_Jun_06_1045,60.0086420368,FEMA4ImagesEEG,001,200525,
AFNE01.JPG,AFNE01.JPG,AFNE01.JPG,AFNE01.JPG,AFNE01.JPG,AFNE01.JPG,,,,,5,0,50,2,,,,,,,,,,,,,,,,,,,AMNE13.jpg,AMSA09.jpg,AMNE19.jpg,AMSA01.jpg,AMSA01.jpg,MS,2,num_4,16,num_4,0.750122442376,,,2017_Jun_06_1045,60.0086420368,FEMA4ImagesEEG,001,200525,
AFNE01.JPG,AFNE01.JPG,AFNE01.JPG,AFNE01.JPG,AFNE01.JPG,AFNE01.JPG,,,,,5,1,51,7,,,,,,,,,,,,,,,,,,,AMNE20.jpg,AMSA09.jpg,AMNE13.jpg,AMSA02.jpg,AMSA02.jpg,MS,2,num_4,16,num_4,0.416811774718,,,2017_Jun_06_1045,60.0086420368,FEMA4ImagesEEG,001,200525,
AFNE01.JPG,AFNE01.JPG,AFNE01.JPG,AFNE01.JPG,AFNE01.JPG,AFNE01.JPG,,,,,5,2,52,3,,,,,,,,,,,,,,,,,,,AMSA16.jpg,AMNE16.jpg,AMNE07.jpg,AMSA11.jpg,AMSA16.jpg,MS,2,num_8,32,num_6,0.700156617211,,,2017_Jun_06_1045,60.0086420368,FEMA4ImagesEEG,001,200525,
AFNE01.JPG,AFNE01.JPG,AFNE01.JPG,AFNE01.JPG,AFNE01.JPG,AFNE01.JPG,,,,,5,3,53,8,,,,,,,,,,,,,,,,,,,AMSA20.jpg,AMNE14.jpg,AMNE13.jpg,AMSA04.jpg,AMSA20.jpg,MS,2,num_8,32,num_4,0.633423472056,,,2017_Jun_06_1045,60.0086420368,FEMA4ImagesEEG,001,200525,
AFNE01.JPG,AFNE01.JPG,AFNE01.JPG,AFNE01.JPG,AFNE01.JPG,AFNE01.JPG,,,,,5,4,54,1,,,,,,,,,,,,,,,,,,,AMNE15.jpg,AMSA10.jpg,AMNE16.jpg,AMSA01.jpg,AMNE15.jpg,MN,1,num_8,32,num_2,1.11678140052,,,2017_Jun_06_1045,60.0086420368,FEMA4ImagesEEG,001,200525,
AFNE01.JPG,AFNE01.JPG,AFNE01.JPG,AFNE01.JPG,AFNE01.JPG,AFNE01.JPG,,,,,5,5,55,9,,,,,,,,,,,,,,,,,,,AMNE01.jpg,AMSA06.jpg,AMNE13.jpg,AMSA16.jpg,AMSA06.jpg,MS,2,num_6,32,num_8,0.383500048658,,,2017_Jun_06_1045,60.0086420368,FEMA4ImagesEEG,001,200525,
AFNE01.JPG,AFNE01.JPG,AFNE01.JPG,AFNE01.JPG,AFNE01.JPG,AFNE01.JPG,,,,,5,6,56,4,,,,,,,,,,,,,,,,,,,AMNE07.jpg,AMSA12.jpg,AMNE18.jpg,AMSA14.jpg,AMSA14.jpg,MS,2,num_4,32,num_2,0.983469706494,,,2017_Jun_06_1045,60.0086420368,FEMA4ImagesEEG,001,200525,
AFNE01.JPG,AFNE01.JPG,AFNE01.JPG,AFNE01.JPG,AFNE01.JPG,AFNE01.JPG,,,,,5,7,57,5,,,,,,,,,,,,,,,,,,,AMNE03.jpg,AMSA14.jpg,AMNE10.jpg,AMSA10.jpg,AMNE03.jpg,MN,1,num_8,32,num_2,0.933288023574,,,2017_Jun_06_1045,60.0086420368,FEMA4ImagesEEG,001,200525,
AFNE01.JPG,AFNE01.JPG,AFNE01.JPG,AFNE01.JPG,AFNE01.JPG,AFNE01.JPG,,,,,5,8,58,6,,,,,,,,,,,,,,,,,,,AMNE10.jpg,AMSA17.jpg,AMSA08.jpg,AMNE09.jpg,AMNE09.jpg,MN,1,num_4,32,num_6,0.533456219593,,,2017_Jun_06_1045,60.0086420368,FEMA4ImagesEEG,001,200525,
AFNE01.JPG,AFNE01.JPG,AFNE01.JPG,AFNE01.JPG,AFNE01.JPG,AFNE01.JPG,,,,,5,9,59,0,,,,,,,,,,,,,,,,,,,AMSA18.jpg,AMNE19.jpg,AMNE01.jpg,AMSA08.jpg,AMNE01.jpg,MN,1,num_2,32,num_4,0.68349674507,,,2017_Jun_06_1045,60.0086420368,FEMA4ImagesEEG,001,200525,
,,,,,,,,,,,,,,,,,,,,,,,,,,,,,,,,,,,,,,,,,,,space,2.19999801135,2017_Jun_06_1045,60.0086420368,FEMA4ImagesEEG,001,200525,
AFNE01.JPG,AFNE01.JPG,AFNE01.JPG,AFNE01.JPG,AFNE01.JPG,AFNE01.JPG,,,,,,,,,0,0,0,2,,,,,,,,,,,,,,,AFSA15.jpg,AFSA12.jpg,AFNE07.jpg,AFNE17.jpg,AFNE17.jpg,FN,3,num_4,32,num_2,0.750154837267,,,2017_Jun_06_1045,60.0086420368,FEMA4ImagesEEG,001,200525,
AFNE01.JPG,AFNE01.JPG,AFNE01.JPG,AFNE01.JPG,AFNE01.JPG,AFNE01.JPG,,,,,,,,,0,1,1,6,,,,,,,,,,,,,,,AFSA10.jpg,AFNE16.jpg,AFNE09.jpg,AFSA11.jpg,AFSA10.jpg,FS,4,num_8,32,num_6,0.633469658671,,,2017_Jun_06_1045,60.0086420368,FEMA4ImagesEEG,001,200525,
AFNE01.JPG,AFNE01.JPG,AFNE01.JPG,AFNE01.JPG,AFNE01.JPG,AFNE01.JPG,,,,,,,,,0,2,2,8,,,,,,,,,,,,,,,AFNE04.jpg,AFNE16.jpg,AFSA12.jpg,AFSA16.jpg,AFSA12.jpg,FS,4,num_2,16,num_2,0.716766774887,,,2017_Jun_06_1045,60.0086420368,FEMA4ImagesEEG,001,200525,
AFNE01.JPG,AFNE01.JPG,AFNE01.JPG,AFNE01.JPG,AFNE01.JPG,AFNE01.JPG,,,,,,,,,0,3,3,9,,,,,,,,,,,,,,,AFSA11.jpg,AFNE09.jpg,AFNE04.jpg,AFSA17.jpg,AFSA17.jpg,FS,4,num_4,32,num_2,0.866779075237,,,2017_Jun_06_1045,60.0086420368,FEMA4ImagesEEG,001,200525,
AFNE01.JPG,AFNE01.JPG,AFNE01.JPG,AFNE01.JPG,AFNE01.JPG,AFNE01.JPG,,,,,,,,,0,4,4,1,,,,,,,,,,,,,,,AFSA12.jpg,AFNE15.jpg,AFNE19.jpg,AFSA01.jpg,AFSA12.jpg,FS,4,num_8,16,num_8,0.616829351289,,,2017_Jun_06_1045,60.0086420368,FEMA4ImagesEEG,001,200525,
AFNE01.JPG,AFNE01.JPG,AFNE01.JPG,AFNE01.JPG,AFNE01.JPG,AFNE01.JPG,,,,,,,,,0,5,5,7,,,,,,,,,,,,,,,AFSA04.jpg,AFSA07.jpg,AFNE03.jpg,AFNE18.jpg,AFSA07.jpg,FS,4,num_6,32,num_2,1.03351571667,,,2017_Jun_06_1045,60.0086420368,FEMA4ImagesEEG,001,200525,
AFNE01.JPG,AFNE01.JPG,AFNE01.JPG,AFNE01.JPG,AFNE01.JPG,AFNE01.JPG,,,,,,,,,0,6,6,5,,,,,,,,,,,,,,,AFSA18.jpg,AFNE11.jpg,AFSA02.jpg,AFNE02.jpg,AFSA18.jpg,FS,4,num_8,16,num_8,0.633374719415,,,2017_Jun_06_1045,60.0086420368,FEMA4ImagesEEG,001,200525,
AFNE01.JPG,AFNE01.JPG,AFNE01.JPG,AFNE01.JPG,AFNE01.JPG,AFNE01.JPG,,,,,,,,,0,7,7,0,,,,,,,,,,,,,,,AFSA11.jpg,AFSA01.jpg,AFNE04.jpg,AFNE06.jpg,AFSA01.jpg,FS,4,num_6,32,num_8,0.46666534082,,,2017_Jun_06_1045,60.0086420368,FEMA4ImagesEEG,001,200525,
AFNE01.JPG,AFNE01.JPG,AFNE01.JPG,AFNE01.JPG,AFNE01.JPG,AFNE01.JPG,,,,,,,,,0,8,8,4,,,,,,,,,,,,,,,AFSA03.jpg,AFNE08.jpg,AFNE05.jpg,AFSA09.jpg,AFNE08.jpg,FN,3,num_6,16,num_6,0.566775964107,,,2017_Jun_06_1045,60.0086420368,FEMA4ImagesEEG,001,200525,
AFNE01.JPG,AFNE01.JPG,AFNE01.JPG,AFNE01.JPG,AFNE01.JPG,AFNE01.JPG,,,,,,,,,0,9,9,3,,,,,,,,,,,,,,,AFNE16.jpg,AFSA05.jpg,AFSA18.jpg,AFNE14.jpg,AFNE16.jpg,FN,3,num_8,16,num_8,0.350180303911,,,2017_Jun_06_1045,60.0086420368,FEMA4ImagesEEG,001,200525,
AFNE01.JPG,AFNE01.JPG,AFNE01.JPG,AFNE01.JPG,AFNE01.JPG,AFNE01.JPG,,,,,,,,,1,0,10,6,,,,,,,,,,,,,,,AFSA18.jpg,AFNE04.jpg,AFNE20.jpg,AFSA02.jpg,AFSA18.jpg,FS,4,num_8,16,num_8,0.31679833564,,,2017_Jun_06_1045,60.0086420368,FEMA4ImagesEEG,001,200525,
AFNE01.JPG,AFNE01.JPG,AFNE01.JPG,AFNE01.JPG,AFNE01.JPG,AFNE01.JPG,,,,,,,,,1,1,11,2,,,,,,,,,,,,,,,AFSA19.jpg,AFNE12.jpg,AFSA07.jpg,AFNE09.jpg,AFSA19.jpg,FS,4,num_8,32,num_2,0.483450622531,,,2017_Jun_06_1045,60.0086420368,FEMA4ImagesEEG,001,200525,
AFNE01.JPG,AFNE01.JPG,AFNE01.JPG,AFNE01.JPG,AFNE01.JPG,AFNE01.JPG,,,,,,,,,1,2,12,3,,,,,,,,,,,,,,,AFNE07.jpg,AFNE06.jpg,AFSA08.jpg,AFSA18.jpg,AFSA08.jpg,FS,4,num_2,32,num_4,0.600152800558,,,2017_Jun_06_1045,60.0086420368,FEMA4ImagesEEG,001,200525,
AFNE01.JPG,AFNE01.JPG,AFNE01.JPG,AFNE01.JPG,AFNE01.JPG,AFNE01.JPG,,,,,,,,,1,3,13,9,,,,,,,,,,,,,,,AFNE08.jpg,AFNE13.jpg,AFSA15.jpg,AFSA17.jpg,AFSA15.jpg,FS,4,num_2,16,num_2,0.950091266539,,,2017_Jun_06_1045,60.0086420368,FEMA4ImagesEEG,001,200525,
AFNE01.JPG,AFNE01.JPG,AFNE01.JPG,AFNE01.JPG,AFNE01.JPG,AFNE01.JPG,,,,,,,,,1,4,14,4,,,,,,,,,,,,,,,AFSA18.jpg,AFSA08.jpg,AFNE16.jpg,AFNE19.jpg,AFNE19.jpg,FN,3,num_4,32,num_2,0.366939605679,,,2017_Jun_06_1045,60.0086420368,FEMA4ImagesEEG,001,200525,
AFNE01.JPG,AFNE01.JPG,AFNE01.JPG,AFNE01.JPG,AFNE01.JPG,AFNE01.JPG,,,,,,,,,1,5,15,5,,,,,,,,,,,,,,,AFNE11.jpg,AFSA01.jpg,AFSA09.jpg,AFNE10.jpg,AFNE10.jpg,FN,3,num_4,32,num_6,0.783554766793,,,2017_Jun_06_1045,60.0086420368,FEMA4ImagesEEG,001,200525,
AFNE01.JPG,AFNE01.JPG,AFNE01.JPG,AFNE01.JPG,AFNE01.JPG,AFNE01.JPG,,,,,,,,,1,6,16,7,,,,,,,,,,,,,,,AFNE02.jpg,AFNE17.jpg,AFSA02.jpg,AFSA13.jpg,AFNE02.jpg,FN,3,num_8,32,num_4,0.750102877384,,,2017_Jun_06_1045,60.0086420368,FEMA4ImagesEEG,001,200525,
AFNE01.JPG,AFNE01.JPG,AFNE01.JPG,AFNE01.JPG,AFNE01.JPG,AFNE01.JPG,,,,,,,,,1,7,17,8,,,,,,,,,,,,,,,AFNE14.jpg,AFNE02.jpg,AFSA01.jpg,AFSA11.jpg,AFNE14.jpg,FN,3,num_8,32,num_2,1.36662111082,,,2017_Jun_06_1045,60.0086420368,FEMA4ImagesEEG,001,200525,
AFNE01.JPG,AFNE01.JPG,AFNE01.JPG,AFNE01.JPG,AFNE01.JPG,AFNE01.JPG,,,,,,,,,1,8,18,1,,,,,,,,,,,,,,,AFSA04.jpg,AFNE13.jpg,AFSA19.jpg,AFNE16.jpg,AFNE16.jpg,FN,3,num_4,16,num_4,0.400142600993,,,2017_Jun_06_1045,60.0086420368,FEMA4ImagesEEG,001,200525,
AFNE01.JPG,AFNE01.JPG,AFNE01.JPG,AFNE01.JPG,AFNE01.JPG,AFNE01.JPG,,,,,,,,,1,9,19,0,,,,,,,,,,,,,,,AFSA05.jpg,AFNE05.jpg,AFNE13.jpg,AFSA12.jpg,AFNE05.jpg,FN,3,num_6,32,num_4,0.466787222074,,,2017_Jun_06_1045,60.0086420368,FEMA4ImagesEEG,001,200525,
AFNE01.JPG,AFNE01.JPG,AFNE01.JPG,AFNE01.JPG,AFNE01.JPG,AFNE01.JPG,,,,,,,,,2,0,20,6,,,,,,,,,,,,,,,AFNE13.jpg,AFSA06.jpg,AFSA11.jpg,AFNE08.jpg,AFNE13.jpg,FN,3,num_8,32,num_4,0.583534624195,,,2017_Jun_06_1045,60.0086420368,FEMA4ImagesEEG,001,200525,
AFNE01.JPG,AFNE01.JPG,AFNE01.JPG,AFNE01.JPG,AFNE01.JPG,AFNE01.JPG,,,,,,,,,2,1,21,9,,,,,,,,,,,,,,,AFNE02.jpg,AFNE18.jpg,AFSA04.jpg,AFSA06.jpg,AFNE18.jpg,FN,3,num_6,32,num_8,0.466832125792,,,2017_Jun_06_1045,60.0086420368,FEMA4ImagesEEG,001,200525,
AFNE01.JPG,AFNE01.JPG,AFNE01.JPG,AFNE01.JPG,AFNE01.JPG,AFNE01.JPG,,,,,,,,,2,2,22,4,,,,,,,,,,,,,,,AFNE05.jpg,AFNE02.jpg,AFSA08.jpg,AFSA18.jpg,AFNE05.jpg,FN,3,num_8,32,num_2,0.366841780022,,,2017_Jun_06_1045,60.0086420368,FEMA4ImagesEEG,001,200525,
AFNE01.JPG,AFNE01.JPG,AFNE01.JPG,AFNE01.JPG,AFNE01.JPG,AFNE01.JPG,,,,,,,,,2,3,23,2,,,,,,,,,,,,,,,AFSA10.jpg,AFNE20.jpg,AFSA01.jpg,AFNE06.jpg,AFSA10.jpg,FS,4,num_8,32,num_6,0.350169077981,,,2017_Jun_06_1045,60.0086420368,FEMA4ImagesEEG,001,200525,
AFNE01.JPG,AFNE01.JPG,AFNE01.JPG,AFNE01.JPG,AFNE01.JPG,AFNE01.JPG,,,,,,,,,2,4,24,7,,,,,,,,,,,,,,,AFSA10.jpg,AFNE07.jpg,AFSA08.jpg,AFNE15.jpg,AFSA08.jpg,FS,4,num_2,16,num_2,0.700177465566,,,2017_Jun_06_1045,60.0086420368,FEMA4ImagesEEG,001,200525,
AFNE01.JPG,AFNE01.JPG,AFNE01.JPG,AFNE01.JPG,AFNE01.JPG,AFNE01.JPG,,,,,,,,,2,5,25,8,,,,,,,,,,,,,,,AFNE04.jpg,AFSA13.jpg,AFNE12.jpg,AFSA08.jpg,AFNE04.jpg,FN,3,num_8,32,num_6,0.450125746196,,,2017_Jun_06_1045,60.0086420368,FEMA4ImagesEEG,001,200525,
AFNE01.JPG,AFNE01.JPG,AFNE01.JPG,AFNE01.JPG,AFNE01.JPG,AFNE01.JPG,,,,,,,,,2,6,26,0,,,,,,,,,,,,,,,AFNE20.jpg,AFSA10.jpg,AFNE15.jpg,AFSA09.jpg,AFSA10.jpg,FS,4,num_6,32,num_2,0.633544069948,,,2017_Jun_06_1045,60.0086420368,FEMA4ImagesEEG,001,200525,
AFNE01.JPG,AFNE01.JPG,AFNE01.JPG,AFNE01.JPG,AFNE01.JPG,AFNE01.JPG,,,,,,,,,2,7,27,1,,,,,,,,,,,,,,,AFNE06.jpg,AFSA14.jpg,AFNE18.jpg,AFSA01.jpg,AFSA01.jpg,FS,4,num_4,32,num_8,0.516766197747,,,2017_Jun_06_1045,60.0086420368,FEMA4ImagesEEG,001,200525,
AFNE01.JPG,AFNE01.JPG,AFNE01.JPG,AFNE01.JPG,AFNE01.JPG,AFNE01.JPG,,,,,,,,,2,8,28,3,,,,,,,,,,,,,,,AFNE04.jpg,AFSA07.jpg,AFNE18.jpg,AFSA02.jpg,AFNE18.jpg,FN,3,num_2,32,num_6,0.433463628404,,,2017_Jun_06_1045,60.0086420368,FEMA4ImagesEEG,001,200525,
AFNE01.JPG,AFNE01.JPG,AFNE01.JPG,AFNE01.JPG,AFNE01.JPG,AFNE01.JPG,,,,,,,,,2,9,29,5,,,,,,,,,,,,,,,AFSA11.jpg,AFSA06.jpg,AFNE10.jpg,AFNE01.jpg,AFSA06.jpg,FS,4,num_6,32,num_2,0.483504186152,,,2017_Jun_06_1045,60.0086420368,FEMA4ImagesEEG,001,200525,
AFNE01.JPG,AFNE01.JPG,AFNE01.JPG,AFNE01.JPG,AFNE01.JPG,AFNE01.JPG,,,,,,,,,3,0,30,7,,,,,,,,,,,,,,,AFNE18.jpg,AFSA03.jpg,AFNE09.jpg,AFSA04.jpg,AFSA04.jpg,FS,4,num_4,16,num_4,0.516667730408,,,2017_Jun_06_1045,60.0086420368,FEMA4ImagesEEG,001,200525,
AFNE01.JPG,AFNE01.JPG,AFNE01.JPG,AFNE01.JPG,AFNE01.JPG,AFNE01.JPG,,,,,,,,,3,1,31,0,,,,,,,,,,,,,,,AFSA17.jpg,AFSA07.jpg,AFNE19.jpg,AFNE02.jpg,AFNE02.jpg,FN,3,num_4,32,num_2,0.316825919319,,,2017_Jun_06_1045,60.0086420368,FEMA4ImagesEEG,001,200525,
AFNE01.JPG,AFNE01.JPG,AFNE01.JPG,AFNE01.JPG,AFNE01.JPG,AFNE01.JPG,,,,,,,,,3,2,32,3,,,,,,,,,,,,,,,AFNE14.jpg,AFSA15.jpg,AFNE20.jpg,AFSA10.jpg,AFSA15.jpg,FS,4,num_6,16,num_6,0.566739079077,,,2017_Jun_06_1045,60.0086420368,FEMA4ImagesEEG,001,200525,
AFNE01.JPG,AFNE01.JPG,AFNE01.JPG,AFNE01.JPG,AFNE01.JPG,AFNE01.JPG,,,,,,,,,3,3,33,4,,,,,,,,,,,,,,,AFSA01.jpg,AFNE02.jpg,AFNE18.jpg,AFSA07.jpg,AFNE18.jpg,FN,3,num_2,16,num_2,1.06678863335,,,2017_Jun_06_1045,60.0086420368,FEMA4ImagesEEG,001,200525,
AFNE01.JPG,AFNE01.JPG,AFNE01.JPG,AFNE01.JPG,AFNE01.JPG,AFNE01.JPG,,,,,,,,,3,4,34,6,,,,,,,,,,,,,,,AFNE13.jpg,AFNE11.jpg,AFSA08.jpg,AFSA10.jpg,AFSA10.jpg,FS,4,num_4,16,num_4,0.85011150525,,,2017_Jun_06_1045,60.0086420368,FEMA4ImagesEEG,001,200525,
AFNE01.JPG,AFNE01.JPG,AFNE01.JPG,AFNE01.JPG,AFNE01.JPG,AFNE01.JPG,,,,,,,,,3,5,35,1,,,,,,,,,,,,,,,AFSA15.jpg,AFNE10.jpg,AFNE13.jpg,AFSA11.jpg,AFNE13.jpg,FN,3,num_2,32,num_6,0.816789194709,,,2017_Jun_06_1045,60.0086420368,FEMA4ImagesEEG,001,200525,
AFNE01.JPG,AFNE01.JPG,AFNE01.JPG,AFNE01.JPG,AFNE01.JPG,AFNE01.JPG,,,,,,,,,3,6,36,9,,,,,,,,,,,,,,,AFSA14.jpg,AFSA08.jpg,AFNE20.jpg,AFNE19.jpg,AFNE20.jpg,FN,3,num_2,32,num_4,0.366886042058,,,2017_Jun_06_1045,60.0086420368,FEMA4ImagesEEG,001,200525,
AFNE01.JPG,AFNE01.JPG,AFNE01.JPG,AFNE01.JPG,AFNE01.JPG,AFNE01.JPG,,,,,,,,,3,7,37,8,,,,,,,,,,,,,,,AFNE05.jpg,AFSA13.jpg,AFSA20.jpg,AFNE12.jpg,AFNE12.jpg,FN,3,num_4,32,num_6,0.266789852176,,,2017_Jun_06_1045,60.0086420368,FEMA4ImagesEEG,001,200525,
AFNE01.JPG,AFNE01.JPG,AFNE01.JPG,AFNE01.JPG,AFNE01.JPG,AFNE01.JPG,,,,,,,,,3,8,38,2,,,,,,,,,,,,,,,AFSA04.jpg,AFSA08.jpg,AFNE18.jpg,AFNE11.jpg,AFNE11.jpg,FN,3,num_4,16,num_4,0.400081980973,,,2017_Jun_06_1045,60.0086420368,FEMA4ImagesEEG,001,200525,
AFNE01.JPG,AFNE01.JPG,AFNE01.JPG,AFNE01.JPG,AFNE01.JPG,AFNE01.JPG,,,,,,,,,3,9,39,5,,,,,,,,,,,,,,,AFSA03.jpg,AFSA11.jpg,AFNE01.jpg,AFNE19.jpg,AFNE01.jpg,FN,3,num_2,32,num_6,0.516832270194,,,2017_Jun_06_1045,60.0086420368,FEMA4ImagesEEG,001,200525,
AFNE01.JPG,AFNE01.JPG,AFNE01.JPG,AFNE01.JPG,AFNE01.JPG,AFNE01.JPG,,,,,,,,,4,0,40,6,,,,,,,,,,,,,,,AFSA11.jpg,AFNE06.jpg,AFNE03.jpg,AFSA07.jpg,AFSA11.jpg,FS,4,num_8,16,num_8,0.300163481152,,,2017_Jun_06_1045,60.0086420368,FEMA4ImagesEEG,001,200525,
AFNE01.JPG,AFNE01.JPG,AFNE01.JPG,AFNE01.JPG,AFNE01.JPG,AFNE01.JPG,,,,,,,,,4,1,41,8,,,,,,,,,,,,,,,AFNE19.jpg,AFNE11.jpg,AFSA09.jpg,AFSA14.jpg,AFSA09.jpg,FS,4,num_2,32,num_6,0.350023141364,,,2017_Jun_06_1045,60.0086420368,FEMA4ImagesEEG,001,200525,
AFNE01.JPG,AFNE01.JPG,AFNE01.JPG,AFNE01.JPG,AFNE01.JPG,AFNE01.JPG,,,,,,,,,4,2,42,7,,,,,,,,,,,,,,,AFSA02.jpg,AFSA03.jpg,AFNE01.jpg,AFNE13.jpg,AFNE13.jpg,FN,3,num_4,32,num_8,0.683436125051,,,2017_Jun_06_1045,60.0086420368,FEMA4ImagesEEG,001,200525,
AFNE01.JPG,AFNE01.JPG,AFNE01.JPG,AFNE01.JPG,AFNE01.JPG,AFNE01.JPG,,,,,,,,,4,3,43,5,,,,,,,,,,,,,,,AFNE04.jpg,AFSA14.jpg,AFSA17.jpg,AFNE11.jpg,AFNE04.jpg,FN,3,num_8,32,num_4,0.733249278273,,,2017_Jun_06_1045,60.0086420368,FEMA4ImagesEEG,001,200525,
AFNE01.JPG,AFNE01.JPG,AFNE01.JPG,AFNE01.JPG,AFNE01.JPG,AFNE01.JPG,,,,,,,,,4,4,44,3,,,,,,,,,,,,,,,AFNE17.jpg,AFSA17.jpg,AFSA14.jpg,AFNE20.jpg,AFSA17.jpg,FS,4,num_6,16,num_6,0.366920361295,,,2017_Jun_06_1045,60.0086420368,FEMA4ImagesEEG,001,200525,
AFNE01.JPG,AFNE01.JPG,AFNE01.JPG,AFNE01.JPG,AFNE01.JPG,AFNE01.JPG,,,,,,,,,4,5,45,4,,,,,,,,,,,,,,,AFNE12.jpg,AFNE19.jpg,AFSA19.jpg,AFSA08.jpg,AFNE12.jpg,FN,3,num_8,32,num_4,0.550153939286,,,2017_Jun_06_1045,60.0086420368,FEMA4ImagesEEG,001,200525,
AFNE01.JPG,AFNE01.JPG,AFNE01.JPG,AFNE01.JPG,AFNE01.JPG,AFNE01.JPG,,,,,,,,,4,6,46,1,,,,,,,,,,,,,,,AFNE09.jpg,AFNE20.jpg,AFSA03.jpg,AFSA04.jpg,AFNE09.jpg,FN,3,num_8,32,num_2,0.63339332235,,,2017_Jun_06_1045,60.0086420368,FEMA4ImagesEEG,001,200525,
AFNE01.JPG,AFNE01.JPG,AFNE01.JPG,AFNE01.JPG,AFNE01.JPG,AFNE01.JPG,,,,,,,,,4,7,47,2,,,,,,,,,,,,,,,AFNE19.jpg,AFNE18.jpg,AFSA04.jpg,AFSA12.jpg,AFSA12.jpg,FS,4,num_4,16,num_4,0.500200943556,,,2017_Jun_06_1045,60.0086420368,FEMA4ImagesEEG,001,200525,
AFNE01.JPG,AFNE01.JPG,AFNE01.JPG,AFNE01.JPG,AFNE01.JPG,AFNE01.JPG,,,,,,,,,4,8,48,0,,,,,,,,,,,,,,,AFNE14.jpg,AFSA16.jpg,AFSA18.jpg,AFNE17.jpg,AFNE17.jpg,FN,3,num_4,32,num_2,0.466662775027,,,2017_Jun_06_1045,60.0086420368,FEMA4ImagesEEG,001,200525,
AFNE01.JPG,AFNE01.JPG,AFNE01.JPG,AFNE01.JPG,AFNE01.JPG,AFNE01.JPG,,,,,,,,,4,9,49,9,,,,,,,,,,,,,,,AFNE03.jpg,AFSA02.jpg,AFNE12.jpg,AFSA07.jpg,AFNE03.jpg,FN,3,num_8,32,num_6,0.616777391406,,,2017_Jun_06_1045,60.0086420368,FEMA4ImagesEEG,001,200525,
AFNE01.JPG,AFNE01.JPG,AFNE01.JPG,AFNE01.JPG,AFNE01.JPG,AFNE01.JPG,,,,,,,,,5,0,50,9,,,,,,,,,,,,,,,AFNE19.jpg,AFNE16.jpg,AFSA02.jpg,AFSA04.jpg,AFSA04.jpg,FS,4,num_4,16,num_4,0.483446773607,,,2017_Jun_06_1045,60.0086420368,FEMA4ImagesEEG,001,200525,
AFNE01.JPG,AFNE01.JPG,AFNE01.JPG,AFNE01.JPG,AFNE01.JPG,AFNE01.JPG,,,,,,,,,5,1,51,4,,,,,,,,,,,,,,,AFNE20.jpg,AFSA18.jpg,AFNE05.jpg,AFSA09.jpg,AFNE20.jpg,FN,3,num_8,16,num_8,0.933457694948,,,2017_Jun_06_1045,60.0086420368,FEMA4ImagesEEG,001,200525,
AFNE01.JPG,AFNE01.JPG,AFNE01.JPG,AFNE01.JPG,AFNE01.JPG,AFNE01.JPG,,,,,,,,,5,2,52,3,,,,,,,,,,,,,,,AFNE16.jpg,AFSA07.jpg,AFSA08.jpg,AFNE01.jpg,AFNE16.jpg,FN,3,num_8,32,num_6,0.600176855922,,,2017_Jun_06_1045,60.0086420368,FEMA4ImagesEEG,001,200525,
AFNE01.JPG,AFNE01.JPG,AFNE01.JPG,AFNE01.JPG,AFNE01.JPG,AFNE01.JPG,,,,,,,,,5,3,53,6,,,,,,,,,,,,,,,AFNE04.jpg,AFNE10.jpg,AFSA03.jpg,AFSA08.jpg,AFNE04.jpg,FN,3,num_8,32,num_2,1.40011597937,,,2017_Jun_06_1045,60.0086420368,FEMA4ImagesEEG,001,200525,
AFNE01.JPG,AFNE01.JPG,AFNE01.JPG,AFNE01.JPG,AFNE01.JPG,AFNE01.JPG,,,,,,,,,5,4,54,0,,,,,,,,,,,,,,,AFNE19.jpg,AFSA09.jpg,AFSA02.jpg,AFNE04.jpg,AFNE19.jpg,FN,3,num_8,32,num_6,0.400340176886,,,2017_Jun_06_1045,60.0086420368,FEMA4ImagesEEG,001,200525,
AFNE01.JPG,AFNE01.JPG,AFNE01.JPG,AFNE01.JPG,AFNE01.JPG,AFNE01.JPG,,,,,,,,,5,5,55,8,,,,,,,,,,,,,,,AFNE14.jpg,AFSA18.jpg,AFNE18.jpg,AFSA02.jpg,AFSA18.jpg,FS,4,num_6,32,num_2,0.533455577912,,,2017_Jun_06_1045,60.0086420368,FEMA4ImagesEEG,001,200525,
AFNE01.JPG,AFNE01.JPG,AFNE01.JPG,AFNE01.JPG,AFNE01.JPG,AFNE01.JPG,,,,,,,,,5,6,56,5,,,,,,,,,,,,,,,AFSA01.jpg,AFNE07.jpg,AFSA05.jpg,AFNE15.jpg,AFNE15.jpg,FN,3,num_4,16,num_4,0.533456540201,,,2017_Jun_06_1045,60.0086420368,FEMA4ImagesEEG,001,200525,
AFNE01.JPG,AFNE01.JPG,AFNE01.JPG,AFNE01.JPG,AFNE01.JPG,AFNE01.JPG,,,,,,,,,5,7,57,1,,,,,,,,,,,,,,,AFNE16.jpg,AFNE20.jpg,AFSA20.jpg,AFSA06.jpg,AFSA06.jpg,FS,4,num_4,32,num_6,0.500142568722,,,2017_Jun_06_1045,60.0086420368,FEMA4ImagesEEG,001,200525,
AFNE01.JPG,AFNE01.JPG,AFNE01.JPG,AFNE01.JPG,AFNE01.JPG,AFNE01.JPG,,,,,,,,,5,8,58,2,,,,,,,,,,,,,,,AFSA16.jpg,AFNE03.jpg,AFNE07.jpg,AFSA20.jpg,AFNE03.jpg,FN,3,num_6,32,num_2,0.300194272306,,,2017_Jun_06_1045,60.0086420368,FEMA4ImagesEEG,001,200525,
AFNE01.JPG,AFNE01.JPG,AFNE01.JPG,AFNE01.JPG,AFNE01.JPG,AFNE01.JPG,,,,,,,,,5,9,59,7,,,,,,,,,,,,,,,AFNE01.jpg,AFSA01.jpg,AFSA12.jpg,AFNE10.jpg,AFSA01.jpg,FS,4,num_6,32,num_2,0.616805937374,,,2017_Jun_06_1045,60.0086420368,FEMA4ImagesEEG,001,200525,
,,,,,,,,,,,,,,,,,,,,,,,,,,,,,,,,,,,,,,,,,,,space,1.33337770216,2017_Jun_06_1045,60.0086420368,FEMA4ImagesEEG,001,200525,
AFNE01.JPG,AFNE01.JPG,AFNE01.JPG,AFNE01.JPG,AFNE01.JPG,AFNE01.JPG,,,,,,,,,,,,,0,0,0,2,,,,,,,,,,,AMSA05.jpg,AMNE01.jpg,AMSA02.jpg,AMNE13.jpg,AMNE01.jpg,MN,1,num_6,32,num_2,0.400183976395,,,2017_Jun_06_1045,60.0086420368,FEMA4ImagesEEG,001,200525,
AFNE01.JPG,AFNE01.JPG,AFNE01.JPG,AFNE01.JPG,AFNE01.JPG,AFNE01.JPG,,,,,,,,,,,,,0,1,1,1,,,,,,,,,,,AMSA14.jpg,AMSA13.jpg,AMNE04.jpg,AMNE01.jpg,AMSA14.jpg,MS,2,num_8,32,num_2,0.900149817578,,,2017_Jun_06_1045,60.0086420368,FEMA4ImagesEEG,001,200525,
AFNE01.JPG,AFNE01.JPG,AFNE01.JPG,AFNE01.JPG,AFNE01.JPG,AFNE01.JPG,,,,,,,,,,,,,0,2,2,4,,,,,,,,,,,AMNE16.jpg,AMSA05.jpg,AMNE07.jpg,AMSA19.jpg,AMSA05.jpg,MS,2,num_6,32,num_2,0.533464238048,,,2017_Jun_06_1045,60.0086420368,FEMA4ImagesEEG,001,200525,
AFNE01.JPG,AFNE01.JPG,AFNE01.JPG,AFNE01.JPG,AFNE01.JPG,AFNE01.JPG,,,,,,,,,,,,,0,3,3,7,,,,,,,,,,,AMNE10.jpg,AMNE02.jpg,AMSA04.jpg,AMSA19.jpg,AMSA19.jpg,MS,2,num_4,32,num_6,0.466927706264,,,2017_Jun_06_1045,60.0086420368,FEMA4ImagesEEG,001,200525,
AFNE01.JPG,AFNE01.JPG,AFNE01.JPG,AFNE01.JPG,AFNE01.JPG,AFNE01.JPG,,,,,,,,,,,,,0,4,4,5,,,,,,,,,,,AMNE13.jpg,AMSA01.jpg,AMNE19.jpg,AMSA08.jpg,AMSA08.jpg,MS,2,num_4,32,num_2,0.583535265876,,,2017_Jun_06_1045,60.0086420368,FEMA4ImagesEEG,001,200525,
AFNE01.JPG,AFNE01.JPG,AFNE01.JPG,AFNE01.JPG,AFNE01.JPG,AFNE01.JPG,,,,,,,,,,,,,0,5,5,8,,,,,,,,,,,AMSA03.jpg,AMSA17.jpg,AMNE15.jpg,AMNE12.jpg,AMNE15.jpg,MN,1,num_2,32,num_4,0.566770511679,,,2017_Jun_06_1045,60.0086420368,FEMA4ImagesEEG,001,200525,
AFNE01.JPG,AFNE01.JPG,AFNE01.JPG,AFNE01.JPG,AFNE01.JPG,AFNE01.JPG,,,,,,,,,,,,,0,6,6,3,,,,,,,,,,,AMSA09.jpg,AMNE05.jpg,AMNE04.jpg,AMSA14.jpg,AMNE05.jpg,MN,1,num_6,16,num_6,0.600154404296,,,2017_Jun_06_1045,60.0086420368,FEMA4ImagesEEG,001,200525,
AFNE01.JPG,AFNE01.JPG,AFNE01.JPG,AFNE01.JPG,AFNE01.JPG,AFNE01.JPG,,,,,,,,,,,,,0,7,7,9,,,,,,,,,,,AMSA06.jpg,AMNE03.jpg,AMSA14.jpg,AMNE09.jpg,AMNE03.jpg,MN,1,num_6,16,num_6,0.73346930556,,,2017_Jun_06_1045,60.0086420368,FEMA4ImagesEEG,001,200525,
AFNE01.JPG,AFNE01.JPG,AFNE01.JPG,AFNE01.JPG,AFNE01.JPG,AFNE01.JPG,,,,,,,,,,,,,0,8,8,6,,,,,,,,,,,AMSA14.jpg,AMSA12.jpg,AMNE19.jpg,AMNE04.jpg,AMNE19.jpg,MN,1,num_2,16,num_2,0.516774857417,,,2017_Jun_06_1045,60.0086420368,FEMA4ImagesEEG,001,200525,
AFNE01.JPG,AFNE01.JPG,AFNE01.JPG,AFNE01.JPG,AFNE01.JPG,AFNE01.JPG,,,,,,,,,,,,,0,9,9,0,,,,,,,,,,,AMNE18.jpg,AMSA01.jpg,AMSA19.jpg,AMNE01.jpg,AMSA19.jpg,MS,2,num_2,16,num_2,0.616784447804,,,2017_Jun_06_1045,60.0086420368,FEMA4ImagesEEG,001,200525,
AFNE01.JPG,AFNE01.JPG,AFNE01.JPG,AFNE01.JPG,AFNE01.JPG,AFNE01.JPG,,,,,,,,,,,,,1,0,10,5,,,,,,,,,,,AMNE08.jpg,AMNE19.jpg,AMSA03.jpg,AMSA05.jpg,AMNE08.jpg,MN,1,num_8,32,num_6,0.666787478607,,,2017_Jun_06_1045,60.0086420368,FEMA4ImagesEEG,001,200525,
AFNE01.JPG,AFNE01.JPG,AFNE01.JPG,AFNE01.JPG,AFNE01.JPG,AFNE01.JPG,,,,,,,,,,,,,1,1,11,6,,,,,,,,,,,AMSA14.jpg,AMNE13.jpg,AMNE04.jpg,AMSA09.jpg,AMNE04.jpg,MN,1,num_2,32,num_8,0.76674446743,,,2017_Jun_06_1045,60.0086420368,FEMA4ImagesEEG,001,200525,
AFNE01.JPG,AFNE01.JPG,AFNE01.JPG,AFNE01.JPG,AFNE01.JPG,AFNE01.JPG,,,,,,,,,,,,,1,2,12,1,,,,,,,,,,,AMNE11.jpg,AMNE08.jpg,AMSA12.jpg,AMSA05.jpg,AMSA05.jpg,MS,2,num_4,16,num_4,0.700105619617,,,2017_Jun_06_1045,60.0086420368,FEMA4ImagesEEG,001,200525,
AFNE01.JPG,AFNE01.JPG,AFNE01.JPG,AFNE01.JPG,AFNE01.JPG,AFNE01.JPG,,,,,,,,,,,,,1,3,13,2,,,,,,,,,,,AMSA15.jpg,AMNE12.jpg,AMSA06.jpg,AMNE16.jpg,AMSA15.jpg,MS,2,num_8,16,num_8,0.433508532122,,,2017_Jun_06_1045,60.0086420368,FEMA4ImagesEEG,001,200525,
AFNE01.JPG,AFNE01.JPG,AFNE01.JPG,AFNE01.JPG,AFNE01.JPG,AFNE01.JPG,,,,,,,,,,,,,1,4,14,3,,,,,,,,,,,AMNE16.jpg,AMNE07.jpg,AMSA20.jpg,AMSA06.jpg,AMNE16.jpg,MN,1,num_8,32,num_6,0.483513808344,,,2017_Jun_06_1045,60.0086420368,FEMA4ImagesEEG,001,200525,
AFNE01.JPG,AFNE01.JPG,AFNE01.JPG,AFNE01.JPG,AFNE01.JPG,AFNE01.JPG,,,,,,,,,,,,,1,5,15,9,,,,,,,,,,,AMNE15.jpg,AMSA03.jpg,AMNE03.jpg,AMSA15.jpg,AMSA03.jpg,MS,2,num_6,32,num_4,0.633607255993,,,2017_Jun_06_1045,60.0086420368,FEMA4ImagesEEG,001,200525,
AFNE01.JPG,AFNE01.JPG,AFNE01.JPG,AFNE01.JPG,AFNE01.JPG,AFNE01.JPG,,,,,,,,,,,,,1,6,16,4,,,,,,,,,,,AMSA14.jpg,AMNE10.jpg,AMSA07.jpg,AMNE11.jpg,AMSA07.jpg,MS,2,num_2,16,num_2,0.683445426635,,,2017_Jun_06_1045,60.0086420368,FEMA4ImagesEEG,001,200525,
AFNE01.JPG,AFNE01.JPG,AFNE01.JPG,AFNE01.JPG,AFNE01.JPG,AFNE01.JPG,,,,,,,,,,,,,1,7,17,7,,,,,,,,,,,AMNE01.jpg,AMSA08.jpg,AMNE12.jpg,AMSA07.jpg,AMSA07.jpg,MS,2,num_4,32,num_6,0.683490650728,,,2017_Jun_06_1045,60.0086420368,FEMA4ImagesEEG,001,200525,
AFNE01.JPG,AFNE01.JPG,AFNE01.JPG,AFNE01.JPG,AFNE01.JPG,AFNE01.JPG,,,,,,,,,,,,,1,8,18,8,,,,,,,,,,,AMNE10.jpg,AMSA19.jpg,AMNE08.jpg,AMSA08.jpg,AMNE10.jpg,MN,1,num_8,32,num_4,0.366763519356,,,2017_Jun_06_1045,60.0086420368,FEMA4ImagesEEG,001,200525,
AFNE01.JPG,AFNE01.JPG,AFNE01.JPG,AFNE01.JPG,AFNE01.JPG,AFNE01.JPG,,,,,,,,,,,,,1,9,19,0,,,,,,,,,,,AMSA15.jpg,AMSA04.jpg,AMNE20.jpg,AMNE18.jpg,AMNE20.jpg,MN,1,num_2,32,num_6,0.616808824008,,,2017_Jun_06_1045,60.0086420368,FEMA4ImagesEEG,001,200525,
AFNE01.JPG,AFNE01.JPG,AFNE01.JPG,AFNE01.JPG,AFNE01.JPG,AFNE01.JPG,,,,,,,,,,,,,2,0,20,2,,,,,,,,,,,AMSA15.jpg,AMNE13.jpg,AMNE15.jpg,AMSA07.jpg,AMSA15.jpg,MS,2,num_8,16,num_8,0.616816842463,,,2017_Jun_06_1045,60.0086420368,FEMA4ImagesEEG,001,200525,
AFNE01.JPG,AFNE01.JPG,AFNE01.JPG,AFNE01.JPG,AFNE01.JPG,AFNE01.JPG,,,,,,,,,,,,,2,1,21,8,,,,,,,,,,,AMSA07.jpg,AMNE05.jpg,AMSA19.jpg,AMNE11.jpg,AMNE05.jpg,MN,1,num_6,32,num_2,0.633346494287,,,2017_Jun_06_1045,60.0086420368,FEMA4ImagesEEG,001,200525,
AFNE01.JPG,AFNE01.JPG,AFNE01.JPG,AFNE01.JPG,AFNE01.JPG,AFNE01.JPG,,,,,,,,,,,,,2,2,22,1,,,,,,,,,,,AMSA04.jpg,AMSA11.jpg,AMNE17.jpg,AMNE11.jpg,AMNE17.jpg,MN,1,num_2,32,num_8,0.300158349331,,,2017_Jun_06_1045,60.0086420368,FEMA4ImagesEEG,001,200525,
AFNE01.JPG,AFNE01.JPG,AFNE01.JPG,AFNE01.JPG,AFNE01.JPG,AFNE01.JPG,,,,,,,,,,,,,2,3,23,7,,,,,,,,,,,AMSA05.jpg,AMNE15.jpg,AMSA11.jpg,AMNE12.jpg,AMNE15.jpg,MN,1,num_6,16,num_6,0.633440150414,,,2017_Jun_06_1045,60.0086420368,FEMA4ImagesEEG,001,200525,
AFNE01.JPG,AFNE01.JPG,AFNE01.JPG,AFNE01.JPG,AFNE01.JPG,AFNE01.JPG,,,,,,,,,,,,,2,4,24,3,,,,,,,,,,,AMSA02.jpg,AMNE13.jpg,AMSA11.jpg,AMNE09.jpg,AMNE09.jpg,MN,1,num_4,32,num_2,0.766877253773,,,2017_Jun_06_1045,60.0086420368,FEMA4ImagesEEG,001,200525,
AFNE01.JPG,AFNE01.JPG,AFNE01.JPG,AFNE01.JPG,AFNE01.JPG,AFNE01.JPG,,,,,,,,,,,,,2,5,25,0,,,,,,,,,,,AMSA14.jpg,AMNE18.jpg,AMNE11.jpg,AMSA18.jpg,AMNE18.jpg,MN,1,num_6,16,num_6,0.666799987666,,,2017_Jun_06_1045,60.0086420368,FEMA4ImagesEEG,001,200525,
AFNE01.JPG,AFNE01.JPG,AFNE01.JPG,AFNE01.JPG,AFNE01.JPG,AFNE01.JPG,,,,,,,,,,,,,2,6,26,5,,,,,,,,,,,AMSA15.jpg,AMNE13.jpg,AMSA18.jpg,AMNE08.jpg,AMNE13.jpg,MN,1,num_6,32,num_8,0.866778113181,,,2017_Jun_06_1045,60.0086420368,FEMA4ImagesEEG,001,200525,
AFNE01.JPG,AFNE01.JPG,AFNE01.JPG,AFNE01.JPG,AFNE01.JPG,AFNE01.JPG,,,,,,,,,,,,,2,7,27,4,,,,,,,,,,,AMNE20.jpg,AMSA11.jpg,AMSA02.jpg,AMNE05.jpg,AMSA02.jpg,MS,2,num_2,32,num_6,0.38349812408,,,2017_Jun_06_1045,60.0086420368,FEMA4ImagesEEG,001,200525,
AFNE01.JPG,AFNE01.JPG,AFNE01.JPG,AFNE01.JPG,AFNE01.JPG,AFNE01.JPG,,,,,,,,,,,,,2,8,28,6,,,,,,,,,,,AMSA02.jpg,AMNE11.jpg,AMSA09.jpg,AMNE10.jpg,AMSA02.jpg,MS,2,num_8,32,num_2,0.550253047608,,,2017_Jun_06_1045,60.0086420368,FEMA4ImagesEEG,001,200525,
AFNE01.JPG,AFNE01.JPG,AFNE01.JPG,AFNE01.JPG,AFNE01.JPG,AFNE01.JPG,,,,,,,,,,,,,2,9,29,9,,,,,,,,,,,AMNE07.jpg,AMSA17.jpg,AMNE01.jpg,AMSA04.jpg,AMNE07.jpg,MN,1,num_8,32,num_4,0.616834162502,,,2017_Jun_06_1045,60.0086420368,FEMA4ImagesEEG,001,200525,
AFNE01.JPG,AFNE01.JPG,AFNE01.JPG,AFNE01.JPG,AFNE01.JPG,AFNE01.JPG,,,,,,,,,,,,,3,0,30,0,,,,,,,,,,,AMNE02.jpg,AMSA12.jpg,AMNE03.jpg,AMSA01.jpg,AMNE02.jpg,MN,1,num_8,32,num_6,0.783445715206,,,2017_Jun_06_1045,60.0086420368,FEMA4ImagesEEG,001,200525,
AFNE01.JPG,AFNE01.JPG,AFNE01.JPG,AFNE01.JPG,AFNE01.JPG,AFNE01.JPG,,,,,,,,,,,,,3,1,31,3,,,,,,,,,,,AMNE17.jpg,AMNE01.jpg,AMSA19.jpg,AMSA12.jpg,AMNE17.jpg,MN,1,num_8,32,num_4,0.333498621359,,,2017_Jun_06_1045,60.0086420368,FEMA4ImagesEEG,001,200525,
AFNE01.JPG,AFNE01.JPG,AFNE01.JPG,AFNE01.JPG,AFNE01.JPG,AFNE01.JPG,,,,,,,,,,,,,3,2,32,9,,,,,,,,,,,AMSA01.jpg,AMSA09.jpg,AMNE17.jpg,AMNE06.jpg,AMSA09.jpg,MS,2,num_6,16,num_6,0.716656761244,,,2017_Jun_06_1045,60.0086420368,FEMA4ImagesEEG,001,200525,
AFNE01.JPG,AFNE01.JPG,AFNE01.JPG,AFNE01.JPG,AFNE01.JPG,AFNE01.JPG,,,,,,,,,,,,,3,3,33,6,,,,,,,,,,,AMSA15.jpg,AMNE02.jpg,AMNE04.jpg,AMSA05.jpg,AMSA15.jpg,MS,2,num_8,16,num_8,0.466795240762,,,2017_Jun_06_1045,60.0086420368,FEMA4ImagesEEG,001,200525,
AFNE01.JPG,AFNE01.JPG,AFNE01.JPG,AFNE01.JPG,AFNE01.JPG,AFNE01.JPG,,,,,,,,,,,,,3,4,34,1,,,,,,,,,,,AMSA18.jpg,AMSA15.jpg,AMNE11.jpg,AMNE06.jpg,AMNE11.jpg,MN,1,num_2,16,num_2,0.900116140023,,,2017_Jun_06_1045,60.0086420368,FEMA4ImagesEEG,001,200525,
AFNE01.JPG,AFNE01.JPG,AFNE01.JPG,AFNE01.JPG,AFNE01.JPG,AFNE01.JPG,,,,,,,,,,,,,3,5,35,7,,,,,,,,,,,AMNE20.jpg,AMSA04.jpg,AMNE08.jpg,AMSA20.jpg,AMNE20.jpg,MN,1,num_8,32,num_4,0.283543701284,,,2017_Jun_06_1045,60.0086420368,FEMA4ImagesEEG,001,200525,
AFNE01.JPG,AFNE01.JPG,AFNE01.JPG,AFNE01.JPG,AFNE01.JPG,AFNE01.JPG,,,,,,,,,,,,,3,6,36,2,,,,,,,,,,,AMNE13.jpg,AMSA10.jpg,AMNE03.jpg,AMSA06.jpg,AMNE13.jpg,MN,1,num_8,32,num_6,0.716747851344,,,2017_Jun_06_1045,60.0086420368,FEMA4ImagesEEG,001,200525,
AFNE01.JPG,AFNE01.JPG,AFNE01.JPG,AFNE01.JPG,AFNE01.JPG,AFNE01.JPG,,,,,,,,,,,,,3,7,37,8,,,,,,,,,,,AMNE04.jpg,AMSA09.jpg,AMNE09.jpg,AMSA18.jpg,AMNE09.jpg,MN,1,num_2,16,num_2,0.633490185719,,,2017_Jun_06_1045,60.0086420368,FEMA4ImagesEEG,001,200525,
AFNE01.JPG,AFNE01.JPG,AFNE01.JPG,AFNE01.JPG,AFNE01.JPG,AFNE01.JPG,,,,,,,,,,,,,3,8,38,4,,,,,,,,,,,AMNE05.jpg,AMSA03.jpg,AMSA10.jpg,AMNE16.jpg,AMNE05.jpg,MN,1,num_8,32,num_2,0.600132593885,,,2017_Jun_06_1045,60.0086420368,FEMA4ImagesEEG,001,200525,
AFNE01.JPG,AFNE01.JPG,AFNE01.JPG,AFNE01.JPG,AFNE01.JPG,AFNE01.JPG,,,,,,,,,,,,,3,9,39,5,,,,,,,,,,,AMNE05.jpg,AMNE16.jpg,AMSA04.jpg,AMSA13.jpg,AMSA04.jpg,MS,2,num_2,32,num_6,0.350187360309,,,2017_Jun_06_1045,60.0086420368,FEMA4ImagesEEG,001,200525,
AFNE01.JPG,AFNE01.JPG,AFNE01.JPG,AFNE01.JPG,AFNE01.JPG,AFNE01.JPG,,,,,,,,,,,,,4,0,40,6,,,,,,,,,,,AMNE07.jpg,AMNE17.jpg,AMSA03.jpg,AMSA05.jpg,AMSA05.jpg,MS,2,num_4,16,num_4,0.616765524028,,,2017_Jun_06_1045,60.0086420368,FEMA4ImagesEEG,001,200525,
AFNE01.JPG,AFNE01.JPG,AFNE01.JPG,AFNE01.JPG,AFNE01.JPG,AFNE01.JPG,,,,,,,,,,,,,4,1,41,2,,,,,,,,,,,AMSA14.jpg,AMSA07.jpg,AMNE05.jpg,AMNE09.jpg,AMNE09.jpg,MN,1,num_4,32,num_6,0.550181202125,,,2017_Jun_06_1045,60.0086420368,FEMA4ImagesEEG,001,200525,
AFNE01.JPG,AFNE01.JPG,AFNE01.JPG,AFNE01.JPG,AFNE01.JPG,AFNE01.JPG,,,,,,,,,,,,,4,2,42,9,,,,,,,,,,,AMNE16.jpg,AMSA05.jpg,AMNE08.jpg,AMSA10.jpg,AMSA10.jpg,MS,2,num_4,16,num_4,0.500167265767,,,2017_Jun_06_1045,60.0086420368,FEMA4ImagesEEG,001,200525,
AFNE01.JPG,AFNE01.JPG,AFNE01.JPG,AFNE01.JPG,AFNE01.JPG,AFNE01.JPG,,,,,,,,,,,,,4,3,43,1,,,,,,,,,,,AMNE20.jpg,AMNE15.jpg,AMSA09.jpg,AMSA06.jpg,AMSA09.jpg,MS,2,num_2,32,num_6,0.43350532488,,,2017_Jun_06_1045,60.0086420368,FEMA4ImagesEEG,001,200525,
AFNE01.JPG,AFNE01.JPG,AFNE01.JPG,AFNE01.JPG,AFNE01.JPG,AFNE01.JPG,,,,,,,,,,,,,4,4,44,8,,,,,,,,,,,AMNE10.jpg,AMSA10.jpg,AMSA11.jpg,AMNE14.jpg,AMSA10.jpg,MS,2,num_6,32,num_2,0.583448024467,,,2017_Jun_06_1045,60.0086420368,FEMA4ImagesEEG,001,200525,
AFNE01.JPG,AFNE01.JPG,AFNE01.JPG,AFNE01.JPG,AFNE01.JPG,AFNE01.JPG,,,,,,,,,,,,,4,5,45,5,,,,,,,,,,,AMSA13.jpg,AMNE03.jpg,AMSA17.jpg,AMNE07.jpg,AMNE03.jpg,MN,1,num_6,32,num_8,0.650106758112,,,2017_Jun_06_1045,60.0086420368,FEMA4ImagesEEG,001,200525,
AFNE01.JPG,AFNE01.JPG,AFNE01.JPG,AFNE01.JPG,AFNE01.JPG,AFNE01.JPG,,,,,,,,,,,,,4,6,46,0,,,,,,,,,,,AMSA04.jpg,AMNE12.jpg,AMSA02.jpg,AMNE03.jpg,AMSA04.jpg,MS,2,num_8,32,num_6,0.350173889194,,,2017_Jun_06_1045,60.0086420368,FEMA4ImagesEEG,001,200525,
AFNE01.JPG,AFNE01.JPG,AFNE01.JPG,AFNE01.JPG,AFNE01.JPG,AFNE01.JPG,,,,,,,,,,,,,4,7,47,7,,,,,,,,,,,AMSA19.jpg,AMSA13.jpg,AMNE11.jpg,AMNE04.jpg,AMNE04.jpg,MN,1,num_4,32,num_2,0.500213131774,,,2017_Jun_06_1045,60.0086420368,FEMA4ImagesEEG,001,200525,
AFNE01.JPG,AFNE01.JPG,AFNE01.JPG,AFNE01.JPG,AFNE01.JPG,AFNE01.JPG,,,,,,,,,,,,,4,8,48,3,,,,,,,,,,,AMSA02.jpg,AMSA07.jpg,AMNE01.jpg,AMNE06.jpg,AMNE06.jpg,MN,1,num_4,16,num_4,0.583652977366,,,2017_Jun_06_1045,60.0086420368,FEMA4ImagesEEG,001,200525,
AFNE01.JPG,AFNE01.JPG,AFNE01.JPG,AFNE01.JPG,AFNE01.JPG,AFNE01.JPG,,,,,,,,,,,,,4,9,49,4,,,,,,,,,,,AMNE04.jpg,AMNE17.jpg,AMSA02.jpg,AMSA08.jpg,AMSA02.jpg,MS,2,num_2,32,num_4,0.566799378255,,,2017_Jun_06_1045,60.0086420368,FEMA4ImagesEEG,001,200525,
AFNE01.JPG,AFNE01.JPG,AFNE01.JPG,AFNE01.JPG,AFNE01.JPG,AFNE01.JPG,,,,,,,,,,,,,5,0,50,1,,,,,,,,,,,AMSA15.jpg,AMNE19.jpg,AMSA13.jpg,AMNE16.jpg,AMSA15.jpg,MS,2,num_8,16,num_8,0.433381519048,,,2017_Jun_06_1045,60.0086420368,FEMA4ImagesEEG,001,200525,
AFNE01.JPG,AFNE01.JPG,AFNE01.JPG,AFNE01.JPG,AFNE01.JPG,AFNE01.JPG,,,,,,,,,,,,,5,1,51,0,,,,,,,,,,,AMNE13.jpg,AMSA09.jpg,AMNE02.jpg,AMSA19.jpg,AMNE02.jpg,MN,1,num_2,32,num_6,0.700215312652,,,2017_Jun_06_1045,60.0086420368,FEMA4ImagesEEG,001,200525,
AFNE01.JPG,AFNE01.JPG,AFNE01.JPG,AFNE01.JPG,AFNE01.JPG,AFNE01.JPG,,,,,,,,,,,,,5,2,52,5,,,,,,,,,,,AMNE20.jpg,AMNE05.jpg,AMSA10.jpg,AMSA20.jpg,AMNE20.jpg,MN,1,num_8,32,num_4,0.316805392038,,,2017_Jun_06_1045,60.0086420368,FEMA4ImagesEEG,001,200525,
AFNE01.JPG,AFNE01.JPG,AFNE01.JPG,AFNE01.JPG,AFNE01.JPG,AFNE01.JPG,,,,,,,,,,,,,5,3,53,7,,,,,,,,,,,AMSA13.jpg,AMSA11.jpg,AMNE05.jpg,AMNE20.jpg,AMSA13.jpg,MS,2,num_8,32,num_4,0.633549202001,,,2017_Jun_06_1045,60.0086420368,FEMA4ImagesEEG,001,200525,
AFNE01.JPG,AFNE01.JPG,AFNE01.JPG,AFNE01.JPG,AFNE01.JPG,AFNE01.JPG,,,,,,,,,,,,,5,4,54,3,,,,,,,,,,,AMNE10.jpg,AMNE07.jpg,AMSA18.jpg,AMSA12.jpg,AMSA12.jpg,MS,2,num_4,32,num_8,0.300147123402,,,2017_Jun_06_1045,60.0086420368,FEMA4ImagesEEG,001,200525,
AFNE01.JPG,AFNE01.JPG,AFNE01.JPG,AFNE01.JPG,AFNE01.JPG,AFNE01.JPG,,,,,,,,,,,,,5,5,55,9,,,,,,,,,,,AMNE16.jpg,AMSA19.jpg,AMSA01.jpg,AMNE13.jpg,AMNE16.jpg,MN,1,num_8,32,num_2,0.300141350133,,,2017_Jun_06_1045,60.0086420368,FEMA4ImagesEEG,001,200525,
AFNE01.JPG,AFNE01.JPG,AFNE01.JPG,AFNE01.JPG,AFNE01.JPG,AFNE01.JPG,,,,,,,,,,,,,5,6,56,8,,,,,,,,,,,AMSA11.jpg,AMNE11.jpg,AMSA14.jpg,AMNE20.jpg,AMSA14.jpg,MS,2,num_2,32,num_8,0.866785810795,,,2017_Jun_06_1045,60.0086420368,FEMA4ImagesEEG,001,200525,
AFNE01.JPG,AFNE01.JPG,AFNE01.JPG,AFNE01.JPG,AFNE01.JPG,AFNE01.JPG,,,,,,,,,,,,,5,7,57,2,,,,,,,,,,,AMSA02.jpg,AMSA13.jpg,AMNE02.jpg,AMNE01.jpg,AMNE02.jpg,MN,1,num_2,32,num_6,0.633485053899,,,2017_Jun_06_1045,60.0086420368,FEMA4ImagesEEG,001,200525,
AFNE01.JPG,AFNE01.JPG,AFNE01.JPG,AFNE01.JPG,AFNE01.JPG,AFNE01.JPG,,,,,,,,,,,,,5,8,58,6,,,,,,,,,,,AMSA19.jpg,AMSA04.jpg,AMNE13.jpg,AMNE01.jpg,AMSA04.jpg,MS,2,num_6,32,num_4,0.466904292116,,,2017_Jun_06_1045,60.0086420368,FEMA4ImagesEEG,001,200525,
AFNE01.JPG,AFNE01.JPG,AFNE01.JPG,AFNE01.JPG,AFNE01.JPG,AFNE01.JPG,,,,,,,,,,,,,5,9,59,4,,,,,,,,,,,AMNE01.jpg,AMSA11.jpg,AMSA04.jpg,AMNE13.jpg,AMSA11.jpg,MS,2,num_6,32,num_8,0.650148775196,,,2017_Jun_06_1045,60.0086420368,FEMA4ImagesEEG,001,200525,
,,,,,,,,,,,,,,,,,,,,,,,,,,,,,,,,,,,,,,,,,,,space,5.59976246022,2017_Jun_06_1045,60.0086420368,FEMA4ImagesEEG,001,200525,
AFNE01.JPG,AFNE01.JPG,AFNE01.JPG,AFNE01.JPG,AFNE01.JPG,AFNE01.JPG,,,,,,,,,,,,,,,,,0,0,0,2,,,,,,,AFNE07.jpg,AFNE01.jpg,AFSA18.jpg,AFSA03.jpg,AFSA03.jpg,FS,4,num_4,16,num_4,0.55019980506,,,2017_Jun_06_1045,60.0086420368,FEMA4ImagesEEG,001,200525,
AFNE01.JPG,AFNE01.JPG,AFNE01.JPG,AFNE01.JPG,AFNE01.JPG,AFNE01.JPG,,,,,,,,,,,,,,,,,0,1,1,8,,,,,,,AFNE18.jpg,AFSA05.jpg,AFNE13.jpg,AFSA02.jpg,AFSA02.jpg,FS,4,num_4,16,num_4,0.600147027289,,,2017_Jun_06_1045,60.0086420368,FEMA4ImagesEEG,001,200525,
AFNE01.JPG,AFNE01.JPG,AFNE01.JPG,AFNE01.JPG,AFNE01.JPG,AFNE01.JPG,,,,,,,,,,,,,,,,,0,2,2,9,,,,,,,AFSA07.jpg,AFNE05.jpg,AFSA08.jpg,AFNE19.jpg,AFNE05.jpg,FN,3,num_6,16,num_6,0.267018860439,,,2017_Jun_06_1045,60.0086420368,FEMA4ImagesEEG,001,200525,
AFNE01.JPG,AFNE01.JPG,AFNE01.JPG,AFNE01.JPG,AFNE01.JPG,AFNE01.JPG,,,,,,,,,,,,,,,,,0,3,3,3,,,,,,,AFSA04.jpg,AFSA20.jpg,AFNE05.jpg,AFNE19.jpg,AFNE19.jpg,FN,3,num_4,32,num_8,0.600130990148,,,2017_Jun_06_1045,60.0086420368,FEMA4ImagesEEG,001,200525,
AFNE01.JPG,AFNE01.JPG,AFNE01.JPG,AFNE01.JPG,AFNE01.JPG,AFNE01.JPG,,,,,,,,,,,,,,,,,0,4,4,4,,,,,,,AFNE05.jpg,AFSA12.jpg,AFNE11.jpg,AFSA13.jpg,AFNE11.jpg,FN,3,num_2,32,num_4,0.333470075391,,,2017_Jun_06_1045,60.0086420368,FEMA4ImagesEEG,001,200525,
AFNE01.JPG,AFNE01.JPG,AFNE01.JPG,AFNE01.JPG,AFNE01.JPG,AFNE01.JPG,,,,,,,,,,,,,,,,,0,5,5,5,,,,,,,AFNE02.jpg,AFSA16.jpg,AFNE06.jpg,AFSA06.jpg,AFNE06.jpg,FN,3,num_2,32,num_6,0.550196918193,,,2017_Jun_06_1045,60.0086420368,FEMA4ImagesEEG,001,200525,
AFNE01.JPG,AFNE01.JPG,AFNE01.JPG,AFNE01.JPG,AFNE01.JPG,AFNE01.JPG,,,,,,,,,,,,,,,,,0,6,6,1,,,,,,,AFNE07.jpg,AFSA03.jpg,AFNE12.jpg,AFSA14.jpg,AFNE12.jpg,FN,3,num_2,32,num_4,0.683479424799,,,2017_Jun_06_1045,60.0086420368,FEMA4ImagesEEG,001,200525,
AFNE01.JPG,AFNE01.JPG,AFNE01.JPG,AFNE01.JPG,AFNE01.JPG,AFNE01.JPG,,,,,,,,,,,,,,,,,0,7,7,7,,,,,,,AFSA13.jpg,AFNE12.jpg,AFNE01.jpg,AFSA05.jpg,AFSA13.jpg,FS,4,num_8,32,num_4,0.800129963784,,,2017_Jun_06_1045,60.0086420368,FEMA4ImagesEEG,001,200525,
AFNE01.JPG,AFNE01.JPG,AFNE01.JPG,AFNE01.JPG,AFNE01.JPG,AFNE01.JPG,,,,,,,,,,,,,,,,,0,8,8,0,,,,,,,AFNE12.jpg,AFSA06.jpg,AFSA11.jpg,AFNE09.jpg,AFSA11.jpg,FS,4,num_2,16,num_2,0.566904260078,,,2017_Jun_06_1045,60.0086420368,FEMA4ImagesEEG,001,200525,
AFNE01.JPG,AFNE01.JPG,AFNE01.JPG,AFNE01.JPG,AFNE01.JPG,AFNE01.JPG,,,,,,,,,,,,,,,,,0,9,9,6,,,,,,,AFSA17.jpg,AFNE12.jpg,AFSA04.jpg,AFNE09.jpg,AFNE12.jpg,FN,3,num_6,16,num_6,3.00011193822,,,2017_Jun_06_1045,60.0086420368,FEMA4ImagesEEG,001,200525,
AFNE01.JPG,AFNE01.JPG,AFNE01.JPG,AFNE01.JPG,AFNE01.JPG,AFNE01.JPG,,,,,,,,,,,,,,,,,1,0,10,1,,,,,,,AFNE12.jpg,AFSA04.jpg,AFSA12.jpg,AFNE06.jpg,AFSA12.jpg,FS,4,num_2,16,num_2,0.766764994944,,,2017_Jun_06_1045,60.0086420368,FEMA4ImagesEEG,001,200525,
AFNE01.JPG,AFNE01.JPG,AFNE01.JPG,AFNE01.JPG,AFNE01.JPG,AFNE01.JPG,,,,,,,,,,,,,,,,,1,1,11,6,,,,,,,AFSA17.jpg,AFNE17.jpg,AFSA19.jpg,AFNE16.jpg,AFNE16.jpg,FN,3,num_4,16,num_4,0.650187584804,,,2017_Jun_06_1045,60.0086420368,FEMA4ImagesEEG,001,200525,
AFNE01.JPG,AFNE01.JPG,AFNE01.JPG,AFNE01.JPG,AFNE01.JPG,AFNE01.JPG,,,,,,,,,,,,,,,,,1,2,12,8,,,,,,,AFSA18.jpg,AFNE06.jpg,AFNE11.jpg,AFSA14.jpg,AFNE06.jpg,FN,3,num_6,32,num_2,0.850101241376,,,2017_Jun_06_1045,60.0086420368,FEMA4ImagesEEG,001,200525,
AFNE01.JPG,AFNE01.JPG,AFNE01.JPG,AFNE01.JPG,AFNE01.JPG,AFNE01.JPG,,,,,,,,,,,,,,,,,1,3,13,7,,,,,,,AFSA07.jpg,AFSA02.jpg,AFNE20.jpg,AFNE02.jpg,AFSA02.jpg,FS,4,num_6,32,num_4,0.866769132437,,,2017_Jun_06_1045,60.0086420368,FEMA4ImagesEEG,001,200525,
AFNE01.JPG,AFNE01.JPG,AFNE01.JPG,AFNE01.JPG,AFNE01.JPG,AFNE01.JPG,,,,,,,,,,,,,,,,,1,4,14,0,,,,,,,AFSA16.jpg,AFSA17.jpg,AFNE20.jpg,AFNE08.jpg,AFSA17.jpg,FS,4,num_6,32,num_4,0.933433960192,,,2017_Jun_06_1045,60.0086420368,FEMA4ImagesEEG,001,200525,
AFNE01.JPG,AFNE01.JPG,AFNE01.JPG,AFNE01.JPG,AFNE01.JPG,AFNE01.JPG,,,,,,,,,,,,,,,,,1,5,15,3,,,,,,,AFSA03.jpg,AFSA11.jpg,AFNE20.jpg,AFNE05.jpg,AFNE05.jpg,FN,3,num_4,32,num_6,0.683547421824,,,2017_Jun_06_1045,60.0086420368,FEMA4ImagesEEG,001,200525,
AFNE01.JPG,AFNE01.JPG,AFNE01.JPG,AFNE01.JPG,AFNE01.JPG,AFNE01.JPG,,,,,,,,,,,,,,,,,1,6,16,2,,,,,,,AFNE05.jpg,AFSA18.jpg,AFSA13.jpg,AFNE19.jpg,AFSA18.jpg,FS,4,num_6,32,num_2,0.500249695964,,,2017_Jun_06_1045,60.0086420368,FEMA4ImagesEEG,001,200525,
AFNE01.JPG,AFNE01.JPG,AFNE01.JPG,AFNE01.JPG,AFNE01.JPG,AFNE01.JPG,,,,,,,,,,,,,,,,,1,7,17,4,,,,,,,AFNE17.jpg,AFSA19.jpg,AFNE07.jpg,AFSA09.jpg,AFNE07.jpg,FN,3,num_2,16,num_2,0.566771794576,,,2017_Jun_06_1045,60.0086420368,FEMA4ImagesEEG,001,200525,
AFNE01.JPG,AFNE01.JPG,AFNE01.JPG,AFNE01.JPG,AFNE01.JPG,AFNE01.JPG,,,,,,,,,,,,,,,,,1,8,18,9,,,,,,,AFNE01.jpg,AFSA15.jpg,AFSA07.jpg,AFNE11.jpg,AFSA07.jpg,FS,4,num_2,32,num_4,0.416783870431,,,2017_Jun_06_1045,60.0086420368,FEMA4ImagesEEG,001,200525,
AFNE01.JPG,AFNE01.JPG,AFNE01.JPG,AFNE01.JPG,AFNE01.JPG,AFNE01.JPG,,,,,,,,,,,,,,,,,1,9,19,5,,,,,,,AFSA03.jpg,AFSA02.jpg,AFNE07.jpg,AFNE11.jpg,AFNE07.jpg,FN,3,num_2,32,num_6,0.250155318296,,,2017_Jun_06_1045,60.0086420368,FEMA4ImagesEEG,001,200525,
AFNE01.JPG,AFNE01.JPG,AFNE01.JPG,AFNE01.JPG,AFNE01.JPG,AFNE01.JPG,,,,,,,,,,,,,,,,,2,0,20,3,,,,,,,AFSA18.jpg,AFNE10.jpg,AFSA11.jpg,AFNE12.jpg,AFNE10.jpg,FN,3,num_6,32,num_2,0.316806354327,,,2017_Jun_06_1045,60.0086420368,FEMA4ImagesEEG,001,200525,
AFNE01.JPG,AFNE01.JPG,AFNE01.JPG,AFNE01.JPG,AFNE01.JPG,AFNE01.JPG,,,,,,,,,,,,,,,,,2,1,21,1,,,,,,,AFNE05.jpg,AFNE06.jpg,AFSA16.jpg,AFSA02.jpg,AFNE06.jpg,FN,3,num_6,32,num_4,0.483466338832,,,2017_Jun_06_1045,60.0086420368,FEMA4ImagesEEG,001,200525,
AFNE01.JPG,AFNE01.JPG,AFNE01.JPG,AFNE01.JPG,AFNE01.JPG,AFNE01.JPG,,,,,,,,,,,,,,,,,2,2,22,8,,,,,,,AFNE08.jpg,AFSA06.jpg,AFSA08.jpg,AFNE12.jpg,AFNE12.jpg,FN,3,num_4,16,num_4,0.63347543194,,,2017_Jun_06_1045,60.0086420368,FEMA4ImagesEEG,001,200525,
AFNE01.JPG,AFNE01.JPG,AFNE01.JPG,AFNE01.JPG,AFNE01.JPG,AFNE01.JPG,,,,,,,,,,,,,,,,,2,3,23,0,,,,,,,AFNE19.jpg,AFSA10.jpg,AFSA12.jpg,AFNE18.jpg,AFSA12.jpg,FS,4,num_2,16,num_2,0.483459603274,,,2017_Jun_06_1045,60.0086420368,FEMA4ImagesEEG,001,200525,
AFNE01.JPG,AFNE01.JPG,AFNE01.JPG,AFNE01.JPG,AFNE01.JPG,AFNE01.JPG,,,,,,,,,,,,,,,,,2,4,24,9,,,,,,,AFSA17.jpg,AFNE14.jpg,AFSA18.jpg,AFNE13.jpg,AFSA18.jpg,FS,4,num_2,16,num_2,0.550244067097,,,2017_Jun_06_1045,60.0086420368,FEMA4ImagesEEG,001,200525,
AFNE01.JPG,AFNE01.JPG,AFNE01.JPG,AFNE01.JPG,AFNE01.JPG,AFNE01.JPG,,,,,,,,,,,,,,,,,2,5,25,6,,,,,,,AFNE14.jpg,AFNE07.jpg,AFSA01.jpg,AFSA19.jpg,AFNE07.jpg,FN,3,num_6,16,num_6,0.800105266972,,,2017_Jun_06_1045,60.0086420368,FEMA4ImagesEEG,001,200525,
AFNE01.JPG,AFNE01.JPG,AFNE01.JPG,AFNE01.JPG,AFNE01.JPG,AFNE01.JPG,,,,,,,,,,,,,,,,,2,6,26,5,,,,,,,AFNE13.jpg,AFNE15.jpg,AFSA08.jpg,AFSA06.jpg,AFSA06.jpg,FS,4,num_4,32,num_2,0.533525820123,,,2017_Jun_06_1045,60.0086420368,FEMA4ImagesEEG,001,200525,
AFNE01.JPG,AFNE01.JPG,AFNE01.JPG,AFNE01.JPG,AFNE01.JPG,AFNE01.JPG,,,,,,,,,,,,,,,,,2,7,27,2,,,,,,,AFSA01.jpg,AFNE05.jpg,AFSA08.jpg,AFNE11.jpg,AFNE05.jpg,FN,3,num_6,32,num_2,0.733449419728,,,2017_Jun_06_1045,60.0086420368,FEMA4ImagesEEG,001,200525,
AFNE01.JPG,AFNE01.JPG,AFNE01.JPG,AFNE01.JPG,AFNE01.JPG,AFNE01.JPG,,,,,,,,,,,,,,,,,2,8,28,7,,,,,,,AFNE09.jpg,AFSA20.jpg,AFNE18.jpg,AFSA12.jpg,AFSA20.jpg,FS,4,num_6,16,num_6,0.450119010638,,,2017_Jun_06_1045,60.0086420368,FEMA4ImagesEEG,001,200525,
AFNE01.JPG,AFNE01.JPG,AFNE01.JPG,AFNE01.JPG,AFNE01.JPG,AFNE01.JPG,,,,,,,,,,,,,,,,,2,9,29,4,,,,,,,AFNE08.jpg,AFSA06.jpg,AFNE02.jpg,AFSA14.jpg,AFNE08.jpg,FN,3,num_8,32,num_4,0.600196421146,,,2017_Jun_06_1045,60.0086420368,FEMA4ImagesEEG,001,200525,
AFNE01.JPG,AFNE01.JPG,AFNE01.JPG,AFNE01.JPG,AFNE01.JPG,AFNE01.JPG,,,,,,,,,,,,,,,,,3,0,30,2,,,,,,,AFSA12.jpg,AFSA13.jpg,AFNE07.jpg,AFNE06.jpg,AFNE07.jpg,FN,3,num_2,16,num_2,0.800166528206,,,2017_Jun_06_1045,60.0086420368,FEMA4ImagesEEG,001,200525,
AFNE01.JPG,AFNE01.JPG,AFNE01.JPG,AFNE01.JPG,AFNE01.JPG,AFNE01.JPG,,,,,,,,,,,,,,,,,3,1,31,6,,,,,,,AFSA02.jpg,AFNE20.jpg,AFSA19.jpg,AFNE07.jpg,AFNE07.jpg,FN,3,num_4,16,num_4,0.66679100669,,,2017_Jun_06_1045,60.0086420368,FEMA4ImagesEEG,001,200525,
AFNE01.JPG,AFNE01.JPG,AFNE01.JPG,AFNE01.JPG,AFNE01.JPG,AFNE01.JPG,,,,,,,,,,,,,,,,,3,2,32,3,,,,,,,AFNE01.jpg,AFSA08.jpg,AFSA06.jpg,AFNE10.jpg,AFNE01.jpg,FN,3,num_8,32,num_6,0.633466450963,,,2017_Jun_06_1045,60.0086420368,FEMA4ImagesEEG,001,200525,
AFNE01.JPG,AFNE01.JPG,AFNE01.JPG,AFNE01.JPG,AFNE01.JPG,AFNE01.JPG,,,,,,,,,,,,,,,,,3,3,33,4,,,,,,,AFSA17.jpg,AFNE14.jpg,AFSA04.jpg,AFNE12.jpg,AFNE14.jpg,FN,3,num_6,32,num_4,0.816615674412,,,2017_Jun_06_1045,60.0086420368,FEMA4ImagesEEG,001,200525,
AFNE01.JPG,AFNE01.JPG,AFNE01.JPG,AFNE01.JPG,AFNE01.JPG,AFNE01.JPG,,,,,,,,,,,,,,,,,3,4,34,9,,,,,,,AFNE05.jpg,AFSA05.jpg,AFNE10.jpg,AFSA08.jpg,AFNE10.jpg,FN,3,num_2,32,num_6,0.350133796688,,,2017_Jun_06_1045,60.0086420368,FEMA4ImagesEEG,001,200525,
AFNE01.JPG,AFNE01.JPG,AFNE01.JPG,AFNE01.JPG,AFNE01.JPG,AFNE01.JPG,,,,,,,,,,,,,,,,,3,5,35,0,,,,,,,AFSA10.jpg,AFNE14.jpg,AFNE07.jpg,AFSA09.jpg,AFSA09.jpg,FS,4,num_4,16,num_4,0.55016676872,,,2017_Jun_06_1045,60.0086420368,FEMA4ImagesEEG,001,200525,
AFNE01.JPG,AFNE01.JPG,AFNE01.JPG,AFNE01.JPG,AFNE01.JPG,AFNE01.JPG,,,,,,,,,,,,,,,,,3,6,36,5,,,,,,,AFSA19.jpg,AFNE18.jpg,AFNE12.jpg,AFSA13.jpg,AFNE12.jpg,FN,3,num_2,16,num_2,1.0001167492,,,2017_Jun_06_1045,60.0086420368,FEMA4ImagesEEG,001,200525,
AFNE01.JPG,AFNE01.JPG,AFNE01.JPG,AFNE01.JPG,AFNE01.JPG,AFNE01.JPG,,,,,,,,,,,,,,,,,3,7,37,1,,,,,,,AFSA16.jpg,AFSA20.jpg,AFNE07.jpg,AFNE05.jpg,AFNE05.jpg,FN,3,num_4,32,num_8,0.716766133439,,,2017_Jun_06_1045,60.0086420368,FEMA4ImagesEEG,001,200525,
AFNE01.JPG,AFNE01.JPG,AFNE01.JPG,AFNE01.JPG,AFNE01.JPG,AFNE01.JPG,,,,,,,,,,,,,,,,,3,8,38,8,,,,,,,AFNE20.jpg,AFSA03.jpg,AFSA06.jpg,AFNE08.jpg,AFNE20.jpg,FN,3,num_8,32,num_6,0.399285263149,,,2017_Jun_06_1045,60.0086420368,FEMA4ImagesEEG,001,200525,
AFNE01.JPG,AFNE01.JPG,AFNE01.JPG,AFNE01.JPG,AFNE01.JPG,AFNE01.JPG,,,,,,,,,,,,,,,,,3,9,39,7,,,,,,,AFSA15.jpg,AFSA03.jpg,AFNE19.jpg,AFNE06.jpg,AFNE19.jpg,FN,3,num_2,32,num_4,0.950134566519,,,2017_Jun_06_1045,60.0086420368,FEMA4ImagesEEG,001,200525,
AFNE01.JPG,AFNE01.JPG,AFNE01.JPG,AFNE01.JPG,AFNE01.JPG,AFNE01.JPG,,,,,,,,,,,,,,,,,4,0,40,8,,,,,,,AFSA11.jpg,AFSA09.jpg,AFNE12.jpg,AFNE16.jpg,AFNE12.jpg,FN,3,num_2,32,num_8,0.750141366152,,,2017_Jun_06_1045,60.0086420368,FEMA4ImagesEEG,001,200525,
AFNE01.JPG,AFNE01.JPG,AFNE01.JPG,AFNE01.JPG,AFNE01.JPG,AFNE01.JPG,,,,,,,,,,,,,,,,,4,1,41,6,,,,,,,AFSA19.jpg,AFNE05.jpg,AFSA18.jpg,AFNE03.jpg,AFNE05.jpg,FN,3,num_6,32,num_2,0.699806689983,,,2017_Jun_06_1045,60.0086420368,FEMA4ImagesEEG,001,200525,
AFNE01.JPG,AFNE01.JPG,AFNE01.JPG,AFNE01.JPG,AFNE01.JPG,AFNE01.JPG,,,,,,,,,,,,,,,,,4,2,42,0,,,,,,,AFSA13.jpg,AFSA18.jpg,AFNE06.jpg,AFNE15.jpg,AFNE06.jpg,FN,3,num_2,32,num_4,0.400199371856,,,2017_Jun_06_1045,60.0086420368,FEMA4ImagesEEG,001,200525,
AFNE01.JPG,AFNE01.JPG,AFNE01.JPG,AFNE01.JPG,AFNE01.JPG,AFNE01.JPG,,,,,,,,,,,,,,,,,4,3,43,2,,,,,,,AFNE06.jpg,AFSA10.jpg,AFNE09.jpg,AFSA12.jpg,AFNE06.jpg,FN,3,num_8,32,num_6,0.600157932146,,,2017_Jun_06_1045,60.0086420368,FEMA4ImagesEEG,001,200525,
AFNE01.JPG,AFNE01.JPG,AFNE01.JPG,AFNE01.JPG,AFNE01.JPG,AFNE01.JPG,,,,,,,,,,,,,,,,,4,4,44,5,,,,,,,AFSA06.jpg,AFNE20.jpg,AFNE13.jpg,AFSA07.jpg,AFNE13.jpg,FN,3,num_2,32,num_4,0.700102091534,,,2017_Jun_06_1045,60.0086420368,FEMA4ImagesEEG,001,200525,
AFNE01.JPG,AFNE01.JPG,AFNE01.JPG,AFNE01.JPG,AFNE01.JPG,AFNE01.JPG,,,,,,,,,,,,,,,,,4,5,45,1,,,,,,,AFNE10.jpg,AFNE04.jpg,AFSA01.jpg,AFSA09.jpg,AFNE04.jpg,FN,3,num_6,32,num_2,0.333497017389,,,2017_Jun_06_1045,60.0086420368,FEMA4ImagesEEG,001,200525,
AFNE01.JPG,AFNE01.JPG,AFNE01.JPG,AFNE01.JPG,AFNE01.JPG,AFNE01.JPG,,,,,,,,,,,,,,,,,4,6,46,3,,,,,,,AFNE12.jpg,AFSA14.jpg,AFNE11.jpg,AFSA13.jpg,AFSA13.jpg,FS,4,num_4,16,num_4,0.766848387197,,,2017_Jun_06_1045,60.0086420368,FEMA4ImagesEEG,001,200525,
AFNE01.JPG,AFNE01.JPG,AFNE01.JPG,AFNE01.JPG,AFNE01.JPG,AFNE01.JPG,,,,,,,,,,,,,,,,,4,7,47,7,,,,,,,AFNE03.jpg,AFSA02.jpg,AFNE20.jpg,AFSA10.jpg,AFNE03.jpg,FN,3,num_8,32,num_4,0.367144237738,,,2017_Jun_06_1045,60.0086420368,FEMA4ImagesEEG,001,200525,
AFNE01.JPG,AFNE01.JPG,AFNE01.JPG,AFNE01.JPG,AFNE01.JPG,AFNE01.JPG,,,,,,,,,,,,,,,,,4,8,48,9,,,,,,,AFSA19.jpg,AFNE19.jpg,AFSA01.jpg,AFNE01.jpg,AFNE01.jpg,FN,3,num_4,32,num_6,0.266860094154,,,2017_Jun_06_1045,60.0086420368,FEMA4ImagesEEG,001,200525,
AFNE01.JPG,AFNE01.JPG,AFNE01.JPG,AFNE01.JPG,AFNE01.JPG,AFNE01.JPG,,,,,,,,,,,,,,,,,4,9,49,4,,,,,,,AFNE07.jpg,AFSA12.jpg,AFNE02.jpg,AFSA06.jpg,AFNE07.jpg,FN,3,num_8,32,num_4,0.366761915619,,,2017_Jun_06_1045,60.0086420368,FEMA4ImagesEEG,001,200525,
AFNE01.JPG,AFNE01.JPG,AFNE01.JPG,AFNE01.JPG,AFNE01.JPG,AFNE01.JPG,,,,,,,,,,,,,,,,,5,0,50,5,,,,,,,AFSA10.jpg,AFNE05.jpg,AFNE20.jpg,AFSA20.jpg,AFSA20.jpg,FS,4,num_4,32,num_2,0.333637822419,,,2017_Jun_06_1045,60.0086420368,FEMA4ImagesEEG,001,200525,
AFNE01.JPG,AFNE01.JPG,AFNE01.JPG,AFNE01.JPG,AFNE01.JPG,AFNE01.JPG,,,,,,,,,,,,,,,,,5,1,51,2,,,,,,,AFSA08.jpg,AFNE13.jpg,AFNE14.jpg,AFSA04.jpg,AFSA04.jpg,FS,4,num_4,16,num_4,0.550148807466,,,2017_Jun_06_1045,60.0086420368,FEMA4ImagesEEG,001,200525,
AFNE01.JPG,AFNE01.JPG,AFNE01.JPG,AFNE01.JPG,AFNE01.JPG,AFNE01.JPG,,,,,,,,,,,,,,,,,5,2,52,6,,,,,,,AFNE02.jpg,AFNE06.jpg,AFSA08.jpg,AFSA06.jpg,AFNE06.jpg,FN,3,num_6,16,num_6,0.733565206872,,,2017_Jun_06_1045,60.0086420368,FEMA4ImagesEEG,001,200525,
AFNE01.JPG,AFNE01.JPG,AFNE01.JPG,AFNE01.JPG,AFNE01.JPG,AFNE01.JPG,,,,,,,,,,,,,,,,,5,3,53,0,,,,,,,AFSA10.jpg,AFNE01.jpg,AFSA16.jpg,AFNE08.jpg,AFNE01.jpg,FN,3,num_6,32,num_2,0.566776605556,,,2017_Jun_06_1045,60.0086420368,FEMA4ImagesEEG,001,200525,
AFNE01.JPG,AFNE01.JPG,AFNE01.JPG,AFNE01.JPG,AFNE01.JPG,AFNE01.JPG,,,,,,,,,,,,,,,,,5,4,54,1,,,,,,,AFSA02.jpg,AFNE16.jpg,AFNE05.jpg,AFSA14.jpg,AFNE05.jpg,FN,3,num_2,16,num_2,0.599817948183,,,2017_Jun_06_1045,60.0086420368,FEMA4ImagesEEG,001,200525,
AFNE01.JPG,AFNE01.JPG,AFNE01.JPG,AFNE01.JPG,AFNE01.JPG,AFNE01.JPG,,,,,,,,,,,,,,,,,5,5,55,4,,,,,,,AFNE03.jpg,AFSA16.jpg,AFSA11.jpg,AFNE06.jpg,AFNE03.jpg,FN,3,num_8,16,num_8,0.850146786543,,,2017_Jun_06_1045,60.0086420368,FEMA4ImagesEEG,001,200525,
AFNE01.JPG,AFNE01.JPG,AFNE01.JPG,AFNE01.JPG,AFNE01.JPG,AFNE01.JPG,,,,,,,,,,,,,,,,,5,6,56,9,,,,,,,AFNE12.jpg,AFSA14.jpg,AFNE13.jpg,AFSA18.jpg,AFSA18.jpg,FS,4,num_4,16,num_4,0.550134053454,,,2017_Jun_06_1045,60.0086420368,FEMA4ImagesEEG,001,200525,
AFNE01.JPG,AFNE01.JPG,AFNE01.JPG,AFNE01.JPG,AFNE01.JPG,AFNE01.JPG,,,,,,,,,,,,,,,,,5,7,57,8,,,,,,,AFNE15.jpg,AFSA09.jpg,AFNE11.jpg,AFSA03.jpg,AFNE11.jpg,FN,3,num_2,32,num_6,0.716800452676,,,2017_Jun_06_1045,60.0086420368,FEMA4ImagesEEG,001,200525,
AFNE01.JPG,AFNE01.JPG,AFNE01.JPG,AFNE01.JPG,AFNE01.JPG,AFNE01.JPG,,,,,,,,,,,,,,,,,5,8,58,3,,,,,,,AFSA13.jpg,AFNE14.jpg,AFNE04.jpg,AFSA15.jpg,AFNE04.jpg,FN,3,num_2,16,num_2,0.800119058695,,,2017_Jun_06_1045,60.0086420368,FEMA4ImagesEEG,001,200525,
AFNE01.JPG,AFNE01.JPG,AFNE01.JPG,AFNE01.JPG,AFNE01.JPG,AFNE01.JPG,,,,,,,,,,,,,,,,,5,9,59,7,,,,,,,AFNE11.jpg,AFSA07.jpg,AFNE01.jpg,AFSA13.jpg,AFNE01.jpg,FN,3,num_2,32,num_6,0.833475688472,,,2017_Jun_06_1045,60.0086420368,FEMA4ImagesEEG,001,200525,
,,,,,,,,,,,,,,,,,,,,,,,,,,,,,,,,,,,,,,,,,,,space,1.83336920268,2017_Jun_06_1045,60.0086420368,FEMA4ImagesEEG,001,200525,
AFNE01.JPG,AFNE01.JPG,AFNE01.JPG,AFNE01.JPG,AFNE01.JPG,AFNE01.JPG,,,,,,,,,,,,,,,,,,,,,0,0,0,8,,,AMNE03.jpg,AMSA18.jpg,AMSA04.jpg,AMNE07.jpg,AMSA04.jpg,MS,2,num_2,32,num_6,0.550126355607,,,2017_Jun_06_1045,60.0086420368,FEMA4ImagesEEG,001,200525,
AFNE01.JPG,AFNE01.JPG,AFNE01.JPG,AFNE01.JPG,AFNE01.JPG,AFNE01.JPG,,,,,,,,,,,,,,,,,,,,,0,1,1,2,,,AMNE14.jpg,AMSA18.jpg,AMNE19.jpg,AMSA02.jpg,AMNE19.jpg,MN,1,num_2,16,num_2,0.450152046746,,,2017_Jun_06_1045,60.0086420368,FEMA4ImagesEEG,001,200525,
AFNE01.JPG,AFNE01.JPG,AFNE01.JPG,AFNE01.JPG,AFNE01.JPG,AFNE01.JPG,,,,,,,,,,,,,,,,,,,,,0,2,2,9,,,AMSA06.jpg,AMSA16.jpg,AMNE19.jpg,AMNE16.jpg,AMSA06.jpg,MS,2,num_8,32,num_4,0.750127253588,,,2017_Jun_06_1045,60.0086420368,FEMA4ImagesEEG,001,200525,
AFNE01.JPG,AFNE01.JPG,AFNE01.JPG,AFNE01.JPG,AFNE01.JPG,AFNE01.JPG,,,,,,,,,,,,,,,,,,,,,0,3,3,1,,,AMNE10.jpg,AMNE17.jpg,AMSA07.jpg,AMSA03.jpg,AMNE17.jpg,MN,1,num_6,16,num_6,0.666714349994,,,2017_Jun_06_1045,60.0086420368,FEMA4ImagesEEG,001,200525,
AFNE01.JPG,AFNE01.JPG,AFNE01.JPG,AFNE01.JPG,AFNE01.JPG,AFNE01.JPG,,,,,,,,,,,,,,,,,,,,,0,4,4,4,,,AMNE16.jpg,AMSA02.jpg,AMSA03.jpg,AMNE08.jpg,AMSA03.jpg,MS,2,num_2,16,num_2,0.61680657859,,,2017_Jun_06_1045,60.0086420368,FEMA4ImagesEEG,001,200525,
AFNE01.JPG,AFNE01.JPG,AFNE01.JPG,AFNE01.JPG,AFNE01.JPG,AFNE01.JPG,,,,,,,,,,,,,,,,,,,,,0,5,5,5,,,AMNE03.jpg,AMNE09.jpg,AMSA04.jpg,AMSA16.jpg,AMNE09.jpg,MN,1,num_6,32,num_4,0.300487428438,,,2017_Jun_06_1045,60.0086420368,FEMA4ImagesEEG,001,200525,
AFNE01.JPG,AFNE01.JPG,AFNE01.JPG,AFNE01.JPG,AFNE01.JPG,AFNE01.JPG,,,,,,,,,,,,,,,,,,,,,0,6,6,3,,,AMNE02.jpg,AMSA14.jpg,AMSA17.jpg,AMNE13.jpg,AMNE02.jpg,MN,1,num_8,32,num_6,0.600158894667,,,2017_Jun_06_1045,60.0086420368,FEMA4ImagesEEG,001,200525,
AFNE01.JPG,AFNE01.JPG,AFNE01.JPG,AFNE01.JPG,AFNE01.JPG,AFNE01.JPG,,,,,,,,,,,,,,,,,,,,,0,7,7,7,,,AMSA01.jpg,AMNE02.jpg,AMSA11.jpg,AMNE13.jpg,AMNE02.jpg,MN,1,num_6,32,num_4,0.400135865435,,,2017_Jun_06_1045,60.0086420368,FEMA4ImagesEEG,001,200525,
AFNE01.JPG,AFNE01.JPG,AFNE01.JPG,AFNE01.JPG,AFNE01.JPG,AFNE01.JPG,,,,,,,,,,,,,,,,,,,,,0,8,8,0,,,AMNE07.jpg,AMSA15.jpg,AMNE01.jpg,AMSA05.jpg,AMSA15.jpg,MS,2,num_6,16,num_6,0.45010682242,,,2017_Jun_06_1045,60.0086420368,FEMA4ImagesEEG,001,200525,
AFNE01.JPG,AFNE01.JPG,AFNE01.JPG,AFNE01.JPG,AFNE01.JPG,AFNE01.JPG,,,,,,,,,,,,,,,,,,,,,0,9,9,6,,,AMNE10.jpg,AMNE13.jpg,AMSA05.jpg,AMSA02.jpg,AMNE10.jpg,MN,1,num_8,32,num_2,0.266846302431,,,2017_Jun_06_1045,60.0086420368,FEMA4ImagesEEG,001,200525,
AFNE01.JPG,AFNE01.JPG,AFNE01.JPG,AFNE01.JPG,AFNE01.JPG,AFNE01.JPG,,,,,,,,,,,,,,,,,,,,,1,0,10,0,,,AMNE15.jpg,AMSA18.jpg,AMNE11.jpg,AMSA02.jpg,AMNE11.jpg,MN,1,num_2,32,num_6,0.100214863662,,,2017_Jun_06_1045,60.0086420368,FEMA4ImagesEEG,001,200525,
AFNE01.JPG,AFNE01.JPG,AFNE01.JPG,AFNE01.JPG,AFNE01.JPG,AFNE01.JPG,,,,,,,,,,,,,,,,,,,,,1,1,11,2,,,AMSA12.jpg,AMSA14.jpg,AMNE15.jpg,AMNE05.jpg,AMNE15.jpg,MN,1,num_2,32,num_8,0.466817692388,,,2017_Jun_06_1045,60.0086420368,FEMA4ImagesEEG,001,200525,
AFNE01.JPG,AFNE01.JPG,AFNE01.JPG,AFNE01.JPG,AFNE01.JPG,AFNE01.JPG,,,,,,,,,,,,,,,,,,,,,1,2,12,6,,,AMSA08.jpg,AMNE16.jpg,AMNE17.jpg,AMSA15.jpg,AMNE16.jpg,MN,1,num_6,32,num_2,0.51678512129,,,2017_Jun_06_1045,60.0086420368,FEMA4ImagesEEG,001,200525,
AFNE01.JPG,AFNE01.JPG,AFNE01.JPG,AFNE01.JPG,AFNE01.JPG,AFNE01.JPG,,,,,,,,,,,,,,,,,,,,,1,3,13,9,,,AMSA05.jpg,AMSA17.jpg,AMNE02.jpg,AMNE11.jpg,AMNE02.jpg,MN,1,num_2,32,num_4,0.700168163981,,,2017_Jun_06_1045,60.0086420368,FEMA4ImagesEEG,001,200525,
AFNE01.JPG,AFNE01.JPG,AFNE01.JPG,AFNE01.JPG,AFNE01.JPG,AFNE01.JPG,,,,,,,,,,,,,,,,,,,,,1,4,14,3,,,AMNE04.jpg,AMSA13.jpg,AMNE19.jpg,AMSA11.jpg,AMSA11.jpg,MS,2,num_4,16,num_4,0.516810459783,,,2017_Jun_06_1045,60.0086420368,FEMA4ImagesEEG,001,200525,
AFNE01.JPG,AFNE01.JPG,AFNE01.JPG,AFNE01.JPG,AFNE01.JPG,AFNE01.JPG,,,,,,,,,,,,,,,,,,,,,1,5,15,1,,,AMSA19.jpg,AMSA06.jpg,AMNE11.jpg,AMNE13.jpg,AMSA19.jpg,MS,2,num_8,32,num_6,0.78346528043,,,2017_Jun_06_1045,60.0086420368,FEMA4ImagesEEG,001,200525,
AFNE01.JPG,AFNE01.JPG,AFNE01.JPG,AFNE01.JPG,AFNE01.JPG,AFNE01.JPG,,,,,,,,,,,,,,,,,,,,,1,6,16,7,,,AMSA02.jpg,AMSA09.jpg,AMNE04.jpg,AMNE10.jpg,AMNE04.jpg,MN,1,num_2,32,num_6,0.283533116803,,,2017_Jun_06_1045,60.0086420368,FEMA4ImagesEEG,001,200525,
AFNE01.JPG,AFNE01.JPG,AFNE01.JPG,AFNE01.JPG,AFNE01.JPG,AFNE01.JPG,,,,,,,,,,,,,,,,,,,,,1,7,17,5,,,AMNE18.jpg,AMNE17.jpg,AMSA12.jpg,AMSA19.jpg,AMSA19.jpg,MS,2,num_4,32,num_2,0.700190295,,,2017_Jun_06_1045,60.0086420368,FEMA4ImagesEEG,001,200525,
AFNE01.JPG,AFNE01.JPG,AFNE01.JPG,AFNE01.JPG,AFNE01.JPG,AFNE01.JPG,,,,,,,,,,,,,,,,,,,,,1,8,18,4,,,AMNE18.jpg,AMSA04.jpg,AMSA05.jpg,AMNE03.jpg,AMSA04.jpg,MS,2,num_6,16,num_6,0.46652100794,,,2017_Jun_06_1045,60.0086420368,FEMA4ImagesEEG,001,200525,
AFNE01.JPG,AFNE01.JPG,AFNE01.JPG,AFNE01.JPG,AFNE01.JPG,AFNE01.JPG,,,,,,,,,,,,,,,,,,,,,1,9,19,8,,,AMSA17.jpg,AMNE01.jpg,AMNE06.jpg,AMSA15.jpg,AMNE06.jpg,MN,1,num_2,32,num_8,0.849968134426,,,2017_Jun_06_1045,60.0086420368,FEMA4ImagesEEG,001,200525,
AFNE01.JPG,AFNE01.JPG,AFNE01.JPG,AFNE01.JPG,AFNE01.JPG,AFNE01.JPG,,,,,,,,,,,,,,,,,,,,,2,0,20,8,,,AMSA11.jpg,AMSA14.jpg,AMNE18.jpg,AMNE14.jpg,AMSA14.jpg,MS,2,num_6,16,num_6,0.383552970598,,,2017_Jun_06_1045,60.0086420368,FEMA4ImagesEEG,001,200525,
AFNE01.JPG,AFNE01.JPG,AFNE01.JPG,AFNE01.JPG,AFNE01.JPG,AFNE01.JPG,,,,,,,,,,,,,,,,,,,,,2,1,21,1,,,AMNE09.jpg,AMSA02.jpg,AMNE05.jpg,AMSA20.jpg,AMSA20.jpg,MS,2,num_4,16,num_4,0.316881086444,,,2017_Jun_06_1045,60.0086420368,FEMA4ImagesEEG,001,200525,
AFNE01.JPG,AFNE01.JPG,AFNE01.JPG,AFNE01.JPG,AFNE01.JPG,AFNE01.JPG,,,,,,,,,,,,,,,,,,,,,2,2,22,4,,,AMNE15.jpg,AMSA16.jpg,AMSA19.jpg,AMNE08.jpg,AMSA19.jpg,MS,2,num_2,32,num_6,0.400169542991,,,2017_Jun_06_1045,60.0086420368,FEMA4ImagesEEG,001,200525,
AFNE01.JPG,AFNE01.JPG,AFNE01.JPG,AFNE01.JPG,AFNE01.JPG,AFNE01.JPG,,,,,,,,,,,,,,,,,,,,,2,3,23,0,,,AMSA11.jpg,AMNE18.jpg,AMNE04.jpg,AMSA07.jpg,AMSA07.jpg,MS,2,num_4,16,num_4,0.700155334314,,,2017_Jun_06_1045,60.0086420368,FEMA4ImagesEEG,001,200525,
AFNE01.JPG,AFNE01.JPG,AFNE01.JPG,AFNE01.JPG,AFNE01.JPG,AFNE01.JPG,,,,,,,,,,,,,,,,,,,,,2,4,24,3,,,AMNE12.jpg,AMSA09.jpg,AMNE18.jpg,AMSA01.jpg,AMNE18.jpg,MN,1,num_2,16,num_2,0.433473250829,,,2017_Jun_06_1045,60.0086420368,FEMA4ImagesEEG,001,200525,
AFNE01.JPG,AFNE01.JPG,AFNE01.JPG,AFNE01.JPG,AFNE01.JPG,AFNE01.JPG,,,,,,,,,,,,,,,,,,,,,2,5,25,5,,,AMNE01.jpg,AMSA10.jpg,AMNE07.jpg,AMSA06.jpg,AMNE01.jpg,MN,1,num_8,16,num_8,0.483541712631,,,2017_Jun_06_1045,60.0086420368,FEMA4ImagesEEG,001,200525,
AFNE01.JPG,AFNE01.JPG,AFNE01.JPG,AFNE01.JPG,AFNE01.JPG,AFNE01.JPG,,,,,,,,,,,,,,,,,,,,,2,6,26,6,,,AMNE13.jpg,AMSA05.jpg,AMSA03.jpg,AMNE03.jpg,AMSA05.jpg,MS,2,num_6,32,num_2,0.600031239912,,,2017_Jun_06_1045,60.0086420368,FEMA4ImagesEEG,001,200525,
AFNE01.JPG,AFNE01.JPG,AFNE01.JPG,AFNE01.JPG,AFNE01.JPG,AFNE01.JPG,,,,,,,,,,,,,,,,,,,,,2,7,27,2,,,AMSA04.jpg,AMNE04.jpg,AMNE15.jpg,AMSA10.jpg,AMNE15.jpg,MN,1,num_2,32,num_6,0.483297629748,,,2017_Jun_06_1045,60.0086420368,FEMA4ImagesEEG,001,200525,
AFNE01.JPG,AFNE01.JPG,AFNE01.JPG,AFNE01.JPG,AFNE01.JPG,AFNE01.JPG,,,,,,,,,,,,,,,,,,,,,2,8,28,7,,,AMSA04.jpg,AMNE01.jpg,AMNE03.jpg,AMSA16.jpg,AMNE01.jpg,MN,1,num_6,32,num_4,0.666790044634,,,2017_Jun_06_1045,60.0086420368,FEMA4ImagesEEG,001,200525,
AFNE01.JPG,AFNE01.JPG,AFNE01.JPG,AFNE01.JPG,AFNE01.JPG,AFNE01.JPG,,,,,,,,,,,,,,,,,,,,,2,9,29,9,,,AMSA03.jpg,AMSA07.jpg,AMNE03.jpg,AMNE01.jpg,AMNE01.jpg,MN,1,num_4,32,num_8,0.400132016512,,,2017_Jun_06_1045,60.0086420368,FEMA4ImagesEEG,001,200525,
AFNE01.JPG,AFNE01.JPG,AFNE01.JPG,AFNE01.JPG,AFNE01.JPG,AFNE01.JPG,,,,,,,,,,,,,,,,,,,,,3,0,30,1,,,AMNE19.jpg,AMSA13.jpg,AMSA09.jpg,AMNE05.jpg,AMNE19.jpg,MN,1,num_8,32,num_2,0.600174290128,,,2017_Jun_06_1045,60.0086420368,FEMA4ImagesEEG,001,200525,
AFNE01.JPG,AFNE01.JPG,AFNE01.JPG,AFNE01.JPG,AFNE01.JPG,AFNE01.JPG,,,,,,,,,,,,,,,,,,,,,3,1,31,0,,,AMNE14.jpg,AMNE16.jpg,AMSA14.jpg,AMSA09.jpg,AMSA09.jpg,MS,2,num_4,16,num_4,0.366804574151,,,2017_Jun_06_1045,60.0086420368,FEMA4ImagesEEG,001,200525,
AFNE01.JPG,AFNE01.JPG,AFNE01.JPG,AFNE01.JPG,AFNE01.JPG,AFNE01.JPG,,,,,,,,,,,,,,,,,,,,,3,2,32,4,,,AMNE07.jpg,AMNE05.jpg,AMSA16.jpg,AMSA04.jpg,AMNE05.jpg,MN,1,num_6,16,num_6,0.716770303203,,,2017_Jun_06_1045,60.0086420368,FEMA4ImagesEEG,001,200525,
AFNE01.JPG,AFNE01.JPG,AFNE01.JPG,AFNE01.JPG,AFNE01.JPG,AFNE01.JPG,,,,,,,,,,,,,,,,,,,,,3,3,33,5,,,AMNE20.jpg,AMSA07.jpg,AMNE09.jpg,AMSA20.jpg,AMSA20.jpg,MS,2,num_4,16,num_4,0.550116091734,,,2017_Jun_06_1045,60.0086420368,FEMA4ImagesEEG,001,200525,
AFNE01.JPG,AFNE01.JPG,AFNE01.JPG,AFNE01.JPG,AFNE01.JPG,AFNE01.JPG,,,,,,,,,,,,,,,,,,,,,3,4,34,6,,,AMSA01.jpg,AMNE07.jpg,AMSA10.jpg,AMNE19.jpg,AMSA10.jpg,MS,2,num_2,32,num_4,0.816748139914,,,2017_Jun_06_1045,60.0086420368,FEMA4ImagesEEG,001,200525,
AFNE01.JPG,AFNE01.JPG,AFNE01.JPG,AFNE01.JPG,AFNE01.JPG,AFNE01.JPG,,,,,,,,,,,,,,,,,,,,,3,5,35,9,,,AMSA18.jpg,AMNE06.jpg,AMNE14.jpg,AMSA02.jpg,AMNE14.jpg,MN,1,num_2,32,num_6,0.600127782673,,,2017_Jun_06_1045,60.0086420368,FEMA4ImagesEEG,001,200525,
AFNE01.JPG,AFNE01.JPG,AFNE01.JPG,AFNE01.JPG,AFNE01.JPG,AFNE01.JPG,,,,,,,,,,,,,,,,,,,,,3,6,36,8,,,AMSA18.jpg,AMNE19.jpg,AMNE15.jpg,AMSA08.jpg,AMSA18.jpg,MS,2,num_8,32,num_4,0.383496520575,,,2017_Jun_06_1045,60.0086420368,FEMA4ImagesEEG,001,200525,
AFNE01.JPG,AFNE01.JPG,AFNE01.JPG,AFNE01.JPG,AFNE01.JPG,AFNE01.JPG,,,,,,,,,,,,,,,,,,,,,3,7,37,3,,,AMSA11.jpg,AMNE07.jpg,AMNE10.jpg,AMSA14.jpg,AMNE07.jpg,MN,1,num_6,16,num_6,0.350169719663,,,2017_Jun_06_1045,60.0086420368,FEMA4ImagesEEG,001,200525,
AFNE01.JPG,AFNE01.JPG,AFNE01.JPG,AFNE01.JPG,AFNE01.JPG,AFNE01.JPG,,,,,,,,,,,,,,,,,,,,,3,8,38,7,,,AMNE05.jpg,AMSA16.jpg,AMSA20.jpg,AMNE04.jpg,AMSA16.jpg,MS,2,num_6,16,num_6,0.566666591913,,,2017_Jun_06_1045,60.0086420368,FEMA4ImagesEEG,001,200525,
