IPosition2,IPosition3,IPosition1,IPosition6,IPosition4,IPosition5,TrialsF1.thisRepN,TrialsF1.thisTrialN,TrialsF1.thisN,TrialsF1.thisIndex,TrialsM1.thisRepN,TrialsM1.thisTrialN,TrialsM1.thisN,TrialsM1.thisIndex,TrialsF2.thisRepN,TrialsF2.thisTrialN,TrialsF2.thisN,TrialsF2.thisIndex,TrialsM2.thisRepN,TrialsM2.thisTrialN,TrialsM2.thisN,TrialsM2.thisIndex,TrialsF3.thisRepN,TrialsF3.thisTrialN,TrialsF3.thisN,TrialsF3.thisIndex,TrialsM3.thisRepN,TrialsM3.thisTrialN,TrialsM3.thisN,TrialsM3.thisIndex,InstrKey_resp.keys,InstrKey_resp.rt,Image0 _Position,Image1 _Position,Image2 _Position,Image3 _Position,Center_image,condition,code,correct_answer,accuracy,Key_Resp.keys,Key_Resp.rt,BreakKey_resp.keys,BreakKey_resp.rt,date,frameRate,expName,session,participant,
,,,,,,,,,,,,,,,,,,,,,,,,,,,,,,space,3.86660108622,,,,,,,,,,,,,,2017_Jun_13_1435,60.0067170382,FEMA4ImagesEEG,001,200620,
AFSA25.JPG,AFNE24.JPG,AFSA24.JPG,AFNE21.JPG,AFSA21.JPG,AFNE25.JPG,0,0,0,2,,,,,,,,,,,,,,,,,,,,,,,AFNE10.jpg,AFSA06.jpg,AFNE15.jpg,AFSA16.jpg,AFSA06.jpg,FS,4,num_6,32,num_2,1.01677016378,,,2017_Jun_13_1435,60.0067170382,FEMA4ImagesEEG,001,200620,
AMSA21.JPG,AMNE22.JPG,AMNE21.JPG,AMSA23.JPG,AMSA22.JPG,AMNE23.JPG,0,1,1,1,,,,,,,,,,,,,,,,,,,,,,,AFSA09.jpg,AFSA03.jpg,AFNE18.jpg,AFNE15.jpg,AFSA09.jpg,FS,4,num_8,16,num_8,1.01703605655,,,2017_Jun_13_1435,60.0067170382,FEMA4ImagesEEG,001,200620,
AMSA21.JPG,AMNE23.JPG,AMNE21.JPG,AMSA25.JPG,AMNE25.JPG,AMSA23.JPG,0,2,2,5,,,,,,,,,,,,,,,,,,,,,,,AFSA06.jpg,AFSA10.jpg,AFNE10.jpg,AFNE12.jpg,AFNE10.jpg,FN,3,num_2,32,num_6,0.733511044178,,,2017_Jun_13_1435,60.0067170382,FEMA4ImagesEEG,001,200620,
AMNE22.JPG,AMSA24.JPG,AMSA22.JPG,AMNE25.JPG,AMNE24.JPG,AMSA25.JPG,0,3,3,7,,,,,,,,,,,,,,,,,,,,,,,AFNE02.jpg,AFSA04.jpg,AFSA12.jpg,AFNE20.jpg,AFNE20.jpg,FN,3,num_4,32,num_2,0.700123067596,,,2017_Jun_13_1435,60.0067170382,FEMA4ImagesEEG,001,200620,
AFNE23.JPG,AFNE24.JPG,AFNE22.JPG,AFSA24.JPG,AFSA22.JPG,AFSA23.JPG,0,4,4,8,,,,,,,,,,,,,,,,,,,,,,,AFNE19.jpg,AFNE02.jpg,AFSA14.jpg,AFSA03.jpg,AFSA14.jpg,FS,4,num_2,32,num_4,0.816788702563,,,2017_Jun_13_1435,60.0067170382,FEMA4ImagesEEG,001,200620,
AFSA21.JPG,AFNE23.JPG,AFNE21.JPG,AFSA25.JPG,AFNE25.JPG,AFSA23.JPG,0,5,5,4,,,,,,,,,,,,,,,,,,,,,,,AFNE03.jpg,AFSA10.jpg,AFNE07.jpg,AFSA14.jpg,AFSA10.jpg,FS,4,num_6,32,num_8,1.18342394748,,,2017_Jun_13_1435,60.0067170382,FEMA4ImagesEEG,001,200620,
AMSA25.JPG,AMNE24.JPG,AMSA24.JPG,AMNE26.JPG,AMSA21.JPG,AMNE25.JPG,0,6,6,3,,,,,,,,,,,,,,,,,,,,,,,AFSA20.jpg,AFSA03.jpg,AFNE19.jpg,AFNE07.jpg,AFSA03.jpg,FS,4,num_6,16,num_6,0.55012109509,,,2017_Jun_13_1435,60.0067170382,FEMA4ImagesEEG,001,200620,
AMNE23.JPG,AMNE24.JPG,AMNE22.JPG,AMSA24.JPG,AMSA22.JPG,AMSA23.JPG,0,7,7,9,,,,,,,,,,,,,,,,,,,,,,,AFNE01.jpg,AFSA08.jpg,AFSA14.jpg,AFNE14.jpg,AFSA08.jpg,FS,4,num_6,32,num_2,0.950143995811,,,2017_Jun_13_1435,60.0067170382,FEMA4ImagesEEG,001,200620,
AFSA21.JPG,AFNE22.JPG,AFNE21.JPG,AFSA23.JPG,AFSA22.JPG,AFNE23.JPG,0,8,8,0,,,,,,,,,,,,,,,,,,,,,,,AFNE07.jpg,AFNE06.jpg,AFSA13.jpg,AFSA17.jpg,AFSA17.jpg,FS,4,num_4,32,num_8,1.16677277785,,,2017_Jun_13_1435,60.0067170382,FEMA4ImagesEEG,001,200620,
AFNE22.JPG,AFSA24.JPG,AFSA22.JPG,AFNE25.JPG,AFNE24.JPG,AFSA25.JPG,0,9,9,6,,,,,,,,,,,,,,,,,,,,,,,AFSA15.jpg,AFNE04.jpg,AFSA10.jpg,AFNE17.jpg,AFNE17.jpg,FN,3,num_4,16,num_4,1.18312598084,,,2017_Jun_13_1435,60.0067170382,FEMA4ImagesEEG,001,200620,
AFSA25.JPG,AFNE24.JPG,AFSA24.JPG,AFNE21.JPG,AFSA21.JPG,AFNE25.JPG,,,,,0,0,0,2,,,,,,,,,,,,,,,,,,,AMSA11.jpg,AMSA13.jpg,AMNE05.jpg,AMNE16.jpg,AMSA11.jpg,MS,2,num_8,32,num_6,1.450082895,,,2017_Jun_13_1435,60.0067170382,FEMA4ImagesEEG,001,200620,
AMNE22.JPG,AMSA24.JPG,AMSA22.JPG,AMNE25.JPG,AMNE24.JPG,AMSA25.JPG,,,,,0,1,1,7,,,,,,,,,,,,,,,,,,,AMSA07.jpg,AMNE15.jpg,AMSA19.jpg,AMNE10.jpg,AMNE10.jpg,MN,1,num_4,32,num_8,1.16674423206,,,2017_Jun_13_1435,60.0067170382,FEMA4ImagesEEG,001,200620,
AMNE23.JPG,AMNE24.JPG,AMNE22.JPG,AMSA24.JPG,AMSA22.JPG,AMSA23.JPG,,,,,0,2,2,9,,,,,,,,,,,,,,,,,,,AMSA08.jpg,AMSA11.jpg,AMNE15.jpg,AMNE04.jpg,AMSA08.jpg,MS,2,num_8,32,num_4,0.950235085736,,,2017_Jun_13_1435,60.0067170382,FEMA4ImagesEEG,001,200620,
AFNE23.JPG,AFNE24.JPG,AFNE22.JPG,AFSA24.JPG,AFSA22.JPG,AFSA23.JPG,,,,,0,3,3,8,,,,,,,,,,,,,,,,,,,AMNE17.jpg,AMSA08.jpg,AMNE03.jpg,AMSA01.jpg,AMNE17.jpg,MN,1,num_8,32,num_6,0.916728114942,,,2017_Jun_13_1435,60.0067170382,FEMA4ImagesEEG,001,200620,
AMSA21.JPG,AMNE22.JPG,AMNE21.JPG,AMSA23.JPG,AMSA22.JPG,AMNE23.JPG,,,,,0,4,4,1,,,,,,,,,,,,,,,,,,,AMSA19.jpg,AMSA13.jpg,AMNE17.jpg,AMNE13.jpg,AMNE13.jpg,MN,1,num_4,32,num_8,1.0834005014,,,2017_Jun_13_1435,60.0067170382,FEMA4ImagesEEG,001,200620,
AMSA21.JPG,AMNE23.JPG,AMNE21.JPG,AMSA25.JPG,AMNE25.JPG,AMSA23.JPG,,,,,0,5,5,5,,,,,,,,,,,,,,,,,,,AMNE16.jpg,AMSA08.jpg,AMSA20.jpg,AMNE07.jpg,AMNE07.jpg,MN,1,num_4,16,num_4,0.766743141518,,,2017_Jun_13_1435,60.0067170382,FEMA4ImagesEEG,001,200620,
AFSA21.JPG,AFNE23.JPG,AFNE21.JPG,AFSA25.JPG,AFNE25.JPG,AFSA23.JPG,,,,,0,6,6,4,,,,,,,,,,,,,,,,,,,AMSA15.jpg,AMNE11.jpg,AMSA01.jpg,AMNE08.jpg,AMSA01.jpg,MS,2,num_2,16,num_2,0.866751512862,,,2017_Jun_13_1435,60.0067170382,FEMA4ImagesEEG,001,200620,
AFNE22.JPG,AFSA24.JPG,AFSA22.JPG,AFNE25.JPG,AFNE24.JPG,AFSA25.JPG,,,,,0,7,7,6,,,,,,,,,,,,,,,,,,,AMNE11.jpg,AMSA08.jpg,AMNE14.jpg,AMSA11.jpg,AMSA11.jpg,MS,2,num_4,32,num_8,0.983437033603,,,2017_Jun_13_1435,60.0067170382,FEMA4ImagesEEG,001,200620,
AFSA21.JPG,AFNE22.JPG,AFNE21.JPG,AFSA23.JPG,AFSA22.JPG,AFNE23.JPG,,,,,0,8,8,0,,,,,,,,,,,,,,,,,,,AMNE01.jpg,AMSA01.jpg,AMNE09.jpg,AMSA19.jpg,AMNE09.jpg,MN,1,num_2,32,num_8,0.750162855315,,,2017_Jun_13_1435,60.0067170382,FEMA4ImagesEEG,001,200620,
AMSA25.JPG,AMNE24.JPG,AMSA24.JPG,AMNE26.JPG,AMSA21.JPG,AMNE25.JPG,,,,,0,9,9,3,,,,,,,,,,,,,,,,,,,AMNE07.jpg,AMSA05.jpg,AMNE01.jpg,AMSA19.jpg,AMNE07.jpg,MN,1,num_8,32,num_6,0.433440385386,,,2017_Jun_13_1435,60.0067170382,FEMA4ImagesEEG,001,200620,
AFSA25.JPG,AFNE24.JPG,AFSA24.JPG,AFNE21.JPG,AFSA21.JPG,AFNE25.JPG,,,,,,,,,0,0,0,2,,,,,,,,,,,,,,,AFSA03.jpg,AFSA09.jpg,AFNE14.jpg,AFNE04.jpg,AFNE04.jpg,FN,3,num_4,16,num_4,0.733457801514,,,2017_Jun_13_1435,60.0067170382,FEMA4ImagesEEG,001,200620,
AFSA21.JPG,AFNE22.JPG,AFNE21.JPG,AFSA23.JPG,AFSA22.JPG,AFNE23.JPG,,,,,,,,,0,1,1,0,,,,,,,,,,,,,,,AFNE04.jpg,AFSA20.jpg,AFSA09.jpg,AFNE20.jpg,AFNE04.jpg,FN,3,num_8,16,num_8,0.750115706644,,,2017_Jun_13_1435,60.0067170382,FEMA4ImagesEEG,001,200620,
AMNE22.JPG,AMSA24.JPG,AMSA22.JPG,AMNE25.JPG,AMNE24.JPG,AMSA25.JPG,,,,,,,,,0,2,2,7,,,,,,,,,,,,,,,AFSA02.jpg,AFNE10.jpg,AFSA11.jpg,AFNE03.jpg,AFNE10.jpg,FN,3,num_6,32,num_2,1.46672925353,,,2017_Jun_13_1435,60.0067170382,FEMA4ImagesEEG,001,200620,
AMSA21.JPG,AMNE22.JPG,AMNE21.JPG,AMSA23.JPG,AMSA22.JPG,AMNE23.JPG,,,,,,,,,0,3,3,1,,,,,,,,,,,,,,,AFSA16.jpg,AFSA08.jpg,AFNE05.jpg,AFNE09.jpg,AFSA08.jpg,FS,4,num_6,32,num_4,1.05014787673,,,2017_Jun_13_1435,60.0067170382,FEMA4ImagesEEG,001,200620,
AFNE23.JPG,AFNE24.JPG,AFNE22.JPG,AFSA24.JPG,AFSA22.JPG,AFSA23.JPG,,,,,,,,,0,4,4,8,,,,,,,,,,,,,,,AFSA04.jpg,AFSA14.jpg,AFNE19.jpg,AFNE02.jpg,AFNE19.jpg,FN,3,num_2,32,num_4,1.2335009409,,,2017_Jun_13_1435,60.0067170382,FEMA4ImagesEEG,001,200620,
AMNE23.JPG,AMNE24.JPG,AMNE22.JPG,AMSA24.JPG,AMSA22.JPG,AMSA23.JPG,,,,,,,,,0,5,5,9,,,,,,,,,,,,,,,AFSA18.jpg,AFNE11.jpg,AFSA03.jpg,AFNE01.jpg,AFNE11.jpg,FN,3,num_6,16,num_6,2.08338959632,,,2017_Jun_13_1435,60.0067170382,FEMA4ImagesEEG,001,200620,
AFNE22.JPG,AFSA24.JPG,AFSA22.JPG,AFNE25.JPG,AFNE24.JPG,AFSA25.JPG,,,,,,,,,0,6,6,6,,,,,,,,,,,,,,,AFSA11.jpg,AFNE01.jpg,AFSA06.jpg,AFNE14.jpg,AFSA06.jpg,FS,4,num_2,32,num_8,0.750151308661,,,2017_Jun_13_1435,60.0067170382,FEMA4ImagesEEG,001,200620,
AFSA21.JPG,AFNE23.JPG,AFNE21.JPG,AFSA25.JPG,AFNE25.JPG,AFSA23.JPG,,,,,,,,,0,7,7,4,,,,,,,,,,,,,,,AFSA19.jpg,AFNE09.jpg,AFNE17.jpg,AFSA10.jpg,AFSA10.jpg,FS,4,num_4,32,num_8,1.00013599335,,,2017_Jun_13_1435,60.0067170382,FEMA4ImagesEEG,001,200620,
AMSA21.JPG,AMNE23.JPG,AMNE21.JPG,AMSA25.JPG,AMNE25.JPG,AMSA23.JPG,,,,,,,,,0,8,8,5,,,,,,,,,,,,,,,AFSA08.jpg,AFNE16.jpg,AFSA14.jpg,AFNE19.jpg,AFSA14.jpg,FS,4,num_2,32,num_8,0.933481279586,,,2017_Jun_13_1435,60.0067170382,FEMA4ImagesEEG,001,200620,
AMSA25.JPG,AMNE24.JPG,AMSA24.JPG,AMNE26.JPG,AMSA21.JPG,AMNE25.JPG,,,,,,,,,0,9,9,3,,,,,,,,,,,,,,,AFNE17.jpg,AFSA17.jpg,AFSA07.jpg,AFNE08.jpg,AFSA17.jpg,FS,4,num_6,32,num_4,0.950102620467,,,2017_Jun_13_1435,60.0067170382,FEMA4ImagesEEG,001,200620,
AMNE23.JPG,AMNE24.JPG,AMNE22.JPG,AMSA24.JPG,AMSA22.JPG,AMSA23.JPG,,,,,,,,,,,,,0,0,0,9,,,,,,,,,,,AMNE04.jpg,AMSA10.jpg,AMSA07.jpg,AMNE12.jpg,AMNE12.jpg,MN,1,num_4,32,num_2,2.35000075371,,,2017_Jun_13_1435,60.0067170382,FEMA4ImagesEEG,001,200620,
AMNE22.JPG,AMSA24.JPG,AMSA22.JPG,AMNE25.JPG,AMNE24.JPG,AMSA25.JPG,,,,,,,,,,,,,0,1,1,7,,,,,,,,,,,AMSA02.jpg,AMNE10.jpg,AMNE06.jpg,AMSA18.jpg,AMSA02.jpg,MS,2,num_8,32,num_4,0.900213580113,,,2017_Jun_13_1435,60.0067170382,FEMA4ImagesEEG,001,200620,
AFSA21.JPG,AFNE22.JPG,AFNE21.JPG,AFSA23.JPG,AFSA22.JPG,AFNE23.JPG,,,,,,,,,,,,,0,2,2,0,,,,,,,,,,,AMSA10.jpg,AMNE02.jpg,AMSA03.jpg,AMNE17.jpg,AMSA10.jpg,MS,2,num_8,16,num_8,0.933435734652,,,2017_Jun_13_1435,60.0067170382,FEMA4ImagesEEG,001,200620,
AMSA21.JPG,AMNE23.JPG,AMNE21.JPG,AMSA25.JPG,AMNE25.JPG,AMSA23.JPG,,,,,,,,,,,,,0,3,3,5,,,,,,,,,,,AMSA09.jpg,AMNE10.jpg,AMSA07.jpg,AMNE05.jpg,AMNE05.jpg,MN,1,num_4,16,num_4,1.41672538867,,,2017_Jun_13_1435,60.0067170382,FEMA4ImagesEEG,001,200620,
AFNE23.JPG,AFNE24.JPG,AFNE22.JPG,AFSA24.JPG,AFSA22.JPG,AFSA23.JPG,,,,,,,,,,,,,0,4,4,8,,,,,,,,,,,AMSA01.jpg,AMSA05.jpg,AMNE07.jpg,AMNE18.jpg,AMSA05.jpg,MS,2,num_6,32,num_2,0.866730985581,,,2017_Jun_13_1435,60.0067170382,FEMA4ImagesEEG,001,200620,
AMSA25.JPG,AMNE24.JPG,AMSA24.JPG,AMNE26.JPG,AMSA21.JPG,AMNE25.JPG,,,,,,,,,,,,,0,5,5,3,,,,,,,,,,,AMNE06.jpg,AMSA07.jpg,AMNE11.jpg,AMSA08.jpg,AMSA08.jpg,MS,2,num_4,32,num_6,1.00012252229,,,2017_Jun_13_1435,60.0067170382,FEMA4ImagesEEG,001,200620,
AMSA21.JPG,AMNE22.JPG,AMNE21.JPG,AMSA23.JPG,AMSA22.JPG,AMNE23.JPG,,,,,,,,,,,,,0,6,6,1,,,,,,,,,,,AMSA08.jpg,AMNE12.jpg,AMNE20.jpg,AMSA11.jpg,AMSA11.jpg,MS,2,num_4,16,num_4,1.55009319074,,,2017_Jun_13_1435,60.0067170382,FEMA4ImagesEEG,001,200620,
AFSA21.JPG,AFNE23.JPG,AFNE21.JPG,AFSA25.JPG,AFNE25.JPG,AFSA23.JPG,,,,,,,,,,,,,0,7,7,4,,,,,,,,,,,AMSA10.jpg,AMNE06.jpg,AMNE13.jpg,AMSA06.jpg,AMSA06.jpg,MS,2,num_4,32,num_2,1.16676475934,,,2017_Jun_13_1435,60.0067170382,FEMA4ImagesEEG,001,200620,
AFNE22.JPG,AFSA24.JPG,AFSA22.JPG,AFNE25.JPG,AFNE24.JPG,AFSA25.JPG,,,,,,,,,,,,,0,8,8,6,,,,,,,,,,,AMNE11.jpg,AMSA12.jpg,AMSA06.jpg,AMNE03.jpg,AMSA12.jpg,MS,2,num_6,32,num_8,0.733547287702,,,2017_Jun_13_1435,60.0067170382,FEMA4ImagesEEG,001,200620,
AFSA25.JPG,AFNE24.JPG,AFSA24.JPG,AFNE21.JPG,AFSA21.JPG,AFNE25.JPG,,,,,,,,,,,,,0,9,9,2,,,,,,,,,,,AMSA08.jpg,AMNE19.jpg,AMSA02.jpg,AMNE08.jpg,AMNE08.jpg,MN,1,num_4,32,num_8,1.0001090513,,,2017_Jun_13_1435,60.0067170382,FEMA4ImagesEEG,001,200620,
AFSA25.JPG,AFNE24.JPG,AFSA24.JPG,AFNE21.JPG,AFSA21.JPG,AFNE25.JPG,,,,,,,,,,,,,,,,,0,0,0,2,,,,,,,AFNE01.jpg,AFSA06.jpg,AFNE06.jpg,AFSA04.jpg,AFNE01.jpg,FN,3,num_8,32,num_6,0.833469380159,,,2017_Jun_13_1435,60.0067170382,FEMA4ImagesEEG,001,200620,
AFNE22.JPG,AFSA24.JPG,AFSA22.JPG,AFNE25.JPG,AFNE24.JPG,AFSA25.JPG,,,,,,,,,,,,,,,,,0,1,1,6,,,,,,,AFNE17.jpg,AFSA17.jpg,AFSA01.jpg,AFNE12.jpg,AFNE17.jpg,FN,3,num_8,32,num_6,0.866759852041,,,2017_Jun_13_1435,60.0067170382,FEMA4ImagesEEG,001,200620,
AFSA21.JPG,AFNE23.JPG,AFNE21.JPG,AFSA25.JPG,AFNE25.JPG,AFSA23.JPG,,,,,,,,,,,,,,,,,0,2,2,4,,,,,,,AFNE09.jpg,AFNE15.jpg,AFSA09.jpg,AFSA02.jpg,AFSA02.jpg,FS,4,num_4,16,num_4,1.01675348537,,,2017_Jun_13_1435,60.0067170382,FEMA4ImagesEEG,001,200620,
AMNE22.JPG,AMSA24.JPG,AMSA22.JPG,AMNE25.JPG,AMNE24.JPG,AMSA25.JPG,,,,,,,,,,,,,,,,,0,3,3,7,,,,,,,AFNE05.jpg,AFSA09.jpg,AFSA10.jpg,AFNE07.jpg,AFNE05.jpg,FN,3,num_8,16,num_8,1.16678689036,,,2017_Jun_13_1435,60.0067170382,FEMA4ImagesEEG,001,200620,
AMSA21.JPG,AMNE22.JPG,AMNE21.JPG,AMSA23.JPG,AMSA22.JPG,AMNE23.JPG,,,,,,,,,,,,,,,,,0,4,4,1,,,,,,,AFSA06.jpg,AFSA19.jpg,AFNE06.jpg,AFNE15.jpg,AFNE06.jpg,FN,3,num_2,32,num_4,0.916840052872,,,2017_Jun_13_1435,60.0067170382,FEMA4ImagesEEG,001,200620,
AFSA21.JPG,AFNE22.JPG,AFNE21.JPG,AFSA23.JPG,AFSA22.JPG,AFNE23.JPG,,,,,,,,,,,,,,,,,0,5,5,0,,,,,,,AFSA07.jpg,AFNE05.jpg,AFSA11.jpg,AFNE17.jpg,AFSA07.jpg,FS,4,num_8,16,num_8,1.23341915244,,,2017_Jun_13_1435,60.0067170382,FEMA4ImagesEEG,001,200620,
AFNE23.JPG,AFNE24.JPG,AFNE22.JPG,AFSA24.JPG,AFSA22.JPG,AFSA23.JPG,,,,,,,,,,,,,,,,,0,6,6,8,,,,,,,AFSA20.jpg,AFNE10.jpg,AFNE01.jpg,AFSA02.jpg,AFNE10.jpg,FN,3,num_6,16,num_6,1.00014080445,,,2017_Jun_13_1435,60.0067170382,FEMA4ImagesEEG,001,200620,
AMSA25.JPG,AMNE24.JPG,AMSA24.JPG,AMNE26.JPG,AMSA21.JPG,AMNE25.JPG,,,,,,,,,,,,,,,,,0,7,7,3,,,,,,,AFNE04.jpg,AFSA14.jpg,AFNE08.jpg,AFSA02.jpg,AFNE04.jpg,FN,3,num_8,16,num_8,0.71678385936,,,2017_Jun_13_1435,60.0067170382,FEMA4ImagesEEG,001,200620,
AMNE23.JPG,AMNE24.JPG,AMNE22.JPG,AMSA24.JPG,AMSA22.JPG,AMSA23.JPG,,,,,,,,,,,,,,,,,0,8,8,9,,,,,,,AFSA06.jpg,AFSA15.jpg,AFNE11.jpg,AFNE19.jpg,AFSA15.jpg,FS,4,num_6,16,num_6,0.916859617922,,,2017_Jun_13_1435,60.0067170382,FEMA4ImagesEEG,001,200620,
AMSA21.JPG,AMNE23.JPG,AMNE21.JPG,AMSA25.JPG,AMNE25.JPG,AMSA23.JPG,,,,,,,,,,,,,,,,,0,9,9,5,,,,,,,AFSA13.jpg,AFSA10.jpg,AFNE08.jpg,AFNE01.jpg,AFNE08.jpg,FN,3,num_2,32,num_4,0.98351369024,,,2017_Jun_13_1435,60.0067170382,FEMA4ImagesEEG,001,200620,
AFSA21.JPG,AFNE22.JPG,AFNE21.JPG,AFSA23.JPG,AFSA22.JPG,AFNE23.JPG,,,,,,,,,,,,,,,,,,,,,0,0,0,0,,,AMSA20.jpg,AMNE02.jpg,AMNE09.jpg,AMSA19.jpg,AMSA19.jpg,MS,2,num_4,32,num_8,0.733495007211,,,2017_Jun_13_1435,60.0067170382,FEMA4ImagesEEG,001,200620,
AFNE23.JPG,AFNE24.JPG,AFNE22.JPG,AFSA24.JPG,AFSA22.JPG,AFSA23.JPG,,,,,,,,,,,,,,,,,,,,,0,1,1,8,,,AMNE16.jpg,AMSA09.jpg,AMSA01.jpg,AMNE08.jpg,AMSA09.jpg,MS,2,num_6,32,num_4,0.850143001531,,,2017_Jun_13_1435,60.0067170382,FEMA4ImagesEEG,001,200620,
AMSA25.JPG,AMNE24.JPG,AMSA24.JPG,AMNE26.JPG,AMSA21.JPG,AMNE25.JPG,,,,,,,,,,,,,,,,,,,,,0,2,2,3,,,AMNE11.jpg,AMSA01.jpg,AMSA06.jpg,AMNE06.jpg,AMNE11.jpg,MN,1,num_8,16,num_8,0.800149721035,,,2017_Jun_13_1435,60.0067170382,FEMA4ImagesEEG,001,200620,
AMSA21.JPG,AMNE22.JPG,AMNE21.JPG,AMSA23.JPG,AMSA22.JPG,AMNE23.JPG,,,,,,,,,,,,,,,,,,,,,0,3,3,1,,,AMNE20.jpg,AMSA13.jpg,AMNE03.jpg,AMSA08.jpg,AMSA13.jpg,MS,2,num_6,32,num_8,0.816484000417,,,2017_Jun_13_1435,60.0067170382,FEMA4ImagesEEG,001,200620,
AMNE22.JPG,AMSA24.JPG,AMSA22.JPG,AMNE25.JPG,AMNE24.JPG,AMSA25.JPG,,,,,,,,,,,,,,,,,,,,,0,4,4,7,,,AMSA12.jpg,AMSA16.jpg,AMNE11.jpg,AMNE02.jpg,AMSA12.jpg,MS,2,num_8,32,num_2,0.616814939014,,,2017_Jun_13_1435,60.0067170382,FEMA4ImagesEEG,001,200620,
AFNE22.JPG,AFSA24.JPG,AFSA22.JPG,AFNE25.JPG,AFNE24.JPG,AFSA25.JPG,,,,,,,,,,,,,,,,,,,,,0,5,5,6,,,AMNE13.jpg,AMSA01.jpg,AMSA10.jpg,AMNE03.jpg,AMNE13.jpg,MN,1,num_8,32,num_6,0.750182420365,,,2017_Jun_13_1435,60.0067170382,FEMA4ImagesEEG,001,200620,
AMNE23.JPG,AMNE24.JPG,AMNE22.JPG,AMSA24.JPG,AMSA22.JPG,AMSA23.JPG,,,,,,,,,,,,,,,,,,,,,0,6,6,9,,,AMNE15.jpg,AMSA06.jpg,AMNE11.jpg,AMSA01.jpg,AMSA01.jpg,MS,2,num_4,16,num_4,0.749961110414,,,2017_Jun_13_1435,60.0067170382,FEMA4ImagesEEG,001,200620,
AFSA25.JPG,AFNE24.JPG,AFSA24.JPG,AFNE21.JPG,AFSA21.JPG,AFNE25.JPG,,,,,,,,,,,,,,,,,,,,,0,7,7,2,,,AMNE03.jpg,AMNE09.jpg,AMSA03.jpg,AMSA15.jpg,AMNE03.jpg,MN,1,num_8,16,num_8,0.866633801605,,,2017_Jun_13_1435,60.0067170382,FEMA4ImagesEEG,001,200620,
AMSA21.JPG,AMNE23.JPG,AMNE21.JPG,AMSA25.JPG,AMNE25.JPG,AMSA23.JPG,,,,,,,,,,,,,,,,,,,,,0,8,8,5,,,AMSA04.jpg,AMNE20.jpg,AMSA12.jpg,AMNE06.jpg,AMNE06.jpg,MN,1,num_4,16,num_4,0.85008815513,,,2017_Jun_13_1435,60.0067170382,FEMA4ImagesEEG,001,200620,
AFSA21.JPG,AFNE23.JPG,AFNE21.JPG,AFSA25.JPG,AFNE25.JPG,AFSA23.JPG,,,,,,,,,,,,,,,,,,,,,0,9,9,4,,,AMNE02.jpg,AMSA05.jpg,AMNE14.jpg,AMSA14.jpg,AMNE02.jpg,MN,1,num_8,32,num_6,0.650135560427,,,2017_Jun_13_1435,60.0067170382,FEMA4ImagesEEG,001,200620,
,,,,,,,,,,,,,,,,,,,,,,,,,,,,,,,,,,,,,,,,,,,space,13.0325322447,2017_Jun_13_1435,60.0067170382,FEMA4ImagesEEG,001,200620,
AFNE01.JPG,AFNE01.JPG,AFNE01.JPG,AFNE01.JPG,AFNE01.JPG,AFNE01.JPG,0,0,0,7,,,,,,,,,,,,,,,,,,,,,,,AFNE03.jpg,AFNE08.jpg,AFSA01.jpg,AFSA11.jpg,AFNE03.jpg,FN,3,num_8,32,num_6,0.683448163269,,,2017_Jun_13_1435,60.0067170382,FEMA4ImagesEEG,001,200620,
AFNE01.JPG,AFNE01.JPG,AFNE01.JPG,AFNE01.JPG,AFNE01.JPG,AFNE01.JPG,0,1,1,0,,,,,,,,,,,,,,,,,,,,,,,AFSA07.jpg,AFSA05.jpg,AFNE16.jpg,AFNE02.jpg,AFNE16.jpg,FN,3,num_2,16,num_2,1.01673488249,,,2017_Jun_13_1435,60.0067170382,FEMA4ImagesEEG,001,200620,
AFNE01.JPG,AFNE01.JPG,AFNE01.JPG,AFNE01.JPG,AFNE01.JPG,AFNE01.JPG,0,2,2,2,,,,,,,,,,,,,,,,,,,,,,,AFNE03.jpg,AFSA06.jpg,AFNE10.jpg,AFSA09.jpg,AFNE10.jpg,FN,3,num_2,32,num_8,0.650154163246,,,2017_Jun_13_1435,60.0067170382,FEMA4ImagesEEG,001,200620,
AFNE01.JPG,AFNE01.JPG,AFNE01.JPG,AFNE01.JPG,AFNE01.JPG,AFNE01.JPG,0,3,3,4,,,,,,,,,,,,,,,,,,,,,,,AFSA15.jpg,AFSA07.jpg,AFNE18.jpg,AFNE20.jpg,AFSA07.jpg,FS,4,num_6,32,num_4,0.6835107074,,,2017_Jun_13_1435,60.0067170382,FEMA4ImagesEEG,001,200620,
AFNE01.JPG,AFNE01.JPG,AFNE01.JPG,AFNE01.JPG,AFNE01.JPG,AFNE01.JPG,0,4,4,5,,,,,,,,,,,,,,,,,,,,,,,AFSA11.jpg,AFSA06.jpg,AFNE19.jpg,AFNE06.jpg,AFNE19.jpg,FN,3,num_2,32,num_6,0.883437001554,,,2017_Jun_13_1435,60.0067170382,FEMA4ImagesEEG,001,200620,
AFNE01.JPG,AFNE01.JPG,AFNE01.JPG,AFNE01.JPG,AFNE01.JPG,AFNE01.JPG,0,5,5,9,,,,,,,,,,,,,,,,,,,,,,,AFNE12.jpg,AFSA03.jpg,AFNE15.jpg,AFSA12.jpg,AFNE15.jpg,FN,3,num_2,16,num_2,0.766795742791,,,2017_Jun_13_1435,60.0067170382,FEMA4ImagesEEG,001,200620,
AFNE01.JPG,AFNE01.JPG,AFNE01.JPG,AFNE01.JPG,AFNE01.JPG,AFNE01.JPG,0,6,6,3,,,,,,,,,,,,,,,,,,,,,,,AFNE16.jpg,AFSA01.jpg,AFNE11.jpg,AFSA20.jpg,AFSA01.jpg,FS,4,num_6,32,num_8,0.983512407343,,,2017_Jun_13_1435,60.0067170382,FEMA4ImagesEEG,001,200620,
AFNE01.JPG,AFNE01.JPG,AFNE01.JPG,AFNE01.JPG,AFNE01.JPG,AFNE01.JPG,0,7,7,1,,,,,,,,,,,,,,,,,,,,,,,AFNE16.jpg,AFNE13.jpg,AFSA05.jpg,AFSA12.jpg,AFNE13.jpg,FN,3,num_6,16,num_6,0.750127573963,,,2017_Jun_13_1435,60.0067170382,FEMA4ImagesEEG,001,200620,
AFNE01.JPG,AFNE01.JPG,AFNE01.JPG,AFNE01.JPG,AFNE01.JPG,AFNE01.JPG,0,8,8,6,,,,,,,,,,,,,,,,,,,,,,,AFSA19.jpg,AFNE18.jpg,AFSA11.jpg,AFNE07.jpg,AFNE18.jpg,FN,3,num_6,32,num_8,0.833437306283,,,2017_Jun_13_1435,60.0067170382,FEMA4ImagesEEG,001,200620,
AFNE01.JPG,AFNE01.JPG,AFNE01.JPG,AFNE01.JPG,AFNE01.JPG,AFNE01.JPG,0,9,9,8,,,,,,,,,,,,,,,,,,,,,,,AFSA15.jpg,AFNE17.jpg,AFNE05.jpg,AFSA05.jpg,AFSA05.jpg,FS,4,num_4,32,num_2,0.733344901295,,,2017_Jun_13_1435,60.0067170382,FEMA4ImagesEEG,001,200620,
AFNE01.JPG,AFNE01.JPG,AFNE01.JPG,AFNE01.JPG,AFNE01.JPG,AFNE01.JPG,1,0,10,0,,,,,,,,,,,,,,,,,,,,,,,AFSA03.jpg,AFNE07.jpg,AFNE04.jpg,AFSA16.jpg,AFNE07.jpg,FN,3,num_6,32,num_2,0.983463654993,,,2017_Jun_13_1435,60.0067170382,FEMA4ImagesEEG,001,200620,
AFNE01.JPG,AFNE01.JPG,AFNE01.JPG,AFNE01.JPG,AFNE01.JPG,AFNE01.JPG,1,1,11,8,,,,,,,,,,,,,,,,,,,,,,,AFNE15.jpg,AFNE01.jpg,AFSA01.jpg,AFSA03.jpg,AFSA03.jpg,FS,4,num_4,32,num_6,1.26678563951,,,2017_Jun_13_1435,60.0067170382,FEMA4ImagesEEG,001,200620,
AFNE01.JPG,AFNE01.JPG,AFNE01.JPG,AFNE01.JPG,AFNE01.JPG,AFNE01.JPG,1,2,12,1,,,,,,,,,,,,,,,,,,,,,,,AFSA06.jpg,AFSA10.jpg,AFNE03.jpg,AFNE02.jpg,AFSA06.jpg,FS,4,num_8,32,num_4,1.2167275697,,,2017_Jun_13_1435,60.0067170382,FEMA4ImagesEEG,001,200620,
AFNE01.JPG,AFNE01.JPG,AFNE01.JPG,AFNE01.JPG,AFNE01.JPG,AFNE01.JPG,1,3,13,5,,,,,,,,,,,,,,,,,,,,,,,AFNE18.jpg,AFSA16.jpg,AFNE11.jpg,AFSA06.jpg,AFSA16.jpg,FS,4,num_6,32,num_4,0.750181458134,,,2017_Jun_13_1435,60.0067170382,FEMA4ImagesEEG,001,200620,
AFNE01.JPG,AFNE01.JPG,AFNE01.JPG,AFNE01.JPG,AFNE01.JPG,AFNE01.JPG,1,4,14,3,,,,,,,,,,,,,,,,,,,,,,,AFNE06.jpg,AFSA12.jpg,AFNE07.jpg,AFSA11.jpg,AFNE06.jpg,FN,3,num_8,16,num_8,0.750060860242,,,2017_Jun_13_1435,60.0067170382,FEMA4ImagesEEG,001,200620,
AFNE01.JPG,AFNE01.JPG,AFNE01.JPG,AFNE01.JPG,AFNE01.JPG,AFNE01.JPG,1,5,15,9,,,,,,,,,,,,,,,,,,,,,,,AFNE20.jpg,AFSA02.jpg,AFSA05.jpg,AFNE13.jpg,AFSA05.jpg,FS,4,num_2,16,num_2,0.883465868072,,,2017_Jun_13_1435,60.0067170382,FEMA4ImagesEEG,001,200620,
AFNE01.JPG,AFNE01.JPG,AFNE01.JPG,AFNE01.JPG,AFNE01.JPG,AFNE01.JPG,1,6,16,2,,,,,,,,,,,,,,,,,,,,,,,AFNE05.jpg,AFSA19.jpg,AFSA16.jpg,AFNE12.jpg,AFSA16.jpg,FS,4,num_2,16,num_2,1.23347143288,,,2017_Jun_13_1435,60.0067170382,FEMA4ImagesEEG,001,200620,
AFNE01.JPG,AFNE01.JPG,AFNE01.JPG,AFNE01.JPG,AFNE01.JPG,AFNE01.JPG,1,7,17,4,,,,,,,,,,,,,,,,,,,,,,,AFNE02.jpg,AFSA09.jpg,AFSA17.jpg,AFNE20.jpg,AFSA17.jpg,FS,4,num_2,16,num_2,0.716752106207,,,2017_Jun_13_1435,60.0067170382,FEMA4ImagesEEG,001,200620,
AFNE01.JPG,AFNE01.JPG,AFNE01.JPG,AFNE01.JPG,AFNE01.JPG,AFNE01.JPG,1,8,18,7,,,,,,,,,,,,,,,,,,,,,,,AFSA16.jpg,AFSA04.jpg,AFNE13.jpg,AFNE09.jpg,AFNE09.jpg,FN,3,num_4,32,num_8,0.966729734675,,,2017_Jun_13_1435,60.0067170382,FEMA4ImagesEEG,001,200620,
AFNE01.JPG,AFNE01.JPG,AFNE01.JPG,AFNE01.JPG,AFNE01.JPG,AFNE01.JPG,1,9,19,6,,,,,,,,,,,,,,,,,,,,,,,AFNE15.jpg,AFSA02.jpg,AFNE16.jpg,AFSA01.jpg,AFNE16.jpg,FN,3,num_2,32,num_6,0.800117005594,,,2017_Jun_13_1435,60.0067170382,FEMA4ImagesEEG,001,200620,
AFNE01.JPG,AFNE01.JPG,AFNE01.JPG,AFNE01.JPG,AFNE01.JPG,AFNE01.JPG,2,0,20,2,,,,,,,,,,,,,,,,,,,,,,,AFNE10.jpg,AFSA18.jpg,AFSA14.jpg,AFNE05.jpg,AFSA18.jpg,FS,4,num_6,32,num_2,0.883496979775,,,2017_Jun_13_1435,60.0067170382,FEMA4ImagesEEG,001,200620,
AFNE01.JPG,AFNE01.JPG,AFNE01.JPG,AFNE01.JPG,AFNE01.JPG,AFNE01.JPG,2,1,21,5,,,,,,,,,,,,,,,,,,,,,,,AFNE16.jpg,AFSA05.jpg,AFSA18.jpg,AFNE14.jpg,AFSA18.jpg,FS,4,num_2,16,num_2,0.600133299129,,,2017_Jun_13_1435,60.0067170382,FEMA4ImagesEEG,001,200620,
AFNE01.JPG,AFNE01.JPG,AFNE01.JPG,AFNE01.JPG,AFNE01.JPG,AFNE01.JPG,2,2,22,4,,,,,,,,,,,,,,,,,,,,,,,AFNE07.jpg,AFNE09.jpg,AFSA08.jpg,AFSA12.jpg,AFSA08.jpg,FS,4,num_2,32,num_4,0.866748626169,,,2017_Jun_13_1435,60.0067170382,FEMA4ImagesEEG,001,200620,
AFNE01.JPG,AFNE01.JPG,AFNE01.JPG,AFNE01.JPG,AFNE01.JPG,AFNE01.JPG,2,3,23,6,,,,,,,,,,,,,,,,,,,,,,,AFNE13.jpg,AFSA18.jpg,AFNE15.jpg,AFSA01.jpg,AFSA18.jpg,FS,4,num_6,32,num_8,0.983468145307,,,2017_Jun_13_1435,60.0067170382,FEMA4ImagesEEG,001,200620,
AFNE01.JPG,AFNE01.JPG,AFNE01.JPG,AFNE01.JPG,AFNE01.JPG,AFNE01.JPG,2,4,24,8,,,,,,,,,,,,,,,,,,,,,,,AFNE06.jpg,AFNE03.jpg,AFSA10.jpg,AFSA03.jpg,AFNE06.jpg,FN,3,num_8,32,num_2,0.60012912954,,,2017_Jun_13_1435,60.0067170382,FEMA4ImagesEEG,001,200620,
AFNE01.JPG,AFNE01.JPG,AFNE01.JPG,AFNE01.JPG,AFNE01.JPG,AFNE01.JPG,2,5,25,9,,,,,,,,,,,,,,,,,,,,,,,AFSA01.jpg,AFNE13.jpg,AFSA17.jpg,AFNE20.jpg,AFNE20.jpg,FN,3,num_4,16,num_4,0.900091057876,,,2017_Jun_13_1435,60.0067170382,FEMA4ImagesEEG,001,200620,
AFNE01.JPG,AFNE01.JPG,AFNE01.JPG,AFNE01.JPG,AFNE01.JPG,AFNE01.JPG,2,6,26,0,,,,,,,,,,,,,,,,,,,,,,,AFNE01.jpg,AFSA19.jpg,AFNE04.jpg,AFSA14.jpg,AFNE04.jpg,FN,3,num_2,16,num_2,0.716829404351,,,2017_Jun_13_1435,60.0067170382,FEMA4ImagesEEG,001,200620,
AFNE01.JPG,AFNE01.JPG,AFNE01.JPG,AFNE01.JPG,AFNE01.JPG,AFNE01.JPG,2,7,27,3,,,,,,,,,,,,,,,,,,,,,,,AFSA15.jpg,AFNE09.jpg,AFNE06.jpg,AFSA17.jpg,AFSA17.jpg,FS,4,num_4,32,num_8,0.750142007251,,,2017_Jun_13_1435,60.0067170382,FEMA4ImagesEEG,001,200620,
AFNE01.JPG,AFNE01.JPG,AFNE01.JPG,AFNE01.JPG,AFNE01.JPG,AFNE01.JPG,2,8,28,1,,,,,,,,,,,,,,,,,,,,,,,AFSA12.jpg,AFNE09.jpg,AFNE18.jpg,AFSA07.jpg,AFSA12.jpg,FS,4,num_8,32,num_6,0.450177513063,,,2017_Jun_13_1435,60.0067170382,FEMA4ImagesEEG,001,200620,
AFNE01.JPG,AFNE01.JPG,AFNE01.JPG,AFNE01.JPG,AFNE01.JPG,AFNE01.JPG,2,9,29,7,,,,,,,,,,,,,,,,,,,,,,,AFSA04.jpg,AFSA10.jpg,AFNE02.jpg,AFNE18.jpg,AFNE18.jpg,FN,3,num_4,32,num_2,1.2001286805,,,2017_Jun_13_1435,60.0067170382,FEMA4ImagesEEG,001,200620,
AFNE01.JPG,AFNE01.JPG,AFNE01.JPG,AFNE01.JPG,AFNE01.JPG,AFNE01.JPG,3,0,30,5,,,,,,,,,,,,,,,,,,,,,,,AFNE06.jpg,AFNE12.jpg,AFSA06.jpg,AFSA14.jpg,AFNE06.jpg,FN,3,num_8,16,num_8,0.583518693806,,,2017_Jun_13_1435,60.0067170382,FEMA4ImagesEEG,001,200620,
AFNE01.JPG,AFNE01.JPG,AFNE01.JPG,AFNE01.JPG,AFNE01.JPG,AFNE01.JPG,3,1,31,4,,,,,,,,,,,,,,,,,,,,,,,AFSA17.jpg,AFNE03.jpg,AFSA14.jpg,AFNE20.jpg,AFNE03.jpg,FN,3,num_6,32,num_8,0.866782624507,,,2017_Jun_13_1435,60.0067170382,FEMA4ImagesEEG,001,200620,
AFNE01.JPG,AFNE01.JPG,AFNE01.JPG,AFNE01.JPG,AFNE01.JPG,AFNE01.JPG,3,2,32,3,,,,,,,,,,,,,,,,,,,,,,,AFSA09.jpg,AFNE14.jpg,AFSA13.jpg,AFNE19.jpg,AFNE14.jpg,FN,3,num_6,32,num_2,0.583491110243,,,2017_Jun_13_1435,60.0067170382,FEMA4ImagesEEG,001,200620,
AFNE01.JPG,AFNE01.JPG,AFNE01.JPG,AFNE01.JPG,AFNE01.JPG,AFNE01.JPG,3,3,33,9,,,,,,,,,,,,,,,,,,,,,,,AFNE20.jpg,AFSA16.jpg,AFSA02.jpg,AFNE12.jpg,AFNE20.jpg,FN,3,num_8,16,num_8,0.683514235483,,,2017_Jun_13_1435,60.0067170382,FEMA4ImagesEEG,001,200620,
AFNE01.JPG,AFNE01.JPG,AFNE01.JPG,AFNE01.JPG,AFNE01.JPG,AFNE01.JPG,3,4,34,0,,,,,,,,,,,,,,,,,,,,,,,AFNE12.jpg,AFNE15.jpg,AFSA01.jpg,AFSA14.jpg,AFSA01.jpg,FS,4,num_2,32,num_4,1.83318873344,,,2017_Jun_13_1435,60.0067170382,FEMA4ImagesEEG,001,200620,
AFNE01.JPG,AFNE01.JPG,AFNE01.JPG,AFNE01.JPG,AFNE01.JPG,AFNE01.JPG,3,5,35,2,,,,,,,,,,,,,,,,,,,,,,,AFSA12.jpg,AFNE13.jpg,AFSA14.jpg,AFNE17.jpg,AFSA14.jpg,FS,4,num_2,16,num_2,1.65003388608,,,2017_Jun_13_1435,60.0067170382,FEMA4ImagesEEG,001,200620,
AFNE01.JPG,AFNE01.JPG,AFNE01.JPG,AFNE01.JPG,AFNE01.JPG,AFNE01.JPG,3,6,36,1,,,,,,,,,,,,,,,,,,,,,,,AFNE20.jpg,AFSA18.jpg,AFNE12.jpg,AFSA08.jpg,AFNE12.jpg,FN,3,num_2,32,num_8,1.06682278105,,,2017_Jun_13_1435,60.0067170382,FEMA4ImagesEEG,001,200620,
AFNE01.JPG,AFNE01.JPG,AFNE01.JPG,AFNE01.JPG,AFNE01.JPG,AFNE01.JPG,3,7,37,6,,,,,,,,,,,,,,,,,,,,,,,AFNE07.jpg,AFSA11.jpg,AFSA18.jpg,AFNE17.jpg,AFNE07.jpg,FN,3,num_8,16,num_8,0.766787724337,,,2017_Jun_13_1435,60.0067170382,FEMA4ImagesEEG,001,200620,
AFNE01.JPG,AFNE01.JPG,AFNE01.JPG,AFNE01.JPG,AFNE01.JPG,AFNE01.JPG,3,8,38,8,,,,,,,,,,,,,,,,,,,,,,,AFNE02.jpg,AFSA13.jpg,AFSA02.jpg,AFNE16.jpg,AFNE16.jpg,FN,3,num_4,32,num_8,0.916833317373,,,2017_Jun_13_1435,60.0067170382,FEMA4ImagesEEG,001,200620,
AFNE01.JPG,AFNE01.JPG,AFNE01.JPG,AFNE01.JPG,AFNE01.JPG,AFNE01.JPG,3,9,39,7,,,,,,,,,,,,,,,,,,,,,,,AFNE08.jpg,AFNE12.jpg,AFSA08.jpg,AFSA15.jpg,AFNE08.jpg,FN,3,num_8,32,num_6,1.050140179,,,2017_Jun_13_1435,60.0067170382,FEMA4ImagesEEG,001,200620,
AFNE01.JPG,AFNE01.JPG,AFNE01.JPG,AFNE01.JPG,AFNE01.JPG,AFNE01.JPG,4,0,40,1,,,,,,,,,,,,,,,,,,,,,,,AFNE05.jpg,AFNE15.jpg,AFSA07.jpg,AFSA05.jpg,AFSA07.jpg,FS,4,num_2,32,num_8,1.18342811707,,,2017_Jun_13_1435,60.0067170382,FEMA4ImagesEEG,001,200620,
AFNE01.JPG,AFNE01.JPG,AFNE01.JPG,AFNE01.JPG,AFNE01.JPG,AFNE01.JPG,4,1,41,4,,,,,,,,,,,,,,,,,,,,,,,AFSA18.jpg,AFNE02.jpg,AFSA08.jpg,AFNE13.jpg,AFNE13.jpg,FN,3,num_4,32,num_8,1.05011484062,,,2017_Jun_13_1435,60.0067170382,FEMA4ImagesEEG,001,200620,
AFNE01.JPG,AFNE01.JPG,AFNE01.JPG,AFNE01.JPG,AFNE01.JPG,AFNE01.JPG,4,2,42,3,,,,,,,,,,,,,,,,,,,,,,,AFNE19.jpg,AFSA08.jpg,AFSA03.jpg,AFNE16.jpg,AFSA03.jpg,FS,4,num_2,16,num_2,2.00005003531,,,2017_Jun_13_1435,60.0067170382,FEMA4ImagesEEG,001,200620,
AFNE01.JPG,AFNE01.JPG,AFNE01.JPG,AFNE01.JPG,AFNE01.JPG,AFNE01.JPG,4,3,43,8,,,,,,,,,,,,,,,,,,,,,,,AFNE01.jpg,AFSA05.jpg,AFNE10.jpg,AFSA07.jpg,AFSA07.jpg,FS,4,num_4,32,num_6,1.58342952828,,,2017_Jun_13_1435,60.0067170382,FEMA4ImagesEEG,001,200620,
AFNE01.JPG,AFNE01.JPG,AFNE01.JPG,AFNE01.JPG,AFNE01.JPG,AFNE01.JPG,4,4,44,6,,,,,,,,,,,,,,,,,,,,,,,AFSA10.jpg,AFNE08.jpg,AFNE05.jpg,AFSA15.jpg,AFNE05.jpg,FN,3,num_2,32,num_8,1.23340439843,,,2017_Jun_13_1435,60.0067170382,FEMA4ImagesEEG,001,200620,
AFNE01.JPG,AFNE01.JPG,AFNE01.JPG,AFNE01.JPG,AFNE01.JPG,AFNE01.JPG,4,5,45,7,,,,,,,,,,,,,,,,,,,,,,,AFNE19.jpg,AFSA19.jpg,AFNE07.jpg,AFSA17.jpg,AFSA17.jpg,FS,4,num_4,16,num_4,1.41668529622,,,2017_Jun_13_1435,60.0067170382,FEMA4ImagesEEG,001,200620,
AFNE01.JPG,AFNE01.JPG,AFNE01.JPG,AFNE01.JPG,AFNE01.JPG,AFNE01.JPG,4,6,46,0,,,,,,,,,,,,,,,,,,,,,,,AFSA13.jpg,AFSA01.jpg,AFNE19.jpg,AFNE14.jpg,AFSA01.jpg,FS,4,num_6,32,num_8,1.01649913931,,,2017_Jun_13_1435,60.0067170382,FEMA4ImagesEEG,001,200620,
AFNE01.JPG,AFNE01.JPG,AFNE01.JPG,AFNE01.JPG,AFNE01.JPG,AFNE01.JPG,4,7,47,5,,,,,,,,,,,,,,,,,,,,,,,AFSA08.jpg,AFSA16.jpg,AFNE15.jpg,AFNE17.jpg,AFSA16.jpg,FS,4,num_6,32,num_4,1.01678972889,,,2017_Jun_13_1435,60.0067170382,FEMA4ImagesEEG,001,200620,
AFNE01.JPG,AFNE01.JPG,AFNE01.JPG,AFNE01.JPG,AFNE01.JPG,AFNE01.JPG,4,8,48,9,,,,,,,,,,,,,,,,,,,,,,,AFNE05.jpg,AFSA08.jpg,AFSA04.jpg,AFNE15.jpg,AFSA08.jpg,FS,4,num_6,32,num_2,1.88336098642,,,2017_Jun_13_1435,60.0067170382,FEMA4ImagesEEG,001,200620,
AFNE01.JPG,AFNE01.JPG,AFNE01.JPG,AFNE01.JPG,AFNE01.JPG,AFNE01.JPG,4,9,49,2,,,,,,,,,,,,,,,,,,,,,,,AFSA02.jpg,AFSA11.jpg,AFNE05.jpg,AFNE06.jpg,AFSA11.jpg,FS,4,num_6,16,num_6,1.00039996166,,,2017_Jun_13_1435,60.0067170382,FEMA4ImagesEEG,001,200620,
AFNE01.JPG,AFNE01.JPG,AFNE01.JPG,AFNE01.JPG,AFNE01.JPG,AFNE01.JPG,5,0,50,0,,,,,,,,,,,,,,,,,,,,,,,AFNE05.jpg,AFNE13.jpg,AFSA15.jpg,AFSA13.jpg,AFNE13.jpg,FN,3,num_6,32,num_8,0.933491864009,,,2017_Jun_13_1435,60.0067170382,FEMA4ImagesEEG,001,200620,
AFNE01.JPG,AFNE01.JPG,AFNE01.JPG,AFNE01.JPG,AFNE01.JPG,AFNE01.JPG,5,1,51,7,,,,,,,,,,,,,,,,,,,,,,,AFSA16.jpg,AFNE01.jpg,AFNE15.jpg,AFSA18.jpg,AFNE15.jpg,FN,3,num_2,32,num_4,0.716619640996,,,2017_Jun_13_1435,60.0067170382,FEMA4ImagesEEG,001,200620,
AFNE01.JPG,AFNE01.JPG,AFNE01.JPG,AFNE01.JPG,AFNE01.JPG,AFNE01.JPG,5,2,52,3,,,,,,,,,,,,,,,,,,,,,,,AFSA19.jpg,AFNE10.jpg,AFSA17.jpg,AFNE07.jpg,AFNE10.jpg,FN,3,num_6,32,num_8,0.800204246654,,,2017_Jun_13_1435,60.0067170382,FEMA4ImagesEEG,001,200620,
AFNE01.JPG,AFNE01.JPG,AFNE01.JPG,AFNE01.JPG,AFNE01.JPG,AFNE01.JPG,5,3,53,1,,,,,,,,,,,,,,,,,,,,,,,AFNE12.jpg,AFSA09.jpg,AFNE15.jpg,AFSA04.jpg,AFNE15.jpg,FN,3,num_2,16,num_2,1.25012484769,,,2017_Jun_13_1435,60.0067170382,FEMA4ImagesEEG,001,200620,
AFNE01.JPG,AFNE01.JPG,AFNE01.JPG,AFNE01.JPG,AFNE01.JPG,AFNE01.JPG,5,4,54,6,,,,,,,,,,,,,,,,,,,,,,,AFSA07.jpg,AFSA13.jpg,AFNE05.jpg,AFNE11.jpg,AFSA13.jpg,FS,4,num_6,32,num_8,0.650141012913,,,2017_Jun_13_1435,60.0067170382,FEMA4ImagesEEG,001,200620,
AFNE01.JPG,AFNE01.JPG,AFNE01.JPG,AFNE01.JPG,AFNE01.JPG,AFNE01.JPG,5,5,55,2,,,,,,,,,,,,,,,,,,,,,,,AFNE10.jpg,AFSA18.jpg,AFSA02.jpg,AFNE05.jpg,AFNE10.jpg,FN,3,num_8,16,num_8,0.966922819556,,,2017_Jun_13_1435,60.0067170382,FEMA4ImagesEEG,001,200620,
AFNE01.JPG,AFNE01.JPG,AFNE01.JPG,AFNE01.JPG,AFNE01.JPG,AFNE01.JPG,5,6,56,5,,,,,,,,,,,,,,,,,,,,,,,AFSA18.jpg,AFNE14.jpg,AFNE12.jpg,AFSA14.jpg,AFNE14.jpg,FN,3,num_6,16,num_6,1.55009896407,,,2017_Jun_13_1435,60.0067170382,FEMA4ImagesEEG,001,200620,
AFNE01.JPG,AFNE01.JPG,AFNE01.JPG,AFNE01.JPG,AFNE01.JPG,AFNE01.JPG,5,7,57,9,,,,,,,,,,,,,,,,,,,,,,,AFNE20.jpg,AFNE10.jpg,AFSA09.jpg,AFSA03.jpg,AFSA03.jpg,FS,4,num_4,32,num_6,1.16645941575,,,2017_Jun_13_1435,60.0067170382,FEMA4ImagesEEG,001,200620,
AFNE01.JPG,AFNE01.JPG,AFNE01.JPG,AFNE01.JPG,AFNE01.JPG,AFNE01.JPG,5,8,58,4,,,,,,,,,,,,,,,,,,,,,,,AFSA10.jpg,AFNE18.jpg,AFSA17.jpg,AFNE04.jpg,AFNE04.jpg,FN,3,num_4,32,num_8,0.700156745152,,,2017_Jun_13_1435,60.0067170382,FEMA4ImagesEEG,001,200620,
AFNE01.JPG,AFNE01.JPG,AFNE01.JPG,AFNE01.JPG,AFNE01.JPG,AFNE01.JPG,5,9,59,8,,,,,,,,,,,,,,,,,,,,,,,AFSA08.jpg,AFNE07.jpg,AFNE04.jpg,AFSA14.jpg,AFSA08.jpg,FS,4,num_8,32,num_2,0.866789360065,,,2017_Jun_13_1435,60.0067170382,FEMA4ImagesEEG,001,200620,
,,,,,,,,,,,,,,,,,,,,,,,,,,,,,,,,,,,,,,,,,,,space,13.5994000896,2017_Jun_13_1435,60.0067170382,FEMA4ImagesEEG,001,200620,
AFNE01.JPG,AFNE01.JPG,AFNE01.JPG,AFNE01.JPG,AFNE01.JPG,AFNE01.JPG,,,,,0,0,0,3,,,,,,,,,,,,,,,,,,,AMNE13.jpg,AMNE09.jpg,AMSA10.jpg,AMSA12.jpg,AMSA12.jpg,MS,2,num_4,32,num_2,0.850166415446,,,2017_Jun_13_1435,60.0067170382,FEMA4ImagesEEG,001,200620,
AFNE01.JPG,AFNE01.JPG,AFNE01.JPG,AFNE01.JPG,AFNE01.JPG,AFNE01.JPG,,,,,0,1,1,0,,,,,,,,,,,,,,,,,,,AMSA16.jpg,AMNE06.jpg,AMSA09.jpg,AMNE14.jpg,AMSA16.jpg,MS,2,num_8,16,num_8,0.983450825384,,,2017_Jun_13_1435,60.0067170382,FEMA4ImagesEEG,001,200620,
AFNE01.JPG,AFNE01.JPG,AFNE01.JPG,AFNE01.JPG,AFNE01.JPG,AFNE01.JPG,,,,,0,2,2,1,,,,,,,,,,,,,,,,,,,AMNE01.jpg,AMSA15.jpg,AMSA04.jpg,AMNE19.jpg,AMNE19.jpg,MN,1,num_4,32,num_2,1.05014434858,,,2017_Jun_13_1435,60.0067170382,FEMA4ImagesEEG,001,200620,
AFNE01.JPG,AFNE01.JPG,AFNE01.JPG,AFNE01.JPG,AFNE01.JPG,AFNE01.JPG,,,,,0,3,3,6,,,,,,,,,,,,,,,,,,,AMNE05.jpg,AMSA06.jpg,AMNE09.jpg,AMSA19.jpg,AMNE09.jpg,MN,1,num_2,16,num_2,0.850215488579,,,2017_Jun_13_1435,60.0067170382,FEMA4ImagesEEG,001,200620,
AFNE01.JPG,AFNE01.JPG,AFNE01.JPG,AFNE01.JPG,AFNE01.JPG,AFNE01.JPG,,,,,0,4,4,2,,,,,,,,,,,,,,,,,,,AMNE13.jpg,AMSA19.jpg,AMSA06.jpg,AMNE17.jpg,AMNE13.jpg,MN,1,num_8,16,num_8,0.700026845851,,,2017_Jun_13_1435,60.0067170382,FEMA4ImagesEEG,001,200620,
AFNE01.JPG,AFNE01.JPG,AFNE01.JPG,AFNE01.JPG,AFNE01.JPG,AFNE01.JPG,,,,,0,5,5,7,,,,,,,,,,,,,,,,,,,AMSA06.jpg,AMSA15.jpg,AMNE12.jpg,AMNE19.jpg,AMNE12.jpg,MN,1,num_2,32,num_4,1.03346848214,,,2017_Jun_13_1435,60.0067170382,FEMA4ImagesEEG,001,200620,
AFNE01.JPG,AFNE01.JPG,AFNE01.JPG,AFNE01.JPG,AFNE01.JPG,AFNE01.JPG,,,,,0,6,6,9,,,,,,,,,,,,,,,,,,,AMSA11.jpg,AMSA01.jpg,AMNE17.jpg,AMNE13.jpg,AMSA11.jpg,MS,2,num_8,32,num_6,0.950119619665,,,2017_Jun_13_1435,60.0067170382,FEMA4ImagesEEG,001,200620,
AFNE01.JPG,AFNE01.JPG,AFNE01.JPG,AFNE01.JPG,AFNE01.JPG,AFNE01.JPG,,,,,0,7,7,4,,,,,,,,,,,,,,,,,,,AMNE18.jpg,AMSA06.jpg,AMNE08.jpg,AMSA04.jpg,AMSA04.jpg,MS,2,num_4,16,num_4,0.550158300786,,,2017_Jun_13_1435,60.0067170382,FEMA4ImagesEEG,001,200620,
AFNE01.JPG,AFNE01.JPG,AFNE01.JPG,AFNE01.JPG,AFNE01.JPG,AFNE01.JPG,,,,,0,8,8,5,,,,,,,,,,,,,,,,,,,AMSA04.jpg,AMNE03.jpg,AMNE15.jpg,AMSA13.jpg,AMSA04.jpg,MS,2,num_8,16,num_8,0.500134229311,,,2017_Jun_13_1435,60.0067170382,FEMA4ImagesEEG,001,200620,
AFNE01.JPG,AFNE01.JPG,AFNE01.JPG,AFNE01.JPG,AFNE01.JPG,AFNE01.JPG,,,,,0,9,9,8,,,,,,,,,,,,,,,,,,,AMNE06.jpg,AMSA13.jpg,AMNE13.jpg,AMSA18.jpg,AMNE13.jpg,MN,1,num_2,32,num_6,1.13342521439,,,2017_Jun_13_1435,60.0067170382,FEMA4ImagesEEG,001,200620,
AFNE01.JPG,AFNE01.JPG,AFNE01.JPG,AFNE01.JPG,AFNE01.JPG,AFNE01.JPG,,,,,1,0,10,1,,,,,,,,,,,,,,,,,,,AMNE16.jpg,AMSA09.jpg,AMSA01.jpg,AMNE14.jpg,AMSA09.jpg,MS,2,num_6,32,num_2,1.21674649324,,,2017_Jun_13_1435,60.0067170382,FEMA4ImagesEEG,001,200620,
AFNE01.JPG,AFNE01.JPG,AFNE01.JPG,AFNE01.JPG,AFNE01.JPG,AFNE01.JPG,,,,,1,1,11,2,,,,,,,,,,,,,,,,,,,AMSA05.jpg,AMNE15.jpg,AMSA18.jpg,AMNE14.jpg,AMNE15.jpg,MN,1,num_6,32,num_8,0.733473196917,,,2017_Jun_13_1435,60.0067170382,FEMA4ImagesEEG,001,200620,
AFNE01.JPG,AFNE01.JPG,AFNE01.JPG,AFNE01.JPG,AFNE01.JPG,AFNE01.JPG,,,,,1,2,12,7,,,,,,,,,,,,,,,,,,,AMNE09.jpg,AMNE03.jpg,AMSA11.jpg,AMSA09.jpg,AMNE03.jpg,MN,1,num_6,32,num_8,0.950062207354,,,2017_Jun_13_1435,60.0067170382,FEMA4ImagesEEG,001,200620,
AFNE01.JPG,AFNE01.JPG,AFNE01.JPG,AFNE01.JPG,AFNE01.JPG,AFNE01.JPG,,,,,1,3,13,0,,,,,,,,,,,,,,,,,,,AMNE06.jpg,AMSA08.jpg,AMSA11.jpg,AMNE17.jpg,AMSA08.jpg,MS,2,num_6,32,num_2,0.666804049921,,,2017_Jun_13_1435,60.0067170382,FEMA4ImagesEEG,001,200620,
AFNE01.JPG,AFNE01.JPG,AFNE01.JPG,AFNE01.JPG,AFNE01.JPG,AFNE01.JPG,,,,,1,4,14,4,,,,,,,,,,,,,,,,,,,AMNE08.jpg,AMNE18.jpg,AMSA03.jpg,AMSA05.jpg,AMSA03.jpg,MS,2,num_2,32,num_4,1.05011997244,,,2017_Jun_13_1435,60.0067170382,FEMA4ImagesEEG,001,200620,
AFNE01.JPG,AFNE01.JPG,AFNE01.JPG,AFNE01.JPG,AFNE01.JPG,AFNE01.JPG,,,,,1,5,15,8,,,,,,,,,,,,,,,,,,,AMSA11.jpg,AMSA03.jpg,AMNE13.jpg,AMNE14.jpg,AMNE14.jpg,MN,1,num_4,16,num_4,0.850372650719,,,2017_Jun_13_1435,60.0067170382,FEMA4ImagesEEG,001,200620,
AFNE01.JPG,AFNE01.JPG,AFNE01.JPG,AFNE01.JPG,AFNE01.JPG,AFNE01.JPG,,,,,1,6,16,9,,,,,,,,,,,,,,,,,,,AMNE03.jpg,AMSA08.jpg,AMSA17.jpg,AMNE08.jpg,AMNE03.jpg,MN,1,num_8,16,num_8,1.18344992731,,,2017_Jun_13_1435,60.0067170382,FEMA4ImagesEEG,001,200620,
AFNE01.JPG,AFNE01.JPG,AFNE01.JPG,AFNE01.JPG,AFNE01.JPG,AFNE01.JPG,,,,,1,7,17,3,,,,,,,,,,,,,,,,,,,AMSA16.jpg,AMSA07.jpg,AMNE04.jpg,AMNE14.jpg,AMSA16.jpg,MS,2,num_8,16,num_8,0.966777204012,,,2017_Jun_13_1435,60.0067170382,FEMA4ImagesEEG,001,200620,
AFNE01.JPG,AFNE01.JPG,AFNE01.JPG,AFNE01.JPG,AFNE01.JPG,AFNE01.JPG,,,,,1,8,18,5,,,,,,,,,,,,,,,,,,,AMSA09.jpg,AMNE07.jpg,AMSA14.jpg,AMNE19.jpg,AMSA14.jpg,MS,2,num_2,16,num_2,1.06676376506,,,2017_Jun_13_1435,60.0067170382,FEMA4ImagesEEG,001,200620,
AFNE01.JPG,AFNE01.JPG,AFNE01.JPG,AFNE01.JPG,AFNE01.JPG,AFNE01.JPG,,,,,1,9,19,6,,,,,,,,,,,,,,,,,,,AMNE13.jpg,AMSA07.jpg,AMNE20.jpg,AMSA19.jpg,AMNE13.jpg,MN,1,num_8,32,num_2,1.45004601002,,,2017_Jun_13_1435,60.0067170382,FEMA4ImagesEEG,001,200620,
AFNE01.JPG,AFNE01.JPG,AFNE01.JPG,AFNE01.JPG,AFNE01.JPG,AFNE01.JPG,,,,,2,0,20,7,,,,,,,,,,,,,,,,,,,AMNE17.jpg,AMSA12.jpg,AMNE01.jpg,AMSA13.jpg,AMNE01.jpg,MN,1,num_2,16,num_2,1.28344739351,,,2017_Jun_13_1435,60.0067170382,FEMA4ImagesEEG,001,200620,
AFNE01.JPG,AFNE01.JPG,AFNE01.JPG,AFNE01.JPG,AFNE01.JPG,AFNE01.JPG,,,,,2,1,21,1,,,,,,,,,,,,,,,,,,,AMSA17.jpg,AMNE04.jpg,AMSA12.jpg,AMNE19.jpg,AMSA12.jpg,MS,2,num_2,32,num_4,0.933458186395,,,2017_Jun_13_1435,60.0067170382,FEMA4ImagesEEG,001,200620,
AFNE01.JPG,AFNE01.JPG,AFNE01.JPG,AFNE01.JPG,AFNE01.JPG,AFNE01.JPG,,,,,2,2,22,6,,,,,,,,,,,,,,,,,,,AMSA01.jpg,AMNE08.jpg,AMNE20.jpg,AMSA14.jpg,AMSA14.jpg,MS,2,num_4,32,num_8,0.733476404333,,,2017_Jun_13_1435,60.0067170382,FEMA4ImagesEEG,001,200620,
AFNE01.JPG,AFNE01.JPG,AFNE01.JPG,AFNE01.JPG,AFNE01.JPG,AFNE01.JPG,,,,,2,3,23,4,,,,,,,,,,,,,,,,,,,AMSA17.jpg,AMNE12.jpg,AMNE02.jpg,AMSA06.jpg,AMNE12.jpg,MN,1,num_6,32,num_4,0.983311624615,,,2017_Jun_13_1435,60.0067170382,FEMA4ImagesEEG,001,200620,
AFNE01.JPG,AFNE01.JPG,AFNE01.JPG,AFNE01.JPG,AFNE01.JPG,AFNE01.JPG,,,,,2,4,24,8,,,,,,,,,,,,,,,,,,,AMSA02.jpg,AMNE11.jpg,AMNE08.jpg,AMSA14.jpg,AMSA02.jpg,MS,2,num_8,32,num_6,0.833425759687,,,2017_Jun_13_1435,60.0067170382,FEMA4ImagesEEG,001,200620,
AFNE01.JPG,AFNE01.JPG,AFNE01.JPG,AFNE01.JPG,AFNE01.JPG,AFNE01.JPG,,,,,2,5,25,5,,,,,,,,,,,,,,,,,,,AMNE13.jpg,AMSA16.jpg,AMSA09.jpg,AMNE14.jpg,AMSA09.jpg,MS,2,num_2,32,num_8,0.916723303846,,,2017_Jun_13_1435,60.0067170382,FEMA4ImagesEEG,001,200620,
AFNE01.JPG,AFNE01.JPG,AFNE01.JPG,AFNE01.JPG,AFNE01.JPG,AFNE01.JPG,,,,,2,6,26,2,,,,,,,,,,,,,,,,,,,AMSA01.jpg,AMSA15.jpg,AMNE14.jpg,AMNE13.jpg,AMNE14.jpg,MN,1,num_2,32,num_8,1.50002389506,,,2017_Jun_13_1435,60.0067170382,FEMA4ImagesEEG,001,200620,
AFNE01.JPG,AFNE01.JPG,AFNE01.JPG,AFNE01.JPG,AFNE01.JPG,AFNE01.JPG,,,,,2,7,27,9,,,,,,,,,,,,,,,,,,,AMNE08.jpg,AMSA10.jpg,AMNE17.jpg,AMSA01.jpg,AMSA10.jpg,MS,2,num_6,32,num_2,0.833402345714,,,2017_Jun_13_1435,60.0067170382,FEMA4ImagesEEG,001,200620,
AFNE01.JPG,AFNE01.JPG,AFNE01.JPG,AFNE01.JPG,AFNE01.JPG,AFNE01.JPG,,,,,2,8,28,3,,,,,,,,,,,,,,,,,,,AMSA02.jpg,AMSA12.jpg,AMNE07.jpg,AMNE08.jpg,AMNE07.jpg,MN,1,num_2,32,num_8,0.833502095542,,,2017_Jun_13_1435,60.0067170382,FEMA4ImagesEEG,001,200620,
AFNE01.JPG,AFNE01.JPG,AFNE01.JPG,AFNE01.JPG,AFNE01.JPG,AFNE01.JPG,,,,,2,9,29,0,,,,,,,,,,,,,,,,,,,AMNE02.jpg,AMNE10.jpg,AMSA17.jpg,AMSA14.jpg,AMSA17.jpg,MS,2,num_2,32,num_4,0.683477992017,,,2017_Jun_13_1435,60.0067170382,FEMA4ImagesEEG,001,200620,
AFNE01.JPG,AFNE01.JPG,AFNE01.JPG,AFNE01.JPG,AFNE01.JPG,AFNE01.JPG,,,,,3,0,30,4,,,,,,,,,,,,,,,,,,,AMNE03.jpg,AMNE11.jpg,AMSA16.jpg,AMSA09.jpg,AMSA16.jpg,MS,2,num_2,32,num_6,0.817067424767,,,2017_Jun_13_1435,60.0067170382,FEMA4ImagesEEG,001,200620,
AFNE01.JPG,AFNE01.JPG,AFNE01.JPG,AFNE01.JPG,AFNE01.JPG,AFNE01.JPG,,,,,3,1,31,7,,,,,,,,,,,,,,,,,,,AMSA15.jpg,AMNE14.jpg,AMNE17.jpg,AMSA18.jpg,AMNE17.jpg,MN,1,num_2,16,num_2,0.933476147766,,,2017_Jun_13_1435,60.0067170382,FEMA4ImagesEEG,001,200620,
AFNE01.JPG,AFNE01.JPG,AFNE01.JPG,AFNE01.JPG,AFNE01.JPG,AFNE01.JPG,,,,,3,2,32,3,,,,,,,,,,,,,,,,,,,AMSA04.jpg,AMSA19.jpg,AMNE08.jpg,AMNE11.jpg,AMNE08.jpg,MN,1,num_2,32,num_4,1.00008114701,,,2017_Jun_13_1435,60.0067170382,FEMA4ImagesEEG,001,200620,
AFNE01.JPG,AFNE01.JPG,AFNE01.JPG,AFNE01.JPG,AFNE01.JPG,AFNE01.JPG,,,,,3,3,33,1,,,,,,,,,,,,,,,,,,,AMSA05.jpg,AMSA06.jpg,AMNE14.jpg,AMNE18.jpg,AMSA05.jpg,MS,2,num_8,32,num_4,0.750195570639,,,2017_Jun_13_1435,60.0067170382,FEMA4ImagesEEG,001,200620,
AFNE01.JPG,AFNE01.JPG,AFNE01.JPG,AFNE01.JPG,AFNE01.JPG,AFNE01.JPG,,,,,3,4,34,8,,,,,,,,,,,,,,,,,,,AMSA15.jpg,AMNE10.jpg,AMSA11.jpg,AMNE15.jpg,AMNE15.jpg,MN,1,num_4,32,num_6,0.916651458305,,,2017_Jun_13_1435,60.0067170382,FEMA4ImagesEEG,001,200620,
AFNE01.JPG,AFNE01.JPG,AFNE01.JPG,AFNE01.JPG,AFNE01.JPG,AFNE01.JPG,,,,,3,5,35,9,,,,,,,,,,,,,,,,,,,AMNE20.jpg,AMSA20.jpg,AMNE09.jpg,AMSA16.jpg,AMNE09.jpg,MN,1,num_2,32,num_8,0.882992136467,,,2017_Jun_13_1435,60.0067170382,FEMA4ImagesEEG,001,200620,
AFNE01.JPG,AFNE01.JPG,AFNE01.JPG,AFNE01.JPG,AFNE01.JPG,AFNE01.JPG,,,,,3,6,36,0,,,,,,,,,,,,,,,,,,,AMNE13.jpg,AMSA04.jpg,AMSA10.jpg,AMNE17.jpg,AMNE13.jpg,MN,1,num_8,16,num_8,0.833456871391,,,2017_Jun_13_1435,60.0067170382,FEMA4ImagesEEG,001,200620,
AFNE01.JPG,AFNE01.JPG,AFNE01.JPG,AFNE01.JPG,AFNE01.JPG,AFNE01.JPG,,,,,3,7,37,2,,,,,,,,,,,,,,,,,,,AMSA04.jpg,AMNE16.jpg,AMNE11.jpg,AMSA08.jpg,AMNE16.jpg,MN,1,num_6,16,num_6,0.866772360925,,,2017_Jun_13_1435,60.0067170382,FEMA4ImagesEEG,001,200620,
AFNE01.JPG,AFNE01.JPG,AFNE01.JPG,AFNE01.JPG,AFNE01.JPG,AFNE01.JPG,,,,,3,8,38,6,,,,,,,,,,,,,,,,,,,AMNE13.jpg,AMSA19.jpg,AMNE02.jpg,AMSA04.jpg,AMSA04.jpg,MS,2,num_4,16,num_4,0.866799302981,,,2017_Jun_13_1435,60.0067170382,FEMA4ImagesEEG,001,200620,
AFNE01.JPG,AFNE01.JPG,AFNE01.JPG,AFNE01.JPG,AFNE01.JPG,AFNE01.JPG,,,,,3,9,39,5,,,,,,,,,,,,,,,,,,,AMSA12.jpg,AMSA11.jpg,AMNE15.jpg,AMNE20.jpg,AMNE20.jpg,MN,1,num_4,32,num_2,0.933435093146,,,2017_Jun_13_1435,60.0067170382,FEMA4ImagesEEG,001,200620,
AFNE01.JPG,AFNE01.JPG,AFNE01.JPG,AFNE01.JPG,AFNE01.JPG,AFNE01.JPG,,,,,4,0,40,2,,,,,,,,,,,,,,,,,,,AMSA19.jpg,AMSA14.jpg,AMNE16.jpg,AMNE13.jpg,AMSA19.jpg,MS,2,num_8,32,num_4,2.14996252162,,,2017_Jun_13_1435,60.0067170382,FEMA4ImagesEEG,001,200620,
AFNE01.JPG,AFNE01.JPG,AFNE01.JPG,AFNE01.JPG,AFNE01.JPG,AFNE01.JPG,,,,,4,1,41,0,,,,,,,,,,,,,,,,,,,AMNE07.jpg,AMSA19.jpg,AMSA15.jpg,AMNE20.jpg,AMSA15.jpg,MS,2,num_2,32,num_8,0.783506249136,,,2017_Jun_13_1435,60.0067170382,FEMA4ImagesEEG,001,200620,
AFNE01.JPG,AFNE01.JPG,AFNE01.JPG,AFNE01.JPG,AFNE01.JPG,AFNE01.JPG,,,,,4,2,42,1,,,,,,,,,,,,,,,,,,,AMNE01.jpg,AMSA11.jpg,AMSA02.jpg,AMNE18.jpg,AMNE01.jpg,MN,1,num_8,32,num_6,0.800164795713,,,2017_Jun_13_1435,60.0067170382,FEMA4ImagesEEG,001,200620,
AFNE01.JPG,AFNE01.JPG,AFNE01.JPG,AFNE01.JPG,AFNE01.JPG,AFNE01.JPG,,,,,4,3,43,8,,,,,,,,,,,,,,,,,,,AMNE03.jpg,AMSA04.jpg,AMNE16.jpg,AMSA07.jpg,AMSA04.jpg,MS,2,num_6,32,num_8,1.6834199382,,,2017_Jun_13_1435,60.0067170382,FEMA4ImagesEEG,001,200620,
AFNE01.JPG,AFNE01.JPG,AFNE01.JPG,AFNE01.JPG,AFNE01.JPG,AFNE01.JPG,,,,,4,4,44,4,,,,,,,,,,,,,,,,,,,AMNE14.jpg,AMNE08.jpg,AMSA18.jpg,AMSA10.jpg,AMNE08.jpg,MN,1,num_6,32,num_8,0.850116700924,,,2017_Jun_13_1435,60.0067170382,FEMA4ImagesEEG,001,200620,
AFNE01.JPG,AFNE01.JPG,AFNE01.JPG,AFNE01.JPG,AFNE01.JPG,AFNE01.JPG,,,,,4,5,45,3,,,,,,,,,,,,,,,,,,,AMSA05.jpg,AMSA07.jpg,AMNE04.jpg,AMNE14.jpg,AMSA05.jpg,MS,2,num_8,32,num_2,0.600117262162,,,2017_Jun_13_1435,60.0067170382,FEMA4ImagesEEG,001,200620,
AFNE01.JPG,AFNE01.JPG,AFNE01.JPG,AFNE01.JPG,AFNE01.JPG,AFNE01.JPG,,,,,4,6,46,6,,,,,,,,,,,,,,,,,,,AMNE11.jpg,AMNE04.jpg,AMSA20.jpg,AMSA02.jpg,AMNE11.jpg,MN,1,num_8,32,num_6,0.933425150288,,,2017_Jun_13_1435,60.0067170382,FEMA4ImagesEEG,001,200620,
AFNE01.JPG,AFNE01.JPG,AFNE01.JPG,AFNE01.JPG,AFNE01.JPG,AFNE01.JPG,,,,,4,7,47,9,,,,,,,,,,,,,,,,,,,AMNE07.jpg,AMSA09.jpg,AMNE14.jpg,AMSA14.jpg,AMSA14.jpg,MS,2,num_4,16,num_4,0.866730023292,,,2017_Jun_13_1435,60.0067170382,FEMA4ImagesEEG,001,200620,
AFNE01.JPG,AFNE01.JPG,AFNE01.JPG,AFNE01.JPG,AFNE01.JPG,AFNE01.JPG,,,,,4,8,48,5,,,,,,,,,,,,,,,,,,,AMNE04.jpg,AMSA20.jpg,AMNE14.jpg,AMSA13.jpg,AMSA13.jpg,MS,2,num_4,32,num_8,0.86680251034,,,2017_Jun_13_1435,60.0067170382,FEMA4ImagesEEG,001,200620,
AFNE01.JPG,AFNE01.JPG,AFNE01.JPG,AFNE01.JPG,AFNE01.JPG,AFNE01.JPG,,,,,4,9,49,7,,,,,,,,,,,,,,,,,,,AMSA11.jpg,AMSA03.jpg,AMNE16.jpg,AMNE08.jpg,AMNE16.jpg,MN,1,num_2,16,num_2,1.68336926145,,,2017_Jun_13_1435,60.0067170382,FEMA4ImagesEEG,001,200620,
AFNE01.JPG,AFNE01.JPG,AFNE01.JPG,AFNE01.JPG,AFNE01.JPG,AFNE01.JPG,,,,,5,0,50,1,,,,,,,,,,,,,,,,,,,AMNE05.jpg,AMSA13.jpg,AMNE10.jpg,AMSA15.jpg,AMSA15.jpg,MS,2,num_4,16,num_4,0.866751512804,,,2017_Jun_13_1435,60.0067170382,FEMA4ImagesEEG,001,200620,
AFNE01.JPG,AFNE01.JPG,AFNE01.JPG,AFNE01.JPG,AFNE01.JPG,AFNE01.JPG,,,,,5,1,51,2,,,,,,,,,,,,,,,,,,,AMNE20.jpg,AMSA01.jpg,AMSA07.jpg,AMNE19.jpg,AMNE19.jpg,MN,1,num_4,32,num_8,0.950097167923,,,2017_Jun_13_1435,60.0067170382,FEMA4ImagesEEG,001,200620,
AFNE01.JPG,AFNE01.JPG,AFNE01.JPG,AFNE01.JPG,AFNE01.JPG,AFNE01.JPG,,,,,5,2,52,5,,,,,,,,,,,,,,,,,,,AMSA13.jpg,AMNE02.jpg,AMNE17.jpg,AMSA08.jpg,AMSA13.jpg,MS,2,num_8,16,num_8,1.10040480481,,,2017_Jun_13_1435,60.0067170382,FEMA4ImagesEEG,001,200620,
AFNE01.JPG,AFNE01.JPG,AFNE01.JPG,AFNE01.JPG,AFNE01.JPG,AFNE01.JPG,,,,,5,3,53,3,,,,,,,,,,,,,,,,,,,AMSA19.jpg,AMSA09.jpg,AMNE20.jpg,AMNE17.jpg,AMSA09.jpg,MS,2,num_6,32,num_2,1.050140179,,,2017_Jun_13_1435,60.0067170382,FEMA4ImagesEEG,001,200620,
AFNE01.JPG,AFNE01.JPG,AFNE01.JPG,AFNE01.JPG,AFNE01.JPG,AFNE01.JPG,,,,,5,4,54,0,,,,,,,,,,,,,,,,,,,AMNE05.jpg,AMSA13.jpg,AMNE02.jpg,AMSA10.jpg,AMSA10.jpg,MS,2,num_4,16,num_4,0.90017829882,,,2017_Jun_13_1435,60.0067170382,FEMA4ImagesEEG,001,200620,
AFNE01.JPG,AFNE01.JPG,AFNE01.JPG,AFNE01.JPG,AFNE01.JPG,AFNE01.JPG,,,,,5,5,55,8,,,,,,,,,,,,,,,,,,,AMNE16.jpg,AMSA02.jpg,AMNE14.jpg,AMSA11.jpg,AMSA11.jpg,MS,2,num_4,32,num_8,0.583442999341,,,2017_Jun_13_1435,60.0067170382,FEMA4ImagesEEG,001,200620,
AFNE01.JPG,AFNE01.JPG,AFNE01.JPG,AFNE01.JPG,AFNE01.JPG,AFNE01.JPG,,,,,5,6,56,9,,,,,,,,,,,,,,,,,,,AMNE15.jpg,AMSA06.jpg,AMNE12.jpg,AMSA05.jpg,AMSA06.jpg,MS,2,num_6,32,num_2,0.733440802316,,,2017_Jun_13_1435,60.0067170382,FEMA4ImagesEEG,001,200620,
AFNE01.JPG,AFNE01.JPG,AFNE01.JPG,AFNE01.JPG,AFNE01.JPG,AFNE01.JPG,,,,,5,7,57,7,,,,,,,,,,,,,,,,,,,AMNE07.jpg,AMNE11.jpg,AMSA05.jpg,AMSA14.jpg,AMSA14.jpg,MS,2,num_4,32,num_2,1.46669878333,,,2017_Jun_13_1435,60.0067170382,FEMA4ImagesEEG,001,200620,
AFNE01.JPG,AFNE01.JPG,AFNE01.JPG,AFNE01.JPG,AFNE01.JPG,AFNE01.JPG,,,,,5,8,58,4,,,,,,,,,,,,,,,,,,,AMSA10.jpg,AMNE02.jpg,AMNE19.jpg,AMSA01.jpg,AMSA01.jpg,MS,2,num_4,16,num_4,1.01689781802,,,2017_Jun_13_1435,60.0067170382,FEMA4ImagesEEG,001,200620,
AFNE01.JPG,AFNE01.JPG,AFNE01.JPG,AFNE01.JPG,AFNE01.JPG,AFNE01.JPG,,,,,5,9,59,6,,,,,,,,,,,,,,,,,,,AMNE02.jpg,AMSA02.jpg,AMNE20.jpg,AMSA18.jpg,AMNE20.jpg,MN,1,num_2,32,num_8,0.616713585448,,,2017_Jun_13_1435,60.0067170382,FEMA4ImagesEEG,001,200620,
,,,,,,,,,,,,,,,,,,,,,,,,,,,,,,,,,,,,,,,,,,,space,12.5988529087,2017_Jun_13_1435,60.0067170382,FEMA4ImagesEEG,001,200620,
AFNE01.JPG,AFNE01.JPG,AFNE01.JPG,AFNE01.JPG,AFNE01.JPG,AFNE01.JPG,,,,,,,,,0,0,0,7,,,,,,,,,,,,,,,AFSA15.jpg,AFSA02.jpg,AFNE16.jpg,AFNE17.jpg,AFSA15.jpg,FS,4,num_8,16,num_8,0.566859826446,,,2017_Jun_13_1435,60.0067170382,FEMA4ImagesEEG,001,200620,
AFNE01.JPG,AFNE01.JPG,AFNE01.JPG,AFNE01.JPG,AFNE01.JPG,AFNE01.JPG,,,,,,,,,0,1,1,0,,,,,,,,,,,,,,,AFSA12.jpg,AFNE02.jpg,AFSA09.jpg,AFNE17.jpg,AFSA12.jpg,FS,4,num_8,16,num_8,0.533564864192,,,2017_Jun_13_1435,60.0067170382,FEMA4ImagesEEG,001,200620,
AFNE01.JPG,AFNE01.JPG,AFNE01.JPG,AFNE01.JPG,AFNE01.JPG,AFNE01.JPG,,,,,,,,,0,2,2,1,,,,,,,,,,,,,,,AFSA02.jpg,AFNE19.jpg,AFNE03.jpg,AFSA19.jpg,AFSA02.jpg,FS,4,num_8,32,num_6,0.916772697645,,,2017_Jun_13_1435,60.0067170382,FEMA4ImagesEEG,001,200620,
AFNE01.JPG,AFNE01.JPG,AFNE01.JPG,AFNE01.JPG,AFNE01.JPG,AFNE01.JPG,,,,,,,,,0,3,3,3,,,,,,,,,,,,,,,AFNE01.jpg,AFNE14.jpg,AFSA11.jpg,AFSA14.jpg,AFSA11.jpg,FS,4,num_2,16,num_2,0.933492505399,,,2017_Jun_13_1435,60.0067170382,FEMA4ImagesEEG,001,200620,
AFNE01.JPG,AFNE01.JPG,AFNE01.JPG,AFNE01.JPG,AFNE01.JPG,AFNE01.JPG,,,,,,,,,0,4,4,6,,,,,,,,,,,,,,,AFSA06.jpg,AFNE06.jpg,AFNE14.jpg,AFSA02.jpg,AFSA02.jpg,FS,4,num_4,32,num_2,0.750166383397,,,2017_Jun_13_1435,60.0067170382,FEMA4ImagesEEG,001,200620,
AFNE01.JPG,AFNE01.JPG,AFNE01.JPG,AFNE01.JPG,AFNE01.JPG,AFNE01.JPG,,,,,,,,,0,5,5,2,,,,,,,,,,,,,,,AFSA15.jpg,AFNE09.jpg,AFNE17.jpg,AFSA11.jpg,AFSA15.jpg,FS,4,num_8,16,num_8,0.683474463876,,,2017_Jun_13_1435,60.0067170382,FEMA4ImagesEEG,001,200620,
AFNE01.JPG,AFNE01.JPG,AFNE01.JPG,AFNE01.JPG,AFNE01.JPG,AFNE01.JPG,,,,,,,,,0,6,6,4,,,,,,,,,,,,,,,AFNE02.jpg,AFNE20.jpg,AFSA19.jpg,AFSA14.jpg,AFSA19.jpg,FS,4,num_2,32,num_8,0.600182051538,,,2017_Jun_13_1435,60.0067170382,FEMA4ImagesEEG,001,200620,
AFNE01.JPG,AFNE01.JPG,AFNE01.JPG,AFNE01.JPG,AFNE01.JPG,AFNE01.JPG,,,,,,,,,0,7,7,8,,,,,,,,,,,,,,,AFNE06.jpg,AFNE19.jpg,AFSA16.jpg,AFSA11.jpg,AFSA16.jpg,FS,4,num_2,16,num_2,0.88344437856,,,2017_Jun_13_1435,60.0067170382,FEMA4ImagesEEG,001,200620,
AFNE01.JPG,AFNE01.JPG,AFNE01.JPG,AFNE01.JPG,AFNE01.JPG,AFNE01.JPG,,,,,,,,,0,8,8,5,,,,,,,,,,,,,,,AFNE01.jpg,AFSA17.jpg,AFSA19.jpg,AFNE08.jpg,AFSA19.jpg,FS,4,num_2,32,num_6,0.566804980102,,,2017_Jun_13_1435,60.0067170382,FEMA4ImagesEEG,001,200620,
AFNE01.JPG,AFNE01.JPG,AFNE01.JPG,AFNE01.JPG,AFNE01.JPG,AFNE01.JPG,,,,,,,,,0,9,9,9,,,,,,,,,,,,,,,AFSA05.jpg,AFNE19.jpg,AFSA08.jpg,AFNE01.jpg,AFNE01.jpg,FN,3,num_4,32,num_6,0.733355164935,,,2017_Jun_13_1435,60.0067170382,FEMA4ImagesEEG,001,200620,
AFNE01.JPG,AFNE01.JPG,AFNE01.JPG,AFNE01.JPG,AFNE01.JPG,AFNE01.JPG,,,,,,,,,1,0,10,8,,,,,,,,,,,,,,,AFSA10.jpg,AFSA15.jpg,AFNE06.jpg,AFNE19.jpg,AFNE06.jpg,FN,3,num_2,32,num_4,0.750153233064,,,2017_Jun_13_1435,60.0067170382,FEMA4ImagesEEG,001,200620,
AFNE01.JPG,AFNE01.JPG,AFNE01.JPG,AFNE01.JPG,AFNE01.JPG,AFNE01.JPG,,,,,,,,,1,1,11,9,,,,,,,,,,,,,,,AFNE11.jpg,AFSA08.jpg,AFSA17.jpg,AFNE03.jpg,AFSA08.jpg,FS,4,num_6,32,num_2,0.833444041782,,,2017_Jun_13_1435,60.0067170382,FEMA4ImagesEEG,001,200620,
AFNE01.JPG,AFNE01.JPG,AFNE01.JPG,AFNE01.JPG,AFNE01.JPG,AFNE01.JPG,,,,,,,,,1,2,12,5,,,,,,,,,,,,,,,AFSA18.jpg,AFNE20.jpg,AFNE08.jpg,AFSA08.jpg,AFSA08.jpg,FS,4,num_4,16,num_4,0.616860483948,,,2017_Jun_13_1435,60.0067170382,FEMA4ImagesEEG,001,200620,
AFNE01.JPG,AFNE01.JPG,AFNE01.JPG,AFNE01.JPG,AFNE01.JPG,AFNE01.JPG,,,,,,,,,1,3,13,1,,,,,,,,,,,,,,,AFSA10.jpg,AFNE13.jpg,AFNE05.jpg,AFSA14.jpg,AFSA10.jpg,FS,4,num_8,16,num_8,0.716763332079,,,2017_Jun_13_1435,60.0067170382,FEMA4ImagesEEG,001,200620,
AFNE01.JPG,AFNE01.JPG,AFNE01.JPG,AFNE01.JPG,AFNE01.JPG,AFNE01.JPG,,,,,,,,,1,4,14,2,,,,,,,,,,,,,,,AFSA11.jpg,AFNE09.jpg,AFNE14.jpg,AFSA16.jpg,AFNE09.jpg,FN,3,num_6,32,num_2,0.68349370826,,,2017_Jun_13_1435,60.0067170382,FEMA4ImagesEEG,001,200620,
AFNE01.JPG,AFNE01.JPG,AFNE01.JPG,AFNE01.JPG,AFNE01.JPG,AFNE01.JPG,,,,,,,,,1,5,15,6,,,,,,,,,,,,,,,AFSA14.jpg,AFNE09.jpg,AFNE14.jpg,AFSA01.jpg,AFNE14.jpg,FN,3,num_2,32,num_8,0.766799270874,,,2017_Jun_13_1435,60.0067170382,FEMA4ImagesEEG,001,200620,
AFNE01.JPG,AFNE01.JPG,AFNE01.JPG,AFNE01.JPG,AFNE01.JPG,AFNE01.JPG,,,,,,,,,1,6,16,7,,,,,,,,,,,,,,,AFSA02.jpg,AFNE13.jpg,AFSA07.jpg,AFNE08.jpg,AFSA02.jpg,FS,4,num_8,32,num_2,0.816779080371,,,2017_Jun_13_1435,60.0067170382,FEMA4ImagesEEG,001,200620,
AFNE01.JPG,AFNE01.JPG,AFNE01.JPG,AFNE01.JPG,AFNE01.JPG,AFNE01.JPG,,,,,,,,,1,7,17,3,,,,,,,,,,,,,,,AFSA03.jpg,AFNE16.jpg,AFNE13.jpg,AFSA20.jpg,AFSA20.jpg,FS,4,num_4,32,num_6,0.566759755835,,,2017_Jun_13_1435,60.0067170382,FEMA4ImagesEEG,001,200620,
AFNE01.JPG,AFNE01.JPG,AFNE01.JPG,AFNE01.JPG,AFNE01.JPG,AFNE01.JPG,,,,,,,,,1,8,18,0,,,,,,,,,,,,,,,AFSA19.jpg,AFNE19.jpg,AFSA09.jpg,AFNE07.jpg,AFSA09.jpg,FS,4,num_2,32,num_8,0.783467760484,,,2017_Jun_13_1435,60.0067170382,FEMA4ImagesEEG,001,200620,
AFNE01.JPG,AFNE01.JPG,AFNE01.JPG,AFNE01.JPG,AFNE01.JPG,AFNE01.JPG,,,,,,,,,1,9,19,4,,,,,,,,,,,,,,,AFSA02.jpg,AFNE15.jpg,AFNE06.jpg,AFSA05.jpg,AFSA02.jpg,FS,4,num_8,32,num_4,0.883455283707,,,2017_Jun_13_1435,60.0067170382,FEMA4ImagesEEG,001,200620,
AFNE01.JPG,AFNE01.JPG,AFNE01.JPG,AFNE01.JPG,AFNE01.JPG,AFNE01.JPG,,,,,,,,,2,0,20,1,,,,,,,,,,,,,,,AFNE09.jpg,AFSA17.jpg,AFNE17.jpg,AFSA15.jpg,AFSA17.jpg,FS,4,num_6,16,num_6,1.4000402207,,,2017_Jun_13_1435,60.0067170382,FEMA4ImagesEEG,001,200620,
AFNE01.JPG,AFNE01.JPG,AFNE01.JPG,AFNE01.JPG,AFNE01.JPG,AFNE01.JPG,,,,,,,,,2,1,21,6,,,,,,,,,,,,,,,AFNE04.jpg,AFNE05.jpg,AFSA03.jpg,AFSA14.jpg,AFSA14.jpg,FS,4,num_4,32,num_8,1.13315515209,,,2017_Jun_13_1435,60.0067170382,FEMA4ImagesEEG,001,200620,
AFNE01.JPG,AFNE01.JPG,AFNE01.JPG,AFNE01.JPG,AFNE01.JPG,AFNE01.JPG,,,,,,,,,2,2,22,9,,,,,,,,,,,,,,,AFSA18.jpg,AFSA09.jpg,AFNE15.jpg,AFNE05.jpg,AFNE15.jpg,FN,3,num_2,16,num_2,0.616779016214,,,2017_Jun_13_1435,60.0067170382,FEMA4ImagesEEG,001,200620,
AFNE01.JPG,AFNE01.JPG,AFNE01.JPG,AFNE01.JPG,AFNE01.JPG,AFNE01.JPG,,,,,,,,,2,3,23,4,,,,,,,,,,,,,,,AFSA12.jpg,AFSA06.jpg,AFNE03.jpg,AFNE02.jpg,AFSA12.jpg,FS,4,num_8,16,num_8,0.683559780475,,,2017_Jun_13_1435,60.0067170382,FEMA4ImagesEEG,001,200620,
AFNE01.JPG,AFNE01.JPG,AFNE01.JPG,AFNE01.JPG,AFNE01.JPG,AFNE01.JPG,,,,,,,,,2,4,24,5,,,,,,,,,,,,,,,AFSA10.jpg,AFNE02.jpg,AFNE18.jpg,AFSA12.jpg,AFSA10.jpg,FS,4,num_8,16,num_8,0.850098739553,,,2017_Jun_13_1435,60.0067170382,FEMA4ImagesEEG,001,200620,
AFNE01.JPG,AFNE01.JPG,AFNE01.JPG,AFNE01.JPG,AFNE01.JPG,AFNE01.JPG,,,,,,,,,2,5,25,0,,,,,,,,,,,,,,,AFSA02.jpg,AFSA17.jpg,AFNE10.jpg,AFNE09.jpg,AFNE10.jpg,FN,3,num_2,16,num_2,0.850156793313,,,2017_Jun_13_1435,60.0067170382,FEMA4ImagesEEG,001,200620,
AFNE01.JPG,AFNE01.JPG,AFNE01.JPG,AFNE01.JPG,AFNE01.JPG,AFNE01.JPG,,,,,,,,,2,6,26,7,,,,,,,,,,,,,,,AFNE03.jpg,AFSA01.jpg,AFSA13.jpg,AFNE04.jpg,AFNE03.jpg,FN,3,num_8,16,num_8,0.650187199411,,,2017_Jun_13_1435,60.0067170382,FEMA4ImagesEEG,001,200620,
AFNE01.JPG,AFNE01.JPG,AFNE01.JPG,AFNE01.JPG,AFNE01.JPG,AFNE01.JPG,,,,,,,,,2,7,27,2,,,,,,,,,,,,,,,AFNE05.jpg,AFSA05.jpg,AFNE02.jpg,AFSA04.jpg,AFSA04.jpg,FS,4,num_4,32,num_6,0.800170569099,,,2017_Jun_13_1435,60.0067170382,FEMA4ImagesEEG,001,200620,
AFNE01.JPG,AFNE01.JPG,AFNE01.JPG,AFNE01.JPG,AFNE01.JPG,AFNE01.JPG,,,,,,,,,2,8,28,8,,,,,,,,,,,,,,,AFNE04.jpg,AFSA07.jpg,AFNE02.jpg,AFSA03.jpg,AFSA03.jpg,FS,4,num_4,16,num_4,0.85008815513,,,2017_Jun_13_1435,60.0067170382,FEMA4ImagesEEG,001,200620,
AFNE01.JPG,AFNE01.JPG,AFNE01.JPG,AFNE01.JPG,AFNE01.JPG,AFNE01.JPG,,,,,,,,,2,9,29,3,,,,,,,,,,,,,,,AFNE01.jpg,AFNE20.jpg,AFSA14.jpg,AFSA17.jpg,AFSA14.jpg,FS,4,num_2,32,num_8,0.783485401073,,,2017_Jun_13_1435,60.0067170382,FEMA4ImagesEEG,001,200620,
AFNE01.JPG,AFNE01.JPG,AFNE01.JPG,AFNE01.JPG,AFNE01.JPG,AFNE01.JPG,,,,,,,,,3,0,30,5,,,,,,,,,,,,,,,AFSA15.jpg,AFSA08.jpg,AFNE07.jpg,AFNE16.jpg,AFNE16.jpg,FN,3,num_4,32,num_8,0.783473213029,,,2017_Jun_13_1435,60.0067170382,FEMA4ImagesEEG,001,200620,
AFNE01.JPG,AFNE01.JPG,AFNE01.JPG,AFNE01.JPG,AFNE01.JPG,AFNE01.JPG,,,,,,,,,3,1,31,0,,,,,,,,,,,,,,,AFNE03.jpg,AFSA09.jpg,AFSA20.jpg,AFNE05.jpg,AFSA09.jpg,FS,4,num_6,32,num_8,0.750091009715,,,2017_Jun_13_1435,60.0067170382,FEMA4ImagesEEG,001,200620,
AFNE01.JPG,AFNE01.JPG,AFNE01.JPG,AFNE01.JPG,AFNE01.JPG,AFNE01.JPG,,,,,,,,,3,2,32,1,,,,,,,,,,,,,,,AFSA17.jpg,AFNE14.jpg,AFSA16.jpg,AFNE12.jpg,AFSA17.jpg,FS,4,num_8,32,num_2,1.00005997816,,,2017_Jun_13_1435,60.0067170382,FEMA4ImagesEEG,001,200620,
AFNE01.JPG,AFNE01.JPG,AFNE01.JPG,AFNE01.JPG,AFNE01.JPG,AFNE01.JPG,,,,,,,,,3,3,33,2,,,,,,,,,,,,,,,AFNE02.jpg,AFNE05.jpg,AFSA13.jpg,AFSA07.jpg,AFNE05.jpg,FN,3,num_6,32,num_4,0.950104544929,,,2017_Jun_13_1435,60.0067170382,FEMA4ImagesEEG,001,200620,
AFNE01.JPG,AFNE01.JPG,AFNE01.JPG,AFNE01.JPG,AFNE01.JPG,AFNE01.JPG,,,,,,,,,3,4,34,9,,,,,,,,,,,,,,,AFNE17.jpg,AFSA06.jpg,AFSA09.jpg,AFNE10.jpg,AFNE17.jpg,FN,3,num_8,32,num_2,0.866754720279,,,2017_Jun_13_1435,60.0067170382,FEMA4ImagesEEG,001,200620,
AFNE01.JPG,AFNE01.JPG,AFNE01.JPG,AFNE01.JPG,AFNE01.JPG,AFNE01.JPG,,,,,,,,,3,5,35,7,,,,,,,,,,,,,,,AFSA09.jpg,AFNE04.jpg,AFNE10.jpg,AFSA02.jpg,AFNE10.jpg,FN,3,num_2,32,num_8,1.48383555189,,,2017_Jun_13_1435,60.0067170382,FEMA4ImagesEEG,001,200620,
AFNE01.JPG,AFNE01.JPG,AFNE01.JPG,AFNE01.JPG,AFNE01.JPG,AFNE01.JPG,,,,,,,,,3,6,36,6,,,,,,,,,,,,,,,AFNE11.jpg,AFNE18.jpg,AFSA06.jpg,AFSA01.jpg,AFSA01.jpg,FS,4,num_4,16,num_4,0.833500171138,,,2017_Jun_13_1435,60.0067170382,FEMA4ImagesEEG,001,200620,
AFNE01.JPG,AFNE01.JPG,AFNE01.JPG,AFNE01.JPG,AFNE01.JPG,AFNE01.JPG,,,,,,,,,3,7,37,4,,,,,,,,,,,,,,,AFNE20.jpg,AFSA14.jpg,AFSA09.jpg,AFNE18.jpg,AFNE18.jpg,FN,3,num_4,32,num_8,1.73335580644,,,2017_Jun_13_1435,60.0067170382,FEMA4ImagesEEG,001,200620,
AFNE01.JPG,AFNE01.JPG,AFNE01.JPG,AFNE01.JPG,AFNE01.JPG,AFNE01.JPG,,,,,,,,,3,8,38,3,,,,,,,,,,,,,,,AFNE20.jpg,AFNE15.jpg,AFSA07.jpg,AFSA13.jpg,AFNE20.jpg,FN,3,num_8,32,num_2,1.2501206781,,,2017_Jun_13_1435,60.0067170382,FEMA4ImagesEEG,001,200620,
AFNE01.JPG,AFNE01.JPG,AFNE01.JPG,AFNE01.JPG,AFNE01.JPG,AFNE01.JPG,,,,,,,,,3,9,39,8,,,,,,,,,,,,,,,AFNE01.jpg,AFSA19.jpg,AFSA18.jpg,AFNE14.jpg,AFSA19.jpg,FS,4,num_6,32,num_8,2.30015854136,,,2017_Jun_13_1435,60.0067170382,FEMA4ImagesEEG,001,200620,
AFNE01.JPG,AFNE01.JPG,AFNE01.JPG,AFNE01.JPG,AFNE01.JPG,AFNE01.JPG,,,,,,,,,4,0,40,2,,,,,,,,,,,,,,,AFNE01.jpg,AFNE17.jpg,AFSA14.jpg,AFSA12.jpg,AFSA14.jpg,FS,4,num_2,32,num_4,1.41676836769,,,2017_Jun_13_1435,60.0067170382,FEMA4ImagesEEG,001,200620,
AFNE01.JPG,AFNE01.JPG,AFNE01.JPG,AFNE01.JPG,AFNE01.JPG,AFNE01.JPG,,,,,,,,,4,1,41,7,,,,,,,,,,,,,,,AFNE06.jpg,AFSA11.jpg,AFNE13.jpg,AFSA07.jpg,AFSA07.jpg,FS,4,num_4,32,num_2,0.816770741134,,,2017_Jun_13_1435,60.0067170382,FEMA4ImagesEEG,001,200620,
AFNE01.JPG,AFNE01.JPG,AFNE01.JPG,AFNE01.JPG,AFNE01.JPG,AFNE01.JPG,,,,,,,,,4,2,42,6,,,,,,,,,,,,,,,AFNE08.jpg,AFSA13.jpg,AFNE19.jpg,AFSA04.jpg,AFNE08.jpg,FN,3,num_8,32,num_2,1.41678825353,,,2017_Jun_13_1435,60.0067170382,FEMA4ImagesEEG,001,200620,
AFNE01.JPG,AFNE01.JPG,AFNE01.JPG,AFNE01.JPG,AFNE01.JPG,AFNE01.JPG,,,,,,,,,4,3,43,9,,,,,,,,,,,,,,,AFSA11.jpg,AFNE13.jpg,AFSA18.jpg,AFNE18.jpg,AFSA11.jpg,FS,4,num_8,32,num_2,0.616492916946,,,2017_Jun_13_1435,60.0067170382,FEMA4ImagesEEG,001,200620,
AFNE01.JPG,AFNE01.JPG,AFNE01.JPG,AFNE01.JPG,AFNE01.JPG,AFNE01.JPG,,,,,,,,,4,4,44,4,,,,,,,,,,,,,,,AFSA19.jpg,AFSA06.jpg,AFNE15.jpg,AFNE12.jpg,AFSA19.jpg,FS,4,num_8,32,num_2,0.983464617166,,,2017_Jun_13_1435,60.0067170382,FEMA4ImagesEEG,001,200620,
AFNE01.JPG,AFNE01.JPG,AFNE01.JPG,AFNE01.JPG,AFNE01.JPG,AFNE01.JPG,,,,,,,,,4,5,45,3,,,,,,,,,,,,,,,AFNE01.jpg,AFNE07.jpg,AFSA12.jpg,AFSA01.jpg,AFSA01.jpg,FS,4,num_4,16,num_4,0.666739260603,,,2017_Jun_13_1435,60.0067170382,FEMA4ImagesEEG,001,200620,
AFNE01.JPG,AFNE01.JPG,AFNE01.JPG,AFNE01.JPG,AFNE01.JPG,AFNE01.JPG,,,,,,,,,4,6,46,8,,,,,,,,,,,,,,,AFSA02.jpg,AFSA11.jpg,AFNE16.jpg,AFNE18.jpg,AFSA02.jpg,FS,4,num_8,16,num_8,1.43342498987,,,2017_Jun_13_1435,60.0067170382,FEMA4ImagesEEG,001,200620,
AFNE01.JPG,AFNE01.JPG,AFNE01.JPG,AFNE01.JPG,AFNE01.JPG,AFNE01.JPG,,,,,,,,,4,7,47,1,,,,,,,,,,,,,,,AFSA02.jpg,AFNE14.jpg,AFSA08.jpg,AFNE11.jpg,AFNE11.jpg,FN,3,num_4,32,num_2,0.583486299147,,,2017_Jun_13_1435,60.0067170382,FEMA4ImagesEEG,001,200620,
AFNE01.JPG,AFNE01.JPG,AFNE01.JPG,AFNE01.JPG,AFNE01.JPG,AFNE01.JPG,,,,,,,,,4,8,48,0,,,,,,,,,,,,,,,AFNE17.jpg,AFSA02.jpg,AFSA01.jpg,AFNE09.jpg,AFNE17.jpg,FN,3,num_8,16,num_8,0.683469973505,,,2017_Jun_13_1435,60.0067170382,FEMA4ImagesEEG,001,200620,
AFNE01.JPG,AFNE01.JPG,AFNE01.JPG,AFNE01.JPG,AFNE01.JPG,AFNE01.JPG,,,,,,,,,4,9,49,5,,,,,,,,,,,,,,,AFNE07.jpg,AFNE10.jpg,AFSA05.jpg,AFSA02.jpg,AFSA05.jpg,FS,4,num_2,32,num_4,1.23343326495,,,2017_Jun_13_1435,60.0067170382,FEMA4ImagesEEG,001,200620,
AFNE01.JPG,AFNE01.JPG,AFNE01.JPG,AFNE01.JPG,AFNE01.JPG,AFNE01.JPG,,,,,,,,,5,0,50,6,,,,,,,,,,,,,,,AFNE12.jpg,AFSA20.jpg,AFNE20.jpg,AFSA08.jpg,AFSA08.jpg,FS,4,num_4,32,num_8,0.916774942831,,,2017_Jun_13_1435,60.0067170382,FEMA4ImagesEEG,001,200620,
AFNE01.JPG,AFNE01.JPG,AFNE01.JPG,AFNE01.JPG,AFNE01.JPG,AFNE01.JPG,,,,,,,,,5,1,51,0,,,,,,,,,,,,,,,AFNE20.jpg,AFNE04.jpg,AFSA07.jpg,AFSA14.jpg,AFSA14.jpg,FS,4,num_4,16,num_4,1.18338353437,,,2017_Jun_13_1435,60.0067170382,FEMA4ImagesEEG,001,200620,
AFNE01.JPG,AFNE01.JPG,AFNE01.JPG,AFNE01.JPG,AFNE01.JPG,AFNE01.JPG,,,,,,,,,5,2,52,3,,,,,,,,,,,,,,,AFNE08.jpg,AFSA15.jpg,AFSA20.jpg,AFNE12.jpg,AFNE08.jpg,FN,3,num_8,16,num_8,0.666816237965,,,2017_Jun_13_1435,60.0067170382,FEMA4ImagesEEG,001,200620,
AFNE01.JPG,AFNE01.JPG,AFNE01.JPG,AFNE01.JPG,AFNE01.JPG,AFNE01.JPG,,,,,,,,,5,3,53,5,,,,,,,,,,,,,,,AFNE17.jpg,AFSA08.jpg,AFSA16.jpg,AFNE11.jpg,AFNE11.jpg,FN,3,num_4,32,num_2,0.866757927637,,,2017_Jun_13_1435,60.0067170382,FEMA4ImagesEEG,001,200620,
AFNE01.JPG,AFNE01.JPG,AFNE01.JPG,AFNE01.JPG,AFNE01.JPG,AFNE01.JPG,,,,,,,,,5,4,54,8,,,,,,,,,,,,,,,AFSA18.jpg,AFNE02.jpg,AFSA01.jpg,AFNE09.jpg,AFSA18.jpg,FS,4,num_8,16,num_8,0.76678964874,,,2017_Jun_13_1435,60.0067170382,FEMA4ImagesEEG,001,200620,
AFNE01.JPG,AFNE01.JPG,AFNE01.JPG,AFNE01.JPG,AFNE01.JPG,AFNE01.JPG,,,,,,,,,5,5,55,9,,,,,,,,,,,,,,,AFSA08.jpg,AFNE13.jpg,AFSA19.jpg,AFNE20.jpg,AFSA08.jpg,FS,4,num_8,32,num_6,0.700177272491,,,2017_Jun_13_1435,60.0067170382,FEMA4ImagesEEG,001,200620,
AFNE01.JPG,AFNE01.JPG,AFNE01.JPG,AFNE01.JPG,AFNE01.JPG,AFNE01.JPG,,,,,,,,,5,6,56,2,,,,,,,,,,,,,,,AFSA02.jpg,AFNE15.jpg,AFNE14.jpg,AFSA03.jpg,AFSA03.jpg,FS,4,num_4,32,num_8,0.866806038481,,,2017_Jun_13_1435,60.0067170382,FEMA4ImagesEEG,001,200620,
AFNE01.JPG,AFNE01.JPG,AFNE01.JPG,AFNE01.JPG,AFNE01.JPG,AFNE01.JPG,,,,,,,,,5,7,57,1,,,,,,,,,,,,,,,AFSA15.jpg,AFNE08.jpg,AFNE13.jpg,AFSA09.jpg,AFNE08.jpg,FN,3,num_6,32,num_4,0.967062982556,,,2017_Jun_13_1435,60.0067170382,FEMA4ImagesEEG,001,200620,
AFNE01.JPG,AFNE01.JPG,AFNE01.JPG,AFNE01.JPG,AFNE01.JPG,AFNE01.JPG,,,,,,,,,5,8,58,4,,,,,,,,,,,,,,,AFSA11.jpg,AFNE11.jpg,AFNE14.jpg,AFSA07.jpg,AFNE14.jpg,FN,3,num_2,16,num_2,0.716805028147,,,2017_Jun_13_1435,60.0067170382,FEMA4ImagesEEG,001,200620,
AFNE01.JPG,AFNE01.JPG,AFNE01.JPG,AFNE01.JPG,AFNE01.JPG,AFNE01.JPG,,,,,,,,,5,9,59,7,,,,,,,,,,,,,,,AFSA07.jpg,AFSA17.jpg,AFNE14.jpg,AFNE07.jpg,AFNE07.jpg,FN,3,num_4,32,num_8,1.50038793392,,,2017_Jun_13_1435,60.0067170382,FEMA4ImagesEEG,001,200620,
,,,,,,,,,,,,,,,,,,,,,,,,,,,,,,,,,,,,,,,,,,,space,19.7818194823,2017_Jun_13_1435,60.0067170382,FEMA4ImagesEEG,001,200620,
AFNE01.JPG,AFNE01.JPG,AFNE01.JPG,AFNE01.JPG,AFNE01.JPG,AFNE01.JPG,,,,,,,,,,,,,0,0,0,6,,,,,,,,,,,AMNE04.jpg,AMSA09.jpg,AMSA02.jpg,AMNE03.jpg,AMNE04.jpg,MN,1,num_8,16,num_8,0.80015100399,,,2017_Jun_13_1435,60.0067170382,FEMA4ImagesEEG,001,200620,
AFNE01.JPG,AFNE01.JPG,AFNE01.JPG,AFNE01.JPG,AFNE01.JPG,AFNE01.JPG,,,,,,,,,,,,,0,1,1,4,,,,,,,,,,,AMSA12.jpg,AMNE19.jpg,AMNE11.jpg,AMSA19.jpg,AMSA19.jpg,MS,2,num_4,16,num_4,0.600145487231,,,2017_Jun_13_1435,60.0067170382,FEMA4ImagesEEG,001,200620,
AFNE01.JPG,AFNE01.JPG,AFNE01.JPG,AFNE01.JPG,AFNE01.JPG,AFNE01.JPG,,,,,,,,,,,,,0,2,2,7,,,,,,,,,,,AMNE17.jpg,AMNE16.jpg,AMSA16.jpg,AMSA17.jpg,AMNE17.jpg,MN,1,num_8,32,num_4,0.683416730841,,,2017_Jun_13_1435,60.0067170382,FEMA4ImagesEEG,001,200620,
AFNE01.JPG,AFNE01.JPG,AFNE01.JPG,AFNE01.JPG,AFNE01.JPG,AFNE01.JPG,,,,,,,,,,,,,0,3,3,0,,,,,,,,,,,AMNE17.jpg,AMSA13.jpg,AMSA04.jpg,AMNE14.jpg,AMSA04.jpg,MS,2,num_2,16,num_2,1.06677499093,,,2017_Jun_13_1435,60.0067170382,FEMA4ImagesEEG,001,200620,
AFNE01.JPG,AFNE01.JPG,AFNE01.JPG,AFNE01.JPG,AFNE01.JPG,AFNE01.JPG,,,,,,,,,,,,,0,4,4,8,,,,,,,,,,,AMNE18.jpg,AMSA12.jpg,AMSA11.jpg,AMNE09.jpg,AMSA12.jpg,MS,2,num_6,32,num_8,0.666811747651,,,2017_Jun_13_1435,60.0067170382,FEMA4ImagesEEG,001,200620,
AFNE01.JPG,AFNE01.JPG,AFNE01.JPG,AFNE01.JPG,AFNE01.JPG,AFNE01.JPG,,,,,,,,,,,,,0,5,5,5,,,,,,,,,,,AMNE19.jpg,AMNE12.jpg,AMSA08.jpg,AMSA01.jpg,AMNE19.jpg,MN,1,num_8,32,num_4,0.766754046665,,,2017_Jun_13_1435,60.0067170382,FEMA4ImagesEEG,001,200620,
AFNE01.JPG,AFNE01.JPG,AFNE01.JPG,AFNE01.JPG,AFNE01.JPG,AFNE01.JPG,,,,,,,,,,,,,0,6,6,9,,,,,,,,,,,AMSA03.jpg,AMNE16.jpg,AMSA16.jpg,AMNE11.jpg,AMNE11.jpg,MN,1,num_4,32,num_6,0.600184617448,,,2017_Jun_13_1435,60.0067170382,FEMA4ImagesEEG,001,200620,
AFNE01.JPG,AFNE01.JPG,AFNE01.JPG,AFNE01.JPG,AFNE01.JPG,AFNE01.JPG,,,,,,,,,,,,,0,7,7,2,,,,,,,,,,,AMNE19.jpg,AMNE06.jpg,AMSA14.jpg,AMSA06.jpg,AMSA14.jpg,MS,2,num_2,16,num_2,0.566783811315,,,2017_Jun_13_1435,60.0067170382,FEMA4ImagesEEG,001,200620,
AFNE01.JPG,AFNE01.JPG,AFNE01.JPG,AFNE01.JPG,AFNE01.JPG,AFNE01.JPG,,,,,,,,,,,,,0,8,8,3,,,,,,,,,,,AMNE15.jpg,AMSA05.jpg,AMNE18.jpg,AMSA04.jpg,AMSA04.jpg,MS,2,num_4,16,num_4,0.433539493708,,,2017_Jun_13_1435,60.0067170382,FEMA4ImagesEEG,001,200620,
AFNE01.JPG,AFNE01.JPG,AFNE01.JPG,AFNE01.JPG,AFNE01.JPG,AFNE01.JPG,,,,,,,,,,,,,0,9,9,1,,,,,,,,,,,AMNE09.jpg,AMSA05.jpg,AMNE16.jpg,AMSA14.jpg,AMNE16.jpg,MN,1,num_2,32,num_8,0.900106774003,,,2017_Jun_13_1435,60.0067170382,FEMA4ImagesEEG,001,200620,
AFNE01.JPG,AFNE01.JPG,AFNE01.JPG,AFNE01.JPG,AFNE01.JPG,AFNE01.JPG,,,,,,,,,,,,,1,0,10,4,,,,,,,,,,,AMNE11.jpg,AMNE20.jpg,AMSA04.jpg,AMSA08.jpg,AMNE11.jpg,MN,1,num_8,16,num_8,0.700160914799,,,2017_Jun_13_1435,60.0067170382,FEMA4ImagesEEG,001,200620,
AFNE01.JPG,AFNE01.JPG,AFNE01.JPG,AFNE01.JPG,AFNE01.JPG,AFNE01.JPG,,,,,,,,,,,,,1,1,11,3,,,,,,,,,,,AMNE12.jpg,AMSA13.jpg,AMNE17.jpg,AMSA17.jpg,AMSA17.jpg,MS,2,num_4,32,num_8,0.750169911538,,,2017_Jun_13_1435,60.0067170382,FEMA4ImagesEEG,001,200620,
AFNE01.JPG,AFNE01.JPG,AFNE01.JPG,AFNE01.JPG,AFNE01.JPG,AFNE01.JPG,,,,,,,,,,,,,1,2,12,1,,,,,,,,,,,AMNE07.jpg,AMSA18.jpg,AMNE04.jpg,AMSA10.jpg,AMSA10.jpg,MS,2,num_4,32,num_8,0.766770404414,,,2017_Jun_13_1435,60.0067170382,FEMA4ImagesEEG,001,200620,
AFNE01.JPG,AFNE01.JPG,AFNE01.JPG,AFNE01.JPG,AFNE01.JPG,AFNE01.JPG,,,,,,,,,,,,,1,3,13,0,,,,,,,,,,,AMNE18.jpg,AMSA06.jpg,AMNE09.jpg,AMSA17.jpg,AMSA06.jpg,MS,2,num_6,32,num_4,0.883511413063,,,2017_Jun_13_1435,60.0067170382,FEMA4ImagesEEG,001,200620,
AFNE01.JPG,AFNE01.JPG,AFNE01.JPG,AFNE01.JPG,AFNE01.JPG,AFNE01.JPG,,,,,,,,,,,,,1,4,14,8,,,,,,,,,,,AMSA03.jpg,AMSA15.jpg,AMNE02.jpg,AMNE05.jpg,AMSA03.jpg,MS,2,num_8,32,num_4,0.850197527208,,,2017_Jun_13_1435,60.0067170382,FEMA4ImagesEEG,001,200620,
AFNE01.JPG,AFNE01.JPG,AFNE01.JPG,AFNE01.JPG,AFNE01.JPG,AFNE01.JPG,,,,,,,,,,,,,1,5,15,7,,,,,,,,,,,AMSA08.jpg,AMNE10.jpg,AMSA14.jpg,AMNE11.jpg,AMNE10.jpg,MN,1,num_6,32,num_8,1.0500859741,,,2017_Jun_13_1435,60.0067170382,FEMA4ImagesEEG,001,200620,
AFNE01.JPG,AFNE01.JPG,AFNE01.JPG,AFNE01.JPG,AFNE01.JPG,AFNE01.JPG,,,,,,,,,,,,,1,6,16,9,,,,,,,,,,,AMNE13.jpg,AMNE17.jpg,AMSA03.jpg,AMSA11.jpg,AMNE13.jpg,MN,1,num_8,16,num_8,0.766806647938,,,2017_Jun_13_1435,60.0067170382,FEMA4ImagesEEG,001,200620,
AFNE01.JPG,AFNE01.JPG,AFNE01.JPG,AFNE01.JPG,AFNE01.JPG,AFNE01.JPG,,,,,,,,,,,,,1,7,17,5,,,,,,,,,,,AMSA06.jpg,AMNE03.jpg,AMSA18.jpg,AMNE12.jpg,AMSA06.jpg,MS,2,num_8,16,num_8,0.5335228474,,,2017_Jun_13_1435,60.0067170382,FEMA4ImagesEEG,001,200620,
AFNE01.JPG,AFNE01.JPG,AFNE01.JPG,AFNE01.JPG,AFNE01.JPG,AFNE01.JPG,,,,,,,,,,,,,1,8,18,2,,,,,,,,,,,AMNE01.jpg,AMSA06.jpg,AMNE14.jpg,AMSA07.jpg,AMSA07.jpg,MS,2,num_4,16,num_4,0.600157996116,,,2017_Jun_13_1435,60.0067170382,FEMA4ImagesEEG,001,200620,
AFNE01.JPG,AFNE01.JPG,AFNE01.JPG,AFNE01.JPG,AFNE01.JPG,AFNE01.JPG,,,,,,,,,,,,,1,9,19,6,,,,,,,,,,,AMNE18.jpg,AMSA13.jpg,AMNE12.jpg,AMSA17.jpg,AMNE12.jpg,MN,1,num_2,32,num_8,0.566777717264,,,2017_Jun_13_1435,60.0067170382,FEMA4ImagesEEG,001,200620,
AFNE01.JPG,AFNE01.JPG,AFNE01.JPG,AFNE01.JPG,AFNE01.JPG,AFNE01.JPG,,,,,,,,,,,,,2,0,20,1,,,,,,,,,,,AMNE16.jpg,AMNE17.jpg,AMSA04.jpg,AMSA01.jpg,AMSA04.jpg,MS,2,num_2,32,num_4,0.800093912403,,,2017_Jun_13_1435,60.0067170382,FEMA4ImagesEEG,001,200620,
AFNE01.JPG,AFNE01.JPG,AFNE01.JPG,AFNE01.JPG,AFNE01.JPG,AFNE01.JPG,,,,,,,,,,,,,2,1,21,0,,,,,,,,,,,AMSA14.jpg,AMNE05.jpg,AMSA01.jpg,AMNE02.jpg,AMNE02.jpg,MN,1,num_4,32,num_2,1.13340821525,,,2017_Jun_13_1435,60.0067170382,FEMA4ImagesEEG,001,200620,
AFNE01.JPG,AFNE01.JPG,AFNE01.JPG,AFNE01.JPG,AFNE01.JPG,AFNE01.JPG,,,,,,,,,,,,,2,2,22,5,,,,,,,,,,,AMSA09.jpg,AMNE02.jpg,AMSA17.jpg,AMNE06.jpg,AMSA17.jpg,MS,2,num_2,32,num_8,0.900164507097,,,2017_Jun_13_1435,60.0067170382,FEMA4ImagesEEG,001,200620,
AFNE01.JPG,AFNE01.JPG,AFNE01.JPG,AFNE01.JPG,AFNE01.JPG,AFNE01.JPG,,,,,,,,,,,,,2,3,23,6,,,,,,,,,,,AMSA16.jpg,AMNE08.jpg,AMNE13.jpg,AMSA12.jpg,AMNE13.jpg,MN,1,num_2,32,num_6,0.433516400517,,,2017_Jun_13_1435,60.0067170382,FEMA4ImagesEEG,001,200620,
AFNE01.JPG,AFNE01.JPG,AFNE01.JPG,AFNE01.JPG,AFNE01.JPG,AFNE01.JPG,,,,,,,,,,,,,2,4,24,3,,,,,,,,,,,AMSA05.jpg,AMNE18.jpg,AMSA04.jpg,AMNE01.jpg,AMSA05.jpg,MS,2,num_8,32,num_4,0.683483765286,,,2017_Jun_13_1435,60.0067170382,FEMA4ImagesEEG,001,200620,
AFNE01.JPG,AFNE01.JPG,AFNE01.JPG,AFNE01.JPG,AFNE01.JPG,AFNE01.JPG,,,,,,,,,,,,,2,5,25,8,,,,,,,,,,,AMSA02.jpg,AMNE19.jpg,AMNE17.jpg,AMSA14.jpg,AMNE19.jpg,MN,1,num_6,32,num_2,0.683435975167,,,2017_Jun_13_1435,60.0067170382,FEMA4ImagesEEG,001,200620,
AFNE01.JPG,AFNE01.JPG,AFNE01.JPG,AFNE01.JPG,AFNE01.JPG,AFNE01.JPG,,,,,,,,,,,,,2,6,26,2,,,,,,,,,,,AMSA10.jpg,AMSA02.jpg,AMNE05.jpg,AMNE06.jpg,AMSA02.jpg,MS,2,num_6,16,num_6,0.650139409234,,,2017_Jun_13_1435,60.0067170382,FEMA4ImagesEEG,001,200620,
AFNE01.JPG,AFNE01.JPG,AFNE01.JPG,AFNE01.JPG,AFNE01.JPG,AFNE01.JPG,,,,,,,,,,,,,2,7,27,9,,,,,,,,,,,AMSA09.jpg,AMNE01.jpg,AMSA02.jpg,AMNE15.jpg,AMNE15.jpg,MN,1,num_4,32,num_8,0.883491206449,,,2017_Jun_13_1435,60.0067170382,FEMA4ImagesEEG,001,200620,
AFNE01.JPG,AFNE01.JPG,AFNE01.JPG,AFNE01.JPG,AFNE01.JPG,AFNE01.JPG,,,,,,,,,,,,,2,8,28,7,,,,,,,,,,,AMNE07.jpg,AMSA04.jpg,AMSA20.jpg,AMNE19.jpg,AMNE19.jpg,MN,1,num_4,32,num_2,0.500446629187,,,2017_Jun_13_1435,60.0067170382,FEMA4ImagesEEG,001,200620,
AFNE01.JPG,AFNE01.JPG,AFNE01.JPG,AFNE01.JPG,AFNE01.JPG,AFNE01.JPG,,,,,,,,,,,,,2,9,29,4,,,,,,,,,,,AMNE09.jpg,AMSA10.jpg,AMSA19.jpg,AMNE17.jpg,AMNE17.jpg,MN,1,num_4,32,num_8,0.150398406084,,,2017_Jun_13_1435,60.0067170382,FEMA4ImagesEEG,001,200620,
AFNE01.JPG,AFNE01.JPG,AFNE01.JPG,AFNE01.JPG,AFNE01.JPG,AFNE01.JPG,,,,,,,,,,,,,3,0,30,0,,,,,,,,,,,AMSA05.jpg,AMNE05.jpg,AMSA14.jpg,AMNE15.jpg,AMNE05.jpg,MN,1,num_6,32,num_4,0.716776161629,,,2017_Jun_13_1435,60.0067170382,FEMA4ImagesEEG,001,200620,
AFNE01.JPG,AFNE01.JPG,AFNE01.JPG,AFNE01.JPG,AFNE01.JPG,AFNE01.JPG,,,,,,,,,,,,,3,1,31,3,,,,,,,,,,,AMSA20.jpg,AMNE12.jpg,AMSA09.jpg,AMNE06.jpg,AMNE12.jpg,MN,1,num_6,32,num_2,0.766750518524,,,2017_Jun_13_1435,60.0067170382,FEMA4ImagesEEG,001,200620,
AFNE01.JPG,AFNE01.JPG,AFNE01.JPG,AFNE01.JPG,AFNE01.JPG,AFNE01.JPG,,,,,,,,,,,,,3,2,32,4,,,,,,,,,,,AMNE08.jpg,AMSA11.jpg,AMSA05.jpg,AMNE04.jpg,AMNE04.jpg,MN,1,num_4,16,num_4,0.966790033621,,,2017_Jun_13_1435,60.0067170382,FEMA4ImagesEEG,001,200620,
AFNE01.JPG,AFNE01.JPG,AFNE01.JPG,AFNE01.JPG,AFNE01.JPG,AFNE01.JPG,,,,,,,,,,,,,3,3,33,9,,,,,,,,,,,AMSA19.jpg,AMNE10.jpg,AMNE03.jpg,AMSA02.jpg,AMNE10.jpg,MN,1,num_6,16,num_6,0.83347034239,,,2017_Jun_13_1435,60.0067170382,FEMA4ImagesEEG,001,200620,
AFNE01.JPG,AFNE01.JPG,AFNE01.JPG,AFNE01.JPG,AFNE01.JPG,AFNE01.JPG,,,,,,,,,,,,,3,4,34,7,,,,,,,,,,,AMNE09.jpg,AMNE15.jpg,AMSA15.jpg,AMSA08.jpg,AMSA15.jpg,MS,2,num_2,32,num_8,0.600163769326,,,2017_Jun_13_1435,60.0067170382,FEMA4ImagesEEG,001,200620,
AFNE01.JPG,AFNE01.JPG,AFNE01.JPG,AFNE01.JPG,AFNE01.JPG,AFNE01.JPG,,,,,,,,,,,,,3,5,35,6,,,,,,,,,,,AMNE07.jpg,AMSA17.jpg,AMSA15.jpg,AMNE01.jpg,AMNE07.jpg,MN,1,num_8,32,num_6,1.18346275692,,,2017_Jun_13_1435,60.0067170382,FEMA4ImagesEEG,001,200620,
AFNE01.JPG,AFNE01.JPG,AFNE01.JPG,AFNE01.JPG,AFNE01.JPG,AFNE01.JPG,,,,,,,,,,,,,3,6,36,2,,,,,,,,,,,AMSA20.jpg,AMNE01.jpg,AMSA06.jpg,AMNE15.jpg,AMNE01.jpg,MN,1,num_6,16,num_6,0.633499144751,,,2017_Jun_13_1435,60.0067170382,FEMA4ImagesEEG,001,200620,
AFNE01.JPG,AFNE01.JPG,AFNE01.JPG,AFNE01.JPG,AFNE01.JPG,AFNE01.JPG,,,,,,,,,,,,,3,7,37,5,,,,,,,,,,,AMSA16.jpg,AMNE05.jpg,AMNE06.jpg,AMSA05.jpg,AMSA16.jpg,MS,2,num_8,32,num_2,0.683493708202,,,2017_Jun_13_1435,60.0067170382,FEMA4ImagesEEG,001,200620,
AFNE01.JPG,AFNE01.JPG,AFNE01.JPG,AFNE01.JPG,AFNE01.JPG,AFNE01.JPG,,,,,,,,,,,,,3,8,38,8,,,,,,,,,,,AMSA11.jpg,AMSA07.jpg,AMNE09.jpg,AMNE03.jpg,AMNE03.jpg,MN,1,num_4,32,num_8,0.73344272672,,,2017_Jun_13_1435,60.0067170382,FEMA4ImagesEEG,001,200620,
AFNE01.JPG,AFNE01.JPG,AFNE01.JPG,AFNE01.JPG,AFNE01.JPG,AFNE01.JPG,,,,,,,,,,,,,3,9,39,1,,,,,,,,,,,AMSA10.jpg,AMNE10.jpg,AMNE11.jpg,AMSA15.jpg,AMSA15.jpg,MS,2,num_4,16,num_4,0.550325085118,,,2017_Jun_13_1435,60.0067170382,FEMA4ImagesEEG,001,200620,
AFNE01.JPG,AFNE01.JPG,AFNE01.JPG,AFNE01.JPG,AFNE01.JPG,AFNE01.JPG,,,,,,,,,,,,,4,0,40,5,,,,,,,,,,,AMSA11.jpg,AMSA10.jpg,AMNE07.jpg,AMNE19.jpg,AMSA11.jpg,MS,2,num_8,32,num_6,1.28345958155,,,2017_Jun_13_1435,60.0067170382,FEMA4ImagesEEG,001,200620,
AFNE01.JPG,AFNE01.JPG,AFNE01.JPG,AFNE01.JPG,AFNE01.JPG,AFNE01.JPG,,,,,,,,,,,,,4,1,41,2,,,,,,,,,,,AMNE10.jpg,AMNE11.jpg,AMSA18.jpg,AMSA03.jpg,AMNE10.jpg,MN,1,num_8,16,num_8,0.816764326359,,,2017_Jun_13_1435,60.0067170382,FEMA4ImagesEEG,001,200620,
AFNE01.JPG,AFNE01.JPG,AFNE01.JPG,AFNE01.JPG,AFNE01.JPG,AFNE01.JPG,,,,,,,,,,,,,4,2,42,8,,,,,,,,,,,AMNE14.jpg,AMNE08.jpg,AMSA15.jpg,AMSA18.jpg,AMNE14.jpg,MN,1,num_8,32,num_2,0.78346808115,,,2017_Jun_13_1435,60.0067170382,FEMA4ImagesEEG,001,200620,
AFNE01.JPG,AFNE01.JPG,AFNE01.JPG,AFNE01.JPG,AFNE01.JPG,AFNE01.JPG,,,,,,,,,,,,,4,3,43,1,,,,,,,,,,,AMNE18.jpg,AMSA03.jpg,AMNE05.jpg,AMSA14.jpg,AMSA14.jpg,MS,2,num_4,32,num_8,1.01678395557,,,2017_Jun_13_1435,60.0067170382,FEMA4ImagesEEG,001,200620,
AFNE01.JPG,AFNE01.JPG,AFNE01.JPG,AFNE01.JPG,AFNE01.JPG,AFNE01.JPG,,,,,,,,,,,,,4,4,44,0,,,,,,,,,,,AMSA18.jpg,AMNE03.jpg,AMSA05.jpg,AMNE04.jpg,AMSA18.jpg,MS,2,num_8,16,num_8,0.650186557847,,,2017_Jun_13_1435,60.0067170382,FEMA4ImagesEEG,001,200620,
AFNE01.JPG,AFNE01.JPG,AFNE01.JPG,AFNE01.JPG,AFNE01.JPG,AFNE01.JPG,,,,,,,,,,,,,4,5,45,7,,,,,,,,,,,AMSA17.jpg,AMNE03.jpg,AMNE06.jpg,AMSA12.jpg,AMNE03.jpg,MN,1,num_6,32,num_4,0.600253255572,,,2017_Jun_13_1435,60.0067170382,FEMA4ImagesEEG,001,200620,
AFNE01.JPG,AFNE01.JPG,AFNE01.JPG,AFNE01.JPG,AFNE01.JPG,AFNE01.JPG,,,,,,,,,,,,,4,6,46,3,,,,,,,,,,,AMNE08.jpg,AMNE12.jpg,AMSA09.jpg,AMSA08.jpg,AMSA09.jpg,MS,2,num_2,16,num_2,0.850070835266,,,2017_Jun_13_1435,60.0067170382,FEMA4ImagesEEG,001,200620,
AFNE01.JPG,AFNE01.JPG,AFNE01.JPG,AFNE01.JPG,AFNE01.JPG,AFNE01.JPG,,,,,,,,,,,,,4,7,47,9,,,,,,,,,,,AMNE02.jpg,AMNE19.jpg,AMSA15.jpg,AMSA07.jpg,AMNE19.jpg,MN,1,num_6,32,num_8,0.916768207331,,,2017_Jun_13_1435,60.0067170382,FEMA4ImagesEEG,001,200620,
AFNE01.JPG,AFNE01.JPG,AFNE01.JPG,AFNE01.JPG,AFNE01.JPG,AFNE01.JPG,,,,,,,,,,,,,4,8,48,4,,,,,,,,,,,AMNE18.jpg,AMNE19.jpg,AMSA18.jpg,AMSA01.jpg,AMSA18.jpg,MS,2,num_2,32,num_6,0.55010730325,,,2017_Jun_13_1435,60.0067170382,FEMA4ImagesEEG,001,200620,
AFNE01.JPG,AFNE01.JPG,AFNE01.JPG,AFNE01.JPG,AFNE01.JPG,AFNE01.JPG,,,,,,,,,,,,,4,9,49,6,,,,,,,,,,,AMNE06.jpg,AMNE10.jpg,AMSA07.jpg,AMSA08.jpg,AMSA07.jpg,MS,2,num_2,32,num_4,1.20015530183,,,2017_Jun_13_1435,60.0067170382,FEMA4ImagesEEG,001,200620,
AFNE01.JPG,AFNE01.JPG,AFNE01.JPG,AFNE01.JPG,AFNE01.JPG,AFNE01.JPG,,,,,,,,,,,,,5,0,50,6,,,,,,,,,,,AMNE19.jpg,AMNE11.jpg,AMSA13.jpg,AMSA18.jpg,AMSA13.jpg,MS,2,num_2,32,num_6,0.866822716955,,,2017_Jun_13_1435,60.0067170382,FEMA4ImagesEEG,001,200620,
AFNE01.JPG,AFNE01.JPG,AFNE01.JPG,AFNE01.JPG,AFNE01.JPG,AFNE01.JPG,,,,,,,,,,,,,5,1,51,2,,,,,,,,,,,AMNE08.jpg,AMSA02.jpg,AMSA03.jpg,AMNE20.jpg,AMSA03.jpg,MS,2,num_2,32,num_8,0.666796352132,,,2017_Jun_13_1435,60.0067170382,FEMA4ImagesEEG,001,200620,
AFNE01.JPG,AFNE01.JPG,AFNE01.JPG,AFNE01.JPG,AFNE01.JPG,AFNE01.JPG,,,,,,,,,,,,,5,2,52,4,,,,,,,,,,,AMNE13.jpg,AMNE04.jpg,AMSA18.jpg,AMSA19.jpg,AMNE13.jpg,MN,1,num_8,32,num_4,0.883470358443,,,2017_Jun_13_1435,60.0067170382,FEMA4ImagesEEG,001,200620,
AFNE01.JPG,AFNE01.JPG,AFNE01.JPG,AFNE01.JPG,AFNE01.JPG,AFNE01.JPG,,,,,,,,,,,,,5,3,53,0,,,,,,,,,,,AMNE07.jpg,AMSA07.jpg,AMNE19.jpg,AMSA16.jpg,AMSA16.jpg,MS,2,num_4,16,num_4,0.683475746831,,,2017_Jun_13_1435,60.0067170382,FEMA4ImagesEEG,001,200620,
AFNE01.JPG,AFNE01.JPG,AFNE01.JPG,AFNE01.JPG,AFNE01.JPG,AFNE01.JPG,,,,,,,,,,,,,5,4,54,8,,,,,,,,,,,AMNE14.jpg,AMSA02.jpg,AMSA10.jpg,AMNE17.jpg,AMNE14.jpg,MN,1,num_8,16,num_8,0.80024049012,,,2017_Jun_13_1435,60.0067170382,FEMA4ImagesEEG,001,200620,
AFNE01.JPG,AFNE01.JPG,AFNE01.JPG,AFNE01.JPG,AFNE01.JPG,AFNE01.JPG,,,,,,,,,,,,,5,5,55,7,,,,,,,,,,,AMSA20.jpg,AMNE19.jpg,AMNE05.jpg,AMSA19.jpg,AMNE19.jpg,MN,1,num_6,32,num_2,1.31674267648,,,2017_Jun_13_1435,60.0067170382,FEMA4ImagesEEG,001,200620,
AFNE01.JPG,AFNE01.JPG,AFNE01.JPG,AFNE01.JPG,AFNE01.JPG,AFNE01.JPG,,,,,,,,,,,,,5,6,56,5,,,,,,,,,,,AMNE07.jpg,AMSA13.jpg,AMNE19.jpg,AMSA03.jpg,AMNE07.jpg,MN,1,num_8,32,num_2,0.616796656861,,,2017_Jun_13_1435,60.0067170382,FEMA4ImagesEEG,001,200620,
AFNE01.JPG,AFNE01.JPG,AFNE01.JPG,AFNE01.JPG,AFNE01.JPG,AFNE01.JPG,,,,,,,,,,,,,5,7,57,1,,,,,,,,,,,AMNE01.jpg,AMSA02.jpg,AMNE02.jpg,AMSA11.jpg,AMNE01.jpg,MN,1,num_8,32,num_6,0.600075245369,,,2017_Jun_13_1435,60.0067170382,FEMA4ImagesEEG,001,200620,
AFNE01.JPG,AFNE01.JPG,AFNE01.JPG,AFNE01.JPG,AFNE01.JPG,AFNE01.JPG,,,,,,,,,,,,,5,8,58,9,,,,,,,,,,,AMSA13.jpg,AMNE14.jpg,AMNE05.jpg,AMSA07.jpg,AMSA07.jpg,MS,2,num_4,16,num_4,1.88329748006,,,2017_Jun_13_1435,60.0067170382,FEMA4ImagesEEG,001,200620,
AFNE01.JPG,AFNE01.JPG,AFNE01.JPG,AFNE01.JPG,AFNE01.JPG,AFNE01.JPG,,,,,,,,,,,,,5,9,59,3,,,,,,,,,,,AMNE02.jpg,AMSA07.jpg,AMSA06.jpg,AMNE20.jpg,AMNE20.jpg,MN,1,num_4,32,num_8,0.700160594017,,,2017_Jun_13_1435,60.0067170382,FEMA4ImagesEEG,001,200620,
,,,,,,,,,,,,,,,,,,,,,,,,,,,,,,,,,,,,,,,,,,,space,10.982309315,2017_Jun_13_1435,60.0067170382,FEMA4ImagesEEG,001,200620,
AFNE01.JPG,AFNE01.JPG,AFNE01.JPG,AFNE01.JPG,AFNE01.JPG,AFNE01.JPG,,,,,,,,,,,,,,,,,0,0,0,7,,,,,,,AFNE01.jpg,AFNE03.jpg,AFSA11.jpg,AFSA01.jpg,AFSA11.jpg,FS,4,num_2,32,num_8,0.717066430545,,,2017_Jun_13_1435,60.0067170382,FEMA4ImagesEEG,001,200620,
AFNE01.JPG,AFNE01.JPG,AFNE01.JPG,AFNE01.JPG,AFNE01.JPG,AFNE01.JPG,,,,,,,,,,,,,,,,,0,1,1,4,,,,,,,AFNE06.jpg,AFNE16.jpg,AFSA01.jpg,AFSA08.jpg,AFSA08.jpg,FS,4,num_4,32,num_6,0.933472940407,,,2017_Jun_13_1435,60.0067170382,FEMA4ImagesEEG,001,200620,
AFNE01.JPG,AFNE01.JPG,AFNE01.JPG,AFNE01.JPG,AFNE01.JPG,AFNE01.JPG,,,,,,,,,,,,,,,,,0,2,2,1,,,,,,,AFNE02.jpg,AFNE16.jpg,AFSA11.jpg,AFSA19.jpg,AFNE02.jpg,FN,3,num_8,32,num_4,0.516812661721,,,2017_Jun_13_1435,60.0067170382,FEMA4ImagesEEG,001,200620,
AFNE01.JPG,AFNE01.JPG,AFNE01.JPG,AFNE01.JPG,AFNE01.JPG,AFNE01.JPG,,,,,,,,,,,,,,,,,0,3,3,8,,,,,,,AFNE12.jpg,AFSA18.jpg,AFSA20.jpg,AFNE18.jpg,AFNE12.jpg,FN,3,num_8,16,num_8,0.750185627723,,,2017_Jun_13_1435,60.0067170382,FEMA4ImagesEEG,001,200620,
AFNE01.JPG,AFNE01.JPG,AFNE01.JPG,AFNE01.JPG,AFNE01.JPG,AFNE01.JPG,,,,,,,,,,,,,,,,,0,4,4,6,,,,,,,AFNE07.jpg,AFNE02.jpg,AFSA11.jpg,AFSA19.jpg,AFSA11.jpg,FS,4,num_2,32,num_4,0.516829660919,,,2017_Jun_13_1435,60.0067170382,FEMA4ImagesEEG,001,200620,
AFNE01.JPG,AFNE01.JPG,AFNE01.JPG,AFNE01.JPG,AFNE01.JPG,AFNE01.JPG,,,,,,,,,,,,,,,,,0,5,5,9,,,,,,,AFNE11.jpg,AFSA15.jpg,AFSA18.jpg,AFNE07.jpg,AFSA18.jpg,FS,4,num_2,16,num_2,0.816818852036,,,2017_Jun_13_1435,60.0067170382,FEMA4ImagesEEG,001,200620,
AFNE01.JPG,AFNE01.JPG,AFNE01.JPG,AFNE01.JPG,AFNE01.JPG,AFNE01.JPG,,,,,,,,,,,,,,,,,0,6,6,5,,,,,,,AFSA02.jpg,AFNE20.jpg,AFSA11.jpg,AFNE03.jpg,AFNE20.jpg,FN,3,num_6,32,num_4,0.683482161607,,,2017_Jun_13_1435,60.0067170382,FEMA4ImagesEEG,001,200620,
AFNE01.JPG,AFNE01.JPG,AFNE01.JPG,AFNE01.JPG,AFNE01.JPG,AFNE01.JPG,,,,,,,,,,,,,,,,,0,7,7,3,,,,,,,AFSA08.jpg,AFNE07.jpg,AFNE05.jpg,AFSA02.jpg,AFNE07.jpg,FN,3,num_6,16,num_6,0.600224709837,,,2017_Jun_13_1435,60.0067170382,FEMA4ImagesEEG,001,200620,
AFNE01.JPG,AFNE01.JPG,AFNE01.JPG,AFNE01.JPG,AFNE01.JPG,AFNE01.JPG,,,,,,,,,,,,,,,,,0,8,8,0,,,,,,,AFSA06.jpg,AFNE04.jpg,AFNE19.jpg,AFSA20.jpg,AFSA06.jpg,FS,4,num_8,16,num_8,0.750098386721,,,2017_Jun_13_1435,60.0067170382,FEMA4ImagesEEG,001,200620,
AFNE01.JPG,AFNE01.JPG,AFNE01.JPG,AFNE01.JPG,AFNE01.JPG,AFNE01.JPG,,,,,,,,,,,,,,,,,0,9,9,2,,,,,,,AFSA03.jpg,AFSA04.jpg,AFNE04.jpg,AFNE17.jpg,AFNE17.jpg,FN,3,num_4,32,num_8,0.666789295909,,,2017_Jun_13_1435,60.0067170382,FEMA4ImagesEEG,001,200620,
AFNE01.JPG,AFNE01.JPG,AFNE01.JPG,AFNE01.JPG,AFNE01.JPG,AFNE01.JPG,,,,,,,,,,,,,,,,,1,0,10,1,,,,,,,AFNE13.jpg,AFNE17.jpg,AFSA08.jpg,AFSA20.jpg,AFSA20.jpg,FS,4,num_4,32,num_2,0.750207117293,,,2017_Jun_13_1435,60.0067170382,FEMA4ImagesEEG,001,200620,
AFNE01.JPG,AFNE01.JPG,AFNE01.JPG,AFNE01.JPG,AFNE01.JPG,AFNE01.JPG,,,,,,,,,,,,,,,,,1,1,11,2,,,,,,,AFNE02.jpg,AFSA10.jpg,AFSA05.jpg,AFNE20.jpg,AFNE02.jpg,FN,3,num_8,32,num_4,0.816814040882,,,2017_Jun_13_1435,60.0067170382,FEMA4ImagesEEG,001,200620,
AFNE01.JPG,AFNE01.JPG,AFNE01.JPG,AFNE01.JPG,AFNE01.JPG,AFNE01.JPG,,,,,,,,,,,,,,,,,1,2,12,4,,,,,,,AFNE14.jpg,AFNE15.jpg,AFSA10.jpg,AFSA01.jpg,AFSA01.jpg,FS,4,num_4,16,num_4,0.666744071699,,,2017_Jun_13_1435,60.0067170382,FEMA4ImagesEEG,001,200620,
AFNE01.JPG,AFNE01.JPG,AFNE01.JPG,AFNE01.JPG,AFNE01.JPG,AFNE01.JPG,,,,,,,,,,,,,,,,,1,3,13,8,,,,,,,AFSA19.jpg,AFNE11.jpg,AFSA10.jpg,AFNE05.jpg,AFSA19.jpg,FS,4,num_8,32,num_6,0.683459068357,,,2017_Jun_13_1435,60.0067170382,FEMA4ImagesEEG,001,200620,
AFNE01.JPG,AFNE01.JPG,AFNE01.JPG,AFNE01.JPG,AFNE01.JPG,AFNE01.JPG,,,,,,,,,,,,,,,,,1,4,14,9,,,,,,,AFSA20.jpg,AFSA02.jpg,AFNE10.jpg,AFNE08.jpg,AFNE10.jpg,FN,3,num_2,32,num_4,0.516783474479,,,2017_Jun_13_1435,60.0067170382,FEMA4ImagesEEG,001,200620,
AFNE01.JPG,AFNE01.JPG,AFNE01.JPG,AFNE01.JPG,AFNE01.JPG,AFNE01.JPG,,,,,,,,,,,,,,,,,1,5,15,3,,,,,,,AFNE12.jpg,AFSA02.jpg,AFNE09.jpg,AFSA03.jpg,AFNE09.jpg,FN,3,num_2,16,num_2,0.88341358758,,,2017_Jun_13_1435,60.0067170382,FEMA4ImagesEEG,001,200620,
AFNE01.JPG,AFNE01.JPG,AFNE01.JPG,AFNE01.JPG,AFNE01.JPG,AFNE01.JPG,,,,,,,,,,,,,,,,,1,6,16,0,,,,,,,AFSA20.jpg,AFSA13.jpg,AFNE14.jpg,AFNE09.jpg,AFNE09.jpg,FN,3,num_4,16,num_4,0.716771350591,,,2017_Jun_13_1435,60.0067170382,FEMA4ImagesEEG,001,200620,
AFNE01.JPG,AFNE01.JPG,AFNE01.JPG,AFNE01.JPG,AFNE01.JPG,AFNE01.JPG,,,,,,,,,,,,,,,,,1,7,17,7,,,,,,,AFSA04.jpg,AFSA01.jpg,AFNE06.jpg,AFNE08.jpg,AFNE06.jpg,FN,3,num_2,32,num_4,0.566821337736,,,2017_Jun_13_1435,60.0067170382,FEMA4ImagesEEG,001,200620,
AFNE01.JPG,AFNE01.JPG,AFNE01.JPG,AFNE01.JPG,AFNE01.JPG,AFNE01.JPG,,,,,,,,,,,,,,,,,1,8,18,6,,,,,,,AFNE20.jpg,AFNE19.jpg,AFSA20.jpg,AFSA19.jpg,AFNE20.jpg,FN,3,num_8,16,num_8,0.600161524198,,,2017_Jun_13_1435,60.0067170382,FEMA4ImagesEEG,001,200620,
AFNE01.JPG,AFNE01.JPG,AFNE01.JPG,AFNE01.JPG,AFNE01.JPG,AFNE01.JPG,,,,,,,,,,,,,,,,,1,9,19,5,,,,,,,AFSA11.jpg,AFSA12.jpg,AFNE02.jpg,AFNE12.jpg,AFNE12.jpg,FN,3,num_4,16,num_4,0.800121175242,,,2017_Jun_13_1435,60.0067170382,FEMA4ImagesEEG,001,200620,
AFNE01.JPG,AFNE01.JPG,AFNE01.JPG,AFNE01.JPG,AFNE01.JPG,AFNE01.JPG,,,,,,,,,,,,,,,,,2,0,20,0,,,,,,,AFSA01.jpg,AFNE17.jpg,AFNE03.jpg,AFSA02.jpg,AFNE03.jpg,FN,3,num_2,32,num_6,0.883450793335,,,2017_Jun_13_1435,60.0067170382,FEMA4ImagesEEG,001,200620,
AFNE01.JPG,AFNE01.JPG,AFNE01.JPG,AFNE01.JPG,AFNE01.JPG,AFNE01.JPG,,,,,,,,,,,,,,,,,2,1,21,7,,,,,,,AFSA05.jpg,AFNE12.jpg,AFNE04.jpg,AFSA18.jpg,AFSA05.jpg,FS,4,num_8,16,num_8,1.03345918067,,,2017_Jun_13_1435,60.0067170382,FEMA4ImagesEEG,001,200620,
AFNE01.JPG,AFNE01.JPG,AFNE01.JPG,AFNE01.JPG,AFNE01.JPG,AFNE01.JPG,,,,,,,,,,,,,,,,,2,2,22,8,,,,,,,AFNE08.jpg,AFSA20.jpg,AFNE10.jpg,AFSA03.jpg,AFNE10.jpg,FN,3,num_2,16,num_2,1.9000413433,,,2017_Jun_13_1435,60.0067170382,FEMA4ImagesEEG,001,200620,
AFNE01.JPG,AFNE01.JPG,AFNE01.JPG,AFNE01.JPG,AFNE01.JPG,AFNE01.JPG,,,,,,,,,,,,,,,,,2,3,23,5,,,,,,,AFSA20.jpg,AFSA19.jpg,AFNE05.jpg,AFNE15.jpg,AFSA20.jpg,FS,4,num_8,16,num_8,1.56671805971,,,2017_Jun_13_1435,60.0067170382,FEMA4ImagesEEG,001,200620,
AFNE01.JPG,AFNE01.JPG,AFNE01.JPG,AFNE01.JPG,AFNE01.JPG,AFNE01.JPG,,,,,,,,,,,,,,,,,2,4,24,6,,,,,,,AFNE18.jpg,AFSA08.jpg,AFNE08.jpg,AFSA04.jpg,AFNE18.jpg,FN,3,num_8,32,num_6,0.600175316038,,,2017_Jun_13_1435,60.0067170382,FEMA4ImagesEEG,001,200620,
AFNE01.JPG,AFNE01.JPG,AFNE01.JPG,AFNE01.JPG,AFNE01.JPG,AFNE01.JPG,,,,,,,,,,,,,,,,,2,5,25,4,,,,,,,AFSA05.jpg,AFNE19.jpg,AFSA10.jpg,AFNE17.jpg,AFNE19.jpg,FN,3,num_6,32,num_4,0.883445020008,,,2017_Jun_13_1435,60.0067170382,FEMA4ImagesEEG,001,200620,
AFNE01.JPG,AFNE01.JPG,AFNE01.JPG,AFNE01.JPG,AFNE01.JPG,AFNE01.JPG,,,,,,,,,,,,,,,,,2,6,26,9,,,,,,,AFNE04.jpg,AFSA19.jpg,AFNE17.jpg,AFSA06.jpg,AFSA19.jpg,FS,4,num_6,32,num_8,1.0334736139,,,2017_Jun_13_1435,60.0067170382,FEMA4ImagesEEG,001,200620,
AFNE01.JPG,AFNE01.JPG,AFNE01.JPG,AFNE01.JPG,AFNE01.JPG,AFNE01.JPG,,,,,,,,,,,,,,,,,2,7,27,1,,,,,,,AFNE01.jpg,AFSA03.jpg,AFSA11.jpg,AFNE18.jpg,AFSA11.jpg,FS,4,num_2,32,num_8,0.866723608517,,,2017_Jun_13_1435,60.0067170382,FEMA4ImagesEEG,001,200620,
AFNE01.JPG,AFNE01.JPG,AFNE01.JPG,AFNE01.JPG,AFNE01.JPG,AFNE01.JPG,,,,,,,,,,,,,,,,,2,8,28,3,,,,,,,AFNE03.jpg,AFNE20.jpg,AFSA08.jpg,AFSA02.jpg,AFNE20.jpg,FN,3,num_6,16,num_6,0.63351454027,,,2017_Jun_13_1435,60.0067170382,FEMA4ImagesEEG,001,200620,
AFNE01.JPG,AFNE01.JPG,AFNE01.JPG,AFNE01.JPG,AFNE01.JPG,AFNE01.JPG,,,,,,,,,,,,,,,,,2,9,29,2,,,,,,,AFNE07.jpg,AFSA06.jpg,AFSA12.jpg,AFNE13.jpg,AFNE13.jpg,FN,3,num_4,32,num_8,0.666897064191,,,2017_Jun_13_1435,60.0067170382,FEMA4ImagesEEG,001,200620,
AFNE01.JPG,AFNE01.JPG,AFNE01.JPG,AFNE01.JPG,AFNE01.JPG,AFNE01.JPG,,,,,,,,,,,,,,,,,3,0,30,4,,,,,,,AFSA06.jpg,AFNE17.jpg,AFSA02.jpg,AFNE08.jpg,AFSA02.jpg,FS,4,num_2,16,num_2,0.700178876228,,,2017_Jun_13_1435,60.0067170382,FEMA4ImagesEEG,001,200620,
AFNE01.JPG,AFNE01.JPG,AFNE01.JPG,AFNE01.JPG,AFNE01.JPG,AFNE01.JPG,,,,,,,,,,,,,,,,,3,1,31,3,,,,,,,AFSA16.jpg,AFNE04.jpg,AFSA17.jpg,AFNE20.jpg,AFNE20.jpg,FN,3,num_4,32,num_6,0.516786681896,,,2017_Jun_13_1435,60.0067170382,FEMA4ImagesEEG,001,200620,
AFNE01.JPG,AFNE01.JPG,AFNE01.JPG,AFNE01.JPG,AFNE01.JPG,AFNE01.JPG,,,,,,,,,,,,,,,,,3,2,32,2,,,,,,,AFSA15.jpg,AFSA05.jpg,AFNE16.jpg,AFNE19.jpg,AFNE16.jpg,FN,3,num_2,32,num_6,0.800247546402,,,2017_Jun_13_1435,60.0067170382,FEMA4ImagesEEG,001,200620,
AFNE01.JPG,AFNE01.JPG,AFNE01.JPG,AFNE01.JPG,AFNE01.JPG,AFNE01.JPG,,,,,,,,,,,,,,,,,3,3,33,9,,,,,,,AFNE02.jpg,AFSA13.jpg,AFNE18.jpg,AFSA06.jpg,AFNE18.jpg,FN,3,num_2,32,num_8,1.05009238888,,,2017_Jun_13_1435,60.0067170382,FEMA4ImagesEEG,001,200620,
AFNE01.JPG,AFNE01.JPG,AFNE01.JPG,AFNE01.JPG,AFNE01.JPG,AFNE01.JPG,,,,,,,,,,,,,,,,,3,4,34,6,,,,,,,AFSA09.jpg,AFNE02.jpg,AFNE20.jpg,AFSA18.jpg,AFNE02.jpg,FN,3,num_6,32,num_4,1.10013794986,,,2017_Jun_13_1435,60.0067170382,FEMA4ImagesEEG,001,200620,
AFNE01.JPG,AFNE01.JPG,AFNE01.JPG,AFNE01.JPG,AFNE01.JPG,AFNE01.JPG,,,,,,,,,,,,,,,,,3,5,35,5,,,,,,,AFSA18.jpg,AFSA10.jpg,AFNE01.jpg,AFNE12.jpg,AFNE12.jpg,FN,3,num_4,32,num_6,0.93348673213,,,2017_Jun_13_1435,60.0067170382,FEMA4ImagesEEG,001,200620,
AFNE01.JPG,AFNE01.JPG,AFNE01.JPG,AFNE01.JPG,AFNE01.JPG,AFNE01.JPG,,,,,,,,,,,,,,,,,3,6,36,1,,,,,,,AFSA06.jpg,AFNE07.jpg,AFSA10.jpg,AFNE06.jpg,AFSA10.jpg,FS,4,num_2,32,num_4,1.43342306546,,,2017_Jun_13_1435,60.0067170382,FEMA4ImagesEEG,001,200620,
AFNE01.JPG,AFNE01.JPG,AFNE01.JPG,AFNE01.JPG,AFNE01.JPG,AFNE01.JPG,,,,,,,,,,,,,,,,,3,7,37,7,,,,,,,AFSA09.jpg,AFNE10.jpg,AFSA08.jpg,AFNE12.jpg,AFSA09.jpg,FS,4,num_8,16,num_8,0.883322818438,,,2017_Jun_13_1435,60.0067170382,FEMA4ImagesEEG,001,200620,
AFNE01.JPG,AFNE01.JPG,AFNE01.JPG,AFNE01.JPG,AFNE01.JPG,AFNE01.JPG,,,,,,,,,,,,,,,,,3,8,38,8,,,,,,,AFSA02.jpg,AFNE12.jpg,AFSA20.jpg,AFNE02.jpg,AFNE12.jpg,FN,3,num_6,32,num_2,0.666665811383,,,2017_Jun_13_1435,60.0067170382,FEMA4ImagesEEG,001,200620,
AFNE01.JPG,AFNE01.JPG,AFNE01.JPG,AFNE01.JPG,AFNE01.JPG,AFNE01.JPG,,,,,,,,,,,,,,,,,3,9,39,0,,,,,,,AFSA19.jpg,AFNE08.jpg,AFSA04.jpg,AFNE20.jpg,AFNE20.jpg,FN,3,num_4,32,num_8,0.566781566129,,,2017_Jun_13_1435,60.0067170382,FEMA4ImagesEEG,001,200620,
AFNE01.JPG,AFNE01.JPG,AFNE01.JPG,AFNE01.JPG,AFNE01.JPG,AFNE01.JPG,,,,,,,,,,,,,,,,,4,0,40,0,,,,,,,AFNE16.jpg,AFSA17.jpg,AFSA11.jpg,AFNE12.jpg,AFNE16.jpg,FN,3,num_8,32,num_4,1.23343518941,,,2017_Jun_13_1435,60.0067170382,FEMA4ImagesEEG,001,200620,
AFNE01.JPG,AFNE01.JPG,AFNE01.JPG,AFNE01.JPG,AFNE01.JPG,AFNE01.JPG,,,,,,,,,,,,,,,,,4,1,41,3,,,,,,,AFSA15.jpg,AFNE17.jpg,AFNE19.jpg,AFSA12.jpg,AFNE17.jpg,FN,3,num_6,16,num_6,0.783433441364,,,2017_Jun_13_1435,60.0067170382,FEMA4ImagesEEG,001,200620,
AFNE01.JPG,AFNE01.JPG,AFNE01.JPG,AFNE01.JPG,AFNE01.JPG,AFNE01.JPG,,,,,,,,,,,,,,,,,4,2,42,5,,,,,,,AFNE12.jpg,AFSA07.jpg,AFSA10.jpg,AFNE13.jpg,AFNE12.jpg,FN,3,num_8,16,num_8,1.00012765412,,,2017_Jun_13_1435,60.0067170382,FEMA4ImagesEEG,001,200620,
AFNE01.JPG,AFNE01.JPG,AFNE01.JPG,AFNE01.JPG,AFNE01.JPG,AFNE01.JPG,,,,,,,,,,,,,,,,,4,3,43,1,,,,,,,AFSA05.jpg,AFNE11.jpg,AFNE05.jpg,AFSA12.jpg,AFNE05.jpg,FN,3,num_2,32,num_8,1.48338106461,,,2017_Jun_13_1435,60.0067170382,FEMA4ImagesEEG,001,200620,
AFNE01.JPG,AFNE01.JPG,AFNE01.JPG,AFNE01.JPG,AFNE01.JPG,AFNE01.JPG,,,,,,,,,,,,,,,,,4,4,44,4,,,,,,,AFNE13.jpg,AFSA18.jpg,AFNE18.jpg,AFSA02.jpg,AFNE13.jpg,FN,3,num_8,32,num_4,0.583529598953,,,2017_Jun_13_1435,60.0067170382,FEMA4ImagesEEG,001,200620,
AFNE01.JPG,AFNE01.JPG,AFNE01.JPG,AFNE01.JPG,AFNE01.JPG,AFNE01.JPG,,,,,,,,,,,,,,,,,4,5,45,6,,,,,,,AFNE04.jpg,AFSA13.jpg,AFNE16.jpg,AFSA01.jpg,AFSA01.jpg,FS,4,num_4,16,num_4,0.73345234897,,,2017_Jun_13_1435,60.0067170382,FEMA4ImagesEEG,001,200620,
AFNE01.JPG,AFNE01.JPG,AFNE01.JPG,AFNE01.JPG,AFNE01.JPG,AFNE01.JPG,,,,,,,,,,,,,,,,,4,6,46,9,,,,,,,AFSA17.jpg,AFNE20.jpg,AFSA16.jpg,AFNE01.jpg,AFNE20.jpg,FN,3,num_6,32,num_8,0.733484422788,,,2017_Jun_13_1435,60.0067170382,FEMA4ImagesEEG,001,200620,
AFNE01.JPG,AFNE01.JPG,AFNE01.JPG,AFNE01.JPG,AFNE01.JPG,AFNE01.JPG,,,,,,,,,,,,,,,,,4,7,47,2,,,,,,,AFSA10.jpg,AFNE18.jpg,AFNE09.jpg,AFSA12.jpg,AFSA12.jpg,FS,4,num_4,16,num_4,0.60015061911,,,2017_Jun_13_1435,60.0067170382,FEMA4ImagesEEG,001,200620,
AFNE01.JPG,AFNE01.JPG,AFNE01.JPG,AFNE01.JPG,AFNE01.JPG,AFNE01.JPG,,,,,,,,,,,,,,,,,4,8,48,8,,,,,,,AFNE16.jpg,AFSA05.jpg,AFNE09.jpg,AFSA03.jpg,AFSA05.jpg,FS,4,num_6,32,num_2,0.650111825671,,,2017_Jun_13_1435,60.0067170382,FEMA4ImagesEEG,001,200620,
AFNE01.JPG,AFNE01.JPG,AFNE01.JPG,AFNE01.JPG,AFNE01.JPG,AFNE01.JPG,,,,,,,,,,,,,,,,,4,9,49,7,,,,,,,AFSA09.jpg,AFSA16.jpg,AFNE12.jpg,AFNE04.jpg,AFSA09.jpg,FS,4,num_8,16,num_8,0.649990586331,,,2017_Jun_13_1435,60.0067170382,FEMA4ImagesEEG,001,200620,
AFNE01.JPG,AFNE01.JPG,AFNE01.JPG,AFNE01.JPG,AFNE01.JPG,AFNE01.JPG,,,,,,,,,,,,,,,,,5,0,50,8,,,,,,,AFSA13.jpg,AFNE10.jpg,AFNE01.jpg,AFSA02.jpg,AFNE10.jpg,FN,3,num_6,32,num_4,0.633461618272,,,2017_Jun_13_1435,60.0067170382,FEMA4ImagesEEG,001,200620,
AFNE01.JPG,AFNE01.JPG,AFNE01.JPG,AFNE01.JPG,AFNE01.JPG,AFNE01.JPG,,,,,,,,,,,,,,,,,5,1,51,6,,,,,,,AFNE03.jpg,AFNE05.jpg,AFSA19.jpg,AFSA08.jpg,AFNE03.jpg,FN,3,num_8,32,num_6,0.583203086513,,,2017_Jun_13_1435,60.0067170382,FEMA4ImagesEEG,001,200620,
AFNE01.JPG,AFNE01.JPG,AFNE01.JPG,AFNE01.JPG,AFNE01.JPG,AFNE01.JPG,,,,,,,,,,,,,,,,,5,2,52,9,,,,,,,AFSA14.jpg,AFNE03.jpg,AFSA12.jpg,AFNE09.jpg,AFNE03.jpg,FN,3,num_6,32,num_8,0.500183943834,,,2017_Jun_13_1435,60.0067170382,FEMA4ImagesEEG,001,200620,
AFNE01.JPG,AFNE01.JPG,AFNE01.JPG,AFNE01.JPG,AFNE01.JPG,AFNE01.JPG,,,,,,,,,,,,,,,,,5,3,53,3,,,,,,,AFNE01.jpg,AFSA18.jpg,AFNE02.jpg,AFSA14.jpg,AFSA14.jpg,FS,4,num_4,16,num_4,0.650151597336,,,2017_Jun_13_1435,60.0067170382,FEMA4ImagesEEG,001,200620,
AFNE01.JPG,AFNE01.JPG,AFNE01.JPG,AFNE01.JPG,AFNE01.JPG,AFNE01.JPG,,,,,,,,,,,,,,,,,5,4,54,0,,,,,,,AFSA15.jpg,AFNE02.jpg,AFNE12.jpg,AFSA06.jpg,AFSA06.jpg,FS,4,num_4,32,num_8,0.883479339129,,,2017_Jun_13_1435,60.0067170382,FEMA4ImagesEEG,001,200620,
AFNE01.JPG,AFNE01.JPG,AFNE01.JPG,AFNE01.JPG,AFNE01.JPG,AFNE01.JPG,,,,,,,,,,,,,,,,,5,5,55,2,,,,,,,AFNE04.jpg,AFSA02.jpg,AFSA06.jpg,AFNE14.jpg,AFSA06.jpg,FS,4,num_2,32,num_6,0.350186140975,,,2017_Jun_13_1435,60.0067170382,FEMA4ImagesEEG,001,200620,
AFNE01.JPG,AFNE01.JPG,AFNE01.JPG,AFNE01.JPG,AFNE01.JPG,AFNE01.JPG,,,,,,,,,,,,,,,,,5,6,56,1,,,,,,,AFNE07.jpg,AFSA20.jpg,AFNE12.jpg,AFSA13.jpg,AFNE07.jpg,FN,3,num_8,32,num_2,0.766818835924,,,2017_Jun_13_1435,60.0067170382,FEMA4ImagesEEG,001,200620,
AFNE01.JPG,AFNE01.JPG,AFNE01.JPG,AFNE01.JPG,AFNE01.JPG,AFNE01.JPG,,,,,,,,,,,,,,,,,5,7,57,7,,,,,,,AFSA10.jpg,AFSA15.jpg,AFNE16.jpg,AFNE09.jpg,AFSA10.jpg,FS,4,num_8,16,num_8,0.666668377293,,,2017_Jun_13_1435,60.0067170382,FEMA4ImagesEEG,001,200620,
AFNE01.JPG,AFNE01.JPG,AFNE01.JPG,AFNE01.JPG,AFNE01.JPG,AFNE01.JPG,,,,,,,,,,,,,,,,,5,8,58,5,,,,,,,AFSA06.jpg,AFNE01.jpg,AFNE16.jpg,AFSA11.jpg,AFSA11.jpg,FS,4,num_4,16,num_4,0.616799543495,,,2017_Jun_13_1435,60.0067170382,FEMA4ImagesEEG,001,200620,
AFNE01.JPG,AFNE01.JPG,AFNE01.JPG,AFNE01.JPG,AFNE01.JPG,AFNE01.JPG,,,,,,,,,,,,,,,,,5,9,59,4,,,,,,,AFSA13.jpg,AFSA18.jpg,AFNE01.jpg,AFNE07.jpg,AFNE07.jpg,FN,3,num_4,32,num_6,0.800105458999,,,2017_Jun_13_1435,60.0067170382,FEMA4ImagesEEG,001,200620,
,,,,,,,,,,,,,,,,,,,,,,,,,,,,,,,,,,,,,,,,,,,space,29.0811691196,2017_Jun_13_1435,60.0067170382,FEMA4ImagesEEG,001,200620,
AFNE01.JPG,AFNE01.JPG,AFNE01.JPG,AFNE01.JPG,AFNE01.JPG,AFNE01.JPG,,,,,,,,,,,,,,,,,,,,,0,0,0,9,,,AMSA11.jpg,AMNE10.jpg,AMSA01.jpg,AMNE05.jpg,AMSA11.jpg,MS,2,num_8,16,num_8,0.766845457314,,,2017_Jun_13_1435,60.0067170382,FEMA4ImagesEEG,001,200620,
AFNE01.JPG,AFNE01.JPG,AFNE01.JPG,AFNE01.JPG,AFNE01.JPG,AFNE01.JPG,,,,,,,,,,,,,,,,,,,,,0,1,1,5,,,AMSA12.jpg,AMNE18.jpg,AMNE09.jpg,AMSA19.jpg,AMSA12.jpg,MS,2,num_8,32,num_2,0.800148758804,,,2017_Jun_13_1435,60.0067170382,FEMA4ImagesEEG,001,200620,
AFNE01.JPG,AFNE01.JPG,AFNE01.JPG,AFNE01.JPG,AFNE01.JPG,AFNE01.JPG,,,,,,,,,,,,,,,,,,,,,0,2,2,8,,,AMSA11.jpg,AMSA18.jpg,AMNE08.jpg,AMNE20.jpg,AMSA11.jpg,MS,2,num_8,32,num_6,0.500203188218,,,2017_Jun_13_1435,60.0067170382,FEMA4ImagesEEG,001,200620,
AFNE01.JPG,AFNE01.JPG,AFNE01.JPG,AFNE01.JPG,AFNE01.JPG,AFNE01.JPG,,,,,,,,,,,,,,,,,,,,,0,3,3,0,,,AMSA02.jpg,AMNE19.jpg,AMNE04.jpg,AMSA14.jpg,AMNE19.jpg,MN,1,num_6,32,num_8,0.61677612958,,,2017_Jun_13_1435,60.0067170382,FEMA4ImagesEEG,001,200620,
AFNE01.JPG,AFNE01.JPG,AFNE01.JPG,AFNE01.JPG,AFNE01.JPG,AFNE01.JPG,,,,,,,,,,,,,,,,,,,,,0,4,4,2,,,AMNE19.jpg,AMSA19.jpg,AMSA06.jpg,AMNE20.jpg,AMSA19.jpg,MS,2,num_6,32,num_4,0.616850861756,,,2017_Jun_13_1435,60.0067170382,FEMA4ImagesEEG,001,200620,
AFNE01.JPG,AFNE01.JPG,AFNE01.JPG,AFNE01.JPG,AFNE01.JPG,AFNE01.JPG,,,,,,,,,,,,,,,,,,,,,0,5,5,6,,,AMSA17.jpg,AMNE20.jpg,AMNE02.jpg,AMSA05.jpg,AMNE02.jpg,MN,1,num_2,32,num_8,0.550131037948,,,2017_Jun_13_1435,60.0067170382,FEMA4ImagesEEG,001,200620,
AFNE01.JPG,AFNE01.JPG,AFNE01.JPG,AFNE01.JPG,AFNE01.JPG,AFNE01.JPG,,,,,,,,,,,,,,,,,,,,,0,6,6,1,,,AMSA14.jpg,AMSA18.jpg,AMNE06.jpg,AMNE04.jpg,AMNE04.jpg,MN,1,num_4,32,num_8,0.750127253239,,,2017_Jun_13_1435,60.0067170382,FEMA4ImagesEEG,001,200620,
AFNE01.JPG,AFNE01.JPG,AFNE01.JPG,AFNE01.JPG,AFNE01.JPG,AFNE01.JPG,,,,,,,,,,,,,,,,,,,,,0,7,7,7,,,AMNE19.jpg,AMSA16.jpg,AMNE01.jpg,AMSA07.jpg,AMSA16.jpg,MS,2,num_6,32,num_4,1.26673656638,,,2017_Jun_13_1435,60.0067170382,FEMA4ImagesEEG,001,200620,
AFNE01.JPG,AFNE01.JPG,AFNE01.JPG,AFNE01.JPG,AFNE01.JPG,AFNE01.JPG,,,,,,,,,,,,,,,,,,,,,0,8,8,4,,,AMNE20.jpg,AMNE06.jpg,AMSA08.jpg,AMSA04.jpg,AMNE06.jpg,MN,1,num_6,32,num_8,0.683471897966,,,2017_Jun_13_1435,60.0067170382,FEMA4ImagesEEG,001,200620,
AFNE01.JPG,AFNE01.JPG,AFNE01.JPG,AFNE01.JPG,AFNE01.JPG,AFNE01.JPG,,,,,,,,,,,,,,,,,,,,,0,9,9,3,,,AMSA11.jpg,AMNE02.jpg,AMSA03.jpg,AMNE11.jpg,AMSA11.jpg,MS,2,num_8,32,num_6,0.600111488893,,,2017_Jun_13_1435,60.0067170382,FEMA4ImagesEEG,001,200620,
AFNE01.JPG,AFNE01.JPG,AFNE01.JPG,AFNE01.JPG,AFNE01.JPG,AFNE01.JPG,,,,,,,,,,,,,,,,,,,,,1,0,10,9,,,AMNE10.jpg,AMNE12.jpg,AMSA19.jpg,AMSA05.jpg,AMNE10.jpg,MN,1,num_8,16,num_8,0.400154403818,,,2017_Jun_13_1435,60.0067170382,FEMA4ImagesEEG,001,200620,
AFNE01.JPG,AFNE01.JPG,AFNE01.JPG,AFNE01.JPG,AFNE01.JPG,AFNE01.JPG,,,,,,,,,,,,,,,,,,,,,1,1,11,6,,,AMNE10.jpg,AMSA02.jpg,AMNE13.jpg,AMSA17.jpg,AMSA17.jpg,MS,2,num_4,32,num_2,0.616352753947,,,2017_Jun_13_1435,60.0067170382,FEMA4ImagesEEG,001,200620,
AFNE01.JPG,AFNE01.JPG,AFNE01.JPG,AFNE01.JPG,AFNE01.JPG,AFNE01.JPG,,,,,,,,,,,,,,,,,,,,,1,2,12,5,,,AMNE01.jpg,AMSA05.jpg,AMNE05.jpg,AMSA16.jpg,AMNE05.jpg,MN,1,num_2,32,num_4,0.566801131179,,,2017_Jun_13_1435,60.0067170382,FEMA4ImagesEEG,001,200620,
AFNE01.JPG,AFNE01.JPG,AFNE01.JPG,AFNE01.JPG,AFNE01.JPG,AFNE01.JPG,,,,,,,,,,,,,,,,,,,,,1,3,13,0,,,AMSA18.jpg,AMNE07.jpg,AMSA14.jpg,AMNE13.jpg,AMNE07.jpg,MN,1,num_6,16,num_6,0.38336403342,,,2017_Jun_13_1435,60.0067170382,FEMA4ImagesEEG,001,200620,
AFNE01.JPG,AFNE01.JPG,AFNE01.JPG,AFNE01.JPG,AFNE01.JPG,AFNE01.JPG,,,,,,,,,,,,,,,,,,,,,1,4,14,4,,,AMNE18.jpg,AMSA09.jpg,AMNE02.jpg,AMSA18.jpg,AMSA09.jpg,MS,2,num_6,32,num_8,0.6669782112,,,2017_Jun_13_1435,60.0067170382,FEMA4ImagesEEG,001,200620,
AFNE01.JPG,AFNE01.JPG,AFNE01.JPG,AFNE01.JPG,AFNE01.JPG,AFNE01.JPG,,,,,,,,,,,,,,,,,,,,,1,5,15,8,,,AMNE19.jpg,AMSA03.jpg,AMSA09.jpg,AMNE12.jpg,AMSA09.jpg,MS,2,num_2,32,num_4,0.56677483063,,,2017_Jun_13_1435,60.0067170382,FEMA4ImagesEEG,001,200620,
AFNE01.JPG,AFNE01.JPG,AFNE01.JPG,AFNE01.JPG,AFNE01.JPG,AFNE01.JPG,,,,,,,,,,,,,,,,,,,,,1,6,16,1,,,AMNE18.jpg,AMSA12.jpg,AMSA14.jpg,AMNE16.jpg,AMSA12.jpg,MS,2,num_6,32,num_2,0.550515604147,,,2017_Jun_13_1435,60.0067170382,FEMA4ImagesEEG,001,200620,
AFNE01.JPG,AFNE01.JPG,AFNE01.JPG,AFNE01.JPG,AFNE01.JPG,AFNE01.JPG,,,,,,,,,,,,,,,,,,,,,1,7,17,3,,,AMSA17.jpg,AMSA03.jpg,AMNE15.jpg,AMNE08.jpg,AMSA03.jpg,MS,2,num_6,32,num_8,0.366856554931,,,2017_Jun_13_1435,60.0067170382,FEMA4ImagesEEG,001,200620,
AFNE01.JPG,AFNE01.JPG,AFNE01.JPG,AFNE01.JPG,AFNE01.JPG,AFNE01.JPG,,,,,,,,,,,,,,,,,,,,,1,8,18,7,,,AMSA06.jpg,AMSA14.jpg,AMNE13.jpg,AMNE15.jpg,AMNE13.jpg,MN,1,num_2,32,num_4,0.583474111045,,,2017_Jun_13_1435,60.0067170382,FEMA4ImagesEEG,001,200620,
AFNE01.JPG,AFNE01.JPG,AFNE01.JPG,AFNE01.JPG,AFNE01.JPG,AFNE01.JPG,,,,,,,,,,,,,,,,,,,,,1,9,19,2,,,AMNE17.jpg,AMSA05.jpg,AMSA09.jpg,AMNE15.jpg,AMNE17.jpg,MN,1,num_8,16,num_8,0.983462372038,,,2017_Jun_13_1435,60.0067170382,FEMA4ImagesEEG,001,200620,
AFNE01.JPG,AFNE01.JPG,AFNE01.JPG,AFNE01.JPG,AFNE01.JPG,AFNE01.JPG,,,,,,,,,,,,,,,,,,,,,2,0,20,2,,,AMNE01.jpg,AMSA06.jpg,AMSA12.jpg,AMNE12.jpg,AMSA06.jpg,MS,2,num_6,32,num_4,0.800134325516,,,2017_Jun_13_1435,60.0067170382,FEMA4ImagesEEG,001,200620,
AFNE01.JPG,AFNE01.JPG,AFNE01.JPG,AFNE01.JPG,AFNE01.JPG,AFNE01.JPG,,,,,,,,,,,,,,,,,,,,,2,1,21,5,,,AMNE03.jpg,AMNE16.jpg,AMSA07.jpg,AMSA06.jpg,AMNE03.jpg,MN,1,num_8,32,num_6,0.700117294327,,,2017_Jun_13_1435,60.0067170382,FEMA4ImagesEEG,001,200620,
AFNE01.JPG,AFNE01.JPG,AFNE01.JPG,AFNE01.JPG,AFNE01.JPG,AFNE01.JPG,,,,,,,,,,,,,,,,,,,,,2,2,22,1,,,AMNE18.jpg,AMSA12.jpg,AMNE04.jpg,AMSA18.jpg,AMNE18.jpg,MN,1,num_8,16,num_8,0.966751865693,,,2017_Jun_13_1435,60.0067170382,FEMA4ImagesEEG,001,200620,
AFNE01.JPG,AFNE01.JPG,AFNE01.JPG,AFNE01.JPG,AFNE01.JPG,AFNE01.JPG,,,,,,,,,,,,,,,,,,,,,2,3,23,0,,,AMNE11.jpg,AMNE02.jpg,AMSA11.jpg,AMSA20.jpg,AMSA20.jpg,MS,2,num_4,32,num_2,1.0164228034,,,2017_Jun_13_1435,60.0067170382,FEMA4ImagesEEG,001,200620,
AFNE01.JPG,AFNE01.JPG,AFNE01.JPG,AFNE01.JPG,AFNE01.JPG,AFNE01.JPG,,,,,,,,,,,,,,,,,,,,,2,4,24,7,,,AMNE08.jpg,AMSA05.jpg,AMNE02.jpg,AMSA06.jpg,AMNE08.jpg,MN,1,num_8,32,num_4,0.650199387455,,,2017_Jun_13_1435,60.0067170382,FEMA4ImagesEEG,001,200620,
AFNE01.JPG,AFNE01.JPG,AFNE01.JPG,AFNE01.JPG,AFNE01.JPG,AFNE01.JPG,,,,,,,,,,,,,,,,,,,,,2,5,25,8,,,AMNE03.jpg,AMNE04.jpg,AMSA19.jpg,AMSA07.jpg,AMSA19.jpg,MS,2,num_2,32,num_6,0.450159551634,,,2017_Jun_13_1435,60.0067170382,FEMA4ImagesEEG,001,200620,
AFNE01.JPG,AFNE01.JPG,AFNE01.JPG,AFNE01.JPG,AFNE01.JPG,AFNE01.JPG,,,,,,,,,,,,,,,,,,,,,2,6,26,9,,,AMNE11.jpg,AMSA13.jpg,AMNE17.jpg,AMSA08.jpg,AMNE11.jpg,MN,1,num_8,32,num_2,0.816740591661,,,2017_Jun_13_1435,60.0067170382,FEMA4ImagesEEG,001,200620,
AFNE01.JPG,AFNE01.JPG,AFNE01.JPG,AFNE01.JPG,AFNE01.JPG,AFNE01.JPG,,,,,,,,,,,,,,,,,,,,,2,7,27,4,,,AMSA01.jpg,AMNE17.jpg,AMSA13.jpg,AMNE15.jpg,AMSA13.jpg,MS,2,num_2,32,num_8,0.400159214914,,,2017_Jun_13_1435,60.0067170382,FEMA4ImagesEEG,001,200620,
AFNE01.JPG,AFNE01.JPG,AFNE01.JPG,AFNE01.JPG,AFNE01.JPG,AFNE01.JPG,,,,,,,,,,,,,,,,,,,,,2,8,28,3,,,AMSA08.jpg,AMNE16.jpg,AMNE18.jpg,AMSA06.jpg,AMSA08.jpg,MS,2,num_8,16,num_8,0.816755345673,,,2017_Jun_13_1435,60.0067170382,FEMA4ImagesEEG,001,200620,
AFNE01.JPG,AFNE01.JPG,AFNE01.JPG,AFNE01.JPG,AFNE01.JPG,AFNE01.JPG,,,,,,,,,,,,,,,,,,,,,2,9,29,6,,,AMNE14.jpg,AMNE08.jpg,AMSA04.jpg,AMSA14.jpg,AMSA04.jpg,MS,2,num_2,32,num_4,1.08342199097,,,2017_Jun_13_1435,60.0067170382,FEMA4ImagesEEG,001,200620,
AFNE01.JPG,AFNE01.JPG,AFNE01.JPG,AFNE01.JPG,AFNE01.JPG,AFNE01.JPG,,,,,,,,,,,,,,,,,,,,,3,0,30,4,,,AMNE06.jpg,AMNE01.jpg,AMSA17.jpg,AMSA15.jpg,AMSA17.jpg,MS,2,num_2,16,num_2,0.850117983879,,,2017_Jun_13_1435,60.0067170382,FEMA4ImagesEEG,001,200620,
AFNE01.JPG,AFNE01.JPG,AFNE01.JPG,AFNE01.JPG,AFNE01.JPG,AFNE01.JPG,,,,,,,,,,,,,,,,,,,,,3,1,31,7,,,AMNE07.jpg,AMNE04.jpg,AMSA15.jpg,AMSA05.jpg,AMSA05.jpg,MS,2,num_4,32,num_8,0.700178555446,,,2017_Jun_13_1435,60.0067170382,FEMA4ImagesEEG,001,200620,
AFNE01.JPG,AFNE01.JPG,AFNE01.JPG,AFNE01.JPG,AFNE01.JPG,AFNE01.JPG,,,,,,,,,,,,,,,,,,,,,3,2,32,3,,,AMNE12.jpg,AMSA07.jpg,AMNE06.jpg,AMSA01.jpg,AMSA01.jpg,MS,2,num_4,16,num_4,0.566794716404,,,2017_Jun_13_1435,60.0067170382,FEMA4ImagesEEG,001,200620,
AFNE01.JPG,AFNE01.JPG,AFNE01.JPG,AFNE01.JPG,AFNE01.JPG,AFNE01.JPG,,,,,,,,,,,,,,,,,,,,,3,3,33,9,,,AMSA14.jpg,AMNE09.jpg,AMNE01.jpg,AMSA07.jpg,AMNE09.jpg,MN,1,num_6,32,num_8,0.533515149611,,,2017_Jun_13_1435,60.0067170382,FEMA4ImagesEEG,001,200620,
AFNE01.JPG,AFNE01.JPG,AFNE01.JPG,AFNE01.JPG,AFNE01.JPG,AFNE01.JPG,,,,,,,,,,,,,,,,,,,,,3,4,34,0,,,AMSA09.jpg,AMNE01.jpg,AMNE03.jpg,AMSA14.jpg,AMSA14.jpg,MS,2,num_4,32,num_6,0.566799206776,,,2017_Jun_13_1435,60.0067170382,FEMA4ImagesEEG,001,200620,
AFNE01.JPG,AFNE01.JPG,AFNE01.JPG,AFNE01.JPG,AFNE01.JPG,AFNE01.JPG,,,,,,,,,,,,,,,,,,,,,3,5,35,1,,,AMSA10.jpg,AMSA13.jpg,AMNE03.jpg,AMNE02.jpg,AMSA10.jpg,MS,2,num_8,32,num_2,0.683456181781,,,2017_Jun_13_1435,60.0067170382,FEMA4ImagesEEG,001,200620,
AFNE01.JPG,AFNE01.JPG,AFNE01.JPG,AFNE01.JPG,AFNE01.JPG,AFNE01.JPG,,,,,,,,,,,,,,,,,,,,,3,6,36,6,,,AMNE18.jpg,AMNE13.jpg,AMSA01.jpg,AMSA08.jpg,AMNE13.jpg,MN,1,num_6,32,num_8,0.683466766088,,,2017_Jun_13_1435,60.0067170382,FEMA4ImagesEEG,001,200620,
AFNE01.JPG,AFNE01.JPG,AFNE01.JPG,AFNE01.JPG,AFNE01.JPG,AFNE01.JPG,,,,,,,,,,,,,,,,,,,,,3,7,37,5,,,AMNE14.jpg,AMSA07.jpg,AMNE03.jpg,AMSA03.jpg,AMNE14.jpg,MN,1,num_8,32,num_6,0.633496258117,,,2017_Jun_13_1435,60.0067170382,FEMA4ImagesEEG,001,200620,
AFNE01.JPG,AFNE01.JPG,AFNE01.JPG,AFNE01.JPG,AFNE01.JPG,AFNE01.JPG,,,,,,,,,,,,,,,,,,,,,3,8,38,2,,,AMNE07.jpg,AMNE09.jpg,AMSA09.jpg,AMSA02.jpg,AMSA02.jpg,MS,2,num_4,16,num_4,0.683453936537,,,2017_Jun_13_1435,60.0067170382,FEMA4ImagesEEG,001,200620,
