IPosition2,IPosition3,IPosition1,IPosition6,IPosition4,IPosition5,TrialsM1.thisRepN,TrialsM1.thisTrialN,TrialsM1.thisN,TrialsM1.thisIndex,TrialsF1.thisRepN,TrialsF1.thisTrialN,TrialsF1.thisN,TrialsF1.thisIndex,TrialsM2.thisRepN,TrialsM2.thisTrialN,TrialsM2.thisN,TrialsM2.thisIndex,TrialsF2.thisRepN,TrialsF2.thisTrialN,TrialsF2.thisN,TrialsF2.thisIndex,TrialsM3.thisRepN,TrialsM3.thisTrialN,TrialsM3.thisN,TrialsM3.thisIndex,TrialsF3.thisRepN,TrialsF3.thisTrialN,TrialsF3.thisN,TrialsF3.thisIndex,InstrKey_resp.keys,InstrKey_resp.rt,Image0 _Position,Image1 _Position,Image2 _Position,Image3 _Position,Center_image,condition,code,correct_answer,accuracy,Key_Resp.keys,Key_Resp.rt,BreakKey_resp.keys,BreakKey_resp.rt,date,frameRate,expName,session,participant,
,,,,,,,,,,,,,,,,,,,,,,,,,,,,,,space,8.9162623749,,,,,,,,,,,,,,2017_Jun_29_1145,60.0133970554,MAFE4ImagesEEG,001,200638,
AFSA21.JPG,AFNE23.JPG,AFNE21.JPG,AFSA25.JPG,AFNE25.JPG,AFSA23.JPG,0,0,0,4,,,,,,,,,,,,,,,,,,,,,,,AMNE02.jpg,AMSA05.jpg,AMSA01.jpg,AMNE13.jpg,AMNE02.jpg,MN,1,num_8,32,num_6,1.30008454685,,,2017_Jun_29_1145,60.0133970554,MAFE4ImagesEEG,001,200638,
AMSA21.JPG,AMNE23.JPG,AMNE21.JPG,AMSA25.JPG,AMNE25.JPG,AMSA23.JPG,0,1,1,5,,,,,,,,,,,,,,,,,,,,,,,AMNE01.jpg,AMNE03.jpg,AMSA17.jpg,AMSA14.jpg,AMSA14.jpg,MS,2,num_4,16,num_4,1.09997985756,,,2017_Jun_29_1145,60.0133970554,MAFE4ImagesEEG,001,200638,
AFSA25.JPG,AFNE24.JPG,AFSA24.JPG,AFNE21.JPG,AFSA21.JPG,AFNE25.JPG,0,2,2,2,,,,,,,,,,,,,,,,,,,,,,,AMNE11.jpg,AMSA12.jpg,AMSA08.jpg,AMNE15.jpg,AMSA12.jpg,MS,2,num_6,16,num_6,0.650138334808,,,2017_Jun_29_1145,60.0133970554,MAFE4ImagesEEG,001,200638,
AMSA21.JPG,AMNE22.JPG,AMNE21.JPG,AMSA23.JPG,AMSA22.JPG,AMNE23.JPG,0,3,3,1,,,,,,,,,,,,,,,,,,,,,,,AMSA14.jpg,AMNE07.jpg,AMSA13.jpg,AMNE11.jpg,AMSA14.jpg,MS,2,num_8,16,num_8,1.13343423788,,,2017_Jun_29_1145,60.0133970554,MAFE4ImagesEEG,001,200638,
AMNE22.JPG,AMSA24.JPG,AMSA22.JPG,AMNE25.JPG,AMNE24.JPG,AMSA25.JPG,0,4,4,7,,,,,,,,,,,,,,,,,,,,,,,AMNE09.jpg,AMSA07.jpg,AMSA11.jpg,AMNE08.jpg,AMSA11.jpg,MS,2,num_2,16,num_2,0.916747011826,,,2017_Jun_29_1145,60.0133970554,MAFE4ImagesEEG,001,200638,
AFNE23.JPG,AFNE24.JPG,AFNE22.JPG,AFSA24.JPG,AFSA22.JPG,AFSA23.JPG,0,5,5,8,,,,,,,,,,,,,,,,,,,,,,,AMSA07.jpg,AMNE01.jpg,AMSA15.jpg,AMNE11.jpg,AMSA07.jpg,MS,2,num_8,32,num_4,0.783459031023,,,2017_Jun_29_1145,60.0133970554,MAFE4ImagesEEG,001,200638,
AMSA25.JPG,AMNE24.JPG,AMSA24.JPG,AMNE26.JPG,AMSA21.JPG,AMNE25.JPG,0,6,6,3,,,,,,,,,,,,,,,,,,,,,,,AMSA10.jpg,AMSA12.jpg,AMNE08.jpg,AMNE17.jpg,AMNE08.jpg,MN,1,num_2,32,num_8,0.883436643431,,,2017_Jun_29_1145,60.0133970554,MAFE4ImagesEEG,001,200638,
AFNE22.JPG,AFSA24.JPG,AFSA22.JPG,AFNE25.JPG,AFNE24.JPG,AFSA25.JPG,0,7,7,6,,,,,,,,,,,,,,,,,,,,,,,AMNE01.jpg,AMSA06.jpg,AMSA07.jpg,AMNE16.jpg,AMSA07.jpg,MS,2,num_2,16,num_2,0.883446907072,,,2017_Jun_29_1145,60.0133970554,MAFE4ImagesEEG,001,200638,
AFSA21.JPG,AFNE22.JPG,AFNE21.JPG,AFSA23.JPG,AFSA22.JPG,AFNE23.JPG,0,8,8,0,,,,,,,,,,,,,,,,,,,,,,,AMSA14.jpg,AMNE09.jpg,AMSA13.jpg,AMNE04.jpg,AMSA14.jpg,MS,2,num_8,16,num_8,1.18338391391,,,2017_Jun_29_1145,60.0133970554,MAFE4ImagesEEG,001,200638,
AMNE23.JPG,AMNE24.JPG,AMNE22.JPG,AMSA24.JPG,AMSA22.JPG,AMSA23.JPG,0,9,9,9,,,,,,,,,,,,,,,,,,,,,,,AMNE12.jpg,AMSA12.jpg,AMSA16.jpg,AMNE05.jpg,AMSA12.jpg,MS,2,num_6,16,num_6,0.533478756493,,,2017_Jun_29_1145,60.0133970554,MAFE4ImagesEEG,001,200638,
AFNE22.JPG,AFSA24.JPG,AFSA22.JPG,AFNE25.JPG,AFNE24.JPG,AFSA25.JPG,,,,,0,0,0,6,,,,,,,,,,,,,,,,,,,AFNE19.jpg,AFNE09.jpg,AFSA02.jpg,AFSA10.jpg,AFNE19.jpg,FN,3,num_8,32,num_2,1.06666756474,,,2017_Jun_29_1145,60.0133970554,MAFE4ImagesEEG,001,200638,
AFNE23.JPG,AFNE24.JPG,AFNE22.JPG,AFSA24.JPG,AFSA22.JPG,AFSA23.JPG,,,,,0,1,1,8,,,,,,,,,,,,,,,,,,,AFSA14.jpg,AFNE06.jpg,AFNE14.jpg,AFSA08.jpg,AFSA14.jpg,FS,4,num_8,32,num_6,0.616793647321,,,2017_Jun_29_1145,60.0133970554,MAFE4ImagesEEG,001,200638,
AMSA21.JPG,AMNE22.JPG,AMNE21.JPG,AMSA23.JPG,AMSA22.JPG,AMNE23.JPG,,,,,0,2,2,1,,,,,,,,,,,,,,,,,,,AFSA14.jpg,AFNE12.jpg,AFNE08.jpg,AFSA10.jpg,AFSA14.jpg,FS,4,num_8,32,num_6,0.833447195735,,,2017_Jun_29_1145,60.0133970554,MAFE4ImagesEEG,001,200638,
AMNE22.JPG,AMSA24.JPG,AMSA22.JPG,AMNE25.JPG,AMNE24.JPG,AMSA25.JPG,,,,,0,3,3,7,,,,,,,,,,,,,,,,,,,AFNE05.jpg,AFSA15.jpg,AFNE01.jpg,AFSA07.jpg,AFNE01.jpg,FN,3,num_2,16,num_2,1.1503420042,,,2017_Jun_29_1145,60.0133970554,MAFE4ImagesEEG,001,200638,
AFSA21.JPG,AFNE23.JPG,AFNE21.JPG,AFSA25.JPG,AFNE25.JPG,AFSA23.JPG,,,,,0,4,4,4,,,,,,,,,,,,,,,,,,,AFNE07.jpg,AFSA07.jpg,AFSA16.jpg,AFNE09.jpg,AFSA16.jpg,FS,4,num_2,32,num_8,1.08343163991,,,2017_Jun_29_1145,60.0133970554,MAFE4ImagesEEG,001,200638,
AFSA21.JPG,AFNE22.JPG,AFNE21.JPG,AFSA23.JPG,AFSA22.JPG,AFNE23.JPG,,,,,0,5,5,0,,,,,,,,,,,,,,,,,,,AFSA05.jpg,AFSA19.jpg,AFNE04.jpg,AFNE15.jpg,AFSA19.jpg,FS,4,num_6,32,num_8,0.866828768252,,,2017_Jun_29_1145,60.0133970554,MAFE4ImagesEEG,001,200638,
AMSA25.JPG,AMNE24.JPG,AMSA24.JPG,AMNE26.JPG,AMSA21.JPG,AMNE25.JPG,,,,,0,6,6,3,,,,,,,,,,,,,,,,,,,AFNE14.jpg,AFNE02.jpg,AFSA16.jpg,AFSA17.jpg,AFNE14.jpg,FN,3,num_8,16,num_8,1.3667242073,,,2017_Jun_29_1145,60.0133970554,MAFE4ImagesEEG,001,200638,
AFSA25.JPG,AFNE24.JPG,AFSA24.JPG,AFNE21.JPG,AFSA21.JPG,AFNE25.JPG,,,,,0,7,7,2,,,,,,,,,,,,,,,,,,,AFNE06.jpg,AFSA05.jpg,AFSA19.jpg,AFNE18.jpg,AFNE18.jpg,FN,3,num_4,32,num_8,0.666883486352,,,2017_Jun_29_1145,60.0133970554,MAFE4ImagesEEG,001,200638,
AMNE23.JPG,AMNE24.JPG,AMNE22.JPG,AMSA24.JPG,AMSA22.JPG,AMSA23.JPG,,,,,0,8,8,9,,,,,,,,,,,,,,,,,,,AFNE03.jpg,AFSA03.jpg,AFNE15.jpg,AFSA01.jpg,AFSA01.jpg,FS,4,num_4,32,num_2,0.716733412497,,,2017_Jun_29_1145,60.0133970554,MAFE4ImagesEEG,001,200638,
AMSA21.JPG,AMNE23.JPG,AMNE21.JPG,AMSA25.JPG,AMNE25.JPG,AMSA23.JPG,,,,,0,9,9,5,,,,,,,,,,,,,,,,,,,AFNE02.jpg,AFSA14.jpg,AFNE14.jpg,AFSA11.jpg,AFNE02.jpg,FN,3,num_8,16,num_8,1.01676760329,,,2017_Jun_29_1145,60.0133970554,MAFE4ImagesEEG,001,200638,
AFSA21.JPG,AFNE23.JPG,AFNE21.JPG,AFSA25.JPG,AFNE25.JPG,AFSA23.JPG,,,,,,,,,0,0,0,4,,,,,,,,,,,,,,,AMNE17.jpg,AMSA12.jpg,AMNE03.jpg,AMSA09.jpg,AMSA09.jpg,MS,2,num_4,32,num_6,0.78346480435,,,2017_Jun_29_1145,60.0133970554,MAFE4ImagesEEG,001,200638,
AMNE23.JPG,AMNE24.JPG,AMNE22.JPG,AMSA24.JPG,AMSA22.JPG,AMSA23.JPG,,,,,,,,,0,1,1,9,,,,,,,,,,,,,,,AMSA01.jpg,AMNE03.jpg,AMSA20.jpg,AMNE05.jpg,AMSA20.jpg,MS,2,num_2,32,num_8,1.21676516565,,,2017_Jun_29_1145,60.0133970554,MAFE4ImagesEEG,001,200638,
AFSA21.JPG,AFNE22.JPG,AFNE21.JPG,AFSA23.JPG,AFSA22.JPG,AFNE23.JPG,,,,,,,,,0,2,2,0,,,,,,,,,,,,,,,AMSA01.jpg,AMSA10.jpg,AMNE13.jpg,AMNE08.jpg,AMNE13.jpg,MN,1,num_2,32,num_4,0.883477056574,,,2017_Jun_29_1145,60.0133970554,MAFE4ImagesEEG,001,200638,
AFSA25.JPG,AFNE24.JPG,AFSA24.JPG,AFNE21.JPG,AFSA21.JPG,AFNE25.JPG,,,,,,,,,0,3,3,2,,,,,,,,,,,,,,,AMSA08.jpg,AMSA05.jpg,AMNE19.jpg,AMNE11.jpg,AMSA08.jpg,MS,2,num_8,32,num_6,0.850140066788,,,2017_Jun_29_1145,60.0133970554,MAFE4ImagesEEG,001,200638,
AMSA25.JPG,AMNE24.JPG,AMSA24.JPG,AMNE26.JPG,AMSA21.JPG,AMNE25.JPG,,,,,,,,,0,4,4,3,,,,,,,,,,,,,,,AMSA14.jpg,AMNE09.jpg,AMSA18.jpg,AMNE05.jpg,AMSA18.jpg,MS,2,num_2,16,num_2,1.04993877088,,,2017_Jun_29_1145,60.0133970554,MAFE4ImagesEEG,001,200638,
AMSA21.JPG,AMNE22.JPG,AMNE21.JPG,AMSA23.JPG,AMSA22.JPG,AMNE23.JPG,,,,,,,,,0,5,5,1,,,,,,,,,,,,,,,AMSA04.jpg,AMNE15.jpg,AMNE16.jpg,AMSA20.jpg,AMSA20.jpg,MS,2,num_4,32,num_2,1.56668841277,,,2017_Jun_29_1145,60.0133970554,MAFE4ImagesEEG,001,200638,
AMSA21.JPG,AMNE23.JPG,AMNE21.JPG,AMSA25.JPG,AMNE25.JPG,AMSA23.JPG,,,,,,,,,0,6,6,5,,,,,,,,,,,,,,,AMSA16.jpg,AMNE08.jpg,AMNE14.jpg,AMSA09.jpg,AMNE08.jpg,MN,1,num_6,16,num_6,0.633417880163,,,2017_Jun_29_1145,60.0133970554,MAFE4ImagesEEG,001,200638,
AFNE22.JPG,AFSA24.JPG,AFSA22.JPG,AFNE25.JPG,AFNE24.JPG,AFSA25.JPG,,,,,,,,,0,7,7,6,,,,,,,,,,,,,,,AMNE11.jpg,AMSA06.jpg,AMNE12.jpg,AMSA13.jpg,AMSA06.jpg,MS,2,num_6,32,num_2,1.08355544522,,,2017_Jun_29_1145,60.0133970554,MAFE4ImagesEEG,001,200638,
AMNE22.JPG,AMSA24.JPG,AMSA22.JPG,AMNE25.JPG,AMNE24.JPG,AMSA25.JPG,,,,,,,,,0,8,8,7,,,,,,,,,,,,,,,AMNE06.jpg,AMSA15.jpg,AMNE09.jpg,AMSA10.jpg,AMSA10.jpg,MS,2,num_4,32,num_8,0.550135704747,,,2017_Jun_29_1145,60.0133970554,MAFE4ImagesEEG,001,200638,
AFNE23.JPG,AFNE24.JPG,AFNE22.JPG,AFSA24.JPG,AFSA22.JPG,AFSA23.JPG,,,,,,,,,0,9,9,8,,,,,,,,,,,,,,,AMNE07.jpg,AMNE01.jpg,AMSA07.jpg,AMSA05.jpg,AMSA05.jpg,MS,2,num_4,32,num_2,1.06677789902,,,2017_Jun_29_1145,60.0133970554,MAFE4ImagesEEG,001,200638,
AFNE22.JPG,AFSA24.JPG,AFSA22.JPG,AFNE25.JPG,AFNE24.JPG,AFSA25.JPG,,,,,,,,,,,,,0,0,0,6,,,,,,,,,,,AFSA18.jpg,AFSA11.jpg,AFNE01.jpg,AFNE06.jpg,AFSA18.jpg,FS,4,num_8,32,num_2,1.14964439644,,,2017_Jun_29_1145,60.0133970554,MAFE4ImagesEEG,001,200638,
AMSA25.JPG,AMNE24.JPG,AMSA24.JPG,AMNE26.JPG,AMSA21.JPG,AMNE25.JPG,,,,,,,,,,,,,0,1,1,3,,,,,,,,,,,AFNE14.jpg,AFNE05.jpg,AFSA19.jpg,AFSA02.jpg,AFNE14.jpg,FN,3,num_8,32,num_4,0.866745696811,,,2017_Jun_29_1145,60.0133970554,MAFE4ImagesEEG,001,200638,
AMSA21.JPG,AMNE23.JPG,AMNE21.JPG,AMSA25.JPG,AMNE25.JPG,AMSA23.JPG,,,,,,,,,,,,,0,2,2,5,,,,,,,,,,,AFNE01.jpg,AFSA20.jpg,AFSA11.jpg,AFNE19.jpg,AFSA20.jpg,FS,4,num_6,32,num_4,0.550126082555,,,2017_Jun_29_1145,60.0133970554,MAFE4ImagesEEG,001,200638,
AFSA21.JPG,AFNE23.JPG,AFNE21.JPG,AFSA25.JPG,AFNE25.JPG,AFSA23.JPG,,,,,,,,,,,,,0,3,3,4,,,,,,,,,,,AFNE20.jpg,AFSA12.jpg,AFSA18.jpg,AFNE07.jpg,AFNE07.jpg,FN,3,num_4,32,num_2,1.1170136744,,,2017_Jun_29_1145,60.0133970554,MAFE4ImagesEEG,001,200638,
AFSA25.JPG,AFNE24.JPG,AFSA24.JPG,AFNE21.JPG,AFSA21.JPG,AFNE25.JPG,,,,,,,,,,,,,0,4,4,2,,,,,,,,,,,AFSA15.jpg,AFNE16.jpg,AFSA13.jpg,AFNE10.jpg,AFSA15.jpg,FS,4,num_8,32,num_4,0.650203444849,,,2017_Jun_29_1145,60.0133970554,MAFE4ImagesEEG,001,200638,
AMNE23.JPG,AMNE24.JPG,AMNE22.JPG,AMSA24.JPG,AMSA22.JPG,AMSA23.JPG,,,,,,,,,,,,,0,5,5,9,,,,,,,,,,,AFSA03.jpg,AFNE19.jpg,AFSA09.jpg,AFNE05.jpg,AFSA03.jpg,FS,4,num_8,32,num_4,0.700180383719,,,2017_Jun_29_1145,60.0133970554,MAFE4ImagesEEG,001,200638,
AMSA21.JPG,AMNE22.JPG,AMNE21.JPG,AMSA23.JPG,AMSA22.JPG,AMNE23.JPG,,,,,,,,,,,,,0,6,6,1,,,,,,,,,,,AFNE11.jpg,AFSA06.jpg,AFNE19.jpg,AFSA03.jpg,AFSA03.jpg,FS,4,num_4,32,num_6,0.53347073801,,,2017_Jun_29_1145,60.0133970554,MAFE4ImagesEEG,001,200638,
AMNE22.JPG,AMSA24.JPG,AMSA22.JPG,AMNE25.JPG,AMNE24.JPG,AMSA25.JPG,,,,,,,,,,,,,0,7,7,7,,,,,,,,,,,AFNE05.jpg,AFNE06.jpg,AFSA11.jpg,AFSA01.jpg,AFSA11.jpg,FS,4,num_2,16,num_2,1.35007431527,,,2017_Jun_29_1145,60.0133970554,MAFE4ImagesEEG,001,200638,
AFNE23.JPG,AFNE24.JPG,AFNE22.JPG,AFSA24.JPG,AFSA22.JPG,AFSA23.JPG,,,,,,,,,,,,,0,8,8,8,,,,,,,,,,,AFSA15.jpg,AFNE01.jpg,AFNE11.jpg,AFSA09.jpg,AFNE11.jpg,FN,3,num_2,32,num_4,0.683470834221,,,2017_Jun_29_1145,60.0133970554,MAFE4ImagesEEG,001,200638,
AFSA21.JPG,AFNE22.JPG,AFNE21.JPG,AFSA23.JPG,AFSA22.JPG,AFNE23.JPG,,,,,,,,,,,,,0,9,9,0,,,,,,,,,,,AFNE05.jpg,AFNE17.jpg,AFSA02.jpg,AFSA07.jpg,AFNE05.jpg,FN,3,num_8,32,num_6,0.817004501238,,,2017_Jun_29_1145,60.0133970554,MAFE4ImagesEEG,001,200638,
AMSA21.JPG,AMNE23.JPG,AMNE21.JPG,AMSA25.JPG,AMNE25.JPG,AMSA23.JPG,,,,,,,,,,,,,,,,,0,0,0,5,,,,,,,AMNE10.jpg,AMNE02.jpg,AMSA19.jpg,AMSA20.jpg,AMSA20.jpg,MS,2,num_4,32,num_8,0.916949718987,,,2017_Jun_29_1145,60.0133970554,MAFE4ImagesEEG,001,200638,
AMSA25.JPG,AMNE24.JPG,AMSA24.JPG,AMNE26.JPG,AMSA21.JPG,AMNE25.JPG,,,,,,,,,,,,,,,,,0,1,1,3,,,,,,,AMNE07.jpg,AMSA04.jpg,AMSA09.jpg,AMNE14.jpg,AMSA09.jpg,MS,2,num_2,32,num_4,1.10007575862,,,2017_Jun_29_1145,60.0133970554,MAFE4ImagesEEG,001,200638,
AFNE22.JPG,AFSA24.JPG,AFSA22.JPG,AFNE25.JPG,AFNE24.JPG,AFSA25.JPG,,,,,,,,,,,,,,,,,0,2,2,6,,,,,,,AMSA13.jpg,AMNE01.jpg,AMNE08.jpg,AMSA16.jpg,AMSA16.jpg,MS,2,num_4,32,num_2,0.80011630003,,,2017_Jun_29_1145,60.0133970554,MAFE4ImagesEEG,001,200638,
AFSA21.JPG,AFNE22.JPG,AFNE21.JPG,AFSA23.JPG,AFSA22.JPG,AFNE23.JPG,,,,,,,,,,,,,,,,,0,3,3,0,,,,,,,AMSA03.jpg,AMSA18.jpg,AMNE05.jpg,AMNE15.jpg,AMNE15.jpg,MN,1,num_4,32,num_8,0.933493767079,,,2017_Jun_29_1145,60.0133970554,MAFE4ImagesEEG,001,200638,
AMSA21.JPG,AMNE22.JPG,AMNE21.JPG,AMSA23.JPG,AMSA22.JPG,AMNE23.JPG,,,,,,,,,,,,,,,,,0,4,4,1,,,,,,,AMSA12.jpg,AMSA07.jpg,AMNE18.jpg,AMNE03.jpg,AMSA12.jpg,MS,2,num_8,32,num_4,0.666818055586,,,2017_Jun_29_1145,60.0133970554,MAFE4ImagesEEG,001,200638,
AMNE22.JPG,AMSA24.JPG,AMSA22.JPG,AMNE25.JPG,AMNE24.JPG,AMSA25.JPG,,,,,,,,,,,,,,,,,0,5,5,7,,,,,,,AMNE18.jpg,AMSA14.jpg,AMNE04.jpg,AMSA04.jpg,AMNE18.jpg,MN,1,num_8,16,num_8,1.1334990272,,,2017_Jun_29_1145,60.0133970554,MAFE4ImagesEEG,001,200638,
AMNE23.JPG,AMNE24.JPG,AMNE22.JPG,AMSA24.JPG,AMSA22.JPG,AMSA23.JPG,,,,,,,,,,,,,,,,,0,6,6,9,,,,,,,AMNE06.jpg,AMNE14.jpg,AMSA04.jpg,AMSA20.jpg,AMSA20.jpg,MS,2,num_4,32,num_2,0.833448157966,,,2017_Jun_29_1145,60.0133970554,MAFE4ImagesEEG,001,200638,
AFNE23.JPG,AFNE24.JPG,AFNE22.JPG,AFSA24.JPG,AFSA22.JPG,AFSA23.JPG,,,,,,,,,,,,,,,,,0,7,7,8,,,,,,,AMSA13.jpg,AMSA14.jpg,AMNE08.jpg,AMNE16.jpg,AMSA13.jpg,MS,2,num_8,32,num_2,0.933411016362,,,2017_Jun_29_1145,60.0133970554,MAFE4ImagesEEG,001,200638,
AFSA25.JPG,AFNE24.JPG,AFSA24.JPG,AFNE21.JPG,AFSA21.JPG,AFNE25.JPG,,,,,,,,,,,,,,,,,0,8,8,2,,,,,,,AMNE15.jpg,AMSA03.jpg,AMNE05.jpg,AMSA01.jpg,AMSA03.jpg,MS,2,num_6,32,num_4,1.31674438177,,,2017_Jun_29_1145,60.0133970554,MAFE4ImagesEEG,001,200638,
AFSA21.JPG,AFNE23.JPG,AFNE21.JPG,AFSA25.JPG,AFNE25.JPG,AFSA23.JPG,,,,,,,,,,,,,,,,,0,9,9,4,,,,,,,AMSA14.jpg,AMNE16.jpg,AMSA07.jpg,AMNE11.jpg,AMSA14.jpg,MS,2,num_8,32,num_6,1.01672334128,,,2017_Jun_29_1145,60.0133970554,MAFE4ImagesEEG,001,200638,
AFNE22.JPG,AFSA24.JPG,AFSA22.JPG,AFNE25.JPG,AFNE24.JPG,AFSA25.JPG,,,,,,,,,,,,,,,,,,,,,0,0,0,6,,,AFSA03.jpg,AFSA11.jpg,AFNE19.jpg,AFNE01.jpg,AFNE01.jpg,FN,3,num_4,16,num_4,0.866770072986,,,2017_Jun_29_1145,60.0133970554,MAFE4ImagesEEG,001,200638,
AMSA25.JPG,AMNE24.JPG,AMSA24.JPG,AMNE26.JPG,AMSA21.JPG,AMNE25.JPG,,,,,,,,,,,,,,,,,,,,,0,1,1,3,,,AFSA14.jpg,AFSA03.jpg,AFNE14.jpg,AFNE02.jpg,AFSA14.jpg,FS,4,num_8,32,num_2,1.66688990113,,,2017_Jun_29_1145,60.0133970554,MAFE4ImagesEEG,001,200638,
AMSA21.JPG,AMNE23.JPG,AMNE21.JPG,AMSA25.JPG,AMNE25.JPG,AMSA23.JPG,,,,,,,,,,,,,,,,,,,,,0,2,2,5,,,AFNE10.jpg,AFSA12.jpg,AFNE20.jpg,AFSA16.jpg,AFNE20.jpg,FN,3,num_2,32,num_4,1.13343167197,,,2017_Jun_29_1145,60.0133970554,MAFE4ImagesEEG,001,200638,
AMNE23.JPG,AMNE24.JPG,AMNE22.JPG,AMSA24.JPG,AMSA22.JPG,AMSA23.JPG,,,,,,,,,,,,,,,,,,,,,0,3,3,9,,,AFNE18.jpg,AFNE03.jpg,AFSA05.jpg,AFSA15.jpg,AFSA15.jpg,FS,4,num_4,32,num_8,0.933449825796,,,2017_Jun_29_1145,60.0133970554,MAFE4ImagesEEG,001,200638,
AMNE22.JPG,AMSA24.JPG,AMSA22.JPG,AMNE25.JPG,AMNE24.JPG,AMSA25.JPG,,,,,,,,,,,,,,,,,,,,,0,4,4,7,,,AFNE02.jpg,AFSA13.jpg,AFNE06.jpg,AFSA06.jpg,AFNE02.jpg,FN,3,num_8,16,num_8,0.616803590237,,,2017_Jun_29_1145,60.0133970554,MAFE4ImagesEEG,001,200638,
AFNE23.JPG,AFNE24.JPG,AFNE22.JPG,AFSA24.JPG,AFSA22.JPG,AFSA23.JPG,,,,,,,,,,,,,,,,,,,,,0,5,5,8,,,AFNE06.jpg,AFNE05.jpg,AFSA07.jpg,AFSA17.jpg,AFNE06.jpg,FN,3,num_8,32,num_2,1.11675451713,,,2017_Jun_29_1145,60.0133970554,MAFE4ImagesEEG,001,200638,
AFSA21.JPG,AFNE23.JPG,AFNE21.JPG,AFSA25.JPG,AFNE25.JPG,AFSA23.JPG,,,,,,,,,,,,,,,,,,,,,0,6,6,4,,,AFNE06.jpg,AFSA11.jpg,AFSA18.jpg,AFNE15.jpg,AFSA18.jpg,FS,4,num_2,16,num_2,0.816763626121,,,2017_Jun_29_1145,60.0133970554,MAFE4ImagesEEG,001,200638,
AMSA21.JPG,AMNE22.JPG,AMNE21.JPG,AMSA23.JPG,AMSA22.JPG,AMNE23.JPG,,,,,,,,,,,,,,,,,,,,,0,7,7,1,,,AFSA04.jpg,AFNE12.jpg,AFNE07.jpg,AFSA16.jpg,AFNE12.jpg,FN,3,num_6,32,num_2,1.33340614114,,,2017_Jun_29_1145,60.0133970554,MAFE4ImagesEEG,001,200638,
AFSA25.JPG,AFNE24.JPG,AFSA24.JPG,AFNE21.JPG,AFSA21.JPG,AFNE25.JPG,,,,,,,,,,,,,,,,,,,,,0,8,8,2,,,AFNE02.jpg,AFSA07.jpg,AFSA03.jpg,AFNE01.jpg,AFSA03.jpg,FS,4,num_2,32,num_6,0.633454444469,,,2017_Jun_29_1145,60.0133970554,MAFE4ImagesEEG,001,200638,
AFSA21.JPG,AFNE22.JPG,AFNE21.JPG,AFSA23.JPG,AFSA22.JPG,AFNE23.JPG,,,,,,,,,,,,,,,,,,,,,0,9,9,0,,,AFNE11.jpg,AFSA12.jpg,AFSA15.jpg,AFNE17.jpg,AFNE17.jpg,FN,3,num_4,16,num_4,0.750160529977,,,2017_Jun_29_1145,60.0133970554,MAFE4ImagesEEG,001,200638,
,,,,,,,,,,,,,,,,,,,,,,,,,,,,,,,,,,,,,,,,,,,space,4.1502275003,2017_Jun_29_1145,60.0133970554,MAFE4ImagesEEG,001,200638,
AFNE01.JPG,AFNE01.JPG,AFNE01.JPG,AFNE01.JPG,AFNE01.JPG,AFNE01.JPG,0,0,0,2,,,,,,,,,,,,,,,,,,,,,,,AMNE08.jpg,AMSA15.jpg,AMNE18.jpg,AMSA03.jpg,AMSA03.jpg,MS,2,num_4,32,num_6,0.900109307899,,,2017_Jun_29_1145,60.0133970554,MAFE4ImagesEEG,001,200638,
AFNE01.JPG,AFNE01.JPG,AFNE01.JPG,AFNE01.JPG,AFNE01.JPG,AFNE01.JPG,0,1,1,0,,,,,,,,,,,,,,,,,,,,,,,AMNE06.jpg,AMNE10.jpg,AMSA20.jpg,AMSA06.jpg,AMSA20.jpg,MS,2,num_2,16,num_2,0.500171274733,,,2017_Jun_29_1145,60.0133970554,MAFE4ImagesEEG,001,200638,
AFNE01.JPG,AFNE01.JPG,AFNE01.JPG,AFNE01.JPG,AFNE01.JPG,AFNE01.JPG,0,2,2,4,,,,,,,,,,,,,,,,,,,,,,,AMNE18.jpg,AMSA16.jpg,AMNE03.jpg,AMSA20.jpg,AMNE18.jpg,MN,1,num_8,32,num_6,1.35008714485,,,2017_Jun_29_1145,60.0133970554,MAFE4ImagesEEG,001,200638,
AFNE01.JPG,AFNE01.JPG,AFNE01.JPG,AFNE01.JPG,AFNE01.JPG,AFNE01.JPG,0,3,3,1,,,,,,,,,,,,,,,,,,,,,,,AMNE13.jpg,AMSA05.jpg,AMNE05.jpg,AMSA17.jpg,AMSA17.jpg,MS,2,num_4,32,num_2,0.65015308882,,,2017_Jun_29_1145,60.0133970554,MAFE4ImagesEEG,001,200638,
AFNE01.JPG,AFNE01.JPG,AFNE01.JPG,AFNE01.JPG,AFNE01.JPG,AFNE01.JPG,0,4,4,6,,,,,,,,,,,,,,,,,,,,,,,AMSA14.jpg,AMNE04.jpg,AMSA13.jpg,AMNE17.jpg,AMSA14.jpg,MS,2,num_8,32,num_4,1.71672571477,,,2017_Jun_29_1145,60.0133970554,MAFE4ImagesEEG,001,200638,
AFNE01.JPG,AFNE01.JPG,AFNE01.JPG,AFNE01.JPG,AFNE01.JPG,AFNE01.JPG,0,5,5,5,,,,,,,,,,,,,,,,,,,,,,,AMSA02.jpg,AMNE14.jpg,AMNE11.jpg,AMSA03.jpg,AMNE11.jpg,MN,1,num_2,32,num_8,0.950701745256,,,2017_Jun_29_1145,60.0133970554,MAFE4ImagesEEG,001,200638,
AFNE01.JPG,AFNE01.JPG,AFNE01.JPG,AFNE01.JPG,AFNE01.JPG,AFNE01.JPG,0,6,6,8,,,,,,,,,,,,,,,,,,,,,,,AMNE02.jpg,AMSA16.jpg,AMNE04.jpg,AMSA07.jpg,AMNE04.jpg,MN,1,num_2,32,num_6,1.31676843722,,,2017_Jun_29_1145,60.0133970554,MAFE4ImagesEEG,001,200638,
AFNE01.JPG,AFNE01.JPG,AFNE01.JPG,AFNE01.JPG,AFNE01.JPG,AFNE01.JPG,0,7,7,3,,,,,,,,,,,,,,,,,,,,,,,AMNE04.jpg,AMSA07.jpg,AMNE20.jpg,AMSA18.jpg,AMSA18.jpg,MS,2,num_4,16,num_4,0.533485812746,,,2017_Jun_29_1145,60.0133970554,MAFE4ImagesEEG,001,200638,
AFNE01.JPG,AFNE01.JPG,AFNE01.JPG,AFNE01.JPG,AFNE01.JPG,AFNE01.JPG,0,8,8,9,,,,,,,,,,,,,,,,,,,,,,,AMNE06.jpg,AMSA20.jpg,AMSA06.jpg,AMNE14.jpg,AMNE14.jpg,MN,1,num_4,32,num_2,0.900161588419,,,2017_Jun_29_1145,60.0133970554,MAFE4ImagesEEG,001,200638,
AFNE01.JPG,AFNE01.JPG,AFNE01.JPG,AFNE01.JPG,AFNE01.JPG,AFNE01.JPG,0,9,9,7,,,,,,,,,,,,,,,,,,,,,,,AMSA12.jpg,AMNE12.jpg,AMNE13.jpg,AMSA09.jpg,AMSA12.jpg,MS,2,num_8,32,num_6,1.16662946093,,,2017_Jun_29_1145,60.0133970554,MAFE4ImagesEEG,001,200638,
AFNE01.JPG,AFNE01.JPG,AFNE01.JPG,AFNE01.JPG,AFNE01.JPG,AFNE01.JPG,1,0,10,1,,,,,,,,,,,,,,,,,,,,,,,AMSA07.jpg,AMSA17.jpg,AMNE07.jpg,AMNE12.jpg,AMSA07.jpg,MS,2,num_8,32,num_2,0.75019067945,,,2017_Jun_29_1145,60.0133970554,MAFE4ImagesEEG,001,200638,
AFNE01.JPG,AFNE01.JPG,AFNE01.JPG,AFNE01.JPG,AFNE01.JPG,AFNE01.JPG,1,1,11,0,,,,,,,,,,,,,,,,,,,,,,,AMSA11.jpg,AMNE19.jpg,AMNE11.jpg,AMSA02.jpg,AMSA02.jpg,MS,2,num_4,16,num_4,1.26673504827,,,2017_Jun_29_1145,60.0133970554,MAFE4ImagesEEG,001,200638,
AFNE01.JPG,AFNE01.JPG,AFNE01.JPG,AFNE01.JPG,AFNE01.JPG,AFNE01.JPG,1,2,12,9,,,,,,,,,,,,,,,,,,,,,,,AMNE02.jpg,AMSA14.jpg,AMNE08.jpg,AMSA17.jpg,AMSA17.jpg,MS,2,num_4,32,num_2,0.916732899321,,,2017_Jun_29_1145,60.0133970554,MAFE4ImagesEEG,001,200638,
AFNE01.JPG,AFNE01.JPG,AFNE01.JPG,AFNE01.JPG,AFNE01.JPG,AFNE01.JPG,1,3,13,6,,,,,,,,,,,,,,,,,,,,,,,AMSA17.jpg,AMNE18.jpg,AMNE14.jpg,AMSA20.jpg,AMSA17.jpg,MS,2,num_8,16,num_8,0.566819915839,,,2017_Jun_29_1145,60.0133970554,MAFE4ImagesEEG,001,200638,
AFNE01.JPG,AFNE01.JPG,AFNE01.JPG,AFNE01.JPG,AFNE01.JPG,AFNE01.JPG,1,4,14,2,,,,,,,,,,,,,,,,,,,,,,,AMSA20.jpg,AMNE02.jpg,AMNE18.jpg,AMSA06.jpg,AMSA06.jpg,MS,2,num_4,16,num_4,1.2167654864,,,2017_Jun_29_1145,60.0133970554,MAFE4ImagesEEG,001,200638,
AFNE01.JPG,AFNE01.JPG,AFNE01.JPG,AFNE01.JPG,AFNE01.JPG,AFNE01.JPG,1,5,15,7,,,,,,,,,,,,,,,,,,,,,,,AMSA12.jpg,AMSA09.jpg,AMNE15.jpg,AMNE06.jpg,AMSA12.jpg,MS,2,num_8,32,num_2,0.98344248088,,,2017_Jun_29_1145,60.0133970554,MAFE4ImagesEEG,001,200638,
AFNE01.JPG,AFNE01.JPG,AFNE01.JPG,AFNE01.JPG,AFNE01.JPG,AFNE01.JPG,1,6,16,3,,,,,,,,,,,,,,,,,,,,,,,AMNE15.jpg,AMNE04.jpg,AMSA14.jpg,AMSA04.jpg,AMNE04.jpg,MN,1,num_6,32,num_2,0.933416148182,,,2017_Jun_29_1145,60.0133970554,MAFE4ImagesEEG,001,200638,
AFNE01.JPG,AFNE01.JPG,AFNE01.JPG,AFNE01.JPG,AFNE01.JPG,AFNE01.JPG,1,7,17,8,,,,,,,,,,,,,,,,,,,,,,,AMNE18.jpg,AMNE02.jpg,AMSA09.jpg,AMSA12.jpg,AMNE18.jpg,MN,1,num_8,16,num_8,2.08334600253,,,2017_Jun_29_1145,60.0133970554,MAFE4ImagesEEG,001,200638,
AFNE01.JPG,AFNE01.JPG,AFNE01.JPG,AFNE01.JPG,AFNE01.JPG,AFNE01.JPG,1,8,18,5,,,,,,,,,,,,,,,,,,,,,,,AMNE07.jpg,AMSA17.jpg,AMSA20.jpg,AMNE19.jpg,AMSA17.jpg,MS,2,num_6,32,num_8,0.983441518678,,,2017_Jun_29_1145,60.0133970554,MAFE4ImagesEEG,001,200638,
AFNE01.JPG,AFNE01.JPG,AFNE01.JPG,AFNE01.JPG,AFNE01.JPG,AFNE01.JPG,1,9,19,4,,,,,,,,,,,,,,,,,,,,,,,AMNE18.jpg,AMSA10.jpg,AMSA14.jpg,AMNE09.jpg,AMSA10.jpg,MS,2,num_6,32,num_8,1.84988443769,,,2017_Jun_29_1145,60.0133970554,MAFE4ImagesEEG,001,200638,
AFNE01.JPG,AFNE01.JPG,AFNE01.JPG,AFNE01.JPG,AFNE01.JPG,AFNE01.JPG,2,0,20,6,,,,,,,,,,,,,,,,,,,,,,,AMNE08.jpg,AMNE11.jpg,AMSA18.jpg,AMSA11.jpg,AMNE08.jpg,MN,1,num_8,16,num_8,0.683311747591,,,2017_Jun_29_1145,60.0133970554,MAFE4ImagesEEG,001,200638,
AFNE01.JPG,AFNE01.JPG,AFNE01.JPG,AFNE01.JPG,AFNE01.JPG,AFNE01.JPG,2,1,21,0,,,,,,,,,,,,,,,,,,,,,,,AMSA14.jpg,AMNE20.jpg,AMSA12.jpg,AMNE06.jpg,AMSA14.jpg,MS,2,num_8,32,num_2,1.03346400248,,,2017_Jun_29_1145,60.0133970554,MAFE4ImagesEEG,001,200638,
AFNE01.JPG,AFNE01.JPG,AFNE01.JPG,AFNE01.JPG,AFNE01.JPG,AFNE01.JPG,2,2,22,3,,,,,,,,,,,,,,,,,,,,,,,AMNE16.jpg,AMSA07.jpg,AMSA03.jpg,AMNE06.jpg,AMNE16.jpg,MN,1,num_8,16,num_8,1.00011835276,,,2017_Jun_29_1145,60.0133970554,MAFE4ImagesEEG,001,200638,
AFNE01.JPG,AFNE01.JPG,AFNE01.JPG,AFNE01.JPG,AFNE01.JPG,AFNE01.JPG,2,3,23,7,,,,,,,,,,,,,,,,,,,,,,,AMNE02.jpg,AMNE07.jpg,AMSA09.jpg,AMSA04.jpg,AMNE02.jpg,MN,1,num_8,32,num_2,1.06674807027,,,2017_Jun_29_1145,60.0133970554,MAFE4ImagesEEG,001,200638,
AFNE01.JPG,AFNE01.JPG,AFNE01.JPG,AFNE01.JPG,AFNE01.JPG,AFNE01.JPG,2,4,24,9,,,,,,,,,,,,,,,,,,,,,,,AMSA11.jpg,AMSA09.jpg,AMNE17.jpg,AMNE10.jpg,AMNE17.jpg,MN,1,num_2,32,num_4,0.950139168737,,,2017_Jun_29_1145,60.0133970554,MAFE4ImagesEEG,001,200638,
AFNE01.JPG,AFNE01.JPG,AFNE01.JPG,AFNE01.JPG,AFNE01.JPG,AFNE01.JPG,2,5,25,8,,,,,,,,,,,,,,,,,,,,,,,AMNE20.jpg,AMSA19.jpg,AMSA04.jpg,AMNE18.jpg,AMNE20.jpg,MN,1,num_8,32,num_4,1.05010812118,,,2017_Jun_29_1145,60.0133970554,MAFE4ImagesEEG,001,200638,
AFNE01.JPG,AFNE01.JPG,AFNE01.JPG,AFNE01.JPG,AFNE01.JPG,AFNE01.JPG,2,6,26,2,,,,,,,,,,,,,,,,,,,,,,,AMSA08.jpg,AMNE15.jpg,AMNE11.jpg,AMSA04.jpg,AMSA04.jpg,MS,2,num_4,16,num_4,2.2667142002,,,2017_Jun_29_1145,60.0133970554,MAFE4ImagesEEG,001,200638,
AFNE01.JPG,AFNE01.JPG,AFNE01.JPG,AFNE01.JPG,AFNE01.JPG,AFNE01.JPG,2,7,27,4,,,,,,,,,,,,,,,,,,,,,,,AMNE04.jpg,AMSA06.jpg,AMSA01.jpg,AMNE02.jpg,AMSA01.jpg,MS,2,num_2,16,num_2,0.650124222302,,,2017_Jun_29_1145,60.0133970554,MAFE4ImagesEEG,001,200638,
AFNE01.JPG,AFNE01.JPG,AFNE01.JPG,AFNE01.JPG,AFNE01.JPG,AFNE01.JPG,2,8,28,5,,,,,,,,,,,,,,,,,,,,,,,AMNE17.jpg,AMSA15.jpg,AMNE02.jpg,AMSA13.jpg,AMSA15.jpg,MS,2,num_6,16,num_6,0.733480809198,,,2017_Jun_29_1145,60.0133970554,MAFE4ImagesEEG,001,200638,
AFNE01.JPG,AFNE01.JPG,AFNE01.JPG,AFNE01.JPG,AFNE01.JPG,AFNE01.JPG,2,9,29,1,,,,,,,,,,,,,,,,,,,,,,,AMSA03.jpg,AMNE07.jpg,AMSA11.jpg,AMNE04.jpg,AMSA11.jpg,MS,2,num_2,32,num_6,0.950138847984,,,2017_Jun_29_1145,60.0133970554,MAFE4ImagesEEG,001,200638,
AFNE01.JPG,AFNE01.JPG,AFNE01.JPG,AFNE01.JPG,AFNE01.JPG,AFNE01.JPG,3,0,30,2,,,,,,,,,,,,,,,,,,,,,,,AMSA18.jpg,AMSA09.jpg,AMNE14.jpg,AMNE09.jpg,AMNE14.jpg,MN,1,num_2,32,num_8,0.866748583445,,,2017_Jun_29_1145,60.0133970554,MAFE4ImagesEEG,001,200638,
AFNE01.JPG,AFNE01.JPG,AFNE01.JPG,AFNE01.JPG,AFNE01.JPG,AFNE01.JPG,3,1,31,6,,,,,,,,,,,,,,,,,,,,,,,AMNE17.jpg,AMSA19.jpg,AMSA14.jpg,AMNE01.jpg,AMNE17.jpg,MN,1,num_8,16,num_8,0.850173423678,,,2017_Jun_29_1145,60.0133970554,MAFE4ImagesEEG,001,200638,
AFNE01.JPG,AFNE01.JPG,AFNE01.JPG,AFNE01.JPG,AFNE01.JPG,AFNE01.JPG,3,2,32,1,,,,,,,,,,,,,,,,,,,,,,,AMSA07.jpg,AMSA04.jpg,AMNE20.jpg,AMNE13.jpg,AMSA04.jpg,MS,2,num_6,16,num_6,0.983580719476,,,2017_Jun_29_1145,60.0133970554,MAFE4ImagesEEG,001,200638,
AFNE01.JPG,AFNE01.JPG,AFNE01.JPG,AFNE01.JPG,AFNE01.JPG,AFNE01.JPG,3,3,33,5,,,,,,,,,,,,,,,,,,,,,,,AMSA20.jpg,AMSA19.jpg,AMNE12.jpg,AMNE16.jpg,AMSA19.jpg,MS,2,num_6,32,num_4,0.817042989976,,,2017_Jun_29_1145,60.0133970554,MAFE4ImagesEEG,001,200638,
AFNE01.JPG,AFNE01.JPG,AFNE01.JPG,AFNE01.JPG,AFNE01.JPG,AFNE01.JPG,3,4,34,8,,,,,,,,,,,,,,,,,,,,,,,AMNE16.jpg,AMNE09.jpg,AMSA09.jpg,AMSA18.jpg,AMSA18.jpg,MS,2,num_4,32,num_8,0.583503485483,,,2017_Jun_29_1145,60.0133970554,MAFE4ImagesEEG,001,200638,
AFNE01.JPG,AFNE01.JPG,AFNE01.JPG,AFNE01.JPG,AFNE01.JPG,AFNE01.JPG,3,5,35,9,,,,,,,,,,,,,,,,,,,,,,,AMSA13.jpg,AMNE13.jpg,AMSA05.jpg,AMNE07.jpg,AMNE13.jpg,MN,1,num_6,16,num_6,0.86673703682,,,2017_Jun_29_1145,60.0133970554,MAFE4ImagesEEG,001,200638,
AFNE01.JPG,AFNE01.JPG,AFNE01.JPG,AFNE01.JPG,AFNE01.JPG,AFNE01.JPG,3,6,36,3,,,,,,,,,,,,,,,,,,,,,,,AMNE02.jpg,AMSA14.jpg,AMSA03.jpg,AMNE09.jpg,AMNE02.jpg,MN,1,num_8,32,num_4,0.566774370876,,,2017_Jun_29_1145,60.0133970554,MAFE4ImagesEEG,001,200638,
AFNE01.JPG,AFNE01.JPG,AFNE01.JPG,AFNE01.JPG,AFNE01.JPG,AFNE01.JPG,3,7,37,4,,,,,,,,,,,,,,,,,,,,,,,AMNE04.jpg,AMSA02.jpg,AMSA14.jpg,AMNE14.jpg,AMSA14.jpg,MS,2,num_2,16,num_2,1.04994261978,,,2017_Jun_29_1145,60.0133970554,MAFE4ImagesEEG,001,200638,
AFNE01.JPG,AFNE01.JPG,AFNE01.JPG,AFNE01.JPG,AFNE01.JPG,AFNE01.JPG,3,8,38,7,,,,,,,,,,,,,,,,,,,,,,,AMSA04.jpg,AMNE15.jpg,AMSA17.jpg,AMNE04.jpg,AMNE04.jpg,MN,1,num_4,32,num_8,0.750161492178,,,2017_Jun_29_1145,60.0133970554,MAFE4ImagesEEG,001,200638,
AFNE01.JPG,AFNE01.JPG,AFNE01.JPG,AFNE01.JPG,AFNE01.JPG,AFNE01.JPG,3,9,39,0,,,,,,,,,,,,,,,,,,,,,,,AMNE02.jpg,AMSA01.jpg,AMSA08.jpg,AMNE03.jpg,AMSA08.jpg,MS,2,num_2,32,num_8,1.00014272894,,,2017_Jun_29_1145,60.0133970554,MAFE4ImagesEEG,001,200638,
AFNE01.JPG,AFNE01.JPG,AFNE01.JPG,AFNE01.JPG,AFNE01.JPG,AFNE01.JPG,4,0,40,3,,,,,,,,,,,,,,,,,,,,,,,AMSA17.jpg,AMNE14.jpg,AMNE05.jpg,AMSA20.jpg,AMSA20.jpg,MS,2,num_4,16,num_4,0.500116107607,,,2017_Jun_29_1145,60.0133970554,MAFE4ImagesEEG,001,200638,
AFNE01.JPG,AFNE01.JPG,AFNE01.JPG,AFNE01.JPG,AFNE01.JPG,AFNE01.JPG,4,1,41,6,,,,,,,,,,,,,,,,,,,,,,,AMSA20.jpg,AMNE04.jpg,AMSA15.jpg,AMNE17.jpg,AMNE17.jpg,MN,1,num_4,32,num_6,0.84998033868,,,2017_Jun_29_1145,60.0133970554,MAFE4ImagesEEG,001,200638,
AFNE01.JPG,AFNE01.JPG,AFNE01.JPG,AFNE01.JPG,AFNE01.JPG,AFNE01.JPG,4,2,42,9,,,,,,,,,,,,,,,,,,,,,,,AMSA02.jpg,AMSA13.jpg,AMNE04.jpg,AMNE11.jpg,AMSA02.jpg,MS,2,num_8,32,num_6,0.516779149882,,,2017_Jun_29_1145,60.0133970554,MAFE4ImagesEEG,001,200638,
AFNE01.JPG,AFNE01.JPG,AFNE01.JPG,AFNE01.JPG,AFNE01.JPG,AFNE01.JPG,4,3,43,2,,,,,,,,,,,,,,,,,,,,,,,AMSA07.jpg,AMNE08.jpg,AMNE05.jpg,AMSA12.jpg,AMSA12.jpg,MS,2,num_4,32,num_6,0.45025399336,,,2017_Jun_29_1145,60.0133970554,MAFE4ImagesEEG,001,200638,
AFNE01.JPG,AFNE01.JPG,AFNE01.JPG,AFNE01.JPG,AFNE01.JPG,AFNE01.JPG,4,4,44,0,,,,,,,,,,,,,,,,,,,,,,,AMNE09.jpg,AMNE02.jpg,AMSA11.jpg,AMSA04.jpg,AMNE02.jpg,MN,1,num_6,32,num_4,0.883470321045,,,2017_Jun_29_1145,60.0133970554,MAFE4ImagesEEG,001,200638,
AFNE01.JPG,AFNE01.JPG,AFNE01.JPG,AFNE01.JPG,AFNE01.JPG,AFNE01.JPG,4,5,45,4,,,,,,,,,,,,,,,,,,,,,,,AMNE04.jpg,AMSA06.jpg,AMNE11.jpg,AMSA10.jpg,AMNE04.jpg,MN,1,num_8,32,num_2,0.883440171543,,,2017_Jun_29_1145,60.0133970554,MAFE4ImagesEEG,001,200638,
AFNE01.JPG,AFNE01.JPG,AFNE01.JPG,AFNE01.JPG,AFNE01.JPG,AFNE01.JPG,4,6,46,7,,,,,,,,,,,,,,,,,,,,,,,AMNE08.jpg,AMNE15.jpg,AMSA01.jpg,AMSA06.jpg,AMSA01.jpg,MS,2,num_2,16,num_2,0.60012483169,,,2017_Jun_29_1145,60.0133970554,MAFE4ImagesEEG,001,200638,
AFNE01.JPG,AFNE01.JPG,AFNE01.JPG,AFNE01.JPG,AFNE01.JPG,AFNE01.JPG,4,7,47,8,,,,,,,,,,,,,,,,,,,,,,,AMNE12.jpg,AMSA18.jpg,AMNE07.jpg,AMSA10.jpg,AMNE07.jpg,MN,1,num_2,32,num_8,0.950098755595,,,2017_Jun_29_1145,60.0133970554,MAFE4ImagesEEG,001,200638,
AFNE01.JPG,AFNE01.JPG,AFNE01.JPG,AFNE01.JPG,AFNE01.JPG,AFNE01.JPG,4,8,48,1,,,,,,,,,,,,,,,,,,,,,,,AMNE05.jpg,AMNE12.jpg,AMSA14.jpg,AMSA18.jpg,AMSA14.jpg,MS,2,num_2,16,num_2,0.483500855393,,,2017_Jun_29_1145,60.0133970554,MAFE4ImagesEEG,001,200638,
AFNE01.JPG,AFNE01.JPG,AFNE01.JPG,AFNE01.JPG,AFNE01.JPG,AFNE01.JPG,4,9,49,5,,,,,,,,,,,,,,,,,,,,,,,AMSA10.jpg,AMNE12.jpg,AMNE06.jpg,AMSA19.jpg,AMSA19.jpg,MS,2,num_4,16,num_4,1.1168539463,,,2017_Jun_29_1145,60.0133970554,MAFE4ImagesEEG,001,200638,
AFNE01.JPG,AFNE01.JPG,AFNE01.JPG,AFNE01.JPG,AFNE01.JPG,AFNE01.JPG,5,0,50,5,,,,,,,,,,,,,,,,,,,,,,,AMSA10.jpg,AMSA07.jpg,AMNE09.jpg,AMNE15.jpg,AMNE09.jpg,MN,1,num_2,32,num_6,0.70016498823,,,2017_Jun_29_1145,60.0133970554,MAFE4ImagesEEG,001,200638,
AFNE01.JPG,AFNE01.JPG,AFNE01.JPG,AFNE01.JPG,AFNE01.JPG,AFNE01.JPG,5,1,51,8,,,,,,,,,,,,,,,,,,,,,,,AMSA18.jpg,AMNE16.jpg,AMSA01.jpg,AMNE05.jpg,AMSA01.jpg,MS,2,num_2,16,num_2,0.616819947929,,,2017_Jun_29_1145,60.0133970554,MAFE4ImagesEEG,001,200638,
AFNE01.JPG,AFNE01.JPG,AFNE01.JPG,AFNE01.JPG,AFNE01.JPG,AFNE01.JPG,5,2,52,2,,,,,,,,,,,,,,,,,,,,,,,AMSA07.jpg,AMSA20.jpg,AMNE01.jpg,AMNE09.jpg,AMNE01.jpg,MN,1,num_2,32,num_6,0.75015988847,,,2017_Jun_29_1145,60.0133970554,MAFE4ImagesEEG,001,200638,
AFNE01.JPG,AFNE01.JPG,AFNE01.JPG,AFNE01.JPG,AFNE01.JPG,AFNE01.JPG,5,3,53,1,,,,,,,,,,,,,,,,,,,,,,,AMSA10.jpg,AMNE07.jpg,AMNE02.jpg,AMSA09.jpg,AMSA09.jpg,MS,2,num_4,32,num_8,0.950280293997,,,2017_Jun_29_1145,60.0133970554,MAFE4ImagesEEG,001,200638,
AFNE01.JPG,AFNE01.JPG,AFNE01.JPG,AFNE01.JPG,AFNE01.JPG,AFNE01.JPG,5,4,54,9,,,,,,,,,,,,,,,,,,,,,,,AMNE08.jpg,AMSA18.jpg,AMSA08.jpg,AMNE16.jpg,AMNE16.jpg,MN,1,num_4,32,num_8,0.833502683643,,,2017_Jun_29_1145,60.0133970554,MAFE4ImagesEEG,001,200638,
AFNE01.JPG,AFNE01.JPG,AFNE01.JPG,AFNE01.JPG,AFNE01.JPG,AFNE01.JPG,5,5,55,0,,,,,,,,,,,,,,,,,,,,,,,AMNE12.jpg,AMSA19.jpg,AMSA04.jpg,AMNE17.jpg,AMSA04.jpg,MS,2,num_2,16,num_2,0.933473560523,,,2017_Jun_29_1145,60.0133970554,MAFE4ImagesEEG,001,200638,
AFNE01.JPG,AFNE01.JPG,AFNE01.JPG,AFNE01.JPG,AFNE01.JPG,AFNE01.JPG,5,6,56,4,,,,,,,,,,,,,,,,,,,,,,,AMNE20.jpg,AMNE12.jpg,AMSA18.jpg,AMSA01.jpg,AMSA01.jpg,MS,2,num_4,32,num_6,1.30014324212,,,2017_Jun_29_1145,60.0133970554,MAFE4ImagesEEG,001,200638,
AFNE01.JPG,AFNE01.JPG,AFNE01.JPG,AFNE01.JPG,AFNE01.JPG,AFNE01.JPG,5,7,57,6,,,,,,,,,,,,,,,,,,,,,,,AMNE09.jpg,AMNE12.jpg,AMSA02.jpg,AMSA08.jpg,AMSA08.jpg,MS,2,num_4,32,num_8,0.633343147929,,,2017_Jun_29_1145,60.0133970554,MAFE4ImagesEEG,001,200638,
AFNE01.JPG,AFNE01.JPG,AFNE01.JPG,AFNE01.JPG,AFNE01.JPG,AFNE01.JPG,5,8,58,3,,,,,,,,,,,,,,,,,,,,,,,AMNE03.jpg,AMSA08.jpg,AMNE17.jpg,AMSA06.jpg,AMNE17.jpg,MN,1,num_2,32,num_6,0.400145551452,,,2017_Jun_29_1145,60.0133970554,MAFE4ImagesEEG,001,200638,
AFNE01.JPG,AFNE01.JPG,AFNE01.JPG,AFNE01.JPG,AFNE01.JPG,AFNE01.JPG,5,9,59,7,,,,,,,,,,,,,,,,,,,,,,,AMNE01.jpg,AMSA02.jpg,AMSA16.jpg,AMNE20.jpg,AMNE01.jpg,MN,1,num_8,16,num_8,0.850120822462,,,2017_Jun_29_1145,60.0133970554,MAFE4ImagesEEG,001,200638,
,,,,,,,,,,,,,,,,,,,,,,,,,,,,,,,,,,,,,,,,,,,space,2.53332416018,2017_Jun_29_1145,60.0133970554,MAFE4ImagesEEG,001,200638,
AFNE01.JPG,AFNE01.JPG,AFNE01.JPG,AFNE01.JPG,AFNE01.JPG,AFNE01.JPG,,,,,0,0,0,8,,,,,,,,,,,,,,,,,,,AFNE09.jpg,AFSA07.jpg,AFNE04.jpg,AFSA03.jpg,AFNE09.jpg,FN,3,num_8,32,num_2,0.550213644368,,,2017_Jun_29_1145,60.0133970554,MAFE4ImagesEEG,001,200638,
AFNE01.JPG,AFNE01.JPG,AFNE01.JPG,AFNE01.JPG,AFNE01.JPG,AFNE01.JPG,,,,,0,1,1,3,,,,,,,,,,,,,,,,,,,AFNE09.jpg,AFSA05.jpg,AFSA16.jpg,AFNE17.jpg,AFSA16.jpg,FS,4,num_2,32,num_6,1.06695751299,,,2017_Jun_29_1145,60.0133970554,MAFE4ImagesEEG,001,200638,
AFNE01.JPG,AFNE01.JPG,AFNE01.JPG,AFNE01.JPG,AFNE01.JPG,AFNE01.JPG,,,,,0,2,2,5,,,,,,,,,,,,,,,,,,,AFNE11.jpg,AFNE19.jpg,AFSA14.jpg,AFSA16.jpg,AFSA16.jpg,FS,4,num_4,32,num_2,1.05012063001,,,2017_Jun_29_1145,60.0133970554,MAFE4ImagesEEG,001,200638,
AFNE01.JPG,AFNE01.JPG,AFNE01.JPG,AFNE01.JPG,AFNE01.JPG,AFNE01.JPG,,,,,0,3,3,6,,,,,,,,,,,,,,,,,,,AFSA05.jpg,AFSA20.jpg,AFNE16.jpg,AFNE10.jpg,AFSA05.jpg,FS,4,num_8,32,num_6,0.86677295962,,,2017_Jun_29_1145,60.0133970554,MAFE4ImagesEEG,001,200638,
AFNE01.JPG,AFNE01.JPG,AFNE01.JPG,AFNE01.JPG,AFNE01.JPG,AFNE01.JPG,,,,,0,4,4,9,,,,,,,,,,,,,,,,,,,AFSA12.jpg,AFNE07.jpg,AFNE19.jpg,AFSA06.jpg,AFSA06.jpg,FS,4,num_4,32,num_6,0.783464804321,,,2017_Jun_29_1145,60.0133970554,MAFE4ImagesEEG,001,200638,
AFNE01.JPG,AFNE01.JPG,AFNE01.JPG,AFNE01.JPG,AFNE01.JPG,AFNE01.JPG,,,,,0,5,5,2,,,,,,,,,,,,,,,,,,,AFSA10.jpg,AFNE12.jpg,AFSA02.jpg,AFNE11.jpg,AFNE12.jpg,FN,3,num_6,16,num_6,1.65008220545,,,2017_Jun_29_1145,60.0133970554,MAFE4ImagesEEG,001,200638,
AFNE01.JPG,AFNE01.JPG,AFNE01.JPG,AFNE01.JPG,AFNE01.JPG,AFNE01.JPG,,,,,0,6,6,7,,,,,,,,,,,,,,,,,,,AFSA15.jpg,AFNE16.jpg,AFSA16.jpg,AFNE04.jpg,AFNE04.jpg,FN,3,num_4,32,num_8,1.03343096634,,,2017_Jun_29_1145,60.0133970554,MAFE4ImagesEEG,001,200638,
AFNE01.JPG,AFNE01.JPG,AFNE01.JPG,AFNE01.JPG,AFNE01.JPG,AFNE01.JPG,,,,,0,7,7,0,,,,,,,,,,,,,,,,,,,AFNE07.jpg,AFSA02.jpg,AFNE06.jpg,AFSA15.jpg,AFSA15.jpg,FS,4,num_4,32,num_2,1.45007117203,,,2017_Jun_29_1145,60.0133970554,MAFE4ImagesEEG,001,200638,
AFNE01.JPG,AFNE01.JPG,AFNE01.JPG,AFNE01.JPG,AFNE01.JPG,AFNE01.JPG,,,,,0,8,8,4,,,,,,,,,,,,,,,,,,,AFSA07.jpg,AFSA02.jpg,AFNE20.jpg,AFNE09.jpg,AFNE09.jpg,FN,3,num_4,32,num_2,0.783292246633,,,2017_Jun_29_1145,60.0133970554,MAFE4ImagesEEG,001,200638,
AFNE01.JPG,AFNE01.JPG,AFNE01.JPG,AFNE01.JPG,AFNE01.JPG,AFNE01.JPG,,,,,0,9,9,1,,,,,,,,,,,,,,,,,,,AFNE15.jpg,AFNE12.jpg,AFSA06.jpg,AFSA20.jpg,AFNE12.jpg,FN,3,num_6,16,num_6,0.466855133011,,,2017_Jun_29_1145,60.0133970554,MAFE4ImagesEEG,001,200638,
AFNE01.JPG,AFNE01.JPG,AFNE01.JPG,AFNE01.JPG,AFNE01.JPG,AFNE01.JPG,,,,,1,0,10,6,,,,,,,,,,,,,,,,,,,AFNE17.jpg,AFSA09.jpg,AFSA15.jpg,AFNE02.jpg,AFNE17.jpg,FN,3,num_8,32,num_6,0.816753362451,,,2017_Jun_29_1145,60.0133970554,MAFE4ImagesEEG,001,200638,
AFNE01.JPG,AFNE01.JPG,AFNE01.JPG,AFNE01.JPG,AFNE01.JPG,AFNE01.JPG,,,,,1,1,11,5,,,,,,,,,,,,,,,,,,,AFSA03.jpg,AFNE17.jpg,AFNE13.jpg,AFSA12.jpg,AFSA03.jpg,FS,4,num_8,16,num_8,1.23368961041,,,2017_Jun_29_1145,60.0133970554,MAFE4ImagesEEG,001,200638,
AFNE01.JPG,AFNE01.JPG,AFNE01.JPG,AFNE01.JPG,AFNE01.JPG,AFNE01.JPG,,,,,1,2,12,2,,,,,,,,,,,,,,,,,,,AFNE17.jpg,AFSA06.jpg,AFSA19.jpg,AFNE04.jpg,AFNE17.jpg,FN,3,num_8,32,num_4,0.583323230036,,,2017_Jun_29_1145,60.0133970554,MAFE4ImagesEEG,001,200638,
AFNE01.JPG,AFNE01.JPG,AFNE01.JPG,AFNE01.JPG,AFNE01.JPG,AFNE01.JPG,,,,,1,3,13,3,,,,,,,,,,,,,,,,,,,AFSA17.jpg,AFNE10.jpg,AFSA11.jpg,AFNE07.jpg,AFSA17.jpg,FS,4,num_8,16,num_8,0.833466760814,,,2017_Jun_29_1145,60.0133970554,MAFE4ImagesEEG,001,200638,
AFNE01.JPG,AFNE01.JPG,AFNE01.JPG,AFNE01.JPG,AFNE01.JPG,AFNE01.JPG,,,,,1,4,14,9,,,,,,,,,,,,,,,,,,,AFSA13.jpg,AFSA11.jpg,AFNE16.jpg,AFNE11.jpg,AFNE16.jpg,FN,3,num_2,32,num_6,0.816774851992,,,2017_Jun_29_1145,60.0133970554,MAFE4ImagesEEG,001,200638,
AFNE01.JPG,AFNE01.JPG,AFNE01.JPG,AFNE01.JPG,AFNE01.JPG,AFNE01.JPG,,,,,1,5,15,7,,,,,,,,,,,,,,,,,,,AFSA04.jpg,AFNE04.jpg,AFSA06.jpg,AFNE12.jpg,AFNE04.jpg,FN,3,num_6,16,num_6,0.866762054502,,,2017_Jun_29_1145,60.0133970554,MAFE4ImagesEEG,001,200638,
AFNE01.JPG,AFNE01.JPG,AFNE01.JPG,AFNE01.JPG,AFNE01.JPG,AFNE01.JPG,,,,,1,6,16,0,,,,,,,,,,,,,,,,,,,AFSA19.jpg,AFNE08.jpg,AFNE07.jpg,AFSA18.jpg,AFNE07.jpg,FN,3,num_2,32,num_8,0.88389401749,,,2017_Jun_29_1145,60.0133970554,MAFE4ImagesEEG,001,200638,
AFNE01.JPG,AFNE01.JPG,AFNE01.JPG,AFNE01.JPG,AFNE01.JPG,AFNE01.JPG,,,,,1,7,17,4,,,,,,,,,,,,,,,,,,,AFNE02.jpg,AFNE07.jpg,AFSA15.jpg,AFSA05.jpg,AFSA05.jpg,FS,4,num_4,16,num_4,1.33340068857,,,2017_Jun_29_1145,60.0133970554,MAFE4ImagesEEG,001,200638,
AFNE01.JPG,AFNE01.JPG,AFNE01.JPG,AFNE01.JPG,AFNE01.JPG,AFNE01.JPG,,,,,1,8,18,8,,,,,,,,,,,,,,,,,,,AFSA15.jpg,AFNE10.jpg,AFSA01.jpg,AFNE07.jpg,AFSA15.jpg,FS,4,num_8,32,num_6,0.800130091811,,,2017_Jun_29_1145,60.0133970554,MAFE4ImagesEEG,001,200638,
AFNE01.JPG,AFNE01.JPG,AFNE01.JPG,AFNE01.JPG,AFNE01.JPG,AFNE01.JPG,,,,,1,9,19,1,,,,,,,,,,,,,,,,,,,AFNE02.jpg,AFSA12.jpg,AFSA09.jpg,AFNE14.jpg,AFNE02.jpg,FN,3,num_8,32,num_2,1.03343770184,,,2017_Jun_29_1145,60.0133970554,MAFE4ImagesEEG,001,200638,
AFNE01.JPG,AFNE01.JPG,AFNE01.JPG,AFNE01.JPG,AFNE01.JPG,AFNE01.JPG,,,,,2,0,20,3,,,,,,,,,,,,,,,,,,,AFNE18.jpg,AFSA18.jpg,AFNE01.jpg,AFSA01.jpg,AFSA18.jpg,FS,4,num_6,16,num_6,0.883442737482,,,2017_Jun_29_1145,60.0133970554,MAFE4ImagesEEG,001,200638,
AFNE01.JPG,AFNE01.JPG,AFNE01.JPG,AFNE01.JPG,AFNE01.JPG,AFNE01.JPG,,,,,2,1,21,8,,,,,,,,,,,,,,,,,,,AFNE04.jpg,AFNE09.jpg,AFSA16.jpg,AFSA11.jpg,AFSA16.jpg,FS,4,num_2,16,num_2,0.716853689693,,,2017_Jun_29_1145,60.0133970554,MAFE4ImagesEEG,001,200638,
AFNE01.JPG,AFNE01.JPG,AFNE01.JPG,AFNE01.JPG,AFNE01.JPG,AFNE01.JPG,,,,,2,2,22,5,,,,,,,,,,,,,,,,,,,AFSA14.jpg,AFSA15.jpg,AFNE10.jpg,AFNE08.jpg,AFNE08.jpg,FN,3,num_4,32,num_6,1.08342618734,,,2017_Jun_29_1145,60.0133970554,MAFE4ImagesEEG,001,200638,
AFNE01.JPG,AFNE01.JPG,AFNE01.JPG,AFNE01.JPG,AFNE01.JPG,AFNE01.JPG,,,,,2,3,23,2,,,,,,,,,,,,,,,,,,,AFNE12.jpg,AFNE13.jpg,AFSA18.jpg,AFSA04.jpg,AFSA04.jpg,FS,4,num_4,32,num_8,0.933478050836,,,2017_Jun_29_1145,60.0133970554,MAFE4ImagesEEG,001,200638,
AFNE01.JPG,AFNE01.JPG,AFNE01.JPG,AFNE01.JPG,AFNE01.JPG,AFNE01.JPG,,,,,2,4,24,7,,,,,,,,,,,,,,,,,,,AFSA04.jpg,AFNE14.jpg,AFSA10.jpg,AFNE16.jpg,AFSA10.jpg,FS,4,num_2,16,num_2,0.916715258645,,,2017_Jun_29_1145,60.0133970554,MAFE4ImagesEEG,001,200638,
AFNE01.JPG,AFNE01.JPG,AFNE01.JPG,AFNE01.JPG,AFNE01.JPG,AFNE01.JPG,,,,,2,5,25,6,,,,,,,,,,,,,,,,,,,AFSA08.jpg,AFNE16.jpg,AFNE07.jpg,AFSA04.jpg,AFNE07.jpg,FN,3,num_2,16,num_2,0.550119988533,,,2017_Jun_29_1145,60.0133970554,MAFE4ImagesEEG,001,200638,
AFNE01.JPG,AFNE01.JPG,AFNE01.JPG,AFNE01.JPG,AFNE01.JPG,AFNE01.JPG,,,,,2,6,26,4,,,,,,,,,,,,,,,,,,,AFNE18.jpg,AFNE15.jpg,AFSA03.jpg,AFSA12.jpg,AFNE18.jpg,FN,3,num_8,16,num_8,0.916762407316,,,2017_Jun_29_1145,60.0133970554,MAFE4ImagesEEG,001,200638,
AFNE01.JPG,AFNE01.JPG,AFNE01.JPG,AFNE01.JPG,AFNE01.JPG,AFNE01.JPG,,,,,2,7,27,9,,,,,,,,,,,,,,,,,,,AFSA20.jpg,AFNE16.jpg,AFSA07.jpg,AFNE05.jpg,AFSA07.jpg,FS,4,num_2,16,num_2,0.450117037748,,,2017_Jun_29_1145,60.0133970554,MAFE4ImagesEEG,001,200638,
AFNE01.JPG,AFNE01.JPG,AFNE01.JPG,AFNE01.JPG,AFNE01.JPG,AFNE01.JPG,,,,,2,8,28,0,,,,,,,,,,,,,,,,,,,AFSA11.jpg,AFSA15.jpg,AFNE12.jpg,AFNE18.jpg,AFSA15.jpg,FS,4,num_6,16,num_6,0.733478243288,,,2017_Jun_29_1145,60.0133970554,MAFE4ImagesEEG,001,200638,
AFNE01.JPG,AFNE01.JPG,AFNE01.JPG,AFNE01.JPG,AFNE01.JPG,AFNE01.JPG,,,,,2,9,29,1,,,,,,,,,,,,,,,,,,,AFSA02.jpg,AFNE13.jpg,AFSA16.jpg,AFNE05.jpg,AFSA16.jpg,FS,4,num_2,16,num_2,1.15009150689,,,2017_Jun_29_1145,60.0133970554,MAFE4ImagesEEG,001,200638,
AFNE01.JPG,AFNE01.JPG,AFNE01.JPG,AFNE01.JPG,AFNE01.JPG,AFNE01.JPG,,,,,3,0,30,9,,,,,,,,,,,,,,,,,,,AFNE16.jpg,AFSA15.jpg,AFSA16.jpg,AFNE10.jpg,AFNE10.jpg,FN,3,num_4,32,num_6,1.44995025336,,,2017_Jun_29_1145,60.0133970554,MAFE4ImagesEEG,001,200638,
AFNE01.JPG,AFNE01.JPG,AFNE01.JPG,AFNE01.JPG,AFNE01.JPG,AFNE01.JPG,,,,,3,1,31,0,,,,,,,,,,,,,,,,,,,AFSA10.jpg,AFNE15.jpg,AFNE14.jpg,AFSA11.jpg,AFSA10.jpg,FS,4,num_8,32,num_2,0.933489597461,,,2017_Jun_29_1145,60.0133970554,MAFE4ImagesEEG,001,200638,
AFNE01.JPG,AFNE01.JPG,AFNE01.JPG,AFNE01.JPG,AFNE01.JPG,AFNE01.JPG,,,,,3,2,32,3,,,,,,,,,,,,,,,,,,,AFSA19.jpg,AFSA05.jpg,AFNE06.jpg,AFNE19.jpg,AFSA19.jpg,FS,4,num_8,16,num_8,1.03341140124,,,2017_Jun_29_1145,60.0133970554,MAFE4ImagesEEG,001,200638,
AFNE01.JPG,AFNE01.JPG,AFNE01.JPG,AFNE01.JPG,AFNE01.JPG,AFNE01.JPG,,,,,3,3,33,5,,,,,,,,,,,,,,,,,,,AFSA20.jpg,AFNE20.jpg,AFSA07.jpg,AFNE13.jpg,AFSA20.jpg,FS,4,num_8,32,num_2,1.38337923109,,,2017_Jun_29_1145,60.0133970554,MAFE4ImagesEEG,001,200638,
AFNE01.JPG,AFNE01.JPG,AFNE01.JPG,AFNE01.JPG,AFNE01.JPG,AFNE01.JPG,,,,,3,4,34,2,,,,,,,,,,,,,,,,,,,AFSA17.jpg,AFNE20.jpg,AFNE09.jpg,AFSA12.jpg,AFNE20.jpg,FN,3,num_6,32,num_2,1.11672757505,,,2017_Jun_29_1145,60.0133970554,MAFE4ImagesEEG,001,200638,
AFNE01.JPG,AFNE01.JPG,AFNE01.JPG,AFNE01.JPG,AFNE01.JPG,AFNE01.JPG,,,,,3,5,35,8,,,,,,,,,,,,,,,,,,,AFSA14.jpg,AFNE15.jpg,AFSA07.jpg,AFNE07.jpg,AFNE07.jpg,FN,3,num_4,16,num_4,1.18340187529,,,2017_Jun_29_1145,60.0133970554,MAFE4ImagesEEG,001,200638,
AFNE01.JPG,AFNE01.JPG,AFNE01.JPG,AFNE01.JPG,AFNE01.JPG,AFNE01.JPG,,,,,3,6,36,7,,,,,,,,,,,,,,,,,,,AFNE08.jpg,AFNE10.jpg,AFSA17.jpg,AFSA20.jpg,AFSA20.jpg,FS,4,num_4,16,num_4,1.08344895981,,,2017_Jun_29_1145,60.0133970554,MAFE4ImagesEEG,001,200638,
AFNE01.JPG,AFNE01.JPG,AFNE01.JPG,AFNE01.JPG,AFNE01.JPG,AFNE01.JPG,,,,,3,7,37,1,,,,,,,,,,,,,,,,,,,AFSA14.jpg,AFNE08.jpg,AFSA08.jpg,AFNE18.jpg,AFNE18.jpg,FN,3,num_4,32,num_6,1.13344065266,,,2017_Jun_29_1145,60.0133970554,MAFE4ImagesEEG,001,200638,
AFNE01.JPG,AFNE01.JPG,AFNE01.JPG,AFNE01.JPG,AFNE01.JPG,AFNE01.JPG,,,,,3,8,38,6,,,,,,,,,,,,,,,,,,,AFNE10.jpg,AFNE14.jpg,AFSA09.jpg,AFSA12.jpg,AFNE10.jpg,FN,3,num_8,32,num_6,1.33346451566,,,2017_Jun_29_1145,60.0133970554,MAFE4ImagesEEG,001,200638,
AFNE01.JPG,AFNE01.JPG,AFNE01.JPG,AFNE01.JPG,AFNE01.JPG,AFNE01.JPG,,,,,3,9,39,4,,,,,,,,,,,,,,,,,,,AFNE03.jpg,AFSA10.jpg,AFNE07.jpg,AFSA15.jpg,AFSA15.jpg,FS,4,num_4,16,num_4,0.516798073513,,,2017_Jun_29_1145,60.0133970554,MAFE4ImagesEEG,001,200638,
AFNE01.JPG,AFNE01.JPG,AFNE01.JPG,AFNE01.JPG,AFNE01.JPG,AFNE01.JPG,,,,,4,0,40,1,,,,,,,,,,,,,,,,,,,AFNE05.jpg,AFSA16.jpg,AFNE06.jpg,AFSA08.jpg,AFSA08.jpg,FS,4,num_4,32,num_2,1.10011520953,,,2017_Jun_29_1145,60.0133970554,MAFE4ImagesEEG,001,200638,
AFNE01.JPG,AFNE01.JPG,AFNE01.JPG,AFNE01.JPG,AFNE01.JPG,AFNE01.JPG,,,,,4,1,41,0,,,,,,,,,,,,,,,,,,,AFSA06.jpg,AFNE16.jpg,AFNE18.jpg,AFSA10.jpg,AFSA10.jpg,FS,4,num_4,16,num_4,0.766787328728,,,2017_Jun_29_1145,60.0133970554,MAFE4ImagesEEG,001,200638,
AFNE01.JPG,AFNE01.JPG,AFNE01.JPG,AFNE01.JPG,AFNE01.JPG,AFNE01.JPG,,,,,4,2,42,8,,,,,,,,,,,,,,,,,,,AFNE19.jpg,AFNE12.jpg,AFSA01.jpg,AFSA04.jpg,AFSA04.jpg,FS,4,num_4,32,num_8,1.2834105994,,,2017_Jun_29_1145,60.0133970554,MAFE4ImagesEEG,001,200638,
AFNE01.JPG,AFNE01.JPG,AFNE01.JPG,AFNE01.JPG,AFNE01.JPG,AFNE01.JPG,,,,,4,3,43,9,,,,,,,,,,,,,,,,,,,AFNE12.jpg,AFNE08.jpg,AFSA19.jpg,AFSA04.jpg,AFNE12.jpg,FN,3,num_8,16,num_8,0.96681311616,,,2017_Jun_29_1145,60.0133970554,MAFE4ImagesEEG,001,200638,
AFNE01.JPG,AFNE01.JPG,AFNE01.JPG,AFNE01.JPG,AFNE01.JPG,AFNE01.JPG,,,,,4,4,44,7,,,,,,,,,,,,,,,,,,,AFSA18.jpg,AFNE11.jpg,AFSA04.jpg,AFNE02.jpg,AFNE02.jpg,FN,3,num_4,32,num_6,1.11673655573,,,2017_Jun_29_1145,60.0133970554,MAFE4ImagesEEG,001,200638,
AFNE01.JPG,AFNE01.JPG,AFNE01.JPG,AFNE01.JPG,AFNE01.JPG,AFNE01.JPG,,,,,4,5,45,4,,,,,,,,,,,,,,,,,,,AFSA14.jpg,AFNE08.jpg,AFSA19.jpg,AFNE17.jpg,AFNE08.jpg,FN,3,num_6,16,num_6,0.533536489529,,,2017_Jun_29_1145,60.0133970554,MAFE4ImagesEEG,001,200638,
AFNE01.JPG,AFNE01.JPG,AFNE01.JPG,AFNE01.JPG,AFNE01.JPG,AFNE01.JPG,,,,,4,6,46,3,,,,,,,,,,,,,,,,,,,AFNE06.jpg,AFNE01.jpg,AFSA10.jpg,AFSA01.jpg,AFNE06.jpg,FN,3,num_8,32,num_6,1.30008550908,,,2017_Jun_29_1145,60.0133970554,MAFE4ImagesEEG,001,200638,
AFNE01.JPG,AFNE01.JPG,AFNE01.JPG,AFNE01.JPG,AFNE01.JPG,AFNE01.JPG,,,,,4,7,47,5,,,,,,,,,,,,,,,,,,,AFSA11.jpg,AFNE19.jpg,AFNE05.jpg,AFSA09.jpg,AFNE19.jpg,FN,3,num_6,16,num_6,0.916767859861,,,2017_Jun_29_1145,60.0133970554,MAFE4ImagesEEG,001,200638,
AFNE01.JPG,AFNE01.JPG,AFNE01.JPG,AFNE01.JPG,AFNE01.JPG,AFNE01.JPG,,,,,4,8,48,6,,,,,,,,,,,,,,,,,,,AFSA18.jpg,AFNE17.jpg,AFSA08.jpg,AFNE06.jpg,AFSA08.jpg,FS,4,num_2,16,num_2,0.63344257712,,,2017_Jun_29_1145,60.0133970554,MAFE4ImagesEEG,001,200638,
AFNE01.JPG,AFNE01.JPG,AFNE01.JPG,AFNE01.JPG,AFNE01.JPG,AFNE01.JPG,,,,,4,9,49,2,,,,,,,,,,,,,,,,,,,AFSA15.jpg,AFNE07.jpg,AFSA06.jpg,AFNE12.jpg,AFSA15.jpg,FS,4,num_8,32,num_4,0.483487384365,,,2017_Jun_29_1145,60.0133970554,MAFE4ImagesEEG,001,200638,
AFNE01.JPG,AFNE01.JPG,AFNE01.JPG,AFNE01.JPG,AFNE01.JPG,AFNE01.JPG,,,,,5,0,50,5,,,,,,,,,,,,,,,,,,,AFNE14.jpg,AFSA11.jpg,AFNE09.jpg,AFSA12.jpg,AFNE14.jpg,FN,3,num_8,16,num_8,0.916738993343,,,2017_Jun_29_1145,60.0133970554,MAFE4ImagesEEG,001,200638,
AFNE01.JPG,AFNE01.JPG,AFNE01.JPG,AFNE01.JPG,AFNE01.JPG,AFNE01.JPG,,,,,5,1,51,2,,,,,,,,,,,,,,,,,,,AFSA10.jpg,AFNE16.jpg,AFSA19.jpg,AFNE02.jpg,AFSA10.jpg,FS,4,num_8,16,num_8,0.983475517016,,,2017_Jun_29_1145,60.0133970554,MAFE4ImagesEEG,001,200638,
AFNE01.JPG,AFNE01.JPG,AFNE01.JPG,AFNE01.JPG,AFNE01.JPG,AFNE01.JPG,,,,,5,2,52,9,,,,,,,,,,,,,,,,,,,AFSA04.jpg,AFNE13.jpg,AFNE20.jpg,AFSA14.jpg,AFNE20.jpg,FN,3,num_2,16,num_2,0.800110526732,,,2017_Jun_29_1145,60.0133970554,MAFE4ImagesEEG,001,200638,
AFNE01.JPG,AFNE01.JPG,AFNE01.JPG,AFNE01.JPG,AFNE01.JPG,AFNE01.JPG,,,,,5,3,53,1,,,,,,,,,,,,,,,,,,,AFSA02.jpg,AFNE19.jpg,AFNE11.jpg,AFSA03.jpg,AFSA03.jpg,FS,4,num_4,32,num_6,0.750127173087,,,2017_Jun_29_1145,60.0133970554,MAFE4ImagesEEG,001,200638,
AFNE01.JPG,AFNE01.JPG,AFNE01.JPG,AFNE01.JPG,AFNE01.JPG,AFNE01.JPG,,,,,5,4,54,7,,,,,,,,,,,,,,,,,,,AFSA11.jpg,AFSA01.jpg,AFNE14.jpg,AFNE12.jpg,AFSA11.jpg,FS,4,num_8,16,num_8,1.03309130354,,,2017_Jun_29_1145,60.0133970554,MAFE4ImagesEEG,001,200638,
AFNE01.JPG,AFNE01.JPG,AFNE01.JPG,AFNE01.JPG,AFNE01.JPG,AFNE01.JPG,,,,,5,5,55,8,,,,,,,,,,,,,,,,,,,AFSA03.jpg,AFNE12.jpg,AFSA06.jpg,AFNE16.jpg,AFSA06.jpg,FS,4,num_2,32,num_6,0.900123420462,,,2017_Jun_29_1145,60.0133970554,MAFE4ImagesEEG,001,200638,
AFNE01.JPG,AFNE01.JPG,AFNE01.JPG,AFNE01.JPG,AFNE01.JPG,AFNE01.JPG,,,,,5,6,56,6,,,,,,,,,,,,,,,,,,,AFSA02.jpg,AFNE09.jpg,AFNE07.jpg,AFSA06.jpg,AFSA06.jpg,FS,4,num_4,32,num_8,0.550019917893,,,2017_Jun_29_1145,60.0133970554,MAFE4ImagesEEG,001,200638,
AFNE01.JPG,AFNE01.JPG,AFNE01.JPG,AFNE01.JPG,AFNE01.JPG,AFNE01.JPG,,,,,5,7,57,4,,,,,,,,,,,,,,,,,,,AFNE02.jpg,AFSA15.jpg,AFSA06.jpg,AFNE18.jpg,AFSA15.jpg,FS,4,num_6,16,num_6,0.816790888959,,,2017_Jun_29_1145,60.0133970554,MAFE4ImagesEEG,001,200638,
AFNE01.JPG,AFNE01.JPG,AFNE01.JPG,AFNE01.JPG,AFNE01.JPG,AFNE01.JPG,,,,,5,8,58,3,,,,,,,,,,,,,,,,,,,AFNE05.jpg,AFSA18.jpg,AFSA13.jpg,AFNE02.jpg,AFSA13.jpg,FS,4,num_2,32,num_4,1.06674646659,,,2017_Jun_29_1145,60.0133970554,MAFE4ImagesEEG,001,200638,
AFNE01.JPG,AFNE01.JPG,AFNE01.JPG,AFNE01.JPG,AFNE01.JPG,AFNE01.JPG,,,,,5,9,59,0,,,,,,,,,,,,,,,,,,,AFSA07.jpg,AFNE08.jpg,AFNE11.jpg,AFSA04.jpg,AFSA04.jpg,FS,4,num_4,32,num_6,0.450148470176,,,2017_Jun_29_1145,60.0133970554,MAFE4ImagesEEG,001,200638,
,,,,,,,,,,,,,,,,,,,,,,,,,,,,,,,,,,,,,,,,,,,space,20.3485475967,2017_Jun_29_1145,60.0133970554,MAFE4ImagesEEG,001,200638,
AFNE01.JPG,AFNE01.JPG,AFNE01.JPG,AFNE01.JPG,AFNE01.JPG,AFNE01.JPG,,,,,,,,,0,0,0,8,,,,,,,,,,,,,,,AMNE17.jpg,AMSA07.jpg,AMSA12.jpg,AMNE04.jpg,AMNE04.jpg,MN,1,num_4,32,num_6,1.03348100168,,,2017_Jun_29_1145,60.0133970554,MAFE4ImagesEEG,001,200638,
AFNE01.JPG,AFNE01.JPG,AFNE01.JPG,AFNE01.JPG,AFNE01.JPG,AFNE01.JPG,,,,,,,,,0,1,1,3,,,,,,,,,,,,,,,AMSA12.jpg,AMNE07.jpg,AMNE01.jpg,AMSA17.jpg,AMNE07.jpg,MN,1,num_6,32,num_4,0.616761573416,,,2017_Jun_29_1145,60.0133970554,MAFE4ImagesEEG,001,200638,
AFNE01.JPG,AFNE01.JPG,AFNE01.JPG,AFNE01.JPG,AFNE01.JPG,AFNE01.JPG,,,,,,,,,0,2,2,7,,,,,,,,,,,,,,,AMSA14.jpg,AMNE16.jpg,AMNE03.jpg,AMSA12.jpg,AMSA14.jpg,MS,2,num_8,32,num_6,0.950214221695,,,2017_Jun_29_1145,60.0133970554,MAFE4ImagesEEG,001,200638,
AFNE01.JPG,AFNE01.JPG,AFNE01.JPG,AFNE01.JPG,AFNE01.JPG,AFNE01.JPG,,,,,,,,,0,3,3,9,,,,,,,,,,,,,,,AMNE06.jpg,AMSA04.jpg,AMNE20.jpg,AMSA19.jpg,AMNE20.jpg,MN,1,num_2,16,num_2,0.950240201579,,,2017_Jun_29_1145,60.0133970554,MAFE4ImagesEEG,001,200638,
AFNE01.JPG,AFNE01.JPG,AFNE01.JPG,AFNE01.JPG,AFNE01.JPG,AFNE01.JPG,,,,,,,,,0,4,4,2,,,,,,,,,,,,,,,AMNE11.jpg,AMSA04.jpg,AMNE20.jpg,AMSA16.jpg,AMNE11.jpg,MN,1,num_8,16,num_8,0.633732525341,,,2017_Jun_29_1145,60.0133970554,MAFE4ImagesEEG,001,200638,
AFNE01.JPG,AFNE01.JPG,AFNE01.JPG,AFNE01.JPG,AFNE01.JPG,AFNE01.JPG,,,,,,,,,0,5,5,0,,,,,,,,,,,,,,,AMSA18.jpg,AMNE02.jpg,AMSA07.jpg,AMNE19.jpg,AMSA18.jpg,MS,2,num_8,32,num_6,0.916763369547,,,2017_Jun_29_1145,60.0133970554,MAFE4ImagesEEG,001,200638,
AFNE01.JPG,AFNE01.JPG,AFNE01.JPG,AFNE01.JPG,AFNE01.JPG,AFNE01.JPG,,,,,,,,,0,6,6,5,,,,,,,,,,,,,,,AMSA09.jpg,AMNE07.jpg,AMNE20.jpg,AMSA18.jpg,AMNE20.jpg,MN,1,num_2,16,num_2,0.683475645317,,,2017_Jun_29_1145,60.0133970554,MAFE4ImagesEEG,001,200638,
AFNE01.JPG,AFNE01.JPG,AFNE01.JPG,AFNE01.JPG,AFNE01.JPG,AFNE01.JPG,,,,,,,,,0,7,7,1,,,,,,,,,,,,,,,AMNE12.jpg,AMSA02.jpg,AMNE16.jpg,AMSA17.jpg,AMSA17.jpg,MS,2,num_4,16,num_4,0.516816997115,,,2017_Jun_29_1145,60.0133970554,MAFE4ImagesEEG,001,200638,
AFNE01.JPG,AFNE01.JPG,AFNE01.JPG,AFNE01.JPG,AFNE01.JPG,AFNE01.JPG,,,,,,,,,0,8,8,4,,,,,,,,,,,,,,,AMSA15.jpg,AMNE06.jpg,AMNE16.jpg,AMSA13.jpg,AMNE16.jpg,MN,1,num_2,16,num_2,0.566806124087,,,2017_Jun_29_1145,60.0133970554,MAFE4ImagesEEG,001,200638,
AFNE01.JPG,AFNE01.JPG,AFNE01.JPG,AFNE01.JPG,AFNE01.JPG,AFNE01.JPG,,,,,,,,,0,9,9,6,,,,,,,,,,,,,,,AMSA09.jpg,AMNE06.jpg,AMNE18.jpg,AMSA06.jpg,AMSA06.jpg,MS,2,num_4,32,num_6,0.966738704708,,,2017_Jun_29_1145,60.0133970554,MAFE4ImagesEEG,001,200638,
AFNE01.JPG,AFNE01.JPG,AFNE01.JPG,AFNE01.JPG,AFNE01.JPG,AFNE01.JPG,,,,,,,,,1,0,10,1,,,,,,,,,,,,,,,AMSA09.jpg,AMNE13.jpg,AMNE11.jpg,AMSA13.jpg,AMSA09.jpg,MS,2,num_8,32,num_6,0.433500823332,,,2017_Jun_29_1145,60.0133970554,MAFE4ImagesEEG,001,200638,
AFNE01.JPG,AFNE01.JPG,AFNE01.JPG,AFNE01.JPG,AFNE01.JPG,AFNE01.JPG,,,,,,,,,1,1,11,0,,,,,,,,,,,,,,,AMNE13.jpg,AMNE16.jpg,AMSA14.jpg,AMSA19.jpg,AMSA19.jpg,MS,2,num_4,16,num_4,0.983411369176,,,2017_Jun_29_1145,60.0133970554,MAFE4ImagesEEG,001,200638,
AFNE01.JPG,AFNE01.JPG,AFNE01.JPG,AFNE01.JPG,AFNE01.JPG,AFNE01.JPG,,,,,,,,,1,2,12,7,,,,,,,,,,,,,,,AMSA12.jpg,AMSA18.jpg,AMNE10.jpg,AMNE01.jpg,AMSA18.jpg,MS,2,num_6,16,num_6,1.06675993762,,,2017_Jun_29_1145,60.0133970554,MAFE4ImagesEEG,001,200638,
AFNE01.JPG,AFNE01.JPG,AFNE01.JPG,AFNE01.JPG,AFNE01.JPG,AFNE01.JPG,,,,,,,,,1,3,13,5,,,,,,,,,,,,,,,AMSA02.jpg,AMNE13.jpg,AMSA17.jpg,AMNE10.jpg,AMSA02.jpg,MS,2,num_8,16,num_8,0.600103662902,,,2017_Jun_29_1145,60.0133970554,MAFE4ImagesEEG,001,200638,
AFNE01.JPG,AFNE01.JPG,AFNE01.JPG,AFNE01.JPG,AFNE01.JPG,AFNE01.JPG,,,,,,,,,1,4,14,9,,,,,,,,,,,,,,,AMNE07.jpg,AMSA08.jpg,AMNE11.jpg,AMSA14.jpg,AMNE07.jpg,MN,1,num_8,32,num_6,0.733475998131,,,2017_Jun_29_1145,60.0133970554,MAFE4ImagesEEG,001,200638,
AFNE01.JPG,AFNE01.JPG,AFNE01.JPG,AFNE01.JPG,AFNE01.JPG,AFNE01.JPG,,,,,,,,,1,5,15,3,,,,,,,,,,,,,,,AMNE07.jpg,AMNE01.jpg,AMSA01.jpg,AMSA07.jpg,AMNE07.jpg,MN,1,num_8,16,num_8,0.516707945819,,,2017_Jun_29_1145,60.0133970554,MAFE4ImagesEEG,001,200638,
AFNE01.JPG,AFNE01.JPG,AFNE01.JPG,AFNE01.JPG,AFNE01.JPG,AFNE01.JPG,,,,,,,,,1,6,16,8,,,,,,,,,,,,,,,AMNE04.jpg,AMSA07.jpg,AMNE12.jpg,AMSA03.jpg,AMNE04.jpg,MN,1,num_8,32,num_2,0.733440396056,,,2017_Jun_29_1145,60.0133970554,MAFE4ImagesEEG,001,200638,
AFNE01.JPG,AFNE01.JPG,AFNE01.JPG,AFNE01.JPG,AFNE01.JPG,AFNE01.JPG,,,,,,,,,1,7,17,6,,,,,,,,,,,,,,,AMSA09.jpg,AMNE05.jpg,AMNE18.jpg,AMSA06.jpg,AMSA06.jpg,MS,2,num_4,16,num_4,0.95010260446,,,2017_Jun_29_1145,60.0133970554,MAFE4ImagesEEG,001,200638,
AFNE01.JPG,AFNE01.JPG,AFNE01.JPG,AFNE01.JPG,AFNE01.JPG,AFNE01.JPG,,,,,,,,,1,8,18,2,,,,,,,,,,,,,,,AMSA13.jpg,AMNE05.jpg,AMSA09.jpg,AMNE08.jpg,AMNE05.jpg,MN,1,num_6,32,num_8,1.40009166725,,,2017_Jun_29_1145,60.0133970554,MAFE4ImagesEEG,001,200638,
AFNE01.JPG,AFNE01.JPG,AFNE01.JPG,AFNE01.JPG,AFNE01.JPG,AFNE01.JPG,,,,,,,,,1,9,19,4,,,,,,,,,,,,,,,AMNE14.jpg,AMSA10.jpg,AMSA20.jpg,AMNE12.jpg,AMSA20.jpg,MS,2,num_2,16,num_2,0.900144589221,,,2017_Jun_29_1145,60.0133970554,MAFE4ImagesEEG,001,200638,
AFNE01.JPG,AFNE01.JPG,AFNE01.JPG,AFNE01.JPG,AFNE01.JPG,AFNE01.JPG,,,,,,,,,2,0,20,4,,,,,,,,,,,,,,,AMSA05.jpg,AMNE07.jpg,AMSA07.jpg,AMNE13.jpg,AMNE13.jpg,MN,1,num_4,32,num_6,0.500161011063,,,2017_Jun_29_1145,60.0133970554,MAFE4ImagesEEG,001,200638,
AFNE01.JPG,AFNE01.JPG,AFNE01.JPG,AFNE01.JPG,AFNE01.JPG,AFNE01.JPG,,,,,,,,,2,1,21,8,,,,,,,,,,,,,,,AMNE05.jpg,AMNE02.jpg,AMSA01.jpg,AMSA11.jpg,AMSA01.jpg,MS,2,num_2,32,num_8,1.100071589,,,2017_Jun_29_1145,60.0133970554,MAFE4ImagesEEG,001,200638,
AFNE01.JPG,AFNE01.JPG,AFNE01.JPG,AFNE01.JPG,AFNE01.JPG,AFNE01.JPG,,,,,,,,,2,2,22,9,,,,,,,,,,,,,,,AMSA17.jpg,AMNE17.jpg,AMNE15.jpg,AMSA05.jpg,AMSA05.jpg,MS,2,num_4,32,num_2,0.983490591752,,,2017_Jun_29_1145,60.0133970554,MAFE4ImagesEEG,001,200638,
AFNE01.JPG,AFNE01.JPG,AFNE01.JPG,AFNE01.JPG,AFNE01.JPG,AFNE01.JPG,,,,,,,,,2,3,23,0,,,,,,,,,,,,,,,AMSA13.jpg,AMSA05.jpg,AMNE14.jpg,AMNE07.jpg,AMNE14.jpg,MN,1,num_2,32,num_8,0.966737742478,,,2017_Jun_29_1145,60.0133970554,MAFE4ImagesEEG,001,200638,
AFNE01.JPG,AFNE01.JPG,AFNE01.JPG,AFNE01.JPG,AFNE01.JPG,AFNE01.JPG,,,,,,,,,2,4,24,3,,,,,,,,,,,,,,,AMNE09.jpg,AMSA08.jpg,AMSA16.jpg,AMNE16.jpg,AMNE16.jpg,MN,1,num_4,16,num_4,1.00010103287,,,2017_Jun_29_1145,60.0133970554,MAFE4ImagesEEG,001,200638,
AFNE01.JPG,AFNE01.JPG,AFNE01.JPG,AFNE01.JPG,AFNE01.JPG,AFNE01.JPG,,,,,,,,,2,5,25,2,,,,,,,,,,,,,,,AMSA16.jpg,AMSA09.jpg,AMNE16.jpg,AMNE08.jpg,AMNE08.jpg,MN,1,num_4,32,num_6,0.433452391735,,,2017_Jun_29_1145,60.0133970554,MAFE4ImagesEEG,001,200638,
AFNE01.JPG,AFNE01.JPG,AFNE01.JPG,AFNE01.JPG,AFNE01.JPG,AFNE01.JPG,,,,,,,,,2,6,26,7,,,,,,,,,,,,,,,AMSA01.jpg,AMNE10.jpg,AMSA05.jpg,AMNE09.jpg,AMSA05.jpg,MS,2,num_2,16,num_2,0.916787104215,,,2017_Jun_29_1145,60.0133970554,MAFE4ImagesEEG,001,200638,
AFNE01.JPG,AFNE01.JPG,AFNE01.JPG,AFNE01.JPG,AFNE01.JPG,AFNE01.JPG,,,,,,,,,2,7,27,6,,,,,,,,,,,,,,,AMNE01.jpg,AMSA07.jpg,AMSA03.jpg,AMNE15.jpg,AMSA07.jpg,MS,2,num_6,32,num_8,1.01675990556,,,2017_Jun_29_1145,60.0133970554,MAFE4ImagesEEG,001,200638,
AFNE01.JPG,AFNE01.JPG,AFNE01.JPG,AFNE01.JPG,AFNE01.JPG,AFNE01.JPG,,,,,,,,,2,8,28,5,,,,,,,,,,,,,,,AMSA18.jpg,AMNE05.jpg,AMSA16.jpg,AMNE06.jpg,AMNE05.jpg,MN,1,num_6,16,num_6,0.966754100169,,,2017_Jun_29_1145,60.0133970554,MAFE4ImagesEEG,001,200638,
AFNE01.JPG,AFNE01.JPG,AFNE01.JPG,AFNE01.JPG,AFNE01.JPG,AFNE01.JPG,,,,,,,,,2,9,29,1,,,,,,,,,,,,,,,AMSA15.jpg,AMNE16.jpg,AMNE03.jpg,AMSA07.jpg,AMNE03.jpg,MN,1,num_2,32,num_6,0.466812153958,,,2017_Jun_29_1145,60.0133970554,MAFE4ImagesEEG,001,200638,
AFNE01.JPG,AFNE01.JPG,AFNE01.JPG,AFNE01.JPG,AFNE01.JPG,AFNE01.JPG,,,,,,,,,3,0,30,0,,,,,,,,,,,,,,,AMNE06.jpg,AMNE01.jpg,AMSA17.jpg,AMSA03.jpg,AMNE06.jpg,MN,1,num_8,16,num_8,0.783307642123,,,2017_Jun_29_1145,60.0133970554,MAFE4ImagesEEG,001,200638,
AFNE01.JPG,AFNE01.JPG,AFNE01.JPG,AFNE01.JPG,AFNE01.JPG,AFNE01.JPG,,,,,,,,,3,1,31,4,,,,,,,,,,,,,,,AMNE08.jpg,AMNE13.jpg,AMSA16.jpg,AMSA05.jpg,AMSA16.jpg,MS,2,num_2,16,num_2,0.783469294664,,,2017_Jun_29_1145,60.0133970554,MAFE4ImagesEEG,001,200638,
AFNE01.JPG,AFNE01.JPG,AFNE01.JPG,AFNE01.JPG,AFNE01.JPG,AFNE01.JPG,,,,,,,,,3,2,32,8,,,,,,,,,,,,,,,AMNE10.jpg,AMNE18.jpg,AMSA09.jpg,AMSA18.jpg,AMSA09.jpg,MS,2,num_2,32,num_4,0.616828928614,,,2017_Jun_29_1145,60.0133970554,MAFE4ImagesEEG,001,200638,
AFNE01.JPG,AFNE01.JPG,AFNE01.JPG,AFNE01.JPG,AFNE01.JPG,AFNE01.JPG,,,,,,,,,3,3,33,2,,,,,,,,,,,,,,,AMSA20.jpg,AMNE16.jpg,AMNE20.jpg,AMSA02.jpg,AMSA02.jpg,MS,2,num_4,32,num_8,1.0834396584,,,2017_Jun_29_1145,60.0133970554,MAFE4ImagesEEG,001,200638,
AFNE01.JPG,AFNE01.JPG,AFNE01.JPG,AFNE01.JPG,AFNE01.JPG,AFNE01.JPG,,,,,,,,,3,4,34,1,,,,,,,,,,,,,,,AMSA18.jpg,AMSA20.jpg,AMNE07.jpg,AMNE05.jpg,AMNE07.jpg,MN,1,num_2,16,num_2,0.783437862236,,,2017_Jun_29_1145,60.0133970554,MAFE4ImagesEEG,001,200638,
AFNE01.JPG,AFNE01.JPG,AFNE01.JPG,AFNE01.JPG,AFNE01.JPG,AFNE01.JPG,,,,,,,,,3,5,35,5,,,,,,,,,,,,,,,AMNE02.jpg,AMNE13.jpg,AMSA14.jpg,AMSA18.jpg,AMNE13.jpg,MN,1,num_6,32,num_8,1.01677690473,,,2017_Jun_29_1145,60.0133970554,MAFE4ImagesEEG,001,200638,
AFNE01.JPG,AFNE01.JPG,AFNE01.JPG,AFNE01.JPG,AFNE01.JPG,AFNE01.JPG,,,,,,,,,3,6,36,3,,,,,,,,,,,,,,,AMNE04.jpg,AMSA07.jpg,AMSA02.jpg,AMNE18.jpg,AMSA07.jpg,MS,2,num_6,16,num_6,0.933500502608,,,2017_Jun_29_1145,60.0133970554,MAFE4ImagesEEG,001,200638,
AFNE01.JPG,AFNE01.JPG,AFNE01.JPG,AFNE01.JPG,AFNE01.JPG,AFNE01.JPG,,,,,,,,,3,7,37,9,,,,,,,,,,,,,,,AMSA06.jpg,AMSA07.jpg,AMNE16.jpg,AMNE18.jpg,AMNE18.jpg,MN,1,num_4,32,num_8,0.91684740319,,,2017_Jun_29_1145,60.0133970554,MAFE4ImagesEEG,001,200638,
AFNE01.JPG,AFNE01.JPG,AFNE01.JPG,AFNE01.JPG,AFNE01.JPG,AFNE01.JPG,,,,,,,,,3,8,38,6,,,,,,,,,,,,,,,AMNE10.jpg,AMNE16.jpg,AMSA14.jpg,AMSA19.jpg,AMNE10.jpg,MN,1,num_8,32,num_6,0.550144685461,,,2017_Jun_29_1145,60.0133970554,MAFE4ImagesEEG,001,200638,
AFNE01.JPG,AFNE01.JPG,AFNE01.JPG,AFNE01.JPG,AFNE01.JPG,AFNE01.JPG,,,,,,,,,3,9,39,7,,,,,,,,,,,,,,,AMNE10.jpg,AMSA08.jpg,AMSA04.jpg,AMNE14.jpg,AMNE10.jpg,MN,1,num_8,32,num_4,1.20024773895,,,2017_Jun_29_1145,60.0133970554,MAFE4ImagesEEG,001,200638,
AFNE01.JPG,AFNE01.JPG,AFNE01.JPG,AFNE01.JPG,AFNE01.JPG,AFNE01.JPG,,,,,,,,,4,0,40,4,,,,,,,,,,,,,,,AMSA20.jpg,AMNE20.jpg,AMSA17.jpg,AMNE07.jpg,AMNE07.jpg,MN,1,num_4,32,num_6,1.03344700331,,,2017_Jun_29_1145,60.0133970554,MAFE4ImagesEEG,001,200638,
AFNE01.JPG,AFNE01.JPG,AFNE01.JPG,AFNE01.JPG,AFNE01.JPG,AFNE01.JPG,,,,,,,,,4,1,41,0,,,,,,,,,,,,,,,AMNE05.jpg,AMSA13.jpg,AMNE17.jpg,AMSA08.jpg,AMNE17.jpg,MN,1,num_2,32,num_6,0.533478114987,,,2017_Jun_29_1145,60.0133970554,MAFE4ImagesEEG,001,200638,
AFNE01.JPG,AFNE01.JPG,AFNE01.JPG,AFNE01.JPG,AFNE01.JPG,AFNE01.JPG,,,,,,,,,4,2,42,7,,,,,,,,,,,,,,,AMNE17.jpg,AMSA18.jpg,AMNE09.jpg,AMSA08.jpg,AMNE09.jpg,MN,1,num_2,16,num_2,0.466782325238,,,2017_Jun_29_1145,60.0133970554,MAFE4ImagesEEG,001,200638,
AFNE01.JPG,AFNE01.JPG,AFNE01.JPG,AFNE01.JPG,AFNE01.JPG,AFNE01.JPG,,,,,,,,,4,3,43,5,,,,,,,,,,,,,,,AMNE09.jpg,AMNE02.jpg,AMSA07.jpg,AMSA14.jpg,AMSA14.jpg,MS,2,num_4,16,num_4,1.66669168434,,,2017_Jun_29_1145,60.0133970554,MAFE4ImagesEEG,001,200638,
AFNE01.JPG,AFNE01.JPG,AFNE01.JPG,AFNE01.JPG,AFNE01.JPG,AFNE01.JPG,,,,,,,,,4,4,44,9,,,,,,,,,,,,,,,AMSA03.jpg,AMNE19.jpg,AMSA09.jpg,AMNE17.jpg,AMNE19.jpg,MN,1,num_6,16,num_6,0.583489693672,,,2017_Jun_29_1145,60.0133970554,MAFE4ImagesEEG,001,200638,
AFNE01.JPG,AFNE01.JPG,AFNE01.JPG,AFNE01.JPG,AFNE01.JPG,AFNE01.JPG,,,,,,,,,4,5,45,6,,,,,,,,,,,,,,,AMNE05.jpg,AMNE10.jpg,AMSA20.jpg,AMSA10.jpg,AMNE10.jpg,MN,1,num_6,32,num_8,0.883452359645,,,2017_Jun_29_1145,60.0133970554,MAFE4ImagesEEG,001,200638,
AFNE01.JPG,AFNE01.JPG,AFNE01.JPG,AFNE01.JPG,AFNE01.JPG,AFNE01.JPG,,,,,,,,,4,6,46,8,,,,,,,,,,,,,,,AMNE07.jpg,AMNE17.jpg,AMSA11.jpg,AMSA20.jpg,AMSA11.jpg,MS,2,num_2,32,num_4,0.48347070592,,,2017_Jun_29_1145,60.0133970554,MAFE4ImagesEEG,001,200638,
AFNE01.JPG,AFNE01.JPG,AFNE01.JPG,AFNE01.JPG,AFNE01.JPG,AFNE01.JPG,,,,,,,,,4,7,47,2,,,,,,,,,,,,,,,AMNE07.jpg,AMSA20.jpg,AMNE16.jpg,AMSA08.jpg,AMNE16.jpg,MN,1,num_2,32,num_8,1.13345091633,,,2017_Jun_29_1145,60.0133970554,MAFE4ImagesEEG,001,200638,
AFNE01.JPG,AFNE01.JPG,AFNE01.JPG,AFNE01.JPG,AFNE01.JPG,AFNE01.JPG,,,,,,,,,4,8,48,1,,,,,,,,,,,,,,,AMSA17.jpg,AMNE11.jpg,AMSA14.jpg,AMNE01.jpg,AMNE11.jpg,MN,1,num_6,32,num_8,0.816855036799,,,2017_Jun_29_1145,60.0133970554,MAFE4ImagesEEG,001,200638,
AFNE01.JPG,AFNE01.JPG,AFNE01.JPG,AFNE01.JPG,AFNE01.JPG,AFNE01.JPG,,,,,,,,,4,9,49,3,,,,,,,,,,,,,,,AMNE12.jpg,AMSA17.jpg,AMNE10.jpg,AMSA04.jpg,AMNE10.jpg,MN,1,num_2,16,num_2,0.583412716282,,,2017_Jun_29_1145,60.0133970554,MAFE4ImagesEEG,001,200638,
AFNE01.JPG,AFNE01.JPG,AFNE01.JPG,AFNE01.JPG,AFNE01.JPG,AFNE01.JPG,,,,,,,,,5,0,50,3,,,,,,,,,,,,,,,AMSA16.jpg,AMNE08.jpg,AMNE14.jpg,AMSA15.jpg,AMSA15.jpg,MS,2,num_4,32,num_6,1.20015055497,,,2017_Jun_29_1145,60.0133970554,MAFE4ImagesEEG,001,200638,
AFNE01.JPG,AFNE01.JPG,AFNE01.JPG,AFNE01.JPG,AFNE01.JPG,AFNE01.JPG,,,,,,,,,5,1,51,1,,,,,,,,,,,,,,,AMNE13.jpg,AMSA18.jpg,AMNE11.jpg,AMSA13.jpg,AMSA13.jpg,MS,2,num_4,32,num_8,0.56641899189,,,2017_Jun_29_1145,60.0133970554,MAFE4ImagesEEG,001,200638,
AFNE01.JPG,AFNE01.JPG,AFNE01.JPG,AFNE01.JPG,AFNE01.JPG,AFNE01.JPG,,,,,,,,,5,2,52,2,,,,,,,,,,,,,,,AMSA15.jpg,AMSA03.jpg,AMNE04.jpg,AMNE05.jpg,AMNE05.jpg,MN,1,num_4,32,num_8,0.73349716689,,,2017_Jun_29_1145,60.0133970554,MAFE4ImagesEEG,001,200638,
AFNE01.JPG,AFNE01.JPG,AFNE01.JPG,AFNE01.JPG,AFNE01.JPG,AFNE01.JPG,,,,,,,,,5,3,53,9,,,,,,,,,,,,,,,AMNE16.jpg,AMNE10.jpg,AMSA16.jpg,AMSA18.jpg,AMSA18.jpg,MS,2,num_4,16,num_4,0.716775750072,,,2017_Jun_29_1145,60.0133970554,MAFE4ImagesEEG,001,200638,
AFNE01.JPG,AFNE01.JPG,AFNE01.JPG,AFNE01.JPG,AFNE01.JPG,AFNE01.JPG,,,,,,,,,5,4,54,4,,,,,,,,,,,,,,,AMNE10.jpg,AMSA18.jpg,AMNE07.jpg,AMSA08.jpg,AMSA18.jpg,MS,2,num_6,16,num_6,0.700149272016,,,2017_Jun_29_1145,60.0133970554,MAFE4ImagesEEG,001,200638,
AFNE01.JPG,AFNE01.JPG,AFNE01.JPG,AFNE01.JPG,AFNE01.JPG,AFNE01.JPG,,,,,,,,,5,5,55,0,,,,,,,,,,,,,,,AMNE09.jpg,AMSA02.jpg,AMSA16.jpg,AMNE12.jpg,AMNE12.jpg,MN,1,num_4,32,num_2,1.21671897924,,,2017_Jun_29_1145,60.0133970554,MAFE4ImagesEEG,001,200638,
AFNE01.JPG,AFNE01.JPG,AFNE01.JPG,AFNE01.JPG,AFNE01.JPG,AFNE01.JPG,,,,,,,,,5,6,56,6,,,,,,,,,,,,,,,AMNE14.jpg,AMSA18.jpg,AMSA20.jpg,AMNE11.jpg,AMSA18.jpg,MS,2,num_6,16,num_6,0.76672767126,,,2017_Jun_29_1145,60.0133970554,MAFE4ImagesEEG,001,200638,
AFNE01.JPG,AFNE01.JPG,AFNE01.JPG,AFNE01.JPG,AFNE01.JPG,AFNE01.JPG,,,,,,,,,5,7,57,5,,,,,,,,,,,,,,,AMNE08.jpg,AMNE14.jpg,AMSA15.jpg,AMSA11.jpg,AMNE08.jpg,MN,1,num_8,32,num_4,0.8834783395,,,2017_Jun_29_1145,60.0133970554,MAFE4ImagesEEG,001,200638,
AFNE01.JPG,AFNE01.JPG,AFNE01.JPG,AFNE01.JPG,AFNE01.JPG,AFNE01.JPG,,,,,,,,,5,8,58,7,,,,,,,,,,,,,,,AMSA18.jpg,AMSA06.jpg,AMNE03.jpg,AMNE20.jpg,AMNE03.jpg,MN,1,num_2,32,num_8,0.65013512742,,,2017_Jun_29_1145,60.0133970554,MAFE4ImagesEEG,001,200638,
AFNE01.JPG,AFNE01.JPG,AFNE01.JPG,AFNE01.JPG,AFNE01.JPG,AFNE01.JPG,,,,,,,,,5,9,59,8,,,,,,,,,,,,,,,AMSA03.jpg,AMNE04.jpg,AMSA07.jpg,AMNE05.jpg,AMSA03.jpg,MS,2,num_8,32,num_6,1.06664158488,,,2017_Jun_29_1145,60.0133970554,MAFE4ImagesEEG,001,200638,
,,,,,,,,,,,,,,,,,,,,,,,,,,,,,,,,,,,,,,,,,,,space,20.9655003307,2017_Jun_29_1145,60.0133970554,MAFE4ImagesEEG,001,200638,
AFNE01.JPG,AFNE01.JPG,AFNE01.JPG,AFNE01.JPG,AFNE01.JPG,AFNE01.JPG,,,,,,,,,,,,,0,0,0,7,,,,,,,,,,,AFNE16.jpg,AFNE06.jpg,AFSA12.jpg,AFSA14.jpg,AFNE16.jpg,FN,3,num_8,32,num_6,1.16674428555,,,2017_Jun_29_1145,60.0133970554,MAFE4ImagesEEG,001,200638,
AFNE01.JPG,AFNE01.JPG,AFNE01.JPG,AFNE01.JPG,AFNE01.JPG,AFNE01.JPG,,,,,,,,,,,,,0,1,1,0,,,,,,,,,,,AFNE12.jpg,AFSA04.jpg,AFSA14.jpg,AFNE02.jpg,AFNE12.jpg,FN,3,num_8,16,num_8,0.933427374053,,,2017_Jun_29_1145,60.0133970554,MAFE4ImagesEEG,001,200638,
AFNE01.JPG,AFNE01.JPG,AFNE01.JPG,AFNE01.JPG,AFNE01.JPG,AFNE01.JPG,,,,,,,,,,,,,0,2,2,9,,,,,,,,,,,AFNE12.jpg,AFSA10.jpg,AFNE15.jpg,AFSA19.jpg,AFSA19.jpg,FS,4,num_4,32,num_2,1.16673498412,,,2017_Jun_29_1145,60.0133970554,MAFE4ImagesEEG,001,200638,
AFNE01.JPG,AFNE01.JPG,AFNE01.JPG,AFNE01.JPG,AFNE01.JPG,AFNE01.JPG,,,,,,,,,,,,,0,3,3,2,,,,,,,,,,,AFNE11.jpg,AFSA03.jpg,AFNE16.jpg,AFSA06.jpg,AFNE11.jpg,FN,3,num_8,32,num_4,1.33342730993,,,2017_Jun_29_1145,60.0133970554,MAFE4ImagesEEG,001,200638,
AFNE01.JPG,AFNE01.JPG,AFNE01.JPG,AFNE01.JPG,AFNE01.JPG,AFNE01.JPG,,,,,,,,,,,,,0,4,4,4,,,,,,,,,,,AFNE08.jpg,AFSA18.jpg,AFNE14.jpg,AFSA04.jpg,AFSA04.jpg,FS,4,num_4,16,num_4,0.816727061843,,,2017_Jun_29_1145,60.0133970554,MAFE4ImagesEEG,001,200638,
AFNE01.JPG,AFNE01.JPG,AFNE01.JPG,AFNE01.JPG,AFNE01.JPG,AFNE01.JPG,,,,,,,,,,,,,0,5,5,1,,,,,,,,,,,AFNE18.jpg,AFSA15.jpg,AFNE07.jpg,AFSA17.jpg,AFNE07.jpg,FN,3,num_2,16,num_2,0.48350919463,,,2017_Jun_29_1145,60.0133970554,MAFE4ImagesEEG,001,200638,
AFNE01.JPG,AFNE01.JPG,AFNE01.JPG,AFNE01.JPG,AFNE01.JPG,AFNE01.JPG,,,,,,,,,,,,,0,6,6,5,,,,,,,,,,,AFNE20.jpg,AFSA04.jpg,AFNE18.jpg,AFSA06.jpg,AFNE20.jpg,FN,3,num_8,16,num_8,0.850096125534,,,2017_Jun_29_1145,60.0133970554,MAFE4ImagesEEG,001,200638,
AFNE01.JPG,AFNE01.JPG,AFNE01.JPG,AFNE01.JPG,AFNE01.JPG,AFNE01.JPG,,,,,,,,,,,,,0,7,7,6,,,,,,,,,,,AFNE11.jpg,AFNE14.jpg,AFSA02.jpg,AFSA19.jpg,AFNE14.jpg,FN,3,num_6,32,num_8,0.783424070454,,,2017_Jun_29_1145,60.0133970554,MAFE4ImagesEEG,001,200638,
AFNE01.JPG,AFNE01.JPG,AFNE01.JPG,AFNE01.JPG,AFNE01.JPG,AFNE01.JPG,,,,,,,,,,,,,0,8,8,8,,,,,,,,,,,AFSA01.jpg,AFNE18.jpg,AFNE12.jpg,AFSA09.jpg,AFNE12.jpg,FN,3,num_2,16,num_2,0.750150266307,,,2017_Jun_29_1145,60.0133970554,MAFE4ImagesEEG,001,200638,
AFNE01.JPG,AFNE01.JPG,AFNE01.JPG,AFNE01.JPG,AFNE01.JPG,AFNE01.JPG,,,,,,,,,,,,,0,9,9,3,,,,,,,,,,,AFSA02.jpg,AFNE19.jpg,AFNE11.jpg,AFSA09.jpg,AFNE11.jpg,FN,3,num_2,32,num_4,0.716762599768,,,2017_Jun_29_1145,60.0133970554,MAFE4ImagesEEG,001,200638,
AFNE01.JPG,AFNE01.JPG,AFNE01.JPG,AFNE01.JPG,AFNE01.JPG,AFNE01.JPG,,,,,,,,,,,,,1,0,10,5,,,,,,,,,,,AFSA10.jpg,AFNE01.jpg,AFSA03.jpg,AFNE10.jpg,AFNE01.jpg,FN,3,num_6,16,num_6,1.53342455157,,,2017_Jun_29_1145,60.0133970554,MAFE4ImagesEEG,001,200638,
AFNE01.JPG,AFNE01.JPG,AFNE01.JPG,AFNE01.JPG,AFNE01.JPG,AFNE01.JPG,,,,,,,,,,,,,1,1,11,4,,,,,,,,,,,AFSA01.jpg,AFSA10.jpg,AFNE17.jpg,AFNE15.jpg,AFSA01.jpg,FS,4,num_8,16,num_8,0.916667468497,,,2017_Jun_29_1145,60.0133970554,MAFE4ImagesEEG,001,200638,
AFNE01.JPG,AFNE01.JPG,AFNE01.JPG,AFNE01.JPG,AFNE01.JPG,AFNE01.JPG,,,,,,,,,,,,,1,2,12,2,,,,,,,,,,,AFNE04.jpg,AFSA04.jpg,AFNE11.jpg,AFSA13.jpg,AFNE11.jpg,FN,3,num_2,32,num_4,0.96673196918,,,2017_Jun_29_1145,60.0133970554,MAFE4ImagesEEG,001,200638,
AFNE01.JPG,AFNE01.JPG,AFNE01.JPG,AFNE01.JPG,AFNE01.JPG,AFNE01.JPG,,,,,,,,,,,,,1,3,13,7,,,,,,,,,,,AFNE17.jpg,AFSA13.jpg,AFNE16.jpg,AFSA17.jpg,AFNE16.jpg,FN,3,num_2,32,num_6,1.01673713306,,,2017_Jun_29_1145,60.0133970554,MAFE4ImagesEEG,001,200638,
AFNE01.JPG,AFNE01.JPG,AFNE01.JPG,AFNE01.JPG,AFNE01.JPG,AFNE01.JPG,,,,,,,,,,,,,1,4,14,1,,,,,,,,,,,AFSA03.jpg,AFSA18.jpg,AFNE17.jpg,AFNE15.jpg,AFSA03.jpg,FS,4,num_8,32,num_6,0.599776188174,,,2017_Jun_29_1145,60.0133970554,MAFE4ImagesEEG,001,200638,
AFNE01.JPG,AFNE01.JPG,AFNE01.JPG,AFNE01.JPG,AFNE01.JPG,AFNE01.JPG,,,,,,,,,,,,,1,5,15,6,,,,,,,,,,,AFSA08.jpg,AFSA18.jpg,AFNE02.jpg,AFNE07.jpg,AFSA08.jpg,FS,4,num_8,32,num_4,2.01662808174,,,2017_Jun_29_1145,60.0133970554,MAFE4ImagesEEG,001,200638,
AFNE01.JPG,AFNE01.JPG,AFNE01.JPG,AFNE01.JPG,AFNE01.JPG,AFNE01.JPG,,,,,,,,,,,,,1,6,16,9,,,,,,,,,,,AFSA05.jpg,AFSA13.jpg,AFNE07.jpg,AFNE19.jpg,AFSA05.jpg,FS,4,num_8,32,num_6,1.41674252148,,,2017_Jun_29_1145,60.0133970554,MAFE4ImagesEEG,001,200638,
AFNE01.JPG,AFNE01.JPG,AFNE01.JPG,AFNE01.JPG,AFNE01.JPG,AFNE01.JPG,,,,,,,,,,,,,1,7,17,0,,,,,,,,,,,AFNE08.jpg,AFSA20.jpg,AFSA02.jpg,AFNE11.jpg,AFSA20.jpg,FS,4,num_6,32,num_8,0.700112066261,,,2017_Jun_29_1145,60.0133970554,MAFE4ImagesEEG,001,200638,
AFNE01.JPG,AFNE01.JPG,AFNE01.JPG,AFNE01.JPG,AFNE01.JPG,AFNE01.JPG,,,,,,,,,,,,,1,8,18,3,,,,,,,,,,,AFNE03.jpg,AFSA14.jpg,AFNE20.jpg,AFSA01.jpg,AFNE20.jpg,FN,3,num_2,32,num_6,0.866822994925,,,2017_Jun_29_1145,60.0133970554,MAFE4ImagesEEG,001,200638,
AFNE01.JPG,AFNE01.JPG,AFNE01.JPG,AFNE01.JPG,AFNE01.JPG,AFNE01.JPG,,,,,,,,,,,,,1,9,19,8,,,,,,,,,,,AFSA12.jpg,AFSA16.jpg,AFNE09.jpg,AFNE07.jpg,AFSA16.jpg,FS,4,num_6,16,num_6,0.500235743297,,,2017_Jun_29_1145,60.0133970554,MAFE4ImagesEEG,001,200638,
AFNE01.JPG,AFNE01.JPG,AFNE01.JPG,AFNE01.JPG,AFNE01.JPG,AFNE01.JPG,,,,,,,,,,,,,2,0,20,2,,,,,,,,,,,AFNE08.jpg,AFSA19.jpg,AFNE19.jpg,AFSA15.jpg,AFSA19.jpg,FS,4,num_6,32,num_2,1.43340363936,,,2017_Jun_29_1145,60.0133970554,MAFE4ImagesEEG,001,200638,
AFNE01.JPG,AFNE01.JPG,AFNE01.JPG,AFNE01.JPG,AFNE01.JPG,AFNE01.JPG,,,,,,,,,,,,,2,1,21,0,,,,,,,,,,,AFSA07.jpg,AFSA19.jpg,AFNE05.jpg,AFNE09.jpg,AFSA07.jpg,FS,4,num_8,16,num_8,0.98350919463,,,2017_Jun_29_1145,60.0133970554,MAFE4ImagesEEG,001,200638,
AFNE01.JPG,AFNE01.JPG,AFNE01.JPG,AFNE01.JPG,AFNE01.JPG,AFNE01.JPG,,,,,,,,,,,,,2,2,22,9,,,,,,,,,,,AFNE09.jpg,AFSA06.jpg,AFNE15.jpg,AFSA17.jpg,AFSA06.jpg,FS,4,num_6,32,num_2,0.833468364523,,,2017_Jun_29_1145,60.0133970554,MAFE4ImagesEEG,001,200638,
AFNE01.JPG,AFNE01.JPG,AFNE01.JPG,AFNE01.JPG,AFNE01.JPG,AFNE01.JPG,,,,,,,,,,,,,2,3,23,6,,,,,,,,,,,AFSA04.jpg,AFNE12.jpg,AFSA19.jpg,AFNE01.jpg,AFSA04.jpg,FS,4,num_8,32,num_2,1.06676186205,,,2017_Jun_29_1145,60.0133970554,MAFE4ImagesEEG,001,200638,
AFNE01.JPG,AFNE01.JPG,AFNE01.JPG,AFNE01.JPG,AFNE01.JPG,AFNE01.JPG,,,,,,,,,,,,,2,4,24,7,,,,,,,,,,,AFSA17.jpg,AFNE05.jpg,AFNE19.jpg,AFSA08.jpg,AFSA08.jpg,FS,4,num_4,32,num_8,0.983466215577,,,2017_Jun_29_1145,60.0133970554,MAFE4ImagesEEG,001,200638,
AFNE01.JPG,AFNE01.JPG,AFNE01.JPG,AFNE01.JPG,AFNE01.JPG,AFNE01.JPG,,,,,,,,,,,,,2,5,25,5,,,,,,,,,,,AFNE17.jpg,AFSA03.jpg,AFNE18.jpg,AFSA08.jpg,AFNE18.jpg,FN,3,num_2,32,num_8,0.900117326411,,,2017_Jun_29_1145,60.0133970554,MAFE4ImagesEEG,001,200638,
AFNE01.JPG,AFNE01.JPG,AFNE01.JPG,AFNE01.JPG,AFNE01.JPG,AFNE01.JPG,,,,,,,,,,,,,2,6,26,8,,,,,,,,,,,AFSA08.jpg,AFNE15.jpg,AFNE04.jpg,AFSA12.jpg,AFSA12.jpg,FS,4,num_4,16,num_4,0.766802403494,,,2017_Jun_29_1145,60.0133970554,MAFE4ImagesEEG,001,200638,
AFNE01.JPG,AFNE01.JPG,AFNE01.JPG,AFNE01.JPG,AFNE01.JPG,AFNE01.JPG,,,,,,,,,,,,,2,7,27,1,,,,,,,,,,,AFNE01.jpg,AFSA03.jpg,AFSA18.jpg,AFNE06.jpg,AFSA18.jpg,FS,4,num_2,32,num_8,0.866631513636,,,2017_Jun_29_1145,60.0133970554,MAFE4ImagesEEG,001,200638,
AFNE01.JPG,AFNE01.JPG,AFNE01.JPG,AFNE01.JPG,AFNE01.JPG,AFNE01.JPG,,,,,,,,,,,,,2,8,28,4,,,,,,,,,,,AFNE19.jpg,AFSA08.jpg,AFSA15.jpg,AFNE08.jpg,AFNE08.jpg,FN,3,num_4,16,num_4,0.78349976489,,,2017_Jun_29_1145,60.0133970554,MAFE4ImagesEEG,001,200638,
AFNE01.JPG,AFNE01.JPG,AFNE01.JPG,AFNE01.JPG,AFNE01.JPG,AFNE01.JPG,,,,,,,,,,,,,2,9,29,3,,,,,,,,,,,AFSA17.jpg,AFNE13.jpg,AFSA15.jpg,AFNE20.jpg,AFNE13.jpg,FN,3,num_6,32,num_2,0.716846954165,,,2017_Jun_29_1145,60.0133970554,MAFE4ImagesEEG,001,200638,
AFNE01.JPG,AFNE01.JPG,AFNE01.JPG,AFNE01.JPG,AFNE01.JPG,AFNE01.JPG,,,,,,,,,,,,,3,0,30,2,,,,,,,,,,,AFSA07.jpg,AFSA17.jpg,AFNE10.jpg,AFNE04.jpg,AFSA07.jpg,FS,4,num_8,32,num_2,1.11661756152,,,2017_Jun_29_1145,60.0133970554,MAFE4ImagesEEG,001,200638,
AFNE01.JPG,AFNE01.JPG,AFNE01.JPG,AFNE01.JPG,AFNE01.JPG,AFNE01.JPG,,,,,,,,,,,,,3,1,31,9,,,,,,,,,,,AFSA02.jpg,AFNE03.jpg,AFNE07.jpg,AFSA01.jpg,AFNE03.jpg,FN,3,num_6,16,num_6,0.450527904643,,,2017_Jun_29_1145,60.0133970554,MAFE4ImagesEEG,001,200638,
AFNE01.JPG,AFNE01.JPG,AFNE01.JPG,AFNE01.JPG,AFNE01.JPG,AFNE01.JPG,,,,,,,,,,,,,3,2,32,8,,,,,,,,,,,AFSA03.jpg,AFNE14.jpg,AFSA04.jpg,AFNE08.jpg,AFNE08.jpg,FN,3,num_4,32,num_2,0.966741591343,,,2017_Jun_29_1145,60.0133970554,MAFE4ImagesEEG,001,200638,
AFNE01.JPG,AFNE01.JPG,AFNE01.JPG,AFNE01.JPG,AFNE01.JPG,AFNE01.JPG,,,,,,,,,,,,,3,3,33,4,,,,,,,,,,,AFSA18.jpg,AFSA17.jpg,AFNE08.jpg,AFNE18.jpg,AFSA18.jpg,FS,4,num_8,32,num_6,1.050105876,,,2017_Jun_29_1145,60.0133970554,MAFE4ImagesEEG,001,200638,
AFNE01.JPG,AFNE01.JPG,AFNE01.JPG,AFNE01.JPG,AFNE01.JPG,AFNE01.JPG,,,,,,,,,,,,,3,4,34,6,,,,,,,,,,,AFSA15.jpg,AFNE16.jpg,AFNE10.jpg,AFSA14.jpg,AFSA14.jpg,FS,4,num_4,32,num_8,0.500213933032,,,2017_Jun_29_1145,60.0133970554,MAFE4ImagesEEG,001,200638,
AFNE01.JPG,AFNE01.JPG,AFNE01.JPG,AFNE01.JPG,AFNE01.JPG,AFNE01.JPG,,,,,,,,,,,,,3,5,35,0,,,,,,,,,,,AFSA16.jpg,AFNE06.jpg,AFNE03.jpg,AFSA11.jpg,AFSA11.jpg,FS,4,num_4,16,num_4,0.550186060806,,,2017_Jun_29_1145,60.0133970554,MAFE4ImagesEEG,001,200638,
AFNE01.JPG,AFNE01.JPG,AFNE01.JPG,AFNE01.JPG,AFNE01.JPG,AFNE01.JPG,,,,,,,,,,,,,3,6,36,1,,,,,,,,,,,AFSA07.jpg,AFSA04.jpg,AFNE13.jpg,AFNE16.jpg,AFSA04.jpg,FS,4,num_6,16,num_6,0.750109853165,,,2017_Jun_29_1145,60.0133970554,MAFE4ImagesEEG,001,200638,
AFNE01.JPG,AFNE01.JPG,AFNE01.JPG,AFNE01.JPG,AFNE01.JPG,AFNE01.JPG,,,,,,,,,,,,,3,7,37,7,,,,,,,,,,,AFSA09.jpg,AFNE17.jpg,AFNE14.jpg,AFSA07.jpg,AFNE17.jpg,FN,3,num_6,16,num_6,0.850143274176,,,2017_Jun_29_1145,60.0133970554,MAFE4ImagesEEG,001,200638,
AFNE01.JPG,AFNE01.JPG,AFNE01.JPG,AFNE01.JPG,AFNE01.JPG,AFNE01.JPG,,,,,,,,,,,,,3,8,38,3,,,,,,,,,,,AFNE09.jpg,AFSA01.jpg,AFSA05.jpg,AFNE06.jpg,AFNE09.jpg,FN,3,num_8,32,num_4,1.2667738577,,,2017_Jun_29_1145,60.0133970554,MAFE4ImagesEEG,001,200638,
AFNE01.JPG,AFNE01.JPG,AFNE01.JPG,AFNE01.JPG,AFNE01.JPG,AFNE01.JPG,,,,,,,,,,,,,3,9,39,5,,,,,,,,,,,AFSA02.jpg,AFNE02.jpg,AFSA09.jpg,AFNE17.jpg,AFSA09.jpg,FS,4,num_2,16,num_2,0.700145743875,,,2017_Jun_29_1145,60.0133970554,MAFE4ImagesEEG,001,200638,
AFNE01.JPG,AFNE01.JPG,AFNE01.JPG,AFNE01.JPG,AFNE01.JPG,AFNE01.JPG,,,,,,,,,,,,,4,0,40,1,,,,,,,,,,,AFSA18.jpg,AFSA14.jpg,AFNE18.jpg,AFNE10.jpg,AFSA18.jpg,FS,4,num_8,32,num_6,0.683349594823,,,2017_Jun_29_1145,60.0133970554,MAFE4ImagesEEG,001,200638,
AFNE01.JPG,AFNE01.JPG,AFNE01.JPG,AFNE01.JPG,AFNE01.JPG,AFNE01.JPG,,,,,,,,,,,,,4,1,41,3,,,,,,,,,,,AFSA14.jpg,AFNE07.jpg,AFSA03.jpg,AFNE19.jpg,AFSA14.jpg,FS,4,num_8,32,num_2,1.38340938059,,,2017_Jun_29_1145,60.0133970554,MAFE4ImagesEEG,001,200638,
AFNE01.JPG,AFNE01.JPG,AFNE01.JPG,AFNE01.JPG,AFNE01.JPG,AFNE01.JPG,,,,,,,,,,,,,4,2,42,0,,,,,,,,,,,AFSA03.jpg,AFNE11.jpg,AFNE10.jpg,AFSA12.jpg,AFNE11.jpg,FN,3,num_6,32,num_8,0.650126467459,,,2017_Jun_29_1145,60.0133970554,MAFE4ImagesEEG,001,200638,
AFNE01.JPG,AFNE01.JPG,AFNE01.JPG,AFNE01.JPG,AFNE01.JPG,AFNE01.JPG,,,,,,,,,,,,,4,3,43,7,,,,,,,,,,,AFNE07.jpg,AFSA16.jpg,AFSA08.jpg,AFNE14.jpg,AFNE14.jpg,FN,3,num_4,32,num_2,1.18328608846,,,2017_Jun_29_1145,60.0133970554,MAFE4ImagesEEG,001,200638,
AFNE01.JPG,AFNE01.JPG,AFNE01.JPG,AFNE01.JPG,AFNE01.JPG,AFNE01.JPG,,,,,,,,,,,,,4,4,44,4,,,,,,,,,,,AFSA17.jpg,AFSA16.jpg,AFNE01.jpg,AFNE11.jpg,AFSA17.jpg,FS,4,num_8,16,num_8,1.63341018246,,,2017_Jun_29_1145,60.0133970554,MAFE4ImagesEEG,001,200638,
AFNE01.JPG,AFNE01.JPG,AFNE01.JPG,AFNE01.JPG,AFNE01.JPG,AFNE01.JPG,,,,,,,,,,,,,4,5,45,8,,,,,,,,,,,AFNE04.jpg,AFSA05.jpg,AFSA09.jpg,AFNE05.jpg,AFNE04.jpg,FN,3,num_8,16,num_8,0.833477986715,,,2017_Jun_29_1145,60.0133970554,MAFE4ImagesEEG,001,200638,
AFNE01.JPG,AFNE01.JPG,AFNE01.JPG,AFNE01.JPG,AFNE01.JPG,AFNE01.JPG,,,,,,,,,,,,,4,6,46,5,,,,,,,,,,,AFSA09.jpg,AFSA15.jpg,AFNE14.jpg,AFNE09.jpg,AFNE09.jpg,FN,3,num_4,32,num_2,0.833494023682,,,2017_Jun_29_1145,60.0133970554,MAFE4ImagesEEG,001,200638,
AFNE01.JPG,AFNE01.JPG,AFNE01.JPG,AFNE01.JPG,AFNE01.JPG,AFNE01.JPG,,,,,,,,,,,,,4,7,47,6,,,,,,,,,,,AFSA14.jpg,AFNE18.jpg,AFSA18.jpg,AFNE04.jpg,AFNE04.jpg,FN,3,num_4,32,num_8,0.733458036731,,,2017_Jun_29_1145,60.0133970554,MAFE4ImagesEEG,001,200638,
AFNE01.JPG,AFNE01.JPG,AFNE01.JPG,AFNE01.JPG,AFNE01.JPG,AFNE01.JPG,,,,,,,,,,,,,4,8,48,2,,,,,,,,,,,AFSA15.jpg,AFNE09.jpg,AFSA17.jpg,AFNE04.jpg,AFNE09.jpg,FN,3,num_6,32,num_4,0.61676446005,,,2017_Jun_29_1145,60.0133970554,MAFE4ImagesEEG,001,200638,
AFNE01.JPG,AFNE01.JPG,AFNE01.JPG,AFNE01.JPG,AFNE01.JPG,AFNE01.JPG,,,,,,,,,,,,,4,9,49,9,,,,,,,,,,,AFNE04.jpg,AFNE13.jpg,AFSA08.jpg,AFSA07.jpg,AFNE13.jpg,FN,3,num_6,16,num_6,0.500155558519,,,2017_Jun_29_1145,60.0133970554,MAFE4ImagesEEG,001,200638,
AFNE01.JPG,AFNE01.JPG,AFNE01.JPG,AFNE01.JPG,AFNE01.JPG,AFNE01.JPG,,,,,,,,,,,,,5,0,50,4,,,,,,,,,,,AFSA03.jpg,AFSA04.jpg,AFNE11.jpg,AFNE15.jpg,AFNE15.jpg,FN,3,num_4,16,num_4,0.500176406553,,,2017_Jun_29_1145,60.0133970554,MAFE4ImagesEEG,001,200638,
AFNE01.JPG,AFNE01.JPG,AFNE01.JPG,AFNE01.JPG,AFNE01.JPG,AFNE01.JPG,,,,,,,,,,,,,5,1,51,2,,,,,,,,,,,AFSA15.jpg,AFSA16.jpg,AFNE04.jpg,AFNE15.jpg,AFNE15.jpg,FN,3,num_4,32,num_8,0.883513300098,,,2017_Jun_29_1145,60.0133970554,MAFE4ImagesEEG,001,200638,
AFNE01.JPG,AFNE01.JPG,AFNE01.JPG,AFNE01.JPG,AFNE01.JPG,AFNE01.JPG,,,,,,,,,,,,,5,2,52,5,,,,,,,,,,,AFNE09.jpg,AFNE03.jpg,AFSA01.jpg,AFSA18.jpg,AFSA01.jpg,FS,4,num_2,32,num_8,0.650130957802,,,2017_Jun_29_1145,60.0133970554,MAFE4ImagesEEG,001,200638,
AFNE01.JPG,AFNE01.JPG,AFNE01.JPG,AFNE01.JPG,AFNE01.JPG,AFNE01.JPG,,,,,,,,,,,,,5,3,53,6,,,,,,,,,,,AFNE10.jpg,AFSA09.jpg,AFNE05.jpg,AFSA11.jpg,AFNE05.jpg,FN,3,num_2,16,num_2,0.483439914969,,,2017_Jun_29_1145,60.0133970554,MAFE4ImagesEEG,001,200638,
AFNE01.JPG,AFNE01.JPG,AFNE01.JPG,AFNE01.JPG,AFNE01.JPG,AFNE01.JPG,,,,,,,,,,,,,5,4,54,3,,,,,,,,,,,AFSA10.jpg,AFSA07.jpg,AFNE10.jpg,AFNE17.jpg,AFNE10.jpg,FN,3,num_2,32,num_8,1.90005702741,,,2017_Jun_29_1145,60.0133970554,MAFE4ImagesEEG,001,200638,
AFNE01.JPG,AFNE01.JPG,AFNE01.JPG,AFNE01.JPG,AFNE01.JPG,AFNE01.JPG,,,,,,,,,,,,,5,5,55,9,,,,,,,,,,,AFSA11.jpg,AFSA09.jpg,AFNE16.jpg,AFNE14.jpg,AFSA09.jpg,FS,4,num_6,16,num_6,1.85003903395,,,2017_Jun_29_1145,60.0133970554,MAFE4ImagesEEG,001,200638,
AFNE01.JPG,AFNE01.JPG,AFNE01.JPG,AFNE01.JPG,AFNE01.JPG,AFNE01.JPG,,,,,,,,,,,,,5,6,56,8,,,,,,,,,,,AFSA15.jpg,AFNE20.jpg,AFNE12.jpg,AFSA03.jpg,AFNE20.jpg,FN,3,num_6,16,num_6,0.833466760814,,,2017_Jun_29_1145,60.0133970554,MAFE4ImagesEEG,001,200638,
AFNE01.JPG,AFNE01.JPG,AFNE01.JPG,AFNE01.JPG,AFNE01.JPG,AFNE01.JPG,,,,,,,,,,,,,5,7,57,0,,,,,,,,,,,AFSA09.jpg,AFNE14.jpg,AFSA07.jpg,AFNE10.jpg,AFNE14.jpg,FN,3,num_6,32,num_8,0.916376558074,,,2017_Jun_29_1145,60.0133970554,MAFE4ImagesEEG,001,200638,
AFNE01.JPG,AFNE01.JPG,AFNE01.JPG,AFNE01.JPG,AFNE01.JPG,AFNE01.JPG,,,,,,,,,,,,,5,8,58,7,,,,,,,,,,,AFNE03.jpg,AFSA18.jpg,AFSA10.jpg,AFNE15.jpg,AFSA18.jpg,FS,4,num_6,16,num_6,0.816748230631,,,2017_Jun_29_1145,60.0133970554,MAFE4ImagesEEG,001,200638,
AFNE01.JPG,AFNE01.JPG,AFNE01.JPG,AFNE01.JPG,AFNE01.JPG,AFNE01.JPG,,,,,,,,,,,,,5,9,59,1,,,,,,,,,,,AFNE18.jpg,AFSA08.jpg,AFNE10.jpg,AFSA04.jpg,AFNE10.jpg,FN,3,num_2,16,num_2,0.63348106583,,,2017_Jun_29_1145,60.0133970554,MAFE4ImagesEEG,001,200638,
,,,,,,,,,,,,,,,,,,,,,,,,,,,,,,,,,,,,,,,,,,,space,40.9302969596,2017_Jun_29_1145,60.0133970554,MAFE4ImagesEEG,001,200638,
AFNE01.JPG,AFNE01.JPG,AFNE01.JPG,AFNE01.JPG,AFNE01.JPG,AFNE01.JPG,,,,,,,,,,,,,,,,,0,0,0,3,,,,,,,AMSA18.jpg,AMNE20.jpg,AMSA15.jpg,AMNE17.jpg,AMNE17.jpg,MN,1,num_4,32,num_6,0.983482573269,,,2017_Jun_29_1145,60.0133970554,MAFE4ImagesEEG,001,200638,
AFNE01.JPG,AFNE01.JPG,AFNE01.JPG,AFNE01.JPG,AFNE01.JPG,AFNE01.JPG,,,,,,,,,,,,,,,,,0,1,1,2,,,,,,,AMNE10.jpg,AMSA01.jpg,AMSA09.jpg,AMNE03.jpg,AMNE03.jpg,MN,1,num_4,16,num_4,1.15010818531,,,2017_Jun_29_1145,60.0133970554,MAFE4ImagesEEG,001,200638,
AFNE01.JPG,AFNE01.JPG,AFNE01.JPG,AFNE01.JPG,AFNE01.JPG,AFNE01.JPG,,,,,,,,,,,,,,,,,0,2,2,7,,,,,,,AMSA10.jpg,AMNE07.jpg,AMSA06.jpg,AMNE15.jpg,AMNE07.jpg,MN,1,num_6,32,num_4,1.1167336691,,,2017_Jun_29_1145,60.0133970554,MAFE4ImagesEEG,001,200638,
AFNE01.JPG,AFNE01.JPG,AFNE01.JPG,AFNE01.JPG,AFNE01.JPG,AFNE01.JPG,,,,,,,,,,,,,,,,,0,3,3,0,,,,,,,AMSA03.jpg,AMNE06.jpg,AMNE12.jpg,AMSA10.jpg,AMNE12.jpg,MN,1,num_2,32,num_6,0.800154467986,,,2017_Jun_29_1145,60.0133970554,MAFE4ImagesEEG,001,200638,
AFNE01.JPG,AFNE01.JPG,AFNE01.JPG,AFNE01.JPG,AFNE01.JPG,AFNE01.JPG,,,,,,,,,,,,,,,,,0,4,4,1,,,,,,,AMNE17.jpg,AMSA20.jpg,AMSA02.jpg,AMNE16.jpg,AMSA02.jpg,MS,2,num_2,16,num_2,0.866784826998,,,2017_Jun_29_1145,60.0133970554,MAFE4ImagesEEG,001,200638,
AFNE01.JPG,AFNE01.JPG,AFNE01.JPG,AFNE01.JPG,AFNE01.JPG,AFNE01.JPG,,,,,,,,,,,,,,,,,0,5,5,6,,,,,,,AMSA05.jpg,AMNE07.jpg,AMSA07.jpg,AMNE19.jpg,AMSA07.jpg,MS,2,num_2,32,num_8,0.716781202616,,,2017_Jun_29_1145,60.0133970554,MAFE4ImagesEEG,001,200638,
AFNE01.JPG,AFNE01.JPG,AFNE01.JPG,AFNE01.JPG,AFNE01.JPG,AFNE01.JPG,,,,,,,,,,,,,,,,,0,6,6,9,,,,,,,AMNE07.jpg,AMSA12.jpg,AMSA20.jpg,AMNE06.jpg,AMNE07.jpg,MN,1,num_8,32,num_4,0.983474554814,,,2017_Jun_29_1145,60.0133970554,MAFE4ImagesEEG,001,200638,
AFNE01.JPG,AFNE01.JPG,AFNE01.JPG,AFNE01.JPG,AFNE01.JPG,AFNE01.JPG,,,,,,,,,,,,,,,,,0,7,7,4,,,,,,,AMSA07.jpg,AMSA01.jpg,AMNE01.jpg,AMNE16.jpg,AMNE01.jpg,MN,1,num_2,16,num_2,0.683330350468,,,2017_Jun_29_1145,60.0133970554,MAFE4ImagesEEG,001,200638,
AFNE01.JPG,AFNE01.JPG,AFNE01.JPG,AFNE01.JPG,AFNE01.JPG,AFNE01.JPG,,,,,,,,,,,,,,,,,0,8,8,5,,,,,,,AMNE10.jpg,AMSA01.jpg,AMNE14.jpg,AMSA18.jpg,AMSA01.jpg,MS,2,num_6,16,num_6,0.816779663088,,,2017_Jun_29_1145,60.0133970554,MAFE4ImagesEEG,001,200638,
AFNE01.JPG,AFNE01.JPG,AFNE01.JPG,AFNE01.JPG,AFNE01.JPG,AFNE01.JPG,,,,,,,,,,,,,,,,,0,9,9,8,,,,,,,AMSA18.jpg,AMNE07.jpg,AMNE10.jpg,AMSA16.jpg,AMNE07.jpg,MN,1,num_6,32,num_2,0.833451686107,,,2017_Jun_29_1145,60.0133970554,MAFE4ImagesEEG,001,200638,
AFNE01.JPG,AFNE01.JPG,AFNE01.JPG,AFNE01.JPG,AFNE01.JPG,AFNE01.JPG,,,,,,,,,,,,,,,,,1,0,10,3,,,,,,,AMNE20.jpg,AMSA03.jpg,AMNE05.jpg,AMSA14.jpg,AMNE05.jpg,MN,1,num_2,32,num_4,1.18330501206,,,2017_Jun_29_1145,60.0133970554,MAFE4ImagesEEG,001,200638,
AFNE01.JPG,AFNE01.JPG,AFNE01.JPG,AFNE01.JPG,AFNE01.JPG,AFNE01.JPG,,,,,,,,,,,,,,,,,1,1,11,6,,,,,,,AMNE13.jpg,AMNE12.jpg,AMSA05.jpg,AMSA19.jpg,AMSA19.jpg,MS,2,num_4,32,num_6,0.733445207152,,,2017_Jun_29_1145,60.0133970554,MAFE4ImagesEEG,001,200638,
AFNE01.JPG,AFNE01.JPG,AFNE01.JPG,AFNE01.JPG,AFNE01.JPG,AFNE01.JPG,,,,,,,,,,,,,,,,,1,2,12,5,,,,,,,AMNE11.jpg,AMSA08.jpg,AMNE17.jpg,AMSA09.jpg,AMNE17.jpg,MN,1,num_2,16,num_2,0.616631353303,,,2017_Jun_29_1145,60.0133970554,MAFE4ImagesEEG,001,200638,
AFNE01.JPG,AFNE01.JPG,AFNE01.JPG,AFNE01.JPG,AFNE01.JPG,AFNE01.JPG,,,,,,,,,,,,,,,,,1,3,13,4,,,,,,,AMSA03.jpg,AMNE16.jpg,AMNE18.jpg,AMSA16.jpg,AMSA16.jpg,MS,2,num_4,32,num_2,0.950139489491,,,2017_Jun_29_1145,60.0133970554,MAFE4ImagesEEG,001,200638,
AFNE01.JPG,AFNE01.JPG,AFNE01.JPG,AFNE01.JPG,AFNE01.JPG,AFNE01.JPG,,,,,,,,,,,,,,,,,1,4,14,8,,,,,,,AMSA02.jpg,AMNE15.jpg,AMSA10.jpg,AMNE17.jpg,AMNE17.jpg,MN,1,num_4,32,num_6,0.650163673214,,,2017_Jun_29_1145,60.0133970554,MAFE4ImagesEEG,001,200638,
AFNE01.JPG,AFNE01.JPG,AFNE01.JPG,AFNE01.JPG,AFNE01.JPG,AFNE01.JPG,,,,,,,,,,,,,,,,,1,5,15,7,,,,,,,AMSA18.jpg,AMNE08.jpg,AMNE07.jpg,AMSA05.jpg,AMSA05.jpg,MS,2,num_4,32,num_2,0.833463553456,,,2017_Jun_29_1145,60.0133970554,MAFE4ImagesEEG,001,200638,
AFNE01.JPG,AFNE01.JPG,AFNE01.JPG,AFNE01.JPG,AFNE01.JPG,AFNE01.JPG,,,,,,,,,,,,,,,,,1,6,16,9,,,,,,,AMNE16.jpg,AMSA17.jpg,AMSA11.jpg,AMNE11.jpg,AMNE11.jpg,MN,1,num_4,16,num_4,1.01671436059,,,2017_Jun_29_1145,60.0133970554,MAFE4ImagesEEG,001,200638,
AFNE01.JPG,AFNE01.JPG,AFNE01.JPG,AFNE01.JPG,AFNE01.JPG,AFNE01.JPG,,,,,,,,,,,,,,,,,1,7,17,2,,,,,,,AMNE18.jpg,AMNE05.jpg,AMSA04.jpg,AMSA12.jpg,AMNE18.jpg,MN,1,num_8,32,num_6,0.53334757415,,,2017_Jun_29_1145,60.0133970554,MAFE4ImagesEEG,001,200638,
AFNE01.JPG,AFNE01.JPG,AFNE01.JPG,AFNE01.JPG,AFNE01.JPG,AFNE01.JPG,,,,,,,,,,,,,,,,,1,8,18,0,,,,,,,AMSA05.jpg,AMSA01.jpg,AMNE15.jpg,AMNE14.jpg,AMSA05.jpg,MS,2,num_8,32,num_6,1.26674210452,,,2017_Jun_29_1145,60.0133970554,MAFE4ImagesEEG,001,200638,
AFNE01.JPG,AFNE01.JPG,AFNE01.JPG,AFNE01.JPG,AFNE01.JPG,AFNE01.JPG,,,,,,,,,,,,,,,,,1,9,19,1,,,,,,,AMNE19.jpg,AMNE10.jpg,AMSA09.jpg,AMSA05.jpg,AMSA09.jpg,MS,2,num_2,16,num_2,0.533484209067,,,2017_Jun_29_1145,60.0133970554,MAFE4ImagesEEG,001,200638,
AFNE01.JPG,AFNE01.JPG,AFNE01.JPG,AFNE01.JPG,AFNE01.JPG,AFNE01.JPG,,,,,,,,,,,,,,,,,2,0,20,4,,,,,,,AMSA04.jpg,AMSA15.jpg,AMNE13.jpg,AMNE08.jpg,AMNE13.jpg,MN,1,num_2,32,num_8,1.06677629531,,,2017_Jun_29_1145,60.0133970554,MAFE4ImagesEEG,001,200638,
AFNE01.JPG,AFNE01.JPG,AFNE01.JPG,AFNE01.JPG,AFNE01.JPG,AFNE01.JPG,,,,,,,,,,,,,,,,,2,1,21,0,,,,,,,AMNE15.jpg,AMSA15.jpg,AMSA03.jpg,AMNE16.jpg,AMNE16.jpg,MN,1,num_4,32,num_2,1.41671140978,,,2017_Jun_29_1145,60.0133970554,MAFE4ImagesEEG,001,200638,
AFNE01.JPG,AFNE01.JPG,AFNE01.JPG,AFNE01.JPG,AFNE01.JPG,AFNE01.JPG,,,,,,,,,,,,,,,,,2,2,22,2,,,,,,,AMNE03.jpg,AMSA04.jpg,AMSA01.jpg,AMNE01.jpg,AMSA04.jpg,MS,2,num_6,16,num_6,0.633486839128,,,2017_Jun_29_1145,60.0133970554,MAFE4ImagesEEG,001,200638,
AFNE01.JPG,AFNE01.JPG,AFNE01.JPG,AFNE01.JPG,AFNE01.JPG,AFNE01.JPG,,,,,,,,,,,,,,,,,2,3,23,3,,,,,,,AMNE18.jpg,AMSA11.jpg,AMSA17.jpg,AMNE17.jpg,AMNE18.jpg,MN,1,num_8,32,num_6,0.583452808671,,,2017_Jun_29_1145,60.0133970554,MAFE4ImagesEEG,001,200638,
AFNE01.JPG,AFNE01.JPG,AFNE01.JPG,AFNE01.JPG,AFNE01.JPG,AFNE01.JPG,,,,,,,,,,,,,,,,,2,4,24,7,,,,,,,AMSA08.jpg,AMNE20.jpg,AMNE18.jpg,AMSA18.jpg,AMNE20.jpg,MN,1,num_6,16,num_6,0.766764876986,,,2017_Jun_29_1145,60.0133970554,MAFE4ImagesEEG,001,200638,
AFNE01.JPG,AFNE01.JPG,AFNE01.JPG,AFNE01.JPG,AFNE01.JPG,AFNE01.JPG,,,,,,,,,,,,,,,,,2,5,25,1,,,,,,,AMNE19.jpg,AMSA13.jpg,AMSA18.jpg,AMNE10.jpg,AMNE10.jpg,MN,1,num_4,16,num_4,1.5001039195,,,2017_Jun_29_1145,60.0133970554,MAFE4ImagesEEG,001,200638,
AFNE01.JPG,AFNE01.JPG,AFNE01.JPG,AFNE01.JPG,AFNE01.JPG,AFNE01.JPG,,,,,,,,,,,,,,,,,2,6,26,8,,,,,,,AMSA15.jpg,AMNE20.jpg,AMNE19.jpg,AMSA20.jpg,AMSA15.jpg,MS,2,num_8,32,num_2,1.05007989614,,,2017_Jun_29_1145,60.0133970554,MAFE4ImagesEEG,001,200638,
AFNE01.JPG,AFNE01.JPG,AFNE01.JPG,AFNE01.JPG,AFNE01.JPG,AFNE01.JPG,,,,,,,,,,,,,,,,,2,7,27,5,,,,,,,AMNE13.jpg,AMSA02.jpg,AMSA17.jpg,AMNE05.jpg,AMSA17.jpg,MS,2,num_2,32,num_8,0.833443667623,,,2017_Jun_29_1145,60.0133970554,MAFE4ImagesEEG,001,200638,
AFNE01.JPG,AFNE01.JPG,AFNE01.JPG,AFNE01.JPG,AFNE01.JPG,AFNE01.JPG,,,,,,,,,,,,,,,,,2,8,28,6,,,,,,,AMSA11.jpg,AMSA20.jpg,AMNE20.jpg,AMNE09.jpg,AMNE09.jpg,MN,1,num_4,32,num_8,1.11671699063,,,2017_Jun_29_1145,60.0133970554,MAFE4ImagesEEG,001,200638,
AFNE01.JPG,AFNE01.JPG,AFNE01.JPG,AFNE01.JPG,AFNE01.JPG,AFNE01.JPG,,,,,,,,,,,,,,,,,2,9,29,9,,,,,,,AMNE08.jpg,AMSA19.jpg,AMNE04.jpg,AMSA16.jpg,AMNE04.jpg,MN,1,num_2,32,num_6,0.800124318514,,,2017_Jun_29_1145,60.0133970554,MAFE4ImagesEEG,001,200638,
AFNE01.JPG,AFNE01.JPG,AFNE01.JPG,AFNE01.JPG,AFNE01.JPG,AFNE01.JPG,,,,,,,,,,,,,,,,,3,0,30,6,,,,,,,AMSA07.jpg,AMNE08.jpg,AMSA17.jpg,AMNE13.jpg,AMNE08.jpg,MN,1,num_6,32,num_2,1.58343324356,,,2017_Jun_29_1145,60.0133970554,MAFE4ImagesEEG,001,200638,
AFNE01.JPG,AFNE01.JPG,AFNE01.JPG,AFNE01.JPG,AFNE01.JPG,AFNE01.JPG,,,,,,,,,,,,,,,,,3,1,31,5,,,,,,,AMSA18.jpg,AMNE06.jpg,AMNE07.jpg,AMSA06.jpg,AMNE06.jpg,MN,1,num_6,32,num_2,0.550145006186,,,2017_Jun_29_1145,60.0133970554,MAFE4ImagesEEG,001,200638,
AFNE01.JPG,AFNE01.JPG,AFNE01.JPG,AFNE01.JPG,AFNE01.JPG,AFNE01.JPG,,,,,,,,,,,,,,,,,3,2,32,8,,,,,,,AMNE11.jpg,AMSA04.jpg,AMNE17.jpg,AMSA11.jpg,AMSA11.jpg,MS,2,num_4,32,num_8,1.28341765568,,,2017_Jun_29_1145,60.0133970554,MAFE4ImagesEEG,001,200638,
AFNE01.JPG,AFNE01.JPG,AFNE01.JPG,AFNE01.JPG,AFNE01.JPG,AFNE01.JPG,,,,,,,,,,,,,,,,,3,3,33,2,,,,,,,AMSA14.jpg,AMSA16.jpg,AMNE14.jpg,AMNE19.jpg,AMSA14.jpg,MS,2,num_8,32,num_2,1.883381797,,,2017_Jun_29_1145,60.0133970554,MAFE4ImagesEEG,001,200638,
AFNE01.JPG,AFNE01.JPG,AFNE01.JPG,AFNE01.JPG,AFNE01.JPG,AFNE01.JPG,,,,,,,,,,,,,,,,,3,4,34,9,,,,,,,AMNE13.jpg,AMSA13.jpg,AMNE14.jpg,AMSA12.jpg,AMSA12.jpg,MS,2,num_4,16,num_4,0.400075309561,,,2017_Jun_29_1145,60.0133970554,MAFE4ImagesEEG,001,200638,
AFNE01.JPG,AFNE01.JPG,AFNE01.JPG,AFNE01.JPG,AFNE01.JPG,AFNE01.JPG,,,,,,,,,,,,,,,,,3,5,35,7,,,,,,,AMNE17.jpg,AMSA18.jpg,AMNE13.jpg,AMSA09.jpg,AMSA18.jpg,MS,2,num_6,16,num_6,1.58339732079,,,2017_Jun_29_1145,60.0133970554,MAFE4ImagesEEG,001,200638,
AFNE01.JPG,AFNE01.JPG,AFNE01.JPG,AFNE01.JPG,AFNE01.JPG,AFNE01.JPG,,,,,,,,,,,,,,,,,3,6,36,1,,,,,,,AMNE04.jpg,AMSA18.jpg,AMNE13.jpg,AMSA14.jpg,AMNE13.jpg,MN,1,num_2,16,num_2,1.20009474637,,,2017_Jun_29_1145,60.0133970554,MAFE4ImagesEEG,001,200638,
AFNE01.JPG,AFNE01.JPG,AFNE01.JPG,AFNE01.JPG,AFNE01.JPG,AFNE01.JPG,,,,,,,,,,,,,,,,,3,7,37,4,,,,,,,AMSA01.jpg,AMNE16.jpg,AMNE08.jpg,AMSA04.jpg,AMNE16.jpg,MN,1,num_6,16,num_6,0.700141253532,,,2017_Jun_29_1145,60.0133970554,MAFE4ImagesEEG,001,200638,
AFNE01.JPG,AFNE01.JPG,AFNE01.JPG,AFNE01.JPG,AFNE01.JPG,AFNE01.JPG,,,,,,,,,,,,,,,,,3,8,38,3,,,,,,,AMNE13.jpg,AMSA15.jpg,AMSA10.jpg,AMNE08.jpg,AMNE08.jpg,MN,1,num_4,16,num_4,0.966849680437,,,2017_Jun_29_1145,60.0133970554,MAFE4ImagesEEG,001,200638,
AFNE01.JPG,AFNE01.JPG,AFNE01.JPG,AFNE01.JPG,AFNE01.JPG,AFNE01.JPG,,,,,,,,,,,,,,,,,3,9,39,0,,,,,,,AMSA16.jpg,AMNE09.jpg,AMNE13.jpg,AMSA14.jpg,AMSA16.jpg,MS,2,num_8,32,num_2,0.983404954401,,,2017_Jun_29_1145,60.0133970554,MAFE4ImagesEEG,001,200638,
AFNE01.JPG,AFNE01.JPG,AFNE01.JPG,AFNE01.JPG,AFNE01.JPG,AFNE01.JPG,,,,,,,,,,,,,,,,,4,0,40,2,,,,,,,AMSA15.jpg,AMNE10.jpg,AMNE17.jpg,AMSA19.jpg,AMNE10.jpg,MN,1,num_6,16,num_6,0.600060042372,,,2017_Jun_29_1145,60.0133970554,MAFE4ImagesEEG,001,200638,
AFNE01.JPG,AFNE01.JPG,AFNE01.JPG,AFNE01.JPG,AFNE01.JPG,AFNE01.JPG,,,,,,,,,,,,,,,,,4,1,41,4,,,,,,,AMSA05.jpg,AMNE11.jpg,AMSA08.jpg,AMNE07.jpg,AMSA05.jpg,MS,2,num_8,32,num_4,0.800143242115,,,2017_Jun_29_1145,60.0133970554,MAFE4ImagesEEG,001,200638,
AFNE01.JPG,AFNE01.JPG,AFNE01.JPG,AFNE01.JPG,AFNE01.JPG,AFNE01.JPG,,,,,,,,,,,,,,,,,4,2,42,9,,,,,,,AMNE09.jpg,AMNE01.jpg,AMSA11.jpg,AMSA18.jpg,AMSA18.jpg,MS,2,num_4,16,num_4,0.416809876711,,,2017_Jun_29_1145,60.0133970554,MAFE4ImagesEEG,001,200638,
AFNE01.JPG,AFNE01.JPG,AFNE01.JPG,AFNE01.JPG,AFNE01.JPG,AFNE01.JPG,,,,,,,,,,,,,,,,,4,3,43,1,,,,,,,AMNE04.jpg,AMSA19.jpg,AMNE02.jpg,AMSA14.jpg,AMSA14.jpg,MS,2,num_4,32,num_8,1.06674582511,,,2017_Jun_29_1145,60.0133970554,MAFE4ImagesEEG,001,200638,
AFNE01.JPG,AFNE01.JPG,AFNE01.JPG,AFNE01.JPG,AFNE01.JPG,AFNE01.JPG,,,,,,,,,,,,,,,,,4,4,44,8,,,,,,,AMSA18.jpg,AMNE07.jpg,AMSA11.jpg,AMNE09.jpg,AMNE09.jpg,MN,1,num_4,32,num_2,0.900128231529,,,2017_Jun_29_1145,60.0133970554,MAFE4ImagesEEG,001,200638,
AFNE01.JPG,AFNE01.JPG,AFNE01.JPG,AFNE01.JPG,AFNE01.JPG,AFNE01.JPG,,,,,,,,,,,,,,,,,4,5,45,5,,,,,,,AMSA16.jpg,AMNE13.jpg,AMSA19.jpg,AMNE02.jpg,AMSA19.jpg,MS,2,num_2,32,num_4,0.733450659754,,,2017_Jun_29_1145,60.0133970554,MAFE4ImagesEEG,001,200638,
AFNE01.JPG,AFNE01.JPG,AFNE01.JPG,AFNE01.JPG,AFNE01.JPG,AFNE01.JPG,,,,,,,,,,,,,,,,,4,6,46,0,,,,,,,AMSA02.jpg,AMNE14.jpg,AMNE03.jpg,AMSA20.jpg,AMNE14.jpg,MN,1,num_6,16,num_6,0.666792075703,,,2017_Jun_29_1145,60.0133970554,MAFE4ImagesEEG,001,200638,
AFNE01.JPG,AFNE01.JPG,AFNE01.JPG,AFNE01.JPG,AFNE01.JPG,AFNE01.JPG,,,,,,,,,,,,,,,,,4,7,47,6,,,,,,,AMNE12.jpg,AMNE08.jpg,AMSA09.jpg,AMSA08.jpg,AMSA09.jpg,MS,2,num_2,32,num_6,0.74999823593,,,2017_Jun_29_1145,60.0133970554,MAFE4ImagesEEG,001,200638,
AFNE01.JPG,AFNE01.JPG,AFNE01.JPG,AFNE01.JPG,AFNE01.JPG,AFNE01.JPG,,,,,,,,,,,,,,,,,4,8,48,3,,,,,,,AMNE04.jpg,AMSA02.jpg,AMNE06.jpg,AMSA12.jpg,AMNE04.jpg,MN,1,num_8,32,num_4,0.850053146482,,,2017_Jun_29_1145,60.0133970554,MAFE4ImagesEEG,001,200638,
AFNE01.JPG,AFNE01.JPG,AFNE01.JPG,AFNE01.JPG,AFNE01.JPG,AFNE01.JPG,,,,,,,,,,,,,,,,,4,9,49,7,,,,,,,AMNE05.jpg,AMNE13.jpg,AMSA02.jpg,AMSA03.jpg,AMSA03.jpg,MS,2,num_4,16,num_4,1.06679233228,,,2017_Jun_29_1145,60.0133970554,MAFE4ImagesEEG,001,200638,
AFNE01.JPG,AFNE01.JPG,AFNE01.JPG,AFNE01.JPG,AFNE01.JPG,AFNE01.JPG,,,,,,,,,,,,,,,,,5,0,50,5,,,,,,,AMNE12.jpg,AMSA07.jpg,AMNE19.jpg,AMSA13.jpg,AMSA07.jpg,MS,2,num_6,32,num_2,0.833419612172,,,2017_Jun_29_1145,60.0133970554,MAFE4ImagesEEG,001,200638,
AFNE01.JPG,AFNE01.JPG,AFNE01.JPG,AFNE01.JPG,AFNE01.JPG,AFNE01.JPG,,,,,,,,,,,,,,,,,5,1,51,1,,,,,,,AMNE15.jpg,AMSA05.jpg,AMNE09.jpg,AMSA06.jpg,AMSA05.jpg,MS,2,num_6,32,num_2,0.883513300098,,,2017_Jun_29_1145,60.0133970554,MAFE4ImagesEEG,001,200638,
AFNE01.JPG,AFNE01.JPG,AFNE01.JPG,AFNE01.JPG,AFNE01.JPG,AFNE01.JPG,,,,,,,,,,,,,,,,,5,2,52,0,,,,,,,AMNE18.jpg,AMNE19.jpg,AMSA15.jpg,AMSA06.jpg,AMSA06.jpg,MS,2,num_4,32,num_8,0.5501360255,,,2017_Jun_29_1145,60.0133970554,MAFE4ImagesEEG,001,200638,
AFNE01.JPG,AFNE01.JPG,AFNE01.JPG,AFNE01.JPG,AFNE01.JPG,AFNE01.JPG,,,,,,,,,,,,,,,,,5,3,53,2,,,,,,,AMSA03.jpg,AMNE14.jpg,AMSA10.jpg,AMNE02.jpg,AMSA03.jpg,MS,2,num_8,32,num_4,0.766784442094,,,2017_Jun_29_1145,60.0133970554,MAFE4ImagesEEG,001,200638,
AFNE01.JPG,AFNE01.JPG,AFNE01.JPG,AFNE01.JPG,AFNE01.JPG,AFNE01.JPG,,,,,,,,,,,,,,,,,5,4,54,3,,,,,,,AMNE04.jpg,AMSA19.jpg,AMSA11.jpg,AMNE15.jpg,AMNE04.jpg,MN,1,num_8,16,num_8,0.450130829529,,,2017_Jun_29_1145,60.0133970554,MAFE4ImagesEEG,001,200638,
AFNE01.JPG,AFNE01.JPG,AFNE01.JPG,AFNE01.JPG,AFNE01.JPG,AFNE01.JPG,,,,,,,,,,,,,,,,,5,5,55,7,,,,,,,AMSA13.jpg,AMNE11.jpg,AMSA03.jpg,AMNE02.jpg,AMSA03.jpg,MS,2,num_2,16,num_2,1.06673716512,,,2017_Jun_29_1145,60.0133970554,MAFE4ImagesEEG,001,200638,
AFNE01.JPG,AFNE01.JPG,AFNE01.JPG,AFNE01.JPG,AFNE01.JPG,AFNE01.JPG,,,,,,,,,,,,,,,,,5,6,56,6,,,,,,,AMNE01.jpg,AMSA18.jpg,AMNE14.jpg,AMSA09.jpg,AMSA18.jpg,MS,2,num_6,16,num_6,0.416800575273,,,2017_Jun_29_1145,60.0133970554,MAFE4ImagesEEG,001,200638,
AFNE01.JPG,AFNE01.JPG,AFNE01.JPG,AFNE01.JPG,AFNE01.JPG,AFNE01.JPG,,,,,,,,,,,,,,,,,5,7,57,9,,,,,,,AMSA17.jpg,AMNE15.jpg,AMNE05.jpg,AMSA15.jpg,AMSA15.jpg,MS,2,num_4,16,num_4,0.966767250473,,,2017_Jun_29_1145,60.0133970554,MAFE4ImagesEEG,001,200638,
AFNE01.JPG,AFNE01.JPG,AFNE01.JPG,AFNE01.JPG,AFNE01.JPG,AFNE01.JPG,,,,,,,,,,,,,,,,,5,8,58,4,,,,,,,AMNE16.jpg,AMNE09.jpg,AMSA08.jpg,AMSA10.jpg,AMSA08.jpg,MS,2,num_2,32,num_6,0.500187311671,,,2017_Jun_29_1145,60.0133970554,MAFE4ImagesEEG,001,200638,
AFNE01.JPG,AFNE01.JPG,AFNE01.JPG,AFNE01.JPG,AFNE01.JPG,AFNE01.JPG,,,,,,,,,,,,,,,,,5,9,59,8,,,,,,,AMNE03.jpg,AMSA09.jpg,AMSA19.jpg,AMNE17.jpg,AMNE17.jpg,MN,1,num_4,32,num_2,0.850099332922,,,2017_Jun_29_1145,60.0133970554,MAFE4ImagesEEG,001,200638,
,,,,,,,,,,,,,,,,,,,,,,,,,,,,,,,,,,,,,,,,,,,space,41.9968439264,2017_Jun_29_1145,60.0133970554,MAFE4ImagesEEG,001,200638,
AFNE01.JPG,AFNE01.JPG,AFNE01.JPG,AFNE01.JPG,AFNE01.JPG,AFNE01.JPG,,,,,,,,,,,,,,,,,,,,,0,0,0,1,,,AFSA06.jpg,AFSA05.jpg,AFNE20.jpg,AFNE18.jpg,AFNE18.jpg,FN,3,num_4,16,num_4,0.983418746182,,,2017_Jun_29_1145,60.0133970554,MAFE4ImagesEEG,001,200638,
AFNE01.JPG,AFNE01.JPG,AFNE01.JPG,AFNE01.JPG,AFNE01.JPG,AFNE01.JPG,,,,,,,,,,,,,,,,,,,,,0,1,1,3,,,AFSA19.jpg,AFSA11.jpg,AFNE04.jpg,AFNE14.jpg,AFNE04.jpg,FN,3,num_2,32,num_8,1.06677982345,,,2017_Jun_29_1145,60.0133970554,MAFE4ImagesEEG,001,200638,
AFNE01.JPG,AFNE01.JPG,AFNE01.JPG,AFNE01.JPG,AFNE01.JPG,AFNE01.JPG,,,,,,,,,,,,,,,,,,,,,0,2,2,7,,,AFSA11.jpg,AFNE02.jpg,AFSA10.jpg,AFNE18.jpg,AFSA10.jpg,FS,4,num_2,32,num_6,0.833446554287,,,2017_Jun_29_1145,60.0133970554,MAFE4ImagesEEG,001,200638,
AFNE01.JPG,AFNE01.JPG,AFNE01.JPG,AFNE01.JPG,AFNE01.JPG,AFNE01.JPG,,,,,,,,,,,,,,,,,,,,,0,3,3,2,,,AFNE03.jpg,AFSA20.jpg,AFNE08.jpg,AFSA16.jpg,AFNE08.jpg,FN,3,num_2,16,num_2,0.633516988601,,,2017_Jun_29_1145,60.0133970554,MAFE4ImagesEEG,001,200638,
AFNE01.JPG,AFNE01.JPG,AFNE01.JPG,AFNE01.JPG,AFNE01.JPG,AFNE01.JPG,,,,,,,,,,,,,,,,,,,,,0,4,4,9,,,AFNE01.jpg,AFNE20.jpg,AFSA19.jpg,AFSA08.jpg,AFNE20.jpg,FN,3,num_6,32,num_8,1.21670069711,,,2017_Jun_29_1145,60.0133970554,MAFE4ImagesEEG,001,200638,
AFNE01.JPG,AFNE01.JPG,AFNE01.JPG,AFNE01.JPG,AFNE01.JPG,AFNE01.JPG,,,,,,,,,,,,,,,,,,,,,0,5,5,6,,,AFSA10.jpg,AFNE16.jpg,AFNE07.jpg,AFSA15.jpg,AFSA15.jpg,FS,4,num_4,32,num_8,1.16675775658,,,2017_Jun_29_1145,60.0133970554,MAFE4ImagesEEG,001,200638,
AFNE01.JPG,AFNE01.JPG,AFNE01.JPG,AFNE01.JPG,AFNE01.JPG,AFNE01.JPG,,,,,,,,,,,,,,,,,,,,,0,6,6,8,,,AFSA20.jpg,AFSA07.jpg,AFNE08.jpg,AFNE14.jpg,AFNE08.jpg,FN,3,num_2,32,num_6,0.516797432036,,,2017_Jun_29_1145,60.0133970554,MAFE4ImagesEEG,001,200638,
AFNE01.JPG,AFNE01.JPG,AFNE01.JPG,AFNE01.JPG,AFNE01.JPG,AFNE01.JPG,,,,,,,,,,,,,,,,,,,,,0,7,7,0,,,AFNE07.jpg,AFSA12.jpg,AFSA11.jpg,AFNE01.jpg,AFNE01.jpg,FN,3,num_4,16,num_4,0.500421772042,,,2017_Jun_29_1145,60.0133970554,MAFE4ImagesEEG,001,200638,
AFNE01.JPG,AFNE01.JPG,AFNE01.JPG,AFNE01.JPG,AFNE01.JPG,AFNE01.JPG,,,,,,,,,,,,,,,,,,,,,0,8,8,4,,,AFNE13.jpg,AFSA09.jpg,AFSA06.jpg,AFNE09.jpg,AFSA06.jpg,FS,4,num_2,32,num_4,0.833441101713,,,2017_Jun_29_1145,60.0133970554,MAFE4ImagesEEG,001,200638,
AFNE01.JPG,AFNE01.JPG,AFNE01.JPG,AFNE01.JPG,AFNE01.JPG,AFNE01.JPG,,,,,,,,,,,,,,,,,,,,,0,9,9,5,,,AFSA16.jpg,AFNE16.jpg,AFSA01.jpg,AFNE05.jpg,AFNE16.jpg,FN,3,num_6,32,num_4,0.783466728783,,,2017_Jun_29_1145,60.0133970554,MAFE4ImagesEEG,001,200638,
AFNE01.JPG,AFNE01.JPG,AFNE01.JPG,AFNE01.JPG,AFNE01.JPG,AFNE01.JPG,,,,,,,,,,,,,,,,,,,,,1,0,10,2,,,AFSA02.jpg,AFNE14.jpg,AFSA07.jpg,AFNE07.jpg,AFSA02.jpg,FS,4,num_8,32,num_2,1.50005228049,,,2017_Jun_29_1145,60.0133970554,MAFE4ImagesEEG,001,200638,
AFNE01.JPG,AFNE01.JPG,AFNE01.JPG,AFNE01.JPG,AFNE01.JPG,AFNE01.JPG,,,,,,,,,,,,,,,,,,,,,1,1,11,8,,,AFNE05.jpg,AFSA05.jpg,AFNE16.jpg,AFSA20.jpg,AFSA05.jpg,FS,4,num_6,16,num_6,0.650128712645,,,2017_Jun_29_1145,60.0133970554,MAFE4ImagesEEG,001,200638,
AFNE01.JPG,AFNE01.JPG,AFNE01.JPG,AFNE01.JPG,AFNE01.JPG,AFNE01.JPG,,,,,,,,,,,,,,,,,,,,,1,2,12,1,,,AFSA14.jpg,AFNE15.jpg,AFNE06.jpg,AFSA07.jpg,AFNE15.jpg,FN,3,num_6,32,num_4,1.04998271217,,,2017_Jun_29_1145,60.0133970554,MAFE4ImagesEEG,001,200638,
AFNE01.JPG,AFNE01.JPG,AFNE01.JPG,AFNE01.JPG,AFNE01.JPG,AFNE01.JPG,,,,,,,,,,,,,,,,,,,,,1,3,13,7,,,AFNE02.jpg,AFSA06.jpg,AFNE04.jpg,AFSA17.jpg,AFNE02.jpg,FN,3,num_8,32,num_2,1.00011193796,,,2017_Jun_29_1145,60.0133970554,MAFE4ImagesEEG,001,200638,
AFNE01.JPG,AFNE01.JPG,AFNE01.JPG,AFNE01.JPG,AFNE01.JPG,AFNE01.JPG,,,,,,,,,,,,,,,,,,,,,1,4,14,4,,,AFNE07.jpg,AFSA05.jpg,AFSA13.jpg,AFNE14.jpg,AFNE07.jpg,FN,3,num_8,32,num_4,0.700127140997,,,2017_Jun_29_1145,60.0133970554,MAFE4ImagesEEG,001,200638,
AFNE01.JPG,AFNE01.JPG,AFNE01.JPG,AFNE01.JPG,AFNE01.JPG,AFNE01.JPG,,,,,,,,,,,,,,,,,,,,,1,5,15,3,,,AFNE20.jpg,AFSA19.jpg,AFSA06.jpg,AFNE05.jpg,AFNE20.jpg,FN,3,num_8,16,num_8,1.13375337337,,,2017_Jun_29_1145,60.0133970554,MAFE4ImagesEEG,001,200638,
AFNE01.JPG,AFNE01.JPG,AFNE01.JPG,AFNE01.JPG,AFNE01.JPG,AFNE01.JPG,,,,,,,,,,,,,,,,,,,,,1,6,16,6,,,AFSA11.jpg,AFSA02.jpg,AFNE17.jpg,AFNE15.jpg,AFSA11.jpg,FS,4,num_8,16,num_8,0.48353998558,,,2017_Jun_29_1145,60.0133970554,MAFE4ImagesEEG,001,200638,
AFNE01.JPG,AFNE01.JPG,AFNE01.JPG,AFNE01.JPG,AFNE01.JPG,AFNE01.JPG,,,,,,,,,,,,,,,,,,,,,1,7,17,5,,,AFNE20.jpg,AFNE05.jpg,AFSA07.jpg,AFSA13.jpg,AFSA07.jpg,FS,4,num_2,32,num_8,0.83345874236,,,2017_Jun_29_1145,60.0133970554,MAFE4ImagesEEG,001,200638,
AFNE01.JPG,AFNE01.JPG,AFNE01.JPG,AFNE01.JPG,AFNE01.JPG,AFNE01.JPG,,,,,,,,,,,,,,,,,,,,,1,8,18,0,,,AFSA16.jpg,AFNE14.jpg,AFNE08.jpg,AFSA08.jpg,AFNE14.jpg,FN,3,num_6,16,num_6,0.966741591343,,,2017_Jun_29_1145,60.0133970554,MAFE4ImagesEEG,001,200638,
AFNE01.JPG,AFNE01.JPG,AFNE01.JPG,AFNE01.JPG,AFNE01.JPG,AFNE01.JPG,,,,,,,,,,,,,,,,,,,,,1,9,19,9,,,AFNE06.jpg,AFSA20.jpg,AFSA15.jpg,AFNE18.jpg,AFSA15.jpg,FS,4,num_2,16,num_2,0.533476511308,,,2017_Jun_29_1145,60.0133970554,MAFE4ImagesEEG,001,200638,
AFNE01.JPG,AFNE01.JPG,AFNE01.JPG,AFNE01.JPG,AFNE01.JPG,AFNE01.JPG,,,,,,,,,,,,,,,,,,,,,2,0,20,3,,,AFSA05.jpg,AFNE07.jpg,AFSA09.jpg,AFNE09.jpg,AFNE07.jpg,FN,3,num_6,16,num_6,0.516794224648,,,2017_Jun_29_1145,60.0133970554,MAFE4ImagesEEG,001,200638,
AFNE01.JPG,AFNE01.JPG,AFNE01.JPG,AFNE01.JPG,AFNE01.JPG,AFNE01.JPG,,,,,,,,,,,,,,,,,,,,,2,1,21,2,,,AFNE10.jpg,AFSA03.jpg,AFSA19.jpg,AFNE13.jpg,AFSA19.jpg,FS,4,num_2,32,num_6,0.983436066075,,,2017_Jun_29_1145,60.0133970554,MAFE4ImagesEEG,001,200638,
AFNE01.JPG,AFNE01.JPG,AFNE01.JPG,AFNE01.JPG,AFNE01.JPG,AFNE01.JPG,,,,,,,,,,,,,,,,,,,,,2,2,22,9,,,AFNE09.jpg,AFSA20.jpg,AFSA10.jpg,AFNE08.jpg,AFNE08.jpg,FN,3,num_4,32,num_8,0.650138334837,,,2017_Jun_29_1145,60.0133970554,MAFE4ImagesEEG,001,200638,
AFNE01.JPG,AFNE01.JPG,AFNE01.JPG,AFNE01.JPG,AFNE01.JPG,AFNE01.JPG,,,,,,,,,,,,,,,,,,,,,2,3,23,5,,,AFNE04.jpg,AFSA08.jpg,AFSA04.jpg,AFNE19.jpg,AFNE04.jpg,FN,3,num_8,32,num_6,0.700125537318,,,2017_Jun_29_1145,60.0133970554,MAFE4ImagesEEG,001,200638,
AFNE01.JPG,AFNE01.JPG,AFNE01.JPG,AFNE01.JPG,AFNE01.JPG,AFNE01.JPG,,,,,,,,,,,,,,,,,,,,,2,4,24,8,,,AFSA18.jpg,AFSA11.jpg,AFNE11.jpg,AFNE02.jpg,AFSA18.jpg,FS,4,num_8,16,num_8,0.783145027352,,,2017_Jun_29_1145,60.0133970554,MAFE4ImagesEEG,001,200638,
AFNE01.JPG,AFNE01.JPG,AFNE01.JPG,AFNE01.JPG,AFNE01.JPG,AFNE01.JPG,,,,,,,,,,,,,,,,,,,,,2,5,25,6,,,AFSA04.jpg,AFNE18.jpg,AFNE06.jpg,AFSA15.jpg,AFNE18.jpg,FN,3,num_6,32,num_8,0.816904109874,,,2017_Jun_29_1145,60.0133970554,MAFE4ImagesEEG,001,200638,
AFNE01.JPG,AFNE01.JPG,AFNE01.JPG,AFNE01.JPG,AFNE01.JPG,AFNE01.JPG,,,,,,,,,,,,,,,,,,,,,2,6,26,4,,,AFNE03.jpg,AFSA17.jpg,AFNE12.jpg,AFSA09.jpg,AFSA09.jpg,FS,4,num_4,32,num_6,0.866763016704,,,2017_Jun_29_1145,60.0133970554,MAFE4ImagesEEG,001,200638,
AFNE01.JPG,AFNE01.JPG,AFNE01.JPG,AFNE01.JPG,AFNE01.JPG,AFNE01.JPG,,,,,,,,,,,,,,,,,,,,,2,7,27,0,,,AFSA08.jpg,AFSA14.jpg,AFNE02.jpg,AFNE18.jpg,AFSA14.jpg,FS,4,num_6,32,num_4,1.16672087161,,,2017_Jun_29_1145,60.0133970554,MAFE4ImagesEEG,001,200638,
AFNE01.JPG,AFNE01.JPG,AFNE01.JPG,AFNE01.JPG,AFNE01.JPG,AFNE01.JPG,,,,,,,,,,,,,,,,,,,,,2,8,28,1,,,AFNE08.jpg,AFSA09.jpg,AFSA19.jpg,AFNE13.jpg,AFSA19.jpg,FS,4,num_2,16,num_2,0.883493093512,,,2017_Jun_29_1145,60.0133970554,MAFE4ImagesEEG,001,200638,
AFNE01.JPG,AFNE01.JPG,AFNE01.JPG,AFNE01.JPG,AFNE01.JPG,AFNE01.JPG,,,,,,,,,,,,,,,,,,,,,2,9,29,7,,,AFNE02.jpg,AFNE18.jpg,AFSA07.jpg,AFSA18.jpg,AFSA18.jpg,FS,4,num_4,32,num_6,0.966791947401,,,2017_Jun_29_1145,60.0133970554,MAFE4ImagesEEG,001,200638,
AFNE01.JPG,AFNE01.JPG,AFNE01.JPG,AFNE01.JPG,AFNE01.JPG,AFNE01.JPG,,,,,,,,,,,,,,,,,,,,,3,0,30,1,,,AFNE07.jpg,AFSA15.jpg,AFNE14.jpg,AFSA17.jpg,AFSA17.jpg,FS,4,num_4,16,num_4,0.500191160565,,,2017_Jun_29_1145,60.0133970554,MAFE4ImagesEEG,001,200638,
AFNE01.JPG,AFNE01.JPG,AFNE01.JPG,AFNE01.JPG,AFNE01.JPG,AFNE01.JPG,,,,,,,,,,,,,,,,,,,,,3,1,31,6,,,AFSA05.jpg,AFNE07.jpg,AFSA09.jpg,AFNE17.jpg,AFNE07.jpg,FN,3,num_6,16,num_6,0.816779663088,,,2017_Jun_29_1145,60.0133970554,MAFE4ImagesEEG,001,200638,
AFNE01.JPG,AFNE01.JPG,AFNE01.JPG,AFNE01.JPG,AFNE01.JPG,AFNE01.JPG,,,,,,,,,,,,,,,,,,,,,3,2,32,4,,,AFNE11.jpg,AFSA08.jpg,AFNE14.jpg,AFSA19.jpg,AFNE11.jpg,FN,3,num_8,16,num_8,1.03343866408,,,2017_Jun_29_1145,60.0133970554,MAFE4ImagesEEG,001,200638,
AFNE01.JPG,AFNE01.JPG,AFNE01.JPG,AFNE01.JPG,AFNE01.JPG,AFNE01.JPG,,,,,,,,,,,,,,,,,,,,,3,3,33,0,,,AFSA11.jpg,AFNE01.jpg,AFSA06.jpg,AFNE10.jpg,AFSA06.jpg,FS,4,num_2,32,num_4,0.70012489584,,,2017_Jun_29_1145,60.0133970554,MAFE4ImagesEEG,001,200638,
AFNE01.JPG,AFNE01.JPG,AFNE01.JPG,AFNE01.JPG,AFNE01.JPG,AFNE01.JPG,,,,,,,,,,,,,,,,,,,,,3,4,34,9,,,AFSA06.jpg,AFSA20.jpg,AFNE15.jpg,AFNE06.jpg,AFSA06.jpg,FS,4,num_8,32,num_6,0.700132914324,,,2017_Jun_29_1145,60.0133970554,MAFE4ImagesEEG,001,200638,
AFNE01.JPG,AFNE01.JPG,AFNE01.JPG,AFNE01.JPG,AFNE01.JPG,AFNE01.JPG,,,,,,,,,,,,,,,,,,,,,3,5,35,7,,,AFSA01.jpg,AFNE01.jpg,AFSA20.jpg,AFNE10.jpg,AFSA20.jpg,FS,4,num_2,32,num_8,0.950115113286,,,2017_Jun_29_1145,60.0133970554,MAFE4ImagesEEG,001,200638,
AFNE01.JPG,AFNE01.JPG,AFNE01.JPG,AFNE01.JPG,AFNE01.JPG,AFNE01.JPG,,,,,,,,,,,,,,,,,,,,,3,6,36,5,,,AFSA09.jpg,AFNE09.jpg,AFNE15.jpg,AFSA04.jpg,AFNE15.jpg,FN,3,num_2,32,num_6,0.716818087647,,,2017_Jun_29_1145,60.0133970554,MAFE4ImagesEEG,001,200638,
AFNE01.JPG,AFNE01.JPG,AFNE01.JPG,AFNE01.JPG,AFNE01.JPG,AFNE01.JPG,,,,,,,,,,,,,,,,,,,,,3,7,37,2,,,AFSA20.jpg,AFSA19.jpg,AFNE03.jpg,AFNE16.jpg,AFSA19.jpg,FS,4,num_6,16,num_6,0.566829858755,,,2017_Jun_29_1145,60.0133970554,MAFE4ImagesEEG,001,200638,
AFNE01.JPG,AFNE01.JPG,AFNE01.JPG,AFNE01.JPG,AFNE01.JPG,AFNE01.JPG,,,,,,,,,,,,,,,,,,,,,3,8,38,3,,,AFSA18.jpg,AFNE04.jpg,AFNE18.jpg,AFSA04.jpg,AFSA04.jpg,FS,4,num_4,32,num_6,0.533518848883,,,2017_Jun_29_1145,60.0133970554,MAFE4ImagesEEG,001,200638,
