IPosition2,IPosition3,IPosition1,IPosition6,IPosition4,IPosition5,TrialsM1.thisRepN,TrialsM1.thisTrialN,TrialsM1.thisN,TrialsM1.thisIndex,TrialsF1.thisRepN,TrialsF1.thisTrialN,TrialsF1.thisN,TrialsF1.thisIndex,TrialsM2.thisRepN,TrialsM2.thisTrialN,TrialsM2.thisN,TrialsM2.thisIndex,TrialsF2.thisRepN,TrialsF2.thisTrialN,TrialsF2.thisN,TrialsF2.thisIndex,TrialsM3.thisRepN,TrialsM3.thisTrialN,TrialsM3.thisN,TrialsM3.thisIndex,TrialsF3.thisRepN,TrialsF3.thisTrialN,TrialsF3.thisN,TrialsF3.thisIndex,InstrKey_resp.keys,InstrKey_resp.rt,Image0 _Position,Image1 _Position,Image2 _Position,Image3 _Position,Center_image,condition,code,correct_answer,accuracy,Key_Resp.keys,Key_Resp.rt,BreakKey_resp.keys,BreakKey_resp.rt,date,frameRate,expName,session,participant,
,,,,,,,,,,,,,,,,,,,,,,,,,,,,,,space,9.63291956927,,,,,,,,,,,,,,2017_Jun_20_1224,60.0239302488,MAFE4ImagesEEG,001,200619,
AFSA21.JPG,AFNE22.JPG,AFNE21.JPG,AFSA23.JPG,AFSA22.JPG,AFNE23.JPG,0,0,0,0,,,,,,,,,,,,,,,,,,,,,,,AMSA14.jpg,AMNE06.jpg,AMNE19.jpg,AMSA06.jpg,AMNE19.jpg,MN,1,num_2,32,num_8,0.683446559589,,,2017_Jun_20_1224,60.0239302488,MAFE4ImagesEEG,001,200619,
AMNE23.JPG,AMNE24.JPG,AMNE22.JPG,AMSA24.JPG,AMSA22.JPG,AMSA23.JPG,0,1,1,9,,,,,,,,,,,,,,,,,,,,,,,AMSA06.jpg,AMNE08.jpg,AMSA13.jpg,AMNE19.jpg,AMNE19.jpg,MN,1,num_4,32,num_6,0.816731931758,,,2017_Jun_20_1224,60.0239302488,MAFE4ImagesEEG,001,200619,
AMSA21.JPG,AMNE22.JPG,AMNE21.JPG,AMSA23.JPG,AMSA22.JPG,AMNE23.JPG,0,2,2,1,,,,,,,,,,,,,,,,,,,,,,,AMSA05.jpg,AMSA10.jpg,AMNE20.jpg,AMNE18.jpg,AMNE18.jpg,MN,1,num_4,32,num_8,0.666766844224,,,2017_Jun_20_1224,60.0239302488,MAFE4ImagesEEG,001,200619,
AMNE22.JPG,AMSA24.JPG,AMSA22.JPG,AMNE25.JPG,AMNE24.JPG,AMSA25.JPG,0,3,3,7,,,,,,,,,,,,,,,,,,,,,,,AMNE16.jpg,AMSA12.jpg,AMNE18.jpg,AMSA07.jpg,AMSA12.jpg,MS,2,num_6,32,num_2,0.566794716404,,,2017_Jun_20_1224,60.0239302488,MAFE4ImagesEEG,001,200619,
AFNE23.JPG,AFNE24.JPG,AFNE22.JPG,AFSA24.JPG,AFSA22.JPG,AFSA23.JPG,0,4,4,8,,,,,,,,,,,,,,,,,,,,,,,AMSA03.jpg,AMSA07.jpg,AMNE01.jpg,AMNE04.jpg,AMNE04.jpg,MN,1,num_4,16,num_4,0.850152302883,,,2017_Jun_20_1224,60.0239302488,MAFE4ImagesEEG,001,200619,
AFSA25.JPG,AFNE24.JPG,AFSA24.JPG,AFNE21.JPG,AFSA21.JPG,AFNE25.JPG,0,5,5,2,,,,,,,,,,,,,,,,,,,,,,,AMSA17.jpg,AMNE05.jpg,AMNE03.jpg,AMSA06.jpg,AMSA17.jpg,MS,2,num_8,32,num_4,0.633474768489,,,2017_Jun_20_1224,60.0239302488,MAFE4ImagesEEG,001,200619,
AMSA25.JPG,AMNE24.JPG,AMSA24.JPG,AMNE26.JPG,AMSA21.JPG,AMNE25.JPG,0,6,6,3,,,,,,,,,,,,,,,,,,,,,,,AMNE19.jpg,AMNE14.jpg,AMSA14.jpg,AMSA18.jpg,AMSA14.jpg,MS,2,num_2,16,num_2,0.916682890733,,,2017_Jun_20_1224,60.0239302488,MAFE4ImagesEEG,001,200619,
AFSA21.JPG,AFNE23.JPG,AFNE21.JPG,AFSA25.JPG,AFNE25.JPG,AFSA23.JPG,0,7,7,4,,,,,,,,,,,,,,,,,,,,,,,AMSA02.jpg,AMSA08.jpg,AMNE19.jpg,AMNE14.jpg,AMNE19.jpg,MN,1,num_2,32,num_8,0.550184601452,,,2017_Jun_20_1224,60.0239302488,MAFE4ImagesEEG,001,200619,
AFNE22.JPG,AFSA24.JPG,AFSA22.JPG,AFNE25.JPG,AFNE24.JPG,AFSA25.JPG,0,8,8,6,,,,,,,,,,,,,,,,,,,,,,,AMNE07.jpg,AMSA01.jpg,AMSA04.jpg,AMNE15.jpg,AMNE07.jpg,MN,1,num_8,32,num_4,0.96677944914,,,2017_Jun_20_1224,60.0239302488,MAFE4ImagesEEG,001,200619,
AMSA21.JPG,AMNE23.JPG,AMNE21.JPG,AMSA25.JPG,AMNE25.JPG,AMSA23.JPG,0,9,9,5,,,,,,,,,,,,,,,,,,,,,,,AMSA09.jpg,AMSA16.jpg,AMNE11.jpg,AMNE18.jpg,AMNE18.jpg,MN,1,num_4,32,num_8,0.45013453404,,,2017_Jun_20_1224,60.0239302488,MAFE4ImagesEEG,001,200619,
AMNE22.JPG,AMSA24.JPG,AMSA22.JPG,AMNE25.JPG,AMNE24.JPG,AMSA25.JPG,,,,,0,0,0,7,,,,,,,,,,,,,,,,,,,AFNE14.jpg,AFSA05.jpg,AFSA17.jpg,AFNE01.jpg,AFNE01.jpg,FN,3,num_4,32,num_6,0.466816494591,,,2017_Jun_20_1224,60.0239302488,MAFE4ImagesEEG,001,200619,
AMSA21.JPG,AMNE23.JPG,AMNE21.JPG,AMSA25.JPG,AMNE25.JPG,AMSA23.JPG,,,,,0,1,1,5,,,,,,,,,,,,,,,,,,,AFSA19.jpg,AFNE18.jpg,AFNE14.jpg,AFSA07.jpg,AFNE14.jpg,FN,3,num_2,16,num_2,1.00010937208,,,2017_Jun_20_1224,60.0239302488,MAFE4ImagesEEG,001,200619,
AFNE22.JPG,AFSA24.JPG,AFSA22.JPG,AFNE25.JPG,AFNE24.JPG,AFSA25.JPG,,,,,0,2,2,6,,,,,,,,,,,,,,,,,,,AFNE10.jpg,AFNE02.jpg,AFSA16.jpg,AFSA08.jpg,AFSA08.jpg,FS,4,num_4,32,num_2,0.650153200957,,,2017_Jun_20_1224,60.0239302488,MAFE4ImagesEEG,001,200619,
AFSA21.JPG,AFNE22.JPG,AFNE21.JPG,AFSA23.JPG,AFSA22.JPG,AFNE23.JPG,,,,,0,3,3,0,,,,,,,,,,,,,,,,,,,AFSA19.jpg,AFNE07.jpg,AFNE11.jpg,AFSA16.jpg,AFNE11.jpg,FN,3,num_2,16,num_2,1.13340019679,,,2017_Jun_20_1224,60.0239302488,MAFE4ImagesEEG,001,200619,
AMSA25.JPG,AMNE24.JPG,AMSA24.JPG,AMNE26.JPG,AMSA21.JPG,AMNE25.JPG,,,,,0,4,4,3,,,,,,,,,,,,,,,,,,,AFNE11.jpg,AFNE17.jpg,AFSA05.jpg,AFSA02.jpg,AFSA02.jpg,FS,4,num_4,32,num_6,0.716769105406,,,2017_Jun_20_1224,60.0239302488,MAFE4ImagesEEG,001,200619,
AMNE23.JPG,AMNE24.JPG,AMNE22.JPG,AMSA24.JPG,AMSA22.JPG,AMSA23.JPG,,,,,0,5,5,9,,,,,,,,,,,,,,,,,,,AFNE14.jpg,AFSA20.jpg,AFSA12.jpg,AFNE17.jpg,AFNE17.jpg,FN,3,num_4,32,num_8,0.566776113468,,,2017_Jun_20_1224,60.0239302488,MAFE4ImagesEEG,001,200619,
AFSA25.JPG,AFNE24.JPG,AFSA24.JPG,AFNE21.JPG,AFSA21.JPG,AFNE25.JPG,,,,,0,6,6,2,,,,,,,,,,,,,,,,,,,AFSA20.jpg,AFNE06.jpg,AFSA19.jpg,AFNE01.jpg,AFSA19.jpg,FS,4,num_2,16,num_2,0.86677588895,,,2017_Jun_20_1224,60.0239302488,MAFE4ImagesEEG,001,200619,
AFNE23.JPG,AFNE24.JPG,AFNE22.JPG,AFSA24.JPG,AFSA22.JPG,AFSA23.JPG,,,,,0,7,7,8,,,,,,,,,,,,,,,,,,,AFNE11.jpg,AFNE01.jpg,AFSA06.jpg,AFSA02.jpg,AFSA02.jpg,FS,4,num_4,32,num_8,0.700180800632,,,2017_Jun_20_1224,60.0239302488,MAFE4ImagesEEG,001,200619,
AFSA21.JPG,AFNE23.JPG,AFNE21.JPG,AFSA25.JPG,AFNE25.JPG,AFSA23.JPG,,,,,0,8,8,4,,,,,,,,,,,,,,,,,,,AFSA01.jpg,AFSA08.jpg,AFNE16.jpg,AFNE17.jpg,AFNE16.jpg,FN,3,num_2,16,num_2,0.716780010494,,,2017_Jun_20_1224,60.0239302488,MAFE4ImagesEEG,001,200619,
AMSA21.JPG,AMNE22.JPG,AMNE21.JPG,AMSA23.JPG,AMSA22.JPG,AMNE23.JPG,,,,,0,9,9,1,,,,,,,,,,,,,,,,,,,AFSA11.jpg,AFNE17.jpg,AFSA04.jpg,AFNE12.jpg,AFNE12.jpg,FN,3,num_4,16,num_4,0.566774830688,,,2017_Jun_20_1224,60.0239302488,MAFE4ImagesEEG,001,200619,
AMSA21.JPG,AMNE22.JPG,AMNE21.JPG,AMSA23.JPG,AMSA22.JPG,AMNE23.JPG,,,,,,,,,0,0,0,1,,,,,,,,,,,,,,,AMSA02.jpg,AMNE11.jpg,AMSA13.jpg,AMNE09.jpg,AMNE11.jpg,MN,1,num_6,32,num_8,0.500004329951,,,2017_Jun_20_1224,60.0239302488,MAFE4ImagesEEG,001,200619,
AMSA21.JPG,AMNE23.JPG,AMNE21.JPG,AMSA25.JPG,AMNE25.JPG,AMSA23.JPG,,,,,,,,,0,1,1,5,,,,,,,,,,,,,,,AMSA09.jpg,AMNE03.jpg,AMNE12.jpg,AMSA04.jpg,AMSA04.jpg,MS,2,num_4,32,num_6,0.883482546429,,,2017_Jun_20_1224,60.0239302488,MAFE4ImagesEEG,001,200619,
AFSA21.JPG,AFNE22.JPG,AFNE21.JPG,AFSA23.JPG,AFSA22.JPG,AFNE23.JPG,,,,,,,,,0,2,2,0,,,,,,,,,,,,,,,AMNE19.jpg,AMSA08.jpg,AMSA06.jpg,AMNE13.jpg,AMNE19.jpg,MN,1,num_8,16,num_8,0.433496514685,,,2017_Jun_20_1224,60.0239302488,MAFE4ImagesEEG,001,200619,
AMSA25.JPG,AMNE24.JPG,AMSA24.JPG,AMNE26.JPG,AMSA21.JPG,AMNE25.JPG,,,,,,,,,0,3,3,3,,,,,,,,,,,,,,,AMNE14.jpg,AMSA06.jpg,AMNE10.jpg,AMSA12.jpg,AMNE14.jpg,MN,1,num_8,32,num_4,0.700290814159,,,2017_Jun_20_1224,60.0239302488,MAFE4ImagesEEG,001,200619,
AFSA25.JPG,AFNE24.JPG,AFSA24.JPG,AFNE21.JPG,AFSA21.JPG,AFNE25.JPG,,,,,,,,,0,4,4,2,,,,,,,,,,,,,,,AMSA15.jpg,AMNE18.jpg,AMNE09.jpg,AMSA03.jpg,AMNE09.jpg,MN,1,num_2,16,num_2,2.13340885669,,,2017_Jun_20_1224,60.0239302488,MAFE4ImagesEEG,001,200619,
AFNE22.JPG,AFSA24.JPG,AFSA22.JPG,AFNE25.JPG,AFNE24.JPG,AFSA25.JPG,,,,,,,,,0,5,5,6,,,,,,,,,,,,,,,AMNE15.jpg,AMSA19.jpg,AMNE10.jpg,AMSA10.jpg,AMNE15.jpg,MN,1,num_8,16,num_8,1.05010201107,,,2017_Jun_20_1224,60.0239302488,MAFE4ImagesEEG,001,200619,
AFSA21.JPG,AFNE23.JPG,AFNE21.JPG,AFSA25.JPG,AFNE25.JPG,AFSA23.JPG,,,,,,,,,0,6,6,4,,,,,,,,,,,,,,,AMNE20.jpg,AMNE06.jpg,AMSA19.jpg,AMSA10.jpg,AMSA19.jpg,MS,2,num_2,32,num_6,1.03343833273,,,2017_Jun_20_1224,60.0239302488,MAFE4ImagesEEG,001,200619,
AMNE22.JPG,AMSA24.JPG,AMSA22.JPG,AMNE25.JPG,AMNE24.JPG,AMSA25.JPG,,,,,,,,,0,7,7,7,,,,,,,,,,,,,,,AMSA02.jpg,AMNE19.jpg,AMSA16.jpg,AMNE08.jpg,AMNE19.jpg,MN,1,num_6,32,num_2,0.250174883055,,,2017_Jun_20_1224,60.0239302488,MAFE4ImagesEEG,001,200619,
AMNE23.JPG,AMNE24.JPG,AMNE22.JPG,AMSA24.JPG,AMSA22.JPG,AMSA23.JPG,,,,,,,,,0,8,8,9,,,,,,,,,,,,,,,AMNE05.jpg,AMSA10.jpg,AMSA19.jpg,AMNE04.jpg,AMNE05.jpg,MN,1,num_8,32,num_4,0.433443592745,,,2017_Jun_20_1224,60.0239302488,MAFE4ImagesEEG,001,200619,
AFNE23.JPG,AFNE24.JPG,AFNE22.JPG,AFSA24.JPG,AFSA22.JPG,AFSA23.JPG,,,,,,,,,0,9,9,8,,,,,,,,,,,,,,,AMNE12.jpg,AMNE04.jpg,AMSA01.jpg,AMSA03.jpg,AMSA03.jpg,MS,2,num_4,32,num_2,0.783450440504,,,2017_Jun_20_1224,60.0239302488,MAFE4ImagesEEG,001,200619,
AFNE22.JPG,AFSA24.JPG,AFSA22.JPG,AFNE25.JPG,AFNE24.JPG,AFSA25.JPG,,,,,,,,,,,,,0,0,0,6,,,,,,,,,,,AFSA17.jpg,AFSA19.jpg,AFNE20.jpg,AFNE14.jpg,AFSA17.jpg,FS,4,num_8,32,num_4,0.666781918961,,,2017_Jun_20_1224,60.0239302488,MAFE4ImagesEEG,001,200619,
AMNE23.JPG,AMNE24.JPG,AMNE22.JPG,AMSA24.JPG,AMSA22.JPG,AMSA23.JPG,,,,,,,,,,,,,0,1,1,9,,,,,,,,,,,AFNE03.jpg,AFSA09.jpg,AFSA08.jpg,AFNE05.jpg,AFNE03.jpg,FN,3,num_8,32,num_6,0.799818076775,,,2017_Jun_20_1224,60.0239302488,MAFE4ImagesEEG,001,200619,
AMNE22.JPG,AMSA24.JPG,AMSA22.JPG,AMNE25.JPG,AMNE24.JPG,AMSA25.JPG,,,,,,,,,,,,,0,2,2,7,,,,,,,,,,,AFNE15.jpg,AFSA01.jpg,AFNE17.jpg,AFSA08.jpg,AFSA08.jpg,FS,4,num_4,32,num_2,0.683487614151,,,2017_Jun_20_1224,60.0239302488,MAFE4ImagesEEG,001,200619,
AFSA25.JPG,AFNE24.JPG,AFSA24.JPG,AFNE21.JPG,AFSA21.JPG,AFNE25.JPG,,,,,,,,,,,,,0,3,3,2,,,,,,,,,,,AFNE15.jpg,AFSA20.jpg,AFSA02.jpg,AFNE13.jpg,AFSA02.jpg,FS,4,num_2,32,num_6,0.666793465498,,,2017_Jun_20_1224,60.0239302488,MAFE4ImagesEEG,001,200619,
AFSA21.JPG,AFNE22.JPG,AFNE21.JPG,AFSA23.JPG,AFSA22.JPG,AFNE23.JPG,,,,,,,,,,,,,0,4,4,0,,,,,,,,,,,AFSA04.jpg,AFSA16.jpg,AFNE06.jpg,AFNE05.jpg,AFNE06.jpg,FN,3,num_2,32,num_4,0.633481504163,,,2017_Jun_20_1224,60.0239302488,MAFE4ImagesEEG,001,200619,
AMSA25.JPG,AMNE24.JPG,AMSA24.JPG,AMNE26.JPG,AMSA21.JPG,AMNE25.JPG,,,,,,,,,,,,,0,5,5,3,,,,,,,,,,,AFNE03.jpg,AFSA07.jpg,AFNE19.jpg,AFSA04.jpg,AFNE19.jpg,FN,3,num_2,32,num_6,0.716834856896,,,2017_Jun_20_1224,60.0239302488,MAFE4ImagesEEG,001,200619,
AMSA21.JPG,AMNE23.JPG,AMNE21.JPG,AMSA25.JPG,AMNE25.JPG,AMSA23.JPG,,,,,,,,,,,,,0,6,6,5,,,,,,,,,,,AFSA08.jpg,AFSA02.jpg,AFNE06.jpg,AFNE07.jpg,AFNE07.jpg,FN,3,num_4,32,num_6,0.566780924564,,,2017_Jun_20_1224,60.0239302488,MAFE4ImagesEEG,001,200619,
AFSA21.JPG,AFNE23.JPG,AFNE21.JPG,AFSA25.JPG,AFNE25.JPG,AFSA23.JPG,,,,,,,,,,,,,0,7,7,4,,,,,,,,,,,AFSA19.jpg,AFNE12.jpg,AFNE11.jpg,AFSA15.jpg,AFSA15.jpg,FS,4,num_4,32,num_8,0.48356741399,,,2017_Jun_20_1224,60.0239302488,MAFE4ImagesEEG,001,200619,
AFNE23.JPG,AFNE24.JPG,AFNE22.JPG,AFSA24.JPG,AFSA22.JPG,AFSA23.JPG,,,,,,,,,,,,,0,8,8,8,,,,,,,,,,,AFSA08.jpg,AFNE04.jpg,AFNE14.jpg,AFSA18.jpg,AFNE04.jpg,FN,3,num_6,32,num_4,0.450199644081,,,2017_Jun_20_1224,60.0239302488,MAFE4ImagesEEG,001,200619,
AMSA21.JPG,AMNE22.JPG,AMNE21.JPG,AMSA23.JPG,AMSA22.JPG,AMNE23.JPG,,,,,,,,,,,,,0,9,9,1,,,,,,,,,,,AFSA04.jpg,AFNE03.jpg,AFNE09.jpg,AFSA19.jpg,AFSA04.jpg,FS,4,num_8,16,num_8,0.866774926777,,,2017_Jun_20_1224,60.0239302488,MAFE4ImagesEEG,001,200619,
AMSA21.JPG,AMNE22.JPG,AMNE21.JPG,AMSA23.JPG,AMSA22.JPG,AMNE23.JPG,,,,,,,,,,,,,,,,,0,0,0,1,,,,,,,AMNE08.jpg,AMSA09.jpg,AMNE16.jpg,AMSA07.jpg,AMSA09.jpg,MS,2,num_6,16,num_6,0.883470999892,,,2017_Jun_20_1224,60.0239302488,MAFE4ImagesEEG,001,200619,
AFSA21.JPG,AFNE23.JPG,AFNE21.JPG,AFSA25.JPG,AFNE25.JPG,AFSA23.JPG,,,,,,,,,,,,,,,,,0,1,1,4,,,,,,,AMSA05.jpg,AMNE04.jpg,AMNE14.jpg,AMSA18.jpg,AMSA05.jpg,MS,2,num_8,32,num_6,0.883475169539,,,2017_Jun_20_1224,60.0239302488,MAFE4ImagesEEG,001,200619,
AFNE22.JPG,AFSA24.JPG,AFSA22.JPG,AFNE25.JPG,AFNE24.JPG,AFSA25.JPG,,,,,,,,,,,,,,,,,0,2,2,6,,,,,,,AMSA14.jpg,AMNE02.jpg,AMSA12.jpg,AMNE11.jpg,AMSA12.jpg,MS,2,num_2,32,num_4,0.616791525041,,,2017_Jun_20_1224,60.0239302488,MAFE4ImagesEEG,001,200619,
AMSA25.JPG,AMNE24.JPG,AMSA24.JPG,AMNE26.JPG,AMSA21.JPG,AMNE25.JPG,,,,,,,,,,,,,,,,,0,3,3,3,,,,,,,AMNE06.jpg,AMSA04.jpg,AMSA16.jpg,AMNE13.jpg,AMSA16.jpg,MS,2,num_2,32,num_6,0.916451317025,,,2017_Jun_20_1224,60.0239302488,MAFE4ImagesEEG,001,200619,
AMNE23.JPG,AMNE24.JPG,AMNE22.JPG,AMSA24.JPG,AMSA22.JPG,AMSA23.JPG,,,,,,,,,,,,,,,,,0,4,4,9,,,,,,,AMSA05.jpg,AMSA06.jpg,AMNE14.jpg,AMNE08.jpg,AMNE14.jpg,MN,1,num_2,16,num_2,0.850145246717,,,2017_Jun_20_1224,60.0239302488,MAFE4ImagesEEG,001,200619,
AMNE22.JPG,AMSA24.JPG,AMSA22.JPG,AMNE25.JPG,AMNE24.JPG,AMSA25.JPG,,,,,,,,,,,,,,,,,0,5,5,7,,,,,,,AMNE07.jpg,AMSA11.jpg,AMSA18.jpg,AMNE04.jpg,AMNE07.jpg,MN,1,num_8,32,num_6,0.983490596991,,,2017_Jun_20_1224,60.0239302488,MAFE4ImagesEEG,001,200619,
AFSA21.JPG,AFNE22.JPG,AFNE21.JPG,AFSA23.JPG,AFSA22.JPG,AFNE23.JPG,,,,,,,,,,,,,,,,,0,6,6,0,,,,,,,AMNE02.jpg,AMNE19.jpg,AMSA19.jpg,AMSA01.jpg,AMSA01.jpg,MS,2,num_4,16,num_4,1.31676673191,,,2017_Jun_20_1224,60.0239302488,MAFE4ImagesEEG,001,200619,
AFSA25.JPG,AFNE24.JPG,AFSA24.JPG,AFNE21.JPG,AFSA21.JPG,AFNE25.JPG,,,,,,,,,,,,,,,,,0,7,7,2,,,,,,,AMSA05.jpg,AMNE16.jpg,AMNE02.jpg,AMSA15.jpg,AMSA15.jpg,MS,2,num_4,32,num_6,1.20024382591,,,2017_Jun_20_1224,60.0239302488,MAFE4ImagesEEG,001,200619,
AFNE23.JPG,AFNE24.JPG,AFNE22.JPG,AFSA24.JPG,AFSA22.JPG,AFSA23.JPG,,,,,,,,,,,,,,,,,0,8,8,8,,,,,,,AMSA18.jpg,AMSA06.jpg,AMNE07.jpg,AMNE04.jpg,AMNE04.jpg,MN,1,num_4,32,num_6,1.11714738514,,,2017_Jun_20_1224,60.0239302488,MAFE4ImagesEEG,001,200619,
AMSA21.JPG,AMNE23.JPG,AMNE21.JPG,AMSA25.JPG,AMNE25.JPG,AMSA23.JPG,,,,,,,,,,,,,,,,,0,9,9,5,,,,,,,AMNE15.jpg,AMSA03.jpg,AMNE19.jpg,AMSA12.jpg,AMNE19.jpg,MN,1,num_2,16,num_2,0.783491815906,,,2017_Jun_20_1224,60.0239302488,MAFE4ImagesEEG,001,200619,
AFSA21.JPG,AFNE22.JPG,AFNE21.JPG,AFSA23.JPG,AFSA22.JPG,AFNE23.JPG,,,,,,,,,,,,,,,,,,,,,0,0,0,0,,,AFSA03.jpg,AFNE17.jpg,AFSA17.jpg,AFNE07.jpg,AFSA03.jpg,FS,4,num_8,32,num_4,1.70006661757,,,2017_Jun_20_1224,60.0239302488,MAFE4ImagesEEG,001,200619,
AMSA21.JPG,AMNE23.JPG,AMNE21.JPG,AMSA25.JPG,AMNE25.JPG,AMSA23.JPG,,,,,,,,,,,,,,,,,,,,,0,1,1,5,,,AFSA09.jpg,AFNE16.jpg,AFSA14.jpg,AFNE15.jpg,AFSA09.jpg,FS,4,num_8,16,num_8,0.450103743118,,,2017_Jun_20_1224,60.0239302488,MAFE4ImagesEEG,001,200619,
AFSA21.JPG,AFNE23.JPG,AFNE21.JPG,AFSA25.JPG,AFNE25.JPG,AFSA23.JPG,,,,,,,,,,,,,,,,,,,,,0,2,2,4,,,AFSA03.jpg,AFNE14.jpg,AFSA13.jpg,AFNE11.jpg,AFNE14.jpg,FN,3,num_6,16,num_6,0.583488544333,,,2017_Jun_20_1224,60.0239302488,MAFE4ImagesEEG,001,200619,
AMNE23.JPG,AMNE24.JPG,AMNE22.JPG,AMSA24.JPG,AMSA22.JPG,AMSA23.JPG,,,,,,,,,,,,,,,,,,,,,0,3,3,9,,,AFSA18.jpg,AFNE10.jpg,AFNE08.jpg,AFSA04.jpg,AFNE08.jpg,FN,3,num_2,16,num_2,0.666766844224,,,2017_Jun_20_1224,60.0239302488,MAFE4ImagesEEG,001,200619,
AMSA25.JPG,AMNE24.JPG,AMSA24.JPG,AMNE26.JPG,AMSA21.JPG,AMNE25.JPG,,,,,,,,,,,,,,,,,,,,,0,4,4,3,,,AFSA01.jpg,AFSA04.jpg,AFNE04.jpg,AFNE09.jpg,AFNE09.jpg,FN,3,num_4,16,num_4,0.549996969057,,,2017_Jun_20_1224,60.0239302488,MAFE4ImagesEEG,001,200619,
AFSA25.JPG,AFNE24.JPG,AFSA24.JPG,AFNE21.JPG,AFSA21.JPG,AFNE25.JPG,,,,,,,,,,,,,,,,,,,,,0,5,5,2,,,AFNE07.jpg,AFSA13.jpg,AFNE19.jpg,AFSA18.jpg,AFSA18.jpg,FS,4,num_4,32,num_2,0.966838465189,,,2017_Jun_20_1224,60.0239302488,MAFE4ImagesEEG,001,200619,
AMNE22.JPG,AMSA24.JPG,AMSA22.JPG,AMNE25.JPG,AMNE24.JPG,AMSA25.JPG,,,,,,,,,,,,,,,,,,,,,0,6,6,7,,,AFSA09.jpg,AFSA19.jpg,AFNE02.jpg,AFNE05.jpg,AFNE02.jpg,FN,3,num_2,32,num_8,0.750149063533,,,2017_Jun_20_1224,60.0239302488,MAFE4ImagesEEG,001,200619,
AMSA21.JPG,AMNE22.JPG,AMNE21.JPG,AMSA23.JPG,AMSA22.JPG,AMNE23.JPG,,,,,,,,,,,,,,,,,,,,,0,7,7,1,,,AFNE05.jpg,AFNE17.jpg,AFSA12.jpg,AFSA20.jpg,AFSA20.jpg,FS,4,num_4,32,num_8,0.833452060237,,,2017_Jun_20_1224,60.0239302488,MAFE4ImagesEEG,001,200619,
AFNE23.JPG,AFNE24.JPG,AFNE22.JPG,AFSA24.JPG,AFSA22.JPG,AFSA23.JPG,,,,,,,,,,,,,,,,,,,,,0,8,8,8,,,AFSA18.jpg,AFNE04.jpg,AFSA04.jpg,AFNE15.jpg,AFNE04.jpg,FN,3,num_6,32,num_2,0.766784837702,,,2017_Jun_20_1224,60.0239302488,MAFE4ImagesEEG,001,200619,
AFNE22.JPG,AFSA24.JPG,AFSA22.JPG,AFNE25.JPG,AFNE24.JPG,AFSA25.JPG,,,,,,,,,,,,,,,,,,,,,0,9,9,6,,,AFNE09.jpg,AFSA12.jpg,AFNE08.jpg,AFSA13.jpg,AFNE08.jpg,FN,3,num_2,16,num_2,0.416788894916,,,2017_Jun_20_1224,60.0239302488,MAFE4ImagesEEG,001,200619,
,,,,,,,,,,,,,,,,,,,,,,,,,,,,,,,,,,,,,,,,,,,space,1.31677250518,2017_Jun_20_1224,60.0239302488,MAFE4ImagesEEG,001,200619,
AFNE01.JPG,AFNE01.JPG,AFNE01.JPG,AFNE01.JPG,AFNE01.JPG,AFNE01.JPG,0,0,0,3,,,,,,,,,,,,,,,,,,,,,,,AMSA05.jpg,AMSA08.jpg,AMNE01.jpg,AMNE10.jpg,AMSA05.jpg,MS,2,num_8,32,num_4,0.56677803793,,,2017_Jun_20_1224,60.0239302488,MAFE4ImagesEEG,001,200619,
AFNE01.JPG,AFNE01.JPG,AFNE01.JPG,AFNE01.JPG,AFNE01.JPG,AFNE01.JPG,0,1,1,2,,,,,,,,,,,,,,,,,,,,,,,AMNE17.jpg,AMSA15.jpg,AMNE16.jpg,AMSA02.jpg,AMSA02.jpg,MS,2,num_4,16,num_4,0.666805974324,,,2017_Jun_20_1224,60.0239302488,MAFE4ImagesEEG,001,200619,
AFNE01.JPG,AFNE01.JPG,AFNE01.JPG,AFNE01.JPG,AFNE01.JPG,AFNE01.JPG,0,2,2,4,,,,,,,,,,,,,,,,,,,,,,,AMNE03.jpg,AMSA18.jpg,AMSA15.jpg,AMNE15.jpg,AMSA18.jpg,MS,2,num_6,16,num_6,0.516783474479,,,2017_Jun_20_1224,60.0239302488,MAFE4ImagesEEG,001,200619,
AFNE01.JPG,AFNE01.JPG,AFNE01.JPG,AFNE01.JPG,AFNE01.JPG,AFNE01.JPG,0,3,3,8,,,,,,,,,,,,,,,,,,,,,,,AMNE14.jpg,AMSA20.jpg,AMNE10.jpg,AMSA16.jpg,AMNE10.jpg,MN,1,num_2,16,num_2,0.883575240034,,,2017_Jun_20_1224,60.0239302488,MAFE4ImagesEEG,001,200619,
AFNE01.JPG,AFNE01.JPG,AFNE01.JPG,AFNE01.JPG,AFNE01.JPG,AFNE01.JPG,0,4,4,7,,,,,,,,,,,,,,,,,,,,,,,AMNE06.jpg,AMSA08.jpg,AMNE14.jpg,AMSA12.jpg,AMNE14.jpg,MN,1,num_2,16,num_2,0.750178571558,,,2017_Jun_20_1224,60.0239302488,MAFE4ImagesEEG,001,200619,
AFNE01.JPG,AFNE01.JPG,AFNE01.JPG,AFNE01.JPG,AFNE01.JPG,AFNE01.JPG,0,5,5,0,,,,,,,,,,,,,,,,,,,,,,,AMNE13.jpg,AMSA11.jpg,AMSA07.jpg,AMNE05.jpg,AMSA11.jpg,MS,2,num_6,16,num_6,0.68359955214,,,2017_Jun_20_1224,60.0239302488,MAFE4ImagesEEG,001,200619,
AFNE01.JPG,AFNE01.JPG,AFNE01.JPG,AFNE01.JPG,AFNE01.JPG,AFNE01.JPG,0,6,6,9,,,,,,,,,,,,,,,,,,,,,,,AMNE06.jpg,AMSA11.jpg,AMNE05.jpg,AMSA10.jpg,AMNE05.jpg,MN,1,num_2,32,num_8,0.50018458534,,,2017_Jun_20_1224,60.0239302488,MAFE4ImagesEEG,001,200619,
AFNE01.JPG,AFNE01.JPG,AFNE01.JPG,AFNE01.JPG,AFNE01.JPG,AFNE01.JPG,0,7,7,1,,,,,,,,,,,,,,,,,,,,,,,AMNE06.jpg,AMSA18.jpg,AMSA17.jpg,AMNE08.jpg,AMNE08.jpg,MN,1,num_4,16,num_4,0.800178266829,,,2017_Jun_20_1224,60.0239302488,MAFE4ImagesEEG,001,200619,
AFNE01.JPG,AFNE01.JPG,AFNE01.JPG,AFNE01.JPG,AFNE01.JPG,AFNE01.JPG,0,8,8,5,,,,,,,,,,,,,,,,,,,,,,,AMSA03.jpg,AMNE16.jpg,AMNE05.jpg,AMSA01.jpg,AMSA01.jpg,MS,2,num_4,16,num_4,0.666881668731,,,2017_Jun_20_1224,60.0239302488,MAFE4ImagesEEG,001,200619,
AFNE01.JPG,AFNE01.JPG,AFNE01.JPG,AFNE01.JPG,AFNE01.JPG,AFNE01.JPG,0,9,9,6,,,,,,,,,,,,,,,,,,,,,,,AMNE01.jpg,AMSA02.jpg,AMSA15.jpg,AMNE08.jpg,AMSA15.jpg,MS,2,num_2,16,num_2,0.716848648619,,,2017_Jun_20_1224,60.0239302488,MAFE4ImagesEEG,001,200619,
AFNE01.JPG,AFNE01.JPG,AFNE01.JPG,AFNE01.JPG,AFNE01.JPG,AFNE01.JPG,1,0,10,2,,,,,,,,,,,,,,,,,,,,,,,AMSA05.jpg,AMNE05.jpg,AMSA16.jpg,AMNE10.jpg,AMNE05.jpg,MN,1,num_6,16,num_6,0.500228526653,,,2017_Jun_20_1224,60.0239302488,MAFE4ImagesEEG,001,200619,
AFNE01.JPG,AFNE01.JPG,AFNE01.JPG,AFNE01.JPG,AFNE01.JPG,AFNE01.JPG,1,1,11,9,,,,,,,,,,,,,,,,,,,,,,,AMSA12.jpg,AMNE05.jpg,AMSA09.jpg,AMNE15.jpg,AMNE15.jpg,MN,1,num_4,32,num_2,0.850154868793,,,2017_Jun_20_1224,60.0239302488,MAFE4ImagesEEG,001,200619,
AFNE01.JPG,AFNE01.JPG,AFNE01.JPG,AFNE01.JPG,AFNE01.JPG,AFNE01.JPG,1,2,12,4,,,,,,,,,,,,,,,,,,,,,,,AMSA01.jpg,AMNE06.jpg,AMSA14.jpg,AMNE17.jpg,AMSA01.jpg,MS,2,num_8,16,num_8,0.833437626949,,,2017_Jun_20_1224,60.0239302488,MAFE4ImagesEEG,001,200619,
AFNE01.JPG,AFNE01.JPG,AFNE01.JPG,AFNE01.JPG,AFNE01.JPG,AFNE01.JPG,1,3,13,6,,,,,,,,,,,,,,,,,,,,,,,AMNE11.jpg,AMSA06.jpg,AMSA10.jpg,AMNE06.jpg,AMSA10.jpg,MS,2,num_2,16,num_2,0.733448500047,,,2017_Jun_20_1224,60.0239302488,MAFE4ImagesEEG,001,200619,
AFNE01.JPG,AFNE01.JPG,AFNE01.JPG,AFNE01.JPG,AFNE01.JPG,AFNE01.JPG,1,4,14,0,,,,,,,,,,,,,,,,,,,,,,,AMNE11.jpg,AMNE20.jpg,AMSA15.jpg,AMSA12.jpg,AMSA12.jpg,MS,2,num_4,16,num_4,1.03341395641,,,2017_Jun_20_1224,60.0239302488,MAFE4ImagesEEG,001,200619,
AFNE01.JPG,AFNE01.JPG,AFNE01.JPG,AFNE01.JPG,AFNE01.JPG,AFNE01.JPG,1,5,15,1,,,,,,,,,,,,,,,,,,,,,,,AMSA20.jpg,AMSA13.jpg,AMNE14.jpg,AMNE19.jpg,AMNE14.jpg,MN,1,num_2,16,num_2,0.800134967081,,,2017_Jun_20_1224,60.0239302488,MAFE4ImagesEEG,001,200619,
AFNE01.JPG,AFNE01.JPG,AFNE01.JPG,AFNE01.JPG,AFNE01.JPG,AFNE01.JPG,1,6,16,5,,,,,,,,,,,,,,,,,,,,,,,AMNE15.jpg,AMSA15.jpg,AMNE08.jpg,AMSA03.jpg,AMSA15.jpg,MS,2,num_6,16,num_6,0.633477013791,,,2017_Jun_20_1224,60.0239302488,MAFE4ImagesEEG,001,200619,
AFNE01.JPG,AFNE01.JPG,AFNE01.JPG,AFNE01.JPG,AFNE01.JPG,AFNE01.JPG,1,7,17,7,,,,,,,,,,,,,,,,,,,,,,,AMSA02.jpg,AMSA18.jpg,AMNE08.jpg,AMNE18.jpg,AMNE08.jpg,MN,1,num_2,32,num_8,0.916730680852,,,2017_Jun_20_1224,60.0239302488,MAFE4ImagesEEG,001,200619,
AFNE01.JPG,AFNE01.JPG,AFNE01.JPG,AFNE01.JPG,AFNE01.JPG,AFNE01.JPG,1,8,18,8,,,,,,,,,,,,,,,,,,,,,,,AMSA14.jpg,AMNE10.jpg,AMSA09.jpg,AMNE20.jpg,AMNE10.jpg,MN,1,num_6,32,num_2,0.816802494228,,,2017_Jun_20_1224,60.0239302488,MAFE4ImagesEEG,001,200619,
AFNE01.JPG,AFNE01.JPG,AFNE01.JPG,AFNE01.JPG,AFNE01.JPG,AFNE01.JPG,1,9,19,3,,,,,,,,,,,,,,,,,,,,,,,AMSA12.jpg,AMSA11.jpg,AMNE07.jpg,AMNE02.jpg,AMSA12.jpg,MS,2,num_8,32,num_2,1.71669597691,,,2017_Jun_20_1224,60.0239302488,MAFE4ImagesEEG,001,200619,
AFNE01.JPG,AFNE01.JPG,AFNE01.JPG,AFNE01.JPG,AFNE01.JPG,AFNE01.JPG,2,0,20,8,,,,,,,,,,,,,,,,,,,,,,,AMNE13.jpg,AMSA13.jpg,AMSA15.jpg,AMNE06.jpg,AMNE13.jpg,MN,1,num_8,16,num_8,0.483514171443,,,2017_Jun_20_1224,60.0239302488,MAFE4ImagesEEG,001,200619,
AFNE01.JPG,AFNE01.JPG,AFNE01.JPG,AFNE01.JPG,AFNE01.JPG,AFNE01.JPG,2,1,21,5,,,,,,,,,,,,,,,,,,,,,,,AMNE11.jpg,AMNE10.jpg,AMSA10.jpg,AMSA12.jpg,AMSA10.jpg,MS,2,num_2,32,num_6,0.400167554151,,,2017_Jun_20_1224,60.0239302488,MAFE4ImagesEEG,001,200619,
AFNE01.JPG,AFNE01.JPG,AFNE01.JPG,AFNE01.JPG,AFNE01.JPG,AFNE01.JPG,2,2,22,3,,,,,,,,,,,,,,,,,,,,,,,AMNE16.jpg,AMNE17.jpg,AMSA12.jpg,AMSA01.jpg,AMSA01.jpg,MS,2,num_4,16,num_4,0.700123709044,,,2017_Jun_20_1224,60.0239302488,MAFE4ImagesEEG,001,200619,
AFNE01.JPG,AFNE01.JPG,AFNE01.JPG,AFNE01.JPG,AFNE01.JPG,AFNE01.JPG,2,3,23,0,,,,,,,,,,,,,,,,,,,,,,,AMNE12.jpg,AMNE07.jpg,AMSA10.jpg,AMSA11.jpg,AMNE07.jpg,MN,1,num_6,32,num_2,0.533458058024,,,2017_Jun_20_1224,60.0239302488,MAFE4ImagesEEG,001,200619,
AFNE01.JPG,AFNE01.JPG,AFNE01.JPG,AFNE01.JPG,AFNE01.JPG,AFNE01.JPG,2,4,24,7,,,,,,,,,,,,,,,,,,,,,,,AMNE09.jpg,AMSA11.jpg,AMNE08.jpg,AMSA15.jpg,AMNE08.jpg,MN,1,num_2,16,num_2,0.97704791103,,,2017_Jun_20_1224,60.0239302488,MAFE4ImagesEEG,001,200619,
AFNE01.JPG,AFNE01.JPG,AFNE01.JPG,AFNE01.JPG,AFNE01.JPG,AFNE01.JPG,2,5,25,6,,,,,,,,,,,,,,,,,,,,,,,AMSA18.jpg,AMNE14.jpg,AMSA08.jpg,AMNE06.jpg,AMNE06.jpg,MN,1,num_4,16,num_4,0.600144525059,,,2017_Jun_20_1224,60.0239302488,MAFE4ImagesEEG,001,200619,
AFNE01.JPG,AFNE01.JPG,AFNE01.JPG,AFNE01.JPG,AFNE01.JPG,AFNE01.JPG,2,6,26,9,,,,,,,,,,,,,,,,,,,,,,,AMSA18.jpg,AMNE18.jpg,AMNE20.jpg,AMSA15.jpg,AMNE20.jpg,MN,1,num_2,32,num_4,1.63336379291,,,2017_Jun_20_1224,60.0239302488,MAFE4ImagesEEG,001,200619,
AFNE01.JPG,AFNE01.JPG,AFNE01.JPG,AFNE01.JPG,AFNE01.JPG,AFNE01.JPG,2,7,27,2,,,,,,,,,,,,,,,,,,,,,,,AMSA20.jpg,AMNE05.jpg,AMSA19.jpg,AMNE13.jpg,AMNE05.jpg,MN,1,num_6,16,num_6,0.483497492969,,,2017_Jun_20_1224,60.0239302488,MAFE4ImagesEEG,001,200619,
AFNE01.JPG,AFNE01.JPG,AFNE01.JPG,AFNE01.JPG,AFNE01.JPG,AFNE01.JPG,2,8,28,1,,,,,,,,,,,,,,,,,,,,,,,AMNE19.jpg,AMSA20.jpg,AMNE14.jpg,AMSA13.jpg,AMSA20.jpg,MS,2,num_6,16,num_6,0.46681392868,,,2017_Jun_20_1224,60.0239302488,MAFE4ImagesEEG,001,200619,
AFNE01.JPG,AFNE01.JPG,AFNE01.JPG,AFNE01.JPG,AFNE01.JPG,AFNE01.JPG,2,9,29,4,,,,,,,,,,,,,,,,,,,,,,,AMSA20.jpg,AMNE05.jpg,AMNE08.jpg,AMSA19.jpg,AMNE05.jpg,MN,1,num_6,16,num_6,0.533525733976,,,2017_Jun_20_1224,60.0239302488,MAFE4ImagesEEG,001,200619,
AFNE01.JPG,AFNE01.JPG,AFNE01.JPG,AFNE01.JPG,AFNE01.JPG,AFNE01.JPG,3,0,30,6,,,,,,,,,,,,,,,,,,,,,,,AMNE15.jpg,AMNE11.jpg,AMSA12.jpg,AMSA15.jpg,AMSA12.jpg,MS,2,num_2,16,num_2,0.83347483282,,,2017_Jun_20_1224,60.0239302488,MAFE4ImagesEEG,001,200619,
AFNE01.JPG,AFNE01.JPG,AFNE01.JPG,AFNE01.JPG,AFNE01.JPG,AFNE01.JPG,3,1,31,8,,,,,,,,,,,,,,,,,,,,,,,AMNE20.jpg,AMSA15.jpg,AMNE09.jpg,AMSA13.jpg,AMNE09.jpg,MN,1,num_2,16,num_2,0.933432206511,,,2017_Jun_20_1224,60.0239302488,MAFE4ImagesEEG,001,200619,
AFNE01.JPG,AFNE01.JPG,AFNE01.JPG,AFNE01.JPG,AFNE01.JPG,AFNE01.JPG,3,2,32,9,,,,,,,,,,,,,,,,,,,,,,,AMNE06.jpg,AMSA12.jpg,AMSA13.jpg,AMNE09.jpg,AMSA13.jpg,MS,2,num_2,16,num_2,0.783439856139,,,2017_Jun_20_1224,60.0239302488,MAFE4ImagesEEG,001,200619,
AFNE01.JPG,AFNE01.JPG,AFNE01.JPG,AFNE01.JPG,AFNE01.JPG,AFNE01.JPG,3,3,33,4,,,,,,,,,,,,,,,,,,,,,,,AMSA19.jpg,AMSA02.jpg,AMNE20.jpg,AMNE08.jpg,AMSA19.jpg,MS,2,num_8,32,num_2,0.783505607629,,,2017_Jun_20_1224,60.0239302488,MAFE4ImagesEEG,001,200619,
AFNE01.JPG,AFNE01.JPG,AFNE01.JPG,AFNE01.JPG,AFNE01.JPG,AFNE01.JPG,3,4,34,7,,,,,,,,,,,,,,,,,,,,,,,AMNE19.jpg,AMNE03.jpg,AMSA13.jpg,AMSA18.jpg,AMNE19.jpg,MN,1,num_8,32,num_2,0.800146513619,,,2017_Jun_20_1224,60.0239302488,MAFE4ImagesEEG,001,200619,
AFNE01.JPG,AFNE01.JPG,AFNE01.JPG,AFNE01.JPG,AFNE01.JPG,AFNE01.JPG,3,5,35,1,,,,,,,,,,,,,,,,,,,,,,,AMSA18.jpg,AMSA14.jpg,AMNE12.jpg,AMNE02.jpg,AMNE12.jpg,MN,1,num_2,16,num_2,0.716813046602,,,2017_Jun_20_1224,60.0239302488,MAFE4ImagesEEG,001,200619,
AFNE01.JPG,AFNE01.JPG,AFNE01.JPG,AFNE01.JPG,AFNE01.JPG,AFNE01.JPG,3,6,36,3,,,,,,,,,,,,,,,,,,,,,,,AMNE14.jpg,AMNE13.jpg,AMSA19.jpg,AMSA12.jpg,AMNE13.jpg,MN,1,num_6,16,num_6,0.916718813474,,,2017_Jun_20_1224,60.0239302488,MAFE4ImagesEEG,001,200619,
AFNE01.JPG,AFNE01.JPG,AFNE01.JPG,AFNE01.JPG,AFNE01.JPG,AFNE01.JPG,3,7,37,5,,,,,,,,,,,,,,,,,,,,,,,AMSA06.jpg,AMNE18.jpg,AMNE14.jpg,AMSA05.jpg,AMNE18.jpg,MN,1,num_6,32,num_4,0.516803039587,,,2017_Jun_20_1224,60.0239302488,MAFE4ImagesEEG,001,200619,
AFNE01.JPG,AFNE01.JPG,AFNE01.JPG,AFNE01.JPG,AFNE01.JPG,AFNE01.JPG,3,8,38,0,,,,,,,,,,,,,,,,,,,,,,,AMNE10.jpg,AMNE01.jpg,AMSA05.jpg,AMSA12.jpg,AMSA12.jpg,MS,2,num_4,32,num_2,0.666756259743,,,2017_Jun_20_1224,60.0239302488,MAFE4ImagesEEG,001,200619,
AFNE01.JPG,AFNE01.JPG,AFNE01.JPG,AFNE01.JPG,AFNE01.JPG,AFNE01.JPG,3,9,39,2,,,,,,,,,,,,,,,,,,,,,,,AMNE20.jpg,AMSA04.jpg,AMSA15.jpg,AMNE15.jpg,AMSA15.jpg,MS,2,num_2,16,num_2,0.633457127959,,,2017_Jun_20_1224,60.0239302488,MAFE4ImagesEEG,001,200619,
AFNE01.JPG,AFNE01.JPG,AFNE01.JPG,AFNE01.JPG,AFNE01.JPG,AFNE01.JPG,4,0,40,8,,,,,,,,,,,,,,,,,,,,,,,AMSA16.jpg,AMSA10.jpg,AMNE10.jpg,AMNE19.jpg,AMNE10.jpg,MN,1,num_2,32,num_6,0.583539221087,,,2017_Jun_20_1224,60.0239302488,MAFE4ImagesEEG,001,200619,
AFNE01.JPG,AFNE01.JPG,AFNE01.JPG,AFNE01.JPG,AFNE01.JPG,AFNE01.JPG,4,1,41,6,,,,,,,,,,,,,,,,,,,,,,,AMNE12.jpg,AMSA14.jpg,AMNE07.jpg,AMSA04.jpg,AMNE12.jpg,MN,1,num_8,16,num_8,0.583468337776,,,2017_Jun_20_1224,60.0239302488,MAFE4ImagesEEG,001,200619,
AFNE01.JPG,AFNE01.JPG,AFNE01.JPG,AFNE01.JPG,AFNE01.JPG,AFNE01.JPG,4,2,42,5,,,,,,,,,,,,,,,,,,,,,,,AMNE10.jpg,AMSA11.jpg,AMNE19.jpg,AMSA20.jpg,AMNE19.jpg,MN,1,num_2,16,num_2,0.633636741783,,,2017_Jun_20_1224,60.0239302488,MAFE4ImagesEEG,001,200619,
AFNE01.JPG,AFNE01.JPG,AFNE01.JPG,AFNE01.JPG,AFNE01.JPG,AFNE01.JPG,4,3,43,4,,,,,,,,,,,,,,,,,,,,,,,AMSA16.jpg,AMNE06.jpg,AMNE12.jpg,AMSA01.jpg,AMNE06.jpg,MN,1,num_6,32,num_2,0.700127878692,,,2017_Jun_20_1224,60.0239302488,MAFE4ImagesEEG,001,200619,
AFNE01.JPG,AFNE01.JPG,AFNE01.JPG,AFNE01.JPG,AFNE01.JPG,AFNE01.JPG,4,4,44,2,,,,,,,,,,,,,,,,,,,,,,,AMNE09.jpg,AMSA07.jpg,AMNE20.jpg,AMSA09.jpg,AMSA09.jpg,MS,2,num_4,16,num_4,1.03347778355,,,2017_Jun_20_1224,60.0239302488,MAFE4ImagesEEG,001,200619,
AFNE01.JPG,AFNE01.JPG,AFNE01.JPG,AFNE01.JPG,AFNE01.JPG,AFNE01.JPG,4,5,45,1,,,,,,,,,,,,,,,,,,,,,,,AMSA12.jpg,AMSA17.jpg,AMNE04.jpg,AMNE14.jpg,AMSA17.jpg,MS,2,num_6,16,num_6,0.600165693788,,,2017_Jun_20_1224,60.0239302488,MAFE4ImagesEEG,001,200619,
AFNE01.JPG,AFNE01.JPG,AFNE01.JPG,AFNE01.JPG,AFNE01.JPG,AFNE01.JPG,4,6,46,0,,,,,,,,,,,,,,,,,,,,,,,AMSA07.jpg,AMSA19.jpg,AMNE11.jpg,AMNE14.jpg,AMNE14.jpg,MN,1,num_4,32,num_2,0.800115401973,,,2017_Jun_20_1224,60.0239302488,MAFE4ImagesEEG,001,200619,
AFNE01.JPG,AFNE01.JPG,AFNE01.JPG,AFNE01.JPG,AFNE01.JPG,AFNE01.JPG,4,7,47,3,,,,,,,,,,,,,,,,,,,,,,,AMNE15.jpg,AMSA05.jpg,AMNE03.jpg,AMSA13.jpg,AMSA13.jpg,MS,2,num_4,32,num_8,1.46673727199,,,2017_Jun_20_1224,60.0239302488,MAFE4ImagesEEG,001,200619,
AFNE01.JPG,AFNE01.JPG,AFNE01.JPG,AFNE01.JPG,AFNE01.JPG,AFNE01.JPG,4,8,48,9,,,,,,,,,,,,,,,,,,,,,,,AMSA03.jpg,AMNE18.jpg,AMNE01.jpg,AMSA06.jpg,AMNE18.jpg,MN,1,num_6,16,num_6,0.51677000348,,,2017_Jun_20_1224,60.0239302488,MAFE4ImagesEEG,001,200619,
AFNE01.JPG,AFNE01.JPG,AFNE01.JPG,AFNE01.JPG,AFNE01.JPG,AFNE01.JPG,4,9,49,7,,,,,,,,,,,,,,,,,,,,,,,AMSA08.jpg,AMSA17.jpg,AMNE07.jpg,AMNE03.jpg,AMSA17.jpg,MS,2,num_6,16,num_6,0.633481504046,,,2017_Jun_20_1224,60.0239302488,MAFE4ImagesEEG,001,200619,
AFNE01.JPG,AFNE01.JPG,AFNE01.JPG,AFNE01.JPG,AFNE01.JPG,AFNE01.JPG,5,0,50,5,,,,,,,,,,,,,,,,,,,,,,,AMSA20.jpg,AMSA15.jpg,AMNE03.jpg,AMNE11.jpg,AMNE11.jpg,MN,1,num_4,16,num_4,0.600164731615,,,2017_Jun_20_1224,60.0239302488,MAFE4ImagesEEG,001,200619,
AFNE01.JPG,AFNE01.JPG,AFNE01.JPG,AFNE01.JPG,AFNE01.JPG,AFNE01.JPG,5,1,51,1,,,,,,,,,,,,,,,,,,,,,,,AMSA16.jpg,AMNE14.jpg,AMNE19.jpg,AMSA18.jpg,AMNE19.jpg,MN,1,num_2,16,num_2,0.800115401973,,,2017_Jun_20_1224,60.0239302488,MAFE4ImagesEEG,001,200619,
AFNE01.JPG,AFNE01.JPG,AFNE01.JPG,AFNE01.JPG,AFNE01.JPG,AFNE01.JPG,5,2,52,9,,,,,,,,,,,,,,,,,,,,,,,AMSA03.jpg,AMSA20.jpg,AMNE18.jpg,AMNE08.jpg,AMNE08.jpg,MN,1,num_4,16,num_4,0.766792214708,,,2017_Jun_20_1224,60.0239302488,MAFE4ImagesEEG,001,200619,
AFNE01.JPG,AFNE01.JPG,AFNE01.JPG,AFNE01.JPG,AFNE01.JPG,AFNE01.JPG,5,3,53,4,,,,,,,,,,,,,,,,,,,,,,,AMNE20.jpg,AMSA10.jpg,AMSA11.jpg,AMNE16.jpg,AMSA11.jpg,MS,2,num_2,16,num_2,1.5666167062,,,2017_Jun_20_1224,60.0239302488,MAFE4ImagesEEG,001,200619,
AFNE01.JPG,AFNE01.JPG,AFNE01.JPG,AFNE01.JPG,AFNE01.JPG,AFNE01.JPG,5,4,54,8,,,,,,,,,,,,,,,,,,,,,,,AMNE08.jpg,AMNE18.jpg,AMSA19.jpg,AMSA02.jpg,AMNE18.jpg,MN,1,num_6,32,num_8,0.850121832686,,,2017_Jun_20_1224,60.0239302488,MAFE4ImagesEEG,001,200619,
AFNE01.JPG,AFNE01.JPG,AFNE01.JPG,AFNE01.JPG,AFNE01.JPG,AFNE01.JPG,5,5,55,2,,,,,,,,,,,,,,,,,,,,,,,AMSA09.jpg,AMNE10.jpg,AMSA12.jpg,AMNE03.jpg,AMNE03.jpg,MN,1,num_4,32,num_6,0.666840934893,,,2017_Jun_20_1224,60.0239302488,MAFE4ImagesEEG,001,200619,
AFNE01.JPG,AFNE01.JPG,AFNE01.JPG,AFNE01.JPG,AFNE01.JPG,AFNE01.JPG,5,6,56,0,,,,,,,,,,,,,,,,,,,,,,,AMNE20.jpg,AMSA14.jpg,AMNE19.jpg,AMSA08.jpg,AMNE19.jpg,MN,1,num_2,16,num_2,0.83385651221,,,2017_Jun_20_1224,60.0239302488,MAFE4ImagesEEG,001,200619,
AFNE01.JPG,AFNE01.JPG,AFNE01.JPG,AFNE01.JPG,AFNE01.JPG,AFNE01.JPG,5,7,57,7,,,,,,,,,,,,,,,,,,,,,,,AMSA13.jpg,AMNE17.jpg,AMNE04.jpg,AMSA12.jpg,AMSA12.jpg,MS,2,num_4,32,num_6,0.716791877872,,,2017_Jun_20_1224,60.0239302488,MAFE4ImagesEEG,001,200619,
AFNE01.JPG,AFNE01.JPG,AFNE01.JPG,AFNE01.JPG,AFNE01.JPG,AFNE01.JPG,5,8,58,6,,,,,,,,,,,,,,,,,,,,,,,AMSA08.jpg,AMNE10.jpg,AMSA15.jpg,AMNE17.jpg,AMSA08.jpg,MS,2,num_8,16,num_8,0.933462676709,,,2017_Jun_20_1224,60.0239302488,MAFE4ImagesEEG,001,200619,
AFNE01.JPG,AFNE01.JPG,AFNE01.JPG,AFNE01.JPG,AFNE01.JPG,AFNE01.JPG,5,9,59,3,,,,,,,,,,,,,,,,,,,,,,,AMNE11.jpg,AMNE13.jpg,AMSA04.jpg,AMSA20.jpg,AMSA04.jpg,MS,2,num_2,16,num_2,0.700121784583,,,2017_Jun_20_1224,60.0239302488,MAFE4ImagesEEG,001,200619,
,,,,,,,,,,,,,,,,,,,,,,,,,,,,,,,,,,,,,,,,,,,space,5.41634306766,2017_Jun_20_1224,60.0239302488,MAFE4ImagesEEG,001,200619,
AFNE01.JPG,AFNE01.JPG,AFNE01.JPG,AFNE01.JPG,AFNE01.JPG,AFNE01.JPG,,,,,0,0,0,5,,,,,,,,,,,,,,,,,,,AFSA02.jpg,AFSA05.jpg,AFNE09.jpg,AFNE14.jpg,AFSA05.jpg,FS,4,num_6,16,num_6,0.533472491312,,,2017_Jun_20_1224,60.0239302488,MAFE4ImagesEEG,001,200619,
AFNE01.JPG,AFNE01.JPG,AFNE01.JPG,AFNE01.JPG,AFNE01.JPG,AFNE01.JPG,,,,,0,1,1,3,,,,,,,,,,,,,,,,,,,AFNE10.jpg,AFSA11.jpg,AFSA10.jpg,AFNE04.jpg,AFNE04.jpg,FN,3,num_4,32,num_8,1.01690006314,,,2017_Jun_20_1224,60.0239302488,MAFE4ImagesEEG,001,200619,
AFNE01.JPG,AFNE01.JPG,AFNE01.JPG,AFNE01.JPG,AFNE01.JPG,AFNE01.JPG,,,,,0,2,2,1,,,,,,,,,,,,,,,,,,,AFSA14.jpg,AFNE10.jpg,AFSA19.jpg,AFNE20.jpg,AFNE20.jpg,FN,3,num_4,32,num_6,0.633537954185,,,2017_Jun_20_1224,60.0239302488,MAFE4ImagesEEG,001,200619,
AFNE01.JPG,AFNE01.JPG,AFNE01.JPG,AFNE01.JPG,AFNE01.JPG,AFNE01.JPG,,,,,0,3,3,4,,,,,,,,,,,,,,,,,,,AFSA15.jpg,AFSA14.jpg,AFNE20.jpg,AFNE10.jpg,AFSA15.jpg,FS,4,num_8,32,num_6,1.18344575772,,,2017_Jun_20_1224,60.0239302488,MAFE4ImagesEEG,001,200619,
AFNE01.JPG,AFNE01.JPG,AFNE01.JPG,AFNE01.JPG,AFNE01.JPG,AFNE01.JPG,,,,,0,4,4,2,,,,,,,,,,,,,,,,,,,AFSA18.jpg,AFNE10.jpg,AFSA10.jpg,AFNE01.jpg,AFSA10.jpg,FS,4,num_2,16,num_2,0.733440802316,,,2017_Jun_20_1224,60.0239302488,MAFE4ImagesEEG,001,200619,
AFNE01.JPG,AFNE01.JPG,AFNE01.JPG,AFNE01.JPG,AFNE01.JPG,AFNE01.JPG,,,,,0,5,5,6,,,,,,,,,,,,,,,,,,,AFSA14.jpg,AFNE07.jpg,AFNE13.jpg,AFSA16.jpg,AFNE07.jpg,FN,3,num_6,16,num_6,0.683833370917,,,2017_Jun_20_1224,60.0239302488,MAFE4ImagesEEG,001,200619,
AFNE01.JPG,AFNE01.JPG,AFNE01.JPG,AFNE01.JPG,AFNE01.JPG,AFNE01.JPG,,,,,0,6,6,8,,,,,,,,,,,,,,,,,,,AFSA04.jpg,AFNE20.jpg,AFSA08.jpg,AFNE12.jpg,AFSA04.jpg,FS,4,num_8,16,num_8,1.55008709664,,,2017_Jun_20_1224,60.0239302488,MAFE4ImagesEEG,001,200619,
AFNE01.JPG,AFNE01.JPG,AFNE01.JPG,AFNE01.JPG,AFNE01.JPG,AFNE01.JPG,,,,,0,7,7,0,,,,,,,,,,,,,,,,,,,AFSA07.jpg,AFNE17.jpg,AFNE15.jpg,AFSA10.jpg,AFSA10.jpg,FS,4,num_4,32,num_6,0.733499818249,,,2017_Jun_20_1224,60.0239302488,MAFE4ImagesEEG,001,200619,
AFNE01.JPG,AFNE01.JPG,AFNE01.JPG,AFNE01.JPG,AFNE01.JPG,AFNE01.JPG,,,,,0,8,8,9,,,,,,,,,,,,,,,,,,,AFNE04.jpg,AFSA08.jpg,AFNE14.jpg,AFSA05.jpg,AFNE14.jpg,FN,3,num_2,16,num_2,1.30011427938,,,2017_Jun_20_1224,60.0239302488,MAFE4ImagesEEG,001,200619,
AFNE01.JPG,AFNE01.JPG,AFNE01.JPG,AFNE01.JPG,AFNE01.JPG,AFNE01.JPG,,,,,0,9,9,7,,,,,,,,,,,,,,,,,,,AFSA16.jpg,AFSA09.jpg,AFNE05.jpg,AFNE17.jpg,AFNE17.jpg,FN,3,num_4,32,num_2,0.200174866943,,,2017_Jun_20_1224,60.0239302488,MAFE4ImagesEEG,001,200619,
AFNE01.JPG,AFNE01.JPG,AFNE01.JPG,AFNE01.JPG,AFNE01.JPG,AFNE01.JPG,,,,,1,0,10,3,,,,,,,,,,,,,,,,,,,AFNE12.jpg,AFNE17.jpg,AFSA17.jpg,AFSA14.jpg,AFSA17.jpg,FS,4,num_2,32,num_6,0.533508734894,,,2017_Jun_20_1224,60.0239302488,MAFE4ImagesEEG,001,200619,
AFNE01.JPG,AFNE01.JPG,AFNE01.JPG,AFNE01.JPG,AFNE01.JPG,AFNE01.JPG,,,,,1,1,11,0,,,,,,,,,,,,,,,,,,,AFSA17.jpg,AFSA15.jpg,AFNE09.jpg,AFNE19.jpg,AFSA17.jpg,FS,4,num_8,16,num_8,0.516721571796,,,2017_Jun_20_1224,60.0239302488,MAFE4ImagesEEG,001,200619,
AFNE01.JPG,AFNE01.JPG,AFNE01.JPG,AFNE01.JPG,AFNE01.JPG,AFNE01.JPG,,,,,1,2,12,8,,,,,,,,,,,,,,,,,,,AFSA17.jpg,AFSA05.jpg,AFNE17.jpg,AFNE10.jpg,AFNE17.jpg,FN,3,num_2,32,num_6,0.433499080595,,,2017_Jun_20_1224,60.0239302488,MAFE4ImagesEEG,001,200619,
AFNE01.JPG,AFNE01.JPG,AFNE01.JPG,AFNE01.JPG,AFNE01.JPG,AFNE01.JPG,,,,,1,3,13,9,,,,,,,,,,,,,,,,,,,AFNE10.jpg,AFNE15.jpg,AFSA20.jpg,AFSA04.jpg,AFNE15.jpg,FN,3,num_6,32,num_8,0.850186301279,,,2017_Jun_20_1224,60.0239302488,MAFE4ImagesEEG,001,200619,
AFNE01.JPG,AFNE01.JPG,AFNE01.JPG,AFNE01.JPG,AFNE01.JPG,AFNE01.JPG,,,,,1,4,14,6,,,,,,,,,,,,,,,,,,,AFNE17.jpg,AFSA10.jpg,AFSA13.jpg,AFNE07.jpg,AFSA13.jpg,FS,4,num_2,16,num_2,0.783102117945,,,2017_Jun_20_1224,60.0239302488,MAFE4ImagesEEG,001,200619,
AFNE01.JPG,AFNE01.JPG,AFNE01.JPG,AFNE01.JPG,AFNE01.JPG,AFNE01.JPG,,,,,1,5,15,7,,,,,,,,,,,,,,,,,,,AFSA05.jpg,AFSA18.jpg,AFNE18.jpg,AFNE13.jpg,AFSA05.jpg,FS,4,num_8,32,num_6,0.616829692968,,,2017_Jun_20_1224,60.0239302488,MAFE4ImagesEEG,001,200619,
AFNE01.JPG,AFNE01.JPG,AFNE01.JPG,AFNE01.JPG,AFNE01.JPG,AFNE01.JPG,,,,,1,6,16,2,,,,,,,,,,,,,,,,,,,AFSA11.jpg,AFSA19.jpg,AFNE03.jpg,AFNE02.jpg,AFNE03.jpg,FN,3,num_2,16,num_2,1.10015623202,,,2017_Jun_20_1224,60.0239302488,MAFE4ImagesEEG,001,200619,
AFNE01.JPG,AFNE01.JPG,AFNE01.JPG,AFNE01.JPG,AFNE01.JPG,AFNE01.JPG,,,,,1,7,17,4,,,,,,,,,,,,,,,,,,,AFNE14.jpg,AFSA04.jpg,AFNE05.jpg,AFSA16.jpg,AFNE14.jpg,FN,3,num_8,16,num_8,0.666675433517,,,2017_Jun_20_1224,60.0239302488,MAFE4ImagesEEG,001,200619,
AFNE01.JPG,AFNE01.JPG,AFNE01.JPG,AFNE01.JPG,AFNE01.JPG,AFNE01.JPG,,,,,1,8,18,1,,,,,,,,,,,,,,,,,,,AFSA06.jpg,AFNE10.jpg,AFSA19.jpg,AFNE07.jpg,AFNE07.jpg,FN,3,num_4,32,num_6,0.483524114359,,,2017_Jun_20_1224,60.0239302488,MAFE4ImagesEEG,001,200619,
AFNE01.JPG,AFNE01.JPG,AFNE01.JPG,AFNE01.JPG,AFNE01.JPG,AFNE01.JPG,,,,,1,9,19,5,,,,,,,,,,,,,,,,,,,AFSA09.jpg,AFNE20.jpg,AFSA05.jpg,AFNE06.jpg,AFSA09.jpg,FS,4,num_8,16,num_8,1.00015459617,,,2017_Jun_20_1224,60.0239302488,MAFE4ImagesEEG,001,200619,
AFNE01.JPG,AFNE01.JPG,AFNE01.JPG,AFNE01.JPG,AFNE01.JPG,AFNE01.JPG,,,,,2,0,20,9,,,,,,,,,,,,,,,,,,,AFNE04.jpg,AFSA18.jpg,AFNE08.jpg,AFSA02.jpg,AFSA18.jpg,FS,4,num_6,16,num_6,0.433515438344,,,2017_Jun_20_1224,60.0239302488,MAFE4ImagesEEG,001,200619,
AFNE01.JPG,AFNE01.JPG,AFNE01.JPG,AFNE01.JPG,AFNE01.JPG,AFNE01.JPG,,,,,2,1,21,1,,,,,,,,,,,,,,,,,,,AFSA09.jpg,AFNE18.jpg,AFSA08.jpg,AFNE19.jpg,AFSA08.jpg,FS,4,num_2,16,num_2,0.966760204872,,,2017_Jun_20_1224,60.0239302488,MAFE4ImagesEEG,001,200619,
AFNE01.JPG,AFNE01.JPG,AFNE01.JPG,AFNE01.JPG,AFNE01.JPG,AFNE01.JPG,,,,,2,2,22,5,,,,,,,,,,,,,,,,,,,AFNE08.jpg,AFSA14.jpg,AFNE02.jpg,AFSA04.jpg,AFNE02.jpg,FN,3,num_2,32,num_6,0.46677447774,,,2017_Jun_20_1224,60.0239302488,MAFE4ImagesEEG,001,200619,
AFNE01.JPG,AFNE01.JPG,AFNE01.JPG,AFNE01.JPG,AFNE01.JPG,AFNE01.JPG,,,,,2,3,23,4,,,,,,,,,,,,,,,,,,,AFNE01.jpg,AFSA08.jpg,AFSA17.jpg,AFNE08.jpg,AFSA08.jpg,FS,4,num_6,16,num_6,0.500174000859,,,2017_Jun_20_1224,60.0239302488,MAFE4ImagesEEG,001,200619,
AFNE01.JPG,AFNE01.JPG,AFNE01.JPG,AFNE01.JPG,AFNE01.JPG,AFNE01.JPG,,,,,2,4,24,2,,,,,,,,,,,,,,,,,,,AFNE14.jpg,AFSA04.jpg,AFSA14.jpg,AFNE20.jpg,AFSA04.jpg,FS,4,num_6,32,num_2,0.650210934109,,,2017_Jun_20_1224,60.0239302488,MAFE4ImagesEEG,001,200619,
AFNE01.JPG,AFNE01.JPG,AFNE01.JPG,AFNE01.JPG,AFNE01.JPG,AFNE01.JPG,,,,,2,5,25,7,,,,,,,,,,,,,,,,,,,AFSA10.jpg,AFNE17.jpg,AFNE03.jpg,AFSA03.jpg,AFNE17.jpg,FN,3,num_6,32,num_8,0.650171162444,,,2017_Jun_20_1224,60.0239302488,MAFE4ImagesEEG,001,200619,
AFNE01.JPG,AFNE01.JPG,AFNE01.JPG,AFNE01.JPG,AFNE01.JPG,AFNE01.JPG,,,,,2,6,26,6,,,,,,,,,,,,,,,,,,,AFSA04.jpg,AFNE04.jpg,AFNE15.jpg,AFSA13.jpg,AFSA04.jpg,FS,4,num_8,16,num_8,1.06674644526,,,2017_Jun_20_1224,60.0239302488,MAFE4ImagesEEG,001,200619,
AFNE01.JPG,AFNE01.JPG,AFNE01.JPG,AFNE01.JPG,AFNE01.JPG,AFNE01.JPG,,,,,2,7,27,8,,,,,,,,,,,,,,,,,,,AFSA02.jpg,AFSA12.jpg,AFNE04.jpg,AFNE13.jpg,AFSA12.jpg,FS,4,num_6,16,num_6,0.533341308939,,,2017_Jun_20_1224,60.0239302488,MAFE4ImagesEEG,001,200619,
AFNE01.JPG,AFNE01.JPG,AFNE01.JPG,AFNE01.JPG,AFNE01.JPG,AFNE01.JPG,,,,,2,8,28,3,,,,,,,,,,,,,,,,,,,AFNE13.jpg,AFSA06.jpg,AFNE02.jpg,AFSA04.jpg,AFSA06.jpg,FS,4,num_6,16,num_6,0.43349362805,,,2017_Jun_20_1224,60.0239302488,MAFE4ImagesEEG,001,200619,
AFNE01.JPG,AFNE01.JPG,AFNE01.JPG,AFNE01.JPG,AFNE01.JPG,AFNE01.JPG,,,,,2,9,29,0,,,,,,,,,,,,,,,,,,,AFNE17.jpg,AFSA09.jpg,AFSA08.jpg,AFNE03.jpg,AFSA08.jpg,FS,4,num_2,16,num_2,0.833488303819,,,2017_Jun_20_1224,60.0239302488,MAFE4ImagesEEG,001,200619,
AFNE01.JPG,AFNE01.JPG,AFNE01.JPG,AFNE01.JPG,AFNE01.JPG,AFNE01.JPG,,,,,3,0,30,5,,,,,,,,,,,,,,,,,,,AFSA05.jpg,AFNE15.jpg,AFSA20.jpg,AFNE09.jpg,AFNE09.jpg,FN,3,num_4,16,num_4,0.983425166225,,,2017_Jun_20_1224,60.0239302488,MAFE4ImagesEEG,001,200619,
AFNE01.JPG,AFNE01.JPG,AFNE01.JPG,AFNE01.JPG,AFNE01.JPG,AFNE01.JPG,,,,,3,1,31,9,,,,,,,,,,,,,,,,,,,AFSA05.jpg,AFSA12.jpg,AFNE18.jpg,AFNE17.jpg,AFNE18.jpg,FN,3,num_2,32,num_6,0.516815869138,,,2017_Jun_20_1224,60.0239302488,MAFE4ImagesEEG,001,200619,
AFNE01.JPG,AFNE01.JPG,AFNE01.JPG,AFNE01.JPG,AFNE01.JPG,AFNE01.JPG,,,,,3,2,32,0,,,,,,,,,,,,,,,,,,,AFNE10.jpg,AFSA16.jpg,AFNE12.jpg,AFSA08.jpg,AFNE12.jpg,FN,3,num_2,32,num_8,0.716799254878,,,2017_Jun_20_1224,60.0239302488,MAFE4ImagesEEG,001,200619,
AFNE01.JPG,AFNE01.JPG,AFNE01.JPG,AFNE01.JPG,AFNE01.JPG,AFNE01.JPG,,,,,3,3,33,2,,,,,,,,,,,,,,,,,,,AFNE03.jpg,AFNE01.jpg,AFSA05.jpg,AFSA20.jpg,AFSA20.jpg,FS,4,num_4,32,num_2,0.783460704144,,,2017_Jun_20_1224,60.0239302488,MAFE4ImagesEEG,001,200619,
AFNE01.JPG,AFNE01.JPG,AFNE01.JPG,AFNE01.JPG,AFNE01.JPG,AFNE01.JPG,,,,,3,4,34,4,,,,,,,,,,,,,,,,,,,AFNE02.jpg,AFSA15.jpg,AFSA04.jpg,AFNE17.jpg,AFNE02.jpg,FN,3,num_8,32,num_6,0.333472747938,,,2017_Jun_20_1224,60.0239302488,MAFE4ImagesEEG,001,200619,
AFNE01.JPG,AFNE01.JPG,AFNE01.JPG,AFNE01.JPG,AFNE01.JPG,AFNE01.JPG,,,,,3,5,35,6,,,,,,,,,,,,,,,,,,,AFSA17.jpg,AFNE07.jpg,AFNE17.jpg,AFSA18.jpg,AFNE07.jpg,FN,3,num_6,32,num_8,0.400187439867,,,2017_Jun_20_1224,60.0239302488,MAFE4ImagesEEG,001,200619,
AFNE01.JPG,AFNE01.JPG,AFNE01.JPG,AFNE01.JPG,AFNE01.JPG,AFNE01.JPG,,,,,3,6,36,8,,,,,,,,,,,,,,,,,,,AFSA15.jpg,AFNE12.jpg,AFNE02.jpg,AFSA19.jpg,AFSA15.jpg,FS,4,num_8,16,num_8,0.666611285764,,,2017_Jun_20_1224,60.0239302488,MAFE4ImagesEEG,001,200619,
AFNE01.JPG,AFNE01.JPG,AFNE01.JPG,AFNE01.JPG,AFNE01.JPG,AFNE01.JPG,,,,,3,7,37,7,,,,,,,,,,,,,,,,,,,AFSA14.jpg,AFNE04.jpg,AFSA18.jpg,AFNE02.jpg,AFSA18.jpg,FS,4,num_2,32,num_8,1.16675577872,,,2017_Jun_20_1224,60.0239302488,MAFE4ImagesEEG,001,200619,
AFNE01.JPG,AFNE01.JPG,AFNE01.JPG,AFNE01.JPG,AFNE01.JPG,AFNE01.JPG,,,,,3,8,38,3,,,,,,,,,,,,,,,,,,,AFNE12.jpg,AFNE06.jpg,AFSA10.jpg,AFSA01.jpg,AFNE12.jpg,FN,3,num_8,32,num_6,0.533495263779,,,2017_Jun_20_1224,60.0239302488,MAFE4ImagesEEG,001,200619,
AFNE01.JPG,AFNE01.JPG,AFNE01.JPG,AFNE01.JPG,AFNE01.JPG,AFNE01.JPG,,,,,3,9,39,1,,,,,,,,,,,,,,,,,,,AFSA19.jpg,AFSA10.jpg,AFNE18.jpg,AFNE11.jpg,AFNE11.jpg,FN,3,num_4,16,num_4,0.666847028886,,,2017_Jun_20_1224,60.0239302488,MAFE4ImagesEEG,001,200619,
AFNE01.JPG,AFNE01.JPG,AFNE01.JPG,AFNE01.JPG,AFNE01.JPG,AFNE01.JPG,,,,,4,0,40,1,,,,,,,,,,,,,,,,,,,AFSA12.jpg,AFNE17.jpg,AFSA09.jpg,AFNE03.jpg,AFSA12.jpg,FS,4,num_8,16,num_8,0.616852144827,,,2017_Jun_20_1224,60.0239302488,MAFE4ImagesEEG,001,200619,
AFNE01.JPG,AFNE01.JPG,AFNE01.JPG,AFNE01.JPG,AFNE01.JPG,AFNE01.JPG,,,,,4,1,41,4,,,,,,,,,,,,,,,,,,,AFSA08.jpg,AFNE19.jpg,AFNE03.jpg,AFSA05.jpg,AFSA05.jpg,FS,4,num_4,32,num_6,0.400198024348,,,2017_Jun_20_1224,60.0239302488,MAFE4ImagesEEG,001,200619,
AFNE01.JPG,AFNE01.JPG,AFNE01.JPG,AFNE01.JPG,AFNE01.JPG,AFNE01.JPG,,,,,4,2,42,3,,,,,,,,,,,,,,,,,,,AFSA11.jpg,AFSA18.jpg,AFNE07.jpg,AFNE09.jpg,AFSA18.jpg,FS,4,num_6,16,num_6,0.466788269579,,,2017_Jun_20_1224,60.0239302488,MAFE4ImagesEEG,001,200619,
AFNE01.JPG,AFNE01.JPG,AFNE01.JPG,AFNE01.JPG,AFNE01.JPG,AFNE01.JPG,,,,,4,3,43,8,,,,,,,,,,,,,,,,,,,AFNE12.jpg,AFNE08.jpg,AFSA10.jpg,AFSA05.jpg,AFNE08.jpg,FN,3,num_6,32,num_8,0.600123677053,,,2017_Jun_20_1224,60.0239302488,MAFE4ImagesEEG,001,200619,
AFNE01.JPG,AFNE01.JPG,AFNE01.JPG,AFNE01.JPG,AFNE01.JPG,AFNE01.JPG,,,,,4,4,44,7,,,,,,,,,,,,,,,,,,,AFSA08.jpg,AFSA19.jpg,AFNE17.jpg,AFNE14.jpg,AFSA19.jpg,FS,4,num_6,32,num_2,0.783439535298,,,2017_Jun_20_1224,60.0239302488,MAFE4ImagesEEG,001,200619,
AFNE01.JPG,AFNE01.JPG,AFNE01.JPG,AFNE01.JPG,AFNE01.JPG,AFNE01.JPG,,,,,4,5,45,0,,,,,,,,,,,,,,,,,,,AFSA17.jpg,AFNE08.jpg,AFNE20.jpg,AFSA02.jpg,AFSA02.jpg,FS,4,num_4,16,num_4,0.750191080384,,,2017_Jun_20_1224,60.0239302488,MAFE4ImagesEEG,001,200619,
AFNE01.JPG,AFNE01.JPG,AFNE01.JPG,AFNE01.JPG,AFNE01.JPG,AFNE01.JPG,,,,,4,6,46,2,,,,,,,,,,,,,,,,,,,AFNE03.jpg,AFSA08.jpg,AFSA02.jpg,AFNE08.jpg,AFSA08.jpg,FS,4,num_6,32,num_8,0.96675314859,,,2017_Jun_20_1224,60.0239302488,MAFE4ImagesEEG,001,200619,
AFNE01.JPG,AFNE01.JPG,AFNE01.JPG,AFNE01.JPG,AFNE01.JPG,AFNE01.JPG,,,,,4,7,47,9,,,,,,,,,,,,,,,,,,,AFSA02.jpg,AFNE16.jpg,AFSA06.jpg,AFNE10.jpg,AFSA06.jpg,FS,4,num_2,32,num_6,0.566841865075,,,2017_Jun_20_1224,60.0239302488,MAFE4ImagesEEG,001,200619,
AFNE01.JPG,AFNE01.JPG,AFNE01.JPG,AFNE01.JPG,AFNE01.JPG,AFNE01.JPG,,,,,4,8,48,6,,,,,,,,,,,,,,,,,,,AFSA15.jpg,AFSA16.jpg,AFNE09.jpg,AFNE17.jpg,AFNE17.jpg,FN,3,num_4,32,num_8,0.650175011251,,,2017_Jun_20_1224,60.0239302488,MAFE4ImagesEEG,001,200619,
AFNE01.JPG,AFNE01.JPG,AFNE01.JPG,AFNE01.JPG,AFNE01.JPG,AFNE01.JPG,,,,,4,9,49,5,,,,,,,,,,,,,,,,,,,AFSA05.jpg,AFSA04.jpg,AFNE14.jpg,AFNE02.jpg,AFNE14.jpg,FN,3,num_2,16,num_2,0.583486619871,,,2017_Jun_20_1224,60.0239302488,MAFE4ImagesEEG,001,200619,
AFNE01.JPG,AFNE01.JPG,AFNE01.JPG,AFNE01.JPG,AFNE01.JPG,AFNE01.JPG,,,,,5,0,50,1,,,,,,,,,,,,,,,,,,,AFNE03.jpg,AFSA08.jpg,AFNE07.jpg,AFSA01.jpg,AFSA01.jpg,FS,4,num_4,32,num_6,0.583535051555,,,2017_Jun_20_1224,60.0239302488,MAFE4ImagesEEG,001,200619,
AFNE01.JPG,AFNE01.JPG,AFNE01.JPG,AFNE01.JPG,AFNE01.JPG,AFNE01.JPG,,,,,5,1,51,6,,,,,,,,,,,,,,,,,,,AFNE02.jpg,AFSA09.jpg,AFSA14.jpg,AFNE14.jpg,AFNE14.jpg,FN,3,num_4,16,num_4,0.816806343268,,,2017_Jun_20_1224,60.0239302488,MAFE4ImagesEEG,001,200619,
AFNE01.JPG,AFNE01.JPG,AFNE01.JPG,AFNE01.JPG,AFNE01.JPG,AFNE01.JPG,,,,,5,2,52,3,,,,,,,,,,,,,,,,,,,AFSA04.jpg,AFNE11.jpg,AFSA12.jpg,AFNE17.jpg,AFNE17.jpg,FN,3,num_4,32,num_6,0.450131968129,,,2017_Jun_20_1224,60.0239302488,MAFE4ImagesEEG,001,200619,
AFNE01.JPG,AFNE01.JPG,AFNE01.JPG,AFNE01.JPG,AFNE01.JPG,AFNE01.JPG,,,,,5,3,53,5,,,,,,,,,,,,,,,,,,,AFNE11.jpg,AFSA03.jpg,AFSA04.jpg,AFNE03.jpg,AFSA04.jpg,FS,4,num_2,16,num_2,0.633477975964,,,2017_Jun_20_1224,60.0239302488,MAFE4ImagesEEG,001,200619,
AFNE01.JPG,AFNE01.JPG,AFNE01.JPG,AFNE01.JPG,AFNE01.JPG,AFNE01.JPG,,,,,5,4,54,0,,,,,,,,,,,,,,,,,,,AFSA03.jpg,AFNE14.jpg,AFSA12.jpg,AFNE15.jpg,AFNE15.jpg,FN,3,num_4,16,num_4,0.933439262677,,,2017_Jun_20_1224,60.0239302488,MAFE4ImagesEEG,001,200619,
AFNE01.JPG,AFNE01.JPG,AFNE01.JPG,AFNE01.JPG,AFNE01.JPG,AFNE01.JPG,,,,,5,5,55,8,,,,,,,,,,,,,,,,,,,AFNE03.jpg,AFSA09.jpg,AFNE14.jpg,AFSA16.jpg,AFSA09.jpg,FS,4,num_6,32,num_8,1.26680488384,,,2017_Jun_20_1224,60.0239302488,MAFE4ImagesEEG,001,200619,
AFNE01.JPG,AFNE01.JPG,AFNE01.JPG,AFNE01.JPG,AFNE01.JPG,AFNE01.JPG,,,,,5,6,56,4,,,,,,,,,,,,,,,,,,,AFSA10.jpg,AFNE20.jpg,AFNE13.jpg,AFSA18.jpg,AFNE20.jpg,FN,3,num_6,32,num_2,0.966763091623,,,2017_Jun_20_1224,60.0239302488,MAFE4ImagesEEG,001,200619,
AFNE01.JPG,AFNE01.JPG,AFNE01.JPG,AFNE01.JPG,AFNE01.JPG,AFNE01.JPG,,,,,5,7,57,7,,,,,,,,,,,,,,,,,,,AFSA10.jpg,AFNE10.jpg,AFSA02.jpg,AFNE16.jpg,AFSA10.jpg,FS,4,num_8,32,num_6,0.700117935776,,,2017_Jun_20_1224,60.0239302488,MAFE4ImagesEEG,001,200619,
AFNE01.JPG,AFNE01.JPG,AFNE01.JPG,AFNE01.JPG,AFNE01.JPG,AFNE01.JPG,,,,,5,8,58,2,,,,,,,,,,,,,,,,,,,AFNE10.jpg,AFSA20.jpg,AFNE18.jpg,AFSA11.jpg,AFNE18.jpg,FN,3,num_2,16,num_2,0.683462275774,,,2017_Jun_20_1224,60.0239302488,MAFE4ImagesEEG,001,200619,
AFNE01.JPG,AFNE01.JPG,AFNE01.JPG,AFNE01.JPG,AFNE01.JPG,AFNE01.JPG,,,,,5,9,59,9,,,,,,,,,,,,,,,,,,,AFSA13.jpg,AFNE19.jpg,AFNE13.jpg,AFSA02.jpg,AFSA13.jpg,FS,4,num_8,32,num_2,0.90031493362,,,2017_Jun_20_1224,60.0239302488,MAFE4ImagesEEG,001,200619,
,,,,,,,,,,,,,,,,,,,,,,,,,,,,,,,,,,,,,,,,,,,space,1.83338053536,2017_Jun_20_1224,60.0239302488,MAFE4ImagesEEG,001,200619,
AFNE01.JPG,AFNE01.JPG,AFNE01.JPG,AFNE01.JPG,AFNE01.JPG,AFNE01.JPG,,,,,,,,,0,0,0,1,,,,,,,,,,,,,,,AMNE01.jpg,AMSA13.jpg,AMNE16.jpg,AMSA01.jpg,AMSA13.jpg,MS,2,num_6,32,num_2,1.18351375451,,,2017_Jun_20_1224,60.0239302488,MAFE4ImagesEEG,001,200619,
AFNE01.JPG,AFNE01.JPG,AFNE01.JPG,AFNE01.JPG,AFNE01.JPG,AFNE01.JPG,,,,,,,,,0,1,1,7,,,,,,,,,,,,,,,AMNE07.jpg,AMSA10.jpg,AMNE12.jpg,AMSA02.jpg,AMSA02.jpg,MS,2,num_4,16,num_4,0.750030069263,,,2017_Jun_20_1224,60.0239302488,MAFE4ImagesEEG,001,200619,
AFNE01.JPG,AFNE01.JPG,AFNE01.JPG,AFNE01.JPG,AFNE01.JPG,AFNE01.JPG,,,,,,,,,0,2,2,6,,,,,,,,,,,,,,,AMNE10.jpg,AMSA09.jpg,AMNE13.jpg,AMSA13.jpg,AMNE10.jpg,MN,1,num_8,16,num_8,0.81677042041,,,2017_Jun_20_1224,60.0239302488,MAFE4ImagesEEG,001,200619,
AFNE01.JPG,AFNE01.JPG,AFNE01.JPG,AFNE01.JPG,AFNE01.JPG,AFNE01.JPG,,,,,,,,,0,3,3,3,,,,,,,,,,,,,,,AMSA12.jpg,AMSA04.jpg,AMNE03.jpg,AMNE06.jpg,AMSA12.jpg,MS,2,num_8,32,num_6,0.616825523437,,,2017_Jun_20_1224,60.0239302488,MAFE4ImagesEEG,001,200619,
AFNE01.JPG,AFNE01.JPG,AFNE01.JPG,AFNE01.JPG,AFNE01.JPG,AFNE01.JPG,,,,,,,,,0,4,4,8,,,,,,,,,,,,,,,AMNE01.jpg,AMNE03.jpg,AMSA09.jpg,AMSA12.jpg,AMNE03.jpg,MN,1,num_6,32,num_2,0.800118609332,,,2017_Jun_20_1224,60.0239302488,MAFE4ImagesEEG,001,200619,
AFNE01.JPG,AFNE01.JPG,AFNE01.JPG,AFNE01.JPG,AFNE01.JPG,AFNE01.JPG,,,,,,,,,0,5,5,9,,,,,,,,,,,,,,,AMSA15.jpg,AMSA07.jpg,AMNE14.jpg,AMNE12.jpg,AMSA15.jpg,MS,2,num_8,16,num_8,0.466813287116,,,2017_Jun_20_1224,60.0239302488,MAFE4ImagesEEG,001,200619,
AFNE01.JPG,AFNE01.JPG,AFNE01.JPG,AFNE01.JPG,AFNE01.JPG,AFNE01.JPG,,,,,,,,,0,6,6,2,,,,,,,,,,,,,,,AMSA05.jpg,AMNE12.jpg,AMSA06.jpg,AMNE15.jpg,AMNE15.jpg,MN,1,num_4,16,num_4,0.650137164048,,,2017_Jun_20_1224,60.0239302488,MAFE4ImagesEEG,001,200619,
AFNE01.JPG,AFNE01.JPG,AFNE01.JPG,AFNE01.JPG,AFNE01.JPG,AFNE01.JPG,,,,,,,,,0,7,7,4,,,,,,,,,,,,,,,AMNE14.jpg,AMSA11.jpg,AMSA12.jpg,AMNE19.jpg,AMSA12.jpg,MS,2,num_2,16,num_2,0.833445966127,,,2017_Jun_20_1224,60.0239302488,MAFE4ImagesEEG,001,200619,
AFNE01.JPG,AFNE01.JPG,AFNE01.JPG,AFNE01.JPG,AFNE01.JPG,AFNE01.JPG,,,,,,,,,0,8,8,5,,,,,,,,,,,,,,,AMNE12.jpg,AMNE19.jpg,AMSA14.jpg,AMSA18.jpg,AMSA14.jpg,MS,2,num_2,16,num_2,0.766803440521,,,2017_Jun_20_1224,60.0239302488,MAFE4ImagesEEG,001,200619,
AFNE01.JPG,AFNE01.JPG,AFNE01.JPG,AFNE01.JPG,AFNE01.JPG,AFNE01.JPG,,,,,,,,,0,9,9,0,,,,,,,,,,,,,,,AMSA18.jpg,AMSA01.jpg,AMNE04.jpg,AMNE16.jpg,AMSA18.jpg,MS,2,num_8,32,num_2,0.66680308769,,,2017_Jun_20_1224,60.0239302488,MAFE4ImagesEEG,001,200619,
AFNE01.JPG,AFNE01.JPG,AFNE01.JPG,AFNE01.JPG,AFNE01.JPG,AFNE01.JPG,,,,,,,,,1,0,10,7,,,,,,,,,,,,,,,AMSA06.jpg,AMNE03.jpg,AMSA10.jpg,AMNE15.jpg,AMNE15.jpg,MN,1,num_4,16,num_4,1.01677593717,,,2017_Jun_20_1224,60.0239302488,MAFE4ImagesEEG,001,200619,
AFNE01.JPG,AFNE01.JPG,AFNE01.JPG,AFNE01.JPG,AFNE01.JPG,AFNE01.JPG,,,,,,,,,1,1,11,5,,,,,,,,,,,,,,,AMSA19.jpg,AMNE07.jpg,AMNE02.jpg,AMSA13.jpg,AMSA13.jpg,MS,2,num_4,32,num_2,0.783470967785,,,2017_Jun_20_1224,60.0239302488,MAFE4ImagesEEG,001,200619,
AFNE01.JPG,AFNE01.JPG,AFNE01.JPG,AFNE01.JPG,AFNE01.JPG,AFNE01.JPG,,,,,,,,,1,2,12,0,,,,,,,,,,,,,,,AMNE10.jpg,AMSA20.jpg,AMNE01.jpg,AMSA17.jpg,AMNE10.jpg,MN,1,num_8,16,num_8,0.783481231541,,,2017_Jun_20_1224,60.0239302488,MAFE4ImagesEEG,001,200619,
AFNE01.JPG,AFNE01.JPG,AFNE01.JPG,AFNE01.JPG,AFNE01.JPG,AFNE01.JPG,,,,,,,,,1,3,13,2,,,,,,,,,,,,,,,AMNE07.jpg,AMSA06.jpg,AMNE17.jpg,AMSA12.jpg,AMSA06.jpg,MS,2,num_6,32,num_8,0.916800281149,,,2017_Jun_20_1224,60.0239302488,MAFE4ImagesEEG,001,200619,
AFNE01.JPG,AFNE01.JPG,AFNE01.JPG,AFNE01.JPG,AFNE01.JPG,AFNE01.JPG,,,,,,,,,1,4,14,6,,,,,,,,,,,,,,,AMSA07.jpg,AMNE05.jpg,AMNE19.jpg,AMSA10.jpg,AMNE19.jpg,MN,1,num_2,16,num_2,0.783507211367,,,2017_Jun_20_1224,60.0239302488,MAFE4ImagesEEG,001,200619,
AFNE01.JPG,AFNE01.JPG,AFNE01.JPG,AFNE01.JPG,AFNE01.JPG,AFNE01.JPG,,,,,,,,,1,5,15,1,,,,,,,,,,,,,,,AMSA12.jpg,AMNE19.jpg,AMNE13.jpg,AMSA04.jpg,AMSA12.jpg,MS,2,num_8,32,num_6,0.60047873517,,,2017_Jun_20_1224,60.0239302488,MAFE4ImagesEEG,001,200619,
AFNE01.JPG,AFNE01.JPG,AFNE01.JPG,AFNE01.JPG,AFNE01.JPG,AFNE01.JPG,,,,,,,,,1,6,16,3,,,,,,,,,,,,,,,AMSA18.jpg,AMSA04.jpg,AMNE06.jpg,AMNE03.jpg,AMNE03.jpg,MN,1,num_4,32,num_6,0.516821000958,,,2017_Jun_20_1224,60.0239302488,MAFE4ImagesEEG,001,200619,
AFNE01.JPG,AFNE01.JPG,AFNE01.JPG,AFNE01.JPG,AFNE01.JPG,AFNE01.JPG,,,,,,,,,1,7,17,9,,,,,,,,,,,,,,,AMSA13.jpg,AMSA06.jpg,AMNE20.jpg,AMNE14.jpg,AMNE20.jpg,MN,1,num_2,16,num_2,0.683438861859,,,2017_Jun_20_1224,60.0239302488,MAFE4ImagesEEG,001,200619,
AFNE01.JPG,AFNE01.JPG,AFNE01.JPG,AFNE01.JPG,AFNE01.JPG,AFNE01.JPG,,,,,,,,,1,8,18,4,,,,,,,,,,,,,,,AMNE19.jpg,AMNE17.jpg,AMSA15.jpg,AMSA11.jpg,AMNE19.jpg,MN,1,num_8,32,num_6,0.633479579585,,,2017_Jun_20_1224,60.0239302488,MAFE4ImagesEEG,001,200619,
AFNE01.JPG,AFNE01.JPG,AFNE01.JPG,AFNE01.JPG,AFNE01.JPG,AFNE01.JPG,,,,,,,,,1,9,19,8,,,,,,,,,,,,,,,AMSA06.jpg,AMSA04.jpg,AMNE15.jpg,AMNE08.jpg,AMNE08.jpg,MN,1,num_4,16,num_4,0.866786152706,,,2017_Jun_20_1224,60.0239302488,MAFE4ImagesEEG,001,200619,
AFNE01.JPG,AFNE01.JPG,AFNE01.JPG,AFNE01.JPG,AFNE01.JPG,AFNE01.JPG,,,,,,,,,2,0,20,0,,,,,,,,,,,,,,,AMNE10.jpg,AMSA05.jpg,AMSA08.jpg,AMNE19.jpg,AMSA08.jpg,MS,2,num_2,16,num_2,0.816721668001,,,2017_Jun_20_1224,60.0239302488,MAFE4ImagesEEG,001,200619,
AFNE01.JPG,AFNE01.JPG,AFNE01.JPG,AFNE01.JPG,AFNE01.JPG,AFNE01.JPG,,,,,,,,,2,1,21,6,,,,,,,,,,,,,,,AMNE16.jpg,AMNE03.jpg,AMSA02.jpg,AMSA01.jpg,AMNE16.jpg,MN,1,num_8,16,num_8,0.685268357513,,,2017_Jun_20_1224,60.0239302488,MAFE4ImagesEEG,001,200619,
AFNE01.JPG,AFNE01.JPG,AFNE01.JPG,AFNE01.JPG,AFNE01.JPG,AFNE01.JPG,,,,,,,,,2,2,22,1,,,,,,,,,,,,,,,AMNE03.jpg,AMSA11.jpg,AMSA05.jpg,AMNE08.jpg,AMNE03.jpg,MN,1,num_8,32,num_6,0.900155205629,,,2017_Jun_20_1224,60.0239302488,MAFE4ImagesEEG,001,200619,
AFNE01.JPG,AFNE01.JPG,AFNE01.JPG,AFNE01.JPG,AFNE01.JPG,AFNE01.JPG,,,,,,,,,2,3,23,4,,,,,,,,,,,,,,,AMSA06.jpg,AMNE05.jpg,AMSA08.jpg,AMNE18.jpg,AMSA08.jpg,MS,2,num_2,32,num_6,0.666787692229,,,2017_Jun_20_1224,60.0239302488,MAFE4ImagesEEG,001,200619,
AFNE01.JPG,AFNE01.JPG,AFNE01.JPG,AFNE01.JPG,AFNE01.JPG,AFNE01.JPG,,,,,,,,,2,4,24,9,,,,,,,,,,,,,,,AMNE19.jpg,AMSA12.jpg,AMNE06.jpg,AMSA16.jpg,AMSA12.jpg,MS,2,num_6,32,num_4,0.350142520387,,,2017_Jun_20_1224,60.0239302488,MAFE4ImagesEEG,001,200619,
AFNE01.JPG,AFNE01.JPG,AFNE01.JPG,AFNE01.JPG,AFNE01.JPG,AFNE01.JPG,,,,,,,,,2,5,25,5,,,,,,,,,,,,,,,AMNE08.jpg,AMSA05.jpg,AMSA12.jpg,AMNE01.jpg,AMSA12.jpg,MS,2,num_2,32,num_8,0.483493964886,,,2017_Jun_20_1224,60.0239302488,MAFE4ImagesEEG,001,200619,
AFNE01.JPG,AFNE01.JPG,AFNE01.JPG,AFNE01.JPG,AFNE01.JPG,AFNE01.JPG,,,,,,,,,2,6,26,7,,,,,,,,,,,,,,,AMSA06.jpg,AMNE07.jpg,AMSA02.jpg,AMNE11.jpg,AMNE11.jpg,MN,1,num_4,32,num_2,0.283530464862,,,2017_Jun_20_1224,60.0239302488,MAFE4ImagesEEG,001,200619,
AFNE01.JPG,AFNE01.JPG,AFNE01.JPG,AFNE01.JPG,AFNE01.JPG,AFNE01.JPG,,,,,,,,,2,7,27,3,,,,,,,,,,,,,,,AMSA15.jpg,AMNE13.jpg,AMNE20.jpg,AMSA20.jpg,AMSA15.jpg,MS,2,num_8,32,num_4,0.817117139464,,,2017_Jun_20_1224,60.0239302488,MAFE4ImagesEEG,001,200619,
AFNE01.JPG,AFNE01.JPG,AFNE01.JPG,AFNE01.JPG,AFNE01.JPG,AFNE01.JPG,,,,,,,,,2,8,28,8,,,,,,,,,,,,,,,AMSA09.jpg,AMSA02.jpg,AMNE07.jpg,AMNE15.jpg,AMNE07.jpg,MN,1,num_2,32,num_6,0.316814522143,,,2017_Jun_20_1224,60.0239302488,MAFE4ImagesEEG,001,200619,
AFNE01.JPG,AFNE01.JPG,AFNE01.JPG,AFNE01.JPG,AFNE01.JPG,AFNE01.JPG,,,,,,,,,2,9,29,2,,,,,,,,,,,,,,,AMSA16.jpg,AMSA11.jpg,AMNE18.jpg,AMNE11.jpg,AMSA11.jpg,MS,2,num_6,32,num_4,0.283503843471,,,2017_Jun_20_1224,60.0239302488,MAFE4ImagesEEG,001,200619,
AFNE01.JPG,AFNE01.JPG,AFNE01.JPG,AFNE01.JPG,AFNE01.JPG,AFNE01.JPG,,,,,,,,,3,0,30,4,,,,,,,,,,,,,,,AMSA01.jpg,AMSA12.jpg,AMNE02.jpg,AMNE12.jpg,AMSA12.jpg,MS,2,num_6,32,num_8,0.983450825326,,,2017_Jun_20_1224,60.0239302488,MAFE4ImagesEEG,001,200619,
AFNE01.JPG,AFNE01.JPG,AFNE01.JPG,AFNE01.JPG,AFNE01.JPG,AFNE01.JPG,,,,,,,,,3,1,31,2,,,,,,,,,,,,,,,AMSA06.jpg,AMNE11.jpg,AMSA01.jpg,AMNE10.jpg,AMNE11.jpg,MN,1,num_6,16,num_6,0.61679761915,,,2017_Jun_20_1224,60.0239302488,MAFE4ImagesEEG,001,200619,
AFNE01.JPG,AFNE01.JPG,AFNE01.JPG,AFNE01.JPG,AFNE01.JPG,AFNE01.JPG,,,,,,,,,3,2,32,8,,,,,,,,,,,,,,,AMSA01.jpg,AMNE04.jpg,AMNE08.jpg,AMSA07.jpg,AMNE08.jpg,MN,1,num_2,32,num_4,0.716829083627,,,2017_Jun_20_1224,60.0239302488,MAFE4ImagesEEG,001,200619,
AFNE01.JPG,AFNE01.JPG,AFNE01.JPG,AFNE01.JPG,AFNE01.JPG,AFNE01.JPG,,,,,,,,,3,3,33,7,,,,,,,,,,,,,,,AMNE13.jpg,AMSA19.jpg,AMNE10.jpg,AMSA14.jpg,AMSA19.jpg,MS,2,num_6,32,num_8,0.516884507262,,,2017_Jun_20_1224,60.0239302488,MAFE4ImagesEEG,001,200619,
AFNE01.JPG,AFNE01.JPG,AFNE01.JPG,AFNE01.JPG,AFNE01.JPG,AFNE01.JPG,,,,,,,,,3,4,34,5,,,,,,,,,,,,,,,AMSA19.jpg,AMSA12.jpg,AMNE05.jpg,AMNE06.jpg,AMNE05.jpg,MN,1,num_2,16,num_2,0.266804883839,,,2017_Jun_20_1224,60.0239302488,MAFE4ImagesEEG,001,200619,
AFNE01.JPG,AFNE01.JPG,AFNE01.JPG,AFNE01.JPG,AFNE01.JPG,AFNE01.JPG,,,,,,,,,3,5,35,1,,,,,,,,,,,,,,,AMSA03.jpg,AMSA15.jpg,AMNE06.jpg,AMNE08.jpg,AMNE06.jpg,MN,1,num_2,32,num_4,2.45005466999,,,2017_Jun_20_1224,60.0239302488,MAFE4ImagesEEG,001,200619,
AFNE01.JPG,AFNE01.JPG,AFNE01.JPG,AFNE01.JPG,AFNE01.JPG,AFNE01.JPG,,,,,,,,,3,6,36,3,,,,,,,,,,,,,,,AMNE20.jpg,AMSA14.jpg,AMSA07.jpg,AMNE07.jpg,AMNE07.jpg,MN,1,num_4,32,num_2,0.599814484478,,,2017_Jun_20_1224,60.0239302488,MAFE4ImagesEEG,001,200619,
AFNE01.JPG,AFNE01.JPG,AFNE01.JPG,AFNE01.JPG,AFNE01.JPG,AFNE01.JPG,,,,,,,,,3,7,37,0,,,,,,,,,,,,,,,AMSA17.jpg,AMNE12.jpg,AMSA13.jpg,AMNE08.jpg,AMSA17.jpg,MS,2,num_8,16,num_8,0.483516737353,,,2017_Jun_20_1224,60.0239302488,MAFE4ImagesEEG,001,200619,
AFNE01.JPG,AFNE01.JPG,AFNE01.JPG,AFNE01.JPG,AFNE01.JPG,AFNE01.JPG,,,,,,,,,3,8,38,9,,,,,,,,,,,,,,,AMNE17.jpg,AMNE18.jpg,AMSA11.jpg,AMSA20.jpg,AMSA11.jpg,MS,2,num_2,32,num_6,0.316815805039,,,2017_Jun_20_1224,60.0239302488,MAFE4ImagesEEG,001,200619,
AFNE01.JPG,AFNE01.JPG,AFNE01.JPG,AFNE01.JPG,AFNE01.JPG,AFNE01.JPG,,,,,,,,,3,9,39,6,,,,,,,,,,,,,,,AMNE01.jpg,AMNE03.jpg,AMSA13.jpg,AMSA01.jpg,AMNE03.jpg,MN,1,num_6,32,num_8,0.400167874875,,,2017_Jun_20_1224,60.0239302488,MAFE4ImagesEEG,001,200619,
AFNE01.JPG,AFNE01.JPG,AFNE01.JPG,AFNE01.JPG,AFNE01.JPG,AFNE01.JPG,,,,,,,,,4,0,40,1,,,,,,,,,,,,,,,AMNE01.jpg,AMSA04.jpg,AMNE06.jpg,AMSA05.jpg,AMNE01.jpg,MN,1,num_8,32,num_4,0.366796255927,,,2017_Jun_20_1224,60.0239302488,MAFE4ImagesEEG,001,200619,
AFNE01.JPG,AFNE01.JPG,AFNE01.JPG,AFNE01.JPG,AFNE01.JPG,AFNE01.JPG,,,,,,,,,4,1,41,6,,,,,,,,,,,,,,,AMNE17.jpg,AMNE12.jpg,AMSA14.jpg,AMSA19.jpg,AMSA14.jpg,MS,2,num_2,16,num_2,0.783441780601,,,2017_Jun_20_1224,60.0239302488,MAFE4ImagesEEG,001,200619,
AFNE01.JPG,AFNE01.JPG,AFNE01.JPG,AFNE01.JPG,AFNE01.JPG,AFNE01.JPG,,,,,,,,,4,2,42,0,,,,,,,,,,,,,,,AMSA06.jpg,AMNE02.jpg,AMSA15.jpg,AMNE11.jpg,AMSA15.jpg,MS,2,num_2,16,num_2,0.650147748413,,,2017_Jun_20_1224,60.0239302488,MAFE4ImagesEEG,001,200619,
AFNE01.JPG,AFNE01.JPG,AFNE01.JPG,AFNE01.JPG,AFNE01.JPG,AFNE01.JPG,,,,,,,,,4,3,43,7,,,,,,,,,,,,,,,AMSA03.jpg,AMNE10.jpg,AMSA15.jpg,AMNE18.jpg,AMNE18.jpg,MN,1,num_4,16,num_4,0.600185258896,,,2017_Jun_20_1224,60.0239302488,MAFE4ImagesEEG,001,200619,
AFNE01.JPG,AFNE01.JPG,AFNE01.JPG,AFNE01.JPG,AFNE01.JPG,AFNE01.JPG,,,,,,,,,4,4,44,9,,,,,,,,,,,,,,,AMSA12.jpg,AMSA04.jpg,AMNE17.jpg,AMNE04.jpg,AMSA04.jpg,MS,2,num_6,32,num_2,3.1166290706,,,2017_Jun_20_1224,60.0239302488,MAFE4ImagesEEG,001,200619,
AFNE01.JPG,AFNE01.JPG,AFNE01.JPG,AFNE01.JPG,AFNE01.JPG,AFNE01.JPG,,,,,,,,,4,5,45,5,,,,,,,,,,,,,,,AMSA17.jpg,AMNE11.jpg,AMNE03.jpg,AMSA18.jpg,AMNE11.jpg,MN,1,num_6,32,num_2,2.43321779242,,,2017_Jun_20_1224,60.0239302488,MAFE4ImagesEEG,001,200619,
AFNE01.JPG,AFNE01.JPG,AFNE01.JPG,AFNE01.JPG,AFNE01.JPG,AFNE01.JPG,,,,,,,,,4,6,46,3,,,,,,,,,,,,,,,AMSA02.jpg,AMSA08.jpg,AMNE18.jpg,AMNE15.jpg,AMNE18.jpg,MN,1,num_2,16,num_2,0.800146834343,,,2017_Jun_20_1224,60.0239302488,MAFE4ImagesEEG,001,200619,
AFNE01.JPG,AFNE01.JPG,AFNE01.JPG,AFNE01.JPG,AFNE01.JPG,AFNE01.JPG,,,,,,,,,4,7,47,2,,,,,,,,,,,,,,,AMSA15.jpg,AMSA19.jpg,AMNE01.jpg,AMNE09.jpg,AMSA15.jpg,MS,2,num_8,32,num_2,1.14979445434,,,2017_Jun_20_1224,60.0239302488,MAFE4ImagesEEG,001,200619,
AFNE01.JPG,AFNE01.JPG,AFNE01.JPG,AFNE01.JPG,AFNE01.JPG,AFNE01.JPG,,,,,,,,,4,8,48,8,,,,,,,,,,,,,,,AMSA18.jpg,AMSA16.jpg,AMNE03.jpg,AMNE16.jpg,AMNE16.jpg,MN,1,num_4,32,num_6,0.43344295118,,,2017_Jun_20_1224,60.0239302488,MAFE4ImagesEEG,001,200619,
AFNE01.JPG,AFNE01.JPG,AFNE01.JPG,AFNE01.JPG,AFNE01.JPG,AFNE01.JPG,,,,,,,,,4,9,49,4,,,,,,,,,,,,,,,AMNE17.jpg,AMSA08.jpg,AMNE02.jpg,AMSA11.jpg,AMNE02.jpg,MN,1,num_2,32,num_6,0.516851150431,,,2017_Jun_20_1224,60.0239302488,MAFE4ImagesEEG,001,200619,
AFNE01.JPG,AFNE01.JPG,AFNE01.JPG,AFNE01.JPG,AFNE01.JPG,AFNE01.JPG,,,,,,,,,5,0,50,4,,,,,,,,,,,,,,,AMNE10.jpg,AMSA19.jpg,AMSA13.jpg,AMNE15.jpg,AMSA13.jpg,MS,2,num_2,32,num_8,0.616764582926,,,2017_Jun_20_1224,60.0239302488,MAFE4ImagesEEG,001,200619,
AFNE01.JPG,AFNE01.JPG,AFNE01.JPG,AFNE01.JPG,AFNE01.JPG,AFNE01.JPG,,,,,,,,,5,1,51,3,,,,,,,,,,,,,,,AMNE03.jpg,AMNE02.jpg,AMSA11.jpg,AMSA06.jpg,AMNE02.jpg,MN,1,num_6,32,num_8,1.05013536802,,,2017_Jun_20_1224,60.0239302488,MAFE4ImagesEEG,001,200619,
AFNE01.JPG,AFNE01.JPG,AFNE01.JPG,AFNE01.JPG,AFNE01.JPG,AFNE01.JPG,,,,,,,,,5,2,52,0,,,,,,,,,,,,,,,AMNE02.jpg,AMSA17.jpg,AMSA14.jpg,AMNE06.jpg,AMNE02.jpg,MN,1,num_8,32,num_6,0.616823598975,,,2017_Jun_20_1224,60.0239302488,MAFE4ImagesEEG,001,200619,
AFNE01.JPG,AFNE01.JPG,AFNE01.JPG,AFNE01.JPG,AFNE01.JPG,AFNE01.JPG,,,,,,,,,5,3,53,7,,,,,,,,,,,,,,,AMNE20.jpg,AMNE01.jpg,AMSA15.jpg,AMSA04.jpg,AMSA15.jpg,MS,2,num_2,32,num_6,0.516807529842,,,2017_Jun_20_1224,60.0239302488,MAFE4ImagesEEG,001,200619,
AFNE01.JPG,AFNE01.JPG,AFNE01.JPG,AFNE01.JPG,AFNE01.JPG,AFNE01.JPG,,,,,,,,,5,4,54,2,,,,,,,,,,,,,,,AMNE06.jpg,AMSA07.jpg,AMSA02.jpg,AMNE16.jpg,AMSA07.jpg,MS,2,num_6,32,num_8,0.800097440486,,,2017_Jun_20_1224,60.0239302488,MAFE4ImagesEEG,001,200619,
AFNE01.JPG,AFNE01.JPG,AFNE01.JPG,AFNE01.JPG,AFNE01.JPG,AFNE01.JPG,,,,,,,,,5,5,55,6,,,,,,,,,,,,,,,AMNE10.jpg,AMSA04.jpg,AMSA02.jpg,AMNE04.jpg,AMSA02.jpg,MS,2,num_2,32,num_8,0.750168949249,,,2017_Jun_20_1224,60.0239302488,MAFE4ImagesEEG,001,200619,
AFNE01.JPG,AFNE01.JPG,AFNE01.JPG,AFNE01.JPG,AFNE01.JPG,AFNE01.JPG,,,,,,,,,5,6,56,8,,,,,,,,,,,,,,,AMNE04.jpg,AMNE05.jpg,AMSA01.jpg,AMSA04.jpg,AMSA01.jpg,MS,2,num_2,32,num_6,0.733447858598,,,2017_Jun_20_1224,60.0239302488,MAFE4ImagesEEG,001,200619,
AFNE01.JPG,AFNE01.JPG,AFNE01.JPG,AFNE01.JPG,AFNE01.JPG,AFNE01.JPG,,,,,,,,,5,7,57,5,,,,,,,,,,,,,,,AMSA06.jpg,AMNE08.jpg,AMSA15.jpg,AMNE04.jpg,AMNE08.jpg,MN,1,num_6,32,num_4,0.516656782478,,,2017_Jun_20_1224,60.0239302488,MAFE4ImagesEEG,001,200619,
AFNE01.JPG,AFNE01.JPG,AFNE01.JPG,AFNE01.JPG,AFNE01.JPG,AFNE01.JPG,,,,,,,,,5,8,58,9,,,,,,,,,,,,,,,AMSA01.jpg,AMNE09.jpg,AMSA14.jpg,AMNE17.jpg,AMNE09.jpg,MN,1,num_6,16,num_6,0.416849193978,,,2017_Jun_20_1224,60.0239302488,MAFE4ImagesEEG,001,200619,
AFNE01.JPG,AFNE01.JPG,AFNE01.JPG,AFNE01.JPG,AFNE01.JPG,AFNE01.JPG,,,,,,,,,5,9,59,1,,,,,,,,,,,,,,,AMNE09.jpg,AMNE12.jpg,AMSA05.jpg,AMSA17.jpg,AMSA17.jpg,MS,2,num_4,32,num_6,1.01647508377,,,2017_Jun_20_1224,60.0239302488,MAFE4ImagesEEG,001,200619,
,,,,,,,,,,,,,,,,,,,,,,,,,,,,,,,,,,,,,,,,,,,space,4.01651421399,2017_Jun_20_1224,60.0239302488,MAFE4ImagesEEG,001,200619,
AFNE01.JPG,AFNE01.JPG,AFNE01.JPG,AFNE01.JPG,AFNE01.JPG,AFNE01.JPG,,,,,,,,,,,,,0,0,0,9,,,,,,,,,,,AFNE20.jpg,AFSA18.jpg,AFNE16.jpg,AFSA06.jpg,AFNE20.jpg,FN,3,num_8,16,num_8,0.616774525843,,,2017_Jun_20_1224,60.0239302488,MAFE4ImagesEEG,001,200619,
AFNE01.JPG,AFNE01.JPG,AFNE01.JPG,AFNE01.JPG,AFNE01.JPG,AFNE01.JPG,,,,,,,,,,,,,0,1,1,1,,,,,,,,,,,AFNE05.jpg,AFNE04.jpg,AFSA14.jpg,AFSA13.jpg,AFSA13.jpg,FS,4,num_4,32,num_6,0.550159263075,,,2017_Jun_20_1224,60.0239302488,MAFE4ImagesEEG,001,200619,
AFNE01.JPG,AFNE01.JPG,AFNE01.JPG,AFNE01.JPG,AFNE01.JPG,AFNE01.JPG,,,,,,,,,,,,,0,2,2,2,,,,,,,,,,,AFSA04.jpg,AFNE02.jpg,AFSA18.jpg,AFNE08.jpg,AFNE08.jpg,FN,3,num_4,32,num_8,0.366782143479,,,2017_Jun_20_1224,60.0239302488,MAFE4ImagesEEG,001,200619,
AFNE01.JPG,AFNE01.JPG,AFNE01.JPG,AFNE01.JPG,AFNE01.JPG,AFNE01.JPG,,,,,,,,,,,,,0,3,3,4,,,,,,,,,,,AFSA06.jpg,AFSA01.jpg,AFNE10.jpg,AFNE05.jpg,AFSA06.jpg,FS,4,num_8,32,num_4,0.333514443948,,,2017_Jun_20_1224,60.0239302488,MAFE4ImagesEEG,001,200619,
AFNE01.JPG,AFNE01.JPG,AFNE01.JPG,AFNE01.JPG,AFNE01.JPG,AFNE01.JPG,,,,,,,,,,,,,0,4,4,3,,,,,,,,,,,AFNE02.jpg,AFSA19.jpg,AFNE13.jpg,AFSA01.jpg,AFSA19.jpg,FS,4,num_6,32,num_8,0.31684242643,,,2017_Jun_20_1224,60.0239302488,MAFE4ImagesEEG,001,200619,
AFNE01.JPG,AFNE01.JPG,AFNE01.JPG,AFNE01.JPG,AFNE01.JPG,AFNE01.JPG,,,,,,,,,,,,,0,5,5,0,,,,,,,,,,,AFSA08.jpg,AFSA06.jpg,AFNE13.jpg,AFNE06.jpg,AFSA06.jpg,FS,4,num_6,32,num_8,0.483548490447,,,2017_Jun_20_1224,60.0239302488,MAFE4ImagesEEG,001,200619,
AFNE01.JPG,AFNE01.JPG,AFNE01.JPG,AFNE01.JPG,AFNE01.JPG,AFNE01.JPG,,,,,,,,,,,,,0,6,6,8,,,,,,,,,,,AFSA20.jpg,AFNE12.jpg,AFNE15.jpg,AFSA09.jpg,AFNE12.jpg,FN,3,num_6,16,num_6,0.383471801761,,,2017_Jun_20_1224,60.0239302488,MAFE4ImagesEEG,001,200619,
AFNE01.JPG,AFNE01.JPG,AFNE01.JPG,AFNE01.JPG,AFNE01.JPG,AFNE01.JPG,,,,,,,,,,,,,0,7,7,6,,,,,,,,,,,AFSA02.jpg,AFSA08.jpg,AFNE18.jpg,AFNE10.jpg,AFSA02.jpg,FS,4,num_8,32,num_2,0.666729959077,,,2017_Jun_20_1224,60.0239302488,MAFE4ImagesEEG,001,200619,
AFNE01.JPG,AFNE01.JPG,AFNE01.JPG,AFNE01.JPG,AFNE01.JPG,AFNE01.JPG,,,,,,,,,,,,,0,8,8,7,,,,,,,,,,,AFSA01.jpg,AFNE01.jpg,AFSA19.jpg,AFNE14.jpg,AFNE14.jpg,FN,3,num_4,32,num_8,0.366808764753,,,2017_Jun_20_1224,60.0239302488,MAFE4ImagesEEG,001,200619,
AFNE01.JPG,AFNE01.JPG,AFNE01.JPG,AFNE01.JPG,AFNE01.JPG,AFNE01.JPG,,,,,,,,,,,,,0,9,9,5,,,,,,,,,,,AFNE06.jpg,AFSA03.jpg,AFSA09.jpg,AFNE03.jpg,AFSA03.jpg,FS,4,num_6,16,num_6,0.333364658756,,,2017_Jun_20_1224,60.0239302488,MAFE4ImagesEEG,001,200619,
AFNE01.JPG,AFNE01.JPG,AFNE01.JPG,AFNE01.JPG,AFNE01.JPG,AFNE01.JPG,,,,,,,,,,,,,1,0,10,5,,,,,,,,,,,AFSA08.jpg,AFSA15.jpg,AFNE07.jpg,AFNE14.jpg,AFSA15.jpg,FS,4,num_6,32,num_8,0.383488159394,,,2017_Jun_20_1224,60.0239302488,MAFE4ImagesEEG,001,200619,
AFNE01.JPG,AFNE01.JPG,AFNE01.JPG,AFNE01.JPG,AFNE01.JPG,AFNE01.JPG,,,,,,,,,,,,,1,1,11,6,,,,,,,,,,,AFSA17.jpg,AFNE01.jpg,AFNE10.jpg,AFSA02.jpg,AFSA17.jpg,FS,4,num_8,32,num_4,0.616846692166,,,2017_Jun_20_1224,60.0239302488,MAFE4ImagesEEG,001,200619,
AFNE01.JPG,AFNE01.JPG,AFNE01.JPG,AFNE01.JPG,AFNE01.JPG,AFNE01.JPG,,,,,,,,,,,,,1,2,12,8,,,,,,,,,,,AFSA17.jpg,AFSA01.jpg,AFNE07.jpg,AFNE17.jpg,AFNE17.jpg,FN,3,num_4,32,num_8,0.46677191183,,,2017_Jun_20_1224,60.0239302488,MAFE4ImagesEEG,001,200619,
AFNE01.JPG,AFNE01.JPG,AFNE01.JPG,AFNE01.JPG,AFNE01.JPG,AFNE01.JPG,,,,,,,,,,,,,1,3,13,7,,,,,,,,,,,AFNE13.jpg,AFSA02.jpg,AFSA03.jpg,AFNE12.jpg,AFSA02.jpg,FS,4,num_6,32,num_8,0.566808828968,,,2017_Jun_20_1224,60.0239302488,MAFE4ImagesEEG,001,200619,
AFNE01.JPG,AFNE01.JPG,AFNE01.JPG,AFNE01.JPG,AFNE01.JPG,AFNE01.JPG,,,,,,,,,,,,,1,4,14,2,,,,,,,,,,,AFNE09.jpg,AFSA18.jpg,AFSA03.jpg,AFNE02.jpg,AFSA03.jpg,FS,4,num_2,32,num_6,0.433566115098,,,2017_Jun_20_1224,60.0239302488,MAFE4ImagesEEG,001,200619,
AFNE01.JPG,AFNE01.JPG,AFNE01.JPG,AFNE01.JPG,AFNE01.JPG,AFNE01.JPG,,,,,,,,,,,,,1,5,15,1,,,,,,,,,,,AFSA20.jpg,AFSA08.jpg,AFNE08.jpg,AFNE16.jpg,AFNE08.jpg,FN,3,num_2,32,num_4,0.400151196402,,,2017_Jun_20_1224,60.0239302488,MAFE4ImagesEEG,001,200619,
AFNE01.JPG,AFNE01.JPG,AFNE01.JPG,AFNE01.JPG,AFNE01.JPG,AFNE01.JPG,,,,,,,,,,,,,1,6,16,4,,,,,,,,,,,AFSA20.jpg,AFNE04.jpg,AFNE06.jpg,AFSA08.jpg,AFSA08.jpg,FS,4,num_4,32,num_8,0.466821626411,,,2017_Jun_20_1224,60.0239302488,MAFE4ImagesEEG,001,200619,
AFNE01.JPG,AFNE01.JPG,AFNE01.JPG,AFNE01.JPG,AFNE01.JPG,AFNE01.JPG,,,,,,,,,,,,,1,7,17,3,,,,,,,,,,,AFNE08.jpg,AFNE11.jpg,AFSA15.jpg,AFSA12.jpg,AFSA12.jpg,FS,4,num_4,32,num_6,0.800117647042,,,2017_Jun_20_1224,60.0239302488,MAFE4ImagesEEG,001,200619,
AFNE01.JPG,AFNE01.JPG,AFNE01.JPG,AFNE01.JPG,AFNE01.JPG,AFNE01.JPG,,,,,,,,,,,,,1,8,18,0,,,,,,,,,,,AFNE02.jpg,AFNE07.jpg,AFSA17.jpg,AFSA01.jpg,AFNE07.jpg,FN,3,num_6,32,num_8,0.683519367361,,,2017_Jun_20_1224,60.0239302488,MAFE4ImagesEEG,001,200619,
AFNE01.JPG,AFNE01.JPG,AFNE01.JPG,AFNE01.JPG,AFNE01.JPG,AFNE01.JPG,,,,,,,,,,,,,1,9,19,9,,,,,,,,,,,AFSA02.jpg,AFNE14.jpg,AFNE10.jpg,AFSA12.jpg,AFNE10.jpg,FN,3,num_2,32,num_4,3.34990517353,,,2017_Jun_20_1224,60.0239302488,MAFE4ImagesEEG,001,200619,
AFNE01.JPG,AFNE01.JPG,AFNE01.JPG,AFNE01.JPG,AFNE01.JPG,AFNE01.JPG,,,,,,,,,,,,,2,0,20,2,,,,,,,,,,,AFSA01.jpg,AFNE13.jpg,AFNE14.jpg,AFSA14.jpg,AFNE14.jpg,FN,3,num_2,32,num_8,0.616817184142,,,2017_Jun_20_1224,60.0239302488,MAFE4ImagesEEG,001,200619,
AFNE01.JPG,AFNE01.JPG,AFNE01.JPG,AFNE01.JPG,AFNE01.JPG,AFNE01.JPG,,,,,,,,,,,,,2,1,21,5,,,,,,,,,,,AFSA01.jpg,AFNE20.jpg,AFNE11.jpg,AFSA15.jpg,AFNE20.jpg,FN,3,num_6,16,num_6,0.483527000877,,,2017_Jun_20_1224,60.0239302488,MAFE4ImagesEEG,001,200619,
AFNE01.JPG,AFNE01.JPG,AFNE01.JPG,AFNE01.JPG,AFNE01.JPG,AFNE01.JPG,,,,,,,,,,,,,2,2,22,7,,,,,,,,,,,AFSA02.jpg,AFNE19.jpg,AFNE10.jpg,AFSA20.jpg,AFSA02.jpg,FS,4,num_8,32,num_4,0.683162063942,,,2017_Jun_20_1224,60.0239302488,MAFE4ImagesEEG,001,200619,
AFNE01.JPG,AFNE01.JPG,AFNE01.JPG,AFNE01.JPG,AFNE01.JPG,AFNE01.JPG,,,,,,,,,,,,,2,3,23,8,,,,,,,,,,,AFNE03.jpg,AFSA06.jpg,AFNE17.jpg,AFSA01.jpg,AFNE17.jpg,FN,3,num_2,32,num_6,0.700121143251,,,2017_Jun_20_1224,60.0239302488,MAFE4ImagesEEG,001,200619,
AFNE01.JPG,AFNE01.JPG,AFNE01.JPG,AFNE01.JPG,AFNE01.JPG,AFNE01.JPG,,,,,,,,,,,,,2,4,24,0,,,,,,,,,,,AFNE16.jpg,AFNE12.jpg,AFSA10.jpg,AFSA03.jpg,AFSA10.jpg,FS,4,num_2,32,num_8,1.10007027397,,,2017_Jun_20_1224,60.0239302488,MAFE4ImagesEEG,001,200619,
AFNE01.JPG,AFNE01.JPG,AFNE01.JPG,AFNE01.JPG,AFNE01.JPG,AFNE01.JPG,,,,,,,,,,,,,2,5,25,9,,,,,,,,,,,AFSA08.jpg,AFNE08.jpg,AFSA19.jpg,AFNE06.jpg,AFSA08.jpg,FS,4,num_8,32,num_4,0.833504661452,,,2017_Jun_20_1224,60.0239302488,MAFE4ImagesEEG,001,200619,
AFNE01.JPG,AFNE01.JPG,AFNE01.JPG,AFNE01.JPG,AFNE01.JPG,AFNE01.JPG,,,,,,,,,,,,,2,6,26,1,,,,,,,,,,,AFNE08.jpg,AFSA07.jpg,AFSA18.jpg,AFNE16.jpg,AFSA18.jpg,FS,4,num_2,32,num_6,0.750162213808,,,2017_Jun_20_1224,60.0239302488,MAFE4ImagesEEG,001,200619,
AFNE01.JPG,AFNE01.JPG,AFNE01.JPG,AFNE01.JPG,AFNE01.JPG,AFNE01.JPG,,,,,,,,,,,,,2,7,27,3,,,,,,,,,,,AFSA06.jpg,AFSA16.jpg,AFNE02.jpg,AFNE13.jpg,AFSA16.jpg,FS,4,num_6,16,num_6,0.716782576521,,,2017_Jun_20_1224,60.0239302488,MAFE4ImagesEEG,001,200619,
AFNE01.JPG,AFNE01.JPG,AFNE01.JPG,AFNE01.JPG,AFNE01.JPG,AFNE01.JPG,,,,,,,,,,,,,2,8,28,6,,,,,,,,,,,AFSA13.jpg,AFNE04.jpg,AFNE05.jpg,AFSA11.jpg,AFNE04.jpg,FN,3,num_6,32,num_8,0.750147139071,,,2017_Jun_20_1224,60.0239302488,MAFE4ImagesEEG,001,200619,
AFNE01.JPG,AFNE01.JPG,AFNE01.JPG,AFNE01.JPG,AFNE01.JPG,AFNE01.JPG,,,,,,,,,,,,,2,9,29,4,,,,,,,,,,,AFSA20.jpg,AFNE12.jpg,AFNE20.jpg,AFSA02.jpg,AFSA02.jpg,FS,4,num_4,16,num_4,0.766773290932,,,2017_Jun_20_1224,60.0239302488,MAFE4ImagesEEG,001,200619,
AFNE01.JPG,AFNE01.JPG,AFNE01.JPG,AFNE01.JPG,AFNE01.JPG,AFNE01.JPG,,,,,,,,,,,,,3,0,30,2,,,,,,,,,,,AFSA16.jpg,AFSA20.jpg,AFNE07.jpg,AFNE06.jpg,AFSA20.jpg,FS,4,num_6,16,num_6,0.833488945267,,,2017_Jun_20_1224,60.0239302488,MAFE4ImagesEEG,001,200619,
AFNE01.JPG,AFNE01.JPG,AFNE01.JPG,AFNE01.JPG,AFNE01.JPG,AFNE01.JPG,,,,,,,,,,,,,3,1,31,6,,,,,,,,,,,AFSA16.jpg,AFNE08.jpg,AFSA17.jpg,AFNE01.jpg,AFSA17.jpg,FS,4,num_2,16,num_2,0.416758103995,,,2017_Jun_20_1224,60.0239302488,MAFE4ImagesEEG,001,200619,
AFNE01.JPG,AFNE01.JPG,AFNE01.JPG,AFNE01.JPG,AFNE01.JPG,AFNE01.JPG,,,,,,,,,,,,,3,2,32,1,,,,,,,,,,,AFSA05.jpg,AFSA11.jpg,AFNE12.jpg,AFNE15.jpg,AFSA11.jpg,FS,4,num_6,16,num_6,0.616795373964,,,2017_Jun_20_1224,60.0239302488,MAFE4ImagesEEG,001,200619,
AFNE01.JPG,AFNE01.JPG,AFNE01.JPG,AFNE01.JPG,AFNE01.JPG,AFNE01.JPG,,,,,,,,,,,,,3,3,33,9,,,,,,,,,,,AFNE20.jpg,AFSA17.jpg,AFSA08.jpg,AFNE14.jpg,AFNE14.jpg,FN,3,num_4,32,num_8,0.800158060156,,,2017_Jun_20_1224,60.0239302488,MAFE4ImagesEEG,001,200619,
AFNE01.JPG,AFNE01.JPG,AFNE01.JPG,AFNE01.JPG,AFNE01.JPG,AFNE01.JPG,,,,,,,,,,,,,3,4,34,3,,,,,,,,,,,AFSA14.jpg,AFSA16.jpg,AFNE04.jpg,AFNE07.jpg,AFNE04.jpg,FN,3,num_2,32,num_8,0.733508798992,,,2017_Jun_20_1224,60.0239302488,MAFE4ImagesEEG,001,200619,
AFNE01.JPG,AFNE01.JPG,AFNE01.JPG,AFNE01.JPG,AFNE01.JPG,AFNE01.JPG,,,,,,,,,,,,,3,5,35,8,,,,,,,,,,,AFNE02.jpg,AFSA18.jpg,AFNE15.jpg,AFSA13.jpg,AFSA13.jpg,FS,4,num_4,32,num_6,0.683473501587,,,2017_Jun_20_1224,60.0239302488,MAFE4ImagesEEG,001,200619,
AFNE01.JPG,AFNE01.JPG,AFNE01.JPG,AFNE01.JPG,AFNE01.JPG,AFNE01.JPG,,,,,,,,,,,,,3,6,36,0,,,,,,,,,,,AFSA12.jpg,AFNE04.jpg,AFSA08.jpg,AFNE12.jpg,AFSA08.jpg,FS,4,num_2,32,num_4,0.966775921057,,,2017_Jun_20_1224,60.0239302488,MAFE4ImagesEEG,001,200619,
AFNE01.JPG,AFNE01.JPG,AFNE01.JPG,AFNE01.JPG,AFNE01.JPG,AFNE01.JPG,,,,,,,,,,,,,3,7,37,5,,,,,,,,,,,AFSA08.jpg,AFSA09.jpg,AFNE16.jpg,AFNE09.jpg,AFSA09.jpg,FS,4,num_6,32,num_8,0.816754383501,,,2017_Jun_20_1224,60.0239302488,MAFE4ImagesEEG,001,200619,
AFNE01.JPG,AFNE01.JPG,AFNE01.JPG,AFNE01.JPG,AFNE01.JPG,AFNE01.JPG,,,,,,,,,,,,,3,8,38,4,,,,,,,,,,,AFNE11.jpg,AFSA18.jpg,AFSA10.jpg,AFNE03.jpg,AFNE11.jpg,FN,3,num_8,32,num_2,0.833495359984,,,2017_Jun_20_1224,60.0239302488,MAFE4ImagesEEG,001,200619,
AFNE01.JPG,AFNE01.JPG,AFNE01.JPG,AFNE01.JPG,AFNE01.JPG,AFNE01.JPG,,,,,,,,,,,,,3,9,39,7,,,,,,,,,,,AFNE16.jpg,AFNE05.jpg,AFSA12.jpg,AFSA05.jpg,AFSA05.jpg,FS,4,num_4,32,num_6,0.533483396401,,,2017_Jun_20_1224,60.0239302488,MAFE4ImagesEEG,001,200619,
AFNE01.JPG,AFNE01.JPG,AFNE01.JPG,AFNE01.JPG,AFNE01.JPG,AFNE01.JPG,,,,,,,,,,,,,4,0,40,3,,,,,,,,,,,AFNE11.jpg,AFNE07.jpg,AFSA09.jpg,AFSA03.jpg,AFNE11.jpg,FN,3,num_8,32,num_4,0.566764887772,,,2017_Jun_20_1224,60.0239302488,MAFE4ImagesEEG,001,200619,
AFNE01.JPG,AFNE01.JPG,AFNE01.JPG,AFNE01.JPG,AFNE01.JPG,AFNE01.JPG,,,,,,,,,,,,,4,1,41,2,,,,,,,,,,,AFNE04.jpg,AFNE02.jpg,AFSA13.jpg,AFSA10.jpg,AFNE02.jpg,FN,3,num_6,16,num_6,0.4166971636,,,2017_Jun_20_1224,60.0239302488,MAFE4ImagesEEG,001,200619,
AFNE01.JPG,AFNE01.JPG,AFNE01.JPG,AFNE01.JPG,AFNE01.JPG,AFNE01.JPG,,,,,,,,,,,,,4,2,42,9,,,,,,,,,,,AFSA18.jpg,AFNE03.jpg,AFNE08.jpg,AFSA14.jpg,AFNE08.jpg,FN,3,num_2,32,num_8,0.683450729237,,,2017_Jun_20_1224,60.0239302488,MAFE4ImagesEEG,001,200619,
AFNE01.JPG,AFNE01.JPG,AFNE01.JPG,AFNE01.JPG,AFNE01.JPG,AFNE01.JPG,,,,,,,,,,,,,4,3,43,7,,,,,,,,,,,AFSA06.jpg,AFNE16.jpg,AFSA11.jpg,AFNE02.jpg,AFNE02.jpg,FN,3,num_4,32,num_2,0.883350722841,,,2017_Jun_20_1224,60.0239302488,MAFE4ImagesEEG,001,200619,
AFNE01.JPG,AFNE01.JPG,AFNE01.JPG,AFNE01.JPG,AFNE01.JPG,AFNE01.JPG,,,,,,,,,,,,,4,4,44,1,,,,,,,,,,,AFSA12.jpg,AFNE14.jpg,AFSA01.jpg,AFNE20.jpg,AFSA12.jpg,FS,4,num_8,16,num_8,0.700119539397,,,2017_Jun_20_1224,60.0239302488,MAFE4ImagesEEG,001,200619,
AFNE01.JPG,AFNE01.JPG,AFNE01.JPG,AFNE01.JPG,AFNE01.JPG,AFNE01.JPG,,,,,,,,,,,,,4,5,45,4,,,,,,,,,,,AFNE14.jpg,AFSA12.jpg,AFNE18.jpg,AFSA16.jpg,AFSA16.jpg,FS,4,num_4,16,num_4,0.783480269252,,,2017_Jun_20_1224,60.0239302488,MAFE4ImagesEEG,001,200619,
AFNE01.JPG,AFNE01.JPG,AFNE01.JPG,AFNE01.JPG,AFNE01.JPG,AFNE01.JPG,,,,,,,,,,,,,4,6,46,6,,,,,,,,,,,AFSA17.jpg,AFNE07.jpg,AFNE08.jpg,AFSA13.jpg,AFNE08.jpg,FN,3,num_2,32,num_8,0.716750823194,,,2017_Jun_20_1224,60.0239302488,MAFE4ImagesEEG,001,200619,
AFNE01.JPG,AFNE01.JPG,AFNE01.JPG,AFNE01.JPG,AFNE01.JPG,AFNE01.JPG,,,,,,,,,,,,,4,7,47,5,,,,,,,,,,,AFNE01.jpg,AFSA17.jpg,AFSA10.jpg,AFNE17.jpg,AFNE17.jpg,FN,3,num_4,32,num_6,0.516835434246,,,2017_Jun_20_1224,60.0239302488,MAFE4ImagesEEG,001,200619,
AFNE01.JPG,AFNE01.JPG,AFNE01.JPG,AFNE01.JPG,AFNE01.JPG,AFNE01.JPG,,,,,,,,,,,,,4,8,48,8,,,,,,,,,,,AFNE17.jpg,AFSA13.jpg,AFSA09.jpg,AFNE03.jpg,AFSA13.jpg,FS,4,num_6,16,num_6,0.600142921321,,,2017_Jun_20_1224,60.0239302488,MAFE4ImagesEEG,001,200619,
AFNE01.JPG,AFNE01.JPG,AFNE01.JPG,AFNE01.JPG,AFNE01.JPG,AFNE01.JPG,,,,,,,,,,,,,4,9,49,0,,,,,,,,,,,AFNE12.jpg,AFNE16.jpg,AFSA02.jpg,AFSA16.jpg,AFSA02.jpg,FS,4,num_2,32,num_6,0.583459357033,,,2017_Jun_20_1224,60.0239302488,MAFE4ImagesEEG,001,200619,
AFNE01.JPG,AFNE01.JPG,AFNE01.JPG,AFNE01.JPG,AFNE01.JPG,AFNE01.JPG,,,,,,,,,,,,,5,0,50,2,,,,,,,,,,,AFSA20.jpg,AFSA07.jpg,AFNE04.jpg,AFNE11.jpg,AFSA07.jpg,FS,4,num_6,16,num_6,0.716757238144,,,2017_Jun_20_1224,60.0239302488,MAFE4ImagesEEG,001,200619,
AFNE01.JPG,AFNE01.JPG,AFNE01.JPG,AFNE01.JPG,AFNE01.JPG,AFNE01.JPG,,,,,,,,,,,,,5,1,51,7,,,,,,,,,,,AFSA14.jpg,AFSA18.jpg,AFNE13.jpg,AFNE01.jpg,AFNE01.jpg,FN,3,num_4,16,num_4,0.58336634282,,,2017_Jun_20_1224,60.0239302488,MAFE4ImagesEEG,001,200619,
AFNE01.JPG,AFNE01.JPG,AFNE01.JPG,AFNE01.JPG,AFNE01.JPG,AFNE01.JPG,,,,,,,,,,,,,5,2,52,8,,,,,,,,,,,AFNE20.jpg,AFNE05.jpg,AFSA08.jpg,AFSA06.jpg,AFNE20.jpg,FN,3,num_8,32,num_6,0.866771719418,,,2017_Jun_20_1224,60.0239302488,MAFE4ImagesEEG,001,200619,
AFNE01.JPG,AFNE01.JPG,AFNE01.JPG,AFNE01.JPG,AFNE01.JPG,AFNE01.JPG,,,,,,,,,,,,,5,3,53,1,,,,,,,,,,,AFNE16.jpg,AFSA14.jpg,AFNE05.jpg,AFSA07.jpg,AFSA14.jpg,FS,4,num_6,32,num_2,0.81685509556,,,2017_Jun_20_1224,60.0239302488,MAFE4ImagesEEG,001,200619,
AFNE01.JPG,AFNE01.JPG,AFNE01.JPG,AFNE01.JPG,AFNE01.JPG,AFNE01.JPG,,,,,,,,,,,,,5,4,54,9,,,,,,,,,,,AFNE11.jpg,AFSA06.jpg,AFSA11.jpg,AFNE16.jpg,AFSA11.jpg,FS,4,num_2,16,num_2,0.733500780538,,,2017_Jun_20_1224,60.0239302488,MAFE4ImagesEEG,001,200619,
AFNE01.JPG,AFNE01.JPG,AFNE01.JPG,AFNE01.JPG,AFNE01.JPG,AFNE01.JPG,,,,,,,,,,,,,5,5,55,0,,,,,,,,,,,AFSA04.jpg,AFSA07.jpg,AFNE05.jpg,AFNE18.jpg,AFSA04.jpg,FS,4,num_8,32,num_6,0.416757141822,,,2017_Jun_20_1224,60.0239302488,MAFE4ImagesEEG,001,200619,
AFNE01.JPG,AFNE01.JPG,AFNE01.JPG,AFNE01.JPG,AFNE01.JPG,AFNE01.JPG,,,,,,,,,,,,,5,6,56,4,,,,,,,,,,,AFSA08.jpg,AFNE01.jpg,AFNE06.jpg,AFSA04.jpg,AFSA08.jpg,FS,4,num_8,16,num_8,0.583447489655,,,2017_Jun_20_1224,60.0239302488,MAFE4ImagesEEG,001,200619,
AFNE01.JPG,AFNE01.JPG,AFNE01.JPG,AFNE01.JPG,AFNE01.JPG,AFNE01.JPG,,,,,,,,,,,,,5,7,57,5,,,,,,,,,,,AFNE02.jpg,AFSA12.jpg,AFNE03.jpg,AFSA09.jpg,AFSA12.jpg,FS,4,num_6,16,num_6,0.58346609259,,,2017_Jun_20_1224,60.0239302488,MAFE4ImagesEEG,001,200619,
AFNE01.JPG,AFNE01.JPG,AFNE01.JPG,AFNE01.JPG,AFNE01.JPG,AFNE01.JPG,,,,,,,,,,,,,5,8,58,6,,,,,,,,,,,AFSA08.jpg,AFNE10.jpg,AFNE06.jpg,AFSA05.jpg,AFSA05.jpg,FS,4,num_4,16,num_4,0.64450306131,,,2017_Jun_20_1224,60.0239302488,MAFE4ImagesEEG,001,200619,
AFNE01.JPG,AFNE01.JPG,AFNE01.JPG,AFNE01.JPG,AFNE01.JPG,AFNE01.JPG,,,,,,,,,,,,,5,9,59,3,,,,,,,,,,,AFSA01.jpg,AFSA18.jpg,AFNE12.jpg,AFNE03.jpg,AFNE12.jpg,FN,3,num_2,16,num_2,1.01603246399,,,2017_Jun_20_1224,60.0239302488,MAFE4ImagesEEG,001,200619,
,,,,,,,,,,,,,,,,,,,,,,,,,,,,,,,,,,,,,,,,,,,space,1.55006079609,2017_Jun_20_1224,60.0239302488,MAFE4ImagesEEG,001,200619,
AFNE01.JPG,AFNE01.JPG,AFNE01.JPG,AFNE01.JPG,AFNE01.JPG,AFNE01.JPG,,,,,,,,,,,,,,,,,0,0,0,8,,,,,,,AMNE08.jpg,AMSA02.jpg,AMNE14.jpg,AMSA15.jpg,AMSA02.jpg,MS,2,num_6,16,num_6,0.333606496104,,,2017_Jun_20_1224,60.0239302488,MAFE4ImagesEEG,001,200619,
AFNE01.JPG,AFNE01.JPG,AFNE01.JPG,AFNE01.JPG,AFNE01.JPG,AFNE01.JPG,,,,,,,,,,,,,,,,,0,1,1,9,,,,,,,AMNE08.jpg,AMSA01.jpg,AMSA18.jpg,AMNE15.jpg,AMNE08.jpg,MN,1,num_8,16,num_8,0.516765192384,,,2017_Jun_20_1224,60.0239302488,MAFE4ImagesEEG,001,200619,
AFNE01.JPG,AFNE01.JPG,AFNE01.JPG,AFNE01.JPG,AFNE01.JPG,AFNE01.JPG,,,,,,,,,,,,,,,,,0,2,2,7,,,,,,,AMNE04.jpg,AMSA09.jpg,AMNE16.jpg,AMSA10.jpg,AMNE04.jpg,MN,1,num_8,32,num_2,0.866788077052,,,2017_Jun_20_1224,60.0239302488,MAFE4ImagesEEG,001,200619,
AFNE01.JPG,AFNE01.JPG,AFNE01.JPG,AFNE01.JPG,AFNE01.JPG,AFNE01.JPG,,,,,,,,,,,,,,,,,0,3,3,5,,,,,,,AMNE01.jpg,AMSA11.jpg,AMNE19.jpg,AMSA16.jpg,AMNE19.jpg,MN,1,num_2,32,num_6,0.300166559871,,,2017_Jun_20_1224,60.0239302488,MAFE4ImagesEEG,001,200619,
AFNE01.JPG,AFNE01.JPG,AFNE01.JPG,AFNE01.JPG,AFNE01.JPG,AFNE01.JPG,,,,,,,,,,,,,,,,,0,4,4,0,,,,,,,AMSA14.jpg,AMSA04.jpg,AMNE07.jpg,AMNE12.jpg,AMNE07.jpg,MN,1,num_2,32,num_8,0.750146497507,,,2017_Jun_20_1224,60.0239302488,MAFE4ImagesEEG,001,200619,
AFNE01.JPG,AFNE01.JPG,AFNE01.JPG,AFNE01.JPG,AFNE01.JPG,AFNE01.JPG,,,,,,,,,,,,,,,,,0,5,5,4,,,,,,,AMNE02.jpg,AMNE20.jpg,AMSA01.jpg,AMSA18.jpg,AMNE02.jpg,MN,1,num_8,32,num_4,0.650155125419,,,2017_Jun_20_1224,60.0239302488,MAFE4ImagesEEG,001,200619,
AFNE01.JPG,AFNE01.JPG,AFNE01.JPG,AFNE01.JPG,AFNE01.JPG,AFNE01.JPG,,,,,,,,,,,,,,,,,0,6,6,3,,,,,,,AMNE12.jpg,AMSA17.jpg,AMSA12.jpg,AMNE02.jpg,AMSA12.jpg,MS,2,num_2,32,num_8,0.533479868318,,,2017_Jun_20_1224,60.0239302488,MAFE4ImagesEEG,001,200619,
AFNE01.JPG,AFNE01.JPG,AFNE01.JPG,AFNE01.JPG,AFNE01.JPG,AFNE01.JPG,,,,,,,,,,,,,,,,,0,7,7,1,,,,,,,AMNE06.jpg,AMSA14.jpg,AMSA12.jpg,AMNE08.jpg,AMNE06.jpg,MN,1,num_8,16,num_8,0.716801499948,,,2017_Jun_20_1224,60.0239302488,MAFE4ImagesEEG,001,200619,
AFNE01.JPG,AFNE01.JPG,AFNE01.JPG,AFNE01.JPG,AFNE01.JPG,AFNE01.JPG,,,,,,,,,,,,,,,,,0,8,8,2,,,,,,,AMSA15.jpg,AMNE03.jpg,AMNE07.jpg,AMSA05.jpg,AMNE07.jpg,MN,1,num_2,32,num_6,0.500126210856,,,2017_Jun_20_1224,60.0239302488,MAFE4ImagesEEG,001,200619,
AFNE01.JPG,AFNE01.JPG,AFNE01.JPG,AFNE01.JPG,AFNE01.JPG,AFNE01.JPG,,,,,,,,,,,,,,,,,0,9,9,6,,,,,,,AMNE20.jpg,AMSA09.jpg,AMSA14.jpg,AMNE06.jpg,AMSA09.jpg,MS,2,num_6,32,num_2,0.733115893672,,,2017_Jun_20_1224,60.0239302488,MAFE4ImagesEEG,001,200619,
AFNE01.JPG,AFNE01.JPG,AFNE01.JPG,AFNE01.JPG,AFNE01.JPG,AFNE01.JPG,,,,,,,,,,,,,,,,,1,0,10,9,,,,,,,AMNE17.jpg,AMSA06.jpg,AMNE16.jpg,AMSA20.jpg,AMNE17.jpg,MN,1,num_8,32,num_6,0.616798260598,,,2017_Jun_20_1224,60.0239302488,MAFE4ImagesEEG,001,200619,
AFNE01.JPG,AFNE01.JPG,AFNE01.JPG,AFNE01.JPG,AFNE01.JPG,AFNE01.JPG,,,,,,,,,,,,,,,,,1,1,11,6,,,,,,,AMSA09.jpg,AMNE02.jpg,AMNE01.jpg,AMSA01.jpg,AMNE01.jpg,MN,1,num_2,32,num_4,0.650286307791,,,2017_Jun_20_1224,60.0239302488,MAFE4ImagesEEG,001,200619,
AFNE01.JPG,AFNE01.JPG,AFNE01.JPG,AFNE01.JPG,AFNE01.JPG,AFNE01.JPG,,,,,,,,,,,,,,,,,1,2,12,2,,,,,,,AMSA20.jpg,AMNE03.jpg,AMNE18.jpg,AMSA06.jpg,AMNE03.jpg,MN,1,num_6,32,num_8,0.416796271922,,,2017_Jun_20_1224,60.0239302488,MAFE4ImagesEEG,001,200619,
AFNE01.JPG,AFNE01.JPG,AFNE01.JPG,AFNE01.JPG,AFNE01.JPG,AFNE01.JPG,,,,,,,,,,,,,,,,,1,3,13,5,,,,,,,AMSA07.jpg,AMNE16.jpg,AMNE15.jpg,AMSA15.jpg,AMSA15.jpg,MS,2,num_4,16,num_4,0.783562378492,,,2017_Jun_20_1224,60.0239302488,MAFE4ImagesEEG,001,200619,
AFNE01.JPG,AFNE01.JPG,AFNE01.JPG,AFNE01.JPG,AFNE01.JPG,AFNE01.JPG,,,,,,,,,,,,,,,,,1,4,14,8,,,,,,,AMNE20.jpg,AMSA20.jpg,AMNE06.jpg,AMSA11.jpg,AMNE20.jpg,MN,1,num_8,32,num_6,0.433476949693,,,2017_Jun_20_1224,60.0239302488,MAFE4ImagesEEG,001,200619,
AFNE01.JPG,AFNE01.JPG,AFNE01.JPG,AFNE01.JPG,AFNE01.JPG,AFNE01.JPG,,,,,,,,,,,,,,,,,1,5,15,3,,,,,,,AMNE04.jpg,AMNE20.jpg,AMSA12.jpg,AMSA05.jpg,AMSA05.jpg,MS,2,num_4,32,num_6,0.616817825707,,,2017_Jun_20_1224,60.0239302488,MAFE4ImagesEEG,001,200619,
AFNE01.JPG,AFNE01.JPG,AFNE01.JPG,AFNE01.JPG,AFNE01.JPG,AFNE01.JPG,,,,,,,,,,,,,,,,,1,6,16,4,,,,,,,AMSA14.jpg,AMNE07.jpg,AMNE19.jpg,AMSA10.jpg,AMSA10.jpg,MS,2,num_4,32,num_2,0.633450713125,,,2017_Jun_20_1224,60.0239302488,MAFE4ImagesEEG,001,200619,
AFNE01.JPG,AFNE01.JPG,AFNE01.JPG,AFNE01.JPG,AFNE01.JPG,AFNE01.JPG,,,,,,,,,,,,,,,,,1,7,17,0,,,,,,,AMNE08.jpg,AMNE15.jpg,AMSA08.jpg,AMSA04.jpg,AMNE08.jpg,MN,1,num_8,32,num_6,0.500154115143,,,2017_Jun_20_1224,60.0239302488,MAFE4ImagesEEG,001,200619,
AFNE01.JPG,AFNE01.JPG,AFNE01.JPG,AFNE01.JPG,AFNE01.JPG,AFNE01.JPG,,,,,,,,,,,,,,,,,1,8,18,7,,,,,,,AMNE05.jpg,AMNE14.jpg,AMSA09.jpg,AMSA04.jpg,AMSA09.jpg,MS,2,num_2,32,num_6,0.61664206069,,,2017_Jun_20_1224,60.0239302488,MAFE4ImagesEEG,001,200619,
AFNE01.JPG,AFNE01.JPG,AFNE01.JPG,AFNE01.JPG,AFNE01.JPG,AFNE01.JPG,,,,,,,,,,,,,,,,,1,9,19,1,,,,,,,AMSA06.jpg,AMNE10.jpg,AMNE03.jpg,AMSA01.jpg,AMSA06.jpg,MS,2,num_8,32,num_6,0.650142616709,,,2017_Jun_20_1224,60.0239302488,MAFE4ImagesEEG,001,200619,
AFNE01.JPG,AFNE01.JPG,AFNE01.JPG,AFNE01.JPG,AFNE01.JPG,AFNE01.JPG,,,,,,,,,,,,,,,,,2,0,20,8,,,,,,,AMSA07.jpg,AMSA06.jpg,AMNE19.jpg,AMNE09.jpg,AMSA06.jpg,MS,2,num_6,16,num_6,0.75012115913,,,2017_Jun_20_1224,60.0239302488,MAFE4ImagesEEG,001,200619,
AFNE01.JPG,AFNE01.JPG,AFNE01.JPG,AFNE01.JPG,AFNE01.JPG,AFNE01.JPG,,,,,,,,,,,,,,,,,2,1,21,1,,,,,,,AMSA02.jpg,AMNE09.jpg,AMNE17.jpg,AMSA14.jpg,AMNE17.jpg,MN,1,num_2,32,num_4,0.500145775964,,,2017_Jun_20_1224,60.0239302488,MAFE4ImagesEEG,001,200619,
AFNE01.JPG,AFNE01.JPG,AFNE01.JPG,AFNE01.JPG,AFNE01.JPG,AFNE01.JPG,,,,,,,,,,,,,,,,,2,2,22,2,,,,,,,AMSA16.jpg,AMNE11.jpg,AMNE19.jpg,AMSA14.jpg,AMSA16.jpg,MS,2,num_8,32,num_6,0.666795710684,,,2017_Jun_20_1224,60.0239302488,MAFE4ImagesEEG,001,200619,
AFNE01.JPG,AFNE01.JPG,AFNE01.JPG,AFNE01.JPG,AFNE01.JPG,AFNE01.JPG,,,,,,,,,,,,,,,,,2,3,23,5,,,,,,,AMNE11.jpg,AMSA04.jpg,AMSA13.jpg,AMNE03.jpg,AMNE03.jpg,MN,1,num_4,32,num_8,0.416703578434,,,2017_Jun_20_1224,60.0239302488,MAFE4ImagesEEG,001,200619,
AFNE01.JPG,AFNE01.JPG,AFNE01.JPG,AFNE01.JPG,AFNE01.JPG,AFNE01.JPG,,,,,,,,,,,,,,,,,2,4,24,9,,,,,,,AMSA13.jpg,AMNE13.jpg,AMNE07.jpg,AMSA18.jpg,AMSA18.jpg,MS,2,num_4,16,num_4,0.483823363786,,,2017_Jun_20_1224,60.0239302488,MAFE4ImagesEEG,001,200619,
AFNE01.JPG,AFNE01.JPG,AFNE01.JPG,AFNE01.JPG,AFNE01.JPG,AFNE01.JPG,,,,,,,,,,,,,,,,,2,5,25,3,,,,,,,AMSA09.jpg,AMSA19.jpg,AMNE10.jpg,AMNE15.jpg,AMSA09.jpg,MS,2,num_8,16,num_8,0.716747936676,,,2017_Jun_20_1224,60.0239302488,MAFE4ImagesEEG,001,200619,
AFNE01.JPG,AFNE01.JPG,AFNE01.JPG,AFNE01.JPG,AFNE01.JPG,AFNE01.JPG,,,,,,,,,,,,,,,,,2,6,26,4,,,,,,,AMNE17.jpg,AMSA12.jpg,AMNE02.jpg,AMSA05.jpg,AMSA05.jpg,MS,2,num_4,32,num_8,0.816677726805,,,2017_Jun_20_1224,60.0239302488,MAFE4ImagesEEG,001,200619,
AFNE01.JPG,AFNE01.JPG,AFNE01.JPG,AFNE01.JPG,AFNE01.JPG,AFNE01.JPG,,,,,,,,,,,,,,,,,2,7,27,0,,,,,,,AMNE14.jpg,AMSA19.jpg,AMNE05.jpg,AMSA11.jpg,AMSA19.jpg,MS,2,num_6,16,num_6,1.0334867643,,,2017_Jun_20_1224,60.0239302488,MAFE4ImagesEEG,001,200619,
AFNE01.JPG,AFNE01.JPG,AFNE01.JPG,AFNE01.JPG,AFNE01.JPG,AFNE01.JPG,,,,,,,,,,,,,,,,,2,8,28,7,,,,,,,AMNE16.jpg,AMNE18.jpg,AMSA05.jpg,AMSA03.jpg,AMNE16.jpg,MN,1,num_8,16,num_8,0.633465467137,,,2017_Jun_20_1224,60.0239302488,MAFE4ImagesEEG,001,200619,
AFNE01.JPG,AFNE01.JPG,AFNE01.JPG,AFNE01.JPG,AFNE01.JPG,AFNE01.JPG,,,,,,,,,,,,,,,,,2,9,29,6,,,,,,,AMNE10.jpg,AMNE09.jpg,AMSA06.jpg,AMSA09.jpg,AMNE09.jpg,MN,1,num_6,16,num_6,1.500076817,,,2017_Jun_20_1224,60.0239302488,MAFE4ImagesEEG,001,200619,
AFNE01.JPG,AFNE01.JPG,AFNE01.JPG,AFNE01.JPG,AFNE01.JPG,AFNE01.JPG,,,,,,,,,,,,,,,,,3,0,30,2,,,,,,,AMNE08.jpg,AMSA10.jpg,AMSA03.jpg,AMNE17.jpg,AMNE17.jpg,MN,1,num_4,48,None,,,,2017_Jun_20_1224,60.0239302488,MAFE4ImagesEEG,001,200619,
AFNE01.JPG,AFNE01.JPG,AFNE01.JPG,AFNE01.JPG,AFNE01.JPG,AFNE01.JPG,,,,,,,,,,,,,,,,,3,1,31,7,,,,,,,AMNE09.jpg,AMNE08.jpg,AMSA04.jpg,AMSA15.jpg,AMSA15.jpg,MS,2,num_4,32,num_6,0.316786617739,,,2017_Jun_20_1224,60.0239302488,MAFE4ImagesEEG,001,200619,
AFNE01.JPG,AFNE01.JPG,AFNE01.JPG,AFNE01.JPG,AFNE01.JPG,AFNE01.JPG,,,,,,,,,,,,,,,,,3,2,32,1,,,,,,,AMNE04.jpg,AMNE01.jpg,AMSA06.jpg,AMSA17.jpg,AMNE01.jpg,MN,1,num_6,32,num_8,0.850132737891,,,2017_Jun_20_1224,60.0239302488,MAFE4ImagesEEG,001,200619,
AFNE01.JPG,AFNE01.JPG,AFNE01.JPG,AFNE01.JPG,AFNE01.JPG,AFNE01.JPG,,,,,,,,,,,,,,,,,3,3,33,5,,,,,,,AMSA10.jpg,AMNE20.jpg,AMNE17.jpg,AMSA05.jpg,AMSA05.jpg,MS,2,num_4,32,num_2,1.71675787948,,,2017_Jun_20_1224,60.0239302488,MAFE4ImagesEEG,001,200619,
AFNE01.JPG,AFNE01.JPG,AFNE01.JPG,AFNE01.JPG,AFNE01.JPG,AFNE01.JPG,,,,,,,,,,,,,,,,,3,4,34,6,,,,,,,AMNE14.jpg,AMNE10.jpg,AMSA14.jpg,AMSA18.jpg,AMNE14.jpg,MN,1,num_8,32,num_6,0.58337371971,,,2017_Jun_20_1224,60.0239302488,MAFE4ImagesEEG,001,200619,
AFNE01.JPG,AFNE01.JPG,AFNE01.JPG,AFNE01.JPG,AFNE01.JPG,AFNE01.JPG,,,,,,,,,,,,,,,,,3,5,35,8,,,,,,,AMNE05.jpg,AMNE01.jpg,AMSA18.jpg,AMSA01.jpg,AMSA01.jpg,MS,2,num_4,32,num_8,0.583550126292,,,2017_Jun_20_1224,60.0239302488,MAFE4ImagesEEG,001,200619,
AFNE01.JPG,AFNE01.JPG,AFNE01.JPG,AFNE01.JPG,AFNE01.JPG,AFNE01.JPG,,,,,,,,,,,,,,,,,3,6,36,3,,,,,,,AMSA05.jpg,AMNE03.jpg,AMNE12.jpg,AMSA07.jpg,AMSA07.jpg,MS,2,num_4,16,num_4,0.80013817444,,,2017_Jun_20_1224,60.0239302488,MAFE4ImagesEEG,001,200619,
AFNE01.JPG,AFNE01.JPG,AFNE01.JPG,AFNE01.JPG,AFNE01.JPG,AFNE01.JPG,,,,,,,,,,,,,,,,,3,7,37,4,,,,,,,AMNE19.jpg,AMSA14.jpg,AMSA18.jpg,AMNE16.jpg,AMNE16.jpg,MN,1,num_4,16,num_4,0.766763668857,,,2017_Jun_20_1224,60.0239302488,MAFE4ImagesEEG,001,200619,
AFNE01.JPG,AFNE01.JPG,AFNE01.JPG,AFNE01.JPG,AFNE01.JPG,AFNE01.JPG,,,,,,,,,,,,,,,,,3,8,38,0,,,,,,,AMSA03.jpg,AMSA20.jpg,AMNE19.jpg,AMNE12.jpg,AMSA20.jpg,MS,2,num_6,16,num_6,0.466784420772,,,2017_Jun_20_1224,60.0239302488,MAFE4ImagesEEG,001,200619,
AFNE01.JPG,AFNE01.JPG,AFNE01.JPG,AFNE01.JPG,AFNE01.JPG,AFNE01.JPG,,,,,,,,,,,,,,,,,3,9,39,9,,,,,,,AMSA13.jpg,AMSA08.jpg,AMNE12.jpg,AMNE17.jpg,AMNE17.jpg,MN,1,num_4,32,num_2,1.06675414287,,,2017_Jun_20_1224,60.0239302488,MAFE4ImagesEEG,001,200619,
AFNE01.JPG,AFNE01.JPG,AFNE01.JPG,AFNE01.JPG,AFNE01.JPG,AFNE01.JPG,,,,,,,,,,,,,,,,,4,0,40,3,,,,,,,AMNE05.jpg,AMSA14.jpg,AMSA20.jpg,AMNE14.jpg,AMSA14.jpg,MS,2,num_6,16,num_6,0.800121495966,,,2017_Jun_20_1224,60.0239302488,MAFE4ImagesEEG,001,200619,
AFNE01.JPG,AFNE01.JPG,AFNE01.JPG,AFNE01.JPG,AFNE01.JPG,AFNE01.JPG,,,,,,,,,,,,,,,,,4,1,41,5,,,,,,,AMNE05.jpg,AMSA08.jpg,AMNE03.jpg,AMSA12.jpg,AMNE05.jpg,MN,1,num_8,32,num_6,0.616731226095,,,2017_Jun_20_1224,60.0239302488,MAFE4ImagesEEG,001,200619,
AFNE01.JPG,AFNE01.JPG,AFNE01.JPG,AFNE01.JPG,AFNE01.JPG,AFNE01.JPG,,,,,,,,,,,,,,,,,4,2,42,8,,,,,,,AMSA12.jpg,AMNE01.jpg,AMNE14.jpg,AMSA03.jpg,AMNE14.jpg,MN,1,num_2,32,num_8,0.883448227425,,,2017_Jun_20_1224,60.0239302488,MAFE4ImagesEEG,001,200619,
AFNE01.JPG,AFNE01.JPG,AFNE01.JPG,AFNE01.JPG,AFNE01.JPG,AFNE01.JPG,,,,,,,,,,,,,,,,,4,3,43,9,,,,,,,AMSA04.jpg,AMNE06.jpg,AMNE11.jpg,AMSA12.jpg,AMSA12.jpg,MS,2,num_4,32,num_6,1.23342203908,,,2017_Jun_20_1224,60.0239302488,MAFE4ImagesEEG,001,200619,
AFNE01.JPG,AFNE01.JPG,AFNE01.JPG,AFNE01.JPG,AFNE01.JPG,AFNE01.JPG,,,,,,,,,,,,,,,,,4,4,44,2,,,,,,,AMNE12.jpg,AMSA16.jpg,AMNE07.jpg,AMSA04.jpg,AMSA04.jpg,MS,2,num_4,16,num_4,0.583484695409,,,2017_Jun_20_1224,60.0239302488,MAFE4ImagesEEG,001,200619,
AFNE01.JPG,AFNE01.JPG,AFNE01.JPG,AFNE01.JPG,AFNE01.JPG,AFNE01.JPG,,,,,,,,,,,,,,,,,4,5,45,4,,,,,,,AMNE10.jpg,AMSA15.jpg,AMSA06.jpg,AMNE20.jpg,AMNE20.jpg,MN,1,num_4,32,num_8,0.616555140237,,,2017_Jun_20_1224,60.0239302488,MAFE4ImagesEEG,001,200619,
AFNE01.JPG,AFNE01.JPG,AFNE01.JPG,AFNE01.JPG,AFNE01.JPG,AFNE01.JPG,,,,,,,,,,,,,,,,,4,6,46,6,,,,,,,AMNE05.jpg,AMSA10.jpg,AMNE02.jpg,AMSA16.jpg,AMNE05.jpg,MN,1,num_8,16,num_8,0.566821016953,,,2017_Jun_20_1224,60.0239302488,MAFE4ImagesEEG,001,200619,
AFNE01.JPG,AFNE01.JPG,AFNE01.JPG,AFNE01.JPG,AFNE01.JPG,AFNE01.JPG,,,,,,,,,,,,,,,,,4,7,47,0,,,,,,,AMSA13.jpg,AMSA19.jpg,AMNE13.jpg,AMNE03.jpg,AMSA13.jpg,MS,2,num_8,16,num_8,0.516809133696,,,2017_Jun_20_1224,60.0239302488,MAFE4ImagesEEG,001,200619,
AFNE01.JPG,AFNE01.JPG,AFNE01.JPG,AFNE01.JPG,AFNE01.JPG,AFNE01.JPG,,,,,,,,,,,,,,,,,4,8,48,7,,,,,,,AMNE05.jpg,AMSA04.jpg,AMNE11.jpg,AMSA16.jpg,AMSA16.jpg,MS,2,num_4,32,num_8,0.549994723871,,,2017_Jun_20_1224,60.0239302488,MAFE4ImagesEEG,001,200619,
AFNE01.JPG,AFNE01.JPG,AFNE01.JPG,AFNE01.JPG,AFNE01.JPG,AFNE01.JPG,,,,,,,,,,,,,,,,,4,9,49,1,,,,,,,AMSA12.jpg,AMNE04.jpg,AMSA06.jpg,AMNE15.jpg,AMSA12.jpg,MS,2,num_8,32,num_4,0.766799912322,,,2017_Jun_20_1224,60.0239302488,MAFE4ImagesEEG,001,200619,
AFNE01.JPG,AFNE01.JPG,AFNE01.JPG,AFNE01.JPG,AFNE01.JPG,AFNE01.JPG,,,,,,,,,,,,,,,,,5,0,50,3,,,,,,,AMSA02.jpg,AMNE06.jpg,AMSA07.jpg,AMNE16.jpg,AMSA02.jpg,MS,2,num_8,16,num_8,0.700093238847,,,2017_Jun_20_1224,60.0239302488,MAFE4ImagesEEG,001,200619,
AFNE01.JPG,AFNE01.JPG,AFNE01.JPG,AFNE01.JPG,AFNE01.JPG,AFNE01.JPG,,,,,,,,,,,,,,,,,5,1,51,0,,,,,,,AMSA12.jpg,AMSA15.jpg,AMNE16.jpg,AMNE10.jpg,AMSA15.jpg,MS,2,num_6,16,num_6,0.500185226905,,,2017_Jun_20_1224,60.0239302488,MAFE4ImagesEEG,001,200619,
AFNE01.JPG,AFNE01.JPG,AFNE01.JPG,AFNE01.JPG,AFNE01.JPG,AFNE01.JPG,,,,,,,,,,,,,,,,,5,2,52,6,,,,,,,AMSA06.jpg,AMNE01.jpg,AMSA05.jpg,AMNE07.jpg,AMNE01.jpg,MN,1,num_6,32,num_8,3.5665214468,,,2017_Jun_20_1224,60.0239302488,MAFE4ImagesEEG,001,200619,
AFNE01.JPG,AFNE01.JPG,AFNE01.JPG,AFNE01.JPG,AFNE01.JPG,AFNE01.JPG,,,,,,,,,,,,,,,,,5,3,53,4,,,,,,,AMSA17.jpg,AMNE14.jpg,AMNE11.jpg,AMSA09.jpg,AMSA09.jpg,MS,2,num_4,16,num_4,0.650138447061,,,2017_Jun_20_1224,60.0239302488,MAFE4ImagesEEG,001,200619,
AFNE01.JPG,AFNE01.JPG,AFNE01.JPG,AFNE01.JPG,AFNE01.JPG,AFNE01.JPG,,,,,,,,,,,,,,,,,5,4,54,1,,,,,,,AMNE01.jpg,AMSA15.jpg,AMNE13.jpg,AMSA06.jpg,AMNE13.jpg,MN,1,num_2,32,num_6,0.516819718061,,,2017_Jun_20_1224,60.0239302488,MAFE4ImagesEEG,001,200619,
AFNE01.JPG,AFNE01.JPG,AFNE01.JPG,AFNE01.JPG,AFNE01.JPG,AFNE01.JPG,,,,,,,,,,,,,,,,,5,5,55,2,,,,,,,AMSA03.jpg,AMNE01.jpg,AMSA02.jpg,AMNE03.jpg,AMSA03.jpg,MS,2,num_8,32,num_2,0.85012985114,,,2017_Jun_20_1224,60.0239302488,MAFE4ImagesEEG,001,200619,
AFNE01.JPG,AFNE01.JPG,AFNE01.JPG,AFNE01.JPG,AFNE01.JPG,AFNE01.JPG,,,,,,,,,,,,,,,,,5,6,56,7,,,,,,,AMSA06.jpg,AMNE06.jpg,AMSA13.jpg,AMNE10.jpg,AMSA06.jpg,MS,2,num_8,32,num_6,0.516901185736,,,2017_Jun_20_1224,60.0239302488,MAFE4ImagesEEG,001,200619,
AFNE01.JPG,AFNE01.JPG,AFNE01.JPG,AFNE01.JPG,AFNE01.JPG,AFNE01.JPG,,,,,,,,,,,,,,,,,5,7,57,8,,,,,,,AMSA04.jpg,AMNE02.jpg,AMSA12.jpg,AMNE17.jpg,AMSA12.jpg,MS,2,num_2,32,num_8,0.799984540325,,,2017_Jun_20_1224,60.0239302488,MAFE4ImagesEEG,001,200619,
AFNE01.JPG,AFNE01.JPG,AFNE01.JPG,AFNE01.JPG,AFNE01.JPG,AFNE01.JPG,,,,,,,,,,,,,,,,,5,8,58,5,,,,,,,AMSA15.jpg,AMNE06.jpg,AMNE13.jpg,AMSA03.jpg,AMNE13.jpg,MN,1,num_2,32,num_6,0.516865583719,,,2017_Jun_20_1224,60.0239302488,MAFE4ImagesEEG,001,200619,
AFNE01.JPG,AFNE01.JPG,AFNE01.JPG,AFNE01.JPG,AFNE01.JPG,AFNE01.JPG,,,,,,,,,,,,,,,,,5,9,59,9,,,,,,,AMNE03.jpg,AMSA12.jpg,AMNE05.jpg,AMSA14.jpg,AMNE05.jpg,MN,1,num_2,32,num_8,0.533495584619,,,2017_Jun_20_1224,60.0239302488,MAFE4ImagesEEG,001,200619,
,,,,,,,,,,,,,,,,,,,,,,,,,,,,,,,,,,,,,,,,,,,space,4.38319500396,2017_Jun_20_1224,60.0239302488,MAFE4ImagesEEG,001,200619,
AFNE01.JPG,AFNE01.JPG,AFNE01.JPG,AFNE01.JPG,AFNE01.JPG,AFNE01.JPG,,,,,,,,,,,,,,,,,,,,,0,0,0,9,,,AFNE13.jpg,AFSA07.jpg,AFNE09.jpg,AFSA09.jpg,AFNE09.jpg,FN,3,num_2,32,num_8,0.516821000958,,,2017_Jun_20_1224,60.0239302488,MAFE4ImagesEEG,001,200619,
AFNE01.JPG,AFNE01.JPG,AFNE01.JPG,AFNE01.JPG,AFNE01.JPG,AFNE01.JPG,,,,,,,,,,,,,,,,,,,,,0,1,1,3,,,AFNE15.jpg,AFSA08.jpg,AFNE04.jpg,AFSA14.jpg,AFNE15.jpg,FN,3,num_8,32,num_6,0.333303397754,,,2017_Jun_20_1224,60.0239302488,MAFE4ImagesEEG,001,200619,
AFNE01.JPG,AFNE01.JPG,AFNE01.JPG,AFNE01.JPG,AFNE01.JPG,AFNE01.JPG,,,,,,,,,,,,,,,,,,,,,0,2,2,0,,,AFNE01.jpg,AFSA13.jpg,AFNE18.jpg,AFSA18.jpg,AFNE18.jpg,FN,3,num_2,32,num_4,0.533456454403,,,2017_Jun_20_1224,60.0239302488,MAFE4ImagesEEG,001,200619,
AFNE01.JPG,AFNE01.JPG,AFNE01.JPG,AFNE01.JPG,AFNE01.JPG,AFNE01.JPG,,,,,,,,,,,,,,,,,,,,,0,3,3,2,,,AFSA08.jpg,AFSA20.jpg,AFNE15.jpg,AFNE20.jpg,AFSA20.jpg,FS,4,num_6,32,num_2,0.866780058597,,,2017_Jun_20_1224,60.0239302488,MAFE4ImagesEEG,001,200619,
AFNE01.JPG,AFNE01.JPG,AFNE01.JPG,AFNE01.JPG,AFNE01.JPG,AFNE01.JPG,,,,,,,,,,,,,,,,,,,,,0,4,4,5,,,AFNE19.jpg,AFSA10.jpg,AFNE01.jpg,AFSA03.jpg,AFSA10.jpg,FS,4,num_6,32,num_8,0.766778743593,,,2017_Jun_20_1224,60.0239302488,MAFE4ImagesEEG,001,200619,
AFNE01.JPG,AFNE01.JPG,AFNE01.JPG,AFNE01.JPG,AFNE01.JPG,AFNE01.JPG,,,,,,,,,,,,,,,,,,,,,0,5,5,7,,,AFNE02.jpg,AFSA12.jpg,AFSA11.jpg,AFNE01.jpg,AFSA12.jpg,FS,4,num_6,16,num_6,0.483507115161,,,2017_Jun_20_1224,60.0239302488,MAFE4ImagesEEG,001,200619,
AFNE01.JPG,AFNE01.JPG,AFNE01.JPG,AFNE01.JPG,AFNE01.JPG,AFNE01.JPG,,,,,,,,,,,,,,,,,,,,,0,6,6,6,,,AFNE01.jpg,AFSA06.jpg,AFNE02.jpg,AFSA10.jpg,AFNE01.jpg,FN,3,num_8,32,num_2,0.783471609233,,,2017_Jun_20_1224,60.0239302488,MAFE4ImagesEEG,001,200619,
AFNE01.JPG,AFNE01.JPG,AFNE01.JPG,AFNE01.JPG,AFNE01.JPG,AFNE01.JPG,,,,,,,,,,,,,,,,,,,,,0,7,7,8,,,AFNE12.jpg,AFNE08.jpg,AFSA19.jpg,AFSA01.jpg,AFSA01.jpg,FS,4,num_4,32,num_2,0.633514860994,,,2017_Jun_20_1224,60.0239302488,MAFE4ImagesEEG,001,200619,
AFNE01.JPG,AFNE01.JPG,AFNE01.JPG,AFNE01.JPG,AFNE01.JPG,AFNE01.JPG,,,,,,,,,,,,,,,,,,,,,0,8,8,4,,,AFNE03.jpg,AFSA02.jpg,AFSA14.jpg,AFNE04.jpg,AFNE03.jpg,FN,3,num_8,16,num_8,0.816801532172,,,2017_Jun_20_1224,60.0239302488,MAFE4ImagesEEG,001,200619,
AFNE01.JPG,AFNE01.JPG,AFNE01.JPG,AFNE01.JPG,AFNE01.JPG,AFNE01.JPG,,,,,,,,,,,,,,,,,,,,,0,9,9,1,,,AFNE11.jpg,AFSA05.jpg,AFNE05.jpg,AFSA20.jpg,AFSA05.jpg,FS,4,num_6,32,num_8,0.633478296688,,,2017_Jun_20_1224,60.0239302488,MAFE4ImagesEEG,001,200619,
AFNE01.JPG,AFNE01.JPG,AFNE01.JPG,AFNE01.JPG,AFNE01.JPG,AFNE01.JPG,,,,,,,,,,,,,,,,,,,,,1,0,10,0,,,AFSA11.jpg,AFSA16.jpg,AFNE12.jpg,AFNE13.jpg,AFNE12.jpg,FN,3,num_2,32,num_6,0.583463847404,,,2017_Jun_20_1224,60.0239302488,MAFE4ImagesEEG,001,200619,
AFNE01.JPG,AFNE01.JPG,AFNE01.JPG,AFNE01.JPG,AFNE01.JPG,AFNE01.JPG,,,,,,,,,,,,,,,,,,,,,1,1,11,1,,,AFSA19.jpg,AFNE16.jpg,AFSA11.jpg,AFNE01.jpg,AFNE01.jpg,FN,3,num_4,32,num_8,0.583485978423,,,2017_Jun_20_1224,60.0239302488,MAFE4ImagesEEG,001,200619,
AFNE01.JPG,AFNE01.JPG,AFNE01.JPG,AFNE01.JPG,AFNE01.JPG,AFNE01.JPG,,,,,,,,,,,,,,,,,,,,,1,2,12,9,,,AFNE14.jpg,AFNE12.jpg,AFSA19.jpg,AFSA07.jpg,AFNE14.jpg,FN,3,num_8,32,num_6,0.566789263743,,,2017_Jun_20_1224,60.0239302488,MAFE4ImagesEEG,001,200619,
AFNE01.JPG,AFNE01.JPG,AFNE01.JPG,AFNE01.JPG,AFNE01.JPG,AFNE01.JPG,,,,,,,,,,,,,,,,,,,,,1,3,13,5,,,AFSA13.jpg,AFSA19.jpg,AFNE16.jpg,AFNE12.jpg,AFSA13.jpg,FS,4,num_8,32,num_2,0.833484134171,,,2017_Jun_20_1224,60.0239302488,MAFE4ImagesEEG,001,200619,
AFNE01.JPG,AFNE01.JPG,AFNE01.JPG,AFNE01.JPG,AFNE01.JPG,AFNE01.JPG,,,,,,,,,,,,,,,,,,,,,1,4,14,2,,,AFSA11.jpg,AFNE04.jpg,AFNE12.jpg,AFSA05.jpg,AFNE12.jpg,FN,3,num_2,32,num_8,1.00015395472,,,2017_Jun_20_1224,60.0239302488,MAFE4ImagesEEG,001,200619,
AFNE01.JPG,AFNE01.JPG,AFNE01.JPG,AFNE01.JPG,AFNE01.JPG,AFNE01.JPG,,,,,,,,,,,,,,,,,,,,,1,5,15,8,,,AFNE08.jpg,AFSA18.jpg,AFSA17.jpg,AFNE18.jpg,AFSA17.jpg,FS,4,num_2,32,num_6,0.583474431885,,,2017_Jun_20_1224,60.0239302488,MAFE4ImagesEEG,001,200619,
AFNE01.JPG,AFNE01.JPG,AFNE01.JPG,AFNE01.JPG,AFNE01.JPG,AFNE01.JPG,,,,,,,,,,,,,,,,,,,,,1,6,16,6,,,AFNE12.jpg,AFNE02.jpg,AFSA19.jpg,AFSA18.jpg,AFSA19.jpg,FS,4,num_2,32,num_4,0.966726206592,,,2017_Jun_20_1224,60.0239302488,MAFE4ImagesEEG,001,200619,
AFNE01.JPG,AFNE01.JPG,AFNE01.JPG,AFNE01.JPG,AFNE01.JPG,AFNE01.JPG,,,,,,,,,,,,,,,,,,,,,1,7,17,7,,,AFNE02.jpg,AFNE05.jpg,AFSA05.jpg,AFSA04.jpg,AFSA05.jpg,FS,4,num_2,32,num_4,1.06679615972,,,2017_Jun_20_1224,60.0239302488,MAFE4ImagesEEG,001,200619,
AFNE01.JPG,AFNE01.JPG,AFNE01.JPG,AFNE01.JPG,AFNE01.JPG,AFNE01.JPG,,,,,,,,,,,,,,,,,,,,,1,8,18,3,,,AFNE05.jpg,AFSA05.jpg,AFSA11.jpg,AFNE16.jpg,AFNE05.jpg,FN,3,num_8,16,num_8,1.01681442582,,,2017_Jun_20_1224,60.0239302488,MAFE4ImagesEEG,001,200619,
AFNE01.JPG,AFNE01.JPG,AFNE01.JPG,AFNE01.JPG,AFNE01.JPG,AFNE01.JPG,,,,,,,,,,,,,,,,,,,,,1,9,19,4,,,AFSA17.jpg,AFNE13.jpg,AFSA15.jpg,AFNE18.jpg,AFSA17.jpg,FS,4,num_8,32,num_6,0.750126932398,,,2017_Jun_20_1224,60.0239302488,MAFE4ImagesEEG,001,200619,
AFNE01.JPG,AFNE01.JPG,AFNE01.JPG,AFNE01.JPG,AFNE01.JPG,AFNE01.JPG,,,,,,,,,,,,,,,,,,,,,2,0,20,3,,,AFNE01.jpg,AFSA04.jpg,AFSA15.jpg,AFNE14.jpg,AFSA15.jpg,FS,4,num_2,32,num_8,1.01717750239,,,2017_Jun_20_1224,60.0239302488,MAFE4ImagesEEG,001,200619,
AFNE01.JPG,AFNE01.JPG,AFNE01.JPG,AFNE01.JPG,AFNE01.JPG,AFNE01.JPG,,,,,,,,,,,,,,,,,,,,,2,1,21,4,,,AFSA11.jpg,AFNE15.jpg,AFNE02.jpg,AFSA19.jpg,AFNE02.jpg,FN,3,num_2,32,num_8,0.783485080348,,,2017_Jun_20_1224,60.0239302488,MAFE4ImagesEEG,001,200619,
AFNE01.JPG,AFNE01.JPG,AFNE01.JPG,AFNE01.JPG,AFNE01.JPG,AFNE01.JPG,,,,,,,,,,,,,,,,,,,,,2,2,22,9,,,AFNE11.jpg,AFSA05.jpg,AFNE06.jpg,AFSA09.jpg,AFSA05.jpg,FS,4,num_6,16,num_6,0.500025178073,,,2017_Jun_20_1224,60.0239302488,MAFE4ImagesEEG,001,200619,
AFNE01.JPG,AFNE01.JPG,AFNE01.JPG,AFNE01.JPG,AFNE01.JPG,AFNE01.JPG,,,,,,,,,,,,,,,,,,,,,2,3,23,0,,,AFSA09.jpg,AFNE17.jpg,AFSA17.jpg,AFNE18.jpg,AFNE17.jpg,FN,3,num_6,32,num_2,0.716915683122,,,2017_Jun_20_1224,60.0239302488,MAFE4ImagesEEG,001,200619,
AFNE01.JPG,AFNE01.JPG,AFNE01.JPG,AFNE01.JPG,AFNE01.JPG,AFNE01.JPG,,,,,,,,,,,,,,,,,,,,,2,4,24,5,,,AFSA14.jpg,AFSA12.jpg,AFNE02.jpg,AFNE06.jpg,AFSA12.jpg,FS,4,num_6,16,num_6,0.516851471155,,,2017_Jun_20_1224,60.0239302488,MAFE4ImagesEEG,001,200619,
AFNE01.JPG,AFNE01.JPG,AFNE01.JPG,AFNE01.JPG,AFNE01.JPG,AFNE01.JPG,,,,,,,,,,,,,,,,,,,,,2,5,25,6,,,AFNE02.jpg,AFNE16.jpg,AFSA11.jpg,AFSA19.jpg,AFNE02.jpg,FN,3,num_8,32,num_4,0.533476340235,,,2017_Jun_20_1224,60.0239302488,MAFE4ImagesEEG,001,200619,
AFNE01.JPG,AFNE01.JPG,AFNE01.JPG,AFNE01.JPG,AFNE01.JPG,AFNE01.JPG,,,,,,,,,,,,,,,,,,,,,2,6,26,8,,,AFSA05.jpg,AFSA07.jpg,AFNE12.jpg,AFNE04.jpg,AFNE04.jpg,FN,3,num_4,32,num_8,0.733496931614,,,2017_Jun_20_1224,60.0239302488,MAFE4ImagesEEG,001,200619,
AFNE01.JPG,AFNE01.JPG,AFNE01.JPG,AFNE01.JPG,AFNE01.JPG,AFNE01.JPG,,,,,,,,,,,,,,,,,,,,,2,7,27,7,,,AFSA10.jpg,AFNE07.jpg,AFNE02.jpg,AFSA16.jpg,AFSA10.jpg,FS,4,num_8,16,num_8,0.700159952627,,,2017_Jun_20_1224,60.0239302488,MAFE4ImagesEEG,001,200619,
AFNE01.JPG,AFNE01.JPG,AFNE01.JPG,AFNE01.JPG,AFNE01.JPG,AFNE01.JPG,,,,,,,,,,,,,,,,,,,,,2,8,28,1,,,AFNE19.jpg,AFSA12.jpg,AFNE06.jpg,AFSA19.jpg,AFSA12.jpg,FS,4,num_6,16,num_6,0.783484118176,,,2017_Jun_20_1224,60.0239302488,MAFE4ImagesEEG,001,200619,
AFNE01.JPG,AFNE01.JPG,AFNE01.JPG,AFNE01.JPG,AFNE01.JPG,AFNE01.JPG,,,,,,,,,,,,,,,,,,,,,2,9,29,2,,,AFNE06.jpg,AFNE04.jpg,AFSA02.jpg,AFSA18.jpg,AFNE06.jpg,FN,3,num_8,32,num_6,0.616509916144,,,2017_Jun_20_1224,60.0239302488,MAFE4ImagesEEG,001,200619,
AFNE01.JPG,AFNE01.JPG,AFNE01.JPG,AFNE01.JPG,AFNE01.JPG,AFNE01.JPG,,,,,,,,,,,,,,,,,,,,,3,0,30,2,,,AFSA02.jpg,AFNE06.jpg,AFSA19.jpg,AFNE13.jpg,AFNE06.jpg,FN,3,num_6,32,num_8,0.650163143873,,,2017_Jun_20_1224,60.0239302488,MAFE4ImagesEEG,001,200619,
AFNE01.JPG,AFNE01.JPG,AFNE01.JPG,AFNE01.JPG,AFNE01.JPG,AFNE01.JPG,,,,,,,,,,,,,,,,,,,,,3,1,31,3,,,AFNE09.jpg,AFNE06.jpg,AFSA03.jpg,AFSA07.jpg,AFNE09.jpg,FN,3,num_8,16,num_8,0.616796656861,,,2017_Jun_20_1224,60.0239302488,MAFE4ImagesEEG,001,200619,
AFNE01.JPG,AFNE01.JPG,AFNE01.JPG,AFNE01.JPG,AFNE01.JPG,AFNE01.JPG,,,,,,,,,,,,,,,,,,,,,3,2,32,9,,,AFNE14.jpg,AFSA15.jpg,AFNE08.jpg,AFSA11.jpg,AFSA15.jpg,FS,4,num_6,32,num_8,0.616782544414,,,2017_Jun_20_1224,60.0239302488,MAFE4ImagesEEG,001,200619,
AFNE01.JPG,AFNE01.JPG,AFNE01.JPG,AFNE01.JPG,AFNE01.JPG,AFNE01.JPG,,,,,,,,,,,,,,,,,,,,,3,3,33,8,,,AFSA18.jpg,AFNE04.jpg,AFNE19.jpg,AFSA09.jpg,AFNE04.jpg,FN,3,num_6,16,num_6,0.716945191147,,,2017_Jun_20_1224,60.0239302488,MAFE4ImagesEEG,001,200619,
AFNE01.JPG,AFNE01.JPG,AFNE01.JPG,AFNE01.JPG,AFNE01.JPG,AFNE01.JPG,,,,,,,,,,,,,,,,,,,,,3,4,34,5,,,AFNE07.jpg,AFNE05.jpg,AFSA09.jpg,AFSA10.jpg,AFSA10.jpg,FS,4,num_4,32,num_8,0.533514187438,,,2017_Jun_20_1224,60.0239302488,MAFE4ImagesEEG,001,200619,
AFNE01.JPG,AFNE01.JPG,AFNE01.JPG,AFNE01.JPG,AFNE01.JPG,AFNE01.JPG,,,,,,,,,,,,,,,,,,,,,3,5,35,7,,,AFNE09.jpg,AFSA10.jpg,AFNE18.jpg,AFSA13.jpg,AFNE09.jpg,FN,3,num_8,32,num_4,0.466804306488,,,2017_Jun_20_1224,60.0239302488,MAFE4ImagesEEG,001,200619,
AFNE01.JPG,AFNE01.JPG,AFNE01.JPG,AFNE01.JPG,AFNE01.JPG,AFNE01.JPG,,,,,,,,,,,,,,,,,,,,,3,6,36,6,,,AFNE09.jpg,AFSA09.jpg,AFSA18.jpg,AFNE18.jpg,AFNE18.jpg,FN,3,num_4,32,num_8,0.533452926204,,,2017_Jun_20_1224,60.0239302488,MAFE4ImagesEEG,001,200619,
AFNE01.JPG,AFNE01.JPG,AFNE01.JPG,AFNE01.JPG,AFNE01.JPG,AFNE01.JPG,,,,,,,,,,,,,,,,,,,,,3,7,37,4,,,AFSA20.jpg,AFSA06.jpg,AFNE09.jpg,AFNE04.jpg,AFNE09.jpg,FN,3,num_2,32,num_6,0.783857458504,,,2017_Jun_20_1224,60.0239302488,MAFE4ImagesEEG,001,200619,
AFNE01.JPG,AFNE01.JPG,AFNE01.JPG,AFNE01.JPG,AFNE01.JPG,AFNE01.JPG,,,,,,,,,,,,,,,,,,,,,3,8,38,1,,,AFNE04.jpg,AFSA03.jpg,AFNE11.jpg,AFSA19.jpg,AFNE11.jpg,FN,3,num_2,16,num_2,0.783500475809,,,2017_Jun_20_1224,60.0239302488,MAFE4ImagesEEG,001,200619,
