IPosition2,IPosition3,IPosition1,IPosition6,IPosition4,IPosition5,TrialsM1.thisRepN,TrialsM1.thisTrialN,TrialsM1.thisN,TrialsM1.thisIndex,TrialsF1.thisRepN,TrialsF1.thisTrialN,TrialsF1.thisN,TrialsF1.thisIndex,TrialsM2.thisRepN,TrialsM2.thisTrialN,TrialsM2.thisN,TrialsM2.thisIndex,TrialsF2.thisRepN,TrialsF2.thisTrialN,TrialsF2.thisN,TrialsF2.thisIndex,TrialsM3.thisRepN,TrialsM3.thisTrialN,TrialsM3.thisN,TrialsM3.thisIndex,TrialsF3.thisRepN,TrialsF3.thisTrialN,TrialsF3.thisN,TrialsF3.thisIndex,InstrKey_resp.keys,InstrKey_resp.rt,Image0 _Position,Image1 _Position,Image2 _Position,Image3 _Position,Center_image,condition,code,correct_answer,accuracy,Key_Resp.keys,Key_Resp.rt,BreakKey_resp.keys,BreakKey_resp.rt,date,frameRate,expName,session,participant,
,,,,,,,,,,,,,,,,,,,,,,,,,,,,,,space,9.74956523803,,,,,,,,,,,,,,2017_Jun_27_1806,59.996998031,MAFE4ImagesEEG,001,200612,
AMSA25.JPG,AMNE24.JPG,AMSA24.JPG,AMNE26.JPG,AMSA21.JPG,AMNE25.JPG,0,0,0,3,,,,,,,,,,,,,,,,,,,,,,,AMNE12.jpg,AMNE14.jpg,AMSA06.jpg,AMSA07.jpg,AMNE12.jpg,MN,1,num_8,16,num_8,1.08346820416,,,2017_Jun_27_1806,59.996998031,MAFE4ImagesEEG,001,200612,
AFSA25.JPG,AFNE24.JPG,AFSA24.JPG,AFNE21.JPG,AFSA21.JPG,AFNE25.JPG,0,1,1,2,,,,,,,,,,,,,,,,,,,,,,,AMNE10.jpg,AMNE04.jpg,AMSA03.jpg,AMSA01.jpg,AMNE10.jpg,MN,1,num_8,16,num_8,0.783464483586,,,2017_Jun_27_1806,59.996998031,MAFE4ImagesEEG,001,200612,
AFSA21.JPG,AFNE23.JPG,AFNE21.JPG,AFSA25.JPG,AFNE25.JPG,AFSA23.JPG,0,2,2,4,,,,,,,,,,,,,,,,,,,,,,,AMSA01.jpg,AMNE05.jpg,AMNE20.jpg,AMSA19.jpg,AMNE05.jpg,MN,1,num_6,16,num_6,0.833462911964,,,2017_Jun_27_1806,59.996998031,MAFE4ImagesEEG,001,200612,
AFNE23.JPG,AFNE24.JPG,AFNE22.JPG,AFSA24.JPG,AFSA22.JPG,AFSA23.JPG,0,3,3,8,,,,,,,,,,,,,,,,,,,,,,,AMNE09.jpg,AMSA07.jpg,AMSA09.jpg,AMNE01.jpg,AMSA09.jpg,MS,2,num_2,32,num_8,0.666789509778,,,2017_Jun_27_1806,59.996998031,MAFE4ImagesEEG,001,200612,
AMNE22.JPG,AMSA24.JPG,AMSA22.JPG,AMNE25.JPG,AMNE24.JPG,AMSA25.JPG,0,4,4,7,,,,,,,,,,,,,,,,,,,,,,,AMNE02.jpg,AMSA03.jpg,AMSA14.jpg,AMNE03.jpg,AMNE03.jpg,MN,1,num_4,32,num_2,1.25008034517,,,2017_Jun_27_1806,59.996998031,MAFE4ImagesEEG,001,200612,
AMNE23.JPG,AMNE24.JPG,AMNE22.JPG,AMSA24.JPG,AMSA22.JPG,AMSA23.JPG,0,5,5,9,,,,,,,,,,,,,,,,,,,,,,,AMSA15.jpg,AMNE19.jpg,AMNE02.jpg,AMSA18.jpg,AMSA18.jpg,MS,2,num_4,16,num_4,1.21673886506,,,2017_Jun_27_1806,59.996998031,MAFE4ImagesEEG,001,200612,
AFSA21.JPG,AFNE22.JPG,AFNE21.JPG,AFSA23.JPG,AFSA22.JPG,AFNE23.JPG,0,6,6,0,,,,,,,,,,,,,,,,,,,,,,,AMSA11.jpg,AMNE02.jpg,AMNE17.jpg,AMSA02.jpg,AMSA02.jpg,MS,2,num_4,32,num_2,0.866785147722,,,2017_Jun_27_1806,59.996998031,MAFE4ImagesEEG,001,200612,
AFNE22.JPG,AFSA24.JPG,AFSA22.JPG,AFNE25.JPG,AFNE24.JPG,AFSA25.JPG,0,7,7,6,,,,,,,,,,,,,,,,,,,,,,,AMSA09.jpg,AMSA13.jpg,AMNE14.jpg,AMNE03.jpg,AMNE14.jpg,MN,1,num_2,32,num_4,1.45002691002,,,2017_Jun_27_1806,59.996998031,MAFE4ImagesEEG,001,200612,
AMSA21.JPG,AMNE23.JPG,AMNE21.JPG,AMSA25.JPG,AMNE25.JPG,AMSA23.JPG,0,8,8,5,,,,,,,,,,,,,,,,,,,,,,,AMSA04.jpg,AMNE12.jpg,AMSA01.jpg,AMNE16.jpg,AMSA04.jpg,MS,2,num_8,32,num_2,1.40006504591,,,2017_Jun_27_1806,59.996998031,MAFE4ImagesEEG,001,200612,
AMSA21.JPG,AMNE22.JPG,AMNE21.JPG,AMSA23.JPG,AMSA22.JPG,AMNE23.JPG,0,9,9,1,,,,,,,,,,,,,,,,,,,,,,,AMSA02.jpg,AMNE05.jpg,AMSA01.jpg,AMNE03.jpg,AMNE05.jpg,MN,1,num_6,16,num_6,0.900103534612,,,2017_Jun_27_1806,59.996998031,MAFE4ImagesEEG,001,200612,
AFSA21.JPG,AFNE23.JPG,AFNE21.JPG,AFSA25.JPG,AFNE25.JPG,AFSA23.JPG,,,,,0,0,0,4,,,,,,,,,,,,,,,,,,,AFSA14.jpg,AFNE04.jpg,AFSA15.jpg,AFNE01.jpg,AFNE04.jpg,FN,3,num_6,16,num_6,0.766830307803,,,2017_Jun_27_1806,59.996998031,MAFE4ImagesEEG,001,200612,
AMSA25.JPG,AMNE24.JPG,AMSA24.JPG,AMNE26.JPG,AMSA21.JPG,AMNE25.JPG,,,,,0,1,1,3,,,,,,,,,,,,,,,,,,,AFNE18.jpg,AFSA01.jpg,AFSA02.jpg,AFNE14.jpg,AFNE18.jpg,FN,3,num_8,32,num_4,1.75004762977,,,2017_Jun_27_1806,59.996998031,MAFE4ImagesEEG,001,200612,
AFSA25.JPG,AFNE24.JPG,AFSA24.JPG,AFNE21.JPG,AFSA21.JPG,AFNE25.JPG,,,,,0,2,2,2,,,,,,,,,,,,,,,,,,,AFNE09.jpg,AFSA14.jpg,AFSA09.jpg,AFNE15.jpg,AFSA14.jpg,FS,4,num_6,32,num_8,0.633622191046,,,2017_Jun_27_1806,59.996998031,MAFE4ImagesEEG,001,200612,
AFSA21.JPG,AFNE22.JPG,AFNE21.JPG,AFSA23.JPG,AFSA22.JPG,AFNE23.JPG,,,,,0,3,3,0,,,,,,,,,,,,,,,,,,,AFSA10.jpg,AFNE02.jpg,AFSA04.jpg,AFNE20.jpg,AFNE20.jpg,FN,3,num_4,16,num_4,0.800169863476,,,2017_Jun_27_1806,59.996998031,MAFE4ImagesEEG,001,200612,
AFNE22.JPG,AFSA24.JPG,AFSA22.JPG,AFNE25.JPG,AFNE24.JPG,AFSA25.JPG,,,,,0,4,4,6,,,,,,,,,,,,,,,,,,,AFNE19.jpg,AFSA02.jpg,AFNE11.jpg,AFSA18.jpg,AFNE19.jpg,FN,3,num_8,32,num_6,0.900146513661,,,2017_Jun_27_1806,59.996998031,MAFE4ImagesEEG,001,200612,
AFNE23.JPG,AFNE24.JPG,AFNE22.JPG,AFSA24.JPG,AFSA22.JPG,AFSA23.JPG,,,,,0,5,5,8,,,,,,,,,,,,,,,,,,,AFNE02.jpg,AFSA07.jpg,AFNE04.jpg,AFSA05.jpg,AFSA07.jpg,FS,4,num_6,32,num_2,0.866760450805,,,2017_Jun_27_1806,59.996998031,MAFE4ImagesEEG,001,200612,
AMNE23.JPG,AMNE24.JPG,AMNE22.JPG,AMSA24.JPG,AMSA22.JPG,AMSA23.JPG,,,,,0,6,6,9,,,,,,,,,,,,,,,,,,,AFNE17.jpg,AFNE20.jpg,AFSA16.jpg,AFSA07.jpg,AFNE17.jpg,FN,3,num_8,32,num_6,0.766617016241,,,2017_Jun_27_1806,59.996998031,MAFE4ImagesEEG,001,200612,
AMSA21.JPG,AMNE23.JPG,AMNE21.JPG,AMSA25.JPG,AMNE25.JPG,AMSA23.JPG,,,,,0,7,7,5,,,,,,,,,,,,,,,,,,,AFNE06.jpg,AFSA19.jpg,AFNE11.jpg,AFSA03.jpg,AFSA19.jpg,FS,4,num_6,16,num_6,0.766833194451,,,2017_Jun_27_1806,59.996998031,MAFE4ImagesEEG,001,200612,
AMSA21.JPG,AMNE22.JPG,AMNE21.JPG,AMSA23.JPG,AMSA22.JPG,AMNE23.JPG,,,,,0,8,8,1,,,,,,,,,,,,,,,,,,,AFNE16.jpg,AFSA08.jpg,AFNE03.jpg,AFSA04.jpg,AFSA04.jpg,FS,4,num_4,16,num_4,1.15013288225,,,2017_Jun_27_1806,59.996998031,MAFE4ImagesEEG,001,200612,
AMNE22.JPG,AMSA24.JPG,AMSA22.JPG,AMNE25.JPG,AMNE24.JPG,AMSA25.JPG,,,,,0,9,9,7,,,,,,,,,,,,,,,,,,,AFNE09.jpg,AFNE04.jpg,AFSA04.jpg,AFSA10.jpg,AFNE09.jpg,FN,3,num_8,32,num_4,0.96680798435,,,2017_Jun_27_1806,59.996998031,MAFE4ImagesEEG,001,200612,
AMNE23.JPG,AMNE24.JPG,AMNE22.JPG,AMSA24.JPG,AMSA22.JPG,AMSA23.JPG,,,,,,,,,0,0,0,9,,,,,,,,,,,,,,,AMSA06.jpg,AMSA14.jpg,AMNE13.jpg,AMNE01.jpg,AMNE13.jpg,MN,1,num_2,32,num_4,1.3501015781,,,2017_Jun_27_1806,59.996998031,MAFE4ImagesEEG,001,200612,
AMNE22.JPG,AMSA24.JPG,AMSA22.JPG,AMNE25.JPG,AMNE24.JPG,AMSA25.JPG,,,,,,,,,0,1,1,7,,,,,,,,,,,,,,,AMNE07.jpg,AMNE12.jpg,AMSA09.jpg,AMSA19.jpg,AMNE12.jpg,MN,1,num_6,32,num_2,1.06704282959,,,2017_Jun_27_1806,59.996998031,MAFE4ImagesEEG,001,200612,
AFSA21.JPG,AFNE22.JPG,AFNE21.JPG,AFSA23.JPG,AFSA22.JPG,AFNE23.JPG,,,,,,,,,0,2,2,0,,,,,,,,,,,,,,,AMSA10.jpg,AMNE02.jpg,AMNE06.jpg,AMSA14.jpg,AMNE06.jpg,MN,1,num_2,32,num_8,1.88337955185,,,2017_Jun_27_1806,59.996998031,MAFE4ImagesEEG,001,200612,
AMSA21.JPG,AMNE22.JPG,AMNE21.JPG,AMSA23.JPG,AMSA22.JPG,AMNE23.JPG,,,,,,,,,0,3,3,1,,,,,,,,,,,,,,,AMSA16.jpg,AMSA11.jpg,AMNE03.jpg,AMNE04.jpg,AMSA16.jpg,MS,2,num_8,32,num_6,1.88336094898,,,2017_Jun_27_1806,59.996998031,MAFE4ImagesEEG,001,200612,
AFNE22.JPG,AFSA24.JPG,AFSA22.JPG,AFNE25.JPG,AFNE24.JPG,AFSA25.JPG,,,,,,,,,0,4,4,6,,,,,,,,,,,,,,,AMSA10.jpg,AMNE18.jpg,AMNE05.jpg,AMSA02.jpg,AMSA02.jpg,MS,2,num_4,16,num_4,1.06676250354,,,2017_Jun_27_1806,59.996998031,MAFE4ImagesEEG,001,200612,
AMSA25.JPG,AMNE24.JPG,AMSA24.JPG,AMNE26.JPG,AMSA21.JPG,AMNE25.JPG,,,,,,,,,0,5,5,3,,,,,,,,,,,,,,,AMSA16.jpg,AMSA11.jpg,AMNE03.jpg,AMNE09.jpg,AMSA16.jpg,MS,2,num_8,32,num_4,0.900129514484,,,2017_Jun_27_1806,59.996998031,MAFE4ImagesEEG,001,200612,
AFSA21.JPG,AFNE23.JPG,AFNE21.JPG,AFSA25.JPG,AFNE25.JPG,AFSA23.JPG,,,,,,,,,0,6,6,4,,,,,,,,,,,,,,,AMNE05.jpg,AMSA16.jpg,AMNE11.jpg,AMSA06.jpg,AMSA06.jpg,MS,2,num_4,32,num_2,0.816779342345,,,2017_Jun_27_1806,59.996998031,MAFE4ImagesEEG,001,200612,
AMSA21.JPG,AMNE23.JPG,AMNE21.JPG,AMSA25.JPG,AMNE25.JPG,AMSA23.JPG,,,,,,,,,0,7,7,5,,,,,,,,,,,,,,,AMNE16.jpg,AMSA15.jpg,AMSA19.jpg,AMNE05.jpg,AMSA19.jpg,MS,2,num_2,32,num_4,0.683531133189,,,2017_Jun_27_1806,59.996998031,MAFE4ImagesEEG,001,200612,
AFSA25.JPG,AFNE24.JPG,AFSA24.JPG,AFNE21.JPG,AFSA21.JPG,AFNE25.JPG,,,,,,,,,0,8,8,2,,,,,,,,,,,,,,,AMSA05.jpg,AMSA06.jpg,AMNE08.jpg,AMNE13.jpg,AMNE13.jpg,MN,1,num_4,32,num_8,0.833492099235,,,2017_Jun_27_1806,59.996998031,MAFE4ImagesEEG,001,200612,
AFNE23.JPG,AFNE24.JPG,AFNE22.JPG,AFSA24.JPG,AFSA22.JPG,AFSA23.JPG,,,,,,,,,0,9,9,8,,,,,,,,,,,,,,,AMSA16.jpg,AMNE10.jpg,AMNE19.jpg,AMSA14.jpg,AMSA16.jpg,MS,2,num_8,32,num_6,0.733495883953,,,2017_Jun_27_1806,59.996998031,MAFE4ImagesEEG,001,200612,
AMSA21.JPG,AMNE23.JPG,AMNE21.JPG,AMSA25.JPG,AMNE25.JPG,AMSA23.JPG,,,,,,,,,,,,,0,0,0,5,,,,,,,,,,,AFSA02.jpg,AFNE03.jpg,AFSA08.jpg,AFNE05.jpg,AFSA08.jpg,FS,4,num_2,32,num_4,0.683405724169,,,2017_Jun_27_1806,59.996998031,MAFE4ImagesEEG,001,200612,
AMSA21.JPG,AMNE22.JPG,AMNE21.JPG,AMSA23.JPG,AMSA22.JPG,AMNE23.JPG,,,,,,,,,,,,,0,1,1,1,,,,,,,,,,,AFSA19.jpg,AFSA02.jpg,AFNE07.jpg,AFNE18.jpg,AFNE18.jpg,FN,3,num_4,16,num_4,0.616806476879,,,2017_Jun_27_1806,59.996998031,MAFE4ImagesEEG,001,200612,
AMSA25.JPG,AMNE24.JPG,AMSA24.JPG,AMNE26.JPG,AMSA21.JPG,AMNE25.JPG,,,,,,,,,,,,,0,2,2,3,,,,,,,,,,,AFNE19.jpg,AFSA15.jpg,AFNE06.jpg,AFSA02.jpg,AFNE19.jpg,FN,3,num_8,32,num_2,1.20012136771,,,2017_Jun_27_1806,59.996998031,MAFE4ImagesEEG,001,200612,
AFNE23.JPG,AFNE24.JPG,AFNE22.JPG,AFSA24.JPG,AFSA22.JPG,AFSA23.JPG,,,,,,,,,,,,,0,3,3,8,,,,,,,,,,,AFNE19.jpg,AFNE15.jpg,AFSA18.jpg,AFSA16.jpg,AFSA16.jpg,FS,4,num_4,16,num_4,0.816799228174,,,2017_Jun_27_1806,59.996998031,MAFE4ImagesEEG,001,200612,
AFSA25.JPG,AFNE24.JPG,AFSA24.JPG,AFNE21.JPG,AFSA21.JPG,AFNE25.JPG,,,,,,,,,,,,,0,4,4,2,,,,,,,,,,,AFSA19.jpg,AFSA16.jpg,AFNE04.jpg,AFNE08.jpg,AFSA19.jpg,FS,4,num_8,32,num_2,0.866732546496,,,2017_Jun_27_1806,59.996998031,MAFE4ImagesEEG,001,200612,
AMNE23.JPG,AMNE24.JPG,AMNE22.JPG,AMSA24.JPG,AMSA22.JPG,AMSA23.JPG,,,,,,,,,,,,,0,5,5,9,,,,,,,,,,,AFSA10.jpg,AFSA18.jpg,AFNE14.jpg,AFNE18.jpg,AFNE18.jpg,FN,3,num_4,32,num_2,0.816750475817,,,2017_Jun_27_1806,59.996998031,MAFE4ImagesEEG,001,200612,
AFSA21.JPG,AFNE23.JPG,AFNE21.JPG,AFSA25.JPG,AFNE25.JPG,AFSA23.JPG,,,,,,,,,,,,,0,6,6,4,,,,,,,,,,,AFSA08.jpg,AFNE03.jpg,AFSA20.jpg,AFNE20.jpg,AFNE20.jpg,FN,3,num_4,32,num_8,2.00003528131,,,2017_Jun_27_1806,59.996998031,MAFE4ImagesEEG,001,200612,
AMNE22.JPG,AMSA24.JPG,AMSA22.JPG,AMNE25.JPG,AMNE24.JPG,AMSA25.JPG,,,,,,,,,,,,,0,7,7,7,,,,,,,,,,,AFNE07.jpg,AFSA19.jpg,AFNE02.jpg,AFSA18.jpg,AFNE02.jpg,FN,3,num_2,16,num_2,0.766828704101,,,2017_Jun_27_1806,59.996998031,MAFE4ImagesEEG,001,200612,
AFNE22.JPG,AFSA24.JPG,AFSA22.JPG,AFNE25.JPG,AFNE24.JPG,AFSA25.JPG,,,,,,,,,,,,,0,8,8,6,,,,,,,,,,,AFSA15.jpg,AFNE05.jpg,AFSA09.jpg,AFNE15.jpg,AFSA15.jpg,FS,4,num_8,16,num_8,0.783330093866,,,2017_Jun_27_1806,59.996998031,MAFE4ImagesEEG,001,200612,
AFSA21.JPG,AFNE22.JPG,AFNE21.JPG,AFSA23.JPG,AFSA22.JPG,AFNE23.JPG,,,,,,,,,,,,,0,9,9,0,,,,,,,,,,,AFNE15.jpg,AFSA16.jpg,AFNE16.jpg,AFSA07.jpg,AFNE16.jpg,FN,3,num_2,32,num_6,0.616779214048,,,2017_Jun_27_1806,59.996998031,MAFE4ImagesEEG,001,200612,
AFNE22.JPG,AFSA24.JPG,AFSA22.JPG,AFNE25.JPG,AFNE24.JPG,AFSA25.JPG,,,,,,,,,,,,,,,,,0,0,0,6,,,,,,,AMSA10.jpg,AMNE04.jpg,AMNE14.jpg,AMSA15.jpg,AMNE14.jpg,MN,1,num_2,32,num_6,0.53346688913,,,2017_Jun_27_1806,59.996998031,MAFE4ImagesEEG,001,200612,
AFNE23.JPG,AFNE24.JPG,AFNE22.JPG,AFSA24.JPG,AFSA22.JPG,AFSA23.JPG,,,,,,,,,,,,,,,,,0,1,1,8,,,,,,,AMNE05.jpg,AMSA17.jpg,AMSA16.jpg,AMNE20.jpg,AMSA16.jpg,MS,2,num_2,16,num_2,1.00011001354,,,2017_Jun_27_1806,59.996998031,MAFE4ImagesEEG,001,200612,
AMSA25.JPG,AMNE24.JPG,AMSA24.JPG,AMNE26.JPG,AMSA21.JPG,AMNE25.JPG,,,,,,,,,,,,,,,,,0,2,2,3,,,,,,,AMSA02.jpg,AMNE09.jpg,AMSA10.jpg,AMNE16.jpg,AMSA10.jpg,MS,2,num_2,16,num_2,0.666771227639,,,2017_Jun_27_1806,59.996998031,MAFE4ImagesEEG,001,200612,
AFSA21.JPG,AFNE22.JPG,AFNE21.JPG,AFSA23.JPG,AFSA22.JPG,AFNE23.JPG,,,,,,,,,,,,,,,,,0,3,3,0,,,,,,,AMSA11.jpg,AMNE12.jpg,AMNE10.jpg,AMSA12.jpg,AMNE12.jpg,MN,1,num_6,32,num_2,0.733437509421,,,2017_Jun_27_1806,59.996998031,MAFE4ImagesEEG,001,200612,
AFSA21.JPG,AFNE23.JPG,AFNE21.JPG,AFSA25.JPG,AFNE25.JPG,AFSA23.JPG,,,,,,,,,,,,,,,,,0,4,4,4,,,,,,,AMSA10.jpg,AMNE13.jpg,AMNE17.jpg,AMSA09.jpg,AMSA10.jpg,MS,2,num_8,32,num_2,1.11673431056,,,2017_Jun_27_1806,59.996998031,MAFE4ImagesEEG,001,200612,
AMSA21.JPG,AMNE23.JPG,AMNE21.JPG,AMSA25.JPG,AMNE25.JPG,AMSA23.JPG,,,,,,,,,,,,,,,,,0,5,5,5,,,,,,,AMNE20.jpg,AMNE19.jpg,AMSA12.jpg,AMSA04.jpg,AMNE19.jpg,MN,1,num_6,32,num_8,0.966749609823,,,2017_Jun_27_1806,59.996998031,MAFE4ImagesEEG,001,200612,
AMSA21.JPG,AMNE22.JPG,AMNE21.JPG,AMSA23.JPG,AMSA22.JPG,AMNE23.JPG,,,,,,,,,,,,,,,,,0,6,6,1,,,,,,,AMSA12.jpg,AMNE02.jpg,AMSA17.jpg,AMNE10.jpg,AMSA17.jpg,MS,2,num_2,32,num_8,0.56713584395,,,2017_Jun_27_1806,59.996998031,MAFE4ImagesEEG,001,200612,
AFSA25.JPG,AFNE24.JPG,AFSA24.JPG,AFNE21.JPG,AFSA21.JPG,AFNE25.JPG,,,,,,,,,,,,,,,,,0,7,7,2,,,,,,,AMNE07.jpg,AMNE16.jpg,AMSA10.jpg,AMSA07.jpg,AMNE16.jpg,MN,1,num_6,32,num_2,0.666798490471,,,2017_Jun_27_1806,59.996998031,MAFE4ImagesEEG,001,200612,
AMNE22.JPG,AMSA24.JPG,AMSA22.JPG,AMNE25.JPG,AMNE24.JPG,AMSA25.JPG,,,,,,,,,,,,,,,,,0,8,8,7,,,,,,,AMNE10.jpg,AMSA19.jpg,AMSA11.jpg,AMNE05.jpg,AMSA11.jpg,MS,2,num_2,32,num_6,0.766758462225,,,2017_Jun_27_1806,59.996998031,MAFE4ImagesEEG,001,200612,
AMNE23.JPG,AMNE24.JPG,AMNE22.JPG,AMSA24.JPG,AMSA22.JPG,AMSA23.JPG,,,,,,,,,,,,,,,,,0,9,9,9,,,,,,,AMNE03.jpg,AMSA19.jpg,AMSA03.jpg,AMNE01.jpg,AMNE01.jpg,MN,1,num_4,16,num_4,0.800080056502,,,2017_Jun_27_1806,59.996998031,MAFE4ImagesEEG,001,200612,
AFNE23.JPG,AFNE24.JPG,AFNE22.JPG,AFSA24.JPG,AFSA22.JPG,AFSA23.JPG,,,,,,,,,,,,,,,,,,,,,0,0,0,8,,,AFNE09.jpg,AFNE20.jpg,AFSA19.jpg,AFSA08.jpg,AFSA08.jpg,FS,4,num_4,32,num_6,0.666785340167,,,2017_Jun_27_1806,59.996998031,MAFE4ImagesEEG,001,200612,
AFSA25.JPG,AFNE24.JPG,AFSA24.JPG,AFNE21.JPG,AFSA21.JPG,AFNE25.JPG,,,,,,,,,,,,,,,,,,,,,0,1,1,2,,,AFSA20.jpg,AFNE17.jpg,AFNE12.jpg,AFSA16.jpg,AFSA16.jpg,FS,4,num_4,32,num_6,0.683497134836,,,2017_Jun_27_1806,59.996998031,MAFE4ImagesEEG,001,200612,
AMNE23.JPG,AMNE24.JPG,AMNE22.JPG,AMSA24.JPG,AMSA22.JPG,AMSA23.JPG,,,,,,,,,,,,,,,,,,,,,0,2,2,9,,,AFNE05.jpg,AFNE06.jpg,AFSA20.jpg,AFSA07.jpg,AFSA20.jpg,FS,4,num_2,32,num_8,0.983395652955,,,2017_Jun_27_1806,59.996998031,MAFE4ImagesEEG,001,200612,
AMSA25.JPG,AMNE24.JPG,AMSA24.JPG,AMNE26.JPG,AMSA21.JPG,AMNE25.JPG,,,,,,,,,,,,,,,,,,,,,0,3,3,3,,,AFSA12.jpg,AFNE11.jpg,AFNE14.jpg,AFSA11.jpg,AFNE14.jpg,FN,3,num_2,16,num_2,0.716780561153,,,2017_Jun_27_1806,59.996998031,MAFE4ImagesEEG,001,200612,
AFSA21.JPG,AFNE22.JPG,AFNE21.JPG,AFSA23.JPG,AFSA22.JPG,AFNE23.JPG,,,,,,,,,,,,,,,,,,,,,0,4,4,0,,,AFSA12.jpg,AFNE20.jpg,AFSA10.jpg,AFNE04.jpg,AFNE20.jpg,FN,3,num_6,32,num_4,0.716770297498,,,2017_Jun_27_1806,59.996998031,MAFE4ImagesEEG,001,200612,
AMNE22.JPG,AMSA24.JPG,AMSA22.JPG,AMNE25.JPG,AMNE24.JPG,AMSA25.JPG,,,,,,,,,,,,,,,,,,,,,0,5,5,7,,,AFSA03.jpg,AFNE10.jpg,AFSA20.jpg,AFNE12.jpg,AFNE10.jpg,FN,3,num_6,32,num_8,0.716777033023,,,2017_Jun_27_1806,59.996998031,MAFE4ImagesEEG,001,200612,
AFSA21.JPG,AFNE23.JPG,AFNE21.JPG,AFSA25.JPG,AFNE25.JPG,AFSA23.JPG,,,,,,,,,,,,,,,,,,,,,0,6,6,4,,,AFNE14.jpg,AFSA17.jpg,AFSA08.jpg,AFNE12.jpg,AFNE14.jpg,FN,3,num_8,32,num_4,0.700128103232,,,2017_Jun_27_1806,59.996998031,MAFE4ImagesEEG,001,200612,
AMSA21.JPG,AMNE23.JPG,AMNE21.JPG,AMSA25.JPG,AMNE25.JPG,AMSA23.JPG,,,,,,,,,,,,,,,,,,,,,0,7,7,5,,,AFSA19.jpg,AFSA12.jpg,AFNE16.jpg,AFNE02.jpg,AFNE02.jpg,FN,3,num_4,16,num_4,0.600129001301,,,2017_Jun_27_1806,59.996998031,MAFE4ImagesEEG,001,200612,
AMSA21.JPG,AMNE22.JPG,AMNE21.JPG,AMSA23.JPG,AMSA22.JPG,AMNE23.JPG,,,,,,,,,,,,,,,,,,,,,0,8,8,1,,,AFSA11.jpg,AFNE06.jpg,AFSA17.jpg,AFNE11.jpg,AFSA17.jpg,FS,4,num_2,32,num_8,1.01675317003,,,2017_Jun_27_1806,59.996998031,MAFE4ImagesEEG,001,200612,
AFNE22.JPG,AFSA24.JPG,AFSA22.JPG,AFNE25.JPG,AFNE24.JPG,AFSA25.JPG,,,,,,,,,,,,,,,,,,,,,0,9,9,6,,,AFNE16.jpg,AFNE19.jpg,AFSA06.jpg,AFSA15.jpg,AFNE16.jpg,FN,3,num_8,32,num_6,0.916755671791,,,2017_Jun_27_1806,59.996998031,MAFE4ImagesEEG,001,200612,
,,,,,,,,,,,,,,,,,,,,,,,,,,,,,,,,,,,,,,,,,,,space,2.816589144,2017_Jun_27_1806,59.996998031,MAFE4ImagesEEG,001,200612,
AFNE01.JPG,AFNE01.JPG,AFNE01.JPG,AFNE01.JPG,AFNE01.JPG,AFNE01.JPG,0,0,0,2,,,,,,,,,,,,,,,,,,,,,,,AMSA14.jpg,AMSA03.jpg,AMNE14.jpg,AMNE03.jpg,AMNE14.jpg,MN,1,num_2,16,num_2,0.700131310623,,,2017_Jun_27_1806,59.996998031,MAFE4ImagesEEG,001,200612,
AFNE01.JPG,AFNE01.JPG,AFNE01.JPG,AFNE01.JPG,AFNE01.JPG,AFNE01.JPG,0,1,1,0,,,,,,,,,,,,,,,,,,,,,,,AMNE11.jpg,AMSA06.jpg,AMNE18.jpg,AMSA19.jpg,AMSA06.jpg,MS,2,num_6,32,num_4,0.58348873147,,,2017_Jun_27_1806,59.996998031,MAFE4ImagesEEG,001,200612,
AFNE01.JPG,AFNE01.JPG,AFNE01.JPG,AFNE01.JPG,AFNE01.JPG,AFNE01.JPG,0,2,2,5,,,,,,,,,,,,,,,,,,,,,,,AMNE11.jpg,AMNE19.jpg,AMSA06.jpg,AMSA05.jpg,AMSA05.jpg,MS,2,num_4,32,num_8,0.850100936623,,,2017_Jun_27_1806,59.996998031,MAFE4ImagesEEG,001,200612,
AFNE01.JPG,AFNE01.JPG,AFNE01.JPG,AFNE01.JPG,AFNE01.JPG,AFNE01.JPG,0,3,3,1,,,,,,,,,,,,,,,,,,,,,,,AMSA18.jpg,AMSA05.jpg,AMNE20.jpg,AMNE07.jpg,AMSA05.jpg,MS,2,num_6,16,num_6,0.749956860578,,,2017_Jun_27_1806,59.996998031,MAFE4ImagesEEG,001,200612,
AFNE01.JPG,AFNE01.JPG,AFNE01.JPG,AFNE01.JPG,AFNE01.JPG,AFNE01.JPG,0,4,4,7,,,,,,,,,,,,,,,,,,,,,,,AMNE19.jpg,AMSA05.jpg,AMNE15.jpg,AMSA09.jpg,AMNE19.jpg,MN,1,num_8,16,num_8,0.616775685918,,,2017_Jun_27_1806,59.996998031,MAFE4ImagesEEG,001,200612,
AFNE01.JPG,AFNE01.JPG,AFNE01.JPG,AFNE01.JPG,AFNE01.JPG,AFNE01.JPG,0,5,5,4,,,,,,,,,,,,,,,,,,,,,,,AMSA04.jpg,AMNE11.jpg,AMSA13.jpg,AMNE07.jpg,AMNE07.jpg,MN,1,num_4,16,num_4,0.483169531832,,,2017_Jun_27_1806,59.996998031,MAFE4ImagesEEG,001,200612,
AFNE01.JPG,AFNE01.JPG,AFNE01.JPG,AFNE01.JPG,AFNE01.JPG,AFNE01.JPG,0,6,6,8,,,,,,,,,,,,,,,,,,,,,,,AMNE09.jpg,AMSA15.jpg,AMSA12.jpg,AMNE08.jpg,AMNE08.jpg,MN,1,num_4,32,num_2,0.917061656975,,,2017_Jun_27_1806,59.996998031,MAFE4ImagesEEG,001,200612,
AFNE01.JPG,AFNE01.JPG,AFNE01.JPG,AFNE01.JPG,AFNE01.JPG,AFNE01.JPG,0,7,7,6,,,,,,,,,,,,,,,,,,,,,,,AMSA04.jpg,AMSA12.jpg,AMNE16.jpg,AMNE20.jpg,AMNE16.jpg,MN,1,num_2,16,num_2,0.816747268425,,,2017_Jun_27_1806,59.996998031,MAFE4ImagesEEG,001,200612,
AFNE01.JPG,AFNE01.JPG,AFNE01.JPG,AFNE01.JPG,AFNE01.JPG,AFNE01.JPG,0,8,8,9,,,,,,,,,,,,,,,,,,,,,,,AMNE09.jpg,AMSA08.jpg,AMSA20.jpg,AMNE06.jpg,AMSA20.jpg,MS,2,num_2,32,num_4,0.566796181149,,,2017_Jun_27_1806,59.996998031,MAFE4ImagesEEG,001,200612,
AFNE01.JPG,AFNE01.JPG,AFNE01.JPG,AFNE01.JPG,AFNE01.JPG,AFNE01.JPG,0,9,9,3,,,,,,,,,,,,,,,,,,,,,,,AMNE02.jpg,AMSA20.jpg,AMNE19.jpg,AMSA10.jpg,AMSA20.jpg,MS,2,num_6,16,num_6,0.666815168908,,,2017_Jun_27_1806,59.996998031,MAFE4ImagesEEG,001,200612,
AFNE01.JPG,AFNE01.JPG,AFNE01.JPG,AFNE01.JPG,AFNE01.JPG,AFNE01.JPG,1,0,10,6,,,,,,,,,,,,,,,,,,,,,,,AMNE11.jpg,AMSA05.jpg,AMSA08.jpg,AMNE03.jpg,AMSA08.jpg,MS,2,num_2,32,num_4,0.833458742356,,,2017_Jun_27_1806,59.996998031,MAFE4ImagesEEG,001,200612,
AFNE01.JPG,AFNE01.JPG,AFNE01.JPG,AFNE01.JPG,AFNE01.JPG,AFNE01.JPG,1,1,11,0,,,,,,,,,,,,,,,,,,,,,,,AMSA17.jpg,AMSA10.jpg,AMNE09.jpg,AMNE06.jpg,AMSA17.jpg,MS,2,num_8,32,num_6,0.750120758305,,,2017_Jun_27_1806,59.996998031,MAFE4ImagesEEG,001,200612,
AFNE01.JPG,AFNE01.JPG,AFNE01.JPG,AFNE01.JPG,AFNE01.JPG,AFNE01.JPG,1,2,12,7,,,,,,,,,,,,,,,,,,,,,,,AMNE14.jpg,AMSA11.jpg,AMNE02.jpg,AMSA08.jpg,AMSA08.jpg,MS,2,num_4,32,num_6,0.666843073221,,,2017_Jun_27_1806,59.996998031,MAFE4ImagesEEG,001,200612,
AFNE01.JPG,AFNE01.JPG,AFNE01.JPG,AFNE01.JPG,AFNE01.JPG,AFNE01.JPG,1,3,13,8,,,,,,,,,,,,,,,,,,,,,,,AMSA07.jpg,AMNE18.jpg,AMSA17.jpg,AMNE17.jpg,AMNE18.jpg,MN,1,num_6,32,num_4,0.766757500005,,,2017_Jun_27_1806,59.996998031,MAFE4ImagesEEG,001,200612,
AFNE01.JPG,AFNE01.JPG,AFNE01.JPG,AFNE01.JPG,AFNE01.JPG,AFNE01.JPG,1,4,14,4,,,,,,,,,,,,,,,,,,,,,,,AMNE01.jpg,AMNE06.jpg,AMSA20.jpg,AMSA16.jpg,AMNE01.jpg,MN,1,num_8,32,num_6,0.8667546775,,,2017_Jun_27_1806,59.996998031,MAFE4ImagesEEG,001,200612,
AFNE01.JPG,AFNE01.JPG,AFNE01.JPG,AFNE01.JPG,AFNE01.JPG,AFNE01.JPG,1,5,15,3,,,,,,,,,,,,,,,,,,,,,,,AMNE15.jpg,AMSA04.jpg,AMSA18.jpg,AMNE14.jpg,AMSA04.jpg,MS,2,num_6,16,num_6,0.866778412201,,,2017_Jun_27_1806,59.996998031,MAFE4ImagesEEG,001,200612,
AFNE01.JPG,AFNE01.JPG,AFNE01.JPG,AFNE01.JPG,AFNE01.JPG,AFNE01.JPG,1,6,16,2,,,,,,,,,,,,,,,,,,,,,,,AMNE03.jpg,AMNE06.jpg,AMSA10.jpg,AMSA17.jpg,AMSA17.jpg,MS,2,num_4,16,num_4,0.850123067627,,,2017_Jun_27_1806,59.996998031,MAFE4ImagesEEG,001,200612,
AFNE01.JPG,AFNE01.JPG,AFNE01.JPG,AFNE01.JPG,AFNE01.JPG,AFNE01.JPG,1,7,17,9,,,,,,,,,,,,,,,,,,,,,,,AMNE09.jpg,AMNE01.jpg,AMSA18.jpg,AMSA04.jpg,AMSA18.jpg,MS,2,num_2,16,num_2,0.600029572153,,,2017_Jun_27_1806,59.996998031,MAFE4ImagesEEG,001,200612,
AFNE01.JPG,AFNE01.JPG,AFNE01.JPG,AFNE01.JPG,AFNE01.JPG,AFNE01.JPG,1,8,18,5,,,,,,,,,,,,,,,,,,,,,,,AMNE08.jpg,AMNE10.jpg,AMSA03.jpg,AMSA15.jpg,AMSA15.jpg,MS,2,num_4,16,num_4,1.08347205303,,,2017_Jun_27_1806,59.996998031,MAFE4ImagesEEG,001,200612,
AFNE01.JPG,AFNE01.JPG,AFNE01.JPG,AFNE01.JPG,AFNE01.JPG,AFNE01.JPG,1,9,19,1,,,,,,,,,,,,,,,,,,,,,,,AMSA04.jpg,AMNE10.jpg,AMSA17.jpg,AMNE17.jpg,AMSA04.jpg,MS,2,num_8,32,num_4,0.600115209516,,,2017_Jun_27_1806,59.996998031,MAFE4ImagesEEG,001,200612,
AFNE01.JPG,AFNE01.JPG,AFNE01.JPG,AFNE01.JPG,AFNE01.JPG,AFNE01.JPG,2,0,20,9,,,,,,,,,,,,,,,,,,,,,,,AMSA20.jpg,AMNE18.jpg,AMNE03.jpg,AMSA09.jpg,AMSA09.jpg,MS,2,num_4,32,num_6,0.750125569393,,,2017_Jun_27_1806,59.996998031,MAFE4ImagesEEG,001,200612,
AFNE01.JPG,AFNE01.JPG,AFNE01.JPG,AFNE01.JPG,AFNE01.JPG,AFNE01.JPG,2,1,21,0,,,,,,,,,,,,,,,,,,,,,,,AMSA14.jpg,AMNE18.jpg,AMNE17.jpg,AMSA05.jpg,AMNE18.jpg,MN,1,num_6,32,num_2,0.750153152963,,,2017_Jun_27_1806,59.996998031,MAFE4ImagesEEG,001,200612,
AFNE01.JPG,AFNE01.JPG,AFNE01.JPG,AFNE01.JPG,AFNE01.JPG,AFNE01.JPG,2,2,22,6,,,,,,,,,,,,,,,,,,,,,,,AMSA17.jpg,AMNE12.jpg,AMSA03.jpg,AMNE19.jpg,AMNE12.jpg,MN,1,num_6,16,num_6,0.766771612529,,,2017_Jun_27_1806,59.996998031,MAFE4ImagesEEG,001,200612,
AFNE01.JPG,AFNE01.JPG,AFNE01.JPG,AFNE01.JPG,AFNE01.JPG,AFNE01.JPG,2,3,23,3,,,,,,,,,,,,,,,,,,,,,,,AMSA11.jpg,AMNE08.jpg,AMSA05.jpg,AMNE01.jpg,AMNE01.jpg,MN,1,num_4,16,num_4,0.716793390722,,,2017_Jun_27_1806,59.996998031,MAFE4ImagesEEG,001,200612,
AFNE01.JPG,AFNE01.JPG,AFNE01.JPG,AFNE01.JPG,AFNE01.JPG,AFNE01.JPG,2,4,24,7,,,,,,,,,,,,,,,,,,,,,,,AMSA18.jpg,AMNE18.jpg,AMNE06.jpg,AMSA10.jpg,AMSA18.jpg,MS,2,num_8,32,num_6,0.616782421439,,,2017_Jun_27_1806,59.996998031,MAFE4ImagesEEG,001,200612,
AFNE01.JPG,AFNE01.JPG,AFNE01.JPG,AFNE01.JPG,AFNE01.JPG,AFNE01.JPG,2,5,25,1,,,,,,,,,,,,,,,,,,,,,,,AMNE19.jpg,AMSA13.jpg,AMNE11.jpg,AMSA16.jpg,AMSA13.jpg,MS,2,num_6,16,num_6,0.550136346228,,,2017_Jun_27_1806,59.996998031,MAFE4ImagesEEG,001,200612,
AFNE01.JPG,AFNE01.JPG,AFNE01.JPG,AFNE01.JPG,AFNE01.JPG,AFNE01.JPG,2,6,26,4,,,,,,,,,,,,,,,,,,,,,,,AMSA19.jpg,AMNE20.jpg,AMSA18.jpg,AMNE10.jpg,AMNE10.jpg,MN,1,num_4,32,num_6,0.616884095765,,,2017_Jun_27_1806,59.996998031,MAFE4ImagesEEG,001,200612,
AFNE01.JPG,AFNE01.JPG,AFNE01.JPG,AFNE01.JPG,AFNE01.JPG,AFNE01.JPG,2,7,27,2,,,,,,,,,,,,,,,,,,,,,,,AMSA09.jpg,AMSA03.jpg,AMNE11.jpg,AMNE20.jpg,AMNE11.jpg,MN,1,num_2,32,num_4,0.516794224641,,,2017_Jun_27_1806,59.996998031,MAFE4ImagesEEG,001,200612,
AFNE01.JPG,AFNE01.JPG,AFNE01.JPG,AFNE01.JPG,AFNE01.JPG,AFNE01.JPG,2,8,28,8,,,,,,,,,,,,,,,,,,,,,,,AMNE04.jpg,AMSA08.jpg,AMNE18.jpg,AMSA03.jpg,AMSA03.jpg,MS,2,num_4,32,num_6,0.550175155669,,,2017_Jun_27_1806,59.996998031,MAFE4ImagesEEG,001,200612,
AFNE01.JPG,AFNE01.JPG,AFNE01.JPG,AFNE01.JPG,AFNE01.JPG,AFNE01.JPG,2,9,29,5,,,,,,,,,,,,,,,,,,,,,,,AMSA03.jpg,AMNE17.jpg,AMSA05.jpg,AMNE09.jpg,AMNE17.jpg,MN,1,num_6,16,num_6,0.666775717993,,,2017_Jun_27_1806,59.996998031,MAFE4ImagesEEG,001,200612,
AFNE01.JPG,AFNE01.JPG,AFNE01.JPG,AFNE01.JPG,AFNE01.JPG,AFNE01.JPG,3,0,30,8,,,,,,,,,,,,,,,,,,,,,,,AMNE01.jpg,AMSA11.jpg,AMSA07.jpg,AMNE10.jpg,AMNE01.jpg,MN,1,num_8,16,num_8,0.783493350114,,,2017_Jun_27_1806,59.996998031,MAFE4ImagesEEG,001,200612,
AFNE01.JPG,AFNE01.JPG,AFNE01.JPG,AFNE01.JPG,AFNE01.JPG,AFNE01.JPG,3,1,31,7,,,,,,,,,,,,,,,,,,,,,,,AMNE01.jpg,AMNE14.jpg,AMSA12.jpg,AMSA13.jpg,AMSA13.jpg,MS,2,num_4,16,num_4,0.633494216108,,,2017_Jun_27_1806,59.996998031,MAFE4ImagesEEG,001,200612,
AFNE01.JPG,AFNE01.JPG,AFNE01.JPG,AFNE01.JPG,AFNE01.JPG,AFNE01.JPG,3,2,32,2,,,,,,,,,,,,,,,,,,,,,,,AMNE12.jpg,AMSA14.jpg,AMSA15.jpg,AMNE09.jpg,AMNE12.jpg,MN,1,num_8,16,num_8,0.850167008895,,,2017_Jun_27_1806,59.996998031,MAFE4ImagesEEG,001,200612,
AFNE01.JPG,AFNE01.JPG,AFNE01.JPG,AFNE01.JPG,AFNE01.JPG,AFNE01.JPG,3,3,33,1,,,,,,,,,,,,,,,,,,,,,,,AMSA07.jpg,AMNE05.jpg,AMNE17.jpg,AMSA19.jpg,AMSA19.jpg,MS,2,num_4,16,num_4,0.733429170203,,,2017_Jun_27_1806,59.996998031,MAFE4ImagesEEG,001,200612,
AFNE01.JPG,AFNE01.JPG,AFNE01.JPG,AFNE01.JPG,AFNE01.JPG,AFNE01.JPG,3,4,34,4,,,,,,,,,,,,,,,,,,,,,,,AMNE16.jpg,AMSA08.jpg,AMSA04.jpg,AMNE15.jpg,AMSA04.jpg,MS,2,num_2,32,num_6,0.550134742531,,,2017_Jun_27_1806,59.996998031,MAFE4ImagesEEG,001,200612,
AFNE01.JPG,AFNE01.JPG,AFNE01.JPG,AFNE01.JPG,AFNE01.JPG,AFNE01.JPG,3,5,35,3,,,,,,,,,,,,,,,,,,,,,,,AMSA07.jpg,AMNE05.jpg,AMNE11.jpg,AMSA14.jpg,AMNE05.jpg,MN,1,num_6,32,num_2,0.850131406845,,,2017_Jun_27_1806,59.996998031,MAFE4ImagesEEG,001,200612,
AFNE01.JPG,AFNE01.JPG,AFNE01.JPG,AFNE01.JPG,AFNE01.JPG,AFNE01.JPG,3,6,36,6,,,,,,,,,,,,,,,,,,,,,,,AMSA02.jpg,AMNE05.jpg,AMNE02.jpg,AMSA19.jpg,AMSA19.jpg,MS,2,num_4,16,num_4,0.783434334102,,,2017_Jun_27_1806,59.996998031,MAFE4ImagesEEG,001,200612,
AFNE01.JPG,AFNE01.JPG,AFNE01.JPG,AFNE01.JPG,AFNE01.JPG,AFNE01.JPG,3,7,37,5,,,,,,,,,,,,,,,,,,,,,,,AMSA15.jpg,AMNE05.jpg,AMSA02.jpg,AMNE16.jpg,AMSA15.jpg,MS,2,num_8,32,num_2,0.766770650313,,,2017_Jun_27_1806,59.996998031,MAFE4ImagesEEG,001,200612,
AFNE01.JPG,AFNE01.JPG,AFNE01.JPG,AFNE01.JPG,AFNE01.JPG,AFNE01.JPG,3,8,38,0,,,,,,,,,,,,,,,,,,,,,,,AMNE19.jpg,AMNE16.jpg,AMSA19.jpg,AMSA14.jpg,AMNE16.jpg,MN,1,num_6,16,num_6,0.70009731227,,,2017_Jun_27_1806,59.996998031,MAFE4ImagesEEG,001,200612,
AFNE01.JPG,AFNE01.JPG,AFNE01.JPG,AFNE01.JPG,AFNE01.JPG,AFNE01.JPG,3,9,39,9,,,,,,,,,,,,,,,,,,,,,,,AMSA03.jpg,AMNE20.jpg,AMSA14.jpg,AMNE05.jpg,AMNE05.jpg,MN,1,num_4,32,num_2,0.716726676968,,,2017_Jun_27_1806,59.996998031,MAFE4ImagesEEG,001,200612,
AFNE01.JPG,AFNE01.JPG,AFNE01.JPG,AFNE01.JPG,AFNE01.JPG,AFNE01.JPG,4,0,40,9,,,,,,,,,,,,,,,,,,,,,,,AMSA11.jpg,AMNE06.jpg,AMSA16.jpg,AMNE01.jpg,AMSA16.jpg,MS,2,num_2,16,num_2,0.950112226641,,,2017_Jun_27_1806,59.996998031,MAFE4ImagesEEG,001,200612,
AFNE01.JPG,AFNE01.JPG,AFNE01.JPG,AFNE01.JPG,AFNE01.JPG,AFNE01.JPG,4,1,41,3,,,,,,,,,,,,,,,,,,,,,,,AMSA09.jpg,AMNE09.jpg,AMSA20.jpg,AMNE16.jpg,AMNE09.jpg,MN,1,num_6,32,num_2,0.63347336806,,,2017_Jun_27_1806,59.996998031,MAFE4ImagesEEG,001,200612,
AFNE01.JPG,AFNE01.JPG,AFNE01.JPG,AFNE01.JPG,AFNE01.JPG,AFNE01.JPG,4,2,42,4,,,,,,,,,,,,,,,,,,,,,,,AMNE08.jpg,AMSA01.jpg,AMSA12.jpg,AMNE14.jpg,AMSA12.jpg,MS,2,num_2,16,num_2,0.616773440743,,,2017_Jun_27_1806,59.996998031,MAFE4ImagesEEG,001,200612,
AFNE01.JPG,AFNE01.JPG,AFNE01.JPG,AFNE01.JPG,AFNE01.JPG,AFNE01.JPG,4,3,43,2,,,,,,,,,,,,,,,,,,,,,,,AMNE11.jpg,AMSA03.jpg,AMSA06.jpg,AMNE13.jpg,AMSA06.jpg,MS,2,num_2,16,num_2,0.550173231237,,,2017_Jun_27_1806,59.996998031,MAFE4ImagesEEG,001,200612,
AFNE01.JPG,AFNE01.JPG,AFNE01.JPG,AFNE01.JPG,AFNE01.JPG,AFNE01.JPG,4,4,44,1,,,,,,,,,,,,,,,,,,,,,,,AMNE12.jpg,AMSA07.jpg,AMNE01.jpg,AMSA20.jpg,AMNE12.jpg,MN,1,num_8,32,num_4,0.633460859233,,,2017_Jun_27_1806,59.996998031,MAFE4ImagesEEG,001,200612,
AFNE01.JPG,AFNE01.JPG,AFNE01.JPG,AFNE01.JPG,AFNE01.JPG,AFNE01.JPG,4,5,45,7,,,,,,,,,,,,,,,,,,,,,,,AMNE17.jpg,AMSA15.jpg,AMSA19.jpg,AMNE16.jpg,AMSA15.jpg,MS,2,num_6,16,num_6,0.716802692157,,,2017_Jun_27_1806,59.996998031,MAFE4ImagesEEG,001,200612,
AFNE01.JPG,AFNE01.JPG,AFNE01.JPG,AFNE01.JPG,AFNE01.JPG,AFNE01.JPG,4,6,46,0,,,,,,,,,,,,,,,,,,,,,,,AMNE05.jpg,AMSA12.jpg,AMSA03.jpg,AMNE11.jpg,AMSA03.jpg,MS,2,num_2,16,num_2,0.516814431212,,,2017_Jun_27_1806,59.996998031,MAFE4ImagesEEG,001,200612,
AFNE01.JPG,AFNE01.JPG,AFNE01.JPG,AFNE01.JPG,AFNE01.JPG,AFNE01.JPG,4,7,47,6,,,,,,,,,,,,,,,,,,,,,,,AMSA16.jpg,AMNE20.jpg,AMSA01.jpg,AMNE10.jpg,AMSA01.jpg,MS,2,num_2,16,num_2,0.666756473642,,,2017_Jun_27_1806,59.996998031,MAFE4ImagesEEG,001,200612,
AFNE01.JPG,AFNE01.JPG,AFNE01.JPG,AFNE01.JPG,AFNE01.JPG,AFNE01.JPG,4,8,48,8,,,,,,,,,,,,,,,,,,,,,,,AMSA01.jpg,AMNE01.jpg,AMSA02.jpg,AMNE19.jpg,AMSA01.jpg,MS,2,num_8,16,num_8,1.2000771057,,,2017_Jun_27_1806,59.996998031,MAFE4ImagesEEG,001,200612,
AFNE01.JPG,AFNE01.JPG,AFNE01.JPG,AFNE01.JPG,AFNE01.JPG,AFNE01.JPG,4,9,49,5,,,,,,,,,,,,,,,,,,,,,,,AMNE20.jpg,AMNE04.jpg,AMSA07.jpg,AMSA13.jpg,AMNE20.jpg,MN,1,num_8,16,num_8,0.750106004303,,,2017_Jun_27_1806,59.996998031,MAFE4ImagesEEG,001,200612,
AFNE01.JPG,AFNE01.JPG,AFNE01.JPG,AFNE01.JPG,AFNE01.JPG,AFNE01.JPG,5,0,50,5,,,,,,,,,,,,,,,,,,,,,,,AMSA01.jpg,AMNE09.jpg,AMSA12.jpg,AMNE13.jpg,AMSA12.jpg,MS,2,num_2,16,num_2,0.766749802264,,,2017_Jun_27_1806,59.996998031,MAFE4ImagesEEG,001,200612,
AFNE01.JPG,AFNE01.JPG,AFNE01.JPG,AFNE01.JPG,AFNE01.JPG,AFNE01.JPG,5,1,51,3,,,,,,,,,,,,,,,,,,,,,,,AMSA09.jpg,AMNE17.jpg,AMSA02.jpg,AMNE12.jpg,AMNE12.jpg,MN,1,num_4,16,num_4,0.833637714826,,,2017_Jun_27_1806,59.996998031,MAFE4ImagesEEG,001,200612,
AFNE01.JPG,AFNE01.JPG,AFNE01.JPG,AFNE01.JPG,AFNE01.JPG,AFNE01.JPG,5,2,52,0,,,,,,,,,,,,,,,,,,,,,,,AMNE01.jpg,AMSA03.jpg,AMNE08.jpg,AMSA09.jpg,AMSA03.jpg,MS,2,num_6,32,num_2,0.733508392783,,,2017_Jun_27_1806,59.996998031,MAFE4ImagesEEG,001,200612,
AFNE01.JPG,AFNE01.JPG,AFNE01.JPG,AFNE01.JPG,AFNE01.JPG,AFNE01.JPG,5,3,53,9,,,,,,,,,,,,,,,,,,,,,,,AMSA08.jpg,AMNE04.jpg,AMNE09.jpg,AMSA05.jpg,AMSA08.jpg,MS,2,num_8,16,num_8,0.750195811277,,,2017_Jun_27_1806,59.996998031,MAFE4ImagesEEG,001,200612,
AFNE01.JPG,AFNE01.JPG,AFNE01.JPG,AFNE01.JPG,AFNE01.JPG,AFNE01.JPG,5,4,54,6,,,,,,,,,,,,,,,,,,,,,,,AMNE20.jpg,AMNE09.jpg,AMSA15.jpg,AMSA17.jpg,AMNE09.jpg,MN,1,num_6,16,num_6,0.650171691686,,,2017_Jun_27_1806,59.996998031,MAFE4ImagesEEG,001,200612,
AFNE01.JPG,AFNE01.JPG,AFNE01.JPG,AFNE01.JPG,AFNE01.JPG,AFNE01.JPG,5,5,55,8,,,,,,,,,,,,,,,,,,,,,,,AMNE11.jpg,AMSA18.jpg,AMNE01.jpg,AMSA04.jpg,AMSA18.jpg,MS,2,num_6,32,num_4,0.516800639427,,,2017_Jun_27_1806,59.996998031,MAFE4ImagesEEG,001,200612,
AFNE01.JPG,AFNE01.JPG,AFNE01.JPG,AFNE01.JPG,AFNE01.JPG,AFNE01.JPG,5,6,56,1,,,,,,,,,,,,,,,,,,,,,,,AMSA19.jpg,AMNE15.jpg,AMSA20.jpg,AMNE04.jpg,AMNE04.jpg,MN,1,num_4,32,num_2,0.433552783088,,,2017_Jun_27_1806,59.996998031,MAFE4ImagesEEG,001,200612,
AFNE01.JPG,AFNE01.JPG,AFNE01.JPG,AFNE01.JPG,AFNE01.JPG,AFNE01.JPG,5,7,57,2,,,,,,,,,,,,,,,,,,,,,,,AMNE11.jpg,AMNE07.jpg,AMSA07.jpg,AMSA05.jpg,AMNE11.jpg,MN,1,num_8,16,num_8,0.566793615239,,,2017_Jun_27_1806,59.996998031,MAFE4ImagesEEG,001,200612,
AFNE01.JPG,AFNE01.JPG,AFNE01.JPG,AFNE01.JPG,AFNE01.JPG,AFNE01.JPG,5,8,58,4,,,,,,,,,,,,,,,,,,,,,,,AMSA08.jpg,AMNE01.jpg,AMSA13.jpg,AMNE09.jpg,AMNE01.jpg,MN,1,num_6,16,num_6,0.350097729231,,,2017_Jun_27_1806,59.996998031,MAFE4ImagesEEG,001,200612,
AFNE01.JPG,AFNE01.JPG,AFNE01.JPG,AFNE01.JPG,AFNE01.JPG,AFNE01.JPG,5,9,59,7,,,,,,,,,,,,,,,,,,,,,,,AMNE16.jpg,AMNE06.jpg,AMSA11.jpg,AMSA15.jpg,AMSA11.jpg,MS,2,num_2,32,num_4,0.483483535496,,,2017_Jun_27_1806,59.996998031,MAFE4ImagesEEG,001,200612,
,,,,,,,,,,,,,,,,,,,,,,,,,,,,,,,,,,,,,,,,,,,space,8.63284888886,2017_Jun_27_1806,59.996998031,MAFE4ImagesEEG,001,200612,
AFNE01.JPG,AFNE01.JPG,AFNE01.JPG,AFNE01.JPG,AFNE01.JPG,AFNE01.JPG,,,,,0,0,0,4,,,,,,,,,,,,,,,,,,,AFNE18.jpg,AFSA20.jpg,AFNE20.jpg,AFSA04.jpg,AFSA04.jpg,FS,4,num_4,32,num_8,0.600155622655,,,2017_Jun_27_1806,59.996998031,MAFE4ImagesEEG,001,200612,
AFNE01.JPG,AFNE01.JPG,AFNE01.JPG,AFNE01.JPG,AFNE01.JPG,AFNE01.JPG,,,,,0,1,1,9,,,,,,,,,,,,,,,,,,,AFSA05.jpg,AFNE05.jpg,AFNE04.jpg,AFSA08.jpg,AFNE05.jpg,FN,3,num_6,16,num_6,0.500162294029,,,2017_Jun_27_1806,59.996998031,MAFE4ImagesEEG,001,200612,
AFNE01.JPG,AFNE01.JPG,AFNE01.JPG,AFNE01.JPG,AFNE01.JPG,AFNE01.JPG,,,,,0,2,2,3,,,,,,,,,,,,,,,,,,,AFSA16.jpg,AFNE16.jpg,AFSA06.jpg,AFNE11.jpg,AFNE16.jpg,FN,3,num_6,32,num_4,0.600148245652,,,2017_Jun_27_1806,59.996998031,MAFE4ImagesEEG,001,200612,
AFNE01.JPG,AFNE01.JPG,AFNE01.JPG,AFNE01.JPG,AFNE01.JPG,AFNE01.JPG,,,,,0,3,3,7,,,,,,,,,,,,,,,,,,,AFSA09.jpg,AFNE09.jpg,AFSA11.jpg,AFNE02.jpg,AFNE02.jpg,FN,3,num_4,16,num_4,0.616884095762,,,2017_Jun_27_1806,59.996998031,MAFE4ImagesEEG,001,200612,
AFNE01.JPG,AFNE01.JPG,AFNE01.JPG,AFNE01.JPG,AFNE01.JPG,AFNE01.JPG,,,,,0,4,4,6,,,,,,,,,,,,,,,,,,,AFNE07.jpg,AFSA18.jpg,AFSA04.jpg,AFNE10.jpg,AFNE10.jpg,FN,3,num_4,16,num_4,0.516793903902,,,2017_Jun_27_1806,59.996998031,MAFE4ImagesEEG,001,200612,
AFNE01.JPG,AFNE01.JPG,AFNE01.JPG,AFNE01.JPG,AFNE01.JPG,AFNE01.JPG,,,,,0,5,5,8,,,,,,,,,,,,,,,,,,,AFSA05.jpg,AFSA14.jpg,AFNE06.jpg,AFNE02.jpg,AFNE06.jpg,FN,3,num_2,32,num_6,0.666753586986,,,2017_Jun_27_1806,59.996998031,MAFE4ImagesEEG,001,200612,
AFNE01.JPG,AFNE01.JPG,AFNE01.JPG,AFNE01.JPG,AFNE01.JPG,AFNE01.JPG,,,,,0,6,6,1,,,,,,,,,,,,,,,,,,,AFNE16.jpg,AFSA05.jpg,AFSA13.jpg,AFNE14.jpg,AFNE16.jpg,FN,3,num_8,32,num_4,0.76677578214,,,2017_Jun_27_1806,59.996998031,MAFE4ImagesEEG,001,200612,
AFNE01.JPG,AFNE01.JPG,AFNE01.JPG,AFNE01.JPG,AFNE01.JPG,AFNE01.JPG,,,,,0,7,7,0,,,,,,,,,,,,,,,,,,,AFNE11.jpg,AFNE16.jpg,AFSA07.jpg,AFSA11.jpg,AFNE16.jpg,FN,3,num_6,32,num_8,0.733460923384,,,2017_Jun_27_1806,59.996998031,MAFE4ImagesEEG,001,200612,
AFNE01.JPG,AFNE01.JPG,AFNE01.JPG,AFNE01.JPG,AFNE01.JPG,AFNE01.JPG,,,,,0,8,8,2,,,,,,,,,,,,,,,,,,,AFNE16.jpg,AFSA08.jpg,AFSA02.jpg,AFNE10.jpg,AFSA08.jpg,FS,4,num_6,16,num_6,0.533464964697,,,2017_Jun_27_1806,59.996998031,MAFE4ImagesEEG,001,200612,
AFNE01.JPG,AFNE01.JPG,AFNE01.JPG,AFNE01.JPG,AFNE01.JPG,AFNE01.JPG,,,,,0,9,9,5,,,,,,,,,,,,,,,,,,,AFSA02.jpg,AFNE04.jpg,AFSA01.jpg,AFNE10.jpg,AFSA01.jpg,FS,4,num_2,16,num_2,0.750082590341,,,2017_Jun_27_1806,59.996998031,MAFE4ImagesEEG,001,200612,
AFNE01.JPG,AFNE01.JPG,AFNE01.JPG,AFNE01.JPG,AFNE01.JPG,AFNE01.JPG,,,,,1,0,10,1,,,,,,,,,,,,,,,,,,,AFNE13.jpg,AFNE15.jpg,AFSA04.jpg,AFSA13.jpg,AFSA04.jpg,FS,4,num_2,16,num_2,1.01674354785,,,2017_Jun_27_1806,59.996998031,MAFE4ImagesEEG,001,200612,
AFNE01.JPG,AFNE01.JPG,AFNE01.JPG,AFNE01.JPG,AFNE01.JPG,AFNE01.JPG,,,,,1,1,11,2,,,,,,,,,,,,,,,,,,,AFSA14.jpg,AFSA10.jpg,AFNE07.jpg,AFNE10.jpg,AFNE07.jpg,FN,3,num_2,16,num_2,0.700142857233,,,2017_Jun_27_1806,59.996998031,MAFE4ImagesEEG,001,200612,
AFNE01.JPG,AFNE01.JPG,AFNE01.JPG,AFNE01.JPG,AFNE01.JPG,AFNE01.JPG,,,,,1,2,12,7,,,,,,,,,,,,,,,,,,,AFNE08.jpg,AFSA10.jpg,AFNE02.jpg,AFSA01.jpg,AFNE08.jpg,FN,3,num_8,16,num_8,0.866573459858,,,2017_Jun_27_1806,59.996998031,MAFE4ImagesEEG,001,200612,
AFNE01.JPG,AFNE01.JPG,AFNE01.JPG,AFNE01.JPG,AFNE01.JPG,AFNE01.JPG,,,,,1,3,13,8,,,,,,,,,,,,,,,,,,,AFSA15.jpg,AFSA17.jpg,AFNE19.jpg,AFNE13.jpg,AFNE13.jpg,FN,3,num_4,16,num_4,0.433451750243,,,2017_Jun_27_1806,59.996998031,MAFE4ImagesEEG,001,200612,
AFNE01.JPG,AFNE01.JPG,AFNE01.JPG,AFNE01.JPG,AFNE01.JPG,AFNE01.JPG,,,,,1,4,14,0,,,,,,,,,,,,,,,,,,,AFNE06.jpg,AFNE11.jpg,AFSA10.jpg,AFSA05.jpg,AFSA10.jpg,FS,4,num_2,16,num_2,0.550141157317,,,2017_Jun_27_1806,59.996998031,MAFE4ImagesEEG,001,200612,
AFNE01.JPG,AFNE01.JPG,AFNE01.JPG,AFNE01.JPG,AFNE01.JPG,AFNE01.JPG,,,,,1,5,15,6,,,,,,,,,,,,,,,,,,,AFSA17.jpg,AFSA14.jpg,AFNE07.jpg,AFNE06.jpg,AFNE06.jpg,FN,3,num_4,32,num_2,0.666765775077,,,2017_Jun_27_1806,59.996998031,MAFE4ImagesEEG,001,200612,
AFNE01.JPG,AFNE01.JPG,AFNE01.JPG,AFNE01.JPG,AFNE01.JPG,AFNE01.JPG,,,,,1,6,16,9,,,,,,,,,,,,,,,,,,,AFNE08.jpg,AFNE18.jpg,AFSA20.jpg,AFSA13.jpg,AFNE08.jpg,FN,3,num_8,32,num_6,0.666775397254,,,2017_Jun_27_1806,59.996998031,MAFE4ImagesEEG,001,200612,
AFNE01.JPG,AFNE01.JPG,AFNE01.JPG,AFNE01.JPG,AFNE01.JPG,AFNE01.JPG,,,,,1,7,17,3,,,,,,,,,,,,,,,,,,,AFNE10.jpg,AFSA05.jpg,AFSA02.jpg,AFNE19.jpg,AFSA05.jpg,FS,4,num_6,32,num_2,0.633468877713,,,2017_Jun_27_1806,59.996998031,MAFE4ImagesEEG,001,200612,
AFNE01.JPG,AFNE01.JPG,AFNE01.JPG,AFNE01.JPG,AFNE01.JPG,AFNE01.JPG,,,,,1,8,18,4,,,,,,,,,,,,,,,,,,,AFSA20.jpg,AFSA19.jpg,AFNE07.jpg,AFNE09.jpg,AFNE07.jpg,FN,3,num_2,16,num_2,0.583526578695,,,2017_Jun_27_1806,59.996998031,MAFE4ImagesEEG,001,200612,
AFNE01.JPG,AFNE01.JPG,AFNE01.JPG,AFNE01.JPG,AFNE01.JPG,AFNE01.JPG,,,,,1,9,19,5,,,,,,,,,,,,,,,,,,,AFNE16.jpg,AFNE17.jpg,AFSA14.jpg,AFSA08.jpg,AFNE16.jpg,FN,3,num_8,16,num_8,0.666758718813,,,2017_Jun_27_1806,59.996998031,MAFE4ImagesEEG,001,200612,
AFNE01.JPG,AFNE01.JPG,AFNE01.JPG,AFNE01.JPG,AFNE01.JPG,AFNE01.JPG,,,,,2,0,20,2,,,,,,,,,,,,,,,,,,,AFNE18.jpg,AFSA14.jpg,AFSA05.jpg,AFNE10.jpg,AFSA14.jpg,FS,4,num_6,32,num_8,0.516772735115,,,2017_Jun_27_1806,59.996998031,MAFE4ImagesEEG,001,200612,
AFNE01.JPG,AFNE01.JPG,AFNE01.JPG,AFNE01.JPG,AFNE01.JPG,AFNE01.JPG,,,,,2,1,21,6,,,,,,,,,,,,,,,,,,,AFNE03.jpg,AFSA14.jpg,AFSA08.jpg,AFNE06.jpg,AFNE06.jpg,FN,3,num_4,32,num_8,0.883461661084,,,2017_Jun_27_1806,59.996998031,MAFE4ImagesEEG,001,200612,
AFNE01.JPG,AFNE01.JPG,AFNE01.JPG,AFNE01.JPG,AFNE01.JPG,AFNE01.JPG,,,,,2,2,22,8,,,,,,,,,,,,,,,,,,,AFSA20.jpg,AFNE08.jpg,AFNE20.jpg,AFSA19.jpg,AFSA20.jpg,FS,4,num_8,32,num_4,1.10014215161,,,2017_Jun_27_1806,59.996998031,MAFE4ImagesEEG,001,200612,
AFNE01.JPG,AFNE01.JPG,AFNE01.JPG,AFNE01.JPG,AFNE01.JPG,AFNE01.JPG,,,,,2,3,23,5,,,,,,,,,,,,,,,,,,,AFSA12.jpg,AFSA07.jpg,AFNE01.jpg,AFNE06.jpg,AFSA07.jpg,FS,4,num_6,32,num_4,0.733487865476,,,2017_Jun_27_1806,59.996998031,MAFE4ImagesEEG,001,200612,
AFNE01.JPG,AFNE01.JPG,AFNE01.JPG,AFNE01.JPG,AFNE01.JPG,AFNE01.JPG,,,,,2,4,24,9,,,,,,,,,,,,,,,,,,,AFSA06.jpg,AFSA18.jpg,AFNE16.jpg,AFNE18.jpg,AFSA06.jpg,FS,4,num_8,16,num_8,0.583025584081,,,2017_Jun_27_1806,59.996998031,MAFE4ImagesEEG,001,200612,
AFNE01.JPG,AFNE01.JPG,AFNE01.JPG,AFNE01.JPG,AFNE01.JPG,AFNE01.JPG,,,,,2,5,25,3,,,,,,,,,,,,,,,,,,,AFNE04.jpg,AFSA10.jpg,AFSA05.jpg,AFNE16.jpg,AFNE04.jpg,FN,3,num_8,16,num_8,0.600192828402,,,2017_Jun_27_1806,59.996998031,MAFE4ImagesEEG,001,200612,
AFNE01.JPG,AFNE01.JPG,AFNE01.JPG,AFNE01.JPG,AFNE01.JPG,AFNE01.JPG,,,,,2,6,26,0,,,,,,,,,,,,,,,,,,,AFNE04.jpg,AFNE17.jpg,AFSA11.jpg,AFSA07.jpg,AFNE04.jpg,FN,3,num_8,16,num_8,0.850124350582,,,2017_Jun_27_1806,59.996998031,MAFE4ImagesEEG,001,200612,
AFNE01.JPG,AFNE01.JPG,AFNE01.JPG,AFNE01.JPG,AFNE01.JPG,AFNE01.JPG,,,,,2,7,27,4,,,,,,,,,,,,,,,,,,,AFSA19.jpg,AFNE04.jpg,AFNE18.jpg,AFSA08.jpg,AFSA08.jpg,FS,4,num_4,16,num_4,0.750105042087,,,2017_Jun_27_1806,59.996998031,MAFE4ImagesEEG,001,200612,
AFNE01.JPG,AFNE01.JPG,AFNE01.JPG,AFNE01.JPG,AFNE01.JPG,AFNE01.JPG,,,,,2,8,28,1,,,,,,,,,,,,,,,,,,,AFNE05.jpg,AFSA11.jpg,AFSA15.jpg,AFNE12.jpg,AFNE05.jpg,FN,3,num_8,16,num_8,0.650084771369,,,2017_Jun_27_1806,59.996998031,MAFE4ImagesEEG,001,200612,
AFNE01.JPG,AFNE01.JPG,AFNE01.JPG,AFNE01.JPG,AFNE01.JPG,AFNE01.JPG,,,,,2,9,29,7,,,,,,,,,,,,,,,,,,,AFNE03.jpg,AFSA19.jpg,AFSA10.jpg,AFNE04.jpg,AFSA19.jpg,FS,4,num_6,32,num_8,1.01672045463,,,2017_Jun_27_1806,59.996998031,MAFE4ImagesEEG,001,200612,
AFNE01.JPG,AFNE01.JPG,AFNE01.JPG,AFNE01.JPG,AFNE01.JPG,AFNE01.JPG,,,,,3,0,30,1,,,,,,,,,,,,,,,,,,,AFNE03.jpg,AFSA10.jpg,AFNE20.jpg,AFSA20.jpg,AFNE03.jpg,FN,3,num_8,32,num_6,0.766663202685,,,2017_Jun_27_1806,59.996998031,MAFE4ImagesEEG,001,200612,
AFNE01.JPG,AFNE01.JPG,AFNE01.JPG,AFNE01.JPG,AFNE01.JPG,AFNE01.JPG,,,,,3,1,31,9,,,,,,,,,,,,,,,,,,,AFNE13.jpg,AFSA16.jpg,AFSA01.jpg,AFNE19.jpg,AFSA16.jpg,FS,4,num_6,32,num_2,0.700189364419,,,2017_Jun_27_1806,59.996998031,MAFE4ImagesEEG,001,200612,
AFNE01.JPG,AFNE01.JPG,AFNE01.JPG,AFNE01.JPG,AFNE01.JPG,AFNE01.JPG,,,,,3,2,32,8,,,,,,,,,,,,,,,,,,,AFNE02.jpg,AFSA10.jpg,AFSA09.jpg,AFNE13.jpg,AFSA10.jpg,FS,4,num_6,16,num_6,0.533482284613,,,2017_Jun_27_1806,59.996998031,MAFE4ImagesEEG,001,200612,
AFNE01.JPG,AFNE01.JPG,AFNE01.JPG,AFNE01.JPG,AFNE01.JPG,AFNE01.JPG,,,,,3,3,33,5,,,,,,,,,,,,,,,,,,,AFSA04.jpg,AFNE11.jpg,AFSA13.jpg,AFNE13.jpg,AFNE13.jpg,FN,3,num_4,16,num_4,1.0667057327,,,2017_Jun_27_1806,59.996998031,MAFE4ImagesEEG,001,200612,
AFNE01.JPG,AFNE01.JPG,AFNE01.JPG,AFNE01.JPG,AFNE01.JPG,AFNE01.JPG,,,,,3,4,34,4,,,,,,,,,,,,,,,,,,,AFSA07.jpg,AFNE17.jpg,AFNE04.jpg,AFSA14.jpg,AFNE04.jpg,FN,3,num_2,32,num_8,0.683461532786,,,2017_Jun_27_1806,59.996998031,MAFE4ImagesEEG,001,200612,
AFNE01.JPG,AFNE01.JPG,AFNE01.JPG,AFNE01.JPG,AFNE01.JPG,AFNE01.JPG,,,,,3,5,35,2,,,,,,,,,,,,,,,,,,,AFSA05.jpg,AFSA13.jpg,AFNE16.jpg,AFNE18.jpg,AFNE16.jpg,FN,3,num_2,16,num_2,0.733429170203,,,2017_Jun_27_1806,59.996998031,MAFE4ImagesEEG,001,200612,
AFNE01.JPG,AFNE01.JPG,AFNE01.JPG,AFNE01.JPG,AFNE01.JPG,AFNE01.JPG,,,,,3,6,36,7,,,,,,,,,,,,,,,,,,,AFSA09.jpg,AFNE16.jpg,AFSA08.jpg,AFNE18.jpg,AFSA08.jpg,FS,4,num_2,32,num_8,0.550161684623,,,2017_Jun_27_1806,59.996998031,MAFE4ImagesEEG,001,200612,
AFNE01.JPG,AFNE01.JPG,AFNE01.JPG,AFNE01.JPG,AFNE01.JPG,AFNE01.JPG,,,,,3,7,37,6,,,,,,,,,,,,,,,,,,,AFNE07.jpg,AFSA09.jpg,AFSA05.jpg,AFNE18.jpg,AFSA09.jpg,FS,4,num_6,16,num_6,0.566776295324,,,2017_Jun_27_1806,59.996998031,MAFE4ImagesEEG,001,200612,
AFNE01.JPG,AFNE01.JPG,AFNE01.JPG,AFNE01.JPG,AFNE01.JPG,AFNE01.JPG,,,,,3,8,38,3,,,,,,,,,,,,,,,,,,,AFNE01.jpg,AFSA16.jpg,AFSA11.jpg,AFNE17.jpg,AFSA16.jpg,FS,4,num_6,16,num_6,0.650159824338,,,2017_Jun_27_1806,59.996998031,MAFE4ImagesEEG,001,200612,
AFNE01.JPG,AFNE01.JPG,AFNE01.JPG,AFNE01.JPG,AFNE01.JPG,AFNE01.JPG,,,,,3,9,39,0,,,,,,,,,,,,,,,,,,,AFNE12.jpg,AFNE13.jpg,AFSA06.jpg,AFSA19.jpg,AFNE13.jpg,FN,3,num_6,32,num_8,0.800168580517,,,2017_Jun_27_1806,59.996998031,MAFE4ImagesEEG,001,200612,
AFNE01.JPG,AFNE01.JPG,AFNE01.JPG,AFNE01.JPG,AFNE01.JPG,AFNE01.JPG,,,,,4,0,40,8,,,,,,,,,,,,,,,,,,,AFNE16.jpg,AFNE20.jpg,AFSA03.jpg,AFSA07.jpg,AFSA03.jpg,FS,4,num_2,16,num_2,0.500229007779,,,2017_Jun_27_1806,59.996998031,MAFE4ImagesEEG,001,200612,
AFNE01.JPG,AFNE01.JPG,AFNE01.JPG,AFNE01.JPG,AFNE01.JPG,AFNE01.JPG,,,,,4,1,41,3,,,,,,,,,,,,,,,,,,,AFSA12.jpg,AFNE02.jpg,AFNE11.jpg,AFSA13.jpg,AFNE11.jpg,FN,3,num_2,16,num_2,0.750161492182,,,2017_Jun_27_1806,59.996998031,MAFE4ImagesEEG,001,200612,
AFNE01.JPG,AFNE01.JPG,AFNE01.JPG,AFNE01.JPG,AFNE01.JPG,AFNE01.JPG,,,,,4,2,42,7,,,,,,,,,,,,,,,,,,,AFSA13.jpg,AFNE05.jpg,AFSA01.jpg,AFNE18.jpg,AFSA01.jpg,FS,4,num_2,16,num_2,0.950100680031,,,2017_Jun_27_1806,59.996998031,MAFE4ImagesEEG,001,200612,
AFNE01.JPG,AFNE01.JPG,AFNE01.JPG,AFNE01.JPG,AFNE01.JPG,AFNE01.JPG,,,,,4,3,43,5,,,,,,,,,,,,,,,,,,,AFNE17.jpg,AFSA08.jpg,AFNE03.jpg,AFSA17.jpg,AFNE17.jpg,FN,3,num_8,32,num_2,0.666782453514,,,2017_Jun_27_1806,59.996998031,MAFE4ImagesEEG,001,200612,
AFNE01.JPG,AFNE01.JPG,AFNE01.JPG,AFNE01.JPG,AFNE01.JPG,AFNE01.JPG,,,,,4,4,44,4,,,,,,,,,,,,,,,,,,,AFSA04.jpg,AFNE14.jpg,AFSA10.jpg,AFNE04.jpg,AFNE14.jpg,FN,3,num_6,32,num_4,0.88343953008,,,2017_Jun_27_1806,59.996998031,MAFE4ImagesEEG,001,200612,
AFNE01.JPG,AFNE01.JPG,AFNE01.JPG,AFNE01.JPG,AFNE01.JPG,AFNE01.JPG,,,,,4,5,45,6,,,,,,,,,,,,,,,,,,,AFNE07.jpg,AFNE09.jpg,AFSA11.jpg,AFSA06.jpg,AFNE09.jpg,FN,3,num_6,16,num_6,0.616811287968,,,2017_Jun_27_1806,59.996998031,MAFE4ImagesEEG,001,200612,
AFNE01.JPG,AFNE01.JPG,AFNE01.JPG,AFNE01.JPG,AFNE01.JPG,AFNE01.JPG,,,,,4,6,46,0,,,,,,,,,,,,,,,,,,,AFNE14.jpg,AFNE20.jpg,AFSA01.jpg,AFSA02.jpg,AFSA01.jpg,FS,4,num_2,16,num_2,0.68344453361,,,2017_Jun_27_1806,59.996998031,MAFE4ImagesEEG,001,200612,
AFNE01.JPG,AFNE01.JPG,AFNE01.JPG,AFNE01.JPG,AFNE01.JPG,AFNE01.JPG,,,,,4,7,47,1,,,,,,,,,,,,,,,,,,,AFNE20.jpg,AFNE12.jpg,AFSA16.jpg,AFSA14.jpg,AFSA16.jpg,FS,4,num_2,32,num_8,0.666732418202,,,2017_Jun_27_1806,59.996998031,MAFE4ImagesEEG,001,200612,
AFNE01.JPG,AFNE01.JPG,AFNE01.JPG,AFNE01.JPG,AFNE01.JPG,AFNE01.JPG,,,,,4,8,48,9,,,,,,,,,,,,,,,,,,,AFSA02.jpg,AFNE09.jpg,AFNE03.jpg,AFSA13.jpg,AFSA02.jpg,FS,4,num_8,32,num_2,0.600125473171,,,2017_Jun_27_1806,59.996998031,MAFE4ImagesEEG,001,200612,
AFNE01.JPG,AFNE01.JPG,AFNE01.JPG,AFNE01.JPG,AFNE01.JPG,AFNE01.JPG,,,,,4,9,49,2,,,,,,,,,,,,,,,,,,,AFSA19.jpg,AFNE17.jpg,AFSA16.jpg,AFNE03.jpg,AFSA16.jpg,FS,4,num_2,16,num_2,1.21676901454,,,2017_Jun_27_1806,59.996998031,MAFE4ImagesEEG,001,200612,
AFNE01.JPG,AFNE01.JPG,AFNE01.JPG,AFNE01.JPG,AFNE01.JPG,AFNE01.JPG,,,,,5,0,50,4,,,,,,,,,,,,,,,,,,,AFNE05.jpg,AFSA18.jpg,AFNE06.jpg,AFSA17.jpg,AFSA18.jpg,FS,4,num_6,32,num_4,0.65019382269,,,2017_Jun_27_1806,59.996998031,MAFE4ImagesEEG,001,200612,
AFNE01.JPG,AFNE01.JPG,AFNE01.JPG,AFNE01.JPG,AFNE01.JPG,AFNE01.JPG,,,,,5,1,51,7,,,,,,,,,,,,,,,,,,,AFSA18.jpg,AFSA08.jpg,AFNE11.jpg,AFNE07.jpg,AFSA08.jpg,FS,4,num_6,32,num_2,0.71676195828,,,2017_Jun_27_1806,59.996998031,MAFE4ImagesEEG,001,200612,
AFNE01.JPG,AFNE01.JPG,AFNE01.JPG,AFNE01.JPG,AFNE01.JPG,AFNE01.JPG,,,,,5,2,52,0,,,,,,,,,,,,,,,,,,,AFSA13.jpg,AFSA17.jpg,AFNE20.jpg,AFNE18.jpg,AFSA13.jpg,FS,4,num_8,32,num_6,0.600091474815,,,2017_Jun_27_1806,59.996998031,MAFE4ImagesEEG,001,200612,
AFNE01.JPG,AFNE01.JPG,AFNE01.JPG,AFNE01.JPG,AFNE01.JPG,AFNE01.JPG,,,,,5,3,53,1,,,,,,,,,,,,,,,,,,,AFSA02.jpg,AFNE11.jpg,AFSA13.jpg,AFNE16.jpg,AFNE11.jpg,FN,3,num_6,16,num_6,0.783507783377,,,2017_Jun_27_1806,59.996998031,MAFE4ImagesEEG,001,200612,
AFNE01.JPG,AFNE01.JPG,AFNE01.JPG,AFNE01.JPG,AFNE01.JPG,AFNE01.JPG,,,,,5,4,54,8,,,,,,,,,,,,,,,,,,,AFNE02.jpg,AFNE09.jpg,AFSA01.jpg,AFSA12.jpg,AFSA01.jpg,FS,4,num_2,16,num_2,0.550159760191,,,2017_Jun_27_1806,59.996998031,MAFE4ImagesEEG,001,200612,
AFNE01.JPG,AFNE01.JPG,AFNE01.JPG,AFNE01.JPG,AFNE01.JPG,AFNE01.JPG,,,,,5,5,55,5,,,,,,,,,,,,,,,,,,,AFSA04.jpg,AFSA10.jpg,AFNE14.jpg,AFNE06.jpg,AFNE06.jpg,FN,3,num_4,32,num_2,0.900150041794,,,2017_Jun_27_1806,59.996998031,MAFE4ImagesEEG,001,200612,
AFNE01.JPG,AFNE01.JPG,AFNE01.JPG,AFNE01.JPG,AFNE01.JPG,AFNE01.JPG,,,,,5,6,56,2,,,,,,,,,,,,,,,,,,,AFNE11.jpg,AFNE03.jpg,AFSA12.jpg,AFSA10.jpg,AFNE03.jpg,FN,3,num_6,32,num_8,0.71675746793,,,2017_Jun_27_1806,59.996998031,MAFE4ImagesEEG,001,200612,
AFNE01.JPG,AFNE01.JPG,AFNE01.JPG,AFNE01.JPG,AFNE01.JPG,AFNE01.JPG,,,,,5,7,57,3,,,,,,,,,,,,,,,,,,,AFNE11.jpg,AFSA20.jpg,AFSA04.jpg,AFNE01.jpg,AFNE01.jpg,FN,3,num_4,16,num_4,0.650159824338,,,2017_Jun_27_1806,59.996998031,MAFE4ImagesEEG,001,200612,
AFNE01.JPG,AFNE01.JPG,AFNE01.JPG,AFNE01.JPG,AFNE01.JPG,AFNE01.JPG,,,,,5,8,58,6,,,,,,,,,,,,,,,,,,,AFNE08.jpg,AFNE19.jpg,AFSA09.jpg,AFSA18.jpg,AFNE08.jpg,FN,3,num_8,16,num_8,0.800131695509,,,2017_Jun_27_1806,59.996998031,MAFE4ImagesEEG,001,200612,
AFNE01.JPG,AFNE01.JPG,AFNE01.JPG,AFNE01.JPG,AFNE01.JPG,AFNE01.JPG,,,,,5,9,59,9,,,,,,,,,,,,,,,,,,,AFSA15.jpg,AFNE15.jpg,AFSA07.jpg,AFNE05.jpg,AFSA07.jpg,FS,4,num_2,16,num_2,0.566790087105,,,2017_Jun_27_1806,59.996998031,MAFE4ImagesEEG,001,200612,
,,,,,,,,,,,,,,,,,,,,,,,,,,,,,,,,,,,,,,,,,,,space,2.31635243848,2017_Jun_27_1806,59.996998031,MAFE4ImagesEEG,001,200612,
AFNE01.JPG,AFNE01.JPG,AFNE01.JPG,AFNE01.JPG,AFNE01.JPG,AFNE01.JPG,,,,,,,,,0,0,0,2,,,,,,,,,,,,,,,AMNE02.jpg,AMNE11.jpg,AMSA07.jpg,AMSA12.jpg,AMNE11.jpg,MN,1,num_6,16,num_6,0.550344185223,,,2017_Jun_27_1806,59.996998031,MAFE4ImagesEEG,001,200612,
AFNE01.JPG,AFNE01.JPG,AFNE01.JPG,AFNE01.JPG,AFNE01.JPG,AFNE01.JPG,,,,,,,,,0,1,1,4,,,,,,,,,,,,,,,AMSA07.jpg,AMNE06.jpg,AMSA17.jpg,AMNE08.jpg,AMSA07.jpg,MS,2,num_8,32,num_4,0.583489693687,,,2017_Jun_27_1806,59.996998031,MAFE4ImagesEEG,001,200612,
AFNE01.JPG,AFNE01.JPG,AFNE01.JPG,AFNE01.JPG,AFNE01.JPG,AFNE01.JPG,,,,,,,,,0,2,2,5,,,,,,,,,,,,,,,AMNE12.jpg,AMSA02.jpg,AMNE04.jpg,AMSA06.jpg,AMSA02.jpg,MS,2,num_6,32,num_2,0.650432131912,,,2017_Jun_27_1806,59.996998031,MAFE4ImagesEEG,001,200612,
AFNE01.JPG,AFNE01.JPG,AFNE01.JPG,AFNE01.JPG,AFNE01.JPG,AFNE01.JPG,,,,,,,,,0,3,3,7,,,,,,,,,,,,,,,AMNE06.jpg,AMNE13.jpg,AMSA07.jpg,AMSA13.jpg,AMSA13.jpg,MS,2,num_4,16,num_4,0.566781747886,,,2017_Jun_27_1806,59.996998031,MAFE4ImagesEEG,001,200612,
AFNE01.JPG,AFNE01.JPG,AFNE01.JPG,AFNE01.JPG,AFNE01.JPG,AFNE01.JPG,,,,,,,,,0,4,4,1,,,,,,,,,,,,,,,AMNE02.jpg,AMSA16.jpg,AMSA12.jpg,AMNE05.jpg,AMNE05.jpg,MN,1,num_4,16,num_4,0.700077426442,,,2017_Jun_27_1806,59.996998031,MAFE4ImagesEEG,001,200612,
AFNE01.JPG,AFNE01.JPG,AFNE01.JPG,AFNE01.JPG,AFNE01.JPG,AFNE01.JPG,,,,,,,,,0,5,5,6,,,,,,,,,,,,,,,AMNE16.jpg,AMNE07.jpg,AMSA17.jpg,AMSA19.jpg,AMNE07.jpg,MN,1,num_6,16,num_6,0.650102091284,,,2017_Jun_27_1806,59.996998031,MAFE4ImagesEEG,001,200612,
AFNE01.JPG,AFNE01.JPG,AFNE01.JPG,AFNE01.JPG,AFNE01.JPG,AFNE01.JPG,,,,,,,,,0,6,6,9,,,,,,,,,,,,,,,AMNE04.jpg,AMSA04.jpg,AMSA16.jpg,AMNE12.jpg,AMSA16.jpg,MS,2,num_2,16,num_2,0.733480809213,,,2017_Jun_27_1806,59.996998031,MAFE4ImagesEEG,001,200612,
AFNE01.JPG,AFNE01.JPG,AFNE01.JPG,AFNE01.JPG,AFNE01.JPG,AFNE01.JPG,,,,,,,,,0,7,7,3,,,,,,,,,,,,,,,AMSA13.jpg,AMNE20.jpg,AMNE13.jpg,AMSA14.jpg,AMNE13.jpg,MN,1,num_2,32,num_6,0.816746947687,,,2017_Jun_27_1806,59.996998031,MAFE4ImagesEEG,001,200612,
AFNE01.JPG,AFNE01.JPG,AFNE01.JPG,AFNE01.JPG,AFNE01.JPG,AFNE01.JPG,,,,,,,,,0,8,8,0,,,,,,,,,,,,,,,AMNE13.jpg,AMNE20.jpg,AMSA11.jpg,AMSA03.jpg,AMSA11.jpg,MS,2,num_2,32,num_4,0.566787841934,,,2017_Jun_27_1806,59.996998031,MAFE4ImagesEEG,001,200612,
AFNE01.JPG,AFNE01.JPG,AFNE01.JPG,AFNE01.JPG,AFNE01.JPG,AFNE01.JPG,,,,,,,,,0,9,9,8,,,,,,,,,,,,,,,AMNE19.jpg,AMNE17.jpg,AMSA01.jpg,AMSA15.jpg,AMNE17.jpg,MN,1,num_6,32,num_2,0.500161331813,,,2017_Jun_27_1806,59.996998031,MAFE4ImagesEEG,001,200612,
AFNE01.JPG,AFNE01.JPG,AFNE01.JPG,AFNE01.JPG,AFNE01.JPG,AFNE01.JPG,,,,,,,,,1,0,10,8,,,,,,,,,,,,,,,AMSA17.jpg,AMNE13.jpg,AMNE01.jpg,AMSA08.jpg,AMSA17.jpg,MS,2,num_8,32,num_6,0.98343799053,,,2017_Jun_27_1806,59.996998031,MAFE4ImagesEEG,001,200612,
AFNE01.JPG,AFNE01.JPG,AFNE01.JPG,AFNE01.JPG,AFNE01.JPG,AFNE01.JPG,,,,,,,,,1,1,11,7,,,,,,,,,,,,,,,AMNE04.jpg,AMNE08.jpg,AMSA20.jpg,AMSA17.jpg,AMSA17.jpg,MS,2,num_4,32,num_6,0.63344674671,,,2017_Jun_27_1806,59.996998031,MAFE4ImagesEEG,001,200612,
AFNE01.JPG,AFNE01.JPG,AFNE01.JPG,AFNE01.JPG,AFNE01.JPG,AFNE01.JPG,,,,,,,,,1,2,12,6,,,,,,,,,,,,,,,AMNE07.jpg,AMSA18.jpg,AMSA08.jpg,AMNE01.jpg,AMNE07.jpg,MN,1,num_8,16,num_8,0.800139713989,,,2017_Jun_27_1806,59.996998031,MAFE4ImagesEEG,001,200612,
AFNE01.JPG,AFNE01.JPG,AFNE01.JPG,AFNE01.JPG,AFNE01.JPG,AFNE01.JPG,,,,,,,,,1,3,13,1,,,,,,,,,,,,,,,AMSA18.jpg,AMSA06.jpg,AMNE04.jpg,AMNE16.jpg,AMNE04.jpg,MN,1,num_2,16,num_2,0.583468204164,,,2017_Jun_27_1806,59.996998031,MAFE4ImagesEEG,001,200612,
AFNE01.JPG,AFNE01.JPG,AFNE01.JPG,AFNE01.JPG,AFNE01.JPG,AFNE01.JPG,,,,,,,,,1,4,14,2,,,,,,,,,,,,,,,AMNE02.jpg,AMSA11.jpg,AMSA12.jpg,AMNE17.jpg,AMSA12.jpg,MS,2,num_2,32,num_6,1.18341278043,,,2017_Jun_27_1806,59.996998031,MAFE4ImagesEEG,001,200612,
AFNE01.JPG,AFNE01.JPG,AFNE01.JPG,AFNE01.JPG,AFNE01.JPG,AFNE01.JPG,,,,,,,,,1,5,15,0,,,,,,,,,,,,,,,AMSA15.jpg,AMSA09.jpg,AMNE07.jpg,AMNE13.jpg,AMNE13.jpg,MN,1,num_4,16,num_4,0.933457202809,,,2017_Jun_27_1806,59.996998031,MAFE4ImagesEEG,001,200612,
AFNE01.JPG,AFNE01.JPG,AFNE01.JPG,AFNE01.JPG,AFNE01.JPG,AFNE01.JPG,,,,,,,,,1,6,16,3,,,,,,,,,,,,,,,AMSA02.jpg,AMNE03.jpg,AMNE20.jpg,AMSA07.jpg,AMSA02.jpg,MS,2,num_8,16,num_8,0.866755960458,,,2017_Jun_27_1806,59.996998031,MAFE4ImagesEEG,001,200612,
AFNE01.JPG,AFNE01.JPG,AFNE01.JPG,AFNE01.JPG,AFNE01.JPG,AFNE01.JPG,,,,,,,,,1,7,17,9,,,,,,,,,,,,,,,AMSA07.jpg,AMNE10.jpg,AMNE05.jpg,AMSA13.jpg,AMSA13.jpg,MS,2,num_4,32,num_2,0.533481643135,,,2017_Jun_27_1806,59.996998031,MAFE4ImagesEEG,001,200612,
AFNE01.JPG,AFNE01.JPG,AFNE01.JPG,AFNE01.JPG,AFNE01.JPG,AFNE01.JPG,,,,,,,,,1,8,18,4,,,,,,,,,,,,,,,AMSA13.jpg,AMNE11.jpg,AMSA14.jpg,AMNE12.jpg,AMSA14.jpg,MS,2,num_2,16,num_2,0.550163929798,,,2017_Jun_27_1806,59.996998031,MAFE4ImagesEEG,001,200612,
AFNE01.JPG,AFNE01.JPG,AFNE01.JPG,AFNE01.JPG,AFNE01.JPG,AFNE01.JPG,,,,,,,,,1,9,19,5,,,,,,,,,,,,,,,AMSA13.jpg,AMNE13.jpg,AMSA09.jpg,AMNE17.jpg,AMNE13.jpg,MN,1,num_6,32,num_4,1.03344604108,,,2017_Jun_27_1806,59.996998031,MAFE4ImagesEEG,001,200612,
AFNE01.JPG,AFNE01.JPG,AFNE01.JPG,AFNE01.JPG,AFNE01.JPG,AFNE01.JPG,,,,,,,,,2,0,20,9,,,,,,,,,,,,,,,AMSA13.jpg,AMSA06.jpg,AMNE04.jpg,AMNE09.jpg,AMNE09.jpg,MN,1,num_4,16,num_4,0.833460666792,,,2017_Jun_27_1806,59.996998031,MAFE4ImagesEEG,001,200612,
AFNE01.JPG,AFNE01.JPG,AFNE01.JPG,AFNE01.JPG,AFNE01.JPG,AFNE01.JPG,,,,,,,,,2,1,21,7,,,,,,,,,,,,,,,AMSA17.jpg,AMSA11.jpg,AMNE01.jpg,AMNE09.jpg,AMSA11.jpg,MS,2,num_6,16,num_6,0.800080056502,,,2017_Jun_27_1806,59.996998031,MAFE4ImagesEEG,001,200612,
AFNE01.JPG,AFNE01.JPG,AFNE01.JPG,AFNE01.JPG,AFNE01.JPG,AFNE01.JPG,,,,,,,,,2,2,22,5,,,,,,,,,,,,,,,AMNE05.jpg,AMSA03.jpg,AMSA05.jpg,AMNE10.jpg,AMNE05.jpg,MN,1,num_8,32,num_4,0.666798811213,,,2017_Jun_27_1806,59.996998031,MAFE4ImagesEEG,001,200612,
AFNE01.JPG,AFNE01.JPG,AFNE01.JPG,AFNE01.JPG,AFNE01.JPG,AFNE01.JPG,,,,,,,,,2,3,23,0,,,,,,,,,,,,,,,AMSA13.jpg,AMSA10.jpg,AMNE06.jpg,AMNE03.jpg,AMNE03.jpg,MN,1,num_4,32,num_8,0.466815682095,,,2017_Jun_27_1806,59.996998031,MAFE4ImagesEEG,001,200612,
AFNE01.JPG,AFNE01.JPG,AFNE01.JPG,AFNE01.JPG,AFNE01.JPG,AFNE01.JPG,,,,,,,,,2,4,24,6,,,,,,,,,,,,,,,AMSA12.jpg,AMNE02.jpg,AMNE18.jpg,AMSA04.jpg,AMNE02.jpg,MN,1,num_6,16,num_6,0.800072038022,,,2017_Jun_27_1806,59.996998031,MAFE4ImagesEEG,001,200612,
AFNE01.JPG,AFNE01.JPG,AFNE01.JPG,AFNE01.JPG,AFNE01.JPG,AFNE01.JPG,,,,,,,,,2,5,25,1,,,,,,,,,,,,,,,AMSA16.jpg,AMNE11.jpg,AMSA07.jpg,AMNE19.jpg,AMNE19.jpg,MN,1,num_4,16,num_4,0.483457234881,,,2017_Jun_27_1806,59.996998031,MAFE4ImagesEEG,001,200612,
AFNE01.JPG,AFNE01.JPG,AFNE01.JPG,AFNE01.JPG,AFNE01.JPG,AFNE01.JPG,,,,,,,,,2,6,26,8,,,,,,,,,,,,,,,AMNE14.jpg,AMSA02.jpg,AMSA20.jpg,AMNE11.jpg,AMSA02.jpg,MS,2,num_6,16,num_6,0.827942349057,,,2017_Jun_27_1806,59.996998031,MAFE4ImagesEEG,001,200612,
AFNE01.JPG,AFNE01.JPG,AFNE01.JPG,AFNE01.JPG,AFNE01.JPG,AFNE01.JPG,,,,,,,,,2,7,27,2,,,,,,,,,,,,,,,AMNE13.jpg,AMSA16.jpg,AMNE09.jpg,AMSA14.jpg,AMNE13.jpg,MN,1,num_8,16,num_8,0.666810999304,,,2017_Jun_27_1806,59.996998031,MAFE4ImagesEEG,001,200612,
AFNE01.JPG,AFNE01.JPG,AFNE01.JPG,AFNE01.JPG,AFNE01.JPG,AFNE01.JPG,,,,,,,,,2,8,28,3,,,,,,,,,,,,,,,AMNE03.jpg,AMSA04.jpg,AMSA18.jpg,AMNE19.jpg,AMSA18.jpg,MS,2,num_2,32,num_6,0.76677225401,,,2017_Jun_27_1806,59.996998031,MAFE4ImagesEEG,001,200612,
AFNE01.JPG,AFNE01.JPG,AFNE01.JPG,AFNE01.JPG,AFNE01.JPG,AFNE01.JPG,,,,,,,,,2,9,29,4,,,,,,,,,,,,,,,AMNE10.jpg,AMSA08.jpg,AMNE11.jpg,AMSA15.jpg,AMSA08.jpg,MS,2,num_6,32,num_8,0.900100647956,,,2017_Jun_27_1806,59.996998031,MAFE4ImagesEEG,001,200612,
AFNE01.JPG,AFNE01.JPG,AFNE01.JPG,AFNE01.JPG,AFNE01.JPG,AFNE01.JPG,,,,,,,,,3,0,30,2,,,,,,,,,,,,,,,AMSA17.jpg,AMNE01.jpg,AMNE20.jpg,AMSA08.jpg,AMNE20.jpg,MN,1,num_2,32,num_8,0.733424038375,,,2017_Jun_27_1806,59.996998031,MAFE4ImagesEEG,001,200612,
AFNE01.JPG,AFNE01.JPG,AFNE01.JPG,AFNE01.JPG,AFNE01.JPG,AFNE01.JPG,,,,,,,,,3,1,31,5,,,,,,,,,,,,,,,AMNE04.jpg,AMNE05.jpg,AMSA10.jpg,AMSA05.jpg,AMSA10.jpg,MS,2,num_2,16,num_2,0.583460185684,,,2017_Jun_27_1806,59.996998031,MAFE4ImagesEEG,001,200612,
AFNE01.JPG,AFNE01.JPG,AFNE01.JPG,AFNE01.JPG,AFNE01.JPG,AFNE01.JPG,,,,,,,,,3,2,32,1,,,,,,,,,,,,,,,AMSA08.jpg,AMNE17.jpg,AMSA13.jpg,AMNE06.jpg,AMNE06.jpg,MN,1,num_4,32,num_6,0.600159150788,,,2017_Jun_27_1806,59.996998031,MAFE4ImagesEEG,001,200612,
AFNE01.JPG,AFNE01.JPG,AFNE01.JPG,AFNE01.JPG,AFNE01.JPG,AFNE01.JPG,,,,,,,,,3,3,33,3,,,,,,,,,,,,,,,AMNE19.jpg,AMNE04.jpg,AMSA05.jpg,AMSA16.jpg,AMNE04.jpg,MN,1,num_6,32,num_8,0.633445463754,,,2017_Jun_27_1806,59.996998031,MAFE4ImagesEEG,001,200612,
AFNE01.JPG,AFNE01.JPG,AFNE01.JPG,AFNE01.JPG,AFNE01.JPG,AFNE01.JPG,,,,,,,,,3,4,34,0,,,,,,,,,,,,,,,AMSA14.jpg,AMNE12.jpg,AMNE18.jpg,AMSA02.jpg,AMSA02.jpg,MS,2,num_4,32,num_8,0.783206609278,,,2017_Jun_27_1806,59.996998031,MAFE4ImagesEEG,001,200612,
AFNE01.JPG,AFNE01.JPG,AFNE01.JPG,AFNE01.JPG,AFNE01.JPG,AFNE01.JPG,,,,,,,,,3,5,35,6,,,,,,,,,,,,,,,AMSA04.jpg,AMNE16.jpg,AMNE10.jpg,AMSA03.jpg,AMNE10.jpg,MN,1,num_2,16,num_2,0.633455406667,,,2017_Jun_27_1806,59.996998031,MAFE4ImagesEEG,001,200612,
AFNE01.JPG,AFNE01.JPG,AFNE01.JPG,AFNE01.JPG,AFNE01.JPG,AFNE01.JPG,,,,,,,,,3,6,36,7,,,,,,,,,,,,,,,AMSA04.jpg,AMNE20.jpg,AMNE03.jpg,AMSA06.jpg,AMNE03.jpg,MN,1,num_2,32,num_6,0.700150234239,,,2017_Jun_27_1806,59.996998031,MAFE4ImagesEEG,001,200612,
AFNE01.JPG,AFNE01.JPG,AFNE01.JPG,AFNE01.JPG,AFNE01.JPG,AFNE01.JPG,,,,,,,,,3,7,37,8,,,,,,,,,,,,,,,AMSA14.jpg,AMNE02.jpg,AMNE17.jpg,AMSA19.jpg,AMNE17.jpg,MN,1,num_2,32,num_8,0.766760065919,,,2017_Jun_27_1806,59.996998031,MAFE4ImagesEEG,001,200612,
AFNE01.JPG,AFNE01.JPG,AFNE01.JPG,AFNE01.JPG,AFNE01.JPG,AFNE01.JPG,,,,,,,,,3,8,38,9,,,,,,,,,,,,,,,AMSA10.jpg,AMNE19.jpg,AMNE20.jpg,AMSA06.jpg,AMSA06.jpg,MS,2,num_4,16,num_4,0.549946789368,,,2017_Jun_27_1806,59.996998031,MAFE4ImagesEEG,001,200612,
AFNE01.JPG,AFNE01.JPG,AFNE01.JPG,AFNE01.JPG,AFNE01.JPG,AFNE01.JPG,,,,,,,,,3,9,39,4,,,,,,,,,,,,,,,AMNE16.jpg,AMSA13.jpg,AMNE12.jpg,AMSA19.jpg,AMNE16.jpg,MN,1,num_8,16,num_8,0.683470192744,,,2017_Jun_27_1806,59.996998031,MAFE4ImagesEEG,001,200612,
AFNE01.JPG,AFNE01.JPG,AFNE01.JPG,AFNE01.JPG,AFNE01.JPG,AFNE01.JPG,,,,,,,,,4,0,40,3,,,,,,,,,,,,,,,AMNE20.jpg,AMNE01.jpg,AMSA16.jpg,AMSA11.jpg,AMNE20.jpg,MN,1,num_8,16,num_8,0.633474330283,,,2017_Jun_27_1806,59.996998031,MAFE4ImagesEEG,001,200612,
AFNE01.JPG,AFNE01.JPG,AFNE01.JPG,AFNE01.JPG,AFNE01.JPG,AFNE01.JPG,,,,,,,,,4,1,41,7,,,,,,,,,,,,,,,AMNE15.jpg,AMSA15.jpg,AMNE01.jpg,AMSA20.jpg,AMSA20.jpg,MS,2,num_4,16,num_4,0.616787874005,,,2017_Jun_27_1806,59.996998031,MAFE4ImagesEEG,001,200612,
AFNE01.JPG,AFNE01.JPG,AFNE01.JPG,AFNE01.JPG,AFNE01.JPG,AFNE01.JPG,,,,,,,,,4,2,42,6,,,,,,,,,,,,,,,AMSA08.jpg,AMSA04.jpg,AMNE15.jpg,AMNE08.jpg,AMNE08.jpg,MN,1,num_4,16,num_4,0.583340229226,,,2017_Jun_27_1806,59.996998031,MAFE4ImagesEEG,001,200612,
AFNE01.JPG,AFNE01.JPG,AFNE01.JPG,AFNE01.JPG,AFNE01.JPG,AFNE01.JPG,,,,,,,,,4,3,43,4,,,,,,,,,,,,,,,AMSA05.jpg,AMSA11.jpg,AMNE14.jpg,AMNE16.jpg,AMNE16.jpg,MN,1,num_4,16,num_4,0.483468140017,,,2017_Jun_27_1806,59.996998031,MAFE4ImagesEEG,001,200612,
AFNE01.JPG,AFNE01.JPG,AFNE01.JPG,AFNE01.JPG,AFNE01.JPG,AFNE01.JPG,,,,,,,,,4,4,44,0,,,,,,,,,,,,,,,AMSA15.jpg,AMNE17.jpg,AMSA04.jpg,AMNE11.jpg,AMSA15.jpg,MS,2,num_8,16,num_8,0.650110430503,,,2017_Jun_27_1806,59.996998031,MAFE4ImagesEEG,001,200612,
AFNE01.JPG,AFNE01.JPG,AFNE01.JPG,AFNE01.JPG,AFNE01.JPG,AFNE01.JPG,,,,,,,,,4,5,45,5,,,,,,,,,,,,,,,AMSA01.jpg,AMNE12.jpg,AMSA17.jpg,AMNE03.jpg,AMNE03.jpg,MN,1,num_4,32,num_6,0.783092746868,,,2017_Jun_27_1806,59.996998031,MAFE4ImagesEEG,001,200612,
AFNE01.JPG,AFNE01.JPG,AFNE01.JPG,AFNE01.JPG,AFNE01.JPG,AFNE01.JPG,,,,,,,,,4,6,46,2,,,,,,,,,,,,,,,AMNE13.jpg,AMNE11.jpg,AMSA04.jpg,AMSA17.jpg,AMSA04.jpg,MS,2,num_2,32,num_4,0.683182489694,,,2017_Jun_27_1806,59.996998031,MAFE4ImagesEEG,001,200612,
AFNE01.JPG,AFNE01.JPG,AFNE01.JPG,AFNE01.JPG,AFNE01.JPG,AFNE01.JPG,,,,,,,,,4,7,47,8,,,,,,,,,,,,,,,AMNE06.jpg,AMSA11.jpg,AMNE03.jpg,AMSA14.jpg,AMNE03.jpg,MN,1,num_2,32,num_8,0.683478531962,,,2017_Jun_27_1806,59.996998031,MAFE4ImagesEEG,001,200612,
AFNE01.JPG,AFNE01.JPG,AFNE01.JPG,AFNE01.JPG,AFNE01.JPG,AFNE01.JPG,,,,,,,,,4,8,48,1,,,,,,,,,,,,,,,AMSA09.jpg,AMNE05.jpg,AMSA20.jpg,AMNE04.jpg,AMSA09.jpg,MS,2,num_8,16,num_8,0.666792075688,,,2017_Jun_27_1806,59.996998031,MAFE4ImagesEEG,001,200612,
AFNE01.JPG,AFNE01.JPG,AFNE01.JPG,AFNE01.JPG,AFNE01.JPG,AFNE01.JPG,,,,,,,,,4,9,49,9,,,,,,,,,,,,,,,AMSA11.jpg,AMNE05.jpg,AMNE08.jpg,AMSA08.jpg,AMNE05.jpg,MN,1,num_6,16,num_6,0.616831494535,,,2017_Jun_27_1806,59.996998031,MAFE4ImagesEEG,001,200612,
AFNE01.JPG,AFNE01.JPG,AFNE01.JPG,AFNE01.JPG,AFNE01.JPG,AFNE01.JPG,,,,,,,,,5,0,50,3,,,,,,,,,,,,,,,AMNE18.jpg,AMSA09.jpg,AMNE12.jpg,AMSA10.jpg,AMSA10.jpg,MS,2,num_4,32,num_6,1.33344206392,,,2017_Jun_27_1806,59.996998031,MAFE4ImagesEEG,001,200612,
AFNE01.JPG,AFNE01.JPG,AFNE01.JPG,AFNE01.JPG,AFNE01.JPG,AFNE01.JPG,,,,,,,,,5,1,51,8,,,,,,,,,,,,,,,AMNE18.jpg,AMSA16.jpg,AMSA01.jpg,AMNE17.jpg,AMSA01.jpg,MS,2,num_2,16,num_2,1.7666551842,,,2017_Jun_27_1806,59.996998031,MAFE4ImagesEEG,001,200612,
AFNE01.JPG,AFNE01.JPG,AFNE01.JPG,AFNE01.JPG,AFNE01.JPG,AFNE01.JPG,,,,,,,,,5,2,52,2,,,,,,,,,,,,,,,AMSA20.jpg,AMNE13.jpg,AMSA06.jpg,AMNE10.jpg,AMNE10.jpg,MN,1,num_4,32,num_6,0.950113509596,,,2017_Jun_27_1806,59.996998031,MAFE4ImagesEEG,001,200612,
AFNE01.JPG,AFNE01.JPG,AFNE01.JPG,AFNE01.JPG,AFNE01.JPG,AFNE01.JPG,,,,,,,,,5,3,53,0,,,,,,,,,,,,,,,AMSA12.jpg,AMNE15.jpg,AMNE12.jpg,AMSA19.jpg,AMNE15.jpg,MN,1,num_6,16,num_6,0.683570263373,,,2017_Jun_27_1806,59.996998031,MAFE4ImagesEEG,001,200612,
AFNE01.JPG,AFNE01.JPG,AFNE01.JPG,AFNE01.JPG,AFNE01.JPG,AFNE01.JPG,,,,,,,,,5,4,54,6,,,,,,,,,,,,,,,AMSA20.jpg,AMNE14.jpg,AMNE18.jpg,AMSA11.jpg,AMSA11.jpg,MS,2,num_4,16,num_4,0.900124382657,,,2017_Jun_27_1806,59.996998031,MAFE4ImagesEEG,001,200612,
AFNE01.JPG,AFNE01.JPG,AFNE01.JPG,AFNE01.JPG,AFNE01.JPG,AFNE01.JPG,,,,,,,,,5,5,55,7,,,,,,,,,,,,,,,AMSA17.jpg,AMSA05.jpg,AMNE18.jpg,AMNE07.jpg,AMNE18.jpg,MN,1,num_2,32,num_4,0.65013608964,,,2017_Jun_27_1806,59.996998031,MAFE4ImagesEEG,001,200612,
AFNE01.JPG,AFNE01.JPG,AFNE01.JPG,AFNE01.JPG,AFNE01.JPG,AFNE01.JPG,,,,,,,,,5,6,56,4,,,,,,,,,,,,,,,AMNE13.jpg,AMSA01.jpg,AMSA09.jpg,AMNE03.jpg,AMNE03.jpg,MN,1,num_4,16,num_4,0.583358511358,,,2017_Jun_27_1806,59.996998031,MAFE4ImagesEEG,001,200612,
AFNE01.JPG,AFNE01.JPG,AFNE01.JPG,AFNE01.JPG,AFNE01.JPG,AFNE01.JPG,,,,,,,,,5,7,57,9,,,,,,,,,,,,,,,AMSA02.jpg,AMNE20.jpg,AMNE16.jpg,AMSA10.jpg,AMSA02.jpg,MS,2,num_8,32,num_4,0.68348270157,,,2017_Jun_27_1806,59.996998031,MAFE4ImagesEEG,001,200612,
AFNE01.JPG,AFNE01.JPG,AFNE01.JPG,AFNE01.JPG,AFNE01.JPG,AFNE01.JPG,,,,,,,,,5,8,58,5,,,,,,,,,,,,,,,AMSA05.jpg,AMNE17.jpg,AMSA02.jpg,AMNE18.jpg,AMSA05.jpg,MS,2,num_8,16,num_8,0.683442609174,,,2017_Jun_27_1806,59.996998031,MAFE4ImagesEEG,001,200612,
AFNE01.JPG,AFNE01.JPG,AFNE01.JPG,AFNE01.JPG,AFNE01.JPG,AFNE01.JPG,,,,,,,,,5,9,59,1,,,,,,,,,,,,,,,AMSA15.jpg,AMNE01.jpg,AMNE10.jpg,AMSA04.jpg,AMSA15.jpg,MS,2,num_8,32,num_4,0.650101770545,,,2017_Jun_27_1806,59.996998031,MAFE4ImagesEEG,001,200612,
,,,,,,,,,,,,,,,,,,,,,,,,,,,,,,,,,,,,,,,,,,,space,8.66640301905,2017_Jun_27_1806,59.996998031,MAFE4ImagesEEG,001,200612,
AFNE01.JPG,AFNE01.JPG,AFNE01.JPG,AFNE01.JPG,AFNE01.JPG,AFNE01.JPG,,,,,,,,,,,,,0,0,0,6,,,,,,,,,,,AFSA04.jpg,AFSA10.jpg,AFNE06.jpg,AFNE07.jpg,AFSA10.jpg,FS,4,num_6,32,num_8,1.0834136785,,,2017_Jun_27_1806,59.996998031,MAFE4ImagesEEG,001,200612,
AFNE01.JPG,AFNE01.JPG,AFNE01.JPG,AFNE01.JPG,AFNE01.JPG,AFNE01.JPG,,,,,,,,,,,,,0,1,1,5,,,,,,,,,,,AFNE10.jpg,AFSA07.jpg,AFNE19.jpg,AFSA01.jpg,AFSA01.jpg,FS,4,num_4,32,num_6,0.716747845756,,,2017_Jun_27_1806,59.996998031,MAFE4ImagesEEG,001,200612,
AFNE01.JPG,AFNE01.JPG,AFNE01.JPG,AFNE01.JPG,AFNE01.JPG,AFNE01.JPG,,,,,,,,,,,,,0,2,2,7,,,,,,,,,,,AFNE01.jpg,AFSA03.jpg,AFNE20.jpg,AFSA17.jpg,AFSA17.jpg,FS,4,num_4,32,num_8,0.783440107411,,,2017_Jun_27_1806,59.996998031,MAFE4ImagesEEG,001,200612,
AFNE01.JPG,AFNE01.JPG,AFNE01.JPG,AFNE01.JPG,AFNE01.JPG,AFNE01.JPG,,,,,,,,,,,,,0,3,3,4,,,,,,,,,,,AFSA15.jpg,AFSA18.jpg,AFNE05.jpg,AFNE16.jpg,AFNE16.jpg,FN,3,num_4,16,num_4,0.500159086638,,,2017_Jun_27_1806,59.996998031,MAFE4ImagesEEG,001,200612,
AFNE01.JPG,AFNE01.JPG,AFNE01.JPG,AFNE01.JPG,AFNE01.JPG,AFNE01.JPG,,,,,,,,,,,,,0,4,4,9,,,,,,,,,,,AFSA11.jpg,AFSA01.jpg,AFNE20.jpg,AFNE13.jpg,AFSA11.jpg,FS,4,num_8,16,num_8,0.566759616882,,,2017_Jun_27_1806,59.996998031,MAFE4ImagesEEG,001,200612,
AFNE01.JPG,AFNE01.JPG,AFNE01.JPG,AFNE01.JPG,AFNE01.JPG,AFNE01.JPG,,,,,,,,,,,,,0,5,5,0,,,,,,,,,,,AFSA08.jpg,AFNE12.jpg,AFNE13.jpg,AFSA19.jpg,AFSA19.jpg,FS,4,num_4,32,num_2,1.18341983669,,,2017_Jun_27_1806,59.996998031,MAFE4ImagesEEG,001,200612,
AFNE01.JPG,AFNE01.JPG,AFNE01.JPG,AFNE01.JPG,AFNE01.JPG,AFNE01.JPG,,,,,,,,,,,,,0,6,6,3,,,,,,,,,,,AFNE07.jpg,AFSA16.jpg,AFNE12.jpg,AFSA18.jpg,AFNE07.jpg,FN,3,num_8,16,num_8,0.633481707282,,,2017_Jun_27_1806,59.996998031,MAFE4ImagesEEG,001,200612,
AFNE01.JPG,AFNE01.JPG,AFNE01.JPG,AFNE01.JPG,AFNE01.JPG,AFNE01.JPG,,,,,,,,,,,,,0,7,7,2,,,,,,,,,,,AFNE08.jpg,AFSA14.jpg,AFSA13.jpg,AFNE13.jpg,AFSA13.jpg,FS,4,num_2,32,num_6,1.14978969131,,,2017_Jun_27_1806,59.996998031,MAFE4ImagesEEG,001,200612,
AFNE01.JPG,AFNE01.JPG,AFNE01.JPG,AFNE01.JPG,AFNE01.JPG,AFNE01.JPG,,,,,,,,,,,,,0,8,8,1,,,,,,,,,,,AFSA17.jpg,AFNE19.jpg,AFSA02.jpg,AFNE11.jpg,AFNE11.jpg,FN,3,num_4,32,num_2,0.983475517016,,,2017_Jun_27_1806,59.996998031,MAFE4ImagesEEG,001,200612,
AFNE01.JPG,AFNE01.JPG,AFNE01.JPG,AFNE01.JPG,AFNE01.JPG,AFNE01.JPG,,,,,,,,,,,,,0,9,9,8,,,,,,,,,,,AFNE19.jpg,AFSA08.jpg,AFSA19.jpg,AFNE03.jpg,AFSA19.jpg,FS,4,num_2,16,num_2,0.533461436564,,,2017_Jun_27_1806,59.996998031,MAFE4ImagesEEG,001,200612,
AFNE01.JPG,AFNE01.JPG,AFNE01.JPG,AFNE01.JPG,AFNE01.JPG,AFNE01.JPG,,,,,,,,,,,,,1,0,10,6,,,,,,,,,,,AFSA19.jpg,AFNE03.jpg,AFNE04.jpg,AFSA16.jpg,AFNE04.jpg,FN,3,num_2,16,num_2,0.666802339343,,,2017_Jun_27_1806,59.996998031,MAFE4ImagesEEG,001,200612,
AFNE01.JPG,AFNE01.JPG,AFNE01.JPG,AFNE01.JPG,AFNE01.JPG,AFNE01.JPG,,,,,,,,,,,,,1,1,11,1,,,,,,,,,,,AFNE13.jpg,AFNE05.jpg,AFSA19.jpg,AFSA12.jpg,AFNE05.jpg,FN,3,num_6,32,num_2,0.750128135303,,,2017_Jun_27_1806,59.996998031,MAFE4ImagesEEG,001,200612,
AFNE01.JPG,AFNE01.JPG,AFNE01.JPG,AFNE01.JPG,AFNE01.JPG,AFNE01.JPG,,,,,,,,,,,,,1,2,12,3,,,,,,,,,,,AFSA02.jpg,AFNE16.jpg,AFSA19.jpg,AFNE14.jpg,AFSA19.jpg,FS,4,num_2,32,num_6,0.950105811855,,,2017_Jun_27_1806,59.996998031,MAFE4ImagesEEG,001,200612,
AFNE01.JPG,AFNE01.JPG,AFNE01.JPG,AFNE01.JPG,AFNE01.JPG,AFNE01.JPG,,,,,,,,,,,,,1,3,13,7,,,,,,,,,,,AFSA16.jpg,AFNE04.jpg,AFNE03.jpg,AFSA15.jpg,AFNE04.jpg,FN,3,num_6,32,num_4,0.733448414554,,,2017_Jun_27_1806,59.996998031,MAFE4ImagesEEG,001,200612,
AFNE01.JPG,AFNE01.JPG,AFNE01.JPG,AFNE01.JPG,AFNE01.JPG,AFNE01.JPG,,,,,,,,,,,,,1,4,14,9,,,,,,,,,,,AFSA18.jpg,AFNE05.jpg,AFSA17.jpg,AFNE14.jpg,AFNE05.jpg,FN,3,num_6,32,num_4,0.816833868008,,,2017_Jun_27_1806,59.996998031,MAFE4ImagesEEG,001,200612,
AFNE01.JPG,AFNE01.JPG,AFNE01.JPG,AFNE01.JPG,AFNE01.JPG,AFNE01.JPG,,,,,,,,,,,,,1,5,15,4,,,,,,,,,,,AFNE07.jpg,AFSA11.jpg,AFNE08.jpg,AFSA06.jpg,AFNE07.jpg,FN,3,num_8,16,num_8,0.666762246943,,,2017_Jun_27_1806,59.996998031,MAFE4ImagesEEG,001,200612,
AFNE01.JPG,AFNE01.JPG,AFNE01.JPG,AFNE01.JPG,AFNE01.JPG,AFNE01.JPG,,,,,,,,,,,,,1,6,16,0,,,,,,,,,,,AFSA06.jpg,AFNE15.jpg,AFSA11.jpg,AFNE04.jpg,AFSA11.jpg,FS,4,num_2,32,num_8,0.683475003832,,,2017_Jun_27_1806,59.996998031,MAFE4ImagesEEG,001,200612,
AFNE01.JPG,AFNE01.JPG,AFNE01.JPG,AFNE01.JPG,AFNE01.JPG,AFNE01.JPG,,,,,,,,,,,,,1,7,17,8,,,,,,,,,,,AFNE15.jpg,AFSA20.jpg,AFSA06.jpg,AFNE08.jpg,AFSA20.jpg,FS,4,num_6,16,num_6,0.600132208692,,,2017_Jun_27_1806,59.996998031,MAFE4ImagesEEG,001,200612,
AFNE01.JPG,AFNE01.JPG,AFNE01.JPG,AFNE01.JPG,AFNE01.JPG,AFNE01.JPG,,,,,,,,,,,,,1,8,18,5,,,,,,,,,,,AFNE06.jpg,AFSA14.jpg,AFSA17.jpg,AFNE01.jpg,AFNE06.jpg,FN,3,num_8,16,num_8,0.583391226759,,,2017_Jun_27_1806,59.996998031,MAFE4ImagesEEG,001,200612,
AFNE01.JPG,AFNE01.JPG,AFNE01.JPG,AFNE01.JPG,AFNE01.JPG,AFNE01.JPG,,,,,,,,,,,,,1,9,19,2,,,,,,,,,,,AFNE19.jpg,AFSA03.jpg,AFNE18.jpg,AFSA02.jpg,AFNE19.jpg,FN,3,num_8,16,num_8,0.600116813213,,,2017_Jun_27_1806,59.996998031,MAFE4ImagesEEG,001,200612,
AFNE01.JPG,AFNE01.JPG,AFNE01.JPG,AFNE01.JPG,AFNE01.JPG,AFNE01.JPG,,,,,,,,,,,,,2,0,20,4,,,,,,,,,,,AFSA05.jpg,AFSA17.jpg,AFNE01.jpg,AFNE12.jpg,AFNE01.jpg,FN,3,num_2,16,num_2,0.80015093986,,,2017_Jun_27_1806,59.996998031,MAFE4ImagesEEG,001,200612,
AFNE01.JPG,AFNE01.JPG,AFNE01.JPG,AFNE01.JPG,AFNE01.JPG,AFNE01.JPG,,,,,,,,,,,,,2,1,21,7,,,,,,,,,,,AFNE20.jpg,AFSA02.jpg,AFNE05.jpg,AFSA04.jpg,AFSA04.jpg,FS,4,num_4,32,num_8,0.816632123056,,,2017_Jun_27_1806,59.996998031,MAFE4ImagesEEG,001,200612,
AFNE01.JPG,AFNE01.JPG,AFNE01.JPG,AFNE01.JPG,AFNE01.JPG,AFNE01.JPG,,,,,,,,,,,,,2,2,22,6,,,,,,,,,,,AFNE07.jpg,AFSA01.jpg,AFSA04.jpg,AFNE06.jpg,AFNE07.jpg,FN,3,num_8,16,num_8,0.633446105232,,,2017_Jun_27_1806,59.996998031,MAFE4ImagesEEG,001,200612,
AFNE01.JPG,AFNE01.JPG,AFNE01.JPG,AFNE01.JPG,AFNE01.JPG,AFNE01.JPG,,,,,,,,,,,,,2,3,23,8,,,,,,,,,,,AFSA20.jpg,AFNE16.jpg,AFNE20.jpg,AFSA10.jpg,AFSA20.jpg,FS,4,num_8,32,num_2,0.783483407202,,,2017_Jun_27_1806,59.996998031,MAFE4ImagesEEG,001,200612,
AFNE01.JPG,AFNE01.JPG,AFNE01.JPG,AFNE01.JPG,AFNE01.JPG,AFNE01.JPG,,,,,,,,,,,,,2,4,24,2,,,,,,,,,,,AFNE02.jpg,AFNE06.jpg,AFSA09.jpg,AFSA14.jpg,AFSA09.jpg,FS,4,num_2,32,num_8,1.11676093191,,,2017_Jun_27_1806,59.996998031,MAFE4ImagesEEG,001,200612,
AFNE01.JPG,AFNE01.JPG,AFNE01.JPG,AFNE01.JPG,AFNE01.JPG,AFNE01.JPG,,,,,,,,,,,,,2,5,25,1,,,,,,,,,,,AFSA03.jpg,AFNE06.jpg,AFNE11.jpg,AFSA08.jpg,AFSA03.jpg,FS,4,num_8,16,num_8,0.916764652491,,,2017_Jun_27_1806,59.996998031,MAFE4ImagesEEG,001,200612,
AFNE01.JPG,AFNE01.JPG,AFNE01.JPG,AFNE01.JPG,AFNE01.JPG,AFNE01.JPG,,,,,,,,,,,,,2,6,26,0,,,,,,,,,,,AFNE06.jpg,AFSA12.jpg,AFNE05.jpg,AFSA17.jpg,AFNE06.jpg,FN,3,num_8,32,num_2,0.783453578453,,,2017_Jun_27_1806,59.996998031,MAFE4ImagesEEG,001,200612,
AFNE01.JPG,AFNE01.JPG,AFNE01.JPG,AFNE01.JPG,AFNE01.JPG,AFNE01.JPG,,,,,,,,,,,,,2,7,27,3,,,,,,,,,,,AFSA07.jpg,AFNE08.jpg,AFNE14.jpg,AFSA05.jpg,AFSA05.jpg,FS,4,num_4,16,num_4,0.633486197628,,,2017_Jun_27_1806,59.996998031,MAFE4ImagesEEG,001,200612,
AFNE01.JPG,AFNE01.JPG,AFNE01.JPG,AFNE01.JPG,AFNE01.JPG,AFNE01.JPG,,,,,,,,,,,,,2,8,28,9,,,,,,,,,,,AFSA13.jpg,AFSA11.jpg,AFNE14.jpg,AFNE07.jpg,AFNE14.jpg,FN,3,num_2,16,num_2,0.666761284727,,,2017_Jun_27_1806,59.996998031,MAFE4ImagesEEG,001,200612,
AFNE01.JPG,AFNE01.JPG,AFNE01.JPG,AFNE01.JPG,AFNE01.JPG,AFNE01.JPG,,,,,,,,,,,,,2,9,29,5,,,,,,,,,,,AFNE18.jpg,AFSA01.jpg,AFSA17.jpg,AFNE13.jpg,AFSA17.jpg,FS,4,num_2,32,num_4,0.53343481521,,,2017_Jun_27_1806,59.996998031,MAFE4ImagesEEG,001,200612,
AFNE01.JPG,AFNE01.JPG,AFNE01.JPG,AFNE01.JPG,AFNE01.JPG,AFNE01.JPG,,,,,,,,,,,,,3,0,30,7,,,,,,,,,,,AFNE16.jpg,AFNE18.jpg,AFSA14.jpg,AFSA05.jpg,AFSA14.jpg,FS,4,num_2,32,num_6,0.633489084285,,,2017_Jun_27_1806,59.996998031,MAFE4ImagesEEG,001,200612,
AFNE01.JPG,AFNE01.JPG,AFNE01.JPG,AFNE01.JPG,AFNE01.JPG,AFNE01.JPG,,,,,,,,,,,,,3,1,31,5,,,,,,,,,,,AFSA08.jpg,AFSA10.jpg,AFNE07.jpg,AFNE10.jpg,AFSA10.jpg,FS,4,num_6,32,num_8,0.666785660906,,,2017_Jun_27_1806,59.996998031,MAFE4ImagesEEG,001,200612,
AFNE01.JPG,AFNE01.JPG,AFNE01.JPG,AFNE01.JPG,AFNE01.JPG,AFNE01.JPG,,,,,,,,,,,,,3,2,32,9,,,,,,,,,,,AFSA03.jpg,AFNE16.jpg,AFSA08.jpg,AFNE18.jpg,AFSA08.jpg,FS,4,num_2,32,num_4,0.700118481054,,,2017_Jun_27_1806,59.996998031,MAFE4ImagesEEG,001,200612,
AFNE01.JPG,AFNE01.JPG,AFNE01.JPG,AFNE01.JPG,AFNE01.JPG,AFNE01.JPG,,,,,,,,,,,,,3,3,33,3,,,,,,,,,,,AFSA15.jpg,AFNE03.jpg,AFNE15.jpg,AFSA01.jpg,AFNE15.jpg,FN,3,num_2,32,num_8,0.633511856766,,,2017_Jun_27_1806,59.996998031,MAFE4ImagesEEG,001,200612,
AFNE01.JPG,AFNE01.JPG,AFNE01.JPG,AFNE01.JPG,AFNE01.JPG,AFNE01.JPG,,,,,,,,,,,,,3,4,34,0,,,,,,,,,,,AFSA11.jpg,AFNE15.jpg,AFNE10.jpg,AFSA19.jpg,AFSA19.jpg,FS,4,num_4,16,num_4,0.466768533435,,,2017_Jun_27_1806,59.996998031,MAFE4ImagesEEG,001,200612,
AFNE01.JPG,AFNE01.JPG,AFNE01.JPG,AFNE01.JPG,AFNE01.JPG,AFNE01.JPG,,,,,,,,,,,,,3,5,35,8,,,,,,,,,,,AFSA17.jpg,AFNE20.jpg,AFNE16.jpg,AFSA16.jpg,AFNE20.jpg,FN,3,num_6,16,num_6,2.28328903925,,,2017_Jun_27_1806,59.996998031,MAFE4ImagesEEG,001,200612,
AFNE01.JPG,AFNE01.JPG,AFNE01.JPG,AFNE01.JPG,AFNE01.JPG,AFNE01.JPG,,,,,,,,,,,,,3,6,36,1,,,,,,,,,,,AFSA20.jpg,AFNE04.jpg,AFSA03.jpg,AFNE19.jpg,AFNE19.jpg,FN,3,num_4,32,num_8,0.650111713458,,,2017_Jun_27_1806,59.996998031,MAFE4ImagesEEG,001,200612,
AFNE01.JPG,AFNE01.JPG,AFNE01.JPG,AFNE01.JPG,AFNE01.JPG,AFNE01.JPG,,,,,,,,,,,,,3,7,37,6,,,,,,,,,,,AFSA19.jpg,AFSA14.jpg,AFNE10.jpg,AFNE09.jpg,AFSA14.jpg,FS,4,num_6,32,num_2,0.550221021374,,,2017_Jun_27_1806,59.996998031,MAFE4ImagesEEG,001,200612,
AFNE01.JPG,AFNE01.JPG,AFNE01.JPG,AFNE01.JPG,AFNE01.JPG,AFNE01.JPG,,,,,,,,,,,,,3,8,38,2,,,,,,,,,,,AFNE13.jpg,AFSA20.jpg,AFSA13.jpg,AFNE12.jpg,AFNE12.jpg,FN,3,num_4,16,num_4,0.483497968758,,,2017_Jun_27_1806,59.996998031,MAFE4ImagesEEG,001,200612,
AFNE01.JPG,AFNE01.JPG,AFNE01.JPG,AFNE01.JPG,AFNE01.JPG,AFNE01.JPG,,,,,,,,,,,,,3,9,39,4,,,,,,,,,,,AFNE02.jpg,AFSA05.jpg,AFNE15.jpg,AFSA16.jpg,AFNE02.jpg,FN,3,num_8,32,num_4,0.850097729231,,,2017_Jun_27_1806,59.996998031,MAFE4ImagesEEG,001,200612,
AFNE01.JPG,AFNE01.JPG,AFNE01.JPG,AFNE01.JPG,AFNE01.JPG,AFNE01.JPG,,,,,,,,,,,,,4,0,40,4,,,,,,,,,,,AFNE06.jpg,AFSA09.jpg,AFSA02.jpg,AFNE08.jpg,AFNE06.jpg,FN,3,num_8,16,num_8,0.600120020605,,,2017_Jun_27_1806,59.996998031,MAFE4ImagesEEG,001,200612,
AFNE01.JPG,AFNE01.JPG,AFNE01.JPG,AFNE01.JPG,AFNE01.JPG,AFNE01.JPG,,,,,,,,,,,,,4,1,41,7,,,,,,,,,,,AFNE16.jpg,AFSA16.jpg,AFSA20.jpg,AFNE14.jpg,AFSA16.jpg,FS,4,num_6,32,num_2,0.600141510131,,,2017_Jun_27_1806,59.996998031,MAFE4ImagesEEG,001,200612,
AFNE01.JPG,AFNE01.JPG,AFNE01.JPG,AFNE01.JPG,AFNE01.JPG,AFNE01.JPG,,,,,,,,,,,,,4,2,42,6,,,,,,,,,,,AFNE07.jpg,AFSA11.jpg,AFSA13.jpg,AFNE02.jpg,AFNE07.jpg,FN,3,num_8,16,num_8,0.749759285238,,,2017_Jun_27_1806,59.996998031,MAFE4ImagesEEG,001,200612,
AFNE01.JPG,AFNE01.JPG,AFNE01.JPG,AFNE01.JPG,AFNE01.JPG,AFNE01.JPG,,,,,,,,,,,,,4,3,43,9,,,,,,,,,,,AFNE17.jpg,AFSA07.jpg,AFSA20.jpg,AFNE08.jpg,AFNE08.jpg,FN,3,num_4,32,num_8,1.98344697123,,,2017_Jun_27_1806,59.996998031,MAFE4ImagesEEG,001,200612,
AFNE01.JPG,AFNE01.JPG,AFNE01.JPG,AFNE01.JPG,AFNE01.JPG,AFNE01.JPG,,,,,,,,,,,,,4,4,44,8,,,,,,,,,,,AFSA13.jpg,AFNE09.jpg,AFSA20.jpg,AFNE10.jpg,AFNE09.jpg,FN,3,num_6,32,num_4,0.75016918992,,,2017_Jun_27_1806,59.996998031,MAFE4ImagesEEG,001,200612,
AFNE01.JPG,AFNE01.JPG,AFNE01.JPG,AFNE01.JPG,AFNE01.JPG,AFNE01.JPG,,,,,,,,,,,,,4,5,45,2,,,,,,,,,,,AFSA06.jpg,AFNE14.jpg,AFNE08.jpg,AFSA02.jpg,AFSA02.jpg,FS,4,num_4,32,num_8,0.533494151965,,,2017_Jun_27_1806,59.996998031,MAFE4ImagesEEG,001,200612,
AFNE01.JPG,AFNE01.JPG,AFNE01.JPG,AFNE01.JPG,AFNE01.JPG,AFNE01.JPG,,,,,,,,,,,,,4,6,46,1,,,,,,,,,,,AFNE11.jpg,AFNE06.jpg,AFSA14.jpg,AFSA20.jpg,AFSA14.jpg,FS,4,num_2,32,num_4,0.516867032438,,,2017_Jun_27_1806,59.996998031,MAFE4ImagesEEG,001,200612,
AFNE01.JPG,AFNE01.JPG,AFNE01.JPG,AFNE01.JPG,AFNE01.JPG,AFNE01.JPG,,,,,,,,,,,,,4,7,47,5,,,,,,,,,,,AFSA13.jpg,AFSA01.jpg,AFNE10.jpg,AFNE14.jpg,AFSA01.jpg,FS,4,num_6,32,num_8,0.533467851346,,,2017_Jun_27_1806,59.996998031,MAFE4ImagesEEG,001,200612,
AFNE01.JPG,AFNE01.JPG,AFNE01.JPG,AFNE01.JPG,AFNE01.JPG,AFNE01.JPG,,,,,,,,,,,,,4,8,48,0,,,,,,,,,,,AFNE04.jpg,AFSA10.jpg,AFNE16.jpg,AFSA05.jpg,AFSA10.jpg,FS,4,num_6,16,num_6,0.566582889591,,,2017_Jun_27_1806,59.996998031,MAFE4ImagesEEG,001,200612,
AFNE01.JPG,AFNE01.JPG,AFNE01.JPG,AFNE01.JPG,AFNE01.JPG,AFNE01.JPG,,,,,,,,,,,,,4,9,49,3,,,,,,,,,,,AFNE07.jpg,AFSA05.jpg,AFNE04.jpg,AFSA12.jpg,AFNE07.jpg,FN,3,num_8,16,num_8,0.633467594758,,,2017_Jun_27_1806,59.996998031,MAFE4ImagesEEG,001,200612,
AFNE01.JPG,AFNE01.JPG,AFNE01.JPG,AFNE01.JPG,AFNE01.JPG,AFNE01.JPG,,,,,,,,,,,,,5,0,50,4,,,,,,,,,,,AFSA13.jpg,AFSA12.jpg,AFNE11.jpg,AFNE07.jpg,AFNE07.jpg,FN,3,num_4,32,num_2,1.43337733875,,,2017_Jun_27_1806,59.996998031,MAFE4ImagesEEG,001,200612,
AFNE01.JPG,AFNE01.JPG,AFNE01.JPG,AFNE01.JPG,AFNE01.JPG,AFNE01.JPG,,,,,,,,,,,,,5,1,51,7,,,,,,,,,,,AFNE05.jpg,AFSA11.jpg,AFSA14.jpg,AFNE02.jpg,AFNE02.jpg,FN,3,num_4,16,num_4,0.583495466992,,,2017_Jun_27_1806,59.996998031,MAFE4ImagesEEG,001,200612,
AFNE01.JPG,AFNE01.JPG,AFNE01.JPG,AFNE01.JPG,AFNE01.JPG,AFNE01.JPG,,,,,,,,,,,,,5,2,52,5,,,,,,,,,,,AFNE14.jpg,AFSA16.jpg,AFNE08.jpg,AFSA18.jpg,AFSA18.jpg,FS,4,num_4,16,num_4,0.766752047439,,,2017_Jun_27_1806,59.996998031,MAFE4ImagesEEG,001,200612,
AFNE01.JPG,AFNE01.JPG,AFNE01.JPG,AFNE01.JPG,AFNE01.JPG,AFNE01.JPG,,,,,,,,,,,,,5,3,53,3,,,,,,,,,,,AFSA07.jpg,AFNE02.jpg,AFSA10.jpg,AFNE10.jpg,AFNE02.jpg,FN,3,num_6,32,num_8,0.600150490827,,,2017_Jun_27_1806,59.996998031,MAFE4ImagesEEG,001,200612,
AFNE01.JPG,AFNE01.JPG,AFNE01.JPG,AFNE01.JPG,AFNE01.JPG,AFNE01.JPG,,,,,,,,,,,,,5,4,54,2,,,,,,,,,,,AFSA04.jpg,AFSA13.jpg,AFNE07.jpg,AFNE04.jpg,AFSA04.jpg,FS,4,num_8,32,num_6,0.666821262956,,,2017_Jun_27_1806,59.996998031,MAFE4ImagesEEG,001,200612,
AFNE01.JPG,AFNE01.JPG,AFNE01.JPG,AFNE01.JPG,AFNE01.JPG,AFNE01.JPG,,,,,,,,,,,,,5,5,55,6,,,,,,,,,,,AFNE17.jpg,AFNE14.jpg,AFSA16.jpg,AFSA07.jpg,AFSA16.jpg,FS,4,num_2,32,num_8,0.583561539264,,,2017_Jun_27_1806,59.996998031,MAFE4ImagesEEG,001,200612,
AFNE01.JPG,AFNE01.JPG,AFNE01.JPG,AFNE01.JPG,AFNE01.JPG,AFNE01.JPG,,,,,,,,,,,,,5,6,56,1,,,,,,,,,,,AFSA11.jpg,AFNE14.jpg,AFNE17.jpg,AFSA18.jpg,AFNE17.jpg,FN,3,num_2,32,num_6,0.650122297851,,,2017_Jun_27_1806,59.996998031,MAFE4ImagesEEG,001,200612,
AFNE01.JPG,AFNE01.JPG,AFNE01.JPG,AFNE01.JPG,AFNE01.JPG,AFNE01.JPG,,,,,,,,,,,,,5,7,57,9,,,,,,,,,,,AFSA16.jpg,AFNE20.jpg,AFSA06.jpg,AFNE12.jpg,AFNE12.jpg,FN,3,num_4,32,num_6,0.783462559153,,,2017_Jun_27_1806,59.996998031,MAFE4ImagesEEG,001,200612,
AFNE01.JPG,AFNE01.JPG,AFNE01.JPG,AFNE01.JPG,AFNE01.JPG,AFNE01.JPG,,,,,,,,,,,,,5,8,58,8,,,,,,,,,,,AFNE06.jpg,AFSA20.jpg,AFSA02.jpg,AFNE11.jpg,AFNE11.jpg,FN,3,num_4,16,num_4,0.449991949448,,,2017_Jun_27_1806,59.996998031,MAFE4ImagesEEG,001,200612,
AFNE01.JPG,AFNE01.JPG,AFNE01.JPG,AFNE01.JPG,AFNE01.JPG,AFNE01.JPG,,,,,,,,,,,,,5,9,59,0,,,,,,,,,,,AFSA11.jpg,AFSA10.jpg,AFNE02.jpg,AFNE20.jpg,AFNE02.jpg,FN,3,num_2,16,num_2,0.750193886837,,,2017_Jun_27_1806,59.996998031,MAFE4ImagesEEG,001,200612,
,,,,,,,,,,,,,,,,,,,,,,,,,,,,,,,,,,,,,,,,,,,space,2.05005808587,2017_Jun_27_1806,59.996998031,MAFE4ImagesEEG,001,200612,
AFNE01.JPG,AFNE01.JPG,AFNE01.JPG,AFNE01.JPG,AFNE01.JPG,AFNE01.JPG,,,,,,,,,,,,,,,,,0,0,0,9,,,,,,,AMSA17.jpg,AMSA19.jpg,AMNE20.jpg,AMNE06.jpg,AMNE20.jpg,MN,1,num_2,32,num_8,0.666805225996,,,2017_Jun_27_1806,59.996998031,MAFE4ImagesEEG,001,200612,
AFNE01.JPG,AFNE01.JPG,AFNE01.JPG,AFNE01.JPG,AFNE01.JPG,AFNE01.JPG,,,,,,,,,,,,,,,,,0,1,1,3,,,,,,,AMNE13.jpg,AMSA09.jpg,AMSA14.jpg,AMNE04.jpg,AMNE13.jpg,MN,1,num_8,16,num_8,0.616753875653,,,2017_Jun_27_1806,59.996998031,MAFE4ImagesEEG,001,200612,
AFNE01.JPG,AFNE01.JPG,AFNE01.JPG,AFNE01.JPG,AFNE01.JPG,AFNE01.JPG,,,,,,,,,,,,,,,,,0,2,2,6,,,,,,,AMSA02.jpg,AMNE14.jpg,AMNE09.jpg,AMSA03.jpg,AMNE14.jpg,MN,1,num_6,16,num_6,0.89980396421,,,2017_Jun_27_1806,59.996998031,MAFE4ImagesEEG,001,200612,
AFNE01.JPG,AFNE01.JPG,AFNE01.JPG,AFNE01.JPG,AFNE01.JPG,AFNE01.JPG,,,,,,,,,,,,,,,,,0,3,3,4,,,,,,,AMNE03.jpg,AMSA15.jpg,AMSA03.jpg,AMNE20.jpg,AMNE03.jpg,MN,1,num_8,16,num_8,0.633456048148,,,2017_Jun_27_1806,59.996998031,MAFE4ImagesEEG,001,200612,
AFNE01.JPG,AFNE01.JPG,AFNE01.JPG,AFNE01.JPG,AFNE01.JPG,AFNE01.JPG,,,,,,,,,,,,,,,,,0,4,4,1,,,,,,,AMSA06.jpg,AMNE12.jpg,AMSA04.jpg,AMNE03.jpg,AMSA06.jpg,MS,2,num_8,16,num_8,0.716809427679,,,2017_Jun_27_1806,59.996998031,MAFE4ImagesEEG,001,200612,
AFNE01.JPG,AFNE01.JPG,AFNE01.JPG,AFNE01.JPG,AFNE01.JPG,AFNE01.JPG,,,,,,,,,,,,,,,,,0,5,5,7,,,,,,,AMNE06.jpg,AMNE05.jpg,AMSA01.jpg,AMSA18.jpg,AMSA01.jpg,MS,2,num_2,16,num_2,0.816829056919,,,2017_Jun_27_1806,59.996998031,MAFE4ImagesEEG,001,200612,
AFNE01.JPG,AFNE01.JPG,AFNE01.JPG,AFNE01.JPG,AFNE01.JPG,AFNE01.JPG,,,,,,,,,,,,,,,,,0,6,6,0,,,,,,,AMSA11.jpg,AMSA06.jpg,AMNE05.jpg,AMNE12.jpg,AMNE12.jpg,MN,1,num_4,16,num_4,0.633480424327,,,2017_Jun_27_1806,59.996998031,MAFE4ImagesEEG,001,200612,
AFNE01.JPG,AFNE01.JPG,AFNE01.JPG,AFNE01.JPG,AFNE01.JPG,AFNE01.JPG,,,,,,,,,,,,,,,,,0,7,7,5,,,,,,,AMSA03.jpg,AMSA04.jpg,AMNE11.jpg,AMNE19.jpg,AMSA03.jpg,MS,2,num_8,32,num_2,0.400139136658,,,2017_Jun_27_1806,59.996998031,MAFE4ImagesEEG,001,200612,
AFNE01.JPG,AFNE01.JPG,AFNE01.JPG,AFNE01.JPG,AFNE01.JPG,AFNE01.JPG,,,,,,,,,,,,,,,,,0,8,8,2,,,,,,,AMNE10.jpg,AMSA12.jpg,AMSA05.jpg,AMNE15.jpg,AMSA05.jpg,MS,2,num_2,32,num_6,0.616761573394,,,2017_Jun_27_1806,59.996998031,MAFE4ImagesEEG,001,200612,
AFNE01.JPG,AFNE01.JPG,AFNE01.JPG,AFNE01.JPG,AFNE01.JPG,AFNE01.JPG,,,,,,,,,,,,,,,,,0,9,9,8,,,,,,,AMSA11.jpg,AMNE01.jpg,AMSA01.jpg,AMNE12.jpg,AMSA11.jpg,MS,2,num_8,32,num_2,0.516751566331,,,2017_Jun_27_1806,59.996998031,MAFE4ImagesEEG,001,200612,
AFNE01.JPG,AFNE01.JPG,AFNE01.JPG,AFNE01.JPG,AFNE01.JPG,AFNE01.JPG,,,,,,,,,,,,,,,,,1,0,10,3,,,,,,,AMNE09.jpg,AMSA19.jpg,AMNE03.jpg,AMSA06.jpg,AMNE09.jpg,MN,1,num_8,16,num_8,0.80014741173,,,2017_Jun_27_1806,59.996998031,MAFE4ImagesEEG,001,200612,
AFNE01.JPG,AFNE01.JPG,AFNE01.JPG,AFNE01.JPG,AFNE01.JPG,AFNE01.JPG,,,,,,,,,,,,,,,,,1,1,11,1,,,,,,,AMSA06.jpg,AMSA17.jpg,AMNE09.jpg,AMNE16.jpg,AMSA06.jpg,MS,2,num_8,32,num_2,0.650153409555,,,2017_Jun_27_1806,59.996998031,MAFE4ImagesEEG,001,200612,
AFNE01.JPG,AFNE01.JPG,AFNE01.JPG,AFNE01.JPG,AFNE01.JPG,AFNE01.JPG,,,,,,,,,,,,,,,,,1,2,12,4,,,,,,,AMSA12.jpg,AMNE08.jpg,AMNE03.jpg,AMSA17.jpg,AMNE08.jpg,MN,1,num_6,16,num_6,0.633486197632,,,2017_Jun_27_1806,59.996998031,MAFE4ImagesEEG,001,200612,
AFNE01.JPG,AFNE01.JPG,AFNE01.JPG,AFNE01.JPG,AFNE01.JPG,AFNE01.JPG,,,,,,,,,,,,,,,,,1,3,13,9,,,,,,,AMSA11.jpg,AMSA13.jpg,AMNE05.jpg,AMNE14.jpg,AMNE14.jpg,MN,1,num_4,32,num_2,0.616768308915,,,2017_Jun_27_1806,59.996998031,MAFE4ImagesEEG,001,200612,
AFNE01.JPG,AFNE01.JPG,AFNE01.JPG,AFNE01.JPG,AFNE01.JPG,AFNE01.JPG,,,,,,,,,,,,,,,,,1,4,14,2,,,,,,,AMNE20.jpg,AMNE19.jpg,AMSA18.jpg,AMSA17.jpg,AMSA17.jpg,MS,2,num_4,32,num_2,0.583485844818,,,2017_Jun_27_1806,59.996998031,MAFE4ImagesEEG,001,200612,
AFNE01.JPG,AFNE01.JPG,AFNE01.JPG,AFNE01.JPG,AFNE01.JPG,AFNE01.JPG,,,,,,,,,,,,,,,,,1,5,15,7,,,,,,,AMSA05.jpg,AMNE16.jpg,AMNE11.jpg,AMSA02.jpg,AMSA05.jpg,MS,2,num_8,32,num_6,0.650119731938,,,2017_Jun_27_1806,59.996998031,MAFE4ImagesEEG,001,200612,
AFNE01.JPG,AFNE01.JPG,AFNE01.JPG,AFNE01.JPG,AFNE01.JPG,AFNE01.JPG,,,,,,,,,,,,,,,,,1,6,16,5,,,,,,,AMSA20.jpg,AMNE19.jpg,AMNE09.jpg,AMSA13.jpg,AMNE19.jpg,MN,1,num_6,16,num_6,0.866635683262,,,2017_Jun_27_1806,59.996998031,MAFE4ImagesEEG,001,200612,
AFNE01.JPG,AFNE01.JPG,AFNE01.JPG,AFNE01.JPG,AFNE01.JPG,AFNE01.JPG,,,,,,,,,,,,,,,,,1,7,17,0,,,,,,,AMNE13.jpg,AMNE01.jpg,AMSA04.jpg,AMSA01.jpg,AMNE13.jpg,MN,1,num_8,16,num_8,0.566798747066,,,2017_Jun_27_1806,59.996998031,MAFE4ImagesEEG,001,200612,
AFNE01.JPG,AFNE01.JPG,AFNE01.JPG,AFNE01.JPG,AFNE01.JPG,AFNE01.JPG,,,,,,,,,,,,,,,,,1,8,18,8,,,,,,,AMNE02.jpg,AMSA08.jpg,AMSA17.jpg,AMNE09.jpg,AMSA17.jpg,MS,2,num_2,16,num_2,0.783313094693,,,2017_Jun_27_1806,59.996998031,MAFE4ImagesEEG,001,200612,
AFNE01.JPG,AFNE01.JPG,AFNE01.JPG,AFNE01.JPG,AFNE01.JPG,AFNE01.JPG,,,,,,,,,,,,,,,,,1,9,19,6,,,,,,,AMNE14.jpg,AMNE15.jpg,AMSA14.jpg,AMSA12.jpg,AMNE15.jpg,MN,1,num_6,16,num_6,0.683469872005,,,2017_Jun_27_1806,59.996998031,MAFE4ImagesEEG,001,200612,
AFNE01.JPG,AFNE01.JPG,AFNE01.JPG,AFNE01.JPG,AFNE01.JPG,AFNE01.JPG,,,,,,,,,,,,,,,,,2,0,20,2,,,,,,,AMNE10.jpg,AMSA11.jpg,AMSA17.jpg,AMNE11.jpg,AMNE10.jpg,MN,1,num_8,32,num_2,0.68344902396,,,2017_Jun_27_1806,59.996998031,MAFE4ImagesEEG,001,200612,
AFNE01.JPG,AFNE01.JPG,AFNE01.JPG,AFNE01.JPG,AFNE01.JPG,AFNE01.JPG,,,,,,,,,,,,,,,,,2,1,21,9,,,,,,,AMNE01.jpg,AMSA10.jpg,AMSA12.jpg,AMNE09.jpg,AMNE09.jpg,MN,1,num_4,32,num_6,0.583498353644,,,2017_Jun_27_1806,59.996998031,MAFE4ImagesEEG,001,200612,
AFNE01.JPG,AFNE01.JPG,AFNE01.JPG,AFNE01.JPG,AFNE01.JPG,AFNE01.JPG,,,,,,,,,,,,,,,,,2,2,22,6,,,,,,,AMNE11.jpg,AMSA02.jpg,AMSA09.jpg,AMNE02.jpg,AMNE02.jpg,MN,1,num_4,32,num_8,0.583480071513,,,2017_Jun_27_1806,59.996998031,MAFE4ImagesEEG,001,200612,
AFNE01.JPG,AFNE01.JPG,AFNE01.JPG,AFNE01.JPG,AFNE01.JPG,AFNE01.JPG,,,,,,,,,,,,,,,,,2,3,23,4,,,,,,,AMNE11.jpg,AMNE04.jpg,AMSA13.jpg,AMSA18.jpg,AMSA13.jpg,MS,2,num_2,32,num_4,0.666771548382,,,2017_Jun_27_1806,59.996998031,MAFE4ImagesEEG,001,200612,
AFNE01.JPG,AFNE01.JPG,AFNE01.JPG,AFNE01.JPG,AFNE01.JPG,AFNE01.JPG,,,,,,,,,,,,,,,,,2,4,24,7,,,,,,,AMSA07.jpg,AMNE13.jpg,AMSA14.jpg,AMNE10.jpg,AMSA07.jpg,MS,2,num_8,16,num_8,0.599772980804,,,2017_Jun_27_1806,59.996998031,MAFE4ImagesEEG,001,200612,
AFNE01.JPG,AFNE01.JPG,AFNE01.JPG,AFNE01.JPG,AFNE01.JPG,AFNE01.JPG,,,,,,,,,,,,,,,,,2,5,25,3,,,,,,,AMSA11.jpg,AMNE16.jpg,AMSA14.jpg,AMNE11.jpg,AMNE11.jpg,MN,1,num_4,32,num_6,0.533511792619,,,2017_Jun_27_1806,59.996998031,MAFE4ImagesEEG,001,200612,
AFNE01.JPG,AFNE01.JPG,AFNE01.JPG,AFNE01.JPG,AFNE01.JPG,AFNE01.JPG,,,,,,,,,,,,,,,,,2,6,26,8,,,,,,,AMSA01.jpg,AMNE01.jpg,AMSA18.jpg,AMNE19.jpg,AMNE19.jpg,MN,1,num_4,16,num_4,0.550131535139,,,2017_Jun_27_1806,59.996998031,MAFE4ImagesEEG,001,200612,
AFNE01.JPG,AFNE01.JPG,AFNE01.JPG,AFNE01.JPG,AFNE01.JPG,AFNE01.JPG,,,,,,,,,,,,,,,,,2,7,27,0,,,,,,,AMNE20.jpg,AMNE10.jpg,AMSA15.jpg,AMSA02.jpg,AMSA15.jpg,MS,2,num_2,32,num_4,0.76680689384,,,2017_Jun_27_1806,59.996998031,MAFE4ImagesEEG,001,200612,
AFNE01.JPG,AFNE01.JPG,AFNE01.JPG,AFNE01.JPG,AFNE01.JPG,AFNE01.JPG,,,,,,,,,,,,,,,,,2,8,28,1,,,,,,,AMSA12.jpg,AMNE03.jpg,AMNE14.jpg,AMSA06.jpg,AMSA06.jpg,MS,2,num_4,16,num_4,0.316824566569,,,2017_Jun_27_1806,59.996998031,MAFE4ImagesEEG,001,200612,
AFNE01.JPG,AFNE01.JPG,AFNE01.JPG,AFNE01.JPG,AFNE01.JPG,AFNE01.JPG,,,,,,,,,,,,,,,,,2,9,29,5,,,,,,,AMNE19.jpg,AMSA12.jpg,AMNE18.jpg,AMSA14.jpg,AMSA12.jpg,MS,2,num_6,16,num_6,0.833444629832,,,2017_Jun_27_1806,59.996998031,MAFE4ImagesEEG,001,200612,
AFNE01.JPG,AFNE01.JPG,AFNE01.JPG,AFNE01.JPG,AFNE01.JPG,AFNE01.JPG,,,,,,,,,,,,,,,,,3,0,30,2,,,,,,,AMSA09.jpg,AMNE09.jpg,AMNE16.jpg,AMSA20.jpg,AMNE16.jpg,MN,1,num_2,16,num_2,1.00006478932,,,2017_Jun_27_1806,59.996998031,MAFE4ImagesEEG,001,200612,
AFNE01.JPG,AFNE01.JPG,AFNE01.JPG,AFNE01.JPG,AFNE01.JPG,AFNE01.JPG,,,,,,,,,,,,,,,,,3,1,31,6,,,,,,,AMNE07.jpg,AMSA14.jpg,AMNE19.jpg,AMSA11.jpg,AMNE19.jpg,MN,1,num_2,32,num_8,0.466800286613,,,2017_Jun_27_1806,59.996998031,MAFE4ImagesEEG,001,200612,
AFNE01.JPG,AFNE01.JPG,AFNE01.JPG,AFNE01.JPG,AFNE01.JPG,AFNE01.JPG,,,,,,,,,,,,,,,,,3,2,32,1,,,,,,,AMNE19.jpg,AMSA10.jpg,AMNE20.jpg,AMSA06.jpg,AMSA06.jpg,MS,2,num_4,16,num_4,0.500197896079,,,2017_Jun_27_1806,59.996998031,MAFE4ImagesEEG,001,200612,
AFNE01.JPG,AFNE01.JPG,AFNE01.JPG,AFNE01.JPG,AFNE01.JPG,AFNE01.JPG,,,,,,,,,,,,,,,,,3,3,33,9,,,,,,,AMSA13.jpg,AMNE16.jpg,AMNE09.jpg,AMSA18.jpg,AMSA13.jpg,MS,2,num_8,16,num_8,2.46660463571,,,2017_Jun_27_1806,59.996998031,MAFE4ImagesEEG,001,200612,
AFNE01.JPG,AFNE01.JPG,AFNE01.JPG,AFNE01.JPG,AFNE01.JPG,AFNE01.JPG,,,,,,,,,,,,,,,,,3,4,34,5,,,,,,,AMSA11.jpg,AMNE06.jpg,AMNE05.jpg,AMSA05.jpg,AMNE06.jpg,MN,1,num_6,16,num_6,0.51693695358,,,2017_Jun_27_1806,59.996998031,MAFE4ImagesEEG,001,200612,
AFNE01.JPG,AFNE01.JPG,AFNE01.JPG,AFNE01.JPG,AFNE01.JPG,AFNE01.JPG,,,,,,,,,,,,,,,,,3,5,35,0,,,,,,,AMNE08.jpg,AMNE06.jpg,AMSA13.jpg,AMSA12.jpg,AMNE06.jpg,MN,1,num_6,16,num_6,0.650136089636,,,2017_Jun_27_1806,59.996998031,MAFE4ImagesEEG,001,200612,
AFNE01.JPG,AFNE01.JPG,AFNE01.JPG,AFNE01.JPG,AFNE01.JPG,AFNE01.JPG,,,,,,,,,,,,,,,,,3,6,36,7,,,,,,,AMNE04.jpg,AMNE02.jpg,AMSA14.jpg,AMSA17.jpg,AMSA17.jpg,MS,2,num_4,32,num_8,0.700147026844,,,2017_Jun_27_1806,59.996998031,MAFE4ImagesEEG,001,200612,
AFNE01.JPG,AFNE01.JPG,AFNE01.JPG,AFNE01.JPG,AFNE01.JPG,AFNE01.JPG,,,,,,,,,,,,,,,,,3,7,37,3,,,,,,,AMNE02.jpg,AMSA20.jpg,AMNE18.jpg,AMSA11.jpg,AMNE18.jpg,MN,1,num_2,16,num_2,0.65015565473,,,2017_Jun_27_1806,59.996998031,MAFE4ImagesEEG,001,200612,
AFNE01.JPG,AFNE01.JPG,AFNE01.JPG,AFNE01.JPG,AFNE01.JPG,AFNE01.JPG,,,,,,,,,,,,,,,,,3,8,38,4,,,,,,,AMSA19.jpg,AMNE01.jpg,AMNE11.jpg,AMSA01.jpg,AMNE01.jpg,MN,1,num_6,16,num_6,0.466776551912,,,2017_Jun_27_1806,59.996998031,MAFE4ImagesEEG,001,200612,
AFNE01.JPG,AFNE01.JPG,AFNE01.JPG,AFNE01.JPG,AFNE01.JPG,AFNE01.JPG,,,,,,,,,,,,,,,,,3,9,39,8,,,,,,,AMNE02.jpg,AMSA03.jpg,AMSA02.jpg,AMNE09.jpg,AMSA03.jpg,MS,2,num_6,32,num_2,0.700111424794,,,2017_Jun_27_1806,59.996998031,MAFE4ImagesEEG,001,200612,
AFNE01.JPG,AFNE01.JPG,AFNE01.JPG,AFNE01.JPG,AFNE01.JPG,AFNE01.JPG,,,,,,,,,,,,,,,,,4,0,40,7,,,,,,,AMNE05.jpg,AMSA01.jpg,AMSA20.jpg,AMNE20.jpg,AMNE05.jpg,MN,1,num_8,16,num_8,0.700149592758,,,2017_Jun_27_1806,59.996998031,MAFE4ImagesEEG,001,200612,
AFNE01.JPG,AFNE01.JPG,AFNE01.JPG,AFNE01.JPG,AFNE01.JPG,AFNE01.JPG,,,,,,,,,,,,,,,,,4,1,41,6,,,,,,,AMSA14.jpg,AMNE14.jpg,AMSA08.jpg,AMNE17.jpg,AMSA14.jpg,MS,2,num_8,32,num_6,0.700109821097,,,2017_Jun_27_1806,59.996998031,MAFE4ImagesEEG,001,200612,
AFNE01.JPG,AFNE01.JPG,AFNE01.JPG,AFNE01.JPG,AFNE01.JPG,AFNE01.JPG,,,,,,,,,,,,,,,,,4,2,42,2,,,,,,,AMNE06.jpg,AMSA07.jpg,AMSA16.jpg,AMNE17.jpg,AMSA07.jpg,MS,2,num_6,32,num_2,1.1334188424,,,2017_Jun_27_1806,59.996998031,MAFE4ImagesEEG,001,200612,
AFNE01.JPG,AFNE01.JPG,AFNE01.JPG,AFNE01.JPG,AFNE01.JPG,AFNE01.JPG,,,,,,,,,,,,,,,,,4,3,43,5,,,,,,,AMSA02.jpg,AMNE06.jpg,AMSA16.jpg,AMNE16.jpg,AMSA16.jpg,MS,2,num_2,48,None,,,,2017_Jun_27_1806,59.996998031,MAFE4ImagesEEG,001,200612,
AFNE01.JPG,AFNE01.JPG,AFNE01.JPG,AFNE01.JPG,AFNE01.JPG,AFNE01.JPG,,,,,,,,,,,,,,,,,4,4,44,9,,,,,,,AMNE10.jpg,AMSA07.jpg,AMNE20.jpg,AMSA08.jpg,AMNE10.jpg,MN,1,num_8,16,num_8,0.550131535139,,,2017_Jun_27_1806,59.996998031,MAFE4ImagesEEG,001,200612,
AFNE01.JPG,AFNE01.JPG,AFNE01.JPG,AFNE01.JPG,AFNE01.JPG,AFNE01.JPG,,,,,,,,,,,,,,,,,4,5,45,4,,,,,,,AMNE03.jpg,AMSA09.jpg,AMNE08.jpg,AMSA14.jpg,AMNE03.jpg,MN,1,num_8,16,num_8,0.633115743869,,,2017_Jun_27_1806,59.996998031,MAFE4ImagesEEG,001,200612,
AFNE01.JPG,AFNE01.JPG,AFNE01.JPG,AFNE01.JPG,AFNE01.JPG,AFNE01.JPG,,,,,,,,,,,,,,,,,4,6,46,1,,,,,,,AMNE14.jpg,AMSA07.jpg,AMNE03.jpg,AMSA10.jpg,AMSA10.jpg,MS,2,num_4,32,num_6,0.583520163909,,,2017_Jun_27_1806,59.996998031,MAFE4ImagesEEG,001,200612,
AFNE01.JPG,AFNE01.JPG,AFNE01.JPG,AFNE01.JPG,AFNE01.JPG,AFNE01.JPG,,,,,,,,,,,,,,,,,4,7,47,8,,,,,,,AMNE10.jpg,AMSA07.jpg,AMSA08.jpg,AMNE07.jpg,AMSA07.jpg,MS,2,num_6,16,num_6,0.633481386543,,,2017_Jun_27_1806,59.996998031,MAFE4ImagesEEG,001,200612,
AFNE01.JPG,AFNE01.JPG,AFNE01.JPG,AFNE01.JPG,AFNE01.JPG,AFNE01.JPG,,,,,,,,,,,,,,,,,4,8,48,0,,,,,,,AMSA01.jpg,AMNE06.jpg,AMNE16.jpg,AMSA07.jpg,AMSA07.jpg,MS,2,num_4,16,num_4,0.416801858235,,,2017_Jun_27_1806,59.996998031,MAFE4ImagesEEG,001,200612,
AFNE01.JPG,AFNE01.JPG,AFNE01.JPG,AFNE01.JPG,AFNE01.JPG,AFNE01.JPG,,,,,,,,,,,,,,,,,4,9,49,3,,,,,,,AMSA14.jpg,AMSA11.jpg,AMNE19.jpg,AMNE05.jpg,AMNE05.jpg,MN,1,num_4,16,num_4,0.683313030542,,,2017_Jun_27_1806,59.996998031,MAFE4ImagesEEG,001,200612,
AFNE01.JPG,AFNE01.JPG,AFNE01.JPG,AFNE01.JPG,AFNE01.JPG,AFNE01.JPG,,,,,,,,,,,,,,,,,5,0,50,7,,,,,,,AMNE20.jpg,AMNE13.jpg,AMSA09.jpg,AMSA08.jpg,AMNE20.jpg,MN,1,num_8,16,num_8,0.450225447577,,,2017_Jun_27_1806,59.996998031,MAFE4ImagesEEG,001,200612,
AFNE01.JPG,AFNE01.JPG,AFNE01.JPG,AFNE01.JPG,AFNE01.JPG,AFNE01.JPG,,,,,,,,,,,,,,,,,5,1,51,5,,,,,,,AMNE19.jpg,AMSA10.jpg,AMSA15.jpg,AMNE01.jpg,AMSA10.jpg,MS,2,num_6,16,num_6,0.566812538847,,,2017_Jun_27_1806,59.996998031,MAFE4ImagesEEG,001,200612,
AFNE01.JPG,AFNE01.JPG,AFNE01.JPG,AFNE01.JPG,AFNE01.JPG,AFNE01.JPG,,,,,,,,,,,,,,,,,5,2,52,2,,,,,,,AMNE05.jpg,AMSA20.jpg,AMNE15.jpg,AMSA10.jpg,AMSA10.jpg,MS,2,num_4,16,num_4,0.316812057739,,,2017_Jun_27_1806,59.996998031,MAFE4ImagesEEG,001,200612,
AFNE01.JPG,AFNE01.JPG,AFNE01.JPG,AFNE01.JPG,AFNE01.JPG,AFNE01.JPG,,,,,,,,,,,,,,,,,5,3,53,3,,,,,,,AMNE09.jpg,AMSA17.jpg,AMNE08.jpg,AMSA16.jpg,AMNE08.jpg,MN,1,num_2,32,num_8,0.816785757128,,,2017_Jun_27_1806,59.996998031,MAFE4ImagesEEG,001,200612,
AFNE01.JPG,AFNE01.JPG,AFNE01.JPG,AFNE01.JPG,AFNE01.JPG,AFNE01.JPG,,,,,,,,,,,,,,,,,5,4,54,9,,,,,,,AMNE05.jpg,AMSA20.jpg,AMNE07.jpg,AMSA01.jpg,AMSA20.jpg,MS,2,num_6,16,num_6,0.500123484588,,,2017_Jun_27_1806,59.996998031,MAFE4ImagesEEG,001,200612,
AFNE01.JPG,AFNE01.JPG,AFNE01.JPG,AFNE01.JPG,AFNE01.JPG,AFNE01.JPG,,,,,,,,,,,,,,,,,5,5,55,0,,,,,,,AMSA19.jpg,AMNE13.jpg,AMSA18.jpg,AMNE17.jpg,AMNE13.jpg,MN,1,num_6,16,num_6,0.700182308155,,,2017_Jun_27_1806,59.996998031,MAFE4ImagesEEG,001,200612,
AFNE01.JPG,AFNE01.JPG,AFNE01.JPG,AFNE01.JPG,AFNE01.JPG,AFNE01.JPG,,,,,,,,,,,,,,,,,5,6,56,1,,,,,,,AMSA07.jpg,AMNE11.jpg,AMSA10.jpg,AMNE03.jpg,AMNE11.jpg,MN,1,num_6,16,num_6,1.13341691797,,,2017_Jun_27_1806,59.996998031,MAFE4ImagesEEG,001,200612,
AFNE01.JPG,AFNE01.JPG,AFNE01.JPG,AFNE01.JPG,AFNE01.JPG,AFNE01.JPG,,,,,,,,,,,,,,,,,5,7,57,4,,,,,,,AMNE06.jpg,AMNE11.jpg,AMSA09.jpg,AMSA14.jpg,AMSA14.jpg,MS,2,num_4,16,num_4,0.500187953163,,,2017_Jun_27_1806,59.996998031,MAFE4ImagesEEG,001,200612,
AFNE01.JPG,AFNE01.JPG,AFNE01.JPG,AFNE01.JPG,AFNE01.JPG,AFNE01.JPG,,,,,,,,,,,,,,,,,5,8,58,8,,,,,,,AMSA07.jpg,AMNE10.jpg,AMNE07.jpg,AMSA16.jpg,AMSA16.jpg,MS,2,num_4,32,num_8,0.666751983292,,,2017_Jun_27_1806,59.996998031,MAFE4ImagesEEG,001,200612,
AFNE01.JPG,AFNE01.JPG,AFNE01.JPG,AFNE01.JPG,AFNE01.JPG,AFNE01.JPG,,,,,,,,,,,,,,,,,5,9,59,6,,,,,,,AMSA09.jpg,AMNE07.jpg,AMSA08.jpg,AMNE08.jpg,AMSA08.jpg,MS,2,num_2,16,num_2,0.366779695156,,,2017_Jun_27_1806,59.996998031,MAFE4ImagesEEG,001,200612,
,,,,,,,,,,,,,,,,,,,,,,,,,,,,,,,,,,,,,,,,,,,space,7.58291974015,2017_Jun_27_1806,59.996998031,MAFE4ImagesEEG,001,200612,
AFNE01.JPG,AFNE01.JPG,AFNE01.JPG,AFNE01.JPG,AFNE01.JPG,AFNE01.JPG,,,,,,,,,,,,,,,,,,,,,0,0,0,9,,,AFNE06.jpg,AFSA11.jpg,AFSA05.jpg,AFNE03.jpg,AFNE06.jpg,FN,3,num_8,16,num_8,0.6166396925,,,2017_Jun_27_1806,59.996998031,MAFE4ImagesEEG,001,200612,
AFNE01.JPG,AFNE01.JPG,AFNE01.JPG,AFNE01.JPG,AFNE01.JPG,AFNE01.JPG,,,,,,,,,,,,,,,,,,,,,0,1,1,1,,,AFNE20.jpg,AFNE08.jpg,AFSA10.jpg,AFSA17.jpg,AFSA17.jpg,FS,4,num_4,32,num_2,0.666646139362,,,2017_Jun_27_1806,59.996998031,MAFE4ImagesEEG,001,200612,
AFNE01.JPG,AFNE01.JPG,AFNE01.JPG,AFNE01.JPG,AFNE01.JPG,AFNE01.JPG,,,,,,,,,,,,,,,,,,,,,0,2,2,8,,,AFNE11.jpg,AFSA17.jpg,AFSA01.jpg,AFNE02.jpg,AFSA17.jpg,FS,4,num_6,32,num_2,0.616795251008,,,2017_Jun_27_1806,59.996998031,MAFE4ImagesEEG,001,200612,
AFNE01.JPG,AFNE01.JPG,AFNE01.JPG,AFNE01.JPG,AFNE01.JPG,AFNE01.JPG,,,,,,,,,,,,,,,,,,,,,0,3,3,7,,,AFSA19.jpg,AFNE08.jpg,AFSA04.jpg,AFNE19.jpg,AFSA04.jpg,FS,4,num_2,32,num_8,0.766775140659,,,2017_Jun_27_1806,59.996998031,MAFE4ImagesEEG,001,200612,
AFNE01.JPG,AFNE01.JPG,AFNE01.JPG,AFNE01.JPG,AFNE01.JPG,AFNE01.JPG,,,,,,,,,,,,,,,,,,,,,0,4,4,4,,,AFSA08.jpg,AFSA15.jpg,AFNE02.jpg,AFNE11.jpg,AFNE11.jpg,FN,3,num_4,32,num_2,0.683477569746,,,2017_Jun_27_1806,59.996998031,MAFE4ImagesEEG,001,200612,
AFNE01.JPG,AFNE01.JPG,AFNE01.JPG,AFNE01.JPG,AFNE01.JPG,AFNE01.JPG,,,,,,,,,,,,,,,,,,,,,0,5,5,5,,,AFSA03.jpg,AFNE19.jpg,AFSA06.jpg,AFNE16.jpg,AFNE19.jpg,FN,3,num_6,16,num_6,0.850113766191,,,2017_Jun_27_1806,59.996998031,MAFE4ImagesEEG,001,200612,
AFNE01.JPG,AFNE01.JPG,AFNE01.JPG,AFNE01.JPG,AFNE01.JPG,AFNE01.JPG,,,,,,,,,,,,,,,,,,,,,0,6,6,0,,,AFSA15.jpg,AFNE15.jpg,AFSA06.jpg,AFNE16.jpg,AFNE15.jpg,FN,3,num_6,16,num_6,0.716801729937,,,2017_Jun_27_1806,59.996998031,MAFE4ImagesEEG,001,200612,
AFNE01.JPG,AFNE01.JPG,AFNE01.JPG,AFNE01.JPG,AFNE01.JPG,AFNE01.JPG,,,,,,,,,,,,,,,,,,,,,0,7,7,3,,,AFNE07.jpg,AFNE12.jpg,AFSA13.jpg,AFSA03.jpg,AFSA13.jpg,FS,4,num_2,32,num_4,0.816605822441,,,2017_Jun_27_1806,59.996998031,MAFE4ImagesEEG,001,200612,
AFNE01.JPG,AFNE01.JPG,AFNE01.JPG,AFNE01.JPG,AFNE01.JPG,AFNE01.JPG,,,,,,,,,,,,,,,,,,,,,0,8,8,6,,,AFSA17.jpg,AFSA05.jpg,AFNE15.jpg,AFNE17.jpg,AFNE17.jpg,FN,3,num_4,32,num_6,0.733458036731,,,2017_Jun_27_1806,59.996998031,MAFE4ImagesEEG,001,200612,
AFNE01.JPG,AFNE01.JPG,AFNE01.JPG,AFNE01.JPG,AFNE01.JPG,AFNE01.JPG,,,,,,,,,,,,,,,,,,,,,0,9,9,2,,,AFSA09.jpg,AFNE18.jpg,AFNE20.jpg,AFSA08.jpg,AFSA09.jpg,FS,4,num_8,32,num_4,0.65007643215,,,2017_Jun_27_1806,59.996998031,MAFE4ImagesEEG,001,200612,
AFNE01.JPG,AFNE01.JPG,AFNE01.JPG,AFNE01.JPG,AFNE01.JPG,AFNE01.JPG,,,,,,,,,,,,,,,,,,,,,1,0,10,1,,,AFNE09.jpg,AFSA04.jpg,AFSA05.jpg,AFNE02.jpg,AFNE02.jpg,FN,3,num_4,32,num_8,0.800078773544,,,2017_Jun_27_1806,59.996998031,MAFE4ImagesEEG,001,200612,
AFNE01.JPG,AFNE01.JPG,AFNE01.JPG,AFNE01.JPG,AFNE01.JPG,AFNE01.JPG,,,,,,,,,,,,,,,,,,,,,1,1,11,6,,,AFNE05.jpg,AFSA14.jpg,AFSA09.jpg,AFNE06.jpg,AFSA14.jpg,FS,4,num_6,16,num_6,0.733463810036,,,2017_Jun_27_1806,59.996998031,MAFE4ImagesEEG,001,200612,
AFNE01.JPG,AFNE01.JPG,AFNE01.JPG,AFNE01.JPG,AFNE01.JPG,AFNE01.JPG,,,,,,,,,,,,,,,,,,,,,1,2,12,5,,,AFNE18.jpg,AFNE16.jpg,AFSA16.jpg,AFSA04.jpg,AFSA16.jpg,FS,4,num_2,16,num_2,0.533476190569,,,2017_Jun_27_1806,59.996998031,MAFE4ImagesEEG,001,200612,
AFNE01.JPG,AFNE01.JPG,AFNE01.JPG,AFNE01.JPG,AFNE01.JPG,AFNE01.JPG,,,,,,,,,,,,,,,,,,,,,1,3,13,2,,,AFSA20.jpg,AFNE13.jpg,AFNE15.jpg,AFSA09.jpg,AFNE15.jpg,FN,3,num_2,32,num_6,0.716746883536,,,2017_Jun_27_1806,59.996998031,MAFE4ImagesEEG,001,200612,
AFNE01.JPG,AFNE01.JPG,AFNE01.JPG,AFNE01.JPG,AFNE01.JPG,AFNE01.JPG,,,,,,,,,,,,,,,,,,,,,1,4,14,3,,,AFNE15.jpg,AFSA16.jpg,AFNE12.jpg,AFSA13.jpg,AFSA13.jpg,FS,4,num_4,16,num_4,0.533446682562,,,2017_Jun_27_1806,59.996998031,MAFE4ImagesEEG,001,200612,
AFNE01.JPG,AFNE01.JPG,AFNE01.JPG,AFNE01.JPG,AFNE01.JPG,AFNE01.JPG,,,,,,,,,,,,,,,,,,,,,1,5,15,0,,,AFNE11.jpg,AFSA09.jpg,AFNE16.jpg,AFSA12.jpg,AFNE11.jpg,FN,3,num_8,32,num_2,1.09996061323,,,2017_Jun_27_1806,59.996998031,MAFE4ImagesEEG,001,200612,
AFNE01.JPG,AFNE01.JPG,AFNE01.JPG,AFNE01.JPG,AFNE01.JPG,AFNE01.JPG,,,,,,,,,,,,,,,,,,,,,1,6,16,4,,,AFSA19.jpg,AFSA01.jpg,AFNE07.jpg,AFNE13.jpg,AFNE07.jpg,FN,3,num_2,16,num_2,0.68336531103,,,2017_Jun_27_1806,59.996998031,MAFE4ImagesEEG,001,200612,
AFNE01.JPG,AFNE01.JPG,AFNE01.JPG,AFNE01.JPG,AFNE01.JPG,AFNE01.JPG,,,,,,,,,,,,,,,,,,,,,1,7,17,9,,,AFNE03.jpg,AFSA09.jpg,AFSA16.jpg,AFNE20.jpg,AFNE20.jpg,FN,3,num_4,32,num_8,0.750121399782,,,2017_Jun_27_1806,59.996998031,MAFE4ImagesEEG,001,200612,
AFNE01.JPG,AFNE01.JPG,AFNE01.JPG,AFNE01.JPG,AFNE01.JPG,AFNE01.JPG,,,,,,,,,,,,,,,,,,,,,1,8,18,7,,,AFSA17.jpg,AFNE06.jpg,AFNE01.jpg,AFSA08.jpg,AFNE06.jpg,FN,3,num_6,32,num_2,0.366783223286,,,2017_Jun_27_1806,59.996998031,MAFE4ImagesEEG,001,200612,
AFNE01.JPG,AFNE01.JPG,AFNE01.JPG,AFNE01.JPG,AFNE01.JPG,AFNE01.JPG,,,,,,,,,,,,,,,,,,,,,1,9,19,8,,,AFSA02.jpg,AFNE01.jpg,AFNE07.jpg,AFSA19.jpg,AFSA19.jpg,FS,4,num_4,16,num_4,0.550150138013,,,2017_Jun_27_1806,59.996998031,MAFE4ImagesEEG,001,200612,
AFNE01.JPG,AFNE01.JPG,AFNE01.JPG,AFNE01.JPG,AFNE01.JPG,AFNE01.JPG,,,,,,,,,,,,,,,,,,,,,2,0,20,1,,,AFNE07.jpg,AFSA15.jpg,AFSA07.jpg,AFNE16.jpg,AFNE16.jpg,FN,3,num_4,32,num_8,0.6335064042,,,2017_Jun_27_1806,59.996998031,MAFE4ImagesEEG,001,200612,
AFNE01.JPG,AFNE01.JPG,AFNE01.JPG,AFNE01.JPG,AFNE01.JPG,AFNE01.JPG,,,,,,,,,,,,,,,,,,,,,2,1,21,9,,,AFSA03.jpg,AFNE13.jpg,AFNE12.jpg,AFSA01.jpg,AFSA03.jpg,FS,4,num_8,32,num_4,0.883481546913,,,2017_Jun_27_1806,59.996998031,MAFE4ImagesEEG,001,200612,
AFNE01.JPG,AFNE01.JPG,AFNE01.JPG,AFNE01.JPG,AFNE01.JPG,AFNE01.JPG,,,,,,,,,,,,,,,,,,,,,2,2,22,6,,,AFSA17.jpg,AFNE05.jpg,AFSA13.jpg,AFNE10.jpg,AFSA13.jpg,FS,4,num_2,32,num_6,0.683546207933,,,2017_Jun_27_1806,59.996998031,MAFE4ImagesEEG,001,200612,
AFNE01.JPG,AFNE01.JPG,AFNE01.JPG,AFNE01.JPG,AFNE01.JPG,AFNE01.JPG,,,,,,,,,,,,,,,,,,,,,2,3,23,2,,,AFNE10.jpg,AFSA04.jpg,AFNE15.jpg,AFSA15.jpg,AFSA04.jpg,FS,4,num_6,32,num_2,0.750103759128,,,2017_Jun_27_1806,59.996998031,MAFE4ImagesEEG,001,200612,
AFNE01.JPG,AFNE01.JPG,AFNE01.JPG,AFNE01.JPG,AFNE01.JPG,AFNE01.JPG,,,,,,,,,,,,,,,,,,,,,2,4,24,8,,,AFSA08.jpg,AFNE16.jpg,AFNE20.jpg,AFSA01.jpg,AFNE20.jpg,FN,3,num_2,32,num_8,1.11676862965,,,2017_Jun_27_1806,59.996998031,MAFE4ImagesEEG,001,200612,
AFNE01.JPG,AFNE01.JPG,AFNE01.JPG,AFNE01.JPG,AFNE01.JPG,AFNE01.JPG,,,,,,,,,,,,,,,,,,,,,2,5,25,4,,,AFNE17.jpg,AFSA01.jpg,AFSA03.jpg,AFNE14.jpg,AFSA03.jpg,FS,4,num_2,16,num_2,0.583493221817,,,2017_Jun_27_1806,59.996998031,MAFE4ImagesEEG,001,200612,
AFNE01.JPG,AFNE01.JPG,AFNE01.JPG,AFNE01.JPG,AFNE01.JPG,AFNE01.JPG,,,,,,,,,,,,,,,,,,,,,2,6,26,7,,,AFNE08.jpg,AFNE13.jpg,AFSA13.jpg,AFSA17.jpg,AFNE13.jpg,FN,3,num_6,16,num_6,0.466840379013,,,2017_Jun_27_1806,59.996998031,MAFE4ImagesEEG,001,200612,
AFNE01.JPG,AFNE01.JPG,AFNE01.JPG,AFNE01.JPG,AFNE01.JPG,AFNE01.JPG,,,,,,,,,,,,,,,,,,,,,2,7,27,0,,,AFNE10.jpg,AFSA08.jpg,AFSA04.jpg,AFNE14.jpg,AFNE14.jpg,FN,3,num_4,32,num_2,0.56678078567,,,2017_Jun_27_1806,59.996998031,MAFE4ImagesEEG,001,200612,
AFNE01.JPG,AFNE01.JPG,AFNE01.JPG,AFNE01.JPG,AFNE01.JPG,AFNE01.JPG,,,,,,,,,,,,,,,,,,,,,2,8,28,3,,,AFSA10.jpg,AFNE13.jpg,AFSA16.jpg,AFNE01.jpg,AFSA10.jpg,FS,4,num_8,16,num_8,0.7668139501,,,2017_Jun_27_1806,59.996998031,MAFE4ImagesEEG,001,200612,
AFNE01.JPG,AFNE01.JPG,AFNE01.JPG,AFNE01.JPG,AFNE01.JPG,AFNE01.JPG,,,,,,,,,,,,,,,,,,,,,2,9,29,5,,,AFSA18.jpg,AFSA16.jpg,AFNE12.jpg,AFNE08.jpg,AFNE08.jpg,FN,3,num_4,32,num_2,0.650187087169,,,2017_Jun_27_1806,59.996998031,MAFE4ImagesEEG,001,200612,
AFNE01.JPG,AFNE01.JPG,AFNE01.JPG,AFNE01.JPG,AFNE01.JPG,AFNE01.JPG,,,,,,,,,,,,,,,,,,,,,3,0,30,6,,,AFSA10.jpg,AFSA16.jpg,AFNE14.jpg,AFNE12.jpg,AFSA16.jpg,FS,4,num_6,32,num_4,0.733453867124,,,2017_Jun_27_1806,59.996998031,MAFE4ImagesEEG,001,200612,
AFNE01.JPG,AFNE01.JPG,AFNE01.JPG,AFNE01.JPG,AFNE01.JPG,AFNE01.JPG,,,,,,,,,,,,,,,,,,,,,3,1,31,8,,,AFSA14.jpg,AFSA01.jpg,AFNE06.jpg,AFNE07.jpg,AFNE07.jpg,FN,3,num_4,32,num_2,0.633485556151,,,2017_Jun_27_1806,59.996998031,MAFE4ImagesEEG,001,200612,
AFNE01.JPG,AFNE01.JPG,AFNE01.JPG,AFNE01.JPG,AFNE01.JPG,AFNE01.JPG,,,,,,,,,,,,,,,,,,,,,3,2,32,2,,,AFNE18.jpg,AFSA13.jpg,AFSA03.jpg,AFNE19.jpg,AFNE18.jpg,FN,3,num_8,32,num_4,0.700130989888,,,2017_Jun_27_1806,59.996998031,MAFE4ImagesEEG,001,200612,
AFNE01.JPG,AFNE01.JPG,AFNE01.JPG,AFNE01.JPG,AFNE01.JPG,AFNE01.JPG,,,,,,,,,,,,,,,,,,,,,3,3,33,9,,,AFSA18.jpg,AFNE16.jpg,AFNE06.jpg,AFSA16.jpg,AFSA18.jpg,FS,4,num_8,16,num_8,0.616818023489,,,2017_Jun_27_1806,59.996998031,MAFE4ImagesEEG,001,200612,
AFNE01.JPG,AFNE01.JPG,AFNE01.JPG,AFNE01.JPG,AFNE01.JPG,AFNE01.JPG,,,,,,,,,,,,,,,,,,,,,3,4,34,4,,,AFNE19.jpg,AFNE06.jpg,AFSA06.jpg,AFSA11.jpg,AFSA06.jpg,FS,4,num_2,32,num_8,0.583447676854,,,2017_Jun_27_1806,59.996998031,MAFE4ImagesEEG,001,200612,
AFNE01.JPG,AFNE01.JPG,AFNE01.JPG,AFNE01.JPG,AFNE01.JPG,AFNE01.JPG,,,,,,,,,,,,,,,,,,,,,3,5,35,1,,,AFSA16.jpg,AFSA04.jpg,AFNE09.jpg,AFNE12.jpg,AFSA16.jpg,FS,4,num_8,16,num_8,0.533464002478,,,2017_Jun_27_1806,59.996998031,MAFE4ImagesEEG,001,200612,
AFNE01.JPG,AFNE01.JPG,AFNE01.JPG,AFNE01.JPG,AFNE01.JPG,AFNE01.JPG,,,,,,,,,,,,,,,,,,,,,3,6,36,5,,,AFNE04.jpg,AFSA12.jpg,AFSA20.jpg,AFNE18.jpg,AFNE18.jpg,FN,3,num_4,16,num_4,0.69997446916,,,2017_Jun_27_1806,59.996998031,MAFE4ImagesEEG,001,200612,
AFNE01.JPG,AFNE01.JPG,AFNE01.JPG,AFNE01.JPG,AFNE01.JPG,AFNE01.JPG,,,,,,,,,,,,,,,,,,,,,3,7,37,0,,,AFNE06.jpg,AFSA07.jpg,AFSA02.jpg,AFNE03.jpg,AFNE06.jpg,FN,3,num_8,16,num_8,0.650140579986,,,2017_Jun_27_1806,59.996998031,MAFE4ImagesEEG,001,200612,
AFNE01.JPG,AFNE01.JPG,AFNE01.JPG,AFNE01.JPG,AFNE01.JPG,AFNE01.JPG,,,,,,,,,,,,,,,,,,,,,3,8,38,7,,,AFNE04.jpg,AFSA05.jpg,AFNE10.jpg,AFSA13.jpg,AFSA05.jpg,FS,4,num_6,32,num_4,0.650145070333,,,2017_Jun_27_1806,59.996998031,MAFE4ImagesEEG,001,200612,
AFNE01.JPG,AFNE01.JPG,AFNE01.JPG,AFNE01.JPG,AFNE01.JPG,AFNE01.JPG,,,,,,,,,,,,,,,,,,,,,3,9,39,3,,,AFSA16.jpg,AFNE05.jpg,AFSA19.jpg,AFNE01.jpg,AFSA19.jpg,FS,4,num_2,32,num_8,0.65012710894,,,2017_Jun_27_1806,59.996998031,MAFE4ImagesEEG,001,200612,
