IPosition2,IPosition3,IPosition1,IPosition6,IPosition4,IPosition5,TrialsF1.thisRepN,TrialsF1.thisTrialN,TrialsF1.thisN,TrialsF1.thisIndex,TrialsM1.thisRepN,TrialsM1.thisTrialN,TrialsM1.thisN,TrialsM1.thisIndex,TrialsF2.thisRepN,TrialsF2.thisTrialN,TrialsF2.thisN,TrialsF2.thisIndex,TrialsM2.thisRepN,TrialsM2.thisTrialN,TrialsM2.thisN,TrialsM2.thisIndex,TrialsF3.thisRepN,TrialsF3.thisTrialN,TrialsF3.thisN,TrialsF3.thisIndex,TrialsM3.thisRepN,TrialsM3.thisTrialN,TrialsM3.thisN,TrialsM3.thisIndex,InstrKey_resp.keys,InstrKey_resp.rt,Image0 _Position,Image1 _Position,Image2 _Position,Image3 _Position,Center_image,condition,code,correct_answer,accuracy,Key_Resp.keys,Key_Resp.rt,BreakKey_resp.keys,BreakKey_resp.rt,date,frameRate,expName,session,participant,
,,,,,,,,,,,,,,,,,,,,,,,,,,,,,,space,12.8834754529,,,,,,,,,,,,,,2017_Jun_29_1450,60.0002309363,FEMA4ImagesEEG,001,200655,
AMSA25.JPG,AMNE24.JPG,AMSA24.JPG,AMNE26.JPG,AMSA21.JPG,AMNE25.JPG,0,0,0,3,,,,,,,,,,,,,,,,,,,,,,,AFNE20.jpg,AFNE05.jpg,AFSA19.jpg,AFSA18.jpg,AFSA19.jpg,FS,4,num_2,32,num_4,2.18333195418,,,2017_Jun_29_1450,60.0002309363,FEMA4ImagesEEG,001,200655,
AMSA21.JPG,AMNE22.JPG,AMNE21.JPG,AMSA23.JPG,AMSA22.JPG,AMNE23.JPG,0,1,1,1,,,,,,,,,,,,,,,,,,,,,,,AFNE09.jpg,AFSA13.jpg,AFNE17.jpg,AFSA14.jpg,AFNE17.jpg,FN,3,num_2,32,num_8,1.43378884712,,,2017_Jun_29_1450,60.0002309363,FEMA4ImagesEEG,001,200655,
AMNE23.JPG,AMNE24.JPG,AMNE22.JPG,AMSA24.JPG,AMSA22.JPG,AMSA23.JPG,0,2,2,9,,,,,,,,,,,,,,,,,,,,,,,AFNE11.jpg,AFSA16.jpg,AFNE18.jpg,AFSA09.jpg,AFNE18.jpg,FN,3,num_2,16,num_2,1.33324609228,,,2017_Jun_29_1450,60.0002309363,FEMA4ImagesEEG,001,200655,
AMNE22.JPG,AMSA24.JPG,AMSA22.JPG,AMNE25.JPG,AMNE24.JPG,AMSA25.JPG,0,3,3,7,,,,,,,,,,,,,,,,,,,,,,,AFNE14.jpg,AFNE16.jpg,AFSA11.jpg,AFSA02.jpg,AFNE14.jpg,FN,3,num_8,16,num_8,1.26669463512,,,2017_Jun_29_1450,60.0002309363,FEMA4ImagesEEG,001,200655,
AFSA21.JPG,AFNE22.JPG,AFNE21.JPG,AFSA23.JPG,AFSA22.JPG,AFNE23.JPG,0,4,4,0,,,,,,,,,,,,,,,,,,,,,,,AFNE19.jpg,AFNE16.jpg,AFSA12.jpg,AFSA17.jpg,AFSA12.jpg,FS,4,num_2,32,num_6,1.15051007151,,,2017_Jun_29_1450,60.0002309363,FEMA4ImagesEEG,001,200655,
AFSA25.JPG,AFNE24.JPG,AFSA24.JPG,AFNE21.JPG,AFSA21.JPG,AFNE25.JPG,0,5,5,2,,,,,,,,,,,,,,,,,,,,,,,AFSA13.jpg,AFNE19.jpg,AFSA03.jpg,AFNE12.jpg,AFNE19.jpg,FN,3,num_6,32,num_2,1.33346130827,,,2017_Jun_29_1450,60.0002309363,FEMA4ImagesEEG,001,200655,
AMSA21.JPG,AMNE23.JPG,AMNE21.JPG,AMSA25.JPG,AMNE25.JPG,AMSA23.JPG,0,6,6,5,,,,,,,,,,,,,,,,,,,,,,,AFNE03.jpg,AFSA14.jpg,AFNE20.jpg,AFSA09.jpg,AFNE03.jpg,FN,3,num_8,16,num_8,1.31710938297,,,2017_Jun_29_1450,60.0002309363,FEMA4ImagesEEG,001,200655,
AFSA21.JPG,AFNE23.JPG,AFNE21.JPG,AFSA25.JPG,AFNE25.JPG,AFSA23.JPG,0,7,7,4,,,,,,,,,,,,,,,,,,,,,,,AFNE11.jpg,AFNE15.jpg,AFSA07.jpg,AFSA17.jpg,AFNE15.jpg,FN,3,num_6,16,num_6,0.850487106596,,,2017_Jun_29_1450,60.0002309363,FEMA4ImagesEEG,001,200655,
AFNE22.JPG,AFSA24.JPG,AFSA22.JPG,AFNE25.JPG,AFNE24.JPG,AFSA25.JPG,0,8,8,6,,,,,,,,,,,,,,,,,,,,,,,AFSA05.jpg,AFNE20.jpg,AFSA19.jpg,AFNE12.jpg,AFNE20.jpg,FN,3,num_6,32,num_4,1.56667333803,,,2017_Jun_29_1450,60.0002309363,FEMA4ImagesEEG,001,200655,
AFNE23.JPG,AFNE24.JPG,AFNE22.JPG,AFSA24.JPG,AFSA22.JPG,AFSA23.JPG,0,9,9,8,,,,,,,,,,,,,,,,,,,,,,,AFSA14.jpg,AFNE03.jpg,AFNE08.jpg,AFSA11.jpg,AFSA11.jpg,FS,4,num_4,16,num_4,1.63370077216,,,2017_Jun_29_1450,60.0002309363,FEMA4ImagesEEG,001,200655,
AMSA21.JPG,AMNE23.JPG,AMNE21.JPG,AMSA25.JPG,AMNE25.JPG,AMSA23.JPG,,,,,0,0,0,5,,,,,,,,,,,,,,,,,,,AMSA09.jpg,AMNE09.jpg,AMSA03.jpg,AMNE10.jpg,AMSA03.jpg,MS,2,num_2,16,num_2,1.40003200975,,,2017_Jun_29_1450,60.0002309363,FEMA4ImagesEEG,001,200655,
AMSA21.JPG,AMNE22.JPG,AMNE21.JPG,AMSA23.JPG,AMSA22.JPG,AMNE23.JPG,,,,,0,1,1,1,,,,,,,,,,,,,,,,,,,AMSA06.jpg,AMNE01.jpg,AMNE02.jpg,AMSA01.jpg,AMSA06.jpg,MS,2,num_8,16,num_8,1.36661034485,,,2017_Jun_29_1450,60.0002309363,FEMA4ImagesEEG,001,200655,
AFSA21.JPG,AFNE23.JPG,AFNE21.JPG,AFSA25.JPG,AFNE25.JPG,AFSA23.JPG,,,,,0,2,2,4,,,,,,,,,,,,,,,,,,,AMNE16.jpg,AMNE11.jpg,AMSA14.jpg,AMSA12.jpg,AMNE16.jpg,MN,1,num_8,16,num_8,1.28341412754,,,2017_Jun_29_1450,60.0002309363,FEMA4ImagesEEG,001,200655,
AMNE22.JPG,AMSA24.JPG,AMSA22.JPG,AMNE25.JPG,AMNE24.JPG,AMSA25.JPG,,,,,0,3,3,7,,,,,,,,,,,,,,,,,,,AMSA12.jpg,AMNE20.jpg,AMSA10.jpg,AMNE08.jpg,AMNE20.jpg,MN,1,num_6,16,num_6,0.550083424256,,,2017_Jun_29_1450,60.0002309363,FEMA4ImagesEEG,001,200655,
AFSA21.JPG,AFNE22.JPG,AFNE21.JPG,AFSA23.JPG,AFSA22.JPG,AFNE23.JPG,,,,,0,4,4,0,,,,,,,,,,,,,,,,,,,AMNE19.jpg,AMSA13.jpg,AMNE06.jpg,AMSA11.jpg,AMNE19.jpg,MN,1,num_8,32,num_2,1.11674874381,,,2017_Jun_29_1450,60.0002309363,FEMA4ImagesEEG,001,200655,
AFNE22.JPG,AFSA24.JPG,AFSA22.JPG,AFNE25.JPG,AFNE24.JPG,AFSA25.JPG,,,,,0,5,5,6,,,,,,,,,,,,,,,,,,,AMSA05.jpg,AMNE16.jpg,AMSA09.jpg,AMNE15.jpg,AMSA05.jpg,MS,2,num_8,32,num_2,1.18378387566,,,2017_Jun_29_1450,60.0002309363,FEMA4ImagesEEG,001,200655,
AFSA25.JPG,AFNE24.JPG,AFSA24.JPG,AFNE21.JPG,AFSA21.JPG,AFNE25.JPG,,,,,0,6,6,2,,,,,,,,,,,,,,,,,,,AMNE15.jpg,AMNE09.jpg,AMSA17.jpg,AMSA01.jpg,AMSA17.jpg,MS,2,num_2,32,num_8,1.95036144101,,,2017_Jun_29_1450,60.0002309363,FEMA4ImagesEEG,001,200655,
AMNE23.JPG,AMNE24.JPG,AMNE22.JPG,AMSA24.JPG,AMSA22.JPG,AMSA23.JPG,,,,,0,7,7,9,,,,,,,,,,,,,,,,,,,AMNE01.jpg,AMSA12.jpg,AMNE14.jpg,AMSA19.jpg,AMNE14.jpg,MN,1,num_2,16,num_2,0.98340655808,,,2017_Jun_29_1450,60.0002309363,FEMA4ImagesEEG,001,200655,
AMSA25.JPG,AMNE24.JPG,AMSA24.JPG,AMNE26.JPG,AMSA21.JPG,AMNE25.JPG,,,,,0,8,8,3,,,,,,,,,,,,,,,,,,,AMNE17.jpg,AMSA18.jpg,AMNE09.jpg,AMSA08.jpg,AMSA08.jpg,MS,2,num_4,16,num_4,0.650150843634,,,2017_Jun_29_1450,60.0002309363,FEMA4ImagesEEG,001,200655,
AFNE23.JPG,AFNE24.JPG,AFNE22.JPG,AFSA24.JPG,AFSA22.JPG,AFSA23.JPG,,,,,0,9,9,8,,,,,,,,,,,,,,,,,,,AMSA12.jpg,AMNE01.jpg,AMNE09.jpg,AMSA10.jpg,AMNE09.jpg,MN,1,num_2,16,num_2,1.3336441296,,,2017_Jun_29_1450,60.0002309363,FEMA4ImagesEEG,001,200655,
AMNE23.JPG,AMNE24.JPG,AMNE22.JPG,AMSA24.JPG,AMSA22.JPG,AMSA23.JPG,,,,,,,,,0,0,0,9,,,,,,,,,,,,,,,AFNE12.jpg,AFNE18.jpg,AFSA06.jpg,AFSA07.jpg,AFNE12.jpg,FN,3,num_8,16,num_8,1.41710656049,,,2017_Jun_29_1450,60.0002309363,FEMA4ImagesEEG,001,200655,
AFSA21.JPG,AFNE23.JPG,AFNE21.JPG,AFSA25.JPG,AFNE25.JPG,AFSA23.JPG,,,,,,,,,0,1,1,4,,,,,,,,,,,,,,,AFSA14.jpg,AFNE17.jpg,AFNE19.jpg,AFSA10.jpg,AFNE19.jpg,FN,3,num_2,32,num_6,0.933482861961,,,2017_Jun_29_1450,60.0002309363,FEMA4ImagesEEG,001,200655,
AFNE23.JPG,AFNE24.JPG,AFNE22.JPG,AFSA24.JPG,AFSA22.JPG,AFSA23.JPG,,,,,,,,,0,2,2,8,,,,,,,,,,,,,,,AFSA01.jpg,AFNE04.jpg,AFNE15.jpg,AFSA17.jpg,AFNE04.jpg,FN,3,num_6,32,num_2,1.33373682323,,,2017_Jun_29_1450,60.0002309363,FEMA4ImagesEEG,001,200655,
AFNE22.JPG,AFSA24.JPG,AFSA22.JPG,AFNE25.JPG,AFNE24.JPG,AFSA25.JPG,,,,,,,,,0,3,3,6,,,,,,,,,,,,,,,AFNE19.jpg,AFNE06.jpg,AFSA04.jpg,AFSA18.jpg,AFNE06.jpg,FN,3,num_6,16,num_6,0.917156275042,,,2017_Jun_29_1450,60.0002309363,FEMA4ImagesEEG,001,200655,
AFSA21.JPG,AFNE22.JPG,AFNE21.JPG,AFSA23.JPG,AFSA22.JPG,AFNE23.JPG,,,,,,,,,0,4,4,0,,,,,,,,,,,,,,,AFSA06.jpg,AFNE16.jpg,AFSA10.jpg,AFNE17.jpg,AFNE16.jpg,FN,3,num_6,32,num_2,0.850121143187,,,2017_Jun_29_1450,60.0002309363,FEMA4ImagesEEG,001,200655,
AMSA25.JPG,AMNE24.JPG,AMSA24.JPG,AMNE26.JPG,AMSA21.JPG,AMNE25.JPG,,,,,,,,,0,5,5,3,,,,,,,,,,,,,,,AFNE05.jpg,AFSA01.jpg,AFSA20.jpg,AFNE13.jpg,AFSA01.jpg,FS,4,num_6,16,num_6,0.550145647663,,,2017_Jun_29_1450,60.0002309363,FEMA4ImagesEEG,001,200655,
AMSA21.JPG,AMNE23.JPG,AMNE21.JPG,AMSA25.JPG,AMNE25.JPG,AMSA23.JPG,,,,,,,,,0,6,6,5,,,,,,,,,,,,,,,AFNE15.jpg,AFSA15.jpg,AFSA10.jpg,AFNE16.jpg,AFNE15.jpg,FN,3,num_8,32,num_6,0.900505100057,,,2017_Jun_29_1450,60.0002309363,FEMA4ImagesEEG,001,200655,
AMNE22.JPG,AMSA24.JPG,AMSA22.JPG,AMNE25.JPG,AMNE24.JPG,AMSA25.JPG,,,,,,,,,0,7,7,7,,,,,,,,,,,,,,,AFNE16.jpg,AFSA09.jpg,AFSA11.jpg,AFNE06.jpg,AFNE06.jpg,FN,3,num_4,32,num_8,0.766644920572,,,2017_Jun_29_1450,60.0002309363,FEMA4ImagesEEG,001,200655,
AFSA25.JPG,AFNE24.JPG,AFSA24.JPG,AFNE21.JPG,AFSA21.JPG,AFNE25.JPG,,,,,,,,,0,8,8,2,,,,,,,,,,,,,,,AFSA20.jpg,AFNE08.jpg,AFNE07.jpg,AFSA07.jpg,AFSA07.jpg,FS,4,num_4,16,num_4,0.683772329066,,,2017_Jun_29_1450,60.0002309363,FEMA4ImagesEEG,001,200655,
AMSA21.JPG,AMNE22.JPG,AMNE21.JPG,AMSA23.JPG,AMSA22.JPG,AMNE23.JPG,,,,,,,,,0,9,9,1,,,,,,,,,,,,,,,AFNE08.jpg,AFSA16.jpg,AFSA01.jpg,AFNE06.jpg,AFNE08.jpg,FN,3,num_8,16,num_8,0.900409840542,,,2017_Jun_29_1450,60.0002309363,FEMA4ImagesEEG,001,200655,
AMSA25.JPG,AMNE24.JPG,AMSA24.JPG,AMNE26.JPG,AMSA21.JPG,AMNE25.JPG,,,,,,,,,,,,,0,0,0,3,,,,,,,,,,,AMNE09.jpg,AMNE14.jpg,AMSA19.jpg,AMSA17.jpg,AMSA19.jpg,MS,2,num_2,32,num_8,0.867036927986,,,2017_Jun_29_1450,60.0002309363,FEMA4ImagesEEG,001,200655,
AFSA25.JPG,AFNE24.JPG,AFSA24.JPG,AFNE21.JPG,AFSA21.JPG,AFNE25.JPG,,,,,,,,,,,,,0,1,1,2,,,,,,,,,,,AMNE03.jpg,AMNE16.jpg,AMSA02.jpg,AMSA13.jpg,AMSA13.jpg,MS,2,num_4,32,num_8,0.976384935755,,,2017_Jun_29_1450,60.0002309363,FEMA4ImagesEEG,001,200655,
AFSA21.JPG,AFNE22.JPG,AFNE21.JPG,AFSA23.JPG,AFSA22.JPG,AFNE23.JPG,,,,,,,,,,,,,0,2,2,0,,,,,,,,,,,AMNE03.jpg,AMSA10.jpg,AMSA07.jpg,AMNE05.jpg,AMSA10.jpg,MS,2,num_6,32,num_2,1.18377970604,,,2017_Jun_29_1450,60.0002309363,FEMA4ImagesEEG,001,200655,
AFNE23.JPG,AFNE24.JPG,AFNE22.JPG,AFSA24.JPG,AFSA22.JPG,AFSA23.JPG,,,,,,,,,,,,,0,3,3,8,,,,,,,,,,,AMNE01.jpg,AMSA18.jpg,AMSA14.jpg,AMNE17.jpg,AMNE17.jpg,MN,1,num_4,32,num_8,0.733778134454,,,2017_Jun_29_1450,60.0002309363,FEMA4ImagesEEG,001,200655,
AMSA21.JPG,AMNE22.JPG,AMNE21.JPG,AMSA23.JPG,AMSA22.JPG,AMNE23.JPG,,,,,,,,,,,,,0,4,4,1,,,,,,,,,,,AMNE14.jpg,AMNE08.jpg,AMSA20.jpg,AMSA17.jpg,AMSA17.jpg,MS,2,num_4,16,num_4,0.950148470147,,,2017_Jun_29_1450,60.0002309363,FEMA4ImagesEEG,001,200655,
AMNE22.JPG,AMSA24.JPG,AMSA22.JPG,AMNE25.JPG,AMNE24.JPG,AMSA25.JPG,,,,,,,,,,,,,0,5,5,7,,,,,,,,,,,AMNE03.jpg,AMSA19.jpg,AMNE19.jpg,AMSA20.jpg,AMSA19.jpg,MS,2,num_6,16,num_6,0.867069322645,,,2017_Jun_29_1450,60.0002309363,FEMA4ImagesEEG,001,200655,
AFSA21.JPG,AFNE23.JPG,AFNE21.JPG,AFSA25.JPG,AFNE25.JPG,AFSA23.JPG,,,,,,,,,,,,,0,6,6,4,,,,,,,,,,,AMNE20.jpg,AMNE05.jpg,AMSA01.jpg,AMSA06.jpg,AMSA01.jpg,MS,2,num_2,16,num_2,1.03380494821,,,2017_Jun_29_1450,60.0002309363,FEMA4ImagesEEG,001,200655,
AMNE23.JPG,AMNE24.JPG,AMNE22.JPG,AMSA24.JPG,AMSA22.JPG,AMSA23.JPG,,,,,,,,,,,,,0,7,7,9,,,,,,,,,,,AMNE06.jpg,AMNE16.jpg,AMSA03.jpg,AMSA06.jpg,AMSA03.jpg,MS,2,num_2,32,num_6,0.550484668987,,,2017_Jun_29_1450,60.0002309363,FEMA4ImagesEEG,001,200655,
AFNE22.JPG,AFSA24.JPG,AFSA22.JPG,AFNE25.JPG,AFNE24.JPG,AFSA25.JPG,,,,,,,,,,,,,0,8,8,6,,,,,,,,,,,AMSA07.jpg,AMNE04.jpg,AMSA03.jpg,AMNE19.jpg,AMSA07.jpg,MS,2,num_8,16,num_8,0.916445516981,,,2017_Jun_29_1450,60.0002309363,FEMA4ImagesEEG,001,200655,
AMSA21.JPG,AMNE23.JPG,AMNE21.JPG,AMSA25.JPG,AMNE25.JPG,AMSA23.JPG,,,,,,,,,,,,,0,9,9,5,,,,,,,,,,,AMSA09.jpg,AMNE03.jpg,AMNE14.jpg,AMSA19.jpg,AMNE03.jpg,MN,1,num_6,32,num_4,0.300582013326,,,2017_Jun_29_1450,60.0002309363,FEMA4ImagesEEG,001,200655,
AFNE22.JPG,AFSA24.JPG,AFSA22.JPG,AFNE25.JPG,AFNE24.JPG,AFSA25.JPG,,,,,,,,,,,,,,,,,0,0,0,6,,,,,,,AFSA17.jpg,AFNE20.jpg,AFSA15.jpg,AFNE05.jpg,AFNE05.jpg,FN,3,num_4,32,num_8,1.01722786401,,,2017_Jun_29_1450,60.0002309363,FEMA4ImagesEEG,001,200655,
AMNE22.JPG,AMSA24.JPG,AMSA22.JPG,AMNE25.JPG,AMNE24.JPG,AMSA25.JPG,,,,,,,,,,,,,,,,,0,1,1,7,,,,,,,AFSA01.jpg,AFSA09.jpg,AFNE08.jpg,AFNE19.jpg,AFSA09.jpg,FS,4,num_6,16,num_6,1.08356282223,,,2017_Jun_29_1450,60.0002309363,FEMA4ImagesEEG,001,200655,
AMSA21.JPG,AMNE23.JPG,AMNE21.JPG,AMSA25.JPG,AMNE25.JPG,AMSA23.JPG,,,,,,,,,,,,,,,,,0,2,2,5,,,,,,,AFNE03.jpg,AFNE01.jpg,AFSA19.jpg,AFSA06.jpg,AFNE01.jpg,FN,3,num_6,32,num_4,1.00016197329,,,2017_Jun_29_1450,60.0002309363,FEMA4ImagesEEG,001,200655,
AMSA25.JPG,AMNE24.JPG,AMSA24.JPG,AMNE26.JPG,AMSA21.JPG,AMNE25.JPG,,,,,,,,,,,,,,,,,0,3,3,3,,,,,,,AFNE07.jpg,AFSA10.jpg,AFSA06.jpg,AFNE06.jpg,AFNE06.jpg,FN,3,num_4,32,num_8,0.550601738796,,,2017_Jun_29_1450,60.0002309363,FEMA4ImagesEEG,001,200655,
AFSA25.JPG,AFNE24.JPG,AFSA24.JPG,AFNE21.JPG,AFSA21.JPG,AFNE25.JPG,,,,,,,,,,,,,,,,,0,4,4,2,,,,,,,AFNE16.jpg,AFNE07.jpg,AFSA16.jpg,AFSA14.jpg,AFNE16.jpg,FN,3,num_8,32,num_2,0.783415089769,,,2017_Jun_29_1450,60.0002309363,FEMA4ImagesEEG,001,200655,
AFSA21.JPG,AFNE23.JPG,AFNE21.JPG,AFSA25.JPG,AFNE25.JPG,AFSA23.JPG,,,,,,,,,,,,,,,,,0,5,5,4,,,,,,,AFNE15.jpg,AFNE02.jpg,AFSA17.jpg,AFSA04.jpg,AFSA04.jpg,FS,4,num_4,32,num_6,0.749991179648,,,2017_Jun_29_1450,60.0002309363,FEMA4ImagesEEG,001,200655,
AMSA21.JPG,AMNE22.JPG,AMNE21.JPG,AMSA23.JPG,AMSA22.JPG,AMNE23.JPG,,,,,,,,,,,,,,,,,0,6,6,1,,,,,,,AFSA02.jpg,AFSA08.jpg,AFNE12.jpg,AFNE01.jpg,AFSA02.jpg,FS,4,num_8,16,num_8,1.26702948683,,,2017_Jun_29_1450,60.0002309363,FEMA4ImagesEEG,001,200655,
AFNE23.JPG,AFNE24.JPG,AFNE22.JPG,AFSA24.JPG,AFSA22.JPG,AFSA23.JPG,,,,,,,,,,,,,,,,,0,7,7,8,,,,,,,AFSA09.jpg,AFNE11.jpg,AFSA13.jpg,AFNE13.jpg,AFNE11.jpg,FN,3,num_6,16,num_6,0.783470577648,,,2017_Jun_29_1450,60.0002309363,FEMA4ImagesEEG,001,200655,
AFSA21.JPG,AFNE22.JPG,AFNE21.JPG,AFSA23.JPG,AFSA22.JPG,AFNE23.JPG,,,,,,,,,,,,,,,,,0,8,8,0,,,,,,,AFSA10.jpg,AFNE07.jpg,AFSA06.jpg,AFNE15.jpg,AFSA10.jpg,FS,4,num_8,32,num_2,0.60052768013,,,2017_Jun_29_1450,60.0002309363,FEMA4ImagesEEG,001,200655,
AMNE23.JPG,AMNE24.JPG,AMNE22.JPG,AMSA24.JPG,AMSA22.JPG,AMSA23.JPG,,,,,,,,,,,,,,,,,0,9,9,9,,,,,,,AFNE02.jpg,AFNE04.jpg,AFSA11.jpg,AFSA06.jpg,AFNE02.jpg,FN,3,num_8,16,num_8,1.05017579714,,,2017_Jun_29_1450,60.0002309363,FEMA4ImagesEEG,001,200655,
AMNE22.JPG,AMSA24.JPG,AMSA22.JPG,AMNE25.JPG,AMNE24.JPG,AMSA25.JPG,,,,,,,,,,,,,,,,,,,,,0,0,0,7,,,AMNE15.jpg,AMNE03.jpg,AMSA16.jpg,AMSA05.jpg,AMNE15.jpg,MN,1,num_8,16,num_8,0.783791637572,,,2017_Jun_29_1450,60.0002309363,FEMA4ImagesEEG,001,200655,
AMSA21.JPG,AMNE23.JPG,AMNE21.JPG,AMSA25.JPG,AMNE25.JPG,AMSA23.JPG,,,,,,,,,,,,,,,,,,,,,0,1,1,5,,,AMNE03.jpg,AMSA07.jpg,AMNE12.jpg,AMSA08.jpg,AMNE03.jpg,MN,1,num_8,16,num_8,0.850049618341,,,2017_Jun_29_1450,60.0002309363,FEMA4ImagesEEG,001,200655,
AFSA21.JPG,AFNE22.JPG,AFNE21.JPG,AFSA23.JPG,AFSA22.JPG,AFNE23.JPG,,,,,,,,,,,,,,,,,,,,,0,2,2,0,,,AMSA03.jpg,AMNE18.jpg,AMNE07.jpg,AMSA13.jpg,AMNE18.jpg,MN,1,num_6,32,num_2,0.817208812106,,,2017_Jun_29_1450,60.0002309363,FEMA4ImagesEEG,001,200655,
AMSA25.JPG,AMNE24.JPG,AMSA24.JPG,AMNE26.JPG,AMSA21.JPG,AMNE25.JPG,,,,,,,,,,,,,,,,,,,,,0,3,3,3,,,AMSA07.jpg,AMNE13.jpg,AMNE04.jpg,AMSA14.jpg,AMNE04.jpg,MN,1,num_2,32,num_8,1.1115309587,,,2017_Jun_29_1450,60.0002309363,FEMA4ImagesEEG,001,200655,
AMSA21.JPG,AMNE22.JPG,AMNE21.JPG,AMSA23.JPG,AMSA22.JPG,AMNE23.JPG,,,,,,,,,,,,,,,,,,,,,0,4,4,1,,,AMSA17.jpg,AMNE04.jpg,AMSA20.jpg,AMNE15.jpg,AMNE15.jpg,MN,1,num_4,16,num_4,0.549542016524,,,2017_Jun_29_1450,60.0002309363,FEMA4ImagesEEG,001,200655,
AMNE23.JPG,AMNE24.JPG,AMNE22.JPG,AMSA24.JPG,AMSA22.JPG,AMSA23.JPG,,,,,,,,,,,,,,,,,,,,,0,5,5,9,,,AMSA16.jpg,AMSA10.jpg,AMNE12.jpg,AMNE16.jpg,AMSA16.jpg,MS,2,num_8,16,num_8,0.933834071329,,,2017_Jun_29_1450,60.0002309363,FEMA4ImagesEEG,001,200655,
AFSA25.JPG,AFNE24.JPG,AFSA24.JPG,AFNE21.JPG,AFSA21.JPG,AFNE25.JPG,,,,,,,,,,,,,,,,,,,,,0,6,6,2,,,AMNE20.jpg,AMSA09.jpg,AMNE17.jpg,AMSA05.jpg,AMSA09.jpg,MS,2,num_6,32,num_8,0.716786334466,,,2017_Jun_29_1450,60.0002309363,FEMA4ImagesEEG,001,200655,
AFNE23.JPG,AFNE24.JPG,AFNE22.JPG,AFSA24.JPG,AFSA22.JPG,AFSA23.JPG,,,,,,,,,,,,,,,,,,,,,0,7,7,8,,,AMSA01.jpg,AMNE13.jpg,AMSA12.jpg,AMNE01.jpg,AMSA01.jpg,MS,2,num_8,16,num_8,0.90036686149,,,2017_Jun_29_1450,60.0002309363,FEMA4ImagesEEG,001,200655,
AFSA21.JPG,AFNE23.JPG,AFNE21.JPG,AFSA25.JPG,AFNE25.JPG,AFSA23.JPG,,,,,,,,,,,,,,,,,,,,,0,8,8,4,,,AMSA08.jpg,AMNE06.jpg,AMSA04.jpg,AMNE11.jpg,AMSA08.jpg,MS,2,num_8,16,num_8,0.900132080395,,,2017_Jun_29_1450,60.0002309363,FEMA4ImagesEEG,001,200655,
AFNE22.JPG,AFSA24.JPG,AFSA22.JPG,AFNE25.JPG,AFNE24.JPG,AFSA25.JPG,,,,,,,,,,,,,,,,,,,,,0,9,9,6,,,AMNE07.jpg,AMNE14.jpg,AMSA02.jpg,AMSA19.jpg,AMSA19.jpg,MS,2,num_4,32,num_2,2.20040073156,,,2017_Jun_29_1450,60.0002309363,FEMA4ImagesEEG,001,200655,
,,,,,,,,,,,,,,,,,,,,,,,,,,,,,,,,,,,,,,,,,,,space,24.7486280381,2017_Jun_29_1450,60.0002309363,FEMA4ImagesEEG,001,200655,
AFNE01.JPG,AFNE01.JPG,AFNE01.JPG,AFNE01.JPG,AFNE01.JPG,AFNE01.JPG,0,0,0,5,,,,,,,,,,,,,,,,,,,,,,,AFSA04.jpg,AFNE06.jpg,AFSA20.jpg,AFNE13.jpg,AFNE13.jpg,FN,3,num_4,32,num_6,0.600764706382,,,2017_Jun_29_1450,60.0002309363,FEMA4ImagesEEG,001,200655,
AFNE01.JPG,AFNE01.JPG,AFNE01.JPG,AFNE01.JPG,AFNE01.JPG,AFNE01.JPG,0,1,1,1,,,,,,,,,,,,,,,,,,,,,,,AFNE14.jpg,AFSA08.jpg,AFSA04.jpg,AFNE01.jpg,AFSA04.jpg,FS,4,num_2,16,num_2,1.18386855081,,,2017_Jun_29_1450,60.0002309363,FEMA4ImagesEEG,001,200655,
AFNE01.JPG,AFNE01.JPG,AFNE01.JPG,AFNE01.JPG,AFNE01.JPG,AFNE01.JPG,0,2,2,8,,,,,,,,,,,,,,,,,,,,,,,AFSA05.jpg,AFNE15.jpg,AFNE20.jpg,AFSA18.jpg,AFNE15.jpg,FN,3,num_6,16,num_6,0.400469818764,,,2017_Jun_29_1450,60.0002309363,FEMA4ImagesEEG,001,200655,
AFNE01.JPG,AFNE01.JPG,AFNE01.JPG,AFNE01.JPG,AFNE01.JPG,AFNE01.JPG,0,3,3,9,,,,,,,,,,,,,,,,,,,,,,,AFSA01.jpg,AFNE06.jpg,AFSA02.jpg,AFNE13.jpg,AFNE13.jpg,FN,3,num_4,32,num_6,0.600595356082,,,2017_Jun_29_1450,60.0002309363,FEMA4ImagesEEG,001,200655,
AFNE01.JPG,AFNE01.JPG,AFNE01.JPG,AFNE01.JPG,AFNE01.JPG,AFNE01.JPG,0,4,4,7,,,,,,,,,,,,,,,,,,,,,,,AFNE20.jpg,AFSA14.jpg,AFNE06.jpg,AFSA13.jpg,AFNE06.jpg,FN,3,num_2,16,num_2,1.38348026396,,,2017_Jun_29_1450,60.0002309363,FEMA4ImagesEEG,001,200655,
AFNE01.JPG,AFNE01.JPG,AFNE01.JPG,AFNE01.JPG,AFNE01.JPG,AFNE01.JPG,0,5,5,4,,,,,,,,,,,,,,,,,,,,,,,AFNE05.jpg,AFSA07.jpg,AFNE17.jpg,AFSA10.jpg,AFSA07.jpg,FS,4,num_6,32,num_8,1.00051927674,,,2017_Jun_29_1450,60.0002309363,FEMA4ImagesEEG,001,200655,
AFNE01.JPG,AFNE01.JPG,AFNE01.JPG,AFNE01.JPG,AFNE01.JPG,AFNE01.JPG,0,6,6,3,,,,,,,,,,,,,,,,,,,,,,,AFNE06.jpg,AFSA03.jpg,AFSA16.jpg,AFNE02.jpg,AFSA03.jpg,FS,4,num_6,16,num_6,1.03554527907,,,2017_Jun_29_1450,60.0002309363,FEMA4ImagesEEG,001,200655,
AFNE01.JPG,AFNE01.JPG,AFNE01.JPG,AFNE01.JPG,AFNE01.JPG,AFNE01.JPG,0,7,7,6,,,,,,,,,,,,,,,,,,,,,,,AFNE07.jpg,AFSA19.jpg,AFSA12.jpg,AFNE05.jpg,AFNE07.jpg,FN,3,num_8,16,num_8,1.73386441328,,,2017_Jun_29_1450,60.0002309363,FEMA4ImagesEEG,001,200655,
AFNE01.JPG,AFNE01.JPG,AFNE01.JPG,AFNE01.JPG,AFNE01.JPG,AFNE01.JPG,0,8,8,0,,,,,,,,,,,,,,,,,,,,,,,AFSA12.jpg,AFSA06.jpg,AFNE02.jpg,AFNE19.jpg,AFNE19.jpg,FN,3,num_4,32,num_6,0.950536885328,,,2017_Jun_29_1450,60.0002309363,FEMA4ImagesEEG,001,200655,
AFNE01.JPG,AFNE01.JPG,AFNE01.JPG,AFNE01.JPG,AFNE01.JPG,AFNE01.JPG,0,9,9,2,,,,,,,,,,,,,,,,,,,,,,,AFSA04.jpg,AFSA20.jpg,AFNE19.jpg,AFNE04.jpg,AFNE04.jpg,FN,3,num_4,16,num_4,1.0505372702,,,2017_Jun_29_1450,60.0002309363,FEMA4ImagesEEG,001,200655,
AFNE01.JPG,AFNE01.JPG,AFNE01.JPG,AFNE01.JPG,AFNE01.JPG,AFNE01.JPG,1,0,10,4,,,,,,,,,,,,,,,,,,,,,,,AFSA08.jpg,AFSA06.jpg,AFNE10.jpg,AFNE04.jpg,AFNE04.jpg,FN,3,num_4,16,num_4,0.583887410292,,,2017_Jun_29_1450,60.0002309363,FEMA4ImagesEEG,001,200655,
AFNE01.JPG,AFNE01.JPG,AFNE01.JPG,AFNE01.JPG,AFNE01.JPG,AFNE01.JPG,1,1,11,9,,,,,,,,,,,,,,,,,,,,,,,AFSA17.jpg,AFNE06.jpg,AFSA06.jpg,AFNE10.jpg,AFNE06.jpg,FN,3,num_6,16,num_6,0.867194090184,,,2017_Jun_29_1450,60.0002309363,FEMA4ImagesEEG,001,200655,
AFNE01.JPG,AFNE01.JPG,AFNE01.JPG,AFNE01.JPG,AFNE01.JPG,AFNE01.JPG,1,2,12,2,,,,,,,,,,,,,,,,,,,,,,,AFSA08.jpg,AFNE19.jpg,AFNE14.jpg,AFSA20.jpg,AFNE19.jpg,FN,3,num_6,32,num_2,1.23381341575,,,2017_Jun_29_1450,60.0002309363,FEMA4ImagesEEG,001,200655,
AFNE01.JPG,AFNE01.JPG,AFNE01.JPG,AFNE01.JPG,AFNE01.JPG,AFNE01.JPG,1,3,13,0,,,,,,,,,,,,,,,,,,,,,,,AFNE06.jpg,AFSA06.jpg,AFSA07.jpg,AFNE01.jpg,AFNE01.jpg,FN,3,num_4,32,num_8,1.03371642422,,,2017_Jun_29_1450,60.0002309363,FEMA4ImagesEEG,001,200655,
AFNE01.JPG,AFNE01.JPG,AFNE01.JPG,AFNE01.JPG,AFNE01.JPG,AFNE01.JPG,1,4,14,6,,,,,,,,,,,,,,,,,,,,,,,AFNE16.jpg,AFSA01.jpg,AFSA14.jpg,AFNE12.jpg,AFSA14.jpg,FS,4,num_2,32,num_6,0.667177604191,,,2017_Jun_29_1450,60.0002309363,FEMA4ImagesEEG,001,200655,
AFNE01.JPG,AFNE01.JPG,AFNE01.JPG,AFNE01.JPG,AFNE01.JPG,AFNE01.JPG,1,5,15,5,,,,,,,,,,,,,,,,,,,,,,,AFSA01.jpg,AFSA10.jpg,AFNE20.jpg,AFNE13.jpg,AFNE13.jpg,FN,3,num_4,32,num_6,0.550129610725,,,2017_Jun_29_1450,60.0002309363,FEMA4ImagesEEG,001,200655,
AFNE01.JPG,AFNE01.JPG,AFNE01.JPG,AFNE01.JPG,AFNE01.JPG,AFNE01.JPG,1,6,16,1,,,,,,,,,,,,,,,,,,,,,,,AFSA15.jpg,AFNE08.jpg,AFNE07.jpg,AFSA19.jpg,AFSA19.jpg,FS,4,num_4,32,num_8,0.666814848169,,,2017_Jun_29_1450,60.0002309363,FEMA4ImagesEEG,001,200655,
AFNE01.JPG,AFNE01.JPG,AFNE01.JPG,AFNE01.JPG,AFNE01.JPG,AFNE01.JPG,1,7,17,8,,,,,,,,,,,,,,,,,,,,,,,AFSA17.jpg,AFSA19.jpg,AFNE08.jpg,AFNE15.jpg,AFSA19.jpg,FS,4,num_6,16,num_6,0.650320193934,,,2017_Jun_29_1450,60.0002309363,FEMA4ImagesEEG,001,200655,
AFNE01.JPG,AFNE01.JPG,AFNE01.JPG,AFNE01.JPG,AFNE01.JPG,AFNE01.JPG,1,8,18,7,,,,,,,,,,,,,,,,,,,,,,,AFNE11.jpg,AFNE12.jpg,AFSA04.jpg,AFSA15.jpg,AFSA04.jpg,FS,4,num_2,32,num_8,0.716979419434,,,2017_Jun_29_1450,60.0002309363,FEMA4ImagesEEG,001,200655,
AFNE01.JPG,AFNE01.JPG,AFNE01.JPG,AFNE01.JPG,AFNE01.JPG,AFNE01.JPG,1,9,19,3,,,,,,,,,,,,,,,,,,,,,,,AFNE10.jpg,AFNE18.jpg,AFSA15.jpg,AFSA17.jpg,AFSA17.jpg,FS,4,num_4,32,num_6,0.650278497837,,,2017_Jun_29_1450,60.0002309363,FEMA4ImagesEEG,001,200655,
AFNE01.JPG,AFNE01.JPG,AFNE01.JPG,AFNE01.JPG,AFNE01.JPG,AFNE01.JPG,2,0,20,9,,,,,,,,,,,,,,,,,,,,,,,AFNE16.jpg,AFSA09.jpg,AFNE17.jpg,AFSA05.jpg,AFNE17.jpg,FN,3,num_2,32,num_8,0.667078175029,,,2017_Jun_29_1450,60.0002309363,FEMA4ImagesEEG,001,200655,
AFNE01.JPG,AFNE01.JPG,AFNE01.JPG,AFNE01.JPG,AFNE01.JPG,AFNE01.JPG,2,1,21,2,,,,,,,,,,,,,,,,,,,,,,,AFNE17.jpg,AFSA17.jpg,AFSA20.jpg,AFNE15.jpg,AFSA17.jpg,FS,4,num_6,32,num_8,0.750477099558,,,2017_Jun_29_1450,60.0002309363,FEMA4ImagesEEG,001,200655,
AFNE01.JPG,AFNE01.JPG,AFNE01.JPG,AFNE01.JPG,AFNE01.JPG,AFNE01.JPG,2,2,22,8,,,,,,,,,,,,,,,,,,,,,,,AFNE06.jpg,AFNE01.jpg,AFSA14.jpg,AFSA13.jpg,AFNE01.jpg,FN,3,num_6,32,num_8,0.683544924948,,,2017_Jun_29_1450,60.0002309363,FEMA4ImagesEEG,001,200655,
AFNE01.JPG,AFNE01.JPG,AFNE01.JPG,AFNE01.JPG,AFNE01.JPG,AFNE01.JPG,2,3,23,6,,,,,,,,,,,,,,,,,,,,,,,AFSA18.jpg,AFSA06.jpg,AFNE12.jpg,AFNE10.jpg,AFNE12.jpg,FN,3,num_2,16,num_2,1.48336357906,,,2017_Jun_29_1450,60.0002309363,FEMA4ImagesEEG,001,200655,
AFNE01.JPG,AFNE01.JPG,AFNE01.JPG,AFNE01.JPG,AFNE01.JPG,AFNE01.JPG,2,4,24,4,,,,,,,,,,,,,,,,,,,,,,,AFNE03.jpg,AFSA14.jpg,AFSA01.jpg,AFNE17.jpg,AFNE03.jpg,FN,3,num_8,16,num_8,0.60020437502,,,2017_Jun_29_1450,60.0002309363,FEMA4ImagesEEG,001,200655,
AFNE01.JPG,AFNE01.JPG,AFNE01.JPG,AFNE01.JPG,AFNE01.JPG,AFNE01.JPG,2,5,25,5,,,,,,,,,,,,,,,,,,,,,,,AFSA03.jpg,AFNE18.jpg,AFSA08.jpg,AFNE01.jpg,AFNE01.jpg,FN,3,num_4,32,num_6,0.717188541399,,,2017_Jun_29_1450,60.0002309363,FEMA4ImagesEEG,001,200655,
AFNE01.JPG,AFNE01.JPG,AFNE01.JPG,AFNE01.JPG,AFNE01.JPG,AFNE01.JPG,2,6,26,1,,,,,,,,,,,,,,,,,,,,,,,AFNE09.jpg,AFSA09.jpg,AFSA18.jpg,AFNE17.jpg,AFNE09.jpg,FN,3,num_8,16,num_8,1.43327406075,,,2017_Jun_29_1450,60.0002309363,FEMA4ImagesEEG,001,200655,
AFNE01.JPG,AFNE01.JPG,AFNE01.JPG,AFNE01.JPG,AFNE01.JPG,AFNE01.JPG,2,7,27,3,,,,,,,,,,,,,,,,,,,,,,,AFNE03.jpg,AFSA20.jpg,AFNE04.jpg,AFSA01.jpg,AFSA20.jpg,FS,4,num_6,16,num_6,0.767093313945,,,2017_Jun_29_1450,60.0002309363,FEMA4ImagesEEG,001,200655,
AFNE01.JPG,AFNE01.JPG,AFNE01.JPG,AFNE01.JPG,AFNE01.JPG,AFNE01.JPG,2,8,28,0,,,,,,,,,,,,,,,,,,,,,,,AFNE12.jpg,AFNE05.jpg,AFSA04.jpg,AFSA06.jpg,AFSA04.jpg,FS,4,num_2,32,num_8,0.883823775628,,,2017_Jun_29_1450,60.0002309363,FEMA4ImagesEEG,001,200655,
AFNE01.JPG,AFNE01.JPG,AFNE01.JPG,AFNE01.JPG,AFNE01.JPG,AFNE01.JPG,2,9,29,7,,,,,,,,,,,,,,,,,,,,,,,AFNE08.jpg,AFNE07.jpg,AFSA17.jpg,AFSA13.jpg,AFNE08.jpg,FN,3,num_8,32,num_6,0.550458047655,,,2017_Jun_29_1450,60.0002309363,FEMA4ImagesEEG,001,200655,
AFNE01.JPG,AFNE01.JPG,AFNE01.JPG,AFNE01.JPG,AFNE01.JPG,AFNE01.JPG,3,0,30,5,,,,,,,,,,,,,,,,,,,,,,,AFNE08.jpg,AFNE01.jpg,AFSA02.jpg,AFSA17.jpg,AFNE08.jpg,FN,3,num_8,16,num_8,0.683443571383,,,2017_Jun_29_1450,60.0002309363,FEMA4ImagesEEG,001,200655,
AFNE01.JPG,AFNE01.JPG,AFNE01.JPG,AFNE01.JPG,AFNE01.JPG,AFNE01.JPG,3,1,31,0,,,,,,,,,,,,,,,,,,,,,,,AFSA12.jpg,AFSA08.jpg,AFNE13.jpg,AFNE08.jpg,AFNE08.jpg,FN,3,num_4,16,num_4,0.917140558828,,,2017_Jun_29_1450,60.0002309363,FEMA4ImagesEEG,001,200655,
AFNE01.JPG,AFNE01.JPG,AFNE01.JPG,AFNE01.JPG,AFNE01.JPG,AFNE01.JPG,3,2,32,9,,,,,,,,,,,,,,,,,,,,,,,AFSA20.jpg,AFSA14.jpg,AFNE02.jpg,AFNE20.jpg,AFSA14.jpg,FS,4,num_6,16,num_6,0.483761937096,,,2017_Jun_29_1450,60.0002309363,FEMA4ImagesEEG,001,200655,
AFNE01.JPG,AFNE01.JPG,AFNE01.JPG,AFNE01.JPG,AFNE01.JPG,AFNE01.JPG,3,3,33,7,,,,,,,,,,,,,,,,,,,,,,,AFNE16.jpg,AFSA12.jpg,AFSA14.jpg,AFNE20.jpg,AFNE20.jpg,FN,3,num_4,32,num_8,1.61714485672,,,2017_Jun_29_1450,60.0002309363,FEMA4ImagesEEG,001,200655,
AFNE01.JPG,AFNE01.JPG,AFNE01.JPG,AFNE01.JPG,AFNE01.JPG,AFNE01.JPG,3,4,34,6,,,,,,,,,,,,,,,,,,,,,,,AFSA08.jpg,AFNE16.jpg,AFSA15.jpg,AFNE09.jpg,AFNE09.jpg,FN,3,num_4,16,num_4,0.800485150074,,,2017_Jun_29_1450,60.0002309363,FEMA4ImagesEEG,001,200655,
AFNE01.JPG,AFNE01.JPG,AFNE01.JPG,AFNE01.JPG,AFNE01.JPG,AFNE01.JPG,3,5,35,2,,,,,,,,,,,,,,,,,,,,,,,AFNE08.jpg,AFSA14.jpg,AFNE20.jpg,AFSA20.jpg,AFNE08.jpg,FN,3,num_8,32,num_4,1.0004788636,,,2017_Jun_29_1450,60.0002309363,FEMA4ImagesEEG,001,200655,
AFNE01.JPG,AFNE01.JPG,AFNE01.JPG,AFNE01.JPG,AFNE01.JPG,AFNE01.JPG,3,6,36,1,,,,,,,,,,,,,,,,,,,,,,,AFSA05.jpg,AFSA08.jpg,AFNE14.jpg,AFNE06.jpg,AFNE06.jpg,FN,3,num_4,16,num_4,0.583082996396,,,2017_Jun_29_1450,60.0002309363,FEMA4ImagesEEG,001,200655,
AFNE01.JPG,AFNE01.JPG,AFNE01.JPG,AFNE01.JPG,AFNE01.JPG,AFNE01.JPG,3,7,37,8,,,,,,,,,,,,,,,,,,,,,,,AFNE06.jpg,AFSA08.jpg,AFNE11.jpg,AFSA10.jpg,AFNE06.jpg,FN,3,num_8,48,None,,,,2017_Jun_29_1450,60.0002309363,FEMA4ImagesEEG,001,200655,
AFNE01.JPG,AFNE01.JPG,AFNE01.JPG,AFNE01.JPG,AFNE01.JPG,AFNE01.JPG,3,8,38,4,,,,,,,,,,,,,,,,,,,,,,,AFSA02.jpg,AFSA08.jpg,AFNE07.jpg,AFNE14.jpg,AFNE07.jpg,FN,3,num_2,32,num_4,1.7833753181,,,2017_Jun_29_1450,60.0002309363,FEMA4ImagesEEG,001,200655,
AFNE01.JPG,AFNE01.JPG,AFNE01.JPG,AFNE01.JPG,AFNE01.JPG,AFNE01.JPG,3,9,39,3,,,,,,,,,,,,,,,,,,,,,,,AFNE02.jpg,AFNE19.jpg,AFSA17.jpg,AFSA11.jpg,AFSA17.jpg,FS,4,num_2,32,num_4,0.533868775325,,,2017_Jun_29_1450,60.0002309363,FEMA4ImagesEEG,001,200655,
AFNE01.JPG,AFNE01.JPG,AFNE01.JPG,AFNE01.JPG,AFNE01.JPG,AFNE01.JPG,4,0,40,6,,,,,,,,,,,,,,,,,,,,,,,AFSA09.jpg,AFSA17.jpg,AFNE15.jpg,AFNE09.jpg,AFNE15.jpg,FN,3,num_2,16,num_2,1.48383410342,,,2017_Jun_29_1450,60.0002309363,FEMA4ImagesEEG,001,200655,
AFNE01.JPG,AFNE01.JPG,AFNE01.JPG,AFNE01.JPG,AFNE01.JPG,AFNE01.JPG,4,1,41,9,,,,,,,,,,,,,,,,,,,,,,,AFNE01.jpg,AFNE05.jpg,AFSA05.jpg,AFSA17.jpg,AFSA17.jpg,FS,4,num_4,32,num_8,0.700474822283,,,2017_Jun_29_1450,60.0002309363,FEMA4ImagesEEG,001,200655,
AFNE01.JPG,AFNE01.JPG,AFNE01.JPG,AFNE01.JPG,AFNE01.JPG,AFNE01.JPG,4,2,42,2,,,,,,,,,,,,,,,,,,,,,,,AFNE14.jpg,AFSA18.jpg,AFNE20.jpg,AFSA01.jpg,AFNE14.jpg,FN,3,num_8,16,num_8,0.883464868471,,,2017_Jun_29_1450,60.0002309363,FEMA4ImagesEEG,001,200655,
AFNE01.JPG,AFNE01.JPG,AFNE01.JPG,AFNE01.JPG,AFNE01.JPG,AFNE01.JPG,4,3,43,4,,,,,,,,,,,,,,,,,,,,,,,AFSA14.jpg,AFSA01.jpg,AFNE18.jpg,AFNE02.jpg,AFSA01.jpg,FS,4,num_6,32,num_8,0.700521008752,,,2017_Jun_29_1450,60.0002309363,FEMA4ImagesEEG,001,200655,
AFNE01.JPG,AFNE01.JPG,AFNE01.JPG,AFNE01.JPG,AFNE01.JPG,AFNE01.JPG,4,4,44,1,,,,,,,,,,,,,,,,,,,,,,,AFSA20.jpg,AFSA19.jpg,AFNE04.jpg,AFNE17.jpg,AFNE17.jpg,FN,3,num_4,16,num_4,1.61682604198,,,2017_Jun_29_1450,60.0002309363,FEMA4ImagesEEG,001,200655,
AFNE01.JPG,AFNE01.JPG,AFNE01.JPG,AFNE01.JPG,AFNE01.JPG,AFNE01.JPG,4,5,45,7,,,,,,,,,,,,,,,,,,,,,,,AFSA02.jpg,AFSA06.jpg,AFNE04.jpg,AFNE07.jpg,AFNE04.jpg,FN,3,num_2,16,num_2,0.983743654971,,,2017_Jun_29_1450,60.0002309363,FEMA4ImagesEEG,001,200655,
AFNE01.JPG,AFNE01.JPG,AFNE01.JPG,AFNE01.JPG,AFNE01.JPG,AFNE01.JPG,4,6,46,0,,,,,,,,,,,,,,,,,,,,,,,AFNE18.jpg,AFNE14.jpg,AFSA01.jpg,AFSA11.jpg,AFSA11.jpg,FS,4,num_4,16,num_4,0.450089774909,,,2017_Jun_29_1450,60.0002309363,FEMA4ImagesEEG,001,200655,
AFNE01.JPG,AFNE01.JPG,AFNE01.JPG,AFNE01.JPG,AFNE01.JPG,AFNE01.JPG,4,7,47,3,,,,,,,,,,,,,,,,,,,,,,,AFSA15.jpg,AFNE10.jpg,AFNE14.jpg,AFSA13.jpg,AFNE10.jpg,FN,3,num_6,16,num_6,1.18338519687,,,2017_Jun_29_1450,60.0002309363,FEMA4ImagesEEG,001,200655,
AFNE01.JPG,AFNE01.JPG,AFNE01.JPG,AFNE01.JPG,AFNE01.JPG,AFNE01.JPG,4,8,48,8,,,,,,,,,,,,,,,,,,,,,,,AFSA15.jpg,AFSA18.jpg,AFNE16.jpg,AFNE20.jpg,AFSA18.jpg,FS,4,num_6,16,num_6,0.583430677681,,,2017_Jun_29_1450,60.0002309363,FEMA4ImagesEEG,001,200655,
AFNE01.JPG,AFNE01.JPG,AFNE01.JPG,AFNE01.JPG,AFNE01.JPG,AFNE01.JPG,4,9,49,5,,,,,,,,,,,,,,,,,,,,,,,AFSA15.jpg,AFNE11.jpg,AFSA20.jpg,AFNE20.jpg,AFSA20.jpg,FS,4,num_2,32,num_8,0.73345194268,,,2017_Jun_29_1450,60.0002309363,FEMA4ImagesEEG,001,200655,
AFNE01.JPG,AFNE01.JPG,AFNE01.JPG,AFNE01.JPG,AFNE01.JPG,AFNE01.JPG,5,0,50,5,,,,,,,,,,,,,,,,,,,,,,,AFSA08.jpg,AFNE16.jpg,AFSA20.jpg,AFNE15.jpg,AFSA20.jpg,FS,4,num_2,32,num_6,1.26707406959,,,2017_Jun_29_1450,60.0002309363,FEMA4ImagesEEG,001,200655,
AFNE01.JPG,AFNE01.JPG,AFNE01.JPG,AFNE01.JPG,AFNE01.JPG,AFNE01.JPG,5,1,51,0,,,,,,,,,,,,,,,,,,,,,,,AFSA13.jpg,AFSA02.jpg,AFNE15.jpg,AFNE06.jpg,AFNE06.jpg,FN,3,num_4,16,num_4,1.25010857021,,,2017_Jun_29_1450,60.0002309363,FEMA4ImagesEEG,001,200655,
AFNE01.JPG,AFNE01.JPG,AFNE01.JPG,AFNE01.JPG,AFNE01.JPG,AFNE01.JPG,5,2,52,8,,,,,,,,,,,,,,,,,,,,,,,AFSA18.jpg,AFSA17.jpg,AFNE16.jpg,AFNE05.jpg,AFSA17.jpg,FS,4,num_6,16,num_6,0.650719834957,,,2017_Jun_29_1450,60.0002309363,FEMA4ImagesEEG,001,200655,
AFNE01.JPG,AFNE01.JPG,AFNE01.JPG,AFNE01.JPG,AFNE01.JPG,AFNE01.JPG,5,3,53,2,,,,,,,,,,,,,,,,,,,,,,,AFNE13.jpg,AFNE10.jpg,AFSA01.jpg,AFSA11.jpg,AFSA01.jpg,FS,4,num_2,32,num_8,0.850511803525,,,2017_Jun_29_1450,60.0002309363,FEMA4ImagesEEG,001,200655,
AFNE01.JPG,AFNE01.JPG,AFNE01.JPG,AFNE01.JPG,AFNE01.JPG,AFNE01.JPG,5,4,54,1,,,,,,,,,,,,,,,,,,,,,,,AFSA03.jpg,AFNE03.jpg,AFSA08.jpg,AFNE20.jpg,AFNE03.jpg,FN,3,num_6,16,num_6,1.25047325069,,,2017_Jun_29_1450,60.0002309363,FEMA4ImagesEEG,001,200655,
AFNE01.JPG,AFNE01.JPG,AFNE01.JPG,AFNE01.JPG,AFNE01.JPG,AFNE01.JPG,5,5,55,7,,,,,,,,,,,,,,,,,,,,,,,AFNE09.jpg,AFSA01.jpg,AFSA13.jpg,AFNE10.jpg,AFNE10.jpg,FN,3,num_4,16,num_4,0.900506383012,,,2017_Jun_29_1450,60.0002309363,FEMA4ImagesEEG,001,200655,
AFNE01.JPG,AFNE01.JPG,AFNE01.JPG,AFNE01.JPG,AFNE01.JPG,AFNE01.JPG,5,6,56,4,,,,,,,,,,,,,,,,,,,,,,,AFNE02.jpg,AFNE07.jpg,AFSA11.jpg,AFSA18.jpg,AFSA18.jpg,FS,4,num_4,32,num_8,0.800101225293,,,2017_Jun_29_1450,60.0002309363,FEMA4ImagesEEG,001,200655,
AFNE01.JPG,AFNE01.JPG,AFNE01.JPG,AFNE01.JPG,AFNE01.JPG,AFNE01.JPG,5,7,57,3,,,,,,,,,,,,,,,,,,,,,,,AFSA09.jpg,AFNE06.jpg,AFSA01.jpg,AFNE14.jpg,AFSA09.jpg,FS,4,num_8,32,num_6,0.933437958476,,,2017_Jun_29_1450,60.0002309363,FEMA4ImagesEEG,001,200655,
AFNE01.JPG,AFNE01.JPG,AFNE01.JPG,AFNE01.JPG,AFNE01.JPG,AFNE01.JPG,5,8,58,9,,,,,,,,,,,,,,,,,,,,,,,AFNE04.jpg,AFNE17.jpg,AFSA04.jpg,AFSA14.jpg,AFNE04.jpg,FN,3,num_8,16,num_8,0.617101877666,,,2017_Jun_29_1450,60.0002309363,FEMA4ImagesEEG,001,200655,
AFNE01.JPG,AFNE01.JPG,AFNE01.JPG,AFNE01.JPG,AFNE01.JPG,AFNE01.JPG,5,9,59,6,,,,,,,,,,,,,,,,,,,,,,,AFSA20.jpg,AFNE04.jpg,AFNE13.jpg,AFSA15.jpg,AFNE04.jpg,FN,3,num_6,16,num_6,0.633826822625,,,2017_Jun_29_1450,60.0002309363,FEMA4ImagesEEG,001,200655,
,,,,,,,,,,,,,,,,,,,,,,,,,,,,,,,,,,,,,,,,,,,space,6.0833620395,2017_Jun_29_1450,60.0002309363,FEMA4ImagesEEG,001,200655,
AFNE01.JPG,AFNE01.JPG,AFNE01.JPG,AFNE01.JPG,AFNE01.JPG,AFNE01.JPG,,,,,0,0,0,3,,,,,,,,,,,,,,,,,,,AMNE20.jpg,AMNE11.jpg,AMSA10.jpg,AMSA04.jpg,AMNE11.jpg,MN,1,num_6,16,num_6,0.633486197621,,,2017_Jun_29_1450,60.0002309363,FEMA4ImagesEEG,001,200655,
AFNE01.JPG,AFNE01.JPG,AFNE01.JPG,AFNE01.JPG,AFNE01.JPG,AFNE01.JPG,,,,,0,1,1,1,,,,,,,,,,,,,,,,,,,AMNE03.jpg,AMNE08.jpg,AMSA08.jpg,AMSA20.jpg,AMSA20.jpg,MS,2,num_4,32,num_8,1.12735077771,,,2017_Jun_29_1450,60.0002309363,FEMA4ImagesEEG,001,200655,
AFNE01.JPG,AFNE01.JPG,AFNE01.JPG,AFNE01.JPG,AFNE01.JPG,AFNE01.JPG,,,,,0,2,2,5,,,,,,,,,,,,,,,,,,,AMSA11.jpg,AMNE09.jpg,AMNE08.jpg,AMSA12.jpg,AMSA12.jpg,MS,2,num_4,32,num_8,1.11709065182,,,2017_Jun_29_1450,60.0002309363,FEMA4ImagesEEG,001,200655,
AFNE01.JPG,AFNE01.JPG,AFNE01.JPG,AFNE01.JPG,AFNE01.JPG,AFNE01.JPG,,,,,0,3,3,6,,,,,,,,,,,,,,,,,,,AMSA13.jpg,AMNE15.jpg,AMSA11.jpg,AMNE04.jpg,AMSA11.jpg,MS,2,num_2,16,num_2,0.900232792512,,,2017_Jun_29_1450,60.0002309363,FEMA4ImagesEEG,001,200655,
AFNE01.JPG,AFNE01.JPG,AFNE01.JPG,AFNE01.JPG,AFNE01.JPG,AFNE01.JPG,,,,,0,4,4,4,,,,,,,,,,,,,,,,,,,AMSA01.jpg,AMNE15.jpg,AMNE10.jpg,AMSA11.jpg,AMNE15.jpg,MN,1,num_6,16,num_6,0.500066392997,,,2017_Jun_29_1450,60.0002309363,FEMA4ImagesEEG,001,200655,
AFNE01.JPG,AFNE01.JPG,AFNE01.JPG,AFNE01.JPG,AFNE01.JPG,AFNE01.JPG,,,,,0,5,5,9,,,,,,,,,,,,,,,,,,,AMNE13.jpg,AMNE12.jpg,AMSA17.jpg,AMSA15.jpg,AMSA17.jpg,MS,2,num_2,32,num_8,0.616823476041,,,2017_Jun_29_1450,60.0002309363,FEMA4ImagesEEG,001,200655,
AFNE01.JPG,AFNE01.JPG,AFNE01.JPG,AFNE01.JPG,AFNE01.JPG,AFNE01.JPG,,,,,0,6,6,2,,,,,,,,,,,,,,,,,,,AMSA16.jpg,AMNE01.jpg,AMSA03.jpg,AMNE14.jpg,AMNE14.jpg,MN,1,num_4,16,num_4,1.25005276161,,,2017_Jun_29_1450,60.0002309363,FEMA4ImagesEEG,001,200655,
AFNE01.JPG,AFNE01.JPG,AFNE01.JPG,AFNE01.JPG,AFNE01.JPG,AFNE01.JPG,,,,,0,7,7,7,,,,,,,,,,,,,,,,,,,AMNE18.jpg,AMNE04.jpg,AMSA18.jpg,AMSA07.jpg,AMSA18.jpg,MS,2,num_2,32,num_6,0.600105587335,,,2017_Jun_29_1450,60.0002309363,FEMA4ImagesEEG,001,200655,
AFNE01.JPG,AFNE01.JPG,AFNE01.JPG,AFNE01.JPG,AFNE01.JPG,AFNE01.JPG,,,,,0,8,8,8,,,,,,,,,,,,,,,,,,,AMNE10.jpg,AMNE03.jpg,AMSA03.jpg,AMSA11.jpg,AMSA03.jpg,MS,2,num_2,16,num_2,0.700566553685,,,2017_Jun_29_1450,60.0002309363,FEMA4ImagesEEG,001,200655,
AFNE01.JPG,AFNE01.JPG,AFNE01.JPG,AFNE01.JPG,AFNE01.JPG,AFNE01.JPG,,,,,0,9,9,0,,,,,,,,,,,,,,,,,,,AMSA13.jpg,AMNE03.jpg,AMNE18.jpg,AMSA04.jpg,AMNE18.jpg,MN,1,num_2,16,num_2,0.600600487902,,,2017_Jun_29_1450,60.0002309363,FEMA4ImagesEEG,001,200655,
AFNE01.JPG,AFNE01.JPG,AFNE01.JPG,AFNE01.JPG,AFNE01.JPG,AFNE01.JPG,,,,,1,0,10,5,,,,,,,,,,,,,,,,,,,AMSA12.jpg,AMNE05.jpg,AMNE11.jpg,AMSA15.jpg,AMSA12.jpg,MS,2,num_8,16,num_8,0.666717022716,,,2017_Jun_29_1450,60.0002309363,FEMA4ImagesEEG,001,200655,
AFNE01.JPG,AFNE01.JPG,AFNE01.JPG,AFNE01.JPG,AFNE01.JPG,AFNE01.JPG,,,,,1,1,11,2,,,,,,,,,,,,,,,,,,,AMSA06.jpg,AMNE10.jpg,AMNE02.jpg,AMSA18.jpg,AMNE02.jpg,MN,1,num_2,16,num_2,0.650443999242,,,2017_Jun_29_1450,60.0002309363,FEMA4ImagesEEG,001,200655,
AFNE01.JPG,AFNE01.JPG,AFNE01.JPG,AFNE01.JPG,AFNE01.JPG,AFNE01.JPG,,,,,1,2,12,7,,,,,,,,,,,,,,,,,,,AMSA04.jpg,AMNE05.jpg,AMSA02.jpg,AMNE04.jpg,AMSA04.jpg,MS,2,num_8,16,num_8,0.683566093765,,,2017_Jun_29_1450,60.0002309363,FEMA4ImagesEEG,001,200655,
AFNE01.JPG,AFNE01.JPG,AFNE01.JPG,AFNE01.JPG,AFNE01.JPG,AFNE01.JPG,,,,,1,3,13,0,,,,,,,,,,,,,,,,,,,AMSA08.jpg,AMSA20.jpg,AMNE08.jpg,AMNE09.jpg,AMSA20.jpg,MS,2,num_6,16,num_6,0.733738362789,,,2017_Jun_29_1450,60.0002309363,FEMA4ImagesEEG,001,200655,
AFNE01.JPG,AFNE01.JPG,AFNE01.JPG,AFNE01.JPG,AFNE01.JPG,AFNE01.JPG,,,,,1,4,14,9,,,,,,,,,,,,,,,,,,,AMSA06.jpg,AMNE11.jpg,AMNE08.jpg,AMSA02.jpg,AMSA06.jpg,MS,2,num_8,16,num_8,0.900055744452,,,2017_Jun_29_1450,60.0002309363,FEMA4ImagesEEG,001,200655,
AFNE01.JPG,AFNE01.JPG,AFNE01.JPG,AFNE01.JPG,AFNE01.JPG,AFNE01.JPG,,,,,1,5,15,6,,,,,,,,,,,,,,,,,,,AMSA02.jpg,AMNE20.jpg,AMNE03.jpg,AMSA13.jpg,AMNE03.jpg,MN,1,num_2,32,num_8,0.850096125534,,,2017_Jun_29_1450,60.0002309363,FEMA4ImagesEEG,001,200655,
AFNE01.JPG,AFNE01.JPG,AFNE01.JPG,AFNE01.JPG,AFNE01.JPG,AFNE01.JPG,,,,,1,6,16,1,,,,,,,,,,,,,,,,,,,AMNE08.jpg,AMSA08.jpg,AMNE18.jpg,AMSA02.jpg,AMNE18.jpg,MN,1,num_2,16,num_2,1.04997918403,,,2017_Jun_29_1450,60.0002309363,FEMA4ImagesEEG,001,200655,
AFNE01.JPG,AFNE01.JPG,AFNE01.JPG,AFNE01.JPG,AFNE01.JPG,AFNE01.JPG,,,,,1,7,17,8,,,,,,,,,,,,,,,,,,,AMSA15.jpg,AMSA18.jpg,AMNE12.jpg,AMNE11.jpg,AMSA18.jpg,MS,2,num_6,32,num_8,0.7667558963,,,2017_Jun_29_1450,60.0002309363,FEMA4ImagesEEG,001,200655,
AFNE01.JPG,AFNE01.JPG,AFNE01.JPG,AFNE01.JPG,AFNE01.JPG,AFNE01.JPG,,,,,1,8,18,3,,,,,,,,,,,,,,,,,,,AMSA17.jpg,AMNE19.jpg,AMSA18.jpg,AMNE09.jpg,AMNE19.jpg,MN,1,num_6,16,num_6,0.783387826901,,,2017_Jun_29_1450,60.0002309363,FEMA4ImagesEEG,001,200655,
AFNE01.JPG,AFNE01.JPG,AFNE01.JPG,AFNE01.JPG,AFNE01.JPG,AFNE01.JPG,,,,,1,9,19,4,,,,,,,,,,,,,,,,,,,AMNE11.jpg,AMSA02.jpg,AMSA13.jpg,AMNE02.jpg,AMSA13.jpg,MS,2,num_2,32,num_8,0.850538104132,,,2017_Jun_29_1450,60.0002309363,FEMA4ImagesEEG,001,200655,
AFNE01.JPG,AFNE01.JPG,AFNE01.JPG,AFNE01.JPG,AFNE01.JPG,AFNE01.JPG,,,,,2,0,20,1,,,,,,,,,,,,,,,,,,,AMNE13.jpg,AMSA12.jpg,AMNE16.jpg,AMSA11.jpg,AMSA11.jpg,MS,2,num_4,32,num_6,0.417095334589,,,2017_Jun_29_1450,60.0002309363,FEMA4ImagesEEG,001,200655,
AFNE01.JPG,AFNE01.JPG,AFNE01.JPG,AFNE01.JPG,AFNE01.JPG,AFNE01.JPG,,,,,2,1,21,9,,,,,,,,,,,,,,,,,,,AMNE12.jpg,AMSA18.jpg,AMNE10.jpg,AMSA16.jpg,AMSA18.jpg,MS,2,num_6,16,num_6,0.600568413996,,,2017_Jun_29_1450,60.0002309363,FEMA4ImagesEEG,001,200655,
AFNE01.JPG,AFNE01.JPG,AFNE01.JPG,AFNE01.JPG,AFNE01.JPG,AFNE01.JPG,,,,,2,2,22,2,,,,,,,,,,,,,,,,,,,AMNE11.jpg,AMSA05.jpg,AMSA15.jpg,AMNE14.jpg,AMNE11.jpg,MN,1,num_8,16,num_8,0.600081852637,,,2017_Jun_29_1450,60.0002309363,FEMA4ImagesEEG,001,200655,
AFNE01.JPG,AFNE01.JPG,AFNE01.JPG,AFNE01.JPG,AFNE01.JPG,AFNE01.JPG,,,,,2,3,23,0,,,,,,,,,,,,,,,,,,,AMNE11.jpg,AMSA16.jpg,AMNE10.jpg,AMSA03.jpg,AMSA03.jpg,MS,2,num_4,16,num_4,1.01668228669,,,2017_Jun_29_1450,60.0002309363,FEMA4ImagesEEG,001,200655,
AFNE01.JPG,AFNE01.JPG,AFNE01.JPG,AFNE01.JPG,AFNE01.JPG,AFNE01.JPG,,,,,2,4,24,8,,,,,,,,,,,,,,,,,,,AMSA10.jpg,AMSA19.jpg,AMNE20.jpg,AMNE05.jpg,AMNE20.jpg,MN,1,num_2,16,num_2,0.766693672922,,,2017_Jun_29_1450,60.0002309363,FEMA4ImagesEEG,001,200655,
AFNE01.JPG,AFNE01.JPG,AFNE01.JPG,AFNE01.JPG,AFNE01.JPG,AFNE01.JPG,,,,,2,5,25,3,,,,,,,,,,,,,,,,,,,AMSA13.jpg,AMNE05.jpg,AMNE02.jpg,AMSA08.jpg,AMSA08.jpg,MS,2,num_4,16,num_4,0.450527263136,,,2017_Jun_29_1450,60.0002309363,FEMA4ImagesEEG,001,200655,
AFNE01.JPG,AFNE01.JPG,AFNE01.JPG,AFNE01.JPG,AFNE01.JPG,AFNE01.JPG,,,,,2,6,26,4,,,,,,,,,,,,,,,,,,,AMSA18.jpg,AMSA04.jpg,AMNE14.jpg,AMNE09.jpg,AMNE14.jpg,MN,1,num_2,16,num_2,0.933405884542,,,2017_Jun_29_1450,60.0002309363,FEMA4ImagesEEG,001,200655,
AFNE01.JPG,AFNE01.JPG,AFNE01.JPG,AFNE01.JPG,AFNE01.JPG,AFNE01.JPG,,,,,2,7,27,5,,,,,,,,,,,,,,,,,,,AMSA02.jpg,AMNE04.jpg,AMSA18.jpg,AMNE19.jpg,AMNE04.jpg,MN,1,num_6,16,num_6,1.26675750001,,,2017_Jun_29_1450,60.0002309363,FEMA4ImagesEEG,001,200655,
AFNE01.JPG,AFNE01.JPG,AFNE01.JPG,AFNE01.JPG,AFNE01.JPG,AFNE01.JPG,,,,,2,8,28,6,,,,,,,,,,,,,,,,,,,AMSA07.jpg,AMNE18.jpg,AMNE14.jpg,AMSA06.jpg,AMSA07.jpg,MS,2,num_8,16,num_8,1.01671564352,,,2017_Jun_29_1450,60.0002309363,FEMA4ImagesEEG,001,200655,
AFNE01.JPG,AFNE01.JPG,AFNE01.JPG,AFNE01.JPG,AFNE01.JPG,AFNE01.JPG,,,,,2,9,29,7,,,,,,,,,,,,,,,,,,,AMNE09.jpg,AMSA04.jpg,AMNE07.jpg,AMSA14.jpg,AMNE07.jpg,MN,1,num_2,16,num_2,0.950192411459,,,2017_Jun_29_1450,60.0002309363,FEMA4ImagesEEG,001,200655,
AFNE01.JPG,AFNE01.JPG,AFNE01.JPG,AFNE01.JPG,AFNE01.JPG,AFNE01.JPG,,,,,3,0,30,0,,,,,,,,,,,,,,,,,,,AMSA15.jpg,AMSA05.jpg,AMNE02.jpg,AMNE18.jpg,AMSA15.jpg,MS,2,num_8,16,num_8,1.00045961924,,,2017_Jun_29_1450,60.0002309363,FEMA4ImagesEEG,001,200655,
AFNE01.JPG,AFNE01.JPG,AFNE01.JPG,AFNE01.JPG,AFNE01.JPG,AFNE01.JPG,,,,,3,1,31,1,,,,,,,,,,,,,,,,,,,AMSA01.jpg,AMNE11.jpg,AMSA03.jpg,AMNE06.jpg,AMSA01.jpg,MS,2,num_8,32,num_2,0.700115915155,,,2017_Jun_29_1450,60.0002309363,FEMA4ImagesEEG,001,200655,
AFNE01.JPG,AFNE01.JPG,AFNE01.JPG,AFNE01.JPG,AFNE01.JPG,AFNE01.JPG,,,,,3,2,32,5,,,,,,,,,,,,,,,,,,,AMNE12.jpg,AMSA11.jpg,AMNE17.jpg,AMSA08.jpg,AMSA08.jpg,MS,2,num_4,16,num_4,0.850517576822,,,2017_Jun_29_1450,60.0002309363,FEMA4ImagesEEG,001,200655,
AFNE01.JPG,AFNE01.JPG,AFNE01.JPG,AFNE01.JPG,AFNE01.JPG,AFNE01.JPG,,,,,3,3,33,9,,,,,,,,,,,,,,,,,,,AMNE18.jpg,AMNE03.jpg,AMSA11.jpg,AMSA08.jpg,AMSA11.jpg,MS,2,num_2,32,num_4,0.400174738694,,,2017_Jun_29_1450,60.0002309363,FEMA4ImagesEEG,001,200655,
AFNE01.JPG,AFNE01.JPG,AFNE01.JPG,AFNE01.JPG,AFNE01.JPG,AFNE01.JPG,,,,,3,4,34,8,,,,,,,,,,,,,,,,,,,AMNE17.jpg,AMSA05.jpg,AMSA12.jpg,AMNE14.jpg,AMSA12.jpg,MS,2,num_2,16,num_2,1.65045009329,,,2017_Jun_29_1450,60.0002309363,FEMA4ImagesEEG,001,200655,
AFNE01.JPG,AFNE01.JPG,AFNE01.JPG,AFNE01.JPG,AFNE01.JPG,AFNE01.JPG,,,,,3,5,35,7,,,,,,,,,,,,,,,,,,,AMSA17.jpg,AMSA02.jpg,AMNE09.jpg,AMNE07.jpg,AMSA17.jpg,MS,2,num_8,16,num_8,1.91700392394,,,2017_Jun_29_1450,60.0002309363,FEMA4ImagesEEG,001,200655,
AFNE01.JPG,AFNE01.JPG,AFNE01.JPG,AFNE01.JPG,AFNE01.JPG,AFNE01.JPG,,,,,3,6,36,3,,,,,,,,,,,,,,,,,,,AMNE03.jpg,AMSA16.jpg,AMNE06.jpg,AMSA20.jpg,AMNE06.jpg,MN,1,num_2,32,num_6,0.550332317885,,,2017_Jun_29_1450,60.0002309363,FEMA4ImagesEEG,001,200655,
AFNE01.JPG,AFNE01.JPG,AFNE01.JPG,AFNE01.JPG,AFNE01.JPG,AFNE01.JPG,,,,,3,7,37,6,,,,,,,,,,,,,,,,,,,AMSA01.jpg,AMNE20.jpg,AMSA08.jpg,AMNE01.jpg,AMSA08.jpg,MS,2,num_2,32,num_8,0.783465766552,,,2017_Jun_29_1450,60.0002309363,FEMA4ImagesEEG,001,200655,
AFNE01.JPG,AFNE01.JPG,AFNE01.JPG,AFNE01.JPG,AFNE01.JPG,AFNE01.JPG,,,,,3,8,38,2,,,,,,,,,,,,,,,,,,,AMNE09.jpg,AMSA13.jpg,AMNE20.jpg,AMSA12.jpg,AMNE09.jpg,MN,1,num_8,32,num_6,0.783874709014,,,2017_Jun_29_1450,60.0002309363,FEMA4ImagesEEG,001,200655,
AFNE01.JPG,AFNE01.JPG,AFNE01.JPG,AFNE01.JPG,AFNE01.JPG,AFNE01.JPG,,,,,3,9,39,4,,,,,,,,,,,,,,,,,,,AMSA20.jpg,AMSA11.jpg,AMNE08.jpg,AMNE04.jpg,AMNE08.jpg,MN,1,num_2,32,num_4,1.01735231085,,,2017_Jun_29_1450,60.0002309363,FEMA4ImagesEEG,001,200655,
AFNE01.JPG,AFNE01.JPG,AFNE01.JPG,AFNE01.JPG,AFNE01.JPG,AFNE01.JPG,,,,,4,0,40,5,,,,,,,,,,,,,,,,,,,AMSA05.jpg,AMNE02.jpg,AMNE17.jpg,AMSA14.jpg,AMSA14.jpg,MS,2,num_4,16,num_4,1.40044191445,,,2017_Jun_29_1450,60.0002309363,FEMA4ImagesEEG,001,200655,
AFNE01.JPG,AFNE01.JPG,AFNE01.JPG,AFNE01.JPG,AFNE01.JPG,AFNE01.JPG,,,,,4,1,41,1,,,,,,,,,,,,,,,,,,,AMSA03.jpg,AMSA09.jpg,AMNE18.jpg,AMNE07.jpg,AMSA09.jpg,MS,2,num_6,16,num_6,0.616791081411,,,2017_Jun_29_1450,60.0002309363,FEMA4ImagesEEG,001,200655,
AFNE01.JPG,AFNE01.JPG,AFNE01.JPG,AFNE01.JPG,AFNE01.JPG,AFNE01.JPG,,,,,4,2,42,8,,,,,,,,,,,,,,,,,,,AMSA06.jpg,AMSA15.jpg,AMNE10.jpg,AMNE05.jpg,AMSA15.jpg,MS,2,num_6,32,num_8,0.75012139976,,,2017_Jun_29_1450,60.0002309363,FEMA4ImagesEEG,001,200655,
AFNE01.JPG,AFNE01.JPG,AFNE01.JPG,AFNE01.JPG,AFNE01.JPG,AFNE01.JPG,,,,,4,3,43,3,,,,,,,,,,,,,,,,,,,AMNE07.jpg,AMSA11.jpg,AMSA15.jpg,AMNE01.jpg,AMSA15.jpg,MS,2,num_2,32,num_8,0.816639500059,,,2017_Jun_29_1450,60.0002309363,FEMA4ImagesEEG,001,200655,
AFNE01.JPG,AFNE01.JPG,AFNE01.JPG,AFNE01.JPG,AFNE01.JPG,AFNE01.JPG,,,,,4,4,44,2,,,,,,,,,,,,,,,,,,,AMNE07.jpg,AMSA02.jpg,AMSA14.jpg,AMNE06.jpg,AMSA02.jpg,MS,2,num_6,16,num_6,0.650478639087,,,2017_Jun_29_1450,60.0002309363,FEMA4ImagesEEG,001,200655,
AFNE01.JPG,AFNE01.JPG,AFNE01.JPG,AFNE01.JPG,AFNE01.JPG,AFNE01.JPG,,,,,4,5,45,0,,,,,,,,,,,,,,,,,,,AMSA20.jpg,AMSA12.jpg,AMNE09.jpg,AMNE07.jpg,AMSA12.jpg,MS,2,num_6,32,num_8,0.783447484398,,,2017_Jun_29_1450,60.0002309363,FEMA4ImagesEEG,001,200655,
AFNE01.JPG,AFNE01.JPG,AFNE01.JPG,AFNE01.JPG,AFNE01.JPG,AFNE01.JPG,,,,,4,6,46,9,,,,,,,,,,,,,,,,,,,AMNE04.jpg,AMNE10.jpg,AMSA06.jpg,AMSA15.jpg,AMSA15.jpg,MS,2,num_4,16,num_4,1.41635763447,,,2017_Jun_29_1450,60.0002309363,FEMA4ImagesEEG,001,200655,
AFNE01.JPG,AFNE01.JPG,AFNE01.JPG,AFNE01.JPG,AFNE01.JPG,AFNE01.JPG,,,,,4,7,47,6,,,,,,,,,,,,,,,,,,,AMSA01.jpg,AMSA18.jpg,AMNE20.jpg,AMNE11.jpg,AMSA01.jpg,MS,2,num_8,16,num_8,0.717216445686,,,2017_Jun_29_1450,60.0002309363,FEMA4ImagesEEG,001,200655,
AFNE01.JPG,AFNE01.JPG,AFNE01.JPG,AFNE01.JPG,AFNE01.JPG,AFNE01.JPG,,,,,4,8,48,7,,,,,,,,,,,,,,,,,,,AMSA15.jpg,AMSA05.jpg,AMNE01.jpg,AMNE03.jpg,AMSA15.jpg,MS,2,num_8,32,num_6,0.700479954103,,,2017_Jun_29_1450,60.0002309363,FEMA4ImagesEEG,001,200655,
AFNE01.JPG,AFNE01.JPG,AFNE01.JPG,AFNE01.JPG,AFNE01.JPG,AFNE01.JPG,,,,,4,9,49,4,,,,,,,,,,,,,,,,,,,AMNE16.jpg,AMNE03.jpg,AMSA05.jpg,AMSA08.jpg,AMSA08.jpg,MS,2,num_4,32,num_8,0.533799816418,,,2017_Jun_29_1450,60.0002309363,FEMA4ImagesEEG,001,200655,
AFNE01.JPG,AFNE01.JPG,AFNE01.JPG,AFNE01.JPG,AFNE01.JPG,AFNE01.JPG,,,,,5,0,50,9,,,,,,,,,,,,,,,,,,,AMSA17.jpg,AMSA15.jpg,AMNE17.jpg,AMNE01.jpg,AMSA17.jpg,MS,2,num_8,16,num_8,1.97027421277,,,2017_Jun_29_1450,60.0002309363,FEMA4ImagesEEG,001,200655,
AFNE01.JPG,AFNE01.JPG,AFNE01.JPG,AFNE01.JPG,AFNE01.JPG,AFNE01.JPG,,,,,5,1,51,3,,,,,,,,,,,,,,,,,,,AMNE15.jpg,AMNE01.jpg,AMSA10.jpg,AMSA17.jpg,AMNE15.jpg,MN,1,num_8,32,num_6,1.03383670142,,,2017_Jun_29_1450,60.0002309363,FEMA4ImagesEEG,001,200655,
AFNE01.JPG,AFNE01.JPG,AFNE01.JPG,AFNE01.JPG,AFNE01.JPG,AFNE01.JPG,,,,,5,2,52,5,,,,,,,,,,,,,,,,,,,AMSA20.jpg,AMSA01.jpg,AMNE10.jpg,AMNE04.jpg,AMSA01.jpg,MS,2,num_6,16,num_6,0.6001273976,,,2017_Jun_29_1450,60.0002309363,FEMA4ImagesEEG,001,200655,
AFNE01.JPG,AFNE01.JPG,AFNE01.JPG,AFNE01.JPG,AFNE01.JPG,AFNE01.JPG,,,,,5,3,53,1,,,,,,,,,,,,,,,,,,,AMNE09.jpg,AMSA08.jpg,AMNE10.jpg,AMSA07.jpg,AMNE10.jpg,MN,1,num_2,16,num_2,1.3334385358,,,2017_Jun_29_1450,60.0002309363,FEMA4ImagesEEG,001,200655,
AFNE01.JPG,AFNE01.JPG,AFNE01.JPG,AFNE01.JPG,AFNE01.JPG,AFNE01.JPG,,,,,5,4,54,6,,,,,,,,,,,,,,,,,,,AMNE20.jpg,AMNE03.jpg,AMSA03.jpg,AMSA07.jpg,AMSA03.jpg,MS,2,num_2,32,num_6,0.867095623253,,,2017_Jun_29_1450,60.0002309363,FEMA4ImagesEEG,001,200655,
AFNE01.JPG,AFNE01.JPG,AFNE01.JPG,AFNE01.JPG,AFNE01.JPG,AFNE01.JPG,,,,,5,5,55,8,,,,,,,,,,,,,,,,,,,AMSA07.jpg,AMNE02.jpg,AMSA11.jpg,AMNE20.jpg,AMSA11.jpg,MS,2,num_2,16,num_2,0.850070145651,,,2017_Jun_29_1450,60.0002309363,FEMA4ImagesEEG,001,200655,
AFNE01.JPG,AFNE01.JPG,AFNE01.JPG,AFNE01.JPG,AFNE01.JPG,AFNE01.JPG,,,,,5,6,56,2,,,,,,,,,,,,,,,,,,,AMNE01.jpg,AMSA06.jpg,AMNE10.jpg,AMSA18.jpg,AMNE01.jpg,MN,1,num_8,32,num_6,0.483409765497,,,2017_Jun_29_1450,60.0002309363,FEMA4ImagesEEG,001,200655,
AFNE01.JPG,AFNE01.JPG,AFNE01.JPG,AFNE01.JPG,AFNE01.JPG,AFNE01.JPG,,,,,5,7,57,7,,,,,,,,,,,,,,,,,,,AMNE16.jpg,AMSA06.jpg,AMNE08.jpg,AMSA17.jpg,AMSA17.jpg,MS,2,num_4,16,num_4,0.533441871463,,,2017_Jun_29_1450,60.0002309363,FEMA4ImagesEEG,001,200655,
AFNE01.JPG,AFNE01.JPG,AFNE01.JPG,AFNE01.JPG,AFNE01.JPG,AFNE01.JPG,,,,,5,8,58,4,,,,,,,,,,,,,,,,,,,AMNE16.jpg,AMNE06.jpg,AMSA08.jpg,AMSA09.jpg,AMNE16.jpg,MN,1,num_8,16,num_8,0.950426230294,,,2017_Jun_29_1450,60.0002309363,FEMA4ImagesEEG,001,200655,
AFNE01.JPG,AFNE01.JPG,AFNE01.JPG,AFNE01.JPG,AFNE01.JPG,AFNE01.JPG,,,,,5,9,59,0,,,,,,,,,,,,,,,,,,,AMSA17.jpg,AMSA02.jpg,AMNE16.jpg,AMNE12.jpg,AMSA17.jpg,MS,2,num_8,16,num_8,0.48348866732,,,2017_Jun_29_1450,60.0002309363,FEMA4ImagesEEG,001,200655,
,,,,,,,,,,,,,,,,,,,,,,,,,,,,,,,,,,,,,,,,,,,space,4.91689743852,2017_Jun_29_1450,60.0002309363,FEMA4ImagesEEG,001,200655,
AFNE01.JPG,AFNE01.JPG,AFNE01.JPG,AFNE01.JPG,AFNE01.JPG,AFNE01.JPG,,,,,,,,,0,0,0,1,,,,,,,,,,,,,,,AFNE18.jpg,AFSA11.jpg,AFSA04.jpg,AFNE19.jpg,AFSA04.jpg,FS,4,num_2,32,num_8,0.800533902453,,,2017_Jun_29_1450,60.0002309363,FEMA4ImagesEEG,001,200655,
AFNE01.JPG,AFNE01.JPG,AFNE01.JPG,AFNE01.JPG,AFNE01.JPG,AFNE01.JPG,,,,,,,,,0,1,1,4,,,,,,,,,,,,,,,AFNE17.jpg,AFSA04.jpg,AFNE01.jpg,AFSA09.jpg,AFNE17.jpg,FN,3,num_8,32,num_4,0.850376130838,,,2017_Jun_29_1450,60.0002309363,FEMA4ImagesEEG,001,200655,
AFNE01.JPG,AFNE01.JPG,AFNE01.JPG,AFNE01.JPG,AFNE01.JPG,AFNE01.JPG,,,,,,,,,0,2,2,8,,,,,,,,,,,,,,,AFNE10.jpg,AFNE03.jpg,AFSA04.jpg,AFSA10.jpg,AFSA04.jpg,FS,4,num_2,16,num_2,0.650474148744,,,2017_Jun_29_1450,60.0002309363,FEMA4ImagesEEG,001,200655,
AFNE01.JPG,AFNE01.JPG,AFNE01.JPG,AFNE01.JPG,AFNE01.JPG,AFNE01.JPG,,,,,,,,,0,3,3,0,,,,,,,,,,,,,,,AFSA04.jpg,AFNE06.jpg,AFNE01.jpg,AFSA03.jpg,AFSA03.jpg,FS,4,num_4,16,num_4,1.01707487143,,,2017_Jun_29_1450,60.0002309363,FEMA4ImagesEEG,001,200655,
AFNE01.JPG,AFNE01.JPG,AFNE01.JPG,AFNE01.JPG,AFNE01.JPG,AFNE01.JPG,,,,,,,,,0,4,4,2,,,,,,,,,,,,,,,AFNE01.jpg,AFNE15.jpg,AFSA15.jpg,AFSA18.jpg,AFNE01.jpg,FN,3,num_8,16,num_8,0.916713013488,,,2017_Jun_29_1450,60.0002309363,FEMA4ImagesEEG,001,200655,
AFNE01.JPG,AFNE01.JPG,AFNE01.JPG,AFNE01.JPG,AFNE01.JPG,AFNE01.JPG,,,,,,,,,0,5,5,6,,,,,,,,,,,,,,,AFNE14.jpg,AFSA19.jpg,AFNE01.jpg,AFSA15.jpg,AFSA19.jpg,FS,4,num_6,32,num_2,1.50010552318,,,2017_Jun_29_1450,60.0002309363,FEMA4ImagesEEG,001,200655,
AFNE01.JPG,AFNE01.JPG,AFNE01.JPG,AFNE01.JPG,AFNE01.JPG,AFNE01.JPG,,,,,,,,,0,6,6,7,,,,,,,,,,,,,,,AFNE09.jpg,AFSA06.jpg,AFSA02.jpg,AFNE04.jpg,AFSA02.jpg,FS,4,num_2,32,num_4,1.90008589395,,,2017_Jun_29_1450,60.0002309363,FEMA4ImagesEEG,001,200655,
AFNE01.JPG,AFNE01.JPG,AFNE01.JPG,AFNE01.JPG,AFNE01.JPG,AFNE01.JPG,,,,,,,,,0,7,7,3,,,,,,,,,,,,,,,AFNE13.jpg,AFSA14.jpg,AFSA13.jpg,AFNE17.jpg,AFSA13.jpg,FS,4,num_2,32,num_6,0.833633865957,,,2017_Jun_29_1450,60.0002309363,FEMA4ImagesEEG,001,200655,
AFNE01.JPG,AFNE01.JPG,AFNE01.JPG,AFNE01.JPG,AFNE01.JPG,AFNE01.JPG,,,,,,,,,0,8,8,9,,,,,,,,,,,,,,,AFNE20.jpg,AFNE11.jpg,AFSA14.jpg,AFSA03.jpg,AFSA03.jpg,FS,4,num_4,16,num_4,0.400234396191,,,2017_Jun_29_1450,60.0002309363,FEMA4ImagesEEG,001,200655,
AFNE01.JPG,AFNE01.JPG,AFNE01.JPG,AFNE01.JPG,AFNE01.JPG,AFNE01.JPG,,,,,,,,,0,9,9,5,,,,,,,,,,,,,,,AFNE13.jpg,AFNE16.jpg,AFSA15.jpg,AFSA09.jpg,AFSA09.jpg,FS,4,num_4,16,num_4,0.850400827767,,,2017_Jun_29_1450,60.0002309363,FEMA4ImagesEEG,001,200655,
AFNE01.JPG,AFNE01.JPG,AFNE01.JPG,AFNE01.JPG,AFNE01.JPG,AFNE01.JPG,,,,,,,,,1,0,10,4,,,,,,,,,,,,,,,AFNE07.jpg,AFSA05.jpg,AFSA16.jpg,AFNE08.jpg,AFSA16.jpg,FS,4,num_2,32,num_6,1.01719771454,,,2017_Jun_29_1450,60.0002309363,FEMA4ImagesEEG,001,200655,
AFNE01.JPG,AFNE01.JPG,AFNE01.JPG,AFNE01.JPG,AFNE01.JPG,AFNE01.JPG,,,,,,,,,1,1,11,8,,,,,,,,,,,,,,,AFNE20.jpg,AFNE04.jpg,AFSA19.jpg,AFSA15.jpg,AFSA15.jpg,FS,4,num_4,32,num_8,0.750646449858,,,2017_Jun_29_1450,60.0002309363,FEMA4ImagesEEG,001,200655,
AFNE01.JPG,AFNE01.JPG,AFNE01.JPG,AFNE01.JPG,AFNE01.JPG,AFNE01.JPG,,,,,,,,,1,2,12,5,,,,,,,,,,,,,,,AFSA07.jpg,AFNE20.jpg,AFNE16.jpg,AFSA18.jpg,AFSA07.jpg,FS,4,num_8,32,num_4,0.717169297044,,,2017_Jun_29_1450,60.0002309363,FEMA4ImagesEEG,001,200655,
AFNE01.JPG,AFNE01.JPG,AFNE01.JPG,AFNE01.JPG,AFNE01.JPG,AFNE01.JPG,,,,,,,,,1,3,13,3,,,,,,,,,,,,,,,AFNE07.jpg,AFNE18.jpg,AFSA01.jpg,AFSA15.jpg,AFSA15.jpg,FS,4,num_4,16,num_4,0.566582889587,,,2017_Jun_29_1450,60.0002309363,FEMA4ImagesEEG,001,200655,
AFNE01.JPG,AFNE01.JPG,AFNE01.JPG,AFNE01.JPG,AFNE01.JPG,AFNE01.JPG,,,,,,,,,1,4,14,6,,,,,,,,,,,,,,,AFSA11.jpg,AFSA02.jpg,AFNE12.jpg,AFNE01.jpg,AFSA11.jpg,FS,4,num_8,32,num_4,0.666547351691,,,2017_Jun_29_1450,60.0002309363,FEMA4ImagesEEG,001,200655,
AFNE01.JPG,AFNE01.JPG,AFNE01.JPG,AFNE01.JPG,AFNE01.JPG,AFNE01.JPG,,,,,,,,,1,5,15,2,,,,,,,,,,,,,,,AFNE17.jpg,AFSA11.jpg,AFNE10.jpg,AFSA12.jpg,AFSA11.jpg,FS,4,num_6,32,num_8,0.850494483602,,,2017_Jun_29_1450,60.0002309363,FEMA4ImagesEEG,001,200655,
AFNE01.JPG,AFNE01.JPG,AFNE01.JPG,AFNE01.JPG,AFNE01.JPG,AFNE01.JPG,,,,,,,,,1,6,16,9,,,,,,,,,,,,,,,AFNE08.jpg,AFSA13.jpg,AFSA14.jpg,AFNE19.jpg,AFSA14.jpg,FS,4,num_2,32,num_6,0.867419890594,,,2017_Jun_29_1450,60.0002309363,FEMA4ImagesEEG,001,200655,
AFNE01.JPG,AFNE01.JPG,AFNE01.JPG,AFNE01.JPG,AFNE01.JPG,AFNE01.JPG,,,,,,,,,1,7,17,0,,,,,,,,,,,,,,,AFNE06.jpg,AFSA09.jpg,AFSA01.jpg,AFNE14.jpg,AFSA01.jpg,FS,4,num_2,32,num_6,0.750160209223,,,2017_Jun_29_1450,60.0002309363,FEMA4ImagesEEG,001,200655,
AFNE01.JPG,AFNE01.JPG,AFNE01.JPG,AFNE01.JPG,AFNE01.JPG,AFNE01.JPG,,,,,,,,,1,8,18,7,,,,,,,,,,,,,,,AFSA17.jpg,AFNE11.jpg,AFSA10.jpg,AFNE19.jpg,AFSA10.jpg,FS,4,num_2,16,num_2,1.00013182382,,,2017_Jun_29_1450,60.0002309363,FEMA4ImagesEEG,001,200655,
AFNE01.JPG,AFNE01.JPG,AFNE01.JPG,AFNE01.JPG,AFNE01.JPG,AFNE01.JPG,,,,,,,,,1,9,19,1,,,,,,,,,,,,,,,AFNE16.jpg,AFSA10.jpg,AFNE09.jpg,AFSA04.jpg,AFSA10.jpg,FS,4,num_6,16,num_6,0.867127697158,,,2017_Jun_29_1450,60.0002309363,FEMA4ImagesEEG,001,200655,
AFNE01.JPG,AFNE01.JPG,AFNE01.JPG,AFNE01.JPG,AFNE01.JPG,AFNE01.JPG,,,,,,,,,2,0,20,1,,,,,,,,,,,,,,,AFSA02.jpg,AFSA19.jpg,AFNE17.jpg,AFNE09.jpg,AFSA02.jpg,FS,4,num_8,32,num_6,0.600524793466,,,2017_Jun_29_1450,60.0002309363,FEMA4ImagesEEG,001,200655,
AFNE01.JPG,AFNE01.JPG,AFNE01.JPG,AFNE01.JPG,AFNE01.JPG,AFNE01.JPG,,,,,,,,,2,1,21,2,,,,,,,,,,,,,,,AFNE17.jpg,AFSA01.jpg,AFNE20.jpg,AFSA14.jpg,AFNE20.jpg,FN,3,num_2,32,num_8,0.500541087007,,,2017_Jun_29_1450,60.0002309363,FEMA4ImagesEEG,001,200655,
AFNE01.JPG,AFNE01.JPG,AFNE01.JPG,AFNE01.JPG,AFNE01.JPG,AFNE01.JPG,,,,,,,,,2,2,22,7,,,,,,,,,,,,,,,AFSA14.jpg,AFNE20.jpg,AFSA13.jpg,AFNE06.jpg,AFSA13.jpg,FS,4,num_2,32,num_8,0.866708811809,,,2017_Jun_29_1450,60.0002309363,FEMA4ImagesEEG,001,200655,
AFNE01.JPG,AFNE01.JPG,AFNE01.JPG,AFNE01.JPG,AFNE01.JPG,AFNE01.JPG,,,,,,,,,2,3,23,3,,,,,,,,,,,,,,,AFSA10.jpg,AFNE04.jpg,AFSA07.jpg,AFNE20.jpg,AFNE20.jpg,FN,3,num_4,32,num_6,0.583937124873,,,2017_Jun_29_1450,60.0002309363,FEMA4ImagesEEG,001,200655,
AFNE01.JPG,AFNE01.JPG,AFNE01.JPG,AFNE01.JPG,AFNE01.JPG,AFNE01.JPG,,,,,,,,,2,4,24,8,,,,,,,,,,,,,,,AFSA20.jpg,AFNE10.jpg,AFNE16.jpg,AFSA14.jpg,AFSA20.jpg,FS,4,num_8,16,num_8,0.583805301052,,,2017_Jun_29_1450,60.0002309363,FEMA4ImagesEEG,001,200655,
AFNE01.JPG,AFNE01.JPG,AFNE01.JPG,AFNE01.JPG,AFNE01.JPG,AFNE01.JPG,,,,,,,,,2,5,25,0,,,,,,,,,,,,,,,AFSA20.jpg,AFSA18.jpg,AFNE09.jpg,AFNE15.jpg,AFSA18.jpg,FS,4,num_6,32,num_8,0.633846708486,,,2017_Jun_29_1450,60.0002309363,FEMA4ImagesEEG,001,200655,
AFNE01.JPG,AFNE01.JPG,AFNE01.JPG,AFNE01.JPG,AFNE01.JPG,AFNE01.JPG,,,,,,,,,2,6,26,9,,,,,,,,,,,,,,,AFNE15.jpg,AFSA17.jpg,AFNE04.jpg,AFSA18.jpg,AFSA18.jpg,FS,4,num_4,32,num_6,0.717037152499,,,2017_Jun_29_1450,60.0002309363,FEMA4ImagesEEG,001,200655,
AFNE01.JPG,AFNE01.JPG,AFNE01.JPG,AFNE01.JPG,AFNE01.JPG,AFNE01.JPG,,,,,,,,,2,7,27,6,,,,,,,,,,,,,,,AFNE10.jpg,AFNE01.jpg,AFSA10.jpg,AFSA13.jpg,AFNE01.jpg,FN,3,num_6,32,num_4,0.967116856191,,,2017_Jun_29_1450,60.0002309363,FEMA4ImagesEEG,001,200655,
AFNE01.JPG,AFNE01.JPG,AFNE01.JPG,AFNE01.JPG,AFNE01.JPG,AFNE01.JPG,,,,,,,,,2,8,28,4,,,,,,,,,,,,,,,AFNE03.jpg,AFNE16.jpg,AFSA08.jpg,AFSA03.jpg,AFNE16.jpg,FN,3,num_6,16,num_6,0.733793529915,,,2017_Jun_29_1450,60.0002309363,FEMA4ImagesEEG,001,200655,
AFNE01.JPG,AFNE01.JPG,AFNE01.JPG,AFNE01.JPG,AFNE01.JPG,AFNE01.JPG,,,,,,,,,2,9,29,5,,,,,,,,,,,,,,,AFNE07.jpg,AFNE19.jpg,AFSA08.jpg,AFSA17.jpg,AFSA08.jpg,FS,4,num_2,32,num_4,1.16664293199,,,2017_Jun_29_1450,60.0002309363,FEMA4ImagesEEG,001,200655,
AFNE01.JPG,AFNE01.JPG,AFNE01.JPG,AFNE01.JPG,AFNE01.JPG,AFNE01.JPG,,,,,,,,,3,0,30,2,,,,,,,,,,,,,,,AFSA14.jpg,AFSA03.jpg,AFNE10.jpg,AFNE16.jpg,AFSA03.jpg,FS,4,num_6,32,num_8,0.650538296584,,,2017_Jun_29_1450,60.0002309363,FEMA4ImagesEEG,001,200655,
AFNE01.JPG,AFNE01.JPG,AFNE01.JPG,AFNE01.JPG,AFNE01.JPG,AFNE01.JPG,,,,,,,,,3,1,31,1,,,,,,,,,,,,,,,AFSA07.jpg,AFNE20.jpg,AFSA02.jpg,AFNE05.jpg,AFSA02.jpg,FS,4,num_2,32,num_6,0.717163523746,,,2017_Jun_29_1450,60.0002309363,FEMA4ImagesEEG,001,200655,
AFNE01.JPG,AFNE01.JPG,AFNE01.JPG,AFNE01.JPG,AFNE01.JPG,AFNE01.JPG,,,,,,,,,3,2,32,8,,,,,,,,,,,,,,,AFSA12.jpg,AFNE14.jpg,AFNE17.jpg,AFSA09.jpg,AFSA12.jpg,FS,4,num_8,16,num_8,0.783420542313,,,2017_Jun_29_1450,60.0002309363,FEMA4ImagesEEG,001,200655,
AFNE01.JPG,AFNE01.JPG,AFNE01.JPG,AFNE01.JPG,AFNE01.JPG,AFNE01.JPG,,,,,,,,,3,3,33,0,,,,,,,,,,,,,,,AFSA13.jpg,AFSA16.jpg,AFNE13.jpg,AFNE17.jpg,AFSA16.jpg,FS,4,num_6,32,num_2,0.966732289904,,,2017_Jun_29_1450,60.0002309363,FEMA4ImagesEEG,001,200655,
AFNE01.JPG,AFNE01.JPG,AFNE01.JPG,AFNE01.JPG,AFNE01.JPG,AFNE01.JPG,,,,,,,,,3,4,34,4,,,,,,,,,,,,,,,AFNE11.jpg,AFSA10.jpg,AFNE19.jpg,AFSA16.jpg,AFNE19.jpg,FN,3,num_2,32,num_8,0.600467381155,,,2017_Jun_29_1450,60.0002309363,FEMA4ImagesEEG,001,200655,
AFNE01.JPG,AFNE01.JPG,AFNE01.JPG,AFNE01.JPG,AFNE01.JPG,AFNE01.JPG,,,,,,,,,3,5,35,9,,,,,,,,,,,,,,,AFSA05.jpg,AFSA01.jpg,AFNE16.jpg,AFNE13.jpg,AFSA05.jpg,FS,4,num_8,16,num_8,0.616848814447,,,2017_Jun_29_1450,60.0002309363,FEMA4ImagesEEG,001,200655,
AFNE01.JPG,AFNE01.JPG,AFNE01.JPG,AFNE01.JPG,AFNE01.JPG,AFNE01.JPG,,,,,,,,,3,6,36,3,,,,,,,,,,,,,,,AFSA19.jpg,AFNE05.jpg,AFNE16.jpg,AFSA05.jpg,AFNE05.jpg,FN,3,num_6,16,num_6,1.08338834011,,,2017_Jun_29_1450,60.0002309363,FEMA4ImagesEEG,001,200655,
AFNE01.JPG,AFNE01.JPG,AFNE01.JPG,AFNE01.JPG,AFNE01.JPG,AFNE01.JPG,,,,,,,,,3,7,37,6,,,,,,,,,,,,,,,AFSA01.jpg,AFSA08.jpg,AFNE15.jpg,AFNE01.jpg,AFSA08.jpg,FS,4,num_6,16,num_6,1.31680468074,,,2017_Jun_29_1450,60.0002309363,FEMA4ImagesEEG,001,200655,
AFNE01.JPG,AFNE01.JPG,AFNE01.JPG,AFNE01.JPG,AFNE01.JPG,AFNE01.JPG,,,,,,,,,3,8,38,5,,,,,,,,,,,,,,,AFSA16.jpg,AFSA08.jpg,AFNE02.jpg,AFNE10.jpg,AFNE02.jpg,FN,3,num_2,16,num_2,1.40000410547,,,2017_Jun_29_1450,60.0002309363,FEMA4ImagesEEG,001,200655,
AFNE01.JPG,AFNE01.JPG,AFNE01.JPG,AFNE01.JPG,AFNE01.JPG,AFNE01.JPG,,,,,,,,,3,9,39,7,,,,,,,,,,,,,,,AFNE09.jpg,AFSA13.jpg,AFSA14.jpg,AFNE13.jpg,AFSA14.jpg,FS,4,num_2,32,num_8,0.60049688915,,,2017_Jun_29_1450,60.0002309363,FEMA4ImagesEEG,001,200655,
AFNE01.JPG,AFNE01.JPG,AFNE01.JPG,AFNE01.JPG,AFNE01.JPG,AFNE01.JPG,,,,,,,,,4,0,40,2,,,,,,,,,,,,,,,AFNE16.jpg,AFSA12.jpg,AFSA14.jpg,AFNE01.jpg,AFNE16.jpg,FN,3,num_8,32,num_2,0.950321990065,,,2017_Jun_29_1450,60.0002309363,FEMA4ImagesEEG,001,200655,
AFNE01.JPG,AFNE01.JPG,AFNE01.JPG,AFNE01.JPG,AFNE01.JPG,AFNE01.JPG,,,,,,,,,4,1,41,8,,,,,,,,,,,,,,,AFNE09.jpg,AFNE11.jpg,AFSA16.jpg,AFSA17.jpg,AFSA17.jpg,FS,4,num_4,16,num_4,0.900235358422,,,2017_Jun_29_1450,60.0002309363,FEMA4ImagesEEG,001,200655,
AFNE01.JPG,AFNE01.JPG,AFNE01.JPG,AFNE01.JPG,AFNE01.JPG,AFNE01.JPG,,,,,,,,,4,2,42,1,,,,,,,,,,,,,,,AFSA15.jpg,AFNE06.jpg,AFSA12.jpg,AFNE14.jpg,AFNE14.jpg,FN,3,num_4,32,num_8,0.683781630505,,,2017_Jun_29_1450,60.0002309363,FEMA4ImagesEEG,001,200655,
AFNE01.JPG,AFNE01.JPG,AFNE01.JPG,AFNE01.JPG,AFNE01.JPG,AFNE01.JPG,,,,,,,,,4,3,43,5,,,,,,,,,,,,,,,AFSA20.jpg,AFNE14.jpg,AFNE13.jpg,AFSA09.jpg,AFSA20.jpg,FS,4,num_8,16,num_8,0.900469177286,,,2017_Jun_29_1450,60.0002309363,FEMA4ImagesEEG,001,200655,
AFNE01.JPG,AFNE01.JPG,AFNE01.JPG,AFNE01.JPG,AFNE01.JPG,AFNE01.JPG,,,,,,,,,4,4,44,6,,,,,,,,,,,,,,,AFSA14.jpg,AFNE20.jpg,AFSA04.jpg,AFNE09.jpg,AFNE20.jpg,FN,3,num_6,32,num_4,0.950531753508,,,2017_Jun_29_1450,60.0002309363,FEMA4ImagesEEG,001,200655,
AFNE01.JPG,AFNE01.JPG,AFNE01.JPG,AFNE01.JPG,AFNE01.JPG,AFNE01.JPG,,,,,,,,,4,5,45,7,,,,,,,,,,,,,,,AFSA09.jpg,AFSA11.jpg,AFNE04.jpg,AFNE06.jpg,AFNE04.jpg,FN,3,num_2,16,num_2,1.4834950821,,,2017_Jun_29_1450,60.0002309363,FEMA4ImagesEEG,001,200655,
AFNE01.JPG,AFNE01.JPG,AFNE01.JPG,AFNE01.JPG,AFNE01.JPG,AFNE01.JPG,,,,,,,,,4,6,46,3,,,,,,,,,,,,,,,AFSA20.jpg,AFNE15.jpg,AFNE05.jpg,AFSA11.jpg,AFSA11.jpg,FS,4,num_4,16,num_4,0.75045496854,,,2017_Jun_29_1450,60.0002309363,FEMA4ImagesEEG,001,200655,
AFNE01.JPG,AFNE01.JPG,AFNE01.JPG,AFNE01.JPG,AFNE01.JPG,AFNE01.JPG,,,,,,,,,4,7,47,0,,,,,,,,,,,,,,,AFSA06.jpg,AFSA16.jpg,AFNE14.jpg,AFNE20.jpg,AFSA16.jpg,FS,4,num_6,32,num_8,1.18385957013,,,2017_Jun_29_1450,60.0002309363,FEMA4ImagesEEG,001,200655,
AFNE01.JPG,AFNE01.JPG,AFNE01.JPG,AFNE01.JPG,AFNE01.JPG,AFNE01.JPG,,,,,,,,,4,8,48,9,,,,,,,,,,,,,,,AFNE18.jpg,AFSA15.jpg,AFNE03.jpg,AFSA12.jpg,AFNE03.jpg,FN,3,num_2,32,num_8,0.950076624606,,,2017_Jun_29_1450,60.0002309363,FEMA4ImagesEEG,001,200655,
AFNE01.JPG,AFNE01.JPG,AFNE01.JPG,AFNE01.JPG,AFNE01.JPG,AFNE01.JPG,,,,,,,,,4,9,49,4,,,,,,,,,,,,,,,AFSA02.jpg,AFNE13.jpg,AFNE14.jpg,AFSA15.jpg,AFSA15.jpg,FS,4,num_4,16,num_4,0.983829292323,,,2017_Jun_29_1450,60.0002309363,FEMA4ImagesEEG,001,200655,
AFNE01.JPG,AFNE01.JPG,AFNE01.JPG,AFNE01.JPG,AFNE01.JPG,AFNE01.JPG,,,,,,,,,5,0,50,3,,,,,,,,,,,,,,,AFSA17.jpg,AFSA01.jpg,AFNE08.jpg,AFNE05.jpg,AFNE05.jpg,FN,3,num_4,32,num_6,0.76673793493,,,2017_Jun_29_1450,60.0002309363,FEMA4ImagesEEG,001,200655,
AFNE01.JPG,AFNE01.JPG,AFNE01.JPG,AFNE01.JPG,AFNE01.JPG,AFNE01.JPG,,,,,,,,,5,1,51,8,,,,,,,,,,,,,,,AFSA19.jpg,AFNE03.jpg,AFSA15.jpg,AFNE01.jpg,AFNE03.jpg,FN,3,num_6,32,num_4,0.933494408557,,,2017_Jun_29_1450,60.0002309363,FEMA4ImagesEEG,001,200655,
AFNE01.JPG,AFNE01.JPG,AFNE01.JPG,AFNE01.JPG,AFNE01.JPG,AFNE01.JPG,,,,,,,,,5,2,52,2,,,,,,,,,,,,,,,AFSA17.jpg,AFNE16.jpg,AFNE19.jpg,AFSA01.jpg,AFNE19.jpg,FN,3,num_2,32,num_6,1.0000426583,,,2017_Jun_29_1450,60.0002309363,FEMA4ImagesEEG,001,200655,
AFNE01.JPG,AFNE01.JPG,AFNE01.JPG,AFNE01.JPG,AFNE01.JPG,AFNE01.JPG,,,,,,,,,5,3,53,9,,,,,,,,,,,,,,,AFNE04.jpg,AFNE07.jpg,AFSA02.jpg,AFSA20.jpg,AFSA02.jpg,FS,4,num_2,32,num_6,0.683011214976,,,2017_Jun_29_1450,60.0002309363,FEMA4ImagesEEG,001,200655,
AFNE01.JPG,AFNE01.JPG,AFNE01.JPG,AFNE01.JPG,AFNE01.JPG,AFNE01.JPG,,,,,,,,,5,4,54,1,,,,,,,,,,,,,,,AFSA12.jpg,AFNE10.jpg,AFNE20.jpg,AFSA16.jpg,AFSA16.jpg,FS,4,num_4,16,num_4,0.783752828109,,,2017_Jun_29_1450,60.0002309363,FEMA4ImagesEEG,001,200655,
AFNE01.JPG,AFNE01.JPG,AFNE01.JPG,AFNE01.JPG,AFNE01.JPG,AFNE01.JPG,,,,,,,,,5,5,55,0,,,,,,,,,,,,,,,AFNE12.jpg,AFNE09.jpg,AFSA09.jpg,AFSA16.jpg,AFNE09.jpg,FN,3,num_6,16,num_6,0.867137960828,,,2017_Jun_29_1450,60.0002309363,FEMA4ImagesEEG,001,200655,
AFNE01.JPG,AFNE01.JPG,AFNE01.JPG,AFNE01.JPG,AFNE01.JPG,AFNE01.JPG,,,,,,,,,5,6,56,6,,,,,,,,,,,,,,,AFSA01.jpg,AFSA18.jpg,AFNE09.jpg,AFNE11.jpg,AFNE09.jpg,FN,3,num_2,32,num_6,0.916739955574,,,2017_Jun_29_1450,60.0002309363,FEMA4ImagesEEG,001,200655,
AFNE01.JPG,AFNE01.JPG,AFNE01.JPG,AFNE01.JPG,AFNE01.JPG,AFNE01.JPG,,,,,,,,,5,7,57,7,,,,,,,,,,,,,,,AFNE11.jpg,AFNE12.jpg,AFSA02.jpg,AFSA18.jpg,AFSA02.jpg,FS,4,num_2,32,num_8,0.933854919422,,,2017_Jun_29_1450,60.0002309363,FEMA4ImagesEEG,001,200655,
AFNE01.JPG,AFNE01.JPG,AFNE01.JPG,AFNE01.JPG,AFNE01.JPG,AFNE01.JPG,,,,,,,,,5,8,58,5,,,,,,,,,,,,,,,AFSA03.jpg,AFNE05.jpg,AFNE19.jpg,AFSA09.jpg,AFNE19.jpg,FN,3,num_2,32,num_6,0.516746755224,,,2017_Jun_29_1450,60.0002309363,FEMA4ImagesEEG,001,200655,
AFNE01.JPG,AFNE01.JPG,AFNE01.JPG,AFNE01.JPG,AFNE01.JPG,AFNE01.JPG,,,,,,,,,5,9,59,4,,,,,,,,,,,,,,,AFNE03.jpg,AFSA19.jpg,AFSA02.jpg,AFNE15.jpg,AFSA02.jpg,FS,4,num_2,32,num_6,0.666710287187,,,2017_Jun_29_1450,60.0002309363,FEMA4ImagesEEG,001,200655,
,,,,,,,,,,,,,,,,,,,,,,,,,,,,,,,,,,,,,,,,,,,space,6.11628655865,2017_Jun_29_1450,60.0002309363,FEMA4ImagesEEG,001,200655,
AFNE01.JPG,AFNE01.JPG,AFNE01.JPG,AFNE01.JPG,AFNE01.JPG,AFNE01.JPG,,,,,,,,,,,,,0,0,0,9,,,,,,,,,,,AMNE10.jpg,AMSA12.jpg,AMNE13.jpg,AMSA18.jpg,AMNE13.jpg,MN,1,num_2,32,num_8,1.05006995323,,,2017_Jun_29_1450,60.0002309363,FEMA4ImagesEEG,001,200655,
AFNE01.JPG,AFNE01.JPG,AFNE01.JPG,AFNE01.JPG,AFNE01.JPG,AFNE01.JPG,,,,,,,,,,,,,0,1,1,5,,,,,,,,,,,AMNE17.jpg,AMSA06.jpg,AMNE05.jpg,AMSA12.jpg,AMNE05.jpg,MN,1,num_2,32,num_6,0.800112451165,,,2017_Jun_29_1450,60.0002309363,FEMA4ImagesEEG,001,200655,
AFNE01.JPG,AFNE01.JPG,AFNE01.JPG,AFNE01.JPG,AFNE01.JPG,AFNE01.JPG,,,,,,,,,,,,,0,2,2,6,,,,,,,,,,,AMNE01.jpg,AMSA16.jpg,AMNE13.jpg,AMSA06.jpg,AMNE01.jpg,MN,1,num_8,32,num_6,0.633742147504,,,2017_Jun_29_1450,60.0002309363,FEMA4ImagesEEG,001,200655,
AFNE01.JPG,AFNE01.JPG,AFNE01.JPG,AFNE01.JPG,AFNE01.JPG,AFNE01.JPG,,,,,,,,,,,,,0,3,3,0,,,,,,,,,,,AMNE04.jpg,AMSA09.jpg,AMSA07.jpg,AMNE11.jpg,AMSA07.jpg,MS,2,num_2,16,num_2,1.53298353517,,,2017_Jun_29_1450,60.0002309363,FEMA4ImagesEEG,001,200655,
AFNE01.JPG,AFNE01.JPG,AFNE01.JPG,AFNE01.JPG,AFNE01.JPG,AFNE01.JPG,,,,,,,,,,,,,0,4,4,7,,,,,,,,,,,AMSA20.jpg,AMNE15.jpg,AMSA01.jpg,AMNE16.jpg,AMNE16.jpg,MN,1,num_4,16,num_4,0.817077950516,,,2017_Jun_29_1450,60.0002309363,FEMA4ImagesEEG,001,200655,
AFNE01.JPG,AFNE01.JPG,AFNE01.JPG,AFNE01.JPG,AFNE01.JPG,AFNE01.JPG,,,,,,,,,,,,,0,5,5,3,,,,,,,,,,,AMSA14.jpg,AMSA02.jpg,AMNE20.jpg,AMNE18.jpg,AMSA14.jpg,MS,2,num_8,16,num_8,1.28346448357,,,2017_Jun_29_1450,60.0002309363,FEMA4ImagesEEG,001,200655,
AFNE01.JPG,AFNE01.JPG,AFNE01.JPG,AFNE01.JPG,AFNE01.JPG,AFNE01.JPG,,,,,,,,,,,,,0,6,6,1,,,,,,,,,,,AMSA06.jpg,AMNE04.jpg,AMNE06.jpg,AMSA01.jpg,AMSA01.jpg,MS,2,num_4,16,num_4,0.550547213148,,,2017_Jun_29_1450,60.0002309363,FEMA4ImagesEEG,001,200655,
AFNE01.JPG,AFNE01.JPG,AFNE01.JPG,AFNE01.JPG,AFNE01.JPG,AFNE01.JPG,,,,,,,,,,,,,0,7,7,8,,,,,,,,,,,AMNE14.jpg,AMSA14.jpg,AMNE01.jpg,AMSA09.jpg,AMNE14.jpg,MN,1,num_8,16,num_8,0.900512156339,,,2017_Jun_29_1450,60.0002309363,FEMA4ImagesEEG,001,200655,
AFNE01.JPG,AFNE01.JPG,AFNE01.JPG,AFNE01.JPG,AFNE01.JPG,AFNE01.JPG,,,,,,,,,,,,,0,8,8,2,,,,,,,,,,,AMSA12.jpg,AMNE19.jpg,AMNE07.jpg,AMSA04.jpg,AMSA04.jpg,MS,2,num_4,16,num_4,1.03379725051,,,2017_Jun_29_1450,60.0002309363,FEMA4ImagesEEG,001,200655,
AFNE01.JPG,AFNE01.JPG,AFNE01.JPG,AFNE01.JPG,AFNE01.JPG,AFNE01.JPG,,,,,,,,,,,,,0,9,9,4,,,,,,,,,,,AMSA04.jpg,AMSA14.jpg,AMNE04.jpg,AMNE18.jpg,AMSA04.jpg,MS,2,num_8,16,num_8,0.950147507945,,,2017_Jun_29_1450,60.0002309363,FEMA4ImagesEEG,001,200655,
AFNE01.JPG,AFNE01.JPG,AFNE01.JPG,AFNE01.JPG,AFNE01.JPG,AFNE01.JPG,,,,,,,,,,,,,1,0,10,9,,,,,,,,,,,AMNE03.jpg,AMNE11.jpg,AMSA04.jpg,AMSA06.jpg,AMNE11.jpg,MN,1,num_6,16,num_6,0.467205059453,,,2017_Jun_29_1450,60.0002309363,FEMA4ImagesEEG,001,200655,
AFNE01.JPG,AFNE01.JPG,AFNE01.JPG,AFNE01.JPG,AFNE01.JPG,AFNE01.JPG,,,,,,,,,,,,,1,1,11,5,,,,,,,,,,,AMNE10.jpg,AMSA15.jpg,AMSA20.jpg,AMNE05.jpg,AMNE10.jpg,MN,1,num_8,16,num_8,0.967042765435,,,2017_Jun_29_1450,60.0002309363,FEMA4ImagesEEG,001,200655,
AFNE01.JPG,AFNE01.JPG,AFNE01.JPG,AFNE01.JPG,AFNE01.JPG,AFNE01.JPG,,,,,,,,,,,,,1,2,12,3,,,,,,,,,,,AMSA20.jpg,AMNE06.jpg,AMSA18.jpg,AMNE10.jpg,AMNE10.jpg,MN,1,num_4,32,num_6,0.700042145123,,,2017_Jun_29_1450,60.0002309363,FEMA4ImagesEEG,001,200655,
AFNE01.JPG,AFNE01.JPG,AFNE01.JPG,AFNE01.JPG,AFNE01.JPG,AFNE01.JPG,,,,,,,,,,,,,1,3,13,8,,,,,,,,,,,AMNE11.jpg,AMNE15.jpg,AMSA16.jpg,AMSA07.jpg,AMNE15.jpg,MN,1,num_6,16,num_6,0.568526248331,,,2017_Jun_29_1450,60.0002309363,FEMA4ImagesEEG,001,200655,
AFNE01.JPG,AFNE01.JPG,AFNE01.JPG,AFNE01.JPG,AFNE01.JPG,AFNE01.JPG,,,,,,,,,,,,,1,4,14,2,,,,,,,,,,,AMSA10.jpg,AMNE19.jpg,AMSA20.jpg,AMNE10.jpg,AMNE10.jpg,MN,1,num_4,16,num_4,0.583500919543,,,2017_Jun_29_1450,60.0002309363,FEMA4ImagesEEG,001,200655,
AFNE01.JPG,AFNE01.JPG,AFNE01.JPG,AFNE01.JPG,AFNE01.JPG,AFNE01.JPG,,,,,,,,,,,,,1,5,15,4,,,,,,,,,,,AMNE03.jpg,AMNE13.jpg,AMSA20.jpg,AMSA10.jpg,AMSA20.jpg,MS,2,num_2,32,num_6,0.883602144866,,,2017_Jun_29_1450,60.0002309363,FEMA4ImagesEEG,001,200655,
AFNE01.JPG,AFNE01.JPG,AFNE01.JPG,AFNE01.JPG,AFNE01.JPG,AFNE01.JPG,,,,,,,,,,,,,1,6,16,7,,,,,,,,,,,AMNE12.jpg,AMNE20.jpg,AMSA12.jpg,AMSA18.jpg,AMNE12.jpg,MN,1,num_8,16,num_8,0.917119710764,,,2017_Jun_29_1450,60.0002309363,FEMA4ImagesEEG,001,200655,
AFNE01.JPG,AFNE01.JPG,AFNE01.JPG,AFNE01.JPG,AFNE01.JPG,AFNE01.JPG,,,,,,,,,,,,,1,7,17,1,,,,,,,,,,,AMNE01.jpg,AMSA09.jpg,AMNE07.jpg,AMSA07.jpg,AMSA09.jpg,MS,2,num_6,32,num_2,1.15052482553,,,2017_Jun_29_1450,60.0002309363,FEMA4ImagesEEG,001,200655,
AFNE01.JPG,AFNE01.JPG,AFNE01.JPG,AFNE01.JPG,AFNE01.JPG,AFNE01.JPG,,,,,,,,,,,,,1,8,18,6,,,,,,,,,,,AMSA05.jpg,AMSA15.jpg,AMNE03.jpg,AMNE17.jpg,AMNE03.jpg,MN,1,num_2,16,num_2,1.25045817593,,,2017_Jun_29_1450,60.0002309363,FEMA4ImagesEEG,001,200655,
AFNE01.JPG,AFNE01.JPG,AFNE01.JPG,AFNE01.JPG,AFNE01.JPG,AFNE01.JPG,,,,,,,,,,,,,1,9,19,0,,,,,,,,,,,AMSA14.jpg,AMSA13.jpg,AMNE16.jpg,AMNE10.jpg,AMNE10.jpg,MN,1,num_4,32,num_6,0.617027466185,,,2017_Jun_29_1450,60.0002309363,FEMA4ImagesEEG,001,200655,
AFNE01.JPG,AFNE01.JPG,AFNE01.JPG,AFNE01.JPG,AFNE01.JPG,AFNE01.JPG,,,,,,,,,,,,,2,0,20,5,,,,,,,,,,,AMNE09.jpg,AMSA16.jpg,AMSA19.jpg,AMNE18.jpg,AMNE18.jpg,MN,1,num_4,16,num_4,0.566842367582,,,2017_Jun_29_1450,60.0002309363,FEMA4ImagesEEG,001,200655,
AFNE01.JPG,AFNE01.JPG,AFNE01.JPG,AFNE01.JPG,AFNE01.JPG,AFNE01.JPG,,,,,,,,,,,,,2,1,21,6,,,,,,,,,,,AMNE15.jpg,AMSA17.jpg,AMNE01.jpg,AMSA09.jpg,AMNE01.jpg,MN,1,num_2,16,num_2,1.01674130268,,,2017_Jun_29_1450,60.0002309363,FEMA4ImagesEEG,001,200655,
AFNE01.JPG,AFNE01.JPG,AFNE01.JPG,AFNE01.JPG,AFNE01.JPG,AFNE01.JPG,,,,,,,,,,,,,2,2,22,2,,,,,,,,,,,AMSA02.jpg,AMNE10.jpg,AMNE13.jpg,AMSA07.jpg,AMSA02.jpg,MS,2,num_8,32,num_2,0.950154564227,,,2017_Jun_29_1450,60.0002309363,FEMA4ImagesEEG,001,200655,
AFNE01.JPG,AFNE01.JPG,AFNE01.JPG,AFNE01.JPG,AFNE01.JPG,AFNE01.JPG,,,,,,,,,,,,,2,3,23,9,,,,,,,,,,,AMNE04.jpg,AMSA10.jpg,AMNE05.jpg,AMSA20.jpg,AMSA10.jpg,MS,2,num_6,16,num_6,0.983426764666,,,2017_Jun_29_1450,60.0002309363,FEMA4ImagesEEG,001,200655,
AFNE01.JPG,AFNE01.JPG,AFNE01.JPG,AFNE01.JPG,AFNE01.JPG,AFNE01.JPG,,,,,,,,,,,,,2,4,24,0,,,,,,,,,,,AMNE09.jpg,AMSA01.jpg,AMSA08.jpg,AMNE06.jpg,AMSA08.jpg,MS,2,num_2,16,num_2,0.999995830382,,,2017_Jun_29_1450,60.0002309363,FEMA4ImagesEEG,001,200655,
AFNE01.JPG,AFNE01.JPG,AFNE01.JPG,AFNE01.JPG,AFNE01.JPG,AFNE01.JPG,,,,,,,,,,,,,2,5,25,7,,,,,,,,,,,AMNE12.jpg,AMSA14.jpg,AMNE15.jpg,AMSA03.jpg,AMNE12.jpg,MN,1,num_8,16,num_8,1.99996600163,,,2017_Jun_29_1450,60.0002309363,FEMA4ImagesEEG,001,200655,
AFNE01.JPG,AFNE01.JPG,AFNE01.JPG,AFNE01.JPG,AFNE01.JPG,AFNE01.JPG,,,,,,,,,,,,,2,6,26,3,,,,,,,,,,,AMNE15.jpg,AMNE03.jpg,AMSA07.jpg,AMSA11.jpg,AMSA07.jpg,MS,2,num_2,16,num_2,0.750101834681,,,2017_Jun_29_1450,60.0002309363,FEMA4ImagesEEG,001,200655,
AFNE01.JPG,AFNE01.JPG,AFNE01.JPG,AFNE01.JPG,AFNE01.JPG,AFNE01.JPG,,,,,,,,,,,,,2,7,27,1,,,,,,,,,,,AMNE08.jpg,AMSA04.jpg,AMNE06.jpg,AMSA17.jpg,AMSA17.jpg,MS,2,num_4,16,num_4,2.04994967603,,,2017_Jun_29_1450,60.0002309363,FEMA4ImagesEEG,001,200655,
AFNE01.JPG,AFNE01.JPG,AFNE01.JPG,AFNE01.JPG,AFNE01.JPG,AFNE01.JPG,,,,,,,,,,,,,2,8,28,8,,,,,,,,,,,AMNE02.jpg,AMSA04.jpg,AMSA13.jpg,AMNE13.jpg,AMSA04.jpg,MS,2,num_6,32,num_8,0.750457855203,,,2017_Jun_29_1450,60.0002309363,FEMA4ImagesEEG,001,200655,
AFNE01.JPG,AFNE01.JPG,AFNE01.JPG,AFNE01.JPG,AFNE01.JPG,AFNE01.JPG,,,,,,,,,,,,,2,9,29,4,,,,,,,,,,,AMNE09.jpg,AMNE13.jpg,AMSA04.jpg,AMSA19.jpg,AMSA19.jpg,MS,2,num_4,16,num_4,0.467194154335,,,2017_Jun_29_1450,60.0002309363,FEMA4ImagesEEG,001,200655,
AFNE01.JPG,AFNE01.JPG,AFNE01.JPG,AFNE01.JPG,AFNE01.JPG,AFNE01.JPG,,,,,,,,,,,,,3,0,30,5,,,,,,,,,,,AMNE03.jpg,AMNE07.jpg,AMSA04.jpg,AMSA18.jpg,AMSA18.jpg,MS,2,num_4,32,num_2,1.25010311764,,,2017_Jun_29_1450,60.0002309363,FEMA4ImagesEEG,001,200655,
AFNE01.JPG,AFNE01.JPG,AFNE01.JPG,AFNE01.JPG,AFNE01.JPG,AFNE01.JPG,,,,,,,,,,,,,3,1,31,6,,,,,,,,,,,AMSA14.jpg,AMNE10.jpg,AMNE05.jpg,AMSA05.jpg,AMSA14.jpg,MS,2,num_8,16,num_8,0.800051510712,,,2017_Jun_29_1450,60.0002309363,FEMA4ImagesEEG,001,200655,
AFNE01.JPG,AFNE01.JPG,AFNE01.JPG,AFNE01.JPG,AFNE01.JPG,AFNE01.JPG,,,,,,,,,,,,,3,2,32,7,,,,,,,,,,,AMSA05.jpg,AMNE04.jpg,AMNE14.jpg,AMSA13.jpg,AMSA13.jpg,MS,2,num_4,32,num_8,0.583505730639,,,2017_Jun_29_1450,60.0002309363,FEMA4ImagesEEG,001,200655,
AFNE01.JPG,AFNE01.JPG,AFNE01.JPG,AFNE01.JPG,AFNE01.JPG,AFNE01.JPG,,,,,,,,,,,,,3,3,33,1,,,,,,,,,,,AMSA15.jpg,AMNE02.jpg,AMNE18.jpg,AMSA09.jpg,AMNE18.jpg,MN,1,num_2,16,num_2,0.750540285168,,,2017_Jun_29_1450,60.0002309363,FEMA4ImagesEEG,001,200655,
AFNE01.JPG,AFNE01.JPG,AFNE01.JPG,AFNE01.JPG,AFNE01.JPG,AFNE01.JPG,,,,,,,,,,,,,3,4,34,2,,,,,,,,,,,AMNE09.jpg,AMSA15.jpg,AMSA16.jpg,AMNE14.jpg,AMNE09.jpg,MN,1,num_8,16,num_8,0.733483054384,,,2017_Jun_29_1450,60.0002309363,FEMA4ImagesEEG,001,200655,
AFNE01.JPG,AFNE01.JPG,AFNE01.JPG,AFNE01.JPG,AFNE01.JPG,AFNE01.JPG,,,,,,,,,,,,,3,5,35,3,,,,,,,,,,,AMSA19.jpg,AMNE15.jpg,AMNE16.jpg,AMSA14.jpg,AMSA14.jpg,MS,2,num_4,16,num_4,0.583779641922,,,2017_Jun_29_1450,60.0002309363,FEMA4ImagesEEG,001,200655,
AFNE01.JPG,AFNE01.JPG,AFNE01.JPG,AFNE01.JPG,AFNE01.JPG,AFNE01.JPG,,,,,,,,,,,,,3,6,36,0,,,,,,,,,,,AMSA05.jpg,AMSA06.jpg,AMNE10.jpg,AMNE19.jpg,AMSA06.jpg,MS,2,num_6,16,num_6,0.600105266582,,,2017_Jun_29_1450,60.0002309363,FEMA4ImagesEEG,001,200655,
AFNE01.JPG,AFNE01.JPG,AFNE01.JPG,AFNE01.JPG,AFNE01.JPG,AFNE01.JPG,,,,,,,,,,,,,3,7,37,9,,,,,,,,,,,AMSA19.jpg,AMSA09.jpg,AMNE16.jpg,AMNE19.jpg,AMSA09.jpg,MS,2,num_6,32,num_2,0.716935157456,,,2017_Jun_29_1450,60.0002309363,FEMA4ImagesEEG,001,200655,
AFNE01.JPG,AFNE01.JPG,AFNE01.JPG,AFNE01.JPG,AFNE01.JPG,AFNE01.JPG,,,,,,,,,,,,,3,8,38,4,,,,,,,,,,,AMNE15.jpg,AMSA10.jpg,AMNE14.jpg,AMSA17.jpg,AMNE14.jpg,MN,1,num_2,16,num_2,0.983861366258,,,2017_Jun_29_1450,60.0002309363,FEMA4ImagesEEG,001,200655,
AFNE01.JPG,AFNE01.JPG,AFNE01.JPG,AFNE01.JPG,AFNE01.JPG,AFNE01.JPG,,,,,,,,,,,,,3,9,39,8,,,,,,,,,,,AMSA14.jpg,AMSA10.jpg,AMNE03.jpg,AMNE06.jpg,AMSA14.jpg,MS,2,num_8,16,num_8,0.483512081293,,,2017_Jun_29_1450,60.0002309363,FEMA4ImagesEEG,001,200655,
AFNE01.JPG,AFNE01.JPG,AFNE01.JPG,AFNE01.JPG,AFNE01.JPG,AFNE01.JPG,,,,,,,,,,,,,4,0,40,2,,,,,,,,,,,AMSA18.jpg,AMNE07.jpg,AMNE03.jpg,AMSA11.jpg,AMNE07.jpg,MN,1,num_6,16,num_6,0.783807995263,,,2017_Jun_29_1450,60.0002309363,FEMA4ImagesEEG,001,200655,
AFNE01.JPG,AFNE01.JPG,AFNE01.JPG,AFNE01.JPG,AFNE01.JPG,AFNE01.JPG,,,,,,,,,,,,,4,1,41,9,,,,,,,,,,,AMNE09.jpg,AMSA08.jpg,AMSA11.jpg,AMNE20.jpg,AMNE20.jpg,MN,1,num_4,32,num_6,0.933821883285,,,2017_Jun_29_1450,60.0002309363,FEMA4ImagesEEG,001,200655,
AFNE01.JPG,AFNE01.JPG,AFNE01.JPG,AFNE01.JPG,AFNE01.JPG,AFNE01.JPG,,,,,,,,,,,,,4,2,42,5,,,,,,,,,,,AMSA10.jpg,AMSA02.jpg,AMNE15.jpg,AMNE11.jpg,AMNE11.jpg,MN,1,num_4,32,num_6,0.700127461751,,,2017_Jun_29_1450,60.0002309363,FEMA4ImagesEEG,001,200655,
AFNE01.JPG,AFNE01.JPG,AFNE01.JPG,AFNE01.JPG,AFNE01.JPG,AFNE01.JPG,,,,,,,,,,,,,4,3,43,8,,,,,,,,,,,AMSA16.jpg,AMNE04.jpg,AMSA01.jpg,AMNE10.jpg,AMSA16.jpg,MS,2,num_8,32,num_6,0.717143958638,,,2017_Jun_29_1450,60.0002309363,FEMA4ImagesEEG,001,200655,
AFNE01.JPG,AFNE01.JPG,AFNE01.JPG,AFNE01.JPG,AFNE01.JPG,AFNE01.JPG,,,,,,,,,,,,,4,4,44,0,,,,,,,,,,,AMSA06.jpg,AMSA12.jpg,AMNE15.jpg,AMNE17.jpg,AMSA12.jpg,MS,2,num_6,32,num_2,1.55054432648,,,2017_Jun_29_1450,60.0002309363,FEMA4ImagesEEG,001,200655,
AFNE01.JPG,AFNE01.JPG,AFNE01.JPG,AFNE01.JPG,AFNE01.JPG,AFNE01.JPG,,,,,,,,,,,,,4,5,45,6,,,,,,,,,,,AMNE10.jpg,AMSA17.jpg,AMNE17.jpg,AMSA04.jpg,AMNE10.jpg,MN,1,num_8,16,num_8,1.03376325214,,,2017_Jun_29_1450,60.0002309363,FEMA4ImagesEEG,001,200655,
AFNE01.JPG,AFNE01.JPG,AFNE01.JPG,AFNE01.JPG,AFNE01.JPG,AFNE01.JPG,,,,,,,,,,,,,4,6,46,1,,,,,,,,,,,AMNE08.jpg,AMNE05.jpg,AMSA03.jpg,AMSA04.jpg,AMNE08.jpg,MN,1,num_8,16,num_8,0.750132625632,,,2017_Jun_29_1450,60.0002309363,FEMA4ImagesEEG,001,200655,
AFNE01.JPG,AFNE01.JPG,AFNE01.JPG,AFNE01.JPG,AFNE01.JPG,AFNE01.JPG,,,,,,,,,,,,,4,7,47,3,,,,,,,,,,,AMNE12.jpg,AMSA14.jpg,AMSA04.jpg,AMNE07.jpg,AMNE12.jpg,MN,1,num_8,16,num_8,0.967101139977,,,2017_Jun_29_1450,60.0002309363,FEMA4ImagesEEG,001,200655,
AFNE01.JPG,AFNE01.JPG,AFNE01.JPG,AFNE01.JPG,AFNE01.JPG,AFNE01.JPG,,,,,,,,,,,,,4,8,48,4,,,,,,,,,,,AMNE04.jpg,AMSA12.jpg,AMSA05.jpg,AMNE09.jpg,AMSA05.jpg,MS,2,num_2,16,num_2,0.666762567678,,,2017_Jun_29_1450,60.0002309363,FEMA4ImagesEEG,001,200655,
AFNE01.JPG,AFNE01.JPG,AFNE01.JPG,AFNE01.JPG,AFNE01.JPG,AFNE01.JPG,,,,,,,,,,,,,4,9,49,7,,,,,,,,,,,AMSA09.jpg,AMSA14.jpg,AMNE13.jpg,AMNE09.jpg,AMSA09.jpg,MS,2,num_8,16,num_8,0.85061059118,,,2017_Jun_29_1450,60.0002309363,FEMA4ImagesEEG,001,200655,
AFNE01.JPG,AFNE01.JPG,AFNE01.JPG,AFNE01.JPG,AFNE01.JPG,AFNE01.JPG,,,,,,,,,,,,,5,0,50,2,,,,,,,,,,,AMNE16.jpg,AMNE05.jpg,AMSA02.jpg,AMSA01.jpg,AMSA02.jpg,MS,2,num_2,32,num_4,0.733357966121,,,2017_Jun_29_1450,60.0002309363,FEMA4ImagesEEG,001,200655,
AFNE01.JPG,AFNE01.JPG,AFNE01.JPG,AFNE01.JPG,AFNE01.JPG,AFNE01.JPG,,,,,,,,,,,,,5,1,51,9,,,,,,,,,,,AMSA07.jpg,AMNE04.jpg,AMNE09.jpg,AMSA09.jpg,AMNE04.jpg,MN,1,num_6,32,num_8,0.600447495322,,,2017_Jun_29_1450,60.0002309363,FEMA4ImagesEEG,001,200655,
AFNE01.JPG,AFNE01.JPG,AFNE01.JPG,AFNE01.JPG,AFNE01.JPG,AFNE01.JPG,,,,,,,,,,,,,5,2,52,4,,,,,,,,,,,AMNE10.jpg,AMNE08.jpg,AMSA07.jpg,AMSA04.jpg,AMSA07.jpg,MS,2,num_2,32,num_6,0.883757382602,,,2017_Jun_29_1450,60.0002309363,FEMA4ImagesEEG,001,200655,
AFNE01.JPG,AFNE01.JPG,AFNE01.JPG,AFNE01.JPG,AFNE01.JPG,AFNE01.JPG,,,,,,,,,,,,,5,3,53,3,,,,,,,,,,,AMNE13.jpg,AMSA19.jpg,AMSA14.jpg,AMNE16.jpg,AMNE16.jpg,MN,1,num_4,16,num_4,0.66709196684,,,2017_Jun_29_1450,60.0002309363,FEMA4ImagesEEG,001,200655,
AFNE01.JPG,AFNE01.JPG,AFNE01.JPG,AFNE01.JPG,AFNE01.JPG,AFNE01.JPG,,,,,,,,,,,,,5,4,54,5,,,,,,,,,,,AMSA14.jpg,AMSA07.jpg,AMNE17.jpg,AMNE04.jpg,AMNE04.jpg,MN,1,num_4,32,num_8,0.849979376479,,,2017_Jun_29_1450,60.0002309363,FEMA4ImagesEEG,001,200655,
AFNE01.JPG,AFNE01.JPG,AFNE01.JPG,AFNE01.JPG,AFNE01.JPG,AFNE01.JPG,,,,,,,,,,,,,5,5,55,8,,,,,,,,,,,AMSA04.jpg,AMNE06.jpg,AMSA20.jpg,AMNE19.jpg,AMNE19.jpg,MN,1,num_4,32,num_6,0.733430453169,,,2017_Jun_29_1450,60.0002309363,FEMA4ImagesEEG,001,200655,
AFNE01.JPG,AFNE01.JPG,AFNE01.JPG,AFNE01.JPG,AFNE01.JPG,AFNE01.JPG,,,,,,,,,,,,,5,6,56,7,,,,,,,,,,,AMSA07.jpg,AMNE05.jpg,AMNE07.jpg,AMSA09.jpg,AMNE05.jpg,MN,1,num_6,32,num_8,0.6334015225,,,2017_Jun_29_1450,60.0002309363,FEMA4ImagesEEG,001,200655,
AFNE01.JPG,AFNE01.JPG,AFNE01.JPG,AFNE01.JPG,AFNE01.JPG,AFNE01.JPG,,,,,,,,,,,,,5,7,57,6,,,,,,,,,,,AMSA20.jpg,AMSA03.jpg,AMNE10.jpg,AMNE01.jpg,AMSA03.jpg,MS,2,num_6,32,num_8,1.16673883298,,,2017_Jun_29_1450,60.0002309363,FEMA4ImagesEEG,001,200655,
AFNE01.JPG,AFNE01.JPG,AFNE01.JPG,AFNE01.JPG,AFNE01.JPG,AFNE01.JPG,,,,,,,,,,,,,5,8,58,0,,,,,,,,,,,AMNE14.jpg,AMSA13.jpg,AMNE16.jpg,AMSA19.jpg,AMNE16.jpg,MN,1,num_2,32,num_6,1.25007040225,,,2017_Jun_29_1450,60.0002309363,FEMA4ImagesEEG,001,200655,
AFNE01.JPG,AFNE01.JPG,AFNE01.JPG,AFNE01.JPG,AFNE01.JPG,AFNE01.JPG,,,,,,,,,,,,,5,9,59,1,,,,,,,,,,,AMSA11.jpg,AMNE15.jpg,AMNE03.jpg,AMSA16.jpg,AMNE03.jpg,MN,1,num_2,32,num_6,0.533487416455,,,2017_Jun_29_1450,60.0002309363,FEMA4ImagesEEG,001,200655,
,,,,,,,,,,,,,,,,,,,,,,,,,,,,,,,,,,,,,,,,,,,space,3.79955051609,2017_Jun_29_1450,60.0002309363,FEMA4ImagesEEG,001,200655,
AFNE01.JPG,AFNE01.JPG,AFNE01.JPG,AFNE01.JPG,AFNE01.JPG,AFNE01.JPG,,,,,,,,,,,,,,,,,0,0,0,8,,,,,,,AFSA13.jpg,AFSA04.jpg,AFNE01.jpg,AFNE17.jpg,AFSA13.jpg,FS,4,num_8,16,num_8,0.716731488064,,,2017_Jun_29_1450,60.0002309363,FEMA4ImagesEEG,001,200655,
AFNE01.JPG,AFNE01.JPG,AFNE01.JPG,AFNE01.JPG,AFNE01.JPG,AFNE01.JPG,,,,,,,,,,,,,,,,,0,1,1,3,,,,,,,AFNE19.jpg,AFSA07.jpg,AFNE04.jpg,AFSA09.jpg,AFSA09.jpg,FS,4,num_4,16,num_4,0.700517801335,,,2017_Jun_29_1450,60.0002309363,FEMA4ImagesEEG,001,200655,
AFNE01.JPG,AFNE01.JPG,AFNE01.JPG,AFNE01.JPG,AFNE01.JPG,AFNE01.JPG,,,,,,,,,,,,,,,,,0,2,2,5,,,,,,,AFSA14.jpg,AFSA17.jpg,AFNE07.jpg,AFNE17.jpg,AFNE17.jpg,FN,3,num_4,16,num_4,0.700369299098,,,2017_Jun_29_1450,60.0002309363,FEMA4ImagesEEG,001,200655,
AFNE01.JPG,AFNE01.JPG,AFNE01.JPG,AFNE01.JPG,AFNE01.JPG,AFNE01.JPG,,,,,,,,,,,,,,,,,0,3,3,1,,,,,,,AFNE01.jpg,AFSA12.jpg,AFNE16.jpg,AFSA10.jpg,AFNE01.jpg,FN,3,num_8,16,num_8,0.666761926201,,,2017_Jun_29_1450,60.0002309363,FEMA4ImagesEEG,001,200655,
AFNE01.JPG,AFNE01.JPG,AFNE01.JPG,AFNE01.JPG,AFNE01.JPG,AFNE01.JPG,,,,,,,,,,,,,,,,,0,4,4,9,,,,,,,AFSA14.jpg,AFNE16.jpg,AFNE02.jpg,AFSA11.jpg,AFNE02.jpg,FN,3,num_2,32,num_8,0.783496236749,,,2017_Jun_29_1450,60.0002309363,FEMA4ImagesEEG,001,200655,
AFNE01.JPG,AFNE01.JPG,AFNE01.JPG,AFNE01.JPG,AFNE01.JPG,AFNE01.JPG,,,,,,,,,,,,,,,,,0,5,5,7,,,,,,,AFSA05.jpg,AFNE02.jpg,AFSA19.jpg,AFNE14.jpg,AFNE14.jpg,FN,3,num_4,16,num_4,0.633474009548,,,2017_Jun_29_1450,60.0002309363,FEMA4ImagesEEG,001,200655,
AFNE01.JPG,AFNE01.JPG,AFNE01.JPG,AFNE01.JPG,AFNE01.JPG,AFNE01.JPG,,,,,,,,,,,,,,,,,0,6,6,6,,,,,,,AFNE13.jpg,AFSA10.jpg,AFNE04.jpg,AFSA01.jpg,AFNE13.jpg,FN,3,num_8,16,num_8,0.767218081484,,,2017_Jun_29_1450,60.0002309363,FEMA4ImagesEEG,001,200655,
AFNE01.JPG,AFNE01.JPG,AFNE01.JPG,AFNE01.JPG,AFNE01.JPG,AFNE01.JPG,,,,,,,,,,,,,,,,,0,7,7,2,,,,,,,AFNE19.jpg,AFNE03.jpg,AFSA07.jpg,AFSA04.jpg,AFNE19.jpg,FN,3,num_8,16,num_8,1.13383035077,,,2017_Jun_29_1450,60.0002309363,FEMA4ImagesEEG,001,200655,
AFNE01.JPG,AFNE01.JPG,AFNE01.JPG,AFNE01.JPG,AFNE01.JPG,AFNE01.JPG,,,,,,,,,,,,,,,,,0,8,8,4,,,,,,,AFNE04.jpg,AFSA13.jpg,AFNE11.jpg,AFSA15.jpg,AFNE04.jpg,FN,3,num_8,32,num_4,0.783849370608,,,2017_Jun_29_1450,60.0002309363,FEMA4ImagesEEG,001,200655,
AFNE01.JPG,AFNE01.JPG,AFNE01.JPG,AFNE01.JPG,AFNE01.JPG,AFNE01.JPG,,,,,,,,,,,,,,,,,0,9,9,0,,,,,,,AFNE03.jpg,AFSA07.jpg,AFNE19.jpg,AFSA02.jpg,AFSA07.jpg,FS,4,num_6,16,num_6,0.583784132265,,,2017_Jun_29_1450,60.0002309363,FEMA4ImagesEEG,001,200655,
AFNE01.JPG,AFNE01.JPG,AFNE01.JPG,AFNE01.JPG,AFNE01.JPG,AFNE01.JPG,,,,,,,,,,,,,,,,,1,0,10,2,,,,,,,AFNE15.jpg,AFNE13.jpg,AFSA19.jpg,AFSA18.jpg,AFSA18.jpg,FS,4,num_4,16,num_4,0.766604186676,,,2017_Jun_29_1450,60.0002309363,FEMA4ImagesEEG,001,200655,
AFNE01.JPG,AFNE01.JPG,AFNE01.JPG,AFNE01.JPG,AFNE01.JPG,AFNE01.JPG,,,,,,,,,,,,,,,,,1,1,11,6,,,,,,,AFNE09.jpg,AFSA08.jpg,AFSA17.jpg,AFNE03.jpg,AFNE09.jpg,FN,3,num_8,16,num_8,0.517221769987,,,2017_Jun_29_1450,60.0002309363,FEMA4ImagesEEG,001,200655,
AFNE01.JPG,AFNE01.JPG,AFNE01.JPG,AFNE01.JPG,AFNE01.JPG,AFNE01.JPG,,,,,,,,,,,,,,,,,1,2,12,3,,,,,,,AFSA11.jpg,AFNE04.jpg,AFNE06.jpg,AFSA09.jpg,AFNE04.jpg,FN,3,num_6,16,num_6,0.467188701761,,,2017_Jun_29_1450,60.0002309363,FEMA4ImagesEEG,001,200655,
AFNE01.JPG,AFNE01.JPG,AFNE01.JPG,AFNE01.JPG,AFNE01.JPG,AFNE01.JPG,,,,,,,,,,,,,,,,,1,3,13,7,,,,,,,AFSA05.jpg,AFNE11.jpg,AFSA06.jpg,AFNE08.jpg,AFSA05.jpg,FS,4,num_8,32,num_2,0.733836188243,,,2017_Jun_29_1450,60.0002309363,FEMA4ImagesEEG,001,200655,
AFNE01.JPG,AFNE01.JPG,AFNE01.JPG,AFNE01.JPG,AFNE01.JPG,AFNE01.JPG,,,,,,,,,,,,,,,,,1,4,14,5,,,,,,,AFSA18.jpg,AFNE16.jpg,AFSA05.jpg,AFNE09.jpg,AFSA18.jpg,FS,4,num_8,16,num_8,0.750146096718,,,2017_Jun_29_1450,60.0002309363,FEMA4ImagesEEG,001,200655,
AFNE01.JPG,AFNE01.JPG,AFNE01.JPG,AFNE01.JPG,AFNE01.JPG,AFNE01.JPG,,,,,,,,,,,,,,,,,1,5,15,8,,,,,,,AFSA19.jpg,AFSA05.jpg,AFNE08.jpg,AFNE01.jpg,AFSA05.jpg,FS,4,num_6,16,num_6,0.500527936703,,,2017_Jun_29_1450,60.0002309363,FEMA4ImagesEEG,001,200655,
AFNE01.JPG,AFNE01.JPG,AFNE01.JPG,AFNE01.JPG,AFNE01.JPG,AFNE01.JPG,,,,,,,,,,,,,,,,,1,6,16,9,,,,,,,AFNE08.jpg,AFNE15.jpg,AFSA01.jpg,AFSA14.jpg,AFNE08.jpg,FN,3,num_8,16,num_8,0.68385219312,,,2017_Jun_29_1450,60.0002309363,FEMA4ImagesEEG,001,200655,
AFNE01.JPG,AFNE01.JPG,AFNE01.JPG,AFNE01.JPG,AFNE01.JPG,AFNE01.JPG,,,,,,,,,,,,,,,,,1,7,17,0,,,,,,,AFSA08.jpg,AFNE15.jpg,AFSA19.jpg,AFNE03.jpg,AFNE03.jpg,FN,3,num_4,16,num_4,0.833455214219,,,2017_Jun_29_1450,60.0002309363,FEMA4ImagesEEG,001,200655,
AFNE01.JPG,AFNE01.JPG,AFNE01.JPG,AFNE01.JPG,AFNE01.JPG,AFNE01.JPG,,,,,,,,,,,,,,,,,1,8,18,4,,,,,,,AFSA01.jpg,AFNE09.jpg,AFSA20.jpg,AFNE14.jpg,AFSA01.jpg,FS,4,num_8,16,num_8,0.800493810064,,,2017_Jun_29_1450,60.0002309363,FEMA4ImagesEEG,001,200655,
AFNE01.JPG,AFNE01.JPG,AFNE01.JPG,AFNE01.JPG,AFNE01.JPG,AFNE01.JPG,,,,,,,,,,,,,,,,,1,9,19,1,,,,,,,AFNE07.jpg,AFNE08.jpg,AFSA03.jpg,AFSA06.jpg,AFNE07.jpg,FN,3,num_8,16,num_8,0.63389225342,,,2017_Jun_29_1450,60.0002309363,FEMA4ImagesEEG,001,200655,
AFNE01.JPG,AFNE01.JPG,AFNE01.JPG,AFNE01.JPG,AFNE01.JPG,AFNE01.JPG,,,,,,,,,,,,,,,,,2,0,20,5,,,,,,,AFNE04.jpg,AFSA08.jpg,AFSA13.jpg,AFNE07.jpg,AFSA08.jpg,FS,4,num_6,32,num_8,0.767320718034,,,2017_Jun_29_1450,60.0002309363,FEMA4ImagesEEG,001,200655,
AFNE01.JPG,AFNE01.JPG,AFNE01.JPG,AFNE01.JPG,AFNE01.JPG,AFNE01.JPG,,,,,,,,,,,,,,,,,2,1,21,3,,,,,,,AFSA16.jpg,AFNE04.jpg,AFNE14.jpg,AFSA03.jpg,AFSA03.jpg,FS,4,num_4,32,num_8,0.833431800245,,,2017_Jun_29_1450,60.0002309363,FEMA4ImagesEEG,001,200655,
AFNE01.JPG,AFNE01.JPG,AFNE01.JPG,AFNE01.JPG,AFNE01.JPG,AFNE01.JPG,,,,,,,,,,,,,,,,,2,2,22,2,,,,,,,AFSA09.jpg,AFNE15.jpg,AFNE20.jpg,AFSA05.jpg,AFSA05.jpg,FS,4,num_4,32,num_8,0.550467990543,,,2017_Jun_29_1450,60.0002309363,FEMA4ImagesEEG,001,200655,
AFNE01.JPG,AFNE01.JPG,AFNE01.JPG,AFNE01.JPG,AFNE01.JPG,AFNE01.JPG,,,,,,,,,,,,,,,,,2,3,23,0,,,,,,,AFSA18.jpg,AFSA03.jpg,AFNE08.jpg,AFNE19.jpg,AFNE19.jpg,FN,3,num_4,16,num_4,0.498570465425,,,2017_Jun_29_1450,60.0002309363,FEMA4ImagesEEG,001,200655,
AFNE01.JPG,AFNE01.JPG,AFNE01.JPG,AFNE01.JPG,AFNE01.JPG,AFNE01.JPG,,,,,,,,,,,,,,,,,2,4,24,1,,,,,,,AFNE15.jpg,AFSA18.jpg,AFSA13.jpg,AFNE07.jpg,AFSA13.jpg,FS,4,num_2,32,num_8,0.716786013712,,,2017_Jun_29_1450,60.0002309363,FEMA4ImagesEEG,001,200655,
AFNE01.JPG,AFNE01.JPG,AFNE01.JPG,AFNE01.JPG,AFNE01.JPG,AFNE01.JPG,,,,,,,,,,,,,,,,,2,5,25,4,,,,,,,AFSA03.jpg,AFSA09.jpg,AFNE16.jpg,AFNE17.jpg,AFNE16.jpg,FN,3,num_2,32,num_6,0.733840678586,,,2017_Jun_29_1450,60.0002309363,FEMA4ImagesEEG,001,200655,
AFNE01.JPG,AFNE01.JPG,AFNE01.JPG,AFNE01.JPG,AFNE01.JPG,AFNE01.JPG,,,,,,,,,,,,,,,,,2,6,26,9,,,,,,,AFNE16.jpg,AFSA14.jpg,AFNE08.jpg,AFSA04.jpg,AFNE16.jpg,FN,3,num_8,16,num_8,0.683379102818,,,2017_Jun_29_1450,60.0002309363,FEMA4ImagesEEG,001,200655,
AFNE01.JPG,AFNE01.JPG,AFNE01.JPG,AFNE01.JPG,AFNE01.JPG,AFNE01.JPG,,,,,,,,,,,,,,,,,2,7,27,6,,,,,,,AFSA07.jpg,AFSA10.jpg,AFNE14.jpg,AFNE03.jpg,AFNE03.jpg,FN,3,num_4,16,num_4,0.800112771918,,,2017_Jun_29_1450,60.0002309363,FEMA4ImagesEEG,001,200655,
AFNE01.JPG,AFNE01.JPG,AFNE01.JPG,AFNE01.JPG,AFNE01.JPG,AFNE01.JPG,,,,,,,,,,,,,,,,,2,8,28,7,,,,,,,AFNE10.jpg,AFSA10.jpg,AFNE13.jpg,AFSA13.jpg,AFNE10.jpg,FN,3,num_8,32,num_6,0.617139083421,,,2017_Jun_29_1450,60.0002309363,FEMA4ImagesEEG,001,200655,
AFNE01.JPG,AFNE01.JPG,AFNE01.JPG,AFNE01.JPG,AFNE01.JPG,AFNE01.JPG,,,,,,,,,,,,,,,,,2,9,29,8,,,,,,,AFNE09.jpg,AFSA04.jpg,AFSA15.jpg,AFNE11.jpg,AFNE11.jpg,FN,3,num_4,32,num_8,0.667176962714,,,2017_Jun_29_1450,60.0002309363,FEMA4ImagesEEG,001,200655,
AFNE01.JPG,AFNE01.JPG,AFNE01.JPG,AFNE01.JPG,AFNE01.JPG,AFNE01.JPG,,,,,,,,,,,,,,,,,3,0,30,8,,,,,,,AFSA07.jpg,AFNE14.jpg,AFSA18.jpg,AFNE01.jpg,AFNE14.jpg,FN,3,num_6,16,num_6,0.550662037742,,,2017_Jun_29_1450,60.0002309363,FEMA4ImagesEEG,001,200655,
AFNE01.JPG,AFNE01.JPG,AFNE01.JPG,AFNE01.JPG,AFNE01.JPG,AFNE01.JPG,,,,,,,,,,,,,,,,,3,1,31,3,,,,,,,AFSA04.jpg,AFSA17.jpg,AFNE14.jpg,AFNE13.jpg,AFNE14.jpg,FN,3,num_2,16,num_2,0.766759103688,,,2017_Jun_29_1450,60.0002309363,FEMA4ImagesEEG,001,200655,
AFNE01.JPG,AFNE01.JPG,AFNE01.JPG,AFNE01.JPG,AFNE01.JPG,AFNE01.JPG,,,,,,,,,,,,,,,,,3,2,32,2,,,,,,,AFSA18.jpg,AFNE13.jpg,AFNE15.jpg,AFSA06.jpg,AFNE13.jpg,FN,3,num_6,32,num_8,0.733761456009,,,2017_Jun_29_1450,60.0002309363,FEMA4ImagesEEG,001,200655,
AFNE01.JPG,AFNE01.JPG,AFNE01.JPG,AFNE01.JPG,AFNE01.JPG,AFNE01.JPG,,,,,,,,,,,,,,,,,3,3,33,7,,,,,,,AFSA17.jpg,AFSA18.jpg,AFNE06.jpg,AFNE14.jpg,AFNE06.jpg,FN,3,num_2,32,num_4,0.65058063413,,,2017_Jun_29_1450,60.0002309363,FEMA4ImagesEEG,001,200655,
AFNE01.JPG,AFNE01.JPG,AFNE01.JPG,AFNE01.JPG,AFNE01.JPG,AFNE01.JPG,,,,,,,,,,,,,,,,,3,4,34,9,,,,,,,AFNE09.jpg,AFSA01.jpg,AFSA10.jpg,AFNE04.jpg,AFSA01.jpg,FS,4,num_6,32,num_8,0.700502405874,,,2017_Jun_29_1450,60.0002309363,FEMA4ImagesEEG,001,200655,
AFNE01.JPG,AFNE01.JPG,AFNE01.JPG,AFNE01.JPG,AFNE01.JPG,AFNE01.JPG,,,,,,,,,,,,,,,,,3,5,35,0,,,,,,,AFNE02.jpg,AFSA15.jpg,AFNE11.jpg,AFSA03.jpg,AFNE02.jpg,FN,3,num_8,32,num_4,0.600542754837,,,2017_Jun_29_1450,60.0002309363,FEMA4ImagesEEG,001,200655,
AFNE01.JPG,AFNE01.JPG,AFNE01.JPG,AFNE01.JPG,AFNE01.JPG,AFNE01.JPG,,,,,,,,,,,,,,,,,3,6,36,5,,,,,,,AFNE10.jpg,AFSA18.jpg,AFNE03.jpg,AFSA04.jpg,AFNE10.jpg,FN,3,num_8,32,num_2,1.0334511729,,,2017_Jun_29_1450,60.0002309363,FEMA4ImagesEEG,001,200655,
AFNE01.JPG,AFNE01.JPG,AFNE01.JPG,AFNE01.JPG,AFNE01.JPG,AFNE01.JPG,,,,,,,,,,,,,,,,,3,7,37,1,,,,,,,AFSA03.jpg,AFNE10.jpg,AFNE05.jpg,AFSA18.jpg,AFNE10.jpg,FN,3,num_6,16,num_6,0.484239197045,,,2017_Jun_29_1450,60.0002309363,FEMA4ImagesEEG,001,200655,
AFNE01.JPG,AFNE01.JPG,AFNE01.JPG,AFNE01.JPG,AFNE01.JPG,AFNE01.JPG,,,,,,,,,,,,,,,,,3,8,38,6,,,,,,,AFSA05.jpg,AFNE11.jpg,AFSA12.jpg,AFNE09.jpg,AFNE09.jpg,FN,3,num_4,32,num_8,0.766744349705,,,2017_Jun_29_1450,60.0002309363,FEMA4ImagesEEG,001,200655,
AFNE01.JPG,AFNE01.JPG,AFNE01.JPG,AFNE01.JPG,AFNE01.JPG,AFNE01.JPG,,,,,,,,,,,,,,,,,3,9,39,4,,,,,,,AFSA09.jpg,AFNE05.jpg,AFSA20.jpg,AFNE13.jpg,AFNE13.jpg,FN,3,num_4,16,num_4,0.600423760596,,,2017_Jun_29_1450,60.0002309363,FEMA4ImagesEEG,001,200655,
AFNE01.JPG,AFNE01.JPG,AFNE01.JPG,AFNE01.JPG,AFNE01.JPG,AFNE01.JPG,,,,,,,,,,,,,,,,,4,0,40,6,,,,,,,AFNE03.jpg,AFSA08.jpg,AFNE19.jpg,AFSA12.jpg,AFNE19.jpg,FN,3,num_2,32,num_8,0.73347663958,,,2017_Jun_29_1450,60.0002309363,FEMA4ImagesEEG,001,200655,
AFNE01.JPG,AFNE01.JPG,AFNE01.JPG,AFNE01.JPG,AFNE01.JPG,AFNE01.JPG,,,,,,,,,,,,,,,,,4,1,41,9,,,,,,,AFNE05.jpg,AFSA16.jpg,AFSA04.jpg,AFNE10.jpg,AFNE10.jpg,FN,3,num_4,16,num_4,0.516627119534,,,2017_Jun_29_1450,60.0002309363,FEMA4ImagesEEG,001,200655,
AFNE01.JPG,AFNE01.JPG,AFNE01.JPG,AFNE01.JPG,AFNE01.JPG,AFNE01.JPG,,,,,,,,,,,,,,,,,4,2,42,5,,,,,,,AFNE10.jpg,AFSA13.jpg,AFSA07.jpg,AFNE07.jpg,AFNE10.jpg,FN,3,num_8,16,num_8,0.683347028884,,,2017_Jun_29_1450,60.0002309363,FEMA4ImagesEEG,001,200655,
AFNE01.JPG,AFNE01.JPG,AFNE01.JPG,AFNE01.JPG,AFNE01.JPG,AFNE01.JPG,,,,,,,,,,,,,,,,,4,3,43,3,,,,,,,AFSA02.jpg,AFNE18.jpg,AFNE20.jpg,AFSA18.jpg,AFSA02.jpg,FS,4,num_8,16,num_8,0.817119646614,,,2017_Jun_29_1450,60.0002309363,FEMA4ImagesEEG,001,200655,
AFNE01.JPG,AFNE01.JPG,AFNE01.JPG,AFNE01.JPG,AFNE01.JPG,AFNE01.JPG,,,,,,,,,,,,,,,,,4,4,44,0,,,,,,,AFSA12.jpg,AFSA13.jpg,AFNE18.jpg,AFNE15.jpg,AFNE18.jpg,FN,3,num_2,32,num_8,0.767114161979,,,2017_Jun_29_1450,60.0002309363,FEMA4ImagesEEG,001,200655,
AFNE01.JPG,AFNE01.JPG,AFNE01.JPG,AFNE01.JPG,AFNE01.JPG,AFNE01.JPG,,,,,,,,,,,,,,,,,4,5,45,2,,,,,,,AFNE04.jpg,AFNE08.jpg,AFSA18.jpg,AFSA19.jpg,AFSA18.jpg,FS,4,num_2,16,num_2,1.36679412841,,,2017_Jun_29_1450,60.0002309363,FEMA4ImagesEEG,001,200655,
AFNE01.JPG,AFNE01.JPG,AFNE01.JPG,AFNE01.JPG,AFNE01.JPG,AFNE01.JPG,,,,,,,,,,,,,,,,,4,6,46,1,,,,,,,AFNE18.jpg,AFNE10.jpg,AFSA17.jpg,AFSA20.jpg,AFNE18.jpg,FN,3,num_8,16,num_8,0.716790824808,,,2017_Jun_29_1450,60.0002309363,FEMA4ImagesEEG,001,200655,
AFNE01.JPG,AFNE01.JPG,AFNE01.JPG,AFNE01.JPG,AFNE01.JPG,AFNE01.JPG,,,,,,,,,,,,,,,,,4,7,47,8,,,,,,,AFNE02.jpg,AFSA19.jpg,AFSA01.jpg,AFNE19.jpg,AFNE19.jpg,FN,3,num_4,16,num_4,0.450452851655,,,2017_Jun_29_1450,60.0002309363,FEMA4ImagesEEG,001,200655,
AFNE01.JPG,AFNE01.JPG,AFNE01.JPG,AFNE01.JPG,AFNE01.JPG,AFNE01.JPG,,,,,,,,,,,,,,,,,4,8,48,4,,,,,,,AFSA03.jpg,AFSA12.jpg,AFNE04.jpg,AFNE08.jpg,AFSA12.jpg,FS,4,num_6,16,num_6,0.533898283349,,,2017_Jun_29_1450,60.0002309363,FEMA4ImagesEEG,001,200655,
AFNE01.JPG,AFNE01.JPG,AFNE01.JPG,AFNE01.JPG,AFNE01.JPG,AFNE01.JPG,,,,,,,,,,,,,,,,,4,9,49,7,,,,,,,AFSA04.jpg,AFNE17.jpg,AFNE07.jpg,AFSA06.jpg,AFSA06.jpg,FS,4,num_4,32,num_8,0.733516732027,,,2017_Jun_29_1450,60.0002309363,FEMA4ImagesEEG,001,200655,
AFNE01.JPG,AFNE01.JPG,AFNE01.JPG,AFNE01.JPG,AFNE01.JPG,AFNE01.JPG,,,,,,,,,,,,,,,,,5,0,50,5,,,,,,,AFSA15.jpg,AFNE17.jpg,AFNE12.jpg,AFSA14.jpg,AFNE17.jpg,FN,3,num_6,16,num_6,0.933407488221,,,2017_Jun_29_1450,60.0002309363,FEMA4ImagesEEG,001,200655,
AFNE01.JPG,AFNE01.JPG,AFNE01.JPG,AFNE01.JPG,AFNE01.JPG,AFNE01.JPG,,,,,,,,,,,,,,,,,5,1,51,7,,,,,,,AFSA14.jpg,AFNE19.jpg,AFNE13.jpg,AFSA12.jpg,AFSA14.jpg,FS,4,num_8,16,num_8,0.750102796912,,,2017_Jun_29_1450,60.0002309363,FEMA4ImagesEEG,001,200655,
AFNE01.JPG,AFNE01.JPG,AFNE01.JPG,AFNE01.JPG,AFNE01.JPG,AFNE01.JPG,,,,,,,,,,,,,,,,,5,2,52,3,,,,,,,AFSA15.jpg,AFNE17.jpg,AFNE01.jpg,AFSA12.jpg,AFNE17.jpg,FN,3,num_6,32,num_8,0.91714248326,,,2017_Jun_29_1450,60.0002309363,FEMA4ImagesEEG,001,200655,
AFNE01.JPG,AFNE01.JPG,AFNE01.JPG,AFNE01.JPG,AFNE01.JPG,AFNE01.JPG,,,,,,,,,,,,,,,,,5,3,53,2,,,,,,,AFSA15.jpg,AFSA02.jpg,AFNE19.jpg,AFNE03.jpg,AFNE19.jpg,FN,3,num_2,32,num_8,0.816780304565,,,2017_Jun_29_1450,60.0002309363,FEMA4ImagesEEG,001,200655,
AFNE01.JPG,AFNE01.JPG,AFNE01.JPG,AFNE01.JPG,AFNE01.JPG,AFNE01.JPG,,,,,,,,,,,,,,,,,5,4,54,6,,,,,,,AFNE06.jpg,AFNE20.jpg,AFSA06.jpg,AFSA15.jpg,AFNE06.jpg,FN,3,num_8,16,num_8,0.717187258444,,,2017_Jun_29_1450,60.0002309363,FEMA4ImagesEEG,001,200655,
AFNE01.JPG,AFNE01.JPG,AFNE01.JPG,AFNE01.JPG,AFNE01.JPG,AFNE01.JPG,,,,,,,,,,,,,,,,,5,5,55,1,,,,,,,AFNE16.jpg,AFSA08.jpg,AFSA10.jpg,AFNE03.jpg,AFSA10.jpg,FS,4,num_2,32,num_8,0.850455353444,,,2017_Jun_29_1450,60.0002309363,FEMA4ImagesEEG,001,200655,
AFNE01.JPG,AFNE01.JPG,AFNE01.JPG,AFNE01.JPG,AFNE01.JPG,AFNE01.JPG,,,,,,,,,,,,,,,,,5,6,56,4,,,,,,,AFSA06.jpg,AFNE01.jpg,AFNE19.jpg,AFSA12.jpg,AFSA06.jpg,FS,4,num_8,16,num_8,0.717307214887,,,2017_Jun_29_1450,60.0002309363,FEMA4ImagesEEG,001,200655,
AFNE01.JPG,AFNE01.JPG,AFNE01.JPG,AFNE01.JPG,AFNE01.JPG,AFNE01.JPG,,,,,,,,,,,,,,,,,5,7,57,0,,,,,,,AFNE19.jpg,AFSA03.jpg,AFNE16.jpg,AFSA10.jpg,AFSA03.jpg,FS,4,num_6,16,num_6,0.433515898068,,,2017_Jun_29_1450,60.0002309363,FEMA4ImagesEEG,001,200655,
AFNE01.JPG,AFNE01.JPG,AFNE01.JPG,AFNE01.JPG,AFNE01.JPG,AFNE01.JPG,,,,,,,,,,,,,,,,,5,8,58,8,,,,,,,AFSA09.jpg,AFNE15.jpg,AFSA04.jpg,AFNE09.jpg,AFSA04.jpg,FS,4,num_2,32,num_8,0.800381551351,,,2017_Jun_29_1450,60.0002309363,FEMA4ImagesEEG,001,200655,
AFNE01.JPG,AFNE01.JPG,AFNE01.JPG,AFNE01.JPG,AFNE01.JPG,AFNE01.JPG,,,,,,,,,,,,,,,,,5,9,59,9,,,,,,,AFNE17.jpg,AFSA19.jpg,AFNE07.jpg,AFSA01.jpg,AFNE17.jpg,FN,3,num_8,32,num_4,0.867009344394,,,2017_Jun_29_1450,60.0002309363,FEMA4ImagesEEG,001,200655,
,,,,,,,,,,,,,,,,,,,,,,,,,,,,,,,,,,,,,,,,,,,space,3.68348783342,2017_Jun_29_1450,60.0002309363,FEMA4ImagesEEG,001,200655,
AFNE01.JPG,AFNE01.JPG,AFNE01.JPG,AFNE01.JPG,AFNE01.JPG,AFNE01.JPG,,,,,,,,,,,,,,,,,,,,,0,0,0,5,,,AMSA06.jpg,AMNE11.jpg,AMSA04.jpg,AMNE03.jpg,AMNE03.jpg,MN,1,num_4,16,num_4,0.683805365174,,,2017_Jun_29_1450,60.0002309363,FEMA4ImagesEEG,001,200655,
AFNE01.JPG,AFNE01.JPG,AFNE01.JPG,AFNE01.JPG,AFNE01.JPG,AFNE01.JPG,,,,,,,,,,,,,,,,,,,,,0,1,1,7,,,AMNE20.jpg,AMSA13.jpg,AMNE07.jpg,AMSA14.jpg,AMNE07.jpg,MN,1,num_2,32,num_6,0.966729082516,,,2017_Jun_29_1450,60.0002309363,FEMA4ImagesEEG,001,200655,
AFNE01.JPG,AFNE01.JPG,AFNE01.JPG,AFNE01.JPG,AFNE01.JPG,AFNE01.JPG,,,,,,,,,,,,,,,,,,,,,0,2,2,6,,,AMSA11.jpg,AMNE12.jpg,AMSA02.jpg,AMNE05.jpg,AMNE12.jpg,MN,1,num_6,32,num_8,0.633855689171,,,2017_Jun_29_1450,60.0002309363,FEMA4ImagesEEG,001,200655,
AFNE01.JPG,AFNE01.JPG,AFNE01.JPG,AFNE01.JPG,AFNE01.JPG,AFNE01.JPG,,,,,,,,,,,,,,,,,,,,,0,3,3,1,,,AMSA18.jpg,AMSA12.jpg,AMNE14.jpg,AMNE06.jpg,AMNE14.jpg,MN,1,num_2,16,num_2,1.93385588162,,,2017_Jun_29_1450,60.0002309363,FEMA4ImagesEEG,001,200655,
AFNE01.JPG,AFNE01.JPG,AFNE01.JPG,AFNE01.JPG,AFNE01.JPG,AFNE01.JPG,,,,,,,,,,,,,,,,,,,,,0,4,4,2,,,AMNE10.jpg,AMSA06.jpg,AMSA17.jpg,AMNE02.jpg,AMNE10.jpg,MN,1,num_8,16,num_8,0.833433083229,,,2017_Jun_29_1450,60.0002309363,FEMA4ImagesEEG,001,200655,
AFNE01.JPG,AFNE01.JPG,AFNE01.JPG,AFNE01.JPG,AFNE01.JPG,AFNE01.JPG,,,,,,,,,,,,,,,,,,,,,0,5,5,4,,,AMSA05.jpg,AMNE14.jpg,AMNE19.jpg,AMSA08.jpg,AMNE14.jpg,MN,1,num_6,32,num_2,0.850591346854,,,2017_Jun_29_1450,60.0002309363,FEMA4ImagesEEG,001,200655,
AFNE01.JPG,AFNE01.JPG,AFNE01.JPG,AFNE01.JPG,AFNE01.JPG,AFNE01.JPG,,,,,,,,,,,,,,,,,,,,,0,6,6,9,,,AMNE19.jpg,AMNE14.jpg,AMSA05.jpg,AMSA09.jpg,AMNE19.jpg,MN,1,num_8,16,num_8,0.75010857021,,,2017_Jun_29_1450,60.0002309363,FEMA4ImagesEEG,001,200655,
AFNE01.JPG,AFNE01.JPG,AFNE01.JPG,AFNE01.JPG,AFNE01.JPG,AFNE01.JPG,,,,,,,,,,,,,,,,,,,,,0,7,7,8,,,AMSA10.jpg,AMNE15.jpg,AMSA03.jpg,AMNE20.jpg,AMNE15.jpg,MN,1,num_6,16,num_6,0.633866273565,,,2017_Jun_29_1450,60.0002309363,FEMA4ImagesEEG,001,200655,
AFNE01.JPG,AFNE01.JPG,AFNE01.JPG,AFNE01.JPG,AFNE01.JPG,AFNE01.JPG,,,,,,,,,,,,,,,,,,,,,0,8,8,0,,,AMSA06.jpg,AMNE01.jpg,AMNE16.jpg,AMSA01.jpg,AMNE16.jpg,MN,1,num_2,16,num_2,0.816789606004,,,2017_Jun_29_1450,60.0002309363,FEMA4ImagesEEG,001,200655,
AFNE01.JPG,AFNE01.JPG,AFNE01.JPG,AFNE01.JPG,AFNE01.JPG,AFNE01.JPG,,,,,,,,,,,,,,,,,,,,,0,9,9,3,,,AMNE19.jpg,AMNE14.jpg,AMSA09.jpg,AMSA05.jpg,AMNE19.jpg,MN,1,num_8,16,num_8,0.91180602464,,,2017_Jun_29_1450,60.0002309363,FEMA4ImagesEEG,001,200655,
AFNE01.JPG,AFNE01.JPG,AFNE01.JPG,AFNE01.JPG,AFNE01.JPG,AFNE01.JPG,,,,,,,,,,,,,,,,,,,,,1,0,10,3,,,AMNE15.jpg,AMNE10.jpg,AMSA07.jpg,AMSA15.jpg,AMNE10.jpg,MN,1,num_6,16,num_6,1.36713635712,,,2017_Jun_29_1450,60.0002309363,FEMA4ImagesEEG,001,200655,
AFNE01.JPG,AFNE01.JPG,AFNE01.JPG,AFNE01.JPG,AFNE01.JPG,AFNE01.JPG,,,,,,,,,,,,,,,,,,,,,1,1,11,2,,,AMNE04.jpg,AMNE03.jpg,AMSA01.jpg,AMSA20.jpg,AMNE03.jpg,MN,1,num_6,16,num_6,0.51447592178,,,2017_Jun_29_1450,60.0002309363,FEMA4ImagesEEG,001,200655,
AFNE01.JPG,AFNE01.JPG,AFNE01.JPG,AFNE01.JPG,AFNE01.JPG,AFNE01.JPG,,,,,,,,,,,,,,,,,,,,,1,2,12,8,,,AMSA15.jpg,AMSA17.jpg,AMNE09.jpg,AMNE10.jpg,AMSA15.jpg,MS,2,num_8,16,num_8,0.883397833968,,,2017_Jun_29_1450,60.0002309363,FEMA4ImagesEEG,001,200655,
AFNE01.JPG,AFNE01.JPG,AFNE01.JPG,AFNE01.JPG,AFNE01.JPG,AFNE01.JPG,,,,,,,,,,,,,,,,,,,,,1,3,13,4,,,AMNE04.jpg,AMNE05.jpg,AMSA13.jpg,AMSA19.jpg,AMSA13.jpg,MS,2,num_2,32,num_6,0.783735187462,,,2017_Jun_29_1450,60.0002309363,FEMA4ImagesEEG,001,200655,
AFNE01.JPG,AFNE01.JPG,AFNE01.JPG,AFNE01.JPG,AFNE01.JPG,AFNE01.JPG,,,,,,,,,,,,,,,,,,,,,1,4,14,0,,,AMNE17.jpg,AMNE10.jpg,AMSA20.jpg,AMSA02.jpg,AMSA02.jpg,MS,2,num_4,16,num_4,0.817089817894,,,2017_Jun_29_1450,60.0002309363,FEMA4ImagesEEG,001,200655,
AFNE01.JPG,AFNE01.JPG,AFNE01.JPG,AFNE01.JPG,AFNE01.JPG,AFNE01.JPG,,,,,,,,,,,,,,,,,,,,,1,5,15,1,,,AMSA05.jpg,AMSA06.jpg,AMNE07.jpg,AMNE01.jpg,AMNE01.jpg,MN,1,num_4,16,num_4,0.86677039371,,,2017_Jun_29_1450,60.0002309363,FEMA4ImagesEEG,001,200655,
AFNE01.JPG,AFNE01.JPG,AFNE01.JPG,AFNE01.JPG,AFNE01.JPG,AFNE01.JPG,,,,,,,,,,,,,,,,,,,,,1,6,16,9,,,AMNE08.jpg,AMNE17.jpg,AMSA18.jpg,AMSA16.jpg,AMSA16.jpg,MS,2,num_4,32,num_8,0.88387188653,,,2017_Jun_29_1450,60.0002309363,FEMA4ImagesEEG,001,200655,
AFNE01.JPG,AFNE01.JPG,AFNE01.JPG,AFNE01.JPG,AFNE01.JPG,AFNE01.JPG,,,,,,,,,,,,,,,,,,,,,1,7,17,6,,,AMNE11.jpg,AMNE07.jpg,AMSA14.jpg,AMSA17.jpg,AMNE11.jpg,MN,1,num_8,32,num_2,0.999945474352,,,2017_Jun_29_1450,60.0002309363,FEMA4ImagesEEG,001,200655,
AFNE01.JPG,AFNE01.JPG,AFNE01.JPG,AFNE01.JPG,AFNE01.JPG,AFNE01.JPG,,,,,,,,,,,,,,,,,,,,,1,8,18,5,,,AMNE17.jpg,AMSA07.jpg,AMSA04.jpg,AMNE09.jpg,AMNE17.jpg,MN,1,num_8,16,num_8,1.40012855225,,,2017_Jun_29_1450,60.0002309363,FEMA4ImagesEEG,001,200655,
AFNE01.JPG,AFNE01.JPG,AFNE01.JPG,AFNE01.JPG,AFNE01.JPG,AFNE01.JPG,,,,,,,,,,,,,,,,,,,,,1,9,19,7,,,AMSA01.jpg,AMSA16.jpg,AMNE15.jpg,AMNE12.jpg,AMNE15.jpg,MN,1,num_2,16,num_2,2.1499000256,,,2017_Jun_29_1450,60.0002309363,FEMA4ImagesEEG,001,200655,
AFNE01.JPG,AFNE01.JPG,AFNE01.JPG,AFNE01.JPG,AFNE01.JPG,AFNE01.JPG,,,,,,,,,,,,,,,,,,,,,2,0,20,8,,,AMSA12.jpg,AMNE09.jpg,AMSA05.jpg,AMNE01.jpg,AMSA05.jpg,MS,2,num_2,32,num_8,1.11705088013,,,2017_Jun_29_1450,60.0002309363,FEMA4ImagesEEG,001,200655,
AFNE01.JPG,AFNE01.JPG,AFNE01.JPG,AFNE01.JPG,AFNE01.JPG,AFNE01.JPG,,,,,,,,,,,,,,,,,,,,,2,1,21,4,,,AMNE16.jpg,AMNE18.jpg,AMSA14.jpg,AMSA12.jpg,AMNE18.jpg,MN,1,num_6,32,num_8,1.01672366203,,,2017_Jun_29_1450,60.0002309363,FEMA4ImagesEEG,001,200655,
AFNE01.JPG,AFNE01.JPG,AFNE01.JPG,AFNE01.JPG,AFNE01.JPG,AFNE01.JPG,,,,,,,,,,,,,,,,,,,,,2,2,22,9,,,AMSA07.jpg,AMNE17.jpg,AMNE06.jpg,AMSA01.jpg,AMNE17.jpg,MN,1,num_6,16,num_6,1.33340133005,,,2017_Jun_29_1450,60.0002309363,FEMA4ImagesEEG,001,200655,
AFNE01.JPG,AFNE01.JPG,AFNE01.JPG,AFNE01.JPG,AFNE01.JPG,AFNE01.JPG,,,,,,,,,,,,,,,,,,,,,2,3,23,0,,,AMSA11.jpg,AMSA02.jpg,AMNE04.jpg,AMNE13.jpg,AMSA11.jpg,MS,2,num_8,32,num_6,0.616830532323,,,2017_Jun_29_1450,60.0002309363,FEMA4ImagesEEG,001,200655,
AFNE01.JPG,AFNE01.JPG,AFNE01.JPG,AFNE01.JPG,AFNE01.JPG,AFNE01.JPG,,,,,,,,,,,,,,,,,,,,,2,4,24,2,,,AMNE05.jpg,AMNE07.jpg,AMSA06.jpg,AMSA10.jpg,AMSA06.jpg,MS,2,num_2,32,num_4,0.800099300861,,,2017_Jun_29_1450,60.0002309363,FEMA4ImagesEEG,001,200655,
AFNE01.JPG,AFNE01.JPG,AFNE01.JPG,AFNE01.JPG,AFNE01.JPG,AFNE01.JPG,,,,,,,,,,,,,,,,,,,,,2,5,25,6,,,AMNE10.jpg,AMNE20.jpg,AMSA20.jpg,AMSA18.jpg,AMSA20.jpg,MS,2,num_2,32,num_4,0.733814698702,,,2017_Jun_29_1450,60.0002309363,FEMA4ImagesEEG,001,200655,
AFNE01.JPG,AFNE01.JPG,AFNE01.JPG,AFNE01.JPG,AFNE01.JPG,AFNE01.JPG,,,,,,,,,,,,,,,,,,,,,2,6,26,3,,,AMNE05.jpg,AMNE16.jpg,AMSA05.jpg,AMSA20.jpg,AMSA05.jpg,MS,2,num_2,32,num_6,1.10046353226,,,2017_Jun_29_1450,60.0002309363,FEMA4ImagesEEG,001,200655,
AFNE01.JPG,AFNE01.JPG,AFNE01.JPG,AFNE01.JPG,AFNE01.JPG,AFNE01.JPG,,,,,,,,,,,,,,,,,,,,,2,7,27,7,,,AMSA17.jpg,AMSA18.jpg,AMNE16.jpg,AMNE05.jpg,AMNE16.jpg,MN,1,num_2,32,num_4,0.982698686712,,,2017_Jun_29_1450,60.0002309363,FEMA4ImagesEEG,001,200655,
AFNE01.JPG,AFNE01.JPG,AFNE01.JPG,AFNE01.JPG,AFNE01.JPG,AFNE01.JPG,,,,,,,,,,,,,,,,,,,,,2,8,28,1,,,AMSA13.jpg,AMSA03.jpg,AMNE10.jpg,AMNE09.jpg,AMNE10.jpg,MN,1,num_2,16,num_2,1.08337968015,,,2017_Jun_29_1450,60.0002309363,FEMA4ImagesEEG,001,200655,
AFNE01.JPG,AFNE01.JPG,AFNE01.JPG,AFNE01.JPG,AFNE01.JPG,AFNE01.JPG,,,,,,,,,,,,,,,,,,,,,2,9,29,5,,,AMNE20.jpg,AMSA19.jpg,AMSA03.jpg,AMNE09.jpg,AMNE20.jpg,MN,1,num_8,32,num_6,0.700095708598,,,2017_Jun_29_1450,60.0002309363,FEMA4ImagesEEG,001,200655,
AFNE01.JPG,AFNE01.JPG,AFNE01.JPG,AFNE01.JPG,AFNE01.JPG,AFNE01.JPG,,,,,,,,,,,,,,,,,,,,,3,0,30,9,,,AMNE10.jpg,AMSA06.jpg,AMNE07.jpg,AMSA01.jpg,AMSA06.jpg,MS,2,num_6,32,num_8,0.750502117211,,,2017_Jun_29_1450,60.0002309363,FEMA4ImagesEEG,001,200655,
AFNE01.JPG,AFNE01.JPG,AFNE01.JPG,AFNE01.JPG,AFNE01.JPG,AFNE01.JPG,,,,,,,,,,,,,,,,,,,,,3,1,31,7,,,AMSA17.jpg,AMSA10.jpg,AMNE12.jpg,AMNE17.jpg,AMNE17.jpg,MN,1,num_4,16,num_4,1.36707509594,,,2017_Jun_29_1450,60.0002309363,FEMA4ImagesEEG,001,200655,
AFNE01.JPG,AFNE01.JPG,AFNE01.JPG,AFNE01.JPG,AFNE01.JPG,AFNE01.JPG,,,,,,,,,,,,,,,,,,,,,3,2,32,8,,,AMNE14.jpg,AMSA01.jpg,AMSA17.jpg,AMNE18.jpg,AMSA01.jpg,MS,2,num_6,16,num_6,0.783436258527,,,2017_Jun_29_1450,60.0002309363,FEMA4ImagesEEG,001,200655,
AFNE01.JPG,AFNE01.JPG,AFNE01.JPG,AFNE01.JPG,AFNE01.JPG,AFNE01.JPG,,,,,,,,,,,,,,,,,,,,,3,3,33,4,,,AMSA10.jpg,AMNE11.jpg,AMNE19.jpg,AMSA14.jpg,AMNE19.jpg,MN,1,num_2,32,num_8,0.833476383006,,,2017_Jun_29_1450,60.0002309363,FEMA4ImagesEEG,001,200655,
AFNE01.JPG,AFNE01.JPG,AFNE01.JPG,AFNE01.JPG,AFNE01.JPG,AFNE01.JPG,,,,,,,,,,,,,,,,,,,,,3,4,34,1,,,AMSA08.jpg,AMNE04.jpg,AMSA10.jpg,AMNE15.jpg,AMSA10.jpg,MS,2,num_2,32,num_8,0.750055327517,,,2017_Jun_29_1450,60.0002309363,FEMA4ImagesEEG,001,200655,
AFNE01.JPG,AFNE01.JPG,AFNE01.JPG,AFNE01.JPG,AFNE01.JPG,AFNE01.JPG,,,,,,,,,,,,,,,,,,,,,3,5,35,2,,,AMSA02.jpg,AMNE10.jpg,AMSA10.jpg,AMNE11.jpg,AMSA10.jpg,MS,2,num_2,16,num_2,1.20002097634,,,2017_Jun_29_1450,60.0002309363,FEMA4ImagesEEG,001,200655,
AFNE01.JPG,AFNE01.JPG,AFNE01.JPG,AFNE01.JPG,AFNE01.JPG,AFNE01.JPG,,,,,,,,,,,,,,,,,,,,,3,6,36,0,,,AMSA01.jpg,AMSA05.jpg,AMNE16.jpg,AMNE19.jpg,AMSA01.jpg,MS,2,num_8,16,num_8,0.716793390719,,,2017_Jun_29_1450,60.0002309363,FEMA4ImagesEEG,001,200655,
AFNE01.JPG,AFNE01.JPG,AFNE01.JPG,AFNE01.JPG,AFNE01.JPG,AFNE01.JPG,,,,,,,,,,,,,,,,,,,,,3,7,37,6,,,AMSA02.jpg,AMNE14.jpg,AMSA07.jpg,AMNE02.jpg,AMSA07.jpg,MS,2,num_2,32,num_8,0.933756452461,,,2017_Jun_29_1450,60.0002309363,FEMA4ImagesEEG,001,200655,
AFNE01.JPG,AFNE01.JPG,AFNE01.JPG,AFNE01.JPG,AFNE01.JPG,AFNE01.JPG,,,,,,,,,,,,,,,,,,,,,3,8,38,3,,,AMNE10.jpg,AMNE20.jpg,AMSA09.jpg,AMSA12.jpg,AMSA12.jpg,MS,2,num_4,32,num_6,1.31715172055,,,2017_Jun_29_1450,60.0002309363,FEMA4ImagesEEG,001,200655,
