IPosition2,IPosition3,IPosition1,IPosition6,IPosition4,IPosition5,TrialsF1.thisRepN,TrialsF1.thisTrialN,TrialsF1.thisN,TrialsF1.thisIndex,TrialsM1.thisRepN,TrialsM1.thisTrialN,TrialsM1.thisN,TrialsM1.thisIndex,TrialsF2.thisRepN,TrialsF2.thisTrialN,TrialsF2.thisN,TrialsF2.thisIndex,TrialsM2.thisRepN,TrialsM2.thisTrialN,TrialsM2.thisN,TrialsM2.thisIndex,TrialsF3.thisRepN,TrialsF3.thisTrialN,TrialsF3.thisN,TrialsF3.thisIndex,TrialsM3.thisRepN,TrialsM3.thisTrialN,TrialsM3.thisN,TrialsM3.thisIndex,InstrKey_resp.keys,InstrKey_resp.rt,Image0 _Position,Image1 _Position,Image2 _Position,Image3 _Position,Center_image,condition,code,correct_answer,accuracy,Key_Resp.keys,Key_Resp.rt,BreakKey_resp.keys,BreakKey_resp.rt,date,frameRate,expName,session,participant,
,,,,,,,,,,,,,,,,,,,,,,,,,,,,,,space,5.58317975231,,,,,,,,,,,,,,2017_Jun_23_1757,60.0060818478,FEMA4ImagesEEG,001,200695,
AMSA25.JPG,AMNE24.JPG,AMSA24.JPG,AMNE26.JPG,AMSA21.JPG,AMNE25.JPG,0,0,0,3,,,,,,,,,,,,,,,,,,,,,,,AFSA12.jpg,AFSA02.jpg,AFNE05.jpg,AFNE04.jpg,AFSA02.jpg,FS,4,num_6,32,num_2,1.55012011713,,,2017_Jun_23_1757,60.0060818478,FEMA4ImagesEEG,001,200695,
AFSA21.JPG,AFNE22.JPG,AFNE21.JPG,AFSA23.JPG,AFSA22.JPG,AFNE23.JPG,0,1,1,0,,,,,,,,,,,,,,,,,,,,,,,AFSA02.jpg,AFNE18.jpg,AFSA17.jpg,AFNE03.jpg,AFSA17.jpg,FS,4,num_2,16,num_2,1.30008146795,,,2017_Jun_23_1757,60.0060818478,FEMA4ImagesEEG,001,200695,
AMNE23.JPG,AMNE24.JPG,AMNE22.JPG,AMSA24.JPG,AMSA22.JPG,AMSA23.JPG,0,2,2,9,,,,,,,,,,,,,,,,,,,,,,,AFNE12.jpg,AFSA08.jpg,AFNE13.jpg,AFSA19.jpg,AFNE12.jpg,FN,3,num_8,32,num_4,1.6667366949,,,2017_Jun_23_1757,60.0060818478,FEMA4ImagesEEG,001,200695,
AFSA25.JPG,AFNE24.JPG,AFSA24.JPG,AFNE21.JPG,AFSA21.JPG,AFNE25.JPG,0,3,3,2,,,,,,,,,,,,,,,,,,,,,,,AFNE05.jpg,AFNE15.jpg,AFSA18.jpg,AFSA14.jpg,AFNE15.jpg,FN,3,num_6,16,num_6,1.20012091899,,,2017_Jun_23_1757,60.0060818478,FEMA4ImagesEEG,001,200695,
AFNE23.JPG,AFNE24.JPG,AFNE22.JPG,AFSA24.JPG,AFSA22.JPG,AFSA23.JPG,0,4,4,8,,,,,,,,,,,,,,,,,,,,,,,AFSA01.jpg,AFNE04.jpg,AFNE06.jpg,AFSA12.jpg,AFSA12.jpg,FS,4,num_4,16,num_4,0.75012653193,,,2017_Jun_23_1757,60.0060818478,FEMA4ImagesEEG,001,200695,
AFSA21.JPG,AFNE23.JPG,AFNE21.JPG,AFSA25.JPG,AFNE25.JPG,AFSA23.JPG,0,5,5,4,,,,,,,,,,,,,,,,,,,,,,,AFSA10.jpg,AFNE11.jpg,AFSA19.jpg,AFNE20.jpg,AFSA19.jpg,FS,4,num_2,32,num_8,1.00018218033,,,2017_Jun_23_1757,60.0060818478,FEMA4ImagesEEG,001,200695,
AMSA21.JPG,AMNE22.JPG,AMNE21.JPG,AMSA23.JPG,AMSA22.JPG,AMNE23.JPG,0,6,6,1,,,,,,,,,,,,,,,,,,,,,,,AFNE11.jpg,AFSA09.jpg,AFNE12.jpg,AFSA19.jpg,AFNE12.jpg,FN,3,num_2,16,num_2,0.833494558654,,,2017_Jun_23_1757,60.0060818478,FEMA4ImagesEEG,001,200695,
AFNE22.JPG,AFSA24.JPG,AFSA22.JPG,AFNE25.JPG,AFNE24.JPG,AFSA25.JPG,0,7,7,6,,,,,,,,,,,,,,,,,,,,,,,AFNE20.jpg,AFSA12.jpg,AFSA02.jpg,AFNE15.jpg,AFNE20.jpg,FN,3,num_8,16,num_8,1.10008756202,,,2017_Jun_23_1757,60.0060818478,FEMA4ImagesEEG,001,200695,
AMSA21.JPG,AMNE23.JPG,AMNE21.JPG,AMSA25.JPG,AMNE25.JPG,AMSA23.JPG,0,8,8,5,,,,,,,,,,,,,,,,,,,,,,,AFSA03.jpg,AFSA08.jpg,AFNE01.jpg,AFNE09.jpg,AFSA08.jpg,FS,4,num_6,32,num_2,0.95013807858,,,2017_Jun_23_1757,60.0060818478,FEMA4ImagesEEG,001,200695,
AMNE22.JPG,AMSA24.JPG,AMSA22.JPG,AMNE25.JPG,AMNE24.JPG,AMSA25.JPG,0,9,9,7,,,,,,,,,,,,,,,,,,,,,,,AFSA13.jpg,AFNE16.jpg,AFNE02.jpg,AFSA11.jpg,AFSA13.jpg,FS,4,num_8,32,num_6,0.750141927463,,,2017_Jun_23_1757,60.0060818478,FEMA4ImagesEEG,001,200695,
AFSA21.JPG,AFNE22.JPG,AFNE21.JPG,AFSA23.JPG,AFSA22.JPG,AFNE23.JPG,,,,,0,0,0,0,,,,,,,,,,,,,,,,,,,AMSA15.jpg,AMNE07.jpg,AMNE03.jpg,AMSA08.jpg,AMNE07.jpg,MN,1,num_6,32,num_8,0.66682393619,,,2017_Jun_23_1757,60.0060818478,FEMA4ImagesEEG,001,200695,
AMNE23.JPG,AMNE24.JPG,AMNE22.JPG,AMSA24.JPG,AMSA22.JPG,AMSA23.JPG,,,,,0,1,1,9,,,,,,,,,,,,,,,,,,,AMNE07.jpg,AMNE20.jpg,AMSA03.jpg,AMSA02.jpg,AMSA02.jpg,MS,2,num_4,16,num_4,0.967089508922,,,2017_Jun_23_1757,60.0060818478,FEMA4ImagesEEG,001,200695,
AMSA21.JPG,AMNE22.JPG,AMNE21.JPG,AMSA23.JPG,AMSA22.JPG,AMNE23.JPG,,,,,0,2,2,1,,,,,,,,,,,,,,,,,,,AMSA10.jpg,AMSA03.jpg,AMNE05.jpg,AMNE02.jpg,AMNE02.jpg,MN,1,num_4,16,num_4,0.850139682268,,,2017_Jun_23_1757,60.0060818478,FEMA4ImagesEEG,001,200695,
AMNE22.JPG,AMSA24.JPG,AMSA22.JPG,AMNE25.JPG,AMNE24.JPG,AMSA25.JPG,,,,,0,3,3,7,,,,,,,,,,,,,,,,,,,AMNE20.jpg,AMSA16.jpg,AMSA20.jpg,AMNE14.jpg,AMSA20.jpg,MS,2,num_2,32,num_6,1.36679057922,,,2017_Jun_23_1757,60.0060818478,FEMA4ImagesEEG,001,200695,
AFSA21.JPG,AFNE23.JPG,AFNE21.JPG,AFSA25.JPG,AFNE25.JPG,AFSA23.JPG,,,,,0,4,4,4,,,,,,,,,,,,,,,,,,,AMSA01.jpg,AMSA07.jpg,AMNE13.jpg,AMNE18.jpg,AMSA01.jpg,MS,2,num_8,16,num_8,1.08342191103,,,2017_Jun_23_1757,60.0060818478,FEMA4ImagesEEG,001,200695,
AMSA25.JPG,AMNE24.JPG,AMSA24.JPG,AMNE26.JPG,AMSA21.JPG,AMNE25.JPG,,,,,0,5,5,3,,,,,,,,,,,,,,,,,,,AMSA14.jpg,AMNE10.jpg,AMSA07.jpg,AMNE14.jpg,AMSA07.jpg,MS,2,num_2,16,num_2,1.13338037521,,,2017_Jun_23_1757,60.0060818478,FEMA4ImagesEEG,001,200695,
AFNE23.JPG,AFNE24.JPG,AFNE22.JPG,AFSA24.JPG,AFSA22.JPG,AFSA23.JPG,,,,,0,6,6,8,,,,,,,,,,,,,,,,,,,AMSA08.jpg,AMNE04.jpg,AMSA14.jpg,AMNE07.jpg,AMSA08.jpg,MS,2,num_8,16,num_8,1.03337299818,,,2017_Jun_23_1757,60.0060818478,FEMA4ImagesEEG,001,200695,
AMSA21.JPG,AMNE23.JPG,AMNE21.JPG,AMSA25.JPG,AMNE25.JPG,AMSA23.JPG,,,,,0,7,7,5,,,,,,,,,,,,,,,,,,,AMSA14.jpg,AMNE06.jpg,AMSA15.jpg,AMNE05.jpg,AMNE05.jpg,MN,1,num_4,32,num_8,0.950127494158,,,2017_Jun_23_1757,60.0060818478,FEMA4ImagesEEG,001,200695,
AFSA25.JPG,AFNE24.JPG,AFSA24.JPG,AFNE21.JPG,AFSA21.JPG,AFNE25.JPG,,,,,0,8,8,2,,,,,,,,,,,,,,,,,,,AMSA12.jpg,AMNE05.jpg,AMSA15.jpg,AMNE02.jpg,AMNE02.jpg,MN,1,num_4,16,num_4,0.850191321413,,,2017_Jun_23_1757,60.0060818478,FEMA4ImagesEEG,001,200695,
AFNE22.JPG,AFSA24.JPG,AFSA22.JPG,AFNE25.JPG,AFNE24.JPG,AFSA25.JPG,,,,,0,9,9,6,,,,,,,,,,,,,,,,,,,AMSA06.jpg,AMNE20.jpg,AMSA08.jpg,AMNE08.jpg,AMSA06.jpg,MS,2,num_8,32,num_2,1.50005131839,,,2017_Jun_23_1757,60.0060818478,FEMA4ImagesEEG,001,200695,
AMSA21.JPG,AMNE23.JPG,AMNE21.JPG,AMSA25.JPG,AMNE25.JPG,AMSA23.JPG,,,,,,,,,0,0,0,5,,,,,,,,,,,,,,,AFNE15.jpg,AFSA04.jpg,AFNE19.jpg,AFSA01.jpg,AFSA01.jpg,FS,4,num_4,32,num_2,1.5834135718,,,2017_Jun_23_1757,60.0060818478,FEMA4ImagesEEG,001,200695,
AMNE23.JPG,AMNE24.JPG,AMNE22.JPG,AMSA24.JPG,AMSA22.JPG,AMSA23.JPG,,,,,,,,,0,1,1,9,,,,,,,,,,,,,,,AFSA20.jpg,AFNE13.jpg,AFSA04.jpg,AFNE10.jpg,AFNE13.jpg,FN,3,num_6,16,num_6,0.933310133129,,,2017_Jun_23_1757,60.0060818478,FEMA4ImagesEEG,001,200695,
AMSA25.JPG,AMNE24.JPG,AMSA24.JPG,AMNE26.JPG,AMSA21.JPG,AMNE25.JPG,,,,,,,,,0,2,2,3,,,,,,,,,,,,,,,AFSA06.jpg,AFNE14.jpg,AFSA07.jpg,AFNE04.jpg,AFSA07.jpg,FS,4,num_2,32,num_4,0.866633416619,,,2017_Jun_23_1757,60.0060818478,FEMA4ImagesEEG,001,200695,
AFNE22.JPG,AFSA24.JPG,AFSA22.JPG,AFNE25.JPG,AFNE24.JPG,AFSA25.JPG,,,,,,,,,0,3,3,6,,,,,,,,,,,,,,,AFNE02.jpg,AFSA20.jpg,AFSA12.jpg,AFNE20.jpg,AFSA20.jpg,FS,4,num_6,32,num_8,1.75007777945,,,2017_Jun_23_1757,60.0060818478,FEMA4ImagesEEG,001,200695,
AFSA21.JPG,AFNE23.JPG,AFNE21.JPG,AFSA25.JPG,AFNE25.JPG,AFSA23.JPG,,,,,,,,,0,4,4,4,,,,,,,,,,,,,,,AFSA02.jpg,AFNE07.jpg,AFSA09.jpg,AFNE11.jpg,AFSA09.jpg,FS,4,num_2,16,num_2,1.25016277556,,,2017_Jun_23_1757,60.0060818478,FEMA4ImagesEEG,001,200695,
AFSA25.JPG,AFNE24.JPG,AFSA24.JPG,AFNE21.JPG,AFSA21.JPG,AFNE25.JPG,,,,,,,,,0,5,5,2,,,,,,,,,,,,,,,AFNE19.jpg,AFNE20.jpg,AFSA03.jpg,AFSA02.jpg,AFSA03.jpg,FS,4,num_2,16,num_2,0.883439551733,,,2017_Jun_23_1757,60.0060818478,FEMA4ImagesEEG,001,200695,
AFSA21.JPG,AFNE22.JPG,AFNE21.JPG,AFSA23.JPG,AFSA22.JPG,AFNE23.JPG,,,,,,,,,0,6,6,0,,,,,,,,,,,,,,,AFNE15.jpg,AFNE20.jpg,AFSA15.jpg,AFSA16.jpg,AFSA15.jpg,FS,4,num_2,32,num_8,1.33343458026,,,2017_Jun_23_1757,60.0060818478,FEMA4ImagesEEG,001,200695,
AMNE22.JPG,AMSA24.JPG,AMSA22.JPG,AMNE25.JPG,AMNE24.JPG,AMSA25.JPG,,,,,,,,,0,7,7,7,,,,,,,,,,,,,,,AFSA09.jpg,AFSA16.jpg,AFNE01.jpg,AFNE15.jpg,AFNE01.jpg,FN,3,num_2,16,num_2,0.800163256659,,,2017_Jun_23_1757,60.0060818478,FEMA4ImagesEEG,001,200695,
AFNE23.JPG,AFNE24.JPG,AFNE22.JPG,AFSA24.JPG,AFSA22.JPG,AFSA23.JPG,,,,,,,,,0,8,8,8,,,,,,,,,,,,,,,AFNE02.jpg,AFSA04.jpg,AFNE17.jpg,AFSA20.jpg,AFNE02.jpg,FN,3,num_8,32,num_2,1.15018041625,,,2017_Jun_23_1757,60.0060818478,FEMA4ImagesEEG,001,200695,
AMSA21.JPG,AMNE22.JPG,AMNE21.JPG,AMSA23.JPG,AMSA22.JPG,AMNE23.JPG,,,,,,,,,0,9,9,1,,,,,,,,,,,,,,,AFNE01.jpg,AFSA13.jpg,AFSA01.jpg,AFNE04.jpg,AFNE04.jpg,FN,3,num_4,16,num_4,0.70017031295,,,2017_Jun_23_1757,60.0060818478,FEMA4ImagesEEG,001,200695,
AMSA25.JPG,AMNE24.JPG,AMSA24.JPG,AMNE26.JPG,AMSA21.JPG,AMNE25.JPG,,,,,,,,,,,,,0,0,0,3,,,,,,,,,,,AMNE14.jpg,AMSA16.jpg,AMSA18.jpg,AMNE06.jpg,AMNE06.jpg,MN,1,num_4,16,num_4,0.633183761573,,,2017_Jun_23_1757,60.0060818478,FEMA4ImagesEEG,001,200695,
AMNE23.JPG,AMNE24.JPG,AMNE22.JPG,AMSA24.JPG,AMSA22.JPG,AMSA23.JPG,,,,,,,,,,,,,0,1,1,9,,,,,,,,,,,AMNE06.jpg,AMNE11.jpg,AMSA17.jpg,AMSA19.jpg,AMSA17.jpg,MS,2,num_2,32,num_6,0.983492473839,,,2017_Jun_23_1757,60.0060818478,FEMA4ImagesEEG,001,200695,
AFSA25.JPG,AFNE24.JPG,AFSA24.JPG,AFNE21.JPG,AFSA21.JPG,AFNE25.JPG,,,,,,,,,,,,,0,2,2,2,,,,,,,,,,,AMSA16.jpg,AMSA12.jpg,AMNE19.jpg,AMNE14.jpg,AMSA12.jpg,MS,2,num_6,16,num_6,1.01679330551,,,2017_Jun_23_1757,60.0060818478,FEMA4ImagesEEG,001,200695,
AFNE22.JPG,AFSA24.JPG,AFSA22.JPG,AFNE25.JPG,AFNE24.JPG,AFSA25.JPG,,,,,,,,,,,,,0,3,3,6,,,,,,,,,,,AMNE17.jpg,AMSA10.jpg,AMSA04.jpg,AMNE11.jpg,AMNE17.jpg,MN,1,num_8,32,num_4,1.06671135644,,,2017_Jun_23_1757,60.0060818478,FEMA4ImagesEEG,001,200695,
AFNE23.JPG,AFNE24.JPG,AFNE22.JPG,AFSA24.JPG,AFSA22.JPG,AFSA23.JPG,,,,,,,,,,,,,0,4,4,8,,,,,,,,,,,AMSA12.jpg,AMNE12.jpg,AMNE09.jpg,AMSA02.jpg,AMSA02.jpg,MS,2,num_4,16,num_4,0.816807097348,,,2017_Jun_23_1757,60.0060818478,FEMA4ImagesEEG,001,200695,
AMSA21.JPG,AMNE22.JPG,AMNE21.JPG,AMSA23.JPG,AMSA22.JPG,AMNE23.JPG,,,,,,,,,,,,,0,5,5,1,,,,,,,,,,,AMNE01.jpg,AMNE03.jpg,AMSA10.jpg,AMSA09.jpg,AMNE03.jpg,MN,1,num_6,16,num_6,0.866747279317,,,2017_Jun_23_1757,60.0060818478,FEMA4ImagesEEG,001,200695,
AFSA21.JPG,AFNE22.JPG,AFNE21.JPG,AFSA23.JPG,AFSA22.JPG,AFNE23.JPG,,,,,,,,,,,,,0,6,6,0,,,,,,,,,,,AMSA06.jpg,AMSA13.jpg,AMNE20.jpg,AMNE01.jpg,AMNE01.jpg,MN,1,num_4,16,num_4,0.600163256662,,,2017_Jun_23_1757,60.0060818478,FEMA4ImagesEEG,001,200695,
AMNE22.JPG,AMSA24.JPG,AMSA22.JPG,AMNE25.JPG,AMNE24.JPG,AMSA25.JPG,,,,,,,,,,,,,0,7,7,7,,,,,,,,,,,AMNE10.jpg,AMNE05.jpg,AMSA01.jpg,AMSA02.jpg,AMNE05.jpg,MN,1,num_6,16,num_6,0.666770372613,,,2017_Jun_23_1757,60.0060818478,FEMA4ImagesEEG,001,200695,
AFSA21.JPG,AFNE23.JPG,AFNE21.JPG,AFSA25.JPG,AFNE25.JPG,AFSA23.JPG,,,,,,,,,,,,,0,8,8,4,,,,,,,,,,,AMSA16.jpg,AMNE09.jpg,AMNE15.jpg,AMSA18.jpg,AMSA16.jpg,MS,2,num_8,16,num_8,1.00014721967,,,2017_Jun_23_1757,60.0060818478,FEMA4ImagesEEG,001,200695,
AMSA21.JPG,AMNE23.JPG,AMNE21.JPG,AMSA25.JPG,AMNE25.JPG,AMSA23.JPG,,,,,,,,,,,,,0,9,9,5,,,,,,,,,,,AMNE01.jpg,AMSA19.jpg,AMNE13.jpg,AMSA10.jpg,AMNE13.jpg,MN,1,num_2,16,num_2,1.45005532766,,,2017_Jun_23_1757,60.0060818478,FEMA4ImagesEEG,001,200695,
AMNE23.JPG,AMNE24.JPG,AMNE22.JPG,AMSA24.JPG,AMSA22.JPG,AMSA23.JPG,,,,,,,,,,,,,,,,,0,0,0,9,,,,,,,AFSA12.jpg,AFNE10.jpg,AFSA04.jpg,AFNE18.jpg,AFSA12.jpg,FS,4,num_8,32,num_6,1.00010199532,,,2017_Jun_23_1757,60.0060818478,FEMA4ImagesEEG,001,200695,
AMNE22.JPG,AMSA24.JPG,AMSA22.JPG,AMNE25.JPG,AMNE24.JPG,AMSA25.JPG,,,,,,,,,,,,,,,,,0,1,1,7,,,,,,,AFNE16.jpg,AFSA20.jpg,AFSA16.jpg,AFNE11.jpg,AFSA16.jpg,FS,4,num_2,32,num_4,1.2333899974,,,2017_Jun_23_1757,60.0060818478,FEMA4ImagesEEG,001,200695,
AFNE23.JPG,AFNE24.JPG,AFNE22.JPG,AFSA24.JPG,AFSA22.JPG,AFSA23.JPG,,,,,,,,,,,,,,,,,0,2,2,8,,,,,,,AFSA09.jpg,AFNE01.jpg,AFSA14.jpg,AFNE15.jpg,AFSA09.jpg,FS,4,num_8,32,num_2,1.71670670572,,,2017_Jun_23_1757,60.0060818478,FEMA4ImagesEEG,001,200695,
AFSA21.JPG,AFNE23.JPG,AFNE21.JPG,AFSA25.JPG,AFNE25.JPG,AFSA23.JPG,,,,,,,,,,,,,,,,,0,3,3,4,,,,,,,AFNE19.jpg,AFNE11.jpg,AFSA17.jpg,AFSA05.jpg,AFNE11.jpg,FN,3,num_6,32,num_8,1.40007537389,,,2017_Jun_23_1757,60.0060818478,FEMA4ImagesEEG,001,200695,
AMSA21.JPG,AMNE23.JPG,AMNE21.JPG,AMSA25.JPG,AMNE25.JPG,AMSA23.JPG,,,,,,,,,,,,,,,,,0,4,4,5,,,,,,,AFNE01.jpg,AFNE16.jpg,AFSA20.jpg,AFSA08.jpg,AFNE16.jpg,FN,3,num_6,32,num_8,1.41700563541,,,2017_Jun_23_1757,60.0060818478,FEMA4ImagesEEG,001,200695,
AMSA25.JPG,AMNE24.JPG,AMSA24.JPG,AMNE26.JPG,AMSA21.JPG,AMNE25.JPG,,,,,,,,,,,,,,,,,0,5,5,3,,,,,,,AFSA18.jpg,AFNE05.jpg,AFNE02.jpg,AFSA08.jpg,AFNE02.jpg,FN,3,num_2,32,num_8,0.7501390408,,,2017_Jun_23_1757,60.0060818478,FEMA4ImagesEEG,001,200695,
AFNE22.JPG,AFSA24.JPG,AFSA22.JPG,AFNE25.JPG,AFNE24.JPG,AFSA25.JPG,,,,,,,,,,,,,,,,,0,6,6,6,,,,,,,AFSA06.jpg,AFSA10.jpg,AFNE13.jpg,AFNE10.jpg,AFSA10.jpg,FS,4,num_6,16,num_6,1.36673861934,,,2017_Jun_23_1757,60.0060818478,FEMA4ImagesEEG,001,200695,
AMSA21.JPG,AMNE22.JPG,AMNE21.JPG,AMSA23.JPG,AMSA22.JPG,AMNE23.JPG,,,,,,,,,,,,,,,,,0,7,7,1,,,,,,,AFSA08.jpg,AFNE12.jpg,AFSA09.jpg,AFNE16.jpg,AFNE16.jpg,FN,3,num_4,16,num_4,1.03345382465,,,2017_Jun_23_1757,60.0060818478,FEMA4ImagesEEG,001,200695,
AFSA25.JPG,AFNE24.JPG,AFSA24.JPG,AFNE21.JPG,AFSA21.JPG,AFNE25.JPG,,,,,,,,,,,,,,,,,0,8,8,2,,,,,,,AFSA07.jpg,AFNE08.jpg,AFNE04.jpg,AFSA17.jpg,AFSA07.jpg,FS,4,num_8,32,num_6,0.850168548874,,,2017_Jun_23_1757,60.0060818478,FEMA4ImagesEEG,001,200695,
AFSA21.JPG,AFNE22.JPG,AFNE21.JPG,AFSA23.JPG,AFSA22.JPG,AFNE23.JPG,,,,,,,,,,,,,,,,,0,9,9,0,,,,,,,AFNE08.jpg,AFNE04.jpg,AFSA19.jpg,AFSA05.jpg,AFSA19.jpg,FS,4,num_2,32,num_8,1.10012925822,,,2017_Jun_23_1757,60.0060818478,FEMA4ImagesEEG,001,200695,
AMSA21.JPG,AMNE23.JPG,AMNE21.JPG,AMSA25.JPG,AMNE25.JPG,AMSA23.JPG,,,,,,,,,,,,,,,,,,,,,0,0,0,5,,,AMSA10.jpg,AMSA05.jpg,AMNE14.jpg,AMNE12.jpg,AMSA10.jpg,MS,2,num_8,32,num_2,0.800168388509,,,2017_Jun_23_1757,60.0060818478,FEMA4ImagesEEG,001,200695,
AMNE23.JPG,AMNE24.JPG,AMNE22.JPG,AMSA24.JPG,AMSA22.JPG,AMSA23.JPG,,,,,,,,,,,,,,,,,,,,,0,1,1,9,,,AMNE16.jpg,AMNE12.jpg,AMSA04.jpg,AMSA18.jpg,AMNE12.jpg,MN,1,num_6,32,num_4,0.86675786374,,,2017_Jun_23_1757,60.0060818478,FEMA4ImagesEEG,001,200695,
AFSA21.JPG,AFNE23.JPG,AFNE21.JPG,AFSA25.JPG,AFNE25.JPG,AFSA23.JPG,,,,,,,,,,,,,,,,,,,,,0,2,2,4,,,AMSA10.jpg,AMNE20.jpg,AMNE15.jpg,AMSA05.jpg,AMSA10.jpg,MS,2,num_8,16,num_8,1.28310469916,,,2017_Jun_23_1757,60.0060818478,FEMA4ImagesEEG,001,200695,
AFNE23.JPG,AFNE24.JPG,AFNE22.JPG,AFSA24.JPG,AFSA22.JPG,AFSA23.JPG,,,,,,,,,,,,,,,,,,,,,0,3,3,8,,,AMNE11.jpg,AMSA16.jpg,AMSA12.jpg,AMNE17.jpg,AMNE17.jpg,MN,1,num_4,32,num_6,0.766778070363,,,2017_Jun_23_1757,60.0060818478,FEMA4ImagesEEG,001,200695,
AFNE22.JPG,AFSA24.JPG,AFSA22.JPG,AFNE25.JPG,AFNE24.JPG,AFSA25.JPG,,,,,,,,,,,,,,,,,,,,,0,4,4,6,,,AMNE10.jpg,AMSA03.jpg,AMNE04.jpg,AMSA13.jpg,AMSA03.jpg,MS,2,num_6,16,num_6,0.76683548282,,,2017_Jun_23_1757,60.0060818478,FEMA4ImagesEEG,001,200695,
AMSA21.JPG,AMNE22.JPG,AMNE21.JPG,AMSA23.JPG,AMSA22.JPG,AMNE23.JPG,,,,,,,,,,,,,,,,,,,,,0,5,5,1,,,AMNE10.jpg,AMNE09.jpg,AMSA11.jpg,AMSA12.jpg,AMNE10.jpg,MN,1,num_8,16,num_8,0.633438108402,,,2017_Jun_23_1757,60.0060818478,FEMA4ImagesEEG,001,200695,
AMSA25.JPG,AMNE24.JPG,AMSA24.JPG,AMNE26.JPG,AMSA21.JPG,AMNE25.JPG,,,,,,,,,,,,,,,,,,,,,0,6,6,3,,,AMNE11.jpg,AMNE06.jpg,AMSA08.jpg,AMSA10.jpg,AMNE06.jpg,MN,1,num_6,16,num_6,1.23345735281,,,2017_Jun_23_1757,60.0060818478,FEMA4ImagesEEG,001,200695,
AMNE22.JPG,AMSA24.JPG,AMSA22.JPG,AMNE25.JPG,AMNE24.JPG,AMSA25.JPG,,,,,,,,,,,,,,,,,,,,,0,7,7,7,,,AMSA01.jpg,AMNE03.jpg,AMNE13.jpg,AMSA05.jpg,AMSA05.jpg,MS,2,num_4,16,num_4,1.08346039984,,,2017_Jun_23_1757,60.0060818478,FEMA4ImagesEEG,001,200695,
AFSA25.JPG,AFNE24.JPG,AFSA24.JPG,AFNE21.JPG,AFSA21.JPG,AFNE25.JPG,,,,,,,,,,,,,,,,,,,,,0,8,8,2,,,AMNE02.jpg,AMNE08.jpg,AMSA14.jpg,AMSA03.jpg,AMNE02.jpg,MN,1,num_8,16,num_8,1.00007152502,,,2017_Jun_23_1757,60.0060818478,FEMA4ImagesEEG,001,200695,
AFSA21.JPG,AFNE22.JPG,AFNE21.JPG,AFSA23.JPG,AFSA22.JPG,AFNE23.JPG,,,,,,,,,,,,,,,,,,,,,0,9,9,0,,,AMSA07.jpg,AMSA08.jpg,AMNE07.jpg,AMNE20.jpg,AMNE20.jpg,MN,1,num_4,16,num_4,0.666824256929,,,2017_Jun_23_1757,60.0060818478,FEMA4ImagesEEG,001,200695,
,,,,,,,,,,,,,,,,,,,,,,,,,,,,,,,,,,,,,,,,,,,space,4.26651410133,2017_Jun_23_1757,60.0060818478,FEMA4ImagesEEG,001,200695,
AFNE01.JPG,AFNE01.JPG,AFNE01.JPG,AFNE01.JPG,AFNE01.JPG,AFNE01.JPG,0,0,0,1,,,,,,,,,,,,,,,,,,,,,,,AFSA14.jpg,AFNE02.jpg,AFNE16.jpg,AFSA19.jpg,AFSA19.jpg,FS,4,num_4,16,num_4,2.91661112518,,,2017_Jun_23_1757,60.0060818478,FEMA4ImagesEEG,001,200695,
AFNE01.JPG,AFNE01.JPG,AFNE01.JPG,AFNE01.JPG,AFNE01.JPG,AFNE01.JPG,0,1,1,5,,,,,,,,,,,,,,,,,,,,,,,AFNE08.jpg,AFSA03.jpg,AFSA04.jpg,AFNE01.jpg,AFSA03.jpg,FS,4,num_6,16,num_6,0.683486379785,,,2017_Jun_23_1757,60.0060818478,FEMA4ImagesEEG,001,200695,
AFNE01.JPG,AFNE01.JPG,AFNE01.JPG,AFNE01.JPG,AFNE01.JPG,AFNE01.JPG,0,2,2,9,,,,,,,,,,,,,,,,,,,,,,,AFNE19.jpg,AFNE12.jpg,AFSA05.jpg,AFSA07.jpg,AFNE12.jpg,FN,3,num_6,16,num_6,0.916763155954,,,2017_Jun_23_1757,60.0060818478,FEMA4ImagesEEG,001,200695,
AFNE01.JPG,AFNE01.JPG,AFNE01.JPG,AFNE01.JPG,AFNE01.JPG,AFNE01.JPG,0,3,3,3,,,,,,,,,,,,,,,,,,,,,,,AFSA11.jpg,AFNE06.jpg,AFNE15.jpg,AFSA20.jpg,AFSA11.jpg,FS,4,num_8,16,num_8,0.750178812566,,,2017_Jun_23_1757,60.0060818478,FEMA4ImagesEEG,001,200695,
AFNE01.JPG,AFNE01.JPG,AFNE01.JPG,AFNE01.JPG,AFNE01.JPG,AFNE01.JPG,0,4,4,2,,,,,,,,,,,,,,,,,,,,,,,AFNE18.jpg,AFSA19.jpg,AFNE20.jpg,AFSA14.jpg,AFNE20.jpg,FN,3,num_2,16,num_2,2.01672402567,,,2017_Jun_23_1757,60.0060818478,FEMA4ImagesEEG,001,200695,
AFNE01.JPG,AFNE01.JPG,AFNE01.JPG,AFNE01.JPG,AFNE01.JPG,AFNE01.JPG,0,5,5,7,,,,,,,,,,,,,,,,,,,,,,,AFSA11.jpg,AFNE12.jpg,AFSA09.jpg,AFNE17.jpg,AFNE12.jpg,FN,3,num_6,16,num_6,0.667074434125,,,2017_Jun_23_1757,60.0060818478,FEMA4ImagesEEG,001,200695,
AFNE01.JPG,AFNE01.JPG,AFNE01.JPG,AFNE01.JPG,AFNE01.JPG,AFNE01.JPG,0,6,6,6,,,,,,,,,,,,,,,,,,,,,,,AFNE20.jpg,AFSA10.jpg,AFSA08.jpg,AFNE13.jpg,AFSA08.jpg,FS,4,num_2,32,num_8,1.05011947565,,,2017_Jun_23_1757,60.0060818478,FEMA4ImagesEEG,001,200695,
AFNE01.JPG,AFNE01.JPG,AFNE01.JPG,AFNE01.JPG,AFNE01.JPG,AFNE01.JPG,0,7,7,8,,,,,,,,,,,,,,,,,,,,,,,AFNE03.jpg,AFSA17.jpg,AFSA06.jpg,AFNE04.jpg,AFNE04.jpg,FN,3,num_4,16,num_4,1.16677101409,,,2017_Jun_23_1757,60.0060818478,FEMA4ImagesEEG,001,200695,
AFNE01.JPG,AFNE01.JPG,AFNE01.JPG,AFNE01.JPG,AFNE01.JPG,AFNE01.JPG,0,8,8,4,,,,,,,,,,,,,,,,,,,,,,,AFNE08.jpg,AFSA05.jpg,AFNE17.jpg,AFSA10.jpg,AFNE08.jpg,FN,3,num_8,32,num_4,1.6833936859,,,2017_Jun_23_1757,60.0060818478,FEMA4ImagesEEG,001,200695,
AFNE01.JPG,AFNE01.JPG,AFNE01.JPG,AFNE01.JPG,AFNE01.JPG,AFNE01.JPG,0,9,9,0,,,,,,,,,,,,,,,,,,,,,,,AFSA03.jpg,AFSA11.jpg,AFNE16.jpg,AFNE04.jpg,AFNE16.jpg,FN,3,num_2,32,num_4,0.800146898924,,,2017_Jun_23_1757,60.0060818478,FEMA4ImagesEEG,001,200695,
AFNE01.JPG,AFNE01.JPG,AFNE01.JPG,AFNE01.JPG,AFNE01.JPG,AFNE01.JPG,1,0,10,7,,,,,,,,,,,,,,,,,,,,,,,AFSA02.jpg,AFNE15.jpg,AFNE02.jpg,AFSA06.jpg,AFNE15.jpg,FN,3,num_6,32,num_4,0.900116107892,,,2017_Jun_23_1757,60.0060818478,FEMA4ImagesEEG,001,200695,
AFNE01.JPG,AFNE01.JPG,AFNE01.JPG,AFNE01.JPG,AFNE01.JPG,AFNE01.JPG,1,1,11,9,,,,,,,,,,,,,,,,,,,,,,,AFSA19.jpg,AFNE10.jpg,AFNE08.jpg,AFSA09.jpg,AFNE10.jpg,FN,3,num_6,16,num_6,0.650126852677,,,2017_Jun_23_1757,60.0060818478,FEMA4ImagesEEG,001,200695,
AFNE01.JPG,AFNE01.JPG,AFNE01.JPG,AFNE01.JPG,AFNE01.JPG,AFNE01.JPG,1,2,12,4,,,,,,,,,,,,,,,,,,,,,,,AFNE10.jpg,AFSA20.jpg,AFNE08.jpg,AFSA16.jpg,AFNE08.jpg,FN,3,num_2,16,num_2,0.900166464053,,,2017_Jun_23_1757,60.0060818478,FEMA4ImagesEEG,001,200695,
AFNE01.JPG,AFNE01.JPG,AFNE01.JPG,AFNE01.JPG,AFNE01.JPG,AFNE01.JPG,1,3,13,5,,,,,,,,,,,,,,,,,,,,,,,AFSA18.jpg,AFSA14.jpg,AFNE02.jpg,AFNE03.jpg,AFSA18.jpg,FS,4,num_8,16,num_8,0.733475955727,,,2017_Jun_23_1757,60.0060818478,FEMA4ImagesEEG,001,200695,
AFNE01.JPG,AFNE01.JPG,AFNE01.JPG,AFNE01.JPG,AFNE01.JPG,AFNE01.JPG,1,4,14,6,,,,,,,,,,,,,,,,,,,,,,,AFNE07.jpg,AFNE06.jpg,AFSA16.jpg,AFSA10.jpg,AFNE06.jpg,FN,3,num_6,32,num_8,1.00011803233,,,2017_Jun_23_1757,60.0060818478,FEMA4ImagesEEG,001,200695,
AFNE01.JPG,AFNE01.JPG,AFNE01.JPG,AFNE01.JPG,AFNE01.JPG,AFNE01.JPG,1,5,15,2,,,,,,,,,,,,,,,,,,,,,,,AFSA01.jpg,AFSA16.jpg,AFNE13.jpg,AFNE15.jpg,AFNE15.jpg,FN,3,num_4,32,num_2,1.10008788276,,,2017_Jun_23_1757,60.0060818478,FEMA4ImagesEEG,001,200695,
AFNE01.JPG,AFNE01.JPG,AFNE01.JPG,AFNE01.JPG,AFNE01.JPG,AFNE01.JPG,1,6,16,3,,,,,,,,,,,,,,,,,,,,,,,AFSA04.jpg,AFNE01.jpg,AFSA01.jpg,AFNE06.jpg,AFNE06.jpg,FN,3,num_4,16,num_4,0.699855346262,,,2017_Jun_23_1757,60.0060818478,FEMA4ImagesEEG,001,200695,
AFNE01.JPG,AFNE01.JPG,AFNE01.JPG,AFNE01.JPG,AFNE01.JPG,AFNE01.JPG,1,7,17,1,,,,,,,,,,,,,,,,,,,,,,,AFNE03.jpg,AFNE09.jpg,AFSA16.jpg,AFSA11.jpg,AFSA11.jpg,FS,4,num_4,16,num_4,0.500165181104,,,2017_Jun_23_1757,60.0060818478,FEMA4ImagesEEG,001,200695,
AFNE01.JPG,AFNE01.JPG,AFNE01.JPG,AFNE01.JPG,AFNE01.JPG,AFNE01.JPG,1,8,18,0,,,,,,,,,,,,,,,,,,,,,,,AFNE11.jpg,AFNE12.jpg,AFSA10.jpg,AFSA20.jpg,AFSA10.jpg,FS,4,num_2,16,num_2,1.16678095704,,,2017_Jun_23_1757,60.0060818478,FEMA4ImagesEEG,001,200695,
AFNE01.JPG,AFNE01.JPG,AFNE01.JPG,AFNE01.JPG,AFNE01.JPG,AFNE01.JPG,1,9,19,8,,,,,,,,,,,,,,,,,,,,,,,AFSA12.jpg,AFSA18.jpg,AFNE02.jpg,AFNE20.jpg,AFSA18.jpg,FS,4,num_6,16,num_6,0.600193085498,,,2017_Jun_23_1757,60.0060818478,FEMA4ImagesEEG,001,200695,
AFNE01.JPG,AFNE01.JPG,AFNE01.JPG,AFNE01.JPG,AFNE01.JPG,AFNE01.JPG,2,0,20,2,,,,,,,,,,,,,,,,,,,,,,,AFNE07.jpg,AFSA16.jpg,AFSA02.jpg,AFNE12.jpg,AFNE12.jpg,FN,3,num_4,16,num_4,1.01679330552,,,2017_Jun_23_1757,60.0060818478,FEMA4ImagesEEG,001,200695,
AFNE01.JPG,AFNE01.JPG,AFNE01.JPG,AFNE01.JPG,AFNE01.JPG,AFNE01.JPG,2,1,21,1,,,,,,,,,,,,,,,,,,,,,,,AFSA16.jpg,AFNE05.jpg,AFNE04.jpg,AFSA13.jpg,AFSA16.jpg,FS,4,num_8,16,num_8,1.56671937494,,,2017_Jun_23_1757,60.0060818478,FEMA4ImagesEEG,001,200695,
AFNE01.JPG,AFNE01.JPG,AFNE01.JPG,AFNE01.JPG,AFNE01.JPG,AFNE01.JPG,2,2,22,7,,,,,,,,,,,,,,,,,,,,,,,AFNE05.jpg,AFNE08.jpg,AFSA12.jpg,AFSA15.jpg,AFSA12.jpg,FS,4,num_2,16,num_2,1.01659605039,,,2017_Jun_23_1757,60.0060818478,FEMA4ImagesEEG,001,200695,
AFNE01.JPG,AFNE01.JPG,AFNE01.JPG,AFNE01.JPG,AFNE01.JPG,AFNE01.JPG,2,3,23,0,,,,,,,,,,,,,,,,,,,,,,,AFNE03.jpg,AFNE11.jpg,AFSA17.jpg,AFSA02.jpg,AFSA17.jpg,FS,4,num_2,16,num_2,1.66671745051,,,2017_Jun_23_1757,60.0060818478,FEMA4ImagesEEG,001,200695,
AFNE01.JPG,AFNE01.JPG,AFNE01.JPG,AFNE01.JPG,AFNE01.JPG,AFNE01.JPG,2,4,24,9,,,,,,,,,,,,,,,,,,,,,,,AFNE09.jpg,AFNE17.jpg,AFSA06.jpg,AFSA20.jpg,AFSA06.jpg,FS,4,num_2,16,num_2,2.98331542536,,,2017_Jun_23_1757,60.0060818478,FEMA4ImagesEEG,001,200695,
AFNE01.JPG,AFNE01.JPG,AFNE01.JPG,AFNE01.JPG,AFNE01.JPG,AFNE01.JPG,2,5,25,4,,,,,,,,,,,,,,,,,,,,,,,AFSA11.jpg,AFSA10.jpg,AFNE20.jpg,AFNE01.jpg,AFNE01.jpg,FN,3,num_4,16,num_4,0.766771014081,,,2017_Jun_23_1757,60.0060818478,FEMA4ImagesEEG,001,200695,
AFNE01.JPG,AFNE01.JPG,AFNE01.JPG,AFNE01.JPG,AFNE01.JPG,AFNE01.JPG,2,6,26,3,,,,,,,,,,,,,,,,,,,,,,,AFSA07.jpg,AFSA01.jpg,AFNE17.jpg,AFNE18.jpg,AFNE17.jpg,FN,3,num_2,32,num_6,0.750171756285,,,2017_Jun_23_1757,60.0060818478,FEMA4ImagesEEG,001,200695,
AFNE01.JPG,AFNE01.JPG,AFNE01.JPG,AFNE01.JPG,AFNE01.JPG,AFNE01.JPG,2,7,27,8,,,,,,,,,,,,,,,,,,,,,,,AFSA12.jpg,AFSA18.jpg,AFNE14.jpg,AFNE01.jpg,AFSA12.jpg,FS,4,num_8,16,num_8,0.85012428675,,,2017_Jun_23_1757,60.0060818478,FEMA4ImagesEEG,001,200695,
AFNE01.JPG,AFNE01.JPG,AFNE01.JPG,AFNE01.JPG,AFNE01.JPG,AFNE01.JPG,2,8,28,5,,,,,,,,,,,,,,,,,,,,,,,AFSA16.jpg,AFNE04.jpg,AFNE10.jpg,AFSA12.jpg,AFNE10.jpg,FN,3,num_2,32,num_4,0.833434259519,,,2017_Jun_23_1757,60.0060818478,FEMA4ImagesEEG,001,200695,
AFNE01.JPG,AFNE01.JPG,AFNE01.JPG,AFNE01.JPG,AFNE01.JPG,AFNE01.JPG,2,9,29,6,,,,,,,,,,,,,,,,,,,,,,,AFSA02.jpg,AFNE06.jpg,AFSA18.jpg,AFNE01.jpg,AFNE01.jpg,FN,3,num_4,32,num_6,1.03342367511,,,2017_Jun_23_1757,60.0060818478,FEMA4ImagesEEG,001,200695,
AFNE01.JPG,AFNE01.JPG,AFNE01.JPG,AFNE01.JPG,AFNE01.JPG,AFNE01.JPG,3,0,30,4,,,,,,,,,,,,,,,,,,,,,,,AFNE01.jpg,AFNE15.jpg,AFSA13.jpg,AFSA20.jpg,AFNE15.jpg,FN,3,num_6,16,num_6,0.850106325306,,,2017_Jun_23_1757,60.0060818478,FEMA4ImagesEEG,001,200695,
AFNE01.JPG,AFNE01.JPG,AFNE01.JPG,AFNE01.JPG,AFNE01.JPG,AFNE01.JPG,3,1,31,3,,,,,,,,,,,,,,,,,,,,,,,AFNE02.jpg,AFSA15.jpg,AFSA20.jpg,AFNE19.jpg,AFSA20.jpg,FS,4,num_2,16,num_2,0.883484134582,,,2017_Jun_23_1757,60.0060818478,FEMA4ImagesEEG,001,200695,
AFNE01.JPG,AFNE01.JPG,AFNE01.JPG,AFNE01.JPG,AFNE01.JPG,AFNE01.JPG,3,2,32,6,,,,,,,,,,,,,,,,,,,,,,,AFNE05.jpg,AFSA11.jpg,AFNE12.jpg,AFSA08.jpg,AFSA11.jpg,FS,4,num_6,16,num_6,0.600510618111,,,2017_Jun_23_1757,60.0060818478,FEMA4ImagesEEG,001,200695,
AFNE01.JPG,AFNE01.JPG,AFNE01.JPG,AFNE01.JPG,AFNE01.JPG,AFNE01.JPG,3,3,33,0,,,,,,,,,,,,,,,,,,,,,,,AFNE16.jpg,AFSA07.jpg,AFSA16.jpg,AFNE06.jpg,AFNE16.jpg,FN,3,num_8,32,num_2,0.800142087828,,,2017_Jun_23_1757,60.0060818478,FEMA4ImagesEEG,001,200695,
AFNE01.JPG,AFNE01.JPG,AFNE01.JPG,AFNE01.JPG,AFNE01.JPG,AFNE01.JPG,3,4,34,1,,,,,,,,,,,,,,,,,,,,,,,AFSA18.jpg,AFSA05.jpg,AFNE14.jpg,AFNE17.jpg,AFSA05.jpg,FS,4,num_6,16,num_6,0.816743270072,,,2017_Jun_23_1757,60.0060818478,FEMA4ImagesEEG,001,200695,
AFNE01.JPG,AFNE01.JPG,AFNE01.JPG,AFNE01.JPG,AFNE01.JPG,AFNE01.JPG,3,5,35,5,,,,,,,,,,,,,,,,,,,,,,,AFNE20.jpg,AFSA19.jpg,AFSA11.jpg,AFNE18.jpg,AFNE18.jpg,FN,3,num_4,32,num_6,0.800115466394,,,2017_Jun_23_1757,60.0060818478,FEMA4ImagesEEG,001,200695,
AFNE01.JPG,AFNE01.JPG,AFNE01.JPG,AFNE01.JPG,AFNE01.JPG,AFNE01.JPG,3,6,36,7,,,,,,,,,,,,,,,,,,,,,,,AFNE04.jpg,AFSA09.jpg,AFNE14.jpg,AFSA19.jpg,AFNE04.jpg,FN,3,num_8,32,num_4,2.13339160109,,,2017_Jun_23_1757,60.0060818478,FEMA4ImagesEEG,001,200695,
AFNE01.JPG,AFNE01.JPG,AFNE01.JPG,AFNE01.JPG,AFNE01.JPG,AFNE01.JPG,3,7,37,8,,,,,,,,,,,,,,,,,,,,,,,AFSA03.jpg,AFNE19.jpg,AFNE07.jpg,AFSA16.jpg,AFSA03.jpg,FS,4,num_8,32,num_4,0.750075855016,,,2017_Jun_23_1757,60.0060818478,FEMA4ImagesEEG,001,200695,
AFNE01.JPG,AFNE01.JPG,AFNE01.JPG,AFNE01.JPG,AFNE01.JPG,AFNE01.JPG,3,8,38,2,,,,,,,,,,,,,,,,,,,,,,,AFSA17.jpg,AFNE03.jpg,AFSA07.jpg,AFNE16.jpg,AFNE16.jpg,FN,3,num_4,32,num_6,0.700114183433,,,2017_Jun_23_1757,60.0060818478,FEMA4ImagesEEG,001,200695,
AFNE01.JPG,AFNE01.JPG,AFNE01.JPG,AFNE01.JPG,AFNE01.JPG,AFNE01.JPG,3,9,39,9,,,,,,,,,,,,,,,,,,,,,,,AFSA06.jpg,AFSA15.jpg,AFNE16.jpg,AFNE19.jpg,AFSA06.jpg,FS,4,num_8,16,num_8,1.0834520606,,,2017_Jun_23_1757,60.0060818478,FEMA4ImagesEEG,001,200695,
AFNE01.JPG,AFNE01.JPG,AFNE01.JPG,AFNE01.JPG,AFNE01.JPG,AFNE01.JPG,4,0,40,8,,,,,,,,,,,,,,,,,,,,,,,AFSA12.jpg,AFNE14.jpg,AFNE01.jpg,AFSA20.jpg,AFNE01.jpg,FN,3,num_2,32,num_6,0.716760590047,,,2017_Jun_23_1757,60.0060818478,FEMA4ImagesEEG,001,200695,
AFNE01.JPG,AFNE01.JPG,AFNE01.JPG,AFNE01.JPG,AFNE01.JPG,AFNE01.JPG,4,1,41,0,,,,,,,,,,,,,,,,,,,,,,,AFSA18.jpg,AFSA20.jpg,AFNE13.jpg,AFNE04.jpg,AFNE04.jpg,FN,3,num_4,32,num_8,0.816762835209,,,2017_Jun_23_1757,60.0060818478,FEMA4ImagesEEG,001,200695,
AFNE01.JPG,AFNE01.JPG,AFNE01.JPG,AFNE01.JPG,AFNE01.JPG,AFNE01.JPG,4,2,42,9,,,,,,,,,,,,,,,,,,,,,,,AFNE03.jpg,AFSA16.jpg,AFNE04.jpg,AFSA03.jpg,AFNE04.jpg,FN,3,num_2,32,num_6,1.13345703206,,,2017_Jun_23_1757,60.0060818478,FEMA4ImagesEEG,001,200695,
AFNE01.JPG,AFNE01.JPG,AFNE01.JPG,AFNE01.JPG,AFNE01.JPG,AFNE01.JPG,4,3,43,7,,,,,,,,,,,,,,,,,,,,,,,AFSA13.jpg,AFNE06.jpg,AFSA06.jpg,AFNE08.jpg,AFNE08.jpg,FN,3,num_4,32,num_6,0.800116428625,,,2017_Jun_23_1757,60.0060818478,FEMA4ImagesEEG,001,200695,
AFNE01.JPG,AFNE01.JPG,AFNE01.JPG,AFNE01.JPG,AFNE01.JPG,AFNE01.JPG,4,4,44,3,,,,,,,,,,,,,,,,,,,,,,,AFSA12.jpg,AFSA18.jpg,AFNE17.jpg,AFNE18.jpg,AFNE18.jpg,FN,3,num_4,16,num_4,0.916823775828,,,2017_Jun_23_1757,60.0060818478,FEMA4ImagesEEG,001,200695,
AFNE01.JPG,AFNE01.JPG,AFNE01.JPG,AFNE01.JPG,AFNE01.JPG,AFNE01.JPG,4,5,45,1,,,,,,,,,,,,,,,,,,,,,,,AFNE02.jpg,AFNE19.jpg,AFSA15.jpg,AFSA16.jpg,AFNE02.jpg,FN,3,num_8,32,num_4,1.18344821171,,,2017_Jun_23_1757,60.0060818478,FEMA4ImagesEEG,001,200695,
AFNE01.JPG,AFNE01.JPG,AFNE01.JPG,AFNE01.JPG,AFNE01.JPG,AFNE01.JPG,4,6,46,4,,,,,,,,,,,,,,,,,,,,,,,AFNE05.jpg,AFSA09.jpg,AFSA10.jpg,AFNE12.jpg,AFSA09.jpg,FS,4,num_6,16,num_6,0.550136795617,,,2017_Jun_23_1757,60.0060818478,FEMA4ImagesEEG,001,200695,
AFNE01.JPG,AFNE01.JPG,AFNE01.JPG,AFNE01.JPG,AFNE01.JPG,AFNE01.JPG,4,7,47,2,,,,,,,,,,,,,,,,,,,,,,,AFSA15.jpg,AFSA05.jpg,AFNE13.jpg,AFNE02.jpg,AFSA05.jpg,FS,4,num_6,16,num_6,0.716763476696,,,2017_Jun_23_1757,60.0060818478,FEMA4ImagesEEG,001,200695,
AFNE01.JPG,AFNE01.JPG,AFNE01.JPG,AFNE01.JPG,AFNE01.JPG,AFNE01.JPG,4,8,48,5,,,,,,,,,,,,,,,,,,,,,,,AFSA13.jpg,AFNE15.jpg,AFNE12.jpg,AFSA05.jpg,AFNE15.jpg,FN,3,num_6,32,num_4,1.08346039984,,,2017_Jun_23_1757,60.0060818478,FEMA4ImagesEEG,001,200695,
AFNE01.JPG,AFNE01.JPG,AFNE01.JPG,AFNE01.JPG,AFNE01.JPG,AFNE01.JPG,4,9,49,6,,,,,,,,,,,,,,,,,,,,,,,AFSA02.jpg,AFNE20.jpg,AFSA07.jpg,AFNE19.jpg,AFNE19.jpg,FN,3,num_4,32,num_8,0.583610185422,,,2017_Jun_23_1757,60.0060818478,FEMA4ImagesEEG,001,200695,
AFNE01.JPG,AFNE01.JPG,AFNE01.JPG,AFNE01.JPG,AFNE01.JPG,AFNE01.JPG,5,0,50,1,,,,,,,,,,,,,,,,,,,,,,,AFNE11.jpg,AFSA05.jpg,AFSA11.jpg,AFNE07.jpg,AFSA11.jpg,FS,4,num_2,16,num_2,0.716810625483,,,2017_Jun_23_1757,60.0060818478,FEMA4ImagesEEG,001,200695,
AFNE01.JPG,AFNE01.JPG,AFNE01.JPG,AFNE01.JPG,AFNE01.JPG,AFNE01.JPG,5,1,51,5,,,,,,,,,,,,,,,,,,,,,,,AFNE07.jpg,AFSA15.jpg,AFNE20.jpg,AFSA17.jpg,AFNE20.jpg,FN,3,num_2,16,num_2,0.666624115154,,,2017_Jun_23_1757,60.0060818478,FEMA4ImagesEEG,001,200695,
AFNE01.JPG,AFNE01.JPG,AFNE01.JPG,AFNE01.JPG,AFNE01.JPG,AFNE01.JPG,5,2,52,7,,,,,,,,,,,,,,,,,,,,,,,AFNE15.jpg,AFSA09.jpg,AFSA02.jpg,AFNE13.jpg,AFSA02.jpg,FS,4,num_2,16,num_2,0.683461682798,,,2017_Jun_23_1757,60.0060818478,FEMA4ImagesEEG,001,200695,
AFNE01.JPG,AFNE01.JPG,AFNE01.JPG,AFNE01.JPG,AFNE01.JPG,AFNE01.JPG,5,3,53,4,,,,,,,,,,,,,,,,,,,,,,,AFSA03.jpg,AFNE06.jpg,AFNE03.jpg,AFSA15.jpg,AFNE06.jpg,FN,3,num_6,16,num_6,0.883427042878,,,2017_Jun_23_1757,60.0060818478,FEMA4ImagesEEG,001,200695,
AFNE01.JPG,AFNE01.JPG,AFNE01.JPG,AFNE01.JPG,AFNE01.JPG,AFNE01.JPG,5,4,54,2,,,,,,,,,,,,,,,,,,,,,,,AFNE20.jpg,AFSA17.jpg,AFSA04.jpg,AFNE13.jpg,AFSA04.jpg,FS,4,num_2,32,num_4,1.20012316416,,,2017_Jun_23_1757,60.0060818478,FEMA4ImagesEEG,001,200695,
AFNE01.JPG,AFNE01.JPG,AFNE01.JPG,AFNE01.JPG,AFNE01.JPG,AFNE01.JPG,5,5,55,3,,,,,,,,,,,,,,,,,,,,,,,AFNE13.jpg,AFSA05.jpg,AFSA08.jpg,AFNE15.jpg,AFSA08.jpg,FS,4,num_2,16,num_2,1.01675160931,,,2017_Jun_23_1757,60.0060818478,FEMA4ImagesEEG,001,200695,
AFNE01.JPG,AFNE01.JPG,AFNE01.JPG,AFNE01.JPG,AFNE01.JPG,AFNE01.JPG,5,6,56,8,,,,,,,,,,,,,,,,,,,,,,,AFNE16.jpg,AFSA07.jpg,AFNE08.jpg,AFSA10.jpg,AFNE16.jpg,FN,3,num_8,16,num_8,0.783502096034,,,2017_Jun_23_1757,60.0060818478,FEMA4ImagesEEG,001,200695,
AFNE01.JPG,AFNE01.JPG,AFNE01.JPG,AFNE01.JPG,AFNE01.JPG,AFNE01.JPG,5,7,57,6,,,,,,,,,,,,,,,,,,,,,,,AFSA08.jpg,AFNE03.jpg,AFNE09.jpg,AFSA04.jpg,AFSA08.jpg,FS,4,num_8,32,num_4,0.750148342253,,,2017_Jun_23_1757,60.0060818478,FEMA4ImagesEEG,001,200695,
AFNE01.JPG,AFNE01.JPG,AFNE01.JPG,AFNE01.JPG,AFNE01.JPG,AFNE01.JPG,5,8,58,9,,,,,,,,,,,,,,,,,,,,,,,AFSA07.jpg,AFNE20.jpg,AFNE11.jpg,AFSA19.jpg,AFNE11.jpg,FN,3,num_2,32,num_4,0.950163737783,,,2017_Jun_23_1757,60.0060818478,FEMA4ImagesEEG,001,200695,
AFNE01.JPG,AFNE01.JPG,AFNE01.JPG,AFNE01.JPG,AFNE01.JPG,AFNE01.JPG,5,9,59,0,,,,,,,,,,,,,,,,,,,,,,,AFNE09.jpg,AFNE12.jpg,AFSA16.jpg,AFSA15.jpg,AFSA16.jpg,FS,4,num_2,32,num_8,1.23352278378,,,2017_Jun_23_1757,60.0060818478,FEMA4ImagesEEG,001,200695,
,,,,,,,,,,,,,,,,,,,,,,,,,,,,,,,,,,,,,,,,,,,space,4.31650560173,2017_Jun_23_1757,60.0060818478,FEMA4ImagesEEG,001,200695,
AFNE01.JPG,AFNE01.JPG,AFNE01.JPG,AFNE01.JPG,AFNE01.JPG,AFNE01.JPG,,,,,0,0,0,6,,,,,,,,,,,,,,,,,,,AMSA04.jpg,AMNE06.jpg,AMNE08.jpg,AMSA08.jpg,AMSA08.jpg,MS,2,num_4,16,num_4,1.06663085071,,,2017_Jun_23_1757,60.0060818478,FEMA4ImagesEEG,001,200695,
AFNE01.JPG,AFNE01.JPG,AFNE01.JPG,AFNE01.JPG,AFNE01.JPG,AFNE01.JPG,,,,,0,1,1,4,,,,,,,,,,,,,,,,,,,AMNE11.jpg,AMSA04.jpg,AMNE08.jpg,AMSA03.jpg,AMNE08.jpg,MN,1,num_2,32,num_8,1.08350241678,,,2017_Jun_23_1757,60.0060818478,FEMA4ImagesEEG,001,200695,
AFNE01.JPG,AFNE01.JPG,AFNE01.JPG,AFNE01.JPG,AFNE01.JPG,AFNE01.JPG,,,,,0,2,2,9,,,,,,,,,,,,,,,,,,,AMSA05.jpg,AMSA07.jpg,AMNE02.jpg,AMNE14.jpg,AMSA05.jpg,MS,2,num_8,32,num_2,0.883444042105,,,2017_Jun_23_1757,60.0060818478,FEMA4ImagesEEG,001,200695,
AFNE01.JPG,AFNE01.JPG,AFNE01.JPG,AFNE01.JPG,AFNE01.JPG,AFNE01.JPG,,,,,0,3,3,2,,,,,,,,,,,,,,,,,,,AMNE12.jpg,AMNE03.jpg,AMSA12.jpg,AMSA09.jpg,AMSA12.jpg,MS,2,num_2,32,num_4,0.966714243099,,,2017_Jun_23_1757,60.0060818478,FEMA4ImagesEEG,001,200695,
AFNE01.JPG,AFNE01.JPG,AFNE01.JPG,AFNE01.JPG,AFNE01.JPG,AFNE01.JPG,,,,,0,4,4,7,,,,,,,,,,,,,,,,,,,AMSA18.jpg,AMNE14.jpg,AMNE07.jpg,AMSA04.jpg,AMNE14.jpg,MN,1,num_6,16,num_6,0.933455749109,,,2017_Jun_23_1757,60.0060818478,FEMA4ImagesEEG,001,200695,
AFNE01.JPG,AFNE01.JPG,AFNE01.JPG,AFNE01.JPG,AFNE01.JPG,AFNE01.JPG,,,,,0,5,5,8,,,,,,,,,,,,,,,,,,,AMNE11.jpg,AMSA02.jpg,AMNE09.jpg,AMSA16.jpg,AMSA02.jpg,MS,2,num_6,32,num_4,1.06681720066,,,2017_Jun_23_1757,60.0060818478,FEMA4ImagesEEG,001,200695,
AFNE01.JPG,AFNE01.JPG,AFNE01.JPG,AFNE01.JPG,AFNE01.JPG,AFNE01.JPG,,,,,0,6,6,5,,,,,,,,,,,,,,,,,,,AMNE04.jpg,AMNE17.jpg,AMSA06.jpg,AMSA14.jpg,AMSA06.jpg,MS,2,num_2,16,num_2,0.916615294816,,,2017_Jun_23_1757,60.0060818478,FEMA4ImagesEEG,001,200695,
AFNE01.JPG,AFNE01.JPG,AFNE01.JPG,AFNE01.JPG,AFNE01.JPG,AFNE01.JPG,,,,,0,7,7,0,,,,,,,,,,,,,,,,,,,AMSA08.jpg,AMNE18.jpg,AMNE07.jpg,AMSA18.jpg,AMSA18.jpg,MS,2,num_4,32,num_8,1.11676796705,,,2017_Jun_23_1757,60.0060818478,FEMA4ImagesEEG,001,200695,
AFNE01.JPG,AFNE01.JPG,AFNE01.JPG,AFNE01.JPG,AFNE01.JPG,AFNE01.JPG,,,,,0,8,8,1,,,,,,,,,,,,,,,,,,,AMSA20.jpg,AMNE07.jpg,AMNE05.jpg,AMSA16.jpg,AMSA20.jpg,MS,2,num_8,32,num_4,0.883503699733,,,2017_Jun_23_1757,60.0060818478,FEMA4ImagesEEG,001,200695,
AFNE01.JPG,AFNE01.JPG,AFNE01.JPG,AFNE01.JPG,AFNE01.JPG,AFNE01.JPG,,,,,0,9,9,3,,,,,,,,,,,,,,,,,,,AMSA11.jpg,AMNE18.jpg,AMSA15.jpg,AMNE10.jpg,AMNE18.jpg,MN,1,num_6,16,num_6,0.583465531687,,,2017_Jun_23_1757,60.0060818478,FEMA4ImagesEEG,001,200695,
AFNE01.JPG,AFNE01.JPG,AFNE01.JPG,AFNE01.JPG,AFNE01.JPG,AFNE01.JPG,,,,,1,0,10,5,,,,,,,,,,,,,,,,,,,AMSA05.jpg,AMSA14.jpg,AMNE06.jpg,AMNE17.jpg,AMNE06.jpg,MN,1,num_2,32,num_4,1.08348477607,,,2017_Jun_23_1757,60.0060818478,FEMA4ImagesEEG,001,200695,
AFNE01.JPG,AFNE01.JPG,AFNE01.JPG,AFNE01.JPG,AFNE01.JPG,AFNE01.JPG,,,,,1,1,11,3,,,,,,,,,,,,,,,,,,,AMSA13.jpg,AMNE12.jpg,AMSA11.jpg,AMNE17.jpg,AMNE17.jpg,MN,1,num_4,16,num_4,0.933484936453,,,2017_Jun_23_1757,60.0060818478,FEMA4ImagesEEG,001,200695,
AFNE01.JPG,AFNE01.JPG,AFNE01.JPG,AFNE01.JPG,AFNE01.JPG,AFNE01.JPG,,,,,1,2,12,6,,,,,,,,,,,,,,,,,,,AMSA13.jpg,AMSA02.jpg,AMNE12.jpg,AMNE14.jpg,AMNE12.jpg,MN,1,num_2,32,num_4,0.666792824399,,,2017_Jun_23_1757,60.0060818478,FEMA4ImagesEEG,001,200695,
AFNE01.JPG,AFNE01.JPG,AFNE01.JPG,AFNE01.JPG,AFNE01.JPG,AFNE01.JPG,,,,,1,3,13,8,,,,,,,,,,,,,,,,,,,AMSA16.jpg,AMSA07.jpg,AMNE01.jpg,AMNE07.jpg,AMNE07.jpg,MN,1,num_4,32,num_8,0.70017287886,,,2017_Jun_23_1757,60.0060818478,FEMA4ImagesEEG,001,200695,
AFNE01.JPG,AFNE01.JPG,AFNE01.JPG,AFNE01.JPG,AFNE01.JPG,AFNE01.JPG,,,,,1,4,14,2,,,,,,,,,,,,,,,,,,,AMNE17.jpg,AMSA01.jpg,AMNE14.jpg,AMSA20.jpg,AMNE14.jpg,MN,1,num_2,16,num_2,1.23345286243,,,2017_Jun_23_1757,60.0060818478,FEMA4ImagesEEG,001,200695,
AFNE01.JPG,AFNE01.JPG,AFNE01.JPG,AFNE01.JPG,AFNE01.JPG,AFNE01.JPG,,,,,1,5,15,1,,,,,,,,,,,,,,,,,,,AMSA15.jpg,AMNE02.jpg,AMSA04.jpg,AMNE13.jpg,AMNE13.jpg,MN,1,num_4,32,num_8,1.06675690152,,,2017_Jun_23_1757,60.0060818478,FEMA4ImagesEEG,001,200695,
AFNE01.JPG,AFNE01.JPG,AFNE01.JPG,AFNE01.JPG,AFNE01.JPG,AFNE01.JPG,,,,,1,6,16,7,,,,,,,,,,,,,,,,,,,AMSA15.jpg,AMNE09.jpg,AMNE06.jpg,AMSA05.jpg,AMSA15.jpg,MS,2,num_8,32,num_2,1.05006944021,,,2017_Jun_23_1757,60.0060818478,FEMA4ImagesEEG,001,200695,
AFNE01.JPG,AFNE01.JPG,AFNE01.JPG,AFNE01.JPG,AFNE01.JPG,AFNE01.JPG,,,,,1,7,17,9,,,,,,,,,,,,,,,,,,,AMSA11.jpg,AMNE11.jpg,AMSA02.jpg,AMNE16.jpg,AMNE16.jpg,MN,1,num_4,16,num_4,1.20011803231,,,2017_Jun_23_1757,60.0060818478,FEMA4ImagesEEG,001,200695,
AFNE01.JPG,AFNE01.JPG,AFNE01.JPG,AFNE01.JPG,AFNE01.JPG,AFNE01.JPG,,,,,1,8,18,0,,,,,,,,,,,,,,,,,,,AMSA06.jpg,AMNE14.jpg,AMSA05.jpg,AMNE20.jpg,AMSA05.jpg,MS,2,num_2,32,num_8,0.750114023074,,,2017_Jun_23_1757,60.0060818478,FEMA4ImagesEEG,001,200695,
AFNE01.JPG,AFNE01.JPG,AFNE01.JPG,AFNE01.JPG,AFNE01.JPG,AFNE01.JPG,,,,,1,9,19,4,,,,,,,,,,,,,,,,,,,AMNE03.jpg,AMSA20.jpg,AMNE19.jpg,AMSA06.jpg,AMSA06.jpg,MS,2,num_4,32,num_6,0.716922884472,,,2017_Jun_23_1757,60.0060818478,FEMA4ImagesEEG,001,200695,
AFNE01.JPG,AFNE01.JPG,AFNE01.JPG,AFNE01.JPG,AFNE01.JPG,AFNE01.JPG,,,,,2,0,20,4,,,,,,,,,,,,,,,,,,,AMNE09.jpg,AMSA11.jpg,AMNE08.jpg,AMSA10.jpg,AMNE08.jpg,MN,1,num_2,16,num_2,0.833458315028,,,2017_Jun_23_1757,60.0060818478,FEMA4ImagesEEG,001,200695,
AFNE01.JPG,AFNE01.JPG,AFNE01.JPG,AFNE01.JPG,AFNE01.JPG,AFNE01.JPG,,,,,2,1,21,5,,,,,,,,,,,,,,,,,,,AMSA02.jpg,AMNE05.jpg,AMSA15.jpg,AMNE13.jpg,AMSA15.jpg,MS,2,num_2,32,num_6,0.800115466409,,,2017_Jun_23_1757,60.0060818478,FEMA4ImagesEEG,001,200695,
AFNE01.JPG,AFNE01.JPG,AFNE01.JPG,AFNE01.JPG,AFNE01.JPG,AFNE01.JPG,,,,,2,2,22,2,,,,,,,,,,,,,,,,,,,AMSA07.jpg,AMSA20.jpg,AMNE08.jpg,AMNE11.jpg,AMNE08.jpg,MN,1,num_2,32,num_4,0.5835162086,,,2017_Jun_23_1757,60.0060818478,FEMA4ImagesEEG,001,200695,
AFNE01.JPG,AFNE01.JPG,AFNE01.JPG,AFNE01.JPG,AFNE01.JPG,AFNE01.JPG,,,,,2,3,23,1,,,,,,,,,,,,,,,,,,,AMSA17.jpg,AMNE19.jpg,AMNE03.jpg,AMSA06.jpg,AMNE03.jpg,MN,1,num_2,32,num_8,0.666633416622,,,2017_Jun_23_1757,60.0060818478,FEMA4ImagesEEG,001,200695,
AFNE01.JPG,AFNE01.JPG,AFNE01.JPG,AFNE01.JPG,AFNE01.JPG,AFNE01.JPG,,,,,2,4,24,8,,,,,,,,,,,,,,,,,,,AMNE02.jpg,AMSA16.jpg,AMSA13.jpg,AMNE19.jpg,AMNE02.jpg,MN,1,num_8,32,num_6,0.633530802268,,,2017_Jun_23_1757,60.0060818478,FEMA4ImagesEEG,001,200695,
AFNE01.JPG,AFNE01.JPG,AFNE01.JPG,AFNE01.JPG,AFNE01.JPG,AFNE01.JPG,,,,,2,5,25,9,,,,,,,,,,,,,,,,,,,AMSA10.jpg,AMSA15.jpg,AMNE11.jpg,AMNE12.jpg,AMSA10.jpg,MS,2,num_8,16,num_8,0.616787532199,,,2017_Jun_23_1757,60.0060818478,FEMA4ImagesEEG,001,200695,
AFNE01.JPG,AFNE01.JPG,AFNE01.JPG,AFNE01.JPG,AFNE01.JPG,AFNE01.JPG,,,,,2,6,26,7,,,,,,,,,,,,,,,,,,,AMSA14.jpg,AMNE03.jpg,AMSA12.jpg,AMNE07.jpg,AMSA12.jpg,MS,2,num_2,16,num_2,0.766838048745,,,2017_Jun_23_1757,60.0060818478,FEMA4ImagesEEG,001,200695,
AFNE01.JPG,AFNE01.JPG,AFNE01.JPG,AFNE01.JPG,AFNE01.JPG,AFNE01.JPG,,,,,2,7,27,0,,,,,,,,,,,,,,,,,,,AMNE10.jpg,AMSA07.jpg,AMSA11.jpg,AMNE09.jpg,AMSA11.jpg,MS,2,num_2,32,num_8,1.91671247903,,,2017_Jun_23_1757,60.0060818478,FEMA4ImagesEEG,001,200695,
AFNE01.JPG,AFNE01.JPG,AFNE01.JPG,AFNE01.JPG,AFNE01.JPG,AFNE01.JPG,,,,,2,8,28,3,,,,,,,,,,,,,,,,,,,AMNE01.jpg,AMSA19.jpg,AMSA05.jpg,AMNE02.jpg,AMNE02.jpg,MN,1,num_4,16,num_4,0.850166303702,,,2017_Jun_23_1757,60.0060818478,FEMA4ImagesEEG,001,200695,
AFNE01.JPG,AFNE01.JPG,AFNE01.JPG,AFNE01.JPG,AFNE01.JPG,AFNE01.JPG,,,,,2,9,29,6,,,,,,,,,,,,,,,,,,,AMNE14.jpg,AMSA08.jpg,AMSA15.jpg,AMNE19.jpg,AMSA15.jpg,MS,2,num_2,32,num_8,0.80011514567,,,2017_Jun_23_1757,60.0060818478,FEMA4ImagesEEG,001,200695,
AFNE01.JPG,AFNE01.JPG,AFNE01.JPG,AFNE01.JPG,AFNE01.JPG,AFNE01.JPG,,,,,3,0,30,3,,,,,,,,,,,,,,,,,,,AMNE18.jpg,AMSA11.jpg,AMNE11.jpg,AMSA18.jpg,AMNE11.jpg,MN,1,num_2,32,num_4,0.599840912953,,,2017_Jun_23_1757,60.0060818478,FEMA4ImagesEEG,001,200695,
AFNE01.JPG,AFNE01.JPG,AFNE01.JPG,AFNE01.JPG,AFNE01.JPG,AFNE01.JPG,,,,,3,1,31,6,,,,,,,,,,,,,,,,,,,AMNE01.jpg,AMNE14.jpg,AMSA06.jpg,AMSA03.jpg,AMSA03.jpg,MS,2,num_4,16,num_4,1.16678833404,,,2017_Jun_23_1757,60.0060818478,FEMA4ImagesEEG,001,200695,
AFNE01.JPG,AFNE01.JPG,AFNE01.JPG,AFNE01.JPG,AFNE01.JPG,AFNE01.JPG,,,,,3,2,32,7,,,,,,,,,,,,,,,,,,,AMNE03.jpg,AMSA02.jpg,AMSA19.jpg,AMNE18.jpg,AMSA19.jpg,MS,2,num_2,32,num_8,0.733479483853,,,2017_Jun_23_1757,60.0060818478,FEMA4ImagesEEG,001,200695,
AFNE01.JPG,AFNE01.JPG,AFNE01.JPG,AFNE01.JPG,AFNE01.JPG,AFNE01.JPG,,,,,3,3,33,2,,,,,,,,,,,,,,,,,,,AMNE16.jpg,AMSA06.jpg,AMNE14.jpg,AMSA20.jpg,AMSA06.jpg,MS,2,num_6,32,num_8,1.20012188121,,,2017_Jun_23_1757,60.0060818478,FEMA4ImagesEEG,001,200695,
AFNE01.JPG,AFNE01.JPG,AFNE01.JPG,AFNE01.JPG,AFNE01.JPG,AFNE01.JPG,,,,,3,4,34,0,,,,,,,,,,,,,,,,,,,AMSA07.jpg,AMNE15.jpg,AMSA11.jpg,AMNE06.jpg,AMNE15.jpg,MN,1,num_6,16,num_6,1.93333867901,,,2017_Jun_23_1757,60.0060818478,FEMA4ImagesEEG,001,200695,
AFNE01.JPG,AFNE01.JPG,AFNE01.JPG,AFNE01.JPG,AFNE01.JPG,AFNE01.JPG,,,,,3,5,35,8,,,,,,,,,,,,,,,,,,,AMSA18.jpg,AMSA15.jpg,AMNE10.jpg,AMNE15.jpg,AMSA15.jpg,MS,2,num_6,32,num_8,0.800195009928,,,2017_Jun_23_1757,60.0060818478,FEMA4ImagesEEG,001,200695,
AFNE01.JPG,AFNE01.JPG,AFNE01.JPG,AFNE01.JPG,AFNE01.JPG,AFNE01.JPG,,,,,3,6,36,9,,,,,,,,,,,,,,,,,,,AMNE03.jpg,AMSA03.jpg,AMSA15.jpg,AMNE16.jpg,AMSA03.jpg,MS,2,num_6,16,num_6,0.616781758872,,,2017_Jun_23_1757,60.0060818478,FEMA4ImagesEEG,001,200695,
AFNE01.JPG,AFNE01.JPG,AFNE01.JPG,AFNE01.JPG,AFNE01.JPG,AFNE01.JPG,,,,,3,7,37,5,,,,,,,,,,,,,,,,,,,AMSA05.jpg,AMNE17.jpg,AMSA04.jpg,AMNE15.jpg,AMNE15.jpg,MN,1,num_4,16,num_4,0.933467937226,,,2017_Jun_23_1757,60.0060818478,FEMA4ImagesEEG,001,200695,
AFNE01.JPG,AFNE01.JPG,AFNE01.JPG,AFNE01.JPG,AFNE01.JPG,AFNE01.JPG,,,,,3,8,38,1,,,,,,,,,,,,,,,,,,,AMSA18.jpg,AMNE03.jpg,AMSA03.jpg,AMNE11.jpg,AMNE11.jpg,MN,1,num_4,32,num_8,0.550025819568,,,2017_Jun_23_1757,60.0060818478,FEMA4ImagesEEG,001,200695,
AFNE01.JPG,AFNE01.JPG,AFNE01.JPG,AFNE01.JPG,AFNE01.JPG,AFNE01.JPG,,,,,3,9,39,4,,,,,,,,,,,,,,,,,,,AMNE01.jpg,AMSA12.jpg,AMSA18.jpg,AMNE04.jpg,AMNE04.jpg,MN,1,num_4,32,num_2,0.566839331703,,,2017_Jun_23_1757,60.0060818478,FEMA4ImagesEEG,001,200695,
AFNE01.JPG,AFNE01.JPG,AFNE01.JPG,AFNE01.JPG,AFNE01.JPG,AFNE01.JPG,,,,,4,0,40,1,,,,,,,,,,,,,,,,,,,AMNE18.jpg,AMSA15.jpg,AMNE02.jpg,AMSA14.jpg,AMNE02.jpg,MN,1,num_2,32,num_4,0.950117230474,,,2017_Jun_23_1757,60.0060818478,FEMA4ImagesEEG,001,200695,
AFNE01.JPG,AFNE01.JPG,AFNE01.JPG,AFNE01.JPG,AFNE01.JPG,AFNE01.JPG,,,,,4,1,41,6,,,,,,,,,,,,,,,,,,,AMNE02.jpg,AMNE17.jpg,AMSA14.jpg,AMSA12.jpg,AMNE02.jpg,MN,1,num_8,32,num_2,0.75011626826,,,2017_Jun_23_1757,60.0060818478,FEMA4ImagesEEG,001,200695,
AFNE01.JPG,AFNE01.JPG,AFNE01.JPG,AFNE01.JPG,AFNE01.JPG,AFNE01.JPG,,,,,4,2,42,8,,,,,,,,,,,,,,,,,,,AMNE20.jpg,AMNE18.jpg,AMSA12.jpg,AMSA19.jpg,AMNE18.jpg,MN,1,num_6,32,num_4,0.650119796395,,,2017_Jun_23_1757,60.0060818478,FEMA4ImagesEEG,001,200695,
AFNE01.JPG,AFNE01.JPG,AFNE01.JPG,AFNE01.JPG,AFNE01.JPG,AFNE01.JPG,,,,,4,3,43,3,,,,,,,,,,,,,,,,,,,AMNE20.jpg,AMSA08.jpg,AMNE03.jpg,AMSA07.jpg,AMNE03.jpg,MN,1,num_2,32,num_8,0.650160851117,,,2017_Jun_23_1757,60.0060818478,FEMA4ImagesEEG,001,200695,
AFNE01.JPG,AFNE01.JPG,AFNE01.JPG,AFNE01.JPG,AFNE01.JPG,AFNE01.JPG,,,,,4,4,44,0,,,,,,,,,,,,,,,,,,,AMSA19.jpg,AMNE19.jpg,AMSA06.jpg,AMNE06.jpg,AMSA06.jpg,MS,2,num_2,16,num_2,0.566870443494,,,2017_Jun_23_1757,60.0060818478,FEMA4ImagesEEG,001,200695,
AFNE01.JPG,AFNE01.JPG,AFNE01.JPG,AFNE01.JPG,AFNE01.JPG,AFNE01.JPG,,,,,4,5,45,2,,,,,,,,,,,,,,,,,,,AMNE13.jpg,AMNE12.jpg,AMSA01.jpg,AMSA05.jpg,AMSA01.jpg,MS,2,num_2,32,num_4,0.866728997149,,,2017_Jun_23_1757,60.0060818478,FEMA4ImagesEEG,001,200695,
AFNE01.JPG,AFNE01.JPG,AFNE01.JPG,AFNE01.JPG,AFNE01.JPG,AFNE01.JPG,,,,,4,6,46,5,,,,,,,,,,,,,,,,,,,AMNE10.jpg,AMSA18.jpg,AMSA05.jpg,AMNE05.jpg,AMSA18.jpg,MS,2,num_6,32,num_2,0.566787371819,,,2017_Jun_23_1757,60.0060818478,FEMA4ImagesEEG,001,200695,
AFNE01.JPG,AFNE01.JPG,AFNE01.JPG,AFNE01.JPG,AFNE01.JPG,AFNE01.JPG,,,,,4,7,47,7,,,,,,,,,,,,,,,,,,,AMSA08.jpg,AMNE08.jpg,AMSA06.jpg,AMNE04.jpg,AMNE04.jpg,MN,1,num_4,32,num_8,1.25005051655,,,2017_Jun_23_1757,60.0060818478,FEMA4ImagesEEG,001,200695,
AFNE01.JPG,AFNE01.JPG,AFNE01.JPG,AFNE01.JPG,AFNE01.JPG,AFNE01.JPG,,,,,4,8,48,4,,,,,,,,,,,,,,,,,,,AMNE05.jpg,AMNE19.jpg,AMSA02.jpg,AMSA06.jpg,AMSA06.jpg,MS,2,num_4,16,num_4,1.13348621941,,,2017_Jun_23_1757,60.0060818478,FEMA4ImagesEEG,001,200695,
AFNE01.JPG,AFNE01.JPG,AFNE01.JPG,AFNE01.JPG,AFNE01.JPG,AFNE01.JPG,,,,,4,9,49,9,,,,,,,,,,,,,,,,,,,AMSA04.jpg,AMNE16.jpg,AMSA14.jpg,AMNE19.jpg,AMSA14.jpg,MS,2,num_2,32,num_8,1.4667431097,,,2017_Jun_23_1757,60.0060818478,FEMA4ImagesEEG,001,200695,
AFNE01.JPG,AFNE01.JPG,AFNE01.JPG,AFNE01.JPG,AFNE01.JPG,AFNE01.JPG,,,,,5,0,50,4,,,,,,,,,,,,,,,,,,,AMNE15.jpg,AMSA09.jpg,AMSA07.jpg,AMNE11.jpg,AMNE11.jpg,MN,1,num_4,32,num_2,1.05008996757,,,2017_Jun_23_1757,60.0060818478,FEMA4ImagesEEG,001,200695,
AFNE01.JPG,AFNE01.JPG,AFNE01.JPG,AFNE01.JPG,AFNE01.JPG,AFNE01.JPG,,,,,5,1,51,6,,,,,,,,,,,,,,,,,,,AMNE18.jpg,AMNE09.jpg,AMSA11.jpg,AMSA15.jpg,AMSA11.jpg,MS,2,num_2,32,num_4,1.61669612129,,,2017_Jun_23_1757,60.0060818478,FEMA4ImagesEEG,001,200695,
AFNE01.JPG,AFNE01.JPG,AFNE01.JPG,AFNE01.JPG,AFNE01.JPG,AFNE01.JPG,,,,,5,2,52,1,,,,,,,,,,,,,,,,,,,AMSA12.jpg,AMNE09.jpg,AMNE19.jpg,AMSA08.jpg,AMSA08.jpg,MS,2,num_4,32,num_8,1.01675289228,,,2017_Jun_23_1757,60.0060818478,FEMA4ImagesEEG,001,200695,
AFNE01.JPG,AFNE01.JPG,AFNE01.JPG,AFNE01.JPG,AFNE01.JPG,AFNE01.JPG,,,,,5,3,53,8,,,,,,,,,,,,,,,,,,,AMNE01.jpg,AMNE04.jpg,AMSA14.jpg,AMSA05.jpg,AMNE01.jpg,MN,1,num_8,32,num_2,1.01678977738,,,2017_Jun_23_1757,60.0060818478,FEMA4ImagesEEG,001,200695,
AFNE01.JPG,AFNE01.JPG,AFNE01.JPG,AFNE01.JPG,AFNE01.JPG,AFNE01.JPG,,,,,5,4,54,3,,,,,,,,,,,,,,,,,,,AMSA06.jpg,AMNE18.jpg,AMSA18.jpg,AMNE19.jpg,AMNE18.jpg,MN,1,num_6,32,num_4,0.800126371571,,,2017_Jun_23_1757,60.0060818478,FEMA4ImagesEEG,001,200695,
AFNE01.JPG,AFNE01.JPG,AFNE01.JPG,AFNE01.JPG,AFNE01.JPG,AFNE01.JPG,,,,,5,5,55,5,,,,,,,,,,,,,,,,,,,AMNE06.jpg,AMNE14.jpg,AMSA18.jpg,AMSA03.jpg,AMSA03.jpg,MS,2,num_4,16,num_4,0.883507227874,,,2017_Jun_23_1757,60.0060818478,FEMA4ImagesEEG,001,200695,
AFNE01.JPG,AFNE01.JPG,AFNE01.JPG,AFNE01.JPG,AFNE01.JPG,AFNE01.JPG,,,,,5,6,56,9,,,,,,,,,,,,,,,,,,,AMNE07.jpg,AMSA03.jpg,AMNE18.jpg,AMSA12.jpg,AMSA03.jpg,MS,2,num_6,16,num_6,0.550208641376,,,2017_Jun_23_1757,60.0060818478,FEMA4ImagesEEG,001,200695,
AFNE01.JPG,AFNE01.JPG,AFNE01.JPG,AFNE01.JPG,AFNE01.JPG,AFNE01.JPG,,,,,5,7,57,7,,,,,,,,,,,,,,,,,,,AMSA09.jpg,AMSA12.jpg,AMNE15.jpg,AMNE09.jpg,AMSA09.jpg,MS,2,num_8,32,num_4,0.866768768901,,,2017_Jun_23_1757,60.0060818478,FEMA4ImagesEEG,001,200695,
AFNE01.JPG,AFNE01.JPG,AFNE01.JPG,AFNE01.JPG,AFNE01.JPG,AFNE01.JPG,,,,,5,8,58,0,,,,,,,,,,,,,,,,,,,AMNE11.jpg,AMSA19.jpg,AMNE17.jpg,AMSA20.jpg,AMSA20.jpg,MS,2,num_4,16,num_4,0.816821530636,,,2017_Jun_23_1757,60.0060818478,FEMA4ImagesEEG,001,200695,
AFNE01.JPG,AFNE01.JPG,AFNE01.JPG,AFNE01.JPG,AFNE01.JPG,AFNE01.JPG,,,,,5,9,59,2,,,,,,,,,,,,,,,,,,,AMNE18.jpg,AMSA06.jpg,AMNE03.jpg,AMSA16.jpg,AMSA16.jpg,MS,2,num_4,16,num_4,1.0833968933,,,2017_Jun_23_1757,60.0060818478,FEMA4ImagesEEG,001,200695,
,,,,,,,,,,,,,,,,,,,,,,,,,,,,,,,,,,,,,,,,,,,space,5.54983369631,2017_Jun_23_1757,60.0060818478,FEMA4ImagesEEG,001,200695,
AFNE01.JPG,AFNE01.JPG,AFNE01.JPG,AFNE01.JPG,AFNE01.JPG,AFNE01.JPG,,,,,,,,,0,0,0,2,,,,,,,,,,,,,,,AFSA01.jpg,AFNE02.jpg,AFSA12.jpg,AFNE16.jpg,AFNE02.jpg,FN,3,num_6,32,num_4,0.816789456629,,,2017_Jun_23_1757,60.0060818478,FEMA4ImagesEEG,001,200695,
AFNE01.JPG,AFNE01.JPG,AFNE01.JPG,AFNE01.JPG,AFNE01.JPG,AFNE01.JPG,,,,,,,,,0,1,1,8,,,,,,,,,,,,,,,AFSA18.jpg,AFSA10.jpg,AFNE10.jpg,AFNE20.jpg,AFSA10.jpg,FS,4,num_6,32,num_8,0.61680485215,,,2017_Jun_23_1757,60.0060818478,FEMA4ImagesEEG,001,200695,
AFNE01.JPG,AFNE01.JPG,AFNE01.JPG,AFNE01.JPG,AFNE01.JPG,AFNE01.JPG,,,,,,,,,0,2,2,6,,,,,,,,,,,,,,,AFNE12.jpg,AFSA16.jpg,AFNE20.jpg,AFSA13.jpg,AFNE12.jpg,FN,3,num_8,32,num_2,0.950135512656,,,2017_Jun_23_1757,60.0060818478,FEMA4ImagesEEG,001,200695,
AFNE01.JPG,AFNE01.JPG,AFNE01.JPG,AFNE01.JPG,AFNE01.JPG,AFNE01.JPG,,,,,,,,,0,3,3,9,,,,,,,,,,,,,,,AFNE19.jpg,AFSA02.jpg,AFNE09.jpg,AFSA12.jpg,AFNE09.jpg,FN,3,num_2,32,num_8,0.566775183703,,,2017_Jun_23_1757,60.0060818478,FEMA4ImagesEEG,001,200695,
AFNE01.JPG,AFNE01.JPG,AFNE01.JPG,AFNE01.JPG,AFNE01.JPG,AFNE01.JPG,,,,,,,,,0,4,4,5,,,,,,,,,,,,,,,AFSA02.jpg,AFNE16.jpg,AFNE19.jpg,AFSA01.jpg,AFNE19.jpg,FN,3,num_2,16,num_2,1.11676411817,,,2017_Jun_23_1757,60.0060818478,FEMA4ImagesEEG,001,200695,
AFNE01.JPG,AFNE01.JPG,AFNE01.JPG,AFNE01.JPG,AFNE01.JPG,AFNE01.JPG,,,,,,,,,0,5,5,1,,,,,,,,,,,,,,,AFNE02.jpg,AFSA15.jpg,AFNE14.jpg,AFSA06.jpg,AFNE14.jpg,FN,3,num_2,32,num_4,3.166597173,,,2017_Jun_23_1757,60.0060818478,FEMA4ImagesEEG,001,200695,
AFNE01.JPG,AFNE01.JPG,AFNE01.JPG,AFNE01.JPG,AFNE01.JPG,AFNE01.JPG,,,,,,,,,0,6,6,3,,,,,,,,,,,,,,,AFSA19.jpg,AFSA15.jpg,AFNE13.jpg,AFNE15.jpg,AFNE15.jpg,FN,3,num_4,32,num_6,0.71641771897,,,2017_Jun_23_1757,60.0060818478,FEMA4ImagesEEG,001,200695,
AFNE01.JPG,AFNE01.JPG,AFNE01.JPG,AFNE01.JPG,AFNE01.JPG,AFNE01.JPG,,,,,,,,,0,7,7,7,,,,,,,,,,,,,,,AFSA06.jpg,AFSA09.jpg,AFNE13.jpg,AFNE08.jpg,AFSA09.jpg,FS,4,num_6,32,num_8,0.93348846458,,,2017_Jun_23_1757,60.0060818478,FEMA4ImagesEEG,001,200695,
AFNE01.JPG,AFNE01.JPG,AFNE01.JPG,AFNE01.JPG,AFNE01.JPG,AFNE01.JPG,,,,,,,,,0,8,8,0,,,,,,,,,,,,,,,AFSA03.jpg,AFNE16.jpg,AFNE15.jpg,AFSA11.jpg,AFNE15.jpg,FN,3,num_2,32,num_6,1.09990249503,,,2017_Jun_23_1757,60.0060818478,FEMA4ImagesEEG,001,200695,
AFNE01.JPG,AFNE01.JPG,AFNE01.JPG,AFNE01.JPG,AFNE01.JPG,AFNE01.JPG,,,,,,,,,0,9,9,4,,,,,,,,,,,,,,,AFNE18.jpg,AFSA20.jpg,AFSA19.jpg,AFNE04.jpg,AFSA20.jpg,FS,4,num_6,16,num_6,0.900166143329,,,2017_Jun_23_1757,60.0060818478,FEMA4ImagesEEG,001,200695,
AFNE01.JPG,AFNE01.JPG,AFNE01.JPG,AFNE01.JPG,AFNE01.JPG,AFNE01.JPG,,,,,,,,,1,0,10,4,,,,,,,,,,,,,,,AFSA11.jpg,AFSA10.jpg,AFNE13.jpg,AFNE01.jpg,AFSA11.jpg,FS,4,num_8,16,num_8,1.45004474322,,,2017_Jun_23_1757,60.0060818478,FEMA4ImagesEEG,001,200695,
AFNE01.JPG,AFNE01.JPG,AFNE01.JPG,AFNE01.JPG,AFNE01.JPG,AFNE01.JPG,,,,,,,,,1,1,11,7,,,,,,,,,,,,,,,AFSA09.jpg,AFNE02.jpg,AFNE18.jpg,AFSA08.jpg,AFSA08.jpg,FS,4,num_4,16,num_4,1.2502833738,,,2017_Jun_23_1757,60.0060818478,FEMA4ImagesEEG,001,200695,
AFNE01.JPG,AFNE01.JPG,AFNE01.JPG,AFNE01.JPG,AFNE01.JPG,AFNE01.JPG,,,,,,,,,1,2,12,3,,,,,,,,,,,,,,,AFSA05.jpg,AFNE15.jpg,AFSA02.jpg,AFNE04.jpg,AFNE04.jpg,FN,3,num_4,32,num_6,1.03347371054,,,2017_Jun_23_1757,60.0060818478,FEMA4ImagesEEG,001,200695,
AFNE01.JPG,AFNE01.JPG,AFNE01.JPG,AFNE01.JPG,AFNE01.JPG,AFNE01.JPG,,,,,,,,,1,3,13,2,,,,,,,,,,,,,,,AFSA10.jpg,AFNE07.jpg,AFSA13.jpg,AFNE20.jpg,AFNE20.jpg,FN,3,num_4,32,num_6,1.38311913247,,,2017_Jun_23_1757,60.0060818478,FEMA4ImagesEEG,001,200695,
AFNE01.JPG,AFNE01.JPG,AFNE01.JPG,AFNE01.JPG,AFNE01.JPG,AFNE01.JPG,,,,,,,,,1,4,14,9,,,,,,,,,,,,,,,AFNE02.jpg,AFSA11.jpg,AFNE10.jpg,AFSA12.jpg,AFSA12.jpg,FS,4,num_4,16,num_4,0.900149144116,,,2017_Jun_23_1757,60.0060818478,FEMA4ImagesEEG,001,200695,
AFNE01.JPG,AFNE01.JPG,AFNE01.JPG,AFNE01.JPG,AFNE01.JPG,AFNE01.JPG,,,,,,,,,1,5,15,8,,,,,,,,,,,,,,,AFSA18.jpg,AFNE06.jpg,AFNE12.jpg,AFSA16.jpg,AFSA18.jpg,FS,4,num_8,32,num_6,1.26673541193,,,2017_Jun_23_1757,60.0060818478,FEMA4ImagesEEG,001,200695,
AFNE01.JPG,AFNE01.JPG,AFNE01.JPG,AFNE01.JPG,AFNE01.JPG,AFNE01.JPG,,,,,,,,,1,6,16,0,,,,,,,,,,,,,,,AFSA12.jpg,AFSA02.jpg,AFNE14.jpg,AFNE18.jpg,AFNE14.jpg,FN,3,num_2,32,num_8,0.700154275954,,,2017_Jun_23_1757,60.0060818478,FEMA4ImagesEEG,001,200695,
AFNE01.JPG,AFNE01.JPG,AFNE01.JPG,AFNE01.JPG,AFNE01.JPG,AFNE01.JPG,,,,,,,,,1,7,17,5,,,,,,,,,,,,,,,AFSA15.jpg,AFNE10.jpg,AFSA18.jpg,AFNE02.jpg,AFSA15.jpg,FS,4,num_8,32,num_6,0.766757863734,,,2017_Jun_23_1757,60.0060818478,FEMA4ImagesEEG,001,200695,
AFNE01.JPG,AFNE01.JPG,AFNE01.JPG,AFNE01.JPG,AFNE01.JPG,AFNE01.JPG,,,,,,,,,1,8,18,1,,,,,,,,,,,,,,,AFSA15.jpg,AFNE06.jpg,AFNE07.jpg,AFSA11.jpg,AFNE06.jpg,FN,3,num_6,16,num_6,0.950087722405,,,2017_Jun_23_1757,60.0060818478,FEMA4ImagesEEG,001,200695,
AFNE01.JPG,AFNE01.JPG,AFNE01.JPG,AFNE01.JPG,AFNE01.JPG,AFNE01.JPG,,,,,,,,,1,9,19,6,,,,,,,,,,,,,,,AFNE01.jpg,AFSA04.jpg,AFNE16.jpg,AFSA03.jpg,AFSA03.jpg,FS,4,num_4,32,num_2,0.866802446602,,,2017_Jun_23_1757,60.0060818478,FEMA4ImagesEEG,001,200695,
AFNE01.JPG,AFNE01.JPG,AFNE01.JPG,AFNE01.JPG,AFNE01.JPG,AFNE01.JPG,,,,,,,,,2,0,20,7,,,,,,,,,,,,,,,AFSA09.jpg,AFNE16.jpg,AFNE07.jpg,AFSA14.jpg,AFNE16.jpg,FN,3,num_6,16,num_6,0.850187793272,,,2017_Jun_23_1757,60.0060818478,FEMA4ImagesEEG,001,200695,
AFNE01.JPG,AFNE01.JPG,AFNE01.JPG,AFNE01.JPG,AFNE01.JPG,AFNE01.JPG,,,,,,,,,2,1,21,8,,,,,,,,,,,,,,,AFNE17.jpg,AFNE13.jpg,AFSA15.jpg,AFSA19.jpg,AFSA15.jpg,FS,4,num_2,16,num_2,0.850137437083,,,2017_Jun_23_1757,60.0060818478,FEMA4ImagesEEG,001,200695,
AFNE01.JPG,AFNE01.JPG,AFNE01.JPG,AFNE01.JPG,AFNE01.JPG,AFNE01.JPG,,,,,,,,,2,2,22,6,,,,,,,,,,,,,,,AFNE14.jpg,AFSA15.jpg,AFNE03.jpg,AFSA16.jpg,AFNE14.jpg,FN,3,num_8,32,num_4,1.40022259357,,,2017_Jun_23_1757,60.0060818478,FEMA4ImagesEEG,001,200695,
AFNE01.JPG,AFNE01.JPG,AFNE01.JPG,AFNE01.JPG,AFNE01.JPG,AFNE01.JPG,,,,,,,,,2,3,23,3,,,,,,,,,,,,,,,AFNE07.jpg,AFSA13.jpg,AFNE17.jpg,AFSA10.jpg,AFNE07.jpg,FN,3,num_8,16,num_8,0.616813191387,,,2017_Jun_23_1757,60.0060818478,FEMA4ImagesEEG,001,200695,
AFNE01.JPG,AFNE01.JPG,AFNE01.JPG,AFNE01.JPG,AFNE01.JPG,AFNE01.JPG,,,,,,,,,2,4,24,5,,,,,,,,,,,,,,,AFNE20.jpg,AFNE04.jpg,AFSA19.jpg,AFSA17.jpg,AFNE20.jpg,FN,3,num_8,32,num_6,0.633442919512,,,2017_Jun_23_1757,60.0060818478,FEMA4ImagesEEG,001,200695,
AFNE01.JPG,AFNE01.JPG,AFNE01.JPG,AFNE01.JPG,AFNE01.JPG,AFNE01.JPG,,,,,,,,,2,5,25,2,,,,,,,,,,,,,,,AFSA15.jpg,AFNE06.jpg,AFNE19.jpg,AFSA01.jpg,AFNE19.jpg,FN,3,num_2,32,num_4,0.783457513186,,,2017_Jun_23_1757,60.0060818478,FEMA4ImagesEEG,001,200695,
AFNE01.JPG,AFNE01.JPG,AFNE01.JPG,AFNE01.JPG,AFNE01.JPG,AFNE01.JPG,,,,,,,,,2,6,26,1,,,,,,,,,,,,,,,AFSA09.jpg,AFNE18.jpg,AFSA17.jpg,AFNE20.jpg,AFSA17.jpg,FS,4,num_2,16,num_2,0.833448372083,,,2017_Jun_23_1757,60.0060818478,FEMA4ImagesEEG,001,200695,
AFNE01.JPG,AFNE01.JPG,AFNE01.JPG,AFNE01.JPG,AFNE01.JPG,AFNE01.JPG,,,,,,,,,2,7,27,0,,,,,,,,,,,,,,,AFNE09.jpg,AFSA13.jpg,AFNE07.jpg,AFSA04.jpg,AFNE09.jpg,FN,3,num_8,16,num_8,0.750134229704,,,2017_Jun_23_1757,60.0060818478,FEMA4ImagesEEG,001,200695,
AFNE01.JPG,AFNE01.JPG,AFNE01.JPG,AFNE01.JPG,AFNE01.JPG,AFNE01.JPG,,,,,,,,,2,8,28,9,,,,,,,,,,,,,,,AFNE18.jpg,AFNE06.jpg,AFSA18.jpg,AFSA20.jpg,AFNE06.jpg,FN,3,num_6,32,num_8,0.816761231516,,,2017_Jun_23_1757,60.0060818478,FEMA4ImagesEEG,001,200695,
AFNE01.JPG,AFNE01.JPG,AFNE01.JPG,AFNE01.JPG,AFNE01.JPG,AFNE01.JPG,,,,,,,,,2,9,29,4,,,,,,,,,,,,,,,AFNE18.jpg,AFNE12.jpg,AFSA12.jpg,AFSA18.jpg,AFSA12.jpg,FS,4,num_2,16,num_2,1.2000817887,,,2017_Jun_23_1757,60.0060818478,FEMA4ImagesEEG,001,200695,
AFNE01.JPG,AFNE01.JPG,AFNE01.JPG,AFNE01.JPG,AFNE01.JPG,AFNE01.JPG,,,,,,,,,3,0,30,6,,,,,,,,,,,,,,,AFSA02.jpg,AFNE01.jpg,AFSA14.jpg,AFNE07.jpg,AFSA02.jpg,FS,4,num_8,32,num_6,0.784009506737,,,2017_Jun_23_1757,60.0060818478,FEMA4ImagesEEG,001,200695,
AFNE01.JPG,AFNE01.JPG,AFNE01.JPG,AFNE01.JPG,AFNE01.JPG,AFNE01.JPG,,,,,,,,,3,1,31,7,,,,,,,,,,,,,,,AFSA17.jpg,AFNE15.jpg,AFNE05.jpg,AFSA16.jpg,AFSA17.jpg,FS,4,num_8,32,num_4,0.716755137459,,,2017_Jun_23_1757,60.0060818478,FEMA4ImagesEEG,001,200695,
AFNE01.JPG,AFNE01.JPG,AFNE01.JPG,AFNE01.JPG,AFNE01.JPG,AFNE01.JPG,,,,,,,,,3,2,32,4,,,,,,,,,,,,,,,AFSA01.jpg,AFNE19.jpg,AFSA08.jpg,AFNE05.jpg,AFNE19.jpg,FN,3,num_6,32,num_4,0.650163737781,,,2017_Jun_23_1757,60.0060818478,FEMA4ImagesEEG,001,200695,
AFNE01.JPG,AFNE01.JPG,AFNE01.JPG,AFNE01.JPG,AFNE01.JPG,AFNE01.JPG,,,,,,,,,3,3,33,3,,,,,,,,,,,,,,,AFNE07.jpg,AFSA12.jpg,AFSA03.jpg,AFNE11.jpg,AFNE11.jpg,FN,3,num_4,32,num_8,0.549992141867,,,2017_Jun_23_1757,60.0060818478,FEMA4ImagesEEG,001,200695,
AFNE01.JPG,AFNE01.JPG,AFNE01.JPG,AFNE01.JPG,AFNE01.JPG,AFNE01.JPG,,,,,,,,,3,4,34,0,,,,,,,,,,,,,,,AFSA18.jpg,AFNE07.jpg,AFSA03.jpg,AFNE03.jpg,AFSA18.jpg,FS,4,num_8,32,num_4,0.783444362838,,,2017_Jun_23_1757,60.0060818478,FEMA4ImagesEEG,001,200695,
AFNE01.JPG,AFNE01.JPG,AFNE01.JPG,AFNE01.JPG,AFNE01.JPG,AFNE01.JPG,,,,,,,,,3,5,35,9,,,,,,,,,,,,,,,AFNE20.jpg,AFNE09.jpg,AFSA16.jpg,AFSA13.jpg,AFNE20.jpg,FN,3,num_8,32,num_6,0.683433136932,,,2017_Jun_23_1757,60.0060818478,FEMA4ImagesEEG,001,200695,
AFNE01.JPG,AFNE01.JPG,AFNE01.JPG,AFNE01.JPG,AFNE01.JPG,AFNE01.JPG,,,,,,,,,3,6,36,5,,,,,,,,,,,,,,,AFSA04.jpg,AFNE15.jpg,AFSA02.jpg,AFNE03.jpg,AFSA04.jpg,FS,4,num_8,32,num_4,1.34993344644,,,2017_Jun_23_1757,60.0060818478,FEMA4ImagesEEG,001,200695,
AFNE01.JPG,AFNE01.JPG,AFNE01.JPG,AFNE01.JPG,AFNE01.JPG,AFNE01.JPG,,,,,,,,,3,7,37,8,,,,,,,,,,,,,,,AFNE01.jpg,AFSA13.jpg,AFSA08.jpg,AFNE08.jpg,AFNE01.jpg,FN,3,num_8,32,num_2,0.733508350473,,,2017_Jun_23_1757,60.0060818478,FEMA4ImagesEEG,001,200695,
AFNE01.JPG,AFNE01.JPG,AFNE01.JPG,AFNE01.JPG,AFNE01.JPG,AFNE01.JPG,,,,,,,,,3,8,38,2,,,,,,,,,,,,,,,AFSA01.jpg,AFSA17.jpg,AFNE05.jpg,AFNE13.jpg,AFNE13.jpg,FN,3,num_4,16,num_4,1.01679619217,,,2017_Jun_23_1757,60.0060818478,FEMA4ImagesEEG,001,200695,
AFNE01.JPG,AFNE01.JPG,AFNE01.JPG,AFNE01.JPG,AFNE01.JPG,AFNE01.JPG,,,,,,,,,3,9,39,1,,,,,,,,,,,,,,,AFNE08.jpg,AFSA18.jpg,AFNE16.jpg,AFSA20.jpg,AFSA20.jpg,FS,4,num_4,32,num_6,0.78352583079,,,2017_Jun_23_1757,60.0060818478,FEMA4ImagesEEG,001,200695,
AFNE01.JPG,AFNE01.JPG,AFNE01.JPG,AFNE01.JPG,AFNE01.JPG,AFNE01.JPG,,,,,,,,,4,0,40,1,,,,,,,,,,,,,,,AFSA02.jpg,AFSA16.jpg,AFNE20.jpg,AFNE15.jpg,AFSA02.jpg,FS,4,num_8,32,num_6,1.03343169359,,,2017_Jun_23_1757,60.0060818478,FEMA4ImagesEEG,001,200695,
AFNE01.JPG,AFNE01.JPG,AFNE01.JPG,AFNE01.JPG,AFNE01.JPG,AFNE01.JPG,,,,,,,,,4,1,41,0,,,,,,,,,,,,,,,AFSA20.jpg,AFNE06.jpg,AFNE09.jpg,AFSA12.jpg,AFSA12.jpg,FS,4,num_4,16,num_4,0.566808540665,,,2017_Jun_23_1757,60.0060818478,FEMA4ImagesEEG,001,200695,
AFNE01.JPG,AFNE01.JPG,AFNE01.JPG,AFNE01.JPG,AFNE01.JPG,AFNE01.JPG,,,,,,,,,4,2,42,6,,,,,,,,,,,,,,,AFSA02.jpg,AFSA09.jpg,AFNE07.jpg,AFNE13.jpg,AFNE07.jpg,FN,3,num_2,32,num_8,1.31679619219,,,2017_Jun_23_1757,60.0060818478,FEMA4ImagesEEG,001,200695,
AFNE01.JPG,AFNE01.JPG,AFNE01.JPG,AFNE01.JPG,AFNE01.JPG,AFNE01.JPG,,,,,,,,,4,3,43,4,,,,,,,,,,,,,,,AFSA18.jpg,AFNE02.jpg,AFNE15.jpg,AFSA20.jpg,AFSA18.jpg,FS,4,num_8,32,num_4,0.900146898915,,,2017_Jun_23_1757,60.0060818478,FEMA4ImagesEEG,001,200695,
AFNE01.JPG,AFNE01.JPG,AFNE01.JPG,AFNE01.JPG,AFNE01.JPG,AFNE01.JPG,,,,,,,,,4,4,44,9,,,,,,,,,,,,,,,AFSA17.jpg,AFNE03.jpg,AFNE01.jpg,AFSA12.jpg,AFNE03.jpg,FN,3,num_6,32,num_8,0.800119636027,,,2017_Jun_23_1757,60.0060818478,FEMA4ImagesEEG,001,200695,
AFNE01.JPG,AFNE01.JPG,AFNE01.JPG,AFNE01.JPG,AFNE01.JPG,AFNE01.JPG,,,,,,,,,4,5,45,7,,,,,,,,,,,,,,,AFSA04.jpg,AFSA14.jpg,AFNE08.jpg,AFNE14.jpg,AFSA04.jpg,FS,4,num_8,32,num_6,0.966760429656,,,2017_Jun_23_1757,60.0060818478,FEMA4ImagesEEG,001,200695,
AFNE01.JPG,AFNE01.JPG,AFNE01.JPG,AFNE01.JPG,AFNE01.JPG,AFNE01.JPG,,,,,,,,,4,6,46,2,,,,,,,,,,,,,,,AFSA18.jpg,AFNE17.jpg,AFSA05.jpg,AFNE03.jpg,AFNE17.jpg,FN,3,num_6,32,num_4,1.06686210424,,,2017_Jun_23_1757,60.0060818478,FEMA4ImagesEEG,001,200695,
AFNE01.JPG,AFNE01.JPG,AFNE01.JPG,AFNE01.JPG,AFNE01.JPG,AFNE01.JPG,,,,,,,,,4,7,47,3,,,,,,,,,,,,,,,AFSA12.jpg,AFNE07.jpg,AFNE04.jpg,AFSA19.jpg,AFSA19.jpg,FS,4,num_4,32,num_2,0.816466471442,,,2017_Jun_23_1757,60.0060818478,FEMA4ImagesEEG,001,200695,
AFNE01.JPG,AFNE01.JPG,AFNE01.JPG,AFNE01.JPG,AFNE01.JPG,AFNE01.JPG,,,,,,,,,4,8,48,5,,,,,,,,,,,,,,,AFNE19.jpg,AFNE01.jpg,AFSA13.jpg,AFSA04.jpg,AFNE01.jpg,FN,3,num_6,32,num_8,0.450145134848,,,2017_Jun_23_1757,60.0060818478,FEMA4ImagesEEG,001,200695,
AFNE01.JPG,AFNE01.JPG,AFNE01.JPG,AFNE01.JPG,AFNE01.JPG,AFNE01.JPG,,,,,,,,,4,9,49,8,,,,,,,,,,,,,,,AFSA13.jpg,AFNE02.jpg,AFSA14.jpg,AFNE07.jpg,AFSA13.jpg,FS,4,num_8,16,num_8,0.733533368199,,,2017_Jun_23_1757,60.0060818478,FEMA4ImagesEEG,001,200695,
AFNE01.JPG,AFNE01.JPG,AFNE01.JPG,AFNE01.JPG,AFNE01.JPG,AFNE01.JPG,,,,,,,,,5,0,50,1,,,,,,,,,,,,,,,AFNE08.jpg,AFSA04.jpg,AFSA12.jpg,AFNE19.jpg,AFSA12.jpg,FS,4,num_2,16,num_2,0.783512359718,,,2017_Jun_23_1757,60.0060818478,FEMA4ImagesEEG,001,200695,
AFNE01.JPG,AFNE01.JPG,AFNE01.JPG,AFNE01.JPG,AFNE01.JPG,AFNE01.JPG,,,,,,,,,5,1,51,4,,,,,,,,,,,,,,,AFSA05.jpg,AFNE01.jpg,AFSA11.jpg,AFNE17.jpg,AFNE17.jpg,FN,3,num_4,32,num_8,0.483484455341,,,2017_Jun_23_1757,60.0060818478,FEMA4ImagesEEG,001,200695,
AFNE01.JPG,AFNE01.JPG,AFNE01.JPG,AFNE01.JPG,AFNE01.JPG,AFNE01.JPG,,,,,,,,,5,2,52,3,,,,,,,,,,,,,,,AFSA02.jpg,AFNE19.jpg,AFSA13.jpg,AFNE04.jpg,AFNE19.jpg,FN,3,num_6,32,num_4,0.550151228919,,,2017_Jun_23_1757,60.0060818478,FEMA4ImagesEEG,001,200695,
AFNE01.JPG,AFNE01.JPG,AFNE01.JPG,AFNE01.JPG,AFNE01.JPG,AFNE01.JPG,,,,,,,,,5,3,53,7,,,,,,,,,,,,,,,AFNE10.jpg,AFSA16.jpg,AFNE08.jpg,AFSA11.jpg,AFSA11.jpg,FS,4,num_4,16,num_4,0.88335231044,,,2017_Jun_23_1757,60.0060818478,FEMA4ImagesEEG,001,200695,
AFNE01.JPG,AFNE01.JPG,AFNE01.JPG,AFNE01.JPG,AFNE01.JPG,AFNE01.JPG,,,,,,,,,5,4,54,9,,,,,,,,,,,,,,,AFNE12.jpg,AFSA11.jpg,AFNE09.jpg,AFSA13.jpg,AFSA13.jpg,FS,4,num_4,32,num_6,0.666820087295,,,2017_Jun_23_1757,60.0060818478,FEMA4ImagesEEG,001,200695,
AFNE01.JPG,AFNE01.JPG,AFNE01.JPG,AFNE01.JPG,AFNE01.JPG,AFNE01.JPG,,,,,,,,,5,5,55,6,,,,,,,,,,,,,,,AFSA19.jpg,AFSA04.jpg,AFNE03.jpg,AFNE05.jpg,AFNE05.jpg,FN,3,num_4,32,num_8,0.600208801756,,,2017_Jun_23_1757,60.0060818478,FEMA4ImagesEEG,001,200695,
AFNE01.JPG,AFNE01.JPG,AFNE01.JPG,AFNE01.JPG,AFNE01.JPG,AFNE01.JPG,,,,,,,,,5,6,56,8,,,,,,,,,,,,,,,AFNE20.jpg,AFSA11.jpg,AFNE10.jpg,AFSA17.jpg,AFNE10.jpg,FN,3,num_2,16,num_2,1.10009846718,,,2017_Jun_23_1757,60.0060818478,FEMA4ImagesEEG,001,200695,
AFNE01.JPG,AFNE01.JPG,AFNE01.JPG,AFNE01.JPG,AFNE01.JPG,AFNE01.JPG,,,,,,,,,5,7,57,0,,,,,,,,,,,,,,,AFNE07.jpg,AFNE17.jpg,AFSA11.jpg,AFSA08.jpg,AFSA08.jpg,FS,4,num_4,32,num_6,1.05012300379,,,2017_Jun_23_1757,60.0060818478,FEMA4ImagesEEG,001,200695,
AFNE01.JPG,AFNE01.JPG,AFNE01.JPG,AFNE01.JPG,AFNE01.JPG,AFNE01.JPG,,,,,,,,,5,8,58,5,,,,,,,,,,,,,,,AFNE18.jpg,AFSA15.jpg,AFNE11.jpg,AFSA19.jpg,AFSA15.jpg,FS,4,num_6,16,num_6,0.666714243096,,,2017_Jun_23_1757,60.0060818478,FEMA4ImagesEEG,001,200695,
AFNE01.JPG,AFNE01.JPG,AFNE01.JPG,AFNE01.JPG,AFNE01.JPG,AFNE01.JPG,,,,,,,,,5,9,59,2,,,,,,,,,,,,,,,AFNE03.jpg,AFNE07.jpg,AFSA01.jpg,AFSA12.jpg,AFSA12.jpg,FS,4,num_4,16,num_4,1.03350770898,,,2017_Jun_23_1757,60.0060818478,FEMA4ImagesEEG,001,200695,
,,,,,,,,,,,,,,,,,,,,,,,,,,,,,,,,,,,,,,,,,,,space,4.9997780479,2017_Jun_23_1757,60.0060818478,FEMA4ImagesEEG,001,200695,
AFNE01.JPG,AFNE01.JPG,AFNE01.JPG,AFNE01.JPG,AFNE01.JPG,AFNE01.JPG,,,,,,,,,,,,,0,0,0,5,,,,,,,,,,,AMSA12.jpg,AMNE11.jpg,AMSA15.jpg,AMNE06.jpg,AMNE11.jpg,MN,1,num_6,32,num_8,1.20014176708,,,2017_Jun_23_1757,60.0060818478,FEMA4ImagesEEG,001,200695,
AFNE01.JPG,AFNE01.JPG,AFNE01.JPG,AFNE01.JPG,AFNE01.JPG,AFNE01.JPG,,,,,,,,,,,,,0,1,1,4,,,,,,,,,,,AMNE08.jpg,AMSA14.jpg,AMSA09.jpg,AMNE01.jpg,AMNE08.jpg,MN,1,num_8,32,num_4,1.31672819529,,,2017_Jun_23_1757,60.0060818478,FEMA4ImagesEEG,001,200695,
AFNE01.JPG,AFNE01.JPG,AFNE01.JPG,AFNE01.JPG,AFNE01.JPG,AFNE01.JPG,,,,,,,,,,,,,0,2,2,8,,,,,,,,,,,AMSA18.jpg,AMNE14.jpg,AMNE12.jpg,AMSA01.jpg,AMSA18.jpg,MS,2,num_8,32,num_4,0.700148823365,,,2017_Jun_23_1757,60.0060818478,FEMA4ImagesEEG,001,200695,
AFNE01.JPG,AFNE01.JPG,AFNE01.JPG,AFNE01.JPG,AFNE01.JPG,AFNE01.JPG,,,,,,,,,,,,,0,3,3,3,,,,,,,,,,,AMSA12.jpg,AMNE14.jpg,AMSA02.jpg,AMNE07.jpg,AMSA02.jpg,MS,2,num_2,32,num_6,0.783498567893,,,2017_Jun_23_1757,60.0060818478,FEMA4ImagesEEG,001,200695,
AFNE01.JPG,AFNE01.JPG,AFNE01.JPG,AFNE01.JPG,AFNE01.JPG,AFNE01.JPG,,,,,,,,,,,,,0,4,4,1,,,,,,,,,,,AMSA02.jpg,AMNE08.jpg,AMSA08.jpg,AMNE02.jpg,AMNE08.jpg,MN,1,num_6,32,num_4,0.716796512905,,,2017_Jun_23_1757,60.0060818478,FEMA4ImagesEEG,001,200695,
AFNE01.JPG,AFNE01.JPG,AFNE01.JPG,AFNE01.JPG,AFNE01.JPG,AFNE01.JPG,,,,,,,,,,,,,0,5,5,0,,,,,,,,,,,AMNE19.jpg,AMSA03.jpg,AMNE14.jpg,AMSA15.jpg,AMSA15.jpg,MS,2,num_4,32,num_6,0.650008178869,,,2017_Jun_23_1757,60.0060818478,FEMA4ImagesEEG,001,200695,
AFNE01.JPG,AFNE01.JPG,AFNE01.JPG,AFNE01.JPG,AFNE01.JPG,AFNE01.JPG,,,,,,,,,,,,,0,6,6,7,,,,,,,,,,,AMSA17.jpg,AMSA12.jpg,AMNE15.jpg,AMNE17.jpg,AMSA12.jpg,MS,2,num_6,16,num_6,0.583517170817,,,2017_Jun_23_1757,60.0060818478,FEMA4ImagesEEG,001,200695,
AFNE01.JPG,AFNE01.JPG,AFNE01.JPG,AFNE01.JPG,AFNE01.JPG,AFNE01.JPG,,,,,,,,,,,,,0,7,7,2,,,,,,,,,,,AMSA04.jpg,AMSA06.jpg,AMNE18.jpg,AMNE20.jpg,AMNE20.jpg,MN,1,num_4,16,num_4,0.666762995592,,,2017_Jun_23_1757,60.0060818478,FEMA4ImagesEEG,001,200695,
AFNE01.JPG,AFNE01.JPG,AFNE01.JPG,AFNE01.JPG,AFNE01.JPG,AFNE01.JPG,,,,,,,,,,,,,0,8,8,6,,,,,,,,,,,AMNE06.jpg,AMNE11.jpg,AMSA18.jpg,AMSA08.jpg,AMSA18.jpg,MS,2,num_2,32,num_4,0.700126050826,,,2017_Jun_23_1757,60.0060818478,FEMA4ImagesEEG,001,200695,
AFNE01.JPG,AFNE01.JPG,AFNE01.JPG,AFNE01.JPG,AFNE01.JPG,AFNE01.JPG,,,,,,,,,,,,,0,9,9,9,,,,,,,,,,,AMSA12.jpg,AMNE08.jpg,AMNE16.jpg,AMSA15.jpg,AMSA12.jpg,MS,2,num_8,32,num_4,0.533537217067,,,2017_Jun_23_1757,60.0060818478,FEMA4ImagesEEG,001,200695,
AFNE01.JPG,AFNE01.JPG,AFNE01.JPG,AFNE01.JPG,AFNE01.JPG,AFNE01.JPG,,,,,,,,,,,,,1,0,10,1,,,,,,,,,,,AMNE17.jpg,AMSA13.jpg,AMNE11.jpg,AMSA20.jpg,AMNE17.jpg,MN,1,num_8,16,num_8,0.900126371576,,,2017_Jun_23_1757,60.0060818478,FEMA4ImagesEEG,001,200695,
AFNE01.JPG,AFNE01.JPG,AFNE01.JPG,AFNE01.JPG,AFNE01.JPG,AFNE01.JPG,,,,,,,,,,,,,1,1,11,0,,,,,,,,,,,AMNE20.jpg,AMSA15.jpg,AMNE01.jpg,AMSA04.jpg,AMSA04.jpg,MS,2,num_4,32,num_6,0.783433136938,,,2017_Jun_23_1757,60.0060818478,FEMA4ImagesEEG,001,200695,
AFNE01.JPG,AFNE01.JPG,AFNE01.JPG,AFNE01.JPG,AFNE01.JPG,AFNE01.JPG,,,,,,,,,,,,,1,2,12,9,,,,,,,,,,,AMNE02.jpg,AMNE07.jpg,AMSA08.jpg,AMSA15.jpg,AMSA08.jpg,MS,2,num_2,32,num_8,1.00011963602,,,2017_Jun_23_1757,60.0060818478,FEMA4ImagesEEG,001,200695,
AFNE01.JPG,AFNE01.JPG,AFNE01.JPG,AFNE01.JPG,AFNE01.JPG,AFNE01.JPG,,,,,,,,,,,,,1,3,13,7,,,,,,,,,,,AMNE09.jpg,AMNE16.jpg,AMSA02.jpg,AMSA18.jpg,AMNE16.jpg,MN,1,num_6,16,num_6,0.816749043399,,,2017_Jun_23_1757,60.0060818478,FEMA4ImagesEEG,001,200695,
AFNE01.JPG,AFNE01.JPG,AFNE01.JPG,AFNE01.JPG,AFNE01.JPG,AFNE01.JPG,,,,,,,,,,,,,1,4,14,5,,,,,,,,,,,AMSA20.jpg,AMNE12.jpg,AMSA08.jpg,AMNE04.jpg,AMSA20.jpg,MS,2,num_8,32,num_4,0.616770212233,,,2017_Jun_23_1757,60.0060818478,FEMA4ImagesEEG,001,200695,
AFNE01.JPG,AFNE01.JPG,AFNE01.JPG,AFNE01.JPG,AFNE01.JPG,AFNE01.JPG,,,,,,,,,,,,,1,5,15,3,,,,,,,,,,,AMNE13.jpg,AMSA14.jpg,AMSA07.jpg,AMNE03.jpg,AMSA07.jpg,MS,2,num_2,16,num_2,0.833467295743,,,2017_Jun_23_1757,60.0060818478,FEMA4ImagesEEG,001,200695,
AFNE01.JPG,AFNE01.JPG,AFNE01.JPG,AFNE01.JPG,AFNE01.JPG,AFNE01.JPG,,,,,,,,,,,,,1,6,16,6,,,,,,,,,,,AMSA05.jpg,AMSA11.jpg,AMNE16.jpg,AMNE05.jpg,AMNE05.jpg,MN,1,num_4,32,num_8,0.800123805646,,,2017_Jun_23_1757,60.0060818478,FEMA4ImagesEEG,001,200695,
AFNE01.JPG,AFNE01.JPG,AFNE01.JPG,AFNE01.JPG,AFNE01.JPG,AFNE01.JPG,,,,,,,,,,,,,1,7,17,2,,,,,,,,,,,AMSA03.jpg,AMSA19.jpg,AMNE16.jpg,AMNE09.jpg,AMSA19.jpg,MS,2,num_6,32,num_8,1.05010728753,,,2017_Jun_23_1757,60.0060818478,FEMA4ImagesEEG,001,200695,
AFNE01.JPG,AFNE01.JPG,AFNE01.JPG,AFNE01.JPG,AFNE01.JPG,AFNE01.JPG,,,,,,,,,,,,,1,8,18,4,,,,,,,,,,,AMSA10.jpg,AMSA12.jpg,AMNE13.jpg,AMNE10.jpg,AMNE13.jpg,MN,1,num_2,32,num_8,1.00010071236,,,2017_Jun_23_1757,60.0060818478,FEMA4ImagesEEG,001,200695,
AFNE01.JPG,AFNE01.JPG,AFNE01.JPG,AFNE01.JPG,AFNE01.JPG,AFNE01.JPG,,,,,,,,,,,,,1,9,19,8,,,,,,,,,,,AMNE18.jpg,AMSA09.jpg,AMSA17.jpg,AMNE13.jpg,AMSA17.jpg,MS,2,num_2,16,num_2,1.33343586323,,,2017_Jun_23_1757,60.0060818478,FEMA4ImagesEEG,001,200695,
AFNE01.JPG,AFNE01.JPG,AFNE01.JPG,AFNE01.JPG,AFNE01.JPG,AFNE01.JPG,,,,,,,,,,,,,2,0,20,5,,,,,,,,,,,AMNE10.jpg,AMNE07.jpg,AMSA01.jpg,AMSA13.jpg,AMSA13.jpg,MS,2,num_4,16,num_4,0.916739100459,,,2017_Jun_23_1757,60.0060818478,FEMA4ImagesEEG,001,200695,
AFNE01.JPG,AFNE01.JPG,AFNE01.JPG,AFNE01.JPG,AFNE01.JPG,AFNE01.JPG,,,,,,,,,,,,,2,1,21,7,,,,,,,,,,,AMNE15.jpg,AMSA11.jpg,AMSA05.jpg,AMNE09.jpg,AMSA05.jpg,MS,2,num_2,32,num_8,0.733464729827,,,2017_Jun_23_1757,60.0060818478,FEMA4ImagesEEG,001,200695,
AFNE01.JPG,AFNE01.JPG,AFNE01.JPG,AFNE01.JPG,AFNE01.JPG,AFNE01.JPG,,,,,,,,,,,,,2,2,22,8,,,,,,,,,,,AMSA16.jpg,AMNE19.jpg,AMNE02.jpg,AMSA03.jpg,AMNE02.jpg,MN,1,num_2,32,num_4,0.61669163093,,,2017_Jun_23_1757,60.0060818478,FEMA4ImagesEEG,001,200695,
AFNE01.JPG,AFNE01.JPG,AFNE01.JPG,AFNE01.JPG,AFNE01.JPG,AFNE01.JPG,,,,,,,,,,,,,2,3,23,2,,,,,,,,,,,AMSA03.jpg,AMNE09.jpg,AMSA13.jpg,AMNE20.jpg,AMSA03.jpg,MS,2,num_8,32,num_4,0.950095740889,,,2017_Jun_23_1757,60.0060818478,FEMA4ImagesEEG,001,200695,
AFNE01.JPG,AFNE01.JPG,AFNE01.JPG,AFNE01.JPG,AFNE01.JPG,AFNE01.JPG,,,,,,,,,,,,,2,4,24,6,,,,,,,,,,,AMNE05.jpg,AMSA17.jpg,AMSA08.jpg,AMNE12.jpg,AMSA17.jpg,MS,2,num_6,32,num_8,0.8834793235,,,2017_Jun_23_1757,60.0060818478,FEMA4ImagesEEG,001,200695,
AFNE01.JPG,AFNE01.JPG,AFNE01.JPG,AFNE01.JPG,AFNE01.JPG,AFNE01.JPG,,,,,,,,,,,,,2,5,25,3,,,,,,,,,,,AMNE02.jpg,AMNE04.jpg,AMSA12.jpg,AMSA07.jpg,AMNE04.jpg,MN,1,num_6,16,num_6,0.900114824923,,,2017_Jun_23_1757,60.0060818478,FEMA4ImagesEEG,001,200695,
AFNE01.JPG,AFNE01.JPG,AFNE01.JPG,AFNE01.JPG,AFNE01.JPG,AFNE01.JPG,,,,,,,,,,,,,2,6,26,1,,,,,,,,,,,AMSA13.jpg,AMNE02.jpg,AMNE10.jpg,AMSA20.jpg,AMNE02.jpg,MN,1,num_6,32,num_8,0.883492473833,,,2017_Jun_23_1757,60.0060818478,FEMA4ImagesEEG,001,200695,
AFNE01.JPG,AFNE01.JPG,AFNE01.JPG,AFNE01.JPG,AFNE01.JPG,AFNE01.JPG,,,,,,,,,,,,,2,7,27,0,,,,,,,,,,,AMNE11.jpg,AMSA05.jpg,AMNE15.jpg,AMSA09.jpg,AMSA05.jpg,MS,2,num_6,16,num_6,1.61672178051,,,2017_Jun_23_1757,60.0060818478,FEMA4ImagesEEG,001,200695,
AFNE01.JPG,AFNE01.JPG,AFNE01.JPG,AFNE01.JPG,AFNE01.JPG,AFNE01.JPG,,,,,,,,,,,,,2,8,28,9,,,,,,,,,,,AMSA06.jpg,AMNE08.jpg,AMSA10.jpg,AMNE03.jpg,AMSA10.jpg,MS,2,num_2,32,num_6,1.01662042666,,,2017_Jun_23_1757,60.0060818478,FEMA4ImagesEEG,001,200695,
AFNE01.JPG,AFNE01.JPG,AFNE01.JPG,AFNE01.JPG,AFNE01.JPG,AFNE01.JPG,,,,,,,,,,,,,2,9,29,4,,,,,,,,,,,AMSA09.jpg,AMNE02.jpg,AMSA18.jpg,AMNE13.jpg,AMSA09.jpg,MS,2,num_8,16,num_8,1.2168045314,,,2017_Jun_23_1757,60.0060818478,FEMA4ImagesEEG,001,200695,
AFNE01.JPG,AFNE01.JPG,AFNE01.JPG,AFNE01.JPG,AFNE01.JPG,AFNE01.JPG,,,,,,,,,,,,,3,0,30,3,,,,,,,,,,,AMNE11.jpg,AMSA08.jpg,AMSA04.jpg,AMNE05.jpg,AMNE05.jpg,MN,1,num_4,16,num_4,0.91663582217,,,2017_Jun_23_1757,60.0060818478,FEMA4ImagesEEG,001,200695,
AFNE01.JPG,AFNE01.JPG,AFNE01.JPG,AFNE01.JPG,AFNE01.JPG,AFNE01.JPG,,,,,,,,,,,,,3,1,31,4,,,,,,,,,,,AMSA04.jpg,AMNE19.jpg,AMSA06.jpg,AMNE17.jpg,AMSA06.jpg,MS,2,num_2,16,num_2,0.950101834955,,,2017_Jun_23_1757,60.0060818478,FEMA4ImagesEEG,001,200695,
AFNE01.JPG,AFNE01.JPG,AFNE01.JPG,AFNE01.JPG,AFNE01.JPG,AFNE01.JPG,,,,,,,,,,,,,3,2,32,8,,,,,,,,,,,AMNE04.jpg,AMSA11.jpg,AMNE20.jpg,AMSA18.jpg,AMNE04.jpg,MN,1,num_8,32,num_4,0.816738458976,,,2017_Jun_23_1757,60.0060818478,FEMA4ImagesEEG,001,200695,
AFNE01.JPG,AFNE01.JPG,AFNE01.JPG,AFNE01.JPG,AFNE01.JPG,AFNE01.JPG,,,,,,,,,,,,,3,3,33,0,,,,,,,,,,,AMSA10.jpg,AMNE20.jpg,AMSA01.jpg,AMNE12.jpg,AMSA10.jpg,MS,2,num_8,32,num_4,0.666808540656,,,2017_Jun_23_1757,60.0060818478,FEMA4ImagesEEG,001,200695,
AFNE01.JPG,AFNE01.JPG,AFNE01.JPG,AFNE01.JPG,AFNE01.JPG,AFNE01.JPG,,,,,,,,,,,,,3,4,34,7,,,,,,,,,,,AMSA11.jpg,AMNE17.jpg,AMNE14.jpg,AMSA04.jpg,AMSA11.jpg,MS,2,num_8,32,num_4,0.566811106575,,,2017_Jun_23_1757,60.0060818478,FEMA4ImagesEEG,001,200695,
AFNE01.JPG,AFNE01.JPG,AFNE01.JPG,AFNE01.JPG,AFNE01.JPG,AFNE01.JPG,,,,,,,,,,,,,3,5,35,6,,,,,,,,,,,AMNE18.jpg,AMSA02.jpg,AMNE17.jpg,AMSA12.jpg,AMSA12.jpg,MS,2,num_4,32,num_2,0.867055510462,,,2017_Jun_23_1757,60.0060818478,FEMA4ImagesEEG,001,200695,
AFNE01.JPG,AFNE01.JPG,AFNE01.JPG,AFNE01.JPG,AFNE01.JPG,AFNE01.JPG,,,,,,,,,,,,,3,6,36,5,,,,,,,,,,,AMNE06.jpg,AMSA06.jpg,AMNE02.jpg,AMSA09.jpg,AMSA09.jpg,MS,2,num_4,16,num_4,0.750175284411,,,2017_Jun_23_1757,60.0060818478,FEMA4ImagesEEG,001,200695,
AFNE01.JPG,AFNE01.JPG,AFNE01.JPG,AFNE01.JPG,AFNE01.JPG,AFNE01.JPG,,,,,,,,,,,,,3,7,37,9,,,,,,,,,,,AMSA15.jpg,AMSA19.jpg,AMNE09.jpg,AMNE11.jpg,AMSA15.jpg,MS,2,num_8,32,num_2,0.916762514476,,,2017_Jun_23_1757,60.0060818478,FEMA4ImagesEEG,001,200695,
AFNE01.JPG,AFNE01.JPG,AFNE01.JPG,AFNE01.JPG,AFNE01.JPG,AFNE01.JPG,,,,,,,,,,,,,3,8,38,2,,,,,,,,,,,AMSA16.jpg,AMNE19.jpg,AMSA12.jpg,AMNE09.jpg,AMNE09.jpg,MN,1,num_4,32,num_2,0.750237828717,,,2017_Jun_23_1757,60.0060818478,FEMA4ImagesEEG,001,200695,
AFNE01.JPG,AFNE01.JPG,AFNE01.JPG,AFNE01.JPG,AFNE01.JPG,AFNE01.JPG,,,,,,,,,,,,,3,9,39,1,,,,,,,,,,,AMNE03.jpg,AMSA15.jpg,AMSA14.jpg,AMNE09.jpg,AMSA14.jpg,MS,2,num_2,32,num_8,1.31673942119,,,2017_Jun_23_1757,60.0060818478,FEMA4ImagesEEG,001,200695,
AFNE01.JPG,AFNE01.JPG,AFNE01.JPG,AFNE01.JPG,AFNE01.JPG,AFNE01.JPG,,,,,,,,,,,,,4,0,40,6,,,,,,,,,,,AMNE07.jpg,AMNE02.jpg,AMSA11.jpg,AMSA17.jpg,AMSA17.jpg,MS,2,num_4,16,num_4,0.766861142023,,,2017_Jun_23_1757,60.0060818478,FEMA4ImagesEEG,001,200695,
AFNE01.JPG,AFNE01.JPG,AFNE01.JPG,AFNE01.JPG,AFNE01.JPG,AFNE01.JPG,,,,,,,,,,,,,4,1,41,9,,,,,,,,,,,AMSA09.jpg,AMNE20.jpg,AMNE16.jpg,AMSA08.jpg,AMSA08.jpg,MS,2,num_4,16,num_4,0.683510756018,,,2017_Jun_23_1757,60.0060818478,FEMA4ImagesEEG,001,200695,
AFNE01.JPG,AFNE01.JPG,AFNE01.JPG,AFNE01.JPG,AFNE01.JPG,AFNE01.JPG,,,,,,,,,,,,,4,2,42,0,,,,,,,,,,,AMSA18.jpg,AMNE10.jpg,AMSA16.jpg,AMNE20.jpg,AMNE10.jpg,MN,1,num_6,16,num_6,1.0835723381,,,2017_Jun_23_1757,60.0060818478,FEMA4ImagesEEG,001,200695,
AFNE01.JPG,AFNE01.JPG,AFNE01.JPG,AFNE01.JPG,AFNE01.JPG,AFNE01.JPG,,,,,,,,,,,,,4,3,43,3,,,,,,,,,,,AMNE17.jpg,AMSA04.jpg,AMSA18.jpg,AMNE14.jpg,AMSA18.jpg,MS,2,num_2,16,num_2,1.29974629465,,,2017_Jun_23_1757,60.0060818478,FEMA4ImagesEEG,001,200695,
AFNE01.JPG,AFNE01.JPG,AFNE01.JPG,AFNE01.JPG,AFNE01.JPG,AFNE01.JPG,,,,,,,,,,,,,4,4,44,1,,,,,,,,,,,AMSA02.jpg,AMNE14.jpg,AMNE06.jpg,AMSA07.jpg,AMNE14.jpg,MN,1,num_6,16,num_6,0.750181378477,,,2017_Jun_23_1757,60.0060818478,FEMA4ImagesEEG,001,200695,
AFNE01.JPG,AFNE01.JPG,AFNE01.JPG,AFNE01.JPG,AFNE01.JPG,AFNE01.JPG,,,,,,,,,,,,,4,5,45,5,,,,,,,,,,,AMNE04.jpg,AMSA14.jpg,AMNE10.jpg,AMSA06.jpg,AMNE10.jpg,MN,1,num_2,32,num_8,0.916773740377,,,2017_Jun_23_1757,60.0060818478,FEMA4ImagesEEG,001,200695,
AFNE01.JPG,AFNE01.JPG,AFNE01.JPG,AFNE01.JPG,AFNE01.JPG,AFNE01.JPG,,,,,,,,,,,,,4,6,46,2,,,,,,,,,,,AMNE10.jpg,AMSA17.jpg,AMSA08.jpg,AMNE19.jpg,AMSA08.jpg,MS,2,num_2,32,num_8,0.833484936447,,,2017_Jun_23_1757,60.0060818478,FEMA4ImagesEEG,001,200695,
AFNE01.JPG,AFNE01.JPG,AFNE01.JPG,AFNE01.JPG,AFNE01.JPG,AFNE01.JPG,,,,,,,,,,,,,4,7,47,7,,,,,,,,,,,AMNE05.jpg,AMSA05.jpg,AMSA09.jpg,AMNE06.jpg,AMNE05.jpg,MN,1,num_8,32,num_6,2.35004955434,,,2017_Jun_23_1757,60.0060818478,FEMA4ImagesEEG,001,200695,
AFNE01.JPG,AFNE01.JPG,AFNE01.JPG,AFNE01.JPG,AFNE01.JPG,AFNE01.JPG,,,,,,,,,,,,,4,8,48,4,,,,,,,,,,,AMSA04.jpg,AMSA10.jpg,AMNE11.jpg,AMNE15.jpg,AMNE11.jpg,MN,1,num_2,16,num_2,0.98330484092,,,2017_Jun_23_1757,60.0060818478,FEMA4ImagesEEG,001,200695,
AFNE01.JPG,AFNE01.JPG,AFNE01.JPG,AFNE01.JPG,AFNE01.JPG,AFNE01.JPG,,,,,,,,,,,,,4,9,49,8,,,,,,,,,,,AMSA01.jpg,AMNE19.jpg,AMNE01.jpg,AMSA08.jpg,AMSA08.jpg,MS,2,num_4,16,num_4,0.783356159329,,,2017_Jun_23_1757,60.0060818478,FEMA4ImagesEEG,001,200695,
AFNE01.JPG,AFNE01.JPG,AFNE01.JPG,AFNE01.JPG,AFNE01.JPG,AFNE01.JPG,,,,,,,,,,,,,5,0,50,1,,,,,,,,,,,AMNE01.jpg,AMSA04.jpg,AMSA05.jpg,AMNE20.jpg,AMSA04.jpg,MS,2,num_6,16,num_6,0.8167827211,,,2017_Jun_23_1757,60.0060818478,FEMA4ImagesEEG,001,200695,
AFNE01.JPG,AFNE01.JPG,AFNE01.JPG,AFNE01.JPG,AFNE01.JPG,AFNE01.JPG,,,,,,,,,,,,,5,1,51,7,,,,,,,,,,,AMSA01.jpg,AMSA12.jpg,AMNE14.jpg,AMNE17.jpg,AMSA12.jpg,MS,2,num_6,32,num_8,1.08350562418,,,2017_Jun_23_1757,60.0060818478,FEMA4ImagesEEG,001,200695,
AFNE01.JPG,AFNE01.JPG,AFNE01.JPG,AFNE01.JPG,AFNE01.JPG,AFNE01.JPG,,,,,,,,,,,,,5,2,52,8,,,,,,,,,,,AMNE20.jpg,AMNE15.jpg,AMSA05.jpg,AMSA10.jpg,AMNE15.jpg,MN,1,num_6,16,num_6,0.833433297303,,,2017_Jun_23_1757,60.0060818478,FEMA4ImagesEEG,001,200695,
AFNE01.JPG,AFNE01.JPG,AFNE01.JPG,AFNE01.JPG,AFNE01.JPG,AFNE01.JPG,,,,,,,,,,,,,5,3,53,6,,,,,,,,,,,AMNE09.jpg,AMSA12.jpg,AMNE11.jpg,AMSA17.jpg,AMSA12.jpg,MS,2,num_6,32,num_8,1.71668617835,,,2017_Jun_23_1757,60.0060818478,FEMA4ImagesEEG,001,200695,
AFNE01.JPG,AFNE01.JPG,AFNE01.JPG,AFNE01.JPG,AFNE01.JPG,AFNE01.JPG,,,,,,,,,,,,,5,4,54,0,,,,,,,,,,,AMNE20.jpg,AMSA04.jpg,AMNE03.jpg,AMSA19.jpg,AMSA19.jpg,MS,2,num_4,32,num_8,1.03341212847,,,2017_Jun_23_1757,60.0060818478,FEMA4ImagesEEG,001,200695,
AFNE01.JPG,AFNE01.JPG,AFNE01.JPG,AFNE01.JPG,AFNE01.JPG,AFNE01.JPG,,,,,,,,,,,,,5,5,55,9,,,,,,,,,,,AMSA10.jpg,AMNE13.jpg,AMSA01.jpg,AMNE16.jpg,AMNE13.jpg,MN,1,num_6,32,num_4,0.750024215871,,,2017_Jun_23_1757,60.0060818478,FEMA4ImagesEEG,001,200695,
AFNE01.JPG,AFNE01.JPG,AFNE01.JPG,AFNE01.JPG,AFNE01.JPG,AFNE01.JPG,,,,,,,,,,,,,5,6,56,3,,,,,,,,,,,AMSA06.jpg,AMNE12.jpg,AMSA16.jpg,AMNE04.jpg,AMSA16.jpg,MS,2,num_2,32,num_8,1.25009253349,,,2017_Jun_23_1757,60.0060818478,FEMA4ImagesEEG,001,200695,
AFNE01.JPG,AFNE01.JPG,AFNE01.JPG,AFNE01.JPG,AFNE01.JPG,AFNE01.JPG,,,,,,,,,,,,,5,7,57,4,,,,,,,,,,,AMNE10.jpg,AMSA13.jpg,AMNE05.jpg,AMSA06.jpg,AMNE10.jpg,MN,1,num_8,16,num_8,0.633520859323,,,2017_Jun_23_1757,60.0060818478,FEMA4ImagesEEG,001,200695,
AFNE01.JPG,AFNE01.JPG,AFNE01.JPG,AFNE01.JPG,AFNE01.JPG,AFNE01.JPG,,,,,,,,,,,,,5,8,58,2,,,,,,,,,,,AMNE11.jpg,AMSA08.jpg,AMSA18.jpg,AMNE13.jpg,AMNE13.jpg,MN,1,num_4,32,num_8,0.683486059046,,,2017_Jun_23_1757,60.0060818478,FEMA4ImagesEEG,001,200695,
AFNE01.JPG,AFNE01.JPG,AFNE01.JPG,AFNE01.JPG,AFNE01.JPG,AFNE01.JPG,,,,,,,,,,,,,5,9,59,5,,,,,,,,,,,AMSA03.jpg,AMSA18.jpg,AMNE06.jpg,AMNE05.jpg,AMNE05.jpg,MN,1,num_4,16,num_4,0.633503539371,,,2017_Jun_23_1757,60.0060818478,FEMA4ImagesEEG,001,200695,
,,,,,,,,,,,,,,,,,,,,,,,,,,,,,,,,,,,,,,,,,,,space,2.94991516427,2017_Jun_23_1757,60.0060818478,FEMA4ImagesEEG,001,200695,
AFNE01.JPG,AFNE01.JPG,AFNE01.JPG,AFNE01.JPG,AFNE01.JPG,AFNE01.JPG,,,,,,,,,,,,,,,,,0,0,0,8,,,,,,,AFNE14.jpg,AFSA19.jpg,AFNE17.jpg,AFSA02.jpg,AFNE17.jpg,FN,3,num_2,32,num_4,0.80014529523,,,2017_Jun_23_1757,60.0060818478,FEMA4ImagesEEG,001,200695,
AFNE01.JPG,AFNE01.JPG,AFNE01.JPG,AFNE01.JPG,AFNE01.JPG,AFNE01.JPG,,,,,,,,,,,,,,,,,0,1,1,1,,,,,,,AFNE11.jpg,AFSA05.jpg,AFSA01.jpg,AFNE03.jpg,AFNE11.jpg,FN,3,num_8,16,num_8,1.38343794802,,,2017_Jun_23_1757,60.0060818478,FEMA4ImagesEEG,001,200695,
AFNE01.JPG,AFNE01.JPG,AFNE01.JPG,AFNE01.JPG,AFNE01.JPG,AFNE01.JPG,,,,,,,,,,,,,,,,,0,2,2,0,,,,,,,AFNE13.jpg,AFSA04.jpg,AFSA03.jpg,AFNE09.jpg,AFNE13.jpg,FN,3,num_8,32,num_6,0.416821530627,,,2017_Jun_23_1757,60.0060818478,FEMA4ImagesEEG,001,200695,
AFNE01.JPG,AFNE01.JPG,AFNE01.JPG,AFNE01.JPG,AFNE01.JPG,AFNE01.JPG,,,,,,,,,,,,,,,,,0,3,3,9,,,,,,,AFSA05.jpg,AFNE17.jpg,AFSA08.jpg,AFNE03.jpg,AFSA05.jpg,FS,4,num_8,16,num_8,0.516813191396,,,2017_Jun_23_1757,60.0060818478,FEMA4ImagesEEG,001,200695,
AFNE01.JPG,AFNE01.JPG,AFNE01.JPG,AFNE01.JPG,AFNE01.JPG,AFNE01.JPG,,,,,,,,,,,,,,,,,0,4,4,6,,,,,,,AFNE08.jpg,AFSA13.jpg,AFSA14.jpg,AFNE06.jpg,AFSA13.jpg,FS,4,num_6,32,num_4,0.616826020996,,,2017_Jun_23_1757,60.0060818478,FEMA4ImagesEEG,001,200695,
AFNE01.JPG,AFNE01.JPG,AFNE01.JPG,AFNE01.JPG,AFNE01.JPG,AFNE01.JPG,,,,,,,,,,,,,,,,,0,5,5,3,,,,,,,AFNE09.jpg,AFSA06.jpg,AFNE05.jpg,AFSA19.jpg,AFSA06.jpg,FS,4,num_6,32,num_2,0.900130220441,,,2017_Jun_23_1757,60.0060818478,FEMA4ImagesEEG,001,200695,
AFNE01.JPG,AFNE01.JPG,AFNE01.JPG,AFNE01.JPG,AFNE01.JPG,AFNE01.JPG,,,,,,,,,,,,,,,,,0,6,6,7,,,,,,,AFSA07.jpg,AFSA11.jpg,AFNE01.jpg,AFNE10.jpg,AFNE01.jpg,FN,3,num_2,32,num_4,1.26678223998,,,2017_Jun_23_1757,60.0060818478,FEMA4ImagesEEG,001,200695,
AFNE01.JPG,AFNE01.JPG,AFNE01.JPG,AFNE01.JPG,AFNE01.JPG,AFNE01.JPG,,,,,,,,,,,,,,,,,0,7,7,2,,,,,,,AFSA02.jpg,AFSA05.jpg,AFNE04.jpg,AFNE07.jpg,AFNE07.jpg,FN,3,num_4,32,num_8,1.13377745134,,,2017_Jun_23_1757,60.0060818478,FEMA4ImagesEEG,001,200695,
AFNE01.JPG,AFNE01.JPG,AFNE01.JPG,AFNE01.JPG,AFNE01.JPG,AFNE01.JPG,,,,,,,,,,,,,,,,,0,8,8,5,,,,,,,AFSA19.jpg,AFNE03.jpg,AFSA12.jpg,AFNE05.jpg,AFSA19.jpg,FS,4,num_8,16,num_8,0.783508510838,,,2017_Jun_23_1757,60.0060818478,FEMA4ImagesEEG,001,200695,
AFNE01.JPG,AFNE01.JPG,AFNE01.JPG,AFNE01.JPG,AFNE01.JPG,AFNE01.JPG,,,,,,,,,,,,,,,,,0,9,9,4,,,,,,,AFNE17.jpg,AFNE08.jpg,AFSA18.jpg,AFSA06.jpg,AFNE08.jpg,FN,3,num_6,16,num_6,1.48345590947,,,2017_Jun_23_1757,60.0060818478,FEMA4ImagesEEG,001,200695,
AFNE01.JPG,AFNE01.JPG,AFNE01.JPG,AFNE01.JPG,AFNE01.JPG,AFNE01.JPG,,,,,,,,,,,,,,,,,1,0,10,5,,,,,,,AFSA18.jpg,AFNE09.jpg,AFNE01.jpg,AFSA16.jpg,AFSA16.jpg,FS,4,num_4,16,num_4,0.816450434446,,,2017_Jun_23_1757,60.0060818478,FEMA4ImagesEEG,001,200695,
AFNE01.JPG,AFNE01.JPG,AFNE01.JPG,AFNE01.JPG,AFNE01.JPG,AFNE01.JPG,,,,,,,,,,,,,,,,,1,1,11,2,,,,,,,AFNE09.jpg,AFSA03.jpg,AFNE07.jpg,AFSA01.jpg,AFNE09.jpg,FN,3,num_8,32,num_2,1.11660278594,,,2017_Jun_23_1757,60.0060818478,FEMA4ImagesEEG,001,200695,
AFNE01.JPG,AFNE01.JPG,AFNE01.JPG,AFNE01.JPG,AFNE01.JPG,AFNE01.JPG,,,,,,,,,,,,,,,,,1,2,12,7,,,,,,,AFSA18.jpg,AFSA14.jpg,AFNE07.jpg,AFNE20.jpg,AFNE20.jpg,FN,3,num_4,32,num_6,0.733473710541,,,2017_Jun_23_1757,60.0060818478,FEMA4ImagesEEG,001,200695,
AFNE01.JPG,AFNE01.JPG,AFNE01.JPG,AFNE01.JPG,AFNE01.JPG,AFNE01.JPG,,,,,,,,,,,,,,,,,1,3,13,0,,,,,,,AFSA12.jpg,AFSA14.jpg,AFNE17.jpg,AFNE05.jpg,AFSA12.jpg,FS,4,num_8,16,num_8,0.616656990998,,,2017_Jun_23_1757,60.0060818478,FEMA4ImagesEEG,001,200695,
AFNE01.JPG,AFNE01.JPG,AFNE01.JPG,AFNE01.JPG,AFNE01.JPG,AFNE01.JPG,,,,,,,,,,,,,,,,,1,4,14,1,,,,,,,AFNE20.jpg,AFSA17.jpg,AFSA06.jpg,AFNE09.jpg,AFSA17.jpg,FS,4,num_6,32,num_4,1.11680934251,,,2017_Jun_23_1757,60.0060818478,FEMA4ImagesEEG,001,200695,
AFNE01.JPG,AFNE01.JPG,AFNE01.JPG,AFNE01.JPG,AFNE01.JPG,AFNE01.JPG,,,,,,,,,,,,,,,,,1,5,15,4,,,,,,,AFNE09.jpg,AFNE01.jpg,AFSA17.jpg,AFSA07.jpg,AFNE09.jpg,FN,3,num_8,16,num_8,0.916758344858,,,2017_Jun_23_1757,60.0060818478,FEMA4ImagesEEG,001,200695,
AFNE01.JPG,AFNE01.JPG,AFNE01.JPG,AFNE01.JPG,AFNE01.JPG,AFNE01.JPG,,,,,,,,,,,,,,,,,1,6,16,6,,,,,,,AFSA18.jpg,AFNE06.jpg,AFSA15.jpg,AFNE10.jpg,AFNE10.jpg,FN,3,num_4,32,num_6,0.883477719792,,,2017_Jun_23_1757,60.0060818478,FEMA4ImagesEEG,001,200695,
AFNE01.JPG,AFNE01.JPG,AFNE01.JPG,AFNE01.JPG,AFNE01.JPG,AFNE01.JPG,,,,,,,,,,,,,,,,,1,7,17,3,,,,,,,AFSA13.jpg,AFNE02.jpg,AFSA09.jpg,AFNE06.jpg,AFSA09.jpg,FS,4,num_2,32,num_6,1.05009285423,,,2017_Jun_23_1757,60.0060818478,FEMA4ImagesEEG,001,200695,
AFNE01.JPG,AFNE01.JPG,AFNE01.JPG,AFNE01.JPG,AFNE01.JPG,AFNE01.JPG,,,,,,,,,,,,,,,,,1,8,18,9,,,,,,,AFSA07.jpg,AFSA18.jpg,AFNE11.jpg,AFNE13.jpg,AFSA18.jpg,FS,4,num_6,32,num_2,1.48347515387,,,2017_Jun_23_1757,60.0060818478,FEMA4ImagesEEG,001,200695,
AFNE01.JPG,AFNE01.JPG,AFNE01.JPG,AFNE01.JPG,AFNE01.JPG,AFNE01.JPG,,,,,,,,,,,,,,,,,1,9,19,8,,,,,,,AFNE19.jpg,AFSA14.jpg,AFNE18.jpg,AFSA13.jpg,AFSA13.jpg,FS,4,num_4,16,num_4,0.70023446095,,,2017_Jun_23_1757,60.0060818478,FEMA4ImagesEEG,001,200695,
AFNE01.JPG,AFNE01.JPG,AFNE01.JPG,AFNE01.JPG,AFNE01.JPG,AFNE01.JPG,,,,,,,,,,,,,,,,,2,0,20,7,,,,,,,AFSA07.jpg,AFNE10.jpg,AFNE16.jpg,AFSA17.jpg,AFNE16.jpg,FN,3,num_2,32,num_4,0.583505303439,,,2017_Jun_23_1757,60.0060818478,FEMA4ImagesEEG,001,200695,
AFNE01.JPG,AFNE01.JPG,AFNE01.JPG,AFNE01.JPG,AFNE01.JPG,AFNE01.JPG,,,,,,,,,,,,,,,,,2,1,21,8,,,,,,,AFNE01.jpg,AFSA16.jpg,AFNE03.jpg,AFSA05.jpg,AFSA05.jpg,FS,4,num_4,16,num_4,0.766754335607,,,2017_Jun_23_1757,60.0060818478,FEMA4ImagesEEG,001,200695,
AFNE01.JPG,AFNE01.JPG,AFNE01.JPG,AFNE01.JPG,AFNE01.JPG,AFNE01.JPG,,,,,,,,,,,,,,,,,2,2,22,3,,,,,,,AFNE04.jpg,AFNE03.jpg,AFSA10.jpg,AFSA18.jpg,AFNE04.jpg,FN,3,num_8,16,num_8,0.700160370005,,,2017_Jun_23_1757,60.0060818478,FEMA4ImagesEEG,001,200695,
AFNE01.JPG,AFNE01.JPG,AFNE01.JPG,AFNE01.JPG,AFNE01.JPG,AFNE01.JPG,,,,,,,,,,,,,,,,,2,3,23,0,,,,,,,AFSA15.jpg,AFNE03.jpg,AFNE04.jpg,AFSA01.jpg,AFNE04.jpg,FN,3,num_2,16,num_2,1.10011129678,,,2017_Jun_23_1757,60.0060818478,FEMA4ImagesEEG,001,200695,
AFNE01.JPG,AFNE01.JPG,AFNE01.JPG,AFNE01.JPG,AFNE01.JPG,AFNE01.JPG,,,,,,,,,,,,,,,,,2,4,24,6,,,,,,,AFSA06.jpg,AFNE13.jpg,AFNE20.jpg,AFSA02.jpg,AFSA02.jpg,FS,4,num_4,16,num_4,0.716807097342,,,2017_Jun_23_1757,60.0060818478,FEMA4ImagesEEG,001,200695,
AFNE01.JPG,AFNE01.JPG,AFNE01.JPG,AFNE01.JPG,AFNE01.JPG,AFNE01.JPG,,,,,,,,,,,,,,,,,2,5,25,1,,,,,,,AFNE10.jpg,AFSA15.jpg,AFSA13.jpg,AFNE08.jpg,AFNE10.jpg,FN,3,num_8,16,num_8,0.933506746762,,,2017_Jun_23_1757,60.0060818478,FEMA4ImagesEEG,001,200695,
AFNE01.JPG,AFNE01.JPG,AFNE01.JPG,AFNE01.JPG,AFNE01.JPG,AFNE01.JPG,,,,,,,,,,,,,,,,,2,6,26,4,,,,,,,AFNE19.jpg,AFSA11.jpg,AFSA01.jpg,AFNE06.jpg,AFNE19.jpg,FN,3,num_8,32,num_2,0.866725789747,,,2017_Jun_23_1757,60.0060818478,FEMA4ImagesEEG,001,200695,
AFNE01.JPG,AFNE01.JPG,AFNE01.JPG,AFNE01.JPG,AFNE01.JPG,AFNE01.JPG,,,,,,,,,,,,,,,,,2,7,27,2,,,,,,,AFSA02.jpg,AFNE16.jpg,AFNE13.jpg,AFSA14.jpg,AFNE13.jpg,FN,3,num_2,16,num_2,2.18341421327,,,2017_Jun_23_1757,60.0060818478,FEMA4ImagesEEG,001,200695,
AFNE01.JPG,AFNE01.JPG,AFNE01.JPG,AFNE01.JPG,AFNE01.JPG,AFNE01.JPG,,,,,,,,,,,,,,,,,2,8,28,9,,,,,,,AFSA15.jpg,AFSA03.jpg,AFNE06.jpg,AFNE14.jpg,AFNE14.jpg,FN,3,num_4,32,num_2,1.13353465115,,,2017_Jun_23_1757,60.0060818478,FEMA4ImagesEEG,001,200695,
AFNE01.JPG,AFNE01.JPG,AFNE01.JPG,AFNE01.JPG,AFNE01.JPG,AFNE01.JPG,,,,,,,,,,,,,,,,,2,9,29,5,,,,,,,AFSA07.jpg,AFNE18.jpg,AFSA12.jpg,AFNE05.jpg,AFNE18.jpg,FN,3,num_6,32,num_2,1.71704989752,,,2017_Jun_23_1757,60.0060818478,FEMA4ImagesEEG,001,200695,
AFNE01.JPG,AFNE01.JPG,AFNE01.JPG,AFNE01.JPG,AFNE01.JPG,AFNE01.JPG,,,,,,,,,,,,,,,,,3,0,30,3,,,,,,,AFSA11.jpg,AFNE06.jpg,AFSA10.jpg,AFNE11.jpg,AFSA10.jpg,FS,4,num_2,16,num_2,0.816885037158,,,2017_Jun_23_1757,60.0060818478,FEMA4ImagesEEG,001,200695,
AFNE01.JPG,AFNE01.JPG,AFNE01.JPG,AFNE01.JPG,AFNE01.JPG,AFNE01.JPG,,,,,,,,,,,,,,,,,3,1,31,8,,,,,,,AFNE10.jpg,AFSA13.jpg,AFNE17.jpg,AFSA19.jpg,AFSA13.jpg,FS,4,num_6,32,num_4,0.800116749364,,,2017_Jun_23_1757,60.0060818478,FEMA4ImagesEEG,001,200695,
AFNE01.JPG,AFNE01.JPG,AFNE01.JPG,AFNE01.JPG,AFNE01.JPG,AFNE01.JPG,,,,,,,,,,,,,,,,,3,2,32,7,,,,,,,AFSA20.jpg,AFNE04.jpg,AFSA06.jpg,AFNE03.jpg,AFNE03.jpg,FN,3,num_4,32,num_2,0.983482530894,,,2017_Jun_23_1757,60.0060818478,FEMA4ImagesEEG,001,200695,
AFNE01.JPG,AFNE01.JPG,AFNE01.JPG,AFNE01.JPG,AFNE01.JPG,AFNE01.JPG,,,,,,,,,,,,,,,,,3,3,33,9,,,,,,,AFSA11.jpg,AFNE09.jpg,AFSA01.jpg,AFNE05.jpg,AFSA01.jpg,FS,4,num_2,32,num_8,0.966795069573,,,2017_Jun_23_1757,60.0060818478,FEMA4ImagesEEG,001,200695,
AFNE01.JPG,AFNE01.JPG,AFNE01.JPG,AFNE01.JPG,AFNE01.JPG,AFNE01.JPG,,,,,,,,,,,,,,,,,3,4,34,5,,,,,,,AFNE16.jpg,AFSA08.jpg,AFNE02.jpg,AFSA06.jpg,AFSA06.jpg,FS,4,num_4,32,num_2,0.850112098633,,,2017_Jun_23_1757,60.0060818478,FEMA4ImagesEEG,001,200695,
AFNE01.JPG,AFNE01.JPG,AFNE01.JPG,AFNE01.JPG,AFNE01.JPG,AFNE01.JPG,,,,,,,,,,,,,,,,,3,5,35,6,,,,,,,AFNE02.jpg,AFSA03.jpg,AFSA02.jpg,AFNE18.jpg,AFNE02.jpg,FN,3,num_8,16,num_8,0.766814313989,,,2017_Jun_23_1757,60.0060818478,FEMA4ImagesEEG,001,200695,
AFNE01.JPG,AFNE01.JPG,AFNE01.JPG,AFNE01.JPG,AFNE01.JPG,AFNE01.JPG,,,,,,,,,,,,,,,,,3,6,36,0,,,,,,,AFSA02.jpg,AFSA09.jpg,AFNE10.jpg,AFNE13.jpg,AFNE10.jpg,FN,3,num_2,32,num_6,0.950100552,,,2017_Jun_23_1757,60.0060818478,FEMA4ImagesEEG,001,200695,
AFNE01.JPG,AFNE01.JPG,AFNE01.JPG,AFNE01.JPG,AFNE01.JPG,AFNE01.JPG,,,,,,,,,,,,,,,,,3,7,37,2,,,,,,,AFNE07.jpg,AFSA20.jpg,AFSA17.jpg,AFNE05.jpg,AFNE05.jpg,FN,3,num_4,32,num_6,0.866770372595,,,2017_Jun_23_1757,60.0060818478,FEMA4ImagesEEG,001,200695,
AFNE01.JPG,AFNE01.JPG,AFNE01.JPG,AFNE01.JPG,AFNE01.JPG,AFNE01.JPG,,,,,,,,,,,,,,,,,3,8,38,1,,,,,,,AFNE17.jpg,AFSA12.jpg,AFNE10.jpg,AFSA15.jpg,AFSA15.jpg,FS,4,num_4,16,num_4,0.683470342774,,,2017_Jun_23_1757,60.0060818478,FEMA4ImagesEEG,001,200695,
AFNE01.JPG,AFNE01.JPG,AFNE01.JPG,AFNE01.JPG,AFNE01.JPG,AFNE01.JPG,,,,,,,,,,,,,,,,,3,9,39,4,,,,,,,AFNE18.jpg,AFNE08.jpg,AFSA17.jpg,AFSA02.jpg,AFNE18.jpg,FN,3,num_8,32,num_2,0.900147861146,,,2017_Jun_23_1757,60.0060818478,FEMA4ImagesEEG,001,200695,
AFNE01.JPG,AFNE01.JPG,AFNE01.JPG,AFNE01.JPG,AFNE01.JPG,AFNE01.JPG,,,,,,,,,,,,,,,,,4,0,40,2,,,,,,,AFNE12.jpg,AFSA09.jpg,AFNE19.jpg,AFSA02.jpg,AFSA09.jpg,FS,4,num_6,16,num_6,1.3834087607,,,2017_Jun_23_1757,60.0060818478,FEMA4ImagesEEG,001,200695,
AFNE01.JPG,AFNE01.JPG,AFNE01.JPG,AFNE01.JPG,AFNE01.JPG,AFNE01.JPG,,,,,,,,,,,,,,,,,4,1,41,7,,,,,,,AFNE17.jpg,AFSA12.jpg,AFSA20.jpg,AFNE05.jpg,AFNE17.jpg,FN,3,num_8,16,num_8,0.883433136929,,,2017_Jun_23_1757,60.0060818478,FEMA4ImagesEEG,001,200695,
AFNE01.JPG,AFNE01.JPG,AFNE01.JPG,AFNE01.JPG,AFNE01.JPG,AFNE01.JPG,,,,,,,,,,,,,,,,,4,2,42,4,,,,,,,AFSA05.jpg,AFSA14.jpg,AFNE09.jpg,AFNE04.jpg,AFNE04.jpg,FN,3,num_4,16,num_4,1.28341325106,,,2017_Jun_23_1757,60.0060818478,FEMA4ImagesEEG,001,200695,
AFNE01.JPG,AFNE01.JPG,AFNE01.JPG,AFNE01.JPG,AFNE01.JPG,AFNE01.JPG,,,,,,,,,,,,,,,,,4,3,43,6,,,,,,,AFSA11.jpg,AFNE04.jpg,AFSA13.jpg,AFNE20.jpg,AFSA13.jpg,FS,4,num_2,16,num_2,0.883468097585,,,2017_Jun_23_1757,60.0060818478,FEMA4ImagesEEG,001,200695,
AFNE01.JPG,AFNE01.JPG,AFNE01.JPG,AFNE01.JPG,AFNE01.JPG,AFNE01.JPG,,,,,,,,,,,,,,,,,4,4,44,1,,,,,,,AFNE11.jpg,AFNE15.jpg,AFSA08.jpg,AFSA16.jpg,AFNE11.jpg,FN,3,num_8,16,num_8,0.850145455595,,,2017_Jun_23_1757,60.0060818478,FEMA4ImagesEEG,001,200695,
AFNE01.JPG,AFNE01.JPG,AFNE01.JPG,AFNE01.JPG,AFNE01.JPG,AFNE01.JPG,,,,,,,,,,,,,,,,,4,5,45,3,,,,,,,AFSA13.jpg,AFSA07.jpg,AFNE01.jpg,AFNE05.jpg,AFSA13.jpg,FS,4,num_8,16,num_8,1.31678015518,,,2017_Jun_23_1757,60.0060818478,FEMA4ImagesEEG,001,200695,
AFNE01.JPG,AFNE01.JPG,AFNE01.JPG,AFNE01.JPG,AFNE01.JPG,AFNE01.JPG,,,,,,,,,,,,,,,,,4,6,46,9,,,,,,,AFSA05.jpg,AFNE15.jpg,AFNE09.jpg,AFSA20.jpg,AFSA05.jpg,FS,4,num_8,16,num_8,1.05011338159,,,2017_Jun_23_1757,60.0060818478,FEMA4ImagesEEG,001,200695,
AFNE01.JPG,AFNE01.JPG,AFNE01.JPG,AFNE01.JPG,AFNE01.JPG,AFNE01.JPG,,,,,,,,,,,,,,,,,4,7,47,8,,,,,,,AFNE07.jpg,AFSA15.jpg,AFSA07.jpg,AFNE09.jpg,AFNE09.jpg,FN,3,num_4,16,num_4,1.11673813823,,,2017_Jun_23_1757,60.0060818478,FEMA4ImagesEEG,001,200695,
AFNE01.JPG,AFNE01.JPG,AFNE01.JPG,AFNE01.JPG,AFNE01.JPG,AFNE01.JPG,,,,,,,,,,,,,,,,,4,8,48,0,,,,,,,AFSA09.jpg,AFSA11.jpg,AFNE20.jpg,AFNE04.jpg,AFSA09.jpg,FS,4,num_8,16,num_8,0.716781438125,,,2017_Jun_23_1757,60.0060818478,FEMA4ImagesEEG,001,200695,
AFNE01.JPG,AFNE01.JPG,AFNE01.JPG,AFNE01.JPG,AFNE01.JPG,AFNE01.JPG,,,,,,,,,,,,,,,,,4,9,49,5,,,,,,,AFSA06.jpg,AFSA14.jpg,AFNE15.jpg,AFNE19.jpg,AFSA14.jpg,FS,4,num_6,16,num_6,0.76680661623,,,2017_Jun_23_1757,60.0060818478,FEMA4ImagesEEG,001,200695,
AFNE01.JPG,AFNE01.JPG,AFNE01.JPG,AFNE01.JPG,AFNE01.JPG,AFNE01.JPG,,,,,,,,,,,,,,,,,5,0,50,5,,,,,,,AFSA03.jpg,AFNE06.jpg,AFNE15.jpg,AFSA19.jpg,AFNE15.jpg,FN,3,num_2,32,num_4,0.750131663779,,,2017_Jun_23_1757,60.0060818478,FEMA4ImagesEEG,001,200695,
AFNE01.JPG,AFNE01.JPG,AFNE01.JPG,AFNE01.JPG,AFNE01.JPG,AFNE01.JPG,,,,,,,,,,,,,,,,,5,1,51,9,,,,,,,AFSA17.jpg,AFNE17.jpg,AFSA01.jpg,AFNE09.jpg,AFSA17.jpg,FS,4,num_8,16,num_8,0.866769089655,,,2017_Jun_23_1757,60.0060818478,FEMA4ImagesEEG,001,200695,
AFNE01.JPG,AFNE01.JPG,AFNE01.JPG,AFNE01.JPG,AFNE01.JPG,AFNE01.JPG,,,,,,,,,,,,,,,,,5,2,52,2,,,,,,,AFSA10.jpg,AFNE16.jpg,AFNE08.jpg,AFSA06.jpg,AFSA06.jpg,FS,4,num_4,32,num_2,0.66680116365,,,2017_Jun_23_1757,60.0060818478,FEMA4ImagesEEG,001,200695,
AFNE01.JPG,AFNE01.JPG,AFNE01.JPG,AFNE01.JPG,AFNE01.JPG,AFNE01.JPG,,,,,,,,,,,,,,,,,5,3,53,4,,,,,,,AFNE04.jpg,AFSA08.jpg,AFSA09.jpg,AFNE09.jpg,AFNE09.jpg,FN,3,num_4,32,num_8,0.983456230213,,,2017_Jun_23_1757,60.0060818478,FEMA4ImagesEEG,001,200695,
AFNE01.JPG,AFNE01.JPG,AFNE01.JPG,AFNE01.JPG,AFNE01.JPG,AFNE01.JPG,,,,,,,,,,,,,,,,,5,4,54,3,,,,,,,AFSA12.jpg,AFSA04.jpg,AFNE16.jpg,AFNE12.jpg,AFNE12.jpg,FN,3,num_4,32,num_2,0.883510435262,,,2017_Jun_23_1757,60.0060818478,FEMA4ImagesEEG,001,200695,
AFNE01.JPG,AFNE01.JPG,AFNE01.JPG,AFNE01.JPG,AFNE01.JPG,AFNE01.JPG,,,,,,,,,,,,,,,,,5,5,55,6,,,,,,,AFSA20.jpg,AFNE02.jpg,AFNE15.jpg,AFSA19.jpg,AFSA19.jpg,FS,4,num_4,32,num_8,0.733119292825,,,2017_Jun_23_1757,60.0060818478,FEMA4ImagesEEG,001,200695,
AFNE01.JPG,AFNE01.JPG,AFNE01.JPG,AFNE01.JPG,AFNE01.JPG,AFNE01.JPG,,,,,,,,,,,,,,,,,5,6,56,7,,,,,,,AFNE20.jpg,AFNE13.jpg,AFSA20.jpg,AFSA13.jpg,AFNE20.jpg,FN,3,num_8,32,num_4,0.88333851863,,,2017_Jun_23_1757,60.0060818478,FEMA4ImagesEEG,001,200695,
AFNE01.JPG,AFNE01.JPG,AFNE01.JPG,AFNE01.JPG,AFNE01.JPG,AFNE01.JPG,,,,,,,,,,,,,,,,,5,7,57,8,,,,,,,AFSA10.jpg,AFSA03.jpg,AFNE06.jpg,AFNE19.jpg,AFNE19.jpg,FN,3,num_4,32,num_6,0.68354058484,,,2017_Jun_23_1757,60.0060818478,FEMA4ImagesEEG,001,200695,
AFNE01.JPG,AFNE01.JPG,AFNE01.JPG,AFNE01.JPG,AFNE01.JPG,AFNE01.JPG,,,,,,,,,,,,,,,,,5,8,58,0,,,,,,,AFNE05.jpg,AFSA20.jpg,AFNE16.jpg,AFSA13.jpg,AFNE16.jpg,FN,3,num_2,16,num_2,1.36667062245,,,2017_Jun_23_1757,60.0060818478,FEMA4ImagesEEG,001,200695,
AFNE01.JPG,AFNE01.JPG,AFNE01.JPG,AFNE01.JPG,AFNE01.JPG,AFNE01.JPG,,,,,,,,,,,,,,,,,5,9,59,1,,,,,,,AFNE03.jpg,AFSA03.jpg,AFSA04.jpg,AFNE16.jpg,AFNE16.jpg,FN,3,num_4,16,num_4,0.650270223457,,,2017_Jun_23_1757,60.0060818478,FEMA4ImagesEEG,001,200695,
,,,,,,,,,,,,,,,,,,,,,,,,,,,,,,,,,,,,,,,,,,,space,2.20041728276,2017_Jun_23_1757,60.0060818478,FEMA4ImagesEEG,001,200695,
AFNE01.JPG,AFNE01.JPG,AFNE01.JPG,AFNE01.JPG,AFNE01.JPG,AFNE01.JPG,,,,,,,,,,,,,,,,,,,,,0,0,0,0,,,AMNE04.jpg,AMNE08.jpg,AMSA06.jpg,AMSA02.jpg,AMNE04.jpg,MN,1,num_8,32,num_4,0.733495841603,,,2017_Jun_23_1757,60.0060818478,FEMA4ImagesEEG,001,200695,
AFNE01.JPG,AFNE01.JPG,AFNE01.JPG,AFNE01.JPG,AFNE01.JPG,AFNE01.JPG,,,,,,,,,,,,,,,,,,,,,0,1,1,7,,,AMSA20.jpg,AMSA07.jpg,AMNE02.jpg,AMNE19.jpg,AMNE02.jpg,MN,1,num_2,16,num_2,0.950146738556,,,2017_Jun_23_1757,60.0060818478,FEMA4ImagesEEG,001,200695,
AFNE01.JPG,AFNE01.JPG,AFNE01.JPG,AFNE01.JPG,AFNE01.JPG,AFNE01.JPG,,,,,,,,,,,,,,,,,,,,,0,2,2,3,,,AMSA19.jpg,AMNE11.jpg,AMNE02.jpg,AMSA13.jpg,AMNE11.jpg,MN,1,num_6,32,num_2,1.60007729834,,,2017_Jun_23_1757,60.0060818478,FEMA4ImagesEEG,001,200695,
AFNE01.JPG,AFNE01.JPG,AFNE01.JPG,AFNE01.JPG,AFNE01.JPG,AFNE01.JPG,,,,,,,,,,,,,,,,,,,,,0,3,3,5,,,AMSA05.jpg,AMNE16.jpg,AMSA17.jpg,AMNE07.jpg,AMSA05.jpg,MS,2,num_8,32,num_4,0.750117230476,,,2017_Jun_23_1757,60.0060818478,FEMA4ImagesEEG,001,200695,
AFNE01.JPG,AFNE01.JPG,AFNE01.JPG,AFNE01.JPG,AFNE01.JPG,AFNE01.JPG,,,,,,,,,,,,,,,,,,,,,0,4,4,4,,,AMSA16.jpg,AMNE02.jpg,AMNE03.jpg,AMSA14.jpg,AMNE03.jpg,MN,1,num_2,32,num_8,0.833450938007,,,2017_Jun_23_1757,60.0060818478,FEMA4ImagesEEG,001,200695,
AFNE01.JPG,AFNE01.JPG,AFNE01.JPG,AFNE01.JPG,AFNE01.JPG,AFNE01.JPG,,,,,,,,,,,,,,,,,,,,,0,5,5,9,,,AMSA03.jpg,AMNE19.jpg,AMSA17.jpg,AMNE02.jpg,AMSA17.jpg,MS,2,num_2,32,num_8,1.30009269385,,,2017_Jun_23_1757,60.0060818478,FEMA4ImagesEEG,001,200695,
AFNE01.JPG,AFNE01.JPG,AFNE01.JPG,AFNE01.JPG,AFNE01.JPG,AFNE01.JPG,,,,,,,,,,,,,,,,,,,,,0,6,6,6,,,AMSA04.jpg,AMNE05.jpg,AMSA02.jpg,AMNE17.jpg,AMNE17.jpg,MN,1,num_4,16,num_4,0.866752411166,,,2017_Jun_23_1757,60.0060818478,FEMA4ImagesEEG,001,200695,
AFNE01.JPG,AFNE01.JPG,AFNE01.JPG,AFNE01.JPG,AFNE01.JPG,AFNE01.JPG,,,,,,,,,,,,,,,,,,,,,0,7,7,2,,,AMSA10.jpg,AMNE06.jpg,AMNE16.jpg,AMSA04.jpg,AMNE06.jpg,MN,1,num_6,16,num_6,1.76668762168,,,2017_Jun_23_1757,60.0060818478,FEMA4ImagesEEG,001,200695,
AFNE01.JPG,AFNE01.JPG,AFNE01.JPG,AFNE01.JPG,AFNE01.JPG,AFNE01.JPG,,,,,,,,,,,,,,,,,,,,,0,8,8,1,,,AMNE11.jpg,AMSA10.jpg,AMSA18.jpg,AMNE02.jpg,AMNE11.jpg,MN,1,num_8,16,num_8,0.600121881202,,,2017_Jun_23_1757,60.0060818478,FEMA4ImagesEEG,001,200695,
AFNE01.JPG,AFNE01.JPG,AFNE01.JPG,AFNE01.JPG,AFNE01.JPG,AFNE01.JPG,,,,,,,,,,,,,,,,,,,,,0,9,9,8,,,AMSA12.jpg,AMNE07.jpg,AMSA15.jpg,AMNE10.jpg,AMNE10.jpg,MN,1,num_4,16,num_4,0.70012123973,,,2017_Jun_23_1757,60.0060818478,FEMA4ImagesEEG,001,200695,
AFNE01.JPG,AFNE01.JPG,AFNE01.JPG,AFNE01.JPG,AFNE01.JPG,AFNE01.JPG,,,,,,,,,,,,,,,,,,,,,1,0,10,3,,,AMNE15.jpg,AMNE13.jpg,AMSA12.jpg,AMSA19.jpg,AMSA19.jpg,MS,2,num_4,32,num_6,0.900093014599,,,2017_Jun_23_1757,60.0060818478,FEMA4ImagesEEG,001,200695,
AFNE01.JPG,AFNE01.JPG,AFNE01.JPG,AFNE01.JPG,AFNE01.JPG,AFNE01.JPG,,,,,,,,,,,,,,,,,,,,,1,1,11,8,,,AMNE02.jpg,AMSA17.jpg,AMNE06.jpg,AMSA09.jpg,AMSA09.jpg,MS,2,num_4,32,num_8,1.28350273751,,,2017_Jun_23_1757,60.0060818478,FEMA4ImagesEEG,001,200695,
AFNE01.JPG,AFNE01.JPG,AFNE01.JPG,AFNE01.JPG,AFNE01.JPG,AFNE01.JPG,,,,,,,,,,,,,,,,,,,,,1,2,12,0,,,AMNE15.jpg,AMSA13.jpg,AMNE10.jpg,AMSA05.jpg,AMSA05.jpg,MS,2,num_4,16,num_4,0.650131984512,,,2017_Jun_23_1757,60.0060818478,FEMA4ImagesEEG,001,200695,
AFNE01.JPG,AFNE01.JPG,AFNE01.JPG,AFNE01.JPG,AFNE01.JPG,AFNE01.JPG,,,,,,,,,,,,,,,,,,,,,1,3,13,4,,,AMNE18.jpg,AMSA10.jpg,AMSA09.jpg,AMNE07.jpg,AMNE18.jpg,MN,1,num_8,16,num_8,0.816778230743,,,2017_Jun_23_1757,60.0060818478,FEMA4ImagesEEG,001,200695,
AFNE01.JPG,AFNE01.JPG,AFNE01.JPG,AFNE01.JPG,AFNE01.JPG,AFNE01.JPG,,,,,,,,,,,,,,,,,,,,,1,4,14,7,,,AMNE09.jpg,AMNE07.jpg,AMSA20.jpg,AMSA15.jpg,AMNE09.jpg,MN,1,num_8,32,num_2,0.766770693343,,,2017_Jun_23_1757,60.0060818478,FEMA4ImagesEEG,001,200695,
AFNE01.JPG,AFNE01.JPG,AFNE01.JPG,AFNE01.JPG,AFNE01.JPG,AFNE01.JPG,,,,,,,,,,,,,,,,,,,,,1,5,15,1,,,AMSA15.jpg,AMNE10.jpg,AMSA19.jpg,AMNE14.jpg,AMSA15.jpg,MS,2,num_8,16,num_8,0.733471144631,,,2017_Jun_23_1757,60.0060818478,FEMA4ImagesEEG,001,200695,
AFNE01.JPG,AFNE01.JPG,AFNE01.JPG,AFNE01.JPG,AFNE01.JPG,AFNE01.JPG,,,,,,,,,,,,,,,,,,,,,1,6,16,5,,,AMNE08.jpg,AMSA07.jpg,AMSA08.jpg,AMNE15.jpg,AMSA08.jpg,MS,2,num_2,32,num_8,0.850153794847,,,2017_Jun_23_1757,60.0060818478,FEMA4ImagesEEG,001,200695,
AFNE01.JPG,AFNE01.JPG,AFNE01.JPG,AFNE01.JPG,AFNE01.JPG,AFNE01.JPG,,,,,,,,,,,,,,,,,,,,,1,7,17,9,,,AMNE07.jpg,AMSA03.jpg,AMSA08.jpg,AMNE12.jpg,AMSA08.jpg,MS,2,num_2,16,num_2,0.866763957805,,,2017_Jun_23_1757,60.0060818478,FEMA4ImagesEEG,001,200695,
AFNE01.JPG,AFNE01.JPG,AFNE01.JPG,AFNE01.JPG,AFNE01.JPG,AFNE01.JPG,,,,,,,,,,,,,,,,,,,,,1,8,18,2,,,AMNE05.jpg,AMSA19.jpg,AMSA16.jpg,AMNE15.jpg,AMNE15.jpg,MN,1,num_4,16,num_4,0.716779192953,,,2017_Jun_23_1757,60.0060818478,FEMA4ImagesEEG,001,200695,
AFNE01.JPG,AFNE01.JPG,AFNE01.JPG,AFNE01.JPG,AFNE01.JPG,AFNE01.JPG,,,,,,,,,,,,,,,,,,,,,1,9,19,6,,,AMNE18.jpg,AMSA14.jpg,AMSA20.jpg,AMNE04.jpg,AMSA14.jpg,MS,2,num_6,32,num_8,0.733097482516,,,2017_Jun_23_1757,60.0060818478,FEMA4ImagesEEG,001,200695,
AFNE01.JPG,AFNE01.JPG,AFNE01.JPG,AFNE01.JPG,AFNE01.JPG,AFNE01.JPG,,,,,,,,,,,,,,,,,,,,,2,0,20,4,,,AMSA14.jpg,AMSA07.jpg,AMNE06.jpg,AMNE20.jpg,AMSA14.jpg,MS,2,num_8,32,num_2,0.750103117913,,,2017_Jun_23_1757,60.0060818478,FEMA4ImagesEEG,001,200695,
AFNE01.JPG,AFNE01.JPG,AFNE01.JPG,AFNE01.JPG,AFNE01.JPG,AFNE01.JPG,,,,,,,,,,,,,,,,,,,,,2,1,21,5,,,AMNE06.jpg,AMNE09.jpg,AMSA11.jpg,AMSA01.jpg,AMSA11.jpg,MS,2,num_2,32,num_4,0.800201745471,,,2017_Jun_23_1757,60.0060818478,FEMA4ImagesEEG,001,200695,
AFNE01.JPG,AFNE01.JPG,AFNE01.JPG,AFNE01.JPG,AFNE01.JPG,AFNE01.JPG,,,,,,,,,,,,,,,,,,,,,2,2,22,2,,,AMNE16.jpg,AMSA06.jpg,AMNE12.jpg,AMSA14.jpg,AMSA06.jpg,MS,2,num_6,16,num_6,0.566775183703,,,2017_Jun_23_1757,60.0060818478,FEMA4ImagesEEG,001,200695,
AFNE01.JPG,AFNE01.JPG,AFNE01.JPG,AFNE01.JPG,AFNE01.JPG,AFNE01.JPG,,,,,,,,,,,,,,,,,,,,,2,3,23,3,,,AMSA09.jpg,AMSA01.jpg,AMNE20.jpg,AMNE04.jpg,AMNE20.jpg,MN,1,num_2,32,num_8,0.433486219408,,,2017_Jun_23_1757,60.0060818478,FEMA4ImagesEEG,001,200695,
AFNE01.JPG,AFNE01.JPG,AFNE01.JPG,AFNE01.JPG,AFNE01.JPG,AFNE01.JPG,,,,,,,,,,,,,,,,,,,,,2,4,24,8,,,AMSA19.jpg,AMNE14.jpg,AMSA07.jpg,AMNE20.jpg,AMNE20.jpg,MN,1,num_4,32,num_2,0.433594308794,,,2017_Jun_23_1757,60.0060818478,FEMA4ImagesEEG,001,200695,
AFNE01.JPG,AFNE01.JPG,AFNE01.JPG,AFNE01.JPG,AFNE01.JPG,AFNE01.JPG,,,,,,,,,,,,,,,,,,,,,2,5,25,0,,,AMSA12.jpg,AMSA18.jpg,AMNE17.jpg,AMNE01.jpg,AMSA12.jpg,MS,2,num_8,32,num_4,0.800127975264,,,2017_Jun_23_1757,60.0060818478,FEMA4ImagesEEG,001,200695,
AFNE01.JPG,AFNE01.JPG,AFNE01.JPG,AFNE01.JPG,AFNE01.JPG,AFNE01.JPG,,,,,,,,,,,,,,,,,,,,,2,6,26,1,,,AMNE05.jpg,AMSA11.jpg,AMSA01.jpg,AMNE01.jpg,AMNE05.jpg,MN,1,num_8,16,num_8,0.63353785855,,,2017_Jun_23_1757,60.0060818478,FEMA4ImagesEEG,001,200695,
AFNE01.JPG,AFNE01.JPG,AFNE01.JPG,AFNE01.JPG,AFNE01.JPG,AFNE01.JPG,,,,,,,,,,,,,,,,,,,,,2,7,27,9,,,AMNE06.jpg,AMNE07.jpg,AMSA02.jpg,AMSA01.jpg,AMNE06.jpg,MN,1,num_8,32,num_6,0.533494237912,,,2017_Jun_23_1757,60.0060818478,FEMA4ImagesEEG,001,200695,
AFNE01.JPG,AFNE01.JPG,AFNE01.JPG,AFNE01.JPG,AFNE01.JPG,AFNE01.JPG,,,,,,,,,,,,,,,,,,,,,2,8,28,7,,,AMNE08.jpg,AMNE05.jpg,AMSA04.jpg,AMSA01.jpg,AMNE05.jpg,MN,1,num_6,16,num_6,0.866790258486,,,2017_Jun_23_1757,60.0060818478,FEMA4ImagesEEG,001,200695,
AFNE01.JPG,AFNE01.JPG,AFNE01.JPG,AFNE01.JPG,AFNE01.JPG,AFNE01.JPG,,,,,,,,,,,,,,,,,,,,,2,9,29,6,,,AMNE05.jpg,AMSA18.jpg,AMNE07.jpg,AMSA16.jpg,AMNE05.jpg,MN,1,num_8,32,num_4,0.716759307077,,,2017_Jun_23_1757,60.0060818478,FEMA4ImagesEEG,001,200695,
AFNE01.JPG,AFNE01.JPG,AFNE01.JPG,AFNE01.JPG,AFNE01.JPG,AFNE01.JPG,,,,,,,,,,,,,,,,,,,,,3,0,30,5,,,AMNE04.jpg,AMSA08.jpg,AMSA18.jpg,AMNE08.jpg,AMNE08.jpg,MN,1,num_4,32,num_8,0.816765401134,,,2017_Jun_23_1757,60.0060818478,FEMA4ImagesEEG,001,200695,
AFNE01.JPG,AFNE01.JPG,AFNE01.JPG,AFNE01.JPG,AFNE01.JPG,AFNE01.JPG,,,,,,,,,,,,,,,,,,,,,3,1,31,3,,,AMNE17.jpg,AMSA09.jpg,AMSA07.jpg,AMNE08.jpg,AMSA09.jpg,MS,2,num_6,16,num_6,1.01690748896,,,2017_Jun_23_1757,60.0060818478,FEMA4ImagesEEG,001,200695,
AFNE01.JPG,AFNE01.JPG,AFNE01.JPG,AFNE01.JPG,AFNE01.JPG,AFNE01.JPG,,,,,,,,,,,,,,,,,,,,,3,2,32,0,,,AMNE06.jpg,AMSA17.jpg,AMSA04.jpg,AMNE11.jpg,AMNE06.jpg,MN,1,num_8,16,num_8,0.883496001974,,,2017_Jun_23_1757,60.0060818478,FEMA4ImagesEEG,001,200695,
AFNE01.JPG,AFNE01.JPG,AFNE01.JPG,AFNE01.JPG,AFNE01.JPG,AFNE01.JPG,,,,,,,,,,,,,,,,,,,,,3,3,33,6,,,AMNE05.jpg,AMNE02.jpg,AMSA09.jpg,AMSA01.jpg,AMNE05.jpg,MN,1,num_8,16,num_8,0.816905885265,,,2017_Jun_23_1757,60.0060818478,FEMA4ImagesEEG,001,200695,
AFNE01.JPG,AFNE01.JPG,AFNE01.JPG,AFNE01.JPG,AFNE01.JPG,AFNE01.JPG,,,,,,,,,,,,,,,,,,,,,3,4,34,2,,,AMSA03.jpg,AMNE02.jpg,AMSA20.jpg,AMNE01.jpg,AMSA20.jpg,MS,2,num_2,16,num_2,1.04984941256,,,2017_Jun_23_1757,60.0060818478,FEMA4ImagesEEG,001,200695,
AFNE01.JPG,AFNE01.JPG,AFNE01.JPG,AFNE01.JPG,AFNE01.JPG,AFNE01.JPG,,,,,,,,,,,,,,,,,,,,,3,5,35,9,,,AMSA15.jpg,AMNE14.jpg,AMNE02.jpg,AMSA14.jpg,AMNE02.jpg,MN,1,num_2,32,num_4,0.833391280365,,,2017_Jun_23_1757,60.0060818478,FEMA4ImagesEEG,001,200695,
AFNE01.JPG,AFNE01.JPG,AFNE01.JPG,AFNE01.JPG,AFNE01.JPG,AFNE01.JPG,,,,,,,,,,,,,,,,,,,,,3,6,36,1,,,AMSA13.jpg,AMNE11.jpg,AMSA14.jpg,AMNE06.jpg,AMSA14.jpg,MS,2,num_2,16,num_2,0.95035072921,,,2017_Jun_23_1757,60.0060818478,FEMA4ImagesEEG,001,200695,
AFNE01.JPG,AFNE01.JPG,AFNE01.JPG,AFNE01.JPG,AFNE01.JPG,AFNE01.JPG,,,,,,,,,,,,,,,,,,,,,3,7,37,4,,,AMNE08.jpg,AMNE03.jpg,AMSA19.jpg,AMSA11.jpg,AMSA11.jpg,MS,2,num_4,16,num_4,0.533472427574,,,2017_Jun_23_1757,60.0060818478,FEMA4ImagesEEG,001,200695,
AFNE01.JPG,AFNE01.JPG,AFNE01.JPG,AFNE01.JPG,AFNE01.JPG,AFNE01.JPG,,,,,,,,,,,,,,,,,,,,,3,8,38,8,,,AMSA01.jpg,AMNE05.jpg,AMNE08.jpg,AMSA02.jpg,AMNE05.jpg,MN,1,num_6,32,num_2,0.900142729311,,,2017_Jun_23_1757,60.0060818478,FEMA4ImagesEEG,001,200695,
