IPosition2,IPosition3,IPosition1,IPosition6,IPosition4,IPosition5,TrialsF1.thisRepN,TrialsF1.thisTrialN,TrialsF1.thisN,TrialsF1.thisIndex,TrialsM1.thisRepN,TrialsM1.thisTrialN,TrialsM1.thisN,TrialsM1.thisIndex,TrialsF2.thisRepN,TrialsF2.thisTrialN,TrialsF2.thisN,TrialsF2.thisIndex,TrialsM2.thisRepN,TrialsM2.thisTrialN,TrialsM2.thisN,TrialsM2.thisIndex,TrialsF3.thisRepN,TrialsF3.thisTrialN,TrialsF3.thisN,TrialsF3.thisIndex,TrialsM3.thisRepN,TrialsM3.thisTrialN,TrialsM3.thisN,TrialsM3.thisIndex,InstrKey_resp.keys,InstrKey_resp.rt,Image0 _Position,Image1 _Position,Image2 _Position,Image3 _Position,Center_image,condition,code,correct_answer,accuracy,Key_Resp.keys,Key_Resp.rt,BreakKey_resp.keys,BreakKey_resp.rt,date,frameRate,expName,session,participant,
,,,,,,,,,,,,,,,,,,,,,,,,,,,,,,space,11.1494296929,,,,,,,,,,,,,,2017_Jun_26_1537,60.0125114525,FEMA4ImagesEEG,001,200716,
AFSA21.JPG,AFNE23.JPG,AFNE21.JPG,AFSA25.JPG,AFNE25.JPG,AFSA23.JPG,0,0,0,4,,,,,,,,,,,,,,,,,,,,,,,AFSA19.jpg,AFNE02.jpg,AFSA07.jpg,AFNE15.jpg,AFSA19.jpg,FS,4,num_8,32,num_4,1.51671919312,,,2017_Jun_26_1537,60.0125114525,FEMA4ImagesEEG,001,200716,
AFSA25.JPG,AFNE24.JPG,AFSA24.JPG,AFNE21.JPG,AFSA21.JPG,AFNE25.JPG,0,1,1,2,,,,,,,,,,,,,,,,,,,,,,,AFSA20.jpg,AFNE08.jpg,AFNE19.jpg,AFSA01.jpg,AFSA01.jpg,FS,4,num_4,16,num_4,0.700136057738,,,2017_Jun_26_1537,60.0125114525,FEMA4ImagesEEG,001,200716,
AFSA21.JPG,AFNE22.JPG,AFNE21.JPG,AFSA23.JPG,AFSA22.JPG,AFNE23.JPG,0,2,2,0,,,,,,,,,,,,,,,,,,,,,,,AFNE19.jpg,AFSA13.jpg,AFNE03.jpg,AFSA14.jpg,AFSA13.jpg,FS,4,num_6,32,num_2,0.600152223014,,,2017_Jun_26_1537,60.0125114525,FEMA4ImagesEEG,001,200716,
AMNE22.JPG,AMSA24.JPG,AMSA22.JPG,AMNE25.JPG,AMNE24.JPG,AMSA25.JPG,0,3,3,7,,,,,,,,,,,,,,,,,,,,,,,AFSA10.jpg,AFNE15.jpg,AFSA04.jpg,AFNE13.jpg,AFSA04.jpg,FS,4,num_2,32,num_8,0.916736962095,,,2017_Jun_26_1537,60.0125114525,FEMA4ImagesEEG,001,200716,
AMNE23.JPG,AMNE24.JPG,AMNE22.JPG,AMSA24.JPG,AMSA22.JPG,AMSA23.JPG,0,4,4,9,,,,,,,,,,,,,,,,,,,,,,,AFNE06.jpg,AFNE14.jpg,AFSA15.jpg,AFSA03.jpg,AFNE14.jpg,FN,3,num_6,32,num_2,0.600132016418,,,2017_Jun_26_1537,60.0125114525,FEMA4ImagesEEG,001,200716,
AFNE23.JPG,AFNE24.JPG,AFNE22.JPG,AFSA24.JPG,AFSA22.JPG,AFSA23.JPG,0,5,5,8,,,,,,,,,,,,,,,,,,,,,,,AFNE09.jpg,AFNE18.jpg,AFSA11.jpg,AFSA02.jpg,AFSA11.jpg,FS,4,num_2,16,num_2,0.783319231483,,,2017_Jun_26_1537,60.0125114525,FEMA4ImagesEEG,001,200716,
AMSA25.JPG,AMNE24.JPG,AMSA24.JPG,AMNE26.JPG,AMSA21.JPG,AMNE25.JPG,0,6,6,3,,,,,,,,,,,,,,,,,,,,,,,AFSA20.jpg,AFSA18.jpg,AFNE10.jpg,AFNE02.jpg,AFNE10.jpg,FN,3,num_2,32,num_6,1.10020418283,,,2017_Jun_26_1537,60.0125114525,FEMA4ImagesEEG,001,200716,
AMSA21.JPG,AMNE22.JPG,AMNE21.JPG,AMSA23.JPG,AMSA22.JPG,AMNE23.JPG,0,7,7,1,,,,,,,,,,,,,,,,,,,,,,,AFSA03.jpg,AFNE01.jpg,AFSA15.jpg,AFNE14.jpg,AFNE14.jpg,FN,3,num_4,16,num_4,0.650129546724,,,2017_Jun_26_1537,60.0125114525,FEMA4ImagesEEG,001,200716,
AMSA21.JPG,AMNE23.JPG,AMNE21.JPG,AMSA25.JPG,AMNE25.JPG,AMSA23.JPG,0,8,8,5,,,,,,,,,,,,,,,,,,,,,,,AFSA08.jpg,AFNE06.jpg,AFNE01.jpg,AFSA12.jpg,AFSA08.jpg,FS,4,num_8,32,num_6,1.36673077182,,,2017_Jun_26_1537,60.0125114525,FEMA4ImagesEEG,001,200716,
AFNE22.JPG,AFSA24.JPG,AFSA22.JPG,AFNE25.JPG,AFNE24.JPG,AFSA25.JPG,0,9,9,6,,,,,,,,,,,,,,,,,,,,,,,AFNE01.jpg,AFNE03.jpg,AFSA11.jpg,AFSA02.jpg,AFSA02.jpg,FS,4,num_4,32,num_8,0.916863333496,,,2017_Jun_26_1537,60.0125114525,FEMA4ImagesEEG,001,200716,
AMNE22.JPG,AMSA24.JPG,AMSA22.JPG,AMNE25.JPG,AMNE24.JPG,AMSA25.JPG,,,,,0,0,0,7,,,,,,,,,,,,,,,,,,,AMSA17.jpg,AMNE12.jpg,AMNE10.jpg,AMSA03.jpg,AMSA03.jpg,MS,2,num_4,16,num_4,0.550164635639,,,2017_Jun_26_1537,60.0125114525,FEMA4ImagesEEG,001,200716,
AFSA25.JPG,AFNE24.JPG,AFSA24.JPG,AFNE21.JPG,AFSA21.JPG,AFNE25.JPG,,,,,0,1,1,2,,,,,,,,,,,,,,,,,,,AMNE16.jpg,AMSA13.jpg,AMSA18.jpg,AMNE03.jpg,AMNE03.jpg,MN,1,num_4,16,num_4,1.55007707373,,,2017_Jun_26_1537,60.0125114525,FEMA4ImagesEEG,001,200716,
AMNE23.JPG,AMNE24.JPG,AMNE22.JPG,AMSA24.JPG,AMSA22.JPG,AMSA23.JPG,,,,,0,2,2,9,,,,,,,,,,,,,,,,,,,AMSA15.jpg,AMSA18.jpg,AMNE19.jpg,AMNE08.jpg,AMSA18.jpg,MS,2,num_6,16,num_6,0.750253544651,,,2017_Jun_26_1537,60.0125114525,FEMA4ImagesEEG,001,200716,
AFNE22.JPG,AFSA24.JPG,AFSA22.JPG,AFNE25.JPG,AFNE24.JPG,AFSA25.JPG,,,,,0,3,3,6,,,,,,,,,,,,,,,,,,,AMSA13.jpg,AMNE09.jpg,AMSA14.jpg,AMNE10.jpg,AMSA13.jpg,MS,2,num_8,32,num_6,0.750087722281,,,2017_Jun_26_1537,60.0125114525,FEMA4ImagesEEG,001,200716,
AMSA21.JPG,AMNE22.JPG,AMNE21.JPG,AMSA23.JPG,AMSA22.JPG,AMNE23.JPG,,,,,0,4,4,1,,,,,,,,,,,,,,,,,,,AMSA06.jpg,AMNE12.jpg,AMNE18.jpg,AMSA15.jpg,AMSA15.jpg,MS,2,num_4,16,num_4,1.60005471818,,,2017_Jun_26_1537,60.0125114525,FEMA4ImagesEEG,001,200716,
AFNE23.JPG,AFNE24.JPG,AFNE22.JPG,AFSA24.JPG,AFSA22.JPG,AFSA23.JPG,,,,,0,5,5,8,,,,,,,,,,,,,,,,,,,AMNE11.jpg,AMSA14.jpg,AMNE06.jpg,AMSA15.jpg,AMNE11.jpg,MN,1,num_8,16,num_8,0.866745846582,,,2017_Jun_26_1537,60.0125114525,FEMA4ImagesEEG,001,200716,
AMSA25.JPG,AMNE24.JPG,AMSA24.JPG,AMNE26.JPG,AMSA21.JPG,AMNE25.JPG,,,,,0,6,6,3,,,,,,,,,,,,,,,,,,,AMSA13.jpg,AMNE12.jpg,AMNE18.jpg,AMSA08.jpg,AMSA13.jpg,MS,2,num_8,32,num_6,0.566760664751,,,2017_Jun_26_1537,60.0125114525,FEMA4ImagesEEG,001,200716,
AFSA21.JPG,AFNE22.JPG,AFNE21.JPG,AFSA23.JPG,AFSA22.JPG,AFNE23.JPG,,,,,0,7,7,0,,,,,,,,,,,,,,,,,,,AMNE04.jpg,AMSA11.jpg,AMNE13.jpg,AMSA07.jpg,AMSA11.jpg,MS,2,num_6,32,num_2,0.883771025285,,,2017_Jun_26_1537,60.0125114525,FEMA4ImagesEEG,001,200716,
AMSA21.JPG,AMNE23.JPG,AMNE21.JPG,AMSA25.JPG,AMNE25.JPG,AMSA23.JPG,,,,,0,8,8,5,,,,,,,,,,,,,,,,,,,AMNE03.jpg,AMNE06.jpg,AMSA04.jpg,AMSA05.jpg,AMSA05.jpg,MS,2,num_4,32,num_6,0.683458560765,,,2017_Jun_26_1537,60.0125114525,FEMA4ImagesEEG,001,200716,
AFSA21.JPG,AFNE23.JPG,AFNE21.JPG,AFSA25.JPG,AFNE25.JPG,AFSA23.JPG,,,,,0,9,9,4,,,,,,,,,,,,,,,,,,,AMNE19.jpg,AMSA14.jpg,AMSA15.jpg,AMNE06.jpg,AMNE19.jpg,MN,1,num_8,32,num_4,1.20012515259,,,2017_Jun_26_1537,60.0125114525,FEMA4ImagesEEG,001,200716,
AFSA21.JPG,AFNE23.JPG,AFNE21.JPG,AFSA25.JPG,AFNE25.JPG,AFSA23.JPG,,,,,,,,,0,0,0,4,,,,,,,,,,,,,,,AFNE07.jpg,AFNE17.jpg,AFSA10.jpg,AFSA11.jpg,AFNE07.jpg,FN,3,num_8,16,num_8,0.733436205213,,,2017_Jun_26_1537,60.0125114525,FEMA4ImagesEEG,001,200716,
AFSA21.JPG,AFNE22.JPG,AFNE21.JPG,AFSA23.JPG,AFSA22.JPG,AFNE23.JPG,,,,,,,,,0,1,1,0,,,,,,,,,,,,,,,AFSA19.jpg,AFSA05.jpg,AFNE19.jpg,AFNE10.jpg,AFSA19.jpg,FS,4,num_8,48,None,,,,2017_Jun_26_1537,60.0125114525,FEMA4ImagesEEG,001,200716,
AMSA21.JPG,AMNE22.JPG,AMNE21.JPG,AMSA23.JPG,AMSA22.JPG,AMNE23.JPG,,,,,,,,,0,2,2,1,,,,,,,,,,,,,,,AFNE19.jpg,AFNE09.jpg,AFSA15.jpg,AFSA12.jpg,AFSA12.jpg,FS,4,num_4,32,num_8,1.0001311825,,,2017_Jun_26_1537,60.0125114525,FEMA4ImagesEEG,001,200716,
AFSA25.JPG,AFNE24.JPG,AFSA24.JPG,AFNE21.JPG,AFSA21.JPG,AFNE25.JPG,,,,,,,,,0,3,3,2,,,,,,,,,,,,,,,AFNE12.jpg,AFSA08.jpg,AFSA13.jpg,AFNE13.jpg,AFSA13.jpg,FS,4,num_2,16,num_2,1.1500840017,,,2017_Jun_26_1537,60.0125114525,FEMA4ImagesEEG,001,200716,
AMNE22.JPG,AMSA24.JPG,AMSA22.JPG,AMNE25.JPG,AMNE24.JPG,AMSA25.JPG,,,,,,,,,0,4,4,7,,,,,,,,,,,,,,,AFSA06.jpg,AFNE02.jpg,AFNE05.jpg,AFSA11.jpg,AFNE02.jpg,FN,3,num_6,32,num_2,1.533268715,,,2017_Jun_26_1537,60.0125114525,FEMA4ImagesEEG,001,200716,
AFNE23.JPG,AFNE24.JPG,AFNE22.JPG,AFSA24.JPG,AFSA22.JPG,AFSA23.JPG,,,,,,,,,0,5,5,8,,,,,,,,,,,,,,,AFSA01.jpg,AFSA04.jpg,AFNE18.jpg,AFNE17.jpg,AFNE18.jpg,FN,3,num_2,32,num_6,1.73336852916,,,2017_Jun_26_1537,60.0125114525,FEMA4ImagesEEG,001,200716,
AFNE22.JPG,AFSA24.JPG,AFSA22.JPG,AFNE25.JPG,AFNE24.JPG,AFSA25.JPG,,,,,,,,,0,6,6,6,,,,,,,,,,,,,,,AFNE16.jpg,AFNE06.jpg,AFSA19.jpg,AFSA01.jpg,AFSA01.jpg,FS,4,num_4,16,num_4,1.23341471566,,,2017_Jun_26_1537,60.0125114525,FEMA4ImagesEEG,001,200716,
AMSA25.JPG,AMNE24.JPG,AMSA24.JPG,AMNE26.JPG,AMSA21.JPG,AMNE25.JPG,,,,,,,,,0,7,7,3,,,,,,,,,,,,,,,AFSA04.jpg,AFNE06.jpg,AFSA02.jpg,AFNE12.jpg,AFSA04.jpg,FS,4,num_8,16,num_8,1.1666758612,,,2017_Jun_26_1537,60.0125114525,FEMA4ImagesEEG,001,200716,
AMSA21.JPG,AMNE23.JPG,AMNE21.JPG,AMSA25.JPG,AMNE25.JPG,AMSA23.JPG,,,,,,,,,0,8,8,5,,,,,,,,,,,,,,,AFSA06.jpg,AFNE06.jpg,AFNE20.jpg,AFSA01.jpg,AFSA01.jpg,FS,4,num_4,16,num_4,0.616805023041,,,2017_Jun_26_1537,60.0125114525,FEMA4ImagesEEG,001,200716,
AMNE23.JPG,AMNE24.JPG,AMNE22.JPG,AMSA24.JPG,AMSA22.JPG,AMSA23.JPG,,,,,,,,,0,9,9,9,,,,,,,,,,,,,,,AFNE15.jpg,AFSA14.jpg,AFSA18.jpg,AFNE19.jpg,AFNE15.jpg,FN,3,num_8,16,num_8,0.750127814732,,,2017_Jun_26_1537,60.0125114525,FEMA4ImagesEEG,001,200716,
AMSA21.JPG,AMNE23.JPG,AMNE21.JPG,AMSA25.JPG,AMNE25.JPG,AMSA23.JPG,,,,,,,,,,,,,0,0,0,5,,,,,,,,,,,AMNE05.jpg,AMSA05.jpg,AMSA19.jpg,AMNE07.jpg,AMSA05.jpg,MS,2,num_6,16,num_6,0.700263070619,,,2017_Jun_26_1537,60.0125114525,FEMA4ImagesEEG,001,200716,
AMNE22.JPG,AMSA24.JPG,AMSA22.JPG,AMNE25.JPG,AMNE24.JPG,AMSA25.JPG,,,,,,,,,,,,,0,1,1,7,,,,,,,,,,,AMNE19.jpg,AMNE02.jpg,AMSA12.jpg,AMSA17.jpg,AMNE19.jpg,MN,1,num_8,16,num_8,0.883421739858,,,2017_Jun_26_1537,60.0125114525,FEMA4ImagesEEG,001,200716,
AMSA25.JPG,AMNE24.JPG,AMSA24.JPG,AMNE26.JPG,AMSA21.JPG,AMNE25.JPG,,,,,,,,,,,,,0,2,2,3,,,,,,,,,,,AMSA10.jpg,AMSA13.jpg,AMNE13.jpg,AMNE04.jpg,AMNE04.jpg,MN,1,num_4,16,num_4,1.23350708867,,,2017_Jun_26_1537,60.0125114525,FEMA4ImagesEEG,001,200716,
AMNE23.JPG,AMNE24.JPG,AMNE22.JPG,AMSA24.JPG,AMSA22.JPG,AMSA23.JPG,,,,,,,,,,,,,0,3,3,9,,,,,,,,,,,AMNE14.jpg,AMNE16.jpg,AMSA12.jpg,AMSA14.jpg,AMNE14.jpg,MN,1,num_8,32,num_6,1.60006305741,,,2017_Jun_26_1537,60.0125114525,FEMA4ImagesEEG,001,200716,
AFSA25.JPG,AFNE24.JPG,AFSA24.JPG,AFNE21.JPG,AFSA21.JPG,AFNE25.JPG,,,,,,,,,,,,,0,4,4,2,,,,,,,,,,,AMNE03.jpg,AMSA09.jpg,AMNE07.jpg,AMSA04.jpg,AMNE07.jpg,MN,1,num_2,16,num_2,1.95005122212,,,2017_Jun_26_1537,60.0125114525,FEMA4ImagesEEG,001,200716,
AMSA21.JPG,AMNE22.JPG,AMNE21.JPG,AMSA23.JPG,AMSA22.JPG,AMNE23.JPG,,,,,,,,,,,,,0,5,5,1,,,,,,,,,,,AMNE11.jpg,AMSA01.jpg,AMNE01.jpg,AMSA03.jpg,AMNE11.jpg,MN,1,num_8,16,num_8,1.01673041901,,,2017_Jun_26_1537,60.0125114525,FEMA4ImagesEEG,001,200716,
AFSA21.JPG,AFNE22.JPG,AFNE21.JPG,AFSA23.JPG,AFSA22.JPG,AFNE23.JPG,,,,,,,,,,,,,0,6,6,0,,,,,,,,,,,AMSA15.jpg,AMNE16.jpg,AMSA06.jpg,AMNE07.jpg,AMNE07.jpg,MN,1,num_4,16,num_4,0.933459683351,,,2017_Jun_26_1537,60.0125114525,FEMA4ImagesEEG,001,200716,
AFSA21.JPG,AFNE23.JPG,AFNE21.JPG,AFSA25.JPG,AFNE25.JPG,AFSA23.JPG,,,,,,,,,,,,,0,7,7,4,,,,,,,,,,,AMNE17.jpg,AMNE15.jpg,AMSA12.jpg,AMSA07.jpg,AMSA07.jpg,MS,2,num_4,32,num_2,1.05009760106,,,2017_Jun_26_1537,60.0125114525,FEMA4ImagesEEG,001,200716,
AFNE23.JPG,AFNE24.JPG,AFNE22.JPG,AFSA24.JPG,AFSA22.JPG,AFSA23.JPG,,,,,,,,,,,,,0,8,8,8,,,,,,,,,,,AMNE02.jpg,AMSA08.jpg,AMSA18.jpg,AMNE11.jpg,AMNE02.jpg,MN,1,num_8,32,num_6,1.7666651485,,,2017_Jun_26_1537,60.0125114525,FEMA4ImagesEEG,001,200716,
AFNE22.JPG,AFSA24.JPG,AFSA22.JPG,AFNE25.JPG,AFNE24.JPG,AFSA25.JPG,,,,,,,,,,,,,0,9,9,6,,,,,,,,,,,AMSA03.jpg,AMNE07.jpg,AMSA13.jpg,AMNE20.jpg,AMNE20.jpg,MN,1,num_4,16,num_4,0.666760536456,,,2017_Jun_26_1537,60.0125114525,FEMA4ImagesEEG,001,200716,
AMSA21.JPG,AMNE22.JPG,AMNE21.JPG,AMSA23.JPG,AMSA22.JPG,AMNE23.JPG,,,,,,,,,,,,,,,,,0,0,0,1,,,,,,,AFNE08.jpg,AFSA19.jpg,AFSA11.jpg,AFNE19.jpg,AFSA19.jpg,FS,4,num_6,32,num_2,1.88336272377,,,2017_Jun_26_1537,60.0125114525,FEMA4ImagesEEG,001,200716,
AFSA21.JPG,AFNE22.JPG,AFNE21.JPG,AFSA23.JPG,AFSA22.JPG,AFNE23.JPG,,,,,,,,,,,,,,,,,0,1,1,0,,,,,,,AFSA20.jpg,AFSA18.jpg,AFNE13.jpg,AFNE03.jpg,AFNE03.jpg,FN,3,num_4,16,num_4,0.550110109907,,,2017_Jun_26_1537,60.0125114525,FEMA4ImagesEEG,001,200716,
AMSA21.JPG,AMNE23.JPG,AMNE21.JPG,AMSA25.JPG,AMNE25.JPG,AMSA23.JPG,,,,,,,,,,,,,,,,,0,2,2,5,,,,,,,AFNE16.jpg,AFNE17.jpg,AFSA17.jpg,AFSA05.jpg,AFSA17.jpg,FS,4,num_2,32,num_6,0.88343873906,,,2017_Jun_26_1537,60.0125114525,FEMA4ImagesEEG,001,200716,
AMNE23.JPG,AMNE24.JPG,AMNE22.JPG,AMSA24.JPG,AMSA22.JPG,AMSA23.JPG,,,,,,,,,,,,,,,,,0,3,3,9,,,,,,,AFSA12.jpg,AFNE12.jpg,AFNE14.jpg,AFSA16.jpg,AFNE14.jpg,FN,3,num_2,32,num_8,0.933466418883,,,2017_Jun_26_1537,60.0125114525,FEMA4ImagesEEG,001,200716,
AMNE22.JPG,AMSA24.JPG,AMSA22.JPG,AMNE25.JPG,AMNE24.JPG,AMSA25.JPG,,,,,,,,,,,,,,,,,0,4,4,7,,,,,,,AFNE13.jpg,AFSA17.jpg,AFNE02.jpg,AFSA10.jpg,AFSA10.jpg,FS,4,num_4,16,num_4,0.666775611215,,,2017_Jun_26_1537,60.0125114525,FEMA4ImagesEEG,001,200716,
AMSA25.JPG,AMNE24.JPG,AMSA24.JPG,AMNE26.JPG,AMSA21.JPG,AMNE25.JPG,,,,,,,,,,,,,,,,,0,5,5,3,,,,,,,AFSA01.jpg,AFSA15.jpg,AFNE11.jpg,AFNE18.jpg,AFNE11.jpg,FN,3,num_2,16,num_2,1.05011075138,,,2017_Jun_26_1537,60.0125114525,FEMA4ImagesEEG,001,200716,
AFNE22.JPG,AFSA24.JPG,AFSA22.JPG,AFNE25.JPG,AFNE24.JPG,AFSA25.JPG,,,,,,,,,,,,,,,,,0,6,6,6,,,,,,,AFSA13.jpg,AFSA06.jpg,AFNE09.jpg,AFNE19.jpg,AFSA13.jpg,FS,4,num_8,16,num_8,0.900256399236,,,2017_Jun_26_1537,60.0125114525,FEMA4ImagesEEG,001,200716,
AFNE23.JPG,AFNE24.JPG,AFNE22.JPG,AFSA24.JPG,AFSA22.JPG,AFSA23.JPG,,,,,,,,,,,,,,,,,0,7,7,8,,,,,,,AFSA11.jpg,AFNE12.jpg,AFNE03.jpg,AFSA04.jpg,AFSA11.jpg,FS,4,num_8,16,num_8,1.43339906357,,,2017_Jun_26_1537,60.0125114525,FEMA4ImagesEEG,001,200716,
AFSA21.JPG,AFNE23.JPG,AFNE21.JPG,AFSA25.JPG,AFNE25.JPG,AFSA23.JPG,,,,,,,,,,,,,,,,,0,8,8,4,,,,,,,AFNE08.jpg,AFNE12.jpg,AFSA20.jpg,AFSA10.jpg,AFSA10.jpg,FS,4,num_4,32,num_6,0.583476009,,,2017_Jun_26_1537,60.0125114525,FEMA4ImagesEEG,001,200716,
AFSA25.JPG,AFNE24.JPG,AFSA24.JPG,AFNE21.JPG,AFSA21.JPG,AFNE25.JPG,,,,,,,,,,,,,,,,,0,9,9,2,,,,,,,AFSA14.jpg,AFSA03.jpg,AFNE04.jpg,AFNE14.jpg,AFNE14.jpg,FN,3,num_4,32,num_8,1.433400988,,,2017_Jun_26_1537,60.0125114525,FEMA4ImagesEEG,001,200716,
AFNE22.JPG,AFSA24.JPG,AFSA22.JPG,AFNE25.JPG,AFNE24.JPG,AFSA25.JPG,,,,,,,,,,,,,,,,,,,,,0,0,0,6,,,AMSA08.jpg,AMSA14.jpg,AMNE07.jpg,AMNE15.jpg,AMNE15.jpg,MN,1,num_4,16,num_4,0.650136282256,,,2017_Jun_26_1537,60.0125114525,FEMA4ImagesEEG,001,200716,
AFNE23.JPG,AFNE24.JPG,AFNE22.JPG,AFSA24.JPG,AFSA22.JPG,AFSA23.JPG,,,,,,,,,,,,,,,,,,,,,0,1,1,8,,,AMSA16.jpg,AMNE18.jpg,AMSA03.jpg,AMNE07.jpg,AMSA16.jpg,MS,2,num_8,32,num_4,0.966612290613,,,2017_Jun_26_1537,60.0125114525,FEMA4ImagesEEG,001,200716,
AMSA25.JPG,AMNE24.JPG,AMSA24.JPG,AMNE26.JPG,AMSA21.JPG,AMNE25.JPG,,,,,,,,,,,,,,,,,,,,,0,2,2,3,,,AMNE01.jpg,AMSA20.jpg,AMSA18.jpg,AMNE14.jpg,AMNE14.jpg,MN,1,num_4,16,num_4,1.15010228386,,,2017_Jun_26_1537,60.0125114525,FEMA4ImagesEEG,001,200716,
AMSA21.JPG,AMNE23.JPG,AMNE21.JPG,AMSA25.JPG,AMNE25.JPG,AMSA23.JPG,,,,,,,,,,,,,,,,,,,,,0,3,3,5,,,AMSA18.jpg,AMNE15.jpg,AMSA09.jpg,AMNE03.jpg,AMNE15.jpg,MN,1,num_6,16,num_6,0.650536565277,,,2017_Jun_26_1537,60.0125114525,FEMA4ImagesEEG,001,200716,
AFSA25.JPG,AFNE24.JPG,AFSA24.JPG,AFNE21.JPG,AFSA21.JPG,AFNE25.JPG,,,,,,,,,,,,,,,,,,,,,0,4,4,2,,,AMSA04.jpg,AMSA15.jpg,AMNE03.jpg,AMNE01.jpg,AMNE03.jpg,MN,1,num_2,32,num_8,1.50008467526,,,2017_Jun_26_1537,60.0125114525,FEMA4ImagesEEG,001,200716,
AMNE23.JPG,AMNE24.JPG,AMNE22.JPG,AMSA24.JPG,AMSA22.JPG,AMSA23.JPG,,,,,,,,,,,,,,,,,,,,,0,5,5,9,,,AMNE18.jpg,AMSA13.jpg,AMNE05.jpg,AMSA05.jpg,AMSA05.jpg,MS,2,num_4,16,num_4,1.33339887112,,,2017_Jun_26_1537,60.0125114525,FEMA4ImagesEEG,001,200716,
AFSA21.JPG,AFNE23.JPG,AFNE21.JPG,AFSA25.JPG,AFNE25.JPG,AFSA23.JPG,,,,,,,,,,,,,,,,,,,,,0,6,6,4,,,AMSA04.jpg,AMSA17.jpg,AMNE12.jpg,AMNE15.jpg,AMSA17.jpg,MS,2,num_6,16,num_6,1.0334736676,,,2017_Jun_26_1537,60.0125114525,FEMA4ImagesEEG,001,200716,
AFSA21.JPG,AFNE22.JPG,AFNE21.JPG,AFSA23.JPG,AFSA22.JPG,AFNE23.JPG,,,,,,,,,,,,,,,,,,,,,0,7,7,0,,,AMNE20.jpg,AMSA19.jpg,AMNE05.jpg,AMSA13.jpg,AMSA19.jpg,MS,2,num_6,16,num_6,1.01672945679,,,2017_Jun_26_1537,60.0125114525,FEMA4ImagesEEG,001,200716,
AMNE22.JPG,AMSA24.JPG,AMSA22.JPG,AMNE25.JPG,AMNE24.JPG,AMSA25.JPG,,,,,,,,,,,,,,,,,,,,,0,8,8,7,,,AMSA04.jpg,AMSA17.jpg,AMNE12.jpg,AMNE11.jpg,AMSA17.jpg,MS,2,num_6,32,num_2,1.1000848677,,,2017_Jun_26_1537,60.0125114525,FEMA4ImagesEEG,001,200716,
AMSA21.JPG,AMNE22.JPG,AMNE21.JPG,AMSA23.JPG,AMSA22.JPG,AMNE23.JPG,,,,,,,,,,,,,,,,,,,,,0,9,9,1,,,AMSA04.jpg,AMNE08.jpg,AMSA18.jpg,AMNE13.jpg,AMSA18.jpg,MS,2,num_2,16,num_2,0.733471486572,,,2017_Jun_26_1537,60.0125114525,FEMA4ImagesEEG,001,200716,
,,,,,,,,,,,,,,,,,,,,,,,,,,,,,,,,,,,,,,,,,,,space,17.5984478128,2017_Jun_26_1537,60.0125114525,FEMA4ImagesEEG,001,200716,
AFNE01.JPG,AFNE01.JPG,AFNE01.JPG,AFNE01.JPG,AFNE01.JPG,AFNE01.JPG,0,0,0,4,,,,,,,,,,,,,,,,,,,,,,,AFSA12.jpg,AFSA19.jpg,AFNE04.jpg,AFNE07.jpg,AFSA19.jpg,FS,4,num_6,16,num_6,0.733503881271,,,2017_Jun_26_1537,60.0125114525,FEMA4ImagesEEG,001,200716,
AFNE01.JPG,AFNE01.JPG,AFNE01.JPG,AFNE01.JPG,AFNE01.JPG,AFNE01.JPG,0,1,1,7,,,,,,,,,,,,,,,,,,,,,,,AFSA12.jpg,AFNE11.jpg,AFSA17.jpg,AFNE14.jpg,AFNE11.jpg,FN,3,num_6,32,num_2,1.15009458611,,,2017_Jun_26_1537,60.0125114525,FEMA4ImagesEEG,001,200716,
AFNE01.JPG,AFNE01.JPG,AFNE01.JPG,AFNE01.JPG,AFNE01.JPG,AFNE01.JPG,0,2,2,1,,,,,,,,,,,,,,,,,,,,,,,AFSA07.jpg,AFSA01.jpg,AFNE20.jpg,AFNE03.jpg,AFNE03.jpg,FN,3,num_4,16,num_4,1.15007341729,,,2017_Jun_26_1537,60.0125114525,FEMA4ImagesEEG,001,200716,
AFNE01.JPG,AFNE01.JPG,AFNE01.JPG,AFNE01.JPG,AFNE01.JPG,AFNE01.JPG,0,3,3,5,,,,,,,,,,,,,,,,,,,,,,,AFSA06.jpg,AFNE05.jpg,AFNE10.jpg,AFSA17.jpg,AFNE10.jpg,FN,3,num_2,16,num_2,0.933466098144,,,2017_Jun_26_1537,60.0125114525,FEMA4ImagesEEG,001,200716,
AFNE01.JPG,AFNE01.JPG,AFNE01.JPG,AFNE01.JPG,AFNE01.JPG,AFNE01.JPG,0,4,4,3,,,,,,,,,,,,,,,,,,,,,,,AFNE06.jpg,AFNE11.jpg,AFSA19.jpg,AFSA14.jpg,AFNE11.jpg,FN,3,num_6,16,num_6,0.866897235675,,,2017_Jun_26_1537,60.0125114525,FEMA4ImagesEEG,001,200716,
AFNE01.JPG,AFNE01.JPG,AFNE01.JPG,AFNE01.JPG,AFNE01.JPG,AFNE01.JPG,0,5,5,9,,,,,,,,,,,,,,,,,,,,,,,AFSA05.jpg,AFSA14.jpg,AFNE03.jpg,AFNE02.jpg,AFNE02.jpg,FN,3,num_4,32,num_8,1.2334198475,,,2017_Jun_26_1537,60.0125114525,FEMA4ImagesEEG,001,200716,
AFNE01.JPG,AFNE01.JPG,AFNE01.JPG,AFNE01.JPG,AFNE01.JPG,AFNE01.JPG,0,6,6,6,,,,,,,,,,,,,,,,,,,,,,,AFSA14.jpg,AFNE05.jpg,AFSA08.jpg,AFNE15.jpg,AFSA14.jpg,FS,4,num_8,32,num_2,1.18341494018,,,2017_Jun_26_1537,60.0125114525,FEMA4ImagesEEG,001,200716,
AFNE01.JPG,AFNE01.JPG,AFNE01.JPG,AFNE01.JPG,AFNE01.JPG,AFNE01.JPG,0,7,7,2,,,,,,,,,,,,,,,,,,,,,,,AFNE14.jpg,AFSA11.jpg,AFSA14.jpg,AFNE15.jpg,AFNE14.jpg,FN,3,num_8,32,num_4,1.04995262676,,,2017_Jun_26_1537,60.0125114525,FEMA4ImagesEEG,001,200716,
AFNE01.JPG,AFNE01.JPG,AFNE01.JPG,AFNE01.JPG,AFNE01.JPG,AFNE01.JPG,0,8,8,0,,,,,,,,,,,,,,,,,,,,,,,AFNE08.jpg,AFSA11.jpg,AFNE15.jpg,AFSA13.jpg,AFNE15.jpg,FN,3,num_2,16,num_2,0.783408717831,,,2017_Jun_26_1537,60.0125114525,FEMA4ImagesEEG,001,200716,
AFNE01.JPG,AFNE01.JPG,AFNE01.JPG,AFNE01.JPG,AFNE01.JPG,AFNE01.JPG,0,9,9,8,,,,,,,,,,,,,,,,,,,,,,,AFSA04.jpg,AFNE01.jpg,AFSA01.jpg,AFNE10.jpg,AFNE10.jpg,FN,3,num_4,32,num_8,0.950090993825,,,2017_Jun_26_1537,60.0125114525,FEMA4ImagesEEG,001,200716,
AFNE01.JPG,AFNE01.JPG,AFNE01.JPG,AFNE01.JPG,AFNE01.JPG,AFNE01.JPG,1,0,10,6,,,,,,,,,,,,,,,,,,,,,,,AFSA12.jpg,AFNE06.jpg,AFSA01.jpg,AFNE02.jpg,AFNE06.jpg,FN,3,num_6,16,num_6,0.63346070972,,,2017_Jun_26_1537,60.0125114525,FEMA4ImagesEEG,001,200716,
AFNE01.JPG,AFNE01.JPG,AFNE01.JPG,AFNE01.JPG,AFNE01.JPG,AFNE01.JPG,1,1,11,4,,,,,,,,,,,,,,,,,,,,,,,AFSA18.jpg,AFNE10.jpg,AFNE06.jpg,AFSA04.jpg,AFNE06.jpg,FN,3,num_2,32,num_6,0.85021204095,,,2017_Jun_26_1537,60.0125114525,FEMA4ImagesEEG,001,200716,
AFNE01.JPG,AFNE01.JPG,AFNE01.JPG,AFNE01.JPG,AFNE01.JPG,AFNE01.JPG,1,2,12,0,,,,,,,,,,,,,,,,,,,,,,,AFNE06.jpg,AFNE01.jpg,AFSA09.jpg,AFSA03.jpg,AFSA09.jpg,FS,4,num_2,16,num_2,2.58330377183,,,2017_Jun_26_1537,60.0125114525,FEMA4ImagesEEG,001,200716,
AFNE01.JPG,AFNE01.JPG,AFNE01.JPG,AFNE01.JPG,AFNE01.JPG,AFNE01.JPG,1,3,13,7,,,,,,,,,,,,,,,,,,,,,,,AFNE03.jpg,AFSA16.jpg,AFSA02.jpg,AFNE06.jpg,AFSA02.jpg,FS,4,num_2,32,num_6,0.733474373228,,,2017_Jun_26_1537,60.0125114525,FEMA4ImagesEEG,001,200716,
AFNE01.JPG,AFNE01.JPG,AFNE01.JPG,AFNE01.JPG,AFNE01.JPG,AFNE01.JPG,1,4,14,2,,,,,,,,,,,,,,,,,,,,,,,AFNE17.jpg,AFSA06.jpg,AFNE15.jpg,AFSA04.jpg,AFNE17.jpg,FN,3,num_8,32,num_4,0.700200526397,,,2017_Jun_26_1537,60.0125114525,FEMA4ImagesEEG,001,200716,
AFNE01.JPG,AFNE01.JPG,AFNE01.JPG,AFNE01.JPG,AFNE01.JPG,AFNE01.JPG,1,5,15,5,,,,,,,,,,,,,,,,,,,,,,,AFSA03.jpg,AFNE20.jpg,AFNE19.jpg,AFSA10.jpg,AFNE20.jpg,FN,3,num_6,32,num_4,1.00013182397,,,2017_Jun_26_1537,60.0125114525,FEMA4ImagesEEG,001,200716,
AFNE01.JPG,AFNE01.JPG,AFNE01.JPG,AFNE01.JPG,AFNE01.JPG,AFNE01.JPG,1,6,16,3,,,,,,,,,,,,,,,,,,,,,,,AFNE08.jpg,AFSA18.jpg,AFNE18.jpg,AFSA11.jpg,AFSA11.jpg,FS,4,num_4,16,num_4,0.700113926705,,,2017_Jun_26_1537,60.0125114525,FEMA4ImagesEEG,001,200716,
AFNE01.JPG,AFNE01.JPG,AFNE01.JPG,AFNE01.JPG,AFNE01.JPG,AFNE01.JPG,1,7,17,1,,,,,,,,,,,,,,,,,,,,,,,AFSA07.jpg,AFSA19.jpg,AFNE03.jpg,AFNE07.jpg,AFNE03.jpg,FN,3,num_2,32,num_4,1.60004702043,,,2017_Jun_26_1537,60.0125114525,FEMA4ImagesEEG,001,200716,
AFNE01.JPG,AFNE01.JPG,AFNE01.JPG,AFNE01.JPG,AFNE01.JPG,AFNE01.JPG,1,8,18,9,,,,,,,,,,,,,,,,,,,,,,,AFNE02.jpg,AFNE05.jpg,AFSA19.jpg,AFSA02.jpg,AFSA19.jpg,FS,4,num_2,16,num_2,0.666771120865,,,2017_Jun_26_1537,60.0125114525,FEMA4ImagesEEG,001,200716,
AFNE01.JPG,AFNE01.JPG,AFNE01.JPG,AFNE01.JPG,AFNE01.JPG,AFNE01.JPG,1,9,19,8,,,,,,,,,,,,,,,,,,,,,,,AFSA19.jpg,AFSA12.jpg,AFNE18.jpg,AFNE12.jpg,AFNE12.jpg,FN,3,num_4,32,num_2,1.0001417669,,,2017_Jun_26_1537,60.0125114525,FEMA4ImagesEEG,001,200716,
AFNE01.JPG,AFNE01.JPG,AFNE01.JPG,AFNE01.JPG,AFNE01.JPG,AFNE01.JPG,2,0,20,4,,,,,,,,,,,,,,,,,,,,,,,AFNE17.jpg,AFSA18.jpg,AFNE14.jpg,AFSA06.jpg,AFSA06.jpg,FS,4,num_4,32,num_6,1.53337840794,,,2017_Jun_26_1537,60.0125114525,FEMA4ImagesEEG,001,200716,
AFNE01.JPG,AFNE01.JPG,AFNE01.JPG,AFNE01.JPG,AFNE01.JPG,AFNE01.JPG,2,1,21,7,,,,,,,,,,,,,,,,,,,,,,,AFNE01.jpg,AFSA09.jpg,AFNE13.jpg,AFSA03.jpg,AFNE01.jpg,FN,3,num_8,32,num_4,1.33351914848,,,2017_Jun_26_1537,60.0125114525,FEMA4ImagesEEG,001,200716,
AFNE01.JPG,AFNE01.JPG,AFNE01.JPG,AFNE01.JPG,AFNE01.JPG,AFNE01.JPG,2,2,22,5,,,,,,,,,,,,,,,,,,,,,,,AFNE07.jpg,AFSA08.jpg,AFNE05.jpg,AFSA07.jpg,AFSA07.jpg,FS,4,num_4,16,num_4,1.23341375344,,,2017_Jun_26_1537,60.0125114525,FEMA4ImagesEEG,001,200716,
AFNE01.JPG,AFNE01.JPG,AFNE01.JPG,AFNE01.JPG,AFNE01.JPG,AFNE01.JPG,2,3,23,0,,,,,,,,,,,,,,,,,,,,,,,AFNE16.jpg,AFSA09.jpg,AFSA11.jpg,AFNE10.jpg,AFNE16.jpg,FN,3,num_8,16,num_8,1.10011597944,,,2017_Jun_26_1537,60.0125114525,FEMA4ImagesEEG,001,200716,
AFNE01.JPG,AFNE01.JPG,AFNE01.JPG,AFNE01.JPG,AFNE01.JPG,AFNE01.JPG,2,4,24,3,,,,,,,,,,,,,,,,,,,,,,,AFNE14.jpg,AFSA17.jpg,AFNE15.jpg,AFSA03.jpg,AFSA17.jpg,FS,4,num_6,16,num_6,0.633535762783,,,2017_Jun_26_1537,60.0125114525,FEMA4ImagesEEG,001,200716,
AFNE01.JPG,AFNE01.JPG,AFNE01.JPG,AFNE01.JPG,AFNE01.JPG,AFNE01.JPG,2,5,25,9,,,,,,,,,,,,,,,,,,,,,,,AFSA20.jpg,AFNE17.jpg,AFNE01.jpg,AFSA09.jpg,AFNE01.jpg,FN,3,num_2,32,num_6,0.966735775361,,,2017_Jun_26_1537,60.0125114525,FEMA4ImagesEEG,001,200716,
AFNE01.JPG,AFNE01.JPG,AFNE01.JPG,AFNE01.JPG,AFNE01.JPG,AFNE01.JPG,2,6,26,1,,,,,,,,,,,,,,,,,,,,,,,AFNE19.jpg,AFSA15.jpg,AFNE10.jpg,AFSA08.jpg,AFNE19.jpg,FN,3,num_8,32,num_2,0.633329527223,,,2017_Jun_26_1537,60.0125114525,FEMA4ImagesEEG,001,200716,
AFNE01.JPG,AFNE01.JPG,AFNE01.JPG,AFNE01.JPG,AFNE01.JPG,AFNE01.JPG,2,7,27,6,,,,,,,,,,,,,,,,,,,,,,,AFNE08.jpg,AFSA06.jpg,AFNE06.jpg,AFSA18.jpg,AFNE08.jpg,FN,3,num_8,16,num_8,0.750109853314,,,2017_Jun_26_1537,60.0125114525,FEMA4ImagesEEG,001,200716,
AFNE01.JPG,AFNE01.JPG,AFNE01.JPG,AFNE01.JPG,AFNE01.JPG,AFNE01.JPG,2,8,28,8,,,,,,,,,,,,,,,,,,,,,,,AFNE01.jpg,AFSA12.jpg,AFSA07.jpg,AFNE16.jpg,AFSA07.jpg,FS,4,num_2,32,num_6,1.55002222725,,,2017_Jun_26_1537,60.0125114525,FEMA4ImagesEEG,001,200716,
AFNE01.JPG,AFNE01.JPG,AFNE01.JPG,AFNE01.JPG,AFNE01.JPG,AFNE01.JPG,2,9,29,2,,,,,,,,,,,,,,,,,,,,,,,AFSA06.jpg,AFNE05.jpg,AFSA13.jpg,AFNE16.jpg,AFNE05.jpg,FN,3,num_6,32,num_4,1.78336830464,,,2017_Jun_26_1537,60.0125114525,FEMA4ImagesEEG,001,200716,
AFNE01.JPG,AFNE01.JPG,AFNE01.JPG,AFNE01.JPG,AFNE01.JPG,AFNE01.JPG,3,0,30,7,,,,,,,,,,,,,,,,,,,,,,,AFSA16.jpg,AFNE19.jpg,AFNE06.jpg,AFSA20.jpg,AFSA20.jpg,FS,4,num_4,32,num_6,0.549811822078,,,2017_Jun_26_1537,60.0125114525,FEMA4ImagesEEG,001,200716,
AFNE01.JPG,AFNE01.JPG,AFNE01.JPG,AFNE01.JPG,AFNE01.JPG,AFNE01.JPG,3,1,31,0,,,,,,,,,,,,,,,,,,,,,,,AFSA16.jpg,AFNE05.jpg,AFNE16.jpg,AFSA04.jpg,AFSA04.jpg,FS,4,num_4,16,num_4,1.61670783894,,,2017_Jun_26_1537,60.0125114525,FEMA4ImagesEEG,001,200716,
AFNE01.JPG,AFNE01.JPG,AFNE01.JPG,AFNE01.JPG,AFNE01.JPG,AFNE01.JPG,3,2,32,5,,,,,,,,,,,,,,,,,,,,,,,AFNE12.jpg,AFSA03.jpg,AFNE18.jpg,AFSA12.jpg,AFSA03.jpg,FS,4,num_6,32,num_4,0.933460324832,,,2017_Jun_26_1537,60.0125114525,FEMA4ImagesEEG,001,200716,
AFNE01.JPG,AFNE01.JPG,AFNE01.JPG,AFNE01.JPG,AFNE01.JPG,AFNE01.JPG,3,3,33,2,,,,,,,,,,,,,,,,,,,,,,,AFSA13.jpg,AFSA01.jpg,AFNE20.jpg,AFNE14.jpg,AFNE20.jpg,FN,3,num_2,32,num_6,0.78345554581,,,2017_Jun_26_1537,60.0125114525,FEMA4ImagesEEG,001,200716,
AFNE01.JPG,AFNE01.JPG,AFNE01.JPG,AFNE01.JPG,AFNE01.JPG,AFNE01.JPG,3,4,34,4,,,,,,,,,,,,,,,,,,,,,,,AFNE07.jpg,AFNE19.jpg,AFSA12.jpg,AFSA18.jpg,AFSA12.jpg,FS,4,num_2,32,num_8,1.45006661761,,,2017_Jun_26_1537,60.0125114525,FEMA4ImagesEEG,001,200716,
AFNE01.JPG,AFNE01.JPG,AFNE01.JPG,AFNE01.JPG,AFNE01.JPG,AFNE01.JPG,3,5,35,9,,,,,,,,,,,,,,,,,,,,,,,AFNE14.jpg,AFSA14.jpg,AFNE20.jpg,AFSA16.jpg,AFNE14.jpg,FN,3,num_8,16,num_8,0.900094746477,,,2017_Jun_26_1537,60.0125114525,FEMA4ImagesEEG,001,200716,
AFNE01.JPG,AFNE01.JPG,AFNE01.JPG,AFNE01.JPG,AFNE01.JPG,AFNE01.JPG,3,6,36,1,,,,,,,,,,,,,,,,,,,,,,,AFNE15.jpg,AFSA07.jpg,AFNE12.jpg,AFSA19.jpg,AFNE15.jpg,FN,3,num_8,32,num_2,1.65003589076,,,2017_Jun_26_1537,60.0125114525,FEMA4ImagesEEG,001,200716,
AFNE01.JPG,AFNE01.JPG,AFNE01.JPG,AFNE01.JPG,AFNE01.JPG,AFNE01.JPG,3,7,37,6,,,,,,,,,,,,,,,,,,,,,,,AFNE20.jpg,AFSA16.jpg,AFSA11.jpg,AFNE03.jpg,AFSA11.jpg,FS,4,num_2,32,num_8,4.03325299876,,,2017_Jun_26_1537,60.0125114525,FEMA4ImagesEEG,001,200716,
AFNE01.JPG,AFNE01.JPG,AFNE01.JPG,AFNE01.JPG,AFNE01.JPG,AFNE01.JPG,3,8,38,8,,,,,,,,,,,,,,,,,,,,,,,AFNE02.jpg,AFSA17.jpg,AFNE03.jpg,AFSA12.jpg,AFNE02.jpg,FN,3,num_8,32,num_2,1.56672442118,,,2017_Jun_26_1537,60.0125114525,FEMA4ImagesEEG,001,200716,
AFNE01.JPG,AFNE01.JPG,AFNE01.JPG,AFNE01.JPG,AFNE01.JPG,AFNE01.JPG,3,9,39,3,,,,,,,,,,,,,,,,,,,,,,,AFNE17.jpg,AFNE16.jpg,AFSA02.jpg,AFSA07.jpg,AFSA07.jpg,FS,4,num_4,16,num_4,0.68364587269,,,2017_Jun_26_1537,60.0125114525,FEMA4ImagesEEG,001,200716,
AFNE01.JPG,AFNE01.JPG,AFNE01.JPG,AFNE01.JPG,AFNE01.JPG,AFNE01.JPG,4,0,40,2,,,,,,,,,,,,,,,,,,,,,,,AFNE10.jpg,AFNE16.jpg,AFSA07.jpg,AFSA08.jpg,AFNE10.jpg,FN,3,num_8,16,num_8,0.666774969741,,,2017_Jun_26_1537,60.0125114525,FEMA4ImagesEEG,001,200716,
AFNE01.JPG,AFNE01.JPG,AFNE01.JPG,AFNE01.JPG,AFNE01.JPG,AFNE01.JPG,4,1,41,1,,,,,,,,,,,,,,,,,,,,,,,AFSA02.jpg,AFSA03.jpg,AFNE15.jpg,AFNE14.jpg,AFNE14.jpg,FN,3,num_4,32,num_2,1.01681284909,,,2017_Jun_26_1537,60.0125114525,FEMA4ImagesEEG,001,200716,
AFNE01.JPG,AFNE01.JPG,AFNE01.JPG,AFNE01.JPG,AFNE01.JPG,AFNE01.JPG,4,2,42,6,,,,,,,,,,,,,,,,,,,,,,,AFSA12.jpg,AFSA15.jpg,AFNE06.jpg,AFNE13.jpg,AFSA15.jpg,FS,4,num_6,32,num_8,1.7834465651,,,2017_Jun_26_1537,60.0125114525,FEMA4ImagesEEG,001,200716,
AFNE01.JPG,AFNE01.JPG,AFNE01.JPG,AFNE01.JPG,AFNE01.JPG,AFNE01.JPG,4,3,43,8,,,,,,,,,,,,,,,,,,,,,,,AFSA11.jpg,AFNE04.jpg,AFNE11.jpg,AFSA17.jpg,AFNE11.jpg,FN,3,num_2,16,num_2,0.816747033321,,,2017_Jun_26_1537,60.0125114525,FEMA4ImagesEEG,001,200716,
AFNE01.JPG,AFNE01.JPG,AFNE01.JPG,AFNE01.JPG,AFNE01.JPG,AFNE01.JPG,4,4,44,4,,,,,,,,,,,,,,,,,,,,,,,AFNE18.jpg,AFNE12.jpg,AFSA01.jpg,AFSA13.jpg,AFNE12.jpg,FN,3,num_6,16,num_6,0.533504137864,,,2017_Jun_26_1537,60.0125114525,FEMA4ImagesEEG,001,200716,
AFNE01.JPG,AFNE01.JPG,AFNE01.JPG,AFNE01.JPG,AFNE01.JPG,AFNE01.JPG,4,5,45,9,,,,,,,,,,,,,,,,,,,,,,,AFNE19.jpg,AFNE09.jpg,AFSA05.jpg,AFSA15.jpg,AFNE09.jpg,FN,3,num_6,32,num_8,1.18343963713,,,2017_Jun_26_1537,60.0125114525,FEMA4ImagesEEG,001,200716,
AFNE01.JPG,AFNE01.JPG,AFNE01.JPG,AFNE01.JPG,AFNE01.JPG,AFNE01.JPG,4,6,46,5,,,,,,,,,,,,,,,,,,,,,,,AFNE03.jpg,AFNE14.jpg,AFSA17.jpg,AFSA18.jpg,AFSA17.jpg,FS,4,num_2,32,num_4,0.699763358323,,,2017_Jun_26_1537,60.0125114525,FEMA4ImagesEEG,001,200716,
AFNE01.JPG,AFNE01.JPG,AFNE01.JPG,AFNE01.JPG,AFNE01.JPG,AFNE01.JPG,4,7,47,0,,,,,,,,,,,,,,,,,,,,,,,AFSA15.jpg,AFNE20.jpg,AFSA09.jpg,AFNE16.jpg,AFSA15.jpg,FS,4,num_8,32,num_2,0.80012855243,,,2017_Jun_26_1537,60.0125114525,FEMA4ImagesEEG,001,200716,
AFNE01.JPG,AFNE01.JPG,AFNE01.JPG,AFNE01.JPG,AFNE01.JPG,AFNE01.JPG,4,8,48,7,,,,,,,,,,,,,,,,,,,,,,,AFSA04.jpg,AFNE05.jpg,AFSA13.jpg,AFNE02.jpg,AFSA04.jpg,FS,4,num_8,16,num_8,1.26672448533,,,2017_Jun_26_1537,60.0125114525,FEMA4ImagesEEG,001,200716,
AFNE01.JPG,AFNE01.JPG,AFNE01.JPG,AFNE01.JPG,AFNE01.JPG,AFNE01.JPG,4,9,49,3,,,,,,,,,,,,,,,,,,,,,,,AFSA18.jpg,AFNE05.jpg,AFNE18.jpg,AFSA15.jpg,AFSA15.jpg,FS,4,num_4,16,num_4,0.816764673997,,,2017_Jun_26_1537,60.0125114525,FEMA4ImagesEEG,001,200716,
AFNE01.JPG,AFNE01.JPG,AFNE01.JPG,AFNE01.JPG,AFNE01.JPG,AFNE01.JPG,5,0,50,6,,,,,,,,,,,,,,,,,,,,,,,AFSA18.jpg,AFNE12.jpg,AFSA11.jpg,AFNE02.jpg,AFSA11.jpg,FS,4,num_2,16,num_2,1.48339306574,,,2017_Jun_26_1537,60.0125114525,FEMA4ImagesEEG,001,200716,
AFNE01.JPG,AFNE01.JPG,AFNE01.JPG,AFNE01.JPG,AFNE01.JPG,AFNE01.JPG,5,1,51,3,,,,,,,,,,,,,,,,,,,,,,,AFNE03.jpg,AFSA01.jpg,AFSA04.jpg,AFNE07.jpg,AFNE07.jpg,FN,3,num_4,16,num_4,1.36627820825,,,2017_Jun_26_1537,60.0125114525,FEMA4ImagesEEG,001,200716,
AFNE01.JPG,AFNE01.JPG,AFNE01.JPG,AFNE01.JPG,AFNE01.JPG,AFNE01.JPG,5,2,52,1,,,,,,,,,,,,,,,,,,,,,,,AFNE06.jpg,AFSA09.jpg,AFNE08.jpg,AFSA07.jpg,AFNE06.jpg,FN,3,num_8,32,num_4,0.766928154972,,,2017_Jun_26_1537,60.0125114525,FEMA4ImagesEEG,001,200716,
AFNE01.JPG,AFNE01.JPG,AFNE01.JPG,AFNE01.JPG,AFNE01.JPG,AFNE01.JPG,5,3,53,9,,,,,,,,,,,,,,,,,,,,,,,AFSA14.jpg,AFSA16.jpg,AFNE20.jpg,AFNE05.jpg,AFNE05.jpg,FN,3,num_4,16,num_4,0.716828629473,,,2017_Jun_26_1537,60.0125114525,FEMA4ImagesEEG,001,200716,
AFNE01.JPG,AFNE01.JPG,AFNE01.JPG,AFNE01.JPG,AFNE01.JPG,AFNE01.JPG,5,4,54,5,,,,,,,,,,,,,,,,,,,,,,,AFNE08.jpg,AFSA19.jpg,AFSA09.jpg,AFNE07.jpg,AFNE08.jpg,FN,3,num_8,16,num_8,1.05008573369,,,2017_Jun_26_1537,60.0125114525,FEMA4ImagesEEG,001,200716,
AFNE01.JPG,AFNE01.JPG,AFNE01.JPG,AFNE01.JPG,AFNE01.JPG,AFNE01.JPG,5,5,55,4,,,,,,,,,,,,,,,,,,,,,,,AFNE17.jpg,AFSA12.jpg,AFSA11.jpg,AFNE08.jpg,AFNE17.jpg,FN,3,num_8,32,num_2,0.983481589868,,,2017_Jun_26_1537,60.0125114525,FEMA4ImagesEEG,001,200716,
AFNE01.JPG,AFNE01.JPG,AFNE01.JPG,AFNE01.JPG,AFNE01.JPG,AFNE01.JPG,5,6,56,2,,,,,,,,,,,,,,,,,,,,,,,AFSA09.jpg,AFNE08.jpg,AFNE15.jpg,AFSA08.jpg,AFSA09.jpg,FS,4,num_8,32,num_4,1.183474277,,,2017_Jun_26_1537,60.0125114525,FEMA4ImagesEEG,001,200716,
AFNE01.JPG,AFNE01.JPG,AFNE01.JPG,AFNE01.JPG,AFNE01.JPG,AFNE01.JPG,5,7,57,7,,,,,,,,,,,,,,,,,,,,,,,AFNE15.jpg,AFNE02.jpg,AFSA05.jpg,AFSA04.jpg,AFNE02.jpg,FN,3,num_6,16,num_6,0.900130348571,,,2017_Jun_26_1537,60.0125114525,FEMA4ImagesEEG,001,200716,
AFNE01.JPG,AFNE01.JPG,AFNE01.JPG,AFNE01.JPG,AFNE01.JPG,AFNE01.JPG,5,8,58,8,,,,,,,,,,,,,,,,,,,,,,,AFNE16.jpg,AFNE15.jpg,AFSA08.jpg,AFSA09.jpg,AFSA09.jpg,FS,4,num_4,32,num_2,0.883365610429,,,2017_Jun_26_1537,60.0125114525,FEMA4ImagesEEG,001,200716,
AFNE01.JPG,AFNE01.JPG,AFNE01.JPG,AFNE01.JPG,AFNE01.JPG,AFNE01.JPG,5,9,59,0,,,,,,,,,,,,,,,,,,,,,,,AFNE04.jpg,AFSA14.jpg,AFSA16.jpg,AFNE06.jpg,AFSA14.jpg,FS,4,num_6,32,num_8,1.25011049479,,,2017_Jun_26_1537,60.0125114525,FEMA4ImagesEEG,001,200716,
,,,,,,,,,,,,,,,,,,,,,,,,,,,,,,,,,,,,,,,,,,,space,37.0639535518,2017_Jun_26_1537,60.0125114525,FEMA4ImagesEEG,001,200716,
AFNE01.JPG,AFNE01.JPG,AFNE01.JPG,AFNE01.JPG,AFNE01.JPG,AFNE01.JPG,,,,,0,0,0,3,,,,,,,,,,,,,,,,,,,AMNE14.jpg,AMSA18.jpg,AMSA02.jpg,AMNE19.jpg,AMSA02.jpg,MS,2,num_2,16,num_2,0.800247867563,,,2017_Jun_26_1537,60.0125114525,FEMA4ImagesEEG,001,200716,
AFNE01.JPG,AFNE01.JPG,AFNE01.JPG,AFNE01.JPG,AFNE01.JPG,AFNE01.JPG,,,,,0,1,1,6,,,,,,,,,,,,,,,,,,,AMNE07.jpg,AMSA02.jpg,AMSA15.jpg,AMNE20.jpg,AMNE20.jpg,MN,1,num_4,16,num_4,0.916736641357,,,2017_Jun_26_1537,60.0125114525,FEMA4ImagesEEG,001,200716,
AFNE01.JPG,AFNE01.JPG,AFNE01.JPG,AFNE01.JPG,AFNE01.JPG,AFNE01.JPG,,,,,0,2,2,0,,,,,,,,,,,,,,,,,,,AMSA10.jpg,AMNE05.jpg,AMNE16.jpg,AMSA01.jpg,AMNE05.jpg,MN,1,num_6,16,num_6,0.816757296987,,,2017_Jun_26_1537,60.0125114525,FEMA4ImagesEEG,001,200716,
AFNE01.JPG,AFNE01.JPG,AFNE01.JPG,AFNE01.JPG,AFNE01.JPG,AFNE01.JPG,,,,,0,3,3,5,,,,,,,,,,,,,,,,,,,AMSA17.jpg,AMNE17.jpg,AMSA15.jpg,AMNE13.jpg,AMNE17.jpg,MN,1,num_6,32,num_4,1.13342767354,,,2017_Jun_26_1537,60.0125114525,FEMA4ImagesEEG,001,200716,
AFNE01.JPG,AFNE01.JPG,AFNE01.JPG,AFNE01.JPG,AFNE01.JPG,AFNE01.JPG,,,,,0,4,4,1,,,,,,,,,,,,,,,,,,,AMNE18.jpg,AMSA14.jpg,AMSA17.jpg,AMNE17.jpg,AMSA17.jpg,MS,2,num_2,32,num_8,1.08357191014,,,2017_Jun_26_1537,60.0125114525,FEMA4ImagesEEG,001,200716,
AFNE01.JPG,AFNE01.JPG,AFNE01.JPG,AFNE01.JPG,AFNE01.JPG,AFNE01.JPG,,,,,0,5,5,4,,,,,,,,,,,,,,,,,,,AMNE05.jpg,AMSA08.jpg,AMNE03.jpg,AMSA07.jpg,AMNE05.jpg,MN,1,num_8,16,num_8,1.34975274184,,,2017_Jun_26_1537,60.0125114525,FEMA4ImagesEEG,001,200716,
AFNE01.JPG,AFNE01.JPG,AFNE01.JPG,AFNE01.JPG,AFNE01.JPG,AFNE01.JPG,,,,,0,6,6,2,,,,,,,,,,,,,,,,,,,AMSA09.jpg,AMNE16.jpg,AMSA14.jpg,AMNE05.jpg,AMNE16.jpg,MN,1,num_6,16,num_6,0.933462249272,,,2017_Jun_26_1537,60.0125114525,FEMA4ImagesEEG,001,200716,
AFNE01.JPG,AFNE01.JPG,AFNE01.JPG,AFNE01.JPG,AFNE01.JPG,AFNE01.JPG,,,,,0,7,7,9,,,,,,,,,,,,,,,,,,,AMNE14.jpg,AMNE18.jpg,AMSA06.jpg,AMSA13.jpg,AMSA06.jpg,MS,2,num_2,32,num_4,1.11672932849,,,2017_Jun_26_1537,60.0125114525,FEMA4ImagesEEG,001,200716,
AFNE01.JPG,AFNE01.JPG,AFNE01.JPG,AFNE01.JPG,AFNE01.JPG,AFNE01.JPG,,,,,0,8,8,8,,,,,,,,,,,,,,,,,,,AMSA16.jpg,AMSA07.jpg,AMNE12.jpg,AMNE09.jpg,AMNE12.jpg,MN,1,num_2,32,num_4,1.16670889738,,,2017_Jun_26_1537,60.0125114525,FEMA4ImagesEEG,001,200716,
AFNE01.JPG,AFNE01.JPG,AFNE01.JPG,AFNE01.JPG,AFNE01.JPG,AFNE01.JPG,,,,,0,9,9,7,,,,,,,,,,,,,,,,,,,AMNE06.jpg,AMSA12.jpg,AMSA08.jpg,AMNE05.jpg,AMNE06.jpg,MN,1,num_8,32,num_4,0.750077779354,,,2017_Jun_26_1537,60.0125114525,FEMA4ImagesEEG,001,200716,
AFNE01.JPG,AFNE01.JPG,AFNE01.JPG,AFNE01.JPG,AFNE01.JPG,AFNE01.JPG,,,,,1,0,10,0,,,,,,,,,,,,,,,,,,,AMNE08.jpg,AMSA08.jpg,AMSA15.jpg,AMNE20.jpg,AMSA15.jpg,MS,2,num_2,16,num_2,0.833457887213,,,2017_Jun_26_1537,60.0125114525,FEMA4ImagesEEG,001,200716,
AFNE01.JPG,AFNE01.JPG,AFNE01.JPG,AFNE01.JPG,AFNE01.JPG,AFNE01.JPG,,,,,1,1,11,7,,,,,,,,,,,,,,,,,,,AMNE13.jpg,AMSA03.jpg,AMNE08.jpg,AMSA07.jpg,AMSA03.jpg,MS,2,num_6,16,num_6,0.95010446489,,,2017_Jun_26_1537,60.0125114525,FEMA4ImagesEEG,001,200716,
AFNE01.JPG,AFNE01.JPG,AFNE01.JPG,AFNE01.JPG,AFNE01.JPG,AFNE01.JPG,,,,,1,2,12,6,,,,,,,,,,,,,,,,,,,AMNE16.jpg,AMSA06.jpg,AMNE11.jpg,AMSA20.jpg,AMNE16.jpg,MN,1,num_8,32,num_2,0.983416479728,,,2017_Jun_26_1537,60.0125114525,FEMA4ImagesEEG,001,200716,
AFNE01.JPG,AFNE01.JPG,AFNE01.JPG,AFNE01.JPG,AFNE01.JPG,AFNE01.JPG,,,,,1,3,13,5,,,,,,,,,,,,,,,,,,,AMSA19.jpg,AMSA12.jpg,AMNE04.jpg,AMNE20.jpg,AMNE04.jpg,MN,1,num_2,16,num_2,0.833432548781,,,2017_Jun_26_1537,60.0125114525,FEMA4ImagesEEG,001,200716,
AFNE01.JPG,AFNE01.JPG,AFNE01.JPG,AFNE01.JPG,AFNE01.JPG,AFNE01.JPG,,,,,1,4,14,9,,,,,,,,,,,,,,,,,,,AMSA03.jpg,AMNE06.jpg,AMNE03.jpg,AMSA20.jpg,AMSA20.jpg,MS,2,num_4,32,num_6,1.81681695455,,,2017_Jun_26_1537,60.0125114525,FEMA4ImagesEEG,001,200716,
AFNE01.JPG,AFNE01.JPG,AFNE01.JPG,AFNE01.JPG,AFNE01.JPG,AFNE01.JPG,,,,,1,5,15,4,,,,,,,,,,,,,,,,,,,AMSA18.jpg,AMNE20.jpg,AMSA09.jpg,AMNE03.jpg,AMSA09.jpg,MS,2,num_2,32,num_8,1.95003390217,,,2017_Jun_26_1537,60.0125114525,FEMA4ImagesEEG,001,200716,
AFNE01.JPG,AFNE01.JPG,AFNE01.JPG,AFNE01.JPG,AFNE01.JPG,AFNE01.JPG,,,,,1,6,16,8,,,,,,,,,,,,,,,,,,,AMNE01.jpg,AMSA05.jpg,AMNE13.jpg,AMSA10.jpg,AMNE01.jpg,MN,1,num_8,16,num_8,0.916738886535,,,2017_Jun_26_1537,60.0125114525,FEMA4ImagesEEG,001,200716,
AFNE01.JPG,AFNE01.JPG,AFNE01.JPG,AFNE01.JPG,AFNE01.JPG,AFNE01.JPG,,,,,1,7,17,2,,,,,,,,,,,,,,,,,,,AMNE02.jpg,AMSA09.jpg,AMNE01.jpg,AMSA13.jpg,AMSA13.jpg,MS,2,num_4,32,num_2,1.13344371052,,,2017_Jun_26_1537,60.0125114525,FEMA4ImagesEEG,001,200716,
AFNE01.JPG,AFNE01.JPG,AFNE01.JPG,AFNE01.JPG,AFNE01.JPG,AFNE01.JPG,,,,,1,8,18,1,,,,,,,,,,,,,,,,,,,AMNE05.jpg,AMSA15.jpg,AMNE04.jpg,AMSA02.jpg,AMSA02.jpg,MS,2,num_4,32,num_2,1.16677208308,,,2017_Jun_26_1537,60.0125114525,FEMA4ImagesEEG,001,200716,
AFNE01.JPG,AFNE01.JPG,AFNE01.JPG,AFNE01.JPG,AFNE01.JPG,AFNE01.JPG,,,,,1,9,19,3,,,,,,,,,,,,,,,,,,,AMSA05.jpg,AMNE18.jpg,AMNE15.jpg,AMSA20.jpg,AMNE15.jpg,MN,1,num_2,32,num_4,0.84999393802,,,2017_Jun_26_1537,60.0125114525,FEMA4ImagesEEG,001,200716,
AFNE01.JPG,AFNE01.JPG,AFNE01.JPG,AFNE01.JPG,AFNE01.JPG,AFNE01.JPG,,,,,2,0,20,8,,,,,,,,,,,,,,,,,,,AMNE16.jpg,AMSA09.jpg,AMSA19.jpg,AMNE11.jpg,AMSA09.jpg,MS,2,num_6,16,num_6,0.900194175752,,,2017_Jun_26_1537,60.0125114525,FEMA4ImagesEEG,001,200716,
AFNE01.JPG,AFNE01.JPG,AFNE01.JPG,AFNE01.JPG,AFNE01.JPG,AFNE01.JPG,,,,,2,1,21,5,,,,,,,,,,,,,,,,,,,AMSA01.jpg,AMNE16.jpg,AMNE01.jpg,AMSA11.jpg,AMNE01.jpg,MN,1,num_2,16,num_2,0.850110045758,,,2017_Jun_26_1537,60.0125114525,FEMA4ImagesEEG,001,200716,
AFNE01.JPG,AFNE01.JPG,AFNE01.JPG,AFNE01.JPG,AFNE01.JPG,AFNE01.JPG,,,,,2,2,22,3,,,,,,,,,,,,,,,,,,,AMSA02.jpg,AMSA01.jpg,AMNE07.jpg,AMNE10.jpg,AMSA02.jpg,MS,2,num_8,32,num_6,0.600145808225,,,2017_Jun_26_1537,60.0125114525,FEMA4ImagesEEG,001,200716,
AFNE01.JPG,AFNE01.JPG,AFNE01.JPG,AFNE01.JPG,AFNE01.JPG,AFNE01.JPG,,,,,2,3,23,9,,,,,,,,,,,,,,,,,,,AMSA10.jpg,AMSA08.jpg,AMNE15.jpg,AMNE11.jpg,AMNE15.jpg,MN,1,num_2,32,num_6,3.58322326619,,,2017_Jun_26_1537,60.0125114525,FEMA4ImagesEEG,001,200716,
AFNE01.JPG,AFNE01.JPG,AFNE01.JPG,AFNE01.JPG,AFNE01.JPG,AFNE01.JPG,,,,,2,4,24,2,,,,,,,,,,,,,,,,,,,AMNE03.jpg,AMSA12.jpg,AMSA17.jpg,AMNE13.jpg,AMNE13.jpg,MN,1,num_4,16,num_4,0.616751459525,,,2017_Jun_26_1537,60.0125114525,FEMA4ImagesEEG,001,200716,
AFNE01.JPG,AFNE01.JPG,AFNE01.JPG,AFNE01.JPG,AFNE01.JPG,AFNE01.JPG,,,,,2,5,25,6,,,,,,,,,,,,,,,,,,,AMSA14.jpg,AMNE17.jpg,AMNE03.jpg,AMSA05.jpg,AMNE03.jpg,MN,1,num_2,32,num_6,0.883539772032,,,2017_Jun_26_1537,60.0125114525,FEMA4ImagesEEG,001,200716,
AFNE01.JPG,AFNE01.JPG,AFNE01.JPG,AFNE01.JPG,AFNE01.JPG,AFNE01.JPG,,,,,2,6,26,7,,,,,,,,,,,,,,,,,,,AMSA04.jpg,AMNE03.jpg,AMSA19.jpg,AMNE01.jpg,AMSA04.jpg,MS,2,num_8,16,num_8,0.766789595462,,,2017_Jun_26_1537,60.0125114525,FEMA4ImagesEEG,001,200716,
AFNE01.JPG,AFNE01.JPG,AFNE01.JPG,AFNE01.JPG,AFNE01.JPG,AFNE01.JPG,,,,,2,7,27,1,,,,,,,,,,,,,,,,,,,AMSA08.jpg,AMNE11.jpg,AMSA09.jpg,AMNE16.jpg,AMNE11.jpg,MN,1,num_6,16,num_6,0.816762428822,,,2017_Jun_26_1537,60.0125114525,FEMA4ImagesEEG,001,200716,
AFNE01.JPG,AFNE01.JPG,AFNE01.JPG,AFNE01.JPG,AFNE01.JPG,AFNE01.JPG,,,,,2,8,28,0,,,,,,,,,,,,,,,,,,,AMSA15.jpg,AMSA01.jpg,AMNE16.jpg,AMNE09.jpg,AMNE16.jpg,MN,1,num_2,16,num_2,1.83341747402,,,2017_Jun_26_1537,60.0125114525,FEMA4ImagesEEG,001,200716,
AFNE01.JPG,AFNE01.JPG,AFNE01.JPG,AFNE01.JPG,AFNE01.JPG,AFNE01.JPG,,,,,2,9,29,4,,,,,,,,,,,,,,,,,,,AMSA13.jpg,AMNE09.jpg,AMSA12.jpg,AMNE05.jpg,AMSA13.jpg,MS,2,num_8,32,num_6,1.03344351808,,,2017_Jun_26_1537,60.0125114525,FEMA4ImagesEEG,001,200716,
AFNE01.JPG,AFNE01.JPG,AFNE01.JPG,AFNE01.JPG,AFNE01.JPG,AFNE01.JPG,,,,,3,0,30,5,,,,,,,,,,,,,,,,,,,AMSA15.jpg,AMNE05.jpg,AMSA18.jpg,AMNE06.jpg,AMNE06.jpg,MN,1,num_4,32,num_6,1.61668410421,,,2017_Jun_26_1537,60.0125114525,FEMA4ImagesEEG,001,200716,
AFNE01.JPG,AFNE01.JPG,AFNE01.JPG,AFNE01.JPG,AFNE01.JPG,AFNE01.JPG,,,,,3,1,31,1,,,,,,,,,,,,,,,,,,,AMNE17.jpg,AMNE18.jpg,AMSA09.jpg,AMSA11.jpg,AMNE18.jpg,MN,1,num_6,32,num_4,0.883426550954,,,2017_Jun_26_1537,60.0125114525,FEMA4ImagesEEG,001,200716,
AFNE01.JPG,AFNE01.JPG,AFNE01.JPG,AFNE01.JPG,AFNE01.JPG,AFNE01.JPG,,,,,3,2,32,6,,,,,,,,,,,,,,,,,,,AMSA06.jpg,AMSA07.jpg,AMNE16.jpg,AMNE15.jpg,AMSA07.jpg,MS,2,num_6,16,num_6,0.700119379278,,,2017_Jun_26_1537,60.0125114525,FEMA4ImagesEEG,001,200716,
AFNE01.JPG,AFNE01.JPG,AFNE01.JPG,AFNE01.JPG,AFNE01.JPG,AFNE01.JPG,,,,,3,3,33,9,,,,,,,,,,,,,,,,,,,AMSA18.jpg,AMSA07.jpg,AMNE07.jpg,AMNE10.jpg,AMNE07.jpg,MN,1,num_2,32,num_4,1.38341340063,,,2017_Jun_26_1537,60.0125114525,FEMA4ImagesEEG,001,200716,
AFNE01.JPG,AFNE01.JPG,AFNE01.JPG,AFNE01.JPG,AFNE01.JPG,AFNE01.JPG,,,,,3,4,34,7,,,,,,,,,,,,,,,,,,,AMNE08.jpg,AMNE19.jpg,AMSA18.jpg,AMSA07.jpg,AMNE19.jpg,MN,1,num_6,32,num_8,1.68337805512,,,2017_Jun_26_1537,60.0125114525,FEMA4ImagesEEG,001,200716,
AFNE01.JPG,AFNE01.JPG,AFNE01.JPG,AFNE01.JPG,AFNE01.JPG,AFNE01.JPG,,,,,3,5,35,2,,,,,,,,,,,,,,,,,,,AMNE15.jpg,AMSA11.jpg,AMNE07.jpg,AMSA14.jpg,AMSA11.jpg,MS,2,num_6,16,num_6,0.583485951924,,,2017_Jun_26_1537,60.0125114525,FEMA4ImagesEEG,001,200716,
AFNE01.JPG,AFNE01.JPG,AFNE01.JPG,AFNE01.JPG,AFNE01.JPG,AFNE01.JPG,,,,,3,6,36,3,,,,,,,,,,,,,,,,,,,AMNE04.jpg,AMNE13.jpg,AMSA13.jpg,AMSA08.jpg,AMNE04.jpg,MN,1,num_8,16,num_8,1.76654198449,,,2017_Jun_26_1537,60.0125114525,FEMA4ImagesEEG,001,200716,
AFNE01.JPG,AFNE01.JPG,AFNE01.JPG,AFNE01.JPG,AFNE01.JPG,AFNE01.JPG,,,,,3,7,37,8,,,,,,,,,,,,,,,,,,,AMSA13.jpg,AMSA09.jpg,AMNE14.jpg,AMNE06.jpg,AMSA09.jpg,MS,2,num_6,16,num_6,0.549809256161,,,2017_Jun_26_1537,60.0125114525,FEMA4ImagesEEG,001,200716,
AFNE01.JPG,AFNE01.JPG,AFNE01.JPG,AFNE01.JPG,AFNE01.JPG,AFNE01.JPG,,,,,3,8,38,0,,,,,,,,,,,,,,,,,,,AMNE20.jpg,AMNE14.jpg,AMSA09.jpg,AMSA01.jpg,AMNE14.jpg,MN,1,num_6,32,num_2,1.33339534299,,,2017_Jun_26_1537,60.0125114525,FEMA4ImagesEEG,001,200716,
AFNE01.JPG,AFNE01.JPG,AFNE01.JPG,AFNE01.JPG,AFNE01.JPG,AFNE01.JPG,,,,,3,9,39,4,,,,,,,,,,,,,,,,,,,AMNE20.jpg,AMNE09.jpg,AMSA01.jpg,AMSA05.jpg,AMSA05.jpg,MS,2,num_4,16,num_4,3.63324004088,,,2017_Jun_26_1537,60.0125114525,FEMA4ImagesEEG,001,200716,
AFNE01.JPG,AFNE01.JPG,AFNE01.JPG,AFNE01.JPG,AFNE01.JPG,AFNE01.JPG,,,,,4,0,40,6,,,,,,,,,,,,,,,,,,,AMSA04.jpg,AMNE02.jpg,AMNE13.jpg,AMSA15.jpg,AMSA15.jpg,MS,2,num_4,16,num_4,0.466792225528,,,2017_Jun_26_1537,60.0125114525,FEMA4ImagesEEG,001,200716,
AFNE01.JPG,AFNE01.JPG,AFNE01.JPG,AFNE01.JPG,AFNE01.JPG,AFNE01.JPG,,,,,4,1,41,9,,,,,,,,,,,,,,,,,,,AMSA08.jpg,AMNE11.jpg,AMNE20.jpg,AMSA13.jpg,AMSA08.jpg,MS,2,num_8,16,num_8,1.11673317737,,,2017_Jun_26_1537,60.0125114525,FEMA4ImagesEEG,001,200716,
AFNE01.JPG,AFNE01.JPG,AFNE01.JPG,AFNE01.JPG,AFNE01.JPG,AFNE01.JPG,,,,,4,2,42,0,,,,,,,,,,,,,,,,,,,AMNE12.jpg,AMSA20.jpg,AMSA11.jpg,AMNE15.jpg,AMNE15.jpg,MN,1,num_4,16,num_4,0.6001634489,,,2017_Jun_26_1537,60.0125114525,FEMA4ImagesEEG,001,200716,
AFNE01.JPG,AFNE01.JPG,AFNE01.JPG,AFNE01.JPG,AFNE01.JPG,AFNE01.JPG,,,,,4,3,43,4,,,,,,,,,,,,,,,,,,,AMSA08.jpg,AMNE17.jpg,AMSA16.jpg,AMNE16.jpg,AMNE17.jpg,MN,1,num_6,32,num_8,2.10001751238,,,2017_Jun_26_1537,60.0125114525,FEMA4ImagesEEG,001,200716,
AFNE01.JPG,AFNE01.JPG,AFNE01.JPG,AFNE01.JPG,AFNE01.JPG,AFNE01.JPG,,,,,4,4,44,3,,,,,,,,,,,,,,,,,,,AMSA08.jpg,AMNE01.jpg,AMNE12.jpg,AMSA11.jpg,AMNE12.jpg,MN,1,num_2,16,num_2,0.783440471052,,,2017_Jun_26_1537,60.0125114525,FEMA4ImagesEEG,001,200716,
AFNE01.JPG,AFNE01.JPG,AFNE01.JPG,AFNE01.JPG,AFNE01.JPG,AFNE01.JPG,,,,,4,5,45,8,,,,,,,,,,,,,,,,,,,AMNE02.jpg,AMSA09.jpg,AMNE04.jpg,AMSA11.jpg,AMNE02.jpg,MN,1,num_8,32,num_2,1.25010985331,,,2017_Jun_26_1537,60.0125114525,FEMA4ImagesEEG,001,200716,
AFNE01.JPG,AFNE01.JPG,AFNE01.JPG,AFNE01.JPG,AFNE01.JPG,AFNE01.JPG,,,,,4,6,46,2,,,,,,,,,,,,,,,,,,,AMSA03.jpg,AMNE03.jpg,AMNE13.jpg,AMSA16.jpg,AMNE13.jpg,MN,1,num_2,32,num_6,1.00012861658,,,2017_Jun_26_1537,60.0125114525,FEMA4ImagesEEG,001,200716,
AFNE01.JPG,AFNE01.JPG,AFNE01.JPG,AFNE01.JPG,AFNE01.JPG,AFNE01.JPG,,,,,4,7,47,5,,,,,,,,,,,,,,,,,,,AMNE20.jpg,AMSA13.jpg,AMNE03.jpg,AMSA18.jpg,AMSA18.jpg,MS,2,num_4,16,num_4,0.616778722389,,,2017_Jun_26_1537,60.0125114525,FEMA4ImagesEEG,001,200716,
AFNE01.JPG,AFNE01.JPG,AFNE01.JPG,AFNE01.JPG,AFNE01.JPG,AFNE01.JPG,,,,,4,8,48,1,,,,,,,,,,,,,,,,,,,AMSA18.jpg,AMSA12.jpg,AMNE18.jpg,AMNE10.jpg,AMNE10.jpg,MN,1,num_4,32,num_8,1.10010924391,,,2017_Jun_26_1537,60.0125114525,FEMA4ImagesEEG,001,200716,
AFNE01.JPG,AFNE01.JPG,AFNE01.JPG,AFNE01.JPG,AFNE01.JPG,AFNE01.JPG,,,,,4,9,49,7,,,,,,,,,,,,,,,,,,,AMNE17.jpg,AMSA18.jpg,AMNE15.jpg,AMSA06.jpg,AMSA18.jpg,MS,2,num_6,32,num_4,1.91669911482,,,2017_Jun_26_1537,60.0125114525,FEMA4ImagesEEG,001,200716,
AFNE01.JPG,AFNE01.JPG,AFNE01.JPG,AFNE01.JPG,AFNE01.JPG,AFNE01.JPG,,,,,5,0,50,9,,,,,,,,,,,,,,,,,,,AMNE03.jpg,AMSA04.jpg,AMNE12.jpg,AMSA17.jpg,AMNE03.jpg,MN,1,num_8,32,num_4,0.533500930465,,,2017_Jun_26_1537,60.0125114525,FEMA4ImagesEEG,001,200716,
AFNE01.JPG,AFNE01.JPG,AFNE01.JPG,AFNE01.JPG,AFNE01.JPG,AFNE01.JPG,,,,,5,1,51,2,,,,,,,,,,,,,,,,,,,AMNE07.jpg,AMNE20.jpg,AMSA11.jpg,AMSA16.jpg,AMSA11.jpg,MS,2,num_2,32,num_4,1.01672496644,,,2017_Jun_26_1537,60.0125114525,FEMA4ImagesEEG,001,200716,
AFNE01.JPG,AFNE01.JPG,AFNE01.JPG,AFNE01.JPG,AFNE01.JPG,AFNE01.JPG,,,,,5,2,52,3,,,,,,,,,,,,,,,,,,,AMSA13.jpg,AMNE10.jpg,AMNE16.jpg,AMSA15.jpg,AMSA13.jpg,MS,2,num_8,32,num_6,0.700265315794,,,2017_Jun_26_1537,60.0125114525,FEMA4ImagesEEG,001,200716,
AFNE01.JPG,AFNE01.JPG,AFNE01.JPG,AFNE01.JPG,AFNE01.JPG,AFNE01.JPG,,,,,5,3,53,7,,,,,,,,,,,,,,,,,,,AMSA20.jpg,AMSA17.jpg,AMNE02.jpg,AMNE14.jpg,AMSA17.jpg,MS,2,num_6,16,num_6,0.70050394606,,,2017_Jun_26_1537,60.0125114525,FEMA4ImagesEEG,001,200716,
AFNE01.JPG,AFNE01.JPG,AFNE01.JPG,AFNE01.JPG,AFNE01.JPG,AFNE01.JPG,,,,,5,4,54,1,,,,,,,,,,,,,,,,,,,AMNE19.jpg,AMNE02.jpg,AMSA04.jpg,AMSA02.jpg,AMSA02.jpg,MS,2,num_4,32,num_6,0.750136153962,,,2017_Jun_26_1537,60.0125114525,FEMA4ImagesEEG,001,200716,
AFNE01.JPG,AFNE01.JPG,AFNE01.JPG,AFNE01.JPG,AFNE01.JPG,AFNE01.JPG,,,,,5,5,55,0,,,,,,,,,,,,,,,,,,,AMSA08.jpg,AMNE04.jpg,AMNE20.jpg,AMSA11.jpg,AMNE20.jpg,MN,1,num_2,16,num_2,0.966734813137,,,2017_Jun_26_1537,60.0125114525,FEMA4ImagesEEG,001,200716,
AFNE01.JPG,AFNE01.JPG,AFNE01.JPG,AFNE01.JPG,AFNE01.JPG,AFNE01.JPG,,,,,5,6,56,6,,,,,,,,,,,,,,,,,,,AMNE13.jpg,AMSA16.jpg,AMSA01.jpg,AMNE16.jpg,AMNE16.jpg,MN,1,num_4,32,num_2,2.18326515478,,,2017_Jun_26_1537,60.0125114525,FEMA4ImagesEEG,001,200716,
AFNE01.JPG,AFNE01.JPG,AFNE01.JPG,AFNE01.JPG,AFNE01.JPG,AFNE01.JPG,,,,,5,7,57,8,,,,,,,,,,,,,,,,,,,AMSA19.jpg,AMNE17.jpg,AMSA09.jpg,AMNE11.jpg,AMNE17.jpg,MN,1,num_6,32,num_4,1.0501643149,,,2017_Jun_26_1537,60.0125114525,FEMA4ImagesEEG,001,200716,
AFNE01.JPG,AFNE01.JPG,AFNE01.JPG,AFNE01.JPG,AFNE01.JPG,AFNE01.JPG,,,,,5,8,58,5,,,,,,,,,,,,,,,,,,,AMSA12.jpg,AMNE11.jpg,AMSA05.jpg,AMNE01.jpg,AMSA12.jpg,MS,2,num_8,32,num_2,0.566814228267,,,2017_Jun_26_1537,60.0125114525,FEMA4ImagesEEG,001,200716,
AFNE01.JPG,AFNE01.JPG,AFNE01.JPG,AFNE01.JPG,AFNE01.JPG,AFNE01.JPG,,,,,5,9,59,4,,,,,,,,,,,,,,,,,,,AMNE14.jpg,AMSA04.jpg,AMNE19.jpg,AMSA13.jpg,AMSA04.jpg,MS,2,num_6,32,num_8,2.13334171533,,,2017_Jun_26_1537,60.0125114525,FEMA4ImagesEEG,001,200716,
,,,,,,,,,,,,,,,,,,,,,,,,,,,,,,,,,,,,,,,,,,,space,32.7645771337,2017_Jun_26_1537,60.0125114525,FEMA4ImagesEEG,001,200716,
AFNE01.JPG,AFNE01.JPG,AFNE01.JPG,AFNE01.JPG,AFNE01.JPG,AFNE01.JPG,,,,,,,,,0,0,0,7,,,,,,,,,,,,,,,AFSA08.jpg,AFNE04.jpg,AFNE13.jpg,AFSA03.jpg,AFNE13.jpg,FN,3,num_2,32,num_6,0.683473635523,,,2017_Jun_26_1537,60.0125114525,FEMA4ImagesEEG,001,200716,
AFNE01.JPG,AFNE01.JPG,AFNE01.JPG,AFNE01.JPG,AFNE01.JPG,AFNE01.JPG,,,,,,,,,0,1,1,2,,,,,,,,,,,,,,,AFNE16.jpg,AFNE02.jpg,AFSA07.jpg,AFSA11.jpg,AFSA07.jpg,FS,4,num_2,16,num_2,0.883485567039,,,2017_Jun_26_1537,60.0125114525,FEMA4ImagesEEG,001,200716,
AFNE01.JPG,AFNE01.JPG,AFNE01.JPG,AFNE01.JPG,AFNE01.JPG,AFNE01.JPG,,,,,,,,,0,2,2,9,,,,,,,,,,,,,,,AFNE11.jpg,AFSA14.jpg,AFSA06.jpg,AFNE02.jpg,AFNE11.jpg,FN,3,num_8,16,num_8,0.783263422793,,,2017_Jun_26_1537,60.0125114525,FEMA4ImagesEEG,001,200716,
AFNE01.JPG,AFNE01.JPG,AFNE01.JPG,AFNE01.JPG,AFNE01.JPG,AFNE01.JPG,,,,,,,,,0,3,3,3,,,,,,,,,,,,,,,AFNE11.jpg,AFNE04.jpg,AFSA18.jpg,AFSA11.jpg,AFNE04.jpg,FN,3,num_6,16,num_6,0.883463756745,,,2017_Jun_26_1537,60.0125114525,FEMA4ImagesEEG,001,200716,
AFNE01.JPG,AFNE01.JPG,AFNE01.JPG,AFNE01.JPG,AFNE01.JPG,AFNE01.JPG,,,,,,,,,0,4,4,6,,,,,,,,,,,,,,,AFNE01.jpg,AFNE08.jpg,AFSA19.jpg,AFSA10.jpg,AFSA10.jpg,FS,4,num_4,32,num_2,1.61674985583,,,2017_Jun_26_1537,60.0125114525,FEMA4ImagesEEG,001,200716,
AFNE01.JPG,AFNE01.JPG,AFNE01.JPG,AFNE01.JPG,AFNE01.JPG,AFNE01.JPG,,,,,,,,,0,5,5,0,,,,,,,,,,,,,,,AFNE02.jpg,AFSA13.jpg,AFSA09.jpg,AFNE14.jpg,AFSA09.jpg,FS,4,num_2,32,num_6,0.966758227132,,,2017_Jun_26_1537,60.0125114525,FEMA4ImagesEEG,001,200716,
AFNE01.JPG,AFNE01.JPG,AFNE01.JPG,AFNE01.JPG,AFNE01.JPG,AFNE01.JPG,,,,,,,,,0,6,6,8,,,,,,,,,,,,,,,AFSA14.jpg,AFSA07.jpg,AFNE07.jpg,AFNE14.jpg,AFNE14.jpg,FN,3,num_4,16,num_4,0.700136057738,,,2017_Jun_26_1537,60.0125114525,FEMA4ImagesEEG,001,200716,
AFNE01.JPG,AFNE01.JPG,AFNE01.JPG,AFNE01.JPG,AFNE01.JPG,AFNE01.JPG,,,,,,,,,0,7,7,5,,,,,,,,,,,,,,,AFNE06.jpg,AFSA02.jpg,AFSA12.jpg,AFNE01.jpg,AFSA12.jpg,FS,4,num_2,32,num_6,1.23327102432,,,2017_Jun_26_1537,60.0125114525,FEMA4ImagesEEG,001,200716,
AFNE01.JPG,AFNE01.JPG,AFNE01.JPG,AFNE01.JPG,AFNE01.JPG,AFNE01.JPG,,,,,,,,,0,8,8,1,,,,,,,,,,,,,,,AFNE16.jpg,AFSA11.jpg,AFNE02.jpg,AFSA20.jpg,AFSA11.jpg,FS,4,num_6,16,num_6,0.783468696136,,,2017_Jun_26_1537,60.0125114525,FEMA4ImagesEEG,001,200716,
AFNE01.JPG,AFNE01.JPG,AFNE01.JPG,AFNE01.JPG,AFNE01.JPG,AFNE01.JPG,,,,,,,,,0,9,9,4,,,,,,,,,,,,,,,AFSA05.jpg,AFNE20.jpg,AFSA06.jpg,AFNE12.jpg,AFNE12.jpg,FN,3,num_4,16,num_4,0.900159535879,,,2017_Jun_26_1537,60.0125114525,FEMA4ImagesEEG,001,200716,
AFNE01.JPG,AFNE01.JPG,AFNE01.JPG,AFNE01.JPG,AFNE01.JPG,AFNE01.JPG,,,,,,,,,1,0,10,7,,,,,,,,,,,,,,,AFSA05.jpg,AFSA08.jpg,AFNE15.jpg,AFNE10.jpg,AFSA05.jpg,FS,4,num_8,32,num_6,1.38301664574,,,2017_Jun_26_1537,60.0125114525,FEMA4ImagesEEG,001,200716,
AFNE01.JPG,AFNE01.JPG,AFNE01.JPG,AFNE01.JPG,AFNE01.JPG,AFNE01.JPG,,,,,,,,,1,1,11,2,,,,,,,,,,,,,,,AFNE17.jpg,AFSA12.jpg,AFNE18.jpg,AFSA15.jpg,AFNE17.jpg,FN,3,num_8,32,num_6,1.38339736365,,,2017_Jun_26_1537,60.0125114525,FEMA4ImagesEEG,001,200716,
AFNE01.JPG,AFNE01.JPG,AFNE01.JPG,AFNE01.JPG,AFNE01.JPG,AFNE01.JPG,,,,,,,,,1,2,12,3,,,,,,,,,,,,,,,AFSA03.jpg,AFNE18.jpg,AFSA11.jpg,AFNE17.jpg,AFNE18.jpg,FN,3,num_6,32,num_4,0.600125922367,,,2017_Jun_26_1537,60.0125114525,FEMA4ImagesEEG,001,200716,
AFNE01.JPG,AFNE01.JPG,AFNE01.JPG,AFNE01.JPG,AFNE01.JPG,AFNE01.JPG,,,,,,,,,1,3,13,4,,,,,,,,,,,,,,,AFNE08.jpg,AFSA02.jpg,AFSA09.jpg,AFNE19.jpg,AFSA02.jpg,FS,4,num_6,32,num_4,1.46642946904,,,2017_Jun_26_1537,60.0125114525,FEMA4ImagesEEG,001,200716,
AFNE01.JPG,AFNE01.JPG,AFNE01.JPG,AFNE01.JPG,AFNE01.JPG,AFNE01.JPG,,,,,,,,,1,4,14,8,,,,,,,,,,,,,,,AFSA11.jpg,AFNE15.jpg,AFSA15.jpg,AFNE11.jpg,AFSA15.jpg,FS,4,num_2,16,num_2,1.08339357892,,,2017_Jun_26_1537,60.0125114525,FEMA4ImagesEEG,001,200716,
AFNE01.JPG,AFNE01.JPG,AFNE01.JPG,AFNE01.JPG,AFNE01.JPG,AFNE01.JPG,,,,,,,,,1,5,15,9,,,,,,,,,,,,,,,AFSA01.jpg,AFNE20.jpg,AFNE01.jpg,AFSA02.jpg,AFNE01.jpg,FN,3,num_2,32,num_8,0.966765604142,,,2017_Jun_26_1537,60.0125114525,FEMA4ImagesEEG,001,200716,
AFNE01.JPG,AFNE01.JPG,AFNE01.JPG,AFNE01.JPG,AFNE01.JPG,AFNE01.JPG,,,,,,,,,1,6,16,0,,,,,,,,,,,,,,,AFSA05.jpg,AFNE04.jpg,AFSA06.jpg,AFNE07.jpg,AFNE07.jpg,FN,3,num_4,32,num_2,2.53332291999,,,2017_Jun_26_1537,60.0125114525,FEMA4ImagesEEG,001,200716,
AFNE01.JPG,AFNE01.JPG,AFNE01.JPG,AFNE01.JPG,AFNE01.JPG,AFNE01.JPG,,,,,,,,,1,7,17,6,,,,,,,,,,,,,,,AFNE09.jpg,AFSA05.jpg,AFNE14.jpg,AFSA09.jpg,AFNE14.jpg,FN,3,num_2,16,num_2,1.21673497351,,,2017_Jun_26_1537,60.0125114525,FEMA4ImagesEEG,001,200716,
AFNE01.JPG,AFNE01.JPG,AFNE01.JPG,AFNE01.JPG,AFNE01.JPG,AFNE01.JPG,,,,,,,,,1,8,18,5,,,,,,,,,,,,,,,AFSA01.jpg,AFSA06.jpg,AFNE11.jpg,AFNE16.jpg,AFSA01.jpg,FS,4,num_8,16,num_8,2.94994794396,,,2017_Jun_26_1537,60.0125114525,FEMA4ImagesEEG,001,200716,
AFNE01.JPG,AFNE01.JPG,AFNE01.JPG,AFNE01.JPG,AFNE01.JPG,AFNE01.JPG,,,,,,,,,1,9,19,1,,,,,,,,,,,,,,,AFSA04.jpg,AFSA13.jpg,AFNE16.jpg,AFNE19.jpg,AFNE16.jpg,FN,3,num_2,16,num_2,0.8504108995,,,2017_Jun_26_1537,60.0125114525,FEMA4ImagesEEG,001,200716,
AFNE01.JPG,AFNE01.JPG,AFNE01.JPG,AFNE01.JPG,AFNE01.JPG,AFNE01.JPG,,,,,,,,,2,0,20,0,,,,,,,,,,,,,,,AFSA01.jpg,AFNE02.jpg,AFSA16.jpg,AFNE10.jpg,AFNE02.jpg,FN,3,num_6,32,num_8,0.916719642159,,,2017_Jun_26_1537,60.0125114525,FEMA4ImagesEEG,001,200716,
AFNE01.JPG,AFNE01.JPG,AFNE01.JPG,AFNE01.JPG,AFNE01.JPG,AFNE01.JPG,,,,,,,,,2,1,21,7,,,,,,,,,,,,,,,AFNE14.jpg,AFSA06.jpg,AFSA08.jpg,AFNE17.jpg,AFSA06.jpg,FS,4,num_6,32,num_4,0.516761530747,,,2017_Jun_26_1537,60.0125114525,FEMA4ImagesEEG,001,200716,
AFNE01.JPG,AFNE01.JPG,AFNE01.JPG,AFNE01.JPG,AFNE01.JPG,AFNE01.JPG,,,,,,,,,2,2,22,1,,,,,,,,,,,,,,,AFNE18.jpg,AFSA09.jpg,AFNE09.jpg,AFSA06.jpg,AFNE09.jpg,FN,3,num_2,32,num_6,0.850139874539,,,2017_Jun_26_1537,60.0125114525,FEMA4ImagesEEG,001,200716,
AFNE01.JPG,AFNE01.JPG,AFNE01.JPG,AFNE01.JPG,AFNE01.JPG,AFNE01.JPG,,,,,,,,,2,3,23,5,,,,,,,,,,,,,,,AFNE15.jpg,AFNE14.jpg,AFSA07.jpg,AFSA13.jpg,AFSA07.jpg,FS,4,num_2,32,num_8,1.3666666239,,,2017_Jun_26_1537,60.0125114525,FEMA4ImagesEEG,001,200716,
AFNE01.JPG,AFNE01.JPG,AFNE01.JPG,AFNE01.JPG,AFNE01.JPG,AFNE01.JPG,,,,,,,,,2,4,24,8,,,,,,,,,,,,,,,AFSA04.jpg,AFNE18.jpg,AFNE07.jpg,AFSA05.jpg,AFNE18.jpg,FN,3,num_6,32,num_2,1.03346885651,,,2017_Jun_26_1537,60.0125114525,FEMA4ImagesEEG,001,200716,
AFNE01.JPG,AFNE01.JPG,AFNE01.JPG,AFNE01.JPG,AFNE01.JPG,AFNE01.JPG,,,,,,,,,2,5,25,2,,,,,,,,,,,,,,,AFNE20.jpg,AFSA14.jpg,AFSA17.jpg,AFNE15.jpg,AFSA14.jpg,FS,4,num_6,16,num_6,0.966750850119,,,2017_Jun_26_1537,60.0125114525,FEMA4ImagesEEG,001,200716,
AFNE01.JPG,AFNE01.JPG,AFNE01.JPG,AFNE01.JPG,AFNE01.JPG,AFNE01.JPG,,,,,,,,,2,6,26,9,,,,,,,,,,,,,,,AFNE15.jpg,AFNE01.jpg,AFSA17.jpg,AFSA10.jpg,AFSA17.jpg,FS,4,num_2,32,num_4,1.01678526548,,,2017_Jun_26_1537,60.0125114525,FEMA4ImagesEEG,001,200716,
AFNE01.JPG,AFNE01.JPG,AFNE01.JPG,AFNE01.JPG,AFNE01.JPG,AFNE01.JPG,,,,,,,,,2,7,27,3,,,,,,,,,,,,,,,AFNE13.jpg,AFSA05.jpg,AFSA01.jpg,AFNE01.jpg,AFSA01.jpg,FS,4,num_2,32,num_6,0.233486882073,,,2017_Jun_26_1537,60.0125114525,FEMA4ImagesEEG,001,200716,
AFNE01.JPG,AFNE01.JPG,AFNE01.JPG,AFNE01.JPG,AFNE01.JPG,AFNE01.JPG,,,,,,,,,2,8,28,6,,,,,,,,,,,,,,,AFSA10.jpg,AFSA20.jpg,AFNE15.jpg,AFNE02.jpg,AFSA20.jpg,FS,4,num_6,16,num_6,0.716772500044,,,2017_Jun_26_1537,60.0125114525,FEMA4ImagesEEG,001,200716,
AFNE01.JPG,AFNE01.JPG,AFNE01.JPG,AFNE01.JPG,AFNE01.JPG,AFNE01.JPG,,,,,,,,,2,9,29,4,,,,,,,,,,,,,,,AFNE19.jpg,AFSA13.jpg,AFNE07.jpg,AFSA12.jpg,AFNE19.jpg,FN,3,num_8,16,num_8,0.833419398459,,,2017_Jun_26_1537,60.0125114525,FEMA4ImagesEEG,001,200716,
AFNE01.JPG,AFNE01.JPG,AFNE01.JPG,AFNE01.JPG,AFNE01.JPG,AFNE01.JPG,,,,,,,,,3,0,30,9,,,,,,,,,,,,,,,AFNE13.jpg,AFSA17.jpg,AFSA13.jpg,AFNE12.jpg,AFNE12.jpg,FN,3,num_4,16,num_4,1.28339556751,,,2017_Jun_26_1537,60.0125114525,FEMA4ImagesEEG,001,200716,
AFNE01.JPG,AFNE01.JPG,AFNE01.JPG,AFNE01.JPG,AFNE01.JPG,AFNE01.JPG,,,,,,,,,3,1,31,3,,,,,,,,,,,,,,,AFSA06.jpg,AFSA04.jpg,AFNE08.jpg,AFNE12.jpg,AFNE12.jpg,FN,3,num_4,16,num_4,0.566813907524,,,2017_Jun_26_1537,60.0125114525,FEMA4ImagesEEG,001,200716,
AFNE01.JPG,AFNE01.JPG,AFNE01.JPG,AFNE01.JPG,AFNE01.JPG,AFNE01.JPG,,,,,,,,,3,2,32,1,,,,,,,,,,,,,,,AFNE09.jpg,AFSA04.jpg,AFNE17.jpg,AFSA10.jpg,AFSA04.jpg,FS,4,num_6,16,num_6,0.750161813128,,,2017_Jun_26_1537,60.0125114525,FEMA4ImagesEEG,001,200716,
AFNE01.JPG,AFNE01.JPG,AFNE01.JPG,AFNE01.JPG,AFNE01.JPG,AFNE01.JPG,,,,,,,,,3,3,33,7,,,,,,,,,,,,,,,AFSA13.jpg,AFNE11.jpg,AFNE03.jpg,AFSA08.jpg,AFSA08.jpg,FS,4,num_4,32,num_2,1.03344255586,,,2017_Jun_26_1537,60.0125114525,FEMA4ImagesEEG,001,200716,
AFNE01.JPG,AFNE01.JPG,AFNE01.JPG,AFNE01.JPG,AFNE01.JPG,AFNE01.JPG,,,,,,,,,3,4,34,4,,,,,,,,,,,,,,,AFNE01.jpg,AFSA04.jpg,AFNE14.jpg,AFSA08.jpg,AFNE01.jpg,FN,3,num_8,16,num_8,0.833427737685,,,2017_Jun_26_1537,60.0125114525,FEMA4ImagesEEG,001,200716,
AFNE01.JPG,AFNE01.JPG,AFNE01.JPG,AFNE01.JPG,AFNE01.JPG,AFNE01.JPG,,,,,,,,,3,5,35,6,,,,,,,,,,,,,,,AFNE04.jpg,AFSA16.jpg,AFNE20.jpg,AFSA20.jpg,AFNE04.jpg,FN,3,num_8,32,num_4,0.916752999077,,,2017_Jun_26_1537,60.0125114525,FEMA4ImagesEEG,001,200716,
AFNE01.JPG,AFNE01.JPG,AFNE01.JPG,AFNE01.JPG,AFNE01.JPG,AFNE01.JPG,,,,,,,,,3,6,36,2,,,,,,,,,,,,,,,AFNE10.jpg,AFNE03.jpg,AFSA10.jpg,AFSA11.jpg,AFNE03.jpg,FN,3,num_6,16,num_6,0.783529636661,,,2017_Jun_26_1537,60.0125114525,FEMA4ImagesEEG,001,200716,
AFNE01.JPG,AFNE01.JPG,AFNE01.JPG,AFNE01.JPG,AFNE01.JPG,AFNE01.JPG,,,,,,,,,3,7,37,0,,,,,,,,,,,,,,,AFNE19.jpg,AFNE05.jpg,AFSA02.jpg,AFSA03.jpg,AFNE05.jpg,FN,3,num_6,32,num_4,0.700115851145,,,2017_Jun_26_1537,60.0125114525,FEMA4ImagesEEG,001,200716,
AFNE01.JPG,AFNE01.JPG,AFNE01.JPG,AFNE01.JPG,AFNE01.JPG,AFNE01.JPG,,,,,,,,,3,8,38,5,,,,,,,,,,,,,,,AFNE07.jpg,AFSA06.jpg,AFNE06.jpg,AFSA10.jpg,AFNE06.jpg,FN,3,num_2,32,num_8,0.833463019047,,,2017_Jun_26_1537,60.0125114525,FEMA4ImagesEEG,001,200716,
AFNE01.JPG,AFNE01.JPG,AFNE01.JPG,AFNE01.JPG,AFNE01.JPG,AFNE01.JPG,,,,,,,,,3,9,39,8,,,,,,,,,,,,,,,AFNE15.jpg,AFSA11.jpg,AFSA01.jpg,AFNE02.jpg,AFSA11.jpg,FS,4,num_6,32,num_4,1.21673946387,,,2017_Jun_26_1537,60.0125114525,FEMA4ImagesEEG,001,200716,
AFNE01.JPG,AFNE01.JPG,AFNE01.JPG,AFNE01.JPG,AFNE01.JPG,AFNE01.JPG,,,,,,,,,4,0,40,1,,,,,,,,,,,,,,,AFSA15.jpg,AFNE08.jpg,AFSA18.jpg,AFNE10.jpg,AFNE10.jpg,FN,3,num_4,32,num_8,0.883424626514,,,2017_Jun_26_1537,60.0125114525,FEMA4ImagesEEG,001,200716,
AFNE01.JPG,AFNE01.JPG,AFNE01.JPG,AFNE01.JPG,AFNE01.JPG,AFNE01.JPG,,,,,,,,,4,1,41,0,,,,,,,,,,,,,,,AFNE13.jpg,AFNE14.jpg,AFSA01.jpg,AFSA09.jpg,AFNE14.jpg,FN,3,num_6,16,num_6,0.650101000901,,,2017_Jun_26_1537,60.0125114525,FEMA4ImagesEEG,001,200716,
AFNE01.JPG,AFNE01.JPG,AFNE01.JPG,AFNE01.JPG,AFNE01.JPG,AFNE01.JPG,,,,,,,,,4,2,42,4,,,,,,,,,,,,,,,AFNE12.jpg,AFNE01.jpg,AFSA08.jpg,AFSA06.jpg,AFSA06.jpg,FS,4,num_4,32,num_6,0.933561037069,,,2017_Jun_26_1537,60.0125114525,FEMA4ImagesEEG,001,200716,
AFNE01.JPG,AFNE01.JPG,AFNE01.JPG,AFNE01.JPG,AFNE01.JPG,AFNE01.JPG,,,,,,,,,4,3,43,3,,,,,,,,,,,,,,,AFSA09.jpg,AFNE03.jpg,AFNE04.jpg,AFSA03.jpg,AFNE04.jpg,FN,3,num_2,16,num_2,2.05000009622,,,2017_Jun_26_1537,60.0125114525,FEMA4ImagesEEG,001,200716,
AFNE01.JPG,AFNE01.JPG,AFNE01.JPG,AFNE01.JPG,AFNE01.JPG,AFNE01.JPG,,,,,,,,,4,4,44,7,,,,,,,,,,,,,,,AFNE19.jpg,AFNE01.jpg,AFSA11.jpg,AFSA15.jpg,AFNE19.jpg,FN,3,num_8,32,num_6,0.633453653449,,,2017_Jun_26_1537,60.0125114525,FEMA4ImagesEEG,001,200716,
AFNE01.JPG,AFNE01.JPG,AFNE01.JPG,AFNE01.JPG,AFNE01.JPG,AFNE01.JPG,,,,,,,,,4,5,45,9,,,,,,,,,,,,,,,AFSA02.jpg,AFNE03.jpg,AFSA03.jpg,AFNE07.jpg,AFSA02.jpg,FS,4,num_8,32,num_2,1.68334501895,,,2017_Jun_26_1537,60.0125114525,FEMA4ImagesEEG,001,200716,
AFNE01.JPG,AFNE01.JPG,AFNE01.JPG,AFNE01.JPG,AFNE01.JPG,AFNE01.JPG,,,,,,,,,4,6,46,6,,,,,,,,,,,,,,,AFNE09.jpg,AFSA18.jpg,AFSA13.jpg,AFNE20.jpg,AFSA18.jpg,FS,4,num_6,32,num_8,1.15006764398,,,2017_Jun_26_1537,60.0125114525,FEMA4ImagesEEG,001,200716,
AFNE01.JPG,AFNE01.JPG,AFNE01.JPG,AFNE01.JPG,AFNE01.JPG,AFNE01.JPG,,,,,,,,,4,7,47,5,,,,,,,,,,,,,,,AFNE10.jpg,AFSA07.jpg,AFNE15.jpg,AFSA16.jpg,AFSA16.jpg,FS,4,num_4,32,num_2,0.800110270273,,,2017_Jun_26_1537,60.0125114525,FEMA4ImagesEEG,001,200716,
AFNE01.JPG,AFNE01.JPG,AFNE01.JPG,AFNE01.JPG,AFNE01.JPG,AFNE01.JPG,,,,,,,,,4,8,48,8,,,,,,,,,,,,,,,AFNE10.jpg,AFSA08.jpg,AFSA07.jpg,AFNE18.jpg,AFSA07.jpg,FS,4,num_2,32,num_4,3.46665366602,,,2017_Jun_26_1537,60.0125114525,FEMA4ImagesEEG,001,200716,
AFNE01.JPG,AFNE01.JPG,AFNE01.JPG,AFNE01.JPG,AFNE01.JPG,AFNE01.JPG,,,,,,,,,4,9,49,2,,,,,,,,,,,,,,,AFSA10.jpg,AFSA05.jpg,AFNE12.jpg,AFNE07.jpg,AFNE07.jpg,FN,3,num_4,32,num_2,4.06655891954,,,2017_Jun_26_1537,60.0125114525,FEMA4ImagesEEG,001,200716,
AFNE01.JPG,AFNE01.JPG,AFNE01.JPG,AFNE01.JPG,AFNE01.JPG,AFNE01.JPG,,,,,,,,,5,0,50,3,,,,,,,,,,,,,,,AFSA20.jpg,AFSA14.jpg,AFNE04.jpg,AFNE03.jpg,AFSA20.jpg,FS,4,num_8,16,num_8,1.04999047404,,,2017_Jun_26_1537,60.0125114525,FEMA4ImagesEEG,001,200716,
AFNE01.JPG,AFNE01.JPG,AFNE01.JPG,AFNE01.JPG,AFNE01.JPG,AFNE01.JPG,,,,,,,,,5,1,51,4,,,,,,,,,,,,,,,AFNE13.jpg,AFNE10.jpg,AFSA02.jpg,AFSA18.jpg,AFSA02.jpg,FS,4,num_2,16,num_2,0.616807588955,,,2017_Jun_26_1537,60.0125114525,FEMA4ImagesEEG,001,200716,
AFNE01.JPG,AFNE01.JPG,AFNE01.JPG,AFNE01.JPG,AFNE01.JPG,AFNE01.JPG,,,,,,,,,5,2,52,0,,,,,,,,,,,,,,,AFNE01.jpg,AFSA19.jpg,AFSA08.jpg,AFNE15.jpg,AFSA19.jpg,FS,4,num_6,16,num_6,0.733438771131,,,2017_Jun_26_1537,60.0125114525,FEMA4ImagesEEG,001,200716,
AFNE01.JPG,AFNE01.JPG,AFNE01.JPG,AFNE01.JPG,AFNE01.JPG,AFNE01.JPG,,,,,,,,,5,3,53,9,,,,,,,,,,,,,,,AFSA11.jpg,AFNE19.jpg,AFSA18.jpg,AFNE16.jpg,AFSA11.jpg,FS,4,num_8,16,num_8,0.933431779009,,,2017_Jun_26_1537,60.0125114525,FEMA4ImagesEEG,001,200716,
AFNE01.JPG,AFNE01.JPG,AFNE01.JPG,AFNE01.JPG,AFNE01.JPG,AFNE01.JPG,,,,,,,,,5,4,54,2,,,,,,,,,,,,,,,AFSA05.jpg,AFNE03.jpg,AFSA18.jpg,AFNE12.jpg,AFSA18.jpg,FS,4,num_2,16,num_2,0.483672109189,,,2017_Jun_26_1537,60.0125114525,FEMA4ImagesEEG,001,200716,
AFNE01.JPG,AFNE01.JPG,AFNE01.JPG,AFNE01.JPG,AFNE01.JPG,AFNE01.JPG,,,,,,,,,5,5,55,7,,,,,,,,,,,,,,,AFSA01.jpg,AFNE17.jpg,AFNE11.jpg,AFSA19.jpg,AFSA01.jpg,FS,4,num_8,32,num_4,1.78335547505,,,2017_Jun_26_1537,60.0125114525,FEMA4ImagesEEG,001,200716,
AFNE01.JPG,AFNE01.JPG,AFNE01.JPG,AFNE01.JPG,AFNE01.JPG,AFNE01.JPG,,,,,,,,,5,6,56,5,,,,,,,,,,,,,,,AFSA19.jpg,AFNE03.jpg,AFSA18.jpg,AFNE10.jpg,AFSA18.jpg,FS,4,num_2,16,num_2,1.3834204569,,,2017_Jun_26_1537,60.0125114525,FEMA4ImagesEEG,001,200716,
AFNE01.JPG,AFNE01.JPG,AFNE01.JPG,AFNE01.JPG,AFNE01.JPG,AFNE01.JPG,,,,,,,,,5,7,57,1,,,,,,,,,,,,,,,AFNE19.jpg,AFSA11.jpg,AFSA10.jpg,AFNE05.jpg,AFSA10.jpg,FS,4,num_2,32,num_8,0.816846462592,,,2017_Jun_26_1537,60.0125114525,FEMA4ImagesEEG,001,200716,
AFNE01.JPG,AFNE01.JPG,AFNE01.JPG,AFNE01.JPG,AFNE01.JPG,AFNE01.JPG,,,,,,,,,5,8,58,6,,,,,,,,,,,,,,,AFSA06.jpg,AFNE16.jpg,AFSA19.jpg,AFNE10.jpg,AFSA06.jpg,FS,4,num_8,32,num_4,0.600138431211,,,2017_Jun_26_1537,60.0125114525,FEMA4ImagesEEG,001,200716,
AFNE01.JPG,AFNE01.JPG,AFNE01.JPG,AFNE01.JPG,AFNE01.JPG,AFNE01.JPG,,,,,,,,,5,9,59,8,,,,,,,,,,,,,,,AFSA15.jpg,AFNE13.jpg,AFNE14.jpg,AFSA20.jpg,AFSA15.jpg,FS,4,num_8,16,num_8,0.833514016638,,,2017_Jun_26_1537,60.0125114525,FEMA4ImagesEEG,001,200716,
,,,,,,,,,,,,,,,,,,,,,,,,,,,,,,,,,,,,,,,,,,,space,36.4637868955,2017_Jun_26_1537,60.0125114525,FEMA4ImagesEEG,001,200716,
AFNE01.JPG,AFNE01.JPG,AFNE01.JPG,AFNE01.JPG,AFNE01.JPG,AFNE01.JPG,,,,,,,,,,,,,0,0,0,3,,,,,,,,,,,AMNE08.jpg,AMNE01.jpg,AMSA15.jpg,AMSA14.jpg,AMNE01.jpg,MN,1,num_6,32,num_4,0.850135063447,,,2017_Jun_26_1537,60.0125114525,FEMA4ImagesEEG,001,200716,
AFNE01.JPG,AFNE01.JPG,AFNE01.JPG,AFNE01.JPG,AFNE01.JPG,AFNE01.JPG,,,,,,,,,,,,,0,1,1,7,,,,,,,,,,,AMSA13.jpg,AMNE15.jpg,AMNE07.jpg,AMSA14.jpg,AMNE07.jpg,MN,1,num_2,32,num_6,0.691732680221,,,2017_Jun_26_1537,60.0125114525,FEMA4ImagesEEG,001,200716,
AFNE01.JPG,AFNE01.JPG,AFNE01.JPG,AFNE01.JPG,AFNE01.JPG,AFNE01.JPG,,,,,,,,,,,,,0,2,2,6,,,,,,,,,,,AMSA04.jpg,AMSA14.jpg,AMNE06.jpg,AMNE20.jpg,AMNE20.jpg,MN,1,num_4,32,num_2,0.733461864384,,,2017_Jun_26_1537,60.0125114525,FEMA4ImagesEEG,001,200716,
AFNE01.JPG,AFNE01.JPG,AFNE01.JPG,AFNE01.JPG,AFNE01.JPG,AFNE01.JPG,,,,,,,,,,,,,0,3,3,0,,,,,,,,,,,AMNE18.jpg,AMSA19.jpg,AMNE01.jpg,AMSA12.jpg,AMNE18.jpg,MN,1,num_8,16,num_8,0.916751074641,,,2017_Jun_26_1537,60.0125114525,FEMA4ImagesEEG,001,200716,
AFNE01.JPG,AFNE01.JPG,AFNE01.JPG,AFNE01.JPG,AFNE01.JPG,AFNE01.JPG,,,,,,,,,,,,,0,4,4,2,,,,,,,,,,,AMNE20.jpg,AMSA02.jpg,AMNE04.jpg,AMSA04.jpg,AMNE20.jpg,MN,1,num_8,16,num_8,0.650112547526,,,2017_Jun_26_1537,60.0125114525,FEMA4ImagesEEG,001,200716,
AFNE01.JPG,AFNE01.JPG,AFNE01.JPG,AFNE01.JPG,AFNE01.JPG,AFNE01.JPG,,,,,,,,,,,,,0,5,5,8,,,,,,,,,,,AMNE19.jpg,AMSA09.jpg,AMNE17.jpg,AMSA14.jpg,AMNE19.jpg,MN,1,num_8,32,num_2,1.35013602567,,,2017_Jun_26_1537,60.0125114525,FEMA4ImagesEEG,001,200716,
AFNE01.JPG,AFNE01.JPG,AFNE01.JPG,AFNE01.JPG,AFNE01.JPG,AFNE01.JPG,,,,,,,,,,,,,0,6,6,9,,,,,,,,,,,AMSA13.jpg,AMNE20.jpg,AMNE03.jpg,AMSA14.jpg,AMNE03.jpg,MN,1,num_2,32,num_4,1.23343107338,,,2017_Jun_26_1537,60.0125114525,FEMA4ImagesEEG,001,200716,
AFNE01.JPG,AFNE01.JPG,AFNE01.JPG,AFNE01.JPG,AFNE01.JPG,AFNE01.JPG,,,,,,,,,,,,,0,7,7,5,,,,,,,,,,,AMSA09.jpg,AMNE14.jpg,AMSA05.jpg,AMNE11.jpg,AMNE11.jpg,MN,1,num_4,32,num_6,0.700168773179,,,2017_Jun_26_1537,60.0125114525,FEMA4ImagesEEG,001,200716,
AFNE01.JPG,AFNE01.JPG,AFNE01.JPG,AFNE01.JPG,AFNE01.JPG,AFNE01.JPG,,,,,,,,,,,,,0,8,8,1,,,,,,,,,,,AMNE14.jpg,AMNE10.jpg,AMSA19.jpg,AMSA05.jpg,AMNE10.jpg,MN,1,num_6,16,num_6,0.933460324835,,,2017_Jun_26_1537,60.0125114525,FEMA4ImagesEEG,001,200716,
AFNE01.JPG,AFNE01.JPG,AFNE01.JPG,AFNE01.JPG,AFNE01.JPG,AFNE01.JPG,,,,,,,,,,,,,0,9,9,4,,,,,,,,,,,AMNE03.jpg,AMNE11.jpg,AMSA03.jpg,AMSA12.jpg,AMSA03.jpg,MS,2,num_2,16,num_2,0.866744563627,,,2017_Jun_26_1537,60.0125114525,FEMA4ImagesEEG,001,200716,
AFNE01.JPG,AFNE01.JPG,AFNE01.JPG,AFNE01.JPG,AFNE01.JPG,AFNE01.JPG,,,,,,,,,,,,,1,0,10,5,,,,,,,,,,,AMNE14.jpg,AMSA20.jpg,AMSA17.jpg,AMNE08.jpg,AMSA20.jpg,MS,2,num_6,32,num_4,0.883379402232,,,2017_Jun_26_1537,60.0125114525,FEMA4ImagesEEG,001,200716,
AFNE01.JPG,AFNE01.JPG,AFNE01.JPG,AFNE01.JPG,AFNE01.JPG,AFNE01.JPG,,,,,,,,,,,,,1,1,11,1,,,,,,,,,,,AMNE13.jpg,AMSA06.jpg,AMNE03.jpg,AMSA11.jpg,AMSA11.jpg,MS,2,num_4,32,num_8,1.45007848498,,,2017_Jun_26_1537,60.0125114525,FEMA4ImagesEEG,001,200716,
AFNE01.JPG,AFNE01.JPG,AFNE01.JPG,AFNE01.JPG,AFNE01.JPG,AFNE01.JPG,,,,,,,,,,,,,1,2,12,0,,,,,,,,,,,AMSA14.jpg,AMSA03.jpg,AMNE08.jpg,AMNE01.jpg,AMSA14.jpg,MS,2,num_8,16,num_8,0.750227244007,,,2017_Jun_26_1537,60.0125114525,FEMA4ImagesEEG,001,200716,
AFNE01.JPG,AFNE01.JPG,AFNE01.JPG,AFNE01.JPG,AFNE01.JPG,AFNE01.JPG,,,,,,,,,,,,,1,3,13,4,,,,,,,,,,,AMNE12.jpg,AMNE15.jpg,AMSA02.jpg,AMSA18.jpg,AMSA02.jpg,MS,2,num_2,32,num_4,1.06677253212,,,2017_Jun_26_1537,60.0125114525,FEMA4ImagesEEG,001,200716,
AFNE01.JPG,AFNE01.JPG,AFNE01.JPG,AFNE01.JPG,AFNE01.JPG,AFNE01.JPG,,,,,,,,,,,,,1,4,14,9,,,,,,,,,,,AMNE01.jpg,AMSA17.jpg,AMSA03.jpg,AMNE19.jpg,AMNE01.jpg,MN,1,num_8,32,num_2,0.583488197106,,,2017_Jun_26_1537,60.0125114525,FEMA4ImagesEEG,001,200716,
AFNE01.JPG,AFNE01.JPG,AFNE01.JPG,AFNE01.JPG,AFNE01.JPG,AFNE01.JPG,,,,,,,,,,,,,1,5,15,6,,,,,,,,,,,AMNE04.jpg,AMSA19.jpg,AMNE11.jpg,AMSA10.jpg,AMNE04.jpg,MN,1,num_8,16,num_8,1.38340377844,,,2017_Jun_26_1537,60.0125114525,FEMA4ImagesEEG,001,200716,
AFNE01.JPG,AFNE01.JPG,AFNE01.JPG,AFNE01.JPG,AFNE01.JPG,AFNE01.JPG,,,,,,,,,,,,,1,6,16,8,,,,,,,,,,,AMNE04.jpg,AMSA03.jpg,AMSA01.jpg,AMNE19.jpg,AMSA03.jpg,MS,2,num_6,32,num_2,3.78321210446,,,2017_Jun_26_1537,60.0125114525,FEMA4ImagesEEG,001,200716,
AFNE01.JPG,AFNE01.JPG,AFNE01.JPG,AFNE01.JPG,AFNE01.JPG,AFNE01.JPG,,,,,,,,,,,,,1,7,17,2,,,,,,,,,,,AMSA15.jpg,AMSA11.jpg,AMNE01.jpg,AMNE13.jpg,AMNE01.jpg,MN,1,num_2,16,num_2,0.766785746589,,,2017_Jun_26_1537,60.0125114525,FEMA4ImagesEEG,001,200716,
AFNE01.JPG,AFNE01.JPG,AFNE01.JPG,AFNE01.JPG,AFNE01.JPG,AFNE01.JPG,,,,,,,,,,,,,1,8,18,7,,,,,,,,,,,AMNE15.jpg,AMSA09.jpg,AMNE02.jpg,AMSA06.jpg,AMNE15.jpg,MN,1,num_8,16,num_8,0.633464879334,,,2017_Jun_26_1537,60.0125114525,FEMA4ImagesEEG,001,200716,
AFNE01.JPG,AFNE01.JPG,AFNE01.JPG,AFNE01.JPG,AFNE01.JPG,AFNE01.JPG,,,,,,,,,,,,,1,9,19,3,,,,,,,,,,,AMSA05.jpg,AMNE15.jpg,AMSA03.jpg,AMNE16.jpg,AMSA05.jpg,MS,2,num_8,32,num_6,0.516854865975,,,2017_Jun_26_1537,60.0125114525,FEMA4ImagesEEG,001,200716,
AFNE01.JPG,AFNE01.JPG,AFNE01.JPG,AFNE01.JPG,AFNE01.JPG,AFNE01.JPG,,,,,,,,,,,,,2,0,20,4,,,,,,,,,,,AMNE14.jpg,AMSA12.jpg,AMSA19.jpg,AMNE01.jpg,AMNE14.jpg,MN,1,num_8,32,num_4,1.06671351603,,,2017_Jun_26_1537,60.0125114525,FEMA4ImagesEEG,001,200716,
AFNE01.JPG,AFNE01.JPG,AFNE01.JPG,AFNE01.JPG,AFNE01.JPG,AFNE01.JPG,,,,,,,,,,,,,2,1,21,8,,,,,,,,,,,AMSA12.jpg,AMNE17.jpg,AMNE01.jpg,AMSA18.jpg,AMNE17.jpg,MN,1,num_6,32,num_8,0.916744339105,,,2017_Jun_26_1537,60.0125114525,FEMA4ImagesEEG,001,200716,
AFNE01.JPG,AFNE01.JPG,AFNE01.JPG,AFNE01.JPG,AFNE01.JPG,AFNE01.JPG,,,,,,,,,,,,,2,2,22,0,,,,,,,,,,,AMSA16.jpg,AMNE01.jpg,AMSA06.jpg,AMNE16.jpg,AMSA16.jpg,MS,2,num_8,32,num_2,0.716764481553,,,2017_Jun_26_1537,60.0125114525,FEMA4ImagesEEG,001,200716,
AFNE01.JPG,AFNE01.JPG,AFNE01.JPG,AFNE01.JPG,AFNE01.JPG,AFNE01.JPG,,,,,,,,,,,,,2,3,23,1,,,,,,,,,,,AMNE05.jpg,AMNE12.jpg,AMSA01.jpg,AMSA20.jpg,AMNE12.jpg,MN,1,num_6,16,num_6,1.33345949091,,,2017_Jun_26_1537,60.0125114525,FEMA4ImagesEEG,001,200716,
AFNE01.JPG,AFNE01.JPG,AFNE01.JPG,AFNE01.JPG,AFNE01.JPG,AFNE01.JPG,,,,,,,,,,,,,2,4,24,9,,,,,,,,,,,AMNE20.jpg,AMSA12.jpg,AMNE06.jpg,AMSA10.jpg,AMNE06.jpg,MN,1,num_2,32,num_8,2.36661723,,,2017_Jun_26_1537,60.0125114525,FEMA4ImagesEEG,001,200716,
AFNE01.JPG,AFNE01.JPG,AFNE01.JPG,AFNE01.JPG,AFNE01.JPG,AFNE01.JPG,,,,,,,,,,,,,2,5,25,5,,,,,,,,,,,AMSA16.jpg,AMSA20.jpg,AMNE12.jpg,AMNE05.jpg,AMNE12.jpg,MN,1,num_2,16,num_2,0.633489576285,,,2017_Jun_26_1537,60.0125114525,FEMA4ImagesEEG,001,200716,
AFNE01.JPG,AFNE01.JPG,AFNE01.JPG,AFNE01.JPG,AFNE01.JPG,AFNE01.JPG,,,,,,,,,,,,,2,6,26,6,,,,,,,,,,,AMNE10.jpg,AMSA10.jpg,AMNE16.jpg,AMSA04.jpg,AMNE16.jpg,MN,1,num_2,32,num_8,1.26671165574,,,2017_Jun_26_1537,60.0125114525,FEMA4ImagesEEG,001,200716,
AFNE01.JPG,AFNE01.JPG,AFNE01.JPG,AFNE01.JPG,AFNE01.JPG,AFNE01.JPG,,,,,,,,,,,,,2,7,27,7,,,,,,,,,,,AMNE10.jpg,AMNE16.jpg,AMSA17.jpg,AMSA14.jpg,AMNE16.jpg,MN,1,num_6,32,num_4,1.05009599736,,,2017_Jun_26_1537,60.0125114525,FEMA4ImagesEEG,001,200716,
AFNE01.JPG,AFNE01.JPG,AFNE01.JPG,AFNE01.JPG,AFNE01.JPG,AFNE01.JPG,,,,,,,,,,,,,2,8,28,2,,,,,,,,,,,AMNE20.jpg,AMNE14.jpg,AMSA13.jpg,AMSA05.jpg,AMSA13.jpg,MS,2,num_2,32,num_8,1.2000709476,,,2017_Jun_26_1537,60.0125114525,FEMA4ImagesEEG,001,200716,
AFNE01.JPG,AFNE01.JPG,AFNE01.JPG,AFNE01.JPG,AFNE01.JPG,AFNE01.JPG,,,,,,,,,,,,,2,9,29,3,,,,,,,,,,,AMNE16.jpg,AMNE09.jpg,AMSA04.jpg,AMSA18.jpg,AMNE16.jpg,MN,1,num_8,32,num_6,0.700122907416,,,2017_Jun_26_1537,60.0125114525,FEMA4ImagesEEG,001,200716,
AFNE01.JPG,AFNE01.JPG,AFNE01.JPG,AFNE01.JPG,AFNE01.JPG,AFNE01.JPG,,,,,,,,,,,,,3,0,30,8,,,,,,,,,,,AMSA10.jpg,AMNE07.jpg,AMNE13.jpg,AMSA07.jpg,AMSA07.jpg,MS,2,num_4,16,num_4,1.03341785891,,,2017_Jun_26_1537,60.0125114525,FEMA4ImagesEEG,001,200716,
AFNE01.JPG,AFNE01.JPG,AFNE01.JPG,AFNE01.JPG,AFNE01.JPG,AFNE01.JPG,,,,,,,,,,,,,3,1,31,6,,,,,,,,,,,AMSA19.jpg,AMNE18.jpg,AMNE05.jpg,AMSA08.jpg,AMSA19.jpg,MS,2,num_8,16,num_8,3.03293450433,,,2017_Jun_26_1537,60.0125114525,FEMA4ImagesEEG,001,200716,
AFNE01.JPG,AFNE01.JPG,AFNE01.JPG,AFNE01.JPG,AFNE01.JPG,AFNE01.JPG,,,,,,,,,,,,,3,2,32,2,,,,,,,,,,,AMSA11.jpg,AMNE01.jpg,AMSA06.jpg,AMNE17.jpg,AMNE01.jpg,MN,1,num_6,16,num_6,0.50020816,,,2017_Jun_26_1537,60.0125114525,FEMA4ImagesEEG,001,200716,
AFNE01.JPG,AFNE01.JPG,AFNE01.JPG,AFNE01.JPG,AFNE01.JPG,AFNE01.JPG,,,,,,,,,,,,,3,3,33,7,,,,,,,,,,,AMNE01.jpg,AMSA11.jpg,AMNE10.jpg,AMSA01.jpg,AMNE01.jpg,MN,1,num_8,32,num_4,0.46690993696,,,2017_Jun_26_1537,60.0125114525,FEMA4ImagesEEG,001,200716,
AFNE01.JPG,AFNE01.JPG,AFNE01.JPG,AFNE01.JPG,AFNE01.JPG,AFNE01.JPG,,,,,,,,,,,,,3,4,34,9,,,,,,,,,,,AMSA09.jpg,AMSA04.jpg,AMNE17.jpg,AMNE11.jpg,AMSA04.jpg,MS,2,num_6,16,num_6,0.466810186947,,,2017_Jun_26_1537,60.0125114525,FEMA4ImagesEEG,001,200716,
AFNE01.JPG,AFNE01.JPG,AFNE01.JPG,AFNE01.JPG,AFNE01.JPG,AFNE01.JPG,,,,,,,,,,,,,3,5,35,0,,,,,,,,,,,AMNE13.jpg,AMNE06.jpg,AMSA19.jpg,AMSA16.jpg,AMNE13.jpg,MN,1,num_8,16,num_8,1.96665879785,,,2017_Jun_26_1537,60.0125114525,FEMA4ImagesEEG,001,200716,
AFNE01.JPG,AFNE01.JPG,AFNE01.JPG,AFNE01.JPG,AFNE01.JPG,AFNE01.JPG,,,,,,,,,,,,,3,6,36,1,,,,,,,,,,,AMSA11.jpg,AMNE07.jpg,AMSA17.jpg,AMNE10.jpg,AMSA11.jpg,MS,2,num_8,16,num_8,1.05010209141,,,2017_Jun_26_1537,60.0125114525,FEMA4ImagesEEG,001,200716,
AFNE01.JPG,AFNE01.JPG,AFNE01.JPG,AFNE01.JPG,AFNE01.JPG,AFNE01.JPG,,,,,,,,,,,,,3,7,37,4,,,,,,,,,,,AMNE09.jpg,AMNE13.jpg,AMSA15.jpg,AMSA17.jpg,AMNE09.jpg,MN,1,num_8,32,num_6,0.600258387822,,,2017_Jun_26_1537,60.0125114525,FEMA4ImagesEEG,001,200716,
AFNE01.JPG,AFNE01.JPG,AFNE01.JPG,AFNE01.JPG,AFNE01.JPG,AFNE01.JPG,,,,,,,,,,,,,3,8,38,3,,,,,,,,,,,AMSA13.jpg,AMSA15.jpg,AMNE15.jpg,AMNE14.jpg,AMSA15.jpg,MS,2,num_6,16,num_6,0.416650683143,,,2017_Jun_26_1537,60.0125114525,FEMA4ImagesEEG,001,200716,
AFNE01.JPG,AFNE01.JPG,AFNE01.JPG,AFNE01.JPG,AFNE01.JPG,AFNE01.JPG,,,,,,,,,,,,,3,9,39,5,,,,,,,,,,,AMNE16.jpg,AMSA14.jpg,AMSA09.jpg,AMNE18.jpg,AMSA09.jpg,MS,2,num_2,16,num_2,1.16671916105,,,2017_Jun_26_1537,60.0125114525,FEMA4ImagesEEG,001,200716,
AFNE01.JPG,AFNE01.JPG,AFNE01.JPG,AFNE01.JPG,AFNE01.JPG,AFNE01.JPG,,,,,,,,,,,,,4,0,40,1,,,,,,,,,,,AMSA17.jpg,AMSA20.jpg,AMNE17.jpg,AMNE07.jpg,AMSA17.jpg,MS,2,num_8,16,num_8,1.03341657595,,,2017_Jun_26_1537,60.0125114525,FEMA4ImagesEEG,001,200716,
AFNE01.JPG,AFNE01.JPG,AFNE01.JPG,AFNE01.JPG,AFNE01.JPG,AFNE01.JPG,,,,,,,,,,,,,4,1,41,8,,,,,,,,,,,AMSA15.jpg,AMNE06.jpg,AMSA07.jpg,AMNE09.jpg,AMSA15.jpg,MS,2,num_8,32,num_4,1.20005458988,,,2017_Jun_26_1537,60.0125114525,FEMA4ImagesEEG,001,200716,
AFNE01.JPG,AFNE01.JPG,AFNE01.JPG,AFNE01.JPG,AFNE01.JPG,AFNE01.JPG,,,,,,,,,,,,,4,2,42,3,,,,,,,,,,,AMSA03.jpg,AMNE07.jpg,AMNE17.jpg,AMSA15.jpg,AMNE07.jpg,MN,1,num_6,32,num_8,0.966399960998,,,2017_Jun_26_1537,60.0125114525,FEMA4ImagesEEG,001,200716,
AFNE01.JPG,AFNE01.JPG,AFNE01.JPG,AFNE01.JPG,AFNE01.JPG,AFNE01.JPG,,,,,,,,,,,,,4,3,43,6,,,,,,,,,,,AMSA02.jpg,AMNE08.jpg,AMSA11.jpg,AMNE09.jpg,AMSA11.jpg,MS,2,num_2,16,num_2,0.850094008776,,,2017_Jun_26_1537,60.0125114525,FEMA4ImagesEEG,001,200716,
AFNE01.JPG,AFNE01.JPG,AFNE01.JPG,AFNE01.JPG,AFNE01.JPG,AFNE01.JPG,,,,,,,,,,,,,4,4,44,2,,,,,,,,,,,AMNE14.jpg,AMSA08.jpg,AMNE05.jpg,AMSA17.jpg,AMSA08.jpg,MS,2,num_6,32,num_8,0.966751491596,,,2017_Jun_26_1537,60.0125114525,FEMA4ImagesEEG,001,200716,
AFNE01.JPG,AFNE01.JPG,AFNE01.JPG,AFNE01.JPG,AFNE01.JPG,AFNE01.JPG,,,,,,,,,,,,,4,5,45,9,,,,,,,,,,,AMNE16.jpg,AMNE19.jpg,AMSA16.jpg,AMSA20.jpg,AMNE16.jpg,MN,1,num_8,32,num_6,1.08343912395,,,2017_Jun_26_1537,60.0125114525,FEMA4ImagesEEG,001,200716,
AFNE01.JPG,AFNE01.JPG,AFNE01.JPG,AFNE01.JPG,AFNE01.JPG,AFNE01.JPG,,,,,,,,,,,,,4,6,46,0,,,,,,,,,,,AMNE14.jpg,AMNE16.jpg,AMSA16.jpg,AMSA07.jpg,AMNE14.jpg,MN,1,num_8,16,num_8,1.05009086553,,,2017_Jun_26_1537,60.0125114525,FEMA4ImagesEEG,001,200716,
AFNE01.JPG,AFNE01.JPG,AFNE01.JPG,AFNE01.JPG,AFNE01.JPG,AFNE01.JPG,,,,,,,,,,,,,4,7,47,4,,,,,,,,,,,AMNE20.jpg,AMSA19.jpg,AMNE16.jpg,AMSA09.jpg,AMNE16.jpg,MN,1,num_2,16,num_2,0.883415325068,,,2017_Jun_26_1537,60.0125114525,FEMA4ImagesEEG,001,200716,
AFNE01.JPG,AFNE01.JPG,AFNE01.JPG,AFNE01.JPG,AFNE01.JPG,AFNE01.JPG,,,,,,,,,,,,,4,8,48,7,,,,,,,,,,,AMSA07.jpg,AMNE01.jpg,AMSA01.jpg,AMNE05.jpg,AMSA01.jpg,MS,2,num_2,32,num_8,2.23335666179,,,2017_Jun_26_1537,60.0125114525,FEMA4ImagesEEG,001,200716,
AFNE01.JPG,AFNE01.JPG,AFNE01.JPG,AFNE01.JPG,AFNE01.JPG,AFNE01.JPG,,,,,,,,,,,,,4,9,49,5,,,,,,,,,,,AMNE17.jpg,AMSA03.jpg,AMSA01.jpg,AMNE20.jpg,AMSA01.jpg,MS,2,num_2,16,num_2,0.78346484726,,,2017_Jun_26_1537,60.0125114525,FEMA4ImagesEEG,001,200716,
AFNE01.JPG,AFNE01.JPG,AFNE01.JPG,AFNE01.JPG,AFNE01.JPG,AFNE01.JPG,,,,,,,,,,,,,5,0,50,2,,,,,,,,,,,AMNE20.jpg,AMSA13.jpg,AMSA11.jpg,AMNE12.jpg,AMSA13.jpg,MS,2,num_6,32,num_8,0.73347918432,,,2017_Jun_26_1537,60.0125114525,FEMA4ImagesEEG,001,200716,
AFNE01.JPG,AFNE01.JPG,AFNE01.JPG,AFNE01.JPG,AFNE01.JPG,AFNE01.JPG,,,,,,,,,,,,,5,1,51,8,,,,,,,,,,,AMNE07.jpg,AMSA18.jpg,AMNE19.jpg,AMSA09.jpg,AMSA09.jpg,MS,2,num_4,16,num_4,0.650208127929,,,2017_Jun_26_1537,60.0125114525,FEMA4ImagesEEG,001,200716,
AFNE01.JPG,AFNE01.JPG,AFNE01.JPG,AFNE01.JPG,AFNE01.JPG,AFNE01.JPG,,,,,,,,,,,,,5,2,52,9,,,,,,,,,,,AMSA01.jpg,AMNE13.jpg,AMSA14.jpg,AMNE03.jpg,AMNE03.jpg,MN,1,num_4,32,num_2,0.800125665777,,,2017_Jun_26_1537,60.0125114525,FEMA4ImagesEEG,001,200716,
AFNE01.JPG,AFNE01.JPG,AFNE01.JPG,AFNE01.JPG,AFNE01.JPG,AFNE01.JPG,,,,,,,,,,,,,5,3,53,0,,,,,,,,,,,AMNE04.jpg,AMNE12.jpg,AMSA12.jpg,AMSA02.jpg,AMSA12.jpg,MS,2,num_2,32,num_6,0.849887773216,,,2017_Jun_26_1537,60.0125114525,FEMA4ImagesEEG,001,200716,
AFNE01.JPG,AFNE01.JPG,AFNE01.JPG,AFNE01.JPG,AFNE01.JPG,AFNE01.JPG,,,,,,,,,,,,,5,4,54,7,,,,,,,,,,,AMNE19.jpg,AMNE14.jpg,AMSA01.jpg,AMSA18.jpg,AMNE19.jpg,MN,1,num_8,16,num_8,1.0501133173,,,2017_Jun_26_1537,60.0125114525,FEMA4ImagesEEG,001,200716,
AFNE01.JPG,AFNE01.JPG,AFNE01.JPG,AFNE01.JPG,AFNE01.JPG,AFNE01.JPG,,,,,,,,,,,,,5,5,55,5,,,,,,,,,,,AMNE13.jpg,AMSA20.jpg,AMSA04.jpg,AMNE15.jpg,AMNE15.jpg,MN,1,num_4,16,num_4,0.666772724562,,,2017_Jun_26_1537,60.0125114525,FEMA4ImagesEEG,001,200716,
AFNE01.JPG,AFNE01.JPG,AFNE01.JPG,AFNE01.JPG,AFNE01.JPG,AFNE01.JPG,,,,,,,,,,,,,5,6,56,3,,,,,,,,,,,AMNE07.jpg,AMSA10.jpg,AMNE09.jpg,AMSA15.jpg,AMSA15.jpg,MS,2,num_4,16,num_4,0.41678058268,,,2017_Jun_26_1537,60.0125114525,FEMA4ImagesEEG,001,200716,
AFNE01.JPG,AFNE01.JPG,AFNE01.JPG,AFNE01.JPG,AFNE01.JPG,AFNE01.JPG,,,,,,,,,,,,,5,7,57,4,,,,,,,,,,,AMNE16.jpg,AMSA10.jpg,AMSA18.jpg,AMNE17.jpg,AMNE16.jpg,MN,1,num_8,16,num_8,0.800109949534,,,2017_Jun_26_1537,60.0125114525,FEMA4ImagesEEG,001,200716,
AFNE01.JPG,AFNE01.JPG,AFNE01.JPG,AFNE01.JPG,AFNE01.JPG,AFNE01.JPG,,,,,,,,,,,,,5,8,58,6,,,,,,,,,,,AMSA04.jpg,AMNE01.jpg,AMNE04.jpg,AMSA09.jpg,AMSA09.jpg,MS,2,num_4,32,num_2,0.816774937663,,,2017_Jun_26_1537,60.0125114525,FEMA4ImagesEEG,001,200716,
AFNE01.JPG,AFNE01.JPG,AFNE01.JPG,AFNE01.JPG,AFNE01.JPG,AFNE01.JPG,,,,,,,,,,,,,5,9,59,1,,,,,,,,,,,AMSA06.jpg,AMNE12.jpg,AMNE01.jpg,AMSA15.jpg,AMSA15.jpg,MS,2,num_4,16,num_4,1.65003717372,,,2017_Jun_26_1537,60.0125114525,FEMA4ImagesEEG,001,200716,
,,,,,,,,,,,,,,,,,,,,,,,,,,,,,,,,,,,,,,,,,,,space,29.8309003096,2017_Jun_26_1537,60.0125114525,FEMA4ImagesEEG,001,200716,
AFNE01.JPG,AFNE01.JPG,AFNE01.JPG,AFNE01.JPG,AFNE01.JPG,AFNE01.JPG,,,,,,,,,,,,,,,,,0,0,0,2,,,,,,,AFSA05.jpg,AFSA14.jpg,AFNE15.jpg,AFNE09.jpg,AFSA14.jpg,FS,4,num_6,32,num_4,1.18343995787,,,2017_Jun_26_1537,60.0125114525,FEMA4ImagesEEG,001,200716,
AFNE01.JPG,AFNE01.JPG,AFNE01.JPG,AFNE01.JPG,AFNE01.JPG,AFNE01.JPG,,,,,,,,,,,,,,,,,0,1,1,1,,,,,,,AFSA06.jpg,AFSA09.jpg,AFNE02.jpg,AFNE16.jpg,AFNE02.jpg,FN,3,num_2,32,num_4,1.28343245256,,,2017_Jun_26_1537,60.0125114525,FEMA4ImagesEEG,001,200716,
AFNE01.JPG,AFNE01.JPG,AFNE01.JPG,AFNE01.JPG,AFNE01.JPG,AFNE01.JPG,,,,,,,,,,,,,,,,,0,2,2,7,,,,,,,AFNE19.jpg,AFSA12.jpg,AFNE06.jpg,AFSA13.jpg,AFSA12.jpg,FS,4,num_6,16,num_6,1.00008371304,,,2017_Jun_26_1537,60.0125114525,FEMA4ImagesEEG,001,200716,
AFNE01.JPG,AFNE01.JPG,AFNE01.JPG,AFNE01.JPG,AFNE01.JPG,AFNE01.JPG,,,,,,,,,,,,,,,,,0,3,3,4,,,,,,,AFSA17.jpg,AFSA05.jpg,AFNE04.jpg,AFNE11.jpg,AFSA05.jpg,FS,4,num_6,16,num_6,0.750115305884,,,2017_Jun_26_1537,60.0125114525,FEMA4ImagesEEG,001,200716,
AFNE01.JPG,AFNE01.JPG,AFNE01.JPG,AFNE01.JPG,AFNE01.JPG,AFNE01.JPG,,,,,,,,,,,,,,,,,0,4,4,9,,,,,,,AFNE17.jpg,AFNE11.jpg,AFSA06.jpg,AFSA12.jpg,AFNE17.jpg,FN,3,num_8,32,num_2,0.899875039853,,,2017_Jun_26_1537,60.0125114525,FEMA4ImagesEEG,001,200716,
AFNE01.JPG,AFNE01.JPG,AFNE01.JPG,AFNE01.JPG,AFNE01.JPG,AFNE01.JPG,,,,,,,,,,,,,,,,,0,5,5,0,,,,,,,AFNE14.jpg,AFSA18.jpg,AFSA09.jpg,AFNE13.jpg,AFNE13.jpg,FN,3,num_4,32,num_8,0.566787927619,,,2017_Jun_26_1537,60.0125114525,FEMA4ImagesEEG,001,200716,
AFNE01.JPG,AFNE01.JPG,AFNE01.JPG,AFNE01.JPG,AFNE01.JPG,AFNE01.JPG,,,,,,,,,,,,,,,,,0,6,6,6,,,,,,,AFSA14.jpg,AFSA09.jpg,AFNE12.jpg,AFNE02.jpg,AFNE12.jpg,FN,3,num_2,16,num_2,0.716904003282,,,2017_Jun_26_1537,60.0125114525,FEMA4ImagesEEG,001,200716,
AFNE01.JPG,AFNE01.JPG,AFNE01.JPG,AFNE01.JPG,AFNE01.JPG,AFNE01.JPG,,,,,,,,,,,,,,,,,0,7,7,5,,,,,,,AFSA18.jpg,AFNE04.jpg,AFSA06.jpg,AFNE17.jpg,AFNE17.jpg,FN,3,num_4,16,num_4,0.433471550718,,,2017_Jun_26_1537,60.0125114525,FEMA4ImagesEEG,001,200716,
AFNE01.JPG,AFNE01.JPG,AFNE01.JPG,AFNE01.JPG,AFNE01.JPG,AFNE01.JPG,,,,,,,,,,,,,,,,,0,8,8,3,,,,,,,AFNE03.jpg,AFNE18.jpg,AFSA06.jpg,AFSA18.jpg,AFSA18.jpg,FS,4,num_4,32,num_2,1.08344489726,,,2017_Jun_26_1537,60.0125114525,FEMA4ImagesEEG,001,200716,
AFNE01.JPG,AFNE01.JPG,AFNE01.JPG,AFNE01.JPG,AFNE01.JPG,AFNE01.JPG,,,,,,,,,,,,,,,,,0,9,9,8,,,,,,,AFNE09.jpg,AFSA12.jpg,AFNE04.jpg,AFSA06.jpg,AFNE04.jpg,FN,3,num_2,32,num_8,1.15006347437,,,2017_Jun_26_1537,60.0125114525,FEMA4ImagesEEG,001,200716,
AFNE01.JPG,AFNE01.JPG,AFNE01.JPG,AFNE01.JPG,AFNE01.JPG,AFNE01.JPG,,,,,,,,,,,,,,,,,1,0,10,4,,,,,,,AFNE05.jpg,AFNE13.jpg,AFSA13.jpg,AFSA12.jpg,AFSA13.jpg,FS,4,num_2,16,num_2,0.850294471024,,,2017_Jun_26_1537,60.0125114525,FEMA4ImagesEEG,001,200716,
AFNE01.JPG,AFNE01.JPG,AFNE01.JPG,AFNE01.JPG,AFNE01.JPG,AFNE01.JPG,,,,,,,,,,,,,,,,,1,1,11,9,,,,,,,AFNE13.jpg,AFNE03.jpg,AFSA14.jpg,AFSA13.jpg,AFSA13.jpg,FS,4,num_4,16,num_4,0.850103951707,,,2017_Jun_26_1537,60.0125114525,FEMA4ImagesEEG,001,200716,
AFNE01.JPG,AFNE01.JPG,AFNE01.JPG,AFNE01.JPG,AFNE01.JPG,AFNE01.JPG,,,,,,,,,,,,,,,,,1,2,12,7,,,,,,,AFNE10.jpg,AFSA20.jpg,AFNE19.jpg,AFSA06.jpg,AFSA20.jpg,FS,4,num_6,32,num_8,1.03340984042,,,2017_Jun_26_1537,60.0125114525,FEMA4ImagesEEG,001,200716,
AFNE01.JPG,AFNE01.JPG,AFNE01.JPG,AFNE01.JPG,AFNE01.JPG,AFNE01.JPG,,,,,,,,,,,,,,,,,1,3,13,0,,,,,,,AFSA05.jpg,AFNE09.jpg,AFNE12.jpg,AFSA09.jpg,AFSA05.jpg,FS,4,num_8,32,num_4,1.46672615317,,,2017_Jun_26_1537,60.0125114525,FEMA4ImagesEEG,001,200716,
AFNE01.JPG,AFNE01.JPG,AFNE01.JPG,AFNE01.JPG,AFNE01.JPG,AFNE01.JPG,,,,,,,,,,,,,,,,,1,4,14,8,,,,,,,AFSA19.jpg,AFNE12.jpg,AFSA16.jpg,AFNE18.jpg,AFSA19.jpg,FS,4,num_8,16,num_8,0.866729168123,,,2017_Jun_26_1537,60.0125114525,FEMA4ImagesEEG,001,200716,
AFNE01.JPG,AFNE01.JPG,AFNE01.JPG,AFNE01.JPG,AFNE01.JPG,AFNE01.JPG,,,,,,,,,,,,,,,,,1,5,15,6,,,,,,,AFNE17.jpg,AFNE08.jpg,AFSA09.jpg,AFSA06.jpg,AFSA09.jpg,FS,4,num_2,16,num_2,0.800130797608,,,2017_Jun_26_1537,60.0125114525,FEMA4ImagesEEG,001,200716,
AFNE01.JPG,AFNE01.JPG,AFNE01.JPG,AFNE01.JPG,AFNE01.JPG,AFNE01.JPG,,,,,,,,,,,,,,,,,1,6,16,2,,,,,,,AFNE09.jpg,AFSA11.jpg,AFNE15.jpg,AFSA02.jpg,AFSA11.jpg,FS,4,num_6,32,num_2,2.96655648192,,,2017_Jun_26_1537,60.0125114525,FEMA4ImagesEEG,001,200716,
AFNE01.JPG,AFNE01.JPG,AFNE01.JPG,AFNE01.JPG,AFNE01.JPG,AFNE01.JPG,,,,,,,,,,,,,,,,,1,7,17,5,,,,,,,AFSA20.jpg,AFNE14.jpg,AFSA11.jpg,AFNE20.jpg,AFNE14.jpg,FN,3,num_6,32,num_4,4.48316245397,,,2017_Jun_26_1537,60.0125114525,FEMA4ImagesEEG,001,200716,
AFNE01.JPG,AFNE01.JPG,AFNE01.JPG,AFNE01.JPG,AFNE01.JPG,AFNE01.JPG,,,,,,,,,,,,,,,,,1,8,18,3,,,,,,,AFSA07.jpg,AFNE03.jpg,AFSA12.jpg,AFNE19.jpg,AFSA07.jpg,FS,4,num_8,32,num_2,0.850115177593,,,2017_Jun_26_1537,60.0125114525,FEMA4ImagesEEG,001,200716,
AFNE01.JPG,AFNE01.JPG,AFNE01.JPG,AFNE01.JPG,AFNE01.JPG,AFNE01.JPG,,,,,,,,,,,,,,,,,1,9,19,1,,,,,,,AFNE08.jpg,AFSA19.jpg,AFSA16.jpg,AFNE02.jpg,AFNE08.jpg,FN,3,num_8,16,num_8,0.750165020527,,,2017_Jun_26_1537,60.0125114525,FEMA4ImagesEEG,001,200716,
AFNE01.JPG,AFNE01.JPG,AFNE01.JPG,AFNE01.JPG,AFNE01.JPG,AFNE01.JPG,,,,,,,,,,,,,,,,,2,0,20,0,,,,,,,AFSA12.jpg,AFNE11.jpg,AFNE14.jpg,AFSA16.jpg,AFNE14.jpg,FN,3,num_2,32,num_6,0.650114471966,,,2017_Jun_26_1537,60.0125114525,FEMA4ImagesEEG,001,200716,
AFNE01.JPG,AFNE01.JPG,AFNE01.JPG,AFNE01.JPG,AFNE01.JPG,AFNE01.JPG,,,,,,,,,,,,,,,,,2,1,21,7,,,,,,,AFSA06.jpg,AFNE08.jpg,AFNE04.jpg,AFSA19.jpg,AFSA06.jpg,FS,4,num_8,16,num_8,0.766815575371,,,2017_Jun_26_1537,60.0125114525,FEMA4ImagesEEG,001,200716,
AFNE01.JPG,AFNE01.JPG,AFNE01.JPG,AFNE01.JPG,AFNE01.JPG,AFNE01.JPG,,,,,,,,,,,,,,,,,2,2,22,6,,,,,,,AFNE03.jpg,AFSA15.jpg,AFNE12.jpg,AFSA19.jpg,AFNE03.jpg,FN,3,num_8,32,num_6,0.683491596945,,,2017_Jun_26_1537,60.0125114525,FEMA4ImagesEEG,001,200716,
AFNE01.JPG,AFNE01.JPG,AFNE01.JPG,AFNE01.JPG,AFNE01.JPG,AFNE01.JPG,,,,,,,,,,,,,,,,,2,3,23,2,,,,,,,AFNE05.jpg,AFNE14.jpg,AFSA20.jpg,AFSA07.jpg,AFNE05.jpg,FN,3,num_8,16,num_8,0.916522708045,,,2017_Jun_26_1537,60.0125114525,FEMA4ImagesEEG,001,200716,
AFNE01.JPG,AFNE01.JPG,AFNE01.JPG,AFNE01.JPG,AFNE01.JPG,AFNE01.JPG,,,,,,,,,,,,,,,,,2,4,24,8,,,,,,,AFNE08.jpg,AFSA16.jpg,AFNE17.jpg,AFSA20.jpg,AFNE08.jpg,FN,3,num_8,32,num_6,0.516756398916,,,2017_Jun_26_1537,60.0125114525,FEMA4ImagesEEG,001,200716,
AFNE01.JPG,AFNE01.JPG,AFNE01.JPG,AFNE01.JPG,AFNE01.JPG,AFNE01.JPG,,,,,,,,,,,,,,,,,2,5,25,5,,,,,,,AFNE17.jpg,AFNE18.jpg,AFSA02.jpg,AFSA01.jpg,AFNE17.jpg,FN,3,num_8,32,num_2,0.700083135707,,,2017_Jun_26_1537,60.0125114525,FEMA4ImagesEEG,001,200716,
AFNE01.JPG,AFNE01.JPG,AFNE01.JPG,AFNE01.JPG,AFNE01.JPG,AFNE01.JPG,,,,,,,,,,,,,,,,,2,6,26,3,,,,,,,AFNE04.jpg,AFSA04.jpg,AFNE12.jpg,AFSA18.jpg,AFNE04.jpg,FN,3,num_8,16,num_8,2.033330297,,,2017_Jun_26_1537,60.0125114525,FEMA4ImagesEEG,001,200716,
AFNE01.JPG,AFNE01.JPG,AFNE01.JPG,AFNE01.JPG,AFNE01.JPG,AFNE01.JPG,,,,,,,,,,,,,,,,,2,7,27,1,,,,,,,AFNE15.jpg,AFSA15.jpg,AFSA09.jpg,AFNE04.jpg,AFSA09.jpg,FS,4,num_2,32,num_4,1.5334040671,,,2017_Jun_26_1537,60.0125114525,FEMA4ImagesEEG,001,200716,
AFNE01.JPG,AFNE01.JPG,AFNE01.JPG,AFNE01.JPG,AFNE01.JPG,AFNE01.JPG,,,,,,,,,,,,,,,,,2,8,28,9,,,,,,,AFSA10.jpg,AFNE07.jpg,AFNE03.jpg,AFSA20.jpg,AFSA10.jpg,FS,4,num_8,16,num_8,2.35000291873,,,2017_Jun_26_1537,60.0125114525,FEMA4ImagesEEG,001,200716,
AFNE01.JPG,AFNE01.JPG,AFNE01.JPG,AFNE01.JPG,AFNE01.JPG,AFNE01.JPG,,,,,,,,,,,,,,,,,2,9,29,4,,,,,,,AFNE04.jpg,AFSA07.jpg,AFSA10.jpg,AFNE17.jpg,AFSA07.jpg,FS,4,num_6,32,num_8,2.43332368977,,,2017_Jun_26_1537,60.0125114525,FEMA4ImagesEEG,001,200716,
AFNE01.JPG,AFNE01.JPG,AFNE01.JPG,AFNE01.JPG,AFNE01.JPG,AFNE01.JPG,,,,,,,,,,,,,,,,,3,0,30,0,,,,,,,AFSA05.jpg,AFSA02.jpg,AFNE02.jpg,AFNE18.jpg,AFSA02.jpg,FS,4,num_6,16,num_6,0.650146545922,,,2017_Jun_26_1537,60.0125114525,FEMA4ImagesEEG,001,200716,
AFNE01.JPG,AFNE01.JPG,AFNE01.JPG,AFNE01.JPG,AFNE01.JPG,AFNE01.JPG,,,,,,,,,,,,,,,,,3,1,31,7,,,,,,,AFSA01.jpg,AFNE04.jpg,AFSA06.jpg,AFNE15.jpg,AFNE15.jpg,FN,3,num_4,32,num_6,1.23355295443,,,2017_Jun_26_1537,60.0125114525,FEMA4ImagesEEG,001,200716,
AFNE01.JPG,AFNE01.JPG,AFNE01.JPG,AFNE01.JPG,AFNE01.JPG,AFNE01.JPG,,,,,,,,,,,,,,,,,3,2,32,9,,,,,,,AFSA15.jpg,AFSA12.jpg,AFNE15.jpg,AFNE08.jpg,AFSA12.jpg,FS,4,num_6,32,num_2,0.733447751838,,,2017_Jun_26_1537,60.0125114525,FEMA4ImagesEEG,001,200716,
AFNE01.JPG,AFNE01.JPG,AFNE01.JPG,AFNE01.JPG,AFNE01.JPG,AFNE01.JPG,,,,,,,,,,,,,,,,,3,3,33,4,,,,,,,AFNE06.jpg,AFSA17.jpg,AFSA10.jpg,AFNE08.jpg,AFSA10.jpg,FS,4,num_2,32,num_8,1.65008817131,,,2017_Jun_26_1537,60.0125114525,FEMA4ImagesEEG,001,200716,
AFNE01.JPG,AFNE01.JPG,AFNE01.JPG,AFNE01.JPG,AFNE01.JPG,AFNE01.JPG,,,,,,,,,,,,,,,,,3,4,34,2,,,,,,,AFSA12.jpg,AFSA20.jpg,AFNE19.jpg,AFNE07.jpg,AFSA12.jpg,FS,4,num_8,16,num_8,0.950221214101,,,2017_Jun_26_1537,60.0125114525,FEMA4ImagesEEG,001,200716,
AFNE01.JPG,AFNE01.JPG,AFNE01.JPG,AFNE01.JPG,AFNE01.JPG,AFNE01.JPG,,,,,,,,,,,,,,,,,3,5,35,6,,,,,,,AFSA01.jpg,AFSA04.jpg,AFNE10.jpg,AFNE13.jpg,AFSA04.jpg,FS,4,num_6,32,num_2,0.783460998384,,,2017_Jun_26_1537,60.0125114525,FEMA4ImagesEEG,001,200716,
AFNE01.JPG,AFNE01.JPG,AFNE01.JPG,AFNE01.JPG,AFNE01.JPG,AFNE01.JPG,,,,,,,,,,,,,,,,,3,6,36,5,,,,,,,AFNE12.jpg,AFSA11.jpg,AFNE14.jpg,AFSA09.jpg,AFSA11.jpg,FS,4,num_6,16,num_6,0.666795176334,,,2017_Jun_26_1537,60.0125114525,FEMA4ImagesEEG,001,200716,
AFNE01.JPG,AFNE01.JPG,AFNE01.JPG,AFNE01.JPG,AFNE01.JPG,AFNE01.JPG,,,,,,,,,,,,,,,,,3,7,37,8,,,,,,,AFNE08.jpg,AFNE05.jpg,AFSA11.jpg,AFSA01.jpg,AFSA11.jpg,FS,4,num_2,16,num_2,0.733594971316,,,2017_Jun_26_1537,60.0125114525,FEMA4ImagesEEG,001,200716,
AFNE01.JPG,AFNE01.JPG,AFNE01.JPG,AFNE01.JPG,AFNE01.JPG,AFNE01.JPG,,,,,,,,,,,,,,,,,3,8,38,1,,,,,,,AFNE13.jpg,AFNE03.jpg,AFSA09.jpg,AFSA08.jpg,AFSA08.jpg,FS,4,num_4,32,num_2,3.44992003962,,,2017_Jun_26_1537,60.0125114525,FEMA4ImagesEEG,001,200716,
AFNE01.JPG,AFNE01.JPG,AFNE01.JPG,AFNE01.JPG,AFNE01.JPG,AFNE01.JPG,,,,,,,,,,,,,,,,,3,9,39,3,,,,,,,AFSA07.jpg,AFNE20.jpg,AFSA04.jpg,AFNE18.jpg,AFSA04.jpg,FS,4,num_2,16,num_2,0.733487844289,,,2017_Jun_26_1537,60.0125114525,FEMA4ImagesEEG,001,200716,
AFNE01.JPG,AFNE01.JPG,AFNE01.JPG,AFNE01.JPG,AFNE01.JPG,AFNE01.JPG,,,,,,,,,,,,,,,,,4,0,40,3,,,,,,,AFSA19.jpg,AFNE12.jpg,AFSA20.jpg,AFNE04.jpg,AFNE04.jpg,FN,3,num_4,16,num_4,1.0497925777,,,2017_Jun_26_1537,60.0125114525,FEMA4ImagesEEG,001,200716,
AFNE01.JPG,AFNE01.JPG,AFNE01.JPG,AFNE01.JPG,AFNE01.JPG,AFNE01.JPG,,,,,,,,,,,,,,,,,4,1,41,9,,,,,,,AFNE11.jpg,AFNE07.jpg,AFSA19.jpg,AFSA05.jpg,AFSA19.jpg,FS,4,num_2,16,num_2,1.05009375219,,,2017_Jun_26_1537,60.0125114525,FEMA4ImagesEEG,001,200716,
AFNE01.JPG,AFNE01.JPG,AFNE01.JPG,AFNE01.JPG,AFNE01.JPG,AFNE01.JPG,,,,,,,,,,,,,,,,,4,2,42,4,,,,,,,AFNE19.jpg,AFSA20.jpg,AFSA02.jpg,AFNE04.jpg,AFSA02.jpg,FS,4,num_2,16,num_2,0.800140419797,,,2017_Jun_26_1537,60.0125114525,FEMA4ImagesEEG,001,200716,
AFNE01.JPG,AFNE01.JPG,AFNE01.JPG,AFNE01.JPG,AFNE01.JPG,AFNE01.JPG,,,,,,,,,,,,,,,,,4,3,43,7,,,,,,,AFSA11.jpg,AFSA15.jpg,AFNE15.jpg,AFNE18.jpg,AFSA15.jpg,FS,4,num_6,32,num_2,1.25039210416,,,2017_Jun_26_1537,60.0125114525,FEMA4ImagesEEG,001,200716,
AFNE01.JPG,AFNE01.JPG,AFNE01.JPG,AFNE01.JPG,AFNE01.JPG,AFNE01.JPG,,,,,,,,,,,,,,,,,4,4,44,6,,,,,,,AFSA03.jpg,AFNE20.jpg,AFSA12.jpg,AFNE19.jpg,AFNE19.jpg,FN,3,num_4,32,num_8,1.53262050026,,,2017_Jun_26_1537,60.0125114525,FEMA4ImagesEEG,001,200716,
AFNE01.JPG,AFNE01.JPG,AFNE01.JPG,AFNE01.JPG,AFNE01.JPG,AFNE01.JPG,,,,,,,,,,,,,,,,,4,5,45,8,,,,,,,AFSA12.jpg,AFNE12.jpg,AFSA20.jpg,AFNE10.jpg,AFSA12.jpg,FS,4,num_8,16,num_8,1.33348258416,,,2017_Jun_26_1537,60.0125114525,FEMA4ImagesEEG,001,200716,
AFNE01.JPG,AFNE01.JPG,AFNE01.JPG,AFNE01.JPG,AFNE01.JPG,AFNE01.JPG,,,,,,,,,,,,,,,,,4,6,46,1,,,,,,,AFNE11.jpg,AFNE12.jpg,AFSA05.jpg,AFSA07.jpg,AFNE11.jpg,FN,3,num_8,32,num_6,0.600139072689,,,2017_Jun_26_1537,60.0125114525,FEMA4ImagesEEG,001,200716,
AFNE01.JPG,AFNE01.JPG,AFNE01.JPG,AFNE01.JPG,AFNE01.JPG,AFNE01.JPG,,,,,,,,,,,,,,,,,4,7,47,0,,,,,,,AFNE20.jpg,AFSA16.jpg,AFNE15.jpg,AFSA12.jpg,AFSA12.jpg,FS,4,num_4,16,num_4,3.99989704259,,,2017_Jun_26_1537,60.0125114525,FEMA4ImagesEEG,001,200716,
AFNE01.JPG,AFNE01.JPG,AFNE01.JPG,AFNE01.JPG,AFNE01.JPG,AFNE01.JPG,,,,,,,,,,,,,,,,,4,8,48,2,,,,,,,AFNE02.jpg,AFSA17.jpg,AFSA08.jpg,AFNE17.jpg,AFNE02.jpg,FN,3,num_8,32,num_4,1.10010443281,,,2017_Jun_26_1537,60.0125114525,FEMA4ImagesEEG,001,200716,
AFNE01.JPG,AFNE01.JPG,AFNE01.JPG,AFNE01.JPG,AFNE01.JPG,AFNE01.JPG,,,,,,,,,,,,,,,,,4,9,49,5,,,,,,,AFSA03.jpg,AFNE19.jpg,AFNE06.jpg,AFSA04.jpg,AFNE06.jpg,FN,3,num_2,32,num_8,0.850111328713,,,2017_Jun_26_1537,60.0125114525,FEMA4ImagesEEG,001,200716,
AFNE01.JPG,AFNE01.JPG,AFNE01.JPG,AFNE01.JPG,AFNE01.JPG,AFNE01.JPG,,,,,,,,,,,,,,,,,5,0,50,4,,,,,,,AFNE17.jpg,AFSA08.jpg,AFSA02.jpg,AFNE14.jpg,AFSA08.jpg,FS,4,num_6,32,num_4,0.516807396514,,,2017_Jun_26_1537,60.0125114525,FEMA4ImagesEEG,001,200716,
AFNE01.JPG,AFNE01.JPG,AFNE01.JPG,AFNE01.JPG,AFNE01.JPG,AFNE01.JPG,,,,,,,,,,,,,,,,,5,1,51,2,,,,,,,AFNE20.jpg,AFNE03.jpg,AFSA19.jpg,AFSA16.jpg,AFNE03.jpg,FN,3,num_6,32,num_4,1.27327078056,,,2017_Jun_26_1537,60.0125114525,FEMA4ImagesEEG,001,200716,
AFNE01.JPG,AFNE01.JPG,AFNE01.JPG,AFNE01.JPG,AFNE01.JPG,AFNE01.JPG,,,,,,,,,,,,,,,,,5,2,52,0,,,,,,,AFSA20.jpg,AFSA10.jpg,AFNE03.jpg,AFNE04.jpg,AFNE04.jpg,FN,3,num_4,32,num_6,2.39998280836,,,2017_Jun_26_1537,60.0125114525,FEMA4ImagesEEG,001,200716,
AFNE01.JPG,AFNE01.JPG,AFNE01.JPG,AFNE01.JPG,AFNE01.JPG,AFNE01.JPG,,,,,,,,,,,,,,,,,5,3,53,5,,,,,,,AFNE01.jpg,AFNE13.jpg,AFSA04.jpg,AFSA12.jpg,AFSA04.jpg,FS,4,num_2,16,num_2,0.816775899882,,,2017_Jun_26_1537,60.0125114525,FEMA4ImagesEEG,001,200716,
AFNE01.JPG,AFNE01.JPG,AFNE01.JPG,AFNE01.JPG,AFNE01.JPG,AFNE01.JPG,,,,,,,,,,,,,,,,,5,4,54,7,,,,,,,AFSA13.jpg,AFNE19.jpg,AFSA07.jpg,AFNE01.jpg,AFNE01.jpg,FN,3,num_4,16,num_4,1.36670992375,,,2017_Jun_26_1537,60.0125114525,FEMA4ImagesEEG,001,200716,
AFNE01.JPG,AFNE01.JPG,AFNE01.JPG,AFNE01.JPG,AFNE01.JPG,AFNE01.JPG,,,,,,,,,,,,,,,,,5,5,55,9,,,,,,,AFSA12.jpg,AFSA20.jpg,AFNE14.jpg,AFNE05.jpg,AFSA12.jpg,FS,4,num_8,16,num_8,1.03346436615,,,2017_Jun_26_1537,60.0125114525,FEMA4ImagesEEG,001,200716,
AFNE01.JPG,AFNE01.JPG,AFNE01.JPG,AFNE01.JPG,AFNE01.JPG,AFNE01.JPG,,,,,,,,,,,,,,,,,5,6,56,6,,,,,,,AFNE10.jpg,AFNE07.jpg,AFSA08.jpg,AFSA06.jpg,AFNE10.jpg,FN,3,num_8,32,num_6,2.53329886452,,,2017_Jun_26_1537,60.0125114525,FEMA4ImagesEEG,001,200716,
AFNE01.JPG,AFNE01.JPG,AFNE01.JPG,AFNE01.JPG,AFNE01.JPG,AFNE01.JPG,,,,,,,,,,,,,,,,,5,7,57,3,,,,,,,AFSA20.jpg,AFNE04.jpg,AFSA19.jpg,AFNE12.jpg,AFSA19.jpg,FS,4,num_2,32,num_8,0.866752902853,,,2017_Jun_26_1537,60.0125114525,FEMA4ImagesEEG,001,200716,
AFNE01.JPG,AFNE01.JPG,AFNE01.JPG,AFNE01.JPG,AFNE01.JPG,AFNE01.JPG,,,,,,,,,,,,,,,,,5,8,58,1,,,,,,,AFNE20.jpg,AFSA06.jpg,AFNE09.jpg,AFSA04.jpg,AFSA06.jpg,FS,4,num_6,32,num_4,0.75011177775,,,2017_Jun_26_1537,60.0125114525,FEMA4ImagesEEG,001,200716,
AFNE01.JPG,AFNE01.JPG,AFNE01.JPG,AFNE01.JPG,AFNE01.JPG,AFNE01.JPG,,,,,,,,,,,,,,,,,5,9,59,8,,,,,,,AFSA08.jpg,AFNE20.jpg,AFNE11.jpg,AFSA13.jpg,AFNE20.jpg,FN,3,num_6,32,num_2,1.20003374181,,,2017_Jun_26_1537,60.0125114525,FEMA4ImagesEEG,001,200716,
,,,,,,,,,,,,,,,,,,,,,,,,,,,,,,,,,,,,,,,,,,,space,46.6464779264,2017_Jun_26_1537,60.0125114525,FEMA4ImagesEEG,001,200716,
AFNE01.JPG,AFNE01.JPG,AFNE01.JPG,AFNE01.JPG,AFNE01.JPG,AFNE01.JPG,,,,,,,,,,,,,,,,,,,,,0,0,0,4,,,AMNE10.jpg,AMSA08.jpg,AMSA19.jpg,AMNE09.jpg,AMNE10.jpg,MN,1,num_8,16,num_8,0.566780871348,,,2017_Jun_26_1537,60.0125114525,FEMA4ImagesEEG,001,200716,
AFNE01.JPG,AFNE01.JPG,AFNE01.JPG,AFNE01.JPG,AFNE01.JPG,AFNE01.JPG,,,,,,,,,,,,,,,,,,,,,0,1,1,0,,,AMSA14.jpg,AMNE06.jpg,AMNE10.jpg,AMSA03.jpg,AMSA03.jpg,MS,2,num_4,32,num_8,1.28341673632,,,2017_Jun_26_1537,60.0125114525,FEMA4ImagesEEG,001,200716,
AFNE01.JPG,AFNE01.JPG,AFNE01.JPG,AFNE01.JPG,AFNE01.JPG,AFNE01.JPG,,,,,,,,,,,,,,,,,,,,,0,2,2,6,,,AMSA02.jpg,AMNE10.jpg,AMSA12.jpg,AMNE13.jpg,AMSA12.jpg,MS,2,num_2,32,num_4,0.766848611551,,,2017_Jun_26_1537,60.0125114525,FEMA4ImagesEEG,001,200716,
AFNE01.JPG,AFNE01.JPG,AFNE01.JPG,AFNE01.JPG,AFNE01.JPG,AFNE01.JPG,,,,,,,,,,,,,,,,,,,,,0,3,3,8,,,AMSA13.jpg,AMNE04.jpg,AMNE17.jpg,AMSA20.jpg,AMSA20.jpg,MS,2,num_4,32,num_2,1.00017512382,,,2017_Jun_26_1537,60.0125114525,FEMA4ImagesEEG,001,200716,
AFNE01.JPG,AFNE01.JPG,AFNE01.JPG,AFNE01.JPG,AFNE01.JPG,AFNE01.JPG,,,,,,,,,,,,,,,,,,,,,0,4,4,5,,,AMNE14.jpg,AMSA04.jpg,AMSA13.jpg,AMNE04.jpg,AMNE04.jpg,MN,1,num_4,32,num_2,0.966809866208,,,2017_Jun_26_1537,60.0125114525,FEMA4ImagesEEG,001,200716,
AFNE01.JPG,AFNE01.JPG,AFNE01.JPG,AFNE01.JPG,AFNE01.JPG,AFNE01.JPG,,,,,,,,,,,,,,,,,,,,,0,5,5,1,,,AMNE01.jpg,AMSA16.jpg,AMSA04.jpg,AMNE07.jpg,AMSA04.jpg,MS,2,num_2,16,num_2,0.650154243674,,,2017_Jun_26_1537,60.0125114525,FEMA4ImagesEEG,001,200716,
AFNE01.JPG,AFNE01.JPG,AFNE01.JPG,AFNE01.JPG,AFNE01.JPG,AFNE01.JPG,,,,,,,,,,,,,,,,,,,,,0,6,6,7,,,AMNE15.jpg,AMSA17.jpg,AMNE13.jpg,AMSA10.jpg,AMSA17.jpg,MS,2,num_6,16,num_6,0.683464013335,,,2017_Jun_26_1537,60.0125114525,FEMA4ImagesEEG,001,200716,
AFNE01.JPG,AFNE01.JPG,AFNE01.JPG,AFNE01.JPG,AFNE01.JPG,AFNE01.JPG,,,,,,,,,,,,,,,,,,,,,0,7,7,9,,,AMSA04.jpg,AMSA16.jpg,AMNE06.jpg,AMNE02.jpg,AMSA04.jpg,MS,2,num_8,32,num_2,0.783445602883,,,2017_Jun_26_1537,60.0125114525,FEMA4ImagesEEG,001,200716,
AFNE01.JPG,AFNE01.JPG,AFNE01.JPG,AFNE01.JPG,AFNE01.JPG,AFNE01.JPG,,,,,,,,,,,,,,,,,,,,,0,8,8,3,,,AMNE18.jpg,AMSA11.jpg,AMNE06.jpg,AMSA17.jpg,AMSA17.jpg,MS,2,num_4,32,num_6,0.900204760161,,,2017_Jun_26_1537,60.0125114525,FEMA4ImagesEEG,001,200716,
AFNE01.JPG,AFNE01.JPG,AFNE01.JPG,AFNE01.JPG,AFNE01.JPG,AFNE01.JPG,,,,,,,,,,,,,,,,,,,,,0,9,9,2,,,AMNE02.jpg,AMNE01.jpg,AMSA20.jpg,AMSA11.jpg,AMNE02.jpg,MN,1,num_8,16,num_8,1.05007418707,,,2017_Jun_26_1537,60.0125114525,FEMA4ImagesEEG,001,200716,
AFNE01.JPG,AFNE01.JPG,AFNE01.JPG,AFNE01.JPG,AFNE01.JPG,AFNE01.JPG,,,,,,,,,,,,,,,,,,,,,1,0,10,5,,,AMNE18.jpg,AMNE09.jpg,AMSA03.jpg,AMSA18.jpg,AMSA03.jpg,MS,2,num_2,32,num_4,0.65014269705,,,2017_Jun_26_1537,60.0125114525,FEMA4ImagesEEG,001,200716,
AFNE01.JPG,AFNE01.JPG,AFNE01.JPG,AFNE01.JPG,AFNE01.JPG,AFNE01.JPG,,,,,,,,,,,,,,,,,,,,,1,1,11,3,,,AMSA13.jpg,AMSA04.jpg,AMNE03.jpg,AMNE15.jpg,AMNE15.jpg,MN,1,num_4,16,num_4,0.817159825183,,,2017_Jun_26_1537,60.0125114525,FEMA4ImagesEEG,001,200716,
AFNE01.JPG,AFNE01.JPG,AFNE01.JPG,AFNE01.JPG,AFNE01.JPG,AFNE01.JPG,,,,,,,,,,,,,,,,,,,,,1,2,12,2,,,AMSA17.jpg,AMNE13.jpg,AMSA06.jpg,AMNE20.jpg,AMNE20.jpg,MN,1,num_4,32,num_6,0.70014920806,,,2017_Jun_26_1537,60.0125114525,FEMA4ImagesEEG,001,200716,
AFNE01.JPG,AFNE01.JPG,AFNE01.JPG,AFNE01.JPG,AFNE01.JPG,AFNE01.JPG,,,,,,,,,,,,,,,,,,,,,1,3,13,9,,,AMSA09.jpg,AMNE08.jpg,AMSA12.jpg,AMNE04.jpg,AMSA09.jpg,MS,2,num_8,32,num_6,1.45004641102,,,2017_Jun_26_1537,60.0125114525,FEMA4ImagesEEG,001,200716,
AFNE01.JPG,AFNE01.JPG,AFNE01.JPG,AFNE01.JPG,AFNE01.JPG,AFNE01.JPG,,,,,,,,,,,,,,,,,,,,,1,4,14,1,,,AMSA04.jpg,AMNE19.jpg,AMNE16.jpg,AMSA06.jpg,AMSA06.jpg,MS,2,num_4,32,num_8,0.683460485205,,,2017_Jun_26_1537,60.0125114525,FEMA4ImagesEEG,001,200716,
AFNE01.JPG,AFNE01.JPG,AFNE01.JPG,AFNE01.JPG,AFNE01.JPG,AFNE01.JPG,,,,,,,,,,,,,,,,,,,,,1,5,15,4,,,AMSA16.jpg,AMNE18.jpg,AMSA13.jpg,AMNE01.jpg,AMNE01.jpg,MN,1,num_4,16,num_4,0.466641798655,,,2017_Jun_26_1537,60.0125114525,FEMA4ImagesEEG,001,200716,
AFNE01.JPG,AFNE01.JPG,AFNE01.JPG,AFNE01.JPG,AFNE01.JPG,AFNE01.JPG,,,,,,,,,,,,,,,,,,,,,1,6,16,8,,,AMNE12.jpg,AMSA03.jpg,AMNE17.jpg,AMSA09.jpg,AMSA03.jpg,MS,2,num_6,16,num_6,1.75007072308,,,2017_Jun_26_1537,60.0125114525,FEMA4ImagesEEG,001,200716,
AFNE01.JPG,AFNE01.JPG,AFNE01.JPG,AFNE01.JPG,AFNE01.JPG,AFNE01.JPG,,,,,,,,,,,,,,,,,,,,,1,7,17,7,,,AMSA08.jpg,AMSA14.jpg,AMNE13.jpg,AMNE02.jpg,AMSA08.jpg,MS,2,num_8,16,num_8,1.61655516689,,,2017_Jun_26_1537,60.0125114525,FEMA4ImagesEEG,001,200716,
AFNE01.JPG,AFNE01.JPG,AFNE01.JPG,AFNE01.JPG,AFNE01.JPG,AFNE01.JPG,,,,,,,,,,,,,,,,,,,,,1,8,18,6,,,AMSA16.jpg,AMNE16.jpg,AMNE20.jpg,AMSA02.jpg,AMSA02.jpg,MS,2,num_4,16,num_4,0.4834729299,,,2017_Jun_26_1537,60.0125114525,FEMA4ImagesEEG,001,200716,
AFNE01.JPG,AFNE01.JPG,AFNE01.JPG,AFNE01.JPG,AFNE01.JPG,AFNE01.JPG,,,,,,,,,,,,,,,,,,,,,1,9,19,0,,,AMSA18.jpg,AMNE08.jpg,AMNE16.jpg,AMSA05.jpg,AMSA18.jpg,MS,2,num_8,32,num_6,1.53337712498,,,2017_Jun_26_1537,60.0125114525,FEMA4ImagesEEG,001,200716,
AFNE01.JPG,AFNE01.JPG,AFNE01.JPG,AFNE01.JPG,AFNE01.JPG,AFNE01.JPG,,,,,,,,,,,,,,,,,,,,,2,0,20,2,,,AMSA15.jpg,AMSA11.jpg,AMNE17.jpg,AMNE11.jpg,AMSA15.jpg,MS,2,num_8,32,num_2,0.950114728555,,,2017_Jun_26_1537,60.0125114525,FEMA4ImagesEEG,001,200716,
AFNE01.JPG,AFNE01.JPG,AFNE01.JPG,AFNE01.JPG,AFNE01.JPG,AFNE01.JPG,,,,,,,,,,,,,,,,,,,,,2,1,21,9,,,AMNE02.jpg,AMSA18.jpg,AMNE13.jpg,AMSA17.jpg,AMNE13.jpg,MN,1,num_2,16,num_2,1.18341173278,,,2017_Jun_26_1537,60.0125114525,FEMA4ImagesEEG,001,200716,
AFNE01.JPG,AFNE01.JPG,AFNE01.JPG,AFNE01.JPG,AFNE01.JPG,AFNE01.JPG,,,,,,,,,,,,,,,,,,,,,2,2,22,3,,,AMNE03.jpg,AMSA06.jpg,AMSA16.jpg,AMNE19.jpg,AMSA06.jpg,MS,2,num_6,32,num_4,0.833480980462,,,2017_Jun_26_1537,60.0125114525,FEMA4ImagesEEG,001,200716,
AFNE01.JPG,AFNE01.JPG,AFNE01.JPG,AFNE01.JPG,AFNE01.JPG,AFNE01.JPG,,,,,,,,,,,,,,,,,,,,,2,3,23,1,,,AMSA15.jpg,AMNE04.jpg,AMSA08.jpg,AMNE12.jpg,AMSA15.jpg,MS,2,num_8,16,num_8,1.51669609987,,,2017_Jun_26_1537,60.0125114525,FEMA4ImagesEEG,001,200716,
AFNE01.JPG,AFNE01.JPG,AFNE01.JPG,AFNE01.JPG,AFNE01.JPG,AFNE01.JPG,,,,,,,,,,,,,,,,,,,,,2,4,24,6,,,AMNE18.jpg,AMSA01.jpg,AMSA08.jpg,AMNE15.jpg,AMNE15.jpg,MN,1,num_4,16,num_4,0.700130925907,,,2017_Jun_26_1537,60.0125114525,FEMA4ImagesEEG,001,200716,
AFNE01.JPG,AFNE01.JPG,AFNE01.JPG,AFNE01.JPG,AFNE01.JPG,AFNE01.JPG,,,,,,,,,,,,,,,,,,,,,2,5,25,7,,,AMSA07.jpg,AMNE13.jpg,AMNE01.jpg,AMSA01.jpg,AMSA01.jpg,MS,2,num_4,32,num_2,0.800001218809,,,2017_Jun_26_1537,60.0125114525,FEMA4ImagesEEG,001,200716,
AFNE01.JPG,AFNE01.JPG,AFNE01.JPG,AFNE01.JPG,AFNE01.JPG,AFNE01.JPG,,,,,,,,,,,,,,,,,,,,,2,6,26,5,,,AMNE17.jpg,AMNE11.jpg,AMSA04.jpg,AMSA02.jpg,AMSA02.jpg,MS,2,num_4,16,num_4,0.633472577087,,,2017_Jun_26_1537,60.0125114525,FEMA4ImagesEEG,001,200716,
AFNE01.JPG,AFNE01.JPG,AFNE01.JPG,AFNE01.JPG,AFNE01.JPG,AFNE01.JPG,,,,,,,,,,,,,,,,,,,,,2,7,27,0,,,AMSA10.jpg,AMSA03.jpg,AMNE17.jpg,AMNE05.jpg,AMNE17.jpg,MN,1,num_2,32,num_8,1.86715061996,,,2017_Jun_26_1537,60.0125114525,FEMA4ImagesEEG,001,200716,
AFNE01.JPG,AFNE01.JPG,AFNE01.JPG,AFNE01.JPG,AFNE01.JPG,AFNE01.JPG,,,,,,,,,,,,,,,,,,,,,2,8,28,8,,,AMSA13.jpg,AMSA09.jpg,AMNE16.jpg,AMNE15.jpg,AMSA09.jpg,MS,2,num_6,32,num_4,2.01672015534,,,2017_Jun_26_1537,60.0125114525,FEMA4ImagesEEG,001,200716,
AFNE01.JPG,AFNE01.JPG,AFNE01.JPG,AFNE01.JPG,AFNE01.JPG,AFNE01.JPG,,,,,,,,,,,,,,,,,,,,,2,9,29,4,,,AMSA17.jpg,AMNE13.jpg,AMSA12.jpg,AMNE04.jpg,AMNE13.jpg,MN,1,num_6,32,num_8,1.01674870116,,,2017_Jun_26_1537,60.0125114525,FEMA4ImagesEEG,001,200716,
AFNE01.JPG,AFNE01.JPG,AFNE01.JPG,AFNE01.JPG,AFNE01.JPG,AFNE01.JPG,,,,,,,,,,,,,,,,,,,,,3,0,30,7,,,AMNE17.jpg,AMSA20.jpg,AMNE15.jpg,AMSA14.jpg,AMNE15.jpg,MN,1,num_2,16,num_2,0.733437808914,,,2017_Jun_26_1537,60.0125114525,FEMA4ImagesEEG,001,200716,
AFNE01.JPG,AFNE01.JPG,AFNE01.JPG,AFNE01.JPG,AFNE01.JPG,AFNE01.JPG,,,,,,,,,,,,,,,,,,,,,3,1,31,8,,,AMNE11.jpg,AMSA12.jpg,AMSA08.jpg,AMNE09.jpg,AMSA12.jpg,MS,2,num_6,32,num_4,0.733468920655,,,2017_Jun_26_1537,60.0125114525,FEMA4ImagesEEG,001,200716,
AFNE01.JPG,AFNE01.JPG,AFNE01.JPG,AFNE01.JPG,AFNE01.JPG,AFNE01.JPG,,,,,,,,,,,,,,,,,,,,,3,2,32,0,,,AMNE17.jpg,AMSA20.jpg,AMSA19.jpg,AMNE02.jpg,AMSA20.jpg,MS,2,num_6,16,num_6,0.850071557004,,,2017_Jun_26_1537,60.0125114525,FEMA4ImagesEEG,001,200716,
AFNE01.JPG,AFNE01.JPG,AFNE01.JPG,AFNE01.JPG,AFNE01.JPG,AFNE01.JPG,,,,,,,,,,,,,,,,,,,,,3,3,33,2,,,AMNE03.jpg,AMSA03.jpg,AMSA08.jpg,AMNE07.jpg,AMNE03.jpg,MN,1,num_8,16,num_8,0.733424017111,,,2017_Jun_26_1537,60.0125114525,FEMA4ImagesEEG,001,200716,
AFNE01.JPG,AFNE01.JPG,AFNE01.JPG,AFNE01.JPG,AFNE01.JPG,AFNE01.JPG,,,,,,,,,,,,,,,,,,,,,3,4,34,4,,,AMNE02.jpg,AMSA13.jpg,AMSA01.jpg,AMNE12.jpg,AMNE12.jpg,MN,1,num_4,32,num_8,3.36628815117,,,2017_Jun_26_1537,60.0125114525,FEMA4ImagesEEG,001,200716,
AFNE01.JPG,AFNE01.JPG,AFNE01.JPG,AFNE01.JPG,AFNE01.JPG,AFNE01.JPG,,,,,,,,,,,,,,,,,,,,,3,5,35,5,,,AMSA01.jpg,AMSA16.jpg,AMNE11.jpg,AMNE01.jpg,AMSA16.jpg,MS,2,num_6,16,num_6,1.08343399211,,,2017_Jun_26_1537,60.0125114525,FEMA4ImagesEEG,001,200716,
AFNE01.JPG,AFNE01.JPG,AFNE01.JPG,AFNE01.JPG,AFNE01.JPG,AFNE01.JPG,,,,,,,,,,,,,,,,,,,,,3,6,36,1,,,AMNE03.jpg,AMSA19.jpg,AMNE10.jpg,AMSA20.jpg,AMSA19.jpg,MS,2,num_6,32,num_4,0.383494227008,,,2017_Jun_26_1537,60.0125114525,FEMA4ImagesEEG,001,200716,
AFNE01.JPG,AFNE01.JPG,AFNE01.JPG,AFNE01.JPG,AFNE01.JPG,AFNE01.JPG,,,,,,,,,,,,,,,,,,,,,3,7,37,9,,,AMNE15.jpg,AMSA10.jpg,AMNE13.jpg,AMSA08.jpg,AMNE13.jpg,MN,1,num_2,32,num_8,0.600259991519,,,2017_Jun_26_1537,60.0125114525,FEMA4ImagesEEG,001,200716,
AFNE01.JPG,AFNE01.JPG,AFNE01.JPG,AFNE01.JPG,AFNE01.JPG,AFNE01.JPG,,,,,,,,,,,,,,,,,,,,,3,8,38,6,,,AMSA13.jpg,AMNE02.jpg,AMSA05.jpg,AMNE11.jpg,AMNE11.jpg,MN,1,num_4,32,num_8,1.11671265003,,,2017_Jun_26_1537,60.0125114525,FEMA4ImagesEEG,001,200716,
