IPosition2,IPosition3,IPosition1,IPosition6,IPosition4,IPosition5,TrialsM1.thisRepN,TrialsM1.thisTrialN,TrialsM1.thisN,TrialsM1.thisIndex,TrialsF1.thisRepN,TrialsF1.thisTrialN,TrialsF1.thisN,TrialsF1.thisIndex,TrialsM2.thisRepN,TrialsM2.thisTrialN,TrialsM2.thisN,TrialsM2.thisIndex,TrialsF2.thisRepN,TrialsF2.thisTrialN,TrialsF2.thisN,TrialsF2.thisIndex,TrialsM3.thisRepN,TrialsM3.thisTrialN,TrialsM3.thisN,TrialsM3.thisIndex,TrialsF3.thisRepN,TrialsF3.thisTrialN,TrialsF3.thisN,TrialsF3.thisIndex,InstrKey_resp.keys,InstrKey_resp.rt,Image0 _Position,Image1 _Position,Image2 _Position,Image3 _Position,Center_image,condition,code,correct_answer,accuracy,Key_Resp.keys,Key_Resp.rt,BreakKey_resp.keys,BreakKey_resp.rt,date,frameRate,expName,session,participant,
,,,,,,,,,,,,,,,,,,,,,,,,,,,,,,space,6.78308673772,,,,,,,,,,,,,,2017_Jun_23_1551,60.0064283179,MAFE4ImagesEEG,001,200726,
AFSA25.JPG,AFNE24.JPG,AFSA24.JPG,AFNE21.JPG,AFSA21.JPG,AFNE25.JPG,0,0,0,2,,,,,,,,,,,,,,,,,,,,,,,AMSA20.jpg,AMSA15.jpg,AMNE11.jpg,AMNE04.jpg,AMNE11.jpg,MN,1,num_2,32,num_8,1.50045769599,,,2017_Jun_23_1551,60.0064283179,MAFE4ImagesEEG,001,200726,
AMSA21.JPG,AMNE22.JPG,AMNE21.JPG,AMSA23.JPG,AMSA22.JPG,AMNE23.JPG,0,1,1,1,,,,,,,,,,,,,,,,,,,,,,,AMNE16.jpg,AMNE11.jpg,AMSA12.jpg,AMSA19.jpg,AMSA12.jpg,MS,2,num_2,16,num_2,2.78332376458,,,2017_Jun_23_1551,60.0064283179,MAFE4ImagesEEG,001,200726,
AMNE23.JPG,AMNE24.JPG,AMNE22.JPG,AMSA24.JPG,AMSA22.JPG,AMSA23.JPG,0,2,2,9,,,,,,,,,,,,,,,,,,,,,,,AMSA06.jpg,AMSA17.jpg,AMNE16.jpg,AMNE04.jpg,AMNE04.jpg,MN,1,num_4,32,num_2,1.78344789098,,,2017_Jun_23_1551,60.0064283179,MAFE4ImagesEEG,001,200726,
AMNE22.JPG,AMSA24.JPG,AMSA22.JPG,AMNE25.JPG,AMNE24.JPG,AMSA25.JPG,0,3,3,7,,,,,,,,,,,,,,,,,,,,,,,AMNE01.jpg,AMSA04.jpg,AMNE03.jpg,AMSA02.jpg,AMNE03.jpg,MN,1,num_2,32,num_8,0.983495681241,,,2017_Jun_23_1551,60.0064283179,MAFE4ImagesEEG,001,200726,
AMSA25.JPG,AMNE24.JPG,AMSA24.JPG,AMNE26.JPG,AMSA21.JPG,AMNE25.JPG,0,4,4,3,,,,,,,,,,,,,,,,,,,,,,,AMNE05.jpg,AMSA05.jpg,AMSA11.jpg,AMNE03.jpg,AMSA11.jpg,MS,2,num_2,16,num_2,1.20011963602,,,2017_Jun_23_1551,60.0064283179,MAFE4ImagesEEG,001,200726,
AFNE23.JPG,AFNE24.JPG,AFNE22.JPG,AFSA24.JPG,AFSA22.JPG,AFSA23.JPG,0,5,5,8,,,,,,,,,,,,,,,,,,,,,,,AMNE19.jpg,AMSA03.jpg,AMNE16.jpg,AMSA08.jpg,AMNE16.jpg,MN,1,num_2,32,num_8,1.36678223999,,,2017_Jun_23_1551,60.0064283179,MAFE4ImagesEEG,001,200726,
AFSA21.JPG,AFNE23.JPG,AFNE21.JPG,AFSA25.JPG,AFNE25.JPG,AFSA23.JPG,0,6,6,4,,,,,,,,,,,,,,,,,,,,,,,AMSA18.jpg,AMNE05.jpg,AMNE09.jpg,AMSA06.jpg,AMNE05.jpg,MN,1,num_6,16,num_6,1.21682794543,,,2017_Jun_23_1551,60.0064283179,MAFE4ImagesEEG,001,200726,
AFNE22.JPG,AFSA24.JPG,AFSA22.JPG,AFNE25.JPG,AFNE24.JPG,AFSA25.JPG,0,7,7,6,,,,,,,,,,,,,,,,,,,,,,,AMNE10.jpg,AMNE13.jpg,AMSA11.jpg,AMSA19.jpg,AMSA19.jpg,MS,2,num_4,32,num_2,1.08347515388,,,2017_Jun_23_1551,60.0064283179,MAFE4ImagesEEG,001,200726,
AMSA21.JPG,AMNE23.JPG,AMNE21.JPG,AMSA25.JPG,AMNE25.JPG,AMSA23.JPG,0,8,8,5,,,,,,,,,,,,,,,,,,,,,,,AMSA13.jpg,AMNE07.jpg,AMSA11.jpg,AMNE12.jpg,AMSA11.jpg,MS,2,num_2,32,num_8,1.03350482232,,,2017_Jun_23_1551,60.0064283179,MAFE4ImagesEEG,001,200726,
AFSA21.JPG,AFNE22.JPG,AFNE21.JPG,AFSA23.JPG,AFSA22.JPG,AFNE23.JPG,0,9,9,0,,,,,,,,,,,,,,,,,,,,,,,AMNE09.jpg,AMSA03.jpg,AMSA02.jpg,AMNE15.jpg,AMSA02.jpg,MS,2,num_2,16,num_2,1.116729799,,,2017_Jun_23_1551,60.0064283179,MAFE4ImagesEEG,001,200726,
AFNE23.JPG,AFNE24.JPG,AFNE22.JPG,AFSA24.JPG,AFSA22.JPG,AFSA23.JPG,,,,,0,0,0,8,,,,,,,,,,,,,,,,,,,AFNE11.jpg,AFSA19.jpg,AFNE19.jpg,AFSA18.jpg,AFNE11.jpg,FN,3,num_8,32,num_6,1.85035361587,,,2017_Jun_23_1551,60.0064283179,MAFE4ImagesEEG,001,200726,
AFNE22.JPG,AFSA24.JPG,AFSA22.JPG,AFNE25.JPG,AFNE24.JPG,AFSA25.JPG,,,,,0,1,1,6,,,,,,,,,,,,,,,,,,,AFNE12.jpg,AFNE10.jpg,AFSA07.jpg,AFSA09.jpg,AFNE12.jpg,FN,3,num_8,16,num_8,1.13345574911,,,2017_Jun_23_1551,60.0064283179,MAFE4ImagesEEG,001,200726,
AMSA21.JPG,AMNE22.JPG,AMNE21.JPG,AMSA23.JPG,AMSA22.JPG,AMNE23.JPG,,,,,0,2,2,1,,,,,,,,,,,,,,,,,,,AFNE06.jpg,AFSA09.jpg,AFNE15.jpg,AFSA11.jpg,AFNE15.jpg,FN,3,num_2,32,num_8,0.85016951109,,,2017_Jun_23_1551,60.0064283179,MAFE4ImagesEEG,001,200726,
AMNE23.JPG,AMNE24.JPG,AMNE22.JPG,AMSA24.JPG,AMSA22.JPG,AMSA23.JPG,,,,,0,3,3,9,,,,,,,,,,,,,,,,,,,AFNE16.jpg,AFNE20.jpg,AFSA15.jpg,AFSA02.jpg,AFSA15.jpg,FS,4,num_2,16,num_2,0.783467135378,,,2017_Jun_23_1551,60.0064283179,MAFE4ImagesEEG,001,200726,
AFSA25.JPG,AFNE24.JPG,AFSA24.JPG,AFNE21.JPG,AFSA21.JPG,AFNE25.JPG,,,,,0,4,4,2,,,,,,,,,,,,,,,,,,,AFSA13.jpg,AFSA03.jpg,AFNE15.jpg,AFNE17.jpg,AFNE17.jpg,FN,3,num_4,32,num_8,1.01676219373,,,2017_Jun_23_1551,60.0064283179,MAFE4ImagesEEG,001,200726,
AMNE22.JPG,AMSA24.JPG,AMSA22.JPG,AMNE25.JPG,AMNE24.JPG,AMSA25.JPG,,,,,0,5,5,7,,,,,,,,,,,,,,,,,,,AFSA10.jpg,AFNE04.jpg,AFSA13.jpg,AFNE09.jpg,AFNE09.jpg,FN,3,num_4,16,num_4,0.91674904339,,,2017_Jun_23_1551,60.0064283179,MAFE4ImagesEEG,001,200726,
AFSA21.JPG,AFNE22.JPG,AFNE21.JPG,AFSA23.JPG,AFSA22.JPG,AFNE23.JPG,,,,,0,6,6,0,,,,,,,,,,,,,,,,,,,AFSA05.jpg,AFSA19.jpg,AFNE05.jpg,AFNE15.jpg,AFNE05.jpg,FN,3,num_2,32,num_8,0.733525028947,,,2017_Jun_23_1551,60.0064283179,MAFE4ImagesEEG,001,200726,
AMSA25.JPG,AMNE24.JPG,AMSA24.JPG,AMNE26.JPG,AMSA21.JPG,AMNE25.JPG,,,,,0,7,7,3,,,,,,,,,,,,,,,,,,,AFNE19.jpg,AFSA09.jpg,AFSA07.jpg,AFNE12.jpg,AFNE19.jpg,FN,3,num_8,16,num_8,0.700139201159,,,2017_Jun_23_1551,60.0064283179,MAFE4ImagesEEG,001,200726,
AFSA21.JPG,AFNE23.JPG,AFNE21.JPG,AFSA25.JPG,AFNE25.JPG,AFSA23.JPG,,,,,0,8,8,4,,,,,,,,,,,,,,,,,,,AFNE09.jpg,AFNE04.jpg,AFSA01.jpg,AFSA20.jpg,AFNE04.jpg,FN,3,num_6,32,num_8,0.916760269291,,,2017_Jun_23_1551,60.0064283179,MAFE4ImagesEEG,001,200726,
AMSA21.JPG,AMNE23.JPG,AMNE21.JPG,AMSA25.JPG,AMNE25.JPG,AMSA23.JPG,,,,,0,9,9,5,,,,,,,,,,,,,,,,,,,AFNE14.jpg,AFNE17.jpg,AFSA11.jpg,AFSA18.jpg,AFNE14.jpg,FN,3,num_8,16,num_8,0.783482530896,,,2017_Jun_23_1551,60.0064283179,MAFE4ImagesEEG,001,200726,
AMSA21.JPG,AMNE23.JPG,AMNE21.JPG,AMSA25.JPG,AMNE25.JPG,AMSA23.JPG,,,,,,,,,0,0,0,5,,,,,,,,,,,,,,,AMSA06.jpg,AMNE01.jpg,AMNE13.jpg,AMSA17.jpg,AMNE13.jpg,MN,1,num_2,16,num_2,1.33356672515,,,2017_Jun_23_1551,60.0064283179,MAFE4ImagesEEG,001,200726,
AFNE23.JPG,AFNE24.JPG,AFNE22.JPG,AFSA24.JPG,AFSA22.JPG,AFSA23.JPG,,,,,,,,,0,1,1,8,,,,,,,,,,,,,,,AMSA11.jpg,AMNE19.jpg,AMSA06.jpg,AMNE10.jpg,AMSA06.jpg,MS,2,num_2,16,num_2,1.01673525159,,,2017_Jun_23_1551,60.0064283179,MAFE4ImagesEEG,001,200726,
AFSA21.JPG,AFNE23.JPG,AFNE21.JPG,AFSA25.JPG,AFNE25.JPG,AFSA23.JPG,,,,,,,,,0,2,2,4,,,,,,,,,,,,,,,AMNE20.jpg,AMSA09.jpg,AMSA20.jpg,AMNE06.jpg,AMNE20.jpg,MN,1,num_8,16,num_8,0.966777749636,,,2017_Jun_23_1551,60.0064283179,MAFE4ImagesEEG,001,200726,
AMNE23.JPG,AMNE24.JPG,AMNE22.JPG,AMSA24.JPG,AMSA22.JPG,AMSA23.JPG,,,,,,,,,0,3,3,9,,,,,,,,,,,,,,,AMNE15.jpg,AMSA16.jpg,AMNE19.jpg,AMSA07.jpg,AMNE19.jpg,MN,1,num_2,32,num_8,0.90012797527,,,2017_Jun_23_1551,60.0064283179,MAFE4ImagesEEG,001,200726,
AMSA25.JPG,AMNE24.JPG,AMSA24.JPG,AMNE26.JPG,AMSA21.JPG,AMNE25.JPG,,,,,,,,,0,4,4,3,,,,,,,,,,,,,,,AMSA15.jpg,AMNE13.jpg,AMNE01.jpg,AMSA10.jpg,AMNE01.jpg,MN,1,num_2,32,num_6,1.34997514266,,,2017_Jun_23_1551,60.0064283179,MAFE4ImagesEEG,001,200726,
AMNE22.JPG,AMSA24.JPG,AMSA22.JPG,AMNE25.JPG,AMNE24.JPG,AMSA25.JPG,,,,,,,,,0,5,5,7,,,,,,,,,,,,,,,AMSA02.jpg,AMNE01.jpg,AMNE18.jpg,AMSA11.jpg,AMNE18.jpg,MN,1,num_2,16,num_2,1.1335102749,,,2017_Jun_23_1551,60.0064283179,MAFE4ImagesEEG,001,200726,
AMSA21.JPG,AMNE22.JPG,AMNE21.JPG,AMSA23.JPG,AMSA22.JPG,AMNE23.JPG,,,,,,,,,0,6,6,1,,,,,,,,,,,,,,,AMSA04.jpg,AMNE18.jpg,AMSA18.jpg,AMNE04.jpg,AMNE18.jpg,MN,1,num_6,16,num_6,1.16673284602,,,2017_Jun_23_1551,60.0064283179,MAFE4ImagesEEG,001,200726,
AFNE22.JPG,AFSA24.JPG,AFSA22.JPG,AFNE25.JPG,AFNE24.JPG,AFSA25.JPG,,,,,,,,,0,7,7,6,,,,,,,,,,,,,,,AMSA03.jpg,AMNE17.jpg,AMNE11.jpg,AMSA13.jpg,AMSA13.jpg,MS,2,num_4,32,num_8,2.61665250064,,,2017_Jun_23_1551,60.0064283179,MAFE4ImagesEEG,001,200726,
AFSA25.JPG,AFNE24.JPG,AFSA24.JPG,AFNE21.JPG,AFSA21.JPG,AFNE25.JPG,,,,,,,,,0,8,8,2,,,,,,,,,,,,,,,AMNE18.jpg,AMSA14.jpg,AMNE05.jpg,AMSA06.jpg,AMSA06.jpg,MS,2,num_4,16,num_4,1.35004249804,,,2017_Jun_23_1551,60.0064283179,MAFE4ImagesEEG,001,200726,
AFSA21.JPG,AFNE22.JPG,AFNE21.JPG,AFSA23.JPG,AFSA22.JPG,AFNE23.JPG,,,,,,,,,0,9,9,0,,,,,,,,,,,,,,,AMNE14.jpg,AMNE20.jpg,AMSA15.jpg,AMSA08.jpg,AMSA15.jpg,MS,2,num_2,16,num_2,0.78358099809,,,2017_Jun_23_1551,60.0064283179,MAFE4ImagesEEG,001,200726,
AMSA21.JPG,AMNE22.JPG,AMNE21.JPG,AMSA23.JPG,AMSA22.JPG,AMNE23.JPG,,,,,,,,,,,,,0,0,0,1,,,,,,,,,,,AFNE13.jpg,AFSA04.jpg,AFSA01.jpg,AFNE11.jpg,AFSA04.jpg,FS,4,num_6,16,num_6,0.866881669383,,,2017_Jun_23_1551,60.0064283179,MAFE4ImagesEEG,001,200726,
AFNE23.JPG,AFNE24.JPG,AFNE22.JPG,AFSA24.JPG,AFSA22.JPG,AFSA23.JPG,,,,,,,,,,,,,0,1,1,8,,,,,,,,,,,AFSA15.jpg,AFSA10.jpg,AFNE14.jpg,AFNE20.jpg,AFNE14.jpg,FN,3,num_2,32,num_4,1.31677085371,,,2017_Jun_23_1551,60.0064283179,MAFE4ImagesEEG,001,200726,
AMNE22.JPG,AMSA24.JPG,AMSA22.JPG,AMNE25.JPG,AMNE24.JPG,AMSA25.JPG,,,,,,,,,,,,,0,2,2,7,,,,,,,,,,,AFNE04.jpg,AFSA13.jpg,AFNE08.jpg,AFSA07.jpg,AFNE04.jpg,FN,3,num_8,16,num_8,2.13336947004,,,2017_Jun_23_1551,60.0064283179,MAFE4ImagesEEG,001,200726,
AFSA21.JPG,AFNE22.JPG,AFNE21.JPG,AFSA23.JPG,AFSA22.JPG,AFNE23.JPG,,,,,,,,,,,,,0,3,3,0,,,,,,,,,,,AFSA08.jpg,AFSA09.jpg,AFNE06.jpg,AFNE17.jpg,AFSA09.jpg,FS,4,num_6,16,num_6,1.08345719244,,,2017_Jun_23_1551,60.0064283179,MAFE4ImagesEEG,001,200726,
AFSA25.JPG,AFNE24.JPG,AFSA24.JPG,AFNE21.JPG,AFSA21.JPG,AFNE25.JPG,,,,,,,,,,,,,0,4,4,2,,,,,,,,,,,AFSA07.jpg,AFSA09.jpg,AFNE04.jpg,AFNE02.jpg,AFSA07.jpg,FS,4,num_8,16,num_8,0.883440834688,,,2017_Jun_23_1551,60.0064283179,MAFE4ImagesEEG,001,200726,
AMSA25.JPG,AMNE24.JPG,AMSA24.JPG,AMNE26.JPG,AMSA21.JPG,AMNE25.JPG,,,,,,,,,,,,,0,5,5,3,,,,,,,,,,,AFNE09.jpg,AFNE12.jpg,AFSA01.jpg,AFSA12.jpg,AFSA01.jpg,FS,4,num_2,16,num_2,1.28346456945,,,2017_Jun_23_1551,60.0064283179,MAFE4ImagesEEG,001,200726,
AFSA21.JPG,AFNE23.JPG,AFNE21.JPG,AFSA25.JPG,AFNE25.JPG,AFSA23.JPG,,,,,,,,,,,,,0,6,6,4,,,,,,,,,,,AFNE20.jpg,AFNE07.jpg,AFSA17.jpg,AFSA15.jpg,AFSA17.jpg,FS,4,num_2,32,num_4,0.833476917949,,,2017_Jun_23_1551,60.0064283179,MAFE4ImagesEEG,001,200726,
AFNE22.JPG,AFSA24.JPG,AFSA22.JPG,AFNE25.JPG,AFNE24.JPG,AFSA25.JPG,,,,,,,,,,,,,0,7,7,6,,,,,,,,,,,AFNE02.jpg,AFSA08.jpg,AFSA19.jpg,AFNE05.jpg,AFSA08.jpg,FS,4,num_6,32,num_2,1.94989495765,,,2017_Jun_23_1551,60.0064283179,MAFE4ImagesEEG,001,200726,
AMSA21.JPG,AMNE23.JPG,AMNE21.JPG,AMSA25.JPG,AMNE25.JPG,AMSA23.JPG,,,,,,,,,,,,,0,8,8,5,,,,,,,,,,,AFSA14.jpg,AFSA18.jpg,AFNE12.jpg,AFNE06.jpg,AFSA18.jpg,FS,4,num_6,32,num_4,1.10012637156,,,2017_Jun_23_1551,60.0064283179,MAFE4ImagesEEG,001,200726,
AMNE23.JPG,AMNE24.JPG,AMNE22.JPG,AMSA24.JPG,AMSA22.JPG,AMSA23.JPG,,,,,,,,,,,,,0,9,9,9,,,,,,,,,,,AFSA05.jpg,AFNE10.jpg,AFNE05.jpg,AFSA12.jpg,AFNE10.jpg,FN,3,num_6,32,num_2,2.06637522091,,,2017_Jun_23_1551,60.0064283179,MAFE4ImagesEEG,001,200726,
AFSA25.JPG,AFNE24.JPG,AFSA24.JPG,AFNE21.JPG,AFSA21.JPG,AFNE25.JPG,,,,,,,,,,,,,,,,,0,0,0,2,,,,,,,AMNE02.jpg,AMNE11.jpg,AMSA05.jpg,AMSA01.jpg,AMSA05.jpg,MS,2,num_2,16,num_2,1.03345190022,,,2017_Jun_23_1551,60.0064283179,MAFE4ImagesEEG,001,200726,
AMNE23.JPG,AMNE24.JPG,AMNE22.JPG,AMSA24.JPG,AMSA22.JPG,AMSA23.JPG,,,,,,,,,,,,,,,,,0,1,1,9,,,,,,,AMNE12.jpg,AMSA16.jpg,AMSA03.jpg,AMNE08.jpg,AMSA03.jpg,MS,2,num_2,32,num_6,0.766808219923,,,2017_Jun_23_1551,60.0064283179,MAFE4ImagesEEG,001,200726,
AMSA25.JPG,AMNE24.JPG,AMSA24.JPG,AMNE26.JPG,AMSA21.JPG,AMNE25.JPG,,,,,,,,,,,,,,,,,0,2,2,3,,,,,,,AMSA01.jpg,AMSA20.jpg,AMNE15.jpg,AMNE06.jpg,AMSA01.jpg,MS,2,num_8,16,num_8,0.86677550443,,,2017_Jun_23_1551,60.0064283179,MAFE4ImagesEEG,001,200726,
AFSA21.JPG,AFNE23.JPG,AFNE21.JPG,AFSA25.JPG,AFNE25.JPG,AFSA23.JPG,,,,,,,,,,,,,,,,,0,3,3,4,,,,,,,AMNE10.jpg,AMSA08.jpg,AMNE17.jpg,AMSA02.jpg,AMNE10.jpg,MN,1,num_8,32,num_6,1.08342768435,,,2017_Jun_23_1551,60.0064283179,MAFE4ImagesEEG,001,200726,
AFNE23.JPG,AFNE24.JPG,AFNE22.JPG,AFSA24.JPG,AFSA22.JPG,AFSA23.JPG,,,,,,,,,,,,,,,,,0,4,4,8,,,,,,,AMSA07.jpg,AMSA12.jpg,AMNE14.jpg,AMNE11.jpg,AMNE14.jpg,MN,1,num_2,16,num_2,0.96679827699,,,2017_Jun_23_1551,60.0064283179,MAFE4ImagesEEG,001,200726,
AMSA21.JPG,AMNE22.JPG,AMNE21.JPG,AMSA23.JPG,AMSA22.JPG,AMNE23.JPG,,,,,,,,,,,,,,,,,0,5,5,1,,,,,,,AMSA14.jpg,AMNE12.jpg,AMSA05.jpg,AMNE19.jpg,AMSA14.jpg,MS,2,num_8,32,num_2,0.916630690335,,,2017_Jun_23_1551,60.0064283179,MAFE4ImagesEEG,001,200726,
AMSA21.JPG,AMNE23.JPG,AMNE21.JPG,AMSA25.JPG,AMNE25.JPG,AMSA23.JPG,,,,,,,,,,,,,,,,,0,6,6,5,,,,,,,AMSA01.jpg,AMNE03.jpg,AMNE08.jpg,AMSA12.jpg,AMNE08.jpg,MN,1,num_2,32,num_6,1.05012653195,,,2017_Jun_23_1551,60.0064283179,MAFE4ImagesEEG,001,200726,
AMNE22.JPG,AMSA24.JPG,AMSA22.JPG,AMNE25.JPG,AMNE24.JPG,AMSA25.JPG,,,,,,,,,,,,,,,,,0,7,7,7,,,,,,,AMNE09.jpg,AMSA18.jpg,AMNE11.jpg,AMSA13.jpg,AMSA13.jpg,MS,2,num_4,32,num_2,1.38344532506,,,2017_Jun_23_1551,60.0064283179,MAFE4ImagesEEG,001,200726,
AFSA21.JPG,AFNE22.JPG,AFNE21.JPG,AFSA23.JPG,AFSA22.JPG,AFNE23.JPG,,,,,,,,,,,,,,,,,0,8,8,0,,,,,,,AMSA02.jpg,AMNE04.jpg,AMNE12.jpg,AMSA09.jpg,AMNE04.jpg,MN,1,num_6,16,num_6,0.933455749109,,,2017_Jun_23_1551,60.0064283179,MAFE4ImagesEEG,001,200726,
AFNE22.JPG,AFSA24.JPG,AFSA22.JPG,AFNE25.JPG,AFNE24.JPG,AFSA25.JPG,,,,,,,,,,,,,,,,,0,9,9,6,,,,,,,AMSA01.jpg,AMNE06.jpg,AMNE15.jpg,AMSA16.jpg,AMSA16.jpg,MS,2,num_4,32,num_6,1.03343490101,,,2017_Jun_23_1551,60.0064283179,MAFE4ImagesEEG,001,200726,
AMNE23.JPG,AMNE24.JPG,AMNE22.JPG,AMSA24.JPG,AMSA22.JPG,AMSA23.JPG,,,,,,,,,,,,,,,,,,,,,0,0,0,9,,,AFSA16.jpg,AFNE17.jpg,AFNE14.jpg,AFSA17.jpg,AFSA17.jpg,FS,4,num_4,32,num_6,1.06637201351,,,2017_Jun_23_1551,60.0064283179,MAFE4ImagesEEG,001,200726,
AFNE23.JPG,AFNE24.JPG,AFNE22.JPG,AFSA24.JPG,AFSA22.JPG,AFSA23.JPG,,,,,,,,,,,,,,,,,,,,,0,1,1,8,,,AFSA14.jpg,AFNE20.jpg,AFSA03.jpg,AFNE17.jpg,AFNE20.jpg,FN,3,num_6,16,num_6,1.36676427854,,,2017_Jun_23_1551,60.0064283179,MAFE4ImagesEEG,001,200726,
AFSA21.JPG,AFNE22.JPG,AFNE21.JPG,AFSA23.JPG,AFSA22.JPG,AFNE23.JPG,,,,,,,,,,,,,,,,,,,,,0,2,2,0,,,AFSA02.jpg,AFSA01.jpg,AFNE09.jpg,AFNE20.jpg,AFNE20.jpg,FN,3,num_4,16,num_4,0.933470503136,,,2017_Jun_23_1551,60.0064283179,MAFE4ImagesEEG,001,200726,
AMSA25.JPG,AMNE24.JPG,AMSA24.JPG,AMNE26.JPG,AMSA21.JPG,AMNE25.JPG,,,,,,,,,,,,,,,,,,,,,0,3,3,3,,,AFSA12.jpg,AFNE15.jpg,AFSA06.jpg,AFNE05.jpg,AFSA06.jpg,FS,4,num_2,16,num_2,2.63372420848,,,2017_Jun_23_1551,60.0064283179,MAFE4ImagesEEG,001,200726,
AMNE22.JPG,AMSA24.JPG,AMSA22.JPG,AMNE25.JPG,AMNE24.JPG,AMSA25.JPG,,,,,,,,,,,,,,,,,,,,,0,4,4,7,,,AFSA13.jpg,AFNE05.jpg,AFNE08.jpg,AFSA12.jpg,AFSA13.jpg,FS,4,num_8,32,num_4,0.983456550952,,,2017_Jun_23_1551,60.0064283179,MAFE4ImagesEEG,001,200726,
AFSA25.JPG,AFNE24.JPG,AFSA24.JPG,AFNE21.JPG,AFSA21.JPG,AFNE25.JPG,,,,,,,,,,,,,,,,,,,,,0,5,5,2,,,AFSA20.jpg,AFNE02.jpg,AFNE06.jpg,AFSA14.jpg,AFSA20.jpg,FS,4,num_8,32,num_4,0.850137437097,,,2017_Jun_23_1551,60.0064283179,MAFE4ImagesEEG,001,200726,
AFNE22.JPG,AFSA24.JPG,AFSA22.JPG,AFNE25.JPG,AFNE24.JPG,AFSA25.JPG,,,,,,,,,,,,,,,,,,,,,0,6,6,6,,,AFNE08.jpg,AFSA12.jpg,AFSA03.jpg,AFNE09.jpg,AFSA12.jpg,FS,4,num_6,32,num_2,0.666921441152,,,2017_Jun_23_1551,60.0064283179,MAFE4ImagesEEG,001,200726,
AFSA21.JPG,AFNE23.JPG,AFNE21.JPG,AFSA25.JPG,AFNE25.JPG,AFSA23.JPG,,,,,,,,,,,,,,,,,,,,,0,7,7,4,,,AFSA07.jpg,AFNE17.jpg,AFNE04.jpg,AFSA08.jpg,AFNE04.jpg,FN,3,num_2,32,num_4,1.0000256592,,,2017_Jun_23_1551,60.0064283179,MAFE4ImagesEEG,001,200726,
AMSA21.JPG,AMNE22.JPG,AMNE21.JPG,AMSA23.JPG,AMSA22.JPG,AMNE23.JPG,,,,,,,,,,,,,,,,,,,,,0,8,8,1,,,AFSA15.jpg,AFNE02.jpg,AFNE12.jpg,AFSA07.jpg,AFSA15.jpg,FS,4,num_8,32,num_2,1.15010632531,,,2017_Jun_23_1551,60.0064283179,MAFE4ImagesEEG,001,200726,
AMSA21.JPG,AMNE23.JPG,AMNE21.JPG,AMSA25.JPG,AMNE25.JPG,AMSA23.JPG,,,,,,,,,,,,,,,,,,,,,0,9,9,5,,,AFNE18.jpg,AFNE13.jpg,AFSA12.jpg,AFSA06.jpg,AFNE18.jpg,FN,3,num_8,32,num_6,0.950127173419,,,2017_Jun_23_1551,60.0064283179,MAFE4ImagesEEG,001,200726,
,,,,,,,,,,,,,,,,,,,,,,,,,,,,,,,,,,,,,,,,,,,space,2.16665907581,2017_Jun_23_1551,60.0064283179,MAFE4ImagesEEG,001,200726,
AFNE01.JPG,AFNE01.JPG,AFNE01.JPG,AFNE01.JPG,AFNE01.JPG,AFNE01.JPG,0,0,0,2,,,,,,,,,,,,,,,,,,,,,,,AMSA07.jpg,AMNE14.jpg,AMNE13.jpg,AMSA12.jpg,AMNE14.jpg,MN,1,num_6,32,num_2,1.10011803232,,,2017_Jun_23_1551,60.0064283179,MAFE4ImagesEEG,001,200726,
AFNE01.JPG,AFNE01.JPG,AFNE01.JPG,AFNE01.JPG,AFNE01.JPG,AFNE01.JPG,0,1,1,7,,,,,,,,,,,,,,,,,,,,,,,AMSA19.jpg,AMNE18.jpg,AMSA06.jpg,AMNE14.jpg,AMSA19.jpg,MS,2,num_8,32,num_2,1.11679009812,,,2017_Jun_23_1551,60.0064283179,MAFE4ImagesEEG,001,200726,
AFNE01.JPG,AFNE01.JPG,AFNE01.JPG,AFNE01.JPG,AFNE01.JPG,AFNE01.JPG,0,2,2,9,,,,,,,,,,,,,,,,,,,,,,,AMSA19.jpg,AMNE13.jpg,AMSA08.jpg,AMNE06.jpg,AMNE06.jpg,MN,1,num_4,32,num_6,1.00013567302,,,2017_Jun_23_1551,60.0064283179,MAFE4ImagesEEG,001,200726,
AFNE01.JPG,AFNE01.JPG,AFNE01.JPG,AFNE01.JPG,AFNE01.JPG,AFNE01.JPG,0,3,3,0,,,,,,,,,,,,,,,,,,,,,,,AMNE15.jpg,AMNE12.jpg,AMSA10.jpg,AMSA13.jpg,AMNE12.jpg,MN,1,num_6,32,num_8,1.25020543397,,,2017_Jun_23_1551,60.0064283179,MAFE4ImagesEEG,001,200726,
AFNE01.JPG,AFNE01.JPG,AFNE01.JPG,AFNE01.JPG,AFNE01.JPG,AFNE01.JPG,0,4,4,3,,,,,,,,,,,,,,,,,,,,,,,AMSA07.jpg,AMNE06.jpg,AMNE09.jpg,AMSA03.jpg,AMSA07.jpg,MS,2,num_8,32,num_4,1.76672963862,,,2017_Jun_23_1551,60.0064283179,MAFE4ImagesEEG,001,200726,
AFNE01.JPG,AFNE01.JPG,AFNE01.JPG,AFNE01.JPG,AFNE01.JPG,AFNE01.JPG,0,5,5,1,,,,,,,,,,,,,,,,,,,,,,,AMNE18.jpg,AMSA08.jpg,AMSA11.jpg,AMNE15.jpg,AMSA11.jpg,MS,2,num_2,16,num_2,0.933483974237,,,2017_Jun_23_1551,60.0064283179,MAFE4ImagesEEG,001,200726,
AFNE01.JPG,AFNE01.JPG,AFNE01.JPG,AFNE01.JPG,AFNE01.JPG,AFNE01.JPG,0,6,6,4,,,,,,,,,,,,,,,,,,,,,,,AMSA06.jpg,AMNE04.jpg,AMNE20.jpg,AMSA02.jpg,AMSA06.jpg,MS,2,num_8,16,num_8,1.03343297656,,,2017_Jun_23_1551,60.0064283179,MAFE4ImagesEEG,001,200726,
AFNE01.JPG,AFNE01.JPG,AFNE01.JPG,AFNE01.JPG,AFNE01.JPG,AFNE01.JPG,0,7,7,8,,,,,,,,,,,,,,,,,,,,,,,AMSA16.jpg,AMNE01.jpg,AMNE15.jpg,AMSA05.jpg,AMSA16.jpg,MS,2,num_8,32,num_4,1.41676219372,,,2017_Jun_23_1551,60.0064283179,MAFE4ImagesEEG,001,200726,
AFNE01.JPG,AFNE01.JPG,AFNE01.JPG,AFNE01.JPG,AFNE01.JPG,AFNE01.JPG,0,8,8,5,,,,,,,,,,,,,,,,,,,,,,,AMSA14.jpg,AMSA19.jpg,AMNE07.jpg,AMNE05.jpg,AMNE05.jpg,MN,1,num_4,16,num_4,1.00017384108,,,2017_Jun_23_1551,60.0064283179,MAFE4ImagesEEG,001,200726,
AFNE01.JPG,AFNE01.JPG,AFNE01.JPG,AFNE01.JPG,AFNE01.JPG,AFNE01.JPG,0,9,9,6,,,,,,,,,,,,,,,,,,,,,,,AMSA12.jpg,AMNE04.jpg,AMSA09.jpg,AMNE15.jpg,AMNE04.jpg,MN,1,num_6,16,num_6,1.06678095703,,,2017_Jun_23_1551,60.0064283179,MAFE4ImagesEEG,001,200726,
AFNE01.JPG,AFNE01.JPG,AFNE01.JPG,AFNE01.JPG,AFNE01.JPG,AFNE01.JPG,1,0,10,0,,,,,,,,,,,,,,,,,,,,,,,AMSA18.jpg,AMNE19.jpg,AMNE10.jpg,AMSA08.jpg,AMNE19.jpg,MN,1,num_6,32,num_2,1.61665314213,,,2017_Jun_23_1551,60.0064283179,MAFE4ImagesEEG,001,200726,
AFNE01.JPG,AFNE01.JPG,AFNE01.JPG,AFNE01.JPG,AFNE01.JPG,AFNE01.JPG,1,1,11,4,,,,,,,,,,,,,,,,,,,,,,,AMSA13.jpg,AMNE08.jpg,AMSA03.jpg,AMNE12.jpg,AMNE08.jpg,MN,1,num_6,16,num_6,1.45005276173,,,2017_Jun_23_1551,60.0064283179,MAFE4ImagesEEG,001,200726,
AFNE01.JPG,AFNE01.JPG,AFNE01.JPG,AFNE01.JPG,AFNE01.JPG,AFNE01.JPG,1,2,12,7,,,,,,,,,,,,,,,,,,,,,,,AMSA18.jpg,AMNE01.jpg,AMSA15.jpg,AMNE13.jpg,AMNE13.jpg,MN,1,num_4,16,num_4,1.7000593369,,,2017_Jun_23_1551,60.0064283179,MAFE4ImagesEEG,001,200726,
AFNE01.JPG,AFNE01.JPG,AFNE01.JPG,AFNE01.JPG,AFNE01.JPG,AFNE01.JPG,1,3,13,6,,,,,,,,,,,,,,,,,,,,,,,AMNE19.jpg,AMSA13.jpg,AMNE08.jpg,AMSA12.jpg,AMSA13.jpg,MS,2,num_6,32,num_4,0.866807257698,,,2017_Jun_23_1551,60.0064283179,MAFE4ImagesEEG,001,200726,
AFNE01.JPG,AFNE01.JPG,AFNE01.JPG,AFNE01.JPG,AFNE01.JPG,AFNE01.JPG,1,4,14,9,,,,,,,,,,,,,,,,,,,,,,,AMNE06.jpg,AMSA14.jpg,AMSA18.jpg,AMNE19.jpg,AMNE19.jpg,MN,1,num_4,32,num_8,0.916754816717,,,2017_Jun_23_1551,60.0064283179,MAFE4ImagesEEG,001,200726,
AFNE01.JPG,AFNE01.JPG,AFNE01.JPG,AFNE01.JPG,AFNE01.JPG,AFNE01.JPG,1,5,15,8,,,,,,,,,,,,,,,,,,,,,,,AMNE02.jpg,AMNE11.jpg,AMSA04.jpg,AMSA14.jpg,AMNE02.jpg,MN,1,num_8,16,num_8,1.58343377842,,,2017_Jun_23_1551,60.0064283179,MAFE4ImagesEEG,001,200726,
AFNE01.JPG,AFNE01.JPG,AFNE01.JPG,AFNE01.JPG,AFNE01.JPG,AFNE01.JPG,1,6,16,5,,,,,,,,,,,,,,,,,,,,,,,AMSA05.jpg,AMNE12.jpg,AMSA16.jpg,AMNE20.jpg,AMSA16.jpg,MS,2,num_2,16,num_2,0.750149945961,,,2017_Jun_23_1551,60.0064283179,MAFE4ImagesEEG,001,200726,
AFNE01.JPG,AFNE01.JPG,AFNE01.JPG,AFNE01.JPG,AFNE01.JPG,AFNE01.JPG,1,7,17,1,,,,,,,,,,,,,,,,,,,,,,,AMSA11.jpg,AMSA02.jpg,AMNE05.jpg,AMNE11.jpg,AMSA11.jpg,MS,2,num_8,32,num_6,0.83345671132,,,2017_Jun_23_1551,60.0064283179,MAFE4ImagesEEG,001,200726,
AFNE01.JPG,AFNE01.JPG,AFNE01.JPG,AFNE01.JPG,AFNE01.JPG,AFNE01.JPG,1,8,18,3,,,,,,,,,,,,,,,,,,,,,,,AMNE15.jpg,AMNE14.jpg,AMSA02.jpg,AMSA01.jpg,AMSA02.jpg,MS,2,num_2,32,num_4,1.15006045949,,,2017_Jun_23_1551,60.0064283179,MAFE4ImagesEEG,001,200726,
AFNE01.JPG,AFNE01.JPG,AFNE01.JPG,AFNE01.JPG,AFNE01.JPG,AFNE01.JPG,1,9,19,2,,,,,,,,,,,,,,,,,,,,,,,AMSA06.jpg,AMNE01.jpg,AMNE13.jpg,AMSA14.jpg,AMSA06.jpg,MS,2,num_8,16,num_8,0.68344757022,,,2017_Jun_23_1551,60.0064283179,MAFE4ImagesEEG,001,200726,
AFNE01.JPG,AFNE01.JPG,AFNE01.JPG,AFNE01.JPG,AFNE01.JPG,AFNE01.JPG,2,0,20,9,,,,,,,,,,,,,,,,,,,,,,,AMNE16.jpg,AMNE15.jpg,AMSA08.jpg,AMSA12.jpg,AMNE15.jpg,MN,1,num_6,16,num_6,0.583470663507,,,2017_Jun_23_1551,60.0064283179,MAFE4ImagesEEG,001,200726,
AFNE01.JPG,AFNE01.JPG,AFNE01.JPG,AFNE01.JPG,AFNE01.JPG,AFNE01.JPG,2,1,21,7,,,,,,,,,,,,,,,,,,,,,,,AMSA04.jpg,AMNE17.jpg,AMSA14.jpg,AMNE07.jpg,AMSA04.jpg,MS,2,num_8,32,num_2,0.716662764331,,,2017_Jun_23_1551,60.0064283179,MAFE4ImagesEEG,001,200726,
AFNE01.JPG,AFNE01.JPG,AFNE01.JPG,AFNE01.JPG,AFNE01.JPG,AFNE01.JPG,2,2,22,6,,,,,,,,,,,,,,,,,,,,,,,AMSA16.jpg,AMSA18.jpg,AMNE02.jpg,AMNE01.jpg,AMSA18.jpg,MS,2,num_6,16,num_6,0.733466975013,,,2017_Jun_23_1551,60.0064283179,MAFE4ImagesEEG,001,200726,
AFNE01.JPG,AFNE01.JPG,AFNE01.JPG,AFNE01.JPG,AFNE01.JPG,AFNE01.JPG,2,3,23,8,,,,,,,,,,,,,,,,,,,,,,,AMSA05.jpg,AMNE05.jpg,AMNE11.jpg,AMSA17.jpg,AMNE05.jpg,MN,1,num_6,16,num_6,0.800084354618,,,2017_Jun_23_1551,60.0064283179,MAFE4ImagesEEG,001,200726,
AFNE01.JPG,AFNE01.JPG,AFNE01.JPG,AFNE01.JPG,AFNE01.JPG,AFNE01.JPG,2,4,24,2,,,,,,,,,,,,,,,,,,,,,,,AMSA10.jpg,AMSA15.jpg,AMNE07.jpg,AMNE15.jpg,AMSA10.jpg,MS,2,num_8,16,num_8,0.933509633425,,,2017_Jun_23_1551,60.0064283179,MAFE4ImagesEEG,001,200726,
AFNE01.JPG,AFNE01.JPG,AFNE01.JPG,AFNE01.JPG,AFNE01.JPG,AFNE01.JPG,2,5,25,5,,,,,,,,,,,,,,,,,,,,,,,AMNE09.jpg,AMSA05.jpg,AMNE05.jpg,AMSA11.jpg,AMNE09.jpg,MN,1,num_8,16,num_8,0.950126531941,,,2017_Jun_23_1551,60.0064283179,MAFE4ImagesEEG,001,200726,
AFNE01.JPG,AFNE01.JPG,AFNE01.JPG,AFNE01.JPG,AFNE01.JPG,AFNE01.JPG,2,6,26,1,,,,,,,,,,,,,,,,,,,,,,,AMSA19.jpg,AMNE14.jpg,AMNE13.jpg,AMSA18.jpg,AMSA19.jpg,MS,2,num_8,16,num_8,1.45009221275,,,2017_Jun_23_1551,60.0064283179,MAFE4ImagesEEG,001,200726,
AFNE01.JPG,AFNE01.JPG,AFNE01.JPG,AFNE01.JPG,AFNE01.JPG,AFNE01.JPG,2,7,27,3,,,,,,,,,,,,,,,,,,,,,,,AMSA07.jpg,AMNE05.jpg,AMNE01.jpg,AMSA16.jpg,AMSA07.jpg,MS,2,num_8,16,num_8,0.983500813076,,,2017_Jun_23_1551,60.0064283179,MAFE4ImagesEEG,001,200726,
AFNE01.JPG,AFNE01.JPG,AFNE01.JPG,AFNE01.JPG,AFNE01.JPG,AFNE01.JPG,2,8,28,4,,,,,,,,,,,,,,,,,,,,,,,AMSA04.jpg,AMSA03.jpg,AMNE20.jpg,AMNE09.jpg,AMNE20.jpg,MN,1,num_2,16,num_2,1.78338630889,,,2017_Jun_23_1551,60.0064283179,MAFE4ImagesEEG,001,200726,
AFNE01.JPG,AFNE01.JPG,AFNE01.JPG,AFNE01.JPG,AFNE01.JPG,AFNE01.JPG,2,9,29,0,,,,,,,,,,,,,,,,,,,,,,,AMSA18.jpg,AMNE05.jpg,AMNE01.jpg,AMSA01.jpg,AMNE05.jpg,MN,1,num_6,16,num_6,1.20007761908,,,2017_Jun_23_1551,60.0064283179,MAFE4ImagesEEG,001,200726,
AFNE01.JPG,AFNE01.JPG,AFNE01.JPG,AFNE01.JPG,AFNE01.JPG,AFNE01.JPG,3,0,30,2,,,,,,,,,,,,,,,,,,,,,,,AMNE11.jpg,AMSA02.jpg,AMNE07.jpg,AMSA05.jpg,AMNE11.jpg,MN,1,num_8,16,num_8,0.966848312441,,,2017_Jun_23_1551,60.0064283179,MAFE4ImagesEEG,001,200726,
AFNE01.JPG,AFNE01.JPG,AFNE01.JPG,AFNE01.JPG,AFNE01.JPG,AFNE01.JPG,3,1,31,5,,,,,,,,,,,,,,,,,,,,,,,AMSA16.jpg,AMSA10.jpg,AMNE20.jpg,AMNE14.jpg,AMSA10.jpg,MS,2,num_6,32,num_8,0.950009782566,,,2017_Jun_23_1551,60.0064283179,MAFE4ImagesEEG,001,200726,
AFNE01.JPG,AFNE01.JPG,AFNE01.JPG,AFNE01.JPG,AFNE01.JPG,AFNE01.JPG,3,2,32,9,,,,,,,,,,,,,,,,,,,,,,,AMSA07.jpg,AMSA02.jpg,AMNE18.jpg,AMNE16.jpg,AMNE16.jpg,MN,1,num_4,16,num_4,1.21675064709,,,2017_Jun_23_1551,60.0064283179,MAFE4ImagesEEG,001,200726,
AFNE01.JPG,AFNE01.JPG,AFNE01.JPG,AFNE01.JPG,AFNE01.JPG,AFNE01.JPG,3,3,33,3,,,,,,,,,,,,,,,,,,,,,,,AMNE03.jpg,AMNE04.jpg,AMSA19.jpg,AMSA13.jpg,AMSA19.jpg,MS,2,num_2,32,num_4,1.80019950029,,,2017_Jun_23_1551,60.0064283179,MAFE4ImagesEEG,001,200726,
AFNE01.JPG,AFNE01.JPG,AFNE01.JPG,AFNE01.JPG,AFNE01.JPG,AFNE01.JPG,3,4,34,7,,,,,,,,,,,,,,,,,,,,,,,AMNE05.jpg,AMSA01.jpg,AMNE11.jpg,AMSA12.jpg,AMNE11.jpg,MN,1,num_2,16,num_2,1.26673765712,,,2017_Jun_23_1551,60.0064283179,MAFE4ImagesEEG,001,200726,
AFNE01.JPG,AFNE01.JPG,AFNE01.JPG,AFNE01.JPG,AFNE01.JPG,AFNE01.JPG,3,5,35,6,,,,,,,,,,,,,,,,,,,,,,,AMSA03.jpg,AMNE03.jpg,AMNE13.jpg,AMSA02.jpg,AMSA02.jpg,MS,2,num_4,16,num_4,0.633296020591,,,2017_Jun_23_1551,60.0064283179,MAFE4ImagesEEG,001,200726,
AFNE01.JPG,AFNE01.JPG,AFNE01.JPG,AFNE01.JPG,AFNE01.JPG,AFNE01.JPG,3,6,36,0,,,,,,,,,,,,,,,,,,,,,,,AMNE19.jpg,AMSA15.jpg,AMSA17.jpg,AMNE14.jpg,AMSA17.jpg,MS,2,num_2,32,num_8,0.966761391872,,,2017_Jun_23_1551,60.0064283179,MAFE4ImagesEEG,001,200726,
AFNE01.JPG,AFNE01.JPG,AFNE01.JPG,AFNE01.JPG,AFNE01.JPG,AFNE01.JPG,3,7,37,1,,,,,,,,,,,,,,,,,,,,,,,AMNE13.jpg,AMSA16.jpg,AMSA17.jpg,AMNE03.jpg,AMNE03.jpg,MN,1,num_4,32,num_8,0.866835162087,,,2017_Jun_23_1551,60.0064283179,MAFE4ImagesEEG,001,200726,
AFNE01.JPG,AFNE01.JPG,AFNE01.JPG,AFNE01.JPG,AFNE01.JPG,AFNE01.JPG,3,8,38,8,,,,,,,,,,,,,,,,,,,,,,,AMNE03.jpg,AMNE18.jpg,AMSA12.jpg,AMSA01.jpg,AMSA12.jpg,MS,2,num_2,32,num_8,0.750194849548,,,2017_Jun_23_1551,60.0064283179,MAFE4ImagesEEG,001,200726,
AFNE01.JPG,AFNE01.JPG,AFNE01.JPG,AFNE01.JPG,AFNE01.JPG,AFNE01.JPG,3,9,39,4,,,,,,,,,,,,,,,,,,,,,,,AMSA09.jpg,AMNE11.jpg,AMNE19.jpg,AMSA13.jpg,AMNE19.jpg,MN,1,num_2,16,num_2,1.26673316676,,,2017_Jun_23_1551,60.0064283179,MAFE4ImagesEEG,001,200726,
AFNE01.JPG,AFNE01.JPG,AFNE01.JPG,AFNE01.JPG,AFNE01.JPG,AFNE01.JPG,4,0,40,0,,,,,,,,,,,,,,,,,,,,,,,AMSA07.jpg,AMNE04.jpg,AMSA02.jpg,AMNE01.jpg,AMNE01.jpg,MN,1,num_4,32,num_6,1.08348798347,,,2017_Jun_23_1551,60.0064283179,MAFE4ImagesEEG,001,200726,
AFNE01.JPG,AFNE01.JPG,AFNE01.JPG,AFNE01.JPG,AFNE01.JPG,AFNE01.JPG,4,1,41,4,,,,,,,,,,,,,,,,,,,,,,,AMSA14.jpg,AMSA03.jpg,AMNE01.jpg,AMNE18.jpg,AMSA14.jpg,MS,2,num_8,16,num_8,0.883497284929,,,2017_Jun_23_1551,60.0064283179,MAFE4ImagesEEG,001,200726,
AFNE01.JPG,AFNE01.JPG,AFNE01.JPG,AFNE01.JPG,AFNE01.JPG,AFNE01.JPG,4,2,42,1,,,,,,,,,,,,,,,,,,,,,,,AMSA05.jpg,AMNE01.jpg,AMNE14.jpg,AMSA15.jpg,AMSA05.jpg,MS,2,num_8,32,num_4,0.866777749616,,,2017_Jun_23_1551,60.0064283179,MAFE4ImagesEEG,001,200726,
AFNE01.JPG,AFNE01.JPG,AFNE01.JPG,AFNE01.JPG,AFNE01.JPG,AFNE01.JPG,4,3,43,3,,,,,,,,,,,,,,,,,,,,,,,AMSA16.jpg,AMSA04.jpg,AMNE19.jpg,AMNE03.jpg,AMNE19.jpg,MN,1,num_2,16,num_2,1.4667325253,,,2017_Jun_23_1551,60.0064283179,MAFE4ImagesEEG,001,200726,
AFNE01.JPG,AFNE01.JPG,AFNE01.JPG,AFNE01.JPG,AFNE01.JPG,AFNE01.JPG,4,4,44,6,,,,,,,,,,,,,,,,,,,,,,,AMNE18.jpg,AMNE08.jpg,AMSA16.jpg,AMSA04.jpg,AMNE08.jpg,MN,1,num_6,32,num_8,0.933436825449,,,2017_Jun_23_1551,60.0064283179,MAFE4ImagesEEG,001,200726,
AFNE01.JPG,AFNE01.JPG,AFNE01.JPG,AFNE01.JPG,AFNE01.JPG,AFNE01.JPG,4,5,45,7,,,,,,,,,,,,,,,,,,,,,,,AMSA01.jpg,AMSA08.jpg,AMNE14.jpg,AMNE09.jpg,AMNE14.jpg,MN,1,num_2,16,num_2,0.883493756788,,,2017_Jun_23_1551,60.0064283179,MAFE4ImagesEEG,001,200726,
AFNE01.JPG,AFNE01.JPG,AFNE01.JPG,AFNE01.JPG,AFNE01.JPG,AFNE01.JPG,4,6,46,8,,,,,,,,,,,,,,,,,,,,,,,AMSA20.jpg,AMSA01.jpg,AMNE09.jpg,AMNE20.jpg,AMNE20.jpg,MN,1,num_4,32,num_2,1.48369069117,,,2017_Jun_23_1551,60.0064283179,MAFE4ImagesEEG,001,200726,
AFNE01.JPG,AFNE01.JPG,AFNE01.JPG,AFNE01.JPG,AFNE01.JPG,AFNE01.JPG,4,7,47,2,,,,,,,,,,,,,,,,,,,,,,,AMNE02.jpg,AMSA09.jpg,AMSA11.jpg,AMNE20.jpg,AMNE02.jpg,MN,1,num_8,16,num_8,2.0001010331,,,2017_Jun_23_1551,60.0064283179,MAFE4ImagesEEG,001,200726,
AFNE01.JPG,AFNE01.JPG,AFNE01.JPG,AFNE01.JPG,AFNE01.JPG,AFNE01.JPG,4,8,48,5,,,,,,,,,,,,,,,,,,,,,,,AMSA05.jpg,AMSA04.jpg,AMNE16.jpg,AMNE15.jpg,AMSA05.jpg,MS,2,num_8,16,num_8,0.766818483607,,,2017_Jun_23_1551,60.0064283179,MAFE4ImagesEEG,001,200726,
AFNE01.JPG,AFNE01.JPG,AFNE01.JPG,AFNE01.JPG,AFNE01.JPG,AFNE01.JPG,4,9,49,9,,,,,,,,,,,,,,,,,,,,,,,AMSA20.jpg,AMSA16.jpg,AMNE20.jpg,AMNE07.jpg,AMNE20.jpg,MN,1,num_2,32,num_4,1.21675257153,,,2017_Jun_23_1551,60.0064283179,MAFE4ImagesEEG,001,200726,
AFNE01.JPG,AFNE01.JPG,AFNE01.JPG,AFNE01.JPG,AFNE01.JPG,AFNE01.JPG,5,0,50,4,,,,,,,,,,,,,,,,,,,,,,,AMSA11.jpg,AMNE18.jpg,AMSA12.jpg,AMNE11.jpg,AMSA11.jpg,MS,2,num_8,32,num_2,0.783481568666,,,2017_Jun_23_1551,60.0064283179,MAFE4ImagesEEG,001,200726,
AFNE01.JPG,AFNE01.JPG,AFNE01.JPG,AFNE01.JPG,AFNE01.JPG,AFNE01.JPG,5,1,51,1,,,,,,,,,,,,,,,,,,,,,,,AMNE16.jpg,AMNE07.jpg,AMSA05.jpg,AMSA19.jpg,AMNE16.jpg,MN,1,num_8,32,num_6,1.50008852425,,,2017_Jun_23_1551,60.0064283179,MAFE4ImagesEEG,001,200726,
AFNE01.JPG,AFNE01.JPG,AFNE01.JPG,AFNE01.JPG,AFNE01.JPG,AFNE01.JPG,5,2,52,2,,,,,,,,,,,,,,,,,,,,,,,AMSA15.jpg,AMNE04.jpg,AMSA20.jpg,AMNE11.jpg,AMNE11.jpg,MN,1,num_4,16,num_4,1.35008355278,,,2017_Jun_23_1551,60.0064283179,MAFE4ImagesEEG,001,200726,
AFNE01.JPG,AFNE01.JPG,AFNE01.JPG,AFNE01.JPG,AFNE01.JPG,AFNE01.JPG,5,3,53,0,,,,,,,,,,,,,,,,,,,,,,,AMNE15.jpg,AMNE14.jpg,AMSA19.jpg,AMSA15.jpg,AMSA19.jpg,MS,2,num_2,16,num_2,1.01686515126,,,2017_Jun_23_1551,60.0064283179,MAFE4ImagesEEG,001,200726,
AFNE01.JPG,AFNE01.JPG,AFNE01.JPG,AFNE01.JPG,AFNE01.JPG,AFNE01.JPG,5,4,54,7,,,,,,,,,,,,,,,,,,,,,,,AMNE15.jpg,AMSA05.jpg,AMSA06.jpg,AMNE18.jpg,AMSA06.jpg,MS,2,num_2,16,num_2,1.08260626918,,,2017_Jun_23_1551,60.0064283179,MAFE4ImagesEEG,001,200726,
AFNE01.JPG,AFNE01.JPG,AFNE01.JPG,AFNE01.JPG,AFNE01.JPG,AFNE01.JPG,5,5,55,8,,,,,,,,,,,,,,,,,,,,,,,AMSA15.jpg,AMNE06.jpg,AMNE05.jpg,AMSA03.jpg,AMSA15.jpg,MS,2,num_8,16,num_8,0.950121079353,,,2017_Jun_23_1551,60.0064283179,MAFE4ImagesEEG,001,200726,
AFNE01.JPG,AFNE01.JPG,AFNE01.JPG,AFNE01.JPG,AFNE01.JPG,AFNE01.JPG,5,6,56,3,,,,,,,,,,,,,,,,,,,,,,,AMNE14.jpg,AMSA13.jpg,AMSA18.jpg,AMNE15.jpg,AMSA18.jpg,MS,2,num_2,16,num_2,2.13343329731,,,2017_Jun_23_1551,60.0064283179,MAFE4ImagesEEG,001,200726,
AFNE01.JPG,AFNE01.JPG,AFNE01.JPG,AFNE01.JPG,AFNE01.JPG,AFNE01.JPG,5,7,57,6,,,,,,,,,,,,,,,,,,,,,,,AMSA13.jpg,AMSA09.jpg,AMNE10.jpg,AMNE09.jpg,AMSA09.jpg,MS,2,num_6,16,num_6,1.16683035098,,,2017_Jun_23_1551,60.0064283179,MAFE4ImagesEEG,001,200726,
AFNE01.JPG,AFNE01.JPG,AFNE01.JPG,AFNE01.JPG,AFNE01.JPG,AFNE01.JPG,5,8,58,5,,,,,,,,,,,,,,,,,,,,,,,AMSA17.jpg,AMNE15.jpg,AMNE16.jpg,AMSA08.jpg,AMSA08.jpg,MS,2,num_4,16,num_4,0.750149304484,,,2017_Jun_23_1551,60.0064283179,MAFE4ImagesEEG,001,200726,
AFNE01.JPG,AFNE01.JPG,AFNE01.JPG,AFNE01.JPG,AFNE01.JPG,AFNE01.JPG,5,9,59,9,,,,,,,,,,,,,,,,,,,,,,,AMSA06.jpg,AMSA08.jpg,AMNE06.jpg,AMNE18.jpg,AMNE18.jpg,MN,1,num_4,32,num_8,0.933549725931,,,2017_Jun_23_1551,60.0064283179,MAFE4ImagesEEG,001,200726,
,,,,,,,,,,,,,,,,,,,,,,,,,,,,,,,,,,,,,,,,,,,space,1.53339352555,2017_Jun_23_1551,60.0064283179,MAFE4ImagesEEG,001,200726,
AFNE01.JPG,AFNE01.JPG,AFNE01.JPG,AFNE01.JPG,AFNE01.JPG,AFNE01.JPG,,,,,0,0,0,9,,,,,,,,,,,,,,,,,,,AFNE14.jpg,AFSA12.jpg,AFNE01.jpg,AFSA01.jpg,AFNE01.jpg,FN,3,num_2,32,num_8,0.933491671996,,,2017_Jun_23_1551,60.0064283179,MAFE4ImagesEEG,001,200726,
AFNE01.JPG,AFNE01.JPG,AFNE01.JPG,AFNE01.JPG,AFNE01.JPG,AFNE01.JPG,,,,,0,1,1,1,,,,,,,,,,,,,,,,,,,AFNE06.jpg,AFNE19.jpg,AFSA11.jpg,AFSA07.jpg,AFSA07.jpg,FS,4,num_4,32,num_8,0.91679811661,,,2017_Jun_23_1551,60.0064283179,MAFE4ImagesEEG,001,200726,
AFNE01.JPG,AFNE01.JPG,AFNE01.JPG,AFNE01.JPG,AFNE01.JPG,AFNE01.JPG,,,,,0,2,2,7,,,,,,,,,,,,,,,,,,,AFNE14.jpg,AFSA04.jpg,AFNE05.jpg,AFSA18.jpg,AFNE14.jpg,FN,3,num_8,16,num_8,0.750131022287,,,2017_Jun_23_1551,60.0064283179,MAFE4ImagesEEG,001,200726,
AFNE01.JPG,AFNE01.JPG,AFNE01.JPG,AFNE01.JPG,AFNE01.JPG,AFNE01.JPG,,,,,0,3,3,8,,,,,,,,,,,,,,,,,,,AFNE05.jpg,AFNE20.jpg,AFSA18.jpg,AFSA03.jpg,AFNE20.jpg,FN,3,num_6,32,num_8,0.833460880953,,,2017_Jun_23_1551,60.0064283179,MAFE4ImagesEEG,001,200726,
AFNE01.JPG,AFNE01.JPG,AFNE01.JPG,AFNE01.JPG,AFNE01.JPG,AFNE01.JPG,,,,,0,4,4,6,,,,,,,,,,,,,,,,,,,AFSA13.jpg,AFSA12.jpg,AFNE04.jpg,AFNE11.jpg,AFSA13.jpg,FS,4,num_8,16,num_8,1.13344548542,,,2017_Jun_23_1551,60.0064283179,MAFE4ImagesEEG,001,200726,
AFNE01.JPG,AFNE01.JPG,AFNE01.JPG,AFNE01.JPG,AFNE01.JPG,AFNE01.JPG,,,,,0,5,5,2,,,,,,,,,,,,,,,,,,,AFNE14.jpg,AFSA03.jpg,AFSA04.jpg,AFNE20.jpg,AFNE20.jpg,FN,3,num_4,16,num_4,0.733223212592,,,2017_Jun_23_1551,60.0064283179,MAFE4ImagesEEG,001,200726,
AFNE01.JPG,AFNE01.JPG,AFNE01.JPG,AFNE01.JPG,AFNE01.JPG,AFNE01.JPG,,,,,0,6,6,0,,,,,,,,,,,,,,,,,,,AFNE04.jpg,AFSA05.jpg,AFSA04.jpg,AFNE10.jpg,AFNE04.jpg,FN,3,num_8,32,num_4,0.833469861667,,,2017_Jun_23_1551,60.0064283179,MAFE4ImagesEEG,001,200726,
AFNE01.JPG,AFNE01.JPG,AFNE01.JPG,AFNE01.JPG,AFNE01.JPG,AFNE01.JPG,,,,,0,7,7,4,,,,,,,,,,,,,,,,,,,AFSA13.jpg,AFNE19.jpg,AFSA19.jpg,AFNE10.jpg,AFSA19.jpg,FS,4,num_2,16,num_2,1.05012781489,,,2017_Jun_23_1551,60.0064283179,MAFE4ImagesEEG,001,200726,
AFNE01.JPG,AFNE01.JPG,AFNE01.JPG,AFNE01.JPG,AFNE01.JPG,AFNE01.JPG,,,,,0,8,8,3,,,,,,,,,,,,,,,,,,,AFNE20.jpg,AFSA07.jpg,AFSA04.jpg,AFNE17.jpg,AFNE20.jpg,FN,3,num_8,32,num_4,0.833345414547,,,2017_Jun_23_1551,60.0064283179,MAFE4ImagesEEG,001,200726,
AFNE01.JPG,AFNE01.JPG,AFNE01.JPG,AFNE01.JPG,AFNE01.JPG,AFNE01.JPG,,,,,0,9,9,5,,,,,,,,,,,,,,,,,,,AFSA20.jpg,AFNE07.jpg,AFSA09.jpg,AFNE06.jpg,AFSA09.jpg,FS,4,num_2,32,num_6,1.20011193826,,,2017_Jun_23_1551,60.0064283179,MAFE4ImagesEEG,001,200726,
AFNE01.JPG,AFNE01.JPG,AFNE01.JPG,AFNE01.JPG,AFNE01.JPG,AFNE01.JPG,,,,,1,0,10,3,,,,,,,,,,,,,,,,,,,AFNE08.jpg,AFSA14.jpg,AFSA08.jpg,AFNE07.jpg,AFNE08.jpg,FN,3,num_8,16,num_8,1.03348589866,,,2017_Jun_23_1551,60.0064283179,MAFE4ImagesEEG,001,200726,
AFNE01.JPG,AFNE01.JPG,AFNE01.JPG,AFNE01.JPG,AFNE01.JPG,AFNE01.JPG,,,,,1,1,11,7,,,,,,,,,,,,,,,,,,,AFSA12.jpg,AFNE01.jpg,AFNE13.jpg,AFSA17.jpg,AFSA17.jpg,FS,4,num_4,32,num_2,1.70003977176,,,2017_Jun_23_1551,60.0064283179,MAFE4ImagesEEG,001,200726,
AFNE01.JPG,AFNE01.JPG,AFNE01.JPG,AFNE01.JPG,AFNE01.JPG,AFNE01.JPG,,,,,1,2,12,4,,,,,,,,,,,,,,,,,,,AFNE16.jpg,AFSA03.jpg,AFNE08.jpg,AFSA18.jpg,AFNE08.jpg,FN,3,num_2,32,num_8,0.750174963672,,,2017_Jun_23_1551,60.0064283179,MAFE4ImagesEEG,001,200726,
AFNE01.JPG,AFNE01.JPG,AFNE01.JPG,AFNE01.JPG,AFNE01.JPG,AFNE01.JPG,,,,,1,3,13,6,,,,,,,,,,,,,,,,,,,AFSA10.jpg,AFSA07.jpg,AFNE01.jpg,AFNE08.jpg,AFNE01.jpg,FN,3,num_2,32,num_4,0.800163898151,,,2017_Jun_23_1551,60.0064283179,MAFE4ImagesEEG,001,200726,
AFNE01.JPG,AFNE01.JPG,AFNE01.JPG,AFNE01.JPG,AFNE01.JPG,AFNE01.JPG,,,,,1,4,14,0,,,,,,,,,,,,,,,,,,,AFSA07.jpg,AFSA05.jpg,AFNE02.jpg,AFNE03.jpg,AFNE02.jpg,FN,3,num_2,16,num_2,1.20011899454,,,2017_Jun_23_1551,60.0064283179,MAFE4ImagesEEG,001,200726,
AFNE01.JPG,AFNE01.JPG,AFNE01.JPG,AFNE01.JPG,AFNE01.JPG,AFNE01.JPG,,,,,1,5,15,9,,,,,,,,,,,,,,,,,,,AFNE11.jpg,AFSA07.jpg,AFSA14.jpg,AFNE01.jpg,AFNE01.jpg,FN,3,num_4,32,num_2,0.733475634988,,,2017_Jun_23_1551,60.0064283179,MAFE4ImagesEEG,001,200726,
AFNE01.JPG,AFNE01.JPG,AFNE01.JPG,AFNE01.JPG,AFNE01.JPG,AFNE01.JPG,,,,,1,6,16,5,,,,,,,,,,,,,,,,,,,AFSA08.jpg,AFSA04.jpg,AFNE02.jpg,AFNE03.jpg,AFSA08.jpg,FS,4,num_8,32,num_6,1.00012156047,,,2017_Jun_23_1551,60.0064283179,MAFE4ImagesEEG,001,200726,
AFNE01.JPG,AFNE01.JPG,AFNE01.JPG,AFNE01.JPG,AFNE01.JPG,AFNE01.JPG,,,,,1,7,17,8,,,,,,,,,,,,,,,,,,,AFNE09.jpg,AFNE03.jpg,AFSA05.jpg,AFSA15.jpg,AFSA15.jpg,FS,4,num_4,16,num_4,0.800125730078,,,2017_Jun_23_1551,60.0064283179,MAFE4ImagesEEG,001,200726,
AFNE01.JPG,AFNE01.JPG,AFNE01.JPG,AFNE01.JPG,AFNE01.JPG,AFNE01.JPG,,,,,1,8,18,1,,,,,,,,,,,,,,,,,,,AFSA13.jpg,AFNE12.jpg,AFNE16.jpg,AFSA08.jpg,AFNE16.jpg,FN,3,num_2,32,num_6,1.40009750496,,,2017_Jun_23_1551,60.0064283179,MAFE4ImagesEEG,001,200726,
AFNE01.JPG,AFNE01.JPG,AFNE01.JPG,AFNE01.JPG,AFNE01.JPG,AFNE01.JPG,,,,,1,9,19,2,,,,,,,,,,,,,,,,,,,AFSA03.jpg,AFSA04.jpg,AFNE05.jpg,AFNE08.jpg,AFNE05.jpg,FN,3,num_2,32,num_6,2.30005067692,,,2017_Jun_23_1551,60.0064283179,MAFE4ImagesEEG,001,200726,
AFNE01.JPG,AFNE01.JPG,AFNE01.JPG,AFNE01.JPG,AFNE01.JPG,AFNE01.JPG,,,,,2,0,20,7,,,,,,,,,,,,,,,,,,,AFNE10.jpg,AFNE02.jpg,AFSA04.jpg,AFSA08.jpg,AFNE10.jpg,FN,3,num_8,16,num_8,1.05010119347,,,2017_Jun_23_1551,60.0064283179,MAFE4ImagesEEG,001,200726,
AFNE01.JPG,AFNE01.JPG,AFNE01.JPG,AFNE01.JPG,AFNE01.JPG,AFNE01.JPG,,,,,2,1,21,3,,,,,,,,,,,,,,,,,,,AFSA05.jpg,AFSA06.jpg,AFNE01.jpg,AFNE08.jpg,AFNE01.jpg,FN,3,num_2,16,num_2,1.21676636336,,,2017_Jun_23_1551,60.0064283179,MAFE4ImagesEEG,001,200726,
AFNE01.JPG,AFNE01.JPG,AFNE01.JPG,AFNE01.JPG,AFNE01.JPG,AFNE01.JPG,,,,,2,2,22,0,,,,,,,,,,,,,,,,,,,AFNE19.jpg,AFSA01.jpg,AFSA06.jpg,AFNE14.jpg,AFSA01.jpg,FS,4,num_6,16,num_6,1.23346697501,,,2017_Jun_23_1551,60.0064283179,MAFE4ImagesEEG,001,200726,
AFNE01.JPG,AFNE01.JPG,AFNE01.JPG,AFNE01.JPG,AFNE01.JPG,AFNE01.JPG,,,,,2,3,23,2,,,,,,,,,,,,,,,,,,,AFNE01.jpg,AFSA11.jpg,AFNE12.jpg,AFSA14.jpg,AFNE12.jpg,FN,3,num_2,32,num_8,1.10009846717,,,2017_Jun_23_1551,60.0064283179,MAFE4ImagesEEG,001,200726,
AFNE01.JPG,AFNE01.JPG,AFNE01.JPG,AFNE01.JPG,AFNE01.JPG,AFNE01.JPG,,,,,2,4,24,8,,,,,,,,,,,,,,,,,,,AFSA04.jpg,AFNE04.jpg,AFSA08.jpg,AFNE11.jpg,AFNE04.jpg,FN,3,num_6,32,num_8,1.96670718683,,,2017_Jun_23_1551,60.0064283179,MAFE4ImagesEEG,001,200726,
AFNE01.JPG,AFNE01.JPG,AFNE01.JPG,AFNE01.JPG,AFNE01.JPG,AFNE01.JPG,,,,,2,5,25,9,,,,,,,,,,,,,,,,,,,AFNE11.jpg,AFSA07.jpg,AFNE16.jpg,AFSA11.jpg,AFNE11.jpg,FN,3,num_8,16,num_8,1.08359575212,,,2017_Jun_23_1551,60.0064283179,MAFE4ImagesEEG,001,200726,
AFNE01.JPG,AFNE01.JPG,AFNE01.JPG,AFNE01.JPG,AFNE01.JPG,AFNE01.JPG,,,,,2,6,26,5,,,,,,,,,,,,,,,,,,,AFSA04.jpg,AFNE16.jpg,AFNE08.jpg,AFSA19.jpg,AFSA04.jpg,FS,4,num_8,32,num_6,1.71638115461,,,2017_Jun_23_1551,60.0064283179,MAFE4ImagesEEG,001,200726,
AFNE01.JPG,AFNE01.JPG,AFNE01.JPG,AFNE01.JPG,AFNE01.JPG,AFNE01.JPG,,,,,2,7,27,4,,,,,,,,,,,,,,,,,,,AFSA20.jpg,AFNE03.jpg,AFSA14.jpg,AFNE08.jpg,AFSA20.jpg,FS,4,num_8,16,num_8,0.900146898915,,,2017_Jun_23_1551,60.0064283179,MAFE4ImagesEEG,001,200726,
AFNE01.JPG,AFNE01.JPG,AFNE01.JPG,AFNE01.JPG,AFNE01.JPG,AFNE01.JPG,,,,,2,8,28,6,,,,,,,,,,,,,,,,,,,AFSA13.jpg,AFNE01.jpg,AFNE09.jpg,AFSA17.jpg,AFNE01.jpg,FN,3,num_6,16,num_6,0.966796994035,,,2017_Jun_23_1551,60.0064283179,MAFE4ImagesEEG,001,200726,
AFNE01.JPG,AFNE01.JPG,AFNE01.JPG,AFNE01.JPG,AFNE01.JPG,AFNE01.JPG,,,,,2,9,29,1,,,,,,,,,,,,,,,,,,,AFNE11.jpg,AFSA19.jpg,AFNE10.jpg,AFSA01.jpg,AFSA19.jpg,FS,4,num_6,32,num_4,0.783468739086,,,2017_Jun_23_1551,60.0064283179,MAFE4ImagesEEG,001,200726,
AFNE01.JPG,AFNE01.JPG,AFNE01.JPG,AFNE01.JPG,AFNE01.JPG,AFNE01.JPG,,,,,3,0,30,3,,,,,,,,,,,,,,,,,,,AFNE03.jpg,AFSA14.jpg,AFNE04.jpg,AFSA07.jpg,AFNE03.jpg,FN,3,num_8,32,num_2,1.65005949726,,,2017_Jun_23_1551,60.0064283179,MAFE4ImagesEEG,001,200726,
AFNE01.JPG,AFNE01.JPG,AFNE01.JPG,AFNE01.JPG,AFNE01.JPG,AFNE01.JPG,,,,,3,1,31,5,,,,,,,,,,,,,,,,,,,AFNE17.jpg,AFSA18.jpg,AFNE06.jpg,AFSA03.jpg,AFNE06.jpg,FN,3,num_2,16,num_2,1.13344259876,,,2017_Jun_23_1551,60.0064283179,MAFE4ImagesEEG,001,200726,
AFNE01.JPG,AFNE01.JPG,AFNE01.JPG,AFNE01.JPG,AFNE01.JPG,AFNE01.JPG,,,,,3,2,32,1,,,,,,,,,,,,,,,,,,,AFNE02.jpg,AFSA11.jpg,AFSA19.jpg,AFNE07.jpg,AFSA19.jpg,FS,4,num_2,16,num_2,0.783457833924,,,2017_Jun_23_1551,60.0064283179,MAFE4ImagesEEG,001,200726,
AFNE01.JPG,AFNE01.JPG,AFNE01.JPG,AFNE01.JPG,AFNE01.JPG,AFNE01.JPG,,,,,3,3,33,7,,,,,,,,,,,,,,,,,,,AFNE03.jpg,AFSA03.jpg,AFNE16.jpg,AFSA16.jpg,AFNE16.jpg,FN,3,num_2,32,num_4,0.850125890443,,,2017_Jun_23_1551,60.0064283179,MAFE4ImagesEEG,001,200726,
AFNE01.JPG,AFNE01.JPG,AFNE01.JPG,AFNE01.JPG,AFNE01.JPG,AFNE01.JPG,,,,,3,4,34,2,,,,,,,,,,,,,,,,,,,AFNE13.jpg,AFNE05.jpg,AFSA09.jpg,AFSA05.jpg,AFSA09.jpg,FS,4,num_2,32,num_4,1.31674711897,,,2017_Jun_23_1551,60.0064283179,MAFE4ImagesEEG,001,200726,
AFNE01.JPG,AFNE01.JPG,AFNE01.JPG,AFNE01.JPG,AFNE01.JPG,AFNE01.JPG,,,,,3,5,35,8,,,,,,,,,,,,,,,,,,,AFNE16.jpg,AFSA13.jpg,AFSA16.jpg,AFNE04.jpg,AFNE16.jpg,FN,3,num_8,32,num_2,0.833535292622,,,2017_Jun_23_1551,60.0064283179,MAFE4ImagesEEG,001,200726,
AFNE01.JPG,AFNE01.JPG,AFNE01.JPG,AFNE01.JPG,AFNE01.JPG,AFNE01.JPG,,,,,3,6,36,6,,,,,,,,,,,,,,,,,,,AFNE12.jpg,AFNE19.jpg,AFSA03.jpg,AFSA18.jpg,AFSA03.jpg,FS,4,num_2,16,num_2,1.01661048371,,,2017_Jun_23_1551,60.0064283179,MAFE4ImagesEEG,001,200726,
AFNE01.JPG,AFNE01.JPG,AFNE01.JPG,AFNE01.JPG,AFNE01.JPG,AFNE01.JPG,,,,,3,7,37,4,,,,,,,,,,,,,,,,,,,AFNE04.jpg,AFSA17.jpg,AFNE17.jpg,AFSA11.jpg,AFNE17.jpg,FN,3,num_2,32,num_8,0.916772457407,,,2017_Jun_23_1551,60.0064283179,MAFE4ImagesEEG,001,200726,
AFNE01.JPG,AFNE01.JPG,AFNE01.JPG,AFNE01.JPG,AFNE01.JPG,AFNE01.JPG,,,,,3,8,38,0,,,,,,,,,,,,,,,,,,,AFSA12.jpg,AFSA08.jpg,AFNE16.jpg,AFNE17.jpg,AFNE17.jpg,FN,3,num_4,32,num_2,1.13341373215,,,2017_Jun_23_1551,60.0064283179,MAFE4ImagesEEG,001,200726,
AFNE01.JPG,AFNE01.JPG,AFNE01.JPG,AFNE01.JPG,AFNE01.JPG,AFNE01.JPG,,,,,3,9,39,9,,,,,,,,,,,,,,,,,,,AFNE14.jpg,AFSA06.jpg,AFNE20.jpg,AFSA02.jpg,AFNE20.jpg,FN,3,num_2,32,num_8,0.683488945695,,,2017_Jun_23_1551,60.0064283179,MAFE4ImagesEEG,001,200726,
AFNE01.JPG,AFNE01.JPG,AFNE01.JPG,AFNE01.JPG,AFNE01.JPG,AFNE01.JPG,,,,,4,0,40,1,,,,,,,,,,,,,,,,,,,AFSA08.jpg,AFNE15.jpg,AFSA10.jpg,AFNE08.jpg,AFSA08.jpg,FS,4,num_8,32,num_6,1.30043299902,,,2017_Jun_23_1551,60.0064283179,MAFE4ImagesEEG,001,200726,
AFNE01.JPG,AFNE01.JPG,AFNE01.JPG,AFNE01.JPG,AFNE01.JPG,AFNE01.JPG,,,,,4,1,41,2,,,,,,,,,,,,,,,,,,,AFNE13.jpg,AFNE19.jpg,AFSA15.jpg,AFSA10.jpg,AFSA10.jpg,FS,4,num_4,32,num_8,1.31672017679,,,2017_Jun_23_1551,60.0064283179,MAFE4ImagesEEG,001,200726,
AFNE01.JPG,AFNE01.JPG,AFNE01.JPG,AFNE01.JPG,AFNE01.JPG,AFNE01.JPG,,,,,4,2,42,5,,,,,,,,,,,,,,,,,,,AFSA19.jpg,AFNE07.jpg,AFNE17.jpg,AFSA04.jpg,AFSA04.jpg,FS,4,num_4,32,num_8,1.26673797786,,,2017_Jun_23_1551,60.0064283179,MAFE4ImagesEEG,001,200726,
AFNE01.JPG,AFNE01.JPG,AFNE01.JPG,AFNE01.JPG,AFNE01.JPG,AFNE01.JPG,,,,,4,3,43,6,,,,,,,,,,,,,,,,,,,AFNE14.jpg,AFSA19.jpg,AFSA03.jpg,AFNE05.jpg,AFNE14.jpg,FN,3,num_8,32,num_4,1.76670975274,,,2017_Jun_23_1551,60.0064283179,MAFE4ImagesEEG,001,200726,
AFNE01.JPG,AFNE01.JPG,AFNE01.JPG,AFNE01.JPG,AFNE01.JPG,AFNE01.JPG,,,,,4,4,44,4,,,,,,,,,,,,,,,,,,,AFSA03.jpg,AFNE11.jpg,AFNE04.jpg,AFSA05.jpg,AFSA05.jpg,FS,4,num_4,16,num_4,0.733493596432,,,2017_Jun_23_1551,60.0064283179,MAFE4ImagesEEG,001,200726,
AFNE01.JPG,AFNE01.JPG,AFNE01.JPG,AFNE01.JPG,AFNE01.JPG,AFNE01.JPG,,,,,4,5,45,7,,,,,,,,,,,,,,,,,,,AFSA03.jpg,AFSA01.jpg,AFNE10.jpg,AFNE11.jpg,AFNE11.jpg,FN,3,num_4,32,num_6,0.950109853453,,,2017_Jun_23_1551,60.0064283179,MAFE4ImagesEEG,001,200726,
AFNE01.JPG,AFNE01.JPG,AFNE01.JPG,AFNE01.JPG,AFNE01.JPG,AFNE01.JPG,,,,,4,6,46,8,,,,,,,,,,,,,,,,,,,AFSA07.jpg,AFNE05.jpg,AFSA14.jpg,AFNE02.jpg,AFNE02.jpg,FN,3,num_4,32,num_6,0.850134229695,,,2017_Jun_23_1551,60.0064283179,MAFE4ImagesEEG,001,200726,
AFNE01.JPG,AFNE01.JPG,AFNE01.JPG,AFNE01.JPG,AFNE01.JPG,AFNE01.JPG,,,,,4,7,47,9,,,,,,,,,,,,,,,,,,,AFSA01.jpg,AFNE16.jpg,AFSA04.jpg,AFNE07.jpg,AFSA04.jpg,FS,4,num_2,16,num_2,0.716733327135,,,2017_Jun_23_1551,60.0064283179,MAFE4ImagesEEG,001,200726,
AFNE01.JPG,AFNE01.JPG,AFNE01.JPG,AFNE01.JPG,AFNE01.JPG,AFNE01.JPG,,,,,4,8,48,3,,,,,,,,,,,,,,,,,,,AFNE06.jpg,AFSA20.jpg,AFSA08.jpg,AFNE08.jpg,AFNE06.jpg,FN,3,num_8,32,num_4,0.80011899455,,,2017_Jun_23_1551,60.0064283179,MAFE4ImagesEEG,001,200726,
AFNE01.JPG,AFNE01.JPG,AFNE01.JPG,AFNE01.JPG,AFNE01.JPG,AFNE01.JPG,,,,,4,9,49,0,,,,,,,,,,,,,,,,,,,AFSA10.jpg,AFNE03.jpg,AFNE18.jpg,AFSA16.jpg,AFSA10.jpg,FS,4,num_8,16,num_8,1.08345655096,,,2017_Jun_23_1551,60.0064283179,MAFE4ImagesEEG,001,200726,
AFNE01.JPG,AFNE01.JPG,AFNE01.JPG,AFNE01.JPG,AFNE01.JPG,AFNE01.JPG,,,,,5,0,50,5,,,,,,,,,,,,,,,,,,,AFSA15.jpg,AFNE03.jpg,AFNE19.jpg,AFSA06.jpg,AFNE03.jpg,FN,3,num_6,16,num_6,0.90014561596,,,2017_Jun_23_1551,60.0064283179,MAFE4ImagesEEG,001,200726,
AFNE01.JPG,AFNE01.JPG,AFNE01.JPG,AFNE01.JPG,AFNE01.JPG,AFNE01.JPG,,,,,5,1,51,9,,,,,,,,,,,,,,,,,,,AFNE08.jpg,AFSA16.jpg,AFNE07.jpg,AFSA19.jpg,AFSA16.jpg,FS,4,num_6,32,num_4,2.00004458286,,,2017_Jun_23_1551,60.0064283179,MAFE4ImagesEEG,001,200726,
AFNE01.JPG,AFNE01.JPG,AFNE01.JPG,AFNE01.JPG,AFNE01.JPG,AFNE01.JPG,,,,,5,2,52,3,,,,,,,,,,,,,,,,,,,AFSA07.jpg,AFSA08.jpg,AFNE20.jpg,AFNE03.jpg,AFNE03.jpg,FN,3,num_4,16,num_4,0.80013663524,,,2017_Jun_23_1551,60.0064283179,MAFE4ImagesEEG,001,200726,
AFNE01.JPG,AFNE01.JPG,AFNE01.JPG,AFNE01.JPG,AFNE01.JPG,AFNE01.JPG,,,,,5,3,53,0,,,,,,,,,,,,,,,,,,,AFNE12.jpg,AFSA02.jpg,AFNE20.jpg,AFSA10.jpg,AFSA10.jpg,FS,4,num_4,32,num_2,1.05018522736,,,2017_Jun_23_1551,60.0064283179,MAFE4ImagesEEG,001,200726,
AFNE01.JPG,AFNE01.JPG,AFNE01.JPG,AFNE01.JPG,AFNE01.JPG,AFNE01.JPG,,,,,5,4,54,8,,,,,,,,,,,,,,,,,,,AFNE07.jpg,AFSA03.jpg,AFNE06.jpg,AFSA12.jpg,AFNE06.jpg,FN,3,num_2,32,num_8,0.93348942681,,,2017_Jun_23_1551,60.0064283179,MAFE4ImagesEEG,001,200726,
AFNE01.JPG,AFNE01.JPG,AFNE01.JPG,AFNE01.JPG,AFNE01.JPG,AFNE01.JPG,,,,,5,5,55,4,,,,,,,,,,,,,,,,,,,AFSA02.jpg,AFNE14.jpg,AFNE19.jpg,AFSA07.jpg,AFNE14.jpg,FN,3,num_6,32,num_8,1.00019084031,,,2017_Jun_23_1551,60.0064283179,MAFE4ImagesEEG,001,200726,
AFNE01.JPG,AFNE01.JPG,AFNE01.JPG,AFNE01.JPG,AFNE01.JPG,AFNE01.JPG,,,,,5,6,56,2,,,,,,,,,,,,,,,,,,,AFNE01.jpg,AFSA18.jpg,AFSA06.jpg,AFNE05.jpg,AFSA18.jpg,FS,4,num_6,32,num_2,1.13344997578,,,2017_Jun_23_1551,60.0064283179,MAFE4ImagesEEG,001,200726,
AFNE01.JPG,AFNE01.JPG,AFNE01.JPG,AFNE01.JPG,AFNE01.JPG,AFNE01.JPG,,,,,5,7,57,7,,,,,,,,,,,,,,,,,,,AFSA06.jpg,AFSA03.jpg,AFNE14.jpg,AFNE03.jpg,AFNE03.jpg,FN,3,num_4,32,num_2,1.28342094882,,,2017_Jun_23_1551,60.0064283179,MAFE4ImagesEEG,001,200726,
AFNE01.JPG,AFNE01.JPG,AFNE01.JPG,AFNE01.JPG,AFNE01.JPG,AFNE01.JPG,,,,,5,8,58,6,,,,,,,,,,,,,,,,,,,AFSA18.jpg,AFSA14.jpg,AFNE17.jpg,AFNE14.jpg,AFSA14.jpg,FS,4,num_6,32,num_8,1.25009125053,,,2017_Jun_23_1551,60.0064283179,MAFE4ImagesEEG,001,200726,
AFNE01.JPG,AFNE01.JPG,AFNE01.JPG,AFNE01.JPG,AFNE01.JPG,AFNE01.JPG,,,,,5,9,59,1,,,,,,,,,,,,,,,,,,,AFSA13.jpg,AFNE09.jpg,AFNE10.jpg,AFSA10.jpg,AFNE09.jpg,FN,3,num_6,32,num_2,1.5667158468,,,2017_Jun_23_1551,60.0064283179,MAFE4ImagesEEG,001,200726,
,,,,,,,,,,,,,,,,,,,,,,,,,,,,,,,,,,,,,,,,,,,space,5.16646695255,2017_Jun_23_1551,60.0064283179,MAFE4ImagesEEG,001,200726,
AFNE01.JPG,AFNE01.JPG,AFNE01.JPG,AFNE01.JPG,AFNE01.JPG,AFNE01.JPG,,,,,,,,,0,0,0,4,,,,,,,,,,,,,,,AMNE07.jpg,AMNE05.jpg,AMSA07.jpg,AMSA19.jpg,AMNE07.jpg,MN,1,num_8,32,num_2,1.36670814904,,,2017_Jun_23_1551,60.0064283179,MAFE4ImagesEEG,001,200726,
AFNE01.JPG,AFNE01.JPG,AFNE01.JPG,AFNE01.JPG,AFNE01.JPG,AFNE01.JPG,,,,,,,,,0,1,1,9,,,,,,,,,,,,,,,AMNE07.jpg,AMSA11.jpg,AMNE20.jpg,AMSA05.jpg,AMSA05.jpg,MS,2,num_4,32,num_6,0.833491671976,,,2017_Jun_23_1551,60.0064283179,MAFE4ImagesEEG,001,200726,
AFNE01.JPG,AFNE01.JPG,AFNE01.JPG,AFNE01.JPG,AFNE01.JPG,AFNE01.JPG,,,,,,,,,0,2,2,6,,,,,,,,,,,,,,,AMNE16.jpg,AMSA17.jpg,AMSA18.jpg,AMNE02.jpg,AMNE02.jpg,MN,1,num_4,32,num_8,0.933487181625,,,2017_Jun_23_1551,60.0064283179,MAFE4ImagesEEG,001,200726,
AFNE01.JPG,AFNE01.JPG,AFNE01.JPG,AFNE01.JPG,AFNE01.JPG,AFNE01.JPG,,,,,,,,,0,3,3,2,,,,,,,,,,,,,,,AMSA19.jpg,AMSA15.jpg,AMNE04.jpg,AMNE08.jpg,AMNE08.jpg,MN,1,num_4,16,num_4,1.08349664346,,,2017_Jun_23_1551,60.0064283179,MAFE4ImagesEEG,001,200726,
AFNE01.JPG,AFNE01.JPG,AFNE01.JPG,AFNE01.JPG,AFNE01.JPG,AFNE01.JPG,,,,,,,,,0,4,4,8,,,,,,,,,,,,,,,AMNE04.jpg,AMSA14.jpg,AMNE19.jpg,AMSA07.jpg,AMSA07.jpg,MS,2,num_4,16,num_4,0.916763476693,,,2017_Jun_23_1551,60.0064283179,MAFE4ImagesEEG,001,200726,
AFNE01.JPG,AFNE01.JPG,AFNE01.JPG,AFNE01.JPG,AFNE01.JPG,AFNE01.JPG,,,,,,,,,0,5,5,7,,,,,,,,,,,,,,,AMSA04.jpg,AMNE03.jpg,AMSA03.jpg,AMNE09.jpg,AMNE09.jpg,MN,1,num_4,16,num_4,0.916793305514,,,2017_Jun_23_1551,60.0064283179,MAFE4ImagesEEG,001,200726,
AFNE01.JPG,AFNE01.JPG,AFNE01.JPG,AFNE01.JPG,AFNE01.JPG,AFNE01.JPG,,,,,,,,,0,6,6,1,,,,,,,,,,,,,,,AMSA13.jpg,AMNE17.jpg,AMNE03.jpg,AMSA18.jpg,AMSA13.jpg,MS,2,num_8,16,num_8,1.03345542836,,,2017_Jun_23_1551,60.0064283179,MAFE4ImagesEEG,001,200726,
AFNE01.JPG,AFNE01.JPG,AFNE01.JPG,AFNE01.JPG,AFNE01.JPG,AFNE01.JPG,,,,,,,,,0,7,7,3,,,,,,,,,,,,,,,AMNE04.jpg,AMSA08.jpg,AMSA01.jpg,AMNE08.jpg,AMNE04.jpg,MN,1,num_8,16,num_8,0.733502897885,,,2017_Jun_23_1551,60.0064283179,MAFE4ImagesEEG,001,200726,
AFNE01.JPG,AFNE01.JPG,AFNE01.JPG,AFNE01.JPG,AFNE01.JPG,AFNE01.JPG,,,,,,,,,0,8,8,0,,,,,,,,,,,,,,,AMNE15.jpg,AMNE20.jpg,AMSA05.jpg,AMSA06.jpg,AMSA05.jpg,MS,2,num_2,32,num_8,0.533467937232,,,2017_Jun_23_1551,60.0064283179,MAFE4ImagesEEG,001,200726,
AFNE01.JPG,AFNE01.JPG,AFNE01.JPG,AFNE01.JPG,AFNE01.JPG,AFNE01.JPG,,,,,,,,,0,9,9,5,,,,,,,,,,,,,,,AMNE06.jpg,AMNE16.jpg,AMSA05.jpg,AMSA08.jpg,AMSA05.jpg,MS,2,num_2,16,num_2,1.15015892668,,,2017_Jun_23_1551,60.0064283179,MAFE4ImagesEEG,001,200726,
AFNE01.JPG,AFNE01.JPG,AFNE01.JPG,AFNE01.JPG,AFNE01.JPG,AFNE01.JPG,,,,,,,,,1,0,10,7,,,,,,,,,,,,,,,AMSA07.jpg,AMSA16.jpg,AMNE06.jpg,AMNE18.jpg,AMSA16.jpg,MS,2,num_6,16,num_6,1.26686948127,,,2017_Jun_23_1551,60.0064283179,MAFE4ImagesEEG,001,200726,
AFNE01.JPG,AFNE01.JPG,AFNE01.JPG,AFNE01.JPG,AFNE01.JPG,AFNE01.JPG,,,,,,,,,1,1,11,9,,,,,,,,,,,,,,,AMNE09.jpg,AMNE04.jpg,AMSA10.jpg,AMSA16.jpg,AMSA16.jpg,MS,2,num_4,16,num_4,0.650101514213,,,2017_Jun_23_1551,60.0064283179,MAFE4ImagesEEG,001,200726,
AFNE01.JPG,AFNE01.JPG,AFNE01.JPG,AFNE01.JPG,AFNE01.JPG,AFNE01.JPG,,,,,,,,,1,2,12,4,,,,,,,,,,,,,,,AMSA06.jpg,AMNE20.jpg,AMSA12.jpg,AMNE19.jpg,AMSA06.jpg,MS,2,num_8,16,num_8,0.766773259267,,,2017_Jun_23_1551,60.0064283179,MAFE4ImagesEEG,001,200726,
AFNE01.JPG,AFNE01.JPG,AFNE01.JPG,AFNE01.JPG,AFNE01.JPG,AFNE01.JPG,,,,,,,,,1,3,13,8,,,,,,,,,,,,,,,AMSA01.jpg,AMNE18.jpg,AMSA07.jpg,AMNE16.jpg,AMNE16.jpg,MN,1,num_4,16,num_4,0.916774381854,,,2017_Jun_23_1551,60.0064283179,MAFE4ImagesEEG,001,200726,
AFNE01.JPG,AFNE01.JPG,AFNE01.JPG,AFNE01.JPG,AFNE01.JPG,AFNE01.JPG,,,,,,,,,1,4,14,1,,,,,,,,,,,,,,,AMNE08.jpg,AMSA12.jpg,AMNE01.jpg,AMSA15.jpg,AMSA15.jpg,MS,2,num_4,32,num_6,1.71666565098,,,2017_Jun_23_1551,60.0064283179,MAFE4ImagesEEG,001,200726,
AFNE01.JPG,AFNE01.JPG,AFNE01.JPG,AFNE01.JPG,AFNE01.JPG,AFNE01.JPG,,,,,,,,,1,5,15,0,,,,,,,,,,,,,,,AMSA03.jpg,AMNE06.jpg,AMSA15.jpg,AMNE16.jpg,AMSA03.jpg,MS,2,num_8,16,num_8,0.633484936436,,,2017_Jun_23_1551,60.0064283179,MAFE4ImagesEEG,001,200726,
AFNE01.JPG,AFNE01.JPG,AFNE01.JPG,AFNE01.JPG,AFNE01.JPG,AFNE01.JPG,,,,,,,,,1,6,16,5,,,,,,,,,,,,,,,AMSA17.jpg,AMSA09.jpg,AMNE06.jpg,AMNE16.jpg,AMSA17.jpg,MS,2,num_8,32,num_6,1.11677855147,,,2017_Jun_23_1551,60.0064283179,MAFE4ImagesEEG,001,200726,
AFNE01.JPG,AFNE01.JPG,AFNE01.JPG,AFNE01.JPG,AFNE01.JPG,AFNE01.JPG,,,,,,,,,1,7,17,6,,,,,,,,,,,,,,,AMNE06.jpg,AMSA19.jpg,AMSA03.jpg,AMNE15.jpg,AMNE06.jpg,MN,1,num_8,32,num_4,0.98349087013,,,2017_Jun_23_1551,60.0064283179,MAFE4ImagesEEG,001,200726,
AFNE01.JPG,AFNE01.JPG,AFNE01.JPG,AFNE01.JPG,AFNE01.JPG,AFNE01.JPG,,,,,,,,,1,8,18,3,,,,,,,,,,,,,,,AMSA16.jpg,AMSA04.jpg,AMNE16.jpg,AMNE09.jpg,AMNE09.jpg,MN,1,num_4,16,num_4,0.816639991797,,,2017_Jun_23_1551,60.0064283179,MAFE4ImagesEEG,001,200726,
AFNE01.JPG,AFNE01.JPG,AFNE01.JPG,AFNE01.JPG,AFNE01.JPG,AFNE01.JPG,,,,,,,,,1,9,19,2,,,,,,,,,,,,,,,AMNE10.jpg,AMSA14.jpg,AMSA08.jpg,AMNE19.jpg,AMNE10.jpg,MN,1,num_8,16,num_8,0.783474512398,,,2017_Jun_23_1551,60.0064283179,MAFE4ImagesEEG,001,200726,
AFNE01.JPG,AFNE01.JPG,AFNE01.JPG,AFNE01.JPG,AFNE01.JPG,AFNE01.JPG,,,,,,,,,2,0,20,0,,,,,,,,,,,,,,,AMNE20.jpg,AMSA01.jpg,AMNE04.jpg,AMSA13.jpg,AMNE04.jpg,MN,1,num_2,32,num_8,0.966666452849,,,2017_Jun_23_1551,60.0064283179,MAFE4ImagesEEG,001,200726,
AFNE01.JPG,AFNE01.JPG,AFNE01.JPG,AFNE01.JPG,AFNE01.JPG,AFNE01.JPG,,,,,,,,,2,1,21,9,,,,,,,,,,,,,,,AMSA02.jpg,AMNE20.jpg,AMSA19.jpg,AMNE09.jpg,AMSA02.jpg,MS,2,num_8,16,num_8,1.10014369152,,,2017_Jun_23_1551,60.0064283179,MAFE4ImagesEEG,001,200726,
AFNE01.JPG,AFNE01.JPG,AFNE01.JPG,AFNE01.JPG,AFNE01.JPG,AFNE01.JPG,,,,,,,,,2,2,22,6,,,,,,,,,,,,,,,AMNE18.jpg,AMSA05.jpg,AMSA20.jpg,AMNE15.jpg,AMNE18.jpg,MN,1,num_8,16,num_8,1.36681174807,,,2017_Jun_23_1551,60.0064283179,MAFE4ImagesEEG,001,200726,
AFNE01.JPG,AFNE01.JPG,AFNE01.JPG,AFNE01.JPG,AFNE01.JPG,AFNE01.JPG,,,,,,,,,2,3,23,7,,,,,,,,,,,,,,,AMSA15.jpg,AMNE01.jpg,AMSA10.jpg,AMNE18.jpg,AMNE18.jpg,MN,1,num_4,16,num_4,0.950151549652,,,2017_Jun_23_1551,60.0064283179,MAFE4ImagesEEG,001,200726,
AFNE01.JPG,AFNE01.JPG,AFNE01.JPG,AFNE01.JPG,AFNE01.JPG,AFNE01.JPG,,,,,,,,,2,4,24,8,,,,,,,,,,,,,,,AMNE01.jpg,AMSA02.jpg,AMSA12.jpg,AMNE08.jpg,AMSA02.jpg,MS,2,num_6,16,num_6,0.950135191917,,,2017_Jun_23_1551,60.0064283179,MAFE4ImagesEEG,001,200726,
AFNE01.JPG,AFNE01.JPG,AFNE01.JPG,AFNE01.JPG,AFNE01.JPG,AFNE01.JPG,,,,,,,,,2,5,25,1,,,,,,,,,,,,,,,AMNE20.jpg,AMNE05.jpg,AMSA07.jpg,AMSA05.jpg,AMSA05.jpg,MS,2,num_4,32,num_2,0.800110976052,,,2017_Jun_23_1551,60.0064283179,MAFE4ImagesEEG,001,200726,
AFNE01.JPG,AFNE01.JPG,AFNE01.JPG,AFNE01.JPG,AFNE01.JPG,AFNE01.JPG,,,,,,,,,2,6,26,5,,,,,,,,,,,,,,,AMNE16.jpg,AMSA10.jpg,AMNE07.jpg,AMSA02.jpg,AMNE16.jpg,MN,1,num_8,16,num_8,0.700161011497,,,2017_Jun_23_1551,60.0064283179,MAFE4ImagesEEG,001,200726,
AFNE01.JPG,AFNE01.JPG,AFNE01.JPG,AFNE01.JPG,AFNE01.JPG,AFNE01.JPG,,,,,,,,,2,7,27,3,,,,,,,,,,,,,,,AMSA07.jpg,AMSA14.jpg,AMNE08.jpg,AMNE13.jpg,AMNE08.jpg,MN,1,num_2,32,num_8,0.766735732686,,,2017_Jun_23_1551,60.0064283179,MAFE4ImagesEEG,001,200726,
AFNE01.JPG,AFNE01.JPG,AFNE01.JPG,AFNE01.JPG,AFNE01.JPG,AFNE01.JPG,,,,,,,,,2,8,28,2,,,,,,,,,,,,,,,AMSA20.jpg,AMSA15.jpg,AMNE02.jpg,AMNE05.jpg,AMSA15.jpg,MS,2,num_6,16,num_6,0.933454786893,,,2017_Jun_23_1551,60.0064283179,MAFE4ImagesEEG,001,200726,
AFNE01.JPG,AFNE01.JPG,AFNE01.JPG,AFNE01.JPG,AFNE01.JPG,AFNE01.JPG,,,,,,,,,2,9,29,4,,,,,,,,,,,,,,,AMNE11.jpg,AMSA08.jpg,AMSA19.jpg,AMNE06.jpg,AMNE06.jpg,MN,1,num_4,32,num_8,0.93346954092,,,2017_Jun_23_1551,60.0064283179,MAFE4ImagesEEG,001,200726,
AFNE01.JPG,AFNE01.JPG,AFNE01.JPG,AFNE01.JPG,AFNE01.JPG,AFNE01.JPG,,,,,,,,,3,0,30,2,,,,,,,,,,,,,,,AMSA11.jpg,AMSA03.jpg,AMNE14.jpg,AMNE20.jpg,AMSA11.jpg,MS,2,num_8,16,num_8,0.783476116092,,,2017_Jun_23_1551,60.0064283179,MAFE4ImagesEEG,001,200726,
AFNE01.JPG,AFNE01.JPG,AFNE01.JPG,AFNE01.JPG,AFNE01.JPG,AFNE01.JPG,,,,,,,,,3,1,31,0,,,,,,,,,,,,,,,AMNE11.jpg,AMSA17.jpg,AMSA12.jpg,AMNE12.jpg,AMNE11.jpg,MN,1,num_8,32,num_4,1.06683965244,,,2017_Jun_23_1551,60.0064283179,MAFE4ImagesEEG,001,200726,
AFNE01.JPG,AFNE01.JPG,AFNE01.JPG,AFNE01.JPG,AFNE01.JPG,AFNE01.JPG,,,,,,,,,3,2,32,1,,,,,,,,,,,,,,,AMSA16.jpg,AMSA10.jpg,AMNE10.jpg,AMNE04.jpg,AMSA10.jpg,MS,2,num_6,16,num_6,0.816793946986,,,2017_Jun_23_1551,60.0064283179,MAFE4ImagesEEG,001,200726,
AFNE01.JPG,AFNE01.JPG,AFNE01.JPG,AFNE01.JPG,AFNE01.JPG,AFNE01.JPG,,,,,,,,,3,3,33,5,,,,,,,,,,,,,,,AMSA08.jpg,AMSA05.jpg,AMNE18.jpg,AMNE06.jpg,AMSA05.jpg,MS,2,num_6,32,num_8,2.08368171044,,,2017_Jun_23_1551,60.0064283179,MAFE4ImagesEEG,001,200726,
AFNE01.JPG,AFNE01.JPG,AFNE01.JPG,AFNE01.JPG,AFNE01.JPG,AFNE01.JPG,,,,,,,,,3,4,34,9,,,,,,,,,,,,,,,AMNE17.jpg,AMSA08.jpg,AMSA06.jpg,AMNE13.jpg,AMNE17.jpg,MN,1,num_8,32,num_4,1.3834007422,,,2017_Jun_23_1551,60.0064283179,MAFE4ImagesEEG,001,200726,
AFNE01.JPG,AFNE01.JPG,AFNE01.JPG,AFNE01.JPG,AFNE01.JPG,AFNE01.JPG,,,,,,,,,3,5,35,7,,,,,,,,,,,,,,,AMSA16.jpg,AMSA19.jpg,AMNE05.jpg,AMNE17.jpg,AMSA19.jpg,MS,2,num_6,32,num_8,0.88346424872,,,2017_Jun_23_1551,60.0064283179,MAFE4ImagesEEG,001,200726,
AFNE01.JPG,AFNE01.JPG,AFNE01.JPG,AFNE01.JPG,AFNE01.JPG,AFNE01.JPG,,,,,,,,,3,6,36,8,,,,,,,,,,,,,,,AMSA17.jpg,AMNE17.jpg,AMNE02.jpg,AMSA19.jpg,AMNE02.jpg,MN,1,num_2,16,num_2,2.08331061425,,,2017_Jun_23_1551,60.0064283179,MAFE4ImagesEEG,001,200726,
AFNE01.JPG,AFNE01.JPG,AFNE01.JPG,AFNE01.JPG,AFNE01.JPG,AFNE01.JPG,,,,,,,,,3,7,37,3,,,,,,,,,,,,,,,AMNE14.jpg,AMSA14.jpg,AMSA09.jpg,AMNE16.jpg,AMSA14.jpg,MS,2,num_6,16,num_6,0.866779994802,,,2017_Jun_23_1551,60.0064283179,MAFE4ImagesEEG,001,200726,
AFNE01.JPG,AFNE01.JPG,AFNE01.JPG,AFNE01.JPG,AFNE01.JPG,AFNE01.JPG,,,,,,,,,3,8,38,4,,,,,,,,,,,,,,,AMNE08.jpg,AMSA08.jpg,AMSA02.jpg,AMNE07.jpg,AMSA02.jpg,MS,2,num_2,16,num_2,0.700164860362,,,2017_Jun_23_1551,60.0064283179,MAFE4ImagesEEG,001,200726,
AFNE01.JPG,AFNE01.JPG,AFNE01.JPG,AFNE01.JPG,AFNE01.JPG,AFNE01.JPG,,,,,,,,,3,9,39,6,,,,,,,,,,,,,,,AMNE02.jpg,AMSA13.jpg,AMSA11.jpg,AMNE01.jpg,AMNE01.jpg,MN,1,num_4,32,num_8,1.00012412638,,,2017_Jun_23_1551,60.0064283179,MAFE4ImagesEEG,001,200726,
AFNE01.JPG,AFNE01.JPG,AFNE01.JPG,AFNE01.JPG,AFNE01.JPG,AFNE01.JPG,,,,,,,,,4,0,40,4,,,,,,,,,,,,,,,AMNE18.jpg,AMSA20.jpg,AMSA19.jpg,AMNE11.jpg,AMNE11.jpg,MN,1,num_4,32,num_8,0.816790098121,,,2017_Jun_23_1551,60.0064283179,MAFE4ImagesEEG,001,200726,
AFNE01.JPG,AFNE01.JPG,AFNE01.JPG,AFNE01.JPG,AFNE01.JPG,AFNE01.JPG,,,,,,,,,4,1,41,2,,,,,,,,,,,,,,,AMNE06.jpg,AMSA09.jpg,AMSA08.jpg,AMNE03.jpg,AMNE06.jpg,MN,1,num_8,16,num_8,1.0667334875,,,2017_Jun_23_1551,60.0064283179,MAFE4ImagesEEG,001,200726,
AFNE01.JPG,AFNE01.JPG,AFNE01.JPG,AFNE01.JPG,AFNE01.JPG,AFNE01.JPG,,,,,,,,,4,2,42,8,,,,,,,,,,,,,,,AMSA03.jpg,AMNE18.jpg,AMNE10.jpg,AMSA19.jpg,AMSA19.jpg,MS,2,num_4,32,num_8,1.30008884498,,,2017_Jun_23_1551,60.0064283179,MAFE4ImagesEEG,001,200726,
AFNE01.JPG,AFNE01.JPG,AFNE01.JPG,AFNE01.JPG,AFNE01.JPG,AFNE01.JPG,,,,,,,,,4,3,43,9,,,,,,,,,,,,,,,AMSA19.jpg,AMNE19.jpg,AMNE02.jpg,AMSA01.jpg,AMNE02.jpg,MN,1,num_2,32,num_6,0.866776466661,,,2017_Jun_23_1551,60.0064283179,MAFE4ImagesEEG,001,200726,
AFNE01.JPG,AFNE01.JPG,AFNE01.JPG,AFNE01.JPG,AFNE01.JPG,AFNE01.JPG,,,,,,,,,4,4,44,7,,,,,,,,,,,,,,,AMNE10.jpg,AMSA16.jpg,AMNE11.jpg,AMSA15.jpg,AMNE10.jpg,MN,1,num_8,32,num_2,0.750189717728,,,2017_Jun_23_1551,60.0064283179,MAFE4ImagesEEG,001,200726,
AFNE01.JPG,AFNE01.JPG,AFNE01.JPG,AFNE01.JPG,AFNE01.JPG,AFNE01.JPG,,,,,,,,,4,5,45,1,,,,,,,,,,,,,,,AMNE17.jpg,AMSA03.jpg,AMNE05.jpg,AMSA06.jpg,AMSA03.jpg,MS,2,num_6,16,num_6,0.833469861667,,,2017_Jun_23_1551,60.0064283179,MAFE4ImagesEEG,001,200726,
AFNE01.JPG,AFNE01.JPG,AFNE01.JPG,AFNE01.JPG,AFNE01.JPG,AFNE01.JPG,,,,,,,,,4,6,46,0,,,,,,,,,,,,,,,AMNE10.jpg,AMNE15.jpg,AMSA05.jpg,AMSA11.jpg,AMSA05.jpg,MS,2,num_2,16,num_2,1.05013743709,,,2017_Jun_23_1551,60.0064283179,MAFE4ImagesEEG,001,200726,
AFNE01.JPG,AFNE01.JPG,AFNE01.JPG,AFNE01.JPG,AFNE01.JPG,AFNE01.JPG,,,,,,,,,4,7,47,6,,,,,,,,,,,,,,,AMNE16.jpg,AMSA02.jpg,AMSA06.jpg,AMNE06.jpg,AMNE06.jpg,MN,1,num_4,32,num_8,1.10012701304,,,2017_Jun_23_1551,60.0064283179,MAFE4ImagesEEG,001,200726,
AFNE01.JPG,AFNE01.JPG,AFNE01.JPG,AFNE01.JPG,AFNE01.JPG,AFNE01.JPG,,,,,,,,,4,8,48,5,,,,,,,,,,,,,,,AMNE18.jpg,AMNE06.jpg,AMSA20.jpg,AMSA13.jpg,AMNE18.jpg,MN,1,num_8,16,num_8,1.00015620037,,,2017_Jun_23_1551,60.0064283179,MAFE4ImagesEEG,001,200726,
AFNE01.JPG,AFNE01.JPG,AFNE01.JPG,AFNE01.JPG,AFNE01.JPG,AFNE01.JPG,,,,,,,,,4,9,49,3,,,,,,,,,,,,,,,AMNE01.jpg,AMNE19.jpg,AMSA07.jpg,AMSA15.jpg,AMSA15.jpg,MS,2,num_4,16,num_4,0.566809823635,,,2017_Jun_23_1551,60.0064283179,MAFE4ImagesEEG,001,200726,
AFNE01.JPG,AFNE01.JPG,AFNE01.JPG,AFNE01.JPG,AFNE01.JPG,AFNE01.JPG,,,,,,,,,5,0,50,2,,,,,,,,,,,,,,,AMNE12.jpg,AMSA01.jpg,AMSA15.jpg,AMNE03.jpg,AMNE03.jpg,MN,1,num_4,32,num_8,1.00011546639,,,2017_Jun_23_1551,60.0064283179,MAFE4ImagesEEG,001,200726,
AFNE01.JPG,AFNE01.JPG,AFNE01.JPG,AFNE01.JPG,AFNE01.JPG,AFNE01.JPG,,,,,,,,,5,1,51,9,,,,,,,,,,,,,,,AMSA05.jpg,AMNE11.jpg,AMSA09.jpg,AMNE14.jpg,AMSA05.jpg,MS,2,num_8,16,num_8,0.683477078317,,,2017_Jun_23_1551,60.0064283179,MAFE4ImagesEEG,001,200726,
AFNE01.JPG,AFNE01.JPG,AFNE01.JPG,AFNE01.JPG,AFNE01.JPG,AFNE01.JPG,,,,,,,,,5,2,52,7,,,,,,,,,,,,,,,AMNE19.jpg,AMSA04.jpg,AMNE15.jpg,AMSA03.jpg,AMNE19.jpg,MN,1,num_8,16,num_8,0.916721780493,,,2017_Jun_23_1551,60.0064283179,MAFE4ImagesEEG,001,200726,
AFNE01.JPG,AFNE01.JPG,AFNE01.JPG,AFNE01.JPG,AFNE01.JPG,AFNE01.JPG,,,,,,,,,5,3,53,1,,,,,,,,,,,,,,,AMNE02.jpg,AMNE08.jpg,AMSA06.jpg,AMSA19.jpg,AMNE08.jpg,MN,1,num_6,16,num_6,1.0668136725,,,2017_Jun_23_1551,60.0064283179,MAFE4ImagesEEG,001,200726,
AFNE01.JPG,AFNE01.JPG,AFNE01.JPG,AFNE01.JPG,AFNE01.JPG,AFNE01.JPG,,,,,,,,,5,4,54,5,,,,,,,,,,,,,,,AMSA13.jpg,AMNE08.jpg,AMSA16.jpg,AMNE11.jpg,AMNE08.jpg,MN,1,num_6,16,num_6,1.2501454556,,,2017_Jun_23_1551,60.0064283179,MAFE4ImagesEEG,001,200726,
AFNE01.JPG,AFNE01.JPG,AFNE01.JPG,AFNE01.JPG,AFNE01.JPG,AFNE01.JPG,,,,,,,,,5,5,55,3,,,,,,,,,,,,,,,AMNE10.jpg,AMNE04.jpg,AMSA15.jpg,AMSA05.jpg,AMSA15.jpg,MS,2,num_2,32,num_4,0.933516368968,,,2017_Jun_23_1551,60.0064283179,MAFE4ImagesEEG,001,200726,
AFNE01.JPG,AFNE01.JPG,AFNE01.JPG,AFNE01.JPG,AFNE01.JPG,AFNE01.JPG,,,,,,,,,5,6,56,6,,,,,,,,,,,,,,,AMNE20.jpg,AMSA16.jpg,AMNE18.jpg,AMSA01.jpg,AMNE20.jpg,MN,1,num_8,16,num_8,0.933313661284,,,2017_Jun_23_1551,60.0064283179,MAFE4ImagesEEG,001,200726,
AFNE01.JPG,AFNE01.JPG,AFNE01.JPG,AFNE01.JPG,AFNE01.JPG,AFNE01.JPG,,,,,,,,,5,7,57,4,,,,,,,,,,,,,,,AMSA05.jpg,AMNE03.jpg,AMSA09.jpg,AMNE02.jpg,AMSA05.jpg,MS,2,num_8,32,num_2,1.06689193306,,,2017_Jun_23_1551,60.0064283179,MAFE4ImagesEEG,001,200726,
AFNE01.JPG,AFNE01.JPG,AFNE01.JPG,AFNE01.JPG,AFNE01.JPG,AFNE01.JPG,,,,,,,,,5,8,58,8,,,,,,,,,,,,,,,AMNE12.jpg,AMSA09.jpg,AMSA02.jpg,AMNE10.jpg,AMSA02.jpg,MS,2,num_2,16,num_2,1.10020302843,,,2017_Jun_23_1551,60.0064283179,MAFE4ImagesEEG,001,200726,
AFNE01.JPG,AFNE01.JPG,AFNE01.JPG,AFNE01.JPG,AFNE01.JPG,AFNE01.JPG,,,,,,,,,5,9,59,0,,,,,,,,,,,,,,,AMSA12.jpg,AMNE17.jpg,AMSA20.jpg,AMNE14.jpg,AMSA12.jpg,MS,2,num_8,32,num_2,0.733462163902,,,2017_Jun_23_1551,60.0064283179,MAFE4ImagesEEG,001,200726,
,,,,,,,,,,,,,,,,,,,,,,,,,,,,,,,,,,,,,,,,,,,space,3.38322946703,2017_Jun_23_1551,60.0064283179,MAFE4ImagesEEG,001,200726,
AFNE01.JPG,AFNE01.JPG,AFNE01.JPG,AFNE01.JPG,AFNE01.JPG,AFNE01.JPG,,,,,,,,,,,,,0,0,0,6,,,,,,,,,,,AFNE20.jpg,AFNE12.jpg,AFSA20.jpg,AFSA07.jpg,AFNE20.jpg,FN,3,num_8,32,num_6,1.10023317799,,,2017_Jun_23_1551,60.0064283179,MAFE4ImagesEEG,001,200726,
AFNE01.JPG,AFNE01.JPG,AFNE01.JPG,AFNE01.JPG,AFNE01.JPG,AFNE01.JPG,,,,,,,,,,,,,0,1,1,3,,,,,,,,,,,AFSA16.jpg,AFSA19.jpg,AFNE04.jpg,AFNE02.jpg,AFNE02.jpg,FN,3,num_4,32,num_2,1.08344789097,,,2017_Jun_23_1551,60.0064283179,MAFE4ImagesEEG,001,200726,
AFNE01.JPG,AFNE01.JPG,AFNE01.JPG,AFNE01.JPG,AFNE01.JPG,AFNE01.JPG,,,,,,,,,,,,,0,2,2,7,,,,,,,,,,,AFNE19.jpg,AFSA20.jpg,AFNE03.jpg,AFSA19.jpg,AFSA19.jpg,FS,4,num_4,16,num_4,0.766653943967,,,2017_Jun_23_1551,60.0064283179,MAFE4ImagesEEG,001,200726,
AFNE01.JPG,AFNE01.JPG,AFNE01.JPG,AFNE01.JPG,AFNE01.JPG,AFNE01.JPG,,,,,,,,,,,,,0,3,3,0,,,,,,,,,,,AFSA06.jpg,AFSA20.jpg,AFNE05.jpg,AFNE13.jpg,AFNE05.jpg,FN,3,num_2,16,num_2,2.13336433819,,,2017_Jun_23_1551,60.0064283179,MAFE4ImagesEEG,001,200726,
AFNE01.JPG,AFNE01.JPG,AFNE01.JPG,AFNE01.JPG,AFNE01.JPG,AFNE01.JPG,,,,,,,,,,,,,0,4,4,2,,,,,,,,,,,AFSA20.jpg,AFNE09.jpg,AFSA03.jpg,AFNE08.jpg,AFNE08.jpg,FN,3,num_4,16,num_4,0.933425599535,,,2017_Jun_23_1551,60.0064283179,MAFE4ImagesEEG,001,200726,
AFNE01.JPG,AFNE01.JPG,AFNE01.JPG,AFNE01.JPG,AFNE01.JPG,AFNE01.JPG,,,,,,,,,,,,,0,5,5,5,,,,,,,,,,,AFSA05.jpg,AFNE11.jpg,AFNE05.jpg,AFSA04.jpg,AFNE05.jpg,FN,3,num_2,32,num_6,0.96705615196,,,2017_Jun_23_1551,60.0064283179,MAFE4ImagesEEG,001,200726,
AFNE01.JPG,AFNE01.JPG,AFNE01.JPG,AFNE01.JPG,AFNE01.JPG,AFNE01.JPG,,,,,,,,,,,,,0,6,6,8,,,,,,,,,,,AFNE01.jpg,AFNE19.jpg,AFSA17.jpg,AFSA02.jpg,AFNE01.jpg,FN,3,num_8,32,num_6,0.783474191659,,,2017_Jun_23_1551,60.0064283179,MAFE4ImagesEEG,001,200726,
AFNE01.JPG,AFNE01.JPG,AFNE01.JPG,AFNE01.JPG,AFNE01.JPG,AFNE01.JPG,,,,,,,,,,,,,0,7,7,1,,,,,,,,,,,AFNE03.jpg,AFSA14.jpg,AFNE10.jpg,AFSA19.jpg,AFNE03.jpg,FN,3,num_8,16,num_8,1.05011690973,,,2017_Jun_23_1551,60.0064283179,MAFE4ImagesEEG,001,200726,
AFNE01.JPG,AFNE01.JPG,AFNE01.JPG,AFNE01.JPG,AFNE01.JPG,AFNE01.JPG,,,,,,,,,,,,,0,8,8,4,,,,,,,,,,,AFNE02.jpg,AFSA08.jpg,AFNE03.jpg,AFSA15.jpg,AFSA15.jpg,FS,4,num_4,16,num_4,0.700150747813,,,2017_Jun_23_1551,60.0064283179,MAFE4ImagesEEG,001,200726,
AFNE01.JPG,AFNE01.JPG,AFNE01.JPG,AFNE01.JPG,AFNE01.JPG,AFNE01.JPG,,,,,,,,,,,,,0,9,9,9,,,,,,,,,,,AFNE05.jpg,AFSA11.jpg,AFSA07.jpg,AFNE02.jpg,AFSA11.jpg,FS,4,num_6,16,num_6,0.766661641726,,,2017_Jun_23_1551,60.0064283179,MAFE4ImagesEEG,001,200726,
AFNE01.JPG,AFNE01.JPG,AFNE01.JPG,AFNE01.JPG,AFNE01.JPG,AFNE01.JPG,,,,,,,,,,,,,1,0,10,1,,,,,,,,,,,AFSA12.jpg,AFNE05.jpg,AFSA09.jpg,AFNE19.jpg,AFNE19.jpg,FN,3,num_4,32,num_6,1.68322625963,,,2017_Jun_23_1551,60.0064283179,MAFE4ImagesEEG,001,200726,
AFNE01.JPG,AFNE01.JPG,AFNE01.JPG,AFNE01.JPG,AFNE01.JPG,AFNE01.JPG,,,,,,,,,,,,,1,1,11,3,,,,,,,,,,,AFSA06.jpg,AFNE07.jpg,AFNE20.jpg,AFSA03.jpg,AFNE20.jpg,FN,3,num_2,32,num_6,1.03348301201,,,2017_Jun_23_1551,60.0064283179,MAFE4ImagesEEG,001,200726,
AFNE01.JPG,AFNE01.JPG,AFNE01.JPG,AFNE01.JPG,AFNE01.JPG,AFNE01.JPG,,,,,,,,,,,,,1,2,12,5,,,,,,,,,,,AFSA02.jpg,AFNE07.jpg,AFSA05.jpg,AFNE18.jpg,AFSA02.jpg,FS,4,num_8,16,num_8,1.08347707833,,,2017_Jun_23_1551,60.0064283179,MAFE4ImagesEEG,001,200726,
AFNE01.JPG,AFNE01.JPG,AFNE01.JPG,AFNE01.JPG,AFNE01.JPG,AFNE01.JPG,,,,,,,,,,,,,1,3,13,7,,,,,,,,,,,AFSA18.jpg,AFNE03.jpg,AFNE10.jpg,AFSA09.jpg,AFNE03.jpg,FN,3,num_6,16,num_6,0.850141285977,,,2017_Jun_23_1551,60.0064283179,MAFE4ImagesEEG,001,200726,
AFNE01.JPG,AFNE01.JPG,AFNE01.JPG,AFNE01.JPG,AFNE01.JPG,AFNE01.JPG,,,,,,,,,,,,,1,4,14,6,,,,,,,,,,,AFSA01.jpg,AFNE18.jpg,AFSA13.jpg,AFNE10.jpg,AFNE10.jpg,FN,3,num_4,16,num_4,0.950133267484,,,2017_Jun_23_1551,60.0064283179,MAFE4ImagesEEG,001,200726,
AFNE01.JPG,AFNE01.JPG,AFNE01.JPG,AFNE01.JPG,AFNE01.JPG,AFNE01.JPG,,,,,,,,,,,,,1,5,15,4,,,,,,,,,,,AFNE03.jpg,AFSA03.jpg,AFNE16.jpg,AFSA06.jpg,AFNE16.jpg,FN,3,num_2,16,num_2,0.950113702333,,,2017_Jun_23_1551,60.0064283179,MAFE4ImagesEEG,001,200726,
AFNE01.JPG,AFNE01.JPG,AFNE01.JPG,AFNE01.JPG,AFNE01.JPG,AFNE01.JPG,,,,,,,,,,,,,1,6,16,8,,,,,,,,,,,AFSA06.jpg,AFNE19.jpg,AFSA15.jpg,AFNE16.jpg,AFSA06.jpg,FS,4,num_8,32,num_4,0.683471946468,,,2017_Jun_23_1551,60.0064283179,MAFE4ImagesEEG,001,200726,
AFNE01.JPG,AFNE01.JPG,AFNE01.JPG,AFNE01.JPG,AFNE01.JPG,AFNE01.JPG,,,,,,,,,,,,,1,7,17,2,,,,,,,,,,,AFSA02.jpg,AFNE04.jpg,AFNE20.jpg,AFSA19.jpg,AFNE20.jpg,FN,3,num_2,32,num_6,1.15009894829,,,2017_Jun_23_1551,60.0064283179,MAFE4ImagesEEG,001,200726,
AFNE01.JPG,AFNE01.JPG,AFNE01.JPG,AFNE01.JPG,AFNE01.JPG,AFNE01.JPG,,,,,,,,,,,,,1,8,18,0,,,,,,,,,,,AFSA13.jpg,AFNE09.jpg,AFSA18.jpg,AFNE10.jpg,AFNE10.jpg,FN,3,num_4,16,num_4,2.066693395,,,2017_Jun_23_1551,60.0064283179,MAFE4ImagesEEG,001,200726,
AFNE01.JPG,AFNE01.JPG,AFNE01.JPG,AFNE01.JPG,AFNE01.JPG,AFNE01.JPG,,,,,,,,,,,,,1,9,19,9,,,,,,,,,,,AFNE09.jpg,AFSA08.jpg,AFSA15.jpg,AFNE20.jpg,AFSA08.jpg,FS,4,num_6,16,num_6,0.683452702069,,,2017_Jun_23_1551,60.0064283179,MAFE4ImagesEEG,001,200726,
AFNE01.JPG,AFNE01.JPG,AFNE01.JPG,AFNE01.JPG,AFNE01.JPG,AFNE01.JPG,,,,,,,,,,,,,2,0,20,8,,,,,,,,,,,AFNE19.jpg,AFSA07.jpg,AFNE03.jpg,AFSA08.jpg,AFNE19.jpg,FN,3,num_8,32,num_6,1.15026541236,,,2017_Jun_23_1551,60.0064283179,MAFE4ImagesEEG,001,200726,
AFNE01.JPG,AFNE01.JPG,AFNE01.JPG,AFNE01.JPG,AFNE01.JPG,AFNE01.JPG,,,,,,,,,,,,,2,1,21,6,,,,,,,,,,,AFNE05.jpg,AFSA17.jpg,AFNE12.jpg,AFSA11.jpg,AFNE12.jpg,FN,3,num_2,16,num_2,0.816841737251,,,2017_Jun_23_1551,60.0064283179,MAFE4ImagesEEG,001,200726,
AFNE01.JPG,AFNE01.JPG,AFNE01.JPG,AFNE01.JPG,AFNE01.JPG,AFNE01.JPG,,,,,,,,,,,,,2,2,22,1,,,,,,,,,,,AFSA05.jpg,AFSA06.jpg,AFNE07.jpg,AFNE09.jpg,AFSA05.jpg,FS,4,num_8,16,num_8,1.00008948646,,,2017_Jun_23_1551,60.0064283179,MAFE4ImagesEEG,001,200726,
AFNE01.JPG,AFNE01.JPG,AFNE01.JPG,AFNE01.JPG,AFNE01.JPG,AFNE01.JPG,,,,,,,,,,,,,2,3,23,5,,,,,,,,,,,AFNE15.jpg,AFNE10.jpg,AFSA04.jpg,AFSA16.jpg,AFSA04.jpg,FS,4,num_2,32,num_4,0.866797314768,,,2017_Jun_23_1551,60.0064283179,MAFE4ImagesEEG,001,200726,
AFNE01.JPG,AFNE01.JPG,AFNE01.JPG,AFNE01.JPG,AFNE01.JPG,AFNE01.JPG,,,,,,,,,,,,,2,4,24,3,,,,,,,,,,,AFSA18.jpg,AFNE08.jpg,AFSA07.jpg,AFNE12.jpg,AFNE08.jpg,FN,3,num_6,32,num_4,1.31673717602,,,2017_Jun_23_1551,60.0064283179,MAFE4ImagesEEG,001,200726,
AFNE01.JPG,AFNE01.JPG,AFNE01.JPG,AFNE01.JPG,AFNE01.JPG,AFNE01.JPG,,,,,,,,,,,,,2,5,25,2,,,,,,,,,,,AFNE03.jpg,AFSA05.jpg,AFNE08.jpg,AFSA20.jpg,AFSA20.jpg,FS,4,num_4,32,num_6,0.816768608536,,,2017_Jun_23_1551,60.0064283179,MAFE4ImagesEEG,001,200726,
AFNE01.JPG,AFNE01.JPG,AFNE01.JPG,AFNE01.JPG,AFNE01.JPG,AFNE01.JPG,,,,,,,,,,,,,2,6,26,7,,,,,,,,,,,AFNE13.jpg,AFSA08.jpg,AFNE03.jpg,AFSA06.jpg,AFSA08.jpg,FS,4,num_6,16,num_6,1.03347050316,,,2017_Jun_23_1551,60.0064283179,MAFE4ImagesEEG,001,200726,
AFNE01.JPG,AFNE01.JPG,AFNE01.JPG,AFNE01.JPG,AFNE01.JPG,AFNE01.JPG,,,,,,,,,,,,,2,7,27,0,,,,,,,,,,,AFSA17.jpg,AFNE07.jpg,AFNE05.jpg,AFSA15.jpg,AFNE07.jpg,FN,3,num_6,16,num_6,1.01695463774,,,2017_Jun_23_1551,60.0064283179,MAFE4ImagesEEG,001,200726,
AFNE01.JPG,AFNE01.JPG,AFNE01.JPG,AFNE01.JPG,AFNE01.JPG,AFNE01.JPG,,,,,,,,,,,,,2,8,28,4,,,,,,,,,,,AFSA20.jpg,AFNE05.jpg,AFSA10.jpg,AFNE16.jpg,AFNE05.jpg,FN,3,num_6,16,num_6,1.18358965806,,,2017_Jun_23_1551,60.0064283179,MAFE4ImagesEEG,001,200726,
AFNE01.JPG,AFNE01.JPG,AFNE01.JPG,AFNE01.JPG,AFNE01.JPG,AFNE01.JPG,,,,,,,,,,,,,2,9,29,9,,,,,,,,,,,AFNE03.jpg,AFNE06.jpg,AFSA16.jpg,AFSA04.jpg,AFSA16.jpg,FS,4,num_2,16,num_2,0.966737657131,,,2017_Jun_23_1551,60.0064283179,MAFE4ImagesEEG,001,200726,
AFNE01.JPG,AFNE01.JPG,AFNE01.JPG,AFNE01.JPG,AFNE01.JPG,AFNE01.JPG,,,,,,,,,,,,,3,0,30,3,,,,,,,,,,,AFSA19.jpg,AFSA08.jpg,AFNE08.jpg,AFNE03.jpg,AFNE03.jpg,FN,3,num_4,16,num_4,0.800152351498,,,2017_Jun_23_1551,60.0064283179,MAFE4ImagesEEG,001,200726,
AFNE01.JPG,AFNE01.JPG,AFNE01.JPG,AFNE01.JPG,AFNE01.JPG,AFNE01.JPG,,,,,,,,,,,,,3,1,31,9,,,,,,,,,,,AFSA17.jpg,AFSA16.jpg,AFNE01.jpg,AFNE05.jpg,AFSA16.jpg,FS,4,num_6,16,num_6,0.733514444524,,,2017_Jun_23_1551,60.0064283179,MAFE4ImagesEEG,001,200726,
AFNE01.JPG,AFNE01.JPG,AFNE01.JPG,AFNE01.JPG,AFNE01.JPG,AFNE01.JPG,,,,,,,,,,,,,3,2,32,8,,,,,,,,,,,AFNE09.jpg,AFSA12.jpg,AFNE10.jpg,AFSA13.jpg,AFNE09.jpg,FN,3,num_8,16,num_8,0.800150106326,,,2017_Jun_23_1551,60.0064283179,MAFE4ImagesEEG,001,200726,
AFNE01.JPG,AFNE01.JPG,AFNE01.JPG,AFNE01.JPG,AFNE01.JPG,AFNE01.JPG,,,,,,,,,,,,,3,3,33,6,,,,,,,,,,,AFSA14.jpg,AFNE04.jpg,AFSA01.jpg,AFNE15.jpg,AFSA14.jpg,FS,4,num_8,16,num_8,0.750140644494,,,2017_Jun_23_1551,60.0064283179,MAFE4ImagesEEG,001,200726,
AFNE01.JPG,AFNE01.JPG,AFNE01.JPG,AFNE01.JPG,AFNE01.JPG,AFNE01.JPG,,,,,,,,,,,,,3,4,34,2,,,,,,,,,,,AFSA01.jpg,AFNE16.jpg,AFNE11.jpg,AFSA15.jpg,AFSA15.jpg,FS,4,num_4,16,num_4,0.666812710289,,,2017_Jun_23_1551,60.0064283179,MAFE4ImagesEEG,001,200726,
AFNE01.JPG,AFNE01.JPG,AFNE01.JPG,AFNE01.JPG,AFNE01.JPG,AFNE01.JPG,,,,,,,,,,,,,3,5,35,0,,,,,,,,,,,AFNE12.jpg,AFNE15.jpg,AFSA16.jpg,AFSA06.jpg,AFSA06.jpg,FS,4,num_4,16,num_4,0.816765401134,,,2017_Jun_23_1551,60.0064283179,MAFE4ImagesEEG,001,200726,
AFNE01.JPG,AFNE01.JPG,AFNE01.JPG,AFNE01.JPG,AFNE01.JPG,AFNE01.JPG,,,,,,,,,,,,,3,6,36,7,,,,,,,,,,,AFNE07.jpg,AFSA16.jpg,AFNE02.jpg,AFSA12.jpg,AFNE07.jpg,FN,3,num_8,16,num_8,1.05010087274,,,2017_Jun_23_1551,60.0064283179,MAFE4ImagesEEG,001,200726,
AFNE01.JPG,AFNE01.JPG,AFNE01.JPG,AFNE01.JPG,AFNE01.JPG,AFNE01.JPG,,,,,,,,,,,,,3,7,37,4,,,,,,,,,,,AFSA03.jpg,AFNE19.jpg,AFNE02.jpg,AFSA04.jpg,AFNE02.jpg,FN,3,num_2,32,num_4,1.18345815466,,,2017_Jun_23_1551,60.0064283179,MAFE4ImagesEEG,001,200726,
AFNE01.JPG,AFNE01.JPG,AFNE01.JPG,AFNE01.JPG,AFNE01.JPG,AFNE01.JPG,,,,,,,,,,,,,3,8,38,5,,,,,,,,,,,AFNE16.jpg,AFSA11.jpg,AFNE14.jpg,AFSA02.jpg,AFNE16.jpg,FN,3,num_8,32,num_4,0.850179454035,,,2017_Jun_23_1551,60.0064283179,MAFE4ImagesEEG,001,200726,
AFNE01.JPG,AFNE01.JPG,AFNE01.JPG,AFNE01.JPG,AFNE01.JPG,AFNE01.JPG,,,,,,,,,,,,,3,9,39,1,,,,,,,,,,,AFSA16.jpg,AFNE20.jpg,AFNE03.jpg,AFSA03.jpg,AFNE20.jpg,FN,3,num_6,16,num_6,0.899970171187,,,2017_Jun_23_1551,60.0064283179,MAFE4ImagesEEG,001,200726,
AFNE01.JPG,AFNE01.JPG,AFNE01.JPG,AFNE01.JPG,AFNE01.JPG,AFNE01.JPG,,,,,,,,,,,,,4,0,40,4,,,,,,,,,,,AFNE19.jpg,AFNE01.jpg,AFSA07.jpg,AFSA13.jpg,AFNE19.jpg,FN,3,num_8,16,num_8,0.800133748577,,,2017_Jun_23_1551,60.0064283179,MAFE4ImagesEEG,001,200726,
AFNE01.JPG,AFNE01.JPG,AFNE01.JPG,AFNE01.JPG,AFNE01.JPG,AFNE01.JPG,,,,,,,,,,,,,4,1,41,9,,,,,,,,,,,AFNE04.jpg,AFNE05.jpg,AFSA05.jpg,AFSA06.jpg,AFSA05.jpg,FS,4,num_2,16,num_2,1.2001250886,,,2017_Jun_23_1551,60.0064283179,MAFE4ImagesEEG,001,200726,
AFNE01.JPG,AFNE01.JPG,AFNE01.JPG,AFNE01.JPG,AFNE01.JPG,AFNE01.JPG,,,,,,,,,,,,,4,2,42,1,,,,,,,,,,,AFNE07.jpg,AFNE08.jpg,AFSA06.jpg,AFSA12.jpg,AFNE08.jpg,FN,3,num_6,16,num_6,1.25008259054,,,2017_Jun_23_1551,60.0064283179,MAFE4ImagesEEG,001,200726,
AFNE01.JPG,AFNE01.JPG,AFNE01.JPG,AFNE01.JPG,AFNE01.JPG,AFNE01.JPG,,,,,,,,,,,,,4,3,43,3,,,,,,,,,,,AFSA01.jpg,AFNE09.jpg,AFNE11.jpg,AFSA04.jpg,AFNE11.jpg,FN,3,num_2,32,num_8,1.75011081569,,,2017_Jun_23_1551,60.0064283179,MAFE4ImagesEEG,001,200726,
AFNE01.JPG,AFNE01.JPG,AFNE01.JPG,AFNE01.JPG,AFNE01.JPG,AFNE01.JPG,,,,,,,,,,,,,4,4,44,6,,,,,,,,,,,AFNE16.jpg,AFSA06.jpg,AFNE01.jpg,AFSA19.jpg,AFSA06.jpg,FS,4,num_6,16,num_6,0.91679426773,,,2017_Jun_23_1551,60.0064283179,MAFE4ImagesEEG,001,200726,
AFNE01.JPG,AFNE01.JPG,AFNE01.JPG,AFNE01.JPG,AFNE01.JPG,AFNE01.JPG,,,,,,,,,,,,,4,5,45,2,,,,,,,,,,,AFNE18.jpg,AFSA19.jpg,AFNE16.jpg,AFSA17.jpg,AFNE16.jpg,FN,3,num_2,16,num_2,1.55014192745,,,2017_Jun_23_1551,60.0064283179,MAFE4ImagesEEG,001,200726,
AFNE01.JPG,AFNE01.JPG,AFNE01.JPG,AFNE01.JPG,AFNE01.JPG,AFNE01.JPG,,,,,,,,,,,,,4,6,46,0,,,,,,,,,,,AFSA05.jpg,AFSA12.jpg,AFNE10.jpg,AFNE09.jpg,AFNE10.jpg,FN,3,num_2,16,num_2,1.16680501253,,,2017_Jun_23_1551,60.0064283179,MAFE4ImagesEEG,001,200726,
AFNE01.JPG,AFNE01.JPG,AFNE01.JPG,AFNE01.JPG,AFNE01.JPG,AFNE01.JPG,,,,,,,,,,,,,4,7,47,7,,,,,,,,,,,AFSA08.jpg,AFNE08.jpg,AFNE11.jpg,AFSA17.jpg,AFSA17.jpg,FS,4,num_4,32,num_8,0.933483332745,,,2017_Jun_23_1551,60.0064283179,MAFE4ImagesEEG,001,200726,
AFNE01.JPG,AFNE01.JPG,AFNE01.JPG,AFNE01.JPG,AFNE01.JPG,AFNE01.JPG,,,,,,,,,,,,,4,8,48,8,,,,,,,,,,,AFNE08.jpg,AFSA05.jpg,AFSA17.jpg,AFNE06.jpg,AFSA05.jpg,FS,4,num_6,16,num_6,0.733440032855,,,2017_Jun_23_1551,60.0064283179,MAFE4ImagesEEG,001,200726,
AFNE01.JPG,AFNE01.JPG,AFNE01.JPG,AFNE01.JPG,AFNE01.JPG,AFNE01.JPG,,,,,,,,,,,,,4,9,49,5,,,,,,,,,,,AFNE08.jpg,AFSA05.jpg,AFSA03.jpg,AFNE09.jpg,AFNE08.jpg,FN,3,num_8,16,num_8,0.833507067495,,,2017_Jun_23_1551,60.0064283179,MAFE4ImagesEEG,001,200726,
AFNE01.JPG,AFNE01.JPG,AFNE01.JPG,AFNE01.JPG,AFNE01.JPG,AFNE01.JPG,,,,,,,,,,,,,5,0,50,9,,,,,,,,,,,AFSA04.jpg,AFNE01.jpg,AFNE14.jpg,AFSA05.jpg,AFNE01.jpg,FN,3,num_6,32,num_8,0.900073770215,,,2017_Jun_23_1551,60.0064283179,MAFE4ImagesEEG,001,200726,
AFNE01.JPG,AFNE01.JPG,AFNE01.JPG,AFNE01.JPG,AFNE01.JPG,AFNE01.JPG,,,,,,,,,,,,,5,1,51,7,,,,,,,,,,,AFNE18.jpg,AFNE09.jpg,AFSA10.jpg,AFSA09.jpg,AFSA10.jpg,FS,4,num_2,16,num_2,2.00001860292,,,2017_Jun_23_1551,60.0064283179,MAFE4ImagesEEG,001,200726,
AFNE01.JPG,AFNE01.JPG,AFNE01.JPG,AFNE01.JPG,AFNE01.JPG,AFNE01.JPG,,,,,,,,,,,,,5,2,52,6,,,,,,,,,,,AFNE15.jpg,AFNE17.jpg,AFSA19.jpg,AFSA17.jpg,AFNE17.jpg,FN,3,num_6,32,num_8,1.13342880695,,,2017_Jun_23_1551,60.0064283179,MAFE4ImagesEEG,001,200726,
AFNE01.JPG,AFNE01.JPG,AFNE01.JPG,AFNE01.JPG,AFNE01.JPG,AFNE01.JPG,,,,,,,,,,,,,5,3,53,4,,,,,,,,,,,AFSA14.jpg,AFNE18.jpg,AFSA07.jpg,AFNE01.jpg,AFSA14.jpg,FS,4,num_8,32,num_2,1.08345687168,,,2017_Jun_23_1551,60.0064283179,MAFE4ImagesEEG,001,200726,
AFNE01.JPG,AFNE01.JPG,AFNE01.JPG,AFNE01.JPG,AFNE01.JPG,AFNE01.JPG,,,,,,,,,,,,,5,4,54,0,,,,,,,,,,,AFSA02.jpg,AFSA08.jpg,AFNE17.jpg,AFNE14.jpg,AFNE17.jpg,FN,3,num_2,32,num_4,0.816772457416,,,2017_Jun_23_1551,60.0064283179,MAFE4ImagesEEG,001,200726,
AFNE01.JPG,AFNE01.JPG,AFNE01.JPG,AFNE01.JPG,AFNE01.JPG,AFNE01.JPG,,,,,,,,,,,,,5,5,55,3,,,,,,,,,,,AFNE03.jpg,AFSA16.jpg,AFSA19.jpg,AFNE12.jpg,AFSA19.jpg,FS,4,num_2,16,num_2,0.816784324794,,,2017_Jun_23_1551,60.0064283179,MAFE4ImagesEEG,001,200726,
AFNE01.JPG,AFNE01.JPG,AFNE01.JPG,AFNE01.JPG,AFNE01.JPG,AFNE01.JPG,,,,,,,,,,,,,5,6,56,8,,,,,,,,,,,AFNE20.jpg,AFSA14.jpg,AFSA11.jpg,AFNE02.jpg,AFSA14.jpg,FS,4,num_6,16,num_6,0.683499850857,,,2017_Jun_23_1551,60.0064283179,MAFE4ImagesEEG,001,200726,
AFNE01.JPG,AFNE01.JPG,AFNE01.JPG,AFNE01.JPG,AFNE01.JPG,AFNE01.JPG,,,,,,,,,,,,,5,7,57,5,,,,,,,,,,,AFSA07.jpg,AFSA15.jpg,AFNE05.jpg,AFNE09.jpg,AFSA07.jpg,FS,4,num_8,16,num_8,0.733465371304,,,2017_Jun_23_1551,60.0064283179,MAFE4ImagesEEG,001,200726,
AFNE01.JPG,AFNE01.JPG,AFNE01.JPG,AFNE01.JPG,AFNE01.JPG,AFNE01.JPG,,,,,,,,,,,,,5,8,58,1,,,,,,,,,,,AFSA19.jpg,AFSA08.jpg,AFNE02.jpg,AFNE14.jpg,AFNE02.jpg,FN,3,num_2,32,num_8,1.15005693136,,,2017_Jun_23_1551,60.0064283179,MAFE4ImagesEEG,001,200726,
AFNE01.JPG,AFNE01.JPG,AFNE01.JPG,AFNE01.JPG,AFNE01.JPG,AFNE01.JPG,,,,,,,,,,,,,5,9,59,2,,,,,,,,,,,AFNE13.jpg,AFNE16.jpg,AFSA07.jpg,AFSA08.jpg,AFSA07.jpg,FS,4,num_2,32,num_8,0.91683596393,,,2017_Jun_23_1551,60.0064283179,MAFE4ImagesEEG,001,200726,
,,,,,,,,,,,,,,,,,,,,,,,,,,,,,,,,,,,,,,,,,,,space,3.93323507997,2017_Jun_23_1551,60.0064283179,MAFE4ImagesEEG,001,200726,
AFNE01.JPG,AFNE01.JPG,AFNE01.JPG,AFNE01.JPG,AFNE01.JPG,AFNE01.JPG,,,,,,,,,,,,,,,,,0,0,0,2,,,,,,,AMNE20.jpg,AMSA02.jpg,AMSA15.jpg,AMNE01.jpg,AMSA15.jpg,MS,2,num_2,32,num_8,1.45046683708,,,2017_Jun_23_1551,60.0064283179,MAFE4ImagesEEG,001,200726,
AFNE01.JPG,AFNE01.JPG,AFNE01.JPG,AFNE01.JPG,AFNE01.JPG,AFNE01.JPG,,,,,,,,,,,,,,,,,0,1,1,7,,,,,,,AMNE03.jpg,AMNE04.jpg,AMSA04.jpg,AMSA18.jpg,AMNE03.jpg,MN,1,num_8,16,num_8,0.933542669649,,,2017_Jun_23_1551,60.0064283179,MAFE4ImagesEEG,001,200726,
AFNE01.JPG,AFNE01.JPG,AFNE01.JPG,AFNE01.JPG,AFNE01.JPG,AFNE01.JPG,,,,,,,,,,,,,,,,,0,2,2,9,,,,,,,AMNE20.jpg,AMSA17.jpg,AMSA06.jpg,AMNE18.jpg,AMSA06.jpg,MS,2,num_2,32,num_6,0.950215376914,,,2017_Jun_23_1551,60.0064283179,MAFE4ImagesEEG,001,200726,
AFNE01.JPG,AFNE01.JPG,AFNE01.JPG,AFNE01.JPG,AFNE01.JPG,AFNE01.JPG,,,,,,,,,,,,,,,,,0,3,3,3,,,,,,,AMSA08.jpg,AMNE09.jpg,AMSA02.jpg,AMNE06.jpg,AMSA08.jpg,MS,2,num_8,16,num_8,0.666797956233,,,2017_Jun_23_1551,60.0064283179,MAFE4ImagesEEG,001,200726,
AFNE01.JPG,AFNE01.JPG,AFNE01.JPG,AFNE01.JPG,AFNE01.JPG,AFNE01.JPG,,,,,,,,,,,,,,,,,0,4,4,8,,,,,,,AMSA08.jpg,AMNE08.jpg,AMNE10.jpg,AMSA02.jpg,AMSA02.jpg,MS,2,num_4,16,num_4,0.750128777116,,,2017_Jun_23_1551,60.0064283179,MAFE4ImagesEEG,001,200726,
AFNE01.JPG,AFNE01.JPG,AFNE01.JPG,AFNE01.JPG,AFNE01.JPG,AFNE01.JPG,,,,,,,,,,,,,,,,,0,5,5,5,,,,,,,AMNE19.jpg,AMNE20.jpg,AMSA07.jpg,AMSA01.jpg,AMNE19.jpg,MN,1,num_8,16,num_8,1.11680966325,,,2017_Jun_23_1551,60.0064283179,MAFE4ImagesEEG,001,200726,
AFNE01.JPG,AFNE01.JPG,AFNE01.JPG,AFNE01.JPG,AFNE01.JPG,AFNE01.JPG,,,,,,,,,,,,,,,,,0,6,6,1,,,,,,,AMSA17.jpg,AMNE18.jpg,AMSA05.jpg,AMNE17.jpg,AMSA05.jpg,MS,2,num_2,16,num_2,1.03342335437,,,2017_Jun_23_1551,60.0064283179,MAFE4ImagesEEG,001,200726,
AFNE01.JPG,AFNE01.JPG,AFNE01.JPG,AFNE01.JPG,AFNE01.JPG,AFNE01.JPG,,,,,,,,,,,,,,,,,0,7,7,0,,,,,,,AMNE06.jpg,AMNE14.jpg,AMSA03.jpg,AMSA19.jpg,AMSA03.jpg,MS,2,num_2,16,num_2,0.800177048484,,,2017_Jun_23_1551,60.0064283179,MAFE4ImagesEEG,001,200726,
AFNE01.JPG,AFNE01.JPG,AFNE01.JPG,AFNE01.JPG,AFNE01.JPG,AFNE01.JPG,,,,,,,,,,,,,,,,,0,8,8,6,,,,,,,AMNE06.jpg,AMSA05.jpg,AMNE13.jpg,AMSA07.jpg,AMSA07.jpg,MS,2,num_4,16,num_4,0.583539622618,,,2017_Jun_23_1551,60.0064283179,MAFE4ImagesEEG,001,200726,
AFNE01.JPG,AFNE01.JPG,AFNE01.JPG,AFNE01.JPG,AFNE01.JPG,AFNE01.JPG,,,,,,,,,,,,,,,,,0,9,9,4,,,,,,,AMSA04.jpg,AMNE08.jpg,AMSA03.jpg,AMNE12.jpg,AMNE12.jpg,MN,1,num_4,32,num_6,1.00008627906,,,2017_Jun_23_1551,60.0064283179,MAFE4ImagesEEG,001,200726,
AFNE01.JPG,AFNE01.JPG,AFNE01.JPG,AFNE01.JPG,AFNE01.JPG,AFNE01.JPG,,,,,,,,,,,,,,,,,1,0,10,4,,,,,,,AMSA16.jpg,AMNE10.jpg,AMSA05.jpg,AMNE08.jpg,AMNE08.jpg,MN,1,num_4,32,num_8,0.833455107626,,,2017_Jun_23_1551,60.0064283179,MAFE4ImagesEEG,001,200726,
AFNE01.JPG,AFNE01.JPG,AFNE01.JPG,AFNE01.JPG,AFNE01.JPG,AFNE01.JPG,,,,,,,,,,,,,,,,,1,1,11,3,,,,,,,AMNE03.jpg,AMSA20.jpg,AMNE14.jpg,AMSA03.jpg,AMNE14.jpg,MN,1,num_2,32,num_8,0.900107447902,,,2017_Jun_23_1551,60.0064283179,MAFE4ImagesEEG,001,200726,
AFNE01.JPG,AFNE01.JPG,AFNE01.JPG,AFNE01.JPG,AFNE01.JPG,AFNE01.JPG,,,,,,,,,,,,,,,,,1,2,12,8,,,,,,,AMSA05.jpg,AMNE01.jpg,AMSA10.jpg,AMNE12.jpg,AMSA05.jpg,MS,2,num_8,32,num_2,1.3831066236,,,2017_Jun_23_1551,60.0064283179,MAFE4ImagesEEG,001,200726,
AFNE01.JPG,AFNE01.JPG,AFNE01.JPG,AFNE01.JPG,AFNE01.JPG,AFNE01.JPG,,,,,,,,,,,,,,,,,1,3,13,2,,,,,,,AMSA15.jpg,AMSA16.jpg,AMNE04.jpg,AMNE03.jpg,AMSA16.jpg,MS,2,num_6,16,num_6,0.833436504705,,,2017_Jun_23_1551,60.0064283179,MAFE4ImagesEEG,001,200726,
AFNE01.JPG,AFNE01.JPG,AFNE01.JPG,AFNE01.JPG,AFNE01.JPG,AFNE01.JPG,,,,,,,,,,,,,,,,,1,4,14,7,,,,,,,AMSA09.jpg,AMNE12.jpg,AMNE04.jpg,AMSA16.jpg,AMSA16.jpg,MS,2,num_4,32,num_8,0.700030470296,,,2017_Jun_23_1551,60.0064283179,MAFE4ImagesEEG,001,200726,
AFNE01.JPG,AFNE01.JPG,AFNE01.JPG,AFNE01.JPG,AFNE01.JPG,AFNE01.JPG,,,,,,,,,,,,,,,,,1,5,15,1,,,,,,,AMNE19.jpg,AMSA06.jpg,AMNE08.jpg,AMSA20.jpg,AMNE08.jpg,MN,1,num_2,32,num_8,1.36672771419,,,2017_Jun_23_1551,60.0064283179,MAFE4ImagesEEG,001,200726,
AFNE01.JPG,AFNE01.JPG,AFNE01.JPG,AFNE01.JPG,AFNE01.JPG,AFNE01.JPG,,,,,,,,,,,,,,,,,1,6,16,0,,,,,,,AMNE01.jpg,AMSA02.jpg,AMNE04.jpg,AMSA01.jpg,AMSA02.jpg,MS,2,num_6,32,num_4,0.98334493344,,,2017_Jun_23_1551,60.0064283179,MAFE4ImagesEEG,001,200726,
AFNE01.JPG,AFNE01.JPG,AFNE01.JPG,AFNE01.JPG,AFNE01.JPG,AFNE01.JPG,,,,,,,,,,,,,,,,,1,7,17,9,,,,,,,AMNE11.jpg,AMNE02.jpg,AMSA18.jpg,AMSA09.jpg,AMSA18.jpg,MS,2,num_2,32,num_4,0.933462805391,,,2017_Jun_23_1551,60.0064283179,MAFE4ImagesEEG,001,200726,
AFNE01.JPG,AFNE01.JPG,AFNE01.JPG,AFNE01.JPG,AFNE01.JPG,AFNE01.JPG,,,,,,,,,,,,,,,,,1,8,18,6,,,,,,,AMNE02.jpg,AMNE18.jpg,AMSA14.jpg,AMSA07.jpg,AMNE02.jpg,MN,1,num_8,16,num_8,1.43341854327,,,2017_Jun_23_1551,60.0064283179,MAFE4ImagesEEG,001,200726,
AFNE01.JPG,AFNE01.JPG,AFNE01.JPG,AFNE01.JPG,AFNE01.JPG,AFNE01.JPG,,,,,,,,,,,,,,,,,1,9,19,5,,,,,,,AMSA04.jpg,AMNE12.jpg,AMNE16.jpg,AMSA07.jpg,AMNE12.jpg,MN,1,num_6,16,num_6,0.883131962066,,,2017_Jun_23_1551,60.0064283179,MAFE4ImagesEEG,001,200726,
AFNE01.JPG,AFNE01.JPG,AFNE01.JPG,AFNE01.JPG,AFNE01.JPG,AFNE01.JPG,,,,,,,,,,,,,,,,,2,0,20,3,,,,,,,AMNE07.jpg,AMSA20.jpg,AMSA12.jpg,AMNE09.jpg,AMSA12.jpg,MS,2,num_2,16,num_2,0.800145615969,,,2017_Jun_23_1551,60.0064283179,MAFE4ImagesEEG,001,200726,
AFNE01.JPG,AFNE01.JPG,AFNE01.JPG,AFNE01.JPG,AFNE01.JPG,AFNE01.JPG,,,,,,,,,,,,,,,,,2,1,21,7,,,,,,,AMNE05.jpg,AMSA09.jpg,AMNE02.jpg,AMSA04.jpg,AMNE05.jpg,MN,1,num_8,16,num_8,0.816774702602,,,2017_Jun_23_1551,60.0064283179,MAFE4ImagesEEG,001,200726,
AFNE01.JPG,AFNE01.JPG,AFNE01.JPG,AFNE01.JPG,AFNE01.JPG,AFNE01.JPG,,,,,,,,,,,,,,,,,2,2,22,2,,,,,,,AMSA11.jpg,AMSA04.jpg,AMNE07.jpg,AMNE20.jpg,AMSA04.jpg,MS,2,num_6,32,num_8,0.750126852668,,,2017_Jun_23_1551,60.0064283179,MAFE4ImagesEEG,001,200726,
AFNE01.JPG,AFNE01.JPG,AFNE01.JPG,AFNE01.JPG,AFNE01.JPG,AFNE01.JPG,,,,,,,,,,,,,,,,,2,3,23,5,,,,,,,AMNE16.jpg,AMNE05.jpg,AMSA09.jpg,AMSA14.jpg,AMSA14.jpg,MS,2,num_4,32,num_8,0.850131663785,,,2017_Jun_23_1551,60.0064283179,MAFE4ImagesEEG,001,200726,
AFNE01.JPG,AFNE01.JPG,AFNE01.JPG,AFNE01.JPG,AFNE01.JPG,AFNE01.JPG,,,,,,,,,,,,,,,,,2,4,24,0,,,,,,,AMSA01.jpg,AMNE08.jpg,AMSA13.jpg,AMNE09.jpg,AMNE08.jpg,MN,1,num_6,32,num_4,0.783454947261,,,2017_Jun_23_1551,60.0064283179,MAFE4ImagesEEG,001,200726,
AFNE01.JPG,AFNE01.JPG,AFNE01.JPG,AFNE01.JPG,AFNE01.JPG,AFNE01.JPG,,,,,,,,,,,,,,,,,2,5,25,6,,,,,,,AMSA03.jpg,AMSA13.jpg,AMNE10.jpg,AMNE03.jpg,AMNE03.jpg,MN,1,num_4,32,num_2,2.40032394741,,,2017_Jun_23_1551,60.0064283179,MAFE4ImagesEEG,001,200726,
AFNE01.JPG,AFNE01.JPG,AFNE01.JPG,AFNE01.JPG,AFNE01.JPG,AFNE01.JPG,,,,,,,,,,,,,,,,,2,6,26,9,,,,,,,AMSA06.jpg,AMNE07.jpg,AMNE08.jpg,AMSA07.jpg,AMSA07.jpg,MS,2,num_4,16,num_4,1.23345927724,,,2017_Jun_23_1551,60.0064283179,MAFE4ImagesEEG,001,200726,
AFNE01.JPG,AFNE01.JPG,AFNE01.JPG,AFNE01.JPG,AFNE01.JPG,AFNE01.JPG,,,,,,,,,,,,,,,,,2,7,27,4,,,,,,,AMNE18.jpg,AMNE11.jpg,AMSA19.jpg,AMSA14.jpg,AMSA14.jpg,MS,2,num_4,16,num_4,0.566761391892,,,2017_Jun_23_1551,60.0064283179,MAFE4ImagesEEG,001,200726,
AFNE01.JPG,AFNE01.JPG,AFNE01.JPG,AFNE01.JPG,AFNE01.JPG,AFNE01.JPG,,,,,,,,,,,,,,,,,2,8,28,1,,,,,,,AMNE03.jpg,AMSA10.jpg,AMSA02.jpg,AMNE02.jpg,AMSA10.jpg,MS,2,num_6,16,num_6,0.950141285968,,,2017_Jun_23_1551,60.0064283179,MAFE4ImagesEEG,001,200726,
AFNE01.JPG,AFNE01.JPG,AFNE01.JPG,AFNE01.JPG,AFNE01.JPG,AFNE01.JPG,,,,,,,,,,,,,,,,,2,9,29,8,,,,,,,AMSA17.jpg,AMSA12.jpg,AMNE08.jpg,AMNE16.jpg,AMSA17.jpg,MS,2,num_8,32,num_4,1.00013022045,,,2017_Jun_23_1551,60.0064283179,MAFE4ImagesEEG,001,200726,
AFNE01.JPG,AFNE01.JPG,AFNE01.JPG,AFNE01.JPG,AFNE01.JPG,AFNE01.JPG,,,,,,,,,,,,,,,,,3,0,30,8,,,,,,,AMNE06.jpg,AMNE01.jpg,AMSA19.jpg,AMSA18.jpg,AMNE06.jpg,MN,1,num_8,32,num_2,2.46622222791,,,2017_Jun_23_1551,60.0064283179,MAFE4ImagesEEG,001,200726,
AFNE01.JPG,AFNE01.JPG,AFNE01.JPG,AFNE01.JPG,AFNE01.JPG,AFNE01.JPG,,,,,,,,,,,,,,,,,3,1,31,4,,,,,,,AMNE04.jpg,AMSA03.jpg,AMNE02.jpg,AMSA11.jpg,AMNE04.jpg,MN,1,num_8,16,num_8,0.850122683056,,,2017_Jun_23_1551,60.0064283179,MAFE4ImagesEEG,001,200726,
AFNE01.JPG,AFNE01.JPG,AFNE01.JPG,AFNE01.JPG,AFNE01.JPG,AFNE01.JPG,,,,,,,,,,,,,,,,,3,2,32,5,,,,,,,AMNE15.jpg,AMSA19.jpg,AMNE04.jpg,AMSA14.jpg,AMNE04.jpg,MN,1,num_2,16,num_2,1.10014689893,,,2017_Jun_23_1551,60.0064283179,MAFE4ImagesEEG,001,200726,
AFNE01.JPG,AFNE01.JPG,AFNE01.JPG,AFNE01.JPG,AFNE01.JPG,AFNE01.JPG,,,,,,,,,,,,,,,,,3,3,33,9,,,,,,,AMSA19.jpg,AMNE13.jpg,AMSA07.jpg,AMNE20.jpg,AMNE13.jpg,MN,1,num_6,16,num_6,1.0334605602,,,2017_Jun_23_1551,60.0064283179,MAFE4ImagesEEG,001,200726,
AFNE01.JPG,AFNE01.JPG,AFNE01.JPG,AFNE01.JPG,AFNE01.JPG,AFNE01.JPG,,,,,,,,,,,,,,,,,3,4,34,3,,,,,,,AMNE17.jpg,AMNE09.jpg,AMSA16.jpg,AMSA15.jpg,AMNE17.jpg,MN,1,num_8,16,num_8,0.800176086268,,,2017_Jun_23_1551,60.0064283179,MAFE4ImagesEEG,001,200726,
AFNE01.JPG,AFNE01.JPG,AFNE01.JPG,AFNE01.JPG,AFNE01.JPG,AFNE01.JPG,,,,,,,,,,,,,,,,,3,5,35,7,,,,,,,AMNE01.jpg,AMSA16.jpg,AMNE11.jpg,AMSA09.jpg,AMNE11.jpg,MN,1,num_2,32,num_8,0.816761231516,,,2017_Jun_23_1551,60.0064283179,MAFE4ImagesEEG,001,200726,
AFNE01.JPG,AFNE01.JPG,AFNE01.JPG,AFNE01.JPG,AFNE01.JPG,AFNE01.JPG,,,,,,,,,,,,,,,,,3,6,36,0,,,,,,,AMSA20.jpg,AMNE11.jpg,AMNE03.jpg,AMSA02.jpg,AMSA02.jpg,MS,2,num_4,16,num_4,2.69997851043,,,2017_Jun_23_1551,60.0064283179,MAFE4ImagesEEG,001,200726,
AFNE01.JPG,AFNE01.JPG,AFNE01.JPG,AFNE01.JPG,AFNE01.JPG,AFNE01.JPG,,,,,,,,,,,,,,,,,3,7,37,2,,,,,,,AMNE05.jpg,AMNE07.jpg,AMSA20.jpg,AMSA05.jpg,AMSA20.jpg,MS,2,num_2,16,num_2,1.40013471081,,,2017_Jun_23_1551,60.0064283179,MAFE4ImagesEEG,001,200726,
AFNE01.JPG,AFNE01.JPG,AFNE01.JPG,AFNE01.JPG,AFNE01.JPG,AFNE01.JPG,,,,,,,,,,,,,,,,,3,8,38,6,,,,,,,AMNE20.jpg,AMSA11.jpg,AMNE17.jpg,AMSA20.jpg,AMSA20.jpg,MS,2,num_4,16,num_4,0.733478521637,,,2017_Jun_23_1551,60.0064283179,MAFE4ImagesEEG,001,200726,
AFNE01.JPG,AFNE01.JPG,AFNE01.JPG,AFNE01.JPG,AFNE01.JPG,AFNE01.JPG,,,,,,,,,,,,,,,,,3,9,39,1,,,,,,,AMNE09.jpg,AMNE08.jpg,AMSA15.jpg,AMSA20.jpg,AMSA20.jpg,MS,2,num_4,16,num_4,0.900159728524,,,2017_Jun_23_1551,60.0064283179,MAFE4ImagesEEG,001,200726,
AFNE01.JPG,AFNE01.JPG,AFNE01.JPG,AFNE01.JPG,AFNE01.JPG,AFNE01.JPG,,,,,,,,,,,,,,,,,4,0,40,2,,,,,,,AMSA03.jpg,AMNE02.jpg,AMSA16.jpg,AMNE04.jpg,AMNE04.jpg,MN,1,num_4,32,num_6,1.03380824237,,,2017_Jun_23_1551,60.0064283179,MAFE4ImagesEEG,001,200726,
AFNE01.JPG,AFNE01.JPG,AFNE01.JPG,AFNE01.JPG,AFNE01.JPG,AFNE01.JPG,,,,,,,,,,,,,,,,,4,1,41,4,,,,,,,AMNE20.jpg,AMSA10.jpg,AMSA06.jpg,AMNE11.jpg,AMNE11.jpg,MN,1,num_4,32,num_8,0.783460079096,,,2017_Jun_23_1551,60.0064283179,MAFE4ImagesEEG,001,200726,
AFNE01.JPG,AFNE01.JPG,AFNE01.JPG,AFNE01.JPG,AFNE01.JPG,AFNE01.JPG,,,,,,,,,,,,,,,,,4,2,42,8,,,,,,,AMNE14.jpg,AMNE10.jpg,AMSA18.jpg,AMSA16.jpg,AMNE14.jpg,MN,1,num_8,16,num_8,0.866814955472,,,2017_Jun_23_1551,60.0064283179,MAFE4ImagesEEG,001,200726,
AFNE01.JPG,AFNE01.JPG,AFNE01.JPG,AFNE01.JPG,AFNE01.JPG,AFNE01.JPG,,,,,,,,,,,,,,,,,4,3,43,9,,,,,,,AMSA18.jpg,AMSA07.jpg,AMNE14.jpg,AMNE08.jpg,AMNE14.jpg,MN,1,num_2,32,num_4,0.749942747905,,,2017_Jun_23_1551,60.0064283179,MAFE4ImagesEEG,001,200726,
AFNE01.JPG,AFNE01.JPG,AFNE01.JPG,AFNE01.JPG,AFNE01.JPG,AFNE01.JPG,,,,,,,,,,,,,,,,,4,4,44,0,,,,,,,AMNE10.jpg,AMSA07.jpg,AMNE15.jpg,AMSA03.jpg,AMNE15.jpg,MN,1,num_2,32,num_8,0.900265893477,,,2017_Jun_23_1551,60.0064283179,MAFE4ImagesEEG,001,200726,
AFNE01.JPG,AFNE01.JPG,AFNE01.JPG,AFNE01.JPG,AFNE01.JPG,AFNE01.JPG,,,,,,,,,,,,,,,,,4,5,45,7,,,,,,,AMNE04.jpg,AMSA04.jpg,AMSA19.jpg,AMNE13.jpg,AMSA04.jpg,MS,2,num_6,16,num_6,0.550114664555,,,2017_Jun_23_1551,60.0064283179,MAFE4ImagesEEG,001,200726,
AFNE01.JPG,AFNE01.JPG,AFNE01.JPG,AFNE01.JPG,AFNE01.JPG,AFNE01.JPG,,,,,,,,,,,,,,,,,4,6,46,3,,,,,,,AMNE19.jpg,AMSA14.jpg,AMNE15.jpg,AMSA01.jpg,AMSA14.jpg,MS,2,num_6,16,num_6,1.20012989971,,,2017_Jun_23_1551,60.0064283179,MAFE4ImagesEEG,001,200726,
AFNE01.JPG,AFNE01.JPG,AFNE01.JPG,AFNE01.JPG,AFNE01.JPG,AFNE01.JPG,,,,,,,,,,,,,,,,,4,7,47,5,,,,,,,AMNE14.jpg,AMNE09.jpg,AMSA20.jpg,AMSA15.jpg,AMSA20.jpg,MS,2,num_2,16,num_2,0.700119636022,,,2017_Jun_23_1551,60.0064283179,MAFE4ImagesEEG,001,200726,
AFNE01.JPG,AFNE01.JPG,AFNE01.JPG,AFNE01.JPG,AFNE01.JPG,AFNE01.JPG,,,,,,,,,,,,,,,,,4,8,48,1,,,,,,,AMSA11.jpg,AMNE03.jpg,AMSA18.jpg,AMNE05.jpg,AMNE05.jpg,MN,1,num_4,32,num_6,1.10010391977,,,2017_Jun_23_1551,60.0064283179,MAFE4ImagesEEG,001,200726,
AFNE01.JPG,AFNE01.JPG,AFNE01.JPG,AFNE01.JPG,AFNE01.JPG,AFNE01.JPG,,,,,,,,,,,,,,,,,4,9,49,6,,,,,,,AMNE15.jpg,AMSA03.jpg,AMNE17.jpg,AMSA04.jpg,AMNE17.jpg,MN,1,num_2,16,num_2,1.55007040243,,,2017_Jun_23_1551,60.0064283179,MAFE4ImagesEEG,001,200726,
AFNE01.JPG,AFNE01.JPG,AFNE01.JPG,AFNE01.JPG,AFNE01.JPG,AFNE01.JPG,,,,,,,,,,,,,,,,,5,0,50,7,,,,,,,AMNE20.jpg,AMNE07.jpg,AMSA15.jpg,AMSA14.jpg,AMNE07.jpg,MN,1,num_6,16,num_6,0.88342896731,,,2017_Jun_23_1551,60.0064283179,MAFE4ImagesEEG,001,200726,
AFNE01.JPG,AFNE01.JPG,AFNE01.JPG,AFNE01.JPG,AFNE01.JPG,AFNE01.JPG,,,,,,,,,,,,,,,,,5,1,51,9,,,,,,,AMSA03.jpg,AMSA12.jpg,AMNE05.jpg,AMNE11.jpg,AMSA03.jpg,MS,2,num_8,16,num_8,1.01678881515,,,2017_Jun_23_1551,60.0064283179,MAFE4ImagesEEG,001,200726,
AFNE01.JPG,AFNE01.JPG,AFNE01.JPG,AFNE01.JPG,AFNE01.JPG,AFNE01.JPG,,,,,,,,,,,,,,,,,5,2,52,1,,,,,,,AMSA19.jpg,AMNE08.jpg,AMSA12.jpg,AMNE12.jpg,AMNE12.jpg,MN,1,num_4,32,num_6,1.16671969568,,,2017_Jun_23_1551,60.0064283179,MAFE4ImagesEEG,001,200726,
AFNE01.JPG,AFNE01.JPG,AFNE01.JPG,AFNE01.JPG,AFNE01.JPG,AFNE01.JPG,,,,,,,,,,,,,,,,,5,3,53,0,,,,,,,AMSA16.jpg,AMNE11.jpg,AMSA01.jpg,AMNE01.jpg,AMSA01.jpg,MS,2,num_2,16,num_2,1.61673011973,,,2017_Jun_23_1551,60.0064283179,MAFE4ImagesEEG,001,200726,
AFNE01.JPG,AFNE01.JPG,AFNE01.JPG,AFNE01.JPG,AFNE01.JPG,AFNE01.JPG,,,,,,,,,,,,,,,,,5,4,54,3,,,,,,,AMNE14.jpg,AMSA06.jpg,AMNE03.jpg,AMSA03.jpg,AMSA06.jpg,MS,2,num_6,16,num_6,0.70017416183,,,2017_Jun_23_1551,60.0064283179,MAFE4ImagesEEG,001,200726,
AFNE01.JPG,AFNE01.JPG,AFNE01.JPG,AFNE01.JPG,AFNE01.JPG,AFNE01.JPG,,,,,,,,,,,,,,,,,5,5,55,6,,,,,,,AMNE06.jpg,AMSA14.jpg,AMSA17.jpg,AMNE05.jpg,AMSA17.jpg,MS,2,num_2,16,num_2,0.63350386011,,,2017_Jun_23_1551,60.0064283179,MAFE4ImagesEEG,001,200726,
AFNE01.JPG,AFNE01.JPG,AFNE01.JPG,AFNE01.JPG,AFNE01.JPG,AFNE01.JPG,,,,,,,,,,,,,,,,,5,6,56,2,,,,,,,AMSA08.jpg,AMSA04.jpg,AMNE01.jpg,AMNE12.jpg,AMNE01.jpg,MN,1,num_2,32,num_4,1.05017400144,,,2017_Jun_23_1551,60.0064283179,MAFE4ImagesEEG,001,200726,
AFNE01.JPG,AFNE01.JPG,AFNE01.JPG,AFNE01.JPG,AFNE01.JPG,AFNE01.JPG,,,,,,,,,,,,,,,,,5,7,57,8,,,,,,,AMNE07.jpg,AMSA17.jpg,AMNE09.jpg,AMSA10.jpg,AMNE07.jpg,MN,1,num_8,16,num_8,1.15010889123,,,2017_Jun_23_1551,60.0064283179,MAFE4ImagesEEG,001,200726,
AFNE01.JPG,AFNE01.JPG,AFNE01.JPG,AFNE01.JPG,AFNE01.JPG,AFNE01.JPG,,,,,,,,,,,,,,,,,5,8,58,5,,,,,,,AMSA06.jpg,AMNE06.jpg,AMSA02.jpg,AMNE03.jpg,AMSA06.jpg,MS,2,num_8,16,num_8,0.750146097067,,,2017_Jun_23_1551,60.0064283179,MAFE4ImagesEEG,001,200726,
AFNE01.JPG,AFNE01.JPG,AFNE01.JPG,AFNE01.JPG,AFNE01.JPG,AFNE01.JPG,,,,,,,,,,,,,,,,,5,9,59,4,,,,,,,AMNE17.jpg,AMSA20.jpg,AMSA11.jpg,AMNE13.jpg,AMSA11.jpg,MS,2,num_2,16,num_2,0.883513642679,,,2017_Jun_23_1551,60.0064283179,MAFE4ImagesEEG,001,200726,
,,,,,,,,,,,,,,,,,,,,,,,,,,,,,,,,,,,,,,,,,,,space,1.88330131279,2017_Jun_23_1551,60.0064283179,MAFE4ImagesEEG,001,200726,
AFNE01.JPG,AFNE01.JPG,AFNE01.JPG,AFNE01.JPG,AFNE01.JPG,AFNE01.JPG,,,,,,,,,,,,,,,,,,,,,0,0,0,8,,,AFSA01.jpg,AFNE19.jpg,AFSA09.jpg,AFNE03.jpg,AFSA09.jpg,FS,4,num_2,32,num_4,1.06679795624,,,2017_Jun_23_1551,60.0064283179,MAFE4ImagesEEG,001,200726,
AFNE01.JPG,AFNE01.JPG,AFNE01.JPG,AFNE01.JPG,AFNE01.JPG,AFNE01.JPG,,,,,,,,,,,,,,,,,,,,,0,1,1,2,,,AFNE14.jpg,AFSA10.jpg,AFSA16.jpg,AFNE03.jpg,AFSA10.jpg,FS,4,num_6,32,num_2,1.03345157948,,,2017_Jun_23_1551,60.0064283179,MAFE4ImagesEEG,001,200726,
AFNE01.JPG,AFNE01.JPG,AFNE01.JPG,AFNE01.JPG,AFNE01.JPG,AFNE01.JPG,,,,,,,,,,,,,,,,,,,,,0,2,2,3,,,AFSA05.jpg,AFNE06.jpg,AFSA06.jpg,AFNE01.jpg,AFSA05.jpg,FS,4,num_8,32,num_2,1.08348381385,,,2017_Jun_23_1551,60.0064283179,MAFE4ImagesEEG,001,200726,
AFNE01.JPG,AFNE01.JPG,AFNE01.JPG,AFNE01.JPG,AFNE01.JPG,AFNE01.JPG,,,,,,,,,,,,,,,,,,,,,0,3,3,1,,,AFSA08.jpg,AFNE11.jpg,AFNE03.jpg,AFSA03.jpg,AFNE11.jpg,FN,3,num_6,16,num_6,1.01679907883,,,2017_Jun_23_1551,60.0064283179,MAFE4ImagesEEG,001,200726,
AFNE01.JPG,AFNE01.JPG,AFNE01.JPG,AFNE01.JPG,AFNE01.JPG,AFNE01.JPG,,,,,,,,,,,,,,,,,,,,,0,4,4,5,,,AFSA08.jpg,AFNE20.jpg,AFNE19.jpg,AFSA09.jpg,AFSA09.jpg,FS,4,num_4,16,num_4,0.950165341477,,,2017_Jun_23_1551,60.0064283179,MAFE4ImagesEEG,001,200726,
AFNE01.JPG,AFNE01.JPG,AFNE01.JPG,AFNE01.JPG,AFNE01.JPG,AFNE01.JPG,,,,,,,,,,,,,,,,,,,,,0,5,5,4,,,AFNE14.jpg,AFSA12.jpg,AFSA06.jpg,AFNE15.jpg,AFNE15.jpg,FN,3,num_4,16,num_4,0.950123645278,,,2017_Jun_23_1551,60.0064283179,MAFE4ImagesEEG,001,200726,
AFNE01.JPG,AFNE01.JPG,AFNE01.JPG,AFNE01.JPG,AFNE01.JPG,AFNE01.JPG,,,,,,,,,,,,,,,,,,,,,0,6,6,7,,,AFNE09.jpg,AFSA04.jpg,AFSA12.jpg,AFNE05.jpg,AFNE05.jpg,FN,3,num_4,32,num_8,1.10006831762,,,2017_Jun_23_1551,60.0064283179,MAFE4ImagesEEG,001,200726,
AFNE01.JPG,AFNE01.JPG,AFNE01.JPG,AFNE01.JPG,AFNE01.JPG,AFNE01.JPG,,,,,,,,,,,,,,,,,,,,,0,7,7,0,,,AFSA16.jpg,AFNE01.jpg,AFSA18.jpg,AFNE16.jpg,AFNE01.jpg,FN,3,num_6,32,num_8,0.766777428886,,,2017_Jun_23_1551,60.0064283179,MAFE4ImagesEEG,001,200726,
AFNE01.JPG,AFNE01.JPG,AFNE01.JPG,AFNE01.JPG,AFNE01.JPG,AFNE01.JPG,,,,,,,,,,,,,,,,,,,,,0,8,8,6,,,AFSA20.jpg,AFNE11.jpg,AFNE16.jpg,AFSA09.jpg,AFSA20.jpg,FS,4,num_8,16,num_8,1.00014850262,,,2017_Jun_23_1551,60.0064283179,MAFE4ImagesEEG,001,200726,
AFNE01.JPG,AFNE01.JPG,AFNE01.JPG,AFNE01.JPG,AFNE01.JPG,AFNE01.JPG,,,,,,,,,,,,,,,,,,,,,0,9,9,9,,,AFSA02.jpg,AFSA18.jpg,AFNE11.jpg,AFNE15.jpg,AFSA02.jpg,FS,4,num_8,16,num_8,1.66675305263,,,2017_Jun_23_1551,60.0064283179,MAFE4ImagesEEG,001,200726,
AFNE01.JPG,AFNE01.JPG,AFNE01.JPG,AFNE01.JPG,AFNE01.JPG,AFNE01.JPG,,,,,,,,,,,,,,,,,,,,,1,0,10,4,,,AFSA04.jpg,AFNE01.jpg,AFNE03.jpg,AFSA11.jpg,AFSA04.jpg,FS,4,num_8,16,num_8,1.4000882035,,,2017_Jun_23_1551,60.0064283179,MAFE4ImagesEEG,001,200726,
AFNE01.JPG,AFNE01.JPG,AFNE01.JPG,AFNE01.JPG,AFNE01.JPG,AFNE01.JPG,,,,,,,,,,,,,,,,,,,,,1,1,11,1,,,AFSA18.jpg,AFSA04.jpg,AFNE04.jpg,AFNE19.jpg,AFSA04.jpg,FS,4,num_6,16,num_6,0.833472748331,,,2017_Jun_23_1551,60.0064283179,MAFE4ImagesEEG,001,200726,
AFNE01.JPG,AFNE01.JPG,AFNE01.JPG,AFNE01.JPG,AFNE01.JPG,AFNE01.JPG,,,,,,,,,,,,,,,,,,,,,1,2,12,3,,,AFSA17.jpg,AFNE03.jpg,AFNE04.jpg,AFSA06.jpg,AFSA06.jpg,FS,4,num_4,32,num_8,0.800141446336,,,2017_Jun_23_1551,60.0064283179,MAFE4ImagesEEG,001,200726,
AFNE01.JPG,AFNE01.JPG,AFNE01.JPG,AFNE01.JPG,AFNE01.JPG,AFNE01.JPG,,,,,,,,,,,,,,,,,,,,,1,3,13,9,,,AFSA04.jpg,AFNE13.jpg,AFSA06.jpg,AFNE15.jpg,AFSA06.jpg,FS,4,num_2,32,num_8,0.666587230065,,,2017_Jun_23_1551,60.0064283179,MAFE4ImagesEEG,001,200726,
AFNE01.JPG,AFNE01.JPG,AFNE01.JPG,AFNE01.JPG,AFNE01.JPG,AFNE01.JPG,,,,,,,,,,,,,,,,,,,,,1,4,14,0,,,AFNE05.jpg,AFNE13.jpg,AFSA06.jpg,AFSA15.jpg,AFNE05.jpg,FN,3,num_8,32,num_6,1.03349263422,,,2017_Jun_23_1551,60.0064283179,MAFE4ImagesEEG,001,200726,
AFNE01.JPG,AFNE01.JPG,AFNE01.JPG,AFNE01.JPG,AFNE01.JPG,AFNE01.JPG,,,,,,,,,,,,,,,,,,,,,1,5,15,2,,,AFNE18.jpg,AFSA09.jpg,AFSA02.jpg,AFNE01.jpg,AFSA09.jpg,FS,4,num_6,32,num_8,1.23344612691,,,2017_Jun_23_1551,60.0064283179,MAFE4ImagesEEG,001,200726,
AFNE01.JPG,AFNE01.JPG,AFNE01.JPG,AFNE01.JPG,AFNE01.JPG,AFNE01.JPG,,,,,,,,,,,,,,,,,,,,,1,6,16,6,,,AFNE15.jpg,AFNE14.jpg,AFSA14.jpg,AFSA01.jpg,AFSA14.jpg,FS,4,num_2,16,num_2,0.500169671461,,,2017_Jun_23_1551,60.0064283179,MAFE4ImagesEEG,001,200726,
AFNE01.JPG,AFNE01.JPG,AFNE01.JPG,AFNE01.JPG,AFNE01.JPG,AFNE01.JPG,,,,,,,,,,,,,,,,,,,,,1,7,17,7,,,AFSA01.jpg,AFSA07.jpg,AFNE11.jpg,AFNE06.jpg,AFNE06.jpg,FN,3,num_4,16,num_4,1.20008852425,,,2017_Jun_23_1551,60.0064283179,MAFE4ImagesEEG,001,200726,
AFNE01.JPG,AFNE01.JPG,AFNE01.JPG,AFNE01.JPG,AFNE01.JPG,AFNE01.JPG,,,,,,,,,,,,,,,,,,,,,1,8,18,5,,,AFNE07.jpg,AFSA09.jpg,AFSA20.jpg,AFNE08.jpg,AFNE07.jpg,FN,3,num_8,16,num_8,1.86669788537,,,2017_Jun_23_1551,60.0064283179,MAFE4ImagesEEG,001,200726,
AFNE01.JPG,AFNE01.JPG,AFNE01.JPG,AFNE01.JPG,AFNE01.JPG,AFNE01.JPG,,,,,,,,,,,,,,,,,,,,,1,9,19,8,,,AFNE12.jpg,AFNE10.jpg,AFSA10.jpg,AFSA15.jpg,AFNE12.jpg,FN,3,num_8,16,num_8,1.16674086453,,,2017_Jun_23_1551,60.0064283179,MAFE4ImagesEEG,001,200726,
AFNE01.JPG,AFNE01.JPG,AFNE01.JPG,AFNE01.JPG,AFNE01.JPG,AFNE01.JPG,,,,,,,,,,,,,,,,,,,,,2,0,20,3,,,AFNE05.jpg,AFSA11.jpg,AFNE16.jpg,AFSA13.jpg,AFNE16.jpg,FN,3,num_2,32,num_6,1.38343474064,,,2017_Jun_23_1551,60.0064283179,MAFE4ImagesEEG,001,200726,
AFNE01.JPG,AFNE01.JPG,AFNE01.JPG,AFNE01.JPG,AFNE01.JPG,AFNE01.JPG,,,,,,,,,,,,,,,,,,,,,2,1,21,0,,,AFNE10.jpg,AFNE01.jpg,AFSA11.jpg,AFSA07.jpg,AFNE01.jpg,FN,3,num_6,16,num_6,0.933504501591,,,2017_Jun_23_1551,60.0064283179,MAFE4ImagesEEG,001,200726,
AFNE01.JPG,AFNE01.JPG,AFNE01.JPG,AFNE01.JPG,AFNE01.JPG,AFNE01.JPG,,,,,,,,,,,,,,,,,,,,,2,2,22,9,,,AFSA10.jpg,AFNE09.jpg,AFNE05.jpg,AFSA05.jpg,AFSA10.jpg,FS,4,num_8,16,num_8,2.46665041584,,,2017_Jun_23_1551,60.0064283179,MAFE4ImagesEEG,001,200726,
AFNE01.JPG,AFNE01.JPG,AFNE01.JPG,AFNE01.JPG,AFNE01.JPG,AFNE01.JPG,,,,,,,,,,,,,,,,,,,,,2,3,23,4,,,AFSA19.jpg,AFNE18.jpg,AFSA05.jpg,AFNE16.jpg,AFNE16.jpg,FN,3,num_4,32,num_6,1.80007120428,,,2017_Jun_23_1551,60.0064283179,MAFE4ImagesEEG,001,200726,
AFNE01.JPG,AFNE01.JPG,AFNE01.JPG,AFNE01.JPG,AFNE01.JPG,AFNE01.JPG,,,,,,,,,,,,,,,,,,,,,2,4,24,6,,,AFNE06.jpg,AFSA18.jpg,AFSA20.jpg,AFNE15.jpg,AFSA20.jpg,FS,4,num_2,32,num_8,1.11675257153,,,2017_Jun_23_1551,60.0064283179,MAFE4ImagesEEG,001,200726,
AFNE01.JPG,AFNE01.JPG,AFNE01.JPG,AFNE01.JPG,AFNE01.JPG,AFNE01.JPG,,,,,,,,,,,,,,,,,,,,,2,5,25,7,,,AFSA17.jpg,AFSA18.jpg,AFNE19.jpg,AFNE03.jpg,AFNE19.jpg,FN,3,num_2,32,num_4,1.21677598557,,,2017_Jun_23_1551,60.0064283179,MAFE4ImagesEEG,001,200726,
AFNE01.JPG,AFNE01.JPG,AFNE01.JPG,AFNE01.JPG,AFNE01.JPG,AFNE01.JPG,,,,,,,,,,,,,,,,,,,,,2,6,26,2,,,AFSA11.jpg,AFNE18.jpg,AFSA04.jpg,AFNE20.jpg,AFNE18.jpg,FN,3,num_6,16,num_6,1.16681463472,,,2017_Jun_23_1551,60.0064283179,MAFE4ImagesEEG,001,200726,
AFNE01.JPG,AFNE01.JPG,AFNE01.JPG,AFNE01.JPG,AFNE01.JPG,AFNE01.JPG,,,,,,,,,,,,,,,,,,,,,2,7,27,5,,,AFNE20.jpg,AFSA04.jpg,AFNE12.jpg,AFSA16.jpg,AFNE12.jpg,FN,3,num_2,32,num_8,1.01678336256,,,2017_Jun_23_1551,60.0064283179,MAFE4ImagesEEG,001,200726,
AFNE01.JPG,AFNE01.JPG,AFNE01.JPG,AFNE01.JPG,AFNE01.JPG,AFNE01.JPG,,,,,,,,,,,,,,,,,,,,,2,8,28,8,,,AFNE06.jpg,AFNE16.jpg,AFSA19.jpg,AFSA15.jpg,AFNE16.jpg,FN,3,num_6,32,num_8,1.43342656177,,,2017_Jun_23_1551,60.0064283179,MAFE4ImagesEEG,001,200726,
AFNE01.JPG,AFNE01.JPG,AFNE01.JPG,AFNE01.JPG,AFNE01.JPG,AFNE01.JPG,,,,,,,,,,,,,,,,,,,,,2,9,29,1,,,AFNE05.jpg,AFSA20.jpg,AFSA18.jpg,AFNE20.jpg,AFSA18.jpg,FS,4,num_2,32,num_6,0.800120277505,,,2017_Jun_23_1551,60.0064283179,MAFE4ImagesEEG,001,200726,
AFNE01.JPG,AFNE01.JPG,AFNE01.JPG,AFNE01.JPG,AFNE01.JPG,AFNE01.JPG,,,,,,,,,,,,,,,,,,,,,3,0,30,7,,,AFSA01.jpg,AFSA11.jpg,AFNE02.jpg,AFNE07.jpg,AFNE07.jpg,FN,3,num_4,16,num_4,1.11672627085,,,2017_Jun_23_1551,60.0064283179,MAFE4ImagesEEG,001,200726,
AFNE01.JPG,AFNE01.JPG,AFNE01.JPG,AFNE01.JPG,AFNE01.JPG,AFNE01.JPG,,,,,,,,,,,,,,,,,,,,,3,1,31,9,,,AFSA06.jpg,AFNE19.jpg,AFSA18.jpg,AFNE17.jpg,AFSA18.jpg,FS,4,num_2,16,num_2,0.900096222002,,,2017_Jun_23_1551,60.0064283179,MAFE4ImagesEEG,001,200726,
AFNE01.JPG,AFNE01.JPG,AFNE01.JPG,AFNE01.JPG,AFNE01.JPG,AFNE01.JPG,,,,,,,,,,,,,,,,,,,,,3,2,32,6,,,AFNE09.jpg,AFSA12.jpg,AFSA11.jpg,AFNE04.jpg,AFNE09.jpg,FN,3,num_8,16,num_8,1.00016004927,,,2017_Jun_23_1551,60.0064283179,MAFE4ImagesEEG,001,200726,
AFNE01.JPG,AFNE01.JPG,AFNE01.JPG,AFNE01.JPG,AFNE01.JPG,AFNE01.JPG,,,,,,,,,,,,,,,,,,,,,3,3,33,1,,,AFNE10.jpg,AFNE14.jpg,AFSA04.jpg,AFSA07.jpg,AFSA07.jpg,FS,4,num_4,16,num_4,0.500172878863,,,2017_Jun_23_1551,60.0064283179,MAFE4ImagesEEG,001,200726,
AFNE01.JPG,AFNE01.JPG,AFNE01.JPG,AFNE01.JPG,AFNE01.JPG,AFNE01.JPG,,,,,,,,,,,,,,,,,,,,,3,4,34,0,,,AFNE17.jpg,AFSA20.jpg,AFNE01.jpg,AFSA03.jpg,AFNE17.jpg,FN,3,num_8,16,num_8,0.866775183706,,,2017_Jun_23_1551,60.0064283179,MAFE4ImagesEEG,001,200726,
AFNE01.JPG,AFNE01.JPG,AFNE01.JPG,AFNE01.JPG,AFNE01.JPG,AFNE01.JPG,,,,,,,,,,,,,,,,,,,,,3,5,35,4,,,AFNE15.jpg,AFSA01.jpg,AFNE20.jpg,AFSA13.jpg,AFSA01.jpg,FS,4,num_6,32,num_2,1.10011257975,,,2017_Jun_23_1551,60.0064283179,MAFE4ImagesEEG,001,200726,
AFNE01.JPG,AFNE01.JPG,AFNE01.JPG,AFNE01.JPG,AFNE01.JPG,AFNE01.JPG,,,,,,,,,,,,,,,,,,,,,3,6,36,3,,,AFSA13.jpg,AFSA03.jpg,AFNE14.jpg,AFNE11.jpg,AFNE11.jpg,FN,3,num_4,32,num_8,0.849890467289,,,2017_Jun_23_1551,60.0064283179,MAFE4ImagesEEG,001,200726,
AFNE01.JPG,AFNE01.JPG,AFNE01.JPG,AFNE01.JPG,AFNE01.JPG,AFNE01.JPG,,,,,,,,,,,,,,,,,,,,,3,7,37,8,,,AFNE15.jpg,AFSA10.jpg,AFSA12.jpg,AFNE02.jpg,AFNE15.jpg,FN,3,num_8,16,num_8,3.09999967927,,,2017_Jun_23_1551,60.0064283179,MAFE4ImagesEEG,001,200726,
AFNE01.JPG,AFNE01.JPG,AFNE01.JPG,AFNE01.JPG,AFNE01.JPG,AFNE01.JPG,,,,,,,,,,,,,,,,,,,,,3,8,38,2,,,AFNE08.jpg,AFNE20.jpg,AFSA02.jpg,AFSA13.jpg,AFNE08.jpg,FN,3,num_8,32,num_6,1.3167490434,,,2017_Jun_23_1551,60.0064283179,MAFE4ImagesEEG,001,200726,
