IPosition2,IPosition3,IPosition1,IPosition6,IPosition4,IPosition5,TrialsM1.thisRepN,TrialsM1.thisTrialN,TrialsM1.thisN,TrialsM1.thisIndex,TrialsF1.thisRepN,TrialsF1.thisTrialN,TrialsF1.thisN,TrialsF1.thisIndex,TrialsM2.thisRepN,TrialsM2.thisTrialN,TrialsM2.thisN,TrialsM2.thisIndex,TrialsF2.thisRepN,TrialsF2.thisTrialN,TrialsF2.thisN,TrialsF2.thisIndex,TrialsM3.thisRepN,TrialsM3.thisTrialN,TrialsM3.thisN,TrialsM3.thisIndex,TrialsF3.thisRepN,TrialsF3.thisTrialN,TrialsF3.thisN,TrialsF3.thisIndex,InstrKey_resp.keys,InstrKey_resp.rt,Image0 _Position,Image1 _Position,Image2 _Position,Image3 _Position,Center_image,condition,code,correct_answer,accuracy,Key_Resp.keys,Key_Resp.rt,BreakKey_resp.keys,BreakKey_resp.rt,date,frameRate,expName,session,participant,
,,,,,,,,,,,,,,,,,,,,,,,,,,,,,,space,23.0820463673,,,,,,,,,,,,,,2017_Jul_07_1809,60.0083147148,MAFE4ImagesEEG,001,200788,
AFNE22.JPG,AFSA24.JPG,AFSA22.JPG,AFNE25.JPG,AFNE24.JPG,AFSA25.JPG,0,0,0,6,,,,,,,,,,,,,,,,,,,,,,,AMSA09.jpg,AMNE11.jpg,AMSA02.jpg,AMNE02.jpg,AMNE02.jpg,MN,1,num_4,32,num_8,1.36669437855,,,2017_Jul_07_1809,60.0083147148,MAFE4ImagesEEG,001,200788,
AFNE23.JPG,AFNE24.JPG,AFNE22.JPG,AFSA24.JPG,AFSA22.JPG,AFSA23.JPG,0,1,1,8,,,,,,,,,,,,,,,,,,,,,,,AMNE02.jpg,AMSA10.jpg,AMSA11.jpg,AMNE05.jpg,AMNE02.jpg,MN,1,num_8,32,num_6,1.18343298696,,,2017_Jul_07_1809,60.0083147148,MAFE4ImagesEEG,001,200788,
AMSA21.JPG,AMNE22.JPG,AMNE21.JPG,AMSA23.JPG,AMSA22.JPG,AMNE23.JPG,0,2,2,1,,,,,,,,,,,,,,,,,,,,,,,AMSA18.jpg,AMNE10.jpg,AMSA07.jpg,AMNE20.jpg,AMSA07.jpg,MS,2,num_2,16,num_2,1.35008874862,,,2017_Jul_07_1809,60.0083147148,MAFE4ImagesEEG,001,200788,
AMNE23.JPG,AMNE24.JPG,AMNE22.JPG,AMSA24.JPG,AMSA22.JPG,AMSA23.JPG,0,3,3,9,,,,,,,,,,,,,,,,,,,,,,,AMNE05.jpg,AMSA14.jpg,AMNE10.jpg,AMSA17.jpg,AMNE10.jpg,MN,1,num_2,32,num_8,1.03348613344,,,2017_Jul_07_1809,60.0083147148,MAFE4ImagesEEG,001,200788,
AMSA21.JPG,AMNE23.JPG,AMNE21.JPG,AMSA25.JPG,AMNE25.JPG,AMSA23.JPG,0,4,4,5,,,,,,,,,,,,,,,,,,,,,,,AMNE09.jpg,AMNE03.jpg,AMSA01.jpg,AMSA03.jpg,AMSA03.jpg,MS,2,num_4,32,num_6,1.08345665759,,,2017_Jul_07_1809,60.0083147148,MAFE4ImagesEEG,001,200788,
AFSA21.JPG,AFNE22.JPG,AFNE21.JPG,AFSA23.JPG,AFSA22.JPG,AFNE23.JPG,0,5,5,0,,,,,,,,,,,,,,,,,,,,,,,AMNE20.jpg,AMSA07.jpg,AMNE19.jpg,AMSA10.jpg,AMNE20.jpg,MN,1,num_8,16,num_8,0.966810229584,,,2017_Jul_07_1809,60.0083147148,MAFE4ImagesEEG,001,200788,
AMNE22.JPG,AMSA24.JPG,AMSA22.JPG,AMNE25.JPG,AMNE24.JPG,AMSA25.JPG,0,6,6,7,,,,,,,,,,,,,,,,,,,,,,,AMSA07.jpg,AMNE20.jpg,AMNE03.jpg,AMSA08.jpg,AMNE20.jpg,MN,1,num_6,32,num_4,1.58335273806,,,2017_Jul_07_1809,60.0083147148,MAFE4ImagesEEG,001,200788,
AFSA25.JPG,AFNE24.JPG,AFSA24.JPG,AFNE21.JPG,AFSA21.JPG,AFNE25.JPG,0,7,7,2,,,,,,,,,,,,,,,,,,,,,,,AMSA02.jpg,AMNE01.jpg,AMSA04.jpg,AMNE18.jpg,AMSA02.jpg,MS,2,num_8,16,num_8,1.1501707295,,,2017_Jul_07_1809,60.0083147148,MAFE4ImagesEEG,001,200788,
AFSA21.JPG,AFNE23.JPG,AFNE21.JPG,AFSA25.JPG,AFNE25.JPG,AFSA23.JPG,0,8,8,4,,,,,,,,,,,,,,,,,,,,,,,AMSA10.jpg,AMSA11.jpg,AMNE08.jpg,AMNE09.jpg,AMSA11.jpg,MS,2,num_6,16,num_6,1.00028096745,,,2017_Jul_07_1809,60.0083147148,MAFE4ImagesEEG,001,200788,
AMSA25.JPG,AMNE24.JPG,AMSA24.JPG,AMNE26.JPG,AMSA21.JPG,AMNE25.JPG,0,9,9,3,,,,,,,,,,,,,,,,,,,,,,,AMNE09.jpg,AMSA15.jpg,AMNE15.jpg,AMSA11.jpg,AMNE09.jpg,MN,1,num_8,32,num_2,1.43351397361,,,2017_Jul_07_1809,60.0083147148,MAFE4ImagesEEG,001,200788,
AMSA21.JPG,AMNE22.JPG,AMNE21.JPG,AMSA23.JPG,AMSA22.JPG,AMNE23.JPG,,,,,0,0,0,1,,,,,,,,,,,,,,,,,,,AFNE11.jpg,AFSA03.jpg,AFSA14.jpg,AFNE08.jpg,AFNE08.jpg,FN,3,num_4,16,num_4,1.6665614642,,,2017_Jul_07_1809,60.0083147148,MAFE4ImagesEEG,001,200788,
AFSA25.JPG,AFNE24.JPG,AFSA24.JPG,AFNE21.JPG,AFSA21.JPG,AFNE25.JPG,,,,,0,1,1,2,,,,,,,,,,,,,,,,,,,AFNE09.jpg,AFSA16.jpg,AFSA01.jpg,AFNE20.jpg,AFSA16.jpg,FS,4,num_6,16,num_6,1.46658859879,,,2017_Jul_07_1809,60.0083147148,MAFE4ImagesEEG,001,200788,
AMSA21.JPG,AMNE23.JPG,AMNE21.JPG,AMSA25.JPG,AMNE25.JPG,AMSA23.JPG,,,,,0,2,2,5,,,,,,,,,,,,,,,,,,,AFSA09.jpg,AFNE16.jpg,AFNE17.jpg,AFSA11.jpg,AFNE17.jpg,FN,3,num_2,16,num_2,1.61669582187,,,2017_Jul_07_1809,60.0083147148,MAFE4ImagesEEG,001,200788,
AFNE23.JPG,AFNE24.JPG,AFNE22.JPG,AFSA24.JPG,AFSA22.JPG,AFSA23.JPG,,,,,0,3,3,8,,,,,,,,,,,,,,,,,,,AFSA19.jpg,AFSA08.jpg,AFNE05.jpg,AFNE04.jpg,AFSA19.jpg,FS,4,num_8,16,num_8,1.2336690831,,,2017_Jul_07_1809,60.0083147148,MAFE4ImagesEEG,001,200788,
AFNE22.JPG,AFSA24.JPG,AFSA22.JPG,AFNE25.JPG,AFNE24.JPG,AFSA25.JPG,,,,,0,4,4,6,,,,,,,,,,,,,,,,,,,AFNE06.jpg,AFNE18.jpg,AFSA03.jpg,AFSA17.jpg,AFSA03.jpg,FS,4,num_2,32,num_4,1.28340675053,,,2017_Jul_07_1809,60.0083147148,MAFE4ImagesEEG,001,200788,
AFSA21.JPG,AFNE22.JPG,AFNE21.JPG,AFSA23.JPG,AFSA22.JPG,AFNE23.JPG,,,,,0,5,5,0,,,,,,,,,,,,,,,,,,,AFNE06.jpg,AFSA12.jpg,AFNE10.jpg,AFSA02.jpg,AFSA02.jpg,FS,4,num_4,16,num_4,1.78337050695,,,2017_Jul_07_1809,60.0083147148,MAFE4ImagesEEG,001,200788,
AFSA21.JPG,AFNE23.JPG,AFNE21.JPG,AFSA25.JPG,AFNE25.JPG,AFSA23.JPG,,,,,0,6,6,4,,,,,,,,,,,,,,,,,,,AFSA09.jpg,AFNE03.jpg,AFNE16.jpg,AFSA14.jpg,AFNE16.jpg,FN,3,num_2,32,num_8,1.8834109843,,,2017_Jul_07_1809,60.0083147148,MAFE4ImagesEEG,001,200788,
AMNE23.JPG,AMNE24.JPG,AMNE22.JPG,AMSA24.JPG,AMSA22.JPG,AMSA23.JPG,,,,,0,7,7,9,,,,,,,,,,,,,,,,,,,AFNE02.jpg,AFSA10.jpg,AFNE11.jpg,AFSA03.jpg,AFSA03.jpg,FS,4,num_4,32,num_6,2.01699949766,,,2017_Jul_07_1809,60.0083147148,MAFE4ImagesEEG,001,200788,
AMSA25.JPG,AMNE24.JPG,AMSA24.JPG,AMNE26.JPG,AMSA21.JPG,AMNE25.JPG,,,,,0,8,8,3,,,,,,,,,,,,,,,,,,,AFNE12.jpg,AFSA15.jpg,AFNE09.jpg,AFSA07.jpg,AFSA15.jpg,FS,4,num_6,16,num_6,1.48344889574,,,2017_Jul_07_1809,60.0083147148,MAFE4ImagesEEG,001,200788,
AMNE22.JPG,AMSA24.JPG,AMSA22.JPG,AMNE25.JPG,AMNE24.JPG,AMSA25.JPG,,,,,0,9,9,7,,,,,,,,,,,,,,,,,,,AFSA01.jpg,AFSA03.jpg,AFNE13.jpg,AFNE19.jpg,AFNE19.jpg,FN,3,num_4,16,num_4,1.53340306203,,,2017_Jul_07_1809,60.0083147148,MAFE4ImagesEEG,001,200788,
AMNE23.JPG,AMNE24.JPG,AMNE22.JPG,AMSA24.JPG,AMSA22.JPG,AMSA23.JPG,,,,,,,,,0,0,0,9,,,,,,,,,,,,,,,AMSA06.jpg,AMNE06.jpg,AMSA16.jpg,AMNE01.jpg,AMSA06.jpg,MS,2,num_8,32,num_2,1.85003839247,,,2017_Jul_07_1809,60.0083147148,MAFE4ImagesEEG,001,200788,
AMSA25.JPG,AMNE24.JPG,AMSA24.JPG,AMNE26.JPG,AMSA21.JPG,AMNE25.JPG,,,,,,,,,0,1,1,3,,,,,,,,,,,,,,,AMSA12.jpg,AMNE03.jpg,AMNE06.jpg,AMSA19.jpg,AMSA19.jpg,MS,2,num_4,16,num_4,0.900109307957,,,2017_Jul_07_1809,60.0083147148,MAFE4ImagesEEG,001,200788,
AFSA21.JPG,AFNE22.JPG,AFNE21.JPG,AFSA23.JPG,AFSA22.JPG,AFNE23.JPG,,,,,,,,,0,2,2,0,,,,,,,,,,,,,,,AMSA14.jpg,AMNE15.jpg,AMSA18.jpg,AMNE18.jpg,AMNE18.jpg,MN,1,num_4,32,num_8,1.46672715805,,,2017_Jul_07_1809,60.0083147148,MAFE4ImagesEEG,001,200788,
AMNE22.JPG,AMSA24.JPG,AMSA22.JPG,AMNE25.JPG,AMNE24.JPG,AMSA25.JPG,,,,,,,,,0,3,3,7,,,,,,,,,,,,,,,AMSA11.jpg,AMNE11.jpg,AMSA07.jpg,AMNE15.jpg,AMSA11.jpg,MS,2,num_8,32,num_6,1.20007486059,,,2017_Jul_07_1809,60.0083147148,MAFE4ImagesEEG,001,200788,
AFSA25.JPG,AFNE24.JPG,AFSA24.JPG,AFNE21.JPG,AFSA21.JPG,AFNE25.JPG,,,,,,,,,0,4,4,2,,,,,,,,,,,,,,,AMSA20.jpg,AMNE16.jpg,AMSA06.jpg,AMNE02.jpg,AMSA06.jpg,MS,2,num_2,32,num_8,1.100071589,,,2017_Jul_07_1809,60.0083147148,MAFE4ImagesEEG,001,200788,
AMSA21.JPG,AMNE22.JPG,AMNE21.JPG,AMSA23.JPG,AMSA22.JPG,AMNE23.JPG,,,,,,,,,0,5,5,1,,,,,,,,,,,,,,,AMNE12.jpg,AMSA09.jpg,AMNE13.jpg,AMSA14.jpg,AMNE13.jpg,MN,1,num_2,32,num_4,1.41675663402,,,2017_Jul_07_1809,60.0083147148,MAFE4ImagesEEG,001,200788,
AFNE23.JPG,AFNE24.JPG,AFNE22.JPG,AFSA24.JPG,AFSA22.JPG,AFSA23.JPG,,,,,,,,,0,6,6,8,,,,,,,,,,,,,,,AMSA11.jpg,AMNE18.jpg,AMNE02.jpg,AMSA03.jpg,AMNE18.jpg,MN,1,num_6,32,num_8,1.45008881274,,,2017_Jul_07_1809,60.0083147148,MAFE4ImagesEEG,001,200788,
AFSA21.JPG,AFNE23.JPG,AFNE21.JPG,AFSA25.JPG,AFNE25.JPG,AFSA23.JPG,,,,,,,,,0,7,7,4,,,,,,,,,,,,,,,AMSA14.jpg,AMSA08.jpg,AMNE10.jpg,AMNE16.jpg,AMSA14.jpg,MS,2,num_8,32,num_6,0.950174129335,,,2017_Jul_07_1809,60.0083147148,MAFE4ImagesEEG,001,200788,
AMSA21.JPG,AMNE23.JPG,AMNE21.JPG,AMSA25.JPG,AMNE25.JPG,AMSA23.JPG,,,,,,,,,0,8,8,5,,,,,,,,,,,,,,,AMSA19.jpg,AMSA12.jpg,AMNE07.jpg,AMNE06.jpg,AMNE07.jpg,MN,1,num_2,16,num_2,1.48339597369,,,2017_Jul_07_1809,60.0083147148,MAFE4ImagesEEG,001,200788,
AFNE22.JPG,AFSA24.JPG,AFSA22.JPG,AFNE25.JPG,AFNE24.JPG,AFSA25.JPG,,,,,,,,,0,9,9,6,,,,,,,,,,,,,,,AMSA10.jpg,AMSA19.jpg,AMNE20.jpg,AMNE06.jpg,AMNE20.jpg,MN,1,num_2,32,num_4,1.33325731813,,,2017_Jul_07_1809,60.0083147148,MAFE4ImagesEEG,001,200788,
AMNE22.JPG,AMSA24.JPG,AMSA22.JPG,AMNE25.JPG,AMNE24.JPG,AMSA25.JPG,,,,,,,,,,,,,0,0,0,7,,,,,,,,,,,AFNE06.jpg,AFSA18.jpg,AFNE16.jpg,AFSA20.jpg,AFNE06.jpg,FN,3,num_8,16,num_8,1.26680240349,,,2017_Jul_07_1809,60.0083147148,MAFE4ImagesEEG,001,200788,
AMSA21.JPG,AMNE23.JPG,AMNE21.JPG,AMSA25.JPG,AMNE25.JPG,AMSA23.JPG,,,,,,,,,,,,,0,1,1,5,,,,,,,,,,,AFNE11.jpg,AFNE07.jpg,AFSA20.jpg,AFSA04.jpg,AFNE11.jpg,FN,3,num_8,32,num_6,1.45008047344,,,2017_Jul_07_1809,60.0083147148,MAFE4ImagesEEG,001,200788,
AMSA21.JPG,AMNE22.JPG,AMNE21.JPG,AMSA23.JPG,AMSA22.JPG,AMNE23.JPG,,,,,,,,,,,,,0,2,2,1,,,,,,,,,,,AFNE19.jpg,AFNE06.jpg,AFSA04.jpg,AFSA03.jpg,AFSA04.jpg,FS,4,num_2,32,num_6,1.98345563118,,,2017_Jul_07_1809,60.0083147148,MAFE4ImagesEEG,001,200788,
AMNE23.JPG,AMNE24.JPG,AMNE22.JPG,AMSA24.JPG,AMSA22.JPG,AMSA23.JPG,,,,,,,,,,,,,0,3,3,9,,,,,,,,,,,AFSA10.jpg,AFSA08.jpg,AFNE17.jpg,AFNE12.jpg,AFSA10.jpg,FS,4,num_8,16,num_8,1.38340809767,,,2017_Jul_07_1809,60.0083147148,MAFE4ImagesEEG,001,200788,
AFNE23.JPG,AFNE24.JPG,AFNE22.JPG,AFSA24.JPG,AFSA22.JPG,AFSA23.JPG,,,,,,,,,,,,,0,4,4,8,,,,,,,,,,,AFSA15.jpg,AFNE20.jpg,AFSA07.jpg,AFNE04.jpg,AFSA15.jpg,FS,4,num_8,32,num_4,1.91667837359,,,2017_Jul_07_1809,60.0083147148,MAFE4ImagesEEG,001,200788,
AFSA21.JPG,AFNE22.JPG,AFNE21.JPG,AFSA23.JPG,AFSA22.JPG,AFNE23.JPG,,,,,,,,,,,,,0,5,5,0,,,,,,,,,,,AFNE02.jpg,AFSA12.jpg,AFSA19.jpg,AFNE19.jpg,AFSA12.jpg,FS,4,num_6,16,num_6,1.13350191386,,,2017_Jul_07_1809,60.0083147148,MAFE4ImagesEEG,001,200788,
AFNE22.JPG,AFSA24.JPG,AFSA22.JPG,AFNE25.JPG,AFNE24.JPG,AFSA25.JPG,,,,,,,,,,,,,0,6,6,6,,,,,,,,,,,AFNE01.jpg,AFSA02.jpg,AFSA16.jpg,AFNE20.jpg,AFNE01.jpg,FN,3,num_8,16,num_8,1.3501265957,,,2017_Jul_07_1809,60.0083147148,MAFE4ImagesEEG,001,200788,
AFSA21.JPG,AFNE23.JPG,AFNE21.JPG,AFSA25.JPG,AFNE25.JPG,AFSA23.JPG,,,,,,,,,,,,,0,7,7,4,,,,,,,,,,,AFSA10.jpg,AFNE08.jpg,AFNE17.jpg,AFSA02.jpg,AFNE08.jpg,FN,3,num_6,32,num_4,1.23331145896,,,2017_Jul_07_1809,60.0083147148,MAFE4ImagesEEG,001,200788,
AFSA25.JPG,AFNE24.JPG,AFSA24.JPG,AFNE21.JPG,AFSA21.JPG,AFNE25.JPG,,,,,,,,,,,,,0,8,8,2,,,,,,,,,,,AFSA12.jpg,AFNE13.jpg,AFSA10.jpg,AFNE20.jpg,AFNE20.jpg,FN,3,num_4,32,num_8,1.13346534956,,,2017_Jul_07_1809,60.0083147148,MAFE4ImagesEEG,001,200788,
AMSA25.JPG,AMNE24.JPG,AMSA24.JPG,AMNE26.JPG,AMSA21.JPG,AMNE25.JPG,,,,,,,,,,,,,0,9,9,3,,,,,,,,,,,AFNE04.jpg,AFSA11.jpg,AFNE07.jpg,AFSA12.jpg,AFNE04.jpg,FN,3,num_8,32,num_2,0.633460217854,,,2017_Jul_07_1809,60.0083147148,MAFE4ImagesEEG,001,200788,
AFSA25.JPG,AFNE24.JPG,AFSA24.JPG,AFNE21.JPG,AFSA21.JPG,AFNE25.JPG,,,,,,,,,,,,,,,,,0,0,0,2,,,,,,,AMNE01.jpg,AMSA14.jpg,AMSA05.jpg,AMNE03.jpg,AMSA05.jpg,MS,2,num_2,32,num_8,1.0001523511,,,2017_Jul_07_1809,60.0083147148,MAFE4ImagesEEG,001,200788,
AFSA21.JPG,AFNE22.JPG,AFNE21.JPG,AFSA23.JPG,AFSA22.JPG,AFNE23.JPG,,,,,,,,,,,,,,,,,0,1,1,0,,,,,,,AMSA02.jpg,AMSA18.jpg,AMNE11.jpg,AMNE06.jpg,AMNE06.jpg,MN,1,num_4,16,num_4,0.983447612729,,,2017_Jul_07_1809,60.0083147148,MAFE4ImagesEEG,001,200788,
AMSA21.JPG,AMNE23.JPG,AMNE21.JPG,AMSA25.JPG,AMNE25.JPG,AMSA23.JPG,,,,,,,,,,,,,,,,,0,2,2,5,,,,,,,AMSA01.jpg,AMNE08.jpg,AMSA07.jpg,AMNE15.jpg,AMNE15.jpg,MN,1,num_4,16,num_4,1.18340732786,,,2017_Jul_07_1809,60.0083147148,MAFE4ImagesEEG,001,200788,
AMNE22.JPG,AMSA24.JPG,AMSA22.JPG,AMNE25.JPG,AMNE24.JPG,AMSA25.JPG,,,,,,,,,,,,,,,,,0,3,3,7,,,,,,,AMNE14.jpg,AMSA07.jpg,AMSA03.jpg,AMNE04.jpg,AMNE04.jpg,MN,1,num_4,32,num_8,1.68342176103,,,2017_Jul_07_1809,60.0083147148,MAFE4ImagesEEG,001,200788,
AMSA21.JPG,AMNE22.JPG,AMNE21.JPG,AMSA23.JPG,AMSA22.JPG,AMNE23.JPG,,,,,,,,,,,,,,,,,0,4,4,1,,,,,,,AMSA14.jpg,AMNE08.jpg,AMNE09.jpg,AMSA02.jpg,AMSA02.jpg,MS,2,num_4,16,num_4,0.95018246863,,,2017_Jul_07_1809,60.0083147148,MAFE4ImagesEEG,001,200788,
AFNE23.JPG,AFNE24.JPG,AFNE22.JPG,AFSA24.JPG,AFSA22.JPG,AFSA23.JPG,,,,,,,,,,,,,,,,,0,5,5,8,,,,,,,AMSA11.jpg,AMNE04.jpg,AMNE07.jpg,AMSA17.jpg,AMNE04.jpg,MN,1,num_6,32,num_8,0.933514935896,,,2017_Jul_07_1809,60.0083147148,MAFE4ImagesEEG,001,200788,
AFSA21.JPG,AFNE23.JPG,AFNE21.JPG,AFSA25.JPG,AFNE25.JPG,AFSA23.JPG,,,,,,,,,,,,,,,,,0,6,6,4,,,,,,,AMSA08.jpg,AMSA19.jpg,AMNE17.jpg,AMNE13.jpg,AMSA08.jpg,MS,2,num_8,32,num_6,0.783461917657,,,2017_Jul_07_1809,60.0083147148,MAFE4ImagesEEG,001,200788,
AMNE23.JPG,AMNE24.JPG,AMNE22.JPG,AMSA24.JPG,AMSA22.JPG,AMSA23.JPG,,,,,,,,,,,,,,,,,0,7,7,9,,,,,,,AMNE11.jpg,AMNE03.jpg,AMSA07.jpg,AMSA19.jpg,AMSA07.jpg,MS,2,num_2,16,num_2,1.10013124638,,,2017_Jul_07_1809,60.0083147148,MAFE4ImagesEEG,001,200788,
AFNE22.JPG,AFSA24.JPG,AFSA22.JPG,AFNE25.JPG,AFNE24.JPG,AFSA25.JPG,,,,,,,,,,,,,,,,,0,8,8,6,,,,,,,AMNE16.jpg,AMSA02.jpg,AMSA19.jpg,AMNE01.jpg,AMSA19.jpg,MS,2,num_2,32,num_4,1.05018060817,,,2017_Jul_07_1809,60.0083147148,MAFE4ImagesEEG,001,200788,
AMSA25.JPG,AMNE24.JPG,AMSA24.JPG,AMNE26.JPG,AMSA21.JPG,AMNE25.JPG,,,,,,,,,,,,,,,,,0,9,9,3,,,,,,,AMSA17.jpg,AMNE03.jpg,AMNE20.jpg,AMSA02.jpg,AMSA17.jpg,MS,2,num_8,16,num_8,1.60018705507,,,2017_Jul_07_1809,60.0083147148,MAFE4ImagesEEG,001,200788,
AFSA21.JPG,AFNE22.JPG,AFNE21.JPG,AFSA23.JPG,AFSA22.JPG,AFNE23.JPG,,,,,,,,,,,,,,,,,,,,,0,0,0,0,,,AFNE14.jpg,AFSA10.jpg,AFSA14.jpg,AFNE08.jpg,AFNE14.jpg,FN,3,num_8,16,num_8,1.63339414552,,,2017_Jul_07_1809,60.0083147148,MAFE4ImagesEEG,001,200788,
AMSA25.JPG,AMNE24.JPG,AMSA24.JPG,AMNE26.JPG,AMSA21.JPG,AMNE25.JPG,,,,,,,,,,,,,,,,,,,,,0,1,1,3,,,AFNE03.jpg,AFSA09.jpg,AFNE10.jpg,AFSA01.jpg,AFNE10.jpg,FN,3,num_2,16,num_2,1.28342920227,,,2017_Jul_07_1809,60.0083147148,MAFE4ImagesEEG,001,200788,
AMSA21.JPG,AMNE22.JPG,AMNE21.JPG,AMSA23.JPG,AMSA22.JPG,AMNE23.JPG,,,,,,,,,,,,,,,,,,,,,0,2,2,1,,,AFSA01.jpg,AFNE06.jpg,AFNE15.jpg,AFSA19.jpg,AFNE15.jpg,FN,3,num_2,32,num_6,1.43338984752,,,2017_Jul_07_1809,60.0083147148,MAFE4ImagesEEG,001,200788,
AMSA21.JPG,AMNE23.JPG,AMNE21.JPG,AMSA25.JPG,AMNE25.JPG,AMSA23.JPG,,,,,,,,,,,,,,,,,,,,,0,3,3,5,,,AFNE15.jpg,AFNE20.jpg,AFSA06.jpg,AFSA11.jpg,AFSA06.jpg,FS,4,num_2,32,num_8,1.283429523,,,2017_Jul_07_1809,60.0083147148,MAFE4ImagesEEG,001,200788,
AFNE22.JPG,AFSA24.JPG,AFSA22.JPG,AFNE25.JPG,AFNE24.JPG,AFSA25.JPG,,,,,,,,,,,,,,,,,,,,,0,4,4,6,,,AFSA01.jpg,AFSA06.jpg,AFNE13.jpg,AFNE12.jpg,AFSA06.jpg,FS,4,num_6,16,num_6,0.883467755164,,,2017_Jul_07_1809,60.0083147148,MAFE4ImagesEEG,001,200788,
AFNE23.JPG,AFNE24.JPG,AFNE22.JPG,AFSA24.JPG,AFSA22.JPG,AFSA23.JPG,,,,,,,,,,,,,,,,,,,,,0,5,5,8,,,AFSA09.jpg,AFNE03.jpg,AFSA02.jpg,AFNE14.jpg,AFNE03.jpg,FN,3,num_6,32,num_4,0.866771997418,,,2017_Jul_07_1809,60.0083147148,MAFE4ImagesEEG,001,200788,
AFSA25.JPG,AFNE24.JPG,AFSA24.JPG,AFNE21.JPG,AFSA21.JPG,AFNE25.JPG,,,,,,,,,,,,,,,,,,,,,0,6,6,2,,,AFNE01.jpg,AFSA14.jpg,AFSA09.jpg,AFNE17.jpg,AFNE17.jpg,FN,3,num_4,32,num_2,1.91626750666,,,2017_Jul_07_1809,60.0083147148,MAFE4ImagesEEG,001,200788,
AFSA21.JPG,AFNE23.JPG,AFNE21.JPG,AFSA25.JPG,AFNE25.JPG,AFSA23.JPG,,,,,,,,,,,,,,,,,,,,,0,7,7,4,,,AFSA05.jpg,AFNE14.jpg,AFSA20.jpg,AFNE02.jpg,AFNE14.jpg,FN,3,num_6,16,num_6,0.900205529644,,,2017_Jul_07_1809,60.0083147148,MAFE4ImagesEEG,001,200788,
AMNE23.JPG,AMNE24.JPG,AMNE22.JPG,AMSA24.JPG,AMSA22.JPG,AMSA23.JPG,,,,,,,,,,,,,,,,,,,,,0,8,8,9,,,AFNE13.jpg,AFSA20.jpg,AFNE16.jpg,AFSA13.jpg,AFSA13.jpg,FS,4,num_4,16,num_4,1.35011986026,,,2017_Jul_07_1809,60.0083147148,MAFE4ImagesEEG,001,200788,
AMNE22.JPG,AMSA24.JPG,AMSA22.JPG,AMNE25.JPG,AMNE24.JPG,AMSA25.JPG,,,,,,,,,,,,,,,,,,,,,0,9,9,7,,,AFSA02.jpg,AFNE04.jpg,AFNE16.jpg,AFSA14.jpg,AFSA02.jpg,FS,4,num_8,16,num_8,1.28342342901,,,2017_Jul_07_1809,60.0083147148,MAFE4ImagesEEG,001,200788,
,,,,,,,,,,,,,,,,,,,,,,,,,,,,,,,,,,,,,,,,,,,space,16.0655655049,2017_Jul_07_1809,60.0083147148,MAFE4ImagesEEG,001,200788,
AFNE01.JPG,AFNE01.JPG,AFNE01.JPG,AFNE01.JPG,AFNE01.JPG,AFNE01.JPG,0,0,0,9,,,,,,,,,,,,,,,,,,,,,,,AMNE06.jpg,AMNE08.jpg,AMSA18.jpg,AMSA06.jpg,AMNE06.jpg,MN,1,num_8,32,num_6,0.900137532968,,,2017_Jul_07_1809,60.0083147148,MAFE4ImagesEEG,001,200788,
AFNE01.JPG,AFNE01.JPG,AFNE01.JPG,AFNE01.JPG,AFNE01.JPG,AFNE01.JPG,0,1,1,7,,,,,,,,,,,,,,,,,,,,,,,AMNE04.jpg,AMSA04.jpg,AMSA15.jpg,AMNE19.jpg,AMSA04.jpg,MS,2,num_6,32,num_8,1.06661111466,,,2017_Jul_07_1809,60.0083147148,MAFE4ImagesEEG,001,200788,
AFNE01.JPG,AFNE01.JPG,AFNE01.JPG,AFNE01.JPG,AFNE01.JPG,AFNE01.JPG,0,2,2,6,,,,,,,,,,,,,,,,,,,,,,,AMSA18.jpg,AMSA15.jpg,AMNE05.jpg,AMNE01.jpg,AMSA15.jpg,MS,2,num_6,16,num_6,1.11671891506,,,2017_Jul_07_1809,60.0083147148,MAFE4ImagesEEG,001,200788,
AFNE01.JPG,AFNE01.JPG,AFNE01.JPG,AFNE01.JPG,AFNE01.JPG,AFNE01.JPG,0,3,3,8,,,,,,,,,,,,,,,,,,,,,,,AMNE18.jpg,AMSA14.jpg,AMNE05.jpg,AMSA20.jpg,AMNE05.jpg,MN,1,num_2,32,num_8,0.866746659041,,,2017_Jul_07_1809,60.0083147148,MAFE4ImagesEEG,001,200788,
AFNE01.JPG,AFNE01.JPG,AFNE01.JPG,AFNE01.JPG,AFNE01.JPG,AFNE01.JPG,0,4,4,4,,,,,,,,,,,,,,,,,,,,,,,AMSA19.jpg,AMSA10.jpg,AMNE18.jpg,AMNE03.jpg,AMSA19.jpg,MS,2,num_8,32,num_2,1.08353684237,,,2017_Jul_07_1809,60.0083147148,MAFE4ImagesEEG,001,200788,
AFNE01.JPG,AFNE01.JPG,AFNE01.JPG,AFNE01.JPG,AFNE01.JPG,AFNE01.JPG,0,5,5,1,,,,,,,,,,,,,,,,,,,,,,,AMSA18.jpg,AMNE01.jpg,AMNE15.jpg,AMSA06.jpg,AMNE01.jpg,MN,1,num_6,32,num_8,1.25007649639,,,2017_Jul_07_1809,60.0083147148,MAFE4ImagesEEG,001,200788,
AFNE01.JPG,AFNE01.JPG,AFNE01.JPG,AFNE01.JPG,AFNE01.JPG,AFNE01.JPG,0,6,6,0,,,,,,,,,,,,,,,,,,,,,,,AMNE12.jpg,AMSA11.jpg,AMNE11.jpg,AMSA14.jpg,AMNE11.jpg,MN,1,num_2,32,num_6,1.08342554583,,,2017_Jul_07_1809,60.0083147148,MAFE4ImagesEEG,001,200788,
AFNE01.JPG,AFNE01.JPG,AFNE01.JPG,AFNE01.JPG,AFNE01.JPG,AFNE01.JPG,0,7,7,5,,,,,,,,,,,,,,,,,,,,,,,AMNE16.jpg,AMNE15.jpg,AMSA09.jpg,AMSA15.jpg,AMNE16.jpg,MN,1,num_8,32,num_4,1.08346339304,,,2017_Jul_07_1809,60.0083147148,MAFE4ImagesEEG,001,200788,
AFNE01.JPG,AFNE01.JPG,AFNE01.JPG,AFNE01.JPG,AFNE01.JPG,AFNE01.JPG,0,8,8,3,,,,,,,,,,,,,,,,,,,,,,,AMSA10.jpg,AMSA07.jpg,AMNE18.jpg,AMNE12.jpg,AMNE12.jpg,MN,1,num_4,32,num_2,1.58395540703,,,2017_Jul_07_1809,60.0083147148,MAFE4ImagesEEG,001,200788,
AFNE01.JPG,AFNE01.JPG,AFNE01.JPG,AFNE01.JPG,AFNE01.JPG,AFNE01.JPG,0,9,9,2,,,,,,,,,,,,,,,,,,,,,,,AMNE15.jpg,AMSA01.jpg,AMSA18.jpg,AMNE18.jpg,AMNE15.jpg,MN,1,num_8,16,num_8,0.783525744802,,,2017_Jul_07_1809,60.0083147148,MAFE4ImagesEEG,001,200788,
AFNE01.JPG,AFNE01.JPG,AFNE01.JPG,AFNE01.JPG,AFNE01.JPG,AFNE01.JPG,1,0,10,1,,,,,,,,,,,,,,,,,,,,,,,AMNE20.jpg,AMSA17.jpg,AMSA19.jpg,AMNE09.jpg,AMSA17.jpg,MS,2,num_6,16,num_6,0.933435071842,,,2017_Jul_07_1809,60.0083147148,MAFE4ImagesEEG,001,200788,
AFNE01.JPG,AFNE01.JPG,AFNE01.JPG,AFNE01.JPG,AFNE01.JPG,AFNE01.JPG,1,1,11,9,,,,,,,,,,,,,,,,,,,,,,,AMSA16.jpg,AMSA08.jpg,AMNE07.jpg,AMNE06.jpg,AMNE06.jpg,MN,1,num_4,16,num_4,0.950087529724,,,2017_Jul_07_1809,60.0083147148,MAFE4ImagesEEG,001,200788,
AFNE01.JPG,AFNE01.JPG,AFNE01.JPG,AFNE01.JPG,AFNE01.JPG,AFNE01.JPG,1,2,12,5,,,,,,,,,,,,,,,,,,,,,,,AMSA04.jpg,AMNE01.jpg,AMNE03.jpg,AMSA01.jpg,AMSA01.jpg,MS,2,num_4,32,num_8,1.26671740762,,,2017_Jul_07_1809,60.0083147148,MAFE4ImagesEEG,001,200788,
AFNE01.JPG,AFNE01.JPG,AFNE01.JPG,AFNE01.JPG,AFNE01.JPG,AFNE01.JPG,1,3,13,3,,,,,,,,,,,,,,,,,,,,,,,AMSA05.jpg,AMNE08.jpg,AMNE19.jpg,AMSA07.jpg,AMSA07.jpg,MS,2,num_4,32,num_8,1.53341204277,,,2017_Jul_07_1809,60.0083147148,MAFE4ImagesEEG,001,200788,
AFNE01.JPG,AFNE01.JPG,AFNE01.JPG,AFNE01.JPG,AFNE01.JPG,AFNE01.JPG,1,4,14,0,,,,,,,,,,,,,,,,,,,,,,,AMNE13.jpg,AMSA20.jpg,AMNE08.jpg,AMSA13.jpg,AMSA13.jpg,MS,2,num_4,16,num_4,1.58340854675,,,2017_Jul_07_1809,60.0083147148,MAFE4ImagesEEG,001,200788,
AFNE01.JPG,AFNE01.JPG,AFNE01.JPG,AFNE01.JPG,AFNE01.JPG,AFNE01.JPG,1,5,15,4,,,,,,,,,,,,,,,,,,,,,,,AMSA03.jpg,AMNE17.jpg,AMSA02.jpg,AMNE16.jpg,AMNE16.jpg,MN,1,num_4,16,num_4,1.00012284308,,,2017_Jul_07_1809,60.0083147148,MAFE4ImagesEEG,001,200788,
AFNE01.JPG,AFNE01.JPG,AFNE01.JPG,AFNE01.JPG,AFNE01.JPG,AFNE01.JPG,1,6,16,2,,,,,,,,,,,,,,,,,,,,,,,AMSA03.jpg,AMNE12.jpg,AMNE19.jpg,AMSA13.jpg,AMSA03.jpg,MS,2,num_8,32,num_6,0.866806316539,,,2017_Jul_07_1809,60.0083147148,MAFE4ImagesEEG,001,200788,
AFNE01.JPG,AFNE01.JPG,AFNE01.JPG,AFNE01.JPG,AFNE01.JPG,AFNE01.JPG,1,7,17,6,,,,,,,,,,,,,,,,,,,,,,,AMSA17.jpg,AMSA13.jpg,AMNE10.jpg,AMNE02.jpg,AMSA13.jpg,MS,2,num_6,32,num_8,1.65012518445,,,2017_Jul_07_1809,60.0083147148,MAFE4ImagesEEG,001,200788,
AFNE01.JPG,AFNE01.JPG,AFNE01.JPG,AFNE01.JPG,AFNE01.JPG,AFNE01.JPG,1,8,18,8,,,,,,,,,,,,,,,,,,,,,,,AMSA09.jpg,AMNE13.jpg,AMSA16.jpg,AMNE18.jpg,AMSA09.jpg,MS,2,num_8,32,num_2,1.60011520947,,,2017_Jul_07_1809,60.0083147148,MAFE4ImagesEEG,001,200788,
AFNE01.JPG,AFNE01.JPG,AFNE01.JPG,AFNE01.JPG,AFNE01.JPG,AFNE01.JPG,1,9,19,7,,,,,,,,,,,,,,,,,,,,,,,AMNE18.jpg,AMNE14.jpg,AMSA06.jpg,AMSA19.jpg,AMSA19.jpg,MS,2,num_4,32,num_8,1.45009779348,,,2017_Jul_07_1809,60.0083147148,MAFE4ImagesEEG,001,200788,
AFNE01.JPG,AFNE01.JPG,AFNE01.JPG,AFNE01.JPG,AFNE01.JPG,AFNE01.JPG,2,0,20,5,,,,,,,,,,,,,,,,,,,,,,,AMNE10.jpg,AMSA16.jpg,AMSA03.jpg,AMNE11.jpg,AMNE10.jpg,MN,1,num_8,16,num_8,1.45005609724,,,2017_Jul_07_1809,60.0083147148,MAFE4ImagesEEG,001,200788,
AFNE01.JPG,AFNE01.JPG,AFNE01.JPG,AFNE01.JPG,AFNE01.JPG,AFNE01.JPG,2,1,21,7,,,,,,,,,,,,,,,,,,,,,,,AMSA09.jpg,AMSA01.jpg,AMNE05.jpg,AMNE19.jpg,AMNE19.jpg,MN,1,num_4,32,num_6,1.08344575239,,,2017_Jul_07_1809,60.0083147148,MAFE4ImagesEEG,001,200788,
AFNE01.JPG,AFNE01.JPG,AFNE01.JPG,AFNE01.JPG,AFNE01.JPG,AFNE01.JPG,2,2,22,3,,,,,,,,,,,,,,,,,,,,,,,AMSA05.jpg,AMNE08.jpg,AMSA18.jpg,AMNE15.jpg,AMNE08.jpg,MN,1,num_6,32,num_4,1.41681917815,,,2017_Jul_07_1809,60.0083147148,MAFE4ImagesEEG,001,200788,
AFNE01.JPG,AFNE01.JPG,AFNE01.JPG,AFNE01.JPG,AFNE01.JPG,AFNE01.JPG,2,3,23,0,,,,,,,,,,,,,,,,,,,,,,,AMSA09.jpg,AMNE09.jpg,AMNE06.jpg,AMSA17.jpg,AMSA17.jpg,MS,2,num_4,16,num_4,2.11665989901,,,2017_Jul_07_1809,60.0083147148,MAFE4ImagesEEG,001,200788,
AFNE01.JPG,AFNE01.JPG,AFNE01.JPG,AFNE01.JPG,AFNE01.JPG,AFNE01.JPG,2,4,24,6,,,,,,,,,,,,,,,,,,,,,,,AMSA08.jpg,AMNE06.jpg,AMNE02.jpg,AMSA10.jpg,AMNE02.jpg,MN,1,num_2,16,num_2,1.26645857107,,,2017_Jul_07_1809,60.0083147148,MAFE4ImagesEEG,001,200788,
AFNE01.JPG,AFNE01.JPG,AFNE01.JPG,AFNE01.JPG,AFNE01.JPG,AFNE01.JPG,2,5,25,8,,,,,,,,,,,,,,,,,,,,,,,AMSA01.jpg,AMNE20.jpg,AMSA17.jpg,AMNE01.jpg,AMNE01.jpg,MN,1,num_4,32,num_8,1.00010744762,,,2017_Jul_07_1809,60.0083147148,MAFE4ImagesEEG,001,200788,
AFNE01.JPG,AFNE01.JPG,AFNE01.JPG,AFNE01.JPG,AFNE01.JPG,AFNE01.JPG,2,6,26,4,,,,,,,,,,,,,,,,,,,,,,,AMNE09.jpg,AMSA13.jpg,AMNE13.jpg,AMSA18.jpg,AMNE09.jpg,MN,1,num_8,16,num_8,1.53339087393,,,2017_Jul_07_1809,60.0083147148,MAFE4ImagesEEG,001,200788,
AFNE01.JPG,AFNE01.JPG,AFNE01.JPG,AFNE01.JPG,AFNE01.JPG,AFNE01.JPG,2,7,27,1,,,,,,,,,,,,,,,,,,,,,,,AMSA03.jpg,AMNE17.jpg,AMSA08.jpg,AMNE12.jpg,AMSA03.jpg,MS,2,num_8,32,num_6,2.3668900294,,,2017_Jul_07_1809,60.0083147148,MAFE4ImagesEEG,001,200788,
AFNE01.JPG,AFNE01.JPG,AFNE01.JPG,AFNE01.JPG,AFNE01.JPG,AFNE01.JPG,2,8,28,2,,,,,,,,,,,,,,,,,,,,,,,AMSA03.jpg,AMSA12.jpg,AMNE01.jpg,AMNE12.jpg,AMNE01.jpg,MN,1,num_2,32,num_8,2.30039085285,,,2017_Jul_07_1809,60.0083147148,MAFE4ImagesEEG,001,200788,
AFNE01.JPG,AFNE01.JPG,AFNE01.JPG,AFNE01.JPG,AFNE01.JPG,AFNE01.JPG,2,9,29,9,,,,,,,,,,,,,,,,,,,,,,,AMSA13.jpg,AMNE04.jpg,AMSA01.jpg,AMNE07.jpg,AMSA01.jpg,MS,2,num_2,16,num_2,1.7667331238,,,2017_Jul_07_1809,60.0083147148,MAFE4ImagesEEG,001,200788,
AFNE01.JPG,AFNE01.JPG,AFNE01.JPG,AFNE01.JPG,AFNE01.JPG,AFNE01.JPG,3,0,30,1,,,,,,,,,,,,,,,,,,,,,,,AMNE05.jpg,AMSA08.jpg,AMNE02.jpg,AMSA16.jpg,AMNE05.jpg,MN,1,num_8,32,num_6,1.13344353938,,,2017_Jul_07_1809,60.0083147148,MAFE4ImagesEEG,001,200788,
AFNE01.JPG,AFNE01.JPG,AFNE01.JPG,AFNE01.JPG,AFNE01.JPG,AFNE01.JPG,3,1,31,7,,,,,,,,,,,,,,,,,,,,,,,AMNE19.jpg,AMSA13.jpg,AMNE07.jpg,AMSA02.jpg,AMNE07.jpg,MN,1,num_2,16,num_2,1.4834376697,,,2017_Jul_07_1809,60.0083147148,MAFE4ImagesEEG,001,200788,
AFNE01.JPG,AFNE01.JPG,AFNE01.JPG,AFNE01.JPG,AFNE01.JPG,AFNE01.JPG,3,2,32,5,,,,,,,,,,,,,,,,,,,,,,,AMSA02.jpg,AMNE17.jpg,AMSA18.jpg,AMNE05.jpg,AMNE05.jpg,MN,1,num_4,32,num_8,1.45004262624,,,2017_Jul_07_1809,60.0083147148,MAFE4ImagesEEG,001,200788,
AFNE01.JPG,AFNE01.JPG,AFNE01.JPG,AFNE01.JPG,AFNE01.JPG,AFNE01.JPG,3,3,33,9,,,,,,,,,,,,,,,,,,,,,,,AMSA06.jpg,AMNE15.jpg,AMSA15.jpg,AMNE14.jpg,AMSA15.jpg,MS,2,num_2,16,num_2,1.40004483925,,,2017_Jul_07_1809,60.0083147148,MAFE4ImagesEEG,001,200788,
AFNE01.JPG,AFNE01.JPG,AFNE01.JPG,AFNE01.JPG,AFNE01.JPG,AFNE01.JPG,3,4,34,4,,,,,,,,,,,,,,,,,,,,,,,AMSA19.jpg,AMNE08.jpg,AMNE10.jpg,AMSA07.jpg,AMSA07.jpg,MS,2,num_4,16,num_4,1.8000771699,,,2017_Jul_07_1809,60.0083147148,MAFE4ImagesEEG,001,200788,
AFNE01.JPG,AFNE01.JPG,AFNE01.JPG,AFNE01.JPG,AFNE01.JPG,AFNE01.JPG,3,5,35,3,,,,,,,,,,,,,,,,,,,,,,,AMNE15.jpg,AMNE11.jpg,AMSA19.jpg,AMSA11.jpg,AMSA19.jpg,MS,2,num_2,32,num_6,1.30015992047,,,2017_Jul_07_1809,60.0083147148,MAFE4ImagesEEG,001,200788,
AFNE01.JPG,AFNE01.JPG,AFNE01.JPG,AFNE01.JPG,AFNE01.JPG,AFNE01.JPG,3,6,36,2,,,,,,,,,,,,,,,,,,,,,,,AMSA07.jpg,AMSA05.jpg,AMNE05.jpg,AMNE19.jpg,AMSA05.jpg,MS,2,num_6,32,num_4,1.36701768357,,,2017_Jul_07_1809,60.0083147148,MAFE4ImagesEEG,001,200788,
AFNE01.JPG,AFNE01.JPG,AFNE01.JPG,AFNE01.JPG,AFNE01.JPG,AFNE01.JPG,3,7,37,0,,,,,,,,,,,,,,,,,,,,,,,AMNE07.jpg,AMNE13.jpg,AMSA06.jpg,AMSA18.jpg,AMNE07.jpg,MN,1,num_8,16,num_8,1.41681244259,,,2017_Jul_07_1809,60.0083147148,MAFE4ImagesEEG,001,200788,
AFNE01.JPG,AFNE01.JPG,AFNE01.JPG,AFNE01.JPG,AFNE01.JPG,AFNE01.JPG,3,8,38,6,,,,,,,,,,,,,,,,,,,,,,,AMSA15.jpg,AMSA02.jpg,AMNE09.jpg,AMNE13.jpg,AMNE13.jpg,MN,1,num_4,32,num_2,1.68338359322,,,2017_Jul_07_1809,60.0083147148,MAFE4ImagesEEG,001,200788,
AFNE01.JPG,AFNE01.JPG,AFNE01.JPG,AFNE01.JPG,AFNE01.JPG,AFNE01.JPG,3,9,39,8,,,,,,,,,,,,,,,,,,,,,,,AMNE13.jpg,AMSA19.jpg,AMSA07.jpg,AMNE14.jpg,AMSA07.jpg,MS,2,num_2,32,num_6,1.18335280218,,,2017_Jul_07_1809,60.0083147148,MAFE4ImagesEEG,001,200788,
AFNE01.JPG,AFNE01.JPG,AFNE01.JPG,AFNE01.JPG,AFNE01.JPG,AFNE01.JPG,4,0,40,8,,,,,,,,,,,,,,,,,,,,,,,AMSA13.jpg,AMNE20.jpg,AMSA07.jpg,AMNE10.jpg,AMNE20.jpg,MN,1,num_6,16,num_6,0.95010517037,,,2017_Jul_07_1809,60.0083147148,MAFE4ImagesEEG,001,200788,
AFNE01.JPG,AFNE01.JPG,AFNE01.JPG,AFNE01.JPG,AFNE01.JPG,AFNE01.JPG,4,1,41,3,,,,,,,,,,,,,,,,,,,,,,,AMNE16.jpg,AMNE12.jpg,AMSA20.jpg,AMSA05.jpg,AMNE16.jpg,MN,1,num_8,16,num_8,2.23333487287,,,2017_Jul_07_1809,60.0083147148,MAFE4ImagesEEG,001,200788,
AFNE01.JPG,AFNE01.JPG,AFNE01.JPG,AFNE01.JPG,AFNE01.JPG,AFNE01.JPG,4,2,42,0,,,,,,,,,,,,,,,,,,,,,,,AMNE13.jpg,AMSA19.jpg,AMNE08.jpg,AMSA16.jpg,AMSA19.jpg,MS,2,num_6,32,num_2,1.43338952691,,,2017_Jul_07_1809,60.0083147148,MAFE4ImagesEEG,001,200788,
AFNE01.JPG,AFNE01.JPG,AFNE01.JPG,AFNE01.JPG,AFNE01.JPG,AFNE01.JPG,4,3,43,2,,,,,,,,,,,,,,,,,,,,,,,AMNE02.jpg,AMSA07.jpg,AMNE18.jpg,AMSA01.jpg,AMNE02.jpg,MN,1,num_8,32,num_4,0.783567440929,,,2017_Jul_07_1809,60.0083147148,MAFE4ImagesEEG,001,200788,
AFNE01.JPG,AFNE01.JPG,AFNE01.JPG,AFNE01.JPG,AFNE01.JPG,AFNE01.JPG,4,4,44,7,,,,,,,,,,,,,,,,,,,,,,,AMNE07.jpg,AMSA04.jpg,AMSA05.jpg,AMNE10.jpg,AMSA05.jpg,MS,2,num_2,32,num_4,0.900105138309,,,2017_Jul_07_1809,60.0083147148,MAFE4ImagesEEG,001,200788,
AFNE01.JPG,AFNE01.JPG,AFNE01.JPG,AFNE01.JPG,AFNE01.JPG,AFNE01.JPG,4,5,45,1,,,,,,,,,,,,,,,,,,,,,,,AMNE02.jpg,AMSA14.jpg,AMNE08.jpg,AMSA07.jpg,AMNE08.jpg,MN,1,num_2,32,num_6,1.18345960835,,,2017_Jul_07_1809,60.0083147148,MAFE4ImagesEEG,001,200788,
AFNE01.JPG,AFNE01.JPG,AFNE01.JPG,AFNE01.JPG,AFNE01.JPG,AFNE01.JPG,4,6,46,4,,,,,,,,,,,,,,,,,,,,,,,AMSA18.jpg,AMNE11.jpg,AMSA10.jpg,AMNE15.jpg,AMNE15.jpg,MN,1,num_4,32,num_2,1.74993505026,,,2017_Jul_07_1809,60.0083147148,MAFE4ImagesEEG,001,200788,
AFNE01.JPG,AFNE01.JPG,AFNE01.JPG,AFNE01.JPG,AFNE01.JPG,AFNE01.JPG,4,7,47,9,,,,,,,,,,,,,,,,,,,,,,,AMSA05.jpg,AMSA02.jpg,AMNE08.jpg,AMNE19.jpg,AMNE08.jpg,MN,1,num_2,32,num_8,0.866933649988,,,2017_Jul_07_1809,60.0083147148,MAFE4ImagesEEG,001,200788,
AFNE01.JPG,AFNE01.JPG,AFNE01.JPG,AFNE01.JPG,AFNE01.JPG,AFNE01.JPG,4,8,48,6,,,,,,,,,,,,,,,,,,,,,,,AMSA10.jpg,AMSA13.jpg,AMNE06.jpg,AMNE17.jpg,AMNE06.jpg,MN,1,num_2,32,num_6,1.05010234786,,,2017_Jul_07_1809,60.0083147148,MAFE4ImagesEEG,001,200788,
AFNE01.JPG,AFNE01.JPG,AFNE01.JPG,AFNE01.JPG,AFNE01.JPG,AFNE01.JPG,4,9,49,5,,,,,,,,,,,,,,,,,,,,,,,AMSA20.jpg,AMNE20.jpg,AMSA09.jpg,AMNE12.jpg,AMNE12.jpg,MN,1,num_4,16,num_4,0.800241708988,,,2017_Jul_07_1809,60.0083147148,MAFE4ImagesEEG,001,200788,
AFNE01.JPG,AFNE01.JPG,AFNE01.JPG,AFNE01.JPG,AFNE01.JPG,AFNE01.JPG,5,0,50,3,,,,,,,,,,,,,,,,,,,,,,,AMSA16.jpg,AMNE17.jpg,AMNE07.jpg,AMSA15.jpg,AMNE17.jpg,MN,1,num_6,32,num_8,2.10023292073,,,2017_Jul_07_1809,60.0083147148,MAFE4ImagesEEG,001,200788,
AFNE01.JPG,AFNE01.JPG,AFNE01.JPG,AFNE01.JPG,AFNE01.JPG,AFNE01.JPG,5,1,51,8,,,,,,,,,,,,,,,,,,,,,,,AMNE06.jpg,AMSA16.jpg,AMSA11.jpg,AMNE05.jpg,AMSA16.jpg,MS,2,num_6,16,num_6,1.03342551377,,,2017_Jul_07_1809,60.0083147148,MAFE4ImagesEEG,001,200788,
AFNE01.JPG,AFNE01.JPG,AFNE01.JPG,AFNE01.JPG,AFNE01.JPG,AFNE01.JPG,5,2,52,1,,,,,,,,,,,,,,,,,,,,,,,AMNE02.jpg,AMSA18.jpg,AMSA02.jpg,AMNE19.jpg,AMSA18.jpg,MS,2,num_6,16,num_6,1.5500773302,,,2017_Jul_07_1809,60.0083147148,MAFE4ImagesEEG,001,200788,
AFNE01.JPG,AFNE01.JPG,AFNE01.JPG,AFNE01.JPG,AFNE01.JPG,AFNE01.JPG,5,3,53,7,,,,,,,,,,,,,,,,,,,,,,,AMSA02.jpg,AMNE10.jpg,AMSA10.jpg,AMNE09.jpg,AMSA02.jpg,MS,2,num_8,16,num_8,2.11667497386,,,2017_Jul_07_1809,60.0083147148,MAFE4ImagesEEG,001,200788,
AFNE01.JPG,AFNE01.JPG,AFNE01.JPG,AFNE01.JPG,AFNE01.JPG,AFNE01.JPG,5,4,54,4,,,,,,,,,,,,,,,,,,,,,,,AMSA06.jpg,AMNE16.jpg,AMSA15.jpg,AMNE10.jpg,AMNE10.jpg,MN,1,num_4,32,num_6,1.11634461244,,,2017_Jul_07_1809,60.0083147148,MAFE4ImagesEEG,001,200788,
AFNE01.JPG,AFNE01.JPG,AFNE01.JPG,AFNE01.JPG,AFNE01.JPG,AFNE01.JPG,5,5,55,9,,,,,,,,,,,,,,,,,,,,,,,AMSA11.jpg,AMNE07.jpg,AMSA19.jpg,AMNE13.jpg,AMSA11.jpg,MS,2,num_8,32,num_6,1.41671942826,,,2017_Jul_07_1809,60.0083147148,MAFE4ImagesEEG,001,200788,
AFNE01.JPG,AFNE01.JPG,AFNE01.JPG,AFNE01.JPG,AFNE01.JPG,AFNE01.JPG,5,6,56,0,,,,,,,,,,,,,,,,,,,,,,,AMNE06.jpg,AMSA14.jpg,AMSA03.jpg,AMNE20.jpg,AMSA14.jpg,MS,2,num_6,32,num_2,1.71670871554,,,2017_Jul_07_1809,60.0083147148,MAFE4ImagesEEG,001,200788,
AFNE01.JPG,AFNE01.JPG,AFNE01.JPG,AFNE01.JPG,AFNE01.JPG,AFNE01.JPG,5,7,57,6,,,,,,,,,,,,,,,,,,,,,,,AMNE08.jpg,AMSA10.jpg,AMNE05.jpg,AMSA15.jpg,AMSA15.jpg,MS,2,num_4,16,num_4,1.46653599758,,,2017_Jul_07_1809,60.0083147148,MAFE4ImagesEEG,001,200788,
AFNE01.JPG,AFNE01.JPG,AFNE01.JPG,AFNE01.JPG,AFNE01.JPG,AFNE01.JPG,5,8,58,2,,,,,,,,,,,,,,,,,,,,,,,AMNE04.jpg,AMSA18.jpg,AMSA07.jpg,AMNE20.jpg,AMSA07.jpg,MS,2,num_2,16,num_2,3.96649205626,,,2017_Jul_07_1809,60.0083147148,MAFE4ImagesEEG,001,200788,
AFNE01.JPG,AFNE01.JPG,AFNE01.JPG,AFNE01.JPG,AFNE01.JPG,AFNE01.JPG,5,9,59,5,,,,,,,,,,,,,,,,,,,,,,,AMSA04.jpg,AMNE04.jpg,AMSA03.jpg,AMNE02.jpg,AMSA03.jpg,MS,2,num_2,32,num_8,1.28342310828,,,2017_Jul_07_1809,60.0083147148,MAFE4ImagesEEG,001,200788,
,,,,,,,,,,,,,,,,,,,,,,,,,,,,,,,,,,,,,,,,,,,space,7.49957469979,2017_Jul_07_1809,60.0083147148,MAFE4ImagesEEG,001,200788,
AFNE01.JPG,AFNE01.JPG,AFNE01.JPG,AFNE01.JPG,AFNE01.JPG,AFNE01.JPG,,,,,0,0,0,0,,,,,,,,,,,,,,,,,,,AFSA19.jpg,AFNE15.jpg,AFSA06.jpg,AFNE05.jpg,AFNE15.jpg,FN,3,num_6,16,num_6,1.1667442855,,,2017_Jul_07_1809,60.0083147148,MAFE4ImagesEEG,001,200788,
AFNE01.JPG,AFNE01.JPG,AFNE01.JPG,AFNE01.JPG,AFNE01.JPG,AFNE01.JPG,,,,,0,1,1,9,,,,,,,,,,,,,,,,,,,AFNE06.jpg,AFNE05.jpg,AFSA07.jpg,AFSA03.jpg,AFSA03.jpg,FS,4,num_4,16,num_4,0.883420285652,,,2017_Jul_07_1809,60.0083147148,MAFE4ImagesEEG,001,200788,
AFNE01.JPG,AFNE01.JPG,AFNE01.JPG,AFNE01.JPG,AFNE01.JPG,AFNE01.JPG,,,,,0,2,2,2,,,,,,,,,,,,,,,,,,,AFNE09.jpg,AFSA06.jpg,AFSA08.jpg,AFNE13.jpg,AFNE09.jpg,FN,3,num_8,16,num_8,0.883489886066,,,2017_Jul_07_1809,60.0083147148,MAFE4ImagesEEG,001,200788,
AFNE01.JPG,AFNE01.JPG,AFNE01.JPG,AFNE01.JPG,AFNE01.JPG,AFNE01.JPG,,,,,0,3,3,4,,,,,,,,,,,,,,,,,,,AFNE19.jpg,AFNE20.jpg,AFSA10.jpg,AFSA05.jpg,AFNE19.jpg,FN,3,num_8,32,num_2,1.38341932348,,,2017_Jul_07_1809,60.0083147148,MAFE4ImagesEEG,001,200788,
AFNE01.JPG,AFNE01.JPG,AFNE01.JPG,AFNE01.JPG,AFNE01.JPG,AFNE01.JPG,,,,,0,4,4,7,,,,,,,,,,,,,,,,,,,AFNE05.jpg,AFSA01.jpg,AFNE19.jpg,AFSA10.jpg,AFSA10.jpg,FS,4,num_4,16,num_4,2.06668071495,,,2017_Jul_07_1809,60.0083147148,MAFE4ImagesEEG,001,200788,
AFNE01.JPG,AFNE01.JPG,AFNE01.JPG,AFNE01.JPG,AFNE01.JPG,AFNE01.JPG,,,,,0,5,5,8,,,,,,,,,,,,,,,,,,,AFSA06.jpg,AFNE08.jpg,AFNE19.jpg,AFSA11.jpg,AFSA06.jpg,FS,4,num_8,32,num_4,2.08322348027,,,2017_Jul_07_1809,60.0083147148,MAFE4ImagesEEG,001,200788,
AFNE01.JPG,AFNE01.JPG,AFNE01.JPG,AFNE01.JPG,AFNE01.JPG,AFNE01.JPG,,,,,0,6,6,1,,,,,,,,,,,,,,,,,,,AFNE09.jpg,AFNE11.jpg,AFSA09.jpg,AFSA16.jpg,AFNE09.jpg,FN,3,num_8,16,num_8,0.816752079525,,,2017_Jul_07_1809,60.0083147148,MAFE4ImagesEEG,001,200788,
AFNE01.JPG,AFNE01.JPG,AFNE01.JPG,AFNE01.JPG,AFNE01.JPG,AFNE01.JPG,,,,,0,7,7,6,,,,,,,,,,,,,,,,,,,AFNE20.jpg,AFSA14.jpg,AFNE05.jpg,AFSA15.jpg,AFSA14.jpg,FS,4,num_6,16,num_6,1.18338006502,,,2017_Jul_07_1809,60.0083147148,MAFE4ImagesEEG,001,200788,
AFNE01.JPG,AFNE01.JPG,AFNE01.JPG,AFNE01.JPG,AFNE01.JPG,AFNE01.JPG,,,,,0,8,8,3,,,,,,,,,,,,,,,,,,,AFSA09.jpg,AFSA15.jpg,AFNE09.jpg,AFNE17.jpg,AFSA09.jpg,FS,4,num_8,32,num_6,1.25005789346,,,2017_Jul_07_1809,60.0083147148,MAFE4ImagesEEG,001,200788,
AFNE01.JPG,AFNE01.JPG,AFNE01.JPG,AFNE01.JPG,AFNE01.JPG,AFNE01.JPG,,,,,0,9,9,5,,,,,,,,,,,,,,,,,,,AFSA19.jpg,AFSA18.jpg,AFNE16.jpg,AFNE20.jpg,AFSA18.jpg,FS,4,num_6,32,num_8,1.65009182761,,,2017_Jul_07_1809,60.0083147148,MAFE4ImagesEEG,001,200788,
AFNE01.JPG,AFNE01.JPG,AFNE01.JPG,AFNE01.JPG,AFNE01.JPG,AFNE01.JPG,,,,,1,0,10,7,,,,,,,,,,,,,,,,,,,AFNE08.jpg,AFSA17.jpg,AFNE05.jpg,AFSA01.jpg,AFNE08.jpg,FN,3,num_8,32,num_6,4.13327964162,,,2017_Jul_07_1809,60.0083147148,MAFE4ImagesEEG,001,200788,
AFNE01.JPG,AFNE01.JPG,AFNE01.JPG,AFNE01.JPG,AFNE01.JPG,AFNE01.JPG,,,,,1,1,11,9,,,,,,,,,,,,,,,,,,,AFSA12.jpg,AFNE14.jpg,AFNE09.jpg,AFSA04.jpg,AFSA04.jpg,FS,4,num_4,16,num_4,0.716746562859,,,2017_Jul_07_1809,60.0083147148,MAFE4ImagesEEG,001,200788,
AFNE01.JPG,AFNE01.JPG,AFNE01.JPG,AFNE01.JPG,AFNE01.JPG,AFNE01.JPG,,,,,1,2,12,0,,,,,,,,,,,,,,,,,,,AFSA14.jpg,AFSA20.jpg,AFNE16.jpg,AFNE18.jpg,AFSA14.jpg,FS,4,num_8,32,num_6,1.58309165633,,,2017_Jul_07_1809,60.0083147148,MAFE4ImagesEEG,001,200788,
AFNE01.JPG,AFNE01.JPG,AFNE01.JPG,AFNE01.JPG,AFNE01.JPG,AFNE01.JPG,,,,,1,3,13,2,,,,,,,,,,,,,,,,,,,AFSA12.jpg,AFNE06.jpg,AFNE05.jpg,AFSA08.jpg,AFNE06.jpg,FN,3,num_6,32,num_8,1.50016742584,,,2017_Jul_07_1809,60.0083147148,MAFE4ImagesEEG,001,200788,
AFNE01.JPG,AFNE01.JPG,AFNE01.JPG,AFNE01.JPG,AFNE01.JPG,AFNE01.JPG,,,,,1,4,14,6,,,,,,,,,,,,,,,,,,,AFNE15.jpg,AFSA12.jpg,AFSA06.jpg,AFNE14.jpg,AFSA12.jpg,FS,4,num_6,32,num_2,1.10007672082,,,2017_Jul_07_1809,60.0083147148,MAFE4ImagesEEG,001,200788,
AFNE01.JPG,AFNE01.JPG,AFNE01.JPG,AFNE01.JPG,AFNE01.JPG,AFNE01.JPG,,,,,1,5,15,1,,,,,,,,,,,,,,,,,,,AFSA16.jpg,AFSA04.jpg,AFNE06.jpg,AFNE18.jpg,AFSA04.jpg,FS,4,num_6,32,num_4,0.966777514084,,,2017_Jul_07_1809,60.0083147148,MAFE4ImagesEEG,001,200788,
AFNE01.JPG,AFNE01.JPG,AFNE01.JPG,AFNE01.JPG,AFNE01.JPG,AFNE01.JPG,,,,,1,6,16,3,,,,,,,,,,,,,,,,,,,AFSA19.jpg,AFNE09.jpg,AFNE04.jpg,AFSA06.jpg,AFNE09.jpg,FN,3,num_6,16,num_6,1.36671394366,,,2017_Jul_07_1809,60.0083147148,MAFE4ImagesEEG,001,200788,
AFNE01.JPG,AFNE01.JPG,AFNE01.JPG,AFNE01.JPG,AFNE01.JPG,AFNE01.JPG,,,,,1,7,17,8,,,,,,,,,,,,,,,,,,,AFNE01.jpg,AFSA12.jpg,AFSA14.jpg,AFNE14.jpg,AFNE14.jpg,FN,3,num_4,32,num_8,1.60007319273,,,2017_Jul_07_1809,60.0083147148,MAFE4ImagesEEG,001,200788,
AFNE01.JPG,AFNE01.JPG,AFNE01.JPG,AFNE01.JPG,AFNE01.JPG,AFNE01.JPG,,,,,1,8,18,5,,,,,,,,,,,,,,,,,,,AFNE18.jpg,AFSA13.jpg,AFSA01.jpg,AFNE12.jpg,AFSA01.jpg,FS,4,num_2,32,num_4,1.0001145039,,,2017_Jul_07_1809,60.0083147148,MAFE4ImagesEEG,001,200788,
AFNE01.JPG,AFNE01.JPG,AFNE01.JPG,AFNE01.JPG,AFNE01.JPG,AFNE01.JPG,,,,,1,9,19,4,,,,,,,,,,,,,,,,,,,AFSA06.jpg,AFNE01.jpg,AFNE11.jpg,AFSA16.jpg,AFSA06.jpg,FS,4,num_8,32,num_4,1.35012338834,,,2017_Jul_07_1809,60.0083147148,MAFE4ImagesEEG,001,200788,
AFNE01.JPG,AFNE01.JPG,AFNE01.JPG,AFNE01.JPG,AFNE01.JPG,AFNE01.JPG,,,,,2,0,20,3,,,,,,,,,,,,,,,,,,,AFNE05.jpg,AFSA04.jpg,AFNE19.jpg,AFSA13.jpg,AFNE05.jpg,FN,3,num_8,16,num_8,1.61672661291,,,2017_Jul_07_1809,60.0083147148,MAFE4ImagesEEG,001,200788,
AFNE01.JPG,AFNE01.JPG,AFNE01.JPG,AFNE01.JPG,AFNE01.JPG,AFNE01.JPG,,,,,2,1,21,7,,,,,,,,,,,,,,,,,,,AFSA16.jpg,AFNE16.jpg,AFNE15.jpg,AFSA19.jpg,AFNE15.jpg,FN,3,num_2,16,num_2,4.18318697996,,,2017_Jul_07_1809,60.0083147148,MAFE4ImagesEEG,001,200788,
AFNE01.JPG,AFNE01.JPG,AFNE01.JPG,AFNE01.JPG,AFNE01.JPG,AFNE01.JPG,,,,,2,2,22,9,,,,,,,,,,,,,,,,,,,AFNE01.jpg,AFSA17.jpg,AFSA14.jpg,AFNE03.jpg,AFSA17.jpg,FS,4,num_6,32,num_2,1.85005603312,,,2017_Jul_07_1809,60.0083147148,MAFE4ImagesEEG,001,200788,
AFNE01.JPG,AFNE01.JPG,AFNE01.JPG,AFNE01.JPG,AFNE01.JPG,AFNE01.JPG,,,,,2,3,23,6,,,,,,,,,,,,,,,,,,,AFSA07.jpg,AFNE03.jpg,AFNE17.jpg,AFSA17.jpg,AFNE17.jpg,FN,3,num_2,32,num_8,1.25023173401,,,2017_Jul_07_1809,60.0083147148,MAFE4ImagesEEG,001,200788,
AFNE01.JPG,AFNE01.JPG,AFNE01.JPG,AFNE01.JPG,AFNE01.JPG,AFNE01.JPG,,,,,2,4,24,1,,,,,,,,,,,,,,,,,,,AFNE07.jpg,AFSA11.jpg,AFNE04.jpg,AFSA07.jpg,AFNE04.jpg,FN,3,num_2,32,num_8,1.61702233437,,,2017_Jul_07_1809,60.0083147148,MAFE4ImagesEEG,001,200788,
AFNE01.JPG,AFNE01.JPG,AFNE01.JPG,AFNE01.JPG,AFNE01.JPG,AFNE01.JPG,,,,,2,5,25,4,,,,,,,,,,,,,,,,,,,AFSA07.jpg,AFNE01.jpg,AFSA11.jpg,AFNE04.jpg,AFNE04.jpg,FN,3,num_4,16,num_4,0.916880760109,,,2017_Jul_07_1809,60.0083147148,MAFE4ImagesEEG,001,200788,
AFNE01.JPG,AFNE01.JPG,AFNE01.JPG,AFNE01.JPG,AFNE01.JPG,AFNE01.JPG,,,,,2,6,26,2,,,,,,,,,,,,,,,,,,,AFNE13.jpg,AFSA10.jpg,AFSA20.jpg,AFNE01.jpg,AFNE01.jpg,FN,3,num_4,32,num_6,1.93346425914,,,2017_Jul_07_1809,60.0083147148,MAFE4ImagesEEG,001,200788,
AFNE01.JPG,AFNE01.JPG,AFNE01.JPG,AFNE01.JPG,AFNE01.JPG,AFNE01.JPG,,,,,2,7,27,8,,,,,,,,,,,,,,,,,,,AFNE01.jpg,AFSA04.jpg,AFNE11.jpg,AFSA01.jpg,AFSA04.jpg,FS,4,num_6,32,num_8,3.01658157457,,,2017_Jul_07_1809,60.0083147148,MAFE4ImagesEEG,001,200788,
AFNE01.JPG,AFNE01.JPG,AFNE01.JPG,AFNE01.JPG,AFNE01.JPG,AFNE01.JPG,,,,,2,8,28,0,,,,,,,,,,,,,,,,,,,AFNE02.jpg,AFSA17.jpg,AFSA04.jpg,AFNE01.jpg,AFNE01.jpg,FN,3,num_4,16,num_4,2.66663234762,,,2017_Jul_07_1809,60.0083147148,MAFE4ImagesEEG,001,200788,
AFNE01.JPG,AFNE01.JPG,AFNE01.JPG,AFNE01.JPG,AFNE01.JPG,AFNE01.JPG,,,,,2,9,29,5,,,,,,,,,,,,,,,,,,,AFSA18.jpg,AFNE11.jpg,AFNE04.jpg,AFSA04.jpg,AFNE11.jpg,FN,3,num_6,16,num_6,0.433590630302,,,2017_Jul_07_1809,60.0083147148,MAFE4ImagesEEG,001,200788,
AFNE01.JPG,AFNE01.JPG,AFNE01.JPG,AFNE01.JPG,AFNE01.JPG,AFNE01.JPG,,,,,3,0,30,7,,,,,,,,,,,,,,,,,,,AFNE02.jpg,AFSA03.jpg,AFSA10.jpg,AFNE13.jpg,AFNE13.jpg,FN,3,num_4,32,num_2,1.60004368459,,,2017_Jul_07_1809,60.0083147148,MAFE4ImagesEEG,001,200788,
AFNE01.JPG,AFNE01.JPG,AFNE01.JPG,AFNE01.JPG,AFNE01.JPG,AFNE01.JPG,,,,,3,1,31,0,,,,,,,,,,,,,,,,,,,AFNE10.jpg,AFNE07.jpg,AFSA19.jpg,AFSA16.jpg,AFNE10.jpg,FN,3,num_8,16,num_8,1.31669755385,,,2017_Jul_07_1809,60.0083147148,MAFE4ImagesEEG,001,200788,
AFNE01.JPG,AFNE01.JPG,AFNE01.JPG,AFNE01.JPG,AFNE01.JPG,AFNE01.JPG,,,,,3,2,32,5,,,,,,,,,,,,,,,,,,,AFSA08.jpg,AFNE16.jpg,AFSA04.jpg,AFNE03.jpg,AFNE16.jpg,FN,3,num_6,32,num_4,2.7999809481,,,2017_Jul_07_1809,60.0083147148,MAFE4ImagesEEG,001,200788,
AFNE01.JPG,AFNE01.JPG,AFNE01.JPG,AFNE01.JPG,AFNE01.JPG,AFNE01.JPG,,,,,3,3,33,4,,,,,,,,,,,,,,,,,,,AFSA05.jpg,AFNE20.jpg,AFSA10.jpg,AFNE01.jpg,AFNE20.jpg,FN,3,num_6,16,num_6,2.1334072958,,,2017_Jul_07_1809,60.0083147148,MAFE4ImagesEEG,001,200788,
AFNE01.JPG,AFNE01.JPG,AFNE01.JPG,AFNE01.JPG,AFNE01.JPG,AFNE01.JPG,,,,,3,4,34,6,,,,,,,,,,,,,,,,,,,AFNE01.jpg,AFSA17.jpg,AFSA05.jpg,AFNE05.jpg,AFSA05.jpg,FS,4,num_2,16,num_2,1.6003615373,,,2017_Jul_07_1809,60.0083147148,MAFE4ImagesEEG,001,200788,
AFNE01.JPG,AFNE01.JPG,AFNE01.JPG,AFNE01.JPG,AFNE01.JPG,AFNE01.JPG,,,,,3,5,35,8,,,,,,,,,,,,,,,,,,,AFNE13.jpg,AFNE16.jpg,AFSA07.jpg,AFSA12.jpg,AFSA07.jpg,FS,4,num_2,32,num_6,1.91653275804,,,2017_Jul_07_1809,60.0083147148,MAFE4ImagesEEG,001,200788,
AFNE01.JPG,AFNE01.JPG,AFNE01.JPG,AFNE01.JPG,AFNE01.JPG,AFNE01.JPG,,,,,3,6,36,9,,,,,,,,,,,,,,,,,,,AFNE20.jpg,AFSA04.jpg,AFSA03.jpg,AFNE09.jpg,AFSA03.jpg,FS,4,num_2,32,num_4,1.68361516681,,,2017_Jul_07_1809,60.0083147148,MAFE4ImagesEEG,001,200788,
AFNE01.JPG,AFNE01.JPG,AFNE01.JPG,AFNE01.JPG,AFNE01.JPG,AFNE01.JPG,,,,,3,7,37,1,,,,,,,,,,,,,,,,,,,AFSA02.jpg,AFNE06.jpg,AFNE12.jpg,AFSA04.jpg,AFSA04.jpg,FS,4,num_4,32,num_6,0.966792268096,,,2017_Jul_07_1809,60.0083147148,MAFE4ImagesEEG,001,200788,
AFNE01.JPG,AFNE01.JPG,AFNE01.JPG,AFNE01.JPG,AFNE01.JPG,AFNE01.JPG,,,,,3,8,38,2,,,,,,,,,,,,,,,,,,,AFNE18.jpg,AFSA18.jpg,AFSA11.jpg,AFNE08.jpg,AFNE18.jpg,FN,3,num_8,16,num_8,1.78337595949,,,2017_Jul_07_1809,60.0083147148,MAFE4ImagesEEG,001,200788,
AFNE01.JPG,AFNE01.JPG,AFNE01.JPG,AFNE01.JPG,AFNE01.JPG,AFNE01.JPG,,,,,3,9,39,3,,,,,,,,,,,,,,,,,,,AFSA05.jpg,AFNE07.jpg,AFNE11.jpg,AFSA08.jpg,AFSA05.jpg,FS,4,num_8,32,num_2,1.70012553735,,,2017_Jul_07_1809,60.0083147148,MAFE4ImagesEEG,001,200788,
AFNE01.JPG,AFNE01.JPG,AFNE01.JPG,AFNE01.JPG,AFNE01.JPG,AFNE01.JPG,,,,,4,0,40,5,,,,,,,,,,,,,,,,,,,AFSA09.jpg,AFSA15.jpg,AFNE05.jpg,AFNE16.jpg,AFSA09.jpg,FS,4,num_8,16,num_8,2.61660986382,,,2017_Jul_07_1809,60.0083147148,MAFE4ImagesEEG,001,200788,
AFNE01.JPG,AFNE01.JPG,AFNE01.JPG,AFNE01.JPG,AFNE01.JPG,AFNE01.JPG,,,,,4,1,41,6,,,,,,,,,,,,,,,,,,,AFSA05.jpg,AFNE07.jpg,AFSA15.jpg,AFNE19.jpg,AFNE19.jpg,FN,3,num_4,16,num_4,1.1834432506,,,2017_Jul_07_1809,60.0083147148,MAFE4ImagesEEG,001,200788,
AFNE01.JPG,AFNE01.JPG,AFNE01.JPG,AFNE01.JPG,AFNE01.JPG,AFNE01.JPG,,,,,4,2,42,1,,,,,,,,,,,,,,,,,,,AFSA19.jpg,AFSA09.jpg,AFNE16.jpg,AFNE09.jpg,AFNE16.jpg,FN,3,num_2,32,num_6,1.36673864047,,,2017_Jul_07_1809,60.0083147148,MAFE4ImagesEEG,001,200788,
AFNE01.JPG,AFNE01.JPG,AFNE01.JPG,AFNE01.JPG,AFNE01.JPG,AFNE01.JPG,,,,,4,3,43,4,,,,,,,,,,,,,,,,,,,AFSA20.jpg,AFSA14.jpg,AFNE17.jpg,AFNE02.jpg,AFSA20.jpg,FS,4,num_8,16,num_8,1.50044903497,,,2017_Jul_07_1809,60.0083147148,MAFE4ImagesEEG,001,200788,
AFNE01.JPG,AFNE01.JPG,AFNE01.JPG,AFNE01.JPG,AFNE01.JPG,AFNE01.JPG,,,,,4,4,44,8,,,,,,,,,,,,,,,,,,,AFSA03.jpg,AFNE18.jpg,AFNE04.jpg,AFSA10.jpg,AFNE04.jpg,FN,3,num_2,16,num_2,1.65010209125,,,2017_Jul_07_1809,60.0083147148,MAFE4ImagesEEG,001,200788,
AFNE01.JPG,AFNE01.JPG,AFNE01.JPG,AFNE01.JPG,AFNE01.JPG,AFNE01.JPG,,,,,4,5,45,0,,,,,,,,,,,,,,,,,,,AFNE20.jpg,AFSA06.jpg,AFSA07.jpg,AFNE05.jpg,AFSA07.jpg,FS,4,num_2,32,num_4,1.1668709775,,,2017_Jul_07_1809,60.0083147148,MAFE4ImagesEEG,001,200788,
AFNE01.JPG,AFNE01.JPG,AFNE01.JPG,AFNE01.JPG,AFNE01.JPG,AFNE01.JPG,,,,,4,6,46,3,,,,,,,,,,,,,,,,,,,AFSA17.jpg,AFNE16.jpg,AFNE17.jpg,AFSA13.jpg,AFNE17.jpg,FN,3,num_2,32,num_8,2.13335758122,,,2017_Jul_07_1809,60.0083147148,MAFE4ImagesEEG,001,200788,
AFNE01.JPG,AFNE01.JPG,AFNE01.JPG,AFNE01.JPG,AFNE01.JPG,AFNE01.JPG,,,,,4,7,47,9,,,,,,,,,,,,,,,,,,,AFNE18.jpg,AFNE04.jpg,AFSA05.jpg,AFSA06.jpg,AFSA06.jpg,FS,4,num_4,32,num_6,2.13326168025,,,2017_Jul_07_1809,60.0083147148,MAFE4ImagesEEG,001,200788,
AFNE01.JPG,AFNE01.JPG,AFNE01.JPG,AFNE01.JPG,AFNE01.JPG,AFNE01.JPG,,,,,4,8,48,2,,,,,,,,,,,,,,,,,,,AFNE05.jpg,AFSA07.jpg,AFSA01.jpg,AFNE14.jpg,AFSA01.jpg,FS,4,num_2,32,num_4,1.65005077305,,,2017_Jul_07_1809,60.0083147148,MAFE4ImagesEEG,001,200788,
AFNE01.JPG,AFNE01.JPG,AFNE01.JPG,AFNE01.JPG,AFNE01.JPG,AFNE01.JPG,,,,,4,9,49,7,,,,,,,,,,,,,,,,,,,AFNE14.jpg,AFNE12.jpg,AFSA04.jpg,AFSA13.jpg,AFNE12.jpg,FN,3,num_6,16,num_6,1.96666493465,,,2017_Jul_07_1809,60.0083147148,MAFE4ImagesEEG,001,200788,
AFNE01.JPG,AFNE01.JPG,AFNE01.JPG,AFNE01.JPG,AFNE01.JPG,AFNE01.JPG,,,,,5,0,50,9,,,,,,,,,,,,,,,,,,,AFSA02.jpg,AFNE07.jpg,AFSA10.jpg,AFNE17.jpg,AFNE07.jpg,FN,3,num_6,32,num_2,2.11637540336,,,2017_Jul_07_1809,60.0083147148,MAFE4ImagesEEG,001,200788,
AFNE01.JPG,AFNE01.JPG,AFNE01.JPG,AFNE01.JPG,AFNE01.JPG,AFNE01.JPG,,,,,5,1,51,8,,,,,,,,,,,,,,,,,,,AFSA07.jpg,AFNE07.jpg,AFNE06.jpg,AFSA13.jpg,AFNE07.jpg,FN,3,num_6,32,num_8,1.26674114226,,,2017_Jul_07_1809,60.0083147148,MAFE4ImagesEEG,001,200788,
AFNE01.JPG,AFNE01.JPG,AFNE01.JPG,AFNE01.JPG,AFNE01.JPG,AFNE01.JPG,,,,,5,2,52,6,,,,,,,,,,,,,,,,,,,AFSA11.jpg,AFSA05.jpg,AFNE11.jpg,AFNE17.jpg,AFSA11.jpg,FS,4,num_8,16,num_8,2.23326912127,,,2017_Jul_07_1809,60.0083147148,MAFE4ImagesEEG,001,200788,
AFNE01.JPG,AFNE01.JPG,AFNE01.JPG,AFNE01.JPG,AFNE01.JPG,AFNE01.JPG,,,,,5,3,53,0,,,,,,,,,,,,,,,,,,,AFNE16.jpg,AFSA01.jpg,AFSA16.jpg,AFNE15.jpg,AFSA01.jpg,FS,4,num_6,32,num_2,2.25029075006,,,2017_Jul_07_1809,60.0083147148,MAFE4ImagesEEG,001,200788,
AFNE01.JPG,AFNE01.JPG,AFNE01.JPG,AFNE01.JPG,AFNE01.JPG,AFNE01.JPG,,,,,5,4,54,2,,,,,,,,,,,,,,,,,,,AFNE08.jpg,AFSA06.jpg,AFSA10.jpg,AFNE16.jpg,AFNE08.jpg,FN,3,num_8,16,num_8,2.03336906363,,,2017_Jul_07_1809,60.0083147148,MAFE4ImagesEEG,001,200788,
AFNE01.JPG,AFNE01.JPG,AFNE01.JPG,AFNE01.JPG,AFNE01.JPG,AFNE01.JPG,,,,,5,5,55,4,,,,,,,,,,,,,,,,,,,AFSA20.jpg,AFSA15.jpg,AFNE15.jpg,AFNE19.jpg,AFNE15.jpg,FN,3,num_2,16,num_2,2.61659158161,,,2017_Jul_07_1809,60.0083147148,MAFE4ImagesEEG,001,200788,
AFNE01.JPG,AFNE01.JPG,AFNE01.JPG,AFNE01.JPG,AFNE01.JPG,AFNE01.JPG,,,,,5,6,56,1,,,,,,,,,,,,,,,,,,,AFNE13.jpg,AFSA05.jpg,AFSA11.jpg,AFNE19.jpg,AFSA05.jpg,FS,4,num_6,32,num_8,0.616830853047,,,2017_Jul_07_1809,60.0083147148,MAFE4ImagesEEG,001,200788,
AFNE01.JPG,AFNE01.JPG,AFNE01.JPG,AFNE01.JPG,AFNE01.JPG,AFNE01.JPG,,,,,5,7,57,5,,,,,,,,,,,,,,,,,,,AFSA06.jpg,AFNE13.jpg,AFNE10.jpg,AFSA15.jpg,AFNE10.jpg,FN,3,num_2,32,num_8,1.95009811409,,,2017_Jul_07_1809,60.0083147148,MAFE4ImagesEEG,001,200788,
AFNE01.JPG,AFNE01.JPG,AFNE01.JPG,AFNE01.JPG,AFNE01.JPG,AFNE01.JPG,,,,,5,8,58,3,,,,,,,,,,,,,,,,,,,AFNE10.jpg,AFNE17.jpg,AFSA15.jpg,AFSA04.jpg,AFNE10.jpg,FN,3,num_8,32,num_2,1.70003124001,,,2017_Jul_07_1809,60.0083147148,MAFE4ImagesEEG,001,200788,
AFNE01.JPG,AFNE01.JPG,AFNE01.JPG,AFNE01.JPG,AFNE01.JPG,AFNE01.JPG,,,,,5,9,59,7,,,,,,,,,,,,,,,,,,,AFNE14.jpg,AFNE01.jpg,AFSA01.jpg,AFSA08.jpg,AFSA01.jpg,FS,4,num_2,32,num_4,1.76668597513,,,2017_Jul_07_1809,60.0083147148,MAFE4ImagesEEG,001,200788,
,,,,,,,,,,,,,,,,,,,,,,,,,,,,,,,,,,,,,,,,,,,space,13.4321248522,2017_Jul_07_1809,60.0083147148,MAFE4ImagesEEG,001,200788,
AFNE01.JPG,AFNE01.JPG,AFNE01.JPG,AFNE01.JPG,AFNE01.JPG,AFNE01.JPG,,,,,,,,,0,0,0,3,,,,,,,,,,,,,,,AMSA19.jpg,AMSA08.jpg,AMNE20.jpg,AMNE13.jpg,AMSA19.jpg,MS,2,num_8,16,num_8,1.01671885094,,,2017_Jul_07_1809,60.0083147148,MAFE4ImagesEEG,001,200788,
AFNE01.JPG,AFNE01.JPG,AFNE01.JPG,AFNE01.JPG,AFNE01.JPG,AFNE01.JPG,,,,,,,,,0,1,1,1,,,,,,,,,,,,,,,AMNE10.jpg,AMSA10.jpg,AMSA05.jpg,AMNE01.jpg,AMSA05.jpg,MS,2,num_2,16,num_2,1.90003842453,,,2017_Jul_07_1809,60.0083147148,MAFE4ImagesEEG,001,200788,
AFNE01.JPG,AFNE01.JPG,AFNE01.JPG,AFNE01.JPG,AFNE01.JPG,AFNE01.JPG,,,,,,,,,0,2,2,5,,,,,,,,,,,,,,,AMSA16.jpg,AMNE15.jpg,AMNE14.jpg,AMSA13.jpg,AMNE14.jpg,MN,1,num_2,16,num_2,1.43344854284,,,2017_Jul_07_1809,60.0083147148,MAFE4ImagesEEG,001,200788,
AFNE01.JPG,AFNE01.JPG,AFNE01.JPG,AFNE01.JPG,AFNE01.JPG,AFNE01.JPG,,,,,,,,,0,3,3,4,,,,,,,,,,,,,,,AMNE10.jpg,AMNE05.jpg,AMSA20.jpg,AMSA06.jpg,AMNE05.jpg,MN,1,num_6,32,num_8,0.983426443883,,,2017_Jul_07_1809,60.0083147148,MAFE4ImagesEEG,001,200788,
AFNE01.JPG,AFNE01.JPG,AFNE01.JPG,AFNE01.JPG,AFNE01.JPG,AFNE01.JPG,,,,,,,,,0,4,4,9,,,,,,,,,,,,,,,AMNE04.jpg,AMSA18.jpg,AMNE12.jpg,AMSA20.jpg,AMSA18.jpg,MS,2,num_6,16,num_6,1.2000921804,,,2017_Jul_07_1809,60.0083147148,MAFE4ImagesEEG,001,200788,
AFNE01.JPG,AFNE01.JPG,AFNE01.JPG,AFNE01.JPG,AFNE01.JPG,AFNE01.JPG,,,,,,,,,0,5,5,7,,,,,,,,,,,,,,,AMSA17.jpg,AMSA03.jpg,AMNE02.jpg,AMNE05.jpg,AMNE05.jpg,MN,1,num_4,16,num_4,1.18342079886,,,2017_Jul_07_1809,60.0083147148,MAFE4ImagesEEG,001,200788,
AFNE01.JPG,AFNE01.JPG,AFNE01.JPG,AFNE01.JPG,AFNE01.JPG,AFNE01.JPG,,,,,,,,,0,6,6,2,,,,,,,,,,,,,,,AMNE18.jpg,AMSA18.jpg,AMNE05.jpg,AMSA10.jpg,AMNE05.jpg,MN,1,num_2,16,num_2,3.91654270096,,,2017_Jul_07_1809,60.0083147148,MAFE4ImagesEEG,001,200788,
AFNE01.JPG,AFNE01.JPG,AFNE01.JPG,AFNE01.JPG,AFNE01.JPG,AFNE01.JPG,,,,,,,,,0,7,7,8,,,,,,,,,,,,,,,AMNE17.jpg,AMNE09.jpg,AMSA05.jpg,AMSA20.jpg,AMNE17.jpg,MN,1,num_8,32,num_4,2.08338160452,,,2017_Jul_07_1809,60.0083147148,MAFE4ImagesEEG,001,200788,
AFNE01.JPG,AFNE01.JPG,AFNE01.JPG,AFNE01.JPG,AFNE01.JPG,AFNE01.JPG,,,,,,,,,0,8,8,0,,,,,,,,,,,,,,,AMSA04.jpg,AMSA07.jpg,AMNE20.jpg,AMNE06.jpg,AMSA07.jpg,MS,2,num_6,32,num_8,1.78317229019,,,2017_Jul_07_1809,60.0083147148,MAFE4ImagesEEG,001,200788,
AFNE01.JPG,AFNE01.JPG,AFNE01.JPG,AFNE01.JPG,AFNE01.JPG,AFNE01.JPG,,,,,,,,,0,9,9,6,,,,,,,,,,,,,,,AMNE03.jpg,AMSA05.jpg,AMSA03.jpg,AMNE12.jpg,AMNE12.jpg,MN,1,num_4,32,num_6,0.90014715516,,,2017_Jul_07_1809,60.0083147148,MAFE4ImagesEEG,001,200788,
AFNE01.JPG,AFNE01.JPG,AFNE01.JPG,AFNE01.JPG,AFNE01.JPG,AFNE01.JPG,,,,,,,,,1,0,10,6,,,,,,,,,,,,,,,AMNE11.jpg,AMSA15.jpg,AMSA14.jpg,AMNE10.jpg,AMSA14.jpg,MS,2,num_2,16,num_2,1.86676782777,,,2017_Jul_07_1809,60.0083147148,MAFE4ImagesEEG,001,200788,
AFNE01.JPG,AFNE01.JPG,AFNE01.JPG,AFNE01.JPG,AFNE01.JPG,AFNE01.JPG,,,,,,,,,1,1,11,9,,,,,,,,,,,,,,,AMNE03.jpg,AMNE18.jpg,AMSA10.jpg,AMSA18.jpg,AMNE03.jpg,MN,1,num_8,16,num_8,1.44997302582,,,2017_Jul_07_1809,60.0083147148,MAFE4ImagesEEG,001,200788,
AFNE01.JPG,AFNE01.JPG,AFNE01.JPG,AFNE01.JPG,AFNE01.JPG,AFNE01.JPG,,,,,,,,,1,2,12,7,,,,,,,,,,,,,,,AMSA17.jpg,AMNE11.jpg,AMNE02.jpg,AMSA03.jpg,AMSA03.jpg,MS,2,num_4,32,num_2,1.46670534776,,,2017_Jul_07_1809,60.0083147148,MAFE4ImagesEEG,001,200788,
AFNE01.JPG,AFNE01.JPG,AFNE01.JPG,AFNE01.JPG,AFNE01.JPG,AFNE01.JPG,,,,,,,,,1,3,13,4,,,,,,,,,,,,,,,AMSA02.jpg,AMNE12.jpg,AMNE10.jpg,AMSA11.jpg,AMSA02.jpg,MS,2,num_8,32,num_6,3.35006180638,,,2017_Jul_07_1809,60.0083147148,MAFE4ImagesEEG,001,200788,
AFNE01.JPG,AFNE01.JPG,AFNE01.JPG,AFNE01.JPG,AFNE01.JPG,AFNE01.JPG,,,,,,,,,1,4,14,3,,,,,,,,,,,,,,,AMSA13.jpg,AMNE01.jpg,AMNE15.jpg,AMSA02.jpg,AMSA02.jpg,MS,2,num_4,16,num_4,1.15014795691,,,2017_Jul_07_1809,60.0083147148,MAFE4ImagesEEG,001,200788,
AFNE01.JPG,AFNE01.JPG,AFNE01.JPG,AFNE01.JPG,AFNE01.JPG,AFNE01.JPG,,,,,,,,,1,5,15,1,,,,,,,,,,,,,,,AMSA17.jpg,AMSA08.jpg,AMNE10.jpg,AMNE18.jpg,AMSA08.jpg,MS,2,num_6,32,num_8,1.00010391953,,,2017_Jul_07_1809,60.0083147148,MAFE4ImagesEEG,001,200788,
AFNE01.JPG,AFNE01.JPG,AFNE01.JPG,AFNE01.JPG,AFNE01.JPG,AFNE01.JPG,,,,,,,,,1,6,16,8,,,,,,,,,,,,,,,AMSA06.jpg,AMNE04.jpg,AMSA11.jpg,AMNE13.jpg,AMNE13.jpg,MN,1,num_4,32,num_8,1.40005414083,,,2017_Jul_07_1809,60.0083147148,MAFE4ImagesEEG,001,200788,
AFNE01.JPG,AFNE01.JPG,AFNE01.JPG,AFNE01.JPG,AFNE01.JPG,AFNE01.JPG,,,,,,,,,1,7,17,5,,,,,,,,,,,,,,,AMNE05.jpg,AMSA10.jpg,AMNE17.jpg,AMSA14.jpg,AMSA10.jpg,MS,2,num_6,32,num_2,0.783476350945,,,2017_Jul_07_1809,60.0083147148,MAFE4ImagesEEG,001,200788,
AFNE01.JPG,AFNE01.JPG,AFNE01.JPG,AFNE01.JPG,AFNE01.JPG,AFNE01.JPG,,,,,,,,,1,8,18,2,,,,,,,,,,,,,,,AMSA07.jpg,AMSA08.jpg,AMNE18.jpg,AMNE03.jpg,AMNE03.jpg,MN,1,num_4,32,num_8,1.50005292194,,,2017_Jul_07_1809,60.0083147148,MAFE4ImagesEEG,001,200788,
AFNE01.JPG,AFNE01.JPG,AFNE01.JPG,AFNE01.JPG,AFNE01.JPG,AFNE01.JPG,,,,,,,,,1,9,19,0,,,,,,,,,,,,,,,AMNE19.jpg,AMSA03.jpg,AMNE08.jpg,AMSA17.jpg,AMSA17.jpg,MS,2,num_4,32,num_6,1.31678479491,,,2017_Jul_07_1809,60.0083147148,MAFE4ImagesEEG,001,200788,
AFNE01.JPG,AFNE01.JPG,AFNE01.JPG,AFNE01.JPG,AFNE01.JPG,AFNE01.JPG,,,,,,,,,2,0,20,3,,,,,,,,,,,,,,,AMNE12.jpg,AMSA13.jpg,AMSA15.jpg,AMNE16.jpg,AMNE16.jpg,MN,1,num_4,16,num_4,1.41671076836,,,2017_Jul_07_1809,60.0083147148,MAFE4ImagesEEG,001,200788,
AFNE01.JPG,AFNE01.JPG,AFNE01.JPG,AFNE01.JPG,AFNE01.JPG,AFNE01.JPG,,,,,,,,,2,1,21,4,,,,,,,,,,,,,,,AMNE07.jpg,AMSA18.jpg,AMNE16.jpg,AMSA13.jpg,AMNE16.jpg,MN,1,num_2,16,num_2,2.54993684648,,,2017_Jul_07_1809,60.0083147148,MAFE4ImagesEEG,001,200788,
AFNE01.JPG,AFNE01.JPG,AFNE01.JPG,AFNE01.JPG,AFNE01.JPG,AFNE01.JPG,,,,,,,,,2,2,22,6,,,,,,,,,,,,,,,AMNE15.jpg,AMSA02.jpg,AMSA09.jpg,AMNE18.jpg,AMNE15.jpg,MN,1,num_8,16,num_8,1.16675070033,,,2017_Jul_07_1809,60.0083147148,MAFE4ImagesEEG,001,200788,
AFNE01.JPG,AFNE01.JPG,AFNE01.JPG,AFNE01.JPG,AFNE01.JPG,AFNE01.JPG,,,,,,,,,2,3,23,8,,,,,,,,,,,,,,,AMNE15.jpg,AMSA18.jpg,AMNE17.jpg,AMSA01.jpg,AMNE15.jpg,MN,1,num_8,16,num_8,1.90000570915,,,2017_Jul_07_1809,60.0083147148,MAFE4ImagesEEG,001,200788,
AFNE01.JPG,AFNE01.JPG,AFNE01.JPG,AFNE01.JPG,AFNE01.JPG,AFNE01.JPG,,,,,,,,,2,4,24,9,,,,,,,,,,,,,,,AMNE13.jpg,AMSA07.jpg,AMNE14.jpg,AMSA09.jpg,AMNE14.jpg,MN,1,num_2,32,num_4,2.19999243051,,,2017_Jul_07_1809,60.0083147148,MAFE4ImagesEEG,001,200788,
AFNE01.JPG,AFNE01.JPG,AFNE01.JPG,AFNE01.JPG,AFNE01.JPG,AFNE01.JPG,,,,,,,,,2,5,25,5,,,,,,,,,,,,,,,AMNE04.jpg,AMNE18.jpg,AMSA13.jpg,AMSA07.jpg,AMNE04.jpg,MN,1,num_8,16,num_8,1.0669052325,,,2017_Jul_07_1809,60.0083147148,MAFE4ImagesEEG,001,200788,
AFNE01.JPG,AFNE01.JPG,AFNE01.JPG,AFNE01.JPG,AFNE01.JPG,AFNE01.JPG,,,,,,,,,2,6,26,2,,,,,,,,,,,,,,,AMSA15.jpg,AMNE01.jpg,AMSA03.jpg,AMNE20.jpg,AMNE01.jpg,MN,1,num_6,16,num_6,1.11646841781,,,2017_Jul_07_1809,60.0083147148,MAFE4ImagesEEG,001,200788,
AFNE01.JPG,AFNE01.JPG,AFNE01.JPG,AFNE01.JPG,AFNE01.JPG,AFNE01.JPG,,,,,,,,,2,7,27,1,,,,,,,,,,,,,,,AMSA17.jpg,AMSA07.jpg,AMNE04.jpg,AMNE12.jpg,AMSA07.jpg,MS,2,num_6,32,num_2,2.59991763427,,,2017_Jul_07_1809,60.0083147148,MAFE4ImagesEEG,001,200788,
AFNE01.JPG,AFNE01.JPG,AFNE01.JPG,AFNE01.JPG,AFNE01.JPG,AFNE01.JPG,,,,,,,,,2,8,28,0,,,,,,,,,,,,,,,AMSA11.jpg,AMNE10.jpg,AMNE02.jpg,AMSA04.jpg,AMNE10.jpg,MN,1,num_6,32,num_8,0.616805835394,,,2017_Jul_07_1809,60.0083147148,MAFE4ImagesEEG,001,200788,
AFNE01.JPG,AFNE01.JPG,AFNE01.JPG,AFNE01.JPG,AFNE01.JPG,AFNE01.JPG,,,,,,,,,2,9,29,7,,,,,,,,,,,,,,,AMNE09.jpg,AMNE04.jpg,AMSA18.jpg,AMSA14.jpg,AMSA14.jpg,MS,2,num_4,16,num_4,0.650443037041,,,2017_Jul_07_1809,60.0083147148,MAFE4ImagesEEG,001,200788,
AFNE01.JPG,AFNE01.JPG,AFNE01.JPG,AFNE01.JPG,AFNE01.JPG,AFNE01.JPG,,,,,,,,,3,0,30,4,,,,,,,,,,,,,,,AMNE03.jpg,AMNE14.jpg,AMSA18.jpg,AMSA08.jpg,AMNE03.jpg,MN,1,num_8,32,num_6,0.750101513928,,,2017_Jul_07_1809,60.0083147148,MAFE4ImagesEEG,001,200788,
AFNE01.JPG,AFNE01.JPG,AFNE01.JPG,AFNE01.JPG,AFNE01.JPG,AFNE01.JPG,,,,,,,,,3,1,31,3,,,,,,,,,,,,,,,AMSA14.jpg,AMSA16.jpg,AMNE08.jpg,AMNE17.jpg,AMNE17.jpg,MN,1,num_4,16,num_4,1.23342115176,,,2017_Jul_07_1809,60.0083147148,MAFE4ImagesEEG,001,200788,
AFNE01.JPG,AFNE01.JPG,AFNE01.JPG,AFNE01.JPG,AFNE01.JPG,AFNE01.JPG,,,,,,,,,3,2,32,0,,,,,,,,,,,,,,,AMNE11.jpg,AMSA10.jpg,AMNE18.jpg,AMSA20.jpg,AMSA10.jpg,MS,2,num_6,16,num_6,1.63340280543,,,2017_Jul_07_1809,60.0083147148,MAFE4ImagesEEG,001,200788,
AFNE01.JPG,AFNE01.JPG,AFNE01.JPG,AFNE01.JPG,AFNE01.JPG,AFNE01.JPG,,,,,,,,,3,3,33,2,,,,,,,,,,,,,,,AMNE09.jpg,AMSA11.jpg,AMSA19.jpg,AMNE07.jpg,AMNE09.jpg,MN,1,num_8,16,num_8,1.88342285168,,,2017_Jul_07_1809,60.0083147148,MAFE4ImagesEEG,001,200788,
AFNE01.JPG,AFNE01.JPG,AFNE01.JPG,AFNE01.JPG,AFNE01.JPG,AFNE01.JPG,,,,,,,,,3,4,34,1,,,,,,,,,,,,,,,AMNE16.jpg,AMNE14.jpg,AMSA01.jpg,AMSA19.jpg,AMSA19.jpg,MS,2,num_4,32,num_2,1.63340056036,,,2017_Jul_07_1809,60.0083147148,MAFE4ImagesEEG,001,200788,
AFNE01.JPG,AFNE01.JPG,AFNE01.JPG,AFNE01.JPG,AFNE01.JPG,AFNE01.JPG,,,,,,,,,3,5,35,5,,,,,,,,,,,,,,,AMNE20.jpg,AMNE07.jpg,AMSA09.jpg,AMSA17.jpg,AMSA17.jpg,MS,2,num_4,16,num_4,0.633472726564,,,2017_Jul_07_1809,60.0083147148,MAFE4ImagesEEG,001,200788,
AFNE01.JPG,AFNE01.JPG,AFNE01.JPG,AFNE01.JPG,AFNE01.JPG,AFNE01.JPG,,,,,,,,,3,6,36,9,,,,,,,,,,,,,,,AMNE13.jpg,AMSA11.jpg,AMNE15.jpg,AMSA07.jpg,AMNE15.jpg,MN,1,num_2,32,num_6,0.700283340993,,,2017_Jul_07_1809,60.0083147148,MAFE4ImagesEEG,001,200788,
AFNE01.JPG,AFNE01.JPG,AFNE01.JPG,AFNE01.JPG,AFNE01.JPG,AFNE01.JPG,,,,,,,,,3,7,37,7,,,,,,,,,,,,,,,AMNE10.jpg,AMSA11.jpg,AMSA20.jpg,AMNE18.jpg,AMNE18.jpg,MN,1,num_4,32,num_6,1.65008894098,,,2017_Jul_07_1809,60.0083147148,MAFE4ImagesEEG,001,200788,
AFNE01.JPG,AFNE01.JPG,AFNE01.JPG,AFNE01.JPG,AFNE01.JPG,AFNE01.JPG,,,,,,,,,3,8,38,8,,,,,,,,,,,,,,,AMNE13.jpg,AMSA03.jpg,AMNE17.jpg,AMSA04.jpg,AMNE17.jpg,MN,1,num_2,16,num_2,2.01667362673,,,2017_Jul_07_1809,60.0083147148,MAFE4ImagesEEG,001,200788,
AFNE01.JPG,AFNE01.JPG,AFNE01.JPG,AFNE01.JPG,AFNE01.JPG,AFNE01.JPG,,,,,,,,,3,9,39,6,,,,,,,,,,,,,,,AMSA16.jpg,AMSA07.jpg,AMNE03.jpg,AMNE06.jpg,AMNE03.jpg,MN,1,num_2,32,num_6,0.966728761792,,,2017_Jul_07_1809,60.0083147148,MAFE4ImagesEEG,001,200788,
AFNE01.JPG,AFNE01.JPG,AFNE01.JPG,AFNE01.JPG,AFNE01.JPG,AFNE01.JPG,,,,,,,,,4,0,40,7,,,,,,,,,,,,,,,AMNE17.jpg,AMSA17.jpg,AMSA20.jpg,AMNE12.jpg,AMSA17.jpg,MS,2,num_6,32,num_4,1.58337166172,,,2017_Jul_07_1809,60.0083147148,MAFE4ImagesEEG,001,200788,
AFNE01.JPG,AFNE01.JPG,AFNE01.JPG,AFNE01.JPG,AFNE01.JPG,AFNE01.JPG,,,,,,,,,4,1,41,5,,,,,,,,,,,,,,,AMNE04.jpg,AMNE18.jpg,AMSA08.jpg,AMSA07.jpg,AMSA08.jpg,MS,2,num_2,32,num_8,1.41669408989,,,2017_Jul_07_1809,60.0083147148,MAFE4ImagesEEG,001,200788,
AFNE01.JPG,AFNE01.JPG,AFNE01.JPG,AFNE01.JPG,AFNE01.JPG,AFNE01.JPG,,,,,,,,,4,2,42,2,,,,,,,,,,,,,,,AMSA16.jpg,AMSA17.jpg,AMNE01.jpg,AMNE20.jpg,AMNE20.jpg,MN,1,num_4,32,num_8,1.83333974821,,,2017_Jul_07_1809,60.0083147148,MAFE4ImagesEEG,001,200788,
AFNE01.JPG,AFNE01.JPG,AFNE01.JPG,AFNE01.JPG,AFNE01.JPG,AFNE01.JPG,,,,,,,,,4,3,43,9,,,,,,,,,,,,,,,AMNE01.jpg,AMSA09.jpg,AMSA06.jpg,AMNE14.jpg,AMSA09.jpg,MS,2,num_6,32,num_2,2.83328201505,,,2017_Jul_07_1809,60.0083147148,MAFE4ImagesEEG,001,200788,
AFNE01.JPG,AFNE01.JPG,AFNE01.JPG,AFNE01.JPG,AFNE01.JPG,AFNE01.JPG,,,,,,,,,4,4,44,0,,,,,,,,,,,,,,,AMNE17.jpg,AMSA20.jpg,AMSA17.jpg,AMNE04.jpg,AMSA17.jpg,MS,2,num_2,32,num_6,0.650149239926,,,2017_Jul_07_1809,60.0083147148,MAFE4ImagesEEG,001,200788,
AFNE01.JPG,AFNE01.JPG,AFNE01.JPG,AFNE01.JPG,AFNE01.JPG,AFNE01.JPG,,,,,,,,,4,5,45,8,,,,,,,,,,,,,,,AMSA03.jpg,AMNE19.jpg,AMSA07.jpg,AMNE10.jpg,AMSA07.jpg,MS,2,num_2,32,num_4,1.20008127531,,,2017_Jul_07_1809,60.0083147148,MAFE4ImagesEEG,001,200788,
AFNE01.JPG,AFNE01.JPG,AFNE01.JPG,AFNE01.JPG,AFNE01.JPG,AFNE01.JPG,,,,,,,,,4,6,46,6,,,,,,,,,,,,,,,AMNE05.jpg,AMSA12.jpg,AMNE06.jpg,AMSA03.jpg,AMSA12.jpg,MS,2,num_6,32,num_8,1.16673979524,,,2017_Jul_07_1809,60.0083147148,MAFE4ImagesEEG,001,200788,
AFNE01.JPG,AFNE01.JPG,AFNE01.JPG,AFNE01.JPG,AFNE01.JPG,AFNE01.JPG,,,,,,,,,4,7,47,3,,,,,,,,,,,,,,,AMSA06.jpg,AMSA07.jpg,AMNE03.jpg,AMNE08.jpg,AMSA06.jpg,MS,2,num_8,32,num_2,1.33342987578,,,2017_Jul_07_1809,60.0083147148,MAFE4ImagesEEG,001,200788,
AFNE01.JPG,AFNE01.JPG,AFNE01.JPG,AFNE01.JPG,AFNE01.JPG,AFNE01.JPG,,,,,,,,,4,8,48,1,,,,,,,,,,,,,,,AMSA08.jpg,AMNE08.jpg,AMNE18.jpg,AMSA13.jpg,AMNE08.jpg,MN,1,num_6,16,num_6,0.633606795571,,,2017_Jul_07_1809,60.0083147148,MAFE4ImagesEEG,001,200788,
AFNE01.JPG,AFNE01.JPG,AFNE01.JPG,AFNE01.JPG,AFNE01.JPG,AFNE01.JPG,,,,,,,,,4,9,49,4,,,,,,,,,,,,,,,AMSA07.jpg,AMSA08.jpg,AMNE15.jpg,AMNE05.jpg,AMSA08.jpg,MS,2,num_6,32,num_4,0.550121912966,,,2017_Jul_07_1809,60.0083147148,MAFE4ImagesEEG,001,200788,
AFNE01.JPG,AFNE01.JPG,AFNE01.JPG,AFNE01.JPG,AFNE01.JPG,AFNE01.JPG,,,,,,,,,5,0,50,3,,,,,,,,,,,,,,,AMSA18.jpg,AMNE05.jpg,AMNE15.jpg,AMSA07.jpg,AMSA07.jpg,MS,2,num_4,32,num_2,0.650138976285,,,2017_Jul_07_1809,60.0083147148,MAFE4ImagesEEG,001,200788,
AFNE01.JPG,AFNE01.JPG,AFNE01.JPG,AFNE01.JPG,AFNE01.JPG,AFNE01.JPG,,,,,,,,,5,1,51,2,,,,,,,,,,,,,,,AMNE01.jpg,AMNE09.jpg,AMSA10.jpg,AMSA17.jpg,AMNE09.jpg,MN,1,num_6,32,num_8,1.38351362082,,,2017_Jul_07_1809,60.0083147148,MAFE4ImagesEEG,001,200788,
AFNE01.JPG,AFNE01.JPG,AFNE01.JPG,AFNE01.JPG,AFNE01.JPG,AFNE01.JPG,,,,,,,,,5,2,52,8,,,,,,,,,,,,,,,AMSA14.jpg,AMSA10.jpg,AMNE19.jpg,AMNE13.jpg,AMNE19.jpg,MN,1,num_2,32,num_4,0.700107255136,,,2017_Jul_07_1809,60.0083147148,MAFE4ImagesEEG,001,200788,
AFNE01.JPG,AFNE01.JPG,AFNE01.JPG,AFNE01.JPG,AFNE01.JPG,AFNE01.JPG,,,,,,,,,5,3,53,1,,,,,,,,,,,,,,,AMSA12.jpg,AMNE06.jpg,AMSA06.jpg,AMNE10.jpg,AMNE10.jpg,MN,1,num_4,16,num_4,0.750139040407,,,2017_Jul_07_1809,60.0083147148,MAFE4ImagesEEG,001,200788,
AFNE01.JPG,AFNE01.JPG,AFNE01.JPG,AFNE01.JPG,AFNE01.JPG,AFNE01.JPG,,,,,,,,,5,4,54,0,,,,,,,,,,,,,,,AMSA10.jpg,AMNE04.jpg,AMNE09.jpg,AMSA12.jpg,AMNE09.jpg,MN,1,num_2,16,num_2,1.40004195273,,,2017_Jul_07_1809,60.0083147148,MAFE4ImagesEEG,001,200788,
AFNE01.JPG,AFNE01.JPG,AFNE01.JPG,AFNE01.JPG,AFNE01.JPG,AFNE01.JPG,,,,,,,,,5,5,55,7,,,,,,,,,,,,,,,AMNE16.jpg,AMSA14.jpg,AMNE01.jpg,AMSA19.jpg,AMNE16.jpg,MN,1,num_8,16,num_8,0.683505794848,,,2017_Jul_07_1809,60.0083147148,MAFE4ImagesEEG,001,200788,
AFNE01.JPG,AFNE01.JPG,AFNE01.JPG,AFNE01.JPG,AFNE01.JPG,AFNE01.JPG,,,,,,,,,5,6,56,9,,,,,,,,,,,,,,,AMSA02.jpg,AMNE04.jpg,AMSA12.jpg,AMNE19.jpg,AMNE04.jpg,MN,1,num_6,16,num_6,0.950113509549,,,2017_Jul_07_1809,60.0083147148,MAFE4ImagesEEG,001,200788,
AFNE01.JPG,AFNE01.JPG,AFNE01.JPG,AFNE01.JPG,AFNE01.JPG,AFNE01.JPG,,,,,,,,,5,7,57,6,,,,,,,,,,,,,,,AMNE08.jpg,AMSA09.jpg,AMSA20.jpg,AMNE07.jpg,AMSA20.jpg,MS,2,num_2,16,num_2,0.883531902917,,,2017_Jul_07_1809,60.0083147148,MAFE4ImagesEEG,001,200788,
AFNE01.JPG,AFNE01.JPG,AFNE01.JPG,AFNE01.JPG,AFNE01.JPG,AFNE01.JPG,,,,,,,,,5,8,58,4,,,,,,,,,,,,,,,AMSA13.jpg,AMNE11.jpg,AMNE19.jpg,AMSA01.jpg,AMSA13.jpg,MS,2,num_8,32,num_4,0.516865428654,,,2017_Jul_07_1809,60.0083147148,MAFE4ImagesEEG,001,200788,
AFNE01.JPG,AFNE01.JPG,AFNE01.JPG,AFNE01.JPG,AFNE01.JPG,AFNE01.JPG,,,,,,,,,5,9,59,5,,,,,,,,,,,,,,,AMSA08.jpg,AMSA10.jpg,AMNE03.jpg,AMNE09.jpg,AMSA08.jpg,MS,2,num_8,32,num_2,0.650139617734,,,2017_Jul_07_1809,60.0083147148,MAFE4ImagesEEG,001,200788,
,,,,,,,,,,,,,,,,,,,,,,,,,,,,,,,,,,,,,,,,,,,space,12.2328730085,2017_Jul_07_1809,60.0083147148,MAFE4ImagesEEG,001,200788,
AFNE01.JPG,AFNE01.JPG,AFNE01.JPG,AFNE01.JPG,AFNE01.JPG,AFNE01.JPG,,,,,,,,,,,,,0,0,0,2,,,,,,,,,,,AFSA12.jpg,AFNE12.jpg,AFSA19.jpg,AFNE04.jpg,AFNE12.jpg,FN,3,num_6,16,num_6,1.11670480249,,,2017_Jul_07_1809,60.0083147148,MAFE4ImagesEEG,001,200788,
AFNE01.JPG,AFNE01.JPG,AFNE01.JPG,AFNE01.JPG,AFNE01.JPG,AFNE01.JPG,,,,,,,,,,,,,0,1,1,1,,,,,,,,,,,AFSA20.jpg,AFNE02.jpg,AFSA10.jpg,AFNE17.jpg,AFNE02.jpg,FN,3,num_6,32,num_4,1.01678171591,,,2017_Jul_07_1809,60.0083147148,MAFE4ImagesEEG,001,200788,
AFNE01.JPG,AFNE01.JPG,AFNE01.JPG,AFNE01.JPG,AFNE01.JPG,AFNE01.JPG,,,,,,,,,,,,,0,2,2,9,,,,,,,,,,,AFSA08.jpg,AFSA04.jpg,AFNE07.jpg,AFNE12.jpg,AFNE12.jpg,FN,3,num_4,16,num_4,1.20010180259,,,2017_Jul_07_1809,60.0083147148,MAFE4ImagesEEG,001,200788,
AFNE01.JPG,AFNE01.JPG,AFNE01.JPG,AFNE01.JPG,AFNE01.JPG,AFNE01.JPG,,,,,,,,,,,,,0,3,3,7,,,,,,,,,,,AFNE18.jpg,AFSA09.jpg,AFNE11.jpg,AFSA08.jpg,AFNE11.jpg,FN,3,num_2,32,num_8,1.5500516711,,,2017_Jul_07_1809,60.0083147148,MAFE4ImagesEEG,001,200788,
AFNE01.JPG,AFNE01.JPG,AFNE01.JPG,AFNE01.JPG,AFNE01.JPG,AFNE01.JPG,,,,,,,,,,,,,0,4,4,3,,,,,,,,,,,AFNE08.jpg,AFSA17.jpg,AFSA08.jpg,AFNE17.jpg,AFSA08.jpg,FS,4,num_2,32,num_8,1.26674659492,,,2017_Jul_07_1809,60.0083147148,MAFE4ImagesEEG,001,200788,
AFNE01.JPG,AFNE01.JPG,AFNE01.JPG,AFNE01.JPG,AFNE01.JPG,AFNE01.JPG,,,,,,,,,,,,,0,5,5,8,,,,,,,,,,,AFSA13.jpg,AFNE13.jpg,AFNE10.jpg,AFSA17.jpg,AFSA17.jpg,FS,4,num_4,16,num_4,1.18360169581,,,2017_Jul_07_1809,60.0083147148,MAFE4ImagesEEG,001,200788,
AFNE01.JPG,AFNE01.JPG,AFNE01.JPG,AFNE01.JPG,AFNE01.JPG,AFNE01.JPG,,,,,,,,,,,,,0,6,6,5,,,,,,,,,,,AFSA15.jpg,AFSA14.jpg,AFNE11.jpg,AFNE14.jpg,AFSA15.jpg,FS,4,num_8,32,num_6,0.916488496005,,,2017_Jul_07_1809,60.0083147148,MAFE4ImagesEEG,001,200788,
AFNE01.JPG,AFNE01.JPG,AFNE01.JPG,AFNE01.JPG,AFNE01.JPG,AFNE01.JPG,,,,,,,,,,,,,0,7,7,0,,,,,,,,,,,AFSA09.jpg,AFNE12.jpg,AFNE10.jpg,AFSA12.jpg,AFSA12.jpg,FS,4,num_4,32,num_6,1.08342682885,,,2017_Jul_07_1809,60.0083147148,MAFE4ImagesEEG,001,200788,
AFNE01.JPG,AFNE01.JPG,AFNE01.JPG,AFNE01.JPG,AFNE01.JPG,AFNE01.JPG,,,,,,,,,,,,,0,8,8,4,,,,,,,,,,,AFNE12.jpg,AFNE01.jpg,AFSA08.jpg,AFSA09.jpg,AFNE01.jpg,FN,3,num_6,32,num_4,1.00012444681,,,2017_Jul_07_1809,60.0083147148,MAFE4ImagesEEG,001,200788,
AFNE01.JPG,AFNE01.JPG,AFNE01.JPG,AFNE01.JPG,AFNE01.JPG,AFNE01.JPG,,,,,,,,,,,,,0,9,9,6,,,,,,,,,,,AFNE20.jpg,AFNE01.jpg,AFSA02.jpg,AFSA14.jpg,AFSA14.jpg,FS,4,num_4,16,num_4,1.91652922996,,,2017_Jul_07_1809,60.0083147148,MAFE4ImagesEEG,001,200788,
AFNE01.JPG,AFNE01.JPG,AFNE01.JPG,AFNE01.JPG,AFNE01.JPG,AFNE01.JPG,,,,,,,,,,,,,1,0,10,2,,,,,,,,,,,AFNE14.jpg,AFSA09.jpg,AFSA01.jpg,AFNE06.jpg,AFNE06.jpg,FN,3,num_4,32,num_6,0.866778091528,,,2017_Jul_07_1809,60.0083147148,MAFE4ImagesEEG,001,200788,
AFNE01.JPG,AFNE01.JPG,AFNE01.JPG,AFNE01.JPG,AFNE01.JPG,AFNE01.JPG,,,,,,,,,,,,,1,1,11,7,,,,,,,,,,,AFNE02.jpg,AFNE01.jpg,AFSA15.jpg,AFSA20.jpg,AFNE02.jpg,FN,3,num_8,16,num_8,1.05007219838,,,2017_Jul_07_1809,60.0083147148,MAFE4ImagesEEG,001,200788,
AFNE01.JPG,AFNE01.JPG,AFNE01.JPG,AFNE01.JPG,AFNE01.JPG,AFNE01.JPG,,,,,,,,,,,,,1,2,12,5,,,,,,,,,,,AFNE07.jpg,AFSA11.jpg,AFNE13.jpg,AFSA06.jpg,AFSA11.jpg,FS,4,num_6,32,num_2,1.80005824624,,,2017_Jul_07_1809,60.0083147148,MAFE4ImagesEEG,001,200788,
AFNE01.JPG,AFNE01.JPG,AFNE01.JPG,AFNE01.JPG,AFNE01.JPG,AFNE01.JPG,,,,,,,,,,,,,1,3,13,9,,,,,,,,,,,AFSA08.jpg,AFNE14.jpg,AFNE09.jpg,AFSA14.jpg,AFNE09.jpg,FN,3,num_2,32,num_4,0.550171948271,,,2017_Jul_07_1809,60.0083147148,MAFE4ImagesEEG,001,200788,
AFNE01.JPG,AFNE01.JPG,AFNE01.JPG,AFNE01.JPG,AFNE01.JPG,AFNE01.JPG,,,,,,,,,,,,,1,4,14,8,,,,,,,,,,,AFNE09.jpg,AFSA05.jpg,AFSA01.jpg,AFNE17.jpg,AFNE17.jpg,FN,3,num_4,32,num_6,0.666767378803,,,2017_Jul_07_1809,60.0083147148,MAFE4ImagesEEG,001,200788,
AFNE01.JPG,AFNE01.JPG,AFNE01.JPG,AFNE01.JPG,AFNE01.JPG,AFNE01.JPG,,,,,,,,,,,,,1,5,15,4,,,,,,,,,,,AFNE20.jpg,AFSA14.jpg,AFNE04.jpg,AFSA06.jpg,AFNE04.jpg,FN,3,num_2,32,num_8,0.816785436356,,,2017_Jul_07_1809,60.0083147148,MAFE4ImagesEEG,001,200788,
AFNE01.JPG,AFNE01.JPG,AFNE01.JPG,AFNE01.JPG,AFNE01.JPG,AFNE01.JPG,,,,,,,,,,,,,1,6,16,1,,,,,,,,,,,AFSA08.jpg,AFSA15.jpg,AFNE08.jpg,AFNE13.jpg,AFNE08.jpg,FN,3,num_2,16,num_2,0.900145551423,,,2017_Jul_07_1809,60.0083147148,MAFE4ImagesEEG,001,200788,
AFNE01.JPG,AFNE01.JPG,AFNE01.JPG,AFNE01.JPG,AFNE01.JPG,AFNE01.JPG,,,,,,,,,,,,,1,7,17,6,,,,,,,,,,,AFNE10.jpg,AFSA08.jpg,AFNE07.jpg,AFSA17.jpg,AFSA08.jpg,FS,4,num_6,32,num_2,1.28347859613,,,2017_Jul_07_1809,60.0083147148,MAFE4ImagesEEG,001,200788,
AFNE01.JPG,AFNE01.JPG,AFNE01.JPG,AFNE01.JPG,AFNE01.JPG,AFNE01.JPG,,,,,,,,,,,,,1,8,18,0,,,,,,,,,,,AFSA14.jpg,AFNE01.jpg,AFSA07.jpg,AFNE13.jpg,AFSA07.jpg,FS,4,num_2,32,num_8,1.28356840299,,,2017_Jul_07_1809,60.0083147148,MAFE4ImagesEEG,001,200788,
AFNE01.JPG,AFNE01.JPG,AFNE01.JPG,AFNE01.JPG,AFNE01.JPG,AFNE01.JPG,,,,,,,,,,,,,1,9,19,3,,,,,,,,,,,AFNE17.jpg,AFSA15.jpg,AFSA05.jpg,AFNE10.jpg,AFNE17.jpg,FN,3,num_8,32,num_4,0.783430485288,,,2017_Jul_07_1809,60.0083147148,MAFE4ImagesEEG,001,200788,
AFNE01.JPG,AFNE01.JPG,AFNE01.JPG,AFNE01.JPG,AFNE01.JPG,AFNE01.JPG,,,,,,,,,,,,,2,0,20,1,,,,,,,,,,,AFNE08.jpg,AFSA19.jpg,AFSA03.jpg,AFNE13.jpg,AFNE08.jpg,FN,3,num_8,32,num_6,0.633720337297,,,2017_Jul_07_1809,60.0083147148,MAFE4ImagesEEG,001,200788,
AFNE01.JPG,AFNE01.JPG,AFNE01.JPG,AFNE01.JPG,AFNE01.JPG,AFNE01.JPG,,,,,,,,,,,,,2,1,21,8,,,,,,,,,,,AFNE12.jpg,AFNE05.jpg,AFSA03.jpg,AFSA19.jpg,AFNE12.jpg,FN,3,num_8,32,num_2,0.63344578445,,,2017_Jul_07_1809,60.0083147148,MAFE4ImagesEEG,001,200788,
AFNE01.JPG,AFNE01.JPG,AFNE01.JPG,AFNE01.JPG,AFNE01.JPG,AFNE01.JPG,,,,,,,,,,,,,2,2,22,6,,,,,,,,,,,AFNE01.jpg,AFNE19.jpg,AFSA14.jpg,AFSA18.jpg,AFNE01.jpg,FN,3,num_8,16,num_8,1.08342682885,,,2017_Jul_07_1809,60.0083147148,MAFE4ImagesEEG,001,200788,
AFNE01.JPG,AFNE01.JPG,AFNE01.JPG,AFNE01.JPG,AFNE01.JPG,AFNE01.JPG,,,,,,,,,,,,,2,3,23,2,,,,,,,,,,,AFSA18.jpg,AFNE09.jpg,AFNE14.jpg,AFSA06.jpg,AFSA18.jpg,FS,4,num_8,32,num_4,1.9666630103,,,2017_Jul_07_1809,60.0083147148,MAFE4ImagesEEG,001,200788,
AFNE01.JPG,AFNE01.JPG,AFNE01.JPG,AFNE01.JPG,AFNE01.JPG,AFNE01.JPG,,,,,,,,,,,,,2,4,24,3,,,,,,,,,,,AFNE13.jpg,AFNE15.jpg,AFSA15.jpg,AFSA17.jpg,AFNE13.jpg,FN,3,num_8,16,num_8,1.21675939229,,,2017_Jul_07_1809,60.0083147148,MAFE4ImagesEEG,001,200788,
AFNE01.JPG,AFNE01.JPG,AFNE01.JPG,AFNE01.JPG,AFNE01.JPG,AFNE01.JPG,,,,,,,,,,,,,2,5,25,9,,,,,,,,,,,AFNE14.jpg,AFSA11.jpg,AFNE13.jpg,AFSA13.jpg,AFSA13.jpg,FS,4,num_4,32,num_2,0.916765614762,,,2017_Jul_07_1809,60.0083147148,MAFE4ImagesEEG,001,200788,
AFNE01.JPG,AFNE01.JPG,AFNE01.JPG,AFNE01.JPG,AFNE01.JPG,AFNE01.JPG,,,,,,,,,,,,,2,6,26,4,,,,,,,,,,,AFNE09.jpg,AFSA04.jpg,AFSA11.jpg,AFNE07.jpg,AFSA04.jpg,FS,4,num_6,32,num_8,1.23342403839,,,2017_Jul_07_1809,60.0083147148,MAFE4ImagesEEG,001,200788,
AFNE01.JPG,AFNE01.JPG,AFNE01.JPG,AFNE01.JPG,AFNE01.JPG,AFNE01.JPG,,,,,,,,,,,,,2,7,27,0,,,,,,,,,,,AFSA06.jpg,AFNE14.jpg,AFSA20.jpg,AFNE05.jpg,AFNE05.jpg,FN,3,num_4,16,num_4,0.86680535425,,,2017_Jul_07_1809,60.0083147148,MAFE4ImagesEEG,001,200788,
AFNE01.JPG,AFNE01.JPG,AFNE01.JPG,AFNE01.JPG,AFNE01.JPG,AFNE01.JPG,,,,,,,,,,,,,2,8,28,7,,,,,,,,,,,AFSA06.jpg,AFSA10.jpg,AFNE02.jpg,AFNE13.jpg,AFSA06.jpg,FS,4,num_8,16,num_8,1.85006886267,,,2017_Jul_07_1809,60.0083147148,MAFE4ImagesEEG,001,200788,
AFNE01.JPG,AFNE01.JPG,AFNE01.JPG,AFNE01.JPG,AFNE01.JPG,AFNE01.JPG,,,,,,,,,,,,,2,9,29,5,,,,,,,,,,,AFNE02.jpg,AFSA10.jpg,AFNE10.jpg,AFSA14.jpg,AFSA10.jpg,FS,4,num_6,16,num_6,0.583536521532,,,2017_Jul_07_1809,60.0083147148,MAFE4ImagesEEG,001,200788,
AFNE01.JPG,AFNE01.JPG,AFNE01.JPG,AFNE01.JPG,AFNE01.JPG,AFNE01.JPG,,,,,,,,,,,,,3,0,30,5,,,,,,,,,,,AFSA12.jpg,AFSA07.jpg,AFNE02.jpg,AFNE10.jpg,AFSA07.jpg,FS,4,num_6,16,num_6,1.01681763865,,,2017_Jul_07_1809,60.0083147148,MAFE4ImagesEEG,001,200788,
AFNE01.JPG,AFNE01.JPG,AFNE01.JPG,AFNE01.JPG,AFNE01.JPG,AFNE01.JPG,,,,,,,,,,,,,3,1,31,6,,,,,,,,,,,AFNE16.jpg,AFSA19.jpg,AFSA08.jpg,AFNE18.jpg,AFNE18.jpg,FN,3,num_4,16,num_4,0.98344921635,,,2017_Jul_07_1809,60.0083147148,MAFE4ImagesEEG,001,200788,
AFNE01.JPG,AFNE01.JPG,AFNE01.JPG,AFNE01.JPG,AFNE01.JPG,AFNE01.JPG,,,,,,,,,,,,,3,2,32,1,,,,,,,,,,,AFNE17.jpg,AFNE02.jpg,AFSA10.jpg,AFSA19.jpg,AFSA19.jpg,FS,4,num_4,32,num_8,1.38341194647,,,2017_Jul_07_1809,60.0083147148,MAFE4ImagesEEG,001,200788,
AFNE01.JPG,AFNE01.JPG,AFNE01.JPG,AFNE01.JPG,AFNE01.JPG,AFNE01.JPG,,,,,,,,,,,,,3,3,33,9,,,,,,,,,,,AFSA11.jpg,AFSA06.jpg,AFNE02.jpg,AFNE17.jpg,AFNE17.jpg,FN,3,num_4,32,num_6,0.866772318142,,,2017_Jul_07_1809,60.0083147148,MAFE4ImagesEEG,001,200788,
AFNE01.JPG,AFNE01.JPG,AFNE01.JPG,AFNE01.JPG,AFNE01.JPG,AFNE01.JPG,,,,,,,,,,,,,3,4,34,0,,,,,,,,,,,AFSA07.jpg,AFSA10.jpg,AFNE18.jpg,AFNE16.jpg,AFNE18.jpg,FN,3,num_2,16,num_2,1.40006440447,,,2017_Jul_07_1809,60.0083147148,MAFE4ImagesEEG,001,200788,
AFNE01.JPG,AFNE01.JPG,AFNE01.JPG,AFNE01.JPG,AFNE01.JPG,AFNE01.JPG,,,,,,,,,,,,,3,5,35,8,,,,,,,,,,,AFSA03.jpg,AFNE10.jpg,AFNE05.jpg,AFSA08.jpg,AFNE10.jpg,FN,3,num_6,32,num_8,0.88344081305,,,2017_Jul_07_1809,60.0083147148,MAFE4ImagesEEG,001,200788,
AFNE01.JPG,AFNE01.JPG,AFNE01.JPG,AFNE01.JPG,AFNE01.JPG,AFNE01.JPG,,,,,,,,,,,,,3,6,36,3,,,,,,,,,,,AFNE16.jpg,AFSA17.jpg,AFSA20.jpg,AFNE12.jpg,AFNE12.jpg,FN,3,num_4,16,num_4,1.76668693742,,,2017_Jul_07_1809,60.0083147148,MAFE4ImagesEEG,001,200788,
AFNE01.JPG,AFNE01.JPG,AFNE01.JPG,AFNE01.JPG,AFNE01.JPG,AFNE01.JPG,,,,,,,,,,,,,3,7,37,4,,,,,,,,,,,AFSA02.jpg,AFSA03.jpg,AFNE01.jpg,AFNE10.jpg,AFSA03.jpg,FS,4,num_6,16,num_6,0.41664726194,,,2017_Jul_07_1809,60.0083147148,MAFE4ImagesEEG,001,200788,
AFNE01.JPG,AFNE01.JPG,AFNE01.JPG,AFNE01.JPG,AFNE01.JPG,AFNE01.JPG,,,,,,,,,,,,,3,8,38,2,,,,,,,,,,,AFNE14.jpg,AFSA06.jpg,AFSA01.jpg,AFNE17.jpg,AFNE17.jpg,FN,3,num_4,32,num_8,0.566802595975,,,2017_Jul_07_1809,60.0083147148,MAFE4ImagesEEG,001,200788,
AFNE01.JPG,AFNE01.JPG,AFNE01.JPG,AFNE01.JPG,AFNE01.JPG,AFNE01.JPG,,,,,,,,,,,,,3,9,39,7,,,,,,,,,,,AFNE09.jpg,AFNE03.jpg,AFSA10.jpg,AFSA15.jpg,AFSA15.jpg,FS,4,num_4,32,num_8,0.76679085684,,,2017_Jul_07_1809,60.0083147148,MAFE4ImagesEEG,001,200788,
AFNE01.JPG,AFNE01.JPG,AFNE01.JPG,AFNE01.JPG,AFNE01.JPG,AFNE01.JPG,,,,,,,,,,,,,4,0,40,0,,,,,,,,,,,AFNE08.jpg,AFSA01.jpg,AFSA20.jpg,AFNE03.jpg,AFSA20.jpg,FS,4,num_2,16,num_2,1.01674900041,,,2017_Jul_07_1809,60.0083147148,MAFE4ImagesEEG,001,200788,
AFNE01.JPG,AFNE01.JPG,AFNE01.JPG,AFNE01.JPG,AFNE01.JPG,AFNE01.JPG,,,,,,,,,,,,,4,1,41,4,,,,,,,,,,,AFSA05.jpg,AFSA20.jpg,AFNE11.jpg,AFNE13.jpg,AFNE13.jpg,FN,3,num_4,32,num_6,0.500129578635,,,2017_Jul_07_1809,60.0083147148,MAFE4ImagesEEG,001,200788,
AFNE01.JPG,AFNE01.JPG,AFNE01.JPG,AFNE01.JPG,AFNE01.JPG,AFNE01.JPG,,,,,,,,,,,,,4,2,42,1,,,,,,,,,,,AFSA04.jpg,AFNE12.jpg,AFSA01.jpg,AFNE05.jpg,AFSA04.jpg,FS,4,num_8,32,num_4,0.633744713385,,,2017_Jul_07_1809,60.0083147148,MAFE4ImagesEEG,001,200788,
AFNE01.JPG,AFNE01.JPG,AFNE01.JPG,AFNE01.JPG,AFNE01.JPG,AFNE01.JPG,,,,,,,,,,,,,4,3,43,6,,,,,,,,,,,AFSA15.jpg,AFSA06.jpg,AFNE14.jpg,AFNE04.jpg,AFNE14.jpg,FN,3,num_2,16,num_2,0.9500836808,,,2017_Jul_07_1809,60.0083147148,MAFE4ImagesEEG,001,200788,
AFNE01.JPG,AFNE01.JPG,AFNE01.JPG,AFNE01.JPG,AFNE01.JPG,AFNE01.JPG,,,,,,,,,,,,,4,4,44,3,,,,,,,,,,,AFSA02.jpg,AFSA12.jpg,AFNE17.jpg,AFNE01.jpg,AFSA02.jpg,FS,4,num_8,16,num_8,1.01673007687,,,2017_Jul_07_1809,60.0083147148,MAFE4ImagesEEG,001,200788,
AFNE01.JPG,AFNE01.JPG,AFNE01.JPG,AFNE01.JPG,AFNE01.JPG,AFNE01.JPG,,,,,,,,,,,,,4,5,45,5,,,,,,,,,,,AFNE20.jpg,AFSA14.jpg,AFNE01.jpg,AFSA18.jpg,AFNE20.jpg,FN,3,num_8,32,num_6,1.28372011275,,,2017_Jul_07_1809,60.0083147148,MAFE4ImagesEEG,001,200788,
AFNE01.JPG,AFNE01.JPG,AFNE01.JPG,AFNE01.JPG,AFNE01.JPG,AFNE01.JPG,,,,,,,,,,,,,4,6,46,7,,,,,,,,,,,AFSA06.jpg,AFSA13.jpg,AFNE19.jpg,AFNE06.jpg,AFSA06.jpg,FS,4,num_8,32,num_2,1.18343491142,,,2017_Jul_07_1809,60.0083147148,MAFE4ImagesEEG,001,200788,
AFNE01.JPG,AFNE01.JPG,AFNE01.JPG,AFNE01.JPG,AFNE01.JPG,AFNE01.JPG,,,,,,,,,,,,,4,7,47,9,,,,,,,,,,,AFNE20.jpg,AFNE18.jpg,AFSA03.jpg,AFSA12.jpg,AFSA12.jpg,FS,4,num_4,32,num_8,1.30003996415,,,2017_Jul_07_1809,60.0083147148,MAFE4ImagesEEG,001,200788,
AFNE01.JPG,AFNE01.JPG,AFNE01.JPG,AFNE01.JPG,AFNE01.JPG,AFNE01.JPG,,,,,,,,,,,,,4,8,48,8,,,,,,,,,,,AFNE05.jpg,AFSA14.jpg,AFSA02.jpg,AFNE15.jpg,AFSA02.jpg,FS,4,num_2,32,num_4,1.16673145595,,,2017_Jul_07_1809,60.0083147148,MAFE4ImagesEEG,001,200788,
AFNE01.JPG,AFNE01.JPG,AFNE01.JPG,AFNE01.JPG,AFNE01.JPG,AFNE01.JPG,,,,,,,,,,,,,4,9,49,2,,,,,,,,,,,AFNE03.jpg,AFSA10.jpg,AFNE18.jpg,AFSA17.jpg,AFSA17.jpg,FS,4,num_4,32,num_6,0.733832339407,,,2017_Jul_07_1809,60.0083147148,MAFE4ImagesEEG,001,200788,
AFNE01.JPG,AFNE01.JPG,AFNE01.JPG,AFNE01.JPG,AFNE01.JPG,AFNE01.JPG,,,,,,,,,,,,,5,0,50,3,,,,,,,,,,,AFSA01.jpg,AFNE07.jpg,AFNE01.jpg,AFSA04.jpg,AFNE07.jpg,FN,3,num_6,32,num_8,1.08346660051,,,2017_Jul_07_1809,60.0083147148,MAFE4ImagesEEG,001,200788,
AFNE01.JPG,AFNE01.JPG,AFNE01.JPG,AFNE01.JPG,AFNE01.JPG,AFNE01.JPG,,,,,,,,,,,,,5,1,51,9,,,,,,,,,,,AFSA01.jpg,AFSA14.jpg,AFNE09.jpg,AFNE12.jpg,AFNE09.jpg,FN,3,num_2,32,num_6,1.61678306293,,,2017_Jul_07_1809,60.0083147148,MAFE4ImagesEEG,001,200788,
AFNE01.JPG,AFNE01.JPG,AFNE01.JPG,AFNE01.JPG,AFNE01.JPG,AFNE01.JPG,,,,,,,,,,,,,5,2,52,0,,,,,,,,,,,AFNE13.jpg,AFNE02.jpg,AFSA08.jpg,AFSA12.jpg,AFNE02.jpg,FN,3,num_6,32,num_2,0.833458421635,,,2017_Jul_07_1809,60.0083147148,MAFE4ImagesEEG,001,200788,
AFNE01.JPG,AFNE01.JPG,AFNE01.JPG,AFNE01.JPG,AFNE01.JPG,AFNE01.JPG,,,,,,,,,,,,,5,3,53,6,,,,,,,,,,,AFSA04.jpg,AFNE03.jpg,AFNE02.jpg,AFSA19.jpg,AFSA19.jpg,FS,4,num_4,16,num_4,1.45007085125,,,2017_Jul_07_1809,60.0083147148,MAFE4ImagesEEG,001,200788,
AFNE01.JPG,AFNE01.JPG,AFNE01.JPG,AFNE01.JPG,AFNE01.JPG,AFNE01.JPG,,,,,,,,,,,,,5,4,54,4,,,,,,,,,,,AFSA08.jpg,AFNE20.jpg,AFSA12.jpg,AFNE12.jpg,AFSA12.jpg,FS,4,num_2,32,num_8,2.08336075651,,,2017_Jul_07_1809,60.0083147148,MAFE4ImagesEEG,001,200788,
AFNE01.JPG,AFNE01.JPG,AFNE01.JPG,AFNE01.JPG,AFNE01.JPG,AFNE01.JPG,,,,,,,,,,,,,5,5,55,2,,,,,,,,,,,AFSA02.jpg,AFNE07.jpg,AFSA04.jpg,AFNE14.jpg,AFNE07.jpg,FN,3,num_6,16,num_6,0.866809844621,,,2017_Jul_07_1809,60.0083147148,MAFE4ImagesEEG,001,200788,
AFNE01.JPG,AFNE01.JPG,AFNE01.JPG,AFNE01.JPG,AFNE01.JPG,AFNE01.JPG,,,,,,,,,,,,,5,6,56,5,,,,,,,,,,,AFNE05.jpg,AFNE09.jpg,AFSA02.jpg,AFSA09.jpg,AFNE09.jpg,FN,3,num_6,32,num_2,2.46663286071,,,2017_Jul_07_1809,60.0083147148,MAFE4ImagesEEG,001,200788,
AFNE01.JPG,AFNE01.JPG,AFNE01.JPG,AFNE01.JPG,AFNE01.JPG,AFNE01.JPG,,,,,,,,,,,,,5,7,57,7,,,,,,,,,,,AFSA05.jpg,AFSA12.jpg,AFNE10.jpg,AFNE15.jpg,AFNE15.jpg,FN,3,num_4,16,num_4,1.26671836979,,,2017_Jul_07_1809,60.0083147148,MAFE4ImagesEEG,001,200788,
AFNE01.JPG,AFNE01.JPG,AFNE01.JPG,AFNE01.JPG,AFNE01.JPG,AFNE01.JPG,,,,,,,,,,,,,5,8,58,8,,,,,,,,,,,AFSA01.jpg,AFSA15.jpg,AFNE03.jpg,AFNE11.jpg,AFNE11.jpg,FN,3,num_4,32,num_8,1.45009394456,,,2017_Jul_07_1809,60.0083147148,MAFE4ImagesEEG,001,200788,
AFNE01.JPG,AFNE01.JPG,AFNE01.JPG,AFNE01.JPG,AFNE01.JPG,AFNE01.JPG,,,,,,,,,,,,,5,9,59,1,,,,,,,,,,,AFNE15.jpg,AFNE12.jpg,AFSA11.jpg,AFSA05.jpg,AFSA05.jpg,FS,4,num_4,32,num_2,1.18347821129,,,2017_Jul_07_1809,60.0083147148,MAFE4ImagesEEG,001,200788,
,,,,,,,,,,,,,,,,,,,,,,,,,,,,,,,,,,,,,,,,,,,space,19.181995434,2017_Jul_07_1809,60.0083147148,MAFE4ImagesEEG,001,200788,
AFNE01.JPG,AFNE01.JPG,AFNE01.JPG,AFNE01.JPG,AFNE01.JPG,AFNE01.JPG,,,,,,,,,,,,,,,,,0,0,0,9,,,,,,,AMSA06.jpg,AMNE19.jpg,AMSA10.jpg,AMNE04.jpg,AMSA06.jpg,MS,2,num_8,32,num_6,0.933434109553,,,2017_Jul_07_1809,60.0083147148,MAFE4ImagesEEG,001,200788,
AFNE01.JPG,AFNE01.JPG,AFNE01.JPG,AFNE01.JPG,AFNE01.JPG,AFNE01.JPG,,,,,,,,,,,,,,,,,0,1,1,2,,,,,,,AMNE19.jpg,AMSA01.jpg,AMNE14.jpg,AMSA18.jpg,AMNE14.jpg,MN,1,num_2,32,num_8,1.0167499627,,,2017_Jul_07_1809,60.0083147148,MAFE4ImagesEEG,001,200788,
AFNE01.JPG,AFNE01.JPG,AFNE01.JPG,AFNE01.JPG,AFNE01.JPG,AFNE01.JPG,,,,,,,,,,,,,,,,,0,2,2,0,,,,,,,AMSA19.jpg,AMNE11.jpg,AMSA14.jpg,AMNE14.jpg,AMNE11.jpg,MN,1,num_6,32,num_4,0.800091603072,,,2017_Jul_07_1809,60.0083147148,MAFE4ImagesEEG,001,200788,
AFNE01.JPG,AFNE01.JPG,AFNE01.JPG,AFNE01.JPG,AFNE01.JPG,AFNE01.JPG,,,,,,,,,,,,,,,,,0,3,3,7,,,,,,,AMSA07.jpg,AMNE15.jpg,AMSA18.jpg,AMNE20.jpg,AMSA07.jpg,MS,2,num_8,16,num_8,0.883570391685,,,2017_Jul_07_1809,60.0083147148,MAFE4ImagesEEG,001,200788,
AFNE01.JPG,AFNE01.JPG,AFNE01.JPG,AFNE01.JPG,AFNE01.JPG,AFNE01.JPG,,,,,,,,,,,,,,,,,0,4,4,4,,,,,,,AMNE15.jpg,AMSA05.jpg,AMSA11.jpg,AMNE09.jpg,AMSA05.jpg,MS,2,num_6,16,num_6,0.60027397552,,,2017_Jul_07_1809,60.0083147148,MAFE4ImagesEEG,001,200788,
AFNE01.JPG,AFNE01.JPG,AFNE01.JPG,AFNE01.JPG,AFNE01.JPG,AFNE01.JPG,,,,,,,,,,,,,,,,,0,5,5,6,,,,,,,AMNE14.jpg,AMSA05.jpg,AMSA14.jpg,AMNE07.jpg,AMSA14.jpg,MS,2,num_2,16,num_2,1.9333699618,,,2017_Jul_07_1809,60.0083147148,MAFE4ImagesEEG,001,200788,
AFNE01.JPG,AFNE01.JPG,AFNE01.JPG,AFNE01.JPG,AFNE01.JPG,AFNE01.JPG,,,,,,,,,,,,,,,,,0,6,6,1,,,,,,,AMSA10.jpg,AMNE06.jpg,AMNE03.jpg,AMSA16.jpg,AMNE06.jpg,MN,1,num_6,32,num_4,0.683470834163,,,2017_Jul_07_1809,60.0083147148,MAFE4ImagesEEG,001,200788,
AFNE01.JPG,AFNE01.JPG,AFNE01.JPG,AFNE01.JPG,AFNE01.JPG,AFNE01.JPG,,,,,,,,,,,,,,,,,0,7,7,5,,,,,,,AMSA05.jpg,AMSA02.jpg,AMNE07.jpg,AMNE13.jpg,AMNE07.jpg,MN,1,num_2,32,num_6,0.866786430706,,,2017_Jul_07_1809,60.0083147148,MAFE4ImagesEEG,001,200788,
AFNE01.JPG,AFNE01.JPG,AFNE01.JPG,AFNE01.JPG,AFNE01.JPG,AFNE01.JPG,,,,,,,,,,,,,,,,,0,8,8,8,,,,,,,AMNE11.jpg,AMSA11.jpg,AMNE19.jpg,AMSA03.jpg,AMNE11.jpg,MN,1,num_8,32,num_4,0.600357367541,,,2017_Jul_07_1809,60.0083147148,MAFE4ImagesEEG,001,200788,
AFNE01.JPG,AFNE01.JPG,AFNE01.JPG,AFNE01.JPG,AFNE01.JPG,AFNE01.JPG,,,,,,,,,,,,,,,,,0,9,9,3,,,,,,,AMNE15.jpg,AMSA12.jpg,AMSA06.jpg,AMNE12.jpg,AMSA06.jpg,MS,2,num_2,16,num_2,1.58343452646,,,2017_Jul_07_1809,60.0083147148,MAFE4ImagesEEG,001,200788,
AFNE01.JPG,AFNE01.JPG,AFNE01.JPG,AFNE01.JPG,AFNE01.JPG,AFNE01.JPG,,,,,,,,,,,,,,,,,1,0,10,2,,,,,,,AMNE18.jpg,AMSA10.jpg,AMSA04.jpg,AMNE14.jpg,AMSA04.jpg,MS,2,num_2,32,num_6,0.516792941606,,,2017_Jul_07_1809,60.0083147148,MAFE4ImagesEEG,001,200788,
AFNE01.JPG,AFNE01.JPG,AFNE01.JPG,AFNE01.JPG,AFNE01.JPG,AFNE01.JPG,,,,,,,,,,,,,,,,,1,1,11,6,,,,,,,AMSA09.jpg,AMNE04.jpg,AMNE20.jpg,AMSA06.jpg,AMSA06.jpg,MS,2,num_4,16,num_4,1.60005138244,,,2017_Jul_07_1809,60.0083147148,MAFE4ImagesEEG,001,200788,
AFNE01.JPG,AFNE01.JPG,AFNE01.JPG,AFNE01.JPG,AFNE01.JPG,AFNE01.JPG,,,,,,,,,,,,,,,,,1,2,12,3,,,,,,,AMSA10.jpg,AMNE06.jpg,AMSA07.jpg,AMNE07.jpg,AMNE06.jpg,MN,1,num_6,32,num_8,1.03341717459,,,2017_Jul_07_1809,60.0083147148,MAFE4ImagesEEG,001,200788,
AFNE01.JPG,AFNE01.JPG,AFNE01.JPG,AFNE01.JPG,AFNE01.JPG,AFNE01.JPG,,,,,,,,,,,,,,,,,1,3,13,9,,,,,,,AMSA16.jpg,AMNE13.jpg,AMSA17.jpg,AMNE18.jpg,AMSA17.jpg,MS,2,num_2,32,num_4,1.1001520945,,,2017_Jul_07_1809,60.0083147148,MAFE4ImagesEEG,001,200788,
AFNE01.JPG,AFNE01.JPG,AFNE01.JPG,AFNE01.JPG,AFNE01.JPG,AFNE01.JPG,,,,,,,,,,,,,,,,,1,4,14,8,,,,,,,AMNE07.jpg,AMNE12.jpg,AMSA18.jpg,AMSA10.jpg,AMNE07.jpg,MN,1,num_8,32,num_6,1.26658173499,,,2017_Jul_07_1809,60.0083147148,MAFE4ImagesEEG,001,200788,
AFNE01.JPG,AFNE01.JPG,AFNE01.JPG,AFNE01.JPG,AFNE01.JPG,AFNE01.JPG,,,,,,,,,,,,,,,,,1,5,15,0,,,,,,,AMSA10.jpg,AMSA04.jpg,AMNE06.jpg,AMNE09.jpg,AMSA10.jpg,MS,2,num_8,16,num_8,1.10009756882,,,2017_Jul_07_1809,60.0083147148,MAFE4ImagesEEG,001,200788,
AFNE01.JPG,AFNE01.JPG,AFNE01.JPG,AFNE01.JPG,AFNE01.JPG,AFNE01.JPG,,,,,,,,,,,,,,,,,1,6,16,5,,,,,,,AMNE08.jpg,AMSA14.jpg,AMNE18.jpg,AMSA10.jpg,AMSA14.jpg,MS,2,num_6,32,num_2,0.750202867552,,,2017_Jul_07_1809,60.0083147148,MAFE4ImagesEEG,001,200788,
AFNE01.JPG,AFNE01.JPG,AFNE01.JPG,AFNE01.JPG,AFNE01.JPG,AFNE01.JPG,,,,,,,,,,,,,,,,,1,7,17,4,,,,,,,AMNE07.jpg,AMSA03.jpg,AMSA17.jpg,AMNE14.jpg,AMNE14.jpg,MN,1,num_4,16,num_4,0.800109564443,,,2017_Jul_07_1809,60.0083147148,MAFE4ImagesEEG,001,200788,
AFNE01.JPG,AFNE01.JPG,AFNE01.JPG,AFNE01.JPG,AFNE01.JPG,AFNE01.JPG,,,,,,,,,,,,,,,,,1,8,18,1,,,,,,,AMSA07.jpg,AMNE15.jpg,AMNE05.jpg,AMSA11.jpg,AMSA07.jpg,MS,2,num_8,32,num_6,0.500152030378,,,2017_Jul_07_1809,60.0083147148,MAFE4ImagesEEG,001,200788,
AFNE01.JPG,AFNE01.JPG,AFNE01.JPG,AFNE01.JPG,AFNE01.JPG,AFNE01.JPG,,,,,,,,,,,,,,,,,1,9,19,7,,,,,,,AMSA08.jpg,AMNE07.jpg,AMSA02.jpg,AMNE11.jpg,AMSA02.jpg,MS,2,num_2,32,num_6,0.833422178053,,,2017_Jul_07_1809,60.0083147148,MAFE4ImagesEEG,001,200788,
AFNE01.JPG,AFNE01.JPG,AFNE01.JPG,AFNE01.JPG,AFNE01.JPG,AFNE01.JPG,,,,,,,,,,,,,,,,,2,0,20,3,,,,,,,AMSA09.jpg,AMNE16.jpg,AMSA13.jpg,AMNE03.jpg,AMNE16.jpg,MN,1,num_6,32,num_4,0.700160177192,,,2017_Jul_07_1809,60.0083147148,MAFE4ImagesEEG,001,200788,
AFNE01.JPG,AFNE01.JPG,AFNE01.JPG,AFNE01.JPG,AFNE01.JPG,AFNE01.JPG,,,,,,,,,,,,,,,,,2,1,21,7,,,,,,,AMSA14.jpg,AMNE01.jpg,AMNE06.jpg,AMSA12.jpg,AMSA14.jpg,MS,2,num_8,16,num_8,0.633658434614,,,2017_Jul_07_1809,60.0083147148,MAFE4ImagesEEG,001,200788,
AFNE01.JPG,AFNE01.JPG,AFNE01.JPG,AFNE01.JPG,AFNE01.JPG,AFNE01.JPG,,,,,,,,,,,,,,,,,2,2,22,9,,,,,,,AMSA04.jpg,AMSA15.jpg,AMNE15.jpg,AMNE14.jpg,AMSA04.jpg,MS,2,num_8,16,num_8,1.61671955662,,,2017_Jul_07_1809,60.0083147148,MAFE4ImagesEEG,001,200788,
AFNE01.JPG,AFNE01.JPG,AFNE01.JPG,AFNE01.JPG,AFNE01.JPG,AFNE01.JPG,,,,,,,,,,,,,,,,,2,3,23,6,,,,,,,AMNE07.jpg,AMSA05.jpg,AMSA13.jpg,AMNE16.jpg,AMNE16.jpg,MN,1,num_4,32,num_6,0.600219770567,,,2017_Jul_07_1809,60.0083147148,MAFE4ImagesEEG,001,200788,
AFNE01.JPG,AFNE01.JPG,AFNE01.JPG,AFNE01.JPG,AFNE01.JPG,AFNE01.JPG,,,,,,,,,,,,,,,,,2,4,24,4,,,,,,,AMSA04.jpg,AMSA03.jpg,AMNE08.jpg,AMNE14.jpg,AMSA04.jpg,MS,2,num_8,32,num_4,0.60016748996,,,2017_Jul_07_1809,60.0083147148,MAFE4ImagesEEG,001,200788,
AFNE01.JPG,AFNE01.JPG,AFNE01.JPG,AFNE01.JPG,AFNE01.JPG,AFNE01.JPG,,,,,,,,,,,,,,,,,2,5,25,1,,,,,,,AMSA03.jpg,AMSA06.jpg,AMNE04.jpg,AMNE17.jpg,AMNE04.jpg,MN,1,num_2,32,num_4,3.24991740973,,,2017_Jul_07_1809,60.0083147148,MAFE4ImagesEEG,001,200788,
AFNE01.JPG,AFNE01.JPG,AFNE01.JPG,AFNE01.JPG,AFNE01.JPG,AFNE01.JPG,,,,,,,,,,,,,,,,,2,6,26,0,,,,,,,AMNE11.jpg,AMSA06.jpg,AMNE05.jpg,AMSA03.jpg,AMNE11.jpg,MN,1,num_8,32,num_2,1.633437766,,,2017_Jul_07_1809,60.0083147148,MAFE4ImagesEEG,001,200788,
AFNE01.JPG,AFNE01.JPG,AFNE01.JPG,AFNE01.JPG,AFNE01.JPG,AFNE01.JPG,,,,,,,,,,,,,,,,,2,7,27,2,,,,,,,AMNE10.jpg,AMSA04.jpg,AMSA08.jpg,AMNE16.jpg,AMNE10.jpg,MN,1,num_8,16,num_8,0.800108923111,,,2017_Jul_07_1809,60.0083147148,MAFE4ImagesEEG,001,200788,
AFNE01.JPG,AFNE01.JPG,AFNE01.JPG,AFNE01.JPG,AFNE01.JPG,AFNE01.JPG,,,,,,,,,,,,,,,,,2,8,28,5,,,,,,,AMSA01.jpg,AMSA03.jpg,AMNE12.jpg,AMNE04.jpg,AMNE12.jpg,MN,1,num_2,32,num_4,0.683450948447,,,2017_Jul_07_1809,60.0083147148,MAFE4ImagesEEG,001,200788,
AFNE01.JPG,AFNE01.JPG,AFNE01.JPG,AFNE01.JPG,AFNE01.JPG,AFNE01.JPG,,,,,,,,,,,,,,,,,2,9,29,8,,,,,,,AMNE10.jpg,AMNE16.jpg,AMSA10.jpg,AMSA11.jpg,AMNE10.jpg,MN,1,num_8,16,num_8,1.40009647841,,,2017_Jul_07_1809,60.0083147148,MAFE4ImagesEEG,001,200788,
AFNE01.JPG,AFNE01.JPG,AFNE01.JPG,AFNE01.JPG,AFNE01.JPG,AFNE01.JPG,,,,,,,,,,,,,,,,,3,0,30,6,,,,,,,AMSA04.jpg,AMSA11.jpg,AMNE20.jpg,AMNE11.jpg,AMNE11.jpg,MN,1,num_4,32,num_2,1.03352494293,,,2017_Jul_07_1809,60.0083147148,MAFE4ImagesEEG,001,200788,
AFNE01.JPG,AFNE01.JPG,AFNE01.JPG,AFNE01.JPG,AFNE01.JPG,AFNE01.JPG,,,,,,,,,,,,,,,,,3,1,31,0,,,,,,,AMSA09.jpg,AMNE16.jpg,AMNE18.jpg,AMSA08.jpg,AMSA09.jpg,MS,2,num_8,32,num_2,1.46714283607,,,2017_Jul_07_1809,60.0083147148,MAFE4ImagesEEG,001,200788,
AFNE01.JPG,AFNE01.JPG,AFNE01.JPG,AFNE01.JPG,AFNE01.JPG,AFNE01.JPG,,,,,,,,,,,,,,,,,3,2,32,7,,,,,,,AMNE16.jpg,AMSA01.jpg,AMNE03.jpg,AMSA15.jpg,AMSA01.jpg,MS,2,num_6,16,num_6,1.38345813286,,,2017_Jul_07_1809,60.0083147148,MAFE4ImagesEEG,001,200788,
AFNE01.JPG,AFNE01.JPG,AFNE01.JPG,AFNE01.JPG,AFNE01.JPG,AFNE01.JPG,,,,,,,,,,,,,,,,,3,3,33,8,,,,,,,AMNE06.jpg,AMSA12.jpg,AMNE12.jpg,AMSA20.jpg,AMNE06.jpg,MN,1,num_8,32,num_4,0.933511728421,,,2017_Jul_07_1809,60.0083147148,MAFE4ImagesEEG,001,200788,
AFNE01.JPG,AFNE01.JPG,AFNE01.JPG,AFNE01.JPG,AFNE01.JPG,AFNE01.JPG,,,,,,,,,,,,,,,,,3,4,34,5,,,,,,,AMSA09.jpg,AMSA15.jpg,AMNE05.jpg,AMNE17.jpg,AMNE17.jpg,MN,1,num_4,32,num_8,1.2833820536,,,2017_Jul_07_1809,60.0083147148,MAFE4ImagesEEG,001,200788,
AFNE01.JPG,AFNE01.JPG,AFNE01.JPG,AFNE01.JPG,AFNE01.JPG,AFNE01.JPG,,,,,,,,,,,,,,,,,3,5,35,3,,,,,,,AMNE19.jpg,AMNE11.jpg,AMSA13.jpg,AMSA15.jpg,AMSA15.jpg,MS,2,num_4,32,num_2,1.13343038899,,,2017_Jul_07_1809,60.0083147148,MAFE4ImagesEEG,001,200788,
AFNE01.JPG,AFNE01.JPG,AFNE01.JPG,AFNE01.JPG,AFNE01.JPG,AFNE01.JPG,,,,,,,,,,,,,,,,,3,6,36,9,,,,,,,AMNE02.jpg,AMSA17.jpg,AMNE12.jpg,AMSA01.jpg,AMNE12.jpg,MN,1,num_2,32,num_6,0.80008454679,,,2017_Jul_07_1809,60.0083147148,MAFE4ImagesEEG,001,200788,
AFNE01.JPG,AFNE01.JPG,AFNE01.JPG,AFNE01.JPG,AFNE01.JPG,AFNE01.JPG,,,,,,,,,,,,,,,,,3,7,37,2,,,,,,,AMNE04.jpg,AMSA04.jpg,AMSA13.jpg,AMNE15.jpg,AMSA13.jpg,MS,2,num_2,32,num_4,1.51672847301,,,2017_Jul_07_1809,60.0083147148,MAFE4ImagesEEG,001,200788,
AFNE01.JPG,AFNE01.JPG,AFNE01.JPG,AFNE01.JPG,AFNE01.JPG,AFNE01.JPG,,,,,,,,,,,,,,,,,3,8,38,1,,,,,,,AMNE10.jpg,AMSA04.jpg,AMSA15.jpg,AMNE05.jpg,AMNE05.jpg,MN,1,num_4,32,num_6,0.583539087558,,,2017_Jul_07_1809,60.0083147148,MAFE4ImagesEEG,001,200788,
AFNE01.JPG,AFNE01.JPG,AFNE01.JPG,AFNE01.JPG,AFNE01.JPG,AFNE01.JPG,,,,,,,,,,,,,,,,,3,9,39,4,,,,,,,AMSA20.jpg,AMNE13.jpg,AMSA09.jpg,AMNE11.jpg,AMSA09.jpg,MS,2,num_2,16,num_2,1.08342169703,,,2017_Jul_07_1809,60.0083147148,MAFE4ImagesEEG,001,200788,
AFNE01.JPG,AFNE01.JPG,AFNE01.JPG,AFNE01.JPG,AFNE01.JPG,AFNE01.JPG,,,,,,,,,,,,,,,,,4,0,40,4,,,,,,,AMNE14.jpg,AMSA06.jpg,AMSA11.jpg,AMNE01.jpg,AMSA11.jpg,MS,2,num_2,32,num_8,1.41670595726,,,2017_Jul_07_1809,60.0083147148,MAFE4ImagesEEG,001,200788,
AFNE01.JPG,AFNE01.JPG,AFNE01.JPG,AFNE01.JPG,AFNE01.JPG,AFNE01.JPG,,,,,,,,,,,,,,,,,4,1,41,3,,,,,,,AMNE12.jpg,AMNE13.jpg,AMSA04.jpg,AMSA18.jpg,AMSA18.jpg,MS,2,num_4,16,num_4,0.716935157427,,,2017_Jul_07_1809,60.0083147148,MAFE4ImagesEEG,001,200788,
AFNE01.JPG,AFNE01.JPG,AFNE01.JPG,AFNE01.JPG,AFNE01.JPG,AFNE01.JPG,,,,,,,,,,,,,,,,,4,2,42,8,,,,,,,AMNE07.jpg,AMNE04.jpg,AMSA16.jpg,AMSA05.jpg,AMNE07.jpg,MN,1,num_8,16,num_8,1.16674492706,,,2017_Jul_07_1809,60.0083147148,MAFE4ImagesEEG,001,200788,
AFNE01.JPG,AFNE01.JPG,AFNE01.JPG,AFNE01.JPG,AFNE01.JPG,AFNE01.JPG,,,,,,,,,,,,,,,,,4,3,43,2,,,,,,,AMSA03.jpg,AMNE06.jpg,AMSA17.jpg,AMNE20.jpg,AMNE20.jpg,MN,1,num_4,16,num_4,1.10007640009,,,2017_Jul_07_1809,60.0083147148,MAFE4ImagesEEG,001,200788,
AFNE01.JPG,AFNE01.JPG,AFNE01.JPG,AFNE01.JPG,AFNE01.JPG,AFNE01.JPG,,,,,,,,,,,,,,,,,4,4,44,1,,,,,,,AMSA03.jpg,AMNE16.jpg,AMNE08.jpg,AMSA08.jpg,AMSA08.jpg,MS,2,num_4,16,num_4,0.800094810431,,,2017_Jul_07_1809,60.0083147148,MAFE4ImagesEEG,001,200788,
AFNE01.JPG,AFNE01.JPG,AFNE01.JPG,AFNE01.JPG,AFNE01.JPG,AFNE01.JPG,,,,,,,,,,,,,,,,,4,5,45,7,,,,,,,AMSA12.jpg,AMSA15.jpg,AMNE16.jpg,AMNE01.jpg,AMSA12.jpg,MS,2,num_8,32,num_2,0.91672937118,,,2017_Jul_07_1809,60.0083147148,MAFE4ImagesEEG,001,200788,
AFNE01.JPG,AFNE01.JPG,AFNE01.JPG,AFNE01.JPG,AFNE01.JPG,AFNE01.JPG,,,,,,,,,,,,,,,,,4,6,46,9,,,,,,,AMNE18.jpg,AMSA18.jpg,AMSA15.jpg,AMNE02.jpg,AMNE02.jpg,MN,1,num_4,32,num_6,0.68351766211,,,2017_Jul_07_1809,60.0083147148,MAFE4ImagesEEG,001,200788,
AFNE01.JPG,AFNE01.JPG,AFNE01.JPG,AFNE01.JPG,AFNE01.JPG,AFNE01.JPG,,,,,,,,,,,,,,,,,4,7,47,0,,,,,,,AMNE03.jpg,AMNE16.jpg,AMSA06.jpg,AMSA13.jpg,AMSA13.jpg,MS,2,num_4,16,num_4,0.733482733602,,,2017_Jul_07_1809,60.0083147148,MAFE4ImagesEEG,001,200788,
AFNE01.JPG,AFNE01.JPG,AFNE01.JPG,AFNE01.JPG,AFNE01.JPG,AFNE01.JPG,,,,,,,,,,,,,,,,,4,8,48,6,,,,,,,AMNE08.jpg,AMNE13.jpg,AMSA01.jpg,AMSA16.jpg,AMSA01.jpg,MS,2,num_2,16,num_2,1.18344260915,,,2017_Jul_07_1809,60.0083147148,MAFE4ImagesEEG,001,200788,
AFNE01.JPG,AFNE01.JPG,AFNE01.JPG,AFNE01.JPG,AFNE01.JPG,AFNE01.JPG,,,,,,,,,,,,,,,,,4,9,49,5,,,,,,,AMSA13.jpg,AMSA18.jpg,AMNE06.jpg,AMNE03.jpg,AMSA18.jpg,MS,2,num_6,32,num_4,1.31673251442,,,2017_Jul_07_1809,60.0083147148,MAFE4ImagesEEG,001,200788,
AFNE01.JPG,AFNE01.JPG,AFNE01.JPG,AFNE01.JPG,AFNE01.JPG,AFNE01.JPG,,,,,,,,,,,,,,,,,5,0,50,2,,,,,,,AMSA01.jpg,AMSA03.jpg,AMNE15.jpg,AMNE07.jpg,AMNE15.jpg,MN,1,num_2,16,num_2,3.01631953067,,,2017_Jul_07_1809,60.0083147148,MAFE4ImagesEEG,001,200788,
AFNE01.JPG,AFNE01.JPG,AFNE01.JPG,AFNE01.JPG,AFNE01.JPG,AFNE01.JPG,,,,,,,,,,,,,,,,,5,1,51,3,,,,,,,AMSA19.jpg,AMSA05.jpg,AMNE07.jpg,AMNE16.jpg,AMNE16.jpg,MN,1,num_4,16,num_4,0.600114888744,,,2017_Jul_07_1809,60.0083147148,MAFE4ImagesEEG,001,200788,
AFNE01.JPG,AFNE01.JPG,AFNE01.JPG,AFNE01.JPG,AFNE01.JPG,AFNE01.JPG,,,,,,,,,,,,,,,,,5,2,52,4,,,,,,,AMSA05.jpg,AMNE19.jpg,AMNE14.jpg,AMSA19.jpg,AMSA19.jpg,MS,2,num_4,32,num_8,1.01670024812,,,2017_Jul_07_1809,60.0083147148,MAFE4ImagesEEG,001,200788,
AFNE01.JPG,AFNE01.JPG,AFNE01.JPG,AFNE01.JPG,AFNE01.JPG,AFNE01.JPG,,,,,,,,,,,,,,,,,5,3,53,8,,,,,,,AMSA06.jpg,AMNE07.jpg,AMNE02.jpg,AMSA07.jpg,AMSA07.jpg,MS,2,num_4,32,num_6,0.533471058705,,,2017_Jul_07_1809,60.0083147148,MAFE4ImagesEEG,001,200788,
AFNE01.JPG,AFNE01.JPG,AFNE01.JPG,AFNE01.JPG,AFNE01.JPG,AFNE01.JPG,,,,,,,,,,,,,,,,,5,4,54,0,,,,,,,AMNE07.jpg,AMNE14.jpg,AMSA05.jpg,AMSA02.jpg,AMNE14.jpg,MN,1,num_6,32,num_4,1.43342544965,,,2017_Jul_07_1809,60.0083147148,MAFE4ImagesEEG,001,200788,
AFNE01.JPG,AFNE01.JPG,AFNE01.JPG,AFNE01.JPG,AFNE01.JPG,AFNE01.JPG,,,,,,,,,,,,,,,,,5,5,55,5,,,,,,,AMSA04.jpg,AMNE16.jpg,AMNE12.jpg,AMSA10.jpg,AMSA10.jpg,MS,2,num_4,32,num_8,1.03345854988,,,2017_Jul_07_1809,60.0083147148,MAFE4ImagesEEG,001,200788,
AFNE01.JPG,AFNE01.JPG,AFNE01.JPG,AFNE01.JPG,AFNE01.JPG,AFNE01.JPG,,,,,,,,,,,,,,,,,5,6,56,1,,,,,,,AMSA07.jpg,AMNE03.jpg,AMSA19.jpg,AMNE02.jpg,AMNE02.jpg,MN,1,num_4,16,num_4,1.25015860552,,,2017_Jul_07_1809,60.0083147148,MAFE4ImagesEEG,001,200788,
AFNE01.JPG,AFNE01.JPG,AFNE01.JPG,AFNE01.JPG,AFNE01.JPG,AFNE01.JPG,,,,,,,,,,,,,,,,,5,7,57,6,,,,,,,AMNE18.jpg,AMNE06.jpg,AMSA14.jpg,AMSA05.jpg,AMNE18.jpg,MN,1,num_8,32,num_2,1.83337246347,,,2017_Jul_07_1809,60.0083147148,MAFE4ImagesEEG,001,200788,
AFNE01.JPG,AFNE01.JPG,AFNE01.JPG,AFNE01.JPG,AFNE01.JPG,AFNE01.JPG,,,,,,,,,,,,,,,,,5,8,58,9,,,,,,,AMNE11.jpg,AMSA15.jpg,AMSA07.jpg,AMNE13.jpg,AMSA07.jpg,MS,2,num_2,32,num_8,1.06673973112,,,2017_Jul_07_1809,60.0083147148,MAFE4ImagesEEG,001,200788,
AFNE01.JPG,AFNE01.JPG,AFNE01.JPG,AFNE01.JPG,AFNE01.JPG,AFNE01.JPG,,,,,,,,,,,,,,,,,5,9,59,7,,,,,,,AMSA05.jpg,AMSA09.jpg,AMNE05.jpg,AMNE04.jpg,AMNE05.jpg,MN,1,num_2,32,num_6,0.500467317062,,,2017_Jul_07_1809,60.0083147148,MAFE4ImagesEEG,001,200788,
,,,,,,,,,,,,,,,,,,,,,,,,,,,,,,,,,,,,,,,,,,,space,5.99971935316,2017_Jul_07_1809,60.0083147148,MAFE4ImagesEEG,001,200788,
AFNE01.JPG,AFNE01.JPG,AFNE01.JPG,AFNE01.JPG,AFNE01.JPG,AFNE01.JPG,,,,,,,,,,,,,,,,,,,,,0,0,0,7,,,AFSA17.jpg,AFSA07.jpg,AFNE10.jpg,AFNE01.jpg,AFSA17.jpg,FS,4,num_8,32,num_4,1.15011235501,,,2017_Jul_07_1809,60.0083147148,MAFE4ImagesEEG,001,200788,
AFNE01.JPG,AFNE01.JPG,AFNE01.JPG,AFNE01.JPG,AFNE01.JPG,AFNE01.JPG,,,,,,,,,,,,,,,,,,,,,0,1,1,5,,,AFSA07.jpg,AFNE18.jpg,AFSA05.jpg,AFNE14.jpg,AFNE18.jpg,FN,3,num_6,32,num_4,1.00013118226,,,2017_Jul_07_1809,60.0083147148,MAFE4ImagesEEG,001,200788,
AFNE01.JPG,AFNE01.JPG,AFNE01.JPG,AFNE01.JPG,AFNE01.JPG,AFNE01.JPG,,,,,,,,,,,,,,,,,,,,,0,2,2,1,,,AFNE15.jpg,AFSA01.jpg,AFSA12.jpg,AFNE20.jpg,AFNE20.jpg,FN,3,num_4,32,num_8,1.45010196301,,,2017_Jul_07_1809,60.0083147148,MAFE4ImagesEEG,001,200788,
AFNE01.JPG,AFNE01.JPG,AFNE01.JPG,AFNE01.JPG,AFNE01.JPG,AFNE01.JPG,,,,,,,,,,,,,,,,,,,,,0,3,3,2,,,AFSA13.jpg,AFNE05.jpg,AFSA07.jpg,AFNE20.jpg,AFNE20.jpg,FN,3,num_4,32,num_6,1.11677215784,,,2017_Jul_07_1809,60.0083147148,MAFE4ImagesEEG,001,200788,
AFNE01.JPG,AFNE01.JPG,AFNE01.JPG,AFNE01.JPG,AFNE01.JPG,AFNE01.JPG,,,,,,,,,,,,,,,,,,,,,0,4,4,8,,,AFSA20.jpg,AFNE04.jpg,AFSA08.jpg,AFNE05.jpg,AFNE05.jpg,FN,3,num_4,32,num_2,1.7334192273,,,2017_Jul_07_1809,60.0083147148,MAFE4ImagesEEG,001,200788,
AFNE01.JPG,AFNE01.JPG,AFNE01.JPG,AFNE01.JPG,AFNE01.JPG,AFNE01.JPG,,,,,,,,,,,,,,,,,,,,,0,5,5,4,,,AFSA04.jpg,AFSA07.jpg,AFNE20.jpg,AFNE05.jpg,AFNE20.jpg,FN,3,num_2,32,num_4,0.550014465349,,,2017_Jul_07_1809,60.0083147148,MAFE4ImagesEEG,001,200788,
AFNE01.JPG,AFNE01.JPG,AFNE01.JPG,AFNE01.JPG,AFNE01.JPG,AFNE01.JPG,,,,,,,,,,,,,,,,,,,,,0,6,6,0,,,AFNE09.jpg,AFNE12.jpg,AFSA17.jpg,AFSA10.jpg,AFNE09.jpg,FN,3,num_8,32,num_6,1.31675400399,,,2017_Jul_07_1809,60.0083147148,MAFE4ImagesEEG,001,200788,
AFNE01.JPG,AFNE01.JPG,AFNE01.JPG,AFNE01.JPG,AFNE01.JPG,AFNE01.JPG,,,,,,,,,,,,,,,,,,,,,0,7,7,6,,,AFSA11.jpg,AFNE19.jpg,AFSA14.jpg,AFNE04.jpg,AFSA11.jpg,FS,4,num_8,16,num_8,1.40004387707,,,2017_Jul_07_1809,60.0083147148,MAFE4ImagesEEG,001,200788,
AFNE01.JPG,AFNE01.JPG,AFNE01.JPG,AFNE01.JPG,AFNE01.JPG,AFNE01.JPG,,,,,,,,,,,,,,,,,,,,,0,8,8,3,,,AFNE01.jpg,AFSA08.jpg,AFSA06.jpg,AFNE05.jpg,AFSA08.jpg,FS,4,num_6,32,num_2,1.11667753977,,,2017_Jul_07_1809,60.0083147148,MAFE4ImagesEEG,001,200788,
AFNE01.JPG,AFNE01.JPG,AFNE01.JPG,AFNE01.JPG,AFNE01.JPG,AFNE01.JPG,,,,,,,,,,,,,,,,,,,,,0,9,9,9,,,AFSA16.jpg,AFNE04.jpg,AFNE09.jpg,AFSA05.jpg,AFSA05.jpg,FS,4,num_4,32,num_8,2.0333818933,,,2017_Jul_07_1809,60.0083147148,MAFE4ImagesEEG,001,200788,
AFNE01.JPG,AFNE01.JPG,AFNE01.JPG,AFNE01.JPG,AFNE01.JPG,AFNE01.JPG,,,,,,,,,,,,,,,,,,,,,1,0,10,2,,,AFNE13.jpg,AFNE04.jpg,AFSA01.jpg,AFSA12.jpg,AFNE13.jpg,FN,3,num_8,32,num_6,0.983577512088,,,2017_Jul_07_1809,60.0083147148,MAFE4ImagesEEG,001,200788,
AFNE01.JPG,AFNE01.JPG,AFNE01.JPG,AFNE01.JPG,AFNE01.JPG,AFNE01.JPG,,,,,,,,,,,,,,,,,,,,,1,1,11,7,,,AFNE15.jpg,AFSA11.jpg,AFNE14.jpg,AFSA16.jpg,AFNE14.jpg,FN,3,num_2,16,num_2,1.38322527625,,,2017_Jul_07_1809,60.0083147148,MAFE4ImagesEEG,001,200788,
AFNE01.JPG,AFNE01.JPG,AFNE01.JPG,AFNE01.JPG,AFNE01.JPG,AFNE01.JPG,,,,,,,,,,,,,,,,,,,,,1,2,12,6,,,AFSA16.jpg,AFSA02.jpg,AFNE19.jpg,AFNE10.jpg,AFSA16.jpg,FS,4,num_8,32,num_4,0.900100968662,,,2017_Jul_07_1809,60.0083147148,MAFE4ImagesEEG,001,200788,
AFNE01.JPG,AFNE01.JPG,AFNE01.JPG,AFNE01.JPG,AFNE01.JPG,AFNE01.JPG,,,,,,,,,,,,,,,,,,,,,1,3,13,4,,,AFSA11.jpg,AFNE17.jpg,AFNE08.jpg,AFSA20.jpg,AFNE17.jpg,FN,3,num_6,16,num_6,0.766758141457,,,2017_Jul_07_1809,60.0083147148,MAFE4ImagesEEG,001,200788,
AFNE01.JPG,AFNE01.JPG,AFNE01.JPG,AFNE01.JPG,AFNE01.JPG,AFNE01.JPG,,,,,,,,,,,,,,,,,,,,,1,4,14,5,,,AFSA13.jpg,AFSA15.jpg,AFNE14.jpg,AFNE12.jpg,AFNE12.jpg,FN,3,num_4,32,num_8,0.500156520749,,,2017_Jul_07_1809,60.0083147148,MAFE4ImagesEEG,001,200788,
AFNE01.JPG,AFNE01.JPG,AFNE01.JPG,AFNE01.JPG,AFNE01.JPG,AFNE01.JPG,,,,,,,,,,,,,,,,,,,,,1,5,15,9,,,AFSA09.jpg,AFSA02.jpg,AFNE17.jpg,AFNE04.jpg,AFNE17.jpg,FN,3,num_2,32,num_4,1.10010622873,,,2017_Jul_07_1809,60.0083147148,MAFE4ImagesEEG,001,200788,
AFNE01.JPG,AFNE01.JPG,AFNE01.JPG,AFNE01.JPG,AFNE01.JPG,AFNE01.JPG,,,,,,,,,,,,,,,,,,,,,1,6,16,1,,,AFNE19.jpg,AFSA10.jpg,AFSA08.jpg,AFNE16.jpg,AFNE19.jpg,FN,3,num_8,32,num_6,0.43358613993,,,2017_Jul_07_1809,60.0083147148,MAFE4ImagesEEG,001,200788,
AFNE01.JPG,AFNE01.JPG,AFNE01.JPG,AFNE01.JPG,AFNE01.JPG,AFNE01.JPG,,,,,,,,,,,,,,,,,,,,,1,7,17,3,,,AFSA09.jpg,AFSA05.jpg,AFNE19.jpg,AFNE10.jpg,AFNE10.jpg,FN,3,num_4,32,num_2,0.483467177837,,,2017_Jul_07_1809,60.0083147148,MAFE4ImagesEEG,001,200788,
AFNE01.JPG,AFNE01.JPG,AFNE01.JPG,AFNE01.JPG,AFNE01.JPG,AFNE01.JPG,,,,,,,,,,,,,,,,,,,,,1,8,18,0,,,AFSA05.jpg,AFNE09.jpg,AFSA13.jpg,AFNE19.jpg,AFSA13.jpg,FS,4,num_2,32,num_8,0.666786302347,,,2017_Jul_07_1809,60.0083147148,MAFE4ImagesEEG,001,200788,
AFNE01.JPG,AFNE01.JPG,AFNE01.JPG,AFNE01.JPG,AFNE01.JPG,AFNE01.JPG,,,,,,,,,,,,,,,,,,,,,1,9,19,8,,,AFNE03.jpg,AFSA18.jpg,AFNE08.jpg,AFSA19.jpg,AFSA18.jpg,FS,4,num_6,16,num_6,1.03343641886,,,2017_Jul_07_1809,60.0083147148,MAFE4ImagesEEG,001,200788,
AFNE01.JPG,AFNE01.JPG,AFNE01.JPG,AFNE01.JPG,AFNE01.JPG,AFNE01.JPG,,,,,,,,,,,,,,,,,,,,,2,0,20,3,,,AFSA18.jpg,AFNE17.jpg,AFSA15.jpg,AFNE06.jpg,AFNE06.jpg,FN,3,num_4,32,num_8,1.16674845514,,,2017_Jul_07_1809,60.0083147148,MAFE4ImagesEEG,001,200788,
AFNE01.JPG,AFNE01.JPG,AFNE01.JPG,AFNE01.JPG,AFNE01.JPG,AFNE01.JPG,,,,,,,,,,,,,,,,,,,,,2,1,21,2,,,AFSA14.jpg,AFNE08.jpg,AFSA09.jpg,AFNE04.jpg,AFSA14.jpg,FS,4,num_8,32,num_2,0.966742553515,,,2017_Jul_07_1809,60.0083147148,MAFE4ImagesEEG,001,200788,
AFNE01.JPG,AFNE01.JPG,AFNE01.JPG,AFNE01.JPG,AFNE01.JPG,AFNE01.JPG,,,,,,,,,,,,,,,,,,,,,2,2,22,4,,,AFSA04.jpg,AFNE01.jpg,AFSA05.jpg,AFNE12.jpg,AFSA04.jpg,FS,4,num_8,16,num_8,1.41674220073,,,2017_Jul_07_1809,60.0083147148,MAFE4ImagesEEG,001,200788,
AFNE01.JPG,AFNE01.JPG,AFNE01.JPG,AFNE01.JPG,AFNE01.JPG,AFNE01.JPG,,,,,,,,,,,,,,,,,,,,,2,3,23,6,,,AFNE11.jpg,AFSA20.jpg,AFNE09.jpg,AFSA03.jpg,AFSA03.jpg,FS,4,num_4,16,num_4,1.0667554473,,,2017_Jul_07_1809,60.0083147148,MAFE4ImagesEEG,001,200788,
AFNE01.JPG,AFNE01.JPG,AFNE01.JPG,AFNE01.JPG,AFNE01.JPG,AFNE01.JPG,,,,,,,,,,,,,,,,,,,,,2,4,24,5,,,AFNE15.jpg,AFSA17.jpg,AFSA02.jpg,AFNE16.jpg,AFSA17.jpg,FS,4,num_6,16,num_6,1.50039803737,,,2017_Jul_07_1809,60.0083147148,MAFE4ImagesEEG,001,200788,
AFNE01.JPG,AFNE01.JPG,AFNE01.JPG,AFNE01.JPG,AFNE01.JPG,AFNE01.JPG,,,,,,,,,,,,,,,,,,,,,2,5,25,0,,,AFSA20.jpg,AFNE06.jpg,AFNE04.jpg,AFSA05.jpg,AFSA05.jpg,FS,4,num_4,16,num_4,1.60005074088,,,2017_Jul_07_1809,60.0083147148,MAFE4ImagesEEG,001,200788,
AFNE01.JPG,AFNE01.JPG,AFNE01.JPG,AFNE01.JPG,AFNE01.JPG,AFNE01.JPG,,,,,,,,,,,,,,,,,,,,,2,6,26,7,,,AFSA01.jpg,AFNE13.jpg,AFSA17.jpg,AFNE09.jpg,AFSA01.jpg,FS,4,num_8,16,num_8,1.38339847547,,,2017_Jul_07_1809,60.0083147148,MAFE4ImagesEEG,001,200788,
AFNE01.JPG,AFNE01.JPG,AFNE01.JPG,AFNE01.JPG,AFNE01.JPG,AFNE01.JPG,,,,,,,,,,,,,,,,,,,,,2,7,27,1,,,AFSA03.jpg,AFNE16.jpg,AFSA05.jpg,AFNE17.jpg,AFSA03.jpg,FS,4,num_8,16,num_8,2.05003884144,,,2017_Jul_07_1809,60.0083147148,MAFE4ImagesEEG,001,200788,
AFNE01.JPG,AFNE01.JPG,AFNE01.JPG,AFNE01.JPG,AFNE01.JPG,AFNE01.JPG,,,,,,,,,,,,,,,,,,,,,2,8,28,8,,,AFNE19.jpg,AFSA20.jpg,AFSA10.jpg,AFNE17.jpg,AFNE19.jpg,FN,3,num_8,16,num_8,1.03343930549,,,2017_Jul_07_1809,60.0083147148,MAFE4ImagesEEG,001,200788,
AFNE01.JPG,AFNE01.JPG,AFNE01.JPG,AFNE01.JPG,AFNE01.JPG,AFNE01.JPG,,,,,,,,,,,,,,,,,,,,,2,9,29,9,,,AFNE10.jpg,AFNE02.jpg,AFSA15.jpg,AFSA03.jpg,AFNE02.jpg,FN,3,num_6,32,num_2,0.983433820889,,,2017_Jul_07_1809,60.0083147148,MAFE4ImagesEEG,001,200788,
AFNE01.JPG,AFNE01.JPG,AFNE01.JPG,AFNE01.JPG,AFNE01.JPG,AFNE01.JPG,,,,,,,,,,,,,,,,,,,,,3,0,30,2,,,AFNE20.jpg,AFNE19.jpg,AFSA10.jpg,AFSA15.jpg,AFSA15.jpg,FS,4,num_4,32,num_2,2.03345470107,,,2017_Jul_07_1809,60.0083147148,MAFE4ImagesEEG,001,200788,
AFNE01.JPG,AFNE01.JPG,AFNE01.JPG,AFNE01.JPG,AFNE01.JPG,AFNE01.JPG,,,,,,,,,,,,,,,,,,,,,3,1,31,7,,,AFNE01.jpg,AFNE09.jpg,AFSA13.jpg,AFSA03.jpg,AFSA13.jpg,FS,4,num_2,32,num_8,0.78344010748,,,2017_Jul_07_1809,60.0083147148,MAFE4ImagesEEG,001,200788,
AFNE01.JPG,AFNE01.JPG,AFNE01.JPG,AFNE01.JPG,AFNE01.JPG,AFNE01.JPG,,,,,,,,,,,,,,,,,,,,,3,2,32,4,,,AFSA17.jpg,AFNE09.jpg,AFSA05.jpg,AFNE11.jpg,AFSA17.jpg,FS,4,num_8,32,num_6,0.316830019234,,,2017_Jul_07_1809,60.0083147148,MAFE4ImagesEEG,001,200788,
AFNE01.JPG,AFNE01.JPG,AFNE01.JPG,AFNE01.JPG,AFNE01.JPG,AFNE01.JPG,,,,,,,,,,,,,,,,,,,,,3,3,33,0,,,AFNE06.jpg,AFSA05.jpg,AFSA18.jpg,AFNE03.jpg,AFSA18.jpg,FS,4,num_2,32,num_8,0.700117198168,,,2017_Jul_07_1809,60.0083147148,MAFE4ImagesEEG,001,200788,
AFNE01.JPG,AFNE01.JPG,AFNE01.JPG,AFNE01.JPG,AFNE01.JPG,AFNE01.JPG,,,,,,,,,,,,,,,,,,,,,3,4,34,1,,,AFNE19.jpg,AFNE04.jpg,AFSA09.jpg,AFSA05.jpg,AFNE19.jpg,FN,3,num_8,32,num_2,0.900145551539,,,2017_Jul_07_1809,60.0083147148,MAFE4ImagesEEG,001,200788,
AFNE01.JPG,AFNE01.JPG,AFNE01.JPG,AFNE01.JPG,AFNE01.JPG,AFNE01.JPG,,,,,,,,,,,,,,,,,,,,,3,5,35,9,,,AFNE16.jpg,AFSA04.jpg,AFNE08.jpg,AFSA05.jpg,AFNE16.jpg,FN,3,num_8,32,num_4,0.450280935504,,,2017_Jul_07_1809,60.0083147148,MAFE4ImagesEEG,001,200788,
AFNE01.JPG,AFNE01.JPG,AFNE01.JPG,AFNE01.JPG,AFNE01.JPG,AFNE01.JPG,,,,,,,,,,,,,,,,,,,,,3,6,36,3,,,AFNE20.jpg,AFSA02.jpg,AFNE15.jpg,AFSA16.jpg,AFNE15.jpg,FN,3,num_2,16,num_2,2.2000787094,,,2017_Jul_07_1809,60.0083147148,MAFE4ImagesEEG,001,200788,
AFNE01.JPG,AFNE01.JPG,AFNE01.JPG,AFNE01.JPG,AFNE01.JPG,AFNE01.JPG,,,,,,,,,,,,,,,,,,,,,3,7,37,8,,,AFSA08.jpg,AFNE12.jpg,AFSA18.jpg,AFNE14.jpg,AFSA18.jpg,FS,4,num_2,32,num_8,2.36660521303,,,2017_Jul_07_1809,60.0083147148,MAFE4ImagesEEG,001,200788,
AFNE01.JPG,AFNE01.JPG,AFNE01.JPG,AFNE01.JPG,AFNE01.JPG,AFNE01.JPG,,,,,,,,,,,,,,,,,,,,,3,8,38,6,,,AFNE08.jpg,AFSA18.jpg,AFNE14.jpg,AFSA16.jpg,AFSA18.jpg,FS,4,num_6,32,num_4,1.46671978117,,,2017_Jul_07_1809,60.0083147148,MAFE4ImagesEEG,001,200788,
AFNE01.JPG,AFNE01.JPG,AFNE01.JPG,AFNE01.JPG,AFNE01.JPG,AFNE01.JPG,,,,,,,,,,,,,,,,,,,,,3,9,39,5,,,AFSA14.jpg,AFSA17.jpg,AFNE03.jpg,AFNE09.jpg,AFSA17.jpg,FS,4,num_6,16,num_6,1.26657596161,,,2017_Jul_07_1809,60.0083147148,MAFE4ImagesEEG,001,200788,
