IPosition2,IPosition3,IPosition1,IPosition6,IPosition4,IPosition5,TrialsM1.thisRepN,TrialsM1.thisTrialN,TrialsM1.thisN,TrialsM1.thisIndex,TrialsF1.thisRepN,TrialsF1.thisTrialN,TrialsF1.thisN,TrialsF1.thisIndex,TrialsM2.thisRepN,TrialsM2.thisTrialN,TrialsM2.thisN,TrialsM2.thisIndex,TrialsF2.thisRepN,TrialsF2.thisTrialN,TrialsF2.thisN,TrialsF2.thisIndex,TrialsM3.thisRepN,TrialsM3.thisTrialN,TrialsM3.thisN,TrialsM3.thisIndex,TrialsF3.thisRepN,TrialsF3.thisTrialN,TrialsF3.thisN,TrialsF3.thisIndex,InstrKey_resp.keys,InstrKey_resp.rt,Image0 _Position,Image1 _Position,Image2 _Position,Image3 _Position,Center_image,condition,code,correct_answer,accuracy,Key_Resp.keys,Key_Resp.rt,BreakKey_resp.keys,BreakKey_resp.rt,date,frameRate,expName,session,participant,
,,,,,,,,,,,,,,,,,,,,,,,,,,,,,,space,4.73319984158,,,,,,,,,,,,,,2017_Jul_05_1708,59.9984989784,MAFE4ImagesEEG,001,200826,
AMSA21.JPG,AMNE22.JPG,AMNE21.JPG,AMSA23.JPG,AMSA22.JPG,AMNE23.JPG,0,0,0,1,,,,,,,,,,,,,,,,,,,,,,,AMSA04.jpg,AMNE14.jpg,AMSA05.jpg,AMNE13.jpg,AMSA05.jpg,MS,2,num_2,16,num_2,1.06674999476,,,2017_Jul_05_1708,59.9984989784,MAFE4ImagesEEG,001,200826,
AMNE22.JPG,AMSA24.JPG,AMSA22.JPG,AMNE25.JPG,AMNE24.JPG,AMSA25.JPG,0,1,1,7,,,,,,,,,,,,,,,,,,,,,,,AMSA12.jpg,AMSA04.jpg,AMNE13.jpg,AMNE16.jpg,AMSA12.jpg,MS,2,num_8,16,num_8,1.16671798495,,,2017_Jul_05_1708,59.9984989784,MAFE4ImagesEEG,001,200826,
AMNE23.JPG,AMNE24.JPG,AMNE22.JPG,AMSA24.JPG,AMSA22.JPG,AMSA23.JPG,0,2,2,9,,,,,,,,,,,,,,,,,,,,,,,AMSA05.jpg,AMSA18.jpg,AMNE20.jpg,AMNE08.jpg,AMNE20.jpg,MN,1,num_2,16,num_2,0.933509162511,,,2017_Jul_05_1708,59.9984989784,MAFE4ImagesEEG,001,200826,
AFSA21.JPG,AFNE23.JPG,AFNE21.JPG,AFSA25.JPG,AFNE25.JPG,AFSA23.JPG,0,3,3,4,,,,,,,,,,,,,,,,,,,,,,,AMNE20.jpg,AMNE15.jpg,AMSA20.jpg,AMSA08.jpg,AMSA08.jpg,MS,2,num_4,32,num_6,0.800004041288,,,2017_Jul_05_1708,59.9984989784,MAFE4ImagesEEG,001,200826,
AMSA21.JPG,AMNE23.JPG,AMNE21.JPG,AMSA25.JPG,AMNE25.JPG,AMSA23.JPG,0,4,4,5,,,,,,,,,,,,,,,,,,,,,,,AMSA05.jpg,AMNE07.jpg,AMSA18.jpg,AMNE09.jpg,AMSA05.jpg,MS,2,num_8,32,num_2,0.91671301343,,,2017_Jul_05_1708,59.9984989784,MAFE4ImagesEEG,001,200826,
AFSA25.JPG,AFNE24.JPG,AFSA24.JPG,AFNE21.JPG,AFSA21.JPG,AFNE25.JPG,0,5,5,2,,,,,,,,,,,,,,,,,,,,,,,AMSA15.jpg,AMSA13.jpg,AMNE07.jpg,AMNE08.jpg,AMNE08.jpg,MN,1,num_4,32,num_6,0.983472951106,,,2017_Jul_05_1708,59.9984989784,MAFE4ImagesEEG,001,200826,
AFSA21.JPG,AFNE22.JPG,AFNE21.JPG,AFSA23.JPG,AFSA22.JPG,AFNE23.JPG,0,6,6,0,,,,,,,,,,,,,,,,,,,,,,,AMNE20.jpg,AMSA16.jpg,AMNE17.jpg,AMSA08.jpg,AMSA08.jpg,MS,2,num_4,32,num_6,0.733436226379,,,2017_Jul_05_1708,59.9984989784,MAFE4ImagesEEG,001,200826,
AFNE22.JPG,AFSA24.JPG,AFSA22.JPG,AFNE25.JPG,AFNE24.JPG,AFSA25.JPG,0,7,7,6,,,,,,,,,,,,,,,,,,,,,,,AMNE18.jpg,AMSA05.jpg,AMSA02.jpg,AMNE19.jpg,AMNE18.jpg,MN,1,num_8,32,num_6,0.533565997612,,,2017_Jul_05_1708,59.9984989784,MAFE4ImagesEEG,001,200826,
AFNE23.JPG,AFNE24.JPG,AFNE22.JPG,AFSA24.JPG,AFSA22.JPG,AFSA23.JPG,0,8,8,8,,,,,,,,,,,,,,,,,,,,,,,AMNE16.jpg,AMSA20.jpg,AMSA05.jpg,AMNE17.jpg,AMNE16.jpg,MN,1,num_8,32,num_4,0.800026172306,,,2017_Jul_05_1708,59.9984989784,MAFE4ImagesEEG,001,200826,
AMSA25.JPG,AMNE24.JPG,AMSA24.JPG,AMNE26.JPG,AMSA21.JPG,AMNE25.JPG,0,9,9,3,,,,,,,,,,,,,,,,,,,,,,,AMSA15.jpg,AMNE18.jpg,AMSA06.jpg,AMNE15.jpg,AMSA15.jpg,MS,2,num_8,32,num_6,2.0664436887,,,2017_Jul_05_1708,59.9984989784,MAFE4ImagesEEG,001,200826,
AFSA21.JPG,AFNE23.JPG,AFNE21.JPG,AFSA25.JPG,AFNE25.JPG,AFSA23.JPG,,,,,0,0,0,4,,,,,,,,,,,,,,,,,,,AFNE13.jpg,AFSA05.jpg,AFSA09.jpg,AFNE12.jpg,AFNE12.jpg,FN,3,num_4,16,num_4,0.766776102944,,,2017_Jul_05_1708,59.9984989784,MAFE4ImagesEEG,001,200826,
AMSA21.JPG,AMNE23.JPG,AMNE21.JPG,AMSA25.JPG,AMNE25.JPG,AMSA23.JPG,,,,,0,1,1,5,,,,,,,,,,,,,,,,,,,AFSA15.jpg,AFNE03.jpg,AFNE05.jpg,AFSA17.jpg,AFNE05.jpg,FN,3,num_2,32,num_8,0.699841362424,,,2017_Jul_05_1708,59.9984989784,MAFE4ImagesEEG,001,200826,
AMSA25.JPG,AMNE24.JPG,AMSA24.JPG,AMNE26.JPG,AMSA21.JPG,AMNE25.JPG,,,,,0,2,2,3,,,,,,,,,,,,,,,,,,,AFNE12.jpg,AFSA05.jpg,AFSA12.jpg,AFNE18.jpg,AFNE12.jpg,FN,3,num_8,32,num_2,0.666823187377,,,2017_Jul_05_1708,59.9984989784,MAFE4ImagesEEG,001,200826,
AMSA21.JPG,AMNE22.JPG,AMNE21.JPG,AMSA23.JPG,AMSA22.JPG,AMNE23.JPG,,,,,0,3,3,1,,,,,,,,,,,,,,,,,,,AFNE19.jpg,AFNE07.jpg,AFSA11.jpg,AFSA16.jpg,AFSA16.jpg,FS,4,num_4,16,num_4,0.733488186263,,,2017_Jul_05_1708,59.9984989784,MAFE4ImagesEEG,001,200826,
AFNE22.JPG,AFSA24.JPG,AFSA22.JPG,AFNE25.JPG,AFNE24.JPG,AFSA25.JPG,,,,,0,4,4,6,,,,,,,,,,,,,,,,,,,AFSA16.jpg,AFNE05.jpg,AFSA09.jpg,AFNE17.jpg,AFNE17.jpg,FN,3,num_4,16,num_4,0.550217493204,,,2017_Jul_05_1708,59.9984989784,MAFE4ImagesEEG,001,200826,
AFSA21.JPG,AFNE22.JPG,AFNE21.JPG,AFSA23.JPG,AFSA22.JPG,AFNE23.JPG,,,,,0,5,5,0,,,,,,,,,,,,,,,,,,,AFNE11.jpg,AFNE01.jpg,AFSA07.jpg,AFSA10.jpg,AFNE11.jpg,FN,3,num_8,32,num_2,0.633491650224,,,2017_Jul_05_1708,59.9984989784,MAFE4ImagesEEG,001,200826,
AMNE23.JPG,AMNE24.JPG,AMNE22.JPG,AMSA24.JPG,AMSA22.JPG,AMSA23.JPG,,,,,0,6,6,9,,,,,,,,,,,,,,,,,,,AFNE17.jpg,AFNE07.jpg,AFSA20.jpg,AFSA12.jpg,AFSA20.jpg,FS,4,num_2,32,num_4,0.666716060485,,,2017_Jul_05_1708,59.9984989784,MAFE4ImagesEEG,001,200826,
AMNE22.JPG,AMSA24.JPG,AMSA22.JPG,AMNE25.JPG,AMNE24.JPG,AMSA25.JPG,,,,,0,7,7,7,,,,,,,,,,,,,,,,,,,AFNE11.jpg,AFSA09.jpg,AFSA05.jpg,AFNE01.jpg,AFNE11.jpg,FN,3,num_8,32,num_6,0.633464708109,,,2017_Jul_05_1708,59.9984989784,MAFE4ImagesEEG,001,200826,
AFSA25.JPG,AFNE24.JPG,AFSA24.JPG,AFNE21.JPG,AFSA21.JPG,AFNE25.JPG,,,,,0,8,8,2,,,,,,,,,,,,,,,,,,,AFSA08.jpg,AFSA11.jpg,AFNE14.jpg,AFNE09.jpg,AFSA11.jpg,FS,4,num_6,32,num_2,0.700230098329,,,2017_Jul_05_1708,59.9984989784,MAFE4ImagesEEG,001,200826,
AFNE23.JPG,AFNE24.JPG,AFNE22.JPG,AFSA24.JPG,AFSA22.JPG,AFSA23.JPG,,,,,0,9,9,8,,,,,,,,,,,,,,,,,,,AFSA05.jpg,AFNE04.jpg,AFSA12.jpg,AFNE12.jpg,AFSA12.jpg,FS,4,num_2,16,num_2,0.700125216506,,,2017_Jul_05_1708,59.9984989784,MAFE4ImagesEEG,001,200826,
AMSA21.JPG,AMNE23.JPG,AMNE21.JPG,AMSA25.JPG,AMNE25.JPG,AMSA23.JPG,,,,,,,,,0,0,0,5,,,,,,,,,,,,,,,AMNE18.jpg,AMSA02.jpg,AMSA05.jpg,AMNE16.jpg,AMSA05.jpg,MS,2,num_2,16,num_2,0.400213868823,,,2017_Jul_05_1708,59.9984989784,MAFE4ImagesEEG,001,200826,
AMNE23.JPG,AMNE24.JPG,AMNE22.JPG,AMSA24.JPG,AMSA22.JPG,AMSA23.JPG,,,,,,,,,0,1,1,9,,,,,,,,,,,,,,,AMNE18.jpg,AMSA18.jpg,AMNE06.jpg,AMSA16.jpg,AMNE06.jpg,MN,1,num_2,32,num_4,0.85009933298,,,2017_Jul_05_1708,59.9984989784,MAFE4ImagesEEG,001,200826,
AFSA21.JPG,AFNE22.JPG,AFNE21.JPG,AFSA23.JPG,AFSA22.JPG,AFNE23.JPG,,,,,,,,,0,2,2,0,,,,,,,,,,,,,,,AMNE04.jpg,AMNE15.jpg,AMSA19.jpg,AMSA02.jpg,AMSA19.jpg,MS,2,num_2,16,num_2,0.533461115789,,,2017_Jul_05_1708,59.9984989784,MAFE4ImagesEEG,001,200826,
AMSA25.JPG,AMNE24.JPG,AMSA24.JPG,AMNE26.JPG,AMSA21.JPG,AMNE25.JPG,,,,,,,,,0,3,3,3,,,,,,,,,,,,,,,AMNE04.jpg,AMNE08.jpg,AMSA09.jpg,AMSA02.jpg,AMSA09.jpg,MS,2,num_2,16,num_2,1.00011065498,,,2017_Jul_05_1708,59.9984989784,MAFE4ImagesEEG,001,200826,
AMSA21.JPG,AMNE22.JPG,AMNE21.JPG,AMSA23.JPG,AMSA22.JPG,AMNE23.JPG,,,,,,,,,0,4,4,1,,,,,,,,,,,,,,,AMSA09.jpg,AMSA12.jpg,AMNE16.jpg,AMNE11.jpg,AMNE16.jpg,MN,1,num_2,32,num_6,0.883778872201,,,2017_Jul_05_1708,59.9984989784,MAFE4ImagesEEG,001,200826,
AFSA25.JPG,AFNE24.JPG,AFSA24.JPG,AFNE21.JPG,AFSA21.JPG,AFNE25.JPG,,,,,,,,,0,5,5,2,,,,,,,,,,,,,,,AMSA08.jpg,AMSA17.jpg,AMNE02.jpg,AMNE04.jpg,AMSA08.jpg,MS,2,num_8,32,num_4,0.80017275014,,,2017_Jul_05_1708,59.9984989784,MAFE4ImagesEEG,001,200826,
AFNE23.JPG,AFNE24.JPG,AFNE22.JPG,AFSA24.JPG,AFSA22.JPG,AFSA23.JPG,,,,,,,,,0,6,6,8,,,,,,,,,,,,,,,AMSA06.jpg,AMNE11.jpg,AMNE12.jpg,AMSA13.jpg,AMSA13.jpg,MS,2,num_4,32,num_2,1.08340566,,,2017_Jul_05_1708,59.9984989784,MAFE4ImagesEEG,001,200826,
AFNE22.JPG,AFSA24.JPG,AFSA22.JPG,AFNE25.JPG,AFNE24.JPG,AFSA25.JPG,,,,,,,,,0,7,7,6,,,,,,,,,,,,,,,AMSA11.jpg,AMSA13.jpg,AMNE03.jpg,AMNE10.jpg,AMSA11.jpg,MS,2,num_8,16,num_8,1.00011931499,,,2017_Jul_05_1708,59.9984989784,MAFE4ImagesEEG,001,200826,
AFSA21.JPG,AFNE23.JPG,AFNE21.JPG,AFSA25.JPG,AFNE25.JPG,AFSA23.JPG,,,,,,,,,0,8,8,4,,,,,,,,,,,,,,,AMSA06.jpg,AMNE10.jpg,AMNE08.jpg,AMSA13.jpg,AMSA13.jpg,MS,2,num_4,16,num_4,1.15011171345,,,2017_Jul_05_1708,59.9984989784,MAFE4ImagesEEG,001,200826,
AMNE22.JPG,AMSA24.JPG,AMSA22.JPG,AMNE25.JPG,AMNE24.JPG,AMSA25.JPG,,,,,,,,,0,9,9,7,,,,,,,,,,,,,,,AMSA06.jpg,AMNE17.jpg,AMNE19.jpg,AMSA07.jpg,AMSA06.jpg,MS,2,num_8,16,num_8,0.666770906886,,,2017_Jul_05_1708,59.9984989784,MAFE4ImagesEEG,001,200826,
AMSA21.JPG,AMNE23.JPG,AMNE21.JPG,AMSA25.JPG,AMNE25.JPG,AMSA23.JPG,,,,,,,,,,,,,0,0,0,5,,,,,,,,,,,AFSA13.jpg,AFNE15.jpg,AFNE05.jpg,AFSA16.jpg,AFSA13.jpg,FS,4,num_8,16,num_8,2.31672642031,,,2017_Jul_05_1708,59.9984989784,MAFE4ImagesEEG,001,200826,
AFSA25.JPG,AFNE24.JPG,AFSA24.JPG,AFNE21.JPG,AFSA21.JPG,AFNE25.JPG,,,,,,,,,,,,,0,1,1,2,,,,,,,,,,,AFSA02.jpg,AFNE03.jpg,AFSA10.jpg,AFNE16.jpg,AFSA10.jpg,FS,4,num_2,32,num_8,1.13342621934,,,2017_Jul_05_1708,59.9984989784,MAFE4ImagesEEG,001,200826,
AMSA21.JPG,AMNE22.JPG,AMNE21.JPG,AMSA23.JPG,AMSA22.JPG,AMNE23.JPG,,,,,,,,,,,,,0,2,2,1,,,,,,,,,,,AFNE13.jpg,AFSA08.jpg,AFSA13.jpg,AFNE08.jpg,AFNE08.jpg,FN,3,num_4,16,num_4,0.966794192558,,,2017_Jul_05_1708,59.9984989784,MAFE4ImagesEEG,001,200826,
AFSA21.JPG,AFNE23.JPG,AFNE21.JPG,AFSA25.JPG,AFNE25.JPG,AFSA23.JPG,,,,,,,,,,,,,0,3,3,4,,,,,,,,,,,AFSA14.jpg,AFNE03.jpg,AFNE08.jpg,AFSA18.jpg,AFNE03.jpg,FN,3,num_6,16,num_6,0.850114086992,,,2017_Jul_05_1708,59.9984989784,MAFE4ImagesEEG,001,200826,
AMNE23.JPG,AMNE24.JPG,AMNE22.JPG,AMSA24.JPG,AMSA22.JPG,AMSA23.JPG,,,,,,,,,,,,,0,4,4,9,,,,,,,,,,,AFSA11.jpg,AFNE06.jpg,AFSA13.jpg,AFNE20.jpg,AFSA13.jpg,FS,4,num_2,16,num_2,1.50039258483,,,2017_Jul_05_1708,59.9984989784,MAFE4ImagesEEG,001,200826,
AFNE22.JPG,AFSA24.JPG,AFSA22.JPG,AFNE25.JPG,AFNE24.JPG,AFSA25.JPG,,,,,,,,,,,,,0,5,5,6,,,,,,,,,,,AFSA19.jpg,AFSA09.jpg,AFNE18.jpg,AFNE01.jpg,AFNE18.jpg,FN,3,num_2,32,num_6,0.950142696849,,,2017_Jul_05_1708,59.9984989784,MAFE4ImagesEEG,001,200826,
AMNE22.JPG,AMSA24.JPG,AMSA22.JPG,AMNE25.JPG,AMNE24.JPG,AMSA25.JPG,,,,,,,,,,,,,0,6,6,7,,,,,,,,,,,AFNE01.jpg,AFSA17.jpg,AFNE10.jpg,AFSA14.jpg,AFSA17.jpg,FS,4,num_6,32,num_2,0.516795186792,,,2017_Jul_05_1708,59.9984989784,MAFE4ImagesEEG,001,200826,
AFNE23.JPG,AFNE24.JPG,AFNE22.JPG,AFSA24.JPG,AFSA22.JPG,AFSA23.JPG,,,,,,,,,,,,,0,7,7,8,,,,,,,,,,,AFNE12.jpg,AFSA15.jpg,AFNE02.jpg,AFSA09.jpg,AFSA09.jpg,FS,4,num_4,16,num_4,0.750096702832,,,2017_Jul_05_1708,59.9984989784,MAFE4ImagesEEG,001,200826,
AMSA25.JPG,AMNE24.JPG,AMSA24.JPG,AMNE26.JPG,AMSA21.JPG,AMNE25.JPG,,,,,,,,,,,,,0,8,8,3,,,,,,,,,,,AFSA16.jpg,AFNE09.jpg,AFNE01.jpg,AFSA05.jpg,AFNE09.jpg,FN,3,num_6,32,num_2,0.383504640195,,,2017_Jul_05_1708,59.9984989784,MAFE4ImagesEEG,001,200826,
AFSA21.JPG,AFNE22.JPG,AFNE21.JPG,AFSA23.JPG,AFSA22.JPG,AFNE23.JPG,,,,,,,,,,,,,0,9,9,0,,,,,,,,,,,AFSA20.jpg,AFNE05.jpg,AFNE09.jpg,AFSA04.jpg,AFNE09.jpg,FN,3,num_2,32,num_8,0.783456144272,,,2017_Jul_05_1708,59.9984989784,MAFE4ImagesEEG,001,200826,
AMSA21.JPG,AMNE22.JPG,AMNE21.JPG,AMSA23.JPG,AMSA22.JPG,AMNE23.JPG,,,,,,,,,,,,,,,,,0,0,0,1,,,,,,,AMSA10.jpg,AMSA11.jpg,AMNE02.jpg,AMNE11.jpg,AMNE02.jpg,MN,1,num_2,32,num_4,0.783455502824,,,2017_Jul_05_1708,59.9984989784,MAFE4ImagesEEG,001,200826,
AFNE22.JPG,AFSA24.JPG,AFSA22.JPG,AFNE25.JPG,AFNE24.JPG,AFSA25.JPG,,,,,,,,,,,,,,,,,0,1,1,6,,,,,,,AMNE16.jpg,AMSA02.jpg,AMSA06.jpg,AMNE15.jpg,AMNE16.jpg,MN,1,num_8,32,num_2,0.850125633529,,,2017_Jul_05_1708,59.9984989784,MAFE4ImagesEEG,001,200826,
AMNE22.JPG,AMSA24.JPG,AMSA22.JPG,AMNE25.JPG,AMNE24.JPG,AMSA25.JPG,,,,,,,,,,,,,,,,,0,2,2,7,,,,,,,AMSA16.jpg,AMNE06.jpg,AMNE19.jpg,AMSA07.jpg,AMNE06.jpg,MN,1,num_6,32,num_2,1.06675320212,,,2017_Jul_05_1708,59.9984989784,MAFE4ImagesEEG,001,200826,
AFNE23.JPG,AFNE24.JPG,AFNE22.JPG,AFSA24.JPG,AFSA22.JPG,AFSA23.JPG,,,,,,,,,,,,,,,,,0,3,3,8,,,,,,,AMNE07.jpg,AMSA06.jpg,AMNE19.jpg,AMSA15.jpg,AMSA15.jpg,MS,2,num_4,16,num_4,0.366472106311,,,2017_Jul_05_1708,59.9984989784,MAFE4ImagesEEG,001,200826,
AMSA21.JPG,AMNE23.JPG,AMNE21.JPG,AMSA25.JPG,AMNE25.JPG,AMSA23.JPG,,,,,,,,,,,,,,,,,0,4,4,5,,,,,,,AMNE03.jpg,AMSA10.jpg,AMSA07.jpg,AMNE14.jpg,AMNE03.jpg,MN,1,num_8,16,num_8,0.866778091411,,,2017_Jul_05_1708,59.9984989784,MAFE4ImagesEEG,001,200826,
AMNE23.JPG,AMNE24.JPG,AMNE22.JPG,AMSA24.JPG,AMSA22.JPG,AMSA23.JPG,,,,,,,,,,,,,,,,,0,5,5,9,,,,,,,AMNE09.jpg,AMNE05.jpg,AMSA09.jpg,AMSA08.jpg,AMSA08.jpg,MS,2,num_4,32,num_6,0.633461821475,,,2017_Jul_05_1708,59.9984989784,MAFE4ImagesEEG,001,200826,
AFSA21.JPG,AFNE23.JPG,AFNE21.JPG,AFSA25.JPG,AFNE25.JPG,AFSA23.JPG,,,,,,,,,,,,,,,,,0,6,6,4,,,,,,,AMNE11.jpg,AMSA17.jpg,AMSA11.jpg,AMNE03.jpg,AMSA11.jpg,MS,2,num_2,16,num_2,0.600130925654,,,2017_Jul_05_1708,59.9984989784,MAFE4ImagesEEG,001,200826,
AFSA25.JPG,AFNE24.JPG,AFSA24.JPG,AFNE21.JPG,AFSA21.JPG,AFNE25.JPG,,,,,,,,,,,,,,,,,0,7,7,2,,,,,,,AMSA03.jpg,AMNE03.jpg,AMNE13.jpg,AMSA10.jpg,AMNE03.jpg,MN,1,num_6,32,num_8,0.566808369244,,,2017_Jul_05_1708,59.9984989784,MAFE4ImagesEEG,001,200826,
AMSA25.JPG,AMNE24.JPG,AMSA24.JPG,AMNE26.JPG,AMSA21.JPG,AMNE25.JPG,,,,,,,,,,,,,,,,,0,8,8,3,,,,,,,AMNE17.jpg,AMSA01.jpg,AMSA05.jpg,AMNE01.jpg,AMSA05.jpg,MS,2,num_2,32,num_4,0.483482252457,,,2017_Jul_05_1708,59.9984989784,MAFE4ImagesEEG,001,200826,
AFSA21.JPG,AFNE22.JPG,AFNE21.JPG,AFSA23.JPG,AFSA22.JPG,AFNE23.JPG,,,,,,,,,,,,,,,,,0,9,9,0,,,,,,,AMNE13.jpg,AMNE07.jpg,AMSA08.jpg,AMSA02.jpg,AMNE13.jpg,MN,1,num_8,32,num_6,0.716775429319,,,2017_Jul_05_1708,59.9984989784,MAFE4ImagesEEG,001,200826,
AFNE23.JPG,AFNE24.JPG,AFNE22.JPG,AFSA24.JPG,AFSA22.JPG,AFSA23.JPG,,,,,,,,,,,,,,,,,,,,,0,0,0,8,,,AFNE07.jpg,AFSA15.jpg,AFNE18.jpg,AFSA20.jpg,AFNE07.jpg,FN,3,num_8,32,num_6,0.333514871658,,,2017_Jul_05_1708,59.9984989784,MAFE4ImagesEEG,001,200826,
AMNE23.JPG,AMNE24.JPG,AMNE22.JPG,AMSA24.JPG,AMSA22.JPG,AMSA23.JPG,,,,,,,,,,,,,,,,,,,,,0,1,1,9,,,AFSA05.jpg,AFNE16.jpg,AFSA12.jpg,AFNE02.jpg,AFNE16.jpg,FN,3,num_6,32,num_8,0.666762888432,,,2017_Jul_05_1708,59.9984989784,MAFE4ImagesEEG,001,200826,
AFSA21.JPG,AFNE22.JPG,AFNE21.JPG,AFSA23.JPG,AFSA22.JPG,AFNE23.JPG,,,,,,,,,,,,,,,,,,,,,0,2,2,0,,,AFNE01.jpg,AFSA10.jpg,AFSA15.jpg,AFNE05.jpg,AFNE05.jpg,FN,3,num_4,32,num_2,1.4667104797,,,2017_Jul_05_1708,59.9984989784,MAFE4ImagesEEG,001,200826,
AMNE22.JPG,AMSA24.JPG,AMSA22.JPG,AMNE25.JPG,AMNE24.JPG,AMSA25.JPG,,,,,,,,,,,,,,,,,,,,,0,3,3,7,,,AFNE02.jpg,AFNE04.jpg,AFSA19.jpg,AFSA07.jpg,AFNE04.jpg,FN,3,num_6,32,num_4,0.583470128593,,,2017_Jul_05_1708,59.9984989784,MAFE4ImagesEEG,001,200826,
AFNE22.JPG,AFSA24.JPG,AFSA22.JPG,AFNE25.JPG,AFNE24.JPG,AFSA25.JPG,,,,,,,,,,,,,,,,,,,,,0,4,4,6,,,AFSA17.jpg,AFNE08.jpg,AFNE16.jpg,AFSA14.jpg,AFNE08.jpg,FN,3,num_6,32,num_4,0.816754324595,,,2017_Jul_05_1708,59.9984989784,MAFE4ImagesEEG,001,200826,
AMSA21.JPG,AMNE23.JPG,AMNE21.JPG,AMSA25.JPG,AMNE25.JPG,AMSA23.JPG,,,,,,,,,,,,,,,,,,,,,0,5,5,5,,,AFSA16.jpg,AFSA01.jpg,AFNE15.jpg,AFNE01.jpg,AFNE01.jpg,FN,3,num_4,32,num_6,0.266871362459,,,2017_Jul_05_1708,59.9984989784,MAFE4ImagesEEG,001,200826,
AFSA21.JPG,AFNE23.JPG,AFNE21.JPG,AFSA25.JPG,AFNE25.JPG,AFSA23.JPG,,,,,,,,,,,,,,,,,,,,,0,6,6,4,,,AFNE08.jpg,AFSA13.jpg,AFNE10.jpg,AFSA17.jpg,AFNE08.jpg,FN,3,num_8,32,num_2,0.666756473598,,,2017_Jul_05_1708,59.9984989784,MAFE4ImagesEEG,001,200826,
AFSA25.JPG,AFNE24.JPG,AFSA24.JPG,AFNE21.JPG,AFSA21.JPG,AFNE25.JPG,,,,,,,,,,,,,,,,,,,,,0,7,7,2,,,AFNE15.jpg,AFNE18.jpg,AFSA13.jpg,AFSA03.jpg,AFNE18.jpg,FN,3,num_6,32,num_4,0.566800030065,,,2017_Jul_05_1708,59.9984989784,MAFE4ImagesEEG,001,200826,
AMSA21.JPG,AMNE22.JPG,AMNE21.JPG,AMSA23.JPG,AMSA22.JPG,AMNE23.JPG,,,,,,,,,,,,,,,,,,,,,0,8,8,1,,,AFSA18.jpg,AFNE17.jpg,AFNE09.jpg,AFSA14.jpg,AFNE17.jpg,FN,3,num_6,16,num_6,1.31679409638,,,2017_Jul_05_1708,59.9984989784,MAFE4ImagesEEG,001,200826,
AMSA25.JPG,AMNE24.JPG,AMSA24.JPG,AMNE26.JPG,AMSA21.JPG,AMNE25.JPG,,,,,,,,,,,,,,,,,,,,,0,9,9,3,,,AFNE01.jpg,AFSA12.jpg,AFSA10.jpg,AFNE15.jpg,AFSA10.jpg,FS,4,num_2,32,num_6,0.600103662931,,,2017_Jul_05_1708,59.9984989784,MAFE4ImagesEEG,001,200826,
,,,,,,,,,,,,,,,,,,,,,,,,,,,,,,,,,,,,,,,,,,,space,16.0322179308,2017_Jul_05_1708,59.9984989784,MAFE4ImagesEEG,001,200826,
AFNE01.JPG,AFNE01.JPG,AFNE01.JPG,AFNE01.JPG,AFNE01.JPG,AFNE01.JPG,0,0,0,8,,,,,,,,,,,,,,,,,,,,,,,AMNE19.jpg,AMNE16.jpg,AMSA13.jpg,AMSA10.jpg,AMNE19.jpg,MN,1,num_8,16,num_8,0.583444790216,,,2017_Jul_05_1708,59.9984989784,MAFE4ImagesEEG,001,200826,
AFNE01.JPG,AFNE01.JPG,AFNE01.JPG,AFNE01.JPG,AFNE01.JPG,AFNE01.JPG,0,1,1,7,,,,,,,,,,,,,,,,,,,,,,,AMNE11.jpg,AMSA04.jpg,AMNE06.jpg,AMSA02.jpg,AMSA02.jpg,MS,2,num_4,32,num_6,0.683461211971,,,2017_Jul_05_1708,59.9984989784,MAFE4ImagesEEG,001,200826,
AFNE01.JPG,AFNE01.JPG,AFNE01.JPG,AFNE01.JPG,AFNE01.JPG,AFNE01.JPG,0,2,2,2,,,,,,,,,,,,,,,,,,,,,,,AMSA20.jpg,AMSA04.jpg,AMNE19.jpg,AMNE02.jpg,AMNE19.jpg,MN,1,num_2,32,num_4,1.03344700334,,,2017_Jul_05_1708,59.9984989784,MAFE4ImagesEEG,001,200826,
AFNE01.JPG,AFNE01.JPG,AFNE01.JPG,AFNE01.JPG,AFNE01.JPG,AFNE01.JPG,0,3,3,5,,,,,,,,,,,,,,,,,,,,,,,AMSA16.jpg,AMNE12.jpg,AMNE14.jpg,AMSA14.jpg,AMSA16.jpg,MS,2,num_8,32,num_6,0.866739602759,,,2017_Jul_05_1708,59.9984989784,MAFE4ImagesEEG,001,200826,
AFNE01.JPG,AFNE01.JPG,AFNE01.JPG,AFNE01.JPG,AFNE01.JPG,AFNE01.JPG,0,4,4,9,,,,,,,,,,,,,,,,,,,,,,,AMSA14.jpg,AMNE16.jpg,AMSA11.jpg,AMNE13.jpg,AMNE13.jpg,MN,1,num_4,32,num_6,0.633478179225,,,2017_Jul_05_1708,59.9984989784,MAFE4ImagesEEG,001,200826,
AFNE01.JPG,AFNE01.JPG,AFNE01.JPG,AFNE01.JPG,AFNE01.JPG,AFNE01.JPG,0,5,5,6,,,,,,,,,,,,,,,,,,,,,,,AMSA15.jpg,AMSA11.jpg,AMNE12.jpg,AMNE07.jpg,AMNE07.jpg,MN,1,num_4,32,num_6,1.35013685946,,,2017_Jul_05_1708,59.9984989784,MAFE4ImagesEEG,001,200826,
AFNE01.JPG,AFNE01.JPG,AFNE01.JPG,AFNE01.JPG,AFNE01.JPG,AFNE01.JPG,0,6,6,0,,,,,,,,,,,,,,,,,,,,,,,AMSA05.jpg,AMSA09.jpg,AMNE01.jpg,AMNE05.jpg,AMNE01.jpg,MN,1,num_2,32,num_4,1.10011360585,,,2017_Jul_05_1708,59.9984989784,MAFE4ImagesEEG,001,200826,
AFNE01.JPG,AFNE01.JPG,AFNE01.JPG,AFNE01.JPG,AFNE01.JPG,AFNE01.JPG,0,7,7,4,,,,,,,,,,,,,,,,,,,,,,,AMNE17.jpg,AMSA17.jpg,AMSA01.jpg,AMNE11.jpg,AMNE17.jpg,MN,1,num_8,32,num_2,0.616812891676,,,2017_Jul_05_1708,59.9984989784,MAFE4ImagesEEG,001,200826,
AFNE01.JPG,AFNE01.JPG,AFNE01.JPG,AFNE01.JPG,AFNE01.JPG,AFNE01.JPG,0,8,8,1,,,,,,,,,,,,,,,,,,,,,,,AMNE05.jpg,AMSA11.jpg,AMNE07.jpg,AMSA10.jpg,AMNE05.jpg,MN,1,num_8,32,num_4,0.600248637027,,,2017_Jul_05_1708,59.9984989784,MAFE4ImagesEEG,001,200826,
AFNE01.JPG,AFNE01.JPG,AFNE01.JPG,AFNE01.JPG,AFNE01.JPG,AFNE01.JPG,0,9,9,3,,,,,,,,,,,,,,,,,,,,,,,AMSA12.jpg,AMNE06.jpg,AMSA19.jpg,AMNE20.jpg,AMNE20.jpg,MN,1,num_4,32,num_2,0.866781940334,,,2017_Jul_05_1708,59.9984989784,MAFE4ImagesEEG,001,200826,
AFNE01.JPG,AFNE01.JPG,AFNE01.JPG,AFNE01.JPG,AFNE01.JPG,AFNE01.JPG,1,0,10,8,,,,,,,,,,,,,,,,,,,,,,,AMSA16.jpg,AMNE05.jpg,AMSA01.jpg,AMNE04.jpg,AMSA16.jpg,MS,2,num_8,32,num_6,0.633097461658,,,2017_Jul_05_1708,59.9984989784,MAFE4ImagesEEG,001,200826,
AFNE01.JPG,AFNE01.JPG,AFNE01.JPG,AFNE01.JPG,AFNE01.JPG,AFNE01.JPG,1,1,11,5,,,,,,,,,,,,,,,,,,,,,,,AMSA06.jpg,AMNE14.jpg,AMNE08.jpg,AMSA11.jpg,AMNE08.jpg,MN,1,num_2,32,num_8,1.13342589862,,,2017_Jul_05_1708,59.9984989784,MAFE4ImagesEEG,001,200826,
AFNE01.JPG,AFNE01.JPG,AFNE01.JPG,AFNE01.JPG,AFNE01.JPG,AFNE01.JPG,1,2,12,1,,,,,,,,,,,,,,,,,,,,,,,AMNE12.jpg,AMNE17.jpg,AMSA01.jpg,AMSA09.jpg,AMNE12.jpg,MN,1,num_8,32,num_6,0.616863247706,,,2017_Jul_05_1708,59.9984989784,MAFE4ImagesEEG,001,200826,
AFNE01.JPG,AFNE01.JPG,AFNE01.JPG,AFNE01.JPG,AFNE01.JPG,AFNE01.JPG,1,3,13,4,,,,,,,,,,,,,,,,,,,,,,,AMSA02.jpg,AMNE11.jpg,AMNE06.jpg,AMSA06.jpg,AMNE06.jpg,MN,1,num_2,32,num_4,1.03341525013,,,2017_Jul_05_1708,59.9984989784,MAFE4ImagesEEG,001,200826,
AFNE01.JPG,AFNE01.JPG,AFNE01.JPG,AFNE01.JPG,AFNE01.JPG,AFNE01.JPG,1,4,14,2,,,,,,,,,,,,,,,,,,,,,,,AMSA12.jpg,AMSA05.jpg,AMNE20.jpg,AMNE08.jpg,AMSA05.jpg,MS,2,num_6,32,num_4,0.666858789395,,,2017_Jul_05_1708,59.9984989784,MAFE4ImagesEEG,001,200826,
AFNE01.JPG,AFNE01.JPG,AFNE01.JPG,AFNE01.JPG,AFNE01.JPG,AFNE01.JPG,1,5,15,7,,,,,,,,,,,,,,,,,,,,,,,AMNE07.jpg,AMSA01.jpg,AMNE17.jpg,AMSA03.jpg,AMNE17.jpg,MN,1,num_2,32,num_8,0.633516988601,,,2017_Jul_05_1708,59.9984989784,MAFE4ImagesEEG,001,200826,
AFNE01.JPG,AFNE01.JPG,AFNE01.JPG,AFNE01.JPG,AFNE01.JPG,AFNE01.JPG,1,6,16,6,,,,,,,,,,,,,,,,,,,,,,,AMSA14.jpg,AMSA06.jpg,AMNE09.jpg,AMNE04.jpg,AMNE04.jpg,MN,1,num_4,32,num_8,0.733398379176,,,2017_Jul_05_1708,59.9984989784,MAFE4ImagesEEG,001,200826,
AFNE01.JPG,AFNE01.JPG,AFNE01.JPG,AFNE01.JPG,AFNE01.JPG,AFNE01.JPG,1,7,17,9,,,,,,,,,,,,,,,,,,,,,,,AMSA12.jpg,AMSA19.jpg,AMNE04.jpg,AMNE06.jpg,AMNE04.jpg,MN,1,num_2,16,num_2,0.833544058958,,,2017_Jul_05_1708,59.9984989784,MAFE4ImagesEEG,001,200826,
AFNE01.JPG,AFNE01.JPG,AFNE01.JPG,AFNE01.JPG,AFNE01.JPG,AFNE01.JPG,1,8,18,3,,,,,,,,,,,,,,,,,,,,,,,AMSA14.jpg,AMNE12.jpg,AMSA18.jpg,AMNE13.jpg,AMNE12.jpg,MN,1,num_6,16,num_6,1.0334466825,,,2017_Jul_05_1708,59.9984989784,MAFE4ImagesEEG,001,200826,
AFNE01.JPG,AFNE01.JPG,AFNE01.JPG,AFNE01.JPG,AFNE01.JPG,AFNE01.JPG,1,9,19,0,,,,,,,,,,,,,,,,,,,,,,,AMSA16.jpg,AMNE02.jpg,AMNE17.jpg,AMSA03.jpg,AMNE17.jpg,MN,1,num_2,32,num_6,1.41672552226,,,2017_Jul_05_1708,59.9984989784,MAFE4ImagesEEG,001,200826,
AFNE01.JPG,AFNE01.JPG,AFNE01.JPG,AFNE01.JPG,AFNE01.JPG,AFNE01.JPG,2,0,20,6,,,,,,,,,,,,,,,,,,,,,,,AMNE06.jpg,AMSA19.jpg,AMNE14.jpg,AMSA03.jpg,AMNE06.jpg,MN,1,num_8,32,num_4,1.26670906844,,,2017_Jul_05_1708,59.9984989784,MAFE4ImagesEEG,001,200826,
AFNE01.JPG,AFNE01.JPG,AFNE01.JPG,AFNE01.JPG,AFNE01.JPG,AFNE01.JPG,2,1,21,0,,,,,,,,,,,,,,,,,,,,,,,AMNE17.jpg,AMSA04.jpg,AMNE15.jpg,AMSA13.jpg,AMNE17.jpg,MN,1,num_8,32,num_2,0.650164956111,,,2017_Jul_05_1708,59.9984989784,MAFE4ImagesEEG,001,200826,
AFNE01.JPG,AFNE01.JPG,AFNE01.JPG,AFNE01.JPG,AFNE01.JPG,AFNE01.JPG,2,2,22,3,,,,,,,,,,,,,,,,,,,,,,,AMSA18.jpg,AMNE13.jpg,AMSA11.jpg,AMNE02.jpg,AMSA18.jpg,MS,2,num_8,16,num_8,1.25009991031,,,2017_Jul_05_1708,59.9984989784,MAFE4ImagesEEG,001,200826,
AFNE01.JPG,AFNE01.JPG,AFNE01.JPG,AFNE01.JPG,AFNE01.JPG,AFNE01.JPG,2,3,23,2,,,,,,,,,,,,,,,,,,,,,,,AMSA19.jpg,AMNE09.jpg,AMNE20.jpg,AMSA13.jpg,AMNE09.jpg,MN,1,num_6,16,num_6,0.850099653704,,,2017_Jul_05_1708,59.9984989784,MAFE4ImagesEEG,001,200826,
AFNE01.JPG,AFNE01.JPG,AFNE01.JPG,AFNE01.JPG,AFNE01.JPG,AFNE01.JPG,2,4,24,9,,,,,,,,,,,,,,,,,,,,,,,AMNE01.jpg,AMSA06.jpg,AMNE03.jpg,AMSA08.jpg,AMSA08.jpg,MS,2,num_4,32,num_2,1.90005574445,,,2017_Jul_05_1708,59.9984989784,MAFE4ImagesEEG,001,200826,
AFNE01.JPG,AFNE01.JPG,AFNE01.JPG,AFNE01.JPG,AFNE01.JPG,AFNE01.JPG,2,5,25,5,,,,,,,,,,,,,,,,,,,,,,,AMNE11.jpg,AMNE20.jpg,AMSA16.jpg,AMSA06.jpg,AMSA16.jpg,MS,2,num_2,32,num_6,1.08340886736,,,2017_Jul_05_1708,59.9984989784,MAFE4ImagesEEG,001,200826,
AFNE01.JPG,AFNE01.JPG,AFNE01.JPG,AFNE01.JPG,AFNE01.JPG,AFNE01.JPG,2,6,26,1,,,,,,,,,,,,,,,,,,,,,,,AMSA15.jpg,AMNE01.jpg,AMSA14.jpg,AMNE19.jpg,AMSA14.jpg,MS,2,num_2,16,num_2,1.26682934561,,,2017_Jul_05_1708,59.9984989784,MAFE4ImagesEEG,001,200826,
AFNE01.JPG,AFNE01.JPG,AFNE01.JPG,AFNE01.JPG,AFNE01.JPG,AFNE01.JPG,2,7,27,8,,,,,,,,,,,,,,,,,,,,,,,AMSA03.jpg,AMSA05.jpg,AMNE18.jpg,AMNE01.jpg,AMSA03.jpg,MS,2,num_8,32,num_6,1.08343580947,,,2017_Jul_05_1708,59.9984989784,MAFE4ImagesEEG,001,200826,
AFNE01.JPG,AFNE01.JPG,AFNE01.JPG,AFNE01.JPG,AFNE01.JPG,AFNE01.JPG,2,8,28,4,,,,,,,,,,,,,,,,,,,,,,,AMNE12.jpg,AMNE08.jpg,AMSA20.jpg,AMSA07.jpg,AMNE12.jpg,MN,1,num_8,32,num_6,1.11673687655,,,2017_Jul_05_1708,59.9984989784,MAFE4ImagesEEG,001,200826,
AFNE01.JPG,AFNE01.JPG,AFNE01.JPG,AFNE01.JPG,AFNE01.JPG,AFNE01.JPG,2,9,29,7,,,,,,,,,,,,,,,,,,,,,,,AMNE10.jpg,AMNE17.jpg,AMSA01.jpg,AMSA20.jpg,AMNE10.jpg,MN,1,num_8,32,num_4,1.01673969894,,,2017_Jul_05_1708,59.9984989784,MAFE4ImagesEEG,001,200826,
AFNE01.JPG,AFNE01.JPG,AFNE01.JPG,AFNE01.JPG,AFNE01.JPG,AFNE01.JPG,3,0,30,8,,,,,,,,,,,,,,,,,,,,,,,AMSA14.jpg,AMSA01.jpg,AMNE01.jpg,AMNE14.jpg,AMNE01.jpg,MN,1,num_2,16,num_2,1.15013897629,,,2017_Jul_05_1708,59.9984989784,MAFE4ImagesEEG,001,200826,
AFNE01.JPG,AFNE01.JPG,AFNE01.JPG,AFNE01.JPG,AFNE01.JPG,AFNE01.JPG,3,1,31,5,,,,,,,,,,,,,,,,,,,,,,,AMNE14.jpg,AMNE01.jpg,AMSA15.jpg,AMSA13.jpg,AMSA15.jpg,MS,2,num_2,16,num_2,1.13340569206,,,2017_Jul_05_1708,59.9984989784,MAFE4ImagesEEG,001,200826,
AFNE01.JPG,AFNE01.JPG,AFNE01.JPG,AFNE01.JPG,AFNE01.JPG,AFNE01.JPG,3,2,32,6,,,,,,,,,,,,,,,,,,,,,,,AMSA02.jpg,AMSA17.jpg,AMNE10.jpg,AMNE13.jpg,AMSA02.jpg,MS,2,num_8,32,num_4,1.01678524399,,,2017_Jul_05_1708,59.9984989784,MAFE4ImagesEEG,001,200826,
AFNE01.JPG,AFNE01.JPG,AFNE01.JPG,AFNE01.JPG,AFNE01.JPG,AFNE01.JPG,3,3,33,7,,,,,,,,,,,,,,,,,,,,,,,AMNE16.jpg,AMNE02.jpg,AMSA15.jpg,AMSA09.jpg,AMNE16.jpg,MN,1,num_8,32,num_6,0.96677719336,,,2017_Jul_05_1708,59.9984989784,MAFE4ImagesEEG,001,200826,
AFNE01.JPG,AFNE01.JPG,AFNE01.JPG,AFNE01.JPG,AFNE01.JPG,AFNE01.JPG,3,4,34,2,,,,,,,,,,,,,,,,,,,,,,,AMNE17.jpg,AMNE12.jpg,AMSA20.jpg,AMSA17.jpg,AMNE12.jpg,MN,1,num_6,16,num_6,1.08351054171,,,2017_Jul_05_1708,59.9984989784,MAFE4ImagesEEG,001,200826,
AFNE01.JPG,AFNE01.JPG,AFNE01.JPG,AFNE01.JPG,AFNE01.JPG,AFNE01.JPG,3,5,35,9,,,,,,,,,,,,,,,,,,,,,,,AMNE03.jpg,AMSA11.jpg,AMSA20.jpg,AMNE14.jpg,AMNE03.jpg,MN,1,num_8,32,num_4,1.18341438402,,,2017_Jul_05_1708,59.9984989784,MAFE4ImagesEEG,001,200826,
AFNE01.JPG,AFNE01.JPG,AFNE01.JPG,AFNE01.JPG,AFNE01.JPG,AFNE01.JPG,3,6,36,3,,,,,,,,,,,,,,,,,,,,,,,AMNE19.jpg,AMSA04.jpg,AMSA18.jpg,AMNE01.jpg,AMNE19.jpg,MN,1,num_8,32,num_4,0.999782859581,,,2017_Jul_05_1708,59.9984989784,MAFE4ImagesEEG,001,200826,
AFNE01.JPG,AFNE01.JPG,AFNE01.JPG,AFNE01.JPG,AFNE01.JPG,AFNE01.JPG,3,7,37,4,,,,,,,,,,,,,,,,,,,,,,,AMSA12.jpg,AMSA18.jpg,AMNE11.jpg,AMNE12.jpg,AMNE11.jpg,MN,1,num_2,16,num_2,0.883429266396,,,2017_Jul_05_1708,59.9984989784,MAFE4ImagesEEG,001,200826,
AFNE01.JPG,AFNE01.JPG,AFNE01.JPG,AFNE01.JPG,AFNE01.JPG,AFNE01.JPG,3,8,38,1,,,,,,,,,,,,,,,,,,,,,,,AMSA13.jpg,AMNE20.jpg,AMSA08.jpg,AMNE15.jpg,AMNE15.jpg,MN,1,num_4,16,num_4,1.01675830176,,,2017_Jul_05_1708,59.9984989784,MAFE4ImagesEEG,001,200826,
AFNE01.JPG,AFNE01.JPG,AFNE01.JPG,AFNE01.JPG,AFNE01.JPG,AFNE01.JPG,3,9,39,0,,,,,,,,,,,,,,,,,,,,,,,AMNE06.jpg,AMSA17.jpg,AMNE08.jpg,AMSA13.jpg,AMSA17.jpg,MS,2,num_6,16,num_6,0.950115754735,,,2017_Jul_05_1708,59.9984989784,MAFE4ImagesEEG,001,200826,
AFNE01.JPG,AFNE01.JPG,AFNE01.JPG,AFNE01.JPG,AFNE01.JPG,AFNE01.JPG,4,0,40,4,,,,,,,,,,,,,,,,,,,,,,,AMNE05.jpg,AMSA15.jpg,AMNE03.jpg,AMSA06.jpg,AMSA06.jpg,MS,2,num_4,32,num_2,0.833423140342,,,2017_Jul_05_1708,59.9984989784,MAFE4ImagesEEG,001,200826,
AFNE01.JPG,AFNE01.JPG,AFNE01.JPG,AFNE01.JPG,AFNE01.JPG,AFNE01.JPG,4,1,41,0,,,,,,,,,,,,,,,,,,,,,,,AMNE10.jpg,AMSA11.jpg,AMSA16.jpg,AMNE03.jpg,AMNE03.jpg,MN,1,num_4,32,num_2,0.48352651461,,,2017_Jul_05_1708,59.9984989784,MAFE4ImagesEEG,001,200826,
AFNE01.JPG,AFNE01.JPG,AFNE01.JPG,AFNE01.JPG,AFNE01.JPG,AFNE01.JPG,4,2,42,8,,,,,,,,,,,,,,,,,,,,,,,AMSA16.jpg,AMNE08.jpg,AMSA17.jpg,AMNE13.jpg,AMSA16.jpg,MS,2,num_8,32,num_2,1.40008621477,,,2017_Jul_05_1708,59.9984989784,MAFE4ImagesEEG,001,200826,
AFNE01.JPG,AFNE01.JPG,AFNE01.JPG,AFNE01.JPG,AFNE01.JPG,AFNE01.JPG,4,3,43,3,,,,,,,,,,,,,,,,,,,,,,,AMSA06.jpg,AMSA12.jpg,AMNE03.jpg,AMNE04.jpg,AMSA12.jpg,MS,2,num_6,16,num_6,1.03341941978,,,2017_Jul_05_1708,59.9984989784,MAFE4ImagesEEG,001,200826,
AFNE01.JPG,AFNE01.JPG,AFNE01.JPG,AFNE01.JPG,AFNE01.JPG,AFNE01.JPG,4,4,44,2,,,,,,,,,,,,,,,,,,,,,,,AMSA02.jpg,AMNE07.jpg,AMNE06.jpg,AMSA13.jpg,AMNE06.jpg,MN,1,num_2,32,num_4,1.03345085215,,,2017_Jul_05_1708,59.9984989784,MAFE4ImagesEEG,001,200826,
AFNE01.JPG,AFNE01.JPG,AFNE01.JPG,AFNE01.JPG,AFNE01.JPG,AFNE01.JPG,4,5,45,6,,,,,,,,,,,,,,,,,,,,,,,AMNE05.jpg,AMSA13.jpg,AMSA10.jpg,AMNE01.jpg,AMSA10.jpg,MS,2,num_2,32,num_6,0.533458870719,,,2017_Jul_05_1708,59.9984989784,MAFE4ImagesEEG,001,200826,
AFNE01.JPG,AFNE01.JPG,AFNE01.JPG,AFNE01.JPG,AFNE01.JPG,AFNE01.JPG,4,6,46,9,,,,,,,,,,,,,,,,,,,,,,,AMSA11.jpg,AMNE20.jpg,AMSA15.jpg,AMNE15.jpg,AMSA15.jpg,MS,2,num_2,16,num_2,1.15003826423,,,2017_Jul_05_1708,59.9984989784,MAFE4ImagesEEG,001,200826,
AFNE01.JPG,AFNE01.JPG,AFNE01.JPG,AFNE01.JPG,AFNE01.JPG,AFNE01.JPG,4,7,47,7,,,,,,,,,,,,,,,,,,,,,,,AMNE09.jpg,AMNE06.jpg,AMSA11.jpg,AMSA01.jpg,AMSA01.jpg,MS,2,num_4,16,num_4,1.38309858437,,,2017_Jul_05_1708,59.9984989784,MAFE4ImagesEEG,001,200826,
AFNE01.JPG,AFNE01.JPG,AFNE01.JPG,AFNE01.JPG,AFNE01.JPG,AFNE01.JPG,4,8,48,1,,,,,,,,,,,,,,,,,,,,,,,AMSA17.jpg,AMSA05.jpg,AMNE10.jpg,AMNE01.jpg,AMNE10.jpg,MN,1,num_2,32,num_6,1.00013086153,,,2017_Jul_05_1708,59.9984989784,MAFE4ImagesEEG,001,200826,
AFNE01.JPG,AFNE01.JPG,AFNE01.JPG,AFNE01.JPG,AFNE01.JPG,AFNE01.JPG,4,9,49,5,,,,,,,,,,,,,,,,,,,,,,,AMSA01.jpg,AMSA02.jpg,AMNE06.jpg,AMNE15.jpg,AMSA02.jpg,MS,2,num_6,16,num_6,1.30004413379,,,2017_Jul_05_1708,59.9984989784,MAFE4ImagesEEG,001,200826,
AFNE01.JPG,AFNE01.JPG,AFNE01.JPG,AFNE01.JPG,AFNE01.JPG,AFNE01.JPG,5,0,50,9,,,,,,,,,,,,,,,,,,,,,,,AMNE07.jpg,AMNE19.jpg,AMSA02.jpg,AMSA14.jpg,AMNE07.jpg,MN,1,num_8,32,num_6,1.15007290407,,,2017_Jul_05_1708,59.9984989784,MAFE4ImagesEEG,001,200826,
AFNE01.JPG,AFNE01.JPG,AFNE01.JPG,AFNE01.JPG,AFNE01.JPG,AFNE01.JPG,5,1,51,6,,,,,,,,,,,,,,,,,,,,,,,AMNE17.jpg,AMSA08.jpg,AMSA06.jpg,AMNE02.jpg,AMSA06.jpg,MS,2,num_2,32,num_6,1.20007935085,,,2017_Jul_05_1708,59.9984989784,MAFE4ImagesEEG,001,200826,
AFNE01.JPG,AFNE01.JPG,AFNE01.JPG,AFNE01.JPG,AFNE01.JPG,AFNE01.JPG,5,2,52,1,,,,,,,,,,,,,,,,,,,,,,,AMSA10.jpg,AMSA12.jpg,AMNE04.jpg,AMNE19.jpg,AMNE19.jpg,MN,1,num_4,16,num_4,1.08341079182,,,2017_Jul_05_1708,59.9984989784,MAFE4ImagesEEG,001,200826,
AFNE01.JPG,AFNE01.JPG,AFNE01.JPG,AFNE01.JPG,AFNE01.JPG,AFNE01.JPG,5,3,53,7,,,,,,,,,,,,,,,,,,,,,,,AMNE09.jpg,AMNE07.jpg,AMSA02.jpg,AMSA19.jpg,AMSA02.jpg,MS,2,num_2,16,num_2,0.600200846908,,,2017_Jul_05_1708,59.9984989784,MAFE4ImagesEEG,001,200826,
AFNE01.JPG,AFNE01.JPG,AFNE01.JPG,AFNE01.JPG,AFNE01.JPG,AFNE01.JPG,5,4,54,3,,,,,,,,,,,,,,,,,,,,,,,AMNE03.jpg,AMNE17.jpg,AMSA12.jpg,AMSA16.jpg,AMNE17.jpg,MN,1,num_6,32,num_2,0.800113413366,,,2017_Jul_05_1708,59.9984989784,MAFE4ImagesEEG,001,200826,
AFNE01.JPG,AFNE01.JPG,AFNE01.JPG,AFNE01.JPG,AFNE01.JPG,AFNE01.JPG,5,5,55,4,,,,,,,,,,,,,,,,,,,,,,,AMNE17.jpg,AMSA19.jpg,AMSA02.jpg,AMNE09.jpg,AMNE09.jpg,MN,1,num_4,32,num_8,1.00008339225,,,2017_Jul_05_1708,59.9984989784,MAFE4ImagesEEG,001,200826,
AFNE01.JPG,AFNE01.JPG,AFNE01.JPG,AFNE01.JPG,AFNE01.JPG,AFNE01.JPG,5,6,56,5,,,,,,,,,,,,,,,,,,,,,,,AMNE13.jpg,AMSA02.jpg,AMSA05.jpg,AMNE08.jpg,AMSA02.jpg,MS,2,num_6,16,num_6,0.516779149882,,,2017_Jul_05_1708,59.9984989784,MAFE4ImagesEEG,001,200826,
AFNE01.JPG,AFNE01.JPG,AFNE01.JPG,AFNE01.JPG,AFNE01.JPG,AFNE01.JPG,5,7,57,8,,,,,,,,,,,,,,,,,,,,,,,AMSA17.jpg,AMSA04.jpg,AMNE03.jpg,AMNE14.jpg,AMSA04.jpg,MS,2,num_6,16,num_6,0.600112643675,,,2017_Jul_05_1708,59.9984989784,MAFE4ImagesEEG,001,200826,
AFNE01.JPG,AFNE01.JPG,AFNE01.JPG,AFNE01.JPG,AFNE01.JPG,AFNE01.JPG,5,8,58,2,,,,,,,,,,,,,,,,,,,,,,,AMNE09.jpg,AMSA19.jpg,AMSA16.jpg,AMNE12.jpg,AMNE12.jpg,MN,1,num_4,16,num_4,1.00012059789,,,2017_Jul_05_1708,59.9984989784,MAFE4ImagesEEG,001,200826,
AFNE01.JPG,AFNE01.JPG,AFNE01.JPG,AFNE01.JPG,AFNE01.JPG,AFNE01.JPG,5,9,59,0,,,,,,,,,,,,,,,,,,,,,,,AMSA04.jpg,AMSA06.jpg,AMNE02.jpg,AMNE04.jpg,AMNE04.jpg,MN,1,num_4,16,num_4,1.05007444345,,,2017_Jul_05_1708,59.9984989784,MAFE4ImagesEEG,001,200826,
,,,,,,,,,,,,,,,,,,,,,,,,,,,,,,,,,,,,,,,,,,,space,12.532894049,2017_Jul_05_1708,59.9984989784,MAFE4ImagesEEG,001,200826,
AFNE01.JPG,AFNE01.JPG,AFNE01.JPG,AFNE01.JPG,AFNE01.JPG,AFNE01.JPG,,,,,0,0,0,8,,,,,,,,,,,,,,,,,,,AFNE07.jpg,AFSA09.jpg,AFNE08.jpg,AFSA14.jpg,AFSA14.jpg,FS,4,num_4,32,num_6,0.583462751587,,,2017_Jul_05_1708,59.9984989784,MAFE4ImagesEEG,001,200826,
AFNE01.JPG,AFNE01.JPG,AFNE01.JPG,AFNE01.JPG,AFNE01.JPG,AFNE01.JPG,,,,,0,1,1,5,,,,,,,,,,,,,,,,,,,AFSA12.jpg,AFNE16.jpg,AFNE11.jpg,AFSA04.jpg,AFSA04.jpg,FS,4,num_4,16,num_4,0.650191898225,,,2017_Jul_05_1708,59.9984989784,MAFE4ImagesEEG,001,200826,
AFNE01.JPG,AFNE01.JPG,AFNE01.JPG,AFNE01.JPG,AFNE01.JPG,AFNE01.JPG,,,,,0,2,2,2,,,,,,,,,,,,,,,,,,,AFNE15.jpg,AFNE02.jpg,AFSA05.jpg,AFSA19.jpg,AFNE02.jpg,FN,3,num_6,16,num_6,0.866782581783,,,2017_Jul_05_1708,59.9984989784,MAFE4ImagesEEG,001,200826,
AFNE01.JPG,AFNE01.JPG,AFNE01.JPG,AFNE01.JPG,AFNE01.JPG,AFNE01.JPG,,,,,0,3,3,6,,,,,,,,,,,,,,,,,,,AFNE19.jpg,AFSA08.jpg,AFSA04.jpg,AFNE13.jpg,AFNE13.jpg,FN,3,num_4,32,num_6,0.666770586162,,,2017_Jul_05_1708,59.9984989784,MAFE4ImagesEEG,001,200826,
AFNE01.JPG,AFNE01.JPG,AFNE01.JPG,AFNE01.JPG,AFNE01.JPG,AFNE01.JPG,,,,,0,4,4,0,,,,,,,,,,,,,,,,,,,AFNE13.jpg,AFSA12.jpg,AFSA05.jpg,AFNE17.jpg,AFNE17.jpg,FN,3,num_4,16,num_4,0.850096125505,,,2017_Jul_05_1708,59.9984989784,MAFE4ImagesEEG,001,200826,
AFNE01.JPG,AFNE01.JPG,AFNE01.JPG,AFNE01.JPG,AFNE01.JPG,AFNE01.JPG,,,,,0,5,5,7,,,,,,,,,,,,,,,,,,,AFNE05.jpg,AFSA08.jpg,AFNE11.jpg,AFSA11.jpg,AFSA08.jpg,FS,4,num_6,32,num_4,0.783459672472,,,2017_Jul_05_1708,59.9984989784,MAFE4ImagesEEG,001,200826,
AFNE01.JPG,AFNE01.JPG,AFNE01.JPG,AFNE01.JPG,AFNE01.JPG,AFNE01.JPG,,,,,0,6,6,3,,,,,,,,,,,,,,,,,,,AFNE12.jpg,AFSA04.jpg,AFNE07.jpg,AFSA09.jpg,AFNE07.jpg,FN,3,num_2,16,num_2,0.866761413054,,,2017_Jul_05_1708,59.9984989784,MAFE4ImagesEEG,001,200826,
AFNE01.JPG,AFNE01.JPG,AFNE01.JPG,AFNE01.JPG,AFNE01.JPG,AFNE01.JPG,,,,,0,7,7,1,,,,,,,,,,,,,,,,,,,AFNE14.jpg,AFSA19.jpg,AFSA20.jpg,AFNE19.jpg,AFSA20.jpg,FS,4,num_2,32,num_6,0.633198494557,,,2017_Jul_05_1708,59.9984989784,MAFE4ImagesEEG,001,200826,
AFNE01.JPG,AFNE01.JPG,AFNE01.JPG,AFNE01.JPG,AFNE01.JPG,AFNE01.JPG,,,,,0,8,8,9,,,,,,,,,,,,,,,,,,,AFNE05.jpg,AFNE04.jpg,AFSA17.jpg,AFSA16.jpg,AFSA16.jpg,FS,4,num_4,32,num_6,0.583451846498,,,2017_Jul_05_1708,59.9984989784,MAFE4ImagesEEG,001,200826,
AFNE01.JPG,AFNE01.JPG,AFNE01.JPG,AFNE01.JPG,AFNE01.JPG,AFNE01.JPG,,,,,0,9,9,4,,,,,,,,,,,,,,,,,,,AFNE16.jpg,AFNE01.jpg,AFSA07.jpg,AFSA13.jpg,AFSA13.jpg,FS,4,num_4,32,num_6,0.666761926142,,,2017_Jul_05_1708,59.9984989784,MAFE4ImagesEEG,001,200826,
AFNE01.JPG,AFNE01.JPG,AFNE01.JPG,AFNE01.JPG,AFNE01.JPG,AFNE01.JPG,,,,,1,0,10,9,,,,,,,,,,,,,,,,,,,AFNE15.jpg,AFSA18.jpg,AFSA19.jpg,AFNE18.jpg,AFSA19.jpg,FS,4,num_2,16,num_2,0.550130252261,,,2017_Jul_05_1708,59.9984989784,MAFE4ImagesEEG,001,200826,
AFNE01.JPG,AFNE01.JPG,AFNE01.JPG,AFNE01.JPG,AFNE01.JPG,AFNE01.JPG,,,,,1,1,11,2,,,,,,,,,,,,,,,,,,,AFNE02.jpg,AFSA10.jpg,AFNE19.jpg,AFSA11.jpg,AFSA11.jpg,FS,4,num_4,32,num_6,0.883422530838,,,2017_Jul_05_1708,59.9984989784,MAFE4ImagesEEG,001,200826,
AFNE01.JPG,AFNE01.JPG,AFNE01.JPG,AFNE01.JPG,AFNE01.JPG,AFNE01.JPG,,,,,1,2,12,6,,,,,,,,,,,,,,,,,,,AFNE14.jpg,AFSA17.jpg,AFNE19.jpg,AFSA19.jpg,AFNE14.jpg,FN,3,num_8,16,num_8,2.54996635439,,,2017_Jul_05_1708,59.9984989784,MAFE4ImagesEEG,001,200826,
AFNE01.JPG,AFNE01.JPG,AFNE01.JPG,AFNE01.JPG,AFNE01.JPG,AFNE01.JPG,,,,,1,3,13,7,,,,,,,,,,,,,,,,,,,AFNE01.jpg,AFSA06.jpg,AFNE10.jpg,AFSA13.jpg,AFSA06.jpg,FS,4,num_6,16,num_6,0.633480424294,,,2017_Jul_05_1708,59.9984989784,MAFE4ImagesEEG,001,200826,
AFNE01.JPG,AFNE01.JPG,AFNE01.JPG,AFNE01.JPG,AFNE01.JPG,AFNE01.JPG,,,,,1,4,14,8,,,,,,,,,,,,,,,,,,,AFNE14.jpg,AFNE12.jpg,AFSA15.jpg,AFSA14.jpg,AFNE12.jpg,FN,3,num_6,16,num_6,0.600211110548,,,2017_Jul_05_1708,59.9984989784,MAFE4ImagesEEG,001,200826,
AFNE01.JPG,AFNE01.JPG,AFNE01.JPG,AFNE01.JPG,AFNE01.JPG,AFNE01.JPG,,,,,1,5,15,3,,,,,,,,,,,,,,,,,,,AFNE12.jpg,AFSA19.jpg,AFNE04.jpg,AFSA02.jpg,AFSA19.jpg,FS,4,num_6,32,num_4,1.08345409168,,,2017_Jul_05_1708,59.9984989784,MAFE4ImagesEEG,001,200826,
AFNE01.JPG,AFNE01.JPG,AFNE01.JPG,AFNE01.JPG,AFNE01.JPG,AFNE01.JPG,,,,,1,6,16,4,,,,,,,,,,,,,,,,,,,AFNE19.jpg,AFSA12.jpg,AFNE11.jpg,AFSA04.jpg,AFSA04.jpg,FS,4,num_4,32,num_8,3.29998319317,,,2017_Jul_05_1708,59.9984989784,MAFE4ImagesEEG,001,200826,
AFNE01.JPG,AFNE01.JPG,AFNE01.JPG,AFNE01.JPG,AFNE01.JPG,AFNE01.JPG,,,,,1,7,17,5,,,,,,,,,,,,,,,,,,,AFSA18.jpg,AFSA02.jpg,AFNE10.jpg,AFNE03.jpg,AFSA02.jpg,FS,4,num_6,32,num_4,0.650187407969,,,2017_Jul_05_1708,59.9984989784,MAFE4ImagesEEG,001,200826,
AFNE01.JPG,AFNE01.JPG,AFNE01.JPG,AFNE01.JPG,AFNE01.JPG,AFNE01.JPG,,,,,1,8,18,0,,,,,,,,,,,,,,,,,,,AFSA12.jpg,AFSA10.jpg,AFNE19.jpg,AFNE09.jpg,AFNE09.jpg,FN,3,num_4,16,num_4,0.816798907472,,,2017_Jul_05_1708,59.9984989784,MAFE4ImagesEEG,001,200826,
AFNE01.JPG,AFNE01.JPG,AFNE01.JPG,AFNE01.JPG,AFNE01.JPG,AFNE01.JPG,,,,,1,9,19,1,,,,,,,,,,,,,,,,,,,AFSA04.jpg,AFSA05.jpg,AFNE09.jpg,AFNE02.jpg,AFNE09.jpg,FN,3,num_2,32,num_6,0.516855806578,,,2017_Jul_05_1708,59.9984989784,MAFE4ImagesEEG,001,200826,
AFNE01.JPG,AFNE01.JPG,AFNE01.JPG,AFNE01.JPG,AFNE01.JPG,AFNE01.JPG,,,,,2,0,20,3,,,,,,,,,,,,,,,,,,,AFSA19.jpg,AFSA20.jpg,AFNE10.jpg,AFNE16.jpg,AFNE16.jpg,FN,3,num_4,16,num_4,0.566845895839,,,2017_Jul_05_1708,59.9984989784,MAFE4ImagesEEG,001,200826,
AFNE01.JPG,AFNE01.JPG,AFNE01.JPG,AFNE01.JPG,AFNE01.JPG,AFNE01.JPG,,,,,2,1,21,5,,,,,,,,,,,,,,,,,,,AFNE07.jpg,AFNE16.jpg,AFSA02.jpg,AFSA14.jpg,AFSA14.jpg,FS,4,num_4,32,num_6,0.383493414265,,,2017_Jul_05_1708,59.9984989784,MAFE4ImagesEEG,001,200826,
AFNE01.JPG,AFNE01.JPG,AFNE01.JPG,AFNE01.JPG,AFNE01.JPG,AFNE01.JPG,,,,,2,2,22,6,,,,,,,,,,,,,,,,,,,AFNE02.jpg,AFNE01.jpg,AFSA04.jpg,AFSA12.jpg,AFSA12.jpg,FS,4,num_4,16,num_4,0.400014048326,,,2017_Jul_05_1708,59.9984989784,MAFE4ImagesEEG,001,200826,
AFNE01.JPG,AFNE01.JPG,AFNE01.JPG,AFNE01.JPG,AFNE01.JPG,AFNE01.JPG,,,,,2,3,23,2,,,,,,,,,,,,,,,,,,,AFSA09.jpg,AFSA08.jpg,AFNE17.jpg,AFNE01.jpg,AFNE01.jpg,FN,3,num_4,32,num_8,1.08353652165,,,2017_Jul_05_1708,59.9984989784,MAFE4ImagesEEG,001,200826,
AFNE01.JPG,AFNE01.JPG,AFNE01.JPG,AFNE01.JPG,AFNE01.JPG,AFNE01.JPG,,,,,2,4,24,4,,,,,,,,,,,,,,,,,,,AFSA13.jpg,AFSA01.jpg,AFNE12.jpg,AFNE04.jpg,AFNE04.jpg,FN,3,num_4,32,num_8,0.866741847945,,,2017_Jul_05_1708,59.9984989784,MAFE4ImagesEEG,001,200826,
AFNE01.JPG,AFNE01.JPG,AFNE01.JPG,AFNE01.JPG,AFNE01.JPG,AFNE01.JPG,,,,,2,5,25,7,,,,,,,,,,,,,,,,,,,AFSA12.jpg,AFNE08.jpg,AFSA10.jpg,AFNE18.jpg,AFSA10.jpg,FS,4,num_2,32,num_6,0.68345447653,,,2017_Jul_05_1708,59.9984989784,MAFE4ImagesEEG,001,200826,
AFNE01.JPG,AFNE01.JPG,AFNE01.JPG,AFNE01.JPG,AFNE01.JPG,AFNE01.JPG,,,,,2,6,26,1,,,,,,,,,,,,,,,,,,,AFSA05.jpg,AFNE11.jpg,AFNE09.jpg,AFSA08.jpg,AFSA08.jpg,FS,4,num_4,16,num_4,0.783425353467,,,2017_Jul_05_1708,59.9984989784,MAFE4ImagesEEG,001,200826,
AFNE01.JPG,AFNE01.JPG,AFNE01.JPG,AFNE01.JPG,AFNE01.JPG,AFNE01.JPG,,,,,2,7,27,9,,,,,,,,,,,,,,,,,,,AFNE16.jpg,AFNE03.jpg,AFSA02.jpg,AFSA19.jpg,AFNE03.jpg,FN,3,num_6,16,num_6,0.650152768125,,,2017_Jul_05_1708,59.9984989784,MAFE4ImagesEEG,001,200826,
AFNE01.JPG,AFNE01.JPG,AFNE01.JPG,AFNE01.JPG,AFNE01.JPG,AFNE01.JPG,,,,,2,8,28,8,,,,,,,,,,,,,,,,,,,AFNE06.jpg,AFSA12.jpg,AFSA20.jpg,AFNE02.jpg,AFSA20.jpg,FS,4,num_2,16,num_2,0.566716317087,,,2017_Jul_05_1708,59.9984989784,MAFE4ImagesEEG,001,200826,
AFNE01.JPG,AFNE01.JPG,AFNE01.JPG,AFNE01.JPG,AFNE01.JPG,AFNE01.JPG,,,,,2,9,29,0,,,,,,,,,,,,,,,,,,,AFNE17.jpg,AFSA11.jpg,AFSA13.jpg,AFNE06.jpg,AFNE06.jpg,FN,3,num_4,32,num_6,0.816748230602,,,2017_Jul_05_1708,59.9984989784,MAFE4ImagesEEG,001,200826,
AFNE01.JPG,AFNE01.JPG,AFNE01.JPG,AFNE01.JPG,AFNE01.JPG,AFNE01.JPG,,,,,3,0,30,6,,,,,,,,,,,,,,,,,,,AFNE05.jpg,AFNE13.jpg,AFSA01.jpg,AFSA13.jpg,AFNE13.jpg,FN,3,num_6,16,num_6,0.616839192226,,,2017_Jul_05_1708,59.9984989784,MAFE4ImagesEEG,001,200826,
AFNE01.JPG,AFNE01.JPG,AFNE01.JPG,AFNE01.JPG,AFNE01.JPG,AFNE01.JPG,,,,,3,1,31,9,,,,,,,,,,,,,,,,,,,AFNE14.jpg,AFSA09.jpg,AFSA11.jpg,AFNE10.jpg,AFSA09.jpg,FS,4,num_6,16,num_6,1.35011055879,,,2017_Jul_05_1708,59.9984989784,MAFE4ImagesEEG,001,200826,
AFNE01.JPG,AFNE01.JPG,AFNE01.JPG,AFNE01.JPG,AFNE01.JPG,AFNE01.JPG,,,,,3,2,32,8,,,,,,,,,,,,,,,,,,,AFNE20.jpg,AFSA10.jpg,AFNE09.jpg,AFSA13.jpg,AFNE09.jpg,FN,3,num_2,32,num_4,0.516774018062,,,2017_Jul_05_1708,59.9984989784,MAFE4ImagesEEG,001,200826,
AFNE01.JPG,AFNE01.JPG,AFNE01.JPG,AFNE01.JPG,AFNE01.JPG,AFNE01.JPG,,,,,3,3,33,3,,,,,,,,,,,,,,,,,,,AFSA18.jpg,AFNE03.jpg,AFNE18.jpg,AFSA19.jpg,AFNE03.jpg,FN,3,num_6,32,num_8,0.650088299531,,,2017_Jul_05_1708,59.9984989784,MAFE4ImagesEEG,001,200826,
AFNE01.JPG,AFNE01.JPG,AFNE01.JPG,AFNE01.JPG,AFNE01.JPG,AFNE01.JPG,,,,,3,4,34,5,,,,,,,,,,,,,,,,,,,AFNE17.jpg,AFSA15.jpg,AFNE16.jpg,AFSA08.jpg,AFSA15.jpg,FS,4,num_6,16,num_6,0.516806412721,,,2017_Jul_05_1708,59.9984989784,MAFE4ImagesEEG,001,200826,
AFNE01.JPG,AFNE01.JPG,AFNE01.JPG,AFNE01.JPG,AFNE01.JPG,AFNE01.JPG,,,,,3,5,35,7,,,,,,,,,,,,,,,,,,,AFSA01.jpg,AFNE13.jpg,AFNE11.jpg,AFSA11.jpg,AFSA11.jpg,FS,4,num_4,16,num_4,0.600134453853,,,2017_Jul_05_1708,59.9984989784,MAFE4ImagesEEG,001,200826,
AFNE01.JPG,AFNE01.JPG,AFNE01.JPG,AFNE01.JPG,AFNE01.JPG,AFNE01.JPG,,,,,3,6,36,4,,,,,,,,,,,,,,,,,,,AFSA06.jpg,AFNE18.jpg,AFNE20.jpg,AFSA11.jpg,AFSA06.jpg,FS,4,num_8,32,num_4,0.566764428047,,,2017_Jul_05_1708,59.9984989784,MAFE4ImagesEEG,001,200826,
AFNE01.JPG,AFNE01.JPG,AFNE01.JPG,AFNE01.JPG,AFNE01.JPG,AFNE01.JPG,,,,,3,7,37,1,,,,,,,,,,,,,,,,,,,AFNE18.jpg,AFSA08.jpg,AFNE13.jpg,AFSA18.jpg,AFSA08.jpg,FS,4,num_6,16,num_6,0.733471507789,,,2017_Jul_05_1708,59.9984989784,MAFE4ImagesEEG,001,200826,
AFNE01.JPG,AFNE01.JPG,AFNE01.JPG,AFNE01.JPG,AFNE01.JPG,AFNE01.JPG,,,,,3,8,38,2,,,,,,,,,,,,,,,,,,,AFSA01.jpg,AFNE18.jpg,AFSA14.jpg,AFNE14.jpg,AFSA01.jpg,FS,4,num_8,32,num_4,0.750150907785,,,2017_Jul_05_1708,59.9984989784,MAFE4ImagesEEG,001,200826,
AFNE01.JPG,AFNE01.JPG,AFNE01.JPG,AFNE01.JPG,AFNE01.JPG,AFNE01.JPG,,,,,3,9,39,0,,,,,,,,,,,,,,,,,,,AFNE09.jpg,AFNE17.jpg,AFSA14.jpg,AFSA13.jpg,AFNE17.jpg,FN,3,num_6,32,num_4,0.433532576426,,,2017_Jul_05_1708,59.9984989784,MAFE4ImagesEEG,001,200826,
AFNE01.JPG,AFNE01.JPG,AFNE01.JPG,AFNE01.JPG,AFNE01.JPG,AFNE01.JPG,,,,,4,0,40,8,,,,,,,,,,,,,,,,,,,AFNE09.jpg,AFSA08.jpg,AFNE16.jpg,AFSA19.jpg,AFNE09.jpg,FN,3,num_8,32,num_4,0.366885539028,,,2017_Jul_05_1708,59.9984989784,MAFE4ImagesEEG,001,200826,
AFNE01.JPG,AFNE01.JPG,AFNE01.JPG,AFNE01.JPG,AFNE01.JPG,AFNE01.JPG,,,,,4,1,41,3,,,,,,,,,,,,,,,,,,,AFNE01.jpg,AFSA09.jpg,AFNE08.jpg,AFSA13.jpg,AFNE01.jpg,FN,3,num_8,32,num_6,0.550125761773,,,2017_Jul_05_1708,59.9984989784,MAFE4ImagesEEG,001,200826,
AFNE01.JPG,AFNE01.JPG,AFNE01.JPG,AFNE01.JPG,AFNE01.JPG,AFNE01.JPG,,,,,4,2,42,2,,,,,,,,,,,,,,,,,,,AFSA16.jpg,AFSA03.jpg,AFNE16.jpg,AFNE19.jpg,AFSA16.jpg,FS,4,num_8,32,num_6,0.816759135691,,,2017_Jul_05_1708,59.9984989784,MAFE4ImagesEEG,001,200826,
AFNE01.JPG,AFNE01.JPG,AFNE01.JPG,AFNE01.JPG,AFNE01.JPG,AFNE01.JPG,,,,,4,3,43,6,,,,,,,,,,,,,,,,,,,AFSA16.jpg,AFSA09.jpg,AFNE14.jpg,AFNE16.jpg,AFNE16.jpg,FN,3,num_4,16,num_4,0.716826426913,,,2017_Jul_05_1708,59.9984989784,MAFE4ImagesEEG,001,200826,
AFNE01.JPG,AFNE01.JPG,AFNE01.JPG,AFNE01.JPG,AFNE01.JPG,AFNE01.JPG,,,,,4,4,44,1,,,,,,,,,,,,,,,,,,,AFNE17.jpg,AFSA05.jpg,AFSA11.jpg,AFNE13.jpg,AFSA11.jpg,FS,4,num_2,32,num_6,0.816751438077,,,2017_Jul_05_1708,59.9984989784,MAFE4ImagesEEG,001,200826,
AFNE01.JPG,AFNE01.JPG,AFNE01.JPG,AFNE01.JPG,AFNE01.JPG,AFNE01.JPG,,,,,4,5,45,5,,,,,,,,,,,,,,,,,,,AFNE17.jpg,AFNE11.jpg,AFSA16.jpg,AFSA19.jpg,AFNE17.jpg,FN,3,num_8,32,num_6,1.94999932649,,,2017_Jul_05_1708,59.9984989784,MAFE4ImagesEEG,001,200826,
AFNE01.JPG,AFNE01.JPG,AFNE01.JPG,AFNE01.JPG,AFNE01.JPG,AFNE01.JPG,,,,,4,6,46,4,,,,,,,,,,,,,,,,,,,AFSA09.jpg,AFSA15.jpg,AFNE14.jpg,AFNE04.jpg,AFSA09.jpg,FS,4,num_8,32,num_4,1.19997671433,,,2017_Jul_05_1708,59.9984989784,MAFE4ImagesEEG,001,200826,
AFNE01.JPG,AFNE01.JPG,AFNE01.JPG,AFNE01.JPG,AFNE01.JPG,AFNE01.JPG,,,,,4,7,47,9,,,,,,,,,,,,,,,,,,,AFNE19.jpg,AFSA20.jpg,AFSA05.jpg,AFNE07.jpg,AFSA20.jpg,FS,4,num_6,16,num_6,1.03352173558,,,2017_Jul_05_1708,59.9984989784,MAFE4ImagesEEG,001,200826,
AFNE01.JPG,AFNE01.JPG,AFNE01.JPG,AFNE01.JPG,AFNE01.JPG,AFNE01.JPG,,,,,4,8,48,0,,,,,,,,,,,,,,,,,,,AFNE02.jpg,AFSA07.jpg,AFNE05.jpg,AFSA17.jpg,AFSA07.jpg,FS,4,num_6,16,num_6,1.05006931175,,,2017_Jul_05_1708,59.9984989784,MAFE4ImagesEEG,001,200826,
AFNE01.JPG,AFNE01.JPG,AFNE01.JPG,AFNE01.JPG,AFNE01.JPG,AFNE01.JPG,,,,,4,9,49,7,,,,,,,,,,,,,,,,,,,AFSA16.jpg,AFNE17.jpg,AFNE07.jpg,AFSA11.jpg,AFSA16.jpg,FS,4,num_8,32,num_2,1.7334131333,,,2017_Jul_05_1708,59.9984989784,MAFE4ImagesEEG,001,200826,
AFNE01.JPG,AFNE01.JPG,AFNE01.JPG,AFNE01.JPG,AFNE01.JPG,AFNE01.JPG,,,,,5,0,50,2,,,,,,,,,,,,,,,,,,,AFSA16.jpg,AFSA11.jpg,AFNE09.jpg,AFNE04.jpg,AFNE04.jpg,FN,3,num_4,16,num_4,1.1334329549,,,2017_Jul_05_1708,59.9984989784,MAFE4ImagesEEG,001,200826,
AFNE01.JPG,AFNE01.JPG,AFNE01.JPG,AFNE01.JPG,AFNE01.JPG,AFNE01.JPG,,,,,5,1,51,6,,,,,,,,,,,,,,,,,,,AFNE19.jpg,AFSA14.jpg,AFNE09.jpg,AFSA10.jpg,AFSA10.jpg,FS,4,num_4,16,num_4,1.06670028018,,,2017_Jul_05_1708,59.9984989784,MAFE4ImagesEEG,001,200826,
AFNE01.JPG,AFNE01.JPG,AFNE01.JPG,AFNE01.JPG,AFNE01.JPG,AFNE01.JPG,,,,,5,2,52,5,,,,,,,,,,,,,,,,,,,AFNE18.jpg,AFSA01.jpg,AFNE04.jpg,AFSA05.jpg,AFSA01.jpg,FS,4,num_6,16,num_6,1.36666647415,,,2017_Jul_05_1708,59.9984989784,MAFE4ImagesEEG,001,200826,
AFNE01.JPG,AFNE01.JPG,AFNE01.JPG,AFNE01.JPG,AFNE01.JPG,AFNE01.JPG,,,,,5,3,53,9,,,,,,,,,,,,,,,,,,,AFSA13.jpg,AFSA12.jpg,AFNE20.jpg,AFNE04.jpg,AFSA13.jpg,FS,4,num_8,16,num_8,1.41651415522,,,2017_Jul_05_1708,59.9984989784,MAFE4ImagesEEG,001,200826,
AFNE01.JPG,AFNE01.JPG,AFNE01.JPG,AFNE01.JPG,AFNE01.JPG,AFNE01.JPG,,,,,5,4,54,7,,,,,,,,,,,,,,,,,,,AFSA20.jpg,AFNE15.jpg,AFSA18.jpg,AFNE13.jpg,AFNE13.jpg,FN,3,num_4,32,num_8,1.03346432326,,,2017_Jul_05_1708,59.9984989784,MAFE4ImagesEEG,001,200826,
AFNE01.JPG,AFNE01.JPG,AFNE01.JPG,AFNE01.JPG,AFNE01.JPG,AFNE01.JPG,,,,,5,5,55,4,,,,,,,,,,,,,,,,,,,AFNE16.jpg,AFSA06.jpg,AFNE05.jpg,AFSA15.jpg,AFNE05.jpg,FN,3,num_2,32,num_6,1.13339446625,,,2017_Jul_05_1708,59.9984989784,MAFE4ImagesEEG,001,200826,
AFNE01.JPG,AFNE01.JPG,AFNE01.JPG,AFNE01.JPG,AFNE01.JPG,AFNE01.JPG,,,,,5,6,56,1,,,,,,,,,,,,,,,,,,,AFSA13.jpg,AFSA06.jpg,AFNE09.jpg,AFNE07.jpg,AFNE09.jpg,FN,3,num_2,32,num_6,0.983442801633,,,2017_Jul_05_1708,59.9984989784,MAFE4ImagesEEG,001,200826,
AFNE01.JPG,AFNE01.JPG,AFNE01.JPG,AFNE01.JPG,AFNE01.JPG,AFNE01.JPG,,,,,5,7,57,3,,,,,,,,,,,,,,,,,,,AFNE09.jpg,AFSA06.jpg,AFNE17.jpg,AFSA20.jpg,AFNE17.jpg,FN,3,num_2,32,num_6,1.3166981953,,,2017_Jul_05_1708,59.9984989784,MAFE4ImagesEEG,001,200826,
AFNE01.JPG,AFNE01.JPG,AFNE01.JPG,AFNE01.JPG,AFNE01.JPG,AFNE01.JPG,,,,,5,8,58,8,,,,,,,,,,,,,,,,,,,AFNE01.jpg,AFNE20.jpg,AFSA03.jpg,AFSA18.jpg,AFSA18.jpg,FS,4,num_4,32,num_2,0.400172814261,,,2017_Jul_05_1708,59.9984989784,MAFE4ImagesEEG,001,200826,
AFNE01.JPG,AFNE01.JPG,AFNE01.JPG,AFNE01.JPG,AFNE01.JPG,AFNE01.JPG,,,,,5,9,59,0,,,,,,,,,,,,,,,,,,,AFSA20.jpg,AFNE13.jpg,AFNE15.jpg,AFSA06.jpg,AFSA20.jpg,FS,4,num_8,32,num_6,1.20012040553,,,2017_Jul_05_1708,59.9984989784,MAFE4ImagesEEG,001,200826,
,,,,,,,,,,,,,,,,,,,,,,,,,,,,,,,,,,,,,,,,,,,space,13.6157583012,2017_Jul_05_1708,59.9984989784,MAFE4ImagesEEG,001,200826,
AFNE01.JPG,AFNE01.JPG,AFNE01.JPG,AFNE01.JPG,AFNE01.JPG,AFNE01.JPG,,,,,,,,,0,0,0,2,,,,,,,,,,,,,,,AMNE01.jpg,AMNE18.jpg,AMSA06.jpg,AMSA17.jpg,AMNE01.jpg,MN,1,num_8,32,num_6,0.850101578049,,,2017_Jul_05_1708,59.9984989784,MAFE4ImagesEEG,001,200826,
AFNE01.JPG,AFNE01.JPG,AFNE01.JPG,AFNE01.JPG,AFNE01.JPG,AFNE01.JPG,,,,,,,,,0,1,1,1,,,,,,,,,,,,,,,AMSA18.jpg,AMNE20.jpg,AMSA05.jpg,AMNE07.jpg,AMNE20.jpg,MN,1,num_6,32,num_4,0.98342259496,,,2017_Jul_05_1708,59.9984989784,MAFE4ImagesEEG,001,200826,
AFNE01.JPG,AFNE01.JPG,AFNE01.JPG,AFNE01.JPG,AFNE01.JPG,AFNE01.JPG,,,,,,,,,0,2,2,4,,,,,,,,,,,,,,,AMNE10.jpg,AMSA01.jpg,AMSA02.jpg,AMNE06.jpg,AMSA01.jpg,MS,2,num_6,32,num_8,0.850100615877,,,2017_Jul_05_1708,59.9984989784,MAFE4ImagesEEG,001,200826,
AFNE01.JPG,AFNE01.JPG,AFNE01.JPG,AFNE01.JPG,AFNE01.JPG,AFNE01.JPG,,,,,,,,,0,3,3,0,,,,,,,,,,,,,,,AMSA08.jpg,AMSA06.jpg,AMNE07.jpg,AMNE13.jpg,AMSA06.jpg,MS,2,num_6,32,num_2,0.833520645043,,,2017_Jul_05_1708,59.9984989784,MAFE4ImagesEEG,001,200826,
AFNE01.JPG,AFNE01.JPG,AFNE01.JPG,AFNE01.JPG,AFNE01.JPG,AFNE01.JPG,,,,,,,,,0,4,4,7,,,,,,,,,,,,,,,AMNE01.jpg,AMSA14.jpg,AMNE20.jpg,AMSA11.jpg,AMSA11.jpg,MS,2,num_4,16,num_4,0.566732033272,,,2017_Jul_05_1708,59.9984989784,MAFE4ImagesEEG,001,200826,
AFNE01.JPG,AFNE01.JPG,AFNE01.JPG,AFNE01.JPG,AFNE01.JPG,AFNE01.JPG,,,,,,,,,0,5,5,8,,,,,,,,,,,,,,,AMSA13.jpg,AMNE02.jpg,AMSA18.jpg,AMNE10.jpg,AMSA13.jpg,MS,2,num_8,32,num_6,0.550217493321,,,2017_Jul_05_1708,59.9984989784,MAFE4ImagesEEG,001,200826,
AFNE01.JPG,AFNE01.JPG,AFNE01.JPG,AFNE01.JPG,AFNE01.JPG,AFNE01.JPG,,,,,,,,,0,6,6,6,,,,,,,,,,,,,,,AMNE20.jpg,AMNE10.jpg,AMSA19.jpg,AMSA04.jpg,AMSA04.jpg,MS,2,num_4,16,num_4,0.433466824936,,,2017_Jul_05_1708,59.9984989784,MAFE4ImagesEEG,001,200826,
AFNE01.JPG,AFNE01.JPG,AFNE01.JPG,AFNE01.JPG,AFNE01.JPG,AFNE01.JPG,,,,,,,,,0,7,7,9,,,,,,,,,,,,,,,AMSA18.jpg,AMNE02.jpg,AMSA09.jpg,AMNE14.jpg,AMSA18.jpg,MS,2,num_8,32,num_4,0.833472213359,,,2017_Jul_05_1708,59.9984989784,MAFE4ImagesEEG,001,200826,
AFNE01.JPG,AFNE01.JPG,AFNE01.JPG,AFNE01.JPG,AFNE01.JPG,AFNE01.JPG,,,,,,,,,0,8,8,5,,,,,,,,,,,,,,,AMSA03.jpg,AMNE19.jpg,AMSA06.jpg,AMNE03.jpg,AMNE19.jpg,MN,1,num_6,32,num_8,0.966722346959,,,2017_Jul_05_1708,59.9984989784,MAFE4ImagesEEG,001,200826,
AFNE01.JPG,AFNE01.JPG,AFNE01.JPG,AFNE01.JPG,AFNE01.JPG,AFNE01.JPG,,,,,,,,,0,9,9,3,,,,,,,,,,,,,,,AMSA20.jpg,AMNE12.jpg,AMNE14.jpg,AMSA02.jpg,AMSA20.jpg,MS,2,num_8,32,num_4,0.600217525382,,,2017_Jul_05_1708,59.9984989784,MAFE4ImagesEEG,001,200826,
AFNE01.JPG,AFNE01.JPG,AFNE01.JPG,AFNE01.JPG,AFNE01.JPG,AFNE01.JPG,,,,,,,,,1,0,10,9,,,,,,,,,,,,,,,AMSA13.jpg,AMNE02.jpg,AMNE05.jpg,AMSA09.jpg,AMNE05.jpg,MN,1,num_2,32,num_6,0.616775685921,,,2017_Jul_05_1708,59.9984989784,MAFE4ImagesEEG,001,200826,
AFNE01.JPG,AFNE01.JPG,AFNE01.JPG,AFNE01.JPG,AFNE01.JPG,AFNE01.JPG,,,,,,,,,1,1,11,4,,,,,,,,,,,,,,,AMNE12.jpg,AMNE13.jpg,AMSA07.jpg,AMSA16.jpg,AMNE13.jpg,MN,1,num_6,32,num_4,0.366835503723,,,2017_Jul_05_1708,59.9984989784,MAFE4ImagesEEG,001,200826,
AFNE01.JPG,AFNE01.JPG,AFNE01.JPG,AFNE01.JPG,AFNE01.JPG,AFNE01.JPG,,,,,,,,,1,2,12,7,,,,,,,,,,,,,,,AMNE04.jpg,AMSA09.jpg,AMNE01.jpg,AMSA01.jpg,AMSA09.jpg,MS,2,num_6,16,num_6,0.666456261766,,,2017_Jul_05_1708,59.9984989784,MAFE4ImagesEEG,001,200826,
AFNE01.JPG,AFNE01.JPG,AFNE01.JPG,AFNE01.JPG,AFNE01.JPG,AFNE01.JPG,,,,,,,,,1,3,13,6,,,,,,,,,,,,,,,AMNE02.jpg,AMNE12.jpg,AMSA18.jpg,AMSA11.jpg,AMNE12.jpg,MN,1,num_6,32,num_4,0.416789670126,,,2017_Jul_05_1708,59.9984989784,MAFE4ImagesEEG,001,200826,
AFNE01.JPG,AFNE01.JPG,AFNE01.JPG,AFNE01.JPG,AFNE01.JPG,AFNE01.JPG,,,,,,,,,1,4,14,8,,,,,,,,,,,,,,,AMNE19.jpg,AMNE01.jpg,AMSA16.jpg,AMSA20.jpg,AMSA20.jpg,MS,2,num_4,32,num_8,0.58355352073,,,2017_Jul_05_1708,59.9984989784,MAFE4ImagesEEG,001,200826,
AFNE01.JPG,AFNE01.JPG,AFNE01.JPG,AFNE01.JPG,AFNE01.JPG,AFNE01.JPG,,,,,,,,,1,5,15,1,,,,,,,,,,,,,,,AMNE09.jpg,AMSA19.jpg,AMSA05.jpg,AMNE01.jpg,AMSA05.jpg,MS,2,num_2,32,num_4,0.366874313215,,,2017_Jul_05_1708,59.9984989784,MAFE4ImagesEEG,001,200826,
AFNE01.JPG,AFNE01.JPG,AFNE01.JPG,AFNE01.JPG,AFNE01.JPG,AFNE01.JPG,,,,,,,,,1,6,16,2,,,,,,,,,,,,,,,AMSA04.jpg,AMNE14.jpg,AMNE04.jpg,AMSA14.jpg,AMNE14.jpg,MN,1,num_6,16,num_6,0.416768822121,,,2017_Jul_05_1708,59.9984989784,MAFE4ImagesEEG,001,200826,
AFNE01.JPG,AFNE01.JPG,AFNE01.JPG,AFNE01.JPG,AFNE01.JPG,AFNE01.JPG,,,,,,,,,1,7,17,3,,,,,,,,,,,,,,,AMSA12.jpg,AMSA20.jpg,AMNE13.jpg,AMNE01.jpg,AMNE13.jpg,MN,1,num_2,32,num_8,0.800109885284,,,2017_Jul_05_1708,59.9984989784,MAFE4ImagesEEG,001,200826,
AFNE01.JPG,AFNE01.JPG,AFNE01.JPG,AFNE01.JPG,AFNE01.JPG,AFNE01.JPG,,,,,,,,,1,8,18,5,,,,,,,,,,,,,,,AMSA14.jpg,AMSA07.jpg,AMNE14.jpg,AMNE07.jpg,AMSA14.jpg,MS,2,num_8,16,num_8,1.15007579071,,,2017_Jul_05_1708,59.9984989784,MAFE4ImagesEEG,001,200826,
AFNE01.JPG,AFNE01.JPG,AFNE01.JPG,AFNE01.JPG,AFNE01.JPG,AFNE01.JPG,,,,,,,,,1,9,19,0,,,,,,,,,,,,,,,AMNE16.jpg,AMSA12.jpg,AMSA17.jpg,AMNE02.jpg,AMSA12.jpg,MS,2,num_6,16,num_6,0.383473528433,,,2017_Jul_05_1708,59.9984989784,MAFE4ImagesEEG,001,200826,
AFNE01.JPG,AFNE01.JPG,AFNE01.JPG,AFNE01.JPG,AFNE01.JPG,AFNE01.JPG,,,,,,,,,2,0,20,2,,,,,,,,,,,,,,,AMNE06.jpg,AMSA02.jpg,AMNE02.jpg,AMSA15.jpg,AMSA15.jpg,MS,2,num_4,16,num_4,0.616788515472,,,2017_Jul_05_1708,59.9984989784,MAFE4ImagesEEG,001,200826,
AFNE01.JPG,AFNE01.JPG,AFNE01.JPG,AFNE01.JPG,AFNE01.JPG,AFNE01.JPG,,,,,,,,,2,1,21,0,,,,,,,,,,,,,,,AMNE16.jpg,AMSA13.jpg,AMNE06.jpg,AMSA15.jpg,AMSA13.jpg,MS,2,num_6,32,num_4,0.483578795101,,,2017_Jul_05_1708,59.9984989784,MAFE4ImagesEEG,001,200826,
AFNE01.JPG,AFNE01.JPG,AFNE01.JPG,AFNE01.JPG,AFNE01.JPG,AFNE01.JPG,,,,,,,,,2,2,22,9,,,,,,,,,,,,,,,AMSA06.jpg,AMSA14.jpg,AMNE15.jpg,AMNE11.jpg,AMNE15.jpg,MN,1,num_2,16,num_2,1.03344026778,,,2017_Jul_05_1708,59.9984989784,MAFE4ImagesEEG,001,200826,
AFNE01.JPG,AFNE01.JPG,AFNE01.JPG,AFNE01.JPG,AFNE01.JPG,AFNE01.JPG,,,,,,,,,2,3,23,4,,,,,,,,,,,,,,,AMSA11.jpg,AMSA01.jpg,AMNE11.jpg,AMNE09.jpg,AMNE11.jpg,MN,1,num_2,16,num_2,0.550176117918,,,2017_Jul_05_1708,59.9984989784,MAFE4ImagesEEG,001,200826,
AFNE01.JPG,AFNE01.JPG,AFNE01.JPG,AFNE01.JPG,AFNE01.JPG,AFNE01.JPG,,,,,,,,,2,4,24,6,,,,,,,,,,,,,,,AMNE14.jpg,AMSA09.jpg,AMSA18.jpg,AMNE11.jpg,AMSA18.jpg,MS,2,num_2,32,num_6,0.833191245911,,,2017_Jul_05_1708,59.9984989784,MAFE4ImagesEEG,001,200826,
AFNE01.JPG,AFNE01.JPG,AFNE01.JPG,AFNE01.JPG,AFNE01.JPG,AFNE01.JPG,,,,,,,,,2,5,25,3,,,,,,,,,,,,,,,AMSA19.jpg,AMNE08.jpg,AMSA08.jpg,AMNE12.jpg,AMSA08.jpg,MS,2,num_2,32,num_6,0.450134678395,,,2017_Jul_05_1708,59.9984989784,MAFE4ImagesEEG,001,200826,
AFNE01.JPG,AFNE01.JPG,AFNE01.JPG,AFNE01.JPG,AFNE01.JPG,AFNE01.JPG,,,,,,,,,2,6,26,7,,,,,,,,,,,,,,,AMNE08.jpg,AMNE17.jpg,AMSA04.jpg,AMSA05.jpg,AMNE08.jpg,MN,1,num_8,32,num_4,0.333535078331,,,2017_Jul_05_1708,59.9984989784,MAFE4ImagesEEG,001,200826,
AFNE01.JPG,AFNE01.JPG,AFNE01.JPG,AFNE01.JPG,AFNE01.JPG,AFNE01.JPG,,,,,,,,,2,7,27,1,,,,,,,,,,,,,,,AMSA16.jpg,AMSA12.jpg,AMNE09.jpg,AMNE15.jpg,AMSA16.jpg,MS,2,num_8,32,num_6,1.00011706981,,,2017_Jul_05_1708,59.9984989784,MAFE4ImagesEEG,001,200826,
AFNE01.JPG,AFNE01.JPG,AFNE01.JPG,AFNE01.JPG,AFNE01.JPG,AFNE01.JPG,,,,,,,,,2,8,28,8,,,,,,,,,,,,,,,AMNE11.jpg,AMSA17.jpg,AMSA12.jpg,AMNE06.jpg,AMNE06.jpg,MN,1,num_4,32,num_6,0.450140130939,,,2017_Jul_05_1708,59.9984989784,MAFE4ImagesEEG,001,200826,
AFNE01.JPG,AFNE01.JPG,AFNE01.JPG,AFNE01.JPG,AFNE01.JPG,AFNE01.JPG,,,,,,,,,2,9,29,5,,,,,,,,,,,,,,,AMSA16.jpg,AMNE04.jpg,AMSA09.jpg,AMNE19.jpg,AMNE19.jpg,MN,1,num_4,32,num_8,0.600230354932,,,2017_Jul_05_1708,59.9984989784,MAFE4ImagesEEG,001,200826,
AFNE01.JPG,AFNE01.JPG,AFNE01.JPG,AFNE01.JPG,AFNE01.JPG,AFNE01.JPG,,,,,,,,,3,0,30,9,,,,,,,,,,,,,,,AMSA01.jpg,AMSA10.jpg,AMNE19.jpg,AMNE17.jpg,AMNE17.jpg,MN,1,num_4,32,num_6,0.233502940158,,,2017_Jul_05_1708,59.9984989784,MAFE4ImagesEEG,001,200826,
AFNE01.JPG,AFNE01.JPG,AFNE01.JPG,AFNE01.JPG,AFNE01.JPG,AFNE01.JPG,,,,,,,,,3,1,31,4,,,,,,,,,,,,,,,AMSA07.jpg,AMNE01.jpg,AMNE13.jpg,AMSA19.jpg,AMSA07.jpg,MS,2,num_8,32,num_4,0.700151838013,,,2017_Jul_05_1708,59.9984989784,MAFE4ImagesEEG,001,200826,
AFNE01.JPG,AFNE01.JPG,AFNE01.JPG,AFNE01.JPG,AFNE01.JPG,AFNE01.JPG,,,,,,,,,3,2,32,2,,,,,,,,,,,,,,,AMSA08.jpg,AMNE17.jpg,AMSA09.jpg,AMNE01.jpg,AMSA08.jpg,MS,2,num_8,32,num_4,1.33339972643,,,2017_Jul_05_1708,59.9984989784,MAFE4ImagesEEG,001,200826,
AFNE01.JPG,AFNE01.JPG,AFNE01.JPG,AFNE01.JPG,AFNE01.JPG,AFNE01.JPG,,,,,,,,,3,3,33,1,,,,,,,,,,,,,,,AMNE01.jpg,AMSA15.jpg,AMNE20.jpg,AMSA04.jpg,AMNE01.jpg,MN,1,num_8,32,num_6,0.616785307997,,,2017_Jul_05_1708,59.9984989784,MAFE4ImagesEEG,001,200826,
AFNE01.JPG,AFNE01.JPG,AFNE01.JPG,AFNE01.JPG,AFNE01.JPG,AFNE01.JPG,,,,,,,,,3,4,34,6,,,,,,,,,,,,,,,AMSA16.jpg,AMSA09.jpg,AMNE15.jpg,AMNE20.jpg,AMNE15.jpg,MN,1,num_2,32,num_6,0.800100583816,,,2017_Jul_05_1708,59.9984989784,MAFE4ImagesEEG,001,200826,
AFNE01.JPG,AFNE01.JPG,AFNE01.JPG,AFNE01.JPG,AFNE01.JPG,AFNE01.JPG,,,,,,,,,3,5,35,3,,,,,,,,,,,,,,,AMNE06.jpg,AMSA05.jpg,AMSA07.jpg,AMNE11.jpg,AMNE11.jpg,MN,1,num_4,32,num_6,0.483472630382,,,2017_Jul_05_1708,59.9984989784,MAFE4ImagesEEG,001,200826,
AFNE01.JPG,AFNE01.JPG,AFNE01.JPG,AFNE01.JPG,AFNE01.JPG,AFNE01.JPG,,,,,,,,,3,6,36,8,,,,,,,,,,,,,,,AMSA01.jpg,AMNE03.jpg,AMSA10.jpg,AMNE10.jpg,AMNE10.jpg,MN,1,num_4,16,num_4,0.383267934551,,,2017_Jul_05_1708,59.9984989784,MAFE4ImagesEEG,001,200826,
AFNE01.JPG,AFNE01.JPG,AFNE01.JPG,AFNE01.JPG,AFNE01.JPG,AFNE01.JPG,,,,,,,,,3,7,37,7,,,,,,,,,,,,,,,AMNE14.jpg,AMSA15.jpg,AMNE04.jpg,AMSA20.jpg,AMSA15.jpg,MS,2,num_6,16,num_6,1.00007826043,,,2017_Jul_05_1708,59.9984989784,MAFE4ImagesEEG,001,200826,
AFNE01.JPG,AFNE01.JPG,AFNE01.JPG,AFNE01.JPG,AFNE01.JPG,AFNE01.JPG,,,,,,,,,3,8,38,0,,,,,,,,,,,,,,,AMNE14.jpg,AMNE09.jpg,AMSA12.jpg,AMSA07.jpg,AMSA12.jpg,MS,2,num_2,32,num_6,0.583455053857,,,2017_Jul_05_1708,59.9984989784,MAFE4ImagesEEG,001,200826,
AFNE01.JPG,AFNE01.JPG,AFNE01.JPG,AFNE01.JPG,AFNE01.JPG,AFNE01.JPG,,,,,,,,,3,9,39,5,,,,,,,,,,,,,,,AMNE02.jpg,AMSA04.jpg,AMNE07.jpg,AMSA15.jpg,AMSA04.jpg,MS,2,num_6,32,num_8,0.516759584774,,,2017_Jul_05_1708,59.9984989784,MAFE4ImagesEEG,001,200826,
AFNE01.JPG,AFNE01.JPG,AFNE01.JPG,AFNE01.JPG,AFNE01.JPG,AFNE01.JPG,,,,,,,,,4,0,40,3,,,,,,,,,,,,,,,AMSA06.jpg,AMNE01.jpg,AMNE14.jpg,AMSA08.jpg,AMNE14.jpg,MN,1,num_2,32,num_6,0.350148085272,,,2017_Jul_05_1708,59.9984989784,MAFE4ImagesEEG,001,200826,
AFNE01.JPG,AFNE01.JPG,AFNE01.JPG,AFNE01.JPG,AFNE01.JPG,AFNE01.JPG,,,,,,,,,4,1,41,6,,,,,,,,,,,,,,,AMNE03.jpg,AMSA16.jpg,AMSA07.jpg,AMNE10.jpg,AMSA07.jpg,MS,2,num_2,32,num_4,0.266732803197,,,2017_Jul_05_1708,59.9984989784,MAFE4ImagesEEG,001,200826,
AFNE01.JPG,AFNE01.JPG,AFNE01.JPG,AFNE01.JPG,AFNE01.JPG,AFNE01.JPG,,,,,,,,,4,2,42,9,,,,,,,,,,,,,,,AMSA16.jpg,AMNE20.jpg,AMNE01.jpg,AMSA11.jpg,AMNE01.jpg,MN,1,num_2,32,num_6,0.366780657438,,,2017_Jul_05_1708,59.9984989784,MAFE4ImagesEEG,001,200826,
AFNE01.JPG,AFNE01.JPG,AFNE01.JPG,AFNE01.JPG,AFNE01.JPG,AFNE01.JPG,,,,,,,,,4,3,43,4,,,,,,,,,,,,,,,AMNE18.jpg,AMNE01.jpg,AMSA17.jpg,AMSA13.jpg,AMNE01.jpg,MN,1,num_6,16,num_6,0.533489982365,,,2017_Jul_05_1708,59.9984989784,MAFE4ImagesEEG,001,200826,
AFNE01.JPG,AFNE01.JPG,AFNE01.JPG,AFNE01.JPG,AFNE01.JPG,AFNE01.JPG,,,,,,,,,4,4,44,0,,,,,,,,,,,,,,,AMSA04.jpg,AMSA15.jpg,AMNE04.jpg,AMNE06.jpg,AMNE04.jpg,MN,1,num_2,32,num_8,0.466791626648,,,2017_Jul_05_1708,59.9984989784,MAFE4ImagesEEG,001,200826,
AFNE01.JPG,AFNE01.JPG,AFNE01.JPG,AFNE01.JPG,AFNE01.JPG,AFNE01.JPG,,,,,,,,,4,5,45,2,,,,,,,,,,,,,,,AMSA11.jpg,AMSA02.jpg,AMNE08.jpg,AMNE20.jpg,AMNE20.jpg,MN,1,num_4,16,num_4,0.950123131857,,,2017_Jul_05_1708,59.9984989784,MAFE4ImagesEEG,001,200826,
AFNE01.JPG,AFNE01.JPG,AFNE01.JPG,AFNE01.JPG,AFNE01.JPG,AFNE01.JPG,,,,,,,,,4,6,46,1,,,,,,,,,,,,,,,AMSA05.jpg,AMNE04.jpg,AMNE12.jpg,AMSA17.jpg,AMSA05.jpg,MS,2,num_8,16,num_8,1.03350794374,,,2017_Jul_05_1708,59.9984989784,MAFE4ImagesEEG,001,200826,
AFNE01.JPG,AFNE01.JPG,AFNE01.JPG,AFNE01.JPG,AFNE01.JPG,AFNE01.JPG,,,,,,,,,4,7,47,7,,,,,,,,,,,,,,,AMSA04.jpg,AMSA01.jpg,AMNE09.jpg,AMNE13.jpg,AMSA04.jpg,MS,2,num_8,32,num_6,0.633444822277,,,2017_Jul_05_1708,59.9984989784,MAFE4ImagesEEG,001,200826,
AFNE01.JPG,AFNE01.JPG,AFNE01.JPG,AFNE01.JPG,AFNE01.JPG,AFNE01.JPG,,,,,,,,,4,8,48,5,,,,,,,,,,,,,,,AMSA08.jpg,AMSA13.jpg,AMNE03.jpg,AMNE13.jpg,AMNE13.jpg,MN,1,num_4,32,num_8,0.716441860539,,,2017_Jul_05_1708,59.9984989784,MAFE4ImagesEEG,001,200826,
AFNE01.JPG,AFNE01.JPG,AFNE01.JPG,AFNE01.JPG,AFNE01.JPG,AFNE01.JPG,,,,,,,,,4,9,49,8,,,,,,,,,,,,,,,AMNE05.jpg,AMSA14.jpg,AMNE18.jpg,AMSA09.jpg,AMSA09.jpg,MS,2,num_4,32,num_6,0.800108281546,,,2017_Jul_05_1708,59.9984989784,MAFE4ImagesEEG,001,200826,
AFNE01.JPG,AFNE01.JPG,AFNE01.JPG,AFNE01.JPG,AFNE01.JPG,AFNE01.JPG,,,,,,,,,5,0,50,0,,,,,,,,,,,,,,,AMSA14.jpg,AMNE06.jpg,AMSA11.jpg,AMNE13.jpg,AMNE06.jpg,MN,1,num_6,16,num_6,0.583462110138,,,2017_Jul_05_1708,59.9984989784,MAFE4ImagesEEG,001,200826,
AFNE01.JPG,AFNE01.JPG,AFNE01.JPG,AFNE01.JPG,AFNE01.JPG,AFNE01.JPG,,,,,,,,,5,1,51,1,,,,,,,,,,,,,,,AMSA10.jpg,AMSA04.jpg,AMNE12.jpg,AMNE10.jpg,AMNE12.jpg,MN,1,num_2,32,num_4,0.433439882821,,,2017_Jul_05_1708,59.9984989784,MAFE4ImagesEEG,001,200826,
AFNE01.JPG,AFNE01.JPG,AFNE01.JPG,AFNE01.JPG,AFNE01.JPG,AFNE01.JPG,,,,,,,,,5,2,52,6,,,,,,,,,,,,,,,AMSA04.jpg,AMSA17.jpg,AMNE20.jpg,AMNE12.jpg,AMSA17.jpg,MS,2,num_6,32,num_4,0.750117550953,,,2017_Jul_05_1708,59.9984989784,MAFE4ImagesEEG,001,200826,
AFNE01.JPG,AFNE01.JPG,AFNE01.JPG,AFNE01.JPG,AFNE01.JPG,AFNE01.JPG,,,,,,,,,5,3,53,3,,,,,,,,,,,,,,,AMSA08.jpg,AMNE09.jpg,AMSA07.jpg,AMNE02.jpg,AMSA08.jpg,MS,2,num_8,32,num_6,0.850099653588,,,2017_Jul_05_1708,59.9984989784,MAFE4ImagesEEG,001,200826,
AFNE01.JPG,AFNE01.JPG,AFNE01.JPG,AFNE01.JPG,AFNE01.JPG,AFNE01.JPG,,,,,,,,,5,4,54,9,,,,,,,,,,,,,,,AMNE20.jpg,AMSA03.jpg,AMSA09.jpg,AMNE01.jpg,AMNE20.jpg,MN,1,num_8,16,num_8,1.96663446445,,,2017_Jul_05_1708,59.9984989784,MAFE4ImagesEEG,001,200826,
AFNE01.JPG,AFNE01.JPG,AFNE01.JPG,AFNE01.JPG,AFNE01.JPG,AFNE01.JPG,,,,,,,,,5,5,55,8,,,,,,,,,,,,,,,AMNE01.jpg,AMSA02.jpg,AMNE11.jpg,AMSA07.jpg,AMNE11.jpg,MN,1,num_2,32,num_6,1.23345611221,,,2017_Jul_05_1708,59.9984989784,MAFE4ImagesEEG,001,200826,
AFNE01.JPG,AFNE01.JPG,AFNE01.JPG,AFNE01.JPG,AFNE01.JPG,AFNE01.JPG,,,,,,,,,5,6,56,7,,,,,,,,,,,,,,,AMSA06.jpg,AMNE05.jpg,AMNE07.jpg,AMSA20.jpg,AMNE07.jpg,MN,1,num_2,32,num_6,0.783445880748,,,2017_Jul_05_1708,59.9984989784,MAFE4ImagesEEG,001,200826,
AFNE01.JPG,AFNE01.JPG,AFNE01.JPG,AFNE01.JPG,AFNE01.JPG,AFNE01.JPG,,,,,,,,,5,7,57,5,,,,,,,,,,,,,,,AMSA15.jpg,AMNE06.jpg,AMNE20.jpg,AMSA10.jpg,AMNE20.jpg,MN,1,num_2,32,num_6,1.2501473797,,,2017_Jul_05_1708,59.9984989784,MAFE4ImagesEEG,001,200826,
AFNE01.JPG,AFNE01.JPG,AFNE01.JPG,AFNE01.JPG,AFNE01.JPG,AFNE01.JPG,,,,,,,,,5,8,58,2,,,,,,,,,,,,,,,AMNE11.jpg,AMNE20.jpg,AMSA04.jpg,AMSA13.jpg,AMNE20.jpg,MN,1,num_6,32,num_8,2.08345858194,,,2017_Jul_05_1708,59.9984989784,MAFE4ImagesEEG,001,200826,
AFNE01.JPG,AFNE01.JPG,AFNE01.JPG,AFNE01.JPG,AFNE01.JPG,AFNE01.JPG,,,,,,,,,5,9,59,4,,,,,,,,,,,,,,,AMNE02.jpg,AMSA14.jpg,AMNE14.jpg,AMSA11.jpg,AMSA11.jpg,MS,2,num_4,32,num_6,0.300174353877,,,2017_Jul_05_1708,59.9984989784,MAFE4ImagesEEG,001,200826,
,,,,,,,,,,,,,,,,,,,,,,,,,,,,,,,,,,,,,,,,,,,space,16.0155051738,2017_Jul_05_1708,59.9984989784,MAFE4ImagesEEG,001,200826,
AFNE01.JPG,AFNE01.JPG,AFNE01.JPG,AFNE01.JPG,AFNE01.JPG,AFNE01.JPG,,,,,,,,,,,,,0,0,0,9,,,,,,,,,,,AFNE19.jpg,AFNE02.jpg,AFSA07.jpg,AFSA17.jpg,AFSA17.jpg,FS,4,num_4,16,num_4,0.383497263072,,,2017_Jul_05_1708,59.9984989784,MAFE4ImagesEEG,001,200826,
AFNE01.JPG,AFNE01.JPG,AFNE01.JPG,AFNE01.JPG,AFNE01.JPG,AFNE01.JPG,,,,,,,,,,,,,0,1,1,3,,,,,,,,,,,AFSA07.jpg,AFNE09.jpg,AFNE02.jpg,AFSA01.jpg,AFNE02.jpg,FN,3,num_2,32,num_6,0.48348096956,,,2017_Jul_05_1708,59.9984989784,MAFE4ImagesEEG,001,200826,
AFNE01.JPG,AFNE01.JPG,AFNE01.JPG,AFNE01.JPG,AFNE01.JPG,AFNE01.JPG,,,,,,,,,,,,,0,2,2,5,,,,,,,,,,,AFSA19.jpg,AFNE03.jpg,AFSA02.jpg,AFNE01.jpg,AFSA19.jpg,FS,4,num_8,32,num_4,0.983447612729,,,2017_Jul_05_1708,59.9984989784,MAFE4ImagesEEG,001,200826,
AFNE01.JPG,AFNE01.JPG,AFNE01.JPG,AFNE01.JPG,AFNE01.JPG,AFNE01.JPG,,,,,,,,,,,,,0,3,3,1,,,,,,,,,,,AFNE04.jpg,AFSA07.jpg,AFNE11.jpg,AFSA05.jpg,AFSA07.jpg,FS,4,num_6,16,num_6,0.566791370045,,,2017_Jul_05_1708,59.9984989784,MAFE4ImagesEEG,001,200826,
AFNE01.JPG,AFNE01.JPG,AFNE01.JPG,AFNE01.JPG,AFNE01.JPG,AFNE01.JPG,,,,,,,,,,,,,0,4,4,6,,,,,,,,,,,AFNE19.jpg,AFSA16.jpg,AFNE09.jpg,AFSA19.jpg,AFSA16.jpg,FS,4,num_6,16,num_6,0.60015754716,,,2017_Jul_05_1708,59.9984989784,MAFE4ImagesEEG,001,200826,
AFNE01.JPG,AFNE01.JPG,AFNE01.JPG,AFNE01.JPG,AFNE01.JPG,AFNE01.JPG,,,,,,,,,,,,,0,5,5,4,,,,,,,,,,,AFSA08.jpg,AFNE09.jpg,AFNE02.jpg,AFSA07.jpg,AFNE02.jpg,FN,3,num_2,32,num_6,0.583570519928,,,2017_Jul_05_1708,59.9984989784,MAFE4ImagesEEG,001,200826,
AFNE01.JPG,AFNE01.JPG,AFNE01.JPG,AFNE01.JPG,AFNE01.JPG,AFNE01.JPG,,,,,,,,,,,,,0,6,6,7,,,,,,,,,,,AFNE10.jpg,AFNE11.jpg,AFSA18.jpg,AFSA04.jpg,AFSA18.jpg,FS,4,num_2,32,num_6,0.750138719683,,,2017_Jul_05_1708,59.9984989784,MAFE4ImagesEEG,001,200826,
AFNE01.JPG,AFNE01.JPG,AFNE01.JPG,AFNE01.JPG,AFNE01.JPG,AFNE01.JPG,,,,,,,,,,,,,0,7,7,0,,,,,,,,,,,AFSA02.jpg,AFNE20.jpg,AFSA10.jpg,AFNE14.jpg,AFSA10.jpg,FS,4,num_2,32,num_4,0.50020976353,,,2017_Jul_05_1708,59.9984989784,MAFE4ImagesEEG,001,200826,
AFNE01.JPG,AFNE01.JPG,AFNE01.JPG,AFNE01.JPG,AFNE01.JPG,AFNE01.JPG,,,,,,,,,,,,,0,8,8,2,,,,,,,,,,,AFSA13.jpg,AFNE10.jpg,AFNE20.jpg,AFSA03.jpg,AFSA03.jpg,FS,4,num_4,32,num_8,0.583515032078,,,2017_Jul_05_1708,59.9984989784,MAFE4ImagesEEG,001,200826,
AFNE01.JPG,AFNE01.JPG,AFNE01.JPG,AFNE01.JPG,AFNE01.JPG,AFNE01.JPG,,,,,,,,,,,,,0,9,9,8,,,,,,,,,,,AFNE15.jpg,AFSA10.jpg,AFSA09.jpg,AFNE07.jpg,AFSA09.jpg,FS,4,num_2,32,num_4,0.333491778467,,,2017_Jul_05_1708,59.9984989784,MAFE4ImagesEEG,001,200826,
AFNE01.JPG,AFNE01.JPG,AFNE01.JPG,AFNE01.JPG,AFNE01.JPG,AFNE01.JPG,,,,,,,,,,,,,1,0,10,3,,,,,,,,,,,AFNE11.jpg,AFSA02.jpg,AFSA01.jpg,AFNE06.jpg,AFNE06.jpg,FN,3,num_4,16,num_4,0.450185675872,,,2017_Jul_05_1708,59.9984989784,MAFE4ImagesEEG,001,200826,
AFNE01.JPG,AFNE01.JPG,AFNE01.JPG,AFNE01.JPG,AFNE01.JPG,AFNE01.JPG,,,,,,,,,,,,,1,1,11,9,,,,,,,,,,,AFNE07.jpg,AFSA07.jpg,AFSA15.jpg,AFNE02.jpg,AFSA07.jpg,FS,4,num_6,16,num_6,0.500131823705,,,2017_Jul_05_1708,59.9984989784,MAFE4ImagesEEG,001,200826,
AFNE01.JPG,AFNE01.JPG,AFNE01.JPG,AFNE01.JPG,AFNE01.JPG,AFNE01.JPG,,,,,,,,,,,,,1,2,12,7,,,,,,,,,,,AFSA11.jpg,AFNE03.jpg,AFNE13.jpg,AFSA03.jpg,AFSA11.jpg,FS,4,num_8,32,num_4,0.40021034074,,,2017_Jul_05_1708,59.9984989784,MAFE4ImagesEEG,001,200826,
AFNE01.JPG,AFNE01.JPG,AFNE01.JPG,AFNE01.JPG,AFNE01.JPG,AFNE01.JPG,,,,,,,,,,,,,1,3,13,5,,,,,,,,,,,AFSA17.jpg,AFNE13.jpg,AFSA16.jpg,AFNE19.jpg,AFNE13.jpg,FN,3,num_6,32,num_4,0.383486999432,,,2017_Jul_05_1708,59.9984989784,MAFE4ImagesEEG,001,200826,
AFNE01.JPG,AFNE01.JPG,AFNE01.JPG,AFNE01.JPG,AFNE01.JPG,AFNE01.JPG,,,,,,,,,,,,,1,4,14,6,,,,,,,,,,,AFNE02.jpg,AFNE13.jpg,AFSA02.jpg,AFSA03.jpg,AFSA02.jpg,FS,4,num_2,32,num_8,0.300195522606,,,2017_Jul_05_1708,59.9984989784,MAFE4ImagesEEG,001,200826,
AFNE01.JPG,AFNE01.JPG,AFNE01.JPG,AFNE01.JPG,AFNE01.JPG,AFNE01.JPG,,,,,,,,,,,,,1,5,15,1,,,,,,,,,,,AFSA04.jpg,AFNE12.jpg,AFNE04.jpg,AFSA07.jpg,AFSA07.jpg,FS,4,num_4,32,num_6,0.866767507046,,,2017_Jul_05_1708,59.9984989784,MAFE4ImagesEEG,001,200826,
AFNE01.JPG,AFNE01.JPG,AFNE01.JPG,AFNE01.JPG,AFNE01.JPG,AFNE01.JPG,,,,,,,,,,,,,1,6,16,2,,,,,,,,,,,AFNE20.jpg,AFSA04.jpg,AFSA14.jpg,AFNE02.jpg,AFSA14.jpg,FS,4,num_2,32,num_4,0.833450082457,,,2017_Jul_05_1708,59.9984989784,MAFE4ImagesEEG,001,200826,
AFNE01.JPG,AFNE01.JPG,AFNE01.JPG,AFNE01.JPG,AFNE01.JPG,AFNE01.JPG,,,,,,,,,,,,,1,7,17,0,,,,,,,,,,,AFNE03.jpg,AFNE19.jpg,AFSA20.jpg,AFSA05.jpg,AFNE03.jpg,FN,3,num_8,32,num_6,0.366735753953,,,2017_Jul_05_1708,59.9984989784,MAFE4ImagesEEG,001,200826,
AFNE01.JPG,AFNE01.JPG,AFNE01.JPG,AFNE01.JPG,AFNE01.JPG,AFNE01.JPG,,,,,,,,,,,,,1,8,18,8,,,,,,,,,,,AFSA06.jpg,AFNE01.jpg,AFNE18.jpg,AFSA07.jpg,AFNE18.jpg,FN,3,num_2,32,num_6,0.533515641466,,,2017_Jul_05_1708,59.9984989784,MAFE4ImagesEEG,001,200826,
AFNE01.JPG,AFNE01.JPG,AFNE01.JPG,AFNE01.JPG,AFNE01.JPG,AFNE01.JPG,,,,,,,,,,,,,1,9,19,4,,,,,,,,,,,AFSA17.jpg,AFSA01.jpg,AFNE19.jpg,AFNE18.jpg,AFNE19.jpg,FN,3,num_2,32,num_4,0.366845446755,,,2017_Jul_05_1708,59.9984989784,MAFE4ImagesEEG,001,200826,
AFNE01.JPG,AFNE01.JPG,AFNE01.JPG,AFNE01.JPG,AFNE01.JPG,AFNE01.JPG,,,,,,,,,,,,,2,0,20,5,,,,,,,,,,,AFSA13.jpg,AFNE15.jpg,AFSA17.jpg,AFNE10.jpg,AFNE10.jpg,FN,3,num_4,32,num_6,0.683513492462,,,2017_Jul_05_1708,59.9984989784,MAFE4ImagesEEG,001,200826,
AFNE01.JPG,AFNE01.JPG,AFNE01.JPG,AFNE01.JPG,AFNE01.JPG,AFNE01.JPG,,,,,,,,,,,,,2,1,21,4,,,,,,,,,,,AFSA06.jpg,AFNE02.jpg,AFNE17.jpg,AFSA02.jpg,AFNE17.jpg,FN,3,num_2,32,num_4,0.533457266982,,,2017_Jul_05_1708,59.9984989784,MAFE4ImagesEEG,001,200826,
AFNE01.JPG,AFNE01.JPG,AFNE01.JPG,AFNE01.JPG,AFNE01.JPG,AFNE01.JPG,,,,,,,,,,,,,2,2,22,8,,,,,,,,,,,AFSA05.jpg,AFSA15.jpg,AFNE13.jpg,AFNE14.jpg,AFNE13.jpg,FN,3,num_2,32,num_4,0.383419002872,,,2017_Jul_05_1708,59.9984989784,MAFE4ImagesEEG,001,200826,
AFNE01.JPG,AFNE01.JPG,AFNE01.JPG,AFNE01.JPG,AFNE01.JPG,AFNE01.JPG,,,,,,,,,,,,,2,3,23,6,,,,,,,,,,,AFSA01.jpg,AFNE11.jpg,AFNE09.jpg,AFSA13.jpg,AFSA01.jpg,FS,4,num_8,32,num_6,0.450206523994,,,2017_Jul_05_1708,59.9984989784,MAFE4ImagesEEG,001,200826,
AFNE01.JPG,AFNE01.JPG,AFNE01.JPG,AFNE01.JPG,AFNE01.JPG,AFNE01.JPG,,,,,,,,,,,,,2,4,24,1,,,,,,,,,,,AFSA13.jpg,AFNE16.jpg,AFSA15.jpg,AFNE11.jpg,AFNE11.jpg,FN,3,num_4,16,num_4,0.300152222859,,,2017_Jul_05_1708,59.9984989784,MAFE4ImagesEEG,001,200826,
AFNE01.JPG,AFNE01.JPG,AFNE01.JPG,AFNE01.JPG,AFNE01.JPG,AFNE01.JPG,,,,,,,,,,,,,2,5,25,9,,,,,,,,,,,AFSA16.jpg,AFNE03.jpg,AFNE06.jpg,AFSA19.jpg,AFNE06.jpg,FN,3,num_2,32,num_4,0.300177240511,,,2017_Jul_05_1708,59.9984989784,MAFE4ImagesEEG,001,200826,
AFNE01.JPG,AFNE01.JPG,AFNE01.JPG,AFNE01.JPG,AFNE01.JPG,AFNE01.JPG,,,,,,,,,,,,,2,6,26,2,,,,,,,,,,,AFSA04.jpg,AFSA18.jpg,AFNE02.jpg,AFNE06.jpg,AFNE02.jpg,FN,3,num_2,32,num_4,0.566739410395,,,2017_Jul_05_1708,59.9984989784,MAFE4ImagesEEG,001,200826,
AFNE01.JPG,AFNE01.JPG,AFNE01.JPG,AFNE01.JPG,AFNE01.JPG,AFNE01.JPG,,,,,,,,,,,,,2,7,27,7,,,,,,,,,,,AFSA14.jpg,AFNE06.jpg,AFSA13.jpg,AFNE12.jpg,AFNE12.jpg,FN,3,num_4,32,num_6,0.450157130137,,,2017_Jul_05_1708,59.9984989784,MAFE4ImagesEEG,001,200826,
AFNE01.JPG,AFNE01.JPG,AFNE01.JPG,AFNE01.JPG,AFNE01.JPG,AFNE01.JPG,,,,,,,,,,,,,2,8,28,0,,,,,,,,,,,AFSA03.jpg,AFNE16.jpg,AFNE17.jpg,AFSA17.jpg,AFNE17.jpg,FN,3,num_2,32,num_8,0.616767025902,,,2017_Jul_05_1708,59.9984989784,MAFE4ImagesEEG,001,200826,
AFNE01.JPG,AFNE01.JPG,AFNE01.JPG,AFNE01.JPG,AFNE01.JPG,AFNE01.JPG,,,,,,,,,,,,,2,9,29,3,,,,,,,,,,,AFNE05.jpg,AFNE01.jpg,AFSA01.jpg,AFSA04.jpg,AFNE01.jpg,FN,3,num_6,16,num_6,0.650137693272,,,2017_Jul_05_1708,59.9984989784,MAFE4ImagesEEG,001,200826,
AFNE01.JPG,AFNE01.JPG,AFNE01.JPG,AFNE01.JPG,AFNE01.JPG,AFNE01.JPG,,,,,,,,,,,,,3,0,30,9,,,,,,,,,,,AFNE12.jpg,AFSA17.jpg,AFNE13.jpg,AFSA10.jpg,AFNE12.jpg,FN,3,num_8,16,num_8,1.23336566379,,,2017_Jul_05_1708,59.9984989784,MAFE4ImagesEEG,001,200826,
AFNE01.JPG,AFNE01.JPG,AFNE01.JPG,AFNE01.JPG,AFNE01.JPG,AFNE01.JPG,,,,,,,,,,,,,3,1,31,3,,,,,,,,,,,AFSA02.jpg,AFSA10.jpg,AFNE07.jpg,AFNE05.jpg,AFSA02.jpg,FS,4,num_8,32,num_6,0.716861708206,,,2017_Jul_05_1708,59.9984989784,MAFE4ImagesEEG,001,200826,
AFNE01.JPG,AFNE01.JPG,AFNE01.JPG,AFNE01.JPG,AFNE01.JPG,AFNE01.JPG,,,,,,,,,,,,,3,2,32,8,,,,,,,,,,,AFNE10.jpg,AFSA17.jpg,AFNE18.jpg,AFSA16.jpg,AFSA16.jpg,FS,4,num_4,32,num_6,0.783359922701,,,2017_Jul_05_1708,59.9984989784,MAFE4ImagesEEG,001,200826,
AFNE01.JPG,AFNE01.JPG,AFNE01.JPG,AFNE01.JPG,AFNE01.JPG,AFNE01.JPG,,,,,,,,,,,,,3,3,33,2,,,,,,,,,,,AFNE15.jpg,AFNE16.jpg,AFSA07.jpg,AFSA09.jpg,AFSA07.jpg,FS,4,num_2,16,num_2,0.80010603636,,,2017_Jul_05_1708,59.9984989784,MAFE4ImagesEEG,001,200826,
AFNE01.JPG,AFNE01.JPG,AFNE01.JPG,AFNE01.JPG,AFNE01.JPG,AFNE01.JPG,,,,,,,,,,,,,3,4,34,4,,,,,,,,,,,AFNE14.jpg,AFSA11.jpg,AFNE05.jpg,AFSA12.jpg,AFSA12.jpg,FS,4,num_4,16,num_4,0.883479943266,,,2017_Jul_05_1708,59.9984989784,MAFE4ImagesEEG,001,200826,
AFNE01.JPG,AFNE01.JPG,AFNE01.JPG,AFNE01.JPG,AFNE01.JPG,AFNE01.JPG,,,,,,,,,,,,,3,5,35,6,,,,,,,,,,,AFSA08.jpg,AFSA17.jpg,AFNE15.jpg,AFNE01.jpg,AFNE01.jpg,FN,3,num_4,32,num_8,0.866790279513,,,2017_Jul_05_1708,59.9984989784,MAFE4ImagesEEG,001,200826,
AFNE01.JPG,AFNE01.JPG,AFNE01.JPG,AFNE01.JPG,AFNE01.JPG,AFNE01.JPG,,,,,,,,,,,,,3,6,36,0,,,,,,,,,,,AFNE02.jpg,AFSA12.jpg,AFSA02.jpg,AFNE07.jpg,AFNE07.jpg,FN,3,num_4,32,num_8,0.700124254334,,,2017_Jul_05_1708,59.9984989784,MAFE4ImagesEEG,001,200826,
AFNE01.JPG,AFNE01.JPG,AFNE01.JPG,AFNE01.JPG,AFNE01.JPG,AFNE01.JPG,,,,,,,,,,,,,3,7,37,1,,,,,,,,,,,AFSA03.jpg,AFNE10.jpg,AFSA17.jpg,AFNE09.jpg,AFNE10.jpg,FN,3,num_6,16,num_6,0.716750411666,,,2017_Jul_05_1708,59.9984989784,MAFE4ImagesEEG,001,200826,
AFNE01.JPG,AFNE01.JPG,AFNE01.JPG,AFNE01.JPG,AFNE01.JPG,AFNE01.JPG,,,,,,,,,,,,,3,8,38,5,,,,,,,,,,,AFSA10.jpg,AFNE05.jpg,AFNE02.jpg,AFSA05.jpg,AFNE05.jpg,FN,3,num_6,16,num_6,0.58347141149,,,2017_Jul_05_1708,59.9984989784,MAFE4ImagesEEG,001,200826,
AFNE01.JPG,AFNE01.JPG,AFNE01.JPG,AFNE01.JPG,AFNE01.JPG,AFNE01.JPG,,,,,,,,,,,,,3,9,39,7,,,,,,,,,,,AFNE03.jpg,AFSA20.jpg,AFSA03.jpg,AFNE09.jpg,AFNE03.jpg,FN,3,num_8,16,num_8,0.433480296051,,,2017_Jul_05_1708,59.9984989784,MAFE4ImagesEEG,001,200826,
AFNE01.JPG,AFNE01.JPG,AFNE01.JPG,AFNE01.JPG,AFNE01.JPG,AFNE01.JPG,,,,,,,,,,,,,4,0,40,7,,,,,,,,,,,AFSA19.jpg,AFNE14.jpg,AFNE20.jpg,AFSA02.jpg,AFSA02.jpg,FS,4,num_4,32,num_2,1.55005102954,,,2017_Jul_05_1708,59.9984989784,MAFE4ImagesEEG,001,200826,
AFNE01.JPG,AFNE01.JPG,AFNE01.JPG,AFNE01.JPG,AFNE01.JPG,AFNE01.JPG,,,,,,,,,,,,,4,1,41,2,,,,,,,,,,,AFNE01.jpg,AFNE04.jpg,AFSA16.jpg,AFSA09.jpg,AFNE01.jpg,FN,3,num_8,32,num_6,0.733462527045,,,2017_Jul_05_1708,59.9984989784,MAFE4ImagesEEG,001,200826,
AFNE01.JPG,AFNE01.JPG,AFNE01.JPG,AFNE01.JPG,AFNE01.JPG,AFNE01.JPG,,,,,,,,,,,,,4,2,42,1,,,,,,,,,,,AFNE20.jpg,AFNE03.jpg,AFSA15.jpg,AFSA19.jpg,AFSA15.jpg,FS,4,num_2,32,num_4,0.316787039977,,,2017_Jul_05_1708,59.9984989784,MAFE4ImagesEEG,001,200826,
AFNE01.JPG,AFNE01.JPG,AFNE01.JPG,AFNE01.JPG,AFNE01.JPG,AFNE01.JPG,,,,,,,,,,,,,4,3,43,5,,,,,,,,,,,AFSA11.jpg,AFNE04.jpg,AFSA18.jpg,AFNE01.jpg,AFNE01.jpg,FN,3,num_4,32,num_6,0.400132721872,,,2017_Jul_05_1708,59.9984989784,MAFE4ImagesEEG,001,200826,
AFNE01.JPG,AFNE01.JPG,AFNE01.JPG,AFNE01.JPG,AFNE01.JPG,AFNE01.JPG,,,,,,,,,,,,,4,4,44,8,,,,,,,,,,,AFSA19.jpg,AFSA07.jpg,AFNE11.jpg,AFNE15.jpg,AFSA07.jpg,FS,4,num_6,16,num_6,0.683503228938,,,2017_Jul_05_1708,59.9984989784,MAFE4ImagesEEG,001,200826,
AFNE01.JPG,AFNE01.JPG,AFNE01.JPG,AFNE01.JPG,AFNE01.JPG,AFNE01.JPG,,,,,,,,,,,,,4,5,45,3,,,,,,,,,,,AFNE04.jpg,AFSA04.jpg,AFSA17.jpg,AFNE06.jpg,AFSA04.jpg,FS,4,num_6,32,num_8,1.33339812257,,,2017_Jul_05_1708,59.9984989784,MAFE4ImagesEEG,001,200826,
AFNE01.JPG,AFNE01.JPG,AFNE01.JPG,AFNE01.JPG,AFNE01.JPG,AFNE01.JPG,,,,,,,,,,,,,4,6,46,0,,,,,,,,,,,AFSA06.jpg,AFNE15.jpg,AFSA17.jpg,AFNE05.jpg,AFNE15.jpg,FN,3,num_6,16,num_6,0.466942053288,,,2017_Jul_05_1708,59.9984989784,MAFE4ImagesEEG,001,200826,
AFNE01.JPG,AFNE01.JPG,AFNE01.JPG,AFNE01.JPG,AFNE01.JPG,AFNE01.JPG,,,,,,,,,,,,,4,7,47,9,,,,,,,,,,,AFSA12.jpg,AFNE03.jpg,AFSA18.jpg,AFNE19.jpg,AFSA12.jpg,FS,4,num_8,32,num_4,0.750248412485,,,2017_Jul_05_1708,59.9984989784,MAFE4ImagesEEG,001,200826,
AFNE01.JPG,AFNE01.JPG,AFNE01.JPG,AFNE01.JPG,AFNE01.JPG,AFNE01.JPG,,,,,,,,,,,,,4,8,48,4,,,,,,,,,,,AFSA09.jpg,AFNE07.jpg,AFSA16.jpg,AFNE14.jpg,AFSA16.jpg,FS,4,num_2,32,num_4,0.433462334564,,,2017_Jul_05_1708,59.9984989784,MAFE4ImagesEEG,001,200826,
AFNE01.JPG,AFNE01.JPG,AFNE01.JPG,AFNE01.JPG,AFNE01.JPG,AFNE01.JPG,,,,,,,,,,,,,4,9,49,6,,,,,,,,,,,AFNE02.jpg,AFSA16.jpg,AFSA09.jpg,AFNE20.jpg,AFNE02.jpg,FN,3,num_8,32,num_6,1.13341531425,,,2017_Jul_05_1708,59.9984989784,MAFE4ImagesEEG,001,200826,
AFNE01.JPG,AFNE01.JPG,AFNE01.JPG,AFNE01.JPG,AFNE01.JPG,AFNE01.JPG,,,,,,,,,,,,,5,0,50,0,,,,,,,,,,,AFNE07.jpg,AFSA07.jpg,AFNE15.jpg,AFSA10.jpg,AFSA10.jpg,FS,4,num_4,32,num_8,0.400201680721,,,2017_Jul_05_1708,59.9984989784,MAFE4ImagesEEG,001,200826,
AFNE01.JPG,AFNE01.JPG,AFNE01.JPG,AFNE01.JPG,AFNE01.JPG,AFNE01.JPG,,,,,,,,,,,,,5,1,51,5,,,,,,,,,,,AFSA06.jpg,AFNE13.jpg,AFSA12.jpg,AFNE18.jpg,AFSA12.jpg,FS,4,num_2,16,num_2,0.500175444293,,,2017_Jul_05_1708,59.9984989784,MAFE4ImagesEEG,001,200826,
AFNE01.JPG,AFNE01.JPG,AFNE01.JPG,AFNE01.JPG,AFNE01.JPG,AFNE01.JPG,,,,,,,,,,,,,5,2,52,7,,,,,,,,,,,AFSA01.jpg,AFNE19.jpg,AFSA15.jpg,AFNE12.jpg,AFSA15.jpg,FS,4,num_2,16,num_2,1.43343539257,,,2017_Jul_05_1708,59.9984989784,MAFE4ImagesEEG,001,200826,
AFNE01.JPG,AFNE01.JPG,AFNE01.JPG,AFNE01.JPG,AFNE01.JPG,AFNE01.JPG,,,,,,,,,,,,,5,3,53,4,,,,,,,,,,,AFSA20.jpg,AFNE18.jpg,AFNE10.jpg,AFSA05.jpg,AFNE10.jpg,FN,3,num_2,32,num_6,1.18343523215,,,2017_Jul_05_1708,59.9984989784,MAFE4ImagesEEG,001,200826,
AFNE01.JPG,AFNE01.JPG,AFNE01.JPG,AFNE01.JPG,AFNE01.JPG,AFNE01.JPG,,,,,,,,,,,,,5,4,54,2,,,,,,,,,,,AFSA08.jpg,AFNE06.jpg,AFSA11.jpg,AFNE10.jpg,AFNE10.jpg,FN,3,num_4,32,num_6,1.00007954333,,,2017_Jul_05_1708,59.9984989784,MAFE4ImagesEEG,001,200826,
AFNE01.JPG,AFNE01.JPG,AFNE01.JPG,AFNE01.JPG,AFNE01.JPG,AFNE01.JPG,,,,,,,,,,,,,5,5,55,6,,,,,,,,,,,AFNE12.jpg,AFSA02.jpg,AFSA01.jpg,AFNE01.jpg,AFSA02.jpg,FS,4,num_6,16,num_6,1.13308623584,,,2017_Jul_05_1708,59.9984989784,MAFE4ImagesEEG,001,200826,
AFNE01.JPG,AFNE01.JPG,AFNE01.JPG,AFNE01.JPG,AFNE01.JPG,AFNE01.JPG,,,,,,,,,,,,,5,6,56,8,,,,,,,,,,,AFSA05.jpg,AFSA03.jpg,AFNE15.jpg,AFNE19.jpg,AFNE19.jpg,FN,3,num_4,32,num_6,1.08343452658,,,2017_Jul_05_1708,59.9984989784,MAFE4ImagesEEG,001,200826,
AFNE01.JPG,AFNE01.JPG,AFNE01.JPG,AFNE01.JPG,AFNE01.JPG,AFNE01.JPG,,,,,,,,,,,,,5,7,57,3,,,,,,,,,,,AFSA06.jpg,AFNE08.jpg,AFNE10.jpg,AFSA19.jpg,AFNE08.jpg,FN,3,num_6,16,num_6,1.1832690892,,,2017_Jul_05_1708,59.9984989784,MAFE4ImagesEEG,001,200826,
AFNE01.JPG,AFNE01.JPG,AFNE01.JPG,AFNE01.JPG,AFNE01.JPG,AFNE01.JPG,,,,,,,,,,,,,5,8,58,1,,,,,,,,,,,AFSA03.jpg,AFNE19.jpg,AFNE05.jpg,AFSA16.jpg,AFNE19.jpg,FN,3,num_6,32,num_4,1.11675580009,,,2017_Jul_05_1708,59.9984989784,MAFE4ImagesEEG,001,200826,
AFNE01.JPG,AFNE01.JPG,AFNE01.JPG,AFNE01.JPG,AFNE01.JPG,AFNE01.JPG,,,,,,,,,,,,,5,9,59,9,,,,,,,,,,,AFSA09.jpg,AFNE03.jpg,AFSA14.jpg,AFNE05.jpg,AFSA14.jpg,FS,4,num_2,32,num_8,0.500117069809,,,2017_Jul_05_1708,59.9984989784,MAFE4ImagesEEG,001,200826,
,,,,,,,,,,,,,,,,,,,,,,,,,,,,,,,,,,,,,,,,,,,space,28.1645443356,2017_Jul_05_1708,59.9984989784,MAFE4ImagesEEG,001,200826,
AFNE01.JPG,AFNE01.JPG,AFNE01.JPG,AFNE01.JPG,AFNE01.JPG,AFNE01.JPG,,,,,,,,,,,,,,,,,0,0,0,4,,,,,,,AMNE16.jpg,AMSA19.jpg,AMSA06.jpg,AMNE06.jpg,AMSA19.jpg,MS,2,num_6,32,num_8,0.566838518716,,,2017_Jul_05_1708,59.9984989784,MAFE4ImagesEEG,001,200826,
AFNE01.JPG,AFNE01.JPG,AFNE01.JPG,AFNE01.JPG,AFNE01.JPG,AFNE01.JPG,,,,,,,,,,,,,,,,,0,1,1,7,,,,,,,AMNE15.jpg,AMSA03.jpg,AMSA13.jpg,AMNE14.jpg,AMNE14.jpg,MN,1,num_4,16,num_4,0.700142536545,,,2017_Jul_05_1708,59.9984989784,MAFE4ImagesEEG,001,200826,
AFNE01.JPG,AFNE01.JPG,AFNE01.JPG,AFNE01.JPG,AFNE01.JPG,AFNE01.JPG,,,,,,,,,,,,,,,,,0,2,2,9,,,,,,,AMNE20.jpg,AMSA05.jpg,AMNE07.jpg,AMSA03.jpg,AMNE20.jpg,MN,1,num_8,32,num_6,0.833458100911,,,2017_Jul_05_1708,59.9984989784,MAFE4ImagesEEG,001,200826,
AFNE01.JPG,AFNE01.JPG,AFNE01.JPG,AFNE01.JPG,AFNE01.JPG,AFNE01.JPG,,,,,,,,,,,,,,,,,0,3,3,6,,,,,,,AMNE10.jpg,AMSA07.jpg,AMSA17.jpg,AMNE09.jpg,AMNE09.jpg,MN,1,num_4,16,num_4,0.433538991259,,,2017_Jul_05_1708,59.9984989784,MAFE4ImagesEEG,001,200826,
AFNE01.JPG,AFNE01.JPG,AFNE01.JPG,AFNE01.JPG,AFNE01.JPG,AFNE01.JPG,,,,,,,,,,,,,,,,,0,4,4,8,,,,,,,AMSA17.jpg,AMSA07.jpg,AMNE17.jpg,AMNE16.jpg,AMNE16.jpg,MN,1,num_4,32,num_8,0.450137565029,,,2017_Jul_05_1708,59.9984989784,MAFE4ImagesEEG,001,200826,
AFNE01.JPG,AFNE01.JPG,AFNE01.JPG,AFNE01.JPG,AFNE01.JPG,AFNE01.JPG,,,,,,,,,,,,,,,,,0,5,5,5,,,,,,,AMSA15.jpg,AMNE20.jpg,AMSA19.jpg,AMNE01.jpg,AMNE01.jpg,MN,1,num_4,32,num_6,0.483525873045,,,2017_Jul_05_1708,59.9984989784,MAFE4ImagesEEG,001,200826,
AFNE01.JPG,AFNE01.JPG,AFNE01.JPG,AFNE01.JPG,AFNE01.JPG,AFNE01.JPG,,,,,,,,,,,,,,,,,0,6,6,1,,,,,,,AMSA18.jpg,AMNE14.jpg,AMSA10.jpg,AMNE03.jpg,AMSA18.jpg,MS,2,num_8,16,num_8,0.550177400815,,,2017_Jul_05_1708,59.9984989784,MAFE4ImagesEEG,001,200826,
AFNE01.JPG,AFNE01.JPG,AFNE01.JPG,AFNE01.JPG,AFNE01.JPG,AFNE01.JPG,,,,,,,,,,,,,,,,,0,7,7,2,,,,,,,AMSA09.jpg,AMNE01.jpg,AMNE09.jpg,AMSA03.jpg,AMSA03.jpg,MS,2,num_4,32,num_6,0.366789317341,,,2017_Jul_05_1708,59.9984989784,MAFE4ImagesEEG,001,200826,
AFNE01.JPG,AFNE01.JPG,AFNE01.JPG,AFNE01.JPG,AFNE01.JPG,AFNE01.JPG,,,,,,,,,,,,,,,,,0,8,8,3,,,,,,,AMSA15.jpg,AMNE13.jpg,AMSA02.jpg,AMNE03.jpg,AMSA02.jpg,MS,2,num_2,32,num_6,0.900092629483,,,2017_Jul_05_1708,59.9984989784,MAFE4ImagesEEG,001,200826,
AFNE01.JPG,AFNE01.JPG,AFNE01.JPG,AFNE01.JPG,AFNE01.JPG,AFNE01.JPG,,,,,,,,,,,,,,,,,0,9,9,0,,,,,,,AMSA01.jpg,AMNE13.jpg,AMNE02.jpg,AMSA03.jpg,AMSA01.jpg,MS,2,num_8,32,num_4,0.60013092577,,,2017_Jul_05_1708,59.9984989784,MAFE4ImagesEEG,001,200826,
AFNE01.JPG,AFNE01.JPG,AFNE01.JPG,AFNE01.JPG,AFNE01.JPG,AFNE01.JPG,,,,,,,,,,,,,,,,,1,0,10,9,,,,,,,AMNE15.jpg,AMSA03.jpg,AMNE07.jpg,AMSA16.jpg,AMSA16.jpg,MS,2,num_4,32,num_8,0.95014045178,,,2017_Jul_05_1708,59.9984989784,MAFE4ImagesEEG,001,200826,
AFNE01.JPG,AFNE01.JPG,AFNE01.JPG,AFNE01.JPG,AFNE01.JPG,AFNE01.JPG,,,,,,,,,,,,,,,,,1,1,11,5,,,,,,,AMNE02.jpg,AMNE01.jpg,AMSA19.jpg,AMSA05.jpg,AMNE01.jpg,MN,1,num_6,16,num_6,0.600125473225,,,2017_Jul_05_1708,59.9984989784,MAFE4ImagesEEG,001,200826,
AFNE01.JPG,AFNE01.JPG,AFNE01.JPG,AFNE01.JPG,AFNE01.JPG,AFNE01.JPG,,,,,,,,,,,,,,,,,1,2,12,1,,,,,,,AMSA13.jpg,AMSA17.jpg,AMNE15.jpg,AMNE19.jpg,AMSA17.jpg,MS,2,num_6,32,num_4,0.500125409104,,,2017_Jul_05_1708,59.9984989784,MAFE4ImagesEEG,001,200826,
AFNE01.JPG,AFNE01.JPG,AFNE01.JPG,AFNE01.JPG,AFNE01.JPG,AFNE01.JPG,,,,,,,,,,,,,,,,,1,3,13,4,,,,,,,AMSA01.jpg,AMNE01.jpg,AMSA04.jpg,AMNE02.jpg,AMNE02.jpg,MN,1,num_4,32,num_8,0.533483567648,,,2017_Jul_05_1708,59.9984989784,MAFE4ImagesEEG,001,200826,
AFNE01.JPG,AFNE01.JPG,AFNE01.JPG,AFNE01.JPG,AFNE01.JPG,AFNE01.JPG,,,,,,,,,,,,,,,,,1,4,14,8,,,,,,,AMSA05.jpg,AMNE18.jpg,AMNE11.jpg,AMSA14.jpg,AMSA14.jpg,MS,2,num_4,16,num_4,0.533460795064,,,2017_Jul_05_1708,59.9984989784,MAFE4ImagesEEG,001,200826,
AFNE01.JPG,AFNE01.JPG,AFNE01.JPG,AFNE01.JPG,AFNE01.JPG,AFNE01.JPG,,,,,,,,,,,,,,,,,1,5,15,0,,,,,,,AMSA05.jpg,AMSA04.jpg,AMNE16.jpg,AMNE08.jpg,AMSA04.jpg,MS,2,num_6,32,num_8,0.916759199928,,,2017_Jul_05_1708,59.9984989784,MAFE4ImagesEEG,001,200826,
AFNE01.JPG,AFNE01.JPG,AFNE01.JPG,AFNE01.JPG,AFNE01.JPG,AFNE01.JPG,,,,,,,,,,,,,,,,,1,6,16,3,,,,,,,AMSA06.jpg,AMSA15.jpg,AMNE07.jpg,AMNE08.jpg,AMNE07.jpg,MN,1,num_2,32,num_6,0.383497904637,,,2017_Jul_05_1708,59.9984989784,MAFE4ImagesEEG,001,200826,
AFNE01.JPG,AFNE01.JPG,AFNE01.JPG,AFNE01.JPG,AFNE01.JPG,AFNE01.JPG,,,,,,,,,,,,,,,,,1,7,17,7,,,,,,,AMNE08.jpg,AMSA19.jpg,AMSA03.jpg,AMNE07.jpg,AMSA19.jpg,MS,2,num_6,32,num_4,0.283485652297,,,2017_Jul_05_1708,59.9984989784,MAFE4ImagesEEG,001,200826,
AFNE01.JPG,AFNE01.JPG,AFNE01.JPG,AFNE01.JPG,AFNE01.JPG,AFNE01.JPG,,,,,,,,,,,,,,,,,1,8,18,2,,,,,,,AMSA17.jpg,AMSA06.jpg,AMNE07.jpg,AMNE13.jpg,AMSA17.jpg,MS,2,num_8,16,num_8,0.466800607275,,,2017_Jul_05_1708,59.9984989784,MAFE4ImagesEEG,001,200826,
AFNE01.JPG,AFNE01.JPG,AFNE01.JPG,AFNE01.JPG,AFNE01.JPG,AFNE01.JPG,,,,,,,,,,,,,,,,,1,9,19,6,,,,,,,AMSA16.jpg,AMSA11.jpg,AMNE13.jpg,AMNE05.jpg,AMSA16.jpg,MS,2,num_8,16,num_8,0.600122586475,,,2017_Jul_05_1708,59.9984989784,MAFE4ImagesEEG,001,200826,
AFNE01.JPG,AFNE01.JPG,AFNE01.JPG,AFNE01.JPG,AFNE01.JPG,AFNE01.JPG,,,,,,,,,,,,,,,,,2,0,20,6,,,,,,,AMNE16.jpg,AMSA08.jpg,AMNE09.jpg,AMSA19.jpg,AMSA08.jpg,MS,2,num_6,32,num_8,0.633488442749,,,2017_Jul_05_1708,59.9984989784,MAFE4ImagesEEG,001,200826,
AFNE01.JPG,AFNE01.JPG,AFNE01.JPG,AFNE01.JPG,AFNE01.JPG,AFNE01.JPG,,,,,,,,,,,,,,,,,2,1,21,5,,,,,,,AMSA14.jpg,AMNE05.jpg,AMSA19.jpg,AMNE14.jpg,AMSA14.jpg,MS,2,num_8,32,num_4,0.350050901296,,,2017_Jul_05_1708,59.9984989784,MAFE4ImagesEEG,001,200826,
AFNE01.JPG,AFNE01.JPG,AFNE01.JPG,AFNE01.JPG,AFNE01.JPG,AFNE01.JPG,,,,,,,,,,,,,,,,,2,2,22,3,,,,,,,AMSA16.jpg,AMSA18.jpg,AMNE08.jpg,AMNE02.jpg,AMNE08.jpg,MN,1,num_2,32,num_6,0.450126018492,,,2017_Jul_05_1708,59.9984989784,MAFE4ImagesEEG,001,200826,
AFNE01.JPG,AFNE01.JPG,AFNE01.JPG,AFNE01.JPG,AFNE01.JPG,AFNE01.JPG,,,,,,,,,,,,,,,,,2,3,23,9,,,,,,,AMSA07.jpg,AMSA04.jpg,AMNE15.jpg,AMNE07.jpg,AMNE15.jpg,MN,1,num_2,16,num_2,1.08343933756,,,2017_Jul_05_1708,59.9984989784,MAFE4ImagesEEG,001,200826,
AFNE01.JPG,AFNE01.JPG,AFNE01.JPG,AFNE01.JPG,AFNE01.JPG,AFNE01.JPG,,,,,,,,,,,,,,,,,2,4,24,1,,,,,,,AMSA02.jpg,AMSA03.jpg,AMNE12.jpg,AMNE15.jpg,AMNE15.jpg,MN,1,num_4,16,num_4,0.600129642757,,,2017_Jul_05_1708,59.9984989784,MAFE4ImagesEEG,001,200826,
AFNE01.JPG,AFNE01.JPG,AFNE01.JPG,AFNE01.JPG,AFNE01.JPG,AFNE01.JPG,,,,,,,,,,,,,,,,,2,5,25,4,,,,,,,AMNE06.jpg,AMSA15.jpg,AMNE17.jpg,AMSA18.jpg,AMSA18.jpg,MS,2,num_4,32,num_6,0.56681831216,,,2017_Jul_05_1708,59.9984989784,MAFE4ImagesEEG,001,200826,
AFNE01.JPG,AFNE01.JPG,AFNE01.JPG,AFNE01.JPG,AFNE01.JPG,AFNE01.JPG,,,,,,,,,,,,,,,,,2,6,26,2,,,,,,,AMNE04.jpg,AMSA03.jpg,AMNE06.jpg,AMSA05.jpg,AMSA03.jpg,MS,2,num_6,32,num_8,0.550119347055,,,2017_Jul_05_1708,59.9984989784,MAFE4ImagesEEG,001,200826,
AFNE01.JPG,AFNE01.JPG,AFNE01.JPG,AFNE01.JPG,AFNE01.JPG,AFNE01.JPG,,,,,,,,,,,,,,,,,2,7,27,0,,,,,,,AMSA06.jpg,AMNE02.jpg,AMNE10.jpg,AMSA10.jpg,AMSA10.jpg,MS,2,num_4,32,num_6,0.53355028131,,,2017_Jul_05_1708,59.9984989784,MAFE4ImagesEEG,001,200826,
AFNE01.JPG,AFNE01.JPG,AFNE01.JPG,AFNE01.JPG,AFNE01.JPG,AFNE01.JPG,,,,,,,,,,,,,,,,,2,8,28,8,,,,,,,AMSA02.jpg,AMSA06.jpg,AMNE15.jpg,AMNE07.jpg,AMNE07.jpg,MN,1,num_4,16,num_4,0.533464002539,,,2017_Jul_05_1708,59.9984989784,MAFE4ImagesEEG,001,200826,
AFNE01.JPG,AFNE01.JPG,AFNE01.JPG,AFNE01.JPG,AFNE01.JPG,AFNE01.JPG,,,,,,,,,,,,,,,,,2,9,29,7,,,,,,,AMNE19.jpg,AMSA03.jpg,AMNE14.jpg,AMSA07.jpg,AMSA07.jpg,MS,2,num_4,32,num_6,0.533537131036,,,2017_Jul_05_1708,59.9984989784,MAFE4ImagesEEG,001,200826,
AFNE01.JPG,AFNE01.JPG,AFNE01.JPG,AFNE01.JPG,AFNE01.JPG,AFNE01.JPG,,,,,,,,,,,,,,,,,3,0,30,7,,,,,,,AMSA13.jpg,AMNE09.jpg,AMNE02.jpg,AMSA12.jpg,AMSA12.jpg,MS,2,num_4,32,num_6,1.20006363466,,,2017_Jul_05_1708,59.9984989784,MAFE4ImagesEEG,001,200826,
AFNE01.JPG,AFNE01.JPG,AFNE01.JPG,AFNE01.JPG,AFNE01.JPG,AFNE01.JPG,,,,,,,,,,,,,,,,,3,1,31,0,,,,,,,AMNE10.jpg,AMNE07.jpg,AMSA03.jpg,AMSA15.jpg,AMNE07.jpg,MN,1,num_6,32,num_8,0.500012508826,,,2017_Jul_05_1708,59.9984989784,MAFE4ImagesEEG,001,200826,
AFNE01.JPG,AFNE01.JPG,AFNE01.JPG,AFNE01.JPG,AFNE01.JPG,AFNE01.JPG,,,,,,,,,,,,,,,,,3,2,32,9,,,,,,,AMNE07.jpg,AMNE03.jpg,AMSA14.jpg,AMSA09.jpg,AMSA09.jpg,MS,2,num_4,32,num_2,0.383506243816,,,2017_Jul_05_1708,59.9984989784,MAFE4ImagesEEG,001,200826,
AFNE01.JPG,AFNE01.JPG,AFNE01.JPG,AFNE01.JPG,AFNE01.JPG,AFNE01.JPG,,,,,,,,,,,,,,,,,3,3,33,3,,,,,,,AMSA13.jpg,AMSA18.jpg,AMNE18.jpg,AMNE15.jpg,AMNE15.jpg,MN,1,num_4,16,num_4,0.533532640664,,,2017_Jul_05_1708,59.9984989784,MAFE4ImagesEEG,001,200826,
AFNE01.JPG,AFNE01.JPG,AFNE01.JPG,AFNE01.JPG,AFNE01.JPG,AFNE01.JPG,,,,,,,,,,,,,,,,,3,4,34,1,,,,,,,AMNE08.jpg,AMNE12.jpg,AMSA04.jpg,AMSA14.jpg,AMNE08.jpg,MN,1,num_8,32,num_4,0.650154051022,,,2017_Jul_05_1708,59.9984989784,MAFE4ImagesEEG,001,200826,
AFNE01.JPG,AFNE01.JPG,AFNE01.JPG,AFNE01.JPG,AFNE01.JPG,AFNE01.JPG,,,,,,,,,,,,,,,,,3,5,35,8,,,,,,,AMNE06.jpg,AMSA09.jpg,AMNE14.jpg,AMSA15.jpg,AMSA15.jpg,MS,2,num_4,32,num_6,0.616795892478,,,2017_Jul_05_1708,59.9984989784,MAFE4ImagesEEG,001,200826,
AFNE01.JPG,AFNE01.JPG,AFNE01.JPG,AFNE01.JPG,AFNE01.JPG,AFNE01.JPG,,,,,,,,,,,,,,,,,3,6,36,4,,,,,,,AMNE17.jpg,AMNE02.jpg,AMSA06.jpg,AMSA07.jpg,AMNE02.jpg,MN,1,num_6,16,num_6,0.833617829019,,,2017_Jul_05_1708,59.9984989784,MAFE4ImagesEEG,001,200826,
AFNE01.JPG,AFNE01.JPG,AFNE01.JPG,AFNE01.JPG,AFNE01.JPG,AFNE01.JPG,,,,,,,,,,,,,,,,,3,7,37,6,,,,,,,AMSA18.jpg,AMNE16.jpg,AMSA15.jpg,AMNE05.jpg,AMSA15.jpg,MS,2,num_2,32,num_8,0.433602176956,,,2017_Jul_05_1708,59.9984989784,MAFE4ImagesEEG,001,200826,
AFNE01.JPG,AFNE01.JPG,AFNE01.JPG,AFNE01.JPG,AFNE01.JPG,AFNE01.JPG,,,,,,,,,,,,,,,,,3,8,38,5,,,,,,,AMNE19.jpg,AMNE09.jpg,AMSA17.jpg,AMSA16.jpg,AMSA17.jpg,MS,2,num_2,32,num_6,0.566921590129,,,2017_Jul_05_1708,59.9984989784,MAFE4ImagesEEG,001,200826,
AFNE01.JPG,AFNE01.JPG,AFNE01.JPG,AFNE01.JPG,AFNE01.JPG,AFNE01.JPG,,,,,,,,,,,,,,,,,3,9,39,2,,,,,,,AMNE10.jpg,AMSA20.jpg,AMSA10.jpg,AMNE04.jpg,AMNE10.jpg,MN,1,num_8,32,num_4,0.917045620037,,,2017_Jul_05_1708,59.9984989784,MAFE4ImagesEEG,001,200826,
AFNE01.JPG,AFNE01.JPG,AFNE01.JPG,AFNE01.JPG,AFNE01.JPG,AFNE01.JPG,,,,,,,,,,,,,,,,,4,0,40,4,,,,,,,AMSA13.jpg,AMSA15.jpg,AMNE13.jpg,AMNE09.jpg,AMSA15.jpg,MS,2,num_6,16,num_6,0.450136923464,,,2017_Jul_05_1708,59.9984989784,MAFE4ImagesEEG,001,200826,
AFNE01.JPG,AFNE01.JPG,AFNE01.JPG,AFNE01.JPG,AFNE01.JPG,AFNE01.JPG,,,,,,,,,,,,,,,,,4,1,41,1,,,,,,,AMNE06.jpg,AMNE13.jpg,AMSA15.jpg,AMSA03.jpg,AMNE06.jpg,MN,1,num_8,32,num_4,1.25006045937,,,2017_Jul_05_1708,59.9984989784,MAFE4ImagesEEG,001,200826,
AFNE01.JPG,AFNE01.JPG,AFNE01.JPG,AFNE01.JPG,AFNE01.JPG,AFNE01.JPG,,,,,,,,,,,,,,,,,4,2,42,9,,,,,,,AMSA04.jpg,AMSA20.jpg,AMNE15.jpg,AMNE07.jpg,AMSA04.jpg,MS,2,num_8,32,num_6,0.466839416767,,,2017_Jul_05_1708,59.9984989784,MAFE4ImagesEEG,001,200826,
AFNE01.JPG,AFNE01.JPG,AFNE01.JPG,AFNE01.JPG,AFNE01.JPG,AFNE01.JPG,,,,,,,,,,,,,,,,,4,3,43,7,,,,,,,AMNE17.jpg,AMNE04.jpg,AMSA17.jpg,AMSA12.jpg,AMSA12.jpg,MS,2,num_4,32,num_6,0.750099268742,,,2017_Jul_05_1708,59.9984989784,MAFE4ImagesEEG,001,200826,
AFNE01.JPG,AFNE01.JPG,AFNE01.JPG,AFNE01.JPG,AFNE01.JPG,AFNE01.JPG,,,,,,,,,,,,,,,,,4,4,44,0,,,,,,,AMNE19.jpg,AMNE01.jpg,AMSA06.jpg,AMSA08.jpg,AMSA08.jpg,MS,2,num_4,16,num_4,0.616747140186,,,2017_Jul_05_1708,59.9984989784,MAFE4ImagesEEG,001,200826,
AFNE01.JPG,AFNE01.JPG,AFNE01.JPG,AFNE01.JPG,AFNE01.JPG,AFNE01.JPG,,,,,,,,,,,,,,,,,4,5,45,5,,,,,,,AMNE15.jpg,AMSA08.jpg,AMSA16.jpg,AMNE16.jpg,AMSA16.jpg,MS,2,num_2,32,num_4,0.500081788399,,,2017_Jul_05_1708,59.9984989784,MAFE4ImagesEEG,001,200826,
AFNE01.JPG,AFNE01.JPG,AFNE01.JPG,AFNE01.JPG,AFNE01.JPG,AFNE01.JPG,,,,,,,,,,,,,,,,,4,6,46,8,,,,,,,AMNE09.jpg,AMSA06.jpg,AMNE16.jpg,AMSA15.jpg,AMNE16.jpg,MN,1,num_2,32,num_6,0.533571129432,,,2017_Jul_05_1708,59.9984989784,MAFE4ImagesEEG,001,200826,
AFNE01.JPG,AFNE01.JPG,AFNE01.JPG,AFNE01.JPG,AFNE01.JPG,AFNE01.JPG,,,,,,,,,,,,,,,,,4,7,47,3,,,,,,,AMSA19.jpg,AMNE04.jpg,AMSA05.jpg,AMNE12.jpg,AMNE04.jpg,MN,1,num_6,32,num_4,0.316783512011,,,2017_Jul_05_1708,59.9984989784,MAFE4ImagesEEG,001,200826,
AFNE01.JPG,AFNE01.JPG,AFNE01.JPG,AFNE01.JPG,AFNE01.JPG,AFNE01.JPG,,,,,,,,,,,,,,,,,4,8,48,6,,,,,,,AMNE06.jpg,AMSA13.jpg,AMSA01.jpg,AMNE19.jpg,AMSA01.jpg,MS,2,num_2,32,num_8,0.333489533397,,,2017_Jul_05_1708,59.9984989784,MAFE4ImagesEEG,001,200826,
AFNE01.JPG,AFNE01.JPG,AFNE01.JPG,AFNE01.JPG,AFNE01.JPG,AFNE01.JPG,,,,,,,,,,,,,,,,,4,9,49,2,,,,,,,AMSA09.jpg,AMSA03.jpg,AMNE15.jpg,AMNE12.jpg,AMNE12.jpg,MN,1,num_4,32,num_6,0.650289402925,,,2017_Jul_05_1708,59.9984989784,MAFE4ImagesEEG,001,200826,
AFNE01.JPG,AFNE01.JPG,AFNE01.JPG,AFNE01.JPG,AFNE01.JPG,AFNE01.JPG,,,,,,,,,,,,,,,,,5,0,50,8,,,,,,,AMNE05.jpg,AMSA08.jpg,AMSA13.jpg,AMNE04.jpg,AMNE05.jpg,MN,1,num_8,32,num_4,0.633422049694,,,2017_Jul_05_1708,59.9984989784,MAFE4ImagesEEG,001,200826,
AFNE01.JPG,AFNE01.JPG,AFNE01.JPG,AFNE01.JPG,AFNE01.JPG,AFNE01.JPG,,,,,,,,,,,,,,,,,5,1,51,7,,,,,,,AMSA19.jpg,AMNE05.jpg,AMNE11.jpg,AMSA01.jpg,AMSA01.jpg,MS,2,num_4,16,num_4,0.816812699195,,,2017_Jul_05_1708,59.9984989784,MAFE4ImagesEEG,001,200826,
AFNE01.JPG,AFNE01.JPG,AFNE01.JPG,AFNE01.JPG,AFNE01.JPG,AFNE01.JPG,,,,,,,,,,,,,,,,,5,2,52,3,,,,,,,AMSA11.jpg,AMSA13.jpg,AMNE09.jpg,AMNE19.jpg,AMSA13.jpg,MS,2,num_6,16,num_6,0.733466055244,,,2017_Jul_05_1708,59.9984989784,MAFE4ImagesEEG,001,200826,
AFNE01.JPG,AFNE01.JPG,AFNE01.JPG,AFNE01.JPG,AFNE01.JPG,AFNE01.JPG,,,,,,,,,,,,,,,,,5,3,53,1,,,,,,,AMSA08.jpg,AMNE05.jpg,AMNE13.jpg,AMSA10.jpg,AMNE13.jpg,MN,1,num_2,16,num_2,1.0334514936,,,2017_Jul_05_1708,59.9984989784,MAFE4ImagesEEG,001,200826,
AFNE01.JPG,AFNE01.JPG,AFNE01.JPG,AFNE01.JPG,AFNE01.JPG,AFNE01.JPG,,,,,,,,,,,,,,,,,5,4,54,4,,,,,,,AMSA06.jpg,AMNE05.jpg,AMSA05.jpg,AMNE10.jpg,AMSA05.jpg,MS,2,num_2,16,num_2,0.400160946883,,,2017_Jul_05_1708,59.9984989784,MAFE4ImagesEEG,001,200826,
AFNE01.JPG,AFNE01.JPG,AFNE01.JPG,AFNE01.JPG,AFNE01.JPG,AFNE01.JPG,,,,,,,,,,,,,,,,,5,5,55,0,,,,,,,AMNE08.jpg,AMSA07.jpg,AMSA05.jpg,AMNE09.jpg,AMNE08.jpg,MN,1,num_8,32,num_4,0.916751502198,,,2017_Jul_05_1708,59.9984989784,MAFE4ImagesEEG,001,200826,
AFNE01.JPG,AFNE01.JPG,AFNE01.JPG,AFNE01.JPG,AFNE01.JPG,AFNE01.JPG,,,,,,,,,,,,,,,,,5,6,56,9,,,,,,,AMNE12.jpg,AMSA10.jpg,AMNE20.jpg,AMSA01.jpg,AMSA10.jpg,MS,2,num_6,32,num_2,0.850093238871,,,2017_Jul_05_1708,59.9984989784,MAFE4ImagesEEG,001,200826,
AFNE01.JPG,AFNE01.JPG,AFNE01.JPG,AFNE01.JPG,AFNE01.JPG,AFNE01.JPG,,,,,,,,,,,,,,,,,5,7,57,5,,,,,,,AMNE15.jpg,AMNE16.jpg,AMSA05.jpg,AMSA12.jpg,AMNE16.jpg,MN,1,num_6,16,num_6,0.816733797314,,,2017_Jul_05_1708,59.9984989784,MAFE4ImagesEEG,001,200826,
AFNE01.JPG,AFNE01.JPG,AFNE01.JPG,AFNE01.JPG,AFNE01.JPG,AFNE01.JPG,,,,,,,,,,,,,,,,,5,8,58,2,,,,,,,AMNE11.jpg,AMNE17.jpg,AMSA07.jpg,AMSA03.jpg,AMSA03.jpg,MS,2,num_4,16,num_4,0.516852919944,,,2017_Jul_05_1708,59.9984989784,MAFE4ImagesEEG,001,200826,
AFNE01.JPG,AFNE01.JPG,AFNE01.JPG,AFNE01.JPG,AFNE01.JPG,AFNE01.JPG,,,,,,,,,,,,,,,,,5,9,59,6,,,,,,,AMSA05.jpg,AMSA19.jpg,AMNE10.jpg,AMNE02.jpg,AMSA19.jpg,MS,2,num_6,32,num_4,0.766713558696,,,2017_Jul_05_1708,59.9984989784,MAFE4ImagesEEG,001,200826,
,,,,,,,,,,,,,,,,,,,,,,,,,,,,,,,,,,,,,,,,,,,space,7.89917980577,2017_Jul_05_1708,59.9984989784,MAFE4ImagesEEG,001,200826,
AFNE01.JPG,AFNE01.JPG,AFNE01.JPG,AFNE01.JPG,AFNE01.JPG,AFNE01.JPG,,,,,,,,,,,,,,,,,,,,,0,0,0,2,,,AFSA10.jpg,AFNE06.jpg,AFNE03.jpg,AFSA01.jpg,AFSA01.jpg,FS,4,num_4,16,num_4,0.383509771898,,,2017_Jul_05_1708,59.9984989784,MAFE4ImagesEEG,001,200826,
AFNE01.JPG,AFNE01.JPG,AFNE01.JPG,AFNE01.JPG,AFNE01.JPG,AFNE01.JPG,,,,,,,,,,,,,,,,,,,,,0,1,1,4,,,AFSA03.jpg,AFNE13.jpg,AFSA14.jpg,AFNE17.jpg,AFNE17.jpg,FN,3,num_4,32,num_6,0.783529914333,,,2017_Jul_05_1708,59.9984989784,MAFE4ImagesEEG,001,200826,
AFNE01.JPG,AFNE01.JPG,AFNE01.JPG,AFNE01.JPG,AFNE01.JPG,AFNE01.JPG,,,,,,,,,,,,,,,,,,,,,0,2,2,8,,,AFSA19.jpg,AFSA17.jpg,AFNE16.jpg,AFNE01.jpg,AFNE16.jpg,FN,3,num_2,32,num_4,0.28347923758,,,2017_Jul_05_1708,59.9984989784,MAFE4ImagesEEG,001,200826,
AFNE01.JPG,AFNE01.JPG,AFNE01.JPG,AFNE01.JPG,AFNE01.JPG,AFNE01.JPG,,,,,,,,,,,,,,,,,,,,,0,3,3,9,,,AFNE11.jpg,AFSA04.jpg,AFSA02.jpg,AFNE08.jpg,AFSA02.jpg,FS,4,num_2,16,num_2,0.333484722185,,,2017_Jul_05_1708,59.9984989784,MAFE4ImagesEEG,001,200826,
AFNE01.JPG,AFNE01.JPG,AFNE01.JPG,AFNE01.JPG,AFNE01.JPG,AFNE01.JPG,,,,,,,,,,,,,,,,,,,,,0,4,4,0,,,AFNE16.jpg,AFNE09.jpg,AFSA15.jpg,AFSA02.jpg,AFNE09.jpg,FN,3,num_6,16,num_6,0.633487480576,,,2017_Jul_05_1708,59.9984989784,MAFE4ImagesEEG,001,200826,
AFNE01.JPG,AFNE01.JPG,AFNE01.JPG,AFNE01.JPG,AFNE01.JPG,AFNE01.JPG,,,,,,,,,,,,,,,,,,,,,0,5,5,7,,,AFSA16.jpg,AFNE11.jpg,AFSA04.jpg,AFNE02.jpg,AFSA04.jpg,FS,4,num_2,16,num_2,0.383497263072,,,2017_Jul_05_1708,59.9984989784,MAFE4ImagesEEG,001,200826,
AFNE01.JPG,AFNE01.JPG,AFNE01.JPG,AFNE01.JPG,AFNE01.JPG,AFNE01.JPG,,,,,,,,,,,,,,,,,,,,,0,6,6,3,,,AFNE04.jpg,AFSA01.jpg,AFSA06.jpg,AFNE16.jpg,AFSA06.jpg,FS,4,num_2,16,num_2,0.416802178952,,,2017_Jul_05_1708,59.9984989784,MAFE4ImagesEEG,001,200826,
AFNE01.JPG,AFNE01.JPG,AFNE01.JPG,AFNE01.JPG,AFNE01.JPG,AFNE01.JPG,,,,,,,,,,,,,,,,,,,,,0,7,7,5,,,AFNE20.jpg,AFSA13.jpg,AFSA12.jpg,AFNE19.jpg,AFNE20.jpg,FN,3,num_8,32,num_4,0.700132272788,,,2017_Jul_05_1708,59.9984989784,MAFE4ImagesEEG,001,200826,
AFNE01.JPG,AFNE01.JPG,AFNE01.JPG,AFNE01.JPG,AFNE01.JPG,AFNE01.JPG,,,,,,,,,,,,,,,,,,,,,0,8,8,1,,,AFNE13.jpg,AFSA08.jpg,AFNE15.jpg,AFSA10.jpg,AFSA10.jpg,FS,4,num_4,32,num_6,0.583606442786,,,2017_Jul_05_1708,59.9984989784,MAFE4ImagesEEG,001,200826,
AFNE01.JPG,AFNE01.JPG,AFNE01.JPG,AFNE01.JPG,AFNE01.JPG,AFNE01.JPG,,,,,,,,,,,,,,,,,,,,,0,9,9,6,,,AFNE10.jpg,AFNE12.jpg,AFSA07.jpg,AFSA06.jpg,AFNE10.jpg,FN,3,num_8,32,num_4,0.916780689382,,,2017_Jul_05_1708,59.9984989784,MAFE4ImagesEEG,001,200826,
AFNE01.JPG,AFNE01.JPG,AFNE01.JPG,AFNE01.JPG,AFNE01.JPG,AFNE01.JPG,,,,,,,,,,,,,,,,,,,,,1,0,10,8,,,AFNE13.jpg,AFNE02.jpg,AFSA15.jpg,AFSA10.jpg,AFSA10.jpg,FS,4,num_4,32,num_6,0.633455085917,,,2017_Jul_05_1708,59.9984989784,MAFE4ImagesEEG,001,200826,
AFNE01.JPG,AFNE01.JPG,AFNE01.JPG,AFNE01.JPG,AFNE01.JPG,AFNE01.JPG,,,,,,,,,,,,,,,,,,,,,1,1,11,4,,,AFNE02.jpg,AFSA15.jpg,AFSA13.jpg,AFNE04.jpg,AFSA13.jpg,FS,4,num_2,32,num_4,1.21676292049,,,2017_Jul_05_1708,59.9984989784,MAFE4ImagesEEG,001,200826,
AFNE01.JPG,AFNE01.JPG,AFNE01.JPG,AFNE01.JPG,AFNE01.JPG,AFNE01.JPG,,,,,,,,,,,,,,,,,,,,,1,2,12,6,,,AFNE11.jpg,AFSA09.jpg,AFSA07.jpg,AFNE20.jpg,AFNE11.jpg,FN,3,num_8,16,num_8,0.516777225421,,,2017_Jul_05_1708,59.9984989784,MAFE4ImagesEEG,001,200826,
AFNE01.JPG,AFNE01.JPG,AFNE01.JPG,AFNE01.JPG,AFNE01.JPG,AFNE01.JPG,,,,,,,,,,,,,,,,,,,,,1,3,13,7,,,AFSA05.jpg,AFSA11.jpg,AFNE04.jpg,AFNE15.jpg,AFSA11.jpg,FS,4,num_6,32,num_4,0.616827966413,,,2017_Jul_05_1708,59.9984989784,MAFE4ImagesEEG,001,200826,
AFNE01.JPG,AFNE01.JPG,AFNE01.JPG,AFNE01.JPG,AFNE01.JPG,AFNE01.JPG,,,,,,,,,,,,,,,,,,,,,1,4,14,2,,,AFSA17.jpg,AFSA12.jpg,AFNE14.jpg,AFNE06.jpg,AFSA12.jpg,FS,4,num_6,16,num_6,0.466841020389,,,2017_Jul_05_1708,59.9984989784,MAFE4ImagesEEG,001,200826,
AFNE01.JPG,AFNE01.JPG,AFNE01.JPG,AFNE01.JPG,AFNE01.JPG,AFNE01.JPG,,,,,,,,,,,,,,,,,,,,,1,5,15,9,,,AFSA16.jpg,AFSA14.jpg,AFNE12.jpg,AFNE17.jpg,AFSA14.jpg,FS,4,num_6,32,num_4,0.783440748928,,,2017_Jul_05_1708,59.9984989784,MAFE4ImagesEEG,001,200826,
AFNE01.JPG,AFNE01.JPG,AFNE01.JPG,AFNE01.JPG,AFNE01.JPG,AFNE01.JPG,,,,,,,,,,,,,,,,,,,,,1,6,16,5,,,AFSA18.jpg,AFSA17.jpg,AFNE10.jpg,AFNE19.jpg,AFSA18.jpg,FS,4,num_8,32,num_6,0.500033677556,,,2017_Jul_05_1708,59.9984989784,MAFE4ImagesEEG,001,200826,
AFNE01.JPG,AFNE01.JPG,AFNE01.JPG,AFNE01.JPG,AFNE01.JPG,AFNE01.JPG,,,,,,,,,,,,,,,,,,,,,1,7,17,0,,,AFSA03.jpg,AFNE01.jpg,AFSA12.jpg,AFNE04.jpg,AFSA12.jpg,FS,4,num_2,32,num_4,0.683332595625,,,2017_Jul_05_1708,59.9984989784,MAFE4ImagesEEG,001,200826,
AFNE01.JPG,AFNE01.JPG,AFNE01.JPG,AFNE01.JPG,AFNE01.JPG,AFNE01.JPG,,,,,,,,,,,,,,,,,,,,,1,8,18,3,,,AFNE02.jpg,AFSA17.jpg,AFSA04.jpg,AFNE04.jpg,AFSA17.jpg,FS,4,num_6,32,num_4,0.450109340018,,,2017_Jul_05_1708,59.9984989784,MAFE4ImagesEEG,001,200826,
AFNE01.JPG,AFNE01.JPG,AFNE01.JPG,AFNE01.JPG,AFNE01.JPG,AFNE01.JPG,,,,,,,,,,,,,,,,,,,,,1,9,19,1,,,AFSA05.jpg,AFNE17.jpg,AFNE14.jpg,AFSA01.jpg,AFSA01.jpg,FS,4,num_4,32,num_6,0.533454701072,,,2017_Jul_05_1708,59.9984989784,MAFE4ImagesEEG,001,200826,
AFNE01.JPG,AFNE01.JPG,AFNE01.JPG,AFNE01.JPG,AFNE01.JPG,AFNE01.JPG,,,,,,,,,,,,,,,,,,,,,2,0,20,7,,,AFNE11.jpg,AFSA07.jpg,AFNE16.jpg,AFSA02.jpg,AFNE16.jpg,FN,3,num_2,32,num_4,0.433496012352,,,2017_Jul_05_1708,59.9984989784,MAFE4ImagesEEG,001,200826,
AFNE01.JPG,AFNE01.JPG,AFNE01.JPG,AFNE01.JPG,AFNE01.JPG,AFNE01.JPG,,,,,,,,,,,,,,,,,,,,,2,1,21,8,,,AFNE16.jpg,AFNE02.jpg,AFSA01.jpg,AFSA03.jpg,AFSA01.jpg,FS,4,num_2,32,num_8,0.266815874493,,,2017_Jul_05_1708,59.9984989784,MAFE4ImagesEEG,001,200826,
AFNE01.JPG,AFNE01.JPG,AFNE01.JPG,AFNE01.JPG,AFNE01.JPG,AFNE01.JPG,,,,,,,,,,,,,,,,,,,,,2,2,22,4,,,AFSA14.jpg,AFNE13.jpg,AFSA13.jpg,AFNE11.jpg,AFNE11.jpg,FN,3,num_4,16,num_4,0.450220315717,,,2017_Jul_05_1708,59.9984989784,MAFE4ImagesEEG,001,200826,
AFNE01.JPG,AFNE01.JPG,AFNE01.JPG,AFNE01.JPG,AFNE01.JPG,AFNE01.JPG,,,,,,,,,,,,,,,,,,,,,2,3,23,5,,,AFSA16.jpg,AFNE11.jpg,AFSA20.jpg,AFNE12.jpg,AFSA16.jpg,FS,4,num_8,32,num_4,0.833441101713,,,2017_Jul_05_1708,59.9984989784,MAFE4ImagesEEG,001,200826,
AFNE01.JPG,AFNE01.JPG,AFNE01.JPG,AFNE01.JPG,AFNE01.JPG,AFNE01.JPG,,,,,,,,,,,,,,,,,,,,,2,4,24,1,,,AFSA07.jpg,AFNE17.jpg,AFSA18.jpg,AFNE16.jpg,AFSA18.jpg,FS,4,num_2,16,num_2,0.500118994154,,,2017_Jul_05_1708,59.9984989784,MAFE4ImagesEEG,001,200826,
AFNE01.JPG,AFNE01.JPG,AFNE01.JPG,AFNE01.JPG,AFNE01.JPG,AFNE01.JPG,,,,,,,,,,,,,,,,,,,,,2,5,25,6,,,AFNE11.jpg,AFNE14.jpg,AFSA09.jpg,AFSA11.jpg,AFSA11.jpg,FS,4,num_4,16,num_4,0.700138687622,,,2017_Jul_05_1708,59.9984989784,MAFE4ImagesEEG,001,200826,
AFNE01.JPG,AFNE01.JPG,AFNE01.JPG,AFNE01.JPG,AFNE01.JPG,AFNE01.JPG,,,,,,,,,,,,,,,,,,,,,2,6,26,9,,,AFSA12.jpg,AFNE03.jpg,AFNE13.jpg,AFSA18.jpg,AFSA18.jpg,FS,4,num_4,32,num_6,0.383533827378,,,2017_Jul_05_1708,59.9984989784,MAFE4ImagesEEG,001,200826,
AFNE01.JPG,AFNE01.JPG,AFNE01.JPG,AFNE01.JPG,AFNE01.JPG,AFNE01.JPG,,,,,,,,,,,,,,,,,,,,,2,7,27,0,,,AFSA15.jpg,AFSA07.jpg,AFNE14.jpg,AFNE02.jpg,AFNE02.jpg,FN,3,num_4,32,num_6,0.450143659022,,,2017_Jul_05_1708,59.9984989784,MAFE4ImagesEEG,001,200826,
AFNE01.JPG,AFNE01.JPG,AFNE01.JPG,AFNE01.JPG,AFNE01.JPG,AFNE01.JPG,,,,,,,,,,,,,,,,,,,,,2,8,28,2,,,AFSA13.jpg,AFNE08.jpg,AFSA18.jpg,AFNE01.jpg,AFSA13.jpg,FS,4,num_8,32,num_6,0.616770554101,,,2017_Jul_05_1708,59.9984989784,MAFE4ImagesEEG,001,200826,
AFNE01.JPG,AFNE01.JPG,AFNE01.JPG,AFNE01.JPG,AFNE01.JPG,AFNE01.JPG,,,,,,,,,,,,,,,,,,,,,2,9,29,3,,,AFSA09.jpg,AFNE01.jpg,AFNE09.jpg,AFSA15.jpg,AFSA15.jpg,FS,4,num_4,16,num_4,0.450169638963,,,2017_Jul_05_1708,59.9984989784,MAFE4ImagesEEG,001,200826,
AFNE01.JPG,AFNE01.JPG,AFNE01.JPG,AFNE01.JPG,AFNE01.JPG,AFNE01.JPG,,,,,,,,,,,,,,,,,,,,,3,0,30,0,,,AFSA01.jpg,AFSA12.jpg,AFNE17.jpg,AFNE13.jpg,AFNE17.jpg,FN,3,num_2,32,num_4,1.48339052114,,,2017_Jul_05_1708,59.9984989784,MAFE4ImagesEEG,001,200826,
AFNE01.JPG,AFNE01.JPG,AFNE01.JPG,AFNE01.JPG,AFNE01.JPG,AFNE01.JPG,,,,,,,,,,,,,,,,,,,,,3,1,31,7,,,AFNE14.jpg,AFSA14.jpg,AFNE11.jpg,AFSA01.jpg,AFSA01.jpg,FS,4,num_4,16,num_4,0.483483856311,,,2017_Jul_05_1708,59.9984989784,MAFE4ImagesEEG,001,200826,
AFNE01.JPG,AFNE01.JPG,AFNE01.JPG,AFNE01.JPG,AFNE01.JPG,AFNE01.JPG,,,,,,,,,,,,,,,,,,,,,3,2,32,8,,,AFNE01.jpg,AFNE04.jpg,AFSA18.jpg,AFSA09.jpg,AFSA18.jpg,FS,4,num_2,32,num_4,0.766788291046,,,2017_Jul_05_1708,59.9984989784,MAFE4ImagesEEG,001,200826,
AFNE01.JPG,AFNE01.JPG,AFNE01.JPG,AFNE01.JPG,AFNE01.JPG,AFNE01.JPG,,,,,,,,,,,,,,,,,,,,,3,3,33,5,,,AFSA08.jpg,AFSA18.jpg,AFNE16.jpg,AFNE12.jpg,AFNE12.jpg,FN,3,num_4,32,num_6,0.316874281038,,,2017_Jul_05_1708,59.9984989784,MAFE4ImagesEEG,001,200826,
AFNE01.JPG,AFNE01.JPG,AFNE01.JPG,AFNE01.JPG,AFNE01.JPG,AFNE01.JPG,,,,,,,,,,,,,,,,,,,,,3,4,34,9,,,AFNE03.jpg,AFNE11.jpg,AFSA17.jpg,AFSA12.jpg,AFNE03.jpg,FN,3,num_8,32,num_6,0.483548645512,,,2017_Jul_05_1708,59.9984989784,MAFE4ImagesEEG,001,200826,
AFNE01.JPG,AFNE01.JPG,AFNE01.JPG,AFNE01.JPG,AFNE01.JPG,AFNE01.JPG,,,,,,,,,,,,,,,,,,,,,3,5,35,1,,,AFNE01.jpg,AFSA19.jpg,AFSA18.jpg,AFNE18.jpg,AFNE01.jpg,FN,3,num_8,16,num_8,0.583448318299,,,2017_Jul_05_1708,59.9984989784,MAFE4ImagesEEG,001,200826,
AFNE01.JPG,AFNE01.JPG,AFNE01.JPG,AFNE01.JPG,AFNE01.JPG,AFNE01.JPG,,,,,,,,,,,,,,,,,,,,,3,6,36,2,,,AFNE16.jpg,AFSA09.jpg,AFNE07.jpg,AFSA19.jpg,AFNE16.jpg,FN,3,num_8,32,num_6,0.333503966569,,,2017_Jul_05_1708,59.9984989784,MAFE4ImagesEEG,001,200826,
AFNE01.JPG,AFNE01.JPG,AFNE01.JPG,AFNE01.JPG,AFNE01.JPG,AFNE01.JPG,,,,,,,,,,,,,,,,,,,,,3,7,37,3,,,AFSA11.jpg,AFNE12.jpg,AFSA17.jpg,AFNE06.jpg,AFSA11.jpg,FS,4,num_8,32,num_4,0.333567793714,,,2017_Jul_05_1708,59.9984989784,MAFE4ImagesEEG,001,200826,
AFNE01.JPG,AFNE01.JPG,AFNE01.JPG,AFNE01.JPG,AFNE01.JPG,AFNE01.JPG,,,,,,,,,,,,,,,,,,,,,3,8,38,4,,,AFNE06.jpg,AFSA20.jpg,AFNE14.jpg,AFSA16.jpg,AFSA20.jpg,FS,4,num_6,32,num_4,0.30015158141,,,2017_Jul_05_1708,59.9984989784,MAFE4ImagesEEG,001,200826,
