IPosition2,IPosition3,IPosition1,IPosition6,IPosition4,IPosition5,TrialsF1.thisRepN,TrialsF1.thisTrialN,TrialsF1.thisN,TrialsF1.thisIndex,TrialsM1.thisRepN,TrialsM1.thisTrialN,TrialsM1.thisN,TrialsM1.thisIndex,TrialsF2.thisRepN,TrialsF2.thisTrialN,TrialsF2.thisN,TrialsF2.thisIndex,TrialsM2.thisRepN,TrialsM2.thisTrialN,TrialsM2.thisN,TrialsM2.thisIndex,TrialsF3.thisRepN,TrialsF3.thisTrialN,TrialsF3.thisN,TrialsF3.thisIndex,TrialsM3.thisRepN,TrialsM3.thisTrialN,TrialsM3.thisN,TrialsM3.thisIndex,InstrKey_resp.keys,InstrKey_resp.rt,Image0 _Position,Image1 _Position,Image2 _Position,Image3 _Position,Center_image,condition,code,correct_answer,accuracy,Key_Resp.keys,Key_Resp.rt,BreakKey_resp.keys,BreakKey_resp.rt,date,frameRate,expName,session,participant,
,,,,,,,,,,,,,,,,,,,,,,,,,,,,,,space,63.1788416055,,,,,,,,,,,,,,2017_Jul_05_1246,60.0021939316,FEMA4ImagesEEG,001,200818,
AFNE22.JPG,AFSA24.JPG,AFSA22.JPG,AFNE25.JPG,AFNE24.JPG,AFSA25.JPG,0,0,0,6,,,,,,,,,,,,,,,,,,,,,,,AFNE13.jpg,AFNE01.jpg,AFSA12.jpg,AFSA02.jpg,AFSA12.jpg,FS,4,num_2,32,num_6,1.91680121666,,,2017_Jul_05_1246,60.0021939316,FEMA4ImagesEEG,001,200818,
AFSA25.JPG,AFNE24.JPG,AFSA24.JPG,AFNE21.JPG,AFSA21.JPG,AFNE25.JPG,0,1,1,2,,,,,,,,,,,,,,,,,,,,,,,AFNE09.jpg,AFNE16.jpg,AFSA16.jpg,AFSA03.jpg,AFNE16.jpg,FN,3,num_6,32,num_8,0.916776519734,,,2017_Jul_05_1246,60.0021939316,FEMA4ImagesEEG,001,200818,
AMSA21.JPG,AMNE22.JPG,AMNE21.JPG,AMSA23.JPG,AMSA22.JPG,AMNE23.JPG,0,2,2,1,,,,,,,,,,,,,,,,,,,,,,,AFNE16.jpg,AFSA12.jpg,AFNE10.jpg,AFSA04.jpg,AFSA04.jpg,FS,4,num_4,16,num_4,0.750204471173,,,2017_Jul_05_1246,60.0021939316,FEMA4ImagesEEG,001,200818,
AMNE23.JPG,AMNE24.JPG,AMNE22.JPG,AMSA24.JPG,AMSA22.JPG,AMSA23.JPG,0,3,3,9,,,,,,,,,,,,,,,,,,,,,,,AFNE12.jpg,AFSA11.jpg,AFSA04.jpg,AFNE15.jpg,AFSA11.jpg,FS,4,num_6,16,num_6,0.583520484739,,,2017_Jul_05_1246,60.0021939316,FEMA4ImagesEEG,001,200818,
AMSA21.JPG,AMNE23.JPG,AMNE21.JPG,AMSA25.JPG,AMNE25.JPG,AMSA23.JPG,0,4,4,5,,,,,,,,,,,,,,,,,,,,,,,AFNE04.jpg,AFSA05.jpg,AFNE09.jpg,AFSA03.jpg,AFNE09.jpg,FN,3,num_2,32,num_8,0.766770650283,,,2017_Jul_05_1246,60.0021939316,FEMA4ImagesEEG,001,200818,
AMSA25.JPG,AMNE24.JPG,AMSA24.JPG,AMNE26.JPG,AMSA21.JPG,AMNE25.JPG,0,5,5,3,,,,,,,,,,,,,,,,,,,,,,,AFNE20.jpg,AFSA06.jpg,AFNE01.jpg,AFSA20.jpg,AFSA20.jpg,FS,4,num_4,32,num_6,0.700085765682,,,2017_Jul_05_1246,60.0021939316,FEMA4ImagesEEG,001,200818,
AFSA21.JPG,AFNE22.JPG,AFNE21.JPG,AFSA23.JPG,AFSA22.JPG,AFNE23.JPG,0,6,6,0,,,,,,,,,,,,,,,,,,,,,,,AFNE06.jpg,AFNE17.jpg,AFSA13.jpg,AFSA04.jpg,AFSA13.jpg,FS,4,num_2,32,num_8,0.883461340331,,,2017_Jul_05_1246,60.0021939316,FEMA4ImagesEEG,001,200818,
AMNE22.JPG,AMSA24.JPG,AMSA22.JPG,AMNE25.JPG,AMNE24.JPG,AMSA25.JPG,0,7,7,7,,,,,,,,,,,,,,,,,,,,,,,AFNE13.jpg,AFNE05.jpg,AFSA10.jpg,AFSA09.jpg,AFSA09.jpg,FS,4,num_4,16,num_4,0.616749385372,,,2017_Jul_05_1246,60.0021939316,FEMA4ImagesEEG,001,200818,
AFSA21.JPG,AFNE23.JPG,AFNE21.JPG,AFSA25.JPG,AFNE25.JPG,AFSA23.JPG,0,8,8,4,,,,,,,,,,,,,,,,,,,,,,,AFNE15.jpg,AFNE16.jpg,AFSA15.jpg,AFSA06.jpg,AFNE15.jpg,FN,3,num_8,16,num_8,0.900155815063,,,2017_Jul_05_1246,60.0021939316,FEMA4ImagesEEG,001,200818,
AFNE23.JPG,AFNE24.JPG,AFNE22.JPG,AFSA24.JPG,AFSA22.JPG,AFSA23.JPG,0,9,9,8,,,,,,,,,,,,,,,,,,,,,,,AFNE17.jpg,AFSA10.jpg,AFSA18.jpg,AFNE19.jpg,AFSA18.jpg,FS,4,num_2,16,num_2,1.21680846554,,,2017_Jul_05_1246,60.0021939316,FEMA4ImagesEEG,001,200818,
AMNE22.JPG,AMSA24.JPG,AMSA22.JPG,AMNE25.JPG,AMNE24.JPG,AMSA25.JPG,,,,,0,0,0,7,,,,,,,,,,,,,,,,,,,AMNE06.jpg,AMSA03.jpg,AMSA14.jpg,AMNE07.jpg,AMNE07.jpg,MN,1,num_4,32,num_8,0.833439177251,,,2017_Jul_05_1246,60.0021939316,FEMA4ImagesEEG,001,200818,
AMSA21.JPG,AMNE22.JPG,AMNE21.JPG,AMSA23.JPG,AMSA22.JPG,AMNE23.JPG,,,,,0,1,1,1,,,,,,,,,,,,,,,,,,,AMSA13.jpg,AMSA10.jpg,AMNE02.jpg,AMNE03.jpg,AMNE03.jpg,MN,1,num_4,32,num_6,0.78346287983,,,2017_Jul_05_1246,60.0021939316,FEMA4ImagesEEG,001,200818,
AFNE23.JPG,AFNE24.JPG,AFNE22.JPG,AFSA24.JPG,AFSA22.JPG,AFSA23.JPG,,,,,0,2,2,8,,,,,,,,,,,,,,,,,,,AMNE14.jpg,AMSA06.jpg,AMSA16.jpg,AMNE02.jpg,AMNE14.jpg,MN,1,num_8,16,num_8,0.650103053427,,,2017_Jul_05_1246,60.0021939316,FEMA4ImagesEEG,001,200818,
AMSA21.JPG,AMNE23.JPG,AMNE21.JPG,AMSA25.JPG,AMNE25.JPG,AMSA23.JPG,,,,,0,3,3,5,,,,,,,,,,,,,,,,,,,AMNE11.jpg,AMSA02.jpg,AMSA20.jpg,AMNE19.jpg,AMSA02.jpg,MS,2,num_6,32,num_4,0.900142985513,,,2017_Jul_05_1246,60.0021939316,FEMA4ImagesEEG,001,200818,
AMNE23.JPG,AMNE24.JPG,AMNE22.JPG,AMSA24.JPG,AMSA22.JPG,AMSA23.JPG,,,,,0,4,4,9,,,,,,,,,,,,,,,,,,,AMNE19.jpg,AMSA02.jpg,AMNE05.jpg,AMSA20.jpg,AMNE05.jpg,MN,1,num_2,32,num_8,0.766757500009,,,2017_Jul_05_1246,60.0021939316,FEMA4ImagesEEG,001,200818,
AFSA21.JPG,AFNE23.JPG,AFNE21.JPG,AFSA25.JPG,AFNE25.JPG,AFSA23.JPG,,,,,0,5,5,4,,,,,,,,,,,,,,,,,,,AMNE16.jpg,AMNE05.jpg,AMSA02.jpg,AMSA15.jpg,AMSA02.jpg,MS,2,num_2,32,num_4,0.766750764451,,,2017_Jul_05_1246,60.0021939316,FEMA4ImagesEEG,001,200818,
AFNE22.JPG,AFSA24.JPG,AFSA22.JPG,AFNE25.JPG,AFNE24.JPG,AFSA25.JPG,,,,,0,6,6,6,,,,,,,,,,,,,,,,,,,AMSA10.jpg,AMNE10.jpg,AMNE15.jpg,AMSA16.jpg,AMNE10.jpg,MN,1,num_6,16,num_6,0.716766448575,,,2017_Jul_05_1246,60.0021939316,FEMA4ImagesEEG,001,200818,
AFSA25.JPG,AFNE24.JPG,AFSA24.JPG,AFNE21.JPG,AFSA21.JPG,AFNE25.JPG,,,,,0,7,7,2,,,,,,,,,,,,,,,,,,,AMNE07.jpg,AMSA17.jpg,AMNE16.jpg,AMSA20.jpg,AMNE07.jpg,MN,1,num_8,16,num_8,0.583458261215,,,2017_Jul_05_1246,60.0021939316,FEMA4ImagesEEG,001,200818,
AMSA25.JPG,AMNE24.JPG,AMSA24.JPG,AMNE26.JPG,AMSA21.JPG,AMNE25.JPG,,,,,0,8,8,3,,,,,,,,,,,,,,,,,,,AMSA10.jpg,AMNE04.jpg,AMNE02.jpg,AMSA19.jpg,AMNE02.jpg,MN,1,num_2,32,num_8,0.683456080267,,,2017_Jul_05_1246,60.0021939316,FEMA4ImagesEEG,001,200818,
AFSA21.JPG,AFNE22.JPG,AFNE21.JPG,AFSA23.JPG,AFSA22.JPG,AFNE23.JPG,,,,,0,9,9,0,,,,,,,,,,,,,,,,,,,AMSA07.jpg,AMSA09.jpg,AMNE14.jpg,AMNE15.jpg,AMSA07.jpg,MS,2,num_8,32,num_4,0.783464162843,,,2017_Jul_05_1246,60.0021939316,FEMA4ImagesEEG,001,200818,
AFNE23.JPG,AFNE24.JPG,AFNE22.JPG,AFSA24.JPG,AFSA22.JPG,AFSA23.JPG,,,,,,,,,0,0,0,8,,,,,,,,,,,,,,,AFSA04.jpg,AFSA03.jpg,AFNE03.jpg,AFNE16.jpg,AFSA03.jpg,FS,4,num_6,16,num_6,0.816877488513,,,2017_Jul_05_1246,60.0021939316,FEMA4ImagesEEG,001,200818,
AMNE23.JPG,AMNE24.JPG,AMNE22.JPG,AMSA24.JPG,AMSA22.JPG,AMSA23.JPG,,,,,,,,,0,1,1,9,,,,,,,,,,,,,,,AFNE05.jpg,AFNE16.jpg,AFSA05.jpg,AFSA10.jpg,AFSA10.jpg,FS,4,num_4,16,num_4,1.08369272167,,,2017_Jul_05_1246,60.0021939316,FEMA4ImagesEEG,001,200818,
AFSA25.JPG,AFNE24.JPG,AFSA24.JPG,AFNE21.JPG,AFSA21.JPG,AFNE25.JPG,,,,,,,,,0,2,2,2,,,,,,,,,,,,,,,AFSA12.jpg,AFNE04.jpg,AFNE16.jpg,AFSA15.jpg,AFSA15.jpg,FS,4,num_4,32,num_8,0.733318194398,,,2017_Jul_05_1246,60.0021939316,FEMA4ImagesEEG,001,200818,
AMNE22.JPG,AMSA24.JPG,AMSA22.JPG,AMNE25.JPG,AMNE24.JPG,AMSA25.JPG,,,,,,,,,0,3,3,7,,,,,,,,,,,,,,,AFSA05.jpg,AFNE04.jpg,AFSA07.jpg,AFNE17.jpg,AFNE17.jpg,FN,3,num_4,32,num_6,0.983441839344,,,2017_Jul_05_1246,60.0021939316,FEMA4ImagesEEG,001,200818,
AFNE22.JPG,AFSA24.JPG,AFSA22.JPG,AFNE25.JPG,AFNE24.JPG,AFSA25.JPG,,,,,,,,,0,4,4,6,,,,,,,,,,,,,,,AFNE10.jpg,AFSA12.jpg,AFNE11.jpg,AFSA05.jpg,AFSA05.jpg,FS,4,num_4,16,num_4,0.733517694171,,,2017_Jul_05_1246,60.0021939316,FEMA4ImagesEEG,001,200818,
AMSA25.JPG,AMNE24.JPG,AMSA24.JPG,AMNE26.JPG,AMSA21.JPG,AMNE25.JPG,,,,,,,,,0,5,5,3,,,,,,,,,,,,,,,AFSA04.jpg,AFSA10.jpg,AFNE14.jpg,AFNE02.jpg,AFSA04.jpg,FS,4,num_8,16,num_8,0.733500694972,,,2017_Jul_05_1246,60.0021939316,FEMA4ImagesEEG,001,200818,
AMSA21.JPG,AMNE22.JPG,AMNE21.JPG,AMSA23.JPG,AMSA22.JPG,AMNE23.JPG,,,,,,,,,0,6,6,1,,,,,,,,,,,,,,,AFSA18.jpg,AFNE14.jpg,AFNE10.jpg,AFSA02.jpg,AFNE10.jpg,FN,3,num_2,16,num_2,0.683477569721,,,2017_Jul_05_1246,60.0021939316,FEMA4ImagesEEG,001,200818,
AFSA21.JPG,AFNE23.JPG,AFNE21.JPG,AFSA25.JPG,AFNE25.JPG,AFSA23.JPG,,,,,,,,,0,7,7,4,,,,,,,,,,,,,,,AFSA10.jpg,AFNE17.jpg,AFNE20.jpg,AFSA01.jpg,AFSA10.jpg,FS,4,num_8,32,num_6,0.700177817722,,,2017_Jul_05_1246,60.0021939316,FEMA4ImagesEEG,001,200818,
AMSA21.JPG,AMNE23.JPG,AMNE21.JPG,AMSA25.JPG,AMNE25.JPG,AMSA23.JPG,,,,,,,,,0,8,8,5,,,,,,,,,,,,,,,AFSA20.jpg,AFNE15.jpg,AFNE11.jpg,AFSA09.jpg,AFNE11.jpg,FN,3,num_2,32,num_8,0.733464772231,,,2017_Jul_05_1246,60.0021939316,FEMA4ImagesEEG,001,200818,
AFSA21.JPG,AFNE22.JPG,AFNE21.JPG,AFSA23.JPG,AFSA22.JPG,AFNE23.JPG,,,,,,,,,0,9,9,0,,,,,,,,,,,,,,,AFNE12.jpg,AFSA06.jpg,AFNE03.jpg,AFSA13.jpg,AFNE03.jpg,FN,3,num_2,16,num_2,0.750042497879,,,2017_Jul_05_1246,60.0021939316,FEMA4ImagesEEG,001,200818,
AFNE22.JPG,AFSA24.JPG,AFSA22.JPG,AFNE25.JPG,AFNE24.JPG,AFSA25.JPG,,,,,,,,,,,,,0,0,0,6,,,,,,,,,,,AMSA05.jpg,AMNE09.jpg,AMSA19.jpg,AMNE06.jpg,AMSA05.jpg,MS,2,num_8,32,num_4,0.700119122514,,,2017_Jul_05_1246,60.0021939316,FEMA4ImagesEEG,001,200818,
AMSA25.JPG,AMNE24.JPG,AMSA24.JPG,AMNE26.JPG,AMSA21.JPG,AMNE25.JPG,,,,,,,,,,,,,0,1,1,3,,,,,,,,,,,AMNE18.jpg,AMSA13.jpg,AMSA17.jpg,AMNE12.jpg,AMSA13.jpg,MS,2,num_6,16,num_6,0.800128167379,,,2017_Jul_05_1246,60.0021939316,FEMA4ImagesEEG,001,200818,
AMSA21.JPG,AMNE23.JPG,AMNE21.JPG,AMSA25.JPG,AMNE25.JPG,AMSA23.JPG,,,,,,,,,,,,,0,2,2,5,,,,,,,,,,,AMSA18.jpg,AMNE07.jpg,AMSA08.jpg,AMNE19.jpg,AMNE07.jpg,MN,1,num_6,32,num_4,0.600201167632,,,2017_Jul_05_1246,60.0021939316,FEMA4ImagesEEG,001,200818,
AMNE22.JPG,AMSA24.JPG,AMSA22.JPG,AMNE25.JPG,AMNE24.JPG,AMSA25.JPG,,,,,,,,,,,,,0,3,3,7,,,,,,,,,,,AMNE02.jpg,AMSA12.jpg,AMSA02.jpg,AMNE20.jpg,AMSA12.jpg,MS,2,num_6,16,num_6,0.71676195832,,,2017_Jul_05_1246,60.0021939316,FEMA4ImagesEEG,001,200818,
AFSA25.JPG,AFNE24.JPG,AFSA24.JPG,AFNE21.JPG,AFSA21.JPG,AFNE25.JPG,,,,,,,,,,,,,0,4,4,2,,,,,,,,,,,AMNE13.jpg,AMSA18.jpg,AMSA17.jpg,AMNE17.jpg,AMSA18.jpg,MS,2,num_6,16,num_6,0.916758237639,,,2017_Jul_05_1246,60.0021939316,FEMA4ImagesEEG,001,200818,
AMNE23.JPG,AMNE24.JPG,AMNE22.JPG,AMSA24.JPG,AMSA22.JPG,AMSA23.JPG,,,,,,,,,,,,,0,5,5,9,,,,,,,,,,,AMSA08.jpg,AMNE02.jpg,AMNE03.jpg,AMSA19.jpg,AMNE02.jpg,MN,1,num_6,32,num_8,0.516781074344,,,2017_Jul_05_1246,60.0021939316,FEMA4ImagesEEG,001,200818,
AFSA21.JPG,AFNE22.JPG,AFNE21.JPG,AFSA23.JPG,AFSA22.JPG,AFNE23.JPG,,,,,,,,,,,,,0,6,6,0,,,,,,,,,,,AMSA05.jpg,AMNE19.jpg,AMNE17.jpg,AMSA13.jpg,AMNE17.jpg,MN,1,num_2,32,num_6,0.716833483195,,,2017_Jul_05_1246,60.0021939316,FEMA4ImagesEEG,001,200818,
AMSA21.JPG,AMNE22.JPG,AMNE21.JPG,AMSA23.JPG,AMSA22.JPG,AMNE23.JPG,,,,,,,,,,,,,0,7,7,1,,,,,,,,,,,AMSA19.jpg,AMNE11.jpg,AMSA10.jpg,AMNE07.jpg,AMSA19.jpg,MS,2,num_8,32,num_4,0.533471379429,,,2017_Jul_05_1246,60.0021939316,FEMA4ImagesEEG,001,200818,
AFSA21.JPG,AFNE23.JPG,AFNE21.JPG,AFSA25.JPG,AFNE25.JPG,AFSA23.JPG,,,,,,,,,,,,,0,8,8,4,,,,,,,,,,,AMNE19.jpg,AMNE16.jpg,AMSA14.jpg,AMSA03.jpg,AMSA03.jpg,MS,2,num_4,16,num_4,0.966722346959,,,2017_Jul_05_1246,60.0021939316,FEMA4ImagesEEG,001,200818,
AFNE23.JPG,AFNE24.JPG,AFNE22.JPG,AFSA24.JPG,AFSA22.JPG,AFSA23.JPG,,,,,,,,,,,,,0,9,9,8,,,,,,,,,,,AMSA19.jpg,AMSA08.jpg,AMNE08.jpg,AMNE14.jpg,AMNE08.jpg,MN,1,num_2,32,num_8,0.683530812385,,,2017_Jul_05_1246,60.0021939316,FEMA4ImagesEEG,001,200818,
AMNE23.JPG,AMNE24.JPG,AMNE22.JPG,AMSA24.JPG,AMSA22.JPG,AMSA23.JPG,,,,,,,,,,,,,,,,,0,0,0,9,,,,,,,AFNE03.jpg,AFNE18.jpg,AFSA07.jpg,AFSA05.jpg,AFNE18.jpg,FN,3,num_6,32,num_4,0.733455791487,,,2017_Jul_05_1246,60.0021939316,FEMA4ImagesEEG,001,200818,
AFNE23.JPG,AFNE24.JPG,AFNE22.JPG,AFSA24.JPG,AFSA22.JPG,AFSA23.JPG,,,,,,,,,,,,,,,,,0,1,1,8,,,,,,,AFNE11.jpg,AFSA20.jpg,AFNE04.jpg,AFSA12.jpg,AFNE04.jpg,FN,3,num_2,32,num_6,0.533477473538,,,2017_Jul_05_1246,60.0021939316,FEMA4ImagesEEG,001,200818,
AMSA25.JPG,AMNE24.JPG,AMSA24.JPG,AMNE26.JPG,AMSA21.JPG,AMNE25.JPG,,,,,,,,,,,,,,,,,0,2,2,3,,,,,,,AFNE15.jpg,AFNE11.jpg,AFSA13.jpg,AFSA19.jpg,AFSA13.jpg,FS,4,num_2,32,num_4,0.766828383435,,,2017_Jul_05_1246,60.0021939316,FEMA4ImagesEEG,001,200818,
AMNE22.JPG,AMSA24.JPG,AMSA22.JPG,AMNE25.JPG,AMNE24.JPG,AMSA25.JPG,,,,,,,,,,,,,,,,,0,3,3,7,,,,,,,AFNE08.jpg,AFSA10.jpg,AFNE05.jpg,AFSA02.jpg,AFSA02.jpg,FS,4,num_4,32,num_8,0.466680971556,,,2017_Jul_05_1246,60.0021939316,FEMA4ImagesEEG,001,200818,
AMSA21.JPG,AMNE23.JPG,AMNE21.JPG,AMSA25.JPG,AMNE25.JPG,AMSA23.JPG,,,,,,,,,,,,,,,,,0,4,4,5,,,,,,,AFSA20.jpg,AFNE10.jpg,AFSA16.jpg,AFNE02.jpg,AFSA20.jpg,FS,4,num_8,32,num_4,0.516791979433,,,2017_Jul_05_1246,60.0021939316,FEMA4ImagesEEG,001,200818,
AFNE22.JPG,AFSA24.JPG,AFSA22.JPG,AFNE25.JPG,AFNE24.JPG,AFSA25.JPG,,,,,,,,,,,,,,,,,0,5,5,6,,,,,,,AFSA18.jpg,AFNE09.jpg,AFNE12.jpg,AFSA07.jpg,AFNE09.jpg,FN,3,num_6,16,num_6,0.633457972552,,,2017_Jul_05_1246,60.0021939316,FEMA4ImagesEEG,001,200818,
AMSA21.JPG,AMNE22.JPG,AMNE21.JPG,AMSA23.JPG,AMSA22.JPG,AMNE23.JPG,,,,,,,,,,,,,,,,,0,6,6,1,,,,,,,AFSA12.jpg,AFNE09.jpg,AFSA16.jpg,AFNE06.jpg,AFNE06.jpg,FN,3,num_4,16,num_4,0.666757756611,,,2017_Jul_05_1246,60.0021939316,FEMA4ImagesEEG,001,200818,
AFSA25.JPG,AFNE24.JPG,AFSA24.JPG,AFNE21.JPG,AFSA21.JPG,AFNE25.JPG,,,,,,,,,,,,,,,,,0,7,7,2,,,,,,,AFNE11.jpg,AFSA18.jpg,AFSA20.jpg,AFNE09.jpg,AFNE09.jpg,FN,3,num_4,32,num_8,0.650128712645,,,2017_Jul_05_1246,60.0021939316,FEMA4ImagesEEG,001,200818,
AFSA21.JPG,AFNE23.JPG,AFNE21.JPG,AFSA25.JPG,AFNE25.JPG,AFSA23.JPG,,,,,,,,,,,,,,,,,0,8,8,4,,,,,,,AFSA17.jpg,AFNE12.jpg,AFSA20.jpg,AFNE15.jpg,AFNE12.jpg,FN,3,num_6,32,num_4,1.41674316302,,,2017_Jul_05_1246,60.0021939316,FEMA4ImagesEEG,001,200818,
AFSA21.JPG,AFNE22.JPG,AFNE21.JPG,AFSA23.JPG,AFSA22.JPG,AFNE23.JPG,,,,,,,,,,,,,,,,,0,9,9,0,,,,,,,AFSA12.jpg,AFSA13.jpg,AFNE02.jpg,AFNE06.jpg,AFSA13.jpg,FS,4,num_6,16,num_6,0.650152768125,,,2017_Jul_05_1246,60.0021939316,FEMA4ImagesEEG,001,200818,
AFSA25.JPG,AFNE24.JPG,AFSA24.JPG,AFNE21.JPG,AFSA21.JPG,AFNE25.JPG,,,,,,,,,,,,,,,,,,,,,0,0,0,2,,,AMNE01.jpg,AMSA19.jpg,AMNE05.jpg,AMSA13.jpg,AMNE01.jpg,MN,1,num_8,16,num_8,0.800156713114,,,2017_Jul_05_1246,60.0021939316,FEMA4ImagesEEG,001,200818,
AFSA21.JPG,AFNE23.JPG,AFNE21.JPG,AFSA25.JPG,AFNE25.JPG,AFSA23.JPG,,,,,,,,,,,,,,,,,,,,,0,1,1,4,,,AMSA19.jpg,AMNE12.jpg,AMNE03.jpg,AMSA13.jpg,AMNE12.jpg,MN,1,num_6,32,num_4,0.400136891403,,,2017_Jul_05_1246,60.0021939316,FEMA4ImagesEEG,001,200818,
AMNE22.JPG,AMSA24.JPG,AMSA22.JPG,AMNE25.JPG,AMNE24.JPG,AMSA25.JPG,,,,,,,,,,,,,,,,,,,,,0,2,2,7,,,AMSA15.jpg,AMNE03.jpg,AMSA07.jpg,AMNE06.jpg,AMNE06.jpg,MN,1,num_4,32,num_8,0.783419259358,,,2017_Jul_05_1246,60.0021939316,FEMA4ImagesEEG,001,200818,
AMSA21.JPG,AMNE23.JPG,AMNE21.JPG,AMSA25.JPG,AMNE25.JPG,AMSA23.JPG,,,,,,,,,,,,,,,,,,,,,0,3,3,5,,,AMSA04.jpg,AMSA07.jpg,AMNE03.jpg,AMNE11.jpg,AMNE03.jpg,MN,1,num_2,32,num_4,0.700116877328,,,2017_Jul_05_1246,60.0021939316,FEMA4ImagesEEG,001,200818,
AMSA25.JPG,AMNE24.JPG,AMSA24.JPG,AMNE26.JPG,AMSA21.JPG,AMNE25.JPG,,,,,,,,,,,,,,,,,,,,,0,4,4,3,,,AMSA01.jpg,AMNE19.jpg,AMNE18.jpg,AMSA09.jpg,AMNE18.jpg,MN,1,num_2,32,num_6,0.616778251831,,,2017_Jul_05_1246,60.0021939316,FEMA4ImagesEEG,001,200818,
AMNE23.JPG,AMNE24.JPG,AMNE22.JPG,AMSA24.JPG,AMSA22.JPG,AMSA23.JPG,,,,,,,,,,,,,,,,,,,,,0,5,5,9,,,AMSA03.jpg,AMNE05.jpg,AMNE09.jpg,AMSA01.jpg,AMSA01.jpg,MS,2,num_4,16,num_4,0.700224645785,,,2017_Jul_05_1246,60.0021939316,FEMA4ImagesEEG,001,200818,
AMSA21.JPG,AMNE22.JPG,AMNE21.JPG,AMSA23.JPG,AMSA22.JPG,AMNE23.JPG,,,,,,,,,,,,,,,,,,,,,0,6,6,1,,,AMNE15.jpg,AMNE06.jpg,AMSA19.jpg,AMSA14.jpg,AMNE06.jpg,MN,1,num_6,16,num_6,0.583459223504,,,2017_Jul_05_1246,60.0021939316,FEMA4ImagesEEG,001,200818,
AFNE23.JPG,AFNE24.JPG,AFNE22.JPG,AFSA24.JPG,AFSA22.JPG,AFSA23.JPG,,,,,,,,,,,,,,,,,,,,,0,7,7,8,,,AMNE20.jpg,AMNE09.jpg,AMSA20.jpg,AMSA17.jpg,AMNE09.jpg,MN,1,num_6,32,num_8,0.61680551467,,,2017_Jul_05_1246,60.0021939316,FEMA4ImagesEEG,001,200818,
AFNE22.JPG,AFSA24.JPG,AFSA22.JPG,AFNE25.JPG,AFNE24.JPG,AFSA25.JPG,,,,,,,,,,,,,,,,,,,,,0,8,8,6,,,AMNE15.jpg,AMSA02.jpg,AMSA04.jpg,AMNE09.jpg,AMNE15.jpg,MN,1,num_8,32,num_4,0.80017788196,,,2017_Jul_05_1246,60.0021939316,FEMA4ImagesEEG,001,200818,
AFSA21.JPG,AFNE22.JPG,AFNE21.JPG,AFSA23.JPG,AFSA22.JPG,AFNE23.JPG,,,,,,,,,,,,,,,,,,,,,0,9,9,0,,,AMSA09.jpg,AMNE05.jpg,AMNE11.jpg,AMSA05.jpg,AMNE05.jpg,MN,1,num_6,16,num_6,0.800163448672,,,2017_Jul_05_1246,60.0021939316,FEMA4ImagesEEG,001,200818,
,,,,,,,,,,,,,,,,,,,,,,,,,,,,,,,,,,,,,,,,,,,space,52.2126414219,2017_Jul_05_1246,60.0021939316,FEMA4ImagesEEG,001,200818,
AFNE01.JPG,AFNE01.JPG,AFNE01.JPG,AFNE01.JPG,AFNE01.JPG,AFNE01.JPG,0,0,0,8,,,,,,,,,,,,,,,,,,,,,,,AFNE19.jpg,AFSA10.jpg,AFNE04.jpg,AFSA19.jpg,AFNE19.jpg,FN,3,num_8,32,num_6,0.716827389086,,,2017_Jul_05_1246,60.0021939316,FEMA4ImagesEEG,001,200818,
AFNE01.JPG,AFNE01.JPG,AFNE01.JPG,AFNE01.JPG,AFNE01.JPG,AFNE01.JPG,0,1,1,0,,,,,,,,,,,,,,,,,,,,,,,AFSA19.jpg,AFNE17.jpg,AFSA02.jpg,AFNE06.jpg,AFNE17.jpg,FN,3,num_6,32,num_8,0.583474298241,,,2017_Jul_05_1246,60.0021939316,FEMA4ImagesEEG,001,200818,
AFNE01.JPG,AFNE01.JPG,AFNE01.JPG,AFNE01.JPG,AFNE01.JPG,AFNE01.JPG,0,2,2,3,,,,,,,,,,,,,,,,,,,,,,,AFSA16.jpg,AFNE05.jpg,AFSA03.jpg,AFNE04.jpg,AFNE05.jpg,FN,3,num_6,16,num_6,0.583453770843,,,2017_Jul_05_1246,60.0021939316,FEMA4ImagesEEG,001,200818,
AFNE01.JPG,AFNE01.JPG,AFNE01.JPG,AFNE01.JPG,AFNE01.JPG,AFNE01.JPG,0,3,3,5,,,,,,,,,,,,,,,,,,,,,,,AFSA09.jpg,AFNE16.jpg,AFNE13.jpg,AFSA14.jpg,AFNE16.jpg,FN,3,num_6,32,num_4,0.883489244618,,,2017_Jul_05_1246,60.0021939316,FEMA4ImagesEEG,001,200818,
AFNE01.JPG,AFNE01.JPG,AFNE01.JPG,AFNE01.JPG,AFNE01.JPG,AFNE01.JPG,0,4,4,1,,,,,,,,,,,,,,,,,,,,,,,AFNE17.jpg,AFSA10.jpg,AFSA11.jpg,AFNE05.jpg,AFSA10.jpg,FS,4,num_6,32,num_8,0.816758494359,,,2017_Jul_05_1246,60.0021939316,FEMA4ImagesEEG,001,200818,
AFNE01.JPG,AFNE01.JPG,AFNE01.JPG,AFNE01.JPG,AFNE01.JPG,AFNE01.JPG,0,5,5,6,,,,,,,,,,,,,,,,,,,,,,,AFNE06.jpg,AFNE13.jpg,AFSA09.jpg,AFSA03.jpg,AFNE13.jpg,FN,3,num_6,16,num_6,0.616886982461,,,2017_Jul_05_1246,60.0021939316,FEMA4ImagesEEG,001,200818,
AFNE01.JPG,AFNE01.JPG,AFNE01.JPG,AFNE01.JPG,AFNE01.JPG,AFNE01.JPG,0,6,6,9,,,,,,,,,,,,,,,,,,,,,,,AFNE03.jpg,AFSA14.jpg,AFSA11.jpg,AFNE06.jpg,AFSA11.jpg,FS,4,num_2,32,num_4,0.70011270768,,,2017_Jul_05_1246,60.0021939316,FEMA4ImagesEEG,001,200818,
AFNE01.JPG,AFNE01.JPG,AFNE01.JPG,AFNE01.JPG,AFNE01.JPG,AFNE01.JPG,0,7,7,4,,,,,,,,,,,,,,,,,,,,,,,AFNE19.jpg,AFSA08.jpg,AFNE15.jpg,AFSA07.jpg,AFSA08.jpg,FS,4,num_6,16,num_6,0.48355538107,,,2017_Jul_05_1246,60.0021939316,FEMA4ImagesEEG,001,200818,
AFNE01.JPG,AFNE01.JPG,AFNE01.JPG,AFNE01.JPG,AFNE01.JPG,AFNE01.JPG,0,8,8,2,,,,,,,,,,,,,,,,,,,,,,,AFNE20.jpg,AFSA03.jpg,AFSA02.jpg,AFNE18.jpg,AFNE20.jpg,FN,3,num_8,32,num_4,0.799995702109,,,2017_Jul_05_1246,60.0021939316,FEMA4ImagesEEG,001,200818,
AFNE01.JPG,AFNE01.JPG,AFNE01.JPG,AFNE01.JPG,AFNE01.JPG,AFNE01.JPG,0,9,9,7,,,,,,,,,,,,,,,,,,,,,,,AFSA06.jpg,AFSA05.jpg,AFNE19.jpg,AFNE18.jpg,AFSA05.jpg,FS,4,num_6,16,num_6,0.483620491228,,,2017_Jul_05_1246,60.0021939316,FEMA4ImagesEEG,001,200818,
AFNE01.JPG,AFNE01.JPG,AFNE01.JPG,AFNE01.JPG,AFNE01.JPG,AFNE01.JPG,1,0,10,7,,,,,,,,,,,,,,,,,,,,,,,AFSA05.jpg,AFNE08.jpg,AFSA03.jpg,AFNE03.jpg,AFNE03.jpg,FN,3,num_4,16,num_4,0.866766865598,,,2017_Jul_05_1246,60.0021939316,FEMA4ImagesEEG,001,200818,
AFNE01.JPG,AFNE01.JPG,AFNE01.JPG,AFNE01.JPG,AFNE01.JPG,AFNE01.JPG,1,1,11,9,,,,,,,,,,,,,,,,,,,,,,,AFNE17.jpg,AFSA19.jpg,AFSA10.jpg,AFNE07.jpg,AFNE17.jpg,FN,3,num_8,32,num_2,0.850095163332,,,2017_Jul_05_1246,60.0021939316,FEMA4ImagesEEG,001,200818,
AFNE01.JPG,AFNE01.JPG,AFNE01.JPG,AFNE01.JPG,AFNE01.JPG,AFNE01.JPG,1,2,12,6,,,,,,,,,,,,,,,,,,,,,,,AFSA07.jpg,AFNE07.jpg,AFNE13.jpg,AFSA04.jpg,AFNE07.jpg,FN,3,num_6,16,num_6,0.616842399584,,,2017_Jul_05_1246,60.0021939316,FEMA4ImagesEEG,001,200818,
AFNE01.JPG,AFNE01.JPG,AFNE01.JPG,AFNE01.JPG,AFNE01.JPG,AFNE01.JPG,1,3,13,1,,,,,,,,,,,,,,,,,,,,,,,AFNE12.jpg,AFSA13.jpg,AFSA05.jpg,AFNE07.jpg,AFSA13.jpg,FS,4,num_6,16,num_6,0.816854395322,,,2017_Jul_05_1246,60.0021939316,FEMA4ImagesEEG,001,200818,
AFNE01.JPG,AFNE01.JPG,AFNE01.JPG,AFNE01.JPG,AFNE01.JPG,AFNE01.JPG,1,4,14,8,,,,,,,,,,,,,,,,,,,,,,,AFSA13.jpg,AFNE13.jpg,AFNE18.jpg,AFSA01.jpg,AFNE13.jpg,FN,3,num_6,32,num_8,0.733453225694,,,2017_Jul_05_1246,60.0021939316,FEMA4ImagesEEG,001,200818,
AFNE01.JPG,AFNE01.JPG,AFNE01.JPG,AFNE01.JPG,AFNE01.JPG,AFNE01.JPG,1,5,15,4,,,,,,,,,,,,,,,,,,,,,,,AFNE11.jpg,AFSA16.jpg,AFNE14.jpg,AFSA19.jpg,AFSA16.jpg,FS,4,num_6,16,num_6,0.616803269484,,,2017_Jul_05_1246,60.0021939316,FEMA4ImagesEEG,001,200818,
AFNE01.JPG,AFNE01.JPG,AFNE01.JPG,AFNE01.JPG,AFNE01.JPG,AFNE01.JPG,1,6,16,3,,,,,,,,,,,,,,,,,,,,,,,AFSA02.jpg,AFNE06.jpg,AFNE15.jpg,AFSA12.jpg,AFSA02.jpg,FS,4,num_8,16,num_8,0.766752688913,,,2017_Jul_05_1246,60.0021939316,FEMA4ImagesEEG,001,200818,
AFNE01.JPG,AFNE01.JPG,AFNE01.JPG,AFNE01.JPG,AFNE01.JPG,AFNE01.JPG,1,7,17,5,,,,,,,,,,,,,,,,,,,,,,,AFNE09.jpg,AFSA10.jpg,AFNE12.jpg,AFSA17.jpg,AFSA10.jpg,FS,4,num_6,16,num_6,0.700083199772,,,2017_Jul_05_1246,60.0021939316,FEMA4ImagesEEG,001,200818,
AFNE01.JPG,AFNE01.JPG,AFNE01.JPG,AFNE01.JPG,AFNE01.JPG,AFNE01.JPG,1,8,18,2,,,,,,,,,,,,,,,,,,,,,,,AFNE09.jpg,AFNE06.jpg,AFSA19.jpg,AFSA18.jpg,AFSA19.jpg,FS,4,num_2,32,num_4,0.866897085798,,,2017_Jul_05_1246,60.0021939316,FEMA4ImagesEEG,001,200818,
AFNE01.JPG,AFNE01.JPG,AFNE01.JPG,AFNE01.JPG,AFNE01.JPG,AFNE01.JPG,1,9,19,0,,,,,,,,,,,,,,,,,,,,,,,AFSA02.jpg,AFNE05.jpg,AFNE17.jpg,AFSA08.jpg,AFSA02.jpg,FS,4,num_8,32,num_6,0.550167457899,,,2017_Jul_05_1246,60.0021939316,FEMA4ImagesEEG,001,200818,
AFNE01.JPG,AFNE01.JPG,AFNE01.JPG,AFNE01.JPG,AFNE01.JPG,AFNE01.JPG,2,0,20,9,,,,,,,,,,,,,,,,,,,,,,,AFNE07.jpg,AFSA03.jpg,AFSA16.jpg,AFNE11.jpg,AFNE07.jpg,FN,3,num_8,32,num_4,1.13351955451,,,2017_Jul_05_1246,60.0021939316,FEMA4ImagesEEG,001,200818,
AFNE01.JPG,AFNE01.JPG,AFNE01.JPG,AFNE01.JPG,AFNE01.JPG,AFNE01.JPG,2,1,21,0,,,,,,,,,,,,,,,,,,,,,,,AFSA17.jpg,AFSA07.jpg,AFNE16.jpg,AFNE19.jpg,AFNE16.jpg,FN,3,num_2,32,num_6,0.65017105022,,,2017_Jul_05_1246,60.0021939316,FEMA4ImagesEEG,001,200818,
AFNE01.JPG,AFNE01.JPG,AFNE01.JPG,AFNE01.JPG,AFNE01.JPG,AFNE01.JPG,2,2,22,7,,,,,,,,,,,,,,,,,,,,,,,AFNE17.jpg,AFSA05.jpg,AFNE20.jpg,AFSA17.jpg,AFNE17.jpg,FN,3,num_8,32,num_4,0.700119443354,,,2017_Jul_05_1246,60.0021939316,FEMA4ImagesEEG,001,200818,
AFNE01.JPG,AFNE01.JPG,AFNE01.JPG,AFNE01.JPG,AFNE01.JPG,AFNE01.JPG,2,3,23,8,,,,,,,,,,,,,,,,,,,,,,,AFSA19.jpg,AFNE08.jpg,AFNE10.jpg,AFSA15.jpg,AFNE08.jpg,FN,3,num_6,16,num_6,0.583447035286,,,2017_Jul_05_1246,60.0021939316,FEMA4ImagesEEG,001,200818,
AFNE01.JPG,AFNE01.JPG,AFNE01.JPG,AFNE01.JPG,AFNE01.JPG,AFNE01.JPG,2,4,24,1,,,,,,,,,,,,,,,,,,,,,,,AFSA08.jpg,AFNE07.jpg,AFSA13.jpg,AFNE13.jpg,AFSA08.jpg,FS,4,num_8,32,num_4,0.716930346331,,,2017_Jul_05_1246,60.0021939316,FEMA4ImagesEEG,001,200818,
AFNE01.JPG,AFNE01.JPG,AFNE01.JPG,AFNE01.JPG,AFNE01.JPG,AFNE01.JPG,2,5,25,2,,,,,,,,,,,,,,,,,,,,,,,AFSA02.jpg,AFSA03.jpg,AFNE02.jpg,AFNE14.jpg,AFSA02.jpg,FS,4,num_8,32,num_6,0.650173295406,,,2017_Jul_05_1246,60.0021939316,FEMA4ImagesEEG,001,200818,
AFNE01.JPG,AFNE01.JPG,AFNE01.JPG,AFNE01.JPG,AFNE01.JPG,AFNE01.JPG,2,6,26,4,,,,,,,,,,,,,,,,,,,,,,,AFNE18.jpg,AFNE17.jpg,AFSA17.jpg,AFSA04.jpg,AFSA17.jpg,FS,4,num_2,32,num_6,0.600121945026,,,2017_Jul_05_1246,60.0021939316,FEMA4ImagesEEG,001,200818,
AFNE01.JPG,AFNE01.JPG,AFNE01.JPG,AFNE01.JPG,AFNE01.JPG,AFNE01.JPG,2,7,27,5,,,,,,,,,,,,,,,,,,,,,,,AFSA13.jpg,AFNE06.jpg,AFNE13.jpg,AFSA18.jpg,AFSA13.jpg,FS,4,num_8,32,num_4,0.683411818231,,,2017_Jul_05_1246,60.0021939316,FEMA4ImagesEEG,001,200818,
AFNE01.JPG,AFNE01.JPG,AFNE01.JPG,AFNE01.JPG,AFNE01.JPG,AFNE01.JPG,2,8,28,6,,,,,,,,,,,,,,,,,,,,,,,AFSA16.jpg,AFNE15.jpg,AFNE20.jpg,AFSA09.jpg,AFSA09.jpg,FS,4,num_4,32,num_6,0.650112675736,,,2017_Jul_05_1246,60.0021939316,FEMA4ImagesEEG,001,200818,
AFNE01.JPG,AFNE01.JPG,AFNE01.JPG,AFNE01.JPG,AFNE01.JPG,AFNE01.JPG,2,9,29,3,,,,,,,,,,,,,,,,,,,,,,,AFNE15.jpg,AFSA06.jpg,AFNE04.jpg,AFSA05.jpg,AFNE04.jpg,FN,3,num_2,32,num_8,1.03344732395,,,2017_Jul_05_1246,60.0021939316,FEMA4ImagesEEG,001,200818,
AFNE01.JPG,AFNE01.JPG,AFNE01.JPG,AFNE01.JPG,AFNE01.JPG,AFNE01.JPG,3,0,30,5,,,,,,,,,,,,,,,,,,,,,,,AFSA10.jpg,AFNE20.jpg,AFSA03.jpg,AFNE12.jpg,AFNE12.jpg,FN,3,num_4,16,num_4,0.683542679762,,,2017_Jul_05_1246,60.0021939316,FEMA4ImagesEEG,001,200818,
AFNE01.JPG,AFNE01.JPG,AFNE01.JPG,AFNE01.JPG,AFNE01.JPG,AFNE01.JPG,3,1,31,8,,,,,,,,,,,,,,,,,,,,,,,AFNE02.jpg,AFSA07.jpg,AFNE09.jpg,AFSA19.jpg,AFSA19.jpg,FS,4,num_4,32,num_6,1.36706226633,,,2017_Jul_05_1246,60.0021939316,FEMA4ImagesEEG,001,200818,
AFNE01.JPG,AFNE01.JPG,AFNE01.JPG,AFNE01.JPG,AFNE01.JPG,AFNE01.JPG,3,2,32,0,,,,,,,,,,,,,,,,,,,,,,,AFSA12.jpg,AFNE17.jpg,AFSA08.jpg,AFNE19.jpg,AFSA08.jpg,FS,4,num_2,32,num_4,0.733458036673,,,2017_Jul_05_1246,60.0021939316,FEMA4ImagesEEG,001,200818,
AFNE01.JPG,AFNE01.JPG,AFNE01.JPG,AFNE01.JPG,AFNE01.JPG,AFNE01.JPG,3,3,33,7,,,,,,,,,,,,,,,,,,,,,,,AFNE03.jpg,AFSA18.jpg,AFNE05.jpg,AFSA06.jpg,AFNE03.jpg,FN,3,num_8,16,num_8,0.716811031336,,,2017_Jul_05_1246,60.0021939316,FEMA4ImagesEEG,001,200818,
AFNE01.JPG,AFNE01.JPG,AFNE01.JPG,AFNE01.JPG,AFNE01.JPG,AFNE01.JPG,3,4,34,2,,,,,,,,,,,,,,,,,,,,,,,AFNE06.jpg,AFSA08.jpg,AFNE15.jpg,AFSA17.jpg,AFSA17.jpg,FS,4,num_4,32,num_6,0.950194977457,,,2017_Jul_05_1246,60.0021939316,FEMA4ImagesEEG,001,200818,
AFNE01.JPG,AFNE01.JPG,AFNE01.JPG,AFNE01.JPG,AFNE01.JPG,AFNE01.JPG,3,5,35,3,,,,,,,,,,,,,,,,,,,,,,,AFSA08.jpg,AFNE16.jpg,AFNE02.jpg,AFSA04.jpg,AFSA04.jpg,FS,4,num_4,16,num_4,0.883483792073,,,2017_Jul_05_1246,60.0021939316,FEMA4ImagesEEG,001,200818,
AFNE01.JPG,AFNE01.JPG,AFNE01.JPG,AFNE01.JPG,AFNE01.JPG,AFNE01.JPG,3,6,36,6,,,,,,,,,,,,,,,,,,,,,,,AFSA09.jpg,AFNE03.jpg,AFSA15.jpg,AFNE12.jpg,AFSA15.jpg,FS,4,num_2,16,num_2,0.81676009798,,,2017_Jul_05_1246,60.0021939316,FEMA4ImagesEEG,001,200818,
AFNE01.JPG,AFNE01.JPG,AFNE01.JPG,AFNE01.JPG,AFNE01.JPG,AFNE01.JPG,3,7,37,4,,,,,,,,,,,,,,,,,,,,,,,AFSA18.jpg,AFSA03.jpg,AFNE03.jpg,AFNE01.jpg,AFNE03.jpg,FN,3,num_2,32,num_6,0.533484850428,,,2017_Jul_05_1246,60.0021939316,FEMA4ImagesEEG,001,200818,
AFNE01.JPG,AFNE01.JPG,AFNE01.JPG,AFNE01.JPG,AFNE01.JPG,AFNE01.JPG,3,8,38,9,,,,,,,,,,,,,,,,,,,,,,,AFNE04.jpg,AFSA04.jpg,AFNE05.jpg,AFSA05.jpg,AFSA05.jpg,FS,4,num_4,16,num_4,0.566827292903,,,2017_Jul_05_1246,60.0021939316,FEMA4ImagesEEG,001,200818,
AFNE01.JPG,AFNE01.JPG,AFNE01.JPG,AFNE01.JPG,AFNE01.JPG,AFNE01.JPG,3,9,39,1,,,,,,,,,,,,,,,,,,,,,,,AFNE09.jpg,AFSA20.jpg,AFSA05.jpg,AFNE20.jpg,AFNE20.jpg,FN,3,num_4,16,num_4,0.866748904227,,,2017_Jul_05_1246,60.0021939316,FEMA4ImagesEEG,001,200818,
AFNE01.JPG,AFNE01.JPG,AFNE01.JPG,AFNE01.JPG,AFNE01.JPG,AFNE01.JPG,4,0,40,0,,,,,,,,,,,,,,,,,,,,,,,AFSA06.jpg,AFNE09.jpg,AFNE17.jpg,AFSA08.jpg,AFNE09.jpg,FN,3,num_6,32,num_8,0.35012595437,,,2017_Jul_05_1246,60.0021939316,FEMA4ImagesEEG,001,200818,
AFNE01.JPG,AFNE01.JPG,AFNE01.JPG,AFNE01.JPG,AFNE01.JPG,AFNE01.JPG,4,1,41,5,,,,,,,,,,,,,,,,,,,,,,,AFSA10.jpg,AFNE11.jpg,AFSA07.jpg,AFNE14.jpg,AFSA07.jpg,FS,4,num_2,32,num_4,0.700066521298,,,2017_Jul_05_1246,60.0021939316,FEMA4ImagesEEG,001,200818,
AFNE01.JPG,AFNE01.JPG,AFNE01.JPG,AFNE01.JPG,AFNE01.JPG,AFNE01.JPG,4,2,42,7,,,,,,,,,,,,,,,,,,,,,,,AFSA08.jpg,AFSA02.jpg,AFNE17.jpg,AFNE07.jpg,AFSA02.jpg,FS,4,num_6,16,num_6,0.750132946414,,,2017_Jul_05_1246,60.0021939316,FEMA4ImagesEEG,001,200818,
AFNE01.JPG,AFNE01.JPG,AFNE01.JPG,AFNE01.JPG,AFNE01.JPG,AFNE01.JPG,4,3,43,1,,,,,,,,,,,,,,,,,,,,,,,AFNE01.jpg,AFSA05.jpg,AFNE19.jpg,AFSA03.jpg,AFSA05.jpg,FS,4,num_6,32,num_8,1.3503434154,,,2017_Jul_05_1246,60.0021939316,FEMA4ImagesEEG,001,200818,
AFNE01.JPG,AFNE01.JPG,AFNE01.JPG,AFNE01.JPG,AFNE01.JPG,AFNE01.JPG,4,4,44,6,,,,,,,,,,,,,,,,,,,,,,,AFNE08.jpg,AFSA12.jpg,AFSA14.jpg,AFNE03.jpg,AFNE08.jpg,FN,3,num_8,32,num_6,0.76678315911,,,2017_Jul_05_1246,60.0021939316,FEMA4ImagesEEG,001,200818,
AFNE01.JPG,AFNE01.JPG,AFNE01.JPG,AFNE01.JPG,AFNE01.JPG,AFNE01.JPG,4,5,45,8,,,,,,,,,,,,,,,,,,,,,,,AFSA19.jpg,AFNE02.jpg,AFNE16.jpg,AFSA02.jpg,AFSA19.jpg,FS,4,num_8,32,num_4,0.566796501982,,,2017_Jul_05_1246,60.0021939316,FEMA4ImagesEEG,001,200818,
AFNE01.JPG,AFNE01.JPG,AFNE01.JPG,AFNE01.JPG,AFNE01.JPG,AFNE01.JPG,4,6,46,4,,,,,,,,,,,,,,,,,,,,,,,AFSA08.jpg,AFNE10.jpg,AFNE04.jpg,AFSA07.jpg,AFSA08.jpg,FS,4,num_8,32,num_6,0.716805899516,,,2017_Jul_05_1246,60.0021939316,FEMA4ImagesEEG,001,200818,
AFNE01.JPG,AFNE01.JPG,AFNE01.JPG,AFNE01.JPG,AFNE01.JPG,AFNE01.JPG,4,7,47,2,,,,,,,,,,,,,,,,,,,,,,,AFNE09.jpg,AFSA19.jpg,AFNE14.jpg,AFSA09.jpg,AFSA19.jpg,FS,4,num_6,32,num_4,0.766942566494,,,2017_Jul_05_1246,60.0021939316,FEMA4ImagesEEG,001,200818,
AFNE01.JPG,AFNE01.JPG,AFNE01.JPG,AFNE01.JPG,AFNE01.JPG,AFNE01.JPG,4,8,48,3,,,,,,,,,,,,,,,,,,,,,,,AFSA07.jpg,AFNE10.jpg,AFNE06.jpg,AFSA19.jpg,AFSA07.jpg,FS,4,num_8,32,num_4,2.06668135652,,,2017_Jul_05_1246,60.0021939316,FEMA4ImagesEEG,001,200818,
AFNE01.JPG,AFNE01.JPG,AFNE01.JPG,AFNE01.JPG,AFNE01.JPG,AFNE01.JPG,4,9,49,9,,,,,,,,,,,,,,,,,,,,,,,AFSA11.jpg,AFNE13.jpg,AFNE07.jpg,AFSA04.jpg,AFNE07.jpg,FN,3,num_2,32,num_6,0.500105843996,,,2017_Jul_05_1246,60.0021939316,FEMA4ImagesEEG,001,200818,
AFNE01.JPG,AFNE01.JPG,AFNE01.JPG,AFNE01.JPG,AFNE01.JPG,AFNE01.JPG,5,0,50,5,,,,,,,,,,,,,,,,,,,,,,,AFNE05.jpg,AFSA05.jpg,AFSA08.jpg,AFNE09.jpg,AFNE09.jpg,FN,3,num_4,16,num_4,0.333486005198,,,2017_Jul_05_1246,60.0021939316,FEMA4ImagesEEG,001,200818,
AFNE01.JPG,AFNE01.JPG,AFNE01.JPG,AFNE01.JPG,AFNE01.JPG,AFNE01.JPG,5,1,51,9,,,,,,,,,,,,,,,,,,,,,,,AFSA01.jpg,AFNE10.jpg,AFSA16.jpg,AFNE12.jpg,AFSA01.jpg,FS,4,num_8,32,num_6,0.55018028745,,,2017_Jul_05_1246,60.0021939316,FEMA4ImagesEEG,001,200818,
AFNE01.JPG,AFNE01.JPG,AFNE01.JPG,AFNE01.JPG,AFNE01.JPG,AFNE01.JPG,5,2,52,0,,,,,,,,,,,,,,,,,,,,,,,AFSA04.jpg,AFSA01.jpg,AFNE14.jpg,AFNE04.jpg,AFSA04.jpg,FS,4,num_8,32,num_4,1.0501918341,,,2017_Jul_05_1246,60.0021939316,FEMA4ImagesEEG,001,200818,
AFNE01.JPG,AFNE01.JPG,AFNE01.JPG,AFNE01.JPG,AFNE01.JPG,AFNE01.JPG,5,3,53,6,,,,,,,,,,,,,,,,,,,,,,,AFSA06.jpg,AFNE11.jpg,AFNE06.jpg,AFSA13.jpg,AFNE06.jpg,FN,3,num_2,32,num_6,0.416826555156,,,2017_Jul_05_1246,60.0021939316,FEMA4ImagesEEG,001,200818,
AFNE01.JPG,AFNE01.JPG,AFNE01.JPG,AFNE01.JPG,AFNE01.JPG,AFNE01.JPG,5,4,54,3,,,,,,,,,,,,,,,,,,,,,,,AFSA07.jpg,AFNE20.jpg,AFNE06.jpg,AFSA16.jpg,AFNE06.jpg,FN,3,num_2,32,num_4,0.7837938827,,,2017_Jul_05_1246,60.0021939316,FEMA4ImagesEEG,001,200818,
AFNE01.JPG,AFNE01.JPG,AFNE01.JPG,AFNE01.JPG,AFNE01.JPG,AFNE01.JPG,5,5,55,1,,,,,,,,,,,,,,,,,,,,,,,AFSA06.jpg,AFNE02.jpg,AFNE20.jpg,AFSA05.jpg,AFNE20.jpg,FN,3,num_2,32,num_6,0.800115979277,,,2017_Jul_05_1246,60.0021939316,FEMA4ImagesEEG,001,200818,
AFNE01.JPG,AFNE01.JPG,AFNE01.JPG,AFNE01.JPG,AFNE01.JPG,AFNE01.JPG,5,6,56,2,,,,,,,,,,,,,,,,,,,,,,,AFSA01.jpg,AFNE13.jpg,AFSA09.jpg,AFNE08.jpg,AFSA09.jpg,FS,4,num_2,32,num_8,0.983484818484,,,2017_Jul_05_1246,60.0021939316,FEMA4ImagesEEG,001,200818,
AFNE01.JPG,AFNE01.JPG,AFNE01.JPG,AFNE01.JPG,AFNE01.JPG,AFNE01.JPG,5,7,57,7,,,,,,,,,,,,,,,,,,,,,,,AFNE13.jpg,AFNE09.jpg,AFSA08.jpg,AFSA04.jpg,AFNE13.jpg,FN,3,num_8,32,num_6,0.833304146072,,,2017_Jul_05_1246,60.0021939316,FEMA4ImagesEEG,001,200818,
AFNE01.JPG,AFNE01.JPG,AFNE01.JPG,AFNE01.JPG,AFNE01.JPG,AFNE01.JPG,5,8,58,4,,,,,,,,,,,,,,,,,,,,,,,AFSA11.jpg,AFNE04.jpg,AFSA14.jpg,AFNE15.jpg,AFNE15.jpg,FN,3,num_4,16,num_4,0.633549383259,,,2017_Jul_05_1246,60.0021939316,FEMA4ImagesEEG,001,200818,
AFNE01.JPG,AFNE01.JPG,AFNE01.JPG,AFNE01.JPG,AFNE01.JPG,AFNE01.JPG,5,9,59,8,,,,,,,,,,,,,,,,,,,,,,,AFNE19.jpg,AFSA05.jpg,AFSA06.jpg,AFNE10.jpg,AFSA05.jpg,FS,4,num_6,32,num_2,1.00010391953,,,2017_Jul_05_1246,60.0021939316,FEMA4ImagesEEG,001,200818,
,,,,,,,,,,,,,,,,,,,,,,,,,,,,,,,,,,,,,,,,,,,space,45.9465273247,2017_Jul_05_1246,60.0021939316,FEMA4ImagesEEG,001,200818,
AFNE01.JPG,AFNE01.JPG,AFNE01.JPG,AFNE01.JPG,AFNE01.JPG,AFNE01.JPG,,,,,0,0,0,2,,,,,,,,,,,,,,,,,,,AMSA16.jpg,AMNE17.jpg,AMNE11.jpg,AMSA20.jpg,AMSA20.jpg,MS,2,num_4,32,num_6,1.56670573272,,,2017_Jul_05_1246,60.0021939316,FEMA4ImagesEEG,001,200818,
AFNE01.JPG,AFNE01.JPG,AFNE01.JPG,AFNE01.JPG,AFNE01.JPG,AFNE01.JPG,,,,,0,1,1,7,,,,,,,,,,,,,,,,,,,AMNE15.jpg,AMSA11.jpg,AMNE16.jpg,AMSA20.jpg,AMNE16.jpg,MN,1,num_2,32,num_4,1.1834381189,,,2017_Jul_05_1246,60.0021939316,FEMA4ImagesEEG,001,200818,
AFNE01.JPG,AFNE01.JPG,AFNE01.JPG,AFNE01.JPG,AFNE01.JPG,AFNE01.JPG,,,,,0,2,2,1,,,,,,,,,,,,,,,,,,,AMSA15.jpg,AMNE15.jpg,AMNE10.jpg,AMSA19.jpg,AMSA15.jpg,MS,2,num_8,32,num_4,0.750240714755,,,2017_Jul_05_1246,60.0021939316,FEMA4ImagesEEG,001,200818,
AFNE01.JPG,AFNE01.JPG,AFNE01.JPG,AFNE01.JPG,AFNE01.JPG,AFNE01.JPG,,,,,0,3,3,0,,,,,,,,,,,,,,,,,,,AMNE06.jpg,AMSA20.jpg,AMNE02.jpg,AMSA12.jpg,AMNE02.jpg,MN,1,num_2,32,num_4,0.816739249974,,,2017_Jul_05_1246,60.0021939316,FEMA4ImagesEEG,001,200818,
AFNE01.JPG,AFNE01.JPG,AFNE01.JPG,AFNE01.JPG,AFNE01.JPG,AFNE01.JPG,,,,,0,4,4,5,,,,,,,,,,,,,,,,,,,AMSA14.jpg,AMNE04.jpg,AMNE05.jpg,AMSA17.jpg,AMSA17.jpg,MS,2,num_4,16,num_4,0.699989864603,,,2017_Jul_05_1246,60.0021939316,FEMA4ImagesEEG,001,200818,
AFNE01.JPG,AFNE01.JPG,AFNE01.JPG,AFNE01.JPG,AFNE01.JPG,AFNE01.JPG,,,,,0,5,5,3,,,,,,,,,,,,,,,,,,,AMNE09.jpg,AMNE12.jpg,AMSA16.jpg,AMSA12.jpg,AMNE09.jpg,MN,1,num_8,32,num_6,0.733543994837,,,2017_Jul_05_1246,60.0021939316,FEMA4ImagesEEG,001,200818,
AFNE01.JPG,AFNE01.JPG,AFNE01.JPG,AFNE01.JPG,AFNE01.JPG,AFNE01.JPG,,,,,0,6,6,8,,,,,,,,,,,,,,,,,,,AMSA05.jpg,AMNE15.jpg,AMNE02.jpg,AMSA19.jpg,AMNE15.jpg,MN,1,num_6,32,num_2,1.10012771829,,,2017_Jul_05_1246,60.0021939316,FEMA4ImagesEEG,001,200818,
AFNE01.JPG,AFNE01.JPG,AFNE01.JPG,AFNE01.JPG,AFNE01.JPG,AFNE01.JPG,,,,,0,7,7,6,,,,,,,,,,,,,,,,,,,AMSA18.jpg,AMNE18.jpg,AMNE05.jpg,AMSA02.jpg,AMNE05.jpg,MN,1,num_2,32,num_8,0.883429907961,,,2017_Jul_05_1246,60.0021939316,FEMA4ImagesEEG,001,200818,
AFNE01.JPG,AFNE01.JPG,AFNE01.JPG,AFNE01.JPG,AFNE01.JPG,AFNE01.JPG,,,,,0,8,8,4,,,,,,,,,,,,,,,,,,,AMSA19.jpg,AMSA07.jpg,AMNE20.jpg,AMNE19.jpg,AMNE20.jpg,MN,1,num_2,32,num_4,0.766741462983,,,2017_Jul_05_1246,60.0021939316,FEMA4ImagesEEG,001,200818,
AFNE01.JPG,AFNE01.JPG,AFNE01.JPG,AFNE01.JPG,AFNE01.JPG,AFNE01.JPG,,,,,0,9,9,9,,,,,,,,,,,,,,,,,,,AMSA09.jpg,AMSA07.jpg,AMNE11.jpg,AMNE15.jpg,AMSA09.jpg,MS,2,num_8,16,num_8,0.665791369393,,,2017_Jul_05_1246,60.0021939316,FEMA4ImagesEEG,001,200818,
AFNE01.JPG,AFNE01.JPG,AFNE01.JPG,AFNE01.JPG,AFNE01.JPG,AFNE01.JPG,,,,,1,0,10,5,,,,,,,,,,,,,,,,,,,AMSA12.jpg,AMNE18.jpg,AMNE09.jpg,AMSA19.jpg,AMNE18.jpg,MN,1,num_6,16,num_6,0.666654478526,,,2017_Jul_05_1246,60.0021939316,FEMA4ImagesEEG,001,200818,
AFNE01.JPG,AFNE01.JPG,AFNE01.JPG,AFNE01.JPG,AFNE01.JPG,AFNE01.JPG,,,,,1,1,11,6,,,,,,,,,,,,,,,,,,,AMSA06.jpg,AMNE09.jpg,AMNE08.jpg,AMSA03.jpg,AMNE09.jpg,MN,1,num_6,32,num_2,1.08341175399,,,2017_Jul_05_1246,60.0021939316,FEMA4ImagesEEG,001,200818,
AFNE01.JPG,AFNE01.JPG,AFNE01.JPG,AFNE01.JPG,AFNE01.JPG,AFNE01.JPG,,,,,1,2,12,2,,,,,,,,,,,,,,,,,,,AMSA09.jpg,AMNE16.jpg,AMSA13.jpg,AMNE06.jpg,AMNE16.jpg,MN,1,num_6,16,num_6,0.400124703418,,,2017_Jul_05_1246,60.0021939316,FEMA4ImagesEEG,001,200818,
AFNE01.JPG,AFNE01.JPG,AFNE01.JPG,AFNE01.JPG,AFNE01.JPG,AFNE01.JPG,,,,,1,3,13,8,,,,,,,,,,,,,,,,,,,AMNE16.jpg,AMSA05.jpg,AMSA03.jpg,AMNE06.jpg,AMNE06.jpg,MN,1,num_4,32,num_8,0.600129322032,,,2017_Jul_05_1246,60.0021939316,FEMA4ImagesEEG,001,200818,
AFNE01.JPG,AFNE01.JPG,AFNE01.JPG,AFNE01.JPG,AFNE01.JPG,AFNE01.JPG,,,,,1,4,14,3,,,,,,,,,,,,,,,,,,,AMSA08.jpg,AMSA10.jpg,AMNE11.jpg,AMNE01.jpg,AMNE01.jpg,MN,1,num_4,16,num_4,0.483525873045,,,2017_Jul_05_1246,60.0021939316,FEMA4ImagesEEG,001,200818,
AFNE01.JPG,AFNE01.JPG,AFNE01.JPG,AFNE01.JPG,AFNE01.JPG,AFNE01.JPG,,,,,1,5,15,1,,,,,,,,,,,,,,,,,,,AMSA12.jpg,AMNE14.jpg,AMNE07.jpg,AMSA18.jpg,AMNE14.jpg,MN,1,num_6,16,num_6,0.716800126247,,,2017_Jul_05_1246,60.0021939316,FEMA4ImagesEEG,001,200818,
AFNE01.JPG,AFNE01.JPG,AFNE01.JPG,AFNE01.JPG,AFNE01.JPG,AFNE01.JPG,,,,,1,6,16,7,,,,,,,,,,,,,,,,,,,AMNE11.jpg,AMSA01.jpg,AMSA14.jpg,AMNE02.jpg,AMSA14.jpg,MS,2,num_2,32,num_6,1.116744895,,,2017_Jul_05_1246,60.0021939316,FEMA4ImagesEEG,001,200818,
AFNE01.JPG,AFNE01.JPG,AFNE01.JPG,AFNE01.JPG,AFNE01.JPG,AFNE01.JPG,,,,,1,7,17,9,,,,,,,,,,,,,,,,,,,AMSA09.jpg,AMNE10.jpg,AMNE05.jpg,AMSA08.jpg,AMNE05.jpg,MN,1,num_2,32,num_6,0.90011283604,,,2017_Jul_05_1246,60.0021939316,FEMA4ImagesEEG,001,200818,
AFNE01.JPG,AFNE01.JPG,AFNE01.JPG,AFNE01.JPG,AFNE01.JPG,AFNE01.JPG,,,,,1,8,18,0,,,,,,,,,,,,,,,,,,,AMSA05.jpg,AMNE09.jpg,AMNE08.jpg,AMSA01.jpg,AMNE09.jpg,MN,1,num_6,32,num_8,1.03350666072,,,2017_Jul_05_1246,60.0021939316,FEMA4ImagesEEG,001,200818,
AFNE01.JPG,AFNE01.JPG,AFNE01.JPG,AFNE01.JPG,AFNE01.JPG,AFNE01.JPG,,,,,1,9,19,4,,,,,,,,,,,,,,,,,,,AMSA01.jpg,AMNE20.jpg,AMSA06.jpg,AMNE04.jpg,AMSA01.jpg,MS,2,num_8,16,num_8,0.650104336441,,,2017_Jul_05_1246,60.0021939316,FEMA4ImagesEEG,001,200818,
AFNE01.JPG,AFNE01.JPG,AFNE01.JPG,AFNE01.JPG,AFNE01.JPG,AFNE01.JPG,,,,,2,0,20,7,,,,,,,,,,,,,,,,,,,AMNE15.jpg,AMSA15.jpg,AMSA16.jpg,AMNE03.jpg,AMSA15.jpg,MS,2,num_6,16,num_6,0.600109757041,,,2017_Jul_05_1246,60.0021939316,FEMA4ImagesEEG,001,200818,
AFNE01.JPG,AFNE01.JPG,AFNE01.JPG,AFNE01.JPG,AFNE01.JPG,AFNE01.JPG,,,,,2,1,21,5,,,,,,,,,,,,,,,,,,,AMSA08.jpg,AMNE04.jpg,AMSA16.jpg,AMNE02.jpg,AMSA08.jpg,MS,2,num_8,32,num_6,0.650153730297,,,2017_Jul_05_1246,60.0021939316,FEMA4ImagesEEG,001,200818,
AFNE01.JPG,AFNE01.JPG,AFNE01.JPG,AFNE01.JPG,AFNE01.JPG,AFNE01.JPG,,,,,2,2,22,2,,,,,,,,,,,,,,,,,,,AMNE05.jpg,AMSA04.jpg,AMNE08.jpg,AMSA10.jpg,AMNE08.jpg,MN,1,num_2,32,num_4,0.666718305671,,,2017_Jul_05_1246,60.0021939316,FEMA4ImagesEEG,001,200818,
AFNE01.JPG,AFNE01.JPG,AFNE01.JPG,AFNE01.JPG,AFNE01.JPG,AFNE01.JPG,,,,,2,3,23,8,,,,,,,,,,,,,,,,,,,AMNE19.jpg,AMNE06.jpg,AMSA03.jpg,AMSA07.jpg,AMNE19.jpg,MN,1,num_8,32,num_6,0.3502446278,,,2017_Jul_05_1246,60.0021939316,FEMA4ImagesEEG,001,200818,
AFNE01.JPG,AFNE01.JPG,AFNE01.JPG,AFNE01.JPG,AFNE01.JPG,AFNE01.JPG,,,,,2,4,24,9,,,,,,,,,,,,,,,,,,,AMSA08.jpg,AMSA19.jpg,AMNE14.jpg,AMNE19.jpg,AMSA19.jpg,MS,2,num_6,32,num_2,1.11672083952,,,2017_Jul_05_1246,60.0021939316,FEMA4ImagesEEG,001,200818,
AFNE01.JPG,AFNE01.JPG,AFNE01.JPG,AFNE01.JPG,AFNE01.JPG,AFNE01.JPG,,,,,2,5,25,4,,,,,,,,,,,,,,,,,,,AMSA19.jpg,AMSA13.jpg,AMNE03.jpg,AMNE04.jpg,AMNE03.jpg,MN,1,num_2,32,num_6,1.51671532274,,,2017_Jul_05_1246,60.0021939316,FEMA4ImagesEEG,001,200818,
AFNE01.JPG,AFNE01.JPG,AFNE01.JPG,AFNE01.JPG,AFNE01.JPG,AFNE01.JPG,,,,,2,6,26,1,,,,,,,,,,,,,,,,,,,AMNE20.jpg,AMSA14.jpg,AMSA20.jpg,AMNE12.jpg,AMSA20.jpg,MS,2,num_2,16,num_2,0.633399598068,,,2017_Jul_05_1246,60.0021939316,FEMA4ImagesEEG,001,200818,
AFNE01.JPG,AFNE01.JPG,AFNE01.JPG,AFNE01.JPG,AFNE01.JPG,AFNE01.JPG,,,,,2,7,27,6,,,,,,,,,,,,,,,,,,,AMSA15.jpg,AMNE06.jpg,AMNE03.jpg,AMSA08.jpg,AMNE06.jpg,MN,1,num_6,32,num_4,0.616552130668,,,2017_Jul_05_1246,60.0021939316,FEMA4ImagesEEG,001,200818,
AFNE01.JPG,AFNE01.JPG,AFNE01.JPG,AFNE01.JPG,AFNE01.JPG,AFNE01.JPG,,,,,2,8,28,0,,,,,,,,,,,,,,,,,,,AMNE13.jpg,AMSA09.jpg,AMNE17.jpg,AMSA16.jpg,AMSA09.jpg,MS,2,num_6,16,num_6,0.516863825149,,,2017_Jul_05_1246,60.0021939316,FEMA4ImagesEEG,001,200818,
AFNE01.JPG,AFNE01.JPG,AFNE01.JPG,AFNE01.JPG,AFNE01.JPG,AFNE01.JPG,,,,,2,9,29,3,,,,,,,,,,,,,,,,,,,AMSA18.jpg,AMNE04.jpg,AMSA13.jpg,AMNE09.jpg,AMSA18.jpg,MS,2,num_8,32,num_2,0.933449505013,,,2017_Jul_05_1246,60.0021939316,FEMA4ImagesEEG,001,200818,
AFNE01.JPG,AFNE01.JPG,AFNE01.JPG,AFNE01.JPG,AFNE01.JPG,AFNE01.JPG,,,,,3,0,30,9,,,,,,,,,,,,,,,,,,,AMNE10.jpg,AMNE06.jpg,AMSA11.jpg,AMSA05.jpg,AMSA05.jpg,MS,2,num_4,32,num_6,0.700189043651,,,2017_Jul_05_1246,60.0021939316,FEMA4ImagesEEG,001,200818,
AFNE01.JPG,AFNE01.JPG,AFNE01.JPG,AFNE01.JPG,AFNE01.JPG,AFNE01.JPG,,,,,3,1,31,0,,,,,,,,,,,,,,,,,,,AMSA18.jpg,AMNE17.jpg,AMSA07.jpg,AMNE03.jpg,AMSA07.jpg,MS,2,num_2,32,num_4,0.733795775101,,,2017_Jul_05_1246,60.0021939316,FEMA4ImagesEEG,001,200818,
AFNE01.JPG,AFNE01.JPG,AFNE01.JPG,AFNE01.JPG,AFNE01.JPG,AFNE01.JPG,,,,,3,2,32,3,,,,,,,,,,,,,,,,,,,AMSA19.jpg,AMNE19.jpg,AMSA05.jpg,AMNE01.jpg,AMNE01.jpg,MN,1,num_4,32,num_8,0.583490976715,,,2017_Jul_05_1246,60.0021939316,FEMA4ImagesEEG,001,200818,
AFNE01.JPG,AFNE01.JPG,AFNE01.JPG,AFNE01.JPG,AFNE01.JPG,AFNE01.JPG,,,,,3,3,33,7,,,,,,,,,,,,,,,,,,,AMNE12.jpg,AMNE20.jpg,AMSA02.jpg,AMSA07.jpg,AMNE12.jpg,MN,1,num_8,32,num_6,0.733410888002,,,2017_Jul_05_1246,60.0021939316,FEMA4ImagesEEG,001,200818,
AFNE01.JPG,AFNE01.JPG,AFNE01.JPG,AFNE01.JPG,AFNE01.JPG,AFNE01.JPG,,,,,3,4,34,8,,,,,,,,,,,,,,,,,,,AMSA12.jpg,AMNE16.jpg,AMSA09.jpg,AMNE03.jpg,AMSA12.jpg,MS,2,num_8,16,num_8,0.81674406107,,,2017_Jul_05_1246,60.0021939316,FEMA4ImagesEEG,001,200818,
AFNE01.JPG,AFNE01.JPG,AFNE01.JPG,AFNE01.JPG,AFNE01.JPG,AFNE01.JPG,,,,,3,5,35,4,,,,,,,,,,,,,,,,,,,AMNE04.jpg,AMNE02.jpg,AMSA12.jpg,AMSA20.jpg,AMNE02.jpg,MN,1,num_6,16,num_6,0.600130604929,,,2017_Jul_05_1246,60.0021939316,FEMA4ImagesEEG,001,200818,
AFNE01.JPG,AFNE01.JPG,AFNE01.JPG,AFNE01.JPG,AFNE01.JPG,AFNE01.JPG,,,,,3,6,36,6,,,,,,,,,,,,,,,,,,,AMNE06.jpg,AMNE13.jpg,AMSA05.jpg,AMSA16.jpg,AMSA16.jpg,MS,2,num_4,16,num_4,0.700135480263,,,2017_Jul_05_1246,60.0021939316,FEMA4ImagesEEG,001,200818,
AFNE01.JPG,AFNE01.JPG,AFNE01.JPG,AFNE01.JPG,AFNE01.JPG,AFNE01.JPG,,,,,3,7,37,2,,,,,,,,,,,,,,,,,,,AMNE19.jpg,AMSA18.jpg,AMNE06.jpg,AMSA05.jpg,AMSA05.jpg,MS,2,num_4,16,num_4,1.01671500213,,,2017_Jul_05_1246,60.0021939316,FEMA4ImagesEEG,001,200818,
AFNE01.JPG,AFNE01.JPG,AFNE01.JPG,AFNE01.JPG,AFNE01.JPG,AFNE01.JPG,,,,,3,8,38,1,,,,,,,,,,,,,,,,,,,AMSA09.jpg,AMNE17.jpg,AMSA20.jpg,AMNE06.jpg,AMNE17.jpg,MN,1,num_6,32,num_8,0.950113509549,,,2017_Jul_05_1246,60.0021939316,FEMA4ImagesEEG,001,200818,
AFNE01.JPG,AFNE01.JPG,AFNE01.JPG,AFNE01.JPG,AFNE01.JPG,AFNE01.JPG,,,,,3,9,39,5,,,,,,,,,,,,,,,,,,,AMNE08.jpg,AMNE19.jpg,AMSA11.jpg,AMSA08.jpg,AMNE08.jpg,MN,1,num_8,32,num_2,1.01679454546,,,2017_Jul_05_1246,60.0021939316,FEMA4ImagesEEG,001,200818,
AFNE01.JPG,AFNE01.JPG,AFNE01.JPG,AFNE01.JPG,AFNE01.JPG,AFNE01.JPG,,,,,4,0,40,6,,,,,,,,,,,,,,,,,,,AMSA18.jpg,AMNE12.jpg,AMSA04.jpg,AMNE07.jpg,AMSA18.jpg,MS,2,num_8,16,num_8,0.750107608037,,,2017_Jul_05_1246,60.0021939316,FEMA4ImagesEEG,001,200818,
AFNE01.JPG,AFNE01.JPG,AFNE01.JPG,AFNE01.JPG,AFNE01.JPG,AFNE01.JPG,,,,,4,1,41,4,,,,,,,,,,,,,,,,,,,AMNE02.jpg,AMSA20.jpg,AMNE10.jpg,AMSA06.jpg,AMSA20.jpg,MS,2,num_6,32,num_2,0.850226987153,,,2017_Jul_05_1246,60.0021939316,FEMA4ImagesEEG,001,200818,
AFNE01.JPG,AFNE01.JPG,AFNE01.JPG,AFNE01.JPG,AFNE01.JPG,AFNE01.JPG,,,,,4,2,42,5,,,,,,,,,,,,,,,,,,,AMNE05.jpg,AMNE16.jpg,AMSA18.jpg,AMSA15.jpg,AMNE16.jpg,MN,1,num_6,16,num_6,0.866757884854,,,2017_Jul_05_1246,60.0021939316,FEMA4ImagesEEG,001,200818,
AFNE01.JPG,AFNE01.JPG,AFNE01.JPG,AFNE01.JPG,AFNE01.JPG,AFNE01.JPG,,,,,4,3,43,1,,,,,,,,,,,,,,,,,,,AMNE05.jpg,AMNE19.jpg,AMSA07.jpg,AMSA19.jpg,AMSA19.jpg,MS,2,num_4,16,num_4,0.616771837114,,,2017_Jul_05_1246,60.0021939316,FEMA4ImagesEEG,001,200818,
AFNE01.JPG,AFNE01.JPG,AFNE01.JPG,AFNE01.JPG,AFNE01.JPG,AFNE01.JPG,,,,,4,4,44,7,,,,,,,,,,,,,,,,,,,AMSA10.jpg,AMNE09.jpg,AMSA01.jpg,AMNE20.jpg,AMSA01.jpg,MS,2,num_2,16,num_2,0.783455502824,,,2017_Jul_05_1246,60.0021939316,FEMA4ImagesEEG,001,200818,
AFNE01.JPG,AFNE01.JPG,AFNE01.JPG,AFNE01.JPG,AFNE01.JPG,AFNE01.JPG,,,,,4,5,45,9,,,,,,,,,,,,,,,,,,,AMNE02.jpg,AMSA17.jpg,AMNE20.jpg,AMSA15.jpg,AMSA17.jpg,MS,2,num_6,16,num_6,0.650106260902,,,2017_Jul_05_1246,60.0021939316,FEMA4ImagesEEG,001,200818,
AFNE01.JPG,AFNE01.JPG,AFNE01.JPG,AFNE01.JPG,AFNE01.JPG,AFNE01.JPG,,,,,4,6,46,8,,,,,,,,,,,,,,,,,,,AMNE09.jpg,AMSA06.jpg,AMNE12.jpg,AMSA17.jpg,AMSA17.jpg,MS,2,num_4,32,num_8,0.533332499443,,,2017_Jul_05_1246,60.0021939316,FEMA4ImagesEEG,001,200818,
AFNE01.JPG,AFNE01.JPG,AFNE01.JPG,AFNE01.JPG,AFNE01.JPG,AFNE01.JPG,,,,,4,7,47,3,,,,,,,,,,,,,,,,,,,AMSA15.jpg,AMNE10.jpg,AMSA06.jpg,AMNE04.jpg,AMSA15.jpg,MS,2,num_8,32,num_4,0.833441743162,,,2017_Jul_05_1246,60.0021939316,FEMA4ImagesEEG,001,200818,
AFNE01.JPG,AFNE01.JPG,AFNE01.JPG,AFNE01.JPG,AFNE01.JPG,AFNE01.JPG,,,,,4,8,48,0,,,,,,,,,,,,,,,,,,,AMNE20.jpg,AMSA01.jpg,AMSA02.jpg,AMNE04.jpg,AMNE20.jpg,MN,1,num_8,32,num_2,0.616782421479,,,2017_Jul_05_1246,60.0021939316,FEMA4ImagesEEG,001,200818,
AFNE01.JPG,AFNE01.JPG,AFNE01.JPG,AFNE01.JPG,AFNE01.JPG,AFNE01.JPG,,,,,4,9,49,2,,,,,,,,,,,,,,,,,,,AMSA18.jpg,AMSA06.jpg,AMNE13.jpg,AMNE05.jpg,AMNE13.jpg,MN,1,num_2,32,num_6,0.600119058392,,,2017_Jul_05_1246,60.0021939316,FEMA4ImagesEEG,001,200818,
AFNE01.JPG,AFNE01.JPG,AFNE01.JPG,AFNE01.JPG,AFNE01.JPG,AFNE01.JPG,,,,,5,0,50,3,,,,,,,,,,,,,,,,,,,AMNE15.jpg,AMNE07.jpg,AMSA14.jpg,AMSA03.jpg,AMSA03.jpg,MS,2,num_4,32,num_2,0.716769014602,,,2017_Jul_05_1246,60.0021939316,FEMA4ImagesEEG,001,200818,
AFNE01.JPG,AFNE01.JPG,AFNE01.JPG,AFNE01.JPG,AFNE01.JPG,AFNE01.JPG,,,,,5,1,51,7,,,,,,,,,,,,,,,,,,,AMNE08.jpg,AMSA18.jpg,AMSA07.jpg,AMNE12.jpg,AMNE08.jpg,MN,1,num_8,32,num_6,0.66677988763,,,2017_Jul_05_1246,60.0021939316,FEMA4ImagesEEG,001,200818,
AFNE01.JPG,AFNE01.JPG,AFNE01.JPG,AFNE01.JPG,AFNE01.JPG,AFNE01.JPG,,,,,5,2,52,2,,,,,,,,,,,,,,,,,,,AMSA09.jpg,AMNE03.jpg,AMNE14.jpg,AMSA07.jpg,AMNE14.jpg,MN,1,num_2,32,num_4,0.650167522021,,,2017_Jul_05_1246,60.0021939316,FEMA4ImagesEEG,001,200818,
AFNE01.JPG,AFNE01.JPG,AFNE01.JPG,AFNE01.JPG,AFNE01.JPG,AFNE01.JPG,,,,,5,3,53,8,,,,,,,,,,,,,,,,,,,AMNE19.jpg,AMNE14.jpg,AMSA04.jpg,AMSA16.jpg,AMNE19.jpg,MN,1,num_8,32,num_6,0.666780208237,,,2017_Jul_05_1246,60.0021939316,FEMA4ImagesEEG,001,200818,
AFNE01.JPG,AFNE01.JPG,AFNE01.JPG,AFNE01.JPG,AFNE01.JPG,AFNE01.JPG,,,,,5,4,54,1,,,,,,,,,,,,,,,,,,,AMSA09.jpg,AMNE05.jpg,AMNE10.jpg,AMSA10.jpg,AMSA09.jpg,MS,2,num_8,32,num_4,0.63356991054,,,2017_Jul_05_1246,60.0021939316,FEMA4ImagesEEG,001,200818,
AFNE01.JPG,AFNE01.JPG,AFNE01.JPG,AFNE01.JPG,AFNE01.JPG,AFNE01.JPG,,,,,5,5,55,5,,,,,,,,,,,,,,,,,,,AMSA12.jpg,AMSA15.jpg,AMNE05.jpg,AMNE10.jpg,AMSA12.jpg,MS,2,num_8,32,num_6,0.71677446703,,,2017_Jul_05_1246,60.0021939316,FEMA4ImagesEEG,001,200818,
AFNE01.JPG,AFNE01.JPG,AFNE01.JPG,AFNE01.JPG,AFNE01.JPG,AFNE01.JPG,,,,,5,6,56,9,,,,,,,,,,,,,,,,,,,AMNE04.jpg,AMSA17.jpg,AMSA11.jpg,AMNE10.jpg,AMSA17.jpg,MS,2,num_6,16,num_6,0.86674216867,,,2017_Jul_05_1246,60.0021939316,FEMA4ImagesEEG,001,200818,
AFNE01.JPG,AFNE01.JPG,AFNE01.JPG,AFNE01.JPG,AFNE01.JPG,AFNE01.JPG,,,,,5,7,57,6,,,,,,,,,,,,,,,,,,,AMNE05.jpg,AMSA05.jpg,AMNE17.jpg,AMSA10.jpg,AMSA05.jpg,MS,2,num_6,32,num_4,0.683488474926,,,2017_Jul_05_1246,60.0021939316,FEMA4ImagesEEG,001,200818,
AFNE01.JPG,AFNE01.JPG,AFNE01.JPG,AFNE01.JPG,AFNE01.JPG,AFNE01.JPG,,,,,5,8,58,4,,,,,,,,,,,,,,,,,,,AMSA15.jpg,AMNE20.jpg,AMSA13.jpg,AMNE18.jpg,AMSA13.jpg,MS,2,num_2,32,num_6,0.650177464937,,,2017_Jul_05_1246,60.0021939316,FEMA4ImagesEEG,001,200818,
AFNE01.JPG,AFNE01.JPG,AFNE01.JPG,AFNE01.JPG,AFNE01.JPG,AFNE01.JPG,,,,,5,9,59,0,,,,,,,,,,,,,,,,,,,AMNE15.jpg,AMNE06.jpg,AMSA16.jpg,AMSA03.jpg,AMNE15.jpg,MN,1,num_8,16,num_8,0.616753875627,,,2017_Jul_05_1246,60.0021939316,FEMA4ImagesEEG,001,200818,
,,,,,,,,,,,,,,,,,,,,,,,,,,,,,,,,,,,,,,,,,,,space,68.0279136108,2017_Jul_05_1246,60.0021939316,FEMA4ImagesEEG,001,200818,
AFNE01.JPG,AFNE01.JPG,AFNE01.JPG,AFNE01.JPG,AFNE01.JPG,AFNE01.JPG,,,,,,,,,0,0,0,2,,,,,,,,,,,,,,,AFSA05.jpg,AFSA10.jpg,AFNE13.jpg,AFNE11.jpg,AFSA10.jpg,FS,4,num_6,16,num_6,0.816785115632,,,2017_Jul_05_1246,60.0021939316,FEMA4ImagesEEG,001,200818,
AFNE01.JPG,AFNE01.JPG,AFNE01.JPG,AFNE01.JPG,AFNE01.JPG,AFNE01.JPG,,,,,,,,,0,1,1,0,,,,,,,,,,,,,,,AFNE05.jpg,AFSA08.jpg,AFNE04.jpg,AFSA20.jpg,AFSA08.jpg,FS,4,num_6,32,num_4,0.700401052251,,,2017_Jul_05_1246,60.0021939316,FEMA4ImagesEEG,001,200818,
AFNE01.JPG,AFNE01.JPG,AFNE01.JPG,AFNE01.JPG,AFNE01.JPG,AFNE01.JPG,,,,,,,,,0,2,2,3,,,,,,,,,,,,,,,AFSA18.jpg,AFNE06.jpg,AFSA10.jpg,AFNE18.jpg,AFNE18.jpg,FN,3,num_4,32,num_6,0.5501539869,,,2017_Jul_05_1246,60.0021939316,FEMA4ImagesEEG,001,200818,
AFNE01.JPG,AFNE01.JPG,AFNE01.JPG,AFNE01.JPG,AFNE01.JPG,AFNE01.JPG,,,,,,,,,0,3,3,8,,,,,,,,,,,,,,,AFNE19.jpg,AFNE12.jpg,AFSA02.jpg,AFSA03.jpg,AFNE19.jpg,FN,3,num_8,32,num_4,0.58349065599,,,2017_Jul_05_1246,60.0021939316,FEMA4ImagesEEG,001,200818,
AFNE01.JPG,AFNE01.JPG,AFNE01.JPG,AFNE01.JPG,AFNE01.JPG,AFNE01.JPG,,,,,,,,,0,4,4,5,,,,,,,,,,,,,,,AFNE07.jpg,AFSA19.jpg,AFSA12.jpg,AFNE11.jpg,AFNE07.jpg,FN,3,num_8,16,num_8,1.98337961605,,,2017_Jul_05_1246,60.0021939316,FEMA4ImagesEEG,001,200818,
AFNE01.JPG,AFNE01.JPG,AFNE01.JPG,AFNE01.JPG,AFNE01.JPG,AFNE01.JPG,,,,,,,,,0,5,5,9,,,,,,,,,,,,,,,AFNE19.jpg,AFSA20.jpg,AFNE17.jpg,AFSA08.jpg,AFNE19.jpg,FN,3,num_8,32,num_6,0.566960720345,,,2017_Jul_05_1246,60.0021939316,FEMA4ImagesEEG,001,200818,
AFNE01.JPG,AFNE01.JPG,AFNE01.JPG,AFNE01.JPG,AFNE01.JPG,AFNE01.JPG,,,,,,,,,0,6,6,7,,,,,,,,,,,,,,,AFNE05.jpg,AFSA20.jpg,AFSA02.jpg,AFNE10.jpg,AFNE05.jpg,FN,3,num_8,32,num_6,0.500150105916,,,2017_Jul_05_1246,60.0021939316,FEMA4ImagesEEG,001,200818,
AFNE01.JPG,AFNE01.JPG,AFNE01.JPG,AFNE01.JPG,AFNE01.JPG,AFNE01.JPG,,,,,,,,,0,7,7,1,,,,,,,,,,,,,,,AFSA18.jpg,AFSA17.jpg,AFNE14.jpg,AFNE04.jpg,AFNE14.jpg,FN,3,num_2,16,num_2,0.850155141554,,,2017_Jul_05_1246,60.0021939316,FEMA4ImagesEEG,001,200818,
AFNE01.JPG,AFNE01.JPG,AFNE01.JPG,AFNE01.JPG,AFNE01.JPG,AFNE01.JPG,,,,,,,,,0,8,8,4,,,,,,,,,,,,,,,AFSA11.jpg,AFNE19.jpg,AFNE04.jpg,AFSA13.jpg,AFSA11.jpg,FS,4,num_8,16,num_8,0.633449633373,,,2017_Jul_05_1246,60.0021939316,FEMA4ImagesEEG,001,200818,
AFNE01.JPG,AFNE01.JPG,AFNE01.JPG,AFNE01.JPG,AFNE01.JPG,AFNE01.JPG,,,,,,,,,0,9,9,6,,,,,,,,,,,,,,,AFSA15.jpg,AFNE19.jpg,AFSA02.jpg,AFNE15.jpg,AFSA15.jpg,FS,4,num_8,16,num_8,0.550298640272,,,2017_Jul_05_1246,60.0021939316,FEMA4ImagesEEG,001,200818,
AFNE01.JPG,AFNE01.JPG,AFNE01.JPG,AFNE01.JPG,AFNE01.JPG,AFNE01.JPG,,,,,,,,,1,0,10,4,,,,,,,,,,,,,,,AFNE09.jpg,AFSA18.jpg,AFSA05.jpg,AFNE10.jpg,AFNE10.jpg,FN,3,num_4,16,num_4,0.716776712216,,,2017_Jul_05_1246,60.0021939316,FEMA4ImagesEEG,001,200818,
AFNE01.JPG,AFNE01.JPG,AFNE01.JPG,AFNE01.JPG,AFNE01.JPG,AFNE01.JPG,,,,,,,,,1,1,11,8,,,,,,,,,,,,,,,AFSA02.jpg,AFNE10.jpg,AFSA14.jpg,AFNE05.jpg,AFSA14.jpg,FS,4,num_2,16,num_2,0.600187375909,,,2017_Jul_05_1246,60.0021939316,FEMA4ImagesEEG,001,200818,
AFNE01.JPG,AFNE01.JPG,AFNE01.JPG,AFNE01.JPG,AFNE01.JPG,AFNE01.JPG,,,,,,,,,1,2,12,0,,,,,,,,,,,,,,,AFSA03.jpg,AFSA09.jpg,AFNE11.jpg,AFNE10.jpg,AFNE11.jpg,FN,3,num_2,32,num_6,0.683455438819,,,2017_Jul_05_1246,60.0021939316,FEMA4ImagesEEG,001,200818,
AFNE01.JPG,AFNE01.JPG,AFNE01.JPG,AFNE01.JPG,AFNE01.JPG,AFNE01.JPG,,,,,,,,,1,3,13,5,,,,,,,,,,,,,,,AFNE09.jpg,AFNE05.jpg,AFSA09.jpg,AFSA18.jpg,AFNE05.jpg,FN,3,num_6,16,num_6,0.733471828513,,,2017_Jul_05_1246,60.0021939316,FEMA4ImagesEEG,001,200818,
AFNE01.JPG,AFNE01.JPG,AFNE01.JPG,AFNE01.JPG,AFNE01.JPG,AFNE01.JPG,,,,,,,,,1,4,14,7,,,,,,,,,,,,,,,AFSA01.jpg,AFNE02.jpg,AFNE18.jpg,AFSA16.jpg,AFSA16.jpg,FS,4,num_4,16,num_4,0.583489052253,,,2017_Jul_05_1246,60.0021939316,FEMA4ImagesEEG,001,200818,
AFNE01.JPG,AFNE01.JPG,AFNE01.JPG,AFNE01.JPG,AFNE01.JPG,AFNE01.JPG,,,,,,,,,1,5,15,2,,,,,,,,,,,,,,,AFNE15.jpg,AFSA04.jpg,AFNE16.jpg,AFSA13.jpg,AFNE15.jpg,FN,3,num_8,16,num_8,0.916815649951,,,2017_Jul_05_1246,60.0021939316,FEMA4ImagesEEG,001,200818,
AFNE01.JPG,AFNE01.JPG,AFNE01.JPG,AFNE01.JPG,AFNE01.JPG,AFNE01.JPG,,,,,,,,,1,6,16,1,,,,,,,,,,,,,,,AFNE14.jpg,AFSA03.jpg,AFNE11.jpg,AFSA13.jpg,AFNE14.jpg,FN,3,num_8,16,num_8,0.950252389652,,,2017_Jul_05_1246,60.0021939316,FEMA4ImagesEEG,001,200818,
AFNE01.JPG,AFNE01.JPG,AFNE01.JPG,AFNE01.JPG,AFNE01.JPG,AFNE01.JPG,,,,,,,,,1,7,17,3,,,,,,,,,,,,,,,AFNE18.jpg,AFSA06.jpg,AFSA19.jpg,AFNE06.jpg,AFNE06.jpg,FN,3,num_4,16,num_4,0.816728344886,,,2017_Jul_05_1246,60.0021939316,FEMA4ImagesEEG,001,200818,
AFNE01.JPG,AFNE01.JPG,AFNE01.JPG,AFNE01.JPG,AFNE01.JPG,AFNE01.JPG,,,,,,,,,1,8,18,6,,,,,,,,,,,,,,,AFSA18.jpg,AFNE12.jpg,AFSA16.jpg,AFNE11.jpg,AFSA16.jpg,FS,4,num_2,32,num_4,0.783071257407,,,2017_Jul_05_1246,60.0021939316,FEMA4ImagesEEG,001,200818,
AFNE01.JPG,AFNE01.JPG,AFNE01.JPG,AFNE01.JPG,AFNE01.JPG,AFNE01.JPG,,,,,,,,,1,9,19,9,,,,,,,,,,,,,,,AFNE16.jpg,AFSA04.jpg,AFSA12.jpg,AFNE14.jpg,AFSA12.jpg,FS,4,num_2,16,num_2,1.05009465013,,,2017_Jul_05_1246,60.0021939316,FEMA4ImagesEEG,001,200818,
AFNE01.JPG,AFNE01.JPG,AFNE01.JPG,AFNE01.JPG,AFNE01.JPG,AFNE01.JPG,,,,,,,,,2,0,20,4,,,,,,,,,,,,,,,AFSA03.jpg,AFNE09.jpg,AFNE14.jpg,AFSA02.jpg,AFNE14.jpg,FN,3,num_2,32,num_6,0.666771869175,,,2017_Jul_05_1246,60.0021939316,FEMA4ImagesEEG,001,200818,
AFNE01.JPG,AFNE01.JPG,AFNE01.JPG,AFNE01.JPG,AFNE01.JPG,AFNE01.JPG,,,,,,,,,2,1,21,7,,,,,,,,,,,,,,,AFSA08.jpg,AFNE07.jpg,AFSA20.jpg,AFNE09.jpg,AFSA20.jpg,FS,4,num_2,32,num_8,1.01643275167,,,2017_Jul_05_1246,60.0021939316,FEMA4ImagesEEG,001,200818,
AFNE01.JPG,AFNE01.JPG,AFNE01.JPG,AFNE01.JPG,AFNE01.JPG,AFNE01.JPG,,,,,,,,,2,2,22,3,,,,,,,,,,,,,,,AFSA03.jpg,AFNE08.jpg,AFSA14.jpg,AFNE10.jpg,AFNE10.jpg,FN,3,num_4,32,num_6,0.600141510135,,,2017_Jul_05_1246,60.0021939316,FEMA4ImagesEEG,001,200818,
AFNE01.JPG,AFNE01.JPG,AFNE01.JPG,AFNE01.JPG,AFNE01.JPG,AFNE01.JPG,,,,,,,,,2,3,23,1,,,,,,,,,,,,,,,AFSA08.jpg,AFNE05.jpg,AFSA20.jpg,AFNE01.jpg,AFSA20.jpg,FS,4,num_2,32,num_8,0.916735144448,,,2017_Jul_05_1246,60.0021939316,FEMA4ImagesEEG,001,200818,
AFNE01.JPG,AFNE01.JPG,AFNE01.JPG,AFNE01.JPG,AFNE01.JPG,AFNE01.JPG,,,,,,,,,2,4,24,0,,,,,,,,,,,,,,,AFSA12.jpg,AFSA09.jpg,AFNE15.jpg,AFNE06.jpg,AFSA12.jpg,FS,4,num_8,16,num_8,0.633480424294,,,2017_Jul_05_1246,60.0021939316,FEMA4ImagesEEG,001,200818,
AFNE01.JPG,AFNE01.JPG,AFNE01.JPG,AFNE01.JPG,AFNE01.JPG,AFNE01.JPG,,,,,,,,,2,5,25,9,,,,,,,,,,,,,,,AFNE06.jpg,AFSA19.jpg,AFSA16.jpg,AFNE15.jpg,AFSA19.jpg,FS,4,num_6,32,num_4,1.26674210455,,,2017_Jul_05_1246,60.0021939316,FEMA4ImagesEEG,001,200818,
AFNE01.JPG,AFNE01.JPG,AFNE01.JPG,AFNE01.JPG,AFNE01.JPG,AFNE01.JPG,,,,,,,,,2,6,26,8,,,,,,,,,,,,,,,AFSA07.jpg,AFNE09.jpg,AFNE04.jpg,AFSA16.jpg,AFNE04.jpg,FN,3,num_2,32,num_6,1.28346704948,,,2017_Jul_05_1246,60.0021939316,FEMA4ImagesEEG,001,200818,
AFNE01.JPG,AFNE01.JPG,AFNE01.JPG,AFNE01.JPG,AFNE01.JPG,AFNE01.JPG,,,,,,,,,2,7,27,6,,,,,,,,,,,,,,,AFSA13.jpg,AFNE13.jpg,AFNE07.jpg,AFSA02.jpg,AFSA13.jpg,FS,4,num_8,32,num_4,0.966728120344,,,2017_Jul_05_1246,60.0021939316,FEMA4ImagesEEG,001,200818,
AFNE01.JPG,AFNE01.JPG,AFNE01.JPG,AFNE01.JPG,AFNE01.JPG,AFNE01.JPG,,,,,,,,,2,8,28,2,,,,,,,,,,,,,,,AFNE09.jpg,AFSA07.jpg,AFSA17.jpg,AFNE08.jpg,AFSA17.jpg,FS,4,num_2,16,num_2,0.95018214779,,,2017_Jul_05_1246,60.0021939316,FEMA4ImagesEEG,001,200818,
AFNE01.JPG,AFNE01.JPG,AFNE01.JPG,AFNE01.JPG,AFNE01.JPG,AFNE01.JPG,,,,,,,,,2,9,29,5,,,,,,,,,,,,,,,AFNE15.jpg,AFNE13.jpg,AFSA16.jpg,AFSA03.jpg,AFNE13.jpg,FN,3,num_6,16,num_6,0.566739410395,,,2017_Jul_05_1246,60.0021939316,FEMA4ImagesEEG,001,200818,
AFNE01.JPG,AFNE01.JPG,AFNE01.JPG,AFNE01.JPG,AFNE01.JPG,AFNE01.JPG,,,,,,,,,3,0,30,1,,,,,,,,,,,,,,,AFSA10.jpg,AFSA04.jpg,AFNE06.jpg,AFNE19.jpg,AFSA10.jpg,FS,4,num_8,16,num_8,0.733471828513,,,2017_Jul_05_1246,60.0021939316,FEMA4ImagesEEG,001,200818,
AFNE01.JPG,AFNE01.JPG,AFNE01.JPG,AFNE01.JPG,AFNE01.JPG,AFNE01.JPG,,,,,,,,,3,1,31,6,,,,,,,,,,,,,,,AFNE07.jpg,AFSA19.jpg,AFNE02.jpg,AFSA16.jpg,AFSA16.jpg,FS,4,num_4,16,num_4,0.950247257832,,,2017_Jul_05_1246,60.0021939316,FEMA4ImagesEEG,001,200818,
AFNE01.JPG,AFNE01.JPG,AFNE01.JPG,AFNE01.JPG,AFNE01.JPG,AFNE01.JPG,,,,,,,,,3,2,32,8,,,,,,,,,,,,,,,AFSA15.jpg,AFNE03.jpg,AFNE13.jpg,AFSA18.jpg,AFNE03.jpg,FN,3,num_6,16,num_6,0.900121495943,,,2017_Jul_05_1246,60.0021939316,FEMA4ImagesEEG,001,200818,
AFNE01.JPG,AFNE01.JPG,AFNE01.JPG,AFNE01.JPG,AFNE01.JPG,AFNE01.JPG,,,,,,,,,3,3,33,9,,,,,,,,,,,,,,,AFSA02.jpg,AFSA08.jpg,AFNE01.jpg,AFNE10.jpg,AFSA02.jpg,FS,4,num_8,32,num_4,1.33342121588,,,2017_Jul_05_1246,60.0021939316,FEMA4ImagesEEG,001,200818,
AFNE01.JPG,AFNE01.JPG,AFNE01.JPG,AFNE01.JPG,AFNE01.JPG,AFNE01.JPG,,,,,,,,,3,4,34,5,,,,,,,,,,,,,,,AFNE18.jpg,AFSA02.jpg,AFNE16.jpg,AFSA19.jpg,AFSA02.jpg,FS,4,num_6,32,num_8,0.783465445857,,,2017_Jul_05_1246,60.0021939316,FEMA4ImagesEEG,001,200818,
AFNE01.JPG,AFNE01.JPG,AFNE01.JPG,AFNE01.JPG,AFNE01.JPG,AFNE01.JPG,,,,,,,,,3,5,35,4,,,,,,,,,,,,,,,AFNE07.jpg,AFSA16.jpg,AFSA15.jpg,AFNE02.jpg,AFSA15.jpg,FS,4,num_2,32,num_6,0.800137148122,,,2017_Jul_05_1246,60.0021939316,FEMA4ImagesEEG,001,200818,
AFNE01.JPG,AFNE01.JPG,AFNE01.JPG,AFNE01.JPG,AFNE01.JPG,AFNE01.JPG,,,,,,,,,3,6,36,2,,,,,,,,,,,,,,,AFNE06.jpg,AFSA03.jpg,AFNE10.jpg,AFSA08.jpg,AFSA08.jpg,FS,4,num_4,16,num_4,0.666779566905,,,2017_Jul_05_1246,60.0021939316,FEMA4ImagesEEG,001,200818,
AFNE01.JPG,AFNE01.JPG,AFNE01.JPG,AFNE01.JPG,AFNE01.JPG,AFNE01.JPG,,,,,,,,,3,7,37,0,,,,,,,,,,,,,,,AFSA06.jpg,AFSA16.jpg,AFNE09.jpg,AFNE12.jpg,AFNE12.jpg,FN,3,num_4,16,num_4,1.06674582511,,,2017_Jul_05_1246,60.0021939316,FEMA4ImagesEEG,001,200818,
AFNE01.JPG,AFNE01.JPG,AFNE01.JPG,AFNE01.JPG,AFNE01.JPG,AFNE01.JPG,,,,,,,,,3,8,38,7,,,,,,,,,,,,,,,AFNE08.jpg,AFNE03.jpg,AFSA09.jpg,AFSA16.jpg,AFNE08.jpg,FN,3,num_8,32,num_6,0.600139585673,,,2017_Jul_05_1246,60.0021939316,FEMA4ImagesEEG,001,200818,
AFNE01.JPG,AFNE01.JPG,AFNE01.JPG,AFNE01.JPG,AFNE01.JPG,AFNE01.JPG,,,,,,,,,3,9,39,3,,,,,,,,,,,,,,,AFNE02.jpg,AFSA10.jpg,AFSA08.jpg,AFNE03.jpg,AFSA08.jpg,FS,4,num_2,32,num_4,2.11661050515,,,2017_Jul_05_1246,60.0021939316,FEMA4ImagesEEG,001,200818,
AFNE01.JPG,AFNE01.JPG,AFNE01.JPG,AFNE01.JPG,AFNE01.JPG,AFNE01.JPG,,,,,,,,,4,0,40,9,,,,,,,,,,,,,,,AFSA06.jpg,AFSA20.jpg,AFNE18.jpg,AFNE12.jpg,AFNE12.jpg,FN,3,num_4,16,num_4,1.05011004559,,,2017_Jul_05_1246,60.0021939316,FEMA4ImagesEEG,001,200818,
AFNE01.JPG,AFNE01.JPG,AFNE01.JPG,AFNE01.JPG,AFNE01.JPG,AFNE01.JPG,,,,,,,,,4,1,41,4,,,,,,,,,,,,,,,AFSA05.jpg,AFSA14.jpg,AFNE01.jpg,AFNE17.jpg,AFNE17.jpg,FN,3,num_4,16,num_4,0.800113092642,,,2017_Jul_05_1246,60.0021939316,FEMA4ImagesEEG,001,200818,
AFNE01.JPG,AFNE01.JPG,AFNE01.JPG,AFNE01.JPG,AFNE01.JPG,AFNE01.JPG,,,,,,,,,4,2,42,7,,,,,,,,,,,,,,,AFNE19.jpg,AFSA11.jpg,AFSA06.jpg,AFNE09.jpg,AFSA11.jpg,FS,4,num_6,16,num_6,0.700139970635,,,2017_Jul_05_1246,60.0021939316,FEMA4ImagesEEG,001,200818,
AFNE01.JPG,AFNE01.JPG,AFNE01.JPG,AFNE01.JPG,AFNE01.JPG,AFNE01.JPG,,,,,,,,,4,3,43,2,,,,,,,,,,,,,,,AFSA08.jpg,AFSA17.jpg,AFNE02.jpg,AFNE04.jpg,AFNE02.jpg,FN,3,num_2,32,num_4,0.766766480636,,,2017_Jul_05_1246,60.0021939316,FEMA4ImagesEEG,001,200818,
AFNE01.JPG,AFNE01.JPG,AFNE01.JPG,AFNE01.JPG,AFNE01.JPG,AFNE01.JPG,,,,,,,,,4,4,44,3,,,,,,,,,,,,,,,AFSA20.jpg,AFNE06.jpg,AFNE18.jpg,AFSA16.jpg,AFSA16.jpg,FS,4,num_4,16,num_4,0.816668366548,,,2017_Jul_05_1246,60.0021939316,FEMA4ImagesEEG,001,200818,
AFNE01.JPG,AFNE01.JPG,AFNE01.JPG,AFNE01.JPG,AFNE01.JPG,AFNE01.JPG,,,,,,,,,4,5,45,5,,,,,,,,,,,,,,,AFNE15.jpg,AFSA06.jpg,AFNE10.jpg,AFSA07.jpg,AFNE10.jpg,FN,3,num_2,32,num_6,0.91675342666,,,2017_Jul_05_1246,60.0021939316,FEMA4ImagesEEG,001,200818,
AFNE01.JPG,AFNE01.JPG,AFNE01.JPG,AFNE01.JPG,AFNE01.JPG,AFNE01.JPG,,,,,,,,,4,6,46,1,,,,,,,,,,,,,,,AFSA15.jpg,AFSA10.jpg,AFNE07.jpg,AFNE06.jpg,AFNE07.jpg,FN,3,num_2,32,num_4,0.650299666566,,,2017_Jul_05_1246,60.0021939316,FEMA4ImagesEEG,001,200818,
AFNE01.JPG,AFNE01.JPG,AFNE01.JPG,AFNE01.JPG,AFNE01.JPG,AFNE01.JPG,,,,,,,,,4,7,47,0,,,,,,,,,,,,,,,AFSA11.jpg,AFSA12.jpg,AFNE07.jpg,AFNE17.jpg,AFSA12.jpg,FS,4,num_6,16,num_6,0.650137372548,,,2017_Jul_05_1246,60.0021939316,FEMA4ImagesEEG,001,200818,
AFNE01.JPG,AFNE01.JPG,AFNE01.JPG,AFNE01.JPG,AFNE01.JPG,AFNE01.JPG,,,,,,,,,4,8,48,8,,,,,,,,,,,,,,,AFNE12.jpg,AFSA08.jpg,AFNE04.jpg,AFSA02.jpg,AFSA02.jpg,FS,4,num_4,16,num_4,0.616782421363,,,2017_Jul_05_1246,60.0021939316,FEMA4ImagesEEG,001,200818,
AFNE01.JPG,AFNE01.JPG,AFNE01.JPG,AFNE01.JPG,AFNE01.JPG,AFNE01.JPG,,,,,,,,,4,9,49,6,,,,,,,,,,,,,,,AFNE15.jpg,AFNE17.jpg,AFSA09.jpg,AFSA12.jpg,AFNE15.jpg,FN,3,num_8,16,num_8,0.916750219185,,,2017_Jul_05_1246,60.0021939316,FEMA4ImagesEEG,001,200818,
AFNE01.JPG,AFNE01.JPG,AFNE01.JPG,AFNE01.JPG,AFNE01.JPG,AFNE01.JPG,,,,,,,,,5,0,50,2,,,,,,,,,,,,,,,AFSA19.jpg,AFNE04.jpg,AFNE14.jpg,AFSA13.jpg,AFSA13.jpg,FS,4,num_4,16,num_4,1.3500752775,,,2017_Jul_05_1246,60.0021939316,FEMA4ImagesEEG,001,200818,
AFNE01.JPG,AFNE01.JPG,AFNE01.JPG,AFNE01.JPG,AFNE01.JPG,AFNE01.JPG,,,,,,,,,5,1,51,6,,,,,,,,,,,,,,,AFSA01.jpg,AFNE15.jpg,AFNE07.jpg,AFSA18.jpg,AFSA18.jpg,FS,4,num_4,32,num_8,1.93335488695,,,2017_Jul_05_1246,60.0021939316,FEMA4ImagesEEG,001,200818,
AFNE01.JPG,AFNE01.JPG,AFNE01.JPG,AFNE01.JPG,AFNE01.JPG,AFNE01.JPG,,,,,,,,,5,2,52,1,,,,,,,,,,,,,,,AFNE19.jpg,AFSA07.jpg,AFNE03.jpg,AFSA14.jpg,AFSA14.jpg,FS,4,num_4,32,num_6,0.866744413855,,,2017_Jul_05_1246,60.0021939316,FEMA4ImagesEEG,001,200818,
AFNE01.JPG,AFNE01.JPG,AFNE01.JPG,AFNE01.JPG,AFNE01.JPG,AFNE01.JPG,,,,,,,,,5,3,53,0,,,,,,,,,,,,,,,AFNE20.jpg,AFNE03.jpg,AFSA09.jpg,AFSA05.jpg,AFSA09.jpg,FS,4,num_2,32,num_4,0.516794866184,,,2017_Jul_05_1246,60.0021939316,FEMA4ImagesEEG,001,200818,
AFNE01.JPG,AFNE01.JPG,AFNE01.JPG,AFNE01.JPG,AFNE01.JPG,AFNE01.JPG,,,,,,,,,5,4,54,9,,,,,,,,,,,,,,,AFSA14.jpg,AFNE09.jpg,AFNE06.jpg,AFSA16.jpg,AFSA16.jpg,FS,4,num_4,32,num_6,0.81677292753,,,2017_Jul_05_1246,60.0021939316,FEMA4ImagesEEG,001,200818,
AFNE01.JPG,AFNE01.JPG,AFNE01.JPG,AFNE01.JPG,AFNE01.JPG,AFNE01.JPG,,,,,,,,,5,5,55,5,,,,,,,,,,,,,,,AFSA16.jpg,AFNE12.jpg,AFSA06.jpg,AFNE15.jpg,AFSA16.jpg,FS,4,num_8,16,num_8,0.550116460305,,,2017_Jul_05_1246,60.0021939316,FEMA4ImagesEEG,001,200818,
AFNE01.JPG,AFNE01.JPG,AFNE01.JPG,AFNE01.JPG,AFNE01.JPG,AFNE01.JPG,,,,,,,,,5,6,56,3,,,,,,,,,,,,,,,AFSA14.jpg,AFNE06.jpg,AFNE12.jpg,AFSA08.jpg,AFNE12.jpg,FN,3,num_2,32,num_6,0.916812442709,,,2017_Jul_05_1246,60.0021939316,FEMA4ImagesEEG,001,200818,
AFNE01.JPG,AFNE01.JPG,AFNE01.JPG,AFNE01.JPG,AFNE01.JPG,AFNE01.JPG,,,,,,,,,5,7,57,8,,,,,,,,,,,,,,,AFSA02.jpg,AFSA20.jpg,AFNE15.jpg,AFNE14.jpg,AFNE15.jpg,FN,3,num_2,16,num_2,0.950107415556,,,2017_Jul_05_1246,60.0021939316,FEMA4ImagesEEG,001,200818,
AFNE01.JPG,AFNE01.JPG,AFNE01.JPG,AFNE01.JPG,AFNE01.JPG,AFNE01.JPG,,,,,,,,,5,8,58,7,,,,,,,,,,,,,,,AFNE11.jpg,AFSA11.jpg,AFNE06.jpg,AFSA16.jpg,AFSA11.jpg,FS,4,num_6,16,num_6,0.616762535647,,,2017_Jul_05_1246,60.0021939316,FEMA4ImagesEEG,001,200818,
AFNE01.JPG,AFNE01.JPG,AFNE01.JPG,AFNE01.JPG,AFNE01.JPG,AFNE01.JPG,,,,,,,,,5,9,59,4,,,,,,,,,,,,,,,AFSA01.jpg,AFNE07.jpg,AFNE05.jpg,AFSA11.jpg,AFSA11.jpg,FS,4,num_4,16,num_4,0.533446682617,,,2017_Jul_05_1246,60.0021939316,FEMA4ImagesEEG,001,200818,
,,,,,,,,,,,,,,,,,,,,,,,,,,,,,,,,,,,,,,,,,,,space,27.4980175111,2017_Jul_05_1246,60.0021939316,FEMA4ImagesEEG,001,200818,
AFNE01.JPG,AFNE01.JPG,AFNE01.JPG,AFNE01.JPG,AFNE01.JPG,AFNE01.JPG,,,,,,,,,,,,,0,0,0,7,,,,,,,,,,,AMSA09.jpg,AMNE16.jpg,AMNE05.jpg,AMSA20.jpg,AMSA09.jpg,MS,2,num_8,32,num_6,1.11659254378,,,2017_Jul_05_1246,60.0021939316,FEMA4ImagesEEG,001,200818,
AFNE01.JPG,AFNE01.JPG,AFNE01.JPG,AFNE01.JPG,AFNE01.JPG,AFNE01.JPG,,,,,,,,,,,,,0,1,1,4,,,,,,,,,,,AMSA09.jpg,AMNE11.jpg,AMSA15.jpg,AMNE07.jpg,AMSA15.jpg,MS,2,num_2,16,num_2,0.650236160262,,,2017_Jul_05_1246,60.0021939316,FEMA4ImagesEEG,001,200818,
AFNE01.JPG,AFNE01.JPG,AFNE01.JPG,AFNE01.JPG,AFNE01.JPG,AFNE01.JPG,,,,,,,,,,,,,0,2,2,8,,,,,,,,,,,AMSA19.jpg,AMSA01.jpg,AMNE03.jpg,AMNE06.jpg,AMSA19.jpg,MS,2,num_8,16,num_8,1.01676696178,,,2017_Jul_05_1246,60.0021939316,FEMA4ImagesEEG,001,200818,
AFNE01.JPG,AFNE01.JPG,AFNE01.JPG,AFNE01.JPG,AFNE01.JPG,AFNE01.JPG,,,,,,,,,,,,,0,3,3,6,,,,,,,,,,,AMSA19.jpg,AMNE02.jpg,AMNE17.jpg,AMSA11.jpg,AMNE02.jpg,MN,1,num_6,16,num_6,0.583480071509,,,2017_Jul_05_1246,60.0021939316,FEMA4ImagesEEG,001,200818,
AFNE01.JPG,AFNE01.JPG,AFNE01.JPG,AFNE01.JPG,AFNE01.JPG,AFNE01.JPG,,,,,,,,,,,,,0,4,4,3,,,,,,,,,,,AMSA14.jpg,AMSA17.jpg,AMNE16.jpg,AMNE15.jpg,AMNE16.jpg,MN,1,num_2,32,num_6,0.760811636923,,,2017_Jul_05_1246,60.0021939316,FEMA4ImagesEEG,001,200818,
AFNE01.JPG,AFNE01.JPG,AFNE01.JPG,AFNE01.JPG,AFNE01.JPG,AFNE01.JPG,,,,,,,,,,,,,0,5,5,1,,,,,,,,,,,AMSA04.jpg,AMNE11.jpg,AMNE03.jpg,AMSA13.jpg,AMNE03.jpg,MN,1,num_2,32,num_4,0.766734727542,,,2017_Jul_05_1246,60.0021939316,FEMA4ImagesEEG,001,200818,
AFNE01.JPG,AFNE01.JPG,AFNE01.JPG,AFNE01.JPG,AFNE01.JPG,AFNE01.JPG,,,,,,,,,,,,,0,6,6,5,,,,,,,,,,,AMSA19.jpg,AMSA08.jpg,AMNE07.jpg,AMNE20.jpg,AMNE07.jpg,MN,1,num_2,32,num_6,0.600107511738,,,2017_Jul_05_1246,60.0021939316,FEMA4ImagesEEG,001,200818,
AFNE01.JPG,AFNE01.JPG,AFNE01.JPG,AFNE01.JPG,AFNE01.JPG,AFNE01.JPG,,,,,,,,,,,,,0,7,7,9,,,,,,,,,,,AMSA07.jpg,AMNE11.jpg,AMSA20.jpg,AMNE19.jpg,AMSA20.jpg,MS,2,num_2,32,num_4,0.800119507476,,,2017_Jul_05_1246,60.0021939316,FEMA4ImagesEEG,001,200818,
AFNE01.JPG,AFNE01.JPG,AFNE01.JPG,AFNE01.JPG,AFNE01.JPG,AFNE01.JPG,,,,,,,,,,,,,0,8,8,0,,,,,,,,,,,AMNE07.jpg,AMSA05.jpg,AMSA02.jpg,AMNE19.jpg,AMSA05.jpg,MS,2,num_6,16,num_6,0.783459993196,,,2017_Jul_05_1246,60.0021939316,FEMA4ImagesEEG,001,200818,
AFNE01.JPG,AFNE01.JPG,AFNE01.JPG,AFNE01.JPG,AFNE01.JPG,AFNE01.JPG,,,,,,,,,,,,,0,9,9,2,,,,,,,,,,,AMNE18.jpg,AMNE07.jpg,AMSA07.jpg,AMSA17.jpg,AMSA17.jpg,MS,2,num_4,32,num_6,0.950077586807,,,2017_Jul_05_1246,60.0021939316,FEMA4ImagesEEG,001,200818,
AFNE01.JPG,AFNE01.JPG,AFNE01.JPG,AFNE01.JPG,AFNE01.JPG,AFNE01.JPG,,,,,,,,,,,,,1,0,10,5,,,,,,,,,,,AMNE02.jpg,AMSA05.jpg,AMNE10.jpg,AMSA09.jpg,AMSA09.jpg,MS,2,num_4,16,num_4,1.03330940625,,,2017_Jul_05_1246,60.0021939316,FEMA4ImagesEEG,001,200818,
AFNE01.JPG,AFNE01.JPG,AFNE01.JPG,AFNE01.JPG,AFNE01.JPG,AFNE01.JPG,,,,,,,,,,,,,1,1,11,9,,,,,,,,,,,AMSA02.jpg,AMSA04.jpg,AMNE02.jpg,AMNE12.jpg,AMSA02.jpg,MS,2,num_8,32,num_6,0.616770874825,,,2017_Jul_05_1246,60.0021939316,FEMA4ImagesEEG,001,200818,
AFNE01.JPG,AFNE01.JPG,AFNE01.JPG,AFNE01.JPG,AFNE01.JPG,AFNE01.JPG,,,,,,,,,,,,,1,2,12,4,,,,,,,,,,,AMSA10.jpg,AMNE13.jpg,AMNE07.jpg,AMSA12.jpg,AMNE13.jpg,MN,1,num_6,32,num_4,0.766899266746,,,2017_Jul_05_1246,60.0021939316,FEMA4ImagesEEG,001,200818,
AFNE01.JPG,AFNE01.JPG,AFNE01.JPG,AFNE01.JPG,AFNE01.JPG,AFNE01.JPG,,,,,,,,,,,,,1,3,13,2,,,,,,,,,,,AMSA16.jpg,AMNE16.jpg,AMNE02.jpg,AMSA13.jpg,AMSA16.jpg,MS,2,num_8,32,num_6,0.616806797567,,,2017_Jul_05_1246,60.0021939316,FEMA4ImagesEEG,001,200818,
AFNE01.JPG,AFNE01.JPG,AFNE01.JPG,AFNE01.JPG,AFNE01.JPG,AFNE01.JPG,,,,,,,,,,,,,1,4,14,1,,,,,,,,,,,AMNE20.jpg,AMNE02.jpg,AMSA19.jpg,AMSA03.jpg,AMSA19.jpg,MS,2,num_2,32,num_4,0.683489437099,,,2017_Jul_05_1246,60.0021939316,FEMA4ImagesEEG,001,200818,
AFNE01.JPG,AFNE01.JPG,AFNE01.JPG,AFNE01.JPG,AFNE01.JPG,AFNE01.JPG,,,,,,,,,,,,,1,5,15,8,,,,,,,,,,,AMNE02.jpg,AMSA11.jpg,AMNE09.jpg,AMSA15.jpg,AMSA15.jpg,MS,2,num_4,16,num_4,0.650129354093,,,2017_Jul_05_1246,60.0021939316,FEMA4ImagesEEG,001,200818,
AFNE01.JPG,AFNE01.JPG,AFNE01.JPG,AFNE01.JPG,AFNE01.JPG,AFNE01.JPG,,,,,,,,,,,,,1,6,16,6,,,,,,,,,,,AMSA20.jpg,AMNE11.jpg,AMSA13.jpg,AMNE18.jpg,AMNE11.jpg,MN,1,num_6,16,num_6,0.75009734428,,,2017_Jul_05_1246,60.0021939316,FEMA4ImagesEEG,001,200818,
AFNE01.JPG,AFNE01.JPG,AFNE01.JPG,AFNE01.JPG,AFNE01.JPG,AFNE01.JPG,,,,,,,,,,,,,1,7,17,3,,,,,,,,,,,AMNE05.jpg,AMNE13.jpg,AMSA04.jpg,AMSA03.jpg,AMSA03.jpg,MS,2,num_4,16,num_4,2.75000144332,,,2017_Jul_05_1246,60.0021939316,FEMA4ImagesEEG,001,200818,
AFNE01.JPG,AFNE01.JPG,AFNE01.JPG,AFNE01.JPG,AFNE01.JPG,AFNE01.JPG,,,,,,,,,,,,,1,8,18,0,,,,,,,,,,,AMNE07.jpg,AMNE13.jpg,AMSA01.jpg,AMSA11.jpg,AMSA01.jpg,MS,2,num_2,16,num_2,0.616793005844,,,2017_Jul_05_1246,60.0021939316,FEMA4ImagesEEG,001,200818,
AFNE01.JPG,AFNE01.JPG,AFNE01.JPG,AFNE01.JPG,AFNE01.JPG,AFNE01.JPG,,,,,,,,,,,,,1,9,19,7,,,,,,,,,,,AMNE03.jpg,AMSA03.jpg,AMSA13.jpg,AMNE12.jpg,AMSA13.jpg,MS,2,num_2,32,num_4,0.633422691375,,,2017_Jul_05_1246,60.0021939316,FEMA4ImagesEEG,001,200818,
AFNE01.JPG,AFNE01.JPG,AFNE01.JPG,AFNE01.JPG,AFNE01.JPG,AFNE01.JPG,,,,,,,,,,,,,2,0,20,2,,,,,,,,,,,AMNE05.jpg,AMSA03.jpg,AMSA13.jpg,AMNE02.jpg,AMSA13.jpg,MS,2,num_2,32,num_6,0.650124222273,,,2017_Jul_05_1246,60.0021939316,FEMA4ImagesEEG,001,200818,
AFNE01.JPG,AFNE01.JPG,AFNE01.JPG,AFNE01.JPG,AFNE01.JPG,AFNE01.JPG,,,,,,,,,,,,,2,1,21,0,,,,,,,,,,,AMSA02.jpg,AMSA09.jpg,AMNE05.jpg,AMNE18.jpg,AMNE05.jpg,MN,1,num_2,16,num_2,0.88348026399,,,2017_Jul_05_1246,60.0021939316,FEMA4ImagesEEG,001,200818,
AFNE01.JPG,AFNE01.JPG,AFNE01.JPG,AFNE01.JPG,AFNE01.JPG,AFNE01.JPG,,,,,,,,,,,,,2,2,22,9,,,,,,,,,,,AMSA18.jpg,AMSA04.jpg,AMNE08.jpg,AMNE12.jpg,AMSA18.jpg,MS,2,num_8,16,num_8,0.716757788672,,,2017_Jul_05_1246,60.0021939316,FEMA4ImagesEEG,001,200818,
AFNE01.JPG,AFNE01.JPG,AFNE01.JPG,AFNE01.JPG,AFNE01.JPG,AFNE01.JPG,,,,,,,,,,,,,2,3,23,1,,,,,,,,,,,AMSA06.jpg,AMSA05.jpg,AMNE06.jpg,AMNE09.jpg,AMSA05.jpg,MS,2,num_6,16,num_6,1.05007283983,,,2017_Jul_05_1246,60.0021939316,FEMA4ImagesEEG,001,200818,
AFNE01.JPG,AFNE01.JPG,AFNE01.JPG,AFNE01.JPG,AFNE01.JPG,AFNE01.JPG,,,,,,,,,,,,,2,4,24,6,,,,,,,,,,,AMNE19.jpg,AMSA19.jpg,AMSA01.jpg,AMNE17.jpg,AMSA01.jpg,MS,2,num_2,16,num_2,0.783423749614,,,2017_Jul_05_1246,60.0021939316,FEMA4ImagesEEG,001,200818,
AFNE01.JPG,AFNE01.JPG,AFNE01.JPG,AFNE01.JPG,AFNE01.JPG,AFNE01.JPG,,,,,,,,,,,,,2,5,25,8,,,,,,,,,,,AMSA07.jpg,AMNE04.jpg,AMSA12.jpg,AMNE20.jpg,AMNE20.jpg,MN,1,num_4,16,num_4,0.683494889643,,,2017_Jul_05_1246,60.0021939316,FEMA4ImagesEEG,001,200818,
AFNE01.JPG,AFNE01.JPG,AFNE01.JPG,AFNE01.JPG,AFNE01.JPG,AFNE01.JPG,,,,,,,,,,,,,2,6,26,5,,,,,,,,,,,AMNE13.jpg,AMSA07.jpg,AMSA08.jpg,AMNE09.jpg,AMSA07.jpg,MS,2,num_6,16,num_6,0.583761359798,,,2017_Jul_05_1246,60.0021939316,FEMA4ImagesEEG,001,200818,
AFNE01.JPG,AFNE01.JPG,AFNE01.JPG,AFNE01.JPG,AFNE01.JPG,AFNE01.JPG,,,,,,,,,,,,,2,7,27,4,,,,,,,,,,,AMSA09.jpg,AMNE07.jpg,AMSA04.jpg,AMNE01.jpg,AMNE01.jpg,MN,1,num_4,16,num_4,0.616809363593,,,2017_Jul_05_1246,60.0021939316,FEMA4ImagesEEG,001,200818,
AFNE01.JPG,AFNE01.JPG,AFNE01.JPG,AFNE01.JPG,AFNE01.JPG,AFNE01.JPG,,,,,,,,,,,,,2,8,28,3,,,,,,,,,,,AMNE13.jpg,AMSA19.jpg,AMNE06.jpg,AMSA10.jpg,AMSA19.jpg,MS,2,num_6,16,num_6,0.666778925341,,,2017_Jul_05_1246,60.0021939316,FEMA4ImagesEEG,001,200818,
AFNE01.JPG,AFNE01.JPG,AFNE01.JPG,AFNE01.JPG,AFNE01.JPG,AFNE01.JPG,,,,,,,,,,,,,2,9,29,7,,,,,,,,,,,AMNE15.jpg,AMSA16.jpg,AMSA13.jpg,AMNE10.jpg,AMNE10.jpg,MN,1,num_4,16,num_4,0.600198922446,,,2017_Jul_05_1246,60.0021939316,FEMA4ImagesEEG,001,200818,
AFNE01.JPG,AFNE01.JPG,AFNE01.JPG,AFNE01.JPG,AFNE01.JPG,AFNE01.JPG,,,,,,,,,,,,,3,0,30,9,,,,,,,,,,,AMSA17.jpg,AMSA08.jpg,AMNE04.jpg,AMNE13.jpg,AMNE04.jpg,MN,1,num_2,16,num_2,0.716739185853,,,2017_Jul_05_1246,60.0021939316,FEMA4ImagesEEG,001,200818,
AFNE01.JPG,AFNE01.JPG,AFNE01.JPG,AFNE01.JPG,AFNE01.JPG,AFNE01.JPG,,,,,,,,,,,,,3,1,31,0,,,,,,,,,,,AMNE01.jpg,AMSA08.jpg,AMSA13.jpg,AMNE18.jpg,AMNE01.jpg,MN,1,num_8,32,num_4,0.749959747191,,,2017_Jul_05_1246,60.0021939316,FEMA4ImagesEEG,001,200818,
AFNE01.JPG,AFNE01.JPG,AFNE01.JPG,AFNE01.JPG,AFNE01.JPG,AFNE01.JPG,,,,,,,,,,,,,3,2,32,7,,,,,,,,,,,AMNE19.jpg,AMSA06.jpg,AMNE07.jpg,AMSA10.jpg,AMNE19.jpg,MN,1,num_8,16,num_8,0.733507109806,,,2017_Jul_05_1246,60.0021939316,FEMA4ImagesEEG,001,200818,
AFNE01.JPG,AFNE01.JPG,AFNE01.JPG,AFNE01.JPG,AFNE01.JPG,AFNE01.JPG,,,,,,,,,,,,,3,3,33,5,,,,,,,,,,,AMNE14.jpg,AMSA20.jpg,AMNE04.jpg,AMSA07.jpg,AMSA20.jpg,MS,2,num_6,16,num_6,0.633576325257,,,2017_Jul_05_1246,60.0021939316,FEMA4ImagesEEG,001,200818,
AFNE01.JPG,AFNE01.JPG,AFNE01.JPG,AFNE01.JPG,AFNE01.JPG,AFNE01.JPG,,,,,,,,,,,,,3,4,34,8,,,,,,,,,,,AMSA07.jpg,AMNE02.jpg,AMNE07.jpg,AMSA16.jpg,AMSA07.jpg,MS,2,num_8,32,num_6,1.100092437,,,2017_Jul_05_1246,60.0021939316,FEMA4ImagesEEG,001,200818,
AFNE01.JPG,AFNE01.JPG,AFNE01.JPG,AFNE01.JPG,AFNE01.JPG,AFNE01.JPG,,,,,,,,,,,,,3,5,35,2,,,,,,,,,,,AMSA11.jpg,AMSA12.jpg,AMNE01.jpg,AMNE04.jpg,AMNE01.jpg,MN,1,num_2,16,num_2,0.816747589153,,,2017_Jul_05_1246,60.0021939316,FEMA4ImagesEEG,001,200818,
AFNE01.JPG,AFNE01.JPG,AFNE01.JPG,AFNE01.JPG,AFNE01.JPG,AFNE01.JPG,,,,,,,,,,,,,3,6,36,1,,,,,,,,,,,AMSA02.jpg,AMNE13.jpg,AMSA15.jpg,AMNE17.jpg,AMSA15.jpg,MS,2,num_2,32,num_6,0.750151870074,,,2017_Jul_05_1246,60.0021939316,FEMA4ImagesEEG,001,200818,
AFNE01.JPG,AFNE01.JPG,AFNE01.JPG,AFNE01.JPG,AFNE01.JPG,AFNE01.JPG,,,,,,,,,,,,,3,7,37,3,,,,,,,,,,,AMSA08.jpg,AMNE07.jpg,AMNE15.jpg,AMSA14.jpg,AMNE07.jpg,MN,1,num_6,16,num_6,0.750203829841,,,2017_Jul_05_1246,60.0021939316,FEMA4ImagesEEG,001,200818,
AFNE01.JPG,AFNE01.JPG,AFNE01.JPG,AFNE01.JPG,AFNE01.JPG,AFNE01.JPG,,,,,,,,,,,,,3,8,38,4,,,,,,,,,,,AMSA12.jpg,AMNE05.jpg,AMNE17.jpg,AMSA20.jpg,AMSA12.jpg,MS,2,num_8,32,num_6,1.05008566938,,,2017_Jul_05_1246,60.0021939316,FEMA4ImagesEEG,001,200818,
AFNE01.JPG,AFNE01.JPG,AFNE01.JPG,AFNE01.JPG,AFNE01.JPG,AFNE01.JPG,,,,,,,,,,,,,3,9,39,6,,,,,,,,,,,AMNE16.jpg,AMSA20.jpg,AMSA16.jpg,AMNE18.jpg,AMNE18.jpg,MN,1,num_4,32,num_8,0.900111232302,,,2017_Jul_05_1246,60.0021939316,FEMA4ImagesEEG,001,200818,
AFNE01.JPG,AFNE01.JPG,AFNE01.JPG,AFNE01.JPG,AFNE01.JPG,AFNE01.JPG,,,,,,,,,,,,,4,0,40,2,,,,,,,,,,,AMNE13.jpg,AMSA14.jpg,AMNE09.jpg,AMSA12.jpg,AMNE09.jpg,MN,1,num_2,32,num_8,0.733321401756,,,2017_Jul_05_1246,60.0021939316,FEMA4ImagesEEG,001,200818,
AFNE01.JPG,AFNE01.JPG,AFNE01.JPG,AFNE01.JPG,AFNE01.JPG,AFNE01.JPG,,,,,,,,,,,,,4,1,41,0,,,,,,,,,,,AMNE10.jpg,AMSA01.jpg,AMNE07.jpg,AMSA15.jpg,AMNE10.jpg,MN,1,num_8,16,num_8,0.850056995288,,,2017_Jul_05_1246,60.0021939316,FEMA4ImagesEEG,001,200818,
AFNE01.JPG,AFNE01.JPG,AFNE01.JPG,AFNE01.JPG,AFNE01.JPG,AFNE01.JPG,,,,,,,,,,,,,4,2,42,4,,,,,,,,,,,AMSA10.jpg,AMNE06.jpg,AMSA18.jpg,AMNE19.jpg,AMNE06.jpg,MN,1,num_6,16,num_6,0.816752400249,,,2017_Jul_05_1246,60.0021939316,FEMA4ImagesEEG,001,200818,
AFNE01.JPG,AFNE01.JPG,AFNE01.JPG,AFNE01.JPG,AFNE01.JPG,AFNE01.JPG,,,,,,,,,,,,,4,3,43,9,,,,,,,,,,,AMSA03.jpg,AMSA14.jpg,AMNE07.jpg,AMNE13.jpg,AMNE13.jpg,MN,1,num_4,16,num_4,0.75018458534,,,2017_Jul_05_1246,60.0021939316,FEMA4ImagesEEG,001,200818,
AFNE01.JPG,AFNE01.JPG,AFNE01.JPG,AFNE01.JPG,AFNE01.JPG,AFNE01.JPG,,,,,,,,,,,,,4,4,44,6,,,,,,,,,,,AMSA07.jpg,AMNE19.jpg,AMNE13.jpg,AMSA04.jpg,AMNE19.jpg,MN,1,num_6,16,num_6,0.76677802729,,,2017_Jul_05_1246,60.0021939316,FEMA4ImagesEEG,001,200818,
AFNE01.JPG,AFNE01.JPG,AFNE01.JPG,AFNE01.JPG,AFNE01.JPG,AFNE01.JPG,,,,,,,,,,,,,4,5,45,5,,,,,,,,,,,AMNE07.jpg,AMSA14.jpg,AMSA08.jpg,AMNE09.jpg,AMSA08.jpg,MS,2,num_2,32,num_4,0.766819723416,,,2017_Jul_05_1246,60.0021939316,FEMA4ImagesEEG,001,200818,
AFNE01.JPG,AFNE01.JPG,AFNE01.JPG,AFNE01.JPG,AFNE01.JPG,AFNE01.JPG,,,,,,,,,,,,,4,6,46,7,,,,,,,,,,,AMSA07.jpg,AMNE06.jpg,AMSA14.jpg,AMNE19.jpg,AMSA07.jpg,MS,2,num_8,16,num_8,0.699825646123,,,2017_Jul_05_1246,60.0021939316,FEMA4ImagesEEG,001,200818,
AFNE01.JPG,AFNE01.JPG,AFNE01.JPG,AFNE01.JPG,AFNE01.JPG,AFNE01.JPG,,,,,,,,,,,,,4,7,47,1,,,,,,,,,,,AMSA08.jpg,AMNE17.jpg,AMNE02.jpg,AMSA05.jpg,AMNE02.jpg,MN,1,num_2,32,num_6,0.800166335423,,,2017_Jul_05_1246,60.0021939316,FEMA4ImagesEEG,001,200818,
AFNE01.JPG,AFNE01.JPG,AFNE01.JPG,AFNE01.JPG,AFNE01.JPG,AFNE01.JPG,,,,,,,,,,,,,4,8,48,3,,,,,,,,,,,AMNE15.jpg,AMSA04.jpg,AMNE08.jpg,AMSA18.jpg,AMSA04.jpg,MS,2,num_6,32,num_4,0.666755190701,,,2017_Jul_05_1246,60.0021939316,FEMA4ImagesEEG,001,200818,
AFNE01.JPG,AFNE01.JPG,AFNE01.JPG,AFNE01.JPG,AFNE01.JPG,AFNE01.JPG,,,,,,,,,,,,,4,9,49,8,,,,,,,,,,,AMNE06.jpg,AMSA12.jpg,AMNE03.jpg,AMSA11.jpg,AMSA12.jpg,MS,2,num_6,16,num_6,0.566812538891,,,2017_Jul_05_1246,60.0021939316,FEMA4ImagesEEG,001,200818,
AFNE01.JPG,AFNE01.JPG,AFNE01.JPG,AFNE01.JPG,AFNE01.JPG,AFNE01.JPG,,,,,,,,,,,,,5,0,50,8,,,,,,,,,,,AMNE11.jpg,AMNE13.jpg,AMSA01.jpg,AMSA05.jpg,AMSA01.jpg,MS,2,num_2,16,num_2,1.06671214744,,,2017_Jul_05_1246,60.0021939316,FEMA4ImagesEEG,001,200818,
AFNE01.JPG,AFNE01.JPG,AFNE01.JPG,AFNE01.JPG,AFNE01.JPG,AFNE01.JPG,,,,,,,,,,,,,5,1,51,1,,,,,,,,,,,AMSA03.jpg,AMNE01.jpg,AMSA07.jpg,AMNE15.jpg,AMSA07.jpg,MS,2,num_2,16,num_2,1.58348744852,,,2017_Jul_05_1246,60.0021939316,FEMA4ImagesEEG,001,200818,
AFNE01.JPG,AFNE01.JPG,AFNE01.JPG,AFNE01.JPG,AFNE01.JPG,AFNE01.JPG,,,,,,,,,,,,,5,2,52,4,,,,,,,,,,,AMSA13.jpg,AMNE15.jpg,AMSA15.jpg,AMNE06.jpg,AMNE15.jpg,MN,1,num_6,16,num_6,0.633450916386,,,2017_Jul_05_1246,60.0021939316,FEMA4ImagesEEG,001,200818,
AFNE01.JPG,AFNE01.JPG,AFNE01.JPG,AFNE01.JPG,AFNE01.JPG,AFNE01.JPG,,,,,,,,,,,,,5,3,53,6,,,,,,,,,,,AMSA16.jpg,AMNE19.jpg,AMSA01.jpg,AMNE11.jpg,AMNE11.jpg,MN,1,num_4,16,num_4,0.700128744706,,,2017_Jul_05_1246,60.0021939316,FEMA4ImagesEEG,001,200818,
AFNE01.JPG,AFNE01.JPG,AFNE01.JPG,AFNE01.JPG,AFNE01.JPG,AFNE01.JPG,,,,,,,,,,,,,5,4,54,7,,,,,,,,,,,AMNE01.jpg,AMNE16.jpg,AMSA20.jpg,AMSA10.jpg,AMNE01.jpg,MN,1,num_8,16,num_8,0.983419066877,,,2017_Jul_05_1246,60.0021939316,FEMA4ImagesEEG,001,200818,
AFNE01.JPG,AFNE01.JPG,AFNE01.JPG,AFNE01.JPG,AFNE01.JPG,AFNE01.JPG,,,,,,,,,,,,,5,5,55,3,,,,,,,,,,,AMNE15.jpg,AMSA16.jpg,AMSA14.jpg,AMNE06.jpg,AMSA16.jpg,MS,2,num_6,16,num_6,0.766763914842,,,2017_Jul_05_1246,60.0021939316,FEMA4ImagesEEG,001,200818,
AFNE01.JPG,AFNE01.JPG,AFNE01.JPG,AFNE01.JPG,AFNE01.JPG,AFNE01.JPG,,,,,,,,,,,,,5,6,56,9,,,,,,,,,,,AMSA07.jpg,AMSA11.jpg,AMNE13.jpg,AMNE02.jpg,AMSA07.jpg,MS,2,num_8,16,num_8,0.783310208004,,,2017_Jul_05_1246,60.0021939316,FEMA4ImagesEEG,001,200818,
AFNE01.JPG,AFNE01.JPG,AFNE01.JPG,AFNE01.JPG,AFNE01.JPG,AFNE01.JPG,,,,,,,,,,,,,5,7,57,2,,,,,,,,,,,AMSA19.jpg,AMNE16.jpg,AMNE20.jpg,AMSA09.jpg,AMSA09.jpg,MS,2,num_4,16,num_4,0.533515962306,,,2017_Jul_05_1246,60.0021939316,FEMA4ImagesEEG,001,200818,
AFNE01.JPG,AFNE01.JPG,AFNE01.JPG,AFNE01.JPG,AFNE01.JPG,AFNE01.JPG,,,,,,,,,,,,,5,8,58,5,,,,,,,,,,,AMNE09.jpg,AMSA11.jpg,AMSA15.jpg,AMNE19.jpg,AMNE19.jpg,MN,1,num_4,32,num_6,0.750142568606,,,2017_Jul_05_1246,60.0021939316,FEMA4ImagesEEG,001,200818,
AFNE01.JPG,AFNE01.JPG,AFNE01.JPG,AFNE01.JPG,AFNE01.JPG,AFNE01.JPG,,,,,,,,,,,,,5,9,59,0,,,,,,,,,,,AMSA11.jpg,AMNE12.jpg,AMSA20.jpg,AMNE16.jpg,AMSA11.jpg,MS,2,num_8,32,num_4,0.750178812188,,,2017_Jul_05_1246,60.0021939316,FEMA4ImagesEEG,001,200818,
,,,,,,,,,,,,,,,,,,,,,,,,,,,,,,,,,,,,,,,,,,,space,40.3805451797,2017_Jul_05_1246,60.0021939316,FEMA4ImagesEEG,001,200818,
AFNE01.JPG,AFNE01.JPG,AFNE01.JPG,AFNE01.JPG,AFNE01.JPG,AFNE01.JPG,,,,,,,,,,,,,,,,,0,0,0,5,,,,,,,AFNE03.jpg,AFSA05.jpg,AFSA15.jpg,AFNE04.jpg,AFSA15.jpg,FS,4,num_2,16,num_2,0.733486582525,,,2017_Jul_05_1246,60.0021939316,FEMA4ImagesEEG,001,200818,
AFNE01.JPG,AFNE01.JPG,AFNE01.JPG,AFNE01.JPG,AFNE01.JPG,AFNE01.JPG,,,,,,,,,,,,,,,,,0,1,1,2,,,,,,,AFSA01.jpg,AFNE05.jpg,AFNE14.jpg,AFSA03.jpg,AFNE05.jpg,FN,3,num_6,32,num_4,0.600143113756,,,2017_Jul_05_1246,60.0021939316,FEMA4ImagesEEG,001,200818,
AFNE01.JPG,AFNE01.JPG,AFNE01.JPG,AFNE01.JPG,AFNE01.JPG,AFNE01.JPG,,,,,,,,,,,,,,,,,0,2,2,8,,,,,,,AFSA11.jpg,AFSA17.jpg,AFNE20.jpg,AFNE04.jpg,AFNE04.jpg,FN,3,num_4,16,num_4,1.20031701855,,,2017_Jul_05_1246,60.0021939316,FEMA4ImagesEEG,001,200818,
AFNE01.JPG,AFNE01.JPG,AFNE01.JPG,AFNE01.JPG,AFNE01.JPG,AFNE01.JPG,,,,,,,,,,,,,,,,,0,3,3,9,,,,,,,AFNE10.jpg,AFSA19.jpg,AFNE04.jpg,AFSA04.jpg,AFNE04.jpg,FN,3,num_2,32,num_8,0.816827773931,,,2017_Jul_05_1246,60.0021939316,FEMA4ImagesEEG,001,200818,
AFNE01.JPG,AFNE01.JPG,AFNE01.JPG,AFNE01.JPG,AFNE01.JPG,AFNE01.JPG,,,,,,,,,,,,,,,,,0,4,4,7,,,,,,,AFNE06.jpg,AFSA11.jpg,AFNE05.jpg,AFSA20.jpg,AFNE06.jpg,FN,3,num_8,32,num_4,0.76679855457,,,2017_Jul_05_1246,60.0021939316,FEMA4ImagesEEG,001,200818,
AFNE01.JPG,AFNE01.JPG,AFNE01.JPG,AFNE01.JPG,AFNE01.JPG,AFNE01.JPG,,,,,,,,,,,,,,,,,0,5,5,0,,,,,,,AFSA01.jpg,AFNE12.jpg,AFNE11.jpg,AFSA03.jpg,AFNE11.jpg,FN,3,num_2,32,num_4,0.750264449511,,,2017_Jul_05_1246,60.0021939316,FEMA4ImagesEEG,001,200818,
AFNE01.JPG,AFNE01.JPG,AFNE01.JPG,AFNE01.JPG,AFNE01.JPG,AFNE01.JPG,,,,,,,,,,,,,,,,,0,6,6,6,,,,,,,AFSA01.jpg,AFNE13.jpg,AFSA11.jpg,AFNE16.jpg,AFNE16.jpg,FN,3,num_4,16,num_4,0.616751630441,,,2017_Jul_05_1246,60.0021939316,FEMA4ImagesEEG,001,200818,
AFNE01.JPG,AFNE01.JPG,AFNE01.JPG,AFNE01.JPG,AFNE01.JPG,AFNE01.JPG,,,,,,,,,,,,,,,,,0,7,7,3,,,,,,,AFSA12.jpg,AFSA08.jpg,AFNE08.jpg,AFNE10.jpg,AFSA12.jpg,FS,4,num_8,16,num_8,0.600076079369,,,2017_Jul_05_1246,60.0021939316,FEMA4ImagesEEG,001,200818,
AFNE01.JPG,AFNE01.JPG,AFNE01.JPG,AFNE01.JPG,AFNE01.JPG,AFNE01.JPG,,,,,,,,,,,,,,,,,0,8,8,4,,,,,,,AFSA12.jpg,AFNE16.jpg,AFSA02.jpg,AFNE19.jpg,AFSA02.jpg,FS,4,num_2,16,num_2,0.983454027446,,,2017_Jul_05_1246,60.0021939316,FEMA4ImagesEEG,001,200818,
AFNE01.JPG,AFNE01.JPG,AFNE01.JPG,AFNE01.JPG,AFNE01.JPG,AFNE01.JPG,,,,,,,,,,,,,,,,,0,9,9,1,,,,,,,AFNE08.jpg,AFNE01.jpg,AFSA14.jpg,AFSA16.jpg,AFNE01.jpg,FN,3,num_6,32,num_8,0.566787841963,,,2017_Jul_05_1246,60.0021939316,FEMA4ImagesEEG,001,200818,
AFNE01.JPG,AFNE01.JPG,AFNE01.JPG,AFNE01.JPG,AFNE01.JPG,AFNE01.JPG,,,,,,,,,,,,,,,,,1,0,10,3,,,,,,,AFSA08.jpg,AFSA20.jpg,AFNE03.jpg,AFNE08.jpg,AFSA20.jpg,FS,4,num_6,16,num_6,0.55013249733,,,2017_Jul_05_1246,60.0021939316,FEMA4ImagesEEG,001,200818,
AFNE01.JPG,AFNE01.JPG,AFNE01.JPG,AFNE01.JPG,AFNE01.JPG,AFNE01.JPG,,,,,,,,,,,,,,,,,1,1,11,7,,,,,,,AFNE05.jpg,AFSA13.jpg,AFNE09.jpg,AFSA01.jpg,AFNE09.jpg,FN,3,num_2,16,num_2,0.900120213046,,,2017_Jul_05_1246,60.0021939316,FEMA4ImagesEEG,001,200818,
AFNE01.JPG,AFNE01.JPG,AFNE01.JPG,AFNE01.JPG,AFNE01.JPG,AFNE01.JPG,,,,,,,,,,,,,,,,,1,2,12,2,,,,,,,AFSA13.jpg,AFNE02.jpg,AFSA19.jpg,AFNE20.jpg,AFSA19.jpg,FS,4,num_2,32,num_6,0.633475613315,,,2017_Jul_05_1246,60.0021939316,FEMA4ImagesEEG,001,200818,
AFNE01.JPG,AFNE01.JPG,AFNE01.JPG,AFNE01.JPG,AFNE01.JPG,AFNE01.JPG,,,,,,,,,,,,,,,,,1,3,13,0,,,,,,,AFNE12.jpg,AFNE09.jpg,AFSA03.jpg,AFSA07.jpg,AFNE09.jpg,FN,3,num_6,16,num_6,0.6167840251,,,2017_Jul_05_1246,60.0021939316,FEMA4ImagesEEG,001,200818,
AFNE01.JPG,AFNE01.JPG,AFNE01.JPG,AFNE01.JPG,AFNE01.JPG,AFNE01.JPG,,,,,,,,,,,,,,,,,1,4,14,8,,,,,,,AFSA03.jpg,AFSA18.jpg,AFNE08.jpg,AFNE01.jpg,AFNE01.jpg,FN,3,num_4,16,num_4,0.616598958615,,,2017_Jul_05_1246,60.0021939316,FEMA4ImagesEEG,001,200818,
AFNE01.JPG,AFNE01.JPG,AFNE01.JPG,AFNE01.JPG,AFNE01.JPG,AFNE01.JPG,,,,,,,,,,,,,,,,,1,5,15,1,,,,,,,AFSA10.jpg,AFNE20.jpg,AFNE18.jpg,AFSA06.jpg,AFNE20.jpg,FN,3,num_6,16,num_6,0.750108890934,,,2017_Jul_05_1246,60.0021939316,FEMA4ImagesEEG,001,200818,
AFNE01.JPG,AFNE01.JPG,AFNE01.JPG,AFNE01.JPG,AFNE01.JPG,AFNE01.JPG,,,,,,,,,,,,,,,,,1,6,16,5,,,,,,,AFNE18.jpg,AFSA13.jpg,AFSA06.jpg,AFNE10.jpg,AFNE10.jpg,FN,3,num_4,16,num_4,0.883455567062,,,2017_Jul_05_1246,60.0021939316,FEMA4ImagesEEG,001,200818,
AFNE01.JPG,AFNE01.JPG,AFNE01.JPG,AFNE01.JPG,AFNE01.JPG,AFNE01.JPG,,,,,,,,,,,,,,,,,1,7,17,6,,,,,,,AFSA08.jpg,AFNE12.jpg,AFNE11.jpg,AFSA20.jpg,AFSA08.jpg,FS,4,num_8,32,num_4,0.733474073699,,,2017_Jul_05_1246,60.0021939316,FEMA4ImagesEEG,001,200818,
AFNE01.JPG,AFNE01.JPG,AFNE01.JPG,AFNE01.JPG,AFNE01.JPG,AFNE01.JPG,,,,,,,,,,,,,,,,,1,8,18,4,,,,,,,AFSA07.jpg,AFNE15.jpg,AFNE14.jpg,AFSA11.jpg,AFSA11.jpg,FS,4,num_4,16,num_4,0.566674941685,,,2017_Jul_05_1246,60.0021939316,FEMA4ImagesEEG,001,200818,
AFNE01.JPG,AFNE01.JPG,AFNE01.JPG,AFNE01.JPG,AFNE01.JPG,AFNE01.JPG,,,,,,,,,,,,,,,,,1,9,19,9,,,,,,,AFSA17.jpg,AFNE14.jpg,AFNE03.jpg,AFSA01.jpg,AFSA17.jpg,FS,4,num_8,32,num_4,0.633460859186,,,2017_Jul_05_1246,60.0021939316,FEMA4ImagesEEG,001,200818,
AFNE01.JPG,AFNE01.JPG,AFNE01.JPG,AFNE01.JPG,AFNE01.JPG,AFNE01.JPG,,,,,,,,,,,,,,,,,2,0,20,8,,,,,,,AFNE06.jpg,AFSA06.jpg,AFNE15.jpg,AFSA12.jpg,AFSA12.jpg,FS,4,num_4,16,num_4,0.583464996773,,,2017_Jul_05_1246,60.0021939316,FEMA4ImagesEEG,001,200818,
AFNE01.JPG,AFNE01.JPG,AFNE01.JPG,AFNE01.JPG,AFNE01.JPG,AFNE01.JPG,,,,,,,,,,,,,,,,,2,1,21,7,,,,,,,AFNE14.jpg,AFSA02.jpg,AFSA06.jpg,AFNE17.jpg,AFNE14.jpg,FN,3,num_8,32,num_6,0.666767058079,,,2017_Jul_05_1246,60.0021939316,FEMA4ImagesEEG,001,200818,
AFNE01.JPG,AFNE01.JPG,AFNE01.JPG,AFNE01.JPG,AFNE01.JPG,AFNE01.JPG,,,,,,,,,,,,,,,,,2,2,22,0,,,,,,,AFSA16.jpg,AFNE07.jpg,AFSA01.jpg,AFNE09.jpg,AFSA01.jpg,FS,4,num_2,32,num_4,0.799945987412,,,2017_Jul_05_1246,60.0021939316,FEMA4ImagesEEG,001,200818,
AFNE01.JPG,AFNE01.JPG,AFNE01.JPG,AFNE01.JPG,AFNE01.JPG,AFNE01.JPG,,,,,,,,,,,,,,,,,2,3,23,2,,,,,,,AFNE14.jpg,AFSA06.jpg,AFSA04.jpg,AFNE09.jpg,AFSA04.jpg,FS,4,num_2,32,num_6,0.683438118896,,,2017_Jul_05_1246,60.0021939316,FEMA4ImagesEEG,001,200818,
AFNE01.JPG,AFNE01.JPG,AFNE01.JPG,AFNE01.JPG,AFNE01.JPG,AFNE01.JPG,,,,,,,,,,,,,,,,,2,4,24,5,,,,,,,AFNE06.jpg,AFSA18.jpg,AFSA20.jpg,AFNE03.jpg,AFNE06.jpg,FN,3,num_8,32,num_4,1.21676292049,,,2017_Jul_05_1246,60.0021939316,FEMA4ImagesEEG,001,200818,
AFNE01.JPG,AFNE01.JPG,AFNE01.JPG,AFNE01.JPG,AFNE01.JPG,AFNE01.JPG,,,,,,,,,,,,,,,,,2,5,25,1,,,,,,,AFNE10.jpg,AFSA03.jpg,AFSA12.jpg,AFNE17.jpg,AFSA03.jpg,FS,4,num_6,16,num_6,0.833606923814,,,2017_Jul_05_1246,60.0021939316,FEMA4ImagesEEG,001,200818,
AFNE01.JPG,AFNE01.JPG,AFNE01.JPG,AFNE01.JPG,AFNE01.JPG,AFNE01.JPG,,,,,,,,,,,,,,,,,2,6,26,6,,,,,,,AFNE15.jpg,AFSA20.jpg,AFSA05.jpg,AFNE09.jpg,AFNE09.jpg,FN,3,num_4,16,num_4,0.916749898577,,,2017_Jul_05_1246,60.0021939316,FEMA4ImagesEEG,001,200818,
AFNE01.JPG,AFNE01.JPG,AFNE01.JPG,AFNE01.JPG,AFNE01.JPG,AFNE01.JPG,,,,,,,,,,,,,,,,,2,7,27,4,,,,,,,AFNE05.jpg,AFNE12.jpg,AFSA03.jpg,AFSA11.jpg,AFSA03.jpg,FS,4,num_2,16,num_2,1.05009465013,,,2017_Jul_05_1246,60.0021939316,FEMA4ImagesEEG,001,200818,
AFNE01.JPG,AFNE01.JPG,AFNE01.JPG,AFNE01.JPG,AFNE01.JPG,AFNE01.JPG,,,,,,,,,,,,,,,,,2,8,28,3,,,,,,,AFNE11.jpg,AFSA07.jpg,AFSA10.jpg,AFNE14.jpg,AFNE14.jpg,FN,3,num_4,32,num_6,0.550208833301,,,2017_Jul_05_1246,60.0021939316,FEMA4ImagesEEG,001,200818,
AFNE01.JPG,AFNE01.JPG,AFNE01.JPG,AFNE01.JPG,AFNE01.JPG,AFNE01.JPG,,,,,,,,,,,,,,,,,2,9,29,9,,,,,,,AFSA10.jpg,AFNE04.jpg,AFSA12.jpg,AFNE11.jpg,AFSA10.jpg,FS,4,num_8,32,num_6,0.716740148026,,,2017_Jul_05_1246,60.0021939316,FEMA4ImagesEEG,001,200818,
AFNE01.JPG,AFNE01.JPG,AFNE01.JPG,AFNE01.JPG,AFNE01.JPG,AFNE01.JPG,,,,,,,,,,,,,,,,,3,0,30,2,,,,,,,AFSA19.jpg,AFSA06.jpg,AFNE08.jpg,AFNE05.jpg,AFSA19.jpg,FS,4,num_8,16,num_8,1.10007255117,,,2017_Jul_05_1246,60.0021939316,FEMA4ImagesEEG,001,200818,
AFNE01.JPG,AFNE01.JPG,AFNE01.JPG,AFNE01.JPG,AFNE01.JPG,AFNE01.JPG,,,,,,,,,,,,,,,,,3,1,31,7,,,,,,,AFSA13.jpg,AFNE02.jpg,AFNE12.jpg,AFSA20.jpg,AFNE12.jpg,FN,3,num_2,16,num_2,0.736992582562,,,2017_Jul_05_1246,60.0021939316,FEMA4ImagesEEG,001,200818,
AFNE01.JPG,AFNE01.JPG,AFNE01.JPG,AFNE01.JPG,AFNE01.JPG,AFNE01.JPG,,,,,,,,,,,,,,,,,3,2,32,0,,,,,,,AFSA16.jpg,AFNE17.jpg,AFSA09.jpg,AFNE14.jpg,AFSA16.jpg,FS,4,num_8,32,num_6,0.866776808514,,,2017_Jul_05_1246,60.0021939316,FEMA4ImagesEEG,001,200818,
AFNE01.JPG,AFNE01.JPG,AFNE01.JPG,AFNE01.JPG,AFNE01.JPG,AFNE01.JPG,,,,,,,,,,,,,,,,,3,3,33,5,,,,,,,AFSA18.jpg,AFSA13.jpg,AFNE09.jpg,AFNE17.jpg,AFNE17.jpg,FN,3,num_4,16,num_4,0.650148277753,,,2017_Jul_05_1246,60.0021939316,FEMA4ImagesEEG,001,200818,
AFNE01.JPG,AFNE01.JPG,AFNE01.JPG,AFNE01.JPG,AFNE01.JPG,AFNE01.JPG,,,,,,,,,,,,,,,,,3,4,34,9,,,,,,,AFNE08.jpg,AFNE07.jpg,AFSA09.jpg,AFSA10.jpg,AFNE08.jpg,FN,3,num_8,32,num_6,0.400000256603,,,2017_Jul_05_1246,60.0021939316,FEMA4ImagesEEG,001,200818,
AFNE01.JPG,AFNE01.JPG,AFNE01.JPG,AFNE01.JPG,AFNE01.JPG,AFNE01.JPG,,,,,,,,,,,,,,,,,3,5,35,8,,,,,,,AFSA04.jpg,AFNE13.jpg,AFNE12.jpg,AFSA09.jpg,AFSA09.jpg,FS,4,num_4,16,num_4,0.900126948603,,,2017_Jul_05_1246,60.0021939316,FEMA4ImagesEEG,001,200818,
AFNE01.JPG,AFNE01.JPG,AFNE01.JPG,AFNE01.JPG,AFNE01.JPG,AFNE01.JPG,,,,,,,,,,,,,,,,,3,6,36,1,,,,,,,AFNE19.jpg,AFSA10.jpg,AFSA09.jpg,AFNE02.jpg,AFNE02.jpg,FN,3,num_4,32,num_8,0.60013092577,,,2017_Jul_05_1246,60.0021939316,FEMA4ImagesEEG,001,200818,
AFNE01.JPG,AFNE01.JPG,AFNE01.JPG,AFNE01.JPG,AFNE01.JPG,AFNE01.JPG,,,,,,,,,,,,,,,,,3,7,37,6,,,,,,,AFNE04.jpg,AFSA20.jpg,AFSA14.jpg,AFNE15.jpg,AFNE04.jpg,FN,3,num_8,16,num_8,0.63346983993,,,2017_Jul_05_1246,60.0021939316,FEMA4ImagesEEG,001,200818,
AFNE01.JPG,AFNE01.JPG,AFNE01.JPG,AFNE01.JPG,AFNE01.JPG,AFNE01.JPG,,,,,,,,,,,,,,,,,3,8,38,3,,,,,,,AFNE08.jpg,AFSA05.jpg,AFNE11.jpg,AFSA19.jpg,AFSA05.jpg,FS,4,num_6,16,num_6,1.00022676261,,,2017_Jul_05_1246,60.0021939316,FEMA4ImagesEEG,001,200818,
AFNE01.JPG,AFNE01.JPG,AFNE01.JPG,AFNE01.JPG,AFNE01.JPG,AFNE01.JPG,,,,,,,,,,,,,,,,,3,9,39,4,,,,,,,AFNE14.jpg,AFSA17.jpg,AFSA05.jpg,AFNE17.jpg,AFNE17.jpg,FN,3,num_4,32,num_6,0.766735689715,,,2017_Jul_05_1246,60.0021939316,FEMA4ImagesEEG,001,200818,
AFNE01.JPG,AFNE01.JPG,AFNE01.JPG,AFNE01.JPG,AFNE01.JPG,AFNE01.JPG,,,,,,,,,,,,,,,,,4,0,40,7,,,,,,,AFSA17.jpg,AFSA06.jpg,AFNE05.jpg,AFNE08.jpg,AFNE05.jpg,FN,3,num_2,32,num_6,0.600144396769,,,2017_Jul_05_1246,60.0021939316,FEMA4ImagesEEG,001,200818,
AFNE01.JPG,AFNE01.JPG,AFNE01.JPG,AFNE01.JPG,AFNE01.JPG,AFNE01.JPG,,,,,,,,,,,,,,,,,4,1,41,1,,,,,,,AFSA05.jpg,AFNE16.jpg,AFSA04.jpg,AFNE04.jpg,AFNE16.jpg,FN,3,num_6,32,num_8,1.21676131675,,,2017_Jul_05_1246,60.0021939316,FEMA4ImagesEEG,001,200818,
AFNE01.JPG,AFNE01.JPG,AFNE01.JPG,AFNE01.JPG,AFNE01.JPG,AFNE01.JPG,,,,,,,,,,,,,,,,,4,2,42,3,,,,,,,AFSA02.jpg,AFNE09.jpg,AFSA15.jpg,AFNE05.jpg,AFSA15.jpg,FS,4,num_2,16,num_2,0.450110943755,,,2017_Jul_05_1246,60.0021939316,FEMA4ImagesEEG,001,200818,
AFNE01.JPG,AFNE01.JPG,AFNE01.JPG,AFNE01.JPG,AFNE01.JPG,AFNE01.JPG,,,,,,,,,,,,,,,,,4,3,43,9,,,,,,,AFNE04.jpg,AFNE13.jpg,AFSA05.jpg,AFSA10.jpg,AFSA05.jpg,FS,4,num_2,16,num_2,1.85002139339,,,2017_Jul_05_1246,60.0021939316,FEMA4ImagesEEG,001,200818,
AFNE01.JPG,AFNE01.JPG,AFNE01.JPG,AFNE01.JPG,AFNE01.JPG,AFNE01.JPG,,,,,,,,,,,,,,,,,4,4,44,2,,,,,,,AFNE15.jpg,AFSA03.jpg,AFNE11.jpg,AFSA14.jpg,AFSA03.jpg,FS,4,num_6,16,num_6,0.816779663088,,,2017_Jul_05_1246,60.0021939316,FEMA4ImagesEEG,001,200818,
AFNE01.JPG,AFNE01.JPG,AFNE01.JPG,AFNE01.JPG,AFNE01.JPG,AFNE01.JPG,,,,,,,,,,,,,,,,,4,5,45,4,,,,,,,AFNE03.jpg,AFSA06.jpg,AFNE15.jpg,AFSA17.jpg,AFNE15.jpg,FN,3,num_2,16,num_2,0.500284174923,,,2017_Jul_05_1246,60.0021939316,FEMA4ImagesEEG,001,200818,
AFNE01.JPG,AFNE01.JPG,AFNE01.JPG,AFNE01.JPG,AFNE01.JPG,AFNE01.JPG,,,,,,,,,,,,,,,,,4,6,46,6,,,,,,,AFNE04.jpg,AFSA02.jpg,AFSA06.jpg,AFNE10.jpg,AFSA02.jpg,FS,4,num_6,32,num_4,0.700097312219,,,2017_Jul_05_1246,60.0021939316,FEMA4ImagesEEG,001,200818,
AFNE01.JPG,AFNE01.JPG,AFNE01.JPG,AFNE01.JPG,AFNE01.JPG,AFNE01.JPG,,,,,,,,,,,,,,,,,4,7,47,0,,,,,,,AFNE14.jpg,AFSA05.jpg,AFSA07.jpg,AFNE02.jpg,AFNE02.jpg,FN,3,num_4,32,num_8,0.766797913122,,,2017_Jul_05_1246,60.0021939316,FEMA4ImagesEEG,001,200818,
AFNE01.JPG,AFNE01.JPG,AFNE01.JPG,AFNE01.JPG,AFNE01.JPG,AFNE01.JPG,,,,,,,,,,,,,,,,,4,8,48,8,,,,,,,AFNE01.jpg,AFSA07.jpg,AFNE07.jpg,AFSA15.jpg,AFSA15.jpg,FS,4,num_4,16,num_4,0.850132689811,,,2017_Jul_05_1246,60.0021939316,FEMA4ImagesEEG,001,200818,
AFNE01.JPG,AFNE01.JPG,AFNE01.JPG,AFNE01.JPG,AFNE01.JPG,AFNE01.JPG,,,,,,,,,,,,,,,,,4,9,49,5,,,,,,,AFNE09.jpg,AFSA14.jpg,AFSA04.jpg,AFNE06.jpg,AFSA04.jpg,FS,4,num_2,16,num_2,0.866807278828,,,2017_Jul_05_1246,60.0021939316,FEMA4ImagesEEG,001,200818,
AFNE01.JPG,AFNE01.JPG,AFNE01.JPG,AFNE01.JPG,AFNE01.JPG,AFNE01.JPG,,,,,,,,,,,,,,,,,5,0,50,8,,,,,,,AFNE10.jpg,AFSA11.jpg,AFNE20.jpg,AFSA20.jpg,AFSA11.jpg,FS,4,num_6,16,num_6,0.416779085761,,,2017_Jul_05_1246,60.0021939316,FEMA4ImagesEEG,001,200818,
AFNE01.JPG,AFNE01.JPG,AFNE01.JPG,AFNE01.JPG,AFNE01.JPG,AFNE01.JPG,,,,,,,,,,,,,,,,,5,1,51,6,,,,,,,AFNE05.jpg,AFSA13.jpg,AFSA11.jpg,AFNE16.jpg,AFNE05.jpg,FN,3,num_8,16,num_8,0.716769976774,,,2017_Jul_05_1246,60.0021939316,FEMA4ImagesEEG,001,200818,
AFNE01.JPG,AFNE01.JPG,AFNE01.JPG,AFNE01.JPG,AFNE01.JPG,AFNE01.JPG,,,,,,,,,,,,,,,,,5,2,52,2,,,,,,,AFNE05.jpg,AFSA10.jpg,AFSA04.jpg,AFNE19.jpg,AFSA04.jpg,FS,4,num_2,16,num_2,0.933532897267,,,2017_Jul_05_1246,60.0021939316,FEMA4ImagesEEG,001,200818,
AFNE01.JPG,AFNE01.JPG,AFNE01.JPG,AFNE01.JPG,AFNE01.JPG,AFNE01.JPG,,,,,,,,,,,,,,,,,5,3,53,7,,,,,,,AFSA11.jpg,AFSA01.jpg,AFNE11.jpg,AFNE06.jpg,AFSA11.jpg,FS,4,num_8,16,num_8,0.633452520007,,,2017_Jul_05_1246,60.0021939316,FEMA4ImagesEEG,001,200818,
AFNE01.JPG,AFNE01.JPG,AFNE01.JPG,AFNE01.JPG,AFNE01.JPG,AFNE01.JPG,,,,,,,,,,,,,,,,,5,4,54,4,,,,,,,AFSA14.jpg,AFNE14.jpg,AFNE09.jpg,AFSA08.jpg,AFSA08.jpg,FS,4,num_4,32,num_6,0.733459319687,,,2017_Jul_05_1246,60.0021939316,FEMA4ImagesEEG,001,200818,
AFNE01.JPG,AFNE01.JPG,AFNE01.JPG,AFNE01.JPG,AFNE01.JPG,AFNE01.JPG,,,,,,,,,,,,,,,,,5,5,55,3,,,,,,,AFSA01.jpg,AFNE05.jpg,AFSA18.jpg,AFNE03.jpg,AFNE03.jpg,FN,3,num_4,16,num_4,0.633441935526,,,2017_Jul_05_1246,60.0021939316,FEMA4ImagesEEG,001,200818,
AFNE01.JPG,AFNE01.JPG,AFNE01.JPG,AFNE01.JPG,AFNE01.JPG,AFNE01.JPG,,,,,,,,,,,,,,,,,5,6,56,9,,,,,,,AFNE17.jpg,AFNE18.jpg,AFSA10.jpg,AFSA16.jpg,AFSA16.jpg,FS,4,num_4,16,num_4,0.633509611594,,,2017_Jul_05_1246,60.0021939316,FEMA4ImagesEEG,001,200818,
AFNE01.JPG,AFNE01.JPG,AFNE01.JPG,AFNE01.JPG,AFNE01.JPG,AFNE01.JPG,,,,,,,,,,,,,,,,,5,7,57,1,,,,,,,AFNE15.jpg,AFSA05.jpg,AFSA13.jpg,AFNE05.jpg,AFNE15.jpg,FN,3,num_8,32,num_4,0.816759135807,,,2017_Jul_05_1246,60.0021939316,FEMA4ImagesEEG,001,200818,
AFNE01.JPG,AFNE01.JPG,AFNE01.JPG,AFNE01.JPG,AFNE01.JPG,AFNE01.JPG,,,,,,,,,,,,,,,,,5,8,58,5,,,,,,,AFNE02.jpg,AFNE10.jpg,AFSA05.jpg,AFSA01.jpg,AFNE02.jpg,FN,3,num_8,32,num_6,0.783527669148,,,2017_Jul_05_1246,60.0021939316,FEMA4ImagesEEG,001,200818,
AFNE01.JPG,AFNE01.JPG,AFNE01.JPG,AFNE01.JPG,AFNE01.JPG,AFNE01.JPG,,,,,,,,,,,,,,,,,5,9,59,0,,,,,,,AFSA05.jpg,AFNE04.jpg,AFNE17.jpg,AFSA01.jpg,AFNE04.jpg,FN,3,num_6,16,num_6,0.783439786755,,,2017_Jul_05_1246,60.0021939316,FEMA4ImagesEEG,001,200818,
,,,,,,,,,,,,,,,,,,,,,,,,,,,,,,,,,,,,,,,,,,,space,11.9995333245,2017_Jul_05_1246,60.0021939316,FEMA4ImagesEEG,001,200818,
AFNE01.JPG,AFNE01.JPG,AFNE01.JPG,AFNE01.JPG,AFNE01.JPG,AFNE01.JPG,,,,,,,,,,,,,,,,,,,,,0,0,0,6,,,AMNE02.jpg,AMSA13.jpg,AMNE12.jpg,AMSA08.jpg,AMNE02.jpg,MN,1,num_8,32,num_4,0.700122650596,,,2017_Jul_05_1246,60.0021939316,FEMA4ImagesEEG,001,200818,
AFNE01.JPG,AFNE01.JPG,AFNE01.JPG,AFNE01.JPG,AFNE01.JPG,AFNE01.JPG,,,,,,,,,,,,,,,,,,,,,0,1,1,7,,,AMNE13.jpg,AMSA01.jpg,AMNE08.jpg,AMSA06.jpg,AMNE13.jpg,MN,1,num_8,16,num_8,0.900083007407,,,2017_Jul_05_1246,60.0021939316,FEMA4ImagesEEG,001,200818,
AFNE01.JPG,AFNE01.JPG,AFNE01.JPG,AFNE01.JPG,AFNE01.JPG,AFNE01.JPG,,,,,,,,,,,,,,,,,,,,,0,2,2,2,,,AMSA03.jpg,AMSA18.jpg,AMNE10.jpg,AMNE20.jpg,AMNE20.jpg,MN,1,num_4,16,num_4,0.66678758536,,,2017_Jul_05_1246,60.0021939316,FEMA4ImagesEEG,001,200818,
AFNE01.JPG,AFNE01.JPG,AFNE01.JPG,AFNE01.JPG,AFNE01.JPG,AFNE01.JPG,,,,,,,,,,,,,,,,,,,,,0,3,3,8,,,AMNE05.jpg,AMSA02.jpg,AMNE20.jpg,AMSA19.jpg,AMNE20.jpg,MN,1,num_2,32,num_8,0.750108249485,,,2017_Jul_05_1246,60.0021939316,FEMA4ImagesEEG,001,200818,
AFNE01.JPG,AFNE01.JPG,AFNE01.JPG,AFNE01.JPG,AFNE01.JPG,AFNE01.JPG,,,,,,,,,,,,,,,,,,,,,0,4,4,9,,,AMSA17.jpg,AMNE04.jpg,AMNE17.jpg,AMSA03.jpg,AMSA17.jpg,MS,2,num_8,32,num_6,0.716750411666,,,2017_Jul_05_1246,60.0021939316,FEMA4ImagesEEG,001,200818,
AFNE01.JPG,AFNE01.JPG,AFNE01.JPG,AFNE01.JPG,AFNE01.JPG,AFNE01.JPG,,,,,,,,,,,,,,,,,,,,,0,5,5,5,,,AMSA17.jpg,AMSA14.jpg,AMNE09.jpg,AMNE01.jpg,AMNE01.jpg,MN,1,num_4,32,num_6,0.650129995658,,,2017_Jul_05_1246,60.0021939316,FEMA4ImagesEEG,001,200818,
AFNE01.JPG,AFNE01.JPG,AFNE01.JPG,AFNE01.JPG,AFNE01.JPG,AFNE01.JPG,,,,,,,,,,,,,,,,,,,,,0,6,6,4,,,AMNE18.jpg,AMNE03.jpg,AMSA08.jpg,AMSA19.jpg,AMSA19.jpg,MS,2,num_4,16,num_4,0.600147604244,,,2017_Jul_05_1246,60.0021939316,FEMA4ImagesEEG,001,200818,
AFNE01.JPG,AFNE01.JPG,AFNE01.JPG,AFNE01.JPG,AFNE01.JPG,AFNE01.JPG,,,,,,,,,,,,,,,,,,,,,0,7,7,0,,,AMSA12.jpg,AMSA05.jpg,AMNE12.jpg,AMNE06.jpg,AMSA05.jpg,MS,2,num_6,32,num_8,0.516815393465,,,2017_Jul_05_1246,60.0021939316,FEMA4ImagesEEG,001,200818,
AFNE01.JPG,AFNE01.JPG,AFNE01.JPG,AFNE01.JPG,AFNE01.JPG,AFNE01.JPG,,,,,,,,,,,,,,,,,,,,,0,8,8,3,,,AMNE20.jpg,AMSA06.jpg,AMNE07.jpg,AMSA11.jpg,AMSA06.jpg,MS,2,num_6,16,num_6,0.616845927783,,,2017_Jul_05_1246,60.0021939316,FEMA4ImagesEEG,001,200818,
AFNE01.JPG,AFNE01.JPG,AFNE01.JPG,AFNE01.JPG,AFNE01.JPG,AFNE01.JPG,,,,,,,,,,,,,,,,,,,,,0,9,9,1,,,AMNE16.jpg,AMSA02.jpg,AMNE11.jpg,AMSA18.jpg,AMSA18.jpg,MS,2,num_4,16,num_4,0.699982166872,,,2017_Jul_05_1246,60.0021939316,FEMA4ImagesEEG,001,200818,
AFNE01.JPG,AFNE01.JPG,AFNE01.JPG,AFNE01.JPG,AFNE01.JPG,AFNE01.JPG,,,,,,,,,,,,,,,,,,,,,1,0,10,5,,,AMNE03.jpg,AMNE10.jpg,AMSA05.jpg,AMSA07.jpg,AMSA05.jpg,MS,2,num_2,32,num_6,0.766801120481,,,2017_Jul_05_1246,60.0021939316,FEMA4ImagesEEG,001,200818,
AFNE01.JPG,AFNE01.JPG,AFNE01.JPG,AFNE01.JPG,AFNE01.JPG,AFNE01.JPG,,,,,,,,,,,,,,,,,,,,,1,1,11,8,,,AMNE04.jpg,AMSA07.jpg,AMSA03.jpg,AMNE15.jpg,AMSA03.jpg,MS,2,num_2,16,num_2,0.666745247785,,,2017_Jul_05_1246,60.0021939316,FEMA4ImagesEEG,001,200818,
AFNE01.JPG,AFNE01.JPG,AFNE01.JPG,AFNE01.JPG,AFNE01.JPG,AFNE01.JPG,,,,,,,,,,,,,,,,,,,,,1,2,12,0,,,AMNE11.jpg,AMSA01.jpg,AMNE13.jpg,AMSA03.jpg,AMNE13.jpg,MN,1,num_2,16,num_2,0.633476575487,,,2017_Jul_05_1246,60.0021939316,FEMA4ImagesEEG,001,200818,
AFNE01.JPG,AFNE01.JPG,AFNE01.JPG,AFNE01.JPG,AFNE01.JPG,AFNE01.JPG,,,,,,,,,,,,,,,,,,,,,1,3,13,9,,,AMNE13.jpg,AMSA19.jpg,AMSA01.jpg,AMNE09.jpg,AMNE09.jpg,MN,1,num_4,16,num_4,0.800095131155,,,2017_Jul_05_1246,60.0021939316,FEMA4ImagesEEG,001,200818,
AFNE01.JPG,AFNE01.JPG,AFNE01.JPG,AFNE01.JPG,AFNE01.JPG,AFNE01.JPG,,,,,,,,,,,,,,,,,,,,,1,4,14,1,,,AMSA07.jpg,AMNE16.jpg,AMSA04.jpg,AMNE20.jpg,AMSA04.jpg,MS,2,num_2,16,num_2,0.583501561079,,,2017_Jul_05_1246,60.0021939316,FEMA4ImagesEEG,001,200818,
AFNE01.JPG,AFNE01.JPG,AFNE01.JPG,AFNE01.JPG,AFNE01.JPG,AFNE01.JPG,,,,,,,,,,,,,,,,,,,,,1,5,15,3,,,AMSA19.jpg,AMNE11.jpg,AMSA17.jpg,AMNE02.jpg,AMSA19.jpg,MS,2,num_8,32,num_6,0.816785436356,,,2017_Jul_05_1246,60.0021939316,FEMA4ImagesEEG,001,200818,
AFNE01.JPG,AFNE01.JPG,AFNE01.JPG,AFNE01.JPG,AFNE01.JPG,AFNE01.JPG,,,,,,,,,,,,,,,,,,,,,1,6,16,7,,,AMNE17.jpg,AMNE16.jpg,AMSA11.jpg,AMSA01.jpg,AMNE17.jpg,MN,1,num_8,32,num_6,0.51689205016,,,2017_Jul_05_1246,60.0021939316,FEMA4ImagesEEG,001,200818,
AFNE01.JPG,AFNE01.JPG,AFNE01.JPG,AFNE01.JPG,AFNE01.JPG,AFNE01.JPG,,,,,,,,,,,,,,,,,,,,,1,7,17,4,,,AMSA18.jpg,AMNE15.jpg,AMSA09.jpg,AMNE02.jpg,AMNE15.jpg,MN,1,num_6,16,num_6,0.700104689342,,,2017_Jul_05_1246,60.0021939316,FEMA4ImagesEEG,001,200818,
AFNE01.JPG,AFNE01.JPG,AFNE01.JPG,AFNE01.JPG,AFNE01.JPG,AFNE01.JPG,,,,,,,,,,,,,,,,,,,,,1,8,18,2,,,AMNE17.jpg,AMNE03.jpg,AMSA02.jpg,AMSA14.jpg,AMNE17.jpg,MN,1,num_8,32,num_6,0.666762888432,,,2017_Jul_05_1246,60.0021939316,FEMA4ImagesEEG,001,200818,
AFNE01.JPG,AFNE01.JPG,AFNE01.JPG,AFNE01.JPG,AFNE01.JPG,AFNE01.JPG,,,,,,,,,,,,,,,,,,,,,1,9,19,6,,,AMSA17.jpg,AMSA09.jpg,AMNE05.jpg,AMNE19.jpg,AMSA09.jpg,MS,2,num_6,32,num_4,0.650124863838,,,2017_Jul_05_1246,60.0021939316,FEMA4ImagesEEG,001,200818,
AFNE01.JPG,AFNE01.JPG,AFNE01.JPG,AFNE01.JPG,AFNE01.JPG,AFNE01.JPG,,,,,,,,,,,,,,,,,,,,,2,0,20,2,,,AMSA02.jpg,AMNE19.jpg,AMNE03.jpg,AMSA08.jpg,AMSA08.jpg,MS,2,num_4,16,num_4,0.733450339059,,,2017_Jul_05_1246,60.0021939316,FEMA4ImagesEEG,001,200818,
AFNE01.JPG,AFNE01.JPG,AFNE01.JPG,AFNE01.JPG,AFNE01.JPG,AFNE01.JPG,,,,,,,,,,,,,,,,,,,,,2,1,21,0,,,AMSA04.jpg,AMNE12.jpg,AMSA20.jpg,AMNE01.jpg,AMNE01.jpg,MN,1,num_4,16,num_4,0.683438439621,,,2017_Jul_05_1246,60.0021939316,FEMA4ImagesEEG,001,200818,
AFNE01.JPG,AFNE01.JPG,AFNE01.JPG,AFNE01.JPG,AFNE01.JPG,AFNE01.JPG,,,,,,,,,,,,,,,,,,,,,2,2,22,7,,,AMNE02.jpg,AMNE18.jpg,AMSA20.jpg,AMSA07.jpg,AMSA20.jpg,MS,2,num_2,32,num_6,0.700116235879,,,2017_Jul_05_1246,60.0021939316,FEMA4ImagesEEG,001,200818,
AFNE01.JPG,AFNE01.JPG,AFNE01.JPG,AFNE01.JPG,AFNE01.JPG,AFNE01.JPG,,,,,,,,,,,,,,,,,,,,,2,3,23,6,,,AMSA01.jpg,AMSA10.jpg,AMNE06.jpg,AMNE17.jpg,AMSA10.jpg,MS,2,num_6,32,num_4,1.28342791938,,,2017_Jul_05_1246,60.0021939316,FEMA4ImagesEEG,001,200818,
AFNE01.JPG,AFNE01.JPG,AFNE01.JPG,AFNE01.JPG,AFNE01.JPG,AFNE01.JPG,,,,,,,,,,,,,,,,,,,,,2,4,24,4,,,AMNE16.jpg,AMNE02.jpg,AMSA04.jpg,AMSA01.jpg,AMSA04.jpg,MS,2,num_2,16,num_2,0.749745814246,,,2017_Jul_05_1246,60.0021939316,FEMA4ImagesEEG,001,200818,
AFNE01.JPG,AFNE01.JPG,AFNE01.JPG,AFNE01.JPG,AFNE01.JPG,AFNE01.JPG,,,,,,,,,,,,,,,,,,,,,2,5,25,1,,,AMNE02.jpg,AMNE20.jpg,AMSA18.jpg,AMSA05.jpg,AMSA18.jpg,MS,2,num_2,16,num_2,0.583469166304,,,2017_Jul_05_1246,60.0021939316,FEMA4ImagesEEG,001,200818,
AFNE01.JPG,AFNE01.JPG,AFNE01.JPG,AFNE01.JPG,AFNE01.JPG,AFNE01.JPG,,,,,,,,,,,,,,,,,,,,,2,6,26,5,,,AMSA09.jpg,AMNE16.jpg,AMSA18.jpg,AMNE07.jpg,AMNE07.jpg,MN,1,num_4,32,num_6,0.666785981739,,,2017_Jul_05_1246,60.0021939316,FEMA4ImagesEEG,001,200818,
AFNE01.JPG,AFNE01.JPG,AFNE01.JPG,AFNE01.JPG,AFNE01.JPG,AFNE01.JPG,,,,,,,,,,,,,,,,,,,,,2,7,27,8,,,AMNE15.jpg,AMSA12.jpg,AMNE03.jpg,AMSA03.jpg,AMNE03.jpg,MN,1,num_2,32,num_4,0.700101802708,,,2017_Jul_05_1246,60.0021939316,FEMA4ImagesEEG,001,200818,
AFNE01.JPG,AFNE01.JPG,AFNE01.JPG,AFNE01.JPG,AFNE01.JPG,AFNE01.JPG,,,,,,,,,,,,,,,,,,,,,2,8,28,3,,,AMNE13.jpg,AMNE01.jpg,AMSA14.jpg,AMSA07.jpg,AMSA07.jpg,MS,2,num_4,32,num_6,0.566778540495,,,2017_Jul_05_1246,60.0021939316,FEMA4ImagesEEG,001,200818,
AFNE01.JPG,AFNE01.JPG,AFNE01.JPG,AFNE01.JPG,AFNE01.JPG,AFNE01.JPG,,,,,,,,,,,,,,,,,,,,,2,9,29,9,,,AMNE09.jpg,AMSA09.jpg,AMSA04.jpg,AMNE11.jpg,AMSA04.jpg,MS,2,num_2,16,num_2,0.500283854199,,,2017_Jul_05_1246,60.0021939316,FEMA4ImagesEEG,001,200818,
AFNE01.JPG,AFNE01.JPG,AFNE01.JPG,AFNE01.JPG,AFNE01.JPG,AFNE01.JPG,,,,,,,,,,,,,,,,,,,,,3,0,30,3,,,AMNE04.jpg,AMSA16.jpg,AMNE19.jpg,AMSA09.jpg,AMNE04.jpg,MN,1,num_8,32,num_2,1.16676834098,,,2017_Jul_05_1246,60.0021939316,FEMA4ImagesEEG,001,200818,
AFNE01.JPG,AFNE01.JPG,AFNE01.JPG,AFNE01.JPG,AFNE01.JPG,AFNE01.JPG,,,,,,,,,,,,,,,,,,,,,3,1,31,9,,,AMSA04.jpg,AMNE13.jpg,AMSA13.jpg,AMNE10.jpg,AMNE10.jpg,MN,1,num_4,32,num_6,0.966727158055,,,2017_Jul_05_1246,60.0021939316,FEMA4ImagesEEG,001,200818,
AFNE01.JPG,AFNE01.JPG,AFNE01.JPG,AFNE01.JPG,AFNE01.JPG,AFNE01.JPG,,,,,,,,,,,,,,,,,,,,,3,2,32,2,,,AMSA16.jpg,AMSA14.jpg,AMNE05.jpg,AMNE08.jpg,AMSA16.jpg,MS,2,num_8,32,num_4,0.916775557678,,,2017_Jul_05_1246,60.0021939316,FEMA4ImagesEEG,001,200818,
AFNE01.JPG,AFNE01.JPG,AFNE01.JPG,AFNE01.JPG,AFNE01.JPG,AFNE01.JPG,,,,,,,,,,,,,,,,,,,,,3,3,33,0,,,AMNE17.jpg,AMNE10.jpg,AMSA07.jpg,AMSA08.jpg,AMSA08.jpg,MS,2,num_4,32,num_2,0.833497551852,,,2017_Jul_05_1246,60.0021939316,FEMA4ImagesEEG,001,200818,
AFNE01.JPG,AFNE01.JPG,AFNE01.JPG,AFNE01.JPG,AFNE01.JPG,AFNE01.JPG,,,,,,,,,,,,,,,,,,,,,3,4,34,1,,,AMSA16.jpg,AMNE19.jpg,AMNE13.jpg,AMSA05.jpg,AMNE19.jpg,MN,1,num_6,16,num_6,0.783449408831,,,2017_Jul_05_1246,60.0021939316,FEMA4ImagesEEG,001,200818,
AFNE01.JPG,AFNE01.JPG,AFNE01.JPG,AFNE01.JPG,AFNE01.JPG,AFNE01.JPG,,,,,,,,,,,,,,,,,,,,,3,5,35,8,,,AMSA02.jpg,AMSA10.jpg,AMNE13.jpg,AMNE19.jpg,AMSA02.jpg,MS,2,num_8,16,num_8,0.866720037768,,,2017_Jul_05_1246,60.0021939316,FEMA4ImagesEEG,001,200818,
AFNE01.JPG,AFNE01.JPG,AFNE01.JPG,AFNE01.JPG,AFNE01.JPG,AFNE01.JPG,,,,,,,,,,,,,,,,,,,,,3,6,36,6,,,AMNE01.jpg,AMSA08.jpg,AMSA06.jpg,AMNE12.jpg,AMSA08.jpg,MS,2,num_6,16,num_6,0.816766512813,,,2017_Jul_05_1246,60.0021939316,FEMA4ImagesEEG,001,200818,
AFNE01.JPG,AFNE01.JPG,AFNE01.JPG,AFNE01.JPG,AFNE01.JPG,AFNE01.JPG,,,,,,,,,,,,,,,,,,,,,3,7,37,7,,,AMNE07.jpg,AMSA02.jpg,AMSA08.jpg,AMNE14.jpg,AMSA08.jpg,MS,2,num_2,32,num_6,2.18337044283,,,2017_Jul_05_1246,60.0021939316,FEMA4ImagesEEG,001,200818,
AFNE01.JPG,AFNE01.JPG,AFNE01.JPG,AFNE01.JPG,AFNE01.JPG,AFNE01.JPG,,,,,,,,,,,,,,,,,,,,,3,8,38,4,,,AMSA20.jpg,AMNE14.jpg,AMSA04.jpg,AMNE16.jpg,AMNE16.jpg,MN,1,num_4,16,num_4,0.733448414481,,,2017_Jul_05_1246,60.0021939316,FEMA4ImagesEEG,001,200818,
