IPosition2,IPosition3,IPosition1,IPosition6,IPosition4,IPosition5,TrialsM1.thisRepN,TrialsM1.thisTrialN,TrialsM1.thisN,TrialsM1.thisIndex,TrialsF1.thisRepN,TrialsF1.thisTrialN,TrialsF1.thisN,TrialsF1.thisIndex,TrialsM2.thisRepN,TrialsM2.thisTrialN,TrialsM2.thisN,TrialsM2.thisIndex,TrialsF2.thisRepN,TrialsF2.thisTrialN,TrialsF2.thisN,TrialsF2.thisIndex,TrialsM3.thisRepN,TrialsM3.thisTrialN,TrialsM3.thisN,TrialsM3.thisIndex,TrialsF3.thisRepN,TrialsF3.thisTrialN,TrialsF3.thisN,TrialsF3.thisIndex,InstrKey_resp.keys,InstrKey_resp.rt,Image0 _Position,Image1 _Position,Image2 _Position,Image3 _Position,Center_image,condition,code,correct_answer,accuracy,Key_Resp.keys,Key_Resp.rt,BreakKey_resp.keys,BreakKey_resp.rt,date,frameRate,expName,session,participant,
,,,,,,,,,,,,,,,,,,,,,,,,,,,,,,space,9.58288189291,,,,,,,,,,,,,,2017_Jul_06_1438,60.0006927863,MAFE4ImagesEEG,001,200809,
AFSA25.JPG,AFNE24.JPG,AFSA24.JPG,AFNE21.JPG,AFSA21.JPG,AFNE25.JPG,0,0,0,2,,,,,,,,,,,,,,,,,,,,,,,AMSA06.jpg,AMSA04.jpg,AMNE19.jpg,AMNE15.jpg,AMNE15.jpg,MN,1,num_4,16,num_4,0.750114664203,,,2017_Jul_06_1438,60.0006927863,MAFE4ImagesEEG,001,200809,
AMNE22.JPG,AMSA24.JPG,AMSA22.JPG,AMNE25.JPG,AMNE24.JPG,AMSA25.JPG,0,1,1,7,,,,,,,,,,,,,,,,,,,,,,,AMSA20.jpg,AMSA03.jpg,AMNE08.jpg,AMNE03.jpg,AMSA03.jpg,MS,2,num_6,32,num_8,0.850105426973,,,2017_Jul_06_1438,60.0006927863,MAFE4ImagesEEG,001,200809,
AFNE23.JPG,AFNE24.JPG,AFNE22.JPG,AFSA24.JPG,AFSA22.JPG,AFSA23.JPG,0,2,2,8,,,,,,,,,,,,,,,,,,,,,,,AMSA10.jpg,AMSA02.jpg,AMNE15.jpg,AMNE06.jpg,AMSA10.jpg,MS,2,num_8,32,num_2,1.433547972,,,2017_Jul_06_1438,60.0006927863,MAFE4ImagesEEG,001,200809,
AFNE22.JPG,AFSA24.JPG,AFSA22.JPG,AFNE25.JPG,AFNE24.JPG,AFSA25.JPG,0,3,3,6,,,,,,,,,,,,,,,,,,,,,,,AMSA15.jpg,AMNE16.jpg,AMNE10.jpg,AMSA16.jpg,AMNE16.jpg,MN,1,num_6,16,num_6,0.900208737003,,,2017_Jul_06_1438,60.0006927863,MAFE4ImagesEEG,001,200809,
AMNE23.JPG,AMNE24.JPG,AMNE22.JPG,AMSA24.JPG,AMSA22.JPG,AMSA23.JPG,0,4,4,9,,,,,,,,,,,,,,,,,,,,,,,AMNE12.jpg,AMSA17.jpg,AMSA14.jpg,AMNE03.jpg,AMSA14.jpg,MS,2,num_2,16,num_2,1.00009878771,,,2017_Jul_06_1438,60.0006927863,MAFE4ImagesEEG,001,200809,
AMSA21.JPG,AMNE23.JPG,AMNE21.JPG,AMSA25.JPG,AMNE25.JPG,AMSA23.JPG,0,5,5,5,,,,,,,,,,,,,,,,,,,,,,,AMNE08.jpg,AMSA06.jpg,AMNE16.jpg,AMSA20.jpg,AMNE16.jpg,MN,1,num_2,32,num_8,1.91667805298,,,2017_Jul_06_1438,60.0006927863,MAFE4ImagesEEG,001,200809,
AMSA25.JPG,AMNE24.JPG,AMSA24.JPG,AMNE26.JPG,AMSA21.JPG,AMNE25.JPG,0,6,6,3,,,,,,,,,,,,,,,,,,,,,,,AMNE17.jpg,AMSA16.jpg,AMNE19.jpg,AMSA05.jpg,AMNE19.jpg,MN,1,num_2,16,num_2,0.916780689498,,,2017_Jul_06_1438,60.0006927863,MAFE4ImagesEEG,001,200809,
AFSA21.JPG,AFNE22.JPG,AFNE21.JPG,AFSA23.JPG,AFSA22.JPG,AFNE23.JPG,0,7,7,0,,,,,,,,,,,,,,,,,,,,,,,AMSA07.jpg,AMNE19.jpg,AMSA17.jpg,AMNE20.jpg,AMNE20.jpg,MN,1,num_4,16,num_4,0.833449440892,,,2017_Jul_06_1438,60.0006927863,MAFE4ImagesEEG,001,200809,
AFSA21.JPG,AFNE23.JPG,AFNE21.JPG,AFSA25.JPG,AFNE25.JPG,AFSA23.JPG,0,8,8,4,,,,,,,,,,,,,,,,,,,,,,,AMNE20.jpg,AMNE17.jpg,AMSA09.jpg,AMSA06.jpg,AMSA06.jpg,MS,2,num_4,16,num_4,0.75016694481,,,2017_Jul_06_1438,60.0006927863,MAFE4ImagesEEG,001,200809,
AMSA21.JPG,AMNE22.JPG,AMNE21.JPG,AMSA23.JPG,AMSA22.JPG,AMNE23.JPG,0,9,9,1,,,,,,,,,,,,,,,,,,,,,,,AMSA14.jpg,AMSA12.jpg,AMNE14.jpg,AMNE18.jpg,AMNE14.jpg,MN,1,num_2,16,num_2,1.08347109077,,,2017_Jul_06_1438,60.0006927863,MAFE4ImagesEEG,001,200809,
AMNE23.JPG,AMNE24.JPG,AMNE22.JPG,AMSA24.JPG,AMSA22.JPG,AMSA23.JPG,,,,,0,0,0,9,,,,,,,,,,,,,,,,,,,AFNE07.jpg,AFNE05.jpg,AFSA11.jpg,AFSA03.jpg,AFSA03.jpg,FS,4,num_4,32,num_6,1.56675929611,,,2017_Jul_06_1438,60.0006927863,MAFE4ImagesEEG,001,200809,
AMSA21.JPG,AMNE22.JPG,AMNE21.JPG,AMSA23.JPG,AMSA22.JPG,AMNE23.JPG,,,,,0,1,1,1,,,,,,,,,,,,,,,,,,,AFSA03.jpg,AFNE20.jpg,AFSA02.jpg,AFNE06.jpg,AFSA03.jpg,FS,4,num_8,16,num_8,0.816749513615,,,2017_Jul_06_1438,60.0006927863,MAFE4ImagesEEG,001,200809,
AFNE23.JPG,AFNE24.JPG,AFNE22.JPG,AFSA24.JPG,AFSA22.JPG,AFSA23.JPG,,,,,0,2,2,8,,,,,,,,,,,,,,,,,,,AFNE06.jpg,AFNE16.jpg,AFSA18.jpg,AFSA01.jpg,AFSA01.jpg,FS,4,num_4,16,num_4,1.00014818157,,,2017_Jul_06_1438,60.0006927863,MAFE4ImagesEEG,001,200809,
AMNE22.JPG,AMSA24.JPG,AMSA22.JPG,AMNE25.JPG,AMNE24.JPG,AMSA25.JPG,,,,,0,3,3,7,,,,,,,,,,,,,,,,,,,AFNE10.jpg,AFNE15.jpg,AFSA03.jpg,AFSA01.jpg,AFSA01.jpg,FS,4,num_4,16,num_4,0.700118160341,,,2017_Jul_06_1438,60.0006927863,MAFE4ImagesEEG,001,200809,
AFSA21.JPG,AFNE22.JPG,AFNE21.JPG,AFSA23.JPG,AFSA22.JPG,AFNE23.JPG,,,,,0,4,4,0,,,,,,,,,,,,,,,,,,,AFNE18.jpg,AFNE12.jpg,AFSA10.jpg,AFSA17.jpg,AFSA10.jpg,FS,4,num_2,32,num_6,1.50006222341,,,2017_Jul_06_1438,60.0006927863,MAFE4ImagesEEG,001,200809,
AFSA21.JPG,AFNE23.JPG,AFNE21.JPG,AFSA25.JPG,AFNE25.JPG,AFSA23.JPG,,,,,0,5,5,4,,,,,,,,,,,,,,,,,,,AFNE12.jpg,AFSA17.jpg,AFNE04.jpg,AFSA06.jpg,AFSA17.jpg,FS,4,num_6,32,num_4,0.85008297523,,,2017_Jul_06_1438,60.0006927863,MAFE4ImagesEEG,001,200809,
AMSA21.JPG,AMNE23.JPG,AMNE21.JPG,AMSA25.JPG,AMNE25.JPG,AMSA23.JPG,,,,,0,6,6,5,,,,,,,,,,,,,,,,,,,AFNE02.jpg,AFNE11.jpg,AFSA08.jpg,AFSA17.jpg,AFSA17.jpg,FS,4,num_4,16,num_4,0.983442480792,,,2017_Jul_06_1438,60.0006927863,MAFE4ImagesEEG,001,200809,
AFSA25.JPG,AFNE24.JPG,AFSA24.JPG,AFNE21.JPG,AFSA21.JPG,AFNE25.JPG,,,,,0,7,7,2,,,,,,,,,,,,,,,,,,,AFNE08.jpg,AFSA13.jpg,AFSA08.jpg,AFNE09.jpg,AFNE09.jpg,FN,3,num_4,32,num_8,1.31674566469,,,2017_Jul_06_1438,60.0006927863,MAFE4ImagesEEG,001,200809,
AFNE22.JPG,AFSA24.JPG,AFSA22.JPG,AFNE25.JPG,AFNE24.JPG,AFSA25.JPG,,,,,0,8,8,6,,,,,,,,,,,,,,,,,,,AFSA20.jpg,AFSA19.jpg,AFNE14.jpg,AFNE05.jpg,AFNE14.jpg,FN,3,num_2,16,num_2,1.18345094833,,,2017_Jul_06_1438,60.0006927863,MAFE4ImagesEEG,001,200809,
AMSA25.JPG,AMNE24.JPG,AMSA24.JPG,AMNE26.JPG,AMSA21.JPG,AMNE25.JPG,,,,,0,9,9,3,,,,,,,,,,,,,,,,,,,AFSA03.jpg,AFSA13.jpg,AFNE18.jpg,AFNE19.jpg,AFSA13.jpg,FS,4,num_6,32,num_8,1.36671105691,,,2017_Jul_06_1438,60.0006927863,MAFE4ImagesEEG,001,200809,
AFNE23.JPG,AFNE24.JPG,AFNE22.JPG,AFSA24.JPG,AFSA22.JPG,AFSA23.JPG,,,,,,,,,0,0,0,8,,,,,,,,,,,,,,,AMSA08.jpg,AMNE01.jpg,AMNE02.jpg,AMSA04.jpg,AMSA08.jpg,MS,2,num_8,32,num_2,2.30001462577,,,2017_Jul_06_1438,60.0006927863,MAFE4ImagesEEG,001,200809,
AMNE23.JPG,AMNE24.JPG,AMNE22.JPG,AMSA24.JPG,AMSA22.JPG,AMSA23.JPG,,,,,,,,,0,1,1,9,,,,,,,,,,,,,,,AMNE20.jpg,AMSA09.jpg,AMSA14.jpg,AMNE14.jpg,AMNE14.jpg,MN,1,num_4,16,num_4,1.01707198482,,,2017_Jul_06_1438,60.0006927863,MAFE4ImagesEEG,001,200809,
AMSA21.JPG,AMNE23.JPG,AMNE21.JPG,AMSA25.JPG,AMNE25.JPG,AMSA23.JPG,,,,,,,,,0,2,2,5,,,,,,,,,,,,,,,AMSA03.jpg,AMNE05.jpg,AMSA15.jpg,AMNE17.jpg,AMSA03.jpg,MS,2,num_8,16,num_8,1.33339876414,,,2017_Jul_06_1438,60.0006927863,MAFE4ImagesEEG,001,200809,
AFNE22.JPG,AFSA24.JPG,AFSA22.JPG,AFNE25.JPG,AFNE24.JPG,AFSA25.JPG,,,,,,,,,0,3,3,6,,,,,,,,,,,,,,,AMSA05.jpg,AMNE07.jpg,AMSA12.jpg,AMNE08.jpg,AMSA12.jpg,MS,2,num_2,32,num_8,1.1500988839,,,2017_Jul_06_1438,60.0006927863,MAFE4ImagesEEG,001,200809,
AMSA21.JPG,AMNE22.JPG,AMNE21.JPG,AMSA23.JPG,AMSA22.JPG,AMNE23.JPG,,,,,,,,,0,4,4,1,,,,,,,,,,,,,,,AMSA10.jpg,AMNE08.jpg,AMSA09.jpg,AMNE06.jpg,AMNE08.jpg,MN,1,num_6,16,num_6,1.23344264121,,,2017_Jul_06_1438,60.0006927863,MAFE4ImagesEEG,001,200809,
AFSA21.JPG,AFNE23.JPG,AFNE21.JPG,AFSA25.JPG,AFNE25.JPG,AFSA23.JPG,,,,,,,,,0,5,5,4,,,,,,,,,,,,,,,AMNE02.jpg,AMSA07.jpg,AMSA05.jpg,AMNE19.jpg,AMSA07.jpg,MS,2,num_6,16,num_6,0.950139168766,,,2017_Jul_06_1438,60.0006927863,MAFE4ImagesEEG,001,200809,
AMNE22.JPG,AMSA24.JPG,AMSA22.JPG,AMNE25.JPG,AMNE24.JPG,AMSA25.JPG,,,,,,,,,0,6,6,7,,,,,,,,,,,,,,,AMNE02.jpg,AMSA12.jpg,AMSA18.jpg,AMNE05.jpg,AMSA18.jpg,MS,2,num_2,16,num_2,2.09988556022,,,2017_Jul_06_1438,60.0006927863,MAFE4ImagesEEG,001,200809,
AMSA25.JPG,AMNE24.JPG,AMSA24.JPG,AMNE26.JPG,AMSA21.JPG,AMNE25.JPG,,,,,,,,,0,7,7,3,,,,,,,,,,,,,,,AMSA13.jpg,AMSA19.jpg,AMNE08.jpg,AMNE15.jpg,AMSA19.jpg,MS,2,num_6,16,num_6,1.90011540195,,,2017_Jul_06_1438,60.0006927863,MAFE4ImagesEEG,001,200809,
AFSA25.JPG,AFNE24.JPG,AFSA24.JPG,AFNE21.JPG,AFSA21.JPG,AFNE25.JPG,,,,,,,,,0,8,8,2,,,,,,,,,,,,,,,AMSA01.jpg,AMSA11.jpg,AMNE01.jpg,AMNE04.jpg,AMSA01.jpg,MS,2,num_8,16,num_8,1.23346797959,,,2017_Jul_06_1438,60.0006927863,MAFE4ImagesEEG,001,200809,
AFSA21.JPG,AFNE22.JPG,AFNE21.JPG,AFSA23.JPG,AFSA22.JPG,AFNE23.JPG,,,,,,,,,0,9,9,0,,,,,,,,,,,,,,,AMSA13.jpg,AMSA08.jpg,AMNE01.jpg,AMNE05.jpg,AMNE05.jpg,MN,1,num_4,16,num_4,2.61662846664,,,2017_Jul_06_1438,60.0006927863,MAFE4ImagesEEG,001,200809,
AMSA21.JPG,AMNE22.JPG,AMNE21.JPG,AMSA23.JPG,AMSA22.JPG,AMNE23.JPG,,,,,,,,,,,,,0,0,0,1,,,,,,,,,,,AFSA04.jpg,AFSA07.jpg,AFNE07.jpg,AFNE02.jpg,AFNE02.jpg,FN,3,num_4,32,num_2,0.950123773306,,,2017_Jul_06_1438,60.0006927863,MAFE4ImagesEEG,001,200809,
AMNE22.JPG,AMSA24.JPG,AMSA22.JPG,AMNE25.JPG,AMNE24.JPG,AMSA25.JPG,,,,,,,,,,,,,0,1,1,7,,,,,,,,,,,AFSA18.jpg,AFNE13.jpg,AFNE02.jpg,AFSA01.jpg,AFNE02.jpg,FN,3,num_2,16,num_2,0.966736138682,,,2017_Jul_06_1438,60.0006927863,MAFE4ImagesEEG,001,200809,
AFNE22.JPG,AFSA24.JPG,AFSA22.JPG,AFNE25.JPG,AFNE24.JPG,AFSA25.JPG,,,,,,,,,,,,,0,2,2,6,,,,,,,,,,,AFNE06.jpg,AFNE04.jpg,AFSA19.jpg,AFSA15.jpg,AFSA19.jpg,FS,4,num_2,16,num_2,3.86648653948,,,2017_Jul_06_1438,60.0006927863,MAFE4ImagesEEG,001,200809,
AFSA21.JPG,AFNE22.JPG,AFNE21.JPG,AFSA23.JPG,AFSA22.JPG,AFNE23.JPG,,,,,,,,,,,,,0,3,3,0,,,,,,,,,,,AFSA14.jpg,AFSA05.jpg,AFNE02.jpg,AFNE11.jpg,AFNE02.jpg,FN,3,num_2,32,num_8,1.2834282401,,,2017_Jul_06_1438,60.0006927863,MAFE4ImagesEEG,001,200809,
AFNE23.JPG,AFNE24.JPG,AFNE22.JPG,AFSA24.JPG,AFSA22.JPG,AFSA23.JPG,,,,,,,,,,,,,0,4,4,8,,,,,,,,,,,AFSA02.jpg,AFNE02.jpg,AFSA17.jpg,AFNE06.jpg,AFSA17.jpg,FS,4,num_2,16,num_2,1.23341666139,,,2017_Jul_06_1438,60.0006927863,MAFE4ImagesEEG,001,200809,
AFSA25.JPG,AFNE24.JPG,AFSA24.JPG,AFNE21.JPG,AFSA21.JPG,AFNE25.JPG,,,,,,,,,,,,,0,5,5,2,,,,,,,,,,,AFSA04.jpg,AFNE05.jpg,AFSA20.jpg,AFNE06.jpg,AFNE06.jpg,FN,3,num_4,16,num_4,1.28346929466,,,2017_Jul_06_1438,60.0006927863,MAFE4ImagesEEG,001,200809,
AMNE23.JPG,AMNE24.JPG,AMNE22.JPG,AMSA24.JPG,AMSA22.JPG,AMSA23.JPG,,,,,,,,,,,,,0,6,6,9,,,,,,,,,,,AFNE02.jpg,AFSA06.jpg,AFNE05.jpg,AFSA12.jpg,AFSA06.jpg,FS,4,num_6,32,num_2,1.51669960655,,,2017_Jul_06_1438,60.0006927863,MAFE4ImagesEEG,001,200809,
AFSA21.JPG,AFNE23.JPG,AFNE21.JPG,AFSA25.JPG,AFNE25.JPG,AFSA23.JPG,,,,,,,,,,,,,0,7,7,4,,,,,,,,,,,AFNE13.jpg,AFNE03.jpg,AFSA07.jpg,AFSA16.jpg,AFNE13.jpg,FN,3,num_8,16,num_8,1.5334075524,,,2017_Jul_06_1438,60.0006927863,MAFE4ImagesEEG,001,200809,
AMSA25.JPG,AMNE24.JPG,AMSA24.JPG,AMNE26.JPG,AMSA21.JPG,AMNE25.JPG,,,,,,,,,,,,,0,8,8,3,,,,,,,,,,,AFSA03.jpg,AFNE16.jpg,AFNE10.jpg,AFSA04.jpg,AFSA03.jpg,FS,4,num_8,16,num_8,0.766800158308,,,2017_Jul_06_1438,60.0006927863,MAFE4ImagesEEG,001,200809,
AMSA21.JPG,AMNE23.JPG,AMNE21.JPG,AMSA25.JPG,AMNE25.JPG,AMSA23.JPG,,,,,,,,,,,,,0,9,9,5,,,,,,,,,,,AFSA07.jpg,AFNE20.jpg,AFNE09.jpg,AFSA02.jpg,AFNE09.jpg,FN,3,num_2,32,num_6,1.00008307141,,,2017_Jul_06_1438,60.0006927863,MAFE4ImagesEEG,001,200809,
AMSA21.JPG,AMNE22.JPG,AMNE21.JPG,AMSA23.JPG,AMSA22.JPG,AMNE23.JPG,,,,,,,,,,,,,,,,,0,0,0,1,,,,,,,AMNE09.jpg,AMSA20.jpg,AMSA09.jpg,AMNE18.jpg,AMSA20.jpg,MS,2,num_6,16,num_6,0.916645337478,,,2017_Jul_06_1438,60.0006927863,MAFE4ImagesEEG,001,200809,
AMNE22.JPG,AMSA24.JPG,AMSA22.JPG,AMNE25.JPG,AMNE24.JPG,AMSA25.JPG,,,,,,,,,,,,,,,,,0,1,1,7,,,,,,,AMNE09.jpg,AMSA10.jpg,AMNE01.jpg,AMSA15.jpg,AMNE09.jpg,MN,1,num_8,16,num_8,0.900438065641,,,2017_Jul_06_1438,60.0006927863,MAFE4ImagesEEG,001,200809,
AFSA21.JPG,AFNE22.JPG,AFNE21.JPG,AFSA23.JPG,AFSA22.JPG,AFNE23.JPG,,,,,,,,,,,,,,,,,0,2,2,0,,,,,,,AMSA02.jpg,AMNE11.jpg,AMSA09.jpg,AMNE20.jpg,AMSA02.jpg,MS,2,num_8,16,num_8,0.6001386235,,,2017_Jul_06_1438,60.0006927863,MAFE4ImagesEEG,001,200809,
AFNE22.JPG,AFSA24.JPG,AFSA22.JPG,AFNE25.JPG,AFNE24.JPG,AFSA25.JPG,,,,,,,,,,,,,,,,,0,3,3,6,,,,,,,AMSA19.jpg,AMSA06.jpg,AMNE13.jpg,AMNE11.jpg,AMNE11.jpg,MN,1,num_4,32,num_2,1.96675377944,,,2017_Jul_06_1438,60.0006927863,MAFE4ImagesEEG,001,200809,
AMSA21.JPG,AMNE23.JPG,AMNE21.JPG,AMSA25.JPG,AMNE25.JPG,AMSA23.JPG,,,,,,,,,,,,,,,,,0,4,4,5,,,,,,,AMSA07.jpg,AMNE20.jpg,AMNE12.jpg,AMSA02.jpg,AMSA07.jpg,MS,2,num_8,32,num_6,1.45021005208,,,2017_Jul_06_1438,60.0006927863,MAFE4ImagesEEG,001,200809,
AMSA25.JPG,AMNE24.JPG,AMSA24.JPG,AMNE26.JPG,AMSA21.JPG,AMNE25.JPG,,,,,,,,,,,,,,,,,0,5,5,3,,,,,,,AMNE06.jpg,AMNE18.jpg,AMSA16.jpg,AMSA05.jpg,AMSA16.jpg,MS,2,num_2,32,num_4,1.38338340062,,,2017_Jul_06_1438,60.0006927863,MAFE4ImagesEEG,001,200809,
AFSA25.JPG,AFNE24.JPG,AFSA24.JPG,AFNE21.JPG,AFSA21.JPG,AFNE25.JPG,,,,,,,,,,,,,,,,,0,6,6,2,,,,,,,AMSA14.jpg,AMNE13.jpg,AMSA13.jpg,AMNE04.jpg,AMNE04.jpg,MN,1,num_4,16,num_4,0.61679428874,,,2017_Jul_06_1438,60.0006927863,MAFE4ImagesEEG,001,200809,
AFSA21.JPG,AFNE23.JPG,AFNE21.JPG,AFSA25.JPG,AFNE25.JPG,AFSA23.JPG,,,,,,,,,,,,,,,,,0,7,7,4,,,,,,,AMSA10.jpg,AMNE17.jpg,AMNE07.jpg,AMSA04.jpg,AMNE07.jpg,MN,1,num_2,16,num_2,0.800107640098,,,2017_Jul_06_1438,60.0006927863,MAFE4ImagesEEG,001,200809,
AFNE23.JPG,AFNE24.JPG,AFNE22.JPG,AFSA24.JPG,AFSA22.JPG,AFSA23.JPG,,,,,,,,,,,,,,,,,0,8,8,8,,,,,,,AMSA03.jpg,AMSA06.jpg,AMNE19.jpg,AMNE08.jpg,AMNE08.jpg,MN,1,num_4,16,num_4,0.633528855979,,,2017_Jul_06_1438,60.0006927863,MAFE4ImagesEEG,001,200809,
AMNE23.JPG,AMNE24.JPG,AMNE22.JPG,AMSA24.JPG,AMSA22.JPG,AMSA23.JPG,,,,,,,,,,,,,,,,,0,9,9,9,,,,,,,AMSA12.jpg,AMNE11.jpg,AMNE07.jpg,AMSA14.jpg,AMNE07.jpg,MN,1,num_2,32,num_6,1.43309797486,,,2017_Jul_06_1438,60.0006927863,MAFE4ImagesEEG,001,200809,
AFNE22.JPG,AFSA24.JPG,AFSA22.JPG,AFNE25.JPG,AFNE24.JPG,AFSA25.JPG,,,,,,,,,,,,,,,,,,,,,0,0,0,6,,,AFSA11.jpg,AFNE04.jpg,AFSA01.jpg,AFNE05.jpg,AFNE04.jpg,FN,3,num_6,16,num_6,0.916737069027,,,2017_Jul_06_1438,60.0006927863,MAFE4ImagesEEG,001,200809,
AMSA21.JPG,AMNE22.JPG,AMNE21.JPG,AMSA23.JPG,AMSA22.JPG,AMNE23.JPG,,,,,,,,,,,,,,,,,,,,,0,1,1,1,,,AFSA13.jpg,AFNE14.jpg,AFSA17.jpg,AFNE16.jpg,AFSA13.jpg,FS,4,num_8,32,num_2,0.600166527787,,,2017_Jul_06_1438,60.0006927863,MAFE4ImagesEEG,001,200809,
AFSA25.JPG,AFNE24.JPG,AFSA24.JPG,AFNE21.JPG,AFSA21.JPG,AFNE25.JPG,,,,,,,,,,,,,,,,,,,,,0,2,2,2,,,AFNE04.jpg,AFNE02.jpg,AFSA16.jpg,AFSA06.jpg,AFNE04.jpg,FN,3,num_8,16,num_8,1.16676481278,,,2017_Jul_06_1438,60.0006927863,MAFE4ImagesEEG,001,200809,
AMNE23.JPG,AMNE24.JPG,AMNE22.JPG,AMSA24.JPG,AMSA22.JPG,AMSA23.JPG,,,,,,,,,,,,,,,,,,,,,0,3,3,9,,,AFSA15.jpg,AFSA11.jpg,AFNE15.jpg,AFNE05.jpg,AFSA11.jpg,FS,4,num_6,16,num_6,0.600129963481,,,2017_Jul_06_1438,60.0006927863,MAFE4ImagesEEG,001,200809,
AMSA21.JPG,AMNE23.JPG,AMNE21.JPG,AMSA25.JPG,AMNE25.JPG,AMSA23.JPG,,,,,,,,,,,,,,,,,,,,,0,4,4,5,,,AFNE07.jpg,AFSA19.jpg,AFSA14.jpg,AFNE05.jpg,AFNE05.jpg,FN,3,num_4,16,num_4,1.33339138713,,,2017_Jul_06_1438,60.0006927863,MAFE4ImagesEEG,001,200809,
AMSA25.JPG,AMNE24.JPG,AMSA24.JPG,AMNE26.JPG,AMSA21.JPG,AMNE25.JPG,,,,,,,,,,,,,,,,,,,,,0,5,5,3,,,AFNE20.jpg,AFSA20.jpg,AFSA17.jpg,AFNE19.jpg,AFSA20.jpg,FS,4,num_6,16,num_6,1.05016713717,,,2017_Jul_06_1438,60.0006927863,MAFE4ImagesEEG,001,200809,
AFSA21.JPG,AFNE22.JPG,AFNE21.JPG,AFSA23.JPG,AFSA22.JPG,AFNE23.JPG,,,,,,,,,,,,,,,,,,,,,0,6,6,0,,,AFSA09.jpg,AFSA08.jpg,AFNE07.jpg,AFNE09.jpg,AFSA09.jpg,FS,4,num_8,16,num_8,0.550014786189,,,2017_Jul_06_1438,60.0006927863,MAFE4ImagesEEG,001,200809,
AFSA21.JPG,AFNE23.JPG,AFNE21.JPG,AFSA25.JPG,AFNE25.JPG,AFSA23.JPG,,,,,,,,,,,,,,,,,,,,,0,7,7,4,,,AFSA18.jpg,AFNE19.jpg,AFNE11.jpg,AFSA06.jpg,AFNE11.jpg,FN,3,num_2,16,num_2,0.983514647232,,,2017_Jul_06_1438,60.0006927863,MAFE4ImagesEEG,001,200809,
AFNE23.JPG,AFNE24.JPG,AFNE22.JPG,AFSA24.JPG,AFSA22.JPG,AFSA23.JPG,,,,,,,,,,,,,,,,,,,,,0,8,8,8,,,AFSA01.jpg,AFSA16.jpg,AFNE04.jpg,AFNE08.jpg,AFNE04.jpg,FN,3,num_2,32,num_4,1.00015010592,,,2017_Jul_06_1438,60.0006927863,MAFE4ImagesEEG,001,200809,
AMNE22.JPG,AMSA24.JPG,AMSA22.JPG,AMNE25.JPG,AMNE24.JPG,AMSA25.JPG,,,,,,,,,,,,,,,,,,,,,0,9,9,7,,,AFNE14.jpg,AFSA16.jpg,AFSA02.jpg,AFNE05.jpg,AFNE14.jpg,FN,3,num_8,16,num_8,1.78339616605,,,2017_Jul_06_1438,60.0006927863,MAFE4ImagesEEG,001,200809,
,,,,,,,,,,,,,,,,,,,,,,,,,,,,,,,,,,,,,,,,,,,space,7.81593323231,2017_Jul_06_1438,60.0006927863,MAFE4ImagesEEG,001,200809,
AFNE01.JPG,AFNE01.JPG,AFNE01.JPG,AFNE01.JPG,AFNE01.JPG,AFNE01.JPG,0,0,0,5,,,,,,,,,,,,,,,,,,,,,,,AMNE03.jpg,AMSA20.jpg,AMSA01.jpg,AMNE02.jpg,AMSA01.jpg,MS,2,num_2,16,num_2,1.9165651527,,,2017_Jul_06_1438,60.0006927863,MAFE4ImagesEEG,001,200809,
AFNE01.JPG,AFNE01.JPG,AFNE01.JPG,AFNE01.JPG,AFNE01.JPG,AFNE01.JPG,0,1,1,3,,,,,,,,,,,,,,,,,,,,,,,AMSA16.jpg,AMNE11.jpg,AMNE05.jpg,AMSA15.jpg,AMNE11.jpg,MN,1,num_6,32,num_8,1.25038151932,,,2017_Jul_06_1438,60.0006927863,MAFE4ImagesEEG,001,200809,
AFNE01.JPG,AFNE01.JPG,AFNE01.JPG,AFNE01.JPG,AFNE01.JPG,AFNE01.JPG,0,2,2,2,,,,,,,,,,,,,,,,,,,,,,,AMNE07.jpg,AMSA03.jpg,AMNE08.jpg,AMSA09.jpg,AMSA09.jpg,MS,2,num_4,16,num_4,1.00013791781,,,2017_Jul_06_1438,60.0006927863,MAFE4ImagesEEG,001,200809,
AFNE01.JPG,AFNE01.JPG,AFNE01.JPG,AFNE01.JPG,AFNE01.JPG,AFNE01.JPG,0,3,3,7,,,,,,,,,,,,,,,,,,,,,,,AMNE03.jpg,AMSA11.jpg,AMSA13.jpg,AMNE06.jpg,AMSA13.jpg,MS,2,num_2,16,num_2,2.18320526218,,,2017_Jul_06_1438,60.0006927863,MAFE4ImagesEEG,001,200809,
AFNE01.JPG,AFNE01.JPG,AFNE01.JPG,AFNE01.JPG,AFNE01.JPG,AFNE01.JPG,0,4,4,0,,,,,,,,,,,,,,,,,,,,,,,AMNE15.jpg,AMSA05.jpg,AMSA15.jpg,AMNE10.jpg,AMNE15.jpg,MN,1,num_8,32,num_4,1.4834107277,,,2017_Jul_06_1438,60.0006927863,MAFE4ImagesEEG,001,200809,
AFNE01.JPG,AFNE01.JPG,AFNE01.JPG,AFNE01.JPG,AFNE01.JPG,AFNE01.JPG,0,5,5,1,,,,,,,,,,,,,,,,,,,,,,,AMSA02.jpg,AMNE08.jpg,AMSA06.jpg,AMNE15.jpg,AMNE15.jpg,MN,1,num_4,16,num_4,0.600206620176,,,2017_Jul_06_1438,60.0006927863,MAFE4ImagesEEG,001,200809,
AFNE01.JPG,AFNE01.JPG,AFNE01.JPG,AFNE01.JPG,AFNE01.JPG,AFNE01.JPG,0,6,6,9,,,,,,,,,,,,,,,,,,,,,,,AMNE15.jpg,AMNE11.jpg,AMSA06.jpg,AMSA14.jpg,AMNE11.jpg,MN,1,num_6,16,num_6,1.35006822122,,,2017_Jul_06_1438,60.0006927863,MAFE4ImagesEEG,001,200809,
AFNE01.JPG,AFNE01.JPG,AFNE01.JPG,AFNE01.JPG,AFNE01.JPG,AFNE01.JPG,0,7,7,6,,,,,,,,,,,,,,,,,,,,,,,AMNE05.jpg,AMNE17.jpg,AMSA20.jpg,AMSA07.jpg,AMNE05.jpg,MN,1,num_8,32,num_6,2.18331816234,,,2017_Jul_06_1438,60.0006927863,MAFE4ImagesEEG,001,200809,
AFNE01.JPG,AFNE01.JPG,AFNE01.JPG,AFNE01.JPG,AFNE01.JPG,AFNE01.JPG,0,8,8,8,,,,,,,,,,,,,,,,,,,,,,,AMSA15.jpg,AMNE03.jpg,AMSA11.jpg,AMNE18.jpg,AMSA15.jpg,MS,2,num_8,16,num_8,0.616752913338,,,2017_Jul_06_1438,60.0006927863,MAFE4ImagesEEG,001,200809,
AFNE01.JPG,AFNE01.JPG,AFNE01.JPG,AFNE01.JPG,AFNE01.JPG,AFNE01.JPG,0,9,9,4,,,,,,,,,,,,,,,,,,,,,,,AMNE09.jpg,AMSA14.jpg,AMSA16.jpg,AMNE17.jpg,AMNE17.jpg,MN,1,num_4,16,num_4,1.18344421289,,,2017_Jul_06_1438,60.0006927863,MAFE4ImagesEEG,001,200809,
AFNE01.JPG,AFNE01.JPG,AFNE01.JPG,AFNE01.JPG,AFNE01.JPG,AFNE01.JPG,1,0,10,2,,,,,,,,,,,,,,,,,,,,,,,AMNE12.jpg,AMSA16.jpg,AMNE18.jpg,AMSA01.jpg,AMNE18.jpg,MN,1,num_2,16,num_2,2.21668081137,,,2017_Jul_06_1438,60.0006927863,MAFE4ImagesEEG,001,200809,
AFNE01.JPG,AFNE01.JPG,AFNE01.JPG,AFNE01.JPG,AFNE01.JPG,AFNE01.JPG,1,1,11,7,,,,,,,,,,,,,,,,,,,,,,,AMSA15.jpg,AMSA05.jpg,AMNE16.jpg,AMNE20.jpg,AMSA05.jpg,MS,2,num_6,16,num_6,1.13344450155,,,2017_Jul_06_1438,60.0006927863,MAFE4ImagesEEG,001,200809,
AFNE01.JPG,AFNE01.JPG,AFNE01.JPG,AFNE01.JPG,AFNE01.JPG,AFNE01.JPG,1,2,12,4,,,,,,,,,,,,,,,,,,,,,,,AMSA16.jpg,AMSA03.jpg,AMNE19.jpg,AMNE05.jpg,AMSA16.jpg,MS,2,num_8,32,num_2,1.2000969915,,,2017_Jul_06_1438,60.0006927863,MAFE4ImagesEEG,001,200809,
AFNE01.JPG,AFNE01.JPG,AFNE01.JPG,AFNE01.JPG,AFNE01.JPG,AFNE01.JPG,1,3,13,3,,,,,,,,,,,,,,,,,,,,,,,AMSA12.jpg,AMNE17.jpg,AMSA03.jpg,AMNE04.jpg,AMSA12.jpg,MS,2,num_8,16,num_8,0.700111745507,,,2017_Jul_06_1438,60.0006927863,MAFE4ImagesEEG,001,200809,
AFNE01.JPG,AFNE01.JPG,AFNE01.JPG,AFNE01.JPG,AFNE01.JPG,AFNE01.JPG,1,4,14,1,,,,,,,,,,,,,,,,,,,,,,,AMSA02.jpg,AMSA03.jpg,AMNE16.jpg,AMNE13.jpg,AMNE13.jpg,MN,1,num_4,16,num_4,1.05006321776,,,2017_Jul_06_1438,60.0006927863,MAFE4ImagesEEG,001,200809,
AFNE01.JPG,AFNE01.JPG,AFNE01.JPG,AFNE01.JPG,AFNE01.JPG,AFNE01.JPG,1,5,15,8,,,,,,,,,,,,,,,,,,,,,,,AMNE12.jpg,AMNE15.jpg,AMSA11.jpg,AMSA02.jpg,AMNE12.jpg,MN,1,num_8,32,num_6,1.71673565777,,,2017_Jul_06_1438,60.0006927863,MAFE4ImagesEEG,001,200809,
AFNE01.JPG,AFNE01.JPG,AFNE01.JPG,AFNE01.JPG,AFNE01.JPG,AFNE01.JPG,1,6,16,9,,,,,,,,,,,,,,,,,,,,,,,AMNE19.jpg,AMNE12.jpg,AMSA20.jpg,AMSA03.jpg,AMNE12.jpg,MN,1,num_6,16,num_6,0.583474618965,,,2017_Jul_06_1438,60.0006927863,MAFE4ImagesEEG,001,200809,
AFNE01.JPG,AFNE01.JPG,AFNE01.JPG,AFNE01.JPG,AFNE01.JPG,AFNE01.JPG,1,7,17,0,,,,,,,,,,,,,,,,,,,,,,,AMNE15.jpg,AMSA08.jpg,AMNE16.jpg,AMSA02.jpg,AMSA02.jpg,MS,2,num_4,16,num_4,0.550200494006,,,2017_Jul_06_1438,60.0006927863,MAFE4ImagesEEG,001,200809,
AFNE01.JPG,AFNE01.JPG,AFNE01.JPG,AFNE01.JPG,AFNE01.JPG,AFNE01.JPG,1,8,18,5,,,,,,,,,,,,,,,,,,,,,,,AMSA01.jpg,AMNE14.jpg,AMSA18.jpg,AMNE15.jpg,AMSA18.jpg,MS,2,num_2,16,num_2,0.683423685492,,,2017_Jul_06_1438,60.0006927863,MAFE4ImagesEEG,001,200809,
AFNE01.JPG,AFNE01.JPG,AFNE01.JPG,AFNE01.JPG,AFNE01.JPG,AFNE01.JPG,1,9,19,6,,,,,,,,,,,,,,,,,,,,,,,AMSA03.jpg,AMNE02.jpg,AMNE15.jpg,AMSA13.jpg,AMNE02.jpg,MN,1,num_6,16,num_6,1.20007678494,,,2017_Jul_06_1438,60.0006927863,MAFE4ImagesEEG,001,200809,
AFNE01.JPG,AFNE01.JPG,AFNE01.JPG,AFNE01.JPG,AFNE01.JPG,AFNE01.JPG,2,0,20,5,,,,,,,,,,,,,,,,,,,,,,,AMNE03.jpg,AMSA11.jpg,AMNE14.jpg,AMSA06.jpg,AMNE14.jpg,MN,1,num_2,16,num_2,1.26672350161,,,2017_Jul_06_1438,60.0006927863,MAFE4ImagesEEG,001,200809,
AFNE01.JPG,AFNE01.JPG,AFNE01.JPG,AFNE01.JPG,AFNE01.JPG,AFNE01.JPG,2,1,21,1,,,,,,,,,,,,,,,,,,,,,,,AMSA07.jpg,AMSA08.jpg,AMNE10.jpg,AMNE14.jpg,AMSA07.jpg,MS,2,num_8,16,num_8,0.650105619454,,,2017_Jul_06_1438,60.0006927863,MAFE4ImagesEEG,001,200809,
AFNE01.JPG,AFNE01.JPG,AFNE01.JPG,AFNE01.JPG,AFNE01.JPG,AFNE01.JPG,2,2,22,4,,,,,,,,,,,,,,,,,,,,,,,AMNE08.jpg,AMSA02.jpg,AMNE12.jpg,AMSA07.jpg,AMSA02.jpg,MS,2,num_6,16,num_6,1.58342779102,,,2017_Jul_06_1438,60.0006927863,MAFE4ImagesEEG,001,200809,
AFNE01.JPG,AFNE01.JPG,AFNE01.JPG,AFNE01.JPG,AFNE01.JPG,AFNE01.JPG,2,3,23,3,,,,,,,,,,,,,,,,,,,,,,,AMSA20.jpg,AMNE03.jpg,AMSA18.jpg,AMNE13.jpg,AMNE13.jpg,MN,1,num_4,16,num_4,0.800135544385,,,2017_Jul_06_1438,60.0006927863,MAFE4ImagesEEG,001,200809,
AFNE01.JPG,AFNE01.JPG,AFNE01.JPG,AFNE01.JPG,AFNE01.JPG,AFNE01.JPG,2,4,24,6,,,,,,,,,,,,,,,,,,,,,,,AMNE05.jpg,AMNE16.jpg,AMSA02.jpg,AMSA01.jpg,AMSA01.jpg,MS,2,num_4,16,num_4,0.533484209096,,,2017_Jul_06_1438,60.0006927863,MAFE4ImagesEEG,001,200809,
AFNE01.JPG,AFNE01.JPG,AFNE01.JPG,AFNE01.JPG,AFNE01.JPG,AFNE01.JPG,2,5,25,0,,,,,,,,,,,,,,,,,,,,,,,AMNE08.jpg,AMNE16.jpg,AMSA09.jpg,AMSA03.jpg,AMNE16.jpg,MN,1,num_6,16,num_6,0.666786302347,,,2017_Jul_06_1438,60.0006927863,MAFE4ImagesEEG,001,200809,
AFNE01.JPG,AFNE01.JPG,AFNE01.JPG,AFNE01.JPG,AFNE01.JPG,AFNE01.JPG,2,6,26,9,,,,,,,,,,,,,,,,,,,,,,,AMSA08.jpg,AMNE03.jpg,AMSA05.jpg,AMNE01.jpg,AMNE03.jpg,MN,1,num_6,32,num_8,1.75009798585,,,2017_Jul_06_1438,60.0006927863,MAFE4ImagesEEG,001,200809,
AFNE01.JPG,AFNE01.JPG,AFNE01.JPG,AFNE01.JPG,AFNE01.JPG,AFNE01.JPG,2,7,27,7,,,,,,,,,,,,,,,,,,,,,,,AMNE03.jpg,AMSA14.jpg,AMNE04.jpg,AMSA04.jpg,AMNE03.jpg,MN,1,num_8,32,num_2,0.866738640587,,,2017_Jul_06_1438,60.0006927863,MAFE4ImagesEEG,001,200809,
AFNE01.JPG,AFNE01.JPG,AFNE01.JPG,AFNE01.JPG,AFNE01.JPG,AFNE01.JPG,2,8,28,8,,,,,,,,,,,,,,,,,,,,,,,AMSA12.jpg,AMSA19.jpg,AMNE13.jpg,AMNE11.jpg,AMNE11.jpg,MN,1,num_4,32,num_2,2.20006235165,,,2017_Jul_06_1438,60.0006927863,MAFE4ImagesEEG,001,200809,
AFNE01.JPG,AFNE01.JPG,AFNE01.JPG,AFNE01.JPG,AFNE01.JPG,AFNE01.JPG,2,9,29,2,,,,,,,,,,,,,,,,,,,,,,,AMSA03.jpg,AMNE17.jpg,AMNE08.jpg,AMSA18.jpg,AMSA03.jpg,MS,2,num_8,32,num_2,1.2666866167,,,2017_Jul_06_1438,60.0006927863,MAFE4ImagesEEG,001,200809,
AFNE01.JPG,AFNE01.JPG,AFNE01.JPG,AFNE01.JPG,AFNE01.JPG,AFNE01.JPG,3,0,30,5,,,,,,,,,,,,,,,,,,,,,,,AMNE06.jpg,AMNE19.jpg,AMSA18.jpg,AMSA02.jpg,AMNE19.jpg,MN,1,num_6,32,num_8,0.483477441478,,,2017_Jul_06_1438,60.0006927863,MAFE4ImagesEEG,001,200809,
AFNE01.JPG,AFNE01.JPG,AFNE01.JPG,AFNE01.JPG,AFNE01.JPG,AFNE01.JPG,3,1,31,6,,,,,,,,,,,,,,,,,,,,,,,AMSA04.jpg,AMNE20.jpg,AMNE16.jpg,AMSA12.jpg,AMSA04.jpg,MS,2,num_8,16,num_8,1.70006684202,,,2017_Jul_06_1438,60.0006927863,MAFE4ImagesEEG,001,200809,
AFNE01.JPG,AFNE01.JPG,AFNE01.JPG,AFNE01.JPG,AFNE01.JPG,AFNE01.JPG,3,2,32,2,,,,,,,,,,,,,,,,,,,,,,,AMNE02.jpg,AMNE15.jpg,AMSA13.jpg,AMSA14.jpg,AMSA13.jpg,MS,2,num_2,16,num_2,1.31680147327,,,2017_Jul_06_1438,60.0006927863,MAFE4ImagesEEG,001,200809,
AFNE01.JPG,AFNE01.JPG,AFNE01.JPG,AFNE01.JPG,AFNE01.JPG,AFNE01.JPG,3,3,33,4,,,,,,,,,,,,,,,,,,,,,,,AMSA06.jpg,AMSA02.jpg,AMNE15.jpg,AMNE07.jpg,AMNE15.jpg,MN,1,num_2,32,num_4,2.55001799343,,,2017_Jul_06_1438,60.0006927863,MAFE4ImagesEEG,001,200809,
AFNE01.JPG,AFNE01.JPG,AFNE01.JPG,AFNE01.JPG,AFNE01.JPG,AFNE01.JPG,3,4,34,0,,,,,,,,,,,,,,,,,,,,,,,AMNE01.jpg,AMSA09.jpg,AMSA19.jpg,AMNE11.jpg,AMSA09.jpg,MS,2,num_6,16,num_6,1.23339677555,,,2017_Jul_06_1438,60.0006927863,MAFE4ImagesEEG,001,200809,
AFNE01.JPG,AFNE01.JPG,AFNE01.JPG,AFNE01.JPG,AFNE01.JPG,AFNE01.JPG,3,5,35,8,,,,,,,,,,,,,,,,,,,,,,,AMNE03.jpg,AMSA01.jpg,AMNE17.jpg,AMSA05.jpg,AMNE03.jpg,MN,1,num_8,32,num_2,1.21679563588,,,2017_Jul_06_1438,60.0006927863,MAFE4ImagesEEG,001,200809,
AFNE01.JPG,AFNE01.JPG,AFNE01.JPG,AFNE01.JPG,AFNE01.JPG,AFNE01.JPG,3,6,36,9,,,,,,,,,,,,,,,,,,,,,,,AMSA02.jpg,AMNE01.jpg,AMNE05.jpg,AMSA05.jpg,AMNE05.jpg,MN,1,num_2,32,num_4,1.13344738819,,,2017_Jul_06_1438,60.0006927863,MAFE4ImagesEEG,001,200809,
AFNE01.JPG,AFNE01.JPG,AFNE01.JPG,AFNE01.JPG,AFNE01.JPG,AFNE01.JPG,3,7,37,3,,,,,,,,,,,,,,,,,,,,,,,AMNE14.jpg,AMSA13.jpg,AMSA20.jpg,AMNE04.jpg,AMSA13.jpg,MS,2,num_6,16,num_6,1.06674197619,,,2017_Jul_06_1438,60.0006927863,MAFE4ImagesEEG,001,200809,
AFNE01.JPG,AFNE01.JPG,AFNE01.JPG,AFNE01.JPG,AFNE01.JPG,AFNE01.JPG,3,8,38,7,,,,,,,,,,,,,,,,,,,,,,,AMNE09.jpg,AMNE02.jpg,AMSA09.jpg,AMSA12.jpg,AMSA09.jpg,MS,2,num_2,16,num_2,0.800108922995,,,2017_Jul_06_1438,60.0006927863,MAFE4ImagesEEG,001,200809,
AFNE01.JPG,AFNE01.JPG,AFNE01.JPG,AFNE01.JPG,AFNE01.JPG,AFNE01.JPG,3,9,39,1,,,,,,,,,,,,,,,,,,,,,,,AMSA04.jpg,AMNE15.jpg,AMNE03.jpg,AMSA11.jpg,AMSA11.jpg,MS,2,num_4,16,num_4,0.650157899945,,,2017_Jul_06_1438,60.0006927863,MAFE4ImagesEEG,001,200809,
AFNE01.JPG,AFNE01.JPG,AFNE01.JPG,AFNE01.JPG,AFNE01.JPG,AFNE01.JPG,4,0,40,5,,,,,,,,,,,,,,,,,,,,,,,AMNE19.jpg,AMNE02.jpg,AMSA12.jpg,AMSA09.jpg,AMSA09.jpg,MS,2,num_4,32,num_2,0.883468717337,,,2017_Jul_06_1438,60.0006927863,MAFE4ImagesEEG,001,200809,
AFNE01.JPG,AFNE01.JPG,AFNE01.JPG,AFNE01.JPG,AFNE01.JPG,AFNE01.JPG,4,1,41,7,,,,,,,,,,,,,,,,,,,,,,,AMSA03.jpg,AMSA04.jpg,AMNE01.jpg,AMNE17.jpg,AMNE17.jpg,MN,1,num_4,32,num_2,1.1167400839,,,2017_Jul_06_1438,60.0006927863,MAFE4ImagesEEG,001,200809,
AFNE01.JPG,AFNE01.JPG,AFNE01.JPG,AFNE01.JPG,AFNE01.JPG,AFNE01.JPG,4,2,42,4,,,,,,,,,,,,,,,,,,,,,,,AMSA08.jpg,AMSA03.jpg,AMNE16.jpg,AMNE03.jpg,AMNE03.jpg,MN,1,num_4,16,num_4,1.01680801646,,,2017_Jul_06_1438,60.0006927863,MAFE4ImagesEEG,001,200809,
AFNE01.JPG,AFNE01.JPG,AFNE01.JPG,AFNE01.JPG,AFNE01.JPG,AFNE01.JPG,4,3,43,1,,,,,,,,,,,,,,,,,,,,,,,AMNE18.jpg,AMSA02.jpg,AMNE17.jpg,AMSA16.jpg,AMNE18.jpg,MN,1,num_8,32,num_2,1.03346143651,,,2017_Jul_06_1438,60.0006927863,MAFE4ImagesEEG,001,200809,
AFNE01.JPG,AFNE01.JPG,AFNE01.JPG,AFNE01.JPG,AFNE01.JPG,AFNE01.JPG,4,4,44,3,,,,,,,,,,,,,,,,,,,,,,,AMSA06.jpg,AMNE17.jpg,AMNE07.jpg,AMSA01.jpg,AMSA06.jpg,MS,2,num_8,16,num_8,0.800103149726,,,2017_Jul_06_1438,60.0006927863,MAFE4ImagesEEG,001,200809,
AFNE01.JPG,AFNE01.JPG,AFNE01.JPG,AFNE01.JPG,AFNE01.JPG,AFNE01.JPG,4,5,45,6,,,,,,,,,,,,,,,,,,,,,,,AMSA18.jpg,AMNE14.jpg,AMSA14.jpg,AMNE19.jpg,AMSA14.jpg,MS,2,num_2,16,num_2,0.966759873438,,,2017_Jul_06_1438,60.0006927863,MAFE4ImagesEEG,001,200809,
AFNE01.JPG,AFNE01.JPG,AFNE01.JPG,AFNE01.JPG,AFNE01.JPG,AFNE01.JPG,4,6,46,0,,,,,,,,,,,,,,,,,,,,,,,AMNE20.jpg,AMNE01.jpg,AMSA10.jpg,AMSA06.jpg,AMNE20.jpg,MN,1,num_8,16,num_8,1.28341476899,,,2017_Jul_06_1438,60.0006927863,MAFE4ImagesEEG,001,200809,
AFNE01.JPG,AFNE01.JPG,AFNE01.JPG,AFNE01.JPG,AFNE01.JPG,AFNE01.JPG,4,7,47,2,,,,,,,,,,,,,,,,,,,,,,,AMSA11.jpg,AMNE08.jpg,AMSA08.jpg,AMNE02.jpg,AMSA08.jpg,MS,2,num_2,16,num_2,1.05013153516,,,2017_Jul_06_1438,60.0006927863,MAFE4ImagesEEG,001,200809,
AFNE01.JPG,AFNE01.JPG,AFNE01.JPG,AFNE01.JPG,AFNE01.JPG,AFNE01.JPG,4,8,48,8,,,,,,,,,,,,,,,,,,,,,,,AMSA15.jpg,AMNE11.jpg,AMNE09.jpg,AMSA17.jpg,AMSA17.jpg,MS,2,num_4,16,num_4,0.60018641362,,,2017_Jul_06_1438,60.0006927863,MAFE4ImagesEEG,001,200809,
AFNE01.JPG,AFNE01.JPG,AFNE01.JPG,AFNE01.JPG,AFNE01.JPG,AFNE01.JPG,4,9,49,9,,,,,,,,,,,,,,,,,,,,,,,AMSA05.jpg,AMSA19.jpg,AMNE12.jpg,AMNE02.jpg,AMNE02.jpg,MN,1,num_4,16,num_4,1.08307626087,,,2017_Jul_06_1438,60.0006927863,MAFE4ImagesEEG,001,200809,
AFNE01.JPG,AFNE01.JPG,AFNE01.JPG,AFNE01.JPG,AFNE01.JPG,AFNE01.JPG,5,0,50,9,,,,,,,,,,,,,,,,,,,,,,,AMSA15.jpg,AMSA06.jpg,AMNE07.jpg,AMNE15.jpg,AMNE15.jpg,MN,1,num_4,16,num_4,1.41672584298,,,2017_Jul_06_1438,60.0006927863,MAFE4ImagesEEG,001,200809,
AFNE01.JPG,AFNE01.JPG,AFNE01.JPG,AFNE01.JPG,AFNE01.JPG,AFNE01.JPG,5,1,51,1,,,,,,,,,,,,,,,,,,,,,,,AMSA19.jpg,AMNE08.jpg,AMNE10.jpg,AMSA03.jpg,AMNE08.jpg,MN,1,num_6,32,num_2,0.783322075498,,,2017_Jul_06_1438,60.0006927863,MAFE4ImagesEEG,001,200809,
AFNE01.JPG,AFNE01.JPG,AFNE01.JPG,AFNE01.JPG,AFNE01.JPG,AFNE01.JPG,5,2,52,0,,,,,,,,,,,,,,,,,,,,,,,AMSA08.jpg,AMNE20.jpg,AMNE06.jpg,AMSA12.jpg,AMSA08.jpg,MS,2,num_8,16,num_8,3.23327681911,,,2017_Jul_06_1438,60.0006927863,MAFE4ImagesEEG,001,200809,
AFNE01.JPG,AFNE01.JPG,AFNE01.JPG,AFNE01.JPG,AFNE01.JPG,AFNE01.JPG,5,3,53,3,,,,,,,,,,,,,,,,,,,,,,,AMSA02.jpg,AMNE01.jpg,AMSA09.jpg,AMNE13.jpg,AMNE13.jpg,MN,1,num_4,32,num_8,2.3666437018,,,2017_Jul_06_1438,60.0006927863,MAFE4ImagesEEG,001,200809,
AFNE01.JPG,AFNE01.JPG,AFNE01.JPG,AFNE01.JPG,AFNE01.JPG,AFNE01.JPG,5,4,54,7,,,,,,,,,,,,,,,,,,,,,,,AMSA01.jpg,AMNE12.jpg,AMNE06.jpg,AMSA12.jpg,AMNE06.jpg,MN,1,num_2,16,num_2,1.28338878916,,,2017_Jul_06_1438,60.0006927863,MAFE4ImagesEEG,001,200809,
AFNE01.JPG,AFNE01.JPG,AFNE01.JPG,AFNE01.JPG,AFNE01.JPG,AFNE01.JPG,5,5,55,5,,,,,,,,,,,,,,,,,,,,,,,AMSA15.jpg,AMNE04.jpg,AMNE09.jpg,AMSA05.jpg,AMSA15.jpg,MS,2,num_8,16,num_8,0.983442160068,,,2017_Jul_06_1438,60.0006927863,MAFE4ImagesEEG,001,200809,
AFNE01.JPG,AFNE01.JPG,AFNE01.JPG,AFNE01.JPG,AFNE01.JPG,AFNE01.JPG,5,6,56,6,,,,,,,,,,,,,,,,,,,,,,,AMNE09.jpg,AMNE03.jpg,AMSA19.jpg,AMSA02.jpg,AMNE03.jpg,MN,1,num_6,16,num_6,1.03339568502,,,2017_Jul_06_1438,60.0006927863,MAFE4ImagesEEG,001,200809,
AFNE01.JPG,AFNE01.JPG,AFNE01.JPG,AFNE01.JPG,AFNE01.JPG,AFNE01.JPG,5,7,57,8,,,,,,,,,,,,,,,,,,,,,,,AMSA05.jpg,AMSA15.jpg,AMNE09.jpg,AMNE12.jpg,AMNE12.jpg,MN,1,num_4,16,num_4,1.28339007206,,,2017_Jul_06_1438,60.0006927863,MAFE4ImagesEEG,001,200809,
AFNE01.JPG,AFNE01.JPG,AFNE01.JPG,AFNE01.JPG,AFNE01.JPG,AFNE01.JPG,5,8,58,2,,,,,,,,,,,,,,,,,,,,,,,AMNE06.jpg,AMNE16.jpg,AMSA17.jpg,AMSA08.jpg,AMSA17.jpg,MS,2,num_2,16,num_2,1.53343449451,,,2017_Jul_06_1438,60.0006927863,MAFE4ImagesEEG,001,200809,
AFNE01.JPG,AFNE01.JPG,AFNE01.JPG,AFNE01.JPG,AFNE01.JPG,AFNE01.JPG,5,9,59,4,,,,,,,,,,,,,,,,,,,,,,,AMNE02.jpg,AMNE04.jpg,AMSA15.jpg,AMSA05.jpg,AMSA05.jpg,MS,2,num_4,16,num_4,0.683471475728,,,2017_Jul_06_1438,60.0006927863,MAFE4ImagesEEG,001,200809,
,,,,,,,,,,,,,,,,,,,,,,,,,,,,,,,,,,,,,,,,,,,space,15.4152286325,2017_Jul_06_1438,60.0006927863,MAFE4ImagesEEG,001,200809,
AFNE01.JPG,AFNE01.JPG,AFNE01.JPG,AFNE01.JPG,AFNE01.JPG,AFNE01.JPG,,,,,0,0,0,3,,,,,,,,,,,,,,,,,,,AFNE05.jpg,AFSA16.jpg,AFNE09.jpg,AFSA19.jpg,AFSA19.jpg,FS,4,num_4,16,num_4,0.950129546574,,,2017_Jul_06_1438,60.0006927863,MAFE4ImagesEEG,001,200809,
AFNE01.JPG,AFNE01.JPG,AFNE01.JPG,AFNE01.JPG,AFNE01.JPG,AFNE01.JPG,,,,,0,1,1,6,,,,,,,,,,,,,,,,,,,AFSA15.jpg,AFNE03.jpg,AFSA07.jpg,AFNE15.jpg,AFSA15.jpg,FS,4,num_8,16,num_8,1.40021258593,,,2017_Jul_06_1438,60.0006927863,MAFE4ImagesEEG,001,200809,
AFNE01.JPG,AFNE01.JPG,AFNE01.JPG,AFNE01.JPG,AFNE01.JPG,AFNE01.JPG,,,,,0,2,2,2,,,,,,,,,,,,,,,,,,,AFSA16.jpg,AFNE07.jpg,AFNE05.jpg,AFSA04.jpg,AFNE05.jpg,FN,3,num_2,16,num_2,0.883291990031,,,2017_Jul_06_1438,60.0006927863,MAFE4ImagesEEG,001,200809,
AFNE01.JPG,AFNE01.JPG,AFNE01.JPG,AFNE01.JPG,AFNE01.JPG,AFNE01.JPG,,,,,0,3,3,1,,,,,,,,,,,,,,,,,,,AFSA13.jpg,AFNE12.jpg,AFNE03.jpg,AFSA02.jpg,AFNE12.jpg,FN,3,num_6,16,num_6,1.01676439599,,,2017_Jul_06_1438,60.0006927863,MAFE4ImagesEEG,001,200809,
AFNE01.JPG,AFNE01.JPG,AFNE01.JPG,AFNE01.JPG,AFNE01.JPG,AFNE01.JPG,,,,,0,4,4,8,,,,,,,,,,,,,,,,,,,AFNE12.jpg,AFNE02.jpg,AFSA19.jpg,AFSA07.jpg,AFNE02.jpg,FN,3,num_6,16,num_6,0.500191802043,,,2017_Jul_06_1438,60.0006927863,MAFE4ImagesEEG,001,200809,
AFNE01.JPG,AFNE01.JPG,AFNE01.JPG,AFNE01.JPG,AFNE01.JPG,AFNE01.JPG,,,,,0,5,5,5,,,,,,,,,,,,,,,,,,,AFSA09.jpg,AFSA04.jpg,AFNE11.jpg,AFNE04.jpg,AFNE11.jpg,FN,3,num_2,16,num_2,1.33340646187,,,2017_Jul_06_1438,60.0006927863,MAFE4ImagesEEG,001,200809,
AFNE01.JPG,AFNE01.JPG,AFNE01.JPG,AFNE01.JPG,AFNE01.JPG,AFNE01.JPG,,,,,0,6,6,9,,,,,,,,,,,,,,,,,,,AFNE04.jpg,AFNE14.jpg,AFSA05.jpg,AFSA09.jpg,AFSA05.jpg,FS,4,num_2,16,num_2,0.566809331416,,,2017_Jul_06_1438,60.0006927863,MAFE4ImagesEEG,001,200809,
AFNE01.JPG,AFNE01.JPG,AFNE01.JPG,AFNE01.JPG,AFNE01.JPG,AFNE01.JPG,,,,,0,7,7,0,,,,,,,,,,,,,,,,,,,AFNE08.jpg,AFNE05.jpg,AFSA12.jpg,AFSA15.jpg,AFSA15.jpg,FS,4,num_4,16,num_4,0.883474811446,,,2017_Jul_06_1438,60.0006927863,MAFE4ImagesEEG,001,200809,
AFNE01.JPG,AFNE01.JPG,AFNE01.JPG,AFNE01.JPG,AFNE01.JPG,AFNE01.JPG,,,,,0,8,8,4,,,,,,,,,,,,,,,,,,,AFNE11.jpg,AFNE17.jpg,AFSA01.jpg,AFSA04.jpg,AFNE11.jpg,FN,3,num_8,32,num_2,2.33331344754,,,2017_Jul_06_1438,60.0006927863,MAFE4ImagesEEG,001,200809,
AFNE01.JPG,AFNE01.JPG,AFNE01.JPG,AFNE01.JPG,AFNE01.JPG,AFNE01.JPG,,,,,0,9,9,7,,,,,,,,,,,,,,,,,,,AFSA17.jpg,AFNE18.jpg,AFNE15.jpg,AFSA01.jpg,AFNE18.jpg,FN,3,num_6,16,num_6,0.833496268839,,,2017_Jul_06_1438,60.0006927863,MAFE4ImagesEEG,001,200809,
AFNE01.JPG,AFNE01.JPG,AFNE01.JPG,AFNE01.JPG,AFNE01.JPG,AFNE01.JPG,,,,,1,0,10,2,,,,,,,,,,,,,,,,,,,AFNE15.jpg,AFSA01.jpg,AFNE07.jpg,AFSA11.jpg,AFSA11.jpg,FS,4,num_4,16,num_4,0.583491618163,,,2017_Jul_06_1438,60.0006927863,MAFE4ImagesEEG,001,200809,
AFNE01.JPG,AFNE01.JPG,AFNE01.JPG,AFNE01.JPG,AFNE01.JPG,AFNE01.JPG,,,,,1,1,11,9,,,,,,,,,,,,,,,,,,,AFNE07.jpg,AFSA13.jpg,AFNE03.jpg,AFSA12.jpg,AFNE07.jpg,FN,3,num_8,16,num_8,1.76669431443,,,2017_Jul_06_1438,60.0006927863,MAFE4ImagesEEG,001,200809,
AFNE01.JPG,AFNE01.JPG,AFNE01.JPG,AFNE01.JPG,AFNE01.JPG,AFNE01.JPG,,,,,1,2,12,4,,,,,,,,,,,,,,,,,,,AFNE15.jpg,AFSA10.jpg,AFNE06.jpg,AFSA07.jpg,AFSA07.jpg,FS,4,num_4,16,num_4,0.983477441478,,,2017_Jul_06_1438,60.0006927863,MAFE4ImagesEEG,001,200809,
AFNE01.JPG,AFNE01.JPG,AFNE01.JPG,AFNE01.JPG,AFNE01.JPG,AFNE01.JPG,,,,,1,3,13,7,,,,,,,,,,,,,,,,,,,AFNE17.jpg,AFSA19.jpg,AFSA01.jpg,AFNE15.jpg,AFSA19.jpg,FS,4,num_6,32,num_8,1.61670993443,,,2017_Jul_06_1438,60.0006927863,MAFE4ImagesEEG,001,200809,
AFNE01.JPG,AFNE01.JPG,AFNE01.JPG,AFNE01.JPG,AFNE01.JPG,AFNE01.JPG,,,,,1,4,14,3,,,,,,,,,,,,,,,,,,,AFSA15.jpg,AFSA14.jpg,AFNE03.jpg,AFNE02.jpg,AFNE02.jpg,FN,3,num_4,16,num_4,2.19998633652,,,2017_Jul_06_1438,60.0006927863,MAFE4ImagesEEG,001,200809,
AFNE01.JPG,AFNE01.JPG,AFNE01.JPG,AFNE01.JPG,AFNE01.JPG,AFNE01.JPG,,,,,1,5,15,1,,,,,,,,,,,,,,,,,,,AFSA03.jpg,AFNE06.jpg,AFSA12.jpg,AFNE18.jpg,AFSA12.jpg,FS,4,num_2,32,num_8,1.13341338991,,,2017_Jul_06_1438,60.0006927863,MAFE4ImagesEEG,001,200809,
AFNE01.JPG,AFNE01.JPG,AFNE01.JPG,AFNE01.JPG,AFNE01.JPG,AFNE01.JPG,,,,,1,6,16,5,,,,,,,,,,,,,,,,,,,AFNE16.jpg,AFSA10.jpg,AFSA18.jpg,AFNE05.jpg,AFSA18.jpg,FS,4,num_2,16,num_2,2.99998107646,,,2017_Jul_06_1438,60.0006927863,MAFE4ImagesEEG,001,200809,
AFNE01.JPG,AFNE01.JPG,AFNE01.JPG,AFNE01.JPG,AFNE01.JPG,AFNE01.JPG,,,,,1,7,17,0,,,,,,,,,,,,,,,,,,,AFNE13.jpg,AFSA04.jpg,AFSA18.jpg,AFNE06.jpg,AFNE06.jpg,FN,3,num_4,16,num_4,0.983267036499,,,2017_Jul_06_1438,60.0006927863,MAFE4ImagesEEG,001,200809,
AFNE01.JPG,AFNE01.JPG,AFNE01.JPG,AFNE01.JPG,AFNE01.JPG,AFNE01.JPG,,,,,1,8,18,6,,,,,,,,,,,,,,,,,,,AFNE10.jpg,AFSA08.jpg,AFSA13.jpg,AFNE16.jpg,AFNE10.jpg,FN,3,num_8,32,num_6,1.8000271346,,,2017_Jul_06_1438,60.0006927863,MAFE4ImagesEEG,001,200809,
AFNE01.JPG,AFNE01.JPG,AFNE01.JPG,AFNE01.JPG,AFNE01.JPG,AFNE01.JPG,,,,,1,9,19,8,,,,,,,,,,,,,,,,,,,AFSA18.jpg,AFNE04.jpg,AFNE03.jpg,AFSA03.jpg,AFNE03.jpg,FN,3,num_2,32,num_4,0.850115690613,,,2017_Jul_06_1438,60.0006927863,MAFE4ImagesEEG,001,200809,
AFNE01.JPG,AFNE01.JPG,AFNE01.JPG,AFNE01.JPG,AFNE01.JPG,AFNE01.JPG,,,,,2,0,20,9,,,,,,,,,,,,,,,,,,,AFNE09.jpg,AFSA17.jpg,AFNE06.jpg,AFSA06.jpg,AFNE09.jpg,FN,3,num_8,16,num_8,3.08328794874,,,2017_Jul_06_1438,60.0006927863,MAFE4ImagesEEG,001,200809,
AFNE01.JPG,AFNE01.JPG,AFNE01.JPG,AFNE01.JPG,AFNE01.JPG,AFNE01.JPG,,,,,2,1,21,3,,,,,,,,,,,,,,,,,,,AFSA08.jpg,AFNE18.jpg,AFSA17.jpg,AFNE15.jpg,AFSA17.jpg,FS,4,num_2,16,num_2,0.850172140636,,,2017_Jul_06_1438,60.0006927863,MAFE4ImagesEEG,001,200809,
AFNE01.JPG,AFNE01.JPG,AFNE01.JPG,AFNE01.JPG,AFNE01.JPG,AFNE01.JPG,,,,,2,2,22,8,,,,,,,,,,,,,,,,,,,AFNE12.jpg,AFSA06.jpg,AFNE17.jpg,AFSA03.jpg,AFSA06.jpg,FS,4,num_6,32,num_4,2.11672468844,,,2017_Jul_06_1438,60.0006927863,MAFE4ImagesEEG,001,200809,
AFNE01.JPG,AFNE01.JPG,AFNE01.JPG,AFNE01.JPG,AFNE01.JPG,AFNE01.JPG,,,,,2,3,23,4,,,,,,,,,,,,,,,,,,,AFNE19.jpg,AFSA01.jpg,AFSA20.jpg,AFNE18.jpg,AFNE19.jpg,FN,3,num_8,16,num_8,1.16676224698,,,2017_Jul_06_1438,60.0006927863,MAFE4ImagesEEG,001,200809,
AFNE01.JPG,AFNE01.JPG,AFNE01.JPG,AFNE01.JPG,AFNE01.JPG,AFNE01.JPG,,,,,2,4,24,1,,,,,,,,,,,,,,,,,,,AFSA01.jpg,AFNE06.jpg,AFSA10.jpg,AFNE01.jpg,AFNE01.jpg,FN,3,num_4,16,num_4,0.950181827066,,,2017_Jul_06_1438,60.0006927863,MAFE4ImagesEEG,001,200809,
AFNE01.JPG,AFNE01.JPG,AFNE01.JPG,AFNE01.JPG,AFNE01.JPG,AFNE01.JPG,,,,,2,5,25,2,,,,,,,,,,,,,,,,,,,AFSA01.jpg,AFNE14.jpg,AFNE15.jpg,AFSA10.jpg,AFSA10.jpg,FS,4,num_4,32,num_6,1.20007133239,,,2017_Jul_06_1438,60.0006927863,MAFE4ImagesEEG,001,200809,
AFNE01.JPG,AFNE01.JPG,AFNE01.JPG,AFNE01.JPG,AFNE01.JPG,AFNE01.JPG,,,,,2,6,26,7,,,,,,,,,,,,,,,,,,,AFNE01.jpg,AFNE05.jpg,AFSA04.jpg,AFSA03.jpg,AFSA04.jpg,FS,4,num_2,16,num_2,1.20009506703,,,2017_Jul_06_1438,60.0006927863,MAFE4ImagesEEG,001,200809,
AFNE01.JPG,AFNE01.JPG,AFNE01.JPG,AFNE01.JPG,AFNE01.JPG,AFNE01.JPG,,,,,2,7,27,6,,,,,,,,,,,,,,,,,,,AFSA08.jpg,AFSA01.jpg,AFNE12.jpg,AFNE02.jpg,AFNE12.jpg,FN,3,num_2,32,num_8,1.05012223369,,,2017_Jul_06_1438,60.0006927863,MAFE4ImagesEEG,001,200809,
AFNE01.JPG,AFNE01.JPG,AFNE01.JPG,AFNE01.JPG,AFNE01.JPG,AFNE01.JPG,,,,,2,8,28,0,,,,,,,,,,,,,,,,,,,AFNE09.jpg,AFNE01.jpg,AFSA07.jpg,AFSA15.jpg,AFSA07.jpg,FS,4,num_2,32,num_4,1.0334806809,,,2017_Jul_06_1438,60.0006927863,MAFE4ImagesEEG,001,200809,
AFNE01.JPG,AFNE01.JPG,AFNE01.JPG,AFNE01.JPG,AFNE01.JPG,AFNE01.JPG,,,,,2,9,29,5,,,,,,,,,,,,,,,,,,,AFNE04.jpg,AFNE02.jpg,AFSA14.jpg,AFSA18.jpg,AFNE04.jpg,FN,3,num_8,16,num_8,0.566802275134,,,2017_Jul_06_1438,60.0006927863,MAFE4ImagesEEG,001,200809,
AFNE01.JPG,AFNE01.JPG,AFNE01.JPG,AFNE01.JPG,AFNE01.JPG,AFNE01.JPG,,,,,3,0,30,5,,,,,,,,,,,,,,,,,,,AFSA20.jpg,AFNE02.jpg,AFNE16.jpg,AFSA19.jpg,AFSA20.jpg,FS,4,num_8,32,num_4,1.05009817821,,,2017_Jul_06_1438,60.0006927863,MAFE4ImagesEEG,001,200809,
AFNE01.JPG,AFNE01.JPG,AFNE01.JPG,AFNE01.JPG,AFNE01.JPG,AFNE01.JPG,,,,,3,1,31,6,,,,,,,,,,,,,,,,,,,AFSA04.jpg,AFSA19.jpg,AFNE06.jpg,AFNE17.jpg,AFNE06.jpg,FN,3,num_2,16,num_2,1.78342920239,,,2017_Jul_06_1438,60.0006927863,MAFE4ImagesEEG,001,200809,
AFNE01.JPG,AFNE01.JPG,AFNE01.JPG,AFNE01.JPG,AFNE01.JPG,AFNE01.JPG,,,,,3,2,32,0,,,,,,,,,,,,,,,,,,,AFSA08.jpg,AFNE14.jpg,AFNE01.jpg,AFSA02.jpg,AFNE14.jpg,FN,3,num_6,16,num_6,0.833448478719,,,2017_Jul_06_1438,60.0006927863,MAFE4ImagesEEG,001,200809,
AFNE01.JPG,AFNE01.JPG,AFNE01.JPG,AFNE01.JPG,AFNE01.JPG,AFNE01.JPG,,,,,3,3,33,4,,,,,,,,,,,,,,,,,,,AFSA13.jpg,AFNE13.jpg,AFSA14.jpg,AFNE10.jpg,AFNE13.jpg,FN,3,num_6,32,num_2,0.800121431821,,,2017_Jul_06_1438,60.0006927863,MAFE4ImagesEEG,001,200809,
AFNE01.JPG,AFNE01.JPG,AFNE01.JPG,AFNE01.JPG,AFNE01.JPG,AFNE01.JPG,,,,,3,4,34,7,,,,,,,,,,,,,,,,,,,AFSA01.jpg,AFNE19.jpg,AFSA04.jpg,AFNE03.jpg,AFSA01.jpg,FS,4,num_8,16,num_8,0.966616823804,,,2017_Jul_06_1438,60.0006927863,MAFE4ImagesEEG,001,200809,
AFNE01.JPG,AFNE01.JPG,AFNE01.JPG,AFNE01.JPG,AFNE01.JPG,AFNE01.JPG,,,,,3,5,35,1,,,,,,,,,,,,,,,,,,,AFSA15.jpg,AFNE12.jpg,AFSA19.jpg,AFNE20.jpg,AFSA19.jpg,FS,4,num_2,32,num_8,0.800177561119,,,2017_Jul_06_1438,60.0006927863,MAFE4ImagesEEG,001,200809,
AFNE01.JPG,AFNE01.JPG,AFNE01.JPG,AFNE01.JPG,AFNE01.JPG,AFNE01.JPG,,,,,3,6,36,9,,,,,,,,,,,,,,,,,,,AFSA19.jpg,AFSA02.jpg,AFNE02.jpg,AFNE03.jpg,AFSA02.jpg,FS,4,num_6,32,num_4,0.749992141966,,,2017_Jul_06_1438,60.0006927863,MAFE4ImagesEEG,001,200809,
AFNE01.JPG,AFNE01.JPG,AFNE01.JPG,AFNE01.JPG,AFNE01.JPG,AFNE01.JPG,,,,,3,7,37,8,,,,,,,,,,,,,,,,,,,AFSA20.jpg,AFNE13.jpg,AFSA18.jpg,AFNE06.jpg,AFSA18.jpg,FS,4,num_2,16,num_2,0.8337393892,,,2017_Jul_06_1438,60.0006927863,MAFE4ImagesEEG,001,200809,
AFNE01.JPG,AFNE01.JPG,AFNE01.JPG,AFNE01.JPG,AFNE01.JPG,AFNE01.JPG,,,,,3,8,38,2,,,,,,,,,,,,,,,,,,,AFNE11.jpg,AFNE07.jpg,AFSA06.jpg,AFSA17.jpg,AFNE07.jpg,FN,3,num_6,16,num_6,0.866767827771,,,2017_Jul_06_1438,60.0006927863,MAFE4ImagesEEG,001,200809,
AFNE01.JPG,AFNE01.JPG,AFNE01.JPG,AFNE01.JPG,AFNE01.JPG,AFNE01.JPG,,,,,3,9,39,3,,,,,,,,,,,,,,,,,,,AFSA19.jpg,AFSA03.jpg,AFNE02.jpg,AFNE20.jpg,AFSA03.jpg,FS,4,num_6,32,num_4,1.50005677075,,,2017_Jul_06_1438,60.0006927863,MAFE4ImagesEEG,001,200809,
AFNE01.JPG,AFNE01.JPG,AFNE01.JPG,AFNE01.JPG,AFNE01.JPG,AFNE01.JPG,,,,,4,0,40,6,,,,,,,,,,,,,,,,,,,AFNE04.jpg,AFSA13.jpg,AFSA12.jpg,AFNE14.jpg,AFNE14.jpg,FN,3,num_4,16,num_4,1.00009782554,,,2017_Jul_06_1438,60.0006927863,MAFE4ImagesEEG,001,200809,
AFNE01.JPG,AFNE01.JPG,AFNE01.JPG,AFNE01.JPG,AFNE01.JPG,AFNE01.JPG,,,,,4,1,41,1,,,,,,,,,,,,,,,,,,,AFSA03.jpg,AFNE16.jpg,AFNE14.jpg,AFSA20.jpg,AFSA03.jpg,FS,4,num_8,16,num_8,0.783474747324,,,2017_Jul_06_1438,60.0006927863,MAFE4ImagesEEG,001,200809,
AFNE01.JPG,AFNE01.JPG,AFNE01.JPG,AFNE01.JPG,AFNE01.JPG,AFNE01.JPG,,,,,4,2,42,9,,,,,,,,,,,,,,,,,,,AFNE03.jpg,AFNE09.jpg,AFSA13.jpg,AFSA03.jpg,AFSA03.jpg,FS,4,num_4,32,num_2,0.783482124214,,,2017_Jul_06_1438,60.0006927863,MAFE4ImagesEEG,001,200809,
AFNE01.JPG,AFNE01.JPG,AFNE01.JPG,AFNE01.JPG,AFNE01.JPG,AFNE01.JPG,,,,,4,3,43,5,,,,,,,,,,,,,,,,,,,AFNE13.jpg,AFNE02.jpg,AFSA04.jpg,AFSA10.jpg,AFNE02.jpg,FN,3,num_6,32,num_4,2.66690176853,,,2017_Jul_06_1438,60.0006927863,MAFE4ImagesEEG,001,200809,
AFNE01.JPG,AFNE01.JPG,AFNE01.JPG,AFNE01.JPG,AFNE01.JPG,AFNE01.JPG,,,,,4,4,44,2,,,,,,,,,,,,,,,,,,,AFSA19.jpg,AFSA04.jpg,AFNE09.jpg,AFNE03.jpg,AFNE03.jpg,FN,3,num_4,32,num_8,1.05009015987,,,2017_Jul_06_1438,60.0006927863,MAFE4ImagesEEG,001,200809,
AFNE01.JPG,AFNE01.JPG,AFNE01.JPG,AFNE01.JPG,AFNE01.JPG,AFNE01.JPG,,,,,4,5,45,0,,,,,,,,,,,,,,,,,,,AFSA08.jpg,AFNE15.jpg,AFNE09.jpg,AFSA04.jpg,AFNE15.jpg,FN,3,num_6,16,num_6,0.46677975927,,,2017_Jul_06_1438,60.0006927863,MAFE4ImagesEEG,001,200809,
AFNE01.JPG,AFNE01.JPG,AFNE01.JPG,AFNE01.JPG,AFNE01.JPG,AFNE01.JPG,,,,,4,6,46,7,,,,,,,,,,,,,,,,,,,AFSA19.jpg,AFNE17.jpg,AFSA16.jpg,AFNE02.jpg,AFSA19.jpg,FS,4,num_8,16,num_8,0.816779663088,,,2017_Jul_06_1438,60.0006927863,MAFE4ImagesEEG,001,200809,
AFNE01.JPG,AFNE01.JPG,AFNE01.JPG,AFNE01.JPG,AFNE01.JPG,AFNE01.JPG,,,,,4,7,47,8,,,,,,,,,,,,,,,,,,,AFSA15.jpg,AFNE06.jpg,AFNE12.jpg,AFSA12.jpg,AFSA15.jpg,FS,4,num_8,16,num_8,1.03347266233,,,2017_Jul_06_1438,60.0006927863,MAFE4ImagesEEG,001,200809,
AFNE01.JPG,AFNE01.JPG,AFNE01.JPG,AFNE01.JPG,AFNE01.JPG,AFNE01.JPG,,,,,4,8,48,3,,,,,,,,,,,,,,,,,,,AFSA20.jpg,AFSA17.jpg,AFNE16.jpg,AFNE11.jpg,AFSA20.jpg,FS,4,num_8,16,num_8,0.566754805739,,,2017_Jul_06_1438,60.0006927863,MAFE4ImagesEEG,001,200809,
AFNE01.JPG,AFNE01.JPG,AFNE01.JPG,AFNE01.JPG,AFNE01.JPG,AFNE01.JPG,,,,,4,9,49,4,,,,,,,,,,,,,,,,,,,AFSA06.jpg,AFSA16.jpg,AFNE19.jpg,AFNE03.jpg,AFNE03.jpg,FN,3,num_4,32,num_2,1.98335748492,,,2017_Jul_06_1438,60.0006927863,MAFE4ImagesEEG,001,200809,
AFNE01.JPG,AFNE01.JPG,AFNE01.JPG,AFNE01.JPG,AFNE01.JPG,AFNE01.JPG,,,,,5,0,50,9,,,,,,,,,,,,,,,,,,,AFSA13.jpg,AFNE18.jpg,AFNE11.jpg,AFSA19.jpg,AFSA19.jpg,FS,4,num_4,32,num_6,1.18339161156,,,2017_Jul_06_1438,60.0006927863,MAFE4ImagesEEG,001,200809,
AFNE01.JPG,AFNE01.JPG,AFNE01.JPG,AFNE01.JPG,AFNE01.JPG,AFNE01.JPG,,,,,5,1,51,4,,,,,,,,,,,,,,,,,,,AFSA09.jpg,AFSA08.jpg,AFNE08.jpg,AFNE14.jpg,AFNE14.jpg,FN,3,num_4,32,num_2,2.01643980783,,,2017_Jul_06_1438,60.0006927863,MAFE4ImagesEEG,001,200809,
AFNE01.JPG,AFNE01.JPG,AFNE01.JPG,AFNE01.JPG,AFNE01.JPG,AFNE01.JPG,,,,,5,2,52,3,,,,,,,,,,,,,,,,,,,AFSA11.jpg,AFNE04.jpg,AFSA12.jpg,AFNE16.jpg,AFSA11.jpg,FS,4,num_8,16,num_8,1.01676471659,,,2017_Jul_06_1438,60.0006927863,MAFE4ImagesEEG,001,200809,
AFNE01.JPG,AFNE01.JPG,AFNE01.JPG,AFNE01.JPG,AFNE01.JPG,AFNE01.JPG,,,,,5,3,53,8,,,,,,,,,,,,,,,,,,,AFNE08.jpg,AFNE14.jpg,AFSA02.jpg,AFSA01.jpg,AFSA02.jpg,FS,4,num_2,32,num_6,1.53340851457,,,2017_Jul_06_1438,60.0006927863,MAFE4ImagesEEG,001,200809,
AFNE01.JPG,AFNE01.JPG,AFNE01.JPG,AFNE01.JPG,AFNE01.JPG,AFNE01.JPG,,,,,5,4,54,5,,,,,,,,,,,,,,,,,,,AFNE13.jpg,AFSA17.jpg,AFNE17.jpg,AFSA19.jpg,AFNE17.jpg,FN,3,num_2,32,num_4,1.21671897918,,,2017_Jul_06_1438,60.0006927863,MAFE4ImagesEEG,001,200809,
AFNE01.JPG,AFNE01.JPG,AFNE01.JPG,AFNE01.JPG,AFNE01.JPG,AFNE01.JPG,,,,,5,5,55,6,,,,,,,,,,,,,,,,,,,AFSA06.jpg,AFSA07.jpg,AFNE19.jpg,AFNE07.jpg,AFSA06.jpg,FS,4,num_8,16,num_8,0.750103438389,,,2017_Jul_06_1438,60.0006927863,MAFE4ImagesEEG,001,200809,
AFNE01.JPG,AFNE01.JPG,AFNE01.JPG,AFNE01.JPG,AFNE01.JPG,AFNE01.JPG,,,,,5,6,56,0,,,,,,,,,,,,,,,,,,,AFNE20.jpg,AFSA16.jpg,AFSA11.jpg,AFNE18.jpg,AFSA16.jpg,FS,4,num_6,16,num_6,0.483469743747,,,2017_Jul_06_1438,60.0006927863,MAFE4ImagesEEG,001,200809,
AFNE01.JPG,AFNE01.JPG,AFNE01.JPG,AFNE01.JPG,AFNE01.JPG,AFNE01.JPG,,,,,5,7,57,1,,,,,,,,,,,,,,,,,,,AFNE04.jpg,AFNE11.jpg,AFSA04.jpg,AFSA11.jpg,AFSA04.jpg,FS,4,num_2,16,num_2,2.31666708365,,,2017_Jul_06_1438,60.0006927863,MAFE4ImagesEEG,001,200809,
AFNE01.JPG,AFNE01.JPG,AFNE01.JPG,AFNE01.JPG,AFNE01.JPG,AFNE01.JPG,,,,,5,8,58,7,,,,,,,,,,,,,,,,,,,AFSA07.jpg,AFNE02.jpg,AFNE09.jpg,AFSA14.jpg,AFNE09.jpg,FN,3,num_2,16,num_2,1.03343257005,,,2017_Jul_06_1438,60.0006927863,MAFE4ImagesEEG,001,200809,
AFNE01.JPG,AFNE01.JPG,AFNE01.JPG,AFNE01.JPG,AFNE01.JPG,AFNE01.JPG,,,,,5,9,59,2,,,,,,,,,,,,,,,,,,,AFNE03.jpg,AFSA14.jpg,AFNE05.jpg,AFSA05.jpg,AFSA05.jpg,FS,4,num_4,16,num_4,0.600145358942,,,2017_Jul_06_1438,60.0006927863,MAFE4ImagesEEG,001,200809,
,,,,,,,,,,,,,,,,,,,,,,,,,,,,,,,,,,,,,,,,,,,space,29.4977734286,2017_Jul_06_1438,60.0006927863,MAFE4ImagesEEG,001,200809,
AFNE01.JPG,AFNE01.JPG,AFNE01.JPG,AFNE01.JPG,AFNE01.JPG,AFNE01.JPG,,,,,,,,,0,0,0,1,,,,,,,,,,,,,,,AMSA10.jpg,AMNE11.jpg,AMSA08.jpg,AMNE01.jpg,AMNE01.jpg,MN,1,num_4,32,num_2,1.41670467425,,,2017_Jul_06_1438,60.0006927863,MAFE4ImagesEEG,001,200809,
AFNE01.JPG,AFNE01.JPG,AFNE01.JPG,AFNE01.JPG,AFNE01.JPG,AFNE01.JPG,,,,,,,,,0,1,1,7,,,,,,,,,,,,,,,AMSA14.jpg,AMSA19.jpg,AMNE06.jpg,AMNE19.jpg,AMNE19.jpg,MN,1,num_4,16,num_4,0.48349732731,,,2017_Jul_06_1438,60.0006927863,MAFE4ImagesEEG,001,200809,
AFNE01.JPG,AFNE01.JPG,AFNE01.JPG,AFNE01.JPG,AFNE01.JPG,AFNE01.JPG,,,,,,,,,0,2,2,8,,,,,,,,,,,,,,,AMSA14.jpg,AMNE05.jpg,AMNE08.jpg,AMSA13.jpg,AMNE05.jpg,MN,1,num_6,16,num_6,1.43337316916,,,2017_Jul_06_1438,60.0006927863,MAFE4ImagesEEG,001,200809,
AFNE01.JPG,AFNE01.JPG,AFNE01.JPG,AFNE01.JPG,AFNE01.JPG,AFNE01.JPG,,,,,,,,,0,3,3,0,,,,,,,,,,,,,,,AMNE02.jpg,AMSA14.jpg,AMNE15.jpg,AMSA13.jpg,AMNE15.jpg,MN,1,num_2,16,num_2,2.43328143784,,,2017_Jul_06_1438,60.0006927863,MAFE4ImagesEEG,001,200809,
AFNE01.JPG,AFNE01.JPG,AFNE01.JPG,AFNE01.JPG,AFNE01.JPG,AFNE01.JPG,,,,,,,,,0,4,4,6,,,,,,,,,,,,,,,AMSA20.jpg,AMNE10.jpg,AMSA11.jpg,AMNE06.jpg,AMSA20.jpg,MS,2,num_8,16,num_8,1.43344244885,,,2017_Jul_06_1438,60.0006927863,MAFE4ImagesEEG,001,200809,
AFNE01.JPG,AFNE01.JPG,AFNE01.JPG,AFNE01.JPG,AFNE01.JPG,AFNE01.JPG,,,,,,,,,0,5,5,3,,,,,,,,,,,,,,,AMNE09.jpg,AMSA09.jpg,AMSA17.jpg,AMNE01.jpg,AMNE09.jpg,MN,1,num_8,16,num_8,1.03342936258,,,2017_Jul_06_1438,60.0006927863,MAFE4ImagesEEG,001,200809,
AFNE01.JPG,AFNE01.JPG,AFNE01.JPG,AFNE01.JPG,AFNE01.JPG,AFNE01.JPG,,,,,,,,,0,6,6,4,,,,,,,,,,,,,,,AMSA15.jpg,AMNE05.jpg,AMSA19.jpg,AMNE15.jpg,AMSA19.jpg,MS,2,num_2,16,num_2,2.41662224429,,,2017_Jul_06_1438,60.0006927863,MAFE4ImagesEEG,001,200809,
AFNE01.JPG,AFNE01.JPG,AFNE01.JPG,AFNE01.JPG,AFNE01.JPG,AFNE01.JPG,,,,,,,,,0,7,7,5,,,,,,,,,,,,,,,AMSA01.jpg,AMSA19.jpg,AMNE17.jpg,AMNE02.jpg,AMNE02.jpg,MN,1,num_4,16,num_4,1.2000921804,,,2017_Jul_06_1438,60.0006927863,MAFE4ImagesEEG,001,200809,
AFNE01.JPG,AFNE01.JPG,AFNE01.JPG,AFNE01.JPG,AFNE01.JPG,AFNE01.JPG,,,,,,,,,0,8,8,9,,,,,,,,,,,,,,,AMSA01.jpg,AMNE02.jpg,AMSA17.jpg,AMNE20.jpg,AMSA17.jpg,MS,2,num_2,16,num_2,0.766831269953,,,2017_Jul_06_1438,60.0006927863,MAFE4ImagesEEG,001,200809,
AFNE01.JPG,AFNE01.JPG,AFNE01.JPG,AFNE01.JPG,AFNE01.JPG,AFNE01.JPG,,,,,,,,,0,9,9,2,,,,,,,,,,,,,,,AMSA03.jpg,AMNE15.jpg,AMNE10.jpg,AMSA07.jpg,AMSA03.jpg,MS,2,num_8,16,num_8,2.08336332242,,,2017_Jul_06_1438,60.0006927863,MAFE4ImagesEEG,001,200809,
AFNE01.JPG,AFNE01.JPG,AFNE01.JPG,AFNE01.JPG,AFNE01.JPG,AFNE01.JPG,,,,,,,,,1,0,10,9,,,,,,,,,,,,,,,AMNE02.jpg,AMSA06.jpg,AMNE17.jpg,AMSA02.jpg,AMSA02.jpg,MS,2,num_4,16,num_4,1.06675769237,,,2017_Jul_06_1438,60.0006927863,MAFE4ImagesEEG,001,200809,
AFNE01.JPG,AFNE01.JPG,AFNE01.JPG,AFNE01.JPG,AFNE01.JPG,AFNE01.JPG,,,,,,,,,1,1,11,5,,,,,,,,,,,,,,,AMSA05.jpg,AMNE17.jpg,AMNE05.jpg,AMSA01.jpg,AMNE17.jpg,MN,1,num_6,16,num_6,0.850109917345,,,2017_Jul_06_1438,60.0006927863,MAFE4ImagesEEG,001,200809,
AFNE01.JPG,AFNE01.JPG,AFNE01.JPG,AFNE01.JPG,AFNE01.JPG,AFNE01.JPG,,,,,,,,,1,2,12,6,,,,,,,,,,,,,,,AMNE14.jpg,AMSA13.jpg,AMNE10.jpg,AMSA11.jpg,AMNE10.jpg,MN,1,num_2,16,num_2,1.96670983813,,,2017_Jul_06_1438,60.0006927863,MAFE4ImagesEEG,001,200809,
AFNE01.JPG,AFNE01.JPG,AFNE01.JPG,AFNE01.JPG,AFNE01.JPG,AFNE01.JPG,,,,,,,,,1,3,13,8,,,,,,,,,,,,,,,AMNE11.jpg,AMSA01.jpg,AMSA03.jpg,AMNE15.jpg,AMNE11.jpg,MN,1,num_8,32,num_4,0.766750123003,,,2017_Jul_06_1438,60.0006927863,MAFE4ImagesEEG,001,200809,
AFNE01.JPG,AFNE01.JPG,AFNE01.JPG,AFNE01.JPG,AFNE01.JPG,AFNE01.JPG,,,,,,,,,1,4,14,4,,,,,,,,,,,,,,,AMSA04.jpg,AMNE19.jpg,AMSA16.jpg,AMNE17.jpg,AMNE17.jpg,MN,1,num_4,16,num_4,1.13348619768,,,2017_Jul_06_1438,60.0006927863,MAFE4ImagesEEG,001,200809,
AFNE01.JPG,AFNE01.JPG,AFNE01.JPG,AFNE01.JPG,AFNE01.JPG,AFNE01.JPG,,,,,,,,,1,5,15,2,,,,,,,,,,,,,,,AMSA01.jpg,AMSA13.jpg,AMNE14.jpg,AMNE05.jpg,AMSA13.jpg,MS,2,num_6,16,num_6,0.483483214746,,,2017_Jul_06_1438,60.0006927863,MAFE4ImagesEEG,001,200809,
AFNE01.JPG,AFNE01.JPG,AFNE01.JPG,AFNE01.JPG,AFNE01.JPG,AFNE01.JPG,,,,,,,,,1,6,16,1,,,,,,,,,,,,,,,AMNE06.jpg,AMSA16.jpg,AMSA05.jpg,AMNE19.jpg,AMNE19.jpg,MN,1,num_4,16,num_4,1.18308273982,,,2017_Jul_06_1438,60.0006927863,MAFE4ImagesEEG,001,200809,
AFNE01.JPG,AFNE01.JPG,AFNE01.JPG,AFNE01.JPG,AFNE01.JPG,AFNE01.JPG,,,,,,,,,1,7,17,7,,,,,,,,,,,,,,,AMSA13.jpg,AMSA01.jpg,AMNE02.jpg,AMNE11.jpg,AMSA01.jpg,MS,2,num_6,32,num_2,1.86672998057,,,2017_Jul_06_1438,60.0006927863,MAFE4ImagesEEG,001,200809,
AFNE01.JPG,AFNE01.JPG,AFNE01.JPG,AFNE01.JPG,AFNE01.JPG,AFNE01.JPG,,,,,,,,,1,8,18,3,,,,,,,,,,,,,,,AMSA18.jpg,AMNE16.jpg,AMSA01.jpg,AMNE12.jpg,AMNE12.jpg,MN,1,num_4,16,num_4,0.733492355794,,,2017_Jul_06_1438,60.0006927863,MAFE4ImagesEEG,001,200809,
AFNE01.JPG,AFNE01.JPG,AFNE01.JPG,AFNE01.JPG,AFNE01.JPG,AFNE01.JPG,,,,,,,,,1,9,19,0,,,,,,,,,,,,,,,AMNE07.jpg,AMSA04.jpg,AMNE10.jpg,AMSA08.jpg,AMSA04.jpg,MS,2,num_6,32,num_4,1.53340819385,,,2017_Jul_06_1438,60.0006927863,MAFE4ImagesEEG,001,200809,
AFNE01.JPG,AFNE01.JPG,AFNE01.JPG,AFNE01.JPG,AFNE01.JPG,AFNE01.JPG,,,,,,,,,2,0,20,7,,,,,,,,,,,,,,,AMSA11.jpg,AMNE05.jpg,AMSA12.jpg,AMNE01.jpg,AMSA11.jpg,MS,2,num_8,32,num_4,2.40025428205,,,2017_Jul_06_1438,60.0006927863,MAFE4ImagesEEG,001,200809,
AFNE01.JPG,AFNE01.JPG,AFNE01.JPG,AFNE01.JPG,AFNE01.JPG,AFNE01.JPG,,,,,,,,,2,1,21,6,,,,,,,,,,,,,,,AMSA11.jpg,AMSA12.jpg,AMNE09.jpg,AMNE08.jpg,AMNE08.jpg,MN,1,num_4,16,num_4,0.950101963012,,,2017_Jul_06_1438,60.0006927863,MAFE4ImagesEEG,001,200809,
AFNE01.JPG,AFNE01.JPG,AFNE01.JPG,AFNE01.JPG,AFNE01.JPG,AFNE01.JPG,,,,,,,,,2,2,22,5,,,,,,,,,,,,,,,AMSA18.jpg,AMSA05.jpg,AMNE06.jpg,AMNE18.jpg,AMSA18.jpg,MS,2,num_8,32,num_4,1.36670496291,,,2017_Jul_06_1438,60.0006927863,MAFE4ImagesEEG,001,200809,
AFNE01.JPG,AFNE01.JPG,AFNE01.JPG,AFNE01.JPG,AFNE01.JPG,AFNE01.JPG,,,,,,,,,2,3,23,2,,,,,,,,,,,,,,,AMNE13.jpg,AMNE12.jpg,AMSA04.jpg,AMSA02.jpg,AMSA02.jpg,MS,2,num_4,16,num_4,1.11672116024,,,2017_Jul_06_1438,60.0006927863,MAFE4ImagesEEG,001,200809,
AFNE01.JPG,AFNE01.JPG,AFNE01.JPG,AFNE01.JPG,AFNE01.JPG,AFNE01.JPG,,,,,,,,,2,4,24,8,,,,,,,,,,,,,,,AMSA05.jpg,AMSA13.jpg,AMNE01.jpg,AMNE05.jpg,AMNE05.jpg,MN,1,num_4,32,num_8,1.13342108752,,,2017_Jul_06_1438,60.0006927863,MAFE4ImagesEEG,001,200809,
AFNE01.JPG,AFNE01.JPG,AFNE01.JPG,AFNE01.JPG,AFNE01.JPG,AFNE01.JPG,,,,,,,,,2,5,25,0,,,,,,,,,,,,,,,AMSA02.jpg,AMNE12.jpg,AMNE20.jpg,AMSA07.jpg,AMNE12.jpg,MN,1,num_6,16,num_6,1.63341499353,,,2017_Jul_06_1438,60.0006927863,MAFE4ImagesEEG,001,200809,
AFNE01.JPG,AFNE01.JPG,AFNE01.JPG,AFNE01.JPG,AFNE01.JPG,AFNE01.JPG,,,,,,,,,2,6,26,1,,,,,,,,,,,,,,,AMNE09.jpg,AMSA16.jpg,AMSA03.jpg,AMNE11.jpg,AMSA03.jpg,MS,2,num_2,16,num_2,0.633660359075,,,2017_Jul_06_1438,60.0006927863,MAFE4ImagesEEG,001,200809,
AFNE01.JPG,AFNE01.JPG,AFNE01.JPG,AFNE01.JPG,AFNE01.JPG,AFNE01.JPG,,,,,,,,,2,7,27,3,,,,,,,,,,,,,,,AMNE08.jpg,AMSA17.jpg,AMSA04.jpg,AMNE04.jpg,AMNE08.jpg,MN,1,num_8,16,num_8,0.916729691904,,,2017_Jul_06_1438,60.0006927863,MAFE4ImagesEEG,001,200809,
AFNE01.JPG,AFNE01.JPG,AFNE01.JPG,AFNE01.JPG,AFNE01.JPG,AFNE01.JPG,,,,,,,,,2,8,28,4,,,,,,,,,,,,,,,AMSA14.jpg,AMNE19.jpg,AMSA18.jpg,AMNE15.jpg,AMSA14.jpg,MS,2,num_8,16,num_8,0.750120758312,,,2017_Jul_06_1438,60.0006927863,MAFE4ImagesEEG,001,200809,
AFNE01.JPG,AFNE01.JPG,AFNE01.JPG,AFNE01.JPG,AFNE01.JPG,AFNE01.JPG,,,,,,,,,2,9,29,9,,,,,,,,,,,,,,,AMNE05.jpg,AMNE19.jpg,AMSA01.jpg,AMSA03.jpg,AMSA01.jpg,MS,2,num_2,32,num_4,1.13353879878,,,2017_Jul_06_1438,60.0006927863,MAFE4ImagesEEG,001,200809,
AFNE01.JPG,AFNE01.JPG,AFNE01.JPG,AFNE01.JPG,AFNE01.JPG,AFNE01.JPG,,,,,,,,,3,0,30,4,,,,,,,,,,,,,,,AMSA07.jpg,AMSA17.jpg,AMNE18.jpg,AMNE07.jpg,AMNE18.jpg,MN,1,num_2,32,num_4,0.800132657751,,,2017_Jul_06_1438,60.0006927863,MAFE4ImagesEEG,001,200809,
AFNE01.JPG,AFNE01.JPG,AFNE01.JPG,AFNE01.JPG,AFNE01.JPG,AFNE01.JPG,,,,,,,,,3,1,31,8,,,,,,,,,,,,,,,AMNE19.jpg,AMSA02.jpg,AMSA07.jpg,AMNE03.jpg,AMNE19.jpg,MN,1,num_8,32,num_4,0.800182693056,,,2017_Jul_06_1438,60.0006927863,MAFE4ImagesEEG,001,200809,
AFNE01.JPG,AFNE01.JPG,AFNE01.JPG,AFNE01.JPG,AFNE01.JPG,AFNE01.JPG,,,,,,,,,3,2,32,6,,,,,,,,,,,,,,,AMSA03.jpg,AMSA10.jpg,AMNE15.jpg,AMNE13.jpg,AMNE13.jpg,MN,1,num_4,32,num_2,1.70007903012,,,2017_Jul_06_1438,60.0006927863,MAFE4ImagesEEG,001,200809,
AFNE01.JPG,AFNE01.JPG,AFNE01.JPG,AFNE01.JPG,AFNE01.JPG,AFNE01.JPG,,,,,,,,,3,3,33,3,,,,,,,,,,,,,,,AMSA06.jpg,AMNE02.jpg,AMNE06.jpg,AMSA14.jpg,AMSA06.jpg,MS,2,num_8,32,num_2,1.16673113522,,,2017_Jul_06_1438,60.0006927863,MAFE4ImagesEEG,001,200809,
AFNE01.JPG,AFNE01.JPG,AFNE01.JPG,AFNE01.JPG,AFNE01.JPG,AFNE01.JPG,,,,,,,,,3,4,34,1,,,,,,,,,,,,,,,AMNE09.jpg,AMSA16.jpg,AMSA03.jpg,AMNE16.jpg,AMNE09.jpg,MN,1,num_8,16,num_8,0.750126852421,,,2017_Jul_06_1438,60.0006927863,MAFE4ImagesEEG,001,200809,
AFNE01.JPG,AFNE01.JPG,AFNE01.JPG,AFNE01.JPG,AFNE01.JPG,AFNE01.JPG,,,,,,,,,3,5,35,9,,,,,,,,,,,,,,,AMNE16.jpg,AMSA09.jpg,AMSA17.jpg,AMNE01.jpg,AMNE16.jpg,MN,1,num_8,16,num_8,0.549980466953,,,2017_Jul_06_1438,60.0006927863,MAFE4ImagesEEG,001,200809,
AFNE01.JPG,AFNE01.JPG,AFNE01.JPG,AFNE01.JPG,AFNE01.JPG,AFNE01.JPG,,,,,,,,,3,6,36,5,,,,,,,,,,,,,,,AMSA18.jpg,AMSA11.jpg,AMNE19.jpg,AMNE05.jpg,AMNE05.jpg,MN,1,num_4,16,num_4,1.03342038195,,,2017_Jul_06_1438,60.0006927863,MAFE4ImagesEEG,001,200809,
AFNE01.JPG,AFNE01.JPG,AFNE01.JPG,AFNE01.JPG,AFNE01.JPG,AFNE01.JPG,,,,,,,,,3,7,37,0,,,,,,,,,,,,,,,AMSA05.jpg,AMNE18.jpg,AMSA02.jpg,AMNE01.jpg,AMSA02.jpg,MS,2,num_2,16,num_2,1.20007197384,,,2017_Jul_06_1438,60.0006927863,MAFE4ImagesEEG,001,200809,
AFNE01.JPG,AFNE01.JPG,AFNE01.JPG,AFNE01.JPG,AFNE01.JPG,AFNE01.JPG,,,,,,,,,3,8,38,7,,,,,,,,,,,,,,,AMNE06.jpg,AMSA16.jpg,AMSA01.jpg,AMNE08.jpg,AMSA01.jpg,MS,2,num_2,16,num_2,1.06676603167,,,2017_Jul_06_1438,60.0006927863,MAFE4ImagesEEG,001,200809,
AFNE01.JPG,AFNE01.JPG,AFNE01.JPG,AFNE01.JPG,AFNE01.JPG,AFNE01.JPG,,,,,,,,,3,9,39,2,,,,,,,,,,,,,,,AMSA12.jpg,AMNE12.jpg,AMNE14.jpg,AMSA06.jpg,AMNE14.jpg,MN,1,num_2,16,num_2,1.23345418787,,,2017_Jul_06_1438,60.0006927863,MAFE4ImagesEEG,001,200809,
AFNE01.JPG,AFNE01.JPG,AFNE01.JPG,AFNE01.JPG,AFNE01.JPG,AFNE01.JPG,,,,,,,,,4,0,40,7,,,,,,,,,,,,,,,AMNE02.jpg,AMSA11.jpg,AMSA16.jpg,AMNE19.jpg,AMSA16.jpg,MS,2,num_2,16,num_2,0.866782581783,,,2017_Jul_06_1438,60.0006927863,MAFE4ImagesEEG,001,200809,
AFNE01.JPG,AFNE01.JPG,AFNE01.JPG,AFNE01.JPG,AFNE01.JPG,AFNE01.JPG,,,,,,,,,4,1,41,5,,,,,,,,,,,,,,,AMSA08.jpg,AMSA12.jpg,AMNE10.jpg,AMNE12.jpg,AMSA08.jpg,MS,2,num_8,16,num_8,1.73339549254,,,2017_Jul_06_1438,60.0006927863,MAFE4ImagesEEG,001,200809,
AFNE01.JPG,AFNE01.JPG,AFNE01.JPG,AFNE01.JPG,AFNE01.JPG,AFNE01.JPG,,,,,,,,,4,2,42,1,,,,,,,,,,,,,,,AMSA02.jpg,AMSA12.jpg,AMNE19.jpg,AMNE20.jpg,AMSA12.jpg,MS,2,num_6,16,num_6,0.616927716299,,,2017_Jul_06_1438,60.0006927863,MAFE4ImagesEEG,001,200809,
AFNE01.JPG,AFNE01.JPG,AFNE01.JPG,AFNE01.JPG,AFNE01.JPG,AFNE01.JPG,,,,,,,,,4,3,43,3,,,,,,,,,,,,,,,AMNE15.jpg,AMSA01.jpg,AMSA12.jpg,AMNE03.jpg,AMSA12.jpg,MS,2,num_2,16,num_2,0.666748134419,,,2017_Jul_06_1438,60.0006927863,MAFE4ImagesEEG,001,200809,
AFNE01.JPG,AFNE01.JPG,AFNE01.JPG,AFNE01.JPG,AFNE01.JPG,AFNE01.JPG,,,,,,,,,4,4,44,2,,,,,,,,,,,,,,,AMNE01.jpg,AMSA06.jpg,AMSA19.jpg,AMNE11.jpg,AMNE01.jpg,MN,1,num_8,16,num_8,1.36673382949,,,2017_Jul_06_1438,60.0006927863,MAFE4ImagesEEG,001,200809,
AFNE01.JPG,AFNE01.JPG,AFNE01.JPG,AFNE01.JPG,AFNE01.JPG,AFNE01.JPG,,,,,,,,,4,5,45,9,,,,,,,,,,,,,,,AMSA08.jpg,AMNE02.jpg,AMNE11.jpg,AMSA19.jpg,AMSA08.jpg,MS,2,num_8,32,num_6,1.2000873693,,,2017_Jul_06_1438,60.0006927863,MAFE4ImagesEEG,001,200809,
AFNE01.JPG,AFNE01.JPG,AFNE01.JPG,AFNE01.JPG,AFNE01.JPG,AFNE01.JPG,,,,,,,,,4,6,46,8,,,,,,,,,,,,,,,AMNE16.jpg,AMSA15.jpg,AMSA10.jpg,AMNE12.jpg,AMSA10.jpg,MS,2,num_2,32,num_6,2.06668809208,,,2017_Jul_06_1438,60.0006927863,MAFE4ImagesEEG,001,200809,
AFNE01.JPG,AFNE01.JPG,AFNE01.JPG,AFNE01.JPG,AFNE01.JPG,AFNE01.JPG,,,,,,,,,4,7,47,0,,,,,,,,,,,,,,,AMSA14.jpg,AMNE12.jpg,AMNE06.jpg,AMSA06.jpg,AMSA14.jpg,MS,2,num_8,16,num_8,1.26660803554,,,2017_Jul_06_1438,60.0006927863,MAFE4ImagesEEG,001,200809,
AFNE01.JPG,AFNE01.JPG,AFNE01.JPG,AFNE01.JPG,AFNE01.JPG,AFNE01.JPG,,,,,,,,,4,8,48,4,,,,,,,,,,,,,,,AMNE11.jpg,AMSA04.jpg,AMSA09.jpg,AMNE05.jpg,AMSA09.jpg,MS,2,num_2,32,num_4,1.25009509909,,,2017_Jul_06_1438,60.0006927863,MAFE4ImagesEEG,001,200809,
AFNE01.JPG,AFNE01.JPG,AFNE01.JPG,AFNE01.JPG,AFNE01.JPG,AFNE01.JPG,,,,,,,,,4,9,49,6,,,,,,,,,,,,,,,AMNE12.jpg,AMSA16.jpg,AMSA15.jpg,AMNE20.jpg,AMSA15.jpg,MS,2,num_2,16,num_2,0.933454957558,,,2017_Jul_06_1438,60.0006927863,MAFE4ImagesEEG,001,200809,
AFNE01.JPG,AFNE01.JPG,AFNE01.JPG,AFNE01.JPG,AFNE01.JPG,AFNE01.JPG,,,,,,,,,5,0,50,3,,,,,,,,,,,,,,,AMSA19.jpg,AMNE14.jpg,AMSA06.jpg,AMNE08.jpg,AMSA06.jpg,MS,2,num_2,16,num_2,1.3334263477,,,2017_Jul_06_1438,60.0006927863,MAFE4ImagesEEG,001,200809,
AFNE01.JPG,AFNE01.JPG,AFNE01.JPG,AFNE01.JPG,AFNE01.JPG,AFNE01.JPG,,,,,,,,,5,1,51,0,,,,,,,,,,,,,,,AMSA18.jpg,AMNE03.jpg,AMNE05.jpg,AMSA10.jpg,AMNE05.jpg,MN,1,num_2,32,num_4,2.88326985913,,,2017_Jul_06_1438,60.0006927863,MAFE4ImagesEEG,001,200809,
AFNE01.JPG,AFNE01.JPG,AFNE01.JPG,AFNE01.JPG,AFNE01.JPG,AFNE01.JPG,,,,,,,,,5,2,52,1,,,,,,,,,,,,,,,AMSA02.jpg,AMNE17.jpg,AMNE12.jpg,AMSA15.jpg,AMSA15.jpg,MS,2,num_4,16,num_4,0.66677988763,,,2017_Jul_06_1438,60.0006927863,MAFE4ImagesEEG,001,200809,
AFNE01.JPG,AFNE01.JPG,AFNE01.JPG,AFNE01.JPG,AFNE01.JPG,AFNE01.JPG,,,,,,,,,5,3,53,6,,,,,,,,,,,,,,,AMNE06.jpg,AMSA05.jpg,AMSA20.jpg,AMNE04.jpg,AMSA05.jpg,MS,2,num_6,16,num_6,0.600148887141,,,2017_Jul_06_1438,60.0006927863,MAFE4ImagesEEG,001,200809,
AFNE01.JPG,AFNE01.JPG,AFNE01.JPG,AFNE01.JPG,AFNE01.JPG,AFNE01.JPG,,,,,,,,,5,4,54,5,,,,,,,,,,,,,,,AMNE06.jpg,AMNE13.jpg,AMSA09.jpg,AMSA06.jpg,AMSA09.jpg,MS,2,num_2,16,num_2,0.750185868354,,,2017_Jul_06_1438,60.0006927863,MAFE4ImagesEEG,001,200809,
AFNE01.JPG,AFNE01.JPG,AFNE01.JPG,AFNE01.JPG,AFNE01.JPG,AFNE01.JPG,,,,,,,,,5,5,55,7,,,,,,,,,,,,,,,AMNE17.jpg,AMNE16.jpg,AMSA02.jpg,AMSA07.jpg,AMNE17.jpg,MN,1,num_8,16,num_8,0.850109596504,,,2017_Jul_06_1438,60.0006927863,MAFE4ImagesEEG,001,200809,
AFNE01.JPG,AFNE01.JPG,AFNE01.JPG,AFNE01.JPG,AFNE01.JPG,AFNE01.JPG,,,,,,,,,5,6,56,8,,,,,,,,,,,,,,,AMSA15.jpg,AMNE13.jpg,AMSA03.jpg,AMNE01.jpg,AMSA15.jpg,MS,2,num_8,32,num_2,1.28348084132,,,2017_Jul_06_1438,60.0006927863,MAFE4ImagesEEG,001,200809,
AFNE01.JPG,AFNE01.JPG,AFNE01.JPG,AFNE01.JPG,AFNE01.JPG,AFNE01.JPG,,,,,,,,,5,7,57,4,,,,,,,,,,,,,,,AMNE11.jpg,AMSA16.jpg,AMNE09.jpg,AMSA17.jpg,AMNE11.jpg,MN,1,num_8,16,num_8,1.68338423467,,,2017_Jul_06_1438,60.0006927863,MAFE4ImagesEEG,001,200809,
AFNE01.JPG,AFNE01.JPG,AFNE01.JPG,AFNE01.JPG,AFNE01.JPG,AFNE01.JPG,,,,,,,,,5,8,58,2,,,,,,,,,,,,,,,AMSA13.jpg,AMSA07.jpg,AMNE10.jpg,AMNE12.jpg,AMSA07.jpg,MS,2,num_6,16,num_6,0.583610291709,,,2017_Jul_06_1438,60.0006927863,MAFE4ImagesEEG,001,200809,
AFNE01.JPG,AFNE01.JPG,AFNE01.JPG,AFNE01.JPG,AFNE01.JPG,AFNE01.JPG,,,,,,,,,5,9,59,9,,,,,,,,,,,,,,,AMSA10.jpg,AMNE02.jpg,AMSA01.jpg,AMNE16.jpg,AMSA01.jpg,MS,2,num_2,16,num_2,0.916768822121,,,2017_Jul_06_1438,60.0006927863,MAFE4ImagesEEG,001,200809,
,,,,,,,,,,,,,,,,,,,,,,,,,,,,,,,,,,,,,,,,,,,space,3.46654337447,2017_Jul_06_1438,60.0006927863,MAFE4ImagesEEG,001,200809,
AFNE01.JPG,AFNE01.JPG,AFNE01.JPG,AFNE01.JPG,AFNE01.JPG,AFNE01.JPG,,,,,,,,,,,,,0,0,0,9,,,,,,,,,,,AFSA14.jpg,AFNE06.jpg,AFNE09.jpg,AFSA15.jpg,AFNE06.jpg,FN,3,num_6,32,num_8,1.18339898856,,,2017_Jul_06_1438,60.0006927863,MAFE4ImagesEEG,001,200809,
AFNE01.JPG,AFNE01.JPG,AFNE01.JPG,AFNE01.JPG,AFNE01.JPG,AFNE01.JPG,,,,,,,,,,,,,0,1,1,1,,,,,,,,,,,AFNE03.jpg,AFSA03.jpg,AFSA12.jpg,AFNE11.jpg,AFSA12.jpg,FS,4,num_2,16,num_2,1.75008579774,,,2017_Jul_06_1438,60.0006927863,MAFE4ImagesEEG,001,200809,
AFNE01.JPG,AFNE01.JPG,AFNE01.JPG,AFNE01.JPG,AFNE01.JPG,AFNE01.JPG,,,,,,,,,,,,,0,2,2,6,,,,,,,,,,,AFSA19.jpg,AFNE10.jpg,AFSA15.jpg,AFNE14.jpg,AFSA19.jpg,FS,4,num_8,16,num_8,0.816775814164,,,2017_Jul_06_1438,60.0006927863,MAFE4ImagesEEG,001,200809,
AFNE01.JPG,AFNE01.JPG,AFNE01.JPG,AFNE01.JPG,AFNE01.JPG,AFNE01.JPG,,,,,,,,,,,,,0,3,3,2,,,,,,,,,,,AFNE11.jpg,AFSA08.jpg,AFSA01.jpg,AFNE13.jpg,AFSA08.jpg,FS,4,num_6,32,num_4,0.883475773502,,,2017_Jul_06_1438,60.0006927863,MAFE4ImagesEEG,001,200809,
AFNE01.JPG,AFNE01.JPG,AFNE01.JPG,AFNE01.JPG,AFNE01.JPG,AFNE01.JPG,,,,,,,,,,,,,0,4,4,7,,,,,,,,,,,AFSA11.jpg,AFNE04.jpg,AFNE17.jpg,AFSA18.jpg,AFNE17.jpg,FN,3,num_2,16,num_2,0.716769014602,,,2017_Jul_06_1438,60.0006927863,MAFE4ImagesEEG,001,200809,
AFNE01.JPG,AFNE01.JPG,AFNE01.JPG,AFNE01.JPG,AFNE01.JPG,AFNE01.JPG,,,,,,,,,,,,,0,5,5,0,,,,,,,,,,,AFNE19.jpg,AFSA03.jpg,AFNE13.jpg,AFSA04.jpg,AFSA04.jpg,FS,4,num_4,16,num_4,0.550155590638,,,2017_Jul_06_1438,60.0006927863,MAFE4ImagesEEG,001,200809,
AFNE01.JPG,AFNE01.JPG,AFNE01.JPG,AFNE01.JPG,AFNE01.JPG,AFNE01.JPG,,,,,,,,,,,,,0,6,6,8,,,,,,,,,,,AFNE16.jpg,AFSA12.jpg,AFSA15.jpg,AFNE14.jpg,AFNE16.jpg,FN,3,num_8,32,num_4,1.11673366907,,,2017_Jul_06_1438,60.0006927863,MAFE4ImagesEEG,001,200809,
AFNE01.JPG,AFNE01.JPG,AFNE01.JPG,AFNE01.JPG,AFNE01.JPG,AFNE01.JPG,,,,,,,,,,,,,0,7,7,4,,,,,,,,,,,AFNE11.jpg,AFSA04.jpg,AFSA06.jpg,AFNE05.jpg,AFNE05.jpg,FN,3,num_4,16,num_4,0.700118801789,,,2017_Jul_06_1438,60.0006927863,MAFE4ImagesEEG,001,200809,
AFNE01.JPG,AFNE01.JPG,AFNE01.JPG,AFNE01.JPG,AFNE01.JPG,AFNE01.JPG,,,,,,,,,,,,,0,8,8,3,,,,,,,,,,,AFSA16.jpg,AFSA18.jpg,AFNE12.jpg,AFNE07.jpg,AFNE07.jpg,FN,3,num_4,32,num_2,1.16676192614,,,2017_Jul_06_1438,60.0006927863,MAFE4ImagesEEG,001,200809,
AFNE01.JPG,AFNE01.JPG,AFNE01.JPG,AFNE01.JPG,AFNE01.JPG,AFNE01.JPG,,,,,,,,,,,,,0,9,9,5,,,,,,,,,,,AFSA17.jpg,AFSA12.jpg,AFNE05.jpg,AFNE19.jpg,AFNE05.jpg,FN,3,num_2,32,num_4,0.950120565831,,,2017_Jul_06_1438,60.0006927863,MAFE4ImagesEEG,001,200809,
AFNE01.JPG,AFNE01.JPG,AFNE01.JPG,AFNE01.JPG,AFNE01.JPG,AFNE01.JPG,,,,,,,,,,,,,1,0,10,0,,,,,,,,,,,AFSA08.jpg,AFNE10.jpg,AFSA07.jpg,AFNE15.jpg,AFSA08.jpg,FS,4,num_8,32,num_6,2.9332772682,,,2017_Jul_06_1438,60.0006927863,MAFE4ImagesEEG,001,200809,
AFNE01.JPG,AFNE01.JPG,AFNE01.JPG,AFNE01.JPG,AFNE01.JPG,AFNE01.JPG,,,,,,,,,,,,,1,1,11,6,,,,,,,,,,,AFSA20.jpg,AFSA02.jpg,AFNE03.jpg,AFNE02.jpg,AFSA02.jpg,FS,4,num_6,32,num_2,2.08343388501,,,2017_Jul_06_1438,60.0006927863,MAFE4ImagesEEG,001,200809,
AFNE01.JPG,AFNE01.JPG,AFNE01.JPG,AFNE01.JPG,AFNE01.JPG,AFNE01.JPG,,,,,,,,,,,,,1,2,12,9,,,,,,,,,,,AFSA17.jpg,AFNE09.jpg,AFSA20.jpg,AFNE01.jpg,AFSA20.jpg,FS,4,num_2,16,num_2,0.833349370281,,,2017_Jul_06_1438,60.0006927863,MAFE4ImagesEEG,001,200809,
AFNE01.JPG,AFNE01.JPG,AFNE01.JPG,AFNE01.JPG,AFNE01.JPG,AFNE01.JPG,,,,,,,,,,,,,1,3,13,7,,,,,,,,,,,AFSA07.jpg,AFSA01.jpg,AFNE14.jpg,AFNE01.jpg,AFNE01.jpg,FN,3,num_4,32,num_2,0.666740115965,,,2017_Jul_06_1438,60.0006927863,MAFE4ImagesEEG,001,200809,
AFNE01.JPG,AFNE01.JPG,AFNE01.JPG,AFNE01.JPG,AFNE01.JPG,AFNE01.JPG,,,,,,,,,,,,,1,4,14,5,,,,,,,,,,,AFNE10.jpg,AFSA10.jpg,AFNE17.jpg,AFSA08.jpg,AFSA08.jpg,FS,4,num_4,16,num_4,0.516783960979,,,2017_Jul_06_1438,60.0006927863,MAFE4ImagesEEG,001,200809,
AFNE01.JPG,AFNE01.JPG,AFNE01.JPG,AFNE01.JPG,AFNE01.JPG,AFNE01.JPG,,,,,,,,,,,,,1,5,15,1,,,,,,,,,,,AFSA07.jpg,AFNE06.jpg,AFNE19.jpg,AFSA02.jpg,AFNE19.jpg,FN,3,num_2,32,num_4,1.13346406666,,,2017_Jul_06_1438,60.0006927863,MAFE4ImagesEEG,001,200809,
AFNE01.JPG,AFNE01.JPG,AFNE01.JPG,AFNE01.JPG,AFNE01.JPG,AFNE01.JPG,,,,,,,,,,,,,1,6,16,2,,,,,,,,,,,AFSA06.jpg,AFSA18.jpg,AFNE11.jpg,AFNE05.jpg,AFSA06.jpg,FS,4,num_8,32,num_6,1.23326110293,,,2017_Jul_06_1438,60.0006927863,MAFE4ImagesEEG,001,200809,
AFNE01.JPG,AFNE01.JPG,AFNE01.JPG,AFNE01.JPG,AFNE01.JPG,AFNE01.JPG,,,,,,,,,,,,,1,7,17,3,,,,,,,,,,,AFNE07.jpg,AFSA17.jpg,AFSA04.jpg,AFNE13.jpg,AFSA04.jpg,FS,4,num_2,16,num_2,0.833437573514,,,2017_Jul_06_1438,60.0006927863,MAFE4ImagesEEG,001,200809,
AFNE01.JPG,AFNE01.JPG,AFNE01.JPG,AFNE01.JPG,AFNE01.JPG,AFNE01.JPG,,,,,,,,,,,,,1,8,18,4,,,,,,,,,,,AFNE10.jpg,AFNE15.jpg,AFSA14.jpg,AFSA07.jpg,AFSA07.jpg,FS,4,num_4,48,None,,,,2017_Jul_06_1438,60.0006927863,MAFE4ImagesEEG,001,200809,
AFNE01.JPG,AFNE01.JPG,AFNE01.JPG,AFNE01.JPG,AFNE01.JPG,AFNE01.JPG,,,,,,,,,,,,,1,9,19,8,,,,,,,,,,,AFSA03.jpg,AFNE10.jpg,AFNE03.jpg,AFSA06.jpg,AFSA03.jpg,FS,4,num_8,32,num_4,0.900124382693,,,2017_Jul_06_1438,60.0006927863,MAFE4ImagesEEG,001,200809,
AFNE01.JPG,AFNE01.JPG,AFNE01.JPG,AFNE01.JPG,AFNE01.JPG,AFNE01.JPG,,,,,,,,,,,,,2,0,20,9,,,,,,,,,,,AFSA01.jpg,AFNE18.jpg,AFNE19.jpg,AFSA09.jpg,AFSA01.jpg,FS,4,num_8,16,num_8,1.1001094362,,,2017_Jul_06_1438,60.0006927863,MAFE4ImagesEEG,001,200809,
AFNE01.JPG,AFNE01.JPG,AFNE01.JPG,AFNE01.JPG,AFNE01.JPG,AFNE01.JPG,,,,,,,,,,,,,2,1,21,7,,,,,,,,,,,AFNE13.jpg,AFSA15.jpg,AFSA03.jpg,AFNE05.jpg,AFNE05.jpg,FN,3,num_4,16,num_4,1.26704103348,,,2017_Jul_06_1438,60.0006927863,MAFE4ImagesEEG,001,200809,
AFNE01.JPG,AFNE01.JPG,AFNE01.JPG,AFNE01.JPG,AFNE01.JPG,AFNE01.JPG,,,,,,,,,,,,,2,2,22,1,,,,,,,,,,,AFSA03.jpg,AFSA07.jpg,AFNE16.jpg,AFNE03.jpg,AFSA07.jpg,FS,4,num_6,32,num_2,1.11676413927,,,2017_Jul_06_1438,60.0006927863,MAFE4ImagesEEG,001,200809,
AFNE01.JPG,AFNE01.JPG,AFNE01.JPG,AFNE01.JPG,AFNE01.JPG,AFNE01.JPG,,,,,,,,,,,,,2,3,23,4,,,,,,,,,,,AFNE14.jpg,AFNE09.jpg,AFSA13.jpg,AFSA19.jpg,AFNE09.jpg,FN,3,num_6,32,num_8,0.833430837956,,,2017_Jul_06_1438,60.0006927863,MAFE4ImagesEEG,001,200809,
AFNE01.JPG,AFNE01.JPG,AFNE01.JPG,AFNE01.JPG,AFNE01.JPG,AFNE01.JPG,,,,,,,,,,,,,2,4,24,2,,,,,,,,,,,AFNE02.jpg,AFSA07.jpg,AFSA15.jpg,AFNE09.jpg,AFSA15.jpg,FS,4,num_2,16,num_2,0.483472309657,,,2017_Jul_06_1438,60.0006927863,MAFE4ImagesEEG,001,200809,
AFNE01.JPG,AFNE01.JPG,AFNE01.JPG,AFNE01.JPG,AFNE01.JPG,AFNE01.JPG,,,,,,,,,,,,,2,5,25,6,,,,,,,,,,,AFSA14.jpg,AFSA04.jpg,AFNE20.jpg,AFNE15.jpg,AFSA04.jpg,FS,4,num_6,16,num_6,0.833501721383,,,2017_Jul_06_1438,60.0006927863,MAFE4ImagesEEG,001,200809,
AFNE01.JPG,AFNE01.JPG,AFNE01.JPG,AFNE01.JPG,AFNE01.JPG,AFNE01.JPG,,,,,,,,,,,,,2,6,26,0,,,,,,,,,,,AFNE02.jpg,AFSA11.jpg,AFSA03.jpg,AFNE06.jpg,AFNE02.jpg,FN,3,num_8,16,num_8,0.600151453051,,,2017_Jul_06_1438,60.0006927863,MAFE4ImagesEEG,001,200809,
AFNE01.JPG,AFNE01.JPG,AFNE01.JPG,AFNE01.JPG,AFNE01.JPG,AFNE01.JPG,,,,,,,,,,,,,2,7,27,3,,,,,,,,,,,AFSA18.jpg,AFNE13.jpg,AFNE14.jpg,AFSA13.jpg,AFSA13.jpg,FS,4,num_4,16,num_4,0.500137597206,,,2017_Jul_06_1438,60.0006927863,MAFE4ImagesEEG,001,200809,
AFNE01.JPG,AFNE01.JPG,AFNE01.JPG,AFNE01.JPG,AFNE01.JPG,AFNE01.JPG,,,,,,,,,,,,,2,8,28,5,,,,,,,,,,,AFNE18.jpg,AFSA16.jpg,AFSA07.jpg,AFNE02.jpg,AFSA07.jpg,FS,4,num_2,16,num_2,0.900139136706,,,2017_Jul_06_1438,60.0006927863,MAFE4ImagesEEG,001,200809,
AFNE01.JPG,AFNE01.JPG,AFNE01.JPG,AFNE01.JPG,AFNE01.JPG,AFNE01.JPG,,,,,,,,,,,,,2,9,29,8,,,,,,,,,,,AFNE09.jpg,AFSA07.jpg,AFSA16.jpg,AFNE07.jpg,AFSA07.jpg,FS,4,num_6,16,num_6,0.533500887454,,,2017_Jul_06_1438,60.0006927863,MAFE4ImagesEEG,001,200809,
AFNE01.JPG,AFNE01.JPG,AFNE01.JPG,AFNE01.JPG,AFNE01.JPG,AFNE01.JPG,,,,,,,,,,,,,3,0,30,7,,,,,,,,,,,AFNE18.jpg,AFSA02.jpg,AFNE02.jpg,AFSA07.jpg,AFNE18.jpg,FN,3,num_8,32,num_4,1.33308860927,,,2017_Jul_06_1438,60.0006927863,MAFE4ImagesEEG,001,200809,
AFNE01.JPG,AFNE01.JPG,AFNE01.JPG,AFNE01.JPG,AFNE01.JPG,AFNE01.JPG,,,,,,,,,,,,,3,1,31,0,,,,,,,,,,,AFNE05.jpg,AFNE03.jpg,AFSA10.jpg,AFSA12.jpg,AFSA10.jpg,FS,4,num_2,32,num_6,1.21679563588,,,2017_Jul_06_1438,60.0006927863,MAFE4ImagesEEG,001,200809,
AFNE01.JPG,AFNE01.JPG,AFNE01.JPG,AFNE01.JPG,AFNE01.JPG,AFNE01.JPG,,,,,,,,,,,,,3,2,32,6,,,,,,,,,,,AFSA02.jpg,AFSA15.jpg,AFNE16.jpg,AFNE18.jpg,AFNE16.jpg,FN,3,num_2,32,num_4,1.38340521103,,,2017_Jul_06_1438,60.0006927863,MAFE4ImagesEEG,001,200809,
AFNE01.JPG,AFNE01.JPG,AFNE01.JPG,AFNE01.JPG,AFNE01.JPG,AFNE01.JPG,,,,,,,,,,,,,3,3,33,4,,,,,,,,,,,AFNE15.jpg,AFSA12.jpg,AFNE07.jpg,AFSA05.jpg,AFNE07.jpg,FN,3,num_2,16,num_2,1.39995695686,,,2017_Jul_06_1438,60.0006927863,MAFE4ImagesEEG,001,200809,
AFNE01.JPG,AFNE01.JPG,AFNE01.JPG,AFNE01.JPG,AFNE01.JPG,AFNE01.JPG,,,,,,,,,,,,,3,4,34,9,,,,,,,,,,,AFNE17.jpg,AFNE02.jpg,AFSA06.jpg,AFSA02.jpg,AFSA06.jpg,FS,4,num_2,16,num_2,1.11671506625,,,2017_Jul_06_1438,60.0006927863,MAFE4ImagesEEG,001,200809,
AFNE01.JPG,AFNE01.JPG,AFNE01.JPG,AFNE01.JPG,AFNE01.JPG,AFNE01.JPG,,,,,,,,,,,,,3,5,35,8,,,,,,,,,,,AFSA05.jpg,AFNE20.jpg,AFSA17.jpg,AFNE17.jpg,AFSA05.jpg,FS,4,num_8,32,num_4,0.750114343478,,,2017_Jul_06_1438,60.0006927863,MAFE4ImagesEEG,001,200809,
AFNE01.JPG,AFNE01.JPG,AFNE01.JPG,AFNE01.JPG,AFNE01.JPG,AFNE01.JPG,,,,,,,,,,,,,3,6,36,2,,,,,,,,,,,AFSA19.jpg,AFSA04.jpg,AFNE03.jpg,AFNE17.jpg,AFSA19.jpg,FS,4,num_8,16,num_8,1.11675483792,,,2017_Jul_06_1438,60.0006927863,MAFE4ImagesEEG,001,200809,
AFNE01.JPG,AFNE01.JPG,AFNE01.JPG,AFNE01.JPG,AFNE01.JPG,AFNE01.JPG,,,,,,,,,,,,,3,7,37,1,,,,,,,,,,,AFNE19.jpg,AFNE18.jpg,AFSA20.jpg,AFSA04.jpg,AFNE18.jpg,FN,3,num_6,16,num_6,1.10019539425,,,2017_Jul_06_1438,60.0006927863,MAFE4ImagesEEG,001,200809,
AFNE01.JPG,AFNE01.JPG,AFNE01.JPG,AFNE01.JPG,AFNE01.JPG,AFNE01.JPG,,,,,,,,,,,,,3,8,38,3,,,,,,,,,,,AFSA01.jpg,AFSA05.jpg,AFNE07.jpg,AFNE15.jpg,AFNE07.jpg,FN,3,num_2,16,num_2,1.41671782453,,,2017_Jul_06_1438,60.0006927863,MAFE4ImagesEEG,001,200809,
AFNE01.JPG,AFNE01.JPG,AFNE01.JPG,AFNE01.JPG,AFNE01.JPG,AFNE01.JPG,,,,,,,,,,,,,3,9,39,5,,,,,,,,,,,AFSA16.jpg,AFNE19.jpg,AFNE20.jpg,AFSA05.jpg,AFSA05.jpg,FS,4,num_4,16,num_4,1.05008887686,,,2017_Jul_06_1438,60.0006927863,MAFE4ImagesEEG,001,200809,
AFNE01.JPG,AFNE01.JPG,AFNE01.JPG,AFNE01.JPG,AFNE01.JPG,AFNE01.JPG,,,,,,,,,,,,,4,0,40,9,,,,,,,,,,,AFNE10.jpg,AFNE09.jpg,AFSA08.jpg,AFSA15.jpg,AFNE09.jpg,FN,3,num_6,32,num_4,0.983427726896,,,2017_Jul_06_1438,60.0006927863,MAFE4ImagesEEG,001,200809,
AFNE01.JPG,AFNE01.JPG,AFNE01.JPG,AFNE01.JPG,AFNE01.JPG,AFNE01.JPG,,,,,,,,,,,,,4,1,41,6,,,,,,,,,,,AFNE02.jpg,AFSA08.jpg,AFNE07.jpg,AFSA20.jpg,AFNE02.jpg,FN,3,num_8,16,num_8,0.433536104625,,,2017_Jul_06_1438,60.0006927863,MAFE4ImagesEEG,001,200809,
AFNE01.JPG,AFNE01.JPG,AFNE01.JPG,AFNE01.JPG,AFNE01.JPG,AFNE01.JPG,,,,,,,,,,,,,4,2,42,4,,,,,,,,,,,AFSA17.jpg,AFNE02.jpg,AFNE17.jpg,AFSA07.jpg,AFNE17.jpg,FN,3,num_2,16,num_2,1.38347128325,,,2017_Jul_06_1438,60.0006927863,MAFE4ImagesEEG,001,200809,
AFNE01.JPG,AFNE01.JPG,AFNE01.JPG,AFNE01.JPG,AFNE01.JPG,AFNE01.JPG,,,,,,,,,,,,,4,3,43,5,,,,,,,,,,,AFSA15.jpg,AFNE02.jpg,AFNE16.jpg,AFSA16.jpg,AFSA16.jpg,FS,4,num_4,16,num_4,0.783466087189,,,2017_Jul_06_1438,60.0006927863,MAFE4ImagesEEG,001,200809,
AFNE01.JPG,AFNE01.JPG,AFNE01.JPG,AFNE01.JPG,AFNE01.JPG,AFNE01.JPG,,,,,,,,,,,,,4,4,44,0,,,,,,,,,,,AFNE08.jpg,AFSA15.jpg,AFSA16.jpg,AFNE13.jpg,AFSA15.jpg,FS,4,num_6,16,num_6,0.500249535078,,,2017_Jul_06_1438,60.0006927863,MAFE4ImagesEEG,001,200809,
AFNE01.JPG,AFNE01.JPG,AFNE01.JPG,AFNE01.JPG,AFNE01.JPG,AFNE01.JPG,,,,,,,,,,,,,4,5,45,3,,,,,,,,,,,AFSA09.jpg,AFSA10.jpg,AFNE02.jpg,AFNE08.jpg,AFNE08.jpg,FN,3,num_4,16,num_4,0.683336123708,,,2017_Jul_06_1438,60.0006927863,MAFE4ImagesEEG,001,200809,
AFNE01.JPG,AFNE01.JPG,AFNE01.JPG,AFNE01.JPG,AFNE01.JPG,AFNE01.JPG,,,,,,,,,,,,,4,6,46,1,,,,,,,,,,,AFNE19.jpg,AFSA12.jpg,AFNE18.jpg,AFSA14.jpg,AFNE19.jpg,FN,3,num_8,32,num_2,2.66671990941,,,2017_Jul_06_1438,60.0006927863,MAFE4ImagesEEG,001,200809,
AFNE01.JPG,AFNE01.JPG,AFNE01.JPG,AFNE01.JPG,AFNE01.JPG,AFNE01.JPG,,,,,,,,,,,,,4,7,47,2,,,,,,,,,,,AFNE12.jpg,AFSA11.jpg,AFNE03.jpg,AFSA20.jpg,AFNE12.jpg,FN,3,num_8,16,num_8,0.916772671044,,,2017_Jul_06_1438,60.0006927863,MAFE4ImagesEEG,001,200809,
AFNE01.JPG,AFNE01.JPG,AFNE01.JPG,AFNE01.JPG,AFNE01.JPG,AFNE01.JPG,,,,,,,,,,,,,4,8,48,8,,,,,,,,,,,AFSA10.jpg,AFSA08.jpg,AFNE02.jpg,AFNE03.jpg,AFSA10.jpg,FS,4,num_8,32,num_6,0.73348337505,,,2017_Jul_06_1438,60.0006927863,MAFE4ImagesEEG,001,200809,
AFNE01.JPG,AFNE01.JPG,AFNE01.JPG,AFNE01.JPG,AFNE01.JPG,AFNE01.JPG,,,,,,,,,,,,,4,9,49,7,,,,,,,,,,,AFNE17.jpg,AFSA05.jpg,AFSA07.jpg,AFNE04.jpg,AFSA05.jpg,FS,4,num_6,16,num_6,0.41678517987,,,2017_Jul_06_1438,60.0006927863,MAFE4ImagesEEG,001,200809,
AFNE01.JPG,AFNE01.JPG,AFNE01.JPG,AFNE01.JPG,AFNE01.JPG,AFNE01.JPG,,,,,,,,,,,,,5,0,50,7,,,,,,,,,,,AFSA16.jpg,AFSA01.jpg,AFNE11.jpg,AFNE09.jpg,AFSA01.jpg,FS,4,num_6,32,num_8,1.18340347894,,,2017_Jul_06_1438,60.0006927863,MAFE4ImagesEEG,001,200809,
AFNE01.JPG,AFNE01.JPG,AFNE01.JPG,AFNE01.JPG,AFNE01.JPG,AFNE01.JPG,,,,,,,,,,,,,5,1,51,8,,,,,,,,,,,AFNE12.jpg,AFNE16.jpg,AFSA17.jpg,AFSA14.jpg,AFNE16.jpg,FN,3,num_6,32,num_2,2.38335004379,,,2017_Jul_06_1438,60.0006927863,MAFE4ImagesEEG,001,200809,
AFNE01.JPG,AFNE01.JPG,AFNE01.JPG,AFNE01.JPG,AFNE01.JPG,AFNE01.JPG,,,,,,,,,,,,,5,2,52,3,,,,,,,,,,,AFSA09.jpg,AFSA01.jpg,AFNE06.jpg,AFNE11.jpg,AFNE11.jpg,FN,3,num_4,16,num_4,0.616778251831,,,2017_Jul_06_1438,60.0006927863,MAFE4ImagesEEG,001,200809,
AFNE01.JPG,AFNE01.JPG,AFNE01.JPG,AFNE01.JPG,AFNE01.JPG,AFNE01.JPG,,,,,,,,,,,,,5,3,53,9,,,,,,,,,,,AFSA18.jpg,AFSA07.jpg,AFNE05.jpg,AFNE15.jpg,AFNE05.jpg,FN,3,num_2,16,num_2,0.683545887237,,,2017_Jul_06_1438,60.0006927863,MAFE4ImagesEEG,001,200809,
AFNE01.JPG,AFNE01.JPG,AFNE01.JPG,AFNE01.JPG,AFNE01.JPG,AFNE01.JPG,,,,,,,,,,,,,5,4,54,5,,,,,,,,,,,AFSA13.jpg,AFNE10.jpg,AFNE02.jpg,AFSA10.jpg,AFSA10.jpg,FS,4,num_4,32,num_8,0.716802692157,,,2017_Jul_06_1438,60.0006927863,MAFE4ImagesEEG,001,200809,
AFNE01.JPG,AFNE01.JPG,AFNE01.JPG,AFNE01.JPG,AFNE01.JPG,AFNE01.JPG,,,,,,,,,,,,,5,5,55,0,,,,,,,,,,,AFNE18.jpg,AFSA07.jpg,AFSA13.jpg,AFNE14.jpg,AFSA07.jpg,FS,4,num_6,16,num_6,0.733474073699,,,2017_Jul_06_1438,60.0006927863,MAFE4ImagesEEG,001,200809,
AFNE01.JPG,AFNE01.JPG,AFNE01.JPG,AFNE01.JPG,AFNE01.JPG,AFNE01.JPG,,,,,,,,,,,,,5,6,56,6,,,,,,,,,,,AFNE15.jpg,AFNE19.jpg,AFSA03.jpg,AFSA10.jpg,AFSA10.jpg,FS,4,num_4,16,num_4,0.966758269817,,,2017_Jul_06_1438,60.0006927863,MAFE4ImagesEEG,001,200809,
AFNE01.JPG,AFNE01.JPG,AFNE01.JPG,AFNE01.JPG,AFNE01.JPG,AFNE01.JPG,,,,,,,,,,,,,5,7,57,4,,,,,,,,,,,AFSA19.jpg,AFSA12.jpg,AFNE07.jpg,AFNE02.jpg,AFSA19.jpg,FS,4,num_8,32,num_2,1.75008483557,,,2017_Jul_06_1438,60.0006927863,MAFE4ImagesEEG,001,200809,
AFNE01.JPG,AFNE01.JPG,AFNE01.JPG,AFNE01.JPG,AFNE01.JPG,AFNE01.JPG,,,,,,,,,,,,,5,8,58,2,,,,,,,,,,,AFNE12.jpg,AFSA10.jpg,AFNE01.jpg,AFSA03.jpg,AFSA10.jpg,FS,4,num_6,32,num_4,1.08342811174,,,2017_Jul_06_1438,60.0006927863,MAFE4ImagesEEG,001,200809,
AFNE01.JPG,AFNE01.JPG,AFNE01.JPG,AFNE01.JPG,AFNE01.JPG,AFNE01.JPG,,,,,,,,,,,,,5,9,59,1,,,,,,,,,,,AFSA17.jpg,AFSA06.jpg,AFNE20.jpg,AFNE09.jpg,AFNE09.jpg,FN,3,num_4,16,num_4,1.40005702735,,,2017_Jul_06_1438,60.0006927863,MAFE4ImagesEEG,001,200809,
,,,,,,,,,,,,,,,,,,,,,,,,,,,,,,,,,,,,,,,,,,,space,22.6646768008,2017_Jul_06_1438,60.0006927863,MAFE4ImagesEEG,001,200809,
AFNE01.JPG,AFNE01.JPG,AFNE01.JPG,AFNE01.JPG,AFNE01.JPG,AFNE01.JPG,,,,,,,,,,,,,,,,,0,0,0,6,,,,,,,AMSA20.jpg,AMSA11.jpg,AMNE02.jpg,AMNE19.jpg,AMSA20.jpg,MS,2,num_8,16,num_8,0.8834828299,,,2017_Jul_06_1438,60.0006927863,MAFE4ImagesEEG,001,200809,
AFNE01.JPG,AFNE01.JPG,AFNE01.JPG,AFNE01.JPG,AFNE01.JPG,AFNE01.JPG,,,,,,,,,,,,,,,,,0,1,1,7,,,,,,,AMSA13.jpg,AMNE05.jpg,AMNE03.jpg,AMSA07.jpg,AMSA07.jpg,MS,2,num_4,16,num_4,0.583433564287,,,2017_Jul_06_1438,60.0006927863,MAFE4ImagesEEG,001,200809,
AFNE01.JPG,AFNE01.JPG,AFNE01.JPG,AFNE01.JPG,AFNE01.JPG,AFNE01.JPG,,,,,,,,,,,,,,,,,0,2,2,4,,,,,,,AMNE04.jpg,AMNE16.jpg,AMSA14.jpg,AMSA17.jpg,AMSA14.jpg,MS,2,num_2,16,num_2,1.00009910844,,,2017_Jul_06_1438,60.0006927863,MAFE4ImagesEEG,001,200809,
AFNE01.JPG,AFNE01.JPG,AFNE01.JPG,AFNE01.JPG,AFNE01.JPG,AFNE01.JPG,,,,,,,,,,,,,,,,,0,3,3,9,,,,,,,AMSA06.jpg,AMSA12.jpg,AMNE16.jpg,AMNE20.jpg,AMSA06.jpg,MS,2,num_8,32,num_6,1.08341881039,,,2017_Jul_06_1438,60.0006927863,MAFE4ImagesEEG,001,200809,
AFNE01.JPG,AFNE01.JPG,AFNE01.JPG,AFNE01.JPG,AFNE01.JPG,AFNE01.JPG,,,,,,,,,,,,,,,,,0,4,4,8,,,,,,,AMSA04.jpg,AMNE11.jpg,AMNE04.jpg,AMSA11.jpg,AMSA11.jpg,MS,2,num_4,32,num_8,1.51665919344,,,2017_Jul_06_1438,60.0006927863,MAFE4ImagesEEG,001,200809,
AFNE01.JPG,AFNE01.JPG,AFNE01.JPG,AFNE01.JPG,AFNE01.JPG,AFNE01.JPG,,,,,,,,,,,,,,,,,0,5,5,0,,,,,,,AMSA05.jpg,AMNE05.jpg,AMNE18.jpg,AMSA09.jpg,AMSA09.jpg,MS,2,num_4,16,num_4,1.10012579383,,,2017_Jul_06_1438,60.0006927863,MAFE4ImagesEEG,001,200809,
AFNE01.JPG,AFNE01.JPG,AFNE01.JPG,AFNE01.JPG,AFNE01.JPG,AFNE01.JPG,,,,,,,,,,,,,,,,,0,6,6,1,,,,,,,AMNE12.jpg,AMNE15.jpg,AMSA06.jpg,AMSA11.jpg,AMSA11.jpg,MS,2,num_4,16,num_4,2.21664296405,,,2017_Jul_06_1438,60.0006927863,MAFE4ImagesEEG,001,200809,
AFNE01.JPG,AFNE01.JPG,AFNE01.JPG,AFNE01.JPG,AFNE01.JPG,AFNE01.JPG,,,,,,,,,,,,,,,,,0,7,7,5,,,,,,,AMNE03.jpg,AMSA10.jpg,AMNE10.jpg,AMSA06.jpg,AMSA06.jpg,MS,2,num_4,16,num_4,0.616800062009,,,2017_Jul_06_1438,60.0006927863,MAFE4ImagesEEG,001,200809,
AFNE01.JPG,AFNE01.JPG,AFNE01.JPG,AFNE01.JPG,AFNE01.JPG,AFNE01.JPG,,,,,,,,,,,,,,,,,0,8,8,2,,,,,,,AMSA07.jpg,AMNE17.jpg,AMSA18.jpg,AMNE05.jpg,AMNE17.jpg,MN,1,num_6,32,num_4,0.583492580336,,,2017_Jul_06_1438,60.0006927863,MAFE4ImagesEEG,001,200809,
AFNE01.JPG,AFNE01.JPG,AFNE01.JPG,AFNE01.JPG,AFNE01.JPG,AFNE01.JPG,,,,,,,,,,,,,,,,,0,9,9,3,,,,,,,AMSA08.jpg,AMNE17.jpg,AMNE18.jpg,AMSA04.jpg,AMNE17.jpg,MN,1,num_6,16,num_6,0.400162229897,,,2017_Jul_06_1438,60.0006927863,MAFE4ImagesEEG,001,200809,
AFNE01.JPG,AFNE01.JPG,AFNE01.JPG,AFNE01.JPG,AFNE01.JPG,AFNE01.JPG,,,,,,,,,,,,,,,,,1,0,10,6,,,,,,,AMNE18.jpg,AMNE10.jpg,AMSA16.jpg,AMSA08.jpg,AMSA08.jpg,MS,2,num_4,16,num_4,0.750100230915,,,2017_Jul_06_1438,60.0006927863,MAFE4ImagesEEG,001,200809,
AFNE01.JPG,AFNE01.JPG,AFNE01.JPG,AFNE01.JPG,AFNE01.JPG,AFNE01.JPG,,,,,,,,,,,,,,,,,1,1,11,3,,,,,,,AMSA11.jpg,AMSA01.jpg,AMNE19.jpg,AMNE20.jpg,AMNE19.jpg,MN,1,num_2,32,num_4,0.700256078155,,,2017_Jul_06_1438,60.0006927863,MAFE4ImagesEEG,001,200809,
AFNE01.JPG,AFNE01.JPG,AFNE01.JPG,AFNE01.JPG,AFNE01.JPG,AFNE01.JPG,,,,,,,,,,,,,,,,,1,2,12,5,,,,,,,AMSA03.jpg,AMNE20.jpg,AMSA07.jpg,AMNE18.jpg,AMSA07.jpg,MS,2,num_2,32,num_4,1.21673437476,,,2017_Jul_06_1438,60.0006927863,MAFE4ImagesEEG,001,200809,
AFNE01.JPG,AFNE01.JPG,AFNE01.JPG,AFNE01.JPG,AFNE01.JPG,AFNE01.JPG,,,,,,,,,,,,,,,,,1,3,13,1,,,,,,,AMSA13.jpg,AMNE05.jpg,AMSA17.jpg,AMNE14.jpg,AMNE05.jpg,MN,1,num_6,16,num_6,0.78347410576,,,2017_Jul_06_1438,60.0006927863,MAFE4ImagesEEG,001,200809,
AFNE01.JPG,AFNE01.JPG,AFNE01.JPG,AFNE01.JPG,AFNE01.JPG,AFNE01.JPG,,,,,,,,,,,,,,,,,1,4,14,8,,,,,,,AMSA14.jpg,AMNE08.jpg,AMNE16.jpg,AMSA04.jpg,AMSA14.jpg,MS,2,num_8,16,num_8,0.933443731745,,,2017_Jul_06_1438,60.0006927863,MAFE4ImagesEEG,001,200809,
AFNE01.JPG,AFNE01.JPG,AFNE01.JPG,AFNE01.JPG,AFNE01.JPG,AFNE01.JPG,,,,,,,,,,,,,,,,,1,5,15,9,,,,,,,AMSA19.jpg,AMNE15.jpg,AMSA06.jpg,AMNE09.jpg,AMSA19.jpg,MS,2,num_8,16,num_8,1.00013887999,,,2017_Jul_06_1438,60.0006927863,MAFE4ImagesEEG,001,200809,
AFNE01.JPG,AFNE01.JPG,AFNE01.JPG,AFNE01.JPG,AFNE01.JPG,AFNE01.JPG,,,,,,,,,,,,,,,,,1,6,16,0,,,,,,,AMNE17.jpg,AMSA14.jpg,AMSA09.jpg,AMNE18.jpg,AMNE18.jpg,MN,1,num_4,16,num_4,0.933487352333,,,2017_Jul_06_1438,60.0006927863,MAFE4ImagesEEG,001,200809,
AFNE01.JPG,AFNE01.JPG,AFNE01.JPG,AFNE01.JPG,AFNE01.JPG,AFNE01.JPG,,,,,,,,,,,,,,,,,1,7,17,4,,,,,,,AMSA11.jpg,AMNE01.jpg,AMNE14.jpg,AMSA19.jpg,AMSA11.jpg,MS,2,num_8,16,num_8,1.58339315117,,,2017_Jul_06_1438,60.0006927863,MAFE4ImagesEEG,001,200809,
AFNE01.JPG,AFNE01.JPG,AFNE01.JPG,AFNE01.JPG,AFNE01.JPG,AFNE01.JPG,,,,,,,,,,,,,,,,,1,8,18,2,,,,,,,AMNE11.jpg,AMSA19.jpg,AMSA13.jpg,AMNE14.jpg,AMNE11.jpg,MN,1,num_8,16,num_8,1.98335716431,,,2017_Jul_06_1438,60.0006927863,MAFE4ImagesEEG,001,200809,
AFNE01.JPG,AFNE01.JPG,AFNE01.JPG,AFNE01.JPG,AFNE01.JPG,AFNE01.JPG,,,,,,,,,,,,,,,,,1,9,19,7,,,,,,,AMSA01.jpg,AMNE13.jpg,AMNE06.jpg,AMSA09.jpg,AMNE06.jpg,MN,1,num_2,32,num_6,1.06673010881,,,2017_Jul_06_1438,60.0006927863,MAFE4ImagesEEG,001,200809,
AFNE01.JPG,AFNE01.JPG,AFNE01.JPG,AFNE01.JPG,AFNE01.JPG,AFNE01.JPG,,,,,,,,,,,,,,,,,2,0,20,0,,,,,,,AMNE01.jpg,AMSA12.jpg,AMNE11.jpg,AMSA13.jpg,AMNE01.jpg,MN,1,num_8,16,num_8,0.816765550524,,,2017_Jul_06_1438,60.0006927863,MAFE4ImagesEEG,001,200809,
AFNE01.JPG,AFNE01.JPG,AFNE01.JPG,AFNE01.JPG,AFNE01.JPG,AFNE01.JPG,,,,,,,,,,,,,,,,,2,1,21,1,,,,,,,AMNE19.jpg,AMNE04.jpg,AMSA15.jpg,AMSA07.jpg,AMSA15.jpg,MS,2,num_2,16,num_2,0.73347343225,,,2017_Jul_06_1438,60.0006927863,MAFE4ImagesEEG,001,200809,
AFNE01.JPG,AFNE01.JPG,AFNE01.JPG,AFNE01.JPG,AFNE01.JPG,AFNE01.JPG,,,,,,,,,,,,,,,,,2,2,22,7,,,,,,,AMSA16.jpg,AMNE16.jpg,AMNE18.jpg,AMSA12.jpg,AMSA12.jpg,MS,2,num_4,32,num_8,0.766816836665,,,2017_Jul_06_1438,60.0006927863,MAFE4ImagesEEG,001,200809,
AFNE01.JPG,AFNE01.JPG,AFNE01.JPG,AFNE01.JPG,AFNE01.JPG,AFNE01.JPG,,,,,,,,,,,,,,,,,2,3,23,9,,,,,,,AMSA17.jpg,AMSA15.jpg,AMNE13.jpg,AMNE07.jpg,AMSA15.jpg,MS,2,num_6,16,num_6,0.716724111,,,2017_Jul_06_1438,60.0006927863,MAFE4ImagesEEG,001,200809,
AFNE01.JPG,AFNE01.JPG,AFNE01.JPG,AFNE01.JPG,AFNE01.JPG,AFNE01.JPG,,,,,,,,,,,,,,,,,2,4,24,5,,,,,,,AMSA03.jpg,AMSA13.jpg,AMNE02.jpg,AMNE04.jpg,AMNE02.jpg,MN,1,num_2,32,num_4,0.650156616932,,,2017_Jul_06_1438,60.0006927863,MAFE4ImagesEEG,001,200809,
AFNE01.JPG,AFNE01.JPG,AFNE01.JPG,AFNE01.JPG,AFNE01.JPG,AFNE01.JPG,,,,,,,,,,,,,,,,,2,5,25,4,,,,,,,AMNE06.jpg,AMSA06.jpg,AMSA20.jpg,AMNE11.jpg,AMNE11.jpg,MN,1,num_4,16,num_4,1.16672889004,,,2017_Jul_06_1438,60.0006927863,MAFE4ImagesEEG,001,200809,
AFNE01.JPG,AFNE01.JPG,AFNE01.JPG,AFNE01.JPG,AFNE01.JPG,AFNE01.JPG,,,,,,,,,,,,,,,,,2,6,26,8,,,,,,,AMSA14.jpg,AMSA06.jpg,AMNE19.jpg,AMNE09.jpg,AMNE09.jpg,MN,1,num_4,16,num_4,0.599989159033,,,2017_Jul_06_1438,60.0006927863,MAFE4ImagesEEG,001,200809,
AFNE01.JPG,AFNE01.JPG,AFNE01.JPG,AFNE01.JPG,AFNE01.JPG,AFNE01.JPG,,,,,,,,,,,,,,,,,2,7,27,6,,,,,,,AMNE18.jpg,AMNE17.jpg,AMSA20.jpg,AMSA18.jpg,AMNE17.jpg,MN,1,num_6,16,num_6,0.73346316861,,,2017_Jul_06_1438,60.0006927863,MAFE4ImagesEEG,001,200809,
AFNE01.JPG,AFNE01.JPG,AFNE01.JPG,AFNE01.JPG,AFNE01.JPG,AFNE01.JPG,,,,,,,,,,,,,,,,,2,8,28,3,,,,,,,AMSA19.jpg,AMSA01.jpg,AMNE06.jpg,AMNE16.jpg,AMNE16.jpg,MN,1,num_4,16,num_4,0.533716744976,,,2017_Jul_06_1438,60.0006927863,MAFE4ImagesEEG,001,200809,
AFNE01.JPG,AFNE01.JPG,AFNE01.JPG,AFNE01.JPG,AFNE01.JPG,AFNE01.JPG,,,,,,,,,,,,,,,,,2,9,29,2,,,,,,,AMSA20.jpg,AMSA15.jpg,AMNE12.jpg,AMNE13.jpg,AMNE13.jpg,MN,1,num_4,16,num_4,0.683848023531,,,2017_Jul_06_1438,60.0006927863,MAFE4ImagesEEG,001,200809,
AFNE01.JPG,AFNE01.JPG,AFNE01.JPG,AFNE01.JPG,AFNE01.JPG,AFNE01.JPG,,,,,,,,,,,,,,,,,3,0,30,5,,,,,,,AMSA01.jpg,AMNE13.jpg,AMNE02.jpg,AMSA12.jpg,AMNE02.jpg,MN,1,num_2,32,num_6,1.21675875084,,,2017_Jul_06_1438,60.0006927863,MAFE4ImagesEEG,001,200809,
AFNE01.JPG,AFNE01.JPG,AFNE01.JPG,AFNE01.JPG,AFNE01.JPG,AFNE01.JPG,,,,,,,,,,,,,,,,,3,1,31,2,,,,,,,AMSA18.jpg,AMNE16.jpg,AMSA11.jpg,AMNE03.jpg,AMNE16.jpg,MN,1,num_6,16,num_6,0.600164282601,,,2017_Jul_06_1438,60.0006927863,MAFE4ImagesEEG,001,200809,
AFNE01.JPG,AFNE01.JPG,AFNE01.JPG,AFNE01.JPG,AFNE01.JPG,AFNE01.JPG,,,,,,,,,,,,,,,,,3,2,32,9,,,,,,,AMNE07.jpg,AMNE10.jpg,AMSA16.jpg,AMSA12.jpg,AMSA16.jpg,MS,2,num_2,32,num_4,0.566791370045,,,2017_Jul_06_1438,60.0006927863,MAFE4ImagesEEG,001,200809,
AFNE01.JPG,AFNE01.JPG,AFNE01.JPG,AFNE01.JPG,AFNE01.JPG,AFNE01.JPG,,,,,,,,,,,,,,,,,3,3,33,1,,,,,,,AMNE10.jpg,AMNE16.jpg,AMSA15.jpg,AMSA02.jpg,AMNE10.jpg,MN,1,num_8,16,num_8,0.816831943579,,,2017_Jul_06_1438,60.0006927863,MAFE4ImagesEEG,001,200809,
AFNE01.JPG,AFNE01.JPG,AFNE01.JPG,AFNE01.JPG,AFNE01.JPG,AFNE01.JPG,,,,,,,,,,,,,,,,,3,4,34,3,,,,,,,AMNE20.jpg,AMNE15.jpg,AMSA14.jpg,AMSA19.jpg,AMSA14.jpg,MS,2,num_2,16,num_2,1.03345566324,,,2017_Jul_06_1438,60.0006927863,MAFE4ImagesEEG,001,200809,
AFNE01.JPG,AFNE01.JPG,AFNE01.JPG,AFNE01.JPG,AFNE01.JPG,AFNE01.JPG,,,,,,,,,,,,,,,,,3,5,35,6,,,,,,,AMSA08.jpg,AMNE04.jpg,AMNE20.jpg,AMSA19.jpg,AMNE20.jpg,MN,1,num_2,16,num_2,0.666805226007,,,2017_Jul_06_1438,60.0006927863,MAFE4ImagesEEG,001,200809,
AFNE01.JPG,AFNE01.JPG,AFNE01.JPG,AFNE01.JPG,AFNE01.JPG,AFNE01.JPG,,,,,,,,,,,,,,,,,3,6,36,7,,,,,,,AMNE02.jpg,AMNE15.jpg,AMSA18.jpg,AMSA07.jpg,AMNE15.jpg,MN,1,num_6,32,num_8,1.4834386321,,,2017_Jul_06_1438,60.0006927863,MAFE4ImagesEEG,001,200809,
AFNE01.JPG,AFNE01.JPG,AFNE01.JPG,AFNE01.JPG,AFNE01.JPG,AFNE01.JPG,,,,,,,,,,,,,,,,,3,7,37,8,,,,,,,AMNE03.jpg,AMSA14.jpg,AMNE07.jpg,AMSA08.jpg,AMNE03.jpg,MN,1,num_8,16,num_8,0.583467241959,,,2017_Jul_06_1438,60.0006927863,MAFE4ImagesEEG,001,200809,
AFNE01.JPG,AFNE01.JPG,AFNE01.JPG,AFNE01.JPG,AFNE01.JPG,AFNE01.JPG,,,,,,,,,,,,,,,,,3,8,38,0,,,,,,,AMSA17.jpg,AMNE02.jpg,AMSA03.jpg,AMNE09.jpg,AMNE02.jpg,MN,1,num_6,16,num_6,0.550097216037,,,2017_Jul_06_1438,60.0006927863,MAFE4ImagesEEG,001,200809,
AFNE01.JPG,AFNE01.JPG,AFNE01.JPG,AFNE01.JPG,AFNE01.JPG,AFNE01.JPG,,,,,,,,,,,,,,,,,3,9,39,4,,,,,,,AMNE10.jpg,AMSA16.jpg,AMSA09.jpg,AMNE18.jpg,AMSA16.jpg,MS,2,num_6,32,num_4,2.36665043724,,,2017_Jul_06_1438,60.0006927863,MAFE4ImagesEEG,001,200809,
AFNE01.JPG,AFNE01.JPG,AFNE01.JPG,AFNE01.JPG,AFNE01.JPG,AFNE01.JPG,,,,,,,,,,,,,,,,,4,0,40,4,,,,,,,AMNE11.jpg,AMSA06.jpg,AMNE16.jpg,AMSA20.jpg,AMNE11.jpg,MN,1,num_8,16,num_8,0.800121431821,,,2017_Jul_06_1438,60.0006927863,MAFE4ImagesEEG,001,200809,
AFNE01.JPG,AFNE01.JPG,AFNE01.JPG,AFNE01.JPG,AFNE01.JPG,AFNE01.JPG,,,,,,,,,,,,,,,,,4,1,41,7,,,,,,,AMSA05.jpg,AMNE15.jpg,AMSA10.jpg,AMNE13.jpg,AMSA05.jpg,MS,2,num_8,32,num_2,2.38334619498,,,2017_Jul_06_1438,60.0006927863,MAFE4ImagesEEG,001,200809,
AFNE01.JPG,AFNE01.JPG,AFNE01.JPG,AFNE01.JPG,AFNE01.JPG,AFNE01.JPG,,,,,,,,,,,,,,,,,4,2,42,1,,,,,,,AMSA04.jpg,AMNE12.jpg,AMSA05.jpg,AMNE19.jpg,AMNE19.jpg,MN,1,num_4,16,num_4,0.750118192402,,,2017_Jul_06_1438,60.0006927863,MAFE4ImagesEEG,001,200809,
AFNE01.JPG,AFNE01.JPG,AFNE01.JPG,AFNE01.JPG,AFNE01.JPG,AFNE01.JPG,,,,,,,,,,,,,,,,,4,3,43,0,,,,,,,AMNE13.jpg,AMSA20.jpg,AMNE01.jpg,AMSA03.jpg,AMSA20.jpg,MS,2,num_6,32,num_4,0.950112868217,,,2017_Jul_06_1438,60.0006927863,MAFE4ImagesEEG,001,200809,
AFNE01.JPG,AFNE01.JPG,AFNE01.JPG,AFNE01.JPG,AFNE01.JPG,AFNE01.JPG,,,,,,,,,,,,,,,,,4,4,44,8,,,,,,,AMNE01.jpg,AMSA10.jpg,AMNE05.jpg,AMSA02.jpg,AMSA10.jpg,MS,2,num_6,16,num_6,1.68340764858,,,2017_Jul_06_1438,60.0006927863,MAFE4ImagesEEG,001,200809,
AFNE01.JPG,AFNE01.JPG,AFNE01.JPG,AFNE01.JPG,AFNE01.JPG,AFNE01.JPG,,,,,,,,,,,,,,,,,4,5,45,2,,,,,,,AMSA16.jpg,AMSA14.jpg,AMNE02.jpg,AMNE12.jpg,AMSA14.jpg,MS,2,num_6,16,num_6,0.566749673919,,,2017_Jul_06_1438,60.0006927863,MAFE4ImagesEEG,001,200809,
AFNE01.JPG,AFNE01.JPG,AFNE01.JPG,AFNE01.JPG,AFNE01.JPG,AFNE01.JPG,,,,,,,,,,,,,,,,,4,6,46,9,,,,,,,AMNE05.jpg,AMNE03.jpg,AMSA19.jpg,AMSA01.jpg,AMSA01.jpg,MS,2,num_4,16,num_4,0.700132914353,,,2017_Jul_06_1438,60.0006927863,MAFE4ImagesEEG,001,200809,
AFNE01.JPG,AFNE01.JPG,AFNE01.JPG,AFNE01.JPG,AFNE01.JPG,AFNE01.JPG,,,,,,,,,,,,,,,,,4,7,47,6,,,,,,,AMNE08.jpg,AMSA13.jpg,AMNE14.jpg,AMSA05.jpg,AMSA13.jpg,MS,2,num_6,32,num_4,0.966771420091,,,2017_Jul_06_1438,60.0006927863,MAFE4ImagesEEG,001,200809,
AFNE01.JPG,AFNE01.JPG,AFNE01.JPG,AFNE01.JPG,AFNE01.JPG,AFNE01.JPG,,,,,,,,,,,,,,,,,4,8,48,3,,,,,,,AMSA17.jpg,AMNE13.jpg,AMSA07.jpg,AMNE19.jpg,AMSA17.jpg,MS,2,num_8,16,num_8,1.13348940504,,,2017_Jul_06_1438,60.0006927863,MAFE4ImagesEEG,001,200809,
AFNE01.JPG,AFNE01.JPG,AFNE01.JPG,AFNE01.JPG,AFNE01.JPG,AFNE01.JPG,,,,,,,,,,,,,,,,,4,9,49,5,,,,,,,AMSA12.jpg,AMSA13.jpg,AMNE05.jpg,AMNE16.jpg,AMNE05.jpg,MN,1,num_2,16,num_2,0.683500983636,,,2017_Jul_06_1438,60.0006927863,MAFE4ImagesEEG,001,200809,
AFNE01.JPG,AFNE01.JPG,AFNE01.JPG,AFNE01.JPG,AFNE01.JPG,AFNE01.JPG,,,,,,,,,,,,,,,,,5,0,50,5,,,,,,,AMSA17.jpg,AMNE01.jpg,AMNE14.jpg,AMSA06.jpg,AMSA17.jpg,MS,2,num_8,16,num_8,0.683470834279,,,2017_Jul_06_1438,60.0006927863,MAFE4ImagesEEG,001,200809,
AFNE01.JPG,AFNE01.JPG,AFNE01.JPG,AFNE01.JPG,AFNE01.JPG,AFNE01.JPG,,,,,,,,,,,,,,,,,5,1,51,3,,,,,,,AMSA11.jpg,AMSA03.jpg,AMNE03.jpg,AMNE05.jpg,AMSA03.jpg,MS,2,num_6,32,num_8,0.516786847729,,,2017_Jul_06_1438,60.0006927863,MAFE4ImagesEEG,001,200809,
AFNE01.JPG,AFNE01.JPG,AFNE01.JPG,AFNE01.JPG,AFNE01.JPG,AFNE01.JPG,,,,,,,,,,,,,,,,,5,2,52,6,,,,,,,AMNE12.jpg,AMNE19.jpg,AMSA02.jpg,AMSA08.jpg,AMSA08.jpg,MS,2,num_4,16,num_4,0.700124895782,,,2017_Jul_06_1438,60.0006927863,MAFE4ImagesEEG,001,200809,
AFNE01.JPG,AFNE01.JPG,AFNE01.JPG,AFNE01.JPG,AFNE01.JPG,AFNE01.JPG,,,,,,,,,,,,,,,,,5,3,53,9,,,,,,,AMSA18.jpg,AMSA08.jpg,AMNE08.jpg,AMNE17.jpg,AMSA08.jpg,MS,2,num_6,32,num_4,3.06626215042,,,2017_Jul_06_1438,60.0006927863,MAFE4ImagesEEG,001,200809,
AFNE01.JPG,AFNE01.JPG,AFNE01.JPG,AFNE01.JPG,AFNE01.JPG,AFNE01.JPG,,,,,,,,,,,,,,,,,5,4,54,7,,,,,,,AMNE02.jpg,AMNE20.jpg,AMSA05.jpg,AMSA20.jpg,AMNE02.jpg,MN,1,num_8,16,num_8,0.850121784722,,,2017_Jul_06_1438,60.0006927863,MAFE4ImagesEEG,001,200809,
AFNE01.JPG,AFNE01.JPG,AFNE01.JPG,AFNE01.JPG,AFNE01.JPG,AFNE01.JPG,,,,,,,,,,,,,,,,,5,5,55,0,,,,,,,AMNE17.jpg,AMSA06.jpg,AMNE08.jpg,AMSA16.jpg,AMSA16.jpg,MS,2,num_4,16,num_4,0.733453546418,,,2017_Jul_06_1438,60.0006927863,MAFE4ImagesEEG,001,200809,
AFNE01.JPG,AFNE01.JPG,AFNE01.JPG,AFNE01.JPG,AFNE01.JPG,AFNE01.JPG,,,,,,,,,,,,,,,,,5,6,56,1,,,,,,,AMSA10.jpg,AMSA04.jpg,AMNE17.jpg,AMNE01.jpg,AMNE17.jpg,MN,1,num_2,16,num_2,0.516782357241,,,2017_Jul_06_1438,60.0006927863,MAFE4ImagesEEG,001,200809,
AFNE01.JPG,AFNE01.JPG,AFNE01.JPG,AFNE01.JPG,AFNE01.JPG,AFNE01.JPG,,,,,,,,,,,,,,,,,5,7,57,2,,,,,,,AMSA07.jpg,AMSA09.jpg,AMNE08.jpg,AMNE14.jpg,AMSA09.jpg,MS,2,num_6,16,num_6,0.766785083571,,,2017_Jul_06_1438,60.0006927863,MAFE4ImagesEEG,001,200809,
AFNE01.JPG,AFNE01.JPG,AFNE01.JPG,AFNE01.JPG,AFNE01.JPG,AFNE01.JPG,,,,,,,,,,,,,,,,,5,8,58,8,,,,,,,AMSA10.jpg,AMNE08.jpg,AMNE11.jpg,AMSA13.jpg,AMNE11.jpg,MN,1,num_2,16,num_2,0.616751630441,,,2017_Jul_06_1438,60.0006927863,MAFE4ImagesEEG,001,200809,
AFNE01.JPG,AFNE01.JPG,AFNE01.JPG,AFNE01.JPG,AFNE01.JPG,AFNE01.JPG,,,,,,,,,,,,,,,,,5,9,59,4,,,,,,,AMNE20.jpg,AMSA02.jpg,AMSA15.jpg,AMNE12.jpg,AMNE12.jpg,MN,1,num_4,16,num_4,0.950206203153,,,2017_Jul_06_1438,60.0006927863,MAFE4ImagesEEG,001,200809,
,,,,,,,,,,,,,,,,,,,,,,,,,,,,,,,,,,,,,,,,,,,space,25.4811379699,2017_Jul_06_1438,60.0006927863,MAFE4ImagesEEG,001,200809,
AFNE01.JPG,AFNE01.JPG,AFNE01.JPG,AFNE01.JPG,AFNE01.JPG,AFNE01.JPG,,,,,,,,,,,,,,,,,,,,,0,0,0,5,,,AFNE09.jpg,AFSA09.jpg,AFNE19.jpg,AFSA04.jpg,AFSA04.jpg,FS,4,num_4,16,num_4,0.46681504068,,,2017_Jul_06_1438,60.0006927863,MAFE4ImagesEEG,001,200809,
AFNE01.JPG,AFNE01.JPG,AFNE01.JPG,AFNE01.JPG,AFNE01.JPG,AFNE01.JPG,,,,,,,,,,,,,,,,,,,,,0,1,1,8,,,AFNE17.jpg,AFNE02.jpg,AFSA09.jpg,AFSA10.jpg,AFNE17.jpg,FN,3,num_8,16,num_8,1.00012861635,,,2017_Jul_06_1438,60.0006927863,MAFE4ImagesEEG,001,200809,
AFNE01.JPG,AFNE01.JPG,AFNE01.JPG,AFNE01.JPG,AFNE01.JPG,AFNE01.JPG,,,,,,,,,,,,,,,,,,,,,0,2,2,1,,,AFNE07.jpg,AFSA19.jpg,AFNE17.jpg,AFSA02.jpg,AFSA02.jpg,FS,4,num_4,16,num_4,0.450162261957,,,2017_Jul_06_1438,60.0006927863,MAFE4ImagesEEG,001,200809,
AFNE01.JPG,AFNE01.JPG,AFNE01.JPG,AFNE01.JPG,AFNE01.JPG,AFNE01.JPG,,,,,,,,,,,,,,,,,,,,,0,3,3,0,,,AFSA15.jpg,AFSA12.jpg,AFNE04.jpg,AFNE06.jpg,AFNE06.jpg,FN,3,num_4,32,num_8,1.28346320055,,,2017_Jul_06_1438,60.0006927863,MAFE4ImagesEEG,001,200809,
AFNE01.JPG,AFNE01.JPG,AFNE01.JPG,AFNE01.JPG,AFNE01.JPG,AFNE01.JPG,,,,,,,,,,,,,,,,,,,,,0,4,4,9,,,AFNE14.jpg,AFSA10.jpg,AFSA13.jpg,AFNE13.jpg,AFNE14.jpg,FN,3,num_8,32,num_4,0.96674319508,,,2017_Jul_06_1438,60.0006927863,MAFE4ImagesEEG,001,200809,
AFNE01.JPG,AFNE01.JPG,AFNE01.JPG,AFNE01.JPG,AFNE01.JPG,AFNE01.JPG,,,,,,,,,,,,,,,,,,,,,0,5,5,3,,,AFNE19.jpg,AFSA10.jpg,AFNE13.jpg,AFSA16.jpg,AFSA16.jpg,FS,4,num_4,16,num_4,0.750130059663,,,2017_Jul_06_1438,60.0006927863,MAFE4ImagesEEG,001,200809,
AFNE01.JPG,AFNE01.JPG,AFNE01.JPG,AFNE01.JPG,AFNE01.JPG,AFNE01.JPG,,,,,,,,,,,,,,,,,,,,,0,6,6,2,,,AFNE06.jpg,AFSA13.jpg,AFSA17.jpg,AFNE12.jpg,AFSA13.jpg,FS,4,num_6,32,num_2,0.816843490233,,,2017_Jul_06_1438,60.0006927863,MAFE4ImagesEEG,001,200809,
AFNE01.JPG,AFNE01.JPG,AFNE01.JPG,AFNE01.JPG,AFNE01.JPG,AFNE01.JPG,,,,,,,,,,,,,,,,,,,,,0,7,7,6,,,AFNE14.jpg,AFSA12.jpg,AFSA07.jpg,AFNE17.jpg,AFSA12.jpg,FS,4,num_6,16,num_6,1.08342907391,,,2017_Jul_06_1438,60.0006927863,MAFE4ImagesEEG,001,200809,
AFNE01.JPG,AFNE01.JPG,AFNE01.JPG,AFNE01.JPG,AFNE01.JPG,AFNE01.JPG,,,,,,,,,,,,,,,,,,,,,0,8,8,4,,,AFSA05.jpg,AFNE07.jpg,AFSA17.jpg,AFNE05.jpg,AFSA17.jpg,FS,4,num_2,16,num_2,1.00013374828,,,2017_Jul_06_1438,60.0006927863,MAFE4ImagesEEG,001,200809,
AFNE01.JPG,AFNE01.JPG,AFNE01.JPG,AFNE01.JPG,AFNE01.JPG,AFNE01.JPG,,,,,,,,,,,,,,,,,,,,,0,9,9,7,,,AFSA03.jpg,AFSA15.jpg,AFNE03.jpg,AFNE07.jpg,AFSA15.jpg,FS,4,num_6,16,num_6,1.21676099603,,,2017_Jul_06_1438,60.0006927863,MAFE4ImagesEEG,001,200809,
AFNE01.JPG,AFNE01.JPG,AFNE01.JPG,AFNE01.JPG,AFNE01.JPG,AFNE01.JPG,,,,,,,,,,,,,,,,,,,,,1,0,10,4,,,AFSA01.jpg,AFNE19.jpg,AFNE18.jpg,AFSA05.jpg,AFSA01.jpg,FS,4,num_8,16,num_8,0.600307011511,,,2017_Jul_06_1438,60.0006927863,MAFE4ImagesEEG,001,200809,
AFNE01.JPG,AFNE01.JPG,AFNE01.JPG,AFNE01.JPG,AFNE01.JPG,AFNE01.JPG,,,,,,,,,,,,,,,,,,,,,1,1,11,8,,,AFSA13.jpg,AFSA14.jpg,AFNE04.jpg,AFNE18.jpg,AFNE04.jpg,FN,3,num_2,16,num_2,1.46676436381,,,2017_Jul_06_1438,60.0006927863,MAFE4ImagesEEG,001,200809,
AFNE01.JPG,AFNE01.JPG,AFNE01.JPG,AFNE01.JPG,AFNE01.JPG,AFNE01.JPG,,,,,,,,,,,,,,,,,,,,,1,2,12,1,,,AFNE02.jpg,AFSA12.jpg,AFSA03.jpg,AFNE03.jpg,AFSA03.jpg,FS,4,num_2,32,num_4,0.700138687622,,,2017_Jul_06_1438,60.0006927863,MAFE4ImagesEEG,001,200809,
AFNE01.JPG,AFNE01.JPG,AFNE01.JPG,AFNE01.JPG,AFNE01.JPG,AFNE01.JPG,,,,,,,,,,,,,,,,,,,,,1,3,13,2,,,AFSA12.jpg,AFNE04.jpg,AFNE15.jpg,AFSA10.jpg,AFSA10.jpg,FS,4,num_4,16,num_4,1.38339238148,,,2017_Jul_06_1438,60.0006927863,MAFE4ImagesEEG,001,200809,
AFNE01.JPG,AFNE01.JPG,AFNE01.JPG,AFNE01.JPG,AFNE01.JPG,AFNE01.JPG,,,,,,,,,,,,,,,,,,,,,1,4,14,5,,,AFSA20.jpg,AFSA10.jpg,AFNE06.jpg,AFNE10.jpg,AFNE06.jpg,FN,3,num_2,32,num_4,1.55004878447,,,2017_Jul_06_1438,60.0006927863,MAFE4ImagesEEG,001,200809,
AFNE01.JPG,AFNE01.JPG,AFNE01.JPG,AFNE01.JPG,AFNE01.JPG,AFNE01.JPG,,,,,,,,,,,,,,,,,,,,,1,5,15,0,,,AFSA18.jpg,AFNE20.jpg,AFSA04.jpg,AFNE01.jpg,AFSA04.jpg,FS,4,num_2,16,num_2,0.483474554727,,,2017_Jul_06_1438,60.0006927863,MAFE4ImagesEEG,001,200809,
AFNE01.JPG,AFNE01.JPG,AFNE01.JPG,AFNE01.JPG,AFNE01.JPG,AFNE01.JPG,,,,,,,,,,,,,,,,,,,,,1,6,16,9,,,AFNE02.jpg,AFSA05.jpg,AFNE08.jpg,AFSA13.jpg,AFNE02.jpg,FN,3,num_8,16,num_8,1.13341499353,,,2017_Jul_06_1438,60.0006927863,MAFE4ImagesEEG,001,200809,
AFNE01.JPG,AFNE01.JPG,AFNE01.JPG,AFNE01.JPG,AFNE01.JPG,AFNE01.JPG,,,,,,,,,,,,,,,,,,,,,1,7,17,3,,,AFNE15.jpg,AFSA07.jpg,AFNE13.jpg,AFSA10.jpg,AFNE15.jpg,FN,3,num_8,16,num_8,1.55042148335,,,2017_Jul_06_1438,60.0006927863,MAFE4ImagesEEG,001,200809,
AFNE01.JPG,AFNE01.JPG,AFNE01.JPG,AFNE01.JPG,AFNE01.JPG,AFNE01.JPG,,,,,,,,,,,,,,,,,,,,,1,8,18,7,,,AFSA18.jpg,AFNE01.jpg,AFSA09.jpg,AFNE19.jpg,AFNE19.jpg,FN,3,num_4,32,num_6,0.983412972884,,,2017_Jul_06_1438,60.0006927863,MAFE4ImagesEEG,001,200809,
AFNE01.JPG,AFNE01.JPG,AFNE01.JPG,AFNE01.JPG,AFNE01.JPG,AFNE01.JPG,,,,,,,,,,,,,,,,,,,,,1,9,19,6,,,AFNE10.jpg,AFSA01.jpg,AFNE01.jpg,AFSA06.jpg,AFNE01.jpg,FN,3,num_2,16,num_2,2.38332470553,,,2017_Jul_06_1438,60.0006927863,MAFE4ImagesEEG,001,200809,
AFNE01.JPG,AFNE01.JPG,AFNE01.JPG,AFNE01.JPG,AFNE01.JPG,AFNE01.JPG,,,,,,,,,,,,,,,,,,,,,2,0,20,0,,,AFSA12.jpg,AFNE10.jpg,AFSA16.jpg,AFNE02.jpg,AFNE02.jpg,FN,3,num_4,32,num_8,0.850138783804,,,2017_Jul_06_1438,60.0006927863,MAFE4ImagesEEG,001,200809,
AFNE01.JPG,AFNE01.JPG,AFNE01.JPG,AFNE01.JPG,AFNE01.JPG,AFNE01.JPG,,,,,,,,,,,,,,,,,,,,,2,1,21,4,,,AFSA18.jpg,AFNE03.jpg,AFSA02.jpg,AFNE12.jpg,AFNE03.jpg,FN,3,num_6,16,num_6,1.23345899896,,,2017_Jul_06_1438,60.0006927863,MAFE4ImagesEEG,001,200809,
AFNE01.JPG,AFNE01.JPG,AFNE01.JPG,AFNE01.JPG,AFNE01.JPG,AFNE01.JPG,,,,,,,,,,,,,,,,,,,,,2,2,22,7,,,AFSA17.jpg,AFNE13.jpg,AFNE07.jpg,AFSA16.jpg,AFSA17.jpg,FS,4,num_8,16,num_8,0.450131150312,,,2017_Jul_06_1438,60.0006927863,MAFE4ImagesEEG,001,200809,
AFNE01.JPG,AFNE01.JPG,AFNE01.JPG,AFNE01.JPG,AFNE01.JPG,AFNE01.JPG,,,,,,,,,,,,,,,,,,,,,2,3,23,2,,,AFSA06.jpg,AFSA10.jpg,AFNE14.jpg,AFNE08.jpg,AFSA06.jpg,FS,4,num_8,32,num_6,0.700142857153,,,2017_Jul_06_1438,60.0006927863,MAFE4ImagesEEG,001,200809,
AFNE01.JPG,AFNE01.JPG,AFNE01.JPG,AFNE01.JPG,AFNE01.JPG,AFNE01.JPG,,,,,,,,,,,,,,,,,,,,,2,4,24,3,,,AFSA01.jpg,AFNE09.jpg,AFSA04.jpg,AFNE19.jpg,AFSA04.jpg,FS,4,num_2,16,num_2,3.09998627228,,,2017_Jul_06_1438,60.0006927863,MAFE4ImagesEEG,001,200809,
AFNE01.JPG,AFNE01.JPG,AFNE01.JPG,AFNE01.JPG,AFNE01.JPG,AFNE01.JPG,,,,,,,,,,,,,,,,,,,,,2,5,25,6,,,AFSA15.jpg,AFSA12.jpg,AFNE05.jpg,AFNE17.jpg,AFNE05.jpg,FN,3,num_2,16,num_2,0.650113958633,,,2017_Jul_06_1438,60.0006927863,MAFE4ImagesEEG,001,200809,
AFNE01.JPG,AFNE01.JPG,AFNE01.JPG,AFNE01.JPG,AFNE01.JPG,AFNE01.JPG,,,,,,,,,,,,,,,,,,,,,2,6,26,9,,,AFNE19.jpg,AFSA05.jpg,AFSA11.jpg,AFNE01.jpg,AFNE01.jpg,FN,3,num_4,16,num_4,0.766763914726,,,2017_Jul_06_1438,60.0006927863,MAFE4ImagesEEG,001,200809,
AFNE01.JPG,AFNE01.JPG,AFNE01.JPG,AFNE01.JPG,AFNE01.JPG,AFNE01.JPG,,,,,,,,,,,,,,,,,,,,,2,7,27,5,,,AFSA14.jpg,AFNE12.jpg,AFNE02.jpg,AFSA15.jpg,AFSA14.jpg,FS,4,num_8,16,num_8,0.916768501396,,,2017_Jul_06_1438,60.0006927863,MAFE4ImagesEEG,001,200809,
AFNE01.JPG,AFNE01.JPG,AFNE01.JPG,AFNE01.JPG,AFNE01.JPG,AFNE01.JPG,,,,,,,,,,,,,,,,,,,,,2,8,28,1,,,AFSA17.jpg,AFNE10.jpg,AFSA16.jpg,AFNE05.jpg,AFSA17.jpg,FS,4,num_8,16,num_8,1.75005725201,,,2017_Jul_06_1438,60.0006927863,MAFE4ImagesEEG,001,200809,
AFNE01.JPG,AFNE01.JPG,AFNE01.JPG,AFNE01.JPG,AFNE01.JPG,AFNE01.JPG,,,,,,,,,,,,,,,,,,,,,2,9,29,8,,,AFNE17.jpg,AFNE14.jpg,AFSA03.jpg,AFSA15.jpg,AFNE14.jpg,FN,3,num_6,16,num_6,0.78342374973,,,2017_Jul_06_1438,60.0006927863,MAFE4ImagesEEG,001,200809,
AFNE01.JPG,AFNE01.JPG,AFNE01.JPG,AFNE01.JPG,AFNE01.JPG,AFNE01.JPG,,,,,,,,,,,,,,,,,,,,,3,0,30,6,,,AFSA19.jpg,AFNE09.jpg,AFSA02.jpg,AFNE06.jpg,AFNE09.jpg,FN,3,num_6,16,num_6,3.63330337638,,,2017_Jul_06_1438,60.0006927863,MAFE4ImagesEEG,001,200809,
AFNE01.JPG,AFNE01.JPG,AFNE01.JPG,AFNE01.JPG,AFNE01.JPG,AFNE01.JPG,,,,,,,,,,,,,,,,,,,,,3,1,31,8,,,AFNE18.jpg,AFSA01.jpg,AFSA08.jpg,AFNE06.jpg,AFSA01.jpg,FS,4,num_6,16,num_6,0.966789702186,,,2017_Jul_06_1438,60.0006927863,MAFE4ImagesEEG,001,200809,
AFNE01.JPG,AFNE01.JPG,AFNE01.JPG,AFNE01.JPG,AFNE01.JPG,AFNE01.JPG,,,,,,,,,,,,,,,,,,,,,3,2,32,3,,,AFNE18.jpg,AFNE20.jpg,AFSA08.jpg,AFSA06.jpg,AFNE20.jpg,FN,3,num_6,16,num_6,0.533461115789,,,2017_Jul_06_1438,60.0006927863,MAFE4ImagesEEG,001,200809,
AFNE01.JPG,AFNE01.JPG,AFNE01.JPG,AFNE01.JPG,AFNE01.JPG,AFNE01.JPG,,,,,,,,,,,,,,,,,,,,,3,3,33,0,,,AFNE01.jpg,AFSA02.jpg,AFNE07.jpg,AFSA19.jpg,AFSA19.jpg,FS,4,num_4,16,num_4,1.00038713228,,,2017_Jul_06_1438,60.0006927863,MAFE4ImagesEEG,001,200809,
AFNE01.JPG,AFNE01.JPG,AFNE01.JPG,AFNE01.JPG,AFNE01.JPG,AFNE01.JPG,,,,,,,,,,,,,,,,,,,,,3,4,34,1,,,AFSA08.jpg,AFSA14.jpg,AFNE01.jpg,AFNE14.jpg,AFSA08.jpg,FS,4,num_8,16,num_8,0.600093078567,,,2017_Jul_06_1438,60.0006927863,MAFE4ImagesEEG,001,200809,
AFNE01.JPG,AFNE01.JPG,AFNE01.JPG,AFNE01.JPG,AFNE01.JPG,AFNE01.JPG,,,,,,,,,,,,,,,,,,,,,3,5,35,4,,,AFSA08.jpg,AFNE08.jpg,AFSA07.jpg,AFNE11.jpg,AFNE08.jpg,FN,3,num_6,32,num_2,1.88337634446,,,2017_Jul_06_1438,60.0006927863,MAFE4ImagesEEG,001,200809,
AFNE01.JPG,AFNE01.JPG,AFNE01.JPG,AFNE01.JPG,AFNE01.JPG,AFNE01.JPG,,,,,,,,,,,,,,,,,,,,,3,6,36,2,,,AFNE09.jpg,AFNE03.jpg,AFSA06.jpg,AFSA16.jpg,AFNE09.jpg,FN,3,num_8,16,num_8,0.43352552026,,,2017_Jul_06_1438,60.0006927863,MAFE4ImagesEEG,001,200809,
AFNE01.JPG,AFNE01.JPG,AFNE01.JPG,AFNE01.JPG,AFNE01.JPG,AFNE01.JPG,,,,,,,,,,,,,,,,,,,,,3,7,37,5,,,AFSA13.jpg,AFNE05.jpg,AFNE06.jpg,AFSA07.jpg,AFNE05.jpg,FN,3,num_6,16,num_6,0.6501659184,,,2017_Jul_06_1438,60.0006927863,MAFE4ImagesEEG,001,200809,
AFNE01.JPG,AFNE01.JPG,AFNE01.JPG,AFNE01.JPG,AFNE01.JPG,AFNE01.JPG,,,,,,,,,,,,,,,,,,,,,3,8,38,7,,,AFSA04.jpg,AFNE04.jpg,AFSA12.jpg,AFNE08.jpg,AFNE04.jpg,FN,3,num_6,32,num_4,1.71718405106,,,2017_Jul_06_1438,60.0006927863,MAFE4ImagesEEG,001,200809,
