IPosition2,IPosition3,IPosition1,IPosition6,IPosition4,IPosition5,TrialsM1.thisRepN,TrialsM1.thisTrialN,TrialsM1.thisN,TrialsM1.thisIndex,TrialsF1.thisRepN,TrialsF1.thisTrialN,TrialsF1.thisN,TrialsF1.thisIndex,TrialsM2.thisRepN,TrialsM2.thisTrialN,TrialsM2.thisN,TrialsM2.thisIndex,TrialsF2.thisRepN,TrialsF2.thisTrialN,TrialsF2.thisN,TrialsF2.thisIndex,TrialsM3.thisRepN,TrialsM3.thisTrialN,TrialsM3.thisN,TrialsM3.thisIndex,TrialsF3.thisRepN,TrialsF3.thisTrialN,TrialsF3.thisN,TrialsF3.thisIndex,InstrKey_resp.keys,InstrKey_resp.rt,Image0 _Position,Image1 _Position,Image2 _Position,Image3 _Position,Center_image,condition,code,correct_answer,accuracy,Key_Resp.keys,Key_Resp.rt,BreakKey_resp.keys,BreakKey_resp.rt,date,frameRate,expName,session,participant,
,,,,,,,,,,,,,,,,,,,,,,,,,,,,,,space,6.99968792079,,,,,,,,,,,,,,2017_Jul_03_1140,60.0017320166,MAFE4ImagesEEG,001,200844,
AFNE22.JPG,AFSA24.JPG,AFSA22.JPG,AFNE25.JPG,AFNE24.JPG,AFSA25.JPG,0,0,0,6,,,,,,,,,,,,,,,,,,,,,,,AMSA02.jpg,AMSA03.jpg,AMNE07.jpg,AMNE06.jpg,AMSA03.jpg,MS,2,num_6,16,num_6,1.75022564002,,,2017_Jul_03_1140,60.0017320166,MAFE4ImagesEEG,001,200844,
AFSA21.JPG,AFNE22.JPG,AFNE21.JPG,AFSA23.JPG,AFSA22.JPG,AFNE23.JPG,0,1,1,0,,,,,,,,,,,,,,,,,,,,,,,AMSA01.jpg,AMSA10.jpg,AMNE05.jpg,AMNE20.jpg,AMNE20.jpg,MN,1,num_4,16,num_4,0.866794769885,,,2017_Jul_03_1140,60.0017320166,MAFE4ImagesEEG,001,200844,
AMSA21.JPG,AMNE22.JPG,AMNE21.JPG,AMSA23.JPG,AMSA22.JPG,AMNE23.JPG,0,2,2,1,,,,,,,,,,,,,,,,,,,,,,,AMSA05.jpg,AMSA07.jpg,AMNE09.jpg,AMNE02.jpg,AMSA05.jpg,MS,2,num_8,16,num_8,1.88340649393,,,2017_Jul_03_1140,60.0017320166,MAFE4ImagesEEG,001,200844,
AFSA25.JPG,AFNE24.JPG,AFSA24.JPG,AFNE21.JPG,AFSA21.JPG,AFNE25.JPG,0,3,3,2,,,,,,,,,,,,,,,,,,,,,,,AMNE02.jpg,AMSA03.jpg,AMSA16.jpg,AMNE03.jpg,AMNE02.jpg,MN,1,num_8,32,num_4,1.36673062213,,,2017_Jul_03_1140,60.0017320166,MAFE4ImagesEEG,001,200844,
AMNE22.JPG,AMSA24.JPG,AMSA22.JPG,AMNE25.JPG,AMNE24.JPG,AMSA25.JPG,0,4,4,7,,,,,,,,,,,,,,,,,,,,,,,AMNE11.jpg,AMSA05.jpg,AMNE15.jpg,AMSA17.jpg,AMSA17.jpg,MS,2,num_4,32,num_2,1.63335373241,,,2017_Jul_03_1140,60.0017320166,MAFE4ImagesEEG,001,200844,
AMSA25.JPG,AMNE24.JPG,AMSA24.JPG,AMNE26.JPG,AMSA21.JPG,AMNE25.JPG,0,5,5,3,,,,,,,,,,,,,,,,,,,,,,,AMNE09.jpg,AMSA03.jpg,AMNE10.jpg,AMSA01.jpg,AMSA03.jpg,MS,2,num_6,16,num_6,1.40005959326,,,2017_Jul_03_1140,60.0017320166,MAFE4ImagesEEG,001,200844,
AFSA21.JPG,AFNE23.JPG,AFNE21.JPG,AFSA25.JPG,AFNE25.JPG,AFSA23.JPG,0,6,6,4,,,,,,,,,,,,,,,,,,,,,,,AMSA18.jpg,AMSA09.jpg,AMNE13.jpg,AMNE14.jpg,AMNE13.jpg,MN,1,num_2,32,num_8,3.33326950623,,,2017_Jul_03_1140,60.0017320166,MAFE4ImagesEEG,001,200844,
AFNE23.JPG,AFNE24.JPG,AFNE22.JPG,AFSA24.JPG,AFSA22.JPG,AFSA23.JPG,0,7,7,8,,,,,,,,,,,,,,,,,,,,,,,AMSA02.jpg,AMNE10.jpg,AMNE08.jpg,AMSA03.jpg,AMNE10.jpg,MN,1,num_6,32,num_2,1.46678938146,,,2017_Jul_03_1140,60.0017320166,MAFE4ImagesEEG,001,200844,
AMSA21.JPG,AMNE23.JPG,AMNE21.JPG,AMSA25.JPG,AMNE25.JPG,AMSA23.JPG,0,8,8,5,,,,,,,,,,,,,,,,,,,,,,,AMNE06.jpg,AMSA03.jpg,AMSA01.jpg,AMNE04.jpg,AMNE04.jpg,MN,1,num_4,16,num_4,1.38341836131,,,2017_Jul_03_1140,60.0017320166,MAFE4ImagesEEG,001,200844,
AMNE23.JPG,AMNE24.JPG,AMNE22.JPG,AMSA24.JPG,AMSA22.JPG,AMSA23.JPG,0,9,9,9,,,,,,,,,,,,,,,,,,,,,,,AMNE17.jpg,AMNE04.jpg,AMSA10.jpg,AMSA13.jpg,AMNE04.jpg,MN,1,num_6,32,num_4,1.46704052028,,,2017_Jul_03_1140,60.0017320166,MAFE4ImagesEEG,001,200844,
AFSA25.JPG,AFNE24.JPG,AFSA24.JPG,AFNE21.JPG,AFSA21.JPG,AFNE25.JPG,,,,,0,0,0,2,,,,,,,,,,,,,,,,,,,AFSA19.jpg,AFNE03.jpg,AFNE20.jpg,AFSA13.jpg,AFNE20.jpg,FN,3,num_2,16,num_2,1.43340075272,,,2017_Jul_03_1140,60.0017320166,MAFE4ImagesEEG,001,200844,
AFSA21.JPG,AFNE22.JPG,AFNE21.JPG,AFSA23.JPG,AFSA22.JPG,AFNE23.JPG,,,,,0,1,1,0,,,,,,,,,,,,,,,,,,,AFNE03.jpg,AFSA10.jpg,AFNE09.jpg,AFSA13.jpg,AFNE03.jpg,FN,3,num_8,32,num_6,1.63336239231,,,2017_Jul_03_1140,60.0017320166,MAFE4ImagesEEG,001,200844,
AMSA21.JPG,AMNE22.JPG,AMNE21.JPG,AMSA23.JPG,AMSA22.JPG,AMNE23.JPG,,,,,0,2,2,1,,,,,,,,,,,,,,,,,,,AFSA04.jpg,AFNE18.jpg,AFNE19.jpg,AFSA07.jpg,AFNE18.jpg,FN,3,num_6,32,num_4,1.3000649818,,,2017_Jul_03_1140,60.0017320166,MAFE4ImagesEEG,001,200844,
AMNE23.JPG,AMNE24.JPG,AMNE22.JPG,AMSA24.JPG,AMSA22.JPG,AMSA23.JPG,,,,,0,3,3,9,,,,,,,,,,,,,,,,,,,AFNE18.jpg,AFSA19.jpg,AFSA08.jpg,AFNE01.jpg,AFSA08.jpg,FS,4,num_2,16,num_2,2.26674659492,,,2017_Jul_03_1140,60.0017320166,MAFE4ImagesEEG,001,200844,
AFNE22.JPG,AFSA24.JPG,AFSA22.JPG,AFNE25.JPG,AFNE24.JPG,AFSA25.JPG,,,,,0,4,4,6,,,,,,,,,,,,,,,,,,,AFNE07.jpg,AFSA04.jpg,AFNE01.jpg,AFSA07.jpg,AFSA07.jpg,FS,4,num_4,32,num_8,2.08336107736,,,2017_Jul_03_1140,60.0017320166,MAFE4ImagesEEG,001,200844,
AFSA21.JPG,AFNE23.JPG,AFNE21.JPG,AFSA25.JPG,AFNE25.JPG,AFSA23.JPG,,,,,0,5,5,4,,,,,,,,,,,,,,,,,,,AFSA19.jpg,AFSA07.jpg,AFNE05.jpg,AFNE11.jpg,AFSA19.jpg,FS,4,num_8,32,num_6,1.45017348777,,,2017_Jul_03_1140,60.0017320166,MAFE4ImagesEEG,001,200844,
AFNE23.JPG,AFNE24.JPG,AFNE22.JPG,AFSA24.JPG,AFSA22.JPG,AFSA23.JPG,,,,,0,6,6,8,,,,,,,,,,,,,,,,,,,AFSA17.jpg,AFSA03.jpg,AFNE16.jpg,AFNE03.jpg,AFNE03.jpg,FN,3,num_4,16,num_4,1.31672193005,,,2017_Jul_03_1140,60.0017320166,MAFE4ImagesEEG,001,200844,
AMSA25.JPG,AMNE24.JPG,AMSA24.JPG,AMNE26.JPG,AMSA21.JPG,AMNE25.JPG,,,,,0,7,7,3,,,,,,,,,,,,,,,,,,,AFNE05.jpg,AFNE09.jpg,AFSA20.jpg,AFSA15.jpg,AFNE05.jpg,FN,3,num_8,16,num_8,1.73338939855,,,2017_Jul_03_1140,60.0017320166,MAFE4ImagesEEG,001,200844,
AMNE22.JPG,AMSA24.JPG,AMSA22.JPG,AMNE25.JPG,AMNE24.JPG,AMSA25.JPG,,,,,0,8,8,7,,,,,,,,,,,,,,,,,,,AFSA19.jpg,AFSA15.jpg,AFNE16.jpg,AFNE12.jpg,AFSA19.jpg,FS,4,num_8,16,num_8,1.65011492081,,,2017_Jul_03_1140,60.0017320166,MAFE4ImagesEEG,001,200844,
AMSA21.JPG,AMNE23.JPG,AMNE21.JPG,AMSA25.JPG,AMNE25.JPG,AMSA23.JPG,,,,,0,9,9,5,,,,,,,,,,,,,,,,,,,AFNE09.jpg,AFSA03.jpg,AFSA18.jpg,AFNE13.jpg,AFSA03.jpg,FS,4,num_6,32,num_4,1.33353892714,,,2017_Jul_03_1140,60.0017320166,MAFE4ImagesEEG,001,200844,
AFSA21.JPG,AFNE23.JPG,AFNE21.JPG,AFSA25.JPG,AFNE25.JPG,AFSA23.JPG,,,,,,,,,0,0,0,4,,,,,,,,,,,,,,,AMSA05.jpg,AMSA09.jpg,AMNE09.jpg,AMNE17.jpg,AMNE17.jpg,MN,1,num_4,16,num_4,1.73336406006,,,2017_Jul_03_1140,60.0017320166,MAFE4ImagesEEG,001,200844,
AMSA25.JPG,AMNE24.JPG,AMSA24.JPG,AMNE26.JPG,AMSA21.JPG,AMNE25.JPG,,,,,,,,,0,1,1,3,,,,,,,,,,,,,,,AMSA09.jpg,AMNE03.jpg,AMSA06.jpg,AMNE14.jpg,AMSA06.jpg,MS,2,num_2,32,num_8,1.53342006111,,,2017_Jul_03_1140,60.0017320166,MAFE4ImagesEEG,001,200844,
AMNE23.JPG,AMNE24.JPG,AMNE22.JPG,AMSA24.JPG,AMSA22.JPG,AMSA23.JPG,,,,,,,,,0,2,2,9,,,,,,,,,,,,,,,AMSA11.jpg,AMSA04.jpg,AMNE15.jpg,AMNE12.jpg,AMNE15.jpg,MN,1,num_2,16,num_2,1.68340861087,,,2017_Jul_03_1140,60.0017320166,MAFE4ImagesEEG,001,200844,
AFNE22.JPG,AFSA24.JPG,AFSA22.JPG,AFNE25.JPG,AFNE24.JPG,AFSA25.JPG,,,,,,,,,0,3,3,6,,,,,,,,,,,,,,,AMSA13.jpg,AMNE08.jpg,AMNE02.jpg,AMSA11.jpg,AMNE08.jpg,MN,1,num_6,32,num_4,1.20011848107,,,2017_Jul_03_1140,60.0017320166,MAFE4ImagesEEG,001,200844,
AFSA25.JPG,AFNE24.JPG,AFSA24.JPG,AFNE21.JPG,AFSA21.JPG,AFNE25.JPG,,,,,,,,,0,4,4,2,,,,,,,,,,,,,,,AMNE12.jpg,AMSA06.jpg,AMNE11.jpg,AMSA14.jpg,AMSA06.jpg,MS,2,num_6,32,num_2,1.00010424026,,,2017_Jul_03_1140,60.0017320166,MAFE4ImagesEEG,001,200844,
AMSA21.JPG,AMNE22.JPG,AMNE21.JPG,AMSA23.JPG,AMSA22.JPG,AMNE23.JPG,,,,,,,,,0,5,5,1,,,,,,,,,,,,,,,AMSA12.jpg,AMNE13.jpg,AMNE06.jpg,AMSA17.jpg,AMNE13.jpg,MN,1,num_6,32,num_2,1.40006921557,,,2017_Jul_03_1140,60.0017320166,MAFE4ImagesEEG,001,200844,
AFSA21.JPG,AFNE22.JPG,AFNE21.JPG,AFSA23.JPG,AFSA22.JPG,AFNE23.JPG,,,,,,,,,0,6,6,0,,,,,,,,,,,,,,,AMNE13.jpg,AMSA13.jpg,AMSA14.jpg,AMNE17.jpg,AMSA13.jpg,MS,2,num_6,16,num_6,1.45006732317,,,2017_Jul_03_1140,60.0017320166,MAFE4ImagesEEG,001,200844,
AFNE23.JPG,AFNE24.JPG,AFNE22.JPG,AFSA24.JPG,AFSA22.JPG,AFSA23.JPG,,,,,,,,,0,7,7,8,,,,,,,,,,,,,,,AMNE03.jpg,AMSA03.jpg,AMSA04.jpg,AMNE04.jpg,AMSA04.jpg,MS,2,num_2,16,num_2,1.40011187375,,,2017_Jul_03_1140,60.0017320166,MAFE4ImagesEEG,001,200844,
AMNE22.JPG,AMSA24.JPG,AMSA22.JPG,AMNE25.JPG,AMNE24.JPG,AMSA25.JPG,,,,,,,,,0,8,8,7,,,,,,,,,,,,,,,AMNE09.jpg,AMNE18.jpg,AMSA03.jpg,AMSA04.jpg,AMSA04.jpg,MS,2,num_4,32,num_2,2.18333772745,,,2017_Jul_03_1140,60.0017320166,MAFE4ImagesEEG,001,200844,
AMSA21.JPG,AMNE23.JPG,AMNE21.JPG,AMSA25.JPG,AMNE25.JPG,AMSA23.JPG,,,,,,,,,0,9,9,5,,,,,,,,,,,,,,,AMNE05.jpg,AMSA16.jpg,AMSA20.jpg,AMNE07.jpg,AMSA20.jpg,MS,2,num_2,16,num_2,1.30014099705,,,2017_Jul_03_1140,60.0017320166,MAFE4ImagesEEG,001,200844,
AFSA21.JPG,AFNE23.JPG,AFNE21.JPG,AFSA25.JPG,AFNE25.JPG,AFSA23.JPG,,,,,,,,,,,,,0,0,0,4,,,,,,,,,,,AFSA11.jpg,AFNE09.jpg,AFNE04.jpg,AFSA02.jpg,AFNE04.jpg,FN,3,num_2,32,num_8,2.38337345782,,,2017_Jul_03_1140,60.0017320166,MAFE4ImagesEEG,001,200844,
AFNE23.JPG,AFNE24.JPG,AFNE22.JPG,AFSA24.JPG,AFSA22.JPG,AFSA23.JPG,,,,,,,,,,,,,0,1,1,8,,,,,,,,,,,AFNE05.jpg,AFSA13.jpg,AFNE19.jpg,AFSA03.jpg,AFSA13.jpg,FS,4,num_6,32,num_4,1.68338904576,,,2017_Jul_03_1140,60.0017320166,MAFE4ImagesEEG,001,200844,
AFNE22.JPG,AFSA24.JPG,AFSA22.JPG,AFNE25.JPG,AFNE24.JPG,AFSA25.JPG,,,,,,,,,,,,,0,2,2,6,,,,,,,,,,,AFSA02.jpg,AFNE07.jpg,AFNE04.jpg,AFSA06.jpg,AFNE04.jpg,FN,3,num_2,32,num_6,2.08334279514,,,2017_Jul_03_1140,60.0017320166,MAFE4ImagesEEG,001,200844,
AFSA21.JPG,AFNE22.JPG,AFNE21.JPG,AFSA23.JPG,AFSA22.JPG,AFNE23.JPG,,,,,,,,,,,,,0,3,3,0,,,,,,,,,,,AFNE17.jpg,AFSA05.jpg,AFNE06.jpg,AFSA10.jpg,AFNE06.jpg,FN,3,num_2,32,num_4,1.26671933208,,,2017_Jul_03_1140,60.0017320166,MAFE4ImagesEEG,001,200844,
AMNE22.JPG,AMSA24.JPG,AMSA22.JPG,AMNE25.JPG,AMNE24.JPG,AMSA25.JPG,,,,,,,,,,,,,0,4,4,7,,,,,,,,,,,AFNE15.jpg,AFNE16.jpg,AFSA15.jpg,AFSA10.jpg,AFNE15.jpg,FN,3,num_8,16,num_8,2.1166560502,,,2017_Jul_03_1140,60.0017320166,MAFE4ImagesEEG,001,200844,
AMSA21.JPG,AMNE23.JPG,AMNE21.JPG,AMSA25.JPG,AMNE25.JPG,AMSA23.JPG,,,,,,,,,,,,,0,5,5,5,,,,,,,,,,,AFSA03.jpg,AFSA12.jpg,AFNE16.jpg,AFNE09.jpg,AFSA03.jpg,FS,4,num_8,32,num_6,3.19996516767,,,2017_Jul_03_1140,60.0017320166,MAFE4ImagesEEG,001,200844,
AMNE23.JPG,AMNE24.JPG,AMNE22.JPG,AMSA24.JPG,AMSA22.JPG,AMSA23.JPG,,,,,,,,,,,,,0,6,6,9,,,,,,,,,,,AFSA08.jpg,AFNE11.jpg,AFSA07.jpg,AFNE20.jpg,AFNE20.jpg,FN,3,num_4,32,num_2,1.36677456333,,,2017_Jul_03_1140,60.0017320166,MAFE4ImagesEEG,001,200844,
AMSA21.JPG,AMNE22.JPG,AMNE21.JPG,AMSA23.JPG,AMSA22.JPG,AMNE23.JPG,,,,,,,,,,,,,0,7,7,1,,,,,,,,,,,AFSA14.jpg,AFSA07.jpg,AFNE02.jpg,AFNE19.jpg,AFSA07.jpg,FS,4,num_6,32,num_8,2.88331380032,,,2017_Jul_03_1140,60.0017320166,MAFE4ImagesEEG,001,200844,
AFSA25.JPG,AFNE24.JPG,AFSA24.JPG,AFNE21.JPG,AFSA21.JPG,AFNE25.JPG,,,,,,,,,,,,,0,8,8,2,,,,,,,,,,,AFSA02.jpg,AFSA17.jpg,AFNE12.jpg,AFNE13.jpg,AFNE13.jpg,FN,3,num_4,16,num_4,1.03339568502,,,2017_Jul_03_1140,60.0017320166,MAFE4ImagesEEG,001,200844,
AMSA25.JPG,AMNE24.JPG,AMSA24.JPG,AMNE26.JPG,AMSA21.JPG,AMNE25.JPG,,,,,,,,,,,,,0,9,9,3,,,,,,,,,,,AFSA09.jpg,AFNE03.jpg,AFSA20.jpg,AFNE18.jpg,AFSA09.jpg,FS,4,num_8,16,num_8,1.56673010881,,,2017_Jul_03_1140,60.0017320166,MAFE4ImagesEEG,001,200844,
AMSA21.JPG,AMNE22.JPG,AMNE21.JPG,AMSA23.JPG,AMSA22.JPG,AMNE23.JPG,,,,,,,,,,,,,,,,,0,0,0,1,,,,,,,AMSA19.jpg,AMNE08.jpg,AMNE13.jpg,AMSA10.jpg,AMNE08.jpg,MN,1,num_6,16,num_6,1.90002206678,,,2017_Jul_03_1140,60.0017320166,MAFE4ImagesEEG,001,200844,
AMNE22.JPG,AMSA24.JPG,AMSA22.JPG,AMNE25.JPG,AMNE24.JPG,AMSA25.JPG,,,,,,,,,,,,,,,,,0,1,1,7,,,,,,,AMNE06.jpg,AMNE07.jpg,AMSA08.jpg,AMSA12.jpg,AMSA08.jpg,MS,2,num_2,16,num_2,2.00003848865,,,2017_Jul_03_1140,60.0017320166,MAFE4ImagesEEG,001,200844,
AMNE23.JPG,AMNE24.JPG,AMNE22.JPG,AMSA24.JPG,AMSA22.JPG,AMSA23.JPG,,,,,,,,,,,,,,,,,0,2,2,9,,,,,,,AMSA11.jpg,AMSA08.jpg,AMNE09.jpg,AMNE03.jpg,AMNE03.jpg,MN,1,num_4,32,num_6,2.55001574836,,,2017_Jul_03_1140,60.0017320166,MAFE4ImagesEEG,001,200844,
AFSA21.JPG,AFNE23.JPG,AFNE21.JPG,AFSA25.JPG,AFNE25.JPG,AFSA23.JPG,,,,,,,,,,,,,,,,,0,3,3,4,,,,,,,AMSA11.jpg,AMNE18.jpg,AMNE04.jpg,AMSA12.jpg,AMSA12.jpg,MS,2,num_4,32,num_2,1.3835133001,,,2017_Jul_03_1140,60.0017320166,MAFE4ImagesEEG,001,200844,
AFNE23.JPG,AFNE24.JPG,AFNE22.JPG,AFSA24.JPG,AFSA22.JPG,AFSA23.JPG,,,,,,,,,,,,,,,,,0,4,4,8,,,,,,,AMNE13.jpg,AMSA06.jpg,AMSA01.jpg,AMNE11.jpg,AMSA01.jpg,MS,2,num_2,16,num_2,1.18342625152,,,2017_Jul_03_1140,60.0017320166,MAFE4ImagesEEG,001,200844,
AFSA25.JPG,AFNE24.JPG,AFSA24.JPG,AFNE21.JPG,AFSA21.JPG,AFNE25.JPG,,,,,,,,,,,,,,,,,0,5,5,2,,,,,,,AMNE01.jpg,AMSA13.jpg,AMNE10.jpg,AMSA18.jpg,AMNE10.jpg,MN,1,num_2,32,num_6,1.06672690145,,,2017_Jul_03_1140,60.0017320166,MAFE4ImagesEEG,001,200844,
AFNE22.JPG,AFSA24.JPG,AFSA22.JPG,AFNE25.JPG,AFNE24.JPG,AFSA25.JPG,,,,,,,,,,,,,,,,,0,6,6,6,,,,,,,AMNE08.jpg,AMSA07.jpg,AMNE20.jpg,AMSA18.jpg,AMNE20.jpg,MN,1,num_2,32,num_4,1.63335469458,,,2017_Jul_03_1140,60.0017320166,MAFE4ImagesEEG,001,200844,
AFSA21.JPG,AFNE22.JPG,AFNE21.JPG,AFSA23.JPG,AFSA22.JPG,AFNE23.JPG,,,,,,,,,,,,,,,,,0,7,7,0,,,,,,,AMSA09.jpg,AMNE18.jpg,AMSA06.jpg,AMNE05.jpg,AMNE18.jpg,MN,1,num_6,32,num_4,1.75003640389,,,2017_Jul_03_1140,60.0017320166,MAFE4ImagesEEG,001,200844,
AMSA25.JPG,AMNE24.JPG,AMSA24.JPG,AMNE26.JPG,AMSA21.JPG,AMNE25.JPG,,,,,,,,,,,,,,,,,0,8,8,3,,,,,,,AMNE13.jpg,AMNE05.jpg,AMSA01.jpg,AMSA06.jpg,AMSA06.jpg,MS,2,num_4,16,num_4,1.28343240963,,,2017_Jul_03_1140,60.0017320166,MAFE4ImagesEEG,001,200844,
AMSA21.JPG,AMNE23.JPG,AMNE21.JPG,AMSA25.JPG,AMNE25.JPG,AMSA23.JPG,,,,,,,,,,,,,,,,,0,9,9,5,,,,,,,AMNE16.jpg,AMSA03.jpg,AMNE01.jpg,AMSA09.jpg,AMNE16.jpg,MN,1,num_8,16,num_8,2.11651556648,,,2017_Jul_03_1140,60.0017320166,MAFE4ImagesEEG,001,200844,
AMSA21.JPG,AMNE22.JPG,AMNE21.JPG,AMSA23.JPG,AMSA22.JPG,AMNE23.JPG,,,,,,,,,,,,,,,,,,,,,0,0,0,1,,,AFNE14.jpg,AFSA17.jpg,AFSA01.jpg,AFNE18.jpg,AFSA01.jpg,FS,4,num_2,16,num_2,4.89965706563,,,2017_Jul_03_1140,60.0017320166,MAFE4ImagesEEG,001,200844,
AMNE22.JPG,AMSA24.JPG,AMSA22.JPG,AMNE25.JPG,AMNE24.JPG,AMSA25.JPG,,,,,,,,,,,,,,,,,,,,,0,1,1,7,,,AFSA10.jpg,AFNE06.jpg,AFSA04.jpg,AFNE03.jpg,AFSA10.jpg,FS,4,num_8,32,num_4,2.26664941083,,,2017_Jul_03_1140,60.0017320166,MAFE4ImagesEEG,001,200844,
AFNE22.JPG,AFSA24.JPG,AFSA22.JPG,AFNE25.JPG,AFNE24.JPG,AFSA25.JPG,,,,,,,,,,,,,,,,,,,,,0,2,2,6,,,AFSA18.jpg,AFSA17.jpg,AFNE20.jpg,AFNE14.jpg,AFSA18.jpg,FS,4,num_8,32,num_4,2.40000378469,,,2017_Jul_03_1140,60.0017320166,MAFE4ImagesEEG,001,200844,
AFSA25.JPG,AFNE24.JPG,AFSA24.JPG,AFNE21.JPG,AFSA21.JPG,AFNE25.JPG,,,,,,,,,,,,,,,,,,,,,0,3,3,2,,,AFNE10.jpg,AFSA09.jpg,AFSA07.jpg,AFNE20.jpg,AFSA07.jpg,FS,4,num_2,32,num_6,1.80009609344,,,2017_Jul_03_1140,60.0017320166,MAFE4ImagesEEG,001,200844,
AFNE23.JPG,AFNE24.JPG,AFNE22.JPG,AFSA24.JPG,AFSA22.JPG,AFSA23.JPG,,,,,,,,,,,,,,,,,,,,,0,4,4,8,,,AFSA13.jpg,AFSA02.jpg,AFNE18.jpg,AFNE01.jpg,AFSA13.jpg,FS,4,num_8,32,num_4,3.64957864501,,,2017_Jul_03_1140,60.0017320166,MAFE4ImagesEEG,001,200844,
AMSA25.JPG,AMNE24.JPG,AMSA24.JPG,AMNE26.JPG,AMSA21.JPG,AMNE25.JPG,,,,,,,,,,,,,,,,,,,,,0,5,5,3,,,AFSA13.jpg,AFSA06.jpg,AFNE10.jpg,AFNE03.jpg,AFNE03.jpg,FN,3,num_4,32,num_6,1.56673973112,,,2017_Jul_03_1140,60.0017320166,MAFE4ImagesEEG,001,200844,
AMNE23.JPG,AMNE24.JPG,AMNE22.JPG,AMSA24.JPG,AMSA22.JPG,AMSA23.JPG,,,,,,,,,,,,,,,,,,,,,0,6,6,9,,,AFSA13.jpg,AFNE01.jpg,AFNE04.jpg,AFSA19.jpg,AFSA13.jpg,FS,4,num_8,32,num_4,1.66674396477,,,2017_Jul_03_1140,60.0017320166,MAFE4ImagesEEG,001,200844,
AFSA21.JPG,AFNE23.JPG,AFNE21.JPG,AFSA25.JPG,AFNE25.JPG,AFSA23.JPG,,,,,,,,,,,,,,,,,,,,,0,7,7,4,,,AFNE17.jpg,AFSA08.jpg,AFNE14.jpg,AFSA20.jpg,AFNE17.jpg,FN,3,num_8,32,num_6,2.60003566626,,,2017_Jul_03_1140,60.0017320166,MAFE4ImagesEEG,001,200844,
AFSA21.JPG,AFNE22.JPG,AFNE21.JPG,AFSA23.JPG,AFSA22.JPG,AFNE23.JPG,,,,,,,,,,,,,,,,,,,,,0,8,8,0,,,AFNE17.jpg,AFSA10.jpg,AFSA07.jpg,AFNE11.jpg,AFSA10.jpg,FS,4,num_6,32,num_8,3.83325795957,,,2017_Jul_03_1140,60.0017320166,MAFE4ImagesEEG,001,200844,
AMSA21.JPG,AMNE23.JPG,AMNE21.JPG,AMSA25.JPG,AMNE25.JPG,AMSA23.JPG,,,,,,,,,,,,,,,,,,,,,0,9,9,5,,,AFSA05.jpg,AFNE10.jpg,AFSA02.jpg,AFNE07.jpg,AFSA02.jpg,FS,4,num_2,16,num_2,1.53343064559,,,2017_Jul_03_1140,60.0017320166,MAFE4ImagesEEG,001,200844,
,,,,,,,,,,,,,,,,,,,,,,,,,,,,,,,,,,,,,,,,,,,space,19.4982577448,2017_Jul_03_1140,60.0017320166,MAFE4ImagesEEG,001,200844,
AFNE01.JPG,AFNE01.JPG,AFNE01.JPG,AFNE01.JPG,AFNE01.JPG,AFNE01.JPG,0,0,0,1,,,,,,,,,,,,,,,,,,,,,,,AMNE03.jpg,AMSA03.jpg,AMNE17.jpg,AMSA13.jpg,AMNE17.jpg,MN,1,num_2,32,num_8,1.41676625621,,,2017_Jul_03_1140,60.0017320166,MAFE4ImagesEEG,001,200844,
AFNE01.JPG,AFNE01.JPG,AFNE01.JPG,AFNE01.JPG,AFNE01.JPG,AFNE01.JPG,0,1,1,8,,,,,,,,,,,,,,,,,,,,,,,AMSA18.jpg,AMNE14.jpg,AMSA08.jpg,AMNE20.jpg,AMSA08.jpg,MS,2,num_2,16,num_2,1.10020694102,,,2017_Jul_03_1140,60.0017320166,MAFE4ImagesEEG,001,200844,
AFNE01.JPG,AFNE01.JPG,AFNE01.JPG,AFNE01.JPG,AFNE01.JPG,AFNE01.JPG,0,2,2,5,,,,,,,,,,,,,,,,,,,,,,,AMSA05.jpg,AMNE07.jpg,AMNE08.jpg,AMSA07.jpg,AMSA05.jpg,MS,2,num_8,32,num_6,1.15010850609,,,2017_Jul_03_1140,60.0017320166,MAFE4ImagesEEG,001,200844,
AFNE01.JPG,AFNE01.JPG,AFNE01.JPG,AFNE01.JPG,AFNE01.JPG,AFNE01.JPG,0,3,3,4,,,,,,,,,,,,,,,,,,,,,,,AMNE10.jpg,AMSA08.jpg,AMSA17.jpg,AMNE05.jpg,AMSA08.jpg,MS,2,num_6,16,num_6,1.000126692,,,2017_Jul_03_1140,60.0017320166,MAFE4ImagesEEG,001,200844,
AFNE01.JPG,AFNE01.JPG,AFNE01.JPG,AFNE01.JPG,AFNE01.JPG,AFNE01.JPG,0,4,4,0,,,,,,,,,,,,,,,,,,,,,,,AMSA09.jpg,AMSA08.jpg,AMNE06.jpg,AMNE10.jpg,AMSA08.jpg,MS,2,num_6,16,num_6,0.816742778057,,,2017_Jul_03_1140,60.0017320166,MAFE4ImagesEEG,001,200844,
AFNE01.JPG,AFNE01.JPG,AFNE01.JPG,AFNE01.JPG,AFNE01.JPG,AFNE01.JPG,0,5,5,2,,,,,,,,,,,,,,,,,,,,,,,AMSA11.jpg,AMNE17.jpg,AMSA05.jpg,AMNE08.jpg,AMSA11.jpg,MS,2,num_8,16,num_8,0.883428945672,,,2017_Jul_03_1140,60.0017320166,MAFE4ImagesEEG,001,200844,
AFNE01.JPG,AFNE01.JPG,AFNE01.JPG,AFNE01.JPG,AFNE01.JPG,AFNE01.JPG,0,6,6,7,,,,,,,,,,,,,,,,,,,,,,,AMSA16.jpg,AMSA11.jpg,AMNE01.jpg,AMNE08.jpg,AMNE08.jpg,MN,1,num_4,32,num_8,0.966748647508,,,2017_Jul_03_1140,60.0017320166,MAFE4ImagesEEG,001,200844,
AFNE01.JPG,AFNE01.JPG,AFNE01.JPG,AFNE01.JPG,AFNE01.JPG,AFNE01.JPG,0,7,7,3,,,,,,,,,,,,,,,,,,,,,,,AMNE19.jpg,AMNE18.jpg,AMSA01.jpg,AMSA16.jpg,AMSA16.jpg,MS,2,num_4,16,num_4,1.70004310738,,,2017_Jul_03_1140,60.0017320166,MAFE4ImagesEEG,001,200844,
AFNE01.JPG,AFNE01.JPG,AFNE01.JPG,AFNE01.JPG,AFNE01.JPG,AFNE01.JPG,0,8,8,6,,,,,,,,,,,,,,,,,,,,,,,AMSA13.jpg,AMSA01.jpg,AMNE11.jpg,AMNE14.jpg,AMNE11.jpg,MN,1,num_2,16,num_2,2.15004371665,,,2017_Jul_03_1140,60.0017320166,MAFE4ImagesEEG,001,200844,
AFNE01.JPG,AFNE01.JPG,AFNE01.JPG,AFNE01.JPG,AFNE01.JPG,AFNE01.JPG,0,9,9,9,,,,,,,,,,,,,,,,,,,,,,,AMNE10.jpg,AMSA18.jpg,AMNE05.jpg,AMSA19.jpg,AMNE10.jpg,MN,1,num_8,32,num_6,0.933458165033,,,2017_Jul_03_1140,60.0017320166,MAFE4ImagesEEG,001,200844,
AFNE01.JPG,AFNE01.JPG,AFNE01.JPG,AFNE01.JPG,AFNE01.JPG,AFNE01.JPG,1,0,10,4,,,,,,,,,,,,,,,,,,,,,,,AMSA03.jpg,AMNE01.jpg,AMNE06.jpg,AMSA14.jpg,AMNE01.jpg,MN,1,num_6,32,num_2,1.43336964096,,,2017_Jul_03_1140,60.0017320166,MAFE4ImagesEEG,001,200844,
AFNE01.JPG,AFNE01.JPG,AFNE01.JPG,AFNE01.JPG,AFNE01.JPG,AFNE01.JPG,1,1,11,9,,,,,,,,,,,,,,,,,,,,,,,AMNE14.jpg,AMSA01.jpg,AMNE18.jpg,AMSA14.jpg,AMNE14.jpg,MN,1,num_8,32,num_4,0.916770746582,,,2017_Jul_03_1140,60.0017320166,MAFE4ImagesEEG,001,200844,
AFNE01.JPG,AFNE01.JPG,AFNE01.JPG,AFNE01.JPG,AFNE01.JPG,AFNE01.JPG,1,2,12,3,,,,,,,,,,,,,,,,,,,,,,,AMSA14.jpg,AMNE07.jpg,AMNE20.jpg,AMSA05.jpg,AMNE20.jpg,MN,1,num_2,16,num_2,1.55011838488,,,2017_Jul_03_1140,60.0017320166,MAFE4ImagesEEG,001,200844,
AFNE01.JPG,AFNE01.JPG,AFNE01.JPG,AFNE01.JPG,AFNE01.JPG,AFNE01.JPG,1,3,13,1,,,,,,,,,,,,,,,,,,,,,,,AMSA05.jpg,AMNE20.jpg,AMSA07.jpg,AMNE15.jpg,AMNE15.jpg,MN,1,num_4,16,num_4,1.23344360339,,,2017_Jul_03_1140,60.0017320166,MAFE4ImagesEEG,001,200844,
AFNE01.JPG,AFNE01.JPG,AFNE01.JPG,AFNE01.JPG,AFNE01.JPG,AFNE01.JPG,1,4,14,0,,,,,,,,,,,,,,,,,,,,,,,AMSA18.jpg,AMNE02.jpg,AMSA16.jpg,AMNE16.jpg,AMNE02.jpg,MN,1,num_6,16,num_6,1.08349225961,,,2017_Jul_03_1140,60.0017320166,MAFE4ImagesEEG,001,200844,
AFNE01.JPG,AFNE01.JPG,AFNE01.JPG,AFNE01.JPG,AFNE01.JPG,AFNE01.JPG,1,5,15,6,,,,,,,,,,,,,,,,,,,,,,,AMNE13.jpg,AMSA07.jpg,AMNE10.jpg,AMSA08.jpg,AMNE10.jpg,MN,1,num_2,16,num_2,2.25005212019,,,2017_Jul_03_1140,60.0017320166,MAFE4ImagesEEG,001,200844,
AFNE01.JPG,AFNE01.JPG,AFNE01.JPG,AFNE01.JPG,AFNE01.JPG,AFNE01.JPG,1,6,16,8,,,,,,,,,,,,,,,,,,,,,,,AMNE14.jpg,AMSA06.jpg,AMNE19.jpg,AMSA01.jpg,AMNE19.jpg,MN,1,num_2,16,num_2,1.28342727781,,,2017_Jul_03_1140,60.0017320166,MAFE4ImagesEEG,001,200844,
AFNE01.JPG,AFNE01.JPG,AFNE01.JPG,AFNE01.JPG,AFNE01.JPG,AFNE01.JPG,1,7,17,5,,,,,,,,,,,,,,,,,,,,,,,AMNE14.jpg,AMNE06.jpg,AMSA10.jpg,AMSA16.jpg,AMNE06.jpg,MN,1,num_6,32,num_4,1.16671221156,,,2017_Jul_03_1140,60.0017320166,MAFE4ImagesEEG,001,200844,
AFNE01.JPG,AFNE01.JPG,AFNE01.JPG,AFNE01.JPG,AFNE01.JPG,AFNE01.JPG,1,8,18,7,,,,,,,,,,,,,,,,,,,,,,,AMNE01.jpg,AMSA05.jpg,AMNE17.jpg,AMSA19.jpg,AMSA19.jpg,MS,2,num_4,48,None,,,,2017_Jul_03_1140,60.0017320166,MAFE4ImagesEEG,001,200844,
AFNE01.JPG,AFNE01.JPG,AFNE01.JPG,AFNE01.JPG,AFNE01.JPG,AFNE01.JPG,1,9,19,2,,,,,,,,,,,,,,,,,,,,,,,AMSA20.jpg,AMSA17.jpg,AMNE02.jpg,AMNE10.jpg,AMNE02.jpg,MN,1,num_2,32,num_8,1.45005962544,,,2017_Jul_03_1140,60.0017320166,MAFE4ImagesEEG,001,200844,
AFNE01.JPG,AFNE01.JPG,AFNE01.JPG,AFNE01.JPG,AFNE01.JPG,AFNE01.JPG,2,0,20,7,,,,,,,,,,,,,,,,,,,,,,,AMSA10.jpg,AMNE02.jpg,AMSA05.jpg,AMNE05.jpg,AMNE02.jpg,MN,1,num_6,32,num_8,1.40009262948,,,2017_Jul_03_1140,60.0017320166,MAFE4ImagesEEG,001,200844,
AFNE01.JPG,AFNE01.JPG,AFNE01.JPG,AFNE01.JPG,AFNE01.JPG,AFNE01.JPG,2,1,21,9,,,,,,,,,,,,,,,,,,,,,,,AMSA01.jpg,AMNE07.jpg,AMNE14.jpg,AMSA13.jpg,AMNE07.jpg,MN,1,num_6,32,num_4,1.36710396246,,,2017_Jul_03_1140,60.0017320166,MAFE4ImagesEEG,001,200844,
AFNE01.JPG,AFNE01.JPG,AFNE01.JPG,AFNE01.JPG,AFNE01.JPG,AFNE01.JPG,2,2,22,2,,,,,,,,,,,,,,,,,,,,,,,AMSA10.jpg,AMNE19.jpg,AMSA05.jpg,AMNE07.jpg,AMSA10.jpg,MS,2,num_8,32,num_6,1.28346352128,,,2017_Jul_03_1140,60.0017320166,MAFE4ImagesEEG,001,200844,
AFNE01.JPG,AFNE01.JPG,AFNE01.JPG,AFNE01.JPG,AFNE01.JPG,AFNE01.JPG,2,3,23,5,,,,,,,,,,,,,,,,,,,,,,,AMNE05.jpg,AMSA02.jpg,AMNE16.jpg,AMSA09.jpg,AMNE16.jpg,MN,1,num_2,16,num_2,1.30013073329,,,2017_Jul_03_1140,60.0017320166,MAFE4ImagesEEG,001,200844,
AFNE01.JPG,AFNE01.JPG,AFNE01.JPG,AFNE01.JPG,AFNE01.JPG,AFNE01.JPG,2,4,24,4,,,,,,,,,,,,,,,,,,,,,,,AMSA20.jpg,AMNE06.jpg,AMNE16.jpg,AMSA17.jpg,AMNE06.jpg,MN,1,num_6,32,num_8,2.11666182359,,,2017_Jul_03_1140,60.0017320166,MAFE4ImagesEEG,001,200844,
AFNE01.JPG,AFNE01.JPG,AFNE01.JPG,AFNE01.JPG,AFNE01.JPG,AFNE01.JPG,2,5,25,6,,,,,,,,,,,,,,,,,,,,,,,AMSA02.jpg,AMSA06.jpg,AMNE06.jpg,AMNE15.jpg,AMSA06.jpg,MS,2,num_6,16,num_6,1.18343811878,,,2017_Jul_03_1140,60.0017320166,MAFE4ImagesEEG,001,200844,
AFNE01.JPG,AFNE01.JPG,AFNE01.JPG,AFNE01.JPG,AFNE01.JPG,AFNE01.JPG,2,6,26,8,,,,,,,,,,,,,,,,,,,,,,,AMNE18.jpg,AMNE14.jpg,AMSA01.jpg,AMSA02.jpg,AMSA02.jpg,MS,2,num_4,16,num_4,1.33345617645,,,2017_Jul_03_1140,60.0017320166,MAFE4ImagesEEG,001,200844,
AFNE01.JPG,AFNE01.JPG,AFNE01.JPG,AFNE01.JPG,AFNE01.JPG,AFNE01.JPG,2,7,27,0,,,,,,,,,,,,,,,,,,,,,,,AMSA11.jpg,AMNE17.jpg,AMNE06.jpg,AMSA05.jpg,AMNE06.jpg,MN,1,num_2,32,num_8,1.75007232663,,,2017_Jul_03_1140,60.0017320166,MAFE4ImagesEEG,001,200844,
AFNE01.JPG,AFNE01.JPG,AFNE01.JPG,AFNE01.JPG,AFNE01.JPG,AFNE01.JPG,2,8,28,3,,,,,,,,,,,,,,,,,,,,,,,AMNE05.jpg,AMSA14.jpg,AMNE20.jpg,AMSA01.jpg,AMNE05.jpg,MN,1,num_8,16,num_8,1.05012287514,,,2017_Jul_03_1140,60.0017320166,MAFE4ImagesEEG,001,200844,
AFNE01.JPG,AFNE01.JPG,AFNE01.JPG,AFNE01.JPG,AFNE01.JPG,AFNE01.JPG,2,9,29,1,,,,,,,,,,,,,,,,,,,,,,,AMSA02.jpg,AMNE06.jpg,AMSA04.jpg,AMNE11.jpg,AMNE11.jpg,MN,1,num_4,16,num_4,2.39972891123,,,2017_Jul_03_1140,60.0017320166,MAFE4ImagesEEG,001,200844,
AFNE01.JPG,AFNE01.JPG,AFNE01.JPG,AFNE01.JPG,AFNE01.JPG,AFNE01.JPG,3,0,30,5,,,,,,,,,,,,,,,,,,,,,,,AMSA09.jpg,AMSA20.jpg,AMNE16.jpg,AMNE14.jpg,AMSA09.jpg,MS,2,num_8,32,num_6,1.45004006033,,,2017_Jul_03_1140,60.0017320166,MAFE4ImagesEEG,001,200844,
AFNE01.JPG,AFNE01.JPG,AFNE01.JPG,AFNE01.JPG,AFNE01.JPG,AFNE01.JPG,3,1,31,3,,,,,,,,,,,,,,,,,,,,,,,AMSA01.jpg,AMNE13.jpg,AMNE05.jpg,AMSA04.jpg,AMSA01.jpg,MS,2,num_8,16,num_8,1.28350585897,,,2017_Jul_03_1140,60.0017320166,MAFE4ImagesEEG,001,200844,
AFNE01.JPG,AFNE01.JPG,AFNE01.JPG,AFNE01.JPG,AFNE01.JPG,AFNE01.JPG,3,2,32,2,,,,,,,,,,,,,,,,,,,,,,,AMSA13.jpg,AMNE03.jpg,AMSA19.jpg,AMNE15.jpg,AMSA19.jpg,MS,2,num_2,48,None,,,,2017_Jul_03_1140,60.0017320166,MAFE4ImagesEEG,001,200844,
AFNE01.JPG,AFNE01.JPG,AFNE01.JPG,AFNE01.JPG,AFNE01.JPG,AFNE01.JPG,3,3,33,4,,,,,,,,,,,,,,,,,,,,,,,AMNE12.jpg,AMNE11.jpg,AMSA07.jpg,AMSA10.jpg,AMSA10.jpg,MS,2,num_4,32,num_2,0.866799260257,,,2017_Jul_03_1140,60.0017320166,MAFE4ImagesEEG,001,200844,
AFNE01.JPG,AFNE01.JPG,AFNE01.JPG,AFNE01.JPG,AFNE01.JPG,AFNE01.JPG,3,4,34,1,,,,,,,,,,,,,,,,,,,,,,,AMNE18.jpg,AMSA02.jpg,AMSA06.jpg,AMNE14.jpg,AMNE18.jpg,MN,1,num_8,16,num_8,0.916646620375,,,2017_Jul_03_1140,60.0017320166,MAFE4ImagesEEG,001,200844,
AFNE01.JPG,AFNE01.JPG,AFNE01.JPG,AFNE01.JPG,AFNE01.JPG,AFNE01.JPG,3,5,35,6,,,,,,,,,,,,,,,,,,,,,,,AMNE04.jpg,AMSA11.jpg,AMSA14.jpg,AMNE17.jpg,AMNE04.jpg,MN,1,num_8,32,num_6,1.20015857345,,,2017_Jul_03_1140,60.0017320166,MAFE4ImagesEEG,001,200844,
AFNE01.JPG,AFNE01.JPG,AFNE01.JPG,AFNE01.JPG,AFNE01.JPG,AFNE01.JPG,3,6,36,8,,,,,,,,,,,,,,,,,,,,,,,AMNE03.jpg,AMNE20.jpg,AMSA03.jpg,AMSA02.jpg,AMSA03.jpg,MS,2,num_2,32,num_4,1.31670910039,,,2017_Jul_03_1140,60.0017320166,MAFE4ImagesEEG,001,200844,
AFNE01.JPG,AFNE01.JPG,AFNE01.JPG,AFNE01.JPG,AFNE01.JPG,AFNE01.JPG,3,7,37,9,,,,,,,,,,,,,,,,,,,,,,,AMSA01.jpg,AMNE04.jpg,AMSA06.jpg,AMNE11.jpg,AMNE11.jpg,MN,1,num_4,16,num_4,1.33341704623,,,2017_Jul_03_1140,60.0017320166,MAFE4ImagesEEG,001,200844,
AFNE01.JPG,AFNE01.JPG,AFNE01.JPG,AFNE01.JPG,AFNE01.JPG,AFNE01.JPG,3,8,38,7,,,,,,,,,,,,,,,,,,,,,,,AMNE08.jpg,AMSA19.jpg,AMNE16.jpg,AMSA01.jpg,AMSA01.jpg,MS,2,num_4,16,num_4,0.733441358316,,,2017_Jul_03_1140,60.0017320166,MAFE4ImagesEEG,001,200844,
AFNE01.JPG,AFNE01.JPG,AFNE01.JPG,AFNE01.JPG,AFNE01.JPG,AFNE01.JPG,3,9,39,0,,,,,,,,,,,,,,,,,,,,,,,AMSA10.jpg,AMNE16.jpg,AMNE07.jpg,AMSA03.jpg,AMSA03.jpg,MS,2,num_4,16,num_4,0.566792653059,,,2017_Jul_03_1140,60.0017320166,MAFE4ImagesEEG,001,200844,
AFNE01.JPG,AFNE01.JPG,AFNE01.JPG,AFNE01.JPG,AFNE01.JPG,AFNE01.JPG,4,0,40,5,,,,,,,,,,,,,,,,,,,,,,,AMSA20.jpg,AMNE02.jpg,AMNE16.jpg,AMSA12.jpg,AMSA20.jpg,MS,2,num_8,32,num_2,1.41673418228,,,2017_Jul_03_1140,60.0017320166,MAFE4ImagesEEG,001,200844,
AFNE01.JPG,AFNE01.JPG,AFNE01.JPG,AFNE01.JPG,AFNE01.JPG,AFNE01.JPG,4,1,41,3,,,,,,,,,,,,,,,,,,,,,,,AMNE13.jpg,AMSA01.jpg,AMNE10.jpg,AMSA11.jpg,AMNE10.jpg,MN,1,num_2,32,num_8,1.11681096721,,,2017_Jul_03_1140,60.0017320166,MAFE4ImagesEEG,001,200844,
AFNE01.JPG,AFNE01.JPG,AFNE01.JPG,AFNE01.JPG,AFNE01.JPG,AFNE01.JPG,4,2,42,1,,,,,,,,,,,,,,,,,,,,,,,AMSA14.jpg,AMNE17.jpg,AMSA02.jpg,AMNE07.jpg,AMSA14.jpg,MS,2,num_8,32,num_6,2.23331627005,,,2017_Jul_03_1140,60.0017320166,MAFE4ImagesEEG,001,200844,
AFNE01.JPG,AFNE01.JPG,AFNE01.JPG,AFNE01.JPG,AFNE01.JPG,AFNE01.JPG,4,3,43,8,,,,,,,,,,,,,,,,,,,,,,,AMSA14.jpg,AMSA18.jpg,AMNE07.jpg,AMNE13.jpg,AMNE13.jpg,MN,1,num_4,16,num_4,1.5000805055,,,2017_Jul_03_1140,60.0017320166,MAFE4ImagesEEG,001,200844,
AFNE01.JPG,AFNE01.JPG,AFNE01.JPG,AFNE01.JPG,AFNE01.JPG,AFNE01.JPG,4,4,44,6,,,,,,,,,,,,,,,,,,,,,,,AMSA02.jpg,AMNE01.jpg,AMNE16.jpg,AMSA16.jpg,AMSA02.jpg,MS,2,num_8,32,num_6,1.23350133654,,,2017_Jul_03_1140,60.0017320166,MAFE4ImagesEEG,001,200844,
AFNE01.JPG,AFNE01.JPG,AFNE01.JPG,AFNE01.JPG,AFNE01.JPG,AFNE01.JPG,4,5,45,2,,,,,,,,,,,,,,,,,,,,,,,AMSA16.jpg,AMNE16.jpg,AMSA19.jpg,AMNE11.jpg,AMSA16.jpg,MS,2,num_8,32,num_2,1.43347933376,,,2017_Jul_03_1140,60.0017320166,MAFE4ImagesEEG,001,200844,
AFNE01.JPG,AFNE01.JPG,AFNE01.JPG,AFNE01.JPG,AFNE01.JPG,AFNE01.JPG,4,6,46,9,,,,,,,,,,,,,,,,,,,,,,,AMSA19.jpg,AMSA08.jpg,AMNE03.jpg,AMNE15.jpg,AMNE03.jpg,MN,1,num_2,32,num_8,1.33341223514,,,2017_Jul_03_1140,60.0017320166,MAFE4ImagesEEG,001,200844,
AFNE01.JPG,AFNE01.JPG,AFNE01.JPG,AFNE01.JPG,AFNE01.JPG,AFNE01.JPG,4,7,47,7,,,,,,,,,,,,,,,,,,,,,,,AMNE03.jpg,AMSA04.jpg,AMSA13.jpg,AMNE06.jpg,AMSA13.jpg,MS,2,num_2,32,num_4,1.43339594163,,,2017_Jul_03_1140,60.0017320166,MAFE4ImagesEEG,001,200844,
AFNE01.JPG,AFNE01.JPG,AFNE01.JPG,AFNE01.JPG,AFNE01.JPG,AFNE01.JPG,4,8,48,0,,,,,,,,,,,,,,,,,,,,,,,AMNE11.jpg,AMSA05.jpg,AMSA19.jpg,AMNE14.jpg,AMNE11.jpg,MN,1,num_8,32,num_2,2.26659456454,,,2017_Jul_03_1140,60.0017320166,MAFE4ImagesEEG,001,200844,
AFNE01.JPG,AFNE01.JPG,AFNE01.JPG,AFNE01.JPG,AFNE01.JPG,AFNE01.JPG,4,9,49,4,,,,,,,,,,,,,,,,,,,,,,,AMNE06.jpg,AMNE19.jpg,AMSA13.jpg,AMSA10.jpg,AMSA10.jpg,MS,2,num_4,32,num_2,1.51673617086,,,2017_Jul_03_1140,60.0017320166,MAFE4ImagesEEG,001,200844,
AFNE01.JPG,AFNE01.JPG,AFNE01.JPG,AFNE01.JPG,AFNE01.JPG,AFNE01.JPG,5,0,50,2,,,,,,,,,,,,,,,,,,,,,,,AMSA18.jpg,AMNE15.jpg,AMNE07.jpg,AMSA05.jpg,AMNE07.jpg,MN,1,num_2,32,num_8,1.75007810001,,,2017_Jul_03_1140,60.0017320166,MAFE4ImagesEEG,001,200844,
AFNE01.JPG,AFNE01.JPG,AFNE01.JPG,AFNE01.JPG,AFNE01.JPG,AFNE01.JPG,5,1,51,7,,,,,,,,,,,,,,,,,,,,,,,AMNE13.jpg,AMSA01.jpg,AMSA03.jpg,AMNE14.jpg,AMSA03.jpg,MS,2,num_2,32,num_4,2.28360721248,,,2017_Jul_03_1140,60.0017320166,MAFE4ImagesEEG,001,200844,
AFNE01.JPG,AFNE01.JPG,AFNE01.JPG,AFNE01.JPG,AFNE01.JPG,AFNE01.JPG,5,2,52,6,,,,,,,,,,,,,,,,,,,,,,,AMSA16.jpg,AMNE12.jpg,AMNE06.jpg,AMSA14.jpg,AMNE06.jpg,MN,1,num_2,16,num_2,1.9833523531,,,2017_Jul_03_1140,60.0017320166,MAFE4ImagesEEG,001,200844,
AFNE01.JPG,AFNE01.JPG,AFNE01.JPG,AFNE01.JPG,AFNE01.JPG,AFNE01.JPG,5,3,53,3,,,,,,,,,,,,,,,,,,,,,,,AMNE12.jpg,AMNE09.jpg,AMSA18.jpg,AMSA19.jpg,AMNE12.jpg,MN,1,num_8,32,num_6,1.8166885731,,,2017_Jul_03_1140,60.0017320166,MAFE4ImagesEEG,001,200844,
AFNE01.JPG,AFNE01.JPG,AFNE01.JPG,AFNE01.JPG,AFNE01.JPG,AFNE01.JPG,5,4,54,5,,,,,,,,,,,,,,,,,,,,,,,AMNE17.jpg,AMSA03.jpg,AMSA02.jpg,AMNE06.jpg,AMSA02.jpg,MS,2,num_2,32,num_4,1.39995599457,,,2017_Jul_03_1140,60.0017320166,MAFE4ImagesEEG,001,200844,
AFNE01.JPG,AFNE01.JPG,AFNE01.JPG,AFNE01.JPG,AFNE01.JPG,AFNE01.JPG,5,5,55,4,,,,,,,,,,,,,,,,,,,,,,,AMNE03.jpg,AMSA13.jpg,AMNE04.jpg,AMSA02.jpg,AMNE04.jpg,MN,1,num_2,32,num_4,1.48340559588,,,2017_Jul_03_1140,60.0017320166,MAFE4ImagesEEG,001,200844,
AFNE01.JPG,AFNE01.JPG,AFNE01.JPG,AFNE01.JPG,AFNE01.JPG,AFNE01.JPG,5,6,56,0,,,,,,,,,,,,,,,,,,,,,,,AMSA19.jpg,AMSA08.jpg,AMNE02.jpg,AMNE07.jpg,AMSA19.jpg,MS,2,num_8,32,num_2,2.65001998213,,,2017_Jul_03_1140,60.0017320166,MAFE4ImagesEEG,001,200844,
AFNE01.JPG,AFNE01.JPG,AFNE01.JPG,AFNE01.JPG,AFNE01.JPG,AFNE01.JPG,5,7,57,9,,,,,,,,,,,,,,,,,,,,,,,AMNE01.jpg,AMNE02.jpg,AMSA06.jpg,AMSA16.jpg,AMNE01.jpg,MN,1,num_8,32,num_6,1.13346663257,,,2017_Jul_03_1140,60.0017320166,MAFE4ImagesEEG,001,200844,
AFNE01.JPG,AFNE01.JPG,AFNE01.JPG,AFNE01.JPG,AFNE01.JPG,AFNE01.JPG,5,8,58,1,,,,,,,,,,,,,,,,,,,,,,,AMSA18.jpg,AMSA05.jpg,AMNE10.jpg,AMNE01.jpg,AMNE10.jpg,MN,1,num_2,16,num_2,1.38309665991,,,2017_Jul_03_1140,60.0017320166,MAFE4ImagesEEG,001,200844,
AFNE01.JPG,AFNE01.JPG,AFNE01.JPG,AFNE01.JPG,AFNE01.JPG,AFNE01.JPG,5,9,59,8,,,,,,,,,,,,,,,,,,,,,,,AMSA07.jpg,AMNE20.jpg,AMSA18.jpg,AMNE07.jpg,AMNE07.jpg,MN,1,num_4,32,num_6,2.40003265126,,,2017_Jul_03_1140,60.0017320166,MAFE4ImagesEEG,001,200844,
,,,,,,,,,,,,,,,,,,,,,,,,,,,,,,,,,,,,,,,,,,,space,56.5457457475,2017_Jul_03_1140,60.0017320166,MAFE4ImagesEEG,001,200844,
AFNE01.JPG,AFNE01.JPG,AFNE01.JPG,AFNE01.JPG,AFNE01.JPG,AFNE01.JPG,,,,,0,0,0,0,,,,,,,,,,,,,,,,,,,AFNE16.jpg,AFNE06.jpg,AFSA17.jpg,AFSA19.jpg,AFSA17.jpg,FS,4,num_2,16,num_2,1.73338971927,,,2017_Jul_03_1140,60.0017320166,MAFE4ImagesEEG,001,200844,
AFNE01.JPG,AFNE01.JPG,AFNE01.JPG,AFNE01.JPG,AFNE01.JPG,AFNE01.JPG,,,,,0,1,1,3,,,,,,,,,,,,,,,,,,,AFSA15.jpg,AFNE11.jpg,AFNE03.jpg,AFSA14.jpg,AFSA14.jpg,FS,4,num_4,16,num_4,1.28349046351,,,2017_Jul_03_1140,60.0017320166,MAFE4ImagesEEG,001,200844,
AFNE01.JPG,AFNE01.JPG,AFNE01.JPG,AFNE01.JPG,AFNE01.JPG,AFNE01.JPG,,,,,0,2,2,1,,,,,,,,,,,,,,,,,,,AFSA15.jpg,AFNE14.jpg,AFSA01.jpg,AFNE19.jpg,AFNE19.jpg,FN,3,num_4,16,num_4,1.66670291021,,,2017_Jul_03_1140,60.0017320166,MAFE4ImagesEEG,001,200844,
AFNE01.JPG,AFNE01.JPG,AFNE01.JPG,AFNE01.JPG,AFNE01.JPG,AFNE01.JPG,,,,,0,3,3,9,,,,,,,,,,,,,,,,,,,AFNE10.jpg,AFSA17.jpg,AFNE06.jpg,AFSA16.jpg,AFSA16.jpg,FS,4,num_4,32,num_2,1.1167753652,,,2017_Jul_03_1140,60.0017320166,MAFE4ImagesEEG,001,200844,
AFNE01.JPG,AFNE01.JPG,AFNE01.JPG,AFNE01.JPG,AFNE01.JPG,AFNE01.JPG,,,,,0,4,4,8,,,,,,,,,,,,,,,,,,,AFNE09.jpg,AFNE05.jpg,AFSA01.jpg,AFSA13.jpg,AFSA01.jpg,FS,4,num_2,32,num_6,0.800175636774,,,2017_Jul_03_1140,60.0017320166,MAFE4ImagesEEG,001,200844,
AFNE01.JPG,AFNE01.JPG,AFNE01.JPG,AFNE01.JPG,AFNE01.JPG,AFNE01.JPG,,,,,0,5,5,5,,,,,,,,,,,,,,,,,,,AFSA04.jpg,AFNE05.jpg,AFNE09.jpg,AFSA09.jpg,AFSA09.jpg,FS,4,num_4,16,num_4,0.966750892811,,,2017_Jul_03_1140,60.0017320166,MAFE4ImagesEEG,001,200844,
AFNE01.JPG,AFNE01.JPG,AFNE01.JPG,AFNE01.JPG,AFNE01.JPG,AFNE01.JPG,,,,,0,6,6,6,,,,,,,,,,,,,,,,,,,AFSA19.jpg,AFSA04.jpg,AFNE10.jpg,AFNE16.jpg,AFSA19.jpg,FS,4,num_8,32,num_2,2.44987006846,,,2017_Jul_03_1140,60.0017320166,MAFE4ImagesEEG,001,200844,
AFNE01.JPG,AFNE01.JPG,AFNE01.JPG,AFNE01.JPG,AFNE01.JPG,AFNE01.JPG,,,,,0,7,7,2,,,,,,,,,,,,,,,,,,,AFNE12.jpg,AFSA11.jpg,AFSA17.jpg,AFNE15.jpg,AFNE15.jpg,FN,3,num_4,16,num_4,1.26675878302,,,2017_Jul_03_1140,60.0017320166,MAFE4ImagesEEG,001,200844,
AFNE01.JPG,AFNE01.JPG,AFNE01.JPG,AFNE01.JPG,AFNE01.JPG,AFNE01.JPG,,,,,0,8,8,7,,,,,,,,,,,,,,,,,,,AFNE20.jpg,AFSA09.jpg,AFSA08.jpg,AFNE04.jpg,AFNE20.jpg,FN,3,num_8,16,num_8,1.0000853166,,,2017_Jul_03_1140,60.0017320166,MAFE4ImagesEEG,001,200844,
AFNE01.JPG,AFNE01.JPG,AFNE01.JPG,AFNE01.JPG,AFNE01.JPG,AFNE01.JPG,,,,,0,9,9,4,,,,,,,,,,,,,,,,,,,AFSA17.jpg,AFNE15.jpg,AFNE14.jpg,AFSA20.jpg,AFNE15.jpg,FN,3,num_6,16,num_6,1.48348642222,,,2017_Jul_03_1140,60.0017320166,MAFE4ImagesEEG,001,200844,
AFNE01.JPG,AFNE01.JPG,AFNE01.JPG,AFNE01.JPG,AFNE01.JPG,AFNE01.JPG,,,,,1,0,10,0,,,,,,,,,,,,,,,,,,,AFNE17.jpg,AFSA05.jpg,AFSA17.jpg,AFNE05.jpg,AFNE17.jpg,FN,3,num_8,32,num_2,1.51668870146,,,2017_Jul_03_1140,60.0017320166,MAFE4ImagesEEG,001,200844,
AFNE01.JPG,AFNE01.JPG,AFNE01.JPG,AFNE01.JPG,AFNE01.JPG,AFNE01.JPG,,,,,1,1,11,1,,,,,,,,,,,,,,,,,,,AFSA17.jpg,AFNE14.jpg,AFSA18.jpg,AFNE01.jpg,AFNE01.jpg,FN,3,num_4,16,num_4,1.30010411202,,,2017_Jul_03_1140,60.0017320166,MAFE4ImagesEEG,001,200844,
AFNE01.JPG,AFNE01.JPG,AFNE01.JPG,AFNE01.JPG,AFNE01.JPG,AFNE01.JPG,,,,,1,2,12,3,,,,,,,,,,,,,,,,,,,AFNE13.jpg,AFSA02.jpg,AFNE17.jpg,AFSA20.jpg,AFSA20.jpg,FS,4,num_4,32,num_8,1.65007996035,,,2017_Jul_03_1140,60.0017320166,MAFE4ImagesEEG,001,200844,
AFNE01.JPG,AFNE01.JPG,AFNE01.JPG,AFNE01.JPG,AFNE01.JPG,AFNE01.JPG,,,,,1,3,13,6,,,,,,,,,,,,,,,,,,,AFNE08.jpg,AFNE10.jpg,AFSA04.jpg,AFSA03.jpg,AFNE10.jpg,FN,3,num_6,32,num_2,2.05004910519,,,2017_Jul_03_1140,60.0017320166,MAFE4ImagesEEG,001,200844,
AFNE01.JPG,AFNE01.JPG,AFNE01.JPG,AFNE01.JPG,AFNE01.JPG,AFNE01.JPG,,,,,1,4,14,2,,,,,,,,,,,,,,,,,,,AFSA18.jpg,AFNE12.jpg,AFSA04.jpg,AFNE08.jpg,AFSA18.jpg,FS,4,num_8,32,num_4,1.21672026219,,,2017_Jul_03_1140,60.0017320166,MAFE4ImagesEEG,001,200844,
AFNE01.JPG,AFNE01.JPG,AFNE01.JPG,AFNE01.JPG,AFNE01.JPG,AFNE01.JPG,,,,,1,5,15,8,,,,,,,,,,,,,,,,,,,AFNE18.jpg,AFSA08.jpg,AFNE07.jpg,AFSA19.jpg,AFSA08.jpg,FS,4,num_6,32,num_4,1.51671275694,,,2017_Jul_03_1140,60.0017320166,MAFE4ImagesEEG,001,200844,
AFNE01.JPG,AFNE01.JPG,AFNE01.JPG,AFNE01.JPG,AFNE01.JPG,AFNE01.JPG,,,,,1,6,16,9,,,,,,,,,,,,,,,,,,,AFSA09.jpg,AFSA18.jpg,AFNE20.jpg,AFNE02.jpg,AFNE02.jpg,FN,3,num_4,32,num_8,3.06668424315,,,2017_Jul_03_1140,60.0017320166,MAFE4ImagesEEG,001,200844,
AFNE01.JPG,AFNE01.JPG,AFNE01.JPG,AFNE01.JPG,AFNE01.JPG,AFNE01.JPG,,,,,1,7,17,4,,,,,,,,,,,,,,,,,,,AFSA16.jpg,AFNE11.jpg,AFSA18.jpg,AFNE05.jpg,AFNE11.jpg,FN,3,num_6,32,num_4,3.38328878267,,,2017_Jul_03_1140,60.0017320166,MAFE4ImagesEEG,001,200844,
AFNE01.JPG,AFNE01.JPG,AFNE01.JPG,AFNE01.JPG,AFNE01.JPG,AFNE01.JPG,,,,,1,8,18,7,,,,,,,,,,,,,,,,,,,AFSA06.jpg,AFSA17.jpg,AFNE11.jpg,AFNE15.jpg,AFSA17.jpg,FS,4,num_6,32,num_2,2.11695529986,,,2017_Jul_03_1140,60.0017320166,MAFE4ImagesEEG,001,200844,
AFNE01.JPG,AFNE01.JPG,AFNE01.JPG,AFNE01.JPG,AFNE01.JPG,AFNE01.JPG,,,,,1,9,19,5,,,,,,,,,,,,,,,,,,,AFSA10.jpg,AFSA13.jpg,AFNE08.jpg,AFNE10.jpg,AFNE08.jpg,FN,3,num_2,32,num_8,1.8167177604,,,2017_Jul_03_1140,60.0017320166,MAFE4ImagesEEG,001,200844,
AFNE01.JPG,AFNE01.JPG,AFNE01.JPG,AFNE01.JPG,AFNE01.JPG,AFNE01.JPG,,,,,2,0,20,9,,,,,,,,,,,,,,,,,,,AFNE08.jpg,AFNE03.jpg,AFSA06.jpg,AFSA05.jpg,AFNE08.jpg,FN,3,num_8,32,num_2,1.28344331484,,,2017_Jul_03_1140,60.0017320166,MAFE4ImagesEEG,001,200844,
AFNE01.JPG,AFNE01.JPG,AFNE01.JPG,AFNE01.JPG,AFNE01.JPG,AFNE01.JPG,,,,,2,1,21,1,,,,,,,,,,,,,,,,,,,AFSA03.jpg,AFNE12.jpg,AFNE03.jpg,AFSA07.jpg,AFNE03.jpg,FN,3,num_2,32,num_8,1.38340489031,,,2017_Jul_03_1140,60.0017320166,MAFE4ImagesEEG,001,200844,
AFNE01.JPG,AFNE01.JPG,AFNE01.JPG,AFNE01.JPG,AFNE01.JPG,AFNE01.JPG,,,,,2,2,22,6,,,,,,,,,,,,,,,,,,,AFSA18.jpg,AFSA03.jpg,AFNE05.jpg,AFNE15.jpg,AFNE15.jpg,FN,3,num_4,16,num_4,1.61669485969,,,2017_Jul_03_1140,60.0017320166,MAFE4ImagesEEG,001,200844,
AFNE01.JPG,AFNE01.JPG,AFNE01.JPG,AFNE01.JPG,AFNE01.JPG,AFNE01.JPG,,,,,2,3,23,4,,,,,,,,,,,,,,,,,,,AFNE19.jpg,AFSA07.jpg,AFNE02.jpg,AFSA10.jpg,AFNE02.jpg,FN,3,num_2,16,num_2,2.21659806056,,,2017_Jul_03_1140,60.0017320166,MAFE4ImagesEEG,001,200844,
AFNE01.JPG,AFNE01.JPG,AFNE01.JPG,AFNE01.JPG,AFNE01.JPG,AFNE01.JPG,,,,,2,4,24,7,,,,,,,,,,,,,,,,,,,AFNE09.jpg,AFSA09.jpg,AFSA02.jpg,AFNE12.jpg,AFNE12.jpg,FN,3,num_4,16,num_4,1.68340251676,,,2017_Jul_03_1140,60.0017320166,MAFE4ImagesEEG,001,200844,
AFNE01.JPG,AFNE01.JPG,AFNE01.JPG,AFNE01.JPG,AFNE01.JPG,AFNE01.JPG,,,,,2,5,25,8,,,,,,,,,,,,,,,,,,,AFSA20.jpg,AFSA05.jpg,AFNE04.jpg,AFNE16.jpg,AFNE16.jpg,FN,3,num_4,16,num_4,2.03332929208,,,2017_Jul_03_1140,60.0017320166,MAFE4ImagesEEG,001,200844,
AFNE01.JPG,AFNE01.JPG,AFNE01.JPG,AFNE01.JPG,AFNE01.JPG,AFNE01.JPG,,,,,2,6,26,3,,,,,,,,,,,,,,,,,,,AFSA11.jpg,AFSA05.jpg,AFNE20.jpg,AFNE11.jpg,AFSA11.jpg,FS,4,num_8,32,num_6,1.58339860383,,,2017_Jul_03_1140,60.0017320166,MAFE4ImagesEEG,001,200844,
AFNE01.JPG,AFNE01.JPG,AFNE01.JPG,AFNE01.JPG,AFNE01.JPG,AFNE01.JPG,,,,,2,7,27,2,,,,,,,,,,,,,,,,,,,AFSA17.jpg,AFNE07.jpg,AFSA06.jpg,AFNE12.jpg,AFSA06.jpg,FS,4,num_2,32,num_8,3.23330087459,,,2017_Jul_03_1140,60.0017320166,MAFE4ImagesEEG,001,200844,
AFNE01.JPG,AFNE01.JPG,AFNE01.JPG,AFNE01.JPG,AFNE01.JPG,AFNE01.JPG,,,,,2,8,28,5,,,,,,,,,,,,,,,,,,,AFNE07.jpg,AFSA16.jpg,AFNE01.jpg,AFSA19.jpg,AFNE07.jpg,FN,3,num_8,16,num_8,1.85003999621,,,2017_Jul_03_1140,60.0017320166,MAFE4ImagesEEG,001,200844,
AFNE01.JPG,AFNE01.JPG,AFNE01.JPG,AFNE01.JPG,AFNE01.JPG,AFNE01.JPG,,,,,2,9,29,0,,,,,,,,,,,,,,,,,,,AFSA20.jpg,AFNE10.jpg,AFSA17.jpg,AFNE17.jpg,AFSA17.jpg,FS,4,num_2,32,num_4,2.03337002592,,,2017_Jul_03_1140,60.0017320166,MAFE4ImagesEEG,001,200844,
AFNE01.JPG,AFNE01.JPG,AFNE01.JPG,AFNE01.JPG,AFNE01.JPG,AFNE01.JPG,,,,,3,0,30,8,,,,,,,,,,,,,,,,,,,AFNE13.jpg,AFSA15.jpg,AFSA01.jpg,AFNE17.jpg,AFNE13.jpg,FN,3,num_8,32,num_2,2.86660713749,,,2017_Jul_03_1140,60.0017320166,MAFE4ImagesEEG,001,200844,
AFNE01.JPG,AFNE01.JPG,AFNE01.JPG,AFNE01.JPG,AFNE01.JPG,AFNE01.JPG,,,,,3,1,31,5,,,,,,,,,,,,,,,,,,,AFNE13.jpg,AFNE17.jpg,AFSA02.jpg,AFSA19.jpg,AFSA19.jpg,FS,4,num_4,16,num_4,1.74989880668,,,2017_Jul_03_1140,60.0017320166,MAFE4ImagesEEG,001,200844,
AFNE01.JPG,AFNE01.JPG,AFNE01.JPG,AFNE01.JPG,AFNE01.JPG,AFNE01.JPG,,,,,3,2,32,3,,,,,,,,,,,,,,,,,,,AFNE02.jpg,AFNE20.jpg,AFSA11.jpg,AFSA01.jpg,AFNE02.jpg,FN,3,num_8,16,num_8,2.53337323328,,,2017_Jul_03_1140,60.0017320166,MAFE4ImagesEEG,001,200844,
AFNE01.JPG,AFNE01.JPG,AFNE01.JPG,AFNE01.JPG,AFNE01.JPG,AFNE01.JPG,,,,,3,3,33,1,,,,,,,,,,,,,,,,,,,AFNE06.jpg,AFSA06.jpg,AFSA02.jpg,AFNE01.jpg,AFSA06.jpg,FS,4,num_6,16,num_6,1.15012069419,,,2017_Jul_03_1140,60.0017320166,MAFE4ImagesEEG,001,200844,
AFNE01.JPG,AFNE01.JPG,AFNE01.JPG,AFNE01.JPG,AFNE01.JPG,AFNE01.JPG,,,,,3,4,34,9,,,,,,,,,,,,,,,,,,,AFSA14.jpg,AFSA16.jpg,AFNE08.jpg,AFNE16.jpg,AFSA14.jpg,FS,4,num_8,16,num_8,1.4169186072,,,2017_Jul_03_1140,60.0017320166,MAFE4ImagesEEG,001,200844,
AFNE01.JPG,AFNE01.JPG,AFNE01.JPG,AFNE01.JPG,AFNE01.JPG,AFNE01.JPG,,,,,3,5,35,6,,,,,,,,,,,,,,,,,,,AFNE01.jpg,AFSA01.jpg,AFSA03.jpg,AFNE08.jpg,AFNE01.jpg,FN,3,num_8,32,num_2,1.48343959427,,,2017_Jul_03_1140,60.0017320166,MAFE4ImagesEEG,001,200844,
AFNE01.JPG,AFNE01.JPG,AFNE01.JPG,AFNE01.JPG,AFNE01.JPG,AFNE01.JPG,,,,,3,6,36,2,,,,,,,,,,,,,,,,,,,AFNE11.jpg,AFSA20.jpg,AFSA13.jpg,AFNE04.jpg,AFSA13.jpg,FS,4,num_2,32,num_6,2.03332191508,,,2017_Jul_03_1140,60.0017320166,MAFE4ImagesEEG,001,200844,
AFNE01.JPG,AFNE01.JPG,AFNE01.JPG,AFNE01.JPG,AFNE01.JPG,AFNE01.JPG,,,,,3,7,37,0,,,,,,,,,,,,,,,,,,,AFNE09.jpg,AFSA18.jpg,AFNE11.jpg,AFSA02.jpg,AFSA02.jpg,FS,4,num_4,16,num_4,1.90003521717,,,2017_Jul_03_1140,60.0017320166,MAFE4ImagesEEG,001,200844,
AFNE01.JPG,AFNE01.JPG,AFNE01.JPG,AFNE01.JPG,AFNE01.JPG,AFNE01.JPG,,,,,3,8,38,7,,,,,,,,,,,,,,,,,,,AFSA04.jpg,AFNE03.jpg,AFNE19.jpg,AFSA15.jpg,AFSA15.jpg,FS,4,num_4,32,num_2,2.38335677935,,,2017_Jul_03_1140,60.0017320166,MAFE4ImagesEEG,001,200844,
AFNE01.JPG,AFNE01.JPG,AFNE01.JPG,AFNE01.JPG,AFNE01.JPG,AFNE01.JPG,,,,,3,9,39,4,,,,,,,,,,,,,,,,,,,AFSA11.jpg,AFSA17.jpg,AFNE06.jpg,AFNE17.jpg,AFNE06.jpg,FN,3,num_2,32,num_8,4.16650212742,,,2017_Jul_03_1140,60.0017320166,MAFE4ImagesEEG,001,200844,
AFNE01.JPG,AFNE01.JPG,AFNE01.JPG,AFNE01.JPG,AFNE01.JPG,AFNE01.JPG,,,,,4,0,40,0,,,,,,,,,,,,,,,,,,,AFNE11.jpg,AFNE02.jpg,AFSA13.jpg,AFSA11.jpg,AFSA11.jpg,FS,4,num_4,16,num_4,0.650244820281,,,2017_Jul_03_1140,60.0017320166,MAFE4ImagesEEG,001,200844,
AFNE01.JPG,AFNE01.JPG,AFNE01.JPG,AFNE01.JPG,AFNE01.JPG,AFNE01.JPG,,,,,4,1,41,1,,,,,,,,,,,,,,,,,,,AFSA02.jpg,AFNE16.jpg,AFNE15.jpg,AFSA16.jpg,AFSA16.jpg,FS,4,num_4,32,num_6,1.76667410787,,,2017_Jul_03_1140,60.0017320166,MAFE4ImagesEEG,001,200844,
AFNE01.JPG,AFNE01.JPG,AFNE01.JPG,AFNE01.JPG,AFNE01.JPG,AFNE01.JPG,,,,,4,2,42,3,,,,,,,,,,,,,,,,,,,AFSA01.jpg,AFNE14.jpg,AFNE01.jpg,AFSA08.jpg,AFNE14.jpg,FN,3,num_6,32,num_2,1.90004965046,,,2017_Jul_03_1140,60.0017320166,MAFE4ImagesEEG,001,200844,
AFNE01.JPG,AFNE01.JPG,AFNE01.JPG,AFNE01.JPG,AFNE01.JPG,AFNE01.JPG,,,,,4,3,43,2,,,,,,,,,,,,,,,,,,,AFSA04.jpg,AFNE10.jpg,AFNE05.jpg,AFSA13.jpg,AFNE10.jpg,FN,3,num_6,16,num_6,1.51675798104,,,2017_Jul_03_1140,60.0017320166,MAFE4ImagesEEG,001,200844,
AFNE01.JPG,AFNE01.JPG,AFNE01.JPG,AFNE01.JPG,AFNE01.JPG,AFNE01.JPG,,,,,4,4,44,9,,,,,,,,,,,,,,,,,,,AFSA13.jpg,AFNE17.jpg,AFSA06.jpg,AFNE06.jpg,AFNE17.jpg,FN,3,num_6,32,num_2,2.01665470307,,,2017_Jul_03_1140,60.0017320166,MAFE4ImagesEEG,001,200844,
AFNE01.JPG,AFNE01.JPG,AFNE01.JPG,AFNE01.JPG,AFNE01.JPG,AFNE01.JPG,,,,,4,5,45,4,,,,,,,,,,,,,,,,,,,AFNE12.jpg,AFSA08.jpg,AFNE14.jpg,AFSA10.jpg,AFSA10.jpg,FS,4,num_4,32,num_6,2.20007357758,,,2017_Jul_03_1140,60.0017320166,MAFE4ImagesEEG,001,200844,
AFNE01.JPG,AFNE01.JPG,AFNE01.JPG,AFNE01.JPG,AFNE01.JPG,AFNE01.JPG,,,,,4,6,46,6,,,,,,,,,,,,,,,,,,,AFSA05.jpg,AFNE04.jpg,AFNE10.jpg,AFSA07.jpg,AFSA05.jpg,FS,4,num_8,16,num_8,1.75033372908,,,2017_Jul_03_1140,60.0017320166,MAFE4ImagesEEG,001,200844,
AFNE01.JPG,AFNE01.JPG,AFNE01.JPG,AFNE01.JPG,AFNE01.JPG,AFNE01.JPG,,,,,4,7,47,8,,,,,,,,,,,,,,,,,,,AFNE19.jpg,AFSA02.jpg,AFNE01.jpg,AFSA11.jpg,AFSA11.jpg,FS,4,num_4,16,num_4,1.00015106809,,,2017_Jul_03_1140,60.0017320166,MAFE4ImagesEEG,001,200844,
AFNE01.JPG,AFNE01.JPG,AFNE01.JPG,AFNE01.JPG,AFNE01.JPG,AFNE01.JPG,,,,,4,8,48,7,,,,,,,,,,,,,,,,,,,AFNE15.jpg,AFSA15.jpg,AFNE06.jpg,AFSA20.jpg,AFSA15.jpg,FS,4,num_6,16,num_6,1.48346172529,,,2017_Jul_03_1140,60.0017320166,MAFE4ImagesEEG,001,200844,
AFNE01.JPG,AFNE01.JPG,AFNE01.JPG,AFNE01.JPG,AFNE01.JPG,AFNE01.JPG,,,,,4,9,49,5,,,,,,,,,,,,,,,,,,,AFSA20.jpg,AFNE07.jpg,AFSA10.jpg,AFNE18.jpg,AFNE18.jpg,FN,3,num_4,32,num_2,3.34997007507,,,2017_Jul_03_1140,60.0017320166,MAFE4ImagesEEG,001,200844,
AFNE01.JPG,AFNE01.JPG,AFNE01.JPG,AFNE01.JPG,AFNE01.JPG,AFNE01.JPG,,,,,5,0,50,3,,,,,,,,,,,,,,,,,,,AFNE19.jpg,AFSA06.jpg,AFNE07.jpg,AFSA13.jpg,AFNE19.jpg,FN,3,num_8,32,num_4,2.75001010322,,,2017_Jul_03_1140,60.0017320166,MAFE4ImagesEEG,001,200844,
AFNE01.JPG,AFNE01.JPG,AFNE01.JPG,AFNE01.JPG,AFNE01.JPG,AFNE01.JPG,,,,,5,1,51,8,,,,,,,,,,,,,,,,,,,AFNE15.jpg,AFSA18.jpg,AFSA09.jpg,AFNE16.jpg,AFSA18.jpg,FS,4,num_6,16,num_6,3.08331489086,,,2017_Jul_03_1140,60.0017320166,MAFE4ImagesEEG,001,200844,
AFNE01.JPG,AFNE01.JPG,AFNE01.JPG,AFNE01.JPG,AFNE01.JPG,AFNE01.JPG,,,,,5,2,52,9,,,,,,,,,,,,,,,,,,,AFNE14.jpg,AFSA14.jpg,AFNE02.jpg,AFSA12.jpg,AFNE14.jpg,FN,3,num_8,16,num_8,3.46623803081,,,2017_Jul_03_1140,60.0017320166,MAFE4ImagesEEG,001,200844,
AFNE01.JPG,AFNE01.JPG,AFNE01.JPG,AFNE01.JPG,AFNE01.JPG,AFNE01.JPG,,,,,5,3,53,0,,,,,,,,,,,,,,,,,,,AFNE20.jpg,AFSA08.jpg,AFNE13.jpg,AFSA13.jpg,AFNE20.jpg,FN,3,num_8,32,num_2,1.70014093281,,,2017_Jul_03_1140,60.0017320166,MAFE4ImagesEEG,001,200844,
AFNE01.JPG,AFNE01.JPG,AFNE01.JPG,AFNE01.JPG,AFNE01.JPG,AFNE01.JPG,,,,,5,4,54,1,,,,,,,,,,,,,,,,,,,AFNE17.jpg,AFSA09.jpg,AFSA02.jpg,AFNE11.jpg,AFSA09.jpg,FS,4,num_6,32,num_2,1.6170495972,,,2017_Jul_03_1140,60.0017320166,MAFE4ImagesEEG,001,200844,
AFNE01.JPG,AFNE01.JPG,AFNE01.JPG,AFNE01.JPG,AFNE01.JPG,AFNE01.JPG,,,,,5,5,55,7,,,,,,,,,,,,,,,,,,,AFNE11.jpg,AFSA18.jpg,AFNE08.jpg,AFSA03.jpg,AFNE08.jpg,FN,3,num_2,16,num_2,1.89950792189,,,2017_Jul_03_1140,60.0017320166,MAFE4ImagesEEG,001,200844,
AFNE01.JPG,AFNE01.JPG,AFNE01.JPG,AFNE01.JPG,AFNE01.JPG,AFNE01.JPG,,,,,5,6,56,4,,,,,,,,,,,,,,,,,,,AFNE11.jpg,AFSA14.jpg,AFSA03.jpg,AFNE13.jpg,AFSA14.jpg,FS,4,num_6,32,num_4,2.26671259652,,,2017_Jul_03_1140,60.0017320166,MAFE4ImagesEEG,001,200844,
AFNE01.JPG,AFNE01.JPG,AFNE01.JPG,AFNE01.JPG,AFNE01.JPG,AFNE01.JPG,,,,,5,7,57,2,,,,,,,,,,,,,,,,,,,AFSA08.jpg,AFSA11.jpg,AFNE02.jpg,AFNE01.jpg,AFNE01.jpg,FN,3,num_4,32,num_8,1.91668863734,,,2017_Jul_03_1140,60.0017320166,MAFE4ImagesEEG,001,200844,
AFNE01.JPG,AFNE01.JPG,AFNE01.JPG,AFNE01.JPG,AFNE01.JPG,AFNE01.JPG,,,,,5,8,58,5,,,,,,,,,,,,,,,,,,,AFNE03.jpg,AFSA05.jpg,AFSA17.jpg,AFNE07.jpg,AFNE03.jpg,FN,3,num_8,32,num_6,1.41671269271,,,2017_Jul_03_1140,60.0017320166,MAFE4ImagesEEG,001,200844,
AFNE01.JPG,AFNE01.JPG,AFNE01.JPG,AFNE01.JPG,AFNE01.JPG,AFNE01.JPG,,,,,5,9,59,6,,,,,,,,,,,,,,,,,,,AFSA03.jpg,AFNE10.jpg,AFSA01.jpg,AFNE03.jpg,AFSA01.jpg,FS,4,num_2,32,num_4,2.15002511395,,,2017_Jul_03_1140,60.0017320166,MAFE4ImagesEEG,001,200844,
,,,,,,,,,,,,,,,,,,,,,,,,,,,,,,,,,,,,,,,,,,,space,36.3139693463,2017_Jul_03_1140,60.0017320166,MAFE4ImagesEEG,001,200844,
AFNE01.JPG,AFNE01.JPG,AFNE01.JPG,AFNE01.JPG,AFNE01.JPG,AFNE01.JPG,,,,,,,,,0,0,0,0,,,,,,,,,,,,,,,AMSA12.jpg,AMSA02.jpg,AMNE12.jpg,AMNE02.jpg,AMNE12.jpg,MN,1,num_2,16,num_2,1.51674130268,,,2017_Jul_03_1140,60.0017320166,MAFE4ImagesEEG,001,200844,
AFNE01.JPG,AFNE01.JPG,AFNE01.JPG,AFNE01.JPG,AFNE01.JPG,AFNE01.JPG,,,,,,,,,0,1,1,6,,,,,,,,,,,,,,,AMSA20.jpg,AMNE01.jpg,AMNE17.jpg,AMSA04.jpg,AMNE17.jpg,MN,1,num_2,32,num_8,0.850122746895,,,2017_Jul_03_1140,60.0017320166,MAFE4ImagesEEG,001,200844,
AFNE01.JPG,AFNE01.JPG,AFNE01.JPG,AFNE01.JPG,AFNE01.JPG,AFNE01.JPG,,,,,,,,,0,2,2,1,,,,,,,,,,,,,,,AMNE16.jpg,AMNE19.jpg,AMSA01.jpg,AMSA10.jpg,AMNE16.jpg,MN,1,num_8,32,num_6,0.9334382792,,,2017_Jul_03_1140,60.0017320166,MAFE4ImagesEEG,001,200844,
AFNE01.JPG,AFNE01.JPG,AFNE01.JPG,AFNE01.JPG,AFNE01.JPG,AFNE01.JPG,,,,,,,,,0,3,3,9,,,,,,,,,,,,,,,AMNE12.jpg,AMSA16.jpg,AMNE04.jpg,AMSA01.jpg,AMNE04.jpg,MN,1,num_2,16,num_2,2.46662804962,,,2017_Jul_03_1140,60.0017320166,MAFE4ImagesEEG,001,200844,
AFNE01.JPG,AFNE01.JPG,AFNE01.JPG,AFNE01.JPG,AFNE01.JPG,AFNE01.JPG,,,,,,,,,0,4,4,7,,,,,,,,,,,,,,,AMNE05.jpg,AMSA10.jpg,AMNE13.jpg,AMSA17.jpg,AMSA10.jpg,MS,2,num_6,16,num_6,1.24977756734,,,2017_Jul_03_1140,60.0017320166,MAFE4ImagesEEG,001,200844,
AFNE01.JPG,AFNE01.JPG,AFNE01.JPG,AFNE01.JPG,AFNE01.JPG,AFNE01.JPG,,,,,,,,,0,5,5,4,,,,,,,,,,,,,,,AMSA04.jpg,AMSA16.jpg,AMNE08.jpg,AMNE04.jpg,AMNE04.jpg,MN,1,num_4,32,num_6,1.70003252302,,,2017_Jul_03_1140,60.0017320166,MAFE4ImagesEEG,001,200844,
AFNE01.JPG,AFNE01.JPG,AFNE01.JPG,AFNE01.JPG,AFNE01.JPG,AFNE01.JPG,,,,,,,,,0,6,6,5,,,,,,,,,,,,,,,AMNE17.jpg,AMNE03.jpg,AMSA14.jpg,AMSA16.jpg,AMSA16.jpg,MS,2,num_4,32,num_8,4.2168713304,,,2017_Jul_03_1140,60.0017320166,MAFE4ImagesEEG,001,200844,
AFNE01.JPG,AFNE01.JPG,AFNE01.JPG,AFNE01.JPG,AFNE01.JPG,AFNE01.JPG,,,,,,,,,0,7,7,3,,,,,,,,,,,,,,,AMSA02.jpg,AMNE16.jpg,AMSA17.jpg,AMNE17.jpg,AMNE17.jpg,MN,1,num_4,32,num_2,1.36675499822,,,2017_Jul_03_1140,60.0017320166,MAFE4ImagesEEG,001,200844,
AFNE01.JPG,AFNE01.JPG,AFNE01.JPG,AFNE01.JPG,AFNE01.JPG,AFNE01.JPG,,,,,,,,,0,8,8,2,,,,,,,,,,,,,,,AMNE16.jpg,AMSA19.jpg,AMSA06.jpg,AMNE20.jpg,AMNE16.jpg,MN,1,num_8,32,num_6,1.66671894712,,,2017_Jul_03_1140,60.0017320166,MAFE4ImagesEEG,001,200844,
AFNE01.JPG,AFNE01.JPG,AFNE01.JPG,AFNE01.JPG,AFNE01.JPG,AFNE01.JPG,,,,,,,,,0,9,9,8,,,,,,,,,,,,,,,AMNE15.jpg,AMSA17.jpg,AMSA01.jpg,AMNE01.jpg,AMNE01.jpg,MN,1,num_4,32,num_2,4.33321979165,,,2017_Jul_03_1140,60.0017320166,MAFE4ImagesEEG,001,200844,
AFNE01.JPG,AFNE01.JPG,AFNE01.JPG,AFNE01.JPG,AFNE01.JPG,AFNE01.JPG,,,,,,,,,1,0,10,4,,,,,,,,,,,,,,,AMNE06.jpg,AMNE12.jpg,AMSA17.jpg,AMSA12.jpg,AMSA12.jpg,MS,2,num_4,16,num_4,4.61640715657,,,2017_Jul_03_1140,60.0017320166,MAFE4ImagesEEG,001,200844,
AFNE01.JPG,AFNE01.JPG,AFNE01.JPG,AFNE01.JPG,AFNE01.JPG,AFNE01.JPG,,,,,,,,,1,1,11,3,,,,,,,,,,,,,,,AMSA01.jpg,AMNE13.jpg,AMSA12.jpg,AMNE05.jpg,AMSA01.jpg,MS,2,num_8,32,num_6,2.81660101132,,,2017_Jul_03_1140,60.0017320166,MAFE4ImagesEEG,001,200844,
AFNE01.JPG,AFNE01.JPG,AFNE01.JPG,AFNE01.JPG,AFNE01.JPG,AFNE01.JPG,,,,,,,,,1,2,12,7,,,,,,,,,,,,,,,AMSA06.jpg,AMNE01.jpg,AMNE13.jpg,AMSA17.jpg,AMSA06.jpg,MS,2,num_8,32,num_2,1.0331079819,,,2017_Jul_03_1140,60.0017320166,MAFE4ImagesEEG,001,200844,
AFNE01.JPG,AFNE01.JPG,AFNE01.JPG,AFNE01.JPG,AFNE01.JPG,AFNE01.JPG,,,,,,,,,1,3,13,1,,,,,,,,,,,,,,,AMSA04.jpg,AMSA16.jpg,AMNE06.jpg,AMNE02.jpg,AMNE06.jpg,MN,1,num_2,32,num_6,1.28349591605,,,2017_Jul_03_1140,60.0017320166,MAFE4ImagesEEG,001,200844,
AFNE01.JPG,AFNE01.JPG,AFNE01.JPG,AFNE01.JPG,AFNE01.JPG,AFNE01.JPG,,,,,,,,,1,4,14,5,,,,,,,,,,,,,,,AMNE12.jpg,AMNE11.jpg,AMSA06.jpg,AMSA14.jpg,AMSA06.jpg,MS,2,num_2,32,num_8,1.08340758446,,,2017_Jul_03_1140,60.0017320166,MAFE4ImagesEEG,001,200844,
AFNE01.JPG,AFNE01.JPG,AFNE01.JPG,AFNE01.JPG,AFNE01.JPG,AFNE01.JPG,,,,,,,,,1,5,15,9,,,,,,,,,,,,,,,AMNE01.jpg,AMNE13.jpg,AMSA09.jpg,AMSA02.jpg,AMSA02.jpg,MS,2,num_4,16,num_4,1.25038312294,,,2017_Jul_03_1140,60.0017320166,MAFE4ImagesEEG,001,200844,
AFNE01.JPG,AFNE01.JPG,AFNE01.JPG,AFNE01.JPG,AFNE01.JPG,AFNE01.JPG,,,,,,,,,1,6,16,0,,,,,,,,,,,,,,,AMNE02.jpg,AMNE11.jpg,AMSA04.jpg,AMSA14.jpg,AMSA04.jpg,MS,2,num_2,16,num_2,1.21673822368,,,2017_Jul_03_1140,60.0017320166,MAFE4ImagesEEG,001,200844,
AFNE01.JPG,AFNE01.JPG,AFNE01.JPG,AFNE01.JPG,AFNE01.JPG,AFNE01.JPG,,,,,,,,,1,7,17,2,,,,,,,,,,,,,,,AMSA02.jpg,AMNE05.jpg,AMSA07.jpg,AMNE11.jpg,AMNE11.jpg,MN,1,num_4,32,num_6,1.9666899523,,,2017_Jul_03_1140,60.0017320166,MAFE4ImagesEEG,001,200844,
AFNE01.JPG,AFNE01.JPG,AFNE01.JPG,AFNE01.JPG,AFNE01.JPG,AFNE01.JPG,,,,,,,,,1,8,18,6,,,,,,,,,,,,,,,AMNE11.jpg,AMSA10.jpg,AMSA16.jpg,AMNE20.jpg,AMSA16.jpg,MS,2,num_2,32,num_6,0.950107094832,,,2017_Jul_03_1140,60.0017320166,MAFE4ImagesEEG,001,200844,
AFNE01.JPG,AFNE01.JPG,AFNE01.JPG,AFNE01.JPG,AFNE01.JPG,AFNE01.JPG,,,,,,,,,1,9,19,8,,,,,,,,,,,,,,,AMSA20.jpg,AMSA06.jpg,AMNE08.jpg,AMNE04.jpg,AMNE04.jpg,MN,1,num_4,32,num_8,1.28344940883,,,2017_Jul_03_1140,60.0017320166,MAFE4ImagesEEG,001,200844,
AFNE01.JPG,AFNE01.JPG,AFNE01.JPG,AFNE01.JPG,AFNE01.JPG,AFNE01.JPG,,,,,,,,,2,0,20,9,,,,,,,,,,,,,,,AMNE08.jpg,AMSA01.jpg,AMNE06.jpg,AMSA19.jpg,AMSA19.jpg,MS,2,num_4,32,num_2,1.66667725111,,,2017_Jul_03_1140,60.0017320166,MAFE4ImagesEEG,001,200844,
AFNE01.JPG,AFNE01.JPG,AFNE01.JPG,AFNE01.JPG,AFNE01.JPG,AFNE01.JPG,,,,,,,,,2,1,21,7,,,,,,,,,,,,,,,AMSA11.jpg,AMNE06.jpg,AMSA06.jpg,AMNE11.jpg,AMSA06.jpg,MS,2,num_2,16,num_2,1.31683899986,,,2017_Jul_03_1140,60.0017320166,MAFE4ImagesEEG,001,200844,
AFNE01.JPG,AFNE01.JPG,AFNE01.JPG,AFNE01.JPG,AFNE01.JPG,AFNE01.JPG,,,,,,,,,2,2,22,0,,,,,,,,,,,,,,,AMSA16.jpg,AMNE07.jpg,AMNE18.jpg,AMSA15.jpg,AMNE07.jpg,MN,1,num_6,16,num_6,1.88335742091,,,2017_Jul_03_1140,60.0017320166,MAFE4ImagesEEG,001,200844,
AFNE01.JPG,AFNE01.JPG,AFNE01.JPG,AFNE01.JPG,AFNE01.JPG,AFNE01.JPG,,,,,,,,,2,3,23,6,,,,,,,,,,,,,,,AMNE02.jpg,AMSA02.jpg,AMSA14.jpg,AMNE09.jpg,AMSA14.jpg,MS,2,num_2,16,num_2,1.38341387094,,,2017_Jul_03_1140,60.0017320166,MAFE4ImagesEEG,001,200844,
AFNE01.JPG,AFNE01.JPG,AFNE01.JPG,AFNE01.JPG,AFNE01.JPG,AFNE01.JPG,,,,,,,,,2,4,24,3,,,,,,,,,,,,,,,AMSA18.jpg,AMNE13.jpg,AMNE09.jpg,AMSA14.jpg,AMSA18.jpg,MS,2,num_8,16,num_8,1.13347208512,,,2017_Jul_03_1140,60.0017320166,MAFE4ImagesEEG,001,200844,
AFNE01.JPG,AFNE01.JPG,AFNE01.JPG,AFNE01.JPG,AFNE01.JPG,AFNE01.JPG,,,,,,,,,2,5,25,1,,,,,,,,,,,,,,,AMSA09.jpg,AMNE09.jpg,AMNE17.jpg,AMSA01.jpg,AMNE09.jpg,MN,1,num_6,16,num_6,1.96669957449,,,2017_Jul_03_1140,60.0017320166,MAFE4ImagesEEG,001,200844,
AFNE01.JPG,AFNE01.JPG,AFNE01.JPG,AFNE01.JPG,AFNE01.JPG,AFNE01.JPG,,,,,,,,,2,6,26,8,,,,,,,,,,,,,,,AMNE16.jpg,AMSA13.jpg,AMSA12.jpg,AMNE01.jpg,AMNE01.jpg,MN,1,num_4,16,num_4,2.30001270131,,,2017_Jul_03_1140,60.0017320166,MAFE4ImagesEEG,001,200844,
AFNE01.JPG,AFNE01.JPG,AFNE01.JPG,AFNE01.JPG,AFNE01.JPG,AFNE01.JPG,,,,,,,,,2,7,27,5,,,,,,,,,,,,,,,AMNE10.jpg,AMSA02.jpg,AMSA06.jpg,AMNE15.jpg,AMNE15.jpg,MN,1,num_4,32,num_2,1.43342192145,,,2017_Jul_03_1140,60.0017320166,MAFE4ImagesEEG,001,200844,
AFNE01.JPG,AFNE01.JPG,AFNE01.JPG,AFNE01.JPG,AFNE01.JPG,AFNE01.JPG,,,,,,,,,2,8,28,2,,,,,,,,,,,,,,,AMSA14.jpg,AMSA16.jpg,AMNE17.jpg,AMNE16.jpg,AMNE17.jpg,MN,1,num_2,32,num_6,1.51635000086,,,2017_Jul_03_1140,60.0017320166,MAFE4ImagesEEG,001,200844,
AFNE01.JPG,AFNE01.JPG,AFNE01.JPG,AFNE01.JPG,AFNE01.JPG,AFNE01.JPG,,,,,,,,,2,9,29,4,,,,,,,,,,,,,,,AMSA13.jpg,AMNE18.jpg,AMNE12.jpg,AMSA06.jpg,AMSA13.jpg,MS,2,num_8,16,num_8,2.44997110136,,,2017_Jul_03_1140,60.0017320166,MAFE4ImagesEEG,001,200844,
AFNE01.JPG,AFNE01.JPG,AFNE01.JPG,AFNE01.JPG,AFNE01.JPG,AFNE01.JPG,,,,,,,,,3,0,30,7,,,,,,,,,,,,,,,AMNE07.jpg,AMSA17.jpg,AMSA05.jpg,AMNE08.jpg,AMSA05.jpg,MS,2,num_2,32,num_4,2.21668433934,,,2017_Jul_03_1140,60.0017320166,MAFE4ImagesEEG,001,200844,
AFNE01.JPG,AFNE01.JPG,AFNE01.JPG,AFNE01.JPG,AFNE01.JPG,AFNE01.JPG,,,,,,,,,3,1,31,5,,,,,,,,,,,,,,,AMSA01.jpg,AMNE14.jpg,AMSA08.jpg,AMNE15.jpg,AMNE14.jpg,MN,1,num_6,16,num_6,1.91652794695,,,2017_Jul_03_1140,60.0017320166,MAFE4ImagesEEG,001,200844,
AFNE01.JPG,AFNE01.JPG,AFNE01.JPG,AFNE01.JPG,AFNE01.JPG,AFNE01.JPG,,,,,,,,,3,2,32,6,,,,,,,,,,,,,,,AMNE09.jpg,AMSA19.jpg,AMSA20.jpg,AMNE06.jpg,AMNE09.jpg,MN,1,num_8,48,None,,,,2017_Jul_03_1140,60.0017320166,MAFE4ImagesEEG,001,200844,
AFNE01.JPG,AFNE01.JPG,AFNE01.JPG,AFNE01.JPG,AFNE01.JPG,AFNE01.JPG,,,,,,,,,3,3,33,9,,,,,,,,,,,,,,,AMSA06.jpg,AMSA17.jpg,AMNE07.jpg,AMNE10.jpg,AMNE10.jpg,MN,1,num_4,16,num_4,0.666790471994,,,2017_Jul_03_1140,60.0017320166,MAFE4ImagesEEG,001,200844,
AFNE01.JPG,AFNE01.JPG,AFNE01.JPG,AFNE01.JPG,AFNE01.JPG,AFNE01.JPG,,,,,,,,,3,4,34,4,,,,,,,,,,,,,,,AMNE03.jpg,AMSA11.jpg,AMNE17.jpg,AMSA20.jpg,AMSA20.jpg,MS,2,num_4,16,num_4,1.16698259476,,,2017_Jul_03_1140,60.0017320166,MAFE4ImagesEEG,001,200844,
AFNE01.JPG,AFNE01.JPG,AFNE01.JPG,AFNE01.JPG,AFNE01.JPG,AFNE01.JPG,,,,,,,,,3,5,35,3,,,,,,,,,,,,,,,AMNE01.jpg,AMNE17.jpg,AMSA10.jpg,AMSA06.jpg,AMNE17.jpg,MN,1,num_6,32,num_8,2.10000263015,,,2017_Jul_03_1140,60.0017320166,MAFE4ImagesEEG,001,200844,
AFNE01.JPG,AFNE01.JPG,AFNE01.JPG,AFNE01.JPG,AFNE01.JPG,AFNE01.JPG,,,,,,,,,3,6,36,0,,,,,,,,,,,,,,,AMNE11.jpg,AMSA03.jpg,AMNE04.jpg,AMSA12.jpg,AMNE04.jpg,MN,1,num_2,32,num_6,1.61682155158,,,2017_Jul_03_1140,60.0017320166,MAFE4ImagesEEG,001,200844,
AFNE01.JPG,AFNE01.JPG,AFNE01.JPG,AFNE01.JPG,AFNE01.JPG,AFNE01.JPG,,,,,,,,,3,7,37,2,,,,,,,,,,,,,,,AMNE07.jpg,AMNE04.jpg,AMSA03.jpg,AMSA17.jpg,AMSA17.jpg,MS,2,num_4,32,num_6,0.816810774733,,,2017_Jul_03_1140,60.0017320166,MAFE4ImagesEEG,001,200844,
AFNE01.JPG,AFNE01.JPG,AFNE01.JPG,AFNE01.JPG,AFNE01.JPG,AFNE01.JPG,,,,,,,,,3,8,38,8,,,,,,,,,,,,,,,AMNE07.jpg,AMNE04.jpg,AMSA03.jpg,AMSA02.jpg,AMSA03.jpg,MS,2,num_2,32,num_4,1.1167413668,,,2017_Jul_03_1140,60.0017320166,MAFE4ImagesEEG,001,200844,
AFNE01.JPG,AFNE01.JPG,AFNE01.JPG,AFNE01.JPG,AFNE01.JPG,AFNE01.JPG,,,,,,,,,3,9,39,1,,,,,,,,,,,,,,,AMSA14.jpg,AMSA19.jpg,AMNE05.jpg,AMNE02.jpg,AMNE02.jpg,MN,1,num_4,16,num_4,1.88336030755,,,2017_Jul_03_1140,60.0017320166,MAFE4ImagesEEG,001,200844,
AFNE01.JPG,AFNE01.JPG,AFNE01.JPG,AFNE01.JPG,AFNE01.JPG,AFNE01.JPG,,,,,,,,,4,0,40,6,,,,,,,,,,,,,,,AMSA01.jpg,AMNE12.jpg,AMNE09.jpg,AMSA15.jpg,AMSA15.jpg,MS,2,num_4,16,num_4,1.73339902074,,,2017_Jul_03_1140,60.0017320166,MAFE4ImagesEEG,001,200844,
AFNE01.JPG,AFNE01.JPG,AFNE01.JPG,AFNE01.JPG,AFNE01.JPG,AFNE01.JPG,,,,,,,,,4,1,41,2,,,,,,,,,,,,,,,AMSA04.jpg,AMNE05.jpg,AMSA05.jpg,AMNE11.jpg,AMSA04.jpg,MS,2,num_8,16,num_8,1.23312350572,,,2017_Jul_03_1140,60.0017320166,MAFE4ImagesEEG,001,200844,
AFNE01.JPG,AFNE01.JPG,AFNE01.JPG,AFNE01.JPG,AFNE01.JPG,AFNE01.JPG,,,,,,,,,4,2,42,0,,,,,,,,,,,,,,,AMNE12.jpg,AMSA17.jpg,AMNE16.jpg,AMSA03.jpg,AMNE12.jpg,MN,1,num_8,32,num_6,1.74989175051,,,2017_Jul_03_1140,60.0017320166,MAFE4ImagesEEG,001,200844,
AFNE01.JPG,AFNE01.JPG,AFNE01.JPG,AFNE01.JPG,AFNE01.JPG,AFNE01.JPG,,,,,,,,,4,3,43,8,,,,,,,,,,,,,,,AMSA03.jpg,AMNE18.jpg,AMSA08.jpg,AMNE07.jpg,AMNE07.jpg,MN,1,num_4,32,num_8,1.70004759764,,,2017_Jul_03_1140,60.0017320166,MAFE4ImagesEEG,001,200844,
AFNE01.JPG,AFNE01.JPG,AFNE01.JPG,AFNE01.JPG,AFNE01.JPG,AFNE01.JPG,,,,,,,,,4,4,44,3,,,,,,,,,,,,,,,AMNE14.jpg,AMSA19.jpg,AMNE18.jpg,AMSA12.jpg,AMNE18.jpg,MN,1,num_2,32,num_6,1.98335139093,,,2017_Jul_03_1140,60.0017320166,MAFE4ImagesEEG,001,200844,
AFNE01.JPG,AFNE01.JPG,AFNE01.JPG,AFNE01.JPG,AFNE01.JPG,AFNE01.JPG,,,,,,,,,4,5,45,4,,,,,,,,,,,,,,,AMSA14.jpg,AMSA04.jpg,AMNE05.jpg,AMNE10.jpg,AMSA14.jpg,MS,2,num_8,16,num_8,1.30016184505,,,2017_Jul_03_1140,60.0017320166,MAFE4ImagesEEG,001,200844,
AFNE01.JPG,AFNE01.JPG,AFNE01.JPG,AFNE01.JPG,AFNE01.JPG,AFNE01.JPG,,,,,,,,,4,6,46,1,,,,,,,,,,,,,,,AMNE12.jpg,AMSA11.jpg,AMNE16.jpg,AMSA15.jpg,AMNE16.jpg,MN,1,num_2,32,num_4,1.20015376236,,,2017_Jul_03_1140,60.0017320166,MAFE4ImagesEEG,001,200844,
AFNE01.JPG,AFNE01.JPG,AFNE01.JPG,AFNE01.JPG,AFNE01.JPG,AFNE01.JPG,,,,,,,,,4,7,47,9,,,,,,,,,,,,,,,AMNE06.jpg,AMNE16.jpg,AMSA07.jpg,AMSA12.jpg,AMSA07.jpg,MS,2,num_2,16,num_2,1.23348433734,,,2017_Jul_03_1140,60.0017320166,MAFE4ImagesEEG,001,200844,
AFNE01.JPG,AFNE01.JPG,AFNE01.JPG,AFNE01.JPG,AFNE01.JPG,AFNE01.JPG,,,,,,,,,4,8,48,7,,,,,,,,,,,,,,,AMNE12.jpg,AMNE20.jpg,AMSA13.jpg,AMSA01.jpg,AMNE12.jpg,MN,1,num_8,32,num_2,0.733466696693,,,2017_Jul_03_1140,60.0017320166,MAFE4ImagesEEG,001,200844,
AFNE01.JPG,AFNE01.JPG,AFNE01.JPG,AFNE01.JPG,AFNE01.JPG,AFNE01.JPG,,,,,,,,,4,9,49,5,,,,,,,,,,,,,,,AMNE15.jpg,AMSA06.jpg,AMNE10.jpg,AMSA19.jpg,AMNE15.jpg,MN,1,num_8,48,None,,,,2017_Jul_03_1140,60.0017320166,MAFE4ImagesEEG,001,200844,
AFNE01.JPG,AFNE01.JPG,AFNE01.JPG,AFNE01.JPG,AFNE01.JPG,AFNE01.JPG,,,,,,,,,5,0,50,4,,,,,,,,,,,,,,,AMNE11.jpg,AMSA14.jpg,AMNE12.jpg,AMSA18.jpg,AMSA18.jpg,MS,2,num_4,32,num_8,1.20011238696,,,2017_Jul_03_1140,60.0017320166,MAFE4ImagesEEG,001,200844,
AFNE01.JPG,AFNE01.JPG,AFNE01.JPG,AFNE01.JPG,AFNE01.JPG,AFNE01.JPG,,,,,,,,,5,1,51,0,,,,,,,,,,,,,,,AMSA14.jpg,AMNE09.jpg,AMSA13.jpg,AMNE13.jpg,AMSA14.jpg,MS,2,num_8,16,num_8,0.800125601469,,,2017_Jul_03_1140,60.0017320166,MAFE4ImagesEEG,001,200844,
AFNE01.JPG,AFNE01.JPG,AFNE01.JPG,AFNE01.JPG,AFNE01.JPG,AFNE01.JPG,,,,,,,,,5,2,52,3,,,,,,,,,,,,,,,AMSA20.jpg,AMNE16.jpg,AMSA01.jpg,AMNE07.jpg,AMSA20.jpg,MS,2,num_8,32,num_6,1.03331646242,,,2017_Jul_03_1140,60.0017320166,MAFE4ImagesEEG,001,200844,
AFNE01.JPG,AFNE01.JPG,AFNE01.JPG,AFNE01.JPG,AFNE01.JPG,AFNE01.JPG,,,,,,,,,5,3,53,7,,,,,,,,,,,,,,,AMSA16.jpg,AMNE09.jpg,AMNE14.jpg,AMSA06.jpg,AMSA06.jpg,MS,2,num_4,16,num_4,1.30009833863,,,2017_Jul_03_1140,60.0017320166,MAFE4ImagesEEG,001,200844,
AFNE01.JPG,AFNE01.JPG,AFNE01.JPG,AFNE01.JPG,AFNE01.JPG,AFNE01.JPG,,,,,,,,,5,4,54,6,,,,,,,,,,,,,,,AMNE09.jpg,AMSA03.jpg,AMSA10.jpg,AMNE07.jpg,AMSA10.jpg,MS,2,num_2,32,num_4,1.13340280543,,,2017_Jul_03_1140,60.0017320166,MAFE4ImagesEEG,001,200844,
AFNE01.JPG,AFNE01.JPG,AFNE01.JPG,AFNE01.JPG,AFNE01.JPG,AFNE01.JPG,,,,,,,,,5,5,55,9,,,,,,,,,,,,,,,AMSA02.jpg,AMSA09.jpg,AMNE09.jpg,AMNE18.jpg,AMSA02.jpg,MS,2,num_8,16,num_8,2.24999182113,,,2017_Jul_03_1140,60.0017320166,MAFE4ImagesEEG,001,200844,
AFNE01.JPG,AFNE01.JPG,AFNE01.JPG,AFNE01.JPG,AFNE01.JPG,AFNE01.JPG,,,,,,,,,5,6,56,1,,,,,,,,,,,,,,,AMSA11.jpg,AMNE19.jpg,AMNE20.jpg,AMSA19.jpg,AMSA11.jpg,MS,2,num_8,48,None,,,,2017_Jul_03_1140,60.0017320166,MAFE4ImagesEEG,001,200844,
AFNE01.JPG,AFNE01.JPG,AFNE01.JPG,AFNE01.JPG,AFNE01.JPG,AFNE01.JPG,,,,,,,,,5,7,57,5,,,,,,,,,,,,,,,AMSA15.jpg,AMNE05.jpg,AMSA20.jpg,AMNE15.jpg,AMNE05.jpg,MN,1,num_6,32,num_8,2.61658965715,,,2017_Jul_03_1140,60.0017320166,MAFE4ImagesEEG,001,200844,
AFNE01.JPG,AFNE01.JPG,AFNE01.JPG,AFNE01.JPG,AFNE01.JPG,AFNE01.JPG,,,,,,,,,5,8,58,2,,,,,,,,,,,,,,,AMSA07.jpg,AMSA06.jpg,AMNE12.jpg,AMNE17.jpg,AMNE12.jpg,MN,1,num_2,16,num_2,1.51670537982,,,2017_Jul_03_1140,60.0017320166,MAFE4ImagesEEG,001,200844,
AFNE01.JPG,AFNE01.JPG,AFNE01.JPG,AFNE01.JPG,AFNE01.JPG,AFNE01.JPG,,,,,,,,,5,9,59,8,,,,,,,,,,,,,,,AMNE05.jpg,AMSA13.jpg,AMSA09.jpg,AMNE13.jpg,AMSA13.jpg,MS,2,num_6,16,num_6,1.18343715661,,,2017_Jul_03_1140,60.0017320166,MAFE4ImagesEEG,001,200844,
,,,,,,,,,,,,,,,,,,,,,,,,,,,,,,,,,,,,,,,,,,,space,51.8627040623,2017_Jul_03_1140,60.0017320166,MAFE4ImagesEEG,001,200844,
AFNE01.JPG,AFNE01.JPG,AFNE01.JPG,AFNE01.JPG,AFNE01.JPG,AFNE01.JPG,,,,,,,,,,,,,0,0,0,9,,,,,,,,,,,AFSA07.jpg,AFSA19.jpg,AFNE10.jpg,AFNE13.jpg,AFNE10.jpg,FN,3,num_2,32,num_8,1.85000760143,,,2017_Jul_03_1140,60.0017320166,MAFE4ImagesEEG,001,200844,
AFNE01.JPG,AFNE01.JPG,AFNE01.JPG,AFNE01.JPG,AFNE01.JPG,AFNE01.JPG,,,,,,,,,,,,,0,1,1,2,,,,,,,,,,,AFSA12.jpg,AFNE13.jpg,AFNE06.jpg,AFSA20.jpg,AFNE13.jpg,FN,3,num_6,32,num_4,1.91668254335,,,2017_Jul_03_1140,60.0017320166,MAFE4ImagesEEG,001,200844,
AFNE01.JPG,AFNE01.JPG,AFNE01.JPG,AFNE01.JPG,AFNE01.JPG,AFNE01.JPG,,,,,,,,,,,,,0,2,2,7,,,,,,,,,,,AFNE11.jpg,AFNE07.jpg,AFSA04.jpg,AFSA08.jpg,AFNE07.jpg,FN,3,num_6,16,num_6,0.783487897599,,,2017_Jul_03_1140,60.0017320166,MAFE4ImagesEEG,001,200844,
AFNE01.JPG,AFNE01.JPG,AFNE01.JPG,AFNE01.JPG,AFNE01.JPG,AFNE01.JPG,,,,,,,,,,,,,0,3,3,6,,,,,,,,,,,AFSA11.jpg,AFSA17.jpg,AFNE08.jpg,AFNE20.jpg,AFNE20.jpg,FN,3,num_4,16,num_4,0.71680622024,,,2017_Jul_03_1140,60.0017320166,MAFE4ImagesEEG,001,200844,
AFNE01.JPG,AFNE01.JPG,AFNE01.JPG,AFNE01.JPG,AFNE01.JPG,AFNE01.JPG,,,,,,,,,,,,,0,4,4,3,,,,,,,,,,,AFNE15.jpg,AFSA16.jpg,AFNE07.jpg,AFSA05.jpg,AFSA05.jpg,FS,4,num_4,16,num_4,1.36671683029,,,2017_Jul_03_1140,60.0017320166,MAFE4ImagesEEG,001,200844,
AFNE01.JPG,AFNE01.JPG,AFNE01.JPG,AFNE01.JPG,AFNE01.JPG,AFNE01.JPG,,,,,,,,,,,,,0,5,5,8,,,,,,,,,,,AFNE02.jpg,AFSA16.jpg,AFNE04.jpg,AFSA06.jpg,AFSA16.jpg,FS,4,num_6,16,num_6,1.41672872973,,,2017_Jul_03_1140,60.0017320166,MAFE4ImagesEEG,001,200844,
AFNE01.JPG,AFNE01.JPG,AFNE01.JPG,AFNE01.JPG,AFNE01.JPG,AFNE01.JPG,,,,,,,,,,,,,0,6,6,0,,,,,,,,,,,AFNE05.jpg,AFSA04.jpg,AFSA15.jpg,AFNE15.jpg,AFSA04.jpg,FS,4,num_6,48,None,,,,2017_Jul_03_1140,60.0017320166,MAFE4ImagesEEG,001,200844,
AFNE01.JPG,AFNE01.JPG,AFNE01.JPG,AFNE01.JPG,AFNE01.JPG,AFNE01.JPG,,,,,,,,,,,,,0,7,7,4,,,,,,,,,,,AFSA10.jpg,AFNE02.jpg,AFNE13.jpg,AFSA13.jpg,AFNE02.jpg,FN,3,num_6,16,num_6,1.55018349481,,,2017_Jul_03_1140,60.0017320166,MAFE4ImagesEEG,001,200844,
AFNE01.JPG,AFNE01.JPG,AFNE01.JPG,AFNE01.JPG,AFNE01.JPG,AFNE01.JPG,,,,,,,,,,,,,0,8,8,5,,,,,,,,,,,AFSA19.jpg,AFNE10.jpg,AFNE05.jpg,AFSA05.jpg,AFSA19.jpg,FS,4,num_8,32,num_4,2.00003816793,,,2017_Jul_03_1140,60.0017320166,MAFE4ImagesEEG,001,200844,
AFNE01.JPG,AFNE01.JPG,AFNE01.JPG,AFNE01.JPG,AFNE01.JPG,AFNE01.JPG,,,,,,,,,,,,,0,9,9,1,,,,,,,,,,,AFSA03.jpg,AFNE19.jpg,AFNE05.jpg,AFSA16.jpg,AFSA03.jpg,FS,4,num_8,32,num_4,4.89984309429,,,2017_Jul_03_1140,60.0017320166,MAFE4ImagesEEG,001,200844,
AFNE01.JPG,AFNE01.JPG,AFNE01.JPG,AFNE01.JPG,AFNE01.JPG,AFNE01.JPG,,,,,,,,,,,,,1,0,10,6,,,,,,,,,,,AFSA17.jpg,AFSA13.jpg,AFNE12.jpg,AFNE11.jpg,AFNE11.jpg,FN,3,num_4,16,num_4,0.71683797345,,,2017_Jul_03_1140,60.0017320166,MAFE4ImagesEEG,001,200844,
AFNE01.JPG,AFNE01.JPG,AFNE01.JPG,AFNE01.JPG,AFNE01.JPG,AFNE01.JPG,,,,,,,,,,,,,1,1,11,4,,,,,,,,,,,AFSA10.jpg,AFNE01.jpg,AFSA12.jpg,AFNE02.jpg,AFNE02.jpg,FN,3,num_4,48,None,,,,2017_Jul_03_1140,60.0017320166,MAFE4ImagesEEG,001,200844,
AFNE01.JPG,AFNE01.JPG,AFNE01.JPG,AFNE01.JPG,AFNE01.JPG,AFNE01.JPG,,,,,,,,,,,,,1,2,12,7,,,,,,,,,,,AFNE03.jpg,AFSA16.jpg,AFNE14.jpg,AFSA20.jpg,AFSA20.jpg,FS,4,num_4,32,num_6,0.950210372801,,,2017_Jul_03_1140,60.0017320166,MAFE4ImagesEEG,001,200844,
AFNE01.JPG,AFNE01.JPG,AFNE01.JPG,AFNE01.JPG,AFNE01.JPG,AFNE01.JPG,,,,,,,,,,,,,1,3,13,1,,,,,,,,,,,AFSA09.jpg,AFNE08.jpg,AFNE19.jpg,AFSA05.jpg,AFNE19.jpg,FN,3,num_2,48,None,,,,2017_Jul_03_1140,60.0017320166,MAFE4ImagesEEG,001,200844,
AFNE01.JPG,AFNE01.JPG,AFNE01.JPG,AFNE01.JPG,AFNE01.JPG,AFNE01.JPG,,,,,,,,,,,,,1,4,14,5,,,,,,,,,,,AFSA05.jpg,AFSA15.jpg,AFNE17.jpg,AFNE13.jpg,AFNE13.jpg,FN,3,num_4,48,None,,,,2017_Jul_03_1140,60.0017320166,MAFE4ImagesEEG,001,200844,
AFNE01.JPG,AFNE01.JPG,AFNE01.JPG,AFNE01.JPG,AFNE01.JPG,AFNE01.JPG,,,,,,,,,,,,,1,5,15,0,,,,,,,,,,,AFNE01.jpg,AFSA16.jpg,AFSA15.jpg,AFNE08.jpg,AFNE01.jpg,FN,3,num_8,16,num_8,1.38341162587,,,2017_Jul_03_1140,60.0017320166,MAFE4ImagesEEG,001,200844,
AFNE01.JPG,AFNE01.JPG,AFNE01.JPG,AFNE01.JPG,AFNE01.JPG,AFNE01.JPG,,,,,,,,,,,,,1,6,16,2,,,,,,,,,,,AFSA14.jpg,AFSA06.jpg,AFNE11.jpg,AFNE14.jpg,AFSA06.jpg,FS,4,num_6,32,num_4,1.83338978339,,,2017_Jul_03_1140,60.0017320166,MAFE4ImagesEEG,001,200844,
AFNE01.JPG,AFNE01.JPG,AFNE01.JPG,AFNE01.JPG,AFNE01.JPG,AFNE01.JPG,,,,,,,,,,,,,1,7,17,9,,,,,,,,,,,AFSA10.jpg,AFNE05.jpg,AFSA04.jpg,AFNE13.jpg,AFNE05.jpg,FN,3,num_6,16,num_6,1.06681093515,,,2017_Jul_03_1140,60.0017320166,MAFE4ImagesEEG,001,200844,
AFNE01.JPG,AFNE01.JPG,AFNE01.JPG,AFNE01.JPG,AFNE01.JPG,AFNE01.JPG,,,,,,,,,,,,,1,8,18,3,,,,,,,,,,,AFNE07.jpg,AFNE10.jpg,AFSA19.jpg,AFSA01.jpg,AFSA19.jpg,FS,4,num_2,32,num_4,0.733458678122,,,2017_Jul_03_1140,60.0017320166,MAFE4ImagesEEG,001,200844,
AFNE01.JPG,AFNE01.JPG,AFNE01.JPG,AFNE01.JPG,AFNE01.JPG,AFNE01.JPG,,,,,,,,,,,,,1,9,19,8,,,,,,,,,,,AFNE09.jpg,AFSA13.jpg,AFNE08.jpg,AFSA10.jpg,AFNE08.jpg,FN,3,num_2,32,num_8,1.18343362841,,,2017_Jul_03_1140,60.0017320166,MAFE4ImagesEEG,001,200844,
AFNE01.JPG,AFNE01.JPG,AFNE01.JPG,AFNE01.JPG,AFNE01.JPG,AFNE01.JPG,,,,,,,,,,,,,2,0,20,5,,,,,,,,,,,AFSA04.jpg,AFSA01.jpg,AFNE16.jpg,AFNE04.jpg,AFNE04.jpg,FN,3,num_4,32,num_2,1.38343792642,,,2017_Jul_03_1140,60.0017320166,MAFE4ImagesEEG,001,200844,
AFNE01.JPG,AFNE01.JPG,AFNE01.JPG,AFNE01.JPG,AFNE01.JPG,AFNE01.JPG,,,,,,,,,,,,,2,1,21,2,,,,,,,,,,,AFSA19.jpg,AFNE04.jpg,AFNE09.jpg,AFSA12.jpg,AFSA12.jpg,FS,4,num_4,16,num_4,1.16660123586,,,2017_Jul_03_1140,60.0017320166,MAFE4ImagesEEG,001,200844,
AFNE01.JPG,AFNE01.JPG,AFNE01.JPG,AFNE01.JPG,AFNE01.JPG,AFNE01.JPG,,,,,,,,,,,,,2,2,22,4,,,,,,,,,,,AFNE14.jpg,AFSA14.jpg,AFSA16.jpg,AFNE09.jpg,AFNE14.jpg,FN,3,num_8,16,num_8,0.933461693232,,,2017_Jul_03_1140,60.0017320166,MAFE4ImagesEEG,001,200844,
AFNE01.JPG,AFNE01.JPG,AFNE01.JPG,AFNE01.JPG,AFNE01.JPG,AFNE01.JPG,,,,,,,,,,,,,2,3,23,1,,,,,,,,,,,AFSA16.jpg,AFNE07.jpg,AFNE10.jpg,AFSA12.jpg,AFSA12.jpg,FS,4,num_4,16,num_4,1.18346634379,,,2017_Jul_03_1140,60.0017320166,MAFE4ImagesEEG,001,200844,
AFNE01.JPG,AFNE01.JPG,AFNE01.JPG,AFNE01.JPG,AFNE01.JPG,AFNE01.JPG,,,,,,,,,,,,,2,4,24,3,,,,,,,,,,,AFSA05.jpg,AFSA10.jpg,AFNE13.jpg,AFNE04.jpg,AFNE04.jpg,FN,3,num_4,32,num_6,1.61668972787,,,2017_Jul_03_1140,60.0017320166,MAFE4ImagesEEG,001,200844,
AFNE01.JPG,AFNE01.JPG,AFNE01.JPG,AFNE01.JPG,AFNE01.JPG,AFNE01.JPG,,,,,,,,,,,,,2,5,25,0,,,,,,,,,,,AFSA16.jpg,AFNE20.jpg,AFSA04.jpg,AFNE06.jpg,AFSA04.jpg,FS,4,num_2,32,num_4,1.66668911849,,,2017_Jul_03_1140,60.0017320166,MAFE4ImagesEEG,001,200844,
AFNE01.JPG,AFNE01.JPG,AFNE01.JPG,AFNE01.JPG,AFNE01.JPG,AFNE01.JPG,,,,,,,,,,,,,2,6,26,8,,,,,,,,,,,AFSA06.jpg,AFSA11.jpg,AFNE01.jpg,AFNE08.jpg,AFNE08.jpg,FN,3,num_4,16,num_4,2.00001603691,,,2017_Jul_03_1140,60.0017320166,MAFE4ImagesEEG,001,200844,
AFNE01.JPG,AFNE01.JPG,AFNE01.JPG,AFNE01.JPG,AFNE01.JPG,AFNE01.JPG,,,,,,,,,,,,,2,7,27,6,,,,,,,,,,,AFNE15.jpg,AFNE17.jpg,AFSA20.jpg,AFSA09.jpg,AFNE17.jpg,FN,3,num_6,32,num_2,1.15008829953,,,2017_Jul_03_1140,60.0017320166,MAFE4ImagesEEG,001,200844,
AFNE01.JPG,AFNE01.JPG,AFNE01.JPG,AFNE01.JPG,AFNE01.JPG,AFNE01.JPG,,,,,,,,,,,,,2,8,28,9,,,,,,,,,,,AFSA14.jpg,AFNE03.jpg,AFNE11.jpg,AFSA10.jpg,AFSA14.jpg,FS,4,num_8,16,num_8,2.25003063062,,,2017_Jul_03_1140,60.0017320166,MAFE4ImagesEEG,001,200844,
AFNE01.JPG,AFNE01.JPG,AFNE01.JPG,AFNE01.JPG,AFNE01.JPG,AFNE01.JPG,,,,,,,,,,,,,2,9,29,7,,,,,,,,,,,AFSA13.jpg,AFSA12.jpg,AFNE17.jpg,AFNE04.jpg,AFSA13.jpg,FS,4,num_8,32,num_2,1.06674261764,,,2017_Jul_03_1140,60.0017320166,MAFE4ImagesEEG,001,200844,
AFNE01.JPG,AFNE01.JPG,AFNE01.JPG,AFNE01.JPG,AFNE01.JPG,AFNE01.JPG,,,,,,,,,,,,,3,0,30,6,,,,,,,,,,,AFSA16.jpg,AFNE14.jpg,AFSA11.jpg,AFNE04.jpg,AFNE14.jpg,FN,3,num_6,32,num_8,2.18328384322,,,2017_Jul_03_1140,60.0017320166,MAFE4ImagesEEG,001,200844,
AFNE01.JPG,AFNE01.JPG,AFNE01.JPG,AFNE01.JPG,AFNE01.JPG,AFNE01.JPG,,,,,,,,,,,,,3,1,31,9,,,,,,,,,,,AFSA09.jpg,AFNE05.jpg,AFNE12.jpg,AFSA08.jpg,AFNE05.jpg,FN,3,num_6,16,num_6,1.1834554387,,,2017_Jul_03_1140,60.0017320166,MAFE4ImagesEEG,001,200844,
AFNE01.JPG,AFNE01.JPG,AFNE01.JPG,AFNE01.JPG,AFNE01.JPG,AFNE01.JPG,,,,,,,,,,,,,3,2,32,5,,,,,,,,,,,AFNE05.jpg,AFNE15.jpg,AFSA09.jpg,AFSA19.jpg,AFNE05.jpg,FN,3,num_8,32,num_4,0.750185547629,,,2017_Jul_03_1140,60.0017320166,MAFE4ImagesEEG,001,200844,
AFNE01.JPG,AFNE01.JPG,AFNE01.JPG,AFNE01.JPG,AFNE01.JPG,AFNE01.JPG,,,,,,,,,,,,,3,3,33,0,,,,,,,,,,,AFNE11.jpg,AFSA03.jpg,AFSA12.jpg,AFNE19.jpg,AFSA03.jpg,FS,4,num_6,16,num_6,2.10008922964,,,2017_Jul_03_1140,60.0017320166,MAFE4ImagesEEG,001,200844,
AFNE01.JPG,AFNE01.JPG,AFNE01.JPG,AFNE01.JPG,AFNE01.JPG,AFNE01.JPG,,,,,,,,,,,,,3,4,34,1,,,,,,,,,,,AFSA10.jpg,AFSA01.jpg,AFNE06.jpg,AFNE07.jpg,AFNE07.jpg,FN,3,num_4,32,num_8,1.78344459774,,,2017_Jul_03_1140,60.0017320166,MAFE4ImagesEEG,001,200844,
AFNE01.JPG,AFNE01.JPG,AFNE01.JPG,AFNE01.JPG,AFNE01.JPG,AFNE01.JPG,,,,,,,,,,,,,3,5,35,2,,,,,,,,,,,AFSA13.jpg,AFSA15.jpg,AFNE14.jpg,AFNE01.jpg,AFSA13.jpg,FS,4,num_8,16,num_8,0.850158990361,,,2017_Jul_03_1140,60.0017320166,MAFE4ImagesEEG,001,200844,
AFNE01.JPG,AFNE01.JPG,AFNE01.JPG,AFNE01.JPG,AFNE01.JPG,AFNE01.JPG,,,,,,,,,,,,,3,6,36,4,,,,,,,,,,,AFNE19.jpg,AFSA08.jpg,AFSA12.jpg,AFNE01.jpg,AFSA12.jpg,FS,4,num_2,16,num_2,1.41654526687,,,2017_Jul_03_1140,60.0017320166,MAFE4ImagesEEG,001,200844,
AFNE01.JPG,AFNE01.JPG,AFNE01.JPG,AFNE01.JPG,AFNE01.JPG,AFNE01.JPG,,,,,,,,,,,,,3,7,37,8,,,,,,,,,,,AFSA04.jpg,AFSA11.jpg,AFNE11.jpg,AFNE14.jpg,AFNE14.jpg,FN,3,num_4,32,num_8,2.26672350173,,,2017_Jul_03_1140,60.0017320166,MAFE4ImagesEEG,001,200844,
AFNE01.JPG,AFNE01.JPG,AFNE01.JPG,AFNE01.JPG,AFNE01.JPG,AFNE01.JPG,,,,,,,,,,,,,3,8,38,3,,,,,,,,,,,AFNE19.jpg,AFNE14.jpg,AFSA11.jpg,AFSA15.jpg,AFSA15.jpg,FS,4,num_4,16,num_4,1.98343478318,,,2017_Jul_03_1140,60.0017320166,MAFE4ImagesEEG,001,200844,
AFNE01.JPG,AFNE01.JPG,AFNE01.JPG,AFNE01.JPG,AFNE01.JPG,AFNE01.JPG,,,,,,,,,,,,,3,9,39,7,,,,,,,,,,,AFSA19.jpg,AFSA20.jpg,AFNE14.jpg,AFNE10.jpg,AFNE10.jpg,FN,3,num_4,32,num_2,1.26663722284,,,2017_Jul_03_1140,60.0017320166,MAFE4ImagesEEG,001,200844,
AFNE01.JPG,AFNE01.JPG,AFNE01.JPG,AFNE01.JPG,AFNE01.JPG,AFNE01.JPG,,,,,,,,,,,,,4,0,40,1,,,,,,,,,,,AFSA07.jpg,AFNE06.jpg,AFSA13.jpg,AFNE14.jpg,AFNE14.jpg,FN,3,num_4,16,num_4,1.05014115723,,,2017_Jul_03_1140,60.0017320166,MAFE4ImagesEEG,001,200844,
AFNE01.JPG,AFNE01.JPG,AFNE01.JPG,AFNE01.JPG,AFNE01.JPG,AFNE01.JPG,,,,,,,,,,,,,4,1,41,9,,,,,,,,,,,AFNE19.jpg,AFNE05.jpg,AFSA06.jpg,AFSA18.jpg,AFSA06.jpg,FS,4,num_2,16,num_2,1.58338256681,,,2017_Jul_03_1140,60.0017320166,MAFE4ImagesEEG,001,200844,
AFNE01.JPG,AFNE01.JPG,AFNE01.JPG,AFNE01.JPG,AFNE01.JPG,AFNE01.JPG,,,,,,,,,,,,,4,2,42,2,,,,,,,,,,,AFNE02.jpg,AFNE11.jpg,AFSA20.jpg,AFSA13.jpg,AFNE02.jpg,FN,3,num_8,32,num_4,1.20009795367,,,2017_Jul_03_1140,60.0017320166,MAFE4ImagesEEG,001,200844,
AFNE01.JPG,AFNE01.JPG,AFNE01.JPG,AFNE01.JPG,AFNE01.JPG,AFNE01.JPG,,,,,,,,,,,,,4,3,43,7,,,,,,,,,,,AFSA07.jpg,AFSA20.jpg,AFNE05.jpg,AFNE11.jpg,AFSA20.jpg,FS,4,num_6,16,num_6,2.66662336676,,,2017_Jul_03_1140,60.0017320166,MAFE4ImagesEEG,001,200844,
AFNE01.JPG,AFNE01.JPG,AFNE01.JPG,AFNE01.JPG,AFNE01.JPG,AFNE01.JPG,,,,,,,,,,,,,4,4,44,8,,,,,,,,,,,AFSA05.jpg,AFNE16.jpg,AFSA18.jpg,AFNE20.jpg,AFNE16.jpg,FN,3,num_6,32,num_8,1.56670701574,,,2017_Jul_03_1140,60.0017320166,MAFE4ImagesEEG,001,200844,
AFNE01.JPG,AFNE01.JPG,AFNE01.JPG,AFNE01.JPG,AFNE01.JPG,AFNE01.JPG,,,,,,,,,,,,,4,5,45,5,,,,,,,,,,,AFNE04.jpg,AFNE19.jpg,AFSA12.jpg,AFSA13.jpg,AFNE19.jpg,FN,3,num_6,32,num_2,2.16668911837,,,2017_Jul_03_1140,60.0017320166,MAFE4ImagesEEG,001,200844,
AFNE01.JPG,AFNE01.JPG,AFNE01.JPG,AFNE01.JPG,AFNE01.JPG,AFNE01.JPG,,,,,,,,,,,,,4,6,46,4,,,,,,,,,,,AFSA14.jpg,AFNE08.jpg,AFNE15.jpg,AFSA01.jpg,AFNE08.jpg,FN,3,num_6,32,num_2,1.23316103232,,,2017_Jul_03_1140,60.0017320166,MAFE4ImagesEEG,001,200844,
AFNE01.JPG,AFNE01.JPG,AFNE01.JPG,AFNE01.JPG,AFNE01.JPG,AFNE01.JPG,,,,,,,,,,,,,4,7,47,6,,,,,,,,,,,AFSA13.jpg,AFNE10.jpg,AFNE16.jpg,AFSA12.jpg,AFSA12.jpg,FS,4,num_4,32,num_6,1.68340508267,,,2017_Jul_03_1140,60.0017320166,MAFE4ImagesEEG,001,200844,
AFNE01.JPG,AFNE01.JPG,AFNE01.JPG,AFNE01.JPG,AFNE01.JPG,AFNE01.JPG,,,,,,,,,,,,,4,8,48,0,,,,,,,,,,,AFSA20.jpg,AFNE16.jpg,AFNE03.jpg,AFSA08.jpg,AFNE03.jpg,FN,3,num_2,16,num_2,1.98334561766,,,2017_Jul_03_1140,60.0017320166,MAFE4ImagesEEG,001,200844,
AFNE01.JPG,AFNE01.JPG,AFNE01.JPG,AFNE01.JPG,AFNE01.JPG,AFNE01.JPG,,,,,,,,,,,,,4,9,49,3,,,,,,,,,,,AFSA20.jpg,AFNE03.jpg,AFNE15.jpg,AFSA01.jpg,AFSA01.jpg,FS,4,num_4,32,num_6,1.76668212633,,,2017_Jul_03_1140,60.0017320166,MAFE4ImagesEEG,001,200844,
AFNE01.JPG,AFNE01.JPG,AFNE01.JPG,AFNE01.JPG,AFNE01.JPG,AFNE01.JPG,,,,,,,,,,,,,5,0,50,9,,,,,,,,,,,AFNE16.jpg,AFSA19.jpg,AFNE13.jpg,AFSA07.jpg,AFNE16.jpg,FN,3,num_8,16,num_8,1.30013875186,,,2017_Jul_03_1140,60.0017320166,MAFE4ImagesEEG,001,200844,
AFNE01.JPG,AFNE01.JPG,AFNE01.JPG,AFNE01.JPG,AFNE01.JPG,AFNE01.JPG,,,,,,,,,,,,,5,1,51,8,,,,,,,,,,,AFSA11.jpg,AFNE20.jpg,AFNE13.jpg,AFSA05.jpg,AFNE20.jpg,FN,3,num_6,32,num_4,1.65003505675,,,2017_Jul_03_1140,60.0017320166,MAFE4ImagesEEG,001,200844,
AFNE01.JPG,AFNE01.JPG,AFNE01.JPG,AFNE01.JPG,AFNE01.JPG,AFNE01.JPG,,,,,,,,,,,,,5,2,52,0,,,,,,,,,,,AFSA03.jpg,AFNE04.jpg,AFSA12.jpg,AFNE10.jpg,AFNE10.jpg,FN,3,num_4,16,num_4,1.71671480965,,,2017_Jul_03_1140,60.0017320166,MAFE4ImagesEEG,001,200844,
AFNE01.JPG,AFNE01.JPG,AFNE01.JPG,AFNE01.JPG,AFNE01.JPG,AFNE01.JPG,,,,,,,,,,,,,5,3,53,3,,,,,,,,,,,AFSA14.jpg,AFSA03.jpg,AFNE10.jpg,AFNE05.jpg,AFSA14.jpg,FS,4,num_8,32,num_4,1.18350066291,,,2017_Jul_03_1140,60.0017320166,MAFE4ImagesEEG,001,200844,
AFNE01.JPG,AFNE01.JPG,AFNE01.JPG,AFNE01.JPG,AFNE01.JPG,AFNE01.JPG,,,,,,,,,,,,,5,4,54,7,,,,,,,,,,,AFNE18.jpg,AFNE06.jpg,AFSA06.jpg,AFSA13.jpg,AFSA13.jpg,FS,4,num_4,32,num_6,1.73341569921,,,2017_Jul_03_1140,60.0017320166,MAFE4ImagesEEG,001,200844,
AFNE01.JPG,AFNE01.JPG,AFNE01.JPG,AFNE01.JPG,AFNE01.JPG,AFNE01.JPG,,,,,,,,,,,,,5,5,55,6,,,,,,,,,,,AFSA15.jpg,AFNE19.jpg,AFSA06.jpg,AFNE04.jpg,AFNE19.jpg,FN,3,num_6,32,num_2,1.45006988908,,,2017_Jul_03_1140,60.0017320166,MAFE4ImagesEEG,001,200844,
AFNE01.JPG,AFNE01.JPG,AFNE01.JPG,AFNE01.JPG,AFNE01.JPG,AFNE01.JPG,,,,,,,,,,,,,5,6,56,1,,,,,,,,,,,AFSA01.jpg,AFNE03.jpg,AFNE20.jpg,AFSA03.jpg,AFSA03.jpg,FS,4,num_4,32,num_6,2.61671185878,,,2017_Jul_03_1140,60.0017320166,MAFE4ImagesEEG,001,200844,
AFNE01.JPG,AFNE01.JPG,AFNE01.JPG,AFNE01.JPG,AFNE01.JPG,AFNE01.JPG,,,,,,,,,,,,,5,7,57,5,,,,,,,,,,,AFNE20.jpg,AFSA14.jpg,AFSA07.jpg,AFNE02.jpg,AFNE20.jpg,FN,3,num_8,32,num_2,1.40014940023,,,2017_Jul_03_1140,60.0017320166,MAFE4ImagesEEG,001,200844,
AFNE01.JPG,AFNE01.JPG,AFNE01.JPG,AFNE01.JPG,AFNE01.JPG,AFNE01.JPG,,,,,,,,,,,,,5,8,58,4,,,,,,,,,,,AFSA08.jpg,AFNE05.jpg,AFSA10.jpg,AFNE10.jpg,AFSA08.jpg,FS,4,num_8,16,num_8,1.83322171611,,,2017_Jul_03_1140,60.0017320166,MAFE4ImagesEEG,001,200844,
AFNE01.JPG,AFNE01.JPG,AFNE01.JPG,AFNE01.JPG,AFNE01.JPG,AFNE01.JPG,,,,,,,,,,,,,5,9,59,2,,,,,,,,,,,AFNE06.jpg,AFNE04.jpg,AFSA12.jpg,AFSA14.jpg,AFNE06.jpg,FN,3,num_8,16,num_8,2.59995676437,,,2017_Jul_03_1140,60.0017320166,MAFE4ImagesEEG,001,200844,
,,,,,,,,,,,,,,,,,,,,,,,,,,,,,,,,,,,,,,,,,,,space,48.5463346245,2017_Jul_03_1140,60.0017320166,MAFE4ImagesEEG,001,200844,
AFNE01.JPG,AFNE01.JPG,AFNE01.JPG,AFNE01.JPG,AFNE01.JPG,AFNE01.JPG,,,,,,,,,,,,,,,,,0,0,0,9,,,,,,,AMSA01.jpg,AMNE08.jpg,AMSA14.jpg,AMNE20.jpg,AMNE20.jpg,MN,1,num_4,32,num_8,1.30010539491,,,2017_Jul_03_1140,60.0017320166,MAFE4ImagesEEG,001,200844,
AFNE01.JPG,AFNE01.JPG,AFNE01.JPG,AFNE01.JPG,AFNE01.JPG,AFNE01.JPG,,,,,,,,,,,,,,,,,0,1,1,2,,,,,,,AMSA05.jpg,AMNE18.jpg,AMNE08.jpg,AMSA12.jpg,AMSA05.jpg,MS,2,num_8,16,num_8,0.61678915692,,,2017_Jul_03_1140,60.0017320166,MAFE4ImagesEEG,001,200844,
AFNE01.JPG,AFNE01.JPG,AFNE01.JPG,AFNE01.JPG,AFNE01.JPG,AFNE01.JPG,,,,,,,,,,,,,,,,,0,2,2,1,,,,,,,AMSA11.jpg,AMNE18.jpg,AMNE07.jpg,AMSA01.jpg,AMNE07.jpg,MN,1,num_2,16,num_2,1.30009577272,,,2017_Jul_03_1140,60.0017320166,MAFE4ImagesEEG,001,200844,
AFNE01.JPG,AFNE01.JPG,AFNE01.JPG,AFNE01.JPG,AFNE01.JPG,AFNE01.JPG,,,,,,,,,,,,,,,,,0,3,3,6,,,,,,,AMNE07.jpg,AMNE19.jpg,AMSA02.jpg,AMSA09.jpg,AMSA09.jpg,MS,2,num_4,32,num_6,0.933491521981,,,2017_Jul_03_1140,60.0017320166,MAFE4ImagesEEG,001,200844,
AFNE01.JPG,AFNE01.JPG,AFNE01.JPG,AFNE01.JPG,AFNE01.JPG,AFNE01.JPG,,,,,,,,,,,,,,,,,0,4,4,0,,,,,,,AMSA16.jpg,AMNE17.jpg,AMSA04.jpg,AMNE14.jpg,AMNE17.jpg,MN,1,num_6,16,num_6,2.19999435497,,,2017_Jul_03_1140,60.0017320166,MAFE4ImagesEEG,001,200844,
AFNE01.JPG,AFNE01.JPG,AFNE01.JPG,AFNE01.JPG,AFNE01.JPG,AFNE01.JPG,,,,,,,,,,,,,,,,,0,5,5,8,,,,,,,AMSA09.jpg,AMNE18.jpg,AMNE13.jpg,AMSA06.jpg,AMSA09.jpg,MS,2,num_8,32,num_4,2.79997389182,,,2017_Jul_03_1140,60.0017320166,MAFE4ImagesEEG,001,200844,
AFNE01.JPG,AFNE01.JPG,AFNE01.JPG,AFNE01.JPG,AFNE01.JPG,AFNE01.JPG,,,,,,,,,,,,,,,,,0,6,6,3,,,,,,,AMSA05.jpg,AMSA11.jpg,AMNE13.jpg,AMNE20.jpg,AMSA11.jpg,MS,2,num_6,16,num_6,3.53324782429,,,2017_Jul_03_1140,60.0017320166,MAFE4ImagesEEG,001,200844,
AFNE01.JPG,AFNE01.JPG,AFNE01.JPG,AFNE01.JPG,AFNE01.JPG,AFNE01.JPG,,,,,,,,,,,,,,,,,0,7,7,5,,,,,,,AMSA01.jpg,AMNE12.jpg,AMNE01.jpg,AMSA16.jpg,AMSA16.jpg,MS,2,num_4,32,num_8,2.06667237577,,,2017_Jul_03_1140,60.0017320166,MAFE4ImagesEEG,001,200844,
AFNE01.JPG,AFNE01.JPG,AFNE01.JPG,AFNE01.JPG,AFNE01.JPG,AFNE01.JPG,,,,,,,,,,,,,,,,,0,8,8,7,,,,,,,AMSA14.jpg,AMNE15.jpg,AMSA08.jpg,AMNE02.jpg,AMSA08.jpg,MS,2,num_2,32,num_6,0.666775076534,,,2017_Jul_03_1140,60.0017320166,MAFE4ImagesEEG,001,200844,
AFNE01.JPG,AFNE01.JPG,AFNE01.JPG,AFNE01.JPG,AFNE01.JPG,AFNE01.JPG,,,,,,,,,,,,,,,,,0,9,9,4,,,,,,,AMSA01.jpg,AMNE08.jpg,AMNE01.jpg,AMSA08.jpg,AMSA08.jpg,MS,2,num_4,16,num_4,2.11665252212,,,2017_Jul_03_1140,60.0017320166,MAFE4ImagesEEG,001,200844,
AFNE01.JPG,AFNE01.JPG,AFNE01.JPG,AFNE01.JPG,AFNE01.JPG,AFNE01.JPG,,,,,,,,,,,,,,,,,1,0,10,0,,,,,,,AMNE17.jpg,AMSA05.jpg,AMNE11.jpg,AMSA08.jpg,AMSA08.jpg,MS,2,num_4,32,num_8,1.05019600363,,,2017_Jul_03_1140,60.0017320166,MAFE4ImagesEEG,001,200844,
AFNE01.JPG,AFNE01.JPG,AFNE01.JPG,AFNE01.JPG,AFNE01.JPG,AFNE01.JPG,,,,,,,,,,,,,,,,,1,1,11,9,,,,,,,AMNE04.jpg,AMSA19.jpg,AMNE05.jpg,AMSA07.jpg,AMNE04.jpg,MN,1,num_8,16,num_8,0.600148245692,,,2017_Jul_03_1140,60.0017320166,MAFE4ImagesEEG,001,200844,
AFNE01.JPG,AFNE01.JPG,AFNE01.JPG,AFNE01.JPG,AFNE01.JPG,AFNE01.JPG,,,,,,,,,,,,,,,,,1,2,12,7,,,,,,,AMNE14.jpg,AMNE12.jpg,AMSA13.jpg,AMSA17.jpg,AMNE12.jpg,MN,1,num_6,32,num_2,1.58340598072,,,2017_Jul_03_1140,60.0017320166,MAFE4ImagesEEG,001,200844,
AFNE01.JPG,AFNE01.JPG,AFNE01.JPG,AFNE01.JPG,AFNE01.JPG,AFNE01.JPG,,,,,,,,,,,,,,,,,1,3,13,2,,,,,,,AMSA19.jpg,AMNE09.jpg,AMSA08.jpg,AMNE02.jpg,AMNE09.jpg,MN,1,num_6,16,num_6,2.31663725479,,,2017_Jul_03_1140,60.0017320166,MAFE4ImagesEEG,001,200844,
AFNE01.JPG,AFNE01.JPG,AFNE01.JPG,AFNE01.JPG,AFNE01.JPG,AFNE01.JPG,,,,,,,,,,,,,,,,,1,4,14,6,,,,,,,AMNE18.jpg,AMSA03.jpg,AMNE14.jpg,AMSA18.jpg,AMSA18.jpg,MS,2,num_4,16,num_4,2.10001289379,,,2017_Jul_03_1140,60.0017320166,MAFE4ImagesEEG,001,200844,
AFNE01.JPG,AFNE01.JPG,AFNE01.JPG,AFNE01.JPG,AFNE01.JPG,AFNE01.JPG,,,,,,,,,,,,,,,,,1,5,15,1,,,,,,,AMSA02.jpg,AMNE11.jpg,AMNE03.jpg,AMSA06.jpg,AMSA02.jpg,MS,2,num_8,32,num_4,1.2497333053,,,2017_Jul_03_1140,60.0017320166,MAFE4ImagesEEG,001,200844,
AFNE01.JPG,AFNE01.JPG,AFNE01.JPG,AFNE01.JPG,AFNE01.JPG,AFNE01.JPG,,,,,,,,,,,,,,,,,1,6,16,4,,,,,,,AMSA06.jpg,AMNE04.jpg,AMNE01.jpg,AMSA17.jpg,AMSA17.jpg,MS,2,num_4,32,num_2,0.800175957498,,,2017_Jul_03_1140,60.0017320166,MAFE4ImagesEEG,001,200844,
AFNE01.JPG,AFNE01.JPG,AFNE01.JPG,AFNE01.JPG,AFNE01.JPG,AFNE01.JPG,,,,,,,,,,,,,,,,,1,7,17,3,,,,,,,AMSA04.jpg,AMNE06.jpg,AMSA02.jpg,AMNE07.jpg,AMNE07.jpg,MN,1,num_4,32,num_6,0.783463521278,,,2017_Jul_03_1140,60.0017320166,MAFE4ImagesEEG,001,200844,
AFNE01.JPG,AFNE01.JPG,AFNE01.JPG,AFNE01.JPG,AFNE01.JPG,AFNE01.JPG,,,,,,,,,,,,,,,,,1,8,18,5,,,,,,,AMSA15.jpg,AMNE07.jpg,AMSA13.jpg,AMNE16.jpg,AMSA15.jpg,MS,2,num_8,16,num_8,1.00007858104,,,2017_Jul_03_1140,60.0017320166,MAFE4ImagesEEG,001,200844,
AFNE01.JPG,AFNE01.JPG,AFNE01.JPG,AFNE01.JPG,AFNE01.JPG,AFNE01.JPG,,,,,,,,,,,,,,,,,1,9,19,8,,,,,,,AMNE19.jpg,AMSA01.jpg,AMNE12.jpg,AMSA20.jpg,AMSA20.jpg,MS,2,num_4,32,num_2,1.46670117823,,,2017_Jul_03_1140,60.0017320166,MAFE4ImagesEEG,001,200844,
AFNE01.JPG,AFNE01.JPG,AFNE01.JPG,AFNE01.JPG,AFNE01.JPG,AFNE01.JPG,,,,,,,,,,,,,,,,,2,0,20,1,,,,,,,AMNE06.jpg,AMSA19.jpg,AMSA10.jpg,AMNE13.jpg,AMSA19.jpg,MS,2,num_6,16,num_6,1.08345697832,,,2017_Jul_03_1140,60.0017320166,MAFE4ImagesEEG,001,200844,
AFNE01.JPG,AFNE01.JPG,AFNE01.JPG,AFNE01.JPG,AFNE01.JPG,AFNE01.JPG,,,,,,,,,,,,,,,,,2,1,21,6,,,,,,,AMNE16.jpg,AMNE09.jpg,AMSA01.jpg,AMSA05.jpg,AMSA05.jpg,MS,2,num_4,16,num_4,1.86668379407,,,2017_Jul_03_1140,60.0017320166,MAFE4ImagesEEG,001,200844,
AFNE01.JPG,AFNE01.JPG,AFNE01.JPG,AFNE01.JPG,AFNE01.JPG,AFNE01.JPG,,,,,,,,,,,,,,,,,2,2,22,9,,,,,,,AMSA01.jpg,AMNE18.jpg,AMNE05.jpg,AMSA09.jpg,AMSA09.jpg,MS,2,num_4,16,num_4,1.65011075116,,,2017_Jul_03_1140,60.0017320166,MAFE4ImagesEEG,001,200844,
AFNE01.JPG,AFNE01.JPG,AFNE01.JPG,AFNE01.JPG,AFNE01.JPG,AFNE01.JPG,,,,,,,,,,,,,,,,,2,3,23,7,,,,,,,AMNE15.jpg,AMNE20.jpg,AMSA07.jpg,AMSA01.jpg,AMNE20.jpg,MN,1,num_6,16,num_6,0.983440877171,,,2017_Jul_03_1140,60.0017320166,MAFE4ImagesEEG,001,200844,
AFNE01.JPG,AFNE01.JPG,AFNE01.JPG,AFNE01.JPG,AFNE01.JPG,AFNE01.JPG,,,,,,,,,,,,,,,,,2,4,24,3,,,,,,,AMSA09.jpg,AMNE08.jpg,AMSA06.jpg,AMNE02.jpg,AMSA06.jpg,MS,2,num_2,32,num_4,1.2167398273,,,2017_Jul_03_1140,60.0017320166,MAFE4ImagesEEG,001,200844,
AFNE01.JPG,AFNE01.JPG,AFNE01.JPG,AFNE01.JPG,AFNE01.JPG,AFNE01.JPG,,,,,,,,,,,,,,,,,2,5,25,8,,,,,,,AMNE10.jpg,AMSA04.jpg,AMNE12.jpg,AMSA16.jpg,AMNE12.jpg,MN,1,num_2,32,num_8,2.43332217156,,,2017_Jul_03_1140,60.0017320166,MAFE4ImagesEEG,001,200844,
AFNE01.JPG,AFNE01.JPG,AFNE01.JPG,AFNE01.JPG,AFNE01.JPG,AFNE01.JPG,,,,,,,,,,,,,,,,,2,6,26,0,,,,,,,AMNE02.jpg,AMSA17.jpg,AMSA13.jpg,AMNE13.jpg,AMSA17.jpg,MS,2,num_6,32,num_4,1.333448158,,,2017_Jul_03_1140,60.0017320166,MAFE4ImagesEEG,001,200844,
AFNE01.JPG,AFNE01.JPG,AFNE01.JPG,AFNE01.JPG,AFNE01.JPG,AFNE01.JPG,,,,,,,,,,,,,,,,,2,7,27,2,,,,,,,AMSA11.jpg,AMSA14.jpg,AMNE20.jpg,AMNE16.jpg,AMNE20.jpg,MN,1,num_2,16,num_2,1.98338442715,,,2017_Jul_03_1140,60.0017320166,MAFE4ImagesEEG,001,200844,
AFNE01.JPG,AFNE01.JPG,AFNE01.JPG,AFNE01.JPG,AFNE01.JPG,AFNE01.JPG,,,,,,,,,,,,,,,,,2,8,28,4,,,,,,,AMNE19.jpg,AMSA10.jpg,AMSA01.jpg,AMNE03.jpg,AMNE03.jpg,MN,1,num_4,16,num_4,2.45027869032,,,2017_Jul_03_1140,60.0017320166,MAFE4ImagesEEG,001,200844,
AFNE01.JPG,AFNE01.JPG,AFNE01.JPG,AFNE01.JPG,AFNE01.JPG,AFNE01.JPG,,,,,,,,,,,,,,,,,2,9,29,5,,,,,,,AMSA19.jpg,AMNE05.jpg,AMNE09.jpg,AMSA10.jpg,AMSA10.jpg,MS,2,num_4,16,num_4,1.26670682314,,,2017_Jul_03_1140,60.0017320166,MAFE4ImagesEEG,001,200844,
AFNE01.JPG,AFNE01.JPG,AFNE01.JPG,AFNE01.JPG,AFNE01.JPG,AFNE01.JPG,,,,,,,,,,,,,,,,,3,0,30,7,,,,,,,AMNE03.jpg,AMSA11.jpg,AMNE16.jpg,AMSA19.jpg,AMSA19.jpg,MS,2,num_4,32,num_8,2.68331206834,,,2017_Jul_03_1140,60.0017320166,MAFE4ImagesEEG,001,200844,
AFNE01.JPG,AFNE01.JPG,AFNE01.JPG,AFNE01.JPG,AFNE01.JPG,AFNE01.JPG,,,,,,,,,,,,,,,,,3,1,31,9,,,,,,,AMSA14.jpg,AMNE11.jpg,AMNE17.jpg,AMSA08.jpg,AMSA08.jpg,MS,2,num_4,16,num_4,1.1334621422,,,2017_Jul_03_1140,60.0017320166,MAFE4ImagesEEG,001,200844,
AFNE01.JPG,AFNE01.JPG,AFNE01.JPG,AFNE01.JPG,AFNE01.JPG,AFNE01.JPG,,,,,,,,,,,,,,,,,3,2,32,6,,,,,,,AMSA12.jpg,AMSA02.jpg,AMNE10.jpg,AMNE07.jpg,AMSA02.jpg,MS,2,num_6,16,num_6,1.21674271394,,,2017_Jul_03_1140,60.0017320166,MAFE4ImagesEEG,001,200844,
AFNE01.JPG,AFNE01.JPG,AFNE01.JPG,AFNE01.JPG,AFNE01.JPG,AFNE01.JPG,,,,,,,,,,,,,,,,,3,3,33,3,,,,,,,AMSA16.jpg,AMNE04.jpg,AMSA18.jpg,AMNE15.jpg,AMNE04.jpg,MN,1,num_6,16,num_6,1.51673520857,,,2017_Jul_03_1140,60.0017320166,MAFE4ImagesEEG,001,200844,
AFNE01.JPG,AFNE01.JPG,AFNE01.JPG,AFNE01.JPG,AFNE01.JPG,AFNE01.JPG,,,,,,,,,,,,,,,,,3,4,34,0,,,,,,,AMNE04.jpg,AMSA02.jpg,AMSA07.jpg,AMNE19.jpg,AMSA02.jpg,MS,2,num_6,16,num_6,1.36676622415,,,2017_Jul_03_1140,60.0017320166,MAFE4ImagesEEG,001,200844,
AFNE01.JPG,AFNE01.JPG,AFNE01.JPG,AFNE01.JPG,AFNE01.JPG,AFNE01.JPG,,,,,,,,,,,,,,,,,3,5,35,2,,,,,,,AMNE11.jpg,AMSA02.jpg,AMSA06.jpg,AMNE09.jpg,AMSA02.jpg,MS,2,num_6,16,num_6,1.03316699807,,,2017_Jul_03_1140,60.0017320166,MAFE4ImagesEEG,001,200844,
AFNE01.JPG,AFNE01.JPG,AFNE01.JPG,AFNE01.JPG,AFNE01.JPG,AFNE01.JPG,,,,,,,,,,,,,,,,,3,6,36,8,,,,,,,AMNE13.jpg,AMSA17.jpg,AMNE18.jpg,AMSA18.jpg,AMNE13.jpg,MN,1,num_8,16,num_8,1.70001135417,,,2017_Jul_03_1140,60.0017320166,MAFE4ImagesEEG,001,200844,
AFNE01.JPG,AFNE01.JPG,AFNE01.JPG,AFNE01.JPG,AFNE01.JPG,AFNE01.JPG,,,,,,,,,,,,,,,,,3,7,37,1,,,,,,,AMSA15.jpg,AMNE02.jpg,AMSA05.jpg,AMNE20.jpg,AMNE02.jpg,MN,1,num_6,16,num_6,1.25015956769,,,2017_Jul_03_1140,60.0017320166,MAFE4ImagesEEG,001,200844,
AFNE01.JPG,AFNE01.JPG,AFNE01.JPG,AFNE01.JPG,AFNE01.JPG,AFNE01.JPG,,,,,,,,,,,,,,,,,3,8,38,4,,,,,,,AMSA10.jpg,AMSA17.jpg,AMNE08.jpg,AMNE03.jpg,AMSA10.jpg,MS,2,num_8,16,num_8,2.31667381921,,,2017_Jul_03_1140,60.0017320166,MAFE4ImagesEEG,001,200844,
AFNE01.JPG,AFNE01.JPG,AFNE01.JPG,AFNE01.JPG,AFNE01.JPG,AFNE01.JPG,,,,,,,,,,,,,,,,,3,9,39,5,,,,,,,AMSA13.jpg,AMSA07.jpg,AMNE13.jpg,AMNE02.jpg,AMSA07.jpg,MS,2,num_6,16,num_6,1.80005471816,,,2017_Jul_03_1140,60.0017320166,MAFE4ImagesEEG,001,200844,
AFNE01.JPG,AFNE01.JPG,AFNE01.JPG,AFNE01.JPG,AFNE01.JPG,AFNE01.JPG,,,,,,,,,,,,,,,,,4,0,40,4,,,,,,,AMNE19.jpg,AMSA06.jpg,AMNE12.jpg,AMSA11.jpg,AMNE19.jpg,MN,1,num_8,32,num_2,3.03331229277,,,2017_Jul_03_1140,60.0017320166,MAFE4ImagesEEG,001,200844,
AFNE01.JPG,AFNE01.JPG,AFNE01.JPG,AFNE01.JPG,AFNE01.JPG,AFNE01.JPG,,,,,,,,,,,,,,,,,4,1,41,8,,,,,,,AMSA10.jpg,AMNE01.jpg,AMSA16.jpg,AMNE13.jpg,AMNE13.jpg,MN,1,num_4,16,num_4,2.63334186503,,,2017_Jul_03_1140,60.0017320166,MAFE4ImagesEEG,001,200844,
AFNE01.JPG,AFNE01.JPG,AFNE01.JPG,AFNE01.JPG,AFNE01.JPG,AFNE01.JPG,,,,,,,,,,,,,,,,,4,2,42,3,,,,,,,AMSA06.jpg,AMNE06.jpg,AMSA17.jpg,AMNE03.jpg,AMNE03.jpg,MN,1,num_4,16,num_4,1.93338054605,,,2017_Jul_03_1140,60.0017320166,MAFE4ImagesEEG,001,200844,
AFNE01.JPG,AFNE01.JPG,AFNE01.JPG,AFNE01.JPG,AFNE01.JPG,AFNE01.JPG,,,,,,,,,,,,,,,,,4,3,43,9,,,,,,,AMSA19.jpg,AMNE15.jpg,AMNE05.jpg,AMSA20.jpg,AMSA20.jpg,MS,2,num_4,16,num_4,2.4499897043,,,2017_Jul_03_1140,60.0017320166,MAFE4ImagesEEG,001,200844,
AFNE01.JPG,AFNE01.JPG,AFNE01.JPG,AFNE01.JPG,AFNE01.JPG,AFNE01.JPG,,,,,,,,,,,,,,,,,4,4,44,1,,,,,,,AMNE16.jpg,AMNE12.jpg,AMSA18.jpg,AMSA16.jpg,AMSA18.jpg,MS,2,num_2,16,num_2,3.54958724068,,,2017_Jul_03_1140,60.0017320166,MAFE4ImagesEEG,001,200844,
AFNE01.JPG,AFNE01.JPG,AFNE01.JPG,AFNE01.JPG,AFNE01.JPG,AFNE01.JPG,,,,,,,,,,,,,,,,,4,5,45,7,,,,,,,AMNE17.jpg,AMSA13.jpg,AMNE06.jpg,AMSA08.jpg,AMNE17.jpg,MN,1,num_8,16,num_8,2.41672488081,,,2017_Jul_03_1140,60.0017320166,MAFE4ImagesEEG,001,200844,
AFNE01.JPG,AFNE01.JPG,AFNE01.JPG,AFNE01.JPG,AFNE01.JPG,AFNE01.JPG,,,,,,,,,,,,,,,,,4,6,46,0,,,,,,,AMSA16.jpg,AMNE12.jpg,AMNE15.jpg,AMSA18.jpg,AMSA16.jpg,MS,2,num_8,32,num_2,1.68368540867,,,2017_Jul_03_1140,60.0017320166,MAFE4ImagesEEG,001,200844,
AFNE01.JPG,AFNE01.JPG,AFNE01.JPG,AFNE01.JPG,AFNE01.JPG,AFNE01.JPG,,,,,,,,,,,,,,,,,4,7,47,6,,,,,,,AMNE09.jpg,AMSA03.jpg,AMSA15.jpg,AMNE02.jpg,AMNE09.jpg,MN,1,num_8,32,num_6,3.59989422024,,,2017_Jul_03_1140,60.0017320166,MAFE4ImagesEEG,001,200844,
AFNE01.JPG,AFNE01.JPG,AFNE01.JPG,AFNE01.JPG,AFNE01.JPG,AFNE01.JPG,,,,,,,,,,,,,,,,,4,8,48,5,,,,,,,AMNE08.jpg,AMNE04.jpg,AMSA11.jpg,AMSA15.jpg,AMSA11.jpg,MS,2,num_2,32,num_6,1.25009221246,,,2017_Jul_03_1140,60.0017320166,MAFE4ImagesEEG,001,200844,
AFNE01.JPG,AFNE01.JPG,AFNE01.JPG,AFNE01.JPG,AFNE01.JPG,AFNE01.JPG,,,,,,,,,,,,,,,,,4,9,49,2,,,,,,,AMNE01.jpg,AMSA10.jpg,AMNE15.jpg,AMSA19.jpg,AMNE01.jpg,MN,1,num_8,16,num_8,1.43343667558,,,2017_Jul_03_1140,60.0017320166,MAFE4ImagesEEG,001,200844,
AFNE01.JPG,AFNE01.JPG,AFNE01.JPG,AFNE01.JPG,AFNE01.JPG,AFNE01.JPG,,,,,,,,,,,,,,,,,5,0,50,9,,,,,,,AMNE16.jpg,AMSA15.jpg,AMSA19.jpg,AMNE07.jpg,AMNE16.jpg,MN,1,num_8,32,num_6,1.78338141215,,,2017_Jul_03_1140,60.0017320166,MAFE4ImagesEEG,001,200844,
AFNE01.JPG,AFNE01.JPG,AFNE01.JPG,AFNE01.JPG,AFNE01.JPG,AFNE01.JPG,,,,,,,,,,,,,,,,,5,1,51,3,,,,,,,AMNE05.jpg,AMSA11.jpg,AMNE11.jpg,AMSA01.jpg,AMNE05.jpg,MN,1,num_8,32,num_2,2.28333650867,,,2017_Jul_03_1140,60.0017320166,MAFE4ImagesEEG,001,200844,
AFNE01.JPG,AFNE01.JPG,AFNE01.JPG,AFNE01.JPG,AFNE01.JPG,AFNE01.JPG,,,,,,,,,,,,,,,,,5,2,52,4,,,,,,,AMSA03.jpg,AMSA10.jpg,AMNE17.jpg,AMNE12.jpg,AMNE17.jpg,MN,1,num_2,48,None,,,,2017_Jul_03_1140,60.0017320166,MAFE4ImagesEEG,001,200844,
AFNE01.JPG,AFNE01.JPG,AFNE01.JPG,AFNE01.JPG,AFNE01.JPG,AFNE01.JPG,,,,,,,,,,,,,,,,,5,3,53,0,,,,,,,AMSA02.jpg,AMSA12.jpg,AMNE03.jpg,AMNE12.jpg,AMSA12.jpg,MS,2,num_6,32,num_8,2.483313223,,,2017_Jul_03_1140,60.0017320166,MAFE4ImagesEEG,001,200844,
AFNE01.JPG,AFNE01.JPG,AFNE01.JPG,AFNE01.JPG,AFNE01.JPG,AFNE01.JPG,,,,,,,,,,,,,,,,,5,4,54,7,,,,,,,AMSA08.jpg,AMSA12.jpg,AMNE18.jpg,AMNE05.jpg,AMSA12.jpg,MS,2,num_6,16,num_6,1.58343452658,,,2017_Jul_03_1140,60.0017320166,MAFE4ImagesEEG,001,200844,
AFNE01.JPG,AFNE01.JPG,AFNE01.JPG,AFNE01.JPG,AFNE01.JPG,AFNE01.JPG,,,,,,,,,,,,,,,,,5,5,55,2,,,,,,,AMSA20.jpg,AMNE05.jpg,AMSA12.jpg,AMNE08.jpg,AMNE05.jpg,MN,1,num_6,32,num_2,1.63342493644,,,2017_Jul_03_1140,60.0017320166,MAFE4ImagesEEG,001,200844,
AFNE01.JPG,AFNE01.JPG,AFNE01.JPG,AFNE01.JPG,AFNE01.JPG,AFNE01.JPG,,,,,,,,,,,,,,,,,5,6,56,8,,,,,,,AMSA12.jpg,AMSA18.jpg,AMNE06.jpg,AMNE09.jpg,AMNE06.jpg,MN,1,num_2,32,num_8,1.28340354317,,,2017_Jul_03_1140,60.0017320166,MAFE4ImagesEEG,001,200844,
AFNE01.JPG,AFNE01.JPG,AFNE01.JPG,AFNE01.JPG,AFNE01.JPG,AFNE01.JPG,,,,,,,,,,,,,,,,,5,7,57,5,,,,,,,AMSA14.jpg,AMNE04.jpg,AMNE19.jpg,AMSA15.jpg,AMNE04.jpg,MN,1,num_6,16,num_6,1.51673360495,,,2017_Jul_03_1140,60.0017320166,MAFE4ImagesEEG,001,200844,
AFNE01.JPG,AFNE01.JPG,AFNE01.JPG,AFNE01.JPG,AFNE01.JPG,AFNE01.JPG,,,,,,,,,,,,,,,,,5,8,58,6,,,,,,,AMNE19.jpg,AMSA18.jpg,AMSA11.jpg,AMNE04.jpg,AMSA18.jpg,MS,2,num_6,16,num_6,1.56670958165,,,2017_Jul_03_1140,60.0017320166,MAFE4ImagesEEG,001,200844,
AFNE01.JPG,AFNE01.JPG,AFNE01.JPG,AFNE01.JPG,AFNE01.JPG,AFNE01.JPG,,,,,,,,,,,,,,,,,5,9,59,1,,,,,,,AMSA06.jpg,AMNE16.jpg,AMNE09.jpg,AMSA16.jpg,AMSA16.jpg,MS,2,num_4,16,num_4,1.01675605669,,,2017_Jul_03_1140,60.0017320166,MAFE4ImagesEEG,001,200844,
,,,,,,,,,,,,,,,,,,,,,,,,,,,,,,,,,,,,,,,,,,,space,14.6653628619,2017_Jul_03_1140,60.0017320166,MAFE4ImagesEEG,001,200844,
AFNE01.JPG,AFNE01.JPG,AFNE01.JPG,AFNE01.JPG,AFNE01.JPG,AFNE01.JPG,,,,,,,,,,,,,,,,,,,,,0,0,0,4,,,AFSA03.jpg,AFSA05.jpg,AFNE01.jpg,AFNE09.jpg,AFNE01.jpg,FN,3,num_2,32,num_6,1.28341444838,,,2017_Jul_03_1140,60.0017320166,MAFE4ImagesEEG,001,200844,
AFNE01.JPG,AFNE01.JPG,AFNE01.JPG,AFNE01.JPG,AFNE01.JPG,AFNE01.JPG,,,,,,,,,,,,,,,,,,,,,0,1,1,7,,,AFSA04.jpg,AFNE10.jpg,AFSA02.jpg,AFNE01.jpg,AFNE10.jpg,FN,3,num_6,16,num_6,0.883425417589,,,2017_Jul_03_1140,60.0017320166,MAFE4ImagesEEG,001,200844,
AFNE01.JPG,AFNE01.JPG,AFNE01.JPG,AFNE01.JPG,AFNE01.JPG,AFNE01.JPG,,,,,,,,,,,,,,,,,,,,,0,2,2,0,,,AFNE12.jpg,AFNE17.jpg,AFSA11.jpg,AFSA07.jpg,AFNE12.jpg,FN,3,num_8,32,num_6,1.05015815643,,,2017_Jul_03_1140,60.0017320166,MAFE4ImagesEEG,001,200844,
AFNE01.JPG,AFNE01.JPG,AFNE01.JPG,AFNE01.JPG,AFNE01.JPG,AFNE01.JPG,,,,,,,,,,,,,,,,,,,,,0,3,3,2,,,AFSA08.jpg,AFNE14.jpg,AFSA05.jpg,AFNE01.jpg,AFSA05.jpg,FS,4,num_2,16,num_2,1.7833150191,,,2017_Jul_03_1140,60.0017320166,MAFE4ImagesEEG,001,200844,
AFNE01.JPG,AFNE01.JPG,AFNE01.JPG,AFNE01.JPG,AFNE01.JPG,AFNE01.JPG,,,,,,,,,,,,,,,,,,,,,0,4,4,9,,,AFSA02.jpg,AFNE20.jpg,AFNE14.jpg,AFSA09.jpg,AFNE20.jpg,FN,3,num_6,16,num_6,1.36670752882,,,2017_Jul_03_1140,60.0017320166,MAFE4ImagesEEG,001,200844,
AFNE01.JPG,AFNE01.JPG,AFNE01.JPG,AFNE01.JPG,AFNE01.JPG,AFNE01.JPG,,,,,,,,,,,,,,,,,,,,,0,5,5,3,,,AFSA17.jpg,AFNE11.jpg,AFNE02.jpg,AFSA14.jpg,AFSA17.jpg,FS,4,num_8,32,num_2,1.41667003441,,,2017_Jul_03_1140,60.0017320166,MAFE4ImagesEEG,001,200844,
AFNE01.JPG,AFNE01.JPG,AFNE01.JPG,AFNE01.JPG,AFNE01.JPG,AFNE01.JPG,,,,,,,,,,,,,,,,,,,,,0,6,6,1,,,AFSA03.jpg,AFNE07.jpg,AFNE19.jpg,AFSA01.jpg,AFSA01.jpg,FS,4,num_4,16,num_4,0.950132112484,,,2017_Jul_03_1140,60.0017320166,MAFE4ImagesEEG,001,200844,
AFNE01.JPG,AFNE01.JPG,AFNE01.JPG,AFNE01.JPG,AFNE01.JPG,AFNE01.JPG,,,,,,,,,,,,,,,,,,,,,0,7,7,5,,,AFNE14.jpg,AFSA15.jpg,AFSA04.jpg,AFNE09.jpg,AFNE14.jpg,FN,3,num_8,32,num_6,1.16676481289,,,2017_Jul_03_1140,60.0017320166,MAFE4ImagesEEG,001,200844,
AFNE01.JPG,AFNE01.JPG,AFNE01.JPG,AFNE01.JPG,AFNE01.JPG,AFNE01.JPG,,,,,,,,,,,,,,,,,,,,,0,8,8,6,,,AFNE04.jpg,AFNE06.jpg,AFSA19.jpg,AFSA13.jpg,AFSA19.jpg,FS,4,num_2,16,num_2,1.55007283983,,,2017_Jul_03_1140,60.0017320166,MAFE4ImagesEEG,001,200844,
AFNE01.JPG,AFNE01.JPG,AFNE01.JPG,AFNE01.JPG,AFNE01.JPG,AFNE01.JPG,,,,,,,,,,,,,,,,,,,,,0,9,9,8,,,AFSA05.jpg,AFSA07.jpg,AFNE02.jpg,AFNE11.jpg,AFSA07.jpg,FS,4,num_6,16,num_6,1.0667737294,,,2017_Jul_03_1140,60.0017320166,MAFE4ImagesEEG,001,200844,
AFNE01.JPG,AFNE01.JPG,AFNE01.JPG,AFNE01.JPG,AFNE01.JPG,AFNE01.JPG,,,,,,,,,,,,,,,,,,,,,1,0,10,1,,,AFNE10.jpg,AFSA05.jpg,AFNE01.jpg,AFSA11.jpg,AFNE10.jpg,FN,3,num_8,16,num_8,1.33338625531,,,2017_Jul_03_1140,60.0017320166,MAFE4ImagesEEG,001,200844,
AFNE01.JPG,AFNE01.JPG,AFNE01.JPG,AFNE01.JPG,AFNE01.JPG,AFNE01.JPG,,,,,,,,,,,,,,,,,,,,,1,1,11,2,,,AFSA06.jpg,AFNE19.jpg,AFSA15.jpg,AFNE04.jpg,AFSA06.jpg,FS,4,num_8,32,num_4,1.33333622001,,,2017_Jul_03_1140,60.0017320166,MAFE4ImagesEEG,001,200844,
AFNE01.JPG,AFNE01.JPG,AFNE01.JPG,AFNE01.JPG,AFNE01.JPG,AFNE01.JPG,,,,,,,,,,,,,,,,,,,,,1,2,12,5,,,AFSA03.jpg,AFNE14.jpg,AFSA08.jpg,AFNE17.jpg,AFNE14.jpg,FN,3,num_6,32,num_2,1.88366019865,,,2017_Jul_03_1140,60.0017320166,MAFE4ImagesEEG,001,200844,
AFNE01.JPG,AFNE01.JPG,AFNE01.JPG,AFNE01.JPG,AFNE01.JPG,AFNE01.JPG,,,,,,,,,,,,,,,,,,,,,1,3,13,8,,,AFNE05.jpg,AFSA06.jpg,AFSA07.jpg,AFNE08.jpg,AFNE05.jpg,FN,3,num_8,32,num_6,1.8000627365,,,2017_Jul_03_1140,60.0017320166,MAFE4ImagesEEG,001,200844,
AFNE01.JPG,AFNE01.JPG,AFNE01.JPG,AFNE01.JPG,AFNE01.JPG,AFNE01.JPG,,,,,,,,,,,,,,,,,,,,,1,4,14,9,,,AFSA11.jpg,AFNE17.jpg,AFSA04.jpg,AFNE15.jpg,AFNE17.jpg,FN,3,num_6,32,num_4,1.01680577127,,,2017_Jul_03_1140,60.0017320166,MAFE4ImagesEEG,001,200844,
AFNE01.JPG,AFNE01.JPG,AFNE01.JPG,AFNE01.JPG,AFNE01.JPG,AFNE01.JPG,,,,,,,,,,,,,,,,,,,,,1,5,15,0,,,AFSA02.jpg,AFNE07.jpg,AFNE06.jpg,AFSA19.jpg,AFNE07.jpg,FN,3,num_6,16,num_6,1.48340944469,,,2017_Jul_03_1140,60.0017320166,MAFE4ImagesEEG,001,200844,
AFNE01.JPG,AFNE01.JPG,AFNE01.JPG,AFNE01.JPG,AFNE01.JPG,AFNE01.JPG,,,,,,,,,,,,,,,,,,,,,1,6,16,3,,,AFNE02.jpg,AFSA16.jpg,AFNE11.jpg,AFSA19.jpg,AFNE11.jpg,FN,3,num_2,32,num_4,1.38326312357,,,2017_Jul_03_1140,60.0017320166,MAFE4ImagesEEG,001,200844,
AFNE01.JPG,AFNE01.JPG,AFNE01.JPG,AFNE01.JPG,AFNE01.JPG,AFNE01.JPG,,,,,,,,,,,,,,,,,,,,,1,7,17,7,,,AFNE19.jpg,AFSA11.jpg,AFNE03.jpg,AFSA08.jpg,AFNE19.jpg,FN,3,num_8,32,num_4,1.31675881508,,,2017_Jul_03_1140,60.0017320166,MAFE4ImagesEEG,001,200844,
AFNE01.JPG,AFNE01.JPG,AFNE01.JPG,AFNE01.JPG,AFNE01.JPG,AFNE01.JPG,,,,,,,,,,,,,,,,,,,,,1,8,18,4,,,AFSA10.jpg,AFSA11.jpg,AFNE20.jpg,AFNE16.jpg,AFNE20.jpg,FN,3,num_2,16,num_2,1.11672661279,,,2017_Jul_03_1140,60.0017320166,MAFE4ImagesEEG,001,200844,
AFNE01.JPG,AFNE01.JPG,AFNE01.JPG,AFNE01.JPG,AFNE01.JPG,AFNE01.JPG,,,,,,,,,,,,,,,,,,,,,1,9,19,6,,,AFNE01.jpg,AFNE02.jpg,AFSA19.jpg,AFSA14.jpg,AFSA14.jpg,FS,4,num_4,16,num_4,1.55008310359,,,2017_Jul_03_1140,60.0017320166,MAFE4ImagesEEG,001,200844,
AFNE01.JPG,AFNE01.JPG,AFNE01.JPG,AFNE01.JPG,AFNE01.JPG,AFNE01.JPG,,,,,,,,,,,,,,,,,,,,,2,0,20,7,,,AFNE04.jpg,AFNE12.jpg,AFSA08.jpg,AFSA19.jpg,AFSA19.jpg,FS,4,num_4,16,num_4,0.866875275387,,,2017_Jul_03_1140,60.0017320166,MAFE4ImagesEEG,001,200844,
AFNE01.JPG,AFNE01.JPG,AFNE01.JPG,AFNE01.JPG,AFNE01.JPG,AFNE01.JPG,,,,,,,,,,,,,,,,,,,,,2,1,21,2,,,AFSA19.jpg,AFNE04.jpg,AFSA10.jpg,AFNE17.jpg,AFNE17.jpg,FN,3,num_4,16,num_4,1.13331203628,,,2017_Jul_03_1140,60.0017320166,MAFE4ImagesEEG,001,200844,
AFNE01.JPG,AFNE01.JPG,AFNE01.JPG,AFNE01.JPG,AFNE01.JPG,AFNE01.JPG,,,,,,,,,,,,,,,,,,,,,2,2,22,9,,,AFSA17.jpg,AFSA11.jpg,AFNE17.jpg,AFNE18.jpg,AFNE17.jpg,FN,3,num_2,32,num_8,1.15008092241,,,2017_Jul_03_1140,60.0017320166,MAFE4ImagesEEG,001,200844,
AFNE01.JPG,AFNE01.JPG,AFNE01.JPG,AFNE01.JPG,AFNE01.JPG,AFNE01.JPG,,,,,,,,,,,,,,,,,,,,,2,3,23,5,,,AFSA12.jpg,AFNE17.jpg,AFSA15.jpg,AFNE18.jpg,AFSA12.jpg,FS,4,num_8,16,num_8,1.33341608406,,,2017_Jul_03_1140,60.0017320166,MAFE4ImagesEEG,001,200844,
AFNE01.JPG,AFNE01.JPG,AFNE01.JPG,AFNE01.JPG,AFNE01.JPG,AFNE01.JPG,,,,,,,,,,,,,,,,,,,,,2,4,24,8,,,AFNE11.jpg,AFSA04.jpg,AFNE19.jpg,AFSA06.jpg,AFNE11.jpg,FN,3,num_8,32,num_6,0.950084963813,,,2017_Jul_03_1140,60.0017320166,MAFE4ImagesEEG,001,200844,
AFNE01.JPG,AFNE01.JPG,AFNE01.JPG,AFNE01.JPG,AFNE01.JPG,AFNE01.JPG,,,,,,,,,,,,,,,,,,,,,2,5,25,1,,,AFNE04.jpg,AFSA19.jpg,AFSA11.jpg,AFNE08.jpg,AFSA11.jpg,FS,4,num_2,16,num_2,1.40011957148,,,2017_Jul_03_1140,60.0017320166,MAFE4ImagesEEG,001,200844,
AFNE01.JPG,AFNE01.JPG,AFNE01.JPG,AFNE01.JPG,AFNE01.JPG,AFNE01.JPG,,,,,,,,,,,,,,,,,,,,,2,6,26,3,,,AFSA05.jpg,AFNE19.jpg,AFSA13.jpg,AFNE20.jpg,AFNE20.jpg,FN,3,num_4,16,num_4,1.13336239231,,,2017_Jul_03_1140,60.0017320166,MAFE4ImagesEEG,001,200844,
AFNE01.JPG,AFNE01.JPG,AFNE01.JPG,AFNE01.JPG,AFNE01.JPG,AFNE01.JPG,,,,,,,,,,,,,,,,,,,,,2,7,27,0,,,AFSA12.jpg,AFSA09.jpg,AFNE02.jpg,AFNE06.jpg,AFSA09.jpg,FS,4,num_6,32,num_2,1.06662811385,,,2017_Jul_03_1140,60.0017320166,MAFE4ImagesEEG,001,200844,
AFNE01.JPG,AFNE01.JPG,AFNE01.JPG,AFNE01.JPG,AFNE01.JPG,AFNE01.JPG,,,,,,,,,,,,,,,,,,,,,2,8,28,4,,,AFNE17.jpg,AFSA09.jpg,AFNE07.jpg,AFSA17.jpg,AFNE07.jpg,FN,3,num_2,16,num_2,0.93345720286,,,2017_Jul_03_1140,60.0017320166,MAFE4ImagesEEG,001,200844,
AFNE01.JPG,AFNE01.JPG,AFNE01.JPG,AFNE01.JPG,AFNE01.JPG,AFNE01.JPG,,,,,,,,,,,,,,,,,,,,,2,9,29,6,,,AFNE12.jpg,AFSA19.jpg,AFSA04.jpg,AFNE03.jpg,AFSA04.jpg,FS,4,num_2,16,num_2,1.03341396712,,,2017_Jul_03_1140,60.0017320166,MAFE4ImagesEEG,001,200844,
AFNE01.JPG,AFNE01.JPG,AFNE01.JPG,AFNE01.JPG,AFNE01.JPG,AFNE01.JPG,,,,,,,,,,,,,,,,,,,,,3,0,30,3,,,AFSA09.jpg,AFSA16.jpg,AFNE07.jpg,AFNE02.jpg,AFSA09.jpg,FS,4,num_8,32,num_2,1.23344328266,,,2017_Jul_03_1140,60.0017320166,MAFE4ImagesEEG,001,200844,
AFNE01.JPG,AFNE01.JPG,AFNE01.JPG,AFNE01.JPG,AFNE01.JPG,AFNE01.JPG,,,,,,,,,,,,,,,,,,,,,3,1,31,1,,,AFSA05.jpg,AFNE14.jpg,AFSA16.jpg,AFNE16.jpg,AFSA05.jpg,FS,4,num_8,32,num_2,1.16679688683,,,2017_Jul_03_1140,60.0017320166,MAFE4ImagesEEG,001,200844,
AFNE01.JPG,AFNE01.JPG,AFNE01.JPG,AFNE01.JPG,AFNE01.JPG,AFNE01.JPG,,,,,,,,,,,,,,,,,,,,,3,2,32,2,,,AFNE12.jpg,AFSA07.jpg,AFSA17.jpg,AFNE13.jpg,AFSA17.jpg,FS,4,num_2,32,num_4,0.983193908003,,,2017_Jul_03_1140,60.0017320166,MAFE4ImagesEEG,001,200844,
AFNE01.JPG,AFNE01.JPG,AFNE01.JPG,AFNE01.JPG,AFNE01.JPG,AFNE01.JPG,,,,,,,,,,,,,,,,,,,,,3,3,33,4,,,AFNE08.jpg,AFSA19.jpg,AFSA10.jpg,AFNE17.jpg,AFSA19.jpg,FS,4,num_6,32,num_4,1.100092437,,,2017_Jul_03_1140,60.0017320166,MAFE4ImagesEEG,001,200844,
AFNE01.JPG,AFNE01.JPG,AFNE01.JPG,AFNE01.JPG,AFNE01.JPG,AFNE01.JPG,,,,,,,,,,,,,,,,,,,,,3,4,34,8,,,AFNE01.jpg,AFSA04.jpg,AFSA13.jpg,AFNE05.jpg,AFNE01.jpg,FN,3,num_8,32,num_2,1.55004557711,,,2017_Jul_03_1140,60.0017320166,MAFE4ImagesEEG,001,200844,
AFNE01.JPG,AFNE01.JPG,AFNE01.JPG,AFNE01.JPG,AFNE01.JPG,AFNE01.JPG,,,,,,,,,,,,,,,,,,,,,3,5,35,6,,,AFSA17.jpg,AFNE16.jpg,AFSA11.jpg,AFNE07.jpg,AFSA11.jpg,FS,4,num_2,16,num_2,2.23335668317,,,2017_Jul_03_1140,60.0017320166,MAFE4ImagesEEG,001,200844,
AFNE01.JPG,AFNE01.JPG,AFNE01.JPG,AFNE01.JPG,AFNE01.JPG,AFNE01.JPG,,,,,,,,,,,,,,,,,,,,,3,6,36,7,,,AFNE11.jpg,AFSA10.jpg,AFSA01.jpg,AFNE08.jpg,AFSA10.jpg,FS,4,num_6,32,num_4,1.21674688358,,,2017_Jul_03_1140,60.0017320166,MAFE4ImagesEEG,001,200844,
AFNE01.JPG,AFNE01.JPG,AFNE01.JPG,AFNE01.JPG,AFNE01.JPG,AFNE01.JPG,,,,,,,,,,,,,,,,,,,,,3,7,37,0,,,AFNE04.jpg,AFSA01.jpg,AFNE06.jpg,AFSA02.jpg,AFSA02.jpg,FS,4,num_4,16,num_4,1.33341255598,,,2017_Jul_03_1140,60.0017320166,MAFE4ImagesEEG,001,200844,
AFNE01.JPG,AFNE01.JPG,AFNE01.JPG,AFNE01.JPG,AFNE01.JPG,AFNE01.JPG,,,,,,,,,,,,,,,,,,,,,3,8,38,5,,,AFSA11.jpg,AFNE11.jpg,AFNE13.jpg,AFSA20.jpg,AFNE13.jpg,FN,3,num_2,16,num_2,2.61663103255,,,2017_Jul_03_1140,60.0017320166,MAFE4ImagesEEG,001,200844,
AFNE01.JPG,AFNE01.JPG,AFNE01.JPG,AFNE01.JPG,AFNE01.JPG,AFNE01.JPG,,,,,,,,,,,,,,,,,,,,,3,9,39,9,,,AFNE20.jpg,AFSA16.jpg,AFNE05.jpg,AFSA17.jpg,AFNE20.jpg,FN,3,num_8,16,num_8,1.10009307845,,,2017_Jul_03_1140,60.0017320166,MAFE4ImagesEEG,001,200844,
AFNE01.JPG,AFNE01.JPG,AFNE01.JPG,AFNE01.JPG,AFNE01.JPG,AFNE01.JPG,,,,,,,,,,,,,,,,,,,,,4,0,40,6,,,AFSA10.jpg,AFNE02.jpg,AFNE20.jpg,AFSA14.jpg,AFNE20.jpg,FN,3,num_2,16,num_2,1.33341287659,,,2017_Jul_03_1140,60.0017320166,MAFE4ImagesEEG,001,200844,
