IPosition2,IPosition3,IPosition1,IPosition6,IPosition4,IPosition5,TrialsM1.thisRepN,TrialsM1.thisTrialN,TrialsM1.thisN,TrialsM1.thisIndex,TrialsF1.thisRepN,TrialsF1.thisTrialN,TrialsF1.thisN,TrialsF1.thisIndex,TrialsM2.thisRepN,TrialsM2.thisTrialN,TrialsM2.thisN,TrialsM2.thisIndex,TrialsF2.thisRepN,TrialsF2.thisTrialN,TrialsF2.thisN,TrialsF2.thisIndex,TrialsM3.thisRepN,TrialsM3.thisTrialN,TrialsM3.thisN,TrialsM3.thisIndex,TrialsF3.thisRepN,TrialsF3.thisTrialN,TrialsF3.thisN,TrialsF3.thisIndex,InstrKey_resp.keys,InstrKey_resp.rt,Image0 _Position,Image1 _Position,Image2 _Position,Image3 _Position,Center_image,condition,code,correct_answer,accuracy,Key_Resp.keys,Key_Resp.rt,BreakKey_resp.keys,BreakKey_resp.rt,date,frameRate,expName,session,participant,
,,,,,,,,,,,,,,,,,,,,,,,,,,,,,,space,13.3496012719,,,,,,,,,,,,,,2017_Jul_27_1447,60.0056006539,MAFE4ImagesEEG,001,200868,
AFSA21.JPG,AFNE22.JPG,AFNE21.JPG,AFSA23.JPG,AFSA22.JPG,AFNE23.JPG,0,0,0,0,,,,,,,,,,,,,,,,,,,,,,,AMNE08.jpg,AMSA06.jpg,AMNE14.jpg,AMSA09.jpg,AMNE14.jpg,MN,1,num_2,16,num_2,0.800274168723,,,2017_Jul_27_1447,60.0056006539,MAFE4ImagesEEG,001,200868,
AMSA21.JPG,AMNE22.JPG,AMNE21.JPG,AMSA23.JPG,AMSA22.JPG,AMNE23.JPG,0,1,1,1,,,,,,,,,,,,,,,,,,,,,,,AMNE16.jpg,AMSA07.jpg,AMNE17.jpg,AMSA18.jpg,AMSA18.jpg,MS,2,num_4,32,num_8,0.583471171441,,,2017_Jul_27_1447,60.0056006539,MAFE4ImagesEEG,001,200868,
AFSA25.JPG,AFNE24.JPG,AFSA24.JPG,AFNE21.JPG,AFSA21.JPG,AFNE25.JPG,0,2,2,2,,,,,,,,,,,,,,,,,,,,,,,AMNE04.jpg,AMNE14.jpg,AMSA09.jpg,AMSA19.jpg,AMSA09.jpg,MS,2,num_2,32,num_4,0.75013190438,,,2017_Jul_27_1447,60.0056006539,MAFE4ImagesEEG,001,200868,
AFSA21.JPG,AFNE23.JPG,AFNE21.JPG,AFSA25.JPG,AFNE25.JPG,AFSA23.JPG,0,3,3,4,,,,,,,,,,,,,,,,,,,,,,,AMNE01.jpg,AMSA06.jpg,AMNE02.jpg,AMSA14.jpg,AMSA14.jpg,MS,2,num_4,32,num_8,0.650190567714,,,2017_Jul_27_1447,60.0056006539,MAFE4ImagesEEG,001,200868,
AMSA21.JPG,AMNE23.JPG,AMNE21.JPG,AMSA25.JPG,AMNE25.JPG,AMSA23.JPG,0,4,4,5,,,,,,,,,,,,,,,,,,,,,,,AMSA17.jpg,AMNE13.jpg,AMNE19.jpg,AMSA01.jpg,AMSA01.jpg,MS,2,num_4,32,num_6,0.633498289972,,,2017_Jul_27_1447,60.0056006539,MAFE4ImagesEEG,001,200868,
AMNE23.JPG,AMNE24.JPG,AMNE22.JPG,AMSA24.JPG,AMSA22.JPG,AMSA23.JPG,0,5,5,9,,,,,,,,,,,,,,,,,,,,,,,AMNE10.jpg,AMNE08.jpg,AMSA15.jpg,AMSA13.jpg,AMNE08.jpg,MN,1,num_6,16,num_6,1.01674167183,,,2017_Jul_27_1447,60.0056006539,MAFE4ImagesEEG,001,200868,
AMNE22.JPG,AMSA24.JPG,AMSA22.JPG,AMNE25.JPG,AMNE24.JPG,AMSA25.JPG,0,6,6,7,,,,,,,,,,,,,,,,,,,,,,,AMSA03.jpg,AMNE18.jpg,AMNE16.jpg,AMSA02.jpg,AMNE18.jpg,MN,1,num_6,16,num_6,0.766809427994,,,2017_Jul_27_1447,60.0056006539,MAFE4ImagesEEG,001,200868,
AMSA25.JPG,AMNE24.JPG,AMSA24.JPG,AMNE26.JPG,AMSA21.JPG,AMNE25.JPG,0,7,7,3,,,,,,,,,,,,,,,,,,,,,,,AMNE14.jpg,AMSA08.jpg,AMNE08.jpg,AMSA05.jpg,AMSA08.jpg,MS,2,num_6,32,num_4,0.699833439663,,,2017_Jul_27_1447,60.0056006539,MAFE4ImagesEEG,001,200868,
AFNE23.JPG,AFNE24.JPG,AFNE22.JPG,AFSA24.JPG,AFSA22.JPG,AFSA23.JPG,0,8,8,8,,,,,,,,,,,,,,,,,,,,,,,AMNE06.jpg,AMSA09.jpg,AMSA20.jpg,AMNE14.jpg,AMNE06.jpg,MN,1,num_8,16,num_8,1.23343786248,,,2017_Jul_27_1447,60.0056006539,MAFE4ImagesEEG,001,200868,
AFNE22.JPG,AFSA24.JPG,AFSA22.JPG,AFNE25.JPG,AFNE24.JPG,AFSA25.JPG,0,9,9,6,,,,,,,,,,,,,,,,,,,,,,,AMSA02.jpg,AMSA11.jpg,AMNE15.jpg,AMNE02.jpg,AMSA11.jpg,MS,2,num_6,32,num_8,1.25012821588,,,2017_Jul_27_1447,60.0056006539,MAFE4ImagesEEG,001,200868,
AFNE23.JPG,AFNE24.JPG,AFNE22.JPG,AFSA24.JPG,AFSA22.JPG,AFSA23.JPG,,,,,0,0,0,8,,,,,,,,,,,,,,,,,,,AFSA01.jpg,AFSA12.jpg,AFNE17.jpg,AFNE06.jpg,AFSA01.jpg,FS,4,num_8,16,num_8,0.933481707703,,,2017_Jul_27_1447,60.0056006539,MAFE4ImagesEEG,001,200868,
AMSA21.JPG,AMNE23.JPG,AMNE21.JPG,AMSA25.JPG,AMNE25.JPG,AMSA23.JPG,,,,,0,1,1,5,,,,,,,,,,,,,,,,,,,AFNE06.jpg,AFNE09.jpg,AFSA16.jpg,AFSA03.jpg,AFNE09.jpg,FN,3,num_6,16,num_6,1.06677039398,,,2017_Jul_27_1447,60.0056006539,MAFE4ImagesEEG,001,200868,
AFNE22.JPG,AFSA24.JPG,AFSA22.JPG,AFNE25.JPG,AFNE24.JPG,AFSA25.JPG,,,,,0,2,2,6,,,,,,,,,,,,,,,,,,,AFSA04.jpg,AFSA14.jpg,AFNE18.jpg,AFNE13.jpg,AFSA14.jpg,FS,4,num_6,32,num_2,0.866806252743,,,2017_Jul_27_1447,60.0056006539,MAFE4ImagesEEG,001,200868,
AMNE22.JPG,AMSA24.JPG,AMSA22.JPG,AMNE25.JPG,AMNE24.JPG,AMSA25.JPG,,,,,0,3,3,7,,,,,,,,,,,,,,,,,,,AFSA18.jpg,AFNE20.jpg,AFSA09.jpg,AFNE04.jpg,AFNE04.jpg,FN,3,num_4,32,num_6,0.649997482193,,,2017_Jul_27_1447,60.0056006539,MAFE4ImagesEEG,001,200868,
AFSA25.JPG,AFNE24.JPG,AFSA24.JPG,AFNE21.JPG,AFSA21.JPG,AFNE25.JPG,,,,,0,4,4,2,,,,,,,,,,,,,,,,,,,AFNE12.jpg,AFSA05.jpg,AFSA07.jpg,AFNE11.jpg,AFSA07.jpg,FS,4,num_2,32,num_8,0.500176246627,,,2017_Jul_27_1447,60.0056006539,MAFE4ImagesEEG,001,200868,
AFSA21.JPG,AFNE22.JPG,AFNE21.JPG,AFSA23.JPG,AFSA22.JPG,AFNE23.JPG,,,,,0,5,5,0,,,,,,,,,,,,,,,,,,,AFSA09.jpg,AFNE10.jpg,AFSA18.jpg,AFNE16.jpg,AFNE16.jpg,FN,3,num_4,32,num_6,0.449991323985,,,2017_Jul_27_1447,60.0056006539,MAFE4ImagesEEG,001,200868,
AMSA21.JPG,AMNE22.JPG,AMNE21.JPG,AMSA23.JPG,AMSA22.JPG,AMNE23.JPG,,,,,0,6,6,1,,,,,,,,,,,,,,,,,,,AFSA05.jpg,AFSA11.jpg,AFNE17.jpg,AFNE18.jpg,AFSA11.jpg,FS,4,num_6,32,num_8,0.616838086164,,,2017_Jul_27_1447,60.0056006539,MAFE4ImagesEEG,001,200868,
AFSA21.JPG,AFNE23.JPG,AFNE21.JPG,AFSA25.JPG,AFNE25.JPG,AFSA23.JPG,,,,,0,7,7,4,,,,,,,,,,,,,,,,,,,AFNE04.jpg,AFSA12.jpg,AFSA08.jpg,AFNE10.jpg,AFNE04.jpg,FN,3,num_8,16,num_8,0.35020875372,,,2017_Jul_27_1447,60.0056006539,MAFE4ImagesEEG,001,200868,
AMSA25.JPG,AMNE24.JPG,AMSA24.JPG,AMNE26.JPG,AMSA21.JPG,AMNE25.JPG,,,,,0,8,8,3,,,,,,,,,,,,,,,,,,,AFNE07.jpg,AFSA13.jpg,AFSA12.jpg,AFNE02.jpg,AFSA13.jpg,FS,4,num_6,16,num_6,0.700154821272,,,2017_Jul_27_1447,60.0056006539,MAFE4ImagesEEG,001,200868,
AMNE23.JPG,AMNE24.JPG,AMNE22.JPG,AMSA24.JPG,AMSA22.JPG,AMSA23.JPG,,,,,0,9,9,9,,,,,,,,,,,,,,,,,,,AFNE17.jpg,AFSA05.jpg,AFNE14.jpg,AFSA16.jpg,AFSA05.jpg,FS,4,num_6,16,num_6,0.533534822287,,,2017_Jul_27_1447,60.0056006539,MAFE4ImagesEEG,001,200868,
AMSA25.JPG,AMNE24.JPG,AMSA24.JPG,AMNE26.JPG,AMSA21.JPG,AMNE25.JPG,,,,,,,,,0,0,0,3,,,,,,,,,,,,,,,AMSA17.jpg,AMSA08.jpg,AMNE10.jpg,AMNE03.jpg,AMSA17.jpg,MS,2,num_8,16,num_8,0.583620315534,,,2017_Jul_27_1447,60.0056006539,MAFE4ImagesEEG,001,200868,
AMSA21.JPG,AMNE23.JPG,AMNE21.JPG,AMSA25.JPG,AMNE25.JPG,AMSA23.JPG,,,,,,,,,0,1,1,5,,,,,,,,,,,,,,,AMSA10.jpg,AMNE03.jpg,AMSA05.jpg,AMNE10.jpg,AMNE03.jpg,MN,1,num_6,32,num_2,1.06662124989,,,2017_Jul_27_1447,60.0056006539,MAFE4ImagesEEG,001,200868,
AFNE23.JPG,AFNE24.JPG,AFNE22.JPG,AFSA24.JPG,AFSA22.JPG,AFSA23.JPG,,,,,,,,,0,2,2,8,,,,,,,,,,,,,,,AMSA19.jpg,AMNE07.jpg,AMSA14.jpg,AMNE18.jpg,AMSA14.jpg,MS,2,num_2,16,num_2,0.733503133175,,,2017_Jul_27_1447,60.0056006539,MAFE4ImagesEEG,001,200868,
AFSA25.JPG,AFNE24.JPG,AFSA24.JPG,AFNE21.JPG,AFSA21.JPG,AFNE25.JPG,,,,,,,,,0,3,3,2,,,,,,,,,,,,,,,AMSA10.jpg,AMSA03.jpg,AMNE14.jpg,AMNE02.jpg,AMNE14.jpg,MN,1,num_2,32,num_8,0.900153281633,,,2017_Jul_27_1447,60.0056006539,MAFE4ImagesEEG,001,200868,
AMNE23.JPG,AMNE24.JPG,AMNE22.JPG,AMSA24.JPG,AMSA22.JPG,AMSA23.JPG,,,,,,,,,0,4,4,9,,,,,,,,,,,,,,,AMNE14.jpg,AMNE15.jpg,AMSA09.jpg,AMSA11.jpg,AMNE15.jpg,MN,1,num_6,16,num_6,0.566795572173,,,2017_Jul_27_1447,60.0056006539,MAFE4ImagesEEG,001,200868,
AMSA21.JPG,AMNE22.JPG,AMNE21.JPG,AMSA23.JPG,AMSA22.JPG,AMNE23.JPG,,,,,,,,,0,5,5,1,,,,,,,,,,,,,,,AMNE11.jpg,AMNE16.jpg,AMSA16.jpg,AMSA10.jpg,AMSA16.jpg,MS,2,num_2,32,num_8,0.566821552115,,,2017_Jul_27_1447,60.0056006539,MAFE4ImagesEEG,001,200868,
AFSA21.JPG,AFNE23.JPG,AFNE21.JPG,AFSA25.JPG,AFNE25.JPG,AFSA23.JPG,,,,,,,,,0,6,6,4,,,,,,,,,,,,,,,AMSA13.jpg,AMSA17.jpg,AMNE03.jpg,AMNE02.jpg,AMSA13.jpg,MS,2,num_8,32,num_2,0.416794722085,,,2017_Jul_27_1447,60.0056006539,MAFE4ImagesEEG,001,200868,
AMNE22.JPG,AMSA24.JPG,AMSA22.JPG,AMNE25.JPG,AMNE24.JPG,AMSA25.JPG,,,,,,,,,0,7,7,7,,,,,,,,,,,,,,,AMSA17.jpg,AMNE17.jpg,AMSA11.jpg,AMNE08.jpg,AMNE17.jpg,MN,1,num_6,16,num_6,0.400199307944,,,2017_Jul_27_1447,60.0056006539,MAFE4ImagesEEG,001,200868,
AFSA21.JPG,AFNE22.JPG,AFNE21.JPG,AFSA23.JPG,AFSA22.JPG,AFNE23.JPG,,,,,,,,,0,8,8,0,,,,,,,,,,,,,,,AMNE13.jpg,AMNE04.jpg,AMSA18.jpg,AMSA16.jpg,AMSA18.jpg,MS,2,num_2,16,num_2,0.566751630744,,,2017_Jul_27_1447,60.0056006539,MAFE4ImagesEEG,001,200868,
AFNE22.JPG,AFSA24.JPG,AFSA22.JPG,AFNE25.JPG,AFNE24.JPG,AFSA25.JPG,,,,,,,,,0,9,9,6,,,,,,,,,,,,,,,AMSA10.jpg,AMSA06.jpg,AMNE18.jpg,AMNE15.jpg,AMNE18.jpg,MN,1,num_2,32,num_8,0.933918555733,,,2017_Jul_27_1447,60.0056006539,MAFE4ImagesEEG,001,200868,
AFSA25.JPG,AFNE24.JPG,AFSA24.JPG,AFNE21.JPG,AFSA21.JPG,AFNE25.JPG,,,,,,,,,,,,,0,0,0,2,,,,,,,,,,,AFNE09.jpg,AFNE01.jpg,AFSA10.jpg,AFSA12.jpg,AFNE01.jpg,FN,3,num_6,32,num_8,1.00014657818,,,2017_Jul_27_1447,60.0056006539,MAFE4ImagesEEG,001,200868,
AFSA21.JPG,AFNE23.JPG,AFNE21.JPG,AFSA25.JPG,AFNE25.JPG,AFSA23.JPG,,,,,,,,,,,,,0,1,1,4,,,,,,,,,,,AFSA19.jpg,AFNE18.jpg,AFNE09.jpg,AFSA01.jpg,AFNE18.jpg,FN,3,num_6,32,num_8,0.933582420112,,,2017_Jul_27_1447,60.0056006539,MAFE4ImagesEEG,001,200868,
AMSA21.JPG,AMNE23.JPG,AMNE21.JPG,AMSA25.JPG,AMNE25.JPG,AMSA23.JPG,,,,,,,,,,,,,0,2,2,5,,,,,,,,,,,AFSA18.jpg,AFSA10.jpg,AFNE12.jpg,AFNE13.jpg,AFNE13.jpg,FN,3,num_4,32,num_6,0.566810967634,,,2017_Jul_27_1447,60.0056006539,MAFE4ImagesEEG,001,200868,
AFSA21.JPG,AFNE22.JPG,AFNE21.JPG,AFSA23.JPG,AFSA22.JPG,AFNE23.JPG,,,,,,,,,,,,,0,3,3,0,,,,,,,,,,,AFSA17.jpg,AFNE01.jpg,AFSA19.jpg,AFNE15.jpg,AFSA19.jpg,FS,4,num_2,32,num_8,0.666949559469,,,2017_Jul_27_1447,60.0056006539,MAFE4ImagesEEG,001,200868,
AMSA21.JPG,AMNE22.JPG,AMNE21.JPG,AMSA23.JPG,AMSA22.JPG,AMNE23.JPG,,,,,,,,,,,,,0,4,4,1,,,,,,,,,,,AFSA07.jpg,AFNE05.jpg,AFNE20.jpg,AFSA18.jpg,AFSA07.jpg,FS,4,num_8,16,num_8,0.55020304455,,,2017_Jul_27_1447,60.0056006539,MAFE4ImagesEEG,001,200868,
AMNE23.JPG,AMNE24.JPG,AMNE22.JPG,AMSA24.JPG,AMSA22.JPG,AMSA23.JPG,,,,,,,,,,,,,0,5,5,9,,,,,,,,,,,AFSA08.jpg,AFNE17.jpg,AFNE07.jpg,AFSA20.jpg,AFSA20.jpg,FS,4,num_4,16,num_4,0.700299474993,,,2017_Jul_27_1447,60.0056006539,MAFE4ImagesEEG,001,200868,
AMSA25.JPG,AMNE24.JPG,AMSA24.JPG,AMNE26.JPG,AMSA21.JPG,AMNE25.JPG,,,,,,,,,,,,,0,6,6,3,,,,,,,,,,,AFSA18.jpg,AFNE15.jpg,AFSA05.jpg,AFNE09.jpg,AFSA05.jpg,FS,4,num_2,32,num_8,0.733494473156,,,2017_Jul_27_1447,60.0056006539,MAFE4ImagesEEG,001,200868,
AFNE23.JPG,AFNE24.JPG,AFNE22.JPG,AFSA24.JPG,AFSA22.JPG,AFSA23.JPG,,,,,,,,,,,,,0,7,7,8,,,,,,,,,,,AFNE12.jpg,AFSA06.jpg,AFNE02.jpg,AFSA10.jpg,AFSA10.jpg,FS,4,num_4,32,num_6,0.766811994021,,,2017_Jul_27_1447,60.0056006539,MAFE4ImagesEEG,001,200868,
AFNE22.JPG,AFSA24.JPG,AFSA22.JPG,AFNE25.JPG,AFNE24.JPG,AFSA25.JPG,,,,,,,,,,,,,0,8,8,6,,,,,,,,,,,AFNE04.jpg,AFSA14.jpg,AFSA17.jpg,AFNE02.jpg,AFNE04.jpg,FN,3,num_8,16,num_8,0.716830420541,,,2017_Jul_27_1447,60.0056006539,MAFE4ImagesEEG,001,200868,
AMNE22.JPG,AMSA24.JPG,AMSA22.JPG,AMNE25.JPG,AMNE24.JPG,AMSA25.JPG,,,,,,,,,,,,,0,9,9,7,,,,,,,,,,,AFSA03.jpg,AFSA18.jpg,AFNE20.jpg,AFNE16.jpg,AFNE16.jpg,FN,3,num_4,32,num_6,0.816860602121,,,2017_Jul_27_1447,60.0056006539,MAFE4ImagesEEG,001,200868,
AMSA25.JPG,AMNE24.JPG,AMSA24.JPG,AMNE26.JPG,AMSA21.JPG,AMNE25.JPG,,,,,,,,,,,,,,,,,0,0,0,3,,,,,,,AMNE14.jpg,AMSA15.jpg,AMSA18.jpg,AMNE12.jpg,AMNE14.jpg,MN,1,num_8,16,num_8,0.366831430816,,,2017_Jul_27_1447,60.0056006539,MAFE4ImagesEEG,001,200868,
AMSA21.JPG,AMNE23.JPG,AMNE21.JPG,AMSA25.JPG,AMNE25.JPG,AMSA23.JPG,,,,,,,,,,,,,,,,,0,1,1,5,,,,,,,AMNE12.jpg,AMNE03.jpg,AMSA06.jpg,AMSA17.jpg,AMSA06.jpg,MS,2,num_2,32,num_4,0.600156072178,,,2017_Jul_27_1447,60.0056006539,MAFE4ImagesEEG,001,200868,
AMNE22.JPG,AMSA24.JPG,AMSA22.JPG,AMNE25.JPG,AMNE24.JPG,AMSA25.JPG,,,,,,,,,,,,,,,,,0,2,2,7,,,,,,,AMNE08.jpg,AMSA19.jpg,AMSA11.jpg,AMNE02.jpg,AMSA19.jpg,MS,2,num_6,32,num_2,0.683483712259,,,2017_Jul_27_1447,60.0056006539,MAFE4ImagesEEG,001,200868,
AFSA21.JPG,AFNE22.JPG,AFNE21.JPG,AFSA23.JPG,AFSA22.JPG,AFNE23.JPG,,,,,,,,,,,,,,,,,0,3,3,0,,,,,,,AMNE15.jpg,AMSA02.jpg,AMSA04.jpg,AMNE11.jpg,AMSA04.jpg,MS,2,num_2,16,num_2,0.716941396589,,,2017_Jul_27_1447,60.0056006539,MAFE4ImagesEEG,001,200868,
AMNE23.JPG,AMNE24.JPG,AMNE22.JPG,AMSA24.JPG,AMSA22.JPG,AMSA23.JPG,,,,,,,,,,,,,,,,,0,4,4,9,,,,,,,AMNE07.jpg,AMSA13.jpg,AMNE05.jpg,AMSA04.jpg,AMSA04.jpg,MS,2,num_4,16,num_4,1.01676412357,,,2017_Jul_27_1447,60.0056006539,MAFE4ImagesEEG,001,200868,
AFNE22.JPG,AFSA24.JPG,AFSA22.JPG,AFNE25.JPG,AFNE24.JPG,AFSA25.JPG,,,,,,,,,,,,,,,,,0,5,5,6,,,,,,,AMNE15.jpg,AMSA18.jpg,AMNE01.jpg,AMSA03.jpg,AMNE01.jpg,MN,1,num_2,32,num_6,0.683336492628,,,2017_Jul_27_1447,60.0056006539,MAFE4ImagesEEG,001,200868,
AFNE23.JPG,AFNE24.JPG,AFNE22.JPG,AFSA24.JPG,AFSA22.JPG,AFSA23.JPG,,,,,,,,,,,,,,,,,0,6,6,8,,,,,,,AMNE17.jpg,AMSA13.jpg,AMSA11.jpg,AMNE01.jpg,AMNE01.jpg,MN,1,num_4,32,num_8,0.900131471339,,,2017_Jul_27_1447,60.0056006539,MAFE4ImagesEEG,001,200868,
AMSA21.JPG,AMNE22.JPG,AMNE21.JPG,AMSA23.JPG,AMSA22.JPG,AMNE23.JPG,,,,,,,,,,,,,,,,,0,7,7,1,,,,,,,AMSA05.jpg,AMSA17.jpg,AMNE03.jpg,AMNE13.jpg,AMSA17.jpg,MS,2,num_6,16,num_6,0.800151004456,,,2017_Jul_27_1447,60.0056006539,MAFE4ImagesEEG,001,200868,
AFSA21.JPG,AFNE23.JPG,AFNE21.JPG,AFSA25.JPG,AFNE25.JPG,AFSA23.JPG,,,,,,,,,,,,,,,,,0,8,8,4,,,,,,,AMNE19.jpg,AMNE03.jpg,AMSA19.jpg,AMSA08.jpg,AMSA19.jpg,MS,2,num_2,16,num_2,1.41672544228,,,2017_Jul_27_1447,60.0056006539,MAFE4ImagesEEG,001,200868,
AFSA25.JPG,AFNE24.JPG,AFSA24.JPG,AFNE21.JPG,AFSA21.JPG,AFNE25.JPG,,,,,,,,,,,,,,,,,0,9,9,2,,,,,,,AMNE10.jpg,AMSA07.jpg,AMSA15.jpg,AMNE16.jpg,AMSA07.jpg,MS,2,num_6,32,num_2,0.850125842378,,,2017_Jul_27_1447,60.0056006539,MAFE4ImagesEEG,001,200868,
AFSA21.JPG,AFNE22.JPG,AFNE21.JPG,AFSA23.JPG,AFSA22.JPG,AFNE23.JPG,,,,,,,,,,,,,,,,,,,,,0,0,0,0,,,AFNE04.jpg,AFSA12.jpg,AFNE10.jpg,AFSA20.jpg,AFNE10.jpg,FN,3,num_2,32,num_8,0.983452055254,,,2017_Jul_27_1447,60.0056006539,MAFE4ImagesEEG,001,200868,
AFSA21.JPG,AFNE23.JPG,AFNE21.JPG,AFSA25.JPG,AFNE25.JPG,AFSA23.JPG,,,,,,,,,,,,,,,,,,,,,0,1,1,4,,,AFSA11.jpg,AFNE07.jpg,AFSA06.jpg,AFNE12.jpg,AFNE12.jpg,FN,3,num_4,32,num_6,1.28347909369,,,2017_Jul_27_1447,60.0056006539,MAFE4ImagesEEG,001,200868,
AFSA25.JPG,AFNE24.JPG,AFSA24.JPG,AFNE21.JPG,AFSA21.JPG,AFNE25.JPG,,,,,,,,,,,,,,,,,,,,,0,2,2,2,,,AFSA14.jpg,AFSA01.jpg,AFNE14.jpg,AFNE01.jpg,AFSA14.jpg,FS,4,num_8,16,num_8,0.733620524057,,,2017_Jul_27_1447,60.0056006539,MAFE4ImagesEEG,001,200868,
AMNE23.JPG,AMNE24.JPG,AMNE22.JPG,AMSA24.JPG,AMSA22.JPG,AMSA23.JPG,,,,,,,,,,,,,,,,,,,,,0,3,3,9,,,AFNE09.jpg,AFSA20.jpg,AFSA03.jpg,AFNE16.jpg,AFNE09.jpg,FN,3,num_8,16,num_8,0.600188146112,,,2017_Jul_27_1447,60.0056006539,MAFE4ImagesEEG,001,200868,
AMSA25.JPG,AMNE24.JPG,AMSA24.JPG,AMNE26.JPG,AMSA21.JPG,AMNE25.JPG,,,,,,,,,,,,,,,,,,,,,0,4,4,3,,,AFSA18.jpg,AFSA16.jpg,AFNE15.jpg,AFNE16.jpg,AFNE16.jpg,FN,3,num_4,32,num_2,0.816841678577,,,2017_Jul_27_1447,60.0056006539,MAFE4ImagesEEG,001,200868,
AMNE22.JPG,AMSA24.JPG,AMSA22.JPG,AMNE25.JPG,AMNE24.JPG,AMSA25.JPG,,,,,,,,,,,,,,,,,,,,,0,5,5,7,,,AFNE10.jpg,AFSA17.jpg,AFSA19.jpg,AFNE01.jpg,AFSA19.jpg,FS,4,num_2,32,num_6,0.466819274821,,,2017_Jul_27_1447,60.0056006539,MAFE4ImagesEEG,001,200868,
AMSA21.JPG,AMNE23.JPG,AMNE21.JPG,AMSA25.JPG,AMNE25.JPG,AMSA23.JPG,,,,,,,,,,,,,,,,,,,,,0,6,6,5,,,AFSA17.jpg,AFNE20.jpg,AFNE15.jpg,AFSA06.jpg,AFSA17.jpg,FS,4,num_8,32,num_4,0.550138254999,,,2017_Jul_27_1447,60.0056006539,MAFE4ImagesEEG,001,200868,
AMSA21.JPG,AMNE22.JPG,AMNE21.JPG,AMSA23.JPG,AMSA22.JPG,AMNE23.JPG,,,,,,,,,,,,,,,,,,,,,0,7,7,1,,,AFSA11.jpg,AFNE12.jpg,AFSA04.jpg,AFNE05.jpg,AFNE05.jpg,FN,3,num_4,32,num_8,0.350204584072,,,2017_Jul_27_1447,60.0056006539,MAFE4ImagesEEG,001,200868,
AFNE22.JPG,AFSA24.JPG,AFSA22.JPG,AFNE25.JPG,AFNE24.JPG,AFSA25.JPG,,,,,,,,,,,,,,,,,,,,,0,8,8,6,,,AFSA04.jpg,AFNE17.jpg,AFNE07.jpg,AFSA05.jpg,AFNE17.jpg,FN,3,num_6,16,num_6,0.450171900564,,,2017_Jul_27_1447,60.0056006539,MAFE4ImagesEEG,001,200868,
AFNE23.JPG,AFNE24.JPG,AFNE22.JPG,AFSA24.JPG,AFSA22.JPG,AFSA23.JPG,,,,,,,,,,,,,,,,,,,,,0,9,9,8,,,AFNE12.jpg,AFSA13.jpg,AFNE20.jpg,AFSA09.jpg,AFSA09.jpg,FS,4,num_4,32,num_2,0.733517566463,,,2017_Jul_27_1447,60.0056006539,MAFE4ImagesEEG,001,200868,
,,,,,,,,,,,,,,,,,,,,,,,,,,,,,,,,,,,,,,,,,,,space,4.76642806816,2017_Jul_27_1447,60.0056006539,MAFE4ImagesEEG,001,200868,
AFNE01.JPG,AFNE01.JPG,AFNE01.JPG,AFNE01.JPG,AFNE01.JPG,AFNE01.JPG,0,0,0,4,,,,,,,,,,,,,,,,,,,,,,,AMSA20.jpg,AMNE14.jpg,AMSA15.jpg,AMNE20.jpg,AMSA20.jpg,MS,2,num_8,16,num_8,0.58350966021,,,2017_Jul_27_1447,60.0056006539,MAFE4ImagesEEG,001,200868,
AFNE01.JPG,AFNE01.JPG,AFNE01.JPG,AFNE01.JPG,AFNE01.JPG,AFNE01.JPG,0,1,1,5,,,,,,,,,,,,,,,,,,,,,,,AMSA12.jpg,AMNE11.jpg,AMSA15.jpg,AMNE13.jpg,AMNE13.jpg,MN,1,num_4,32,num_6,0.800123741501,,,2017_Jul_27_1447,60.0056006539,MAFE4ImagesEEG,001,200868,
AFNE01.JPG,AFNE01.JPG,AFNE01.JPG,AFNE01.JPG,AFNE01.JPG,AFNE01.JPG,0,2,2,0,,,,,,,,,,,,,,,,,,,,,,,AMSA01.jpg,AMNE20.jpg,AMNE03.jpg,AMSA15.jpg,AMNE20.jpg,MN,1,num_6,16,num_6,0.766815201496,,,2017_Jul_27_1447,60.0056006539,MAFE4ImagesEEG,001,200868,
AFNE01.JPG,AFNE01.JPG,AFNE01.JPG,AFNE01.JPG,AFNE01.JPG,AFNE01.JPG,0,3,3,7,,,,,,,,,,,,,,,,,,,,,,,AMNE15.jpg,AMSA03.jpg,AMSA04.jpg,AMNE09.jpg,AMNE09.jpg,MN,1,num_4,32,num_8,0.716799950227,,,2017_Jul_27_1447,60.0056006539,MAFE4ImagesEEG,001,200868,
AFNE01.JPG,AFNE01.JPG,AFNE01.JPG,AFNE01.JPG,AFNE01.JPG,AFNE01.JPG,0,4,4,9,,,,,,,,,,,,,,,,,,,,,,,AMSA11.jpg,AMNE01.jpg,AMNE09.jpg,AMSA17.jpg,AMNE01.jpg,MN,1,num_6,16,num_6,0.833475260879,,,2017_Jul_27_1447,60.0056006539,MAFE4ImagesEEG,001,200868,
AFNE01.JPG,AFNE01.JPG,AFNE01.JPG,AFNE01.JPG,AFNE01.JPG,AFNE01.JPG,0,5,5,1,,,,,,,,,,,,,,,,,,,,,,,AMNE07.jpg,AMSA13.jpg,AMSA10.jpg,AMNE11.jpg,AMSA10.jpg,MS,2,num_2,32,num_8,0.866803686833,,,2017_Jul_27_1447,60.0056006539,MAFE4ImagesEEG,001,200868,
AFNE01.JPG,AFNE01.JPG,AFNE01.JPG,AFNE01.JPG,AFNE01.JPG,AFNE01.JPG,0,6,6,2,,,,,,,,,,,,,,,,,,,,,,,AMNE10.jpg,AMSA02.jpg,AMSA10.jpg,AMNE11.jpg,AMSA10.jpg,MS,2,num_2,32,num_6,1.21673564182,,,2017_Jul_27_1447,60.0056006539,MAFE4ImagesEEG,001,200868,
AFNE01.JPG,AFNE01.JPG,AFNE01.JPG,AFNE01.JPG,AFNE01.JPG,AFNE01.JPG,0,7,7,8,,,,,,,,,,,,,,,,,,,,,,,AMSA04.jpg,AMNE05.jpg,AMSA12.jpg,AMNE04.jpg,AMNE04.jpg,MN,1,num_4,32,num_6,1.06681818434,,,2017_Jul_27_1447,60.0056006539,MAFE4ImagesEEG,001,200868,
AFNE01.JPG,AFNE01.JPG,AFNE01.JPG,AFNE01.JPG,AFNE01.JPG,AFNE01.JPG,0,8,8,3,,,,,,,,,,,,,,,,,,,,,,,AMSA11.jpg,AMNE01.jpg,AMSA06.jpg,AMNE17.jpg,AMSA06.jpg,MS,2,num_2,32,num_6,1.66677732195,,,2017_Jul_27_1447,60.0056006539,MAFE4ImagesEEG,001,200868,
AFNE01.JPG,AFNE01.JPG,AFNE01.JPG,AFNE01.JPG,AFNE01.JPG,AFNE01.JPG,0,9,9,6,,,,,,,,,,,,,,,,,,,,,,,AMNE02.jpg,AMSA16.jpg,AMNE16.jpg,AMSA17.jpg,AMNE02.jpg,MN,1,num_8,32,num_4,1.25008876482,,,2017_Jul_27_1447,60.0056006539,MAFE4ImagesEEG,001,200868,
AFNE01.JPG,AFNE01.JPG,AFNE01.JPG,AFNE01.JPG,AFNE01.JPG,AFNE01.JPG,1,0,10,2,,,,,,,,,,,,,,,,,,,,,,,AMNE17.jpg,AMSA19.jpg,AMSA06.jpg,AMNE16.jpg,AMNE17.jpg,MN,1,num_8,16,num_8,0.816774323117,,,2017_Jul_27_1447,60.0056006539,MAFE4ImagesEEG,001,200868,
AFNE01.JPG,AFNE01.JPG,AFNE01.JPG,AFNE01.JPG,AFNE01.JPG,AFNE01.JPG,1,1,11,4,,,,,,,,,,,,,,,,,,,,,,,AMNE18.jpg,AMSA16.jpg,AMNE07.jpg,AMSA02.jpg,AMSA16.jpg,MS,2,num_6,16,num_6,0.750142488861,,,2017_Jul_27_1447,60.0056006539,MAFE4ImagesEEG,001,200868,
AFNE01.JPG,AFNE01.JPG,AFNE01.JPG,AFNE01.JPG,AFNE01.JPG,AFNE01.JPG,1,2,12,5,,,,,,,,,,,,,,,,,,,,,,,AMSA19.jpg,AMSA09.jpg,AMNE03.jpg,AMNE10.jpg,AMNE03.jpg,MN,1,num_2,16,num_2,0.966767475242,,,2017_Jul_27_1447,60.0056006539,MAFE4ImagesEEG,001,200868,
AFNE01.JPG,AFNE01.JPG,AFNE01.JPG,AFNE01.JPG,AFNE01.JPG,AFNE01.JPG,1,3,13,1,,,,,,,,,,,,,,,,,,,,,,,AMNE06.jpg,AMSA02.jpg,AMSA03.jpg,AMNE13.jpg,AMNE06.jpg,MN,1,num_8,16,num_8,0.866783159436,,,2017_Jul_27_1447,60.0056006539,MAFE4ImagesEEG,001,200868,
AFNE01.JPG,AFNE01.JPG,AFNE01.JPG,AFNE01.JPG,AFNE01.JPG,AFNE01.JPG,1,4,14,6,,,,,,,,,,,,,,,,,,,,,,,AMSA01.jpg,AMNE12.jpg,AMSA03.jpg,AMNE14.jpg,AMNE14.jpg,MN,1,num_4,32,num_6,0.933483632049,,,2017_Jul_27_1447,60.0056006539,MAFE4ImagesEEG,001,200868,
AFNE01.JPG,AFNE01.JPG,AFNE01.JPG,AFNE01.JPG,AFNE01.JPG,AFNE01.JPG,1,5,15,0,,,,,,,,,,,,,,,,,,,,,,,AMNE17.jpg,AMSA14.jpg,AMNE14.jpg,AMSA03.jpg,AMNE17.jpg,MN,1,num_8,16,num_8,0.983521335176,,,2017_Jul_27_1447,60.0056006539,MAFE4ImagesEEG,001,200868,
AFNE01.JPG,AFNE01.JPG,AFNE01.JPG,AFNE01.JPG,AFNE01.JPG,AFNE01.JPG,1,6,16,7,,,,,,,,,,,,,,,,,,,,,,,AMSA17.jpg,AMSA12.jpg,AMNE06.jpg,AMNE20.jpg,AMNE06.jpg,MN,1,num_2,32,num_8,0.833509580116,,,2017_Jul_27_1447,60.0056006539,MAFE4ImagesEEG,001,200868,
AFNE01.JPG,AFNE01.JPG,AFNE01.JPG,AFNE01.JPG,AFNE01.JPG,AFNE01.JPG,1,7,17,9,,,,,,,,,,,,,,,,,,,,,,,AMSA14.jpg,AMNE08.jpg,AMNE13.jpg,AMSA18.jpg,AMSA14.jpg,MS,2,num_8,32,num_6,1.11688186717,,,2017_Jul_27_1447,60.0056006539,MAFE4ImagesEEG,001,200868,
AFNE01.JPG,AFNE01.JPG,AFNE01.JPG,AFNE01.JPG,AFNE01.JPG,AFNE01.JPG,1,8,18,8,,,,,,,,,,,,,,,,,,,,,,,AMSA08.jpg,AMNE13.jpg,AMNE02.jpg,AMSA15.jpg,AMSA15.jpg,MS,2,num_4,16,num_4,0.933768770075,,,2017_Jul_27_1447,60.0056006539,MAFE4ImagesEEG,001,200868,
AFNE01.JPG,AFNE01.JPG,AFNE01.JPG,AFNE01.JPG,AFNE01.JPG,AFNE01.JPG,1,9,19,3,,,,,,,,,,,,,,,,,,,,,,,AMSA03.jpg,AMNE06.jpg,AMNE03.jpg,AMSA02.jpg,AMNE06.jpg,MN,1,num_6,32,num_8,0.900159375742,,,2017_Jul_27_1447,60.0056006539,MAFE4ImagesEEG,001,200868,
AFNE01.JPG,AFNE01.JPG,AFNE01.JPG,AFNE01.JPG,AFNE01.JPG,AFNE01.JPG,2,0,20,7,,,,,,,,,,,,,,,,,,,,,,,AMSA12.jpg,AMSA11.jpg,AMNE11.jpg,AMNE12.jpg,AMNE12.jpg,MN,1,num_4,32,num_6,0.616812747787,,,2017_Jul_27_1447,60.0056006539,MAFE4ImagesEEG,001,200868,
AFNE01.JPG,AFNE01.JPG,AFNE01.JPG,AFNE01.JPG,AFNE01.JPG,AFNE01.JPG,2,1,21,1,,,,,,,,,,,,,,,,,,,,,,,AMSA01.jpg,AMSA08.jpg,AMNE06.jpg,AMNE19.jpg,AMNE19.jpg,MN,1,num_4,32,num_8,0.666774756042,,,2017_Jul_27_1447,60.0056006539,MAFE4ImagesEEG,001,200868,
AFNE01.JPG,AFNE01.JPG,AFNE01.JPG,AFNE01.JPG,AFNE01.JPG,AFNE01.JPG,2,2,22,8,,,,,,,,,,,,,,,,,,,,,,,AMNE15.jpg,AMSA12.jpg,AMNE14.jpg,AMSA13.jpg,AMNE15.jpg,MN,1,num_8,16,num_8,0.61677586264,,,2017_Jul_27_1447,60.0056006539,MAFE4ImagesEEG,001,200868,
AFNE01.JPG,AFNE01.JPG,AFNE01.JPG,AFNE01.JPG,AFNE01.JPG,AFNE01.JPG,2,3,23,5,,,,,,,,,,,,,,,,,,,,,,,AMSA04.jpg,AMNE08.jpg,AMNE13.jpg,AMSA06.jpg,AMNE08.jpg,MN,1,num_6,16,num_6,1.73334629124,,,2017_Jul_27_1447,60.0056006539,MAFE4ImagesEEG,001,200868,
AFNE01.JPG,AFNE01.JPG,AFNE01.JPG,AFNE01.JPG,AFNE01.JPG,AFNE01.JPG,2,4,24,6,,,,,,,,,,,,,,,,,,,,,,,AMNE12.jpg,AMSA08.jpg,AMSA20.jpg,AMNE06.jpg,AMSA20.jpg,MS,2,num_2,32,num_6,0.650218472118,,,2017_Jul_27_1447,60.0056006539,MAFE4ImagesEEG,001,200868,
AFNE01.JPG,AFNE01.JPG,AFNE01.JPG,AFNE01.JPG,AFNE01.JPG,AFNE01.JPG,2,5,25,0,,,,,,,,,,,,,,,,,,,,,,,AMNE19.jpg,AMSA14.jpg,AMNE04.jpg,AMSA09.jpg,AMNE04.jpg,MN,1,num_2,16,num_2,0.816773360828,,,2017_Jul_27_1447,60.0056006539,MAFE4ImagesEEG,001,200868,
AFNE01.JPG,AFNE01.JPG,AFNE01.JPG,AFNE01.JPG,AFNE01.JPG,AFNE01.JPG,2,6,26,2,,,,,,,,,,,,,,,,,,,,,,,AMNE17.jpg,AMNE07.jpg,AMSA01.jpg,AMSA08.jpg,AMSA01.jpg,MS,2,num_2,16,num_2,1.01680197089,,,2017_Jul_27_1447,60.0056006539,MAFE4ImagesEEG,001,200868,
AFNE01.JPG,AFNE01.JPG,AFNE01.JPG,AFNE01.JPG,AFNE01.JPG,AFNE01.JPG,2,7,27,4,,,,,,,,,,,,,,,,,,,,,,,AMSA01.jpg,AMNE13.jpg,AMSA12.jpg,AMNE18.jpg,AMNE13.jpg,MN,1,num_6,16,num_6,0.850031224079,,,2017_Jul_27_1447,60.0056006539,MAFE4ImagesEEG,001,200868,
AFNE01.JPG,AFNE01.JPG,AFNE01.JPG,AFNE01.JPG,AFNE01.JPG,AFNE01.JPG,2,8,28,3,,,,,,,,,,,,,,,,,,,,,,,AMSA01.jpg,AMSA18.jpg,AMNE17.jpg,AMNE16.jpg,AMSA01.jpg,MS,2,num_8,32,num_6,0.616816917318,,,2017_Jul_27_1447,60.0056006539,MAFE4ImagesEEG,001,200868,
AFNE01.JPG,AFNE01.JPG,AFNE01.JPG,AFNE01.JPG,AFNE01.JPG,AFNE01.JPG,2,9,29,9,,,,,,,,,,,,,,,,,,,,,,,AMSA04.jpg,AMNE11.jpg,AMSA03.jpg,AMNE07.jpg,AMNE07.jpg,MN,1,num_4,32,num_2,0.933461821754,,,2017_Jul_27_1447,60.0056006539,MAFE4ImagesEEG,001,200868,
AFNE01.JPG,AFNE01.JPG,AFNE01.JPG,AFNE01.JPG,AFNE01.JPG,AFNE01.JPG,3,0,30,7,,,,,,,,,,,,,,,,,,,,,,,AMNE06.jpg,AMSA12.jpg,AMSA06.jpg,AMNE19.jpg,AMNE06.jpg,MN,1,num_8,16,num_8,0.350144605734,,,2017_Jul_27_1447,60.0056006539,MAFE4ImagesEEG,001,200868,
AFNE01.JPG,AFNE01.JPG,AFNE01.JPG,AFNE01.JPG,AFNE01.JPG,AFNE01.JPG,3,1,31,1,,,,,,,,,,,,,,,,,,,,,,,AMSA19.jpg,AMNE19.jpg,AMNE15.jpg,AMSA05.jpg,AMNE15.jpg,MN,1,num_2,32,num_6,0.566811609082,,,2017_Jul_27_1447,60.0056006539,MAFE4ImagesEEG,001,200868,
AFNE01.JPG,AFNE01.JPG,AFNE01.JPG,AFNE01.JPG,AFNE01.JPG,AFNE01.JPG,3,2,32,0,,,,,,,,,,,,,,,,,,,,,,,AMSA11.jpg,AMSA10.jpg,AMNE11.jpg,AMNE13.jpg,AMNE11.jpg,MN,1,num_2,32,num_8,0.800373918843,,,2017_Jul_27_1447,60.0056006539,MAFE4ImagesEEG,001,200868,
AFNE01.JPG,AFNE01.JPG,AFNE01.JPG,AFNE01.JPG,AFNE01.JPG,AFNE01.JPG,3,3,33,8,,,,,,,,,,,,,,,,,,,,,,,AMNE06.jpg,AMNE05.jpg,AMSA08.jpg,AMSA19.jpg,AMNE05.jpg,MN,1,num_6,16,num_6,0.950087385601,,,2017_Jul_27_1447,60.0056006539,MAFE4ImagesEEG,001,200868,
AFNE01.JPG,AFNE01.JPG,AFNE01.JPG,AFNE01.JPG,AFNE01.JPG,AFNE01.JPG,3,4,34,9,,,,,,,,,,,,,,,,,,,,,,,AMNE04.jpg,AMSA09.jpg,AMNE01.jpg,AMSA12.jpg,AMSA12.jpg,MS,2,num_4,32,num_8,0.483517005108,,,2017_Jul_27_1447,60.0056006539,MAFE4ImagesEEG,001,200868,
AFNE01.JPG,AFNE01.JPG,AFNE01.JPG,AFNE01.JPG,AFNE01.JPG,AFNE01.JPG,3,5,35,2,,,,,,,,,,,,,,,,,,,,,,,AMNE09.jpg,AMSA20.jpg,AMSA12.jpg,AMNE13.jpg,AMSA20.jpg,MS,2,num_6,32,num_8,0.550158461672,,,2017_Jul_27_1447,60.0056006539,MAFE4ImagesEEG,001,200868,
AFNE01.JPG,AFNE01.JPG,AFNE01.JPG,AFNE01.JPG,AFNE01.JPG,AFNE01.JPG,3,6,36,3,,,,,,,,,,,,,,,,,,,,,,,AMNE11.jpg,AMSA09.jpg,AMNE04.jpg,AMSA14.jpg,AMSA14.jpg,MS,2,num_4,32,num_6,0.533470032737,,,2017_Jul_27_1447,60.0056006539,MAFE4ImagesEEG,001,200868,
AFNE01.JPG,AFNE01.JPG,AFNE01.JPG,AFNE01.JPG,AFNE01.JPG,AFNE01.JPG,3,7,37,4,,,,,,,,,,,,,,,,,,,,,,,AMSA12.jpg,AMNE06.jpg,AMSA07.jpg,AMNE18.jpg,AMSA07.jpg,MS,2,num_2,32,num_8,0.433856813237,,,2017_Jul_27_1447,60.0056006539,MAFE4ImagesEEG,001,200868,
AFNE01.JPG,AFNE01.JPG,AFNE01.JPG,AFNE01.JPG,AFNE01.JPG,AFNE01.JPG,3,8,38,6,,,,,,,,,,,,,,,,,,,,,,,AMNE19.jpg,AMNE09.jpg,AMSA07.jpg,AMSA09.jpg,AMSA09.jpg,MS,2,num_4,32,num_6,0.616812427063,,,2017_Jul_27_1447,60.0056006539,MAFE4ImagesEEG,001,200868,
AFNE01.JPG,AFNE01.JPG,AFNE01.JPG,AFNE01.JPG,AFNE01.JPG,AFNE01.JPG,3,9,39,5,,,,,,,,,,,,,,,,,,,,,,,AMNE08.jpg,AMSA20.jpg,AMSA09.jpg,AMNE15.jpg,AMSA09.jpg,MS,2,num_2,32,num_8,0.566815458005,,,2017_Jul_27_1447,60.0056006539,MAFE4ImagesEEG,001,200868,
AFNE01.JPG,AFNE01.JPG,AFNE01.JPG,AFNE01.JPG,AFNE01.JPG,AFNE01.JPG,4,0,40,9,,,,,,,,,,,,,,,,,,,,,,,AMNE17.jpg,AMSA16.jpg,AMSA07.jpg,AMNE02.jpg,AMNE17.jpg,MN,1,num_8,32,num_6,0.583454813692,,,2017_Jul_27_1447,60.0056006539,MAFE4ImagesEEG,001,200868,
AFNE01.JPG,AFNE01.JPG,AFNE01.JPG,AFNE01.JPG,AFNE01.JPG,AFNE01.JPG,4,1,41,5,,,,,,,,,,,,,,,,,,,,,,,AMSA08.jpg,AMSA16.jpg,AMNE05.jpg,AMNE12.jpg,AMNE05.jpg,MN,1,num_2,32,num_8,0.383486823528,,,2017_Jul_27_1447,60.0056006539,MAFE4ImagesEEG,001,200868,
AFNE01.JPG,AFNE01.JPG,AFNE01.JPG,AFNE01.JPG,AFNE01.JPG,AFNE01.JPG,4,2,42,3,,,,,,,,,,,,,,,,,,,,,,,AMNE07.jpg,AMSA08.jpg,AMSA07.jpg,AMNE19.jpg,AMSA07.jpg,MS,2,num_2,16,num_2,0.466865140595,,,2017_Jul_27_1447,60.0056006539,MAFE4ImagesEEG,001,200868,
AFNE01.JPG,AFNE01.JPG,AFNE01.JPG,AFNE01.JPG,AFNE01.JPG,AFNE01.JPG,4,3,43,6,,,,,,,,,,,,,,,,,,,,,,,AMSA18.jpg,AMSA16.jpg,AMNE20.jpg,AMNE15.jpg,AMNE15.jpg,MN,1,num_4,32,num_6,0.350126002799,,,2017_Jul_27_1447,60.0056006539,MAFE4ImagesEEG,001,200868,
AFNE01.JPG,AFNE01.JPG,AFNE01.JPG,AFNE01.JPG,AFNE01.JPG,AFNE01.JPG,4,4,44,1,,,,,,,,,,,,,,,,,,,,,,,AMSA19.jpg,AMSA07.jpg,AMNE12.jpg,AMNE11.jpg,AMSA19.jpg,MS,2,num_8,32,num_6,0.483348937356,,,2017_Jul_27_1447,60.0056006539,MAFE4ImagesEEG,001,200868,
AFNE01.JPG,AFNE01.JPG,AFNE01.JPG,AFNE01.JPG,AFNE01.JPG,AFNE01.JPG,4,5,45,2,,,,,,,,,,,,,,,,,,,,,,,AMSA20.jpg,AMNE20.jpg,AMNE06.jpg,AMSA10.jpg,AMNE06.jpg,MN,1,num_2,32,num_8,0.650136041921,,,2017_Jul_27_1447,60.0056006539,MAFE4ImagesEEG,001,200868,
AFNE01.JPG,AFNE01.JPG,AFNE01.JPG,AFNE01.JPG,AFNE01.JPG,AFNE01.JPG,4,6,46,8,,,,,,,,,,,,,,,,,,,,,,,AMSA17.jpg,AMNE16.jpg,AMNE08.jpg,AMSA08.jpg,AMSA17.jpg,MS,2,num_8,16,num_8,0.400216627866,,,2017_Jul_27_1447,60.0056006539,MAFE4ImagesEEG,001,200868,
AFNE01.JPG,AFNE01.JPG,AFNE01.JPG,AFNE01.JPG,AFNE01.JPG,AFNE01.JPG,4,7,47,0,,,,,,,,,,,,,,,,,,,,,,,AMSA18.jpg,AMNE18.jpg,AMSA08.jpg,AMNE16.jpg,AMSA08.jpg,MS,2,num_2,32,num_6,0.416786062182,,,2017_Jul_27_1447,60.0056006539,MAFE4ImagesEEG,001,200868,
AFNE01.JPG,AFNE01.JPG,AFNE01.JPG,AFNE01.JPG,AFNE01.JPG,AFNE01.JPG,4,8,48,4,,,,,,,,,,,,,,,,,,,,,,,AMSA01.jpg,AMSA11.jpg,AMNE10.jpg,AMNE08.jpg,AMSA01.jpg,MS,2,num_8,32,num_4,0.616691507981,,,2017_Jul_27_1447,60.0056006539,MAFE4ImagesEEG,001,200868,
AFNE01.JPG,AFNE01.JPG,AFNE01.JPG,AFNE01.JPG,AFNE01.JPG,AFNE01.JPG,4,9,49,7,,,,,,,,,,,,,,,,,,,,,,,AMNE17.jpg,AMNE13.jpg,AMSA17.jpg,AMSA08.jpg,AMSA08.jpg,MS,2,num_4,32,num_8,0.583586958586,,,2017_Jul_27_1447,60.0056006539,MAFE4ImagesEEG,001,200868,
AFNE01.JPG,AFNE01.JPG,AFNE01.JPG,AFNE01.JPG,AFNE01.JPG,AFNE01.JPG,5,0,50,3,,,,,,,,,,,,,,,,,,,,,,,AMNE04.jpg,AMNE05.jpg,AMSA12.jpg,AMSA08.jpg,AMNE05.jpg,MN,1,num_6,16,num_6,0.716813421343,,,2017_Jul_27_1447,60.0056006539,MAFE4ImagesEEG,001,200868,
AFNE01.JPG,AFNE01.JPG,AFNE01.JPG,AFNE01.JPG,AFNE01.JPG,AFNE01.JPG,5,1,51,1,,,,,,,,,,,,,,,,,,,,,,,AMSA12.jpg,AMSA08.jpg,AMNE18.jpg,AMNE08.jpg,AMNE08.jpg,MN,1,num_4,32,num_8,0.616724223481,,,2017_Jul_27_1447,60.0056006539,MAFE4ImagesEEG,001,200868,
AFNE01.JPG,AFNE01.JPG,AFNE01.JPG,AFNE01.JPG,AFNE01.JPG,AFNE01.JPG,5,2,52,0,,,,,,,,,,,,,,,,,,,,,,,AMSA08.jpg,AMNE07.jpg,AMSA04.jpg,AMNE02.jpg,AMNE02.jpg,MN,1,num_4,32,num_8,0.900137565448,,,2017_Jul_27_1447,60.0056006539,MAFE4ImagesEEG,001,200868,
AFNE01.JPG,AFNE01.JPG,AFNE01.JPG,AFNE01.JPG,AFNE01.JPG,AFNE01.JPG,5,3,53,2,,,,,,,,,,,,,,,,,,,,,,,AMSA05.jpg,AMNE16.jpg,AMNE17.jpg,AMSA18.jpg,AMSA18.jpg,MS,2,num_4,32,num_8,1.53344758088,,,2017_Jul_27_1447,60.0056006539,MAFE4ImagesEEG,001,200868,
AFNE01.JPG,AFNE01.JPG,AFNE01.JPG,AFNE01.JPG,AFNE01.JPG,AFNE01.JPG,5,4,54,6,,,,,,,,,,,,,,,,,,,,,,,AMSA15.jpg,AMNE08.jpg,AMSA09.jpg,AMNE19.jpg,AMSA09.jpg,MS,2,num_2,32,num_8,0.86678091425,,,2017_Jul_27_1447,60.0056006539,MAFE4ImagesEEG,001,200868,
AFNE01.JPG,AFNE01.JPG,AFNE01.JPG,AFNE01.JPG,AFNE01.JPG,AFNE01.JPG,5,5,55,8,,,,,,,,,,,,,,,,,,,,,,,AMSA18.jpg,AMNE11.jpg,AMNE02.jpg,AMSA11.jpg,AMNE02.jpg,MN,1,num_2,32,num_6,0.700022676261,,,2017_Jul_27_1447,60.0056006539,MAFE4ImagesEEG,001,200868,
AFNE01.JPG,AFNE01.JPG,AFNE01.JPG,AFNE01.JPG,AFNE01.JPG,AFNE01.JPG,5,6,56,4,,,,,,,,,,,,,,,,,,,,,,,AMNE01.jpg,AMNE03.jpg,AMSA18.jpg,AMSA16.jpg,AMNE01.jpg,MN,1,num_8,16,num_8,0.65051323222,,,2017_Jul_27_1447,60.0056006539,MAFE4ImagesEEG,001,200868,
AFNE01.JPG,AFNE01.JPG,AFNE01.JPG,AFNE01.JPG,AFNE01.JPG,AFNE01.JPG,5,7,57,9,,,,,,,,,,,,,,,,,,,,,,,AMNE04.jpg,AMNE18.jpg,AMSA04.jpg,AMSA10.jpg,AMSA10.jpg,MS,2,num_4,32,num_2,0.466764107463,,,2017_Jul_27_1447,60.0056006539,MAFE4ImagesEEG,001,200868,
AFNE01.JPG,AFNE01.JPG,AFNE01.JPG,AFNE01.JPG,AFNE01.JPG,AFNE01.JPG,5,8,58,5,,,,,,,,,,,,,,,,,,,,,,,AMSA17.jpg,AMNE15.jpg,AMNE11.jpg,AMSA01.jpg,AMSA01.jpg,MS,2,num_4,32,num_8,0.68349205167,,,2017_Jul_27_1447,60.0056006539,MAFE4ImagesEEG,001,200868,
AFNE01.JPG,AFNE01.JPG,AFNE01.JPG,AFNE01.JPG,AFNE01.JPG,AFNE01.JPG,5,9,59,7,,,,,,,,,,,,,,,,,,,,,,,AMSA16.jpg,AMSA02.jpg,AMNE03.jpg,AMNE09.jpg,AMNE03.jpg,MN,1,num_2,32,num_8,0.800130156334,,,2017_Jul_27_1447,60.0056006539,MAFE4ImagesEEG,001,200868,
,,,,,,,,,,,,,,,,,,,,,,,,,,,,,,,,,,,,,,,,,,,space,16.9152501981,2017_Jul_27_1447,60.0056006539,MAFE4ImagesEEG,001,200868,
AFNE01.JPG,AFNE01.JPG,AFNE01.JPG,AFNE01.JPG,AFNE01.JPG,AFNE01.JPG,,,,,0,0,0,8,,,,,,,,,,,,,,,,,,,AFSA10.jpg,AFNE20.jpg,AFSA19.jpg,AFNE15.jpg,AFSA10.jpg,FS,4,num_8,32,num_4,0.850112691987,,,2017_Jul_27_1447,60.0056006539,MAFE4ImagesEEG,001,200868,
AFNE01.JPG,AFNE01.JPG,AFNE01.JPG,AFNE01.JPG,AFNE01.JPG,AFNE01.JPG,,,,,0,1,1,0,,,,,,,,,,,,,,,,,,,AFNE14.jpg,AFSA20.jpg,AFNE13.jpg,AFSA02.jpg,AFSA20.jpg,FS,4,num_6,16,num_6,0.700096767279,,,2017_Jul_27_1447,60.0056006539,MAFE4ImagesEEG,001,200868,
AFNE01.JPG,AFNE01.JPG,AFNE01.JPG,AFNE01.JPG,AFNE01.JPG,AFNE01.JPG,,,,,0,2,2,9,,,,,,,,,,,,,,,,,,,AFNE06.jpg,AFNE07.jpg,AFSA09.jpg,AFSA01.jpg,AFNE07.jpg,FN,3,num_6,32,num_8,0.900391591596,,,2017_Jul_27_1447,60.0056006539,MAFE4ImagesEEG,001,200868,
AFNE01.JPG,AFNE01.JPG,AFNE01.JPG,AFNE01.JPG,AFNE01.JPG,AFNE01.JPG,,,,,0,3,3,5,,,,,,,,,,,,,,,,,,,AFNE10.jpg,AFSA04.jpg,AFSA09.jpg,AFNE06.jpg,AFNE10.jpg,FN,3,num_8,16,num_8,0.816767266835,,,2017_Jul_27_1447,60.0056006539,MAFE4ImagesEEG,001,200868,
AFNE01.JPG,AFNE01.JPG,AFNE01.JPG,AFNE01.JPG,AFNE01.JPG,AFNE01.JPG,,,,,0,4,4,7,,,,,,,,,,,,,,,,,,,AFSA11.jpg,AFNE07.jpg,AFNE02.jpg,AFSA16.jpg,AFSA11.jpg,FS,4,num_8,32,num_6,0.98348348774,,,2017_Jul_27_1447,60.0056006539,MAFE4ImagesEEG,001,200868,
AFNE01.JPG,AFNE01.JPG,AFNE01.JPG,AFNE01.JPG,AFNE01.JPG,AFNE01.JPG,,,,,0,5,5,4,,,,,,,,,,,,,,,,,,,AFNE18.jpg,AFSA12.jpg,AFNE03.jpg,AFSA16.jpg,AFSA16.jpg,FS,4,num_4,16,num_4,1.01684495015,,,2017_Jul_27_1447,60.0056006539,MAFE4ImagesEEG,001,200868,
AFNE01.JPG,AFNE01.JPG,AFNE01.JPG,AFNE01.JPG,AFNE01.JPG,AFNE01.JPG,,,,,0,6,6,3,,,,,,,,,,,,,,,,,,,AFNE17.jpg,AFNE12.jpg,AFSA14.jpg,AFSA06.jpg,AFNE17.jpg,FN,3,num_8,16,num_8,0.766778316232,,,2017_Jul_27_1447,60.0056006539,MAFE4ImagesEEG,001,200868,
AFNE01.JPG,AFNE01.JPG,AFNE01.JPG,AFNE01.JPG,AFNE01.JPG,AFNE01.JPG,,,,,0,7,7,6,,,,,,,,,,,,,,,,,,,AFSA03.jpg,AFNE19.jpg,AFSA02.jpg,AFNE13.jpg,AFSA03.jpg,FS,4,num_8,32,num_4,1.18347232614,,,2017_Jul_27_1447,60.0056006539,MAFE4ImagesEEG,001,200868,
AFNE01.JPG,AFNE01.JPG,AFNE01.JPG,AFNE01.JPG,AFNE01.JPG,AFNE01.JPG,,,,,0,8,8,2,,,,,,,,,,,,,,,,,,,AFSA10.jpg,AFNE18.jpg,AFNE05.jpg,AFSA20.jpg,AFSA10.jpg,FS,4,num_8,32,num_6,1.13345803716,,,2017_Jul_27_1447,60.0056006539,MAFE4ImagesEEG,001,200868,
AFNE01.JPG,AFNE01.JPG,AFNE01.JPG,AFNE01.JPG,AFNE01.JPG,AFNE01.JPG,,,,,0,9,9,1,,,,,,,,,,,,,,,,,,,AFNE19.jpg,AFNE16.jpg,AFSA16.jpg,AFSA10.jpg,AFNE19.jpg,FN,3,num_8,32,num_4,1.30011812854,,,2017_Jul_27_1447,60.0056006539,MAFE4ImagesEEG,001,200868,
AFNE01.JPG,AFNE01.JPG,AFNE01.JPG,AFNE01.JPG,AFNE01.JPG,AFNE01.JPG,,,,,1,0,10,0,,,,,,,,,,,,,,,,,,,AFNE12.jpg,AFSA10.jpg,AFSA05.jpg,AFNE09.jpg,AFSA05.jpg,FS,4,num_2,16,num_2,1.10024411534,,,2017_Jul_27_1447,60.0056006539,MAFE4ImagesEEG,001,200868,
AFNE01.JPG,AFNE01.JPG,AFNE01.JPG,AFNE01.JPG,AFNE01.JPG,AFNE01.JPG,,,,,1,1,11,3,,,,,,,,,,,,,,,,,,,AFSA08.jpg,AFNE17.jpg,AFNE14.jpg,AFSA11.jpg,AFNE14.jpg,FN,3,num_2,32,num_6,0.850130012026,,,2017_Jul_27_1447,60.0056006539,MAFE4ImagesEEG,001,200868,
AFNE01.JPG,AFNE01.JPG,AFNE01.JPG,AFNE01.JPG,AFNE01.JPG,AFNE01.JPG,,,,,1,2,12,8,,,,,,,,,,,,,,,,,,,AFSA05.jpg,AFNE04.jpg,AFSA08.jpg,AFNE10.jpg,AFNE10.jpg,FN,3,num_4,32,num_6,0.833472374128,,,2017_Jul_27_1447,60.0056006539,MAFE4ImagesEEG,001,200868,
AFNE01.JPG,AFNE01.JPG,AFNE01.JPG,AFNE01.JPG,AFNE01.JPG,AFNE01.JPG,,,,,1,3,13,7,,,,,,,,,,,,,,,,,,,AFNE04.jpg,AFSA15.jpg,AFNE08.jpg,AFSA19.jpg,AFSA19.jpg,FS,4,num_4,16,num_4,1.00062031136,,,2017_Jul_27_1447,60.0056006539,MAFE4ImagesEEG,001,200868,
AFNE01.JPG,AFNE01.JPG,AFNE01.JPG,AFNE01.JPG,AFNE01.JPG,AFNE01.JPG,,,,,1,4,14,5,,,,,,,,,,,,,,,,,,,AFNE19.jpg,AFNE16.jpg,AFSA12.jpg,AFSA13.jpg,AFNE19.jpg,FN,3,num_8,16,num_8,0.500135512673,,,2017_Jul_27_1447,60.0056006539,MAFE4ImagesEEG,001,200868,
AFNE01.JPG,AFNE01.JPG,AFNE01.JPG,AFNE01.JPG,AFNE01.JPG,AFNE01.JPG,,,,,1,5,15,9,,,,,,,,,,,,,,,,,,,AFSA11.jpg,AFNE01.jpg,AFNE08.jpg,AFSA08.jpg,AFSA11.jpg,FS,4,num_8,32,num_6,0.516808866756,,,2017_Jul_27_1447,60.0056006539,MAFE4ImagesEEG,001,200868,
AFNE01.JPG,AFNE01.JPG,AFNE01.JPG,AFNE01.JPG,AFNE01.JPG,AFNE01.JPG,,,,,1,6,16,2,,,,,,,,,,,,,,,,,,,AFSA19.jpg,AFSA06.jpg,AFNE09.jpg,AFNE20.jpg,AFSA19.jpg,FS,4,num_8,32,num_6,0.733457588009,,,2017_Jul_27_1447,60.0056006539,MAFE4ImagesEEG,001,200868,
AFNE01.JPG,AFNE01.JPG,AFNE01.JPG,AFNE01.JPG,AFNE01.JPG,AFNE01.JPG,,,,,1,7,17,6,,,,,,,,,,,,,,,,,,,AFNE01.jpg,AFNE06.jpg,AFSA18.jpg,AFSA19.jpg,AFNE06.jpg,FN,3,num_6,16,num_6,0.516782886814,,,2017_Jul_27_1447,60.0056006539,MAFE4ImagesEEG,001,200868,
AFNE01.JPG,AFNE01.JPG,AFNE01.JPG,AFNE01.JPG,AFNE01.JPG,AFNE01.JPG,,,,,1,8,18,1,,,,,,,,,,,,,,,,,,,AFSA15.jpg,AFNE10.jpg,AFNE02.jpg,AFSA13.jpg,AFNE10.jpg,FN,3,num_6,32,num_8,0.766745600849,,,2017_Jul_27_1447,60.0056006539,MAFE4ImagesEEG,001,200868,
AFNE01.JPG,AFNE01.JPG,AFNE01.JPG,AFNE01.JPG,AFNE01.JPG,AFNE01.JPG,,,,,1,9,19,4,,,,,,,,,,,,,,,,,,,AFNE03.jpg,AFNE10.jpg,AFSA11.jpg,AFSA13.jpg,AFNE03.jpg,FN,3,num_8,16,num_8,0.516794112744,,,2017_Jul_27_1447,60.0056006539,MAFE4ImagesEEG,001,200868,
AFNE01.JPG,AFNE01.JPG,AFNE01.JPG,AFNE01.JPG,AFNE01.JPG,AFNE01.JPG,,,,,2,0,20,2,,,,,,,,,,,,,,,,,,,AFNE02.jpg,AFSA15.jpg,AFNE18.jpg,AFSA10.jpg,AFSA15.jpg,FS,4,num_6,32,num_4,0.333501401241,,,2017_Jul_27_1447,60.0056006539,MAFE4ImagesEEG,001,200868,
AFNE01.JPG,AFNE01.JPG,AFNE01.JPG,AFNE01.JPG,AFNE01.JPG,AFNE01.JPG,,,,,2,1,21,1,,,,,,,,,,,,,,,,,,,AFNE10.jpg,AFSA10.jpg,AFSA20.jpg,AFNE13.jpg,AFSA10.jpg,FS,4,num_6,32,num_8,0.716761782067,,,2017_Jul_27_1447,60.0056006539,MAFE4ImagesEEG,001,200868,
AFNE01.JPG,AFNE01.JPG,AFNE01.JPG,AFNE01.JPG,AFNE01.JPG,AFNE01.JPG,,,,,2,2,22,7,,,,,,,,,,,,,,,,,,,AFNE19.jpg,AFSA13.jpg,AFNE09.jpg,AFSA10.jpg,AFSA13.jpg,FS,4,num_6,16,num_6,0.550191497896,,,2017_Jul_27_1447,60.0056006539,MAFE4ImagesEEG,001,200868,
AFNE01.JPG,AFNE01.JPG,AFNE01.JPG,AFNE01.JPG,AFNE01.JPG,AFNE01.JPG,,,,,2,3,23,6,,,,,,,,,,,,,,,,,,,AFSA18.jpg,AFNE11.jpg,AFSA19.jpg,AFNE02.jpg,AFNE02.jpg,FN,3,num_4,32,num_6,0.616811785498,,,2017_Jul_27_1447,60.0056006539,MAFE4ImagesEEG,001,200868,
AFNE01.JPG,AFNE01.JPG,AFNE01.JPG,AFNE01.JPG,AFNE01.JPG,AFNE01.JPG,,,,,2,4,24,9,,,,,,,,,,,,,,,,,,,AFSA07.jpg,AFNE13.jpg,AFNE08.jpg,AFSA17.jpg,AFNE13.jpg,FN,3,num_6,16,num_6,0.88344304252,,,2017_Jul_27_1447,60.0056006539,MAFE4ImagesEEG,001,200868,
AFNE01.JPG,AFNE01.JPG,AFNE01.JPG,AFNE01.JPG,AFNE01.JPG,AFNE01.JPG,,,,,2,5,25,8,,,,,,,,,,,,,,,,,,,AFSA12.jpg,AFNE08.jpg,AFNE01.jpg,AFSA17.jpg,AFNE08.jpg,FN,3,num_6,16,num_6,0.850114937173,,,2017_Jul_27_1447,60.0056006539,MAFE4ImagesEEG,001,200868,
AFNE01.JPG,AFNE01.JPG,AFNE01.JPG,AFNE01.JPG,AFNE01.JPG,AFNE01.JPG,,,,,2,6,26,0,,,,,,,,,,,,,,,,,,,AFSA08.jpg,AFNE04.jpg,AFNE18.jpg,AFSA13.jpg,AFNE04.jpg,FN,3,num_6,16,num_6,0.833461789647,,,2017_Jul_27_1447,60.0056006539,MAFE4ImagesEEG,001,200868,
AFNE01.JPG,AFNE01.JPG,AFNE01.JPG,AFNE01.JPG,AFNE01.JPG,AFNE01.JPG,,,,,2,7,27,4,,,,,,,,,,,,,,,,,,,AFSA11.jpg,AFNE13.jpg,AFSA02.jpg,AFNE05.jpg,AFNE05.jpg,FN,3,num_4,32,num_6,0.700176952407,,,2017_Jul_27_1447,60.0056006539,MAFE4ImagesEEG,001,200868,
AFNE01.JPG,AFNE01.JPG,AFNE01.JPG,AFNE01.JPG,AFNE01.JPG,AFNE01.JPG,,,,,2,8,28,3,,,,,,,,,,,,,,,,,,,AFNE08.jpg,AFSA09.jpg,AFSA02.jpg,AFNE15.jpg,AFSA02.jpg,FS,4,num_2,32,num_4,1.41676008224,,,2017_Jul_27_1447,60.0056006539,MAFE4ImagesEEG,001,200868,
AFNE01.JPG,AFNE01.JPG,AFNE01.JPG,AFNE01.JPG,AFNE01.JPG,AFNE01.JPG,,,,,2,9,29,5,,,,,,,,,,,,,,,,,,,AFNE08.jpg,AFSA02.jpg,AFSA11.jpg,AFNE14.jpg,AFSA11.jpg,FS,4,num_2,32,num_8,0.633410727954,,,2017_Jul_27_1447,60.0056006539,MAFE4ImagesEEG,001,200868,
AFNE01.JPG,AFNE01.JPG,AFNE01.JPG,AFNE01.JPG,AFNE01.JPG,AFNE01.JPG,,,,,3,0,30,5,,,,,,,,,,,,,,,,,,,AFSA17.jpg,AFSA06.jpg,AFNE19.jpg,AFNE03.jpg,AFSA06.jpg,FS,4,num_6,32,num_8,0.583515433478,,,2017_Jul_27_1447,60.0056006539,MAFE4ImagesEEG,001,200868,
AFNE01.JPG,AFNE01.JPG,AFNE01.JPG,AFNE01.JPG,AFNE01.JPG,AFNE01.JPG,,,,,3,1,31,3,,,,,,,,,,,,,,,,,,,AFSA03.jpg,AFNE07.jpg,AFNE08.jpg,AFSA17.jpg,AFSA03.jpg,FS,4,num_8,16,num_8,0.40017396945,,,2017_Jul_27_1447,60.0056006539,MAFE4ImagesEEG,001,200868,
AFNE01.JPG,AFNE01.JPG,AFNE01.JPG,AFNE01.JPG,AFNE01.JPG,AFNE01.JPG,,,,,3,2,32,0,,,,,,,,,,,,,,,,,,,AFSA08.jpg,AFNE11.jpg,AFSA12.jpg,AFNE02.jpg,AFNE11.jpg,FN,3,num_6,16,num_6,0.633492837427,,,2017_Jul_27_1447,60.0056006539,MAFE4ImagesEEG,001,200868,
AFNE01.JPG,AFNE01.JPG,AFNE01.JPG,AFNE01.JPG,AFNE01.JPG,AFNE01.JPG,,,,,3,3,33,1,,,,,,,,,,,,,,,,,,,AFNE13.jpg,AFNE15.jpg,AFSA15.jpg,AFSA13.jpg,AFNE15.jpg,FN,3,num_6,32,num_8,0.700292097987,,,2017_Jul_27_1447,60.0056006539,MAFE4ImagesEEG,001,200868,
AFNE01.JPG,AFNE01.JPG,AFNE01.JPG,AFNE01.JPG,AFNE01.JPG,AFNE01.JPG,,,,,3,4,34,8,,,,,,,,,,,,,,,,,,,AFNE13.jpg,AFSA06.jpg,AFSA12.jpg,AFNE16.jpg,AFNE16.jpg,FN,3,num_4,16,num_4,0.516884561512,,,2017_Jul_27_1447,60.0056006539,MAFE4ImagesEEG,001,200868,
AFNE01.JPG,AFNE01.JPG,AFNE01.JPG,AFNE01.JPG,AFNE01.JPG,AFNE01.JPG,,,,,3,5,35,4,,,,,,,,,,,,,,,,,,,AFNE14.jpg,AFNE18.jpg,AFSA08.jpg,AFSA02.jpg,AFSA08.jpg,FS,4,num_2,32,num_8,0.866973999888,,,2017_Jul_27_1447,60.0056006539,MAFE4ImagesEEG,001,200868,
AFNE01.JPG,AFNE01.JPG,AFNE01.JPG,AFNE01.JPG,AFNE01.JPG,AFNE01.JPG,,,,,3,6,36,9,,,,,,,,,,,,,,,,,,,AFSA06.jpg,AFSA08.jpg,AFNE20.jpg,AFNE07.jpg,AFSA08.jpg,FS,4,num_6,16,num_6,1.0835325931,,,2017_Jul_27_1447,60.0056006539,MAFE4ImagesEEG,001,200868,
AFNE01.JPG,AFNE01.JPG,AFNE01.JPG,AFNE01.JPG,AFNE01.JPG,AFNE01.JPG,,,,,3,7,37,6,,,,,,,,,,,,,,,,,,,AFSA05.jpg,AFNE07.jpg,AFNE01.jpg,AFSA08.jpg,AFNE01.jpg,FN,3,num_2,32,num_6,0.633629151969,,,2017_Jul_27_1447,60.0056006539,MAFE4ImagesEEG,001,200868,
AFNE01.JPG,AFNE01.JPG,AFNE01.JPG,AFNE01.JPG,AFNE01.JPG,AFNE01.JPG,,,,,3,8,38,2,,,,,,,,,,,,,,,,,,,AFSA19.jpg,AFSA06.jpg,AFNE20.jpg,AFNE18.jpg,AFNE18.jpg,FN,3,num_4,32,num_8,0.816795491846,,,2017_Jul_27_1447,60.0056006539,MAFE4ImagesEEG,001,200868,
AFNE01.JPG,AFNE01.JPG,AFNE01.JPG,AFNE01.JPG,AFNE01.JPG,AFNE01.JPG,,,,,3,9,39,7,,,,,,,,,,,,,,,,,,,AFSA18.jpg,AFNE01.jpg,AFNE08.jpg,AFSA17.jpg,AFSA17.jpg,FS,4,num_4,16,num_4,0.783570344211,,,2017_Jul_27_1447,60.0056006539,MAFE4ImagesEEG,001,200868,
AFNE01.JPG,AFNE01.JPG,AFNE01.JPG,AFNE01.JPG,AFNE01.JPG,AFNE01.JPG,,,,,4,0,40,6,,,,,,,,,,,,,,,,,,,AFNE13.jpg,AFSA15.jpg,AFNE06.jpg,AFSA01.jpg,AFSA15.jpg,FS,4,num_6,32,num_8,0.533371886238,,,2017_Jul_27_1447,60.0056006539,MAFE4ImagesEEG,001,200868,
AFNE01.JPG,AFNE01.JPG,AFNE01.JPG,AFNE01.JPG,AFNE01.JPG,AFNE01.JPG,,,,,4,1,41,7,,,,,,,,,,,,,,,,,,,AFSA11.jpg,AFNE13.jpg,AFSA03.jpg,AFNE05.jpg,AFSA03.jpg,FS,4,num_2,32,num_6,0.400191610213,,,2017_Jul_27_1447,60.0056006539,MAFE4ImagesEEG,001,200868,
AFNE01.JPG,AFNE01.JPG,AFNE01.JPG,AFNE01.JPG,AFNE01.JPG,AFNE01.JPG,,,,,4,2,42,4,,,,,,,,,,,,,,,,,,,AFNE19.jpg,AFSA11.jpg,AFSA04.jpg,AFNE15.jpg,AFSA11.jpg,FS,4,num_6,16,num_6,0.749983401736,,,2017_Jul_27_1447,60.0056006539,MAFE4ImagesEEG,001,200868,
AFNE01.JPG,AFNE01.JPG,AFNE01.JPG,AFNE01.JPG,AFNE01.JPG,AFNE01.JPG,,,,,4,3,43,9,,,,,,,,,,,,,,,,,,,AFNE20.jpg,AFSA15.jpg,AFSA08.jpg,AFNE03.jpg,AFSA15.jpg,FS,4,num_6,32,num_4,1.03349777672,,,2017_Jul_27_1447,60.0056006539,MAFE4ImagesEEG,001,200868,
AFNE01.JPG,AFNE01.JPG,AFNE01.JPG,AFNE01.JPG,AFNE01.JPG,AFNE01.JPG,,,,,4,4,44,1,,,,,,,,,,,,,,,,,,,AFSA20.jpg,AFNE09.jpg,AFSA09.jpg,AFNE03.jpg,AFNE03.jpg,FN,3,num_4,32,num_6,0.616745071602,,,2017_Jul_27_1447,60.0056006539,MAFE4ImagesEEG,001,200868,
AFNE01.JPG,AFNE01.JPG,AFNE01.JPG,AFNE01.JPG,AFNE01.JPG,AFNE01.JPG,,,,,4,5,45,8,,,,,,,,,,,,,,,,,,,AFNE20.jpg,AFSA13.jpg,AFNE09.jpg,AFSA11.jpg,AFNE09.jpg,FN,3,num_2,32,num_6,0.667062459863,,,2017_Jul_27_1447,60.0056006539,MAFE4ImagesEEG,001,200868,
AFNE01.JPG,AFNE01.JPG,AFNE01.JPG,AFNE01.JPG,AFNE01.JPG,AFNE01.JPG,,,,,4,6,46,5,,,,,,,,,,,,,,,,,,,AFNE17.jpg,AFNE01.jpg,AFSA17.jpg,AFSA06.jpg,AFSA06.jpg,FS,4,num_4,32,num_6,0.600008852431,,,2017_Jul_27_1447,60.0056006539,MAFE4ImagesEEG,001,200868,
AFNE01.JPG,AFNE01.JPG,AFNE01.JPG,AFNE01.JPG,AFNE01.JPG,AFNE01.JPG,,,,,4,7,47,0,,,,,,,,,,,,,,,,,,,AFSA11.jpg,AFNE04.jpg,AFNE06.jpg,AFSA20.jpg,AFNE04.jpg,FN,3,num_6,32,num_8,0.60013778985,,,2017_Jul_27_1447,60.0056006539,MAFE4ImagesEEG,001,200868,
AFNE01.JPG,AFNE01.JPG,AFNE01.JPG,AFNE01.JPG,AFNE01.JPG,AFNE01.JPG,,,,,4,8,48,2,,,,,,,,,,,,,,,,,,,AFNE03.jpg,AFSA17.jpg,AFSA09.jpg,AFNE09.jpg,AFSA09.jpg,FS,4,num_2,32,num_6,0.550452580326,,,2017_Jul_27_1447,60.0056006539,MAFE4ImagesEEG,001,200868,
AFNE01.JPG,AFNE01.JPG,AFNE01.JPG,AFNE01.JPG,AFNE01.JPG,AFNE01.JPG,,,,,4,9,49,3,,,,,,,,,,,,,,,,,,,AFSA03.jpg,AFSA14.jpg,AFNE01.jpg,AFNE19.jpg,AFSA14.jpg,FS,4,num_6,32,num_8,0.683515465586,,,2017_Jul_27_1447,60.0056006539,MAFE4ImagesEEG,001,200868,
AFNE01.JPG,AFNE01.JPG,AFNE01.JPG,AFNE01.JPG,AFNE01.JPG,AFNE01.JPG,,,,,5,0,50,5,,,,,,,,,,,,,,,,,,,AFNE08.jpg,AFSA06.jpg,AFSA07.jpg,AFNE17.jpg,AFSA06.jpg,FS,4,num_6,16,num_6,0.766803013277,,,2017_Jul_27_1447,60.0056006539,MAFE4ImagesEEG,001,200868,
AFNE01.JPG,AFNE01.JPG,AFNE01.JPG,AFNE01.JPG,AFNE01.JPG,AFNE01.JPG,,,,,5,1,51,8,,,,,,,,,,,,,,,,,,,AFSA07.jpg,AFSA01.jpg,AFNE08.jpg,AFNE17.jpg,AFNE08.jpg,FN,3,num_2,32,num_8,0.850114937173,,,2017_Jul_27_1447,60.0056006539,MAFE4ImagesEEG,001,200868,
AFNE01.JPG,AFNE01.JPG,AFNE01.JPG,AFNE01.JPG,AFNE01.JPG,AFNE01.JPG,,,,,5,2,52,1,,,,,,,,,,,,,,,,,,,AFSA15.jpg,AFNE03.jpg,AFSA19.jpg,AFNE15.jpg,AFSA15.jpg,FS,4,num_8,16,num_8,0.883468381013,,,2017_Jul_27_1447,60.0056006539,MAFE4ImagesEEG,001,200868,
AFNE01.JPG,AFNE01.JPG,AFNE01.JPG,AFNE01.JPG,AFNE01.JPG,AFNE01.JPG,,,,,5,3,53,0,,,,,,,,,,,,,,,,,,,AFSA18.jpg,AFSA16.jpg,AFNE09.jpg,AFNE11.jpg,AFNE11.jpg,FN,3,num_4,32,num_6,0.60012784705,,,2017_Jul_27_1447,60.0056006539,MAFE4ImagesEEG,001,200868,
AFNE01.JPG,AFNE01.JPG,AFNE01.JPG,AFNE01.JPG,AFNE01.JPG,AFNE01.JPG,,,,,5,4,54,9,,,,,,,,,,,,,,,,,,,AFNE09.jpg,AFSA10.jpg,AFSA02.jpg,AFNE10.jpg,AFNE10.jpg,FN,3,num_4,32,num_2,1.16670595726,,,2017_Jul_27_1447,60.0056006539,MAFE4ImagesEEG,001,200868,
AFNE01.JPG,AFNE01.JPG,AFNE01.JPG,AFNE01.JPG,AFNE01.JPG,AFNE01.JPG,,,,,5,5,55,3,,,,,,,,,,,,,,,,,,,AFSA20.jpg,AFNE03.jpg,AFNE15.jpg,AFSA07.jpg,AFSA20.jpg,FS,4,num_8,32,num_6,0.566814495716,,,2017_Jul_27_1447,60.0056006539,MAFE4ImagesEEG,001,200868,
AFNE01.JPG,AFNE01.JPG,AFNE01.JPG,AFNE01.JPG,AFNE01.JPG,AFNE01.JPG,,,,,5,6,56,6,,,,,,,,,,,,,,,,,,,AFNE20.jpg,AFNE14.jpg,AFSA09.jpg,AFSA12.jpg,AFNE20.jpg,FN,3,num_8,16,num_8,0.883476399467,,,2017_Jul_27_1447,60.0056006539,MAFE4ImagesEEG,001,200868,
AFNE01.JPG,AFNE01.JPG,AFNE01.JPG,AFNE01.JPG,AFNE01.JPG,AFNE01.JPG,,,,,5,7,57,7,,,,,,,,,,,,,,,,,,,AFNE09.jpg,AFSA11.jpg,AFNE14.jpg,AFSA17.jpg,AFSA11.jpg,FS,4,num_6,32,num_8,0.866916266619,,,2017_Jul_27_1447,60.0056006539,MAFE4ImagesEEG,001,200868,
AFNE01.JPG,AFNE01.JPG,AFNE01.JPG,AFNE01.JPG,AFNE01.JPG,AFNE01.JPG,,,,,5,8,58,4,,,,,,,,,,,,,,,,,,,AFSA07.jpg,AFNE11.jpg,AFNE17.jpg,AFSA02.jpg,AFSA07.jpg,FS,4,num_8,16,num_8,0.666791755357,,,2017_Jul_27_1447,60.0056006539,MAFE4ImagesEEG,001,200868,
AFNE01.JPG,AFNE01.JPG,AFNE01.JPG,AFNE01.JPG,AFNE01.JPG,AFNE01.JPG,,,,,5,9,59,2,,,,,,,,,,,,,,,,,,,AFNE19.jpg,AFSA02.jpg,AFSA03.jpg,AFNE07.jpg,AFNE19.jpg,FN,3,num_8,16,num_8,0.71677717776,,,2017_Jul_27_1447,60.0056006539,MAFE4ImagesEEG,001,200868,
,,,,,,,,,,,,,,,,,,,,,,,,,,,,,,,,,,,,,,,,,,,space,9.13314852281,2017_Jul_27_1447,60.0056006539,MAFE4ImagesEEG,001,200868,
AFNE01.JPG,AFNE01.JPG,AFNE01.JPG,AFNE01.JPG,AFNE01.JPG,AFNE01.JPG,,,,,,,,,0,0,0,8,,,,,,,,,,,,,,,AMSA07.jpg,AMNE10.jpg,AMSA09.jpg,AMNE04.jpg,AMSA07.jpg,MS,2,num_8,16,num_8,0.616807295242,,,2017_Jul_27_1447,60.0056006539,MAFE4ImagesEEG,001,200868,
AFNE01.JPG,AFNE01.JPG,AFNE01.JPG,AFNE01.JPG,AFNE01.JPG,AFNE01.JPG,,,,,,,,,0,1,1,3,,,,,,,,,,,,,,,AMSA05.jpg,AMSA19.jpg,AMNE13.jpg,AMNE10.jpg,AMNE13.jpg,MN,1,num_2,32,num_6,0.566798138083,,,2017_Jul_27_1447,60.0056006539,MAFE4ImagesEEG,001,200868,
AFNE01.JPG,AFNE01.JPG,AFNE01.JPG,AFNE01.JPG,AFNE01.JPG,AFNE01.JPG,,,,,,,,,0,2,2,1,,,,,,,,,,,,,,,AMNE20.jpg,AMNE12.jpg,AMSA18.jpg,AMSA16.jpg,AMSA18.jpg,MS,2,num_2,32,num_6,0.583511263947,,,2017_Jul_27_1447,60.0056006539,MAFE4ImagesEEG,001,200868,
AFNE01.JPG,AFNE01.JPG,AFNE01.JPG,AFNE01.JPG,AFNE01.JPG,AFNE01.JPG,,,,,,,,,0,3,3,4,,,,,,,,,,,,,,,AMNE01.jpg,AMSA06.jpg,AMNE11.jpg,AMSA12.jpg,AMNE01.jpg,MN,1,num_8,32,num_4,0.550063201808,,,2017_Jul_27_1447,60.0056006539,MAFE4ImagesEEG,001,200868,
AFNE01.JPG,AFNE01.JPG,AFNE01.JPG,AFNE01.JPG,AFNE01.JPG,AFNE01.JPG,,,,,,,,,0,4,4,5,,,,,,,,,,,,,,,AMSA12.jpg,AMNE06.jpg,AMSA07.jpg,AMNE20.jpg,AMSA07.jpg,MS,2,num_2,16,num_2,0.633462046389,,,2017_Jul_27_1447,60.0056006539,MAFE4ImagesEEG,001,200868,
AFNE01.JPG,AFNE01.JPG,AFNE01.JPG,AFNE01.JPG,AFNE01.JPG,AFNE01.JPG,,,,,,,,,0,5,5,0,,,,,,,,,,,,,,,AMSA02.jpg,AMSA10.jpg,AMNE10.jpg,AMNE02.jpg,AMSA02.jpg,MS,2,num_8,32,num_6,0.716662031948,,,2017_Jul_27_1447,60.0056006539,MAFE4ImagesEEG,001,200868,
AFNE01.JPG,AFNE01.JPG,AFNE01.JPG,AFNE01.JPG,AFNE01.JPG,AFNE01.JPG,,,,,,,,,0,6,6,2,,,,,,,,,,,,,,,AMNE02.jpg,AMSA02.jpg,AMSA01.jpg,AMNE03.jpg,AMSA01.jpg,MS,2,num_2,32,num_8,0.566781780217,,,2017_Jul_27_1447,60.0056006539,MAFE4ImagesEEG,001,200868,
AFNE01.JPG,AFNE01.JPG,AFNE01.JPG,AFNE01.JPG,AFNE01.JPG,AFNE01.JPG,,,,,,,,,0,7,7,7,,,,,,,,,,,,,,,AMNE05.jpg,AMSA02.jpg,AMSA09.jpg,AMNE15.jpg,AMNE05.jpg,MN,1,num_8,32,num_6,0.433639351511,,,2017_Jul_27_1447,60.0056006539,MAFE4ImagesEEG,001,200868,
AFNE01.JPG,AFNE01.JPG,AFNE01.JPG,AFNE01.JPG,AFNE01.JPG,AFNE01.JPG,,,,,,,,,0,8,8,9,,,,,,,,,,,,,,,AMSA01.jpg,AMNE04.jpg,AMSA15.jpg,AMNE09.jpg,AMNE09.jpg,MN,1,num_4,32,num_8,0.433346836478,,,2017_Jul_27_1447,60.0056006539,MAFE4ImagesEEG,001,200868,
AFNE01.JPG,AFNE01.JPG,AFNE01.JPG,AFNE01.JPG,AFNE01.JPG,AFNE01.JPG,,,,,,,,,0,9,9,6,,,,,,,,,,,,,,,AMSA05.jpg,AMNE09.jpg,AMSA13.jpg,AMNE19.jpg,AMSA13.jpg,MS,2,num_2,16,num_2,0.650145984837,,,2017_Jul_27_1447,60.0056006539,MAFE4ImagesEEG,001,200868,
AFNE01.JPG,AFNE01.JPG,AFNE01.JPG,AFNE01.JPG,AFNE01.JPG,AFNE01.JPG,,,,,,,,,1,0,10,0,,,,,,,,,,,,,,,AMSA15.jpg,AMNE10.jpg,AMSA19.jpg,AMNE16.jpg,AMNE10.jpg,MN,1,num_6,32,num_4,0.933516347664,,,2017_Jul_27_1447,60.0056006539,MAFE4ImagesEEG,001,200868,
AFNE01.JPG,AFNE01.JPG,AFNE01.JPG,AFNE01.JPG,AFNE01.JPG,AFNE01.JPG,,,,,,,,,1,1,11,5,,,,,,,,,,,,,,,AMNE20.jpg,AMNE03.jpg,AMSA13.jpg,AMSA16.jpg,AMNE20.jpg,MN,1,num_8,32,num_6,1.63334112731,,,2017_Jul_27_1447,60.0056006539,MAFE4ImagesEEG,001,200868,
AFNE01.JPG,AFNE01.JPG,AFNE01.JPG,AFNE01.JPG,AFNE01.JPG,AFNE01.JPG,,,,,,,,,1,2,12,2,,,,,,,,,,,,,,,AMNE06.jpg,AMSA03.jpg,AMSA07.jpg,AMNE08.jpg,AMNE08.jpg,MN,1,num_4,32,num_6,1.23348276608,,,2017_Jul_27_1447,60.0056006539,MAFE4ImagesEEG,001,200868,
AFNE01.JPG,AFNE01.JPG,AFNE01.JPG,AFNE01.JPG,AFNE01.JPG,AFNE01.JPG,,,,,,,,,1,3,13,8,,,,,,,,,,,,,,,AMSA09.jpg,AMNE02.jpg,AMSA07.jpg,AMNE01.jpg,AMSA07.jpg,MS,2,num_2,32,num_6,1.06671458529,,,2017_Jul_27_1447,60.0056006539,MAFE4ImagesEEG,001,200868,
AFNE01.JPG,AFNE01.JPG,AFNE01.JPG,AFNE01.JPG,AFNE01.JPG,AFNE01.JPG,,,,,,,,,1,4,14,7,,,,,,,,,,,,,,,AMNE09.jpg,AMSA13.jpg,AMSA06.jpg,AMNE01.jpg,AMSA06.jpg,MS,2,num_2,32,num_6,2.88342508103,,,2017_Jul_27_1447,60.0056006539,MAFE4ImagesEEG,001,200868,
AFNE01.JPG,AFNE01.JPG,AFNE01.JPG,AFNE01.JPG,AFNE01.JPG,AFNE01.JPG,,,,,,,,,1,5,15,6,,,,,,,,,,,,,,,AMSA09.jpg,AMSA13.jpg,AMNE13.jpg,AMNE09.jpg,AMSA09.jpg,MS,2,num_8,32,num_6,0.766746883863,,,2017_Jul_27_1447,60.0056006539,MAFE4ImagesEEG,001,200868,
AFNE01.JPG,AFNE01.JPG,AFNE01.JPG,AFNE01.JPG,AFNE01.JPG,AFNE01.JPG,,,,,,,,,1,6,16,3,,,,,,,,,,,,,,,AMNE01.jpg,AMSA12.jpg,AMSA16.jpg,AMNE09.jpg,AMSA16.jpg,MS,2,num_2,32,num_8,0.816797416424,,,2017_Jul_27_1447,60.0056006539,MAFE4ImagesEEG,001,200868,
AFNE01.JPG,AFNE01.JPG,AFNE01.JPG,AFNE01.JPG,AFNE01.JPG,AFNE01.JPG,,,,,,,,,1,7,17,9,,,,,,,,,,,,,,,AMSA19.jpg,AMNE16.jpg,AMSA14.jpg,AMNE02.jpg,AMSA19.jpg,MS,2,num_8,32,num_6,1.60010571592,,,2017_Jul_27_1447,60.0056006539,MAFE4ImagesEEG,001,200868,
AFNE01.JPG,AFNE01.JPG,AFNE01.JPG,AFNE01.JPG,AFNE01.JPG,AFNE01.JPG,,,,,,,,,1,8,18,1,,,,,,,,,,,,,,,AMNE12.jpg,AMNE05.jpg,AMSA14.jpg,AMSA11.jpg,AMNE05.jpg,MN,1,num_6,32,num_8,0.400141895399,,,2017_Jul_27_1447,60.0056006539,MAFE4ImagesEEG,001,200868,
AFNE01.JPG,AFNE01.JPG,AFNE01.JPG,AFNE01.JPG,AFNE01.JPG,AFNE01.JPG,,,,,,,,,1,9,19,4,,,,,,,,,,,,,,,AMNE13.jpg,AMSA19.jpg,AMNE16.jpg,AMSA15.jpg,AMNE13.jpg,MN,1,num_8,32,num_2,0.583518320112,,,2017_Jul_27_1447,60.0056006539,MAFE4ImagesEEG,001,200868,
AFNE01.JPG,AFNE01.JPG,AFNE01.JPG,AFNE01.JPG,AFNE01.JPG,AFNE01.JPG,,,,,,,,,2,0,20,0,,,,,,,,,,,,,,,AMSA15.jpg,AMNE13.jpg,AMNE12.jpg,AMSA08.jpg,AMNE13.jpg,MN,1,num_6,32,num_2,0.949993088143,,,2017_Jul_27_1447,60.0056006539,MAFE4ImagesEEG,001,200868,
AFNE01.JPG,AFNE01.JPG,AFNE01.JPG,AFNE01.JPG,AFNE01.JPG,AFNE01.JPG,,,,,,,,,2,1,21,7,,,,,,,,,,,,,,,AMSA13.jpg,AMSA02.jpg,AMNE07.jpg,AMNE11.jpg,AMSA13.jpg,MS,2,num_8,16,num_8,0.800134646706,,,2017_Jul_27_1447,60.0056006539,MAFE4ImagesEEG,001,200868,
AFNE01.JPG,AFNE01.JPG,AFNE01.JPG,AFNE01.JPG,AFNE01.JPG,AFNE01.JPG,,,,,,,,,2,2,22,2,,,,,,,,,,,,,,,AMNE01.jpg,AMSA20.jpg,AMNE13.jpg,AMSA09.jpg,AMSA20.jpg,MS,2,num_6,16,num_6,1.08340237255,,,2017_Jul_27_1447,60.0056006539,MAFE4ImagesEEG,001,200868,
AFNE01.JPG,AFNE01.JPG,AFNE01.JPG,AFNE01.JPG,AFNE01.JPG,AFNE01.JPG,,,,,,,,,2,3,23,9,,,,,,,,,,,,,,,AMSA18.jpg,AMNE15.jpg,AMSA10.jpg,AMNE01.jpg,AMNE15.jpg,MN,1,num_6,32,num_8,1.15017886076,,,2017_Jul_27_1447,60.0056006539,MAFE4ImagesEEG,001,200868,
AFNE01.JPG,AFNE01.JPG,AFNE01.JPG,AFNE01.JPG,AFNE01.JPG,AFNE01.JPG,,,,,,,,,2,4,24,3,,,,,,,,,,,,,,,AMSA18.jpg,AMSA01.jpg,AMNE18.jpg,AMNE02.jpg,AMNE02.jpg,MN,1,num_4,32,num_8,0.800188851776,,,2017_Jul_27_1447,60.0056006539,MAFE4ImagesEEG,001,200868,
AFNE01.JPG,AFNE01.JPG,AFNE01.JPG,AFNE01.JPG,AFNE01.JPG,AFNE01.JPG,,,,,,,,,2,5,25,8,,,,,,,,,,,,,,,AMSA10.jpg,AMSA17.jpg,AMNE09.jpg,AMNE06.jpg,AMNE06.jpg,MN,1,num_4,32,num_6,0.933600702323,,,2017_Jul_27_1447,60.0056006539,MAFE4ImagesEEG,001,200868,
AFNE01.JPG,AFNE01.JPG,AFNE01.JPG,AFNE01.JPG,AFNE01.JPG,AFNE01.JPG,,,,,,,,,2,6,26,1,,,,,,,,,,,,,,,AMSA20.jpg,AMNE01.jpg,AMSA09.jpg,AMNE04.jpg,AMSA20.jpg,MS,2,num_8,32,num_2,0.916747092153,,,2017_Jul_27_1447,60.0056006539,MAFE4ImagesEEG,001,200868,
AFNE01.JPG,AFNE01.JPG,AFNE01.JPG,AFNE01.JPG,AFNE01.JPG,AFNE01.JPG,,,,,,,,,2,7,27,5,,,,,,,,,,,,,,,AMNE13.jpg,AMSA11.jpg,AMSA01.jpg,AMNE04.jpg,AMSA11.jpg,MS,2,num_6,16,num_6,0.383495162823,,,2017_Jul_27_1447,60.0056006539,MAFE4ImagesEEG,001,200868,
AFNE01.JPG,AFNE01.JPG,AFNE01.JPG,AFNE01.JPG,AFNE01.JPG,AFNE01.JPG,,,,,,,,,2,8,28,6,,,,,,,,,,,,,,,AMSA17.jpg,AMNE17.jpg,AMSA04.jpg,AMNE15.jpg,AMNE15.jpg,MN,1,num_4,16,num_4,1.28344926483,,,2017_Jul_27_1447,60.0056006539,MAFE4ImagesEEG,001,200868,
AFNE01.JPG,AFNE01.JPG,AFNE01.JPG,AFNE01.JPG,AFNE01.JPG,AFNE01.JPG,,,,,,,,,2,9,29,4,,,,,,,,,,,,,,,AMSA08.jpg,AMNE11.jpg,AMNE18.jpg,AMSA07.jpg,AMSA07.jpg,MS,2,num_4,16,num_4,0.683516427875,,,2017_Jul_27_1447,60.0056006539,MAFE4ImagesEEG,001,200868,
AFNE01.JPG,AFNE01.JPG,AFNE01.JPG,AFNE01.JPG,AFNE01.JPG,AFNE01.JPG,,,,,,,,,3,0,30,6,,,,,,,,,,,,,,,AMSA06.jpg,AMNE04.jpg,AMNE05.jpg,AMSA09.jpg,AMNE04.jpg,MN,1,num_6,16,num_6,0.983417415293,,,2017_Jul_27_1447,60.0056006539,MAFE4ImagesEEG,001,200868,
AFNE01.JPG,AFNE01.JPG,AFNE01.JPG,AFNE01.JPG,AFNE01.JPG,AFNE01.JPG,,,,,,,,,3,1,31,8,,,,,,,,,,,,,,,AMSA16.jpg,AMNE05.jpg,AMSA14.jpg,AMNE12.jpg,AMNE05.jpg,MN,1,num_6,32,num_8,0.466977399657,,,2017_Jul_27_1447,60.0056006539,MAFE4ImagesEEG,001,200868,
AFNE01.JPG,AFNE01.JPG,AFNE01.JPG,AFNE01.JPG,AFNE01.JPG,AFNE01.JPG,,,,,,,,,3,2,32,4,,,,,,,,,,,,,,,AMNE08.jpg,AMSA19.jpg,AMNE19.jpg,AMSA15.jpg,AMNE19.jpg,MN,1,num_2,32,num_6,0.566775686224,,,2017_Jul_27_1447,60.0056006539,MAFE4ImagesEEG,001,200868,
AFNE01.JPG,AFNE01.JPG,AFNE01.JPG,AFNE01.JPG,AFNE01.JPG,AFNE01.JPG,,,,,,,,,3,3,33,7,,,,,,,,,,,,,,,AMSA06.jpg,AMNE01.jpg,AMNE17.jpg,AMSA10.jpg,AMSA10.jpg,MS,2,num_4,32,num_8,0.550158782396,,,2017_Jul_27_1447,60.0056006539,MAFE4ImagesEEG,001,200868,
AFNE01.JPG,AFNE01.JPG,AFNE01.JPG,AFNE01.JPG,AFNE01.JPG,AFNE01.JPG,,,,,,,,,3,4,34,2,,,,,,,,,,,,,,,AMNE18.jpg,AMSA18.jpg,AMSA01.jpg,AMNE02.jpg,AMSA01.jpg,MS,2,num_2,32,num_6,0.466832104372,,,2017_Jul_27_1447,60.0056006539,MAFE4ImagesEEG,001,200868,
AFNE01.JPG,AFNE01.JPG,AFNE01.JPG,AFNE01.JPG,AFNE01.JPG,AFNE01.JPG,,,,,,,,,3,5,35,3,,,,,,,,,,,,,,,AMSA14.jpg,AMNE20.jpg,AMNE08.jpg,AMSA12.jpg,AMSA12.jpg,MS,2,num_4,16,num_4,0.383466616855,,,2017_Jul_27_1447,60.0056006539,MAFE4ImagesEEG,001,200868,
AFNE01.JPG,AFNE01.JPG,AFNE01.JPG,AFNE01.JPG,AFNE01.JPG,AFNE01.JPG,,,,,,,,,3,6,36,0,,,,,,,,,,,,,,,AMNE18.jpg,AMSA03.jpg,AMNE15.jpg,AMSA05.jpg,AMSA03.jpg,MS,2,num_6,32,num_8,0.450209748,,,2017_Jul_27_1447,60.0056006539,MAFE4ImagesEEG,001,200868,
AFNE01.JPG,AFNE01.JPG,AFNE01.JPG,AFNE01.JPG,AFNE01.JPG,AFNE01.JPG,,,,,,,,,3,7,37,5,,,,,,,,,,,,,,,AMSA02.jpg,AMSA20.jpg,AMNE19.jpg,AMNE01.jpg,AMNE01.jpg,MN,1,num_4,32,num_6,0.466821199283,,,2017_Jul_27_1447,60.0056006539,MAFE4ImagesEEG,001,200868,
AFNE01.JPG,AFNE01.JPG,AFNE01.JPG,AFNE01.JPG,AFNE01.JPG,AFNE01.JPG,,,,,,,,,3,8,38,9,,,,,,,,,,,,,,,AMSA07.jpg,AMSA03.jpg,AMNE04.jpg,AMNE06.jpg,AMSA03.jpg,MS,2,num_6,32,num_4,0.50018362375,,,2017_Jul_27_1447,60.0056006539,MAFE4ImagesEEG,001,200868,
AFNE01.JPG,AFNE01.JPG,AFNE01.JPG,AFNE01.JPG,AFNE01.JPG,AFNE01.JPG,,,,,,,,,3,9,39,1,,,,,,,,,,,,,,,AMNE12.jpg,AMNE20.jpg,AMSA05.jpg,AMSA12.jpg,AMNE20.jpg,MN,1,num_6,16,num_6,0.483476912603,,,2017_Jul_27_1447,60.0056006539,MAFE4ImagesEEG,001,200868,
AFNE01.JPG,AFNE01.JPG,AFNE01.JPG,AFNE01.JPG,AFNE01.JPG,AFNE01.JPG,,,,,,,,,4,0,40,2,,,,,,,,,,,,,,,AMSA15.jpg,AMNE11.jpg,AMNE03.jpg,AMSA16.jpg,AMSA16.jpg,MS,2,num_4,16,num_4,0.400089294068,,,2017_Jul_27_1447,60.0056006539,MAFE4ImagesEEG,001,200868,
AFNE01.JPG,AFNE01.JPG,AFNE01.JPG,AFNE01.JPG,AFNE01.JPG,AFNE01.JPG,,,,,,,,,4,1,41,4,,,,,,,,,,,,,,,AMNE09.jpg,AMSA09.jpg,AMSA04.jpg,AMNE17.jpg,AMNE09.jpg,MN,1,num_8,32,num_6,0.666449846351,,,2017_Jul_27_1447,60.0056006539,MAFE4ImagesEEG,001,200868,
AFNE01.JPG,AFNE01.JPG,AFNE01.JPG,AFNE01.JPG,AFNE01.JPG,AFNE01.JPG,,,,,,,,,4,2,42,7,,,,,,,,,,,,,,,AMSA17.jpg,AMNE11.jpg,AMSA16.jpg,AMNE19.jpg,AMNE19.jpg,MN,1,num_4,32,num_8,1.03339225322,,,2017_Jul_27_1447,60.0056006539,MAFE4ImagesEEG,001,200868,
AFNE01.JPG,AFNE01.JPG,AFNE01.JPG,AFNE01.JPG,AFNE01.JPG,AFNE01.JPG,,,,,,,,,4,3,43,1,,,,,,,,,,,,,,,AMNE15.jpg,AMSA08.jpg,AMNE18.jpg,AMSA20.jpg,AMSA20.jpg,MS,2,num_4,32,num_2,1.51676075568,,,2017_Jul_27_1447,60.0056006539,MAFE4ImagesEEG,001,200868,
AFNE01.JPG,AFNE01.JPG,AFNE01.JPG,AFNE01.JPG,AFNE01.JPG,AFNE01.JPG,,,,,,,,,4,4,44,8,,,,,,,,,,,,,,,AMNE16.jpg,AMSA20.jpg,AMSA18.jpg,AMNE11.jpg,AMSA18.jpg,MS,2,num_2,32,num_6,0.816791001474,,,2017_Jul_27_1447,60.0056006539,MAFE4ImagesEEG,001,200868,
AFNE01.JPG,AFNE01.JPG,AFNE01.JPG,AFNE01.JPG,AFNE01.JPG,AFNE01.JPG,,,,,,,,,4,5,45,5,,,,,,,,,,,,,,,AMSA08.jpg,AMNE05.jpg,AMNE18.jpg,AMSA14.jpg,AMSA14.jpg,MS,2,num_4,32,num_8,0.816831414821,,,2017_Jul_27_1447,60.0056006539,MAFE4ImagesEEG,001,200868,
AFNE01.JPG,AFNE01.JPG,AFNE01.JPG,AFNE01.JPG,AFNE01.JPG,AFNE01.JPG,,,,,,,,,4,6,46,3,,,,,,,,,,,,,,,AMNE13.jpg,AMSA20.jpg,AMNE07.jpg,AMSA18.jpg,AMSA18.jpg,MS,2,num_4,32,num_6,0.800142665161,,,2017_Jul_27_1447,60.0056006539,MAFE4ImagesEEG,001,200868,
AFNE01.JPG,AFNE01.JPG,AFNE01.JPG,AFNE01.JPG,AFNE01.JPG,AFNE01.JPG,,,,,,,,,4,7,47,6,,,,,,,,,,,,,,,AMNE14.jpg,AMNE04.jpg,AMSA07.jpg,AMSA08.jpg,AMSA07.jpg,MS,2,num_2,32,num_6,0.750170713873,,,2017_Jul_27_1447,60.0056006539,MAFE4ImagesEEG,001,200868,
AFNE01.JPG,AFNE01.JPG,AFNE01.JPG,AFNE01.JPG,AFNE01.JPG,AFNE01.JPG,,,,,,,,,4,8,48,0,,,,,,,,,,,,,,,AMSA13.jpg,AMNE15.jpg,AMNE16.jpg,AMSA17.jpg,AMNE16.jpg,MN,1,num_2,32,num_8,0.883462286904,,,2017_Jul_27_1447,60.0056006539,MAFE4ImagesEEG,001,200868,
AFNE01.JPG,AFNE01.JPG,AFNE01.JPG,AFNE01.JPG,AFNE01.JPG,AFNE01.JPG,,,,,,,,,4,9,49,9,,,,,,,,,,,,,,,AMSA10.jpg,AMNE14.jpg,AMSA13.jpg,AMNE19.jpg,AMSA10.jpg,MS,2,num_8,16,num_8,1.16676978464,,,2017_Jul_27_1447,60.0056006539,MAFE4ImagesEEG,001,200868,
AFNE01.JPG,AFNE01.JPG,AFNE01.JPG,AFNE01.JPG,AFNE01.JPG,AFNE01.JPG,,,,,,,,,5,0,50,0,,,,,,,,,,,,,,,AMSA15.jpg,AMNE12.jpg,AMNE13.jpg,AMSA20.jpg,AMNE13.jpg,MN,1,num_2,32,num_8,0.850167217781,,,2017_Jul_27_1447,60.0056006539,MAFE4ImagesEEG,001,200868,
AFNE01.JPG,AFNE01.JPG,AFNE01.JPG,AFNE01.JPG,AFNE01.JPG,AFNE01.JPG,,,,,,,,,5,1,51,2,,,,,,,,,,,,,,,AMSA20.jpg,AMNE01.jpg,AMNE04.jpg,AMSA16.jpg,AMSA16.jpg,MS,2,num_4,32,num_8,0.966741816024,,,2017_Jul_27_1447,60.0056006539,MAFE4ImagesEEG,001,200868,
AFNE01.JPG,AFNE01.JPG,AFNE01.JPG,AFNE01.JPG,AFNE01.JPG,AFNE01.JPG,,,,,,,,,5,2,52,7,,,,,,,,,,,,,,,AMSA12.jpg,AMNE04.jpg,AMNE17.jpg,AMSA04.jpg,AMSA04.jpg,MS,2,num_4,32,num_8,0.83343901718,,,2017_Jul_27_1447,60.0056006539,MAFE4ImagesEEG,001,200868,
AFNE01.JPG,AFNE01.JPG,AFNE01.JPG,AFNE01.JPG,AFNE01.JPG,AFNE01.JPG,,,,,,,,,5,3,53,1,,,,,,,,,,,,,,,AMNE19.jpg,AMSA11.jpg,AMSA13.jpg,AMNE10.jpg,AMSA13.jpg,MS,2,num_2,32,num_8,0.583525055787,,,2017_Jul_27_1447,60.0056006539,MAFE4ImagesEEG,001,200868,
AFNE01.JPG,AFNE01.JPG,AFNE01.JPG,AFNE01.JPG,AFNE01.JPG,AFNE01.JPG,,,,,,,,,5,4,54,5,,,,,,,,,,,,,,,AMSA02.jpg,AMNE09.jpg,AMNE07.jpg,AMSA05.jpg,AMSA05.jpg,MS,2,num_4,32,num_6,0.866779952077,,,2017_Jul_27_1447,60.0056006539,MAFE4ImagesEEG,001,200868,
AFNE01.JPG,AFNE01.JPG,AFNE01.JPG,AFNE01.JPG,AFNE01.JPG,AFNE01.JPG,,,,,,,,,5,5,55,4,,,,,,,,,,,,,,,AMNE12.jpg,AMNE07.jpg,AMSA13.jpg,AMSA10.jpg,AMNE12.jpg,MN,1,num_8,32,num_6,0.616866632132,,,2017_Jul_27_1447,60.0056006539,MAFE4ImagesEEG,001,200868,
AFNE01.JPG,AFNE01.JPG,AFNE01.JPG,AFNE01.JPG,AFNE01.JPG,AFNE01.JPG,,,,,,,,,5,6,56,6,,,,,,,,,,,,,,,AMNE18.jpg,AMSA20.jpg,AMNE10.jpg,AMSA14.jpg,AMSA14.jpg,MS,2,num_4,16,num_4,0.700151934521,,,2017_Jul_27_1447,60.0056006539,MAFE4ImagesEEG,001,200868,
AFNE01.JPG,AFNE01.JPG,AFNE01.JPG,AFNE01.JPG,AFNE01.JPG,AFNE01.JPG,,,,,,,,,5,7,57,8,,,,,,,,,,,,,,,AMNE04.jpg,AMSA15.jpg,AMNE12.jpg,AMSA18.jpg,AMNE04.jpg,MN,1,num_8,16,num_8,0.783459688886,,,2017_Jul_27_1447,60.0056006539,MAFE4ImagesEEG,001,200868,
AFNE01.JPG,AFNE01.JPG,AFNE01.JPG,AFNE01.JPG,AFNE01.JPG,AFNE01.JPG,,,,,,,,,5,8,58,9,,,,,,,,,,,,,,,AMSA04.jpg,AMSA02.jpg,AMNE12.jpg,AMNE03.jpg,AMSA04.jpg,MS,2,num_8,32,num_6,0.866750764661,,,2017_Jul_27_1447,60.0056006539,MAFE4ImagesEEG,001,200868,
AFNE01.JPG,AFNE01.JPG,AFNE01.JPG,AFNE01.JPG,AFNE01.JPG,AFNE01.JPG,,,,,,,,,5,9,59,3,,,,,,,,,,,,,,,AMSA01.jpg,AMSA02.jpg,AMNE10.jpg,AMNE02.jpg,AMSA02.jpg,MS,2,num_6,32,num_8,0.600140035152,,,2017_Jul_27_1447,60.0056006539,MAFE4ImagesEEG,001,200868,
,,,,,,,,,,,,,,,,,,,,,,,,,,,,,,,,,,,,,,,,,,,space,13.2991690586,2017_Jul_27_1447,60.0056006539,MAFE4ImagesEEG,001,200868,
AFNE01.JPG,AFNE01.JPG,AFNE01.JPG,AFNE01.JPG,AFNE01.JPG,AFNE01.JPG,,,,,,,,,,,,,0,0,0,4,,,,,,,,,,,AFSA17.jpg,AFNE05.jpg,AFSA16.jpg,AFNE20.jpg,AFNE20.jpg,FN,3,num_4,16,num_4,0.666812924203,,,2017_Jul_27_1447,60.0056006539,MAFE4ImagesEEG,001,200868,
AFNE01.JPG,AFNE01.JPG,AFNE01.JPG,AFNE01.JPG,AFNE01.JPG,AFNE01.JPG,,,,,,,,,,,,,0,1,1,0,,,,,,,,,,,AFSA17.jpg,AFSA07.jpg,AFNE12.jpg,AFNE02.jpg,AFSA17.jpg,FS,4,num_8,32,num_6,0.683536955272,,,2017_Jul_27_1447,60.0056006539,MAFE4ImagesEEG,001,200868,
AFNE01.JPG,AFNE01.JPG,AFNE01.JPG,AFNE01.JPG,AFNE01.JPG,AFNE01.JPG,,,,,,,,,,,,,0,2,2,7,,,,,,,,,,,AFSA03.jpg,AFNE09.jpg,AFSA18.jpg,AFNE12.jpg,AFNE12.jpg,FN,3,num_4,32,num_6,0.633501818054,,,2017_Jul_27_1447,60.0056006539,MAFE4ImagesEEG,001,200868,
AFNE01.JPG,AFNE01.JPG,AFNE01.JPG,AFNE01.JPG,AFNE01.JPG,AFNE01.JPG,,,,,,,,,,,,,0,3,3,5,,,,,,,,,,,AFNE02.jpg,AFSA18.jpg,AFSA20.jpg,AFNE03.jpg,AFSA20.jpg,FS,4,num_2,16,num_2,0.816819868283,,,2017_Jul_27_1447,60.0056006539,MAFE4ImagesEEG,001,200868,
AFNE01.JPG,AFNE01.JPG,AFNE01.JPG,AFNE01.JPG,AFNE01.JPG,AFNE01.JPG,,,,,,,,,,,,,0,4,4,8,,,,,,,,,,,AFNE11.jpg,AFSA03.jpg,AFSA16.jpg,AFNE05.jpg,AFNE11.jpg,FN,3,num_8,32,num_6,0.650162984151,,,2017_Jul_27_1447,60.0056006539,MAFE4ImagesEEG,001,200868,
AFNE01.JPG,AFNE01.JPG,AFNE01.JPG,AFNE01.JPG,AFNE01.JPG,AFNE01.JPG,,,,,,,,,,,,,0,5,5,3,,,,,,,,,,,AFNE04.jpg,AFSA18.jpg,AFSA17.jpg,AFNE01.jpg,AFNE01.jpg,FN,3,num_4,32,num_8,0.533524237922,,,2017_Jul_27_1447,60.0056006539,MAFE4ImagesEEG,001,200868,
AFNE01.JPG,AFNE01.JPG,AFNE01.JPG,AFNE01.JPG,AFNE01.JPG,AFNE01.JPG,,,,,,,,,,,,,0,6,6,1,,,,,,,,,,,AFNE09.jpg,AFSA05.jpg,AFSA03.jpg,AFNE07.jpg,AFNE07.jpg,FN,3,num_4,32,num_6,0.500141927507,,,2017_Jul_27_1447,60.0056006539,MAFE4ImagesEEG,001,200868,
AFNE01.JPG,AFNE01.JPG,AFNE01.JPG,AFNE01.JPG,AFNE01.JPG,AFNE01.JPG,,,,,,,,,,,,,0,7,7,2,,,,,,,,,,,AFSA20.jpg,AFNE19.jpg,AFNE11.jpg,AFSA16.jpg,AFNE19.jpg,FN,3,num_6,16,num_6,0.700173744932,,,2017_Jul_27_1447,60.0056006539,MAFE4ImagesEEG,001,200868,
AFNE01.JPG,AFNE01.JPG,AFNE01.JPG,AFNE01.JPG,AFNE01.JPG,AFNE01.JPG,,,,,,,,,,,,,0,8,8,9,,,,,,,,,,,AFNE04.jpg,AFNE11.jpg,AFSA18.jpg,AFSA10.jpg,AFSA10.jpg,FS,4,num_4,32,num_6,0.63330488361,,,2017_Jul_27_1447,60.0056006539,MAFE4ImagesEEG,001,200868,
AFNE01.JPG,AFNE01.JPG,AFNE01.JPG,AFNE01.JPG,AFNE01.JPG,AFNE01.JPG,,,,,,,,,,,,,0,9,9,6,,,,,,,,,,,AFSA18.jpg,AFSA16.jpg,AFNE15.jpg,AFNE11.jpg,AFNE11.jpg,FN,3,num_4,16,num_4,0.650183832273,,,2017_Jul_27_1447,60.0056006539,MAFE4ImagesEEG,001,200868,
AFNE01.JPG,AFNE01.JPG,AFNE01.JPG,AFNE01.JPG,AFNE01.JPG,AFNE01.JPG,,,,,,,,,,,,,1,0,10,3,,,,,,,,,,,AFSA04.jpg,AFSA18.jpg,AFNE19.jpg,AFNE16.jpg,AFNE19.jpg,FN,3,num_2,32,num_6,1.25013014034,,,2017_Jul_27_1447,60.0056006539,MAFE4ImagesEEG,001,200868,
AFNE01.JPG,AFNE01.JPG,AFNE01.JPG,AFNE01.JPG,AFNE01.JPG,AFNE01.JPG,,,,,,,,,,,,,1,1,11,9,,,,,,,,,,,AFSA14.jpg,AFNE03.jpg,AFNE08.jpg,AFSA18.jpg,AFNE08.jpg,FN,3,num_2,32,num_6,0.566785308416,,,2017_Jul_27_1447,60.0056006539,MAFE4ImagesEEG,001,200868,
AFNE01.JPG,AFNE01.JPG,AFNE01.JPG,AFNE01.JPG,AFNE01.JPG,AFNE01.JPG,,,,,,,,,,,,,1,2,12,6,,,,,,,,,,,AFSA05.jpg,AFNE16.jpg,AFNE14.jpg,AFSA14.jpg,AFNE14.jpg,FN,3,num_2,32,num_8,0.96684156626,,,2017_Jul_27_1447,60.0056006539,MAFE4ImagesEEG,001,200868,
AFNE01.JPG,AFNE01.JPG,AFNE01.JPG,AFNE01.JPG,AFNE01.JPG,AFNE01.JPG,,,,,,,,,,,,,1,3,13,4,,,,,,,,,,,AFSA04.jpg,AFNE15.jpg,AFNE19.jpg,AFSA06.jpg,AFSA04.jpg,FS,4,num_8,32,num_2,0.650140853017,,,2017_Jul_27_1447,60.0056006539,MAFE4ImagesEEG,001,200868,
AFNE01.JPG,AFNE01.JPG,AFNE01.JPG,AFNE01.JPG,AFNE01.JPG,AFNE01.JPG,,,,,,,,,,,,,1,4,14,8,,,,,,,,,,,AFNE01.jpg,AFNE14.jpg,AFSA08.jpg,AFSA20.jpg,AFNE01.jpg,FN,3,num_8,32,num_6,0.983494072221,,,2017_Jul_27_1447,60.0056006539,MAFE4ImagesEEG,001,200868,
AFNE01.JPG,AFNE01.JPG,AFNE01.JPG,AFNE01.JPG,AFNE01.JPG,AFNE01.JPG,,,,,,,,,,,,,1,5,15,0,,,,,,,,,,,AFSA18.jpg,AFSA05.jpg,AFNE13.jpg,AFNE10.jpg,AFNE13.jpg,FN,3,num_2,16,num_2,1.28341109678,,,2017_Jul_27_1447,60.0056006539,MAFE4ImagesEEG,001,200868,
AFNE01.JPG,AFNE01.JPG,AFNE01.JPG,AFNE01.JPG,AFNE01.JPG,AFNE01.JPG,,,,,,,,,,,,,1,6,16,1,,,,,,,,,,,AFSA11.jpg,AFNE20.jpg,AFNE04.jpg,AFSA01.jpg,AFSA01.jpg,FS,4,num_4,32,num_6,0.616755335242,,,2017_Jul_27_1447,60.0056006539,MAFE4ImagesEEG,001,200868,
AFNE01.JPG,AFNE01.JPG,AFNE01.JPG,AFNE01.JPG,AFNE01.JPG,AFNE01.JPG,,,,,,,,,,,,,1,7,17,5,,,,,,,,,,,AFSA01.jpg,AFNE15.jpg,AFNE06.jpg,AFSA20.jpg,AFNE06.jpg,FN,3,num_2,32,num_6,0.800121175707,,,2017_Jul_27_1447,60.0056006539,MAFE4ImagesEEG,001,200868,
AFNE01.JPG,AFNE01.JPG,AFNE01.JPG,AFNE01.JPG,AFNE01.JPG,AFNE01.JPG,,,,,,,,,,,,,1,8,18,7,,,,,,,,,,,AFNE20.jpg,AFSA10.jpg,AFSA03.jpg,AFNE13.jpg,AFSA10.jpg,FS,4,num_6,32,num_8,0.950111441081,,,2017_Jul_27_1447,60.0056006539,MAFE4ImagesEEG,001,200868,
AFNE01.JPG,AFNE01.JPG,AFNE01.JPG,AFNE01.JPG,AFNE01.JPG,AFNE01.JPG,,,,,,,,,,,,,1,9,19,2,,,,,,,,,,,AFSA11.jpg,AFNE14.jpg,AFNE13.jpg,AFSA09.jpg,AFSA11.jpg,FS,4,num_8,16,num_8,0.766823540675,,,2017_Jul_27_1447,60.0056006539,MAFE4ImagesEEG,001,200868,
AFNE01.JPG,AFNE01.JPG,AFNE01.JPG,AFNE01.JPG,AFNE01.JPG,AFNE01.JPG,,,,,,,,,,,,,2,0,20,2,,,,,,,,,,,AFSA18.jpg,AFNE10.jpg,AFSA15.jpg,AFNE19.jpg,AFNE10.jpg,FN,3,num_6,16,num_6,0.583122206153,,,2017_Jul_27_1447,60.0056006539,MAFE4ImagesEEG,001,200868,
AFNE01.JPG,AFNE01.JPG,AFNE01.JPG,AFNE01.JPG,AFNE01.JPG,AFNE01.JPG,,,,,,,,,,,,,2,1,21,4,,,,,,,,,,,AFSA04.jpg,AFSA19.jpg,AFNE01.jpg,AFNE07.jpg,AFNE07.jpg,FN,3,num_4,32,num_8,0.433555638301,,,2017_Jul_27_1447,60.0056006539,MAFE4ImagesEEG,001,200868,
AFNE01.JPG,AFNE01.JPG,AFNE01.JPG,AFNE01.JPG,AFNE01.JPG,AFNE01.JPG,,,,,,,,,,,,,2,2,22,6,,,,,,,,,,,AFSA07.jpg,AFNE14.jpg,AFNE15.jpg,AFSA20.jpg,AFSA07.jpg,FS,4,num_8,16,num_8,0.833436772111,,,2017_Jul_27_1447,60.0056006539,MAFE4ImagesEEG,001,200868,
AFNE01.JPG,AFNE01.JPG,AFNE01.JPG,AFNE01.JPG,AFNE01.JPG,AFNE01.JPG,,,,,,,,,,,,,2,3,23,1,,,,,,,,,,,AFNE13.jpg,AFSA11.jpg,AFNE19.jpg,AFSA12.jpg,AFNE13.jpg,FN,3,num_8,16,num_8,0.800179229584,,,2017_Jul_27_1447,60.0056006539,MAFE4ImagesEEG,001,200868,
AFNE01.JPG,AFNE01.JPG,AFNE01.JPG,AFNE01.JPG,AFNE01.JPG,AFNE01.JPG,,,,,,,,,,,,,2,4,24,7,,,,,,,,,,,AFNE19.jpg,AFNE08.jpg,AFSA17.jpg,AFSA16.jpg,AFNE08.jpg,FN,3,num_6,16,num_6,0.883486021776,,,2017_Jul_27_1447,60.0056006539,MAFE4ImagesEEG,001,200868,
AFNE01.JPG,AFNE01.JPG,AFNE01.JPG,AFNE01.JPG,AFNE01.JPG,AFNE01.JPG,,,,,,,,,,,,,2,5,25,3,,,,,,,,,,,AFNE13.jpg,AFSA11.jpg,AFSA03.jpg,AFNE06.jpg,AFNE06.jpg,FN,3,num_4,16,num_4,0.933436804102,,,2017_Jul_27_1447,60.0056006539,MAFE4ImagesEEG,001,200868,
AFNE01.JPG,AFNE01.JPG,AFNE01.JPG,AFNE01.JPG,AFNE01.JPG,AFNE01.JPG,,,,,,,,,,,,,2,6,26,0,,,,,,,,,,,AFNE09.jpg,AFSA02.jpg,AFSA01.jpg,AFNE15.jpg,AFSA01.jpg,FS,4,num_2,32,num_8,0.700181442779,,,2017_Jul_27_1447,60.0056006539,MAFE4ImagesEEG,001,200868,
AFNE01.JPG,AFNE01.JPG,AFNE01.JPG,AFNE01.JPG,AFNE01.JPG,AFNE01.JPG,,,,,,,,,,,,,2,7,27,8,,,,,,,,,,,AFNE20.jpg,AFNE11.jpg,AFSA17.jpg,AFSA04.jpg,AFSA04.jpg,FS,4,num_4,32,num_6,0.883471588371,,,2017_Jul_27_1447,60.0056006539,MAFE4ImagesEEG,001,200868,
AFNE01.JPG,AFNE01.JPG,AFNE01.JPG,AFNE01.JPG,AFNE01.JPG,AFNE01.JPG,,,,,,,,,,,,,2,8,28,5,,,,,,,,,,,AFNE11.jpg,AFSA03.jpg,AFSA09.jpg,AFNE03.jpg,AFNE03.jpg,FN,3,num_4,16,num_4,1.21676162176,,,2017_Jul_27_1447,60.0056006539,MAFE4ImagesEEG,001,200868,
AFNE01.JPG,AFNE01.JPG,AFNE01.JPG,AFNE01.JPG,AFNE01.JPG,AFNE01.JPG,,,,,,,,,,,,,2,9,29,9,,,,,,,,,,,AFSA18.jpg,AFNE14.jpg,AFNE20.jpg,AFSA15.jpg,AFNE20.jpg,FN,3,num_2,16,num_2,0.683525408618,,,2017_Jul_27_1447,60.0056006539,MAFE4ImagesEEG,001,200868,
AFNE01.JPG,AFNE01.JPG,AFNE01.JPG,AFNE01.JPG,AFNE01.JPG,AFNE01.JPG,,,,,,,,,,,,,3,0,30,2,,,,,,,,,,,AFNE06.jpg,AFSA17.jpg,AFSA03.jpg,AFNE05.jpg,AFNE05.jpg,FN,3,num_4,32,num_6,1.48344964976,,,2017_Jul_27_1447,60.0056006539,MAFE4ImagesEEG,001,200868,
AFNE01.JPG,AFNE01.JPG,AFNE01.JPG,AFNE01.JPG,AFNE01.JPG,AFNE01.JPG,,,,,,,,,,,,,3,1,31,0,,,,,,,,,,,AFNE04.jpg,AFSA09.jpg,AFSA20.jpg,AFNE08.jpg,AFNE04.jpg,FN,3,num_8,16,num_8,0.716762102908,,,2017_Jul_27_1447,60.0056006539,MAFE4ImagesEEG,001,200868,
AFNE01.JPG,AFNE01.JPG,AFNE01.JPG,AFNE01.JPG,AFNE01.JPG,AFNE01.JPG,,,,,,,,,,,,,3,2,32,7,,,,,,,,,,,AFSA02.jpg,AFNE01.jpg,AFNE17.jpg,AFSA11.jpg,AFNE01.jpg,FN,3,num_6,16,num_6,0.800097120111,,,2017_Jul_27_1447,60.0056006539,MAFE4ImagesEEG,001,200868,
AFNE01.JPG,AFNE01.JPG,AFNE01.JPG,AFNE01.JPG,AFNE01.JPG,AFNE01.JPG,,,,,,,,,,,,,3,3,33,5,,,,,,,,,,,AFSA07.jpg,AFNE14.jpg,AFNE12.jpg,AFSA03.jpg,AFNE14.jpg,FN,3,num_6,32,num_2,1.46670797805,,,2017_Jul_27_1447,60.0056006539,MAFE4ImagesEEG,001,200868,
AFNE01.JPG,AFNE01.JPG,AFNE01.JPG,AFNE01.JPG,AFNE01.JPG,AFNE01.JPG,,,,,,,,,,,,,3,4,34,8,,,,,,,,,,,AFSA17.jpg,AFNE04.jpg,AFNE12.jpg,AFSA15.jpg,AFSA15.jpg,FS,4,num_4,32,num_8,0.766752977856,,,2017_Jul_27_1447,60.0056006539,MAFE4ImagesEEG,001,200868,
AFNE01.JPG,AFNE01.JPG,AFNE01.JPG,AFNE01.JPG,AFNE01.JPG,AFNE01.JPG,,,,,,,,,,,,,3,5,35,3,,,,,,,,,,,AFSA09.jpg,AFNE09.jpg,AFNE14.jpg,AFSA16.jpg,AFSA16.jpg,FS,4,num_4,32,num_6,0.400183912367,,,2017_Jul_27_1447,60.0056006539,MAFE4ImagesEEG,001,200868,
AFNE01.JPG,AFNE01.JPG,AFNE01.JPG,AFNE01.JPG,AFNE01.JPG,AFNE01.JPG,,,,,,,,,,,,,3,6,36,6,,,,,,,,,,,AFSA13.jpg,AFSA17.jpg,AFNE10.jpg,AFNE18.jpg,AFSA13.jpg,FS,4,num_8,16,num_8,0.46680099261,,,2017_Jul_27_1447,60.0056006539,MAFE4ImagesEEG,001,200868,
AFNE01.JPG,AFNE01.JPG,AFNE01.JPG,AFNE01.JPG,AFNE01.JPG,AFNE01.JPG,,,,,,,,,,,,,3,7,37,4,,,,,,,,,,,AFNE08.jpg,AFSA08.jpg,AFSA01.jpg,AFNE03.jpg,AFSA08.jpg,FS,4,num_6,32,num_8,0.683519635233,,,2017_Jul_27_1447,60.0056006539,MAFE4ImagesEEG,001,200868,
AFNE01.JPG,AFNE01.JPG,AFNE01.JPG,AFNE01.JPG,AFNE01.JPG,AFNE01.JPG,,,,,,,,,,,,,3,8,38,9,,,,,,,,,,,AFSA02.jpg,AFNE08.jpg,AFNE17.jpg,AFSA12.jpg,AFSA02.jpg,FS,4,num_8,16,num_8,0.68349429674,,,2017_Jul_27_1447,60.0056006539,MAFE4ImagesEEG,001,200868,
AFNE01.JPG,AFNE01.JPG,AFNE01.JPG,AFNE01.JPG,AFNE01.JPG,AFNE01.JPG,,,,,,,,,,,,,3,9,39,1,,,,,,,,,,,AFSA06.jpg,AFSA09.jpg,AFNE11.jpg,AFNE09.jpg,AFNE11.jpg,FN,3,num_2,32,num_8,0.916739394539,,,2017_Jul_27_1447,60.0056006539,MAFE4ImagesEEG,001,200868,
AFNE01.JPG,AFNE01.JPG,AFNE01.JPG,AFNE01.JPG,AFNE01.JPG,AFNE01.JPG,,,,,,,,,,,,,4,0,40,4,,,,,,,,,,,AFSA13.jpg,AFSA04.jpg,AFNE18.jpg,AFNE02.jpg,AFSA04.jpg,FS,4,num_6,32,num_8,0.683487240458,,,2017_Jul_27_1447,60.0056006539,MAFE4ImagesEEG,001,200868,
AFNE01.JPG,AFNE01.JPG,AFNE01.JPG,AFNE01.JPG,AFNE01.JPG,AFNE01.JPG,,,,,,,,,,,,,4,1,41,7,,,,,,,,,,,AFNE17.jpg,AFSA18.jpg,AFSA05.jpg,AFNE07.jpg,AFNE17.jpg,FN,3,num_8,32,num_6,0.616765919724,,,2017_Jul_27_1447,60.0056006539,MAFE4ImagesEEG,001,200868,
AFNE01.JPG,AFNE01.JPG,AFNE01.JPG,AFNE01.JPG,AFNE01.JPG,AFNE01.JPG,,,,,,,,,,,,,4,2,42,5,,,,,,,,,,,AFSA18.jpg,AFNE06.jpg,AFNE02.jpg,AFSA16.jpg,AFNE02.jpg,FN,3,num_2,32,num_6,0.616688941955,,,2017_Jul_27_1447,60.0056006539,MAFE4ImagesEEG,001,200868,
AFNE01.JPG,AFNE01.JPG,AFNE01.JPG,AFNE01.JPG,AFNE01.JPG,AFNE01.JPG,,,,,,,,,,,,,4,3,43,9,,,,,,,,,,,AFSA16.jpg,AFNE17.jpg,AFSA12.jpg,AFNE08.jpg,AFNE17.jpg,FN,3,num_6,32,num_8,0.883311859798,,,2017_Jul_27_1447,60.0056006539,MAFE4ImagesEEG,001,200868,
AFNE01.JPG,AFNE01.JPG,AFNE01.JPG,AFNE01.JPG,AFNE01.JPG,AFNE01.JPG,,,,,,,,,,,,,4,4,44,3,,,,,,,,,,,AFSA14.jpg,AFNE05.jpg,AFSA17.jpg,AFNE06.jpg,AFNE06.jpg,FN,3,num_4,32,num_8,0.550277135451,,,2017_Jul_27_1447,60.0056006539,MAFE4ImagesEEG,001,200868,
AFNE01.JPG,AFNE01.JPG,AFNE01.JPG,AFNE01.JPG,AFNE01.JPG,AFNE01.JPG,,,,,,,,,,,,,4,5,45,1,,,,,,,,,,,AFSA19.jpg,AFSA06.jpg,AFNE04.jpg,AFNE02.jpg,AFSA19.jpg,FS,4,num_8,32,num_6,0.583143695723,,,2017_Jul_27_1447,60.0056006539,MAFE4ImagesEEG,001,200868,
AFNE01.JPG,AFNE01.JPG,AFNE01.JPG,AFNE01.JPG,AFNE01.JPG,AFNE01.JPG,,,,,,,,,,,,,4,6,46,6,,,,,,,,,,,AFSA15.jpg,AFNE15.jpg,AFNE01.jpg,AFSA13.jpg,AFNE15.jpg,FN,3,num_6,32,num_4,0.550187969697,,,2017_Jul_27_1447,60.0056006539,MAFE4ImagesEEG,001,200868,
AFNE01.JPG,AFNE01.JPG,AFNE01.JPG,AFNE01.JPG,AFNE01.JPG,AFNE01.JPG,,,,,,,,,,,,,4,7,47,2,,,,,,,,,,,AFSA15.jpg,AFNE08.jpg,AFSA05.jpg,AFNE07.jpg,AFNE07.jpg,FN,3,num_4,32,num_8,0.800136250327,,,2017_Jul_27_1447,60.0056006539,MAFE4ImagesEEG,001,200868,
AFNE01.JPG,AFNE01.JPG,AFNE01.JPG,AFNE01.JPG,AFNE01.JPG,AFNE01.JPG,,,,,,,,,,,,,4,8,48,0,,,,,,,,,,,AFSA20.jpg,AFNE07.jpg,AFSA14.jpg,AFNE03.jpg,AFNE07.jpg,FN,3,num_6,32,num_2,0.733438343625,,,2017_Jul_27_1447,60.0056006539,MAFE4ImagesEEG,001,200868,
AFNE01.JPG,AFNE01.JPG,AFNE01.JPG,AFNE01.JPG,AFNE01.JPG,AFNE01.JPG,,,,,,,,,,,,,4,9,49,8,,,,,,,,,,,AFSA17.jpg,AFNE14.jpg,AFSA11.jpg,AFNE11.jpg,AFNE11.jpg,FN,3,num_4,16,num_4,0.450151373399,,,2017_Jul_27_1447,60.0056006539,MAFE4ImagesEEG,001,200868,
AFNE01.JPG,AFNE01.JPG,AFNE01.JPG,AFNE01.JPG,AFNE01.JPG,AFNE01.JPG,,,,,,,,,,,,,5,0,50,5,,,,,,,,,,,AFNE03.jpg,AFNE14.jpg,AFSA08.jpg,AFSA19.jpg,AFSA08.jpg,FS,4,num_2,32,num_8,1.31705705542,,,2017_Jul_27_1447,60.0056006539,MAFE4ImagesEEG,001,200868,
AFNE01.JPG,AFNE01.JPG,AFNE01.JPG,AFNE01.JPG,AFNE01.JPG,AFNE01.JPG,,,,,,,,,,,,,5,1,51,3,,,,,,,,,,,AFSA09.jpg,AFNE16.jpg,AFSA16.jpg,AFNE19.jpg,AFSA16.jpg,FS,4,num_2,32,num_6,1.10023802123,,,2017_Jul_27_1447,60.0056006539,MAFE4ImagesEEG,001,200868,
AFNE01.JPG,AFNE01.JPG,AFNE01.JPG,AFNE01.JPG,AFNE01.JPG,AFNE01.JPG,,,,,,,,,,,,,5,2,52,6,,,,,,,,,,,AFSA13.jpg,AFNE13.jpg,AFSA08.jpg,AFNE17.jpg,AFSA13.jpg,FS,4,num_8,32,num_6,0.733501529437,,,2017_Jul_27_1447,60.0056006539,MAFE4ImagesEEG,001,200868,
AFNE01.JPG,AFNE01.JPG,AFNE01.JPG,AFNE01.JPG,AFNE01.JPG,AFNE01.JPG,,,,,,,,,,,,,5,3,53,9,,,,,,,,,,,AFSA15.jpg,AFNE13.jpg,AFSA10.jpg,AFNE18.jpg,AFSA10.jpg,FS,4,num_2,32,num_8,0.866781234974,,,2017_Jul_27_1447,60.0056006539,MAFE4ImagesEEG,001,200868,
AFNE01.JPG,AFNE01.JPG,AFNE01.JPG,AFNE01.JPG,AFNE01.JPG,AFNE01.JPG,,,,,,,,,,,,,5,4,54,0,,,,,,,,,,,AFSA06.jpg,AFSA15.jpg,AFNE15.jpg,AFNE09.jpg,AFNE15.jpg,FN,3,num_2,32,num_6,0.466762183001,,,2017_Jul_27_1447,60.0056006539,MAFE4ImagesEEG,001,200868,
AFNE01.JPG,AFNE01.JPG,AFNE01.JPG,AFNE01.JPG,AFNE01.JPG,AFNE01.JPG,,,,,,,,,,,,,5,5,55,8,,,,,,,,,,,AFSA06.jpg,AFSA18.jpg,AFNE09.jpg,AFNE14.jpg,AFNE14.jpg,FN,3,num_4,32,num_6,1.10009689559,,,2017_Jul_27_1447,60.0056006539,MAFE4ImagesEEG,001,200868,
AFNE01.JPG,AFNE01.JPG,AFNE01.JPG,AFNE01.JPG,AFNE01.JPG,AFNE01.JPG,,,,,,,,,,,,,5,6,56,1,,,,,,,,,,,AFNE02.jpg,AFNE19.jpg,AFSA16.jpg,AFSA12.jpg,AFSA16.jpg,FS,4,num_2,32,num_4,0.633446650812,,,2017_Jul_27_1447,60.0056006539,MAFE4ImagesEEG,001,200868,
AFNE01.JPG,AFNE01.JPG,AFNE01.JPG,AFNE01.JPG,AFNE01.JPG,AFNE01.JPG,,,,,,,,,,,,,5,7,57,4,,,,,,,,,,,AFSA18.jpg,AFNE20.jpg,AFSA04.jpg,AFNE13.jpg,AFSA18.jpg,FS,4,num_8,16,num_8,0.88347736164,,,2017_Jul_27_1447,60.0056006539,MAFE4ImagesEEG,001,200868,
AFNE01.JPG,AFNE01.JPG,AFNE01.JPG,AFNE01.JPG,AFNE01.JPG,AFNE01.JPG,,,,,,,,,,,,,5,8,58,7,,,,,,,,,,,AFNE02.jpg,AFSA01.jpg,AFSA03.jpg,AFNE18.jpg,AFNE18.jpg,FN,3,num_4,32,num_8,0.650179983233,,,2017_Jul_27_1447,60.0056006539,MAFE4ImagesEEG,001,200868,
AFNE01.JPG,AFNE01.JPG,AFNE01.JPG,AFNE01.JPG,AFNE01.JPG,AFNE01.JPG,,,,,,,,,,,,,5,9,59,2,,,,,,,,,,,AFSA13.jpg,AFNE09.jpg,AFSA04.jpg,AFNE13.jpg,AFNE13.jpg,FN,3,num_4,16,num_4,1.26673678041,,,2017_Jul_27_1447,60.0056006539,MAFE4ImagesEEG,001,200868,
,,,,,,,,,,,,,,,,,,,,,,,,,,,,,,,,,,,,,,,,,,,space,1.58341856999,2017_Jul_27_1447,60.0056006539,MAFE4ImagesEEG,001,200868,
AFNE01.JPG,AFNE01.JPG,AFNE01.JPG,AFNE01.JPG,AFNE01.JPG,AFNE01.JPG,,,,,,,,,,,,,,,,,0,0,0,6,,,,,,,AMNE20.jpg,AMSA18.jpg,AMSA17.jpg,AMNE17.jpg,AMSA17.jpg,MS,2,num_2,32,num_8,0.583537885337,,,2017_Jul_27_1447,60.0056006539,MAFE4ImagesEEG,001,200868,
AFNE01.JPG,AFNE01.JPG,AFNE01.JPG,AFNE01.JPG,AFNE01.JPG,AFNE01.JPG,,,,,,,,,,,,,,,,,0,1,1,0,,,,,,,AMNE13.jpg,AMSA11.jpg,AMNE03.jpg,AMSA03.jpg,AMSA03.jpg,MS,2,num_4,16,num_4,0.766818088014,,,2017_Jul_27_1447,60.0056006539,MAFE4ImagesEEG,001,200868,
AFNE01.JPG,AFNE01.JPG,AFNE01.JPG,AFNE01.JPG,AFNE01.JPG,AFNE01.JPG,,,,,,,,,,,,,,,,,0,2,2,2,,,,,,,AMSA08.jpg,AMNE16.jpg,AMSA15.jpg,AMNE07.jpg,AMNE16.jpg,MN,1,num_6,32,num_8,0.816733589163,,,2017_Jul_27_1447,60.0056006539,MAFE4ImagesEEG,001,200868,
AFNE01.JPG,AFNE01.JPG,AFNE01.JPG,AFNE01.JPG,AFNE01.JPG,AFNE01.JPG,,,,,,,,,,,,,,,,,0,3,3,4,,,,,,,AMNE08.jpg,AMSA03.jpg,AMNE05.jpg,AMSA16.jpg,AMSA16.jpg,MS,2,num_4,32,num_8,1.1167692875,,,2017_Jul_27_1447,60.0056006539,MAFE4ImagesEEG,001,200868,
AFNE01.JPG,AFNE01.JPG,AFNE01.JPG,AFNE01.JPG,AFNE01.JPG,AFNE01.JPG,,,,,,,,,,,,,,,,,0,4,4,7,,,,,,,AMNE18.jpg,AMNE05.jpg,AMSA14.jpg,AMSA05.jpg,AMNE18.jpg,MN,1,num_8,16,num_8,0.716772366548,,,2017_Jul_27_1447,60.0056006539,MAFE4ImagesEEG,001,200868,
AFNE01.JPG,AFNE01.JPG,AFNE01.JPG,AFNE01.JPG,AFNE01.JPG,AFNE01.JPG,,,,,,,,,,,,,,,,,0,5,5,1,,,,,,,AMSA06.jpg,AMNE14.jpg,AMSA19.jpg,AMNE09.jpg,AMSA06.jpg,MS,2,num_8,32,num_2,0.933457972948,,,2017_Jul_27_1447,60.0056006539,MAFE4ImagesEEG,001,200868,
AFNE01.JPG,AFNE01.JPG,AFNE01.JPG,AFNE01.JPG,AFNE01.JPG,AFNE01.JPG,,,,,,,,,,,,,,,,,0,6,6,3,,,,,,,AMNE09.jpg,AMSA15.jpg,AMNE15.jpg,AMSA02.jpg,AMSA02.jpg,MS,2,num_4,16,num_4,1.85003122396,,,2017_Jul_27_1447,60.0056006539,MAFE4ImagesEEG,001,200868,
AFNE01.JPG,AFNE01.JPG,AFNE01.JPG,AFNE01.JPG,AFNE01.JPG,AFNE01.JPG,,,,,,,,,,,,,,,,,0,7,7,9,,,,,,,AMSA17.jpg,AMNE19.jpg,AMSA20.jpg,AMNE15.jpg,AMNE19.jpg,MN,1,num_6,32,num_4,1.10022871976,,,2017_Jul_27_1447,60.0056006539,MAFE4ImagesEEG,001,200868,
AFNE01.JPG,AFNE01.JPG,AFNE01.JPG,AFNE01.JPG,AFNE01.JPG,AFNE01.JPG,,,,,,,,,,,,,,,,,0,8,8,8,,,,,,,AMNE11.jpg,AMSA01.jpg,AMSA20.jpg,AMNE08.jpg,AMSA01.jpg,MS,2,num_6,16,num_6,1.18341940397,,,2017_Jul_27_1447,60.0056006539,MAFE4ImagesEEG,001,200868,
AFNE01.JPG,AFNE01.JPG,AFNE01.JPG,AFNE01.JPG,AFNE01.JPG,AFNE01.JPG,,,,,,,,,,,,,,,,,0,9,9,5,,,,,,,AMSA12.jpg,AMSA04.jpg,AMNE20.jpg,AMNE16.jpg,AMNE16.jpg,MN,1,num_4,16,num_4,1.25047429441,,,2017_Jul_27_1447,60.0056006539,MAFE4ImagesEEG,001,200868,
AFNE01.JPG,AFNE01.JPG,AFNE01.JPG,AFNE01.JPG,AFNE01.JPG,AFNE01.JPG,,,,,,,,,,,,,,,,,1,0,10,6,,,,,,,AMSA11.jpg,AMSA09.jpg,AMNE16.jpg,AMNE08.jpg,AMNE08.jpg,MN,1,num_4,32,num_2,1.08342386223,,,2017_Jul_27_1447,60.0056006539,MAFE4ImagesEEG,001,200868,
AFNE01.JPG,AFNE01.JPG,AFNE01.JPG,AFNE01.JPG,AFNE01.JPG,AFNE01.JPG,,,,,,,,,,,,,,,,,1,1,11,0,,,,,,,AMNE06.jpg,AMSA12.jpg,AMNE19.jpg,AMSA11.jpg,AMSA12.jpg,MS,2,num_6,32,num_4,1.55008180474,,,2017_Jul_27_1447,60.0056006539,MAFE4ImagesEEG,001,200868,
AFNE01.JPG,AFNE01.JPG,AFNE01.JPG,AFNE01.JPG,AFNE01.JPG,AFNE01.JPG,,,,,,,,,,,,,,,,,1,2,12,2,,,,,,,AMNE15.jpg,AMNE03.jpg,AMSA06.jpg,AMSA11.jpg,AMSA11.jpg,MS,2,num_4,32,num_6,0.400198345655,,,2017_Jul_27_1447,60.0056006539,MAFE4ImagesEEG,001,200868,
AFNE01.JPG,AFNE01.JPG,AFNE01.JPG,AFNE01.JPG,AFNE01.JPG,AFNE01.JPG,,,,,,,,,,,,,,,,,1,3,13,3,,,,,,,AMNE14.jpg,AMNE17.jpg,AMSA13.jpg,AMSA07.jpg,AMSA13.jpg,MS,2,num_2,32,num_4,1.0667873933,,,2017_Jul_27_1447,60.0056006539,MAFE4ImagesEEG,001,200868,
AFNE01.JPG,AFNE01.JPG,AFNE01.JPG,AFNE01.JPG,AFNE01.JPG,AFNE01.JPG,,,,,,,,,,,,,,,,,1,4,14,8,,,,,,,AMSA03.jpg,AMNE20.jpg,AMSA02.jpg,AMNE18.jpg,AMNE20.jpg,MN,1,num_6,32,num_8,0.833363001817,,,2017_Jul_27_1447,60.0056006539,MAFE4ImagesEEG,001,200868,
AFNE01.JPG,AFNE01.JPG,AFNE01.JPG,AFNE01.JPG,AFNE01.JPG,AFNE01.JPG,,,,,,,,,,,,,,,,,1,5,15,7,,,,,,,AMSA12.jpg,AMNE13.jpg,AMSA15.jpg,AMNE17.jpg,AMSA15.jpg,MS,2,num_2,32,num_8,0.483505458455,,,2017_Jul_27_1447,60.0056006539,MAFE4ImagesEEG,001,200868,
AFNE01.JPG,AFNE01.JPG,AFNE01.JPG,AFNE01.JPG,AFNE01.JPG,AFNE01.JPG,,,,,,,,,,,,,,,,,1,6,16,9,,,,,,,AMNE09.jpg,AMSA02.jpg,AMSA16.jpg,AMNE11.jpg,AMSA16.jpg,MS,2,num_2,32,num_6,0.833490014891,,,2017_Jul_27_1447,60.0056006539,MAFE4ImagesEEG,001,200868,
AFNE01.JPG,AFNE01.JPG,AFNE01.JPG,AFNE01.JPG,AFNE01.JPG,AFNE01.JPG,,,,,,,,,,,,,,,,,1,7,17,5,,,,,,,AMNE07.jpg,AMSA10.jpg,AMSA01.jpg,AMNE05.jpg,AMNE05.jpg,MN,1,num_4,32,num_8,1.03347757016,,,2017_Jul_27_1447,60.0056006539,MAFE4ImagesEEG,001,200868,
AFNE01.JPG,AFNE01.JPG,AFNE01.JPG,AFNE01.JPG,AFNE01.JPG,AFNE01.JPG,,,,,,,,,,,,,,,,,1,8,18,1,,,,,,,AMNE12.jpg,AMNE02.jpg,AMSA14.jpg,AMSA04.jpg,AMNE02.jpg,MN,1,num_6,32,num_8,1.35001374374,,,2017_Jul_27_1447,60.0056006539,MAFE4ImagesEEG,001,200868,
AFNE01.JPG,AFNE01.JPG,AFNE01.JPG,AFNE01.JPG,AFNE01.JPG,AFNE01.JPG,,,,,,,,,,,,,,,,,1,9,19,4,,,,,,,AMNE06.jpg,AMSA08.jpg,AMNE15.jpg,AMSA06.jpg,AMNE15.jpg,MN,1,num_2,32,num_4,0.850108201616,,,2017_Jul_27_1447,60.0056006539,MAFE4ImagesEEG,001,200868,
AFNE01.JPG,AFNE01.JPG,AFNE01.JPG,AFNE01.JPG,AFNE01.JPG,AFNE01.JPG,,,,,,,,,,,,,,,,,2,0,20,5,,,,,,,AMSA05.jpg,AMNE05.jpg,AMNE14.jpg,AMSA07.jpg,AMSA05.jpg,MS,2,num_8,16,num_8,0.766826748033,,,2017_Jul_27_1447,60.0056006539,MAFE4ImagesEEG,001,200868,
AFNE01.JPG,AFNE01.JPG,AFNE01.JPG,AFNE01.JPG,AFNE01.JPG,AFNE01.JPG,,,,,,,,,,,,,,,,,2,1,21,4,,,,,,,AMSA11.jpg,AMNE07.jpg,AMSA12.jpg,AMNE13.jpg,AMNE13.jpg,MN,1,num_4,32,num_8,0.433478339924,,,2017_Jul_27_1447,60.0056006539,MAFE4ImagesEEG,001,200868,
AFNE01.JPG,AFNE01.JPG,AFNE01.JPG,AFNE01.JPG,AFNE01.JPG,AFNE01.JPG,,,,,,,,,,,,,,,,,2,2,22,3,,,,,,,AMNE17.jpg,AMSA18.jpg,AMNE05.jpg,AMSA02.jpg,AMNE17.jpg,MN,1,num_8,32,num_6,0.68344361987,,,2017_Jul_27_1447,60.0056006539,MAFE4ImagesEEG,001,200868,
AFNE01.JPG,AFNE01.JPG,AFNE01.JPG,AFNE01.JPG,AFNE01.JPG,AFNE01.JPG,,,,,,,,,,,,,,,,,2,3,23,9,,,,,,,AMNE06.jpg,AMSA14.jpg,AMNE08.jpg,AMSA19.jpg,AMNE08.jpg,MN,1,num_2,32,num_8,0.933219021535,,,2017_Jul_27_1447,60.0056006539,MAFE4ImagesEEG,001,200868,
AFNE01.JPG,AFNE01.JPG,AFNE01.JPG,AFNE01.JPG,AFNE01.JPG,AFNE01.JPG,,,,,,,,,,,,,,,,,2,4,24,8,,,,,,,AMSA09.jpg,AMSA12.jpg,AMNE12.jpg,AMNE13.jpg,AMSA09.jpg,MS,2,num_8,16,num_8,1.00042850873,,,2017_Jul_27_1447,60.0056006539,MAFE4ImagesEEG,001,200868,
AFNE01.JPG,AFNE01.JPG,AFNE01.JPG,AFNE01.JPG,AFNE01.JPG,AFNE01.JPG,,,,,,,,,,,,,,,,,2,5,25,2,,,,,,,AMSA10.jpg,AMNE04.jpg,AMNE14.jpg,AMSA17.jpg,AMNE04.jpg,MN,1,num_6,16,num_6,1.05014867906,,,2017_Jul_27_1447,60.0056006539,MAFE4ImagesEEG,001,200868,
AFNE01.JPG,AFNE01.JPG,AFNE01.JPG,AFNE01.JPG,AFNE01.JPG,AFNE01.JPG,,,,,,,,,,,,,,,,,2,6,26,0,,,,,,,AMNE16.jpg,AMSA19.jpg,AMSA17.jpg,AMNE15.jpg,AMSA17.jpg,MS,2,num_2,32,num_6,1.15009514755,,,2017_Jul_27_1447,60.0056006539,MAFE4ImagesEEG,001,200868,
AFNE01.JPG,AFNE01.JPG,AFNE01.JPG,AFNE01.JPG,AFNE01.JPG,AFNE01.JPG,,,,,,,,,,,,,,,,,2,7,27,1,,,,,,,AMSA16.jpg,AMNE05.jpg,AMNE10.jpg,AMSA19.jpg,AMNE05.jpg,MN,1,num_6,32,num_8,1.13348113035,,,2017_Jul_27_1447,60.0056006539,MAFE4ImagesEEG,001,200868,
AFNE01.JPG,AFNE01.JPG,AFNE01.JPG,AFNE01.JPG,AFNE01.JPG,AFNE01.JPG,,,,,,,,,,,,,,,,,2,8,28,7,,,,,,,AMNE01.jpg,AMNE19.jpg,AMSA04.jpg,AMSA16.jpg,AMSA16.jpg,MS,2,num_4,32,num_8,0.750528659904,,,2017_Jul_27_1447,60.0056006539,MAFE4ImagesEEG,001,200868,
AFNE01.JPG,AFNE01.JPG,AFNE01.JPG,AFNE01.JPG,AFNE01.JPG,AFNE01.JPG,,,,,,,,,,,,,,,,,2,9,29,6,,,,,,,AMSA10.jpg,AMNE13.jpg,AMNE11.jpg,AMSA09.jpg,AMSA09.jpg,MS,2,num_4,32,num_8,1.03354492551,,,2017_Jul_27_1447,60.0056006539,MAFE4ImagesEEG,001,200868,
AFNE01.JPG,AFNE01.JPG,AFNE01.JPG,AFNE01.JPG,AFNE01.JPG,AFNE01.JPG,,,,,,,,,,,,,,,,,3,0,30,1,,,,,,,AMSA09.jpg,AMSA01.jpg,AMNE16.jpg,AMNE02.jpg,AMNE16.jpg,MN,1,num_2,32,num_6,0.783477971097,,,2017_Jul_27_1447,60.0056006539,MAFE4ImagesEEG,001,200868,
AFNE01.JPG,AFNE01.JPG,AFNE01.JPG,AFNE01.JPG,AFNE01.JPG,AFNE01.JPG,,,,,,,,,,,,,,,,,3,1,31,5,,,,,,,AMSA05.jpg,AMNE10.jpg,AMNE01.jpg,AMSA15.jpg,AMNE01.jpg,MN,1,num_2,32,num_8,0.433498225873,,,2017_Jul_27_1447,60.0056006539,MAFE4ImagesEEG,001,200868,
AFNE01.JPG,AFNE01.JPG,AFNE01.JPG,AFNE01.JPG,AFNE01.JPG,AFNE01.JPG,,,,,,,,,,,,,,,,,3,2,32,4,,,,,,,AMNE19.jpg,AMSA13.jpg,AMSA02.jpg,AMNE01.jpg,AMNE01.jpg,MN,1,num_4,32,num_8,0.616474046139,,,2017_Jul_27_1447,60.0056006539,MAFE4ImagesEEG,001,200868,
AFNE01.JPG,AFNE01.JPG,AFNE01.JPG,AFNE01.JPG,AFNE01.JPG,AFNE01.JPG,,,,,,,,,,,,,,,,,3,3,33,8,,,,,,,AMNE07.jpg,AMSA07.jpg,AMNE11.jpg,AMSA19.jpg,AMNE11.jpg,MN,1,num_2,32,num_6,0.466827614,,,2017_Jul_27_1447,60.0056006539,MAFE4ImagesEEG,001,200868,
AFNE01.JPG,AFNE01.JPG,AFNE01.JPG,AFNE01.JPG,AFNE01.JPG,AFNE01.JPG,,,,,,,,,,,,,,,,,3,4,34,6,,,,,,,AMSA04.jpg,AMNE13.jpg,AMSA18.jpg,AMNE18.jpg,AMSA04.jpg,MS,2,num_8,16,num_8,0.633576229797,,,2017_Jul_27_1447,60.0056006539,MAFE4ImagesEEG,001,200868,
AFNE01.JPG,AFNE01.JPG,AFNE01.JPG,AFNE01.JPG,AFNE01.JPG,AFNE01.JPG,,,,,,,,,,,,,,,,,3,5,35,0,,,,,,,AMSA19.jpg,AMSA07.jpg,AMNE04.jpg,AMNE07.jpg,AMNE04.jpg,MN,1,num_2,32,num_6,0.500108891283,,,2017_Jul_27_1447,60.0056006539,MAFE4ImagesEEG,001,200868,
AFNE01.JPG,AFNE01.JPG,AFNE01.JPG,AFNE01.JPG,AFNE01.JPG,AFNE01.JPG,,,,,,,,,,,,,,,,,3,6,36,9,,,,,,,AMNE09.jpg,AMNE18.jpg,AMSA13.jpg,AMSA14.jpg,AMNE18.jpg,MN,1,num_6,32,num_8,0.61711552646,,,2017_Jul_27_1447,60.0056006539,MAFE4ImagesEEG,001,200868,
AFNE01.JPG,AFNE01.JPG,AFNE01.JPG,AFNE01.JPG,AFNE01.JPG,AFNE01.JPG,,,,,,,,,,,,,,,,,3,7,37,7,,,,,,,AMSA05.jpg,AMSA17.jpg,AMNE12.jpg,AMNE09.jpg,AMSA05.jpg,MS,2,num_8,16,num_8,0.533469712129,,,2017_Jul_27_1447,60.0056006539,MAFE4ImagesEEG,001,200868,
AFNE01.JPG,AFNE01.JPG,AFNE01.JPG,AFNE01.JPG,AFNE01.JPG,AFNE01.JPG,,,,,,,,,,,,,,,,,3,8,38,3,,,,,,,AMNE06.jpg,AMSA18.jpg,AMSA11.jpg,AMNE11.jpg,AMNE06.jpg,MN,1,num_8,32,num_4,0.766751374118,,,2017_Jul_27_1447,60.0056006539,MAFE4ImagesEEG,001,200868,
AFNE01.JPG,AFNE01.JPG,AFNE01.JPG,AFNE01.JPG,AFNE01.JPG,AFNE01.JPG,,,,,,,,,,,,,,,,,3,9,39,2,,,,,,,AMSA09.jpg,AMNE20.jpg,AMSA16.jpg,AMNE04.jpg,AMNE20.jpg,MN,1,num_6,16,num_6,1.06678354437,,,2017_Jul_27_1447,60.0056006539,MAFE4ImagesEEG,001,200868,
AFNE01.JPG,AFNE01.JPG,AFNE01.JPG,AFNE01.JPG,AFNE01.JPG,AFNE01.JPG,,,,,,,,,,,,,,,,,4,0,40,4,,,,,,,AMNE05.jpg,AMSA07.jpg,AMSA03.jpg,AMNE18.jpg,AMNE05.jpg,MN,1,num_8,16,num_8,0.683502635919,,,2017_Jul_27_1447,60.0056006539,MAFE4ImagesEEG,001,200868,
AFNE01.JPG,AFNE01.JPG,AFNE01.JPG,AFNE01.JPG,AFNE01.JPG,AFNE01.JPG,,,,,,,,,,,,,,,,,4,1,41,5,,,,,,,AMNE08.jpg,AMNE13.jpg,AMSA07.jpg,AMSA16.jpg,AMNE08.jpg,MN,1,num_8,16,num_8,0.950136138126,,,2017_Jul_27_1447,60.0056006539,MAFE4ImagesEEG,001,200868,
AFNE01.JPG,AFNE01.JPG,AFNE01.JPG,AFNE01.JPG,AFNE01.JPG,AFNE01.JPG,,,,,,,,,,,,,,,,,4,2,42,9,,,,,,,AMSA01.jpg,AMSA20.jpg,AMNE01.jpg,AMNE17.jpg,AMNE17.jpg,MN,1,num_4,32,num_8,1.15008905355,,,2017_Jul_27_1447,60.0056006539,MAFE4ImagesEEG,001,200868,
AFNE01.JPG,AFNE01.JPG,AFNE01.JPG,AFNE01.JPG,AFNE01.JPG,AFNE01.JPG,,,,,,,,,,,,,,,,,4,3,43,8,,,,,,,AMNE03.jpg,AMNE02.jpg,AMSA02.jpg,AMSA13.jpg,AMSA02.jpg,MS,2,num_2,32,num_8,1.30015918333,,,2017_Jul_27_1447,60.0056006539,MAFE4ImagesEEG,001,200868,
AFNE01.JPG,AFNE01.JPG,AFNE01.JPG,AFNE01.JPG,AFNE01.JPG,AFNE01.JPG,,,,,,,,,,,,,,,,,4,4,44,1,,,,,,,AMNE03.jpg,AMSA19.jpg,AMSA09.jpg,AMNE06.jpg,AMNE06.jpg,MN,1,num_4,32,num_8,0.633534533554,,,2017_Jul_27_1447,60.0056006539,MAFE4ImagesEEG,001,200868,
AFNE01.JPG,AFNE01.JPG,AFNE01.JPG,AFNE01.JPG,AFNE01.JPG,AFNE01.JPG,,,,,,,,,,,,,,,,,4,5,45,6,,,,,,,AMNE04.jpg,AMSA03.jpg,AMNE19.jpg,AMSA18.jpg,AMNE19.jpg,MN,1,num_2,32,num_8,1.43339975865,,,2017_Jul_27_1447,60.0056006539,MAFE4ImagesEEG,001,200868,
AFNE01.JPG,AFNE01.JPG,AFNE01.JPG,AFNE01.JPG,AFNE01.JPG,AFNE01.JPG,,,,,,,,,,,,,,,,,4,6,46,2,,,,,,,AMNE02.jpg,AMSA07.jpg,AMSA17.jpg,AMNE17.jpg,AMNE17.jpg,MN,1,num_4,32,num_8,1.10013089399,,,2017_Jul_27_1447,60.0056006539,MAFE4ImagesEEG,001,200868,
AFNE01.JPG,AFNE01.JPG,AFNE01.JPG,AFNE01.JPG,AFNE01.JPG,AFNE01.JPG,,,,,,,,,,,,,,,,,4,7,47,0,,,,,,,AMSA18.jpg,AMNE15.jpg,AMSA08.jpg,AMNE20.jpg,AMSA08.jpg,MS,2,num_2,32,num_6,0.500167266,,,2017_Jul_27_1447,60.0056006539,MAFE4ImagesEEG,001,200868,
AFNE01.JPG,AFNE01.JPG,AFNE01.JPG,AFNE01.JPG,AFNE01.JPG,AFNE01.JPG,,,,,,,,,,,,,,,,,4,8,48,3,,,,,,,AMNE02.jpg,AMNE03.jpg,AMSA17.jpg,AMSA05.jpg,AMNE03.jpg,MN,1,num_6,32,num_8,3.31661860377,,,2017_Jul_27_1447,60.0056006539,MAFE4ImagesEEG,001,200868,
AFNE01.JPG,AFNE01.JPG,AFNE01.JPG,AFNE01.JPG,AFNE01.JPG,AFNE01.JPG,,,,,,,,,,,,,,,,,4,9,49,7,,,,,,,AMSA10.jpg,AMNE13.jpg,AMSA08.jpg,AMNE10.jpg,AMSA08.jpg,MS,2,num_2,32,num_8,1.50009157136,,,2017_Jul_27_1447,60.0056006539,MAFE4ImagesEEG,001,200868,
AFNE01.JPG,AFNE01.JPG,AFNE01.JPG,AFNE01.JPG,AFNE01.JPG,AFNE01.JPG,,,,,,,,,,,,,,,,,5,0,50,3,,,,,,,AMSA03.jpg,AMNE14.jpg,AMNE01.jpg,AMSA15.jpg,AMNE14.jpg,MN,1,num_6,32,num_8,0.450200446532,,,2017_Jul_27_1447,60.0056006539,MAFE4ImagesEEG,001,200868,
AFNE01.JPG,AFNE01.JPG,AFNE01.JPG,AFNE01.JPG,AFNE01.JPG,AFNE01.JPG,,,,,,,,,,,,,,,,,5,1,51,4,,,,,,,AMNE08.jpg,AMNE16.jpg,AMSA10.jpg,AMSA08.jpg,AMSA08.jpg,MS,2,num_4,32,num_6,0.516760755796,,,2017_Jul_27_1447,60.0056006539,MAFE4ImagesEEG,001,200868,
AFNE01.JPG,AFNE01.JPG,AFNE01.JPG,AFNE01.JPG,AFNE01.JPG,AFNE01.JPG,,,,,,,,,,,,,,,,,5,2,52,1,,,,,,,AMNE17.jpg,AMSA15.jpg,AMSA14.jpg,AMNE06.jpg,AMNE06.jpg,MN,1,num_4,32,num_6,0.400164988707,,,2017_Jul_27_1447,60.0056006539,MAFE4ImagesEEG,001,200868,
AFNE01.JPG,AFNE01.JPG,AFNE01.JPG,AFNE01.JPG,AFNE01.JPG,AFNE01.JPG,,,,,,,,,,,,,,,,,5,3,53,8,,,,,,,AMNE19.jpg,AMNE04.jpg,AMSA10.jpg,AMSA08.jpg,AMNE19.jpg,MN,1,num_8,16,num_8,0.350160642643,,,2017_Jul_27_1447,60.0056006539,MAFE4ImagesEEG,001,200868,
AFNE01.JPG,AFNE01.JPG,AFNE01.JPG,AFNE01.JPG,AFNE01.JPG,AFNE01.JPG,,,,,,,,,,,,,,,,,5,4,54,6,,,,,,,AMSA17.jpg,AMNE06.jpg,AMSA10.jpg,AMNE01.jpg,AMSA17.jpg,MS,2,num_8,16,num_8,2.23337339377,,,2017_Jul_27_1447,60.0056006539,MAFE4ImagesEEG,001,200868,
AFNE01.JPG,AFNE01.JPG,AFNE01.JPG,AFNE01.JPG,AFNE01.JPG,AFNE01.JPG,,,,,,,,,,,,,,,,,5,5,55,0,,,,,,,AMSA13.jpg,AMSA08.jpg,AMNE09.jpg,AMNE01.jpg,AMSA13.jpg,MS,2,num_8,16,num_8,0.450049698702,,,2017_Jul_27_1447,60.0056006539,MAFE4ImagesEEG,001,200868,
AFNE01.JPG,AFNE01.JPG,AFNE01.JPG,AFNE01.JPG,AFNE01.JPG,AFNE01.JPG,,,,,,,,,,,,,,,,,5,6,56,7,,,,,,,AMSA06.jpg,AMNE20.jpg,AMSA14.jpg,AMNE03.jpg,AMNE03.jpg,MN,1,num_4,32,num_8,0.633469744003,,,2017_Jul_27_1447,60.0056006539,MAFE4ImagesEEG,001,200868,
AFNE01.JPG,AFNE01.JPG,AFNE01.JPG,AFNE01.JPG,AFNE01.JPG,AFNE01.JPG,,,,,,,,,,,,,,,,,5,7,57,2,,,,,,,AMNE14.jpg,AMSA10.jpg,AMSA05.jpg,AMNE07.jpg,AMSA05.jpg,MS,2,num_2,32,num_8,0.450160995475,,,2017_Jul_27_1447,60.0056006539,MAFE4ImagesEEG,001,200868,
AFNE01.JPG,AFNE01.JPG,AFNE01.JPG,AFNE01.JPG,AFNE01.JPG,AFNE01.JPG,,,,,,,,,,,,,,,,,5,8,58,5,,,,,,,AMNE10.jpg,AMSA20.jpg,AMSA06.jpg,AMNE05.jpg,AMNE10.jpg,MN,1,num_8,16,num_8,1.68339518807,,,2017_Jul_27_1447,60.0056006539,MAFE4ImagesEEG,001,200868,
AFNE01.JPG,AFNE01.JPG,AFNE01.JPG,AFNE01.JPG,AFNE01.JPG,AFNE01.JPG,,,,,,,,,,,,,,,,,5,9,59,9,,,,,,,AMSA05.jpg,AMSA07.jpg,AMNE10.jpg,AMNE03.jpg,AMSA07.jpg,MS,2,num_6,32,num_8,0.733328009024,,,2017_Jul_27_1447,60.0056006539,MAFE4ImagesEEG,001,200868,
,,,,,,,,,,,,,,,,,,,,,,,,,,,,,,,,,,,,,,,,,,,space,2.98314061668,2017_Jul_27_1447,60.0056006539,MAFE4ImagesEEG,001,200868,
AFNE01.JPG,AFNE01.JPG,AFNE01.JPG,AFNE01.JPG,AFNE01.JPG,AFNE01.JPG,,,,,,,,,,,,,,,,,,,,,0,0,0,9,,,AFSA15.jpg,AFNE09.jpg,AFNE11.jpg,AFSA11.jpg,AFNE09.jpg,FN,3,num_6,32,num_8,0.68347280717,,,2017_Jul_27_1447,60.0056006539,MAFE4ImagesEEG,001,200868,
AFNE01.JPG,AFNE01.JPG,AFNE01.JPG,AFNE01.JPG,AFNE01.JPG,AFNE01.JPG,,,,,,,,,,,,,,,,,,,,,0,1,1,7,,,AFNE19.jpg,AFSA11.jpg,AFNE07.jpg,AFSA05.jpg,AFSA11.jpg,FS,4,num_6,32,num_4,0.966870432836,,,2017_Jul_27_1447,60.0056006539,MAFE4ImagesEEG,001,200868,
AFNE01.JPG,AFNE01.JPG,AFNE01.JPG,AFNE01.JPG,AFNE01.JPG,AFNE01.JPG,,,,,,,,,,,,,,,,,,,,,0,2,2,1,,,AFNE03.jpg,AFNE16.jpg,AFSA13.jpg,AFSA20.jpg,AFNE16.jpg,FN,3,num_6,16,num_6,0.700135256047,,,2017_Jul_27_1447,60.0056006539,MAFE4ImagesEEG,001,200868,
AFNE01.JPG,AFNE01.JPG,AFNE01.JPG,AFNE01.JPG,AFNE01.JPG,AFNE01.JPG,,,,,,,,,,,,,,,,,,,,,0,3,3,5,,,AFSA16.jpg,AFNE13.jpg,AFSA11.jpg,AFNE05.jpg,AFNE13.jpg,FN,3,num_6,32,num_2,0.750133828726,,,2017_Jul_27_1447,60.0056006539,MAFE4ImagesEEG,001,200868,
AFNE01.JPG,AFNE01.JPG,AFNE01.JPG,AFNE01.JPG,AFNE01.JPG,AFNE01.JPG,,,,,,,,,,,,,,,,,,,,,0,4,4,3,,,AFSA12.jpg,AFSA08.jpg,AFNE18.jpg,AFNE14.jpg,AFSA08.jpg,FS,4,num_6,16,num_6,0.866626317496,,,2017_Jul_27_1447,60.0056006539,MAFE4ImagesEEG,001,200868,
AFNE01.JPG,AFNE01.JPG,AFNE01.JPG,AFNE01.JPG,AFNE01.JPG,AFNE01.JPG,,,,,,,,,,,,,,,,,,,,,0,5,5,4,,,AFNE17.jpg,AFSA14.jpg,AFSA01.jpg,AFNE18.jpg,AFSA01.jpg,FS,4,num_2,16,num_2,1.01678785833,,,2017_Jul_27_1447,60.0056006539,MAFE4ImagesEEG,001,200868,
AFNE01.JPG,AFNE01.JPG,AFNE01.JPG,AFNE01.JPG,AFNE01.JPG,AFNE01.JPG,,,,,,,,,,,,,,,,,,,,,0,6,6,2,,,AFNE15.jpg,AFSA06.jpg,AFNE06.jpg,AFSA04.jpg,AFSA04.jpg,FS,4,num_4,16,num_4,0.750211127219,,,2017_Jul_27_1447,60.0056006539,MAFE4ImagesEEG,001,200868,
AFNE01.JPG,AFNE01.JPG,AFNE01.JPG,AFNE01.JPG,AFNE01.JPG,AFNE01.JPG,,,,,,,,,,,,,,,,,,,,,0,7,7,0,,,AFSA13.jpg,AFNE16.jpg,AFSA03.jpg,AFNE06.jpg,AFNE06.jpg,FN,3,num_4,32,num_6,1.38340984588,,,2017_Jul_27_1447,60.0056006539,MAFE4ImagesEEG,001,200868,
AFNE01.JPG,AFNE01.JPG,AFNE01.JPG,AFNE01.JPG,AFNE01.JPG,AFNE01.JPG,,,,,,,,,,,,,,,,,,,,,0,8,8,6,,,AFSA10.jpg,AFSA09.jpg,AFNE09.jpg,AFNE17.jpg,AFSA10.jpg,FS,4,num_8,16,num_8,0.716780064278,,,2017_Jul_27_1447,60.0056006539,MAFE4ImagesEEG,001,200868,
AFNE01.JPG,AFNE01.JPG,AFNE01.JPG,AFNE01.JPG,AFNE01.JPG,AFNE01.JPG,,,,,,,,,,,,,,,,,,,,,0,9,9,8,,,AFSA10.jpg,AFNE12.jpg,AFNE02.jpg,AFSA05.jpg,AFSA05.jpg,FS,4,num_4,32,num_8,0.716754084453,,,2017_Jul_27_1447,60.0056006539,MAFE4ImagesEEG,001,200868,
AFNE01.JPG,AFNE01.JPG,AFNE01.JPG,AFNE01.JPG,AFNE01.JPG,AFNE01.JPG,,,,,,,,,,,,,,,,,,,,,1,0,10,0,,,AFNE05.jpg,AFSA08.jpg,AFSA03.jpg,AFNE19.jpg,AFNE05.jpg,FN,3,num_8,16,num_8,0.666640365962,,,2017_Jul_27_1447,60.0056006539,MAFE4ImagesEEG,001,200868,
AFNE01.JPG,AFNE01.JPG,AFNE01.JPG,AFNE01.JPG,AFNE01.JPG,AFNE01.JPG,,,,,,,,,,,,,,,,,,,,,1,1,11,1,,,AFSA11.jpg,AFSA18.jpg,AFNE14.jpg,AFNE19.jpg,AFSA11.jpg,FS,4,num_8,32,num_2,1.88336670632,,,2017_Jul_27_1447,60.0056006539,MAFE4ImagesEEG,001,200868,
AFNE01.JPG,AFNE01.JPG,AFNE01.JPG,AFNE01.JPG,AFNE01.JPG,AFNE01.JPG,,,,,,,,,,,,,,,,,,,,,1,2,12,4,,,AFSA07.jpg,AFNE18.jpg,AFSA19.jpg,AFNE15.jpg,AFSA07.jpg,FS,4,num_8,16,num_8,0.850132257212,,,2017_Jul_27_1447,60.0056006539,MAFE4ImagesEEG,001,200868,
AFNE01.JPG,AFNE01.JPG,AFNE01.JPG,AFNE01.JPG,AFNE01.JPG,AFNE01.JPG,,,,,,,,,,,,,,,,,,,,,1,3,13,3,,,AFSA12.jpg,AFNE12.jpg,AFNE02.jpg,AFSA19.jpg,AFNE12.jpg,FN,3,num_6,32,num_8,0.716746386606,,,2017_Jul_27_1447,60.0056006539,MAFE4ImagesEEG,001,200868,
AFNE01.JPG,AFNE01.JPG,AFNE01.JPG,AFNE01.JPG,AFNE01.JPG,AFNE01.JPG,,,,,,,,,,,,,,,,,,,,,1,4,14,2,,,AFSA11.jpg,AFSA05.jpg,AFNE04.jpg,AFNE11.jpg,AFNE04.jpg,FN,3,num_2,32,num_6,1.00007409102,,,2017_Jul_27_1447,60.0056006539,MAFE4ImagesEEG,001,200868,
AFNE01.JPG,AFNE01.JPG,AFNE01.JPG,AFNE01.JPG,AFNE01.JPG,AFNE01.JPG,,,,,,,,,,,,,,,,,,,,,1,5,15,6,,,AFNE13.jpg,AFNE16.jpg,AFSA08.jpg,AFSA01.jpg,AFSA01.jpg,FS,4,num_4,32,num_8,0.600185580202,,,2017_Jul_27_1447,60.0056006539,MAFE4ImagesEEG,001,200868,
AFNE01.JPG,AFNE01.JPG,AFNE01.JPG,AFNE01.JPG,AFNE01.JPG,AFNE01.JPG,,,,,,,,,,,,,,,,,,,,,1,6,16,5,,,AFSA14.jpg,AFNE13.jpg,AFNE09.jpg,AFSA17.jpg,AFSA14.jpg,FS,4,num_8,16,num_8,0.583505169838,,,2017_Jul_27_1447,60.0056006539,MAFE4ImagesEEG,001,200868,
AFNE01.JPG,AFNE01.JPG,AFNE01.JPG,AFNE01.JPG,AFNE01.JPG,AFNE01.JPG,,,,,,,,,,,,,,,,,,,,,1,7,17,8,,,AFNE13.jpg,AFSA20.jpg,AFNE07.jpg,AFSA10.jpg,AFSA20.jpg,FS,4,num_6,16,num_6,0.533501144615,,,2017_Jul_27_1447,60.0056006539,MAFE4ImagesEEG,001,200868,
AFNE01.JPG,AFNE01.JPG,AFNE01.JPG,AFNE01.JPG,AFNE01.JPG,AFNE01.JPG,,,,,,,,,,,,,,,,,,,,,1,8,18,9,,,AFSA01.jpg,AFNE13.jpg,AFSA08.jpg,AFNE01.jpg,AFSA08.jpg,FS,4,num_2,32,num_8,1.51673702092,,,2017_Jul_27_1447,60.0056006539,MAFE4ImagesEEG,001,200868,
AFNE01.JPG,AFNE01.JPG,AFNE01.JPG,AFNE01.JPG,AFNE01.JPG,AFNE01.JPG,,,,,,,,,,,,,,,,,,,,,1,9,19,7,,,AFNE05.jpg,AFSA08.jpg,AFSA05.jpg,AFNE06.jpg,AFNE06.jpg,FN,3,num_4,32,num_6,0.533498578588,,,2017_Jul_27_1447,60.0056006539,MAFE4ImagesEEG,001,200868,
AFNE01.JPG,AFNE01.JPG,AFNE01.JPG,AFNE01.JPG,AFNE01.JPG,AFNE01.JPG,,,,,,,,,,,,,,,,,,,,,2,0,20,1,,,AFNE06.jpg,AFSA14.jpg,AFSA15.jpg,AFNE01.jpg,AFNE01.jpg,FN,3,num_4,32,num_8,0.466772126034,,,2017_Jul_27_1447,60.0056006539,MAFE4ImagesEEG,001,200868,
AFNE01.JPG,AFNE01.JPG,AFNE01.JPG,AFNE01.JPG,AFNE01.JPG,AFNE01.JPG,,,,,,,,,,,,,,,,,,,,,2,1,21,8,,,AFNE16.jpg,AFNE20.jpg,AFSA06.jpg,AFSA11.jpg,AFSA11.jpg,FS,4,num_4,32,num_2,0.78346000961,,,2017_Jul_27_1447,60.0056006539,MAFE4ImagesEEG,001,200868,
AFNE01.JPG,AFNE01.JPG,AFNE01.JPG,AFNE01.JPG,AFNE01.JPG,AFNE01.JPG,,,,,,,,,,,,,,,,,,,,,2,2,22,9,,,AFSA03.jpg,AFSA06.jpg,AFNE07.jpg,AFNE16.jpg,AFSA03.jpg,FS,4,num_8,32,num_6,0.850135785295,,,2017_Jul_27_1447,60.0056006539,MAFE4ImagesEEG,001,200868,
AFNE01.JPG,AFNE01.JPG,AFNE01.JPG,AFNE01.JPG,AFNE01.JPG,AFNE01.JPG,,,,,,,,,,,,,,,,,,,,,2,3,23,6,,,AFSA12.jpg,AFNE06.jpg,AFNE13.jpg,AFSA20.jpg,AFSA12.jpg,FS,4,num_8,16,num_8,0.733501850162,,,2017_Jul_27_1447,60.0056006539,MAFE4ImagesEEG,001,200868,
AFNE01.JPG,AFNE01.JPG,AFNE01.JPG,AFNE01.JPG,AFNE01.JPG,AFNE01.JPG,,,,,,,,,,,,,,,,,,,,,2,4,24,0,,,AFSA20.jpg,AFNE18.jpg,AFSA18.jpg,AFNE02.jpg,AFSA20.jpg,FS,4,num_8,16,num_8,0.983461998287,,,2017_Jul_27_1447,60.0056006539,MAFE4ImagesEEG,001,200868,
AFNE01.JPG,AFNE01.JPG,AFNE01.JPG,AFNE01.JPG,AFNE01.JPG,AFNE01.JPG,,,,,,,,,,,,,,,,,,,,,2,5,25,2,,,AFSA19.jpg,AFNE06.jpg,AFNE12.jpg,AFSA05.jpg,AFSA19.jpg,FS,4,num_8,16,num_8,1.01676284056,,,2017_Jul_27_1447,60.0056006539,MAFE4ImagesEEG,001,200868,
AFNE01.JPG,AFNE01.JPG,AFNE01.JPG,AFNE01.JPG,AFNE01.JPG,AFNE01.JPG,,,,,,,,,,,,,,,,,,,,,2,6,26,5,,,AFSA08.jpg,AFNE05.jpg,AFSA18.jpg,AFNE20.jpg,AFSA18.jpg,FS,4,num_2,32,num_8,1.48346023413,,,2017_Jul_27_1447,60.0056006539,MAFE4ImagesEEG,001,200868,
AFNE01.JPG,AFNE01.JPG,AFNE01.JPG,AFNE01.JPG,AFNE01.JPG,AFNE01.JPG,,,,,,,,,,,,,,,,,,,,,2,7,27,4,,,AFNE08.jpg,AFSA03.jpg,AFSA06.jpg,AFNE01.jpg,AFNE01.jpg,FN,3,num_4,32,num_8,0.933433276019,,,2017_Jul_27_1447,60.0056006539,MAFE4ImagesEEG,001,200868,
AFNE01.JPG,AFNE01.JPG,AFNE01.JPG,AFNE01.JPG,AFNE01.JPG,AFNE01.JPG,,,,,,,,,,,,,,,,,,,,,2,8,28,7,,,AFNE07.jpg,AFNE12.jpg,AFSA11.jpg,AFSA12.jpg,AFNE07.jpg,FN,3,num_8,16,num_8,1.7500302298,,,2017_Jul_27_1447,60.0056006539,MAFE4ImagesEEG,001,200868,
AFNE01.JPG,AFNE01.JPG,AFNE01.JPG,AFNE01.JPG,AFNE01.JPG,AFNE01.JPG,,,,,,,,,,,,,,,,,,,,,2,9,29,3,,,AFNE01.jpg,AFNE08.jpg,AFSA18.jpg,AFSA06.jpg,AFSA06.jpg,FS,4,num_4,32,num_8,1.31675620133,,,2017_Jul_27_1447,60.0056006539,MAFE4ImagesEEG,001,200868,
AFNE01.JPG,AFNE01.JPG,AFNE01.JPG,AFNE01.JPG,AFNE01.JPG,AFNE01.JPG,,,,,,,,,,,,,,,,,,,,,3,0,30,0,,,AFNE07.jpg,AFSA12.jpg,AFSA06.jpg,AFNE03.jpg,AFNE03.jpg,FN,3,num_4,32,num_8,0.716825930169,,,2017_Jul_27_1447,60.0056006539,MAFE4ImagesEEG,001,200868,
AFNE01.JPG,AFNE01.JPG,AFNE01.JPG,AFNE01.JPG,AFNE01.JPG,AFNE01.JPG,,,,,,,,,,,,,,,,,,,,,3,1,31,4,,,AFSA11.jpg,AFNE07.jpg,AFNE05.jpg,AFSA05.jpg,AFSA11.jpg,FS,4,num_8,16,num_8,0.683535672142,,,2017_Jul_27_1447,60.0056006539,MAFE4ImagesEEG,001,200868,
AFNE01.JPG,AFNE01.JPG,AFNE01.JPG,AFNE01.JPG,AFNE01.JPG,AFNE01.JPG,,,,,,,,,,,,,,,,,,,,,3,2,32,3,,,AFNE13.jpg,AFSA07.jpg,AFNE20.jpg,AFSA16.jpg,AFSA16.jpg,FS,4,num_4,48,None,,,,2017_Jul_27_1447,60.0056006539,MAFE4ImagesEEG,001,200868,
AFNE01.JPG,AFNE01.JPG,AFNE01.JPG,AFNE01.JPG,AFNE01.JPG,AFNE01.JPG,,,,,,,,,,,,,,,,,,,,,3,3,33,9,,,AFSA06.jpg,AFNE04.jpg,AFSA04.jpg,AFNE19.jpg,AFNE19.jpg,FN,3,num_4,32,num_8,1.43339494755,,,2017_Jul_27_1447,60.0056006539,MAFE4ImagesEEG,001,200868,
AFNE01.JPG,AFNE01.JPG,AFNE01.JPG,AFNE01.JPG,AFNE01.JPG,AFNE01.JPG,,,,,,,,,,,,,,,,,,,,,3,4,34,5,,,AFSA06.jpg,AFNE10.jpg,AFSA13.jpg,AFNE20.jpg,AFNE10.jpg,FN,3,num_6,32,num_8,0.700116973952,,,2017_Jul_27_1447,60.0056006539,MAFE4ImagesEEG,001,200868,
AFNE01.JPG,AFNE01.JPG,AFNE01.JPG,AFNE01.JPG,AFNE01.JPG,AFNE01.JPG,,,,,,,,,,,,,,,,,,,,,3,5,35,6,,,AFSA09.jpg,AFNE15.jpg,AFNE05.jpg,AFSA05.jpg,AFSA05.jpg,FS,4,num_4,32,num_8,0.833328041132,,,2017_Jul_27_1447,60.0056006539,MAFE4ImagesEEG,001,200868,
AFNE01.JPG,AFNE01.JPG,AFNE01.JPG,AFNE01.JPG,AFNE01.JPG,AFNE01.JPG,,,,,,,,,,,,,,,,,,,,,3,6,36,1,,,AFSA04.jpg,AFNE05.jpg,AFNE10.jpg,AFSA19.jpg,AFSA04.jpg,FS,4,num_8,16,num_8,0.583826872171,,,2017_Jul_27_1447,60.0056006539,MAFE4ImagesEEG,001,200868,
AFNE01.JPG,AFNE01.JPG,AFNE01.JPG,AFNE01.JPG,AFNE01.JPG,AFNE01.JPG,,,,,,,,,,,,,,,,,,,,,3,7,37,2,,,AFSA14.jpg,AFNE19.jpg,AFNE01.jpg,AFSA08.jpg,AFNE01.jpg,FN,3,num_2,32,num_8,1.80006119714,,,2017_Jul_27_1447,60.0056006539,MAFE4ImagesEEG,001,200868,
AFNE01.JPG,AFNE01.JPG,AFNE01.JPG,AFNE01.JPG,AFNE01.JPG,AFNE01.JPG,,,,,,,,,,,,,,,,,,,,,3,8,38,7,,,AFNE03.jpg,AFNE14.jpg,AFSA06.jpg,AFSA19.jpg,AFSA19.jpg,FS,4,num_4,32,num_2,0.833456337103,,,2017_Jul_27_1447,60.0056006539,MAFE4ImagesEEG,001,200868,
