IPosition2,IPosition3,IPosition1,IPosition6,IPosition4,IPosition5,TrialsM1.thisRepN,TrialsM1.thisTrialN,TrialsM1.thisN,TrialsM1.thisIndex,TrialsF1.thisRepN,TrialsF1.thisTrialN,TrialsF1.thisN,TrialsF1.thisIndex,TrialsM2.thisRepN,TrialsM2.thisTrialN,TrialsM2.thisN,TrialsM2.thisIndex,TrialsF2.thisRepN,TrialsF2.thisTrialN,TrialsF2.thisN,TrialsF2.thisIndex,TrialsM3.thisRepN,TrialsM3.thisTrialN,TrialsM3.thisN,TrialsM3.thisIndex,TrialsF3.thisRepN,TrialsF3.thisTrialN,TrialsF3.thisN,TrialsF3.thisIndex,InstrKey_resp.keys,InstrKey_resp.rt,Image0 _Position,Image1 _Position,Image2 _Position,Image3 _Position,Center_image,condition,code,correct_answer,accuracy,Key_Resp.keys,Key_Resp.rt,BreakKey_resp.keys,BreakKey_resp.rt,date,frameRate,expName,session,participant,
,,,,,,,,,,,,,,,,,,,,,,,,,,,,,,space,9.18297517893,,,,,,,,,,,,,,2017_Jul_20_1719,60.0090654898,MAFE4ImagesEEG,001,200884,
AFNE22.JPG,AFSA24.JPG,AFSA22.JPG,AFNE25.JPG,AFNE24.JPG,AFSA25.JPG,0,0,0,6,,,,,,,,,,,,,,,,,,,,,,,AMSA20.jpg,AMSA13.jpg,AMNE12.jpg,AMNE16.jpg,AMNE12.jpg,MN,1,num_2,32,num_8,0.900248220772,,,2017_Jul_20_1719,60.0090654898,MAFE4ImagesEEG,001,200884,
AMSA25.JPG,AMNE24.JPG,AMSA24.JPG,AMNE26.JPG,AMSA21.JPG,AMNE25.JPG,0,1,1,3,,,,,,,,,,,,,,,,,,,,,,,AMNE15.jpg,AMSA17.jpg,AMSA12.jpg,AMNE20.jpg,AMNE15.jpg,MN,1,num_8,32,num_4,0.916666265752,,,2017_Jul_20_1719,60.0090654898,MAFE4ImagesEEG,001,200884,
AMNE22.JPG,AMSA24.JPG,AMSA22.JPG,AMNE25.JPG,AMNE24.JPG,AMSA25.JPG,0,2,2,7,,,,,,,,,,,,,,,,,,,,,,,AMNE14.jpg,AMNE09.jpg,AMSA16.jpg,AMSA04.jpg,AMSA04.jpg,MS,2,num_4,16,num_4,0.416738592612,,,2017_Jul_20_1719,60.0090654898,MAFE4ImagesEEG,001,200884,
AFSA21.JPG,AFNE22.JPG,AFNE21.JPG,AFSA23.JPG,AFSA22.JPG,AFNE23.JPG,0,3,3,0,,,,,,,,,,,,,,,,,,,,,,,AMNE17.jpg,AMSA14.jpg,AMSA13.jpg,AMNE09.jpg,AMNE17.jpg,MN,1,num_8,16,num_8,0.816759889771,,,2017_Jul_20_1719,60.0090654898,MAFE4ImagesEEG,001,200884,
AMSA21.JPG,AMNE23.JPG,AMNE21.JPG,AMSA25.JPG,AMNE25.JPG,AMSA23.JPG,0,4,4,5,,,,,,,,,,,,,,,,,,,,,,,AMNE16.jpg,AMSA18.jpg,AMNE06.jpg,AMSA15.jpg,AMNE16.jpg,MN,1,num_8,32,num_4,0.616781635908,,,2017_Jul_20_1719,60.0090654898,MAFE4ImagesEEG,001,200884,
AMSA21.JPG,AMNE22.JPG,AMNE21.JPG,AMSA23.JPG,AMSA22.JPG,AMNE23.JPG,0,5,5,1,,,,,,,,,,,,,,,,,,,,,,,AMNE18.jpg,AMSA02.jpg,AMSA01.jpg,AMNE14.jpg,AMSA01.jpg,MS,2,num_2,32,num_8,0.633466857427,,,2017_Jul_20_1719,60.0090654898,MAFE4ImagesEEG,001,200884,
AFSA21.JPG,AFNE23.JPG,AFNE21.JPG,AFSA25.JPG,AFNE25.JPG,AFSA23.JPG,0,6,6,4,,,,,,,,,,,,,,,,,,,,,,,AMNE04.jpg,AMSA17.jpg,AMNE10.jpg,AMSA16.jpg,AMSA16.jpg,MS,2,num_4,16,num_4,1.11683279398,,,2017_Jul_20_1719,60.0090654898,MAFE4ImagesEEG,001,200884,
AFSA25.JPG,AFNE24.JPG,AFSA24.JPG,AFNE21.JPG,AFSA21.JPG,AFNE25.JPG,0,7,7,2,,,,,,,,,,,,,,,,,,,,,,,AMNE20.jpg,AMNE19.jpg,AMSA01.jpg,AMSA07.jpg,AMNE20.jpg,MN,1,num_8,32,num_2,1.15020451992,,,2017_Jul_20_1719,60.0090654898,MAFE4ImagesEEG,001,200884,
AFNE23.JPG,AFNE24.JPG,AFNE22.JPG,AFSA24.JPG,AFSA22.JPG,AFSA23.JPG,0,8,8,8,,,,,,,,,,,,,,,,,,,,,,,AMSA16.jpg,AMSA15.jpg,AMNE02.jpg,AMNE04.jpg,AMNE02.jpg,MN,1,num_2,32,num_8,0.800150042225,,,2017_Jul_20_1719,60.0090654898,MAFE4ImagesEEG,001,200884,
AMNE23.JPG,AMNE24.JPG,AMNE22.JPG,AMSA24.JPG,AMSA22.JPG,AMSA23.JPG,0,9,9,9,,,,,,,,,,,,,,,,,,,,,,,AMSA18.jpg,AMNE02.jpg,AMNE18.jpg,AMSA02.jpg,AMSA02.jpg,MS,2,num_4,32,num_8,0.76680333406,,,2017_Jul_20_1719,60.0090654898,MAFE4ImagesEEG,001,200884,
AFSA21.JPG,AFNE23.JPG,AFNE21.JPG,AFSA25.JPG,AFNE25.JPG,AFSA23.JPG,,,,,0,0,0,4,,,,,,,,,,,,,,,,,,,AFNE03.jpg,AFSA14.jpg,AFSA13.jpg,AFNE14.jpg,AFSA13.jpg,FS,4,num_2,32,num_6,0.916681340488,,,2017_Jul_20_1719,60.0090654898,MAFE4ImagesEEG,001,200884,
AMSA21.JPG,AMNE23.JPG,AMNE21.JPG,AMSA25.JPG,AMNE25.JPG,AMSA23.JPG,,,,,0,1,1,5,,,,,,,,,,,,,,,,,,,AFNE14.jpg,AFNE10.jpg,AFSA19.jpg,AFSA08.jpg,AFNE10.jpg,FN,3,num_6,32,num_8,0.516783528321,,,2017_Jul_20_1719,60.0090654898,MAFE4ImagesEEG,001,200884,
AFSA25.JPG,AFNE24.JPG,AFSA24.JPG,AFNE21.JPG,AFSA21.JPG,AFNE25.JPG,,,,,0,2,2,2,,,,,,,,,,,,,,,,,,,AFSA02.jpg,AFNE01.jpg,AFNE18.jpg,AFSA06.jpg,AFSA02.jpg,FS,4,num_8,32,num_4,0.416850210167,,,2017_Jul_20_1719,60.0090654898,MAFE4ImagesEEG,001,200884,
AFNE22.JPG,AFSA24.JPG,AFSA22.JPG,AFNE25.JPG,AFNE24.JPG,AFSA25.JPG,,,,,0,3,3,6,,,,,,,,,,,,,,,,,,,AFSA03.jpg,AFSA17.jpg,AFNE03.jpg,AFNE01.jpg,AFNE01.jpg,FN,3,num_4,16,num_4,0.800145551912,,,2017_Jul_20_1719,60.0090654898,MAFE4ImagesEEG,001,200884,
AFSA21.JPG,AFNE22.JPG,AFNE21.JPG,AFSA23.JPG,AFSA22.JPG,AFNE23.JPG,,,,,0,4,4,0,,,,,,,,,,,,,,,,,,,AFNE02.jpg,AFSA14.jpg,AFNE01.jpg,AFSA01.jpg,AFNE01.jpg,FN,3,num_2,16,num_2,0.633480328543,,,2017_Jul_20_1719,60.0090654898,MAFE4ImagesEEG,001,200884,
AMSA25.JPG,AMNE24.JPG,AMSA24.JPG,AMNE26.JPG,AMSA21.JPG,AMNE25.JPG,,,,,0,5,5,3,,,,,,,,,,,,,,,,,,,AFNE03.jpg,AFSA11.jpg,AFSA07.jpg,AFNE08.jpg,AFSA11.jpg,FS,4,num_6,16,num_6,0.583489132812,,,2017_Jul_20_1719,60.0090654898,MAFE4ImagesEEG,001,200884,
AMNE23.JPG,AMNE24.JPG,AMNE22.JPG,AMSA24.JPG,AMSA22.JPG,AMSA23.JPG,,,,,0,6,6,9,,,,,,,,,,,,,,,,,,,AFSA16.jpg,AFNE18.jpg,AFSA20.jpg,AFNE06.jpg,AFNE18.jpg,FN,3,num_6,32,num_4,0.66681933892,,,2017_Jul_20_1719,60.0090654898,MAFE4ImagesEEG,001,200884,
AMSA21.JPG,AMNE22.JPG,AMNE21.JPG,AMSA23.JPG,AMSA22.JPG,AMNE23.JPG,,,,,0,7,7,1,,,,,,,,,,,,,,,,,,,AFSA17.jpg,AFNE13.jpg,AFNE19.jpg,AFSA09.jpg,AFNE19.jpg,FN,3,num_2,32,num_4,0.93346599146,,,2017_Jul_20_1719,60.0090654898,MAFE4ImagesEEG,001,200884,
AMNE22.JPG,AMSA24.JPG,AMSA22.JPG,AMNE25.JPG,AMNE24.JPG,AMSA25.JPG,,,,,0,8,8,7,,,,,,,,,,,,,,,,,,,AFSA07.jpg,AFSA08.jpg,AFNE06.jpg,AFNE13.jpg,AFNE13.jpg,FN,3,num_4,32,num_8,0.650138287107,,,2017_Jul_20_1719,60.0090654898,MAFE4ImagesEEG,001,200884,
AFNE23.JPG,AFNE24.JPG,AFNE22.JPG,AFSA24.JPG,AFSA22.JPG,AFSA23.JPG,,,,,0,9,9,8,,,,,,,,,,,,,,,,,,,AFSA15.jpg,AFNE07.jpg,AFSA10.jpg,AFNE19.jpg,AFNE19.jpg,FN,3,num_4,16,num_4,1.06673767848,,,2017_Jul_20_1719,60.0090654898,MAFE4ImagesEEG,001,200884,
AMNE22.JPG,AMSA24.JPG,AMSA22.JPG,AMNE25.JPG,AMNE24.JPG,AMSA25.JPG,,,,,,,,,0,0,0,7,,,,,,,,,,,,,,,AMSA15.jpg,AMNE07.jpg,AMSA20.jpg,AMNE10.jpg,AMSA20.jpg,MS,2,num_2,32,num_4,0.733462719887,,,2017_Jul_20_1719,60.0090654898,MAFE4ImagesEEG,001,200884,
AMSA21.JPG,AMNE22.JPG,AMNE21.JPG,AMSA23.JPG,AMSA22.JPG,AMNE23.JPG,,,,,,,,,0,1,1,1,,,,,,,,,,,,,,,AMNE05.jpg,AMNE09.jpg,AMSA11.jpg,AMSA14.jpg,AMNE09.jpg,MN,1,num_6,16,num_6,0.683724588132,,,2017_Jul_20_1719,60.0090654898,MAFE4ImagesEEG,001,200884,
AFSA21.JPG,AFNE23.JPG,AFNE21.JPG,AFSA25.JPG,AFNE25.JPG,AFSA23.JPG,,,,,,,,,0,2,2,4,,,,,,,,,,,,,,,AMSA19.jpg,AMSA13.jpg,AMNE02.jpg,AMNE04.jpg,AMSA19.jpg,MS,2,num_8,16,num_8,0.616807936691,,,2017_Jul_20_1719,60.0090654898,MAFE4ImagesEEG,001,200884,
AFNE23.JPG,AFNE24.JPG,AFNE22.JPG,AFSA24.JPG,AFSA22.JPG,AFSA23.JPG,,,,,,,,,0,3,3,8,,,,,,,,,,,,,,,AMNE02.jpg,AMSA18.jpg,AMSA14.jpg,AMNE13.jpg,AMNE13.jpg,MN,1,num_4,16,num_4,0.850199933397,,,2017_Jul_20_1719,60.0090654898,MAFE4ImagesEEG,001,200884,
AFNE22.JPG,AFSA24.JPG,AFSA22.JPG,AFNE25.JPG,AFNE24.JPG,AFSA25.JPG,,,,,,,,,0,4,4,6,,,,,,,,,,,,,,,AMSA07.jpg,AMNE02.jpg,AMNE10.jpg,AMSA14.jpg,AMNE10.jpg,MN,1,num_2,16,num_2,0.68333937932,,,2017_Jul_20_1719,60.0090654898,MAFE4ImagesEEG,001,200884,
AFSA21.JPG,AFNE22.JPG,AFNE21.JPG,AFSA23.JPG,AFSA22.JPG,AFNE23.JPG,,,,,,,,,0,5,5,0,,,,,,,,,,,,,,,AMSA04.jpg,AMSA08.jpg,AMNE01.jpg,AMNE06.jpg,AMSA08.jpg,MS,2,num_6,32,num_8,0.71682528872,,,2017_Jul_20_1719,60.0090654898,MAFE4ImagesEEG,001,200884,
AFSA25.JPG,AFNE24.JPG,AFSA24.JPG,AFNE21.JPG,AFSA21.JPG,AFNE25.JPG,,,,,,,,,0,6,6,2,,,,,,,,,,,,,,,AMSA18.jpg,AMSA16.jpg,AMNE08.jpg,AMNE19.jpg,AMSA16.jpg,MS,2,num_6,32,num_4,0.883442721737,,,2017_Jul_20_1719,60.0090654898,MAFE4ImagesEEG,001,200884,
AMNE23.JPG,AMNE24.JPG,AMNE22.JPG,AMSA24.JPG,AMSA22.JPG,AMSA23.JPG,,,,,,,,,0,7,7,9,,,,,,,,,,,,,,,AMSA13.jpg,AMSA03.jpg,AMNE20.jpg,AMNE09.jpg,AMSA03.jpg,MS,2,num_6,16,num_6,0.633505346254,,,2017_Jul_20_1719,60.0090654898,MAFE4ImagesEEG,001,200884,
AMSA21.JPG,AMNE23.JPG,AMNE21.JPG,AMSA25.JPG,AMNE25.JPG,AMSA23.JPG,,,,,,,,,0,8,8,5,,,,,,,,,,,,,,,AMSA05.jpg,AMNE20.jpg,AMNE01.jpg,AMSA07.jpg,AMNE01.jpg,MN,1,num_2,32,num_8,0.666761926492,,,2017_Jul_20_1719,60.0090654898,MAFE4ImagesEEG,001,200884,
AMSA25.JPG,AMNE24.JPG,AMSA24.JPG,AMNE26.JPG,AMSA21.JPG,AMNE25.JPG,,,,,,,,,0,9,9,3,,,,,,,,,,,,,,,AMSA05.jpg,AMSA16.jpg,AMNE11.jpg,AMNE01.jpg,AMSA16.jpg,MS,2,num_6,32,num_2,0.716994639486,,,2017_Jul_20_1719,60.0090654898,MAFE4ImagesEEG,001,200884,
AFSA21.JPG,AFNE22.JPG,AFNE21.JPG,AFSA23.JPG,AFSA22.JPG,AFNE23.JPG,,,,,,,,,,,,,0,0,0,0,,,,,,,,,,,AFSA12.jpg,AFNE20.jpg,AFSA15.jpg,AFNE13.jpg,AFNE13.jpg,FN,3,num_4,32,num_8,0.483482365205,,,2017_Jul_20_1719,60.0090654898,MAFE4ImagesEEG,001,200884,
AMSA21.JPG,AMNE23.JPG,AMNE21.JPG,AMSA25.JPG,AMNE25.JPG,AMSA23.JPG,,,,,,,,,,,,,0,1,1,5,,,,,,,,,,,AFNE02.jpg,AFSA11.jpg,AFSA15.jpg,AFNE20.jpg,AFSA15.jpg,FS,4,num_2,16,num_2,0.900152960967,,,2017_Jul_20_1719,60.0090654898,MAFE4ImagesEEG,001,200884,
AMSA25.JPG,AMNE24.JPG,AMSA24.JPG,AMNE26.JPG,AMSA21.JPG,AMNE25.JPG,,,,,,,,,,,,,0,2,2,3,,,,,,,,,,,AFSA04.jpg,AFSA16.jpg,AFNE03.jpg,AFNE09.jpg,AFNE09.jpg,FN,3,num_4,16,num_4,0.550851260254,,,2017_Jul_20_1719,60.0090654898,MAFE4ImagesEEG,001,200884,
AFNE23.JPG,AFNE24.JPG,AFNE22.JPG,AFSA24.JPG,AFSA22.JPG,AFSA23.JPG,,,,,,,,,,,,,0,3,3,8,,,,,,,,,,,AFNE16.jpg,AFSA12.jpg,AFNE04.jpg,AFSA04.jpg,AFNE04.jpg,FN,3,num_2,32,num_6,0.616770410037,,,2017_Jul_20_1719,60.0090654898,MAFE4ImagesEEG,001,200884,
AFNE22.JPG,AFSA24.JPG,AFSA22.JPG,AFNE25.JPG,AFNE24.JPG,AFSA25.JPG,,,,,,,,,,,,,0,4,4,6,,,,,,,,,,,AFSA15.jpg,AFNE07.jpg,AFSA04.jpg,AFNE09.jpg,AFNE07.jpg,FN,3,num_6,32,num_8,0.700199724815,,,2017_Jul_20_1719,60.0090654898,MAFE4ImagesEEG,001,200884,
AFSA21.JPG,AFNE23.JPG,AFNE21.JPG,AFSA25.JPG,AFNE25.JPG,AFSA23.JPG,,,,,,,,,,,,,0,5,5,4,,,,,,,,,,,AFSA09.jpg,AFSA15.jpg,AFNE20.jpg,AFNE10.jpg,AFNE20.jpg,FN,3,num_2,32,num_8,0.683710796293,,,2017_Jul_20_1719,60.0090654898,MAFE4ImagesEEG,001,200884,
AMSA21.JPG,AMNE22.JPG,AMNE21.JPG,AMSA23.JPG,AMSA22.JPG,AMNE23.JPG,,,,,,,,,,,,,0,6,6,1,,,,,,,,,,,AFNE01.jpg,AFSA19.jpg,AFSA02.jpg,AFNE03.jpg,AFSA19.jpg,FS,4,num_6,16,num_6,1.0976884581,,,2017_Jul_20_1719,60.0090654898,MAFE4ImagesEEG,001,200884,
AMNE23.JPG,AMNE24.JPG,AMNE22.JPG,AMSA24.JPG,AMSA22.JPG,AMSA23.JPG,,,,,,,,,,,,,0,7,7,9,,,,,,,,,,,AFSA05.jpg,AFNE06.jpg,AFNE14.jpg,AFSA16.jpg,AFNE14.jpg,FN,3,num_2,32,num_8,2.28338704124,,,2017_Jul_20_1719,60.0090654898,MAFE4ImagesEEG,001,200884,
AFSA25.JPG,AFNE24.JPG,AFSA24.JPG,AFNE21.JPG,AFSA21.JPG,AFNE25.JPG,,,,,,,,,,,,,0,8,8,2,,,,,,,,,,,AFSA07.jpg,AFNE04.jpg,AFNE08.jpg,AFSA19.jpg,AFSA19.jpg,FS,4,num_4,16,num_4,0.633514326997,,,2017_Jul_20_1719,60.0090654898,MAFE4ImagesEEG,001,200884,
AMNE22.JPG,AMSA24.JPG,AMSA22.JPG,AMNE25.JPG,AMNE24.JPG,AMSA25.JPG,,,,,,,,,,,,,0,9,9,7,,,,,,,,,,,AFNE12.jpg,AFNE10.jpg,AFSA13.jpg,AFSA17.jpg,AFNE10.jpg,FN,3,num_6,16,num_6,0.716790007253,,,2017_Jul_20_1719,60.0090654898,MAFE4ImagesEEG,001,200884,
AMSA25.JPG,AMNE24.JPG,AMSA24.JPG,AMNE26.JPG,AMSA21.JPG,AMNE25.JPG,,,,,,,,,,,,,,,,,0,0,0,3,,,,,,,AMSA15.jpg,AMNE11.jpg,AMNE12.jpg,AMSA08.jpg,AMSA08.jpg,MS,2,num_4,16,num_4,0.850001395214,,,2017_Jul_20_1719,60.0090654898,MAFE4ImagesEEG,001,200884,
AMSA21.JPG,AMNE22.JPG,AMNE21.JPG,AMSA23.JPG,AMSA22.JPG,AMNE23.JPG,,,,,,,,,,,,,,,,,0,1,1,1,,,,,,,AMNE18.jpg,AMNE01.jpg,AMSA15.jpg,AMSA08.jpg,AMNE01.jpg,MN,1,num_6,16,num_6,1.00012925826,,,2017_Jul_20_1719,60.0090654898,MAFE4ImagesEEG,001,200884,
AFNE22.JPG,AFSA24.JPG,AFSA22.JPG,AFNE25.JPG,AFNE24.JPG,AFSA25.JPG,,,,,,,,,,,,,,,,,0,2,2,6,,,,,,,AMSA07.jpg,AMSA19.jpg,AMNE19.jpg,AMNE14.jpg,AMNE19.jpg,MN,1,num_2,32,num_8,0.966789606377,,,2017_Jul_20_1719,60.0090654898,MAFE4ImagesEEG,001,200884,
AFSA25.JPG,AFNE24.JPG,AFSA24.JPG,AFNE21.JPG,AFSA21.JPG,AFNE25.JPG,,,,,,,,,,,,,,,,,0,3,3,2,,,,,,,AMNE04.jpg,AMNE16.jpg,AMSA15.jpg,AMSA19.jpg,AMNE16.jpg,MN,1,num_6,32,num_2,0.800142023712,,,2017_Jul_20_1719,60.0090654898,MAFE4ImagesEEG,001,200884,
AFSA21.JPG,AFNE23.JPG,AFNE21.JPG,AFSA25.JPG,AFNE25.JPG,AFSA23.JPG,,,,,,,,,,,,,,,,,0,4,4,4,,,,,,,AMSA01.jpg,AMNE04.jpg,AMNE09.jpg,AMSA09.jpg,AMNE04.jpg,MN,1,num_6,16,num_6,1.21675937658,,,2017_Jul_20_1719,60.0090654898,MAFE4ImagesEEG,001,200884,
AFSA21.JPG,AFNE22.JPG,AFNE21.JPG,AFSA23.JPG,AFSA22.JPG,AFNE23.JPG,,,,,,,,,,,,,,,,,0,5,5,0,,,,,,,AMSA18.jpg,AMSA20.jpg,AMNE11.jpg,AMNE15.jpg,AMNE15.jpg,MN,1,num_4,16,num_4,0.566853626107,,,2017_Jul_20_1719,60.0090654898,MAFE4ImagesEEG,001,200884,
AMSA21.JPG,AMNE23.JPG,AMNE21.JPG,AMSA25.JPG,AMNE25.JPG,AMSA23.JPG,,,,,,,,,,,,,,,,,0,6,6,5,,,,,,,AMNE15.jpg,AMSA19.jpg,AMSA07.jpg,AMNE05.jpg,AMSA07.jpg,MS,2,num_2,32,num_6,0.383479446464,,,2017_Jul_20_1719,60.0090654898,MAFE4ImagesEEG,001,200884,
AMNE23.JPG,AMNE24.JPG,AMNE22.JPG,AMSA24.JPG,AMSA22.JPG,AMSA23.JPG,,,,,,,,,,,,,,,,,0,7,7,9,,,,,,,AMNE04.jpg,AMSA04.jpg,AMNE11.jpg,AMSA09.jpg,AMSA09.jpg,MS,2,num_4,16,num_4,0.500156681577,,,2017_Jul_20_1719,60.0090654898,MAFE4ImagesEEG,001,200884,
AMNE22.JPG,AMSA24.JPG,AMSA22.JPG,AMNE25.JPG,AMNE24.JPG,AMSA25.JPG,,,,,,,,,,,,,,,,,0,8,8,7,,,,,,,AMSA07.jpg,AMNE11.jpg,AMNE10.jpg,AMSA18.jpg,AMSA07.jpg,MS,2,num_8,32,num_4,0.800197511737,,,2017_Jul_20_1719,60.0090654898,MAFE4ImagesEEG,001,200884,
AFNE23.JPG,AFNE24.JPG,AFNE22.JPG,AFSA24.JPG,AFSA22.JPG,AFSA23.JPG,,,,,,,,,,,,,,,,,0,9,9,8,,,,,,,AMSA11.jpg,AMSA08.jpg,AMNE02.jpg,AMNE05.jpg,AMSA11.jpg,MS,2,num_8,32,num_2,0.916775958845,,,2017_Jul_20_1719,60.0090654898,MAFE4ImagesEEG,001,200884,
AMSA21.JPG,AMNE23.JPG,AMNE21.JPG,AMSA25.JPG,AMNE25.JPG,AMSA23.JPG,,,,,,,,,,,,,,,,,,,,,0,0,0,5,,,AFNE08.jpg,AFSA14.jpg,AFNE14.jpg,AFSA11.jpg,AFNE08.jpg,FN,3,num_8,16,num_8,0.983518127759,,,2017_Jul_20_1719,60.0090654898,MAFE4ImagesEEG,001,200884,
AFNE22.JPG,AFSA24.JPG,AFSA22.JPG,AFNE25.JPG,AFNE24.JPG,AFSA25.JPG,,,,,,,,,,,,,,,,,,,,,0,1,1,6,,,AFSA02.jpg,AFNE13.jpg,AFNE03.jpg,AFSA17.jpg,AFSA17.jpg,FS,4,num_4,32,num_2,0.700154821214,,,2017_Jul_20_1719,60.0090654898,MAFE4ImagesEEG,001,200884,
AMNE22.JPG,AMSA24.JPG,AMSA22.JPG,AMNE25.JPG,AMNE24.JPG,AMSA25.JPG,,,,,,,,,,,,,,,,,,,,,0,2,2,7,,,AFSA15.jpg,AFNE20.jpg,AFSA19.jpg,AFNE05.jpg,AFSA19.jpg,FS,4,num_2,16,num_2,1.23340803367,,,2017_Jul_20_1719,60.0090654898,MAFE4ImagesEEG,001,200884,
AMNE23.JPG,AMNE24.JPG,AMNE22.JPG,AMSA24.JPG,AMSA22.JPG,AMSA23.JPG,,,,,,,,,,,,,,,,,,,,,0,3,3,9,,,AFSA13.jpg,AFSA18.jpg,AFNE16.jpg,AFNE06.jpg,AFNE06.jpg,FN,3,num_4,16,num_4,0.550160706858,,,2017_Jul_20_1719,60.0090654898,MAFE4ImagesEEG,001,200884,
AMSA21.JPG,AMNE22.JPG,AMNE21.JPG,AMSA23.JPG,AMSA22.JPG,AMNE23.JPG,,,,,,,,,,,,,,,,,,,,,0,4,4,1,,,AFNE10.jpg,AFSA07.jpg,AFSA14.jpg,AFNE20.jpg,AFNE20.jpg,FN,3,num_4,32,num_8,0.833479430468,,,2017_Jul_20_1719,60.0090654898,MAFE4ImagesEEG,001,200884,
AFSA21.JPG,AFNE23.JPG,AFNE21.JPG,AFSA25.JPG,AFNE25.JPG,AFSA23.JPG,,,,,,,,,,,,,,,,,,,,,0,5,5,4,,,AFSA13.jpg,AFSA01.jpg,AFNE18.jpg,AFNE20.jpg,AFSA13.jpg,FS,4,num_8,16,num_8,0.983435697504,,,2017_Jul_20_1719,60.0090654898,MAFE4ImagesEEG,001,200884,
AFSA25.JPG,AFNE24.JPG,AFSA24.JPG,AFNE21.JPG,AFSA21.JPG,AFNE25.JPG,,,,,,,,,,,,,,,,,,,,,0,6,6,2,,,AFSA18.jpg,AFNE15.jpg,AFNE18.jpg,AFSA09.jpg,AFSA09.jpg,FS,4,num_4,16,num_4,0.633458838915,,,2017_Jul_20_1719,60.0090654898,MAFE4ImagesEEG,001,200884,
AFNE23.JPG,AFNE24.JPG,AFNE22.JPG,AFSA24.JPG,AFSA22.JPG,AFSA23.JPG,,,,,,,,,,,,,,,,,,,,,0,7,7,8,,,AFNE09.jpg,AFSA17.jpg,AFSA01.jpg,AFNE20.jpg,AFNE09.jpg,FN,3,num_8,32,num_2,1.73366735206,,,2017_Jul_20_1719,60.0090654898,MAFE4ImagesEEG,001,200884,
AFSA21.JPG,AFNE22.JPG,AFNE21.JPG,AFSA23.JPG,AFSA22.JPG,AFNE23.JPG,,,,,,,,,,,,,,,,,,,,,0,8,8,0,,,AFNE20.jpg,AFNE05.jpg,AFSA13.jpg,AFSA07.jpg,AFNE20.jpg,FN,3,num_8,16,num_8,0.833460827474,,,2017_Jul_20_1719,60.0090654898,MAFE4ImagesEEG,001,200884,
AMSA25.JPG,AMNE24.JPG,AMSA24.JPG,AMNE26.JPG,AMSA21.JPG,AMNE25.JPG,,,,,,,,,,,,,,,,,,,,,0,9,9,3,,,AFNE19.jpg,AFNE13.jpg,AFSA18.jpg,AFSA05.jpg,AFNE13.jpg,FN,3,num_6,16,num_6,0.58334768645,,,2017_Jul_20_1719,60.0090654898,MAFE4ImagesEEG,001,200884,
,,,,,,,,,,,,,,,,,,,,,,,,,,,,,,,,,,,,,,,,,,,space,34.2471600868,2017_Jul_20_1719,60.0090654898,MAFE4ImagesEEG,001,200884,
AFNE01.JPG,AFNE01.JPG,AFNE01.JPG,AFNE01.JPG,AFNE01.JPG,AFNE01.JPG,0,0,0,5,,,,,,,,,,,,,,,,,,,,,,,AMSA19.jpg,AMNE11.jpg,AMNE12.jpg,AMSA02.jpg,AMNE11.jpg,MN,1,num_6,32,num_4,0.73347330431,,,2017_Jul_20_1719,60.0090654898,MAFE4ImagesEEG,001,200884,
AFNE01.JPG,AFNE01.JPG,AFNE01.JPG,AFNE01.JPG,AFNE01.JPG,AFNE01.JPG,0,1,1,9,,,,,,,,,,,,,,,,,,,,,,,AMSA16.jpg,AMNE19.jpg,AMSA09.jpg,AMNE07.jpg,AMNE07.jpg,MN,1,num_4,32,num_6,0.516778396501,,,2017_Jul_20_1719,60.0090654898,MAFE4ImagesEEG,001,200884,
AFNE01.JPG,AFNE01.JPG,AFNE01.JPG,AFNE01.JPG,AFNE01.JPG,AFNE01.JPG,0,2,2,6,,,,,,,,,,,,,,,,,,,,,,,AMNE11.jpg,AMSA03.jpg,AMSA16.jpg,AMNE20.jpg,AMSA03.jpg,MS,2,num_6,32,num_4,0.483459271956,,,2017_Jul_20_1719,60.0090654898,MAFE4ImagesEEG,001,200884,
AFNE01.JPG,AFNE01.JPG,AFNE01.JPG,AFNE01.JPG,AFNE01.JPG,AFNE01.JPG,0,3,3,4,,,,,,,,,,,,,,,,,,,,,,,AMSA18.jpg,AMNE09.jpg,AMSA19.jpg,AMNE19.jpg,AMNE09.jpg,MN,1,num_6,16,num_6,0.866781876539,,,2017_Jul_20_1719,60.0090654898,MAFE4ImagesEEG,001,200884,
AFNE01.JPG,AFNE01.JPG,AFNE01.JPG,AFNE01.JPG,AFNE01.JPG,AFNE01.JPG,0,4,4,0,,,,,,,,,,,,,,,,,,,,,,,AMNE18.jpg,AMSA01.jpg,AMSA20.jpg,AMNE17.jpg,AMNE17.jpg,MN,1,num_4,16,num_4,1.2167324344,,,2017_Jul_20_1719,60.0090654898,MAFE4ImagesEEG,001,200884,
AFNE01.JPG,AFNE01.JPG,AFNE01.JPG,AFNE01.JPG,AFNE01.JPG,AFNE01.JPG,0,5,5,1,,,,,,,,,,,,,,,,,,,,,,,AMSA14.jpg,AMSA12.jpg,AMNE11.jpg,AMNE06.jpg,AMSA12.jpg,MS,2,num_6,16,num_6,0.633460763376,,,2017_Jul_20_1719,60.0090654898,MAFE4ImagesEEG,001,200884,
AFNE01.JPG,AFNE01.JPG,AFNE01.JPG,AFNE01.JPG,AFNE01.JPG,AFNE01.JPG,0,6,6,8,,,,,,,,,,,,,,,,,,,,,,,AMNE19.jpg,AMSA15.jpg,AMNE01.jpg,AMSA17.jpg,AMSA17.jpg,MS,2,num_4,16,num_4,0.816771436424,,,2017_Jul_20_1719,60.0090654898,MAFE4ImagesEEG,001,200884,
AFNE01.JPG,AFNE01.JPG,AFNE01.JPG,AFNE01.JPG,AFNE01.JPG,AFNE01.JPG,0,7,7,3,,,,,,,,,,,,,,,,,,,,,,,AMNE11.jpg,AMSA01.jpg,AMNE09.jpg,AMSA20.jpg,AMNE11.jpg,MN,1,num_8,16,num_8,0.800109308213,,,2017_Jul_20_1719,60.0090654898,MAFE4ImagesEEG,001,200884,
AFNE01.JPG,AFNE01.JPG,AFNE01.JPG,AFNE01.JPG,AFNE01.JPG,AFNE01.JPG,0,8,8,2,,,,,,,,,,,,,,,,,,,,,,,AMSA05.jpg,AMNE04.jpg,AMNE14.jpg,AMSA20.jpg,AMSA05.jpg,MS,2,num_8,16,num_8,0.4667916912,,,2017_Jul_20_1719,60.0090654898,MAFE4ImagesEEG,001,200884,
AFNE01.JPG,AFNE01.JPG,AFNE01.JPG,AFNE01.JPG,AFNE01.JPG,AFNE01.JPG,0,9,9,7,,,,,,,,,,,,,,,,,,,,,,,AMNE13.jpg,AMNE08.jpg,AMSA01.jpg,AMSA07.jpg,AMNE08.jpg,MN,1,num_6,16,num_6,1.05011628434,,,2017_Jul_20_1719,60.0090654898,MAFE4ImagesEEG,001,200884,
AFNE01.JPG,AFNE01.JPG,AFNE01.JPG,AFNE01.JPG,AFNE01.JPG,AFNE01.JPG,1,0,10,9,,,,,,,,,,,,,,,,,,,,,,,AMNE13.jpg,AMSA09.jpg,AMNE04.jpg,AMSA13.jpg,AMSA13.jpg,MS,2,num_4,16,num_4,0.833465638629,,,2017_Jul_20_1719,60.0090654898,MAFE4ImagesEEG,001,200884,
AFNE01.JPG,AFNE01.JPG,AFNE01.JPG,AFNE01.JPG,AFNE01.JPG,AFNE01.JPG,1,1,11,4,,,,,,,,,,,,,,,,,,,,,,,AMNE17.jpg,AMSA07.jpg,AMNE11.jpg,AMSA17.jpg,AMSA17.jpg,MS,2,num_4,32,num_8,0.933490046998,,,2017_Jul_20_1719,60.0090654898,MAFE4ImagesEEG,001,200884,
AFNE01.JPG,AFNE01.JPG,AFNE01.JPG,AFNE01.JPG,AFNE01.JPG,AFNE01.JPG,1,2,12,5,,,,,,,,,,,,,,,,,,,,,,,AMNE19.jpg,AMNE03.jpg,AMSA15.jpg,AMSA19.jpg,AMSA15.jpg,MS,2,num_2,16,num_2,0.633306166681,,,2017_Jul_20_1719,60.0090654898,MAFE4ImagesEEG,001,200884,
AFNE01.JPG,AFNE01.JPG,AFNE01.JPG,AFNE01.JPG,AFNE01.JPG,AFNE01.JPG,1,3,13,1,,,,,,,,,,,,,,,,,,,,,,,AMNE16.jpg,AMNE04.jpg,AMSA16.jpg,AMSA07.jpg,AMSA07.jpg,MS,2,num_4,16,num_4,0.533481900173,,,2017_Jul_20_1719,60.0090654898,MAFE4ImagesEEG,001,200884,
AFNE01.JPG,AFNE01.JPG,AFNE01.JPG,AFNE01.JPG,AFNE01.JPG,AFNE01.JPG,1,4,14,3,,,,,,,,,,,,,,,,,,,,,,,AMNE10.jpg,AMSA02.jpg,AMNE11.jpg,AMSA16.jpg,AMSA16.jpg,MS,2,num_4,16,num_4,0.866791819455,,,2017_Jul_20_1719,60.0090654898,MAFE4ImagesEEG,001,200884,
AFNE01.JPG,AFNE01.JPG,AFNE01.JPG,AFNE01.JPG,AFNE01.JPG,AFNE01.JPG,1,5,15,6,,,,,,,,,,,,,,,,,,,,,,,AMNE10.jpg,AMSA16.jpg,AMNE02.jpg,AMSA19.jpg,AMSA16.jpg,MS,2,num_6,16,num_6,0.700133652426,,,2017_Jul_20_1719,60.0090654898,MAFE4ImagesEEG,001,200884,
AFNE01.JPG,AFNE01.JPG,AFNE01.JPG,AFNE01.JPG,AFNE01.JPG,AFNE01.JPG,1,6,16,2,,,,,,,,,,,,,,,,,,,,,,,AMNE03.jpg,AMSA05.jpg,AMSA17.jpg,AMNE12.jpg,AMSA17.jpg,MS,2,num_2,32,num_4,0.650122891588,,,2017_Jul_20_1719,60.0090654898,MAFE4ImagesEEG,001,200884,
AFNE01.JPG,AFNE01.JPG,AFNE01.JPG,AFNE01.JPG,AFNE01.JPG,AFNE01.JPG,1,7,17,7,,,,,,,,,,,,,,,,,,,,,,,AMSA18.jpg,AMSA15.jpg,AMNE05.jpg,AMNE02.jpg,AMSA18.jpg,MS,2,num_8,16,num_8,0.63348963001,,,2017_Jul_20_1719,60.0090654898,MAFE4ImagesEEG,001,200884,
AFNE01.JPG,AFNE01.JPG,AFNE01.JPG,AFNE01.JPG,AFNE01.JPG,AFNE01.JPG,1,8,18,0,,,,,,,,,,,,,,,,,,,,,,,AMNE17.jpg,AMSA06.jpg,AMSA19.jpg,AMNE19.jpg,AMNE19.jpg,MN,1,num_4,16,num_4,0.61675950489,,,2017_Jul_20_1719,60.0090654898,MAFE4ImagesEEG,001,200884,
AFNE01.JPG,AFNE01.JPG,AFNE01.JPG,AFNE01.JPG,AFNE01.JPG,AFNE01.JPG,1,9,19,8,,,,,,,,,,,,,,,,,,,,,,,AMSA09.jpg,AMNE15.jpg,AMSA11.jpg,AMNE12.jpg,AMNE12.jpg,MN,1,num_4,32,num_2,1.13345579192,,,2017_Jul_20_1719,60.0090654898,MAFE4ImagesEEG,001,200884,
AFNE01.JPG,AFNE01.JPG,AFNE01.JPG,AFNE01.JPG,AFNE01.JPG,AFNE01.JPG,2,0,20,1,,,,,,,,,,,,,,,,,,,,,,,AMSA16.jpg,AMNE04.jpg,AMSA14.jpg,AMNE06.jpg,AMSA14.jpg,MS,2,num_2,16,num_2,0.816826924507,,,2017_Jul_20_1719,60.0090654898,MAFE4ImagesEEG,001,200884,
AFNE01.JPG,AFNE01.JPG,AFNE01.JPG,AFNE01.JPG,AFNE01.JPG,AFNE01.JPG,2,1,21,6,,,,,,,,,,,,,,,,,,,,,,,AMNE05.jpg,AMSA13.jpg,AMNE07.jpg,AMSA07.jpg,AMSA13.jpg,MS,2,num_6,16,num_6,0.850117182417,,,2017_Jul_20_1719,60.0090654898,MAFE4ImagesEEG,001,200884,
AFNE01.JPG,AFNE01.JPG,AFNE01.JPG,AFNE01.JPG,AFNE01.JPG,AFNE01.JPG,2,2,22,5,,,,,,,,,,,,,,,,,,,,,,,AMNE13.jpg,AMNE09.jpg,AMSA08.jpg,AMSA12.jpg,AMSA08.jpg,MS,2,num_2,32,num_8,0.750128376239,,,2017_Jul_20_1719,60.0090654898,MAFE4ImagesEEG,001,200884,
AFNE01.JPG,AFNE01.JPG,AFNE01.JPG,AFNE01.JPG,AFNE01.JPG,AFNE01.JPG,2,3,23,9,,,,,,,,,,,,,,,,,,,,,,,AMSA05.jpg,AMNE02.jpg,AMSA09.jpg,AMNE07.jpg,AMSA09.jpg,MS,2,num_2,32,num_8,1.76672314899,,,2017_Jul_20_1719,60.0090654898,MAFE4ImagesEEG,001,200884,
AFNE01.JPG,AFNE01.JPG,AFNE01.JPG,AFNE01.JPG,AFNE01.JPG,AFNE01.JPG,2,4,24,4,,,,,,,,,,,,,,,,,,,,,,,AMSA10.jpg,AMNE05.jpg,AMSA18.jpg,AMNE13.jpg,AMNE05.jpg,MN,1,num_6,16,num_6,0.750177128706,,,2017_Jul_20_1719,60.0090654898,MAFE4ImagesEEG,001,200884,
AFNE01.JPG,AFNE01.JPG,AFNE01.JPG,AFNE01.JPG,AFNE01.JPG,AFNE01.JPG,2,5,25,3,,,,,,,,,,,,,,,,,,,,,,,AMNE05.jpg,AMSA09.jpg,AMSA17.jpg,AMNE08.jpg,AMNE05.jpg,MN,1,num_8,32,num_4,0.650096911646,,,2017_Jul_20_1719,60.0090654898,MAFE4ImagesEEG,001,200884,
AFNE01.JPG,AFNE01.JPG,AFNE01.JPG,AFNE01.JPG,AFNE01.JPG,AFNE01.JPG,2,6,26,8,,,,,,,,,,,,,,,,,,,,,,,AMSA18.jpg,AMSA07.jpg,AMNE03.jpg,AMNE07.jpg,AMNE03.jpg,MN,1,num_2,16,num_2,0.71660012909,,,2017_Jul_20_1719,60.0090654898,MAFE4ImagesEEG,001,200884,
AFNE01.JPG,AFNE01.JPG,AFNE01.JPG,AFNE01.JPG,AFNE01.JPG,AFNE01.JPG,2,7,27,7,,,,,,,,,,,,,,,,,,,,,,,AMNE14.jpg,AMSA05.jpg,AMSA03.jpg,AMNE07.jpg,AMNE14.jpg,MN,1,num_8,32,num_2,1.3501394738,,,2017_Jul_20_1719,60.0090654898,MAFE4ImagesEEG,001,200884,
AFNE01.JPG,AFNE01.JPG,AFNE01.JPG,AFNE01.JPG,AFNE01.JPG,AFNE01.JPG,2,8,28,2,,,,,,,,,,,,,,,,,,,,,,,AMSA19.jpg,AMNE07.jpg,AMSA18.jpg,AMNE12.jpg,AMNE07.jpg,MN,1,num_6,32,num_4,0.750115867355,,,2017_Jul_20_1719,60.0090654898,MAFE4ImagesEEG,001,200884,
AFNE01.JPG,AFNE01.JPG,AFNE01.JPG,AFNE01.JPG,AFNE01.JPG,AFNE01.JPG,2,9,29,0,,,,,,,,,,,,,,,,,,,,,,,AMNE20.jpg,AMNE03.jpg,AMSA11.jpg,AMSA14.jpg,AMNE20.jpg,MN,1,num_8,16,num_8,0.950137100415,,,2017_Jul_20_1719,60.0090654898,MAFE4ImagesEEG,001,200884,
AFNE01.JPG,AFNE01.JPG,AFNE01.JPG,AFNE01.JPG,AFNE01.JPG,AFNE01.JPG,3,0,30,3,,,,,,,,,,,,,,,,,,,,,,,AMNE06.jpg,AMSA19.jpg,AMSA13.jpg,AMNE11.jpg,AMNE11.jpg,MN,1,num_4,16,num_4,0.933448992204,,,2017_Jul_20_1719,60.0090654898,MAFE4ImagesEEG,001,200884,
AFNE01.JPG,AFNE01.JPG,AFNE01.JPG,AFNE01.JPG,AFNE01.JPG,AFNE01.JPG,3,1,31,6,,,,,,,,,,,,,,,,,,,,,,,AMSA03.jpg,AMNE11.jpg,AMNE09.jpg,AMSA18.jpg,AMSA03.jpg,MS,2,num_8,16,num_8,0.650120967126,,,2017_Jul_20_1719,60.0090654898,MAFE4ImagesEEG,001,200884,
AFNE01.JPG,AFNE01.JPG,AFNE01.JPG,AFNE01.JPG,AFNE01.JPG,AFNE01.JPG,3,2,32,4,,,,,,,,,,,,,,,,,,,,,,,AMSA11.jpg,AMSA15.jpg,AMNE19.jpg,AMNE04.jpg,AMSA15.jpg,MS,2,num_6,16,num_6,1.21675520699,,,2017_Jul_20_1719,60.0090654898,MAFE4ImagesEEG,001,200884,
AFNE01.JPG,AFNE01.JPG,AFNE01.JPG,AFNE01.JPG,AFNE01.JPG,AFNE01.JPG,3,3,33,2,,,,,,,,,,,,,,,,,,,,,,,AMSA01.jpg,AMNE20.jpg,AMNE10.jpg,AMSA19.jpg,AMNE10.jpg,MN,1,num_2,32,num_6,1.51673702098,,,2017_Jul_20_1719,60.0090654898,MAFE4ImagesEEG,001,200884,
AFNE01.JPG,AFNE01.JPG,AFNE01.JPG,AFNE01.JPG,AFNE01.JPG,AFNE01.JPG,3,4,34,1,,,,,,,,,,,,,,,,,,,,,,,AMNE02.jpg,AMSA19.jpg,AMSA12.jpg,AMNE07.jpg,AMNE02.jpg,MN,1,num_8,32,num_4,1.03344357171,,,2017_Jul_20_1719,60.0090654898,MAFE4ImagesEEG,001,200884,
AFNE01.JPG,AFNE01.JPG,AFNE01.JPG,AFNE01.JPG,AFNE01.JPG,AFNE01.JPG,3,5,35,5,,,,,,,,,,,,,,,,,,,,,,,AMSA05.jpg,AMNE16.jpg,AMNE07.jpg,AMSA18.jpg,AMSA18.jpg,MS,2,num_4,16,num_4,0.533477409743,,,2017_Jul_20_1719,60.0090654898,MAFE4ImagesEEG,001,200884,
AFNE01.JPG,AFNE01.JPG,AFNE01.JPG,AFNE01.JPG,AFNE01.JPG,AFNE01.JPG,3,6,36,9,,,,,,,,,,,,,,,,,,,,,,,AMSA06.jpg,AMNE09.jpg,AMSA09.jpg,AMNE16.jpg,AMNE09.jpg,MN,1,num_6,32,num_8,1.06672420743,,,2017_Jul_20_1719,60.0090654898,MAFE4ImagesEEG,001,200884,
AFNE01.JPG,AFNE01.JPG,AFNE01.JPG,AFNE01.JPG,AFNE01.JPG,AFNE01.JPG,3,7,37,0,,,,,,,,,,,,,,,,,,,,,,,AMNE17.jpg,AMSA05.jpg,AMNE18.jpg,AMSA16.jpg,AMNE17.jpg,MN,1,num_8,32,num_2,0.466840764391,,,2017_Jul_20_1719,60.0090654898,MAFE4ImagesEEG,001,200884,
AFNE01.JPG,AFNE01.JPG,AFNE01.JPG,AFNE01.JPG,AFNE01.JPG,AFNE01.JPG,3,8,38,8,,,,,,,,,,,,,,,,,,,,,,,AMNE04.jpg,AMSA16.jpg,AMSA08.jpg,AMNE08.jpg,AMSA16.jpg,MS,2,num_6,16,num_6,0.800141702988,,,2017_Jul_20_1719,60.0090654898,MAFE4ImagesEEG,001,200884,
AFNE01.JPG,AFNE01.JPG,AFNE01.JPG,AFNE01.JPG,AFNE01.JPG,AFNE01.JPG,3,9,39,7,,,,,,,,,,,,,,,,,,,,,,,AMNE02.jpg,AMSA01.jpg,AMNE05.jpg,AMSA16.jpg,AMNE05.jpg,MN,1,num_2,16,num_2,0.650187039573,,,2017_Jul_20_1719,60.0090654898,MAFE4ImagesEEG,001,200884,
AFNE01.JPG,AFNE01.JPG,AFNE01.JPG,AFNE01.JPG,AFNE01.JPG,AFNE01.JPG,4,0,40,6,,,,,,,,,,,,,,,,,,,,,,,AMNE16.jpg,AMSA20.jpg,AMSA05.jpg,AMNE18.jpg,AMSA05.jpg,MS,2,num_2,32,num_4,1.75002477714,,,2017_Jul_20_1719,60.0090654898,MAFE4ImagesEEG,001,200884,
AFNE01.JPG,AFNE01.JPG,AFNE01.JPG,AFNE01.JPG,AFNE01.JPG,AFNE01.JPG,4,1,41,3,,,,,,,,,,,,,,,,,,,,,,,AMNE06.jpg,AMNE10.jpg,AMSA17.jpg,AMSA05.jpg,AMNE10.jpg,MN,1,num_6,16,num_6,0.71677685692,,,2017_Jul_20_1719,60.0090654898,MAFE4ImagesEEG,001,200884,
AFNE01.JPG,AFNE01.JPG,AFNE01.JPG,AFNE01.JPG,AFNE01.JPG,AFNE01.JPG,4,2,42,2,,,,,,,,,,,,,,,,,,,,,,,AMSA19.jpg,AMNE14.jpg,AMNE10.jpg,AMSA02.jpg,AMNE10.jpg,MN,1,num_2,32,num_8,0.900154243922,,,2017_Jul_20_1719,60.0090654898,MAFE4ImagesEEG,001,200884,
AFNE01.JPG,AFNE01.JPG,AFNE01.JPG,AFNE01.JPG,AFNE01.JPG,AFNE01.JPG,4,3,43,7,,,,,,,,,,,,,,,,,,,,,,,AMNE12.jpg,AMSA13.jpg,AMSA10.jpg,AMNE09.jpg,AMSA13.jpg,MS,2,num_6,32,num_2,0.78343852004,,,2017_Jul_20_1719,60.0090654898,MAFE4ImagesEEG,001,200884,
AFNE01.JPG,AFNE01.JPG,AFNE01.JPG,AFNE01.JPG,AFNE01.JPG,AFNE01.JPG,4,4,44,1,,,,,,,,,,,,,,,,,,,,,,,AMSA01.jpg,AMSA16.jpg,AMNE19.jpg,AMNE04.jpg,AMNE19.jpg,MN,1,num_2,32,num_4,1.8333992454,,,2017_Jul_20_1719,60.0090654898,MAFE4ImagesEEG,001,200884,
AFNE01.JPG,AFNE01.JPG,AFNE01.JPG,AFNE01.JPG,AFNE01.JPG,AFNE01.JPG,4,5,45,4,,,,,,,,,,,,,,,,,,,,,,,AMNE16.jpg,AMSA10.jpg,AMNE18.jpg,AMSA06.jpg,AMNE18.jpg,MN,1,num_2,32,num_6,0.8002151525,,,2017_Jul_20_1719,60.0090654898,MAFE4ImagesEEG,001,200884,
AFNE01.JPG,AFNE01.JPG,AFNE01.JPG,AFNE01.JPG,AFNE01.JPG,AFNE01.JPG,4,6,46,8,,,,,,,,,,,,,,,,,,,,,,,AMNE10.jpg,AMSA05.jpg,AMNE13.jpg,AMSA19.jpg,AMNE13.jpg,MN,1,num_2,32,num_8,1.28346562258,,,2017_Jul_20_1719,60.0090654898,MAFE4ImagesEEG,001,200884,
AFNE01.JPG,AFNE01.JPG,AFNE01.JPG,AFNE01.JPG,AFNE01.JPG,AFNE01.JPG,4,7,47,5,,,,,,,,,,,,,,,,,,,,,,,AMSA13.jpg,AMSA06.jpg,AMNE11.jpg,AMNE03.jpg,AMSA13.jpg,MS,2,num_8,32,num_2,1.1001212718,,,2017_Jul_20_1719,60.0090654898,MAFE4ImagesEEG,001,200884,
AFNE01.JPG,AFNE01.JPG,AFNE01.JPG,AFNE01.JPG,AFNE01.JPG,AFNE01.JPG,4,8,48,0,,,,,,,,,,,,,,,,,,,,,,,AMSA12.jpg,AMSA17.jpg,AMNE02.jpg,AMNE06.jpg,AMSA17.jpg,MS,2,num_6,32,num_8,0.916749978904,,,2017_Jul_20_1719,60.0090654898,MAFE4ImagesEEG,001,200884,
AFNE01.JPG,AFNE01.JPG,AFNE01.JPG,AFNE01.JPG,AFNE01.JPG,AFNE01.JPG,4,9,49,9,,,,,,,,,,,,,,,,,,,,,,,AMNE11.jpg,AMSA07.jpg,AMSA04.jpg,AMNE12.jpg,AMNE12.jpg,MN,1,num_4,16,num_4,0.700138463522,,,2017_Jul_20_1719,60.0090654898,MAFE4ImagesEEG,001,200884,
AFNE01.JPG,AFNE01.JPG,AFNE01.JPG,AFNE01.JPG,AFNE01.JPG,AFNE01.JPG,5,0,50,4,,,,,,,,,,,,,,,,,,,,,,,AMSA20.jpg,AMSA10.jpg,AMNE13.jpg,AMNE14.jpg,AMNE13.jpg,MN,1,num_2,32,num_4,0.633470385568,,,2017_Jul_20_1719,60.0090654898,MAFE4ImagesEEG,001,200884,
AFNE01.JPG,AFNE01.JPG,AFNE01.JPG,AFNE01.JPG,AFNE01.JPG,AFNE01.JPG,5,1,51,9,,,,,,,,,,,,,,,,,,,,,,,AMSA15.jpg,AMSA04.jpg,AMNE05.jpg,AMNE13.jpg,AMNE13.jpg,MN,1,num_4,32,num_8,0.700194913778,,,2017_Jul_20_1719,60.0090654898,MAFE4ImagesEEG,001,200884,
AFNE01.JPG,AFNE01.JPG,AFNE01.JPG,AFNE01.JPG,AFNE01.JPG,AFNE01.JPG,5,2,52,0,,,,,,,,,,,,,,,,,,,,,,,AMSA07.jpg,AMNE02.jpg,AMSA04.jpg,AMNE09.jpg,AMNE09.jpg,MN,1,num_4,16,num_4,0.700158990861,,,2017_Jul_20_1719,60.0090654898,MAFE4ImagesEEG,001,200884,
AFNE01.JPG,AFNE01.JPG,AFNE01.JPG,AFNE01.JPG,AFNE01.JPG,AFNE01.JPG,5,3,53,8,,,,,,,,,,,,,,,,,,,,,,,AMNE12.jpg,AMSA02.jpg,AMNE05.jpg,AMSA06.jpg,AMSA06.jpg,MS,2,num_4,16,num_4,0.750131904322,,,2017_Jul_20_1719,60.0090654898,MAFE4ImagesEEG,001,200884,
AFNE01.JPG,AFNE01.JPG,AFNE01.JPG,AFNE01.JPG,AFNE01.JPG,AFNE01.JPG,5,4,54,6,,,,,,,,,,,,,,,,,,,,,,,AMSA01.jpg,AMSA20.jpg,AMNE13.jpg,AMNE20.jpg,AMNE20.jpg,MN,1,num_4,16,num_4,0.666780850152,,,2017_Jul_20_1719,60.0090654898,MAFE4ImagesEEG,001,200884,
AFNE01.JPG,AFNE01.JPG,AFNE01.JPG,AFNE01.JPG,AFNE01.JPG,AFNE01.JPG,5,5,55,5,,,,,,,,,,,,,,,,,,,,,,,AMSA13.jpg,AMSA03.jpg,AMNE17.jpg,AMNE12.jpg,AMNE17.jpg,MN,1,num_2,16,num_2,0.533491843089,,,2017_Jul_20_1719,60.0090654898,MAFE4ImagesEEG,001,200884,
AFNE01.JPG,AFNE01.JPG,AFNE01.JPG,AFNE01.JPG,AFNE01.JPG,AFNE01.JPG,5,6,56,7,,,,,,,,,,,,,,,,,,,,,,,AMNE03.jpg,AMNE05.jpg,AMSA09.jpg,AMSA02.jpg,AMNE03.jpg,MN,1,num_8,32,num_4,0.666782774555,,,2017_Jul_20_1719,60.0090654898,MAFE4ImagesEEG,001,200884,
AFNE01.JPG,AFNE01.JPG,AFNE01.JPG,AFNE01.JPG,AFNE01.JPG,AFNE01.JPG,5,7,57,3,,,,,,,,,,,,,,,,,,,,,,,AMSA02.jpg,AMNE17.jpg,AMNE06.jpg,AMSA07.jpg,AMNE17.jpg,MN,1,num_6,16,num_6,0.783311186242,,,2017_Jul_20_1719,60.0090654898,MAFE4ImagesEEG,001,200884,
AFNE01.JPG,AFNE01.JPG,AFNE01.JPG,AFNE01.JPG,AFNE01.JPG,AFNE01.JPG,5,8,58,2,,,,,,,,,,,,,,,,,,,,,,,AMSA03.jpg,AMSA05.jpg,AMNE16.jpg,AMNE10.jpg,AMSA03.jpg,MS,2,num_8,32,num_4,0.883440797334,,,2017_Jul_20_1719,60.0090654898,MAFE4ImagesEEG,001,200884,
AFNE01.JPG,AFNE01.JPG,AFNE01.JPG,AFNE01.JPG,AFNE01.JPG,AFNE01.JPG,5,9,59,1,,,,,,,,,,,,,,,,,,,,,,,AMNE17.jpg,AMSA02.jpg,AMSA03.jpg,AMNE10.jpg,AMSA02.jpg,MS,2,num_6,16,num_6,1.60004445456,,,2017_Jul_20_1719,60.0090654898,MAFE4ImagesEEG,001,200884,
,,,,,,,,,,,,,,,,,,,,,,,,,,,,,,,,,,,,,,,,,,,space,20.2819619929,2017_Jul_20_1719,60.0090654898,MAFE4ImagesEEG,001,200884,
AFNE01.JPG,AFNE01.JPG,AFNE01.JPG,AFNE01.JPG,AFNE01.JPG,AFNE01.JPG,,,,,0,0,0,2,,,,,,,,,,,,,,,,,,,AFSA07.jpg,AFSA03.jpg,AFNE19.jpg,AFNE15.jpg,AFSA03.jpg,FS,4,num_6,16,num_6,3.0664425976,,,2017_Jul_20_1719,60.0090654898,MAFE4ImagesEEG,001,200884,
AFNE01.JPG,AFNE01.JPG,AFNE01.JPG,AFNE01.JPG,AFNE01.JPG,AFNE01.JPG,,,,,0,1,1,8,,,,,,,,,,,,,,,,,,,AFNE07.jpg,AFSA03.jpg,AFNE01.jpg,AFSA18.jpg,AFSA03.jpg,FS,4,num_6,16,num_6,0.933146213531,,,2017_Jul_20_1719,60.0090654898,MAFE4ImagesEEG,001,200884,
AFNE01.JPG,AFNE01.JPG,AFNE01.JPG,AFNE01.JPG,AFNE01.JPG,AFNE01.JPG,,,,,0,2,2,5,,,,,,,,,,,,,,,,,,,AFSA05.jpg,AFNE11.jpg,AFSA16.jpg,AFNE12.jpg,AFSA05.jpg,FS,4,num_8,16,num_8,0.750105924439,,,2017_Jul_20_1719,60.0090654898,MAFE4ImagesEEG,001,200884,
AFNE01.JPG,AFNE01.JPG,AFNE01.JPG,AFNE01.JPG,AFNE01.JPG,AFNE01.JPG,,,,,0,3,3,6,,,,,,,,,,,,,,,,,,,AFSA13.jpg,AFNE17.jpg,AFSA10.jpg,AFNE10.jpg,AFNE10.jpg,FN,3,num_4,32,num_6,0.933303376194,,,2017_Jul_20_1719,60.0090654898,MAFE4ImagesEEG,001,200884,
AFNE01.JPG,AFNE01.JPG,AFNE01.JPG,AFNE01.JPG,AFNE01.JPG,AFNE01.JPG,,,,,0,4,4,1,,,,,,,,,,,,,,,,,,,AFNE20.jpg,AFSA17.jpg,AFSA14.jpg,AFNE17.jpg,AFNE20.jpg,FN,3,num_8,16,num_8,0.68391061743,,,2017_Jul_20_1719,60.0090654898,MAFE4ImagesEEG,001,200884,
AFNE01.JPG,AFNE01.JPG,AFNE01.JPG,AFNE01.JPG,AFNE01.JPG,AFNE01.JPG,,,,,0,5,5,7,,,,,,,,,,,,,,,,,,,AFNE15.jpg,AFNE03.jpg,AFSA08.jpg,AFSA12.jpg,AFSA08.jpg,FS,4,num_2,32,num_6,1.0335943196,,,2017_Jul_20_1719,60.0090654898,MAFE4ImagesEEG,001,200884,
AFNE01.JPG,AFNE01.JPG,AFNE01.JPG,AFNE01.JPG,AFNE01.JPG,AFNE01.JPG,,,,,0,6,6,3,,,,,,,,,,,,,,,,,,,AFNE20.jpg,AFSA10.jpg,AFNE09.jpg,AFSA04.jpg,AFNE20.jpg,FN,3,num_8,32,num_2,0.983478355978,,,2017_Jul_20_1719,60.0090654898,MAFE4ImagesEEG,001,200884,
AFNE01.JPG,AFNE01.JPG,AFNE01.JPG,AFNE01.JPG,AFNE01.JPG,AFNE01.JPG,,,,,0,7,7,0,,,,,,,,,,,,,,,,,,,AFNE20.jpg,AFSA20.jpg,AFSA07.jpg,AFNE11.jpg,AFSA07.jpg,FS,4,num_2,32,num_6,1.0668990108,,,2017_Jul_20_1719,60.0090654898,MAFE4ImagesEEG,001,200884,
AFNE01.JPG,AFNE01.JPG,AFNE01.JPG,AFNE01.JPG,AFNE01.JPG,AFNE01.JPG,,,,,0,8,8,4,,,,,,,,,,,,,,,,,,,AFSA08.jpg,AFSA10.jpg,AFNE18.jpg,AFNE16.jpg,AFSA10.jpg,FS,4,num_6,32,num_4,0.983531919599,,,2017_Jul_20_1719,60.0090654898,MAFE4ImagesEEG,001,200884,
AFNE01.JPG,AFNE01.JPG,AFNE01.JPG,AFNE01.JPG,AFNE01.JPG,AFNE01.JPG,,,,,0,9,9,9,,,,,,,,,,,,,,,,,,,AFNE09.jpg,AFNE06.jpg,AFSA17.jpg,AFSA15.jpg,AFSA15.jpg,FS,4,num_4,32,num_8,1.36675317027,,,2017_Jul_20_1719,60.0090654898,MAFE4ImagesEEG,001,200884,
AFNE01.JPG,AFNE01.JPG,AFNE01.JPG,AFNE01.JPG,AFNE01.JPG,AFNE01.JPG,,,,,1,0,10,9,,,,,,,,,,,,,,,,,,,AFNE17.jpg,AFNE01.jpg,AFSA17.jpg,AFSA11.jpg,AFSA11.jpg,FS,4,num_4,16,num_4,0.766665736504,,,2017_Jul_20_1719,60.0090654898,MAFE4ImagesEEG,001,200884,
AFNE01.JPG,AFNE01.JPG,AFNE01.JPG,AFNE01.JPG,AFNE01.JPG,AFNE01.JPG,,,,,1,1,11,3,,,,,,,,,,,,,,,,,,,AFNE10.jpg,AFSA02.jpg,AFSA13.jpg,AFNE14.jpg,AFNE10.jpg,FN,3,num_8,32,num_4,0.783482140687,,,2017_Jul_20_1719,60.0090654898,MAFE4ImagesEEG,001,200884,
AFNE01.JPG,AFNE01.JPG,AFNE01.JPG,AFNE01.JPG,AFNE01.JPG,AFNE01.JPG,,,,,1,2,12,1,,,,,,,,,,,,,,,,,,,AFSA15.jpg,AFNE03.jpg,AFSA10.jpg,AFNE05.jpg,AFNE05.jpg,FN,3,num_4,32,num_8,1.03348494717,,,2017_Jul_20_1719,60.0090654898,MAFE4ImagesEEG,001,200884,
AFNE01.JPG,AFNE01.JPG,AFNE01.JPG,AFNE01.JPG,AFNE01.JPG,AFNE01.JPG,,,,,1,3,13,0,,,,,,,,,,,,,,,,,,,AFSA19.jpg,AFSA17.jpg,AFNE03.jpg,AFNE18.jpg,AFNE18.jpg,FN,3,num_4,16,num_4,1.05006528663,,,2017_Jul_20_1719,60.0090654898,MAFE4ImagesEEG,001,200884,
AFNE01.JPG,AFNE01.JPG,AFNE01.JPG,AFNE01.JPG,AFNE01.JPG,AFNE01.JPG,,,,,1,4,14,5,,,,,,,,,,,,,,,,,,,AFNE04.jpg,AFSA09.jpg,AFNE05.jpg,AFSA07.jpg,AFNE05.jpg,FN,3,num_2,16,num_2,0.683544973726,,,2017_Jul_20_1719,60.0090654898,MAFE4ImagesEEG,001,200884,
AFNE01.JPG,AFNE01.JPG,AFNE01.JPG,AFNE01.JPG,AFNE01.JPG,AFNE01.JPG,,,,,1,5,15,4,,,,,,,,,,,,,,,,,,,AFSA16.jpg,AFNE07.jpg,AFNE09.jpg,AFSA09.jpg,AFNE07.jpg,FN,3,num_6,32,num_8,1.00016133231,,,2017_Jul_20_1719,60.0090654898,MAFE4ImagesEEG,001,200884,
AFNE01.JPG,AFNE01.JPG,AFNE01.JPG,AFNE01.JPG,AFNE01.JPG,AFNE01.JPG,,,,,1,6,16,7,,,,,,,,,,,,,,,,,,,AFNE02.jpg,AFSA05.jpg,AFSA07.jpg,AFNE03.jpg,AFNE03.jpg,FN,3,num_4,16,num_4,1.50006879878,,,2017_Jul_20_1719,60.0090654898,MAFE4ImagesEEG,001,200884,
AFNE01.JPG,AFNE01.JPG,AFNE01.JPG,AFNE01.JPG,AFNE01.JPG,AFNE01.JPG,,,,,1,7,17,8,,,,,,,,,,,,,,,,,,,AFNE11.jpg,AFNE03.jpg,AFSA20.jpg,AFSA11.jpg,AFSA20.jpg,FS,4,num_2,32,num_8,0.783458085207,,,2017_Jul_20_1719,60.0090654898,MAFE4ImagesEEG,001,200884,
AFNE01.JPG,AFNE01.JPG,AFNE01.JPG,AFNE01.JPG,AFNE01.JPG,AFNE01.JPG,,,,,1,8,18,2,,,,,,,,,,,,,,,,,,,AFNE16.jpg,AFNE03.jpg,AFSA20.jpg,AFSA19.jpg,AFNE03.jpg,FN,3,num_6,16,num_6,0.683467675291,,,2017_Jul_20_1719,60.0090654898,MAFE4ImagesEEG,001,200884,
AFNE01.JPG,AFNE01.JPG,AFNE01.JPG,AFNE01.JPG,AFNE01.JPG,AFNE01.JPG,,,,,1,9,19,6,,,,,,,,,,,,,,,,,,,AFNE12.jpg,AFSA04.jpg,AFNE13.jpg,AFSA16.jpg,AFNE13.jpg,FN,3,num_2,32,num_8,1.38340631773,,,2017_Jul_20_1719,60.0090654898,MAFE4ImagesEEG,001,200884,
AFNE01.JPG,AFNE01.JPG,AFNE01.JPG,AFNE01.JPG,AFNE01.JPG,AFNE01.JPG,,,,,2,0,20,2,,,,,,,,,,,,,,,,,,,AFNE01.jpg,AFSA18.jpg,AFSA15.jpg,AFNE06.jpg,AFNE06.jpg,FN,3,num_4,16,num_4,0.733514359046,,,2017_Jul_20_1719,60.0090654898,MAFE4ImagesEEG,001,200884,
AFNE01.JPG,AFNE01.JPG,AFNE01.JPG,AFNE01.JPG,AFNE01.JPG,AFNE01.JPG,,,,,2,1,21,0,,,,,,,,,,,,,,,,,,,AFSA02.jpg,AFSA16.jpg,AFNE17.jpg,AFNE19.jpg,AFNE19.jpg,FN,3,num_4,32,num_6,0.93344867148,,,2017_Jul_20_1719,60.0090654898,MAFE4ImagesEEG,001,200884,
AFNE01.JPG,AFNE01.JPG,AFNE01.JPG,AFNE01.JPG,AFNE01.JPG,AFNE01.JPG,,,,,2,2,22,8,,,,,,,,,,,,,,,,,,,AFNE15.jpg,AFSA18.jpg,AFSA12.jpg,AFNE14.jpg,AFSA18.jpg,FS,4,num_6,16,num_6,0.583466039563,,,2017_Jul_20_1719,60.0090654898,MAFE4ImagesEEG,001,200884,
AFNE01.JPG,AFNE01.JPG,AFNE01.JPG,AFNE01.JPG,AFNE01.JPG,AFNE01.JPG,,,,,2,3,23,6,,,,,,,,,,,,,,,,,,,AFSA05.jpg,AFNE09.jpg,AFSA13.jpg,AFNE20.jpg,AFSA05.jpg,FS,4,num_8,32,num_2,0.450222577609,,,2017_Jul_20_1719,60.0090654898,MAFE4ImagesEEG,001,200884,
AFNE01.JPG,AFNE01.JPG,AFNE01.JPG,AFNE01.JPG,AFNE01.JPG,AFNE01.JPG,,,,,2,4,24,5,,,,,,,,,,,,,,,,,,,AFNE03.jpg,AFSA07.jpg,AFNE05.jpg,AFSA12.jpg,AFNE05.jpg,FN,3,num_2,32,num_6,0.666963672033,,,2017_Jul_20_1719,60.0090654898,MAFE4ImagesEEG,001,200884,
AFNE01.JPG,AFNE01.JPG,AFNE01.JPG,AFNE01.JPG,AFNE01.JPG,AFNE01.JPG,,,,,2,5,25,1,,,,,,,,,,,,,,,,,,,AFSA03.jpg,AFNE04.jpg,AFSA12.jpg,AFNE16.jpg,AFNE04.jpg,FN,3,num_6,32,num_8,0.666814848606,,,2017_Jul_20_1719,60.0090654898,MAFE4ImagesEEG,001,200884,
AFNE01.JPG,AFNE01.JPG,AFNE01.JPG,AFNE01.JPG,AFNE01.JPG,AFNE01.JPG,,,,,2,6,26,9,,,,,,,,,,,,,,,,,,,AFNE11.jpg,AFSA12.jpg,AFSA01.jpg,AFNE12.jpg,AFSA01.jpg,FS,4,num_2,32,num_8,0.933437766274,,,2017_Jul_20_1719,60.0090654898,MAFE4ImagesEEG,001,200884,
AFNE01.JPG,AFNE01.JPG,AFNE01.JPG,AFNE01.JPG,AFNE01.JPG,AFNE01.JPG,,,,,2,7,27,7,,,,,,,,,,,,,,,,,,,AFSA07.jpg,AFNE07.jpg,AFNE14.jpg,AFSA01.jpg,AFSA07.jpg,FS,4,num_8,16,num_8,0.666756794613,,,2017_Jul_20_1719,60.0090654898,MAFE4ImagesEEG,001,200884,
AFNE01.JPG,AFNE01.JPG,AFNE01.JPG,AFNE01.JPG,AFNE01.JPG,AFNE01.JPG,,,,,2,8,28,3,,,,,,,,,,,,,,,,,,,AFNE07.jpg,AFSA17.jpg,AFNE15.jpg,AFSA08.jpg,AFSA08.jpg,FS,4,num_4,32,num_2,0.983400736877,,,2017_Jul_20_1719,60.0090654898,MAFE4ImagesEEG,001,200884,
AFNE01.JPG,AFNE01.JPG,AFNE01.JPG,AFNE01.JPG,AFNE01.JPG,AFNE01.JPG,,,,,2,9,29,4,,,,,,,,,,,,,,,,,,,AFSA12.jpg,AFSA13.jpg,AFNE03.jpg,AFNE14.jpg,AFNE03.jpg,FN,3,num_2,32,num_4,0.833442224597,,,2017_Jul_20_1719,60.0090654898,MAFE4ImagesEEG,001,200884,
AFNE01.JPG,AFNE01.JPG,AFNE01.JPG,AFNE01.JPG,AFNE01.JPG,AFNE01.JPG,,,,,3,0,30,7,,,,,,,,,,,,,,,,,,,AFSA02.jpg,AFNE13.jpg,AFNE11.jpg,AFSA13.jpg,AFSA13.jpg,FS,4,num_4,16,num_4,0.86679310241,,,2017_Jul_20_1719,60.0090654898,MAFE4ImagesEEG,001,200884,
AFNE01.JPG,AFNE01.JPG,AFNE01.JPG,AFNE01.JPG,AFNE01.JPG,AFNE01.JPG,,,,,3,1,31,1,,,,,,,,,,,,,,,,,,,AFNE03.jpg,AFNE10.jpg,AFSA17.jpg,AFSA14.jpg,AFSA17.jpg,FS,4,num_2,32,num_8,0.583477906941,,,2017_Jul_20_1719,60.0090654898,MAFE4ImagesEEG,001,200884,
AFNE01.JPG,AFNE01.JPG,AFNE01.JPG,AFNE01.JPG,AFNE01.JPG,AFNE01.JPG,,,,,3,2,32,5,,,,,,,,,,,,,,,,,,,AFSA02.jpg,AFNE15.jpg,AFNE03.jpg,AFSA04.jpg,AFNE03.jpg,FN,3,num_2,16,num_2,0.816858036269,,,2017_Jul_20_1719,60.0090654898,MAFE4ImagesEEG,001,200884,
AFNE01.JPG,AFNE01.JPG,AFNE01.JPG,AFNE01.JPG,AFNE01.JPG,AFNE01.JPG,,,,,3,3,33,3,,,,,,,,,,,,,,,,,,,AFNE11.jpg,AFSA06.jpg,AFNE10.jpg,AFSA05.jpg,AFSA06.jpg,FS,4,num_6,32,num_4,1.00008467538,,,2017_Jul_20_1719,60.0090654898,MAFE4ImagesEEG,001,200884,
AFNE01.JPG,AFNE01.JPG,AFNE01.JPG,AFNE01.JPG,AFNE01.JPG,AFNE01.JPG,,,,,3,4,34,0,,,,,,,,,,,,,,,,,,,AFNE13.jpg,AFSA13.jpg,AFNE03.jpg,AFSA06.jpg,AFSA13.jpg,FS,4,num_6,16,num_6,0.933493575139,,,2017_Jul_20_1719,60.0090654898,MAFE4ImagesEEG,001,200884,
AFNE01.JPG,AFNE01.JPG,AFNE01.JPG,AFNE01.JPG,AFNE01.JPG,AFNE01.JPG,,,,,3,5,35,2,,,,,,,,,,,,,,,,,,,AFSA15.jpg,AFNE02.jpg,AFSA08.jpg,AFNE16.jpg,AFSA15.jpg,FS,4,num_8,16,num_8,0.533140311891,,,2017_Jul_20_1719,60.0090654898,MAFE4ImagesEEG,001,200884,
AFNE01.JPG,AFNE01.JPG,AFNE01.JPG,AFNE01.JPG,AFNE01.JPG,AFNE01.JPG,,,,,3,6,36,4,,,,,,,,,,,,,,,,,,,AFSA13.jpg,AFNE16.jpg,AFNE06.jpg,AFSA01.jpg,AFSA01.jpg,FS,4,num_4,16,num_4,1.53346939129,,,2017_Jul_20_1719,60.0090654898,MAFE4ImagesEEG,001,200884,
AFNE01.JPG,AFNE01.JPG,AFNE01.JPG,AFNE01.JPG,AFNE01.JPG,AFNE01.JPG,,,,,3,7,37,9,,,,,,,,,,,,,,,,,,,AFNE11.jpg,AFNE01.jpg,AFSA10.jpg,AFSA20.jpg,AFNE11.jpg,FN,3,num_8,32,num_2,1.48358371912,,,2017_Jul_20_1719,60.0090654898,MAFE4ImagesEEG,001,200884,
AFNE01.JPG,AFNE01.JPG,AFNE01.JPG,AFNE01.JPG,AFNE01.JPG,AFNE01.JPG,,,,,3,8,38,6,,,,,,,,,,,,,,,,,,,AFSA14.jpg,AFNE07.jpg,AFNE03.jpg,AFSA03.jpg,AFNE03.jpg,FN,3,num_2,32,num_4,0.883437269193,,,2017_Jul_20_1719,60.0090654898,MAFE4ImagesEEG,001,200884,
AFNE01.JPG,AFNE01.JPG,AFNE01.JPG,AFNE01.JPG,AFNE01.JPG,AFNE01.JPG,,,,,3,9,39,8,,,,,,,,,,,,,,,,,,,AFNE08.jpg,AFSA07.jpg,AFNE04.jpg,AFSA06.jpg,AFNE08.jpg,FN,3,num_8,16,num_8,0.700095484324,,,2017_Jul_20_1719,60.0090654898,MAFE4ImagesEEG,001,200884,
AFNE01.JPG,AFNE01.JPG,AFNE01.JPG,AFNE01.JPG,AFNE01.JPG,AFNE01.JPG,,,,,4,0,40,7,,,,,,,,,,,,,,,,,,,AFNE03.jpg,AFNE16.jpg,AFSA10.jpg,AFSA02.jpg,AFNE03.jpg,FN,3,num_8,32,num_6,0.883533811953,,,2017_Jul_20_1719,60.0090654898,MAFE4ImagesEEG,001,200884,
AFNE01.JPG,AFNE01.JPG,AFNE01.JPG,AFNE01.JPG,AFNE01.JPG,AFNE01.JPG,,,,,4,1,41,0,,,,,,,,,,,,,,,,,,,AFNE19.jpg,AFSA17.jpg,AFSA11.jpg,AFNE05.jpg,AFSA11.jpg,FS,4,num_2,16,num_2,0.466797785193,,,2017_Jul_20_1719,60.0090654898,MAFE4ImagesEEG,001,200884,
AFNE01.JPG,AFNE01.JPG,AFNE01.JPG,AFNE01.JPG,AFNE01.JPG,AFNE01.JPG,,,,,4,2,42,1,,,,,,,,,,,,,,,,,,,AFSA08.jpg,AFSA19.jpg,AFNE14.jpg,AFNE05.jpg,AFSA08.jpg,FS,4,num_8,16,num_8,0.81677977572,,,2017_Jul_20_1719,60.0090654898,MAFE4ImagesEEG,001,200884,
AFNE01.JPG,AFNE01.JPG,AFNE01.JPG,AFNE01.JPG,AFNE01.JPG,AFNE01.JPG,,,,,4,3,43,6,,,,,,,,,,,,,,,,,,,AFNE13.jpg,AFSA18.jpg,AFSA15.jpg,AFNE10.jpg,AFNE13.jpg,FN,3,num_8,32,num_2,1.03345575987,,,2017_Jul_20_1719,60.0090654898,MAFE4ImagesEEG,001,200884,
AFNE01.JPG,AFNE01.JPG,AFNE01.JPG,AFNE01.JPG,AFNE01.JPG,AFNE01.JPG,,,,,4,4,44,9,,,,,,,,,,,,,,,,,,,AFNE07.jpg,AFSA14.jpg,AFSA02.jpg,AFNE04.jpg,AFNE07.jpg,FN,3,num_8,16,num_8,1.45007952751,,,2017_Jul_20_1719,60.0090654898,MAFE4ImagesEEG,001,200884,
AFNE01.JPG,AFNE01.JPG,AFNE01.JPG,AFNE01.JPG,AFNE01.JPG,AFNE01.JPG,,,,,4,5,45,5,,,,,,,,,,,,,,,,,,,AFSA10.jpg,AFSA12.jpg,AFNE10.jpg,AFNE12.jpg,AFNE10.jpg,FN,3,num_2,16,num_2,0.983420622768,,,2017_Jul_20_1719,60.0090654898,MAFE4ImagesEEG,001,200884,
AFNE01.JPG,AFNE01.JPG,AFNE01.JPG,AFNE01.JPG,AFNE01.JPG,AFNE01.JPG,,,,,4,6,46,8,,,,,,,,,,,,,,,,,,,AFNE08.jpg,AFSA04.jpg,AFNE15.jpg,AFSA17.jpg,AFNE08.jpg,FN,3,num_8,16,num_8,0.566493755672,,,2017_Jul_20_1719,60.0090654898,MAFE4ImagesEEG,001,200884,
AFNE01.JPG,AFNE01.JPG,AFNE01.JPG,AFNE01.JPG,AFNE01.JPG,AFNE01.JPG,,,,,4,7,47,3,,,,,,,,,,,,,,,,,,,AFNE08.jpg,AFNE06.jpg,AFSA09.jpg,AFSA14.jpg,AFSA14.jpg,FS,4,num_4,32,num_2,0.766773505195,,,2017_Jul_20_1719,60.0090654898,MAFE4ImagesEEG,001,200884,
AFNE01.JPG,AFNE01.JPG,AFNE01.JPG,AFNE01.JPG,AFNE01.JPG,AFNE01.JPG,,,,,4,8,48,4,,,,,,,,,,,,,,,,,,,AFNE20.jpg,AFSA07.jpg,AFNE11.jpg,AFSA06.jpg,AFNE20.jpg,FN,3,num_8,32,num_6,0.950108554447,,,2017_Jul_20_1719,60.0090654898,MAFE4ImagesEEG,001,200884,
AFNE01.JPG,AFNE01.JPG,AFNE01.JPG,AFNE01.JPG,AFNE01.JPG,AFNE01.JPG,,,,,4,9,49,2,,,,,,,,,,,,,,,,,,,AFNE12.jpg,AFSA16.jpg,AFNE14.jpg,AFSA13.jpg,AFNE14.jpg,FN,3,num_2,32,num_8,0.716832986451,,,2017_Jul_20_1719,60.0090654898,MAFE4ImagesEEG,001,200884,
AFNE01.JPG,AFNE01.JPG,AFNE01.JPG,AFNE01.JPG,AFNE01.JPG,AFNE01.JPG,,,,,5,0,50,5,,,,,,,,,,,,,,,,,,,AFNE12.jpg,AFSA14.jpg,AFSA17.jpg,AFNE08.jpg,AFNE12.jpg,FN,3,num_8,32,num_6,1.21671511448,,,2017_Jul_20_1719,60.0090654898,MAFE4ImagesEEG,001,200884,
AFNE01.JPG,AFNE01.JPG,AFNE01.JPG,AFNE01.JPG,AFNE01.JPG,AFNE01.JPG,,,,,5,1,51,4,,,,,,,,,,,,,,,,,,,AFNE03.jpg,AFSA20.jpg,AFSA05.jpg,AFNE05.jpg,AFSA05.jpg,FS,4,num_2,16,num_2,0.750133828842,,,2017_Jul_20_1719,60.0090654898,MAFE4ImagesEEG,001,200884,
AFNE01.JPG,AFNE01.JPG,AFNE01.JPG,AFNE01.JPG,AFNE01.JPG,AFNE01.JPG,,,,,5,2,52,1,,,,,,,,,,,,,,,,,,,AFNE14.jpg,AFNE16.jpg,AFSA08.jpg,AFSA03.jpg,AFSA03.jpg,FS,4,num_4,16,num_4,0.900128584704,,,2017_Jul_20_1719,60.0090654898,MAFE4ImagesEEG,001,200884,
AFNE01.JPG,AFNE01.JPG,AFNE01.JPG,AFNE01.JPG,AFNE01.JPG,AFNE01.JPG,,,,,5,3,53,7,,,,,,,,,,,,,,,,,,,AFNE07.jpg,AFNE18.jpg,AFSA14.jpg,AFSA02.jpg,AFNE07.jpg,FN,3,num_8,32,num_6,0.750108169625,,,2017_Jul_20_1719,60.0090654898,MAFE4ImagesEEG,001,200884,
AFNE01.JPG,AFNE01.JPG,AFNE01.JPG,AFNE01.JPG,AFNE01.JPG,AFNE01.JPG,,,,,5,4,54,9,,,,,,,,,,,,,,,,,,,AFNE15.jpg,AFNE19.jpg,AFSA19.jpg,AFSA16.jpg,AFSA16.jpg,FS,4,num_4,32,num_8,1.11645913176,,,2017_Jul_20_1719,60.0090654898,MAFE4ImagesEEG,001,200884,
AFNE01.JPG,AFNE01.JPG,AFNE01.JPG,AFNE01.JPG,AFNE01.JPG,AFNE01.JPG,,,,,5,5,55,0,,,,,,,,,,,,,,,,,,,AFNE19.jpg,AFSA04.jpg,AFSA03.jpg,AFNE08.jpg,AFSA04.jpg,FS,4,num_6,16,num_6,0.533482541621,,,2017_Jul_20_1719,60.0090654898,MAFE4ImagesEEG,001,200884,
AFNE01.JPG,AFNE01.JPG,AFNE01.JPG,AFNE01.JPG,AFNE01.JPG,AFNE01.JPG,,,,,5,6,56,3,,,,,,,,,,,,,,,,,,,AFSA11.jpg,AFNE11.jpg,AFNE03.jpg,AFSA04.jpg,AFNE03.jpg,FN,3,num_2,32,num_4,1.08348416141,,,2017_Jul_20_1719,60.0090654898,MAFE4ImagesEEG,001,200884,
AFNE01.JPG,AFNE01.JPG,AFNE01.JPG,AFNE01.JPG,AFNE01.JPG,AFNE01.JPG,,,,,5,7,57,2,,,,,,,,,,,,,,,,,,,AFSA03.jpg,AFNE10.jpg,AFSA11.jpg,AFNE18.jpg,AFNE10.jpg,FN,3,num_6,32,num_8,0.683551709284,,,2017_Jul_20_1719,60.0090654898,MAFE4ImagesEEG,001,200884,
AFNE01.JPG,AFNE01.JPG,AFNE01.JPG,AFNE01.JPG,AFNE01.JPG,AFNE01.JPG,,,,,5,8,58,6,,,,,,,,,,,,,,,,,,,AFNE15.jpg,AFSA20.jpg,AFNE05.jpg,AFSA17.jpg,AFSA20.jpg,FS,4,num_6,32,num_4,0.816781700123,,,2017_Jul_20_1719,60.0090654898,MAFE4ImagesEEG,001,200884,
AFNE01.JPG,AFNE01.JPG,AFNE01.JPG,AFNE01.JPG,AFNE01.JPG,AFNE01.JPG,,,,,5,9,59,8,,,,,,,,,,,,,,,,,,,AFSA17.jpg,AFNE18.jpg,AFSA03.jpg,AFNE09.jpg,AFNE18.jpg,FN,3,num_6,32,num_2,0.633470385568,,,2017_Jul_20_1719,60.0090654898,MAFE4ImagesEEG,001,200884,
,,,,,,,,,,,,,,,,,,,,,,,,,,,,,,,,,,,,,,,,,,,space,13.6660806744,2017_Jul_20_1719,60.0090654898,MAFE4ImagesEEG,001,200884,
AFNE01.JPG,AFNE01.JPG,AFNE01.JPG,AFNE01.JPG,AFNE01.JPG,AFNE01.JPG,,,,,,,,,0,0,0,7,,,,,,,,,,,,,,,AMNE09.jpg,AMSA18.jpg,AMNE14.jpg,AMSA11.jpg,AMNE09.jpg,MN,1,num_8,16,num_8,0.733482285053,,,2017_Jul_20_1719,60.0090654898,MAFE4ImagesEEG,001,200884,
AFNE01.JPG,AFNE01.JPG,AFNE01.JPG,AFNE01.JPG,AFNE01.JPG,AFNE01.JPG,,,,,,,,,0,1,1,8,,,,,,,,,,,,,,,AMNE06.jpg,AMSA16.jpg,AMNE10.jpg,AMSA17.jpg,AMNE06.jpg,MN,1,num_8,32,num_4,0.616799276671,,,2017_Jul_20_1719,60.0090654898,MAFE4ImagesEEG,001,200884,
AFNE01.JPG,AFNE01.JPG,AFNE01.JPG,AFNE01.JPG,AFNE01.JPG,AFNE01.JPG,,,,,,,,,0,2,2,1,,,,,,,,,,,,,,,AMNE09.jpg,AMSA20.jpg,AMSA17.jpg,AMNE17.jpg,AMSA20.jpg,MS,2,num_6,16,num_6,0.483499364462,,,2017_Jul_20_1719,60.0090654898,MAFE4ImagesEEG,001,200884,
AFNE01.JPG,AFNE01.JPG,AFNE01.JPG,AFNE01.JPG,AFNE01.JPG,AFNE01.JPG,,,,,,,,,0,3,3,4,,,,,,,,,,,,,,,AMNE18.jpg,AMSA07.jpg,AMNE16.jpg,AMSA08.jpg,AMSA07.jpg,MS,2,num_6,16,num_6,0.733459512528,,,2017_Jul_20_1719,60.0090654898,MAFE4ImagesEEG,001,200884,
AFNE01.JPG,AFNE01.JPG,AFNE01.JPG,AFNE01.JPG,AFNE01.JPG,AFNE01.JPG,,,,,,,,,0,4,4,2,,,,,,,,,,,,,,,AMSA20.jpg,AMSA06.jpg,AMNE12.jpg,AMNE03.jpg,AMSA06.jpg,MS,2,num_6,16,num_6,0.500153794885,,,2017_Jul_20_1719,60.0090654898,MAFE4ImagesEEG,001,200884,
AFNE01.JPG,AFNE01.JPG,AFNE01.JPG,AFNE01.JPG,AFNE01.JPG,AFNE01.JPG,,,,,,,,,0,5,5,0,,,,,,,,,,,,,,,AMSA03.jpg,AMNE16.jpg,AMSA04.jpg,AMNE13.jpg,AMNE16.jpg,MN,1,num_6,32,num_4,0.866795347596,,,2017_Jul_20_1719,60.0090654898,MAFE4ImagesEEG,001,200884,
AFNE01.JPG,AFNE01.JPG,AFNE01.JPG,AFNE01.JPG,AFNE01.JPG,AFNE01.JPG,,,,,,,,,0,6,6,9,,,,,,,,,,,,,,,AMNE01.jpg,AMSA04.jpg,AMSA14.jpg,AMNE03.jpg,AMSA04.jpg,MS,2,num_6,32,num_2,0.98314414476,,,2017_Jul_20_1719,60.0090654898,MAFE4ImagesEEG,001,200884,
AFNE01.JPG,AFNE01.JPG,AFNE01.JPG,AFNE01.JPG,AFNE01.JPG,AFNE01.JPG,,,,,,,,,0,7,7,6,,,,,,,,,,,,,,,AMNE02.jpg,AMNE11.jpg,AMSA11.jpg,AMSA01.jpg,AMNE02.jpg,MN,1,num_8,16,num_8,1.11657491897,,,2017_Jul_20_1719,60.0090654898,MAFE4ImagesEEG,001,200884,
AFNE01.JPG,AFNE01.JPG,AFNE01.JPG,AFNE01.JPG,AFNE01.JPG,AFNE01.JPG,,,,,,,,,0,8,8,5,,,,,,,,,,,,,,,AMSA09.jpg,AMSA05.jpg,AMNE08.jpg,AMNE03.jpg,AMSA09.jpg,MS,2,num_8,16,num_8,0.533472919429,,,2017_Jul_20_1719,60.0090654898,MAFE4ImagesEEG,001,200884,
AFNE01.JPG,AFNE01.JPG,AFNE01.JPG,AFNE01.JPG,AFNE01.JPG,AFNE01.JPG,,,,,,,,,0,9,9,3,,,,,,,,,,,,,,,AMSA18.jpg,AMSA06.jpg,AMNE03.jpg,AMNE18.jpg,AMSA06.jpg,MS,2,num_6,32,num_8,0.900102284038,,,2017_Jul_20_1719,60.0090654898,MAFE4ImagesEEG,001,200884,
AFNE01.JPG,AFNE01.JPG,AFNE01.JPG,AFNE01.JPG,AFNE01.JPG,AFNE01.JPG,,,,,,,,,1,0,10,7,,,,,,,,,,,,,,,AMNE07.jpg,AMSA07.jpg,AMSA04.jpg,AMNE11.jpg,AMSA07.jpg,MS,2,num_6,16,num_6,0.433469679963,,,2017_Jul_20_1719,60.0090654898,MAFE4ImagesEEG,001,200884,
AFNE01.JPG,AFNE01.JPG,AFNE01.JPG,AFNE01.JPG,AFNE01.JPG,AFNE01.JPG,,,,,,,,,1,1,11,5,,,,,,,,,,,,,,,AMSA17.jpg,AMSA06.jpg,AMNE12.jpg,AMNE13.jpg,AMNE13.jpg,MN,1,num_4,16,num_4,0.650027311,,,2017_Jul_20_1719,60.0090654898,MAFE4ImagesEEG,001,200884,
AFNE01.JPG,AFNE01.JPG,AFNE01.JPG,AFNE01.JPG,AFNE01.JPG,AFNE01.JPG,,,,,,,,,1,2,12,2,,,,,,,,,,,,,,,AMSA17.jpg,AMNE01.jpg,AMSA06.jpg,AMNE02.jpg,AMSA17.jpg,MS,2,num_8,16,num_8,1.16676721867,,,2017_Jul_20_1719,60.0090654898,MAFE4ImagesEEG,001,200884,
AFNE01.JPG,AFNE01.JPG,AFNE01.JPG,AFNE01.JPG,AFNE01.JPG,AFNE01.JPG,,,,,,,,,1,3,13,6,,,,,,,,,,,,,,,AMNE18.jpg,AMNE17.jpg,AMSA11.jpg,AMSA19.jpg,AMNE17.jpg,MN,1,num_6,32,num_8,0.633497327741,,,2017_Jul_20_1719,60.0090654898,MAFE4ImagesEEG,001,200884,
AFNE01.JPG,AFNE01.JPG,AFNE01.JPG,AFNE01.JPG,AFNE01.JPG,AFNE01.JPG,,,,,,,,,1,4,14,1,,,,,,,,,,,,,,,AMSA01.jpg,AMNE19.jpg,AMSA02.jpg,AMNE18.jpg,AMSA02.jpg,MS,2,num_2,16,num_2,0.950098611531,,,2017_Jul_20_1719,60.0090654898,MAFE4ImagesEEG,001,200884,
AFNE01.JPG,AFNE01.JPG,AFNE01.JPG,AFNE01.JPG,AFNE01.JPG,AFNE01.JPG,,,,,,,,,1,5,15,3,,,,,,,,,,,,,,,AMNE08.jpg,AMNE07.jpg,AMSA12.jpg,AMSA03.jpg,AMSA03.jpg,MS,2,num_4,32,num_6,0.933455727762,,,2017_Jul_20_1719,60.0090654898,MAFE4ImagesEEG,001,200884,
AFNE01.JPG,AFNE01.JPG,AFNE01.JPG,AFNE01.JPG,AFNE01.JPG,AFNE01.JPG,,,,,,,,,1,6,16,8,,,,,,,,,,,,,,,AMNE11.jpg,AMNE04.jpg,AMSA16.jpg,AMSA02.jpg,AMSA02.jpg,MS,2,num_4,32,num_8,0.650146947068,,,2017_Jul_20_1719,60.0090654898,MAFE4ImagesEEG,001,200884,
AFNE01.JPG,AFNE01.JPG,AFNE01.JPG,AFNE01.JPG,AFNE01.JPG,AFNE01.JPG,,,,,,,,,1,7,17,9,,,,,,,,,,,,,,,AMSA10.jpg,AMNE11.jpg,AMNE20.jpg,AMSA16.jpg,AMNE20.jpg,MN,1,num_2,32,num_4,0.316767747921,,,2017_Jul_20_1719,60.0090654898,MAFE4ImagesEEG,001,200884,
AFNE01.JPG,AFNE01.JPG,AFNE01.JPG,AFNE01.JPG,AFNE01.JPG,AFNE01.JPG,,,,,,,,,1,8,18,4,,,,,,,,,,,,,,,AMSA16.jpg,AMNE02.jpg,AMNE15.jpg,AMSA02.jpg,AMNE15.jpg,MN,1,num_2,16,num_2,0.616913139354,,,2017_Jul_20_1719,60.0090654898,MAFE4ImagesEEG,001,200884,
AFNE01.JPG,AFNE01.JPG,AFNE01.JPG,AFNE01.JPG,AFNE01.JPG,AFNE01.JPG,,,,,,,,,1,9,19,0,,,,,,,,,,,,,,,AMNE04.jpg,AMNE11.jpg,AMSA16.jpg,AMSA04.jpg,AMSA16.jpg,MS,2,num_2,32,num_4,0.383500294585,,,2017_Jul_20_1719,60.0090654898,MAFE4ImagesEEG,001,200884,
AFNE01.JPG,AFNE01.JPG,AFNE01.JPG,AFNE01.JPG,AFNE01.JPG,AFNE01.JPG,,,,,,,,,2,0,20,9,,,,,,,,,,,,,,,AMSA06.jpg,AMNE03.jpg,AMSA14.jpg,AMNE08.jpg,AMNE03.jpg,MN,1,num_6,32,num_2,0.533481258666,,,2017_Jul_20_1719,60.0090654898,MAFE4ImagesEEG,001,200884,
AFNE01.JPG,AFNE01.JPG,AFNE01.JPG,AFNE01.JPG,AFNE01.JPG,AFNE01.JPG,,,,,,,,,2,1,21,0,,,,,,,,,,,,,,,AMNE03.jpg,AMSA09.jpg,AMSA16.jpg,AMNE17.jpg,AMSA16.jpg,MS,2,num_2,32,num_6,0.46678720077,,,2017_Jul_20_1719,60.0090654898,MAFE4ImagesEEG,001,200884,
AFNE01.JPG,AFNE01.JPG,AFNE01.JPG,AFNE01.JPG,AFNE01.JPG,AFNE01.JPG,,,,,,,,,2,2,22,4,,,,,,,,,,,,,,,AMNE10.jpg,AMNE18.jpg,AMSA20.jpg,AMSA07.jpg,AMSA20.jpg,MS,2,num_2,32,num_8,0.683481787855,,,2017_Jul_20_1719,60.0090654898,MAFE4ImagesEEG,001,200884,
AFNE01.JPG,AFNE01.JPG,AFNE01.JPG,AFNE01.JPG,AFNE01.JPG,AFNE01.JPG,,,,,,,,,2,3,23,2,,,,,,,,,,,,,,,AMSA01.jpg,AMNE07.jpg,AMNE15.jpg,AMSA18.jpg,AMSA18.jpg,MS,2,num_4,16,num_4,0.433490207302,,,2017_Jul_20_1719,60.0090654898,MAFE4ImagesEEG,001,200884,
AFNE01.JPG,AFNE01.JPG,AFNE01.JPG,AFNE01.JPG,AFNE01.JPG,AFNE01.JPG,,,,,,,,,2,4,24,5,,,,,,,,,,,,,,,AMSA06.jpg,AMNE08.jpg,AMNE17.jpg,AMSA14.jpg,AMSA06.jpg,MS,2,num_8,32,num_6,0.700111521292,,,2017_Jul_20_1719,60.0090654898,MAFE4ImagesEEG,001,200884,
AFNE01.JPG,AFNE01.JPG,AFNE01.JPG,AFNE01.JPG,AFNE01.JPG,AFNE01.JPG,,,,,,,,,2,5,25,7,,,,,,,,,,,,,,,AMSA16.jpg,AMSA07.jpg,AMNE19.jpg,AMNE16.jpg,AMSA07.jpg,MS,2,num_6,16,num_6,0.916803221742,,,2017_Jul_20_1719,60.0090654898,MAFE4ImagesEEG,001,200884,
AFNE01.JPG,AFNE01.JPG,AFNE01.JPG,AFNE01.JPG,AFNE01.JPG,AFNE01.JPG,,,,,,,,,2,6,26,3,,,,,,,,,,,,,,,AMSA18.jpg,AMNE19.jpg,AMSA11.jpg,AMNE08.jpg,AMNE08.jpg,MN,1,num_4,32,num_8,1.20008313586,,,2017_Jul_20_1719,60.0090654898,MAFE4ImagesEEG,001,200884,
AFNE01.JPG,AFNE01.JPG,AFNE01.JPG,AFNE01.JPG,AFNE01.JPG,AFNE01.JPG,,,,,,,,,2,7,27,8,,,,,,,,,,,,,,,AMNE06.jpg,AMSA15.jpg,AMNE18.jpg,AMSA13.jpg,AMSA15.jpg,MS,2,num_6,16,num_6,1.10009529191,,,2017_Jul_20_1719,60.0090654898,MAFE4ImagesEEG,001,200884,
AFNE01.JPG,AFNE01.JPG,AFNE01.JPG,AFNE01.JPG,AFNE01.JPG,AFNE01.JPG,,,,,,,,,2,8,28,6,,,,,,,,,,,,,,,AMSA01.jpg,AMNE07.jpg,AMSA02.jpg,AMNE14.jpg,AMSA01.jpg,MS,2,num_8,32,num_4,0.566674653091,,,2017_Jul_20_1719,60.0090654898,MAFE4ImagesEEG,001,200884,
AFNE01.JPG,AFNE01.JPG,AFNE01.JPG,AFNE01.JPG,AFNE01.JPG,AFNE01.JPG,,,,,,,,,2,9,29,1,,,,,,,,,,,,,,,AMSA12.jpg,AMNE01.jpg,AMSA20.jpg,AMNE08.jpg,AMNE08.jpg,MN,1,num_4,32,num_8,0.65012385376,,,2017_Jul_20_1719,60.0090654898,MAFE4ImagesEEG,001,200884,
AFNE01.JPG,AFNE01.JPG,AFNE01.JPG,AFNE01.JPG,AFNE01.JPG,AFNE01.JPG,,,,,,,,,3,0,30,2,,,,,,,,,,,,,,,AMNE17.jpg,AMSA16.jpg,AMNE13.jpg,AMSA09.jpg,AMNE13.jpg,MN,1,num_2,32,num_8,0.866834157147,,,2017_Jul_20_1719,60.0090654898,MAFE4ImagesEEG,001,200884,
AFNE01.JPG,AFNE01.JPG,AFNE01.JPG,AFNE01.JPG,AFNE01.JPG,AFNE01.JPG,,,,,,,,,3,1,31,4,,,,,,,,,,,,,,,AMNE06.jpg,AMSA05.jpg,AMNE15.jpg,AMSA14.jpg,AMNE15.jpg,MN,1,num_2,32,num_6,0.549928170221,,,2017_Jul_20_1719,60.0090654898,MAFE4ImagesEEG,001,200884,
AFNE01.JPG,AFNE01.JPG,AFNE01.JPG,AFNE01.JPG,AFNE01.JPG,AFNE01.JPG,,,,,,,,,3,2,32,7,,,,,,,,,,,,,,,AMNE14.jpg,AMSA06.jpg,AMSA14.jpg,AMNE17.jpg,AMNE14.jpg,MN,1,num_8,16,num_8,0.450020190619,,,2017_Jul_20_1719,60.0090654898,MAFE4ImagesEEG,001,200884,
AFNE01.JPG,AFNE01.JPG,AFNE01.JPG,AFNE01.JPG,AFNE01.JPG,AFNE01.JPG,,,,,,,,,3,3,33,6,,,,,,,,,,,,,,,AMSA14.jpg,AMSA16.jpg,AMNE12.jpg,AMNE10.jpg,AMSA16.jpg,MS,2,num_6,32,num_2,0.667090685107,,,2017_Jul_20_1719,60.0090654898,MAFE4ImagesEEG,001,200884,
AFNE01.JPG,AFNE01.JPG,AFNE01.JPG,AFNE01.JPG,AFNE01.JPG,AFNE01.JPG,,,,,,,,,3,4,34,5,,,,,,,,,,,,,,,AMNE19.jpg,AMSA15.jpg,AMSA09.jpg,AMNE07.jpg,AMNE07.jpg,MN,1,num_4,32,num_8,0.633488988504,,,2017_Jul_20_1719,60.0090654898,MAFE4ImagesEEG,001,200884,
AFNE01.JPG,AFNE01.JPG,AFNE01.JPG,AFNE01.JPG,AFNE01.JPG,AFNE01.JPG,,,,,,,,,3,5,35,9,,,,,,,,,,,,,,,AMNE17.jpg,AMSA15.jpg,AMNE11.jpg,AMSA20.jpg,AMNE11.jpg,MN,1,num_2,32,num_8,0.850116220186,,,2017_Jul_20_1719,60.0090654898,MAFE4ImagesEEG,001,200884,
AFNE01.JPG,AFNE01.JPG,AFNE01.JPG,AFNE01.JPG,AFNE01.JPG,AFNE01.JPG,,,,,,,,,3,6,36,1,,,,,,,,,,,,,,,AMNE11.jpg,AMNE07.jpg,AMSA09.jpg,AMSA11.jpg,AMNE07.jpg,MN,1,num_6,32,num_8,0.783544043545,,,2017_Jul_20_1719,60.0090654898,MAFE4ImagesEEG,001,200884,
AFNE01.JPG,AFNE01.JPG,AFNE01.JPG,AFNE01.JPG,AFNE01.JPG,AFNE01.JPG,,,,,,,,,3,7,37,8,,,,,,,,,,,,,,,AMSA06.jpg,AMSA09.jpg,AMNE10.jpg,AMNE03.jpg,AMNE03.jpg,MN,1,num_4,16,num_4,0.933430389268,,,2017_Jul_20_1719,60.0090654898,MAFE4ImagesEEG,001,200884,
AFNE01.JPG,AFNE01.JPG,AFNE01.JPG,AFNE01.JPG,AFNE01.JPG,AFNE01.JPG,,,,,,,,,3,8,38,3,,,,,,,,,,,,,,,AMNE09.jpg,AMSA02.jpg,AMNE18.jpg,AMSA18.jpg,AMNE09.jpg,MN,1,num_8,16,num_8,0.566825080256,,,2017_Jul_20_1719,60.0090654898,MAFE4ImagesEEG,001,200884,
AFNE01.JPG,AFNE01.JPG,AFNE01.JPG,AFNE01.JPG,AFNE01.JPG,AFNE01.JPG,,,,,,,,,3,9,39,0,,,,,,,,,,,,,,,AMNE10.jpg,AMNE02.jpg,AMSA14.jpg,AMSA07.jpg,AMNE02.jpg,MN,1,num_6,32,num_8,0.966727382794,,,2017_Jul_20_1719,60.0090654898,MAFE4ImagesEEG,001,200884,
AFNE01.JPG,AFNE01.JPG,AFNE01.JPG,AFNE01.JPG,AFNE01.JPG,AFNE01.JPG,,,,,,,,,4,0,40,2,,,,,,,,,,,,,,,AMSA03.jpg,AMNE08.jpg,AMSA04.jpg,AMNE10.jpg,AMNE10.jpg,MN,1,num_4,16,num_4,2.81660978339,,,2017_Jul_20_1719,60.0090654898,MAFE4ImagesEEG,001,200884,
AFNE01.JPG,AFNE01.JPG,AFNE01.JPG,AFNE01.JPG,AFNE01.JPG,AFNE01.JPG,,,,,,,,,4,1,41,8,,,,,,,,,,,,,,,AMNE09.jpg,AMSA05.jpg,AMSA11.jpg,AMNE19.jpg,AMNE19.jpg,MN,1,num_4,32,num_8,0.783664641844,,,2017_Jul_20_1719,60.0090654898,MAFE4ImagesEEG,001,200884,
AFNE01.JPG,AFNE01.JPG,AFNE01.JPG,AFNE01.JPG,AFNE01.JPG,AFNE01.JPG,,,,,,,,,4,2,42,0,,,,,,,,,,,,,,,AMNE12.jpg,AMNE03.jpg,AMSA12.jpg,AMSA18.jpg,AMNE03.jpg,MN,1,num_6,32,num_8,0.600136827736,,,2017_Jul_20_1719,60.0090654898,MAFE4ImagesEEG,001,200884,
AFNE01.JPG,AFNE01.JPG,AFNE01.JPG,AFNE01.JPG,AFNE01.JPG,AFNE01.JPG,,,,,,,,,4,3,43,5,,,,,,,,,,,,,,,AMNE14.jpg,AMSA12.jpg,AMNE18.jpg,AMSA01.jpg,AMNE18.jpg,MN,1,num_2,32,num_6,0.500236225082,,,2017_Jul_20_1719,60.0090654898,MAFE4ImagesEEG,001,200884,
AFNE01.JPG,AFNE01.JPG,AFNE01.JPG,AFNE01.JPG,AFNE01.JPG,AFNE01.JPG,,,,,,,,,4,4,44,6,,,,,,,,,,,,,,,AMNE13.jpg,AMNE06.jpg,AMSA06.jpg,AMSA17.jpg,AMNE06.jpg,MN,1,num_6,32,num_8,0.400165630155,,,2017_Jul_20_1719,60.0090654898,MAFE4ImagesEEG,001,200884,
AFNE01.JPG,AFNE01.JPG,AFNE01.JPG,AFNE01.JPG,AFNE01.JPG,AFNE01.JPG,,,,,,,,,4,5,45,7,,,,,,,,,,,,,,,AMNE10.jpg,AMSA02.jpg,AMSA09.jpg,AMNE02.jpg,AMSA02.jpg,MS,2,num_6,32,num_4,0.71677942283,,,2017_Jul_20_1719,60.0090654898,MAFE4ImagesEEG,001,200884,
AFNE01.JPG,AFNE01.JPG,AFNE01.JPG,AFNE01.JPG,AFNE01.JPG,AFNE01.JPG,,,,,,,,,4,6,46,4,,,,,,,,,,,,,,,AMSA15.jpg,AMNE10.jpg,AMNE13.jpg,AMSA18.jpg,AMSA18.jpg,MS,2,num_4,16,num_4,0.700128520548,,,2017_Jul_20_1719,60.0090654898,MAFE4ImagesEEG,001,200884,
AFNE01.JPG,AFNE01.JPG,AFNE01.JPG,AFNE01.JPG,AFNE01.JPG,AFNE01.JPG,,,,,,,,,4,7,47,3,,,,,,,,,,,,,,,AMSA09.jpg,AMSA15.jpg,AMNE18.jpg,AMNE02.jpg,AMNE02.jpg,MN,1,num_4,32,num_8,0.600130092178,,,2017_Jul_20_1719,60.0090654898,MAFE4ImagesEEG,001,200884,
AFNE01.JPG,AFNE01.JPG,AFNE01.JPG,AFNE01.JPG,AFNE01.JPG,AFNE01.JPG,,,,,,,,,4,8,48,9,,,,,,,,,,,,,,,AMNE12.jpg,AMSA17.jpg,AMSA11.jpg,AMNE19.jpg,AMNE12.jpg,MN,1,num_8,32,num_4,0.56679428916,,,2017_Jul_20_1719,60.0090654898,MAFE4ImagesEEG,001,200884,
AFNE01.JPG,AFNE01.JPG,AFNE01.JPG,AFNE01.JPG,AFNE01.JPG,AFNE01.JPG,,,,,,,,,4,9,49,1,,,,,,,,,,,,,,,AMSA05.jpg,AMSA04.jpg,AMNE16.jpg,AMNE19.jpg,AMNE16.jpg,MN,1,num_2,16,num_2,0.633511761087,,,2017_Jul_20_1719,60.0090654898,MAFE4ImagesEEG,001,200884,
AFNE01.JPG,AFNE01.JPG,AFNE01.JPG,AFNE01.JPG,AFNE01.JPG,AFNE01.JPG,,,,,,,,,5,0,50,6,,,,,,,,,,,,,,,AMNE14.jpg,AMSA16.jpg,AMSA02.jpg,AMNE15.jpg,AMNE14.jpg,MN,1,num_8,16,num_8,0.600150619575,,,2017_Jul_20_1719,60.0090654898,MAFE4ImagesEEG,001,200884,
AFNE01.JPG,AFNE01.JPG,AFNE01.JPG,AFNE01.JPG,AFNE01.JPG,AFNE01.JPG,,,,,,,,,5,1,51,9,,,,,,,,,,,,,,,AMSA05.jpg,AMNE05.jpg,AMNE13.jpg,AMSA11.jpg,AMSA05.jpg,MS,2,num_8,32,num_4,0.683500390791,,,2017_Jul_20_1719,60.0090654898,MAFE4ImagesEEG,001,200884,
AFNE01.JPG,AFNE01.JPG,AFNE01.JPG,AFNE01.JPG,AFNE01.JPG,AFNE01.JPG,,,,,,,,,5,2,52,1,,,,,,,,,,,,,,,AMNE07.jpg,AMNE12.jpg,AMSA20.jpg,AMSA14.jpg,AMSA20.jpg,MS,2,num_2,16,num_2,0.566792364698,,,2017_Jul_20_1719,60.0090654898,MAFE4ImagesEEG,001,200884,
AFNE01.JPG,AFNE01.JPG,AFNE01.JPG,AFNE01.JPG,AFNE01.JPG,AFNE01.JPG,,,,,,,,,5,3,53,8,,,,,,,,,,,,,,,AMNE11.jpg,AMSA03.jpg,AMNE13.jpg,AMSA11.jpg,AMNE13.jpg,MN,1,num_2,16,num_2,0.983490864863,,,2017_Jul_20_1719,60.0090654898,MAFE4ImagesEEG,001,200884,
AFNE01.JPG,AFNE01.JPG,AFNE01.JPG,AFNE01.JPG,AFNE01.JPG,AFNE01.JPG,,,,,,,,,5,4,54,7,,,,,,,,,,,,,,,AMSA19.jpg,AMSA13.jpg,AMNE03.jpg,AMNE07.jpg,AMNE03.jpg,MN,1,num_2,32,num_4,0.766822578444,,,2017_Jul_20_1719,60.0090654898,MAFE4ImagesEEG,001,200884,
AFNE01.JPG,AFNE01.JPG,AFNE01.JPG,AFNE01.JPG,AFNE01.JPG,AFNE01.JPG,,,,,,,,,5,5,55,2,,,,,,,,,,,,,,,AMNE11.jpg,AMSA14.jpg,AMNE16.jpg,AMSA11.jpg,AMSA11.jpg,MS,2,num_4,32,num_6,0.799947655178,,,2017_Jul_20_1719,60.0090654898,MAFE4ImagesEEG,001,200884,
AFNE01.JPG,AFNE01.JPG,AFNE01.JPG,AFNE01.JPG,AFNE01.JPG,AFNE01.JPG,,,,,,,,,5,6,56,3,,,,,,,,,,,,,,,AMNE13.jpg,AMSA02.jpg,AMSA01.jpg,AMNE10.jpg,AMSA02.jpg,MS,2,num_6,32,num_2,0.466667244036,,,2017_Jul_20_1719,60.0090654898,MAFE4ImagesEEG,001,200884,
AFNE01.JPG,AFNE01.JPG,AFNE01.JPG,AFNE01.JPG,AFNE01.JPG,AFNE01.JPG,,,,,,,,,5,7,57,4,,,,,,,,,,,,,,,AMNE11.jpg,AMNE15.jpg,AMSA07.jpg,AMSA19.jpg,AMSA19.jpg,MS,2,num_4,16,num_4,0.816757965367,,,2017_Jul_20_1719,60.0090654898,MAFE4ImagesEEG,001,200884,
AFNE01.JPG,AFNE01.JPG,AFNE01.JPG,AFNE01.JPG,AFNE01.JPG,AFNE01.JPG,,,,,,,,,5,8,58,5,,,,,,,,,,,,,,,AMSA19.jpg,AMNE11.jpg,AMSA10.jpg,AMNE18.jpg,AMNE11.jpg,MN,1,num_6,32,num_8,0.500154436391,,,2017_Jul_20_1719,60.0090654898,MAFE4ImagesEEG,001,200884,
AFNE01.JPG,AFNE01.JPG,AFNE01.JPG,AFNE01.JPG,AFNE01.JPG,AFNE01.JPG,,,,,,,,,5,9,59,0,,,,,,,,,,,,,,,AMNE10.jpg,AMSA18.jpg,AMSA04.jpg,AMNE17.jpg,AMSA18.jpg,MS,2,num_6,16,num_6,0.833422980155,,,2017_Jul_20_1719,60.0090654898,MAFE4ImagesEEG,001,200884,
,,,,,,,,,,,,,,,,,,,,,,,,,,,,,,,,,,,,,,,,,,,space,23.6814040334,2017_Jul_20_1719,60.0090654898,MAFE4ImagesEEG,001,200884,
AFNE01.JPG,AFNE01.JPG,AFNE01.JPG,AFNE01.JPG,AFNE01.JPG,AFNE01.JPG,,,,,,,,,,,,,0,0,0,0,,,,,,,,,,,AFSA08.jpg,AFNE03.jpg,AFNE04.jpg,AFSA10.jpg,AFNE03.jpg,FN,3,num_6,16,num_6,2.31666543183,,,2017_Jul_20_1719,60.0090654898,MAFE4ImagesEEG,001,200884,
AFNE01.JPG,AFNE01.JPG,AFNE01.JPG,AFNE01.JPG,AFNE01.JPG,AFNE01.JPG,,,,,,,,,,,,,0,1,1,4,,,,,,,,,,,AFNE08.jpg,AFNE20.jpg,AFSA04.jpg,AFSA07.jpg,AFNE08.jpg,FN,3,num_8,32,num_4,0.700107993209,,,2017_Jul_20_1719,60.0090654898,MAFE4ImagesEEG,001,200884,
AFNE01.JPG,AFNE01.JPG,AFNE01.JPG,AFNE01.JPG,AFNE01.JPG,AFNE01.JPG,,,,,,,,,,,,,0,2,2,9,,,,,,,,,,,AFNE04.jpg,AFNE17.jpg,AFSA18.jpg,AFSA08.jpg,AFSA08.jpg,FS,4,num_4,16,num_4,0.817040537368,,,2017_Jul_20_1719,60.0090654898,MAFE4ImagesEEG,001,200884,
AFNE01.JPG,AFNE01.JPG,AFNE01.JPG,AFNE01.JPG,AFNE01.JPG,AFNE01.JPG,,,,,,,,,,,,,0,3,3,3,,,,,,,,,,,AFNE18.jpg,AFSA18.jpg,AFSA16.jpg,AFNE06.jpg,AFSA18.jpg,FS,4,num_6,16,num_6,0.850096975744,,,2017_Jul_20_1719,60.0090654898,MAFE4ImagesEEG,001,200884,
AFNE01.JPG,AFNE01.JPG,AFNE01.JPG,AFNE01.JPG,AFNE01.JPG,AFNE01.JPG,,,,,,,,,,,,,0,4,4,1,,,,,,,,,,,AFNE12.jpg,AFSA20.jpg,AFSA15.jpg,AFNE20.jpg,AFNE12.jpg,FN,3,num_8,16,num_8,0.933526611363,,,2017_Jul_20_1719,60.0090654898,MAFE4ImagesEEG,001,200884,
AFNE01.JPG,AFNE01.JPG,AFNE01.JPG,AFNE01.JPG,AFNE01.JPG,AFNE01.JPG,,,,,,,,,,,,,0,5,5,5,,,,,,,,,,,AFSA10.jpg,AFNE20.jpg,AFNE04.jpg,AFSA11.jpg,AFSA10.jpg,FS,4,num_8,32,num_2,1.36671756813,,,2017_Jul_20_1719,60.0090654898,MAFE4ImagesEEG,001,200884,
AFNE01.JPG,AFNE01.JPG,AFNE01.JPG,AFNE01.JPG,AFNE01.JPG,AFNE01.JPG,,,,,,,,,,,,,0,6,6,7,,,,,,,,,,,AFNE20.jpg,AFSA12.jpg,AFSA20.jpg,AFNE03.jpg,AFNE03.jpg,FN,3,num_4,16,num_4,0.650128344132,,,2017_Jul_20_1719,60.0090654898,MAFE4ImagesEEG,001,200884,
AFNE01.JPG,AFNE01.JPG,AFNE01.JPG,AFNE01.JPG,AFNE01.JPG,AFNE01.JPG,,,,,,,,,,,,,0,7,7,2,,,,,,,,,,,AFSA03.jpg,AFNE01.jpg,AFSA14.jpg,AFNE16.jpg,AFSA03.jpg,FS,4,num_8,16,num_8,1.03346441983,,,2017_Jul_20_1719,60.0090654898,MAFE4ImagesEEG,001,200884,
AFNE01.JPG,AFNE01.JPG,AFNE01.JPG,AFNE01.JPG,AFNE01.JPG,AFNE01.JPG,,,,,,,,,,,,,0,8,8,6,,,,,,,,,,,AFNE14.jpg,AFNE06.jpg,AFSA07.jpg,AFSA06.jpg,AFNE06.jpg,FN,3,num_6,16,num_6,1.20008602249,,,2017_Jul_20_1719,60.0090654898,MAFE4ImagesEEG,001,200884,
AFNE01.JPG,AFNE01.JPG,AFNE01.JPG,AFNE01.JPG,AFNE01.JPG,AFNE01.JPG,,,,,,,,,,,,,0,9,9,8,,,,,,,,,,,AFSA05.jpg,AFNE04.jpg,AFSA09.jpg,AFNE09.jpg,AFNE09.jpg,FN,3,num_4,32,num_8,0.716761782125,,,2017_Jul_20_1719,60.0090654898,MAFE4ImagesEEG,001,200884,
AFNE01.JPG,AFNE01.JPG,AFNE01.JPG,AFNE01.JPG,AFNE01.JPG,AFNE01.JPG,,,,,,,,,,,,,1,0,10,6,,,,,,,,,,,AFSA11.jpg,AFNE04.jpg,AFNE10.jpg,AFSA20.jpg,AFSA20.jpg,FS,4,num_4,16,num_4,0.616523760895,,,2017_Jul_20_1719,60.0090654898,MAFE4ImagesEEG,001,200884,
AFNE01.JPG,AFNE01.JPG,AFNE01.JPG,AFNE01.JPG,AFNE01.JPG,AFNE01.JPG,,,,,,,,,,,,,1,1,11,5,,,,,,,,,,,AFSA16.jpg,AFSA04.jpg,AFNE11.jpg,AFNE19.jpg,AFNE19.jpg,FN,3,num_4,16,num_4,1.05008773849,,,2017_Jul_20_1719,60.0090654898,MAFE4ImagesEEG,001,200884,
AFNE01.JPG,AFNE01.JPG,AFNE01.JPG,AFNE01.JPG,AFNE01.JPG,AFNE01.JPG,,,,,,,,,,,,,1,2,12,8,,,,,,,,,,,AFSA02.jpg,AFNE15.jpg,AFSA10.jpg,AFNE11.jpg,AFNE11.jpg,FN,3,num_4,32,num_8,2.133347061,,,2017_Jul_20_1719,60.0090654898,MAFE4ImagesEEG,001,200884,
AFNE01.JPG,AFNE01.JPG,AFNE01.JPG,AFNE01.JPG,AFNE01.JPG,AFNE01.JPG,,,,,,,,,,,,,1,3,13,9,,,,,,,,,,,AFSA16.jpg,AFNE13.jpg,AFSA03.jpg,AFNE19.jpg,AFNE13.jpg,FN,3,num_6,32,num_8,0.700192027085,,,2017_Jul_20_1719,60.0090654898,MAFE4ImagesEEG,001,200884,
AFNE01.JPG,AFNE01.JPG,AFNE01.JPG,AFNE01.JPG,AFNE01.JPG,AFNE01.JPG,,,,,,,,,,,,,1,4,14,4,,,,,,,,,,,AFSA01.jpg,AFNE13.jpg,AFNE14.jpg,AFSA19.jpg,AFNE13.jpg,FN,3,num_6,32,num_4,0.633472630754,,,2017_Jul_20_1719,60.0090654898,MAFE4ImagesEEG,001,200884,
AFNE01.JPG,AFNE01.JPG,AFNE01.JPG,AFNE01.JPG,AFNE01.JPG,AFNE01.JPG,,,,,,,,,,,,,1,5,15,1,,,,,,,,,,,AFSA01.jpg,AFNE15.jpg,AFSA09.jpg,AFNE12.jpg,AFSA09.jpg,FS,4,num_2,32,num_8,0.716779743612,,,2017_Jul_20_1719,60.0090654898,MAFE4ImagesEEG,001,200884,
AFNE01.JPG,AFNE01.JPG,AFNE01.JPG,AFNE01.JPG,AFNE01.JPG,AFNE01.JPG,,,,,,,,,,,,,1,6,16,0,,,,,,,,,,,AFSA09.jpg,AFNE10.jpg,AFNE02.jpg,AFSA15.jpg,AFSA15.jpg,FS,4,num_4,32,num_8,0.933434238192,,,2017_Jul_20_1719,60.0090654898,MAFE4ImagesEEG,001,200884,
AFNE01.JPG,AFNE01.JPG,AFNE01.JPG,AFNE01.JPG,AFNE01.JPG,AFNE01.JPG,,,,,,,,,,,,,1,7,17,7,,,,,,,,,,,AFNE02.jpg,AFNE20.jpg,AFSA08.jpg,AFSA11.jpg,AFSA11.jpg,FS,4,num_4,16,num_4,0.916768261115,,,2017_Jul_20_1719,60.0090654898,MAFE4ImagesEEG,001,200884,
AFNE01.JPG,AFNE01.JPG,AFNE01.JPG,AFNE01.JPG,AFNE01.JPG,AFNE01.JPG,,,,,,,,,,,,,1,8,18,3,,,,,,,,,,,AFSA18.jpg,AFNE05.jpg,AFNE09.jpg,AFSA13.jpg,AFSA18.jpg,FS,4,num_8,32,num_4,0.766793070303,,,2017_Jul_20_1719,60.0090654898,MAFE4ImagesEEG,001,200884,
AFNE01.JPG,AFNE01.JPG,AFNE01.JPG,AFNE01.JPG,AFNE01.JPG,AFNE01.JPG,,,,,,,,,,,,,1,9,19,2,,,,,,,,,,,AFSA08.jpg,AFNE07.jpg,AFSA02.jpg,AFNE04.jpg,AFSA02.jpg,FS,4,num_2,32,num_8,1.00011225906,,,2017_Jul_20_1719,60.0090654898,MAFE4ImagesEEG,001,200884,
AFNE01.JPG,AFNE01.JPG,AFNE01.JPG,AFNE01.JPG,AFNE01.JPG,AFNE01.JPG,,,,,,,,,,,,,2,0,20,6,,,,,,,,,,,AFNE05.jpg,AFSA15.jpg,AFNE09.jpg,AFSA16.jpg,AFSA15.jpg,FS,4,num_6,32,num_4,0.700110879843,,,2017_Jul_20_1719,60.0090654898,MAFE4ImagesEEG,001,200884,
AFNE01.JPG,AFNE01.JPG,AFNE01.JPG,AFNE01.JPG,AFNE01.JPG,AFNE01.JPG,,,,,,,,,,,,,2,1,21,0,,,,,,,,,,,AFNE15.jpg,AFSA05.jpg,AFSA01.jpg,AFNE20.jpg,AFSA05.jpg,FS,4,num_6,16,num_6,0.450145920739,,,2017_Jul_20_1719,60.0090654898,MAFE4ImagesEEG,001,200884,
AFNE01.JPG,AFNE01.JPG,AFNE01.JPG,AFNE01.JPG,AFNE01.JPG,AFNE01.JPG,,,,,,,,,,,,,2,2,22,9,,,,,,,,,,,AFSA02.jpg,AFNE06.jpg,AFNE03.jpg,AFSA08.jpg,AFNE03.jpg,FN,3,num_2,32,num_4,0.800097120111,,,2017_Jul_20_1719,60.0090654898,MAFE4ImagesEEG,001,200884,
AFNE01.JPG,AFNE01.JPG,AFNE01.JPG,AFNE01.JPG,AFNE01.JPG,AFNE01.JPG,,,,,,,,,,,,,2,3,23,3,,,,,,,,,,,AFNE15.jpg,AFSA10.jpg,AFSA14.jpg,AFNE14.jpg,AFNE15.jpg,FN,3,num_8,16,num_8,0.566827004659,,,2017_Jul_20_1719,60.0090654898,MAFE4ImagesEEG,001,200884,
AFNE01.JPG,AFNE01.JPG,AFNE01.JPG,AFNE01.JPG,AFNE01.JPG,AFNE01.JPG,,,,,,,,,,,,,2,4,24,7,,,,,,,,,,,AFSA19.jpg,AFNE10.jpg,AFSA11.jpg,AFNE20.jpg,AFSA11.jpg,FS,4,num_2,16,num_2,1.03349200351,,,2017_Jul_20_1719,60.0090654898,MAFE4ImagesEEG,001,200884,
AFNE01.JPG,AFNE01.JPG,AFNE01.JPG,AFNE01.JPG,AFNE01.JPG,AFNE01.JPG,,,,,,,,,,,,,2,5,25,1,,,,,,,,,,,AFNE10.jpg,AFNE09.jpg,AFSA03.jpg,AFSA11.jpg,AFNE10.jpg,FN,3,num_8,16,num_8,0.783492404385,,,2017_Jul_20_1719,60.0090654898,MAFE4ImagesEEG,001,200884,
AFNE01.JPG,AFNE01.JPG,AFNE01.JPG,AFNE01.JPG,AFNE01.JPG,AFNE01.JPG,,,,,,,,,,,,,2,6,26,8,,,,,,,,,,,AFSA10.jpg,AFSA07.jpg,AFNE14.jpg,AFNE18.jpg,AFNE18.jpg,FN,3,num_4,16,num_4,0.466658263293,,,2017_Jul_20_1719,60.0090654898,MAFE4ImagesEEG,001,200884,
AFNE01.JPG,AFNE01.JPG,AFNE01.JPG,AFNE01.JPG,AFNE01.JPG,AFNE01.JPG,,,,,,,,,,,,,2,7,27,4,,,,,,,,,,,AFNE13.jpg,AFSA08.jpg,AFNE01.jpg,AFSA02.jpg,AFNE13.jpg,FN,3,num_8,32,num_4,1.66656723723,,,2017_Jul_20_1719,60.0090654898,MAFE4ImagesEEG,001,200884,
AFNE01.JPG,AFNE01.JPG,AFNE01.JPG,AFNE01.JPG,AFNE01.JPG,AFNE01.JPG,,,,,,,,,,,,,2,8,28,2,,,,,,,,,,,AFSA06.jpg,AFSA16.jpg,AFNE18.jpg,AFNE10.jpg,AFSA06.jpg,FS,4,num_8,32,num_4,0.400127782894,,,2017_Jul_20_1719,60.0090654898,MAFE4ImagesEEG,001,200884,
AFNE01.JPG,AFNE01.JPG,AFNE01.JPG,AFNE01.JPG,AFNE01.JPG,AFNE01.JPG,,,,,,,,,,,,,2,9,29,5,,,,,,,,,,,AFSA20.jpg,AFNE12.jpg,AFNE20.jpg,AFSA03.jpg,AFNE12.jpg,FN,3,num_6,16,num_6,0.616776824871,,,2017_Jul_20_1719,60.0090654898,MAFE4ImagesEEG,001,200884,
AFNE01.JPG,AFNE01.JPG,AFNE01.JPG,AFNE01.JPG,AFNE01.JPG,AFNE01.JPG,,,,,,,,,,,,,3,0,30,3,,,,,,,,,,,AFSA14.jpg,AFSA10.jpg,AFNE13.jpg,AFNE07.jpg,AFNE13.jpg,FN,3,num_2,16,num_2,0.900139169127,,,2017_Jul_20_1719,60.0090654898,MAFE4ImagesEEG,001,200884,
AFNE01.JPG,AFNE01.JPG,AFNE01.JPG,AFNE01.JPG,AFNE01.JPG,AFNE01.JPG,,,,,,,,,,,,,3,1,31,7,,,,,,,,,,,AFSA19.jpg,AFNE14.jpg,AFSA15.jpg,AFNE10.jpg,AFSA15.jpg,FS,4,num_2,16,num_2,1.46670701576,,,2017_Jul_20_1719,60.0090654898,MAFE4ImagesEEG,001,200884,
AFNE01.JPG,AFNE01.JPG,AFNE01.JPG,AFNE01.JPG,AFNE01.JPG,AFNE01.JPG,,,,,,,,,,,,,3,2,32,9,,,,,,,,,,,AFSA13.jpg,AFSA16.jpg,AFNE16.jpg,AFNE04.jpg,AFNE16.jpg,FN,3,num_2,32,num_4,0.70012370951,,,2017_Jul_20_1719,60.0090654898,MAFE4ImagesEEG,001,200884,
AFNE01.JPG,AFNE01.JPG,AFNE01.JPG,AFNE01.JPG,AFNE01.JPG,AFNE01.JPG,,,,,,,,,,,,,3,3,33,8,,,,,,,,,,,AFNE10.jpg,AFSA02.jpg,AFSA06.jpg,AFNE08.jpg,AFSA02.jpg,FS,4,num_6,16,num_6,0.56684785278,,,2017_Jul_20_1719,60.0090654898,MAFE4ImagesEEG,001,200884,
AFNE01.JPG,AFNE01.JPG,AFNE01.JPG,AFNE01.JPG,AFNE01.JPG,AFNE01.JPG,,,,,,,,,,,,,3,4,34,0,,,,,,,,,,,AFNE13.jpg,AFNE11.jpg,AFSA14.jpg,AFSA16.jpg,AFSA16.jpg,FS,4,num_4,32,num_8,0.683337775583,,,2017_Jul_20_1719,60.0090654898,MAFE4ImagesEEG,001,200884,
AFNE01.JPG,AFNE01.JPG,AFNE01.JPG,AFNE01.JPG,AFNE01.JPG,AFNE01.JPG,,,,,,,,,,,,,3,5,35,4,,,,,,,,,,,AFSA04.jpg,AFNE16.jpg,AFSA08.jpg,AFNE05.jpg,AFNE16.jpg,FN,3,num_6,32,num_4,1.01678304718,,,2017_Jul_20_1719,60.0090654898,MAFE4ImagesEEG,001,200884,
AFNE01.JPG,AFNE01.JPG,AFNE01.JPG,AFNE01.JPG,AFNE01.JPG,AFNE01.JPG,,,,,,,,,,,,,3,6,36,6,,,,,,,,,,,AFNE15.jpg,AFSA11.jpg,AFNE10.jpg,AFSA07.jpg,AFSA11.jpg,FS,4,num_6,32,num_4,0.51666709967,,,2017_Jul_20_1719,60.0090654898,MAFE4ImagesEEG,001,200884,
AFNE01.JPG,AFNE01.JPG,AFNE01.JPG,AFNE01.JPG,AFNE01.JPG,AFNE01.JPG,,,,,,,,,,,,,3,7,37,2,,,,,,,,,,,AFNE17.jpg,AFSA02.jpg,AFNE20.jpg,AFSA07.jpg,AFNE20.jpg,FN,3,num_2,32,num_8,1.10009978223,,,2017_Jul_20_1719,60.0090654898,MAFE4ImagesEEG,001,200884,
AFNE01.JPG,AFNE01.JPG,AFNE01.JPG,AFNE01.JPG,AFNE01.JPG,AFNE01.JPG,,,,,,,,,,,,,3,8,38,5,,,,,,,,,,,AFNE09.jpg,AFSA19.jpg,AFSA13.jpg,AFNE11.jpg,AFNE09.jpg,FN,3,num_8,16,num_8,1.35011253168,,,2017_Jul_20_1719,60.0090654898,MAFE4ImagesEEG,001,200884,
AFNE01.JPG,AFNE01.JPG,AFNE01.JPG,AFNE01.JPG,AFNE01.JPG,AFNE01.JPG,,,,,,,,,,,,,3,9,39,1,,,,,,,,,,,AFNE12.jpg,AFNE04.jpg,AFSA11.jpg,AFSA18.jpg,AFSA18.jpg,FS,4,num_4,16,num_4,0.650177417381,,,2017_Jul_20_1719,60.0090654898,MAFE4ImagesEEG,001,200884,
AFNE01.JPG,AFNE01.JPG,AFNE01.JPG,AFNE01.JPG,AFNE01.JPG,AFNE01.JPG,,,,,,,,,,,,,4,0,40,5,,,,,,,,,,,AFNE08.jpg,AFSA18.jpg,AFSA08.jpg,AFNE06.jpg,AFNE06.jpg,FN,3,num_4,32,num_6,0.966782870819,,,2017_Jul_20_1719,60.0090654898,MAFE4ImagesEEG,001,200884,
AFNE01.JPG,AFNE01.JPG,AFNE01.JPG,AFNE01.JPG,AFNE01.JPG,AFNE01.JPG,,,,,,,,,,,,,4,1,41,3,,,,,,,,,,,AFNE20.jpg,AFSA06.jpg,AFSA09.jpg,AFNE07.jpg,AFNE20.jpg,FN,3,num_8,32,num_6,0.76677222224,,,2017_Jul_20_1719,60.0090654898,MAFE4ImagesEEG,001,200884,
AFNE01.JPG,AFNE01.JPG,AFNE01.JPG,AFNE01.JPG,AFNE01.JPG,AFNE01.JPG,,,,,,,,,,,,,4,2,42,6,,,,,,,,,,,AFNE05.jpg,AFSA17.jpg,AFSA04.jpg,AFNE04.jpg,AFNE05.jpg,FN,3,num_8,32,num_4,0.633498610696,,,2017_Jul_20_1719,60.0090654898,MAFE4ImagesEEG,001,200884,
AFNE01.JPG,AFNE01.JPG,AFNE01.JPG,AFNE01.JPG,AFNE01.JPG,AFNE01.JPG,,,,,,,,,,,,,4,3,43,8,,,,,,,,,,,AFNE15.jpg,AFNE13.jpg,AFSA18.jpg,AFSA09.jpg,AFSA18.jpg,FS,4,num_2,32,num_8,0.733477153233,,,2017_Jul_20_1719,60.0090654898,MAFE4ImagesEEG,001,200884,
AFNE01.JPG,AFNE01.JPG,AFNE01.JPG,AFNE01.JPG,AFNE01.JPG,AFNE01.JPG,,,,,,,,,,,,,4,4,44,7,,,,,,,,,,,AFSA18.jpg,AFNE13.jpg,AFNE03.jpg,AFSA19.jpg,AFNE03.jpg,FN,3,num_2,32,num_4,0.816744814976,,,2017_Jul_20_1719,60.0090654898,MAFE4ImagesEEG,001,200884,
AFNE01.JPG,AFNE01.JPG,AFNE01.JPG,AFNE01.JPG,AFNE01.JPG,AFNE01.JPG,,,,,,,,,,,,,4,5,45,9,,,,,,,,,,,AFSA15.jpg,AFNE14.jpg,AFSA01.jpg,AFNE02.jpg,AFNE14.jpg,FN,3,num_6,32,num_4,1.1167481186,,,2017_Jul_20_1719,60.0090654898,MAFE4ImagesEEG,001,200884,
AFNE01.JPG,AFNE01.JPG,AFNE01.JPG,AFNE01.JPG,AFNE01.JPG,AFNE01.JPG,,,,,,,,,,,,,4,6,46,4,,,,,,,,,,,AFSA20.jpg,AFNE05.jpg,AFNE10.jpg,AFSA14.jpg,AFNE05.jpg,FN,3,num_6,32,num_8,0.450229313108,,,2017_Jul_20_1719,60.0090654898,MAFE4ImagesEEG,001,200884,
AFNE01.JPG,AFNE01.JPG,AFNE01.JPG,AFNE01.JPG,AFNE01.JPG,AFNE01.JPG,,,,,,,,,,,,,4,7,47,2,,,,,,,,,,,AFSA03.jpg,AFNE14.jpg,AFSA10.jpg,AFNE09.jpg,AFSA03.jpg,FS,4,num_8,32,num_6,0.550150122377,,,2017_Jul_20_1719,60.0090654898,MAFE4ImagesEEG,001,200884,
AFNE01.JPG,AFNE01.JPG,AFNE01.JPG,AFNE01.JPG,AFNE01.JPG,AFNE01.JPG,,,,,,,,,,,,,4,8,48,1,,,,,,,,,,,AFSA09.jpg,AFNE06.jpg,AFNE17.jpg,AFSA14.jpg,AFSA09.jpg,FS,4,num_8,32,num_4,0.300186125503,,,2017_Jul_20_1719,60.0090654898,MAFE4ImagesEEG,001,200884,
AFNE01.JPG,AFNE01.JPG,AFNE01.JPG,AFNE01.JPG,AFNE01.JPG,AFNE01.JPG,,,,,,,,,,,,,4,9,49,0,,,,,,,,,,,AFNE09.jpg,AFSA06.jpg,AFNE06.jpg,AFSA13.jpg,AFSA06.jpg,FS,4,num_6,32,num_2,0.7334380229,,,2017_Jul_20_1719,60.0090654898,MAFE4ImagesEEG,001,200884,
AFNE01.JPG,AFNE01.JPG,AFNE01.JPG,AFNE01.JPG,AFNE01.JPG,AFNE01.JPG,,,,,,,,,,,,,5,0,50,1,,,,,,,,,,,AFNE08.jpg,AFNE06.jpg,AFSA10.jpg,AFSA03.jpg,AFSA03.jpg,FS,4,num_4,32,num_8,0.483512514795,,,2017_Jul_20_1719,60.0090654898,MAFE4ImagesEEG,001,200884,
AFNE01.JPG,AFNE01.JPG,AFNE01.JPG,AFNE01.JPG,AFNE01.JPG,AFNE01.JPG,,,,,,,,,,,,,5,1,51,6,,,,,,,,,,,AFSA19.jpg,AFNE02.jpg,AFNE03.jpg,AFSA12.jpg,AFNE03.jpg,FN,3,num_2,32,num_4,0.616784522601,,,2017_Jul_20_1719,60.0090654898,MAFE4ImagesEEG,001,200884,
AFNE01.JPG,AFNE01.JPG,AFNE01.JPG,AFNE01.JPG,AFNE01.JPG,AFNE01.JPG,,,,,,,,,,,,,5,2,52,5,,,,,,,,,,,AFNE09.jpg,AFSA08.jpg,AFNE15.jpg,AFSA01.jpg,AFNE15.jpg,FN,3,num_2,16,num_2,1.05013713246,,,2017_Jul_20_1719,60.0090654898,MAFE4ImagesEEG,001,200884,
AFNE01.JPG,AFNE01.JPG,AFNE01.JPG,AFNE01.JPG,AFNE01.JPG,AFNE01.JPG,,,,,,,,,,,,,5,3,53,9,,,,,,,,,,,AFSA13.jpg,AFNE05.jpg,AFSA07.jpg,AFNE14.jpg,AFNE14.jpg,FN,3,num_4,16,num_4,0.550129274314,,,2017_Jul_20_1719,60.0090654898,MAFE4ImagesEEG,001,200884,
AFNE01.JPG,AFNE01.JPG,AFNE01.JPG,AFNE01.JPG,AFNE01.JPG,AFNE01.JPG,,,,,,,,,,,,,5,4,54,8,,,,,,,,,,,AFNE14.jpg,AFSA11.jpg,AFSA03.jpg,AFNE07.jpg,AFSA11.jpg,FS,4,num_6,16,num_6,1.26676372264,,,2017_Jul_20_1719,60.0090654898,MAFE4ImagesEEG,001,200884,
AFNE01.JPG,AFNE01.JPG,AFNE01.JPG,AFNE01.JPG,AFNE01.JPG,AFNE01.JPG,,,,,,,,,,,,,5,5,55,4,,,,,,,,,,,AFSA20.jpg,AFNE15.jpg,AFSA18.jpg,AFNE19.jpg,AFNE15.jpg,FN,3,num_6,32,num_8,1.3000581502,,,2017_Jul_20_1719,60.0090654898,MAFE4ImagesEEG,001,200884,
AFNE01.JPG,AFNE01.JPG,AFNE01.JPG,AFNE01.JPG,AFNE01.JPG,AFNE01.JPG,,,,,,,,,,,,,5,6,56,2,,,,,,,,,,,AFSA07.jpg,AFNE18.jpg,AFSA11.jpg,AFNE07.jpg,AFSA11.jpg,FS,4,num_2,16,num_2,0.550138896506,,,2017_Jul_20_1719,60.0090654898,MAFE4ImagesEEG,001,200884,
AFNE01.JPG,AFNE01.JPG,AFNE01.JPG,AFNE01.JPG,AFNE01.JPG,AFNE01.JPG,,,,,,,,,,,,,5,7,57,3,,,,,,,,,,,AFNE14.jpg,AFSA13.jpg,AFSA19.jpg,AFNE10.jpg,AFSA13.jpg,FS,4,num_6,32,num_8,0.966758173832,,,2017_Jul_20_1719,60.0090654898,MAFE4ImagesEEG,001,200884,
AFNE01.JPG,AFNE01.JPG,AFNE01.JPG,AFNE01.JPG,AFNE01.JPG,AFNE01.JPG,,,,,,,,,,,,,5,8,58,0,,,,,,,,,,,AFSA13.jpg,AFSA09.jpg,AFNE05.jpg,AFNE11.jpg,AFSA09.jpg,FS,4,num_6,16,num_6,0.5501539713,,,2017_Jul_20_1719,60.0090654898,MAFE4ImagesEEG,001,200884,
AFNE01.JPG,AFNE01.JPG,AFNE01.JPG,AFNE01.JPG,AFNE01.JPG,AFNE01.JPG,,,,,,,,,,,,,5,9,59,7,,,,,,,,,,,AFNE06.jpg,AFNE01.jpg,AFSA17.jpg,AFSA03.jpg,AFSA03.jpg,FS,4,num_4,16,num_4,0.733481964329,,,2017_Jul_20_1719,60.0090654898,MAFE4ImagesEEG,001,200884,
