IPosition2,IPosition3,IPosition1,IPosition6,IPosition4,IPosition5,TrialsF1.thisRepN,TrialsF1.thisTrialN,TrialsF1.thisN,TrialsF1.thisIndex,TrialsM1.thisRepN,TrialsM1.thisTrialN,TrialsM1.thisN,TrialsM1.thisIndex,TrialsF2.thisRepN,TrialsF2.thisTrialN,TrialsF2.thisN,TrialsF2.thisIndex,TrialsM2.thisRepN,TrialsM2.thisTrialN,TrialsM2.thisN,TrialsM2.thisIndex,TrialsF3.thisRepN,TrialsF3.thisTrialN,TrialsF3.thisN,TrialsF3.thisIndex,TrialsM3.thisRepN,TrialsM3.thisTrialN,TrialsM3.thisN,TrialsM3.thisIndex,InstrKey_resp.keys,InstrKey_resp.rt,Image0 _Position,Image1 _Position,Image2 _Position,Image3 _Position,Center_image,condition,code,correct_answer,accuracy,Key_Resp.keys,Key_Resp.rt,BreakKey_resp.keys,BreakKey_resp.rt,date,frameRate,expName,session,participant,
,,,,,,,,,,,,,,,,,,,,,,,,,,,,,,space,14.232793465,,,,,,,,,,,,,,2017_Jul_11_1545,60.002540383,FEMA4ImagesEEG,001,200886,
AFSA21.JPG,AFNE23.JPG,AFNE21.JPG,AFSA25.JPG,AFNE25.JPG,AFSA23.JPG,0,0,0,4,,,,,,,,,,,,,,,,,,,,,,,AFSA07.jpg,AFSA14.jpg,AFNE13.jpg,AFNE11.jpg,AFSA07.jpg,FS,4,num_8,32,num_2,1.4501372443,,,2017_Jul_11_1545,60.002540383,FEMA4ImagesEEG,001,200886,
AFNE23.JPG,AFNE24.JPG,AFNE22.JPG,AFSA24.JPG,AFSA22.JPG,AFSA23.JPG,0,1,1,8,,,,,,,,,,,,,,,,,,,,,,,AFNE12.jpg,AFNE16.jpg,AFSA16.jpg,AFSA14.jpg,AFSA16.jpg,FS,4,num_2,16,num_2,0.616775365081,,,2017_Jul_11_1545,60.002540383,FEMA4ImagesEEG,001,200886,
AFSA25.JPG,AFNE24.JPG,AFSA24.JPG,AFNE21.JPG,AFSA21.JPG,AFNE25.JPG,0,2,2,2,,,,,,,,,,,,,,,,,,,,,,,AFNE11.jpg,AFSA06.jpg,AFSA20.jpg,AFNE13.jpg,AFSA06.jpg,FS,4,num_6,16,num_6,1.41675887909,,,2017_Jul_11_1545,60.002540383,FEMA4ImagesEEG,001,200886,
AMNE23.JPG,AMNE24.JPG,AMNE22.JPG,AMSA24.JPG,AMSA22.JPG,AMSA23.JPG,0,3,3,9,,,,,,,,,,,,,,,,,,,,,,,AFSA16.jpg,AFNE01.jpg,AFSA13.jpg,AFNE16.jpg,AFNE01.jpg,FN,3,num_6,16,num_6,0.983455310343,,,2017_Jul_11_1545,60.002540383,FEMA4ImagesEEG,001,200886,
AMNE22.JPG,AMSA24.JPG,AMSA22.JPG,AMNE25.JPG,AMNE24.JPG,AMSA25.JPG,0,4,4,7,,,,,,,,,,,,,,,,,,,,,,,AFSA02.jpg,AFSA09.jpg,AFNE04.jpg,AFNE18.jpg,AFNE18.jpg,FN,3,num_4,16,num_4,0.966815682128,,,2017_Jul_11_1545,60.002540383,FEMA4ImagesEEG,001,200886,
AMSA25.JPG,AMNE24.JPG,AMSA24.JPG,AMNE26.JPG,AMSA21.JPG,AMNE25.JPG,0,5,5,3,,,,,,,,,,,,,,,,,,,,,,,AFNE13.jpg,AFNE15.jpg,AFSA18.jpg,AFSA15.jpg,AFSA15.jpg,FS,4,num_4,16,num_4,1.50004843157,,,2017_Jul_11_1545,60.002540383,FEMA4ImagesEEG,001,200886,
AMSA21.JPG,AMNE23.JPG,AMNE21.JPG,AMSA25.JPG,AMNE25.JPG,AMSA23.JPG,0,6,6,5,,,,,,,,,,,,,,,,,,,,,,,AFNE17.jpg,AFSA11.jpg,AFNE04.jpg,AFSA13.jpg,AFSA11.jpg,FS,4,num_6,16,num_6,0.650235518813,,,2017_Jul_11_1545,60.002540383,FEMA4ImagesEEG,001,200886,
AMSA21.JPG,AMNE22.JPG,AMNE21.JPG,AMSA23.JPG,AMSA22.JPG,AMNE23.JPG,0,7,7,1,,,,,,,,,,,,,,,,,,,,,,,AFSA17.jpg,AFNE18.jpg,AFSA15.jpg,AFNE02.jpg,AFNE02.jpg,FN,3,num_4,16,num_4,0.666717664339,,,2017_Jul_11_1545,60.002540383,FEMA4ImagesEEG,001,200886,
AFNE22.JPG,AFSA24.JPG,AFSA22.JPG,AFNE25.JPG,AFNE24.JPG,AFSA25.JPG,0,8,8,6,,,,,,,,,,,,,,,,,,,,,,,AFNE03.jpg,AFNE20.jpg,AFSA14.jpg,AFSA17.jpg,AFSA17.jpg,FS,4,num_4,16,num_4,1.26677674451,,,2017_Jul_11_1545,60.002540383,FEMA4ImagesEEG,001,200886,
AFSA21.JPG,AFNE22.JPG,AFNE21.JPG,AFSA23.JPG,AFSA22.JPG,AFNE23.JPG,0,9,9,0,,,,,,,,,,,,,,,,,,,,,,,AFNE17.jpg,AFSA10.jpg,AFSA12.jpg,AFNE09.jpg,AFNE17.jpg,FN,3,num_8,32,num_2,1.08344863891,,,2017_Jul_11_1545,60.002540383,FEMA4ImagesEEG,001,200886,
AMSA25.JPG,AMNE24.JPG,AMSA24.JPG,AMNE26.JPG,AMSA21.JPG,AMNE25.JPG,,,,,0,0,0,3,,,,,,,,,,,,,,,,,,,AMNE19.jpg,AMSA02.jpg,AMNE14.jpg,AMSA06.jpg,AMNE14.jpg,MN,1,num_2,16,num_2,0.683463136433,,,2017_Jul_11_1545,60.002540383,FEMA4ImagesEEG,001,200886,
AMSA21.JPG,AMNE22.JPG,AMNE21.JPG,AMSA23.JPG,AMSA22.JPG,AMNE23.JPG,,,,,0,1,1,1,,,,,,,,,,,,,,,,,,,AMNE02.jpg,AMSA04.jpg,AMNE14.jpg,AMSA17.jpg,AMSA17.jpg,MS,2,num_4,16,num_4,1.76670072926,,,2017_Jul_11_1545,60.002540383,FEMA4ImagesEEG,001,200886,
AFNE22.JPG,AFSA24.JPG,AFSA22.JPG,AFNE25.JPG,AFNE24.JPG,AFSA25.JPG,,,,,0,2,2,6,,,,,,,,,,,,,,,,,,,AMNE07.jpg,AMNE02.jpg,AMSA20.jpg,AMSA18.jpg,AMNE02.jpg,MN,1,num_6,16,num_6,1.03346336097,,,2017_Jul_11_1545,60.002540383,FEMA4ImagesEEG,001,200886,
AFSA25.JPG,AFNE24.JPG,AFSA24.JPG,AFNE21.JPG,AFSA21.JPG,AFNE25.JPG,,,,,0,3,3,2,,,,,,,,,,,,,,,,,,,AMNE01.jpg,AMNE16.jpg,AMSA14.jpg,AMSA19.jpg,AMSA19.jpg,MS,2,num_4,32,num_6,1.05011100788,,,2017_Jul_11_1545,60.002540383,FEMA4ImagesEEG,001,200886,
AMNE23.JPG,AMNE24.JPG,AMNE22.JPG,AMSA24.JPG,AMSA22.JPG,AMSA23.JPG,,,,,0,4,4,9,,,,,,,,,,,,,,,,,,,AMSA13.jpg,AMNE07.jpg,AMSA14.jpg,AMNE14.jpg,AMNE14.jpg,MN,1,num_4,32,num_2,0.883479943266,,,2017_Jul_11_1545,60.002540383,FEMA4ImagesEEG,001,200886,
AMNE22.JPG,AMSA24.JPG,AMSA22.JPG,AMNE25.JPG,AMNE24.JPG,AMSA25.JPG,,,,,0,5,5,7,,,,,,,,,,,,,,,,,,,AMNE10.jpg,AMNE09.jpg,AMSA09.jpg,AMSA02.jpg,AMNE09.jpg,MN,1,num_6,32,num_2,1.20006331382,,,2017_Jul_11_1545,60.002540383,FEMA4ImagesEEG,001,200886,
AFSA21.JPG,AFNE22.JPG,AFNE21.JPG,AFSA23.JPG,AFSA22.JPG,AFNE23.JPG,,,,,0,6,6,0,,,,,,,,,,,,,,,,,,,AMNE13.jpg,AMNE09.jpg,AMSA19.jpg,AMSA15.jpg,AMNE09.jpg,MN,1,num_6,16,num_6,0.966726516606,,,2017_Jul_11_1545,60.002540383,FEMA4ImagesEEG,001,200886,
AFSA21.JPG,AFNE23.JPG,AFNE21.JPG,AFSA25.JPG,AFNE25.JPG,AFSA23.JPG,,,,,0,7,7,4,,,,,,,,,,,,,,,,,,,AMNE12.jpg,AMSA01.jpg,AMSA20.jpg,AMNE11.jpg,AMSA20.jpg,MS,2,num_2,16,num_2,0.816788322991,,,2017_Jul_11_1545,60.002540383,FEMA4ImagesEEG,001,200886,
AMSA21.JPG,AMNE23.JPG,AMNE21.JPG,AMSA25.JPG,AMNE25.JPG,AMSA23.JPG,,,,,0,8,8,5,,,,,,,,,,,,,,,,,,,AMNE07.jpg,AMSA06.jpg,AMSA01.jpg,AMNE03.jpg,AMSA06.jpg,MS,2,num_6,16,num_6,1.13342878525,,,2017_Jul_11_1545,60.002540383,FEMA4ImagesEEG,001,200886,
AFNE23.JPG,AFNE24.JPG,AFNE22.JPG,AFSA24.JPG,AFSA22.JPG,AFSA23.JPG,,,,,0,9,9,8,,,,,,,,,,,,,,,,,,,AMNE17.jpg,AMSA16.jpg,AMSA08.jpg,AMNE15.jpg,AMSA08.jpg,MS,2,num_2,16,num_2,0.683458646061,,,2017_Jul_11_1545,60.002540383,FEMA4ImagesEEG,001,200886,
AMSA21.JPG,AMNE23.JPG,AMNE21.JPG,AMSA25.JPG,AMNE25.JPG,AMSA23.JPG,,,,,,,,,0,0,0,5,,,,,,,,,,,,,,,AFSA15.jpg,AFSA07.jpg,AFNE11.jpg,AFNE19.jpg,AFSA07.jpg,FS,4,num_6,16,num_6,0.66688605235,,,2017_Jul_11_1545,60.002540383,FEMA4ImagesEEG,001,200886,
AMSA21.JPG,AMNE22.JPG,AMNE21.JPG,AMSA23.JPG,AMSA22.JPG,AMNE23.JPG,,,,,,,,,0,1,1,1,,,,,,,,,,,,,,,AFNE14.jpg,AFNE19.jpg,AFSA14.jpg,AFSA08.jpg,AFSA08.jpg,FS,4,num_4,16,num_4,0.633544251323,,,2017_Jul_11_1545,60.002540383,FEMA4ImagesEEG,001,200886,
AFNE22.JPG,AFSA24.JPG,AFSA22.JPG,AFNE25.JPG,AFNE24.JPG,AFSA25.JPG,,,,,,,,,0,2,2,6,,,,,,,,,,,,,,,AFNE13.jpg,AFNE02.jpg,AFSA19.jpg,AFSA08.jpg,AFNE02.jpg,FN,3,num_6,32,num_8,1.60006966465,,,2017_Jul_11_1545,60.002540383,FEMA4ImagesEEG,001,200886,
AFSA21.JPG,AFNE23.JPG,AFNE21.JPG,AFSA25.JPG,AFNE25.JPG,AFSA23.JPG,,,,,,,,,0,3,3,4,,,,,,,,,,,,,,,AFNE16.jpg,AFNE19.jpg,AFSA08.jpg,AFSA07.jpg,AFSA07.jpg,FS,4,num_4,32,num_2,1.26677546138,,,2017_Jul_11_1545,60.002540383,FEMA4ImagesEEG,001,200886,
AMNE23.JPG,AMNE24.JPG,AMNE22.JPG,AMSA24.JPG,AMSA22.JPG,AMSA23.JPG,,,,,,,,,0,4,4,9,,,,,,,,,,,,,,,AFNE08.jpg,AFNE20.jpg,AFSA18.jpg,AFSA17.jpg,AFNE08.jpg,FN,3,num_8,16,num_8,0.91676336946,,,2017_Jul_11_1545,60.002540383,FEMA4ImagesEEG,001,200886,
AFSA25.JPG,AFNE24.JPG,AFSA24.JPG,AFNE21.JPG,AFSA21.JPG,AFNE25.JPG,,,,,,,,,0,5,5,2,,,,,,,,,,,,,,,AFSA20.jpg,AFNE06.jpg,AFNE07.jpg,AFSA06.jpg,AFSA06.jpg,FS,4,num_4,32,num_6,0.966636388795,,,2017_Jul_11_1545,60.002540383,FEMA4ImagesEEG,001,200886,
AMNE22.JPG,AMSA24.JPG,AMSA22.JPG,AMNE25.JPG,AMNE24.JPG,AMSA25.JPG,,,,,,,,,0,6,6,7,,,,,,,,,,,,,,,AFSA06.jpg,AFNE20.jpg,AFNE07.jpg,AFSA18.jpg,AFSA18.jpg,FS,4,num_4,16,num_4,0.666649667546,,,2017_Jul_11_1545,60.002540383,FEMA4ImagesEEG,001,200886,
AFSA21.JPG,AFNE22.JPG,AFNE21.JPG,AFSA23.JPG,AFSA22.JPG,AFNE23.JPG,,,,,,,,,0,7,7,0,,,,,,,,,,,,,,,AFSA15.jpg,AFNE17.jpg,AFNE14.jpg,AFSA14.jpg,AFSA15.jpg,FS,4,num_8,32,num_4,0.983449857915,,,2017_Jul_11_1545,60.002540383,FEMA4ImagesEEG,001,200886,
AMSA25.JPG,AMNE24.JPG,AMSA24.JPG,AMNE26.JPG,AMSA21.JPG,AMNE25.JPG,,,,,,,,,0,8,8,3,,,,,,,,,,,,,,,AFSA19.jpg,AFSA11.jpg,AFNE01.jpg,AFNE19.jpg,AFSA11.jpg,FS,4,num_6,16,num_6,0.983449857915,,,2017_Jul_11_1545,60.002540383,FEMA4ImagesEEG,001,200886,
AFNE23.JPG,AFNE24.JPG,AFNE22.JPG,AFSA24.JPG,AFSA22.JPG,AFSA23.JPG,,,,,,,,,0,9,9,8,,,,,,,,,,,,,,,AFSA04.jpg,AFNE12.jpg,AFNE01.jpg,AFSA17.jpg,AFNE12.jpg,FN,3,num_6,16,num_6,0.583450884325,,,2017_Jul_11_1545,60.002540383,FEMA4ImagesEEG,001,200886,
AMNE22.JPG,AMSA24.JPG,AMSA22.JPG,AMNE25.JPG,AMNE24.JPG,AMSA25.JPG,,,,,,,,,,,,,0,0,0,7,,,,,,,,,,,AMSA07.jpg,AMSA12.jpg,AMNE05.jpg,AMNE19.jpg,AMSA12.jpg,MS,2,num_6,32,num_4,1.85007591895,,,2017_Jul_11_1545,60.002540383,FEMA4ImagesEEG,001,200886,
AMSA25.JPG,AMNE24.JPG,AMSA24.JPG,AMNE26.JPG,AMSA21.JPG,AMNE25.JPG,,,,,,,,,,,,,0,1,1,3,,,,,,,,,,,AMSA12.jpg,AMNE08.jpg,AMSA09.jpg,AMNE17.jpg,AMNE17.jpg,MN,1,num_4,16,num_4,1.06676795613,,,2017_Jul_11_1545,60.002540383,FEMA4ImagesEEG,001,200886,
AFNE22.JPG,AFSA24.JPG,AFSA22.JPG,AFNE25.JPG,AFNE24.JPG,AFSA25.JPG,,,,,,,,,,,,,0,2,2,6,,,,,,,,,,,AMSA18.jpg,AMNE17.jpg,AMSA03.jpg,AMNE09.jpg,AMSA18.jpg,MS,2,num_8,16,num_8,0.700150875608,,,2017_Jul_11_1545,60.002540383,FEMA4ImagesEEG,001,200886,
AMNE23.JPG,AMNE24.JPG,AMNE22.JPG,AMSA24.JPG,AMSA22.JPG,AMSA23.JPG,,,,,,,,,,,,,0,3,3,9,,,,,,,,,,,AMSA09.jpg,AMNE13.jpg,AMNE08.jpg,AMSA08.jpg,AMSA09.jpg,MS,2,num_8,32,num_6,1.03346528532,,,2017_Jul_11_1545,60.002540383,FEMA4ImagesEEG,001,200886,
AMSA21.JPG,AMNE22.JPG,AMNE21.JPG,AMSA23.JPG,AMSA22.JPG,AMNE23.JPG,,,,,,,,,,,,,0,4,4,1,,,,,,,,,,,AMSA07.jpg,AMSA09.jpg,AMNE07.jpg,AMNE08.jpg,AMSA09.jpg,MS,2,num_6,32,num_8,1.15012999554,,,2017_Jul_11_1545,60.002540383,FEMA4ImagesEEG,001,200886,
AFSA25.JPG,AFNE24.JPG,AFSA24.JPG,AFNE21.JPG,AFSA21.JPG,AFNE25.JPG,,,,,,,,,,,,,0,5,5,2,,,,,,,,,,,AMNE19.jpg,AMNE01.jpg,AMSA09.jpg,AMSA01.jpg,AMSA09.jpg,MS,2,num_2,16,num_2,0.883512017084,,,2017_Jul_11_1545,60.002540383,FEMA4ImagesEEG,001,200886,
AFSA21.JPG,AFNE22.JPG,AFNE21.JPG,AFSA23.JPG,AFSA22.JPG,AFNE23.JPG,,,,,,,,,,,,,0,6,6,0,,,,,,,,,,,AMSA14.jpg,AMNE01.jpg,AMNE13.jpg,AMSA15.jpg,AMSA14.jpg,MS,2,num_8,32,num_2,1.4834107277,,,2017_Jul_11_1545,60.002540383,FEMA4ImagesEEG,001,200886,
AMSA21.JPG,AMNE23.JPG,AMNE21.JPG,AMSA25.JPG,AMNE25.JPG,AMSA23.JPG,,,,,,,,,,,,,0,7,7,5,,,,,,,,,,,AMNE18.jpg,AMSA05.jpg,AMSA15.jpg,AMNE01.jpg,AMNE01.jpg,MN,1,num_4,16,num_4,0.950091378763,,,2017_Jul_11_1545,60.002540383,FEMA4ImagesEEG,001,200886,
AFSA21.JPG,AFNE23.JPG,AFNE21.JPG,AFSA25.JPG,AFNE25.JPG,AFSA23.JPG,,,,,,,,,,,,,0,8,8,4,,,,,,,,,,,AMNE12.jpg,AMSA20.jpg,AMNE04.jpg,AMSA11.jpg,AMSA20.jpg,MS,2,num_6,16,num_6,0.833440780872,,,2017_Jul_11_1545,60.002540383,FEMA4ImagesEEG,001,200886,
AFNE23.JPG,AFNE24.JPG,AFNE22.JPG,AFSA24.JPG,AFSA22.JPG,AFSA23.JPG,,,,,,,,,,,,,0,9,9,8,,,,,,,,,,,AMNE14.jpg,AMSA14.jpg,AMNE15.jpg,AMSA16.jpg,AMSA16.jpg,MS,2,num_4,16,num_4,1.50008050539,,,2017_Jul_11_1545,60.002540383,FEMA4ImagesEEG,001,200886,
AMNE23.JPG,AMNE24.JPG,AMNE22.JPG,AMSA24.JPG,AMSA22.JPG,AMSA23.JPG,,,,,,,,,,,,,,,,,0,0,0,9,,,,,,,AFNE13.jpg,AFSA19.jpg,AFNE04.jpg,AFSA10.jpg,AFNE04.jpg,FN,3,num_2,16,num_2,0.716780561255,,,2017_Jul_11_1545,60.002540383,FEMA4ImagesEEG,001,200886,
AMSA21.JPG,AMNE23.JPG,AMNE21.JPG,AMSA25.JPG,AMNE25.JPG,AMSA23.JPG,,,,,,,,,,,,,,,,,0,1,1,5,,,,,,,AFNE20.jpg,AFSA02.jpg,AFNE02.jpg,AFSA03.jpg,AFNE02.jpg,FN,3,num_2,32,num_6,0.966776231071,,,2017_Jul_11_1545,60.002540383,FEMA4ImagesEEG,001,200886,
AMSA21.JPG,AMNE22.JPG,AMNE21.JPG,AMSA23.JPG,AMSA22.JPG,AMNE23.JPG,,,,,,,,,,,,,,,,,0,2,2,1,,,,,,,AFSA03.jpg,AFNE14.jpg,AFSA06.jpg,AFNE02.jpg,AFNE02.jpg,FN,3,num_4,16,num_4,0.616803269368,,,2017_Jul_11_1545,60.002540383,FEMA4ImagesEEG,001,200886,
AFSA25.JPG,AFNE24.JPG,AFSA24.JPG,AFNE21.JPG,AFSA21.JPG,AFNE25.JPG,,,,,,,,,,,,,,,,,0,3,3,2,,,,,,,AFSA02.jpg,AFSA13.jpg,AFNE11.jpg,AFNE14.jpg,AFSA02.jpg,FS,4,num_8,16,num_8,1.41673033359,,,2017_Jul_11_1545,60.002540383,FEMA4ImagesEEG,001,200886,
AFNE23.JPG,AFNE24.JPG,AFNE22.JPG,AFSA24.JPG,AFSA22.JPG,AFSA23.JPG,,,,,,,,,,,,,,,,,0,4,4,8,,,,,,,AFSA05.jpg,AFNE12.jpg,AFNE03.jpg,AFSA15.jpg,AFNE03.jpg,FN,3,num_2,16,num_2,1.20007421891,,,2017_Jul_11_1545,60.002540383,FEMA4ImagesEEG,001,200886,
AFNE22.JPG,AFSA24.JPG,AFSA22.JPG,AFNE25.JPG,AFNE24.JPG,AFSA25.JPG,,,,,,,,,,,,,,,,,0,5,5,6,,,,,,,AFNE13.jpg,AFSA13.jpg,AFSA02.jpg,AFNE18.jpg,AFNE18.jpg,FN,3,num_4,32,num_8,1.10012675612,,,2017_Jul_11_1545,60.002540383,FEMA4ImagesEEG,001,200886,
AFSA21.JPG,AFNE22.JPG,AFNE21.JPG,AFSA23.JPG,AFSA22.JPG,AFNE23.JPG,,,,,,,,,,,,,,,,,0,6,6,0,,,,,,,AFNE08.jpg,AFNE10.jpg,AFSA07.jpg,AFSA03.jpg,AFNE10.jpg,FN,3,num_6,32,num_2,1.80005792552,,,2017_Jul_11_1545,60.002540383,FEMA4ImagesEEG,001,200886,
AMSA25.JPG,AMNE24.JPG,AMSA24.JPG,AMNE26.JPG,AMSA21.JPG,AMNE25.JPG,,,,,,,,,,,,,,,,,0,7,7,3,,,,,,,AFNE04.jpg,AFSA06.jpg,AFNE06.jpg,AFSA09.jpg,AFNE06.jpg,FN,3,num_2,16,num_2,0.766757179284,,,2017_Jul_11_1545,60.002540383,FEMA4ImagesEEG,001,200886,
AFSA21.JPG,AFNE23.JPG,AFNE21.JPG,AFSA25.JPG,AFNE25.JPG,AFSA23.JPG,,,,,,,,,,,,,,,,,0,8,8,4,,,,,,,AFSA07.jpg,AFSA04.jpg,AFNE09.jpg,AFNE12.jpg,AFNE12.jpg,FN,3,num_4,32,num_2,1.26662278944,,,2017_Jul_11_1545,60.002540383,FEMA4ImagesEEG,001,200886,
AMNE22.JPG,AMSA24.JPG,AMSA22.JPG,AMNE25.JPG,AMNE24.JPG,AMSA25.JPG,,,,,,,,,,,,,,,,,0,9,9,7,,,,,,,AFSA12.jpg,AFNE01.jpg,AFNE10.jpg,AFSA18.jpg,AFSA18.jpg,FS,4,num_4,32,num_8,1.33338336856,,,2017_Jul_11_1545,60.002540383,FEMA4ImagesEEG,001,200886,
AFNE23.JPG,AFNE24.JPG,AFNE22.JPG,AFSA24.JPG,AFSA22.JPG,AFSA23.JPG,,,,,,,,,,,,,,,,,,,,,0,0,0,8,,,AMNE20.jpg,AMNE19.jpg,AMSA01.jpg,AMSA03.jpg,AMNE19.jpg,MN,1,num_6,32,num_4,0.81668183743,,,2017_Jul_11_1545,60.002540383,FEMA4ImagesEEG,001,200886,
AFSA21.JPG,AFNE23.JPG,AFNE21.JPG,AFSA25.JPG,AFNE25.JPG,AFSA23.JPG,,,,,,,,,,,,,,,,,,,,,0,1,1,4,,,AMSA12.jpg,AMNE17.jpg,AMNE16.jpg,AMSA08.jpg,AMSA12.jpg,MS,2,num_8,16,num_8,1.1155155017,,,2017_Jul_11_1545,60.002540383,FEMA4ImagesEEG,001,200886,
AMNE23.JPG,AMNE24.JPG,AMNE22.JPG,AMSA24.JPG,AMSA22.JPG,AMSA23.JPG,,,,,,,,,,,,,,,,,,,,,0,2,2,9,,,AMSA08.jpg,AMNE07.jpg,AMSA20.jpg,AMNE16.jpg,AMSA20.jpg,MS,2,num_2,16,num_2,1.48343061353,,,2017_Jul_11_1545,60.002540383,FEMA4ImagesEEG,001,200886,
AMSA25.JPG,AMNE24.JPG,AMSA24.JPG,AMNE26.JPG,AMSA21.JPG,AMNE25.JPG,,,,,,,,,,,,,,,,,,,,,0,3,3,3,,,AMSA14.jpg,AMSA11.jpg,AMNE04.jpg,AMNE15.jpg,AMNE04.jpg,MN,1,num_2,16,num_2,0.866820749827,,,2017_Jul_11_1545,60.002540383,FEMA4ImagesEEG,001,200886,
AMSA21.JPG,AMNE23.JPG,AMNE21.JPG,AMSA25.JPG,AMNE25.JPG,AMSA23.JPG,,,,,,,,,,,,,,,,,,,,,0,4,4,5,,,AMNE14.jpg,AMSA11.jpg,AMNE11.jpg,AMSA20.jpg,AMSA11.jpg,MS,2,num_6,32,num_8,1.63341852161,,,2017_Jul_11_1545,60.002540383,FEMA4ImagesEEG,001,200886,
AFSA25.JPG,AFNE24.JPG,AFSA24.JPG,AFNE21.JPG,AFSA21.JPG,AFNE25.JPG,,,,,,,,,,,,,,,,,,,,,0,5,5,2,,,AMNE11.jpg,AMNE02.jpg,AMSA16.jpg,AMSA07.jpg,AMNE11.jpg,MN,1,num_8,32,num_4,0.783440748928,,,2017_Jul_11_1545,60.002540383,FEMA4ImagesEEG,001,200886,
AFNE22.JPG,AFSA24.JPG,AFSA22.JPG,AFNE25.JPG,AFNE24.JPG,AFSA25.JPG,,,,,,,,,,,,,,,,,,,,,0,6,6,6,,,AMSA18.jpg,AMNE19.jpg,AMSA02.jpg,AMNE14.jpg,AMSA02.jpg,MS,2,num_2,32,num_8,1.58323406451,,,2017_Jul_11_1545,60.002540383,FEMA4ImagesEEG,001,200886,
AFSA21.JPG,AFNE22.JPG,AFNE21.JPG,AFSA23.JPG,AFSA22.JPG,AFNE23.JPG,,,,,,,,,,,,,,,,,,,,,0,7,7,0,,,AMNE03.jpg,AMSA12.jpg,AMSA06.jpg,AMNE05.jpg,AMNE05.jpg,MN,1,num_4,32,num_8,1.56671343045,,,2017_Jul_11_1545,60.002540383,FEMA4ImagesEEG,001,200886,
AMSA21.JPG,AMNE22.JPG,AMNE21.JPG,AMSA23.JPG,AMSA22.JPG,AMNE23.JPG,,,,,,,,,,,,,,,,,,,,,0,8,8,1,,,AMNE09.jpg,AMSA01.jpg,AMNE03.jpg,AMSA14.jpg,AMNE03.jpg,MN,1,num_2,16,num_2,1.06673812727,,,2017_Jul_11_1545,60.002540383,FEMA4ImagesEEG,001,200886,
AMNE22.JPG,AMSA24.JPG,AMSA22.JPG,AMNE25.JPG,AMNE24.JPG,AMSA25.JPG,,,,,,,,,,,,,,,,,,,,,0,9,9,7,,,AMNE15.jpg,AMSA18.jpg,AMNE06.jpg,AMSA06.jpg,AMSA06.jpg,MS,2,num_4,32,num_8,1.00012059789,,,2017_Jul_11_1545,60.002540383,FEMA4ImagesEEG,001,200886,
,,,,,,,,,,,,,,,,,,,,,,,,,,,,,,,,,,,,,,,,,,,space,5.69991096272,2017_Jul_11_1545,60.002540383,FEMA4ImagesEEG,001,200886,
AFNE01.JPG,AFNE01.JPG,AFNE01.JPG,AFNE01.JPG,AFNE01.JPG,AFNE01.JPG,0,0,0,5,,,,,,,,,,,,,,,,,,,,,,,AFSA04.jpg,AFNE18.jpg,AFNE16.jpg,AFSA09.jpg,AFNE18.jpg,FN,3,num_6,32,num_8,1.80005535949,,,2017_Jul_11_1545,60.002540383,FEMA4ImagesEEG,001,200886,
AFNE01.JPG,AFNE01.JPG,AFNE01.JPG,AFNE01.JPG,AFNE01.JPG,AFNE01.JPG,0,1,1,1,,,,,,,,,,,,,,,,,,,,,,,AFNE12.jpg,AFNE09.jpg,AFSA14.jpg,AFSA04.jpg,AFNE12.jpg,FN,3,num_8,16,num_8,1.2503253899,,,2017_Jul_11_1545,60.002540383,FEMA4ImagesEEG,001,200886,
AFNE01.JPG,AFNE01.JPG,AFNE01.JPG,AFNE01.JPG,AFNE01.JPG,AFNE01.JPG,0,2,2,6,,,,,,,,,,,,,,,,,,,,,,,AFNE09.jpg,AFSA15.jpg,AFSA10.jpg,AFNE10.jpg,AFNE10.jpg,FN,3,num_4,32,num_2,0.866952252807,,,2017_Jul_11_1545,60.002540383,FEMA4ImagesEEG,001,200886,
AFNE01.JPG,AFNE01.JPG,AFNE01.JPG,AFNE01.JPG,AFNE01.JPG,AFNE01.JPG,0,3,3,8,,,,,,,,,,,,,,,,,,,,,,,AFNE06.jpg,AFNE17.jpg,AFSA03.jpg,AFSA04.jpg,AFNE06.jpg,FN,3,num_8,32,num_2,0.966763722477,,,2017_Jul_11_1545,60.002540383,FEMA4ImagesEEG,001,200886,
AFNE01.JPG,AFNE01.JPG,AFNE01.JPG,AFNE01.JPG,AFNE01.JPG,AFNE01.JPG,0,4,4,7,,,,,,,,,,,,,,,,,,,,,,,AFSA01.jpg,AFNE01.jpg,AFSA08.jpg,AFNE06.jpg,AFSA08.jpg,FS,4,num_2,32,num_6,1.23346541356,,,2017_Jul_11_1545,60.002540383,FEMA4ImagesEEG,001,200886,
AFNE01.JPG,AFNE01.JPG,AFNE01.JPG,AFNE01.JPG,AFNE01.JPG,AFNE01.JPG,0,5,5,4,,,,,,,,,,,,,,,,,,,,,,,AFNE09.jpg,AFNE05.jpg,AFSA11.jpg,AFSA20.jpg,AFNE09.jpg,FN,3,num_8,16,num_8,0.733475035988,,,2017_Jul_11_1545,60.002540383,FEMA4ImagesEEG,001,200886,
AFNE01.JPG,AFNE01.JPG,AFNE01.JPG,AFNE01.JPG,AFNE01.JPG,AFNE01.JPG,0,6,6,0,,,,,,,,,,,,,,,,,,,,,,,AFSA02.jpg,AFSA06.jpg,AFNE11.jpg,AFNE13.jpg,AFNE13.jpg,FN,3,num_4,32,num_6,0.966780400835,,,2017_Jul_11_1545,60.002540383,FEMA4ImagesEEG,001,200886,
AFNE01.JPG,AFNE01.JPG,AFNE01.JPG,AFNE01.JPG,AFNE01.JPG,AFNE01.JPG,0,7,7,2,,,,,,,,,,,,,,,,,,,,,,,AFSA01.jpg,AFSA10.jpg,AFNE12.jpg,AFNE10.jpg,AFSA10.jpg,FS,4,num_6,16,num_6,0.916857025353,,,2017_Jul_11_1545,60.002540383,FEMA4ImagesEEG,001,200886,
AFNE01.JPG,AFNE01.JPG,AFNE01.JPG,AFNE01.JPG,AFNE01.JPG,AFNE01.JPG,0,8,8,3,,,,,,,,,,,,,,,,,,,,,,,AFSA19.jpg,AFSA02.jpg,AFNE13.jpg,AFNE11.jpg,AFNE11.jpg,FN,3,num_4,16,num_4,0.816613841103,,,2017_Jul_11_1545,60.002540383,FEMA4ImagesEEG,001,200886,
AFNE01.JPG,AFNE01.JPG,AFNE01.JPG,AFNE01.JPG,AFNE01.JPG,AFNE01.JPG,0,9,9,9,,,,,,,,,,,,,,,,,,,,,,,AFSA14.jpg,AFNE14.jpg,AFNE17.jpg,AFSA13.jpg,AFSA13.jpg,FS,4,num_4,32,num_6,1.46676757117,,,2017_Jul_11_1545,60.002540383,FEMA4ImagesEEG,001,200886,
AFNE01.JPG,AFNE01.JPG,AFNE01.JPG,AFNE01.JPG,AFNE01.JPG,AFNE01.JPG,1,0,10,3,,,,,,,,,,,,,,,,,,,,,,,AFNE11.jpg,AFNE15.jpg,AFSA03.jpg,AFSA17.jpg,AFSA17.jpg,FS,4,num_4,16,num_4,0.700035088928,,,2017_Jul_11_1545,60.002540383,FEMA4ImagesEEG,001,200886,
AFNE01.JPG,AFNE01.JPG,AFNE01.JPG,AFNE01.JPG,AFNE01.JPG,AFNE01.JPG,1,1,11,9,,,,,,,,,,,,,,,,,,,,,,,AFNE04.jpg,AFSA09.jpg,AFSA08.jpg,AFNE10.jpg,AFSA09.jpg,FS,4,num_6,16,num_6,0.616802628152,,,2017_Jul_11_1545,60.002540383,FEMA4ImagesEEG,001,200886,
AFNE01.JPG,AFNE01.JPG,AFNE01.JPG,AFNE01.JPG,AFNE01.JPG,AFNE01.JPG,1,2,12,5,,,,,,,,,,,,,,,,,,,,,,,AFSA09.jpg,AFNE18.jpg,AFSA13.jpg,AFNE12.jpg,AFNE18.jpg,FN,3,num_6,16,num_6,0.616823796649,,,2017_Jul_11_1545,60.002540383,FEMA4ImagesEEG,001,200886,
AFNE01.JPG,AFNE01.JPG,AFNE01.JPG,AFNE01.JPG,AFNE01.JPG,AFNE01.JPG,1,3,13,6,,,,,,,,,,,,,,,,,,,,,,,AFNE03.jpg,AFSA01.jpg,AFNE08.jpg,AFSA05.jpg,AFSA05.jpg,FS,4,num_4,16,num_4,0.883460057434,,,2017_Jul_11_1545,60.002540383,FEMA4ImagesEEG,001,200886,
AFNE01.JPG,AFNE01.JPG,AFNE01.JPG,AFNE01.JPG,AFNE01.JPG,AFNE01.JPG,1,4,14,7,,,,,,,,,,,,,,,,,,,,,,,AFNE12.jpg,AFSA03.jpg,AFNE17.jpg,AFSA07.jpg,AFSA07.jpg,FS,4,num_4,32,num_6,1.21673726127,,,2017_Jul_11_1545,60.002540383,FEMA4ImagesEEG,001,200886,
AFNE01.JPG,AFNE01.JPG,AFNE01.JPG,AFNE01.JPG,AFNE01.JPG,AFNE01.JPG,1,5,15,1,,,,,,,,,,,,,,,,,,,,,,,AFNE07.jpg,AFSA07.jpg,AFNE04.jpg,AFSA14.jpg,AFSA07.jpg,FS,4,num_6,32,num_8,0.833488891833,,,2017_Jul_11_1545,60.002540383,FEMA4ImagesEEG,001,200886,
AFNE01.JPG,AFNE01.JPG,AFNE01.JPG,AFNE01.JPG,AFNE01.JPG,AFNE01.JPG,1,6,16,0,,,,,,,,,,,,,,,,,,,,,,,AFNE18.jpg,AFNE04.jpg,AFSA07.jpg,AFSA12.jpg,AFSA07.jpg,FS,4,num_2,16,num_2,0.666662176372,,,2017_Jul_11_1545,60.002540383,FEMA4ImagesEEG,001,200886,
AFNE01.JPG,AFNE01.JPG,AFNE01.JPG,AFNE01.JPG,AFNE01.JPG,AFNE01.JPG,1,7,17,8,,,,,,,,,,,,,,,,,,,,,,,AFNE18.jpg,AFSA03.jpg,AFNE15.jpg,AFSA06.jpg,AFNE15.jpg,FN,3,num_2,32,num_8,0.983516892185,,,2017_Jul_11_1545,60.002540383,FEMA4ImagesEEG,001,200886,
AFNE01.JPG,AFNE01.JPG,AFNE01.JPG,AFNE01.JPG,AFNE01.JPG,AFNE01.JPG,1,8,18,2,,,,,,,,,,,,,,,,,,,,,,,AFSA15.jpg,AFNE14.jpg,AFSA18.jpg,AFNE10.jpg,AFSA18.jpg,FS,4,num_2,32,num_4,0.916727446718,,,2017_Jul_11_1545,60.002540383,FEMA4ImagesEEG,001,200886,
AFNE01.JPG,AFNE01.JPG,AFNE01.JPG,AFNE01.JPG,AFNE01.JPG,AFNE01.JPG,1,9,19,4,,,,,,,,,,,,,,,,,,,,,,,AFSA19.jpg,AFSA06.jpg,AFNE05.jpg,AFNE19.jpg,AFSA06.jpg,FS,4,num_6,16,num_6,1.06677629519,,,2017_Jul_11_1545,60.002540383,FEMA4ImagesEEG,001,200886,
AFNE01.JPG,AFNE01.JPG,AFNE01.JPG,AFNE01.JPG,AFNE01.JPG,AFNE01.JPG,2,0,20,9,,,,,,,,,,,,,,,,,,,,,,,AFSA12.jpg,AFSA01.jpg,AFNE01.jpg,AFNE06.jpg,AFSA01.jpg,FS,4,num_6,16,num_6,1.10007126816,,,2017_Jul_11_1545,60.002540383,FEMA4ImagesEEG,001,200886,
AFNE01.JPG,AFNE01.JPG,AFNE01.JPG,AFNE01.JPG,AFNE01.JPG,AFNE01.JPG,2,1,21,6,,,,,,,,,,,,,,,,,,,,,,,AFNE14.jpg,AFSA14.jpg,AFSA19.jpg,AFNE20.jpg,AFSA14.jpg,FS,4,num_6,32,num_4,1.00017704815,,,2017_Jul_11_1545,60.002540383,FEMA4ImagesEEG,001,200886,
AFNE01.JPG,AFNE01.JPG,AFNE01.JPG,AFNE01.JPG,AFNE01.JPG,AFNE01.JPG,2,2,22,2,,,,,,,,,,,,,,,,,,,,,,,AFNE04.jpg,AFNE19.jpg,AFSA12.jpg,AFSA14.jpg,AFNE19.jpg,FN,3,num_6,16,num_6,0.666847884189,,,2017_Jul_11_1545,60.002540383,FEMA4ImagesEEG,001,200886,
AFNE01.JPG,AFNE01.JPG,AFNE01.JPG,AFNE01.JPG,AFNE01.JPG,AFNE01.JPG,2,3,23,0,,,,,,,,,,,,,,,,,,,,,,,AFSA19.jpg,AFSA18.jpg,AFNE13.jpg,AFNE18.jpg,AFNE18.jpg,FN,3,num_4,32,num_6,0.750117229996,,,2017_Jul_11_1545,60.002540383,FEMA4ImagesEEG,001,200886,
AFNE01.JPG,AFNE01.JPG,AFNE01.JPG,AFNE01.JPG,AFNE01.JPG,AFNE01.JPG,2,4,24,4,,,,,,,,,,,,,,,,,,,,,,,AFNE04.jpg,AFNE17.jpg,AFSA07.jpg,AFSA15.jpg,AFNE04.jpg,FN,3,num_8,32,num_6,0.633522761753,,,2017_Jul_11_1545,60.002540383,FEMA4ImagesEEG,001,200886,
AFNE01.JPG,AFNE01.JPG,AFNE01.JPG,AFNE01.JPG,AFNE01.JPG,AFNE01.JPG,2,5,25,1,,,,,,,,,,,,,,,,,,,,,,,AFNE18.jpg,AFNE14.jpg,AFSA20.jpg,AFSA15.jpg,AFSA20.jpg,FS,4,num_2,32,num_6,0.650151805719,,,2017_Jul_11_1545,60.002540383,FEMA4ImagesEEG,001,200886,
AFNE01.JPG,AFNE01.JPG,AFNE01.JPG,AFNE01.JPG,AFNE01.JPG,AFNE01.JPG,2,6,26,8,,,,,,,,,,,,,,,,,,,,,,,AFSA11.jpg,AFNE05.jpg,AFNE13.jpg,AFSA03.jpg,AFSA03.jpg,FS,4,num_4,32,num_6,0.766812987858,,,2017_Jul_11_1545,60.002540383,FEMA4ImagesEEG,001,200886,
AFNE01.JPG,AFNE01.JPG,AFNE01.JPG,AFNE01.JPG,AFNE01.JPG,AFNE01.JPG,2,7,27,5,,,,,,,,,,,,,,,,,,,,,,,AFSA18.jpg,AFSA15.jpg,AFNE05.jpg,AFNE09.jpg,AFSA18.jpg,FS,4,num_8,32,num_6,0.700161780929,,,2017_Jul_11_1545,60.002540383,FEMA4ImagesEEG,001,200886,
AFNE01.JPG,AFNE01.JPG,AFNE01.JPG,AFNE01.JPG,AFNE01.JPG,AFNE01.JPG,2,8,28,7,,,,,,,,,,,,,,,,,,,,,,,AFSA14.jpg,AFSA01.jpg,AFNE17.jpg,AFNE11.jpg,AFNE11.jpg,FN,3,num_4,16,num_4,0.56677437108,,,2017_Jul_11_1545,60.002540383,FEMA4ImagesEEG,001,200886,
AFNE01.JPG,AFNE01.JPG,AFNE01.JPG,AFNE01.JPG,AFNE01.JPG,AFNE01.JPG,2,9,29,3,,,,,,,,,,,,,,,,,,,,,,,AFSA03.jpg,AFSA17.jpg,AFNE19.jpg,AFNE15.jpg,AFSA17.jpg,FS,4,num_6,16,num_6,0.933486710768,,,2017_Jul_11_1545,60.002540383,FEMA4ImagesEEG,001,200886,
AFNE01.JPG,AFNE01.JPG,AFNE01.JPG,AFNE01.JPG,AFNE01.JPG,AFNE01.JPG,3,0,30,4,,,,,,,,,,,,,,,,,,,,,,,AFNE13.jpg,AFSA01.jpg,AFNE02.jpg,AFSA13.jpg,AFNE13.jpg,FN,3,num_8,32,num_2,1.0001254091,,,2017_Jul_11_1545,60.002540383,FEMA4ImagesEEG,001,200886,
AFNE01.JPG,AFNE01.JPG,AFNE01.JPG,AFNE01.JPG,AFNE01.JPG,AFNE01.JPG,3,1,31,1,,,,,,,,,,,,,,,,,,,,,,,AFSA10.jpg,AFNE20.jpg,AFSA14.jpg,AFNE13.jpg,AFNE13.jpg,FN,3,num_4,32,num_2,0.966731648427,,,2017_Jul_11_1545,60.002540383,FEMA4ImagesEEG,001,200886,
AFNE01.JPG,AFNE01.JPG,AFNE01.JPG,AFNE01.JPG,AFNE01.JPG,AFNE01.JPG,3,2,32,2,,,,,,,,,,,,,,,,,,,,,,,AFNE12.jpg,AFNE08.jpg,AFSA06.jpg,AFSA17.jpg,AFSA06.jpg,FS,4,num_2,32,num_4,1.1167208394,,,2017_Jul_11_1545,60.002540383,FEMA4ImagesEEG,001,200886,
AFNE01.JPG,AFNE01.JPG,AFNE01.JPG,AFNE01.JPG,AFNE01.JPG,AFNE01.JPG,3,3,33,8,,,,,,,,,,,,,,,,,,,,,,,AFNE06.jpg,AFNE08.jpg,AFSA17.jpg,AFSA08.jpg,AFNE08.jpg,FN,3,num_6,16,num_6,0.866777129238,,,2017_Jul_11_1545,60.002540383,FEMA4ImagesEEG,001,200886,
AFNE01.JPG,AFNE01.JPG,AFNE01.JPG,AFNE01.JPG,AFNE01.JPG,AFNE01.JPG,3,4,34,9,,,,,,,,,,,,,,,,,,,,,,,AFSA10.jpg,AFSA13.jpg,AFNE15.jpg,AFNE18.jpg,AFNE18.jpg,FN,3,num_4,32,num_6,1.21672635619,,,2017_Jul_11_1545,60.002540383,FEMA4ImagesEEG,001,200886,
AFNE01.JPG,AFNE01.JPG,AFNE01.JPG,AFNE01.JPG,AFNE01.JPG,AFNE01.JPG,3,5,35,0,,,,,,,,,,,,,,,,,,,,,,,AFSA08.jpg,AFSA03.jpg,AFNE19.jpg,AFNE09.jpg,AFNE19.jpg,FN,3,num_2,32,num_8,0.833518079016,,,2017_Jul_11_1545,60.002540383,FEMA4ImagesEEG,001,200886,
AFNE01.JPG,AFNE01.JPG,AFNE01.JPG,AFNE01.JPG,AFNE01.JPG,AFNE01.JPG,3,6,36,7,,,,,,,,,,,,,,,,,,,,,,,AFSA01.jpg,AFNE16.jpg,AFNE17.jpg,AFSA10.jpg,AFSA01.jpg,FS,4,num_8,16,num_8,0.716819691239,,,2017_Jul_11_1545,60.002540383,FEMA4ImagesEEG,001,200886,
AFNE01.JPG,AFNE01.JPG,AFNE01.JPG,AFNE01.JPG,AFNE01.JPG,AFNE01.JPG,3,7,37,3,,,,,,,,,,,,,,,,,,,,,,,AFSA09.jpg,AFNE15.jpg,AFNE01.jpg,AFSA19.jpg,AFNE15.jpg,FN,3,num_6,32,num_8,1.21675746795,,,2017_Jul_11_1545,60.002540383,FEMA4ImagesEEG,001,200886,
AFNE01.JPG,AFNE01.JPG,AFNE01.JPG,AFNE01.JPG,AFNE01.JPG,AFNE01.JPG,3,8,38,6,,,,,,,,,,,,,,,,,,,,,,,AFSA12.jpg,AFSA16.jpg,AFNE12.jpg,AFNE03.jpg,AFSA12.jpg,FS,4,num_8,32,num_6,2.06668071519,,,2017_Jul_11_1545,60.002540383,FEMA4ImagesEEG,001,200886,
AFNE01.JPG,AFNE01.JPG,AFNE01.JPG,AFNE01.JPG,AFNE01.JPG,AFNE01.JPG,3,9,39,5,,,,,,,,,,,,,,,,,,,,,,,AFSA13.jpg,AFNE03.jpg,AFNE02.jpg,AFSA02.jpg,AFNE02.jpg,FN,3,num_2,32,num_4,0.85013974621,,,2017_Jul_11_1545,60.002540383,FEMA4ImagesEEG,001,200886,
AFNE01.JPG,AFNE01.JPG,AFNE01.JPG,AFNE01.JPG,AFNE01.JPG,AFNE01.JPG,4,0,40,9,,,,,,,,,,,,,,,,,,,,,,,AFSA07.jpg,AFNE03.jpg,AFSA20.jpg,AFNE01.jpg,AFSA20.jpg,FS,4,num_2,32,num_4,0.85010189889,,,2017_Jul_11_1545,60.002540383,FEMA4ImagesEEG,001,200886,
AFNE01.JPG,AFNE01.JPG,AFNE01.JPG,AFNE01.JPG,AFNE01.JPG,AFNE01.JPG,4,1,41,6,,,,,,,,,,,,,,,,,,,,,,,AFSA09.jpg,AFNE17.jpg,AFNE06.jpg,AFSA02.jpg,AFSA09.jpg,FS,4,num_8,16,num_8,1.08348039235,,,2017_Jul_11_1545,60.002540383,FEMA4ImagesEEG,001,200886,
AFNE01.JPG,AFNE01.JPG,AFNE01.JPG,AFNE01.JPG,AFNE01.JPG,AFNE01.JPG,4,2,42,8,,,,,,,,,,,,,,,,,,,,,,,AFSA13.jpg,AFNE17.jpg,AFNE10.jpg,AFSA09.jpg,AFSA13.jpg,FS,4,num_8,16,num_8,0.966772382148,,,2017_Jul_11_1545,60.002540383,FEMA4ImagesEEG,001,200886,
AFNE01.JPG,AFNE01.JPG,AFNE01.JPG,AFNE01.JPG,AFNE01.JPG,AFNE01.JPG,4,3,43,7,,,,,,,,,,,,,,,,,,,,,,,AFNE11.jpg,AFNE09.jpg,AFSA05.jpg,AFSA03.jpg,AFNE09.jpg,FN,3,num_6,16,num_6,0.916807631496,,,2017_Jul_11_1545,60.002540383,FEMA4ImagesEEG,001,200886,
AFNE01.JPG,AFNE01.JPG,AFNE01.JPG,AFNE01.JPG,AFNE01.JPG,AFNE01.JPG,4,4,44,0,,,,,,,,,,,,,,,,,,,,,,,AFNE14.jpg,AFNE09.jpg,AFSA03.jpg,AFSA04.jpg,AFNE09.jpg,FN,3,num_6,16,num_6,1.16649795789,,,2017_Jul_11_1545,60.002540383,FEMA4ImagesEEG,001,200886,
AFNE01.JPG,AFNE01.JPG,AFNE01.JPG,AFNE01.JPG,AFNE01.JPG,AFNE01.JPG,4,5,45,3,,,,,,,,,,,,,,,,,,,,,,,AFNE20.jpg,AFSA20.jpg,AFNE19.jpg,AFSA19.jpg,AFSA19.jpg,FS,4,num_4,32,num_2,0.666825432563,,,2017_Jul_11_1545,60.002540383,FEMA4ImagesEEG,001,200886,
AFNE01.JPG,AFNE01.JPG,AFNE01.JPG,AFNE01.JPG,AFNE01.JPG,AFNE01.JPG,4,6,46,1,,,,,,,,,,,,,,,,,,,,,,,AFNE04.jpg,AFSA18.jpg,AFNE18.jpg,AFSA12.jpg,AFNE04.jpg,FN,3,num_8,16,num_8,1.76670040842,,,2017_Jul_11_1545,60.002540383,FEMA4ImagesEEG,001,200886,
AFNE01.JPG,AFNE01.JPG,AFNE01.JPG,AFNE01.JPG,AFNE01.JPG,AFNE01.JPG,4,7,47,2,,,,,,,,,,,,,,,,,,,,,,,AFNE04.jpg,AFSA04.jpg,AFSA19.jpg,AFNE15.jpg,AFSA19.jpg,FS,4,num_2,32,num_6,0.800140355481,,,2017_Jul_11_1545,60.002540383,FEMA4ImagesEEG,001,200886,
AFNE01.JPG,AFNE01.JPG,AFNE01.JPG,AFNE01.JPG,AFNE01.JPG,AFNE01.JPG,4,8,48,4,,,,,,,,,,,,,,,,,,,,,,,AFSA03.jpg,AFNE02.jpg,AFSA07.jpg,AFNE13.jpg,AFSA03.jpg,FS,4,num_8,16,num_8,1.11675515864,,,2017_Jul_11_1545,60.002540383,FEMA4ImagesEEG,001,200886,
AFNE01.JPG,AFNE01.JPG,AFNE01.JPG,AFNE01.JPG,AFNE01.JPG,AFNE01.JPG,4,9,49,5,,,,,,,,,,,,,,,,,,,,,,,AFNE08.jpg,AFSA07.jpg,AFSA19.jpg,AFNE05.jpg,AFNE08.jpg,FN,3,num_8,16,num_8,0.950138527201,,,2017_Jul_11_1545,60.002540383,FEMA4ImagesEEG,001,200886,
AFNE01.JPG,AFNE01.JPG,AFNE01.JPG,AFNE01.JPG,AFNE01.JPG,AFNE01.JPG,5,0,50,1,,,,,,,,,,,,,,,,,,,,,,,AFNE20.jpg,AFSA20.jpg,AFSA13.jpg,AFNE12.jpg,AFSA13.jpg,FS,4,num_2,16,num_2,0.916771708755,,,2017_Jul_11_1545,60.002540383,FEMA4ImagesEEG,001,200886,
AFNE01.JPG,AFNE01.JPG,AFNE01.JPG,AFNE01.JPG,AFNE01.JPG,AFNE01.JPG,5,1,51,9,,,,,,,,,,,,,,,,,,,,,,,AFSA05.jpg,AFNE08.jpg,AFSA03.jpg,AFNE03.jpg,AFNE08.jpg,FN,3,num_6,16,num_6,1.16677186918,,,2017_Jul_11_1545,60.002540383,FEMA4ImagesEEG,001,200886,
AFNE01.JPG,AFNE01.JPG,AFNE01.JPG,AFNE01.JPG,AFNE01.JPG,AFNE01.JPG,5,2,52,0,,,,,,,,,,,,,,,,,,,,,,,AFNE12.jpg,AFSA06.jpg,AFNE14.jpg,AFSA14.jpg,AFSA06.jpg,FS,4,num_6,16,num_6,0.850144236349,,,2017_Jul_11_1545,60.002540383,FEMA4ImagesEEG,001,200886,
AFNE01.JPG,AFNE01.JPG,AFNE01.JPG,AFNE01.JPG,AFNE01.JPG,AFNE01.JPG,5,3,53,2,,,,,,,,,,,,,,,,,,,,,,,AFNE08.jpg,AFNE19.jpg,AFSA08.jpg,AFSA20.jpg,AFSA20.jpg,FS,4,num_4,16,num_4,1.68343779817,,,2017_Jul_11_1545,60.002540383,FEMA4ImagesEEG,001,200886,
AFNE01.JPG,AFNE01.JPG,AFNE01.JPG,AFNE01.JPG,AFNE01.JPG,AFNE01.JPG,5,4,54,3,,,,,,,,,,,,,,,,,,,,,,,AFNE20.jpg,AFSA11.jpg,AFSA07.jpg,AFNE07.jpg,AFSA07.jpg,FS,4,num_2,16,num_2,0.916744125308,,,2017_Jul_11_1545,60.002540383,FEMA4ImagesEEG,001,200886,
AFNE01.JPG,AFNE01.JPG,AFNE01.JPG,AFNE01.JPG,AFNE01.JPG,AFNE01.JPG,5,5,55,7,,,,,,,,,,,,,,,,,,,,,,,AFNE12.jpg,AFNE14.jpg,AFSA11.jpg,AFSA13.jpg,AFSA13.jpg,FS,4,num_4,16,num_4,1.3664538241,,,2017_Jul_11_1545,60.002540383,FEMA4ImagesEEG,001,200886,
AFNE01.JPG,AFNE01.JPG,AFNE01.JPG,AFNE01.JPG,AFNE01.JPG,AFNE01.JPG,5,6,56,6,,,,,,,,,,,,,,,,,,,,,,,AFSA04.jpg,AFNE19.jpg,AFSA01.jpg,AFNE16.jpg,AFNE19.jpg,FN,3,num_6,16,num_6,0.90015709796,,,2017_Jul_11_1545,60.002540383,FEMA4ImagesEEG,001,200886,
AFNE01.JPG,AFNE01.JPG,AFNE01.JPG,AFNE01.JPG,AFNE01.JPG,AFNE01.JPG,5,7,57,8,,,,,,,,,,,,,,,,,,,,,,,AFSA02.jpg,AFNE10.jpg,AFNE12.jpg,AFSA08.jpg,AFNE12.jpg,FN,3,num_2,16,num_2,0.583518560044,,,2017_Jul_11_1545,60.002540383,FEMA4ImagesEEG,001,200886,
AFNE01.JPG,AFNE01.JPG,AFNE01.JPG,AFNE01.JPG,AFNE01.JPG,AFNE01.JPG,5,8,58,5,,,,,,,,,,,,,,,,,,,,,,,AFNE11.jpg,AFSA18.jpg,AFSA11.jpg,AFNE09.jpg,AFSA18.jpg,FS,4,num_6,16,num_6,0.733458678238,,,2017_Jul_11_1545,60.002540383,FEMA4ImagesEEG,001,200886,
AFNE01.JPG,AFNE01.JPG,AFNE01.JPG,AFNE01.JPG,AFNE01.JPG,AFNE01.JPG,5,9,59,4,,,,,,,,,,,,,,,,,,,,,,,AFNE07.jpg,AFSA20.jpg,AFSA18.jpg,AFNE10.jpg,AFNE07.jpg,FN,3,num_8,16,num_8,0.950145904208,,,2017_Jul_11_1545,60.002540383,FEMA4ImagesEEG,001,200886,
,,,,,,,,,,,,,,,,,,,,,,,,,,,,,,,,,,,,,,,,,,,space,6.39966444252,2017_Jul_11_1545,60.002540383,FEMA4ImagesEEG,001,200886,
AFNE01.JPG,AFNE01.JPG,AFNE01.JPG,AFNE01.JPG,AFNE01.JPG,AFNE01.JPG,,,,,0,0,0,1,,,,,,,,,,,,,,,,,,,AMSA05.jpg,AMNE05.jpg,AMSA06.jpg,AMNE11.jpg,AMSA06.jpg,MS,2,num_2,32,num_6,1.03346111579,,,2017_Jul_11_1545,60.002540383,FEMA4ImagesEEG,001,200886,
AFNE01.JPG,AFNE01.JPG,AFNE01.JPG,AFNE01.JPG,AFNE01.JPG,AFNE01.JPG,,,,,0,1,1,4,,,,,,,,,,,,,,,,,,,AMNE11.jpg,AMSA01.jpg,AMNE12.jpg,AMSA17.jpg,AMNE11.jpg,MN,1,num_8,32,num_2,0.983426444,,,2017_Jul_11_1545,60.002540383,FEMA4ImagesEEG,001,200886,
AFNE01.JPG,AFNE01.JPG,AFNE01.JPG,AFNE01.JPG,AFNE01.JPG,AFNE01.JPG,,,,,0,2,2,8,,,,,,,,,,,,,,,,,,,AMSA03.jpg,AMNE17.jpg,AMSA15.jpg,AMNE02.jpg,AMNE02.jpg,MN,1,num_4,16,num_4,0.883473849157,,,2017_Jul_11_1545,60.002540383,FEMA4ImagesEEG,001,200886,
AFNE01.JPG,AFNE01.JPG,AFNE01.JPG,AFNE01.JPG,AFNE01.JPG,AFNE01.JPG,,,,,0,3,3,7,,,,,,,,,,,,,,,,,,,AMNE20.jpg,AMSA07.jpg,AMNE17.jpg,AMSA08.jpg,AMNE20.jpg,MN,1,num_8,16,num_8,0.816773248138,,,2017_Jul_11_1545,60.002540383,FEMA4ImagesEEG,001,200886,
AFNE01.JPG,AFNE01.JPG,AFNE01.JPG,AFNE01.JPG,AFNE01.JPG,AFNE01.JPG,,,,,0,4,4,2,,,,,,,,,,,,,,,,,,,AMNE08.jpg,AMSA05.jpg,AMNE13.jpg,AMSA10.jpg,AMSA05.jpg,MS,2,num_6,32,num_4,1.0334771527,,,2017_Jul_11_1545,60.002540383,FEMA4ImagesEEG,001,200886,
AFNE01.JPG,AFNE01.JPG,AFNE01.JPG,AFNE01.JPG,AFNE01.JPG,AFNE01.JPG,,,,,0,5,5,5,,,,,,,,,,,,,,,,,,,AMNE20.jpg,AMNE16.jpg,AMSA19.jpg,AMSA11.jpg,AMNE16.jpg,MN,1,num_6,16,num_6,0.90015357011,,,2017_Jul_11_1545,60.002540383,FEMA4ImagesEEG,001,200886,
AFNE01.JPG,AFNE01.JPG,AFNE01.JPG,AFNE01.JPG,AFNE01.JPG,AFNE01.JPG,,,,,0,6,6,0,,,,,,,,,,,,,,,,,,,AMSA09.jpg,AMNE20.jpg,AMSA08.jpg,AMNE08.jpg,AMSA08.jpg,MS,2,num_2,16,num_2,0.666804584442,,,2017_Jul_11_1545,60.002540383,FEMA4ImagesEEG,001,200886,
AFNE01.JPG,AFNE01.JPG,AFNE01.JPG,AFNE01.JPG,AFNE01.JPG,AFNE01.JPG,,,,,0,7,7,9,,,,,,,,,,,,,,,,,,,AMNE19.jpg,AMNE08.jpg,AMSA07.jpg,AMSA05.jpg,AMSA07.jpg,MS,2,num_2,32,num_6,0.833459383808,,,2017_Jul_11_1545,60.002540383,FEMA4ImagesEEG,001,200886,
AFNE01.JPG,AFNE01.JPG,AFNE01.JPG,AFNE01.JPG,AFNE01.JPG,AFNE01.JPG,,,,,0,8,8,6,,,,,,,,,,,,,,,,,,,AMNE01.jpg,AMSA04.jpg,AMNE09.jpg,AMSA03.jpg,AMNE01.jpg,MN,1,num_8,32,num_2,0.883476415183,,,2017_Jul_11_1545,60.002540383,FEMA4ImagesEEG,001,200886,
AFNE01.JPG,AFNE01.JPG,AFNE01.JPG,AFNE01.JPG,AFNE01.JPG,AFNE01.JPG,,,,,0,9,9,3,,,,,,,,,,,,,,,,,,,AMSA18.jpg,AMSA05.jpg,AMNE02.jpg,AMNE19.jpg,AMNE19.jpg,MN,1,num_4,32,num_8,0.983493157662,,,2017_Jul_11_1545,60.002540383,FEMA4ImagesEEG,001,200886,
AFNE01.JPG,AFNE01.JPG,AFNE01.JPG,AFNE01.JPG,AFNE01.JPG,AFNE01.JPG,,,,,1,0,10,7,,,,,,,,,,,,,,,,,,,AMSA13.jpg,AMNE19.jpg,AMSA17.jpg,AMNE11.jpg,AMSA13.jpg,MS,2,num_8,16,num_8,1.21670390433,,,2017_Jul_11_1545,60.002540383,FEMA4ImagesEEG,001,200886,
AFNE01.JPG,AFNE01.JPG,AFNE01.JPG,AFNE01.JPG,AFNE01.JPG,AFNE01.JPG,,,,,1,1,11,1,,,,,,,,,,,,,,,,,,,AMNE11.jpg,AMSA16.jpg,AMSA19.jpg,AMNE08.jpg,AMSA19.jpg,MS,2,num_2,32,num_4,0.900150362635,,,2017_Jul_11_1545,60.002540383,FEMA4ImagesEEG,001,200886,
AFNE01.JPG,AFNE01.JPG,AFNE01.JPG,AFNE01.JPG,AFNE01.JPG,AFNE01.JPG,,,,,1,2,12,6,,,,,,,,,,,,,,,,,,,AMNE20.jpg,AMNE04.jpg,AMSA13.jpg,AMSA14.jpg,AMNE04.jpg,MN,1,num_6,16,num_6,1.18343940191,,,2017_Jul_11_1545,60.002540383,FEMA4ImagesEEG,001,200886,
AFNE01.JPG,AFNE01.JPG,AFNE01.JPG,AFNE01.JPG,AFNE01.JPG,AFNE01.JPG,,,,,1,3,13,5,,,,,,,,,,,,,,,,,,,AMNE15.jpg,AMNE02.jpg,AMSA15.jpg,AMSA16.jpg,AMSA15.jpg,MS,2,num_2,16,num_2,0.783479237463,,,2017_Jul_11_1545,60.002540383,FEMA4ImagesEEG,001,200886,
AFNE01.JPG,AFNE01.JPG,AFNE01.JPG,AFNE01.JPG,AFNE01.JPG,AFNE01.JPG,,,,,1,4,14,3,,,,,,,,,,,,,,,,,,,AMNE09.jpg,AMSA12.jpg,AMSA20.jpg,AMNE16.jpg,AMSA12.jpg,MS,2,num_6,32,num_4,0.983531004749,,,2017_Jul_11_1545,60.002540383,FEMA4ImagesEEG,001,200886,
AFNE01.JPG,AFNE01.JPG,AFNE01.JPG,AFNE01.JPG,AFNE01.JPG,AFNE01.JPG,,,,,1,5,15,9,,,,,,,,,,,,,,,,,,,AMSA09.jpg,AMNE05.jpg,AMSA06.jpg,AMNE10.jpg,AMSA06.jpg,MS,2,num_2,16,num_2,0.933424487244,,,2017_Jul_11_1545,60.002540383,FEMA4ImagesEEG,001,200886,
AFNE01.JPG,AFNE01.JPG,AFNE01.JPG,AFNE01.JPG,AFNE01.JPG,AFNE01.JPG,,,,,1,6,16,4,,,,,,,,,,,,,,,,,,,AMNE19.jpg,AMSA17.jpg,AMNE05.jpg,AMSA13.jpg,AMNE05.jpg,MN,1,num_2,16,num_2,0.699823080329,,,2017_Jul_11_1545,60.002540383,FEMA4ImagesEEG,001,200886,
AFNE01.JPG,AFNE01.JPG,AFNE01.JPG,AFNE01.JPG,AFNE01.JPG,AFNE01.JPG,,,,,1,7,17,0,,,,,,,,,,,,,,,,,,,AMNE19.jpg,AMNE05.jpg,AMSA06.jpg,AMSA08.jpg,AMNE19.jpg,MN,1,num_8,16,num_8,1.25014577596,,,2017_Jul_11_1545,60.002540383,FEMA4ImagesEEG,001,200886,
AFNE01.JPG,AFNE01.JPG,AFNE01.JPG,AFNE01.JPG,AFNE01.JPG,AFNE01.JPG,,,,,1,8,18,8,,,,,,,,,,,,,,,,,,,AMNE06.jpg,AMNE05.jpg,AMSA13.jpg,AMSA14.jpg,AMSA14.jpg,MS,2,num_4,16,num_4,0.76663786429,,,2017_Jul_11_1545,60.002540383,FEMA4ImagesEEG,001,200886,
AFNE01.JPG,AFNE01.JPG,AFNE01.JPG,AFNE01.JPG,AFNE01.JPG,AFNE01.JPG,,,,,1,9,19,2,,,,,,,,,,,,,,,,,,,AMNE17.jpg,AMNE13.jpg,AMSA10.jpg,AMSA06.jpg,AMSA06.jpg,MS,2,num_4,32,num_6,1.30033953465,,,2017_Jul_11_1545,60.002540383,FEMA4ImagesEEG,001,200886,
AFNE01.JPG,AFNE01.JPG,AFNE01.JPG,AFNE01.JPG,AFNE01.JPG,AFNE01.JPG,,,,,2,0,20,5,,,,,,,,,,,,,,,,,,,AMSA19.jpg,AMSA05.jpg,AMNE04.jpg,AMNE12.jpg,AMSA19.jpg,MS,2,num_8,32,num_4,0.950141092995,,,2017_Jul_11_1545,60.002540383,FEMA4ImagesEEG,001,200886,
AFNE01.JPG,AFNE01.JPG,AFNE01.JPG,AFNE01.JPG,AFNE01.JPG,AFNE01.JPG,,,,,2,1,21,8,,,,,,,,,,,,,,,,,,,AMSA14.jpg,AMNE19.jpg,AMSA06.jpg,AMNE06.jpg,AMSA06.jpg,MS,2,num_2,32,num_4,0.766809459776,,,2017_Jul_11_1545,60.002540383,FEMA4ImagesEEG,001,200886,
AFNE01.JPG,AFNE01.JPG,AFNE01.JPG,AFNE01.JPG,AFNE01.JPG,AFNE01.JPG,,,,,2,2,22,6,,,,,,,,,,,,,,,,,,,AMSA16.jpg,AMSA19.jpg,AMNE12.jpg,AMNE02.jpg,AMNE12.jpg,MN,1,num_2,32,num_6,0.966776551912,,,2017_Jul_11_1545,60.002540383,FEMA4ImagesEEG,001,200886,
AFNE01.JPG,AFNE01.JPG,AFNE01.JPG,AFNE01.JPG,AFNE01.JPG,AFNE01.JPG,,,,,2,3,23,2,,,,,,,,,,,,,,,,,,,AMSA07.jpg,AMSA09.jpg,AMNE06.jpg,AMNE20.jpg,AMSA09.jpg,MS,2,num_6,32,num_2,0.800117583014,,,2017_Jul_11_1545,60.002540383,FEMA4ImagesEEG,001,200886,
AFNE01.JPG,AFNE01.JPG,AFNE01.JPG,AFNE01.JPG,AFNE01.JPG,AFNE01.JPG,,,,,2,4,24,3,,,,,,,,,,,,,,,,,,,AMSA18.jpg,AMNE01.jpg,AMNE14.jpg,AMSA06.jpg,AMNE01.jpg,MN,1,num_6,16,num_6,0.600150811719,,,2017_Jul_11_1545,60.002540383,FEMA4ImagesEEG,001,200886,
AFNE01.JPG,AFNE01.JPG,AFNE01.JPG,AFNE01.JPG,AFNE01.JPG,AFNE01.JPG,,,,,2,5,25,4,,,,,,,,,,,,,,,,,,,AMSA14.jpg,AMNE15.jpg,AMNE19.jpg,AMSA08.jpg,AMSA08.jpg,MS,2,num_4,16,num_4,0.63349389541,,,2017_Jul_11_1545,60.002540383,FEMA4ImagesEEG,001,200886,
AFNE01.JPG,AFNE01.JPG,AFNE01.JPG,AFNE01.JPG,AFNE01.JPG,AFNE01.JPG,,,,,2,6,26,7,,,,,,,,,,,,,,,,,,,AMNE08.jpg,AMSA14.jpg,AMSA20.jpg,AMNE05.jpg,AMSA14.jpg,MS,2,num_6,16,num_6,0.700153762242,,,2017_Jul_11_1545,60.002540383,FEMA4ImagesEEG,001,200886,
AFNE01.JPG,AFNE01.JPG,AFNE01.JPG,AFNE01.JPG,AFNE01.JPG,AFNE01.JPG,,,,,2,7,27,9,,,,,,,,,,,,,,,,,,,AMSA01.jpg,AMNE14.jpg,AMNE06.jpg,AMSA09.jpg,AMSA09.jpg,MS,2,num_4,16,num_4,0.716752015287,,,2017_Jul_11_1545,60.002540383,FEMA4ImagesEEG,001,200886,
AFNE01.JPG,AFNE01.JPG,AFNE01.JPG,AFNE01.JPG,AFNE01.JPG,AFNE01.JPG,,,,,2,8,28,0,,,,,,,,,,,,,,,,,,,AMSA18.jpg,AMSA01.jpg,AMNE02.jpg,AMNE06.jpg,AMSA01.jpg,MS,2,num_6,16,num_6,1.05009881966,,,2017_Jul_11_1545,60.002540383,FEMA4ImagesEEG,001,200886,
AFNE01.JPG,AFNE01.JPG,AFNE01.JPG,AFNE01.JPG,AFNE01.JPG,AFNE01.JPG,,,,,2,9,29,1,,,,,,,,,,,,,,,,,,,AMSA18.jpg,AMNE02.jpg,AMNE19.jpg,AMSA14.jpg,AMNE19.jpg,MN,1,num_2,32,num_6,1.03346304037,,,2017_Jul_11_1545,60.002540383,FEMA4ImagesEEG,001,200886,
AFNE01.JPG,AFNE01.JPG,AFNE01.JPG,AFNE01.JPG,AFNE01.JPG,AFNE01.JPG,,,,,3,0,30,1,,,,,,,,,,,,,,,,,,,AMNE03.jpg,AMSA09.jpg,AMSA02.jpg,AMNE15.jpg,AMNE15.jpg,MN,1,num_4,16,num_4,0.783706641756,,,2017_Jul_11_1545,60.002540383,FEMA4ImagesEEG,001,200886,
AFNE01.JPG,AFNE01.JPG,AFNE01.JPG,AFNE01.JPG,AFNE01.JPG,AFNE01.JPG,,,,,3,1,31,6,,,,,,,,,,,,,,,,,,,AMNE17.jpg,AMSA02.jpg,AMNE16.jpg,AMSA06.jpg,AMNE17.jpg,MN,1,num_8,32,num_2,1.45014365925,,,2017_Jul_11_1545,60.002540383,FEMA4ImagesEEG,001,200886,
AFNE01.JPG,AFNE01.JPG,AFNE01.JPG,AFNE01.JPG,AFNE01.JPG,AFNE01.JPG,,,,,3,2,32,2,,,,,,,,,,,,,,,,,,,AMNE01.jpg,AMSA05.jpg,AMNE08.jpg,AMSA13.jpg,AMNE08.jpg,MN,1,num_2,16,num_2,1.03344604094,,,2017_Jul_11_1545,60.002540383,FEMA4ImagesEEG,001,200886,
AFNE01.JPG,AFNE01.JPG,AFNE01.JPG,AFNE01.JPG,AFNE01.JPG,AFNE01.JPG,,,,,3,3,33,7,,,,,,,,,,,,,,,,,,,AMNE04.jpg,AMNE07.jpg,AMSA11.jpg,AMSA10.jpg,AMNE04.jpg,MN,1,num_8,32,num_2,1.2833881476,,,2017_Jul_11_1545,60.002540383,FEMA4ImagesEEG,001,200886,
AFNE01.JPG,AFNE01.JPG,AFNE01.JPG,AFNE01.JPG,AFNE01.JPG,AFNE01.JPG,,,,,3,4,34,3,,,,,,,,,,,,,,,,,,,AMNE10.jpg,AMSA09.jpg,AMSA03.jpg,AMNE13.jpg,AMSA09.jpg,MS,2,num_6,16,num_6,0.733492676634,,,2017_Jul_11_1545,60.002540383,FEMA4ImagesEEG,001,200886,
AFNE01.JPG,AFNE01.JPG,AFNE01.JPG,AFNE01.JPG,AFNE01.JPG,AFNE01.JPG,,,,,3,5,35,9,,,,,,,,,,,,,,,,,,,AMNE05.jpg,AMSA08.jpg,AMNE18.jpg,AMSA17.jpg,AMSA17.jpg,MS,2,num_4,16,num_4,1.08347493969,,,2017_Jul_11_1545,60.002540383,FEMA4ImagesEEG,001,200886,
AFNE01.JPG,AFNE01.JPG,AFNE01.JPG,AFNE01.JPG,AFNE01.JPG,AFNE01.JPG,,,,,3,6,36,8,,,,,,,,,,,,,,,,,,,AMSA07.jpg,AMNE17.jpg,AMNE02.jpg,AMSA20.jpg,AMNE17.jpg,MN,1,num_6,16,num_6,0.533526867395,,,2017_Jul_11_1545,60.002540383,FEMA4ImagesEEG,001,200886,
AFNE01.JPG,AFNE01.JPG,AFNE01.JPG,AFNE01.JPG,AFNE01.JPG,AFNE01.JPG,,,,,3,7,37,4,,,,,,,,,,,,,,,,,,,AMSA05.jpg,AMSA15.jpg,AMNE01.jpg,AMNE14.jpg,AMNE01.jpg,MN,1,num_2,16,num_2,0.616384383989,,,2017_Jul_11_1545,60.002540383,FEMA4ImagesEEG,001,200886,
AFNE01.JPG,AFNE01.JPG,AFNE01.JPG,AFNE01.JPG,AFNE01.JPG,AFNE01.JPG,,,,,3,8,38,5,,,,,,,,,,,,,,,,,,,AMNE06.jpg,AMSA03.jpg,AMSA14.jpg,AMNE08.jpg,AMNE08.jpg,MN,1,num_4,32,num_2,1.93338022544,,,2017_Jul_11_1545,60.002540383,FEMA4ImagesEEG,001,200886,
AFNE01.JPG,AFNE01.JPG,AFNE01.JPG,AFNE01.JPG,AFNE01.JPG,AFNE01.JPG,,,,,3,9,39,0,,,,,,,,,,,,,,,,,,,AMSA06.jpg,AMNE08.jpg,AMSA19.jpg,AMNE09.jpg,AMNE09.jpg,MN,1,num_4,32,num_8,0.850151292747,,,2017_Jul_11_1545,60.002540383,FEMA4ImagesEEG,001,200886,
AFNE01.JPG,AFNE01.JPG,AFNE01.JPG,AFNE01.JPG,AFNE01.JPG,AFNE01.JPG,,,,,4,0,40,6,,,,,,,,,,,,,,,,,,,AMSA06.jpg,AMNE16.jpg,AMNE09.jpg,AMSA14.jpg,AMSA14.jpg,MS,2,num_4,16,num_4,0.966748647625,,,2017_Jul_11_1545,60.002540383,FEMA4ImagesEEG,001,200886,
AFNE01.JPG,AFNE01.JPG,AFNE01.JPG,AFNE01.JPG,AFNE01.JPG,AFNE01.JPG,,,,,4,1,41,0,,,,,,,,,,,,,,,,,,,AMSA10.jpg,AMSA06.jpg,AMNE17.jpg,AMNE07.jpg,AMNE07.jpg,MN,1,num_4,32,num_8,1.06680516177,,,2017_Jul_11_1545,60.002540383,FEMA4ImagesEEG,001,200886,
AFNE01.JPG,AFNE01.JPG,AFNE01.JPG,AFNE01.JPG,AFNE01.JPG,AFNE01.JPG,,,,,4,2,42,1,,,,,,,,,,,,,,,,,,,AMSA15.jpg,AMNE12.jpg,AMNE17.jpg,AMSA08.jpg,AMSA08.jpg,MS,2,num_4,16,num_4,0.650165918283,,,2017_Jul_11_1545,60.002540383,FEMA4ImagesEEG,001,200886,
AFNE01.JPG,AFNE01.JPG,AFNE01.JPG,AFNE01.JPG,AFNE01.JPG,AFNE01.JPG,,,,,4,3,43,3,,,,,,,,,,,,,,,,,,,AMNE18.jpg,AMNE02.jpg,AMSA14.jpg,AMSA18.jpg,AMSA14.jpg,MS,2,num_2,16,num_2,0.600190583151,,,2017_Jul_11_1545,60.002540383,FEMA4ImagesEEG,001,200886,
AFNE01.JPG,AFNE01.JPG,AFNE01.JPG,AFNE01.JPG,AFNE01.JPG,AFNE01.JPG,,,,,4,4,44,7,,,,,,,,,,,,,,,,,,,AMNE09.jpg,AMSA12.jpg,AMSA16.jpg,AMNE02.jpg,AMNE02.jpg,MN,1,num_4,16,num_4,1.00011193799,,,2017_Jul_11_1545,60.002540383,FEMA4ImagesEEG,001,200886,
AFNE01.JPG,AFNE01.JPG,AFNE01.JPG,AFNE01.JPG,AFNE01.JPG,AFNE01.JPG,,,,,4,5,45,9,,,,,,,,,,,,,,,,,,,AMNE14.jpg,AMSA09.jpg,AMNE07.jpg,AMSA12.jpg,AMNE14.jpg,MN,1,num_8,16,num_8,0.750140644144,,,2017_Jul_11_1545,60.002540383,FEMA4ImagesEEG,001,200886,
AFNE01.JPG,AFNE01.JPG,AFNE01.JPG,AFNE01.JPG,AFNE01.JPG,AFNE01.JPG,,,,,4,6,46,2,,,,,,,,,,,,,,,,,,,AMSA06.jpg,AMNE20.jpg,AMNE02.jpg,AMSA04.jpg,AMSA06.jpg,MS,2,num_8,32,num_4,1.36674441374,,,2017_Jul_11_1545,60.002540383,FEMA4ImagesEEG,001,200886,
AFNE01.JPG,AFNE01.JPG,AFNE01.JPG,AFNE01.JPG,AFNE01.JPG,AFNE01.JPG,,,,,4,7,47,4,,,,,,,,,,,,,,,,,,,AMSA02.jpg,AMSA03.jpg,AMNE04.jpg,AMNE15.jpg,AMNE04.jpg,MN,1,num_2,32,num_8,0.683465702226,,,2017_Jul_11_1545,60.002540383,FEMA4ImagesEEG,001,200886,
AFNE01.JPG,AFNE01.JPG,AFNE01.JPG,AFNE01.JPG,AFNE01.JPG,AFNE01.JPG,,,,,4,8,48,5,,,,,,,,,,,,,,,,,,,AMNE01.jpg,AMSA19.jpg,AMNE14.jpg,AMSA18.jpg,AMNE14.jpg,MN,1,num_2,16,num_2,0.800112772034,,,2017_Jul_11_1545,60.002540383,FEMA4ImagesEEG,001,200886,
AFNE01.JPG,AFNE01.JPG,AFNE01.JPG,AFNE01.JPG,AFNE01.JPG,AFNE01.JPG,,,,,4,9,49,8,,,,,,,,,,,,,,,,,,,AMNE13.jpg,AMSA10.jpg,AMSA14.jpg,AMNE07.jpg,AMSA10.jpg,MS,2,num_6,32,num_4,1.31676779571,,,2017_Jul_11_1545,60.002540383,FEMA4ImagesEEG,001,200886,
AFNE01.JPG,AFNE01.JPG,AFNE01.JPG,AFNE01.JPG,AFNE01.JPG,AFNE01.JPG,,,,,5,0,50,5,,,,,,,,,,,,,,,,,,,AMNE20.jpg,AMSA14.jpg,AMNE14.jpg,AMSA09.jpg,AMNE20.jpg,MN,1,num_8,16,num_8,1.03347009653,,,2017_Jul_11_1545,60.002540383,FEMA4ImagesEEG,001,200886,
AFNE01.JPG,AFNE01.JPG,AFNE01.JPG,AFNE01.JPG,AFNE01.JPG,AFNE01.JPG,,,,,5,1,51,2,,,,,,,,,,,,,,,,,,,AMSA02.jpg,AMSA18.jpg,AMNE20.jpg,AMNE16.jpg,AMNE20.jpg,MN,1,num_2,16,num_2,0.733485941077,,,2017_Jul_11_1545,60.002540383,FEMA4ImagesEEG,001,200886,
AFNE01.JPG,AFNE01.JPG,AFNE01.JPG,AFNE01.JPG,AFNE01.JPG,AFNE01.JPG,,,,,5,2,52,0,,,,,,,,,,,,,,,,,,,AMNE04.jpg,AMNE09.jpg,AMSA10.jpg,AMSA17.jpg,AMSA17.jpg,MS,2,num_4,16,num_4,1.31675047567,,,2017_Jul_11_1545,60.002540383,FEMA4ImagesEEG,001,200886,
AFNE01.JPG,AFNE01.JPG,AFNE01.JPG,AFNE01.JPG,AFNE01.JPG,AFNE01.JPG,,,,,5,3,53,7,,,,,,,,,,,,,,,,,,,AMNE17.jpg,AMSA08.jpg,AMNE18.jpg,AMSA17.jpg,AMNE17.jpg,MN,1,num_8,32,num_4,0.966727478663,,,2017_Jul_11_1545,60.002540383,FEMA4ImagesEEG,001,200886,
AFNE01.JPG,AFNE01.JPG,AFNE01.JPG,AFNE01.JPG,AFNE01.JPG,AFNE01.JPG,,,,,5,4,54,3,,,,,,,,,,,,,,,,,,,AMNE13.jpg,AMNE10.jpg,AMSA03.jpg,AMSA08.jpg,AMNE13.jpg,MN,1,num_8,32,num_6,1.28346480429,,,2017_Jul_11_1545,60.002540383,FEMA4ImagesEEG,001,200886,
AFNE01.JPG,AFNE01.JPG,AFNE01.JPG,AFNE01.JPG,AFNE01.JPG,AFNE01.JPG,,,,,5,5,55,9,,,,,,,,,,,,,,,,,,,AMNE14.jpg,AMSA07.jpg,AMSA19.jpg,AMNE05.jpg,AMNE14.jpg,MN,1,num_8,16,num_8,1.16672664485,,,2017_Jul_11_1545,60.002540383,FEMA4ImagesEEG,001,200886,
AFNE01.JPG,AFNE01.JPG,AFNE01.JPG,AFNE01.JPG,AFNE01.JPG,AFNE01.JPG,,,,,5,6,56,8,,,,,,,,,,,,,,,,,,,AMNE13.jpg,AMSA03.jpg,AMSA04.jpg,AMNE08.jpg,AMSA03.jpg,MS,2,num_6,16,num_6,0.983464932768,,,2017_Jul_11_1545,60.002540383,FEMA4ImagesEEG,001,200886,
AFNE01.JPG,AFNE01.JPG,AFNE01.JPG,AFNE01.JPG,AFNE01.JPG,AFNE01.JPG,,,,,5,7,57,1,,,,,,,,,,,,,,,,,,,AMNE20.jpg,AMSA02.jpg,AMSA06.jpg,AMNE03.jpg,AMNE03.jpg,MN,1,num_4,16,num_4,0.650160465855,,,2017_Jul_11_1545,60.002540383,FEMA4ImagesEEG,001,200886,
AFNE01.JPG,AFNE01.JPG,AFNE01.JPG,AFNE01.JPG,AFNE01.JPG,AFNE01.JPG,,,,,5,8,58,6,,,,,,,,,,,,,,,,,,,AMNE20.jpg,AMNE09.jpg,AMSA13.jpg,AMSA05.jpg,AMSA13.jpg,MS,2,num_2,16,num_2,1.56673780666,,,2017_Jul_11_1545,60.002540383,FEMA4ImagesEEG,001,200886,
AFNE01.JPG,AFNE01.JPG,AFNE01.JPG,AFNE01.JPG,AFNE01.JPG,AFNE01.JPG,,,,,5,9,59,4,,,,,,,,,,,,,,,,,,,AMSA04.jpg,AMNE09.jpg,AMNE19.jpg,AMSA17.jpg,AMSA04.jpg,MS,2,num_8,32,num_2,2.56666948926,,,2017_Jul_11_1545,60.002540383,FEMA4ImagesEEG,001,200886,
,,,,,,,,,,,,,,,,,,,,,,,,,,,,,,,,,,,,,,,,,,,space,2.29998608003,2017_Jul_11_1545,60.002540383,FEMA4ImagesEEG,001,200886,
AFNE01.JPG,AFNE01.JPG,AFNE01.JPG,AFNE01.JPG,AFNE01.JPG,AFNE01.JPG,,,,,,,,,0,0,0,5,,,,,,,,,,,,,,,AFSA16.jpg,AFNE06.jpg,AFSA06.jpg,AFNE09.jpg,AFSA06.jpg,FS,4,num_2,32,num_6,1.35010863421,,,2017_Jul_11_1545,60.002540383,FEMA4ImagesEEG,001,200886,
AFNE01.JPG,AFNE01.JPG,AFNE01.JPG,AFNE01.JPG,AFNE01.JPG,AFNE01.JPG,,,,,,,,,0,1,1,6,,,,,,,,,,,,,,,AFSA06.jpg,AFNE20.jpg,AFSA01.jpg,AFNE16.jpg,AFNE16.jpg,FN,3,num_4,16,num_4,0.600171980215,,,2017_Jul_11_1545,60.002540383,FEMA4ImagesEEG,001,200886,
AFNE01.JPG,AFNE01.JPG,AFNE01.JPG,AFNE01.JPG,AFNE01.JPG,AFNE01.JPG,,,,,,,,,0,2,2,3,,,,,,,,,,,,,,,AFNE09.jpg,AFSA12.jpg,AFSA13.jpg,AFNE10.jpg,AFNE09.jpg,FN,3,num_8,32,num_6,0.750155398156,,,2017_Jul_11_1545,60.002540383,FEMA4ImagesEEG,001,200886,
AFNE01.JPG,AFNE01.JPG,AFNE01.JPG,AFNE01.JPG,AFNE01.JPG,AFNE01.JPG,,,,,,,,,0,3,3,9,,,,,,,,,,,,,,,AFNE03.jpg,AFNE05.jpg,AFSA12.jpg,AFSA19.jpg,AFNE05.jpg,FN,3,num_6,16,num_6,1.38343888847,,,2017_Jul_11_1545,60.002540383,FEMA4ImagesEEG,001,200886,
AFNE01.JPG,AFNE01.JPG,AFNE01.JPG,AFNE01.JPG,AFNE01.JPG,AFNE01.JPG,,,,,,,,,0,4,4,8,,,,,,,,,,,,,,,AFSA17.jpg,AFNE03.jpg,AFSA08.jpg,AFNE04.jpg,AFNE03.jpg,FN,3,num_6,32,num_2,1.95000125095,,,2017_Jul_11_1545,60.002540383,FEMA4ImagesEEG,001,200886,
AFNE01.JPG,AFNE01.JPG,AFNE01.JPG,AFNE01.JPG,AFNE01.JPG,AFNE01.JPG,,,,,,,,,0,5,5,7,,,,,,,,,,,,,,,AFSA14.jpg,AFSA09.jpg,AFNE20.jpg,AFNE14.jpg,AFNE20.jpg,FN,3,num_2,16,num_2,1.06677565374,,,2017_Jul_11_1545,60.002540383,FEMA4ImagesEEG,001,200886,
AFNE01.JPG,AFNE01.JPG,AFNE01.JPG,AFNE01.JPG,AFNE01.JPG,AFNE01.JPG,,,,,,,,,0,6,6,1,,,,,,,,,,,,,,,AFSA03.jpg,AFNE20.jpg,AFSA08.jpg,AFNE01.jpg,AFSA08.jpg,FS,4,num_2,16,num_2,0.900007312885,,,2017_Jul_11_1545,60.002540383,FEMA4ImagesEEG,001,200886,
AFNE01.JPG,AFNE01.JPG,AFNE01.JPG,AFNE01.JPG,AFNE01.JPG,AFNE01.JPG,,,,,,,,,0,7,7,2,,,,,,,,,,,,,,,AFNE10.jpg,AFNE16.jpg,AFSA10.jpg,AFSA02.jpg,AFSA10.jpg,FS,4,num_2,32,num_8,0.70012425445,,,2017_Jul_11_1545,60.002540383,FEMA4ImagesEEG,001,200886,
AFNE01.JPG,AFNE01.JPG,AFNE01.JPG,AFNE01.JPG,AFNE01.JPG,AFNE01.JPG,,,,,,,,,0,8,8,0,,,,,,,,,,,,,,,AFSA02.jpg,AFNE02.jpg,AFSA19.jpg,AFNE10.jpg,AFSA02.jpg,FS,4,num_8,16,num_8,0.816802114714,,,2017_Jul_11_1545,60.002540383,FEMA4ImagesEEG,001,200886,
AFNE01.JPG,AFNE01.JPG,AFNE01.JPG,AFNE01.JPG,AFNE01.JPG,AFNE01.JPG,,,,,,,,,0,9,9,4,,,,,,,,,,,,,,,AFNE07.jpg,AFSA12.jpg,AFNE04.jpg,AFSA02.jpg,AFNE04.jpg,FN,3,num_2,32,num_6,0.850140708266,,,2017_Jul_11_1545,60.002540383,FEMA4ImagesEEG,001,200886,
AFNE01.JPG,AFNE01.JPG,AFNE01.JPG,AFNE01.JPG,AFNE01.JPG,AFNE01.JPG,,,,,,,,,1,0,10,3,,,,,,,,,,,,,,,AFSA08.jpg,AFSA05.jpg,AFNE13.jpg,AFNE09.jpg,AFNE09.jpg,FN,3,num_4,32,num_2,0.850182083668,,,2017_Jul_11_1545,60.002540383,FEMA4ImagesEEG,001,200886,
AFNE01.JPG,AFNE01.JPG,AFNE01.JPG,AFNE01.JPG,AFNE01.JPG,AFNE01.JPG,,,,,,,,,1,1,11,5,,,,,,,,,,,,,,,AFNE20.jpg,AFNE11.jpg,AFSA17.jpg,AFSA19.jpg,AFNE11.jpg,FN,3,num_6,16,num_6,0.566794898361,,,2017_Jul_11_1545,60.002540383,FEMA4ImagesEEG,001,200886,
AFNE01.JPG,AFNE01.JPG,AFNE01.JPG,AFNE01.JPG,AFNE01.JPG,AFNE01.JPG,,,,,,,,,1,2,12,8,,,,,,,,,,,,,,,AFNE09.jpg,AFSA01.jpg,AFSA16.jpg,AFNE10.jpg,AFSA01.jpg,FS,4,num_6,32,num_2,0.783509066328,,,2017_Jul_11_1545,60.002540383,FEMA4ImagesEEG,001,200886,
AFNE01.JPG,AFNE01.JPG,AFNE01.JPG,AFNE01.JPG,AFNE01.JPG,AFNE01.JPG,,,,,,,,,1,3,13,7,,,,,,,,,,,,,,,AFNE09.jpg,AFSA12.jpg,AFSA09.jpg,AFNE08.jpg,AFSA12.jpg,FS,4,num_6,16,num_6,1.00010520243,,,2017_Jul_11_1545,60.002540383,FEMA4ImagesEEG,001,200886,
AFNE01.JPG,AFNE01.JPG,AFNE01.JPG,AFNE01.JPG,AFNE01.JPG,AFNE01.JPG,,,,,,,,,1,4,14,9,,,,,,,,,,,,,,,AFNE02.jpg,AFNE13.jpg,AFSA20.jpg,AFSA11.jpg,AFNE02.jpg,FN,3,num_8,16,num_8,0.666824470274,,,2017_Jul_11_1545,60.002540383,FEMA4ImagesEEG,001,200886,
AFNE01.JPG,AFNE01.JPG,AFNE01.JPG,AFNE01.JPG,AFNE01.JPG,AFNE01.JPG,,,,,,,,,1,5,15,6,,,,,,,,,,,,,,,AFSA20.jpg,AFSA18.jpg,AFNE17.jpg,AFNE12.jpg,AFNE17.jpg,FN,3,num_2,16,num_2,1.7834195802,,,2017_Jul_11_1545,60.002540383,FEMA4ImagesEEG,001,200886,
AFNE01.JPG,AFNE01.JPG,AFNE01.JPG,AFNE01.JPG,AFNE01.JPG,AFNE01.JPG,,,,,,,,,1,6,16,1,,,,,,,,,,,,,,,AFSA18.jpg,AFNE16.jpg,AFSA09.jpg,AFNE05.jpg,AFSA09.jpg,FS,4,num_2,16,num_2,1.06681863288,,,2017_Jul_11_1545,60.002540383,FEMA4ImagesEEG,001,200886,
AFNE01.JPG,AFNE01.JPG,AFNE01.JPG,AFNE01.JPG,AFNE01.JPG,AFNE01.JPG,,,,,,,,,1,7,17,0,,,,,,,,,,,,,,,AFNE10.jpg,AFSA01.jpg,AFNE06.jpg,AFSA05.jpg,AFSA01.jpg,FS,4,num_6,16,num_6,1.01680384669,,,2017_Jul_11_1545,60.002540383,FEMA4ImagesEEG,001,200886,
AFNE01.JPG,AFNE01.JPG,AFNE01.JPG,AFNE01.JPG,AFNE01.JPG,AFNE01.JPG,,,,,,,,,1,8,18,2,,,,,,,,,,,,,,,AFNE13.jpg,AFNE11.jpg,AFSA05.jpg,AFSA20.jpg,AFSA20.jpg,FS,4,num_4,32,num_8,0.966775268782,,,2017_Jul_11_1545,60.002540383,FEMA4ImagesEEG,001,200886,
AFNE01.JPG,AFNE01.JPG,AFNE01.JPG,AFNE01.JPG,AFNE01.JPG,AFNE01.JPG,,,,,,,,,1,9,19,4,,,,,,,,,,,,,,,AFNE19.jpg,AFSA08.jpg,AFNE08.jpg,AFSA15.jpg,AFSA15.jpg,FS,4,num_4,16,num_4,0.616843682714,,,2017_Jul_11_1545,60.002540383,FEMA4ImagesEEG,001,200886,
AFNE01.JPG,AFNE01.JPG,AFNE01.JPG,AFNE01.JPG,AFNE01.JPG,AFNE01.JPG,,,,,,,,,2,0,20,0,,,,,,,,,,,,,,,AFSA20.jpg,AFNE01.jpg,AFNE04.jpg,AFSA18.jpg,AFSA20.jpg,FS,4,num_8,32,num_2,1.78327877563,,,2017_Jul_11_1545,60.002540383,FEMA4ImagesEEG,001,200886,
AFNE01.JPG,AFNE01.JPG,AFNE01.JPG,AFNE01.JPG,AFNE01.JPG,AFNE01.JPG,,,,,,,,,2,1,21,7,,,,,,,,,,,,,,,AFSA04.jpg,AFNE08.jpg,AFNE13.jpg,AFSA06.jpg,AFNE13.jpg,FN,3,num_2,32,num_4,0.816754645435,,,2017_Jul_11_1545,60.002540383,FEMA4ImagesEEG,001,200886,
AFNE01.JPG,AFNE01.JPG,AFNE01.JPG,AFNE01.JPG,AFNE01.JPG,AFNE01.JPG,,,,,,,,,2,2,22,3,,,,,,,,,,,,,,,AFNE04.jpg,AFSA03.jpg,AFSA14.jpg,AFNE09.jpg,AFSA03.jpg,FS,4,num_6,16,num_6,0.650184521452,,,2017_Jul_11_1545,60.002540383,FEMA4ImagesEEG,001,200886,
AFNE01.JPG,AFNE01.JPG,AFNE01.JPG,AFNE01.JPG,AFNE01.JPG,AFNE01.JPG,,,,,,,,,2,3,23,4,,,,,,,,,,,,,,,AFSA12.jpg,AFNE17.jpg,AFSA01.jpg,AFNE20.jpg,AFNE20.jpg,FN,3,num_4,16,num_4,1.05002601189,,,2017_Jul_11_1545,60.002540383,FEMA4ImagesEEG,001,200886,
AFNE01.JPG,AFNE01.JPG,AFNE01.JPG,AFNE01.JPG,AFNE01.JPG,AFNE01.JPG,,,,,,,,,2,4,24,1,,,,,,,,,,,,,,,AFSA14.jpg,AFNE08.jpg,AFNE20.jpg,AFSA18.jpg,AFNE20.jpg,FN,3,num_2,16,num_2,0.666866166517,,,2017_Jul_11_1545,60.002540383,FEMA4ImagesEEG,001,200886,
AFNE01.JPG,AFNE01.JPG,AFNE01.JPG,AFNE01.JPG,AFNE01.JPG,AFNE01.JPG,,,,,,,,,2,5,25,5,,,,,,,,,,,,,,,AFNE08.jpg,AFSA12.jpg,AFSA16.jpg,AFNE12.jpg,AFSA12.jpg,FS,4,num_6,16,num_6,0.816776455613,,,2017_Jul_11_1545,60.002540383,FEMA4ImagesEEG,001,200886,
AFNE01.JPG,AFNE01.JPG,AFNE01.JPG,AFNE01.JPG,AFNE01.JPG,AFNE01.JPG,,,,,,,,,2,6,26,9,,,,,,,,,,,,,,,AFSA13.jpg,AFSA11.jpg,AFNE08.jpg,AFNE12.jpg,AFSA13.jpg,FS,4,num_8,32,num_6,0.983423877973,,,2017_Jul_11_1545,60.002540383,FEMA4ImagesEEG,001,200886,
AFNE01.JPG,AFNE01.JPG,AFNE01.JPG,AFNE01.JPG,AFNE01.JPG,AFNE01.JPG,,,,,,,,,2,7,27,8,,,,,,,,,,,,,,,AFNE04.jpg,AFSA18.jpg,AFNE05.jpg,AFSA14.jpg,AFSA18.jpg,FS,4,num_6,16,num_6,0.850045128027,,,2017_Jul_11_1545,60.002540383,FEMA4ImagesEEG,001,200886,
AFNE01.JPG,AFNE01.JPG,AFNE01.JPG,AFNE01.JPG,AFNE01.JPG,AFNE01.JPG,,,,,,,,,2,8,28,2,,,,,,,,,,,,,,,AFSA07.jpg,AFSA01.jpg,AFNE04.jpg,AFNE07.jpg,AFSA01.jpg,FS,4,num_6,16,num_6,1.76667282498,,,2017_Jul_11_1545,60.002540383,FEMA4ImagesEEG,001,200886,
AFNE01.JPG,AFNE01.JPG,AFNE01.JPG,AFNE01.JPG,AFNE01.JPG,AFNE01.JPG,,,,,,,,,2,9,29,6,,,,,,,,,,,,,,,AFSA10.jpg,AFNE17.jpg,AFNE07.jpg,AFSA20.jpg,AFNE07.jpg,FN,3,num_2,32,num_8,0.800112451194,,,2017_Jul_11_1545,60.002540383,FEMA4ImagesEEG,001,200886,
AFNE01.JPG,AFNE01.JPG,AFNE01.JPG,AFNE01.JPG,AFNE01.JPG,AFNE01.JPG,,,,,,,,,3,0,30,9,,,,,,,,,,,,,,,AFNE19.jpg,AFNE09.jpg,AFSA05.jpg,AFSA20.jpg,AFNE19.jpg,FN,3,num_8,16,num_8,0.933478371473,,,2017_Jul_11_1545,60.002540383,FEMA4ImagesEEG,001,200886,
AFNE01.JPG,AFNE01.JPG,AFNE01.JPG,AFNE01.JPG,AFNE01.JPG,AFNE01.JPG,,,,,,,,,3,1,31,1,,,,,,,,,,,,,,,AFSA16.jpg,AFNE01.jpg,AFNE05.jpg,AFSA19.jpg,AFNE05.jpg,FN,3,num_2,16,num_2,0.733474073699,,,2017_Jul_11_1545,60.002540383,FEMA4ImagesEEG,001,200886,
AFNE01.JPG,AFNE01.JPG,AFNE01.JPG,AFNE01.JPG,AFNE01.JPG,AFNE01.JPG,,,,,,,,,3,2,32,0,,,,,,,,,,,,,,,AFSA14.jpg,AFNE08.jpg,AFNE12.jpg,AFSA05.jpg,AFNE08.jpg,FN,3,num_6,16,num_6,0.833468685392,,,2017_Jul_11_1545,60.002540383,FEMA4ImagesEEG,001,200886,
AFNE01.JPG,AFNE01.JPG,AFNE01.JPG,AFNE01.JPG,AFNE01.JPG,AFNE01.JPG,,,,,,,,,3,3,33,5,,,,,,,,,,,,,,,AFNE05.jpg,AFSA18.jpg,AFSA02.jpg,AFNE15.jpg,AFNE15.jpg,FN,3,num_4,16,num_4,0.583487769356,,,2017_Jul_11_1545,60.002540383,FEMA4ImagesEEG,001,200886,
AFNE01.JPG,AFNE01.JPG,AFNE01.JPG,AFNE01.JPG,AFNE01.JPG,AFNE01.JPG,,,,,,,,,3,4,34,2,,,,,,,,,,,,,,,AFSA01.jpg,AFNE05.jpg,AFSA15.jpg,AFNE04.jpg,AFNE05.jpg,FN,3,num_6,16,num_6,0.566696110647,,,2017_Jul_11_1545,60.002540383,FEMA4ImagesEEG,001,200886,
AFNE01.JPG,AFNE01.JPG,AFNE01.JPG,AFNE01.JPG,AFNE01.JPG,AFNE01.JPG,,,,,,,,,3,5,35,8,,,,,,,,,,,,,,,AFSA15.jpg,AFNE03.jpg,AFSA10.jpg,AFNE15.jpg,AFSA10.jpg,FS,4,num_2,16,num_2,1.01682437421,,,2017_Jul_11_1545,60.002540383,FEMA4ImagesEEG,001,200886,
AFNE01.JPG,AFNE01.JPG,AFNE01.JPG,AFNE01.JPG,AFNE01.JPG,AFNE01.JPG,,,,,,,,,3,6,36,7,,,,,,,,,,,,,,,AFSA19.jpg,AFNE18.jpg,AFNE06.jpg,AFSA06.jpg,AFNE18.jpg,FN,3,num_6,16,num_6,1.38344241679,,,2017_Jul_11_1545,60.002540383,FEMA4ImagesEEG,001,200886,
AFNE01.JPG,AFNE01.JPG,AFNE01.JPG,AFNE01.JPG,AFNE01.JPG,AFNE01.JPG,,,,,,,,,3,7,37,3,,,,,,,,,,,,,,,AFSA03.jpg,AFSA15.jpg,AFNE03.jpg,AFNE15.jpg,AFNE03.jpg,FN,3,num_2,16,num_2,1.08349354239,,,2017_Jul_11_1545,60.002540383,FEMA4ImagesEEG,001,200886,
AFNE01.JPG,AFNE01.JPG,AFNE01.JPG,AFNE01.JPG,AFNE01.JPG,AFNE01.JPG,,,,,,,,,3,8,38,6,,,,,,,,,,,,,,,AFNE08.jpg,AFNE18.jpg,AFSA05.jpg,AFSA20.jpg,AFNE18.jpg,FN,3,num_6,16,num_6,0.666825111955,,,2017_Jul_11_1545,60.002540383,FEMA4ImagesEEG,001,200886,
AFNE01.JPG,AFNE01.JPG,AFNE01.JPG,AFNE01.JPG,AFNE01.JPG,AFNE01.JPG,,,,,,,,,3,9,39,4,,,,,,,,,,,,,,,AFSA02.jpg,AFNE01.jpg,AFNE02.jpg,AFSA18.jpg,AFNE01.jpg,FN,3,num_6,16,num_6,1.03329465212,,,2017_Jul_11_1545,60.002540383,FEMA4ImagesEEG,001,200886,
AFNE01.JPG,AFNE01.JPG,AFNE01.JPG,AFNE01.JPG,AFNE01.JPG,AFNE01.JPG,,,,,,,,,4,0,40,2,,,,,,,,,,,,,,,AFNE10.jpg,AFNE03.jpg,AFSA01.jpg,AFSA08.jpg,AFNE03.jpg,FN,3,num_6,16,num_6,1.20012393361,,,2017_Jul_11_1545,60.002540383,FEMA4ImagesEEG,001,200886,
AFNE01.JPG,AFNE01.JPG,AFNE01.JPG,AFNE01.JPG,AFNE01.JPG,AFNE01.JPG,,,,,,,,,4,1,41,9,,,,,,,,,,,,,,,AFNE19.jpg,AFNE13.jpg,AFSA13.jpg,AFSA15.jpg,AFSA13.jpg,FS,4,num_2,16,num_2,0.716833162354,,,2017_Jul_11_1545,60.002540383,FEMA4ImagesEEG,001,200886,
AFNE01.JPG,AFNE01.JPG,AFNE01.JPG,AFNE01.JPG,AFNE01.JPG,AFNE01.JPG,,,,,,,,,4,2,42,0,,,,,,,,,,,,,,,AFNE17.jpg,AFNE01.jpg,AFSA09.jpg,AFSA02.jpg,AFNE17.jpg,FN,3,num_8,32,num_6,0.816820076201,,,2017_Jul_11_1545,60.002540383,FEMA4ImagesEEG,001,200886,
AFNE01.JPG,AFNE01.JPG,AFNE01.JPG,AFNE01.JPG,AFNE01.JPG,AFNE01.JPG,,,,,,,,,4,3,43,1,,,,,,,,,,,,,,,AFNE17.jpg,AFSA18.jpg,AFNE03.jpg,AFSA05.jpg,AFSA05.jpg,FS,4,num_4,32,num_6,0.966752817156,,,2017_Jul_11_1545,60.002540383,FEMA4ImagesEEG,001,200886,
AFNE01.JPG,AFNE01.JPG,AFNE01.JPG,AFNE01.JPG,AFNE01.JPG,AFNE01.JPG,,,,,,,,,4,4,44,8,,,,,,,,,,,,,,,AFNE13.jpg,AFNE03.jpg,AFSA16.jpg,AFSA12.jpg,AFSA16.jpg,FS,4,num_2,32,num_6,0.716458539013,,,2017_Jul_11_1545,60.002540383,FEMA4ImagesEEG,001,200886,
AFNE01.JPG,AFNE01.JPG,AFNE01.JPG,AFNE01.JPG,AFNE01.JPG,AFNE01.JPG,,,,,,,,,4,5,45,7,,,,,,,,,,,,,,,AFSA16.jpg,AFSA15.jpg,AFNE01.jpg,AFNE10.jpg,AFSA15.jpg,FS,4,num_6,16,num_6,1.20008865232,,,2017_Jul_11_1545,60.002540383,FEMA4ImagesEEG,001,200886,
AFNE01.JPG,AFNE01.JPG,AFNE01.JPG,AFNE01.JPG,AFNE01.JPG,AFNE01.JPG,,,,,,,,,4,6,46,3,,,,,,,,,,,,,,,AFNE03.jpg,AFSA03.jpg,AFNE14.jpg,AFSA08.jpg,AFSA03.jpg,FS,4,num_6,16,num_6,0.766798875295,,,2017_Jul_11_1545,60.002540383,FEMA4ImagesEEG,001,200886,
AFNE01.JPG,AFNE01.JPG,AFNE01.JPG,AFNE01.JPG,AFNE01.JPG,AFNE01.JPG,,,,,,,,,4,7,47,4,,,,,,,,,,,,,,,AFSA11.jpg,AFNE11.jpg,AFNE13.jpg,AFSA17.jpg,AFSA17.jpg,FS,4,num_4,32,num_2,0.86675499822,,,2017_Jul_11_1545,60.002540383,FEMA4ImagesEEG,001,200886,
AFNE01.JPG,AFNE01.JPG,AFNE01.JPG,AFNE01.JPG,AFNE01.JPG,AFNE01.JPG,,,,,,,,,4,8,48,5,,,,,,,,,,,,,,,AFSA13.jpg,AFNE15.jpg,AFSA07.jpg,AFNE20.jpg,AFNE15.jpg,FN,3,num_6,16,num_6,0.983465894824,,,2017_Jul_11_1545,60.002540383,FEMA4ImagesEEG,001,200886,
AFNE01.JPG,AFNE01.JPG,AFNE01.JPG,AFNE01.JPG,AFNE01.JPG,AFNE01.JPG,,,,,,,,,4,9,49,6,,,,,,,,,,,,,,,AFSA11.jpg,AFSA04.jpg,AFNE14.jpg,AFNE06.jpg,AFNE14.jpg,FN,3,num_2,32,num_6,0.983408482512,,,2017_Jul_11_1545,60.002540383,FEMA4ImagesEEG,001,200886,
AFNE01.JPG,AFNE01.JPG,AFNE01.JPG,AFNE01.JPG,AFNE01.JPG,AFNE01.JPG,,,,,,,,,5,0,50,6,,,,,,,,,,,,,,,AFSA06.jpg,AFNE17.jpg,AFSA10.jpg,AFNE07.jpg,AFSA10.jpg,FS,4,num_2,16,num_2,0.566860329127,,,2017_Jul_11_1545,60.002540383,FEMA4ImagesEEG,001,200886,
AFNE01.JPG,AFNE01.JPG,AFNE01.JPG,AFNE01.JPG,AFNE01.JPG,AFNE01.JPG,,,,,,,,,5,1,51,2,,,,,,,,,,,,,,,AFSA05.jpg,AFNE13.jpg,AFSA14.jpg,AFNE10.jpg,AFSA05.jpg,FS,4,num_8,32,num_6,0.76677449909,,,2017_Jul_11_1545,60.002540383,FEMA4ImagesEEG,001,200886,
AFNE01.JPG,AFNE01.JPG,AFNE01.JPG,AFNE01.JPG,AFNE01.JPG,AFNE01.JPG,,,,,,,,,5,2,52,3,,,,,,,,,,,,,,,AFSA17.jpg,AFNE16.jpg,AFNE06.jpg,AFSA11.jpg,AFSA17.jpg,FS,4,num_8,16,num_8,1.43340941262,,,2017_Jul_11_1545,60.002540383,FEMA4ImagesEEG,001,200886,
AFNE01.JPG,AFNE01.JPG,AFNE01.JPG,AFNE01.JPG,AFNE01.JPG,AFNE01.JPG,,,,,,,,,5,3,53,5,,,,,,,,,,,,,,,AFSA04.jpg,AFNE03.jpg,AFSA12.jpg,AFNE18.jpg,AFNE18.jpg,FN,3,num_4,32,num_2,1.21672828053,,,2017_Jul_11_1545,60.002540383,FEMA4ImagesEEG,001,200886,
AFNE01.JPG,AFNE01.JPG,AFNE01.JPG,AFNE01.JPG,AFNE01.JPG,AFNE01.JPG,,,,,,,,,5,4,54,0,,,,,,,,,,,,,,,AFSA14.jpg,AFSA18.jpg,AFNE03.jpg,AFNE18.jpg,AFNE03.jpg,FN,3,num_2,16,num_2,0.766773857642,,,2017_Jul_11_1545,60.002540383,FEMA4ImagesEEG,001,200886,
AFNE01.JPG,AFNE01.JPG,AFNE01.JPG,AFNE01.JPG,AFNE01.JPG,AFNE01.JPG,,,,,,,,,5,5,55,7,,,,,,,,,,,,,,,AFNE02.jpg,AFSA14.jpg,AFSA17.jpg,AFNE20.jpg,AFSA17.jpg,FS,4,num_2,16,num_2,0.83349562739,,,2017_Jul_11_1545,60.002540383,FEMA4ImagesEEG,001,200886,
AFNE01.JPG,AFNE01.JPG,AFNE01.JPG,AFNE01.JPG,AFNE01.JPG,AFNE01.JPG,,,,,,,,,5,6,56,8,,,,,,,,,,,,,,,AFSA07.jpg,AFNE08.jpg,AFNE05.jpg,AFSA16.jpg,AFSA07.jpg,FS,4,num_8,32,num_6,0.750120758312,,,2017_Jul_11_1545,60.002540383,FEMA4ImagesEEG,001,200886,
AFNE01.JPG,AFNE01.JPG,AFNE01.JPG,AFNE01.JPG,AFNE01.JPG,AFNE01.JPG,,,,,,,,,5,7,57,1,,,,,,,,,,,,,,,AFSA04.jpg,AFNE19.jpg,AFNE01.jpg,AFSA05.jpg,AFNE01.jpg,FN,3,num_2,16,num_2,0.933485748712,,,2017_Jul_11_1545,60.002540383,FEMA4ImagesEEG,001,200886,
AFNE01.JPG,AFNE01.JPG,AFNE01.JPG,AFNE01.JPG,AFNE01.JPG,AFNE01.JPG,,,,,,,,,5,8,58,9,,,,,,,,,,,,,,,AFNE05.jpg,AFSA07.jpg,AFSA15.jpg,AFNE09.jpg,AFNE09.jpg,FN,3,num_4,32,num_6,0.683748915093,,,2017_Jul_11_1545,60.002540383,FEMA4ImagesEEG,001,200886,
AFNE01.JPG,AFNE01.JPG,AFNE01.JPG,AFNE01.JPG,AFNE01.JPG,AFNE01.JPG,,,,,,,,,5,9,59,4,,,,,,,,,,,,,,,AFNE17.jpg,AFSA16.jpg,AFSA04.jpg,AFNE11.jpg,AFNE17.jpg,FN,3,num_8,16,num_8,0.61677151639,,,2017_Jul_11_1545,60.002540383,FEMA4ImagesEEG,001,200886,
,,,,,,,,,,,,,,,,,,,,,,,,,,,,,,,,,,,,,,,,,,,space,2.10003470397,2017_Jul_11_1545,60.002540383,FEMA4ImagesEEG,001,200886,
AFNE01.JPG,AFNE01.JPG,AFNE01.JPG,AFNE01.JPG,AFNE01.JPG,AFNE01.JPG,,,,,,,,,,,,,0,0,0,4,,,,,,,,,,,AMSA01.jpg,AMSA15.jpg,AMNE04.jpg,AMNE05.jpg,AMSA15.jpg,MS,2,num_6,16,num_6,0.866770714521,,,2017_Jul_11_1545,60.002540383,FEMA4ImagesEEG,001,200886,
AFNE01.JPG,AFNE01.JPG,AFNE01.JPG,AFNE01.JPG,AFNE01.JPG,AFNE01.JPG,,,,,,,,,,,,,0,1,1,5,,,,,,,,,,,AMNE13.jpg,AMSA15.jpg,AMNE19.jpg,AMSA03.jpg,AMSA03.jpg,MS,2,num_4,16,num_4,0.733495242428,,,2017_Jul_11_1545,60.002540383,FEMA4ImagesEEG,001,200886,
AFNE01.JPG,AFNE01.JPG,AFNE01.JPG,AFNE01.JPG,AFNE01.JPG,AFNE01.JPG,,,,,,,,,,,,,0,2,2,8,,,,,,,,,,,AMNE02.jpg,AMSA16.jpg,AMSA08.jpg,AMNE20.jpg,AMSA16.jpg,MS,2,num_6,16,num_6,0.566791370278,,,2017_Jul_11_1545,60.002540383,FEMA4ImagesEEG,001,200886,
AFNE01.JPG,AFNE01.JPG,AFNE01.JPG,AFNE01.JPG,AFNE01.JPG,AFNE01.JPG,,,,,,,,,,,,,0,3,3,7,,,,,,,,,,,AMSA08.jpg,AMNE02.jpg,AMSA19.jpg,AMNE19.jpg,AMNE02.jpg,MN,1,num_6,16,num_6,0.800139714032,,,2017_Jul_11_1545,60.002540383,FEMA4ImagesEEG,001,200886,
AFNE01.JPG,AFNE01.JPG,AFNE01.JPG,AFNE01.JPG,AFNE01.JPG,AFNE01.JPG,,,,,,,,,,,,,0,4,4,1,,,,,,,,,,,AMSA19.jpg,AMNE16.jpg,AMSA16.jpg,AMNE15.jpg,AMSA19.jpg,MS,2,num_8,32,num_6,0.766762311105,,,2017_Jul_11_1545,60.002540383,FEMA4ImagesEEG,001,200886,
AFNE01.JPG,AFNE01.JPG,AFNE01.JPG,AFNE01.JPG,AFNE01.JPG,AFNE01.JPG,,,,,,,,,,,,,0,5,5,9,,,,,,,,,,,AMSA03.jpg,AMSA08.jpg,AMNE20.jpg,AMNE10.jpg,AMSA03.jpg,MS,2,num_8,32,num_6,0.616814495297,,,2017_Jul_11_1545,60.002540383,FEMA4ImagesEEG,001,200886,
AFNE01.JPG,AFNE01.JPG,AFNE01.JPG,AFNE01.JPG,AFNE01.JPG,AFNE01.JPG,,,,,,,,,,,,,0,6,6,3,,,,,,,,,,,AMSA09.jpg,AMSA08.jpg,AMNE14.jpg,AMNE19.jpg,AMSA08.jpg,MS,2,num_6,32,num_8,0.933418393368,,,2017_Jul_11_1545,60.002540383,FEMA4ImagesEEG,001,200886,
AFNE01.JPG,AFNE01.JPG,AFNE01.JPG,AFNE01.JPG,AFNE01.JPG,AFNE01.JPG,,,,,,,,,,,,,0,7,7,6,,,,,,,,,,,AMSA17.jpg,AMSA06.jpg,AMNE06.jpg,AMNE13.jpg,AMSA17.jpg,MS,2,num_8,16,num_8,0.700146064628,,,2017_Jul_11_1545,60.002540383,FEMA4ImagesEEG,001,200886,
AFNE01.JPG,AFNE01.JPG,AFNE01.JPG,AFNE01.JPG,AFNE01.JPG,AFNE01.JPG,,,,,,,,,,,,,0,8,8,2,,,,,,,,,,,AMSA02.jpg,AMSA10.jpg,AMNE07.jpg,AMNE01.jpg,AMSA10.jpg,MS,2,num_6,16,num_6,1.00011931499,,,2017_Jul_11_1545,60.002540383,FEMA4ImagesEEG,001,200886,
AFNE01.JPG,AFNE01.JPG,AFNE01.JPG,AFNE01.JPG,AFNE01.JPG,AFNE01.JPG,,,,,,,,,,,,,0,9,9,0,,,,,,,,,,,AMNE06.jpg,AMSA17.jpg,AMNE01.jpg,AMSA16.jpg,AMNE06.jpg,MN,1,num_8,32,num_2,0.950176374521,,,2017_Jul_11_1545,60.002540383,FEMA4ImagesEEG,001,200886,
AFNE01.JPG,AFNE01.JPG,AFNE01.JPG,AFNE01.JPG,AFNE01.JPG,AFNE01.JPG,,,,,,,,,,,,,1,0,10,0,,,,,,,,,,,AMNE20.jpg,AMNE09.jpg,AMSA09.jpg,AMSA10.jpg,AMSA09.jpg,MS,2,num_2,32,num_6,4.06651393068,,,2017_Jul_11_1545,60.002540383,FEMA4ImagesEEG,001,200886,
AFNE01.JPG,AFNE01.JPG,AFNE01.JPG,AFNE01.JPG,AFNE01.JPG,AFNE01.JPG,,,,,,,,,,,,,1,1,11,8,,,,,,,,,,,AMSA06.jpg,AMSA17.jpg,AMNE18.jpg,AMNE15.jpg,AMNE15.jpg,MN,1,num_4,48,None,,,,2017_Jul_11_1545,60.002540383,FEMA4ImagesEEG,001,200886,
AFNE01.JPG,AFNE01.JPG,AFNE01.JPG,AFNE01.JPG,AFNE01.JPG,AFNE01.JPG,,,,,,,,,,,,,1,2,12,3,,,,,,,,,,,AMSA09.jpg,AMNE18.jpg,AMSA13.jpg,AMNE05.jpg,AMSA13.jpg,MS,2,num_2,32,num_6,0.850072711473,,,2017_Jul_11_1545,60.002540383,FEMA4ImagesEEG,001,200886,
AFNE01.JPG,AFNE01.JPG,AFNE01.JPG,AFNE01.JPG,AFNE01.JPG,AFNE01.JPG,,,,,,,,,,,,,1,3,13,4,,,,,,,,,,,AMSA10.jpg,AMSA13.jpg,AMNE19.jpg,AMNE01.jpg,AMNE01.jpg,MN,1,num_4,16,num_4,1.15007546986,,,2017_Jul_11_1545,60.002540383,FEMA4ImagesEEG,001,200886,
AFNE01.JPG,AFNE01.JPG,AFNE01.JPG,AFNE01.JPG,AFNE01.JPG,AFNE01.JPG,,,,,,,,,,,,,1,4,14,7,,,,,,,,,,,AMNE13.jpg,AMSA08.jpg,AMSA13.jpg,AMNE05.jpg,AMNE05.jpg,MN,1,num_4,32,num_2,0.900124061853,,,2017_Jul_11_1545,60.002540383,FEMA4ImagesEEG,001,200886,
AFNE01.JPG,AFNE01.JPG,AFNE01.JPG,AFNE01.JPG,AFNE01.JPG,AFNE01.JPG,,,,,,,,,,,,,1,5,15,1,,,,,,,,,,,AMSA17.jpg,AMNE19.jpg,AMNE18.jpg,AMSA12.jpg,AMNE19.jpg,MN,1,num_6,32,num_4,0.733519939473,,,2017_Jul_11_1545,60.002540383,FEMA4ImagesEEG,001,200886,
AFNE01.JPG,AFNE01.JPG,AFNE01.JPG,AFNE01.JPG,AFNE01.JPG,AFNE01.JPG,,,,,,,,,,,,,1,6,16,9,,,,,,,,,,,AMSA05.jpg,AMNE20.jpg,AMNE03.jpg,AMSA02.jpg,AMSA05.jpg,MS,2,num_8,32,num_4,1.21641171118,,,2017_Jul_11_1545,60.002540383,FEMA4ImagesEEG,001,200886,
AFNE01.JPG,AFNE01.JPG,AFNE01.JPG,AFNE01.JPG,AFNE01.JPG,AFNE01.JPG,,,,,,,,,,,,,1,7,17,6,,,,,,,,,,,AMNE18.jpg,AMNE17.jpg,AMSA13.jpg,AMSA08.jpg,AMNE17.jpg,MN,1,num_6,16,num_6,0.933320567943,,,2017_Jul_11_1545,60.002540383,FEMA4ImagesEEG,001,200886,
AFNE01.JPG,AFNE01.JPG,AFNE01.JPG,AFNE01.JPG,AFNE01.JPG,AFNE01.JPG,,,,,,,,,,,,,1,8,18,2,,,,,,,,,,,AMNE05.jpg,AMSA12.jpg,AMNE20.jpg,AMSA04.jpg,AMSA12.jpg,MS,2,num_6,32,num_4,1.26677834801,,,2017_Jul_11_1545,60.002540383,FEMA4ImagesEEG,001,200886,
AFNE01.JPG,AFNE01.JPG,AFNE01.JPG,AFNE01.JPG,AFNE01.JPG,AFNE01.JPG,,,,,,,,,,,,,1,9,19,5,,,,,,,,,,,AMSA08.jpg,AMSA09.jpg,AMNE17.jpg,AMNE05.jpg,AMSA08.jpg,MS,2,num_8,32,num_6,0.916834894335,,,2017_Jul_11_1545,60.002540383,FEMA4ImagesEEG,001,200886,
AFNE01.JPG,AFNE01.JPG,AFNE01.JPG,AFNE01.JPG,AFNE01.JPG,AFNE01.JPG,,,,,,,,,,,,,2,0,20,7,,,,,,,,,,,AMNE16.jpg,AMSA18.jpg,AMSA08.jpg,AMNE10.jpg,AMNE16.jpg,MN,1,num_8,16,num_8,0.666814848082,,,2017_Jul_11_1545,60.002540383,FEMA4ImagesEEG,001,200886,
AFNE01.JPG,AFNE01.JPG,AFNE01.JPG,AFNE01.JPG,AFNE01.JPG,AFNE01.JPG,,,,,,,,,,,,,2,1,21,4,,,,,,,,,,,AMNE16.jpg,AMSA02.jpg,AMSA15.jpg,AMNE01.jpg,AMSA02.jpg,MS,2,num_6,16,num_6,1.23346252716,,,2017_Jul_11_1545,60.002540383,FEMA4ImagesEEG,001,200886,
AFNE01.JPG,AFNE01.JPG,AFNE01.JPG,AFNE01.JPG,AFNE01.JPG,AFNE01.JPG,,,,,,,,,,,,,2,2,22,6,,,,,,,,,,,AMSA18.jpg,AMNE09.jpg,AMSA14.jpg,AMNE19.jpg,AMNE09.jpg,MN,1,num_6,16,num_6,0.700178138679,,,2017_Jul_11_1545,60.002540383,FEMA4ImagesEEG,001,200886,
AFNE01.JPG,AFNE01.JPG,AFNE01.JPG,AFNE01.JPG,AFNE01.JPG,AFNE01.JPG,,,,,,,,,,,,,2,3,23,8,,,,,,,,,,,AMSA15.jpg,AMNE06.jpg,AMNE14.jpg,AMSA20.jpg,AMNE14.jpg,MN,1,num_2,16,num_2,0.783439145191,,,2017_Jul_11_1545,60.002540383,FEMA4ImagesEEG,001,200886,
AFNE01.JPG,AFNE01.JPG,AFNE01.JPG,AFNE01.JPG,AFNE01.JPG,AFNE01.JPG,,,,,,,,,,,,,2,4,24,2,,,,,,,,,,,AMNE14.jpg,AMNE02.jpg,AMSA19.jpg,AMSA01.jpg,AMNE14.jpg,MN,1,num_8,16,num_8,0.766811384121,,,2017_Jul_11_1545,60.002540383,FEMA4ImagesEEG,001,200886,
AFNE01.JPG,AFNE01.JPG,AFNE01.JPG,AFNE01.JPG,AFNE01.JPG,AFNE01.JPG,,,,,,,,,,,,,2,5,25,5,,,,,,,,,,,AMNE07.jpg,AMNE05.jpg,AMSA08.jpg,AMSA17.jpg,AMSA17.jpg,MS,2,num_4,32,num_6,1.38342670049,,,2017_Jul_11_1545,60.002540383,FEMA4ImagesEEG,001,200886,
AFNE01.JPG,AFNE01.JPG,AFNE01.JPG,AFNE01.JPG,AFNE01.JPG,AFNE01.JPG,,,,,,,,,,,,,2,6,26,0,,,,,,,,,,,AMNE13.jpg,AMNE04.jpg,AMSA17.jpg,AMSA03.jpg,AMNE13.jpg,MN,1,num_8,16,num_8,1.38345428417,,,2017_Jul_11_1545,60.002540383,FEMA4ImagesEEG,001,200886,
AFNE01.JPG,AFNE01.JPG,AFNE01.JPG,AFNE01.JPG,AFNE01.JPG,AFNE01.JPG,,,,,,,,,,,,,2,7,27,3,,,,,,,,,,,AMNE03.jpg,AMSA17.jpg,AMSA14.jpg,AMNE16.jpg,AMSA14.jpg,MS,2,num_2,16,num_2,0.633184061386,,,2017_Jul_11_1545,60.002540383,FEMA4ImagesEEG,001,200886,
AFNE01.JPG,AFNE01.JPG,AFNE01.JPG,AFNE01.JPG,AFNE01.JPG,AFNE01.JPG,,,,,,,,,,,,,2,8,28,1,,,,,,,,,,,AMNE08.jpg,AMNE11.jpg,AMSA20.jpg,AMSA01.jpg,AMNE08.jpg,MN,1,num_8,32,num_6,1.05006642523,,,2017_Jul_11_1545,60.002540383,FEMA4ImagesEEG,001,200886,
AFNE01.JPG,AFNE01.JPG,AFNE01.JPG,AFNE01.JPG,AFNE01.JPG,AFNE01.JPG,,,,,,,,,,,,,2,9,29,9,,,,,,,,,,,AMSA10.jpg,AMNE19.jpg,AMSA07.jpg,AMNE12.jpg,AMSA10.jpg,MS,2,num_8,32,num_6,1.28346448368,,,2017_Jul_11_1545,60.002540383,FEMA4ImagesEEG,001,200886,
AFNE01.JPG,AFNE01.JPG,AFNE01.JPG,AFNE01.JPG,AFNE01.JPG,AFNE01.JPG,,,,,,,,,,,,,3,0,30,6,,,,,,,,,,,AMSA03.jpg,AMSA06.jpg,AMNE18.jpg,AMNE09.jpg,AMNE18.jpg,MN,1,num_2,16,num_2,0.850117935799,,,2017_Jul_11_1545,60.002540383,FEMA4ImagesEEG,001,200886,
AFNE01.JPG,AFNE01.JPG,AFNE01.JPG,AFNE01.JPG,AFNE01.JPG,AFNE01.JPG,,,,,,,,,,,,,3,1,31,3,,,,,,,,,,,AMSA14.jpg,AMNE10.jpg,AMSA18.jpg,AMNE19.jpg,AMSA18.jpg,MS,2,num_2,32,num_6,1.48344921623,,,2017_Jul_11_1545,60.002540383,FEMA4ImagesEEG,001,200886,
AFNE01.JPG,AFNE01.JPG,AFNE01.JPG,AFNE01.JPG,AFNE01.JPG,AFNE01.JPG,,,,,,,,,,,,,3,2,32,7,,,,,,,,,,,AMSA17.jpg,AMSA14.jpg,AMNE05.jpg,AMNE09.jpg,AMSA17.jpg,MS,2,num_8,16,num_8,0.783477633726,,,2017_Jul_11_1545,60.002540383,FEMA4ImagesEEG,001,200886,
AFNE01.JPG,AFNE01.JPG,AFNE01.JPG,AFNE01.JPG,AFNE01.JPG,AFNE01.JPG,,,,,,,,,,,,,3,3,33,4,,,,,,,,,,,AMNE16.jpg,AMSA16.jpg,AMSA13.jpg,AMNE17.jpg,AMNE17.jpg,MN,1,num_4,16,num_4,0.983467177721,,,2017_Jul_11_1545,60.002540383,FEMA4ImagesEEG,001,200886,
AFNE01.JPG,AFNE01.JPG,AFNE01.JPG,AFNE01.JPG,AFNE01.JPG,AFNE01.JPG,,,,,,,,,,,,,3,4,34,1,,,,,,,,,,,AMNE14.jpg,AMNE20.jpg,AMSA05.jpg,AMSA10.jpg,AMSA10.jpg,MS,2,num_4,32,num_2,0.866749224951,,,2017_Jul_11_1545,60.002540383,FEMA4ImagesEEG,001,200886,
AFNE01.JPG,AFNE01.JPG,AFNE01.JPG,AFNE01.JPG,AFNE01.JPG,AFNE01.JPG,,,,,,,,,,,,,3,5,35,8,,,,,,,,,,,AMNE13.jpg,AMSA12.jpg,AMSA13.jpg,AMNE09.jpg,AMSA13.jpg,MS,2,num_2,32,num_4,1.00012348453,,,2017_Jul_11_1545,60.002540383,FEMA4ImagesEEG,001,200886,
AFNE01.JPG,AFNE01.JPG,AFNE01.JPG,AFNE01.JPG,AFNE01.JPG,AFNE01.JPG,,,,,,,,,,,,,3,6,36,2,,,,,,,,,,,AMSA07.jpg,AMSA20.jpg,AMNE02.jpg,AMNE06.jpg,AMNE02.jpg,MN,1,num_2,16,num_2,0.766771933297,,,2017_Jul_11_1545,60.002540383,FEMA4ImagesEEG,001,200886,
AFNE01.JPG,AFNE01.JPG,AFNE01.JPG,AFNE01.JPG,AFNE01.JPG,AFNE01.JPG,,,,,,,,,,,,,3,7,37,9,,,,,,,,,,,AMSA11.jpg,AMNE02.jpg,AMSA04.jpg,AMNE07.jpg,AMNE07.jpg,MN,1,num_4,16,num_4,0.699988260865,,,2017_Jul_11_1545,60.002540383,FEMA4ImagesEEG,001,200886,
AFNE01.JPG,AFNE01.JPG,AFNE01.JPG,AFNE01.JPG,AFNE01.JPG,AFNE01.JPG,,,,,,,,,,,,,3,8,38,0,,,,,,,,,,,AMNE12.jpg,AMSA07.jpg,AMSA01.jpg,AMNE03.jpg,AMSA01.jpg,MS,2,num_2,16,num_2,0.58350573061,,,2017_Jul_11_1545,60.002540383,FEMA4ImagesEEG,001,200886,
AFNE01.JPG,AFNE01.JPG,AFNE01.JPG,AFNE01.JPG,AFNE01.JPG,AFNE01.JPG,,,,,,,,,,,,,3,9,39,5,,,,,,,,,,,AMSA08.jpg,AMNE17.jpg,AMNE04.jpg,AMSA03.jpg,AMNE04.jpg,MN,1,num_2,16,num_2,0.900122137507,,,2017_Jul_11_1545,60.002540383,FEMA4ImagesEEG,001,200886,
AFNE01.JPG,AFNE01.JPG,AFNE01.JPG,AFNE01.JPG,AFNE01.JPG,AFNE01.JPG,,,,,,,,,,,,,4,0,40,3,,,,,,,,,,,AMNE12.jpg,AMNE08.jpg,AMSA16.jpg,AMSA18.jpg,AMNE12.jpg,MN,1,num_8,16,num_8,0.733485299395,,,2017_Jul_11_1545,60.002540383,FEMA4ImagesEEG,001,200886,
AFNE01.JPG,AFNE01.JPG,AFNE01.JPG,AFNE01.JPG,AFNE01.JPG,AFNE01.JPG,,,,,,,,,,,,,4,1,41,7,,,,,,,,,,,AMNE14.jpg,AMSA16.jpg,AMSA07.jpg,AMNE07.jpg,AMNE07.jpg,MN,1,num_4,32,num_2,0.750200301642,,,2017_Jul_11_1545,60.002540383,FEMA4ImagesEEG,001,200886,
AFNE01.JPG,AFNE01.JPG,AFNE01.JPG,AFNE01.JPG,AFNE01.JPG,AFNE01.JPG,,,,,,,,,,,,,4,2,42,4,,,,,,,,,,,AMNE13.jpg,AMSA04.jpg,AMSA13.jpg,AMNE01.jpg,AMNE13.jpg,MN,1,num_8,32,num_2,1.08345377096,,,2017_Jul_11_1545,60.002540383,FEMA4ImagesEEG,001,200886,
AFNE01.JPG,AFNE01.JPG,AFNE01.JPG,AFNE01.JPG,AFNE01.JPG,AFNE01.JPG,,,,,,,,,,,,,4,3,43,8,,,,,,,,,,,AMSA09.jpg,AMNE03.jpg,AMNE18.jpg,AMSA14.jpg,AMSA09.jpg,MS,2,num_8,16,num_8,1.25006591203,,,2017_Jul_11_1545,60.002540383,FEMA4ImagesEEG,001,200886,
AFNE01.JPG,AFNE01.JPG,AFNE01.JPG,AFNE01.JPG,AFNE01.JPG,AFNE01.JPG,,,,,,,,,,,,,4,4,44,9,,,,,,,,,,,AMSA02.jpg,AMNE09.jpg,AMSA06.jpg,AMNE12.jpg,AMNE09.jpg,MN,1,num_6,32,num_2,0.733478563838,,,2017_Jul_11_1545,60.002540383,FEMA4ImagesEEG,001,200886,
AFNE01.JPG,AFNE01.JPG,AFNE01.JPG,AFNE01.JPG,AFNE01.JPG,AFNE01.JPG,,,,,,,,,,,,,4,5,45,2,,,,,,,,,,,AMNE14.jpg,AMSA15.jpg,AMSA14.jpg,AMNE04.jpg,AMSA14.jpg,MS,2,num_2,16,num_2,0.716773825698,,,2017_Jul_11_1545,60.002540383,FEMA4ImagesEEG,001,200886,
AFNE01.JPG,AFNE01.JPG,AFNE01.JPG,AFNE01.JPG,AFNE01.JPG,AFNE01.JPG,,,,,,,,,,,,,4,6,46,0,,,,,,,,,,,AMSA06.jpg,AMNE12.jpg,AMSA19.jpg,AMNE16.jpg,AMNE16.jpg,MN,1,num_4,16,num_4,0.583452488063,,,2017_Jul_11_1545,60.002540383,FEMA4ImagesEEG,001,200886,
AFNE01.JPG,AFNE01.JPG,AFNE01.JPG,AFNE01.JPG,AFNE01.JPG,AFNE01.JPG,,,,,,,,,,,,,4,7,47,1,,,,,,,,,,,AMSA13.jpg,AMNE08.jpg,AMSA10.jpg,AMNE04.jpg,AMSA10.jpg,MS,2,num_2,16,num_2,0.883507847553,,,2017_Jul_11_1545,60.002540383,FEMA4ImagesEEG,001,200886,
AFNE01.JPG,AFNE01.JPG,AFNE01.JPG,AFNE01.JPG,AFNE01.JPG,AFNE01.JPG,,,,,,,,,,,,,4,8,48,6,,,,,,,,,,,AMSA06.jpg,AMSA18.jpg,AMNE15.jpg,AMNE19.jpg,AMNE15.jpg,MN,1,num_2,16,num_2,0.750191962346,,,2017_Jul_11_1545,60.002540383,FEMA4ImagesEEG,001,200886,
AFNE01.JPG,AFNE01.JPG,AFNE01.JPG,AFNE01.JPG,AFNE01.JPG,AFNE01.JPG,,,,,,,,,,,,,4,9,49,5,,,,,,,,,,,AMNE20.jpg,AMNE10.jpg,AMSA16.jpg,AMSA10.jpg,AMNE20.jpg,MN,1,num_8,16,num_8,1.23338458757,,,2017_Jul_11_1545,60.002540383,FEMA4ImagesEEG,001,200886,
AFNE01.JPG,AFNE01.JPG,AFNE01.JPG,AFNE01.JPG,AFNE01.JPG,AFNE01.JPG,,,,,,,,,,,,,5,0,50,2,,,,,,,,,,,AMNE02.jpg,AMNE04.jpg,AMSA14.jpg,AMSA20.jpg,AMSA14.jpg,MS,2,num_2,16,num_2,0.866767186206,,,2017_Jul_11_1545,60.002540383,FEMA4ImagesEEG,001,200886,
AFNE01.JPG,AFNE01.JPG,AFNE01.JPG,AFNE01.JPG,AFNE01.JPG,AFNE01.JPG,,,,,,,,,,,,,5,1,51,9,,,,,,,,,,,AMNE10.jpg,AMNE16.jpg,AMSA06.jpg,AMSA19.jpg,AMSA06.jpg,MS,2,num_2,32,num_4,1.40007787547,,,2017_Jul_11_1545,60.002540383,FEMA4ImagesEEG,001,200886,
AFNE01.JPG,AFNE01.JPG,AFNE01.JPG,AFNE01.JPG,AFNE01.JPG,AFNE01.JPG,,,,,,,,,,,,,5,2,52,8,,,,,,,,,,,AMSA08.jpg,AMNE11.jpg,AMNE02.jpg,AMSA07.jpg,AMNE11.jpg,MN,1,num_6,32,num_2,0.783432089025,,,2017_Jul_11_1545,60.002540383,FEMA4ImagesEEG,001,200886,
AFNE01.JPG,AFNE01.JPG,AFNE01.JPG,AFNE01.JPG,AFNE01.JPG,AFNE01.JPG,,,,,,,,,,,,,5,3,53,3,,,,,,,,,,,AMSA06.jpg,AMNE04.jpg,AMNE06.jpg,AMSA18.jpg,AMNE04.jpg,MN,1,num_6,16,num_6,0.75015924708,,,2017_Jul_11_1545,60.002540383,FEMA4ImagesEEG,001,200886,
AFNE01.JPG,AFNE01.JPG,AFNE01.JPG,AFNE01.JPG,AFNE01.JPG,AFNE01.JPG,,,,,,,,,,,,,5,4,54,7,,,,,,,,,,,AMNE06.jpg,AMSA06.jpg,AMSA08.jpg,AMNE15.jpg,AMNE06.jpg,MN,1,num_8,32,num_4,0.783493670868,,,2017_Jul_11_1545,60.002540383,FEMA4ImagesEEG,001,200886,
AFNE01.JPG,AFNE01.JPG,AFNE01.JPG,AFNE01.JPG,AFNE01.JPG,AFNE01.JPG,,,,,,,,,,,,,5,5,55,4,,,,,,,,,,,AMNE08.jpg,AMNE01.jpg,AMSA20.jpg,AMSA03.jpg,AMSA20.jpg,MS,2,num_2,32,num_6,0.783442994114,,,2017_Jul_11_1545,60.002540383,FEMA4ImagesEEG,001,200886,
AFNE01.JPG,AFNE01.JPG,AFNE01.JPG,AFNE01.JPG,AFNE01.JPG,AFNE01.JPG,,,,,,,,,,,,,5,6,56,0,,,,,,,,,,,AMSA13.jpg,AMSA06.jpg,AMNE05.jpg,AMNE13.jpg,AMSA13.jpg,MS,2,num_8,32,num_6,0.700121688424,,,2017_Jul_11_1545,60.002540383,FEMA4ImagesEEG,001,200886,
AFNE01.JPG,AFNE01.JPG,AFNE01.JPG,AFNE01.JPG,AFNE01.JPG,AFNE01.JPG,,,,,,,,,,,,,5,7,57,1,,,,,,,,,,,AMSA17.jpg,AMSA12.jpg,AMNE07.jpg,AMNE19.jpg,AMNE19.jpg,MN,1,num_4,16,num_4,0.766782517545,,,2017_Jul_11_1545,60.002540383,FEMA4ImagesEEG,001,200886,
AFNE01.JPG,AFNE01.JPG,AFNE01.JPG,AFNE01.JPG,AFNE01.JPG,AFNE01.JPG,,,,,,,,,,,,,5,8,58,6,,,,,,,,,,,AMSA09.jpg,AMSA17.jpg,AMNE19.jpg,AMNE11.jpg,AMNE19.jpg,MN,1,num_2,16,num_2,1.13349710288,,,2017_Jul_11_1545,60.002540383,FEMA4ImagesEEG,001,200886,
AFNE01.JPG,AFNE01.JPG,AFNE01.JPG,AFNE01.JPG,AFNE01.JPG,AFNE01.JPG,,,,,,,,,,,,,5,9,59,5,,,,,,,,,,,AMSA10.jpg,AMNE06.jpg,AMSA04.jpg,AMNE19.jpg,AMSA04.jpg,MS,2,num_2,32,num_4,0.750166303245,,,2017_Jul_11_1545,60.002540383,FEMA4ImagesEEG,001,200886,
,,,,,,,,,,,,,,,,,,,,,,,,,,,,,,,,,,,,,,,,,,,space,1.85036682943,2017_Jul_11_1545,60.002540383,FEMA4ImagesEEG,001,200886,
AFNE01.JPG,AFNE01.JPG,AFNE01.JPG,AFNE01.JPG,AFNE01.JPG,AFNE01.JPG,,,,,,,,,,,,,,,,,0,0,0,9,,,,,,,AFNE06.jpg,AFSA17.jpg,AFNE02.jpg,AFSA04.jpg,AFNE02.jpg,FN,3,num_2,32,num_8,1.05014532688,,,2017_Jul_11_1545,60.002540383,FEMA4ImagesEEG,001,200886,
AFNE01.JPG,AFNE01.JPG,AFNE01.JPG,AFNE01.JPG,AFNE01.JPG,AFNE01.JPG,,,,,,,,,,,,,,,,,0,1,1,3,,,,,,,AFSA13.jpg,AFSA02.jpg,AFNE01.jpg,AFNE13.jpg,AFNE13.jpg,FN,3,num_4,32,num_2,0.833463553572,,,2017_Jul_11_1545,60.002540383,FEMA4ImagesEEG,001,200886,
AFNE01.JPG,AFNE01.JPG,AFNE01.JPG,AFNE01.JPG,AFNE01.JPG,AFNE01.JPG,,,,,,,,,,,,,,,,,0,2,2,1,,,,,,,AFSA20.jpg,AFSA05.jpg,AFNE06.jpg,AFNE03.jpg,AFNE03.jpg,FN,3,num_4,16,num_4,0.60001738416,,,2017_Jul_11_1545,60.002540383,FEMA4ImagesEEG,001,200886,
AFNE01.JPG,AFNE01.JPG,AFNE01.JPG,AFNE01.JPG,AFNE01.JPG,AFNE01.JPG,,,,,,,,,,,,,,,,,0,3,3,8,,,,,,,AFSA09.jpg,AFNE20.jpg,AFNE01.jpg,AFSA05.jpg,AFNE20.jpg,FN,3,num_6,32,num_8,1.05011998862,,,2017_Jul_11_1545,60.002540383,FEMA4ImagesEEG,001,200886,
AFNE01.JPG,AFNE01.JPG,AFNE01.JPG,AFNE01.JPG,AFNE01.JPG,AFNE01.JPG,,,,,,,,,,,,,,,,,0,4,4,6,,,,,,,AFNE15.jpg,AFSA15.jpg,AFSA11.jpg,AFNE13.jpg,AFNE15.jpg,FN,3,num_8,32,num_6,0.733480809256,,,2017_Jul_11_1545,60.002540383,FEMA4ImagesEEG,001,200886,
AFNE01.JPG,AFNE01.JPG,AFNE01.JPG,AFNE01.JPG,AFNE01.JPG,AFNE01.JPG,,,,,,,,,,,,,,,,,0,5,5,7,,,,,,,AFSA16.jpg,AFNE11.jpg,AFSA08.jpg,AFNE02.jpg,AFNE02.jpg,FN,3,num_4,16,num_4,0.500134069007,,,2017_Jul_11_1545,60.002540383,FEMA4ImagesEEG,001,200886,
AFNE01.JPG,AFNE01.JPG,AFNE01.JPG,AFNE01.JPG,AFNE01.JPG,AFNE01.JPG,,,,,,,,,,,,,,,,,0,6,6,0,,,,,,,AFSA10.jpg,AFNE04.jpg,AFSA06.jpg,AFNE16.jpg,AFNE16.jpg,FN,3,num_4,32,num_6,1.13342974754,,,2017_Jul_11_1545,60.002540383,FEMA4ImagesEEG,001,200886,
AFNE01.JPG,AFNE01.JPG,AFNE01.JPG,AFNE01.JPG,AFNE01.JPG,AFNE01.JPG,,,,,,,,,,,,,,,,,0,7,7,5,,,,,,,AFSA18.jpg,AFSA08.jpg,AFNE06.jpg,AFNE14.jpg,AFNE06.jpg,FN,3,num_2,16,num_2,1.16678726464,,,2017_Jul_11_1545,60.002540383,FEMA4ImagesEEG,001,200886,
AFNE01.JPG,AFNE01.JPG,AFNE01.JPG,AFNE01.JPG,AFNE01.JPG,AFNE01.JPG,,,,,,,,,,,,,,,,,0,8,8,4,,,,,,,AFSA16.jpg,AFNE18.jpg,AFSA05.jpg,AFNE08.jpg,AFSA16.jpg,FS,4,num_8,32,num_2,1.06676571094,,,2017_Jul_11_1545,60.002540383,FEMA4ImagesEEG,001,200886,
AFNE01.JPG,AFNE01.JPG,AFNE01.JPG,AFNE01.JPG,AFNE01.JPG,AFNE01.JPG,,,,,,,,,,,,,,,,,0,9,9,2,,,,,,,AFSA14.jpg,AFNE10.jpg,AFNE11.jpg,AFSA02.jpg,AFSA14.jpg,FS,4,num_8,16,num_8,1.08345345012,,,2017_Jul_11_1545,60.002540383,FEMA4ImagesEEG,001,200886,
AFNE01.JPG,AFNE01.JPG,AFNE01.JPG,AFNE01.JPG,AFNE01.JPG,AFNE01.JPG,,,,,,,,,,,,,,,,,1,0,10,9,,,,,,,AFNE12.jpg,AFSA04.jpg,AFSA01.jpg,AFNE03.jpg,AFNE03.jpg,FN,3,num_4,16,num_4,0.833425706252,,,2017_Jul_11_1545,60.002540383,FEMA4ImagesEEG,001,200886,
AFNE01.JPG,AFNE01.JPG,AFNE01.JPG,AFNE01.JPG,AFNE01.JPG,AFNE01.JPG,,,,,,,,,,,,,,,,,1,1,11,2,,,,,,,AFSA18.jpg,AFNE09.jpg,AFNE08.jpg,AFSA02.jpg,AFNE08.jpg,FN,3,num_2,32,num_4,0.800150298281,,,2017_Jul_11_1545,60.002540383,FEMA4ImagesEEG,001,200886,
AFNE01.JPG,AFNE01.JPG,AFNE01.JPG,AFNE01.JPG,AFNE01.JPG,AFNE01.JPG,,,,,,,,,,,,,,,,,1,2,12,5,,,,,,,AFSA03.jpg,AFNE05.jpg,AFSA07.jpg,AFNE08.jpg,AFSA07.jpg,FS,4,num_2,16,num_2,0.916796084959,,,2017_Jul_11_1545,60.002540383,FEMA4ImagesEEG,001,200886,
AFNE01.JPG,AFNE01.JPG,AFNE01.JPG,AFNE01.JPG,AFNE01.JPG,AFNE01.JPG,,,,,,,,,,,,,,,,,1,3,13,8,,,,,,,AFSA17.jpg,AFNE15.jpg,AFNE20.jpg,AFSA04.jpg,AFSA04.jpg,FS,4,num_4,16,num_4,0.600193149177,,,2017_Jul_11_1545,60.002540383,FEMA4ImagesEEG,001,200886,
AFNE01.JPG,AFNE01.JPG,AFNE01.JPG,AFNE01.JPG,AFNE01.JPG,AFNE01.JPG,,,,,,,,,,,,,,,,,1,4,14,0,,,,,,,AFNE13.jpg,AFNE08.jpg,AFSA05.jpg,AFSA02.jpg,AFNE13.jpg,FN,3,num_8,32,num_4,1.31676587136,,,2017_Jul_11_1545,60.002540383,FEMA4ImagesEEG,001,200886,
AFNE01.JPG,AFNE01.JPG,AFNE01.JPG,AFNE01.JPG,AFNE01.JPG,AFNE01.JPG,,,,,,,,,,,,,,,,,1,5,15,7,,,,,,,AFSA04.jpg,AFNE02.jpg,AFNE12.jpg,AFSA14.jpg,AFSA04.jpg,FS,4,num_8,16,num_8,1.21670679096,,,2017_Jul_11_1545,60.002540383,FEMA4ImagesEEG,001,200886,
AFNE01.JPG,AFNE01.JPG,AFNE01.JPG,AFNE01.JPG,AFNE01.JPG,AFNE01.JPG,,,,,,,,,,,,,,,,,1,6,16,6,,,,,,,AFSA06.jpg,AFNE04.jpg,AFNE02.jpg,AFSA05.jpg,AFNE04.jpg,FN,3,num_6,32,num_4,1.06683691498,,,2017_Jul_11_1545,60.002540383,FEMA4ImagesEEG,001,200886,
AFNE01.JPG,AFNE01.JPG,AFNE01.JPG,AFNE01.JPG,AFNE01.JPG,AFNE01.JPG,,,,,,,,,,,,,,,,,1,7,17,1,,,,,,,AFSA04.jpg,AFNE15.jpg,AFSA06.jpg,AFNE10.jpg,AFNE15.jpg,FN,3,num_6,16,num_6,0.966759552713,,,2017_Jul_11_1545,60.002540383,FEMA4ImagesEEG,001,200886,
AFNE01.JPG,AFNE01.JPG,AFNE01.JPG,AFNE01.JPG,AFNE01.JPG,AFNE01.JPG,,,,,,,,,,,,,,,,,1,8,18,3,,,,,,,AFSA16.jpg,AFSA10.jpg,AFNE05.jpg,AFNE06.jpg,AFNE05.jpg,FN,3,num_2,16,num_2,0.933472277364,,,2017_Jul_11_1545,60.002540383,FEMA4ImagesEEG,001,200886,
AFNE01.JPG,AFNE01.JPG,AFNE01.JPG,AFNE01.JPG,AFNE01.JPG,AFNE01.JPG,,,,,,,,,,,,,,,,,1,9,19,4,,,,,,,AFSA07.jpg,AFNE11.jpg,AFNE02.jpg,AFSA19.jpg,AFSA07.jpg,FS,4,num_8,32,num_2,1.10001770477,,,2017_Jul_11_1545,60.002540383,FEMA4ImagesEEG,001,200886,
AFNE01.JPG,AFNE01.JPG,AFNE01.JPG,AFNE01.JPG,AFNE01.JPG,AFNE01.JPG,,,,,,,,,,,,,,,,,2,0,20,5,,,,,,,AFSA19.jpg,AFNE04.jpg,AFSA02.jpg,AFNE02.jpg,AFSA19.jpg,FS,4,num_8,32,num_2,0.950485887704,,,2017_Jul_11_1545,60.002540383,FEMA4ImagesEEG,001,200886,
AFNE01.JPG,AFNE01.JPG,AFNE01.JPG,AFNE01.JPG,AFNE01.JPG,AFNE01.JPG,,,,,,,,,,,,,,,,,2,1,21,9,,,,,,,AFSA08.jpg,AFSA05.jpg,AFNE01.jpg,AFNE04.jpg,AFNE04.jpg,FN,3,num_4,16,num_4,1.21675586421,,,2017_Jul_11_1545,60.002540383,FEMA4ImagesEEG,001,200886,
AFNE01.JPG,AFNE01.JPG,AFNE01.JPG,AFNE01.JPG,AFNE01.JPG,AFNE01.JPG,,,,,,,,,,,,,,,,,2,2,22,7,,,,,,,AFNE13.jpg,AFSA20.jpg,AFNE11.jpg,AFSA13.jpg,AFNE13.jpg,FN,3,num_8,16,num_8,1.00013855938,,,2017_Jul_11_1545,60.002540383,FEMA4ImagesEEG,001,200886,
AFNE01.JPG,AFNE01.JPG,AFNE01.JPG,AFNE01.JPG,AFNE01.JPG,AFNE01.JPG,,,,,,,,,,,,,,,,,2,3,23,0,,,,,,,AFSA08.jpg,AFNE04.jpg,AFSA17.jpg,AFNE06.jpg,AFNE04.jpg,FN,3,num_6,16,num_6,0.666751021054,,,2017_Jul_11_1545,60.002540383,FEMA4ImagesEEG,001,200886,
AFNE01.JPG,AFNE01.JPG,AFNE01.JPG,AFNE01.JPG,AFNE01.JPG,AFNE01.JPG,,,,,,,,,,,,,,,,,2,4,24,2,,,,,,,AFNE03.jpg,AFSA16.jpg,AFNE18.jpg,AFSA01.jpg,AFNE03.jpg,FN,3,num_8,32,num_4,1.01677626325,,,2017_Jul_11_1545,60.002540383,FEMA4ImagesEEG,001,200886,
AFNE01.JPG,AFNE01.JPG,AFNE01.JPG,AFNE01.JPG,AFNE01.JPG,AFNE01.JPG,,,,,,,,,,,,,,,,,2,5,25,8,,,,,,,AFNE11.jpg,AFSA10.jpg,AFNE01.jpg,AFSA06.jpg,AFNE11.jpg,FN,3,num_8,16,num_8,1.06675031525,,,2017_Jul_11_1545,60.002540383,FEMA4ImagesEEG,001,200886,
AFNE01.JPG,AFNE01.JPG,AFNE01.JPG,AFNE01.JPG,AFNE01.JPG,AFNE01.JPG,,,,,,,,,,,,,,,,,2,6,26,6,,,,,,,AFNE18.jpg,AFSA05.jpg,AFNE04.jpg,AFSA04.jpg,AFSA04.jpg,FS,4,num_4,32,num_6,0.850393129978,,,2017_Jul_11_1545,60.002540383,FEMA4ImagesEEG,001,200886,
AFNE01.JPG,AFNE01.JPG,AFNE01.JPG,AFNE01.JPG,AFNE01.JPG,AFNE01.JPG,,,,,,,,,,,,,,,,,2,7,27,3,,,,,,,AFSA08.jpg,AFNE09.jpg,AFSA02.jpg,AFNE11.jpg,AFNE11.jpg,FN,3,num_4,32,num_8,0.650164956227,,,2017_Jul_11_1545,60.002540383,FEMA4ImagesEEG,001,200886,
AFNE01.JPG,AFNE01.JPG,AFNE01.JPG,AFNE01.JPG,AFNE01.JPG,AFNE01.JPG,,,,,,,,,,,,,,,,,2,8,28,4,,,,,,,AFSA11.jpg,AFNE13.jpg,AFSA04.jpg,AFNE01.jpg,AFSA04.jpg,FS,4,num_2,16,num_2,1.4666864241,,,2017_Jul_11_1545,60.002540383,FEMA4ImagesEEG,001,200886,
AFNE01.JPG,AFNE01.JPG,AFNE01.JPG,AFNE01.JPG,AFNE01.JPG,AFNE01.JPG,,,,,,,,,,,,,,,,,2,9,29,1,,,,,,,AFNE02.jpg,AFNE13.jpg,AFSA15.jpg,AFSA01.jpg,AFNE02.jpg,FN,3,num_8,32,num_2,1.20006491756,,,2017_Jul_11_1545,60.002540383,FEMA4ImagesEEG,001,200886,
AFNE01.JPG,AFNE01.JPG,AFNE01.JPG,AFNE01.JPG,AFNE01.JPG,AFNE01.JPG,,,,,,,,,,,,,,,,,3,0,30,7,,,,,,,AFSA05.jpg,AFNE02.jpg,AFNE01.jpg,AFSA19.jpg,AFSA19.jpg,FS,4,num_4,32,num_2,1.2167128853,,,2017_Jul_11_1545,60.002540383,FEMA4ImagesEEG,001,200886,
AFNE01.JPG,AFNE01.JPG,AFNE01.JPG,AFNE01.JPG,AFNE01.JPG,AFNE01.JPG,,,,,,,,,,,,,,,,,3,1,31,3,,,,,,,AFNE08.jpg,AFNE14.jpg,AFSA08.jpg,AFSA04.jpg,AFSA08.jpg,FS,4,num_2,16,num_2,1.05012255441,,,2017_Jul_11_1545,60.002540383,FEMA4ImagesEEG,001,200886,
AFNE01.JPG,AFNE01.JPG,AFNE01.JPG,AFNE01.JPG,AFNE01.JPG,AFNE01.JPG,,,,,,,,,,,,,,,,,3,2,32,6,,,,,,,AFSA14.jpg,AFNE18.jpg,AFSA15.jpg,AFNE07.jpg,AFNE18.jpg,FN,3,num_6,16,num_6,0.900175380288,,,2017_Jul_11_1545,60.002540383,FEMA4ImagesEEG,001,200886,
AFNE01.JPG,AFNE01.JPG,AFNE01.JPG,AFNE01.JPG,AFNE01.JPG,AFNE01.JPG,,,,,,,,,,,,,,,,,3,3,33,1,,,,,,,AFSA16.jpg,AFSA11.jpg,AFNE13.jpg,AFNE16.jpg,AFNE16.jpg,FN,3,num_4,16,num_4,1.00015427545,,,2017_Jul_11_1545,60.002540383,FEMA4ImagesEEG,001,200886,
AFNE01.JPG,AFNE01.JPG,AFNE01.JPG,AFNE01.JPG,AFNE01.JPG,AFNE01.JPG,,,,,,,,,,,,,,,,,3,4,34,0,,,,,,,AFNE12.jpg,AFNE14.jpg,AFSA08.jpg,AFSA20.jpg,AFNE12.jpg,FN,3,num_8,16,num_8,0.650134485913,,,2017_Jul_11_1545,60.002540383,FEMA4ImagesEEG,001,200886,
AFNE01.JPG,AFNE01.JPG,AFNE01.JPG,AFNE01.JPG,AFNE01.JPG,AFNE01.JPG,,,,,,,,,,,,,,,,,3,5,35,2,,,,,,,AFNE19.jpg,AFSA20.jpg,AFSA02.jpg,AFNE02.jpg,AFNE02.jpg,FN,3,num_4,16,num_4,0.816801473266,,,2017_Jul_11_1545,60.002540383,FEMA4ImagesEEG,001,200886,
AFNE01.JPG,AFNE01.JPG,AFNE01.JPG,AFNE01.JPG,AFNE01.JPG,AFNE01.JPG,,,,,,,,,,,,,,,,,3,6,36,5,,,,,,,AFNE18.jpg,AFNE08.jpg,AFSA01.jpg,AFSA07.jpg,AFSA07.jpg,FS,4,num_4,32,num_8,0.900152607588,,,2017_Jul_11_1545,60.002540383,FEMA4ImagesEEG,001,200886,
AFNE01.JPG,AFNE01.JPG,AFNE01.JPG,AFNE01.JPG,AFNE01.JPG,AFNE01.JPG,,,,,,,,,,,,,,,,,3,7,37,8,,,,,,,AFNE03.jpg,AFSA14.jpg,AFSA17.jpg,AFNE05.jpg,AFNE05.jpg,FN,3,num_4,16,num_4,1.133291509,,,2017_Jul_11_1545,60.002540383,FEMA4ImagesEEG,001,200886,
AFNE01.JPG,AFNE01.JPG,AFNE01.JPG,AFNE01.JPG,AFNE01.JPG,AFNE01.JPG,,,,,,,,,,,,,,,,,3,8,38,4,,,,,,,AFSA01.jpg,AFSA14.jpg,AFNE11.jpg,AFNE03.jpg,AFNE11.jpg,FN,3,num_2,16,num_2,1.85005571251,,,2017_Jul_11_1545,60.002540383,FEMA4ImagesEEG,001,200886,
AFNE01.JPG,AFNE01.JPG,AFNE01.JPG,AFNE01.JPG,AFNE01.JPG,AFNE01.JPG,,,,,,,,,,,,,,,,,3,9,39,9,,,,,,,AFNE06.jpg,AFSA02.jpg,AFSA04.jpg,AFNE19.jpg,AFNE19.jpg,FN,3,num_4,16,num_4,0.600209186086,,,2017_Jul_11_1545,60.002540383,FEMA4ImagesEEG,001,200886,
AFNE01.JPG,AFNE01.JPG,AFNE01.JPG,AFNE01.JPG,AFNE01.JPG,AFNE01.JPG,,,,,,,,,,,,,,,,,4,0,40,8,,,,,,,AFNE18.jpg,AFSA12.jpg,AFNE07.jpg,AFSA06.jpg,AFNE07.jpg,FN,3,num_2,16,num_2,0.766789253103,,,2017_Jul_11_1545,60.002540383,FEMA4ImagesEEG,001,200886,
AFNE01.JPG,AFNE01.JPG,AFNE01.JPG,AFNE01.JPG,AFNE01.JPG,AFNE01.JPG,,,,,,,,,,,,,,,,,4,1,41,3,,,,,,,AFNE19.jpg,AFNE01.jpg,AFSA09.jpg,AFSA03.jpg,AFNE01.jpg,FN,3,num_6,32,num_4,1.34994152933,,,2017_Jul_11_1545,60.002540383,FEMA4ImagesEEG,001,200886,
AFNE01.JPG,AFNE01.JPG,AFNE01.JPG,AFNE01.JPG,AFNE01.JPG,AFNE01.JPG,,,,,,,,,,,,,,,,,4,2,42,5,,,,,,,AFNE12.jpg,AFNE13.jpg,AFSA09.jpg,AFSA15.jpg,AFSA09.jpg,FS,4,num_2,16,num_2,1.11682636268,,,2017_Jul_11_1545,60.002540383,FEMA4ImagesEEG,001,200886,
AFNE01.JPG,AFNE01.JPG,AFNE01.JPG,AFNE01.JPG,AFNE01.JPG,AFNE01.JPG,,,,,,,,,,,,,,,,,4,3,43,1,,,,,,,AFNE04.jpg,AFSA17.jpg,AFSA10.jpg,AFNE10.jpg,AFSA10.jpg,FS,4,num_2,16,num_2,0.716794352978,,,2017_Jul_11_1545,60.002540383,FEMA4ImagesEEG,001,200886,
AFNE01.JPG,AFNE01.JPG,AFNE01.JPG,AFNE01.JPG,AFNE01.JPG,AFNE01.JPG,,,,,,,,,,,,,,,,,4,4,44,2,,,,,,,AFNE06.jpg,AFNE14.jpg,AFSA08.jpg,AFSA20.jpg,AFSA08.jpg,FS,4,num_2,32,num_4,1.23342692503,,,2017_Jul_11_1545,60.002540383,FEMA4ImagesEEG,001,200886,
AFNE01.JPG,AFNE01.JPG,AFNE01.JPG,AFNE01.JPG,AFNE01.JPG,AFNE01.JPG,,,,,,,,,,,,,,,,,4,5,45,9,,,,,,,AFSA01.jpg,AFSA02.jpg,AFNE10.jpg,AFNE07.jpg,AFNE07.jpg,FN,3,num_4,16,num_4,1.46679098508,,,2017_Jul_11_1545,60.002540383,FEMA4ImagesEEG,001,200886,
AFNE01.JPG,AFNE01.JPG,AFNE01.JPG,AFNE01.JPG,AFNE01.JPG,AFNE01.JPG,,,,,,,,,,,,,,,,,4,6,46,4,,,,,,,AFSA05.jpg,AFNE07.jpg,AFSA03.jpg,AFNE04.jpg,AFSA05.jpg,FS,4,num_8,16,num_8,1.38324548281,,,2017_Jul_11_1545,60.002540383,FEMA4ImagesEEG,001,200886,
AFNE01.JPG,AFNE01.JPG,AFNE01.JPG,AFNE01.JPG,AFNE01.JPG,AFNE01.JPG,,,,,,,,,,,,,,,,,4,7,47,0,,,,,,,AFSA06.jpg,AFNE05.jpg,AFSA04.jpg,AFNE17.jpg,AFSA06.jpg,FS,4,num_8,32,num_6,0.816796341445,,,2017_Jul_11_1545,60.002540383,FEMA4ImagesEEG,001,200886,
AFNE01.JPG,AFNE01.JPG,AFNE01.JPG,AFNE01.JPG,AFNE01.JPG,AFNE01.JPG,,,,,,,,,,,,,,,,,4,8,48,6,,,,,,,AFNE03.jpg,AFNE05.jpg,AFSA11.jpg,AFSA03.jpg,AFNE05.jpg,FN,3,num_6,32,num_2,1.53341557086,,,2017_Jul_11_1545,60.002540383,FEMA4ImagesEEG,001,200886,
AFNE01.JPG,AFNE01.JPG,AFNE01.JPG,AFNE01.JPG,AFNE01.JPG,AFNE01.JPG,,,,,,,,,,,,,,,,,4,9,49,7,,,,,,,AFNE20.jpg,AFSA18.jpg,AFSA05.jpg,AFNE17.jpg,AFNE20.jpg,FN,3,num_8,32,num_6,1.15011716611,,,2017_Jul_11_1545,60.002540383,FEMA4ImagesEEG,001,200886,
AFNE01.JPG,AFNE01.JPG,AFNE01.JPG,AFNE01.JPG,AFNE01.JPG,AFNE01.JPG,,,,,,,,,,,,,,,,,5,0,50,1,,,,,,,AFNE19.jpg,AFSA06.jpg,AFSA17.jpg,AFNE13.jpg,AFSA06.jpg,FS,4,num_6,32,num_4,0.766767122084,,,2017_Jul_11_1545,60.002540383,FEMA4ImagesEEG,001,200886,
AFNE01.JPG,AFNE01.JPG,AFNE01.JPG,AFNE01.JPG,AFNE01.JPG,AFNE01.JPG,,,,,,,,,,,,,,,,,5,1,51,6,,,,,,,AFNE01.jpg,AFSA11.jpg,AFNE08.jpg,AFSA04.jpg,AFNE01.jpg,FN,3,num_8,16,num_8,0.800164731685,,,2017_Jul_11_1545,60.002540383,FEMA4ImagesEEG,001,200886,
AFNE01.JPG,AFNE01.JPG,AFNE01.JPG,AFNE01.JPG,AFNE01.JPG,AFNE01.JPG,,,,,,,,,,,,,,,,,5,2,52,3,,,,,,,AFNE01.jpg,AFNE14.jpg,AFSA06.jpg,AFSA05.jpg,AFNE14.jpg,FN,3,num_6,16,num_6,1.1501085062,,,2017_Jul_11_1545,60.002540383,FEMA4ImagesEEG,001,200886,
AFNE01.JPG,AFNE01.JPG,AFNE01.JPG,AFNE01.JPG,AFNE01.JPG,AFNE01.JPG,,,,,,,,,,,,,,,,,5,3,53,5,,,,,,,AFSA17.jpg,AFNE08.jpg,AFSA09.jpg,AFNE18.jpg,AFNE18.jpg,FN,3,num_4,32,num_8,0.966744478093,,,2017_Jul_11_1545,60.002540383,FEMA4ImagesEEG,001,200886,
AFNE01.JPG,AFNE01.JPG,AFNE01.JPG,AFNE01.JPG,AFNE01.JPG,AFNE01.JPG,,,,,,,,,,,,,,,,,5,4,54,4,,,,,,,AFNE10.jpg,AFSA19.jpg,AFNE12.jpg,AFSA07.jpg,AFSA19.jpg,FS,4,num_6,16,num_6,1.16675294563,,,2017_Jul_11_1545,60.002540383,FEMA4ImagesEEG,001,200886,
AFNE01.JPG,AFNE01.JPG,AFNE01.JPG,AFNE01.JPG,AFNE01.JPG,AFNE01.JPG,,,,,,,,,,,,,,,,,5,5,55,8,,,,,,,AFNE06.jpg,AFNE09.jpg,AFSA16.jpg,AFSA13.jpg,AFSA13.jpg,FS,4,num_4,32,num_2,0.900148438057,,,2017_Jul_11_1545,60.002540383,FEMA4ImagesEEG,001,200886,
AFNE01.JPG,AFNE01.JPG,AFNE01.JPG,AFNE01.JPG,AFNE01.JPG,AFNE01.JPG,,,,,,,,,,,,,,,,,5,6,56,0,,,,,,,AFNE02.jpg,AFNE17.jpg,AFSA07.jpg,AFSA04.jpg,AFNE02.jpg,FN,3,num_8,16,num_8,0.666807471076,,,2017_Jul_11_1545,60.002540383,FEMA4ImagesEEG,001,200886,
AFNE01.JPG,AFNE01.JPG,AFNE01.JPG,AFNE01.JPG,AFNE01.JPG,AFNE01.JPG,,,,,,,,,,,,,,,,,5,7,57,9,,,,,,,AFNE11.jpg,AFSA20.jpg,AFNE10.jpg,AFSA04.jpg,AFSA04.jpg,FS,4,num_4,16,num_4,1.26677481993,,,2017_Jul_11_1545,60.002540383,FEMA4ImagesEEG,001,200886,
AFNE01.JPG,AFNE01.JPG,AFNE01.JPG,AFNE01.JPG,AFNE01.JPG,AFNE01.JPG,,,,,,,,,,,,,,,,,5,8,58,2,,,,,,,AFSA10.jpg,AFNE12.jpg,AFSA20.jpg,AFNE11.jpg,AFSA20.jpg,FS,4,num_2,16,num_2,0.533481001854,,,2017_Jul_11_1545,60.002540383,FEMA4ImagesEEG,001,200886,
AFNE01.JPG,AFNE01.JPG,AFNE01.JPG,AFNE01.JPG,AFNE01.JPG,AFNE01.JPG,,,,,,,,,,,,,,,,,5,9,59,7,,,,,,,AFSA20.jpg,AFSA14.jpg,AFNE01.jpg,AFNE04.jpg,AFSA20.jpg,FS,4,num_8,32,num_6,1.93336482998,,,2017_Jul_11_1545,60.002540383,FEMA4ImagesEEG,001,200886,
,,,,,,,,,,,,,,,,,,,,,,,,,,,,,,,,,,,,,,,,,,,space,4.38311365899,2017_Jul_11_1545,60.002540383,FEMA4ImagesEEG,001,200886,
AFNE01.JPG,AFNE01.JPG,AFNE01.JPG,AFNE01.JPG,AFNE01.JPG,AFNE01.JPG,,,,,,,,,,,,,,,,,,,,,0,0,0,0,,,AMSA05.jpg,AMNE03.jpg,AMNE11.jpg,AMSA04.jpg,AMSA04.jpg,MS,2,num_4,32,num_8,1.34998867777,,,2017_Jul_11_1545,60.002540383,FEMA4ImagesEEG,001,200886,
AFNE01.JPG,AFNE01.JPG,AFNE01.JPG,AFNE01.JPG,AFNE01.JPG,AFNE01.JPG,,,,,,,,,,,,,,,,,,,,,0,1,1,2,,,AMSA08.jpg,AMNE03.jpg,AMSA10.jpg,AMNE18.jpg,AMSA08.jpg,MS,2,num_8,16,num_8,0.600156584987,,,2017_Jul_11_1545,60.002540383,FEMA4ImagesEEG,001,200886,
AFNE01.JPG,AFNE01.JPG,AFNE01.JPG,AFNE01.JPG,AFNE01.JPG,AFNE01.JPG,,,,,,,,,,,,,,,,,,,,,0,2,2,6,,,AMNE18.jpg,AMNE17.jpg,AMSA01.jpg,AMSA03.jpg,AMSA01.jpg,MS,2,num_2,16,num_2,0.583456016146,,,2017_Jul_11_1545,60.002540383,FEMA4ImagesEEG,001,200886,
AFNE01.JPG,AFNE01.JPG,AFNE01.JPG,AFNE01.JPG,AFNE01.JPG,AFNE01.JPG,,,,,,,,,,,,,,,,,,,,,0,3,3,9,,,AMSA19.jpg,AMNE20.jpg,AMSA17.jpg,AMNE15.jpg,AMSA17.jpg,MS,2,num_2,16,num_2,1.45014847023,,,2017_Jul_11_1545,60.002540383,FEMA4ImagesEEG,001,200886,
AFNE01.JPG,AFNE01.JPG,AFNE01.JPG,AFNE01.JPG,AFNE01.JPG,AFNE01.JPG,,,,,,,,,,,,,,,,,,,,,0,4,4,1,,,AMNE08.jpg,AMSA10.jpg,AMSA14.jpg,AMNE17.jpg,AMSA10.jpg,MS,2,num_6,32,num_4,0.966786815552,,,2017_Jul_11_1545,60.002540383,FEMA4ImagesEEG,001,200886,
AFNE01.JPG,AFNE01.JPG,AFNE01.JPG,AFNE01.JPG,AFNE01.JPG,AFNE01.JPG,,,,,,,,,,,,,,,,,,,,,0,5,5,4,,,AMNE11.jpg,AMNE03.jpg,AMSA04.jpg,AMSA15.jpg,AMSA15.jpg,MS,2,num_4,16,num_4,0.433517501922,,,2017_Jul_11_1545,60.002540383,FEMA4ImagesEEG,001,200886,
AFNE01.JPG,AFNE01.JPG,AFNE01.JPG,AFNE01.JPG,AFNE01.JPG,AFNE01.JPG,,,,,,,,,,,,,,,,,,,,,0,6,6,3,,,AMNE05.jpg,AMSA05.jpg,AMSA06.jpg,AMNE16.jpg,AMNE05.jpg,MN,1,num_8,32,num_6,1.68336851848,,,2017_Jul_11_1545,60.002540383,FEMA4ImagesEEG,001,200886,
AFNE01.JPG,AFNE01.JPG,AFNE01.JPG,AFNE01.JPG,AFNE01.JPG,AFNE01.JPG,,,,,,,,,,,,,,,,,,,,,0,7,7,5,,,AMSA05.jpg,AMSA18.jpg,AMNE02.jpg,AMNE05.jpg,AMNE02.jpg,MN,1,num_2,16,num_2,1.28343208903,,,2017_Jul_11_1545,60.002540383,FEMA4ImagesEEG,001,200886,
AFNE01.JPG,AFNE01.JPG,AFNE01.JPG,AFNE01.JPG,AFNE01.JPG,AFNE01.JPG,,,,,,,,,,,,,,,,,,,,,0,8,8,7,,,AMSA01.jpg,AMNE07.jpg,AMSA17.jpg,AMNE19.jpg,AMNE07.jpg,MN,1,num_6,16,num_6,0.733480167808,,,2017_Jul_11_1545,60.002540383,FEMA4ImagesEEG,001,200886,
AFNE01.JPG,AFNE01.JPG,AFNE01.JPG,AFNE01.JPG,AFNE01.JPG,AFNE01.JPG,,,,,,,,,,,,,,,,,,,,,0,9,9,8,,,AMNE03.jpg,AMNE15.jpg,AMSA01.jpg,AMSA07.jpg,AMNE15.jpg,MN,1,num_6,32,num_4,0.733490431448,,,2017_Jul_11_1545,60.002540383,FEMA4ImagesEEG,001,200886,
AFNE01.JPG,AFNE01.JPG,AFNE01.JPG,AFNE01.JPG,AFNE01.JPG,AFNE01.JPG,,,,,,,,,,,,,,,,,,,,,1,0,10,7,,,AMNE05.jpg,AMNE01.jpg,AMSA13.jpg,AMSA06.jpg,AMNE05.jpg,MN,1,num_8,32,num_6,1.11683470197,,,2017_Jul_11_1545,60.002540383,FEMA4ImagesEEG,001,200886,
AFNE01.JPG,AFNE01.JPG,AFNE01.JPG,AFNE01.JPG,AFNE01.JPG,AFNE01.JPG,,,,,,,,,,,,,,,,,,,,,1,1,11,6,,,AMNE13.jpg,AMNE06.jpg,AMSA08.jpg,AMSA11.jpg,AMSA11.jpg,MS,2,num_4,32,num_6,0.98352619377,,,2017_Jul_11_1545,60.002540383,FEMA4ImagesEEG,001,200886,
AFNE01.JPG,AFNE01.JPG,AFNE01.JPG,AFNE01.JPG,AFNE01.JPG,AFNE01.JPG,,,,,,,,,,,,,,,,,,,,,1,2,12,2,,,AMSA13.jpg,AMNE06.jpg,AMSA08.jpg,AMNE02.jpg,AMSA08.jpg,MS,2,num_2,16,num_2,0.733422755497,,,2017_Jul_11_1545,60.002540383,FEMA4ImagesEEG,001,200886,
AFNE01.JPG,AFNE01.JPG,AFNE01.JPG,AFNE01.JPG,AFNE01.JPG,AFNE01.JPG,,,,,,,,,,,,,,,,,,,,,1,3,13,8,,,AMNE06.jpg,AMSA11.jpg,AMSA16.jpg,AMNE05.jpg,AMSA11.jpg,MS,2,num_6,32,num_2,0.650150202215,,,2017_Jul_11_1545,60.002540383,FEMA4ImagesEEG,001,200886,
AFNE01.JPG,AFNE01.JPG,AFNE01.JPG,AFNE01.JPG,AFNE01.JPG,AFNE01.JPG,,,,,,,,,,,,,,,,,,,,,1,4,14,4,,,AMSA08.jpg,AMSA20.jpg,AMNE11.jpg,AMNE18.jpg,AMSA08.jpg,MS,2,num_8,16,num_8,0.933499219827,,,2017_Jul_11_1545,60.002540383,FEMA4ImagesEEG,001,200886,
AFNE01.JPG,AFNE01.JPG,AFNE01.JPG,AFNE01.JPG,AFNE01.JPG,AFNE01.JPG,,,,,,,,,,,,,,,,,,,,,1,5,15,5,,,AMNE18.jpg,AMNE01.jpg,AMSA08.jpg,AMSA04.jpg,AMNE18.jpg,MN,1,num_8,32,num_2,0.866766544757,,,2017_Jul_11_1545,60.002540383,FEMA4ImagesEEG,001,200886,
AFNE01.JPG,AFNE01.JPG,AFNE01.JPG,AFNE01.JPG,AFNE01.JPG,AFNE01.JPG,,,,,,,,,,,,,,,,,,,,,1,6,16,9,,,AMNE13.jpg,AMNE14.jpg,AMSA12.jpg,AMSA09.jpg,AMNE13.jpg,MN,1,num_8,16,num_8,1.78338044998,,,2017_Jul_11_1545,60.002540383,FEMA4ImagesEEG,001,200886,
AFNE01.JPG,AFNE01.JPG,AFNE01.JPG,AFNE01.JPG,AFNE01.JPG,AFNE01.JPG,,,,,,,,,,,,,,,,,,,,,1,7,17,0,,,AMSA10.jpg,AMNE07.jpg,AMNE02.jpg,AMSA17.jpg,AMSA17.jpg,MS,2,num_4,16,num_4,0.600067740073,,,2017_Jul_11_1545,60.002540383,FEMA4ImagesEEG,001,200886,
AFNE01.JPG,AFNE01.JPG,AFNE01.JPG,AFNE01.JPG,AFNE01.JPG,AFNE01.JPG,,,,,,,,,,,,,,,,,,,,,1,8,18,1,,,AMNE17.jpg,AMSA17.jpg,AMSA15.jpg,AMNE07.jpg,AMSA15.jpg,MS,2,num_2,16,num_2,0.766835760325,,,2017_Jul_11_1545,60.002540383,FEMA4ImagesEEG,001,200886,
AFNE01.JPG,AFNE01.JPG,AFNE01.JPG,AFNE01.JPG,AFNE01.JPG,AFNE01.JPG,,,,,,,,,,,,,,,,,,,,,1,9,19,3,,,AMNE03.jpg,AMSA13.jpg,AMSA03.jpg,AMNE14.jpg,AMNE03.jpg,MN,1,num_8,16,num_8,0.783448125934,,,2017_Jul_11_1545,60.002540383,FEMA4ImagesEEG,001,200886,
AFNE01.JPG,AFNE01.JPG,AFNE01.JPG,AFNE01.JPG,AFNE01.JPG,AFNE01.JPG,,,,,,,,,,,,,,,,,,,,,2,0,20,3,,,AMNE10.jpg,AMSA02.jpg,AMNE05.jpg,AMSA18.jpg,AMNE10.jpg,MN,1,num_8,32,num_2,1.38343471894,,,2017_Jul_11_1545,60.002540383,FEMA4ImagesEEG,001,200886,
AFNE01.JPG,AFNE01.JPG,AFNE01.JPG,AFNE01.JPG,AFNE01.JPG,AFNE01.JPG,,,,,,,,,,,,,,,,,,,,,2,1,21,1,,,AMNE01.jpg,AMSA06.jpg,AMSA08.jpg,AMNE17.jpg,AMNE17.jpg,MN,1,num_4,32,num_6,0.816727382597,,,2017_Jul_11_1545,60.002540383,FEMA4ImagesEEG,001,200886,
AFNE01.JPG,AFNE01.JPG,AFNE01.JPG,AFNE01.JPG,AFNE01.JPG,AFNE01.JPG,,,,,,,,,,,,,,,,,,,,,2,2,22,2,,,AMNE18.jpg,AMSA08.jpg,AMNE16.jpg,AMSA06.jpg,AMNE18.jpg,MN,1,num_8,32,num_2,0.93350114394,,,2017_Jul_11_1545,60.002540383,FEMA4ImagesEEG,001,200886,
AFNE01.JPG,AFNE01.JPG,AFNE01.JPG,AFNE01.JPG,AFNE01.JPG,AFNE01.JPG,,,,,,,,,,,,,,,,,,,,,2,3,23,0,,,AMNE20.jpg,AMNE13.jpg,AMSA16.jpg,AMSA10.jpg,AMSA16.jpg,MS,2,num_2,16,num_2,0.700110783335,,,2017_Jul_11_1545,60.002540383,FEMA4ImagesEEG,001,200886,
AFNE01.JPG,AFNE01.JPG,AFNE01.JPG,AFNE01.JPG,AFNE01.JPG,AFNE01.JPG,,,,,,,,,,,,,,,,,,,,,2,4,24,8,,,AMNE19.jpg,AMSA20.jpg,AMSA15.jpg,AMNE12.jpg,AMSA20.jpg,MS,2,num_6,16,num_6,0.450151356868,,,2017_Jul_11_1545,60.002540383,FEMA4ImagesEEG,001,200886,
AFNE01.JPG,AFNE01.JPG,AFNE01.JPG,AFNE01.JPG,AFNE01.JPG,AFNE01.JPG,,,,,,,,,,,,,,,,,,,,,2,5,25,9,,,AMSA14.jpg,AMSA20.jpg,AMNE05.jpg,AMNE11.jpg,AMNE11.jpg,MN,1,num_4,16,num_4,1.13341788016,,,2017_Jul_11_1545,60.002540383,FEMA4ImagesEEG,001,200886,
AFNE01.JPG,AFNE01.JPG,AFNE01.JPG,AFNE01.JPG,AFNE01.JPG,AFNE01.JPG,,,,,,,,,,,,,,,,,,,,,2,6,26,4,,,AMSA03.jpg,AMSA10.jpg,AMNE19.jpg,AMNE02.jpg,AMNE02.jpg,MN,1,num_4,32,num_2,0.750200622249,,,2017_Jul_11_1545,60.002540383,FEMA4ImagesEEG,001,200886,
AFNE01.JPG,AFNE01.JPG,AFNE01.JPG,AFNE01.JPG,AFNE01.JPG,AFNE01.JPG,,,,,,,,,,,,,,,,,,,,,2,7,27,5,,,AMNE03.jpg,AMSA13.jpg,AMNE04.jpg,AMSA04.jpg,AMNE03.jpg,MN,1,num_8,16,num_8,0.766834156821,,,2017_Jul_11_1545,60.002540383,FEMA4ImagesEEG,001,200886,
AFNE01.JPG,AFNE01.JPG,AFNE01.JPG,AFNE01.JPG,AFNE01.JPG,AFNE01.JPG,,,,,,,,,,,,,,,,,,,,,2,8,28,7,,,AMNE01.jpg,AMSA15.jpg,AMNE06.jpg,AMSA08.jpg,AMNE01.jpg,MN,1,num_8,16,num_8,0.98320288863,,,2017_Jul_11_1545,60.002540383,FEMA4ImagesEEG,001,200886,
AFNE01.JPG,AFNE01.JPG,AFNE01.JPG,AFNE01.JPG,AFNE01.JPG,AFNE01.JPG,,,,,,,,,,,,,,,,,,,,,2,9,29,6,,,AMSA13.jpg,AMSA15.jpg,AMNE16.jpg,AMNE19.jpg,AMSA13.jpg,MS,2,num_8,32,num_4,0.850160594098,,,2017_Jul_11_1545,60.002540383,FEMA4ImagesEEG,001,200886,
AFNE01.JPG,AFNE01.JPG,AFNE01.JPG,AFNE01.JPG,AFNE01.JPG,AFNE01.JPG,,,,,,,,,,,,,,,,,,,,,3,0,30,4,,,AMSA13.jpg,AMSA10.jpg,AMNE12.jpg,AMNE09.jpg,AMNE09.jpg,MN,1,num_4,32,num_6,1.03349062381,,,2017_Jul_11_1545,60.002540383,FEMA4ImagesEEG,001,200886,
AFNE01.JPG,AFNE01.JPG,AFNE01.JPG,AFNE01.JPG,AFNE01.JPG,AFNE01.JPG,,,,,,,,,,,,,,,,,,,,,3,1,31,7,,,AMNE13.jpg,AMNE07.jpg,AMSA17.jpg,AMSA04.jpg,AMSA04.jpg,MS,2,num_4,16,num_4,0.716651944676,,,2017_Jul_11_1545,60.002540383,FEMA4ImagesEEG,001,200886,
AFNE01.JPG,AFNE01.JPG,AFNE01.JPG,AFNE01.JPG,AFNE01.JPG,AFNE01.JPG,,,,,,,,,,,,,,,,,,,,,3,2,32,3,,,AMNE17.jpg,AMSA04.jpg,AMSA03.jpg,AMNE18.jpg,AMNE18.jpg,MN,1,num_4,16,num_4,0.916793198325,,,2017_Jul_11_1545,60.002540383,FEMA4ImagesEEG,001,200886,
AFNE01.JPG,AFNE01.JPG,AFNE01.JPG,AFNE01.JPG,AFNE01.JPG,AFNE01.JPG,,,,,,,,,,,,,,,,,,,,,3,3,33,9,,,AMSA13.jpg,AMNE11.jpg,AMSA02.jpg,AMNE01.jpg,AMNE11.jpg,MN,1,num_6,16,num_6,0.81679954892,,,2017_Jul_11_1545,60.002540383,FEMA4ImagesEEG,001,200886,
AFNE01.JPG,AFNE01.JPG,AFNE01.JPG,AFNE01.JPG,AFNE01.JPG,AFNE01.JPG,,,,,,,,,,,,,,,,,,,,,3,4,34,5,,,AMNE01.jpg,AMSA15.jpg,AMNE20.jpg,AMSA02.jpg,AMNE20.jpg,MN,1,num_2,32,num_8,0.933448863681,,,2017_Jul_11_1545,60.002540383,FEMA4ImagesEEG,001,200886,
AFNE01.JPG,AFNE01.JPG,AFNE01.JPG,AFNE01.JPG,AFNE01.JPG,AFNE01.JPG,,,,,,,,,,,,,,,,,,,,,3,5,35,2,,,AMNE15.jpg,AMSA19.jpg,AMNE01.jpg,AMSA16.jpg,AMSA19.jpg,MS,2,num_6,32,num_4,0.866781940451,,,2017_Jul_11_1545,60.002540383,FEMA4ImagesEEG,001,200886,
AFNE01.JPG,AFNE01.JPG,AFNE01.JPG,AFNE01.JPG,AFNE01.JPG,AFNE01.JPG,,,,,,,,,,,,,,,,,,,,,3,6,36,8,,,AMNE17.jpg,AMSA04.jpg,AMSA07.jpg,AMNE09.jpg,AMNE17.jpg,MN,1,num_8,16,num_8,0.883468075655,,,2017_Jul_11_1545,60.002540383,FEMA4ImagesEEG,001,200886,
AFNE01.JPG,AFNE01.JPG,AFNE01.JPG,AFNE01.JPG,AFNE01.JPG,AFNE01.JPG,,,,,,,,,,,,,,,,,,,,,3,7,37,0,,,AMSA20.jpg,AMSA09.jpg,AMNE07.jpg,AMNE14.jpg,AMSA20.jpg,MS,2,num_8,32,num_6,0.816759135807,,,2017_Jul_11_1545,60.002540383,FEMA4ImagesEEG,001,200886,
AFNE01.JPG,AFNE01.JPG,AFNE01.JPG,AFNE01.JPG,AFNE01.JPG,AFNE01.JPG,,,,,,,,,,,,,,,,,,,,,3,8,38,1,,,AMNE05.jpg,AMNE06.jpg,AMSA19.jpg,AMSA04.jpg,AMNE05.jpg,MN,1,num_8,16,num_8,0.650123901432,,,2017_Jul_11_1545,60.002540383,FEMA4ImagesEEG,001,200886,
AFNE01.JPG,AFNE01.JPG,AFNE01.JPG,AFNE01.JPG,AFNE01.JPG,AFNE01.JPG,,,,,,,,,,,,,,,,,,,,,3,9,39,6,,,AMSA05.jpg,AMSA18.jpg,AMNE03.jpg,AMNE01.jpg,AMSA05.jpg,MS,2,num_8,32,num_6,1.11675066827,,,2017_Jul_11_1545,60.002540383,FEMA4ImagesEEG,001,200886,
AFNE01.JPG,AFNE01.JPG,AFNE01.JPG,AFNE01.JPG,AFNE01.JPG,AFNE01.JPG,,,,,,,,,,,,,,,,,,,,,4,0,40,5,,,AMNE08.jpg,AMNE10.jpg,AMSA10.jpg,AMSA17.jpg,AMSA17.jpg,MS,2,num_4,16,num_4,0.7501060043,,,2017_Jul_11_1545,60.002540383,FEMA4ImagesEEG,001,200886,
