IPosition2,IPosition3,IPosition1,IPosition6,IPosition4,IPosition5,TrialsF1.thisRepN,TrialsF1.thisTrialN,TrialsF1.thisN,TrialsF1.thisIndex,TrialsM1.thisRepN,TrialsM1.thisTrialN,TrialsM1.thisN,TrialsM1.thisIndex,TrialsF2.thisRepN,TrialsF2.thisTrialN,TrialsF2.thisN,TrialsF2.thisIndex,TrialsM2.thisRepN,TrialsM2.thisTrialN,TrialsM2.thisN,TrialsM2.thisIndex,TrialsF3.thisRepN,TrialsF3.thisTrialN,TrialsF3.thisN,TrialsF3.thisIndex,TrialsM3.thisRepN,TrialsM3.thisTrialN,TrialsM3.thisN,TrialsM3.thisIndex,InstrKey_resp.keys,InstrKey_resp.rt,Image0 _Position,Image1 _Position,Image2 _Position,Image3 _Position,Center_image,condition,code,correct_answer,accuracy,Key_Resp.keys,Key_Resp.rt,BreakKey_resp.keys,BreakKey_resp.rt,date,frameRate,expName,session,participant,
,,,,,,,,,,,,,,,,,,,,,,,,,,,,,,space,12.4833215622,,,,,,,,,,,,,,2017_Jul_13_1814,60.084408815,FEMA4ImagesEEG,001,200824,
AFSA25.JPG,AFNE24.JPG,AFSA24.JPG,AFNE21.JPG,AFSA21.JPG,AFNE25.JPG,0,0,0,2,,,,,,,,,,,,,,,,,,,,,,,AFNE13.jpg,AFNE10.jpg,AFSA09.jpg,AFSA15.jpg,AFSA09.jpg,FS,4,num_2,16,num_2,2.49999069865,,,2017_Jul_13_1814,60.084408815,FEMA4ImagesEEG,001,200824,
AMSA21.JPG,AMNE23.JPG,AMNE21.JPG,AMSA25.JPG,AMNE25.JPG,AMSA23.JPG,0,1,1,5,,,,,,,,,,,,,,,,,,,,,,,AFNE07.jpg,AFSA13.jpg,AFSA06.jpg,AFNE20.jpg,AFNE20.jpg,FN,3,num_4,32,num_6,1.06672658073,,,2017_Jul_13_1814,60.084408815,FEMA4ImagesEEG,001,200824,
AFSA21.JPG,AFNE23.JPG,AFNE21.JPG,AFSA25.JPG,AFNE25.JPG,AFSA23.JPG,0,2,2,4,,,,,,,,,,,,,,,,,,,,,,,AFSA17.jpg,AFNE11.jpg,AFSA16.jpg,AFNE13.jpg,AFNE11.jpg,FN,3,num_6,32,num_8,1.03354065935,,,2017_Jul_13_1814,60.084408815,FEMA4ImagesEEG,001,200824,
AFNE22.JPG,AFSA24.JPG,AFSA22.JPG,AFNE25.JPG,AFNE24.JPG,AFSA25.JPG,0,3,3,6,,,,,,,,,,,,,,,,,,,,,,,AFSA20.jpg,AFNE03.jpg,AFSA13.jpg,AFNE16.jpg,AFNE03.jpg,FN,3,num_6,32,num_2,2.33337567071,,,2017_Jul_13_1814,60.084408815,FEMA4ImagesEEG,001,200824,
AFSA21.JPG,AFNE22.JPG,AFNE21.JPG,AFSA23.JPG,AFSA22.JPG,AFNE23.JPG,0,4,4,0,,,,,,,,,,,,,,,,,,,,,,,AFNE18.jpg,AFSA20.jpg,AFSA18.jpg,AFNE05.jpg,AFNE05.jpg,FN,3,num_4,32,num_8,1.16672953148,,,2017_Jul_13_1814,60.084408815,FEMA4ImagesEEG,001,200824,
AMSA21.JPG,AMNE22.JPG,AMNE21.JPG,AMSA23.JPG,AMSA22.JPG,AMNE23.JPG,0,5,5,1,,,,,,,,,,,,,,,,,,,,,,,AFNE20.jpg,AFSA06.jpg,AFSA10.jpg,AFNE07.jpg,AFNE20.jpg,FN,3,num_8,32,num_2,2.41671365499,,,2017_Jul_13_1814,60.084408815,FEMA4ImagesEEG,001,200824,
AMNE22.JPG,AMSA24.JPG,AMSA22.JPG,AMNE25.JPG,AMNE24.JPG,AMSA25.JPG,0,6,6,7,,,,,,,,,,,,,,,,,,,,,,,AFNE09.jpg,AFSA13.jpg,AFSA06.jpg,AFNE13.jpg,AFNE13.jpg,FN,3,num_4,32,num_8,1.08340245276,,,2017_Jul_13_1814,60.084408815,FEMA4ImagesEEG,001,200824,
AMNE23.JPG,AMNE24.JPG,AMNE22.JPG,AMSA24.JPG,AMSA22.JPG,AMSA23.JPG,0,7,7,9,,,,,,,,,,,,,,,,,,,,,,,AFNE14.jpg,AFNE04.jpg,AFSA12.jpg,AFSA05.jpg,AFSA12.jpg,FS,4,num_2,16,num_2,2.54999714554,,,2017_Jul_13_1814,60.084408815,FEMA4ImagesEEG,001,200824,
AFNE23.JPG,AFNE24.JPG,AFNE22.JPG,AFSA24.JPG,AFSA22.JPG,AFSA23.JPG,0,8,8,8,,,,,,,,,,,,,,,,,,,,,,,AFNE07.jpg,AFNE19.jpg,AFSA09.jpg,AFSA10.jpg,AFNE07.jpg,FN,3,num_8,16,num_8,0.750121720601,,,2017_Jul_13_1814,60.084408815,FEMA4ImagesEEG,001,200824,
AMSA25.JPG,AMNE24.JPG,AMSA24.JPG,AMNE26.JPG,AMSA21.JPG,AMNE25.JPG,0,9,9,3,,,,,,,,,,,,,,,,,,,,,,,AFNE15.jpg,AFSA03.jpg,AFSA17.jpg,AFNE03.jpg,AFNE03.jpg,FN,3,num_4,32,num_6,1.45006122906,,,2017_Jul_13_1814,60.084408815,FEMA4ImagesEEG,001,200824,
AFNE22.JPG,AFSA24.JPG,AFSA22.JPG,AFNE25.JPG,AFNE24.JPG,AFSA25.JPG,,,,,0,0,0,6,,,,,,,,,,,,,,,,,,,AMNE13.jpg,AMSA10.jpg,AMNE12.jpg,AMSA02.jpg,AMSA10.jpg,MS,2,num_6,16,num_6,1.33337438782,,,2017_Jul_13_1814,60.084408815,FEMA4ImagesEEG,001,200824,
AMNE22.JPG,AMSA24.JPG,AMSA22.JPG,AMNE25.JPG,AMNE24.JPG,AMSA25.JPG,,,,,0,1,1,7,,,,,,,,,,,,,,,,,,,AMNE18.jpg,AMSA19.jpg,AMNE11.jpg,AMSA03.jpg,AMNE18.jpg,MN,1,num_8,16,num_8,0.833430517232,,,2017_Jul_13_1814,60.084408815,FEMA4ImagesEEG,001,200824,
AMSA21.JPG,AMNE22.JPG,AMNE21.JPG,AMSA23.JPG,AMSA22.JPG,AMNE23.JPG,,,,,0,2,2,1,,,,,,,,,,,,,,,,,,,AMNE19.jpg,AMSA02.jpg,AMSA12.jpg,AMNE17.jpg,AMSA02.jpg,MS,2,num_6,16,num_6,1.10008056951,,,2017_Jul_13_1814,60.084408815,FEMA4ImagesEEG,001,200824,
AMSA21.JPG,AMNE23.JPG,AMNE21.JPG,AMSA25.JPG,AMNE25.JPG,AMSA23.JPG,,,,,0,3,3,5,,,,,,,,,,,,,,,,,,,AMNE06.jpg,AMNE10.jpg,AMSA14.jpg,AMSA08.jpg,AMNE10.jpg,MN,1,num_6,32,num_2,0.900089742849,,,2017_Jul_13_1814,60.084408815,FEMA4ImagesEEG,001,200824,
AFSA25.JPG,AFNE24.JPG,AFSA24.JPG,AFNE21.JPG,AFSA21.JPG,AFNE25.JPG,,,,,0,4,4,2,,,,,,,,,,,,,,,,,,,AMNE06.jpg,AMSA01.jpg,AMSA05.jpg,AMNE15.jpg,AMSA05.jpg,MS,2,num_2,32,num_8,1.18342560995,,,2017_Jul_13_1814,60.084408815,FEMA4ImagesEEG,001,200824,
AMSA25.JPG,AMNE24.JPG,AMSA24.JPG,AMNE26.JPG,AMSA21.JPG,AMNE25.JPG,,,,,0,5,5,3,,,,,,,,,,,,,,,,,,,AMNE16.jpg,AMSA19.jpg,AMSA11.jpg,AMNE13.jpg,AMNE13.jpg,MN,1,num_4,32,num_2,0.933474201942,,,2017_Jul_13_1814,60.084408815,FEMA4ImagesEEG,001,200824,
AFSA21.JPG,AFNE23.JPG,AFNE21.JPG,AFSA25.JPG,AFNE25.JPG,AFSA23.JPG,,,,,0,6,6,4,,,,,,,,,,,,,,,,,,,AMSA03.jpg,AMSA04.jpg,AMNE14.jpg,AMNE03.jpg,AMSA04.jpg,MS,2,num_6,16,num_6,1.10003470397,,,2017_Jul_13_1814,60.084408815,FEMA4ImagesEEG,001,200824,
AMNE23.JPG,AMNE24.JPG,AMNE22.JPG,AMSA24.JPG,AMSA22.JPG,AMSA23.JPG,,,,,0,7,7,9,,,,,,,,,,,,,,,,,,,AMNE07.jpg,AMSA20.jpg,AMNE09.jpg,AMSA14.jpg,AMSA20.jpg,MS,2,num_6,32,num_8,1.05017579719,,,2017_Jul_13_1814,60.084408815,FEMA4ImagesEEG,001,200824,
AFNE23.JPG,AFNE24.JPG,AFNE22.JPG,AFSA24.JPG,AFSA22.JPG,AFSA23.JPG,,,,,0,8,8,8,,,,,,,,,,,,,,,,,,,AMSA16.jpg,AMNE01.jpg,AMNE08.jpg,AMSA15.jpg,AMSA15.jpg,MS,2,num_4,32,num_2,1.0001379177,,,2017_Jul_13_1814,60.084408815,FEMA4ImagesEEG,001,200824,
AFSA21.JPG,AFNE22.JPG,AFNE21.JPG,AFSA23.JPG,AFSA22.JPG,AFNE23.JPG,,,,,0,9,9,0,,,,,,,,,,,,,,,,,,,AMSA09.jpg,AMNE06.jpg,AMNE04.jpg,AMSA10.jpg,AMNE06.jpg,MN,1,num_6,32,num_8,0.717166089686,,,2017_Jul_13_1814,60.084408815,FEMA4ImagesEEG,001,200824,
AMSA21.JPG,AMNE23.JPG,AMNE21.JPG,AMSA25.JPG,AMNE25.JPG,AMSA23.JPG,,,,,,,,,0,0,0,5,,,,,,,,,,,,,,,AFNE11.jpg,AFSA10.jpg,AFSA07.jpg,AFNE19.jpg,AFSA07.jpg,FS,4,num_2,16,num_2,1.31671455293,,,2017_Jul_13_1814,60.084408815,FEMA4ImagesEEG,001,200824,
AFSA21.JPG,AFNE23.JPG,AFNE21.JPG,AFSA25.JPG,AFNE25.JPG,AFSA23.JPG,,,,,,,,,0,1,1,4,,,,,,,,,,,,,,,AFSA14.jpg,AFSA16.jpg,AFNE18.jpg,AFNE05.jpg,AFSA16.jpg,FS,4,num_6,32,num_8,0.850134293549,,,2017_Jul_13_1814,60.084408815,FEMA4ImagesEEG,001,200824,
AMSA21.JPG,AMNE22.JPG,AMNE21.JPG,AMSA23.JPG,AMSA22.JPG,AMNE23.JPG,,,,,,,,,0,2,2,1,,,,,,,,,,,,,,,AFNE19.jpg,AFNE07.jpg,AFSA06.jpg,AFSA14.jpg,AFNE19.jpg,FN,3,num_8,32,num_4,0.883520356379,,,2017_Jul_13_1814,60.084408815,FEMA4ImagesEEG,001,200824,
AMNE22.JPG,AMSA24.JPG,AMSA22.JPG,AMNE25.JPG,AMNE24.JPG,AMSA25.JPG,,,,,,,,,0,3,3,7,,,,,,,,,,,,,,,AFNE07.jpg,AFSA04.jpg,AFSA10.jpg,AFNE16.jpg,AFNE16.jpg,FN,3,num_4,32,num_2,2.16663555498,,,2017_Jul_13_1814,60.084408815,FEMA4ImagesEEG,001,200824,
AMSA25.JPG,AMNE24.JPG,AMSA24.JPG,AMNE26.JPG,AMSA21.JPG,AMNE25.JPG,,,,,,,,,0,4,4,3,,,,,,,,,,,,,,,AFSA16.jpg,AFSA05.jpg,AFNE16.jpg,AFNE17.jpg,AFSA16.jpg,FS,4,num_8,16,num_8,2.25001427275,,,2017_Jul_13_1814,60.084408815,FEMA4ImagesEEG,001,200824,
AFSA25.JPG,AFNE24.JPG,AFSA24.JPG,AFNE21.JPG,AFSA21.JPG,AFNE25.JPG,,,,,,,,,0,5,5,2,,,,,,,,,,,,,,,AFNE13.jpg,AFSA04.jpg,AFSA14.jpg,AFNE19.jpg,AFNE19.jpg,FN,3,num_4,32,num_2,1.40006632893,,,2017_Jul_13_1814,60.084408815,FEMA4ImagesEEG,001,200824,
AFNE23.JPG,AFNE24.JPG,AFNE22.JPG,AFSA24.JPG,AFSA22.JPG,AFSA23.JPG,,,,,,,,,0,6,6,8,,,,,,,,,,,,,,,AFNE15.jpg,AFNE10.jpg,AFSA17.jpg,AFSA06.jpg,AFSA06.jpg,FS,4,num_4,32,num_8,0.966732289875,,,2017_Jul_13_1814,60.084408815,FEMA4ImagesEEG,001,200824,
AMNE23.JPG,AMNE24.JPG,AMNE22.JPG,AMSA24.JPG,AMSA22.JPG,AMSA23.JPG,,,,,,,,,0,7,7,9,,,,,,,,,,,,,,,AFSA18.jpg,AFNE13.jpg,AFSA04.jpg,AFNE05.jpg,AFNE05.jpg,FN,3,num_4,32,num_8,0.916701787617,,,2017_Jul_13_1814,60.084408815,FEMA4ImagesEEG,001,200824,
AFSA21.JPG,AFNE22.JPG,AFNE21.JPG,AFSA23.JPG,AFSA22.JPG,AFNE23.JPG,,,,,,,,,0,8,8,0,,,,,,,,,,,,,,,AFNE04.jpg,AFNE17.jpg,AFSA17.jpg,AFSA19.jpg,AFNE04.jpg,FN,3,num_8,32,num_2,1.58341720654,,,2017_Jul_13_1814,60.084408815,FEMA4ImagesEEG,001,200824,
AFNE22.JPG,AFSA24.JPG,AFSA22.JPG,AFNE25.JPG,AFNE24.JPG,AFSA25.JPG,,,,,,,,,0,9,9,6,,,,,,,,,,,,,,,AFSA12.jpg,AFNE15.jpg,AFSA14.jpg,AFNE08.jpg,AFNE15.jpg,FN,3,num_6,16,num_6,0.8669092739,,,2017_Jul_13_1814,60.084408815,FEMA4ImagesEEG,001,200824,
AMNE22.JPG,AMSA24.JPG,AMSA22.JPG,AMNE25.JPG,AMNE24.JPG,AMSA25.JPG,,,,,,,,,,,,,0,0,0,7,,,,,,,,,,,AMNE12.jpg,AMNE08.jpg,AMSA20.jpg,AMSA15.jpg,AMSA20.jpg,MS,2,num_2,32,num_8,1.99999262299,,,2017_Jul_13_1814,60.084408815,FEMA4ImagesEEG,001,200824,
AMSA21.JPG,AMNE23.JPG,AMNE21.JPG,AMSA25.JPG,AMNE25.JPG,AMSA23.JPG,,,,,,,,,,,,,0,1,1,5,,,,,,,,,,,AMSA01.jpg,AMNE07.jpg,AMNE17.jpg,AMSA10.jpg,AMSA10.jpg,MS,2,num_4,32,num_6,1.01672462421,,,2017_Jul_13_1814,60.084408815,FEMA4ImagesEEG,001,200824,
AMNE23.JPG,AMNE24.JPG,AMNE22.JPG,AMSA24.JPG,AMSA22.JPG,AMSA23.JPG,,,,,,,,,,,,,0,2,2,9,,,,,,,,,,,AMNE11.jpg,AMNE17.jpg,AMSA17.jpg,AMSA10.jpg,AMSA10.jpg,MS,2,num_4,32,num_8,2.56667814916,,,2017_Jul_13_1814,60.084408815,FEMA4ImagesEEG,001,200824,
AFNE22.JPG,AFSA24.JPG,AFSA22.JPG,AFNE25.JPG,AFNE24.JPG,AFSA25.JPG,,,,,,,,,,,,,0,3,3,6,,,,,,,,,,,AMSA03.jpg,AMNE15.jpg,AMSA14.jpg,AMNE12.jpg,AMNE15.jpg,MN,1,num_6,16,num_6,1.08357950067,,,2017_Jul_13_1814,60.084408815,FEMA4ImagesEEG,001,200824,
AMSA21.JPG,AMNE22.JPG,AMNE21.JPG,AMSA23.JPG,AMSA22.JPG,AMNE23.JPG,,,,,,,,,,,,,0,4,4,1,,,,,,,,,,,AMNE12.jpg,AMNE19.jpg,AMSA06.jpg,AMSA13.jpg,AMSA13.jpg,MS,2,num_4,32,num_8,2.8999454102,,,2017_Jul_13_1814,60.084408815,FEMA4ImagesEEG,001,200824,
AFSA21.JPG,AFNE22.JPG,AFNE21.JPG,AFSA23.JPG,AFSA22.JPG,AFNE23.JPG,,,,,,,,,,,,,0,5,5,0,,,,,,,,,,,AMNE05.jpg,AMNE12.jpg,AMSA14.jpg,AMSA13.jpg,AMNE12.jpg,MN,1,num_6,32,num_8,1.11672308482,,,2017_Jul_13_1814,60.084408815,FEMA4ImagesEEG,001,200824,
AMSA25.JPG,AMNE24.JPG,AMSA24.JPG,AMNE26.JPG,AMSA21.JPG,AMNE25.JPG,,,,,,,,,,,,,0,6,6,3,,,,,,,,,,,AMNE09.jpg,AMSA01.jpg,AMNE14.jpg,AMSA05.jpg,AMSA01.jpg,MS,2,num_6,16,num_6,1.13342269114,,,2017_Jul_13_1814,60.084408815,FEMA4ImagesEEG,001,200824,
AFNE23.JPG,AFNE24.JPG,AFNE22.JPG,AFSA24.JPG,AFSA22.JPG,AFSA23.JPG,,,,,,,,,,,,,0,7,7,8,,,,,,,,,,,AMNE16.jpg,AMSA14.jpg,AMNE13.jpg,AMSA17.jpg,AMSA17.jpg,MS,2,num_4,32,num_8,1.01679230016,,,2017_Jul_13_1814,60.084408815,FEMA4ImagesEEG,001,200824,
AFSA21.JPG,AFNE23.JPG,AFNE21.JPG,AFSA25.JPG,AFNE25.JPG,AFSA23.JPG,,,,,,,,,,,,,0,8,8,4,,,,,,,,,,,AMSA17.jpg,AMNE19.jpg,AMSA07.jpg,AMNE18.jpg,AMNE18.jpg,MN,1,num_4,16,num_4,2.20000333549,,,2017_Jul_13_1814,60.084408815,FEMA4ImagesEEG,001,200824,
AFSA25.JPG,AFNE24.JPG,AFSA24.JPG,AFNE21.JPG,AFSA21.JPG,AFNE25.JPG,,,,,,,,,,,,,0,9,9,2,,,,,,,,,,,AMNE09.jpg,AMNE19.jpg,AMSA19.jpg,AMSA08.jpg,AMSA08.jpg,MS,2,num_4,32,num_6,1.06703384896,,,2017_Jul_13_1814,60.084408815,FEMA4ImagesEEG,001,200824,
AFSA21.JPG,AFNE22.JPG,AFNE21.JPG,AFSA23.JPG,AFSA22.JPG,AFNE23.JPG,,,,,,,,,,,,,,,,,0,0,0,0,,,,,,,AFNE16.jpg,AFNE08.jpg,AFSA18.jpg,AFSA13.jpg,AFSA13.jpg,FS,4,num_4,16,num_4,1.83335097414,,,2017_Jul_13_1814,60.084408815,FEMA4ImagesEEG,001,200824,
AMNE22.JPG,AMSA24.JPG,AMSA22.JPG,AMNE25.JPG,AMNE24.JPG,AMSA25.JPG,,,,,,,,,,,,,,,,,0,1,1,7,,,,,,,AFSA03.jpg,AFNE01.jpg,AFSA08.jpg,AFNE09.jpg,AFNE09.jpg,FN,3,num_4,16,num_4,1.00007088343,,,2017_Jul_13_1814,60.084408815,FEMA4ImagesEEG,001,200824,
AFSA25.JPG,AFNE24.JPG,AFSA24.JPG,AFNE21.JPG,AFSA21.JPG,AFNE25.JPG,,,,,,,,,,,,,,,,,0,2,2,2,,,,,,,AFSA11.jpg,AFNE12.jpg,AFSA14.jpg,AFNE18.jpg,AFNE12.jpg,FN,3,num_6,16,num_6,0.86680792016,,,2017_Jul_13_1814,60.084408815,FEMA4ImagesEEG,001,200824,
AMSA21.JPG,AMNE23.JPG,AMNE21.JPG,AMSA25.JPG,AMNE25.JPG,AMSA23.JPG,,,,,,,,,,,,,,,,,0,3,3,5,,,,,,,AFSA15.jpg,AFNE03.jpg,AFNE08.jpg,AFSA02.jpg,AFSA15.jpg,FS,4,num_8,16,num_8,1.50006318558,,,2017_Jul_13_1814,60.084408815,FEMA4ImagesEEG,001,200824,
AMSA25.JPG,AMNE24.JPG,AMSA24.JPG,AMNE26.JPG,AMSA21.JPG,AMNE25.JPG,,,,,,,,,,,,,,,,,0,4,4,3,,,,,,,AFNE15.jpg,AFNE12.jpg,AFSA01.jpg,AFSA02.jpg,AFSA02.jpg,FS,4,num_4,16,num_4,3.14991991129,,,2017_Jul_13_1814,60.084408815,FEMA4ImagesEEG,001,200824,
AFSA21.JPG,AFNE23.JPG,AFNE21.JPG,AFSA25.JPG,AFNE25.JPG,AFSA23.JPG,,,,,,,,,,,,,,,,,0,5,5,4,,,,,,,AFNE20.jpg,AFSA11.jpg,AFSA19.jpg,AFNE09.jpg,AFNE20.jpg,FN,3,num_8,16,num_8,2.76661028084,,,2017_Jul_13_1814,60.084408815,FEMA4ImagesEEG,001,200824,
AMSA21.JPG,AMNE22.JPG,AMNE21.JPG,AMSA23.JPG,AMSA22.JPG,AMNE23.JPG,,,,,,,,,,,,,,,,,0,6,6,1,,,,,,,AFSA06.jpg,AFNE13.jpg,AFSA05.jpg,AFNE05.jpg,AFNE05.jpg,FN,3,num_4,32,num_8,1.08341528219,,,2017_Jul_13_1814,60.084408815,FEMA4ImagesEEG,001,200824,
AMNE23.JPG,AMNE24.JPG,AMNE22.JPG,AMSA24.JPG,AMSA22.JPG,AMSA23.JPG,,,,,,,,,,,,,,,,,0,7,7,9,,,,,,,AFNE10.jpg,AFSA20.jpg,AFNE08.jpg,AFSA04.jpg,AFNE10.jpg,FN,3,num_8,32,num_4,0.91682046093,,,2017_Jul_13_1814,60.084408815,FEMA4ImagesEEG,001,200824,
AFNE23.JPG,AFNE24.JPG,AFNE22.JPG,AFSA24.JPG,AFSA22.JPG,AFSA23.JPG,,,,,,,,,,,,,,,,,0,8,8,8,,,,,,,AFNE08.jpg,AFSA11.jpg,AFNE03.jpg,AFSA12.jpg,AFNE03.jpg,FN,3,num_2,16,num_2,2.13335180795,,,2017_Jul_13_1814,60.084408815,FEMA4ImagesEEG,001,200824,
AFNE22.JPG,AFSA24.JPG,AFSA22.JPG,AFNE25.JPG,AFNE24.JPG,AFSA25.JPG,,,,,,,,,,,,,,,,,0,9,9,6,,,,,,,AFSA07.jpg,AFSA10.jpg,AFNE11.jpg,AFNE03.jpg,AFSA07.jpg,FS,4,num_8,32,num_6,1.01672269986,,,2017_Jul_13_1814,60.084408815,FEMA4ImagesEEG,001,200824,
AFSA25.JPG,AFNE24.JPG,AFSA24.JPG,AFNE21.JPG,AFSA21.JPG,AFNE25.JPG,,,,,,,,,,,,,,,,,,,,,0,0,0,2,,,AMNE17.jpg,AMSA07.jpg,AMNE03.jpg,AMSA05.jpg,AMNE03.jpg,MN,1,num_2,16,num_2,1.11680262792,,,2017_Jul_13_1814,60.084408815,FEMA4ImagesEEG,001,200824,
AMNE22.JPG,AMSA24.JPG,AMSA22.JPG,AMNE25.JPG,AMNE24.JPG,AMSA25.JPG,,,,,,,,,,,,,,,,,,,,,0,1,1,7,,,AMSA07.jpg,AMSA09.jpg,AMNE16.jpg,AMNE02.jpg,AMNE16.jpg,MN,1,num_2,32,num_6,1.81667959248,,,2017_Jul_13_1814,60.084408815,FEMA4ImagesEEG,001,200824,
AFSA21.JPG,AFNE23.JPG,AFNE21.JPG,AFSA25.JPG,AFNE25.JPG,AFSA23.JPG,,,,,,,,,,,,,,,,,,,,,0,2,2,4,,,AMSA20.jpg,AMNE03.jpg,AMNE01.jpg,AMSA11.jpg,AMSA20.jpg,MS,2,num_8,32,num_4,2.03335174383,,,2017_Jul_13_1814,60.084408815,FEMA4ImagesEEG,001,200824,
AFNE23.JPG,AFNE24.JPG,AFNE22.JPG,AFSA24.JPG,AFSA22.JPG,AFSA23.JPG,,,,,,,,,,,,,,,,,,,,,0,3,3,8,,,AMSA08.jpg,AMNE06.jpg,AMNE04.jpg,AMSA19.jpg,AMSA08.jpg,MS,2,num_8,32,num_2,1.4335575942,,,2017_Jul_13_1814,60.084408815,FEMA4ImagesEEG,001,200824,
AFSA21.JPG,AFNE22.JPG,AFNE21.JPG,AFSA23.JPG,AFSA22.JPG,AFNE23.JPG,,,,,,,,,,,,,,,,,,,,,0,4,4,0,,,AMNE07.jpg,AMSA12.jpg,AMSA03.jpg,AMNE10.jpg,AMSA12.jpg,MS,2,num_6,16,num_6,1.46681632358,,,2017_Jul_13_1814,60.084408815,FEMA4ImagesEEG,001,200824,
AMNE23.JPG,AMNE24.JPG,AMNE22.JPG,AMSA24.JPG,AMSA22.JPG,AMSA23.JPG,,,,,,,,,,,,,,,,,,,,,0,5,5,9,,,AMNE03.jpg,AMNE05.jpg,AMSA14.jpg,AMSA13.jpg,AMNE05.jpg,MN,1,num_6,32,num_8,1.41673771036,,,2017_Jul_13_1814,60.084408815,FEMA4ImagesEEG,001,200824,
AMSA25.JPG,AMNE24.JPG,AMSA24.JPG,AMNE26.JPG,AMSA21.JPG,AMNE25.JPG,,,,,,,,,,,,,,,,,,,,,0,6,6,3,,,AMNE11.jpg,AMSA15.jpg,AMNE09.jpg,AMSA04.jpg,AMSA15.jpg,MS,2,num_6,16,num_6,1.00021457463,,,2017_Jul_13_1814,60.084408815,FEMA4ImagesEEG,001,200824,
AMSA21.JPG,AMNE23.JPG,AMNE21.JPG,AMSA25.JPG,AMNE25.JPG,AMSA23.JPG,,,,,,,,,,,,,,,,,,,,,0,7,7,5,,,AMSA02.jpg,AMNE06.jpg,AMSA12.jpg,AMNE07.jpg,AMNE07.jpg,MN,1,num_4,32,num_2,1.58341335785,,,2017_Jul_13_1814,60.084408815,FEMA4ImagesEEG,001,200824,
AMSA21.JPG,AMNE22.JPG,AMNE21.JPG,AMSA23.JPG,AMSA22.JPG,AMNE23.JPG,,,,,,,,,,,,,,,,,,,,,0,8,8,1,,,AMNE14.jpg,AMNE13.jpg,AMSA17.jpg,AMSA11.jpg,AMNE14.jpg,MN,1,num_8,16,num_8,1.40020103939,,,2017_Jul_13_1814,60.084408815,FEMA4ImagesEEG,001,200824,
AFNE22.JPG,AFSA24.JPG,AFSA22.JPG,AFNE25.JPG,AFNE24.JPG,AFSA25.JPG,,,,,,,,,,,,,,,,,,,,,0,9,9,6,,,AMNE15.jpg,AMSA05.jpg,AMNE12.jpg,AMSA19.jpg,AMNE15.jpg,MN,1,num_8,32,num_6,2.03364329576,,,2017_Jul_13_1814,60.084408815,FEMA4ImagesEEG,001,200824,
,,,,,,,,,,,,,,,,,,,,,,,,,,,,,,,,,,,,,,,,,,,space,7.63287486881,2017_Jul_13_1814,60.084408815,FEMA4ImagesEEG,001,200824,
AFNE01.JPG,AFNE01.JPG,AFNE01.JPG,AFNE01.JPG,AFNE01.JPG,AFNE01.JPG,0,0,0,8,,,,,,,,,,,,,,,,,,,,,,,AFNE11.jpg,AFSA20.jpg,AFSA06.jpg,AFNE14.jpg,AFSA20.jpg,FS,4,num_6,32,num_8,1.23343173601,,,2017_Jul_13_1814,60.084408815,FEMA4ImagesEEG,001,200824,
AFNE01.JPG,AFNE01.JPG,AFNE01.JPG,AFNE01.JPG,AFNE01.JPG,AFNE01.JPG,0,1,1,6,,,,,,,,,,,,,,,,,,,,,,,AFNE16.jpg,AFNE19.jpg,AFSA07.jpg,AFSA02.jpg,AFSA02.jpg,FS,4,num_4,32,num_6,0.85073118913,,,2017_Jul_13_1814,60.084408815,FEMA4ImagesEEG,001,200824,
AFNE01.JPG,AFNE01.JPG,AFNE01.JPG,AFNE01.JPG,AFNE01.JPG,AFNE01.JPG,0,2,2,0,,,,,,,,,,,,,,,,,,,,,,,AFNE11.jpg,AFSA16.jpg,AFSA18.jpg,AFNE09.jpg,AFSA16.jpg,FS,4,num_6,32,num_2,1.03345630481,,,2017_Jul_13_1814,60.084408815,FEMA4ImagesEEG,001,200824,
AFNE01.JPG,AFNE01.JPG,AFNE01.JPG,AFNE01.JPG,AFNE01.JPG,AFNE01.JPG,0,3,3,1,,,,,,,,,,,,,,,,,,,,,,,AFSA20.jpg,AFNE15.jpg,AFSA11.jpg,AFNE09.jpg,AFNE15.jpg,FN,3,num_6,16,num_6,0.716752336128,,,2017_Jul_13_1814,60.084408815,FEMA4ImagesEEG,001,200824,
AFNE01.JPG,AFNE01.JPG,AFNE01.JPG,AFNE01.JPG,AFNE01.JPG,AFNE01.JPG,0,4,4,3,,,,,,,,,,,,,,,,,,,,,,,AFNE09.jpg,AFSA15.jpg,AFNE19.jpg,AFSA12.jpg,AFSA15.jpg,FS,4,num_6,32,num_2,1.53337708209,,,2017_Jul_13_1814,60.084408815,FEMA4ImagesEEG,001,200824,
AFNE01.JPG,AFNE01.JPG,AFNE01.JPG,AFNE01.JPG,AFNE01.JPG,AFNE01.JPG,0,5,5,7,,,,,,,,,,,,,,,,,,,,,,,AFNE17.jpg,AFSA20.jpg,AFSA03.jpg,AFNE12.jpg,AFSA03.jpg,FS,4,num_2,32,num_6,1.98301557708,,,2017_Jul_13_1814,60.084408815,FEMA4ImagesEEG,001,200824,
AFNE01.JPG,AFNE01.JPG,AFNE01.JPG,AFNE01.JPG,AFNE01.JPG,AFNE01.JPG,0,6,6,4,,,,,,,,,,,,,,,,,,,,,,,AFSA10.jpg,AFSA04.jpg,AFNE12.jpg,AFNE08.jpg,AFSA04.jpg,FS,4,num_6,32,num_2,1.90005670674,,,2017_Jul_13_1814,60.084408815,FEMA4ImagesEEG,001,200824,
AFNE01.JPG,AFNE01.JPG,AFNE01.JPG,AFNE01.JPG,AFNE01.JPG,AFNE01.JPG,0,7,7,2,,,,,,,,,,,,,,,,,,,,,,,AFSA06.jpg,AFSA10.jpg,AFNE12.jpg,AFNE01.jpg,AFNE12.jpg,FN,3,num_2,32,num_6,0.766650052508,,,2017_Jul_13_1814,60.084408815,FEMA4ImagesEEG,001,200824,
AFNE01.JPG,AFNE01.JPG,AFNE01.JPG,AFNE01.JPG,AFNE01.JPG,AFNE01.JPG,0,8,8,9,,,,,,,,,,,,,,,,,,,,,,,AFSA03.jpg,AFSA11.jpg,AFNE08.jpg,AFNE10.jpg,AFNE10.jpg,FN,3,num_4,32,num_8,0.73374894727,,,2017_Jul_13_1814,60.084408815,FEMA4ImagesEEG,001,200824,
AFNE01.JPG,AFNE01.JPG,AFNE01.JPG,AFNE01.JPG,AFNE01.JPG,AFNE01.JPG,0,9,9,5,,,,,,,,,,,,,,,,,,,,,,,AFNE09.jpg,AFSA14.jpg,AFSA17.jpg,AFNE03.jpg,AFSA17.jpg,FS,4,num_2,16,num_2,0.56676410744,,,2017_Jul_13_1814,60.084408815,FEMA4ImagesEEG,001,200824,
AFNE01.JPG,AFNE01.JPG,AFNE01.JPG,AFNE01.JPG,AFNE01.JPG,AFNE01.JPG,1,0,10,6,,,,,,,,,,,,,,,,,,,,,,,AFSA09.jpg,AFSA12.jpg,AFNE17.jpg,AFNE01.jpg,AFNE01.jpg,FN,3,num_4,32,num_8,1.23342211405,,,2017_Jul_13_1814,60.084408815,FEMA4ImagesEEG,001,200824,
AFNE01.JPG,AFNE01.JPG,AFNE01.JPG,AFNE01.JPG,AFNE01.JPG,AFNE01.JPG,1,1,11,7,,,,,,,,,,,,,,,,,,,,,,,AFSA12.jpg,AFSA07.jpg,AFNE01.jpg,AFNE05.jpg,AFSA12.jpg,FS,4,num_8,32,num_6,1.88333753496,,,2017_Jul_13_1814,60.084408815,FEMA4ImagesEEG,001,200824,
AFNE01.JPG,AFNE01.JPG,AFNE01.JPG,AFNE01.JPG,AFNE01.JPG,AFNE01.JPG,1,2,12,1,,,,,,,,,,,,,,,,,,,,,,,AFSA10.jpg,AFNE11.jpg,AFNE05.jpg,AFSA07.jpg,AFSA07.jpg,FS,4,num_4,32,num_8,0.78344395617,,,2017_Jul_13_1814,60.084408815,FEMA4ImagesEEG,001,200824,
AFNE01.JPG,AFNE01.JPG,AFNE01.JPG,AFNE01.JPG,AFNE01.JPG,AFNE01.JPG,1,3,13,5,,,,,,,,,,,,,,,,,,,,,,,AFSA14.jpg,AFNE20.jpg,AFNE13.jpg,AFSA16.jpg,AFNE20.jpg,FN,3,num_6,32,num_8,0.900132401148,,,2017_Jul_13_1814,60.084408815,FEMA4ImagesEEG,001,200824,
AFNE01.JPG,AFNE01.JPG,AFNE01.JPG,AFNE01.JPG,AFNE01.JPG,AFNE01.JPG,1,4,14,4,,,,,,,,,,,,,,,,,,,,,,,AFSA08.jpg,AFSA11.jpg,AFNE11.jpg,AFNE04.jpg,AFSA11.jpg,FS,4,num_6,16,num_6,1.11670608562,,,2017_Jul_13_1814,60.084408815,FEMA4ImagesEEG,001,200824,
AFNE01.JPG,AFNE01.JPG,AFNE01.JPG,AFNE01.JPG,AFNE01.JPG,AFNE01.JPG,1,5,15,8,,,,,,,,,,,,,,,,,,,,,,,AFSA18.jpg,AFNE15.jpg,AFNE08.jpg,AFSA20.jpg,AFSA18.jpg,FS,4,num_8,32,num_2,0.950214221841,,,2017_Jul_13_1814,60.084408815,FEMA4ImagesEEG,001,200824,
AFNE01.JPG,AFNE01.JPG,AFNE01.JPG,AFNE01.JPG,AFNE01.JPG,AFNE01.JPG,1,6,16,3,,,,,,,,,,,,,,,,,,,,,,,AFNE20.jpg,AFSA17.jpg,AFNE05.jpg,AFSA03.jpg,AFSA03.jpg,FS,4,num_4,32,num_8,0.800135865109,,,2017_Jul_13_1814,60.084408815,FEMA4ImagesEEG,001,200824,
AFNE01.JPG,AFNE01.JPG,AFNE01.JPG,AFNE01.JPG,AFNE01.JPG,AFNE01.JPG,1,7,17,0,,,,,,,,,,,,,,,,,,,,,,,AFNE20.jpg,AFSA13.jpg,AFSA18.jpg,AFNE18.jpg,AFSA13.jpg,FS,4,num_6,32,num_4,0.783314698376,,,2017_Jul_13_1814,60.084408815,FEMA4ImagesEEG,001,200824,
AFNE01.JPG,AFNE01.JPG,AFNE01.JPG,AFNE01.JPG,AFNE01.JPG,AFNE01.JPG,1,8,18,9,,,,,,,,,,,,,,,,,,,,,,,AFNE12.jpg,AFSA16.jpg,AFSA10.jpg,AFNE02.jpg,AFSA10.jpg,FS,4,num_2,32,num_8,0.900100647938,,,2017_Jul_13_1814,60.084408815,FEMA4ImagesEEG,001,200824,
AFNE01.JPG,AFNE01.JPG,AFNE01.JPG,AFNE01.JPG,AFNE01.JPG,AFNE01.JPG,1,9,19,2,,,,,,,,,,,,,,,,,,,,,,,AFSA16.jpg,AFSA02.jpg,AFNE08.jpg,AFNE02.jpg,AFNE08.jpg,FN,3,num_2,16,num_2,1.20009667077,,,2017_Jul_13_1814,60.084408815,FEMA4ImagesEEG,001,200824,
AFNE01.JPG,AFNE01.JPG,AFNE01.JPG,AFNE01.JPG,AFNE01.JPG,AFNE01.JPG,2,0,20,4,,,,,,,,,,,,,,,,,,,,,,,AFSA15.jpg,AFNE07.jpg,AFSA05.jpg,AFNE19.jpg,AFSA15.jpg,FS,4,num_8,16,num_8,1.5500750849,,,2017_Jul_13_1814,60.084408815,FEMA4ImagesEEG,001,200824,
AFNE01.JPG,AFNE01.JPG,AFNE01.JPG,AFNE01.JPG,AFNE01.JPG,AFNE01.JPG,2,1,21,9,,,,,,,,,,,,,,,,,,,,,,,AFSA11.jpg,AFNE19.jpg,AFNE04.jpg,AFSA07.jpg,AFSA11.jpg,FS,4,num_8,16,num_8,0.950087850448,,,2017_Jul_13_1814,60.084408815,FEMA4ImagesEEG,001,200824,
AFNE01.JPG,AFNE01.JPG,AFNE01.JPG,AFNE01.JPG,AFNE01.JPG,AFNE01.JPG,2,2,22,6,,,,,,,,,,,,,,,,,,,,,,,AFSA20.jpg,AFNE17.jpg,AFSA13.jpg,AFNE15.jpg,AFSA20.jpg,FS,4,num_8,32,num_6,0.816803077236,,,2017_Jul_13_1814,60.084408815,FEMA4ImagesEEG,001,200824,
AFNE01.JPG,AFNE01.JPG,AFNE01.JPG,AFNE01.JPG,AFNE01.JPG,AFNE01.JPG,2,3,23,8,,,,,,,,,,,,,,,,,,,,,,,AFNE20.jpg,AFSA19.jpg,AFSA15.jpg,AFNE17.jpg,AFSA19.jpg,FS,4,num_6,32,num_4,0.966773985885,,,2017_Jul_13_1814,60.084408815,FEMA4ImagesEEG,001,200824,
AFNE01.JPG,AFNE01.JPG,AFNE01.JPG,AFNE01.JPG,AFNE01.JPG,AFNE01.JPG,2,4,24,2,,,,,,,,,,,,,,,,,,,,,,,AFNE19.jpg,AFSA09.jpg,AFSA16.jpg,AFNE01.jpg,AFNE01.jpg,FN,3,num_4,32,num_6,1.25006142142,,,2017_Jul_13_1814,60.084408815,FEMA4ImagesEEG,001,200824,
AFNE01.JPG,AFNE01.JPG,AFNE01.JPG,AFNE01.JPG,AFNE01.JPG,AFNE01.JPG,2,5,25,7,,,,,,,,,,,,,,,,,,,,,,,AFNE13.jpg,AFNE20.jpg,AFSA20.jpg,AFSA10.jpg,AFNE20.jpg,FN,3,num_6,32,num_8,0.883480584715,,,2017_Jul_13_1814,60.084408815,FEMA4ImagesEEG,001,200824,
AFNE01.JPG,AFNE01.JPG,AFNE01.JPG,AFNE01.JPG,AFNE01.JPG,AFNE01.JPG,2,6,26,0,,,,,,,,,,,,,,,,,,,,,,,AFSA03.jpg,AFNE01.jpg,AFSA15.jpg,AFNE05.jpg,AFSA03.jpg,FS,4,num_8,32,num_2,0.60017647082,,,2017_Jul_13_1814,60.084408815,FEMA4ImagesEEG,001,200824,
AFNE01.JPG,AFNE01.JPG,AFNE01.JPG,AFNE01.JPG,AFNE01.JPG,AFNE01.JPG,2,7,27,5,,,,,,,,,,,,,,,,,,,,,,,AFSA01.jpg,AFNE04.jpg,AFSA06.jpg,AFNE06.jpg,AFNE04.jpg,FN,3,num_6,32,num_8,0.849815157941,,,2017_Jul_13_1814,60.084408815,FEMA4ImagesEEG,001,200824,
AFNE01.JPG,AFNE01.JPG,AFNE01.JPG,AFNE01.JPG,AFNE01.JPG,AFNE01.JPG,2,8,28,3,,,,,,,,,,,,,,,,,,,,,,,AFNE01.jpg,AFNE18.jpg,AFSA11.jpg,AFSA19.jpg,AFNE18.jpg,FN,3,num_6,32,num_4,0.966801890405,,,2017_Jul_13_1814,60.084408815,FEMA4ImagesEEG,001,200824,
AFNE01.JPG,AFNE01.JPG,AFNE01.JPG,AFNE01.JPG,AFNE01.JPG,AFNE01.JPG,2,9,29,1,,,,,,,,,,,,,,,,,,,,,,,AFNE03.jpg,AFSA05.jpg,AFNE15.jpg,AFSA14.jpg,AFNE03.jpg,FN,3,num_8,16,num_8,1.01679582847,,,2017_Jul_13_1814,60.084408815,FEMA4ImagesEEG,001,200824,
AFNE01.JPG,AFNE01.JPG,AFNE01.JPG,AFNE01.JPG,AFNE01.JPG,AFNE01.JPG,3,0,30,1,,,,,,,,,,,,,,,,,,,,,,,AFSA16.jpg,AFNE04.jpg,AFNE18.jpg,AFSA02.jpg,AFSA02.jpg,FS,4,num_4,16,num_4,3.00023638457,,,2017_Jul_13_1814,60.084408815,FEMA4ImagesEEG,001,200824,
AFNE01.JPG,AFNE01.JPG,AFNE01.JPG,AFNE01.JPG,AFNE01.JPG,AFNE01.JPG,3,1,31,4,,,,,,,,,,,,,,,,,,,,,,,AFNE08.jpg,AFNE07.jpg,AFSA11.jpg,AFSA14.jpg,AFSA11.jpg,FS,4,num_2,16,num_2,0.583541653585,,,2017_Jul_13_1814,60.084408815,FEMA4ImagesEEG,001,200824,
AFNE01.JPG,AFNE01.JPG,AFNE01.JPG,AFNE01.JPG,AFNE01.JPG,AFNE01.JPG,3,2,32,5,,,,,,,,,,,,,,,,,,,,,,,AFNE16.jpg,AFSA13.jpg,AFSA01.jpg,AFNE13.jpg,AFNE16.jpg,FN,3,num_8,32,num_4,1.03342551365,,,2017_Jul_13_1814,60.084408815,FEMA4ImagesEEG,001,200824,
AFNE01.JPG,AFNE01.JPG,AFNE01.JPG,AFNE01.JPG,AFNE01.JPG,AFNE01.JPG,3,3,33,0,,,,,,,,,,,,,,,,,,,,,,,AFSA10.jpg,AFNE15.jpg,AFSA15.jpg,AFNE19.jpg,AFSA15.jpg,FS,4,num_2,32,num_6,0.76681234641,,,2017_Jul_13_1814,60.084408815,FEMA4ImagesEEG,001,200824,
AFNE01.JPG,AFNE01.JPG,AFNE01.JPG,AFNE01.JPG,AFNE01.JPG,AFNE01.JPG,3,4,34,9,,,,,,,,,,,,,,,,,,,,,,,AFNE02.jpg,AFSA03.jpg,AFSA02.jpg,AFNE14.jpg,AFNE02.jpg,FN,3,num_8,16,num_8,1.56676923903,,,2017_Jul_13_1814,60.084408815,FEMA4ImagesEEG,001,200824,
AFNE01.JPG,AFNE01.JPG,AFNE01.JPG,AFNE01.JPG,AFNE01.JPG,AFNE01.JPG,3,5,35,2,,,,,,,,,,,,,,,,,,,,,,,AFNE11.jpg,AFNE18.jpg,AFSA11.jpg,AFSA07.jpg,AFNE11.jpg,FN,3,num_8,32,num_2,1.40012470353,,,2017_Jul_13_1814,60.084408815,FEMA4ImagesEEG,001,200824,
AFNE01.JPG,AFNE01.JPG,AFNE01.JPG,AFNE01.JPG,AFNE01.JPG,AFNE01.JPG,3,6,36,7,,,,,,,,,,,,,,,,,,,,,,,AFSA11.jpg,AFNE20.jpg,AFSA06.jpg,AFNE14.jpg,AFNE20.jpg,FN,3,num_6,32,num_4,0.816744060954,,,2017_Jul_13_1814,60.084408815,FEMA4ImagesEEG,001,200824,
AFNE01.JPG,AFNE01.JPG,AFNE01.JPG,AFNE01.JPG,AFNE01.JPG,AFNE01.JPG,3,7,37,6,,,,,,,,,,,,,,,,,,,,,,,AFSA17.jpg,AFNE06.jpg,AFSA07.jpg,AFNE02.jpg,AFSA17.jpg,FS,4,num_8,16,num_8,0.683466985356,,,2017_Jul_13_1814,60.084408815,FEMA4ImagesEEG,001,200824,
AFNE01.JPG,AFNE01.JPG,AFNE01.JPG,AFNE01.JPG,AFNE01.JPG,AFNE01.JPG,3,8,38,3,,,,,,,,,,,,,,,,,,,,,,,AFSA19.jpg,AFSA16.jpg,AFNE16.jpg,AFNE08.jpg,AFSA19.jpg,FS,4,num_8,32,num_6,0.966754100053,,,2017_Jul_13_1814,60.084408815,FEMA4ImagesEEG,001,200824,
AFNE01.JPG,AFNE01.JPG,AFNE01.JPG,AFNE01.JPG,AFNE01.JPG,AFNE01.JPG,3,9,39,8,,,,,,,,,,,,,,,,,,,,,,,AFNE13.jpg,AFNE09.jpg,AFSA15.jpg,AFSA16.jpg,AFSA15.jpg,FS,4,num_2,32,num_6,0.950110302074,,,2017_Jul_13_1814,60.084408815,FEMA4ImagesEEG,001,200824,
AFNE01.JPG,AFNE01.JPG,AFNE01.JPG,AFNE01.JPG,AFNE01.JPG,AFNE01.JPG,4,0,40,5,,,,,,,,,,,,,,,,,,,,,,,AFSA02.jpg,AFSA12.jpg,AFNE19.jpg,AFNE12.jpg,AFNE19.jpg,FN,3,num_2,32,num_8,3.3166064641,,,2017_Jul_13_1814,60.084408815,FEMA4ImagesEEG,001,200824,
AFNE01.JPG,AFNE01.JPG,AFNE01.JPG,AFNE01.JPG,AFNE01.JPG,AFNE01.JPG,4,1,41,8,,,,,,,,,,,,,,,,,,,,,,,AFSA07.jpg,AFNE20.jpg,AFSA10.jpg,AFNE18.jpg,AFNE18.jpg,FN,3,num_4,32,num_2,3.48327922472,,,2017_Jul_13_1814,60.084408815,FEMA4ImagesEEG,001,200824,
AFNE01.JPG,AFNE01.JPG,AFNE01.JPG,AFNE01.JPG,AFNE01.JPG,AFNE01.JPG,4,2,42,0,,,,,,,,,,,,,,,,,,,,,,,AFNE01.jpg,AFNE19.jpg,AFSA14.jpg,AFSA19.jpg,AFNE19.jpg,FN,3,num_6,32,num_4,0.833526418312,,,2017_Jul_13_1814,60.084408815,FEMA4ImagesEEG,001,200824,
AFNE01.JPG,AFNE01.JPG,AFNE01.JPG,AFNE01.JPG,AFNE01.JPG,AFNE01.JPG,4,3,43,1,,,,,,,,,,,,,,,,,,,,,,,AFNE09.jpg,AFNE20.jpg,AFSA17.jpg,AFSA09.jpg,AFNE20.jpg,FN,3,num_6,16,num_6,0.850132368971,,,2017_Jul_13_1814,60.084408815,FEMA4ImagesEEG,001,200824,
AFNE01.JPG,AFNE01.JPG,AFNE01.JPG,AFNE01.JPG,AFNE01.JPG,AFNE01.JPG,4,4,44,2,,,,,,,,,,,,,,,,,,,,,,,AFNE02.jpg,AFSA03.jpg,AFNE14.jpg,AFSA13.jpg,AFNE14.jpg,FN,3,num_2,16,num_2,0.933470994467,,,2017_Jul_13_1814,60.084408815,FEMA4ImagesEEG,001,200824,
AFNE01.JPG,AFNE01.JPG,AFNE01.JPG,AFNE01.JPG,AFNE01.JPG,AFNE01.JPG,4,5,45,4,,,,,,,,,,,,,,,,,,,,,,,AFNE07.jpg,AFSA11.jpg,AFSA06.jpg,AFNE16.jpg,AFNE07.jpg,FN,3,num_8,16,num_8,0.933436034014,,,2017_Jul_13_1814,60.084408815,FEMA4ImagesEEG,001,200824,
AFNE01.JPG,AFNE01.JPG,AFNE01.JPG,AFNE01.JPG,AFNE01.JPG,AFNE01.JPG,4,6,46,6,,,,,,,,,,,,,,,,,,,,,,,AFSA05.jpg,AFNE01.jpg,AFNE20.jpg,AFSA08.jpg,AFSA08.jpg,FS,4,num_4,16,num_4,4.49980980181,,,2017_Jul_13_1814,60.084408815,FEMA4ImagesEEG,001,200824,
AFNE01.JPG,AFNE01.JPG,AFNE01.JPG,AFNE01.JPG,AFNE01.JPG,AFNE01.JPG,4,7,47,9,,,,,,,,,,,,,,,,,,,,,,,AFSA05.jpg,AFNE17.jpg,AFNE08.jpg,AFSA01.jpg,AFSA05.jpg,FS,4,num_8,32,num_6,0.950066360878,,,2017_Jul_13_1814,60.084408815,FEMA4ImagesEEG,001,200824,
AFNE01.JPG,AFNE01.JPG,AFNE01.JPG,AFNE01.JPG,AFNE01.JPG,AFNE01.JPG,4,8,48,7,,,,,,,,,,,,,,,,,,,,,,,AFSA04.jpg,AFSA05.jpg,AFNE11.jpg,AFNE18.jpg,AFNE18.jpg,FN,3,num_4,32,num_8,0.95037298766,,,2017_Jul_13_1814,60.084408815,FEMA4ImagesEEG,001,200824,
AFNE01.JPG,AFNE01.JPG,AFNE01.JPG,AFNE01.JPG,AFNE01.JPG,AFNE01.JPG,4,9,49,3,,,,,,,,,,,,,,,,,,,,,,,AFNE11.jpg,AFSA03.jpg,AFNE02.jpg,AFSA17.jpg,AFNE11.jpg,FN,3,num_8,32,num_4,1.48341682157,,,2017_Jul_13_1814,60.084408815,FEMA4ImagesEEG,001,200824,
AFNE01.JPG,AFNE01.JPG,AFNE01.JPG,AFNE01.JPG,AFNE01.JPG,AFNE01.JPG,5,0,50,9,,,,,,,,,,,,,,,,,,,,,,,AFNE03.jpg,AFSA15.jpg,AFSA09.jpg,AFNE13.jpg,AFSA15.jpg,FS,4,num_6,32,num_8,0.733753437642,,,2017_Jul_13_1814,60.084408815,FEMA4ImagesEEG,001,200824,
AFNE01.JPG,AFNE01.JPG,AFNE01.JPG,AFNE01.JPG,AFNE01.JPG,AFNE01.JPG,5,1,51,3,,,,,,,,,,,,,,,,,,,,,,,AFSA04.jpg,AFNE17.jpg,AFSA03.jpg,AFNE16.jpg,AFSA04.jpg,FS,4,num_8,32,num_2,0.783469936345,,,2017_Jul_13_1814,60.084408815,FEMA4ImagesEEG,001,200824,
AFNE01.JPG,AFNE01.JPG,AFNE01.JPG,AFNE01.JPG,AFNE01.JPG,AFNE01.JPG,5,2,52,7,,,,,,,,,,,,,,,,,,,,,,,AFSA16.jpg,AFNE09.jpg,AFNE05.jpg,AFSA19.jpg,AFSA16.jpg,FS,4,num_8,32,num_6,0.933460089378,,,2017_Jul_13_1814,60.084408815,FEMA4ImagesEEG,001,200824,
AFNE01.JPG,AFNE01.JPG,AFNE01.JPG,AFNE01.JPG,AFNE01.JPG,AFNE01.JPG,5,3,53,5,,,,,,,,,,,,,,,,,,,,,,,AFSA09.jpg,AFSA12.jpg,AFNE01.jpg,AFNE10.jpg,AFNE01.jpg,FN,3,num_2,32,num_8,0.750144172227,,,2017_Jul_13_1814,60.084408815,FEMA4ImagesEEG,001,200824,
AFNE01.JPG,AFNE01.JPG,AFNE01.JPG,AFNE01.JPG,AFNE01.JPG,AFNE01.JPG,5,4,54,2,,,,,,,,,,,,,,,,,,,,,,,AFSA11.jpg,AFSA13.jpg,AFNE12.jpg,AFNE19.jpg,AFNE19.jpg,FN,3,num_4,16,num_4,1.01673232182,,,2017_Jul_13_1814,60.084408815,FEMA4ImagesEEG,001,200824,
AFNE01.JPG,AFNE01.JPG,AFNE01.JPG,AFNE01.JPG,AFNE01.JPG,AFNE01.JPG,5,5,55,8,,,,,,,,,,,,,,,,,,,,,,,AFSA20.jpg,AFNE13.jpg,AFSA13.jpg,AFNE04.jpg,AFNE13.jpg,FN,3,num_6,32,num_8,0.983454668894,,,2017_Jul_13_1814,60.084408815,FEMA4ImagesEEG,001,200824,
AFNE01.JPG,AFNE01.JPG,AFNE01.JPG,AFNE01.JPG,AFNE01.JPG,AFNE01.JPG,5,6,56,6,,,,,,,,,,,,,,,,,,,,,,,AFNE11.jpg,AFSA16.jpg,AFSA17.jpg,AFNE04.jpg,AFNE11.jpg,FN,3,num_8,32,num_6,0.850119539537,,,2017_Jul_13_1814,60.084408815,FEMA4ImagesEEG,001,200824,
AFNE01.JPG,AFNE01.JPG,AFNE01.JPG,AFNE01.JPG,AFNE01.JPG,AFNE01.JPG,5,7,57,1,,,,,,,,,,,,,,,,,,,,,,,AFNE20.jpg,AFNE04.jpg,AFSA03.jpg,AFSA09.jpg,AFNE20.jpg,FN,3,num_8,32,num_6,0.850116332062,,,2017_Jul_13_1814,60.084408815,FEMA4ImagesEEG,001,200824,
AFNE01.JPG,AFNE01.JPG,AFNE01.JPG,AFNE01.JPG,AFNE01.JPG,AFNE01.JPG,5,8,58,4,,,,,,,,,,,,,,,,,,,,,,,AFSA11.jpg,AFNE06.jpg,AFNE01.jpg,AFSA03.jpg,AFSA11.jpg,FS,4,num_8,32,num_2,1.94971130253,,,2017_Jul_13_1814,60.084408815,FEMA4ImagesEEG,001,200824,
AFNE01.JPG,AFNE01.JPG,AFNE01.JPG,AFNE01.JPG,AFNE01.JPG,AFNE01.JPG,5,9,59,0,,,,,,,,,,,,,,,,,,,,,,,AFSA11.jpg,AFNE01.jpg,AFNE14.jpg,AFSA08.jpg,AFNE01.jpg,FN,3,num_6,32,num_8,1.05008406565,,,2017_Jul_13_1814,60.084408815,FEMA4ImagesEEG,001,200824,
,,,,,,,,,,,,,,,,,,,,,,,,,,,,,,,,,,,,,,,,,,,space,6.46629416035,2017_Jul_13_1814,60.084408815,FEMA4ImagesEEG,001,200824,
AFNE01.JPG,AFNE01.JPG,AFNE01.JPG,AFNE01.JPG,AFNE01.JPG,AFNE01.JPG,,,,,0,0,0,7,,,,,,,,,,,,,,,,,,,AMSA02.jpg,AMNE09.jpg,AMSA07.jpg,AMNE16.jpg,AMSA02.jpg,MS,2,num_8,32,num_2,1.0501488552,,,2017_Jul_13_1814,60.084408815,FEMA4ImagesEEG,001,200824,
AFNE01.JPG,AFNE01.JPG,AFNE01.JPG,AFNE01.JPG,AFNE01.JPG,AFNE01.JPG,,,,,0,1,1,0,,,,,,,,,,,,,,,,,,,AMNE06.jpg,AMNE04.jpg,AMSA19.jpg,AMSA06.jpg,AMSA19.jpg,MS,2,num_2,32,num_8,0.916755030164,,,2017_Jul_13_1814,60.084408815,FEMA4ImagesEEG,001,200824,
AFNE01.JPG,AFNE01.JPG,AFNE01.JPG,AFNE01.JPG,AFNE01.JPG,AFNE01.JPG,,,,,0,2,2,3,,,,,,,,,,,,,,,,,,,AMSA07.jpg,AMNE19.jpg,AMSA16.jpg,AMNE14.jpg,AMNE19.jpg,MN,1,num_6,32,num_2,0.566785275936,,,2017_Jul_13_1814,60.084408815,FEMA4ImagesEEG,001,200824,
AFNE01.JPG,AFNE01.JPG,AFNE01.JPG,AFNE01.JPG,AFNE01.JPG,AFNE01.JPG,,,,,0,3,3,5,,,,,,,,,,,,,,,,,,,AMSA06.jpg,AMNE10.jpg,AMSA15.jpg,AMNE11.jpg,AMNE10.jpg,MN,1,num_6,32,num_8,0.983412010595,,,2017_Jul_13_1814,60.084408815,FEMA4ImagesEEG,001,200824,
AFNE01.JPG,AFNE01.JPG,AFNE01.JPG,AFNE01.JPG,AFNE01.JPG,AFNE01.JPG,,,,,0,4,4,6,,,,,,,,,,,,,,,,,,,AMSA02.jpg,AMNE10.jpg,AMNE05.jpg,AMSA06.jpg,AMSA02.jpg,MS,2,num_8,32,num_6,0.816773248138,,,2017_Jul_13_1814,60.084408815,FEMA4ImagesEEG,001,200824,
AFNE01.JPG,AFNE01.JPG,AFNE01.JPG,AFNE01.JPG,AFNE01.JPG,AFNE01.JPG,,,,,0,5,5,2,,,,,,,,,,,,,,,,,,,AMSA13.jpg,AMSA16.jpg,AMNE11.jpg,AMNE08.jpg,AMSA16.jpg,MS,2,num_6,32,num_4,0.883448190056,,,2017_Jul_13_1814,60.084408815,FEMA4ImagesEEG,001,200824,
AFNE01.JPG,AFNE01.JPG,AFNE01.JPG,AFNE01.JPG,AFNE01.JPG,AFNE01.JPG,,,,,0,6,6,9,,,,,,,,,,,,,,,,,,,AMNE18.jpg,AMSA07.jpg,AMNE04.jpg,AMSA11.jpg,AMSA07.jpg,MS,2,num_6,32,num_8,0.833473496139,,,2017_Jul_13_1814,60.084408815,FEMA4ImagesEEG,001,200824,
AFNE01.JPG,AFNE01.JPG,AFNE01.JPG,AFNE01.JPG,AFNE01.JPG,AFNE01.JPG,,,,,0,7,7,4,,,,,,,,,,,,,,,,,,,AMNE02.jpg,AMSA05.jpg,AMSA10.jpg,AMNE16.jpg,AMSA05.jpg,MS,2,num_6,16,num_6,0.933493125718,,,2017_Jul_13_1814,60.084408815,FEMA4ImagesEEG,001,200824,
AFNE01.JPG,AFNE01.JPG,AFNE01.JPG,AFNE01.JPG,AFNE01.JPG,AFNE01.JPG,,,,,0,8,8,8,,,,,,,,,,,,,,,,,,,AMNE14.jpg,AMSA14.jpg,AMNE07.jpg,AMSA13.jpg,AMNE07.jpg,MN,1,num_2,32,num_4,2.1834089316,,,2017_Jul_13_1814,60.084408815,FEMA4ImagesEEG,001,200824,
AFNE01.JPG,AFNE01.JPG,AFNE01.JPG,AFNE01.JPG,AFNE01.JPG,AFNE01.JPG,,,,,0,9,9,1,,,,,,,,,,,,,,,,,,,AMSA15.jpg,AMNE03.jpg,AMSA16.jpg,AMNE17.jpg,AMSA15.jpg,MS,2,num_8,16,num_8,0.916748936288,,,2017_Jul_13_1814,60.084408815,FEMA4ImagesEEG,001,200824,
AFNE01.JPG,AFNE01.JPG,AFNE01.JPG,AFNE01.JPG,AFNE01.JPG,AFNE01.JPG,,,,,1,0,10,1,,,,,,,,,,,,,,,,,,,AMNE11.jpg,AMNE17.jpg,AMSA17.jpg,AMSA12.jpg,AMNE17.jpg,MN,1,num_6,32,num_2,0.983738202602,,,2017_Jul_13_1814,60.084408815,FEMA4ImagesEEG,001,200824,
AFNE01.JPG,AFNE01.JPG,AFNE01.JPG,AFNE01.JPG,AFNE01.JPG,AFNE01.JPG,,,,,1,1,11,6,,,,,,,,,,,,,,,,,,,AMSA19.jpg,AMNE12.jpg,AMNE10.jpg,AMSA11.jpg,AMNE10.jpg,MN,1,num_2,32,num_8,0.966756024631,,,2017_Jul_13_1814,60.084408815,FEMA4ImagesEEG,001,200824,
AFNE01.JPG,AFNE01.JPG,AFNE01.JPG,AFNE01.JPG,AFNE01.JPG,AFNE01.JPG,,,,,1,2,12,5,,,,,,,,,,,,,,,,,,,AMSA07.jpg,AMNE06.jpg,AMSA08.jpg,AMNE20.jpg,AMSA08.jpg,MS,2,num_2,16,num_2,1.31675272086,,,2017_Jul_13_1814,60.084408815,FEMA4ImagesEEG,001,200824,
AFNE01.JPG,AFNE01.JPG,AFNE01.JPG,AFNE01.JPG,AFNE01.JPG,AFNE01.JPG,,,,,1,3,13,0,,,,,,,,,,,,,,,,,,,AMNE17.jpg,AMSA04.jpg,AMSA06.jpg,AMNE15.jpg,AMSA06.jpg,MS,2,num_2,32,num_4,1.06672754302,,,2017_Jul_13_1814,60.084408815,FEMA4ImagesEEG,001,200824,
AFNE01.JPG,AFNE01.JPG,AFNE01.JPG,AFNE01.JPG,AFNE01.JPG,AFNE01.JPG,,,,,1,4,14,2,,,,,,,,,,,,,,,,,,,AMSA09.jpg,AMNE09.jpg,AMSA08.jpg,AMNE05.jpg,AMSA08.jpg,MS,2,num_2,32,num_8,0.616787553299,,,2017_Jul_13_1814,60.084408815,FEMA4ImagesEEG,001,200824,
AFNE01.JPG,AFNE01.JPG,AFNE01.JPG,AFNE01.JPG,AFNE01.JPG,AFNE01.JPG,,,,,1,5,15,3,,,,,,,,,,,,,,,,,,,AMSA15.jpg,AMNE15.jpg,AMNE16.jpg,AMSA03.jpg,AMNE16.jpg,MN,1,num_2,32,num_6,0.816626349697,,,2017_Jul_13_1814,60.084408815,FEMA4ImagesEEG,001,200824,
AFNE01.JPG,AFNE01.JPG,AFNE01.JPG,AFNE01.JPG,AFNE01.JPG,AFNE01.JPG,,,,,1,6,16,9,,,,,,,,,,,,,,,,,,,AMSA19.jpg,AMSA04.jpg,AMNE10.jpg,AMNE08.jpg,AMSA04.jpg,MS,2,num_6,32,num_4,0.900119250873,,,2017_Jul_13_1814,60.084408815,FEMA4ImagesEEG,001,200824,
AFNE01.JPG,AFNE01.JPG,AFNE01.JPG,AFNE01.JPG,AFNE01.JPG,AFNE01.JPG,,,,,1,7,17,4,,,,,,,,,,,,,,,,,,,AMSA02.jpg,AMNE09.jpg,AMSA06.jpg,AMNE03.jpg,AMSA06.jpg,MS,2,num_2,32,num_6,0.78345037112,,,2017_Jul_13_1814,60.084408815,FEMA4ImagesEEG,001,200824,
AFNE01.JPG,AFNE01.JPG,AFNE01.JPG,AFNE01.JPG,AFNE01.JPG,AFNE01.JPG,,,,,1,8,18,8,,,,,,,,,,,,,,,,,,,AMSA19.jpg,AMNE05.jpg,AMSA15.jpg,AMNE10.jpg,AMSA19.jpg,MS,2,num_8,32,num_2,1.56666499889,,,2017_Jul_13_1814,60.084408815,FEMA4ImagesEEG,001,200824,
AFNE01.JPG,AFNE01.JPG,AFNE01.JPG,AFNE01.JPG,AFNE01.JPG,AFNE01.JPG,,,,,1,9,19,7,,,,,,,,,,,,,,,,,,,AMSA14.jpg,AMSA10.jpg,AMNE05.jpg,AMNE14.jpg,AMNE14.jpg,MN,1,num_4,16,num_4,0.800176919671,,,2017_Jul_13_1814,60.084408815,FEMA4ImagesEEG,001,200824,
AFNE01.JPG,AFNE01.JPG,AFNE01.JPG,AFNE01.JPG,AFNE01.JPG,AFNE01.JPG,,,,,2,0,20,6,,,,,,,,,,,,,,,,,,,AMSA07.jpg,AMSA02.jpg,AMNE10.jpg,AMNE07.jpg,AMSA02.jpg,MS,2,num_6,32,num_8,0.700143498834,,,2017_Jul_13_1814,60.084408815,FEMA4ImagesEEG,001,200824,
AFNE01.JPG,AFNE01.JPG,AFNE01.JPG,AFNE01.JPG,AFNE01.JPG,AFNE01.JPG,,,,,2,1,21,5,,,,,,,,,,,,,,,,,,,AMSA10.jpg,AMNE06.jpg,AMNE09.jpg,AMSA07.jpg,AMSA10.jpg,MS,2,num_8,32,num_6,0.550135704922,,,2017_Jul_13_1814,60.084408815,FEMA4ImagesEEG,001,200824,
AFNE01.JPG,AFNE01.JPG,AFNE01.JPG,AFNE01.JPG,AFNE01.JPG,AFNE01.JPG,,,,,2,2,22,9,,,,,,,,,,,,,,,,,,,AMSA19.jpg,AMNE20.jpg,AMNE16.jpg,AMSA18.jpg,AMNE16.jpg,MN,1,num_2,16,num_2,0.783501689322,,,2017_Jul_13_1814,60.084408815,FEMA4ImagesEEG,001,200824,
AFNE01.JPG,AFNE01.JPG,AFNE01.JPG,AFNE01.JPG,AFNE01.JPG,AFNE01.JPG,,,,,2,3,23,3,,,,,,,,,,,,,,,,,,,AMNE16.jpg,AMNE08.jpg,AMSA09.jpg,AMSA19.jpg,AMSA19.jpg,MS,2,num_4,32,num_6,0.81675656978,,,2017_Jul_13_1814,60.084408815,FEMA4ImagesEEG,001,200824,
AFNE01.JPG,AFNE01.JPG,AFNE01.JPG,AFNE01.JPG,AFNE01.JPG,AFNE01.JPG,,,,,2,4,24,1,,,,,,,,,,,,,,,,,,,AMSA05.jpg,AMNE08.jpg,AMSA18.jpg,AMNE11.jpg,AMSA18.jpg,MS,2,num_2,32,num_8,1.06674518343,,,2017_Jul_13_1814,60.084408815,FEMA4ImagesEEG,001,200824,
AFNE01.JPG,AFNE01.JPG,AFNE01.JPG,AFNE01.JPG,AFNE01.JPG,AFNE01.JPG,,,,,2,5,25,4,,,,,,,,,,,,,,,,,,,AMNE13.jpg,AMNE19.jpg,AMSA03.jpg,AMSA08.jpg,AMSA03.jpg,MS,2,num_2,16,num_2,0.800163448788,,,2017_Jul_13_1814,60.084408815,FEMA4ImagesEEG,001,200824,
AFNE01.JPG,AFNE01.JPG,AFNE01.JPG,AFNE01.JPG,AFNE01.JPG,AFNE01.JPG,,,,,2,6,26,0,,,,,,,,,,,,,,,,,,,AMSA18.jpg,AMSA14.jpg,AMNE04.jpg,AMNE10.jpg,AMNE10.jpg,MN,1,num_4,32,num_8,0.783473464428,,,2017_Jul_13_1814,60.084408815,FEMA4ImagesEEG,001,200824,
AFNE01.JPG,AFNE01.JPG,AFNE01.JPG,AFNE01.JPG,AFNE01.JPG,AFNE01.JPG,,,,,2,7,27,8,,,,,,,,,,,,,,,,,,,AMSA19.jpg,AMSA14.jpg,AMNE07.jpg,AMNE12.jpg,AMNE12.jpg,MN,1,num_4,16,num_4,0.766768084373,,,2017_Jul_13_1814,60.084408815,FEMA4ImagesEEG,001,200824,
AFNE01.JPG,AFNE01.JPG,AFNE01.JPG,AFNE01.JPG,AFNE01.JPG,AFNE01.JPG,,,,,2,8,28,7,,,,,,,,,,,,,,,,,,,AMSA06.jpg,AMNE07.jpg,AMSA04.jpg,AMNE09.jpg,AMNE09.jpg,MN,1,num_4,32,num_8,0.983471988933,,,2017_Jul_13_1814,60.084408815,FEMA4ImagesEEG,001,200824,
AFNE01.JPG,AFNE01.JPG,AFNE01.JPG,AFNE01.JPG,AFNE01.JPG,AFNE01.JPG,,,,,2,9,29,2,,,,,,,,,,,,,,,,,,,AMSA13.jpg,AMNE18.jpg,AMNE08.jpg,AMSA08.jpg,AMSA08.jpg,MS,2,num_4,16,num_4,1.03342102328,,,2017_Jul_13_1814,60.084408815,FEMA4ImagesEEG,001,200824,
AFNE01.JPG,AFNE01.JPG,AFNE01.JPG,AFNE01.JPG,AFNE01.JPG,AFNE01.JPG,,,,,3,0,30,1,,,,,,,,,,,,,,,,,,,AMSA17.jpg,AMNE11.jpg,AMNE16.jpg,AMSA01.jpg,AMSA01.jpg,MS,2,num_4,32,num_2,0.899778625928,,,2017_Jul_13_1814,60.084408815,FEMA4ImagesEEG,001,200824,
AFNE01.JPG,AFNE01.JPG,AFNE01.JPG,AFNE01.JPG,AFNE01.JPG,AFNE01.JPG,,,,,3,1,31,5,,,,,,,,,,,,,,,,,,,AMNE03.jpg,AMNE12.jpg,AMSA05.jpg,AMSA16.jpg,AMNE12.jpg,MN,1,num_6,32,num_2,1.71667824523,,,2017_Jul_13_1814,60.084408815,FEMA4ImagesEEG,001,200824,
AFNE01.JPG,AFNE01.JPG,AFNE01.JPG,AFNE01.JPG,AFNE01.JPG,AFNE01.JPG,,,,,3,2,32,6,,,,,,,,,,,,,,,,,,,AMSA08.jpg,AMSA05.jpg,AMNE15.jpg,AMNE19.jpg,AMSA08.jpg,MS,2,num_8,32,num_6,0.750135512324,,,2017_Jul_13_1814,60.084408815,FEMA4ImagesEEG,001,200824,
AFNE01.JPG,AFNE01.JPG,AFNE01.JPG,AFNE01.JPG,AFNE01.JPG,AFNE01.JPG,,,,,3,3,33,3,,,,,,,,,,,,,,,,,,,AMSA16.jpg,AMNE04.jpg,AMNE12.jpg,AMSA03.jpg,AMNE12.jpg,MN,1,num_2,32,num_8,0.883461660938,,,2017_Jul_13_1814,60.084408815,FEMA4ImagesEEG,001,200824,
AFNE01.JPG,AFNE01.JPG,AFNE01.JPG,AFNE01.JPG,AFNE01.JPG,AFNE01.JPG,,,,,3,4,34,0,,,,,,,,,,,,,,,,,,,AMNE18.jpg,AMSA16.jpg,AMNE11.jpg,AMSA05.jpg,AMSA05.jpg,MS,2,num_4,32,num_2,1.01674034027,,,2017_Jul_13_1814,60.084408815,FEMA4ImagesEEG,001,200824,
AFNE01.JPG,AFNE01.JPG,AFNE01.JPG,AFNE01.JPG,AFNE01.JPG,AFNE01.JPG,,,,,3,5,35,2,,,,,,,,,,,,,,,,,,,AMSA08.jpg,AMNE10.jpg,AMNE01.jpg,AMSA20.jpg,AMNE01.jpg,MN,1,num_2,32,num_8,1.71655764757,,,2017_Jul_13_1814,60.084408815,FEMA4ImagesEEG,001,200824,
AFNE01.JPG,AFNE01.JPG,AFNE01.JPG,AFNE01.JPG,AFNE01.JPG,AFNE01.JPG,,,,,3,6,36,7,,,,,,,,,,,,,,,,,,,AMSA03.jpg,AMNE10.jpg,AMNE03.jpg,AMSA05.jpg,AMSA03.jpg,MS,2,num_8,32,num_2,1.25007136445,,,2017_Jul_13_1814,60.084408815,FEMA4ImagesEEG,001,200824,
AFNE01.JPG,AFNE01.JPG,AFNE01.JPG,AFNE01.JPG,AFNE01.JPG,AFNE01.JPG,,,,,3,7,37,8,,,,,,,,,,,,,,,,,,,AMNE10.jpg,AMSA03.jpg,AMSA07.jpg,AMNE03.jpg,AMSA07.jpg,MS,2,num_2,32,num_4,1.28344363556,,,2017_Jul_13_1814,60.084408815,FEMA4ImagesEEG,001,200824,
AFNE01.JPG,AFNE01.JPG,AFNE01.JPG,AFNE01.JPG,AFNE01.JPG,AFNE01.JPG,,,,,3,8,38,9,,,,,,,,,,,,,,,,,,,AMNE09.jpg,AMSA19.jpg,AMNE07.jpg,AMSA06.jpg,AMNE09.jpg,MN,1,num_8,16,num_8,1.61666470999,,,2017_Jul_13_1814,60.084408815,FEMA4ImagesEEG,001,200824,
AFNE01.JPG,AFNE01.JPG,AFNE01.JPG,AFNE01.JPG,AFNE01.JPG,AFNE01.JPG,,,,,3,9,39,4,,,,,,,,,,,,,,,,,,,AMSA10.jpg,AMNE01.jpg,AMSA01.jpg,AMNE15.jpg,AMSA10.jpg,MS,2,num_8,16,num_8,0.966737742536,,,2017_Jul_13_1814,60.084408815,FEMA4ImagesEEG,001,200824,
AFNE01.JPG,AFNE01.JPG,AFNE01.JPG,AFNE01.JPG,AFNE01.JPG,AFNE01.JPG,,,,,4,0,40,7,,,,,,,,,,,,,,,,,,,AMSA08.jpg,AMNE07.jpg,AMNE17.jpg,AMSA03.jpg,AMSA08.jpg,MS,2,num_8,32,num_6,0.683489757823,,,2017_Jul_13_1814,60.084408815,FEMA4ImagesEEG,001,200824,
AFNE01.JPG,AFNE01.JPG,AFNE01.JPG,AFNE01.JPG,AFNE01.JPG,AFNE01.JPG,,,,,4,1,41,4,,,,,,,,,,,,,,,,,,,AMSA03.jpg,AMSA06.jpg,AMNE06.jpg,AMNE08.jpg,AMSA03.jpg,MS,2,num_8,32,num_2,0.850104464684,,,2017_Jul_13_1814,60.084408815,FEMA4ImagesEEG,001,200824,
AFNE01.JPG,AFNE01.JPG,AFNE01.JPG,AFNE01.JPG,AFNE01.JPG,AFNE01.JPG,,,,,4,2,42,2,,,,,,,,,,,,,,,,,,,AMSA01.jpg,AMSA06.jpg,AMNE06.jpg,AMNE09.jpg,AMSA06.jpg,MS,2,num_6,32,num_4,0.766751406016,,,2017_Jul_13_1814,60.084408815,FEMA4ImagesEEG,001,200824,
AFNE01.JPG,AFNE01.JPG,AFNE01.JPG,AFNE01.JPG,AFNE01.JPG,AFNE01.JPG,,,,,4,3,43,0,,,,,,,,,,,,,,,,,,,AMSA19.jpg,AMSA01.jpg,AMNE18.jpg,AMNE03.jpg,AMSA19.jpg,MS,2,num_8,16,num_8,1.06674742885,,,2017_Jul_13_1814,60.084408815,FEMA4ImagesEEG,001,200824,
AFNE01.JPG,AFNE01.JPG,AFNE01.JPG,AFNE01.JPG,AFNE01.JPG,AFNE01.JPG,,,,,4,4,44,9,,,,,,,,,,,,,,,,,,,AMSA19.jpg,AMNE06.jpg,AMNE08.jpg,AMSA03.jpg,AMNE08.jpg,MN,1,num_2,32,num_6,0.716755222762,,,2017_Jul_13_1814,60.084408815,FEMA4ImagesEEG,001,200824,
AFNE01.JPG,AFNE01.JPG,AFNE01.JPG,AFNE01.JPG,AFNE01.JPG,AFNE01.JPG,,,,,4,5,45,3,,,,,,,,,,,,,,,,,,,AMSA07.jpg,AMNE10.jpg,AMNE11.jpg,AMSA01.jpg,AMNE11.jpg,MN,1,num_2,32,num_8,1.55005455762,,,2017_Jul_13_1814,60.084408815,FEMA4ImagesEEG,001,200824,
AFNE01.JPG,AFNE01.JPG,AFNE01.JPG,AFNE01.JPG,AFNE01.JPG,AFNE01.JPG,,,,,4,6,46,1,,,,,,,,,,,,,,,,,,,AMSA12.jpg,AMNE09.jpg,AMNE06.jpg,AMSA14.jpg,AMNE06.jpg,MN,1,num_2,32,num_6,0.70013900823,,,2017_Jul_13_1814,60.084408815,FEMA4ImagesEEG,001,200824,
AFNE01.JPG,AFNE01.JPG,AFNE01.JPG,AFNE01.JPG,AFNE01.JPG,AFNE01.JPG,,,,,4,7,47,6,,,,,,,,,,,,,,,,,,,AMNE13.jpg,AMSA03.jpg,AMSA07.jpg,AMNE08.jpg,AMNE08.jpg,MN,1,num_4,16,num_4,1.2668046488,,,2017_Jul_13_1814,60.084408815,FEMA4ImagesEEG,001,200824,
AFNE01.JPG,AFNE01.JPG,AFNE01.JPG,AFNE01.JPG,AFNE01.JPG,AFNE01.JPG,,,,,4,8,48,8,,,,,,,,,,,,,,,,,,,AMSA07.jpg,AMSA16.jpg,AMNE10.jpg,AMNE13.jpg,AMNE10.jpg,MN,1,num_2,16,num_2,0.800108923111,,,2017_Jul_13_1814,60.084408815,FEMA4ImagesEEG,001,200824,
AFNE01.JPG,AFNE01.JPG,AFNE01.JPG,AFNE01.JPG,AFNE01.JPG,AFNE01.JPG,,,,,4,9,49,5,,,,,,,,,,,,,,,,,,,AMNE09.jpg,AMSA18.jpg,AMSA10.jpg,AMNE19.jpg,AMSA18.jpg,MS,2,num_6,16,num_6,0.866768148495,,,2017_Jul_13_1814,60.084408815,FEMA4ImagesEEG,001,200824,
AFNE01.JPG,AFNE01.JPG,AFNE01.JPG,AFNE01.JPG,AFNE01.JPG,AFNE01.JPG,,,,,5,0,50,6,,,,,,,,,,,,,,,,,,,AMNE04.jpg,AMNE08.jpg,AMSA14.jpg,AMSA05.jpg,AMSA14.jpg,MS,2,num_2,32,num_8,1.63344257697,,,2017_Jul_13_1814,60.084408815,FEMA4ImagesEEG,001,200824,
AFNE01.JPG,AFNE01.JPG,AFNE01.JPG,AFNE01.JPG,AFNE01.JPG,AFNE01.JPG,,,,,5,1,51,9,,,,,,,,,,,,,,,,,,,AMSA10.jpg,AMNE13.jpg,AMSA08.jpg,AMNE04.jpg,AMNE13.jpg,MN,1,num_6,16,num_6,0.866729018278,,,2017_Jul_13_1814,60.084408815,FEMA4ImagesEEG,001,200824,
AFNE01.JPG,AFNE01.JPG,AFNE01.JPG,AFNE01.JPG,AFNE01.JPG,AFNE01.JPG,,,,,5,2,52,4,,,,,,,,,,,,,,,,,,,AMSA01.jpg,AMNE14.jpg,AMNE13.jpg,AMSA10.jpg,AMSA01.jpg,MS,2,num_8,16,num_8,0.950130829588,,,2017_Jul_13_1814,60.084408815,FEMA4ImagesEEG,001,200824,
AFNE01.JPG,AFNE01.JPG,AFNE01.JPG,AFNE01.JPG,AFNE01.JPG,AFNE01.JPG,,,,,5,3,53,5,,,,,,,,,,,,,,,,,,,AMSA02.jpg,AMNE10.jpg,AMNE16.jpg,AMSA13.jpg,AMSA02.jpg,MS,2,num_8,32,num_2,0.850109596737,,,2017_Jul_13_1814,60.084408815,FEMA4ImagesEEG,001,200824,
AFNE01.JPG,AFNE01.JPG,AFNE01.JPG,AFNE01.JPG,AFNE01.JPG,AFNE01.JPG,,,,,5,4,54,2,,,,,,,,,,,,,,,,,,,AMSA06.jpg,AMNE07.jpg,AMNE13.jpg,AMSA10.jpg,AMSA06.jpg,MS,2,num_8,32,num_4,0.750006575137,,,2017_Jul_13_1814,60.084408815,FEMA4ImagesEEG,001,200824,
AFNE01.JPG,AFNE01.JPG,AFNE01.JPG,AFNE01.JPG,AFNE01.JPG,AFNE01.JPG,,,,,5,5,55,3,,,,,,,,,,,,,,,,,,,AMNE10.jpg,AMSA12.jpg,AMSA19.jpg,AMNE05.jpg,AMSA12.jpg,MS,2,num_6,32,num_8,0.833451365354,,,2017_Jul_13_1814,60.084408815,FEMA4ImagesEEG,001,200824,
AFNE01.JPG,AFNE01.JPG,AFNE01.JPG,AFNE01.JPG,AFNE01.JPG,AFNE01.JPG,,,,,5,6,56,1,,,,,,,,,,,,,,,,,,,AMNE04.jpg,AMSA20.jpg,AMSA17.jpg,AMNE14.jpg,AMNE04.jpg,MN,1,num_8,32,num_6,0.400134646334,,,2017_Jul_13_1814,60.084408815,FEMA4ImagesEEG,001,200824,
AFNE01.JPG,AFNE01.JPG,AFNE01.JPG,AFNE01.JPG,AFNE01.JPG,AFNE01.JPG,,,,,5,7,57,0,,,,,,,,,,,,,,,,,,,AMNE13.jpg,AMSA03.jpg,AMSA08.jpg,AMNE18.jpg,AMNE18.jpg,MN,1,num_4,32,num_2,1.68334542518,,,2017_Jul_13_1814,60.084408815,FEMA4ImagesEEG,001,200824,
AFNE01.JPG,AFNE01.JPG,AFNE01.JPG,AFNE01.JPG,AFNE01.JPG,AFNE01.JPG,,,,,5,8,58,8,,,,,,,,,,,,,,,,,,,AMSA04.jpg,AMNE07.jpg,AMNE17.jpg,AMSA17.jpg,AMSA17.jpg,MS,2,num_4,16,num_4,0.766666089417,,,2017_Jul_13_1814,60.084408815,FEMA4ImagesEEG,001,200824,
AFNE01.JPG,AFNE01.JPG,AFNE01.JPG,AFNE01.JPG,AFNE01.JPG,AFNE01.JPG,,,,,5,9,59,7,,,,,,,,,,,,,,,,,,,AMSA02.jpg,AMNE19.jpg,AMSA17.jpg,AMNE09.jpg,AMSA02.jpg,MS,2,num_8,32,num_6,1.08291236334,,,2017_Jul_13_1814,60.084408815,FEMA4ImagesEEG,001,200824,
,,,,,,,,,,,,,,,,,,,,,,,,,,,,,,,,,,,,,,,,,,,space,12.4325094186,2017_Jul_13_1814,60.084408815,FEMA4ImagesEEG,001,200824,
AFNE01.JPG,AFNE01.JPG,AFNE01.JPG,AFNE01.JPG,AFNE01.JPG,AFNE01.JPG,,,,,,,,,0,0,0,8,,,,,,,,,,,,,,,AFNE04.jpg,AFSA17.jpg,AFSA07.jpg,AFNE15.jpg,AFNE04.jpg,FN,3,num_8,16,num_8,0.649662999436,,,2017_Jul_13_1814,60.084408815,FEMA4ImagesEEG,001,200824,
AFNE01.JPG,AFNE01.JPG,AFNE01.JPG,AFNE01.JPG,AFNE01.JPG,AFNE01.JPG,,,,,,,,,0,1,1,7,,,,,,,,,,,,,,,AFNE20.jpg,AFSA16.jpg,AFNE18.jpg,AFSA08.jpg,AFSA16.jpg,FS,4,num_6,32,num_2,1.48325677286,,,2017_Jul_13_1814,60.084408815,FEMA4ImagesEEG,001,200824,
AFNE01.JPG,AFNE01.JPG,AFNE01.JPG,AFNE01.JPG,AFNE01.JPG,AFNE01.JPG,,,,,,,,,0,2,2,1,,,,,,,,,,,,,,,AFSA13.jpg,AFNE14.jpg,AFNE16.jpg,AFSA06.jpg,AFSA06.jpg,FS,4,num_4,32,num_6,0.950175412232,,,2017_Jul_13_1814,60.084408815,FEMA4ImagesEEG,001,200824,
AFNE01.JPG,AFNE01.JPG,AFNE01.JPG,AFNE01.JPG,AFNE01.JPG,AFNE01.JPG,,,,,,,,,0,3,3,6,,,,,,,,,,,,,,,AFNE12.jpg,AFSA10.jpg,AFSA05.jpg,AFNE09.jpg,AFNE09.jpg,FN,3,num_4,32,num_8,0.900159663986,,,2017_Jul_13_1814,60.084408815,FEMA4ImagesEEG,001,200824,
AFNE01.JPG,AFNE01.JPG,AFNE01.JPG,AFNE01.JPG,AFNE01.JPG,AFNE01.JPG,,,,,,,,,0,4,4,4,,,,,,,,,,,,,,,AFSA18.jpg,AFSA09.jpg,AFNE05.jpg,AFNE02.jpg,AFSA18.jpg,FS,4,num_8,32,num_4,1.31673508021,,,2017_Jul_13_1814,60.084408815,FEMA4ImagesEEG,001,200824,
AFNE01.JPG,AFNE01.JPG,AFNE01.JPG,AFNE01.JPG,AFNE01.JPG,AFNE01.JPG,,,,,,,,,0,5,5,2,,,,,,,,,,,,,,,AFNE13.jpg,AFNE01.jpg,AFSA18.jpg,AFSA03.jpg,AFNE13.jpg,FN,3,num_8,16,num_8,1.11666118214,,,2017_Jul_13_1814,60.084408815,FEMA4ImagesEEG,001,200824,
AFNE01.JPG,AFNE01.JPG,AFNE01.JPG,AFNE01.JPG,AFNE01.JPG,AFNE01.JPG,,,,,,,,,0,6,6,5,,,,,,,,,,,,,,,AFNE19.jpg,AFSA05.jpg,AFSA16.jpg,AFNE05.jpg,AFSA05.jpg,FS,4,num_6,16,num_6,0.666648705257,,,2017_Jul_13_1814,60.084408815,FEMA4ImagesEEG,001,200824,
AFNE01.JPG,AFNE01.JPG,AFNE01.JPG,AFNE01.JPG,AFNE01.JPG,AFNE01.JPG,,,,,,,,,0,7,7,9,,,,,,,,,,,,,,,AFSA10.jpg,AFSA15.jpg,AFNE07.jpg,AFNE14.jpg,AFNE14.jpg,FN,3,num_4,32,num_8,0.700148630654,,,2017_Jul_13_1814,60.084408815,FEMA4ImagesEEG,001,200824,
AFNE01.JPG,AFNE01.JPG,AFNE01.JPG,AFNE01.JPG,AFNE01.JPG,AFNE01.JPG,,,,,,,,,0,8,8,3,,,,,,,,,,,,,,,AFSA08.jpg,AFNE06.jpg,AFNE19.jpg,AFSA11.jpg,AFNE19.jpg,FN,3,num_2,32,num_4,1.28343112674,,,2017_Jul_13_1814,60.084408815,FEMA4ImagesEEG,001,200824,
AFNE01.JPG,AFNE01.JPG,AFNE01.JPG,AFNE01.JPG,AFNE01.JPG,AFNE01.JPG,,,,,,,,,0,9,9,0,,,,,,,,,,,,,,,AFSA03.jpg,AFSA01.jpg,AFNE15.jpg,AFNE16.jpg,AFNE15.jpg,FN,3,num_2,16,num_2,1.2500803452,,,2017_Jul_13_1814,60.084408815,FEMA4ImagesEEG,001,200824,
AFNE01.JPG,AFNE01.JPG,AFNE01.JPG,AFNE01.JPG,AFNE01.JPG,AFNE01.JPG,,,,,,,,,1,0,10,9,,,,,,,,,,,,,,,AFSA19.jpg,AFNE14.jpg,AFSA16.jpg,AFNE06.jpg,AFNE06.jpg,FN,3,num_4,32,num_8,0.866751470137,,,2017_Jul_13_1814,60.084408815,FEMA4ImagesEEG,001,200824,
AFNE01.JPG,AFNE01.JPG,AFNE01.JPG,AFNE01.JPG,AFNE01.JPG,AFNE01.JPG,,,,,,,,,1,1,11,8,,,,,,,,,,,,,,,AFSA09.jpg,AFNE13.jpg,AFSA01.jpg,AFNE11.jpg,AFSA01.jpg,FS,4,num_2,32,num_4,1.06640455849,,,2017_Jul_13_1814,60.084408815,FEMA4ImagesEEG,001,200824,
AFNE01.JPG,AFNE01.JPG,AFNE01.JPG,AFNE01.JPG,AFNE01.JPG,AFNE01.JPG,,,,,,,,,1,2,12,4,,,,,,,,,,,,,,,AFSA17.jpg,AFSA04.jpg,AFNE15.jpg,AFNE08.jpg,AFSA04.jpg,FS,4,num_6,32,num_2,0.88344113389,,,2017_Jul_13_1814,60.084408815,FEMA4ImagesEEG,001,200824,
AFNE01.JPG,AFNE01.JPG,AFNE01.JPG,AFNE01.JPG,AFNE01.JPG,AFNE01.JPG,,,,,,,,,1,3,13,3,,,,,,,,,,,,,,,AFNE10.jpg,AFSA04.jpg,AFNE08.jpg,AFSA20.jpg,AFSA20.jpg,FS,4,num_4,32,num_8,1.53344219201,,,2017_Jul_13_1814,60.084408815,FEMA4ImagesEEG,001,200824,
AFNE01.JPG,AFNE01.JPG,AFNE01.JPG,AFNE01.JPG,AFNE01.JPG,AFNE01.JPG,,,,,,,,,1,4,14,5,,,,,,,,,,,,,,,AFSA10.jpg,AFSA14.jpg,AFNE04.jpg,AFNE17.jpg,AFNE17.jpg,FN,3,num_4,32,num_2,1.31678479514,,,2017_Jul_13_1814,60.084408815,FEMA4ImagesEEG,001,200824,
AFNE01.JPG,AFNE01.JPG,AFNE01.JPG,AFNE01.JPG,AFNE01.JPG,AFNE01.JPG,,,,,,,,,1,5,15,1,,,,,,,,,,,,,,,AFNE16.jpg,AFSA08.jpg,AFSA05.jpg,AFNE14.jpg,AFSA08.jpg,FS,4,num_6,32,num_4,0.900109949289,,,2017_Jul_13_1814,60.084408815,FEMA4ImagesEEG,001,200824,
AFNE01.JPG,AFNE01.JPG,AFNE01.JPG,AFNE01.JPG,AFNE01.JPG,AFNE01.JPG,,,,,,,,,1,6,16,6,,,,,,,,,,,,,,,AFSA17.jpg,AFNE16.jpg,AFNE06.jpg,AFSA11.jpg,AFSA17.jpg,FS,4,num_8,32,num_4,0.800120149041,,,2017_Jul_13_1814,60.084408815,FEMA4ImagesEEG,001,200824,
AFNE01.JPG,AFNE01.JPG,AFNE01.JPG,AFNE01.JPG,AFNE01.JPG,AFNE01.JPG,,,,,,,,,1,7,17,2,,,,,,,,,,,,,,,AFSA14.jpg,AFNE11.jpg,AFSA02.jpg,AFNE05.jpg,AFSA02.jpg,FS,4,num_2,32,num_8,0.966748647625,,,2017_Jul_13_1814,60.084408815,FEMA4ImagesEEG,001,200824,
AFNE01.JPG,AFNE01.JPG,AFNE01.JPG,AFNE01.JPG,AFNE01.JPG,AFNE01.JPG,,,,,,,,,1,8,18,0,,,,,,,,,,,,,,,AFSA04.jpg,AFSA19.jpg,AFNE03.jpg,AFNE02.jpg,AFNE03.jpg,FN,3,num_2,32,num_6,0.833430196624,,,2017_Jul_13_1814,60.084408815,FEMA4ImagesEEG,001,200824,
AFNE01.JPG,AFNE01.JPG,AFNE01.JPG,AFNE01.JPG,AFNE01.JPG,AFNE01.JPG,,,,,,,,,1,9,19,7,,,,,,,,,,,,,,,AFSA19.jpg,AFNE04.jpg,AFSA16.jpg,AFNE02.jpg,AFSA19.jpg,FS,4,num_8,16,num_8,1.10011937912,,,2017_Jul_13_1814,60.084408815,FEMA4ImagesEEG,001,200824,
AFNE01.JPG,AFNE01.JPG,AFNE01.JPG,AFNE01.JPG,AFNE01.JPG,AFNE01.JPG,,,,,,,,,2,0,20,4,,,,,,,,,,,,,,,AFNE19.jpg,AFNE15.jpg,AFSA05.jpg,AFSA16.jpg,AFSA16.jpg,FS,4,num_4,16,num_4,0.883443058236,,,2017_Jul_13_1814,60.084408815,FEMA4ImagesEEG,001,200824,
AFNE01.JPG,AFNE01.JPG,AFNE01.JPG,AFNE01.JPG,AFNE01.JPG,AFNE01.JPG,,,,,,,,,2,1,21,9,,,,,,,,,,,,,,,AFNE18.jpg,AFSA20.jpg,AFSA19.jpg,AFNE06.jpg,AFNE06.jpg,FN,3,num_4,32,num_8,0.883523243014,,,2017_Jul_13_1814,60.084408815,FEMA4ImagesEEG,001,200824,
AFNE01.JPG,AFNE01.JPG,AFNE01.JPG,AFNE01.JPG,AFNE01.JPG,AFNE01.JPG,,,,,,,,,2,2,22,1,,,,,,,,,,,,,,,AFNE12.jpg,AFSA17.jpg,AFSA02.jpg,AFNE17.jpg,AFNE17.jpg,FN,3,num_4,16,num_4,1.74956940766,,,2017_Jul_13_1814,60.084408815,FEMA4ImagesEEG,001,200824,
AFNE01.JPG,AFNE01.JPG,AFNE01.JPG,AFNE01.JPG,AFNE01.JPG,AFNE01.JPG,,,,,,,,,2,3,23,0,,,,,,,,,,,,,,,AFSA20.jpg,AFNE15.jpg,AFSA09.jpg,AFNE01.jpg,AFSA09.jpg,FS,4,num_2,32,num_8,1.10010270053,,,2017_Jul_13_1814,60.084408815,FEMA4ImagesEEG,001,200824,
AFNE01.JPG,AFNE01.JPG,AFNE01.JPG,AFNE01.JPG,AFNE01.JPG,AFNE01.JPG,,,,,,,,,2,4,24,6,,,,,,,,,,,,,,,AFSA02.jpg,AFNE07.jpg,AFSA16.jpg,AFNE13.jpg,AFSA02.jpg,FS,4,num_8,32,num_4,1.13342076703,,,2017_Jul_13_1814,60.084408815,FEMA4ImagesEEG,001,200824,
AFNE01.JPG,AFNE01.JPG,AFNE01.JPG,AFNE01.JPG,AFNE01.JPG,AFNE01.JPG,,,,,,,,,2,5,25,3,,,,,,,,,,,,,,,AFNE17.jpg,AFSA12.jpg,AFNE05.jpg,AFSA15.jpg,AFNE17.jpg,FN,3,num_8,32,num_4,1.45037683635,,,2017_Jul_13_1814,60.084408815,FEMA4ImagesEEG,001,200824,
AFNE01.JPG,AFNE01.JPG,AFNE01.JPG,AFNE01.JPG,AFNE01.JPG,AFNE01.JPG,,,,,,,,,2,6,26,7,,,,,,,,,,,,,,,AFNE12.jpg,AFNE13.jpg,AFSA02.jpg,AFSA14.jpg,AFSA14.jpg,FS,4,num_4,16,num_4,2.13341916306,,,2017_Jul_13_1814,60.084408815,FEMA4ImagesEEG,001,200824,
AFNE01.JPG,AFNE01.JPG,AFNE01.JPG,AFNE01.JPG,AFNE01.JPG,AFNE01.JPG,,,,,,,,,2,7,27,8,,,,,,,,,,,,,,,AFNE02.jpg,AFNE17.jpg,AFSA19.jpg,AFSA03.jpg,AFSA19.jpg,FS,4,num_2,16,num_2,0.983398218872,,,2017_Jul_13_1814,60.084408815,FEMA4ImagesEEG,001,200824,
AFNE01.JPG,AFNE01.JPG,AFNE01.JPG,AFNE01.JPG,AFNE01.JPG,AFNE01.JPG,,,,,,,,,2,8,28,5,,,,,,,,,,,,,,,AFSA18.jpg,AFNE13.jpg,AFNE03.jpg,AFSA10.jpg,AFSA18.jpg,FS,4,num_8,32,num_6,0.833451686194,,,2017_Jul_13_1814,60.084408815,FEMA4ImagesEEG,001,200824,
AFNE01.JPG,AFNE01.JPG,AFNE01.JPG,AFNE01.JPG,AFNE01.JPG,AFNE01.JPG,,,,,,,,,2,9,29,2,,,,,,,,,,,,,,,AFNE07.jpg,AFSA11.jpg,AFNE03.jpg,AFSA15.jpg,AFSA11.jpg,FS,4,num_6,16,num_6,3.44995121565,,,2017_Jul_13_1814,60.084408815,FEMA4ImagesEEG,001,200824,
AFNE01.JPG,AFNE01.JPG,AFNE01.JPG,AFNE01.JPG,AFNE01.JPG,AFNE01.JPG,,,,,,,,,3,0,30,3,,,,,,,,,,,,,,,AFSA04.jpg,AFNE20.jpg,AFNE08.jpg,AFSA05.jpg,AFNE20.jpg,FN,3,num_6,32,num_8,0.833454572828,,,2017_Jul_13_1814,60.084408815,FEMA4ImagesEEG,001,200824,
AFNE01.JPG,AFNE01.JPG,AFNE01.JPG,AFNE01.JPG,AFNE01.JPG,AFNE01.JPG,,,,,,,,,3,1,31,5,,,,,,,,,,,,,,,AFNE14.jpg,AFSA07.jpg,AFSA09.jpg,AFNE15.jpg,AFNE15.jpg,FN,3,num_4,16,num_4,0.816781266825,,,2017_Jul_13_1814,60.084408815,FEMA4ImagesEEG,001,200824,
AFNE01.JPG,AFNE01.JPG,AFNE01.JPG,AFNE01.JPG,AFNE01.JPG,AFNE01.JPG,,,,,,,,,3,2,32,4,,,,,,,,,,,,,,,AFSA01.jpg,AFNE17.jpg,AFNE14.jpg,AFSA02.jpg,AFNE17.jpg,FN,3,num_6,32,num_4,1.0331185665,,,2017_Jul_13_1814,60.084408815,FEMA4ImagesEEG,001,200824,
AFNE01.JPG,AFNE01.JPG,AFNE01.JPG,AFNE01.JPG,AFNE01.JPG,AFNE01.JPG,,,,,,,,,3,3,33,1,,,,,,,,,,,,,,,AFNE08.jpg,AFSA05.jpg,AFSA14.jpg,AFNE01.jpg,AFNE01.jpg,FN,3,num_4,32,num_6,0.816768116551,,,2017_Jul_13_1814,60.084408815,FEMA4ImagesEEG,001,200824,
AFNE01.JPG,AFNE01.JPG,AFNE01.JPG,AFNE01.JPG,AFNE01.JPG,AFNE01.JPG,,,,,,,,,3,4,34,6,,,,,,,,,,,,,,,AFSA07.jpg,AFNE20.jpg,AFNE15.jpg,AFSA12.jpg,AFNE15.jpg,FN,3,num_2,16,num_2,1.1667686617,,,2017_Jul_13_1814,60.084408815,FEMA4ImagesEEG,001,200824,
AFNE01.JPG,AFNE01.JPG,AFNE01.JPG,AFNE01.JPG,AFNE01.JPG,AFNE01.JPG,,,,,,,,,3,5,35,7,,,,,,,,,,,,,,,AFSA01.jpg,AFNE12.jpg,AFNE01.jpg,AFSA03.jpg,AFNE01.jpg,FN,3,num_2,32,num_4,0.800123356516,,,2017_Jul_13_1814,60.084408815,FEMA4ImagesEEG,001,200824,
AFNE01.JPG,AFNE01.JPG,AFNE01.JPG,AFNE01.JPG,AFNE01.JPG,AFNE01.JPG,,,,,,,,,3,6,36,2,,,,,,,,,,,,,,,AFNE20.jpg,AFNE06.jpg,AFSA14.jpg,AFSA06.jpg,AFNE20.jpg,FN,3,num_8,16,num_8,0.800110526849,,,2017_Jul_13_1814,60.084408815,FEMA4ImagesEEG,001,200824,
AFNE01.JPG,AFNE01.JPG,AFNE01.JPG,AFNE01.JPG,AFNE01.JPG,AFNE01.JPG,,,,,,,,,3,7,37,8,,,,,,,,,,,,,,,AFSA17.jpg,AFNE04.jpg,AFSA11.jpg,AFNE07.jpg,AFSA17.jpg,FS,4,num_8,32,num_2,1.08346178941,,,2017_Jul_13_1814,60.084408815,FEMA4ImagesEEG,001,200824,
AFNE01.JPG,AFNE01.JPG,AFNE01.JPG,AFNE01.JPG,AFNE01.JPG,AFNE01.JPG,,,,,,,,,3,8,38,9,,,,,,,,,,,,,,,AFNE15.jpg,AFNE18.jpg,AFSA03.jpg,AFSA01.jpg,AFSA03.jpg,FS,4,num_2,32,num_6,0.716766127851,,,2017_Jul_13_1814,60.084408815,FEMA4ImagesEEG,001,200824,
AFNE01.JPG,AFNE01.JPG,AFNE01.JPG,AFNE01.JPG,AFNE01.JPG,AFNE01.JPG,,,,,,,,,3,9,39,0,,,,,,,,,,,,,,,AFSA05.jpg,AFNE06.jpg,AFNE17.jpg,AFSA06.jpg,AFSA05.jpg,FS,4,num_8,32,num_4,0.750095740659,,,2017_Jul_13_1814,60.084408815,FEMA4ImagesEEG,001,200824,
AFNE01.JPG,AFNE01.JPG,AFNE01.JPG,AFNE01.JPG,AFNE01.JPG,AFNE01.JPG,,,,,,,,,4,0,40,5,,,,,,,,,,,,,,,AFNE20.jpg,AFNE13.jpg,AFSA04.jpg,AFSA07.jpg,AFSA07.jpg,FS,4,num_4,32,num_6,1.00013406901,,,2017_Jul_13_1814,60.084408815,FEMA4ImagesEEG,001,200824,
AFNE01.JPG,AFNE01.JPG,AFNE01.JPG,AFNE01.JPG,AFNE01.JPG,AFNE01.JPG,,,,,,,,,4,1,41,8,,,,,,,,,,,,,,,AFNE20.jpg,AFNE12.jpg,AFSA08.jpg,AFSA15.jpg,AFSA08.jpg,FS,4,num_2,16,num_2,0.95010773628,,,2017_Jul_13_1814,60.084408815,FEMA4ImagesEEG,001,200824,
AFNE01.JPG,AFNE01.JPG,AFNE01.JPG,AFNE01.JPG,AFNE01.JPG,AFNE01.JPG,,,,,,,,,4,2,42,1,,,,,,,,,,,,,,,AFNE05.jpg,AFNE03.jpg,AFSA01.jpg,AFSA13.jpg,AFSA01.jpg,FS,4,num_2,32,num_4,0.800132336793,,,2017_Jul_13_1814,60.084408815,FEMA4ImagesEEG,001,200824,
AFNE01.JPG,AFNE01.JPG,AFNE01.JPG,AFNE01.JPG,AFNE01.JPG,AFNE01.JPG,,,,,,,,,4,3,43,2,,,,,,,,,,,,,,,AFNE16.jpg,AFSA05.jpg,AFSA04.jpg,AFNE03.jpg,AFNE03.jpg,FN,3,num_4,32,num_8,0.883434077492,,,2017_Jul_13_1814,60.084408815,FEMA4ImagesEEG,001,200824,
AFNE01.JPG,AFNE01.JPG,AFNE01.JPG,AFNE01.JPG,AFNE01.JPG,AFNE01.JPG,,,,,,,,,4,4,44,3,,,,,,,,,,,,,,,AFSA07.jpg,AFNE08.jpg,AFNE13.jpg,AFSA18.jpg,AFNE13.jpg,FN,3,num_2,32,num_6,1.78337756335,,,2017_Jul_13_1814,60.084408815,FEMA4ImagesEEG,001,200824,
AFNE01.JPG,AFNE01.JPG,AFNE01.JPG,AFNE01.JPG,AFNE01.JPG,AFNE01.JPG,,,,,,,,,4,5,45,4,,,,,,,,,,,,,,,AFNE16.jpg,AFSA10.jpg,AFNE04.jpg,AFSA07.jpg,AFNE04.jpg,FN,3,num_2,16,num_2,0.783448125701,,,2017_Jul_13_1814,60.084408815,FEMA4ImagesEEG,001,200824,
AFNE01.JPG,AFNE01.JPG,AFNE01.JPG,AFNE01.JPG,AFNE01.JPG,AFNE01.JPG,,,,,,,,,4,6,46,9,,,,,,,,,,,,,,,AFSA10.jpg,AFNE02.jpg,AFSA03.jpg,AFNE18.jpg,AFSA03.jpg,FS,4,num_2,32,num_8,1.4500702098,,,2017_Jul_13_1814,60.084408815,FEMA4ImagesEEG,001,200824,
AFNE01.JPG,AFNE01.JPG,AFNE01.JPG,AFNE01.JPG,AFNE01.JPG,AFNE01.JPG,,,,,,,,,4,7,47,7,,,,,,,,,,,,,,,AFSA09.jpg,AFNE05.jpg,AFSA12.jpg,AFNE15.jpg,AFSA12.jpg,FS,4,num_2,16,num_2,1.51670441777,,,2017_Jul_13_1814,60.084408815,FEMA4ImagesEEG,001,200824,
AFNE01.JPG,AFNE01.JPG,AFNE01.JPG,AFNE01.JPG,AFNE01.JPG,AFNE01.JPG,,,,,,,,,4,8,48,6,,,,,,,,,,,,,,,AFSA03.jpg,AFNE05.jpg,AFNE04.jpg,AFSA14.jpg,AFSA03.jpg,FS,4,num_8,16,num_8,0.833455535118,,,2017_Jul_13_1814,60.084408815,FEMA4ImagesEEG,001,200824,
AFNE01.JPG,AFNE01.JPG,AFNE01.JPG,AFNE01.JPG,AFNE01.JPG,AFNE01.JPG,,,,,,,,,4,9,49,0,,,,,,,,,,,,,,,AFNE05.jpg,AFNE20.jpg,AFSA02.jpg,AFSA15.jpg,AFNE20.jpg,FN,3,num_6,32,num_2,1.18341342174,,,2017_Jul_13_1814,60.084408815,FEMA4ImagesEEG,001,200824,
AFNE01.JPG,AFNE01.JPG,AFNE01.JPG,AFNE01.JPG,AFNE01.JPG,AFNE01.JPG,,,,,,,,,5,0,50,3,,,,,,,,,,,,,,,AFNE18.jpg,AFSA15.jpg,AFNE19.jpg,AFSA02.jpg,AFSA15.jpg,FS,4,num_6,16,num_6,0.650113317184,,,2017_Jul_13_1814,60.084408815,FEMA4ImagesEEG,001,200824,
AFNE01.JPG,AFNE01.JPG,AFNE01.JPG,AFNE01.JPG,AFNE01.JPG,AFNE01.JPG,,,,,,,,,5,1,51,0,,,,,,,,,,,,,,,AFNE10.jpg,AFSA18.jpg,AFSA13.jpg,AFNE03.jpg,AFNE10.jpg,FN,3,num_8,16,num_8,0.966758911265,,,2017_Jul_13_1814,60.084408815,FEMA4ImagesEEG,001,200824,
AFNE01.JPG,AFNE01.JPG,AFNE01.JPG,AFNE01.JPG,AFNE01.JPG,AFNE01.JPG,,,,,,,,,5,2,52,8,,,,,,,,,,,,,,,AFNE19.jpg,AFNE09.jpg,AFSA16.jpg,AFSA15.jpg,AFSA15.jpg,FS,4,num_4,16,num_4,0.716826747404,,,2017_Jul_13_1814,60.084408815,FEMA4ImagesEEG,001,200824,
AFNE01.JPG,AFNE01.JPG,AFNE01.JPG,AFNE01.JPG,AFNE01.JPG,AFNE01.JPG,,,,,,,,,5,3,53,6,,,,,,,,,,,,,,,AFNE15.jpg,AFSA20.jpg,AFSA04.jpg,AFNE02.jpg,AFNE02.jpg,FN,3,num_4,16,num_4,0.933462655405,,,2017_Jul_13_1814,60.084408815,FEMA4ImagesEEG,001,200824,
AFNE01.JPG,AFNE01.JPG,AFNE01.JPG,AFNE01.JPG,AFNE01.JPG,AFNE01.JPG,,,,,,,,,5,4,54,7,,,,,,,,,,,,,,,AFNE08.jpg,AFSA18.jpg,AFSA05.jpg,AFNE19.jpg,AFNE19.jpg,FN,3,num_4,32,num_8,1.5664167467,,,2017_Jul_13_1814,60.084408815,FEMA4ImagesEEG,001,200824,
AFNE01.JPG,AFNE01.JPG,AFNE01.JPG,AFNE01.JPG,AFNE01.JPG,AFNE01.JPG,,,,,,,,,5,5,55,2,,,,,,,,,,,,,,,AFNE19.jpg,AFSA18.jpg,AFSA09.jpg,AFNE07.jpg,AFSA09.jpg,FS,4,num_2,16,num_2,1.46670374414,,,2017_Jul_13_1814,60.084408815,FEMA4ImagesEEG,001,200824,
AFNE01.JPG,AFNE01.JPG,AFNE01.JPG,AFNE01.JPG,AFNE01.JPG,AFNE01.JPG,,,,,,,,,5,6,56,4,,,,,,,,,,,,,,,AFNE14.jpg,AFNE13.jpg,AFSA13.jpg,AFSA12.jpg,AFNE13.jpg,FN,3,num_6,32,num_8,1.13340472989,,,2017_Jul_13_1814,60.084408815,FEMA4ImagesEEG,001,200824,
AFNE01.JPG,AFNE01.JPG,AFNE01.JPG,AFNE01.JPG,AFNE01.JPG,AFNE01.JPG,,,,,,,,,5,7,57,1,,,,,,,,,,,,,,,AFSA12.jpg,AFNE11.jpg,AFNE09.jpg,AFSA08.jpg,AFNE11.jpg,FN,3,num_6,32,num_4,1.93334398186,,,2017_Jul_13_1814,60.084408815,FEMA4ImagesEEG,001,200824,
AFNE01.JPG,AFNE01.JPG,AFNE01.JPG,AFNE01.JPG,AFNE01.JPG,AFNE01.JPG,,,,,,,,,5,8,58,9,,,,,,,,,,,,,,,AFSA08.jpg,AFNE20.jpg,AFSA05.jpg,AFNE18.jpg,AFNE18.jpg,FN,3,num_4,16,num_4,0.866792524699,,,2017_Jul_13_1814,60.084408815,FEMA4ImagesEEG,001,200824,
AFNE01.JPG,AFNE01.JPG,AFNE01.JPG,AFNE01.JPG,AFNE01.JPG,AFNE01.JPG,,,,,,,,,5,9,59,5,,,,,,,,,,,,,,,AFSA03.jpg,AFNE17.jpg,AFNE01.jpg,AFSA16.jpg,AFSA16.jpg,FS,4,num_4,32,num_8,0.66661566915,,,2017_Jul_13_1814,60.084408815,FEMA4ImagesEEG,001,200824,
,,,,,,,,,,,,,,,,,,,,,,,,,,,,,,,,,,,,,,,,,,,space,2.05000484316,2017_Jul_13_1814,60.084408815,FEMA4ImagesEEG,001,200824,
AFNE01.JPG,AFNE01.JPG,AFNE01.JPG,AFNE01.JPG,AFNE01.JPG,AFNE01.JPG,,,,,,,,,,,,,0,0,0,6,,,,,,,,,,,AMNE01.jpg,AMNE10.jpg,AMSA20.jpg,AMSA01.jpg,AMNE10.jpg,MN,1,num_6,16,num_6,0.900112194475,,,2017_Jul_13_1814,60.084408815,FEMA4ImagesEEG,001,200824,
AFNE01.JPG,AFNE01.JPG,AFNE01.JPG,AFNE01.JPG,AFNE01.JPG,AFNE01.JPG,,,,,,,,,,,,,0,1,1,7,,,,,,,,,,,AMNE03.jpg,AMNE06.jpg,AMSA06.jpg,AMSA14.jpg,AMSA14.jpg,MS,2,num_4,32,num_8,0.916779406369,,,2017_Jul_13_1814,60.084408815,FEMA4ImagesEEG,001,200824,
AFNE01.JPG,AFNE01.JPG,AFNE01.JPG,AFNE01.JPG,AFNE01.JPG,AFNE01.JPG,,,,,,,,,,,,,0,2,2,9,,,,,,,,,,,AMSA19.jpg,AMSA04.jpg,AMNE01.jpg,AMNE11.jpg,AMSA19.jpg,MS,2,num_8,32,num_4,0.983454669127,,,2017_Jul_13_1814,60.084408815,FEMA4ImagesEEG,001,200824,
AFNE01.JPG,AFNE01.JPG,AFNE01.JPG,AFNE01.JPG,AFNE01.JPG,AFNE01.JPG,,,,,,,,,,,,,0,3,3,1,,,,,,,,,,,AMNE18.jpg,AMSA14.jpg,AMSA13.jpg,AMNE09.jpg,AMNE09.jpg,MN,1,num_4,32,num_8,0.91679993365,,,2017_Jul_13_1814,60.084408815,FEMA4ImagesEEG,001,200824,
AFNE01.JPG,AFNE01.JPG,AFNE01.JPG,AFNE01.JPG,AFNE01.JPG,AFNE01.JPG,,,,,,,,,,,,,0,4,4,2,,,,,,,,,,,AMNE11.jpg,AMSA12.jpg,AMSA02.jpg,AMNE02.jpg,AMSA12.jpg,MS,2,num_6,32,num_4,1.0500920841,,,2017_Jul_13_1814,60.084408815,FEMA4ImagesEEG,001,200824,
AFNE01.JPG,AFNE01.JPG,AFNE01.JPG,AFNE01.JPG,AFNE01.JPG,AFNE01.JPG,,,,,,,,,,,,,0,5,5,0,,,,,,,,,,,AMNE12.jpg,AMSA10.jpg,AMSA12.jpg,AMNE17.jpg,AMSA12.jpg,MS,2,num_2,32,num_8,0.883465189254,,,2017_Jul_13_1814,60.084408815,FEMA4ImagesEEG,001,200824,
AFNE01.JPG,AFNE01.JPG,AFNE01.JPG,AFNE01.JPG,AFNE01.JPG,AFNE01.JPG,,,,,,,,,,,,,0,6,6,3,,,,,,,,,,,AMSA18.jpg,AMNE13.jpg,AMSA08.jpg,AMNE05.jpg,AMSA08.jpg,MS,2,num_2,16,num_2,0.783430485288,,,2017_Jul_13_1814,60.084408815,FEMA4ImagesEEG,001,200824,
AFNE01.JPG,AFNE01.JPG,AFNE01.JPG,AFNE01.JPG,AFNE01.JPG,AFNE01.JPG,,,,,,,,,,,,,0,7,7,5,,,,,,,,,,,AMNE18.jpg,AMSA17.jpg,AMNE09.jpg,AMSA18.jpg,AMNE09.jpg,MN,1,num_2,32,num_8,0.78344908799,,,2017_Jul_13_1814,60.084408815,FEMA4ImagesEEG,001,200824,
AFNE01.JPG,AFNE01.JPG,AFNE01.JPG,AFNE01.JPG,AFNE01.JPG,AFNE01.JPG,,,,,,,,,,,,,0,8,8,4,,,,,,,,,,,AMNE07.jpg,AMSA05.jpg,AMNE13.jpg,AMSA19.jpg,AMNE07.jpg,MN,1,num_8,32,num_2,1.01674194424,,,2017_Jul_13_1814,60.084408815,FEMA4ImagesEEG,001,200824,
AFNE01.JPG,AFNE01.JPG,AFNE01.JPG,AFNE01.JPG,AFNE01.JPG,AFNE01.JPG,,,,,,,,,,,,,0,9,9,8,,,,,,,,,,,AMNE20.jpg,AMSA09.jpg,AMNE16.jpg,AMSA04.jpg,AMSA04.jpg,MS,2,num_4,16,num_4,0.750113702146,,,2017_Jul_13_1814,60.084408815,FEMA4ImagesEEG,001,200824,
AFNE01.JPG,AFNE01.JPG,AFNE01.JPG,AFNE01.JPG,AFNE01.JPG,AFNE01.JPG,,,,,,,,,,,,,1,0,10,3,,,,,,,,,,,AMSA01.jpg,AMNE06.jpg,AMSA06.jpg,AMNE04.jpg,AMNE06.jpg,MN,1,num_6,32,num_8,0.950101963012,,,2017_Jul_13_1814,60.084408815,FEMA4ImagesEEG,001,200824,
AFNE01.JPG,AFNE01.JPG,AFNE01.JPG,AFNE01.JPG,AFNE01.JPG,AFNE01.JPG,,,,,,,,,,,,,1,1,11,5,,,,,,,,,,,AMNE18.jpg,AMSA15.jpg,AMSA14.jpg,AMNE01.jpg,AMNE01.jpg,MN,1,num_4,32,num_2,0.916613584384,,,2017_Jul_13_1814,60.084408815,FEMA4ImagesEEG,001,200824,
AFNE01.JPG,AFNE01.JPG,AFNE01.JPG,AFNE01.JPG,AFNE01.JPG,AFNE01.JPG,,,,,,,,,,,,,1,2,12,4,,,,,,,,,,,AMSA02.jpg,AMSA08.jpg,AMNE09.jpg,AMNE07.jpg,AMSA08.jpg,MS,2,num_6,32,num_8,0.683431062615,,,2017_Jul_13_1814,60.084408815,FEMA4ImagesEEG,001,200824,
AFNE01.JPG,AFNE01.JPG,AFNE01.JPG,AFNE01.JPG,AFNE01.JPG,AFNE01.JPG,,,,,,,,,,,,,1,3,13,8,,,,,,,,,,,AMNE17.jpg,AMNE11.jpg,AMSA20.jpg,AMSA10.jpg,AMNE17.jpg,MN,1,num_8,32,num_2,1.01672494505,,,2017_Jul_13_1814,60.084408815,FEMA4ImagesEEG,001,200824,
AFNE01.JPG,AFNE01.JPG,AFNE01.JPG,AFNE01.JPG,AFNE01.JPG,AFNE01.JPG,,,,,,,,,,,,,1,4,14,6,,,,,,,,,,,AMSA08.jpg,AMNE07.jpg,AMNE08.jpg,AMSA07.jpg,AMSA08.jpg,MS,2,num_8,16,num_8,0.666759360349,,,2017_Jul_13_1814,60.084408815,FEMA4ImagesEEG,001,200824,
AFNE01.JPG,AFNE01.JPG,AFNE01.JPG,AFNE01.JPG,AFNE01.JPG,AFNE01.JPG,,,,,,,,,,,,,1,5,15,2,,,,,,,,,,,AMNE06.jpg,AMNE01.jpg,AMSA03.jpg,AMSA14.jpg,AMSA14.jpg,MS,2,num_4,32,num_6,0.750110494671,,,2017_Jul_13_1814,60.084408815,FEMA4ImagesEEG,001,200824,
AFNE01.JPG,AFNE01.JPG,AFNE01.JPG,AFNE01.JPG,AFNE01.JPG,AFNE01.JPG,,,,,,,,,,,,,1,6,16,7,,,,,,,,,,,AMSA06.jpg,AMSA02.jpg,AMNE12.jpg,AMNE20.jpg,AMSA02.jpg,MS,2,num_6,16,num_6,1.05009240494,,,2017_Jul_13_1814,60.084408815,FEMA4ImagesEEG,001,200824,
AFNE01.JPG,AFNE01.JPG,AFNE01.JPG,AFNE01.JPG,AFNE01.JPG,AFNE01.JPG,,,,,,,,,,,,,1,7,17,0,,,,,,,,,,,AMNE12.jpg,AMSA05.jpg,AMNE16.jpg,AMSA11.jpg,AMNE16.jpg,MN,1,num_2,32,num_8,0.833474779269,,,2017_Jul_13_1814,60.084408815,FEMA4ImagesEEG,001,200824,
AFNE01.JPG,AFNE01.JPG,AFNE01.JPG,AFNE01.JPG,AFNE01.JPG,AFNE01.JPG,,,,,,,,,,,,,1,8,18,1,,,,,,,,,,,AMNE05.jpg,AMSA09.jpg,AMSA19.jpg,AMNE13.jpg,AMNE13.jpg,MN,1,num_4,16,num_4,1.00006767595,,,2017_Jul_13_1814,60.084408815,FEMA4ImagesEEG,001,200824,
AFNE01.JPG,AFNE01.JPG,AFNE01.JPG,AFNE01.JPG,AFNE01.JPG,AFNE01.JPG,,,,,,,,,,,,,1,9,19,9,,,,,,,,,,,AMSA17.jpg,AMNE17.jpg,AMNE18.jpg,AMSA06.jpg,AMSA06.jpg,MS,2,num_4,32,num_8,0.766788932495,,,2017_Jul_13_1814,60.084408815,FEMA4ImagesEEG,001,200824,
AFNE01.JPG,AFNE01.JPG,AFNE01.JPG,AFNE01.JPG,AFNE01.JPG,AFNE01.JPG,,,,,,,,,,,,,2,0,20,7,,,,,,,,,,,AMSA09.jpg,AMNE01.jpg,AMSA10.jpg,AMNE06.jpg,AMNE01.jpg,MN,1,num_6,16,num_6,0.583492580336,,,2017_Jul_13_1814,60.084408815,FEMA4ImagesEEG,001,200824,
AFNE01.JPG,AFNE01.JPG,AFNE01.JPG,AFNE01.JPG,AFNE01.JPG,AFNE01.JPG,,,,,,,,,,,,,2,1,21,8,,,,,,,,,,,AMSA02.jpg,AMNE18.jpg,AMNE11.jpg,AMSA07.jpg,AMSA02.jpg,MS,2,num_8,32,num_4,1.03343160776,,,2017_Jul_13_1814,60.084408815,FEMA4ImagesEEG,001,200824,
AFNE01.JPG,AFNE01.JPG,AFNE01.JPG,AFNE01.JPG,AFNE01.JPG,AFNE01.JPG,,,,,,,,,,,,,2,2,22,1,,,,,,,,,,,AMNE08.jpg,AMSA01.jpg,AMSA09.jpg,AMNE13.jpg,AMSA01.jpg,MS,2,num_6,16,num_6,0.566796501866,,,2017_Jul_13_1814,60.084408815,FEMA4ImagesEEG,001,200824,
AFNE01.JPG,AFNE01.JPG,AFNE01.JPG,AFNE01.JPG,AFNE01.JPG,AFNE01.JPG,,,,,,,,,,,,,2,3,23,6,,,,,,,,,,,AMNE19.jpg,AMNE13.jpg,AMSA15.jpg,AMSA11.jpg,AMNE19.jpg,MN,1,num_8,16,num_8,0.583486486226,,,2017_Jul_13_1814,60.084408815,FEMA4ImagesEEG,001,200824,
AFNE01.JPG,AFNE01.JPG,AFNE01.JPG,AFNE01.JPG,AFNE01.JPG,AFNE01.JPG,,,,,,,,,,,,,2,4,24,0,,,,,,,,,,,AMSA17.jpg,AMNE04.jpg,AMSA03.jpg,AMNE13.jpg,AMNE04.jpg,MN,1,num_6,16,num_6,0.700130990008,,,2017_Jul_13_1814,60.084408815,FEMA4ImagesEEG,001,200824,
AFNE01.JPG,AFNE01.JPG,AFNE01.JPG,AFNE01.JPG,AFNE01.JPG,AFNE01.JPG,,,,,,,,,,,,,2,5,25,2,,,,,,,,,,,AMNE19.jpg,AMSA07.jpg,AMSA09.jpg,AMNE06.jpg,AMNE06.jpg,MN,1,num_4,32,num_8,0.799973571207,,,2017_Jul_13_1814,60.084408815,FEMA4ImagesEEG,001,200824,
AFNE01.JPG,AFNE01.JPG,AFNE01.JPG,AFNE01.JPG,AFNE01.JPG,AFNE01.JPG,,,,,,,,,,,,,2,6,26,5,,,,,,,,,,,AMNE10.jpg,AMSA14.jpg,AMSA02.jpg,AMNE17.jpg,AMSA02.jpg,MS,2,num_2,32,num_6,0.733452263288,,,2017_Jul_13_1814,60.084408815,FEMA4ImagesEEG,001,200824,
AFNE01.JPG,AFNE01.JPG,AFNE01.JPG,AFNE01.JPG,AFNE01.JPG,AFNE01.JPG,,,,,,,,,,,,,2,7,27,4,,,,,,,,,,,AMNE02.jpg,AMSA09.jpg,AMSA02.jpg,AMNE08.jpg,AMNE02.jpg,MN,1,num_8,32,num_2,1.06690138346,,,2017_Jul_13_1814,60.084408815,FEMA4ImagesEEG,001,200824,
AFNE01.JPG,AFNE01.JPG,AFNE01.JPG,AFNE01.JPG,AFNE01.JPG,AFNE01.JPG,,,,,,,,,,,,,2,8,28,9,,,,,,,,,,,AMNE18.jpg,AMSA19.jpg,AMNE04.jpg,AMSA09.jpg,AMSA09.jpg,MS,2,num_4,32,num_8,0.900108987233,,,2017_Jul_13_1814,60.084408815,FEMA4ImagesEEG,001,200824,
AFNE01.JPG,AFNE01.JPG,AFNE01.JPG,AFNE01.JPG,AFNE01.JPG,AFNE01.JPG,,,,,,,,,,,,,2,9,29,3,,,,,,,,,,,AMSA09.jpg,AMNE14.jpg,AMSA14.jpg,AMNE10.jpg,AMNE14.jpg,MN,1,num_6,32,num_2,0.96676211874,,,2017_Jul_13_1814,60.084408815,FEMA4ImagesEEG,001,200824,
AFNE01.JPG,AFNE01.JPG,AFNE01.JPG,AFNE01.JPG,AFNE01.JPG,AFNE01.JPG,,,,,,,,,,,,,3,0,30,6,,,,,,,,,,,AMNE04.jpg,AMSA02.jpg,AMNE15.jpg,AMSA16.jpg,AMNE15.jpg,MN,1,num_2,32,num_4,1.06679169089,,,2017_Jul_13_1814,60.084408815,FEMA4ImagesEEG,001,200824,
AFNE01.JPG,AFNE01.JPG,AFNE01.JPG,AFNE01.JPG,AFNE01.JPG,AFNE01.JPG,,,,,,,,,,,,,3,1,31,8,,,,,,,,,,,AMSA15.jpg,AMSA12.jpg,AMNE11.jpg,AMNE16.jpg,AMSA12.jpg,MS,2,num_6,32,num_8,0.900099365041,,,2017_Jul_13_1814,60.084408815,FEMA4ImagesEEG,001,200824,
AFNE01.JPG,AFNE01.JPG,AFNE01.JPG,AFNE01.JPG,AFNE01.JPG,AFNE01.JPG,,,,,,,,,,,,,3,2,32,1,,,,,,,,,,,AMNE05.jpg,AMSA17.jpg,AMNE08.jpg,AMSA11.jpg,AMSA17.jpg,MS,2,num_6,32,num_2,1.15019125678,,,2017_Jul_13_1814,60.084408815,FEMA4ImagesEEG,001,200824,
AFNE01.JPG,AFNE01.JPG,AFNE01.JPG,AFNE01.JPG,AFNE01.JPG,AFNE01.JPG,,,,,,,,,,,,,3,3,33,4,,,,,,,,,,,AMSA06.jpg,AMNE11.jpg,AMNE08.jpg,AMSA15.jpg,AMSA06.jpg,MS,2,num_8,16,num_8,0.950126980664,,,2017_Jul_13_1814,60.084408815,FEMA4ImagesEEG,001,200824,
AFNE01.JPG,AFNE01.JPG,AFNE01.JPG,AFNE01.JPG,AFNE01.JPG,AFNE01.JPG,,,,,,,,,,,,,3,4,34,0,,,,,,,,,,,AMNE19.jpg,AMSA06.jpg,AMSA12.jpg,AMNE20.jpg,AMNE19.jpg,MN,1,num_8,32,num_4,0.950118320761,,,2017_Jul_13_1814,60.084408815,FEMA4ImagesEEG,001,200824,
AFNE01.JPG,AFNE01.JPG,AFNE01.JPG,AFNE01.JPG,AFNE01.JPG,AFNE01.JPG,,,,,,,,,,,,,3,5,35,2,,,,,,,,,,,AMNE17.jpg,AMSA12.jpg,AMNE16.jpg,AMSA20.jpg,AMSA20.jpg,MS,2,num_4,32,num_2,0.583435168024,,,2017_Jul_13_1814,60.084408815,FEMA4ImagesEEG,001,200824,
AFNE01.JPG,AFNE01.JPG,AFNE01.JPG,AFNE01.JPG,AFNE01.JPG,AFNE01.JPG,,,,,,,,,,,,,3,6,36,5,,,,,,,,,,,AMSA02.jpg,AMSA20.jpg,AMNE13.jpg,AMNE04.jpg,AMNE13.jpg,MN,1,num_2,32,num_8,1.11677119555,,,2017_Jul_13_1814,60.084408815,FEMA4ImagesEEG,001,200824,
AFNE01.JPG,AFNE01.JPG,AFNE01.JPG,AFNE01.JPG,AFNE01.JPG,AFNE01.JPG,,,,,,,,,,,,,3,7,37,3,,,,,,,,,,,AMNE04.jpg,AMSA20.jpg,AMNE02.jpg,AMSA02.jpg,AMNE02.jpg,MN,1,num_2,16,num_2,1.33342570625,,,2017_Jul_13_1814,60.084408815,FEMA4ImagesEEG,001,200824,
AFNE01.JPG,AFNE01.JPG,AFNE01.JPG,AFNE01.JPG,AFNE01.JPG,AFNE01.JPG,,,,,,,,,,,,,3,8,38,7,,,,,,,,,,,AMNE12.jpg,AMSA11.jpg,AMNE09.jpg,AMSA14.jpg,AMNE12.jpg,MN,1,num_8,16,num_8,0.900145551423,,,2017_Jul_13_1814,60.084408815,FEMA4ImagesEEG,001,200824,
AFNE01.JPG,AFNE01.JPG,AFNE01.JPG,AFNE01.JPG,AFNE01.JPG,AFNE01.JPG,,,,,,,,,,,,,3,9,39,9,,,,,,,,,,,AMSA08.jpg,AMNE09.jpg,AMSA15.jpg,AMNE11.jpg,AMSA15.jpg,MS,2,num_2,32,num_6,1.1336231532,,,2017_Jul_13_1814,60.084408815,FEMA4ImagesEEG,001,200824,
AFNE01.JPG,AFNE01.JPG,AFNE01.JPG,AFNE01.JPG,AFNE01.JPG,AFNE01.JPG,,,,,,,,,,,,,4,0,40,5,,,,,,,,,,,AMNE19.jpg,AMNE04.jpg,AMSA10.jpg,AMSA07.jpg,AMSA07.jpg,MS,2,num_4,32,num_2,0.800166976871,,,2017_Jul_13_1814,60.084408815,FEMA4ImagesEEG,001,200824,
AFNE01.JPG,AFNE01.JPG,AFNE01.JPG,AFNE01.JPG,AFNE01.JPG,AFNE01.JPG,,,,,,,,,,,,,4,1,41,9,,,,,,,,,,,AMSA08.jpg,AMSA11.jpg,AMNE04.jpg,AMNE03.jpg,AMSA08.jpg,MS,2,num_8,16,num_8,0.950113509549,,,2017_Jul_13_1814,60.084408815,FEMA4ImagesEEG,001,200824,
AFNE01.JPG,AFNE01.JPG,AFNE01.JPG,AFNE01.JPG,AFNE01.JPG,AFNE01.JPG,,,,,,,,,,,,,4,2,42,7,,,,,,,,,,,AMSA09.jpg,AMSA12.jpg,AMNE06.jpg,AMNE17.jpg,AMSA09.jpg,MS,2,num_8,16,num_8,0.966756345239,,,2017_Jul_13_1814,60.084408815,FEMA4ImagesEEG,001,200824,
AFNE01.JPG,AFNE01.JPG,AFNE01.JPG,AFNE01.JPG,AFNE01.JPG,AFNE01.JPG,,,,,,,,,,,,,4,3,43,0,,,,,,,,,,,AMNE05.jpg,AMSA07.jpg,AMSA17.jpg,AMNE06.jpg,AMSA07.jpg,MS,2,num_6,32,num_4,1.16673819139,,,2017_Jul_13_1814,60.084408815,FEMA4ImagesEEG,001,200824,
AFNE01.JPG,AFNE01.JPG,AFNE01.JPG,AFNE01.JPG,AFNE01.JPG,AFNE01.JPG,,,,,,,,,,,,,4,4,44,2,,,,,,,,,,,AMSA16.jpg,AMNE01.jpg,AMNE11.jpg,AMSA10.jpg,AMNE11.jpg,MN,1,num_2,16,num_2,1.43340267707,,,2017_Jul_13_1814,60.084408815,FEMA4ImagesEEG,001,200824,
AFNE01.JPG,AFNE01.JPG,AFNE01.JPG,AFNE01.JPG,AFNE01.JPG,AFNE01.JPG,,,,,,,,,,,,,4,5,45,3,,,,,,,,,,,AMNE08.jpg,AMSA09.jpg,AMSA12.jpg,AMNE19.jpg,AMNE19.jpg,MN,1,num_4,16,num_4,1.01676471671,,,2017_Jul_13_1814,60.084408815,FEMA4ImagesEEG,001,200824,
AFNE01.JPG,AFNE01.JPG,AFNE01.JPG,AFNE01.JPG,AFNE01.JPG,AFNE01.JPG,,,,,,,,,,,,,4,6,46,1,,,,,,,,,,,AMNE09.jpg,AMSA04.jpg,AMNE01.jpg,AMSA01.jpg,AMSA01.jpg,MS,2,num_4,16,num_4,0.800183655228,,,2017_Jul_13_1814,60.084408815,FEMA4ImagesEEG,001,200824,
AFNE01.JPG,AFNE01.JPG,AFNE01.JPG,AFNE01.JPG,AFNE01.JPG,AFNE01.JPG,,,,,,,,,,,,,4,7,47,6,,,,,,,,,,,AMSA06.jpg,AMSA15.jpg,AMNE07.jpg,AMNE19.jpg,AMSA06.jpg,MS,2,num_8,16,num_8,0.316846697591,,,2017_Jul_13_1814,60.084408815,FEMA4ImagesEEG,001,200824,
AFNE01.JPG,AFNE01.JPG,AFNE01.JPG,AFNE01.JPG,AFNE01.JPG,AFNE01.JPG,,,,,,,,,,,,,4,8,48,8,,,,,,,,,,,AMNE16.jpg,AMNE09.jpg,AMSA01.jpg,AMSA05.jpg,AMSA01.jpg,MS,2,num_2,16,num_2,1.55003980384,,,2017_Jul_13_1814,60.084408815,FEMA4ImagesEEG,001,200824,
AFNE01.JPG,AFNE01.JPG,AFNE01.JPG,AFNE01.JPG,AFNE01.JPG,AFNE01.JPG,,,,,,,,,,,,,4,9,49,4,,,,,,,,,,,AMSA13.jpg,AMSA12.jpg,AMNE05.jpg,AMNE13.jpg,AMNE05.jpg,MN,1,num_2,32,num_8,1.25009670272,,,2017_Jul_13_1814,60.084408815,FEMA4ImagesEEG,001,200824,
AFNE01.JPG,AFNE01.JPG,AFNE01.JPG,AFNE01.JPG,AFNE01.JPG,AFNE01.JPG,,,,,,,,,,,,,5,0,50,9,,,,,,,,,,,AMNE17.jpg,AMNE05.jpg,AMSA02.jpg,AMSA14.jpg,AMNE17.jpg,MN,1,num_8,32,num_6,0.73347343225,,,2017_Jul_13_1814,60.084408815,FEMA4ImagesEEG,001,200824,
AFNE01.JPG,AFNE01.JPG,AFNE01.JPG,AFNE01.JPG,AFNE01.JPG,AFNE01.JPG,,,,,,,,,,,,,5,1,51,3,,,,,,,,,,,AMSA15.jpg,AMNE06.jpg,AMSA11.jpg,AMNE04.jpg,AMNE06.jpg,MN,1,num_6,16,num_6,1.46667295322,,,2017_Jul_13_1814,60.084408815,FEMA4ImagesEEG,001,200824,
AFNE01.JPG,AFNE01.JPG,AFNE01.JPG,AFNE01.JPG,AFNE01.JPG,AFNE01.JPG,,,,,,,,,,,,,5,2,52,4,,,,,,,,,,,AMSA16.jpg,AMSA13.jpg,AMNE18.jpg,AMNE07.jpg,AMNE07.jpg,MN,1,num_4,16,num_4,0.633519875351,,,2017_Jul_13_1814,60.084408815,FEMA4ImagesEEG,001,200824,
AFNE01.JPG,AFNE01.JPG,AFNE01.JPG,AFNE01.JPG,AFNE01.JPG,AFNE01.JPG,,,,,,,,,,,,,5,3,53,0,,,,,,,,,,,AMSA17.jpg,AMSA09.jpg,AMNE17.jpg,AMNE07.jpg,AMNE07.jpg,MN,1,num_4,32,num_8,0.650125184562,,,2017_Jul_13_1814,60.084408815,FEMA4ImagesEEG,001,200824,
AFNE01.JPG,AFNE01.JPG,AFNE01.JPG,AFNE01.JPG,AFNE01.JPG,AFNE01.JPG,,,,,,,,,,,,,5,4,54,7,,,,,,,,,,,AMSA04.jpg,AMNE12.jpg,AMNE14.jpg,AMSA18.jpg,AMNE12.jpg,MN,1,num_6,32,num_4,0.816760739544,,,2017_Jul_13_1814,60.084408815,FEMA4ImagesEEG,001,200824,
AFNE01.JPG,AFNE01.JPG,AFNE01.JPG,AFNE01.JPG,AFNE01.JPG,AFNE01.JPG,,,,,,,,,,,,,5,5,55,6,,,,,,,,,,,AMNE17.jpg,AMSA20.jpg,AMNE13.jpg,AMSA18.jpg,AMNE17.jpg,MN,1,num_8,16,num_8,0.766638184898,,,2017_Jul_13_1814,60.084408815,FEMA4ImagesEEG,001,200824,
AFNE01.JPG,AFNE01.JPG,AFNE01.JPG,AFNE01.JPG,AFNE01.JPG,AFNE01.JPG,,,,,,,,,,,,,5,6,56,1,,,,,,,,,,,AMNE08.jpg,AMSA15.jpg,AMNE02.jpg,AMSA17.jpg,AMSA17.jpg,MS,2,num_4,32,num_6,0.600200525951,,,2017_Jul_13_1814,60.084408815,FEMA4ImagesEEG,001,200824,
AFNE01.JPG,AFNE01.JPG,AFNE01.JPG,AFNE01.JPG,AFNE01.JPG,AFNE01.JPG,,,,,,,,,,,,,5,7,57,8,,,,,,,,,,,AMSA20.jpg,AMNE11.jpg,AMSA06.jpg,AMNE05.jpg,AMNE11.jpg,MN,1,num_6,32,num_2,0.91719861282,,,2017_Jul_13_1814,60.084408815,FEMA4ImagesEEG,001,200824,
AFNE01.JPG,AFNE01.JPG,AFNE01.JPG,AFNE01.JPG,AFNE01.JPG,AFNE01.JPG,,,,,,,,,,,,,5,8,58,5,,,,,,,,,,,AMSA04.jpg,AMSA03.jpg,AMNE16.jpg,AMNE10.jpg,AMNE10.jpg,MN,1,num_4,32,num_8,0.900078516919,,,2017_Jul_13_1814,60.084408815,FEMA4ImagesEEG,001,200824,
AFNE01.JPG,AFNE01.JPG,AFNE01.JPG,AFNE01.JPG,AFNE01.JPG,AFNE01.JPG,,,,,,,,,,,,,5,9,59,2,,,,,,,,,,,AMNE18.jpg,AMNE01.jpg,AMSA20.jpg,AMSA01.jpg,AMSA01.jpg,MS,2,num_4,16,num_4,0.916781330947,,,2017_Jul_13_1814,60.084408815,FEMA4ImagesEEG,001,200824,
,,,,,,,,,,,,,,,,,,,,,,,,,,,,,,,,,,,,,,,,,,,space,6.04967287811,2017_Jul_13_1814,60.084408815,FEMA4ImagesEEG,001,200824,
AFNE01.JPG,AFNE01.JPG,AFNE01.JPG,AFNE01.JPG,AFNE01.JPG,AFNE01.JPG,,,,,,,,,,,,,,,,,0,0,0,4,,,,,,,AFNE01.jpg,AFSA17.jpg,AFNE07.jpg,AFSA01.jpg,AFSA17.jpg,FS,4,num_6,32,num_8,0.800169222057,,,2017_Jul_13_1814,60.084408815,FEMA4ImagesEEG,001,200824,
AFNE01.JPG,AFNE01.JPG,AFNE01.JPG,AFNE01.JPG,AFNE01.JPG,AFNE01.JPG,,,,,,,,,,,,,,,,,0,1,1,0,,,,,,,AFNE07.jpg,AFNE14.jpg,AFSA18.jpg,AFSA20.jpg,AFSA20.jpg,FS,4,num_4,16,num_4,0.616772478446,,,2017_Jul_13_1814,60.084408815,FEMA4ImagesEEG,001,200824,
AFNE01.JPG,AFNE01.JPG,AFNE01.JPG,AFNE01.JPG,AFNE01.JPG,AFNE01.JPG,,,,,,,,,,,,,,,,,0,2,2,8,,,,,,,AFNE17.jpg,AFSA06.jpg,AFSA09.jpg,AFNE19.jpg,AFNE17.jpg,FN,3,num_8,16,num_8,0.783458068734,,,2017_Jul_13_1814,60.084408815,FEMA4ImagesEEG,001,200824,
AFNE01.JPG,AFNE01.JPG,AFNE01.JPG,AFNE01.JPG,AFNE01.JPG,AFNE01.JPG,,,,,,,,,,,,,,,,,0,3,3,2,,,,,,,AFNE09.jpg,AFSA08.jpg,AFSA17.jpg,AFNE12.jpg,AFSA17.jpg,FS,4,num_2,32,num_6,0.96676083561,,,2017_Jul_13_1814,60.084408815,FEMA4ImagesEEG,001,200824,
AFNE01.JPG,AFNE01.JPG,AFNE01.JPG,AFNE01.JPG,AFNE01.JPG,AFNE01.JPG,,,,,,,,,,,,,,,,,0,4,4,3,,,,,,,AFNE17.jpg,AFSA19.jpg,AFNE04.jpg,AFSA02.jpg,AFNE17.jpg,FN,3,num_8,16,num_8,1.51672173757,,,2017_Jul_13_1814,60.084408815,FEMA4ImagesEEG,001,200824,
AFNE01.JPG,AFNE01.JPG,AFNE01.JPG,AFNE01.JPG,AFNE01.JPG,AFNE01.JPG,,,,,,,,,,,,,,,,,0,5,5,9,,,,,,,AFNE08.jpg,AFSA17.jpg,AFSA11.jpg,AFNE13.jpg,AFNE13.jpg,FN,3,num_4,16,num_4,0.850087144645,,,2017_Jul_13_1814,60.084408815,FEMA4ImagesEEG,001,200824,
AFNE01.JPG,AFNE01.JPG,AFNE01.JPG,AFNE01.JPG,AFNE01.JPG,AFNE01.JPG,,,,,,,,,,,,,,,,,0,6,6,1,,,,,,,AFNE04.jpg,AFSA16.jpg,AFNE05.jpg,AFSA05.jpg,AFSA16.jpg,FS,4,num_6,32,num_8,1.33342121588,,,2017_Jul_13_1814,60.084408815,FEMA4ImagesEEG,001,200824,
AFNE01.JPG,AFNE01.JPG,AFNE01.JPG,AFNE01.JPG,AFNE01.JPG,AFNE01.JPG,,,,,,,,,,,,,,,,,0,7,7,7,,,,,,,AFNE06.jpg,AFSA09.jpg,AFNE07.jpg,AFSA12.jpg,AFNE06.jpg,FN,3,num_8,32,num_2,1.94999964722,,,2017_Jul_13_1814,60.084408815,FEMA4ImagesEEG,001,200824,
AFNE01.JPG,AFNE01.JPG,AFNE01.JPG,AFNE01.JPG,AFNE01.JPG,AFNE01.JPG,,,,,,,,,,,,,,,,,0,8,8,6,,,,,,,AFSA09.jpg,AFNE17.jpg,AFNE15.jpg,AFSA01.jpg,AFSA09.jpg,FS,4,num_8,32,num_2,0.883447869215,,,2017_Jul_13_1814,60.084408815,FEMA4ImagesEEG,001,200824,
AFNE01.JPG,AFNE01.JPG,AFNE01.JPG,AFNE01.JPG,AFNE01.JPG,AFNE01.JPG,,,,,,,,,,,,,,,,,0,9,9,5,,,,,,,AFSA06.jpg,AFNE18.jpg,AFNE14.jpg,AFSA16.jpg,AFNE18.jpg,FN,3,num_6,32,num_2,1.51669575763,,,2017_Jul_13_1814,60.084408815,FEMA4ImagesEEG,001,200824,
AFNE01.JPG,AFNE01.JPG,AFNE01.JPG,AFNE01.JPG,AFNE01.JPG,AFNE01.JPG,,,,,,,,,,,,,,,,,1,0,10,9,,,,,,,AFNE20.jpg,AFSA11.jpg,AFSA20.jpg,AFNE18.jpg,AFNE20.jpg,FN,3,num_8,16,num_8,0.966765967663,,,2017_Jul_13_1814,60.084408815,FEMA4ImagesEEG,001,200824,
AFNE01.JPG,AFNE01.JPG,AFNE01.JPG,AFNE01.JPG,AFNE01.JPG,AFNE01.JPG,,,,,,,,,,,,,,,,,1,1,11,1,,,,,,,AFNE10.jpg,AFNE11.jpg,AFSA11.jpg,AFSA20.jpg,AFSA20.jpg,FS,4,num_4,16,num_4,1.00004939386,,,2017_Jul_13_1814,60.084408815,FEMA4ImagesEEG,001,200824,
AFNE01.JPG,AFNE01.JPG,AFNE01.JPG,AFNE01.JPG,AFNE01.JPG,AFNE01.JPG,,,,,,,,,,,,,,,,,1,2,12,2,,,,,,,AFSA01.jpg,AFSA20.jpg,AFNE15.jpg,AFNE18.jpg,AFNE18.jpg,FN,3,num_4,32,num_8,0.716767410981,,,2017_Jul_13_1814,60.084408815,FEMA4ImagesEEG,001,200824,
AFNE01.JPG,AFNE01.JPG,AFNE01.JPG,AFNE01.JPG,AFNE01.JPG,AFNE01.JPG,,,,,,,,,,,,,,,,,1,3,13,0,,,,,,,AFNE11.jpg,AFNE17.jpg,AFSA10.jpg,AFSA15.jpg,AFNE11.jpg,FN,3,num_8,32,num_6,1.1335048005,,,2017_Jul_13_1814,60.084408815,FEMA4ImagesEEG,001,200824,
AFNE01.JPG,AFNE01.JPG,AFNE01.JPG,AFNE01.JPG,AFNE01.JPG,AFNE01.JPG,,,,,,,,,,,,,,,,,1,4,14,4,,,,,,,AFNE11.jpg,AFSA04.jpg,AFNE09.jpg,AFSA11.jpg,AFNE09.jpg,FN,3,num_2,32,num_6,1.9334142236,,,2017_Jul_13_1814,60.084408815,FEMA4ImagesEEG,001,200824,
AFNE01.JPG,AFNE01.JPG,AFNE01.JPG,AFNE01.JPG,AFNE01.JPG,AFNE01.JPG,,,,,,,,,,,,,,,,,1,5,15,6,,,,,,,AFNE10.jpg,AFSA19.jpg,AFSA15.jpg,AFNE20.jpg,AFSA19.jpg,FS,4,num_6,32,num_8,1.26671901136,,,2017_Jul_13_1814,60.084408815,FEMA4ImagesEEG,001,200824,
AFNE01.JPG,AFNE01.JPG,AFNE01.JPG,AFNE01.JPG,AFNE01.JPG,AFNE01.JPG,,,,,,,,,,,,,,,,,1,6,16,3,,,,,,,AFSA16.jpg,AFNE19.jpg,AFNE14.jpg,AFSA09.jpg,AFNE19.jpg,FN,3,num_6,32,num_2,0.916774595389,,,2017_Jul_13_1814,60.084408815,FEMA4ImagesEEG,001,200824,
AFNE01.JPG,AFNE01.JPG,AFNE01.JPG,AFNE01.JPG,AFNE01.JPG,AFNE01.JPG,,,,,,,,,,,,,,,,,1,7,17,7,,,,,,,AFNE18.jpg,AFSA16.jpg,AFSA14.jpg,AFNE20.jpg,AFSA16.jpg,FS,4,num_6,16,num_6,0.750182660995,,,2017_Jul_13_1814,60.084408815,FEMA4ImagesEEG,001,200824,
AFNE01.JPG,AFNE01.JPG,AFNE01.JPG,AFNE01.JPG,AFNE01.JPG,AFNE01.JPG,,,,,,,,,,,,,,,,,1,8,18,5,,,,,,,AFSA02.jpg,AFNE19.jpg,AFSA01.jpg,AFNE08.jpg,AFSA01.jpg,FS,4,num_2,32,num_8,0.900293732993,,,2017_Jul_13_1814,60.084408815,FEMA4ImagesEEG,001,200824,
AFNE01.JPG,AFNE01.JPG,AFNE01.JPG,AFNE01.JPG,AFNE01.JPG,AFNE01.JPG,,,,,,,,,,,,,,,,,1,9,19,8,,,,,,,AFSA19.jpg,AFSA09.jpg,AFNE15.jpg,AFNE16.jpg,AFSA19.jpg,FS,4,num_8,32,num_4,0.800125922309,,,2017_Jul_13_1814,60.084408815,FEMA4ImagesEEG,001,200824,
AFNE01.JPG,AFNE01.JPG,AFNE01.JPG,AFNE01.JPG,AFNE01.JPG,AFNE01.JPG,,,,,,,,,,,,,,,,,2,0,20,7,,,,,,,AFSA17.jpg,AFSA01.jpg,AFNE12.jpg,AFNE14.jpg,AFSA17.jpg,FS,4,num_8,32,num_6,0.700160176959,,,2017_Jul_13_1814,60.084408815,FEMA4ImagesEEG,001,200824,
AFNE01.JPG,AFNE01.JPG,AFNE01.JPG,AFNE01.JPG,AFNE01.JPG,AFNE01.JPG,,,,,,,,,,,,,,,,,2,1,21,5,,,,,,,AFSA02.jpg,AFNE12.jpg,AFSA03.jpg,AFNE20.jpg,AFSA03.jpg,FS,4,num_2,32,num_8,0.75011626794,,,2017_Jul_13_1814,60.084408815,FEMA4ImagesEEG,001,200824,
AFNE01.JPG,AFNE01.JPG,AFNE01.JPG,AFNE01.JPG,AFNE01.JPG,AFNE01.JPG,,,,,,,,,,,,,,,,,2,2,22,8,,,,,,,AFNE10.jpg,AFSA02.jpg,AFNE12.jpg,AFSA08.jpg,AFNE10.jpg,FN,3,num_8,32,num_2,2.94993357477,,,2017_Jul_13_1814,60.084408815,FEMA4ImagesEEG,001,200824,
AFNE01.JPG,AFNE01.JPG,AFNE01.JPG,AFNE01.JPG,AFNE01.JPG,AFNE01.JPG,,,,,,,,,,,,,,,,,2,3,23,0,,,,,,,AFNE18.jpg,AFSA15.jpg,AFNE14.jpg,AFSA08.jpg,AFNE18.jpg,FN,3,num_8,16,num_8,1.08343356452,,,2017_Jul_13_1814,60.084408815,FEMA4ImagesEEG,001,200824,
AFNE01.JPG,AFNE01.JPG,AFNE01.JPG,AFNE01.JPG,AFNE01.JPG,AFNE01.JPG,,,,,,,,,,,,,,,,,2,4,24,1,,,,,,,AFNE04.jpg,AFNE01.jpg,AFSA04.jpg,AFSA19.jpg,AFNE01.jpg,FN,3,num_6,32,num_4,0.967036671238,,,2017_Jul_13_1814,60.084408815,FEMA4ImagesEEG,001,200824,
AFNE01.JPG,AFNE01.JPG,AFNE01.JPG,AFNE01.JPG,AFNE01.JPG,AFNE01.JPG,,,,,,,,,,,,,,,,,2,5,25,2,,,,,,,AFNE03.jpg,AFSA19.jpg,AFSA16.jpg,AFNE01.jpg,AFNE01.jpg,FN,3,num_4,16,num_4,1.15008188458,,,2017_Jul_13_1814,60.084408815,FEMA4ImagesEEG,001,200824,
AFNE01.JPG,AFNE01.JPG,AFNE01.JPG,AFNE01.JPG,AFNE01.JPG,AFNE01.JPG,,,,,,,,,,,,,,,,,2,6,26,3,,,,,,,AFSA09.jpg,AFSA08.jpg,AFNE20.jpg,AFNE05.jpg,AFSA09.jpg,FS,4,num_8,16,num_8,1.25008964678,,,2017_Jul_13_1814,60.084408815,FEMA4ImagesEEG,001,200824,
AFNE01.JPG,AFNE01.JPG,AFNE01.JPG,AFNE01.JPG,AFNE01.JPG,AFNE01.JPG,,,,,,,,,,,,,,,,,2,7,27,6,,,,,,,AFNE16.jpg,AFNE07.jpg,AFSA11.jpg,AFSA04.jpg,AFSA04.jpg,FS,4,num_4,32,num_8,2.13333224296,,,2017_Jul_13_1814,60.084408815,FEMA4ImagesEEG,001,200824,
AFNE01.JPG,AFNE01.JPG,AFNE01.JPG,AFNE01.JPG,AFNE01.JPG,AFNE01.JPG,,,,,,,,,,,,,,,,,2,8,28,9,,,,,,,AFSA15.jpg,AFNE05.jpg,AFSA17.jpg,AFNE16.jpg,AFNE16.jpg,FN,3,num_4,16,num_4,0.950136282016,,,2017_Jul_13_1814,60.084408815,FEMA4ImagesEEG,001,200824,
AFNE01.JPG,AFNE01.JPG,AFNE01.JPG,AFNE01.JPG,AFNE01.JPG,AFNE01.JPG,,,,,,,,,,,,,,,,,2,9,29,4,,,,,,,AFNE10.jpg,AFSA11.jpg,AFNE15.jpg,AFSA06.jpg,AFSA11.jpg,FS,4,num_6,32,num_8,0.933434109669,,,2017_Jul_13_1814,60.084408815,FEMA4ImagesEEG,001,200824,
AFNE01.JPG,AFNE01.JPG,AFNE01.JPG,AFNE01.JPG,AFNE01.JPG,AFNE01.JPG,,,,,,,,,,,,,,,,,3,0,30,2,,,,,,,AFSA14.jpg,AFNE07.jpg,AFNE19.jpg,AFSA06.jpg,AFSA06.jpg,FS,4,num_4,32,num_8,0.800130733289,,,2017_Jul_13_1814,60.084408815,FEMA4ImagesEEG,001,200824,
AFNE01.JPG,AFNE01.JPG,AFNE01.JPG,AFNE01.JPG,AFNE01.JPG,AFNE01.JPG,,,,,,,,,,,,,,,,,3,1,31,3,,,,,,,AFSA19.jpg,AFNE20.jpg,AFNE14.jpg,AFSA08.jpg,AFNE14.jpg,FN,3,num_2,16,num_2,0.833499476314,,,2017_Jul_13_1814,60.084408815,FEMA4ImagesEEG,001,200824,
AFNE01.JPG,AFNE01.JPG,AFNE01.JPG,AFNE01.JPG,AFNE01.JPG,AFNE01.JPG,,,,,,,,,,,,,,,,,3,2,32,5,,,,,,,AFNE18.jpg,AFSA09.jpg,AFNE06.jpg,AFSA11.jpg,AFSA09.jpg,FS,4,num_6,32,num_8,0.73345835763,,,2017_Jul_13_1814,60.084408815,FEMA4ImagesEEG,001,200824,
AFNE01.JPG,AFNE01.JPG,AFNE01.JPG,AFNE01.JPG,AFNE01.JPG,AFNE01.JPG,,,,,,,,,,,,,,,,,3,3,33,0,,,,,,,AFSA15.jpg,AFNE13.jpg,AFSA17.jpg,AFNE09.jpg,AFSA15.jpg,FS,4,num_8,32,num_2,0.900105779758,,,2017_Jul_13_1814,60.084408815,FEMA4ImagesEEG,001,200824,
AFNE01.JPG,AFNE01.JPG,AFNE01.JPG,AFNE01.JPG,AFNE01.JPG,AFNE01.JPG,,,,,,,,,,,,,,,,,3,4,34,1,,,,,,,AFSA16.jpg,AFSA10.jpg,AFNE20.jpg,AFNE17.jpg,AFNE17.jpg,FN,3,num_4,32,num_8,0.800118866144,,,2017_Jul_13_1814,60.084408815,FEMA4ImagesEEG,001,200824,
AFNE01.JPG,AFNE01.JPG,AFNE01.JPG,AFNE01.JPG,AFNE01.JPG,AFNE01.JPG,,,,,,,,,,,,,,,,,3,5,35,6,,,,,,,AFNE03.jpg,AFNE07.jpg,AFSA15.jpg,AFSA02.jpg,AFSA02.jpg,FS,4,num_4,16,num_4,1.03346496471,,,2017_Jul_13_1814,60.084408815,FEMA4ImagesEEG,001,200824,
AFNE01.JPG,AFNE01.JPG,AFNE01.JPG,AFNE01.JPG,AFNE01.JPG,AFNE01.JPG,,,,,,,,,,,,,,,,,3,6,36,9,,,,,,,AFSA12.jpg,AFNE02.jpg,AFSA16.jpg,AFNE03.jpg,AFSA16.jpg,FS,4,num_2,32,num_8,0.966739025433,,,2017_Jul_13_1814,60.084408815,FEMA4ImagesEEG,001,200824,
AFNE01.JPG,AFNE01.JPG,AFNE01.JPG,AFNE01.JPG,AFNE01.JPG,AFNE01.JPG,,,,,,,,,,,,,,,,,3,7,37,7,,,,,,,AFNE14.jpg,AFNE01.jpg,AFSA14.jpg,AFSA08.jpg,AFSA14.jpg,FS,4,num_2,32,num_8,0.849998941645,,,2017_Jul_13_1814,60.084408815,FEMA4ImagesEEG,001,200824,
AFNE01.JPG,AFNE01.JPG,AFNE01.JPG,AFNE01.JPG,AFNE01.JPG,AFNE01.JPG,,,,,,,,,,,,,,,,,3,8,38,4,,,,,,,AFNE01.jpg,AFSA02.jpg,AFNE15.jpg,AFSA12.jpg,AFNE01.jpg,FN,3,num_8,32,num_4,1.30010924372,,,2017_Jul_13_1814,60.084408815,FEMA4ImagesEEG,001,200824,
AFNE01.JPG,AFNE01.JPG,AFNE01.JPG,AFNE01.JPG,AFNE01.JPG,AFNE01.JPG,,,,,,,,,,,,,,,,,3,9,39,8,,,,,,,AFSA06.jpg,AFNE12.jpg,AFNE10.jpg,AFSA15.jpg,AFNE12.jpg,FN,3,num_6,32,num_8,0.86677648779,,,2017_Jul_13_1814,60.084408815,FEMA4ImagesEEG,001,200824,
AFNE01.JPG,AFNE01.JPG,AFNE01.JPG,AFNE01.JPG,AFNE01.JPG,AFNE01.JPG,,,,,,,,,,,,,,,,,4,0,40,0,,,,,,,AFNE05.jpg,AFNE15.jpg,AFSA15.jpg,AFSA04.jpg,AFNE05.jpg,FN,3,num_8,32,num_4,1.40010930784,,,2017_Jul_13_1814,60.084408815,FEMA4ImagesEEG,001,200824,
AFNE01.JPG,AFNE01.JPG,AFNE01.JPG,AFNE01.JPG,AFNE01.JPG,AFNE01.JPG,,,,,,,,,,,,,,,,,4,1,41,6,,,,,,,AFSA15.jpg,AFNE07.jpg,AFNE08.jpg,AFSA09.jpg,AFSA15.jpg,FS,4,num_8,16,num_8,2.4666934805,,,2017_Jul_13_1814,60.084408815,FEMA4ImagesEEG,001,200824,
AFNE01.JPG,AFNE01.JPG,AFNE01.JPG,AFNE01.JPG,AFNE01.JPG,AFNE01.JPG,,,,,,,,,,,,,,,,,4,2,42,9,,,,,,,AFNE08.jpg,AFSA15.jpg,AFNE16.jpg,AFSA12.jpg,AFSA12.jpg,FS,4,num_4,16,num_4,0.800121752545,,,2017_Jul_13_1814,60.084408815,FEMA4ImagesEEG,001,200824,
AFNE01.JPG,AFNE01.JPG,AFNE01.JPG,AFNE01.JPG,AFNE01.JPG,AFNE01.JPG,,,,,,,,,,,,,,,,,4,3,43,3,,,,,,,AFNE16.jpg,AFSA15.jpg,AFNE14.jpg,AFSA06.jpg,AFSA06.jpg,FS,4,num_4,32,num_8,0.750128456159,,,2017_Jul_13_1814,60.084408815,FEMA4ImagesEEG,001,200824,
AFNE01.JPG,AFNE01.JPG,AFNE01.JPG,AFNE01.JPG,AFNE01.JPG,AFNE01.JPG,,,,,,,,,,,,,,,,,4,4,44,1,,,,,,,AFNE06.jpg,AFSA07.jpg,AFSA20.jpg,AFNE08.jpg,AFNE08.jpg,FN,3,num_4,32,num_2,0.833454572828,,,2017_Jul_13_1814,60.084408815,FEMA4ImagesEEG,001,200824,
AFNE01.JPG,AFNE01.JPG,AFNE01.JPG,AFNE01.JPG,AFNE01.JPG,AFNE01.JPG,,,,,,,,,,,,,,,,,4,5,45,7,,,,,,,AFSA07.jpg,AFNE04.jpg,AFNE09.jpg,AFSA02.jpg,AFNE09.jpg,FN,3,num_2,32,num_8,0.916806990048,,,2017_Jul_13_1814,60.084408815,FEMA4ImagesEEG,001,200824,
AFNE01.JPG,AFNE01.JPG,AFNE01.JPG,AFNE01.JPG,AFNE01.JPG,AFNE01.JPG,,,,,,,,,,,,,,,,,4,6,46,4,,,,,,,AFSA10.jpg,AFNE06.jpg,AFNE01.jpg,AFSA09.jpg,AFSA10.jpg,FS,4,num_8,32,num_6,1.03339760937,,,2017_Jul_13_1814,60.084408815,FEMA4ImagesEEG,001,200824,
AFNE01.JPG,AFNE01.JPG,AFNE01.JPG,AFNE01.JPG,AFNE01.JPG,AFNE01.JPG,,,,,,,,,,,,,,,,,4,7,47,2,,,,,,,AFNE19.jpg,AFNE18.jpg,AFSA03.jpg,AFSA08.jpg,AFNE19.jpg,FN,3,num_8,16,num_8,0.700073577464,,,2017_Jul_13_1814,60.084408815,FEMA4ImagesEEG,001,200824,
AFNE01.JPG,AFNE01.JPG,AFNE01.JPG,AFNE01.JPG,AFNE01.JPG,AFNE01.JPG,,,,,,,,,,,,,,,,,4,8,48,5,,,,,,,AFSA11.jpg,AFNE02.jpg,AFSA14.jpg,AFNE06.jpg,AFNE06.jpg,FN,3,num_4,16,num_4,0.933455599239,,,2017_Jul_13_1814,60.084408815,FEMA4ImagesEEG,001,200824,
AFNE01.JPG,AFNE01.JPG,AFNE01.JPG,AFNE01.JPG,AFNE01.JPG,AFNE01.JPG,,,,,,,,,,,,,,,,,4,9,49,8,,,,,,,AFSA08.jpg,AFSA18.jpg,AFNE12.jpg,AFNE08.jpg,AFNE12.jpg,FN,3,num_2,16,num_2,0.600118737668,,,2017_Jul_13_1814,60.084408815,FEMA4ImagesEEG,001,200824,
AFNE01.JPG,AFNE01.JPG,AFNE01.JPG,AFNE01.JPG,AFNE01.JPG,AFNE01.JPG,,,,,,,,,,,,,,,,,5,0,50,3,,,,,,,AFNE11.jpg,AFNE17.jpg,AFSA12.jpg,AFSA14.jpg,AFNE17.jpg,FN,3,num_6,32,num_8,1.20018519484,,,2017_Jul_13_1814,60.084408815,FEMA4ImagesEEG,001,200824,
AFNE01.JPG,AFNE01.JPG,AFNE01.JPG,AFNE01.JPG,AFNE01.JPG,AFNE01.JPG,,,,,,,,,,,,,,,,,5,1,51,7,,,,,,,AFSA06.jpg,AFSA09.jpg,AFNE02.jpg,AFNE13.jpg,AFSA09.jpg,FS,4,num_6,32,num_2,3.2832701155,,,2017_Jul_13_1814,60.084408815,FEMA4ImagesEEG,001,200824,
AFNE01.JPG,AFNE01.JPG,AFNE01.JPG,AFNE01.JPG,AFNE01.JPG,AFNE01.JPG,,,,,,,,,,,,,,,,,5,2,52,0,,,,,,,AFNE14.jpg,AFSA07.jpg,AFSA20.jpg,AFNE03.jpg,AFNE14.jpg,FN,3,num_8,16,num_8,0.833454893436,,,2017_Jul_13_1814,60.084408815,FEMA4ImagesEEG,001,200824,
AFNE01.JPG,AFNE01.JPG,AFNE01.JPG,AFNE01.JPG,AFNE01.JPG,AFNE01.JPG,,,,,,,,,,,,,,,,,5,3,53,9,,,,,,,AFSA08.jpg,AFNE16.jpg,AFSA02.jpg,AFNE15.jpg,AFSA08.jpg,FS,4,num_8,32,num_6,0.900102893123,,,2017_Jul_13_1814,60.084408815,FEMA4ImagesEEG,001,200824,
AFNE01.JPG,AFNE01.JPG,AFNE01.JPG,AFNE01.JPG,AFNE01.JPG,AFNE01.JPG,,,,,,,,,,,,,,,,,5,4,54,6,,,,,,,AFNE06.jpg,AFSA11.jpg,AFNE20.jpg,AFSA06.jpg,AFNE20.jpg,FN,3,num_2,32,num_4,2.01662262902,,,2017_Jul_13_1814,60.084408815,FEMA4ImagesEEG,001,200824,
AFNE01.JPG,AFNE01.JPG,AFNE01.JPG,AFNE01.JPG,AFNE01.JPG,AFNE01.JPG,,,,,,,,,,,,,,,,,5,5,55,1,,,,,,,AFSA02.jpg,AFNE16.jpg,AFSA12.jpg,AFNE05.jpg,AFSA12.jpg,FS,4,num_2,16,num_2,1.08342875307,,,2017_Jul_13_1814,60.084408815,FEMA4ImagesEEG,001,200824,
AFNE01.JPG,AFNE01.JPG,AFNE01.JPG,AFNE01.JPG,AFNE01.JPG,AFNE01.JPG,,,,,,,,,,,,,,,,,5,6,56,2,,,,,,,AFSA08.jpg,AFSA10.jpg,AFNE07.jpg,AFNE08.jpg,AFNE08.jpg,FN,3,num_4,32,num_8,1.00013984228,,,2017_Jul_13_1814,60.084408815,FEMA4ImagesEEG,001,200824,
AFNE01.JPG,AFNE01.JPG,AFNE01.JPG,AFNE01.JPG,AFNE01.JPG,AFNE01.JPG,,,,,,,,,,,,,,,,,5,7,57,4,,,,,,,AFNE17.jpg,AFSA07.jpg,AFNE12.jpg,AFSA05.jpg,AFNE12.jpg,FN,3,num_2,16,num_2,1.01673745364,,,2017_Jul_13_1814,60.084408815,FEMA4ImagesEEG,001,200824,
AFNE01.JPG,AFNE01.JPG,AFNE01.JPG,AFNE01.JPG,AFNE01.JPG,AFNE01.JPG,,,,,,,,,,,,,,,,,5,8,58,8,,,,,,,AFSA18.jpg,AFSA09.jpg,AFNE11.jpg,AFNE16.jpg,AFSA09.jpg,FS,4,num_6,32,num_4,1.05011100788,,,2017_Jul_13_1814,60.084408815,FEMA4ImagesEEG,001,200824,
AFNE01.JPG,AFNE01.JPG,AFNE01.JPG,AFNE01.JPG,AFNE01.JPG,AFNE01.JPG,,,,,,,,,,,,,,,,,5,9,59,5,,,,,,,AFSA17.jpg,AFNE14.jpg,AFSA05.jpg,AFNE08.jpg,AFSA17.jpg,FS,4,num_8,32,num_6,1.43343282677,,,2017_Jul_13_1814,60.084408815,FEMA4ImagesEEG,001,200824,
,,,,,,,,,,,,,,,,,,,,,,,,,,,,,,,,,,,,,,,,,,,space,3.26656120759,2017_Jul_13_1814,60.084408815,FEMA4ImagesEEG,001,200824,
AFNE01.JPG,AFNE01.JPG,AFNE01.JPG,AFNE01.JPG,AFNE01.JPG,AFNE01.JPG,,,,,,,,,,,,,,,,,,,,,0,0,0,9,,,AMSA10.jpg,AMNE20.jpg,AMNE17.jpg,AMSA05.jpg,AMNE17.jpg,MN,1,num_2,32,num_4,0.900107704103,,,2017_Jul_13_1814,60.084408815,FEMA4ImagesEEG,001,200824,
AFNE01.JPG,AFNE01.JPG,AFNE01.JPG,AFNE01.JPG,AFNE01.JPG,AFNE01.JPG,,,,,,,,,,,,,,,,,,,,,0,1,1,7,,,AMSA12.jpg,AMNE10.jpg,AMSA19.jpg,AMNE16.jpg,AMSA12.jpg,MS,2,num_8,32,num_6,0.750120437704,,,2017_Jul_13_1814,60.084408815,FEMA4ImagesEEG,001,200824,
AFNE01.JPG,AFNE01.JPG,AFNE01.JPG,AFNE01.JPG,AFNE01.JPG,AFNE01.JPG,,,,,,,,,,,,,,,,,,,,,0,2,2,4,,,AMSA07.jpg,AMSA08.jpg,AMNE03.jpg,AMNE01.jpg,AMNE03.jpg,MN,1,num_2,32,num_8,1.73329702578,,,2017_Jul_13_1814,60.084408815,FEMA4ImagesEEG,001,200824,
AFNE01.JPG,AFNE01.JPG,AFNE01.JPG,AFNE01.JPG,AFNE01.JPG,AFNE01.JPG,,,,,,,,,,,,,,,,,,,,,0,3,3,1,,,AMNE02.jpg,AMSA19.jpg,AMSA06.jpg,AMNE08.jpg,AMSA06.jpg,MS,2,num_2,32,num_4,1.21673180861,,,2017_Jul_13_1814,60.084408815,FEMA4ImagesEEG,001,200824,
AFNE01.JPG,AFNE01.JPG,AFNE01.JPG,AFNE01.JPG,AFNE01.JPG,AFNE01.JPG,,,,,,,,,,,,,,,,,,,,,0,4,4,0,,,AMSA09.jpg,AMNE04.jpg,AMNE20.jpg,AMSA11.jpg,AMSA09.jpg,MS,2,num_8,16,num_8,1.10010141763,,,2017_Jul_13_1814,60.084408815,FEMA4ImagesEEG,001,200824,
AFNE01.JPG,AFNE01.JPG,AFNE01.JPG,AFNE01.JPG,AFNE01.JPG,AFNE01.JPG,,,,,,,,,,,,,,,,,,,,,0,5,5,8,,,AMNE03.jpg,AMNE16.jpg,AMSA05.jpg,AMSA19.jpg,AMSA05.jpg,MS,2,num_2,32,num_8,1.31661287858,,,2017_Jul_13_1814,60.084408815,FEMA4ImagesEEG,001,200824,
AFNE01.JPG,AFNE01.JPG,AFNE01.JPG,AFNE01.JPG,AFNE01.JPG,AFNE01.JPG,,,,,,,,,,,,,,,,,,,,,0,6,6,6,,,AMNE13.jpg,AMSA09.jpg,AMNE08.jpg,AMSA02.jpg,AMSA02.jpg,MS,2,num_4,32,num_2,1.26686109882,,,2017_Jul_13_1814,60.084408815,FEMA4ImagesEEG,001,200824,
AFNE01.JPG,AFNE01.JPG,AFNE01.JPG,AFNE01.JPG,AFNE01.JPG,AFNE01.JPG,,,,,,,,,,,,,,,,,,,,,0,7,7,3,,,AMNE10.jpg,AMNE09.jpg,AMSA14.jpg,AMSA15.jpg,AMSA14.jpg,MS,2,num_2,16,num_2,1.08343645115,,,2017_Jul_13_1814,60.084408815,FEMA4ImagesEEG,001,200824,
AFNE01.JPG,AFNE01.JPG,AFNE01.JPG,AFNE01.JPG,AFNE01.JPG,AFNE01.JPG,,,,,,,,,,,,,,,,,,,,,0,8,8,2,,,AMSA18.jpg,AMNE19.jpg,AMNE14.jpg,AMSA09.jpg,AMSA09.jpg,MS,2,num_4,16,num_4,0.933075523237,,,2017_Jul_13_1814,60.084408815,FEMA4ImagesEEG,001,200824,
AFNE01.JPG,AFNE01.JPG,AFNE01.JPG,AFNE01.JPG,AFNE01.JPG,AFNE01.JPG,,,,,,,,,,,,,,,,,,,,,0,9,9,5,,,AMNE01.jpg,AMSA10.jpg,AMSA20.jpg,AMNE09.jpg,AMSA10.jpg,MS,2,num_6,32,num_8,3.16656755842,,,2017_Jul_13_1814,60.084408815,FEMA4ImagesEEG,001,200824,
AFNE01.JPG,AFNE01.JPG,AFNE01.JPG,AFNE01.JPG,AFNE01.JPG,AFNE01.JPG,,,,,,,,,,,,,,,,,,,,,1,0,10,4,,,AMNE08.jpg,AMSA08.jpg,AMSA20.jpg,AMNE14.jpg,AMNE14.jpg,MN,1,num_4,16,num_4,0.700124575058,,,2017_Jul_13_1814,60.084408815,FEMA4ImagesEEG,001,200824,
AFNE01.JPG,AFNE01.JPG,AFNE01.JPG,AFNE01.JPG,AFNE01.JPG,AFNE01.JPG,,,,,,,,,,,,,,,,,,,,,1,1,11,6,,,AMSA08.jpg,AMNE15.jpg,AMSA15.jpg,AMNE13.jpg,AMNE13.jpg,MN,1,num_4,32,num_6,0.600131567102,,,2017_Jul_13_1814,60.084408815,FEMA4ImagesEEG,001,200824,
AFNE01.JPG,AFNE01.JPG,AFNE01.JPG,AFNE01.JPG,AFNE01.JPG,AFNE01.JPG,,,,,,,,,,,,,,,,,,,,,1,2,12,7,,,AMSA13.jpg,AMSA15.jpg,AMNE20.jpg,AMNE10.jpg,AMNE10.jpg,MN,1,num_4,32,num_6,0.600244146539,,,2017_Jul_13_1814,60.084408815,FEMA4ImagesEEG,001,200824,
AFNE01.JPG,AFNE01.JPG,AFNE01.JPG,AFNE01.JPG,AFNE01.JPG,AFNE01.JPG,,,,,,,,,,,,,,,,,,,,,1,3,13,8,,,AMNE02.jpg,AMSA04.jpg,AMSA02.jpg,AMNE08.jpg,AMSA02.jpg,MS,2,num_2,32,num_6,0.750104400562,,,2017_Jul_13_1814,60.084408815,FEMA4ImagesEEG,001,200824,
AFNE01.JPG,AFNE01.JPG,AFNE01.JPG,AFNE01.JPG,AFNE01.JPG,AFNE01.JPG,,,,,,,,,,,,,,,,,,,,,1,4,14,5,,,AMSA01.jpg,AMNE05.jpg,AMSA18.jpg,AMNE06.jpg,AMNE05.jpg,MN,1,num_6,32,num_4,1.3834145125,,,2017_Jul_13_1814,60.084408815,FEMA4ImagesEEG,001,200824,
AFNE01.JPG,AFNE01.JPG,AFNE01.JPG,AFNE01.JPG,AFNE01.JPG,AFNE01.JPG,,,,,,,,,,,,,,,,,,,,,1,5,15,3,,,AMSA13.jpg,AMNE02.jpg,AMSA19.jpg,AMNE04.jpg,AMSA13.jpg,MS,2,num_8,16,num_8,1.28327428526,,,2017_Jul_13_1814,60.084408815,FEMA4ImagesEEG,001,200824,
AFNE01.JPG,AFNE01.JPG,AFNE01.JPG,AFNE01.JPG,AFNE01.JPG,AFNE01.JPG,,,,,,,,,,,,,,,,,,,,,1,6,16,1,,,AMSA02.jpg,AMSA10.jpg,AMNE07.jpg,AMNE01.jpg,AMNE01.jpg,MN,1,num_4,16,num_4,0.533540338511,,,2017_Jul_13_1814,60.084408815,FEMA4ImagesEEG,001,200824,
AFNE01.JPG,AFNE01.JPG,AFNE01.JPG,AFNE01.JPG,AFNE01.JPG,AFNE01.JPG,,,,,,,,,,,,,,,,,,,,,1,7,17,9,,,AMNE08.jpg,AMSA16.jpg,AMSA19.jpg,AMNE11.jpg,AMNE11.jpg,MN,1,num_4,32,num_8,0.833441422321,,,2017_Jul_13_1814,60.084408815,FEMA4ImagesEEG,001,200824,
AFNE01.JPG,AFNE01.JPG,AFNE01.JPG,AFNE01.JPG,AFNE01.JPG,AFNE01.JPG,,,,,,,,,,,,,,,,,,,,,1,8,18,2,,,AMNE03.jpg,AMNE05.jpg,AMSA14.jpg,AMSA09.jpg,AMNE03.jpg,MN,1,num_8,32,num_4,1.66673209751,,,2017_Jul_13_1814,60.084408815,FEMA4ImagesEEG,001,200824,
AFNE01.JPG,AFNE01.JPG,AFNE01.JPG,AFNE01.JPG,AFNE01.JPG,AFNE01.JPG,,,,,,,,,,,,,,,,,,,,,1,9,19,0,,,AMSA08.jpg,AMNE12.jpg,AMNE18.jpg,AMSA02.jpg,AMSA02.jpg,MS,2,num_4,16,num_4,0.700132272905,,,2017_Jul_13_1814,60.084408815,FEMA4ImagesEEG,001,200824,
AFNE01.JPG,AFNE01.JPG,AFNE01.JPG,AFNE01.JPG,AFNE01.JPG,AFNE01.JPG,,,,,,,,,,,,,,,,,,,,,2,0,20,7,,,AMNE03.jpg,AMSA07.jpg,AMNE11.jpg,AMSA02.jpg,AMNE03.jpg,MN,1,num_8,16,num_8,1.06674646656,,,2017_Jul_13_1814,60.084408815,FEMA4ImagesEEG,001,200824,
AFNE01.JPG,AFNE01.JPG,AFNE01.JPG,AFNE01.JPG,AFNE01.JPG,AFNE01.JPG,,,,,,,,,,,,,,,,,,,,,2,1,21,9,,,AMNE08.jpg,AMSA14.jpg,AMNE13.jpg,AMSA08.jpg,AMNE08.jpg,MN,1,num_8,16,num_8,0.950158733642,,,2017_Jul_13_1814,60.084408815,FEMA4ImagesEEG,001,200824,
AFNE01.JPG,AFNE01.JPG,AFNE01.JPG,AFNE01.JPG,AFNE01.JPG,AFNE01.JPG,,,,,,,,,,,,,,,,,,,,,2,2,22,2,,,AMSA17.jpg,AMNE12.jpg,AMSA10.jpg,AMNE14.jpg,AMSA17.jpg,MS,2,num_8,32,num_2,0.766744349618,,,2017_Jul_13_1814,60.084408815,FEMA4ImagesEEG,001,200824,
AFNE01.JPG,AFNE01.JPG,AFNE01.JPG,AFNE01.JPG,AFNE01.JPG,AFNE01.JPG,,,,,,,,,,,,,,,,,,,,,2,3,23,0,,,AMSA11.jpg,AMNE10.jpg,AMNE20.jpg,AMSA15.jpg,AMSA15.jpg,MS,2,num_4,16,num_4,1.13342108764,,,2017_Jul_13_1814,60.084408815,FEMA4ImagesEEG,001,200824,
AFNE01.JPG,AFNE01.JPG,AFNE01.JPG,AFNE01.JPG,AFNE01.JPG,AFNE01.JPG,,,,,,,,,,,,,,,,,,,,,2,4,24,5,,,AMSA18.jpg,AMNE04.jpg,AMSA15.jpg,AMNE09.jpg,AMSA15.jpg,MS,2,num_2,32,num_4,3.71655187407,,,2017_Jul_13_1814,60.084408815,FEMA4ImagesEEG,001,200824,
AFNE01.JPG,AFNE01.JPG,AFNE01.JPG,AFNE01.JPG,AFNE01.JPG,AFNE01.JPG,,,,,,,,,,,,,,,,,,,,,2,5,25,3,,,AMSA01.jpg,AMNE09.jpg,AMNE12.jpg,AMSA11.jpg,AMNE12.jpg,MN,1,num_2,32,num_6,1.06686032913,,,2017_Jul_13_1814,60.084408815,FEMA4ImagesEEG,001,200824,
AFNE01.JPG,AFNE01.JPG,AFNE01.JPG,AFNE01.JPG,AFNE01.JPG,AFNE01.JPG,,,,,,,,,,,,,,,,,,,,,2,6,26,1,,,AMSA15.jpg,AMSA14.jpg,AMNE20.jpg,AMNE09.jpg,AMSA14.jpg,MS,2,num_6,16,num_6,1.73339966219,,,2017_Jul_13_1814,60.084408815,FEMA4ImagesEEG,001,200824,
AFNE01.JPG,AFNE01.JPG,AFNE01.JPG,AFNE01.JPG,AFNE01.JPG,AFNE01.JPG,,,,,,,,,,,,,,,,,,,,,2,7,27,8,,,AMSA07.jpg,AMSA20.jpg,AMNE15.jpg,AMNE04.jpg,AMNE04.jpg,MN,1,num_4,16,num_4,0.7834452393,,,2017_Jul_13_1814,60.084408815,FEMA4ImagesEEG,001,200824,
AFNE01.JPG,AFNE01.JPG,AFNE01.JPG,AFNE01.JPG,AFNE01.JPG,AFNE01.JPG,,,,,,,,,,,,,,,,,,,,,2,8,28,6,,,AMSA15.jpg,AMNE13.jpg,AMSA16.jpg,AMNE05.jpg,AMSA16.jpg,MS,2,num_2,32,num_8,0.716754260473,,,2017_Jul_13_1814,60.084408815,FEMA4ImagesEEG,001,200824,
AFNE01.JPG,AFNE01.JPG,AFNE01.JPG,AFNE01.JPG,AFNE01.JPG,AFNE01.JPG,,,,,,,,,,,,,,,,,,,,,2,9,29,4,,,AMNE07.jpg,AMSA08.jpg,AMSA07.jpg,AMNE02.jpg,AMSA08.jpg,MS,2,num_6,16,num_6,0.58333638031,,,2017_Jul_13_1814,60.084408815,FEMA4ImagesEEG,001,200824,
AFNE01.JPG,AFNE01.JPG,AFNE01.JPG,AFNE01.JPG,AFNE01.JPG,AFNE01.JPG,,,,,,,,,,,,,,,,,,,,,3,0,30,2,,,AMNE19.jpg,AMNE03.jpg,AMSA18.jpg,AMSA14.jpg,AMNE03.jpg,MN,1,num_6,32,num_4,1.21670775348,,,2017_Jul_13_1814,60.084408815,FEMA4ImagesEEG,001,200824,
AFNE01.JPG,AFNE01.JPG,AFNE01.JPG,AFNE01.JPG,AFNE01.JPG,AFNE01.JPG,,,,,,,,,,,,,,,,,,,,,3,1,31,1,,,AMSA10.jpg,AMNE15.jpg,AMSA19.jpg,AMNE14.jpg,AMSA19.jpg,MS,2,num_2,32,num_6,1.01677626325,,,2017_Jul_13_1814,60.084408815,FEMA4ImagesEEG,001,200824,
AFNE01.JPG,AFNE01.JPG,AFNE01.JPG,AFNE01.JPG,AFNE01.JPG,AFNE01.JPG,,,,,,,,,,,,,,,,,,,,,3,2,32,6,,,AMSA17.jpg,AMNE06.jpg,AMSA02.jpg,AMNE18.jpg,AMSA02.jpg,MS,2,num_2,16,num_2,1.13344738819,,,2017_Jul_13_1814,60.084408815,FEMA4ImagesEEG,001,200824,
AFNE01.JPG,AFNE01.JPG,AFNE01.JPG,AFNE01.JPG,AFNE01.JPG,AFNE01.JPG,,,,,,,,,,,,,,,,,,,,,3,3,33,8,,,AMNE14.jpg,AMSA08.jpg,AMNE05.jpg,AMSA04.jpg,AMSA04.jpg,MS,2,num_4,16,num_4,0.633453803137,,,2017_Jul_13_1814,60.084408815,FEMA4ImagesEEG,001,200824,
AFNE01.JPG,AFNE01.JPG,AFNE01.JPG,AFNE01.JPG,AFNE01.JPG,AFNE01.JPG,,,,,,,,,,,,,,,,,,,,,3,4,34,0,,,AMSA05.jpg,AMNE10.jpg,AMNE13.jpg,AMSA08.jpg,AMSA05.jpg,MS,2,num_8,16,num_8,1.05010555545,,,2017_Jul_13_1814,60.084408815,FEMA4ImagesEEG,001,200824,
AFNE01.JPG,AFNE01.JPG,AFNE01.JPG,AFNE01.JPG,AFNE01.JPG,AFNE01.JPG,,,,,,,,,,,,,,,,,,,,,3,5,35,7,,,AMSA12.jpg,AMNE07.jpg,AMNE11.jpg,AMSA18.jpg,AMSA18.jpg,MS,2,num_4,16,num_4,1.61652198131,,,2017_Jul_13_1814,60.084408815,FEMA4ImagesEEG,001,200824,
AFNE01.JPG,AFNE01.JPG,AFNE01.JPG,AFNE01.JPG,AFNE01.JPG,AFNE01.JPG,,,,,,,,,,,,,,,,,,,,,3,6,36,4,,,AMSA13.jpg,AMSA05.jpg,AMNE05.jpg,AMNE11.jpg,AMNE11.jpg,MN,1,num_4,32,num_8,3.13327066088,,,2017_Jul_13_1814,60.084408815,FEMA4ImagesEEG,001,200824,
AFNE01.JPG,AFNE01.JPG,AFNE01.JPG,AFNE01.JPG,AFNE01.JPG,AFNE01.JPG,,,,,,,,,,,,,,,,,,,,,3,7,37,5,,,AMSA16.jpg,AMNE15.jpg,AMSA08.jpg,AMNE19.jpg,AMSA08.jpg,MS,2,num_2,16,num_2,0.599990442162,,,2017_Jul_13_1814,60.084408815,FEMA4ImagesEEG,001,200824,
AFNE01.JPG,AFNE01.JPG,AFNE01.JPG,AFNE01.JPG,AFNE01.JPG,AFNE01.JPG,,,,,,,,,,,,,,,,,,,,,3,8,38,9,,,AMNE03.jpg,AMNE14.jpg,AMSA11.jpg,AMSA10.jpg,AMNE14.jpg,MN,1,num_6,16,num_6,0.900165116414,,,2017_Jul_13_1814,60.084408815,FEMA4ImagesEEG,001,200824,
AFNE01.JPG,AFNE01.JPG,AFNE01.JPG,AFNE01.JPG,AFNE01.JPG,AFNE01.JPG,,,,,,,,,,,,,,,,,,,,,3,9,39,3,,,AMNE18.jpg,AMSA04.jpg,AMNE13.jpg,AMSA02.jpg,AMSA02.jpg,MS,2,num_4,16,num_4,0.816812378354,,,2017_Jul_13_1814,60.084408815,FEMA4ImagesEEG,001,200824,
AFNE01.JPG,AFNE01.JPG,AFNE01.JPG,AFNE01.JPG,AFNE01.JPG,AFNE01.JPG,,,,,,,,,,,,,,,,,,,,,4,0,40,1,,,AMNE06.jpg,AMNE13.jpg,AMSA02.jpg,AMSA09.jpg,AMNE06.jpg,MN,1,num_8,16,num_8,0.716771580512,,,2017_Jul_13_1814,60.084408815,FEMA4ImagesEEG,001,200824,
