IPosition2,IPosition3,IPosition1,IPosition6,IPosition4,IPosition5,TrialsF1.thisRepN,TrialsF1.thisTrialN,TrialsF1.thisN,TrialsF1.thisIndex,TrialsM1.thisRepN,TrialsM1.thisTrialN,TrialsM1.thisN,TrialsM1.thisIndex,TrialsF2.thisRepN,TrialsF2.thisTrialN,TrialsF2.thisN,TrialsF2.thisIndex,TrialsM2.thisRepN,TrialsM2.thisTrialN,TrialsM2.thisN,TrialsM2.thisIndex,TrialsF3.thisRepN,TrialsF3.thisTrialN,TrialsF3.thisN,TrialsF3.thisIndex,TrialsM3.thisRepN,TrialsM3.thisTrialN,TrialsM3.thisN,TrialsM3.thisIndex,InstrKey_resp.keys,InstrKey_resp.rt,Image0 _Position,Image1 _Position,Image2 _Position,Image3 _Position,Center_image,condition,code,correct_answer,accuracy,Key_Resp.keys,Key_Resp.rt,BreakKey_resp.keys,BreakKey_resp.rt,date,frameRate,expName,session,participant,
,,,,,,,,,,,,,,,,,,,,,,,,,,,,,,space,11.0994881644,,,,,,,,,,,,,,2017_Jul_06_1045,60.0028867546,FEMA4ImagesEEG,001,200853,
AMSA25.JPG,AMNE24.JPG,AMSA24.JPG,AMNE26.JPG,AMSA21.JPG,AMNE25.JPG,0,0,0,3,,,,,,,,,,,,,,,,,,,,,,,AFNE07.jpg,AFSA04.jpg,AFSA13.jpg,AFNE10.jpg,AFNE10.jpg,FN,3,num_4,32,num_8,0.600143434596,,,2017_Jul_06_1045,60.0028867546,FEMA4ImagesEEG,001,200853,
AFNE22.JPG,AFSA24.JPG,AFSA22.JPG,AFNE25.JPG,AFNE24.JPG,AFSA25.JPG,0,1,1,6,,,,,,,,,,,,,,,,,,,,,,,AFSA07.jpg,AFSA04.jpg,AFNE05.jpg,AFNE13.jpg,AFNE13.jpg,FN,3,num_4,16,num_4,0.666754228412,,,2017_Jul_06_1045,60.0028867546,FEMA4ImagesEEG,001,200853,
AFSA21.JPG,AFNE22.JPG,AFNE21.JPG,AFSA23.JPG,AFSA22.JPG,AFNE23.JPG,0,2,2,0,,,,,,,,,,,,,,,,,,,,,,,AFNE03.jpg,AFSA06.jpg,AFNE14.jpg,AFSA16.jpg,AFSA06.jpg,FS,4,num_6,32,num_8,0.350195233943,,,2017_Jul_06_1045,60.0028867546,FEMA4ImagesEEG,001,200853,
AFSA25.JPG,AFNE24.JPG,AFSA24.JPG,AFNE21.JPG,AFSA21.JPG,AFNE25.JPG,0,3,3,2,,,,,,,,,,,,,,,,,,,,,,,AFSA04.jpg,AFSA02.jpg,AFNE03.jpg,AFNE05.jpg,AFSA04.jpg,FS,4,num_8,32,num_4,0.733434943599,,,2017_Jul_06_1045,60.0028867546,FEMA4ImagesEEG,001,200853,
AMSA21.JPG,AMNE23.JPG,AMNE21.JPG,AMSA25.JPG,AMNE25.JPG,AMSA23.JPG,0,4,4,5,,,,,,,,,,,,,,,,,,,,,,,AFSA12.jpg,AFNE04.jpg,AFNE03.jpg,AFSA06.jpg,AFSA06.jpg,FS,4,num_4,32,num_8,0.266806252417,,,2017_Jul_06_1045,60.0028867546,FEMA4ImagesEEG,001,200853,
AFSA21.JPG,AFNE23.JPG,AFNE21.JPG,AFSA25.JPG,AFNE25.JPG,AFSA23.JPG,0,5,5,4,,,,,,,,,,,,,,,,,,,,,,,AFNE17.jpg,AFSA04.jpg,AFSA03.jpg,AFNE20.jpg,AFSA03.jpg,FS,4,num_2,16,num_2,0.283490784233,,,2017_Jul_06_1045,60.0028867546,FEMA4ImagesEEG,001,200853,
AFNE23.JPG,AFNE24.JPG,AFNE22.JPG,AFSA24.JPG,AFSA22.JPG,AFSA23.JPG,0,6,6,8,,,,,,,,,,,,,,,,,,,,,,,AFNE16.jpg,AFNE07.jpg,AFSA07.jpg,AFSA20.jpg,AFNE07.jpg,FN,3,num_6,32,num_4,0.883446907043,,,2017_Jul_06_1045,60.0028867546,FEMA4ImagesEEG,001,200853,
AMSA21.JPG,AMNE22.JPG,AMNE21.JPG,AMSA23.JPG,AMSA22.JPG,AMNE23.JPG,0,7,7,1,,,,,,,,,,,,,,,,,,,,,,,AFNE08.jpg,AFSA10.jpg,AFNE16.jpg,AFSA14.jpg,AFNE16.jpg,FN,3,num_2,32,num_4,0.383549222839,,,2017_Jul_06_1045,60.0028867546,FEMA4ImagesEEG,001,200853,
AMNE23.JPG,AMNE24.JPG,AMNE22.JPG,AMSA24.JPG,AMSA22.JPG,AMSA23.JPG,0,8,8,9,,,,,,,,,,,,,,,,,,,,,,,AFSA02.jpg,AFNE10.jpg,AFNE05.jpg,AFSA14.jpg,AFNE05.jpg,FN,3,num_2,32,num_6,0.466805097647,,,2017_Jul_06_1045,60.0028867546,FEMA4ImagesEEG,001,200853,
AMNE22.JPG,AMSA24.JPG,AMSA22.JPG,AMNE25.JPG,AMNE24.JPG,AMSA25.JPG,0,9,9,7,,,,,,,,,,,,,,,,,,,,,,,AFNE10.jpg,AFSA19.jpg,AFNE07.jpg,AFSA08.jpg,AFNE07.jpg,FN,3,num_2,32,num_8,0.500023414032,,,2017_Jul_06_1045,60.0028867546,FEMA4ImagesEEG,001,200853,
AFNE22.JPG,AFSA24.JPG,AFSA22.JPG,AFNE25.JPG,AFNE24.JPG,AFSA25.JPG,,,,,0,0,0,6,,,,,,,,,,,,,,,,,,,AMNE16.jpg,AMSA17.jpg,AMNE04.jpg,AMSA05.jpg,AMNE16.jpg,MN,1,num_8,32,num_2,0.366802146891,,,2017_Jul_06_1045,60.0028867546,FEMA4ImagesEEG,001,200853,
AMSA25.JPG,AMNE24.JPG,AMSA24.JPG,AMNE26.JPG,AMSA21.JPG,AMNE25.JPG,,,,,0,1,1,3,,,,,,,,,,,,,,,,,,,AMNE14.jpg,AMSA05.jpg,AMSA12.jpg,AMNE20.jpg,AMNE20.jpg,MN,1,num_4,32,num_8,0.166845318396,,,2017_Jul_06_1045,60.0028867546,FEMA4ImagesEEG,001,200853,
AFSA25.JPG,AFNE24.JPG,AFSA24.JPG,AFNE21.JPG,AFSA21.JPG,AFNE25.JPG,,,,,0,2,2,2,,,,,,,,,,,,,,,,,,,AMNE08.jpg,AMNE04.jpg,AMSA02.jpg,AMSA04.jpg,AMNE04.jpg,MN,1,num_6,32,num_4,0.266802403494,,,2017_Jul_06_1045,60.0028867546,FEMA4ImagesEEG,001,200853,
AMSA21.JPG,AMNE22.JPG,AMNE21.JPG,AMSA23.JPG,AMSA22.JPG,AMNE23.JPG,,,,,0,3,3,1,,,,,,,,,,,,,,,,,,,AMSA13.jpg,AMNE01.jpg,AMNE10.jpg,AMSA06.jpg,AMNE10.jpg,MN,1,num_2,32,num_8,0.73348337505,,,2017_Jul_06_1045,60.0028867546,FEMA4ImagesEEG,001,200853,
AFSA21.JPG,AFNE23.JPG,AFNE21.JPG,AFSA25.JPG,AFNE25.JPG,AFSA23.JPG,,,,,0,4,4,4,,,,,,,,,,,,,,,,,,,AMSA13.jpg,AMSA15.jpg,AMNE17.jpg,AMNE11.jpg,AMSA15.jpg,MS,2,num_6,32,num_2,1.16637671844,,,2017_Jul_06_1045,60.0028867546,FEMA4ImagesEEG,001,200853,
AMNE23.JPG,AMNE24.JPG,AMNE22.JPG,AMSA24.JPG,AMSA22.JPG,AMSA23.JPG,,,,,0,5,5,9,,,,,,,,,,,,,,,,,,,AMNE18.jpg,AMNE02.jpg,AMSA05.jpg,AMSA01.jpg,AMNE02.jpg,MN,1,num_6,32,num_4,0.550199852558,,,2017_Jul_06_1045,60.0028867546,FEMA4ImagesEEG,001,200853,
AFNE23.JPG,AFNE24.JPG,AFNE22.JPG,AFSA24.JPG,AFSA22.JPG,AFSA23.JPG,,,,,0,6,6,8,,,,,,,,,,,,,,,,,,,AMSA07.jpg,AMNE09.jpg,AMNE04.jpg,AMSA20.jpg,AMSA20.jpg,MS,2,num_4,32,num_8,0.483469102182,,,2017_Jul_06_1045,60.0028867546,FEMA4ImagesEEG,001,200853,
AMSA21.JPG,AMNE23.JPG,AMNE21.JPG,AMSA25.JPG,AMNE25.JPG,AMSA23.JPG,,,,,0,7,7,5,,,,,,,,,,,,,,,,,,,AMSA16.jpg,AMSA04.jpg,AMNE15.jpg,AMNE01.jpg,AMNE01.jpg,MN,1,num_4,16,num_4,0.766777706565,,,2017_Jul_06_1045,60.0028867546,FEMA4ImagesEEG,001,200853,
AFSA21.JPG,AFNE22.JPG,AFNE21.JPG,AFSA23.JPG,AFSA22.JPG,AFNE23.JPG,,,,,0,8,8,0,,,,,,,,,,,,,,,,,,,AMSA17.jpg,AMSA08.jpg,AMNE07.jpg,AMNE01.jpg,AMNE01.jpg,MN,1,num_4,16,num_4,0.633464708109,,,2017_Jul_06_1045,60.0028867546,FEMA4ImagesEEG,001,200853,
AMNE22.JPG,AMSA24.JPG,AMSA22.JPG,AMNE25.JPG,AMNE24.JPG,AMSA25.JPG,,,,,0,9,9,7,,,,,,,,,,,,,,,,,,,AMSA18.jpg,AMNE19.jpg,AMNE20.jpg,AMSA02.jpg,AMNE19.jpg,MN,1,num_6,16,num_6,0.833521286491,,,2017_Jul_06_1045,60.0028867546,FEMA4ImagesEEG,001,200853,
AFNE23.JPG,AFNE24.JPG,AFNE22.JPG,AFSA24.JPG,AFSA22.JPG,AFSA23.JPG,,,,,,,,,0,0,0,8,,,,,,,,,,,,,,,AFSA19.jpg,AFNE02.jpg,AFNE16.jpg,AFSA01.jpg,AFSA19.jpg,FS,4,num_8,16,num_8,0.0668308209861,,,2017_Jul_06_1045,60.0028867546,FEMA4ImagesEEG,001,200853,
AFSA21.JPG,AFNE22.JPG,AFNE21.JPG,AFSA23.JPG,AFSA22.JPG,AFNE23.JPG,,,,,,,,,0,1,1,0,,,,,,,,,,,,,,,AFNE14.jpg,AFSA10.jpg,AFSA06.jpg,AFNE04.jpg,AFSA10.jpg,FS,4,num_6,32,num_2,0.250197094283,,,2017_Jul_06_1045,60.0028867546,FEMA4ImagesEEG,001,200853,
AMNE23.JPG,AMNE24.JPG,AMNE22.JPG,AMSA24.JPG,AMSA22.JPG,AMSA23.JPG,,,,,,,,,0,2,2,9,,,,,,,,,,,,,,,AFNE12.jpg,AFSA13.jpg,AFNE20.jpg,AFSA06.jpg,AFSA13.jpg,FS,4,num_6,32,num_4,1.00012059789,,,2017_Jul_06_1045,60.0028867546,FEMA4ImagesEEG,001,200853,
AMNE22.JPG,AMSA24.JPG,AMSA22.JPG,AMNE25.JPG,AMNE24.JPG,AMSA25.JPG,,,,,,,,,0,3,3,7,,,,,,,,,,,,,,,AFNE11.jpg,AFSA04.jpg,AFNE17.jpg,AFSA13.jpg,AFNE17.jpg,FN,3,num_2,32,num_6,0.316785757197,,,2017_Jul_06_1045,60.0028867546,FEMA4ImagesEEG,001,200853,
AMSA21.JPG,AMNE23.JPG,AMNE21.JPG,AMSA25.JPG,AMNE25.JPG,AMSA23.JPG,,,,,,,,,0,4,4,5,,,,,,,,,,,,,,,AFNE05.jpg,AFSA01.jpg,AFSA06.jpg,AFNE06.jpg,AFSA01.jpg,FS,4,num_6,32,num_2,0.350128199556,,,2017_Jul_06_1045,60.0028867546,FEMA4ImagesEEG,001,200853,
AFSA25.JPG,AFNE24.JPG,AFSA24.JPG,AFNE21.JPG,AFSA21.JPG,AFNE25.JPG,,,,,,,,,0,5,5,2,,,,,,,,,,,,,,,AFSA12.jpg,AFNE12.jpg,AFNE18.jpg,AFSA13.jpg,AFSA13.jpg,FS,4,num_4,32,num_8,0.266805290128,,,2017_Jul_06_1045,60.0028867546,FEMA4ImagesEEG,001,200853,
AMSA21.JPG,AMNE22.JPG,AMNE21.JPG,AMSA23.JPG,AMSA22.JPG,AMNE23.JPG,,,,,,,,,0,6,6,1,,,,,,,,,,,,,,,AFSA09.jpg,AFNE15.jpg,AFNE13.jpg,AFSA12.jpg,AFSA09.jpg,FS,4,num_8,32,num_2,0.983476799913,,,2017_Jul_06_1045,60.0028867546,FEMA4ImagesEEG,001,200853,
AFSA21.JPG,AFNE23.JPG,AFNE21.JPG,AFSA25.JPG,AFNE25.JPG,AFSA23.JPG,,,,,,,,,0,7,7,4,,,,,,,,,,,,,,,AFSA06.jpg,AFNE03.jpg,AFNE08.jpg,AFSA15.jpg,AFSA15.jpg,FS,4,num_4,32,num_8,0.36678161961,,,2017_Jul_06_1045,60.0028867546,FEMA4ImagesEEG,001,200853,
AFNE22.JPG,AFSA24.JPG,AFSA22.JPG,AFNE25.JPG,AFNE24.JPG,AFSA25.JPG,,,,,,,,,0,8,8,6,,,,,,,,,,,,,,,AFSA19.jpg,AFNE16.jpg,AFNE18.jpg,AFSA06.jpg,AFSA06.jpg,FS,4,num_4,32,num_6,0.433354566223,,,2017_Jul_06_1045,60.0028867546,FEMA4ImagesEEG,001,200853,
AMSA25.JPG,AMNE24.JPG,AMSA24.JPG,AMNE26.JPG,AMSA21.JPG,AMNE25.JPG,,,,,,,,,0,9,9,3,,,,,,,,,,,,,,,AFNE20.jpg,AFSA02.jpg,AFSA03.jpg,AFNE18.jpg,AFNE18.jpg,FN,3,num_4,32,num_8,0.683518624399,,,2017_Jul_06_1045,60.0028867546,FEMA4ImagesEEG,001,200853,
AMSA21.JPG,AMNE22.JPG,AMNE21.JPG,AMSA23.JPG,AMSA22.JPG,AMNE23.JPG,,,,,,,,,,,,,0,0,0,1,,,,,,,,,,,AMSA20.jpg,AMSA10.jpg,AMNE07.jpg,AMNE17.jpg,AMNE17.jpg,MN,1,num_4,16,num_4,0.266812025686,,,2017_Jul_06_1045,60.0028867546,FEMA4ImagesEEG,001,200853,
AMSA25.JPG,AMNE24.JPG,AMSA24.JPG,AMNE26.JPG,AMSA21.JPG,AMNE25.JPG,,,,,,,,,,,,,0,1,1,3,,,,,,,,,,,AMNE13.jpg,AMSA13.jpg,AMSA03.jpg,AMNE05.jpg,AMSA03.jpg,MS,2,num_2,32,num_6,0.283368582488,,,2017_Jul_06_1045,60.0028867546,FEMA4ImagesEEG,001,200853,
AFSA21.JPG,AFNE23.JPG,AFNE21.JPG,AFSA25.JPG,AFNE25.JPG,AFSA23.JPG,,,,,,,,,,,,,0,2,2,4,,,,,,,,,,,AMSA03.jpg,AMSA01.jpg,AMNE20.jpg,AMNE02.jpg,AMNE02.jpg,MN,1,num_4,32,num_2,0.516843297752,,,2017_Jul_06_1045,60.0028867546,FEMA4ImagesEEG,001,200853,
AMNE23.JPG,AMNE24.JPG,AMNE22.JPG,AMSA24.JPG,AMSA22.JPG,AMSA23.JPG,,,,,,,,,,,,,0,3,3,9,,,,,,,,,,,AMSA18.jpg,AMNE10.jpg,AMSA15.jpg,AMNE17.jpg,AMNE10.jpg,MN,1,num_6,32,num_4,0.316802756279,,,2017_Jul_06_1045,60.0028867546,FEMA4ImagesEEG,001,200853,
AFNE23.JPG,AFNE24.JPG,AFNE22.JPG,AFSA24.JPG,AFSA22.JPG,AFSA23.JPG,,,,,,,,,,,,,0,4,4,8,,,,,,,,,,,AMSA03.jpg,AMSA07.jpg,AMNE13.jpg,AMNE03.jpg,AMSA03.jpg,MS,2,num_8,32,num_4,0.683511247393,,,2017_Jul_06_1045,60.0028867546,FEMA4ImagesEEG,001,200853,
AFNE22.JPG,AFSA24.JPG,AFSA22.JPG,AFNE25.JPG,AFNE24.JPG,AFSA25.JPG,,,,,,,,,,,,,0,5,5,6,,,,,,,,,,,AMSA09.jpg,AMNE12.jpg,AMSA15.jpg,AMNE09.jpg,AMNE12.jpg,MN,1,num_6,32,num_8,0.450149753131,,,2017_Jul_06_1045,60.0028867546,FEMA4ImagesEEG,001,200853,
AFSA25.JPG,AFNE24.JPG,AFSA24.JPG,AFNE21.JPG,AFSA21.JPG,AFNE25.JPG,,,,,,,,,,,,,0,6,6,2,,,,,,,,,,,AMSA04.jpg,AMSA03.jpg,AMNE17.jpg,AMNE04.jpg,AMNE04.jpg,MN,1,num_4,16,num_4,0.733798341011,,,2017_Jul_06_1045,60.0028867546,FEMA4ImagesEEG,001,200853,
AMSA21.JPG,AMNE23.JPG,AMNE21.JPG,AMSA25.JPG,AMNE25.JPG,AMSA23.JPG,,,,,,,,,,,,,0,7,7,5,,,,,,,,,,,AMNE07.jpg,AMSA12.jpg,AMSA06.jpg,AMNE15.jpg,AMNE15.jpg,MN,1,num_4,16,num_4,0.383497904637,,,2017_Jul_06_1045,60.0028867546,FEMA4ImagesEEG,001,200853,
AFSA21.JPG,AFNE22.JPG,AFNE21.JPG,AFSA23.JPG,AFSA22.JPG,AFNE23.JPG,,,,,,,,,,,,,0,8,8,0,,,,,,,,,,,AMNE11.jpg,AMNE19.jpg,AMSA04.jpg,AMSA11.jpg,AMNE11.jpg,MN,1,num_8,32,num_2,0.316792171914,,,2017_Jul_06_1045,60.0028867546,FEMA4ImagesEEG,001,200853,
AMNE22.JPG,AMSA24.JPG,AMSA22.JPG,AMNE25.JPG,AMNE24.JPG,AMSA25.JPG,,,,,,,,,,,,,0,9,9,7,,,,,,,,,,,AMSA14.jpg,AMNE02.jpg,AMSA03.jpg,AMNE07.jpg,AMNE07.jpg,MN,1,num_4,32,num_8,0.350327699212,,,2017_Jul_06_1045,60.0028867546,FEMA4ImagesEEG,001,200853,
AFSA21.JPG,AFNE22.JPG,AFNE21.JPG,AFSA23.JPG,AFSA22.JPG,AFNE23.JPG,,,,,,,,,,,,,,,,,0,0,0,0,,,,,,,AFSA13.jpg,AFSA01.jpg,AFNE11.jpg,AFNE05.jpg,AFNE05.jpg,FN,3,num_4,16,num_4,0.300016550114,,,2017_Jul_06_1045,60.0028867546,FEMA4ImagesEEG,001,200853,
AMSA21.JPG,AMNE22.JPG,AMNE21.JPG,AMSA23.JPG,AMSA22.JPG,AMNE23.JPG,,,,,,,,,,,,,,,,,0,1,1,1,,,,,,,AFSA11.jpg,AFNE04.jpg,AFNE20.jpg,AFSA13.jpg,AFSA13.jpg,FS,4,num_4,32,num_6,0.250159567688,,,2017_Jul_06_1045,60.0028867546,FEMA4ImagesEEG,001,200853,
AFNE22.JPG,AFSA24.JPG,AFSA22.JPG,AFNE25.JPG,AFNE24.JPG,AFSA25.JPG,,,,,,,,,,,,,,,,,0,2,2,6,,,,,,,AFNE09.jpg,AFNE01.jpg,AFSA18.jpg,AFSA04.jpg,AFSA18.jpg,FS,4,num_2,16,num_2,0.383470321074,,,2017_Jul_06_1045,60.0028867546,FEMA4ImagesEEG,001,200853,
AFNE23.JPG,AFNE24.JPG,AFNE22.JPG,AFSA24.JPG,AFSA22.JPG,AFSA23.JPG,,,,,,,,,,,,,,,,,0,3,3,8,,,,,,,AFNE19.jpg,AFSA03.jpg,AFNE07.jpg,AFSA18.jpg,AFSA03.jpg,FS,4,num_6,32,num_4,0.733454508591,,,2017_Jul_06_1045,60.0028867546,FEMA4ImagesEEG,001,200853,
AMSA21.JPG,AMNE23.JPG,AMNE21.JPG,AMSA25.JPG,AMNE25.JPG,AMSA23.JPG,,,,,,,,,,,,,,,,,0,4,4,5,,,,,,,AFSA16.jpg,AFNE09.jpg,AFNE13.jpg,AFSA20.jpg,AFNE13.jpg,FN,3,num_2,32,num_8,0.41678742494,,,2017_Jul_06_1045,60.0028867546,FEMA4ImagesEEG,001,200853,
AFSA21.JPG,AFNE23.JPG,AFNE21.JPG,AFSA25.JPG,AFNE25.JPG,AFSA23.JPG,,,,,,,,,,,,,,,,,0,5,5,4,,,,,,,AFSA07.jpg,AFNE03.jpg,AFNE02.jpg,AFSA05.jpg,AFNE03.jpg,FN,3,num_6,32,num_4,0.750170152169,,,2017_Jul_06_1045,60.0028867546,FEMA4ImagesEEG,001,200853,
AMNE22.JPG,AMSA24.JPG,AMSA22.JPG,AMNE25.JPG,AMNE24.JPG,AMSA25.JPG,,,,,,,,,,,,,,,,,0,6,6,7,,,,,,,AFSA02.jpg,AFSA04.jpg,AFNE17.jpg,AFNE09.jpg,AFNE09.jpg,FN,3,num_4,32,num_6,0.666802018532,,,2017_Jul_06_1045,60.0028867546,FEMA4ImagesEEG,001,200853,
AMNE23.JPG,AMNE24.JPG,AMNE22.JPG,AMSA24.JPG,AMSA22.JPG,AMSA23.JPG,,,,,,,,,,,,,,,,,0,7,7,9,,,,,,,AFNE02.jpg,AFSA04.jpg,AFSA16.jpg,AFNE11.jpg,AFSA04.jpg,FS,4,num_6,32,num_2,0.466823059018,,,2017_Jul_06_1045,60.0028867546,FEMA4ImagesEEG,001,200853,
AFSA25.JPG,AFNE24.JPG,AFSA24.JPG,AFNE21.JPG,AFSA21.JPG,AFNE25.JPG,,,,,,,,,,,,,,,,,0,8,8,2,,,,,,,AFSA10.jpg,AFNE15.jpg,AFSA17.jpg,AFNE08.jpg,AFNE08.jpg,FN,3,num_4,32,num_8,0.466823379858,,,2017_Jul_06_1045,60.0028867546,FEMA4ImagesEEG,001,200853,
AMSA25.JPG,AMNE24.JPG,AMSA24.JPG,AMNE26.JPG,AMSA21.JPG,AMNE25.JPG,,,,,,,,,,,,,,,,,0,9,9,3,,,,,,,AFNE15.jpg,AFSA14.jpg,AFNE09.jpg,AFSA04.jpg,AFNE09.jpg,FN,3,num_2,32,num_4,0.266888040933,,,2017_Jul_06_1045,60.0028867546,FEMA4ImagesEEG,001,200853,
AMSA21.JPG,AMNE22.JPG,AMNE21.JPG,AMSA23.JPG,AMSA22.JPG,AMNE23.JPG,,,,,,,,,,,,,,,,,,,,,0,0,0,1,,,AMNE19.jpg,AMNE04.jpg,AMSA04.jpg,AMSA09.jpg,AMNE04.jpg,MN,1,num_6,16,num_6,0.533506660839,,,2017_Jul_06_1045,60.0028867546,FEMA4ImagesEEG,001,200853,
AFNE22.JPG,AFSA24.JPG,AFSA22.JPG,AFNE25.JPG,AFNE24.JPG,AFSA25.JPG,,,,,,,,,,,,,,,,,,,,,0,1,1,6,,,AMNE11.jpg,AMSA20.jpg,AMNE15.jpg,AMSA17.jpg,AMSA17.jpg,MS,2,num_4,32,num_2,0.300022964948,,,2017_Jul_06_1045,60.0028867546,FEMA4ImagesEEG,001,200853,
AMNE23.JPG,AMNE24.JPG,AMNE22.JPG,AMSA24.JPG,AMSA22.JPG,AMSA23.JPG,,,,,,,,,,,,,,,,,,,,,0,2,2,9,,,AMSA09.jpg,AMNE08.jpg,AMSA14.jpg,AMNE19.jpg,AMSA09.jpg,MS,2,num_8,16,num_8,0.25024648814,,,2017_Jul_06_1045,60.0028867546,FEMA4ImagesEEG,001,200853,
AFSA21.JPG,AFNE22.JPG,AFNE21.JPG,AFSA23.JPG,AFSA22.JPG,AFNE23.JPG,,,,,,,,,,,,,,,,,,,,,0,3,3,0,,,AMNE15.jpg,AMSA17.jpg,AMNE16.jpg,AMSA12.jpg,AMNE15.jpg,MN,1,num_8,32,num_6,0.316797624459,,,2017_Jul_06_1045,60.0028867546,FEMA4ImagesEEG,001,200853,
AMSA21.JPG,AMNE23.JPG,AMNE21.JPG,AMSA25.JPG,AMNE25.JPG,AMSA23.JPG,,,,,,,,,,,,,,,,,,,,,0,4,4,5,,,AMNE11.jpg,AMSA15.jpg,AMSA10.jpg,AMNE16.jpg,AMNE11.jpg,MN,1,num_8,32,num_4,0.616771516274,,,2017_Jul_06_1045,60.0028867546,FEMA4ImagesEEG,001,200853,
AMNE22.JPG,AMSA24.JPG,AMSA22.JPG,AMNE25.JPG,AMNE24.JPG,AMSA25.JPG,,,,,,,,,,,,,,,,,,,,,0,5,5,7,,,AMSA18.jpg,AMSA01.jpg,AMNE12.jpg,AMNE03.jpg,AMSA01.jpg,MS,2,num_6,32,num_8,0.383513941546,,,2017_Jul_06_1045,60.0028867546,FEMA4ImagesEEG,001,200853,
AFNE23.JPG,AFNE24.JPG,AFNE22.JPG,AFSA24.JPG,AFSA22.JPG,AFSA23.JPG,,,,,,,,,,,,,,,,,,,,,0,6,6,8,,,AMSA03.jpg,AMNE18.jpg,AMSA17.jpg,AMNE13.jpg,AMSA17.jpg,MS,2,num_2,16,num_2,0.500141446013,,,2017_Jul_06_1045,60.0028867546,FEMA4ImagesEEG,001,200853,
AFSA21.JPG,AFNE23.JPG,AFNE21.JPG,AFSA25.JPG,AFNE25.JPG,AFSA23.JPG,,,,,,,,,,,,,,,,,,,,,0,7,7,4,,,AMSA09.jpg,AMNE13.jpg,AMNE17.jpg,AMSA14.jpg,AMNE13.jpg,MN,1,num_6,16,num_6,0.266821327037,,,2017_Jul_06_1045,60.0028867546,FEMA4ImagesEEG,001,200853,
AFSA25.JPG,AFNE24.JPG,AFSA24.JPG,AFNE21.JPG,AFSA21.JPG,AFNE25.JPG,,,,,,,,,,,,,,,,,,,,,0,8,8,2,,,AMNE14.jpg,AMSA16.jpg,AMSA05.jpg,AMNE12.jpg,AMSA05.jpg,MS,2,num_2,32,num_4,0.766790215392,,,2017_Jul_06_1045,60.0028867546,FEMA4ImagesEEG,001,200853,
AMSA25.JPG,AMNE24.JPG,AMSA24.JPG,AMNE26.JPG,AMSA21.JPG,AMNE25.JPG,,,,,,,,,,,,,,,,,,,,,0,9,9,3,,,AMSA06.jpg,AMNE01.jpg,AMSA12.jpg,AMNE18.jpg,AMSA12.jpg,MS,2,num_2,16,num_2,0.35014102899,,,2017_Jul_06_1045,60.0028867546,FEMA4ImagesEEG,001,200853,
,,,,,,,,,,,,,,,,,,,,,,,,,,,,,,,,,,,,,,,,,,,space,3.43325738236,2017_Jul_06_1045,60.0028867546,FEMA4ImagesEEG,001,200853,
AFNE01.JPG,AFNE01.JPG,AFNE01.JPG,AFNE01.JPG,AFNE01.JPG,AFNE01.JPG,0,0,0,3,,,,,,,,,,,,,,,,,,,,,,,AFNE18.jpg,AFSA02.jpg,AFSA06.jpg,AFNE03.jpg,AFSA02.jpg,FS,4,num_6,32,num_2,0.833443667623,,,2017_Jul_06_1045,60.0028867546,FEMA4ImagesEEG,001,200853,
AFNE01.JPG,AFNE01.JPG,AFNE01.JPG,AFNE01.JPG,AFNE01.JPG,AFNE01.JPG,0,1,1,0,,,,,,,,,,,,,,,,,,,,,,,AFSA18.jpg,AFNE09.jpg,AFSA19.jpg,AFNE17.jpg,AFNE17.jpg,FN,3,num_4,32,num_6,0.416812442592,,,2017_Jul_06_1045,60.0028867546,FEMA4ImagesEEG,001,200853,
AFNE01.JPG,AFNE01.JPG,AFNE01.JPG,AFNE01.JPG,AFNE01.JPG,AFNE01.JPG,0,2,2,9,,,,,,,,,,,,,,,,,,,,,,,AFSA10.jpg,AFNE13.jpg,AFNE12.jpg,AFSA02.jpg,AFNE13.jpg,FN,3,num_6,32,num_8,0.500133427558,,,2017_Jul_06_1045,60.0028867546,FEMA4ImagesEEG,001,200853,
AFNE01.JPG,AFNE01.JPG,AFNE01.JPG,AFNE01.JPG,AFNE01.JPG,AFNE01.JPG,0,3,3,7,,,,,,,,,,,,,,,,,,,,,,,AFNE01.jpg,AFNE16.jpg,AFSA02.jpg,AFSA17.jpg,AFSA17.jpg,FS,4,num_4,32,num_2,0.266814591596,,,2017_Jul_06_1045,60.0028867546,FEMA4ImagesEEG,001,200853,
AFNE01.JPG,AFNE01.JPG,AFNE01.JPG,AFNE01.JPG,AFNE01.JPG,AFNE01.JPG,0,4,4,4,,,,,,,,,,,,,,,,,,,,,,,AFSA16.jpg,AFSA19.jpg,AFNE14.jpg,AFNE15.jpg,AFNE15.jpg,FN,3,num_4,16,num_4,0.483464291203,,,2017_Jul_06_1045,60.0028867546,FEMA4ImagesEEG,001,200853,
AFNE01.JPG,AFNE01.JPG,AFNE01.JPG,AFNE01.JPG,AFNE01.JPG,AFNE01.JPG,0,5,5,5,,,,,,,,,,,,,,,,,,,,,,,AFNE18.jpg,AFSA18.jpg,AFNE01.jpg,AFSA07.jpg,AFNE18.jpg,FN,3,num_8,32,num_6,0.433488955954,,,2017_Jul_06_1045,60.0028867546,FEMA4ImagesEEG,001,200853,
AFNE01.JPG,AFNE01.JPG,AFNE01.JPG,AFNE01.JPG,AFNE01.JPG,AFNE01.JPG,0,6,6,1,,,,,,,,,,,,,,,,,,,,,,,AFSA06.jpg,AFSA08.jpg,AFNE03.jpg,AFNE18.jpg,AFNE18.jpg,FN,3,num_4,32,num_8,0.300174353761,,,2017_Jul_06_1045,60.0028867546,FEMA4ImagesEEG,001,200853,
AFNE01.JPG,AFNE01.JPG,AFNE01.JPG,AFNE01.JPG,AFNE01.JPG,AFNE01.JPG,0,7,7,2,,,,,,,,,,,,,,,,,,,,,,,AFSA17.jpg,AFNE19.jpg,AFNE03.jpg,AFSA16.jpg,AFSA17.jpg,FS,4,num_8,32,num_4,0.400172493537,,,2017_Jul_06_1045,60.0028867546,FEMA4ImagesEEG,001,200853,
AFNE01.JPG,AFNE01.JPG,AFNE01.JPG,AFNE01.JPG,AFNE01.JPG,AFNE01.JPG,0,8,8,8,,,,,,,,,,,,,,,,,,,,,,,AFSA01.jpg,AFNE10.jpg,AFSA11.jpg,AFNE11.jpg,AFNE10.jpg,FN,3,num_6,16,num_6,0.566886308952,,,2017_Jul_06_1045,60.0028867546,FEMA4ImagesEEG,001,200853,
AFNE01.JPG,AFNE01.JPG,AFNE01.JPG,AFNE01.JPG,AFNE01.JPG,AFNE01.JPG,0,9,9,6,,,,,,,,,,,,,,,,,,,,,,,AFNE18.jpg,AFSA12.jpg,AFSA01.jpg,AFNE20.jpg,AFNE20.jpg,FN,3,num_4,16,num_4,0.583485203329,,,2017_Jul_06_1045,60.0028867546,FEMA4ImagesEEG,001,200853,
AFNE01.JPG,AFNE01.JPG,AFNE01.JPG,AFNE01.JPG,AFNE01.JPG,AFNE01.JPG,1,0,10,8,,,,,,,,,,,,,,,,,,,,,,,AFNE16.jpg,AFSA20.jpg,AFNE06.jpg,AFSA12.jpg,AFSA12.jpg,FS,4,num_4,32,num_8,0.950143338414,,,2017_Jul_06_1045,60.0028867546,FEMA4ImagesEEG,001,200853,
AFNE01.JPG,AFNE01.JPG,AFNE01.JPG,AFNE01.JPG,AFNE01.JPG,AFNE01.JPG,1,1,11,2,,,,,,,,,,,,,,,,,,,,,,,AFNE19.jpg,AFSA10.jpg,AFSA02.jpg,AFNE09.jpg,AFSA10.jpg,FS,4,num_6,32,num_4,0.500180896954,,,2017_Jul_06_1045,60.0028867546,FEMA4ImagesEEG,001,200853,
AFNE01.JPG,AFNE01.JPG,AFNE01.JPG,AFNE01.JPG,AFNE01.JPG,AFNE01.JPG,1,2,12,7,,,,,,,,,,,,,,,,,,,,,,,AFNE11.jpg,AFNE04.jpg,AFSA11.jpg,AFSA01.jpg,AFNE04.jpg,FN,3,num_6,16,num_6,0.466867321054,,,2017_Jul_06_1045,60.0028867546,FEMA4ImagesEEG,001,200853,
AFNE01.JPG,AFNE01.JPG,AFNE01.JPG,AFNE01.JPG,AFNE01.JPG,AFNE01.JPG,1,3,13,4,,,,,,,,,,,,,,,,,,,,,,,AFNE02.jpg,AFSA05.jpg,AFNE04.jpg,AFSA03.jpg,AFSA05.jpg,FS,4,num_6,32,num_4,0.700161780929,,,2017_Jul_06_1045,60.0028867546,FEMA4ImagesEEG,001,200853,
AFNE01.JPG,AFNE01.JPG,AFNE01.JPG,AFNE01.JPG,AFNE01.JPG,AFNE01.JPG,1,4,14,6,,,,,,,,,,,,,,,,,,,,,,,AFNE03.jpg,AFSA16.jpg,AFNE09.jpg,AFSA14.jpg,AFSA16.jpg,FS,4,num_6,32,num_8,0.416873383103,,,2017_Jul_06_1045,60.0028867546,FEMA4ImagesEEG,001,200853,
AFNE01.JPG,AFNE01.JPG,AFNE01.JPG,AFNE01.JPG,AFNE01.JPG,AFNE01.JPG,1,5,15,3,,,,,,,,,,,,,,,,,,,,,,,AFNE18.jpg,AFNE19.jpg,AFSA11.jpg,AFSA09.jpg,AFSA11.jpg,FS,4,num_2,32,num_4,1.45006219135,,,2017_Jul_06_1045,60.0028867546,FEMA4ImagesEEG,001,200853,
AFNE01.JPG,AFNE01.JPG,AFNE01.JPG,AFNE01.JPG,AFNE01.JPG,AFNE01.JPG,1,6,16,5,,,,,,,,,,,,,,,,,,,,,,,AFSA06.jpg,AFNE17.jpg,AFSA18.jpg,AFNE08.jpg,AFNE08.jpg,FN,3,num_4,32,num_8,0.283506179694,,,2017_Jul_06_1045,60.0028867546,FEMA4ImagesEEG,001,200853,
AFNE01.JPG,AFNE01.JPG,AFNE01.JPG,AFNE01.JPG,AFNE01.JPG,AFNE01.JPG,1,7,17,9,,,,,,,,,,,,,,,,,,,,,,,AFNE15.jpg,AFSA01.jpg,AFNE13.jpg,AFSA14.jpg,AFSA14.jpg,FS,4,num_4,32,num_6,0.966755062458,,,2017_Jul_06_1045,60.0028867546,FEMA4ImagesEEG,001,200853,
AFNE01.JPG,AFNE01.JPG,AFNE01.JPG,AFNE01.JPG,AFNE01.JPG,AFNE01.JPG,1,8,18,0,,,,,,,,,,,,,,,,,,,,,,,AFNE07.jpg,AFNE01.jpg,AFSA04.jpg,AFSA19.jpg,AFSA19.jpg,FS,4,num_4,16,num_4,0.31684990495,,,2017_Jul_06_1045,60.0028867546,FEMA4ImagesEEG,001,200853,
AFNE01.JPG,AFNE01.JPG,AFNE01.JPG,AFNE01.JPG,AFNE01.JPG,AFNE01.JPG,1,9,19,1,,,,,,,,,,,,,,,,,,,,,,,AFSA16.jpg,AFNE18.jpg,AFSA06.jpg,AFNE03.jpg,AFNE18.jpg,FN,3,num_6,16,num_6,0.300149977673,,,2017_Jul_06_1045,60.0028867546,FEMA4ImagesEEG,001,200853,
AFNE01.JPG,AFNE01.JPG,AFNE01.JPG,AFNE01.JPG,AFNE01.JPG,AFNE01.JPG,2,0,20,4,,,,,,,,,,,,,,,,,,,,,,,AFNE17.jpg,AFSA05.jpg,AFSA18.jpg,AFNE09.jpg,AFNE09.jpg,FN,3,num_4,32,num_8,0.316795700113,,,2017_Jul_06_1045,60.0028867546,FEMA4ImagesEEG,001,200853,
AFNE01.JPG,AFNE01.JPG,AFNE01.JPG,AFNE01.JPG,AFNE01.JPG,AFNE01.JPG,2,1,21,7,,,,,,,,,,,,,,,,,,,,,,,AFSA01.jpg,AFNE11.jpg,AFNE12.jpg,AFSA20.jpg,AFNE12.jpg,FN,3,num_2,16,num_2,0.816741815885,,,2017_Jul_06_1045,60.0028867546,FEMA4ImagesEEG,001,200853,
AFNE01.JPG,AFNE01.JPG,AFNE01.JPG,AFNE01.JPG,AFNE01.JPG,AFNE01.JPG,2,2,22,6,,,,,,,,,,,,,,,,,,,,,,,AFNE13.jpg,AFSA19.jpg,AFSA05.jpg,AFNE17.jpg,AFSA19.jpg,FS,4,num_6,32,num_8,1.18343811878,,,2017_Jul_06_1045,60.0028867546,FEMA4ImagesEEG,001,200853,
AFNE01.JPG,AFNE01.JPG,AFNE01.JPG,AFNE01.JPG,AFNE01.JPG,AFNE01.JPG,2,3,23,1,,,,,,,,,,,,,,,,,,,,,,,AFNE16.jpg,AFSA15.jpg,AFNE13.jpg,AFSA20.jpg,AFNE13.jpg,FN,3,num_2,32,num_6,0.383467755164,,,2017_Jul_06_1045,60.0028867546,FEMA4ImagesEEG,001,200853,
AFNE01.JPG,AFNE01.JPG,AFNE01.JPG,AFNE01.JPG,AFNE01.JPG,AFNE01.JPG,2,4,24,2,,,,,,,,,,,,,,,,,,,,,,,AFSA08.jpg,AFNE18.jpg,AFSA16.jpg,AFNE19.jpg,AFSA08.jpg,FS,4,num_8,32,num_4,0.533516283031,,,2017_Jul_06_1045,60.0028867546,FEMA4ImagesEEG,001,200853,
AFNE01.JPG,AFNE01.JPG,AFNE01.JPG,AFNE01.JPG,AFNE01.JPG,AFNE01.JPG,2,5,25,0,,,,,,,,,,,,,,,,,,,,,,,AFSA09.jpg,AFSA06.jpg,AFNE12.jpg,AFNE09.jpg,AFSA06.jpg,FS,4,num_6,16,num_6,0.700107896584,,,2017_Jul_06_1045,60.0028867546,FEMA4ImagesEEG,001,200853,
AFNE01.JPG,AFNE01.JPG,AFNE01.JPG,AFNE01.JPG,AFNE01.JPG,AFNE01.JPG,2,6,26,3,,,,,,,,,,,,,,,,,,,,,,,AFSA10.jpg,AFSA05.jpg,AFNE01.jpg,AFNE18.jpg,AFNE01.jpg,FN,3,num_2,32,num_8,1.00007793971,,,2017_Jul_06_1045,60.0028867546,FEMA4ImagesEEG,001,200853,
AFNE01.JPG,AFNE01.JPG,AFNE01.JPG,AFNE01.JPG,AFNE01.JPG,AFNE01.JPG,2,7,27,9,,,,,,,,,,,,,,,,,,,,,,,AFSA02.jpg,AFNE17.jpg,AFSA01.jpg,AFNE19.jpg,AFSA01.jpg,FS,4,num_2,32,num_8,0.516791658709,,,2017_Jul_06_1045,60.0028867546,FEMA4ImagesEEG,001,200853,
AFNE01.JPG,AFNE01.JPG,AFNE01.JPG,AFNE01.JPG,AFNE01.JPG,AFNE01.JPG,2,8,28,8,,,,,,,,,,,,,,,,,,,,,,,AFSA14.jpg,AFSA01.jpg,AFNE11.jpg,AFNE03.jpg,AFSA14.jpg,FS,4,num_8,32,num_4,0.816809491836,,,2017_Jul_06_1045,60.0028867546,FEMA4ImagesEEG,001,200853,
AFNE01.JPG,AFNE01.JPG,AFNE01.JPG,AFNE01.JPG,AFNE01.JPG,AFNE01.JPG,2,9,29,5,,,,,,,,,,,,,,,,,,,,,,,AFNE01.jpg,AFSA19.jpg,AFSA08.jpg,AFNE10.jpg,AFSA08.jpg,FS,4,num_2,32,num_6,1.5333905532,,,2017_Jul_06_1045,60.0028867546,FEMA4ImagesEEG,001,200853,
AFNE01.JPG,AFNE01.JPG,AFNE01.JPG,AFNE01.JPG,AFNE01.JPG,AFNE01.JPG,3,0,30,9,,,,,,,,,,,,,,,,,,,,,,,AFNE09.jpg,AFNE07.jpg,AFSA19.jpg,AFSA01.jpg,AFNE09.jpg,FN,3,num_8,16,num_8,0.566765069379,,,2017_Jul_06_1045,60.0028867546,FEMA4ImagesEEG,001,200853,
AFNE01.JPG,AFNE01.JPG,AFNE01.JPG,AFNE01.JPG,AFNE01.JPG,AFNE01.JPG,3,1,31,5,,,,,,,,,,,,,,,,,,,,,,,AFSA14.jpg,AFNE20.jpg,AFNE06.jpg,AFSA11.jpg,AFSA14.jpg,FS,4,num_8,32,num_2,0.550105876056,,,2017_Jul_06_1045,60.0028867546,FEMA4ImagesEEG,001,200853,
AFNE01.JPG,AFNE01.JPG,AFNE01.JPG,AFNE01.JPG,AFNE01.JPG,AFNE01.JPG,3,2,32,7,,,,,,,,,,,,,,,,,,,,,,,AFSA11.jpg,AFSA20.jpg,AFNE04.jpg,AFNE17.jpg,AFSA20.jpg,FS,4,num_6,32,num_8,0.633481386583,,,2017_Jul_06_1045,60.0028867546,FEMA4ImagesEEG,001,200853,
AFNE01.JPG,AFNE01.JPG,AFNE01.JPG,AFNE01.JPG,AFNE01.JPG,AFNE01.JPG,3,3,33,4,,,,,,,,,,,,,,,,,,,,,,,AFNE12.jpg,AFSA20.jpg,AFSA14.jpg,AFNE19.jpg,AFSA20.jpg,FS,4,num_6,32,num_4,0.749807716813,,,2017_Jul_06_1045,60.0028867546,FEMA4ImagesEEG,001,200853,
AFNE01.JPG,AFNE01.JPG,AFNE01.JPG,AFNE01.JPG,AFNE01.JPG,AFNE01.JPG,3,4,34,2,,,,,,,,,,,,,,,,,,,,,,,AFNE04.jpg,AFSA06.jpg,AFSA08.jpg,AFNE03.jpg,AFNE03.jpg,FN,3,num_4,32,num_8,1.13346534967,,,2017_Jul_06_1045,60.0028867546,FEMA4ImagesEEG,001,200853,
AFNE01.JPG,AFNE01.JPG,AFNE01.JPG,AFNE01.JPG,AFNE01.JPG,AFNE01.JPG,3,5,35,3,,,,,,,,,,,,,,,,,,,,,,,AFSA13.jpg,AFSA07.jpg,AFNE14.jpg,AFNE19.jpg,AFSA13.jpg,FS,4,num_8,32,num_6,0.516763754422,,,2017_Jul_06_1045,60.0028867546,FEMA4ImagesEEG,001,200853,
AFNE01.JPG,AFNE01.JPG,AFNE01.JPG,AFNE01.JPG,AFNE01.JPG,AFNE01.JPG,3,6,36,6,,,,,,,,,,,,,,,,,,,,,,,AFSA09.jpg,AFNE12.jpg,AFSA06.jpg,AFNE13.jpg,AFNE13.jpg,FN,3,num_4,32,num_6,0.683467626804,,,2017_Jul_06_1045,60.0028867546,FEMA4ImagesEEG,001,200853,
AFNE01.JPG,AFNE01.JPG,AFNE01.JPG,AFNE01.JPG,AFNE01.JPG,AFNE01.JPG,3,7,37,0,,,,,,,,,,,,,,,,,,,,,,,AFSA02.jpg,AFNE06.jpg,AFNE09.jpg,AFSA08.jpg,AFSA08.jpg,FS,4,num_4,32,num_8,0.683475645375,,,2017_Jul_06_1045,60.0028867546,FEMA4ImagesEEG,001,200853,
AFNE01.JPG,AFNE01.JPG,AFNE01.JPG,AFNE01.JPG,AFNE01.JPG,AFNE01.JPG,3,8,38,1,,,,,,,,,,,,,,,,,,,,,,,AFSA11.jpg,AFNE13.jpg,AFNE19.jpg,AFSA02.jpg,AFSA11.jpg,FS,4,num_8,32,num_4,0.416844195803,,,2017_Jul_06_1045,60.0028867546,FEMA4ImagesEEG,001,200853,
AFNE01.JPG,AFNE01.JPG,AFNE01.JPG,AFNE01.JPG,AFNE01.JPG,AFNE01.JPG,3,9,39,8,,,,,,,,,,,,,,,,,,,,,,,AFNE01.jpg,AFSA20.jpg,AFNE08.jpg,AFSA19.jpg,AFSA19.jpg,FS,4,num_4,32,num_6,0.283530235058,,,2017_Jul_06_1045,60.0028867546,FEMA4ImagesEEG,001,200853,
AFNE01.JPG,AFNE01.JPG,AFNE01.JPG,AFNE01.JPG,AFNE01.JPG,AFNE01.JPG,4,0,40,3,,,,,,,,,,,,,,,,,,,,,,,AFNE15.jpg,AFSA06.jpg,AFSA03.jpg,AFNE02.jpg,AFSA06.jpg,FS,4,num_6,32,num_2,0.433460089494,,,2017_Jul_06_1045,60.0028867546,FEMA4ImagesEEG,001,200853,
AFNE01.JPG,AFNE01.JPG,AFNE01.JPG,AFNE01.JPG,AFNE01.JPG,AFNE01.JPG,4,1,41,7,,,,,,,,,,,,,,,,,,,,,,,AFNE06.jpg,AFSA10.jpg,AFNE10.jpg,AFSA06.jpg,AFSA06.jpg,FS,4,num_4,16,num_4,0.533480680897,,,2017_Jul_06_1045,60.0028867546,FEMA4ImagesEEG,001,200853,
AFNE01.JPG,AFNE01.JPG,AFNE01.JPG,AFNE01.JPG,AFNE01.JPG,AFNE01.JPG,4,2,42,6,,,,,,,,,,,,,,,,,,,,,,,AFSA09.jpg,AFNE10.jpg,AFSA07.jpg,AFNE12.jpg,AFNE12.jpg,FN,3,num_4,32,num_2,1.25014770043,,,2017_Jul_06_1045,60.0028867546,FEMA4ImagesEEG,001,200853,
AFNE01.JPG,AFNE01.JPG,AFNE01.JPG,AFNE01.JPG,AFNE01.JPG,AFNE01.JPG,4,3,43,2,,,,,,,,,,,,,,,,,,,,,,,AFNE08.jpg,AFSA16.jpg,AFNE16.jpg,AFSA17.jpg,AFNE08.jpg,FN,3,num_8,32,num_6,1.88336800528,,,2017_Jul_06_1045,60.0028867546,FEMA4ImagesEEG,001,200853,
AFNE01.JPG,AFNE01.JPG,AFNE01.JPG,AFNE01.JPG,AFNE01.JPG,AFNE01.JPG,4,4,44,0,,,,,,,,,,,,,,,,,,,,,,,AFNE01.jpg,AFSA18.jpg,AFSA10.jpg,AFNE12.jpg,AFNE12.jpg,FN,3,num_4,16,num_4,0.616765101557,,,2017_Jul_06_1045,60.0028867546,FEMA4ImagesEEG,001,200853,
AFNE01.JPG,AFNE01.JPG,AFNE01.JPG,AFNE01.JPG,AFNE01.JPG,AFNE01.JPG,4,5,45,5,,,,,,,,,,,,,,,,,,,,,,,AFSA10.jpg,AFSA11.jpg,AFNE02.jpg,AFNE08.jpg,AFNE08.jpg,FN,3,num_4,16,num_4,0.900177625357,,,2017_Jul_06_1045,60.0028867546,FEMA4ImagesEEG,001,200853,
AFNE01.JPG,AFNE01.JPG,AFNE01.JPG,AFNE01.JPG,AFNE01.JPG,AFNE01.JPG,4,6,46,8,,,,,,,,,,,,,,,,,,,,,,,AFNE15.jpg,AFSA15.jpg,AFNE08.jpg,AFSA03.jpg,AFSA15.jpg,FS,4,num_6,16,num_6,0.483531004866,,,2017_Jul_06_1045,60.0028867546,FEMA4ImagesEEG,001,200853,
AFNE01.JPG,AFNE01.JPG,AFNE01.JPG,AFNE01.JPG,AFNE01.JPG,AFNE01.JPG,4,7,47,4,,,,,,,,,,,,,,,,,,,,,,,AFNE07.jpg,AFSA07.jpg,AFSA05.jpg,AFNE02.jpg,AFNE02.jpg,FN,3,num_4,16,num_4,0.850122426054,,,2017_Jul_06_1045,60.0028867546,FEMA4ImagesEEG,001,200853,
AFNE01.JPG,AFNE01.JPG,AFNE01.JPG,AFNE01.JPG,AFNE01.JPG,AFNE01.JPG,4,8,48,9,,,,,,,,,,,,,,,,,,,,,,,AFSA07.jpg,AFNE08.jpg,AFSA17.jpg,AFNE14.jpg,AFSA17.jpg,FS,4,num_2,32,num_6,0.483496365137,,,2017_Jul_06_1045,60.0028867546,FEMA4ImagesEEG,001,200853,
AFNE01.JPG,AFNE01.JPG,AFNE01.JPG,AFNE01.JPG,AFNE01.JPG,AFNE01.JPG,4,9,49,1,,,,,,,,,,,,,,,,,,,,,,,AFNE19.jpg,AFNE15.jpg,AFSA12.jpg,AFSA10.jpg,AFSA10.jpg,FS,4,num_4,32,num_8,0.350146802375,,,2017_Jul_06_1045,60.0028867546,FEMA4ImagesEEG,001,200853,
AFNE01.JPG,AFNE01.JPG,AFNE01.JPG,AFNE01.JPG,AFNE01.JPG,AFNE01.JPG,5,0,50,4,,,,,,,,,,,,,,,,,,,,,,,AFNE14.jpg,AFNE10.jpg,AFSA18.jpg,AFSA02.jpg,AFSA02.jpg,FS,4,num_4,32,num_2,0.983432217268,,,2017_Jul_06_1045,60.0028867546,FEMA4ImagesEEG,001,200853,
AFNE01.JPG,AFNE01.JPG,AFNE01.JPG,AFNE01.JPG,AFNE01.JPG,AFNE01.JPG,5,1,51,2,,,,,,,,,,,,,,,,,,,,,,,AFSA03.jpg,AFSA12.jpg,AFNE18.jpg,AFNE02.jpg,AFSA12.jpg,FS,4,num_6,16,num_6,0.433560801554,,,2017_Jul_06_1045,60.0028867546,FEMA4ImagesEEG,001,200853,
AFNE01.JPG,AFNE01.JPG,AFNE01.JPG,AFNE01.JPG,AFNE01.JPG,AFNE01.JPG,5,2,52,0,,,,,,,,,,,,,,,,,,,,,,,AFSA03.jpg,AFNE19.jpg,AFNE06.jpg,AFSA08.jpg,AFSA03.jpg,FS,4,num_8,32,num_4,0.733087262255,,,2017_Jul_06_1045,60.0028867546,FEMA4ImagesEEG,001,200853,
AFNE01.JPG,AFNE01.JPG,AFNE01.JPG,AFNE01.JPG,AFNE01.JPG,AFNE01.JPG,5,3,53,1,,,,,,,,,,,,,,,,,,,,,,,AFNE07.jpg,AFSA07.jpg,AFNE15.jpg,AFSA09.jpg,AFSA09.jpg,FS,4,num_4,32,num_8,0.516766320332,,,2017_Jul_06_1045,60.0028867546,FEMA4ImagesEEG,001,200853,
AFNE01.JPG,AFNE01.JPG,AFNE01.JPG,AFNE01.JPG,AFNE01.JPG,AFNE01.JPG,5,4,54,8,,,,,,,,,,,,,,,,,,,,,,,AFSA02.jpg,AFNE20.jpg,AFNE11.jpg,AFSA14.jpg,AFSA14.jpg,FS,4,num_4,32,num_2,0.50015299255,,,2017_Jul_06_1045,60.0028867546,FEMA4ImagesEEG,001,200853,
AFNE01.JPG,AFNE01.JPG,AFNE01.JPG,AFNE01.JPG,AFNE01.JPG,AFNE01.JPG,5,5,55,7,,,,,,,,,,,,,,,,,,,,,,,AFSA09.jpg,AFNE15.jpg,AFSA16.jpg,AFNE05.jpg,AFNE15.jpg,FN,3,num_6,16,num_6,0.783443956287,,,2017_Jul_06_1045,60.0028867546,FEMA4ImagesEEG,001,200853,
AFNE01.JPG,AFNE01.JPG,AFNE01.JPG,AFNE01.JPG,AFNE01.JPG,AFNE01.JPG,5,6,56,3,,,,,,,,,,,,,,,,,,,,,,,AFSA15.jpg,AFSA13.jpg,AFNE05.jpg,AFNE18.jpg,AFSA15.jpg,FS,4,num_8,32,num_4,0.483507270226,,,2017_Jul_06_1045,60.0028867546,FEMA4ImagesEEG,001,200853,
AFNE01.JPG,AFNE01.JPG,AFNE01.JPG,AFNE01.JPG,AFNE01.JPG,AFNE01.JPG,5,7,57,6,,,,,,,,,,,,,,,,,,,,,,,AFNE07.jpg,AFSA10.jpg,AFNE18.jpg,AFSA18.jpg,AFSA18.jpg,FS,4,num_4,32,num_6,0.316837396123,,,2017_Jul_06_1045,60.0028867546,FEMA4ImagesEEG,001,200853,
AFNE01.JPG,AFNE01.JPG,AFNE01.JPG,AFNE01.JPG,AFNE01.JPG,AFNE01.JPG,5,8,58,5,,,,,,,,,,,,,,,,,,,,,,,AFNE01.jpg,AFNE08.jpg,AFSA09.jpg,AFSA12.jpg,AFSA09.jpg,FS,4,num_2,32,num_6,0.583442865871,,,2017_Jul_06_1045,60.0028867546,FEMA4ImagesEEG,001,200853,
AFNE01.JPG,AFNE01.JPG,AFNE01.JPG,AFNE01.JPG,AFNE01.JPG,AFNE01.JPG,5,9,59,9,,,,,,,,,,,,,,,,,,,,,,,AFNE02.jpg,AFSA18.jpg,AFSA20.jpg,AFNE12.jpg,AFNE02.jpg,FN,3,num_8,48,None,,,,2017_Jul_06_1045,60.0028867546,FEMA4ImagesEEG,001,200853,
,,,,,,,,,,,,,,,,,,,,,,,,,,,,,,,,,,,,,,,,,,,space,5.21645148273,2017_Jul_06_1045,60.0028867546,FEMA4ImagesEEG,001,200853,
AFNE01.JPG,AFNE01.JPG,AFNE01.JPG,AFNE01.JPG,AFNE01.JPG,AFNE01.JPG,,,,,0,0,0,3,,,,,,,,,,,,,,,,,,,AMSA03.jpg,AMNE03.jpg,AMSA05.jpg,AMNE11.jpg,AMSA05.jpg,MS,2,num_2,32,num_4,0.516782357357,,,2017_Jul_06_1045,60.0028867546,FEMA4ImagesEEG,001,200853,
AFNE01.JPG,AFNE01.JPG,AFNE01.JPG,AFNE01.JPG,AFNE01.JPG,AFNE01.JPG,,,,,0,1,1,7,,,,,,,,,,,,,,,,,,,AMSA01.jpg,AMSA16.jpg,AMNE18.jpg,AMNE19.jpg,AMNE19.jpg,MN,1,num_4,32,num_8,0.933440203662,,,2017_Jul_06_1045,60.0028867546,FEMA4ImagesEEG,001,200853,
AFNE01.JPG,AFNE01.JPG,AFNE01.JPG,AFNE01.JPG,AFNE01.JPG,AFNE01.JPG,,,,,0,2,2,5,,,,,,,,,,,,,,,,,,,AMSA07.jpg,AMSA09.jpg,AMNE06.jpg,AMNE01.jpg,AMSA09.jpg,MS,2,num_6,16,num_6,0.566807727679,,,2017_Jul_06_1045,60.0028867546,FEMA4ImagesEEG,001,200853,
AFNE01.JPG,AFNE01.JPG,AFNE01.JPG,AFNE01.JPG,AFNE01.JPG,AFNE01.JPG,,,,,0,3,3,8,,,,,,,,,,,,,,,,,,,AMSA05.jpg,AMNE12.jpg,AMSA18.jpg,AMNE05.jpg,AMNE12.jpg,MN,1,num_6,32,num_8,0.466785211815,,,2017_Jul_06_1045,60.0028867546,FEMA4ImagesEEG,001,200853,
AFNE01.JPG,AFNE01.JPG,AFNE01.JPG,AFNE01.JPG,AFNE01.JPG,AFNE01.JPG,,,,,0,4,4,0,,,,,,,,,,,,,,,,,,,AMSA07.jpg,AMNE01.jpg,AMSA12.jpg,AMNE02.jpg,AMSA12.jpg,MS,2,num_2,16,num_2,0.63347240584,,,2017_Jul_06_1045,60.0028867546,FEMA4ImagesEEG,001,200853,
AFNE01.JPG,AFNE01.JPG,AFNE01.JPG,AFNE01.JPG,AFNE01.JPG,AFNE01.JPG,,,,,0,5,5,6,,,,,,,,,,,,,,,,,,,AMNE08.jpg,AMNE17.jpg,AMSA09.jpg,AMSA19.jpg,AMNE17.jpg,MN,1,num_6,32,num_4,0.35014102899,,,2017_Jul_06_1045,60.0028867546,FEMA4ImagesEEG,001,200853,
AFNE01.JPG,AFNE01.JPG,AFNE01.JPG,AFNE01.JPG,AFNE01.JPG,AFNE01.JPG,,,,,0,6,6,2,,,,,,,,,,,,,,,,,,,AMSA17.jpg,AMNE11.jpg,AMSA07.jpg,AMNE06.jpg,AMSA07.jpg,MS,2,num_2,32,num_6,3.08298068063,,,2017_Jul_06_1045,60.0028867546,FEMA4ImagesEEG,001,200853,
AFNE01.JPG,AFNE01.JPG,AFNE01.JPG,AFNE01.JPG,AFNE01.JPG,AFNE01.JPG,,,,,0,7,7,1,,,,,,,,,,,,,,,,,,,AMNE07.jpg,AMSA19.jpg,AMSA02.jpg,AMNE15.jpg,AMNE07.jpg,MN,1,num_8,16,num_8,0.283515160438,,,2017_Jul_06_1045,60.0028867546,FEMA4ImagesEEG,001,200853,
AFNE01.JPG,AFNE01.JPG,AFNE01.JPG,AFNE01.JPG,AFNE01.JPG,AFNE01.JPG,,,,,0,8,8,4,,,,,,,,,,,,,,,,,,,AMNE08.jpg,AMSA09.jpg,AMSA08.jpg,AMNE09.jpg,AMSA09.jpg,MS,2,num_6,32,num_2,0.350027166656,,,2017_Jul_06_1045,60.0028867546,FEMA4ImagesEEG,001,200853,
AFNE01.JPG,AFNE01.JPG,AFNE01.JPG,AFNE01.JPG,AFNE01.JPG,AFNE01.JPG,,,,,0,9,9,9,,,,,,,,,,,,,,,,,,,AMNE03.jpg,AMSA16.jpg,AMNE12.jpg,AMSA09.jpg,AMSA16.jpg,MS,2,num_6,32,num_4,0.300236898009,,,2017_Jul_06_1045,60.0028867546,FEMA4ImagesEEG,001,200853,
AFNE01.JPG,AFNE01.JPG,AFNE01.JPG,AFNE01.JPG,AFNE01.JPG,AFNE01.JPG,,,,,1,0,10,3,,,,,,,,,,,,,,,,,,,AMNE04.jpg,AMNE16.jpg,AMSA05.jpg,AMSA16.jpg,AMNE04.jpg,MN,1,num_8,16,num_8,0.100186092895,,,2017_Jul_06_1045,60.0028867546,FEMA4ImagesEEG,001,200853,
AFNE01.JPG,AFNE01.JPG,AFNE01.JPG,AFNE01.JPG,AFNE01.JPG,AFNE01.JPG,,,,,1,1,11,6,,,,,,,,,,,,,,,,,,,AMNE11.jpg,AMSA20.jpg,AMSA12.jpg,AMNE06.jpg,AMSA12.jpg,MS,2,num_2,32,num_6,0.716773825581,,,2017_Jul_06_1045,60.0028867546,FEMA4ImagesEEG,001,200853,
AFNE01.JPG,AFNE01.JPG,AFNE01.JPG,AFNE01.JPG,AFNE01.JPG,AFNE01.JPG,,,,,1,2,12,7,,,,,,,,,,,,,,,,,,,AMNE12.jpg,AMSA08.jpg,AMNE19.jpg,AMSA09.jpg,AMSA08.jpg,MS,2,num_6,32,num_8,0.45014686638,,,2017_Jul_06_1045,60.0028867546,FEMA4ImagesEEG,001,200853,
AFNE01.JPG,AFNE01.JPG,AFNE01.JPG,AFNE01.JPG,AFNE01.JPG,AFNE01.JPG,,,,,1,3,13,0,,,,,,,,,,,,,,,,,,,AMSA10.jpg,AMNE07.jpg,AMNE13.jpg,AMSA15.jpg,AMNE07.jpg,MN,1,num_6,32,num_2,0.516776263248,,,2017_Jul_06_1045,60.0028867546,FEMA4ImagesEEG,001,200853,
AFNE01.JPG,AFNE01.JPG,AFNE01.JPG,AFNE01.JPG,AFNE01.JPG,AFNE01.JPG,,,,,1,4,14,8,,,,,,,,,,,,,,,,,,,AMSA09.jpg,AMNE04.jpg,AMSA04.jpg,AMNE05.jpg,AMNE05.jpg,MN,1,num_4,16,num_4,0.783458389458,,,2017_Jul_06_1045,60.0028867546,FEMA4ImagesEEG,001,200853,
AFNE01.JPG,AFNE01.JPG,AFNE01.JPG,AFNE01.JPG,AFNE01.JPG,AFNE01.JPG,,,,,1,5,15,2,,,,,,,,,,,,,,,,,,,AMSA14.jpg,AMSA01.jpg,AMNE06.jpg,AMNE07.jpg,AMSA01.jpg,MS,2,num_6,16,num_6,0.800134582096,,,2017_Jul_06_1045,60.0028867546,FEMA4ImagesEEG,001,200853,
AFNE01.JPG,AFNE01.JPG,AFNE01.JPG,AFNE01.JPG,AFNE01.JPG,AFNE01.JPG,,,,,1,6,16,9,,,,,,,,,,,,,,,,,,,AMNE08.jpg,AMNE16.jpg,AMSA09.jpg,AMSA10.jpg,AMNE16.jpg,MN,1,num_6,32,num_4,1.15009599726,,,2017_Jul_06_1045,60.0028867546,FEMA4ImagesEEG,001,200853,
AFNE01.JPG,AFNE01.JPG,AFNE01.JPG,AFNE01.JPG,AFNE01.JPG,AFNE01.JPG,,,,,1,7,17,4,,,,,,,,,,,,,,,,,,,AMNE04.jpg,AMNE10.jpg,AMSA13.jpg,AMSA03.jpg,AMNE10.jpg,MN,1,num_6,32,num_4,0.950101642287,,,2017_Jul_06_1045,60.0028867546,FEMA4ImagesEEG,001,200853,
AFNE01.JPG,AFNE01.JPG,AFNE01.JPG,AFNE01.JPG,AFNE01.JPG,AFNE01.JPG,,,,,1,8,18,1,,,,,,,,,,,,,,,,,,,AMSA14.jpg,AMSA15.jpg,AMNE13.jpg,AMNE11.jpg,AMSA15.jpg,MS,2,num_6,16,num_6,0.500180576113,,,2017_Jul_06_1045,60.0028867546,FEMA4ImagesEEG,001,200853,
AFNE01.JPG,AFNE01.JPG,AFNE01.JPG,AFNE01.JPG,AFNE01.JPG,AFNE01.JPG,,,,,1,9,19,5,,,,,,,,,,,,,,,,,,,AMSA18.jpg,AMNE17.jpg,AMNE15.jpg,AMSA01.jpg,AMNE17.jpg,MN,1,num_6,32,num_4,0.833473496372,,,2017_Jul_06_1045,60.0028867546,FEMA4ImagesEEG,001,200853,
AFNE01.JPG,AFNE01.JPG,AFNE01.JPG,AFNE01.JPG,AFNE01.JPG,AFNE01.JPG,,,,,2,0,20,2,,,,,,,,,,,,,,,,,,,AMNE09.jpg,AMSA13.jpg,AMSA18.jpg,AMNE06.jpg,AMSA18.jpg,MS,2,num_2,32,num_8,0.350251363358,,,2017_Jul_06_1045,60.0028867546,FEMA4ImagesEEG,001,200853,
AFNE01.JPG,AFNE01.JPG,AFNE01.JPG,AFNE01.JPG,AFNE01.JPG,AFNE01.JPG,,,,,2,1,21,0,,,,,,,,,,,,,,,,,,,AMSA04.jpg,AMSA13.jpg,AMNE19.jpg,AMNE10.jpg,AMNE19.jpg,MN,1,num_2,32,num_6,0.500049714581,,,2017_Jul_06_1045,60.0028867546,FEMA4ImagesEEG,001,200853,
AFNE01.JPG,AFNE01.JPG,AFNE01.JPG,AFNE01.JPG,AFNE01.JPG,AFNE01.JPG,,,,,2,2,22,6,,,,,,,,,,,,,,,,,,,AMSA04.jpg,AMSA14.jpg,AMNE05.jpg,AMNE15.jpg,AMNE15.jpg,MN,1,num_4,16,num_4,0.683524076943,,,2017_Jul_06_1045,60.0028867546,FEMA4ImagesEEG,001,200853,
AFNE01.JPG,AFNE01.JPG,AFNE01.JPG,AFNE01.JPG,AFNE01.JPG,AFNE01.JPG,,,,,2,3,23,4,,,,,,,,,,,,,,,,,,,AMNE17.jpg,AMSA04.jpg,AMSA06.jpg,AMNE18.jpg,AMSA06.jpg,MS,2,num_2,32,num_4,0.866777770687,,,2017_Jul_06_1045,60.0028867546,FEMA4ImagesEEG,001,200853,
AFNE01.JPG,AFNE01.JPG,AFNE01.JPG,AFNE01.JPG,AFNE01.JPG,AFNE01.JPG,,,,,2,4,24,9,,,,,,,,,,,,,,,,,,,AMSA07.jpg,AMNE06.jpg,AMNE09.jpg,AMSA09.jpg,AMSA07.jpg,MS,2,num_8,16,num_8,0.400309128454,,,2017_Jul_06_1045,60.0028867546,FEMA4ImagesEEG,001,200853,
AFNE01.JPG,AFNE01.JPG,AFNE01.JPG,AFNE01.JPG,AFNE01.JPG,AFNE01.JPG,,,,,2,5,25,1,,,,,,,,,,,,,,,,,,,AMNE17.jpg,AMSA01.jpg,AMNE04.jpg,AMSA12.jpg,AMNE17.jpg,MN,1,num_8,32,num_6,0.516799997888,,,2017_Jul_06_1045,60.0028867546,FEMA4ImagesEEG,001,200853,
AFNE01.JPG,AFNE01.JPG,AFNE01.JPG,AFNE01.JPG,AFNE01.JPG,AFNE01.JPG,,,,,2,6,26,3,,,,,,,,,,,,,,,,,,,AMSA10.jpg,AMNE14.jpg,AMSA09.jpg,AMNE11.jpg,AMSA10.jpg,MS,2,num_8,32,num_4,0.433495691512,,,2017_Jul_06_1045,60.0028867546,FEMA4ImagesEEG,001,200853,
AFNE01.JPG,AFNE01.JPG,AFNE01.JPG,AFNE01.JPG,AFNE01.JPG,AFNE01.JPG,,,,,2,7,27,7,,,,,,,,,,,,,,,,,,,AMSA07.jpg,AMSA15.jpg,AMNE06.jpg,AMNE09.jpg,AMSA07.jpg,MS,2,num_8,32,num_2,0.76680208277,,,2017_Jul_06_1045,60.0028867546,FEMA4ImagesEEG,001,200853,
AFNE01.JPG,AFNE01.JPG,AFNE01.JPG,AFNE01.JPG,AFNE01.JPG,AFNE01.JPG,,,,,2,8,28,5,,,,,,,,,,,,,,,,,,,AMNE18.jpg,AMSA12.jpg,AMSA17.jpg,AMNE17.jpg,AMNE17.jpg,MN,1,num_4,32,num_8,0.383533827378,,,2017_Jul_06_1045,60.0028867546,FEMA4ImagesEEG,001,200853,
AFNE01.JPG,AFNE01.JPG,AFNE01.JPG,AFNE01.JPG,AFNE01.JPG,AFNE01.JPG,,,,,2,9,29,8,,,,,,,,,,,,,,,,,,,AMSA11.jpg,AMSA06.jpg,AMNE04.jpg,AMNE07.jpg,AMNE07.jpg,MN,1,num_4,16,num_4,0.333510060678,,,2017_Jul_06_1045,60.0028867546,FEMA4ImagesEEG,001,200853,
AFNE01.JPG,AFNE01.JPG,AFNE01.JPG,AFNE01.JPG,AFNE01.JPG,AFNE01.JPG,,,,,3,0,30,4,,,,,,,,,,,,,,,,,,,AMSA10.jpg,AMSA17.jpg,AMNE18.jpg,AMNE17.jpg,AMNE17.jpg,MN,1,num_4,32,num_6,0.366834862274,,,2017_Jul_06_1045,60.0028867546,FEMA4ImagesEEG,001,200853,
AFNE01.JPG,AFNE01.JPG,AFNE01.JPG,AFNE01.JPG,AFNE01.JPG,AFNE01.JPG,,,,,3,1,31,8,,,,,,,,,,,,,,,,,,,AMSA04.jpg,AMNE12.jpg,AMNE13.jpg,AMSA06.jpg,AMSA06.jpg,MS,2,num_4,32,num_2,0.316819434753,,,2017_Jul_06_1045,60.0028867546,FEMA4ImagesEEG,001,200853,
AFNE01.JPG,AFNE01.JPG,AFNE01.JPG,AFNE01.JPG,AFNE01.JPG,AFNE01.JPG,,,,,3,2,32,5,,,,,,,,,,,,,,,,,,,AMSA02.jpg,AMNE11.jpg,AMSA18.jpg,AMNE10.jpg,AMNE11.jpg,MN,1,num_6,32,num_4,0.500136634801,,,2017_Jul_06_1045,60.0028867546,FEMA4ImagesEEG,001,200853,
AFNE01.JPG,AFNE01.JPG,AFNE01.JPG,AFNE01.JPG,AFNE01.JPG,AFNE01.JPG,,,,,3,3,33,7,,,,,,,,,,,,,,,,,,,AMSA07.jpg,AMSA18.jpg,AMNE15.jpg,AMNE01.jpg,AMSA07.jpg,MS,2,num_8,16,num_8,0.533479718724,,,2017_Jul_06_1045,60.0028867546,FEMA4ImagesEEG,001,200853,
AFNE01.JPG,AFNE01.JPG,AFNE01.JPG,AFNE01.JPG,AFNE01.JPG,AFNE01.JPG,,,,,3,4,34,2,,,,,,,,,,,,,,,,,,,AMSA13.jpg,AMNE05.jpg,AMNE17.jpg,AMSA03.jpg,AMNE17.jpg,MN,1,num_2,16,num_2,0.350576272118,,,2017_Jul_06_1045,60.0028867546,FEMA4ImagesEEG,001,200853,
AFNE01.JPG,AFNE01.JPG,AFNE01.JPG,AFNE01.JPG,AFNE01.JPG,AFNE01.JPG,,,,,3,5,35,6,,,,,,,,,,,,,,,,,,,AMSA20.jpg,AMSA16.jpg,AMNE18.jpg,AMNE12.jpg,AMSA16.jpg,MS,2,num_6,16,num_6,0.300205465523,,,2017_Jul_06_1045,60.0028867546,FEMA4ImagesEEG,001,200853,
AFNE01.JPG,AFNE01.JPG,AFNE01.JPG,AFNE01.JPG,AFNE01.JPG,AFNE01.JPG,,,,,3,6,36,9,,,,,,,,,,,,,,,,,,,AMNE01.jpg,AMSA10.jpg,AMNE05.jpg,AMSA03.jpg,AMNE05.jpg,MN,1,num_2,32,num_8,0.450149753131,,,2017_Jul_06_1045,60.0028867546,FEMA4ImagesEEG,001,200853,
AFNE01.JPG,AFNE01.JPG,AFNE01.JPG,AFNE01.JPG,AFNE01.JPG,AFNE01.JPG,,,,,3,7,37,3,,,,,,,,,,,,,,,,,,,AMSA18.jpg,AMNE18.jpg,AMNE02.jpg,AMSA15.jpg,AMSA15.jpg,MS,2,num_4,16,num_4,0.416809555958,,,2017_Jul_06_1045,60.0028867546,FEMA4ImagesEEG,001,200853,
AFNE01.JPG,AFNE01.JPG,AFNE01.JPG,AFNE01.JPG,AFNE01.JPG,AFNE01.JPG,,,,,3,8,38,1,,,,,,,,,,,,,,,,,,,AMSA17.jpg,AMNE09.jpg,AMSA01.jpg,AMNE05.jpg,AMNE05.jpg,MN,1,num_4,32,num_6,0.566782389418,,,2017_Jul_06_1045,60.0028867546,FEMA4ImagesEEG,001,200853,
AFNE01.JPG,AFNE01.JPG,AFNE01.JPG,AFNE01.JPG,AFNE01.JPG,AFNE01.JPG,,,,,3,9,39,0,,,,,,,,,,,,,,,,,,,AMNE10.jpg,AMNE18.jpg,AMSA20.jpg,AMSA06.jpg,AMNE10.jpg,MN,1,num_8,32,num_4,0.900084931753,,,2017_Jul_06_1045,60.0028867546,FEMA4ImagesEEG,001,200853,
AFNE01.JPG,AFNE01.JPG,AFNE01.JPG,AFNE01.JPG,AFNE01.JPG,AFNE01.JPG,,,,,4,0,40,8,,,,,,,,,,,,,,,,,,,AMNE18.jpg,AMSA12.jpg,AMSA09.jpg,AMNE17.jpg,AMSA12.jpg,MS,2,num_6,16,num_6,1.13346823631,,,2017_Jul_06_1045,60.0028867546,FEMA4ImagesEEG,001,200853,
AFNE01.JPG,AFNE01.JPG,AFNE01.JPG,AFNE01.JPG,AFNE01.JPG,AFNE01.JPG,,,,,4,1,41,4,,,,,,,,,,,,,,,,,,,AMNE17.jpg,AMNE01.jpg,AMSA13.jpg,AMSA07.jpg,AMSA13.jpg,MS,2,num_2,32,num_4,0.683460570523,,,2017_Jul_06_1045,60.0028867546,FEMA4ImagesEEG,001,200853,
AFNE01.JPG,AFNE01.JPG,AFNE01.JPG,AFNE01.JPG,AFNE01.JPG,AFNE01.JPG,,,,,4,2,42,3,,,,,,,,,,,,,,,,,,,AMSA17.jpg,AMNE14.jpg,AMSA09.jpg,AMNE18.jpg,AMNE14.jpg,MN,1,num_6,16,num_6,0.383512337925,,,2017_Jul_06_1045,60.0028867546,FEMA4ImagesEEG,001,200853,
AFNE01.JPG,AFNE01.JPG,AFNE01.JPG,AFNE01.JPG,AFNE01.JPG,AFNE01.JPG,,,,,4,3,43,2,,,,,,,,,,,,,,,,,,,AMSA05.jpg,AMNE16.jpg,AMNE02.jpg,AMSA07.jpg,AMSA05.jpg,MS,2,num_8,32,num_2,0.48349219549,,,2017_Jul_06_1045,60.0028867546,FEMA4ImagesEEG,001,200853,
AFNE01.JPG,AFNE01.JPG,AFNE01.JPG,AFNE01.JPG,AFNE01.JPG,AFNE01.JPG,,,,,4,4,44,9,,,,,,,,,,,,,,,,,,,AMSA06.jpg,AMNE05.jpg,AMNE01.jpg,AMSA09.jpg,AMSA09.jpg,MS,2,num_4,16,num_4,0.666805226007,,,2017_Jul_06_1045,60.0028867546,FEMA4ImagesEEG,001,200853,
AFNE01.JPG,AFNE01.JPG,AFNE01.JPG,AFNE01.JPG,AFNE01.JPG,AFNE01.JPG,,,,,4,5,45,1,,,,,,,,,,,,,,,,,,,AMNE11.jpg,AMNE05.jpg,AMSA19.jpg,AMSA08.jpg,AMNE05.jpg,MN,1,num_6,32,num_8,0.433485107147,,,2017_Jul_06_1045,60.0028867546,FEMA4ImagesEEG,001,200853,
AFNE01.JPG,AFNE01.JPG,AFNE01.JPG,AFNE01.JPG,AFNE01.JPG,AFNE01.JPG,,,,,4,6,46,0,,,,,,,,,,,,,,,,,,,AMSA08.jpg,AMSA04.jpg,AMNE01.jpg,AMNE15.jpg,AMSA08.jpg,MS,2,num_8,32,num_6,0.483475837857,,,2017_Jul_06_1045,60.0028867546,FEMA4ImagesEEG,001,200853,
AFNE01.JPG,AFNE01.JPG,AFNE01.JPG,AFNE01.JPG,AFNE01.JPG,AFNE01.JPG,,,,,4,7,47,5,,,,,,,,,,,,,,,,,,,AMNE10.jpg,AMNE13.jpg,AMSA10.jpg,AMSA08.jpg,AMSA10.jpg,MS,2,num_2,32,num_8,0.283571931184,,,2017_Jul_06_1045,60.0028867546,FEMA4ImagesEEG,001,200853,
AFNE01.JPG,AFNE01.JPG,AFNE01.JPG,AFNE01.JPG,AFNE01.JPG,AFNE01.JPG,,,,,4,8,48,6,,,,,,,,,,,,,,,,,,,AMSA01.jpg,AMNE01.jpg,AMNE12.jpg,AMSA17.jpg,AMNE01.jpg,MN,1,num_6,32,num_8,0.450082077179,,,2017_Jul_06_1045,60.0028867546,FEMA4ImagesEEG,001,200853,
AFNE01.JPG,AFNE01.JPG,AFNE01.JPG,AFNE01.JPG,AFNE01.JPG,AFNE01.JPG,,,,,4,9,49,7,,,,,,,,,,,,,,,,,,,AMSA14.jpg,AMNE06.jpg,AMSA01.jpg,AMNE09.jpg,AMSA14.jpg,MS,2,num_8,32,num_2,0.316769399447,,,2017_Jul_06_1045,60.0028867546,FEMA4ImagesEEG,001,200853,
AFNE01.JPG,AFNE01.JPG,AFNE01.JPG,AFNE01.JPG,AFNE01.JPG,AFNE01.JPG,,,,,5,0,50,5,,,,,,,,,,,,,,,,,,,AMSA03.jpg,AMSA01.jpg,AMNE04.jpg,AMNE11.jpg,AMNE04.jpg,MN,1,num_2,32,num_4,0.316830660682,,,2017_Jul_06_1045,60.0028867546,FEMA4ImagesEEG,001,200853,
AFNE01.JPG,AFNE01.JPG,AFNE01.JPG,AFNE01.JPG,AFNE01.JPG,AFNE01.JPG,,,,,5,1,51,7,,,,,,,,,,,,,,,,,,,AMSA16.jpg,AMSA15.jpg,AMNE12.jpg,AMNE14.jpg,AMNE14.jpg,MN,1,num_4,16,num_4,0.450202995911,,,2017_Jul_06_1045,60.0028867546,FEMA4ImagesEEG,001,200853,
AFNE01.JPG,AFNE01.JPG,AFNE01.JPG,AFNE01.JPG,AFNE01.JPG,AFNE01.JPG,,,,,5,2,52,0,,,,,,,,,,,,,,,,,,,AMSA04.jpg,AMSA07.jpg,AMNE06.jpg,AMNE20.jpg,AMSA07.jpg,MS,2,num_6,32,num_2,1.13344161492,,,2017_Jul_06_1045,60.0028867546,FEMA4ImagesEEG,001,200853,
AFNE01.JPG,AFNE01.JPG,AFNE01.JPG,AFNE01.JPG,AFNE01.JPG,AFNE01.JPG,,,,,5,3,53,3,,,,,,,,,,,,,,,,,,,AMSA15.jpg,AMSA05.jpg,AMNE01.jpg,AMNE06.jpg,AMSA15.jpg,MS,2,num_8,32,num_6,0.666834413307,,,2017_Jul_06_1045,60.0028867546,FEMA4ImagesEEG,001,200853,
AFNE01.JPG,AFNE01.JPG,AFNE01.JPG,AFNE01.JPG,AFNE01.JPG,AFNE01.JPG,,,,,5,4,54,9,,,,,,,,,,,,,,,,,,,AMNE11.jpg,AMSA13.jpg,AMSA09.jpg,AMNE16.jpg,AMSA13.jpg,MS,2,num_6,32,num_8,1.3167312314,,,2017_Jul_06_1045,60.0028867546,FEMA4ImagesEEG,001,200853,
AFNE01.JPG,AFNE01.JPG,AFNE01.JPG,AFNE01.JPG,AFNE01.JPG,AFNE01.JPG,,,,,5,5,55,8,,,,,,,,,,,,,,,,,,,AMNE11.jpg,AMNE17.jpg,AMSA14.jpg,AMSA07.jpg,AMSA14.jpg,MS,2,num_2,16,num_2,0.516845542938,,,2017_Jul_06_1045,60.0028867546,FEMA4ImagesEEG,001,200853,
AFNE01.JPG,AFNE01.JPG,AFNE01.JPG,AFNE01.JPG,AFNE01.JPG,AFNE01.JPG,,,,,5,6,56,4,,,,,,,,,,,,,,,,,,,AMSA02.jpg,AMSA11.jpg,AMNE03.jpg,AMNE14.jpg,AMNE14.jpg,MN,1,num_4,32,num_2,0.466798362206,,,2017_Jul_06_1045,60.0028867546,FEMA4ImagesEEG,001,200853,
AFNE01.JPG,AFNE01.JPG,AFNE01.JPG,AFNE01.JPG,AFNE01.JPG,AFNE01.JPG,,,,,5,7,57,6,,,,,,,,,,,,,,,,,,,AMNE14.jpg,AMSA19.jpg,AMSA04.jpg,AMNE19.jpg,AMSA04.jpg,MS,2,num_2,32,num_6,0.783494633157,,,2017_Jul_06_1045,60.0028867546,FEMA4ImagesEEG,001,200853,
AFNE01.JPG,AFNE01.JPG,AFNE01.JPG,AFNE01.JPG,AFNE01.JPG,AFNE01.JPG,,,,,5,8,58,2,,,,,,,,,,,,,,,,,,,AMNE01.jpg,AMNE11.jpg,AMSA20.jpg,AMSA07.jpg,AMSA20.jpg,MS,2,num_2,32,num_6,0.883478660253,,,2017_Jul_06_1045,60.0028867546,FEMA4ImagesEEG,001,200853,
AFNE01.JPG,AFNE01.JPG,AFNE01.JPG,AFNE01.JPG,AFNE01.JPG,AFNE01.JPG,,,,,5,9,59,1,,,,,,,,,,,,,,,,,,,AMSA03.jpg,AMSA15.jpg,AMNE11.jpg,AMNE04.jpg,AMNE11.jpg,MN,1,num_2,32,num_6,0.366790600354,,,2017_Jul_06_1045,60.0028867546,FEMA4ImagesEEG,001,200853,
,,,,,,,,,,,,,,,,,,,,,,,,,,,,,,,,,,,,,,,,,,,space,3.29994310089,2017_Jul_06_1045,60.0028867546,FEMA4ImagesEEG,001,200853,
AFNE01.JPG,AFNE01.JPG,AFNE01.JPG,AFNE01.JPG,AFNE01.JPG,AFNE01.JPG,,,,,,,,,0,0,0,4,,,,,,,,,,,,,,,AFSA06.jpg,AFNE08.jpg,AFSA20.jpg,AFNE12.jpg,AFSA20.jpg,FS,4,num_2,32,num_6,0.283572251908,,,2017_Jul_06_1045,60.0028867546,FEMA4ImagesEEG,001,200853,
AFNE01.JPG,AFNE01.JPG,AFNE01.JPG,AFNE01.JPG,AFNE01.JPG,AFNE01.JPG,,,,,,,,,0,1,1,5,,,,,,,,,,,,,,,AFSA06.jpg,AFNE08.jpg,AFSA04.jpg,AFNE13.jpg,AFSA06.jpg,FS,4,num_8,16,num_8,0.283500406425,,,2017_Jul_06_1045,60.0028867546,FEMA4ImagesEEG,001,200853,
AFNE01.JPG,AFNE01.JPG,AFNE01.JPG,AFNE01.JPG,AFNE01.JPG,AFNE01.JPG,,,,,,,,,0,2,2,6,,,,,,,,,,,,,,,AFSA02.jpg,AFNE12.jpg,AFNE14.jpg,AFSA09.jpg,AFNE12.jpg,FN,3,num_6,32,num_2,0.3005268462,,,2017_Jul_06_1045,60.0028867546,FEMA4ImagesEEG,001,200853,
AFNE01.JPG,AFNE01.JPG,AFNE01.JPG,AFNE01.JPG,AFNE01.JPG,AFNE01.JPG,,,,,,,,,0,3,3,7,,,,,,,,,,,,,,,AFNE04.jpg,AFSA13.jpg,AFNE02.jpg,AFSA20.jpg,AFSA20.jpg,FS,4,num_4,16,num_4,0.316784794908,,,2017_Jul_06_1045,60.0028867546,FEMA4ImagesEEG,001,200853,
AFNE01.JPG,AFNE01.JPG,AFNE01.JPG,AFNE01.JPG,AFNE01.JPG,AFNE01.JPG,,,,,,,,,0,4,4,2,,,,,,,,,,,,,,,AFSA12.jpg,AFNE07.jpg,AFNE05.jpg,AFSA02.jpg,AFNE07.jpg,FN,3,num_6,16,num_6,1.01670762501,,,2017_Jul_06_1045,60.0028867546,FEMA4ImagesEEG,001,200853,
AFNE01.JPG,AFNE01.JPG,AFNE01.JPG,AFNE01.JPG,AFNE01.JPG,AFNE01.JPG,,,,,,,,,0,5,5,0,,,,,,,,,,,,,,,AFSA17.jpg,AFNE14.jpg,AFSA04.jpg,AFNE20.jpg,AFNE14.jpg,FN,3,num_6,32,num_8,0.400169606903,,,2017_Jul_06_1045,60.0028867546,FEMA4ImagesEEG,001,200853,
AFNE01.JPG,AFNE01.JPG,AFNE01.JPG,AFNE01.JPG,AFNE01.JPG,AFNE01.JPG,,,,,,,,,0,6,6,3,,,,,,,,,,,,,,,AFSA08.jpg,AFNE01.jpg,AFSA14.jpg,AFNE08.jpg,AFNE01.jpg,FN,3,num_6,32,num_4,0.383475452894,,,2017_Jul_06_1045,60.0028867546,FEMA4ImagesEEG,001,200853,
AFNE01.JPG,AFNE01.JPG,AFNE01.JPG,AFNE01.JPG,AFNE01.JPG,AFNE01.JPG,,,,,,,,,0,7,7,8,,,,,,,,,,,,,,,AFSA05.jpg,AFNE13.jpg,AFSA18.jpg,AFNE14.jpg,AFSA18.jpg,FS,4,num_2,16,num_2,0.800136506674,,,2017_Jul_06_1045,60.0028867546,FEMA4ImagesEEG,001,200853,
AFNE01.JPG,AFNE01.JPG,AFNE01.JPG,AFNE01.JPG,AFNE01.JPG,AFNE01.JPG,,,,,,,,,0,8,8,1,,,,,,,,,,,,,,,AFSA10.jpg,AFSA08.jpg,AFNE20.jpg,AFNE13.jpg,AFNE13.jpg,FN,3,num_4,32,num_8,0.71680397517,,,2017_Jul_06_1045,60.0028867546,FEMA4ImagesEEG,001,200853,
AFNE01.JPG,AFNE01.JPG,AFNE01.JPG,AFNE01.JPG,AFNE01.JPG,AFNE01.JPG,,,,,,,,,0,9,9,9,,,,,,,,,,,,,,,AFSA04.jpg,AFNE10.jpg,AFNE16.jpg,AFSA12.jpg,AFSA04.jpg,FS,4,num_8,32,num_6,0.450119924382,,,2017_Jul_06_1045,60.0028867546,FEMA4ImagesEEG,001,200853,
AFNE01.JPG,AFNE01.JPG,AFNE01.JPG,AFNE01.JPG,AFNE01.JPG,AFNE01.JPG,,,,,,,,,1,0,10,8,,,,,,,,,,,,,,,AFSA17.jpg,AFSA08.jpg,AFNE07.jpg,AFNE02.jpg,AFNE07.jpg,FN,3,num_2,32,num_8,0.833448157995,,,2017_Jul_06_1045,60.0028867546,FEMA4ImagesEEG,001,200853,
AFNE01.JPG,AFNE01.JPG,AFNE01.JPG,AFNE01.JPG,AFNE01.JPG,AFNE01.JPG,,,,,,,,,1,1,11,6,,,,,,,,,,,,,,,AFNE20.jpg,AFNE10.jpg,AFSA09.jpg,AFSA04.jpg,AFSA04.jpg,FS,4,num_4,32,num_2,1.10013509542,,,2017_Jul_06_1045,60.0028867546,FEMA4ImagesEEG,001,200853,
AFNE01.JPG,AFNE01.JPG,AFNE01.JPG,AFNE01.JPG,AFNE01.JPG,AFNE01.JPG,,,,,,,,,1,2,12,0,,,,,,,,,,,,,,,AFSA18.jpg,AFNE19.jpg,AFNE17.jpg,AFSA12.jpg,AFSA18.jpg,FS,4,num_8,32,num_4,1.23345771595,,,2017_Jul_06_1045,60.0028867546,FEMA4ImagesEEG,001,200853,
AFNE01.JPG,AFNE01.JPG,AFNE01.JPG,AFNE01.JPG,AFNE01.JPG,AFNE01.JPG,,,,,,,,,1,3,13,1,,,,,,,,,,,,,,,AFSA05.jpg,AFNE02.jpg,AFSA04.jpg,AFNE14.jpg,AFSA05.jpg,FS,4,num_8,32,num_2,1.50014754012,,,2017_Jul_06_1045,60.0028867546,FEMA4ImagesEEG,001,200853,
AFNE01.JPG,AFNE01.JPG,AFNE01.JPG,AFNE01.JPG,AFNE01.JPG,AFNE01.JPG,,,,,,,,,1,4,14,2,,,,,,,,,,,,,,,AFSA09.jpg,AFNE06.jpg,AFNE15.jpg,AFSA12.jpg,AFNE06.jpg,FN,3,num_6,32,num_4,0.31664912228,,,2017_Jul_06_1045,60.0028867546,FEMA4ImagesEEG,001,200853,
AFNE01.JPG,AFNE01.JPG,AFNE01.JPG,AFNE01.JPG,AFNE01.JPG,AFNE01.JPG,,,,,,,,,1,5,15,9,,,,,,,,,,,,,,,AFSA09.jpg,AFNE18.jpg,AFNE10.jpg,AFSA17.jpg,AFSA09.jpg,FS,4,num_8,16,num_8,0.716809427715,,,2017_Jul_06_1045,60.0028867546,FEMA4ImagesEEG,001,200853,
AFNE01.JPG,AFNE01.JPG,AFNE01.JPG,AFNE01.JPG,AFNE01.JPG,AFNE01.JPG,,,,,,,,,1,6,16,7,,,,,,,,,,,,,,,AFSA14.jpg,AFNE14.jpg,AFNE13.jpg,AFSA19.jpg,AFSA14.jpg,FS,4,num_8,32,num_6,0.616804873222,,,2017_Jul_06_1045,60.0028867546,FEMA4ImagesEEG,001,200853,
AFNE01.JPG,AFNE01.JPG,AFNE01.JPG,AFNE01.JPG,AFNE01.JPG,AFNE01.JPG,,,,,,,,,1,7,17,3,,,,,,,,,,,,,,,AFSA13.jpg,AFNE02.jpg,AFNE03.jpg,AFSA15.jpg,AFSA13.jpg,FS,4,num_8,16,num_8,0.650125184446,,,2017_Jul_06_1045,60.0028867546,FEMA4ImagesEEG,001,200853,
AFNE01.JPG,AFNE01.JPG,AFNE01.JPG,AFNE01.JPG,AFNE01.JPG,AFNE01.JPG,,,,,,,,,1,8,18,4,,,,,,,,,,,,,,,AFSA05.jpg,AFNE04.jpg,AFNE17.jpg,AFSA17.jpg,AFSA05.jpg,FS,4,num_8,32,num_4,0.399833151489,,,2017_Jul_06_1045,60.0028867546,FEMA4ImagesEEG,001,200853,
AFNE01.JPG,AFNE01.JPG,AFNE01.JPG,AFNE01.JPG,AFNE01.JPG,AFNE01.JPG,,,,,,,,,1,9,19,5,,,,,,,,,,,,,,,AFSA17.jpg,AFNE15.jpg,AFSA12.jpg,AFNE19.jpg,AFSA17.jpg,FS,4,num_8,16,num_8,0.516799677163,,,2017_Jul_06_1045,60.0028867546,FEMA4ImagesEEG,001,200853,
AFNE01.JPG,AFNE01.JPG,AFNE01.JPG,AFNE01.JPG,AFNE01.JPG,AFNE01.JPG,,,,,,,,,2,0,20,4,,,,,,,,,,,,,,,AFNE09.jpg,AFNE05.jpg,AFSA07.jpg,AFSA11.jpg,AFSA11.jpg,FS,4,num_4,32,num_2,0.41680025449,,,2017_Jul_06_1045,60.0028867546,FEMA4ImagesEEG,001,200853,
AFNE01.JPG,AFNE01.JPG,AFNE01.JPG,AFNE01.JPG,AFNE01.JPG,AFNE01.JPG,,,,,,,,,2,1,21,2,,,,,,,,,,,,,,,AFNE07.jpg,AFNE03.jpg,AFSA03.jpg,AFSA06.jpg,AFSA03.jpg,FS,4,num_2,32,num_6,0.516802884638,,,2017_Jul_06_1045,60.0028867546,FEMA4ImagesEEG,001,200853,
AFNE01.JPG,AFNE01.JPG,AFNE01.JPG,AFNE01.JPG,AFNE01.JPG,AFNE01.JPG,,,,,,,,,2,2,22,5,,,,,,,,,,,,,,,AFSA01.jpg,AFNE11.jpg,AFNE01.jpg,AFSA18.jpg,AFNE01.jpg,FN,3,num_2,32,num_4,1.16658167087,,,2017_Jul_06_1045,60.0028867546,FEMA4ImagesEEG,001,200853,
AFNE01.JPG,AFNE01.JPG,AFNE01.JPG,AFNE01.JPG,AFNE01.JPG,AFNE01.JPG,,,,,,,,,2,3,23,9,,,,,,,,,,,,,,,AFNE14.jpg,AFSA08.jpg,AFSA18.jpg,AFNE07.jpg,AFSA18.jpg,FS,4,num_2,32,num_6,0.566817670711,,,2017_Jul_06_1045,60.0028867546,FEMA4ImagesEEG,001,200853,
AFNE01.JPG,AFNE01.JPG,AFNE01.JPG,AFNE01.JPG,AFNE01.JPG,AFNE01.JPG,,,,,,,,,2,4,24,0,,,,,,,,,,,,,,,AFNE08.jpg,AFNE03.jpg,AFSA15.jpg,AFSA10.jpg,AFNE03.jpg,FN,3,num_6,32,num_8,0.883496300899,,,2017_Jul_06_1045,60.0028867546,FEMA4ImagesEEG,001,200853,
AFNE01.JPG,AFNE01.JPG,AFNE01.JPG,AFNE01.JPG,AFNE01.JPG,AFNE01.JPG,,,,,,,,,2,5,25,7,,,,,,,,,,,,,,,AFSA05.jpg,AFSA09.jpg,AFNE13.jpg,AFNE09.jpg,AFNE09.jpg,FN,3,num_4,16,num_4,0.333540210035,,,2017_Jul_06_1045,60.0028867546,FEMA4ImagesEEG,001,200853,
AFNE01.JPG,AFNE01.JPG,AFNE01.JPG,AFNE01.JPG,AFNE01.JPG,AFNE01.JPG,,,,,,,,,2,6,26,6,,,,,,,,,,,,,,,AFSA19.jpg,AFSA09.jpg,AFNE14.jpg,AFNE10.jpg,AFNE10.jpg,FN,3,num_4,16,num_4,0.516879220493,,,2017_Jul_06_1045,60.0028867546,FEMA4ImagesEEG,001,200853,
AFNE01.JPG,AFNE01.JPG,AFNE01.JPG,AFNE01.JPG,AFNE01.JPG,AFNE01.JPG,,,,,,,,,2,7,27,8,,,,,,,,,,,,,,,AFNE07.jpg,AFSA16.jpg,AFSA07.jpg,AFNE01.jpg,AFSA16.jpg,FS,4,num_6,16,num_6,0.41679512267,,,2017_Jul_06_1045,60.0028867546,FEMA4ImagesEEG,001,200853,
AFNE01.JPG,AFNE01.JPG,AFNE01.JPG,AFNE01.JPG,AFNE01.JPG,AFNE01.JPG,,,,,,,,,2,8,28,1,,,,,,,,,,,,,,,AFNE14.jpg,AFSA02.jpg,AFNE05.jpg,AFSA18.jpg,AFSA02.jpg,FS,4,num_6,32,num_4,0.933437958476,,,2017_Jul_06_1045,60.0028867546,FEMA4ImagesEEG,001,200853,
AFNE01.JPG,AFNE01.JPG,AFNE01.JPG,AFNE01.JPG,AFNE01.JPG,AFNE01.JPG,,,,,,,,,2,9,29,3,,,,,,,,,,,,,,,AFSA03.jpg,AFSA05.jpg,AFNE18.jpg,AFNE09.jpg,AFSA03.jpg,FS,4,num_8,16,num_8,0.750213131192,,,2017_Jul_06_1045,60.0028867546,FEMA4ImagesEEG,001,200853,
AFNE01.JPG,AFNE01.JPG,AFNE01.JPG,AFNE01.JPG,AFNE01.JPG,AFNE01.JPG,,,,,,,,,3,0,30,7,,,,,,,,,,,,,,,AFNE15.jpg,AFSA02.jpg,AFNE17.jpg,AFSA06.jpg,AFNE15.jpg,FN,3,num_8,32,num_2,0.533212222275,,,2017_Jul_06_1045,60.0028867546,FEMA4ImagesEEG,001,200853,
AFNE01.JPG,AFNE01.JPG,AFNE01.JPG,AFNE01.JPG,AFNE01.JPG,AFNE01.JPG,,,,,,,,,3,1,31,4,,,,,,,,,,,,,,,AFSA08.jpg,AFSA01.jpg,AFNE05.jpg,AFNE13.jpg,AFSA01.jpg,FS,4,num_6,16,num_6,0.300177240511,,,2017_Jul_06_1045,60.0028867546,FEMA4ImagesEEG,001,200853,
AFNE01.JPG,AFNE01.JPG,AFNE01.JPG,AFNE01.JPG,AFNE01.JPG,AFNE01.JPG,,,,,,,,,3,2,32,6,,,,,,,,,,,,,,,AFSA02.jpg,AFNE02.jpg,AFSA14.jpg,AFNE06.jpg,AFSA02.jpg,FS,4,num_8,32,num_4,0.241735032178,,,2017_Jul_06_1045,60.0028867546,FEMA4ImagesEEG,001,200853,
AFNE01.JPG,AFNE01.JPG,AFNE01.JPG,AFNE01.JPG,AFNE01.JPG,AFNE01.JPG,,,,,,,,,3,3,33,5,,,,,,,,,,,,,,,AFSA09.jpg,AFSA02.jpg,AFNE17.jpg,AFNE19.jpg,AFNE19.jpg,FN,3,num_4,32,num_8,0.333505249466,,,2017_Jul_06_1045,60.0028867546,FEMA4ImagesEEG,001,200853,
AFNE01.JPG,AFNE01.JPG,AFNE01.JPG,AFNE01.JPG,AFNE01.JPG,AFNE01.JPG,,,,,,,,,3,4,34,3,,,,,,,,,,,,,,,AFNE10.jpg,AFSA07.jpg,AFNE19.jpg,AFSA04.jpg,AFSA07.jpg,FS,4,num_6,16,num_6,0.566804199596,,,2017_Jul_06_1045,60.0028867546,FEMA4ImagesEEG,001,200853,
AFNE01.JPG,AFNE01.JPG,AFNE01.JPG,AFNE01.JPG,AFNE01.JPG,AFNE01.JPG,,,,,,,,,3,5,35,1,,,,,,,,,,,,,,,AFSA10.jpg,AFNE19.jpg,AFSA04.jpg,AFNE16.jpg,AFNE16.jpg,FN,3,num_4,16,num_4,0.716781202704,,,2017_Jul_06_1045,60.0028867546,FEMA4ImagesEEG,001,200853,
AFNE01.JPG,AFNE01.JPG,AFNE01.JPG,AFNE01.JPG,AFNE01.JPG,AFNE01.JPG,,,,,,,,,3,6,36,8,,,,,,,,,,,,,,,AFNE16.jpg,AFSA04.jpg,AFSA05.jpg,AFNE18.jpg,AFSA05.jpg,FS,4,num_2,32,num_6,0.566799709341,,,2017_Jul_06_1045,60.0028867546,FEMA4ImagesEEG,001,200853,
AFNE01.JPG,AFNE01.JPG,AFNE01.JPG,AFNE01.JPG,AFNE01.JPG,AFNE01.JPG,,,,,,,,,3,7,37,9,,,,,,,,,,,,,,,AFNE09.jpg,AFSA14.jpg,AFNE17.jpg,AFSA04.jpg,AFNE09.jpg,FN,3,num_8,32,num_2,0.333549511502,,,2017_Jul_06_1045,60.0028867546,FEMA4ImagesEEG,001,200853,
AFNE01.JPG,AFNE01.JPG,AFNE01.JPG,AFNE01.JPG,AFNE01.JPG,AFNE01.JPG,,,,,,,,,3,8,38,0,,,,,,,,,,,,,,,AFNE09.jpg,AFSA09.jpg,AFSA07.jpg,AFNE01.jpg,AFNE01.jpg,FN,3,num_4,32,num_8,0.483484818484,,,2017_Jul_06_1045,60.0028867546,FEMA4ImagesEEG,001,200853,
AFNE01.JPG,AFNE01.JPG,AFNE01.JPG,AFNE01.JPG,AFNE01.JPG,AFNE01.JPG,,,,,,,,,3,9,39,2,,,,,,,,,,,,,,,AFNE19.jpg,AFSA05.jpg,AFNE04.jpg,AFSA01.jpg,AFSA01.jpg,FS,4,num_4,32,num_8,0.433512369869,,,2017_Jul_06_1045,60.0028867546,FEMA4ImagesEEG,001,200853,
AFNE01.JPG,AFNE01.JPG,AFNE01.JPG,AFNE01.JPG,AFNE01.JPG,AFNE01.JPG,,,,,,,,,4,0,40,2,,,,,,,,,,,,,,,AFSA19.jpg,AFNE20.jpg,AFNE05.jpg,AFSA13.jpg,AFSA19.jpg,FS,4,num_8,32,num_2,0.283487576875,,,2017_Jul_06_1045,60.0028867546,FEMA4ImagesEEG,001,200853,
AFNE01.JPG,AFNE01.JPG,AFNE01.JPG,AFNE01.JPG,AFNE01.JPG,AFNE01.JPG,,,,,,,,,4,1,41,6,,,,,,,,,,,,,,,AFNE15.jpg,AFSA06.jpg,AFNE18.jpg,AFSA02.jpg,AFNE15.jpg,FN,3,num_8,32,num_4,0.350141670555,,,2017_Jul_06_1045,60.0028867546,FEMA4ImagesEEG,001,200853,
AFNE01.JPG,AFNE01.JPG,AFNE01.JPG,AFNE01.JPG,AFNE01.JPG,AFNE01.JPG,,,,,,,,,4,2,42,3,,,,,,,,,,,,,,,AFSA14.jpg,AFNE14.jpg,AFNE06.jpg,AFSA03.jpg,AFNE06.jpg,FN,3,num_2,32,num_6,0.316838999861,,,2017_Jul_06_1045,60.0028867546,FEMA4ImagesEEG,001,200853,
AFNE01.JPG,AFNE01.JPG,AFNE01.JPG,AFNE01.JPG,AFNE01.JPG,AFNE01.JPG,,,,,,,,,4,3,43,1,,,,,,,,,,,,,,,AFNE04.jpg,AFSA12.jpg,AFNE20.jpg,AFSA13.jpg,AFSA13.jpg,FS,4,num_4,16,num_4,0.283548517269,,,2017_Jul_06_1045,60.0028867546,FEMA4ImagesEEG,001,200853,
AFNE01.JPG,AFNE01.JPG,AFNE01.JPG,AFNE01.JPG,AFNE01.JPG,AFNE01.JPG,,,,,,,,,4,4,44,0,,,,,,,,,,,,,,,AFSA07.jpg,AFNE11.jpg,AFSA18.jpg,AFNE15.jpg,AFSA18.jpg,FS,4,num_2,32,num_6,0.516864466597,,,2017_Jul_06_1045,60.0028867546,FEMA4ImagesEEG,001,200853,
AFNE01.JPG,AFNE01.JPG,AFNE01.JPG,AFNE01.JPG,AFNE01.JPG,AFNE01.JPG,,,,,,,,,4,5,45,5,,,,,,,,,,,,,,,AFSA01.jpg,AFNE18.jpg,AFNE19.jpg,AFSA02.jpg,AFSA02.jpg,FS,4,num_4,32,num_8,0.383463585516,,,2017_Jul_06_1045,60.0028867546,FEMA4ImagesEEG,001,200853,
AFNE01.JPG,AFNE01.JPG,AFNE01.JPG,AFNE01.JPG,AFNE01.JPG,AFNE01.JPG,,,,,,,,,4,6,46,9,,,,,,,,,,,,,,,AFNE10.jpg,AFSA20.jpg,AFSA15.jpg,AFNE03.jpg,AFSA20.jpg,FS,4,num_6,32,num_4,0.300186541979,,,2017_Jul_06_1045,60.0028867546,FEMA4ImagesEEG,001,200853,
AFNE01.JPG,AFNE01.JPG,AFNE01.JPG,AFNE01.JPG,AFNE01.JPG,AFNE01.JPG,,,,,,,,,4,7,47,7,,,,,,,,,,,,,,,AFNE09.jpg,AFSA18.jpg,AFSA08.jpg,AFNE01.jpg,AFSA18.jpg,FS,4,num_6,16,num_6,0.566779181943,,,2017_Jul_06_1045,60.0028867546,FEMA4ImagesEEG,001,200853,
AFNE01.JPG,AFNE01.JPG,AFNE01.JPG,AFNE01.JPG,AFNE01.JPG,AFNE01.JPG,,,,,,,,,4,8,48,8,,,,,,,,,,,,,,,AFNE15.jpg,AFNE05.jpg,AFSA16.jpg,AFSA14.jpg,AFNE05.jpg,FN,3,num_6,32,num_4,0.700173648191,,,2017_Jul_06_1045,60.0028867546,FEMA4ImagesEEG,001,200853,
AFNE01.JPG,AFNE01.JPG,AFNE01.JPG,AFNE01.JPG,AFNE01.JPG,AFNE01.JPG,,,,,,,,,4,9,49,4,,,,,,,,,,,,,,,AFSA10.jpg,AFNE15.jpg,AFSA18.jpg,AFNE06.jpg,AFNE06.jpg,FN,3,num_4,32,num_6,0.850343415514,,,2017_Jul_06_1045,60.0028867546,FEMA4ImagesEEG,001,200853,
AFNE01.JPG,AFNE01.JPG,AFNE01.JPG,AFNE01.JPG,AFNE01.JPG,AFNE01.JPG,,,,,,,,,5,0,50,6,,,,,,,,,,,,,,,AFSA08.jpg,AFNE04.jpg,AFSA20.jpg,AFNE02.jpg,AFNE02.jpg,FN,3,num_4,16,num_4,0.350094842608,,,2017_Jul_06_1045,60.0028867546,FEMA4ImagesEEG,001,200853,
AFNE01.JPG,AFNE01.JPG,AFNE01.JPG,AFNE01.JPG,AFNE01.JPG,AFNE01.JPG,,,,,,,,,5,1,51,8,,,,,,,,,,,,,,,AFSA16.jpg,AFNE19.jpg,AFSA20.jpg,AFNE01.jpg,AFNE01.jpg,FN,3,num_4,16,num_4,0.800125280744,,,2017_Jul_06_1045,60.0028867546,FEMA4ImagesEEG,001,200853,
AFNE01.JPG,AFNE01.JPG,AFNE01.JPG,AFNE01.JPG,AFNE01.JPG,AFNE01.JPG,,,,,,,,,5,2,52,7,,,,,,,,,,,,,,,AFNE14.jpg,AFNE18.jpg,AFSA06.jpg,AFSA04.jpg,AFNE18.jpg,FN,3,num_6,16,num_6,0.300193918985,,,2017_Jul_06_1045,60.0028867546,FEMA4ImagesEEG,001,200853,
AFNE01.JPG,AFNE01.JPG,AFNE01.JPG,AFNE01.JPG,AFNE01.JPG,AFNE01.JPG,,,,,,,,,5,3,53,0,,,,,,,,,,,,,,,AFNE18.jpg,AFSA07.jpg,AFNE19.jpg,AFSA11.jpg,AFSA11.jpg,FS,4,num_4,16,num_4,0.250217621448,,,2017_Jul_06_1045,60.0028867546,FEMA4ImagesEEG,001,200853,
AFNE01.JPG,AFNE01.JPG,AFNE01.JPG,AFNE01.JPG,AFNE01.JPG,AFNE01.JPG,,,,,,,,,5,4,54,5,,,,,,,,,,,,,,,AFSA13.jpg,AFNE03.jpg,AFNE14.jpg,AFSA09.jpg,AFSA13.jpg,FS,4,num_8,32,num_6,0.816800190369,,,2017_Jul_06_1045,60.0028867546,FEMA4ImagesEEG,001,200853,
AFNE01.JPG,AFNE01.JPG,AFNE01.JPG,AFNE01.JPG,AFNE01.JPG,AFNE01.JPG,,,,,,,,,5,5,55,1,,,,,,,,,,,,,,,AFSA14.jpg,AFNE16.jpg,AFSA06.jpg,AFNE03.jpg,AFNE16.jpg,FN,3,num_6,32,num_4,0.366533046705,,,2017_Jul_06_1045,60.0028867546,FEMA4ImagesEEG,001,200853,
AFNE01.JPG,AFNE01.JPG,AFNE01.JPG,AFNE01.JPG,AFNE01.JPG,AFNE01.JPG,,,,,,,,,5,6,56,3,,,,,,,,,,,,,,,AFNE19.jpg,AFSA08.jpg,AFNE09.jpg,AFSA07.jpg,AFSA07.jpg,FS,4,num_4,32,num_6,0.900153569877,,,2017_Jul_06_1045,60.0028867546,FEMA4ImagesEEG,001,200853,
AFNE01.JPG,AFNE01.JPG,AFNE01.JPG,AFNE01.JPG,AFNE01.JPG,AFNE01.JPG,,,,,,,,,5,7,57,2,,,,,,,,,,,,,,,AFNE04.jpg,AFSA18.jpg,AFSA13.jpg,AFNE15.jpg,AFNE15.jpg,FN,3,num_4,32,num_2,0.350204214687,,,2017_Jul_06_1045,60.0028867546,FEMA4ImagesEEG,001,200853,
AFNE01.JPG,AFNE01.JPG,AFNE01.JPG,AFNE01.JPG,AFNE01.JPG,AFNE01.JPG,,,,,,,,,5,8,58,4,,,,,,,,,,,,,,,AFSA18.jpg,AFNE14.jpg,AFNE17.jpg,AFSA16.jpg,AFNE17.jpg,FN,3,num_2,32,num_8,0.333471251186,,,2017_Jul_06_1045,60.0028867546,FEMA4ImagesEEG,001,200853,
AFNE01.JPG,AFNE01.JPG,AFNE01.JPG,AFNE01.JPG,AFNE01.JPG,AFNE01.JPG,,,,,,,,,5,9,59,9,,,,,,,,,,,,,,,AFNE04.jpg,AFNE05.jpg,AFSA17.jpg,AFSA03.jpg,AFSA17.jpg,FS,4,num_2,32,num_6,0.333549190778,,,2017_Jul_06_1045,60.0028867546,FEMA4ImagesEEG,001,200853,
,,,,,,,,,,,,,,,,,,,,,,,,,,,,,,,,,,,,,,,,,,,space,4.98310506321,2017_Jul_06_1045,60.0028867546,FEMA4ImagesEEG,001,200853,
AFNE01.JPG,AFNE01.JPG,AFNE01.JPG,AFNE01.JPG,AFNE01.JPG,AFNE01.JPG,,,,,,,,,,,,,0,0,0,9,,,,,,,,,,,AMNE02.jpg,AMSA04.jpg,AMSA07.jpg,AMNE15.jpg,AMNE02.jpg,MN,1,num_8,32,num_6,0.4334809375,,,2017_Jul_06_1045,60.0028867546,FEMA4ImagesEEG,001,200853,
AFNE01.JPG,AFNE01.JPG,AFNE01.JPG,AFNE01.JPG,AFNE01.JPG,AFNE01.JPG,,,,,,,,,,,,,0,1,1,6,,,,,,,,,,,AMNE12.jpg,AMNE02.jpg,AMSA17.jpg,AMSA16.jpg,AMSA17.jpg,MS,2,num_2,32,num_4,0.983522665687,,,2017_Jul_06_1045,60.0028867546,FEMA4ImagesEEG,001,200853,
AFNE01.JPG,AFNE01.JPG,AFNE01.JPG,AFNE01.JPG,AFNE01.JPG,AFNE01.JPG,,,,,,,,,,,,,0,2,2,0,,,,,,,,,,,AMNE17.jpg,AMSA13.jpg,AMSA03.jpg,AMNE02.jpg,AMNE02.jpg,MN,1,num_4,32,num_8,0.383596692351,,,2017_Jul_06_1045,60.0028867546,FEMA4ImagesEEG,001,200853,
AFNE01.JPG,AFNE01.JPG,AFNE01.JPG,AFNE01.JPG,AFNE01.JPG,AFNE01.JPG,,,,,,,,,,,,,0,3,3,5,,,,,,,,,,,AMSA20.jpg,AMNE11.jpg,AMNE06.jpg,AMSA02.jpg,AMNE11.jpg,MN,1,num_6,16,num_6,0.433521992061,,,2017_Jul_06_1045,60.0028867546,FEMA4ImagesEEG,001,200853,
AFNE01.JPG,AFNE01.JPG,AFNE01.JPG,AFNE01.JPG,AFNE01.JPG,AFNE01.JPG,,,,,,,,,,,,,0,4,4,8,,,,,,,,,,,AMNE17.jpg,AMSA04.jpg,AMNE12.jpg,AMSA09.jpg,AMNE17.jpg,MN,1,num_8,16,num_8,0.450132433209,,,2017_Jul_06_1045,60.0028867546,FEMA4ImagesEEG,001,200853,
AFNE01.JPG,AFNE01.JPG,AFNE01.JPG,AFNE01.JPG,AFNE01.JPG,AFNE01.JPG,,,,,,,,,,,,,0,5,5,4,,,,,,,,,,,AMNE02.jpg,AMSA11.jpg,AMNE10.jpg,AMSA09.jpg,AMSA09.jpg,MS,2,num_4,16,num_4,0.800118545187,,,2017_Jul_06_1045,60.0028867546,FEMA4ImagesEEG,001,200853,
AFNE01.JPG,AFNE01.JPG,AFNE01.JPG,AFNE01.JPG,AFNE01.JPG,AFNE01.JPG,,,,,,,,,,,,,0,6,6,2,,,,,,,,,,,AMSA10.jpg,AMNE01.jpg,AMSA05.jpg,AMNE18.jpg,AMSA10.jpg,MS,2,num_8,32,num_2,0.316814623657,,,2017_Jul_06_1045,60.0028867546,FEMA4ImagesEEG,001,200853,
AFNE01.JPG,AFNE01.JPG,AFNE01.JPG,AFNE01.JPG,AFNE01.JPG,AFNE01.JPG,,,,,,,,,,,,,0,7,7,7,,,,,,,,,,,AMNE08.jpg,AMNE10.jpg,AMSA17.jpg,AMSA02.jpg,AMSA17.jpg,MS,2,num_2,32,num_4,0.316870752955,,,2017_Jul_06_1045,60.0028867546,FEMA4ImagesEEG,001,200853,
AFNE01.JPG,AFNE01.JPG,AFNE01.JPG,AFNE01.JPG,AFNE01.JPG,AFNE01.JPG,,,,,,,,,,,,,0,8,8,1,,,,,,,,,,,AMSA08.jpg,AMNE06.jpg,AMNE16.jpg,AMSA16.jpg,AMSA08.jpg,MS,2,num_8,32,num_6,0.550236096024,,,2017_Jul_06_1045,60.0028867546,FEMA4ImagesEEG,001,200853,
AFNE01.JPG,AFNE01.JPG,AFNE01.JPG,AFNE01.JPG,AFNE01.JPG,AFNE01.JPG,,,,,,,,,,,,,0,9,9,3,,,,,,,,,,,AMNE18.jpg,AMNE04.jpg,AMSA09.jpg,AMSA01.jpg,AMNE04.jpg,MN,1,num_6,16,num_6,0.366968289833,,,2017_Jul_06_1045,60.0028867546,FEMA4ImagesEEG,001,200853,
AFNE01.JPG,AFNE01.JPG,AFNE01.JPG,AFNE01.JPG,AFNE01.JPG,AFNE01.JPG,,,,,,,,,,,,,1,0,10,9,,,,,,,,,,,AMNE19.jpg,AMNE14.jpg,AMSA10.jpg,AMSA15.jpg,AMSA10.jpg,MS,2,num_2,32,num_6,0.866802788456,,,2017_Jul_06_1045,60.0028867546,FEMA4ImagesEEG,001,200853,
AFNE01.JPG,AFNE01.JPG,AFNE01.JPG,AFNE01.JPG,AFNE01.JPG,AFNE01.JPG,,,,,,,,,,,,,1,1,11,3,,,,,,,,,,,AMNE19.jpg,AMNE09.jpg,AMSA12.jpg,AMSA16.jpg,AMNE19.jpg,MN,1,num_8,32,num_4,0.400157739525,,,2017_Jul_06_1045,60.0028867546,FEMA4ImagesEEG,001,200853,
AFNE01.JPG,AFNE01.JPG,AFNE01.JPG,AFNE01.JPG,AFNE01.JPG,AFNE01.JPG,,,,,,,,,,,,,1,2,12,2,,,,,,,,,,,AMNE14.jpg,AMSA05.jpg,AMNE17.jpg,AMSA16.jpg,AMNE17.jpg,MN,1,num_2,32,num_6,1.33342121588,,,2017_Jul_06_1045,60.0028867546,FEMA4ImagesEEG,001,200853,
AFNE01.JPG,AFNE01.JPG,AFNE01.JPG,AFNE01.JPG,AFNE01.JPG,AFNE01.JPG,,,,,,,,,,,,,1,3,13,1,,,,,,,,,,,AMSA07.jpg,AMNE09.jpg,AMNE10.jpg,AMSA09.jpg,AMNE09.jpg,MN,1,num_6,16,num_6,0.233541749767,,,2017_Jul_06_1045,60.0028867546,FEMA4ImagesEEG,001,200853,
AFNE01.JPG,AFNE01.JPG,AFNE01.JPG,AFNE01.JPG,AFNE01.JPG,AFNE01.JPG,,,,,,,,,,,,,1,4,14,6,,,,,,,,,,,AMSA16.jpg,AMSA12.jpg,AMNE16.jpg,AMNE07.jpg,AMSA16.jpg,MS,2,num_8,16,num_8,0.233541108202,,,2017_Jul_06_1045,60.0028867546,FEMA4ImagesEEG,001,200853,
AFNE01.JPG,AFNE01.JPG,AFNE01.JPG,AFNE01.JPG,AFNE01.JPG,AFNE01.JPG,,,,,,,,,,,,,1,5,15,8,,,,,,,,,,,AMSA15.jpg,AMNE18.jpg,AMSA16.jpg,AMNE05.jpg,AMNE05.jpg,MN,1,num_4,32,num_6,0.433534501004,,,2017_Jul_06_1045,60.0028867546,FEMA4ImagesEEG,001,200853,
AFNE01.JPG,AFNE01.JPG,AFNE01.JPG,AFNE01.JPG,AFNE01.JPG,AFNE01.JPG,,,,,,,,,,,,,1,6,16,4,,,,,,,,,,,AMNE13.jpg,AMSA07.jpg,AMNE16.jpg,AMSA17.jpg,AMSA07.jpg,MS,2,num_6,32,num_4,0.333480873378,,,2017_Jul_06_1045,60.0028867546,FEMA4ImagesEEG,001,200853,
AFNE01.JPG,AFNE01.JPG,AFNE01.JPG,AFNE01.JPG,AFNE01.JPG,AFNE01.JPG,,,,,,,,,,,,,1,7,17,7,,,,,,,,,,,AMNE02.jpg,AMSA02.jpg,AMNE16.jpg,AMSA07.jpg,AMSA02.jpg,MS,2,num_6,32,num_8,0.466780400719,,,2017_Jul_06_1045,60.0028867546,FEMA4ImagesEEG,001,200853,
AFNE01.JPG,AFNE01.JPG,AFNE01.JPG,AFNE01.JPG,AFNE01.JPG,AFNE01.JPG,,,,,,,,,,,,,1,8,18,5,,,,,,,,,,,AMNE08.jpg,AMSA10.jpg,AMSA14.jpg,AMNE02.jpg,AMNE08.jpg,MN,1,num_8,32,num_6,0.25019837718,,,2017_Jul_06_1045,60.0028867546,FEMA4ImagesEEG,001,200853,
AFNE01.JPG,AFNE01.JPG,AFNE01.JPG,AFNE01.JPG,AFNE01.JPG,AFNE01.JPG,,,,,,,,,,,,,1,9,19,0,,,,,,,,,,,AMNE18.jpg,AMSA19.jpg,AMNE08.jpg,AMSA06.jpg,AMSA06.jpg,MS,2,num_4,32,num_2,0.366801505326,,,2017_Jul_06_1045,60.0028867546,FEMA4ImagesEEG,001,200853,
AFNE01.JPG,AFNE01.JPG,AFNE01.JPG,AFNE01.JPG,AFNE01.JPG,AFNE01.JPG,,,,,,,,,,,,,2,0,20,0,,,,,,,,,,,AMNE01.jpg,AMSA18.jpg,AMNE14.jpg,AMSA10.jpg,AMNE14.jpg,MN,1,num_2,32,num_6,0.866547800717,,,2017_Jul_06_1045,60.0028867546,FEMA4ImagesEEG,001,200853,
AFNE01.JPG,AFNE01.JPG,AFNE01.JPG,AFNE01.JPG,AFNE01.JPG,AFNE01.JPG,,,,,,,,,,,,,2,1,21,5,,,,,,,,,,,AMNE15.jpg,AMNE19.jpg,AMSA14.jpg,AMSA10.jpg,AMNE15.jpg,MN,1,num_8,32,num_2,0.700136121712,,,2017_Jul_06_1045,60.0028867546,FEMA4ImagesEEG,001,200853,
AFNE01.JPG,AFNE01.JPG,AFNE01.JPG,AFNE01.JPG,AFNE01.JPG,AFNE01.JPG,,,,,,,,,,,,,2,2,22,7,,,,,,,,,,,AMSA12.jpg,AMNE05.jpg,AMNE07.jpg,AMSA20.jpg,AMSA20.jpg,MS,2,num_4,16,num_4,0.417067430215,,,2017_Jul_06_1045,60.0028867546,FEMA4ImagesEEG,001,200853,
AFNE01.JPG,AFNE01.JPG,AFNE01.JPG,AFNE01.JPG,AFNE01.JPG,AFNE01.JPG,,,,,,,,,,,,,2,3,23,2,,,,,,,,,,,AMNE05.jpg,AMSA04.jpg,AMNE15.jpg,AMSA19.jpg,AMNE15.jpg,MN,1,num_2,32,num_6,0.333350653294,,,2017_Jul_06_1045,60.0028867546,FEMA4ImagesEEG,001,200853,
AFNE01.JPG,AFNE01.JPG,AFNE01.JPG,AFNE01.JPG,AFNE01.JPG,AFNE01.JPG,,,,,,,,,,,,,2,4,24,1,,,,,,,,,,,AMNE18.jpg,AMSA03.jpg,AMNE07.jpg,AMSA13.jpg,AMNE18.jpg,MN,1,num_8,16,num_8,0.550145006157,,,2017_Jul_06_1045,60.0028867546,FEMA4ImagesEEG,001,200853,
AFNE01.JPG,AFNE01.JPG,AFNE01.JPG,AFNE01.JPG,AFNE01.JPG,AFNE01.JPG,,,,,,,,,,,,,2,5,25,6,,,,,,,,,,,AMNE07.jpg,AMSA19.jpg,AMSA14.jpg,AMNE15.jpg,AMSA19.jpg,MS,2,num_6,32,num_8,1.15017201251,,,2017_Jul_06_1045,60.0028867546,FEMA4ImagesEEG,001,200853,
AFNE01.JPG,AFNE01.JPG,AFNE01.JPG,AFNE01.JPG,AFNE01.JPG,AFNE01.JPG,,,,,,,,,,,,,2,6,26,8,,,,,,,,,,,AMSA18.jpg,AMNE03.jpg,AMSA07.jpg,AMNE09.jpg,AMSA18.jpg,MS,2,num_8,16,num_8,0.516833354835,,,2017_Jul_06_1045,60.0028867546,FEMA4ImagesEEG,001,200853,
AFNE01.JPG,AFNE01.JPG,AFNE01.JPG,AFNE01.JPG,AFNE01.JPG,AFNE01.JPG,,,,,,,,,,,,,2,7,27,9,,,,,,,,,,,AMNE09.jpg,AMSA06.jpg,AMNE07.jpg,AMSA18.jpg,AMSA18.jpg,MS,2,num_4,32,num_6,0.283502010163,,,2017_Jul_06_1045,60.0028867546,FEMA4ImagesEEG,001,200853,
AFNE01.JPG,AFNE01.JPG,AFNE01.JPG,AFNE01.JPG,AFNE01.JPG,AFNE01.JPG,,,,,,,,,,,,,2,8,28,4,,,,,,,,,,,AMSA12.jpg,AMSA10.jpg,AMNE20.jpg,AMNE04.jpg,AMSA10.jpg,MS,2,num_6,16,num_6,0.283511952963,,,2017_Jul_06_1045,60.0028867546,FEMA4ImagesEEG,001,200853,
AFNE01.JPG,AFNE01.JPG,AFNE01.JPG,AFNE01.JPG,AFNE01.JPG,AFNE01.JPG,,,,,,,,,,,,,2,9,29,3,,,,,,,,,,,AMNE01.jpg,AMNE09.jpg,AMSA04.jpg,AMSA11.jpg,AMSA11.jpg,MS,2,num_4,16,num_4,0.283454861376,,,2017_Jul_06_1045,60.0028867546,FEMA4ImagesEEG,001,200853,
AFNE01.JPG,AFNE01.JPG,AFNE01.JPG,AFNE01.JPG,AFNE01.JPG,AFNE01.JPG,,,,,,,,,,,,,3,0,30,3,,,,,,,,,,,AMSA17.jpg,AMSA11.jpg,AMNE07.jpg,AMNE19.jpg,AMNE07.jpg,MN,1,num_2,32,num_8,0.333473817096,,,2017_Jul_06_1045,60.0028867546,FEMA4ImagesEEG,001,200853,
AFNE01.JPG,AFNE01.JPG,AFNE01.JPG,AFNE01.JPG,AFNE01.JPG,AFNE01.JPG,,,,,,,,,,,,,3,1,31,9,,,,,,,,,,,AMSA09.jpg,AMNE01.jpg,AMNE11.jpg,AMSA16.jpg,AMNE11.jpg,MN,1,num_2,16,num_2,0.416465082089,,,2017_Jul_06_1045,60.0028867546,FEMA4ImagesEEG,001,200853,
AFNE01.JPG,AFNE01.JPG,AFNE01.JPG,AFNE01.JPG,AFNE01.JPG,AFNE01.JPG,,,,,,,,,,,,,3,2,32,2,,,,,,,,,,,AMSA13.jpg,AMNE12.jpg,AMNE14.jpg,AMSA15.jpg,AMSA15.jpg,MS,2,num_4,32,num_6,0.266783479834,,,2017_Jul_06_1045,60.0028867546,FEMA4ImagesEEG,001,200853,
AFNE01.JPG,AFNE01.JPG,AFNE01.JPG,AFNE01.JPG,AFNE01.JPG,AFNE01.JPG,,,,,,,,,,,,,3,3,33,4,,,,,,,,,,,AMSA06.jpg,AMNE19.jpg,AMSA09.jpg,AMNE11.jpg,AMNE11.jpg,MN,1,num_4,16,num_4,0.483490591752,,,2017_Jul_06_1045,60.0028867546,FEMA4ImagesEEG,001,200853,
AFNE01.JPG,AFNE01.JPG,AFNE01.JPG,AFNE01.JPG,AFNE01.JPG,AFNE01.JPG,,,,,,,,,,,,,3,4,34,6,,,,,,,,,,,AMNE10.jpg,AMSA11.jpg,AMSA15.jpg,AMNE11.jpg,AMNE10.jpg,MN,1,num_8,16,num_8,0.300197447068,,,2017_Jul_06_1045,60.0028867546,FEMA4ImagesEEG,001,200853,
AFNE01.JPG,AFNE01.JPG,AFNE01.JPG,AFNE01.JPG,AFNE01.JPG,AFNE01.JPG,,,,,,,,,,,,,3,5,35,0,,,,,,,,,,,AMSA11.jpg,AMNE08.jpg,AMNE03.jpg,AMSA07.jpg,AMNE03.jpg,MN,1,num_2,32,num_6,0.316821038374,,,2017_Jul_06_1045,60.0028867546,FEMA4ImagesEEG,001,200853,
AFNE01.JPG,AFNE01.JPG,AFNE01.JPG,AFNE01.JPG,AFNE01.JPG,AFNE01.JPG,,,,,,,,,,,,,3,6,36,5,,,,,,,,,,,AMSA18.jpg,AMSA15.jpg,AMNE11.jpg,AMNE20.jpg,AMSA15.jpg,MS,2,num_6,32,num_2,0.450230579474,,,2017_Jul_06_1045,60.0028867546,FEMA4ImagesEEG,001,200853,
AFNE01.JPG,AFNE01.JPG,AFNE01.JPG,AFNE01.JPG,AFNE01.JPG,AFNE01.JPG,,,,,,,,,,,,,3,7,37,7,,,,,,,,,,,AMSA16.jpg,AMNE12.jpg,AMSA15.jpg,AMNE20.jpg,AMNE12.jpg,MN,1,num_6,32,num_4,0.816788964556,,,2017_Jul_06_1045,60.0028867546,FEMA4ImagesEEG,001,200853,
AFNE01.JPG,AFNE01.JPG,AFNE01.JPG,AFNE01.JPG,AFNE01.JPG,AFNE01.JPG,,,,,,,,,,,,,3,8,38,8,,,,,,,,,,,AMSA13.jpg,AMNE18.jpg,AMNE03.jpg,AMSA15.jpg,AMNE03.jpg,MN,1,num_2,32,num_6,0.383502715733,,,2017_Jul_06_1045,60.0028867546,FEMA4ImagesEEG,001,200853,
AFNE01.JPG,AFNE01.JPG,AFNE01.JPG,AFNE01.JPG,AFNE01.JPG,AFNE01.JPG,,,,,,,,,,,,,3,9,39,1,,,,,,,,,,,AMSA13.jpg,AMNE03.jpg,AMSA02.jpg,AMNE18.jpg,AMNE03.jpg,MN,1,num_6,16,num_6,0.483486422221,,,2017_Jul_06_1045,60.0028867546,FEMA4ImagesEEG,001,200853,
AFNE01.JPG,AFNE01.JPG,AFNE01.JPG,AFNE01.JPG,AFNE01.JPG,AFNE01.JPG,,,,,,,,,,,,,4,0,40,4,,,,,,,,,,,AMNE17.jpg,AMNE12.jpg,AMSA04.jpg,AMSA13.jpg,AMSA13.jpg,MS,2,num_4,32,num_8,0.233524429728,,,2017_Jul_06_1045,60.0028867546,FEMA4ImagesEEG,001,200853,
AFNE01.JPG,AFNE01.JPG,AFNE01.JPG,AFNE01.JPG,AFNE01.JPG,AFNE01.JPG,,,,,,,,,,,,,4,1,41,9,,,,,,,,,,,AMNE07.jpg,AMNE13.jpg,AMSA06.jpg,AMSA15.jpg,AMNE13.jpg,MN,1,num_6,16,num_6,0.450113830389,,,2017_Jul_06_1045,60.0028867546,FEMA4ImagesEEG,001,200853,
AFNE01.JPG,AFNE01.JPG,AFNE01.JPG,AFNE01.JPG,AFNE01.JPG,AFNE01.JPG,,,,,,,,,,,,,4,2,42,5,,,,,,,,,,,AMNE09.jpg,AMSA02.jpg,AMSA12.jpg,AMNE01.jpg,AMNE01.jpg,MN,1,num_4,32,num_6,0.466773665277,,,2017_Jul_06_1045,60.0028867546,FEMA4ImagesEEG,001,200853,
AFNE01.JPG,AFNE01.JPG,AFNE01.JPG,AFNE01.JPG,AFNE01.JPG,AFNE01.JPG,,,,,,,,,,,,,4,3,43,1,,,,,,,,,,,AMNE16.jpg,AMSA16.jpg,AMSA05.jpg,AMNE20.jpg,AMNE20.jpg,MN,1,num_4,32,num_8,1.0001157868,,,2017_Jul_06_1045,60.0028867546,FEMA4ImagesEEG,001,200853,
AFNE01.JPG,AFNE01.JPG,AFNE01.JPG,AFNE01.JPG,AFNE01.JPG,AFNE01.JPG,,,,,,,,,,,,,4,4,44,2,,,,,,,,,,,AMNE12.jpg,AMSA05.jpg,AMSA20.jpg,AMNE03.jpg,AMNE03.jpg,MN,1,num_4,32,num_8,1.20005978574,,,2017_Jul_06_1045,60.0028867546,FEMA4ImagesEEG,001,200853,
AFNE01.JPG,AFNE01.JPG,AFNE01.JPG,AFNE01.JPG,AFNE01.JPG,AFNE01.JPG,,,,,,,,,,,,,4,5,45,7,,,,,,,,,,,AMNE13.jpg,AMSA05.jpg,AMSA19.jpg,AMNE16.jpg,AMSA19.jpg,MS,2,num_2,16,num_2,0.65012807108,,,2017_Jul_06_1045,60.0028867546,FEMA4ImagesEEG,001,200853,
AFNE01.JPG,AFNE01.JPG,AFNE01.JPG,AFNE01.JPG,AFNE01.JPG,AFNE01.JPG,,,,,,,,,,,,,4,6,46,0,,,,,,,,,,,AMNE06.jpg,AMSA06.jpg,AMSA09.jpg,AMNE14.jpg,AMNE14.jpg,MN,1,num_4,32,num_8,0.800009493832,,,2017_Jul_06_1045,60.0028867546,FEMA4ImagesEEG,001,200853,
AFNE01.JPG,AFNE01.JPG,AFNE01.JPG,AFNE01.JPG,AFNE01.JPG,AFNE01.JPG,,,,,,,,,,,,,4,7,47,3,,,,,,,,,,,AMNE13.jpg,AMSA18.jpg,AMSA06.jpg,AMNE08.jpg,AMNE13.jpg,MN,1,num_8,32,num_2,0.866625419585,,,2017_Jul_06_1045,60.0028867546,FEMA4ImagesEEG,001,200853,
AFNE01.JPG,AFNE01.JPG,AFNE01.JPG,AFNE01.JPG,AFNE01.JPG,AFNE01.JPG,,,,,,,,,,,,,4,8,48,8,,,,,,,,,,,AMSA11.jpg,AMSA20.jpg,AMNE16.jpg,AMNE14.jpg,AMSA11.jpg,MS,2,num_8,16,num_8,0.56683370762,,,2017_Jul_06_1045,60.0028867546,FEMA4ImagesEEG,001,200853,
AFNE01.JPG,AFNE01.JPG,AFNE01.JPG,AFNE01.JPG,AFNE01.JPG,AFNE01.JPG,,,,,,,,,,,,,4,9,49,6,,,,,,,,,,,AMNE18.jpg,AMNE09.jpg,AMSA10.jpg,AMSA16.jpg,AMSA10.jpg,MS,2,num_2,32,num_6,0.300158637576,,,2017_Jul_06_1045,60.0028867546,FEMA4ImagesEEG,001,200853,
AFNE01.JPG,AFNE01.JPG,AFNE01.JPG,AFNE01.JPG,AFNE01.JPG,AFNE01.JPG,,,,,,,,,,,,,5,0,50,9,,,,,,,,,,,AMNE10.jpg,AMNE09.jpg,AMSA09.jpg,AMSA16.jpg,AMNE09.jpg,MN,1,num_6,32,num_2,0.533472662442,,,2017_Jul_06_1045,60.0028867546,FEMA4ImagesEEG,001,200853,
AFNE01.JPG,AFNE01.JPG,AFNE01.JPG,AFNE01.JPG,AFNE01.JPG,AFNE01.JPG,,,,,,,,,,,,,5,1,51,4,,,,,,,,,,,AMNE14.jpg,AMSA06.jpg,AMNE20.jpg,AMSA08.jpg,AMNE20.jpg,MN,1,num_2,32,num_6,0.266817798954,,,2017_Jul_06_1045,60.0028867546,FEMA4ImagesEEG,001,200853,
AFNE01.JPG,AFNE01.JPG,AFNE01.JPG,AFNE01.JPG,AFNE01.JPG,AFNE01.JPG,,,,,,,,,,,,,5,2,52,7,,,,,,,,,,,AMNE02.jpg,AMSA18.jpg,AMSA19.jpg,AMNE04.jpg,AMNE04.jpg,MN,1,num_4,16,num_4,0.300038039684,,,2017_Jul_06_1045,60.0028867546,FEMA4ImagesEEG,001,200853,
AFNE01.JPG,AFNE01.JPG,AFNE01.JPG,AFNE01.JPG,AFNE01.JPG,AFNE01.JPG,,,,,,,,,,,,,5,3,53,1,,,,,,,,,,,AMSA04.jpg,AMSA03.jpg,AMNE19.jpg,AMNE06.jpg,AMSA03.jpg,MS,2,num_6,16,num_6,0.333496268839,,,2017_Jul_06_1045,60.0028867546,FEMA4ImagesEEG,001,200853,
AFNE01.JPG,AFNE01.JPG,AFNE01.JPG,AFNE01.JPG,AFNE01.JPG,AFNE01.JPG,,,,,,,,,,,,,5,4,54,6,,,,,,,,,,,AMSA12.jpg,AMNE17.jpg,AMSA18.jpg,AMNE03.jpg,AMNE17.jpg,MN,1,num_6,32,num_4,0.533489020076,,,2017_Jul_06_1045,60.0028867546,FEMA4ImagesEEG,001,200853,
AFNE01.JPG,AFNE01.JPG,AFNE01.JPG,AFNE01.JPG,AFNE01.JPG,AFNE01.JPG,,,,,,,,,,,,,5,5,55,0,,,,,,,,,,,AMNE09.jpg,AMSA01.jpg,AMSA19.jpg,AMNE01.jpg,AMNE01.jpg,MN,1,num_4,32,num_8,0.633447388187,,,2017_Jul_06_1045,60.0028867546,FEMA4ImagesEEG,001,200853,
AFNE01.JPG,AFNE01.JPG,AFNE01.JPG,AFNE01.JPG,AFNE01.JPG,AFNE01.JPG,,,,,,,,,,,,,5,6,56,5,,,,,,,,,,,AMNE15.jpg,AMSA05.jpg,AMSA04.jpg,AMNE11.jpg,AMSA04.jpg,MS,2,num_2,32,num_8,0.383486999432,,,2017_Jul_06_1045,60.0028867546,FEMA4ImagesEEG,001,200853,
AFNE01.JPG,AFNE01.JPG,AFNE01.JPG,AFNE01.JPG,AFNE01.JPG,AFNE01.JPG,,,,,,,,,,,,,5,7,57,3,,,,,,,,,,,AMSA16.jpg,AMSA04.jpg,AMNE16.jpg,AMNE09.jpg,AMNE16.jpg,MN,1,num_2,16,num_2,0.400176663068,,,2017_Jul_06_1045,60.0028867546,FEMA4ImagesEEG,001,200853,
AFNE01.JPG,AFNE01.JPG,AFNE01.JPG,AFNE01.JPG,AFNE01.JPG,AFNE01.JPG,,,,,,,,,,,,,5,8,58,2,,,,,,,,,,,AMNE16.jpg,AMSA20.jpg,AMSA18.jpg,AMNE15.jpg,AMNE15.jpg,MN,1,num_4,16,num_4,0.316891280352,,,2017_Jul_06_1045,60.0028867546,FEMA4ImagesEEG,001,200853,
AFNE01.JPG,AFNE01.JPG,AFNE01.JPG,AFNE01.JPG,AFNE01.JPG,AFNE01.JPG,,,,,,,,,,,,,5,9,59,8,,,,,,,,,,,AMSA09.jpg,AMNE11.jpg,AMSA11.jpg,AMNE08.jpg,AMNE08.jpg,MN,1,num_4,32,num_6,0.400189813343,,,2017_Jul_06_1045,60.0028867546,FEMA4ImagesEEG,001,200853,
,,,,,,,,,,,,,,,,,,,,,,,,,,,,,,,,,,,,,,,,,,,space,3.09993302962,2017_Jul_06_1045,60.0028867546,FEMA4ImagesEEG,001,200853,
AFNE01.JPG,AFNE01.JPG,AFNE01.JPG,AFNE01.JPG,AFNE01.JPG,AFNE01.JPG,,,,,,,,,,,,,,,,,0,0,0,9,,,,,,,AFNE04.jpg,AFSA07.jpg,AFSA12.jpg,AFNE14.jpg,AFNE14.jpg,FN,3,num_4,16,num_4,1.08346916642,,,2017_Jul_06_1045,60.0028867546,FEMA4ImagesEEG,001,200853,
AFNE01.JPG,AFNE01.JPG,AFNE01.JPG,AFNE01.JPG,AFNE01.JPG,AFNE01.JPG,,,,,,,,,,,,,,,,,0,1,1,6,,,,,,,AFSA09.jpg,AFSA07.jpg,AFNE07.jpg,AFNE20.jpg,AFNE07.jpg,FN,3,num_2,32,num_6,0.200200269581,,,2017_Jul_06_1045,60.0028867546,FEMA4ImagesEEG,001,200853,
AFNE01.JPG,AFNE01.JPG,AFNE01.JPG,AFNE01.JPG,AFNE01.JPG,AFNE01.JPG,,,,,,,,,,,,,,,,,0,2,2,1,,,,,,,AFSA10.jpg,AFSA20.jpg,AFNE08.jpg,AFNE12.jpg,AFNE12.jpg,FN,3,num_4,32,num_8,0.316801152541,,,2017_Jul_06_1045,60.0028867546,FEMA4ImagesEEG,001,200853,
AFNE01.JPG,AFNE01.JPG,AFNE01.JPG,AFNE01.JPG,AFNE01.JPG,AFNE01.JPG,,,,,,,,,,,,,,,,,0,3,3,4,,,,,,,AFNE03.jpg,AFSA07.jpg,AFSA20.jpg,AFNE12.jpg,AFSA20.jpg,FS,4,num_2,16,num_2,0.566732674721,,,2017_Jul_06_1045,60.0028867546,FEMA4ImagesEEG,001,200853,
AFNE01.JPG,AFNE01.JPG,AFNE01.JPG,AFNE01.JPG,AFNE01.JPG,AFNE01.JPG,,,,,,,,,,,,,,,,,0,4,4,5,,,,,,,AFNE16.jpg,AFNE10.jpg,AFSA06.jpg,AFSA02.jpg,AFSA06.jpg,FS,4,num_2,32,num_8,0.66679015127,,,2017_Jul_06_1045,60.0028867546,FEMA4ImagesEEG,001,200853,
AFNE01.JPG,AFNE01.JPG,AFNE01.JPG,AFNE01.JPG,AFNE01.JPG,AFNE01.JPG,,,,,,,,,,,,,,,,,0,5,5,8,,,,,,,AFSA14.jpg,AFNE14.jpg,AFSA15.jpg,AFNE19.jpg,AFSA15.jpg,FS,4,num_2,32,num_6,0.150170408771,,,2017_Jul_06_1045,60.0028867546,FEMA4ImagesEEG,001,200853,
AFNE01.JPG,AFNE01.JPG,AFNE01.JPG,AFNE01.JPG,AFNE01.JPG,AFNE01.JPG,,,,,,,,,,,,,,,,,0,6,6,0,,,,,,,AFNE12.jpg,AFSA02.jpg,AFNE09.jpg,AFSA10.jpg,AFSA02.jpg,FS,4,num_6,32,num_2,0.766749160714,,,2017_Jul_06_1045,60.0028867546,FEMA4ImagesEEG,001,200853,
AFNE01.JPG,AFNE01.JPG,AFNE01.JPG,AFNE01.JPG,AFNE01.JPG,AFNE01.JPG,,,,,,,,,,,,,,,,,0,7,7,3,,,,,,,AFNE01.jpg,AFNE11.jpg,AFSA01.jpg,AFSA17.jpg,AFNE11.jpg,FN,3,num_6,32,num_8,0.450058983988,,,2017_Jul_06_1045,60.0028867546,FEMA4ImagesEEG,001,200853,
AFNE01.JPG,AFNE01.JPG,AFNE01.JPG,AFNE01.JPG,AFNE01.JPG,AFNE01.JPG,,,,,,,,,,,,,,,,,0,8,8,2,,,,,,,AFNE01.jpg,AFSA20.jpg,AFNE18.jpg,AFSA07.jpg,AFNE01.jpg,FN,3,num_8,32,num_4,0.350176631124,,,2017_Jul_06_1045,60.0028867546,FEMA4ImagesEEG,001,200853,
AFNE01.JPG,AFNE01.JPG,AFNE01.JPG,AFNE01.JPG,AFNE01.JPG,AFNE01.JPG,,,,,,,,,,,,,,,,,0,9,9,7,,,,,,,AFNE09.jpg,AFNE14.jpg,AFSA16.jpg,AFSA14.jpg,AFNE09.jpg,FN,3,num_8,32,num_6,0.466832681326,,,2017_Jul_06_1045,60.0028867546,FEMA4ImagesEEG,001,200853,
AFNE01.JPG,AFNE01.JPG,AFNE01.JPG,AFNE01.JPG,AFNE01.JPG,AFNE01.JPG,,,,,,,,,,,,,,,,,1,0,10,7,,,,,,,AFNE05.jpg,AFSA09.jpg,AFSA14.jpg,AFNE03.jpg,AFNE05.jpg,FN,3,num_8,32,num_2,1.03347875644,,,2017_Jul_06_1045,60.0028867546,FEMA4ImagesEEG,001,200853,
AFNE01.JPG,AFNE01.JPG,AFNE01.JPG,AFNE01.JPG,AFNE01.JPG,AFNE01.JPG,,,,,,,,,,,,,,,,,1,1,11,5,,,,,,,AFSA06.jpg,AFNE16.jpg,AFSA12.jpg,AFNE20.jpg,AFSA06.jpg,FS,4,num_8,32,num_4,0.566764748655,,,2017_Jul_06_1045,60.0028867546,FEMA4ImagesEEG,001,200853,
AFNE01.JPG,AFNE01.JPG,AFNE01.JPG,AFNE01.JPG,AFNE01.JPG,AFNE01.JPG,,,,,,,,,,,,,,,,,1,2,12,9,,,,,,,AFSA14.jpg,AFSA02.jpg,AFNE17.jpg,AFNE14.jpg,AFNE14.jpg,FN,3,num_4,32,num_8,1.93341646891,,,2017_Jul_06_1045,60.0028867546,FEMA4ImagesEEG,001,200853,
AFNE01.JPG,AFNE01.JPG,AFNE01.JPG,AFNE01.JPG,AFNE01.JPG,AFNE01.JPG,,,,,,,,,,,,,,,,,1,3,13,8,,,,,,,AFNE01.jpg,AFSA15.jpg,AFSA04.jpg,AFNE13.jpg,AFNE13.jpg,FN,3,num_4,32,num_6,0.333509419113,,,2017_Jul_06_1045,60.0028867546,FEMA4ImagesEEG,001,200853,
AFNE01.JPG,AFNE01.JPG,AFNE01.JPG,AFNE01.JPG,AFNE01.JPG,AFNE01.JPG,,,,,,,,,,,,,,,,,1,4,14,2,,,,,,,AFSA15.jpg,AFNE11.jpg,AFNE13.jpg,AFSA13.jpg,AFNE11.jpg,FN,3,num_6,32,num_4,0.383504319354,,,2017_Jul_06_1045,60.0028867546,FEMA4ImagesEEG,001,200853,
AFNE01.JPG,AFNE01.JPG,AFNE01.JPG,AFNE01.JPG,AFNE01.JPG,AFNE01.JPG,,,,,,,,,,,,,,,,,1,5,15,1,,,,,,,AFNE02.jpg,AFNE16.jpg,AFSA09.jpg,AFSA10.jpg,AFNE16.jpg,FN,3,num_6,32,num_2,0.333506853203,,,2017_Jul_06_1045,60.0028867546,FEMA4ImagesEEG,001,200853,
AFNE01.JPG,AFNE01.JPG,AFNE01.JPG,AFNE01.JPG,AFNE01.JPG,AFNE01.JPG,,,,,,,,,,,,,,,,,1,6,16,4,,,,,,,AFSA13.jpg,AFSA04.jpg,AFNE13.jpg,AFNE18.jpg,AFNE13.jpg,FN,3,num_2,32,num_8,0.333446554258,,,2017_Jul_06_1045,60.0028867546,FEMA4ImagesEEG,001,200853,
AFNE01.JPG,AFNE01.JPG,AFNE01.JPG,AFNE01.JPG,AFNE01.JPG,AFNE01.JPG,,,,,,,,,,,,,,,,,1,7,17,6,,,,,,,AFSA04.jpg,AFNE01.jpg,AFSA12.jpg,AFNE08.jpg,AFSA12.jpg,FS,4,num_2,32,num_8,0.650116845383,,,2017_Jul_06_1045,60.0028867546,FEMA4ImagesEEG,001,200853,
AFNE01.JPG,AFNE01.JPG,AFNE01.JPG,AFNE01.JPG,AFNE01.JPG,AFNE01.JPG,,,,,,,,,,,,,,,,,1,8,18,0,,,,,,,AFNE03.jpg,AFNE04.jpg,AFSA02.jpg,AFSA18.jpg,AFNE03.jpg,FN,3,num_8,32,num_6,0.400164795807,,,2017_Jul_06_1045,60.0028867546,FEMA4ImagesEEG,001,200853,
AFNE01.JPG,AFNE01.JPG,AFNE01.JPG,AFNE01.JPG,AFNE01.JPG,AFNE01.JPG,,,,,,,,,,,,,,,,,1,9,19,3,,,,,,,AFNE12.jpg,AFSA08.jpg,AFNE01.jpg,AFSA07.jpg,AFSA08.jpg,FS,4,num_6,32,num_4,0.266764877015,,,2017_Jul_06_1045,60.0028867546,FEMA4ImagesEEG,001,200853,
AFNE01.JPG,AFNE01.JPG,AFNE01.JPG,AFNE01.JPG,AFNE01.JPG,AFNE01.JPG,,,,,,,,,,,,,,,,,2,0,20,0,,,,,,,AFSA18.jpg,AFSA01.jpg,AFNE04.jpg,AFNE14.jpg,AFNE04.jpg,FN,3,num_2,32,num_6,0.86674216867,,,2017_Jul_06_1045,60.0028867546,FEMA4ImagesEEG,001,200853,
AFNE01.JPG,AFNE01.JPG,AFNE01.JPG,AFNE01.JPG,AFNE01.JPG,AFNE01.JPG,,,,,,,,,,,,,,,,,2,1,21,3,,,,,,,AFNE02.jpg,AFSA01.jpg,AFSA10.jpg,AFNE09.jpg,AFSA10.jpg,FS,4,num_2,32,num_4,0.383526771097,,,2017_Jul_06_1045,60.0028867546,FEMA4ImagesEEG,001,200853,
AFNE01.JPG,AFNE01.JPG,AFNE01.JPG,AFNE01.JPG,AFNE01.JPG,AFNE01.JPG,,,,,,,,,,,,,,,,,2,2,22,5,,,,,,,AFSA09.jpg,AFSA14.jpg,AFNE14.jpg,AFNE12.jpg,AFSA09.jpg,FS,4,num_8,32,num_2,0.250158605515,,,2017_Jul_06_1045,60.0028867546,FEMA4ImagesEEG,001,200853,
AFNE01.JPG,AFNE01.JPG,AFNE01.JPG,AFNE01.JPG,AFNE01.JPG,AFNE01.JPG,,,,,,,,,,,,,,,,,2,3,23,1,,,,,,,AFSA14.jpg,AFNE11.jpg,AFSA19.jpg,AFNE17.jpg,AFSA14.jpg,FS,4,num_8,16,num_8,0.783478275407,,,2017_Jul_06_1045,60.0028867546,FEMA4ImagesEEG,001,200853,
AFNE01.JPG,AFNE01.JPG,AFNE01.JPG,AFNE01.JPG,AFNE01.JPG,AFNE01.JPG,,,,,,,,,,,,,,,,,2,4,24,7,,,,,,,AFSA08.jpg,AFSA01.jpg,AFNE05.jpg,AFNE10.jpg,AFSA08.jpg,FS,4,num_8,32,num_4,0.550205625943,,,2017_Jul_06_1045,60.0028867546,FEMA4ImagesEEG,001,200853,
AFNE01.JPG,AFNE01.JPG,AFNE01.JPG,AFNE01.JPG,AFNE01.JPG,AFNE01.JPG,,,,,,,,,,,,,,,,,2,5,25,2,,,,,,,AFSA03.jpg,AFSA19.jpg,AFNE15.jpg,AFNE16.jpg,AFSA03.jpg,FS,4,num_8,32,num_6,0.55012736551,,,2017_Jul_06_1045,60.0028867546,FEMA4ImagesEEG,001,200853,
AFNE01.JPG,AFNE01.JPG,AFNE01.JPG,AFNE01.JPG,AFNE01.JPG,AFNE01.JPG,,,,,,,,,,,,,,,,,2,6,26,9,,,,,,,AFSA19.jpg,AFNE07.jpg,AFSA06.jpg,AFNE14.jpg,AFNE07.jpg,FN,3,num_6,16,num_6,0.716765807127,,,2017_Jul_06_1045,60.0028867546,FEMA4ImagesEEG,001,200853,
AFNE01.JPG,AFNE01.JPG,AFNE01.JPG,AFNE01.JPG,AFNE01.JPG,AFNE01.JPG,,,,,,,,,,,,,,,,,2,7,27,8,,,,,,,AFNE17.jpg,AFSA07.jpg,AFNE06.jpg,AFSA17.jpg,AFNE17.jpg,FN,3,num_8,16,num_8,0.366789638065,,,2017_Jul_06_1045,60.0028867546,FEMA4ImagesEEG,001,200853,
AFNE01.JPG,AFNE01.JPG,AFNE01.JPG,AFNE01.JPG,AFNE01.JPG,AFNE01.JPG,,,,,,,,,,,,,,,,,2,8,28,4,,,,,,,AFSA01.jpg,AFSA12.jpg,AFNE03.jpg,AFNE06.jpg,AFNE06.jpg,FN,3,num_4,16,num_4,0.416783255409,,,2017_Jul_06_1045,60.0028867546,FEMA4ImagesEEG,001,200853,
AFNE01.JPG,AFNE01.JPG,AFNE01.JPG,AFNE01.JPG,AFNE01.JPG,AFNE01.JPG,,,,,,,,,,,,,,,,,2,9,29,6,,,,,,,AFNE05.jpg,AFSA19.jpg,AFNE04.jpg,AFSA18.jpg,AFNE04.jpg,FN,3,num_2,32,num_8,0.43349633296,,,2017_Jul_06_1045,60.0028867546,FEMA4ImagesEEG,001,200853,
AFNE01.JPG,AFNE01.JPG,AFNE01.JPG,AFNE01.JPG,AFNE01.JPG,AFNE01.JPG,,,,,,,,,,,,,,,,,3,0,30,4,,,,,,,AFNE13.jpg,AFSA12.jpg,AFSA11.jpg,AFNE05.jpg,AFSA11.jpg,FS,4,num_2,16,num_2,0.450140130939,,,2017_Jul_06_1045,60.0028867546,FEMA4ImagesEEG,001,200853,
AFNE01.JPG,AFNE01.JPG,AFNE01.JPG,AFNE01.JPG,AFNE01.JPG,AFNE01.JPG,,,,,,,,,,,,,,,,,3,1,31,6,,,,,,,AFNE19.jpg,AFSA07.jpg,AFNE15.jpg,AFSA17.jpg,AFSA17.jpg,FS,4,num_4,32,num_6,1.1834041205,,,2017_Jul_06_1045,60.0028867546,FEMA4ImagesEEG,001,200853,
AFNE01.JPG,AFNE01.JPG,AFNE01.JPG,AFNE01.JPG,AFNE01.JPG,AFNE01.JPG,,,,,,,,,,,,,,,,,3,2,32,9,,,,,,,AFNE04.jpg,AFSA19.jpg,AFNE11.jpg,AFSA07.jpg,AFNE04.jpg,FN,3,num_8,32,num_4,0.500138559379,,,2017_Jul_06_1045,60.0028867546,FEMA4ImagesEEG,001,200853,
AFNE01.JPG,AFNE01.JPG,AFNE01.JPG,AFNE01.JPG,AFNE01.JPG,AFNE01.JPG,,,,,,,,,,,,,,,,,3,3,33,5,,,,,,,AFNE02.jpg,AFNE20.jpg,AFSA13.jpg,AFSA05.jpg,AFNE20.jpg,FN,3,num_6,16,num_6,0.700188722927,,,2017_Jul_06_1045,60.0028867546,FEMA4ImagesEEG,001,200853,
AFNE01.JPG,AFNE01.JPG,AFNE01.JPG,AFNE01.JPG,AFNE01.JPG,AFNE01.JPG,,,,,,,,,,,,,,,,,3,4,34,2,,,,,,,AFSA04.jpg,AFNE07.jpg,AFNE09.jpg,AFSA12.jpg,AFSA12.jpg,FS,4,num_4,16,num_4,0.350132369087,,,2017_Jul_06_1045,60.0028867546,FEMA4ImagesEEG,001,200853,
AFNE01.JPG,AFNE01.JPG,AFNE01.JPG,AFNE01.JPG,AFNE01.JPG,AFNE01.JPG,,,,,,,,,,,,,,,,,3,5,35,3,,,,,,,AFSA16.jpg,AFNE12.jpg,AFSA04.jpg,AFNE18.jpg,AFSA04.jpg,FS,4,num_2,32,num_6,0.366808241,,,2017_Jul_06_1045,60.0028867546,FEMA4ImagesEEG,001,200853,
AFNE01.JPG,AFNE01.JPG,AFNE01.JPG,AFNE01.JPG,AFNE01.JPG,AFNE01.JPG,,,,,,,,,,,,,,,,,3,6,36,0,,,,,,,AFSA02.jpg,AFSA19.jpg,AFNE19.jpg,AFNE07.jpg,AFNE19.jpg,FN,3,num_2,32,num_8,0.333475420834,,,2017_Jul_06_1045,60.0028867546,FEMA4ImagesEEG,001,200853,
AFNE01.JPG,AFNE01.JPG,AFNE01.JPG,AFNE01.JPG,AFNE01.JPG,AFNE01.JPG,,,,,,,,,,,,,,,,,3,7,37,1,,,,,,,AFSA18.jpg,AFNE07.jpg,AFSA06.jpg,AFNE05.jpg,AFSA06.jpg,FS,4,num_2,16,num_2,0.266805931693,,,2017_Jul_06_1045,60.0028867546,FEMA4ImagesEEG,001,200853,
AFNE01.JPG,AFNE01.JPG,AFNE01.JPG,AFNE01.JPG,AFNE01.JPG,AFNE01.JPG,,,,,,,,,,,,,,,,,3,8,38,7,,,,,,,AFNE02.jpg,AFNE05.jpg,AFSA06.jpg,AFSA13.jpg,AFSA06.jpg,FS,4,num_2,32,num_4,0.316759456531,,,2017_Jul_06_1045,60.0028867546,FEMA4ImagesEEG,001,200853,
AFNE01.JPG,AFNE01.JPG,AFNE01.JPG,AFNE01.JPG,AFNE01.JPG,AFNE01.JPG,,,,,,,,,,,,,,,,,3,9,39,8,,,,,,,AFSA10.jpg,AFNE20.jpg,AFSA15.jpg,AFNE06.jpg,AFNE20.jpg,FN,3,num_6,32,num_8,0.25029588188,,,2017_Jul_06_1045,60.0028867546,FEMA4ImagesEEG,001,200853,
AFNE01.JPG,AFNE01.JPG,AFNE01.JPG,AFNE01.JPG,AFNE01.JPG,AFNE01.JPG,,,,,,,,,,,,,,,,,4,0,40,4,,,,,,,AFSA19.jpg,AFNE05.jpg,AFNE09.jpg,AFSA20.jpg,AFNE09.jpg,FN,3,num_2,16,num_2,1.16662112169,,,2017_Jul_06_1045,60.0028867546,FEMA4ImagesEEG,001,200853,
AFNE01.JPG,AFNE01.JPG,AFNE01.JPG,AFNE01.JPG,AFNE01.JPG,AFNE01.JPG,,,,,,,,,,,,,,,,,4,1,41,2,,,,,,,AFSA09.jpg,AFNE11.jpg,AFNE18.jpg,AFSA16.jpg,AFNE18.jpg,FN,3,num_2,16,num_2,0.800180768594,,,2017_Jul_06_1045,60.0028867546,FEMA4ImagesEEG,001,200853,
AFNE01.JPG,AFNE01.JPG,AFNE01.JPG,AFNE01.JPG,AFNE01.JPG,AFNE01.JPG,,,,,,,,,,,,,,,,,4,2,42,7,,,,,,,AFNE05.jpg,AFNE14.jpg,AFSA04.jpg,AFSA08.jpg,AFSA04.jpg,FS,4,num_2,32,num_4,0.350031015463,,,2017_Jul_06_1045,60.0028867546,FEMA4ImagesEEG,001,200853,
AFNE01.JPG,AFNE01.JPG,AFNE01.JPG,AFNE01.JPG,AFNE01.JPG,AFNE01.JPG,,,,,,,,,,,,,,,,,4,3,43,6,,,,,,,AFNE03.jpg,AFSA12.jpg,AFSA07.jpg,AFNE07.jpg,AFNE07.jpg,FN,3,num_4,16,num_4,0.583523371257,,,2017_Jul_06_1045,60.0028867546,FEMA4ImagesEEG,001,200853,
AFNE01.JPG,AFNE01.JPG,AFNE01.JPG,AFNE01.JPG,AFNE01.JPG,AFNE01.JPG,,,,,,,,,,,,,,,,,4,4,44,5,,,,,,,AFSA16.jpg,AFNE02.jpg,AFSA18.jpg,AFNE10.jpg,AFSA16.jpg,FS,4,num_8,32,num_6,0.466854812345,,,2017_Jul_06_1045,60.0028867546,FEMA4ImagesEEG,001,200853,
AFNE01.JPG,AFNE01.JPG,AFNE01.JPG,AFNE01.JPG,AFNE01.JPG,AFNE01.JPG,,,,,,,,,,,,,,,,,4,5,45,3,,,,,,,AFNE17.jpg,AFSA07.jpg,AFSA08.jpg,AFNE02.jpg,AFNE17.jpg,FN,3,num_8,32,num_4,0.866795411333,,,2017_Jul_06_1045,60.0028867546,FEMA4ImagesEEG,001,200853,
AFNE01.JPG,AFNE01.JPG,AFNE01.JPG,AFNE01.JPG,AFNE01.JPG,AFNE01.JPG,,,,,,,,,,,,,,,,,4,6,46,0,,,,,,,AFSA09.jpg,AFNE02.jpg,AFNE04.jpg,AFSA19.jpg,AFNE04.jpg,FN,3,num_2,32,num_8,0.833483439172,,,2017_Jul_06_1045,60.0028867546,FEMA4ImagesEEG,001,200853,
AFNE01.JPG,AFNE01.JPG,AFNE01.JPG,AFNE01.JPG,AFNE01.JPG,AFNE01.JPG,,,,,,,,,,,,,,,,,4,7,47,1,,,,,,,AFNE06.jpg,AFSA04.jpg,AFSA01.jpg,AFNE07.jpg,AFSA01.jpg,FS,4,num_2,16,num_2,0.566822802532,,,2017_Jul_06_1045,60.0028867546,FEMA4ImagesEEG,001,200853,
AFNE01.JPG,AFNE01.JPG,AFNE01.JPG,AFNE01.JPG,AFNE01.JPG,AFNE01.JPG,,,,,,,,,,,,,,,,,4,8,48,9,,,,,,,AFNE12.jpg,AFNE05.jpg,AFSA07.jpg,AFSA19.jpg,AFSA19.jpg,FS,4,num_4,16,num_4,0.366814976442,,,2017_Jul_06_1045,60.0028867546,FEMA4ImagesEEG,001,200853,
AFNE01.JPG,AFNE01.JPG,AFNE01.JPG,AFNE01.JPG,AFNE01.JPG,AFNE01.JPG,,,,,,,,,,,,,,,,,4,9,49,8,,,,,,,AFSA03.jpg,AFSA12.jpg,AFNE06.jpg,AFNE17.jpg,AFSA12.jpg,FS,4,num_6,16,num_6,0.516816355637,,,2017_Jul_06_1045,60.0028867546,FEMA4ImagesEEG,001,200853,
AFNE01.JPG,AFNE01.JPG,AFNE01.JPG,AFNE01.JPG,AFNE01.JPG,AFNE01.JPG,,,,,,,,,,,,,,,,,5,0,50,4,,,,,,,AFSA07.jpg,AFSA01.jpg,AFNE08.jpg,AFNE09.jpg,AFNE09.jpg,FN,3,num_4,16,num_4,1.3334215366,,,2017_Jul_06_1045,60.0028867546,FEMA4ImagesEEG,001,200853,
AFNE01.JPG,AFNE01.JPG,AFNE01.JPG,AFNE01.JPG,AFNE01.JPG,AFNE01.JPG,,,,,,,,,,,,,,,,,5,1,51,3,,,,,,,AFNE19.jpg,AFSA03.jpg,AFNE05.jpg,AFSA17.jpg,AFSA17.jpg,FS,4,num_4,32,num_2,0.400158701697,,,2017_Jul_06_1045,60.0028867546,FEMA4ImagesEEG,001,200853,
AFNE01.JPG,AFNE01.JPG,AFNE01.JPG,AFNE01.JPG,AFNE01.JPG,AFNE01.JPG,,,,,,,,,,,,,,,,,5,2,52,2,,,,,,,AFNE18.jpg,AFSA10.jpg,AFSA07.jpg,AFNE06.jpg,AFSA10.jpg,FS,4,num_6,32,num_8,0.267031411291,,,2017_Jul_06_1045,60.0028867546,FEMA4ImagesEEG,001,200853,
AFNE01.JPG,AFNE01.JPG,AFNE01.JPG,AFNE01.JPG,AFNE01.JPG,AFNE01.JPG,,,,,,,,,,,,,,,,,5,3,53,1,,,,,,,AFSA15.jpg,AFSA05.jpg,AFNE19.jpg,AFNE04.jpg,AFNE04.jpg,FN,3,num_4,32,num_2,0.666764812893,,,2017_Jul_06_1045,60.0028867546,FEMA4ImagesEEG,001,200853,
AFNE01.JPG,AFNE01.JPG,AFNE01.JPG,AFNE01.JPG,AFNE01.JPG,AFNE01.JPG,,,,,,,,,,,,,,,,,5,4,54,8,,,,,,,AFNE07.jpg,AFSA15.jpg,AFNE19.jpg,AFSA16.jpg,AFSA16.jpg,FS,4,num_4,32,num_8,1.05012127152,,,2017_Jul_06_1045,60.0028867546,FEMA4ImagesEEG,001,200853,
AFNE01.JPG,AFNE01.JPG,AFNE01.JPG,AFNE01.JPG,AFNE01.JPG,AFNE01.JPG,,,,,,,,,,,,,,,,,5,5,55,6,,,,,,,AFNE16.jpg,AFNE14.jpg,AFSA01.jpg,AFSA12.jpg,AFNE14.jpg,FN,3,num_6,32,num_4,0.416823027073,,,2017_Jul_06_1045,60.0028867546,FEMA4ImagesEEG,001,200853,
AFNE01.JPG,AFNE01.JPG,AFNE01.JPG,AFNE01.JPG,AFNE01.JPG,AFNE01.JPG,,,,,,,,,,,,,,,,,5,6,56,0,,,,,,,AFSA02.jpg,AFNE14.jpg,AFNE04.jpg,AFSA16.jpg,AFNE14.jpg,FN,3,num_6,16,num_6,0.549848322524,,,2017_Jul_06_1045,60.0028867546,FEMA4ImagesEEG,001,200853,
AFNE01.JPG,AFNE01.JPG,AFNE01.JPG,AFNE01.JPG,AFNE01.JPG,AFNE01.JPG,,,,,,,,,,,,,,,,,5,7,57,5,,,,,,,AFSA03.jpg,AFNE17.jpg,AFNE19.jpg,AFSA15.jpg,AFNE19.jpg,FN,3,num_2,32,num_4,0.30042677559,,,2017_Jul_06_1045,60.0028867546,FEMA4ImagesEEG,001,200853,
AFNE01.JPG,AFNE01.JPG,AFNE01.JPG,AFNE01.JPG,AFNE01.JPG,AFNE01.JPG,,,,,,,,,,,,,,,,,5,8,58,9,,,,,,,AFNE09.jpg,AFNE17.jpg,AFSA04.jpg,AFSA20.jpg,AFNE09.jpg,FN,3,num_8,16,num_8,0.566810935154,,,2017_Jul_06_1045,60.0028867546,FEMA4ImagesEEG,001,200853,
AFNE01.JPG,AFNE01.JPG,AFNE01.JPG,AFNE01.JPG,AFNE01.JPG,AFNE01.JPG,,,,,,,,,,,,,,,,,5,9,59,7,,,,,,,AFSA10.jpg,AFSA02.jpg,AFNE15.jpg,AFNE04.jpg,AFNE04.jpg,FN,3,num_4,32,num_6,0.383489244618,,,2017_Jul_06_1045,60.0028867546,FEMA4ImagesEEG,001,200853,
,,,,,,,,,,,,,,,,,,,,,,,,,,,,,,,,,,,,,,,,,,,space,5.0829267964,2017_Jul_06_1045,60.0028867546,FEMA4ImagesEEG,001,200853,
AFNE01.JPG,AFNE01.JPG,AFNE01.JPG,AFNE01.JPG,AFNE01.JPG,AFNE01.JPG,,,,,,,,,,,,,,,,,,,,,0,0,0,1,,,AMNE04.jpg,AMSA15.jpg,AMSA06.jpg,AMNE13.jpg,AMNE13.jpg,MN,1,num_4,32,num_6,0.633606795571,,,2017_Jul_06_1045,60.0028867546,FEMA4ImagesEEG,001,200853,
AFNE01.JPG,AFNE01.JPG,AFNE01.JPG,AFNE01.JPG,AFNE01.JPG,AFNE01.JPG,,,,,,,,,,,,,,,,,,,,,0,1,1,4,,,AMNE02.jpg,AMNE05.jpg,AMSA08.jpg,AMSA03.jpg,AMNE02.jpg,MN,1,num_8,32,num_4,0.383449152228,,,2017_Jul_06_1045,60.0028867546,FEMA4ImagesEEG,001,200853,
AFNE01.JPG,AFNE01.JPG,AFNE01.JPG,AFNE01.JPG,AFNE01.JPG,AFNE01.JPG,,,,,,,,,,,,,,,,,,,,,0,2,2,7,,,AMNE20.jpg,AMSA15.jpg,AMSA01.jpg,AMNE09.jpg,AMSA15.jpg,MS,2,num_6,32,num_2,0.450195939629,,,2017_Jul_06_1045,60.0028867546,FEMA4ImagesEEG,001,200853,
AFNE01.JPG,AFNE01.JPG,AFNE01.JPG,AFNE01.JPG,AFNE01.JPG,AFNE01.JPG,,,,,,,,,,,,,,,,,,,,,0,3,3,9,,,AMNE07.jpg,AMSA02.jpg,AMSA17.jpg,AMNE10.jpg,AMNE10.jpg,MN,1,num_4,32,num_8,0.983513043495,,,2017_Jul_06_1045,60.0028867546,FEMA4ImagesEEG,001,200853,
AFNE01.JPG,AFNE01.JPG,AFNE01.JPG,AFNE01.JPG,AFNE01.JPG,AFNE01.JPG,,,,,,,,,,,,,,,,,,,,,0,4,4,0,,,AMSA15.jpg,AMNE14.jpg,AMNE18.jpg,AMSA17.jpg,AMSA15.jpg,MS,2,num_8,32,num_4,0.633443218539,,,2017_Jul_06_1045,60.0028867546,FEMA4ImagesEEG,001,200853,
AFNE01.JPG,AFNE01.JPG,AFNE01.JPG,AFNE01.JPG,AFNE01.JPG,AFNE01.JPG,,,,,,,,,,,,,,,,,,,,,0,5,5,5,,,AMSA04.jpg,AMNE03.jpg,AMNE01.jpg,AMSA02.jpg,AMNE03.jpg,MN,1,num_6,32,num_4,0.616807759739,,,2017_Jul_06_1045,60.0028867546,FEMA4ImagesEEG,001,200853,
AFNE01.JPG,AFNE01.JPG,AFNE01.JPG,AFNE01.JPG,AFNE01.JPG,AFNE01.JPG,,,,,,,,,,,,,,,,,,,,,0,6,6,3,,,AMSA11.jpg,AMSA08.jpg,AMNE06.jpg,AMNE17.jpg,AMNE06.jpg,MN,1,num_2,32,num_8,0.266704898793,,,2017_Jul_06_1045,60.0028867546,FEMA4ImagesEEG,001,200853,
AFNE01.JPG,AFNE01.JPG,AFNE01.JPG,AFNE01.JPG,AFNE01.JPG,AFNE01.JPG,,,,,,,,,,,,,,,,,,,,,0,7,7,8,,,AMNE18.jpg,AMSA07.jpg,AMSA14.jpg,AMNE07.jpg,AMSA07.jpg,MS,2,num_6,16,num_6,0.483514967957,,,2017_Jul_06_1045,60.0028867546,FEMA4ImagesEEG,001,200853,
AFNE01.JPG,AFNE01.JPG,AFNE01.JPG,AFNE01.JPG,AFNE01.JPG,AFNE01.JPG,,,,,,,,,,,,,,,,,,,,,0,8,8,2,,,AMNE07.jpg,AMSA07.jpg,AMNE13.jpg,AMSA16.jpg,AMSA16.jpg,MS,2,num_4,32,num_8,0.433478371589,,,2017_Jul_06_1045,60.0028867546,FEMA4ImagesEEG,001,200853,
AFNE01.JPG,AFNE01.JPG,AFNE01.JPG,AFNE01.JPG,AFNE01.JPG,AFNE01.JPG,,,,,,,,,,,,,,,,,,,,,0,9,9,6,,,AMSA15.jpg,AMNE05.jpg,AMNE12.jpg,AMSA07.jpg,AMNE05.jpg,MN,1,num_6,32,num_4,0.533472341602,,,2017_Jul_06_1045,60.0028867546,FEMA4ImagesEEG,001,200853,
AFNE01.JPG,AFNE01.JPG,AFNE01.JPG,AFNE01.JPG,AFNE01.JPG,AFNE01.JPG,,,,,,,,,,,,,,,,,,,,,1,0,10,8,,,AMNE04.jpg,AMSA15.jpg,AMSA03.jpg,AMNE03.jpg,AMNE03.jpg,MN,1,num_4,16,num_4,0.583481033682,,,2017_Jul_06_1045,60.0028867546,FEMA4ImagesEEG,001,200853,
AFNE01.JPG,AFNE01.JPG,AFNE01.JPG,AFNE01.JPG,AFNE01.JPG,AFNE01.JPG,,,,,,,,,,,,,,,,,,,,,1,1,11,0,,,AMNE06.jpg,AMSA07.jpg,AMSA19.jpg,AMNE08.jpg,AMNE06.jpg,MN,1,num_8,32,num_6,0.466799324378,,,2017_Jul_06_1045,60.0028867546,FEMA4ImagesEEG,001,200853,
AFNE01.JPG,AFNE01.JPG,AFNE01.JPG,AFNE01.JPG,AFNE01.JPG,AFNE01.JPG,,,,,,,,,,,,,,,,,,,,,1,2,12,3,,,AMSA15.jpg,AMSA02.jpg,AMNE14.jpg,AMNE05.jpg,AMNE05.jpg,MN,1,num_4,32,num_6,2.03338894958,,,2017_Jul_06_1045,60.0028867546,FEMA4ImagesEEG,001,200853,
AFNE01.JPG,AFNE01.JPG,AFNE01.JPG,AFNE01.JPG,AFNE01.JPG,AFNE01.JPG,,,,,,,,,,,,,,,,,,,,,1,3,13,5,,,AMSA13.jpg,AMNE09.jpg,AMNE14.jpg,AMSA07.jpg,AMNE14.jpg,MN,1,num_2,32,num_8,0.466812153929,,,2017_Jul_06_1045,60.0028867546,FEMA4ImagesEEG,001,200853,
AFNE01.JPG,AFNE01.JPG,AFNE01.JPG,AFNE01.JPG,AFNE01.JPG,AFNE01.JPG,,,,,,,,,,,,,,,,,,,,,1,4,14,4,,,AMSA18.jpg,AMNE08.jpg,AMNE10.jpg,AMSA10.jpg,AMNE10.jpg,MN,1,num_2,16,num_2,0.566796181141,,,2017_Jul_06_1045,60.0028867546,FEMA4ImagesEEG,001,200853,
AFNE01.JPG,AFNE01.JPG,AFNE01.JPG,AFNE01.JPG,AFNE01.JPG,AFNE01.JPG,,,,,,,,,,,,,,,,,,,,,1,5,15,1,,,AMNE12.jpg,AMSA06.jpg,AMSA04.jpg,AMNE17.jpg,AMNE12.jpg,MN,1,num_8,32,num_6,0.350194271654,,,2017_Jul_06_1045,60.0028867546,FEMA4ImagesEEG,001,200853,
AFNE01.JPG,AFNE01.JPG,AFNE01.JPG,AFNE01.JPG,AFNE01.JPG,AFNE01.JPG,,,,,,,,,,,,,,,,,,,,,1,6,16,7,,,AMSA07.jpg,AMNE04.jpg,AMNE20.jpg,AMSA05.jpg,AMNE20.jpg,MN,1,num_2,32,num_4,0.433489276795,,,2017_Jul_06_1045,60.0028867546,FEMA4ImagesEEG,001,200853,
AFNE01.JPG,AFNE01.JPG,AFNE01.JPG,AFNE01.JPG,AFNE01.JPG,AFNE01.JPG,,,,,,,,,,,,,,,,,,,,,1,7,17,6,,,AMSA17.jpg,AMNE15.jpg,AMSA06.jpg,AMNE06.jpg,AMSA06.jpg,MS,2,num_2,32,num_8,0.383916469291,,,2017_Jul_06_1045,60.0028867546,FEMA4ImagesEEG,001,200853,
AFNE01.JPG,AFNE01.JPG,AFNE01.JPG,AFNE01.JPG,AFNE01.JPG,AFNE01.JPG,,,,,,,,,,,,,,,,,,,,,1,8,18,9,,,AMSA08.jpg,AMNE13.jpg,AMSA02.jpg,AMNE07.jpg,AMSA02.jpg,MS,2,num_2,32,num_8,0.433479333762,,,2017_Jul_06_1045,60.0028867546,FEMA4ImagesEEG,001,200853,
AFNE01.JPG,AFNE01.JPG,AFNE01.JPG,AFNE01.JPG,AFNE01.JPG,AFNE01.JPG,,,,,,,,,,,,,,,,,,,,,1,9,19,2,,,AMNE11.jpg,AMSA18.jpg,AMSA04.jpg,AMNE03.jpg,AMNE11.jpg,MN,1,num_8,32,num_2,0.350153537816,,,2017_Jul_06_1045,60.0028867546,FEMA4ImagesEEG,001,200853,
AFNE01.JPG,AFNE01.JPG,AFNE01.JPG,AFNE01.JPG,AFNE01.JPG,AFNE01.JPG,,,,,,,,,,,,,,,,,,,,,2,0,20,8,,,AMNE10.jpg,AMSA04.jpg,AMNE01.jpg,AMSA18.jpg,AMSA04.jpg,MS,2,num_6,16,num_6,0.550198890385,,,2017_Jul_06_1045,60.0028867546,FEMA4ImagesEEG,001,200853,
AFNE01.JPG,AFNE01.JPG,AFNE01.JPG,AFNE01.JPG,AFNE01.JPG,AFNE01.JPG,,,,,,,,,,,,,,,,,,,,,2,1,21,1,,,AMSA08.jpg,AMSA16.jpg,AMNE13.jpg,AMNE04.jpg,AMNE13.jpg,MN,1,num_2,32,num_4,0.333546304144,,,2017_Jul_06_1045,60.0028867546,FEMA4ImagesEEG,001,200853,
AFNE01.JPG,AFNE01.JPG,AFNE01.JPG,AFNE01.JPG,AFNE01.JPG,AFNE01.JPG,,,,,,,,,,,,,,,,,,,,,2,2,22,0,,,AMNE10.jpg,AMSA05.jpg,AMNE19.jpg,AMSA13.jpg,AMSA13.jpg,MS,2,num_4,32,num_8,0.450186317437,,,2017_Jul_06_1045,60.0028867546,FEMA4ImagesEEG,001,200853,
AFNE01.JPG,AFNE01.JPG,AFNE01.JPG,AFNE01.JPG,AFNE01.JPG,AFNE01.JPG,,,,,,,,,,,,,,,,,,,,,2,3,23,3,,,AMNE13.jpg,AMNE01.jpg,AMSA02.jpg,AMSA17.jpg,AMNE13.jpg,MN,1,num_8,32,num_6,0.816753683263,,,2017_Jul_06_1045,60.0028867546,FEMA4ImagesEEG,001,200853,
AFNE01.JPG,AFNE01.JPG,AFNE01.JPG,AFNE01.JPG,AFNE01.JPG,AFNE01.JPG,,,,,,,,,,,,,,,,,,,,,2,4,24,6,,,AMNE03.jpg,AMSA15.jpg,AMSA19.jpg,AMNE19.jpg,AMNE03.jpg,MN,1,num_8,32,num_4,0.366772318259,,,2017_Jul_06_1045,60.0028867546,FEMA4ImagesEEG,001,200853,
AFNE01.JPG,AFNE01.JPG,AFNE01.JPG,AFNE01.JPG,AFNE01.JPG,AFNE01.JPG,,,,,,,,,,,,,,,,,,,,,2,5,25,9,,,AMSA09.jpg,AMNE16.jpg,AMSA07.jpg,AMNE05.jpg,AMSA09.jpg,MS,2,num_8,32,num_6,0.383532865206,,,2017_Jul_06_1045,60.0028867546,FEMA4ImagesEEG,001,200853,
AFNE01.JPG,AFNE01.JPG,AFNE01.JPG,AFNE01.JPG,AFNE01.JPG,AFNE01.JPG,,,,,,,,,,,,,,,,,,,,,2,6,26,4,,,AMSA12.jpg,AMNE14.jpg,AMNE19.jpg,AMSA01.jpg,AMNE19.jpg,MN,1,num_2,32,num_4,1.26673504827,,,2017_Jul_06_1045,60.0028867546,FEMA4ImagesEEG,001,200853,
AFNE01.JPG,AFNE01.JPG,AFNE01.JPG,AFNE01.JPG,AFNE01.JPG,AFNE01.JPG,,,,,,,,,,,,,,,,,,,,,2,7,27,7,,,AMNE03.jpg,AMSA14.jpg,AMNE05.jpg,AMSA12.jpg,AMSA14.jpg,MS,2,num_6,16,num_6,0.733488827711,,,2017_Jul_06_1045,60.0028867546,FEMA4ImagesEEG,001,200853,
AFNE01.JPG,AFNE01.JPG,AFNE01.JPG,AFNE01.JPG,AFNE01.JPG,AFNE01.JPG,,,,,,,,,,,,,,,,,,,,,2,8,28,2,,,AMSA10.jpg,AMSA12.jpg,AMNE12.jpg,AMNE08.jpg,AMNE08.jpg,MN,1,num_4,16,num_4,0.48354768334,,,2017_Jul_06_1045,60.0028867546,FEMA4ImagesEEG,001,200853,
AFNE01.JPG,AFNE01.JPG,AFNE01.JPG,AFNE01.JPG,AFNE01.JPG,AFNE01.JPG,,,,,,,,,,,,,,,,,,,,,2,9,29,5,,,AMNE15.jpg,AMSA01.jpg,AMSA18.jpg,AMNE06.jpg,AMSA01.jpg,MS,2,num_6,32,num_8,0.400152607705,,,2017_Jul_06_1045,60.0028867546,FEMA4ImagesEEG,001,200853,
AFNE01.JPG,AFNE01.JPG,AFNE01.JPG,AFNE01.JPG,AFNE01.JPG,AFNE01.JPG,,,,,,,,,,,,,,,,,,,,,3,0,30,8,,,AMNE03.jpg,AMSA16.jpg,AMSA01.jpg,AMNE10.jpg,AMSA01.jpg,MS,2,num_2,32,num_8,0.68338006502,,,2017_Jul_06_1045,60.0028867546,FEMA4ImagesEEG,001,200853,
AFNE01.JPG,AFNE01.JPG,AFNE01.JPG,AFNE01.JPG,AFNE01.JPG,AFNE01.JPG,,,,,,,,,,,,,,,,,,,,,3,1,31,5,,,AMSA16.jpg,AMNE02.jpg,AMNE15.jpg,AMSA13.jpg,AMNE02.jpg,MN,1,num_6,16,num_6,0.716757467948,,,2017_Jul_06_1045,60.0028867546,FEMA4ImagesEEG,001,200853,
AFNE01.JPG,AFNE01.JPG,AFNE01.JPG,AFNE01.JPG,AFNE01.JPG,AFNE01.JPG,,,,,,,,,,,,,,,,,,,,,3,2,32,0,,,AMNE12.jpg,AMSA01.jpg,AMSA09.jpg,AMNE15.jpg,AMNE15.jpg,MN,1,num_4,32,num_2,0.516812506714,,,2017_Jul_06_1045,60.0028867546,FEMA4ImagesEEG,001,200853,
AFNE01.JPG,AFNE01.JPG,AFNE01.JPG,AFNE01.JPG,AFNE01.JPG,AFNE01.JPG,,,,,,,,,,,,,,,,,,,,,3,3,33,7,,,AMSA17.jpg,AMNE09.jpg,AMNE01.jpg,AMSA11.jpg,AMSA11.jpg,MS,2,num_4,16,num_4,0.400208737119,,,2017_Jul_06_1045,60.0028867546,FEMA4ImagesEEG,001,200853,
AFNE01.JPG,AFNE01.JPG,AFNE01.JPG,AFNE01.JPG,AFNE01.JPG,AFNE01.JPG,,,,,,,,,,,,,,,,,,,,,3,4,34,9,,,AMSA07.jpg,AMNE18.jpg,AMNE12.jpg,AMSA04.jpg,AMSA07.jpg,MS,2,num_8,32,num_6,0.333710522624,,,2017_Jul_06_1045,60.0028867546,FEMA4ImagesEEG,001,200853,
AFNE01.JPG,AFNE01.JPG,AFNE01.JPG,AFNE01.JPG,AFNE01.JPG,AFNE01.JPG,,,,,,,,,,,,,,,,,,,,,3,5,35,6,,,AMSA02.jpg,AMNE03.jpg,AMSA08.jpg,AMNE08.jpg,AMNE03.jpg,MN,1,num_6,32,num_8,0.283510028501,,,2017_Jul_06_1045,60.0028867546,FEMA4ImagesEEG,001,200853,
AFNE01.JPG,AFNE01.JPG,AFNE01.JPG,AFNE01.JPG,AFNE01.JPG,AFNE01.JPG,,,,,,,,,,,,,,,,,,,,,3,6,36,1,,,AMNE14.jpg,AMSA15.jpg,AMNE17.jpg,AMSA08.jpg,AMSA08.jpg,MS,2,num_4,16,num_4,0.56719389779,,,2017_Jul_06_1045,60.0028867546,FEMA4ImagesEEG,001,200853,
AFNE01.JPG,AFNE01.JPG,AFNE01.JPG,AFNE01.JPG,AFNE01.JPG,AFNE01.JPG,,,,,,,,,,,,,,,,,,,,,3,7,37,2,,,AMNE13.jpg,AMNE02.jpg,AMSA02.jpg,AMSA10.jpg,AMSA02.jpg,MS,2,num_2,16,num_2,0.733466696693,,,2017_Jul_06_1045,60.0028867546,FEMA4ImagesEEG,001,200853,
AFNE01.JPG,AFNE01.JPG,AFNE01.JPG,AFNE01.JPG,AFNE01.JPG,AFNE01.JPG,,,,,,,,,,,,,,,,,,,,,3,8,38,4,,,AMNE02.jpg,AMSA02.jpg,AMSA03.jpg,AMNE01.jpg,AMSA03.jpg,MS,2,num_2,32,num_4,0.783570969012,,,2017_Jul_06_1045,60.0028867546,FEMA4ImagesEEG,001,200853,
