IPosition2,IPosition3,IPosition1,IPosition6,IPosition4,IPosition5,TrialsM1.thisRepN,TrialsM1.thisTrialN,TrialsM1.thisN,TrialsM1.thisIndex,TrialsF1.thisRepN,TrialsF1.thisTrialN,TrialsF1.thisN,TrialsF1.thisIndex,TrialsM2.thisRepN,TrialsM2.thisTrialN,TrialsM2.thisN,TrialsM2.thisIndex,TrialsF2.thisRepN,TrialsF2.thisTrialN,TrialsF2.thisN,TrialsF2.thisIndex,TrialsM3.thisRepN,TrialsM3.thisTrialN,TrialsM3.thisN,TrialsM3.thisIndex,TrialsF3.thisRepN,TrialsF3.thisTrialN,TrialsF3.thisN,TrialsF3.thisIndex,InstrKey_resp.keys,InstrKey_resp.rt,Image0 _Position,Image1 _Position,Image2 _Position,Image3 _Position,Center_image,condition,code,correct_answer,accuracy,Key_Resp.keys,Key_Resp.rt,BreakKey_resp.keys,BreakKey_resp.rt,date,frameRate,expName,session,participant,
,,,,,,,,,,,,,,,,,,,,,,,,,,,,,,space,18.9325254555,,,,,,,,,,,,,,2017_Jul_07_1544,60.008661195,MAFE4ImagesEEG,001,200867,
AFSA21.JPG,AFNE22.JPG,AFNE21.JPG,AFSA23.JPG,AFSA22.JPG,AFNE23.JPG,0,0,0,0,,,,,,,,,,,,,,,,,,,,,,,AMSA12.jpg,AMSA14.jpg,AMNE17.jpg,AMNE04.jpg,AMNE04.jpg,MN,1,num_4,32,num_6,1.41673771036,,,2017_Jul_07_1544,60.008661195,MAFE4ImagesEEG,001,200867,
AFSA21.JPG,AFNE23.JPG,AFNE21.JPG,AFSA25.JPG,AFNE25.JPG,AFSA23.JPG,0,1,1,4,,,,,,,,,,,,,,,,,,,,,,,AMSA11.jpg,AMNE16.jpg,AMNE06.jpg,AMSA20.jpg,AMSA11.jpg,MS,2,num_8,32,num_4,0.700127782533,,,2017_Jul_07_1544,60.008661195,MAFE4ImagesEEG,001,200867,
AMSA25.JPG,AMNE24.JPG,AMSA24.JPG,AMNE26.JPG,AMSA21.JPG,AMNE25.JPG,0,2,2,3,,,,,,,,,,,,,,,,,,,,,,,AMSA12.jpg,AMNE09.jpg,AMSA03.jpg,AMNE17.jpg,AMNE17.jpg,MN,1,num_4,32,num_8,1.01673456712,,,2017_Jul_07_1544,60.008661195,MAFE4ImagesEEG,001,200867,
AMSA21.JPG,AMNE22.JPG,AMNE21.JPG,AMSA23.JPG,AMSA22.JPG,AMNE23.JPG,0,3,3,1,,,,,,,,,,,,,,,,,,,,,,,AMSA20.jpg,AMNE02.jpg,AMNE01.jpg,AMSA11.jpg,AMSA20.jpg,MS,2,num_8,16,num_8,0.633531742613,,,2017_Jul_07_1544,60.008661195,MAFE4ImagesEEG,001,200867,
AFSA25.JPG,AFNE24.JPG,AFSA24.JPG,AFNE21.JPG,AFSA21.JPG,AFNE25.JPG,0,4,4,2,,,,,,,,,,,,,,,,,,,,,,,AMNE02.jpg,AMSA09.jpg,AMSA17.jpg,AMNE06.jpg,AMSA09.jpg,MS,2,num_6,16,num_6,0.766775140655,,,2017_Jul_07_1544,60.008661195,MAFE4ImagesEEG,001,200867,
AFNE23.JPG,AFNE24.JPG,AFNE22.JPG,AFSA24.JPG,AFSA22.JPG,AFSA23.JPG,0,5,5,8,,,,,,,,,,,,,,,,,,,,,,,AMSA01.jpg,AMSA16.jpg,AMNE07.jpg,AMNE13.jpg,AMSA01.jpg,MS,2,num_8,32,num_6,0.716747525032,,,2017_Jul_07_1544,60.008661195,MAFE4ImagesEEG,001,200867,
AMNE23.JPG,AMNE24.JPG,AMNE22.JPG,AMSA24.JPG,AMSA22.JPG,AMSA23.JPG,0,6,6,9,,,,,,,,,,,,,,,,,,,,,,,AMSA17.jpg,AMNE03.jpg,AMNE08.jpg,AMSA13.jpg,AMNE08.jpg,MN,1,num_2,32,num_8,1.05015526991,,,2017_Jul_07_1544,60.008661195,MAFE4ImagesEEG,001,200867,
AFNE22.JPG,AFSA24.JPG,AFSA22.JPG,AFNE25.JPG,AFNE24.JPG,AFSA25.JPG,0,7,7,6,,,,,,,,,,,,,,,,,,,,,,,AMSA16.jpg,AMNE15.jpg,AMSA18.jpg,AMNE03.jpg,AMSA18.jpg,MS,2,num_2,16,num_2,1.06193954835,,,2017_Jul_07_1544,60.008661195,MAFE4ImagesEEG,001,200867,
AMSA21.JPG,AMNE23.JPG,AMNE21.JPG,AMSA25.JPG,AMNE25.JPG,AMSA23.JPG,0,8,8,5,,,,,,,,,,,,,,,,,,,,,,,AMNE13.jpg,AMNE05.jpg,AMSA10.jpg,AMSA07.jpg,AMNE05.jpg,MN,1,num_6,16,num_6,0.766872966196,,,2017_Jul_07_1544,60.008661195,MAFE4ImagesEEG,001,200867,
AMNE22.JPG,AMSA24.JPG,AMSA22.JPG,AMNE25.JPG,AMNE24.JPG,AMSA25.JPG,0,9,9,7,,,,,,,,,,,,,,,,,,,,,,,AMSA10.jpg,AMSA16.jpg,AMNE12.jpg,AMNE06.jpg,AMSA10.jpg,MS,2,num_8,32,num_4,0.550286131445,,,2017_Jul_07_1544,60.008661195,MAFE4ImagesEEG,001,200867,
AFSA21.JPG,AFNE23.JPG,AFNE21.JPG,AFSA25.JPG,AFNE25.JPG,AFSA23.JPG,,,,,0,0,0,4,,,,,,,,,,,,,,,,,,,AFNE13.jpg,AFNE14.jpg,AFSA18.jpg,AFSA10.jpg,AFNE13.jpg,FN,3,num_8,32,num_6,0.716964665451,,,2017_Jul_07_1544,60.008661195,MAFE4ImagesEEG,001,200867,
AFSA21.JPG,AFNE22.JPG,AFNE21.JPG,AFSA23.JPG,AFSA22.JPG,AFNE23.JPG,,,,,0,1,1,0,,,,,,,,,,,,,,,,,,,AFNE04.jpg,AFSA02.jpg,AFNE06.jpg,AFSA15.jpg,AFNE04.jpg,FN,3,num_8,32,num_6,0.666788547533,,,2017_Jul_07_1544,60.008661195,MAFE4ImagesEEG,001,200867,
AMNE22.JPG,AMSA24.JPG,AMSA22.JPG,AMNE25.JPG,AMNE24.JPG,AMSA25.JPG,,,,,0,2,2,7,,,,,,,,,,,,,,,,,,,AFNE04.jpg,AFSA17.jpg,AFSA12.jpg,AFNE15.jpg,AFSA17.jpg,FS,4,num_6,32,num_8,0.783591496293,,,2017_Jul_07_1544,60.008661195,MAFE4ImagesEEG,001,200867,
AFNE22.JPG,AFSA24.JPG,AFSA22.JPG,AFNE25.JPG,AFNE24.JPG,AFSA25.JPG,,,,,0,3,3,6,,,,,,,,,,,,,,,,,,,AFNE08.jpg,AFSA03.jpg,AFSA19.jpg,AFNE18.jpg,AFNE18.jpg,FN,3,num_4,32,num_6,0.633456368931,,,2017_Jul_07_1544,60.008661195,MAFE4ImagesEEG,001,200867,
AFSA25.JPG,AFNE24.JPG,AFSA24.JPG,AFNE21.JPG,AFSA21.JPG,AFNE25.JPG,,,,,0,4,4,2,,,,,,,,,,,,,,,,,,,AFSA05.jpg,AFSA03.jpg,AFNE15.jpg,AFNE16.jpg,AFSA03.jpg,FS,4,num_6,16,num_6,0.466773665161,,,2017_Jul_07_1544,60.008661195,MAFE4ImagesEEG,001,200867,
AMSA25.JPG,AMNE24.JPG,AMSA24.JPG,AMNE26.JPG,AMSA21.JPG,AMNE25.JPG,,,,,0,5,5,3,,,,,,,,,,,,,,,,,,,AFSA13.jpg,AFNE15.jpg,AFSA16.jpg,AFNE14.jpg,AFNE14.jpg,FN,3,num_4,32,num_8,0.816790568177,,,2017_Jul_07_1544,60.008661195,MAFE4ImagesEEG,001,200867,
AMSA21.JPG,AMNE23.JPG,AMNE21.JPG,AMSA25.JPG,AMNE25.JPG,AMSA23.JPG,,,,,0,6,6,5,,,,,,,,,,,,,,,,,,,AFSA16.jpg,AFSA03.jpg,AFNE03.jpg,AFNE11.jpg,AFNE03.jpg,FN,3,num_2,16,num_2,1.01685676875,,,2017_Jul_07_1544,60.008661195,MAFE4ImagesEEG,001,200867,
AMNE23.JPG,AMNE24.JPG,AMNE22.JPG,AMSA24.JPG,AMSA22.JPG,AMSA23.JPG,,,,,0,7,7,9,,,,,,,,,,,,,,,,,,,AFNE06.jpg,AFSA14.jpg,AFNE19.jpg,AFSA08.jpg,AFNE06.jpg,FN,3,num_8,32,num_4,1.04992337537,,,2017_Jul_07_1544,60.008661195,MAFE4ImagesEEG,001,200867,
AMSA21.JPG,AMNE22.JPG,AMNE21.JPG,AMSA23.JPG,AMSA22.JPG,AMNE23.JPG,,,,,0,8,8,1,,,,,,,,,,,,,,,,,,,AFSA20.jpg,AFNE16.jpg,AFSA08.jpg,AFNE19.jpg,AFSA20.jpg,FS,4,num_8,32,num_6,1.25006078009,,,2017_Jul_07_1544,60.008661195,MAFE4ImagesEEG,001,200867,
AFNE23.JPG,AFNE24.JPG,AFNE22.JPG,AFSA24.JPG,AFSA22.JPG,AFSA23.JPG,,,,,0,9,9,8,,,,,,,,,,,,,,,,,,,AFSA10.jpg,AFSA14.jpg,AFNE17.jpg,AFNE12.jpg,AFSA10.jpg,FS,4,num_8,32,num_4,0.750141606317,,,2017_Jul_07_1544,60.008661195,MAFE4ImagesEEG,001,200867,
AFSA25.JPG,AFNE24.JPG,AFSA24.JPG,AFNE21.JPG,AFSA21.JPG,AFNE25.JPG,,,,,,,,,0,0,0,2,,,,,,,,,,,,,,,AMNE08.jpg,AMSA05.jpg,AMNE14.jpg,AMSA15.jpg,AMNE08.jpg,MN,1,num_8,32,num_4,0.767058994854,,,2017_Jul_07_1544,60.008661195,MAFE4ImagesEEG,001,200867,
AMSA25.JPG,AMNE24.JPG,AMSA24.JPG,AMNE26.JPG,AMSA21.JPG,AMNE25.JPG,,,,,,,,,0,1,1,3,,,,,,,,,,,,,,,AMNE06.jpg,AMNE08.jpg,AMSA10.jpg,AMSA17.jpg,AMSA10.jpg,MS,2,num_2,16,num_2,1.11661210889,,,2017_Jul_07_1544,60.008661195,MAFE4ImagesEEG,001,200867,
AFSA21.JPG,AFNE22.JPG,AFNE21.JPG,AFSA23.JPG,AFSA22.JPG,AFNE23.JPG,,,,,,,,,0,2,2,0,,,,,,,,,,,,,,,AMNE01.jpg,AMSA08.jpg,AMSA10.jpg,AMNE11.jpg,AMNE11.jpg,MN,1,num_4,32,num_6,0.61676895048,,,2017_Jul_07_1544,60.008661195,MAFE4ImagesEEG,001,200867,
AFNE23.JPG,AFNE24.JPG,AFNE22.JPG,AFSA24.JPG,AFSA22.JPG,AFSA23.JPG,,,,,,,,,0,3,3,8,,,,,,,,,,,,,,,AMNE07.jpg,AMSA10.jpg,AMNE06.jpg,AMSA14.jpg,AMNE06.jpg,MN,1,num_2,32,num_6,0.683677069494,,,2017_Jul_07_1544,60.008661195,MAFE4ImagesEEG,001,200867,
AFNE22.JPG,AFSA24.JPG,AFSA22.JPG,AFNE25.JPG,AFNE24.JPG,AFSA25.JPG,,,,,,,,,0,4,4,6,,,,,,,,,,,,,,,AMNE16.jpg,AMSA11.jpg,AMSA10.jpg,AMNE12.jpg,AMNE16.jpg,MN,1,num_8,32,num_2,1.20009250112,,,2017_Jul_07_1544,60.008661195,MAFE4ImagesEEG,001,200867,
AMSA21.JPG,AMNE22.JPG,AMNE21.JPG,AMSA23.JPG,AMSA22.JPG,AMNE23.JPG,,,,,,,,,0,5,5,1,,,,,,,,,,,,,,,AMNE09.jpg,AMNE20.jpg,AMSA17.jpg,AMSA11.jpg,AMSA17.jpg,MS,2,num_2,16,num_2,3.33331473044,,,2017_Jul_07_1544,60.008661195,MAFE4ImagesEEG,001,200867,
AMNE23.JPG,AMNE24.JPG,AMNE22.JPG,AMSA24.JPG,AMSA22.JPG,AMSA23.JPG,,,,,,,,,0,6,6,9,,,,,,,,,,,,,,,AMNE02.jpg,AMNE20.jpg,AMSA18.jpg,AMSA12.jpg,AMNE20.jpg,MN,1,num_6,16,num_6,0.683441646979,,,2017_Jul_07_1544,60.008661195,MAFE4ImagesEEG,001,200867,
AMSA21.JPG,AMNE23.JPG,AMNE21.JPG,AMSA25.JPG,AMNE25.JPG,AMSA23.JPG,,,,,,,,,0,7,7,5,,,,,,,,,,,,,,,AMSA05.jpg,AMNE10.jpg,AMSA09.jpg,AMNE04.jpg,AMNE04.jpg,MN,1,num_4,16,num_4,1.01682790217,,,2017_Jul_07_1544,60.008661195,MAFE4ImagesEEG,001,200867,
AMNE22.JPG,AMSA24.JPG,AMSA22.JPG,AMNE25.JPG,AMNE24.JPG,AMSA25.JPG,,,,,,,,,0,8,8,7,,,,,,,,,,,,,,,AMNE11.jpg,AMSA18.jpg,AMNE08.jpg,AMSA17.jpg,AMNE08.jpg,MN,1,num_2,32,num_4,0.56681574625,,,2017_Jul_07_1544,60.008661195,MAFE4ImagesEEG,001,200867,
AFSA21.JPG,AFNE23.JPG,AFNE21.JPG,AFSA25.JPG,AFNE25.JPG,AFSA23.JPG,,,,,,,,,0,9,9,4,,,,,,,,,,,,,,,AMNE17.jpg,AMSA15.jpg,AMSA20.jpg,AMNE11.jpg,AMNE11.jpg,MN,1,num_4,32,num_6,0.616790760658,,,2017_Jul_07_1544,60.008661195,MAFE4ImagesEEG,001,200867,
AMNE23.JPG,AMNE24.JPG,AMNE22.JPG,AMSA24.JPG,AMSA22.JPG,AMSA23.JPG,,,,,,,,,,,,,0,0,0,9,,,,,,,,,,,AFNE15.jpg,AFSA14.jpg,AFSA19.jpg,AFNE09.jpg,AFNE09.jpg,FN,3,num_4,16,num_4,0.616846569232,,,2017_Jul_07_1544,60.008661195,MAFE4ImagesEEG,001,200867,
AFSA21.JPG,AFNE23.JPG,AFNE21.JPG,AFSA25.JPG,AFNE25.JPG,AFSA23.JPG,,,,,,,,,,,,,0,1,1,4,,,,,,,,,,,AFSA18.jpg,AFSA17.jpg,AFNE17.jpg,AFNE01.jpg,AFSA17.jpg,FS,4,num_6,16,num_6,0.683436835883,,,2017_Jul_07_1544,60.008661195,MAFE4ImagesEEG,001,200867,
AMSA21.JPG,AMNE23.JPG,AMNE21.JPG,AMSA25.JPG,AMNE25.JPG,AMSA23.JPG,,,,,,,,,,,,,0,2,2,5,,,,,,,,,,,AFSA05.jpg,AFSA14.jpg,AFNE16.jpg,AFNE06.jpg,AFSA05.jpg,FS,4,num_8,32,num_6,0.833588962443,,,2017_Jul_07_1544,60.008661195,MAFE4ImagesEEG,001,200867,
AFSA21.JPG,AFNE22.JPG,AFNE21.JPG,AFSA23.JPG,AFSA22.JPG,AFNE23.JPG,,,,,,,,,,,,,0,3,3,0,,,,,,,,,,,AFNE13.jpg,AFSA13.jpg,AFSA18.jpg,AFNE01.jpg,AFNE01.jpg,FN,3,num_4,32,num_8,0.800121752662,,,2017_Jul_07_1544,60.008661195,MAFE4ImagesEEG,001,200867,
AFNE22.JPG,AFSA24.JPG,AFSA22.JPG,AFNE25.JPG,AFNE24.JPG,AFSA25.JPG,,,,,,,,,,,,,0,4,4,6,,,,,,,,,,,AFSA10.jpg,AFNE11.jpg,AFSA15.jpg,AFNE20.jpg,AFSA10.jpg,FS,4,num_8,32,num_4,0.63365201978,,,2017_Jul_07_1544,60.008661195,MAFE4ImagesEEG,001,200867,
AFNE23.JPG,AFNE24.JPG,AFNE22.JPG,AFSA24.JPG,AFSA22.JPG,AFSA23.JPG,,,,,,,,,,,,,0,5,5,8,,,,,,,,,,,AFNE17.jpg,AFNE12.jpg,AFSA17.jpg,AFSA12.jpg,AFSA17.jpg,FS,4,num_2,32,num_8,0.76675397181,,,2017_Jul_07_1544,60.008661195,MAFE4ImagesEEG,001,200867,
AFSA25.JPG,AFNE24.JPG,AFSA24.JPG,AFNE21.JPG,AFSA21.JPG,AFNE25.JPG,,,,,,,,,,,,,0,6,6,2,,,,,,,,,,,AFSA02.jpg,AFNE05.jpg,AFSA07.jpg,AFNE04.jpg,AFSA02.jpg,FS,4,num_8,32,num_6,0.750099910307,,,2017_Jul_07_1544,60.008661195,MAFE4ImagesEEG,001,200867,
AMSA25.JPG,AMNE24.JPG,AMSA24.JPG,AMNE26.JPG,AMSA21.JPG,AMNE25.JPG,,,,,,,,,,,,,0,7,7,3,,,,,,,,,,,AFNE12.jpg,AFSA08.jpg,AFSA14.jpg,AFNE05.jpg,AFNE12.jpg,FN,3,num_8,32,num_6,0.816757852794,,,2017_Jul_07_1544,60.008661195,MAFE4ImagesEEG,001,200867,
AMSA21.JPG,AMNE22.JPG,AMNE21.JPG,AMSA23.JPG,AMSA22.JPG,AMNE23.JPG,,,,,,,,,,,,,0,8,8,1,,,,,,,,,,,AFNE01.jpg,AFSA02.jpg,AFNE13.jpg,AFSA13.jpg,AFNE01.jpg,FN,3,num_8,32,num_6,0.616749385372,,,2017_Jul_07_1544,60.008661195,MAFE4ImagesEEG,001,200867,
AMNE22.JPG,AMSA24.JPG,AMSA22.JPG,AMNE25.JPG,AMNE24.JPG,AMSA25.JPG,,,,,,,,,,,,,0,9,9,7,,,,,,,,,,,AFNE18.jpg,AFSA18.jpg,AFNE11.jpg,AFSA06.jpg,AFSA18.jpg,FS,4,num_6,16,num_6,0.583474298241,,,2017_Jul_07_1544,60.008661195,MAFE4ImagesEEG,001,200867,
AFNE22.JPG,AFSA24.JPG,AFSA22.JPG,AFNE25.JPG,AFNE24.JPG,AFSA25.JPG,,,,,,,,,,,,,,,,,0,0,0,6,,,,,,,AMSA07.jpg,AMSA17.jpg,AMNE05.jpg,AMNE02.jpg,AMNE05.jpg,MN,1,num_2,16,num_2,1.28342022165,,,2017_Jul_07_1544,60.008661195,MAFE4ImagesEEG,001,200867,
AMSA25.JPG,AMNE24.JPG,AMSA24.JPG,AMNE26.JPG,AMSA21.JPG,AMNE25.JPG,,,,,,,,,,,,,,,,,0,1,1,3,,,,,,,AMSA06.jpg,AMNE04.jpg,AMSA10.jpg,AMNE12.jpg,AMSA10.jpg,MS,2,num_2,32,num_6,0.683451589895,,,2017_Jul_07_1544,60.008661195,MAFE4ImagesEEG,001,200867,
AMSA21.JPG,AMNE23.JPG,AMNE21.JPG,AMSA25.JPG,AMNE25.JPG,AMSA23.JPG,,,,,,,,,,,,,,,,,0,2,2,5,,,,,,,AMSA13.jpg,AMNE09.jpg,AMNE07.jpg,AMSA02.jpg,AMSA02.jpg,MS,2,num_4,16,num_4,0.733565805131,,,2017_Jul_07_1544,60.008661195,MAFE4ImagesEEG,001,200867,
AMNE23.JPG,AMNE24.JPG,AMNE22.JPG,AMSA24.JPG,AMSA22.JPG,AMSA23.JPG,,,,,,,,,,,,,,,,,0,3,3,9,,,,,,,AMSA05.jpg,AMNE18.jpg,AMSA18.jpg,AMNE03.jpg,AMNE18.jpg,MN,1,num_6,32,num_8,0.933429298457,,,2017_Jul_07_1544,60.008661195,MAFE4ImagesEEG,001,200867,
AMSA21.JPG,AMNE22.JPG,AMNE21.JPG,AMSA23.JPG,AMSA22.JPG,AMNE23.JPG,,,,,,,,,,,,,,,,,0,4,4,1,,,,,,,AMNE15.jpg,AMSA05.jpg,AMSA17.jpg,AMNE02.jpg,AMSA05.jpg,MS,2,num_6,16,num_6,0.93343314738,,,2017_Jul_07_1544,60.008661195,MAFE4ImagesEEG,001,200867,
AFSA21.JPG,AFNE23.JPG,AFNE21.JPG,AFSA25.JPG,AFNE25.JPG,AFSA23.JPG,,,,,,,,,,,,,,,,,0,5,5,4,,,,,,,AMSA15.jpg,AMNE15.jpg,AMNE10.jpg,AMSA05.jpg,AMNE10.jpg,MN,1,num_2,32,num_4,0.950095227454,,,2017_Jul_07_1544,60.008661195,MAFE4ImagesEEG,001,200867,
AMNE22.JPG,AMSA24.JPG,AMSA22.JPG,AMNE25.JPG,AMNE24.JPG,AMSA25.JPG,,,,,,,,,,,,,,,,,0,6,6,7,,,,,,,AMNE14.jpg,AMSA01.jpg,AMNE02.jpg,AMSA08.jpg,AMNE14.jpg,MN,1,num_8,16,num_8,0.800238822354,,,2017_Jul_07_1544,60.008661195,MAFE4ImagesEEG,001,200867,
AFNE23.JPG,AFNE24.JPG,AFNE22.JPG,AFSA24.JPG,AFSA22.JPG,AFSA23.JPG,,,,,,,,,,,,,,,,,0,7,7,8,,,,,,,AMNE10.jpg,AMSA18.jpg,AMSA10.jpg,AMNE11.jpg,AMNE10.jpg,MN,1,num_8,16,num_8,1.00025113882,,,2017_Jul_07_1544,60.008661195,MAFE4ImagesEEG,001,200867,
AFSA25.JPG,AFNE24.JPG,AFSA24.JPG,AFNE21.JPG,AFSA21.JPG,AFNE25.JPG,,,,,,,,,,,,,,,,,0,8,8,2,,,,,,,AMSA01.jpg,AMNE05.jpg,AMSA16.jpg,AMNE01.jpg,AMNE01.jpg,MN,1,num_4,32,num_8,0.700106292963,,,2017_Jul_07_1544,60.008661195,MAFE4ImagesEEG,001,200867,
AFSA21.JPG,AFNE22.JPG,AFNE21.JPG,AFSA23.JPG,AFSA22.JPG,AFNE23.JPG,,,,,,,,,,,,,,,,,0,9,9,0,,,,,,,AMSA09.jpg,AMSA17.jpg,AMNE19.jpg,AMNE04.jpg,AMSA17.jpg,MS,2,num_6,32,num_8,0.950109981466,,,2017_Jul_07_1544,60.008661195,MAFE4ImagesEEG,001,200867,
AFSA21.JPG,AFNE22.JPG,AFNE21.JPG,AFSA23.JPG,AFSA22.JPG,AFNE23.JPG,,,,,,,,,,,,,,,,,,,,,0,0,0,0,,,AFNE20.jpg,AFSA10.jpg,AFSA04.jpg,AFNE19.jpg,AFNE20.jpg,FN,3,num_8,16,num_8,0.666797528276,,,2017_Jul_07_1544,60.008661195,MAFE4ImagesEEG,001,200867,
AFSA25.JPG,AFNE24.JPG,AFSA24.JPG,AFNE21.JPG,AFSA21.JPG,AFNE25.JPG,,,,,,,,,,,,,,,,,,,,,0,1,1,2,,,AFSA18.jpg,AFSA06.jpg,AFNE15.jpg,AFNE16.jpg,AFSA06.jpg,FS,4,num_6,32,num_4,1.06679329451,,,2017_Jul_07_1544,60.008661195,MAFE4ImagesEEG,001,200867,
AFSA21.JPG,AFNE23.JPG,AFNE21.JPG,AFSA25.JPG,AFNE25.JPG,AFSA23.JPG,,,,,,,,,,,,,,,,,,,,,0,2,2,4,,,AFSA17.jpg,AFNE04.jpg,AFNE20.jpg,AFSA01.jpg,AFSA17.jpg,FS,4,num_8,32,num_4,0.900111553026,,,2017_Jul_07_1544,60.008661195,MAFE4ImagesEEG,001,200867,
AMNE22.JPG,AMSA24.JPG,AMSA22.JPG,AMNE25.JPG,AMNE24.JPG,AMSA25.JPG,,,,,,,,,,,,,,,,,,,,,0,3,3,7,,,AFSA12.jpg,AFSA14.jpg,AFNE17.jpg,AFNE14.jpg,AFNE17.jpg,FN,3,num_2,32,num_4,0.716814880259,,,2017_Jul_07_1544,60.008661195,MAFE4ImagesEEG,001,200867,
AFNE22.JPG,AFSA24.JPG,AFSA22.JPG,AFNE25.JPG,AFNE24.JPG,AFSA25.JPG,,,,,,,,,,,,,,,,,,,,,0,4,4,6,,,AFSA08.jpg,AFSA18.jpg,AFNE02.jpg,AFNE04.jpg,AFNE02.jpg,FN,3,num_2,32,num_6,1.00016678439,,,2017_Jul_07_1544,60.008661195,MAFE4ImagesEEG,001,200867,
AMSA21.JPG,AMNE23.JPG,AMNE21.JPG,AMSA25.JPG,AMNE25.JPG,AMSA23.JPG,,,,,,,,,,,,,,,,,,,,,0,5,5,5,,,AFSA04.jpg,AFNE03.jpg,AFNE13.jpg,AFSA05.jpg,AFNE03.jpg,FN,3,num_6,16,num_6,0.650138334837,,,2017_Jul_07_1544,60.008661195,MAFE4ImagesEEG,001,200867,
AMSA25.JPG,AMNE24.JPG,AMSA24.JPG,AMNE26.JPG,AMSA21.JPG,AMNE25.JPG,,,,,,,,,,,,,,,,,,,,,0,6,6,3,,,AFNE09.jpg,AFSA14.jpg,AFSA10.jpg,AFNE14.jpg,AFNE09.jpg,FN,3,num_8,32,num_6,0.633295999258,,,2017_Jul_07_1544,60.008661195,MAFE4ImagesEEG,001,200867,
AMSA21.JPG,AMNE22.JPG,AMNE21.JPG,AMSA23.JPG,AMSA22.JPG,AMNE23.JPG,,,,,,,,,,,,,,,,,,,,,0,7,7,1,,,AFSA19.jpg,AFNE16.jpg,AFNE17.jpg,AFSA10.jpg,AFNE17.jpg,FN,3,num_2,32,num_6,0.883381155552,,,2017_Jul_07_1544,60.008661195,MAFE4ImagesEEG,001,200867,
AMNE23.JPG,AMNE24.JPG,AMNE22.JPG,AMSA24.JPG,AMSA22.JPG,AMSA23.JPG,,,,,,,,,,,,,,,,,,,,,0,8,8,9,,,AFSA03.jpg,AFSA08.jpg,AFNE11.jpg,AFNE15.jpg,AFNE15.jpg,FN,3,num_4,16,num_4,0.516821808182,,,2017_Jul_07_1544,60.008661195,MAFE4ImagesEEG,001,200867,
AFNE23.JPG,AFNE24.JPG,AFNE22.JPG,AFSA24.JPG,AFSA22.JPG,AFSA23.JPG,,,,,,,,,,,,,,,,,,,,,0,9,9,8,,,AFNE09.jpg,AFSA08.jpg,AFNE04.jpg,AFSA06.jpg,AFSA08.jpg,FS,4,num_6,16,num_6,0.883493414265,,,2017_Jul_07_1544,60.008661195,MAFE4ImagesEEG,001,200867,
,,,,,,,,,,,,,,,,,,,,,,,,,,,,,,,,,,,,,,,,,,,space,16.9651513664,2017_Jul_07_1544,60.008661195,MAFE4ImagesEEG,001,200867,
AFNE01.JPG,AFNE01.JPG,AFNE01.JPG,AFNE01.JPG,AFNE01.JPG,AFNE01.JPG,0,0,0,7,,,,,,,,,,,,,,,,,,,,,,,AMNE06.jpg,AMNE13.jpg,AMSA15.jpg,AMSA13.jpg,AMNE13.jpg,MN,1,num_6,16,num_6,1.56671118527,,,2017_Jul_07_1544,60.008661195,MAFE4ImagesEEG,001,200867,
AFNE01.JPG,AFNE01.JPG,AFNE01.JPG,AFNE01.JPG,AFNE01.JPG,AFNE01.JPG,0,1,1,6,,,,,,,,,,,,,,,,,,,,,,,AMNE03.jpg,AMSA11.jpg,AMNE01.jpg,AMSA07.jpg,AMSA07.jpg,MS,2,num_4,16,num_4,0.600331066991,,,2017_Jul_07_1544,60.008661195,MAFE4ImagesEEG,001,200867,
AFNE01.JPG,AFNE01.JPG,AFNE01.JPG,AFNE01.JPG,AFNE01.JPG,AFNE01.JPG,0,2,2,9,,,,,,,,,,,,,,,,,,,,,,,AMNE08.jpg,AMSA01.jpg,AMNE12.jpg,AMSA15.jpg,AMSA15.jpg,MS,2,num_4,16,num_4,0.516798714991,,,2017_Jul_07_1544,60.008661195,MAFE4ImagesEEG,001,200867,
AFNE01.JPG,AFNE01.JPG,AFNE01.JPG,AFNE01.JPG,AFNE01.JPG,AFNE01.JPG,0,3,3,4,,,,,,,,,,,,,,,,,,,,,,,AMSA09.jpg,AMNE03.jpg,AMSA02.jpg,AMNE01.jpg,AMSA09.jpg,MS,2,num_8,16,num_8,0.600170376594,,,2017_Jul_07_1544,60.008661195,MAFE4ImagesEEG,001,200867,
AFNE01.JPG,AFNE01.JPG,AFNE01.JPG,AFNE01.JPG,AFNE01.JPG,AFNE01.JPG,0,4,4,8,,,,,,,,,,,,,,,,,,,,,,,AMNE20.jpg,AMNE16.jpg,AMSA13.jpg,AMSA17.jpg,AMSA13.jpg,MS,2,num_2,32,num_4,0.700116877328,,,2017_Jul_07_1544,60.008661195,MAFE4ImagesEEG,001,200867,
AFNE01.JPG,AFNE01.JPG,AFNE01.JPG,AFNE01.JPG,AFNE01.JPG,AFNE01.JPG,0,5,5,1,,,,,,,,,,,,,,,,,,,,,,,AMSA14.jpg,AMSA18.jpg,AMNE16.jpg,AMNE13.jpg,AMNE13.jpg,MN,1,num_4,16,num_4,1.00011867343,,,2017_Jul_07_1544,60.008661195,MAFE4ImagesEEG,001,200867,
AFNE01.JPG,AFNE01.JPG,AFNE01.JPG,AFNE01.JPG,AFNE01.JPG,AFNE01.JPG,0,6,6,5,,,,,,,,,,,,,,,,,,,,,,,AMNE10.jpg,AMSA16.jpg,AMSA09.jpg,AMNE09.jpg,AMNE09.jpg,MN,1,num_4,16,num_4,0.800150298397,,,2017_Jul_07_1544,60.008661195,MAFE4ImagesEEG,001,200867,
AFNE01.JPG,AFNE01.JPG,AFNE01.JPG,AFNE01.JPG,AFNE01.JPG,AFNE01.JPG,0,7,7,3,,,,,,,,,,,,,,,,,,,,,,,AMSA16.jpg,AMSA03.jpg,AMNE01.jpg,AMNE10.jpg,AMNE01.jpg,MN,1,num_2,32,num_6,0.966773023712,,,2017_Jul_07_1544,60.008661195,MAFE4ImagesEEG,001,200867,
AFNE01.JPG,AFNE01.JPG,AFNE01.JPG,AFNE01.JPG,AFNE01.JPG,AFNE01.JPG,0,8,8,2,,,,,,,,,,,,,,,,,,,,,,,AMSA13.jpg,AMNE11.jpg,AMNE03.jpg,AMSA20.jpg,AMNE03.jpg,MN,1,num_2,32,num_6,0.666780208354,,,2017_Jul_07_1544,60.008661195,MAFE4ImagesEEG,001,200867,
AFNE01.JPG,AFNE01.JPG,AFNE01.JPG,AFNE01.JPG,AFNE01.JPG,AFNE01.JPG,0,9,9,0,,,,,,,,,,,,,,,,,,,,,,,AMSA01.jpg,AMSA05.jpg,AMNE02.jpg,AMNE04.jpg,AMSA01.jpg,MS,2,num_8,32,num_4,0.850132048363,,,2017_Jul_07_1544,60.008661195,MAFE4ImagesEEG,001,200867,
AFNE01.JPG,AFNE01.JPG,AFNE01.JPG,AFNE01.JPG,AFNE01.JPG,AFNE01.JPG,1,0,10,0,,,,,,,,,,,,,,,,,,,,,,,AMNE06.jpg,AMSA18.jpg,AMSA07.jpg,AMNE20.jpg,AMNE20.jpg,MN,1,num_4,32,num_8,0.933480296051,,,2017_Jul_07_1544,60.008661195,MAFE4ImagesEEG,001,200867,
AFNE01.JPG,AFNE01.JPG,AFNE01.JPG,AFNE01.JPG,AFNE01.JPG,AFNE01.JPG,1,1,11,4,,,,,,,,,,,,,,,,,,,,,,,AMSA01.jpg,AMNE13.jpg,AMSA05.jpg,AMNE10.jpg,AMNE13.jpg,MN,1,num_6,32,num_4,0.566827934235,,,2017_Jul_07_1544,60.008661195,MAFE4ImagesEEG,001,200867,
AFNE01.JPG,AFNE01.JPG,AFNE01.JPG,AFNE01.JPG,AFNE01.JPG,AFNE01.JPG,1,2,12,3,,,,,,,,,,,,,,,,,,,,,,,AMSA20.jpg,AMNE01.jpg,AMNE13.jpg,AMSA09.jpg,AMSA09.jpg,MS,2,num_4,16,num_4,0.633476896212,,,2017_Jul_07_1544,60.008661195,MAFE4ImagesEEG,001,200867,
AFNE01.JPG,AFNE01.JPG,AFNE01.JPG,AFNE01.JPG,AFNE01.JPG,AFNE01.JPG,1,3,13,8,,,,,,,,,,,,,,,,,,,,,,,AMSA20.jpg,AMSA03.jpg,AMNE02.jpg,AMNE17.jpg,AMSA03.jpg,MS,2,num_6,16,num_6,0.733498770627,,,2017_Jul_07_1544,60.008661195,MAFE4ImagesEEG,001,200867,
AFNE01.JPG,AFNE01.JPG,AFNE01.JPG,AFNE01.JPG,AFNE01.JPG,AFNE01.JPG,1,4,14,2,,,,,,,,,,,,,,,,,,,,,,,AMSA09.jpg,AMNE10.jpg,AMSA05.jpg,AMNE17.jpg,AMNE17.jpg,MN,1,num_4,16,num_4,0.550144043984,,,2017_Jul_07_1544,60.008661195,MAFE4ImagesEEG,001,200867,
AFNE01.JPG,AFNE01.JPG,AFNE01.JPG,AFNE01.JPG,AFNE01.JPG,AFNE01.JPG,1,5,15,9,,,,,,,,,,,,,,,,,,,,,,,AMNE01.jpg,AMNE03.jpg,AMSA18.jpg,AMSA01.jpg,AMNE01.jpg,MN,1,num_8,16,num_8,0.86672324501,,,2017_Jul_07_1544,60.008661195,MAFE4ImagesEEG,001,200867,
AFNE01.JPG,AFNE01.JPG,AFNE01.JPG,AFNE01.JPG,AFNE01.JPG,AFNE01.JPG,1,6,16,7,,,,,,,,,,,,,,,,,,,,,,,AMSA12.jpg,AMSA11.jpg,AMNE18.jpg,AMNE01.jpg,AMSA12.jpg,MS,2,num_8,16,num_8,0.733434943482,,,2017_Jul_07_1544,60.008661195,MAFE4ImagesEEG,001,200867,
AFNE01.JPG,AFNE01.JPG,AFNE01.JPG,AFNE01.JPG,AFNE01.JPG,AFNE01.JPG,1,7,17,5,,,,,,,,,,,,,,,,,,,,,,,AMSA15.jpg,AMNE04.jpg,AMSA12.jpg,AMNE15.jpg,AMNE04.jpg,MN,1,num_6,16,num_6,0.616767988191,,,2017_Jul_07_1544,60.008661195,MAFE4ImagesEEG,001,200867,
AFNE01.JPG,AFNE01.JPG,AFNE01.JPG,AFNE01.JPG,AFNE01.JPG,AFNE01.JPG,1,8,18,1,,,,,,,,,,,,,,,,,,,,,,,AMSA16.jpg,AMSA10.jpg,AMNE05.jpg,AMNE17.jpg,AMNE05.jpg,MN,1,num_2,32,num_8,0.600143434596,,,2017_Jul_07_1544,60.008661195,MAFE4ImagesEEG,001,200867,
AFNE01.JPG,AFNE01.JPG,AFNE01.JPG,AFNE01.JPG,AFNE01.JPG,AFNE01.JPG,1,9,19,6,,,,,,,,,,,,,,,,,,,,,,,AMNE02.jpg,AMSA13.jpg,AMNE06.jpg,AMSA12.jpg,AMSA13.jpg,MS,2,num_6,32,num_4,0.75010119332,,,2017_Jul_07_1544,60.008661195,MAFE4ImagesEEG,001,200867,
AFNE01.JPG,AFNE01.JPG,AFNE01.JPG,AFNE01.JPG,AFNE01.JPG,AFNE01.JPG,2,0,20,4,,,,,,,,,,,,,,,,,,,,,,,AMSA07.jpg,AMNE20.jpg,AMNE09.jpg,AMSA08.jpg,AMSA08.jpg,MS,2,num_4,16,num_4,0.7501060043,,,2017_Jul_07_1544,60.008661195,MAFE4ImagesEEG,001,200867,
AFNE01.JPG,AFNE01.JPG,AFNE01.JPG,AFNE01.JPG,AFNE01.JPG,AFNE01.JPG,2,1,21,5,,,,,,,,,,,,,,,,,,,,,,,AMNE02.jpg,AMNE20.jpg,AMSA17.jpg,AMSA06.jpg,AMSA17.jpg,MS,2,num_2,32,num_6,0.583479750785,,,2017_Jul_07_1544,60.008661195,MAFE4ImagesEEG,001,200867,
AFNE01.JPG,AFNE01.JPG,AFNE01.JPG,AFNE01.JPG,AFNE01.JPG,AFNE01.JPG,2,2,22,9,,,,,,,,,,,,,,,,,,,,,,,AMNE17.jpg,AMSA04.jpg,AMSA18.jpg,AMNE12.jpg,AMNE12.jpg,MN,1,num_4,16,num_4,0.666811961564,,,2017_Jul_07_1544,60.008661195,MAFE4ImagesEEG,001,200867,
AFNE01.JPG,AFNE01.JPG,AFNE01.JPG,AFNE01.JPG,AFNE01.JPG,AFNE01.JPG,2,3,23,3,,,,,,,,,,,,,,,,,,,,,,,AMNE12.jpg,AMNE16.jpg,AMSA14.jpg,AMSA13.jpg,AMNE12.jpg,MN,1,num_8,16,num_8,0.566831462434,,,2017_Jul_07_1544,60.008661195,MAFE4ImagesEEG,001,200867,
AFNE01.JPG,AFNE01.JPG,AFNE01.JPG,AFNE01.JPG,AFNE01.JPG,AFNE01.JPG,2,4,24,6,,,,,,,,,,,,,,,,,,,,,,,AMNE15.jpg,AMSA06.jpg,AMSA17.jpg,AMNE05.jpg,AMSA17.jpg,MS,2,num_2,32,num_4,0.883467113716,,,2017_Jul_07_1544,60.008661195,MAFE4ImagesEEG,001,200867,
AFNE01.JPG,AFNE01.JPG,AFNE01.JPG,AFNE01.JPG,AFNE01.JPG,AFNE01.JPG,2,5,25,1,,,,,,,,,,,,,,,,,,,,,,,AMSA12.jpg,AMSA01.jpg,AMNE02.jpg,AMNE14.jpg,AMSA12.jpg,MS,2,num_8,32,num_6,0.533484850544,,,2017_Jul_07_1544,60.008661195,MAFE4ImagesEEG,001,200867,
AFNE01.JPG,AFNE01.JPG,AFNE01.JPG,AFNE01.JPG,AFNE01.JPG,AFNE01.JPG,2,6,26,2,,,,,,,,,,,,,,,,,,,,,,,AMNE14.jpg,AMNE05.jpg,AMSA15.jpg,AMSA01.jpg,AMSA01.jpg,MS,2,num_4,16,num_4,0.466791947372,,,2017_Jul_07_1544,60.008661195,MAFE4ImagesEEG,001,200867,
AFNE01.JPG,AFNE01.JPG,AFNE01.JPG,AFNE01.JPG,AFNE01.JPG,AFNE01.JPG,2,7,27,8,,,,,,,,,,,,,,,,,,,,,,,AMSA08.jpg,AMNE03.jpg,AMSA14.jpg,AMNE17.jpg,AMNE17.jpg,MN,1,num_4,32,num_6,0.533502491191,,,2017_Jul_07_1544,60.008661195,MAFE4ImagesEEG,001,200867,
AFNE01.JPG,AFNE01.JPG,AFNE01.JPG,AFNE01.JPG,AFNE01.JPG,AFNE01.JPG,2,8,28,0,,,,,,,,,,,,,,,,,,,,,,,AMNE15.jpg,AMNE14.jpg,AMSA01.jpg,AMSA10.jpg,AMNE14.jpg,MN,1,num_6,16,num_6,0.583498353604,,,2017_Jul_07_1544,60.008661195,MAFE4ImagesEEG,001,200867,
AFNE01.JPG,AFNE01.JPG,AFNE01.JPG,AFNE01.JPG,AFNE01.JPG,AFNE01.JPG,2,9,29,7,,,,,,,,,,,,,,,,,,,,,,,AMSA12.jpg,AMNE18.jpg,AMNE05.jpg,AMSA14.jpg,AMNE18.jpg,MN,1,num_6,32,num_8,0.700134518091,,,2017_Jul_07_1544,60.008661195,MAFE4ImagesEEG,001,200867,
AFNE01.JPG,AFNE01.JPG,AFNE01.JPG,AFNE01.JPG,AFNE01.JPG,AFNE01.JPG,3,0,30,8,,,,,,,,,,,,,,,,,,,,,,,AMSA20.jpg,AMNE19.jpg,AMNE13.jpg,AMSA01.jpg,AMNE13.jpg,MN,1,num_2,32,num_6,0.55014885508,,,2017_Jul_07_1544,60.008661195,MAFE4ImagesEEG,001,200867,
AFNE01.JPG,AFNE01.JPG,AFNE01.JPG,AFNE01.JPG,AFNE01.JPG,AFNE01.JPG,3,1,31,0,,,,,,,,,,,,,,,,,,,,,,,AMNE14.jpg,AMSA11.jpg,AMSA14.jpg,AMNE02.jpg,AMSA11.jpg,MS,2,num_6,16,num_6,0.516934066894,,,2017_Jul_07_1544,60.008661195,MAFE4ImagesEEG,001,200867,
AFNE01.JPG,AFNE01.JPG,AFNE01.JPG,AFNE01.JPG,AFNE01.JPG,AFNE01.JPG,3,2,32,6,,,,,,,,,,,,,,,,,,,,,,,AMSA17.jpg,AMSA15.jpg,AMNE05.jpg,AMNE18.jpg,AMNE18.jpg,MN,1,num_4,32,num_8,0.8834863581,,,2017_Jul_07_1544,60.008661195,MAFE4ImagesEEG,001,200867,
AFNE01.JPG,AFNE01.JPG,AFNE01.JPG,AFNE01.JPG,AFNE01.JPG,AFNE01.JPG,3,3,33,3,,,,,,,,,,,,,,,,,,,,,,,AMSA11.jpg,AMNE15.jpg,AMSA02.jpg,AMNE19.jpg,AMSA11.jpg,MS,2,num_8,32,num_4,0.500139842276,,,2017_Jul_07_1544,60.008661195,MAFE4ImagesEEG,001,200867,
AFNE01.JPG,AFNE01.JPG,AFNE01.JPG,AFNE01.JPG,AFNE01.JPG,AFNE01.JPG,3,4,34,5,,,,,,,,,,,,,,,,,,,,,,,AMNE02.jpg,AMNE01.jpg,AMSA18.jpg,AMSA04.jpg,AMNE01.jpg,MN,1,num_6,32,num_4,0.46683043614,,,2017_Jul_07_1544,60.008661195,MAFE4ImagesEEG,001,200867,
AFNE01.JPG,AFNE01.JPG,AFNE01.JPG,AFNE01.JPG,AFNE01.JPG,AFNE01.JPG,3,5,35,9,,,,,,,,,,,,,,,,,,,,,,,AMNE19.jpg,AMNE05.jpg,AMSA10.jpg,AMSA16.jpg,AMNE19.jpg,MN,1,num_8,32,num_4,0.583599707228,,,2017_Jul_07_1544,60.008661195,MAFE4ImagesEEG,001,200867,
AFNE01.JPG,AFNE01.JPG,AFNE01.JPG,AFNE01.JPG,AFNE01.JPG,AFNE01.JPG,3,6,36,7,,,,,,,,,,,,,,,,,,,,,,,AMNE13.jpg,AMSA01.jpg,AMSA19.jpg,AMNE11.jpg,AMSA01.jpg,MS,2,num_6,32,num_8,0.600133812404,,,2017_Jul_07_1544,60.008661195,MAFE4ImagesEEG,001,200867,
AFNE01.JPG,AFNE01.JPG,AFNE01.JPG,AFNE01.JPG,AFNE01.JPG,AFNE01.JPG,3,7,37,4,,,,,,,,,,,,,,,,,,,,,,,AMSA10.jpg,AMSA13.jpg,AMNE06.jpg,AMNE13.jpg,AMSA13.jpg,MS,2,num_6,16,num_6,0.600113285123,,,2017_Jul_07_1544,60.008661195,MAFE4ImagesEEG,001,200867,
AFNE01.JPG,AFNE01.JPG,AFNE01.JPG,AFNE01.JPG,AFNE01.JPG,AFNE01.JPG,3,8,38,1,,,,,,,,,,,,,,,,,,,,,,,AMSA04.jpg,AMNE06.jpg,AMSA12.jpg,AMNE18.jpg,AMSA12.jpg,MS,2,num_2,32,num_6,0.683531453949,,,2017_Jul_07_1544,60.008661195,MAFE4ImagesEEG,001,200867,
AFNE01.JPG,AFNE01.JPG,AFNE01.JPG,AFNE01.JPG,AFNE01.JPG,AFNE01.JPG,3,9,39,2,,,,,,,,,,,,,,,,,,,,,,,AMNE14.jpg,AMSA03.jpg,AMNE09.jpg,AMSA14.jpg,AMSA14.jpg,MS,2,num_4,32,num_8,1.19985900307,,,2017_Jul_07_1544,60.008661195,MAFE4ImagesEEG,001,200867,
AFNE01.JPG,AFNE01.JPG,AFNE01.JPG,AFNE01.JPG,AFNE01.JPG,AFNE01.JPG,4,0,40,5,,,,,,,,,,,,,,,,,,,,,,,AMSA06.jpg,AMNE04.jpg,AMNE18.jpg,AMSA13.jpg,AMNE04.jpg,MN,1,num_6,32,num_8,0.983453065273,,,2017_Jul_07_1544,60.008661195,MAFE4ImagesEEG,001,200867,
AFNE01.JPG,AFNE01.JPG,AFNE01.JPG,AFNE01.JPG,AFNE01.JPG,AFNE01.JPG,4,1,41,2,,,,,,,,,,,,,,,,,,,,,,,AMNE13.jpg,AMNE02.jpg,AMSA02.jpg,AMSA20.jpg,AMNE02.jpg,MN,1,num_6,32,num_2,1.2834247119,,,2017_Jul_07_1544,60.008661195,MAFE4ImagesEEG,001,200867,
AFNE01.JPG,AFNE01.JPG,AFNE01.JPG,AFNE01.JPG,AFNE01.JPG,AFNE01.JPG,4,2,42,3,,,,,,,,,,,,,,,,,,,,,,,AMNE01.jpg,AMNE20.jpg,AMSA05.jpg,AMSA03.jpg,AMSA05.jpg,MS,2,num_2,32,num_4,0.700287189917,,,2017_Jul_07_1544,60.008661195,MAFE4ImagesEEG,001,200867,
AFNE01.JPG,AFNE01.JPG,AFNE01.JPG,AFNE01.JPG,AFNE01.JPG,AFNE01.JPG,4,3,43,6,,,,,,,,,,,,,,,,,,,,,,,AMSA14.jpg,AMNE11.jpg,AMNE15.jpg,AMSA08.jpg,AMSA14.jpg,MS,2,num_8,16,num_8,0.599999101949,,,2017_Jul_07_1544,60.008661195,MAFE4ImagesEEG,001,200867,
AFNE01.JPG,AFNE01.JPG,AFNE01.JPG,AFNE01.JPG,AFNE01.JPG,AFNE01.JPG,4,4,44,1,,,,,,,,,,,,,,,,,,,,,,,AMNE08.jpg,AMNE02.jpg,AMSA07.jpg,AMSA04.jpg,AMSA07.jpg,MS,2,num_2,16,num_2,1.06676282431,,,2017_Jul_07_1544,60.008661195,MAFE4ImagesEEG,001,200867,
AFNE01.JPG,AFNE01.JPG,AFNE01.JPG,AFNE01.JPG,AFNE01.JPG,AFNE01.JPG,4,5,45,4,,,,,,,,,,,,,,,,,,,,,,,AMNE06.jpg,AMSA15.jpg,AMSA16.jpg,AMNE14.jpg,AMSA16.jpg,MS,2,num_2,16,num_2,1.38348218834,,,2017_Jul_07_1544,60.008661195,MAFE4ImagesEEG,001,200867,
AFNE01.JPG,AFNE01.JPG,AFNE01.JPG,AFNE01.JPG,AFNE01.JPG,AFNE01.JPG,4,6,46,0,,,,,,,,,,,,,,,,,,,,,,,AMNE08.jpg,AMNE10.jpg,AMSA10.jpg,AMSA12.jpg,AMNE10.jpg,MN,1,num_6,16,num_6,0.866792203975,,,2017_Jul_07_1544,60.008661195,MAFE4ImagesEEG,001,200867,
AFNE01.JPG,AFNE01.JPG,AFNE01.JPG,AFNE01.JPG,AFNE01.JPG,AFNE01.JPG,4,7,47,7,,,,,,,,,,,,,,,,,,,,,,,AMNE11.jpg,AMSA16.jpg,AMSA02.jpg,AMNE05.jpg,AMNE11.jpg,MN,1,num_8,32,num_6,0.966814078391,,,2017_Jul_07_1544,60.008661195,MAFE4ImagesEEG,001,200867,
AFNE01.JPG,AFNE01.JPG,AFNE01.JPG,AFNE01.JPG,AFNE01.JPG,AFNE01.JPG,4,8,48,9,,,,,,,,,,,,,,,,,,,,,,,AMSA01.jpg,AMNE16.jpg,AMSA04.jpg,AMNE08.jpg,AMSA01.jpg,MS,2,num_8,32,num_4,0.900019821711,,,2017_Jul_07_1544,60.008661195,MAFE4ImagesEEG,001,200867,
AFNE01.JPG,AFNE01.JPG,AFNE01.JPG,AFNE01.JPG,AFNE01.JPG,AFNE01.JPG,4,9,49,8,,,,,,,,,,,,,,,,,,,,,,,AMSA10.jpg,AMSA04.jpg,AMNE15.jpg,AMNE13.jpg,AMNE13.jpg,MN,1,num_4,32,num_8,0.666752624791,,,2017_Jul_07_1544,60.008661195,MAFE4ImagesEEG,001,200867,
AFNE01.JPG,AFNE01.JPG,AFNE01.JPG,AFNE01.JPG,AFNE01.JPG,AFNE01.JPG,5,0,50,4,,,,,,,,,,,,,,,,,,,,,,,AMNE05.jpg,AMSA02.jpg,AMNE06.jpg,AMSA14.jpg,AMNE05.jpg,MN,1,num_8,32,num_6,1.06674101402,,,2017_Jul_07_1544,60.008661195,MAFE4ImagesEEG,001,200867,
AFNE01.JPG,AFNE01.JPG,AFNE01.JPG,AFNE01.JPG,AFNE01.JPG,AFNE01.JPG,5,1,51,5,,,,,,,,,,,,,,,,,,,,,,,AMSA10.jpg,AMNE04.jpg,AMNE14.jpg,AMSA20.jpg,AMNE14.jpg,MN,1,num_2,16,num_2,1.18342272332,,,2017_Jul_07_1544,60.008661195,MAFE4ImagesEEG,001,200867,
AFNE01.JPG,AFNE01.JPG,AFNE01.JPG,AFNE01.JPG,AFNE01.JPG,AFNE01.JPG,5,2,52,2,,,,,,,,,,,,,,,,,,,,,,,AMSA07.jpg,AMSA03.jpg,AMNE12.jpg,AMNE03.jpg,AMNE03.jpg,MN,1,num_4,16,num_4,1.00008435443,,,2017_Jul_07_1544,60.008661195,MAFE4ImagesEEG,001,200867,
AFNE01.JPG,AFNE01.JPG,AFNE01.JPG,AFNE01.JPG,AFNE01.JPG,AFNE01.JPG,5,3,53,3,,,,,,,,,,,,,,,,,,,,,,,AMNE13.jpg,AMSA07.jpg,AMNE16.jpg,AMSA01.jpg,AMNE13.jpg,MN,1,num_8,32,num_6,0.616787873907,,,2017_Jul_07_1544,60.008661195,MAFE4ImagesEEG,001,200867,
AFNE01.JPG,AFNE01.JPG,AFNE01.JPG,AFNE01.JPG,AFNE01.JPG,AFNE01.JPG,5,4,54,6,,,,,,,,,,,,,,,,,,,,,,,AMNE15.jpg,AMSA13.jpg,AMNE07.jpg,AMSA08.jpg,AMSA13.jpg,MS,2,num_6,32,num_8,0.600166848511,,,2017_Jul_07_1544,60.008661195,MAFE4ImagesEEG,001,200867,
AFNE01.JPG,AFNE01.JPG,AFNE01.JPG,AFNE01.JPG,AFNE01.JPG,AFNE01.JPG,5,5,55,8,,,,,,,,,,,,,,,,,,,,,,,AMNE15.jpg,AMSA18.jpg,AMSA20.jpg,AMNE04.jpg,AMNE15.jpg,MN,1,num_8,32,num_4,0.850200686487,,,2017_Jul_07_1544,60.008661195,MAFE4ImagesEEG,001,200867,
AFNE01.JPG,AFNE01.JPG,AFNE01.JPG,AFNE01.JPG,AFNE01.JPG,AFNE01.JPG,5,6,56,7,,,,,,,,,,,,,,,,,,,,,,,AMNE03.jpg,AMNE17.jpg,AMSA10.jpg,AMSA12.jpg,AMSA10.jpg,MS,2,num_2,32,num_6,0.633460859302,,,2017_Jul_07_1544,60.008661195,MAFE4ImagesEEG,001,200867,
AFNE01.JPG,AFNE01.JPG,AFNE01.JPG,AFNE01.JPG,AFNE01.JPG,AFNE01.JPG,5,7,57,0,,,,,,,,,,,,,,,,,,,,,,,AMSA06.jpg,AMSA09.jpg,AMNE06.jpg,AMNE13.jpg,AMNE06.jpg,MN,1,num_2,32,num_4,0.600130925654,,,2017_Jul_07_1544,60.008661195,MAFE4ImagesEEG,001,200867,
AFNE01.JPG,AFNE01.JPG,AFNE01.JPG,AFNE01.JPG,AFNE01.JPG,AFNE01.JPG,5,8,58,9,,,,,,,,,,,,,,,,,,,,,,,AMNE06.jpg,AMNE14.jpg,AMSA19.jpg,AMSA09.jpg,AMSA09.jpg,MS,2,num_4,16,num_4,0.900106421206,,,2017_Jul_07_1544,60.008661195,MAFE4ImagesEEG,001,200867,
AFNE01.JPG,AFNE01.JPG,AFNE01.JPG,AFNE01.JPG,AFNE01.JPG,AFNE01.JPG,5,9,59,1,,,,,,,,,,,,,,,,,,,,,,,AMSA20.jpg,AMNE13.jpg,AMSA09.jpg,AMNE11.jpg,AMNE11.jpg,MN,1,num_4,16,num_4,0.650098563172,,,2017_Jul_07_1544,60.008661195,MAFE4ImagesEEG,001,200867,
,,,,,,,,,,,,,,,,,,,,,,,,,,,,,,,,,,,,,,,,,,,space,10.4663095556,2017_Jul_07_1544,60.008661195,MAFE4ImagesEEG,001,200867,
AFNE01.JPG,AFNE01.JPG,AFNE01.JPG,AFNE01.JPG,AFNE01.JPG,AFNE01.JPG,,,,,0,0,0,1,,,,,,,,,,,,,,,,,,,AFNE05.jpg,AFSA13.jpg,AFNE02.jpg,AFSA20.jpg,AFSA20.jpg,FS,4,num_4,16,num_4,0.616822513868,,,2017_Jul_07_1544,60.008661195,MAFE4ImagesEEG,001,200867,
AFNE01.JPG,AFNE01.JPG,AFNE01.JPG,AFNE01.JPG,AFNE01.JPG,AFNE01.JPG,,,,,0,1,1,0,,,,,,,,,,,,,,,,,,,AFNE07.jpg,AFSA03.jpg,AFSA13.jpg,AFNE01.jpg,AFSA13.jpg,FS,4,num_2,32,num_6,0.900124382577,,,2017_Jul_07_1544,60.008661195,MAFE4ImagesEEG,001,200867,
AFNE01.JPG,AFNE01.JPG,AFNE01.JPG,AFNE01.JPG,AFNE01.JPG,AFNE01.JPG,,,,,0,2,2,6,,,,,,,,,,,,,,,,,,,AFSA16.jpg,AFSA11.jpg,AFNE17.jpg,AFNE11.jpg,AFSA16.jpg,FS,4,num_8,32,num_6,0.700252229348,,,2017_Jul_07_1544,60.008661195,MAFE4ImagesEEG,001,200867,
AFNE01.JPG,AFNE01.JPG,AFNE01.JPG,AFNE01.JPG,AFNE01.JPG,AFNE01.JPG,,,,,0,3,3,4,,,,,,,,,,,,,,,,,,,AFSA02.jpg,AFNE03.jpg,AFSA09.jpg,AFNE20.jpg,AFNE03.jpg,FN,3,num_6,16,num_6,0.550507762237,,,2017_Jul_07_1544,60.008661195,MAFE4ImagesEEG,001,200867,
AFNE01.JPG,AFNE01.JPG,AFNE01.JPG,AFNE01.JPG,AFNE01.JPG,AFNE01.JPG,,,,,0,4,4,8,,,,,,,,,,,,,,,,,,,AFNE08.jpg,AFNE07.jpg,AFSA07.jpg,AFSA18.jpg,AFNE08.jpg,FN,3,num_8,16,num_8,0.950089133461,,,2017_Jul_07_1544,60.008661195,MAFE4ImagesEEG,001,200867,
AFNE01.JPG,AFNE01.JPG,AFNE01.JPG,AFNE01.JPG,AFNE01.JPG,AFNE01.JPG,,,,,0,5,5,2,,,,,,,,,,,,,,,,,,,AFNE10.jpg,AFNE11.jpg,AFSA01.jpg,AFSA07.jpg,AFSA01.jpg,FS,4,num_2,32,num_8,0.650108826812,,,2017_Jul_07_1544,60.008661195,MAFE4ImagesEEG,001,200867,
AFNE01.JPG,AFNE01.JPG,AFNE01.JPG,AFNE01.JPG,AFNE01.JPG,AFNE01.JPG,,,,,0,6,6,5,,,,,,,,,,,,,,,,,,,AFNE11.jpg,AFSA18.jpg,AFSA08.jpg,AFNE07.jpg,AFSA18.jpg,FS,4,num_6,32,num_8,0.766807535314,,,2017_Jul_07_1544,60.008661195,MAFE4ImagesEEG,001,200867,
AFNE01.JPG,AFNE01.JPG,AFNE01.JPG,AFNE01.JPG,AFNE01.JPG,AFNE01.JPG,,,,,0,7,7,7,,,,,,,,,,,,,,,,,,,AFSA10.jpg,AFSA14.jpg,AFNE15.jpg,AFNE08.jpg,AFNE15.jpg,FN,3,num_2,32,num_4,1.0334723416,,,2017_Jul_07_1544,60.008661195,MAFE4ImagesEEG,001,200867,
AFNE01.JPG,AFNE01.JPG,AFNE01.JPG,AFNE01.JPG,AFNE01.JPG,AFNE01.JPG,,,,,0,8,8,3,,,,,,,,,,,,,,,,,,,AFSA04.jpg,AFNE01.jpg,AFNE18.jpg,AFSA12.jpg,AFNE01.jpg,FN,3,num_6,32,num_8,1.20007646421,,,2017_Jul_07_1544,60.008661195,MAFE4ImagesEEG,001,200867,
AFNE01.JPG,AFNE01.JPG,AFNE01.JPG,AFNE01.JPG,AFNE01.JPG,AFNE01.JPG,,,,,0,9,9,9,,,,,,,,,,,,,,,,,,,AFNE12.jpg,AFSA13.jpg,AFNE07.jpg,AFSA19.jpg,AFSA19.jpg,FS,4,num_4,32,num_6,1.61675066827,,,2017_Jul_07_1544,60.008661195,MAFE4ImagesEEG,001,200867,
AFNE01.JPG,AFNE01.JPG,AFNE01.JPG,AFNE01.JPG,AFNE01.JPG,AFNE01.JPG,,,,,1,0,10,7,,,,,,,,,,,,,,,,,,,AFNE03.jpg,AFSA20.jpg,AFNE20.jpg,AFSA04.jpg,AFNE03.jpg,FN,3,num_8,32,num_4,1.06677501241,,,2017_Jul_07_1544,60.008661195,MAFE4ImagesEEG,001,200867,
AFNE01.JPG,AFNE01.JPG,AFNE01.JPG,AFNE01.JPG,AFNE01.JPG,AFNE01.JPG,,,,,1,1,11,6,,,,,,,,,,,,,,,,,,,AFNE17.jpg,AFSA19.jpg,AFNE01.jpg,AFSA16.jpg,AFNE01.jpg,FN,3,num_2,32,num_6,0.900180512108,,,2017_Jul_07_1544,60.008661195,MAFE4ImagesEEG,001,200867,
AFNE01.JPG,AFNE01.JPG,AFNE01.JPG,AFNE01.JPG,AFNE01.JPG,AFNE01.JPG,,,,,1,2,12,3,,,,,,,,,,,,,,,,,,,AFSA03.jpg,AFNE02.jpg,AFNE20.jpg,AFSA16.jpg,AFNE02.jpg,FN,3,num_6,32,num_8,0.833528984222,,,2017_Jul_07_1544,60.008661195,MAFE4ImagesEEG,001,200867,
AFNE01.JPG,AFNE01.JPG,AFNE01.JPG,AFNE01.JPG,AFNE01.JPG,AFNE01.JPG,,,,,1,3,13,0,,,,,,,,,,,,,,,,,,,AFSA01.jpg,AFSA13.jpg,AFNE10.jpg,AFNE07.jpg,AFNE07.jpg,FN,3,num_4,16,num_4,0.833535078331,,,2017_Jul_07_1544,60.008661195,MAFE4ImagesEEG,001,200867,
AFNE01.JPG,AFNE01.JPG,AFNE01.JPG,AFNE01.JPG,AFNE01.JPG,AFNE01.JPG,,,,,1,4,14,8,,,,,,,,,,,,,,,,,,,AFNE17.jpg,AFSA20.jpg,AFNE12.jpg,AFSA10.jpg,AFSA20.jpg,FS,4,num_6,16,num_6,0.983413614449,,,2017_Jul_07_1544,60.008661195,MAFE4ImagesEEG,001,200867,
AFNE01.JPG,AFNE01.JPG,AFNE01.JPG,AFNE01.JPG,AFNE01.JPG,AFNE01.JPG,,,,,1,5,15,9,,,,,,,,,,,,,,,,,,,AFSA16.jpg,AFNE20.jpg,AFSA20.jpg,AFNE10.jpg,AFSA16.jpg,FS,4,num_8,16,num_8,0.800122714834,,,2017_Jul_07_1544,60.008661195,MAFE4ImagesEEG,001,200867,
AFNE01.JPG,AFNE01.JPG,AFNE01.JPG,AFNE01.JPG,AFNE01.JPG,AFNE01.JPG,,,,,1,6,16,1,,,,,,,,,,,,,,,,,,,AFSA20.jpg,AFNE13.jpg,AFNE08.jpg,AFSA01.jpg,AFNE08.jpg,FN,3,num_2,32,num_6,0.716768052313,,,2017_Jul_07_1544,60.008661195,MAFE4ImagesEEG,001,200867,
AFNE01.JPG,AFNE01.JPG,AFNE01.JPG,AFNE01.JPG,AFNE01.JPG,AFNE01.JPG,,,,,1,7,17,2,,,,,,,,,,,,,,,,,,,AFNE04.jpg,AFNE01.jpg,AFSA11.jpg,AFSA14.jpg,AFSA14.jpg,FS,4,num_4,32,num_8,0.849774103379,,,2017_Jul_07_1544,60.008661195,MAFE4ImagesEEG,001,200867,
AFNE01.JPG,AFNE01.JPG,AFNE01.JPG,AFNE01.JPG,AFNE01.JPG,AFNE01.JPG,,,,,1,8,18,5,,,,,,,,,,,,,,,,,,,AFSA20.jpg,AFSA04.jpg,AFNE20.jpg,AFNE09.jpg,AFSA04.jpg,FS,4,num_6,16,num_6,0.683465702343,,,2017_Jul_07_1544,60.008661195,MAFE4ImagesEEG,001,200867,
AFNE01.JPG,AFNE01.JPG,AFNE01.JPG,AFNE01.JPG,AFNE01.JPG,AFNE01.JPG,,,,,1,9,19,4,,,,,,,,,,,,,,,,,,,AFSA14.jpg,AFNE09.jpg,AFNE17.jpg,AFSA05.jpg,AFSA05.jpg,FS,4,num_4,16,num_4,0.816773889819,,,2017_Jul_07_1544,60.008661195,MAFE4ImagesEEG,001,200867,
AFNE01.JPG,AFNE01.JPG,AFNE01.JPG,AFNE01.JPG,AFNE01.JPG,AFNE01.JPG,,,,,2,0,20,0,,,,,,,,,,,,,,,,,,,AFSA05.jpg,AFNE12.jpg,AFSA09.jpg,AFNE15.jpg,AFNE15.jpg,FN,3,num_4,32,num_6,1.18351253029,,,2017_Jul_07_1544,60.008661195,MAFE4ImagesEEG,001,200867,
AFNE01.JPG,AFNE01.JPG,AFNE01.JPG,AFNE01.JPG,AFNE01.JPG,AFNE01.JPG,,,,,2,1,21,1,,,,,,,,,,,,,,,,,,,AFSA12.jpg,AFSA10.jpg,AFNE11.jpg,AFNE07.jpg,AFSA12.jpg,FS,4,num_8,16,num_8,0.916773312492,,,2017_Jul_07_1544,60.008661195,MAFE4ImagesEEG,001,200867,
AFNE01.JPG,AFNE01.JPG,AFNE01.JPG,AFNE01.JPG,AFNE01.JPG,AFNE01.JPG,,,,,2,2,22,6,,,,,,,,,,,,,,,,,,,AFNE15.jpg,AFSA11.jpg,AFNE02.jpg,AFSA12.jpg,AFSA12.jpg,FS,4,num_4,16,num_4,1.06673010881,,,2017_Jul_07_1544,60.008661195,MAFE4ImagesEEG,001,200867,
AFNE01.JPG,AFNE01.JPG,AFNE01.JPG,AFNE01.JPG,AFNE01.JPG,AFNE01.JPG,,,,,2,3,23,2,,,,,,,,,,,,,,,,,,,AFSA05.jpg,AFNE04.jpg,AFNE07.jpg,AFSA03.jpg,AFNE04.jpg,FN,3,num_6,16,num_6,0.766551585519,,,2017_Jul_07_1544,60.008661195,MAFE4ImagesEEG,001,200867,
AFNE01.JPG,AFNE01.JPG,AFNE01.JPG,AFNE01.JPG,AFNE01.JPG,AFNE01.JPG,,,,,2,4,24,9,,,,,,,,,,,,,,,,,,,AFNE15.jpg,AFSA15.jpg,AFNE05.jpg,AFSA02.jpg,AFNE15.jpg,FN,3,num_8,16,num_8,1.68342496851,,,2017_Jul_07_1544,60.008661195,MAFE4ImagesEEG,001,200867,
AFNE01.JPG,AFNE01.JPG,AFNE01.JPG,AFNE01.JPG,AFNE01.JPG,AFNE01.JPG,,,,,2,5,25,3,,,,,,,,,,,,,,,,,,,AFSA12.jpg,AFNE10.jpg,AFNE06.jpg,AFSA09.jpg,AFNE06.jpg,FN,3,num_2,32,num_4,0.85014102899,,,2017_Jul_07_1544,60.008661195,MAFE4ImagesEEG,001,200867,
AFNE01.JPG,AFNE01.JPG,AFNE01.JPG,AFNE01.JPG,AFNE01.JPG,AFNE01.JPG,,,,,2,6,26,5,,,,,,,,,,,,,,,,,,,AFSA14.jpg,AFSA03.jpg,AFNE02.jpg,AFNE09.jpg,AFNE02.jpg,FN,3,num_2,32,num_6,1.00014369108,,,2017_Jul_07_1544,60.008661195,MAFE4ImagesEEG,001,200867,
AFNE01.JPG,AFNE01.JPG,AFNE01.JPG,AFNE01.JPG,AFNE01.JPG,AFNE01.JPG,,,,,2,7,27,4,,,,,,,,,,,,,,,,,,,AFNE18.jpg,AFSA14.jpg,AFSA04.jpg,AFNE16.jpg,AFSA14.jpg,FS,4,num_6,16,num_6,0.933463617577,,,2017_Jul_07_1544,60.008661195,MAFE4ImagesEEG,001,200867,
AFNE01.JPG,AFNE01.JPG,AFNE01.JPG,AFNE01.JPG,AFNE01.JPG,AFNE01.JPG,,,,,2,8,28,8,,,,,,,,,,,,,,,,,,,AFSA17.jpg,AFNE12.jpg,AFNE17.jpg,AFSA06.jpg,AFSA06.jpg,FS,4,num_4,32,num_8,0.8664403531,,,2017_Jul_07_1544,60.008661195,MAFE4ImagesEEG,001,200867,
AFNE01.JPG,AFNE01.JPG,AFNE01.JPG,AFNE01.JPG,AFNE01.JPG,AFNE01.JPG,,,,,2,9,29,7,,,,,,,,,,,,,,,,,,,AFNE20.jpg,AFSA06.jpg,AFNE06.jpg,AFSA03.jpg,AFSA06.jpg,FS,4,num_6,32,num_4,1.00012444681,,,2017_Jul_07_1544,60.008661195,MAFE4ImagesEEG,001,200867,
AFNE01.JPG,AFNE01.JPG,AFNE01.JPG,AFNE01.JPG,AFNE01.JPG,AFNE01.JPG,,,,,3,0,30,3,,,,,,,,,,,,,,,,,,,AFSA03.jpg,AFNE19.jpg,AFSA20.jpg,AFNE13.jpg,AFSA20.jpg,FS,4,num_2,32,num_4,0.833561058156,,,2017_Jul_07_1544,60.008661195,MAFE4ImagesEEG,001,200867,
AFNE01.JPG,AFNE01.JPG,AFNE01.JPG,AFNE01.JPG,AFNE01.JPG,AFNE01.JPG,,,,,3,1,31,2,,,,,,,,,,,,,,,,,,,AFSA06.jpg,AFSA20.jpg,AFNE20.jpg,AFNE02.jpg,AFNE20.jpg,FN,3,num_2,32,num_4,1.03332191508,,,2017_Jul_07_1544,60.008661195,MAFE4ImagesEEG,001,200867,
AFNE01.JPG,AFNE01.JPG,AFNE01.JPG,AFNE01.JPG,AFNE01.JPG,AFNE01.JPG,,,,,3,2,32,4,,,,,,,,,,,,,,,,,,,AFSA09.jpg,AFSA15.jpg,AFNE09.jpg,AFNE20.jpg,AFNE20.jpg,FN,3,num_4,16,num_4,0.883444341249,,,2017_Jul_07_1544,60.008661195,MAFE4ImagesEEG,001,200867,
AFNE01.JPG,AFNE01.JPG,AFNE01.JPG,AFNE01.JPG,AFNE01.JPG,AFNE01.JPG,,,,,3,3,33,1,,,,,,,,,,,,,,,,,,,AFSA18.jpg,AFNE09.jpg,AFNE10.jpg,AFSA12.jpg,AFNE10.jpg,FN,3,num_2,32,num_6,0.800250048283,,,2017_Jul_07_1544,60.008661195,MAFE4ImagesEEG,001,200867,
AFNE01.JPG,AFNE01.JPG,AFNE01.JPG,AFNE01.JPG,AFNE01.JPG,AFNE01.JPG,,,,,3,4,34,6,,,,,,,,,,,,,,,,,,,AFSA01.jpg,AFSA07.jpg,AFNE17.jpg,AFNE09.jpg,AFNE09.jpg,FN,3,num_4,32,num_8,1.01674130268,,,2017_Jul_07_1544,60.008661195,MAFE4ImagesEEG,001,200867,
AFNE01.JPG,AFNE01.JPG,AFNE01.JPG,AFNE01.JPG,AFNE01.JPG,AFNE01.JPG,,,,,3,5,35,8,,,,,,,,,,,,,,,,,,,AFNE05.jpg,AFNE18.jpg,AFSA19.jpg,AFSA14.jpg,AFNE18.jpg,FN,3,num_6,32,num_8,0.616756441537,,,2017_Jul_07_1544,60.008661195,MAFE4ImagesEEG,001,200867,
AFNE01.JPG,AFNE01.JPG,AFNE01.JPG,AFNE01.JPG,AFNE01.JPG,AFNE01.JPG,,,,,3,6,36,7,,,,,,,,,,,,,,,,,,,AFNE09.jpg,AFSA03.jpg,AFNE19.jpg,AFSA10.jpg,AFNE09.jpg,FN,3,num_8,32,num_6,4.31648779043,,,2017_Jul_07_1544,60.008661195,MAFE4ImagesEEG,001,200867,
AFNE01.JPG,AFNE01.JPG,AFNE01.JPG,AFNE01.JPG,AFNE01.JPG,AFNE01.JPG,,,,,3,7,37,5,,,,,,,,,,,,,,,,,,,AFSA05.jpg,AFNE17.jpg,AFSA03.jpg,AFNE16.jpg,AFSA03.jpg,FS,4,num_2,32,num_4,0.75013775751,,,2017_Jul_07_1544,60.008661195,MAFE4ImagesEEG,001,200867,
AFNE01.JPG,AFNE01.JPG,AFNE01.JPG,AFNE01.JPG,AFNE01.JPG,AFNE01.JPG,,,,,3,8,38,9,,,,,,,,,,,,,,,,,,,AFSA03.jpg,AFNE18.jpg,AFSA15.jpg,AFNE02.jpg,AFSA03.jpg,FS,4,num_8,32,num_4,0.633458934724,,,2017_Jul_07_1544,60.008661195,MAFE4ImagesEEG,001,200867,
AFNE01.JPG,AFNE01.JPG,AFNE01.JPG,AFNE01.JPG,AFNE01.JPG,AFNE01.JPG,,,,,3,9,39,0,,,,,,,,,,,,,,,,,,,AFSA17.jpg,AFNE19.jpg,AFNE17.jpg,AFSA08.jpg,AFNE19.jpg,FN,3,num_6,32,num_8,0.800015908666,,,2017_Jul_07_1544,60.008661195,MAFE4ImagesEEG,001,200867,
AFNE01.JPG,AFNE01.JPG,AFNE01.JPG,AFNE01.JPG,AFNE01.JPG,AFNE01.JPG,,,,,4,0,40,5,,,,,,,,,,,,,,,,,,,AFSA13.jpg,AFNE12.jpg,AFNE03.jpg,AFSA12.jpg,AFNE12.jpg,FN,3,num_6,16,num_6,0.783448446658,,,2017_Jul_07_1544,60.008661195,MAFE4ImagesEEG,001,200867,
AFNE01.JPG,AFNE01.JPG,AFNE01.JPG,AFNE01.JPG,AFNE01.JPG,AFNE01.JPG,,,,,4,1,41,1,,,,,,,,,,,,,,,,,,,AFNE07.jpg,AFNE12.jpg,AFSA16.jpg,AFSA04.jpg,AFNE12.jpg,FN,3,num_6,16,num_6,0.600096285925,,,2017_Jul_07_1544,60.008661195,MAFE4ImagesEEG,001,200867,
AFNE01.JPG,AFNE01.JPG,AFNE01.JPG,AFNE01.JPG,AFNE01.JPG,AFNE01.JPG,,,,,4,2,42,4,,,,,,,,,,,,,,,,,,,AFSA08.jpg,AFSA07.jpg,AFNE07.jpg,AFNE14.jpg,AFSA08.jpg,FS,4,num_8,32,num_6,0.833775311941,,,2017_Jul_07_1544,60.008661195,MAFE4ImagesEEG,001,200867,
AFNE01.JPG,AFNE01.JPG,AFNE01.JPG,AFNE01.JPG,AFNE01.JPG,AFNE01.JPG,,,,,4,3,43,9,,,,,,,,,,,,,,,,,,,AFNE01.jpg,AFSA12.jpg,AFNE20.jpg,AFSA18.jpg,AFSA12.jpg,FS,4,num_6,16,num_6,0.616854266962,,,2017_Jul_07_1544,60.008661195,MAFE4ImagesEEG,001,200867,
AFNE01.JPG,AFNE01.JPG,AFNE01.JPG,AFNE01.JPG,AFNE01.JPG,AFNE01.JPG,,,,,4,4,44,3,,,,,,,,,,,,,,,,,,,AFSA15.jpg,AFNE13.jpg,AFSA06.jpg,AFNE14.jpg,AFSA06.jpg,FS,4,num_2,32,num_4,0.850117615075,,,2017_Jul_07_1544,60.008661195,MAFE4ImagesEEG,001,200867,
AFNE01.JPG,AFNE01.JPG,AFNE01.JPG,AFNE01.JPG,AFNE01.JPG,AFNE01.JPG,,,,,4,5,45,2,,,,,,,,,,,,,,,,,,,AFNE04.jpg,AFSA05.jpg,AFNE01.jpg,AFSA08.jpg,AFSA05.jpg,FS,4,num_6,32,num_4,0.766894776374,,,2017_Jul_07_1544,60.008661195,MAFE4ImagesEEG,001,200867,
AFNE01.JPG,AFNE01.JPG,AFNE01.JPG,AFNE01.JPG,AFNE01.JPG,AFNE01.JPG,,,,,4,6,46,7,,,,,,,,,,,,,,,,,,,AFNE08.jpg,AFNE11.jpg,AFSA08.jpg,AFSA05.jpg,AFNE08.jpg,FN,3,num_8,16,num_8,0.56679425668,,,2017_Jul_07_1544,60.008661195,MAFE4ImagesEEG,001,200867,
AFNE01.JPG,AFNE01.JPG,AFNE01.JPG,AFNE01.JPG,AFNE01.JPG,AFNE01.JPG,,,,,4,7,47,0,,,,,,,,,,,,,,,,,,,AFSA06.jpg,AFNE20.jpg,AFNE04.jpg,AFSA01.jpg,AFNE04.jpg,FN,3,num_2,32,num_6,0.716766448575,,,2017_Jul_07_1544,60.008661195,MAFE4ImagesEEG,001,200867,
AFNE01.JPG,AFNE01.JPG,AFNE01.JPG,AFNE01.JPG,AFNE01.JPG,AFNE01.JPG,,,,,4,8,48,6,,,,,,,,,,,,,,,,,,,AFNE15.jpg,AFSA05.jpg,AFSA02.jpg,AFNE08.jpg,AFSA02.jpg,FS,4,num_2,32,num_6,0.750140644028,,,2017_Jul_07_1544,60.008661195,MAFE4ImagesEEG,001,200867,
AFNE01.JPG,AFNE01.JPG,AFNE01.JPG,AFNE01.JPG,AFNE01.JPG,AFNE01.JPG,,,,,4,9,49,8,,,,,,,,,,,,,,,,,,,AFNE20.jpg,AFSA09.jpg,AFSA04.jpg,AFNE17.jpg,AFSA09.jpg,FS,4,num_6,32,num_8,0.783514198149,,,2017_Jul_07_1544,60.008661195,MAFE4ImagesEEG,001,200867,
AFNE01.JPG,AFNE01.JPG,AFNE01.JPG,AFNE01.JPG,AFNE01.JPG,AFNE01.JPG,,,,,5,0,50,1,,,,,,,,,,,,,,,,,,,AFSA08.jpg,AFNE09.jpg,AFSA04.jpg,AFNE15.jpg,AFSA04.jpg,FS,4,num_2,16,num_2,1.54993909167,,,2017_Jul_07_1544,60.008661195,MAFE4ImagesEEG,001,200867,
AFNE01.JPG,AFNE01.JPG,AFNE01.JPG,AFNE01.JPG,AFNE01.JPG,AFNE01.JPG,,,,,5,1,51,2,,,,,,,,,,,,,,,,,,,AFNE10.jpg,AFSA06.jpg,AFNE07.jpg,AFSA05.jpg,AFNE10.jpg,FN,3,num_8,32,num_4,0.866643701796,,,2017_Jul_07_1544,60.008661195,MAFE4ImagesEEG,001,200867,
AFNE01.JPG,AFNE01.JPG,AFNE01.JPG,AFNE01.JPG,AFNE01.JPG,AFNE01.JPG,,,,,5,2,52,8,,,,,,,,,,,,,,,,,,,AFNE13.jpg,AFNE12.jpg,AFSA06.jpg,AFSA07.jpg,AFNE13.jpg,FN,3,num_8,16,num_8,0.900284431526,,,2017_Jul_07_1544,60.008661195,MAFE4ImagesEEG,001,200867,
AFNE01.JPG,AFNE01.JPG,AFNE01.JPG,AFNE01.JPG,AFNE01.JPG,AFNE01.JPG,,,,,5,3,53,3,,,,,,,,,,,,,,,,,,,AFNE08.jpg,AFSA18.jpg,AFNE10.jpg,AFSA06.jpg,AFSA06.jpg,FS,4,num_4,16,num_4,0.75009991019,,,2017_Jul_07_1544,60.008661195,MAFE4ImagesEEG,001,200867,
AFNE01.JPG,AFNE01.JPG,AFNE01.JPG,AFNE01.JPG,AFNE01.JPG,AFNE01.JPG,,,,,5,4,54,9,,,,,,,,,,,,,,,,,,,AFSA18.jpg,AFSA09.jpg,AFNE19.jpg,AFNE18.jpg,AFNE18.jpg,FN,3,num_4,32,num_6,1.2997506574,,,2017_Jul_07_1544,60.008661195,MAFE4ImagesEEG,001,200867,
AFNE01.JPG,AFNE01.JPG,AFNE01.JPG,AFNE01.JPG,AFNE01.JPG,AFNE01.JPG,,,,,5,5,55,4,,,,,,,,,,,,,,,,,,,AFSA18.jpg,AFNE08.jpg,AFNE16.jpg,AFSA11.jpg,AFNE16.jpg,FN,3,num_2,32,num_4,0.816830019117,,,2017_Jul_07_1544,60.008661195,MAFE4ImagesEEG,001,200867,
AFNE01.JPG,AFNE01.JPG,AFNE01.JPG,AFNE01.JPG,AFNE01.JPG,AFNE01.JPG,,,,,5,6,56,5,,,,,,,,,,,,,,,,,,,AFSA04.jpg,AFNE18.jpg,AFSA15.jpg,AFNE17.jpg,AFSA04.jpg,FS,4,num_8,16,num_8,0.933458165033,,,2017_Jul_07_1544,60.008661195,MAFE4ImagesEEG,001,200867,
AFNE01.JPG,AFNE01.JPG,AFNE01.JPG,AFNE01.JPG,AFNE01.JPG,AFNE01.JPG,,,,,5,7,57,0,,,,,,,,,,,,,,,,,,,AFNE15.jpg,AFSA02.jpg,AFSA15.jpg,AFNE07.jpg,AFNE07.jpg,FN,3,num_4,16,num_4,0.716758109513,,,2017_Jul_07_1544,60.008661195,MAFE4ImagesEEG,001,200867,
AFNE01.JPG,AFNE01.JPG,AFNE01.JPG,AFNE01.JPG,AFNE01.JPG,AFNE01.JPG,,,,,5,8,58,7,,,,,,,,,,,,,,,,,,,AFSA13.jpg,AFSA04.jpg,AFNE16.jpg,AFNE08.jpg,AFNE16.jpg,FN,3,num_2,32,num_8,0.816798266023,,,2017_Jul_07_1544,60.008661195,MAFE4ImagesEEG,001,200867,
AFNE01.JPG,AFNE01.JPG,AFNE01.JPG,AFNE01.JPG,AFNE01.JPG,AFNE01.JPG,,,,,5,9,59,6,,,,,,,,,,,,,,,,,,,AFNE17.jpg,AFSA01.jpg,AFSA04.jpg,AFNE06.jpg,AFNE06.jpg,FN,3,num_4,32,num_6,1.00011001353,,,2017_Jul_07_1544,60.008661195,MAFE4ImagesEEG,001,200867,
,,,,,,,,,,,,,,,,,,,,,,,,,,,,,,,,,,,,,,,,,,,space,16.9151369011,2017_Jul_07_1544,60.008661195,MAFE4ImagesEEG,001,200867,
AFNE01.JPG,AFNE01.JPG,AFNE01.JPG,AFNE01.JPG,AFNE01.JPG,AFNE01.JPG,,,,,,,,,0,0,0,8,,,,,,,,,,,,,,,AMNE09.jpg,AMSA20.jpg,AMNE20.jpg,AMSA02.jpg,AMNE09.jpg,MN,1,num_8,32,num_4,0.816769399331,,,2017_Jul_07_1544,60.008661195,MAFE4ImagesEEG,001,200867,
AFNE01.JPG,AFNE01.JPG,AFNE01.JPG,AFNE01.JPG,AFNE01.JPG,AFNE01.JPG,,,,,,,,,0,1,1,1,,,,,,,,,,,,,,,AMSA15.jpg,AMSA03.jpg,AMNE07.jpg,AMNE02.jpg,AMNE07.jpg,MN,1,num_2,32,num_4,0.683475645375,,,2017_Jul_07_1544,60.008661195,MAFE4ImagesEEG,001,200867,
AFNE01.JPG,AFNE01.JPG,AFNE01.JPG,AFNE01.JPG,AFNE01.JPG,AFNE01.JPG,,,,,,,,,0,2,2,0,,,,,,,,,,,,,,,AMSA08.jpg,AMSA13.jpg,AMNE11.jpg,AMNE09.jpg,AMNE11.jpg,MN,1,num_2,32,num_6,0.583463393152,,,2017_Jul_07_1544,60.008661195,MAFE4ImagesEEG,001,200867,
AFNE01.JPG,AFNE01.JPG,AFNE01.JPG,AFNE01.JPG,AFNE01.JPG,AFNE01.JPG,,,,,,,,,0,3,3,4,,,,,,,,,,,,,,,AMNE11.jpg,AMSA12.jpg,AMSA05.jpg,AMNE07.jpg,AMNE07.jpg,MN,1,num_4,32,num_6,0.583481995971,,,2017_Jul_07_1544,60.008661195,MAFE4ImagesEEG,001,200867,
AFNE01.JPG,AFNE01.JPG,AFNE01.JPG,AFNE01.JPG,AFNE01.JPG,AFNE01.JPG,,,,,,,,,0,4,4,2,,,,,,,,,,,,,,,AMNE03.jpg,AMSA04.jpg,AMNE14.jpg,AMSA09.jpg,AMNE03.jpg,MN,1,num_8,16,num_8,0.850246872869,,,2017_Jul_07_1544,60.008661195,MAFE4ImagesEEG,001,200867,
AFNE01.JPG,AFNE01.JPG,AFNE01.JPG,AFNE01.JPG,AFNE01.JPG,AFNE01.JPG,,,,,,,,,0,5,5,5,,,,,,,,,,,,,,,AMNE04.jpg,AMSA08.jpg,AMSA19.jpg,AMNE19.jpg,AMNE19.jpg,MN,1,num_4,32,num_6,0.866759809316,,,2017_Jul_07_1544,60.008661195,MAFE4ImagesEEG,001,200867,
AFNE01.JPG,AFNE01.JPG,AFNE01.JPG,AFNE01.JPG,AFNE01.JPG,AFNE01.JPG,,,,,,,,,0,6,6,3,,,,,,,,,,,,,,,AMSA03.jpg,AMNE18.jpg,AMNE12.jpg,AMSA11.jpg,AMNE12.jpg,MN,1,num_2,32,num_8,0.766797592398,,,2017_Jul_07_1544,60.008661195,MAFE4ImagesEEG,001,200867,
AFNE01.JPG,AFNE01.JPG,AFNE01.JPG,AFNE01.JPG,AFNE01.JPG,AFNE01.JPG,,,,,,,,,0,7,7,6,,,,,,,,,,,,,,,AMNE09.jpg,AMSA11.jpg,AMSA09.jpg,AMNE07.jpg,AMNE07.jpg,MN,1,num_4,32,num_6,0.633517309325,,,2017_Jul_07_1544,60.008661195,MAFE4ImagesEEG,001,200867,
AFNE01.JPG,AFNE01.JPG,AFNE01.JPG,AFNE01.JPG,AFNE01.JPG,AFNE01.JPG,,,,,,,,,0,8,8,7,,,,,,,,,,,,,,,AMSA02.jpg,AMNE04.jpg,AMSA07.jpg,AMNE03.jpg,AMSA02.jpg,MS,2,num_8,32,num_4,0.816809171112,,,2017_Jul_07_1544,60.008661195,MAFE4ImagesEEG,001,200867,
AFNE01.JPG,AFNE01.JPG,AFNE01.JPG,AFNE01.JPG,AFNE01.JPG,AFNE01.JPG,,,,,,,,,0,9,9,9,,,,,,,,,,,,,,,AMNE17.jpg,AMSA08.jpg,AMSA05.jpg,AMNE19.jpg,AMSA05.jpg,MS,2,num_2,32,num_6,1.01663096843,,,2017_Jul_07_1544,60.008661195,MAFE4ImagesEEG,001,200867,
AFNE01.JPG,AFNE01.JPG,AFNE01.JPG,AFNE01.JPG,AFNE01.JPG,AFNE01.JPG,,,,,,,,,1,0,10,6,,,,,,,,,,,,,,,AMSA14.jpg,AMNE13.jpg,AMNE17.jpg,AMSA09.jpg,AMSA14.jpg,MS,2,num_8,16,num_8,0.883439530036,,,2017_Jul_07_1544,60.008661195,MAFE4ImagesEEG,001,200867,
AFNE01.JPG,AFNE01.JPG,AFNE01.JPG,AFNE01.JPG,AFNE01.JPG,AFNE01.JPG,,,,,,,,,1,1,11,2,,,,,,,,,,,,,,,AMSA13.jpg,AMNE19.jpg,AMSA12.jpg,AMNE18.jpg,AMNE19.jpg,MN,1,num_6,32,num_8,0.900196869625,,,2017_Jul_07_1544,60.008661195,MAFE4ImagesEEG,001,200867,
AFNE01.JPG,AFNE01.JPG,AFNE01.JPG,AFNE01.JPG,AFNE01.JPG,AFNE01.JPG,,,,,,,,,1,2,12,3,,,,,,,,,,,,,,,AMSA12.jpg,AMNE13.jpg,AMNE14.jpg,AMSA08.jpg,AMSA12.jpg,MS,2,num_8,32,num_6,0.799732054467,,,2017_Jul_07_1544,60.008661195,MAFE4ImagesEEG,001,200867,
AFNE01.JPG,AFNE01.JPG,AFNE01.JPG,AFNE01.JPG,AFNE01.JPG,AFNE01.JPG,,,,,,,,,1,3,13,9,,,,,,,,,,,,,,,AMSA17.jpg,AMNE04.jpg,AMNE17.jpg,AMSA16.jpg,AMSA16.jpg,MS,2,num_4,32,num_6,0.666788547533,,,2017_Jul_07_1544,60.008661195,MAFE4ImagesEEG,001,200867,
AFNE01.JPG,AFNE01.JPG,AFNE01.JPG,AFNE01.JPG,AFNE01.JPG,AFNE01.JPG,,,,,,,,,1,4,14,5,,,,,,,,,,,,,,,AMNE02.jpg,AMNE18.jpg,AMSA16.jpg,AMSA18.jpg,AMSA18.jpg,MS,2,num_4,16,num_4,0.716838614899,,,2017_Jul_07_1544,60.008661195,MAFE4ImagesEEG,001,200867,
AFNE01.JPG,AFNE01.JPG,AFNE01.JPG,AFNE01.JPG,AFNE01.JPG,AFNE01.JPG,,,,,,,,,1,5,15,7,,,,,,,,,,,,,,,AMNE15.jpg,AMSA01.jpg,AMNE04.jpg,AMSA20.jpg,AMNE04.jpg,MN,1,num_2,32,num_6,0.883465830702,,,2017_Jul_07_1544,60.008661195,MAFE4ImagesEEG,001,200867,
AFNE01.JPG,AFNE01.JPG,AFNE01.JPG,AFNE01.JPG,AFNE01.JPG,AFNE01.JPG,,,,,,,,,1,6,16,4,,,,,,,,,,,,,,,AMSA16.jpg,AMSA12.jpg,AMNE07.jpg,AMNE20.jpg,AMNE20.jpg,MN,1,num_4,32,num_8,2.35004801466,,,2017_Jul_07_1544,60.008661195,MAFE4ImagesEEG,001,200867,
AFNE01.JPG,AFNE01.JPG,AFNE01.JPG,AFNE01.JPG,AFNE01.JPG,AFNE01.JPG,,,,,,,,,1,7,17,1,,,,,,,,,,,,,,,AMSA09.jpg,AMSA20.jpg,AMNE15.jpg,AMNE13.jpg,AMNE13.jpg,MN,1,num_4,32,num_8,0.716895385762,,,2017_Jul_07_1544,60.008661195,MAFE4ImagesEEG,001,200867,
AFNE01.JPG,AFNE01.JPG,AFNE01.JPG,AFNE01.JPG,AFNE01.JPG,AFNE01.JPG,,,,,,,,,1,8,18,0,,,,,,,,,,,,,,,AMNE09.jpg,AMSA12.jpg,AMSA04.jpg,AMNE05.jpg,AMNE09.jpg,MN,1,num_8,32,num_6,0.833461949718,,,2017_Jul_07_1544,60.008661195,MAFE4ImagesEEG,001,200867,
AFNE01.JPG,AFNE01.JPG,AFNE01.JPG,AFNE01.JPG,AFNE01.JPG,AFNE01.JPG,,,,,,,,,1,9,19,8,,,,,,,,,,,,,,,AMSA20.jpg,AMSA16.jpg,AMNE05.jpg,AMNE07.jpg,AMSA20.jpg,MS,2,num_8,16,num_8,0.85013589717,,,2017_Jul_07_1544,60.008661195,MAFE4ImagesEEG,001,200867,
AFNE01.JPG,AFNE01.JPG,AFNE01.JPG,AFNE01.JPG,AFNE01.JPG,AFNE01.JPG,,,,,,,,,2,0,20,2,,,,,,,,,,,,,,,AMSA05.jpg,AMSA01.jpg,AMNE14.jpg,AMNE12.jpg,AMNE12.jpg,MN,1,num_4,32,num_8,0.750191000174,,,2017_Jul_07_1544,60.008661195,MAFE4ImagesEEG,001,200867,
AFNE01.JPG,AFNE01.JPG,AFNE01.JPG,AFNE01.JPG,AFNE01.JPG,AFNE01.JPG,,,,,,,,,2,1,21,0,,,,,,,,,,,,,,,AMSA11.jpg,AMNE11.jpg,AMSA07.jpg,AMNE13.jpg,AMNE11.jpg,MN,1,num_6,16,num_6,0.74997097312,,,2017_Jul_07_1544,60.008661195,MAFE4ImagesEEG,001,200867,
AFNE01.JPG,AFNE01.JPG,AFNE01.JPG,AFNE01.JPG,AFNE01.JPG,AFNE01.JPG,,,,,,,,,2,2,22,1,,,,,,,,,,,,,,,AMSA18.jpg,AMNE16.jpg,AMSA20.jpg,AMNE06.jpg,AMSA18.jpg,MS,2,num_8,32,num_4,1.03344700334,,,2017_Jul_07_1544,60.008661195,MAFE4ImagesEEG,001,200867,
AFNE01.JPG,AFNE01.JPG,AFNE01.JPG,AFNE01.JPG,AFNE01.JPG,AFNE01.JPG,,,,,,,,,2,3,23,6,,,,,,,,,,,,,,,AMNE02.jpg,AMSA19.jpg,AMNE19.jpg,AMSA16.jpg,AMSA19.jpg,MS,2,num_6,32,num_8,0.783526065527,,,2017_Jul_07_1544,60.008661195,MAFE4ImagesEEG,001,200867,
AFNE01.JPG,AFNE01.JPG,AFNE01.JPG,AFNE01.JPG,AFNE01.JPG,AFNE01.JPG,,,,,,,,,2,4,24,5,,,,,,,,,,,,,,,AMSA18.jpg,AMSA06.jpg,AMNE19.jpg,AMNE20.jpg,AMSA18.jpg,MS,2,num_8,16,num_8,0.650132561452,,,2017_Jul_07_1544,60.008661195,MAFE4ImagesEEG,001,200867,
AFNE01.JPG,AFNE01.JPG,AFNE01.JPG,AFNE01.JPG,AFNE01.JPG,AFNE01.JPG,,,,,,,,,2,5,25,3,,,,,,,,,,,,,,,AMSA01.jpg,AMSA06.jpg,AMNE04.jpg,AMNE18.jpg,AMSA01.jpg,MS,2,num_8,32,num_6,0.933464900474,,,2017_Jul_07_1544,60.008661195,MAFE4ImagesEEG,001,200867,
AFNE01.JPG,AFNE01.JPG,AFNE01.JPG,AFNE01.JPG,AFNE01.JPG,AFNE01.JPG,,,,,,,,,2,6,26,4,,,,,,,,,,,,,,,AMNE09.jpg,AMSA02.jpg,AMSA09.jpg,AMNE08.jpg,AMSA02.jpg,MS,2,num_6,16,num_6,0.733461564872,,,2017_Jul_07_1544,60.008661195,MAFE4ImagesEEG,001,200867,
AFNE01.JPG,AFNE01.JPG,AFNE01.JPG,AFNE01.JPG,AFNE01.JPG,AFNE01.JPG,,,,,,,,,2,7,27,8,,,,,,,,,,,,,,,AMNE10.jpg,AMSA10.jpg,AMNE03.jpg,AMSA08.jpg,AMSA08.jpg,MS,2,num_4,16,num_4,0.766812987858,,,2017_Jul_07_1544,60.008661195,MAFE4ImagesEEG,001,200867,
AFNE01.JPG,AFNE01.JPG,AFNE01.JPG,AFNE01.JPG,AFNE01.JPG,AFNE01.JPG,,,,,,,,,2,8,28,7,,,,,,,,,,,,,,,AMNE16.jpg,AMNE17.jpg,AMSA18.jpg,AMSA09.jpg,AMSA18.jpg,MS,2,num_2,32,num_8,0.833471892634,,,2017_Jul_07_1544,60.008661195,MAFE4ImagesEEG,001,200867,
AFNE01.JPG,AFNE01.JPG,AFNE01.JPG,AFNE01.JPG,AFNE01.JPG,AFNE01.JPG,,,,,,,,,2,9,29,9,,,,,,,,,,,,,,,AMSA16.jpg,AMNE03.jpg,AMSA13.jpg,AMNE10.jpg,AMSA16.jpg,MS,2,num_8,32,num_4,0.766765839187,,,2017_Jul_07_1544,60.008661195,MAFE4ImagesEEG,001,200867,
AFNE01.JPG,AFNE01.JPG,AFNE01.JPG,AFNE01.JPG,AFNE01.JPG,AFNE01.JPG,,,,,,,,,3,0,30,4,,,,,,,,,,,,,,,AMNE19.jpg,AMSA10.jpg,AMSA13.jpg,AMNE14.jpg,AMNE14.jpg,MN,1,num_4,16,num_4,2.44997591246,,,2017_Jul_07_1544,60.008661195,MAFE4ImagesEEG,001,200867,
AFNE01.JPG,AFNE01.JPG,AFNE01.JPG,AFNE01.JPG,AFNE01.JPG,AFNE01.JPG,,,,,,,,,3,1,31,9,,,,,,,,,,,,,,,AMNE08.jpg,AMSA05.jpg,AMSA09.jpg,AMNE10.jpg,AMNE10.jpg,MN,1,num_4,32,num_8,0.683467626804,,,2017_Jul_07_1544,60.008661195,MAFE4ImagesEEG,001,200867,
AFNE01.JPG,AFNE01.JPG,AFNE01.JPG,AFNE01.JPG,AFNE01.JPG,AFNE01.JPG,,,,,,,,,3,2,32,1,,,,,,,,,,,,,,,AMSA13.jpg,AMNE04.jpg,AMNE13.jpg,AMSA17.jpg,AMSA13.jpg,MS,2,num_8,16,num_8,0.766752047348,,,2017_Jul_07_1544,60.008661195,MAFE4ImagesEEG,001,200867,
AFNE01.JPG,AFNE01.JPG,AFNE01.JPG,AFNE01.JPG,AFNE01.JPG,AFNE01.JPG,,,,,,,,,3,3,33,5,,,,,,,,,,,,,,,AMSA04.jpg,AMNE07.jpg,AMNE05.jpg,AMSA02.jpg,AMSA04.jpg,MS,2,num_8,32,num_4,0.816764267627,,,2017_Jul_07_1544,60.008661195,MAFE4ImagesEEG,001,200867,
AFNE01.JPG,AFNE01.JPG,AFNE01.JPG,AFNE01.JPG,AFNE01.JPG,AFNE01.JPG,,,,,,,,,3,4,34,7,,,,,,,,,,,,,,,AMNE13.jpg,AMNE20.jpg,AMSA05.jpg,AMSA19.jpg,AMSA19.jpg,MS,2,num_4,16,num_4,0.633464387385,,,2017_Jul_07_1544,60.008661195,MAFE4ImagesEEG,001,200867,
AFNE01.JPG,AFNE01.JPG,AFNE01.JPG,AFNE01.JPG,AFNE01.JPG,AFNE01.JPG,,,,,,,,,3,5,35,6,,,,,,,,,,,,,,,AMNE19.jpg,AMSA20.jpg,AMSA13.jpg,AMNE13.jpg,AMSA13.jpg,MS,2,num_2,32,num_8,0.716773184133,,,2017_Jul_07_1544,60.008661195,MAFE4ImagesEEG,001,200867,
AFNE01.JPG,AFNE01.JPG,AFNE01.JPG,AFNE01.JPG,AFNE01.JPG,AFNE01.JPG,,,,,,,,,3,6,36,0,,,,,,,,,,,,,,,AMSA13.jpg,AMNE04.jpg,AMSA07.jpg,AMNE06.jpg,AMSA07.jpg,MS,2,num_2,16,num_2,0.933459448046,,,2017_Jul_07_1544,60.008661195,MAFE4ImagesEEG,001,200867,
AFNE01.JPG,AFNE01.JPG,AFNE01.JPG,AFNE01.JPG,AFNE01.JPG,AFNE01.JPG,,,,,,,,,3,7,37,8,,,,,,,,,,,,,,,AMSA07.jpg,AMNE18.jpg,AMNE10.jpg,AMSA05.jpg,AMSA07.jpg,MS,2,num_8,16,num_8,0.600119058392,,,2017_Jul_07_1544,60.008661195,MAFE4ImagesEEG,001,200867,
AFNE01.JPG,AFNE01.JPG,AFNE01.JPG,AFNE01.JPG,AFNE01.JPG,AFNE01.JPG,,,,,,,,,3,8,38,3,,,,,,,,,,,,,,,AMNE04.jpg,AMNE07.jpg,AMSA11.jpg,AMSA13.jpg,AMSA13.jpg,MS,2,num_4,16,num_4,0.700122650596,,,2017_Jul_07_1544,60.008661195,MAFE4ImagesEEG,001,200867,
AFNE01.JPG,AFNE01.JPG,AFNE01.JPG,AFNE01.JPG,AFNE01.JPG,AFNE01.JPG,,,,,,,,,3,9,39,2,,,,,,,,,,,,,,,AMNE08.jpg,AMSA17.jpg,AMNE11.jpg,AMSA14.jpg,AMSA14.jpg,MS,2,num_4,16,num_4,0.733444886515,,,2017_Jul_07_1544,60.008661195,MAFE4ImagesEEG,001,200867,
AFNE01.JPG,AFNE01.JPG,AFNE01.JPG,AFNE01.JPG,AFNE01.JPG,AFNE01.JPG,,,,,,,,,4,0,40,5,,,,,,,,,,,,,,,AMSA16.jpg,AMSA11.jpg,AMNE10.jpg,AMNE03.jpg,AMNE03.jpg,MN,1,num_4,32,num_6,0.766809780383,,,2017_Jul_07_1544,60.008661195,MAFE4ImagesEEG,001,200867,
AFNE01.JPG,AFNE01.JPG,AFNE01.JPG,AFNE01.JPG,AFNE01.JPG,AFNE01.JPG,,,,,,,,,4,1,41,1,,,,,,,,,,,,,,,AMSA06.jpg,AMNE02.jpg,AMNE01.jpg,AMSA03.jpg,AMNE01.jpg,MN,1,num_2,32,num_8,0.950127942837,,,2017_Jul_07_1544,60.008661195,MAFE4ImagesEEG,001,200867,
AFNE01.JPG,AFNE01.JPG,AFNE01.JPG,AFNE01.JPG,AFNE01.JPG,AFNE01.JPG,,,,,,,,,4,2,42,7,,,,,,,,,,,,,,,AMNE12.jpg,AMSA19.jpg,AMSA13.jpg,AMNE08.jpg,AMNE12.jpg,MN,1,num_8,32,num_6,0.600288729416,,,2017_Jul_07_1544,60.008661195,MAFE4ImagesEEG,001,200867,
AFNE01.JPG,AFNE01.JPG,AFNE01.JPG,AFNE01.JPG,AFNE01.JPG,AFNE01.JPG,,,,,,,,,4,3,43,3,,,,,,,,,,,,,,,AMSA01.jpg,AMSA12.jpg,AMNE04.jpg,AMNE20.jpg,AMNE20.jpg,MN,1,num_4,16,num_4,0.800131695461,,,2017_Jul_07_1544,60.008661195,MAFE4ImagesEEG,001,200867,
AFNE01.JPG,AFNE01.JPG,AFNE01.JPG,AFNE01.JPG,AFNE01.JPG,AFNE01.JPG,,,,,,,,,4,4,44,4,,,,,,,,,,,,,,,AMNE09.jpg,AMNE19.jpg,AMSA02.jpg,AMSA01.jpg,AMNE19.jpg,MN,1,num_6,32,num_8,0.666679175571,,,2017_Jul_07_1544,60.008661195,MAFE4ImagesEEG,001,200867,
AFNE01.JPG,AFNE01.JPG,AFNE01.JPG,AFNE01.JPG,AFNE01.JPG,AFNE01.JPG,,,,,,,,,4,5,45,9,,,,,,,,,,,,,,,AMNE14.jpg,AMSA14.jpg,AMNE19.jpg,AMSA13.jpg,AMSA13.jpg,MS,2,num_4,16,num_4,1.83340453741,,,2017_Jul_07_1544,60.008661195,MAFE4ImagesEEG,001,200867,
AFNE01.JPG,AFNE01.JPG,AFNE01.JPG,AFNE01.JPG,AFNE01.JPG,AFNE01.JPG,,,,,,,,,4,6,46,0,,,,,,,,,,,,,,,AMNE10.jpg,AMNE15.jpg,AMSA01.jpg,AMSA10.jpg,AMNE10.jpg,MN,1,num_8,32,num_6,0.733433019021,,,2017_Jul_07_1544,60.008661195,MAFE4ImagesEEG,001,200867,
AFNE01.JPG,AFNE01.JPG,AFNE01.JPG,AFNE01.JPG,AFNE01.JPG,AFNE01.JPG,,,,,,,,,4,7,47,6,,,,,,,,,,,,,,,AMNE08.jpg,AMNE04.jpg,AMSA07.jpg,AMSA11.jpg,AMSA11.jpg,MS,2,num_4,16,num_4,1.46665338799,,,2017_Jul_07_1544,60.008661195,MAFE4ImagesEEG,001,200867,
AFNE01.JPG,AFNE01.JPG,AFNE01.JPG,AFNE01.JPG,AFNE01.JPG,AFNE01.JPG,,,,,,,,,4,8,48,8,,,,,,,,,,,,,,,AMNE11.jpg,AMSA01.jpg,AMNE14.jpg,AMSA14.jpg,AMNE11.jpg,MN,1,num_8,16,num_8,1.06676955987,,,2017_Jul_07_1544,60.008661195,MAFE4ImagesEEG,001,200867,
AFNE01.JPG,AFNE01.JPG,AFNE01.JPG,AFNE01.JPG,AFNE01.JPG,AFNE01.JPG,,,,,,,,,4,9,49,2,,,,,,,,,,,,,,,AMNE14.jpg,AMSA11.jpg,AMSA07.jpg,AMNE07.jpg,AMSA11.jpg,MS,2,num_6,16,num_6,0.700201873202,,,2017_Jul_07_1544,60.008661195,MAFE4ImagesEEG,001,200867,
AFNE01.JPG,AFNE01.JPG,AFNE01.JPG,AFNE01.JPG,AFNE01.JPG,AFNE01.JPG,,,,,,,,,5,0,50,8,,,,,,,,,,,,,,,AMSA20.jpg,AMSA08.jpg,AMNE11.jpg,AMNE05.jpg,AMSA08.jpg,MS,2,num_6,16,num_6,0.650019661291,,,2017_Jul_07_1544,60.008661195,MAFE4ImagesEEG,001,200867,
AFNE01.JPG,AFNE01.JPG,AFNE01.JPG,AFNE01.JPG,AFNE01.JPG,AFNE01.JPG,,,,,,,,,5,1,51,6,,,,,,,,,,,,,,,AMSA11.jpg,AMNE16.jpg,AMNE10.jpg,AMSA04.jpg,AMNE16.jpg,MN,1,num_6,32,num_4,0.966845510877,,,2017_Jul_07_1544,60.008661195,MAFE4ImagesEEG,001,200867,
AFNE01.JPG,AFNE01.JPG,AFNE01.JPG,AFNE01.JPG,AFNE01.JPG,AFNE01.JPG,,,,,,,,,5,2,52,4,,,,,,,,,,,,,,,AMNE15.jpg,AMNE02.jpg,AMSA08.jpg,AMSA02.jpg,AMNE15.jpg,MN,1,num_8,32,num_6,1.06680227525,,,2017_Jul_07_1544,60.008661195,MAFE4ImagesEEG,001,200867,
AFNE01.JPG,AFNE01.JPG,AFNE01.JPG,AFNE01.JPG,AFNE01.JPG,AFNE01.JPG,,,,,,,,,5,3,53,0,,,,,,,,,,,,,,,AMNE13.jpg,AMNE04.jpg,AMSA02.jpg,AMSA20.jpg,AMNE13.jpg,MN,1,num_8,16,num_8,1.00020880112,,,2017_Jul_07_1544,60.008661195,MAFE4ImagesEEG,001,200867,
AFNE01.JPG,AFNE01.JPG,AFNE01.JPG,AFNE01.JPG,AFNE01.JPG,AFNE01.JPG,,,,,,,,,5,4,54,7,,,,,,,,,,,,,,,AMSA20.jpg,AMNE13.jpg,AMNE16.jpg,AMSA08.jpg,AMNE13.jpg,MN,1,num_6,32,num_8,0.766777706565,,,2017_Jul_07_1544,60.008661195,MAFE4ImagesEEG,001,200867,
AFNE01.JPG,AFNE01.JPG,AFNE01.JPG,AFNE01.JPG,AFNE01.JPG,AFNE01.JPG,,,,,,,,,5,5,55,3,,,,,,,,,,,,,,,AMSA09.jpg,AMNE14.jpg,AMSA12.jpg,AMNE17.jpg,AMSA12.jpg,MS,2,num_2,32,num_4,0.816776455613,,,2017_Jul_07_1544,60.008661195,MAFE4ImagesEEG,001,200867,
AFNE01.JPG,AFNE01.JPG,AFNE01.JPG,AFNE01.JPG,AFNE01.JPG,AFNE01.JPG,,,,,,,,,5,6,56,1,,,,,,,,,,,,,,,AMSA10.jpg,AMNE17.jpg,AMSA12.jpg,AMNE16.jpg,AMSA10.jpg,MS,2,num_8,16,num_8,0.850106389262,,,2017_Jul_07_1544,60.008661195,MAFE4ImagesEEG,001,200867,
AFNE01.JPG,AFNE01.JPG,AFNE01.JPG,AFNE01.JPG,AFNE01.JPG,AFNE01.JPG,,,,,,,,,5,7,57,5,,,,,,,,,,,,,,,AMSA04.jpg,AMNE11.jpg,AMSA03.jpg,AMNE09.jpg,AMSA03.jpg,MS,2,num_2,32,num_6,0.733474073699,,,2017_Jul_07_1544,60.008661195,MAFE4ImagesEEG,001,200867,
AFNE01.JPG,AFNE01.JPG,AFNE01.JPG,AFNE01.JPG,AFNE01.JPG,AFNE01.JPG,,,,,,,,,5,8,58,2,,,,,,,,,,,,,,,AMNE12.jpg,AMNE18.jpg,AMSA05.jpg,AMSA08.jpg,AMSA08.jpg,MS,2,num_4,32,num_8,0.78344395617,,,2017_Jul_07_1544,60.008661195,MAFE4ImagesEEG,001,200867,
AFNE01.JPG,AFNE01.JPG,AFNE01.JPG,AFNE01.JPG,AFNE01.JPG,AFNE01.JPG,,,,,,,,,5,9,59,9,,,,,,,,,,,,,,,AMSA05.jpg,AMSA02.jpg,AMNE16.jpg,AMNE20.jpg,AMNE16.jpg,MN,1,num_2,32,num_8,0.816755928332,,,2017_Jul_07_1544,60.008661195,MAFE4ImagesEEG,001,200867,
,,,,,,,,,,,,,,,,,,,,,,,,,,,,,,,,,,,,,,,,,,,space,14.549060587,2017_Jul_07_1544,60.008661195,MAFE4ImagesEEG,001,200867,
AFNE01.JPG,AFNE01.JPG,AFNE01.JPG,AFNE01.JPG,AFNE01.JPG,AFNE01.JPG,,,,,,,,,,,,,0,0,0,4,,,,,,,,,,,AFSA20.jpg,AFNE10.jpg,AFNE05.jpg,AFSA15.jpg,AFSA15.jpg,FS,4,num_4,32,num_6,0.750236865832,,,2017_Jul_07_1544,60.008661195,MAFE4ImagesEEG,001,200867,
AFNE01.JPG,AFNE01.JPG,AFNE01.JPG,AFNE01.JPG,AFNE01.JPG,AFNE01.JPG,,,,,,,,,,,,,0,1,1,5,,,,,,,,,,,AFSA19.jpg,AFSA17.jpg,AFNE15.jpg,AFNE18.jpg,AFNE15.jpg,FN,3,num_2,32,num_4,0.683512209565,,,2017_Jul_07_1544,60.008661195,MAFE4ImagesEEG,001,200867,
AFNE01.JPG,AFNE01.JPG,AFNE01.JPG,AFNE01.JPG,AFNE01.JPG,AFNE01.JPG,,,,,,,,,,,,,0,2,2,6,,,,,,,,,,,AFSA10.jpg,AFSA07.jpg,AFNE17.jpg,AFNE18.jpg,AFNE18.jpg,FN,3,num_4,32,num_6,0.666739153676,,,2017_Jul_07_1544,60.008661195,MAFE4ImagesEEG,001,200867,
AFNE01.JPG,AFNE01.JPG,AFNE01.JPG,AFNE01.JPG,AFNE01.JPG,AFNE01.JPG,,,,,,,,,,,,,0,3,3,3,,,,,,,,,,,AFNE13.jpg,AFNE04.jpg,AFSA12.jpg,AFSA15.jpg,AFSA12.jpg,FS,4,num_2,16,num_2,0.866870464408,,,2017_Jul_07_1544,60.008661195,MAFE4ImagesEEG,001,200867,
AFNE01.JPG,AFNE01.JPG,AFNE01.JPG,AFNE01.JPG,AFNE01.JPG,AFNE01.JPG,,,,,,,,,,,,,0,4,4,8,,,,,,,,,,,AFSA05.jpg,AFNE09.jpg,AFNE17.jpg,AFSA15.jpg,AFNE17.jpg,FN,3,num_2,32,num_6,0.700118801789,,,2017_Jul_07_1544,60.008661195,MAFE4ImagesEEG,001,200867,
AFNE01.JPG,AFNE01.JPG,AFNE01.JPG,AFNE01.JPG,AFNE01.JPG,AFNE01.JPG,,,,,,,,,,,,,0,5,5,1,,,,,,,,,,,AFSA17.jpg,AFNE19.jpg,AFSA10.jpg,AFNE12.jpg,AFSA17.jpg,FS,4,num_8,32,num_6,0.766794064199,,,2017_Jul_07_1544,60.008661195,MAFE4ImagesEEG,001,200867,
AFNE01.JPG,AFNE01.JPG,AFNE01.JPG,AFNE01.JPG,AFNE01.JPG,AFNE01.JPG,,,,,,,,,,,,,0,6,6,2,,,,,,,,,,,AFNE18.jpg,AFNE09.jpg,AFSA14.jpg,AFSA12.jpg,AFNE18.jpg,FN,3,num_8,32,num_6,0.716760675306,,,2017_Jul_07_1544,60.008661195,MAFE4ImagesEEG,001,200867,
AFNE01.JPG,AFNE01.JPG,AFNE01.JPG,AFNE01.JPG,AFNE01.JPG,AFNE01.JPG,,,,,,,,,,,,,0,7,7,7,,,,,,,,,,,AFNE20.jpg,AFSA18.jpg,AFNE19.jpg,AFSA14.jpg,AFSA14.jpg,FS,4,num_4,32,num_6,1.43354765116,,,2017_Jul_07_1544,60.008661195,MAFE4ImagesEEG,001,200867,
AFNE01.JPG,AFNE01.JPG,AFNE01.JPG,AFNE01.JPG,AFNE01.JPG,AFNE01.JPG,,,,,,,,,,,,,0,8,8,9,,,,,,,,,,,AFSA10.jpg,AFNE07.jpg,AFSA13.jpg,AFNE10.jpg,AFSA10.jpg,FS,4,num_8,32,num_4,1.11680006213,,,2017_Jul_07_1544,60.008661195,MAFE4ImagesEEG,001,200867,
AFNE01.JPG,AFNE01.JPG,AFNE01.JPG,AFNE01.JPG,AFNE01.JPG,AFNE01.JPG,,,,,,,,,,,,,0,9,9,0,,,,,,,,,,,AFNE08.jpg,AFNE09.jpg,AFSA02.jpg,AFSA18.jpg,AFSA18.jpg,FS,4,num_4,16,num_4,0.850134614273,,,2017_Jul_07_1544,60.008661195,MAFE4ImagesEEG,001,200867,
AFNE01.JPG,AFNE01.JPG,AFNE01.JPG,AFNE01.JPG,AFNE01.JPG,AFNE01.JPG,,,,,,,,,,,,,1,0,10,7,,,,,,,,,,,AFNE07.jpg,AFSA10.jpg,AFSA19.jpg,AFNE11.jpg,AFNE07.jpg,FN,3,num_8,32,num_6,0.70013419725,,,2017_Jul_07_1544,60.008661195,MAFE4ImagesEEG,001,200867,
AFNE01.JPG,AFNE01.JPG,AFNE01.JPG,AFNE01.JPG,AFNE01.JPG,AFNE01.JPG,,,,,,,,,,,,,1,1,11,5,,,,,,,,,,,AFNE09.jpg,AFSA12.jpg,AFSA14.jpg,AFNE14.jpg,AFNE09.jpg,FN,3,num_8,32,num_4,1.00014593638,,,2017_Jul_07_1544,60.008661195,MAFE4ImagesEEG,001,200867,
AFNE01.JPG,AFNE01.JPG,AFNE01.JPG,AFNE01.JPG,AFNE01.JPG,AFNE01.JPG,,,,,,,,,,,,,1,2,12,1,,,,,,,,,,,AFSA04.jpg,AFNE20.jpg,AFNE02.jpg,AFSA05.jpg,AFSA05.jpg,FS,4,num_4,32,num_2,1.21675939241,,,2017_Jul_07_1544,60.008661195,MAFE4ImagesEEG,001,200867,
AFNE01.JPG,AFNE01.JPG,AFNE01.JPG,AFNE01.JPG,AFNE01.JPG,AFNE01.JPG,,,,,,,,,,,,,1,3,13,8,,,,,,,,,,,AFNE04.jpg,AFSA15.jpg,AFSA18.jpg,AFNE15.jpg,AFSA18.jpg,FS,4,num_2,32,num_4,0.633536874433,,,2017_Jul_07_1544,60.008661195,MAFE4ImagesEEG,001,200867,
AFNE01.JPG,AFNE01.JPG,AFNE01.JPG,AFNE01.JPG,AFNE01.JPG,AFNE01.JPG,,,,,,,,,,,,,1,4,14,4,,,,,,,,,,,AFNE12.jpg,AFSA13.jpg,AFSA06.jpg,AFNE14.jpg,AFNE14.jpg,FN,3,num_4,32,num_2,1.05013538396,,,2017_Jul_07_1544,60.008661195,MAFE4ImagesEEG,001,200867,
AFNE01.JPG,AFNE01.JPG,AFNE01.JPG,AFNE01.JPG,AFNE01.JPG,AFNE01.JPG,,,,,,,,,,,,,1,5,15,3,,,,,,,,,,,AFNE10.jpg,AFSA18.jpg,AFSA09.jpg,AFNE16.jpg,AFNE10.jpg,FN,3,num_8,32,num_4,0.600020591402,,,2017_Jul_07_1544,60.008661195,MAFE4ImagesEEG,001,200867,
AFNE01.JPG,AFNE01.JPG,AFNE01.JPG,AFNE01.JPG,AFNE01.JPG,AFNE01.JPG,,,,,,,,,,,,,1,6,16,0,,,,,,,,,,,AFSA04.jpg,AFSA03.jpg,AFNE04.jpg,AFNE10.jpg,AFNE04.jpg,FN,3,num_2,32,num_6,0.650154051022,,,2017_Jul_07_1544,60.008661195,MAFE4ImagesEEG,001,200867,
AFNE01.JPG,AFNE01.JPG,AFNE01.JPG,AFNE01.JPG,AFNE01.JPG,AFNE01.JPG,,,,,,,,,,,,,1,7,17,2,,,,,,,,,,,AFNE02.jpg,AFNE17.jpg,AFSA19.jpg,AFSA04.jpg,AFNE02.jpg,FN,3,num_8,32,num_4,0.683454797254,,,2017_Jul_07_1544,60.008661195,MAFE4ImagesEEG,001,200867,
AFNE01.JPG,AFNE01.JPG,AFNE01.JPG,AFNE01.JPG,AFNE01.JPG,AFNE01.JPG,,,,,,,,,,,,,1,8,18,6,,,,,,,,,,,AFNE07.jpg,AFSA09.jpg,AFSA02.jpg,AFNE17.jpg,AFSA02.jpg,FS,4,num_2,32,num_8,0.650113637908,,,2017_Jul_07_1544,60.008661195,MAFE4ImagesEEG,001,200867,
AFNE01.JPG,AFNE01.JPG,AFNE01.JPG,AFNE01.JPG,AFNE01.JPG,AFNE01.JPG,,,,,,,,,,,,,1,9,19,9,,,,,,,,,,,AFSA02.jpg,AFNE07.jpg,AFSA05.jpg,AFNE10.jpg,AFNE10.jpg,FN,3,num_4,32,num_6,0.600127076847,,,2017_Jul_07_1544,60.008661195,MAFE4ImagesEEG,001,200867,
AFNE01.JPG,AFNE01.JPG,AFNE01.JPG,AFNE01.JPG,AFNE01.JPG,AFNE01.JPG,,,,,,,,,,,,,2,0,20,7,,,,,,,,,,,AFSA16.jpg,AFNE10.jpg,AFNE17.jpg,AFSA17.jpg,AFNE17.jpg,FN,3,num_2,32,num_4,0.666807471192,,,2017_Jul_07_1544,60.008661195,MAFE4ImagesEEG,001,200867,
AFNE01.JPG,AFNE01.JPG,AFNE01.JPG,AFNE01.JPG,AFNE01.JPG,AFNE01.JPG,,,,,,,,,,,,,2,1,21,5,,,,,,,,,,,AFNE13.jpg,AFNE11.jpg,AFSA04.jpg,AFSA11.jpg,AFNE11.jpg,FN,3,num_6,16,num_6,0.650201841258,,,2017_Jul_07_1544,60.008661195,MAFE4ImagesEEG,001,200867,
AFNE01.JPG,AFNE01.JPG,AFNE01.JPG,AFNE01.JPG,AFNE01.JPG,AFNE01.JPG,,,,,,,,,,,,,2,2,22,2,,,,,,,,,,,AFNE17.jpg,AFNE02.jpg,AFSA06.jpg,AFSA01.jpg,AFNE17.jpg,FN,3,num_8,32,num_4,1.4334857486,,,2017_Jul_07_1544,60.008661195,MAFE4ImagesEEG,001,200867,
AFNE01.JPG,AFNE01.JPG,AFNE01.JPG,AFNE01.JPG,AFNE01.JPG,AFNE01.JPG,,,,,,,,,,,,,2,3,23,8,,,,,,,,,,,AFSA09.jpg,AFNE12.jpg,AFSA08.jpg,AFNE11.jpg,AFSA08.jpg,FS,4,num_2,32,num_4,0.616841437411,,,2017_Jul_07_1544,60.008661195,MAFE4ImagesEEG,001,200867,
AFNE01.JPG,AFNE01.JPG,AFNE01.JPG,AFNE01.JPG,AFNE01.JPG,AFNE01.JPG,,,,,,,,,,,,,2,4,24,4,,,,,,,,,,,AFNE11.jpg,AFSA14.jpg,AFSA01.jpg,AFNE10.jpg,AFSA14.jpg,FS,4,num_6,32,num_8,0.533456625533,,,2017_Jul_07_1544,60.008661195,MAFE4ImagesEEG,001,200867,
AFNE01.JPG,AFNE01.JPG,AFNE01.JPG,AFNE01.JPG,AFNE01.JPG,AFNE01.JPG,,,,,,,,,,,,,2,5,25,1,,,,,,,,,,,AFNE08.jpg,AFSA02.jpg,AFSA18.jpg,AFNE17.jpg,AFSA18.jpg,FS,4,num_2,32,num_6,0.633468236192,,,2017_Jul_07_1544,60.008661195,MAFE4ImagesEEG,001,200867,
AFNE01.JPG,AFNE01.JPG,AFNE01.JPG,AFNE01.JPG,AFNE01.JPG,AFNE01.JPG,,,,,,,,,,,,,2,6,26,6,,,,,,,,,,,AFNE19.jpg,AFSA08.jpg,AFSA04.jpg,AFNE05.jpg,AFSA08.jpg,FS,4,num_6,16,num_6,0.966764043085,,,2017_Jul_07_1544,60.008661195,MAFE4ImagesEEG,001,200867,
AFNE01.JPG,AFNE01.JPG,AFNE01.JPG,AFNE01.JPG,AFNE01.JPG,AFNE01.JPG,,,,,,,,,,,,,2,7,27,0,,,,,,,,,,,AFNE17.jpg,AFSA09.jpg,AFSA19.jpg,AFNE05.jpg,AFNE05.jpg,FN,3,num_4,16,num_4,1.26675653772,,,2017_Jul_07_1544,60.008661195,MAFE4ImagesEEG,001,200867,
AFNE01.JPG,AFNE01.JPG,AFNE01.JPG,AFNE01.JPG,AFNE01.JPG,AFNE01.JPG,,,,,,,,,,,,,2,8,28,9,,,,,,,,,,,AFNE15.jpg,AFSA07.jpg,AFNE16.jpg,AFSA08.jpg,AFNE16.jpg,FN,3,num_2,32,num_6,0.683446778799,,,2017_Jul_07_1544,60.008661195,MAFE4ImagesEEG,001,200867,
AFNE01.JPG,AFNE01.JPG,AFNE01.JPG,AFNE01.JPG,AFNE01.JPG,AFNE01.JPG,,,,,,,,,,,,,2,9,29,3,,,,,,,,,,,AFNE13.jpg,AFNE06.jpg,AFSA16.jpg,AFSA20.jpg,AFNE13.jpg,FN,3,num_8,16,num_8,0.616790760658,,,2017_Jul_07_1544,60.008661195,MAFE4ImagesEEG,001,200867,
AFNE01.JPG,AFNE01.JPG,AFNE01.JPG,AFNE01.JPG,AFNE01.JPG,AFNE01.JPG,,,,,,,,,,,,,3,0,30,8,,,,,,,,,,,AFNE09.jpg,AFSA09.jpg,AFSA15.jpg,AFNE17.jpg,AFSA09.jpg,FS,4,num_6,16,num_6,0.76675653772,,,2017_Jul_07_1544,60.008661195,MAFE4ImagesEEG,001,200867,
AFNE01.JPG,AFNE01.JPG,AFNE01.JPG,AFNE01.JPG,AFNE01.JPG,AFNE01.JPG,,,,,,,,,,,,,3,1,31,3,,,,,,,,,,,AFSA19.jpg,AFNE19.jpg,AFNE17.jpg,AFSA14.jpg,AFNE19.jpg,FN,3,num_6,32,num_4,0.616755479365,,,2017_Jul_07_1544,60.008661195,MAFE4ImagesEEG,001,200867,
AFNE01.JPG,AFNE01.JPG,AFNE01.JPG,AFNE01.JPG,AFNE01.JPG,AFNE01.JPG,,,,,,,,,,,,,3,2,32,6,,,,,,,,,,,AFSA20.jpg,AFNE05.jpg,AFNE15.jpg,AFSA03.jpg,AFSA20.jpg,FS,4,num_8,32,num_6,0.633327752468,,,2017_Jul_07_1544,60.008661195,MAFE4ImagesEEG,001,200867,
AFNE01.JPG,AFNE01.JPG,AFNE01.JPG,AFNE01.JPG,AFNE01.JPG,AFNE01.JPG,,,,,,,,,,,,,3,3,33,2,,,,,,,,,,,AFSA18.jpg,AFNE09.jpg,AFNE11.jpg,AFSA08.jpg,AFNE11.jpg,FN,3,num_2,16,num_2,2.1335304596,,,2017_Jul_07_1544,60.008661195,MAFE4ImagesEEG,001,200867,
AFNE01.JPG,AFNE01.JPG,AFNE01.JPG,AFNE01.JPG,AFNE01.JPG,AFNE01.JPG,,,,,,,,,,,,,3,4,34,7,,,,,,,,,,,AFNE07.jpg,AFNE08.jpg,AFSA14.jpg,AFSA04.jpg,AFSA04.jpg,FS,4,num_4,32,num_6,0.833494344377,,,2017_Jul_07_1544,60.008661195,MAFE4ImagesEEG,001,200867,
AFNE01.JPG,AFNE01.JPG,AFNE01.JPG,AFNE01.JPG,AFNE01.JPG,AFNE01.JPG,,,,,,,,,,,,,3,5,35,4,,,,,,,,,,,AFNE20.jpg,AFSA10.jpg,AFNE10.jpg,AFSA18.jpg,AFNE20.jpg,FN,3,num_8,32,num_6,0.833467402379,,,2017_Jul_07_1544,60.008661195,MAFE4ImagesEEG,001,200867,
AFNE01.JPG,AFNE01.JPG,AFNE01.JPG,AFNE01.JPG,AFNE01.JPG,AFNE01.JPG,,,,,,,,,,,,,3,6,36,1,,,,,,,,,,,AFSA02.jpg,AFNE15.jpg,AFNE03.jpg,AFSA16.jpg,AFSA02.jpg,FS,4,num_8,16,num_8,0.883458453696,,,2017_Jul_07_1544,60.008661195,MAFE4ImagesEEG,001,200867,
AFNE01.JPG,AFNE01.JPG,AFNE01.JPG,AFNE01.JPG,AFNE01.JPG,AFNE01.JPG,,,,,,,,,,,,,3,7,37,5,,,,,,,,,,,AFSA20.jpg,AFNE02.jpg,AFSA08.jpg,AFNE01.jpg,AFNE01.jpg,FN,3,num_4,32,num_6,0.833565869252,,,2017_Jul_07_1544,60.008661195,MAFE4ImagesEEG,001,200867,
AFNE01.JPG,AFNE01.JPG,AFNE01.JPG,AFNE01.JPG,AFNE01.JPG,AFNE01.JPG,,,,,,,,,,,,,3,8,38,9,,,,,,,,,,,AFNE11.jpg,AFNE10.jpg,AFSA03.jpg,AFSA09.jpg,AFSA09.jpg,FS,4,num_4,32,num_6,0.866545234807,,,2017_Jul_07_1544,60.008661195,MAFE4ImagesEEG,001,200867,
AFNE01.JPG,AFNE01.JPG,AFNE01.JPG,AFNE01.JPG,AFNE01.JPG,AFNE01.JPG,,,,,,,,,,,,,3,9,39,0,,,,,,,,,,,AFNE18.jpg,AFNE03.jpg,AFSA05.jpg,AFSA19.jpg,AFNE18.jpg,FN,3,num_8,16,num_8,1.06686129118,,,2017_Jul_07_1544,60.008661195,MAFE4ImagesEEG,001,200867,
AFNE01.JPG,AFNE01.JPG,AFNE01.JPG,AFNE01.JPG,AFNE01.JPG,AFNE01.JPG,,,,,,,,,,,,,4,0,40,4,,,,,,,,,,,AFSA18.jpg,AFNE05.jpg,AFNE07.jpg,AFSA11.jpg,AFNE05.jpg,FN,3,num_6,32,num_4,0.650291968836,,,2017_Jul_07_1544,60.008661195,MAFE4ImagesEEG,001,200867,
AFNE01.JPG,AFNE01.JPG,AFNE01.JPG,AFNE01.JPG,AFNE01.JPG,AFNE01.JPG,,,,,,,,,,,,,4,1,41,1,,,,,,,,,,,AFNE02.jpg,AFSA20.jpg,AFSA07.jpg,AFNE06.jpg,AFSA07.jpg,FS,4,num_2,32,num_4,0.816792813363,,,2017_Jul_07_1544,60.008661195,MAFE4ImagesEEG,001,200867,
AFNE01.JPG,AFNE01.JPG,AFNE01.JPG,AFNE01.JPG,AFNE01.JPG,AFNE01.JPG,,,,,,,,,,,,,4,2,42,7,,,,,,,,,,,AFSA02.jpg,AFNE18.jpg,AFNE19.jpg,AFSA12.jpg,AFSA12.jpg,FS,4,num_4,16,num_4,0.750210244441,,,2017_Jul_07_1544,60.008661195,MAFE4ImagesEEG,001,200867,
AFNE01.JPG,AFNE01.JPG,AFNE01.JPG,AFNE01.JPG,AFNE01.JPG,AFNE01.JPG,,,,,,,,,,,,,4,3,43,2,,,,,,,,,,,AFSA02.jpg,AFSA06.jpg,AFNE06.jpg,AFNE01.jpg,AFNE06.jpg,FN,3,num_2,32,num_6,0.916723277071,,,2017_Jul_07_1544,60.008661195,MAFE4ImagesEEG,001,200867,
AFNE01.JPG,AFNE01.JPG,AFNE01.JPG,AFNE01.JPG,AFNE01.JPG,AFNE01.JPG,,,,,,,,,,,,,4,4,44,8,,,,,,,,,,,AFNE08.jpg,AFNE07.jpg,AFSA10.jpg,AFSA18.jpg,AFSA18.jpg,FS,4,num_4,16,num_4,0.816777417902,,,2017_Jul_07_1544,60.008661195,MAFE4ImagesEEG,001,200867,
AFNE01.JPG,AFNE01.JPG,AFNE01.JPG,AFNE01.JPG,AFNE01.JPG,AFNE01.JPG,,,,,,,,,,,,,4,5,45,9,,,,,,,,,,,AFNE05.jpg,AFSA03.jpg,AFSA05.jpg,AFNE12.jpg,AFNE12.jpg,FN,3,num_4,32,num_2,1.56671567564,,,2017_Jul_07_1544,60.008661195,MAFE4ImagesEEG,001,200867,
AFNE01.JPG,AFNE01.JPG,AFNE01.JPG,AFNE01.JPG,AFNE01.JPG,AFNE01.JPG,,,,,,,,,,,,,4,6,46,5,,,,,,,,,,,AFNE02.jpg,AFSA16.jpg,AFSA15.jpg,AFNE09.jpg,AFNE09.jpg,FN,3,num_4,32,num_8,0.716802692157,,,2017_Jul_07_1544,60.008661195,MAFE4ImagesEEG,001,200867,
AFNE01.JPG,AFNE01.JPG,AFNE01.JPG,AFNE01.JPG,AFNE01.JPG,AFNE01.JPG,,,,,,,,,,,,,4,7,47,6,,,,,,,,,,,AFNE06.jpg,AFSA18.jpg,AFNE11.jpg,AFSA10.jpg,AFSA18.jpg,FS,4,num_6,16,num_6,0.483470064355,,,2017_Jul_07_1544,60.008661195,MAFE4ImagesEEG,001,200867,
AFNE01.JPG,AFNE01.JPG,AFNE01.JPG,AFNE01.JPG,AFNE01.JPG,AFNE01.JPG,,,,,,,,,,,,,4,8,48,0,,,,,,,,,,,AFNE16.jpg,AFSA10.jpg,AFSA05.jpg,AFNE10.jpg,AFNE10.jpg,FN,3,num_4,16,num_4,0.633094895864,,,2017_Jul_07_1544,60.008661195,MAFE4ImagesEEG,001,200867,
AFNE01.JPG,AFNE01.JPG,AFNE01.JPG,AFNE01.JPG,AFNE01.JPG,AFNE01.JPG,,,,,,,,,,,,,4,9,49,3,,,,,,,,,,,AFNE02.jpg,AFNE12.jpg,AFSA06.jpg,AFSA19.jpg,AFSA06.jpg,FS,4,num_2,32,num_4,0.666700985748,,,2017_Jul_07_1544,60.008661195,MAFE4ImagesEEG,001,200867,
AFNE01.JPG,AFNE01.JPG,AFNE01.JPG,AFNE01.JPG,AFNE01.JPG,AFNE01.JPG,,,,,,,,,,,,,5,0,50,7,,,,,,,,,,,AFSA20.jpg,AFNE02.jpg,AFSA15.jpg,AFNE04.jpg,AFSA20.jpg,FS,4,num_8,16,num_8,0.566854235018,,,2017_Jul_07_1544,60.008661195,MAFE4ImagesEEG,001,200867,
AFNE01.JPG,AFNE01.JPG,AFNE01.JPG,AFNE01.JPG,AFNE01.JPG,AFNE01.JPG,,,,,,,,,,,,,5,1,51,5,,,,,,,,,,,AFSA09.jpg,AFNE06.jpg,AFNE07.jpg,AFSA06.jpg,AFNE07.jpg,FN,3,num_2,32,num_6,0.600442042691,,,2017_Jul_07_1544,60.008661195,MAFE4ImagesEEG,001,200867,
AFNE01.JPG,AFNE01.JPG,AFNE01.JPG,AFNE01.JPG,AFNE01.JPG,AFNE01.JPG,,,,,,,,,,,,,5,2,52,9,,,,,,,,,,,AFSA17.jpg,AFNE05.jpg,AFSA10.jpg,AFNE16.jpg,AFNE16.jpg,FN,3,num_4,32,num_6,0.816797303734,,,2017_Jul_07_1544,60.008661195,MAFE4ImagesEEG,001,200867,
AFNE01.JPG,AFNE01.JPG,AFNE01.JPG,AFNE01.JPG,AFNE01.JPG,AFNE01.JPG,,,,,,,,,,,,,5,3,53,8,,,,,,,,,,,AFSA01.jpg,AFNE17.jpg,AFSA15.jpg,AFNE19.jpg,AFSA15.jpg,FS,4,num_2,32,num_6,0.766740500811,,,2017_Jul_07_1544,60.008661195,MAFE4ImagesEEG,001,200867,
AFNE01.JPG,AFNE01.JPG,AFNE01.JPG,AFNE01.JPG,AFNE01.JPG,AFNE01.JPG,,,,,,,,,,,,,5,4,54,4,,,,,,,,,,,AFSA08.jpg,AFSA20.jpg,AFNE15.jpg,AFNE03.jpg,AFSA20.jpg,FS,4,num_6,32,num_8,1.18339321529,,,2017_Jul_07_1544,60.008661195,MAFE4ImagesEEG,001,200867,
AFNE01.JPG,AFNE01.JPG,AFNE01.JPG,AFNE01.JPG,AFNE01.JPG,AFNE01.JPG,,,,,,,,,,,,,5,5,55,0,,,,,,,,,,,AFNE04.jpg,AFNE07.jpg,AFSA11.jpg,AFSA17.jpg,AFSA17.jpg,FS,4,num_4,16,num_4,0.533473624615,,,2017_Jul_07_1544,60.008661195,MAFE4ImagesEEG,001,200867,
AFNE01.JPG,AFNE01.JPG,AFNE01.JPG,AFNE01.JPG,AFNE01.JPG,AFNE01.JPG,,,,,,,,,,,,,5,6,56,1,,,,,,,,,,,AFSA02.jpg,AFSA09.jpg,AFNE15.jpg,AFNE19.jpg,AFNE19.jpg,FN,3,num_4,32,num_8,0.81676779571,,,2017_Jul_07_1544,60.008661195,MAFE4ImagesEEG,001,200867,
AFNE01.JPG,AFNE01.JPG,AFNE01.JPG,AFNE01.JPG,AFNE01.JPG,AFNE01.JPG,,,,,,,,,,,,,5,7,57,2,,,,,,,,,,,AFSA02.jpg,AFNE12.jpg,AFNE07.jpg,AFSA14.jpg,AFSA14.jpg,FS,4,num_4,32,num_8,1.56675448513,,,2017_Jul_07_1544,60.008661195,MAFE4ImagesEEG,001,200867,
AFNE01.JPG,AFNE01.JPG,AFNE01.JPG,AFNE01.JPG,AFNE01.JPG,AFNE01.JPG,,,,,,,,,,,,,5,8,58,6,,,,,,,,,,,AFSA18.jpg,AFSA17.jpg,AFNE15.jpg,AFNE09.jpg,AFNE09.jpg,FN,3,num_4,32,num_8,0.700200590305,,,2017_Jul_07_1544,60.008661195,MAFE4ImagesEEG,001,200867,
AFNE01.JPG,AFNE01.JPG,AFNE01.JPG,AFNE01.JPG,AFNE01.JPG,AFNE01.JPG,,,,,,,,,,,,,5,9,59,3,,,,,,,,,,,AFNE10.jpg,AFNE09.jpg,AFSA11.jpg,AFSA15.jpg,AFNE09.jpg,FN,3,num_6,16,num_6,0.550132818171,,,2017_Jul_07_1544,60.008661195,MAFE4ImagesEEG,001,200867,
,,,,,,,,,,,,,,,,,,,,,,,,,,,,,,,,,,,,,,,,,,,space,9.58245723415,2017_Jul_07_1544,60.008661195,MAFE4ImagesEEG,001,200867,
AFNE01.JPG,AFNE01.JPG,AFNE01.JPG,AFNE01.JPG,AFNE01.JPG,AFNE01.JPG,,,,,,,,,,,,,,,,,0,0,0,5,,,,,,,AMNE11.jpg,AMNE20.jpg,AMSA02.jpg,AMSA09.jpg,AMSA09.jpg,MS,2,num_4,32,num_6,1.03339632647,,,2017_Jul_07_1544,60.008661195,MAFE4ImagesEEG,001,200867,
AFNE01.JPG,AFNE01.JPG,AFNE01.JPG,AFNE01.JPG,AFNE01.JPG,AFNE01.JPG,,,,,,,,,,,,,,,,,0,1,1,0,,,,,,,AMNE08.jpg,AMSA13.jpg,AMSA03.jpg,AMNE14.jpg,AMNE08.jpg,MN,1,num_8,32,num_2,1.21673277102,,,2017_Jul_07_1544,60.008661195,MAFE4ImagesEEG,001,200867,
AFNE01.JPG,AFNE01.JPG,AFNE01.JPG,AFNE01.JPG,AFNE01.JPG,AFNE01.JPG,,,,,,,,,,,,,,,,,0,2,2,2,,,,,,,AMNE15.jpg,AMNE18.jpg,AMSA01.jpg,AMSA08.jpg,AMSA01.jpg,MS,2,num_2,32,num_8,0.716819049791,,,2017_Jul_07_1544,60.008661195,MAFE4ImagesEEG,001,200867,
AFNE01.JPG,AFNE01.JPG,AFNE01.JPG,AFNE01.JPG,AFNE01.JPG,AFNE01.JPG,,,,,,,,,,,,,,,,,0,3,3,1,,,,,,,AMNE14.jpg,AMSA17.jpg,AMNE10.jpg,AMSA20.jpg,AMSA20.jpg,MS,2,num_4,16,num_4,0.799967477098,,,2017_Jul_07_1544,60.008661195,MAFE4ImagesEEG,001,200867,
AFNE01.JPG,AFNE01.JPG,AFNE01.JPG,AFNE01.JPG,AFNE01.JPG,AFNE01.JPG,,,,,,,,,,,,,,,,,0,4,4,8,,,,,,,AMNE11.jpg,AMSA12.jpg,AMNE10.jpg,AMSA13.jpg,AMSA12.jpg,MS,2,num_6,16,num_6,0.966727799503,,,2017_Jul_07_1544,60.008661195,MAFE4ImagesEEG,001,200867,
AFNE01.JPG,AFNE01.JPG,AFNE01.JPG,AFNE01.JPG,AFNE01.JPG,AFNE01.JPG,,,,,,,,,,,,,,,,,0,5,5,7,,,,,,,AMNE01.jpg,AMSA14.jpg,AMNE10.jpg,AMSA16.jpg,AMNE01.jpg,MN,1,num_8,16,num_8,0.883566542761,,,2017_Jul_07_1544,60.008661195,MAFE4ImagesEEG,001,200867,
AFNE01.JPG,AFNE01.JPG,AFNE01.JPG,AFNE01.JPG,AFNE01.JPG,AFNE01.JPG,,,,,,,,,,,,,,,,,0,6,6,3,,,,,,,AMNE15.jpg,AMNE20.jpg,AMSA18.jpg,AMSA16.jpg,AMNE20.jpg,MN,1,num_6,32,num_4,0.883447548607,,,2017_Jul_07_1544,60.008661195,MAFE4ImagesEEG,001,200867,
AFNE01.JPG,AFNE01.JPG,AFNE01.JPG,AFNE01.JPG,AFNE01.JPG,AFNE01.JPG,,,,,,,,,,,,,,,,,0,7,7,4,,,,,,,AMSA06.jpg,AMNE20.jpg,AMNE01.jpg,AMSA15.jpg,AMNE01.jpg,MN,1,num_2,32,num_6,0.7000787094,,,2017_Jul_07_1544,60.008661195,MAFE4ImagesEEG,001,200867,
AFNE01.JPG,AFNE01.JPG,AFNE01.JPG,AFNE01.JPG,AFNE01.JPG,AFNE01.JPG,,,,,,,,,,,,,,,,,0,8,8,9,,,,,,,AMSA20.jpg,AMSA05.jpg,AMNE08.jpg,AMNE05.jpg,AMSA05.jpg,MS,2,num_6,16,num_6,0.60013349168,,,2017_Jul_07_1544,60.008661195,MAFE4ImagesEEG,001,200867,
AFNE01.JPG,AFNE01.JPG,AFNE01.JPG,AFNE01.JPG,AFNE01.JPG,AFNE01.JPG,,,,,,,,,,,,,,,,,0,9,9,6,,,,,,,AMNE12.jpg,AMNE01.jpg,AMSA13.jpg,AMSA11.jpg,AMSA11.jpg,MS,2,num_4,32,num_8,0.566470310092,,,2017_Jul_07_1544,60.008661195,MAFE4ImagesEEG,001,200867,
AFNE01.JPG,AFNE01.JPG,AFNE01.JPG,AFNE01.JPG,AFNE01.JPG,AFNE01.JPG,,,,,,,,,,,,,,,,,1,0,10,9,,,,,,,AMSA11.jpg,AMSA12.jpg,AMNE19.jpg,AMNE05.jpg,AMNE19.jpg,MN,1,num_2,32,num_4,0.850131406914,,,2017_Jul_07_1544,60.008661195,MAFE4ImagesEEG,001,200867,
AFNE01.JPG,AFNE01.JPG,AFNE01.JPG,AFNE01.JPG,AFNE01.JPG,AFNE01.JPG,,,,,,,,,,,,,,,,,1,1,11,2,,,,,,,AMSA02.jpg,AMSA16.jpg,AMNE12.jpg,AMNE10.jpg,AMNE10.jpg,MN,1,num_4,16,num_4,0.56682600989,,,2017_Jul_07_1544,60.008661195,MAFE4ImagesEEG,001,200867,
AFNE01.JPG,AFNE01.JPG,AFNE01.JPG,AFNE01.JPG,AFNE01.JPG,AFNE01.JPG,,,,,,,,,,,,,,,,,1,2,12,0,,,,,,,AMSA10.jpg,AMSA05.jpg,AMNE19.jpg,AMNE09.jpg,AMSA10.jpg,MS,2,num_8,32,num_4,1.04993588419,,,2017_Jul_07_1544,60.008661195,MAFE4ImagesEEG,001,200867,
AFNE01.JPG,AFNE01.JPG,AFNE01.JPG,AFNE01.JPG,AFNE01.JPG,AFNE01.JPG,,,,,,,,,,,,,,,,,1,3,13,8,,,,,,,AMNE12.jpg,AMSA16.jpg,AMSA17.jpg,AMNE01.jpg,AMNE01.jpg,MN,1,num_4,32,num_2,1.1334159557,,,2017_Jul_07_1544,60.008661195,MAFE4ImagesEEG,001,200867,
AFNE01.JPG,AFNE01.JPG,AFNE01.JPG,AFNE01.JPG,AFNE01.JPG,AFNE01.JPG,,,,,,,,,,,,,,,,,1,4,14,1,,,,,,,AMSA13.jpg,AMNE02.jpg,AMNE01.jpg,AMSA09.jpg,AMNE02.jpg,MN,1,num_6,32,num_2,0.983416180359,,,2017_Jul_07_1544,60.008661195,MAFE4ImagesEEG,001,200867,
AFNE01.JPG,AFNE01.JPG,AFNE01.JPG,AFNE01.JPG,AFNE01.JPG,AFNE01.JPG,,,,,,,,,,,,,,,,,1,5,15,3,,,,,,,AMNE17.jpg,AMSA03.jpg,AMNE13.jpg,AMSA19.jpg,AMNE17.jpg,MN,1,num_8,32,num_6,0.866925310693,,,2017_Jul_07_1544,60.008661195,MAFE4ImagesEEG,001,200867,
AFNE01.JPG,AFNE01.JPG,AFNE01.JPG,AFNE01.JPG,AFNE01.JPG,AFNE01.JPG,,,,,,,,,,,,,,,,,1,6,16,4,,,,,,,AMNE04.jpg,AMSA04.jpg,AMNE09.jpg,AMSA02.jpg,AMNE09.jpg,MN,1,num_2,32,num_8,0.866687642992,,,2017_Jul_07_1544,60.008661195,MAFE4ImagesEEG,001,200867,
AFNE01.JPG,AFNE01.JPG,AFNE01.JPG,AFNE01.JPG,AFNE01.JPG,AFNE01.JPG,,,,,,,,,,,,,,,,,1,7,17,6,,,,,,,AMNE17.jpg,AMNE19.jpg,AMSA11.jpg,AMSA06.jpg,AMNE19.jpg,MN,1,num_6,16,num_6,0.716806541081,,,2017_Jul_07_1544,60.008661195,MAFE4ImagesEEG,001,200867,
AFNE01.JPG,AFNE01.JPG,AFNE01.JPG,AFNE01.JPG,AFNE01.JPG,AFNE01.JPG,,,,,,,,,,,,,,,,,1,8,18,7,,,,,,,AMNE18.jpg,AMSA13.jpg,AMSA03.jpg,AMNE15.jpg,AMNE18.jpg,MN,1,num_8,32,num_4,0.80017531605,,,2017_Jul_07_1544,60.008661195,MAFE4ImagesEEG,001,200867,
AFNE01.JPG,AFNE01.JPG,AFNE01.JPG,AFNE01.JPG,AFNE01.JPG,AFNE01.JPG,,,,,,,,,,,,,,,,,1,9,19,5,,,,,,,AMNE10.jpg,AMNE20.jpg,AMSA15.jpg,AMSA09.jpg,AMSA09.jpg,MS,2,num_4,32,num_6,0.600148566416,,,2017_Jul_07_1544,60.008661195,MAFE4ImagesEEG,001,200867,
AFNE01.JPG,AFNE01.JPG,AFNE01.JPG,AFNE01.JPG,AFNE01.JPG,AFNE01.JPG,,,,,,,,,,,,,,,,,2,0,20,0,,,,,,,AMSA06.jpg,AMSA01.jpg,AMNE16.jpg,AMNE09.jpg,AMNE16.jpg,MN,1,num_2,32,num_4,0.816738287685,,,2017_Jul_07_1544,60.008661195,MAFE4ImagesEEG,001,200867,
AFNE01.JPG,AFNE01.JPG,AFNE01.JPG,AFNE01.JPG,AFNE01.JPG,AFNE01.JPG,,,,,,,,,,,,,,,,,2,1,21,6,,,,,,,AMSA12.jpg,AMSA15.jpg,AMNE09.jpg,AMNE01.jpg,AMNE01.jpg,MN,1,num_4,32,num_6,0.83345617645,,,2017_Jul_07_1544,60.008661195,MAFE4ImagesEEG,001,200867,
AFNE01.JPG,AFNE01.JPG,AFNE01.JPG,AFNE01.JPG,AFNE01.JPG,AFNE01.JPG,,,,,,,,,,,,,,,,,2,2,22,5,,,,,,,AMNE19.jpg,AMSA10.jpg,AMNE09.jpg,AMSA17.jpg,AMSA10.jpg,MS,2,num_6,32,num_2,1.94990374625,,,2017_Jul_07_1544,60.008661195,MAFE4ImagesEEG,001,200867,
AFNE01.JPG,AFNE01.JPG,AFNE01.JPG,AFNE01.JPG,AFNE01.JPG,AFNE01.JPG,,,,,,,,,,,,,,,,,2,3,23,9,,,,,,,AMNE04.jpg,AMSA15.jpg,AMSA02.jpg,AMNE19.jpg,AMSA15.jpg,MS,2,num_6,16,num_6,0.600151132327,,,2017_Jul_07_1544,60.008661195,MAFE4ImagesEEG,001,200867,
AFNE01.JPG,AFNE01.JPG,AFNE01.JPG,AFNE01.JPG,AFNE01.JPG,AFNE01.JPG,,,,,,,,,,,,,,,,,2,4,24,4,,,,,,,AMSA10.jpg,AMSA05.jpg,AMNE13.jpg,AMNE17.jpg,AMSA10.jpg,MS,2,num_8,32,num_4,0.56680195441,,,2017_Jul_07_1544,60.008661195,MAFE4ImagesEEG,001,200867,
AFNE01.JPG,AFNE01.JPG,AFNE01.JPG,AFNE01.JPG,AFNE01.JPG,AFNE01.JPG,,,,,,,,,,,,,,,,,2,5,25,2,,,,,,,AMSA09.jpg,AMNE19.jpg,AMSA17.jpg,AMNE16.jpg,AMSA09.jpg,MS,2,num_8,32,num_4,0.650011001388,,,2017_Jul_07_1544,60.008661195,MAFE4ImagesEEG,001,200867,
AFNE01.JPG,AFNE01.JPG,AFNE01.JPG,AFNE01.JPG,AFNE01.JPG,AFNE01.JPG,,,,,,,,,,,,,,,,,2,6,26,1,,,,,,,AMNE08.jpg,AMSA16.jpg,AMNE14.jpg,AMSA08.jpg,AMSA08.jpg,MS,2,num_4,32,num_6,0.866857634857,,,2017_Jul_07_1544,60.008661195,MAFE4ImagesEEG,001,200867,
AFNE01.JPG,AFNE01.JPG,AFNE01.JPG,AFNE01.JPG,AFNE01.JPG,AFNE01.JPG,,,,,,,,,,,,,,,,,2,7,27,7,,,,,,,AMNE09.jpg,AMSA15.jpg,AMSA05.jpg,AMNE11.jpg,AMSA15.jpg,MS,2,num_6,32,num_2,1.70003797556,,,2017_Jul_07_1544,60.008661195,MAFE4ImagesEEG,001,200867,
AFNE01.JPG,AFNE01.JPG,AFNE01.JPG,AFNE01.JPG,AFNE01.JPG,AFNE01.JPG,,,,,,,,,,,,,,,,,2,8,28,8,,,,,,,AMSA19.jpg,AMSA11.jpg,AMNE17.jpg,AMNE06.jpg,AMNE17.jpg,MN,1,num_2,32,num_4,0.683458966902,,,2017_Jul_07_1544,60.008661195,MAFE4ImagesEEG,001,200867,
AFNE01.JPG,AFNE01.JPG,AFNE01.JPG,AFNE01.JPG,AFNE01.JPG,AFNE01.JPG,,,,,,,,,,,,,,,,,2,9,29,3,,,,,,,AMSA16.jpg,AMNE19.jpg,AMSA09.jpg,AMNE04.jpg,AMSA16.jpg,MS,2,num_8,32,num_6,0.6834432506,,,2017_Jul_07_1544,60.008661195,MAFE4ImagesEEG,001,200867,
AFNE01.JPG,AFNE01.JPG,AFNE01.JPG,AFNE01.JPG,AFNE01.JPG,AFNE01.JPG,,,,,,,,,,,,,,,,,3,0,30,1,,,,,,,AMSA18.jpg,AMNE15.jpg,AMNE08.jpg,AMSA07.jpg,AMSA18.jpg,MS,2,num_8,32,num_6,0.733438792406,,,2017_Jul_07_1544,60.008661195,MAFE4ImagesEEG,001,200867,
AFNE01.JPG,AFNE01.JPG,AFNE01.JPG,AFNE01.JPG,AFNE01.JPG,AFNE01.JPG,,,,,,,,,,,,,,,,,3,1,31,0,,,,,,,AMNE01.jpg,AMNE20.jpg,AMSA16.jpg,AMSA17.jpg,AMSA16.jpg,MS,2,num_2,32,num_4,0.616775365197,,,2017_Jul_07_1544,60.008661195,MAFE4ImagesEEG,001,200867,
AFNE01.JPG,AFNE01.JPG,AFNE01.JPG,AFNE01.JPG,AFNE01.JPG,AFNE01.JPG,,,,,,,,,,,,,,,,,3,2,32,2,,,,,,,AMSA20.jpg,AMNE18.jpg,AMNE20.jpg,AMSA16.jpg,AMSA16.jpg,MS,2,num_4,32,num_6,0.566784634604,,,2017_Jul_07_1544,60.008661195,MAFE4ImagesEEG,001,200867,
AFNE01.JPG,AFNE01.JPG,AFNE01.JPG,AFNE01.JPG,AFNE01.JPG,AFNE01.JPG,,,,,,,,,,,,,,,,,3,3,33,9,,,,,,,AMSA20.jpg,AMSA01.jpg,AMNE07.jpg,AMNE11.jpg,AMSA01.jpg,MS,2,num_6,16,num_6,0.666777963168,,,2017_Jul_07_1544,60.008661195,MAFE4ImagesEEG,001,200867,
AFNE01.JPG,AFNE01.JPG,AFNE01.JPG,AFNE01.JPG,AFNE01.JPG,AFNE01.JPG,,,,,,,,,,,,,,,,,3,4,34,6,,,,,,,AMNE07.jpg,AMSA08.jpg,AMNE03.jpg,AMSA03.jpg,AMNE03.jpg,MN,1,num_2,32,num_4,0.750016518054,,,2017_Jul_07_1544,60.008661195,MAFE4ImagesEEG,001,200867,
AFNE01.JPG,AFNE01.JPG,AFNE01.JPG,AFNE01.JPG,AFNE01.JPG,AFNE01.JPG,,,,,,,,,,,,,,,,,3,5,35,8,,,,,,,AMNE03.jpg,AMSA13.jpg,AMSA09.jpg,AMNE15.jpg,AMNE03.jpg,MN,1,num_8,16,num_8,0.733483695891,,,2017_Jul_07_1544,60.008661195,MAFE4ImagesEEG,001,200867,
AFNE01.JPG,AFNE01.JPG,AFNE01.JPG,AFNE01.JPG,AFNE01.JPG,AFNE01.JPG,,,,,,,,,,,,,,,,,3,6,36,4,,,,,,,AMNE02.jpg,AMNE13.jpg,AMSA08.jpg,AMSA19.jpg,AMNE02.jpg,MN,1,num_8,32,num_6,0.766760065919,,,2017_Jul_07_1544,60.008661195,MAFE4ImagesEEG,001,200867,
AFNE01.JPG,AFNE01.JPG,AFNE01.JPG,AFNE01.JPG,AFNE01.JPG,AFNE01.JPG,,,,,,,,,,,,,,,,,3,7,37,7,,,,,,,AMNE18.jpg,AMNE16.jpg,AMSA01.jpg,AMSA13.jpg,AMNE16.jpg,MN,1,num_6,16,num_6,0.516788130626,,,2017_Jul_07_1544,60.008661195,MAFE4ImagesEEG,001,200867,
AFNE01.JPG,AFNE01.JPG,AFNE01.JPG,AFNE01.JPG,AFNE01.JPG,AFNE01.JPG,,,,,,,,,,,,,,,,,3,8,38,3,,,,,,,AMSA11.jpg,AMNE10.jpg,AMSA12.jpg,AMNE04.jpg,AMSA11.jpg,MS,2,num_8,16,num_8,0.76676423545,,,2017_Jul_07_1544,60.008661195,MAFE4ImagesEEG,001,200867,
AFNE01.JPG,AFNE01.JPG,AFNE01.JPG,AFNE01.JPG,AFNE01.JPG,AFNE01.JPG,,,,,,,,,,,,,,,,,3,9,39,5,,,,,,,AMNE09.jpg,AMSA16.jpg,AMSA06.jpg,AMNE01.jpg,AMSA06.jpg,MS,2,num_2,32,num_6,0.816817189567,,,2017_Jul_07_1544,60.008661195,MAFE4ImagesEEG,001,200867,
AFNE01.JPG,AFNE01.JPG,AFNE01.JPG,AFNE01.JPG,AFNE01.JPG,AFNE01.JPG,,,,,,,,,,,,,,,,,4,0,40,4,,,,,,,AMSA10.jpg,AMNE13.jpg,AMNE06.jpg,AMSA01.jpg,AMSA01.jpg,MS,2,num_4,16,num_4,0.733510958613,,,2017_Jul_07_1544,60.008661195,MAFE4ImagesEEG,001,200867,
AFNE01.JPG,AFNE01.JPG,AFNE01.JPG,AFNE01.JPG,AFNE01.JPG,AFNE01.JPG,,,,,,,,,,,,,,,,,4,1,41,8,,,,,,,AMSA01.jpg,AMNE13.jpg,AMSA15.jpg,AMNE18.jpg,AMSA15.jpg,MS,2,num_2,32,num_8,1.40011860931,,,2017_Jul_07_1544,60.008661195,MAFE4ImagesEEG,001,200867,
AFNE01.JPG,AFNE01.JPG,AFNE01.JPG,AFNE01.JPG,AFNE01.JPG,AFNE01.JPG,,,,,,,,,,,,,,,,,4,2,42,5,,,,,,,AMSA15.jpg,AMNE16.jpg,AMSA16.jpg,AMNE17.jpg,AMNE16.jpg,MN,1,num_6,16,num_6,0.61681930651,,,2017_Jul_07_1544,60.008661195,MAFE4ImagesEEG,001,200867,
AFNE01.JPG,AFNE01.JPG,AFNE01.JPG,AFNE01.JPG,AFNE01.JPG,AFNE01.JPG,,,,,,,,,,,,,,,,,4,3,43,6,,,,,,,AMNE05.jpg,AMNE06.jpg,AMSA19.jpg,AMSA18.jpg,AMSA18.jpg,MS,2,num_4,16,num_4,0.53352975403,,,2017_Jul_07_1544,60.008661195,MAFE4ImagesEEG,001,200867,
AFNE01.JPG,AFNE01.JPG,AFNE01.JPG,AFNE01.JPG,AFNE01.JPG,AFNE01.JPG,,,,,,,,,,,,,,,,,4,4,44,1,,,,,,,AMSA02.jpg,AMNE05.jpg,AMSA16.jpg,AMNE08.jpg,AMSA16.jpg,MS,2,num_2,32,num_8,0.650231670006,,,2017_Jul_07_1544,60.008661195,MAFE4ImagesEEG,001,200867,
AFNE01.JPG,AFNE01.JPG,AFNE01.JPG,AFNE01.JPG,AFNE01.JPG,AFNE01.JPG,,,,,,,,,,,,,,,,,4,5,45,3,,,,,,,AMSA15.jpg,AMNE17.jpg,AMNE04.jpg,AMSA06.jpg,AMSA06.jpg,MS,2,num_4,32,num_6,0.550105234608,,,2017_Jul_07_1544,60.008661195,MAFE4ImagesEEG,001,200867,
AFNE01.JPG,AFNE01.JPG,AFNE01.JPG,AFNE01.JPG,AFNE01.JPG,AFNE01.JPG,,,,,,,,,,,,,,,,,4,6,46,0,,,,,,,AMNE13.jpg,AMSA15.jpg,AMSA06.jpg,AMNE08.jpg,AMSA06.jpg,MS,2,num_2,32,num_8,0.800149015384,,,2017_Jul_07_1544,60.008661195,MAFE4ImagesEEG,001,200867,
AFNE01.JPG,AFNE01.JPG,AFNE01.JPG,AFNE01.JPG,AFNE01.JPG,AFNE01.JPG,,,,,,,,,,,,,,,,,4,7,47,7,,,,,,,AMSA01.jpg,AMNE15.jpg,AMNE10.jpg,AMSA06.jpg,AMNE10.jpg,MN,1,num_2,32,num_6,1.13342140836,,,2017_Jul_07_1544,60.008661195,MAFE4ImagesEEG,001,200867,
AFNE01.JPG,AFNE01.JPG,AFNE01.JPG,AFNE01.JPG,AFNE01.JPG,AFNE01.JPG,,,,,,,,,,,,,,,,,4,8,48,2,,,,,,,AMSA09.jpg,AMNE20.jpg,AMSA11.jpg,AMNE09.jpg,AMSA09.jpg,MS,2,num_8,16,num_8,0.716790824779,,,2017_Jul_07_1544,60.008661195,MAFE4ImagesEEG,001,200867,
AFNE01.JPG,AFNE01.JPG,AFNE01.JPG,AFNE01.JPG,AFNE01.JPG,AFNE01.JPG,,,,,,,,,,,,,,,,,4,9,49,9,,,,,,,AMNE02.jpg,AMSA11.jpg,AMNE04.jpg,AMSA10.jpg,AMSA10.jpg,MS,2,num_4,16,num_4,0.71676965605,,,2017_Jul_07_1544,60.008661195,MAFE4ImagesEEG,001,200867,
AFNE01.JPG,AFNE01.JPG,AFNE01.JPG,AFNE01.JPG,AFNE01.JPG,AFNE01.JPG,,,,,,,,,,,,,,,,,5,0,50,9,,,,,,,AMNE09.jpg,AMNE15.jpg,AMSA05.jpg,AMSA02.jpg,AMNE09.jpg,MN,1,num_8,16,num_8,0.500099429162,,,2017_Jul_07_1544,60.008661195,MAFE4ImagesEEG,001,200867,
AFNE01.JPG,AFNE01.JPG,AFNE01.JPG,AFNE01.JPG,AFNE01.JPG,AFNE01.JPG,,,,,,,,,,,,,,,,,5,1,51,7,,,,,,,AMSA20.jpg,AMNE04.jpg,AMNE07.jpg,AMSA13.jpg,AMNE07.jpg,MN,1,num_2,32,num_8,0.616859398782,,,2017_Jul_07_1544,60.008661195,MAFE4ImagesEEG,001,200867,
AFNE01.JPG,AFNE01.JPG,AFNE01.JPG,AFNE01.JPG,AFNE01.JPG,AFNE01.JPG,,,,,,,,,,,,,,,,,5,2,52,0,,,,,,,AMNE02.jpg,AMSA04.jpg,AMNE04.jpg,AMSA06.jpg,AMNE04.jpg,MN,1,num_2,32,num_6,0.466793230269,,,2017_Jul_07_1544,60.008661195,MAFE4ImagesEEG,001,200867,
AFNE01.JPG,AFNE01.JPG,AFNE01.JPG,AFNE01.JPG,AFNE01.JPG,AFNE01.JPG,,,,,,,,,,,,,,,,,5,3,53,2,,,,,,,AMSA06.jpg,AMSA16.jpg,AMNE19.jpg,AMNE08.jpg,AMSA06.jpg,MS,2,num_8,32,num_6,0.51678588544,,,2017_Jul_07_1544,60.008661195,MAFE4ImagesEEG,001,200867,
AFNE01.JPG,AFNE01.JPG,AFNE01.JPG,AFNE01.JPG,AFNE01.JPG,AFNE01.JPG,,,,,,,,,,,,,,,,,5,4,54,3,,,,,,,AMSA16.jpg,AMSA18.jpg,AMNE12.jpg,AMNE11.jpg,AMNE11.jpg,MN,1,num_4,32,num_8,0.566878931946,,,2017_Jul_07_1544,60.008661195,MAFE4ImagesEEG,001,200867,
AFNE01.JPG,AFNE01.JPG,AFNE01.JPG,AFNE01.JPG,AFNE01.JPG,AFNE01.JPG,,,,,,,,,,,,,,,,,5,5,55,6,,,,,,,AMNE05.jpg,AMSA04.jpg,AMSA15.jpg,AMNE14.jpg,AMNE05.jpg,MN,1,num_8,32,num_6,0.600239977008,,,2017_Jul_07_1544,60.008661195,MAFE4ImagesEEG,001,200867,
AFNE01.JPG,AFNE01.JPG,AFNE01.JPG,AFNE01.JPG,AFNE01.JPG,AFNE01.JPG,,,,,,,,,,,,,,,,,5,6,56,5,,,,,,,AMSA04.jpg,AMNE05.jpg,AMNE16.jpg,AMSA09.jpg,AMNE05.jpg,MN,1,num_6,16,num_6,0.500177368755,,,2017_Jul_07_1544,60.008661195,MAFE4ImagesEEG,001,200867,
AFNE01.JPG,AFNE01.JPG,AFNE01.JPG,AFNE01.JPG,AFNE01.JPG,AFNE01.JPG,,,,,,,,,,,,,,,,,5,7,57,8,,,,,,,AMNE05.jpg,AMSA09.jpg,AMNE10.jpg,AMSA19.jpg,AMSA19.jpg,MS,2,num_4,32,num_8,0.766773216194,,,2017_Jul_07_1544,60.008661195,MAFE4ImagesEEG,001,200867,
AFNE01.JPG,AFNE01.JPG,AFNE01.JPG,AFNE01.JPG,AFNE01.JPG,AFNE01.JPG,,,,,,,,,,,,,,,,,5,8,58,4,,,,,,,AMNE11.jpg,AMNE02.jpg,AMSA10.jpg,AMSA12.jpg,AMSA10.jpg,MS,2,num_2,32,num_6,0.816651367466,,,2017_Jul_07_1544,60.008661195,MAFE4ImagesEEG,001,200867,
AFNE01.JPG,AFNE01.JPG,AFNE01.JPG,AFNE01.JPG,AFNE01.JPG,AFNE01.JPG,,,,,,,,,,,,,,,,,5,9,59,1,,,,,,,AMSA02.jpg,AMNE11.jpg,AMNE13.jpg,AMSA03.jpg,AMSA02.jpg,MS,2,num_8,32,num_4,0.566787521122,,,2017_Jul_07_1544,60.008661195,MAFE4ImagesEEG,001,200867,
,,,,,,,,,,,,,,,,,,,,,,,,,,,,,,,,,,,,,,,,,,,space,9.44943546702,2017_Jul_07_1544,60.008661195,MAFE4ImagesEEG,001,200867,
AFNE01.JPG,AFNE01.JPG,AFNE01.JPG,AFNE01.JPG,AFNE01.JPG,AFNE01.JPG,,,,,,,,,,,,,,,,,,,,,0,0,0,0,,,AFNE03.jpg,AFNE20.jpg,AFSA06.jpg,AFSA10.jpg,AFSA06.jpg,FS,4,num_2,32,num_4,0.683429138153,,,2017_Jul_07_1544,60.008661195,MAFE4ImagesEEG,001,200867,
AFNE01.JPG,AFNE01.JPG,AFNE01.JPG,AFNE01.JPG,AFNE01.JPG,AFNE01.JPG,,,,,,,,,,,,,,,,,,,,,0,1,1,1,,,AFSA19.jpg,AFNE15.jpg,AFNE11.jpg,AFSA08.jpg,AFNE15.jpg,FN,3,num_6,16,num_6,0.483498610207,,,2017_Jul_07_1544,60.008661195,MAFE4ImagesEEG,001,200867,
AFNE01.JPG,AFNE01.JPG,AFNE01.JPG,AFNE01.JPG,AFNE01.JPG,AFNE01.JPG,,,,,,,,,,,,,,,,,,,,,0,2,2,7,,,AFNE10.jpg,AFSA13.jpg,AFNE12.jpg,AFSA02.jpg,AFSA02.jpg,FS,4,num_4,16,num_4,0.700241965707,,,2017_Jul_07_1544,60.008661195,MAFE4ImagesEEG,001,200867,
AFNE01.JPG,AFNE01.JPG,AFNE01.JPG,AFNE01.JPG,AFNE01.JPG,AFNE01.JPG,,,,,,,,,,,,,,,,,,,,,0,3,3,2,,,AFNE06.jpg,AFNE04.jpg,AFSA16.jpg,AFSA10.jpg,AFNE06.jpg,FN,3,num_8,16,num_8,0.666902409983,,,2017_Jul_07_1544,60.008661195,MAFE4ImagesEEG,001,200867,
AFNE01.JPG,AFNE01.JPG,AFNE01.JPG,AFNE01.JPG,AFNE01.JPG,AFNE01.JPG,,,,,,,,,,,,,,,,,,,,,0,4,4,6,,,AFSA20.jpg,AFNE01.jpg,AFNE09.jpg,AFSA11.jpg,AFSA20.jpg,FS,4,num_8,16,num_8,0.833455855725,,,2017_Jul_07_1544,60.008661195,MAFE4ImagesEEG,001,200867,
AFNE01.JPG,AFNE01.JPG,AFNE01.JPG,AFNE01.JPG,AFNE01.JPG,AFNE01.JPG,,,,,,,,,,,,,,,,,,,,,0,5,5,5,,,AFSA18.jpg,AFNE06.jpg,AFSA01.jpg,AFNE01.jpg,AFSA01.jpg,FS,4,num_2,32,num_4,0.766490324284,,,2017_Jul_07_1544,60.008661195,MAFE4ImagesEEG,001,200867,
AFNE01.JPG,AFNE01.JPG,AFNE01.JPG,AFNE01.JPG,AFNE01.JPG,AFNE01.JPG,,,,,,,,,,,,,,,,,,,,,0,6,6,8,,,AFNE01.jpg,AFSA13.jpg,AFSA01.jpg,AFNE17.jpg,AFSA01.jpg,FS,4,num_2,32,num_8,1.11680006213,,,2017_Jul_07_1544,60.008661195,MAFE4ImagesEEG,001,200867,
AFNE01.JPG,AFNE01.JPG,AFNE01.JPG,AFNE01.JPG,AFNE01.JPG,AFNE01.JPG,,,,,,,,,,,,,,,,,,,,,0,7,7,9,,,AFNE17.jpg,AFNE03.jpg,AFSA12.jpg,AFSA09.jpg,AFNE17.jpg,FN,3,num_8,32,num_6,0.61679428874,,,2017_Jul_07_1544,60.008661195,MAFE4ImagesEEG,001,200867,
AFNE01.JPG,AFNE01.JPG,AFNE01.JPG,AFNE01.JPG,AFNE01.JPG,AFNE01.JPG,,,,,,,,,,,,,,,,,,,,,0,8,8,4,,,AFSA10.jpg,AFNE12.jpg,AFSA19.jpg,AFNE14.jpg,AFSA19.jpg,FS,4,num_2,32,num_8,0.800109885167,,,2017_Jul_07_1544,60.008661195,MAFE4ImagesEEG,001,200867,
AFNE01.JPG,AFNE01.JPG,AFNE01.JPG,AFNE01.JPG,AFNE01.JPG,AFNE01.JPG,,,,,,,,,,,,,,,,,,,,,0,9,9,3,,,AFSA14.jpg,AFSA17.jpg,AFNE20.jpg,AFNE19.jpg,AFSA17.jpg,FS,4,num_6,16,num_6,0.650145711843,,,2017_Jul_07_1544,60.008661195,MAFE4ImagesEEG,001,200867,
AFNE01.JPG,AFNE01.JPG,AFNE01.JPG,AFNE01.JPG,AFNE01.JPG,AFNE01.JPG,,,,,,,,,,,,,,,,,,,,,1,0,10,0,,,AFNE01.jpg,AFSA05.jpg,AFSA19.jpg,AFNE13.jpg,AFNE13.jpg,FN,3,num_4,32,num_6,0.616765422281,,,2017_Jul_07_1544,60.008661195,MAFE4ImagesEEG,001,200867,
AFNE01.JPG,AFNE01.JPG,AFNE01.JPG,AFNE01.JPG,AFNE01.JPG,AFNE01.JPG,,,,,,,,,,,,,,,,,,,,,1,1,11,9,,,AFSA03.jpg,AFNE07.jpg,AFSA20.jpg,AFNE13.jpg,AFNE13.jpg,FN,3,num_4,16,num_4,0.666821262916,,,2017_Jul_07_1544,60.008661195,MAFE4ImagesEEG,001,200867,
AFNE01.JPG,AFNE01.JPG,AFNE01.JPG,AFNE01.JPG,AFNE01.JPG,AFNE01.JPG,,,,,,,,,,,,,,,,,,,,,1,2,12,8,,,AFNE15.jpg,AFSA02.jpg,AFSA19.jpg,AFNE04.jpg,AFSA02.jpg,FS,4,num_6,16,num_6,0.983442801633,,,2017_Jul_07_1544,60.008661195,MAFE4ImagesEEG,001,200867,
AFNE01.JPG,AFNE01.JPG,AFNE01.JPG,AFNE01.JPG,AFNE01.JPG,AFNE01.JPG,,,,,,,,,,,,,,,,,,,,,1,3,13,3,,,AFSA08.jpg,AFNE04.jpg,AFSA10.jpg,AFNE02.jpg,AFSA10.jpg,FS,4,num_2,32,num_6,0.683653976303,,,2017_Jul_07_1544,60.008661195,MAFE4ImagesEEG,001,200867,
AFNE01.JPG,AFNE01.JPG,AFNE01.JPG,AFNE01.JPG,AFNE01.JPG,AFNE01.JPG,,,,,,,,,,,,,,,,,,,,,1,4,14,2,,,AFSA11.jpg,AFNE14.jpg,AFSA03.jpg,AFNE15.jpg,AFNE15.jpg,FN,3,num_4,32,num_8,0.666810999275,,,2017_Jul_07_1544,60.008661195,MAFE4ImagesEEG,001,200867,
AFNE01.JPG,AFNE01.JPG,AFNE01.JPG,AFNE01.JPG,AFNE01.JPG,AFNE01.JPG,,,,,,,,,,,,,,,,,,,,,1,5,15,6,,,AFSA20.jpg,AFNE19.jpg,AFNE20.jpg,AFSA01.jpg,AFSA01.jpg,FS,4,num_4,16,num_4,1.08347109088,,,2017_Jul_07_1544,60.008661195,MAFE4ImagesEEG,001,200867,
AFNE01.JPG,AFNE01.JPG,AFNE01.JPG,AFNE01.JPG,AFNE01.JPG,AFNE01.JPG,,,,,,,,,,,,,,,,,,,,,1,6,16,7,,,AFNE15.jpg,AFNE16.jpg,AFSA16.jpg,AFSA19.jpg,AFSA16.jpg,FS,4,num_2,16,num_2,1.13345155772,,,2017_Jul_07_1544,60.008661195,MAFE4ImagesEEG,001,200867,
AFNE01.JPG,AFNE01.JPG,AFNE01.JPG,AFNE01.JPG,AFNE01.JPG,AFNE01.JPG,,,,,,,,,,,,,,,,,,,,,1,7,17,1,,,AFNE09.jpg,AFSA07.jpg,AFSA05.jpg,AFNE16.jpg,AFSA05.jpg,FS,4,num_2,16,num_2,1.26678123465,,,2017_Jul_07_1544,60.008661195,MAFE4ImagesEEG,001,200867,
AFNE01.JPG,AFNE01.JPG,AFNE01.JPG,AFNE01.JPG,AFNE01.JPG,AFNE01.JPG,,,,,,,,,,,,,,,,,,,,,1,8,18,4,,,AFSA11.jpg,AFNE17.jpg,AFNE08.jpg,AFSA18.jpg,AFNE08.jpg,FN,3,num_2,32,num_6,0.816753362538,,,2017_Jul_07_1544,60.008661195,MAFE4ImagesEEG,001,200867,
AFNE01.JPG,AFNE01.JPG,AFNE01.JPG,AFNE01.JPG,AFNE01.JPG,AFNE01.JPG,,,,,,,,,,,,,,,,,,,,,1,9,19,5,,,AFSA19.jpg,AFNE09.jpg,AFNE19.jpg,AFSA10.jpg,AFSA19.jpg,FS,4,num_8,32,num_4,0.916903532576,,,2017_Jul_07_1544,60.008661195,MAFE4ImagesEEG,001,200867,
AFNE01.JPG,AFNE01.JPG,AFNE01.JPG,AFNE01.JPG,AFNE01.JPG,AFNE01.JPG,,,,,,,,,,,,,,,,,,,,,2,0,20,9,,,AFSA13.jpg,AFNE05.jpg,AFSA14.jpg,AFNE04.jpg,AFNE04.jpg,FN,3,num_4,16,num_4,0.716794032254,,,2017_Jul_07_1544,60.008661195,MAFE4ImagesEEG,001,200867,
AFNE01.JPG,AFNE01.JPG,AFNE01.JPG,AFNE01.JPG,AFNE01.JPG,AFNE01.JPG,,,,,,,,,,,,,,,,,,,,,2,1,21,8,,,AFSA02.jpg,AFNE07.jpg,AFSA20.jpg,AFNE10.jpg,AFSA02.jpg,FS,4,num_8,16,num_8,0.683423364884,,,2017_Jul_07_1544,60.008661195,MAFE4ImagesEEG,001,200867,
AFNE01.JPG,AFNE01.JPG,AFNE01.JPG,AFNE01.JPG,AFNE01.JPG,AFNE01.JPG,,,,,,,,,,,,,,,,,,,,,2,2,22,0,,,AFSA17.jpg,AFNE20.jpg,AFNE12.jpg,AFSA13.jpg,AFSA13.jpg,FS,4,num_4,16,num_4,0.600121624302,,,2017_Jul_07_1544,60.008661195,MAFE4ImagesEEG,001,200867,
AFNE01.JPG,AFNE01.JPG,AFNE01.JPG,AFNE01.JPG,AFNE01.JPG,AFNE01.JPG,,,,,,,,,,,,,,,,,,,,,2,3,23,5,,,AFNE07.jpg,AFNE05.jpg,AFSA17.jpg,AFSA16.jpg,AFNE05.jpg,FN,3,num_6,32,num_4,0.633479782846,,,2017_Jul_07_1544,60.008661195,MAFE4ImagesEEG,001,200867,
AFNE01.JPG,AFNE01.JPG,AFNE01.JPG,AFNE01.JPG,AFNE01.JPG,AFNE01.JPG,,,,,,,,,,,,,,,,,,,,,2,4,24,4,,,AFNE16.jpg,AFSA13.jpg,AFNE07.jpg,AFSA08.jpg,AFNE16.jpg,FN,3,num_8,32,num_6,0.550113894511,,,2017_Jul_07_1544,60.008661195,MAFE4ImagesEEG,001,200867,
AFNE01.JPG,AFNE01.JPG,AFNE01.JPG,AFNE01.JPG,AFNE01.JPG,AFNE01.JPG,,,,,,,,,,,,,,,,,,,,,2,5,25,6,,,AFNE07.jpg,AFSA02.jpg,AFNE11.jpg,AFSA06.jpg,AFNE07.jpg,FN,3,num_8,16,num_8,0.583490655874,,,2017_Jul_07_1544,60.008661195,MAFE4ImagesEEG,001,200867,
AFNE01.JPG,AFNE01.JPG,AFNE01.JPG,AFNE01.JPG,AFNE01.JPG,AFNE01.JPG,,,,,,,,,,,,,,,,,,,,,2,6,26,3,,,AFSA19.jpg,AFNE19.jpg,AFNE11.jpg,AFSA07.jpg,AFNE19.jpg,FN,3,num_6,32,num_4,0.950009269407,,,2017_Jul_07_1544,60.008661195,MAFE4ImagesEEG,001,200867,
AFNE01.JPG,AFNE01.JPG,AFNE01.JPG,AFNE01.JPG,AFNE01.JPG,AFNE01.JPG,,,,,,,,,,,,,,,,,,,,,2,7,27,1,,,AFSA06.jpg,AFNE18.jpg,AFSA14.jpg,AFNE14.jpg,AFNE18.jpg,FN,3,num_6,16,num_6,0.7334997328,,,2017_Jul_07_1544,60.008661195,MAFE4ImagesEEG,001,200867,
AFNE01.JPG,AFNE01.JPG,AFNE01.JPG,AFNE01.JPG,AFNE01.JPG,AFNE01.JPG,,,,,,,,,,,,,,,,,,,,,2,8,28,2,,,AFNE18.jpg,AFNE05.jpg,AFSA07.jpg,AFSA17.jpg,AFNE05.jpg,FN,3,num_6,16,num_6,0.600158188492,,,2017_Jul_07_1544,60.008661195,MAFE4ImagesEEG,001,200867,
AFNE01.JPG,AFNE01.JPG,AFNE01.JPG,AFNE01.JPG,AFNE01.JPG,AFNE01.JPG,,,,,,,,,,,,,,,,,,,,,2,9,29,7,,,AFNE16.jpg,AFNE13.jpg,AFSA06.jpg,AFSA12.jpg,AFNE16.jpg,FN,3,num_8,32,num_4,0.650126467459,,,2017_Jul_07_1544,60.008661195,MAFE4ImagesEEG,001,200867,
AFNE01.JPG,AFNE01.JPG,AFNE01.JPG,AFNE01.JPG,AFNE01.JPG,AFNE01.JPG,,,,,,,,,,,,,,,,,,,,,3,0,30,9,,,AFSA08.jpg,AFNE02.jpg,AFNE05.jpg,AFSA12.jpg,AFSA08.jpg,FS,4,num_8,32,num_6,0.533306840225,,,2017_Jul_07_1544,60.008661195,MAFE4ImagesEEG,001,200867,
AFNE01.JPG,AFNE01.JPG,AFNE01.JPG,AFNE01.JPG,AFNE01.JPG,AFNE01.JPG,,,,,,,,,,,,,,,,,,,,,3,1,31,5,,,AFSA14.jpg,AFSA09.jpg,AFNE07.jpg,AFNE01.jpg,AFSA09.jpg,FS,4,num_6,16,num_6,0.666806508903,,,2017_Jul_07_1544,60.008661195,MAFE4ImagesEEG,001,200867,
AFNE01.JPG,AFNE01.JPG,AFNE01.JPG,AFNE01.JPG,AFNE01.JPG,AFNE01.JPG,,,,,,,,,,,,,,,,,,,,,3,2,32,0,,,AFNE04.jpg,AFNE03.jpg,AFSA13.jpg,AFSA05.jpg,AFSA05.jpg,FS,4,num_4,32,num_6,0.733450980508,,,2017_Jul_07_1544,60.008661195,MAFE4ImagesEEG,001,200867,
AFNE01.JPG,AFNE01.JPG,AFNE01.JPG,AFNE01.JPG,AFNE01.JPG,AFNE01.JPG,,,,,,,,,,,,,,,,,,,,,3,3,33,7,,,AFNE08.jpg,AFNE15.jpg,AFSA09.jpg,AFSA18.jpg,AFSA18.jpg,FS,4,num_4,16,num_4,0.783480199752,,,2017_Jul_07_1544,60.008661195,MAFE4ImagesEEG,001,200867,
AFNE01.JPG,AFNE01.JPG,AFNE01.JPG,AFNE01.JPG,AFNE01.JPG,AFNE01.JPG,,,,,,,,,,,,,,,,,,,,,3,4,34,1,,,AFSA05.jpg,AFSA12.jpg,AFNE15.jpg,AFNE06.jpg,AFSA12.jpg,FS,4,num_6,16,num_6,0.683462494984,,,2017_Jul_07_1544,60.008661195,MAFE4ImagesEEG,001,200867,
AFNE01.JPG,AFNE01.JPG,AFNE01.JPG,AFNE01.JPG,AFNE01.JPG,AFNE01.JPG,,,,,,,,,,,,,,,,,,,,,3,5,35,3,,,AFNE20.jpg,AFSA11.jpg,AFNE08.jpg,AFSA05.jpg,AFNE08.jpg,FN,3,num_2,32,num_6,0.6334913295,,,2017_Jul_07_1544,60.008661195,MAFE4ImagesEEG,001,200867,
AFNE01.JPG,AFNE01.JPG,AFNE01.JPG,AFNE01.JPG,AFNE01.JPG,AFNE01.JPG,,,,,,,,,,,,,,,,,,,,,3,6,36,6,,,AFNE03.jpg,AFNE11.jpg,AFSA07.jpg,AFSA12.jpg,AFNE11.jpg,FN,3,num_6,32,num_4,0.783456464997,,,2017_Jul_07_1544,60.008661195,MAFE4ImagesEEG,001,200867,
AFNE01.JPG,AFNE01.JPG,AFNE01.JPG,AFNE01.JPG,AFNE01.JPG,AFNE01.JPG,,,,,,,,,,,,,,,,,,,,,3,7,37,4,,,AFNE09.jpg,AFSA18.jpg,AFSA05.jpg,AFNE12.jpg,AFSA18.jpg,FS,4,num_6,16,num_6,0.500148823019,,,2017_Jul_07_1544,60.008661195,MAFE4ImagesEEG,001,200867,
AFNE01.JPG,AFNE01.JPG,AFNE01.JPG,AFNE01.JPG,AFNE01.JPG,AFNE01.JPG,,,,,,,,,,,,,,,,,,,,,3,8,38,8,,,AFSA19.jpg,AFSA14.jpg,AFNE02.jpg,AFNE18.jpg,AFNE02.jpg,FN,3,num_2,32,num_6,0.58346884558,,,2017_Jul_07_1544,60.008661195,MAFE4ImagesEEG,001,200867,
AFNE01.JPG,AFNE01.JPG,AFNE01.JPG,AFNE01.JPG,AFNE01.JPG,AFNE01.JPG,,,,,,,,,,,,,,,,,,,,,3,9,39,2,,,AFSA19.jpg,AFNE19.jpg,AFNE17.jpg,AFSA01.jpg,AFSA19.jpg,FS,4,num_8,16,num_8,0.566805803333,,,2017_Jul_07_1544,60.008661195,MAFE4ImagesEEG,001,200867,
