IPosition2,IPosition3,IPosition1,IPosition6,IPosition4,IPosition5,TrialsM1.thisRepN,TrialsM1.thisTrialN,TrialsM1.thisN,TrialsM1.thisIndex,TrialsF1.thisRepN,TrialsF1.thisTrialN,TrialsF1.thisN,TrialsF1.thisIndex,TrialsM2.thisRepN,TrialsM2.thisTrialN,TrialsM2.thisN,TrialsM2.thisIndex,TrialsF2.thisRepN,TrialsF2.thisTrialN,TrialsF2.thisN,TrialsF2.thisIndex,TrialsM3.thisRepN,TrialsM3.thisTrialN,TrialsM3.thisN,TrialsM3.thisIndex,TrialsF3.thisRepN,TrialsF3.thisTrialN,TrialsF3.thisN,TrialsF3.thisIndex,InstrKey_resp.keys,InstrKey_resp.rt,Image0 _Position,Image1 _Position,Image2 _Position,Image3 _Position,Center_image,condition,code,correct_answer,accuracy,Key_Resp.keys,Key_Resp.rt,BreakKey_resp.keys,BreakKey_resp.rt,date,frameRate,expName,session,participant,
,,,,,,,,,,,,,,,,,,,,,,,,,,,,,,space,10.5331133697,,,,,,,,,,,,,,2017_Jul_19_1530,60.0083724927,MAFE4ImagesEEG,001,200911,
AMSA21.JPG,AMNE22.JPG,AMNE21.JPG,AMSA23.JPG,AMSA22.JPG,AMNE23.JPG,0,0,0,1,,,,,,,,,,,,,,,,,,,,,,,AMSA08.jpg,AMNE09.jpg,AMSA10.jpg,AMNE12.jpg,AMNE09.jpg,MN,1,num_6,32,num_8,1.15010861866,,,2017_Jul_19_1530,60.0083724927,MAFE4ImagesEEG,001,200911,
AMSA21.JPG,AMNE23.JPG,AMNE21.JPG,AMSA25.JPG,AMNE25.JPG,AMSA23.JPG,0,1,1,5,,,,,,,,,,,,,,,,,,,,,,,AMSA01.jpg,AMNE14.jpg,AMNE20.jpg,AMSA08.jpg,AMSA01.jpg,MS,2,num_8,32,num_6,0.96672866572,,,2017_Jul_19_1530,60.0083724927,MAFE4ImagesEEG,001,200911,
AMNE23.JPG,AMNE24.JPG,AMNE22.JPG,AMSA24.JPG,AMSA22.JPG,AMSA23.JPG,0,2,2,9,,,,,,,,,,,,,,,,,,,,,,,AMSA09.jpg,AMSA07.jpg,AMNE16.jpg,AMNE08.jpg,AMSA07.jpg,MS,2,num_6,32,num_2,0.833542295499,,,2017_Jul_19_1530,60.0083724927,MAFE4ImagesEEG,001,200911,
AMSA25.JPG,AMNE24.JPG,AMSA24.JPG,AMNE26.JPG,AMSA21.JPG,AMNE25.JPG,0,3,3,3,,,,,,,,,,,,,,,,,,,,,,,AMNE18.jpg,AMSA10.jpg,AMSA03.jpg,AMNE06.jpg,AMNE06.jpg,MN,1,num_4,32,num_6,0.88349211571,,,2017_Jul_19_1530,60.0083724927,MAFE4ImagesEEG,001,200911,
AFSA21.JPG,AFNE22.JPG,AFNE21.JPG,AFSA23.JPG,AFSA22.JPG,AFNE23.JPG,0,4,4,0,,,,,,,,,,,,,,,,,,,,,,,AMNE14.jpg,AMSA07.jpg,AMNE17.jpg,AMSA14.jpg,AMNE14.jpg,MN,1,num_8,32,num_2,2.10010363112,,,2017_Jul_19_1530,60.0083724927,MAFE4ImagesEEG,001,200911,
AFNE22.JPG,AFSA24.JPG,AFSA22.JPG,AFNE25.JPG,AFNE24.JPG,AFSA25.JPG,0,5,5,6,,,,,,,,,,,,,,,,,,,,,,,AMSA19.jpg,AMNE20.jpg,AMSA15.jpg,AMNE15.jpg,AMSA19.jpg,MS,2,num_8,16,num_8,1.40002867416,,,2017_Jul_19_1530,60.0083724927,MAFE4ImagesEEG,001,200911,
AFSA25.JPG,AFNE24.JPG,AFSA24.JPG,AFNE21.JPG,AFSA21.JPG,AFNE25.JPG,0,6,6,2,,,,,,,,,,,,,,,,,,,,,,,AMSA13.jpg,AMSA09.jpg,AMNE16.jpg,AMNE05.jpg,AMNE16.jpg,MN,1,num_2,32,num_4,0.950138062588,,,2017_Jul_19_1530,60.0083724927,MAFE4ImagesEEG,001,200911,
AFSA21.JPG,AFNE23.JPG,AFNE21.JPG,AFSA25.JPG,AFNE25.JPG,AFSA23.JPG,0,7,7,4,,,,,,,,,,,,,,,,,,,,,,,AMSA01.jpg,AMNE06.jpg,AMSA08.jpg,AMNE17.jpg,AMNE06.jpg,MN,1,num_6,16,num_6,0.866478456359,,,2017_Jul_19_1530,60.0083724927,MAFE4ImagesEEG,001,200911,
AMNE22.JPG,AMSA24.JPG,AMSA22.JPG,AMNE25.JPG,AMNE24.JPG,AMSA25.JPG,0,8,8,7,,,,,,,,,,,,,,,,,,,,,,,AMSA12.jpg,AMNE01.jpg,AMNE02.jpg,AMSA16.jpg,AMSA16.jpg,MS,2,num_4,32,num_6,0.933452520374,,,2017_Jul_19_1530,60.0083724927,MAFE4ImagesEEG,001,200911,
AFNE23.JPG,AFNE24.JPG,AFNE22.JPG,AFSA24.JPG,AFSA22.JPG,AFSA23.JPG,0,9,9,8,,,,,,,,,,,,,,,,,,,,,,,AMNE08.jpg,AMSA15.jpg,AMSA12.jpg,AMNE04.jpg,AMNE04.jpg,MN,1,num_4,32,num_8,0.783452953387,,,2017_Jul_19_1530,60.0083724927,MAFE4ImagesEEG,001,200911,
AFSA21.JPG,AFNE23.JPG,AFNE21.JPG,AFSA25.JPG,AFNE25.JPG,AFSA23.JPG,,,,,0,0,0,4,,,,,,,,,,,,,,,,,,,AFNE14.jpg,AFNE15.jpg,AFSA05.jpg,AFSA12.jpg,AFNE14.jpg,FN,3,num_8,16,num_8,0.899995798303,,,2017_Jul_19_1530,60.0083724927,MAFE4ImagesEEG,001,200911,
AMSA21.JPG,AMNE23.JPG,AMNE21.JPG,AMSA25.JPG,AMNE25.JPG,AMSA23.JPG,,,,,0,1,1,5,,,,,,,,,,,,,,,,,,,AFSA09.jpg,AFNE05.jpg,AFSA08.jpg,AFNE19.jpg,AFSA09.jpg,FS,4,num_8,16,num_8,1.51670430554,,,2017_Jul_19_1530,60.0083724927,MAFE4ImagesEEG,001,200911,
AFSA25.JPG,AFNE24.JPG,AFSA24.JPG,AFNE21.JPG,AFSA21.JPG,AFNE25.JPG,,,,,0,2,2,2,,,,,,,,,,,,,,,,,,,AFNE19.jpg,AFNE03.jpg,AFSA11.jpg,AFSA17.jpg,AFNE03.jpg,FN,3,num_6,32,num_8,1.11676928747,,,2017_Jul_19_1530,60.0083724927,MAFE4ImagesEEG,001,200911,
AMNE23.JPG,AMNE24.JPG,AMNE22.JPG,AMSA24.JPG,AMSA22.JPG,AMSA23.JPG,,,,,0,3,3,9,,,,,,,,,,,,,,,,,,,AFNE03.jpg,AFNE12.jpg,AFSA09.jpg,AFSA11.jpg,AFSA11.jpg,FS,4,num_4,16,num_4,0.583501641697,,,2017_Jul_19_1530,60.0083724927,MAFE4ImagesEEG,001,200911,
AMSA25.JPG,AMNE24.JPG,AMSA24.JPG,AMNE26.JPG,AMSA21.JPG,AMNE25.JPG,,,,,0,4,4,3,,,,,,,,,,,,,,,,,,,AFNE02.jpg,AFSA09.jpg,AFSA14.jpg,AFNE19.jpg,AFSA09.jpg,FS,4,num_6,16,num_6,0.916774675919,,,2017_Jul_19_1530,60.0083724927,MAFE4ImagesEEG,001,200911,
AFNE23.JPG,AFNE24.JPG,AFNE22.JPG,AFSA24.JPG,AFSA22.JPG,AFSA23.JPG,,,,,0,5,5,8,,,,,,,,,,,,,,,,,,,AFNE01.jpg,AFNE14.jpg,AFSA02.jpg,AFSA08.jpg,AFSA08.jpg,FS,4,num_4,16,num_4,0.933468236617,,,2017_Jul_19_1530,60.0083724927,MAFE4ImagesEEG,001,200911,
AFSA21.JPG,AFNE22.JPG,AFNE21.JPG,AFSA23.JPG,AFSA22.JPG,AFNE23.JPG,,,,,0,6,6,0,,,,,,,,,,,,,,,,,,,AFNE05.jpg,AFNE10.jpg,AFSA02.jpg,AFSA10.jpg,AFSA02.jpg,FS,4,num_2,16,num_2,0.75017231761,,,2017_Jul_19_1530,60.0083724927,MAFE4ImagesEEG,001,200911,
AMSA21.JPG,AMNE22.JPG,AMNE21.JPG,AMSA23.JPG,AMSA22.JPG,AMNE23.JPG,,,,,0,7,7,1,,,,,,,,,,,,,,,,,,,AFNE10.jpg,AFSA11.jpg,AFNE07.jpg,AFSA05.jpg,AFSA11.jpg,FS,4,num_6,16,num_6,0.46680195487,,,2017_Jul_19_1530,60.0083724927,MAFE4ImagesEEG,001,200911,
AFNE22.JPG,AFSA24.JPG,AFSA22.JPG,AFNE25.JPG,AFNE24.JPG,AFSA25.JPG,,,,,0,8,8,6,,,,,,,,,,,,,,,,,,,AFSA11.jpg,AFSA15.jpg,AFNE02.jpg,AFNE01.jpg,AFSA15.jpg,FS,4,num_6,16,num_6,0.666790151619,,,2017_Jul_19_1530,60.0083724927,MAFE4ImagesEEG,001,200911,
AMNE22.JPG,AMSA24.JPG,AMSA22.JPG,AMNE25.JPG,AMNE24.JPG,AMSA25.JPG,,,,,0,9,9,7,,,,,,,,,,,,,,,,,,,AFNE17.jpg,AFSA20.jpg,AFNE04.jpg,AFSA13.jpg,AFSA13.jpg,FS,4,num_4,16,num_4,1.6000406057,,,2017_Jul_19_1530,60.0083724927,MAFE4ImagesEEG,001,200911,
AFSA25.JPG,AFNE24.JPG,AFSA24.JPG,AFNE21.JPG,AFSA21.JPG,AFNE25.JPG,,,,,,,,,0,0,0,2,,,,,,,,,,,,,,,AMSA02.jpg,AMNE05.jpg,AMNE18.jpg,AMSA09.jpg,AMSA09.jpg,MS,2,num_4,32,num_6,0.933444181108,,,2017_Jul_19_1530,60.0083724927,MAFE4ImagesEEG,001,200911,
AFNE23.JPG,AFNE24.JPG,AFNE22.JPG,AFSA24.JPG,AFSA22.JPG,AFSA23.JPG,,,,,,,,,0,1,1,8,,,,,,,,,,,,,,,AMSA10.jpg,AMSA01.jpg,AMNE05.jpg,AMNE03.jpg,AMSA10.jpg,MS,2,num_8,32,num_4,2.05038153639,,,2017_Jul_19_1530,60.0083724927,MAFE4ImagesEEG,001,200911,
AMSA25.JPG,AMNE24.JPG,AMSA24.JPG,AMNE26.JPG,AMSA21.JPG,AMNE25.JPG,,,,,,,,,0,2,2,3,,,,,,,,,,,,,,,AMNE02.jpg,AMNE05.jpg,AMSA03.jpg,AMSA10.jpg,AMNE02.jpg,MN,1,num_8,16,num_8,0.733438343654,,,2017_Jul_19_1530,60.0083724927,MAFE4ImagesEEG,001,200911,
AMSA21.JPG,AMNE22.JPG,AMNE21.JPG,AMSA23.JPG,AMSA22.JPG,AMNE23.JPG,,,,,,,,,0,3,3,1,,,,,,,,,,,,,,,AMSA05.jpg,AMNE18.jpg,AMSA19.jpg,AMNE06.jpg,AMSA05.jpg,MS,2,num_8,16,num_8,0.933403126372,,,2017_Jul_19_1530,60.0083724927,MAFE4ImagesEEG,001,200911,
AMSA21.JPG,AMNE23.JPG,AMNE21.JPG,AMSA25.JPG,AMNE25.JPG,AMSA23.JPG,,,,,,,,,0,4,4,5,,,,,,,,,,,,,,,AMSA14.jpg,AMNE20.jpg,AMNE02.jpg,AMSA18.jpg,AMNE02.jpg,MN,1,num_2,16,num_2,0.883443363244,,,2017_Jul_19_1530,60.0083724927,MAFE4ImagesEEG,001,200911,
AFSA21.JPG,AFNE23.JPG,AFNE21.JPG,AFSA25.JPG,AFNE25.JPG,AFSA23.JPG,,,,,,,,,0,5,5,4,,,,,,,,,,,,,,,AMNE07.jpg,AMSA15.jpg,AMSA20.jpg,AMNE09.jpg,AMSA20.jpg,MS,2,num_2,32,num_4,1.0668278065,,,2017_Jul_19_1530,60.0083724927,MAFE4ImagesEEG,001,200911,
AFNE22.JPG,AFSA24.JPG,AFSA22.JPG,AFNE25.JPG,AFNE24.JPG,AFSA25.JPG,,,,,,,,,0,6,6,6,,,,,,,,,,,,,,,AMSA20.jpg,AMNE01.jpg,AMSA13.jpg,AMNE07.jpg,AMNE01.jpg,MN,1,num_6,32,num_2,0.716765310295,,,2017_Jul_19_1530,60.0083724927,MAFE4ImagesEEG,001,200911,
AMNE22.JPG,AMSA24.JPG,AMSA22.JPG,AMNE25.JPG,AMNE24.JPG,AMSA25.JPG,,,,,,,,,0,7,7,7,,,,,,,,,,,,,,,AMSA15.jpg,AMNE18.jpg,AMNE19.jpg,AMSA07.jpg,AMSA07.jpg,MS,2,num_4,32,num_8,1.9500479346,,,2017_Jul_19_1530,60.0083724927,MAFE4ImagesEEG,001,200911,
AFSA21.JPG,AFNE22.JPG,AFNE21.JPG,AFSA23.JPG,AFSA22.JPG,AFNE23.JPG,,,,,,,,,0,8,8,0,,,,,,,,,,,,,,,AMSA16.jpg,AMNE17.jpg,AMNE02.jpg,AMSA05.jpg,AMNE02.jpg,MN,1,num_2,32,num_8,0.933469519572,,,2017_Jul_19_1530,60.0083724927,MAFE4ImagesEEG,001,200911,
AMNE23.JPG,AMNE24.JPG,AMNE22.JPG,AMSA24.JPG,AMSA22.JPG,AMSA23.JPG,,,,,,,,,0,9,9,9,,,,,,,,,,,,,,,AMSA01.jpg,AMNE10.jpg,AMNE02.jpg,AMSA19.jpg,AMSA01.jpg,MS,2,num_8,32,num_4,0.633170493558,,,2017_Jul_19_1530,60.0083724927,MAFE4ImagesEEG,001,200911,
AMNE22.JPG,AMSA24.JPG,AMSA22.JPG,AMNE25.JPG,AMNE24.JPG,AMSA25.JPG,,,,,,,,,,,,,0,0,0,7,,,,,,,,,,,AFSA11.jpg,AFNE13.jpg,AFSA02.jpg,AFNE14.jpg,AFSA02.jpg,FS,4,num_2,16,num_2,0.533318322705,,,2017_Jul_19_1530,60.0083724927,MAFE4ImagesEEG,001,200911,
AFSA21.JPG,AFNE23.JPG,AFNE21.JPG,AFSA25.JPG,AFNE25.JPG,AFSA23.JPG,,,,,,,,,,,,,0,1,1,4,,,,,,,,,,,AFSA11.jpg,AFNE15.jpg,AFNE11.jpg,AFSA12.jpg,AFNE15.jpg,FN,3,num_6,16,num_6,0.533484466054,,,2017_Jul_19_1530,60.0083724927,MAFE4ImagesEEG,001,200911,
AMSA21.JPG,AMNE22.JPG,AMNE21.JPG,AMSA23.JPG,AMSA22.JPG,AMNE23.JPG,,,,,,,,,,,,,0,2,2,1,,,,,,,,,,,AFNE03.jpg,AFNE15.jpg,AFSA19.jpg,AFSA08.jpg,AFNE15.jpg,FN,3,num_6,16,num_6,0.400182308687,,,2017_Jul_19_1530,60.0083724927,MAFE4ImagesEEG,001,200911,
AFSA25.JPG,AFNE24.JPG,AFSA24.JPG,AFNE21.JPG,AFSA21.JPG,AFNE25.JPG,,,,,,,,,,,,,0,3,3,2,,,,,,,,,,,AFSA04.jpg,AFNE07.jpg,AFSA14.jpg,AFNE11.jpg,AFSA04.jpg,FS,4,num_8,32,num_4,1.4833758795,,,2017_Jul_19_1530,60.0083724927,MAFE4ImagesEEG,001,200911,
AMSA21.JPG,AMNE23.JPG,AMNE21.JPG,AMSA25.JPG,AMNE25.JPG,AMSA23.JPG,,,,,,,,,,,,,0,4,4,5,,,,,,,,,,,AFSA09.jpg,AFSA17.jpg,AFNE17.jpg,AFNE04.jpg,AFSA09.jpg,FS,4,num_8,32,num_6,0.933442898182,,,2017_Jul_19_1530,60.0083724927,MAFE4ImagesEEG,001,200911,
AFSA21.JPG,AFNE22.JPG,AFNE21.JPG,AFSA23.JPG,AFSA22.JPG,AFNE23.JPG,,,,,,,,,,,,,0,5,5,0,,,,,,,,,,,AFSA07.jpg,AFNE08.jpg,AFSA18.jpg,AFNE12.jpg,AFNE12.jpg,FN,3,num_4,32,num_8,1.08343669184,,,2017_Jul_19_1530,60.0083724927,MAFE4ImagesEEG,001,200911,
AFNE22.JPG,AFSA24.JPG,AFSA22.JPG,AFNE25.JPG,AFNE24.JPG,AFSA25.JPG,,,,,,,,,,,,,0,6,6,6,,,,,,,,,,,AFSA14.jpg,AFSA07.jpg,AFNE01.jpg,AFNE15.jpg,AFNE15.jpg,FN,3,num_4,16,num_4,0.61676303306,,,2017_Jul_19_1530,60.0083724927,MAFE4ImagesEEG,001,200911,
AMSA25.JPG,AMNE24.JPG,AMSA24.JPG,AMNE26.JPG,AMSA21.JPG,AMNE25.JPG,,,,,,,,,,,,,0,7,7,3,,,,,,,,,,,AFNE19.jpg,AFSA01.jpg,AFSA12.jpg,AFNE20.jpg,AFNE19.jpg,FN,3,num_8,16,num_8,0.833470128971,,,2017_Jul_19_1530,60.0083724927,MAFE4ImagesEEG,001,200911,
AMNE23.JPG,AMNE24.JPG,AMNE22.JPG,AMSA24.JPG,AMSA22.JPG,AMSA23.JPG,,,,,,,,,,,,,0,8,8,9,,,,,,,,,,,AFNE17.jpg,AFSA03.jpg,AFSA02.jpg,AFNE16.jpg,AFNE17.jpg,FN,3,num_8,16,num_8,0.783459368162,,,2017_Jul_19_1530,60.0083724927,MAFE4ImagesEEG,001,200911,
AFNE23.JPG,AFNE24.JPG,AFNE22.JPG,AFSA24.JPG,AFSA22.JPG,AFSA23.JPG,,,,,,,,,,,,,0,9,9,8,,,,,,,,,,,AFSA17.jpg,AFNE15.jpg,AFNE05.jpg,AFSA09.jpg,AFSA09.jpg,FS,4,num_4,16,num_4,0.600174675084,,,2017_Jul_19_1530,60.0083724927,MAFE4ImagesEEG,001,200911,
AFSA25.JPG,AFNE24.JPG,AFSA24.JPG,AFNE21.JPG,AFSA21.JPG,AFNE25.JPG,,,,,,,,,,,,,,,,,0,0,0,2,,,,,,,AMNE18.jpg,AMSA03.jpg,AMSA20.jpg,AMNE20.jpg,AMSA03.jpg,MS,2,num_6,16,num_6,0.700111521321,,,2017_Jul_19_1530,60.0083724927,MAFE4ImagesEEG,001,200911,
AFNE22.JPG,AFSA24.JPG,AFSA22.JPG,AFNE25.JPG,AFNE24.JPG,AFSA25.JPG,,,,,,,,,,,,,,,,,0,1,1,6,,,,,,,AMSA06.jpg,AMSA02.jpg,AMNE03.jpg,AMNE19.jpg,AMSA02.jpg,MS,2,num_6,16,num_6,0.633484177408,,,2017_Jul_19_1530,60.0083724927,MAFE4ImagesEEG,001,200911,
AFSA21.JPG,AFNE23.JPG,AFNE21.JPG,AFSA25.JPG,AFNE25.JPG,AFSA23.JPG,,,,,,,,,,,,,,,,,0,2,2,4,,,,,,,AMNE19.jpg,AMSA10.jpg,AMSA19.jpg,AMNE04.jpg,AMNE04.jpg,MN,1,num_4,16,num_4,0.550122538785,,,2017_Jul_19_1530,60.0083724927,MAFE4ImagesEEG,001,200911,
AMNE23.JPG,AMNE24.JPG,AMNE22.JPG,AMSA24.JPG,AMSA22.JPG,AMSA23.JPG,,,,,,,,,,,,,,,,,0,3,3,9,,,,,,,AMSA02.jpg,AMNE12.jpg,AMSA16.jpg,AMNE09.jpg,AMNE12.jpg,MN,1,num_6,16,num_6,1.13361038864,,,2017_Jul_19_1530,60.0083724927,MAFE4ImagesEEG,001,200911,
AMSA25.JPG,AMNE24.JPG,AMSA24.JPG,AMNE26.JPG,AMSA21.JPG,AMNE25.JPG,,,,,,,,,,,,,,,,,0,4,4,3,,,,,,,AMSA03.jpg,AMSA06.jpg,AMNE19.jpg,AMNE07.jpg,AMSA06.jpg,MS,2,num_6,32,num_8,0.667080100684,,,2017_Jul_19_1530,60.0083724927,MAFE4ImagesEEG,001,200911,
AMSA21.JPG,AMNE22.JPG,AMNE21.JPG,AMSA23.JPG,AMSA22.JPG,AMNE23.JPG,,,,,,,,,,,,,,,,,0,5,5,1,,,,,,,AMSA15.jpg,AMNE18.jpg,AMNE11.jpg,AMSA19.jpg,AMNE18.jpg,MN,1,num_6,16,num_6,1.25005957746,,,2017_Jul_19_1530,60.0083724927,MAFE4ImagesEEG,001,200911,
AFSA21.JPG,AFNE22.JPG,AFNE21.JPG,AFSA23.JPG,AFSA22.JPG,AFNE23.JPG,,,,,,,,,,,,,,,,,0,6,6,0,,,,,,,AMSA18.jpg,AMNE18.jpg,AMSA20.jpg,AMNE14.jpg,AMNE14.jpg,MN,1,num_4,16,num_4,0.683467996074,,,2017_Jul_19_1530,60.0083724927,MAFE4ImagesEEG,001,200911,
AMSA21.JPG,AMNE23.JPG,AMNE21.JPG,AMSA25.JPG,AMNE25.JPG,AMSA23.JPG,,,,,,,,,,,,,,,,,0,7,7,5,,,,,,,AMSA09.jpg,AMNE19.jpg,AMSA15.jpg,AMNE02.jpg,AMSA15.jpg,MS,2,num_2,16,num_2,0.883440155827,,,2017_Jul_19_1530,60.0083724927,MAFE4ImagesEEG,001,200911,
AFNE23.JPG,AFNE24.JPG,AFNE22.JPG,AFSA24.JPG,AFSA22.JPG,AFSA23.JPG,,,,,,,,,,,,,,,,,0,8,8,8,,,,,,,AMSA01.jpg,AMNE20.jpg,AMNE05.jpg,AMSA12.jpg,AMSA01.jpg,MS,2,num_8,32,num_6,1.01670863549,,,2017_Jul_19_1530,60.0083724927,MAFE4ImagesEEG,001,200911,
AMNE22.JPG,AMSA24.JPG,AMSA22.JPG,AMNE25.JPG,AMNE24.JPG,AMSA25.JPG,,,,,,,,,,,,,,,,,0,9,9,7,,,,,,,AMSA13.jpg,AMNE13.jpg,AMNE08.jpg,AMSA03.jpg,AMSA13.jpg,MS,2,num_8,32,num_4,0.666785661248,,,2017_Jul_19_1530,60.0083724927,MAFE4ImagesEEG,001,200911,
AMNE22.JPG,AMSA24.JPG,AMSA22.JPG,AMNE25.JPG,AMNE24.JPG,AMSA25.JPG,,,,,,,,,,,,,,,,,,,,,0,0,0,7,,,AFNE02.jpg,AFSA19.jpg,AFSA03.jpg,AFNE14.jpg,AFNE02.jpg,FN,3,num_8,16,num_8,0.849980867875,,,2017_Jul_19_1530,60.0083724927,MAFE4ImagesEEG,001,200911,
AMSA25.JPG,AMNE24.JPG,AMSA24.JPG,AMNE26.JPG,AMSA21.JPG,AMNE25.JPG,,,,,,,,,,,,,,,,,,,,,0,1,1,3,,,AFSA12.jpg,AFNE12.jpg,AFNE18.jpg,AFSA10.jpg,AFSA10.jpg,FS,4,num_4,16,num_4,0.600134903303,,,2017_Jul_19_1530,60.0083724927,MAFE4ImagesEEG,001,200911,
AFSA21.JPG,AFNE22.JPG,AFNE21.JPG,AFSA23.JPG,AFSA22.JPG,AFNE23.JPG,,,,,,,,,,,,,,,,,,,,,0,2,2,0,,,AFSA20.jpg,AFNE20.jpg,AFNE19.jpg,AFSA19.jpg,AFSA20.jpg,FS,4,num_8,32,num_4,1.23310621726,,,2017_Jul_19_1530,60.0083724927,MAFE4ImagesEEG,001,200911,
AMNE23.JPG,AMNE24.JPG,AMNE22.JPG,AMSA24.JPG,AMSA22.JPG,AMSA23.JPG,,,,,,,,,,,,,,,,,,,,,0,3,3,9,,,AFSA08.jpg,AFNE04.jpg,AFNE14.jpg,AFSA03.jpg,AFSA08.jpg,FS,4,num_8,16,num_8,0.600119507755,,,2017_Jul_19_1530,60.0083724927,MAFE4ImagesEEG,001,200911,
AFSA25.JPG,AFNE24.JPG,AFSA24.JPG,AFNE21.JPG,AFSA21.JPG,AFNE25.JPG,,,,,,,,,,,,,,,,,,,,,0,4,4,2,,,AFNE02.jpg,AFSA18.jpg,AFSA11.jpg,AFNE09.jpg,AFSA11.jpg,FS,4,num_2,32,num_6,0.616817879607,,,2017_Jul_19_1530,60.0083724927,MAFE4ImagesEEG,001,200911,
AFNE22.JPG,AFSA24.JPG,AFSA22.JPG,AFNE25.JPG,AFNE24.JPG,AFSA25.JPG,,,,,,,,,,,,,,,,,,,,,0,5,5,6,,,AFSA11.jpg,AFNE02.jpg,AFSA16.jpg,AFNE19.jpg,AFSA16.jpg,FS,4,num_2,32,num_8,0.583489774319,,,2017_Jul_19_1530,60.0083724927,MAFE4ImagesEEG,001,200911,
AMSA21.JPG,AMNE22.JPG,AMNE21.JPG,AMSA23.JPG,AMSA22.JPG,AMNE23.JPG,,,,,,,,,,,,,,,,,,,,,0,6,6,1,,,AFSA15.jpg,AFNE03.jpg,AFNE19.jpg,AFSA17.jpg,AFNE19.jpg,FN,3,num_2,32,num_6,0.950120421883,,,2017_Jul_19_1530,60.0083724927,MAFE4ImagesEEG,001,200911,
AMSA21.JPG,AMNE23.JPG,AMNE21.JPG,AMSA25.JPG,AMNE25.JPG,AMSA23.JPG,,,,,,,,,,,,,,,,,,,,,0,7,7,5,,,AFNE11.jpg,AFSA04.jpg,AFNE19.jpg,AFSA07.jpg,AFNE19.jpg,FN,3,num_2,32,num_4,0.766769335576,,,2017_Jul_19_1530,60.0083724927,MAFE4ImagesEEG,001,200911,
AFNE23.JPG,AFNE24.JPG,AFNE22.JPG,AFSA24.JPG,AFSA22.JPG,AFSA23.JPG,,,,,,,,,,,,,,,,,,,,,0,8,8,8,,,AFNE06.jpg,AFNE03.jpg,AFSA09.jpg,AFSA04.jpg,AFNE06.jpg,FN,3,num_8,16,num_8,1.08347357696,,,2017_Jul_19_1530,60.0083724927,MAFE4ImagesEEG,001,200911,
AFSA21.JPG,AFNE23.JPG,AFNE21.JPG,AFSA25.JPG,AFNE25.JPG,AFSA23.JPG,,,,,,,,,,,,,,,,,,,,,0,9,9,4,,,AFNE20.jpg,AFSA06.jpg,AFNE01.jpg,AFSA04.jpg,AFSA06.jpg,FS,4,num_6,32,num_2,0.93350383878,,,2017_Jul_19_1530,60.0083724927,MAFE4ImagesEEG,001,200911,
,,,,,,,,,,,,,,,,,,,,,,,,,,,,,,,,,,,,,,,,,,,space,1.88332468938,2017_Jul_19_1530,60.0083724927,MAFE4ImagesEEG,001,200911,
AFNE01.JPG,AFNE01.JPG,AFNE01.JPG,AFNE01.JPG,AFNE01.JPG,AFNE01.JPG,0,0,0,2,,,,,,,,,,,,,,,,,,,,,,,AMNE04.jpg,AMNE14.jpg,AMSA01.jpg,AMSA02.jpg,AMSA02.jpg,MS,2,num_4,16,num_4,0.53344886392,,,2017_Jul_19_1530,60.0083724927,MAFE4ImagesEEG,001,200911,
AFNE01.JPG,AFNE01.JPG,AFNE01.JPG,AFNE01.JPG,AFNE01.JPG,AFNE01.JPG,0,1,1,9,,,,,,,,,,,,,,,,,,,,,,,AMNE02.jpg,AMNE17.jpg,AMSA18.jpg,AMSA13.jpg,AMSA13.jpg,MS,2,num_4,32,num_6,1.21673820773,,,2017_Jul_19_1530,60.0083724927,MAFE4ImagesEEG,001,200911,
AFNE01.JPG,AFNE01.JPG,AFNE01.JPG,AFNE01.JPG,AFNE01.JPG,AFNE01.JPG,0,2,2,4,,,,,,,,,,,,,,,,,,,,,,,AMSA05.jpg,AMNE15.jpg,AMNE18.jpg,AMSA04.jpg,AMSA04.jpg,MS,2,num_4,16,num_4,0.666760322783,,,2017_Jul_19_1530,60.0083724927,MAFE4ImagesEEG,001,200911,
AFNE01.JPG,AFNE01.JPG,AFNE01.JPG,AFNE01.JPG,AFNE01.JPG,AFNE01.JPG,0,3,3,6,,,,,,,,,,,,,,,,,,,,,,,AMSA07.jpg,AMSA14.jpg,AMNE09.jpg,AMNE16.jpg,AMNE16.jpg,MN,1,num_4,32,num_8,0.966717119096,,,2017_Jul_19_1530,60.0083724927,MAFE4ImagesEEG,001,200911,
AFNE01.JPG,AFNE01.JPG,AFNE01.JPG,AFNE01.JPG,AFNE01.JPG,AFNE01.JPG,0,4,4,5,,,,,,,,,,,,,,,,,,,,,,,AMNE12.jpg,AMSA10.jpg,AMSA20.jpg,AMNE06.jpg,AMNE12.jpg,MN,1,num_8,16,num_8,0.583331970178,,,2017_Jul_19_1530,60.0083724927,MAFE4ImagesEEG,001,200911,
AFNE01.JPG,AFNE01.JPG,AFNE01.JPG,AFNE01.JPG,AFNE01.JPG,AFNE01.JPG,0,5,5,3,,,,,,,,,,,,,,,,,,,,,,,AMNE17.jpg,AMSA15.jpg,AMNE04.jpg,AMSA02.jpg,AMSA15.jpg,MS,2,num_6,16,num_6,0.766865557613,,,2017_Jul_19_1530,60.0083724927,MAFE4ImagesEEG,001,200911,
AFNE01.JPG,AFNE01.JPG,AFNE01.JPG,AFNE01.JPG,AFNE01.JPG,AFNE01.JPG,0,6,6,0,,,,,,,,,,,,,,,,,,,,,,,AMSA10.jpg,AMNE17.jpg,AMSA14.jpg,AMNE04.jpg,AMSA10.jpg,MS,2,num_8,16,num_8,0.766794994794,,,2017_Jul_19_1530,60.0083724927,MAFE4ImagesEEG,001,200911,
AFNE01.JPG,AFNE01.JPG,AFNE01.JPG,AFNE01.JPG,AFNE01.JPG,AFNE01.JPG,0,7,7,7,,,,,,,,,,,,,,,,,,,,,,,AMSA19.jpg,AMSA03.jpg,AMNE17.jpg,AMNE20.jpg,AMSA19.jpg,MS,2,num_8,32,num_6,0.550169687573,,,2017_Jul_19_1530,60.0083724927,MAFE4ImagesEEG,001,200911,
AFNE01.JPG,AFNE01.JPG,AFNE01.JPG,AFNE01.JPG,AFNE01.JPG,AFNE01.JPG,0,8,8,1,,,,,,,,,,,,,,,,,,,,,,,AMSA12.jpg,AMNE16.jpg,AMSA02.jpg,AMNE17.jpg,AMSA12.jpg,MS,2,num_8,32,num_2,0.78350491327,,,2017_Jul_19_1530,60.0083724927,MAFE4ImagesEEG,001,200911,
AFNE01.JPG,AFNE01.JPG,AFNE01.JPG,AFNE01.JPG,AFNE01.JPG,AFNE01.JPG,0,9,9,8,,,,,,,,,,,,,,,,,,,,,,,AMNE16.jpg,AMSA08.jpg,AMNE03.jpg,AMSA20.jpg,AMSA08.jpg,MS,2,num_6,16,num_6,1.1000891978,,,2017_Jul_19_1530,60.0083724927,MAFE4ImagesEEG,001,200911,
AFNE01.JPG,AFNE01.JPG,AFNE01.JPG,AFNE01.JPG,AFNE01.JPG,AFNE01.JPG,1,0,10,1,,,,,,,,,,,,,,,,,,,,,,,AMNE15.jpg,AMSA16.jpg,AMSA08.jpg,AMNE09.jpg,AMNE09.jpg,MN,1,num_4,32,num_8,1.00013599382,,,2017_Jul_19_1530,60.0083724927,MAFE4ImagesEEG,001,200911,
AFNE01.JPG,AFNE01.JPG,AFNE01.JPG,AFNE01.JPG,AFNE01.JPG,AFNE01.JPG,1,1,11,9,,,,,,,,,,,,,,,,,,,,,,,AMSA04.jpg,AMNE05.jpg,AMNE16.jpg,AMSA06.jpg,AMSA06.jpg,MS,2,num_4,32,num_8,1.35010804131,,,2017_Jul_19_1530,60.0083724927,MAFE4ImagesEEG,001,200911,
AFNE01.JPG,AFNE01.JPG,AFNE01.JPG,AFNE01.JPG,AFNE01.JPG,AFNE01.JPG,1,2,12,5,,,,,,,,,,,,,,,,,,,,,,,AMNE10.jpg,AMSA19.jpg,AMNE14.jpg,AMSA08.jpg,AMNE14.jpg,MN,1,num_2,32,num_8,1.11669968686,,,2017_Jul_19_1530,60.0083724927,MAFE4ImagesEEG,001,200911,
AFNE01.JPG,AFNE01.JPG,AFNE01.JPG,AFNE01.JPG,AFNE01.JPG,AFNE01.JPG,1,3,13,6,,,,,,,,,,,,,,,,,,,,,,,AMSA16.jpg,AMNE10.jpg,AMNE09.jpg,AMSA06.jpg,AMSA16.jpg,MS,2,num_8,32,num_4,0.666784378293,,,2017_Jul_19_1530,60.0083724927,MAFE4ImagesEEG,001,200911,
AFNE01.JPG,AFNE01.JPG,AFNE01.JPG,AFNE01.JPG,AFNE01.JPG,AFNE01.JPG,1,4,14,2,,,,,,,,,,,,,,,,,,,,,,,AMNE14.jpg,AMSA07.jpg,AMNE05.jpg,AMSA19.jpg,AMSA19.jpg,MS,2,num_4,16,num_4,0.550250834785,,,2017_Jul_19_1530,60.0083724927,MAFE4ImagesEEG,001,200911,
AFNE01.JPG,AFNE01.JPG,AFNE01.JPG,AFNE01.JPG,AFNE01.JPG,AFNE01.JPG,1,5,15,8,,,,,,,,,,,,,,,,,,,,,,,AMSA15.jpg,AMSA12.jpg,AMNE09.jpg,AMNE01.jpg,AMSA15.jpg,MS,2,num_8,32,num_4,0.733477473928,,,2017_Jul_19_1530,60.0083724927,MAFE4ImagesEEG,001,200911,
AFNE01.JPG,AFNE01.JPG,AFNE01.JPG,AFNE01.JPG,AFNE01.JPG,AFNE01.JPG,1,6,16,0,,,,,,,,,,,,,,,,,,,,,,,AMSA15.jpg,AMNE15.jpg,AMNE04.jpg,AMSA14.jpg,AMSA14.jpg,MS,2,num_4,16,num_4,0.600141318078,,,2017_Jul_19_1530,60.0083724927,MAFE4ImagesEEG,001,200911,
AFNE01.JPG,AFNE01.JPG,AFNE01.JPG,AFNE01.JPG,AFNE01.JPG,AFNE01.JPG,1,7,17,4,,,,,,,,,,,,,,,,,,,,,,,AMSA12.jpg,AMSA20.jpg,AMNE18.jpg,AMNE11.jpg,AMSA12.jpg,MS,2,num_8,32,num_6,0.483490383747,,,2017_Jul_19_1530,60.0083724927,MAFE4ImagesEEG,001,200911,
AFNE01.JPG,AFNE01.JPG,AFNE01.JPG,AFNE01.JPG,AFNE01.JPG,AFNE01.JPG,1,8,18,7,,,,,,,,,,,,,,,,,,,,,,,AMSA06.jpg,AMNE12.jpg,AMNE05.jpg,AMSA11.jpg,AMNE12.jpg,MN,1,num_6,32,num_8,0.616757901182,,,2017_Jul_19_1530,60.0083724927,MAFE4ImagesEEG,001,200911,
AFNE01.JPG,AFNE01.JPG,AFNE01.JPG,AFNE01.JPG,AFNE01.JPG,AFNE01.JPG,1,9,19,3,,,,,,,,,,,,,,,,,,,,,,,AMNE11.jpg,AMNE14.jpg,AMSA06.jpg,AMSA11.jpg,AMSA06.jpg,MS,2,num_2,32,num_4,0.60015607212,,,2017_Jul_19_1530,60.0083724927,MAFE4ImagesEEG,001,200911,
AFNE01.JPG,AFNE01.JPG,AFNE01.JPG,AFNE01.JPG,AFNE01.JPG,AFNE01.JPG,2,0,20,3,,,,,,,,,,,,,,,,,,,,,,,AMNE20.jpg,AMSA19.jpg,AMNE10.jpg,AMSA02.jpg,AMNE20.jpg,MN,1,num_8,16,num_8,0.700016582268,,,2017_Jul_19_1530,60.0083724927,MAFE4ImagesEEG,001,200911,
AFNE01.JPG,AFNE01.JPG,AFNE01.JPG,AFNE01.JPG,AFNE01.JPG,AFNE01.JPG,2,1,21,5,,,,,,,,,,,,,,,,,,,,,,,AMSA09.jpg,AMNE05.jpg,AMNE07.jpg,AMSA03.jpg,AMNE05.jpg,MN,1,num_6,32,num_2,0.68343143168,,,2017_Jul_19_1530,60.0083724927,MAFE4ImagesEEG,001,200911,
AFNE01.JPG,AFNE01.JPG,AFNE01.JPG,AFNE01.JPG,AFNE01.JPG,AFNE01.JPG,2,2,22,4,,,,,,,,,,,,,,,,,,,,,,,AMNE17.jpg,AMSA19.jpg,AMNE11.jpg,AMSA08.jpg,AMSA08.jpg,MS,2,num_4,32,num_8,0.816765983822,,,2017_Jul_19_1530,60.0083724927,MAFE4ImagesEEG,001,200911,
AFNE01.JPG,AFNE01.JPG,AFNE01.JPG,AFNE01.JPG,AFNE01.JPG,AFNE01.JPG,2,3,23,2,,,,,,,,,,,,,,,,,,,,,,,AMSA16.jpg,AMNE08.jpg,AMSA03.jpg,AMNE05.jpg,AMSA16.jpg,MS,2,num_8,16,num_8,0.683432073187,,,2017_Jul_19_1530,60.0083724927,MAFE4ImagesEEG,001,200911,
AFNE01.JPG,AFNE01.JPG,AFNE01.JPG,AFNE01.JPG,AFNE01.JPG,AFNE01.JPG,2,4,24,9,,,,,,,,,,,,,,,,,,,,,,,AMSA08.jpg,AMSA02.jpg,AMNE03.jpg,AMNE12.jpg,AMNE03.jpg,MN,1,num_2,32,num_8,3.21659996876,,,2017_Jul_19_1530,60.0083724927,MAFE4ImagesEEG,001,200911,
AFNE01.JPG,AFNE01.JPG,AFNE01.JPG,AFNE01.JPG,AFNE01.JPG,AFNE01.JPG,2,5,25,7,,,,,,,,,,,,,,,,,,,,,,,AMSA01.jpg,AMNE19.jpg,AMNE10.jpg,AMSA09.jpg,AMSA09.jpg,MS,2,num_4,16,num_4,0.666827678186,,,2017_Jul_19_1530,60.0083724927,MAFE4ImagesEEG,001,200911,
AFNE01.JPG,AFNE01.JPG,AFNE01.JPG,AFNE01.JPG,AFNE01.JPG,AFNE01.JPG,2,6,26,6,,,,,,,,,,,,,,,,,,,,,,,AMNE10.jpg,AMSA01.jpg,AMSA19.jpg,AMNE13.jpg,AMSA19.jpg,MS,2,num_2,16,num_2,1.55006833369,,,2017_Jul_19_1530,60.0083724927,MAFE4ImagesEEG,001,200911,
AFNE01.JPG,AFNE01.JPG,AFNE01.JPG,AFNE01.JPG,AFNE01.JPG,AFNE01.JPG,2,7,27,8,,,,,,,,,,,,,,,,,,,,,,,AMSA05.jpg,AMNE01.jpg,AMNE03.jpg,AMSA16.jpg,AMNE01.jpg,MN,1,num_6,16,num_6,1.96665585774,,,2017_Jul_19_1530,60.0083724927,MAFE4ImagesEEG,001,200911,
AFNE01.JPG,AFNE01.JPG,AFNE01.JPG,AFNE01.JPG,AFNE01.JPG,AFNE01.JPG,2,8,28,1,,,,,,,,,,,,,,,,,,,,,,,AMNE16.jpg,AMNE07.jpg,AMSA15.jpg,AMSA07.jpg,AMSA07.jpg,MS,2,num_4,16,num_4,1.91709766121,,,2017_Jul_19_1530,60.0083724927,MAFE4ImagesEEG,001,200911,
AFNE01.JPG,AFNE01.JPG,AFNE01.JPG,AFNE01.JPG,AFNE01.JPG,AFNE01.JPG,2,9,29,0,,,,,,,,,,,,,,,,,,,,,,,AMNE13.jpg,AMSA10.jpg,AMSA09.jpg,AMNE11.jpg,AMNE13.jpg,MN,1,num_8,16,num_8,1.38342844881,,,2017_Jul_19_1530,60.0083724927,MAFE4ImagesEEG,001,200911,
AFNE01.JPG,AFNE01.JPG,AFNE01.JPG,AFNE01.JPG,AFNE01.JPG,AFNE01.JPG,3,0,30,1,,,,,,,,,,,,,,,,,,,,,,,AMSA16.jpg,AMNE18.jpg,AMSA08.jpg,AMNE19.jpg,AMSA08.jpg,MS,2,num_2,16,num_2,0.88350590755,,,2017_Jul_19_1530,60.0083724927,MAFE4ImagesEEG,001,200911,
AFNE01.JPG,AFNE01.JPG,AFNE01.JPG,AFNE01.JPG,AFNE01.JPG,AFNE01.JPG,3,1,31,6,,,,,,,,,,,,,,,,,,,,,,,AMSA16.jpg,AMNE02.jpg,AMSA14.jpg,AMNE01.jpg,AMSA14.jpg,MS,2,num_2,32,num_4,0.933427181881,,,2017_Jul_19_1530,60.0083724927,MAFE4ImagesEEG,001,200911,
AFNE01.JPG,AFNE01.JPG,AFNE01.JPG,AFNE01.JPG,AFNE01.JPG,AFNE01.JPG,3,2,32,3,,,,,,,,,,,,,,,,,,,,,,,AMNE11.jpg,AMSA16.jpg,AMNE13.jpg,AMSA14.jpg,AMSA14.jpg,MS,2,num_4,16,num_4,0.58345192697,,,2017_Jul_19_1530,60.0083724927,MAFE4ImagesEEG,001,200911,
AFNE01.JPG,AFNE01.JPG,AFNE01.JPG,AFNE01.JPG,AFNE01.JPG,AFNE01.JPG,3,3,33,2,,,,,,,,,,,,,,,,,,,,,,,AMNE13.jpg,AMSA06.jpg,AMSA03.jpg,AMNE05.jpg,AMSA03.jpg,MS,2,num_2,16,num_2,0.433470321441,,,2017_Jul_19_1530,60.0083724927,MAFE4ImagesEEG,001,200911,
AFNE01.JPG,AFNE01.JPG,AFNE01.JPG,AFNE01.JPG,AFNE01.JPG,AFNE01.JPG,3,4,34,4,,,,,,,,,,,,,,,,,,,,,,,AMSA04.jpg,AMNE04.jpg,AMNE12.jpg,AMSA12.jpg,AMNE12.jpg,MN,1,num_2,16,num_2,0.850151501596,,,2017_Jul_19_1530,60.0083724927,MAFE4ImagesEEG,001,200911,
AFNE01.JPG,AFNE01.JPG,AFNE01.JPG,AFNE01.JPG,AFNE01.JPG,AFNE01.JPG,3,5,35,5,,,,,,,,,,,,,,,,,,,,,,,AMSA15.jpg,AMNE05.jpg,AMNE15.jpg,AMSA06.jpg,AMNE05.jpg,MN,1,num_6,16,num_6,0.566772478836,,,2017_Jul_19_1530,60.0083724927,MAFE4ImagesEEG,001,200911,
AFNE01.JPG,AFNE01.JPG,AFNE01.JPG,AFNE01.JPG,AFNE01.JPG,AFNE01.JPG,3,6,36,8,,,,,,,,,,,,,,,,,,,,,,,AMSA18.jpg,AMNE01.jpg,AMNE04.jpg,AMSA02.jpg,AMNE04.jpg,MN,1,num_2,16,num_2,1.28329498885,,,2017_Jul_19_1530,60.0083724927,MAFE4ImagesEEG,001,200911,
AFNE01.JPG,AFNE01.JPG,AFNE01.JPG,AFNE01.JPG,AFNE01.JPG,AFNE01.JPG,3,7,37,7,,,,,,,,,,,,,,,,,,,,,,,AMNE09.jpg,AMNE10.jpg,AMSA09.jpg,AMSA14.jpg,AMNE10.jpg,MN,1,num_6,32,num_8,0.733487096149,,,2017_Jul_19_1530,60.0083724927,MAFE4ImagesEEG,001,200911,
AFNE01.JPG,AFNE01.JPG,AFNE01.JPG,AFNE01.JPG,AFNE01.JPG,AFNE01.JPG,3,8,38,0,,,,,,,,,,,,,,,,,,,,,,,AMSA19.jpg,AMNE20.jpg,AMNE09.jpg,AMSA17.jpg,AMNE09.jpg,MN,1,num_2,16,num_2,0.950157627725,,,2017_Jul_19_1530,60.0083724927,MAFE4ImagesEEG,001,200911,
AFNE01.JPG,AFNE01.JPG,AFNE01.JPG,AFNE01.JPG,AFNE01.JPG,AFNE01.JPG,3,9,39,9,,,,,,,,,,,,,,,,,,,,,,,AMSA17.jpg,AMNE12.jpg,AMNE11.jpg,AMSA05.jpg,AMNE12.jpg,MN,1,num_6,32,num_4,0.600158317335,,,2017_Jul_19_1530,60.0083724927,MAFE4ImagesEEG,001,200911,
AFNE01.JPG,AFNE01.JPG,AFNE01.JPG,AFNE01.JPG,AFNE01.JPG,AFNE01.JPG,4,0,40,2,,,,,,,,,,,,,,,,,,,,,,,AMNE03.jpg,AMSA09.jpg,AMNE18.jpg,AMSA15.jpg,AMNE18.jpg,MN,1,num_2,32,num_8,0.683571595117,,,2017_Jul_19_1530,60.0083724927,MAFE4ImagesEEG,001,200911,
AFNE01.JPG,AFNE01.JPG,AFNE01.JPG,AFNE01.JPG,AFNE01.JPG,AFNE01.JPG,4,1,41,0,,,,,,,,,,,,,,,,,,,,,,,AMNE20.jpg,AMSA07.jpg,AMNE09.jpg,AMSA15.jpg,AMNE20.jpg,MN,1,num_8,16,num_8,0.833448318677,,,2017_Jul_19_1530,60.0083724927,MAFE4ImagesEEG,001,200911,
AFNE01.JPG,AFNE01.JPG,AFNE01.JPG,AFNE01.JPG,AFNE01.JPG,AFNE01.JPG,4,2,42,9,,,,,,,,,,,,,,,,,,,,,,,AMSA12.jpg,AMSA15.jpg,AMNE01.jpg,AMNE14.jpg,AMNE01.jpg,MN,1,num_2,16,num_2,0.733413967391,,,2017_Jul_19_1530,60.0083724927,MAFE4ImagesEEG,001,200911,
AFNE01.JPG,AFNE01.JPG,AFNE01.JPG,AFNE01.JPG,AFNE01.JPG,AFNE01.JPG,4,3,43,8,,,,,,,,,,,,,,,,,,,,,,,AMNE04.jpg,AMNE07.jpg,AMSA04.jpg,AMSA05.jpg,AMSA04.jpg,MS,2,num_2,16,num_2,0.550134726887,,,2017_Jul_19_1530,60.0083724927,MAFE4ImagesEEG,001,200911,
AFNE01.JPG,AFNE01.JPG,AFNE01.JPG,AFNE01.JPG,AFNE01.JPG,AFNE01.JPG,4,4,44,7,,,,,,,,,,,,,,,,,,,,,,,AMNE18.jpg,AMNE06.jpg,AMSA14.jpg,AMSA15.jpg,AMNE06.jpg,MN,1,num_6,32,num_8,0.950198040984,,,2017_Jul_19_1530,60.0083724927,MAFE4ImagesEEG,001,200911,
AFNE01.JPG,AFNE01.JPG,AFNE01.JPG,AFNE01.JPG,AFNE01.JPG,AFNE01.JPG,4,5,45,3,,,,,,,,,,,,,,,,,,,,,,,AMSA04.jpg,AMNE07.jpg,AMSA11.jpg,AMNE15.jpg,AMNE15.jpg,MN,1,num_4,32,num_6,0.833437734225,,,2017_Jul_19_1530,60.0083724927,MAFE4ImagesEEG,001,200911,
AFNE01.JPG,AFNE01.JPG,AFNE01.JPG,AFNE01.JPG,AFNE01.JPG,AFNE01.JPG,4,6,46,6,,,,,,,,,,,,,,,,,,,,,,,AMNE16.jpg,AMSA13.jpg,AMNE13.jpg,AMSA20.jpg,AMNE16.jpg,MN,1,num_8,32,num_2,0.566835023143,,,2017_Jul_19_1530,60.0083724927,MAFE4ImagesEEG,001,200911,
AFNE01.JPG,AFNE01.JPG,AFNE01.JPG,AFNE01.JPG,AFNE01.JPG,AFNE01.JPG,4,7,47,4,,,,,,,,,,,,,,,,,,,,,,,AMSA02.jpg,AMSA14.jpg,AMNE15.jpg,AMNE05.jpg,AMNE15.jpg,MN,1,num_2,32,num_4,0.750107528147,,,2017_Jul_19_1530,60.0083724927,MAFE4ImagesEEG,001,200911,
AFNE01.JPG,AFNE01.JPG,AFNE01.JPG,AFNE01.JPG,AFNE01.JPG,AFNE01.JPG,4,8,48,1,,,,,,,,,,,,,,,,,,,,,,,AMSA07.jpg,AMNE03.jpg,AMSA11.jpg,AMNE20.jpg,AMSA07.jpg,MS,2,num_8,32,num_6,1.68342373392,,,2017_Jul_19_1530,60.0083724927,MAFE4ImagesEEG,001,200911,
AFNE01.JPG,AFNE01.JPG,AFNE01.JPG,AFNE01.JPG,AFNE01.JPG,AFNE01.JPG,4,9,49,5,,,,,,,,,,,,,,,,,,,,,,,AMSA04.jpg,AMNE05.jpg,AMNE12.jpg,AMSA16.jpg,AMSA16.jpg,MS,2,num_4,32,num_8,0.716630278708,,,2017_Jul_19_1530,60.0083724927,MAFE4ImagesEEG,001,200911,
AFNE01.JPG,AFNE01.JPG,AFNE01.JPG,AFNE01.JPG,AFNE01.JPG,AFNE01.JPG,5,0,50,3,,,,,,,,,,,,,,,,,,,,,,,AMNE03.jpg,AMSA13.jpg,AMNE09.jpg,AMSA12.jpg,AMNE03.jpg,MN,1,num_8,32,num_6,1.18344602536,,,2017_Jul_19_1530,60.0083724927,MAFE4ImagesEEG,001,200911,
AFNE01.JPG,AFNE01.JPG,AFNE01.JPG,AFNE01.JPG,AFNE01.JPG,AFNE01.JPG,5,1,51,0,,,,,,,,,,,,,,,,,,,,,,,AMSA08.jpg,AMSA06.jpg,AMNE02.jpg,AMNE15.jpg,AMSA08.jpg,MS,2,num_8,32,num_2,0.533538029675,,,2017_Jul_19_1530,60.0083724927,MAFE4ImagesEEG,001,200911,
AFNE01.JPG,AFNE01.JPG,AFNE01.JPG,AFNE01.JPG,AFNE01.JPG,AFNE01.JPG,5,2,52,9,,,,,,,,,,,,,,,,,,,,,,,AMNE02.jpg,AMSA08.jpg,AMNE15.jpg,AMSA02.jpg,AMSA08.jpg,MS,2,num_6,32,num_8,0.850106918719,,,2017_Jul_19_1530,60.0083724927,MAFE4ImagesEEG,001,200911,
AFNE01.JPG,AFNE01.JPG,AFNE01.JPG,AFNE01.JPG,AFNE01.JPG,AFNE01.JPG,5,3,53,2,,,,,,,,,,,,,,,,,,,,,,,AMSA17.jpg,AMNE01.jpg,AMSA11.jpg,AMNE19.jpg,AMSA17.jpg,MS,2,num_8,16,num_8,0.800113798585,,,2017_Jul_19_1530,60.0083724927,MAFE4ImagesEEG,001,200911,
AFNE01.JPG,AFNE01.JPG,AFNE01.JPG,AFNE01.JPG,AFNE01.JPG,AFNE01.JPG,5,4,54,1,,,,,,,,,,,,,,,,,,,,,,,AMNE07.jpg,AMSA05.jpg,AMNE14.jpg,AMSA18.jpg,AMNE07.jpg,MN,1,num_8,16,num_8,0.766736620077,,,2017_Jul_19_1530,60.0083724927,MAFE4ImagesEEG,001,200911,
AFNE01.JPG,AFNE01.JPG,AFNE01.JPG,AFNE01.JPG,AFNE01.JPG,AFNE01.JPG,5,5,55,6,,,,,,,,,,,,,,,,,,,,,,,AMSA01.jpg,AMNE11.jpg,AMSA16.jpg,AMNE13.jpg,AMSA16.jpg,MS,2,num_2,32,num_4,0.699910096562,,,2017_Jul_19_1530,60.0083724927,MAFE4ImagesEEG,001,200911,
AFNE01.JPG,AFNE01.JPG,AFNE01.JPG,AFNE01.JPG,AFNE01.JPG,AFNE01.JPG,5,6,56,7,,,,,,,,,,,,,,,,,,,,,,,AMSA19.jpg,AMSA03.jpg,AMNE11.jpg,AMNE17.jpg,AMSA03.jpg,MS,2,num_6,16,num_6,0.400156970223,,,2017_Jul_19_1530,60.0083724927,MAFE4ImagesEEG,001,200911,
AFNE01.JPG,AFNE01.JPG,AFNE01.JPG,AFNE01.JPG,AFNE01.JPG,AFNE01.JPG,5,7,57,8,,,,,,,,,,,,,,,,,,,,,,,AMNE03.jpg,AMNE05.jpg,AMSA02.jpg,AMSA17.jpg,AMSA17.jpg,MS,2,num_4,32,num_8,0.916764732945,,,2017_Jul_19_1530,60.0083724927,MAFE4ImagesEEG,001,200911,
AFNE01.JPG,AFNE01.JPG,AFNE01.JPG,AFNE01.JPG,AFNE01.JPG,AFNE01.JPG,5,8,58,4,,,,,,,,,,,,,,,,,,,,,,,AMSA15.jpg,AMNE01.jpg,AMNE08.jpg,AMSA03.jpg,AMNE01.jpg,MN,1,num_6,16,num_6,0.833489373414,,,2017_Jul_19_1530,60.0083724927,MAFE4ImagesEEG,001,200911,
AFNE01.JPG,AFNE01.JPG,AFNE01.JPG,AFNE01.JPG,AFNE01.JPG,AFNE01.JPG,5,9,59,5,,,,,,,,,,,,,,,,,,,,,,,AMNE13.jpg,AMNE16.jpg,AMSA04.jpg,AMSA16.jpg,AMSA16.jpg,MS,2,num_4,16,num_4,0.783426011185,,,2017_Jul_19_1530,60.0083724927,MAFE4ImagesEEG,001,200911,
,,,,,,,,,,,,,,,,,,,,,,,,,,,,,,,,,,,,,,,,,,,space,1.74998917503,2017_Jul_19_1530,60.0083724927,MAFE4ImagesEEG,001,200911,
AFNE01.JPG,AFNE01.JPG,AFNE01.JPG,AFNE01.JPG,AFNE01.JPG,AFNE01.JPG,,,,,0,0,0,4,,,,,,,,,,,,,,,,,,,AFSA05.jpg,AFNE18.jpg,AFSA16.jpg,AFNE19.jpg,AFNE19.jpg,FN,3,num_4,32,num_8,0.883525793441,,,2017_Jul_19_1530,60.0083724927,MAFE4ImagesEEG,001,200911,
AFNE01.JPG,AFNE01.JPG,AFNE01.JPG,AFNE01.JPG,AFNE01.JPG,AFNE01.JPG,,,,,0,1,1,9,,,,,,,,,,,,,,,,,,,AFNE03.jpg,AFSA01.jpg,AFNE06.jpg,AFSA19.jpg,AFSA01.jpg,FS,4,num_6,16,num_6,0.600125601835,,,2017_Jul_19_1530,60.0083724927,MAFE4ImagesEEG,001,200911,
AFNE01.JPG,AFNE01.JPG,AFNE01.JPG,AFNE01.JPG,AFNE01.JPG,AFNE01.JPG,,,,,0,2,2,2,,,,,,,,,,,,,,,,,,,AFNE08.jpg,AFNE07.jpg,AFSA10.jpg,AFSA01.jpg,AFSA10.jpg,FS,4,num_2,32,num_8,0.850152143074,,,2017_Jul_19_1530,60.0083724927,MAFE4ImagesEEG,001,200911,
AFNE01.JPG,AFNE01.JPG,AFNE01.JPG,AFNE01.JPG,AFNE01.JPG,AFNE01.JPG,,,,,0,3,3,8,,,,,,,,,,,,,,,,,,,AFSA09.jpg,AFNE03.jpg,AFNE04.jpg,AFSA19.jpg,AFSA19.jpg,FS,4,num_4,32,num_6,0.766613455897,,,2017_Jul_19_1530,60.0083724927,MAFE4ImagesEEG,001,200911,
AFNE01.JPG,AFNE01.JPG,AFNE01.JPG,AFNE01.JPG,AFNE01.JPG,AFNE01.JPG,,,,,0,4,4,7,,,,,,,,,,,,,,,,,,,AFNE13.jpg,AFSA01.jpg,AFSA17.jpg,AFNE11.jpg,AFSA17.jpg,FS,4,num_2,32,num_8,0.883293256862,,,2017_Jul_19_1530,60.0083724927,MAFE4ImagesEEG,001,200911,
AFNE01.JPG,AFNE01.JPG,AFNE01.JPG,AFNE01.JPG,AFNE01.JPG,AFNE01.JPG,,,,,0,5,5,3,,,,,,,,,,,,,,,,,,,AFNE09.jpg,AFNE12.jpg,AFSA16.jpg,AFSA20.jpg,AFSA16.jpg,FS,4,num_2,16,num_2,0.5167671706,,,2017_Jul_19_1530,60.0083724927,MAFE4ImagesEEG,001,200911,
AFNE01.JPG,AFNE01.JPG,AFNE01.JPG,AFNE01.JPG,AFNE01.JPG,AFNE01.JPG,,,,,0,6,6,6,,,,,,,,,,,,,,,,,,,AFSA09.jpg,AFSA05.jpg,AFNE14.jpg,AFNE16.jpg,AFNE16.jpg,FN,3,num_4,32,num_8,0.833487769705,,,2017_Jul_19_1530,60.0083724927,MAFE4ImagesEEG,001,200911,
AFNE01.JPG,AFNE01.JPG,AFNE01.JPG,AFNE01.JPG,AFNE01.JPG,AFNE01.JPG,,,,,0,7,7,5,,,,,,,,,,,,,,,,,,,AFNE04.jpg,AFSA08.jpg,AFNE12.jpg,AFSA19.jpg,AFNE12.jpg,FN,3,num_2,16,num_2,1.11676543858,,,2017_Jul_19_1530,60.0083724927,MAFE4ImagesEEG,001,200911,
AFNE01.JPG,AFNE01.JPG,AFNE01.JPG,AFNE01.JPG,AFNE01.JPG,AFNE01.JPG,,,,,0,8,8,0,,,,,,,,,,,,,,,,,,,AFNE15.jpg,AFSA19.jpg,AFNE14.jpg,AFSA05.jpg,AFSA05.jpg,FS,4,num_4,16,num_4,0.833430998697,,,2017_Jul_19_1530,60.0083724927,MAFE4ImagesEEG,001,200911,
AFNE01.JPG,AFNE01.JPG,AFNE01.JPG,AFNE01.JPG,AFNE01.JPG,AFNE01.JPG,,,,,0,9,9,1,,,,,,,,,,,,,,,,,,,AFSA11.jpg,AFNE10.jpg,AFNE19.jpg,AFSA10.jpg,AFNE10.jpg,FN,3,num_6,16,num_6,1.21671511445,,,2017_Jul_19_1530,60.0083724927,MAFE4ImagesEEG,001,200911,
AFNE01.JPG,AFNE01.JPG,AFNE01.JPG,AFNE01.JPG,AFNE01.JPG,AFNE01.JPG,,,,,1,0,10,8,,,,,,,,,,,,,,,,,,,AFSA09.jpg,AFNE06.jpg,AFSA07.jpg,AFNE14.jpg,AFSA07.jpg,FS,4,num_2,32,num_8,0.666797528625,,,2017_Jul_19_1530,60.0083724927,MAFE4ImagesEEG,001,200911,
AFNE01.JPG,AFNE01.JPG,AFNE01.JPG,AFNE01.JPG,AFNE01.JPG,AFNE01.JPG,,,,,1,1,11,3,,,,,,,,,,,,,,,,,,,AFSA07.jpg,AFNE11.jpg,AFNE20.jpg,AFSA09.jpg,AFSA07.jpg,FS,4,num_8,32,num_4,0.600145166973,,,2017_Jul_19_1530,60.0083724927,MAFE4ImagesEEG,001,200911,
AFNE01.JPG,AFNE01.JPG,AFNE01.JPG,AFNE01.JPG,AFNE01.JPG,AFNE01.JPG,,,,,1,2,12,5,,,,,,,,,,,,,,,,,,,AFNE08.jpg,AFSA01.jpg,AFSA16.jpg,AFNE09.jpg,AFSA01.jpg,FS,4,num_6,32,num_2,1.21661825094,,,2017_Jul_19_1530,60.0083724927,MAFE4ImagesEEG,001,200911,
AFNE01.JPG,AFNE01.JPG,AFNE01.JPG,AFNE01.JPG,AFNE01.JPG,AFNE01.JPG,,,,,1,3,13,4,,,,,,,,,,,,,,,,,,,AFNE12.jpg,AFSA03.jpg,AFSA06.jpg,AFNE14.jpg,AFNE14.jpg,FN,3,num_4,32,num_8,0.966885186906,,,2017_Jul_19_1530,60.0083724927,MAFE4ImagesEEG,001,200911,
AFNE01.JPG,AFNE01.JPG,AFNE01.JPG,AFNE01.JPG,AFNE01.JPG,AFNE01.JPG,,,,,1,4,14,7,,,,,,,,,,,,,,,,,,,AFNE01.jpg,AFSA13.jpg,AFSA15.jpg,AFNE12.jpg,AFSA13.jpg,FS,4,num_6,16,num_6,0.500194849621,,,2017_Jul_19_1530,60.0083724927,MAFE4ImagesEEG,001,200911,
AFNE01.JPG,AFNE01.JPG,AFNE01.JPG,AFNE01.JPG,AFNE01.JPG,AFNE01.JPG,,,,,1,5,15,1,,,,,,,,,,,,,,,,,,,AFSA16.jpg,AFNE06.jpg,AFNE13.jpg,AFSA14.jpg,AFSA16.jpg,FS,4,num_8,16,num_8,0.666771869437,,,2017_Jul_19_1530,60.0083724927,MAFE4ImagesEEG,001,200911,
AFNE01.JPG,AFNE01.JPG,AFNE01.JPG,AFNE01.JPG,AFNE01.JPG,AFNE01.JPG,,,,,1,6,16,6,,,,,,,,,,,,,,,,,,,AFNE12.jpg,AFSA04.jpg,AFSA18.jpg,AFNE10.jpg,AFSA18.jpg,FS,4,num_2,16,num_2,0.983431207191,,,2017_Jul_19_1530,60.0083724927,MAFE4ImagesEEG,001,200911,
AFNE01.JPG,AFNE01.JPG,AFNE01.JPG,AFNE01.JPG,AFNE01.JPG,AFNE01.JPG,,,,,1,7,17,9,,,,,,,,,,,,,,,,,,,AFSA18.jpg,AFNE05.jpg,AFNE15.jpg,AFSA11.jpg,AFNE15.jpg,FN,3,num_2,16,num_2,0.950111120415,,,2017_Jul_19_1530,60.0083724927,MAFE4ImagesEEG,001,200911,
AFNE01.JPG,AFNE01.JPG,AFNE01.JPG,AFNE01.JPG,AFNE01.JPG,AFNE01.JPG,,,,,1,8,18,0,,,,,,,,,,,,,,,,,,,AFNE15.jpg,AFNE16.jpg,AFSA10.jpg,AFSA03.jpg,AFSA03.jpg,FS,4,num_4,32,num_6,0.716784875432,,,2017_Jul_19_1530,60.0083724927,MAFE4ImagesEEG,001,200911,
AFNE01.JPG,AFNE01.JPG,AFNE01.JPG,AFNE01.JPG,AFNE01.JPG,AFNE01.JPG,,,,,1,9,19,2,,,,,,,,,,,,,,,,,,,AFNE17.jpg,AFSA17.jpg,AFNE16.jpg,AFSA16.jpg,AFNE16.jpg,FN,3,num_2,32,num_4,0.783114251797,,,2017_Jul_19_1530,60.0083724927,MAFE4ImagesEEG,001,200911,
AFNE01.JPG,AFNE01.JPG,AFNE01.JPG,AFNE01.JPG,AFNE01.JPG,AFNE01.JPG,,,,,2,0,20,6,,,,,,,,,,,,,,,,,,,AFNE19.jpg,AFNE04.jpg,AFSA16.jpg,AFSA05.jpg,AFSA05.jpg,FS,4,num_4,32,num_2,0.783469311078,,,2017_Jul_19_1530,60.0083724927,MAFE4ImagesEEG,001,200911,
AFNE01.JPG,AFNE01.JPG,AFNE01.JPG,AFNE01.JPG,AFNE01.JPG,AFNE01.JPG,,,,,2,1,21,2,,,,,,,,,,,,,,,,,,,AFNE19.jpg,AFSA02.jpg,AFNE15.jpg,AFSA03.jpg,AFNE15.jpg,FN,3,num_2,16,num_2,0.566879926744,,,2017_Jul_19_1530,60.0083724927,MAFE4ImagesEEG,001,200911,
AFNE01.JPG,AFNE01.JPG,AFNE01.JPG,AFNE01.JPG,AFNE01.JPG,AFNE01.JPG,,,,,2,2,22,9,,,,,,,,,,,,,,,,,,,AFSA13.jpg,AFNE04.jpg,AFNE12.jpg,AFSA03.jpg,AFSA13.jpg,FS,4,num_8,16,num_8,0.716770442144,,,2017_Jul_19_1530,60.0083724927,MAFE4ImagesEEG,001,200911,
AFNE01.JPG,AFNE01.JPG,AFNE01.JPG,AFNE01.JPG,AFNE01.JPG,AFNE01.JPG,,,,,2,3,23,1,,,,,,,,,,,,,,,,,,,AFNE08.jpg,AFSA15.jpg,AFSA04.jpg,AFNE17.jpg,AFNE17.jpg,FN,3,num_4,16,num_4,1.43337217497,,,2017_Jul_19_1530,60.0083724927,MAFE4ImagesEEG,001,200911,
AFNE01.JPG,AFNE01.JPG,AFNE01.JPG,AFNE01.JPG,AFNE01.JPG,AFNE01.JPG,,,,,2,4,24,5,,,,,,,,,,,,,,,,,,,AFSA12.jpg,AFSA18.jpg,AFNE06.jpg,AFNE19.jpg,AFNE06.jpg,FN,3,num_2,32,num_4,1.08344663476,,,2017_Jul_19_1530,60.0083724927,MAFE4ImagesEEG,001,200911,
AFNE01.JPG,AFNE01.JPG,AFNE01.JPG,AFNE01.JPG,AFNE01.JPG,AFNE01.JPG,,,,,2,5,25,3,,,,,,,,,,,,,,,,,,,AFSA07.jpg,AFNE08.jpg,AFSA02.jpg,AFNE06.jpg,AFNE08.jpg,FN,3,num_6,32,num_8,1.11681515331,,,2017_Jul_19_1530,60.0083724927,MAFE4ImagesEEG,001,200911,
AFNE01.JPG,AFNE01.JPG,AFNE01.JPG,AFNE01.JPG,AFNE01.JPG,AFNE01.JPG,,,,,2,6,26,4,,,,,,,,,,,,,,,,,,,AFNE08.jpg,AFSA20.jpg,AFSA14.jpg,AFNE17.jpg,AFSA20.jpg,FS,4,num_6,32,num_4,0.816777209751,,,2017_Jul_19_1530,60.0083724927,MAFE4ImagesEEG,001,200911,
AFNE01.JPG,AFNE01.JPG,AFNE01.JPG,AFNE01.JPG,AFNE01.JPG,AFNE01.JPG,,,,,2,7,27,7,,,,,,,,,,,,,,,,,,,AFNE10.jpg,AFNE04.jpg,AFSA08.jpg,AFSA03.jpg,AFSA03.jpg,FS,4,num_4,16,num_4,0.633326373267,,,2017_Jul_19_1530,60.0083724927,MAFE4ImagesEEG,001,200911,
AFNE01.JPG,AFNE01.JPG,AFNE01.JPG,AFNE01.JPG,AFNE01.JPG,AFNE01.JPG,,,,,2,8,28,8,,,,,,,,,,,,,,,,,,,AFNE17.jpg,AFSA03.jpg,AFNE16.jpg,AFSA20.jpg,AFSA03.jpg,FS,4,num_6,16,num_6,0.416816532495,,,2017_Jul_19_1530,60.0083724927,MAFE4ImagesEEG,001,200911,
AFNE01.JPG,AFNE01.JPG,AFNE01.JPG,AFNE01.JPG,AFNE01.JPG,AFNE01.JPG,,,,,2,9,29,0,,,,,,,,,,,,,,,,,,,AFSA20.jpg,AFNE14.jpg,AFNE03.jpg,AFSA12.jpg,AFSA12.jpg,FS,4,num_4,32,num_2,1.13333262771,,,2017_Jul_19_1530,60.0083724927,MAFE4ImagesEEG,001,200911,
AFNE01.JPG,AFNE01.JPG,AFNE01.JPG,AFNE01.JPG,AFNE01.JPG,AFNE01.JPG,,,,,3,0,30,3,,,,,,,,,,,,,,,,,,,AFNE18.jpg,AFSA18.jpg,AFSA11.jpg,AFNE12.jpg,AFSA18.jpg,FS,4,num_6,16,num_6,1.58338264714,,,2017_Jul_19_1530,60.0083724927,MAFE4ImagesEEG,001,200911,
AFNE01.JPG,AFNE01.JPG,AFNE01.JPG,AFNE01.JPG,AFNE01.JPG,AFNE01.JPG,,,,,3,1,31,7,,,,,,,,,,,,,,,,,,,AFNE15.jpg,AFSA03.jpg,AFSA07.jpg,AFNE09.jpg,AFSA03.jpg,FS,4,num_6,32,num_4,1.31696917271,,,2017_Jul_19_1530,60.0083724927,MAFE4ImagesEEG,001,200911,
AFNE01.JPG,AFNE01.JPG,AFNE01.JPG,AFNE01.JPG,AFNE01.JPG,AFNE01.JPG,,,,,3,2,32,4,,,,,,,,,,,,,,,,,,,AFSA19.jpg,AFNE11.jpg,AFNE12.jpg,AFSA04.jpg,AFSA04.jpg,FS,4,num_4,16,num_4,0.566776648426,,,2017_Jul_19_1530,60.0083724927,MAFE4ImagesEEG,001,200911,
AFNE01.JPG,AFNE01.JPG,AFNE01.JPG,AFNE01.JPG,AFNE01.JPG,AFNE01.JPG,,,,,3,3,33,5,,,,,,,,,,,,,,,,,,,AFSA20.jpg,AFNE10.jpg,AFNE20.jpg,AFSA08.jpg,AFNE10.jpg,FN,3,num_6,32,num_8,1.91669673607,,,2017_Jul_19_1530,60.0083724927,MAFE4ImagesEEG,001,200911,
AFNE01.JPG,AFNE01.JPG,AFNE01.JPG,AFNE01.JPG,AFNE01.JPG,AFNE01.JPG,,,,,3,4,34,8,,,,,,,,,,,,,,,,,,,AFSA04.jpg,AFNE02.jpg,AFSA09.jpg,AFNE17.jpg,AFSA04.jpg,FS,4,num_8,32,num_6,0.600180769135,,,2017_Jul_19_1530,60.0083724927,MAFE4ImagesEEG,001,200911,
AFNE01.JPG,AFNE01.JPG,AFNE01.JPG,AFNE01.JPG,AFNE01.JPG,AFNE01.JPG,,,,,3,5,35,1,,,,,,,,,,,,,,,,,,,AFSA12.jpg,AFNE13.jpg,AFNE19.jpg,AFSA09.jpg,AFSA09.jpg,FS,4,num_4,16,num_4,1.28326708448,,,2017_Jul_19_1530,60.0083724927,MAFE4ImagesEEG,001,200911,
AFNE01.JPG,AFNE01.JPG,AFNE01.JPG,AFNE01.JPG,AFNE01.JPG,AFNE01.JPG,,,,,3,6,36,0,,,,,,,,,,,,,,,,,,,AFNE03.jpg,AFNE14.jpg,AFSA08.jpg,AFSA03.jpg,AFSA08.jpg,FS,4,num_2,16,num_2,0.633444084902,,,2017_Jul_19_1530,60.0083724927,MAFE4ImagesEEG,001,200911,
AFNE01.JPG,AFNE01.JPG,AFNE01.JPG,AFNE01.JPG,AFNE01.JPG,AFNE01.JPG,,,,,3,7,37,2,,,,,,,,,,,,,,,,,,,AFSA18.jpg,AFNE11.jpg,AFNE19.jpg,AFSA03.jpg,AFNE11.jpg,FN,3,num_6,16,num_6,0.666753266501,,,2017_Jul_19_1530,60.0083724927,MAFE4ImagesEEG,001,200911,
AFNE01.JPG,AFNE01.JPG,AFNE01.JPG,AFNE01.JPG,AFNE01.JPG,AFNE01.JPG,,,,,3,8,38,9,,,,,,,,,,,,,,,,,,,AFSA08.jpg,AFNE10.jpg,AFNE11.jpg,AFSA05.jpg,AFNE10.jpg,FN,3,num_6,16,num_6,2.95005755679,,,2017_Jul_19_1530,60.0083724927,MAFE4ImagesEEG,001,200911,
AFNE01.JPG,AFNE01.JPG,AFNE01.JPG,AFNE01.JPG,AFNE01.JPG,AFNE01.JPG,,,,,3,9,39,6,,,,,,,,,,,,,,,,,,,AFNE20.jpg,AFSA06.jpg,AFSA13.jpg,AFNE15.jpg,AFNE20.jpg,FN,3,num_8,16,num_8,0.800118930434,,,2017_Jul_19_1530,60.0083724927,MAFE4ImagesEEG,001,200911,
AFNE01.JPG,AFNE01.JPG,AFNE01.JPG,AFNE01.JPG,AFNE01.JPG,AFNE01.JPG,,,,,4,0,40,6,,,,,,,,,,,,,,,,,,,AFNE15.jpg,AFNE10.jpg,AFSA06.jpg,AFSA14.jpg,AFNE15.jpg,FN,3,num_8,16,num_8,0.550189573434,,,2017_Jul_19_1530,60.0083724927,MAFE4ImagesEEG,001,200911,
AFNE01.JPG,AFNE01.JPG,AFNE01.JPG,AFNE01.JPG,AFNE01.JPG,AFNE01.JPG,,,,,4,1,41,9,,,,,,,,,,,,,,,,,,,AFNE14.jpg,AFSA05.jpg,AFSA19.jpg,AFNE18.jpg,AFSA19.jpg,FS,4,num_2,16,num_2,0.43352709242,,,2017_Jul_19_1530,60.0083724927,MAFE4ImagesEEG,001,200911,
AFNE01.JPG,AFNE01.JPG,AFNE01.JPG,AFNE01.JPG,AFNE01.JPG,AFNE01.JPG,,,,,4,2,42,2,,,,,,,,,,,,,,,,,,,AFSA13.jpg,AFNE16.jpg,AFSA06.jpg,AFNE03.jpg,AFSA06.jpg,FS,4,num_2,16,num_2,1.41672351785,,,2017_Jul_19_1530,60.0083724927,MAFE4ImagesEEG,001,200911,
AFNE01.JPG,AFNE01.JPG,AFNE01.JPG,AFNE01.JPG,AFNE01.JPG,AFNE01.JPG,,,,,4,3,43,7,,,,,,,,,,,,,,,,,,,AFSA04.jpg,AFSA09.jpg,AFNE14.jpg,AFNE13.jpg,AFNE13.jpg,FN,3,num_4,16,num_4,1.00012316421,,,2017_Jul_19_1530,60.0083724927,MAFE4ImagesEEG,001,200911,
AFNE01.JPG,AFNE01.JPG,AFNE01.JPG,AFNE01.JPG,AFNE01.JPG,AFNE01.JPG,,,,,4,4,44,5,,,,,,,,,,,,,,,,,,,AFSA01.jpg,AFSA19.jpg,AFNE03.jpg,AFNE01.jpg,AFNE01.jpg,FN,3,num_4,16,num_4,1.18311470083,,,2017_Jul_19_1530,60.0083724927,MAFE4ImagesEEG,001,200911,
AFNE01.JPG,AFNE01.JPG,AFNE01.JPG,AFNE01.JPG,AFNE01.JPG,AFNE01.JPG,,,,,4,5,45,8,,,,,,,,,,,,,,,,,,,AFNE04.jpg,AFSA18.jpg,AFSA16.jpg,AFNE18.jpg,AFNE04.jpg,FN,3,num_8,32,num_2,1.53362495024,,,2017_Jul_19_1530,60.0083724927,MAFE4ImagesEEG,001,200911,
AFNE01.JPG,AFNE01.JPG,AFNE01.JPG,AFNE01.JPG,AFNE01.JPG,AFNE01.JPG,,,,,4,6,46,0,,,,,,,,,,,,,,,,,,,AFSA06.jpg,AFSA20.jpg,AFNE10.jpg,AFNE01.jpg,AFSA20.jpg,FS,4,num_6,32,num_8,0.70019683821,,,2017_Jul_19_1530,60.0083724927,MAFE4ImagesEEG,001,200911,
AFNE01.JPG,AFNE01.JPG,AFNE01.JPG,AFNE01.JPG,AFNE01.JPG,AFNE01.JPG,,,,,4,7,47,3,,,,,,,,,,,,,,,,,,,AFSA10.jpg,AFNE18.jpg,AFSA08.jpg,AFNE03.jpg,AFSA10.jpg,FS,4,num_8,32,num_4,0.850116220186,,,2017_Jul_19_1530,60.0083724927,MAFE4ImagesEEG,001,200911,
AFNE01.JPG,AFNE01.JPG,AFNE01.JPG,AFNE01.JPG,AFNE01.JPG,AFNE01.JPG,,,,,4,8,48,4,,,,,,,,,,,,,,,,,,,AFSA17.jpg,AFNE15.jpg,AFNE20.jpg,AFSA19.jpg,AFNE20.jpg,FN,3,num_2,32,num_8,0.716799629474,,,2017_Jul_19_1530,60.0083724927,MAFE4ImagesEEG,001,200911,
AFNE01.JPG,AFNE01.JPG,AFNE01.JPG,AFNE01.JPG,AFNE01.JPG,AFNE01.JPG,,,,,4,9,49,1,,,,,,,,,,,,,,,,,,,AFSA09.jpg,AFNE07.jpg,AFSA01.jpg,AFNE08.jpg,AFNE08.jpg,FN,3,num_4,32,num_6,0.916769544041,,,2017_Jul_19_1530,60.0083724927,MAFE4ImagesEEG,001,200911,
AFNE01.JPG,AFNE01.JPG,AFNE01.JPG,AFNE01.JPG,AFNE01.JPG,AFNE01.JPG,,,,,5,0,50,0,,,,,,,,,,,,,,,,,,,AFNE04.jpg,AFSA11.jpg,AFSA08.jpg,AFNE05.jpg,AFNE05.jpg,FN,3,num_4,16,num_4,0.783481819963,,,2017_Jul_19_1530,60.0083724927,MAFE4ImagesEEG,001,200911,
AFNE01.JPG,AFNE01.JPG,AFNE01.JPG,AFNE01.JPG,AFNE01.JPG,AFNE01.JPG,,,,,5,1,51,3,,,,,,,,,,,,,,,,,,,AFSA13.jpg,AFSA17.jpg,AFNE12.jpg,AFNE16.jpg,AFNE12.jpg,FN,3,num_2,32,num_8,0.716756971058,,,2017_Jul_19_1530,60.0083724927,MAFE4ImagesEEG,001,200911,
AFNE01.JPG,AFNE01.JPG,AFNE01.JPG,AFNE01.JPG,AFNE01.JPG,AFNE01.JPG,,,,,5,2,52,5,,,,,,,,,,,,,,,,,,,AFSA14.jpg,AFNE05.jpg,AFSA10.jpg,AFNE10.jpg,AFSA10.jpg,FS,4,num_2,16,num_2,1.18349477786,,,2017_Jul_19_1530,60.0083724927,MAFE4ImagesEEG,001,200911,
AFNE01.JPG,AFNE01.JPG,AFNE01.JPG,AFNE01.JPG,AFNE01.JPG,AFNE01.JPG,,,,,5,3,53,8,,,,,,,,,,,,,,,,,,,AFNE13.jpg,AFSA08.jpg,AFNE12.jpg,AFSA12.jpg,AFNE12.jpg,FN,3,num_2,32,num_8,0.883157904522,,,2017_Jul_19_1530,60.0083724927,MAFE4ImagesEEG,001,200911,
AFNE01.JPG,AFNE01.JPG,AFNE01.JPG,AFNE01.JPG,AFNE01.JPG,AFNE01.JPG,,,,,5,4,54,1,,,,,,,,,,,,,,,,,,,AFSA05.jpg,AFNE08.jpg,AFNE15.jpg,AFSA08.jpg,AFSA05.jpg,FS,4,num_8,16,num_8,0.43357359973,,,2017_Jul_19_1530,60.0083724927,MAFE4ImagesEEG,001,200911,
AFNE01.JPG,AFNE01.JPG,AFNE01.JPG,AFNE01.JPG,AFNE01.JPG,AFNE01.JPG,,,,,5,5,55,6,,,,,,,,,,,,,,,,,,,AFSA08.jpg,AFNE04.jpg,AFNE20.jpg,AFSA04.jpg,AFSA04.jpg,FS,4,num_4,16,num_4,0.533454637247,,,2017_Jul_19_1530,60.0083724927,MAFE4ImagesEEG,001,200911,
AFNE01.JPG,AFNE01.JPG,AFNE01.JPG,AFNE01.JPG,AFNE01.JPG,AFNE01.JPG,,,,,5,6,56,7,,,,,,,,,,,,,,,,,,,AFSA04.jpg,AFSA15.jpg,AFNE05.jpg,AFNE13.jpg,AFNE05.jpg,FN,3,num_2,32,num_4,1.00009012796,,,2017_Jul_19_1530,60.0083724927,MAFE4ImagesEEG,001,200911,
AFNE01.JPG,AFNE01.JPG,AFNE01.JPG,AFNE01.JPG,AFNE01.JPG,AFNE01.JPG,,,,,5,7,57,4,,,,,,,,,,,,,,,,,,,AFSA09.jpg,AFNE02.jpg,AFSA11.jpg,AFNE20.jpg,AFSA11.jpg,FS,4,num_2,16,num_2,0.466796823021,,,2017_Jul_19_1530,60.0083724927,MAFE4ImagesEEG,001,200911,
AFNE01.JPG,AFNE01.JPG,AFNE01.JPG,AFNE01.JPG,AFNE01.JPG,AFNE01.JPG,,,,,5,8,58,2,,,,,,,,,,,,,,,,,,,AFNE01.jpg,AFNE20.jpg,AFSA17.jpg,AFSA03.jpg,AFNE20.jpg,FN,3,num_6,32,num_8,0.916798731399,,,2017_Jul_19_1530,60.0083724927,MAFE4ImagesEEG,001,200911,
AFNE01.JPG,AFNE01.JPG,AFNE01.JPG,AFNE01.JPG,AFNE01.JPG,AFNE01.JPG,,,,,5,9,59,9,,,,,,,,,,,,,,,,,,,AFSA04.jpg,AFNE04.jpg,AFSA08.jpg,AFNE16.jpg,AFSA08.jpg,FS,4,num_2,32,num_8,0.783473801479,,,2017_Jul_19_1530,60.0083724927,MAFE4ImagesEEG,001,200911,
,,,,,,,,,,,,,,,,,,,,,,,,,,,,,,,,,,,,,,,,,,,space,1.71667806897,2017_Jul_19_1530,60.0083724927,MAFE4ImagesEEG,001,200911,
AFNE01.JPG,AFNE01.JPG,AFNE01.JPG,AFNE01.JPG,AFNE01.JPG,AFNE01.JPG,,,,,,,,,0,0,0,0,,,,,,,,,,,,,,,AMNE04.jpg,AMNE20.jpg,AMSA04.jpg,AMSA09.jpg,AMSA04.jpg,MS,2,num_2,16,num_2,0.766843105783,,,2017_Jul_19_1530,60.0083724927,MAFE4ImagesEEG,001,200911,
AFNE01.JPG,AFNE01.JPG,AFNE01.JPG,AFNE01.JPG,AFNE01.JPG,AFNE01.JPG,,,,,,,,,0,1,1,8,,,,,,,,,,,,,,,AMSA11.jpg,AMNE08.jpg,AMSA17.jpg,AMNE13.jpg,AMSA17.jpg,MS,2,num_2,32,num_4,1.01676027468,,,2017_Jul_19_1530,60.0083724927,MAFE4ImagesEEG,001,200911,
AFNE01.JPG,AFNE01.JPG,AFNE01.JPG,AFNE01.JPG,AFNE01.JPG,AFNE01.JPG,,,,,,,,,0,2,2,6,,,,,,,,,,,,,,,AMSA19.jpg,AMNE20.jpg,AMSA14.jpg,AMNE15.jpg,AMNE20.jpg,MN,1,num_6,16,num_6,0.533502427512,,,2017_Jul_19_1530,60.0083724927,MAFE4ImagesEEG,001,200911,
AFNE01.JPG,AFNE01.JPG,AFNE01.JPG,AFNE01.JPG,AFNE01.JPG,AFNE01.JPG,,,,,,,,,0,3,3,9,,,,,,,,,,,,,,,AMSA14.jpg,AMNE06.jpg,AMNE08.jpg,AMSA13.jpg,AMNE06.jpg,MN,1,num_6,32,num_8,1.01682153603,,,2017_Jul_19_1530,60.0083724927,MAFE4ImagesEEG,001,200911,
AFNE01.JPG,AFNE01.JPG,AFNE01.JPG,AFNE01.JPG,AFNE01.JPG,AFNE01.JPG,,,,,,,,,0,4,4,3,,,,,,,,,,,,,,,AMSA16.jpg,AMNE17.jpg,AMSA03.jpg,AMNE19.jpg,AMNE17.jpg,MN,1,num_6,16,num_6,0.766768052621,,,2017_Jul_19_1530,60.0083724927,MAFE4ImagesEEG,001,200911,
AFNE01.JPG,AFNE01.JPG,AFNE01.JPG,AFNE01.JPG,AFNE01.JPG,AFNE01.JPG,,,,,,,,,0,5,5,1,,,,,,,,,,,,,,,AMNE04.jpg,AMSA19.jpg,AMNE06.jpg,AMSA12.jpg,AMNE04.jpg,MN,1,num_8,16,num_8,0.983426716819,,,2017_Jul_19_1530,60.0083724927,MAFE4ImagesEEG,001,200911,
AFNE01.JPG,AFNE01.JPG,AFNE01.JPG,AFNE01.JPG,AFNE01.JPG,AFNE01.JPG,,,,,,,,,0,6,6,7,,,,,,,,,,,,,,,AMNE19.jpg,AMSA12.jpg,AMNE13.jpg,AMSA11.jpg,AMNE19.jpg,MN,1,num_8,32,num_4,0.850133219414,,,2017_Jul_19_1530,60.0083724927,MAFE4ImagesEEG,001,200911,
AFNE01.JPG,AFNE01.JPG,AFNE01.JPG,AFNE01.JPG,AFNE01.JPG,AFNE01.JPG,,,,,,,,,0,7,7,5,,,,,,,,,,,,,,,AMSA19.jpg,AMNE06.jpg,AMSA07.jpg,AMNE19.jpg,AMNE19.jpg,MN,1,num_4,32,num_6,1.06675499849,,,2017_Jul_19_1530,60.0083724927,MAFE4ImagesEEG,001,200911,
AFNE01.JPG,AFNE01.JPG,AFNE01.JPG,AFNE01.JPG,AFNE01.JPG,AFNE01.JPG,,,,,,,,,0,8,8,4,,,,,,,,,,,,,,,AMSA10.jpg,AMNE19.jpg,AMSA04.jpg,AMNE02.jpg,AMSA10.jpg,MS,2,num_8,16,num_8,1.76672860156,,,2017_Jul_19_1530,60.0083724927,MAFE4ImagesEEG,001,200911,
AFNE01.JPG,AFNE01.JPG,AFNE01.JPG,AFNE01.JPG,AFNE01.JPG,AFNE01.JPG,,,,,,,,,0,9,9,2,,,,,,,,,,,,,,,AMSA02.jpg,AMNE15.jpg,AMSA16.jpg,AMNE09.jpg,AMSA02.jpg,MS,2,num_8,16,num_8,0.666765775357,,,2017_Jul_19_1530,60.0083724927,MAFE4ImagesEEG,001,200911,
AFNE01.JPG,AFNE01.JPG,AFNE01.JPG,AFNE01.JPG,AFNE01.JPG,AFNE01.JPG,,,,,,,,,1,0,10,7,,,,,,,,,,,,,,,AMNE15.jpg,AMNE11.jpg,AMSA05.jpg,AMSA12.jpg,AMNE11.jpg,MN,1,num_6,16,num_6,0.649784510751,,,2017_Jul_19_1530,60.0083724927,MAFE4ImagesEEG,001,200911,
AFNE01.JPG,AFNE01.JPG,AFNE01.JPG,AFNE01.JPG,AFNE01.JPG,AFNE01.JPG,,,,,,,,,1,1,11,6,,,,,,,,,,,,,,,AMNE05.jpg,AMSA19.jpg,AMNE01.jpg,AMSA08.jpg,AMNE05.jpg,MN,1,num_8,16,num_8,0.983480921888,,,2017_Jul_19_1530,60.0083724927,MAFE4ImagesEEG,001,200911,
AFNE01.JPG,AFNE01.JPG,AFNE01.JPG,AFNE01.JPG,AFNE01.JPG,AFNE01.JPG,,,,,,,,,1,2,12,5,,,,,,,,,,,,,,,AMNE14.jpg,AMSA02.jpg,AMSA03.jpg,AMNE12.jpg,AMSA03.jpg,MS,2,num_2,16,num_2,1.40024068338,,,2017_Jul_19_1530,60.0083724927,MAFE4ImagesEEG,001,200911,
AFNE01.JPG,AFNE01.JPG,AFNE01.JPG,AFNE01.JPG,AFNE01.JPG,AFNE01.JPG,,,,,,,,,1,3,13,9,,,,,,,,,,,,,,,AMNE14.jpg,AMNE19.jpg,AMSA13.jpg,AMSA06.jpg,AMSA06.jpg,MS,2,num_4,32,num_2,0.833460827533,,,2017_Jul_19_1530,60.0083724927,MAFE4ImagesEEG,001,200911,
AFNE01.JPG,AFNE01.JPG,AFNE01.JPG,AFNE01.JPG,AFNE01.JPG,AFNE01.JPG,,,,,,,,,1,4,14,3,,,,,,,,,,,,,,,AMNE13.jpg,AMSA03.jpg,AMSA01.jpg,AMNE01.jpg,AMSA01.jpg,MS,2,num_2,16,num_2,1.40008448294,,,2017_Jul_19_1530,60.0083724927,MAFE4ImagesEEG,001,200911,
AFNE01.JPG,AFNE01.JPG,AFNE01.JPG,AFNE01.JPG,AFNE01.JPG,AFNE01.JPG,,,,,,,,,1,5,15,1,,,,,,,,,,,,,,,AMNE18.jpg,AMNE09.jpg,AMSA15.jpg,AMSA20.jpg,AMSA15.jpg,MS,2,num_2,16,num_2,0.650130268594,,,2017_Jul_19_1530,60.0083724927,MAFE4ImagesEEG,001,200911,
AFNE01.JPG,AFNE01.JPG,AFNE01.JPG,AFNE01.JPG,AFNE01.JPG,AFNE01.JPG,,,,,,,,,1,6,16,2,,,,,,,,,,,,,,,AMNE12.jpg,AMNE02.jpg,AMSA16.jpg,AMSA20.jpg,AMNE12.jpg,MN,1,num_8,16,num_8,1.00012733383,,,2017_Jul_19_1530,60.0083724927,MAFE4ImagesEEG,001,200911,
AFNE01.JPG,AFNE01.JPG,AFNE01.JPG,AFNE01.JPG,AFNE01.JPG,AFNE01.JPG,,,,,,,,,1,7,17,8,,,,,,,,,,,,,,,AMNE04.jpg,AMNE05.jpg,AMSA14.jpg,AMSA03.jpg,AMNE05.jpg,MN,1,num_6,32,num_8,0.916820862476,,,2017_Jul_19_1530,60.0083724927,MAFE4ImagesEEG,001,200911,
AFNE01.JPG,AFNE01.JPG,AFNE01.JPG,AFNE01.JPG,AFNE01.JPG,AFNE01.JPG,,,,,,,,,1,8,18,4,,,,,,,,,,,,,,,AMSA20.jpg,AMNE11.jpg,AMNE09.jpg,AMSA08.jpg,AMNE09.jpg,MN,1,num_2,32,num_8,0.70015546275,,,2017_Jul_19_1530,60.0083724927,MAFE4ImagesEEG,001,200911,
AFNE01.JPG,AFNE01.JPG,AFNE01.JPG,AFNE01.JPG,AFNE01.JPG,AFNE01.JPG,,,,,,,,,1,9,19,0,,,,,,,,,,,,,,,AMSA19.jpg,AMSA08.jpg,AMNE13.jpg,AMNE16.jpg,AMSA19.jpg,MS,2,num_8,32,num_6,0.650128664915,,,2017_Jul_19_1530,60.0083724927,MAFE4ImagesEEG,001,200911,
AFNE01.JPG,AFNE01.JPG,AFNE01.JPG,AFNE01.JPG,AFNE01.JPG,AFNE01.JPG,,,,,,,,,2,0,20,9,,,,,,,,,,,,,,,AMNE14.jpg,AMSA11.jpg,AMNE04.jpg,AMSA05.jpg,AMSA11.jpg,MS,2,num_6,16,num_6,0.716770121391,,,2017_Jul_19_1530,60.0083724927,MAFE4ImagesEEG,001,200911,
AFNE01.JPG,AFNE01.JPG,AFNE01.JPG,AFNE01.JPG,AFNE01.JPG,AFNE01.JPG,,,,,,,,,2,1,21,1,,,,,,,,,,,,,,,AMNE19.jpg,AMSA19.jpg,AMNE12.jpg,AMSA05.jpg,AMNE19.jpg,MN,1,num_8,32,num_2,0.833519843727,,,2017_Jul_19_1530,60.0083724927,MAFE4ImagesEEG,001,200911,
AFNE01.JPG,AFNE01.JPG,AFNE01.JPG,AFNE01.JPG,AFNE01.JPG,AFNE01.JPG,,,,,,,,,2,2,22,5,,,,,,,,,,,,,,,AMSA07.jpg,AMNE08.jpg,AMNE14.jpg,AMSA02.jpg,AMNE14.jpg,MN,1,num_2,16,num_2,0.866780272831,,,2017_Jul_19_1530,60.0083724927,MAFE4ImagesEEG,001,200911,
AFNE01.JPG,AFNE01.JPG,AFNE01.JPG,AFNE01.JPG,AFNE01.JPG,AFNE01.JPG,,,,,,,,,2,3,23,2,,,,,,,,,,,,,,,AMNE09.jpg,AMNE01.jpg,AMSA18.jpg,AMSA12.jpg,AMSA18.jpg,MS,2,num_2,16,num_2,0.583299575432,,,2017_Jul_19_1530,60.0083724927,MAFE4ImagesEEG,001,200911,
AFNE01.JPG,AFNE01.JPG,AFNE01.JPG,AFNE01.JPG,AFNE01.JPG,AFNE01.JPG,,,,,,,,,2,4,24,4,,,,,,,,,,,,,,,AMNE16.jpg,AMNE17.jpg,AMSA18.jpg,AMSA10.jpg,AMSA10.jpg,MS,2,num_4,16,num_4,0.466684243205,,,2017_Jul_19_1530,60.0083724927,MAFE4ImagesEEG,001,200911,
AFNE01.JPG,AFNE01.JPG,AFNE01.JPG,AFNE01.JPG,AFNE01.JPG,AFNE01.JPG,,,,,,,,,2,5,25,8,,,,,,,,,,,,,,,AMNE12.jpg,AMNE08.jpg,AMSA01.jpg,AMSA12.jpg,AMSA12.jpg,MS,2,num_4,32,num_2,0.650114552322,,,2017_Jul_19_1530,60.0083724927,MAFE4ImagesEEG,001,200911,
AFNE01.JPG,AFNE01.JPG,AFNE01.JPG,AFNE01.JPG,AFNE01.JPG,AFNE01.JPG,,,,,,,,,2,6,26,7,,,,,,,,,,,,,,,AMNE12.jpg,AMNE17.jpg,AMSA04.jpg,AMSA06.jpg,AMNE12.jpg,MN,1,num_8,16,num_8,0.666764813155,,,2017_Jul_19_1530,60.0083724927,MAFE4ImagesEEG,001,200911,
AFNE01.JPG,AFNE01.JPG,AFNE01.JPG,AFNE01.JPG,AFNE01.JPG,AFNE01.JPG,,,,,,,,,2,7,27,0,,,,,,,,,,,,,,,AMNE09.jpg,AMSA02.jpg,AMSA08.jpg,AMNE16.jpg,AMSA02.jpg,MS,2,num_6,16,num_6,0.483438103081,,,2017_Jul_19_1530,60.0083724927,MAFE4ImagesEEG,001,200911,
AFNE01.JPG,AFNE01.JPG,AFNE01.JPG,AFNE01.JPG,AFNE01.JPG,AFNE01.JPG,,,,,,,,,2,8,28,6,,,,,,,,,,,,,,,AMNE07.jpg,AMSA20.jpg,AMSA06.jpg,AMNE15.jpg,AMNE07.jpg,MN,1,num_8,16,num_8,0.700108313933,,,2017_Jul_19_1530,60.0083724927,MAFE4ImagesEEG,001,200911,
AFNE01.JPG,AFNE01.JPG,AFNE01.JPG,AFNE01.JPG,AFNE01.JPG,AFNE01.JPG,,,,,,,,,2,9,29,3,,,,,,,,,,,,,,,AMSA08.jpg,AMNE09.jpg,AMNE17.jpg,AMSA16.jpg,AMSA16.jpg,MS,2,num_4,32,num_8,0.66663427194,,,2017_Jul_19_1530,60.0083724927,MAFE4ImagesEEG,001,200911,
AFNE01.JPG,AFNE01.JPG,AFNE01.JPG,AFNE01.JPG,AFNE01.JPG,AFNE01.JPG,,,,,,,,,3,0,30,4,,,,,,,,,,,,,,,AMSA08.jpg,AMSA11.jpg,AMNE02.jpg,AMNE09.jpg,AMSA08.jpg,MS,2,num_8,32,num_6,0.800087818643,,,2017_Jul_19_1530,60.0083724927,MAFE4ImagesEEG,001,200911,
AFNE01.JPG,AFNE01.JPG,AFNE01.JPG,AFNE01.JPG,AFNE01.JPG,AFNE01.JPG,,,,,,,,,3,1,31,3,,,,,,,,,,,,,,,AMNE08.jpg,AMNE02.jpg,AMSA11.jpg,AMSA03.jpg,AMSA11.jpg,MS,2,num_2,32,num_4,0.600132658117,,,2017_Jul_19_1530,60.0083724927,MAFE4ImagesEEG,001,200911,
AFNE01.JPG,AFNE01.JPG,AFNE01.JPG,AFNE01.JPG,AFNE01.JPG,AFNE01.JPG,,,,,,,,,3,2,32,8,,,,,,,,,,,,,,,AMNE11.jpg,AMSA20.jpg,AMNE16.jpg,AMSA16.jpg,AMNE16.jpg,MN,1,num_2,16,num_2,0.916802580265,,,2017_Jul_19_1530,60.0083724927,MAFE4ImagesEEG,001,200911,
AFNE01.JPG,AFNE01.JPG,AFNE01.JPG,AFNE01.JPG,AFNE01.JPG,AFNE01.JPG,,,,,,,,,3,3,33,9,,,,,,,,,,,,,,,AMSA19.jpg,AMNE02.jpg,AMSA15.jpg,AMNE19.jpg,AMSA15.jpg,MS,2,num_2,16,num_2,0.633438953053,,,2017_Jul_19_1530,60.0083724927,MAFE4ImagesEEG,001,200911,
AFNE01.JPG,AFNE01.JPG,AFNE01.JPG,AFNE01.JPG,AFNE01.JPG,AFNE01.JPG,,,,,,,,,3,4,34,5,,,,,,,,,,,,,,,AMNE13.jpg,AMSA05.jpg,AMSA15.jpg,AMNE04.jpg,AMSA15.jpg,MS,2,num_2,16,num_2,0.616792220389,,,2017_Jul_19_1530,60.0083724927,MAFE4ImagesEEG,001,200911,
AFNE01.JPG,AFNE01.JPG,AFNE01.JPG,AFNE01.JPG,AFNE01.JPG,AFNE01.JPG,,,,,,,,,3,5,35,6,,,,,,,,,,,,,,,AMSA02.jpg,AMNE04.jpg,AMSA13.jpg,AMNE15.jpg,AMSA02.jpg,MS,2,num_8,16,num_8,0.70015289681,,,2017_Jul_19_1530,60.0083724927,MAFE4ImagesEEG,001,200911,
AFNE01.JPG,AFNE01.JPG,AFNE01.JPG,AFNE01.JPG,AFNE01.JPG,AFNE01.JPG,,,,,,,,,3,6,36,7,,,,,,,,,,,,,,,AMNE20.jpg,AMNE13.jpg,AMSA19.jpg,AMSA11.jpg,AMSA19.jpg,MS,2,num_2,32,num_8,1.66669585402,,,2017_Jul_19_1530,60.0083724927,MAFE4ImagesEEG,001,200911,
AFNE01.JPG,AFNE01.JPG,AFNE01.JPG,AFNE01.JPG,AFNE01.JPG,AFNE01.JPG,,,,,,,,,3,7,37,1,,,,,,,,,,,,,,,AMNE05.jpg,AMSA05.jpg,AMSA01.jpg,AMNE09.jpg,AMSA01.jpg,MS,2,num_2,16,num_2,0.433536714641,,,2017_Jul_19_1530,60.0083724927,MAFE4ImagesEEG,001,200911,
AFNE01.JPG,AFNE01.JPG,AFNE01.JPG,AFNE01.JPG,AFNE01.JPG,AFNE01.JPG,,,,,,,,,3,8,38,0,,,,,,,,,,,,,,,AMSA13.jpg,AMNE09.jpg,AMNE12.jpg,AMSA12.jpg,AMSA12.jpg,MS,2,num_4,16,num_4,1.28345567966,,,2017_Jul_19_1530,60.0083724927,MAFE4ImagesEEG,001,200911,
AFNE01.JPG,AFNE01.JPG,AFNE01.JPG,AFNE01.JPG,AFNE01.JPG,AFNE01.JPG,,,,,,,,,3,9,39,2,,,,,,,,,,,,,,,AMSA02.jpg,AMSA06.jpg,AMNE01.jpg,AMNE05.jpg,AMNE05.jpg,MN,1,num_4,32,num_6,0.733142621262,,,2017_Jul_19_1530,60.0083724927,MAFE4ImagesEEG,001,200911,
AFNE01.JPG,AFNE01.JPG,AFNE01.JPG,AFNE01.JPG,AFNE01.JPG,AFNE01.JPG,,,,,,,,,4,0,40,1,,,,,,,,,,,,,,,AMNE14.jpg,AMSA20.jpg,AMSA03.jpg,AMNE08.jpg,AMNE14.jpg,MN,1,num_8,32,num_4,0.950148646982,,,2017_Jul_19_1530,60.0083724927,MAFE4ImagesEEG,001,200911,
AFNE01.JPG,AFNE01.JPG,AFNE01.JPG,AFNE01.JPG,AFNE01.JPG,AFNE01.JPG,,,,,,,,,4,1,41,9,,,,,,,,,,,,,,,AMNE19.jpg,AMSA19.jpg,AMNE07.jpg,AMSA12.jpg,AMNE07.jpg,MN,1,num_2,32,num_4,1.43339077788,,,2017_Jul_19_1530,60.0083724927,MAFE4ImagesEEG,001,200911,
AFNE01.JPG,AFNE01.JPG,AFNE01.JPG,AFNE01.JPG,AFNE01.JPG,AFNE01.JPG,,,,,,,,,4,2,42,6,,,,,,,,,,,,,,,AMNE08.jpg,AMSA15.jpg,AMNE11.jpg,AMSA06.jpg,AMNE08.jpg,MN,1,num_8,32,num_2,1.01681929085,,,2017_Jul_19_1530,60.0083724927,MAFE4ImagesEEG,001,200911,
AFNE01.JPG,AFNE01.JPG,AFNE01.JPG,AFNE01.JPG,AFNE01.JPG,AFNE01.JPG,,,,,,,,,4,3,43,8,,,,,,,,,,,,,,,AMSA05.jpg,AMNE11.jpg,AMNE12.jpg,AMSA02.jpg,AMNE11.jpg,MN,1,num_6,16,num_6,0.91679712772,,,2017_Jul_19_1530,60.0083724927,MAFE4ImagesEEG,001,200911,
AFNE01.JPG,AFNE01.JPG,AFNE01.JPG,AFNE01.JPG,AFNE01.JPG,AFNE01.JPG,,,,,,,,,4,4,44,0,,,,,,,,,,,,,,,AMNE06.jpg,AMNE16.jpg,AMSA08.jpg,AMSA11.jpg,AMNE06.jpg,MN,1,num_8,16,num_8,0.683507447102,,,2017_Jul_19_1530,60.0083724927,MAFE4ImagesEEG,001,200911,
AFNE01.JPG,AFNE01.JPG,AFNE01.JPG,AFNE01.JPG,AFNE01.JPG,AFNE01.JPG,,,,,,,,,4,5,45,3,,,,,,,,,,,,,,,AMNE20.jpg,AMSA06.jpg,AMSA07.jpg,AMNE10.jpg,AMSA06.jpg,MS,2,num_6,32,num_2,0.70019074413,,,2017_Jul_19_1530,60.0083724927,MAFE4ImagesEEG,001,200911,
AFNE01.JPG,AFNE01.JPG,AFNE01.JPG,AFNE01.JPG,AFNE01.JPG,AFNE01.JPG,,,,,,,,,4,6,46,7,,,,,,,,,,,,,,,AMNE20.jpg,AMSA02.jpg,AMSA12.jpg,AMNE14.jpg,AMSA02.jpg,MS,2,num_6,16,num_6,0.60015703438,,,2017_Jul_19_1530,60.0083724927,MAFE4ImagesEEG,001,200911,
AFNE01.JPG,AFNE01.JPG,AFNE01.JPG,AFNE01.JPG,AFNE01.JPG,AFNE01.JPG,,,,,,,,,4,7,47,4,,,,,,,,,,,,,,,AMSA04.jpg,AMNE12.jpg,AMNE08.jpg,AMSA16.jpg,AMSA04.jpg,MS,2,num_8,16,num_8,0.433468076255,,,2017_Jul_19_1530,60.0083724927,MAFE4ImagesEEG,001,200911,
AFNE01.JPG,AFNE01.JPG,AFNE01.JPG,AFNE01.JPG,AFNE01.JPG,AFNE01.JPG,,,,,,,,,4,8,48,2,,,,,,,,,,,,,,,AMNE18.jpg,AMSA05.jpg,AMSA06.jpg,AMNE08.jpg,AMNE08.jpg,MN,1,num_4,32,num_8,0.933447067771,,,2017_Jul_19_1530,60.0083724927,MAFE4ImagesEEG,001,200911,
AFNE01.JPG,AFNE01.JPG,AFNE01.JPG,AFNE01.JPG,AFNE01.JPG,AFNE01.JPG,,,,,,,,,4,9,49,5,,,,,,,,,,,,,,,AMSA19.jpg,AMNE18.jpg,AMSA16.jpg,AMNE14.jpg,AMNE14.jpg,MN,1,num_4,16,num_4,0.416811400646,,,2017_Jul_19_1530,60.0083724927,MAFE4ImagesEEG,001,200911,
AFNE01.JPG,AFNE01.JPG,AFNE01.JPG,AFNE01.JPG,AFNE01.JPG,AFNE01.JPG,,,,,,,,,5,0,50,4,,,,,,,,,,,,,,,AMNE13.jpg,AMNE03.jpg,AMSA16.jpg,AMSA01.jpg,AMNE13.jpg,MN,1,num_8,32,num_2,0.699980338628,,,2017_Jul_19_1530,60.0083724927,MAFE4ImagesEEG,001,200911,
AFNE01.JPG,AFNE01.JPG,AFNE01.JPG,AFNE01.JPG,AFNE01.JPG,AFNE01.JPG,,,,,,,,,5,1,51,6,,,,,,,,,,,,,,,AMNE15.jpg,AMSA11.jpg,AMNE19.jpg,AMSA18.jpg,AMSA11.jpg,MS,2,num_6,16,num_6,0.733447645121,,,2017_Jul_19_1530,60.0083724927,MAFE4ImagesEEG,001,200911,
AFNE01.JPG,AFNE01.JPG,AFNE01.JPG,AFNE01.JPG,AFNE01.JPG,AFNE01.JPG,,,,,,,,,5,2,52,2,,,,,,,,,,,,,,,AMNE17.jpg,AMNE10.jpg,AMSA15.jpg,AMSA08.jpg,AMNE10.jpg,MN,1,num_6,32,num_8,0.883444966923,,,2017_Jul_19_1530,60.0083724927,MAFE4ImagesEEG,001,200911,
AFNE01.JPG,AFNE01.JPG,AFNE01.JPG,AFNE01.JPG,AFNE01.JPG,AFNE01.JPG,,,,,,,,,5,3,53,5,,,,,,,,,,,,,,,AMNE12.jpg,AMNE04.jpg,AMSA12.jpg,AMSA18.jpg,AMSA18.jpg,MS,2,num_4,16,num_4,0.61683616176,,,2017_Jul_19_1530,60.0083724927,MAFE4ImagesEEG,001,200911,
AFNE01.JPG,AFNE01.JPG,AFNE01.JPG,AFNE01.JPG,AFNE01.JPG,AFNE01.JPG,,,,,,,,,5,4,54,0,,,,,,,,,,,,,,,AMSA13.jpg,AMNE08.jpg,AMNE04.jpg,AMSA08.jpg,AMSA13.jpg,MS,2,num_8,16,num_8,0.500191000727,,,2017_Jul_19_1530,60.0083724927,MAFE4ImagesEEG,001,200911,
AFNE01.JPG,AFNE01.JPG,AFNE01.JPG,AFNE01.JPG,AFNE01.JPG,AFNE01.JPG,,,,,,,,,5,5,55,9,,,,,,,,,,,,,,,AMSA11.jpg,AMSA12.jpg,AMNE11.jpg,AMNE20.jpg,AMSA11.jpg,MS,2,num_8,16,num_8,0.750091811846,,,2017_Jul_19_1530,60.0083724927,MAFE4ImagesEEG,001,200911,
AFNE01.JPG,AFNE01.JPG,AFNE01.JPG,AFNE01.JPG,AFNE01.JPG,AFNE01.JPG,,,,,,,,,5,6,56,1,,,,,,,,,,,,,,,AMNE17.jpg,AMNE05.jpg,AMSA08.jpg,AMSA18.jpg,AMNE05.jpg,MN,1,num_6,32,num_8,1.06674377259,,,2017_Jul_19_1530,60.0083724927,MAFE4ImagesEEG,001,200911,
AFNE01.JPG,AFNE01.JPG,AFNE01.JPG,AFNE01.JPG,AFNE01.JPG,AFNE01.JPG,,,,,,,,,5,7,57,8,,,,,,,,,,,,,,,AMSA20.jpg,AMNE18.jpg,AMNE20.jpg,AMSA11.jpg,AMNE18.jpg,MN,1,num_6,16,num_6,0.650120004924,,,2017_Jul_19_1530,60.0083724927,MAFE4ImagesEEG,001,200911,
AFNE01.JPG,AFNE01.JPG,AFNE01.JPG,AFNE01.JPG,AFNE01.JPG,AFNE01.JPG,,,,,,,,,5,8,58,7,,,,,,,,,,,,,,,AMSA05.jpg,AMNE18.jpg,AMNE20.jpg,AMSA09.jpg,AMNE18.jpg,MN,1,num_6,16,num_6,0.700129482779,,,2017_Jul_19_1530,60.0083724927,MAFE4ImagesEEG,001,200911,
AFNE01.JPG,AFNE01.JPG,AFNE01.JPG,AFNE01.JPG,AFNE01.JPG,AFNE01.JPG,,,,,,,,,5,9,59,3,,,,,,,,,,,,,,,AMSA04.jpg,AMSA01.jpg,AMNE14.jpg,AMNE01.jpg,AMSA01.jpg,MS,2,num_6,32,num_8,0.63349123369,,,2017_Jul_19_1530,60.0083724927,MAFE4ImagesEEG,001,200911,
,,,,,,,,,,,,,,,,,,,,,,,,,,,,,,,,,,,,,,,,,,,space,2.0166942022,2017_Jul_19_1530,60.0083724927,MAFE4ImagesEEG,001,200911,
AFNE01.JPG,AFNE01.JPG,AFNE01.JPG,AFNE01.JPG,AFNE01.JPG,AFNE01.JPG,,,,,,,,,,,,,0,0,0,4,,,,,,,,,,,AFSA07.jpg,AFNE16.jpg,AFSA15.jpg,AFNE20.jpg,AFNE16.jpg,FN,3,num_6,32,num_8,0.850110446831,,,2017_Jul_19_1530,60.0083724927,MAFE4ImagesEEG,001,200911,
AFNE01.JPG,AFNE01.JPG,AFNE01.JPG,AFNE01.JPG,AFNE01.JPG,AFNE01.JPG,,,,,,,,,,,,,0,1,1,5,,,,,,,,,,,AFSA08.jpg,AFSA11.jpg,AFNE05.jpg,AFNE11.jpg,AFNE05.jpg,FN,3,num_2,32,num_4,0.766786976281,,,2017_Jul_19_1530,60.0083724927,MAFE4ImagesEEG,001,200911,
AFNE01.JPG,AFNE01.JPG,AFNE01.JPG,AFNE01.JPG,AFNE01.JPG,AFNE01.JPG,,,,,,,,,,,,,0,2,2,0,,,,,,,,,,,AFNE04.jpg,AFNE03.jpg,AFSA16.jpg,AFSA10.jpg,AFNE03.jpg,FN,3,num_6,16,num_6,1.06673222594,,,2017_Jul_19_1530,60.0083724927,MAFE4ImagesEEG,001,200911,
AFNE01.JPG,AFNE01.JPG,AFNE01.JPG,AFNE01.JPG,AFNE01.JPG,AFNE01.JPG,,,,,,,,,,,,,0,3,3,3,,,,,,,,,,,AFSA13.jpg,AFNE08.jpg,AFNE18.jpg,AFSA03.jpg,AFNE18.jpg,FN,3,num_2,32,num_8,0.850169783778,,,2017_Jul_19_1530,60.0083724927,MAFE4ImagesEEG,001,200911,
AFNE01.JPG,AFNE01.JPG,AFNE01.JPG,AFNE01.JPG,AFNE01.JPG,AFNE01.JPG,,,,,,,,,,,,,0,4,4,2,,,,,,,,,,,AFNE08.jpg,AFNE15.jpg,AFSA11.jpg,AFSA08.jpg,AFNE08.jpg,FN,3,num_8,32,num_4,1.26674768561,,,2017_Jul_19_1530,60.0083724927,MAFE4ImagesEEG,001,200911,
AFNE01.JPG,AFNE01.JPG,AFNE01.JPG,AFNE01.JPG,AFNE01.JPG,AFNE01.JPG,,,,,,,,,,,,,0,5,5,9,,,,,,,,,,,AFSA16.jpg,AFNE18.jpg,AFSA09.jpg,AFNE01.jpg,AFNE18.jpg,FN,3,num_6,16,num_6,0.883272088016,,,2017_Jul_19_1530,60.0083724927,MAFE4ImagesEEG,001,200911,
AFNE01.JPG,AFNE01.JPG,AFNE01.JPG,AFNE01.JPG,AFNE01.JPG,AFNE01.JPG,,,,,,,,,,,,,0,6,6,7,,,,,,,,,,,AFSA16.jpg,AFSA12.jpg,AFNE10.jpg,AFNE06.jpg,AFSA16.jpg,FS,4,num_8,16,num_8,0.616850274353,,,2017_Jul_19_1530,60.0083724927,MAFE4ImagesEEG,001,200911,
AFNE01.JPG,AFNE01.JPG,AFNE01.JPG,AFNE01.JPG,AFNE01.JPG,AFNE01.JPG,,,,,,,,,,,,,0,7,7,8,,,,,,,,,,,AFSA03.jpg,AFNE09.jpg,AFNE17.jpg,AFSA06.jpg,AFSA06.jpg,FS,4,num_4,16,num_4,0.73346304064,,,2017_Jul_19_1530,60.0083724927,MAFE4ImagesEEG,001,200911,
AFNE01.JPG,AFNE01.JPG,AFNE01.JPG,AFNE01.JPG,AFNE01.JPG,AFNE01.JPG,,,,,,,,,,,,,0,8,8,6,,,,,,,,,,,AFSA09.jpg,AFSA12.jpg,AFNE20.jpg,AFNE09.jpg,AFSA12.jpg,FS,4,num_6,16,num_6,0.516787697939,,,2017_Jul_19_1530,60.0083724927,MAFE4ImagesEEG,001,200911,
AFNE01.JPG,AFNE01.JPG,AFNE01.JPG,AFNE01.JPG,AFNE01.JPG,AFNE01.JPG,,,,,,,,,,,,,0,9,9,1,,,,,,,,,,,AFNE11.jpg,AFNE19.jpg,AFSA16.jpg,AFSA18.jpg,AFSA16.jpg,FS,4,num_2,32,num_4,0.50012749419,,,2017_Jul_19_1530,60.0083724927,MAFE4ImagesEEG,001,200911,
AFNE01.JPG,AFNE01.JPG,AFNE01.JPG,AFNE01.JPG,AFNE01.JPG,AFNE01.JPG,,,,,,,,,,,,,1,0,10,8,,,,,,,,,,,AFNE04.jpg,AFSA08.jpg,AFNE20.jpg,AFSA17.jpg,AFNE20.jpg,FN,3,num_2,32,num_8,0.900166111329,,,2017_Jul_19_1530,60.0083724927,MAFE4ImagesEEG,001,200911,
AFNE01.JPG,AFNE01.JPG,AFNE01.JPG,AFNE01.JPG,AFNE01.JPG,AFNE01.JPG,,,,,,,,,,,,,1,1,11,7,,,,,,,,,,,AFNE17.jpg,AFSA08.jpg,AFNE08.jpg,AFSA07.jpg,AFNE17.jpg,FN,3,num_8,32,num_4,0.833439017209,,,2017_Jul_19_1530,60.0083724927,MAFE4ImagesEEG,001,200911,
AFNE01.JPG,AFNE01.JPG,AFNE01.JPG,AFNE01.JPG,AFNE01.JPG,AFNE01.JPG,,,,,,,,,,,,,1,2,12,6,,,,,,,,,,,AFNE13.jpg,AFSA04.jpg,AFNE01.jpg,AFSA13.jpg,AFNE01.jpg,FN,3,num_2,32,num_8,0.766771260038,,,2017_Jul_19_1530,60.0083724927,MAFE4ImagesEEG,001,200911,
AFNE01.JPG,AFNE01.JPG,AFNE01.JPG,AFNE01.JPG,AFNE01.JPG,AFNE01.JPG,,,,,,,,,,,,,1,3,13,1,,,,,,,,,,,AFSA19.jpg,AFNE07.jpg,AFNE20.jpg,AFSA18.jpg,AFNE07.jpg,FN,3,num_6,16,num_6,0.800120213389,,,2017_Jul_19_1530,60.0083724927,MAFE4ImagesEEG,001,200911,
AFNE01.JPG,AFNE01.JPG,AFNE01.JPG,AFNE01.JPG,AFNE01.JPG,AFNE01.JPG,,,,,,,,,,,,,1,4,14,3,,,,,,,,,,,AFNE15.jpg,AFSA09.jpg,AFNE03.jpg,AFSA04.jpg,AFSA09.jpg,FS,4,num_6,32,num_2,0.716774611763,,,2017_Jul_19_1530,60.0083724927,MAFE4ImagesEEG,001,200911,
AFNE01.JPG,AFNE01.JPG,AFNE01.JPG,AFNE01.JPG,AFNE01.JPG,AFNE01.JPG,,,,,,,,,,,,,1,5,15,0,,,,,,,,,,,AFSA11.jpg,AFNE10.jpg,AFNE07.jpg,AFSA02.jpg,AFNE07.jpg,FN,3,num_2,32,num_6,0.633504384023,,,2017_Jul_19_1530,60.0083724927,MAFE4ImagesEEG,001,200911,
AFNE01.JPG,AFNE01.JPG,AFNE01.JPG,AFNE01.JPG,AFNE01.JPG,AFNE01.JPG,,,,,,,,,,,,,1,6,16,4,,,,,,,,,,,AFNE02.jpg,AFSA18.jpg,AFSA19.jpg,AFNE08.jpg,AFNE02.jpg,FN,3,num_8,16,num_8,1.1501243349,,,2017_Jul_19_1530,60.0083724927,MAFE4ImagesEEG,001,200911,
AFNE01.JPG,AFNE01.JPG,AFNE01.JPG,AFNE01.JPG,AFNE01.JPG,AFNE01.JPG,,,,,,,,,,,,,1,7,17,5,,,,,,,,,,,AFNE04.jpg,AFSA06.jpg,AFNE08.jpg,AFSA13.jpg,AFSA06.jpg,FS,4,num_6,32,num_4,0.950134534447,,,2017_Jul_19_1530,60.0083724927,MAFE4ImagesEEG,001,200911,
AFNE01.JPG,AFNE01.JPG,AFNE01.JPG,AFNE01.JPG,AFNE01.JPG,AFNE01.JPG,,,,,,,,,,,,,1,8,18,9,,,,,,,,,,,AFSA04.jpg,AFNE06.jpg,AFSA14.jpg,AFNE02.jpg,AFNE06.jpg,FN,3,num_6,16,num_6,0.700117294677,,,2017_Jul_19_1530,60.0083724927,MAFE4ImagesEEG,001,200911,
AFNE01.JPG,AFNE01.JPG,AFNE01.JPG,AFNE01.JPG,AFNE01.JPG,AFNE01.JPG,,,,,,,,,,,,,1,9,19,2,,,,,,,,,,,AFNE07.jpg,AFNE02.jpg,AFSA11.jpg,AFSA13.jpg,AFSA11.jpg,FS,4,num_2,32,num_4,0.566739121859,,,2017_Jul_19_1530,60.0083724927,MAFE4ImagesEEG,001,200911,
AFNE01.JPG,AFNE01.JPG,AFNE01.JPG,AFNE01.JPG,AFNE01.JPG,AFNE01.JPG,,,,,,,,,,,,,2,0,20,1,,,,,,,,,,,AFNE03.jpg,AFNE20.jpg,AFSA20.jpg,AFSA14.jpg,AFNE20.jpg,FN,3,num_6,16,num_6,0.650095628662,,,2017_Jul_19_1530,60.0083724927,MAFE4ImagesEEG,001,200911,
AFNE01.JPG,AFNE01.JPG,AFNE01.JPG,AFNE01.JPG,AFNE01.JPG,AFNE01.JPG,,,,,,,,,,,,,2,1,21,3,,,,,,,,,,,AFSA01.jpg,AFNE07.jpg,AFSA20.jpg,AFNE20.jpg,AFNE20.jpg,FN,3,num_4,16,num_4,0.600104753714,,,2017_Jul_19_1530,60.0083724927,MAFE4ImagesEEG,001,200911,
AFNE01.JPG,AFNE01.JPG,AFNE01.JPG,AFNE01.JPG,AFNE01.JPG,AFNE01.JPG,,,,,,,,,,,,,2,2,22,5,,,,,,,,,,,AFSA04.jpg,AFSA02.jpg,AFNE19.jpg,AFNE05.jpg,AFNE05.jpg,FN,3,num_4,16,num_4,0.766773825948,,,2017_Jul_19_1530,60.0083724927,MAFE4ImagesEEG,001,200911,
AFNE01.JPG,AFNE01.JPG,AFNE01.JPG,AFNE01.JPG,AFNE01.JPG,AFNE01.JPG,,,,,,,,,,,,,2,3,23,0,,,,,,,,,,,AFSA08.jpg,AFSA03.jpg,AFNE08.jpg,AFNE12.jpg,AFSA08.jpg,FS,4,num_8,32,num_6,1.11672213869,,,2017_Jul_19_1530,60.0083724927,MAFE4ImagesEEG,001,200911,
AFNE01.JPG,AFNE01.JPG,AFNE01.JPG,AFNE01.JPG,AFNE01.JPG,AFNE01.JPG,,,,,,,,,,,,,2,4,24,4,,,,,,,,,,,AFSA05.jpg,AFNE19.jpg,AFNE06.jpg,AFSA19.jpg,AFNE19.jpg,FN,3,num_6,16,num_6,0.950160193635,,,2017_Jul_19_1530,60.0083724927,MAFE4ImagesEEG,001,200911,
AFNE01.JPG,AFNE01.JPG,AFNE01.JPG,AFNE01.JPG,AFNE01.JPG,AFNE01.JPG,,,,,,,,,,,,,2,5,25,6,,,,,,,,,,,AFNE03.jpg,AFSA20.jpg,AFNE18.jpg,AFSA19.jpg,AFSA19.jpg,FS,4,num_4,16,num_4,0.983761248761,,,2017_Jul_19_1530,60.0083724927,MAFE4ImagesEEG,001,200911,
AFNE01.JPG,AFNE01.JPG,AFNE01.JPG,AFNE01.JPG,AFNE01.JPG,AFNE01.JPG,,,,,,,,,,,,,2,6,26,9,,,,,,,,,,,AFNE18.jpg,AFNE20.jpg,AFSA14.jpg,AFSA10.jpg,AFSA10.jpg,FS,4,num_4,16,num_4,0.500162134122,,,2017_Jul_19_1530,60.0083724927,MAFE4ImagesEEG,001,200911,
AFNE01.JPG,AFNE01.JPG,AFNE01.JPG,AFNE01.JPG,AFNE01.JPG,AFNE01.JPG,,,,,,,,,,,,,2,7,27,2,,,,,,,,,,,AFNE09.jpg,AFNE04.jpg,AFSA03.jpg,AFSA17.jpg,AFNE09.jpg,FN,3,num_8,16,num_8,0.650131230796,,,2017_Jul_19_1530,60.0083724927,MAFE4ImagesEEG,001,200911,
AFNE01.JPG,AFNE01.JPG,AFNE01.JPG,AFNE01.JPG,AFNE01.JPG,AFNE01.JPG,,,,,,,,,,,,,2,8,28,8,,,,,,,,,,,AFNE17.jpg,AFSA20.jpg,AFNE05.jpg,AFSA09.jpg,AFSA20.jpg,FS,4,num_6,32,num_4,0.783426652662,,,2017_Jul_19_1530,60.0083724927,MAFE4ImagesEEG,001,200911,
AFNE01.JPG,AFNE01.JPG,AFNE01.JPG,AFNE01.JPG,AFNE01.JPG,AFNE01.JPG,,,,,,,,,,,,,2,9,29,7,,,,,,,,,,,AFSA07.jpg,AFNE18.jpg,AFNE10.jpg,AFSA16.jpg,AFNE18.jpg,FN,3,num_6,32,num_2,0.783462254796,,,2017_Jul_19_1530,60.0083724927,MAFE4ImagesEEG,001,200911,
AFNE01.JPG,AFNE01.JPG,AFNE01.JPG,AFNE01.JPG,AFNE01.JPG,AFNE01.JPG,,,,,,,,,,,,,3,0,30,1,,,,,,,,,,,AFNE18.jpg,AFSA08.jpg,AFNE01.jpg,AFSA06.jpg,AFNE01.jpg,FN,3,num_2,32,num_4,0.983318627405,,,2017_Jul_19_1530,60.0083724927,MAFE4ImagesEEG,001,200911,
AFNE01.JPG,AFNE01.JPG,AFNE01.JPG,AFNE01.JPG,AFNE01.JPG,AFNE01.JPG,,,,,,,,,,,,,3,1,31,0,,,,,,,,,,,AFNE06.jpg,AFNE04.jpg,AFSA18.jpg,AFSA20.jpg,AFNE04.jpg,FN,3,num_6,16,num_6,0.550133443932,,,2017_Jul_19_1530,60.0083724927,MAFE4ImagesEEG,001,200911,
AFNE01.JPG,AFNE01.JPG,AFNE01.JPG,AFNE01.JPG,AFNE01.JPG,AFNE01.JPG,,,,,,,,,,,,,3,2,32,6,,,,,,,,,,,AFNE11.jpg,AFNE09.jpg,AFSA09.jpg,AFSA13.jpg,AFSA13.jpg,FS,4,num_4,16,num_4,0.483466007485,,,2017_Jul_19_1530,60.0083724927,MAFE4ImagesEEG,001,200911,
AFNE01.JPG,AFNE01.JPG,AFNE01.JPG,AFNE01.JPG,AFNE01.JPG,AFNE01.JPG,,,,,,,,,,,,,3,3,33,8,,,,,,,,,,,AFSA06.jpg,AFSA05.jpg,AFNE19.jpg,AFNE10.jpg,AFNE10.jpg,FN,3,num_4,32,num_8,1.00010167461,,,2017_Jul_19_1530,60.0083724927,MAFE4ImagesEEG,001,200911,
AFNE01.JPG,AFNE01.JPG,AFNE01.JPG,AFNE01.JPG,AFNE01.JPG,AFNE01.JPG,,,,,,,,,,,,,3,4,34,5,,,,,,,,,,,AFSA11.jpg,AFSA09.jpg,AFNE14.jpg,AFNE09.jpg,AFNE14.jpg,FN,3,num_2,32,num_4,0.450112884486,,,2017_Jul_19_1530,60.0083724927,MAFE4ImagesEEG,001,200911,
AFNE01.JPG,AFNE01.JPG,AFNE01.JPG,AFNE01.JPG,AFNE01.JPG,AFNE01.JPG,,,,,,,,,,,,,3,5,35,7,,,,,,,,,,,AFNE03.jpg,AFNE14.jpg,AFSA04.jpg,AFSA02.jpg,AFSA02.jpg,FS,4,num_4,16,num_4,1.36670987034,,,2017_Jul_19_1530,60.0083724927,MAFE4ImagesEEG,001,200911,
AFNE01.JPG,AFNE01.JPG,AFNE01.JPG,AFNE01.JPG,AFNE01.JPG,AFNE01.JPG,,,,,,,,,,,,,3,6,36,4,,,,,,,,,,,AFSA09.jpg,AFNE12.jpg,AFSA13.jpg,AFNE16.jpg,AFSA13.jpg,FS,4,num_2,16,num_2,0.516786415013,,,2017_Jul_19_1530,60.0083724927,MAFE4ImagesEEG,001,200911,
AFNE01.JPG,AFNE01.JPG,AFNE01.JPG,AFNE01.JPG,AFNE01.JPG,AFNE01.JPG,,,,,,,,,,,,,3,7,37,9,,,,,,,,,,,AFNE17.jpg,AFSA08.jpg,AFNE09.jpg,AFSA16.jpg,AFSA16.jpg,FS,4,num_4,16,num_4,0.516804697196,,,2017_Jul_19_1530,60.0083724927,MAFE4ImagesEEG,001,200911,
AFNE01.JPG,AFNE01.JPG,AFNE01.JPG,AFNE01.JPG,AFNE01.JPG,AFNE01.JPG,,,,,,,,,,,,,3,8,38,3,,,,,,,,,,,AFSA06.jpg,AFNE09.jpg,AFNE05.jpg,AFSA03.jpg,AFSA03.jpg,FS,4,num_4,16,num_4,0.400205722719,,,2017_Jul_19_1530,60.0083724927,MAFE4ImagesEEG,001,200911,
AFNE01.JPG,AFNE01.JPG,AFNE01.JPG,AFNE01.JPG,AFNE01.JPG,AFNE01.JPG,,,,,,,,,,,,,3,9,39,2,,,,,,,,,,,AFNE02.jpg,AFNE05.jpg,AFSA14.jpg,AFSA13.jpg,AFNE05.jpg,FN,3,num_6,32,num_8,0.783451349649,,,2017_Jul_19_1530,60.0083724927,MAFE4ImagesEEG,001,200911,
AFNE01.JPG,AFNE01.JPG,AFNE01.JPG,AFNE01.JPG,AFNE01.JPG,AFNE01.JPG,,,,,,,,,,,,,4,0,40,3,,,,,,,,,,,AFNE06.jpg,AFNE04.jpg,AFSA06.jpg,AFSA12.jpg,AFSA06.jpg,FS,4,num_2,32,num_8,0.700129482779,,,2017_Jul_19_1530,60.0083724927,MAFE4ImagesEEG,001,200911,
AFNE01.JPG,AFNE01.JPG,AFNE01.JPG,AFNE01.JPG,AFNE01.JPG,AFNE01.JPG,,,,,,,,,,,,,4,1,41,0,,,,,,,,,,,AFSA02.jpg,AFNE16.jpg,AFSA18.jpg,AFNE08.jpg,AFSA18.jpg,FS,4,num_2,32,num_8,0.466671413626,,,2017_Jul_19_1530,60.0083724927,MAFE4ImagesEEG,001,200911,
AFNE01.JPG,AFNE01.JPG,AFNE01.JPG,AFNE01.JPG,AFNE01.JPG,AFNE01.JPG,,,,,,,,,,,,,4,2,42,1,,,,,,,,,,,AFNE01.jpg,AFNE04.jpg,AFSA01.jpg,AFSA19.jpg,AFNE04.jpg,FN,3,num_6,32,num_8,0.883520661591,,,2017_Jul_19_1530,60.0083724927,MAFE4ImagesEEG,001,200911,
AFNE01.JPG,AFNE01.JPG,AFNE01.JPG,AFNE01.JPG,AFNE01.JPG,AFNE01.JPG,,,,,,,,,,,,,4,3,43,4,,,,,,,,,,,AFNE05.jpg,AFSA14.jpg,AFNE15.jpg,AFSA02.jpg,AFSA02.jpg,FS,4,num_4,16,num_4,1.10007540599,,,2017_Jul_19_1530,60.0083724927,MAFE4ImagesEEG,001,200911,
AFNE01.JPG,AFNE01.JPG,AFNE01.JPG,AFNE01.JPG,AFNE01.JPG,AFNE01.JPG,,,,,,,,,,,,,4,4,44,6,,,,,,,,,,,AFSA03.jpg,AFSA19.jpg,AFNE07.jpg,AFNE06.jpg,AFSA03.jpg,FS,4,num_8,32,num_6,0.833478468237,,,2017_Jul_19_1530,60.0083724927,MAFE4ImagesEEG,001,200911,
AFNE01.JPG,AFNE01.JPG,AFNE01.JPG,AFNE01.JPG,AFNE01.JPG,AFNE01.JPG,,,,,,,,,,,,,4,5,45,9,,,,,,,,,,,AFNE08.jpg,AFNE01.jpg,AFSA05.jpg,AFSA18.jpg,AFSA05.jpg,FS,4,num_2,16,num_2,0.933421408583,,,2017_Jul_19_1530,60.0083724927,MAFE4ImagesEEG,001,200911,
AFNE01.JPG,AFNE01.JPG,AFNE01.JPG,AFNE01.JPG,AFNE01.JPG,AFNE01.JPG,,,,,,,,,,,,,4,6,46,8,,,,,,,,,,,AFSA18.jpg,AFNE18.jpg,AFSA05.jpg,AFNE19.jpg,AFSA05.jpg,FS,4,num_2,16,num_2,0.700134293875,,,2017_Jul_19_1530,60.0083724927,MAFE4ImagesEEG,001,200911,
AFNE01.JPG,AFNE01.JPG,AFNE01.JPG,AFNE01.JPG,AFNE01.JPG,AFNE01.JPG,,,,,,,,,,,,,4,7,47,7,,,,,,,,,,,AFNE13.jpg,AFNE03.jpg,AFSA06.jpg,AFSA12.jpg,AFSA12.jpg,FS,4,num_4,32,num_6,1.38340311035,,,2017_Jul_19_1530,60.0083724927,MAFE4ImagesEEG,001,200911,
AFNE01.JPG,AFNE01.JPG,AFNE01.JPG,AFNE01.JPG,AFNE01.JPG,AFNE01.JPG,,,,,,,,,,,,,4,8,48,2,,,,,,,,,,,AFSA20.jpg,AFNE03.jpg,AFNE20.jpg,AFSA01.jpg,AFSA20.jpg,FS,4,num_8,32,num_6,1.11710863048,,,2017_Jul_19_1530,60.0083724927,MAFE4ImagesEEG,001,200911,
AFNE01.JPG,AFNE01.JPG,AFNE01.JPG,AFNE01.JPG,AFNE01.JPG,AFNE01.JPG,,,,,,,,,,,,,4,9,49,5,,,,,,,,,,,AFSA12.jpg,AFNE13.jpg,AFNE10.jpg,AFSA10.jpg,AFNE10.jpg,FN,3,num_2,32,num_6,0.766719941603,,,2017_Jul_19_1530,60.0083724927,MAFE4ImagesEEG,001,200911,
AFNE01.JPG,AFNE01.JPG,AFNE01.JPG,AFNE01.JPG,AFNE01.JPG,AFNE01.JPG,,,,,,,,,,,,,5,0,50,3,,,,,,,,,,,AFNE18.jpg,AFNE19.jpg,AFSA11.jpg,AFSA03.jpg,AFNE18.jpg,FN,3,num_8,32,num_6,1.1001209511,,,2017_Jul_19_1530,60.0083724927,MAFE4ImagesEEG,001,200911,
AFNE01.JPG,AFNE01.JPG,AFNE01.JPG,AFNE01.JPG,AFNE01.JPG,AFNE01.JPG,,,,,,,,,,,,,5,1,51,6,,,,,,,,,,,AFSA15.jpg,AFSA08.jpg,AFNE03.jpg,AFNE02.jpg,AFSA15.jpg,FS,4,num_8,16,num_8,0.633481290744,,,2017_Jul_19_1530,60.0083724927,MAFE4ImagesEEG,001,200911,
AFNE01.JPG,AFNE01.JPG,AFNE01.JPG,AFNE01.JPG,AFNE01.JPG,AFNE01.JPG,,,,,,,,,,,,,5,2,52,9,,,,,,,,,,,AFSA19.jpg,AFNE04.jpg,AFSA03.jpg,AFNE14.jpg,AFNE14.jpg,FN,3,num_4,32,num_6,1.15009643053,,,2017_Jul_19_1530,60.0083724927,MAFE4ImagesEEG,001,200911,
AFNE01.JPG,AFNE01.JPG,AFNE01.JPG,AFNE01.JPG,AFNE01.JPG,AFNE01.JPG,,,,,,,,,,,,,5,3,53,5,,,,,,,,,,,AFSA14.jpg,AFNE20.jpg,AFNE14.jpg,AFSA01.jpg,AFSA14.jpg,FS,4,num_8,16,num_8,0.85012167276,,,2017_Jul_19_1530,60.0083724927,MAFE4ImagesEEG,001,200911,
AFNE01.JPG,AFNE01.JPG,AFNE01.JPG,AFNE01.JPG,AFNE01.JPG,AFNE01.JPG,,,,,,,,,,,,,5,4,54,0,,,,,,,,,,,AFNE10.jpg,AFSA16.jpg,AFSA12.jpg,AFNE05.jpg,AFNE10.jpg,FN,3,num_8,16,num_8,0.700147444237,,,2017_Jul_19_1530,60.0083724927,MAFE4ImagesEEG,001,200911,
AFNE01.JPG,AFNE01.JPG,AFNE01.JPG,AFNE01.JPG,AFNE01.JPG,AFNE01.JPG,,,,,,,,,,,,,5,5,55,2,,,,,,,,,,,AFSA18.jpg,AFSA02.jpg,AFNE16.jpg,AFNE12.jpg,AFSA02.jpg,FS,4,num_6,32,num_8,0.550156857935,,,2017_Jul_19_1530,60.0083724927,MAFE4ImagesEEG,001,200911,
AFNE01.JPG,AFNE01.JPG,AFNE01.JPG,AFNE01.JPG,AFNE01.JPG,AFNE01.JPG,,,,,,,,,,,,,5,6,56,7,,,,,,,,,,,AFNE09.jpg,AFSA08.jpg,AFNE08.jpg,AFSA16.jpg,AFSA16.jpg,FS,4,num_4,16,num_4,0.683447789459,,,2017_Jul_19_1530,60.0083724927,MAFE4ImagesEEG,001,200911,
AFNE01.JPG,AFNE01.JPG,AFNE01.JPG,AFNE01.JPG,AFNE01.JPG,AFNE01.JPG,,,,,,,,,,,,,5,7,57,8,,,,,,,,,,,AFSA10.jpg,AFNE09.jpg,AFNE13.jpg,AFSA20.jpg,AFSA10.jpg,FS,4,num_8,16,num_8,0.533485428285,,,2017_Jul_19_1530,60.0083724927,MAFE4ImagesEEG,001,200911,
AFNE01.JPG,AFNE01.JPG,AFNE01.JPG,AFNE01.JPG,AFNE01.JPG,AFNE01.JPG,,,,,,,,,,,,,5,8,58,1,,,,,,,,,,,AFSA09.jpg,AFSA08.jpg,AFNE10.jpg,AFNE01.jpg,AFNE10.jpg,FN,3,num_2,16,num_2,0.533453033539,,,2017_Jul_19_1530,60.0083724927,MAFE4ImagesEEG,001,200911,
AFNE01.JPG,AFNE01.JPG,AFNE01.JPG,AFNE01.JPG,AFNE01.JPG,AFNE01.JPG,,,,,,,,,,,,,5,9,59,4,,,,,,,,,,,AFSA02.jpg,AFNE09.jpg,AFSA20.jpg,AFNE11.jpg,AFNE11.jpg,FN,3,num_4,16,num_4,0.866748840286,,,2017_Jul_19_1530,60.0083724927,MAFE4ImagesEEG,001,200911,
,,,,,,,,,,,,,,,,,,,,,,,,,,,,,,,,,,,,,,,,,,,space,11.5489508751,2017_Jul_19_1530,60.0083724927,MAFE4ImagesEEG,001,200911,
AFNE01.JPG,AFNE01.JPG,AFNE01.JPG,AFNE01.JPG,AFNE01.JPG,AFNE01.JPG,,,,,,,,,,,,,,,,,0,0,0,0,,,,,,,AMNE04.jpg,AMSA12.jpg,AMNE15.jpg,AMSA19.jpg,AMNE15.jpg,MN,1,num_2,16,num_2,0.900106132904,,,2017_Jul_19_1530,60.0083724927,MAFE4ImagesEEG,001,200911,
AFNE01.JPG,AFNE01.JPG,AFNE01.JPG,AFNE01.JPG,AFNE01.JPG,AFNE01.JPG,,,,,,,,,,,,,,,,,0,1,1,1,,,,,,,AMSA02.jpg,AMNE06.jpg,AMNE07.jpg,AMSA14.jpg,AMSA02.jpg,MS,2,num_8,16,num_8,0.700120181311,,,2017_Jul_19_1530,60.0083724927,MAFE4ImagesEEG,001,200911,
AFNE01.JPG,AFNE01.JPG,AFNE01.JPG,AFNE01.JPG,AFNE01.JPG,AFNE01.JPG,,,,,,,,,,,,,,,,,0,2,2,4,,,,,,,AMSA18.jpg,AMSA04.jpg,AMNE02.jpg,AMNE08.jpg,AMNE02.jpg,MN,1,num_2,32,num_6,0.566792364698,,,2017_Jul_19_1530,60.0083724927,MAFE4ImagesEEG,001,200911,
AFNE01.JPG,AFNE01.JPG,AFNE01.JPG,AFNE01.JPG,AFNE01.JPG,AFNE01.JPG,,,,,,,,,,,,,,,,,0,3,3,5,,,,,,,AMNE12.jpg,AMSA02.jpg,AMNE13.jpg,AMSA18.jpg,AMSA18.jpg,MS,2,num_4,16,num_4,0.416673161671,,,2017_Jul_19_1530,60.0083724927,MAFE4ImagesEEG,001,200911,
AFNE01.JPG,AFNE01.JPG,AFNE01.JPG,AFNE01.JPG,AFNE01.JPG,AFNE01.JPG,,,,,,,,,,,,,,,,,0,4,4,8,,,,,,,AMNE18.jpg,AMSA20.jpg,AMNE09.jpg,AMSA18.jpg,AMNE09.jpg,MN,1,num_2,16,num_2,0.616807615908,,,2017_Jul_19_1530,60.0083724927,MAFE4ImagesEEG,001,200911,
AFNE01.JPG,AFNE01.JPG,AFNE01.JPG,AFNE01.JPG,AFNE01.JPG,AFNE01.JPG,,,,,,,,,,,,,,,,,0,5,5,3,,,,,,,AMNE12.jpg,AMSA16.jpg,AMNE13.jpg,AMSA18.jpg,AMSA16.jpg,MS,2,num_6,32,num_2,1.10008214152,,,2017_Jul_19_1530,60.0083724927,MAFE4ImagesEEG,001,200911,
AFNE01.JPG,AFNE01.JPG,AFNE01.JPG,AFNE01.JPG,AFNE01.JPG,AFNE01.JPG,,,,,,,,,,,,,,,,,0,6,6,6,,,,,,,AMNE16.jpg,AMSA02.jpg,AMSA14.jpg,AMNE15.jpg,AMNE15.jpg,MN,1,num_4,16,num_4,1.36676824506,,,2017_Jul_19_1530,60.0083724927,MAFE4ImagesEEG,001,200911,
AFNE01.JPG,AFNE01.JPG,AFNE01.JPG,AFNE01.JPG,AFNE01.JPG,AFNE01.JPG,,,,,,,,,,,,,,,,,0,7,7,9,,,,,,,AMNE01.jpg,AMSA10.jpg,AMSA20.jpg,AMNE20.jpg,AMNE01.jpg,MN,1,num_8,16,num_8,0.733527830133,,,2017_Jul_19_1530,60.0083724927,MAFE4ImagesEEG,001,200911,
AFNE01.JPG,AFNE01.JPG,AFNE01.JPG,AFNE01.JPG,AFNE01.JPG,AFNE01.JPG,,,,,,,,,,,,,,,,,0,8,8,7,,,,,,,AMSA09.jpg,AMSA19.jpg,AMNE08.jpg,AMNE09.jpg,AMSA09.jpg,MS,2,num_8,16,num_8,0.716796422086,,,2017_Jul_19_1530,60.0083724927,MAFE4ImagesEEG,001,200911,
AFNE01.JPG,AFNE01.JPG,AFNE01.JPG,AFNE01.JPG,AFNE01.JPG,AFNE01.JPG,,,,,,,,,,,,,,,,,0,9,9,2,,,,,,,AMNE01.jpg,AMNE19.jpg,AMSA12.jpg,AMSA07.jpg,AMSA07.jpg,MS,2,num_4,16,num_4,0.533466825378,,,2017_Jul_19_1530,60.0083724927,MAFE4ImagesEEG,001,200911,
AFNE01.JPG,AFNE01.JPG,AFNE01.JPG,AFNE01.JPG,AFNE01.JPG,AFNE01.JPG,,,,,,,,,,,,,,,,,1,0,10,3,,,,,,,AMNE10.jpg,AMNE03.jpg,AMSA18.jpg,AMSA11.jpg,AMNE03.jpg,MN,1,num_6,16,num_6,0.433491811011,,,2017_Jul_19_1530,60.0083724927,MAFE4ImagesEEG,001,200911,
AFNE01.JPG,AFNE01.JPG,AFNE01.JPG,AFNE01.JPG,AFNE01.JPG,AFNE01.JPG,,,,,,,,,,,,,,,,,1,1,11,9,,,,,,,AMNE13.jpg,AMSA14.jpg,AMNE05.jpg,AMSA04.jpg,AMSA04.jpg,MS,2,num_4,16,num_4,0.716772045824,,,2017_Jul_19_1530,60.0083724927,MAFE4ImagesEEG,001,200911,
AFNE01.JPG,AFNE01.JPG,AFNE01.JPG,AFNE01.JPG,AFNE01.JPG,AFNE01.JPG,,,,,,,,,,,,,,,,,1,2,12,7,,,,,,,AMSA08.jpg,AMSA20.jpg,AMNE05.jpg,AMNE03.jpg,AMSA20.jpg,MS,2,num_6,16,num_6,0.516798923869,,,2017_Jul_19_1530,60.0083724927,MAFE4ImagesEEG,001,200911,
AFNE01.JPG,AFNE01.JPG,AFNE01.JPG,AFNE01.JPG,AFNE01.JPG,AFNE01.JPG,,,,,,,,,,,,,,,,,1,3,13,8,,,,,,,AMSA12.jpg,AMSA11.jpg,AMNE13.jpg,AMNE16.jpg,AMNE13.jpg,MN,1,num_2,32,num_8,0.700107672455,,,2017_Jul_19_1530,60.0083724927,MAFE4ImagesEEG,001,200911,
AFNE01.JPG,AFNE01.JPG,AFNE01.JPG,AFNE01.JPG,AFNE01.JPG,AFNE01.JPG,,,,,,,,,,,,,,,,,1,4,14,5,,,,,,,AMNE18.jpg,AMSA16.jpg,AMNE19.jpg,AMSA05.jpg,AMNE18.jpg,MN,1,num_8,16,num_8,0.7835677783,,,2017_Jul_19_1530,60.0083724927,MAFE4ImagesEEG,001,200911,
AFNE01.JPG,AFNE01.JPG,AFNE01.JPG,AFNE01.JPG,AFNE01.JPG,AFNE01.JPG,,,,,,,,,,,,,,,,,1,5,15,2,,,,,,,AMNE05.jpg,AMNE12.jpg,AMSA03.jpg,AMSA17.jpg,AMNE12.jpg,MN,1,num_6,32,num_8,0.766441539192,,,2017_Jul_19_1530,60.0083724927,MAFE4ImagesEEG,001,200911,
AFNE01.JPG,AFNE01.JPG,AFNE01.JPG,AFNE01.JPG,AFNE01.JPG,AFNE01.JPG,,,,,,,,,,,,,,,,,1,6,16,4,,,,,,,AMNE17.jpg,AMSA14.jpg,AMNE18.jpg,AMSA07.jpg,AMNE18.jpg,MN,1,num_2,32,num_8,0.800229265034,,,2017_Jul_19_1530,60.0083724927,MAFE4ImagesEEG,001,200911,
AFNE01.JPG,AFNE01.JPG,AFNE01.JPG,AFNE01.JPG,AFNE01.JPG,AFNE01.JPG,,,,,,,,,,,,,,,,,1,7,17,6,,,,,,,AMNE05.jpg,AMNE20.jpg,AMSA11.jpg,AMSA13.jpg,AMSA11.jpg,MS,2,num_2,16,num_2,0.533457203157,,,2017_Jul_19_1530,60.0083724927,MAFE4ImagesEEG,001,200911,
AFNE01.JPG,AFNE01.JPG,AFNE01.JPG,AFNE01.JPG,AFNE01.JPG,AFNE01.JPG,,,,,,,,,,,,,,,,,1,8,18,0,,,,,,,AMSA01.jpg,AMSA07.jpg,AMNE20.jpg,AMNE12.jpg,AMNE12.jpg,MN,1,num_4,32,num_6,0.633484818885,,,2017_Jul_19_1530,60.0083724927,MAFE4ImagesEEG,001,200911,
AFNE01.JPG,AFNE01.JPG,AFNE01.JPG,AFNE01.JPG,AFNE01.JPG,AFNE01.JPG,,,,,,,,,,,,,,,,,1,9,19,1,,,,,,,AMNE19.jpg,AMNE15.jpg,AMSA08.jpg,AMSA06.jpg,AMSA06.jpg,MS,2,num_4,32,num_8,0.633600606088,,,2017_Jul_19_1530,60.0083724927,MAFE4ImagesEEG,001,200911,
AFNE01.JPG,AFNE01.JPG,AFNE01.JPG,AFNE01.JPG,AFNE01.JPG,AFNE01.JPG,,,,,,,,,,,,,,,,,2,0,20,3,,,,,,,AMSA09.jpg,AMNE13.jpg,AMNE20.jpg,AMSA12.jpg,AMNE20.jpg,MN,1,num_2,16,num_2,0.516790263879,,,2017_Jul_19_1530,60.0083724927,MAFE4ImagesEEG,001,200911,
AFNE01.JPG,AFNE01.JPG,AFNE01.JPG,AFNE01.JPG,AFNE01.JPG,AFNE01.JPG,,,,,,,,,,,,,,,,,2,1,21,0,,,,,,,AMSA11.jpg,AMSA16.jpg,AMNE08.jpg,AMNE07.jpg,AMNE07.jpg,MN,1,num_4,32,num_6,0.400154725037,,,2017_Jul_19_1530,60.0083724927,MAFE4ImagesEEG,001,200911,
AFNE01.JPG,AFNE01.JPG,AFNE01.JPG,AFNE01.JPG,AFNE01.JPG,AFNE01.JPG,,,,,,,,,,,,,,,,,2,2,22,1,,,,,,,AMNE17.jpg,AMNE11.jpg,AMSA09.jpg,AMSA06.jpg,AMNE17.jpg,MN,1,num_8,16,num_8,0.666773152392,,,2017_Jul_19_1530,60.0083724927,MAFE4ImagesEEG,001,200911,
AFNE01.JPG,AFNE01.JPG,AFNE01.JPG,AFNE01.JPG,AFNE01.JPG,AFNE01.JPG,,,,,,,,,,,,,,,,,2,3,23,7,,,,,,,AMSA20.jpg,AMSA07.jpg,AMNE05.jpg,AMNE09.jpg,AMNE09.jpg,MN,1,num_4,32,num_8,0.516819451208,,,2017_Jul_19_1530,60.0083724927,MAFE4ImagesEEG,001,200911,
AFNE01.JPG,AFNE01.JPG,AFNE01.JPG,AFNE01.JPG,AFNE01.JPG,AFNE01.JPG,,,,,,,,,,,,,,,,,2,4,24,4,,,,,,,AMSA05.jpg,AMNE08.jpg,AMNE01.jpg,AMSA13.jpg,AMNE08.jpg,MN,1,num_6,16,num_6,0.700123709481,,,2017_Jul_19_1530,60.0083724927,MAFE4ImagesEEG,001,200911,
AFNE01.JPG,AFNE01.JPG,AFNE01.JPG,AFNE01.JPG,AFNE01.JPG,AFNE01.JPG,,,,,,,,,,,,,,,,,2,5,25,9,,,,,,,AMSA18.jpg,AMSA10.jpg,AMNE12.jpg,AMNE02.jpg,AMSA10.jpg,MS,2,num_6,32,num_2,1.1500617906,,,2017_Jul_19_1530,60.0083724927,MAFE4ImagesEEG,001,200911,
AFNE01.JPG,AFNE01.JPG,AFNE01.JPG,AFNE01.JPG,AFNE01.JPG,AFNE01.JPG,,,,,,,,,,,,,,,,,2,6,26,2,,,,,,,AMNE19.jpg,AMNE02.jpg,AMSA14.jpg,AMSA12.jpg,AMNE02.jpg,MN,1,num_6,16,num_6,0.533453033539,,,2017_Jul_19_1530,60.0083724927,MAFE4ImagesEEG,001,200911,
AFNE01.JPG,AFNE01.JPG,AFNE01.JPG,AFNE01.JPG,AFNE01.JPG,AFNE01.JPG,,,,,,,,,,,,,,,,,2,7,27,5,,,,,,,AMSA02.jpg,AMNE11.jpg,AMNE14.jpg,AMSA15.jpg,AMSA15.jpg,MS,2,num_4,16,num_4,0.466771805281,,,2017_Jul_19_1530,60.0083724927,MAFE4ImagesEEG,001,200911,
AFNE01.JPG,AFNE01.JPG,AFNE01.JPG,AFNE01.JPG,AFNE01.JPG,AFNE01.JPG,,,,,,,,,,,,,,,,,2,8,28,6,,,,,,,AMNE12.jpg,AMSA11.jpg,AMSA01.jpg,AMNE07.jpg,AMSA01.jpg,MS,2,num_2,32,num_6,1.43340007935,,,2017_Jul_19_1530,60.0083724927,MAFE4ImagesEEG,001,200911,
AFNE01.JPG,AFNE01.JPG,AFNE01.JPG,AFNE01.JPG,AFNE01.JPG,AFNE01.JPG,,,,,,,,,,,,,,,,,2,9,29,8,,,,,,,AMNE19.jpg,AMNE06.jpg,AMSA11.jpg,AMSA08.jpg,AMSA11.jpg,MS,2,num_2,16,num_2,0.750120036973,,,2017_Jul_19_1530,60.0083724927,MAFE4ImagesEEG,001,200911,
AFNE01.JPG,AFNE01.JPG,AFNE01.JPG,AFNE01.JPG,AFNE01.JPG,AFNE01.JPG,,,,,,,,,,,,,,,,,3,0,30,2,,,,,,,AMNE11.jpg,AMNE01.jpg,AMSA13.jpg,AMSA16.jpg,AMNE11.jpg,MN,1,num_8,16,num_8,0.93341948415,,,2017_Jul_19_1530,60.0083724927,MAFE4ImagesEEG,001,200911,
AFNE01.JPG,AFNE01.JPG,AFNE01.JPG,AFNE01.JPG,AFNE01.JPG,AFNE01.JPG,,,,,,,,,,,,,,,,,3,1,31,7,,,,,,,AMSA11.jpg,AMNE11.jpg,AMNE14.jpg,AMSA04.jpg,AMNE14.jpg,MN,1,num_2,16,num_2,0.766883839795,,,2017_Jul_19_1530,60.0083724927,MAFE4ImagesEEG,001,200911,
AFNE01.JPG,AFNE01.JPG,AFNE01.JPG,AFNE01.JPG,AFNE01.JPG,AFNE01.JPG,,,,,,,,,,,,,,,,,3,2,32,8,,,,,,,AMNE11.jpg,AMSA20.jpg,AMNE20.jpg,AMSA05.jpg,AMSA05.jpg,MS,2,num_4,16,num_4,1.41677034591,,,2017_Jul_19_1530,60.0083724927,MAFE4ImagesEEG,001,200911,
AFNE01.JPG,AFNE01.JPG,AFNE01.JPG,AFNE01.JPG,AFNE01.JPG,AFNE01.JPG,,,,,,,,,,,,,,,,,3,3,33,3,,,,,,,AMNE14.jpg,AMSA19.jpg,AMSA20.jpg,AMNE16.jpg,AMSA20.jpg,MS,2,num_2,32,num_6,0.900108698814,,,2017_Jul_19_1530,60.0083724927,MAFE4ImagesEEG,001,200911,
AFNE01.JPG,AFNE01.JPG,AFNE01.JPG,AFNE01.JPG,AFNE01.JPG,AFNE01.JPG,,,,,,,,,,,,,,,,,3,4,34,5,,,,,,,AMNE02.jpg,AMSA12.jpg,AMSA15.jpg,AMNE03.jpg,AMNE03.jpg,MN,1,num_4,16,num_4,0.883139943064,,,2017_Jul_19_1530,60.0083724927,MAFE4ImagesEEG,001,200911,
AFNE01.JPG,AFNE01.JPG,AFNE01.JPG,AFNE01.JPG,AFNE01.JPG,AFNE01.JPG,,,,,,,,,,,,,,,,,3,5,35,6,,,,,,,AMNE02.jpg,AMSA20.jpg,AMSA02.jpg,AMNE10.jpg,AMNE10.jpg,MN,1,num_4,16,num_4,0.733527830133,,,2017_Jul_19_1530,60.0083724927,MAFE4ImagesEEG,001,200911,
AFNE01.JPG,AFNE01.JPG,AFNE01.JPG,AFNE01.JPG,AFNE01.JPG,AFNE01.JPG,,,,,,,,,,,,,,,,,3,6,36,0,,,,,,,AMSA01.jpg,AMNE07.jpg,AMNE01.jpg,AMSA02.jpg,AMSA01.jpg,MS,2,num_8,32,num_2,0.866833836393,,,2017_Jul_19_1530,60.0083724927,MAFE4ImagesEEG,001,200911,
AFNE01.JPG,AFNE01.JPG,AFNE01.JPG,AFNE01.JPG,AFNE01.JPG,AFNE01.JPG,,,,,,,,,,,,,,,,,3,7,37,4,,,,,,,AMSA16.jpg,AMNE03.jpg,AMSA11.jpg,AMNE17.jpg,AMNE17.jpg,MN,1,num_4,16,num_4,0.583501320943,,,2017_Jul_19_1530,60.0083724927,MAFE4ImagesEEG,001,200911,
AFNE01.JPG,AFNE01.JPG,AFNE01.JPG,AFNE01.JPG,AFNE01.JPG,AFNE01.JPG,,,,,,,,,,,,,,,,,3,8,38,1,,,,,,,AMNE19.jpg,AMSA12.jpg,AMNE01.jpg,AMSA01.jpg,AMNE19.jpg,MN,1,num_8,16,num_8,0.716797063564,,,2017_Jul_19_1530,60.0083724927,MAFE4ImagesEEG,001,200911,
AFNE01.JPG,AFNE01.JPG,AFNE01.JPG,AFNE01.JPG,AFNE01.JPG,AFNE01.JPG,,,,,,,,,,,,,,,,,3,9,39,9,,,,,,,AMSA14.jpg,AMNE03.jpg,AMNE16.jpg,AMSA07.jpg,AMSA07.jpg,MS,2,num_4,32,num_6,0.883435986208,,,2017_Jul_19_1530,60.0083724927,MAFE4ImagesEEG,001,200911,
AFNE01.JPG,AFNE01.JPG,AFNE01.JPG,AFNE01.JPG,AFNE01.JPG,AFNE01.JPG,,,,,,,,,,,,,,,,,4,0,40,7,,,,,,,AMSA08.jpg,AMSA20.jpg,AMNE04.jpg,AMNE01.jpg,AMSA08.jpg,MS,2,num_8,16,num_8,0.783484385873,,,2017_Jul_19_1530,60.0083724927,MAFE4ImagesEEG,001,200911,
AFNE01.JPG,AFNE01.JPG,AFNE01.JPG,AFNE01.JPG,AFNE01.JPG,AFNE01.JPG,,,,,,,,,,,,,,,,,4,1,41,8,,,,,,,AMSA01.jpg,AMNE01.jpg,AMSA14.jpg,AMNE07.jpg,AMSA01.jpg,MS,2,num_8,32,num_6,0.633464932995,,,2017_Jul_19_1530,60.0083724927,MAFE4ImagesEEG,001,200911,
AFNE01.JPG,AFNE01.JPG,AFNE01.JPG,AFNE01.JPG,AFNE01.JPG,AFNE01.JPG,,,,,,,,,,,,,,,,,4,2,42,4,,,,,,,AMNE01.jpg,AMSA16.jpg,AMSA04.jpg,AMNE06.jpg,AMSA16.jpg,MS,2,num_6,16,num_6,0.516842865269,,,2017_Jul_19_1530,60.0083724927,MAFE4ImagesEEG,001,200911,
AFNE01.JPG,AFNE01.JPG,AFNE01.JPG,AFNE01.JPG,AFNE01.JPG,AFNE01.JPG,,,,,,,,,,,,,,,,,4,3,43,9,,,,,,,AMNE09.jpg,AMNE11.jpg,AMSA03.jpg,AMSA12.jpg,AMSA03.jpg,MS,2,num_2,16,num_2,0.533449826151,,,2017_Jul_19_1530,60.0083724927,MAFE4ImagesEEG,001,200911,
AFNE01.JPG,AFNE01.JPG,AFNE01.JPG,AFNE01.JPG,AFNE01.JPG,AFNE01.JPG,,,,,,,,,,,,,,,,,4,4,44,5,,,,,,,AMNE14.jpg,AMNE08.jpg,AMSA18.jpg,AMSA15.jpg,AMNE14.jpg,MN,1,num_8,16,num_8,0.766737261554,,,2017_Jul_19_1530,60.0083724927,MAFE4ImagesEEG,001,200911,
AFNE01.JPG,AFNE01.JPG,AFNE01.JPG,AFNE01.JPG,AFNE01.JPG,AFNE01.JPG,,,,,,,,,,,,,,,,,4,5,45,2,,,,,,,AMSA01.jpg,AMNE16.jpg,AMNE09.jpg,AMSA13.jpg,AMSA01.jpg,MS,2,num_8,16,num_8,0.650210774358,,,2017_Jul_19_1530,60.0083724927,MAFE4ImagesEEG,001,200911,
AFNE01.JPG,AFNE01.JPG,AFNE01.JPG,AFNE01.JPG,AFNE01.JPG,AFNE01.JPG,,,,,,,,,,,,,,,,,4,6,46,6,,,,,,,AMNE07.jpg,AMSA09.jpg,AMSA10.jpg,AMNE19.jpg,AMSA10.jpg,MS,2,num_2,32,num_4,0.683475373109,,,2017_Jul_19_1530,60.0083724927,MAFE4ImagesEEG,001,200911,
AFNE01.JPG,AFNE01.JPG,AFNE01.JPG,AFNE01.JPG,AFNE01.JPG,AFNE01.JPG,,,,,,,,,,,,,,,,,4,7,47,3,,,,,,,AMSA09.jpg,AMSA03.jpg,AMNE02.jpg,AMNE20.jpg,AMSA03.jpg,MS,2,num_6,16,num_6,0.66677122793,,,2017_Jul_19_1530,60.0083724927,MAFE4ImagesEEG,001,200911,
AFNE01.JPG,AFNE01.JPG,AFNE01.JPG,AFNE01.JPG,AFNE01.JPG,AFNE01.JPG,,,,,,,,,,,,,,,,,4,8,48,1,,,,,,,AMSA18.jpg,AMNE20.jpg,AMSA12.jpg,AMNE09.jpg,AMNE20.jpg,MN,1,num_6,16,num_6,0.866755896568,,,2017_Jul_19_1530,60.0083724927,MAFE4ImagesEEG,001,200911,
AFNE01.JPG,AFNE01.JPG,AFNE01.JPG,AFNE01.JPG,AFNE01.JPG,AFNE01.JPG,,,,,,,,,,,,,,,,,4,9,49,0,,,,,,,AMNE09.jpg,AMNE04.jpg,AMSA20.jpg,AMSA18.jpg,AMNE04.jpg,MN,1,num_6,16,num_6,0.700131727965,,,2017_Jul_19_1530,60.0083724927,MAFE4ImagesEEG,001,200911,
AFNE01.JPG,AFNE01.JPG,AFNE01.JPG,AFNE01.JPG,AFNE01.JPG,AFNE01.JPG,,,,,,,,,,,,,,,,,5,0,50,7,,,,,,,AMNE08.jpg,AMNE18.jpg,AMSA14.jpg,AMSA09.jpg,AMNE08.jpg,MN,1,num_8,16,num_8,0.733468493214,,,2017_Jul_19_1530,60.0083724927,MAFE4ImagesEEG,001,200911,
AFNE01.JPG,AFNE01.JPG,AFNE01.JPG,AFNE01.JPG,AFNE01.JPG,AFNE01.JPG,,,,,,,,,,,,,,,,,5,1,51,8,,,,,,,AMSA06.jpg,AMNE19.jpg,AMSA09.jpg,AMNE05.jpg,AMNE05.jpg,MN,1,num_4,32,num_8,0.616799918149,,,2017_Jul_19_1530,60.0083724927,MAFE4ImagesEEG,001,200911,
AFNE01.JPG,AFNE01.JPG,AFNE01.JPG,AFNE01.JPG,AFNE01.JPG,AFNE01.JPG,,,,,,,,,,,,,,,,,5,2,52,6,,,,,,,AMSA19.jpg,AMNE07.jpg,AMSA09.jpg,AMNE14.jpg,AMSA09.jpg,MS,2,num_2,32,num_8,0.833468525292,,,2017_Jul_19_1530,60.0083724927,MAFE4ImagesEEG,001,200911,
AFNE01.JPG,AFNE01.JPG,AFNE01.JPG,AFNE01.JPG,AFNE01.JPG,AFNE01.JPG,,,,,,,,,,,,,,,,,5,3,53,4,,,,,,,AMNE10.jpg,AMSA05.jpg,AMSA16.jpg,AMNE08.jpg,AMSA16.jpg,MS,2,num_2,32,num_6,0.63346461227,,,2017_Jul_19_1530,60.0083724927,MAFE4ImagesEEG,001,200911,
AFNE01.JPG,AFNE01.JPG,AFNE01.JPG,AFNE01.JPG,AFNE01.JPG,AFNE01.JPG,,,,,,,,,,,,,,,,,5,4,54,5,,,,,,,AMNE03.jpg,AMNE18.jpg,AMSA08.jpg,AMSA14.jpg,AMSA14.jpg,MS,2,num_4,16,num_4,0.466788804508,,,2017_Jul_19_1530,60.0083724927,MAFE4ImagesEEG,001,200911,
AFNE01.JPG,AFNE01.JPG,AFNE01.JPG,AFNE01.JPG,AFNE01.JPG,AFNE01.JPG,,,,,,,,,,,,,,,,,5,5,55,0,,,,,,,AMNE15.jpg,AMSA07.jpg,AMSA11.jpg,AMNE06.jpg,AMSA11.jpg,MS,2,num_2,16,num_2,0.500223395502,,,2017_Jul_19_1530,60.0083724927,MAFE4ImagesEEG,001,200911,
AFNE01.JPG,AFNE01.JPG,AFNE01.JPG,AFNE01.JPG,AFNE01.JPG,AFNE01.JPG,,,,,,,,,,,,,,,,,5,6,56,3,,,,,,,AMNE03.jpg,AMSA05.jpg,AMNE07.jpg,AMSA11.jpg,AMNE07.jpg,MN,1,num_2,32,num_8,0.666773152392,,,2017_Jul_19_1530,60.0083724927,MAFE4ImagesEEG,001,200911,
AFNE01.JPG,AFNE01.JPG,AFNE01.JPG,AFNE01.JPG,AFNE01.JPG,AFNE01.JPG,,,,,,,,,,,,,,,,,5,7,57,1,,,,,,,AMNE18.jpg,AMNE04.jpg,AMSA13.jpg,AMSA15.jpg,AMSA15.jpg,MS,2,num_4,16,num_4,0.866851477127,,,2017_Jul_19_1530,60.0083724927,MAFE4ImagesEEG,001,200911,
AFNE01.JPG,AFNE01.JPG,AFNE01.JPG,AFNE01.JPG,AFNE01.JPG,AFNE01.JPG,,,,,,,,,,,,,,,,,5,8,58,9,,,,,,,AMNE19.jpg,AMSA02.jpg,AMSA19.jpg,AMNE17.jpg,AMSA19.jpg,MS,2,num_2,16,num_2,0.533486390515,,,2017_Jul_19_1530,60.0083724927,MAFE4ImagesEEG,001,200911,
AFNE01.JPG,AFNE01.JPG,AFNE01.JPG,AFNE01.JPG,AFNE01.JPG,AFNE01.JPG,,,,,,,,,,,,,,,,,5,9,59,2,,,,,,,AMSA08.jpg,AMNE06.jpg,AMNE11.jpg,AMSA01.jpg,AMSA01.jpg,MS,2,num_4,32,num_6,1.0167814435,,,2017_Jul_19_1530,60.0083724927,MAFE4ImagesEEG,001,200911,
,,,,,,,,,,,,,,,,,,,,,,,,,,,,,,,,,,,,,,,,,,,space,1.53334045378,2017_Jul_19_1530,60.0083724927,MAFE4ImagesEEG,001,200911,
AFNE01.JPG,AFNE01.JPG,AFNE01.JPG,AFNE01.JPG,AFNE01.JPG,AFNE01.JPG,,,,,,,,,,,,,,,,,,,,,0,0,0,0,,,AFSA15.jpg,AFSA14.jpg,AFNE15.jpg,AFNE09.jpg,AFNE15.jpg,FN,3,num_2,16,num_2,0.583514150581,,,2017_Jul_19_1530,60.0083724927,MAFE4ImagesEEG,001,200911,
AFNE01.JPG,AFNE01.JPG,AFNE01.JPG,AFNE01.JPG,AFNE01.JPG,AFNE01.JPG,,,,,,,,,,,,,,,,,,,,,0,1,1,4,,,AFSA03.jpg,AFSA06.jpg,AFNE03.jpg,AFNE18.jpg,AFNE03.jpg,FN,3,num_2,32,num_4,0.633627227508,,,2017_Jul_19_1530,60.0083724927,MAFE4ImagesEEG,001,200911,
AFNE01.JPG,AFNE01.JPG,AFNE01.JPG,AFNE01.JPG,AFNE01.JPG,AFNE01.JPG,,,,,,,,,,,,,,,,,,,,,0,2,2,9,,,AFSA10.jpg,AFSA15.jpg,AFNE18.jpg,AFNE15.jpg,AFNE18.jpg,FN,3,num_2,32,num_8,0.68345997759,,,2017_Jul_19_1530,60.0083724927,MAFE4ImagesEEG,001,200911,
AFNE01.JPG,AFNE01.JPG,AFNE01.JPG,AFNE01.JPG,AFNE01.JPG,AFNE01.JPG,,,,,,,,,,,,,,,,,,,,,0,3,3,5,,,AFNE20.jpg,AFSA09.jpg,AFSA16.jpg,AFNE08.jpg,AFNE20.jpg,FN,3,num_8,16,num_8,0.600126564066,,,2017_Jul_19_1530,60.0083724927,MAFE4ImagesEEG,001,200911,
AFNE01.JPG,AFNE01.JPG,AFNE01.JPG,AFNE01.JPG,AFNE01.JPG,AFNE01.JPG,,,,,,,,,,,,,,,,,,,,,0,4,4,6,,,AFNE09.jpg,AFSA12.jpg,AFSA08.jpg,AFNE14.jpg,AFSA12.jpg,FS,4,num_6,16,num_6,0.516894825152,,,2017_Jul_19_1530,60.0083724927,MAFE4ImagesEEG,001,200911,
AFNE01.JPG,AFNE01.JPG,AFNE01.JPG,AFNE01.JPG,AFNE01.JPG,AFNE01.JPG,,,,,,,,,,,,,,,,,,,,,0,5,5,7,,,AFNE20.jpg,AFSA08.jpg,AFNE18.jpg,AFSA13.jpg,AFSA08.jpg,FS,4,num_6,16,num_6,0.649800547748,,,2017_Jul_19_1530,60.0083724927,MAFE4ImagesEEG,001,200911,
AFNE01.JPG,AFNE01.JPG,AFNE01.JPG,AFNE01.JPG,AFNE01.JPG,AFNE01.JPG,,,,,,,,,,,,,,,,,,,,,0,6,6,2,,,AFNE10.jpg,AFSA08.jpg,AFSA16.jpg,AFNE18.jpg,AFNE10.jpg,FN,3,num_8,16,num_8,0.600122394419,,,2017_Jul_19_1530,60.0083724927,MAFE4ImagesEEG,001,200911,
AFNE01.JPG,AFNE01.JPG,AFNE01.JPG,AFNE01.JPG,AFNE01.JPG,AFNE01.JPG,,,,,,,,,,,,,,,,,,,,,0,7,7,3,,,AFNE14.jpg,AFSA18.jpg,AFNE06.jpg,AFSA02.jpg,AFSA18.jpg,FS,4,num_6,16,num_6,0.500120758661,,,2017_Jul_19_1530,60.0083724927,MAFE4ImagesEEG,001,200911,
AFNE01.JPG,AFNE01.JPG,AFNE01.JPG,AFNE01.JPG,AFNE01.JPG,AFNE01.JPG,,,,,,,,,,,,,,,,,,,,,0,8,8,1,,,AFNE18.jpg,AFNE09.jpg,AFSA08.jpg,AFSA12.jpg,AFNE18.jpg,FN,3,num_8,16,num_8,0.800204247324,,,2017_Jul_19_1530,60.0083724927,MAFE4ImagesEEG,001,200911,
AFNE01.JPG,AFNE01.JPG,AFNE01.JPG,AFNE01.JPG,AFNE01.JPG,AFNE01.JPG,,,,,,,,,,,,,,,,,,,,,0,9,9,8,,,AFNE08.jpg,AFSA20.jpg,AFSA19.jpg,AFNE06.jpg,AFNE08.jpg,FN,3,num_8,16,num_8,0.716827213124,,,2017_Jul_19_1530,60.0083724927,MAFE4ImagesEEG,001,200911,
AFNE01.JPG,AFNE01.JPG,AFNE01.JPG,AFNE01.JPG,AFNE01.JPG,AFNE01.JPG,,,,,,,,,,,,,,,,,,,,,1,0,10,1,,,AFNE18.jpg,AFSA04.jpg,AFNE16.jpg,AFSA02.jpg,AFNE16.jpg,FN,3,num_2,32,num_8,1.13339837943,,,2017_Jul_19_1530,60.0083724927,MAFE4ImagesEEG,001,200911,
AFNE01.JPG,AFNE01.JPG,AFNE01.JPG,AFNE01.JPG,AFNE01.JPG,AFNE01.JPG,,,,,,,,,,,,,,,,,,,,,1,1,11,5,,,AFSA10.jpg,AFSA03.jpg,AFNE03.jpg,AFNE04.jpg,AFNE03.jpg,FN,3,num_2,32,num_6,1.18336519887,,,2017_Jul_19_1530,60.0083724927,MAFE4ImagesEEG,001,200911,
AFNE01.JPG,AFNE01.JPG,AFNE01.JPG,AFNE01.JPG,AFNE01.JPG,AFNE01.JPG,,,,,,,,,,,,,,,,,,,,,1,2,12,4,,,AFSA18.jpg,AFNE19.jpg,AFSA20.jpg,AFNE08.jpg,AFNE08.jpg,FN,3,num_4,16,num_4,0.866759103956,,,2017_Jul_19_1530,60.0083724927,MAFE4ImagesEEG,001,200911,
AFNE01.JPG,AFNE01.JPG,AFNE01.JPG,AFNE01.JPG,AFNE01.JPG,AFNE01.JPG,,,,,,,,,,,,,,,,,,,,,1,3,13,8,,,AFSA14.jpg,AFSA07.jpg,AFNE16.jpg,AFNE09.jpg,AFNE09.jpg,FN,3,num_4,16,num_4,0.800112836354,,,2017_Jul_19_1530,60.0083724927,MAFE4ImagesEEG,001,200911,
AFNE01.JPG,AFNE01.JPG,AFNE01.JPG,AFNE01.JPG,AFNE01.JPG,AFNE01.JPG,,,,,,,,,,,,,,,,,,,,,1,4,14,6,,,AFNE18.jpg,AFSA06.jpg,AFNE06.jpg,AFSA15.jpg,AFNE06.jpg,FN,3,num_2,32,num_8,0.800101610483,,,2017_Jul_19_1530,60.0083724927,MAFE4ImagesEEG,001,200911,
AFNE01.JPG,AFNE01.JPG,AFNE01.JPG,AFNE01.JPG,AFNE01.JPG,AFNE01.JPG,,,,,,,,,,,,,,,,,,,,,1,5,15,7,,,AFSA04.jpg,AFNE06.jpg,AFSA18.jpg,AFNE04.jpg,AFNE04.jpg,FN,3,num_4,16,num_4,1.01659830092,,,2017_Jul_19_1530,60.0083724927,MAFE4ImagesEEG,001,200911,
AFNE01.JPG,AFNE01.JPG,AFNE01.JPG,AFNE01.JPG,AFNE01.JPG,AFNE01.JPG,,,,,,,,,,,,,,,,,,,,,1,6,16,2,,,AFSA20.jpg,AFSA05.jpg,AFNE16.jpg,AFNE20.jpg,AFNE20.jpg,FN,3,num_4,32,num_8,0.633370956144,,,2017_Jul_19_1530,60.0083724927,MAFE4ImagesEEG,001,200911,
AFNE01.JPG,AFNE01.JPG,AFNE01.JPG,AFNE01.JPG,AFNE01.JPG,AFNE01.JPG,,,,,,,,,,,,,,,,,,,,,1,7,17,0,,,AFSA20.jpg,AFSA18.jpg,AFNE07.jpg,AFNE05.jpg,AFNE05.jpg,FN,3,num_4,16,num_4,0.616782277444,,,2017_Jul_19_1530,60.0083724927,MAFE4ImagesEEG,001,200911,
AFNE01.JPG,AFNE01.JPG,AFNE01.JPG,AFNE01.JPG,AFNE01.JPG,AFNE01.JPG,,,,,,,,,,,,,,,,,,,,,1,8,18,3,,,AFNE06.jpg,AFNE19.jpg,AFSA04.jpg,AFSA17.jpg,AFSA17.jpg,FS,4,num_4,16,num_4,0.4501658066,,,2017_Jul_19_1530,60.0083724927,MAFE4ImagesEEG,001,200911,
AFNE01.JPG,AFNE01.JPG,AFNE01.JPG,AFNE01.JPG,AFNE01.JPG,AFNE01.JPG,,,,,,,,,,,,,,,,,,,,,1,9,19,9,,,AFNE10.jpg,AFSA18.jpg,AFSA02.jpg,AFNE01.jpg,AFNE10.jpg,FN,3,num_8,16,num_8,0.700114728737,,,2017_Jul_19_1530,60.0083724927,MAFE4ImagesEEG,001,200911,
AFNE01.JPG,AFNE01.JPG,AFNE01.JPG,AFNE01.JPG,AFNE01.JPG,AFNE01.JPG,,,,,,,,,,,,,,,,,,,,,2,0,20,0,,,AFSA14.jpg,AFNE13.jpg,AFSA16.jpg,AFNE10.jpg,AFNE10.jpg,FN,3,num_4,16,num_4,1.71676915916,,,2017_Jul_19_1530,60.0083724927,MAFE4ImagesEEG,001,200911,
AFNE01.JPG,AFNE01.JPG,AFNE01.JPG,AFNE01.JPG,AFNE01.JPG,AFNE01.JPG,,,,,,,,,,,,,,,,,,,,,2,1,21,1,,,AFSA12.jpg,AFNE14.jpg,AFNE18.jpg,AFSA07.jpg,AFSA12.jpg,FS,4,num_8,32,num_4,1.51679892384,,,2017_Jul_19_1530,60.0083724927,MAFE4ImagesEEG,001,200911,
AFNE01.JPG,AFNE01.JPG,AFNE01.JPG,AFNE01.JPG,AFNE01.JPG,AFNE01.JPG,,,,,,,,,,,,,,,,,,,,,2,2,22,6,,,AFNE09.jpg,AFSA08.jpg,AFSA20.jpg,AFNE14.jpg,AFNE14.jpg,FN,3,num_4,32,num_8,1.23349431279,,,2017_Jul_19_1530,60.0083724927,MAFE4ImagesEEG,001,200911,
AFNE01.JPG,AFNE01.JPG,AFNE01.JPG,AFNE01.JPG,AFNE01.JPG,AFNE01.JPG,,,,,,,,,,,,,,,,,,,,,2,3,23,7,,,AFSA13.jpg,AFNE18.jpg,AFNE12.jpg,AFSA11.jpg,AFNE18.jpg,FN,3,num_6,32,num_8,0.616792541143,,,2017_Jul_19_1530,60.0083724927,MAFE4ImagesEEG,001,200911,
AFNE01.JPG,AFNE01.JPG,AFNE01.JPG,AFNE01.JPG,AFNE01.JPG,AFNE01.JPG,,,,,,,,,,,,,,,,,,,,,2,4,24,9,,,AFNE07.jpg,AFSA08.jpg,AFNE09.jpg,AFSA06.jpg,AFNE09.jpg,FN,3,num_2,32,num_8,0.800128552626,,,2017_Jul_19_1530,60.0083724927,MAFE4ImagesEEG,001,200911,
AFNE01.JPG,AFNE01.JPG,AFNE01.JPG,AFNE01.JPG,AFNE01.JPG,AFNE01.JPG,,,,,,,,,,,,,,,,,,,,,2,5,25,8,,,AFNE13.jpg,AFSA18.jpg,AFSA01.jpg,AFNE18.jpg,AFSA01.jpg,FS,4,num_2,32,num_6,0.533470994997,,,2017_Jul_19_1530,60.0083724927,MAFE4ImagesEEG,001,200911,
AFNE01.JPG,AFNE01.JPG,AFNE01.JPG,AFNE01.JPG,AFNE01.JPG,AFNE01.JPG,,,,,,,,,,,,,,,,,,,,,2,6,26,2,,,AFNE18.jpg,AFSA19.jpg,AFNE20.jpg,AFSA02.jpg,AFNE18.jpg,FN,3,num_8,16,num_8,0.650125457498,,,2017_Jul_19_1530,60.0083724927,MAFE4ImagesEEG,001,200911,
AFNE01.JPG,AFNE01.JPG,AFNE01.JPG,AFNE01.JPG,AFNE01.JPG,AFNE01.JPG,,,,,,,,,,,,,,,,,,,,,2,7,27,4,,,AFSA11.jpg,AFSA03.jpg,AFNE14.jpg,AFNE13.jpg,AFNE13.jpg,FN,3,num_4,16,num_4,1.03343876058,,,2017_Jul_19_1530,60.0083724927,MAFE4ImagesEEG,001,200911,
AFNE01.JPG,AFNE01.JPG,AFNE01.JPG,AFNE01.JPG,AFNE01.JPG,AFNE01.JPG,,,,,,,,,,,,,,,,,,,,,2,8,28,5,,,AFSA17.jpg,AFNE09.jpg,AFNE18.jpg,AFSA06.jpg,AFSA06.jpg,FS,4,num_4,32,num_8,0.700086824334,,,2017_Jul_19_1530,60.0083724927,MAFE4ImagesEEG,001,200911,
AFNE01.JPG,AFNE01.JPG,AFNE01.JPG,AFNE01.JPG,AFNE01.JPG,AFNE01.JPG,,,,,,,,,,,,,,,,,,,,,2,9,29,3,,,AFSA18.jpg,AFNE11.jpg,AFNE15.jpg,AFSA04.jpg,AFSA18.jpg,FS,4,num_8,16,num_8,0.599801333563,,,2017_Jul_19_1530,60.0083724927,MAFE4ImagesEEG,001,200911,
AFNE01.JPG,AFNE01.JPG,AFNE01.JPG,AFNE01.JPG,AFNE01.JPG,AFNE01.JPG,,,,,,,,,,,,,,,,,,,,,3,0,30,9,,,AFSA06.jpg,AFSA07.jpg,AFNE20.jpg,AFNE07.jpg,AFSA06.jpg,FS,4,num_8,16,num_8,0.500142568984,,,2017_Jul_19_1530,60.0083724927,MAFE4ImagesEEG,001,200911,
AFNE01.JPG,AFNE01.JPG,AFNE01.JPG,AFNE01.JPG,AFNE01.JPG,AFNE01.JPG,,,,,,,,,,,,,,,,,,,,,3,1,31,4,,,AFNE03.jpg,AFSA14.jpg,AFNE05.jpg,AFSA13.jpg,AFNE05.jpg,FN,3,num_2,16,num_2,0.900002213108,,,2017_Jul_19_1530,60.0083724927,MAFE4ImagesEEG,001,200911,
AFNE01.JPG,AFNE01.JPG,AFNE01.JPG,AFNE01.JPG,AFNE01.JPG,AFNE01.JPG,,,,,,,,,,,,,,,,,,,,,3,2,32,3,,,AFNE11.jpg,AFSA13.jpg,AFSA03.jpg,AFNE20.jpg,AFSA13.jpg,FS,4,num_6,16,num_6,0.500389218127,,,2017_Jul_19_1530,60.0083724927,MAFE4ImagesEEG,001,200911,
AFNE01.JPG,AFNE01.JPG,AFNE01.JPG,AFNE01.JPG,AFNE01.JPG,AFNE01.JPG,,,,,,,,,,,,,,,,,,,,,3,3,33,8,,,AFNE19.jpg,AFSA06.jpg,AFNE20.jpg,AFSA09.jpg,AFSA09.jpg,FS,4,num_4,32,num_8,0.633487384795,,,2017_Jul_19_1530,60.0083724927,MAFE4ImagesEEG,001,200911,
AFNE01.JPG,AFNE01.JPG,AFNE01.JPG,AFNE01.JPG,AFNE01.JPG,AFNE01.JPG,,,,,,,,,,,,,,,,,,,,,3,4,34,5,,,AFSA06.jpg,AFNE18.jpg,AFNE05.jpg,AFSA17.jpg,AFNE05.jpg,FN,3,num_2,16,num_2,0.900102284038,,,2017_Jul_19_1530,60.0083724927,MAFE4ImagesEEG,001,200911,
AFNE01.JPG,AFNE01.JPG,AFNE01.JPG,AFNE01.JPG,AFNE01.JPG,AFNE01.JPG,,,,,,,,,,,,,,,,,,,,,3,5,35,0,,,AFSA15.jpg,AFSA19.jpg,AFNE06.jpg,AFNE19.jpg,AFSA15.jpg,FS,4,num_8,16,num_8,0.600152864732,,,2017_Jul_19_1530,60.0083724927,MAFE4ImagesEEG,001,200911,
AFNE01.JPG,AFNE01.JPG,AFNE01.JPG,AFNE01.JPG,AFNE01.JPG,AFNE01.JPG,,,,,,,,,,,,,,,,,,,,,3,6,36,7,,,AFNE16.jpg,AFNE04.jpg,AFSA20.jpg,AFSA04.jpg,AFNE04.jpg,FN,3,num_6,32,num_8,0.683435922052,,,2017_Jul_19_1530,60.0083724927,MAFE4ImagesEEG,001,200911,
AFNE01.JPG,AFNE01.JPG,AFNE01.JPG,AFNE01.JPG,AFNE01.JPG,AFNE01.JPG,,,,,,,,,,,,,,,,,,,,,3,7,37,6,,,AFNE03.jpg,AFSA13.jpg,AFSA20.jpg,AFNE13.jpg,AFSA13.jpg,FS,4,num_6,16,num_6,0.433481868065,,,2017_Jul_19_1530,60.0083724927,MAFE4ImagesEEG,001,200911,
AFNE01.JPG,AFNE01.JPG,AFNE01.JPG,AFNE01.JPG,AFNE01.JPG,AFNE01.JPG,,,,,,,,,,,,,,,,,,,,,3,8,38,1,,,AFNE07.jpg,AFNE05.jpg,AFSA11.jpg,AFSA15.jpg,AFNE05.jpg,FN,3,num_6,32,num_8,0.666788227187,,,2017_Jul_19_1530,60.0083724927,MAFE4ImagesEEG,001,200911,
