IPosition2,IPosition3,IPosition1,IPosition6,IPosition4,IPosition5,TrialsM1.thisRepN,TrialsM1.thisTrialN,TrialsM1.thisN,TrialsM1.thisIndex,TrialsF1.thisRepN,TrialsF1.thisTrialN,TrialsF1.thisN,TrialsF1.thisIndex,TrialsM2.thisRepN,TrialsM2.thisTrialN,TrialsM2.thisN,TrialsM2.thisIndex,TrialsF2.thisRepN,TrialsF2.thisTrialN,TrialsF2.thisN,TrialsF2.thisIndex,TrialsM3.thisRepN,TrialsM3.thisTrialN,TrialsM3.thisN,TrialsM3.thisIndex,TrialsF3.thisRepN,TrialsF3.thisTrialN,TrialsF3.thisN,TrialsF3.thisIndex,InstrKey_resp.keys,InstrKey_resp.rt,Image0 _Position,Image1 _Position,Image2 _Position,Image3 _Position,Center_image,condition,code,correct_answer,accuracy,Key_Resp.keys,BreakKey_resp.keys,BreakKey_resp.rt,Key_Resp.rt,date,frameRate,expName,session,participant,
,,,,,,,,,,,,,,,,,,,,,,,,,,,,,,space,75.7112029067,,,,,,,,,,,,,,2017_Jul_12_1201,59.9984989784,MAFE4ImagesEEG,001,200970,
AFNE22.JPG,AFSA24.JPG,AFSA22.JPG,AFNE25.JPG,AFNE24.JPG,AFSA25.JPG,0,0,0,6,,,,,,,,,,,,,,,,,,,,,,,AMSA16.jpg,AMSA10.jpg,AMNE07.jpg,AMNE13.jpg,AMSA16.jpg,MS,2,num_8,48,None,,,,2017_Jul_12_1201,59.9984989784,MAFE4ImagesEEG,001,200970,
AFSA21.JPG,AFNE22.JPG,AFNE21.JPG,AFSA23.JPG,AFSA22.JPG,AFNE23.JPG,0,1,1,0,,,,,,,,,,,,,,,,,,,,,,,AMSA02.jpg,AMSA10.jpg,AMNE19.jpg,AMNE12.jpg,AMSA10.jpg,MS,2,num_6,48,None,,,,2017_Jul_12_1201,59.9984989784,MAFE4ImagesEEG,001,200970,
AFSA21.JPG,AFNE23.JPG,AFNE21.JPG,AFSA25.JPG,AFNE25.JPG,AFSA23.JPG,0,2,2,4,,,,,,,,,,,,,,,,,,,,,,,AMSA14.jpg,AMNE13.jpg,AMNE15.jpg,AMSA10.jpg,AMSA14.jpg,MS,2,num_8,48,None,,,,2017_Jul_12_1201,59.9984989784,MAFE4ImagesEEG,001,200970,
AMSA21.JPG,AMNE22.JPG,AMNE21.JPG,AMSA23.JPG,AMSA22.JPG,AMNE23.JPG,0,3,3,1,,,,,,,,,,,,,,,,,,,,,,,AMNE14.jpg,AMNE03.jpg,AMSA03.jpg,AMSA09.jpg,AMSA09.jpg,MS,2,num_4,48,None,,,,2017_Jul_12_1201,59.9984989784,MAFE4ImagesEEG,001,200970,
AFNE23.JPG,AFNE24.JPG,AFNE22.JPG,AFSA24.JPG,AFSA22.JPG,AFSA23.JPG,0,4,4,8,,,,,,,,,,,,,,,,,,,,,,,AMNE18.jpg,AMSA11.jpg,AMNE08.jpg,AMSA14.jpg,AMSA11.jpg,MS,2,num_6,48,None,,,,2017_Jul_12_1201,59.9984989784,MAFE4ImagesEEG,001,200970,
AMSA21.JPG,AMNE23.JPG,AMNE21.JPG,AMSA25.JPG,AMNE25.JPG,AMSA23.JPG,0,5,5,5,,,,,,,,,,,,,,,,,,,,,,,AMNE19.jpg,AMNE20.jpg,AMSA16.jpg,AMSA12.jpg,AMSA12.jpg,MS,2,num_4,48,None,,,,2017_Jul_12_1201,59.9984989784,MAFE4ImagesEEG,001,200970,
AMNE23.JPG,AMNE24.JPG,AMNE22.JPG,AMSA24.JPG,AMSA22.JPG,AMSA23.JPG,0,6,6,9,,,,,,,,,,,,,,,,,,,,,,,AMSA16.jpg,AMNE01.jpg,AMNE11.jpg,AMSA04.jpg,AMSA04.jpg,MS,2,num_4,48,None,,,,2017_Jul_12_1201,59.9984989784,MAFE4ImagesEEG,001,200970,
AMNE22.JPG,AMSA24.JPG,AMSA22.JPG,AMNE25.JPG,AMNE24.JPG,AMSA25.JPG,0,7,7,7,,,,,,,,,,,,,,,,,,,,,,,AMSA10.jpg,AMNE16.jpg,AMSA13.jpg,AMNE11.jpg,AMNE16.jpg,MN,1,num_6,48,None,,,,2017_Jul_12_1201,59.9984989784,MAFE4ImagesEEG,001,200970,
AFSA25.JPG,AFNE24.JPG,AFSA24.JPG,AFNE21.JPG,AFSA21.JPG,AFNE25.JPG,0,8,8,2,,,,,,,,,,,,,,,,,,,,,,,AMNE18.jpg,AMSA19.jpg,AMSA14.jpg,AMNE06.jpg,AMNE18.jpg,MN,1,num_8,48,None,,,,2017_Jul_12_1201,59.9984989784,MAFE4ImagesEEG,001,200970,
AMSA25.JPG,AMNE24.JPG,AMSA24.JPG,AMNE26.JPG,AMSA21.JPG,AMNE25.JPG,0,9,9,3,,,,,,,,,,,,,,,,,,,,,,,AMNE05.jpg,AMSA09.jpg,AMSA20.jpg,AMNE01.jpg,AMNE01.jpg,MN,1,num_4,48,None,,,,2017_Jul_12_1201,59.9984989784,MAFE4ImagesEEG,001,200970,
AFSA21.JPG,AFNE22.JPG,AFNE21.JPG,AFSA23.JPG,AFSA22.JPG,AFNE23.JPG,,,,,0,0,0,0,,,,,,,,,,,,,,,,,,,AFSA06.jpg,AFNE04.jpg,AFNE13.jpg,AFSA12.jpg,AFNE13.jpg,FN,3,num_2,48,None,,,,2017_Jul_12_1201,59.9984989784,MAFE4ImagesEEG,001,200970,
AMSA21.JPG,AMNE23.JPG,AMNE21.JPG,AMSA25.JPG,AMNE25.JPG,AMSA23.JPG,,,,,0,1,1,5,,,,,,,,,,,,,,,,,,,AFNE03.jpg,AFSA04.jpg,AFNE18.jpg,AFSA09.jpg,AFSA09.jpg,FS,4,num_4,48,None,,,,2017_Jul_12_1201,59.9984989784,MAFE4ImagesEEG,001,200970,
AFSA21.JPG,AFNE23.JPG,AFNE21.JPG,AFSA25.JPG,AFNE25.JPG,AFSA23.JPG,,,,,0,2,2,4,,,,,,,,,,,,,,,,,,,AFNE14.jpg,AFSA13.jpg,AFNE05.jpg,AFSA10.jpg,AFNE14.jpg,FN,3,num_8,48,None,,,,2017_Jul_12_1201,59.9984989784,MAFE4ImagesEEG,001,200970,
AFSA25.JPG,AFNE24.JPG,AFSA24.JPG,AFNE21.JPG,AFSA21.JPG,AFNE25.JPG,,,,,0,3,3,2,,,,,,,,,,,,,,,,,,,AFSA10.jpg,AFSA12.jpg,AFNE18.jpg,AFNE05.jpg,AFNE05.jpg,FN,3,num_4,48,None,,,,2017_Jul_12_1201,59.9984989784,MAFE4ImagesEEG,001,200970,
AMNE23.JPG,AMNE24.JPG,AMNE22.JPG,AMSA24.JPG,AMSA22.JPG,AMSA23.JPG,,,,,0,4,4,9,,,,,,,,,,,,,,,,,,,AFNE11.jpg,AFSA15.jpg,AFNE17.jpg,AFSA13.jpg,AFNE17.jpg,FN,3,num_2,48,None,,,,2017_Jul_12_1201,59.9984989784,MAFE4ImagesEEG,001,200970,
AMSA25.JPG,AMNE24.JPG,AMSA24.JPG,AMNE26.JPG,AMSA21.JPG,AMNE25.JPG,,,,,0,5,5,3,,,,,,,,,,,,,,,,,,,AFNE07.jpg,AFNE14.jpg,AFSA02.jpg,AFSA07.jpg,AFSA07.jpg,FS,4,num_4,48,None,,,,2017_Jul_12_1201,59.9984989784,MAFE4ImagesEEG,001,200970,
AFNE22.JPG,AFSA24.JPG,AFSA22.JPG,AFNE25.JPG,AFNE24.JPG,AFSA25.JPG,,,,,0,6,6,6,,,,,,,,,,,,,,,,,,,AFSA20.jpg,AFSA01.jpg,AFNE19.jpg,AFNE14.jpg,AFNE14.jpg,FN,3,num_4,48,None,,,,2017_Jul_12_1201,59.9984989784,MAFE4ImagesEEG,001,200970,
AMNE22.JPG,AMSA24.JPG,AMSA22.JPG,AMNE25.JPG,AMNE24.JPG,AMSA25.JPG,,,,,0,7,7,7,,,,,,,,,,,,,,,,,,,AFNE06.jpg,AFSA03.jpg,AFNE03.jpg,AFSA13.jpg,AFSA03.jpg,FS,4,num_6,48,None,,,,2017_Jul_12_1201,59.9984989784,MAFE4ImagesEEG,001,200970,
AFNE23.JPG,AFNE24.JPG,AFNE22.JPG,AFSA24.JPG,AFSA22.JPG,AFSA23.JPG,,,,,0,8,8,8,,,,,,,,,,,,,,,,,,,AFSA16.jpg,AFNE02.jpg,AFSA15.jpg,AFNE08.jpg,AFSA15.jpg,FS,4,num_2,48,None,,,,2017_Jul_12_1201,59.9984989784,MAFE4ImagesEEG,001,200970,
AMSA21.JPG,AMNE22.JPG,AMNE21.JPG,AMSA23.JPG,AMSA22.JPG,AMNE23.JPG,,,,,0,9,9,1,,,,,,,,,,,,,,,,,,,AFNE01.jpg,AFSA19.jpg,AFSA15.jpg,AFNE07.jpg,AFSA15.jpg,FS,4,num_2,48,None,,,,2017_Jul_12_1201,59.9984989784,MAFE4ImagesEEG,001,200970,
AMSA21.JPG,AMNE23.JPG,AMNE21.JPG,AMSA25.JPG,AMNE25.JPG,AMSA23.JPG,,,,,,,,,0,0,0,5,,,,,,,,,,,,,,,AMSA04.jpg,AMNE18.jpg,AMNE14.jpg,AMSA03.jpg,AMSA03.jpg,MS,2,num_4,48,None,,,,2017_Jul_12_1201,59.9984989784,MAFE4ImagesEEG,001,200970,
AFNE23.JPG,AFNE24.JPG,AFNE22.JPG,AFSA24.JPG,AFSA22.JPG,AFSA23.JPG,,,,,,,,,0,1,1,8,,,,,,,,,,,,,,,AMNE10.jpg,AMSA08.jpg,AMSA16.jpg,AMNE02.jpg,AMNE02.jpg,MN,1,num_4,48,None,,,,2017_Jul_12_1201,59.9984989784,MAFE4ImagesEEG,001,200970,
AMNE22.JPG,AMSA24.JPG,AMSA22.JPG,AMNE25.JPG,AMNE24.JPG,AMSA25.JPG,,,,,,,,,0,2,2,7,,,,,,,,,,,,,,,AMNE07.jpg,AMSA02.jpg,AMSA11.jpg,AMNE08.jpg,AMSA11.jpg,MS,2,num_2,48,None,,,,2017_Jul_12_1201,59.9984989784,MAFE4ImagesEEG,001,200970,
AFSA25.JPG,AFNE24.JPG,AFSA24.JPG,AFNE21.JPG,AFSA21.JPG,AFNE25.JPG,,,,,,,,,0,3,3,2,,,,,,,,,,,,,,,AMNE14.jpg,AMSA20.jpg,AMSA15.jpg,AMNE18.jpg,AMSA20.jpg,MS,2,num_6,48,None,,,,2017_Jul_12_1201,59.9984989784,MAFE4ImagesEEG,001,200970,
AFNE22.JPG,AFSA24.JPG,AFSA22.JPG,AFNE25.JPG,AFNE24.JPG,AFSA25.JPG,,,,,,,,,0,4,4,6,,,,,,,,,,,,,,,AMSA02.jpg,AMNE05.jpg,AMSA19.jpg,AMNE12.jpg,AMNE12.jpg,MN,1,num_4,48,None,,,,2017_Jul_12_1201,59.9984989784,MAFE4ImagesEEG,001,200970,
AMSA21.JPG,AMNE22.JPG,AMNE21.JPG,AMSA23.JPG,AMSA22.JPG,AMNE23.JPG,,,,,,,,,0,5,5,1,,,,,,,,,,,,,,,AMNE16.jpg,AMSA14.jpg,AMSA17.jpg,AMNE04.jpg,AMNE16.jpg,MN,1,num_8,48,None,,,,2017_Jul_12_1201,59.9984989784,MAFE4ImagesEEG,001,200970,
AFSA21.JPG,AFNE23.JPG,AFNE21.JPG,AFSA25.JPG,AFNE25.JPG,AFSA23.JPG,,,,,,,,,0,6,6,4,,,,,,,,,,,,,,,AMSA15.jpg,AMNE09.jpg,AMNE15.jpg,AMSA06.jpg,AMSA06.jpg,MS,2,num_4,48,None,,,,2017_Jul_12_1201,59.9984989784,MAFE4ImagesEEG,001,200970,
AMNE23.JPG,AMNE24.JPG,AMNE22.JPG,AMSA24.JPG,AMSA22.JPG,AMSA23.JPG,,,,,,,,,0,7,7,9,,,,,,,,,,,,,,,AMNE09.jpg,AMNE12.jpg,AMSA10.jpg,AMSA14.jpg,AMNE12.jpg,MN,1,num_6,48,None,,,,2017_Jul_12_1201,59.9984989784,MAFE4ImagesEEG,001,200970,
AFSA21.JPG,AFNE22.JPG,AFNE21.JPG,AFSA23.JPG,AFSA22.JPG,AFNE23.JPG,,,,,,,,,0,8,8,0,,,,,,,,,,,,,,,AMSA19.jpg,AMNE17.jpg,AMSA04.jpg,AMNE07.jpg,AMNE07.jpg,MN,1,num_4,48,None,,,,2017_Jul_12_1201,59.9984989784,MAFE4ImagesEEG,001,200970,
AMSA25.JPG,AMNE24.JPG,AMSA24.JPG,AMNE26.JPG,AMSA21.JPG,AMNE25.JPG,,,,,,,,,0,9,9,3,,,,,,,,,,,,,,,AMSA01.jpg,AMSA17.jpg,AMNE09.jpg,AMNE08.jpg,AMNE08.jpg,MN,1,num_4,48,None,,,,2017_Jul_12_1201,59.9984989784,MAFE4ImagesEEG,001,200970,
AMSA21.JPG,AMNE23.JPG,AMNE21.JPG,AMSA25.JPG,AMNE25.JPG,AMSA23.JPG,,,,,,,,,,,,,0,0,0,5,,,,,,,,,,,AFNE17.jpg,AFNE18.jpg,AFSA18.jpg,AFSA07.jpg,AFNE17.jpg,FN,3,num_8,48,None,,,,2017_Jul_12_1201,59.9984989784,MAFE4ImagesEEG,001,200970,
AFSA21.JPG,AFNE23.JPG,AFNE21.JPG,AFSA25.JPG,AFNE25.JPG,AFSA23.JPG,,,,,,,,,,,,,0,1,1,4,,,,,,,,,,,AFSA09.jpg,AFSA11.jpg,AFNE05.jpg,AFNE06.jpg,AFNE05.jpg,FN,3,num_2,48,None,,,,2017_Jul_12_1201,59.9984989784,MAFE4ImagesEEG,001,200970,
AMSA25.JPG,AMNE24.JPG,AMSA24.JPG,AMNE26.JPG,AMSA21.JPG,AMNE25.JPG,,,,,,,,,,,,,0,2,2,3,,,,,,,,,,,AFSA06.jpg,AFNE15.jpg,AFSA15.jpg,AFNE11.jpg,AFNE11.jpg,FN,3,num_4,48,None,,,,2017_Jul_12_1201,59.9984989784,MAFE4ImagesEEG,001,200970,
AMSA21.JPG,AMNE22.JPG,AMNE21.JPG,AMSA23.JPG,AMSA22.JPG,AMNE23.JPG,,,,,,,,,,,,,0,3,3,1,,,,,,,,,,,AFSA11.jpg,AFNE14.jpg,AFSA04.jpg,AFNE19.jpg,AFNE14.jpg,FN,3,num_6,48,None,,,,2017_Jul_12_1201,59.9984989784,MAFE4ImagesEEG,001,200970,
AFSA25.JPG,AFNE24.JPG,AFSA24.JPG,AFNE21.JPG,AFSA21.JPG,AFNE25.JPG,,,,,,,,,,,,,0,4,4,2,,,,,,,,,,,AFNE20.jpg,AFSA04.jpg,AFSA02.jpg,AFNE02.jpg,AFNE02.jpg,FN,3,num_4,48,None,,,,2017_Jul_12_1201,59.9984989784,MAFE4ImagesEEG,001,200970,
AMNE22.JPG,AMSA24.JPG,AMSA22.JPG,AMNE25.JPG,AMNE24.JPG,AMSA25.JPG,,,,,,,,,,,,,0,5,5,7,,,,,,,,,,,AFSA07.jpg,AFNE18.jpg,AFSA17.jpg,AFNE08.jpg,AFNE08.jpg,FN,3,num_4,48,None,,,,2017_Jul_12_1201,59.9984989784,MAFE4ImagesEEG,001,200970,
AFNE22.JPG,AFSA24.JPG,AFSA22.JPG,AFNE25.JPG,AFNE24.JPG,AFSA25.JPG,,,,,,,,,,,,,0,6,6,6,,,,,,,,,,,AFSA18.jpg,AFNE06.jpg,AFNE14.jpg,AFSA03.jpg,AFNE06.jpg,FN,3,num_6,48,None,,,,2017_Jul_12_1201,59.9984989784,MAFE4ImagesEEG,001,200970,
AFSA21.JPG,AFNE22.JPG,AFNE21.JPG,AFSA23.JPG,AFSA22.JPG,AFNE23.JPG,,,,,,,,,,,,,0,7,7,0,,,,,,,,,,,AFNE02.jpg,AFSA14.jpg,AFSA15.jpg,AFNE12.jpg,AFSA14.jpg,FS,4,num_6,48,None,,,,2017_Jul_12_1201,59.9984989784,MAFE4ImagesEEG,001,200970,
AMNE23.JPG,AMNE24.JPG,AMNE22.JPG,AMSA24.JPG,AMSA22.JPG,AMSA23.JPG,,,,,,,,,,,,,0,8,8,9,,,,,,,,,,,AFNE16.jpg,AFSA05.jpg,AFSA11.jpg,AFNE11.jpg,AFNE16.jpg,FN,3,num_8,48,None,,,,2017_Jul_12_1201,59.9984989784,MAFE4ImagesEEG,001,200970,
AFNE23.JPG,AFNE24.JPG,AFNE22.JPG,AFSA24.JPG,AFSA22.JPG,AFSA23.JPG,,,,,,,,,,,,,0,9,9,8,,,,,,,,,,,AFSA14.jpg,AFSA02.jpg,AFNE13.jpg,AFNE10.jpg,AFNE10.jpg,FN,3,num_4,48,None,,,,2017_Jul_12_1201,59.9984989784,MAFE4ImagesEEG,001,200970,
AMSA21.JPG,AMNE22.JPG,AMNE21.JPG,AMSA23.JPG,AMSA22.JPG,AMNE23.JPG,,,,,,,,,,,,,,,,,0,0,0,1,,,,,,,AMNE09.jpg,AMSA01.jpg,AMNE02.jpg,AMSA20.jpg,AMNE02.jpg,MN,1,num_2,48,None,,,,2017_Jul_12_1201,59.9984989784,MAFE4ImagesEEG,001,200970,
AFNE22.JPG,AFSA24.JPG,AFSA22.JPG,AFNE25.JPG,AFNE24.JPG,AFSA25.JPG,,,,,,,,,,,,,,,,,0,1,1,6,,,,,,,AMNE14.jpg,AMSA15.jpg,AMNE11.jpg,AMSA04.jpg,AMNE11.jpg,MN,1,num_2,48,None,,,,2017_Jul_12_1201,59.9984989784,MAFE4ImagesEEG,001,200970,
AFSA21.JPG,AFNE22.JPG,AFNE21.JPG,AFSA23.JPG,AFSA22.JPG,AFNE23.JPG,,,,,,,,,,,,,,,,,0,2,2,0,,,,,,,AMSA17.jpg,AMNE16.jpg,AMSA07.jpg,AMNE10.jpg,AMNE10.jpg,MN,1,num_4,48,None,,,,2017_Jul_12_1201,59.9984989784,MAFE4ImagesEEG,001,200970,
AFNE23.JPG,AFNE24.JPG,AFNE22.JPG,AFSA24.JPG,AFSA22.JPG,AFSA23.JPG,,,,,,,,,,,,,,,,,0,3,3,8,,,,,,,AMNE14.jpg,AMSA17.jpg,AMSA07.jpg,AMNE05.jpg,AMNE05.jpg,MN,1,num_4,48,None,,,,2017_Jul_12_1201,59.9984989784,MAFE4ImagesEEG,001,200970,
AMSA21.JPG,AMNE23.JPG,AMNE21.JPG,AMSA25.JPG,AMNE25.JPG,AMSA23.JPG,,,,,,,,,,,,,,,,,0,4,4,5,,,,,,,AMSA01.jpg,AMSA17.jpg,AMNE08.jpg,AMNE07.jpg,AMSA01.jpg,MS,2,num_8,48,None,,,,2017_Jul_12_1201,59.9984989784,MAFE4ImagesEEG,001,200970,
AMNE22.JPG,AMSA24.JPG,AMSA22.JPG,AMNE25.JPG,AMNE24.JPG,AMSA25.JPG,,,,,,,,,,,,,,,,,0,5,5,7,,,,,,,AMNE15.jpg,AMSA02.jpg,AMNE10.jpg,AMSA09.jpg,AMSA02.jpg,MS,2,num_6,48,None,,,,2017_Jul_12_1201,59.9984989784,MAFE4ImagesEEG,001,200970,
AMNE23.JPG,AMNE24.JPG,AMNE22.JPG,AMSA24.JPG,AMSA22.JPG,AMSA23.JPG,,,,,,,,,,,,,,,,,0,6,6,9,,,,,,,AMSA07.jpg,AMNE12.jpg,AMNE11.jpg,AMSA19.jpg,AMSA19.jpg,MS,2,num_4,48,None,,,,2017_Jul_12_1201,59.9984989784,MAFE4ImagesEEG,001,200970,
AFSA25.JPG,AFNE24.JPG,AFSA24.JPG,AFNE21.JPG,AFSA21.JPG,AFNE25.JPG,,,,,,,,,,,,,,,,,0,7,7,2,,,,,,,AMNE05.jpg,AMNE07.jpg,AMSA11.jpg,AMSA20.jpg,AMSA11.jpg,MS,2,num_2,48,None,,,,2017_Jul_12_1201,59.9984989784,MAFE4ImagesEEG,001,200970,
AFSA21.JPG,AFNE23.JPG,AFNE21.JPG,AFSA25.JPG,AFNE25.JPG,AFSA23.JPG,,,,,,,,,,,,,,,,,0,8,8,4,,,,,,,AMNE07.jpg,AMSA17.jpg,AMNE05.jpg,AMSA03.jpg,AMSA03.jpg,MS,2,num_4,48,None,,,,2017_Jul_12_1201,59.9984989784,MAFE4ImagesEEG,001,200970,
AMSA25.JPG,AMNE24.JPG,AMSA24.JPG,AMNE26.JPG,AMSA21.JPG,AMNE25.JPG,,,,,,,,,,,,,,,,,0,9,9,3,,,,,,,AMSA10.jpg,AMNE06.jpg,AMSA19.jpg,AMNE17.jpg,AMNE17.jpg,MN,1,num_4,48,None,,,,2017_Jul_12_1201,59.9984989784,MAFE4ImagesEEG,001,200970,
AFSA21.JPG,AFNE23.JPG,AFNE21.JPG,AFSA25.JPG,AFNE25.JPG,AFSA23.JPG,,,,,,,,,,,,,,,,,,,,,0,0,0,4,,,AFNE06.jpg,AFNE19.jpg,AFSA06.jpg,AFSA09.jpg,AFNE06.jpg,FN,3,num_8,48,None,,,,2017_Jul_12_1201,59.9984989784,MAFE4ImagesEEG,001,200970,
AMNE22.JPG,AMSA24.JPG,AMSA22.JPG,AMNE25.JPG,AMNE24.JPG,AMSA25.JPG,,,,,,,,,,,,,,,,,,,,,0,1,1,7,,,AFNE15.jpg,AFNE20.jpg,AFSA19.jpg,AFSA08.jpg,AFNE15.jpg,FN,3,num_8,48,None,,,,2017_Jul_12_1201,59.9984989784,MAFE4ImagesEEG,001,200970,
AFSA25.JPG,AFNE24.JPG,AFSA24.JPG,AFNE21.JPG,AFSA21.JPG,AFNE25.JPG,,,,,,,,,,,,,,,,,,,,,0,2,2,2,,,AFNE05.jpg,AFSA17.jpg,AFSA10.jpg,AFNE13.jpg,AFSA17.jpg,FS,4,num_6,48,None,,,,2017_Jul_12_1201,59.9984989784,MAFE4ImagesEEG,001,200970,
AMSA21.JPG,AMNE22.JPG,AMNE21.JPG,AMSA23.JPG,AMSA22.JPG,AMNE23.JPG,,,,,,,,,,,,,,,,,,,,,0,3,3,1,,,AFSA16.jpg,AFNE10.jpg,AFNE08.jpg,AFSA07.jpg,AFSA16.jpg,FS,4,num_8,48,None,,,,2017_Jul_12_1201,59.9984989784,MAFE4ImagesEEG,001,200970,
AMSA21.JPG,AMNE23.JPG,AMNE21.JPG,AMSA25.JPG,AMNE25.JPG,AMSA23.JPG,,,,,,,,,,,,,,,,,,,,,0,4,4,5,,,AFNE14.jpg,AFSA07.jpg,AFNE06.jpg,AFSA11.jpg,AFSA11.jpg,FS,4,num_4,48,None,,,,2017_Jul_12_1201,59.9984989784,MAFE4ImagesEEG,001,200970,
AFSA21.JPG,AFNE22.JPG,AFNE21.JPG,AFSA23.JPG,AFSA22.JPG,AFNE23.JPG,,,,,,,,,,,,,,,,,,,,,0,5,5,0,,,AFNE06.jpg,AFNE01.jpg,AFSA20.jpg,AFSA04.jpg,AFNE06.jpg,FN,3,num_8,48,None,,,,2017_Jul_12_1201,59.9984989784,MAFE4ImagesEEG,001,200970,
AMNE23.JPG,AMNE24.JPG,AMNE22.JPG,AMSA24.JPG,AMSA22.JPG,AMSA23.JPG,,,,,,,,,,,,,,,,,,,,,0,6,6,9,,,AFNE11.jpg,AFSA03.jpg,AFSA04.jpg,AFNE02.jpg,AFNE02.jpg,FN,3,num_4,48,None,,,,2017_Jul_12_1201,59.9984989784,MAFE4ImagesEEG,001,200970,
AMSA25.JPG,AMNE24.JPG,AMSA24.JPG,AMNE26.JPG,AMSA21.JPG,AMNE25.JPG,,,,,,,,,,,,,,,,,,,,,0,7,7,3,,,AFSA07.jpg,AFNE10.jpg,AFNE20.jpg,AFSA08.jpg,AFSA07.jpg,FS,4,num_8,48,None,,,,2017_Jul_12_1201,59.9984989784,MAFE4ImagesEEG,001,200970,
AFNE22.JPG,AFSA24.JPG,AFSA22.JPG,AFNE25.JPG,AFNE24.JPG,AFSA25.JPG,,,,,,,,,,,,,,,,,,,,,0,8,8,6,,,AFSA01.jpg,AFNE14.jpg,AFSA17.jpg,AFNE09.jpg,AFSA01.jpg,FS,4,num_8,48,None,,,,2017_Jul_12_1201,59.9984989784,MAFE4ImagesEEG,001,200970,
AFNE23.JPG,AFNE24.JPG,AFNE22.JPG,AFSA24.JPG,AFSA22.JPG,AFSA23.JPG,,,,,,,,,,,,,,,,,,,,,0,9,9,8,,,AFSA06.jpg,AFNE01.jpg,AFSA03.jpg,AFNE16.jpg,AFNE01.jpg,FN,3,num_6,48,None,,,,2017_Jul_12_1201,59.9984989784,MAFE4ImagesEEG,001,200970,
,,,,,,,,,,,,,,,,,,,,,,,,,,,,,,,,,,,,,,,,,,space,213.61614415,,2017_Jul_12_1201,59.9984989784,MAFE4ImagesEEG,001,200970,
AFNE01.JPG,AFNE01.JPG,AFNE01.JPG,AFNE01.JPG,AFNE01.JPG,AFNE01.JPG,0,0,0,2,,,,,,,,,,,,,,,,,,,,,,,AMNE12.jpg,AMSA08.jpg,AMNE05.jpg,AMSA14.jpg,AMNE12.jpg,MN,1,num_8,32,num_6,,,1.3667582057,2017_Jul_12_1201,59.9984989784,MAFE4ImagesEEG,001,200970,
AFNE01.JPG,AFNE01.JPG,AFNE01.JPG,AFNE01.JPG,AFNE01.JPG,AFNE01.JPG,0,1,1,5,,,,,,,,,,,,,,,,,,,,,,,AMSA12.jpg,AMNE05.jpg,AMSA15.jpg,AMNE20.jpg,AMSA15.jpg,MS,2,num_2,32,num_4,,,1.13344033202,2017_Jul_12_1201,59.9984989784,MAFE4ImagesEEG,001,200970,
AFNE01.JPG,AFNE01.JPG,AFNE01.JPG,AFNE01.JPG,AFNE01.JPG,AFNE01.JPG,0,2,2,4,,,,,,,,,,,,,,,,,,,,,,,AMNE16.jpg,AMSA14.jpg,AMSA05.jpg,AMNE14.jpg,AMNE16.jpg,MN,1,num_8,16,num_8,,,1.08363883756,2017_Jul_12_1201,59.9984989784,MAFE4ImagesEEG,001,200970,
AFNE01.JPG,AFNE01.JPG,AFNE01.JPG,AFNE01.JPG,AFNE01.JPG,AFNE01.JPG,0,3,3,0,,,,,,,,,,,,,,,,,,,,,,,AMSA14.jpg,AMSA12.jpg,AMNE06.jpg,AMNE02.jpg,AMSA12.jpg,MS,2,num_6,32,num_2,,,1.06674197619,2017_Jul_12_1201,59.9984989784,MAFE4ImagesEEG,001,200970,
AFNE01.JPG,AFNE01.JPG,AFNE01.JPG,AFNE01.JPG,AFNE01.JPG,AFNE01.JPG,0,4,4,3,,,,,,,,,,,,,,,,,,,,,,,AMSA09.jpg,AMNE16.jpg,AMNE19.jpg,AMSA16.jpg,AMNE16.jpg,MN,1,num_6,32,num_4,,,0.917124201078,2017_Jul_12_1201,59.9984989784,MAFE4ImagesEEG,001,200970,
AFNE01.JPG,AFNE01.JPG,AFNE01.JPG,AFNE01.JPG,AFNE01.JPG,AFNE01.JPG,0,5,5,8,,,,,,,,,,,,,,,,,,,,,,,AMNE20.jpg,AMSA02.jpg,AMNE08.jpg,AMSA06.jpg,AMSA02.jpg,MS,2,num_6,32,num_2,,,3.19996163971,2017_Jul_12_1201,59.9984989784,MAFE4ImagesEEG,001,200970,
AFNE01.JPG,AFNE01.JPG,AFNE01.JPG,AFNE01.JPG,AFNE01.JPG,AFNE01.JPG,0,6,6,7,,,,,,,,,,,,,,,,,,,,,,,AMNE05.jpg,AMNE04.jpg,AMSA04.jpg,AMSA10.jpg,AMNE04.jpg,MN,1,num_6,16,num_6,,,1.03341877833,2017_Jul_12_1201,59.9984989784,MAFE4ImagesEEG,001,200970,
AFNE01.JPG,AFNE01.JPG,AFNE01.JPG,AFNE01.JPG,AFNE01.JPG,AFNE01.JPG,0,7,7,1,,,,,,,,,,,,,,,,,,,,,,,AMNE02.jpg,AMSA18.jpg,AMSA10.jpg,AMNE09.jpg,AMSA18.jpg,MS,2,num_6,32,num_4,,,1.06678848341,2017_Jul_12_1201,59.9984989784,MAFE4ImagesEEG,001,200970,
AFNE01.JPG,AFNE01.JPG,AFNE01.JPG,AFNE01.JPG,AFNE01.JPG,AFNE01.JPG,0,8,8,6,,,,,,,,,,,,,,,,,,,,,,,AMSA07.jpg,AMSA12.jpg,AMNE12.jpg,AMNE07.jpg,AMNE12.jpg,MN,1,num_2,32,num_8,,,0.933509162394,2017_Jul_12_1201,59.9984989784,MAFE4ImagesEEG,001,200970,
AFNE01.JPG,AFNE01.JPG,AFNE01.JPG,AFNE01.JPG,AFNE01.JPG,AFNE01.JPG,0,9,9,9,,,,,,,,,,,,,,,,,,,,,,,AMSA15.jpg,AMNE10.jpg,AMNE13.jpg,AMSA09.jpg,AMNE10.jpg,MN,1,num_6,32,num_2,,,1.77664909675,2017_Jul_12_1201,59.9984989784,MAFE4ImagesEEG,001,200970,
AFNE01.JPG,AFNE01.JPG,AFNE01.JPG,AFNE01.JPG,AFNE01.JPG,AFNE01.JPG,1,0,10,6,,,,,,,,,,,,,,,,,,,,,,,AMNE16.jpg,AMSA17.jpg,AMSA02.jpg,AMNE20.jpg,AMSA02.jpg,MS,2,num_2,32,num_6,,,1.23344488651,2017_Jul_12_1201,59.9984989784,MAFE4ImagesEEG,001,200970,
AFNE01.JPG,AFNE01.JPG,AFNE01.JPG,AFNE01.JPG,AFNE01.JPG,AFNE01.JPG,1,1,11,8,,,,,,,,,,,,,,,,,,,,,,,AMNE14.jpg,AMSA09.jpg,AMSA14.jpg,AMNE01.jpg,AMNE01.jpg,MN,1,num_4,16,num_4,,,0.800157996127,2017_Jul_12_1201,59.9984989784,MAFE4ImagesEEG,001,200970,
AFNE01.JPG,AFNE01.JPG,AFNE01.JPG,AFNE01.JPG,AFNE01.JPG,AFNE01.JPG,1,2,12,1,,,,,,,,,,,,,,,,,,,,,,,AMNE04.jpg,AMSA06.jpg,AMNE18.jpg,AMSA18.jpg,AMNE04.jpg,MN,1,num_8,32,num_4,,,1.35008137161,2017_Jul_12_1201,59.9984989784,MAFE4ImagesEEG,001,200970,
AFNE01.JPG,AFNE01.JPG,AFNE01.JPG,AFNE01.JPG,AFNE01.JPG,AFNE01.JPG,1,3,13,3,,,,,,,,,,,,,,,,,,,,,,,AMNE11.jpg,AMNE01.jpg,AMSA09.jpg,AMSA17.jpg,AMSA17.jpg,MS,2,num_4,32,num_6,,,1.48345081997,2017_Jul_12_1201,59.9984989784,MAFE4ImagesEEG,001,200970,
AFNE01.JPG,AFNE01.JPG,AFNE01.JPG,AFNE01.JPG,AFNE01.JPG,AFNE01.JPG,1,4,14,5,,,,,,,,,,,,,,,,,,,,,,,AMNE13.jpg,AMNE06.jpg,AMSA12.jpg,AMSA10.jpg,AMSA10.jpg,MS,2,num_4,16,num_4,,,0.800117583014,2017_Jul_12_1201,59.9984989784,MAFE4ImagesEEG,001,200970,
AFNE01.JPG,AFNE01.JPG,AFNE01.JPG,AFNE01.JPG,AFNE01.JPG,AFNE01.JPG,1,5,15,9,,,,,,,,,,,,,,,,,,,,,,,AMSA12.jpg,AMSA01.jpg,AMNE13.jpg,AMNE12.jpg,AMSA01.jpg,MS,2,num_6,16,num_6,,,1.11675740383,2017_Jul_12_1201,59.9984989784,MAFE4ImagesEEG,001,200970,
AFNE01.JPG,AFNE01.JPG,AFNE01.JPG,AFNE01.JPG,AFNE01.JPG,AFNE01.JPG,1,6,16,0,,,,,,,,,,,,,,,,,,,,,,,AMNE03.jpg,AMNE02.jpg,AMSA17.jpg,AMSA13.jpg,AMNE03.jpg,MN,1,num_8,32,num_6,,,1.50010135351,2017_Jul_12_1201,59.9984989784,MAFE4ImagesEEG,001,200970,
AFNE01.JPG,AFNE01.JPG,AFNE01.JPG,AFNE01.JPG,AFNE01.JPG,AFNE01.JPG,1,7,17,4,,,,,,,,,,,,,,,,,,,,,,,AMSA11.jpg,AMSA07.jpg,AMNE18.jpg,AMNE13.jpg,AMNE13.jpg,MN,1,num_4,16,num_4,,,0.950143659022,2017_Jul_12_1201,59.9984989784,MAFE4ImagesEEG,001,200970,
AFNE01.JPG,AFNE01.JPG,AFNE01.JPG,AFNE01.JPG,AFNE01.JPG,AFNE01.JPG,1,8,18,2,,,,,,,,,,,,,,,,,,,,,,,AMSA10.jpg,AMNE06.jpg,AMNE19.jpg,AMSA17.jpg,AMNE06.jpg,MN,1,num_6,32,num_2,,,0.916735465173,2017_Jul_12_1201,59.9984989784,MAFE4ImagesEEG,001,200970,
AFNE01.JPG,AFNE01.JPG,AFNE01.JPG,AFNE01.JPG,AFNE01.JPG,AFNE01.JPG,1,9,19,7,,,,,,,,,,,,,,,,,,,,,,,AMNE13.jpg,AMNE19.jpg,AMSA12.jpg,AMSA14.jpg,AMNE19.jpg,MN,1,num_6,32,num_8,,,0.816769399447,2017_Jul_12_1201,59.9984989784,MAFE4ImagesEEG,001,200970,
AFNE01.JPG,AFNE01.JPG,AFNE01.JPG,AFNE01.JPG,AFNE01.JPG,AFNE01.JPG,2,0,20,0,,,,,,,,,,,,,,,,,,,,,,,AMNE06.jpg,AMSA01.jpg,AMSA08.jpg,AMNE13.jpg,AMSA08.jpg,MS,2,num_2,32,num_4,,,1.20006235153,2017_Jul_12_1201,59.9984989784,MAFE4ImagesEEG,001,200970,
AFNE01.JPG,AFNE01.JPG,AFNE01.JPG,AFNE01.JPG,AFNE01.JPG,AFNE01.JPG,2,1,21,3,,,,,,,,,,,,,,,,,,,,,,,AMSA08.jpg,AMNE15.jpg,AMSA15.jpg,AMNE18.jpg,AMSA08.jpg,MS,2,num_8,16,num_8,,,0.700097312219,2017_Jul_12_1201,59.9984989784,MAFE4ImagesEEG,001,200970,
AFNE01.JPG,AFNE01.JPG,AFNE01.JPG,AFNE01.JPG,AFNE01.JPG,AFNE01.JPG,2,2,22,7,,,,,,,,,,,,,,,,,,,,,,,AMSA18.jpg,AMNE01.jpg,AMSA12.jpg,AMNE08.jpg,AMNE01.jpg,MN,1,num_6,16,num_6,,,0.483506949386,2017_Jul_12_1201,59.9984989784,MAFE4ImagesEEG,001,200970,
AFNE01.JPG,AFNE01.JPG,AFNE01.JPG,AFNE01.JPG,AFNE01.JPG,AFNE01.JPG,2,3,23,9,,,,,,,,,,,,,,,,,,,,,,,AMSA15.jpg,AMSA16.jpg,AMNE02.jpg,AMNE03.jpg,AMNE02.jpg,MN,1,num_2,16,num_2,,,0.933495370904,2017_Jul_12_1201,59.9984989784,MAFE4ImagesEEG,001,200970,
AFNE01.JPG,AFNE01.JPG,AFNE01.JPG,AFNE01.JPG,AFNE01.JPG,AFNE01.JPG,2,4,24,5,,,,,,,,,,,,,,,,,,,,,,,AMSA01.jpg,AMNE03.jpg,AMNE09.jpg,AMSA15.jpg,AMNE03.jpg,MN,1,num_6,16,num_6,,,0.966775269015,2017_Jul_12_1201,59.9984989784,MAFE4ImagesEEG,001,200970,
AFNE01.JPG,AFNE01.JPG,AFNE01.JPG,AFNE01.JPG,AFNE01.JPG,AFNE01.JPG,2,5,25,2,,,,,,,,,,,,,,,,,,,,,,,AMNE09.jpg,AMSA16.jpg,AMSA06.jpg,AMNE05.jpg,AMSA06.jpg,MS,2,num_2,32,num_4,,,0.850180479931,2017_Jul_12_1201,59.9984989784,MAFE4ImagesEEG,001,200970,
AFNE01.JPG,AFNE01.JPG,AFNE01.JPG,AFNE01.JPG,AFNE01.JPG,AFNE01.JPG,2,6,26,1,,,,,,,,,,,,,,,,,,,,,,,AMNE17.jpg,AMSA17.jpg,AMNE15.jpg,AMSA01.jpg,AMSA17.jpg,MS,2,num_6,32,num_8,,,1.08344831853,2017_Jul_12_1201,59.9984989784,MAFE4ImagesEEG,001,200970,
AFNE01.JPG,AFNE01.JPG,AFNE01.JPG,AFNE01.JPG,AFNE01.JPG,AFNE01.JPG,2,7,27,6,,,,,,,,,,,,,,,,,,,,,,,AMSA06.jpg,AMNE03.jpg,AMSA09.jpg,AMNE07.jpg,AMNE07.jpg,MN,1,num_4,16,num_4,,,0.733418264892,2017_Jul_12_1201,59.9984989784,MAFE4ImagesEEG,001,200970,
AFNE01.JPG,AFNE01.JPG,AFNE01.JPG,AFNE01.JPG,AFNE01.JPG,AFNE01.JPG,2,8,28,8,,,,,,,,,,,,,,,,,,,,,,,AMNE17.jpg,AMSA20.jpg,AMNE09.jpg,AMSA01.jpg,AMNE17.jpg,MN,1,num_8,16,num_8,,,0.850202290341,2017_Jul_12_1201,59.9984989784,MAFE4ImagesEEG,001,200970,
AFNE01.JPG,AFNE01.JPG,AFNE01.JPG,AFNE01.JPG,AFNE01.JPG,AFNE01.JPG,2,9,29,4,,,,,,,,,,,,,,,,,,,,,,,AMSA12.jpg,AMSA19.jpg,AMNE01.jpg,AMNE04.jpg,AMNE01.jpg,MN,1,num_2,32,num_8,,,0.850169895682,2017_Jul_12_1201,59.9984989784,MAFE4ImagesEEG,001,200970,
AFNE01.JPG,AFNE01.JPG,AFNE01.JPG,AFNE01.JPG,AFNE01.JPG,AFNE01.JPG,3,0,30,8,,,,,,,,,,,,,,,,,,,,,,,AMNE11.jpg,AMNE14.jpg,AMSA10.jpg,AMSA03.jpg,AMNE11.jpg,MN,1,num_8,16,num_8,,,0.550180929014,2017_Jul_12_1201,59.9984989784,MAFE4ImagesEEG,001,200970,
AFNE01.JPG,AFNE01.JPG,AFNE01.JPG,AFNE01.JPG,AFNE01.JPG,AFNE01.JPG,3,1,31,5,,,,,,,,,,,,,,,,,,,,,,,AMSA13.jpg,AMNE17.jpg,AMSA06.jpg,AMNE18.jpg,AMSA13.jpg,MS,2,num_8,32,num_6,,,1.000126692,2017_Jul_12_1201,59.9984989784,MAFE4ImagesEEG,001,200970,
AFNE01.JPG,AFNE01.JPG,AFNE01.JPG,AFNE01.JPG,AFNE01.JPG,AFNE01.JPG,3,2,32,1,,,,,,,,,,,,,,,,,,,,,,,AMNE15.jpg,AMSA15.jpg,AMNE10.jpg,AMSA10.jpg,AMNE15.jpg,MN,1,num_8,32,num_2,,,1.08346211002,2017_Jul_12_1201,59.9984989784,MAFE4ImagesEEG,001,200970,
AFNE01.JPG,AFNE01.JPG,AFNE01.JPG,AFNE01.JPG,AFNE01.JPG,AFNE01.JPG,3,3,33,6,,,,,,,,,,,,,,,,,,,,,,,AMSA06.jpg,AMSA13.jpg,AMNE03.jpg,AMNE19.jpg,AMNE19.jpg,MN,1,num_4,16,num_4,,,0.900073064491,2017_Jul_12_1201,59.9984989784,MAFE4ImagesEEG,001,200970,
AFNE01.JPG,AFNE01.JPG,AFNE01.JPG,AFNE01.JPG,AFNE01.JPG,AFNE01.JPG,3,4,34,9,,,,,,,,,,,,,,,,,,,,,,,AMSA19.jpg,AMSA07.jpg,AMNE03.jpg,AMNE20.jpg,AMSA19.jpg,MS,2,num_8,16,num_8,,,0.683737368556,2017_Jul_12_1201,59.9984989784,MAFE4ImagesEEG,001,200970,
AFNE01.JPG,AFNE01.JPG,AFNE01.JPG,AFNE01.JPG,AFNE01.JPG,AFNE01.JPG,3,5,35,0,,,,,,,,,,,,,,,,,,,,,,,AMSA18.jpg,AMSA14.jpg,AMNE05.jpg,AMNE18.jpg,AMSA18.jpg,MS,2,num_8,32,num_4,,,0.883423813852,2017_Jul_12_1201,59.9984989784,MAFE4ImagesEEG,001,200970,
AFNE01.JPG,AFNE01.JPG,AFNE01.JPG,AFNE01.JPG,AFNE01.JPG,AFNE01.JPG,3,6,36,2,,,,,,,,,,,,,,,,,,,,,,,AMNE04.jpg,AMSA04.jpg,AMNE16.jpg,AMSA05.jpg,AMSA04.jpg,MS,2,num_6,16,num_6,,,0.733457395108,2017_Jul_12_1201,59.9984989784,MAFE4ImagesEEG,001,200970,
AFNE01.JPG,AFNE01.JPG,AFNE01.JPG,AFNE01.JPG,AFNE01.JPG,AFNE01.JPG,3,7,37,7,,,,,,,,,,,,,,,,,,,,,,,AMNE02.jpg,AMSA20.jpg,AMNE10.jpg,AMSA17.jpg,AMSA17.jpg,MS,2,num_4,16,num_4,,,1.2167481666,2017_Jul_12_1201,59.9984989784,MAFE4ImagesEEG,001,200970,
AFNE01.JPG,AFNE01.JPG,AFNE01.JPG,AFNE01.JPG,AFNE01.JPG,AFNE01.JPG,3,8,38,3,,,,,,,,,,,,,,,,,,,,,,,AMNE16.jpg,AMSA18.jpg,AMSA16.jpg,AMNE18.jpg,AMSA18.jpg,MS,2,num_6,16,num_6,,,0.400127589935,2017_Jul_12_1201,59.9984989784,MAFE4ImagesEEG,001,200970,
AFNE01.JPG,AFNE01.JPG,AFNE01.JPG,AFNE01.JPG,AFNE01.JPG,AFNE01.JPG,3,9,39,4,,,,,,,,,,,,,,,,,,,,,,,AMNE20.jpg,AMSA13.jpg,AMNE10.jpg,AMSA17.jpg,AMSA17.jpg,MS,2,num_4,32,num_6,,,1.48340303008,2017_Jul_12_1201,59.9984989784,MAFE4ImagesEEG,001,200970,
AFNE01.JPG,AFNE01.JPG,AFNE01.JPG,AFNE01.JPG,AFNE01.JPG,AFNE01.JPG,4,0,40,5,,,,,,,,,,,,,,,,,,,,,,,AMSA03.jpg,AMSA02.jpg,AMNE10.jpg,AMNE01.jpg,AMNE10.jpg,MN,1,num_2,16,num_2,,,0.616778893396,2017_Jul_12_1201,59.9984989784,MAFE4ImagesEEG,001,200970,
AFNE01.JPG,AFNE01.JPG,AFNE01.JPG,AFNE01.JPG,AFNE01.JPG,AFNE01.JPG,4,1,41,8,,,,,,,,,,,,,,,,,,,,,,,AMNE14.jpg,AMSA18.jpg,AMNE15.jpg,AMSA19.jpg,AMNE15.jpg,MN,1,num_2,16,num_2,,,0.716760354582,2017_Jul_12_1201,59.9984989784,MAFE4ImagesEEG,001,200970,
AFNE01.JPG,AFNE01.JPG,AFNE01.JPG,AFNE01.JPG,AFNE01.JPG,AFNE01.JPG,4,2,42,9,,,,,,,,,,,,,,,,,,,,,,,AMNE02.jpg,AMSA17.jpg,AMSA11.jpg,AMNE17.jpg,AMNE02.jpg,MN,1,num_8,32,num_6,,,1.41675118124,2017_Jul_12_1201,59.9984989784,MAFE4ImagesEEG,001,200970,
AFNE01.JPG,AFNE01.JPG,AFNE01.JPG,AFNE01.JPG,AFNE01.JPG,AFNE01.JPG,4,3,43,0,,,,,,,,,,,,,,,,,,,,,,,AMSA20.jpg,AMSA12.jpg,AMNE05.jpg,AMNE19.jpg,AMSA20.jpg,MS,2,num_8,32,num_4,,,0.816807567375,2017_Jul_12_1201,59.9984989784,MAFE4ImagesEEG,001,200970,
AFNE01.JPG,AFNE01.JPG,AFNE01.JPG,AFNE01.JPG,AFNE01.JPG,AFNE01.JPG,4,4,44,2,,,,,,,,,,,,,,,,,,,,,,,AMSA17.jpg,AMSA02.jpg,AMNE15.jpg,AMNE09.jpg,AMNE09.jpg,MN,1,num_4,16,num_4,,,0.816761380993,2017_Jul_12_1201,59.9984989784,MAFE4ImagesEEG,001,200970,
AFNE01.JPG,AFNE01.JPG,AFNE01.JPG,AFNE01.JPG,AFNE01.JPG,AFNE01.JPG,4,5,45,6,,,,,,,,,,,,,,,,,,,,,,,AMSA14.jpg,AMSA03.jpg,AMNE01.jpg,AMNE07.jpg,AMNE01.jpg,MN,1,num_2,16,num_2,,,0.533485812601,2017_Jul_12_1201,59.9984989784,MAFE4ImagesEEG,001,200970,
AFNE01.JPG,AFNE01.JPG,AFNE01.JPG,AFNE01.JPG,AFNE01.JPG,AFNE01.JPG,4,6,46,4,,,,,,,,,,,,,,,,,,,,,,,AMSA02.jpg,AMSA03.jpg,AMNE10.jpg,AMNE14.jpg,AMNE10.jpg,MN,1,num_2,32,num_8,,,1.36676045065,2017_Jul_12_1201,59.9984989784,MAFE4ImagesEEG,001,200970,
AFNE01.JPG,AFNE01.JPG,AFNE01.JPG,AFNE01.JPG,AFNE01.JPG,AFNE01.JPG,4,7,47,1,,,,,,,,,,,,,,,,,,,,,,,AMNE03.jpg,AMSA17.jpg,AMSA20.jpg,AMNE07.jpg,AMNE07.jpg,MN,1,num_4,32,num_6,,,0.966656274628,2017_Jul_12_1201,59.9984989784,MAFE4ImagesEEG,001,200970,
AFNE01.JPG,AFNE01.JPG,AFNE01.JPG,AFNE01.JPG,AFNE01.JPG,AFNE01.JPG,4,8,48,7,,,,,,,,,,,,,,,,,,,,,,,AMNE08.jpg,AMSA15.jpg,AMNE05.jpg,AMSA01.jpg,AMSA15.jpg,MS,2,num_6,32,num_8,,,1.01674322714,2017_Jul_12_1201,59.9984989784,MAFE4ImagesEEG,001,200970,
AFNE01.JPG,AFNE01.JPG,AFNE01.JPG,AFNE01.JPG,AFNE01.JPG,AFNE01.JPG,4,9,49,3,,,,,,,,,,,,,,,,,,,,,,,AMNE20.jpg,AMNE17.jpg,AMSA19.jpg,AMSA15.jpg,AMSA15.jpg,MS,2,num_4,16,num_4,,,0.433516860241,2017_Jul_12_1201,59.9984989784,MAFE4ImagesEEG,001,200970,
AFNE01.JPG,AFNE01.JPG,AFNE01.JPG,AFNE01.JPG,AFNE01.JPG,AFNE01.JPG,5,0,50,1,,,,,,,,,,,,,,,,,,,,,,,AMNE02.jpg,AMSA13.jpg,AMNE12.jpg,AMSA10.jpg,AMNE12.jpg,MN,1,num_2,16,num_2,,,0.766810101224,2017_Jul_12_1201,59.9984989784,MAFE4ImagesEEG,001,200970,
AFNE01.JPG,AFNE01.JPG,AFNE01.JPG,AFNE01.JPG,AFNE01.JPG,AFNE01.JPG,5,1,51,8,,,,,,,,,,,,,,,,,,,,,,,AMNE16.jpg,AMSA12.jpg,AMNE15.jpg,AMSA16.jpg,AMNE16.jpg,MN,1,num_8,16,num_8,,,0.41683296999,2017_Jul_12_1201,59.9984989784,MAFE4ImagesEEG,001,200970,
AFNE01.JPG,AFNE01.JPG,AFNE01.JPG,AFNE01.JPG,AFNE01.JPG,AFNE01.JPG,5,2,52,0,,,,,,,,,,,,,,,,,,,,,,,AMSA14.jpg,AMSA07.jpg,AMNE02.jpg,AMNE03.jpg,AMNE02.jpg,MN,1,num_2,32,num_4,,,0.817120288033,2017_Jul_12_1201,59.9984989784,MAFE4ImagesEEG,001,200970,
AFNE01.JPG,AFNE01.JPG,AFNE01.JPG,AFNE01.JPG,AFNE01.JPG,AFNE01.JPG,5,3,53,9,,,,,,,,,,,,,,,,,,,,,,,AMNE05.jpg,AMSA20.jpg,AMNE14.jpg,AMSA04.jpg,AMSA20.jpg,MS,2,num_6,32,num_2,,,0.883420285769,2017_Jul_12_1201,59.9984989784,MAFE4ImagesEEG,001,200970,
AFNE01.JPG,AFNE01.JPG,AFNE01.JPG,AFNE01.JPG,AFNE01.JPG,AFNE01.JPG,5,4,54,6,,,,,,,,,,,,,,,,,,,,,,,AMNE10.jpg,AMSA06.jpg,AMNE13.jpg,AMSA20.jpg,AMSA06.jpg,MS,2,num_6,16,num_6,,,0.966482113348,2017_Jul_12_1201,59.9984989784,MAFE4ImagesEEG,001,200970,
AFNE01.JPG,AFNE01.JPG,AFNE01.JPG,AFNE01.JPG,AFNE01.JPG,AFNE01.JPG,5,5,55,5,,,,,,,,,,,,,,,,,,,,,,,AMSA10.jpg,AMSA12.jpg,AMNE19.jpg,AMNE18.jpg,AMNE18.jpg,MN,1,num_4,32,num_2,,,0.95009137853,2017_Jul_12_1201,59.9984989784,MAFE4ImagesEEG,001,200970,
AFNE01.JPG,AFNE01.JPG,AFNE01.JPG,AFNE01.JPG,AFNE01.JPG,AFNE01.JPG,5,6,56,7,,,,,,,,,,,,,,,,,,,,,,,AMSA10.jpg,AMSA01.jpg,AMNE09.jpg,AMNE04.jpg,AMSA01.jpg,MS,2,num_6,32,num_4,,,0.88343471894,2017_Jul_12_1201,59.9984989784,MAFE4ImagesEEG,001,200970,
AFNE01.JPG,AFNE01.JPG,AFNE01.JPG,AFNE01.JPG,AFNE01.JPG,AFNE01.JPG,5,7,57,4,,,,,,,,,,,,,,,,,,,,,,,AMSA09.jpg,AMNE07.jpg,AMNE06.jpg,AMSA10.jpg,AMNE06.jpg,MN,1,num_2,32,num_4,,,0.866811127635,2017_Jul_12_1201,59.9984989784,MAFE4ImagesEEG,001,200970,
AFNE01.JPG,AFNE01.JPG,AFNE01.JPG,AFNE01.JPG,AFNE01.JPG,AFNE01.JPG,5,8,58,3,,,,,,,,,,,,,,,,,,,,,,,AMNE08.jpg,AMSA07.jpg,AMNE19.jpg,AMSA18.jpg,AMNE19.jpg,MN,1,num_2,16,num_2,,,0.516787809785,2017_Jul_12_1201,59.9984989784,MAFE4ImagesEEG,001,200970,
AFNE01.JPG,AFNE01.JPG,AFNE01.JPG,AFNE01.JPG,AFNE01.JPG,AFNE01.JPG,5,9,59,2,,,,,,,,,,,,,,,,,,,,,,,AMSA11.jpg,AMNE10.jpg,AMSA12.jpg,AMNE09.jpg,AMNE09.jpg,MN,1,num_4,16,num_4,,,0.700146064628,2017_Jul_12_1201,59.9984989784,MAFE4ImagesEEG,001,200970,
,,,,,,,,,,,,,,,,,,,,,,,,,,,,,,,,,,,,,,,,,,space,3.14990804414,,2017_Jul_12_1201,59.9984989784,MAFE4ImagesEEG,001,200970,
AFNE01.JPG,AFNE01.JPG,AFNE01.JPG,AFNE01.JPG,AFNE01.JPG,AFNE01.JPG,,,,,0,0,0,0,,,,,,,,,,,,,,,,,,,AFSA13.jpg,AFSA02.jpg,AFNE08.jpg,AFNE17.jpg,AFSA02.jpg,FS,4,num_6,32,num_4,,,0.749955898384,2017_Jul_12_1201,59.9984989784,MAFE4ImagesEEG,001,200970,
AFNE01.JPG,AFNE01.JPG,AFNE01.JPG,AFNE01.JPG,AFNE01.JPG,AFNE01.JPG,,,,,0,1,1,8,,,,,,,,,,,,,,,,,,,AFSA15.jpg,AFNE03.jpg,AFNE14.jpg,AFSA20.jpg,AFSA20.jpg,FS,4,num_4,16,num_4,,,0.800134582212,2017_Jul_12_1201,59.9984989784,MAFE4ImagesEEG,001,200970,
AFNE01.JPG,AFNE01.JPG,AFNE01.JPG,AFNE01.JPG,AFNE01.JPG,AFNE01.JPG,,,,,0,2,2,3,,,,,,,,,,,,,,,,,,,AFNE08.jpg,AFNE02.jpg,AFSA06.jpg,AFSA01.jpg,AFSA01.jpg,FS,4,num_4,32,num_2,,,1.26672125654,2017_Jul_12_1201,59.9984989784,MAFE4ImagesEEG,001,200970,
AFNE01.JPG,AFNE01.JPG,AFNE01.JPG,AFNE01.JPG,AFNE01.JPG,AFNE01.JPG,,,,,0,3,3,6,,,,,,,,,,,,,,,,,,,AFNE05.jpg,AFSA12.jpg,AFNE18.jpg,AFSA08.jpg,AFNE18.jpg,FN,3,num_2,32,num_8,,,0.91674348386,2017_Jul_12_1201,59.9984989784,MAFE4ImagesEEG,001,200970,
AFNE01.JPG,AFNE01.JPG,AFNE01.JPG,AFNE01.JPG,AFNE01.JPG,AFNE01.JPG,,,,,0,4,4,5,,,,,,,,,,,,,,,,,,,AFNE03.jpg,AFNE18.jpg,AFSA18.jpg,AFSA12.jpg,AFNE18.jpg,FN,3,num_6,16,num_6,,,0.500126692001,2017_Jul_12_1201,59.9984989784,MAFE4ImagesEEG,001,200970,
AFNE01.JPG,AFNE01.JPG,AFNE01.JPG,AFNE01.JPG,AFNE01.JPG,AFNE01.JPG,,,,,0,5,5,2,,,,,,,,,,,,,,,,,,,AFNE14.jpg,AFNE08.jpg,AFSA20.jpg,AFSA10.jpg,AFNE08.jpg,FN,3,num_6,32,num_8,,,0.816799869761,2017_Jul_12_1201,59.9984989784,MAFE4ImagesEEG,001,200970,
AFNE01.JPG,AFNE01.JPG,AFNE01.JPG,AFNE01.JPG,AFNE01.JPG,AFNE01.JPG,,,,,0,6,6,4,,,,,,,,,,,,,,,,,,,AFNE19.jpg,AFNE17.jpg,AFSA02.jpg,AFSA11.jpg,AFSA02.jpg,FS,4,num_2,32,num_8,,,0.96676725056,2017_Jul_12_1201,59.9984989784,MAFE4ImagesEEG,001,200970,
AFNE01.JPG,AFNE01.JPG,AFNE01.JPG,AFNE01.JPG,AFNE01.JPG,AFNE01.JPG,,,,,0,7,7,1,,,,,,,,,,,,,,,,,,,AFSA17.jpg,AFSA04.jpg,AFNE09.jpg,AFNE11.jpg,AFSA04.jpg,FS,4,num_6,16,num_6,,,0.550143402535,2017_Jul_12_1201,59.9984989784,MAFE4ImagesEEG,001,200970,
AFNE01.JPG,AFNE01.JPG,AFNE01.JPG,AFNE01.JPG,AFNE01.JPG,AFNE01.JPG,,,,,0,8,8,7,,,,,,,,,,,,,,,,,,,AFSA18.jpg,AFSA16.jpg,AFNE18.jpg,AFNE08.jpg,AFNE18.jpg,FN,3,num_2,32,num_4,,,0.38350399863,2017_Jul_12_1201,59.9984989784,MAFE4ImagesEEG,001,200970,
AFNE01.JPG,AFNE01.JPG,AFNE01.JPG,AFNE01.JPG,AFNE01.JPG,AFNE01.JPG,,,,,0,9,9,9,,,,,,,,,,,,,,,,,,,AFSA17.jpg,AFNE13.jpg,AFSA14.jpg,AFNE17.jpg,AFNE17.jpg,FN,3,num_4,32,num_2,,,1.35006918339,2017_Jul_12_1201,59.9984989784,MAFE4ImagesEEG,001,200970,
AFNE01.JPG,AFNE01.JPG,AFNE01.JPG,AFNE01.JPG,AFNE01.JPG,AFNE01.JPG,,,,,1,0,10,0,,,,,,,,,,,,,,,,,,,AFSA01.jpg,AFNE20.jpg,AFNE08.jpg,AFSA05.jpg,AFSA05.jpg,FS,4,num_4,32,num_6,,,0.733480488416,2017_Jul_12_1201,59.9984989784,MAFE4ImagesEEG,001,200970,
AFNE01.JPG,AFNE01.JPG,AFNE01.JPG,AFNE01.JPG,AFNE01.JPG,AFNE01.JPG,,,,,1,1,11,3,,,,,,,,,,,,,,,,,,,AFSA13.jpg,AFNE03.jpg,AFSA17.jpg,AFNE13.jpg,AFSA13.jpg,FS,4,num_8,16,num_8,,,0.90015196614,2017_Jul_12_1201,59.9984989784,MAFE4ImagesEEG,001,200970,
AFNE01.JPG,AFNE01.JPG,AFNE01.JPG,AFNE01.JPG,AFNE01.JPG,AFNE01.JPG,,,,,1,2,12,9,,,,,,,,,,,,,,,,,,,AFSA15.jpg,AFNE19.jpg,AFSA05.jpg,AFNE02.jpg,AFSA05.jpg,FS,4,num_2,32,num_6,,,0.666766095906,2017_Jul_12_1201,59.9984989784,MAFE4ImagesEEG,001,200970,
AFNE01.JPG,AFNE01.JPG,AFNE01.JPG,AFNE01.JPG,AFNE01.JPG,AFNE01.JPG,,,,,1,3,13,2,,,,,,,,,,,,,,,,,,,AFNE15.jpg,AFSA12.jpg,AFSA14.jpg,AFNE10.jpg,AFNE10.jpg,FN,3,num_4,16,num_4,,,0.666769623756,2017_Jul_12_1201,59.9984989784,MAFE4ImagesEEG,001,200970,
AFNE01.JPG,AFNE01.JPG,AFNE01.JPG,AFNE01.JPG,AFNE01.JPG,AFNE01.JPG,,,,,1,4,14,1,,,,,,,,,,,,,,,,,,,AFSA17.jpg,AFSA15.jpg,AFNE15.jpg,AFNE08.jpg,AFSA15.jpg,FS,4,num_6,16,num_6,,,0.633472085232,2017_Jul_12_1201,59.9984989784,MAFE4ImagesEEG,001,200970,
AFNE01.JPG,AFNE01.JPG,AFNE01.JPG,AFNE01.JPG,AFNE01.JPG,AFNE01.JPG,,,,,1,5,15,5,,,,,,,,,,,,,,,,,,,AFSA01.jpg,AFNE07.jpg,AFNE02.jpg,AFSA17.jpg,AFSA17.jpg,FS,4,num_4,16,num_4,,,0.833446554374,2017_Jul_12_1201,59.9984989784,MAFE4ImagesEEG,001,200970,
AFNE01.JPG,AFNE01.JPG,AFNE01.JPG,AFNE01.JPG,AFNE01.JPG,AFNE01.JPG,,,,,1,6,16,7,,,,,,,,,,,,,,,,,,,AFNE08.jpg,AFSA07.jpg,AFSA20.jpg,AFNE17.jpg,AFSA07.jpg,FS,4,num_6,32,num_8,,,1.05010491377,2017_Jul_12_1201,59.9984989784,MAFE4ImagesEEG,001,200970,
AFNE01.JPG,AFNE01.JPG,AFNE01.JPG,AFNE01.JPG,AFNE01.JPG,AFNE01.JPG,,,,,1,7,17,6,,,,,,,,,,,,,,,,,,,AFSA01.jpg,AFNE06.jpg,AFSA19.jpg,AFNE09.jpg,AFNE06.jpg,FN,3,num_6,16,num_6,,,1.1834076487,2017_Jul_12_1201,59.9984989784,MAFE4ImagesEEG,001,200970,
AFNE01.JPG,AFNE01.JPG,AFNE01.JPG,AFNE01.JPG,AFNE01.JPG,AFNE01.JPG,,,,,1,8,18,8,,,,,,,,,,,,,,,,,,,AFSA15.jpg,AFNE16.jpg,AFSA14.jpg,AFNE18.jpg,AFNE18.jpg,FN,3,num_4,16,num_4,,,0.716843105154,2017_Jul_12_1201,59.9984989784,MAFE4ImagesEEG,001,200970,
AFNE01.JPG,AFNE01.JPG,AFNE01.JPG,AFNE01.JPG,AFNE01.JPG,AFNE01.JPG,,,,,1,9,19,4,,,,,,,,,,,,,,,,,,,AFNE15.jpg,AFSA11.jpg,AFNE16.jpg,AFSA04.jpg,AFSA11.jpg,FS,4,num_6,32,num_4,,,0.717100979527,2017_Jul_12_1201,59.9984989784,MAFE4ImagesEEG,001,200970,
AFNE01.JPG,AFNE01.JPG,AFNE01.JPG,AFNE01.JPG,AFNE01.JPG,AFNE01.JPG,,,,,2,0,20,6,,,,,,,,,,,,,,,,,,,AFNE13.jpg,AFSA07.jpg,AFSA06.jpg,AFNE10.jpg,AFSA06.jpg,FS,4,num_2,32,num_6,,,0.950141734444,2017_Jul_12_1201,59.9984989784,MAFE4ImagesEEG,001,200970,
AFNE01.JPG,AFNE01.JPG,AFNE01.JPG,AFNE01.JPG,AFNE01.JPG,AFNE01.JPG,,,,,2,1,21,0,,,,,,,,,,,,,,,,,,,AFNE03.jpg,AFSA03.jpg,AFNE10.jpg,AFSA18.jpg,AFNE10.jpg,FN,3,num_2,32,num_8,,,2.36666230462,2017_Jul_12_1201,59.9984989784,MAFE4ImagesEEG,001,200970,
AFNE01.JPG,AFNE01.JPG,AFNE01.JPG,AFNE01.JPG,AFNE01.JPG,AFNE01.JPG,,,,,2,2,22,4,,,,,,,,,,,,,,,,,,,AFNE05.jpg,AFSA09.jpg,AFSA05.jpg,AFNE03.jpg,AFNE03.jpg,FN,3,num_4,32,num_2,,,0.983374804724,2017_Jul_12_1201,59.9984989784,MAFE4ImagesEEG,001,200970,
AFNE01.JPG,AFNE01.JPG,AFNE01.JPG,AFNE01.JPG,AFNE01.JPG,AFNE01.JPG,,,,,2,3,23,9,,,,,,,,,,,,,,,,,,,AFNE06.jpg,AFSA09.jpg,AFSA12.jpg,AFNE20.jpg,AFSA09.jpg,FS,4,num_6,16,num_6,,,0.366800863761,2017_Jul_12_1201,59.9984989784,MAFE4ImagesEEG,001,200970,
AFNE01.JPG,AFNE01.JPG,AFNE01.JPG,AFNE01.JPG,AFNE01.JPG,AFNE01.JPG,,,,,2,4,24,5,,,,,,,,,,,,,,,,,,,AFSA04.jpg,AFNE09.jpg,AFSA03.jpg,AFNE12.jpg,AFNE09.jpg,FN,3,num_6,32,num_8,,,0.85013333126,2017_Jul_12_1201,59.9984989784,MAFE4ImagesEEG,001,200970,
AFNE01.JPG,AFNE01.JPG,AFNE01.JPG,AFNE01.JPG,AFNE01.JPG,AFNE01.JPG,,,,,2,5,25,8,,,,,,,,,,,,,,,,,,,AFSA02.jpg,AFNE08.jpg,AFNE18.jpg,AFSA20.jpg,AFNE08.jpg,FN,3,num_6,16,num_6,,,0.850125312805,2017_Jul_12_1201,59.9984989784,MAFE4ImagesEEG,001,200970,
AFNE01.JPG,AFNE01.JPG,AFNE01.JPG,AFNE01.JPG,AFNE01.JPG,AFNE01.JPG,,,,,2,6,26,7,,,,,,,,,,,,,,,,,,,AFNE14.jpg,AFSA16.jpg,AFNE06.jpg,AFSA14.jpg,AFNE14.jpg,FN,3,num_8,16,num_8,,,0.483594832011,2017_Jul_12_1201,59.9984989784,MAFE4ImagesEEG,001,200970,
AFNE01.JPG,AFNE01.JPG,AFNE01.JPG,AFNE01.JPG,AFNE01.JPG,AFNE01.JPG,,,,,2,7,27,2,,,,,,,,,,,,,,,,,,,AFSA14.jpg,AFNE18.jpg,AFNE07.jpg,AFSA08.jpg,AFNE18.jpg,FN,3,num_6,32,num_2,,,0.933473560493,2017_Jul_12_1201,59.9984989784,MAFE4ImagesEEG,001,200970,
AFNE01.JPG,AFNE01.JPG,AFNE01.JPG,AFNE01.JPG,AFNE01.JPG,AFNE01.JPG,,,,,2,8,28,3,,,,,,,,,,,,,,,,,,,AFNE20.jpg,AFNE18.jpg,AFSA20.jpg,AFSA07.jpg,AFSA07.jpg,FS,4,num_4,16,num_4,,,0.550153345335,2017_Jul_12_1201,59.9984989784,MAFE4ImagesEEG,001,200970,
AFNE01.JPG,AFNE01.JPG,AFNE01.JPG,AFNE01.JPG,AFNE01.JPG,AFNE01.JPG,,,,,2,9,29,1,,,,,,,,,,,,,,,,,,,AFSA20.jpg,AFNE12.jpg,AFNE17.jpg,AFSA16.jpg,AFNE12.jpg,FN,3,num_6,32,num_8,,,0.800097697182,2017_Jul_12_1201,59.9984989784,MAFE4ImagesEEG,001,200970,
AFNE01.JPG,AFNE01.JPG,AFNE01.JPG,AFNE01.JPG,AFNE01.JPG,AFNE01.JPG,,,,,3,0,30,4,,,,,,,,,,,,,,,,,,,AFNE02.jpg,AFNE04.jpg,AFSA15.jpg,AFSA11.jpg,AFSA11.jpg,FS,4,num_4,16,num_4,,,0.85015000985,2017_Jul_12_1201,59.9984989784,MAFE4ImagesEEG,001,200970,
AFNE01.JPG,AFNE01.JPG,AFNE01.JPG,AFNE01.JPG,AFNE01.JPG,AFNE01.JPG,,,,,3,1,31,9,,,,,,,,,,,,,,,,,,,AFNE14.jpg,AFSA04.jpg,AFSA16.jpg,AFNE09.jpg,AFSA16.jpg,FS,4,num_2,32,num_6,,,1.16672375822,2017_Jul_12_1201,59.9984989784,MAFE4ImagesEEG,001,200970,
AFNE01.JPG,AFNE01.JPG,AFNE01.JPG,AFNE01.JPG,AFNE01.JPG,AFNE01.JPG,,,,,3,2,32,6,,,,,,,,,,,,,,,,,,,AFNE04.jpg,AFSA17.jpg,AFSA01.jpg,AFNE02.jpg,AFNE04.jpg,FN,3,num_8,16,num_8,,,0.76678572502,2017_Jul_12_1201,59.9984989784,MAFE4ImagesEEG,001,200970,
AFNE01.JPG,AFNE01.JPG,AFNE01.JPG,AFNE01.JPG,AFNE01.JPG,AFNE01.JPG,,,,,3,3,33,0,,,,,,,,,,,,,,,,,,,AFNE05.jpg,AFSA11.jpg,AFSA06.jpg,AFNE15.jpg,AFSA11.jpg,FS,4,num_6,16,num_6,,,0.750133587979,2017_Jul_12_1201,59.9984989784,MAFE4ImagesEEG,001,200970,
AFNE01.JPG,AFNE01.JPG,AFNE01.JPG,AFNE01.JPG,AFNE01.JPG,AFNE01.JPG,,,,,3,4,34,8,,,,,,,,,,,,,,,,,,,AFSA16.jpg,AFSA08.jpg,AFNE07.jpg,AFNE02.jpg,AFSA08.jpg,FS,4,num_6,32,num_4,,,1.0834300362,2017_Jul_12_1201,59.9984989784,MAFE4ImagesEEG,001,200970,
AFNE01.JPG,AFNE01.JPG,AFNE01.JPG,AFNE01.JPG,AFNE01.JPG,AFNE01.JPG,,,,,3,5,35,5,,,,,,,,,,,,,,,,,,,AFNE16.jpg,AFNE18.jpg,AFSA17.jpg,AFSA20.jpg,AFSA20.jpg,FS,4,num_4,16,num_4,,,0.766786366701,2017_Jul_12_1201,59.9984989784,MAFE4ImagesEEG,001,200970,
AFNE01.JPG,AFNE01.JPG,AFNE01.JPG,AFNE01.JPG,AFNE01.JPG,AFNE01.JPG,,,,,3,6,36,1,,,,,,,,,,,,,,,,,,,AFSA01.jpg,AFSA19.jpg,AFNE01.jpg,AFNE14.jpg,AFSA19.jpg,FS,4,num_6,32,num_2,,,1.10011617187,2017_Jul_12_1201,59.9984989784,MAFE4ImagesEEG,001,200970,
AFNE01.JPG,AFNE01.JPG,AFNE01.JPG,AFNE01.JPG,AFNE01.JPG,AFNE01.JPG,,,,,3,7,37,2,,,,,,,,,,,,,,,,,,,AFNE08.jpg,AFNE01.jpg,AFSA16.jpg,AFSA12.jpg,AFSA12.jpg,FS,4,num_4,32,num_6,,,0.966696046293,2017_Jul_12_1201,59.9984989784,MAFE4ImagesEEG,001,200970,
AFNE01.JPG,AFNE01.JPG,AFNE01.JPG,AFNE01.JPG,AFNE01.JPG,AFNE01.JPG,,,,,3,8,38,7,,,,,,,,,,,,,,,,,,,AFSA18.jpg,AFNE15.jpg,AFNE04.jpg,AFSA17.jpg,AFSA17.jpg,FS,4,num_4,16,num_4,,,1.01663706242,2017_Jul_12_1201,59.9984989784,MAFE4ImagesEEG,001,200970,
AFNE01.JPG,AFNE01.JPG,AFNE01.JPG,AFNE01.JPG,AFNE01.JPG,AFNE01.JPG,,,,,3,9,39,3,,,,,,,,,,,,,,,,,,,AFSA18.jpg,AFSA20.jpg,AFNE20.jpg,AFNE19.jpg,AFNE20.jpg,FN,3,num_2,32,num_8,,,0.70019738283,2017_Jul_12_1201,59.9984989784,MAFE4ImagesEEG,001,200970,
AFNE01.JPG,AFNE01.JPG,AFNE01.JPG,AFNE01.JPG,AFNE01.JPG,AFNE01.JPG,,,,,4,0,40,7,,,,,,,,,,,,,,,,,,,AFNE16.jpg,AFSA08.jpg,AFSA01.jpg,AFNE19.jpg,AFNE16.jpg,FN,3,num_8,32,num_4,,,0.750112098409,2017_Jul_12_1201,59.9984989784,MAFE4ImagesEEG,001,200970,
AFNE01.JPG,AFNE01.JPG,AFNE01.JPG,AFNE01.JPG,AFNE01.JPG,AFNE01.JPG,,,,,4,1,41,5,,,,,,,,,,,,,,,,,,,AFNE07.jpg,AFNE18.jpg,AFSA20.jpg,AFSA15.jpg,AFNE07.jpg,FN,3,num_8,16,num_8,,,0.766774178483,2017_Jul_12_1201,59.9984989784,MAFE4ImagesEEG,001,200970,
AFNE01.JPG,AFNE01.JPG,AFNE01.JPG,AFNE01.JPG,AFNE01.JPG,AFNE01.JPG,,,,,4,2,42,3,,,,,,,,,,,,,,,,,,,AFSA05.jpg,AFNE17.jpg,AFSA19.jpg,AFNE13.jpg,AFNE17.jpg,FN,3,num_6,32,num_2,,,1.08332002256,2017_Jul_12_1201,59.9984989784,MAFE4ImagesEEG,001,200970,
AFNE01.JPG,AFNE01.JPG,AFNE01.JPG,AFNE01.JPG,AFNE01.JPG,AFNE01.JPG,,,,,4,3,43,9,,,,,,,,,,,,,,,,,,,AFSA02.jpg,AFNE09.jpg,AFSA13.jpg,AFNE12.jpg,AFNE12.jpg,FN,3,num_4,16,num_4,,,1.10009724833,2017_Jul_12_1201,59.9984989784,MAFE4ImagesEEG,001,200970,
AFNE01.JPG,AFNE01.JPG,AFNE01.JPG,AFNE01.JPG,AFNE01.JPG,AFNE01.JPG,,,,,4,4,44,6,,,,,,,,,,,,,,,,,,,AFNE15.jpg,AFSA13.jpg,AFSA14.jpg,AFNE07.jpg,AFNE07.jpg,FN,3,num_4,16,num_4,,,0.800154147437,2017_Jul_12_1201,59.9984989784,MAFE4ImagesEEG,001,200970,
AFNE01.JPG,AFNE01.JPG,AFNE01.JPG,AFNE01.JPG,AFNE01.JPG,AFNE01.JPG,,,,,4,5,45,4,,,,,,,,,,,,,,,,,,,AFNE05.jpg,AFNE12.jpg,AFSA11.jpg,AFSA04.jpg,AFSA04.jpg,FS,4,num_4,32,num_6,,,1.70003701327,2017_Jul_12_1201,59.9984989784,MAFE4ImagesEEG,001,200970,
AFNE01.JPG,AFNE01.JPG,AFNE01.JPG,AFNE01.JPG,AFNE01.JPG,AFNE01.JPG,,,,,4,6,46,0,,,,,,,,,,,,,,,,,,,AFSA19.jpg,AFNE12.jpg,AFNE16.jpg,AFSA12.jpg,AFSA19.jpg,FS,4,num_8,32,num_6,,,0.833442063769,2017_Jul_12_1201,59.9984989784,MAFE4ImagesEEG,001,200970,
AFNE01.JPG,AFNE01.JPG,AFNE01.JPG,AFNE01.JPG,AFNE01.JPG,AFNE01.JPG,,,,,4,7,47,2,,,,,,,,,,,,,,,,,,,AFSA15.jpg,AFSA20.jpg,AFNE05.jpg,AFNE07.jpg,AFNE07.jpg,FN,3,num_4,32,num_2,,,0.716769335326,2017_Jul_12_1201,59.9984989784,MAFE4ImagesEEG,001,200970,
AFNE01.JPG,AFNE01.JPG,AFNE01.JPG,AFNE01.JPG,AFNE01.JPG,AFNE01.JPG,,,,,4,8,48,8,,,,,,,,,,,,,,,,,,,AFNE04.jpg,AFSA04.jpg,AFNE12.jpg,AFSA14.jpg,AFSA04.jpg,FS,4,num_6,32,num_2,,,1.06674742885,2017_Jul_12_1201,59.9984989784,MAFE4ImagesEEG,001,200970,
AFNE01.JPG,AFNE01.JPG,AFNE01.JPG,AFNE01.JPG,AFNE01.JPG,AFNE01.JPG,,,,,4,9,49,1,,,,,,,,,,,,,,,,,,,AFNE15.jpg,AFNE16.jpg,AFSA12.jpg,AFSA07.jpg,AFNE16.jpg,FN,3,num_6,32,num_4,,,0.766807535198,2017_Jul_12_1201,59.9984989784,MAFE4ImagesEEG,001,200970,
AFNE01.JPG,AFNE01.JPG,AFNE01.JPG,AFNE01.JPG,AFNE01.JPG,AFNE01.JPG,,,,,5,0,50,1,,,,,,,,,,,,,,,,,,,AFNE06.jpg,AFNE02.jpg,AFSA01.jpg,AFSA03.jpg,AFSA03.jpg,FS,4,num_4,32,num_8,,,1.06640872825,2017_Jul_12_1201,59.9984989784,MAFE4ImagesEEG,001,200970,
AFNE01.JPG,AFNE01.JPG,AFNE01.JPG,AFNE01.JPG,AFNE01.JPG,AFNE01.JPG,,,,,5,1,51,5,,,,,,,,,,,,,,,,,,,AFSA14.jpg,AFSA12.jpg,AFNE10.jpg,AFNE09.jpg,AFSA14.jpg,FS,4,num_8,16,num_8,,,1.18346409872,2017_Jul_12_1201,59.9984989784,MAFE4ImagesEEG,001,200970,
AFNE01.JPG,AFNE01.JPG,AFNE01.JPG,AFNE01.JPG,AFNE01.JPG,AFNE01.JPG,,,,,5,2,52,3,,,,,,,,,,,,,,,,,,,AFNE03.jpg,AFSA11.jpg,AFSA15.jpg,AFNE16.jpg,AFNE16.jpg,FN,3,num_4,32,num_2,,,0.816790888784,2017_Jul_12_1201,59.9984989784,MAFE4ImagesEEG,001,200970,
AFNE01.JPG,AFNE01.JPG,AFNE01.JPG,AFNE01.JPG,AFNE01.JPG,AFNE01.JPG,,,,,5,3,53,9,,,,,,,,,,,,,,,,,,,AFNE14.jpg,AFSA19.jpg,AFNE16.jpg,AFSA15.jpg,AFNE14.jpg,FN,3,num_8,32,num_2,,,1.18373865145,2017_Jul_12_1201,59.9984989784,MAFE4ImagesEEG,001,200970,
AFNE01.JPG,AFNE01.JPG,AFNE01.JPG,AFNE01.JPG,AFNE01.JPG,AFNE01.JPG,,,,,5,4,54,6,,,,,,,,,,,,,,,,,,,AFNE01.jpg,AFNE04.jpg,AFSA20.jpg,AFSA11.jpg,AFNE01.jpg,FN,3,num_8,16,num_8,,,1.15007739421,2017_Jul_12_1201,59.9984989784,MAFE4ImagesEEG,001,200970,
AFNE01.JPG,AFNE01.JPG,AFNE01.JPG,AFNE01.JPG,AFNE01.JPG,AFNE01.JPG,,,,,5,5,55,8,,,,,,,,,,,,,,,,,,,AFSA11.jpg,AFNE06.jpg,AFSA08.jpg,AFNE17.jpg,AFNE17.jpg,FN,3,num_4,32,num_2,,,1.46672459203,2017_Jul_12_1201,59.9984989784,MAFE4ImagesEEG,001,200970,
AFNE01.JPG,AFNE01.JPG,AFNE01.JPG,AFNE01.JPG,AFNE01.JPG,AFNE01.JPG,,,,,5,6,56,7,,,,,,,,,,,,,,,,,,,AFSA02.jpg,AFNE16.jpg,AFNE02.jpg,AFSA20.jpg,AFNE02.jpg,FN,3,num_2,32,num_6,,,0.950092982501,2017_Jul_12_1201,59.9984989784,MAFE4ImagesEEG,001,200970,
AFNE01.JPG,AFNE01.JPG,AFNE01.JPG,AFNE01.JPG,AFNE01.JPG,AFNE01.JPG,,,,,5,7,57,2,,,,,,,,,,,,,,,,,,,AFNE17.jpg,AFSA09.jpg,AFSA10.jpg,AFNE16.jpg,AFNE16.jpg,FN,3,num_4,32,num_8,,,1.8000101354,2017_Jul_12_1201,59.9984989784,MAFE4ImagesEEG,001,200970,
AFNE01.JPG,AFNE01.JPG,AFNE01.JPG,AFNE01.JPG,AFNE01.JPG,AFNE01.JPG,,,,,5,8,58,4,,,,,,,,,,,,,,,,,,,AFNE12.jpg,AFNE05.jpg,AFSA20.jpg,AFSA06.jpg,AFNE12.jpg,FN,3,num_8,16,num_8,,,1.0167685654,2017_Jul_12_1201,59.9984989784,MAFE4ImagesEEG,001,200970,
AFNE01.JPG,AFNE01.JPG,AFNE01.JPG,AFNE01.JPG,AFNE01.JPG,AFNE01.JPG,,,,,5,9,59,0,,,,,,,,,,,,,,,,,,,AFSA20.jpg,AFSA06.jpg,AFNE18.jpg,AFNE19.jpg,AFNE18.jpg,FN,3,num_2,32,num_6,,,1.48340367153,2017_Jul_12_1201,59.9984989784,MAFE4ImagesEEG,001,200970,
,,,,,,,,,,,,,,,,,,,,,,,,,,,,,,,,,,,,,,,,,,space,6.98264544387,,2017_Jul_12_1201,59.9984989784,MAFE4ImagesEEG,001,200970,
AFNE01.JPG,AFNE01.JPG,AFNE01.JPG,AFNE01.JPG,AFNE01.JPG,AFNE01.JPG,,,,,,,,,0,0,0,6,,,,,,,,,,,,,,,AMNE16.jpg,AMSA20.jpg,AMSA09.jpg,AMNE14.jpg,AMSA09.jpg,MS,2,num_2,32,num_4,,,0.983439594274,2017_Jul_12_1201,59.9984989784,MAFE4ImagesEEG,001,200970,
AFNE01.JPG,AFNE01.JPG,AFNE01.JPG,AFNE01.JPG,AFNE01.JPG,AFNE01.JPG,,,,,,,,,0,1,1,8,,,,,,,,,,,,,,,AMSA05.jpg,AMSA19.jpg,AMNE01.jpg,AMNE08.jpg,AMSA19.jpg,MS,2,num_6,32,num_8,,,0.983461083844,2017_Jul_12_1201,59.9984989784,MAFE4ImagesEEG,001,200970,
AFNE01.JPG,AFNE01.JPG,AFNE01.JPG,AFNE01.JPG,AFNE01.JPG,AFNE01.JPG,,,,,,,,,0,2,2,2,,,,,,,,,,,,,,,AMNE18.jpg,AMNE05.jpg,AMSA14.jpg,AMSA03.jpg,AMSA03.jpg,MS,2,num_4,16,num_4,,,0.650011963677,2017_Jul_12_1201,59.9984989784,MAFE4ImagesEEG,001,200970,
AFNE01.JPG,AFNE01.JPG,AFNE01.JPG,AFNE01.JPG,AFNE01.JPG,AFNE01.JPG,,,,,,,,,0,3,3,5,,,,,,,,,,,,,,,AMSA10.jpg,AMNE19.jpg,AMNE17.jpg,AMSA20.jpg,AMNE17.jpg,MN,1,num_2,32,num_8,,,1.10007158876,2017_Jul_12_1201,59.9984989784,MAFE4ImagesEEG,001,200970,
AFNE01.JPG,AFNE01.JPG,AFNE01.JPG,AFNE01.JPG,AFNE01.JPG,AFNE01.JPG,,,,,,,,,0,4,4,4,,,,,,,,,,,,,,,AMSA19.jpg,AMSA13.jpg,AMNE01.jpg,AMNE08.jpg,AMNE08.jpg,MN,1,num_4,32,num_6,,,0.900099365041,2017_Jul_12_1201,59.9984989784,MAFE4ImagesEEG,001,200970,
AFNE01.JPG,AFNE01.JPG,AFNE01.JPG,AFNE01.JPG,AFNE01.JPG,AFNE01.JPG,,,,,,,,,0,5,5,9,,,,,,,,,,,,,,,AMSA08.jpg,AMNE03.jpg,AMNE12.jpg,AMSA20.jpg,AMNE03.jpg,MN,1,num_6,32,num_4,,,1.183484626,2017_Jul_12_1201,59.9984989784,MAFE4ImagesEEG,001,200970,
AFNE01.JPG,AFNE01.JPG,AFNE01.JPG,AFNE01.JPG,AFNE01.JPG,AFNE01.JPG,,,,,,,,,0,6,6,0,,,,,,,,,,,,,,,AMSA17.jpg,AMSA01.jpg,AMNE14.jpg,AMNE16.jpg,AMNE16.jpg,MN,1,num_4,16,num_4,,,0.633508007973,2017_Jul_12_1201,59.9984989784,MAFE4ImagesEEG,001,200970,
AFNE01.JPG,AFNE01.JPG,AFNE01.JPG,AFNE01.JPG,AFNE01.JPG,AFNE01.JPG,,,,,,,,,0,7,7,3,,,,,,,,,,,,,,,AMNE07.jpg,AMSA17.jpg,AMNE12.jpg,AMSA04.jpg,AMNE12.jpg,MN,1,num_2,16,num_2,,,1.06684525427,2017_Jul_12_1201,59.9984989784,MAFE4ImagesEEG,001,200970,
AFNE01.JPG,AFNE01.JPG,AFNE01.JPG,AFNE01.JPG,AFNE01.JPG,AFNE01.JPG,,,,,,,,,0,8,8,1,,,,,,,,,,,,,,,AMSA19.jpg,AMNE10.jpg,AMSA14.jpg,AMNE20.jpg,AMNE10.jpg,MN,1,num_6,32,num_8,,,0.866767507046,2017_Jul_12_1201,59.9984989784,MAFE4ImagesEEG,001,200970,
AFNE01.JPG,AFNE01.JPG,AFNE01.JPG,AFNE01.JPG,AFNE01.JPG,AFNE01.JPG,,,,,,,,,0,9,9,7,,,,,,,,,,,,,,,AMNE08.jpg,AMNE12.jpg,AMSA04.jpg,AMSA05.jpg,AMSA05.jpg,MS,2,num_4,32,num_8,,,1.05010042363,2017_Jul_12_1201,59.9984989784,MAFE4ImagesEEG,001,200970,
AFNE01.JPG,AFNE01.JPG,AFNE01.JPG,AFNE01.JPG,AFNE01.JPG,AFNE01.JPG,,,,,,,,,1,0,10,8,,,,,,,,,,,,,,,AMNE07.jpg,AMSA05.jpg,AMNE05.jpg,AMSA11.jpg,AMSA05.jpg,MS,2,num_6,16,num_6,,,0.500154916896,2017_Jul_12_1201,59.9984989784,MAFE4ImagesEEG,001,200970,
AFNE01.JPG,AFNE01.JPG,AFNE01.JPG,AFNE01.JPG,AFNE01.JPG,AFNE01.JPG,,,,,,,,,1,1,11,6,,,,,,,,,,,,,,,AMSA20.jpg,AMSA07.jpg,AMNE11.jpg,AMNE18.jpg,AMSA07.jpg,MS,2,num_6,32,num_4,,,0.80027763173,2017_Jul_12_1201,59.9984989784,MAFE4ImagesEEG,001,200970,
AFNE01.JPG,AFNE01.JPG,AFNE01.JPG,AFNE01.JPG,AFNE01.JPG,AFNE01.JPG,,,,,,,,,1,2,12,0,,,,,,,,,,,,,,,AMNE03.jpg,AMNE05.jpg,AMSA11.jpg,AMSA09.jpg,AMNE03.jpg,MN,1,num_8,32,num_6,,,0.98346300819,2017_Jul_12_1201,59.9984989784,MAFE4ImagesEEG,001,200970,
AFNE01.JPG,AFNE01.JPG,AFNE01.JPG,AFNE01.JPG,AFNE01.JPG,AFNE01.JPG,,,,,,,,,1,3,13,5,,,,,,,,,,,,,,,AMNE11.jpg,AMSA03.jpg,AMSA02.jpg,AMNE16.jpg,AMNE11.jpg,MN,1,num_8,16,num_8,,,0.650200558128,2017_Jul_12_1201,59.9984989784,MAFE4ImagesEEG,001,200970,
AFNE01.JPG,AFNE01.JPG,AFNE01.JPG,AFNE01.JPG,AFNE01.JPG,AFNE01.JPG,,,,,,,,,1,4,14,7,,,,,,,,,,,,,,,AMNE02.jpg,AMSA16.jpg,AMNE18.jpg,AMSA15.jpg,AMSA16.jpg,MS,2,num_6,32,num_2,,,1.53334340453,2017_Jul_12_1201,59.9984989784,MAFE4ImagesEEG,001,200970,
AFNE01.JPG,AFNE01.JPG,AFNE01.JPG,AFNE01.JPG,AFNE01.JPG,AFNE01.JPG,,,,,,,,,1,5,15,1,,,,,,,,,,,,,,,AMNE16.jpg,AMSA10.jpg,AMNE13.jpg,AMSA09.jpg,AMNE16.jpg,MN,1,num_8,16,num_8,,,0.750147700543,2017_Jul_12_1201,59.9984989784,MAFE4ImagesEEG,001,200970,
AFNE01.JPG,AFNE01.JPG,AFNE01.JPG,AFNE01.JPG,AFNE01.JPG,AFNE01.JPG,,,,,,,,,1,6,16,2,,,,,,,,,,,,,,,AMNE01.jpg,AMSA07.jpg,AMSA05.jpg,AMNE04.jpg,AMSA07.jpg,MS,2,num_6,16,num_6,,,0.866776808398,2017_Jul_12_1201,59.9984989784,MAFE4ImagesEEG,001,200970,
AFNE01.JPG,AFNE01.JPG,AFNE01.JPG,AFNE01.JPG,AFNE01.JPG,AFNE01.JPG,,,,,,,,,1,7,17,9,,,,,,,,,,,,,,,AMNE10.jpg,AMNE11.jpg,AMSA09.jpg,AMSA15.jpg,AMNE10.jpg,MN,1,num_8,16,num_8,,,0.783473785035,2017_Jul_12_1201,59.9984989784,MAFE4ImagesEEG,001,200970,
AFNE01.JPG,AFNE01.JPG,AFNE01.JPG,AFNE01.JPG,AFNE01.JPG,AFNE01.JPG,,,,,,,,,1,8,18,3,,,,,,,,,,,,,,,AMNE12.jpg,AMSA19.jpg,AMSA04.jpg,AMNE18.jpg,AMSA19.jpg,MS,2,num_6,16,num_6,,,1.03343128716,2017_Jul_12_1201,59.9984989784,MAFE4ImagesEEG,001,200970,
AFNE01.JPG,AFNE01.JPG,AFNE01.JPG,AFNE01.JPG,AFNE01.JPG,AFNE01.JPG,,,,,,,,,1,9,19,4,,,,,,,,,,,,,,,AMNE12.jpg,AMSA13.jpg,AMSA03.jpg,AMNE20.jpg,AMSA03.jpg,MS,2,num_2,16,num_2,,,0.983527476666,2017_Jul_12_1201,59.9984989784,MAFE4ImagesEEG,001,200970,
AFNE01.JPG,AFNE01.JPG,AFNE01.JPG,AFNE01.JPG,AFNE01.JPG,AFNE01.JPG,,,,,,,,,2,0,20,4,,,,,,,,,,,,,,,AMSA09.jpg,AMNE10.jpg,AMNE02.jpg,AMSA18.jpg,AMNE02.jpg,MN,1,num_2,32,num_8,,,1.35006982484,2017_Jul_12_1201,59.9984989784,MAFE4ImagesEEG,001,200970,
AFNE01.JPG,AFNE01.JPG,AFNE01.JPG,AFNE01.JPG,AFNE01.JPG,AFNE01.JPG,,,,,,,,,2,1,21,9,,,,,,,,,,,,,,,AMNE12.jpg,AMNE09.jpg,AMSA12.jpg,AMSA11.jpg,AMNE12.jpg,MN,1,num_8,32,num_6,,,1.05011357367,2017_Jul_12_1201,59.9984989784,MAFE4ImagesEEG,001,200970,
AFNE01.JPG,AFNE01.JPG,AFNE01.JPG,AFNE01.JPG,AFNE01.JPG,AFNE01.JPG,,,,,,,,,2,2,22,7,,,,,,,,,,,,,,,AMNE16.jpg,AMNE10.jpg,AMSA06.jpg,AMSA19.jpg,AMSA19.jpg,MS,2,num_4,32,num_8,,,1.03327027615,2017_Jul_12_1201,59.9984989784,MAFE4ImagesEEG,001,200970,
AFNE01.JPG,AFNE01.JPG,AFNE01.JPG,AFNE01.JPG,AFNE01.JPG,AFNE01.JPG,,,,,,,,,2,3,23,1,,,,,,,,,,,,,,,AMSA04.jpg,AMNE04.jpg,AMSA02.jpg,AMNE11.jpg,AMNE11.jpg,MN,1,num_4,32,num_8,,,1.20008255821,2017_Jul_12_1201,59.9984989784,MAFE4ImagesEEG,001,200970,
AFNE01.JPG,AFNE01.JPG,AFNE01.JPG,AFNE01.JPG,AFNE01.JPG,AFNE01.JPG,,,,,,,,,2,4,24,5,,,,,,,,,,,,,,,AMNE19.jpg,AMNE07.jpg,AMSA17.jpg,AMSA18.jpg,AMSA18.jpg,MS,2,num_4,32,num_8,,,1.61673110328,2017_Jul_12_1201,59.9984989784,MAFE4ImagesEEG,001,200970,
AFNE01.JPG,AFNE01.JPG,AFNE01.JPG,AFNE01.JPG,AFNE01.JPG,AFNE01.JPG,,,,,,,,,2,5,25,8,,,,,,,,,,,,,,,AMSA16.jpg,AMNE09.jpg,AMSA17.jpg,AMNE06.jpg,AMNE09.jpg,MN,1,num_6,16,num_6,,,0.900109949522,2017_Jul_12_1201,59.9984989784,MAFE4ImagesEEG,001,200970,
AFNE01.JPG,AFNE01.JPG,AFNE01.JPG,AFNE01.JPG,AFNE01.JPG,AFNE01.JPG,,,,,,,,,2,6,26,3,,,,,,,,,,,,,,,AMNE14.jpg,AMNE10.jpg,AMSA11.jpg,AMSA12.jpg,AMSA12.jpg,MS,2,num_4,32,num_2,,,1.26679085684,2017_Jul_12_1201,59.9984989784,MAFE4ImagesEEG,001,200970,
AFNE01.JPG,AFNE01.JPG,AFNE01.JPG,AFNE01.JPG,AFNE01.JPG,AFNE01.JPG,,,,,,,,,2,7,27,0,,,,,,,,,,,,,,,AMNE01.jpg,AMSA02.jpg,AMNE08.jpg,AMSA07.jpg,AMNE01.jpg,MN,1,num_8,16,num_8,,,0.833445271244,2017_Jul_12_1201,59.9984989784,MAFE4ImagesEEG,001,200970,
AFNE01.JPG,AFNE01.JPG,AFNE01.JPG,AFNE01.JPG,AFNE01.JPG,AFNE01.JPG,,,,,,,,,2,8,28,2,,,,,,,,,,,,,,,AMNE11.jpg,AMSA08.jpg,AMSA06.jpg,AMNE12.jpg,AMNE12.jpg,MN,1,num_4,32,num_6,,,0.866767507046,2017_Jul_12_1201,59.9984989784,MAFE4ImagesEEG,001,200970,
AFNE01.JPG,AFNE01.JPG,AFNE01.JPG,AFNE01.JPG,AFNE01.JPG,AFNE01.JPG,,,,,,,,,2,9,29,6,,,,,,,,,,,,,,,AMNE12.jpg,AMSA16.jpg,AMNE05.jpg,AMSA19.jpg,AMNE12.jpg,MN,1,num_8,16,num_8,,,0.716779598966,2017_Jul_12_1201,59.9984989784,MAFE4ImagesEEG,001,200970,
AFNE01.JPG,AFNE01.JPG,AFNE01.JPG,AFNE01.JPG,AFNE01.JPG,AFNE01.JPG,,,,,,,,,3,0,30,8,,,,,,,,,,,,,,,AMNE01.jpg,AMNE04.jpg,AMSA10.jpg,AMSA05.jpg,AMNE01.jpg,MN,1,num_8,16,num_8,,,0.650147957029,2017_Jul_12_1201,59.9984989784,MAFE4ImagesEEG,001,200970,
AFNE01.JPG,AFNE01.JPG,AFNE01.JPG,AFNE01.JPG,AFNE01.JPG,AFNE01.JPG,,,,,,,,,3,1,31,6,,,,,,,,,,,,,,,AMNE09.jpg,AMSA04.jpg,AMNE18.jpg,AMSA10.jpg,AMSA04.jpg,MS,2,num_6,16,num_6,,,0.733483695891,2017_Jul_12_1201,59.9984989784,MAFE4ImagesEEG,001,200970,
AFNE01.JPG,AFNE01.JPG,AFNE01.JPG,AFNE01.JPG,AFNE01.JPG,AFNE01.JPG,,,,,,,,,3,2,32,7,,,,,,,,,,,,,,,AMNE03.jpg,AMNE05.jpg,AMSA09.jpg,AMSA07.jpg,AMNE05.jpg,MN,1,num_6,32,num_2,,,0.900112835923,2017_Jul_12_1201,59.9984989784,MAFE4ImagesEEG,001,200970,
AFNE01.JPG,AFNE01.JPG,AFNE01.JPG,AFNE01.JPG,AFNE01.JPG,AFNE01.JPG,,,,,,,,,3,3,33,9,,,,,,,,,,,,,,,AMSA13.jpg,AMNE02.jpg,AMNE12.jpg,AMSA16.jpg,AMNE12.jpg,MN,1,num_2,32,num_4,,,1.41675342666,2017_Jul_12_1201,59.9984989784,MAFE4ImagesEEG,001,200970,
AFNE01.JPG,AFNE01.JPG,AFNE01.JPG,AFNE01.JPG,AFNE01.JPG,AFNE01.JPG,,,,,,,,,3,4,34,3,,,,,,,,,,,,,,,AMNE02.jpg,AMSA12.jpg,AMSA01.jpg,AMNE08.jpg,AMNE02.jpg,MN,1,num_8,16,num_8,,,0.933397224639,2017_Jul_12_1201,59.9984989784,MAFE4ImagesEEG,001,200970,
AFNE01.JPG,AFNE01.JPG,AFNE01.JPG,AFNE01.JPG,AFNE01.JPG,AFNE01.JPG,,,,,,,,,3,5,35,0,,,,,,,,,,,,,,,AMSA04.jpg,AMNE18.jpg,AMSA20.jpg,AMNE16.jpg,AMSA20.jpg,MS,2,num_2,16,num_2,,,0.93349120114,2017_Jul_12_1201,59.9984989784,MAFE4ImagesEEG,001,200970,
AFNE01.JPG,AFNE01.JPG,AFNE01.JPG,AFNE01.JPG,AFNE01.JPG,AFNE01.JPG,,,,,,,,,3,6,36,1,,,,,,,,,,,,,,,AMSA12.jpg,AMSA19.jpg,AMNE07.jpg,AMNE13.jpg,AMNE13.jpg,MN,1,num_4,32,num_8,,,1.2334458488,2017_Jul_12_1201,59.9984989784,MAFE4ImagesEEG,001,200970,
AFNE01.JPG,AFNE01.JPG,AFNE01.JPG,AFNE01.JPG,AFNE01.JPG,AFNE01.JPG,,,,,,,,,3,7,37,5,,,,,,,,,,,,,,,AMNE10.jpg,AMNE05.jpg,AMSA10.jpg,AMSA14.jpg,AMNE05.jpg,MN,1,num_6,32,num_2,,,1.1834531934,2017_Jul_12_1201,59.9984989784,MAFE4ImagesEEG,001,200970,
AFNE01.JPG,AFNE01.JPG,AFNE01.JPG,AFNE01.JPG,AFNE01.JPG,AFNE01.JPG,,,,,,,,,3,8,38,2,,,,,,,,,,,,,,,AMNE12.jpg,AMNE11.jpg,AMSA10.jpg,AMSA17.jpg,AMSA10.jpg,MS,2,num_2,32,num_6,,,1.21680076793,2017_Jul_12_1201,59.9984989784,MAFE4ImagesEEG,001,200970,
AFNE01.JPG,AFNE01.JPG,AFNE01.JPG,AFNE01.JPG,AFNE01.JPG,AFNE01.JPG,,,,,,,,,3,9,39,4,,,,,,,,,,,,,,,AMSA08.jpg,AMNE17.jpg,AMSA20.jpg,AMNE19.jpg,AMNE17.jpg,MN,1,num_6,32,num_8,,,1.6501024121,2017_Jul_12_1201,59.9984989784,MAFE4ImagesEEG,001,200970,
AFNE01.JPG,AFNE01.JPG,AFNE01.JPG,AFNE01.JPG,AFNE01.JPG,AFNE01.JPG,,,,,,,,,4,0,40,0,,,,,,,,,,,,,,,AMSA10.jpg,AMSA04.jpg,AMNE11.jpg,AMNE10.jpg,AMSA10.jpg,MS,2,num_8,32,num_6,,,0.950123452581,2017_Jul_12_1201,59.9984989784,MAFE4ImagesEEG,001,200970,
AFNE01.JPG,AFNE01.JPG,AFNE01.JPG,AFNE01.JPG,AFNE01.JPG,AFNE01.JPG,,,,,,,,,4,1,41,9,,,,,,,,,,,,,,,AMNE20.jpg,AMNE14.jpg,AMSA16.jpg,AMSA18.jpg,AMNE20.jpg,MN,1,num_8,16,num_8,,,0.783422787441,2017_Jul_12_1201,59.9984989784,MAFE4ImagesEEG,001,200970,
AFNE01.JPG,AFNE01.JPG,AFNE01.JPG,AFNE01.JPG,AFNE01.JPG,AFNE01.JPG,,,,,,,,,4,2,42,2,,,,,,,,,,,,,,,AMSA19.jpg,AMSA20.jpg,AMNE10.jpg,AMNE18.jpg,AMSA20.jpg,MS,2,num_6,16,num_6,,,1.11655950779,2017_Jul_12_1201,59.9984989784,MAFE4ImagesEEG,001,200970,
AFNE01.JPG,AFNE01.JPG,AFNE01.JPG,AFNE01.JPG,AFNE01.JPG,AFNE01.JPG,,,,,,,,,4,3,43,4,,,,,,,,,,,,,,,AMNE03.jpg,AMSA11.jpg,AMNE19.jpg,AMSA15.jpg,AMNE03.jpg,MN,1,num_8,32,num_2,,,2.28300005314,2017_Jul_12_1201,59.9984989784,MAFE4ImagesEEG,001,200970,
AFNE01.JPG,AFNE01.JPG,AFNE01.JPG,AFNE01.JPG,AFNE01.JPG,AFNE01.JPG,,,,,,,,,4,4,44,8,,,,,,,,,,,,,,,AMNE01.jpg,AMSA07.jpg,AMSA10.jpg,AMNE12.jpg,AMNE01.jpg,MN,1,num_8,16,num_8,,,0.800132657867,2017_Jul_12_1201,59.9984989784,MAFE4ImagesEEG,001,200970,
AFNE01.JPG,AFNE01.JPG,AFNE01.JPG,AFNE01.JPG,AFNE01.JPG,AFNE01.JPG,,,,,,,,,4,5,45,5,,,,,,,,,,,,,,,AMNE04.jpg,AMNE06.jpg,AMSA09.jpg,AMSA17.jpg,AMNE06.jpg,MN,1,num_6,16,num_6,,,1.58339828299,2017_Jul_12_1201,59.9984989784,MAFE4ImagesEEG,001,200970,
AFNE01.JPG,AFNE01.JPG,AFNE01.JPG,AFNE01.JPG,AFNE01.JPG,AFNE01.JPG,,,,,,,,,4,6,46,1,,,,,,,,,,,,,,,AMSA03.jpg,AMNE16.jpg,AMSA15.jpg,AMNE12.jpg,AMNE12.jpg,MN,1,num_4,16,num_4,,,0.833308957284,2017_Jul_12_1201,59.9984989784,MAFE4ImagesEEG,001,200970,
AFNE01.JPG,AFNE01.JPG,AFNE01.JPG,AFNE01.JPG,AFNE01.JPG,AFNE01.JPG,,,,,,,,,4,7,47,7,,,,,,,,,,,,,,,AMNE10.jpg,AMSA09.jpg,AMNE14.jpg,AMSA15.jpg,AMSA15.jpg,MS,2,num_4,32,num_8,,,0.850095804781,2017_Jul_12_1201,59.9984989784,MAFE4ImagesEEG,001,200970,
AFNE01.JPG,AFNE01.JPG,AFNE01.JPG,AFNE01.JPG,AFNE01.JPG,AFNE01.JPG,,,,,,,,,4,8,48,3,,,,,,,,,,,,,,,AMSA02.jpg,AMNE12.jpg,AMNE20.jpg,AMSA03.jpg,AMNE12.jpg,MN,1,num_6,16,num_6,,,1.05014596856,2017_Jul_12_1201,59.9984989784,MAFE4ImagesEEG,001,200970,
AFNE01.JPG,AFNE01.JPG,AFNE01.JPG,AFNE01.JPG,AFNE01.JPG,AFNE01.JPG,,,,,,,,,4,9,49,6,,,,,,,,,,,,,,,AMSA13.jpg,AMSA11.jpg,AMNE11.jpg,AMNE16.jpg,AMSA11.jpg,MS,2,num_6,16,num_6,,,0.816829377552,2017_Jul_12_1201,59.9984989784,MAFE4ImagesEEG,001,200970,
AFNE01.JPG,AFNE01.JPG,AFNE01.JPG,AFNE01.JPG,AFNE01.JPG,AFNE01.JPG,,,,,,,,,5,0,50,5,,,,,,,,,,,,,,,AMNE10.jpg,AMSA15.jpg,AMSA12.jpg,AMNE01.jpg,AMNE01.jpg,MN,1,num_4,16,num_4,,,0.600150811719,2017_Jul_12_1201,59.9984989784,MAFE4ImagesEEG,001,200970,
AFNE01.JPG,AFNE01.JPG,AFNE01.JPG,AFNE01.JPG,AFNE01.JPG,AFNE01.JPG,,,,,,,,,5,1,51,1,,,,,,,,,,,,,,,AMNE11.jpg,AMSA11.jpg,AMSA08.jpg,AMNE16.jpg,AMNE11.jpg,MN,1,num_8,32,num_2,,,1.48338731378,2017_Jul_12_1201,59.9984989784,MAFE4ImagesEEG,001,200970,
AFNE01.JPG,AFNE01.JPG,AFNE01.JPG,AFNE01.JPG,AFNE01.JPG,AFNE01.JPG,,,,,,,,,5,2,52,8,,,,,,,,,,,,,,,AMSA06.jpg,AMNE18.jpg,AMNE06.jpg,AMSA16.jpg,AMSA06.jpg,MS,2,num_8,16,num_8,,,2.05002889852,2017_Jul_12_1201,59.9984989784,MAFE4ImagesEEG,001,200970,
AFNE01.JPG,AFNE01.JPG,AFNE01.JPG,AFNE01.JPG,AFNE01.JPG,AFNE01.JPG,,,,,,,,,5,3,53,6,,,,,,,,,,,,,,,AMSA14.jpg,AMSA07.jpg,AMNE08.jpg,AMNE13.jpg,AMSA07.jpg,MS,2,num_6,16,num_6,,,0.716775429435,2017_Jul_12_1201,59.9984989784,MAFE4ImagesEEG,001,200970,
AFNE01.JPG,AFNE01.JPG,AFNE01.JPG,AFNE01.JPG,AFNE01.JPG,AFNE01.JPG,,,,,,,,,5,4,54,3,,,,,,,,,,,,,,,AMSA10.jpg,AMSA01.jpg,AMNE13.jpg,AMNE05.jpg,AMNE05.jpg,MN,1,num_4,16,num_4,,,0.916761445114,2017_Jul_12_1201,59.9984989784,MAFE4ImagesEEG,001,200970,
AFNE01.JPG,AFNE01.JPG,AFNE01.JPG,AFNE01.JPG,AFNE01.JPG,AFNE01.JPG,,,,,,,,,5,5,55,7,,,,,,,,,,,,,,,AMSA09.jpg,AMSA17.jpg,AMNE16.jpg,AMNE15.jpg,AMNE16.jpg,MN,1,num_2,32,num_8,,,0.999953171937,2017_Jul_12_1201,59.9984989784,MAFE4ImagesEEG,001,200970,
AFNE01.JPG,AFNE01.JPG,AFNE01.JPG,AFNE01.JPG,AFNE01.JPG,AFNE01.JPG,,,,,,,,,5,6,56,2,,,,,,,,,,,,,,,AMSA02.jpg,AMNE11.jpg,AMNE03.jpg,AMSA16.jpg,AMSA16.jpg,MS,2,num_4,16,num_4,,,0.966781362891,2017_Jul_12_1201,59.9984989784,MAFE4ImagesEEG,001,200970,
AFNE01.JPG,AFNE01.JPG,AFNE01.JPG,AFNE01.JPG,AFNE01.JPG,AFNE01.JPG,,,,,,,,,5,7,57,0,,,,,,,,,,,,,,,AMSA16.jpg,AMSA08.jpg,AMNE01.jpg,AMNE13.jpg,AMNE01.jpg,MN,1,num_2,16,num_2,,,1.66696078447,2017_Jul_12_1201,59.9984989784,MAFE4ImagesEEG,001,200970,
AFNE01.JPG,AFNE01.JPG,AFNE01.JPG,AFNE01.JPG,AFNE01.JPG,AFNE01.JPG,,,,,,,,,5,8,58,4,,,,,,,,,,,,,,,AMSA20.jpg,AMSA18.jpg,AMNE04.jpg,AMNE14.jpg,AMNE14.jpg,MN,1,num_4,32,num_8,,,0.95010260446,2017_Jul_12_1201,59.9984989784,MAFE4ImagesEEG,001,200970,
AFNE01.JPG,AFNE01.JPG,AFNE01.JPG,AFNE01.JPG,AFNE01.JPG,AFNE01.JPG,,,,,,,,,5,9,59,9,,,,,,,,,,,,,,,AMNE08.jpg,AMNE10.jpg,AMSA18.jpg,AMSA04.jpg,AMNE08.jpg,MN,1,num_8,16,num_8,,,1.15008797869,2017_Jul_12_1201,59.9984989784,MAFE4ImagesEEG,001,200970,
,,,,,,,,,,,,,,,,,,,,,,,,,,,,,,,,,,,,,,,,,,space,11.4659528937,,2017_Jul_12_1201,59.9984989784,MAFE4ImagesEEG,001,200970,
AFNE01.JPG,AFNE01.JPG,AFNE01.JPG,AFNE01.JPG,AFNE01.JPG,AFNE01.JPG,,,,,,,,,,,,,0,0,0,5,,,,,,,,,,,AFNE15.jpg,AFNE03.jpg,AFSA05.jpg,AFSA03.jpg,AFSA03.jpg,FS,4,num_4,32,num_6,,,0.633526931517,2017_Jul_12_1201,59.9984989784,MAFE4ImagesEEG,001,200970,
AFNE01.JPG,AFNE01.JPG,AFNE01.JPG,AFNE01.JPG,AFNE01.JPG,AFNE01.JPG,,,,,,,,,,,,,0,1,1,2,,,,,,,,,,,AFSA01.jpg,AFNE16.jpg,AFSA17.jpg,AFNE19.jpg,AFNE16.jpg,FN,3,num_6,32,num_8,,,0.93348125834,2017_Jul_12_1201,59.9984989784,MAFE4ImagesEEG,001,200970,
AFNE01.JPG,AFNE01.JPG,AFNE01.JPG,AFNE01.JPG,AFNE01.JPG,AFNE01.JPG,,,,,,,,,,,,,0,2,2,6,,,,,,,,,,,AFNE17.jpg,AFSA19.jpg,AFNE02.jpg,AFSA20.jpg,AFNE02.jpg,FN,3,num_2,16,num_2,,,1.59974732157,2017_Jul_12_1201,59.9984989784,MAFE4ImagesEEG,001,200970,
AFNE01.JPG,AFNE01.JPG,AFNE01.JPG,AFNE01.JPG,AFNE01.JPG,AFNE01.JPG,,,,,,,,,,,,,0,3,3,3,,,,,,,,,,,AFSA16.jpg,AFNE18.jpg,AFNE13.jpg,AFSA12.jpg,AFSA16.jpg,FS,4,num_8,32,num_4,,,1.36698528891,2017_Jul_12_1201,59.9984989784,MAFE4ImagesEEG,001,200970,
AFNE01.JPG,AFNE01.JPG,AFNE01.JPG,AFNE01.JPG,AFNE01.JPG,AFNE01.JPG,,,,,,,,,,,,,0,4,4,0,,,,,,,,,,,AFNE06.jpg,AFNE10.jpg,AFSA19.jpg,AFSA12.jpg,AFNE06.jpg,FN,3,num_8,32,num_6,,,0.98344183946,2017_Jul_12_1201,59.9984989784,MAFE4ImagesEEG,001,200970,
AFNE01.JPG,AFNE01.JPG,AFNE01.JPG,AFNE01.JPG,AFNE01.JPG,AFNE01.JPG,,,,,,,,,,,,,0,5,5,8,,,,,,,,,,,AFNE11.jpg,AFNE13.jpg,AFSA15.jpg,AFSA17.jpg,AFSA15.jpg,FS,4,num_2,16,num_2,,,0.666745247785,2017_Jul_12_1201,59.9984989784,MAFE4ImagesEEG,001,200970,
AFNE01.JPG,AFNE01.JPG,AFNE01.JPG,AFNE01.JPG,AFNE01.JPG,AFNE01.JPG,,,,,,,,,,,,,0,6,6,7,,,,,,,,,,,AFNE20.jpg,AFSA10.jpg,AFNE03.jpg,AFSA05.jpg,AFNE20.jpg,FN,3,num_8,16,num_8,,,1.31675240025,2017_Jul_12_1201,59.9984989784,MAFE4ImagesEEG,001,200970,
AFNE01.JPG,AFNE01.JPG,AFNE01.JPG,AFNE01.JPG,AFNE01.JPG,AFNE01.JPG,,,,,,,,,,,,,0,7,7,1,,,,,,,,,,,AFNE08.jpg,AFSA11.jpg,AFNE16.jpg,AFSA12.jpg,AFSA11.jpg,FS,4,num_6,16,num_6,,,0.800107319374,2017_Jul_12_1201,59.9984989784,MAFE4ImagesEEG,001,200970,
AFNE01.JPG,AFNE01.JPG,AFNE01.JPG,AFNE01.JPG,AFNE01.JPG,AFNE01.JPG,,,,,,,,,,,,,0,8,8,4,,,,,,,,,,,AFSA18.jpg,AFSA14.jpg,AFNE15.jpg,AFNE19.jpg,AFNE19.jpg,FN,3,num_4,32,num_6,,,0.766805610852,2017_Jul_12_1201,59.9984989784,MAFE4ImagesEEG,001,200970,
AFNE01.JPG,AFNE01.JPG,AFNE01.JPG,AFNE01.JPG,AFNE01.JPG,AFNE01.JPG,,,,,,,,,,,,,0,9,9,9,,,,,,,,,,,AFNE07.jpg,AFSA06.jpg,AFNE19.jpg,AFSA08.jpg,AFSA06.jpg,FS,4,num_6,32,num_4,,,0.666785340058,2017_Jul_12_1201,59.9984989784,MAFE4ImagesEEG,001,200970,
AFNE01.JPG,AFNE01.JPG,AFNE01.JPG,AFNE01.JPG,AFNE01.JPG,AFNE01.JPG,,,,,,,,,,,,,1,0,10,3,,,,,,,,,,,AFSA10.jpg,AFNE11.jpg,AFNE03.jpg,AFSA17.jpg,AFSA10.jpg,FS,4,num_8,32,num_2,,,1.21673212945,2017_Jul_12_1201,59.9984989784,MAFE4ImagesEEG,001,200970,
AFNE01.JPG,AFNE01.JPG,AFNE01.JPG,AFNE01.JPG,AFNE01.JPG,AFNE01.JPG,,,,,,,,,,,,,1,1,11,6,,,,,,,,,,,AFNE15.jpg,AFNE08.jpg,AFSA04.jpg,AFSA11.jpg,AFSA04.jpg,FS,4,num_2,16,num_2,,,1.08341977256,2017_Jul_12_1201,59.9984989784,MAFE4ImagesEEG,001,200970,
AFNE01.JPG,AFNE01.JPG,AFNE01.JPG,AFNE01.JPG,AFNE01.JPG,AFNE01.JPG,,,,,,,,,,,,,1,2,12,0,,,,,,,,,,,AFSA03.jpg,AFNE14.jpg,AFNE15.jpg,AFSA10.jpg,AFNE15.jpg,FN,3,num_2,16,num_2,,,0.900136891287,2017_Jul_12_1201,59.9984989784,MAFE4ImagesEEG,001,200970,
AFNE01.JPG,AFNE01.JPG,AFNE01.JPG,AFNE01.JPG,AFNE01.JPG,AFNE01.JPG,,,,,,,,,,,,,1,3,13,9,,,,,,,,,,,AFSA11.jpg,AFSA05.jpg,AFNE16.jpg,AFNE02.jpg,AFSA11.jpg,FS,4,num_8,16,num_8,,,0.516828222899,2017_Jul_12_1201,59.9984989784,MAFE4ImagesEEG,001,200970,
AFNE01.JPG,AFNE01.JPG,AFNE01.JPG,AFNE01.JPG,AFNE01.JPG,AFNE01.JPG,,,,,,,,,,,,,1,4,14,4,,,,,,,,,,,AFSA15.jpg,AFNE01.jpg,AFNE13.jpg,AFSA02.jpg,AFSA02.jpg,FS,4,num_4,32,num_2,,,1.11676895036,2017_Jul_12_1201,59.9984989784,MAFE4ImagesEEG,001,200970,
AFNE01.JPG,AFNE01.JPG,AFNE01.JPG,AFNE01.JPG,AFNE01.JPG,AFNE01.JPG,,,,,,,,,,,,,1,5,15,1,,,,,,,,,,,AFNE02.jpg,AFNE11.jpg,AFSA20.jpg,AFSA01.jpg,AFSA20.jpg,FS,4,num_2,32,num_8,,,1.35011536977,2017_Jul_12_1201,59.9984989784,MAFE4ImagesEEG,001,200970,
AFNE01.JPG,AFNE01.JPG,AFNE01.JPG,AFNE01.JPG,AFNE01.JPG,AFNE01.JPG,,,,,,,,,,,,,1,6,16,5,,,,,,,,,,,AFSA06.jpg,AFNE06.jpg,AFNE13.jpg,AFSA09.jpg,AFSA09.jpg,FS,4,num_4,32,num_8,,,0.883441454498,2017_Jul_12_1201,59.9984989784,MAFE4ImagesEEG,001,200970,
AFNE01.JPG,AFNE01.JPG,AFNE01.JPG,AFNE01.JPG,AFNE01.JPG,AFNE01.JPG,,,,,,,,,,,,,1,7,17,7,,,,,,,,,,,AFSA10.jpg,AFNE04.jpg,AFNE03.jpg,AFSA14.jpg,AFSA10.jpg,FS,4,num_8,32,num_6,,,1.36672452814,2017_Jul_12_1201,59.9984989784,MAFE4ImagesEEG,001,200970,
AFNE01.JPG,AFNE01.JPG,AFNE01.JPG,AFNE01.JPG,AFNE01.JPG,AFNE01.JPG,,,,,,,,,,,,,1,8,18,2,,,,,,,,,,,AFSA10.jpg,AFNE18.jpg,AFNE06.jpg,AFSA04.jpg,AFNE06.jpg,FN,3,num_2,16,num_2,,,1.16673851223,2017_Jul_12_1201,59.9984989784,MAFE4ImagesEEG,001,200970,
AFNE01.JPG,AFNE01.JPG,AFNE01.JPG,AFNE01.JPG,AFNE01.JPG,AFNE01.JPG,,,,,,,,,,,,,1,9,19,8,,,,,,,,,,,AFSA11.jpg,AFSA19.jpg,AFNE13.jpg,AFNE16.jpg,AFSA11.jpg,FS,4,num_8,32,num_6,,,0.916787104215,2017_Jul_12_1201,59.9984989784,MAFE4ImagesEEG,001,200970,
AFNE01.JPG,AFNE01.JPG,AFNE01.JPG,AFNE01.JPG,AFNE01.JPG,AFNE01.JPG,,,,,,,,,,,,,2,0,20,6,,,,,,,,,,,AFSA19.jpg,AFNE03.jpg,AFSA08.jpg,AFNE17.jpg,AFNE17.jpg,FN,3,num_4,16,num_4,,,0.800164411077,2017_Jul_12_1201,59.9984989784,MAFE4ImagesEEG,001,200970,
AFNE01.JPG,AFNE01.JPG,AFNE01.JPG,AFNE01.JPG,AFNE01.JPG,AFNE01.JPG,,,,,,,,,,,,,2,1,21,7,,,,,,,,,,,AFSA16.jpg,AFSA04.jpg,AFNE02.jpg,AFNE07.jpg,AFSA16.jpg,FS,4,num_8,32,num_2,,,1.16670387262,2017_Jul_12_1201,59.9984989784,MAFE4ImagesEEG,001,200970,
AFNE01.JPG,AFNE01.JPG,AFNE01.JPG,AFNE01.JPG,AFNE01.JPG,AFNE01.JPG,,,,,,,,,,,,,2,2,22,4,,,,,,,,,,,AFNE18.jpg,AFNE10.jpg,AFSA10.jpg,AFSA09.jpg,AFSA09.jpg,FS,4,num_4,32,num_8,,,1.13344129408,2017_Jul_12_1201,59.9984989784,MAFE4ImagesEEG,001,200970,
AFNE01.JPG,AFNE01.JPG,AFNE01.JPG,AFNE01.JPG,AFNE01.JPG,AFNE01.JPG,,,,,,,,,,,,,2,3,23,8,,,,,,,,,,,AFSA19.jpg,AFSA20.jpg,AFNE06.jpg,AFNE03.jpg,AFNE06.jpg,FN,3,num_2,32,num_8,,,1.4171367099,2017_Jul_12_1201,59.9984989784,MAFE4ImagesEEG,001,200970,
AFNE01.JPG,AFNE01.JPG,AFNE01.JPG,AFNE01.JPG,AFNE01.JPG,AFNE01.JPG,,,,,,,,,,,,,2,4,24,2,,,,,,,,,,,AFSA19.jpg,AFSA09.jpg,AFNE10.jpg,AFNE12.jpg,AFNE12.jpg,FN,3,num_4,32,num_2,,,1.01632145513,2017_Jul_12_1201,59.9984989784,MAFE4ImagesEEG,001,200970,
AFNE01.JPG,AFNE01.JPG,AFNE01.JPG,AFNE01.JPG,AFNE01.JPG,AFNE01.JPG,,,,,,,,,,,,,2,5,25,1,,,,,,,,,,,AFSA09.jpg,AFNE08.jpg,AFNE06.jpg,AFSA03.jpg,AFNE06.jpg,FN,3,num_2,32,num_6,,,0.583436451154,2017_Jul_12_1201,59.9984989784,MAFE4ImagesEEG,001,200970,
AFNE01.JPG,AFNE01.JPG,AFNE01.JPG,AFNE01.JPG,AFNE01.JPG,AFNE01.JPG,,,,,,,,,,,,,2,6,26,0,,,,,,,,,,,AFSA02.jpg,AFNE17.jpg,AFSA03.jpg,AFNE20.jpg,AFSA03.jpg,FS,4,num_2,32,num_4,,,1.13345284085,2017_Jul_12_1201,59.9984989784,MAFE4ImagesEEG,001,200970,
AFNE01.JPG,AFNE01.JPG,AFNE01.JPG,AFNE01.JPG,AFNE01.JPG,AFNE01.JPG,,,,,,,,,,,,,2,7,27,5,,,,,,,,,,,AFNE17.jpg,AFNE19.jpg,AFSA05.jpg,AFSA12.jpg,AFSA05.jpg,FS,4,num_2,32,num_6,,,2.43363200547,2017_Jul_12_1201,59.9984989784,MAFE4ImagesEEG,001,200970,
AFNE01.JPG,AFNE01.JPG,AFNE01.JPG,AFNE01.JPG,AFNE01.JPG,AFNE01.JPG,,,,,,,,,,,,,2,8,28,3,,,,,,,,,,,AFSA04.jpg,AFNE01.jpg,AFSA03.jpg,AFNE18.jpg,AFSA04.jpg,FS,4,num_8,32,num_4,,,1.16684211092,2017_Jul_12_1201,59.9984989784,MAFE4ImagesEEG,001,200970,
AFNE01.JPG,AFNE01.JPG,AFNE01.JPG,AFNE01.JPG,AFNE01.JPG,AFNE01.JPG,,,,,,,,,,,,,2,9,29,9,,,,,,,,,,,AFNE07.jpg,AFSA17.jpg,AFNE13.jpg,AFSA19.jpg,AFNE13.jpg,FN,3,num_2,32,num_6,,,1.41674957774,2017_Jul_12_1201,59.9984989784,MAFE4ImagesEEG,001,200970,
AFNE01.JPG,AFNE01.JPG,AFNE01.JPG,AFNE01.JPG,AFNE01.JPG,AFNE01.JPG,,,,,,,,,,,,,3,0,30,9,,,,,,,,,,,AFNE18.jpg,AFNE20.jpg,AFSA05.jpg,AFSA15.jpg,AFNE20.jpg,FN,3,num_6,32,num_4,,,0.550136987586,2017_Jul_12_1201,59.9984989784,MAFE4ImagesEEG,001,200970,
AFNE01.JPG,AFNE01.JPG,AFNE01.JPG,AFNE01.JPG,AFNE01.JPG,AFNE01.JPG,,,,,,,,,,,,,3,1,31,0,,,,,,,,,,,AFNE05.jpg,AFSA06.jpg,AFNE15.jpg,AFSA19.jpg,AFSA06.jpg,FS,4,num_6,32,num_8,,,1.11674649874,2017_Jul_12_1201,59.9984989784,MAFE4ImagesEEG,001,200970,
AFNE01.JPG,AFNE01.JPG,AFNE01.JPG,AFNE01.JPG,AFNE01.JPG,AFNE01.JPG,,,,,,,,,,,,,3,2,32,8,,,,,,,,,,,AFNE11.jpg,AFSA02.jpg,AFSA07.jpg,AFNE03.jpg,AFNE03.jpg,FN,3,num_4,32,num_2,,,2.93327919254,2017_Jul_12_1201,59.9984989784,MAFE4ImagesEEG,001,200970,
AFNE01.JPG,AFNE01.JPG,AFNE01.JPG,AFNE01.JPG,AFNE01.JPG,AFNE01.JPG,,,,,,,,,,,,,3,3,33,7,,,,,,,,,,,AFSA14.jpg,AFNE12.jpg,AFNE10.jpg,AFSA01.jpg,AFSA14.jpg,FS,4,num_8,16,num_8,,,1.08342875331,2017_Jul_12_1201,59.9984989784,MAFE4ImagesEEG,001,200970,
AFNE01.JPG,AFNE01.JPG,AFNE01.JPG,AFNE01.JPG,AFNE01.JPG,AFNE01.JPG,,,,,,,,,,,,,3,4,34,2,,,,,,,,,,,AFNE18.jpg,AFSA01.jpg,AFSA19.jpg,AFNE20.jpg,AFSA01.jpg,FS,4,num_6,16,num_6,,,0.850144557189,2017_Jul_12_1201,59.9984989784,MAFE4ImagesEEG,001,200970,
AFNE01.JPG,AFNE01.JPG,AFNE01.JPG,AFNE01.JPG,AFNE01.JPG,AFNE01.JPG,,,,,,,,,,,,,3,5,35,4,,,,,,,,,,,AFNE19.jpg,AFSA03.jpg,AFNE03.jpg,AFSA06.jpg,AFNE19.jpg,FN,3,num_8,16,num_8,,,0.966641200008,2017_Jul_12_1201,59.9984989784,MAFE4ImagesEEG,001,200970,
AFNE01.JPG,AFNE01.JPG,AFNE01.JPG,AFNE01.JPG,AFNE01.JPG,AFNE01.JPG,,,,,,,,,,,,,3,6,36,3,,,,,,,,,,,AFSA06.jpg,AFSA10.jpg,AFNE09.jpg,AFNE17.jpg,AFNE17.jpg,FN,3,num_4,32,num_8,,,0.866652682424,2017_Jul_12_1201,59.9984989784,MAFE4ImagesEEG,001,200970,
AFNE01.JPG,AFNE01.JPG,AFNE01.JPG,AFNE01.JPG,AFNE01.JPG,AFNE01.JPG,,,,,,,,,,,,,3,7,37,6,,,,,,,,,,,AFNE05.jpg,AFNE08.jpg,AFSA09.jpg,AFSA20.jpg,AFNE05.jpg,FN,3,num_8,32,num_2,,,1.16706374171,2017_Jul_12_1201,59.9984989784,MAFE4ImagesEEG,001,200970,
AFNE01.JPG,AFNE01.JPG,AFNE01.JPG,AFNE01.JPG,AFNE01.JPG,AFNE01.JPG,,,,,,,,,,,,,3,8,38,1,,,,,,,,,,,AFSA12.jpg,AFNE11.jpg,AFNE08.jpg,AFSA05.jpg,AFSA05.jpg,FS,4,num_4,32,num_8,,,0.950103245908,2017_Jul_12_1201,59.9984989784,MAFE4ImagesEEG,001,200970,
AFNE01.JPG,AFNE01.JPG,AFNE01.JPG,AFNE01.JPG,AFNE01.JPG,AFNE01.JPG,,,,,,,,,,,,,3,9,39,5,,,,,,,,,,,AFNE20.jpg,AFNE17.jpg,AFSA19.jpg,AFSA18.jpg,AFNE17.jpg,FN,3,num_6,32,num_2,,,0.883447548375,2017_Jul_12_1201,59.9984989784,MAFE4ImagesEEG,001,200970,
AFNE01.JPG,AFNE01.JPG,AFNE01.JPG,AFNE01.JPG,AFNE01.JPG,AFNE01.JPG,,,,,,,,,,,,,4,0,40,6,,,,,,,,,,,AFNE05.jpg,AFSA13.jpg,AFSA02.jpg,AFNE01.jpg,AFNE05.jpg,FN,3,num_8,32,num_4,,,1.10008281493,2017_Jul_12_1201,59.9984989784,MAFE4ImagesEEG,001,200970,
AFNE01.JPG,AFNE01.JPG,AFNE01.JPG,AFNE01.JPG,AFNE01.JPG,AFNE01.JPG,,,,,,,,,,,,,4,1,41,7,,,,,,,,,,,AFSA12.jpg,AFNE18.jpg,AFSA10.jpg,AFNE16.jpg,AFNE18.jpg,FN,3,num_6,32,num_2,,,0.800173712196,2017_Jul_12_1201,59.9984989784,MAFE4ImagesEEG,001,200970,
AFNE01.JPG,AFNE01.JPG,AFNE01.JPG,AFNE01.JPG,AFNE01.JPG,AFNE01.JPG,,,,,,,,,,,,,4,2,42,1,,,,,,,,,,,AFNE18.jpg,AFSA03.jpg,AFSA01.jpg,AFNE04.jpg,AFNE18.jpg,FN,3,num_8,16,num_8,,,0.850137821632,2017_Jul_12_1201,59.9984989784,MAFE4ImagesEEG,001,200970,
AFNE01.JPG,AFNE01.JPG,AFNE01.JPG,AFNE01.JPG,AFNE01.JPG,AFNE01.JPG,,,,,,,,,,,,,4,3,43,5,,,,,,,,,,,AFSA02.jpg,AFNE14.jpg,AFNE09.jpg,AFSA04.jpg,AFNE14.jpg,FN,3,num_6,32,num_8,,,0.71674046875,2017_Jul_12_1201,59.9984989784,MAFE4ImagesEEG,001,200970,
AFNE01.JPG,AFNE01.JPG,AFNE01.JPG,AFNE01.JPG,AFNE01.JPG,AFNE01.JPG,,,,,,,,,,,,,4,4,44,4,,,,,,,,,,,AFSA18.jpg,AFNE10.jpg,AFNE17.jpg,AFSA20.jpg,AFNE10.jpg,FN,3,num_6,32,num_8,,,1.3334263477,2017_Jul_12_1201,59.9984989784,MAFE4ImagesEEG,001,200970,
AFNE01.JPG,AFNE01.JPG,AFNE01.JPG,AFNE01.JPG,AFNE01.JPG,AFNE01.JPG,,,,,,,,,,,,,4,5,45,9,,,,,,,,,,,AFSA02.jpg,AFNE12.jpg,AFNE19.jpg,AFSA01.jpg,AFSA02.jpg,FS,4,num_8,16,num_8,,,0.700122329872,2017_Jul_12_1201,59.9984989784,MAFE4ImagesEEG,001,200970,
AFNE01.JPG,AFNE01.JPG,AFNE01.JPG,AFNE01.JPG,AFNE01.JPG,AFNE01.JPG,,,,,,,,,,,,,4,6,46,2,,,,,,,,,,,AFNE08.jpg,AFSA18.jpg,AFNE01.jpg,AFSA12.jpg,AFSA12.jpg,FS,4,num_4,16,num_4,,,0.766761669656,2017_Jul_12_1201,59.9984989784,MAFE4ImagesEEG,001,200970,
AFNE01.JPG,AFNE01.JPG,AFNE01.JPG,AFNE01.JPG,AFNE01.JPG,AFNE01.JPG,,,,,,,,,,,,,4,7,47,0,,,,,,,,,,,AFSA05.jpg,AFNE04.jpg,AFSA07.jpg,AFNE18.jpg,AFSA07.jpg,FS,4,num_2,16,num_2,,,0.850111200241,2017_Jul_12_1201,59.9984989784,MAFE4ImagesEEG,001,200970,
AFNE01.JPG,AFNE01.JPG,AFNE01.JPG,AFNE01.JPG,AFNE01.JPG,AFNE01.JPG,,,,,,,,,,,,,4,8,48,8,,,,,,,,,,,AFNE19.jpg,AFSA15.jpg,AFNE01.jpg,AFSA03.jpg,AFNE19.jpg,FN,3,num_8,32,num_4,,,0.716803333722,2017_Jul_12_1201,59.9984989784,MAFE4ImagesEEG,001,200970,
AFNE01.JPG,AFNE01.JPG,AFNE01.JPG,AFNE01.JPG,AFNE01.JPG,AFNE01.JPG,,,,,,,,,,,,,4,9,49,3,,,,,,,,,,,AFNE19.jpg,AFSA12.jpg,AFSA20.jpg,AFNE11.jpg,AFSA20.jpg,FS,4,num_2,32,num_8,,,0.966725875158,2017_Jul_12_1201,59.9984989784,MAFE4ImagesEEG,001,200970,
AFNE01.JPG,AFNE01.JPG,AFNE01.JPG,AFNE01.JPG,AFNE01.JPG,AFNE01.JPG,,,,,,,,,,,,,5,0,50,5,,,,,,,,,,,AFSA19.jpg,AFNE18.jpg,AFNE16.jpg,AFSA11.jpg,AFNE16.jpg,FN,3,num_2,16,num_2,,,1.15010305354,2017_Jul_12_1201,59.9984989784,MAFE4ImagesEEG,001,200970,
AFNE01.JPG,AFNE01.JPG,AFNE01.JPG,AFNE01.JPG,AFNE01.JPG,AFNE01.JPG,,,,,,,,,,,,,5,1,51,2,,,,,,,,,,,AFNE19.jpg,AFSA03.jpg,AFSA05.jpg,AFNE18.jpg,AFNE19.jpg,FN,3,num_8,32,num_4,,,0.933449825738,2017_Jul_12_1201,59.9984989784,MAFE4ImagesEEG,001,200970,
AFNE01.JPG,AFNE01.JPG,AFNE01.JPG,AFNE01.JPG,AFNE01.JPG,AFNE01.JPG,,,,,,,,,,,,,5,2,52,8,,,,,,,,,,,AFSA01.jpg,AFNE02.jpg,AFNE06.jpg,AFSA20.jpg,AFNE02.jpg,FN,3,num_6,16,num_6,,,0.383508489002,2017_Jul_12_1201,59.9984989784,MAFE4ImagesEEG,001,200970,
AFNE01.JPG,AFNE01.JPG,AFNE01.JPG,AFNE01.JPG,AFNE01.JPG,AFNE01.JPG,,,,,,,,,,,,,5,3,53,1,,,,,,,,,,,AFNE01.jpg,AFSA13.jpg,AFSA16.jpg,AFNE18.jpg,AFSA13.jpg,FS,4,num_6,32,num_8,,,0.783480520593,2017_Jul_12_1201,59.9984989784,MAFE4ImagesEEG,001,200970,
AFNE01.JPG,AFNE01.JPG,AFNE01.JPG,AFNE01.JPG,AFNE01.JPG,AFNE01.JPG,,,,,,,,,,,,,5,4,54,7,,,,,,,,,,,AFNE08.jpg,AFNE13.jpg,AFSA17.jpg,AFSA01.jpg,AFSA01.jpg,FS,4,num_4,16,num_4,,,0.533472662326,2017_Jul_12_1201,59.9984989784,MAFE4ImagesEEG,001,200970,
AFNE01.JPG,AFNE01.JPG,AFNE01.JPG,AFNE01.JPG,AFNE01.JPG,AFNE01.JPG,,,,,,,,,,,,,5,5,55,4,,,,,,,,,,,AFSA04.jpg,AFSA05.jpg,AFNE17.jpg,AFNE08.jpg,AFNE08.jpg,FN,3,num_4,16,num_4,,,0.650155975483,2017_Jul_12_1201,59.9984989784,MAFE4ImagesEEG,001,200970,
AFNE01.JPG,AFNE01.JPG,AFNE01.JPG,AFNE01.JPG,AFNE01.JPG,AFNE01.JPG,,,,,,,,,,,,,5,6,56,6,,,,,,,,,,,AFNE18.jpg,AFSA20.jpg,AFSA09.jpg,AFNE19.jpg,AFSA20.jpg,FS,4,num_6,32,num_8,,,0.4668785471,2017_Jul_12_1201,59.9984989784,MAFE4ImagesEEG,001,200970,
AFNE01.JPG,AFNE01.JPG,AFNE01.JPG,AFNE01.JPG,AFNE01.JPG,AFNE01.JPG,,,,,,,,,,,,,5,7,57,0,,,,,,,,,,,AFSA08.jpg,AFNE10.jpg,AFSA01.jpg,AFNE01.jpg,AFNE10.jpg,FN,3,num_6,16,num_6,,,1.34983889293,2017_Jul_12_1201,59.9984989784,MAFE4ImagesEEG,001,200970,
AFNE01.JPG,AFNE01.JPG,AFNE01.JPG,AFNE01.JPG,AFNE01.JPG,AFNE01.JPG,,,,,,,,,,,,,5,8,58,3,,,,,,,,,,,AFNE19.jpg,AFSA05.jpg,AFNE03.jpg,AFSA09.jpg,AFNE19.jpg,FN,3,num_8,16,num_8,,,0.900260055205,2017_Jul_12_1201,59.9984989784,MAFE4ImagesEEG,001,200970,
AFNE01.JPG,AFNE01.JPG,AFNE01.JPG,AFNE01.JPG,AFNE01.JPG,AFNE01.JPG,,,,,,,,,,,,,5,9,59,9,,,,,,,,,,,AFSA19.jpg,AFSA08.jpg,AFNE07.jpg,AFNE06.jpg,AFNE07.jpg,FN,3,num_2,16,num_2,,,0.950130829355,2017_Jul_12_1201,59.9984989784,MAFE4ImagesEEG,001,200970,
,,,,,,,,,,,,,,,,,,,,,,,,,,,,,,,,,,,,,,,,,,space,8.96640962642,,2017_Jul_12_1201,59.9984989784,MAFE4ImagesEEG,001,200970,
AFNE01.JPG,AFNE01.JPG,AFNE01.JPG,AFNE01.JPG,AFNE01.JPG,AFNE01.JPG,,,,,,,,,,,,,,,,,0,0,0,2,,,,,,,AMNE17.jpg,AMSA14.jpg,AMSA04.jpg,AMNE01.jpg,AMNE17.jpg,MN,1,num_8,16,num_8,,,0.866777449846,2017_Jul_12_1201,59.9984989784,MAFE4ImagesEEG,001,200970,
AFNE01.JPG,AFNE01.JPG,AFNE01.JPG,AFNE01.JPG,AFNE01.JPG,AFNE01.JPG,,,,,,,,,,,,,,,,,0,1,1,7,,,,,,,AMNE02.jpg,AMNE05.jpg,AMSA09.jpg,AMSA04.jpg,AMSA04.jpg,MS,2,num_4,32,num_8,,,0.916842592182,2017_Jul_12_1201,59.9984989784,MAFE4ImagesEEG,001,200970,
AFNE01.JPG,AFNE01.JPG,AFNE01.JPG,AFNE01.JPG,AFNE01.JPG,AFNE01.JPG,,,,,,,,,,,,,,,,,0,2,2,0,,,,,,,AMNE14.jpg,AMNE13.jpg,AMSA20.jpg,AMSA02.jpg,AMNE13.jpg,MN,1,num_6,16,num_6,,,0.9335492549,2017_Jul_12_1201,59.9984989784,MAFE4ImagesEEG,001,200970,
AFNE01.JPG,AFNE01.JPG,AFNE01.JPG,AFNE01.JPG,AFNE01.JPG,AFNE01.JPG,,,,,,,,,,,,,,,,,0,3,3,1,,,,,,,AMNE15.jpg,AMSA15.jpg,AMSA13.jpg,AMNE16.jpg,AMNE15.jpg,MN,1,num_8,32,num_2,,,0.733453546418,2017_Jul_12_1201,59.9984989784,MAFE4ImagesEEG,001,200970,
AFNE01.JPG,AFNE01.JPG,AFNE01.JPG,AFNE01.JPG,AFNE01.JPG,AFNE01.JPG,,,,,,,,,,,,,,,,,0,4,4,8,,,,,,,AMNE16.jpg,AMSA05.jpg,AMNE10.jpg,AMSA09.jpg,AMSA09.jpg,MS,2,num_4,32,num_2,,,1.33343436616,2017_Jul_12_1201,59.9984989784,MAFE4ImagesEEG,001,200970,
AFNE01.JPG,AFNE01.JPG,AFNE01.JPG,AFNE01.JPG,AFNE01.JPG,AFNE01.JPG,,,,,,,,,,,,,,,,,0,5,5,6,,,,,,,AMSA05.jpg,AMNE17.jpg,AMNE06.jpg,AMSA07.jpg,AMSA05.jpg,MS,2,num_8,16,num_8,,,1.08345409157,2017_Jul_12_1201,59.9984989784,MAFE4ImagesEEG,001,200970,
AFNE01.JPG,AFNE01.JPG,AFNE01.JPG,AFNE01.JPG,AFNE01.JPG,AFNE01.JPG,,,,,,,,,,,,,,,,,0,6,6,4,,,,,,,AMSA14.jpg,AMNE03.jpg,AMNE06.jpg,AMSA09.jpg,AMSA14.jpg,MS,2,num_8,16,num_8,,,0.833425064804,2017_Jul_12_1201,59.9984989784,MAFE4ImagesEEG,001,200970,
AFNE01.JPG,AFNE01.JPG,AFNE01.JPG,AFNE01.JPG,AFNE01.JPG,AFNE01.JPG,,,,,,,,,,,,,,,,,0,7,7,9,,,,,,,AMSA15.jpg,AMSA08.jpg,AMNE15.jpg,AMNE10.jpg,AMSA08.jpg,MS,2,num_6,16,num_6,,,0.916722314898,2017_Jul_12_1201,59.9984989784,MAFE4ImagesEEG,001,200970,
AFNE01.JPG,AFNE01.JPG,AFNE01.JPG,AFNE01.JPG,AFNE01.JPG,AFNE01.JPG,,,,,,,,,,,,,,,,,0,8,8,5,,,,,,,AMNE20.jpg,AMSA13.jpg,AMNE04.jpg,AMSA01.jpg,AMSA01.jpg,MS,2,num_4,16,num_4,,,0.667036158266,2017_Jul_12_1201,59.9984989784,MAFE4ImagesEEG,001,200970,
AFNE01.JPG,AFNE01.JPG,AFNE01.JPG,AFNE01.JPG,AFNE01.JPG,AFNE01.JPG,,,,,,,,,,,,,,,,,0,9,9,3,,,,,,,AMSA14.jpg,AMNE20.jpg,AMSA13.jpg,AMNE14.jpg,AMSA14.jpg,MS,2,num_8,32,num_4,,,0.70011912263,2017_Jul_12_1201,59.9984989784,MAFE4ImagesEEG,001,200970,
AFNE01.JPG,AFNE01.JPG,AFNE01.JPG,AFNE01.JPG,AFNE01.JPG,AFNE01.JPG,,,,,,,,,,,,,,,,,1,0,10,5,,,,,,,AMSA14.jpg,AMNE07.jpg,AMSA07.jpg,AMNE04.jpg,AMNE04.jpg,MN,1,num_4,16,num_4,,,0.833444950636,2017_Jul_12_1201,59.9984989784,MAFE4ImagesEEG,001,200970,
AFNE01.JPG,AFNE01.JPG,AFNE01.JPG,AFNE01.JPG,AFNE01.JPG,AFNE01.JPG,,,,,,,,,,,,,,,,,1,1,11,0,,,,,,,AMNE19.jpg,AMNE02.jpg,AMSA17.jpg,AMSA16.jpg,AMNE02.jpg,MN,1,num_6,16,num_6,,,0.550140195061,2017_Jul_12_1201,59.9984989784,MAFE4ImagesEEG,001,200970,
AFNE01.JPG,AFNE01.JPG,AFNE01.JPG,AFNE01.JPG,AFNE01.JPG,AFNE01.JPG,,,,,,,,,,,,,,,,,1,2,12,4,,,,,,,AMSA04.jpg,AMNE13.jpg,AMNE09.jpg,AMSA06.jpg,AMSA04.jpg,MS,2,num_8,32,num_4,,,0.816763305571,2017_Jul_12_1201,59.9984989784,MAFE4ImagesEEG,001,200970,
AFNE01.JPG,AFNE01.JPG,AFNE01.JPG,AFNE01.JPG,AFNE01.JPG,AFNE01.JPG,,,,,,,,,,,,,,,,,1,3,13,2,,,,,,,AMSA06.jpg,AMSA13.jpg,AMNE18.jpg,AMNE19.jpg,AMNE18.jpg,MN,1,num_2,16,num_2,,,1.50009590108,2017_Jul_12_1201,59.9984989784,MAFE4ImagesEEG,001,200970,
AFNE01.JPG,AFNE01.JPG,AFNE01.JPG,AFNE01.JPG,AFNE01.JPG,AFNE01.JPG,,,,,,,,,,,,,,,,,1,4,14,8,,,,,,,AMSA17.jpg,AMNE08.jpg,AMNE02.jpg,AMSA15.jpg,AMNE02.jpg,MN,1,num_2,32,num_6,,,0.716750732623,2017_Jul_12_1201,59.9984989784,MAFE4ImagesEEG,001,200970,
AFNE01.JPG,AFNE01.JPG,AFNE01.JPG,AFNE01.JPG,AFNE01.JPG,AFNE01.JPG,,,,,,,,,,,,,,,,,1,5,15,7,,,,,,,AMNE18.jpg,AMNE12.jpg,AMSA04.jpg,AMSA15.jpg,AMSA15.jpg,MS,2,num_4,32,num_6,,,1.25007842062,2017_Jul_12_1201,59.9984989784,MAFE4ImagesEEG,001,200970,
AFNE01.JPG,AFNE01.JPG,AFNE01.JPG,AFNE01.JPG,AFNE01.JPG,AFNE01.JPG,,,,,,,,,,,,,,,,,1,6,16,3,,,,,,,AMSA02.jpg,AMNE09.jpg,AMSA15.jpg,AMNE13.jpg,AMSA02.jpg,MS,2,num_8,32,num_4,,,1.35013750079,2017_Jul_12_1201,59.9984989784,MAFE4ImagesEEG,001,200970,
AFNE01.JPG,AFNE01.JPG,AFNE01.JPG,AFNE01.JPG,AFNE01.JPG,AFNE01.JPG,,,,,,,,,,,,,,,,,1,7,17,9,,,,,,,AMSA13.jpg,AMNE07.jpg,AMNE04.jpg,AMSA10.jpg,AMNE07.jpg,MN,1,num_6,32,num_8,,,1.61671057576,2017_Jul_12_1201,59.9984989784,MAFE4ImagesEEG,001,200970,
AFNE01.JPG,AFNE01.JPG,AFNE01.JPG,AFNE01.JPG,AFNE01.JPG,AFNE01.JPG,,,,,,,,,,,,,,,,,1,8,18,1,,,,,,,AMSA15.jpg,AMNE08.jpg,AMSA16.jpg,AMNE15.jpg,AMSA16.jpg,MS,2,num_2,16,num_2,,,1.05013795011,2017_Jul_12_1201,59.9984989784,MAFE4ImagesEEG,001,200970,
AFNE01.JPG,AFNE01.JPG,AFNE01.JPG,AFNE01.JPG,AFNE01.JPG,AFNE01.JPG,,,,,,,,,,,,,,,,,1,9,19,6,,,,,,,AMNE04.jpg,AMSA09.jpg,AMSA18.jpg,AMNE20.jpg,AMNE20.jpg,MN,1,num_4,16,num_4,,,0.966786494944,2017_Jul_12_1201,59.9984989784,MAFE4ImagesEEG,001,200970,
AFNE01.JPG,AFNE01.JPG,AFNE01.JPG,AFNE01.JPG,AFNE01.JPG,AFNE01.JPG,,,,,,,,,,,,,,,,,2,0,20,7,,,,,,,AMSA05.jpg,AMNE04.jpg,AMSA07.jpg,AMNE11.jpg,AMSA07.jpg,MS,2,num_2,16,num_2,,,0.933408450335,2017_Jul_12_1201,59.9984989784,MAFE4ImagesEEG,001,200970,
AFNE01.JPG,AFNE01.JPG,AFNE01.JPG,AFNE01.JPG,AFNE01.JPG,AFNE01.JPG,,,,,,,,,,,,,,,,,2,1,21,6,,,,,,,AMNE19.jpg,AMSA16.jpg,AMSA02.jpg,AMNE18.jpg,AMSA02.jpg,MS,2,num_2,16,num_2,,,0.900165758096,2017_Jul_12_1201,59.9984989784,MAFE4ImagesEEG,001,200970,
AFNE01.JPG,AFNE01.JPG,AFNE01.JPG,AFNE01.JPG,AFNE01.JPG,AFNE01.JPG,,,,,,,,,,,,,,,,,2,2,22,3,,,,,,,AMSA08.jpg,AMNE04.jpg,AMNE03.jpg,AMSA15.jpg,AMSA15.jpg,MS,2,num_4,16,num_4,,,0.883411946474,2017_Jul_12_1201,59.9984989784,MAFE4ImagesEEG,001,200970,
AFNE01.JPG,AFNE01.JPG,AFNE01.JPG,AFNE01.JPG,AFNE01.JPG,AFNE01.JPG,,,,,,,,,,,,,,,,,2,3,23,2,,,,,,,AMSA18.jpg,AMSA06.jpg,AMNE19.jpg,AMNE03.jpg,AMSA06.jpg,MS,2,num_6,32,num_4,,,0.816794737708,2017_Jul_12_1201,59.9984989784,MAFE4ImagesEEG,001,200970,
AFNE01.JPG,AFNE01.JPG,AFNE01.JPG,AFNE01.JPG,AFNE01.JPG,AFNE01.JPG,,,,,,,,,,,,,,,,,2,4,24,8,,,,,,,AMSA03.jpg,AMNE06.jpg,AMSA11.jpg,AMNE01.jpg,AMNE06.jpg,MN,1,num_6,16,num_6,,,1.53350601927,2017_Jul_12_1201,59.9984989784,MAFE4ImagesEEG,001,200970,
AFNE01.JPG,AFNE01.JPG,AFNE01.JPG,AFNE01.JPG,AFNE01.JPG,AFNE01.JPG,,,,,,,,,,,,,,,,,2,5,25,9,,,,,,,AMSA10.jpg,AMNE04.jpg,AMSA01.jpg,AMNE10.jpg,AMNE10.jpg,MN,1,num_4,16,num_4,,,0.766785083804,2017_Jul_12_1201,59.9984989784,MAFE4ImagesEEG,001,200970,
AFNE01.JPG,AFNE01.JPG,AFNE01.JPG,AFNE01.JPG,AFNE01.JPG,AFNE01.JPG,,,,,,,,,,,,,,,,,2,6,26,5,,,,,,,AMSA07.jpg,AMSA12.jpg,AMNE08.jpg,AMNE10.jpg,AMSA12.jpg,MS,2,num_6,32,num_4,,,1.03344572033,2017_Jul_12_1201,59.9984989784,MAFE4ImagesEEG,001,200970,
AFNE01.JPG,AFNE01.JPG,AFNE01.JPG,AFNE01.JPG,AFNE01.JPG,AFNE01.JPG,,,,,,,,,,,,,,,,,2,7,27,0,,,,,,,AMSA12.jpg,AMSA18.jpg,AMNE15.jpg,AMNE11.jpg,AMNE15.jpg,MN,1,num_2,16,num_2,,,1.31670011976,2017_Jul_12_1201,59.9984989784,MAFE4ImagesEEG,001,200970,
AFNE01.JPG,AFNE01.JPG,AFNE01.JPG,AFNE01.JPG,AFNE01.JPG,AFNE01.JPG,,,,,,,,,,,,,,,,,2,8,28,1,,,,,,,AMNE02.jpg,AMNE18.jpg,AMSA08.jpg,AMSA16.jpg,AMSA08.jpg,MS,2,num_2,32,num_4,,,2.0830230182,2017_Jul_12_1201,59.9984989784,MAFE4ImagesEEG,001,200970,
AFNE01.JPG,AFNE01.JPG,AFNE01.JPG,AFNE01.JPG,AFNE01.JPG,AFNE01.JPG,,,,,,,,,,,,,,,,,2,9,29,4,,,,,,,AMSA03.jpg,AMNE16.jpg,AMSA10.jpg,AMNE03.jpg,AMNE03.jpg,MN,1,num_4,32,num_8,,,0.916813404765,2017_Jul_12_1201,59.9984989784,MAFE4ImagesEEG,001,200970,
AFNE01.JPG,AFNE01.JPG,AFNE01.JPG,AFNE01.JPG,AFNE01.JPG,AFNE01.JPG,,,,,,,,,,,,,,,,,3,0,30,9,,,,,,,AMSA10.jpg,AMNE20.jpg,AMSA18.jpg,AMNE01.jpg,AMNE01.jpg,MN,1,num_4,16,num_4,,,0.650146673899,2017_Jul_12_1201,59.9984989784,MAFE4ImagesEEG,001,200970,
AFNE01.JPG,AFNE01.JPG,AFNE01.JPG,AFNE01.JPG,AFNE01.JPG,AFNE01.JPG,,,,,,,,,,,,,,,,,3,1,31,2,,,,,,,AMNE17.jpg,AMSA11.jpg,AMSA04.jpg,AMNE08.jpg,AMNE08.jpg,MN,1,num_4,16,num_4,,,0.583443186479,2017_Jul_12_1201,59.9984989784,MAFE4ImagesEEG,001,200970,
AFNE01.JPG,AFNE01.JPG,AFNE01.JPG,AFNE01.JPG,AFNE01.JPG,AFNE01.JPG,,,,,,,,,,,,,,,,,3,2,32,4,,,,,,,AMSA07.jpg,AMNE20.jpg,AMSA01.jpg,AMNE11.jpg,AMNE20.jpg,MN,1,num_6,16,num_6,,,0.883453321876,2017_Jul_12_1201,59.9984989784,MAFE4ImagesEEG,001,200970,
AFNE01.JPG,AFNE01.JPG,AFNE01.JPG,AFNE01.JPG,AFNE01.JPG,AFNE01.JPG,,,,,,,,,,,,,,,,,3,3,33,5,,,,,,,AMSA06.jpg,AMNE01.jpg,AMSA11.jpg,AMNE07.jpg,AMSA06.jpg,MS,2,num_8,16,num_8,,,1.21673533693,2017_Jul_12_1201,59.9984989784,MAFE4ImagesEEG,001,200970,
AFNE01.JPG,AFNE01.JPG,AFNE01.JPG,AFNE01.JPG,AFNE01.JPG,AFNE01.JPG,,,,,,,,,,,,,,,,,3,4,34,6,,,,,,,AMNE16.jpg,AMSA14.jpg,AMNE02.jpg,AMSA12.jpg,AMSA14.jpg,MS,2,num_6,32,num_4,,,1.05010298942,2017_Jul_12_1201,59.9984989784,MAFE4ImagesEEG,001,200970,
AFNE01.JPG,AFNE01.JPG,AFNE01.JPG,AFNE01.JPG,AFNE01.JPG,AFNE01.JPG,,,,,,,,,,,,,,,,,3,5,35,8,,,,,,,AMSA17.jpg,AMSA03.jpg,AMNE06.jpg,AMNE02.jpg,AMNE06.jpg,MN,1,num_2,16,num_2,,,0.883449472953,2017_Jul_12_1201,59.9984989784,MAFE4ImagesEEG,001,200970,
AFNE01.JPG,AFNE01.JPG,AFNE01.JPG,AFNE01.JPG,AFNE01.JPG,AFNE01.JPG,,,,,,,,,,,,,,,,,3,6,36,3,,,,,,,AMSA10.jpg,AMNE08.jpg,AMNE05.jpg,AMSA05.jpg,AMSA10.jpg,MS,2,num_8,16,num_8,,,0.916758879321,2017_Jul_12_1201,59.9984989784,MAFE4ImagesEEG,001,200970,
AFNE01.JPG,AFNE01.JPG,AFNE01.JPG,AFNE01.JPG,AFNE01.JPG,AFNE01.JPG,,,,,,,,,,,,,,,,,3,7,37,7,,,,,,,AMNE07.jpg,AMSA01.jpg,AMNE11.jpg,AMSA03.jpg,AMNE11.jpg,MN,1,num_2,32,num_8,,,0.866788675776,2017_Jul_12_1201,59.9984989784,MAFE4ImagesEEG,001,200970,
AFNE01.JPG,AFNE01.JPG,AFNE01.JPG,AFNE01.JPG,AFNE01.JPG,AFNE01.JPG,,,,,,,,,,,,,,,,,3,8,38,0,,,,,,,AMNE18.jpg,AMSA11.jpg,AMSA12.jpg,AMNE17.jpg,AMNE17.jpg,MN,1,num_4,32,num_2,,,1.21680814493,2017_Jul_12_1201,59.9984989784,MAFE4ImagesEEG,001,200970,
AFNE01.JPG,AFNE01.JPG,AFNE01.JPG,AFNE01.JPG,AFNE01.JPG,AFNE01.JPG,,,,,,,,,,,,,,,,,3,9,39,1,,,,,,,AMSA11.jpg,AMNE14.jpg,AMNE02.jpg,AMSA01.jpg,AMNE14.jpg,MN,1,num_6,16,num_6,,,0.783359281253,2017_Jul_12_1201,59.9984989784,MAFE4ImagesEEG,001,200970,
AFNE01.JPG,AFNE01.JPG,AFNE01.JPG,AFNE01.JPG,AFNE01.JPG,AFNE01.JPG,,,,,,,,,,,,,,,,,4,0,40,0,,,,,,,AMNE05.jpg,AMSA19.jpg,AMSA18.jpg,AMNE02.jpg,AMSA19.jpg,MS,2,num_6,32,num_2,,,1.00012893695,2017_Jul_12_1201,59.9984989784,MAFE4ImagesEEG,001,200970,
AFNE01.JPG,AFNE01.JPG,AFNE01.JPG,AFNE01.JPG,AFNE01.JPG,AFNE01.JPG,,,,,,,,,,,,,,,,,4,1,41,4,,,,,,,AMNE10.jpg,AMSA15.jpg,AMNE12.jpg,AMSA16.jpg,AMNE12.jpg,MN,1,num_2,32,num_6,,,0.683537547942,2017_Jul_12_1201,59.9984989784,MAFE4ImagesEEG,001,200970,
AFNE01.JPG,AFNE01.JPG,AFNE01.JPG,AFNE01.JPG,AFNE01.JPG,AFNE01.JPG,,,,,,,,,,,,,,,,,4,2,42,5,,,,,,,AMSA17.jpg,AMNE13.jpg,AMSA07.jpg,AMNE10.jpg,AMSA17.jpg,MS,2,num_8,16,num_8,,,1.03373855539,2017_Jul_12_1201,59.9984989784,MAFE4ImagesEEG,001,200970,
AFNE01.JPG,AFNE01.JPG,AFNE01.JPG,AFNE01.JPG,AFNE01.JPG,AFNE01.JPG,,,,,,,,,,,,,,,,,4,3,43,8,,,,,,,AMNE19.jpg,AMSA12.jpg,AMSA19.jpg,AMNE17.jpg,AMNE19.jpg,MN,1,num_8,32,num_6,,,1.03344187164,2017_Jul_12_1201,59.9984989784,MAFE4ImagesEEG,001,200970,
AFNE01.JPG,AFNE01.JPG,AFNE01.JPG,AFNE01.JPG,AFNE01.JPG,AFNE01.JPG,,,,,,,,,,,,,,,,,4,4,44,3,,,,,,,AMNE06.jpg,AMNE05.jpg,AMSA12.jpg,AMSA17.jpg,AMNE05.jpg,MN,1,num_6,32,num_2,,,0.833489533281,2017_Jul_12_1201,59.9984989784,MAFE4ImagesEEG,001,200970,
AFNE01.JPG,AFNE01.JPG,AFNE01.JPG,AFNE01.JPG,AFNE01.JPG,AFNE01.JPG,,,,,,,,,,,,,,,,,4,5,45,2,,,,,,,AMSA18.jpg,AMNE02.jpg,AMSA16.jpg,AMNE10.jpg,AMNE02.jpg,MN,1,num_6,16,num_6,,,1.20010629296,2017_Jul_12_1201,59.9984989784,MAFE4ImagesEEG,001,200970,
AFNE01.JPG,AFNE01.JPG,AFNE01.JPG,AFNE01.JPG,AFNE01.JPG,AFNE01.JPG,,,,,,,,,,,,,,,,,4,6,46,7,,,,,,,AMNE01.jpg,AMSA09.jpg,AMSA07.jpg,AMNE03.jpg,AMSA07.jpg,MS,2,num_2,16,num_2,,,1.41671718308,2017_Jul_12_1201,59.9984989784,MAFE4ImagesEEG,001,200970,
AFNE01.JPG,AFNE01.JPG,AFNE01.JPG,AFNE01.JPG,AFNE01.JPG,AFNE01.JPG,,,,,,,,,,,,,,,,,4,7,47,9,,,,,,,AMNE05.jpg,AMSA18.jpg,AMNE07.jpg,AMSA16.jpg,AMNE07.jpg,MN,1,num_2,32,num_8,,,1.33344270545,2017_Jul_12_1201,59.9984989784,MAFE4ImagesEEG,001,200970,
AFNE01.JPG,AFNE01.JPG,AFNE01.JPG,AFNE01.JPG,AFNE01.JPG,AFNE01.JPG,,,,,,,,,,,,,,,,,4,8,48,1,,,,,,,AMNE20.jpg,AMSA19.jpg,AMSA17.jpg,AMNE07.jpg,AMSA17.jpg,MS,2,num_2,32,num_6,,,0.783456465229,2017_Jul_12_1201,59.9984989784,MAFE4ImagesEEG,001,200970,
AFNE01.JPG,AFNE01.JPG,AFNE01.JPG,AFNE01.JPG,AFNE01.JPG,AFNE01.JPG,,,,,,,,,,,,,,,,,4,9,49,6,,,,,,,AMNE16.jpg,AMNE20.jpg,AMSA18.jpg,AMSA11.jpg,AMNE16.jpg,MN,1,num_8,16,num_8,,,0.90015838109,2017_Jul_12_1201,59.9984989784,MAFE4ImagesEEG,001,200970,
AFNE01.JPG,AFNE01.JPG,AFNE01.JPG,AFNE01.JPG,AFNE01.JPG,AFNE01.JPG,,,,,,,,,,,,,,,,,5,0,50,5,,,,,,,AMSA01.jpg,AMNE11.jpg,AMSA20.jpg,AMNE15.jpg,AMNE11.jpg,MN,1,num_6,16,num_6,,,0.583496429259,2017_Jul_12_1201,59.9984989784,MAFE4ImagesEEG,001,200970,
AFNE01.JPG,AFNE01.JPG,AFNE01.JPG,AFNE01.JPG,AFNE01.JPG,AFNE01.JPG,,,,,,,,,,,,,,,,,5,1,51,3,,,,,,,AMNE10.jpg,AMNE11.jpg,AMSA03.jpg,AMSA20.jpg,AMNE10.jpg,MN,1,num_8,16,num_8,,,0.850120822433,2017_Jul_12_1201,59.9984989784,MAFE4ImagesEEG,001,200970,
AFNE01.JPG,AFNE01.JPG,AFNE01.JPG,AFNE01.JPG,AFNE01.JPG,AFNE01.JPG,,,,,,,,,,,,,,,,,5,2,52,2,,,,,,,AMNE19.jpg,AMSA12.jpg,AMSA16.jpg,AMNE04.jpg,AMSA12.jpg,MS,2,num_6,32,num_2,,,1.11677504447,2017_Jul_12_1201,59.9984989784,MAFE4ImagesEEG,001,200970,
AFNE01.JPG,AFNE01.JPG,AFNE01.JPG,AFNE01.JPG,AFNE01.JPG,AFNE01.JPG,,,,,,,,,,,,,,,,,5,3,53,0,,,,,,,AMNE15.jpg,AMSA19.jpg,AMNE07.jpg,AMSA09.jpg,AMSA09.jpg,MS,2,num_4,16,num_4,,,1.06680163369,2017_Jul_12_1201,59.9984989784,MAFE4ImagesEEG,001,200970,
AFNE01.JPG,AFNE01.JPG,AFNE01.JPG,AFNE01.JPG,AFNE01.JPG,AFNE01.JPG,,,,,,,,,,,,,,,,,5,4,54,8,,,,,,,AMNE14.jpg,AMNE05.jpg,AMSA08.jpg,AMSA03.jpg,AMNE05.jpg,MN,1,num_6,16,num_6,,,0.850126595702,2017_Jul_12_1201,59.9984989784,MAFE4ImagesEEG,001,200970,
AFNE01.JPG,AFNE01.JPG,AFNE01.JPG,AFNE01.JPG,AFNE01.JPG,AFNE01.JPG,,,,,,,,,,,,,,,,,5,5,55,6,,,,,,,AMSA12.jpg,AMNE18.jpg,AMSA08.jpg,AMNE17.jpg,AMNE18.jpg,MN,1,num_6,32,num_4,,,0.933434430277,2017_Jul_12_1201,59.9984989784,MAFE4ImagesEEG,001,200970,
AFNE01.JPG,AFNE01.JPG,AFNE01.JPG,AFNE01.JPG,AFNE01.JPG,AFNE01.JPG,,,,,,,,,,,,,,,,,5,6,56,9,,,,,,,AMNE06.jpg,AMSA12.jpg,AMSA07.jpg,AMNE05.jpg,AMNE06.jpg,MN,1,num_8,16,num_8,,,1.43339145137,2017_Jul_12_1201,59.9984989784,MAFE4ImagesEEG,001,200970,
AFNE01.JPG,AFNE01.JPG,AFNE01.JPG,AFNE01.JPG,AFNE01.JPG,AFNE01.JPG,,,,,,,,,,,,,,,,,5,7,57,1,,,,,,,AMSA09.jpg,AMNE11.jpg,AMSA05.jpg,AMNE12.jpg,AMNE12.jpg,MN,1,num_4,32,num_6,,,1.43344629765,2017_Jul_12_1201,59.9984989784,MAFE4ImagesEEG,001,200970,
AFNE01.JPG,AFNE01.JPG,AFNE01.JPG,AFNE01.JPG,AFNE01.JPG,AFNE01.JPG,,,,,,,,,,,,,,,,,5,8,58,7,,,,,,,AMNE05.jpg,AMSA06.jpg,AMSA09.jpg,AMNE07.jpg,AMSA09.jpg,MS,2,num_2,16,num_2,,,0.783470256953,2017_Jul_12_1201,59.9984989784,MAFE4ImagesEEG,001,200970,
AFNE01.JPG,AFNE01.JPG,AFNE01.JPG,AFNE01.JPG,AFNE01.JPG,AFNE01.JPG,,,,,,,,,,,,,,,,,5,9,59,4,,,,,,,AMSA17.jpg,AMSA08.jpg,AMNE01.jpg,AMNE19.jpg,AMSA17.jpg,MS,2,num_8,32,num_4,,,0.850169254001,2017_Jul_12_1201,59.9984989784,MAFE4ImagesEEG,001,200970,
,,,,,,,,,,,,,,,,,,,,,,,,,,,,,,,,,,,,,,,,,,space,6.6996922188,,2017_Jul_12_1201,59.9984989784,MAFE4ImagesEEG,001,200970,
AFNE01.JPG,AFNE01.JPG,AFNE01.JPG,AFNE01.JPG,AFNE01.JPG,AFNE01.JPG,,,,,,,,,,,,,,,,,,,,,0,0,0,0,,,AFNE15.jpg,AFNE09.jpg,AFSA13.jpg,AFSA05.jpg,AFNE09.jpg,FN,3,num_6,32,num_2,,,0.950117679313,2017_Jul_12_1201,59.9984989784,MAFE4ImagesEEG,001,200970,
AFNE01.JPG,AFNE01.JPG,AFNE01.JPG,AFNE01.JPG,AFNE01.JPG,AFNE01.JPG,,,,,,,,,,,,,,,,,,,,,0,1,1,1,,,AFSA13.jpg,AFNE06.jpg,AFNE01.jpg,AFSA04.jpg,AFSA04.jpg,FS,4,num_4,16,num_4,,,0.450144621311,2017_Jul_12_1201,59.9984989784,MAFE4ImagesEEG,001,200970,
AFNE01.JPG,AFNE01.JPG,AFNE01.JPG,AFNE01.JPG,AFNE01.JPG,AFNE01.JPG,,,,,,,,,,,,,,,,,,,,,0,2,2,3,,,AFSA02.jpg,AFNE17.jpg,AFNE05.jpg,AFSA11.jpg,AFNE17.jpg,FN,3,num_6,32,num_2,,,0.916771708755,2017_Jul_12_1201,59.9984989784,MAFE4ImagesEEG,001,200970,
AFNE01.JPG,AFNE01.JPG,AFNE01.JPG,AFNE01.JPG,AFNE01.JPG,AFNE01.JPG,,,,,,,,,,,,,,,,,,,,,0,3,3,8,,,AFSA18.jpg,AFNE05.jpg,AFNE14.jpg,AFSA14.jpg,AFSA14.jpg,FS,4,num_4,16,num_4,,,0.533476190642,2017_Jul_12_1201,59.9984989784,MAFE4ImagesEEG,001,200970,
AFNE01.JPG,AFNE01.JPG,AFNE01.JPG,AFNE01.JPG,AFNE01.JPG,AFNE01.JPG,,,,,,,,,,,,,,,,,,,,,0,4,4,2,,,AFNE02.jpg,AFSA20.jpg,AFSA12.jpg,AFNE08.jpg,AFNE02.jpg,FN,3,num_8,32,num_4,,,0.866730942624,2017_Jul_12_1201,59.9984989784,MAFE4ImagesEEG,001,200970,
AFNE01.JPG,AFNE01.JPG,AFNE01.JPG,AFNE01.JPG,AFNE01.JPG,AFNE01.JPG,,,,,,,,,,,,,,,,,,,,,0,5,5,5,,,AFSA11.jpg,AFNE17.jpg,AFSA17.jpg,AFNE12.jpg,AFSA17.jpg,FS,4,num_2,32,num_6,,,0.766751406016,2017_Jul_12_1201,59.9984989784,MAFE4ImagesEEG,001,200970,
AFNE01.JPG,AFNE01.JPG,AFNE01.JPG,AFNE01.JPG,AFNE01.JPG,AFNE01.JPG,,,,,,,,,,,,,,,,,,,,,0,6,6,9,,,AFNE17.jpg,AFSA03.jpg,AFNE20.jpg,AFSA04.jpg,AFNE20.jpg,FN,3,num_2,32,num_4,,,0.716744317673,2017_Jul_12_1201,59.9984989784,MAFE4ImagesEEG,001,200970,
AFNE01.JPG,AFNE01.JPG,AFNE01.JPG,AFNE01.JPG,AFNE01.JPG,AFNE01.JPG,,,,,,,,,,,,,,,,,,,,,0,7,7,6,,,AFSA01.jpg,AFSA12.jpg,AFNE01.jpg,AFNE17.jpg,AFSA12.jpg,FS,4,num_6,32,num_4,,,0.800125922076,2017_Jul_12_1201,59.9984989784,MAFE4ImagesEEG,001,200970,
AFNE01.JPG,AFNE01.JPG,AFNE01.JPG,AFNE01.JPG,AFNE01.JPG,AFNE01.JPG,,,,,,,,,,,,,,,,,,,,,0,8,8,4,,,AFSA06.jpg,AFNE18.jpg,AFNE06.jpg,AFSA19.jpg,AFSA19.jpg,FS,4,num_4,16,num_4,,,1.0001295784,2017_Jul_12_1201,59.9984989784,MAFE4ImagesEEG,001,200970,
AFNE01.JPG,AFNE01.JPG,AFNE01.JPG,AFNE01.JPG,AFNE01.JPG,AFNE01.JPG,,,,,,,,,,,,,,,,,,,,,0,9,9,7,,,AFSA19.jpg,AFNE05.jpg,AFNE14.jpg,AFSA05.jpg,AFNE05.jpg,FN,3,num_6,32,num_2,,,1.23353148601,2017_Jul_12_1201,59.9984989784,MAFE4ImagesEEG,001,200970,
AFNE01.JPG,AFNE01.JPG,AFNE01.JPG,AFNE01.JPG,AFNE01.JPG,AFNE01.JPG,,,,,,,,,,,,,,,,,,,,,1,0,10,7,,,AFNE15.jpg,AFNE04.jpg,AFSA13.jpg,AFSA15.jpg,AFSA15.jpg,FS,4,num_4,16,num_4,,,0.950129546458,2017_Jul_12_1201,59.9984989784,MAFE4ImagesEEG,001,200970,
AFNE01.JPG,AFNE01.JPG,AFNE01.JPG,AFNE01.JPG,AFNE01.JPG,AFNE01.JPG,,,,,,,,,,,,,,,,,,,,,1,1,11,3,,,AFNE15.jpg,AFSA06.jpg,AFSA08.jpg,AFNE16.jpg,AFNE15.jpg,FN,3,num_8,32,num_4,,,0.966739987722,2017_Jul_12_1201,59.9984989784,MAFE4ImagesEEG,001,200970,
AFNE01.JPG,AFNE01.JPG,AFNE01.JPG,AFNE01.JPG,AFNE01.JPG,AFNE01.JPG,,,,,,,,,,,,,,,,,,,,,1,2,12,5,,,AFNE13.jpg,AFSA17.jpg,AFNE04.jpg,AFSA09.jpg,AFNE13.jpg,FN,3,num_8,16,num_8,,,1.0167515662,2017_Jul_12_1201,59.9984989784,MAFE4ImagesEEG,001,200970,
AFNE01.JPG,AFNE01.JPG,AFNE01.JPG,AFNE01.JPG,AFNE01.JPG,AFNE01.JPG,,,,,,,,,,,,,,,,,,,,,1,3,13,4,,,AFSA20.jpg,AFNE15.jpg,AFNE04.jpg,AFSA17.jpg,AFNE04.jpg,FN,3,num_2,16,num_2,,,0.866746979766,2017_Jul_12_1201,59.9984989784,MAFE4ImagesEEG,001,200970,
AFNE01.JPG,AFNE01.JPG,AFNE01.JPG,AFNE01.JPG,AFNE01.JPG,AFNE01.JPG,,,,,,,,,,,,,,,,,,,,,1,4,14,1,,,AFNE03.jpg,AFSA13.jpg,AFSA15.jpg,AFNE14.jpg,AFNE03.jpg,FN,3,num_8,32,num_2,,,1.00009718398,2017_Jul_12_1201,59.9984989784,MAFE4ImagesEEG,001,200970,
AFNE01.JPG,AFNE01.JPG,AFNE01.JPG,AFNE01.JPG,AFNE01.JPG,AFNE01.JPG,,,,,,,,,,,,,,,,,,,,,1,5,15,0,,,AFSA15.jpg,AFSA12.jpg,AFNE19.jpg,AFNE05.jpg,AFSA15.jpg,FS,4,num_8,16,num_8,,,0.88349758368,2017_Jul_12_1201,59.9984989784,MAFE4ImagesEEG,001,200970,
AFNE01.JPG,AFNE01.JPG,AFNE01.JPG,AFNE01.JPG,AFNE01.JPG,AFNE01.JPG,,,,,,,,,,,,,,,,,,,,,1,6,16,9,,,AFSA17.jpg,AFSA14.jpg,AFNE17.jpg,AFNE12.jpg,AFNE12.jpg,FN,3,num_4,32,num_6,,,1.0167512456,2017_Jul_12_1201,59.9984989784,MAFE4ImagesEEG,001,200970,
AFNE01.JPG,AFNE01.JPG,AFNE01.JPG,AFNE01.JPG,AFNE01.JPG,AFNE01.JPG,,,,,,,,,,,,,,,,,,,,,1,7,17,2,,,AFNE05.jpg,AFNE02.jpg,AFSA12.jpg,AFSA07.jpg,AFNE02.jpg,FN,3,num_6,16,num_6,,,0.983447612496,2017_Jul_12_1201,59.9984989784,MAFE4ImagesEEG,001,200970,
AFNE01.JPG,AFNE01.JPG,AFNE01.JPG,AFNE01.JPG,AFNE01.JPG,AFNE01.JPG,,,,,,,,,,,,,,,,,,,,,1,8,18,6,,,AFNE12.jpg,AFSA20.jpg,AFSA03.jpg,AFNE11.jpg,AFNE11.jpg,FN,3,num_4,16,num_4,,,1.33343629073,2017_Jul_12_1201,59.9984989784,MAFE4ImagesEEG,001,200970,
AFNE01.JPG,AFNE01.JPG,AFNE01.JPG,AFNE01.JPG,AFNE01.JPG,AFNE01.JPG,,,,,,,,,,,,,,,,,,,,,1,9,19,8,,,AFNE07.jpg,AFNE06.jpg,AFSA11.jpg,AFSA07.jpg,AFNE06.jpg,FN,3,num_6,32,num_8,,,1.00014754012,2017_Jul_12_1201,59.9984989784,MAFE4ImagesEEG,001,200970,
AFNE01.JPG,AFNE01.JPG,AFNE01.JPG,AFNE01.JPG,AFNE01.JPG,AFNE01.JPG,,,,,,,,,,,,,,,,,,,,,2,0,20,6,,,AFNE06.jpg,AFSA12.jpg,AFNE15.jpg,AFSA06.jpg,AFNE06.jpg,FN,3,num_8,16,num_8,,,0.850123067619,2017_Jul_12_1201,59.9984989784,MAFE4ImagesEEG,001,200970,
AFNE01.JPG,AFNE01.JPG,AFNE01.JPG,AFNE01.JPG,AFNE01.JPG,AFNE01.JPG,,,,,,,,,,,,,,,,,,,,,2,1,21,3,,,AFNE12.jpg,AFSA05.jpg,AFNE10.jpg,AFSA15.jpg,AFNE10.jpg,FN,3,num_2,32,num_8,,,1.46669155615,2017_Jul_12_1201,59.9984989784,MAFE4ImagesEEG,001,200970,
AFNE01.JPG,AFNE01.JPG,AFNE01.JPG,AFNE01.JPG,AFNE01.JPG,AFNE01.JPG,,,,,,,,,,,,,,,,,,,,,2,2,22,8,,,AFNE08.jpg,AFNE13.jpg,AFSA11.jpg,AFSA03.jpg,AFNE08.jpg,FN,3,num_8,32,num_6,,,0.850133010419,2017_Jul_12_1201,59.9984989784,MAFE4ImagesEEG,001,200970,
AFNE01.JPG,AFNE01.JPG,AFNE01.JPG,AFNE01.JPG,AFNE01.JPG,AFNE01.JPG,,,,,,,,,,,,,,,,,,,,,2,3,23,7,,,AFNE11.jpg,AFSA01.jpg,AFNE04.jpg,AFSA18.jpg,AFNE04.jpg,FN,3,num_2,16,num_2,,,1.33343885653,2017_Jul_12_1201,59.9984989784,MAFE4ImagesEEG,001,200970,
AFNE01.JPG,AFNE01.JPG,AFNE01.JPG,AFNE01.JPG,AFNE01.JPG,AFNE01.JPG,,,,,,,,,,,,,,,,,,,,,2,4,24,2,,,AFSA07.jpg,AFNE18.jpg,AFSA17.jpg,AFNE12.jpg,AFNE18.jpg,FN,3,num_6,32,num_4,,,0.950126659824,2017_Jul_12_1201,59.9984989784,MAFE4ImagesEEG,001,200970,
AFNE01.JPG,AFNE01.JPG,AFNE01.JPG,AFNE01.JPG,AFNE01.JPG,AFNE01.JPG,,,,,,,,,,,,,,,,,,,,,2,5,25,4,,,AFSA11.jpg,AFNE02.jpg,AFSA08.jpg,AFNE18.jpg,AFSA11.jpg,FS,4,num_8,32,num_6,,,0.683464419562,2017_Jul_12_1201,59.9984989784,MAFE4ImagesEEG,001,200970,
AFNE01.JPG,AFNE01.JPG,AFNE01.JPG,AFNE01.JPG,AFNE01.JPG,AFNE01.JPG,,,,,,,,,,,,,,,,,,,,,2,6,26,0,,,AFSA03.jpg,AFSA07.jpg,AFNE04.jpg,AFNE11.jpg,AFNE11.jpg,FN,3,num_4,16,num_4,,,0.700097953668,2017_Jul_12_1201,59.9984989784,MAFE4ImagesEEG,001,200970,
AFNE01.JPG,AFNE01.JPG,AFNE01.JPG,AFNE01.JPG,AFNE01.JPG,AFNE01.JPG,,,,,,,,,,,,,,,,,,,,,2,7,27,9,,,AFNE03.jpg,AFNE10.jpg,AFSA04.jpg,AFSA01.jpg,AFSA01.jpg,FS,4,num_4,16,num_4,,,0.833487608936,2017_Jul_12_1201,59.9984989784,MAFE4ImagesEEG,001,200970,
AFNE01.JPG,AFNE01.JPG,AFNE01.JPG,AFNE01.JPG,AFNE01.JPG,AFNE01.JPG,,,,,,,,,,,,,,,,,,,,,2,8,28,5,,,AFSA17.jpg,AFNE10.jpg,AFNE06.jpg,AFSA11.jpg,AFSA17.jpg,FS,4,num_8,32,num_4,,,1.03344219225,2017_Jul_12_1201,59.9984989784,MAFE4ImagesEEG,001,200970,
AFNE01.JPG,AFNE01.JPG,AFNE01.JPG,AFNE01.JPG,AFNE01.JPG,AFNE01.JPG,,,,,,,,,,,,,,,,,,,,,2,9,29,1,,,AFNE20.jpg,AFSA03.jpg,AFSA08.jpg,AFNE08.jpg,AFNE08.jpg,FN,3,num_4,32,num_8,,,1.03346720967,2017_Jul_12_1201,59.9984989784,MAFE4ImagesEEG,001,200970,
AFNE01.JPG,AFNE01.JPG,AFNE01.JPG,AFNE01.JPG,AFNE01.JPG,AFNE01.JPG,,,,,,,,,,,,,,,,,,,,,3,0,30,6,,,AFNE13.jpg,AFNE14.jpg,AFSA18.jpg,AFSA15.jpg,AFNE14.jpg,FN,3,num_6,32,num_4,,,0.700197383063,2017_Jul_12_1201,59.9984989784,MAFE4ImagesEEG,001,200970,
AFNE01.JPG,AFNE01.JPG,AFNE01.JPG,AFNE01.JPG,AFNE01.JPG,AFNE01.JPG,,,,,,,,,,,,,,,,,,,,,3,1,31,0,,,AFNE10.jpg,AFNE02.jpg,AFSA07.jpg,AFSA08.jpg,AFNE10.jpg,FN,3,num_8,16,num_8,,,1.43343892065,2017_Jul_12_1201,59.9984989784,MAFE4ImagesEEG,001,200970,
AFNE01.JPG,AFNE01.JPG,AFNE01.JPG,AFNE01.JPG,AFNE01.JPG,AFNE01.JPG,,,,,,,,,,,,,,,,,,,,,3,2,32,2,,,AFNE09.jpg,AFNE02.jpg,AFSA18.jpg,AFSA19.jpg,AFNE02.jpg,FN,3,num_6,32,num_8,,,0.783476029988,2017_Jul_12_1201,59.9984989784,MAFE4ImagesEEG,001,200970,
AFNE01.JPG,AFNE01.JPG,AFNE01.JPG,AFNE01.JPG,AFNE01.JPG,AFNE01.JPG,,,,,,,,,,,,,,,,,,,,,3,3,33,1,,,AFNE02.jpg,AFSA18.jpg,AFSA13.jpg,AFNE03.jpg,AFSA18.jpg,FS,4,num_6,16,num_6,,,0.766772253904,2017_Jul_12_1201,59.9984989784,MAFE4ImagesEEG,001,200970,
AFNE01.JPG,AFNE01.JPG,AFNE01.JPG,AFNE01.JPG,AFNE01.JPG,AFNE01.JPG,,,,,,,,,,,,,,,,,,,,,3,4,34,5,,,AFSA15.jpg,AFNE05.jpg,AFNE12.jpg,AFSA09.jpg,AFNE05.jpg,FN,3,num_6,32,num_4,,,1.58339058538,2017_Jul_12_1201,59.9984989784,MAFE4ImagesEEG,001,200970,
AFNE01.JPG,AFNE01.JPG,AFNE01.JPG,AFNE01.JPG,AFNE01.JPG,AFNE01.JPG,,,,,,,,,,,,,,,,,,,,,3,5,35,3,,,AFNE10.jpg,AFNE03.jpg,AFSA04.jpg,AFSA16.jpg,AFNE03.jpg,FN,3,num_6,32,num_4,,,0.816817510407,2017_Jul_12_1201,59.9984989784,MAFE4ImagesEEG,001,200970,
AFNE01.JPG,AFNE01.JPG,AFNE01.JPG,AFNE01.JPG,AFNE01.JPG,AFNE01.JPG,,,,,,,,,,,,,,,,,,,,,3,6,36,4,,,AFNE08.jpg,AFSA02.jpg,AFNE16.jpg,AFSA01.jpg,AFSA01.jpg,FS,4,num_4,32,num_2,,,1.13347048149,2017_Jul_12_1201,59.9984989784,MAFE4ImagesEEG,001,200970,
AFNE01.JPG,AFNE01.JPG,AFNE01.JPG,AFNE01.JPG,AFNE01.JPG,AFNE01.JPG,,,,,,,,,,,,,,,,,,,,,3,7,37,9,,,AFNE19.jpg,AFSA12.jpg,AFNE10.jpg,AFSA01.jpg,AFNE19.jpg,FN,3,num_8,32,num_4,,,0.81676779571,2017_Jul_12_1201,59.9984989784,MAFE4ImagesEEG,001,200970,
AFNE01.JPG,AFNE01.JPG,AFNE01.JPG,AFNE01.JPG,AFNE01.JPG,AFNE01.JPG,,,,,,,,,,,,,,,,,,,,,3,8,38,7,,,AFNE01.jpg,AFSA19.jpg,AFNE16.jpg,AFSA11.jpg,AFSA11.jpg,FS,4,num_4,32,num_8,,,1.08343228139,2017_Jul_12_1201,59.9984989784,MAFE4ImagesEEG,001,200970,
AFNE01.JPG,AFNE01.JPG,AFNE01.JPG,AFNE01.JPG,AFNE01.JPG,AFNE01.JPG,,,,,,,,,,,,,,,,,,,,,3,9,39,8,,,AFSA03.jpg,AFSA13.jpg,AFNE12.jpg,AFNE14.jpg,AFNE12.jpg,FN,3,num_2,16,num_2,,,2.11666503083,2017_Jul_12_1201,59.9984989784,MAFE4ImagesEEG,001,200970,
AFNE01.JPG,AFNE01.JPG,AFNE01.JPG,AFNE01.JPG,AFNE01.JPG,AFNE01.JPG,,,,,,,,,,,,,,,,,,,,,4,0,40,2,,,AFNE16.jpg,AFSA15.jpg,AFSA19.jpg,AFNE10.jpg,AFSA15.jpg,FS,4,num_6,16,num_6,,,0.650166239124,2017_Jul_12_1201,59.9984989784,MAFE4ImagesEEG,001,200970,
AFNE01.JPG,AFNE01.JPG,AFNE01.JPG,AFNE01.JPG,AFNE01.JPG,AFNE01.JPG,,,,,,,,,,,,,,,,,,,,,4,1,41,0,,,AFSA20.jpg,AFNE01.jpg,AFNE09.jpg,AFSA16.jpg,AFNE09.jpg,FN,3,num_2,16,num_2,,,0.966576731298,2017_Jul_12_1201,59.9984989784,MAFE4ImagesEEG,001,200970,
AFNE01.JPG,AFNE01.JPG,AFNE01.JPG,AFNE01.JPG,AFNE01.JPG,AFNE01.JPG,,,,,,,,,,,,,,,,,,,,,4,2,42,4,,,AFSA10.jpg,AFSA08.jpg,AFNE09.jpg,AFNE18.jpg,AFNE09.jpg,FN,3,num_2,32,num_8,,,1.03344796551,2017_Jul_12_1201,59.9984989784,MAFE4ImagesEEG,001,200970,
