IPosition2,IPosition3,IPosition1,IPosition6,IPosition4,IPosition5,TrialsF1.thisRepN,TrialsF1.thisTrialN,TrialsF1.thisN,TrialsF1.thisIndex,TrialsM1.thisRepN,TrialsM1.thisTrialN,TrialsM1.thisN,TrialsM1.thisIndex,TrialsF2.thisRepN,TrialsF2.thisTrialN,TrialsF2.thisN,TrialsF2.thisIndex,TrialsM2.thisRepN,TrialsM2.thisTrialN,TrialsM2.thisN,TrialsM2.thisIndex,TrialsF3.thisRepN,TrialsF3.thisTrialN,TrialsF3.thisN,TrialsF3.thisIndex,TrialsM3.thisRepN,TrialsM3.thisTrialN,TrialsM3.thisN,TrialsM3.thisIndex,InstrKey_resp.keys,InstrKey_resp.rt,Image0 _Position,Image1 _Position,Image2 _Position,Image3 _Position,Center_image,condition,code,correct_answer,accuracy,Key_Resp.keys,Key_Resp.rt,BreakKey_resp.keys,BreakKey_resp.rt,date,frameRate,expName,session,participant,
,,,,,,,,,,,,,,,,,,,,,,,,,,,,,,space,11.3826535407,,,,,,,,,,,,,,2017_Jul_18_1142,60.0082569895,FEMA4ImagesEEG,001,200900,
AFSA25.JPG,AFNE24.JPG,AFSA24.JPG,AFNE21.JPG,AFSA21.JPG,AFNE25.JPG,0,0,0,2,,,,,,,,,,,,,,,,,,,,,,,AFNE19.jpg,AFSA13.jpg,AFSA14.jpg,AFNE08.jpg,AFNE19.jpg,FN,3,num_8,16,num_8,0.800178588092,,,2017_Jul_18_1142,60.0082569895,FEMA4ImagesEEG,001,200900,
AFSA21.JPG,AFNE23.JPG,AFNE21.JPG,AFSA25.JPG,AFNE25.JPG,AFSA23.JPG,0,1,1,4,,,,,,,,,,,,,,,,,,,,,,,AFNE19.jpg,AFSA06.jpg,AFNE03.jpg,AFSA16.jpg,AFNE19.jpg,FN,3,num_8,32,num_2,1.30008573382,,,2017_Jul_18_1142,60.0082569895,FEMA4ImagesEEG,001,200900,
AMNE23.JPG,AMNE24.JPG,AMNE22.JPG,AMSA24.JPG,AMSA22.JPG,AMSA23.JPG,0,2,2,9,,,,,,,,,,,,,,,,,,,,,,,AFNE11.jpg,AFSA19.jpg,AFNE13.jpg,AFSA09.jpg,AFSA19.jpg,FS,4,num_6,32,num_4,0.716851910111,,,2017_Jul_18_1142,60.0082569895,FEMA4ImagesEEG,001,200900,
AMNE22.JPG,AMSA24.JPG,AMSA22.JPG,AMNE25.JPG,AMNE24.JPG,AMSA25.JPG,0,3,3,7,,,,,,,,,,,,,,,,,,,,,,,AFNE02.jpg,AFSA16.jpg,AFSA12.jpg,AFNE13.jpg,AFSA12.jpg,FS,4,num_2,16,num_2,1.0667646207,,,2017_Jul_18_1142,60.0082569895,FEMA4ImagesEEG,001,200900,
AFNE23.JPG,AFNE24.JPG,AFNE22.JPG,AFSA24.JPG,AFSA22.JPG,AFSA23.JPG,0,4,4,8,,,,,,,,,,,,,,,,,,,,,,,AFSA03.jpg,AFNE16.jpg,AFSA05.jpg,AFNE12.jpg,AFNE16.jpg,FN,3,num_6,16,num_6,1.11675966527,,,2017_Jul_18_1142,60.0082569895,FEMA4ImagesEEG,001,200900,
AMSA21.JPG,AMNE23.JPG,AMNE21.JPG,AMSA25.JPG,AMNE25.JPG,AMSA23.JPG,0,5,5,5,,,,,,,,,,,,,,,,,,,,,,,AFNE19.jpg,AFNE12.jpg,AFSA17.jpg,AFSA11.jpg,AFSA17.jpg,FS,4,num_2,32,num_4,1.81671979727,,,2017_Jul_18_1142,60.0082569895,FEMA4ImagesEEG,001,200900,
AFSA21.JPG,AFNE22.JPG,AFNE21.JPG,AFSA23.JPG,AFSA22.JPG,AFNE23.JPG,0,6,6,0,,,,,,,,,,,,,,,,,,,,,,,AFSA15.jpg,AFNE19.jpg,AFNE11.jpg,AFSA16.jpg,AFSA16.jpg,FS,4,num_4,32,num_6,0.733495114648,,,2017_Jul_18_1142,60.0082569895,FEMA4ImagesEEG,001,200900,
AMSA25.JPG,AMNE24.JPG,AMSA24.JPG,AMNE26.JPG,AMSA21.JPG,AMNE25.JPG,0,7,7,3,,,,,,,,,,,,,,,,,,,,,,,AFNE01.jpg,AFNE02.jpg,AFSA15.jpg,AFSA02.jpg,AFNE01.jpg,FN,3,num_8,16,num_8,0.916845880201,,,2017_Jul_18_1142,60.0082569895,FEMA4ImagesEEG,001,200900,
AMSA21.JPG,AMNE22.JPG,AMNE21.JPG,AMSA23.JPG,AMSA22.JPG,AMNE23.JPG,0,8,8,1,,,,,,,,,,,,,,,,,,,,,,,AFSA11.jpg,AFNE20.jpg,AFNE17.jpg,AFSA10.jpg,AFNE17.jpg,FN,3,num_2,32,num_6,1.03345800501,,,2017_Jul_18_1142,60.0082569895,FEMA4ImagesEEG,001,200900,
AFNE22.JPG,AFSA24.JPG,AFSA22.JPG,AFNE25.JPG,AFNE24.JPG,AFSA25.JPG,0,9,9,6,,,,,,,,,,,,,,,,,,,,,,,AFNE02.jpg,AFSA12.jpg,AFNE01.jpg,AFSA01.jpg,AFNE01.jpg,FN,3,num_2,16,num_2,1.30005750869,,,2017_Jul_18_1142,60.0082569895,FEMA4ImagesEEG,001,200900,
AMNE22.JPG,AMSA24.JPG,AMSA22.JPG,AMNE25.JPG,AMNE24.JPG,AMSA25.JPG,,,,,0,0,0,7,,,,,,,,,,,,,,,,,,,AMSA18.jpg,AMSA20.jpg,AMNE08.jpg,AMNE13.jpg,AMSA18.jpg,MS,2,num_8,32,num_6,0.766839256918,,,2017_Jul_18_1142,60.0082569895,FEMA4ImagesEEG,001,200900,
AFNE23.JPG,AFNE24.JPG,AFNE22.JPG,AFSA24.JPG,AFSA22.JPG,AFSA23.JPG,,,,,0,1,1,8,,,,,,,,,,,,,,,,,,,AMSA15.jpg,AMSA02.jpg,AMNE12.jpg,AMNE04.jpg,AMNE04.jpg,MN,1,num_4,32,num_6,0.766789542206,,,2017_Jul_18_1142,60.0082569895,FEMA4ImagesEEG,001,200900,
AFNE22.JPG,AFSA24.JPG,AFSA22.JPG,AFNE25.JPG,AFNE24.JPG,AFSA25.JPG,,,,,0,2,2,6,,,,,,,,,,,,,,,,,,,AMNE03.jpg,AMSA20.jpg,AMNE13.jpg,AMSA08.jpg,AMNE03.jpg,MN,1,num_8,16,num_8,1.10032622477,,,2017_Jul_18_1142,60.0082569895,FEMA4ImagesEEG,001,200900,
AMSA21.JPG,AMNE22.JPG,AMNE21.JPG,AMSA23.JPG,AMSA22.JPG,AMNE23.JPG,,,,,0,3,3,1,,,,,,,,,,,,,,,,,,,AMNE04.jpg,AMNE13.jpg,AMSA14.jpg,AMSA17.jpg,AMSA14.jpg,MS,2,num_2,32,num_4,0.933412748578,,,2017_Jul_18_1142,60.0082569895,FEMA4ImagesEEG,001,200900,
AMSA25.JPG,AMNE24.JPG,AMSA24.JPG,AMNE26.JPG,AMSA21.JPG,AMNE25.JPG,,,,,0,4,4,3,,,,,,,,,,,,,,,,,,,AMNE13.jpg,AMNE02.jpg,AMSA15.jpg,AMSA16.jpg,AMNE02.jpg,MN,1,num_6,16,num_6,0.900194977919,,,2017_Jul_18_1142,60.0082569895,FEMA4ImagesEEG,001,200900,
AMNE23.JPG,AMNE24.JPG,AMNE22.JPG,AMSA24.JPG,AMSA22.JPG,AMSA23.JPG,,,,,0,5,5,9,,,,,,,,,,,,,,,,,,,AMNE08.jpg,AMSA08.jpg,AMNE05.jpg,AMSA17.jpg,AMSA17.jpg,MS,2,num_4,16,num_4,0.416832890231,,,2017_Jul_18_1142,60.0082569895,FEMA4ImagesEEG,001,200900,
AFSA21.JPG,AFNE23.JPG,AFNE21.JPG,AFSA25.JPG,AFNE25.JPG,AFSA23.JPG,,,,,0,6,6,4,,,,,,,,,,,,,,,,,,,AMSA10.jpg,AMNE04.jpg,AMNE17.jpg,AMSA20.jpg,AMSA20.jpg,MS,2,num_4,16,num_4,0.683480184191,,,2017_Jul_18_1142,60.0082569895,FEMA4ImagesEEG,001,200900,
AFSA25.JPG,AFNE24.JPG,AFSA24.JPG,AFNE21.JPG,AFSA21.JPG,AFNE25.JPG,,,,,0,7,7,2,,,,,,,,,,,,,,,,,,,AMSA10.jpg,AMNE02.jpg,AMNE04.jpg,AMSA16.jpg,AMSA10.jpg,MS,2,num_8,32,num_4,0.55017674384,,,2017_Jul_18_1142,60.0082569895,FEMA4ImagesEEG,001,200900,
AFSA21.JPG,AFNE22.JPG,AFNE21.JPG,AFSA23.JPG,AFSA22.JPG,AFNE23.JPG,,,,,0,8,8,0,,,,,,,,,,,,,,,,,,,AMSA12.jpg,AMSA05.jpg,AMNE07.jpg,AMNE15.jpg,AMSA12.jpg,MS,2,num_8,32,num_6,0.483483327451,,,2017_Jul_18_1142,60.0082569895,FEMA4ImagesEEG,001,200900,
AMSA21.JPG,AMNE23.JPG,AMNE21.JPG,AMSA25.JPG,AMNE25.JPG,AMSA23.JPG,,,,,0,9,9,5,,,,,,,,,,,,,,,,,,,AMSA13.jpg,AMSA06.jpg,AMNE02.jpg,AMNE15.jpg,AMNE02.jpg,MN,1,num_2,16,num_2,1.41676040296,,,2017_Jul_18_1142,60.0082569895,FEMA4ImagesEEG,001,200900,
AMNE23.JPG,AMNE24.JPG,AMNE22.JPG,AMSA24.JPG,AMSA22.JPG,AMSA23.JPG,,,,,,,,,0,0,0,9,,,,,,,,,,,,,,,AFSA13.jpg,AFNE08.jpg,AFNE10.jpg,AFSA11.jpg,AFSA11.jpg,FS,4,num_4,16,num_4,0.683489164905,,,2017_Jul_18_1142,60.0082569895,FEMA4ImagesEEG,001,200900,
AFSA25.JPG,AFNE24.JPG,AFSA24.JPG,AFNE21.JPG,AFSA21.JPG,AFNE25.JPG,,,,,,,,,0,1,1,2,,,,,,,,,,,,,,,AFSA12.jpg,AFNE01.jpg,AFSA13.jpg,AFNE03.jpg,AFNE03.jpg,FN,3,num_4,32,num_6,1.00019404777,,,2017_Jul_18_1142,60.0082569895,FEMA4ImagesEEG,001,200900,
AFNE22.JPG,AFSA24.JPG,AFSA22.JPG,AFNE25.JPG,AFNE24.JPG,AFSA25.JPG,,,,,,,,,0,2,2,6,,,,,,,,,,,,,,,AFNE14.jpg,AFNE11.jpg,AFSA12.jpg,AFSA04.jpg,AFNE14.jpg,FN,3,num_8,32,num_6,0.950117855959,,,2017_Jul_18_1142,60.0082569895,FEMA4ImagesEEG,001,200900,
AFSA21.JPG,AFNE22.JPG,AFNE21.JPG,AFSA23.JPG,AFSA22.JPG,AFNE23.JPG,,,,,,,,,0,3,3,0,,,,,,,,,,,,,,,AFNE08.jpg,AFNE17.jpg,AFSA16.jpg,AFSA12.jpg,AFNE17.jpg,FN,3,num_6,16,num_6,1.53345014688,,,2017_Jul_18_1142,60.0082569895,FEMA4ImagesEEG,001,200900,
AMSA21.JPG,AMNE23.JPG,AMNE21.JPG,AMSA25.JPG,AMNE25.JPG,AMSA23.JPG,,,,,,,,,0,4,4,5,,,,,,,,,,,,,,,AFNE06.jpg,AFNE01.jpg,AFSA11.jpg,AFSA01.jpg,AFNE06.jpg,FN,3,num_8,16,num_8,1.5167873772,,,2017_Jul_18_1142,60.0082569895,FEMA4ImagesEEG,001,200900,
AMSA25.JPG,AMNE24.JPG,AMSA24.JPG,AMNE26.JPG,AMSA21.JPG,AMNE25.JPG,,,,,,,,,0,5,5,3,,,,,,,,,,,,,,,AFNE08.jpg,AFSA19.jpg,AFNE14.jpg,AFSA07.jpg,AFSA19.jpg,FS,4,num_6,16,num_6,0.466802275594,,,2017_Jul_18_1142,60.0082569895,FEMA4ImagesEEG,001,200900,
AMNE22.JPG,AMSA24.JPG,AMSA22.JPG,AMNE25.JPG,AMNE24.JPG,AMSA25.JPG,,,,,,,,,0,6,6,7,,,,,,,,,,,,,,,AFNE15.jpg,AFSA08.jpg,AFNE08.jpg,AFSA02.jpg,AFSA02.jpg,FS,4,num_4,32,num_6,0.63350374256,,,2017_Jul_18_1142,60.0082569895,FEMA4ImagesEEG,001,200900,
AFSA21.JPG,AFNE23.JPG,AFNE21.JPG,AFSA25.JPG,AFNE25.JPG,AFSA23.JPG,,,,,,,,,0,7,7,4,,,,,,,,,,,,,,,AFSA07.jpg,AFSA01.jpg,AFNE09.jpg,AFNE10.jpg,AFNE09.jpg,FN,3,num_2,32,num_4,1.18348740085,,,2017_Jul_18_1142,60.0082569895,FEMA4ImagesEEG,001,200900,
AMSA21.JPG,AMNE22.JPG,AMNE21.JPG,AMSA23.JPG,AMSA22.JPG,AMNE23.JPG,,,,,,,,,0,8,8,1,,,,,,,,,,,,,,,AFNE17.jpg,AFNE14.jpg,AFSA05.jpg,AFSA15.jpg,AFSA15.jpg,FS,4,num_4,32,num_6,1.21672922703,,,2017_Jul_18_1142,60.0082569895,FEMA4ImagesEEG,001,200900,
AFNE23.JPG,AFNE24.JPG,AFNE22.JPG,AFSA24.JPG,AFSA22.JPG,AFSA23.JPG,,,,,,,,,0,9,9,8,,,,,,,,,,,,,,,AFSA11.jpg,AFNE11.jpg,AFSA03.jpg,AFNE05.jpg,AFNE05.jpg,FN,3,num_4,32,num_6,0.883414496624,,,2017_Jul_18_1142,60.0082569895,FEMA4ImagesEEG,001,200900,
AFSA21.JPG,AFNE23.JPG,AFNE21.JPG,AFSA25.JPG,AFNE25.JPG,AFSA23.JPG,,,,,,,,,,,,,0,0,0,4,,,,,,,,,,,AMNE15.jpg,AMNE18.jpg,AMSA17.jpg,AMSA11.jpg,AMNE18.jpg,MN,1,num_6,32,num_4,0.733685313535,,,2017_Jul_18_1142,60.0082569895,FEMA4ImagesEEG,001,200900,
AMNE23.JPG,AMNE24.JPG,AMNE22.JPG,AMSA24.JPG,AMSA22.JPG,AMSA23.JPG,,,,,,,,,,,,,0,1,1,9,,,,,,,,,,,AMNE06.jpg,AMSA13.jpg,AMNE13.jpg,AMSA17.jpg,AMNE06.jpg,MN,1,num_8,32,num_6,0.650165870742,,,2017_Jul_18_1142,60.0082569895,FEMA4ImagesEEG,001,200900,
AFSA21.JPG,AFNE22.JPG,AFNE21.JPG,AFSA23.JPG,AFSA22.JPG,AFNE23.JPG,,,,,,,,,,,,,0,2,2,0,,,,,,,,,,,AMNE19.jpg,AMSA12.jpg,AMNE04.jpg,AMSA04.jpg,AMNE04.jpg,MN,1,num_2,32,num_8,1.56677023365,,,2017_Jul_18_1142,60.0082569895,FEMA4ImagesEEG,001,200900,
AMSA21.JPG,AMNE22.JPG,AMNE21.JPG,AMSA23.JPG,AMSA22.JPG,AMNE23.JPG,,,,,,,,,,,,,0,3,3,1,,,,,,,,,,,AMNE11.jpg,AMSA11.jpg,AMSA18.jpg,AMNE10.jpg,AMSA18.jpg,MS,2,num_2,32,num_6,0.566831174277,,,2017_Jul_18_1142,60.0082569895,FEMA4ImagesEEG,001,200900,
AFNE22.JPG,AFSA24.JPG,AFSA22.JPG,AFNE25.JPG,AFNE24.JPG,AFSA25.JPG,,,,,,,,,,,,,0,4,4,6,,,,,,,,,,,AMNE01.jpg,AMNE17.jpg,AMSA19.jpg,AMSA01.jpg,AMSA19.jpg,MS,2,num_2,16,num_2,1.11675453342,,,2017_Jul_18_1142,60.0082569895,FEMA4ImagesEEG,001,200900,
AMSA25.JPG,AMNE24.JPG,AMSA24.JPG,AMNE26.JPG,AMSA21.JPG,AMNE25.JPG,,,,,,,,,,,,,0,5,5,3,,,,,,,,,,,AMSA16.jpg,AMNE06.jpg,AMSA18.jpg,AMNE17.jpg,AMSA18.jpg,MS,2,num_2,16,num_2,0.933482349195,,,2017_Jul_18_1142,60.0082569895,FEMA4ImagesEEG,001,200900,
AMSA21.JPG,AMNE23.JPG,AMNE21.JPG,AMSA25.JPG,AMNE25.JPG,AMSA23.JPG,,,,,,,,,,,,,0,6,6,5,,,,,,,,,,,AMNE14.jpg,AMNE11.jpg,AMSA14.jpg,AMSA05.jpg,AMSA14.jpg,MS,2,num_2,16,num_2,0.816812491161,,,2017_Jul_18_1142,60.0082569895,FEMA4ImagesEEG,001,200900,
AFNE23.JPG,AFNE24.JPG,AFNE22.JPG,AFSA24.JPG,AFSA22.JPG,AFSA23.JPG,,,,,,,,,,,,,0,7,7,8,,,,,,,,,,,AMNE03.jpg,AMNE18.jpg,AMSA08.jpg,AMSA07.jpg,AMNE18.jpg,MN,1,num_6,16,num_6,0.800188210298,,,2017_Jul_18_1142,60.0082569895,FEMA4ImagesEEG,001,200900,
AFSA25.JPG,AFNE24.JPG,AFSA24.JPG,AFNE21.JPG,AFSA21.JPG,AFNE25.JPG,,,,,,,,,,,,,0,8,8,2,,,,,,,,,,,AMSA15.jpg,AMSA07.jpg,AMNE09.jpg,AMNE16.jpg,AMNE16.jpg,MN,1,num_4,32,num_2,1.31684953664,,,2017_Jul_18_1142,60.0082569895,FEMA4ImagesEEG,001,200900,
AMNE22.JPG,AMSA24.JPG,AMSA22.JPG,AMNE25.JPG,AMNE24.JPG,AMSA25.JPG,,,,,,,,,,,,,0,9,9,7,,,,,,,,,,,AMNE08.jpg,AMSA04.jpg,AMNE13.jpg,AMSA12.jpg,AMNE08.jpg,MN,1,num_8,32,num_2,1.2167609803,,,2017_Jul_18_1142,60.0082569895,FEMA4ImagesEEG,001,200900,
AMNE22.JPG,AMSA24.JPG,AMSA22.JPG,AMNE25.JPG,AMNE24.JPG,AMSA25.JPG,,,,,,,,,,,,,,,,,0,0,0,7,,,,,,,AFNE12.jpg,AFSA06.jpg,AFNE15.jpg,AFSA11.jpg,AFSA06.jpg,FS,4,num_6,32,num_4,0.583490736535,,,2017_Jul_18_1142,60.0082569895,FEMA4ImagesEEG,001,200900,
AFSA25.JPG,AFNE24.JPG,AFSA24.JPG,AFNE21.JPG,AFSA21.JPG,AFNE25.JPG,,,,,,,,,,,,,,,,,0,1,1,2,,,,,,,AFSA03.jpg,AFNE04.jpg,AFSA05.jpg,AFNE13.jpg,AFNE04.jpg,FN,3,num_6,16,num_6,1.10015238362,,,2017_Jul_18_1142,60.0082569895,FEMA4ImagesEEG,001,200900,
AMNE23.JPG,AMNE24.JPG,AMNE22.JPG,AMSA24.JPG,AMSA22.JPG,AMSA23.JPG,,,,,,,,,,,,,,,,,0,2,2,9,,,,,,,AFNE13.jpg,AFSA15.jpg,AFSA02.jpg,AFNE14.jpg,AFNE14.jpg,FN,3,num_4,32,num_6,0.966826170727,,,2017_Jul_18_1142,60.0082569895,FEMA4ImagesEEG,001,200900,
AFNE23.JPG,AFNE24.JPG,AFNE22.JPG,AFSA24.JPG,AFSA22.JPG,AFSA23.JPG,,,,,,,,,,,,,,,,,0,3,3,8,,,,,,,AFSA03.jpg,AFNE13.jpg,AFSA20.jpg,AFNE01.jpg,AFNE13.jpg,FN,3,num_6,32,num_4,1.33373810737,,,2017_Jul_18_1142,60.0082569895,FEMA4ImagesEEG,001,200900,
AMSA21.JPG,AMNE22.JPG,AMNE21.JPG,AMSA23.JPG,AMSA22.JPG,AMNE23.JPG,,,,,,,,,,,,,,,,,0,4,4,1,,,,,,,AFNE01.jpg,AFSA13.jpg,AFSA19.jpg,AFNE18.jpg,AFSA13.jpg,FS,4,num_6,16,num_6,0.866835119377,,,2017_Jul_18_1142,60.0082569895,FEMA4ImagesEEG,001,200900,
AMSA21.JPG,AMNE23.JPG,AMNE21.JPG,AMSA25.JPG,AMNE25.JPG,AMSA23.JPG,,,,,,,,,,,,,,,,,0,5,5,5,,,,,,,AFNE02.jpg,AFSA04.jpg,AFNE17.jpg,AFSA05.jpg,AFSA05.jpg,FS,4,num_4,16,num_4,0.733413967391,,,2017_Jul_18_1142,60.0082569895,FEMA4ImagesEEG,001,200900,
AFSA21.JPG,AFNE22.JPG,AFNE21.JPG,AFSA23.JPG,AFSA22.JPG,AFNE23.JPG,,,,,,,,,,,,,,,,,0,6,6,0,,,,,,,AFSA06.jpg,AFNE18.jpg,AFNE10.jpg,AFSA05.jpg,AFSA05.jpg,FS,4,num_4,16,num_4,0.433512659118,,,2017_Jul_18_1142,60.0082569895,FEMA4ImagesEEG,001,200900,
AFSA21.JPG,AFNE23.JPG,AFNE21.JPG,AFSA25.JPG,AFNE25.JPG,AFSA23.JPG,,,,,,,,,,,,,,,,,0,7,7,4,,,,,,,AFNE06.jpg,AFNE09.jpg,AFSA14.jpg,AFSA01.jpg,AFNE06.jpg,FN,3,num_8,32,num_6,1.08346812437,,,2017_Jul_18_1142,60.0082569895,FEMA4ImagesEEG,001,200900,
AMSA25.JPG,AMNE24.JPG,AMSA24.JPG,AMNE26.JPG,AMSA21.JPG,AMNE25.JPG,,,,,,,,,,,,,,,,,0,8,8,3,,,,,,,AFNE07.jpg,AFSA16.jpg,AFSA12.jpg,AFNE15.jpg,AFNE15.jpg,FN,3,num_4,16,num_4,1.90007886999,,,2017_Jul_18_1142,60.0082569895,FEMA4ImagesEEG,001,200900,
AFNE22.JPG,AFSA24.JPG,AFSA22.JPG,AFNE25.JPG,AFNE24.JPG,AFSA25.JPG,,,,,,,,,,,,,,,,,0,9,9,6,,,,,,,AFSA07.jpg,AFNE12.jpg,AFNE04.jpg,AFSA17.jpg,AFNE12.jpg,FN,3,num_6,32,num_8,0.63349861071,,,2017_Jul_18_1142,60.0082569895,FEMA4ImagesEEG,001,200900,
AFNE23.JPG,AFNE24.JPG,AFNE22.JPG,AFSA24.JPG,AFSA22.JPG,AFSA23.JPG,,,,,,,,,,,,,,,,,,,,,0,0,0,8,,,AMSA09.jpg,AMNE04.jpg,AMNE05.jpg,AMSA18.jpg,AMNE04.jpg,MN,1,num_6,16,num_6,1.05016086721,,,2017_Jul_18_1142,60.0082569895,FEMA4ImagesEEG,001,200900,
AMNE23.JPG,AMNE24.JPG,AMNE22.JPG,AMSA24.JPG,AMSA22.JPG,AMSA23.JPG,,,,,,,,,,,,,,,,,,,,,0,1,1,9,,,AMNE03.jpg,AMNE16.jpg,AMSA07.jpg,AMSA12.jpg,AMSA07.jpg,MS,2,num_2,16,num_2,0.750107528118,,,2017_Jul_18_1142,60.0082569895,FEMA4ImagesEEG,001,200900,
AFSA25.JPG,AFNE24.JPG,AFSA24.JPG,AFNE21.JPG,AFSA21.JPG,AFNE25.JPG,,,,,,,,,,,,,,,,,,,,,0,2,2,2,,,AMSA12.jpg,AMNE19.jpg,AMSA04.jpg,AMNE11.jpg,AMNE11.jpg,MN,1,num_4,32,num_6,1.23340899592,,,2017_Jul_18_1142,60.0082569895,FEMA4ImagesEEG,001,200900,
AMSA25.JPG,AMNE24.JPG,AMSA24.JPG,AMNE26.JPG,AMSA21.JPG,AMNE25.JPG,,,,,,,,,,,,,,,,,,,,,0,3,3,3,,,AMNE19.jpg,AMSA07.jpg,AMNE09.jpg,AMSA15.jpg,AMSA07.jpg,MS,2,num_6,16,num_6,0.583485283962,,,2017_Jul_18_1142,60.0082569895,FEMA4ImagesEEG,001,200900,
AFSA21.JPG,AFNE23.JPG,AFNE21.JPG,AFSA25.JPG,AFNE25.JPG,AFSA23.JPG,,,,,,,,,,,,,,,,,,,,,0,4,4,4,,,AMNE05.jpg,AMNE13.jpg,AMSA17.jpg,AMSA10.jpg,AMSA17.jpg,MS,2,num_2,16,num_2,0.600144846234,,,2017_Jul_18_1142,60.0082569895,FEMA4ImagesEEG,001,200900,
AFSA21.JPG,AFNE22.JPG,AFNE21.JPG,AFSA23.JPG,AFSA22.JPG,AFNE23.JPG,,,,,,,,,,,,,,,,,,,,,0,5,5,0,,,AMNE01.jpg,AMSA17.jpg,AMSA11.jpg,AMNE02.jpg,AMSA17.jpg,MS,2,num_6,16,num_6,0.533528086729,,,2017_Jul_18_1142,60.0082569895,FEMA4ImagesEEG,001,200900,
AMSA21.JPG,AMNE23.JPG,AMNE21.JPG,AMSA25.JPG,AMNE25.JPG,AMSA23.JPG,,,,,,,,,,,,,,,,,,,,,0,6,6,5,,,AMNE11.jpg,AMSA12.jpg,AMNE08.jpg,AMSA06.jpg,AMNE08.jpg,MN,1,num_2,32,num_8,1.43343054966,,,2017_Jul_18_1142,60.0082569895,FEMA4ImagesEEG,001,200900,
AFNE22.JPG,AFSA24.JPG,AFSA22.JPG,AFNE25.JPG,AFNE24.JPG,AFSA25.JPG,,,,,,,,,,,,,,,,,,,,,0,7,7,6,,,AMSA20.jpg,AMNE14.jpg,AMNE15.jpg,AMSA01.jpg,AMNE14.jpg,MN,1,num_6,32,num_2,1.25010993367,,,2017_Jul_18_1142,60.0082569895,FEMA4ImagesEEG,001,200900,
AMNE22.JPG,AMSA24.JPG,AMSA22.JPG,AMNE25.JPG,AMNE24.JPG,AMSA25.JPG,,,,,,,,,,,,,,,,,,,,,0,8,8,7,,,AMSA12.jpg,AMNE07.jpg,AMNE17.jpg,AMSA07.jpg,AMSA12.jpg,MS,2,num_8,16,num_8,0.63345595228,,,2017_Jul_18_1142,60.0082569895,FEMA4ImagesEEG,001,200900,
AMSA21.JPG,AMNE22.JPG,AMNE21.JPG,AMSA23.JPG,AMSA22.JPG,AMNE23.JPG,,,,,,,,,,,,,,,,,,,,,0,9,9,1,,,AMNE11.jpg,AMNE01.jpg,AMSA11.jpg,AMSA18.jpg,AMNE11.jpg,MN,1,num_8,32,num_6,0.933450916666,,,2017_Jul_18_1142,60.0082569895,FEMA4ImagesEEG,001,200900,
,,,,,,,,,,,,,,,,,,,,,,,,,,,,,,,,,,,,,,,,,,,space,15.7323410917,2017_Jul_18_1142,60.0082569895,FEMA4ImagesEEG,001,200900,
AFNE01.JPG,AFNE01.JPG,AFNE01.JPG,AFNE01.JPG,AFNE01.JPG,AFNE01.JPG,0,0,0,5,,,,,,,,,,,,,,,,,,,,,,,AFNE04.jpg,AFNE18.jpg,AFSA16.jpg,AFSA10.jpg,AFSA10.jpg,FS,4,num_4,32,num_2,0.61682718106,,,2017_Jul_18_1142,60.0082569895,FEMA4ImagesEEG,001,200900,
AFNE01.JPG,AFNE01.JPG,AFNE01.JPG,AFNE01.JPG,AFNE01.JPG,AFNE01.JPG,0,1,1,2,,,,,,,,,,,,,,,,,,,,,,,AFSA03.jpg,AFSA07.jpg,AFNE09.jpg,AFNE15.jpg,AFNE09.jpg,FN,3,num_2,32,num_8,0.783429218587,,,2017_Jul_18_1142,60.0082569895,FEMA4ImagesEEG,001,200900,
AFNE01.JPG,AFNE01.JPG,AFNE01.JPG,AFNE01.JPG,AFNE01.JPG,AFNE01.JPG,0,2,2,9,,,,,,,,,,,,,,,,,,,,,,,AFSA20.jpg,AFSA05.jpg,AFNE08.jpg,AFNE06.jpg,AFSA20.jpg,FS,4,num_8,32,num_6,0.533465863147,,,2017_Jul_18_1142,60.0082569895,FEMA4ImagesEEG,001,200900,
AFNE01.JPG,AFNE01.JPG,AFNE01.JPG,AFNE01.JPG,AFNE01.JPG,AFNE01.JPG,0,3,3,3,,,,,,,,,,,,,,,,,,,,,,,AFSA17.jpg,AFNE09.jpg,AFNE12.jpg,AFSA18.jpg,AFNE12.jpg,FN,3,num_2,16,num_2,2.13340736015,,,2017_Jul_18_1142,60.0082569895,FEMA4ImagesEEG,001,200900,
AFNE01.JPG,AFNE01.JPG,AFNE01.JPG,AFNE01.JPG,AFNE01.JPG,AFNE01.JPG,0,4,4,0,,,,,,,,,,,,,,,,,,,,,,,AFNE19.jpg,AFSA07.jpg,AFNE18.jpg,AFSA04.jpg,AFSA04.jpg,FS,4,num_4,16,num_4,0.716798667258,,,2017_Jul_18_1142,60.0082569895,FEMA4ImagesEEG,001,200900,
AFNE01.JPG,AFNE01.JPG,AFNE01.JPG,AFNE01.JPG,AFNE01.JPG,AFNE01.JPG,0,5,5,1,,,,,,,,,,,,,,,,,,,,,,,AFNE07.jpg,AFNE16.jpg,AFSA19.jpg,AFSA11.jpg,AFSA11.jpg,FS,4,num_4,32,num_2,1.16669954253,,,2017_Jul_18_1142,60.0082569895,FEMA4ImagesEEG,001,200900,
AFNE01.JPG,AFNE01.JPG,AFNE01.JPG,AFNE01.JPG,AFNE01.JPG,AFNE01.JPG,0,6,6,7,,,,,,,,,,,,,,,,,,,,,,,AFSA06.jpg,AFNE09.jpg,AFNE11.jpg,AFSA12.jpg,AFNE09.jpg,FN,3,num_6,16,num_6,2.35002112073,,,2017_Jul_18_1142,60.0082569895,FEMA4ImagesEEG,001,200900,
AFNE01.JPG,AFNE01.JPG,AFNE01.JPG,AFNE01.JPG,AFNE01.JPG,AFNE01.JPG,0,7,7,8,,,,,,,,,,,,,,,,,,,,,,,AFSA09.jpg,AFNE11.jpg,AFSA16.jpg,AFNE12.jpg,AFSA16.jpg,FS,4,num_2,16,num_2,1.38341369477,,,2017_Jul_18_1142,60.0082569895,FEMA4ImagesEEG,001,200900,
AFNE01.JPG,AFNE01.JPG,AFNE01.JPG,AFNE01.JPG,AFNE01.JPG,AFNE01.JPG,0,8,8,6,,,,,,,,,,,,,,,,,,,,,,,AFSA14.jpg,AFNE19.jpg,AFSA10.jpg,AFNE17.jpg,AFSA14.jpg,FS,4,num_8,32,num_2,0.566810005417,,,2017_Jul_18_1142,60.0082569895,FEMA4ImagesEEG,001,200900,
AFNE01.JPG,AFNE01.JPG,AFNE01.JPG,AFNE01.JPG,AFNE01.JPG,AFNE01.JPG,0,9,9,4,,,,,,,,,,,,,,,,,,,,,,,AFNE19.jpg,AFSA11.jpg,AFNE02.jpg,AFSA07.jpg,AFNE02.jpg,FN,3,num_2,16,num_2,1.13344360379,,,2017_Jul_18_1142,60.0082569895,FEMA4ImagesEEG,001,200900,
AFNE01.JPG,AFNE01.JPG,AFNE01.JPG,AFNE01.JPG,AFNE01.JPG,AFNE01.JPG,1,0,10,8,,,,,,,,,,,,,,,,,,,,,,,AFNE15.jpg,AFSA15.jpg,AFSA06.jpg,AFNE16.jpg,AFSA15.jpg,FS,4,num_6,16,num_6,0.599857783833,,,2017_Jul_18_1142,60.0082569895,FEMA4ImagesEEG,001,200900,
AFNE01.JPG,AFNE01.JPG,AFNE01.JPG,AFNE01.JPG,AFNE01.JPG,AFNE01.JPG,1,1,11,7,,,,,,,,,,,,,,,,,,,,,,,AFNE17.jpg,AFNE16.jpg,AFSA12.jpg,AFSA06.jpg,AFSA12.jpg,FS,4,num_2,16,num_2,0.650163625571,,,2017_Jul_18_1142,60.0082569895,FEMA4ImagesEEG,001,200900,
AFNE01.JPG,AFNE01.JPG,AFNE01.JPG,AFNE01.JPG,AFNE01.JPG,AFNE01.JPG,1,2,12,5,,,,,,,,,,,,,,,,,,,,,,,AFSA09.jpg,AFNE13.jpg,AFSA10.jpg,AFNE14.jpg,AFNE14.jpg,FN,3,num_4,32,num_2,1.7334460414,,,2017_Jul_18_1142,60.0082569895,FEMA4ImagesEEG,001,200900,
AFNE01.JPG,AFNE01.JPG,AFNE01.JPG,AFNE01.JPG,AFNE01.JPG,AFNE01.JPG,1,3,13,6,,,,,,,,,,,,,,,,,,,,,,,AFNE14.jpg,AFSA10.jpg,AFSA04.jpg,AFNE11.jpg,AFNE11.jpg,FN,3,num_4,32,num_6,0.800130156349,,,2017_Jul_18_1142,60.0082569895,FEMA4ImagesEEG,001,200900,
AFNE01.JPG,AFNE01.JPG,AFNE01.JPG,AFNE01.JPG,AFNE01.JPG,AFNE01.JPG,1,4,14,4,,,,,,,,,,,,,,,,,,,,,,,AFNE10.jpg,AFSA11.jpg,AFSA13.jpg,AFNE17.jpg,AFNE10.jpg,FN,3,num_8,16,num_8,1.60007492489,,,2017_Jul_18_1142,60.0082569895,FEMA4ImagesEEG,001,200900,
AFNE01.JPG,AFNE01.JPG,AFNE01.JPG,AFNE01.JPG,AFNE01.JPG,AFNE01.JPG,1,5,15,0,,,,,,,,,,,,,,,,,,,,,,,AFSA03.jpg,AFNE01.jpg,AFNE04.jpg,AFSA14.jpg,AFSA03.jpg,FS,4,num_8,16,num_8,0.666827998954,,,2017_Jul_18_1142,60.0082569895,FEMA4ImagesEEG,001,200900,
AFNE01.JPG,AFNE01.JPG,AFNE01.JPG,AFNE01.JPG,AFNE01.JPG,AFNE01.JPG,1,6,16,1,,,,,,,,,,,,,,,,,,,,,,,AFSA15.jpg,AFNE03.jpg,AFSA19.jpg,AFNE14.jpg,AFSA19.jpg,FS,4,num_2,16,num_2,0.816772077917,,,2017_Jul_18_1142,60.0082569895,FEMA4ImagesEEG,001,200900,
AFNE01.JPG,AFNE01.JPG,AFNE01.JPG,AFNE01.JPG,AFNE01.JPG,AFNE01.JPG,1,7,17,2,,,,,,,,,,,,,,,,,,,,,,,AFNE06.jpg,AFSA08.jpg,AFNE03.jpg,AFSA06.jpg,AFSA06.jpg,FS,4,num_4,16,num_4,0.500091892041,,,2017_Jul_18_1142,60.0082569895,FEMA4ImagesEEG,001,200900,
AFNE01.JPG,AFNE01.JPG,AFNE01.JPG,AFNE01.JPG,AFNE01.JPG,AFNE01.JPG,1,8,18,3,,,,,,,,,,,,,,,,,,,,,,,AFNE06.jpg,AFNE15.jpg,AFSA18.jpg,AFSA09.jpg,AFNE15.jpg,FN,3,num_6,32,num_8,1.53345239206,,,2017_Jul_18_1142,60.0082569895,FEMA4ImagesEEG,001,200900,
AFNE01.JPG,AFNE01.JPG,AFNE01.JPG,AFNE01.JPG,AFNE01.JPG,AFNE01.JPG,1,9,19,9,,,,,,,,,,,,,,,,,,,,,,,AFSA15.jpg,AFNE09.jpg,AFNE07.jpg,AFSA02.jpg,AFSA15.jpg,FS,4,num_8,16,num_8,0.783473159987,,,2017_Jul_18_1142,60.0082569895,FEMA4ImagesEEG,001,200900,
AFNE01.JPG,AFNE01.JPG,AFNE01.JPG,AFNE01.JPG,AFNE01.JPG,AFNE01.JPG,2,0,20,8,,,,,,,,,,,,,,,,,,,,,,,AFSA02.jpg,AFNE11.jpg,AFSA06.jpg,AFNE06.jpg,AFNE06.jpg,FN,3,num_4,16,num_4,1.61671107313,,,2017_Jul_18_1142,60.0082569895,FEMA4ImagesEEG,001,200900,
AFNE01.JPG,AFNE01.JPG,AFNE01.JPG,AFNE01.JPG,AFNE01.JPG,AFNE01.JPG,2,1,21,7,,,,,,,,,,,,,,,,,,,,,,,AFNE17.jpg,AFNE11.jpg,AFSA18.jpg,AFSA03.jpg,AFNE17.jpg,FN,3,num_8,32,num_2,2.03312219011,,,2017_Jul_18_1142,60.0082569895,FEMA4ImagesEEG,001,200900,
AFNE01.JPG,AFNE01.JPG,AFNE01.JPG,AFNE01.JPG,AFNE01.JPG,AFNE01.JPG,2,2,22,5,,,,,,,,,,,,,,,,,,,,,,,AFSA17.jpg,AFNE15.jpg,AFNE08.jpg,AFSA10.jpg,AFSA10.jpg,FS,4,num_4,16,num_4,0.533479013495,,,2017_Jul_18_1142,60.0082569895,FEMA4ImagesEEG,001,200900,
AFNE01.JPG,AFNE01.JPG,AFNE01.JPG,AFNE01.JPG,AFNE01.JPG,AFNE01.JPG,2,3,23,0,,,,,,,,,,,,,,,,,,,,,,,AFSA01.jpg,AFSA14.jpg,AFNE05.jpg,AFNE17.jpg,AFSA14.jpg,FS,4,num_6,32,num_8,0.716772366563,,,2017_Jul_18_1142,60.0082569895,FEMA4ImagesEEG,001,200900,
AFNE01.JPG,AFNE01.JPG,AFNE01.JPG,AFNE01.JPG,AFNE01.JPG,AFNE01.JPG,2,4,24,2,,,,,,,,,,,,,,,,,,,,,,,AFNE06.jpg,AFSA02.jpg,AFNE15.jpg,AFSA06.jpg,AFNE15.jpg,FN,3,num_2,16,num_2,1.03350419158,,,2017_Jul_18_1142,60.0082569895,FEMA4ImagesEEG,001,200900,
AFNE01.JPG,AFNE01.JPG,AFNE01.JPG,AFNE01.JPG,AFNE01.JPG,AFNE01.JPG,2,5,25,6,,,,,,,,,,,,,,,,,,,,,,,AFNE18.jpg,AFSA17.jpg,AFSA01.jpg,AFNE20.jpg,AFSA01.jpg,FS,4,num_2,32,num_6,0.700167009374,,,2017_Jul_18_1142,60.0082569895,FEMA4ImagesEEG,001,200900,
AFNE01.JPG,AFNE01.JPG,AFNE01.JPG,AFNE01.JPG,AFNE01.JPG,AFNE01.JPG,2,6,26,4,,,,,,,,,,,,,,,,,,,,,,,AFSA15.jpg,AFSA16.jpg,AFNE04.jpg,AFNE17.jpg,AFNE17.jpg,FN,3,num_4,16,num_4,1.53338086701,,,2017_Jul_18_1142,60.0082569895,FEMA4ImagesEEG,001,200900,
AFNE01.JPG,AFNE01.JPG,AFNE01.JPG,AFNE01.JPG,AFNE01.JPG,AFNE01.JPG,2,7,27,3,,,,,,,,,,,,,,,,,,,,,,,AFNE02.jpg,AFSA13.jpg,AFSA18.jpg,AFNE19.jpg,AFNE02.jpg,FN,3,num_8,32,num_2,1.20012900168,,,2017_Jul_18_1142,60.0082569895,FEMA4ImagesEEG,001,200900,
AFNE01.JPG,AFNE01.JPG,AFNE01.JPG,AFNE01.JPG,AFNE01.JPG,AFNE01.JPG,2,8,28,9,,,,,,,,,,,,,,,,,,,,,,,AFNE05.jpg,AFSA05.jpg,AFNE03.jpg,AFSA03.jpg,AFNE05.jpg,FN,3,num_8,32,num_2,1.13343943415,,,2017_Jul_18_1142,60.0082569895,FEMA4ImagesEEG,001,200900,
AFNE01.JPG,AFNE01.JPG,AFNE01.JPG,AFNE01.JPG,AFNE01.JPG,AFNE01.JPG,2,9,29,1,,,,,,,,,,,,,,,,,,,,,,,AFSA19.jpg,AFNE18.jpg,AFSA08.jpg,AFNE09.jpg,AFSA19.jpg,FS,4,num_8,32,num_2,0.833438375732,,,2017_Jul_18_1142,60.0082569895,FEMA4ImagesEEG,001,200900,
AFNE01.JPG,AFNE01.JPG,AFNE01.JPG,AFNE01.JPG,AFNE01.JPG,AFNE01.JPG,3,0,30,7,,,,,,,,,,,,,,,,,,,,,,,AFSA08.jpg,AFSA19.jpg,AFNE02.jpg,AFNE10.jpg,AFNE02.jpg,FN,3,num_2,32,num_6,1.20015209497,,,2017_Jul_18_1142,60.0082569895,FEMA4ImagesEEG,001,200900,
AFNE01.JPG,AFNE01.JPG,AFNE01.JPG,AFNE01.JPG,AFNE01.JPG,AFNE01.JPG,3,1,31,9,,,,,,,,,,,,,,,,,,,,,,,AFSA10.jpg,AFNE19.jpg,AFNE18.jpg,AFSA07.jpg,AFSA10.jpg,FS,4,num_8,32,num_4,0.466852631784,,,2017_Jul_18_1142,60.0082569895,FEMA4ImagesEEG,001,200900,
AFNE01.JPG,AFNE01.JPG,AFNE01.JPG,AFNE01.JPG,AFNE01.JPG,AFNE01.JPG,3,2,32,1,,,,,,,,,,,,,,,,,,,,,,,AFNE04.jpg,AFNE07.jpg,AFSA02.jpg,AFSA06.jpg,AFNE07.jpg,FN,3,num_6,32,num_4,0.816794208979,,,2017_Jul_18_1142,60.0082569895,FEMA4ImagesEEG,001,200900,
AFNE01.JPG,AFNE01.JPG,AFNE01.JPG,AFNE01.JPG,AFNE01.JPG,AFNE01.JPG,3,3,33,4,,,,,,,,,,,,,,,,,,,,,,,AFSA11.jpg,AFNE14.jpg,AFNE07.jpg,AFSA14.jpg,AFNE14.jpg,FN,3,num_6,16,num_6,0.800157419246,,,2017_Jul_18_1142,60.0082569895,FEMA4ImagesEEG,001,200900,
AFNE01.JPG,AFNE01.JPG,AFNE01.JPG,AFNE01.JPG,AFNE01.JPG,AFNE01.JPG,3,4,34,0,,,,,,,,,,,,,,,,,,,,,,,AFNE18.jpg,AFSA08.jpg,AFSA02.jpg,AFNE14.jpg,AFSA08.jpg,FS,4,num_6,32,num_4,1.16673001283,,,2017_Jul_18_1142,60.0082569895,FEMA4ImagesEEG,001,200900,
AFNE01.JPG,AFNE01.JPG,AFNE01.JPG,AFNE01.JPG,AFNE01.JPG,AFNE01.JPG,3,5,35,5,,,,,,,,,,,,,,,,,,,,,,,AFSA18.jpg,AFNE02.jpg,AFSA05.jpg,AFNE12.jpg,AFSA05.jpg,FS,4,num_2,32,num_8,0.733464965073,,,2017_Jul_18_1142,60.0082569895,FEMA4ImagesEEG,001,200900,
AFNE01.JPG,AFNE01.JPG,AFNE01.JPG,AFNE01.JPG,AFNE01.JPG,AFNE01.JPG,3,6,36,3,,,,,,,,,,,,,,,,,,,,,,,AFSA19.jpg,AFSA05.jpg,AFNE07.jpg,AFNE11.jpg,AFNE11.jpg,FN,3,num_4,16,num_4,0.816788435652,,,2017_Jul_18_1142,60.0082569895,FEMA4ImagesEEG,001,200900,
AFNE01.JPG,AFNE01.JPG,AFNE01.JPG,AFNE01.JPG,AFNE01.JPG,AFNE01.JPG,3,7,37,2,,,,,,,,,,,,,,,,,,,,,,,AFSA09.jpg,AFSA11.jpg,AFNE09.jpg,AFNE15.jpg,AFSA11.jpg,FS,4,num_6,16,num_6,0.733480360606,,,2017_Jul_18_1142,60.0082569895,FEMA4ImagesEEG,001,200900,
AFNE01.JPG,AFNE01.JPG,AFNE01.JPG,AFNE01.JPG,AFNE01.JPG,AFNE01.JPG,3,8,38,8,,,,,,,,,,,,,,,,,,,,,,,AFNE20.jpg,AFNE19.jpg,AFSA05.jpg,AFSA12.jpg,AFNE19.jpg,FN,3,num_6,32,num_2,0.833469487523,,,2017_Jul_18_1142,60.0082569895,FEMA4ImagesEEG,001,200900,
AFNE01.JPG,AFNE01.JPG,AFNE01.JPG,AFNE01.JPG,AFNE01.JPG,AFNE01.JPG,3,9,39,6,,,,,,,,,,,,,,,,,,,,,,,AFSA01.jpg,AFSA07.jpg,AFNE01.jpg,AFNE18.jpg,AFNE01.jpg,FN,3,num_2,32,num_4,1.18309738087,,,2017_Jul_18_1142,60.0082569895,FEMA4ImagesEEG,001,200900,
AFNE01.JPG,AFNE01.JPG,AFNE01.JPG,AFNE01.JPG,AFNE01.JPG,AFNE01.JPG,4,0,40,3,,,,,,,,,,,,,,,,,,,,,,,AFSA11.jpg,AFNE13.jpg,AFSA03.jpg,AFNE08.jpg,AFSA03.jpg,FS,4,num_2,16,num_2,0.750086038533,,,2017_Jul_18_1142,60.0082569895,FEMA4ImagesEEG,001,200900,
AFNE01.JPG,AFNE01.JPG,AFNE01.JPG,AFNE01.JPG,AFNE01.JPG,AFNE01.JPG,4,1,41,7,,,,,,,,,,,,,,,,,,,,,,,AFNE20.jpg,AFSA05.jpg,AFNE01.jpg,AFSA14.jpg,AFNE01.jpg,FN,3,num_2,16,num_2,0.883475437236,,,2017_Jul_18_1142,60.0082569895,FEMA4ImagesEEG,001,200900,
AFNE01.JPG,AFNE01.JPG,AFNE01.JPG,AFNE01.JPG,AFNE01.JPG,AFNE01.JPG,4,2,42,5,,,,,,,,,,,,,,,,,,,,,,,AFNE05.jpg,AFSA17.jpg,AFSA19.jpg,AFNE03.jpg,AFNE05.jpg,FN,3,num_8,32,num_4,0.91681990026,,,2017_Jul_18_1142,60.0082569895,FEMA4ImagesEEG,001,200900,
AFNE01.JPG,AFNE01.JPG,AFNE01.JPG,AFNE01.JPG,AFNE01.JPG,AFNE01.JPG,4,3,43,0,,,,,,,,,,,,,,,,,,,,,,,AFNE13.jpg,AFSA06.jpg,AFSA12.jpg,AFNE01.jpg,AFSA06.jpg,FS,4,num_6,16,num_6,0.716823684998,,,2017_Jul_18_1142,60.0082569895,FEMA4ImagesEEG,001,200900,
AFNE01.JPG,AFNE01.JPG,AFNE01.JPG,AFNE01.JPG,AFNE01.JPG,AFNE01.JPG,4,4,44,6,,,,,,,,,,,,,,,,,,,,,,,AFSA14.jpg,AFNE02.jpg,AFSA09.jpg,AFNE19.jpg,AFSA09.jpg,FS,4,num_2,16,num_2,0.616831671417,,,2017_Jul_18_1142,60.0082569895,FEMA4ImagesEEG,001,200900,
AFNE01.JPG,AFNE01.JPG,AFNE01.JPG,AFNE01.JPG,AFNE01.JPG,AFNE01.JPG,4,5,45,2,,,,,,,,,,,,,,,,,,,,,,,AFNE17.jpg,AFSA09.jpg,AFSA10.jpg,AFNE19.jpg,AFNE17.jpg,FN,3,num_8,32,num_4,1.30008958271,,,2017_Jul_18_1142,60.0082569895,FEMA4ImagesEEG,001,200900,
AFNE01.JPG,AFNE01.JPG,AFNE01.JPG,AFNE01.JPG,AFNE01.JPG,AFNE01.JPG,4,6,46,8,,,,,,,,,,,,,,,,,,,,,,,AFNE01.jpg,AFSA19.jpg,AFNE07.jpg,AFSA07.jpg,AFNE07.jpg,FN,3,num_2,32,num_4,3.36691931364,,,2017_Jul_18_1142,60.0082569895,FEMA4ImagesEEG,001,200900,
AFNE01.JPG,AFNE01.JPG,AFNE01.JPG,AFNE01.JPG,AFNE01.JPG,AFNE01.JPG,4,7,47,9,,,,,,,,,,,,,,,,,,,,,,,AFSA09.jpg,AFSA01.jpg,AFNE20.jpg,AFNE16.jpg,AFNE20.jpg,FN,3,num_2,16,num_2,1.33341255614,,,2017_Jul_18_1142,60.0082569895,FEMA4ImagesEEG,001,200900,
AFNE01.JPG,AFNE01.JPG,AFNE01.JPG,AFNE01.JPG,AFNE01.JPG,AFNE01.JPG,4,8,48,1,,,,,,,,,,,,,,,,,,,,,,,AFSA01.jpg,AFNE13.jpg,AFSA15.jpg,AFNE07.jpg,AFNE13.jpg,FN,3,num_6,32,num_8,1.21668785156,,,2017_Jul_18_1142,60.0082569895,FEMA4ImagesEEG,001,200900,
AFNE01.JPG,AFNE01.JPG,AFNE01.JPG,AFNE01.JPG,AFNE01.JPG,AFNE01.JPG,4,9,49,4,,,,,,,,,,,,,,,,,,,,,,,AFSA01.jpg,AFSA18.jpg,AFNE11.jpg,AFNE10.jpg,AFNE11.jpg,FN,3,num_2,32,num_4,0.900105491426,,,2017_Jul_18_1142,60.0082569895,FEMA4ImagesEEG,001,200900,
AFNE01.JPG,AFNE01.JPG,AFNE01.JPG,AFNE01.JPG,AFNE01.JPG,AFNE01.JPG,5,0,50,8,,,,,,,,,,,,,,,,,,,,,,,AFSA07.jpg,AFNE06.jpg,AFSA13.jpg,AFNE14.jpg,AFNE14.jpg,FN,3,num_4,16,num_4,1.03352600192,,,2017_Jul_18_1142,60.0082569895,FEMA4ImagesEEG,001,200900,
AFNE01.JPG,AFNE01.JPG,AFNE01.JPG,AFNE01.JPG,AFNE01.JPG,AFNE01.JPG,5,1,51,7,,,,,,,,,,,,,,,,,,,,,,,AFNE12.jpg,AFNE05.jpg,AFSA08.jpg,AFSA01.jpg,AFNE12.jpg,FN,3,num_8,16,num_8,1.36675124583,,,2017_Jul_18_1142,60.0082569895,FEMA4ImagesEEG,001,200900,
AFNE01.JPG,AFNE01.JPG,AFNE01.JPG,AFNE01.JPG,AFNE01.JPG,AFNE01.JPG,5,2,52,1,,,,,,,,,,,,,,,,,,,,,,,AFNE14.jpg,AFNE16.jpg,AFSA10.jpg,AFSA01.jpg,AFSA01.jpg,FS,4,num_4,16,num_4,0.683479863452,,,2017_Jul_18_1142,60.0082569895,FEMA4ImagesEEG,001,200900,
AFNE01.JPG,AFNE01.JPG,AFNE01.JPG,AFNE01.JPG,AFNE01.JPG,AFNE01.JPG,5,3,53,0,,,,,,,,,,,,,,,,,,,,,,,AFNE11.jpg,AFSA06.jpg,AFNE02.jpg,AFSA16.jpg,AFNE11.jpg,FN,3,num_8,16,num_8,0.816785869742,,,2017_Jul_18_1142,60.0082569895,FEMA4ImagesEEG,001,200900,
AFNE01.JPG,AFNE01.JPG,AFNE01.JPG,AFNE01.JPG,AFNE01.JPG,AFNE01.JPG,5,4,54,6,,,,,,,,,,,,,,,,,,,,,,,AFSA17.jpg,AFNE18.jpg,AFSA01.jpg,AFNE12.jpg,AFSA17.jpg,FS,4,num_8,16,num_8,0.600150940299,,,2017_Jul_18_1142,60.0082569895,FEMA4ImagesEEG,001,200900,
AFNE01.JPG,AFNE01.JPG,AFNE01.JPG,AFNE01.JPG,AFNE01.JPG,AFNE01.JPG,5,5,55,5,,,,,,,,,,,,,,,,,,,,,,,AFNE10.jpg,AFSA08.jpg,AFSA17.jpg,AFNE09.jpg,AFSA17.jpg,FS,4,num_2,32,num_6,0.98308769452,,,2017_Jul_18_1142,60.0082569895,FEMA4ImagesEEG,001,200900,
AFNE01.JPG,AFNE01.JPG,AFNE01.JPG,AFNE01.JPG,AFNE01.JPG,AFNE01.JPG,5,6,56,3,,,,,,,,,,,,,,,,,,,,,,,AFSA05.jpg,AFNE06.jpg,AFNE04.jpg,AFSA06.jpg,AFSA06.jpg,FS,4,num_4,16,num_4,1.76670198016,,,2017_Jul_18_1142,60.0082569895,FEMA4ImagesEEG,001,200900,
AFNE01.JPG,AFNE01.JPG,AFNE01.JPG,AFNE01.JPG,AFNE01.JPG,AFNE01.JPG,5,7,57,2,,,,,,,,,,,,,,,,,,,,,,,AFSA04.jpg,AFNE09.jpg,AFNE05.jpg,AFSA10.jpg,AFNE09.jpg,FN,3,num_6,16,num_6,1.0167676517,,,2017_Jul_18_1142,60.0082569895,FEMA4ImagesEEG,001,200900,
AFNE01.JPG,AFNE01.JPG,AFNE01.JPG,AFNE01.JPG,AFNE01.JPG,AFNE01.JPG,5,8,58,9,,,,,,,,,,,,,,,,,,,,,,,AFSA11.jpg,AFNE19.jpg,AFNE06.jpg,AFSA07.jpg,AFSA07.jpg,FS,4,num_4,16,num_4,0.666807792324,,,2017_Jul_18_1142,60.0082569895,FEMA4ImagesEEG,001,200900,
AFNE01.JPG,AFNE01.JPG,AFNE01.JPG,AFNE01.JPG,AFNE01.JPG,AFNE01.JPG,5,9,59,4,,,,,,,,,,,,,,,,,,,,,,,AFSA17.jpg,AFSA05.jpg,AFNE06.jpg,AFNE02.jpg,AFNE02.jpg,FN,3,num_4,16,num_4,0.816774643827,,,2017_Jul_18_1142,60.0082569895,FEMA4ImagesEEG,001,200900,
,,,,,,,,,,,,,,,,,,,,,,,,,,,,,,,,,,,,,,,,,,,space,19.4154100871,2017_Jul_18_1142,60.0082569895,FEMA4ImagesEEG,001,200900,
AFNE01.JPG,AFNE01.JPG,AFNE01.JPG,AFNE01.JPG,AFNE01.JPG,AFNE01.JPG,,,,,0,0,0,2,,,,,,,,,,,,,,,,,,,AMSA05.jpg,AMSA06.jpg,AMNE12.jpg,AMNE06.jpg,AMSA05.jpg,MS,2,num_8,16,num_8,0.766816484378,,,2017_Jul_18_1142,60.0082569895,FEMA4ImagesEEG,001,200900,
AFNE01.JPG,AFNE01.JPG,AFNE01.JPG,AFNE01.JPG,AFNE01.JPG,AFNE01.JPG,,,,,0,1,1,4,,,,,,,,,,,,,,,,,,,AMNE06.jpg,AMNE15.jpg,AMSA15.jpg,AMSA10.jpg,AMNE15.jpg,MN,1,num_6,32,num_4,0.783497215496,,,2017_Jul_18_1142,60.0082569895,FEMA4ImagesEEG,001,200900,
AFNE01.JPG,AFNE01.JPG,AFNE01.JPG,AFNE01.JPG,AFNE01.JPG,AFNE01.JPG,,,,,0,2,2,7,,,,,,,,,,,,,,,,,,,AMNE06.jpg,AMNE03.jpg,AMSA20.jpg,AMSA19.jpg,AMSA20.jpg,MS,2,num_2,32,num_4,0.750132545858,,,2017_Jul_18_1142,60.0082569895,FEMA4ImagesEEG,001,200900,
AFNE01.JPG,AFNE01.JPG,AFNE01.JPG,AFNE01.JPG,AFNE01.JPG,AFNE01.JPG,,,,,0,3,3,3,,,,,,,,,,,,,,,,,,,AMSA01.jpg,AMSA12.jpg,AMNE05.jpg,AMNE16.jpg,AMNE16.jpg,MN,1,num_4,16,num_4,0.700082333977,,,2017_Jul_18_1142,60.0082569895,FEMA4ImagesEEG,001,200900,
AFNE01.JPG,AFNE01.JPG,AFNE01.JPG,AFNE01.JPG,AFNE01.JPG,AFNE01.JPG,,,,,0,4,4,1,,,,,,,,,,,,,,,,,,,AMSA08.jpg,AMNE09.jpg,AMNE07.jpg,AMSA18.jpg,AMNE09.jpg,MN,1,num_6,32,num_2,1.11685652878,,,2017_Jul_18_1142,60.0082569895,FEMA4ImagesEEG,001,200900,
AFNE01.JPG,AFNE01.JPG,AFNE01.JPG,AFNE01.JPG,AFNE01.JPG,AFNE01.JPG,,,,,0,5,5,8,,,,,,,,,,,,,,,,,,,AMSA11.jpg,AMSA03.jpg,AMNE09.jpg,AMNE13.jpg,AMSA11.jpg,MS,2,num_8,32,num_6,0.683506484886,,,2017_Jul_18_1142,60.0082569895,FEMA4ImagesEEG,001,200900,
AFNE01.JPG,AFNE01.JPG,AFNE01.JPG,AFNE01.JPG,AFNE01.JPG,AFNE01.JPG,,,,,0,6,6,5,,,,,,,,,,,,,,,,,,,AMSA19.jpg,AMSA09.jpg,AMNE03.jpg,AMNE10.jpg,AMSA19.jpg,MS,2,num_8,16,num_8,1.0668390324,,,2017_Jul_18_1142,60.0082569895,FEMA4ImagesEEG,001,200900,
AFNE01.JPG,AFNE01.JPG,AFNE01.JPG,AFNE01.JPG,AFNE01.JPG,AFNE01.JPG,,,,,0,7,7,0,,,,,,,,,,,,,,,,,,,AMSA16.jpg,AMNE20.jpg,AMSA20.jpg,AMNE16.jpg,AMSA20.jpg,MS,2,num_2,16,num_2,0.949967749577,,,2017_Jul_18_1142,60.0082569895,FEMA4ImagesEEG,001,200900,
AFNE01.JPG,AFNE01.JPG,AFNE01.JPG,AFNE01.JPG,AFNE01.JPG,AFNE01.JPG,,,,,0,8,8,6,,,,,,,,,,,,,,,,,,,AMSA17.jpg,AMNE05.jpg,AMSA01.jpg,AMNE17.jpg,AMNE17.jpg,MN,1,num_4,16,num_4,1.40004759782,,,2017_Jul_18_1142,60.0082569895,FEMA4ImagesEEG,001,200900,
AFNE01.JPG,AFNE01.JPG,AFNE01.JPG,AFNE01.JPG,AFNE01.JPG,AFNE01.JPG,,,,,0,9,9,9,,,,,,,,,,,,,,,,,,,AMNE11.jpg,AMNE09.jpg,AMSA09.jpg,AMSA10.jpg,AMSA10.jpg,MS,2,num_4,16,num_4,0.816823396322,,,2017_Jul_18_1142,60.0082569895,FEMA4ImagesEEG,001,200900,
AFNE01.JPG,AFNE01.JPG,AFNE01.JPG,AFNE01.JPG,AFNE01.JPG,AFNE01.JPG,,,,,1,0,10,4,,,,,,,,,,,,,,,,,,,AMNE12.jpg,AMSA01.jpg,AMSA07.jpg,AMNE06.jpg,AMSA01.jpg,MS,2,num_6,16,num_6,0.533516219351,,,2017_Jul_18_1142,60.0082569895,FEMA4ImagesEEG,001,200900,
AFNE01.JPG,AFNE01.JPG,AFNE01.JPG,AFNE01.JPG,AFNE01.JPG,AFNE01.JPG,,,,,1,1,11,9,,,,,,,,,,,,,,,,,,,AMNE05.jpg,AMNE17.jpg,AMSA05.jpg,AMSA20.jpg,AMSA20.jpg,MS,2,num_4,16,num_4,0.750051398601,,,2017_Jul_18_1142,60.0082569895,FEMA4ImagesEEG,001,200900,
AFNE01.JPG,AFNE01.JPG,AFNE01.JPG,AFNE01.JPG,AFNE01.JPG,AFNE01.JPG,,,,,1,2,12,7,,,,,,,,,,,,,,,,,,,AMSA08.jpg,AMNE09.jpg,AMNE01.jpg,AMSA19.jpg,AMSA08.jpg,MS,2,num_8,32,num_6,0.933100668452,,,2017_Jul_18_1142,60.0082569895,FEMA4ImagesEEG,001,200900,
AFNE01.JPG,AFNE01.JPG,AFNE01.JPG,AFNE01.JPG,AFNE01.JPG,AFNE01.JPG,,,,,1,3,13,2,,,,,,,,,,,,,,,,,,,AMNE17.jpg,AMSA18.jpg,AMSA13.jpg,AMNE03.jpg,AMSA13.jpg,MS,2,num_2,16,num_2,0.600156072149,,,2017_Jul_18_1142,60.0082569895,FEMA4ImagesEEG,001,200900,
AFNE01.JPG,AFNE01.JPG,AFNE01.JPG,AFNE01.JPG,AFNE01.JPG,AFNE01.JPG,,,,,1,4,14,5,,,,,,,,,,,,,,,,,,,AMNE01.jpg,AMSA02.jpg,AMNE05.jpg,AMSA05.jpg,AMNE05.jpg,MN,1,num_2,16,num_2,1.00020334922,,,2017_Jul_18_1142,60.0082569895,FEMA4ImagesEEG,001,200900,
AFNE01.JPG,AFNE01.JPG,AFNE01.JPG,AFNE01.JPG,AFNE01.JPG,AFNE01.JPG,,,,,1,5,15,1,,,,,,,,,,,,,,,,,,,AMSA15.jpg,AMNE01.jpg,AMNE17.jpg,AMSA13.jpg,AMNE01.jpg,MN,1,num_6,16,num_6,1.11674138308,,,2017_Jul_18_1142,60.0082569895,FEMA4ImagesEEG,001,200900,
AFNE01.JPG,AFNE01.JPG,AFNE01.JPG,AFNE01.JPG,AFNE01.JPG,AFNE01.JPG,,,,,1,6,16,0,,,,,,,,,,,,,,,,,,,AMSA13.jpg,AMSA04.jpg,AMNE16.jpg,AMNE05.jpg,AMSA13.jpg,MS,2,num_8,16,num_8,1.1167798719,,,2017_Jul_18_1142,60.0082569895,FEMA4ImagesEEG,001,200900,
AFNE01.JPG,AFNE01.JPG,AFNE01.JPG,AFNE01.JPG,AFNE01.JPG,AFNE01.JPG,,,,,1,7,17,3,,,,,,,,,,,,,,,,,,,AMSA04.jpg,AMSA09.jpg,AMNE04.jpg,AMNE05.jpg,AMSA09.jpg,MS,2,num_6,16,num_6,0.483539777706,,,2017_Jul_18_1142,60.0082569895,FEMA4ImagesEEG,001,200900,
AFNE01.JPG,AFNE01.JPG,AFNE01.JPG,AFNE01.JPG,AFNE01.JPG,AFNE01.JPG,,,,,1,8,18,6,,,,,,,,,,,,,,,,,,,AMSA11.jpg,AMNE11.jpg,AMNE14.jpg,AMSA09.jpg,AMSA11.jpg,MS,2,num_8,16,num_8,0.883316029402,,,2017_Jul_18_1142,60.0082569895,FEMA4ImagesEEG,001,200900,
AFNE01.JPG,AFNE01.JPG,AFNE01.JPG,AFNE01.JPG,AFNE01.JPG,AFNE01.JPG,,,,,1,9,19,8,,,,,,,,,,,,,,,,,,,AMNE07.jpg,AMSA12.jpg,AMSA17.jpg,AMNE09.jpg,AMSA17.jpg,MS,2,num_2,16,num_2,0.566812892095,,,2017_Jul_18_1142,60.0082569895,FEMA4ImagesEEG,001,200900,
AFNE01.JPG,AFNE01.JPG,AFNE01.JPG,AFNE01.JPG,AFNE01.JPG,AFNE01.JPG,,,,,2,0,20,0,,,,,,,,,,,,,,,,,,,AMNE03.jpg,AMSA17.jpg,AMSA02.jpg,AMNE10.jpg,AMSA17.jpg,MS,2,num_6,16,num_6,0.700188819712,,,2017_Jul_18_1142,60.0082569895,FEMA4ImagesEEG,001,200900,
AFNE01.JPG,AFNE01.JPG,AFNE01.JPG,AFNE01.JPG,AFNE01.JPG,AFNE01.JPG,,,,,2,1,21,1,,,,,,,,,,,,,,,,,,,AMNE11.jpg,AMSA17.jpg,AMNE20.jpg,AMSA14.jpg,AMSA14.jpg,MS,2,num_4,16,num_4,0.450239256083,,,2017_Jul_18_1142,60.0082569895,FEMA4ImagesEEG,001,200900,
AFNE01.JPG,AFNE01.JPG,AFNE01.JPG,AFNE01.JPG,AFNE01.JPG,AFNE01.JPG,,,,,2,2,22,3,,,,,,,,,,,,,,,,,,,AMNE19.jpg,AMSA19.jpg,AMNE10.jpg,AMSA18.jpg,AMNE19.jpg,MN,1,num_8,16,num_8,1.33336316216,,,2017_Jul_18_1142,60.0082569895,FEMA4ImagesEEG,001,200900,
AFNE01.JPG,AFNE01.JPG,AFNE01.JPG,AFNE01.JPG,AFNE01.JPG,AFNE01.JPG,,,,,2,3,23,8,,,,,,,,,,,,,,,,,,,AMNE01.jpg,AMSA16.jpg,AMSA05.jpg,AMNE20.jpg,AMSA05.jpg,MS,2,num_2,32,num_6,1.10022230497,,,2017_Jul_18_1142,60.0082569895,FEMA4ImagesEEG,001,200900,
AFNE01.JPG,AFNE01.JPG,AFNE01.JPG,AFNE01.JPG,AFNE01.JPG,AFNE01.JPG,,,,,2,4,24,5,,,,,,,,,,,,,,,,,,,AMSA08.jpg,AMNE03.jpg,AMSA02.jpg,AMNE12.jpg,AMSA02.jpg,MS,2,num_2,32,num_8,1.31671771246,,,2017_Jul_18_1142,60.0082569895,FEMA4ImagesEEG,001,200900,
AFNE01.JPG,AFNE01.JPG,AFNE01.JPG,AFNE01.JPG,AFNE01.JPG,AFNE01.JPG,,,,,2,5,25,6,,,,,,,,,,,,,,,,,,,AMNE07.jpg,AMSA07.jpg,AMNE19.jpg,AMSA19.jpg,AMSA07.jpg,MS,2,num_6,16,num_6,0.683506805624,,,2017_Jul_18_1142,60.0082569895,FEMA4ImagesEEG,001,200900,
AFNE01.JPG,AFNE01.JPG,AFNE01.JPG,AFNE01.JPG,AFNE01.JPG,AFNE01.JPG,,,,,2,6,26,9,,,,,,,,,,,,,,,,,,,AMNE03.jpg,AMSA19.jpg,AMSA02.jpg,AMNE20.jpg,AMNE20.jpg,MN,1,num_4,16,num_4,1.13348433778,,,2017_Jul_18_1142,60.0082569895,FEMA4ImagesEEG,001,200900,
AFNE01.JPG,AFNE01.JPG,AFNE01.JPG,AFNE01.JPG,AFNE01.JPG,AFNE01.JPG,,,,,2,7,27,2,,,,,,,,,,,,,,,,,,,AMNE15.jpg,AMSA04.jpg,AMNE20.jpg,AMSA19.jpg,AMNE20.jpg,MN,1,num_2,16,num_2,0.683475693833,,,2017_Jul_18_1142,60.0082569895,FEMA4ImagesEEG,001,200900,
AFNE01.JPG,AFNE01.JPG,AFNE01.JPG,AFNE01.JPG,AFNE01.JPG,AFNE01.JPG,,,,,2,8,28,7,,,,,,,,,,,,,,,,,,,AMSA03.jpg,AMSA10.jpg,AMNE08.jpg,AMNE01.jpg,AMNE08.jpg,MN,1,num_2,32,num_6,0.716761140662,,,2017_Jul_18_1142,60.0082569895,FEMA4ImagesEEG,001,200900,
AFNE01.JPG,AFNE01.JPG,AFNE01.JPG,AFNE01.JPG,AFNE01.JPG,AFNE01.JPG,,,,,2,9,29,4,,,,,,,,,,,,,,,,,,,AMSA11.jpg,AMSA04.jpg,AMNE14.jpg,AMNE06.jpg,AMSA04.jpg,MS,2,num_6,16,num_6,0.633573022424,,,2017_Jul_18_1142,60.0082569895,FEMA4ImagesEEG,001,200900,
AFNE01.JPG,AFNE01.JPG,AFNE01.JPG,AFNE01.JPG,AFNE01.JPG,AFNE01.JPG,,,,,3,0,30,5,,,,,,,,,,,,,,,,,,,AMSA03.jpg,AMNE01.jpg,AMSA06.jpg,AMNE14.jpg,AMSA03.jpg,MS,2,num_8,16,num_8,0.750143130281,,,2017_Jul_18_1142,60.0082569895,FEMA4ImagesEEG,001,200900,
AFNE01.JPG,AFNE01.JPG,AFNE01.JPG,AFNE01.JPG,AFNE01.JPG,AFNE01.JPG,,,,,3,1,31,9,,,,,,,,,,,,,,,,,,,AMSA14.jpg,AMNE17.jpg,AMSA02.jpg,AMNE05.jpg,AMNE05.jpg,MN,1,num_4,16,num_4,0.950130364829,,,2017_Jul_18_1142,60.0082569895,FEMA4ImagesEEG,001,200900,
AFNE01.JPG,AFNE01.JPG,AFNE01.JPG,AFNE01.JPG,AFNE01.JPG,AFNE01.JPG,,,,,3,2,32,7,,,,,,,,,,,,,,,,,,,AMNE10.jpg,AMNE06.jpg,AMSA12.jpg,AMSA15.jpg,AMNE10.jpg,MN,1,num_8,16,num_8,0.933504800996,,,2017_Jul_18_1142,60.0082569895,FEMA4ImagesEEG,001,200900,
AFNE01.JPG,AFNE01.JPG,AFNE01.JPG,AFNE01.JPG,AFNE01.JPG,AFNE01.JPG,,,,,3,3,33,2,,,,,,,,,,,,,,,,,,,AMSA19.jpg,AMSA09.jpg,AMNE16.jpg,AMNE11.jpg,AMNE16.jpg,MN,1,num_2,16,num_2,1.4334603785,,,2017_Jul_18_1142,60.0082569895,FEMA4ImagesEEG,001,200900,
AFNE01.JPG,AFNE01.JPG,AFNE01.JPG,AFNE01.JPG,AFNE01.JPG,AFNE01.JPG,,,,,3,4,34,3,,,,,,,,,,,,,,,,,,,AMNE13.jpg,AMSA06.jpg,AMNE19.jpg,AMSA11.jpg,AMNE13.jpg,MN,1,num_8,16,num_8,1.00016293598,,,2017_Jul_18_1142,60.0082569895,FEMA4ImagesEEG,001,200900,
AFNE01.JPG,AFNE01.JPG,AFNE01.JPG,AFNE01.JPG,AFNE01.JPG,AFNE01.JPG,,,,,3,5,35,0,,,,,,,,,,,,,,,,,,,AMNE02.jpg,AMSA11.jpg,AMNE11.jpg,AMSA14.jpg,AMSA11.jpg,MS,2,num_6,16,num_6,0.866817478673,,,2017_Jul_18_1142,60.0082569895,FEMA4ImagesEEG,001,200900,
AFNE01.JPG,AFNE01.JPG,AFNE01.JPG,AFNE01.JPG,AFNE01.JPG,AFNE01.JPG,,,,,3,6,36,6,,,,,,,,,,,,,,,,,,,AMSA19.jpg,AMNE10.jpg,AMSA09.jpg,AMNE02.jpg,AMSA19.jpg,MS,2,num_8,16,num_8,0.91666658649,,,2017_Jul_18_1142,60.0082569895,FEMA4ImagesEEG,001,200900,
AFNE01.JPG,AFNE01.JPG,AFNE01.JPG,AFNE01.JPG,AFNE01.JPG,AFNE01.JPG,,,,,3,7,37,4,,,,,,,,,,,,,,,,,,,AMNE06.jpg,AMSA09.jpg,AMNE03.jpg,AMSA08.jpg,AMNE06.jpg,MN,1,num_8,16,num_8,0.916738432265,,,2017_Jul_18_1142,60.0082569895,FEMA4ImagesEEG,001,200900,
AFNE01.JPG,AFNE01.JPG,AFNE01.JPG,AFNE01.JPG,AFNE01.JPG,AFNE01.JPG,,,,,3,8,38,1,,,,,,,,,,,,,,,,,,,AMNE02.jpg,AMSA15.jpg,AMNE14.jpg,AMSA09.jpg,AMSA15.jpg,MS,2,num_6,32,num_4,0.65012000491,,,2017_Jul_18_1142,60.0082569895,FEMA4ImagesEEG,001,200900,
AFNE01.JPG,AFNE01.JPG,AFNE01.JPG,AFNE01.JPG,AFNE01.JPG,AFNE01.JPG,,,,,3,9,39,8,,,,,,,,,,,,,,,,,,,AMNE14.jpg,AMSA09.jpg,AMSA17.jpg,AMNE03.jpg,AMNE03.jpg,MN,1,num_4,32,num_2,1.00015395525,,,2017_Jul_18_1142,60.0082569895,FEMA4ImagesEEG,001,200900,
AFNE01.JPG,AFNE01.JPG,AFNE01.JPG,AFNE01.JPG,AFNE01.JPG,AFNE01.JPG,,,,,4,0,40,8,,,,,,,,,,,,,,,,,,,AMNE09.jpg,AMSA13.jpg,AMSA15.jpg,AMNE12.jpg,AMSA15.jpg,MS,2,num_2,16,num_2,0.516856657079,,,2017_Jul_18_1142,60.0082569895,FEMA4ImagesEEG,001,200900,
AFNE01.JPG,AFNE01.JPG,AFNE01.JPG,AFNE01.JPG,AFNE01.JPG,AFNE01.JPG,,,,,4,1,41,0,,,,,,,,,,,,,,,,,,,AMNE18.jpg,AMNE16.jpg,AMSA02.jpg,AMSA14.jpg,AMSA02.jpg,MS,2,num_2,16,num_2,2.20003213815,,,2017_Jul_18_1142,60.0082569895,FEMA4ImagesEEG,001,200900,
AFNE01.JPG,AFNE01.JPG,AFNE01.JPG,AFNE01.JPG,AFNE01.JPG,AFNE01.JPG,,,,,4,2,42,1,,,,,,,,,,,,,,,,,,,AMNE16.jpg,AMNE04.jpg,AMSA05.jpg,AMSA16.jpg,AMNE16.jpg,MN,1,num_8,16,num_8,0.850108522427,,,2017_Jul_18_1142,60.0082569895,FEMA4ImagesEEG,001,200900,
AFNE01.JPG,AFNE01.JPG,AFNE01.JPG,AFNE01.JPG,AFNE01.JPG,AFNE01.JPG,,,,,4,3,43,2,,,,,,,,,,,,,,,,,,,AMSA18.jpg,AMNE02.jpg,AMSA19.jpg,AMNE05.jpg,AMSA18.jpg,MS,2,num_8,16,num_8,0.666859752222,,,2017_Jul_18_1142,60.0082569895,FEMA4ImagesEEG,001,200900,
AFNE01.JPG,AFNE01.JPG,AFNE01.JPG,AFNE01.JPG,AFNE01.JPG,AFNE01.JPG,,,,,4,4,44,7,,,,,,,,,,,,,,,,,,,AMNE03.jpg,AMNE16.jpg,AMSA04.jpg,AMSA08.jpg,AMSA04.jpg,MS,2,num_2,16,num_2,0.466859046588,,,2017_Jul_18_1142,60.0082569895,FEMA4ImagesEEG,001,200900,
AFNE01.JPG,AFNE01.JPG,AFNE01.JPG,AFNE01.JPG,AFNE01.JPG,AFNE01.JPG,,,,,4,5,45,6,,,,,,,,,,,,,,,,,,,AMSA09.jpg,AMNE15.jpg,AMSA20.jpg,AMNE13.jpg,AMNE13.jpg,MN,1,num_4,16,num_4,0.983480601149,,,2017_Jul_18_1142,60.0082569895,FEMA4ImagesEEG,001,200900,
AFNE01.JPG,AFNE01.JPG,AFNE01.JPG,AFNE01.JPG,AFNE01.JPG,AFNE01.JPG,,,,,4,6,46,4,,,,,,,,,,,,,,,,,,,AMNE06.jpg,AMNE19.jpg,AMSA11.jpg,AMSA07.jpg,AMSA11.jpg,MS,2,num_2,16,num_2,0.866801441662,,,2017_Jul_18_1142,60.0082569895,FEMA4ImagesEEG,001,200900,
AFNE01.JPG,AFNE01.JPG,AFNE01.JPG,AFNE01.JPG,AFNE01.JPG,AFNE01.JPG,,,,,4,7,47,9,,,,,,,,,,,,,,,,,,,AMNE16.jpg,AMNE08.jpg,AMSA05.jpg,AMSA10.jpg,AMNE16.jpg,MN,1,num_8,32,num_6,0.900131792121,,,2017_Jul_18_1142,60.0082569895,FEMA4ImagesEEG,001,200900,
AFNE01.JPG,AFNE01.JPG,AFNE01.JPG,AFNE01.JPG,AFNE01.JPG,AFNE01.JPG,,,,,4,8,48,3,,,,,,,,,,,,,,,,,,,AMSA16.jpg,AMNE07.jpg,AMSA15.jpg,AMNE20.jpg,AMNE20.jpg,MN,1,num_4,32,num_6,1.03343972283,,,2017_Jul_18_1142,60.0082569895,FEMA4ImagesEEG,001,200900,
AFNE01.JPG,AFNE01.JPG,AFNE01.JPG,AFNE01.JPG,AFNE01.JPG,AFNE01.JPG,,,,,4,9,49,5,,,,,,,,,,,,,,,,,,,AMNE04.jpg,AMNE01.jpg,AMSA10.jpg,AMSA20.jpg,AMSA10.jpg,MS,2,num_2,16,num_2,0.68345260054,,,2017_Jul_18_1142,60.0082569895,FEMA4ImagesEEG,001,200900,
AFNE01.JPG,AFNE01.JPG,AFNE01.JPG,AFNE01.JPG,AFNE01.JPG,AFNE01.JPG,,,,,5,0,50,4,,,,,,,,,,,,,,,,,,,AMSA12.jpg,AMNE11.jpg,AMNE14.jpg,AMSA20.jpg,AMNE14.jpg,MN,1,num_2,16,num_2,1.63354960839,,,2017_Jul_18_1142,60.0082569895,FEMA4ImagesEEG,001,200900,
AFNE01.JPG,AFNE01.JPG,AFNE01.JPG,AFNE01.JPG,AFNE01.JPG,AFNE01.JPG,,,,,5,1,51,0,,,,,,,,,,,,,,,,,,,AMSA12.jpg,AMNE20.jpg,AMNE02.jpg,AMSA11.jpg,AMSA11.jpg,MS,2,num_4,16,num_4,0.983466488586,,,2017_Jul_18_1142,60.0082569895,FEMA4ImagesEEG,001,200900,
AFNE01.JPG,AFNE01.JPG,AFNE01.JPG,AFNE01.JPG,AFNE01.JPG,AFNE01.JPG,,,,,5,2,52,6,,,,,,,,,,,,,,,,,,,AMSA20.jpg,AMSA05.jpg,AMNE04.jpg,AMNE12.jpg,AMNE04.jpg,MN,1,num_2,16,num_2,0.70014423682,,,2017_Jul_18_1142,60.0082569895,FEMA4ImagesEEG,001,200900,
AFNE01.JPG,AFNE01.JPG,AFNE01.JPG,AFNE01.JPG,AFNE01.JPG,AFNE01.JPG,,,,,5,3,53,8,,,,,,,,,,,,,,,,,,,AMNE16.jpg,AMSA16.jpg,AMNE19.jpg,AMSA18.jpg,AMNE16.jpg,MN,1,num_8,16,num_8,0.766782806662,,,2017_Jul_18_1142,60.0082569895,FEMA4ImagesEEG,001,200900,
AFNE01.JPG,AFNE01.JPG,AFNE01.JPG,AFNE01.JPG,AFNE01.JPG,AFNE01.JPG,,,,,5,4,54,3,,,,,,,,,,,,,,,,,,,AMSA14.jpg,AMNE17.jpg,AMNE19.jpg,AMSA19.jpg,AMSA19.jpg,MS,2,num_4,32,num_2,1.13344713193,,,2017_Jul_18_1142,60.0082569895,FEMA4ImagesEEG,001,200900,
AFNE01.JPG,AFNE01.JPG,AFNE01.JPG,AFNE01.JPG,AFNE01.JPG,AFNE01.JPG,,,,,5,5,55,9,,,,,,,,,,,,,,,,,,,AMNE13.jpg,AMSA17.jpg,AMSA03.jpg,AMNE10.jpg,AMSA03.jpg,MS,2,num_2,16,num_2,0.666758719075,,,2017_Jul_18_1142,60.0082569895,FEMA4ImagesEEG,001,200900,
AFNE01.JPG,AFNE01.JPG,AFNE01.JPG,AFNE01.JPG,AFNE01.JPG,AFNE01.JPG,,,,,5,6,56,5,,,,,,,,,,,,,,,,,,,AMSA11.jpg,AMNE05.jpg,AMNE16.jpg,AMSA04.jpg,AMNE16.jpg,MN,1,num_2,32,num_6,1.0002575543,,,2017_Jul_18_1142,60.0082569895,FEMA4ImagesEEG,001,200900,
AFNE01.JPG,AFNE01.JPG,AFNE01.JPG,AFNE01.JPG,AFNE01.JPG,AFNE01.JPG,,,,,5,7,57,2,,,,,,,,,,,,,,,,,,,AMSA03.jpg,AMNE05.jpg,AMNE04.jpg,AMSA19.jpg,AMNE05.jpg,MN,1,num_6,16,num_6,0.816503297698,,,2017_Jul_18_1142,60.0082569895,FEMA4ImagesEEG,001,200900,
AFNE01.JPG,AFNE01.JPG,AFNE01.JPG,AFNE01.JPG,AFNE01.JPG,AFNE01.JPG,,,,,5,8,58,7,,,,,,,,,,,,,,,,,,,AMSA18.jpg,AMNE17.jpg,AMSA12.jpg,AMNE05.jpg,AMNE17.jpg,MN,1,num_6,16,num_6,1.03345928798,,,2017_Jul_18_1142,60.0082569895,FEMA4ImagesEEG,001,200900,
AFNE01.JPG,AFNE01.JPG,AFNE01.JPG,AFNE01.JPG,AFNE01.JPG,AFNE01.JPG,,,,,5,9,59,1,,,,,,,,,,,,,,,,,,,AMSA09.jpg,AMSA15.jpg,AMNE09.jpg,AMNE03.jpg,AMSA15.jpg,MS,2,num_6,16,num_6,0.616768485619,,,2017_Jul_18_1142,60.0082569895,FEMA4ImagesEEG,001,200900,
,,,,,,,,,,,,,,,,,,,,,,,,,,,,,,,,,,,,,,,,,,,space,12.9661182973,2017_Jul_18_1142,60.0082569895,FEMA4ImagesEEG,001,200900,
AFNE01.JPG,AFNE01.JPG,AFNE01.JPG,AFNE01.JPG,AFNE01.JPG,AFNE01.JPG,,,,,,,,,0,0,0,9,,,,,,,,,,,,,,,AFSA01.jpg,AFSA19.jpg,AFNE18.jpg,AFNE06.jpg,AFNE18.jpg,FN,3,num_2,16,num_2,0.949966466607,,,2017_Jul_18_1142,60.0082569895,FEMA4ImagesEEG,001,200900,
AFNE01.JPG,AFNE01.JPG,AFNE01.JPG,AFNE01.JPG,AFNE01.JPG,AFNE01.JPG,,,,,,,,,0,1,1,3,,,,,,,,,,,,,,,AFNE02.jpg,AFSA20.jpg,AFNE09.jpg,AFSA08.jpg,AFNE09.jpg,FN,3,num_2,32,num_6,1.06673543336,,,2017_Jul_18_1142,60.0082569895,FEMA4ImagesEEG,001,200900,
AFNE01.JPG,AFNE01.JPG,AFNE01.JPG,AFNE01.JPG,AFNE01.JPG,AFNE01.JPG,,,,,,,,,0,2,2,5,,,,,,,,,,,,,,,AFNE16.jpg,AFSA06.jpg,AFSA11.jpg,AFNE03.jpg,AFSA11.jpg,FS,4,num_2,16,num_2,0.500137437135,,,2017_Jul_18_1142,60.0082569895,FEMA4ImagesEEG,001,200900,
AFNE01.JPG,AFNE01.JPG,AFNE01.JPG,AFNE01.JPG,AFNE01.JPG,AFNE01.JPG,,,,,,,,,0,3,3,4,,,,,,,,,,,,,,,AFSA13.jpg,AFNE10.jpg,AFNE13.jpg,AFSA18.jpg,AFSA18.jpg,FS,4,num_4,16,num_4,0.800179229584,,,2017_Jul_18_1142,60.0082569895,FEMA4ImagesEEG,001,200900,
AFNE01.JPG,AFNE01.JPG,AFNE01.JPG,AFNE01.JPG,AFNE01.JPG,AFNE01.JPG,,,,,,,,,0,4,4,0,,,,,,,,,,,,,,,AFNE15.jpg,AFNE17.jpg,AFSA19.jpg,AFSA08.jpg,AFNE17.jpg,FN,3,num_6,16,num_6,0.850142520867,,,2017_Jul_18_1142,60.0082569895,FEMA4ImagesEEG,001,200900,
AFNE01.JPG,AFNE01.JPG,AFNE01.JPG,AFNE01.JPG,AFNE01.JPG,AFNE01.JPG,,,,,,,,,0,5,5,8,,,,,,,,,,,,,,,AFSA14.jpg,AFNE04.jpg,AFNE16.jpg,AFSA04.jpg,AFNE16.jpg,FN,3,num_2,16,num_2,0.600224710535,,,2017_Jul_18_1142,60.0082569895,FEMA4ImagesEEG,001,200900,
AFNE01.JPG,AFNE01.JPG,AFNE01.JPG,AFNE01.JPG,AFNE01.JPG,AFNE01.JPG,,,,,,,,,0,6,6,1,,,,,,,,,,,,,,,AFSA15.jpg,AFNE02.jpg,AFSA20.jpg,AFNE14.jpg,AFNE14.jpg,FN,3,num_4,32,num_6,0.983437621981,,,2017_Jul_18_1142,60.0082569895,FEMA4ImagesEEG,001,200900,
AFNE01.JPG,AFNE01.JPG,AFNE01.JPG,AFNE01.JPG,AFNE01.JPG,AFNE01.JPG,,,,,,,,,0,7,7,6,,,,,,,,,,,,,,,AFSA06.jpg,AFSA20.jpg,AFNE01.jpg,AFNE08.jpg,AFNE08.jpg,FN,3,num_4,32,num_8,0.866836081594,,,2017_Jul_18_1142,60.0082569895,FEMA4ImagesEEG,001,200900,
AFNE01.JPG,AFNE01.JPG,AFNE01.JPG,AFNE01.JPG,AFNE01.JPG,AFNE01.JPG,,,,,,,,,0,8,8,7,,,,,,,,,,,,,,,AFSA19.jpg,AFSA02.jpg,AFNE07.jpg,AFNE09.jpg,AFSA19.jpg,FS,4,num_8,16,num_8,1.08343893701,,,2017_Jul_18_1142,60.0082569895,FEMA4ImagesEEG,001,200900,
AFNE01.JPG,AFNE01.JPG,AFNE01.JPG,AFNE01.JPG,AFNE01.JPG,AFNE01.JPG,,,,,,,,,0,9,9,2,,,,,,,,,,,,,,,AFNE19.jpg,AFNE01.jpg,AFSA15.jpg,AFSA02.jpg,AFSA02.jpg,FS,4,num_4,32,num_8,1.15014614523,,,2017_Jul_18_1142,60.0082569895,FEMA4ImagesEEG,001,200900,
AFNE01.JPG,AFNE01.JPG,AFNE01.JPG,AFNE01.JPG,AFNE01.JPG,AFNE01.JPG,,,,,,,,,1,0,10,4,,,,,,,,,,,,,,,AFSA08.jpg,AFNE14.jpg,AFNE01.jpg,AFSA10.jpg,AFNE14.jpg,FN,3,num_6,16,num_6,0.800123420791,,,2017_Jul_18_1142,60.0082569895,FEMA4ImagesEEG,001,200900,
AFNE01.JPG,AFNE01.JPG,AFNE01.JPG,AFNE01.JPG,AFNE01.JPG,AFNE01.JPG,,,,,,,,,1,1,11,0,,,,,,,,,,,,,,,AFSA20.jpg,AFSA12.jpg,AFNE08.jpg,AFNE05.jpg,AFSA20.jpg,FS,4,num_8,16,num_8,0.783421841566,,,2017_Jul_18_1142,60.0082569895,FEMA4ImagesEEG,001,200900,
AFNE01.JPG,AFNE01.JPG,AFNE01.JPG,AFNE01.JPG,AFNE01.JPG,AFNE01.JPG,,,,,,,,,1,2,12,3,,,,,,,,,,,,,,,AFSA03.jpg,AFNE09.jpg,AFSA19.jpg,AFNE19.jpg,AFSA19.jpg,FS,4,num_2,16,num_2,1.59997292953,,,2017_Jul_18_1142,60.0082569895,FEMA4ImagesEEG,001,200900,
AFNE01.JPG,AFNE01.JPG,AFNE01.JPG,AFNE01.JPG,AFNE01.JPG,AFNE01.JPG,,,,,,,,,1,3,13,9,,,,,,,,,,,,,,,AFNE08.jpg,AFSA05.jpg,AFSA13.jpg,AFNE20.jpg,AFSA13.jpg,FS,4,num_2,16,num_2,0.85020827259,,,2017_Jul_18_1142,60.0082569895,FEMA4ImagesEEG,001,200900,
AFNE01.JPG,AFNE01.JPG,AFNE01.JPG,AFNE01.JPG,AFNE01.JPG,AFNE01.JPG,,,,,,,,,1,4,14,1,,,,,,,,,,,,,,,AFNE19.jpg,AFSA15.jpg,AFSA12.jpg,AFNE20.jpg,AFSA15.jpg,FS,4,num_6,32,num_4,1.15013716451,,,2017_Jul_18_1142,60.0082569895,FEMA4ImagesEEG,001,200900,
AFNE01.JPG,AFNE01.JPG,AFNE01.JPG,AFNE01.JPG,AFNE01.JPG,AFNE01.JPG,,,,,,,,,1,5,15,5,,,,,,,,,,,,,,,AFNE13.jpg,AFSA07.jpg,AFSA18.jpg,AFNE19.jpg,AFNE19.jpg,FN,3,num_4,16,num_4,0.983471620435,,,2017_Jul_18_1142,60.0082569895,FEMA4ImagesEEG,001,200900,
AFNE01.JPG,AFNE01.JPG,AFNE01.JPG,AFNE01.JPG,AFNE01.JPG,AFNE01.JPG,,,,,,,,,1,6,16,2,,,,,,,,,,,,,,,AFSA19.jpg,AFSA01.jpg,AFNE05.jpg,AFNE04.jpg,AFNE04.jpg,FN,3,num_4,16,num_4,0.650106213099,,,2017_Jul_18_1142,60.0082569895,FEMA4ImagesEEG,001,200900,
AFNE01.JPG,AFNE01.JPG,AFNE01.JPG,AFNE01.JPG,AFNE01.JPG,AFNE01.JPG,,,,,,,,,1,7,17,7,,,,,,,,,,,,,,,AFSA09.jpg,AFSA17.jpg,AFNE10.jpg,AFNE05.jpg,AFSA17.jpg,FS,4,num_6,16,num_6,0.483493591135,,,2017_Jul_18_1142,60.0082569895,FEMA4ImagesEEG,001,200900,
AFNE01.JPG,AFNE01.JPG,AFNE01.JPG,AFNE01.JPG,AFNE01.JPG,AFNE01.JPG,,,,,,,,,1,8,18,6,,,,,,,,,,,,,,,AFNE11.jpg,AFSA05.jpg,AFNE02.jpg,AFSA06.jpg,AFSA05.jpg,FS,4,num_6,16,num_6,0.916800014369,,,2017_Jul_18_1142,60.0082569895,FEMA4ImagesEEG,001,200900,
AFNE01.JPG,AFNE01.JPG,AFNE01.JPG,AFNE01.JPG,AFNE01.JPG,AFNE01.JPG,,,,,,,,,1,9,19,8,,,,,,,,,,,,,,,AFNE01.jpg,AFNE04.jpg,AFSA04.jpg,AFSA05.jpg,AFNE04.jpg,FN,3,num_6,32,num_2,1.78339874829,,,2017_Jul_18_1142,60.0082569895,FEMA4ImagesEEG,001,200900,
AFNE01.JPG,AFNE01.JPG,AFNE01.JPG,AFNE01.JPG,AFNE01.JPG,AFNE01.JPG,,,,,,,,,2,0,20,8,,,,,,,,,,,,,,,AFNE02.jpg,AFSA06.jpg,AFSA18.jpg,AFNE14.jpg,AFNE02.jpg,FN,3,num_8,16,num_8,1.31674529611,,,2017_Jul_18_1142,60.0082569895,FEMA4ImagesEEG,001,200900,
AFNE01.JPG,AFNE01.JPG,AFNE01.JPG,AFNE01.JPG,AFNE01.JPG,AFNE01.JPG,,,,,,,,,2,1,21,1,,,,,,,,,,,,,,,AFNE10.jpg,AFNE03.jpg,AFSA11.jpg,AFSA17.jpg,AFSA17.jpg,FS,4,num_4,16,num_4,1.16669825958,,,2017_Jul_18_1142,60.0082569895,FEMA4ImagesEEG,001,200900,
AFNE01.JPG,AFNE01.JPG,AFNE01.JPG,AFNE01.JPG,AFNE01.JPG,AFNE01.JPG,,,,,,,,,2,2,22,2,,,,,,,,,,,,,,,AFSA13.jpg,AFSA12.jpg,AFNE15.jpg,AFNE13.jpg,AFNE15.jpg,FN,3,num_2,16,num_2,0.566818344669,,,2017_Jul_18_1142,60.0082569895,FEMA4ImagesEEG,001,200900,
AFNE01.JPG,AFNE01.JPG,AFNE01.JPG,AFNE01.JPG,AFNE01.JPG,AFNE01.JPG,,,,,,,,,2,3,23,7,,,,,,,,,,,,,,,AFNE18.jpg,AFSA12.jpg,AFNE12.jpg,AFSA10.jpg,AFSA10.jpg,FS,4,num_4,16,num_4,1.01671954067,,,2017_Jul_18_1142,60.0082569895,FEMA4ImagesEEG,001,200900,
AFNE01.JPG,AFNE01.JPG,AFNE01.JPG,AFNE01.JPG,AFNE01.JPG,AFNE01.JPG,,,,,,,,,2,4,24,0,,,,,,,,,,,,,,,AFSA20.jpg,AFNE10.jpg,AFNE02.jpg,AFSA12.jpg,AFNE10.jpg,FN,3,num_6,32,num_8,0.850126163117,,,2017_Jul_18_1142,60.0082569895,FEMA4ImagesEEG,001,200900,
AFNE01.JPG,AFNE01.JPG,AFNE01.JPG,AFNE01.JPG,AFNE01.JPG,AFNE01.JPG,,,,,,,,,2,5,25,4,,,,,,,,,,,,,,,AFNE15.jpg,AFNE01.jpg,AFSA19.jpg,AFSA13.jpg,AFNE01.jpg,FN,3,num_6,16,num_6,0.683532144089,,,2017_Jul_18_1142,60.0082569895,FEMA4ImagesEEG,001,200900,
AFNE01.JPG,AFNE01.JPG,AFNE01.JPG,AFNE01.JPG,AFNE01.JPG,AFNE01.JPG,,,,,,,,,2,6,26,9,,,,,,,,,,,,,,,AFNE05.jpg,AFSA16.jpg,AFSA07.jpg,AFNE07.jpg,AFSA07.jpg,FS,4,num_2,16,num_2,0.583441984054,,,2017_Jul_18_1142,60.0082569895,FEMA4ImagesEEG,001,200900,
AFNE01.JPG,AFNE01.JPG,AFNE01.JPG,AFNE01.JPG,AFNE01.JPG,AFNE01.JPG,,,,,,,,,2,7,27,5,,,,,,,,,,,,,,,AFNE16.jpg,AFNE20.jpg,AFSA06.jpg,AFSA05.jpg,AFNE16.jpg,FN,3,num_8,16,num_8,0.70023211962,,,2017_Jul_18_1142,60.0082569895,FEMA4ImagesEEG,001,200900,
AFNE01.JPG,AFNE01.JPG,AFNE01.JPG,AFNE01.JPG,AFNE01.JPG,AFNE01.JPG,,,,,,,,,2,8,28,6,,,,,,,,,,,,,,,AFSA07.jpg,AFNE05.jpg,AFNE08.jpg,AFSA05.jpg,AFNE05.jpg,FN,3,num_6,32,num_2,1.15019553922,,,2017_Jul_18_1142,60.0082569895,FEMA4ImagesEEG,001,200900,
AFNE01.JPG,AFNE01.JPG,AFNE01.JPG,AFNE01.JPG,AFNE01.JPG,AFNE01.JPG,,,,,,,,,2,9,29,3,,,,,,,,,,,,,,,AFNE20.jpg,AFNE03.jpg,AFSA01.jpg,AFSA14.jpg,AFNE03.jpg,FN,3,num_6,16,num_6,0.700121464281,,,2017_Jul_18_1142,60.0082569895,FEMA4ImagesEEG,001,200900,
AFNE01.JPG,AFNE01.JPG,AFNE01.JPG,AFNE01.JPG,AFNE01.JPG,AFNE01.JPG,,,,,,,,,3,0,30,8,,,,,,,,,,,,,,,AFSA07.jpg,AFNE18.jpg,AFNE10.jpg,AFSA17.jpg,AFNE18.jpg,FN,3,num_6,32,num_8,1.38345186284,,,2017_Jul_18_1142,60.0082569895,FEMA4ImagesEEG,001,200900,
AFNE01.JPG,AFNE01.JPG,AFNE01.JPG,AFNE01.JPG,AFNE01.JPG,AFNE01.JPG,,,,,,,,,3,1,31,9,,,,,,,,,,,,,,,AFNE18.jpg,AFSA04.jpg,AFSA18.jpg,AFNE14.jpg,AFNE18.jpg,FN,3,num_8,32,num_4,1.56674970628,,,2017_Jul_18_1142,60.0082569895,FEMA4ImagesEEG,001,200900,
AFNE01.JPG,AFNE01.JPG,AFNE01.JPG,AFNE01.JPG,AFNE01.JPG,AFNE01.JPG,,,,,,,,,3,2,32,6,,,,,,,,,,,,,,,AFSA04.jpg,AFNE11.jpg,AFSA18.jpg,AFNE18.jpg,AFSA18.jpg,FS,4,num_2,16,num_2,0.750126772531,,,2017_Jul_18_1142,60.0082569895,FEMA4ImagesEEG,001,200900,
AFNE01.JPG,AFNE01.JPG,AFNE01.JPG,AFNE01.JPG,AFNE01.JPG,AFNE01.JPG,,,,,,,,,3,3,33,2,,,,,,,,,,,,,,,AFNE01.jpg,AFNE06.jpg,AFSA04.jpg,AFSA20.jpg,AFNE06.jpg,FN,3,num_6,32,num_8,1.3168052745,,,2017_Jul_18_1142,60.0082569895,FEMA4ImagesEEG,001,200900,
AFNE01.JPG,AFNE01.JPG,AFNE01.JPG,AFNE01.JPG,AFNE01.JPG,AFNE01.JPG,,,,,,,,,3,4,34,0,,,,,,,,,,,,,,,AFNE14.jpg,AFSA04.jpg,AFSA19.jpg,AFNE05.jpg,AFSA19.jpg,FS,4,num_2,16,num_2,0.633499252188,,,2017_Jul_18_1142,60.0082569895,FEMA4ImagesEEG,001,200900,
AFNE01.JPG,AFNE01.JPG,AFNE01.JPG,AFNE01.JPG,AFNE01.JPG,AFNE01.JPG,,,,,,,,,3,5,35,5,,,,,,,,,,,,,,,AFNE20.jpg,AFNE09.jpg,AFSA17.jpg,AFSA02.jpg,AFNE09.jpg,FN,3,num_6,32,num_8,1.08344535182,,,2017_Jul_18_1142,60.0082569895,FEMA4ImagesEEG,001,200900,
AFNE01.JPG,AFNE01.JPG,AFNE01.JPG,AFNE01.JPG,AFNE01.JPG,AFNE01.JPG,,,,,,,,,3,6,36,7,,,,,,,,,,,,,,,AFSA09.jpg,AFSA17.jpg,AFNE08.jpg,AFNE17.jpg,AFNE08.jpg,FN,3,num_2,32,num_8,0.933446426294,,,2017_Jul_18_1142,60.0082569895,FEMA4ImagesEEG,001,200900,
AFNE01.JPG,AFNE01.JPG,AFNE01.JPG,AFNE01.JPG,AFNE01.JPG,AFNE01.JPG,,,,,,,,,3,7,37,1,,,,,,,,,,,,,,,AFSA08.jpg,AFNE05.jpg,AFNE11.jpg,AFSA19.jpg,AFSA19.jpg,FS,4,num_4,32,num_8,1.20005202405,,,2017_Jul_18_1142,60.0082569895,FEMA4ImagesEEG,001,200900,
AFNE01.JPG,AFNE01.JPG,AFNE01.JPG,AFNE01.JPG,AFNE01.JPG,AFNE01.JPG,,,,,,,,,3,8,38,3,,,,,,,,,,,,,,,AFSA12.jpg,AFNE11.jpg,AFNE09.jpg,AFSA05.jpg,AFNE09.jpg,FN,3,num_2,32,num_6,0.883451702466,,,2017_Jul_18_1142,60.0082569895,FEMA4ImagesEEG,001,200900,
AFNE01.JPG,AFNE01.JPG,AFNE01.JPG,AFNE01.JPG,AFNE01.JPG,AFNE01.JPG,,,,,,,,,3,9,39,4,,,,,,,,,,,,,,,AFSA16.jpg,AFNE20.jpg,AFNE01.jpg,AFSA18.jpg,AFNE20.jpg,FN,3,num_6,32,num_2,1.3000591124,,,2017_Jul_18_1142,60.0082569895,FEMA4ImagesEEG,001,200900,
AFNE01.JPG,AFNE01.JPG,AFNE01.JPG,AFNE01.JPG,AFNE01.JPG,AFNE01.JPG,,,,,,,,,4,0,40,2,,,,,,,,,,,,,,,AFNE10.jpg,AFSA14.jpg,AFSA19.jpg,AFNE20.jpg,AFSA14.jpg,FS,4,num_6,16,num_6,0.883509756444,,,2017_Jul_18_1142,60.0082569895,FEMA4ImagesEEG,001,200900,
AFNE01.JPG,AFNE01.JPG,AFNE01.JPG,AFNE01.JPG,AFNE01.JPG,AFNE01.JPG,,,,,,,,,4,1,41,4,,,,,,,,,,,,,,,AFNE02.jpg,AFSA04.jpg,AFSA01.jpg,AFNE11.jpg,AFNE11.jpg,FN,3,num_4,32,num_6,0.916852936483,,,2017_Jul_18_1142,60.0082569895,FEMA4ImagesEEG,001,200900,
AFNE01.JPG,AFNE01.JPG,AFNE01.JPG,AFNE01.JPG,AFNE01.JPG,AFNE01.JPG,,,,,,,,,4,2,42,0,,,,,,,,,,,,,,,AFNE02.jpg,AFNE01.jpg,AFSA10.jpg,AFSA12.jpg,AFNE01.jpg,FN,3,num_6,16,num_6,1.28338383387,,,2017_Jul_18_1142,60.0082569895,FEMA4ImagesEEG,001,200900,
AFNE01.JPG,AFNE01.JPG,AFNE01.JPG,AFNE01.JPG,AFNE01.JPG,AFNE01.JPG,,,,,,,,,4,3,43,3,,,,,,,,,,,,,,,AFSA16.jpg,AFNE17.jpg,AFSA01.jpg,AFNE13.jpg,AFSA16.jpg,FS,4,num_8,32,num_2,1.81669413806,,,2017_Jul_18_1142,60.0082569895,FEMA4ImagesEEG,001,200900,
AFNE01.JPG,AFNE01.JPG,AFNE01.JPG,AFNE01.JPG,AFNE01.JPG,AFNE01.JPG,,,,,,,,,4,4,44,5,,,,,,,,,,,,,,,AFSA03.jpg,AFSA10.jpg,AFNE04.jpg,AFNE01.jpg,AFNE04.jpg,FN,3,num_2,32,num_6,0.816801906738,,,2017_Jul_18_1142,60.0082569895,FEMA4ImagesEEG,001,200900,
AFNE01.JPG,AFNE01.JPG,AFNE01.JPG,AFNE01.JPG,AFNE01.JPG,AFNE01.JPG,,,,,,,,,4,5,45,9,,,,,,,,,,,,,,,AFNE05.jpg,AFNE13.jpg,AFSA12.jpg,AFSA11.jpg,AFSA12.jpg,FS,4,num_2,16,num_2,0.600148695128,,,2017_Jul_18_1142,60.0082569895,FEMA4ImagesEEG,001,200900,
AFNE01.JPG,AFNE01.JPG,AFNE01.JPG,AFNE01.JPG,AFNE01.JPG,AFNE01.JPG,,,,,,,,,4,6,46,7,,,,,,,,,,,,,,,AFSA10.jpg,AFNE16.jpg,AFSA19.jpg,AFNE11.jpg,AFSA19.jpg,FS,4,num_2,16,num_2,0.450166127339,,,2017_Jul_18_1142,60.0082569895,FEMA4ImagesEEG,001,200900,
AFNE01.JPG,AFNE01.JPG,AFNE01.JPG,AFNE01.JPG,AFNE01.JPG,AFNE01.JPG,,,,,,,,,4,7,47,1,,,,,,,,,,,,,,,AFSA10.jpg,AFNE13.jpg,AFSA04.jpg,AFNE16.jpg,AFNE16.jpg,FN,3,num_4,16,num_4,0.950136779618,,,2017_Jul_18_1142,60.0082569895,FEMA4ImagesEEG,001,200900,
AFNE01.JPG,AFNE01.JPG,AFNE01.JPG,AFNE01.JPG,AFNE01.JPG,AFNE01.JPG,,,,,,,,,4,8,48,8,,,,,,,,,,,,,,,AFSA04.jpg,AFNE18.jpg,AFNE05.jpg,AFSA06.jpg,AFSA06.jpg,FS,4,num_4,16,num_4,0.716829137571,,,2017_Jul_18_1142,60.0082569895,FEMA4ImagesEEG,001,200900,
AFNE01.JPG,AFNE01.JPG,AFNE01.JPG,AFNE01.JPG,AFNE01.JPG,AFNE01.JPG,,,,,,,,,4,9,49,6,,,,,,,,,,,,,,,AFNE19.jpg,AFNE04.jpg,AFSA02.jpg,AFSA15.jpg,AFNE04.jpg,FN,3,num_6,32,num_4,1.25010448109,,,2017_Jul_18_1142,60.0082569895,FEMA4ImagesEEG,001,200900,
AFNE01.JPG,AFNE01.JPG,AFNE01.JPG,AFNE01.JPG,AFNE01.JPG,AFNE01.JPG,,,,,,,,,5,0,50,2,,,,,,,,,,,,,,,AFSA16.jpg,AFNE07.jpg,AFNE09.jpg,AFSA08.jpg,AFSA08.jpg,FS,4,num_4,16,num_4,1.91670603752,,,2017_Jul_18_1142,60.0082569895,FEMA4ImagesEEG,001,200900,
AFNE01.JPG,AFNE01.JPG,AFNE01.JPG,AFNE01.JPG,AFNE01.JPG,AFNE01.JPG,,,,,,,,,5,1,51,3,,,,,,,,,,,,,,,AFNE20.jpg,AFSA15.jpg,AFSA19.jpg,AFNE02.jpg,AFSA19.jpg,FS,4,num_2,16,num_2,0.766856256145,,,2017_Jul_18_1142,60.0082569895,FEMA4ImagesEEG,001,200900,
AFNE01.JPG,AFNE01.JPG,AFNE01.JPG,AFNE01.JPG,AFNE01.JPG,AFNE01.JPG,,,,,,,,,5,2,52,0,,,,,,,,,,,,,,,AFNE18.jpg,AFSA01.jpg,AFSA13.jpg,AFNE19.jpg,AFNE18.jpg,FN,3,num_8,32,num_4,1.03345319392,,,2017_Jul_18_1142,60.0082569895,FEMA4ImagesEEG,001,200900,
AFNE01.JPG,AFNE01.JPG,AFNE01.JPG,AFNE01.JPG,AFNE01.JPG,AFNE01.JPG,,,,,,,,,5,3,53,7,,,,,,,,,,,,,,,AFNE18.jpg,AFSA01.jpg,AFNE01.jpg,AFSA20.jpg,AFSA01.jpg,FS,4,num_6,16,num_6,0.800142023727,,,2017_Jul_18_1142,60.0082569895,FEMA4ImagesEEG,001,200900,
AFNE01.JPG,AFNE01.JPG,AFNE01.JPG,AFNE01.JPG,AFNE01.JPG,AFNE01.JPG,,,,,,,,,5,4,54,8,,,,,,,,,,,,,,,AFSA08.jpg,AFNE06.jpg,AFSA13.jpg,AFNE19.jpg,AFNE06.jpg,FN,3,num_6,32,num_4,0.966658744379,,,2017_Jul_18_1142,60.0082569895,FEMA4ImagesEEG,001,200900,
AFNE01.JPG,AFNE01.JPG,AFNE01.JPG,AFNE01.JPG,AFNE01.JPG,AFNE01.JPG,,,,,,,,,5,5,55,1,,,,,,,,,,,,,,,AFNE01.jpg,AFSA11.jpg,AFNE15.jpg,AFSA06.jpg,AFNE01.jpg,FN,3,num_8,32,num_4,1.0500992851,,,2017_Jul_18_1142,60.0082569895,FEMA4ImagesEEG,001,200900,
AFNE01.JPG,AFNE01.JPG,AFNE01.JPG,AFNE01.JPG,AFNE01.JPG,AFNE01.JPG,,,,,,,,,5,6,56,5,,,,,,,,,,,,,,,AFSA18.jpg,AFNE15.jpg,AFSA04.jpg,AFNE16.jpg,AFNE16.jpg,FN,3,num_4,16,num_4,1.06677071477,,,2017_Jul_18_1142,60.0082569895,FEMA4ImagesEEG,001,200900,
AFNE01.JPG,AFNE01.JPG,AFNE01.JPG,AFNE01.JPG,AFNE01.JPG,AFNE01.JPG,,,,,,,,,5,7,57,9,,,,,,,,,,,,,,,AFSA19.jpg,AFNE19.jpg,AFNE12.jpg,AFSA18.jpg,AFSA18.jpg,FS,4,num_4,32,num_8,0.933444181122,,,2017_Jul_18_1142,60.0082569895,FEMA4ImagesEEG,001,200900,
AFNE01.JPG,AFNE01.JPG,AFNE01.JPG,AFNE01.JPG,AFNE01.JPG,AFNE01.JPG,,,,,,,,,5,8,58,6,,,,,,,,,,,,,,,AFSA12.jpg,AFNE19.jpg,AFNE02.jpg,AFSA05.jpg,AFSA05.jpg,FS,4,num_4,16,num_4,0.833463714196,,,2017_Jul_18_1142,60.0082569895,FEMA4ImagesEEG,001,200900,
AFNE01.JPG,AFNE01.JPG,AFNE01.JPG,AFNE01.JPG,AFNE01.JPG,AFNE01.JPG,,,,,,,,,5,9,59,4,,,,,,,,,,,,,,,AFSA15.jpg,AFNE02.jpg,AFSA09.jpg,AFNE07.jpg,AFSA15.jpg,FS,4,num_8,16,num_8,0.933455086284,,,2017_Jul_18_1142,60.0082569895,FEMA4ImagesEEG,001,200900,
,,,,,,,,,,,,,,,,,,,,,,,,,,,,,,,,,,,,,,,,,,,space,23.6817058499,2017_Jul_18_1142,60.0082569895,FEMA4ImagesEEG,001,200900,
AFNE01.JPG,AFNE01.JPG,AFNE01.JPG,AFNE01.JPG,AFNE01.JPG,AFNE01.JPG,,,,,,,,,,,,,0,0,0,7,,,,,,,,,,,AMSA06.jpg,AMSA08.jpg,AMNE13.jpg,AMNE05.jpg,AMSA08.jpg,MS,2,num_6,32,num_4,1.16671076843,,,2017_Jul_18_1142,60.0082569895,FEMA4ImagesEEG,001,200900,
AFNE01.JPG,AFNE01.JPG,AFNE01.JPG,AFNE01.JPG,AFNE01.JPG,AFNE01.JPG,,,,,,,,,,,,,0,1,1,2,,,,,,,,,,,AMNE02.jpg,AMSA08.jpg,AMSA05.jpg,AMNE20.jpg,AMSA08.jpg,MS,2,num_6,16,num_6,0.600151581792,,,2017_Jul_18_1142,60.0082569895,FEMA4ImagesEEG,001,200900,
AFNE01.JPG,AFNE01.JPG,AFNE01.JPG,AFNE01.JPG,AFNE01.JPG,AFNE01.JPG,,,,,,,,,,,,,0,2,2,1,,,,,,,,,,,AMSA08.jpg,AMNE17.jpg,AMNE12.jpg,AMSA17.jpg,AMNE17.jpg,MN,1,num_6,16,num_6,0.616801842596,,,2017_Jul_18_1142,60.0082569895,FEMA4ImagesEEG,001,200900,
AFNE01.JPG,AFNE01.JPG,AFNE01.JPG,AFNE01.JPG,AFNE01.JPG,AFNE01.JPG,,,,,,,,,,,,,0,3,3,4,,,,,,,,,,,AMSA19.jpg,AMNE16.jpg,AMNE10.jpg,AMSA08.jpg,AMSA08.jpg,MS,2,num_4,32,num_6,0.950136779618,,,2017_Jul_18_1142,60.0082569895,FEMA4ImagesEEG,001,200900,
AFNE01.JPG,AFNE01.JPG,AFNE01.JPG,AFNE01.JPG,AFNE01.JPG,AFNE01.JPG,,,,,,,,,,,,,0,4,4,3,,,,,,,,,,,AMNE03.jpg,AMNE10.jpg,AMSA17.jpg,AMSA07.jpg,AMNE10.jpg,MN,1,num_6,16,num_6,1.01672114438,,,2017_Jul_18_1142,60.0082569895,FEMA4ImagesEEG,001,200900,
AFNE01.JPG,AFNE01.JPG,AFNE01.JPG,AFNE01.JPG,AFNE01.JPG,AFNE01.JPG,,,,,,,,,,,,,0,5,5,5,,,,,,,,,,,AMSA17.jpg,AMNE11.jpg,AMSA18.jpg,AMNE02.jpg,AMSA18.jpg,MS,2,num_2,16,num_2,0.58350067948,,,2017_Jul_18_1142,60.0082569895,FEMA4ImagesEEG,001,200900,
AFNE01.JPG,AFNE01.JPG,AFNE01.JPG,AFNE01.JPG,AFNE01.JPG,AFNE01.JPG,,,,,,,,,,,,,0,6,6,9,,,,,,,,,,,AMSA17.jpg,AMSA07.jpg,AMNE01.jpg,AMNE14.jpg,AMSA07.jpg,MS,2,num_6,32,num_2,1.41676104444,,,2017_Jul_18_1142,60.0082569895,FEMA4ImagesEEG,001,200900,
AFNE01.JPG,AFNE01.JPG,AFNE01.JPG,AFNE01.JPG,AFNE01.JPG,AFNE01.JPG,,,,,,,,,,,,,0,7,7,6,,,,,,,,,,,AMSA16.jpg,AMNE14.jpg,AMNE12.jpg,AMSA06.jpg,AMSA06.jpg,MS,2,num_4,32,num_8,0.78348374441,,,2017_Jul_18_1142,60.0082569895,FEMA4ImagesEEG,001,200900,
AFNE01.JPG,AFNE01.JPG,AFNE01.JPG,AFNE01.JPG,AFNE01.JPG,AFNE01.JPG,,,,,,,,,,,,,0,8,8,0,,,,,,,,,,,AMNE02.jpg,AMSA08.jpg,AMNE17.jpg,AMSA12.jpg,AMNE17.jpg,MN,1,num_2,16,num_2,0.600119828508,,,2017_Jul_18_1142,60.0082569895,FEMA4ImagesEEG,001,200900,
AFNE01.JPG,AFNE01.JPG,AFNE01.JPG,AFNE01.JPG,AFNE01.JPG,AFNE01.JPG,,,,,,,,,,,,,0,9,9,8,,,,,,,,,,,AMNE07.jpg,AMSA13.jpg,AMNE17.jpg,AMSA02.jpg,AMSA02.jpg,MS,2,num_4,16,num_4,1.01678817905,,,2017_Jul_18_1142,60.0082569895,FEMA4ImagesEEG,001,200900,
AFNE01.JPG,AFNE01.JPG,AFNE01.JPG,AFNE01.JPG,AFNE01.JPG,AFNE01.JPG,,,,,,,,,,,,,1,0,10,7,,,,,,,,,,,AMSA06.jpg,AMSA10.jpg,AMNE18.jpg,AMNE11.jpg,AMSA10.jpg,MS,2,num_6,32,num_2,1.16701643376,,,2017_Jul_18_1142,60.0082569895,FEMA4ImagesEEG,001,200900,
AFNE01.JPG,AFNE01.JPG,AFNE01.JPG,AFNE01.JPG,AFNE01.JPG,AFNE01.JPG,,,,,,,,,,,,,1,1,11,8,,,,,,,,,,,AMNE14.jpg,AMSA13.jpg,AMNE12.jpg,AMSA09.jpg,AMSA13.jpg,MS,2,num_6,16,num_6,1.18341972468,,,2017_Jul_18_1142,60.0082569895,FEMA4ImagesEEG,001,200900,
AFNE01.JPG,AFNE01.JPG,AFNE01.JPG,AFNE01.JPG,AFNE01.JPG,AFNE01.JPG,,,,,,,,,,,,,1,2,12,3,,,,,,,,,,,AMNE02.jpg,AMSA19.jpg,AMSA12.jpg,AMNE07.jpg,AMSA12.jpg,MS,2,num_2,16,num_2,0.733469455445,,,2017_Jul_18_1142,60.0082569895,FEMA4ImagesEEG,001,200900,
AFNE01.JPG,AFNE01.JPG,AFNE01.JPG,AFNE01.JPG,AFNE01.JPG,AFNE01.JPG,,,,,,,,,,,,,1,3,13,5,,,,,,,,,,,AMSA20.jpg,AMNE01.jpg,AMNE17.jpg,AMSA09.jpg,AMSA09.jpg,MS,2,num_4,16,num_4,1.80005734833,,,2017_Jul_18_1142,60.0082569895,FEMA4ImagesEEG,001,200900,
AFNE01.JPG,AFNE01.JPG,AFNE01.JPG,AFNE01.JPG,AFNE01.JPG,AFNE01.JPG,,,,,,,,,,,,,1,4,14,9,,,,,,,,,,,AMNE07.jpg,AMSA10.jpg,AMNE17.jpg,AMSA19.jpg,AMSA19.jpg,MS,2,num_4,16,num_4,0.703927045732,,,2017_Jul_18_1142,60.0082569895,FEMA4ImagesEEG,001,200900,
AFNE01.JPG,AFNE01.JPG,AFNE01.JPG,AFNE01.JPG,AFNE01.JPG,AFNE01.JPG,,,,,,,,,,,,,1,5,15,1,,,,,,,,,,,AMNE18.jpg,AMNE20.jpg,AMSA05.jpg,AMSA11.jpg,AMNE20.jpg,MN,1,num_6,16,num_6,0.750010023126,,,2017_Jul_18_1142,60.0082569895,FEMA4ImagesEEG,001,200900,
AFNE01.JPG,AFNE01.JPG,AFNE01.JPG,AFNE01.JPG,AFNE01.JPG,AFNE01.JPG,,,,,,,,,,,,,1,6,16,4,,,,,,,,,,,AMSA10.jpg,AMSA12.jpg,AMNE09.jpg,AMNE04.jpg,AMNE09.jpg,MN,1,num_2,16,num_2,0.516798923854,,,2017_Jul_18_1142,60.0082569895,FEMA4ImagesEEG,001,200900,
AFNE01.JPG,AFNE01.JPG,AFNE01.JPG,AFNE01.JPG,AFNE01.JPG,AFNE01.JPG,,,,,,,,,,,,,1,7,17,6,,,,,,,,,,,AMSA06.jpg,AMNE14.jpg,AMSA08.jpg,AMNE13.jpg,AMNE13.jpg,MN,1,num_4,16,num_4,1.18347809938,,,2017_Jul_18_1142,60.0082569895,FEMA4ImagesEEG,001,200900,
AFNE01.JPG,AFNE01.JPG,AFNE01.JPG,AFNE01.JPG,AFNE01.JPG,AFNE01.JPG,,,,,,,,,,,,,1,8,18,2,,,,,,,,,,,AMNE15.jpg,AMSA13.jpg,AMSA08.jpg,AMNE18.jpg,AMSA08.jpg,MS,2,num_2,16,num_2,0.950123950024,,,2017_Jul_18_1142,60.0082569895,FEMA4ImagesEEG,001,200900,
AFNE01.JPG,AFNE01.JPG,AFNE01.JPG,AFNE01.JPG,AFNE01.JPG,AFNE01.JPG,,,,,,,,,,,,,1,9,19,0,,,,,,,,,,,AMSA09.jpg,AMSA19.jpg,AMNE10.jpg,AMNE13.jpg,AMNE13.jpg,MN,1,num_4,16,num_4,0.600125922574,,,2017_Jul_18_1142,60.0082569895,FEMA4ImagesEEG,001,200900,
AFNE01.JPG,AFNE01.JPG,AFNE01.JPG,AFNE01.JPG,AFNE01.JPG,AFNE01.JPG,,,,,,,,,,,,,2,0,20,4,,,,,,,,,,,AMNE12.jpg,AMSA15.jpg,AMSA08.jpg,AMNE05.jpg,AMNE05.jpg,MN,1,num_4,32,num_8,1.16673322025,,,2017_Jul_18_1142,60.0082569895,FEMA4ImagesEEG,001,200900,
AFNE01.JPG,AFNE01.JPG,AFNE01.JPG,AFNE01.JPG,AFNE01.JPG,AFNE01.JPG,,,,,,,,,,,,,2,1,21,1,,,,,,,,,,,AMSA19.jpg,AMNE15.jpg,AMSA12.jpg,AMNE19.jpg,AMNE15.jpg,MN,1,num_6,32,num_2,0.849998508551,,,2017_Jul_18_1142,60.0082569895,FEMA4ImagesEEG,001,200900,
AFNE01.JPG,AFNE01.JPG,AFNE01.JPG,AFNE01.JPG,AFNE01.JPG,AFNE01.JPG,,,,,,,,,,,,,2,2,22,3,,,,,,,,,,,AMNE08.jpg,AMSA19.jpg,AMSA04.jpg,AMNE17.jpg,AMNE17.jpg,MN,1,num_4,16,num_4,1.5834663603,,,2017_Jul_18_1142,60.0082569895,FEMA4ImagesEEG,001,200900,
AFNE01.JPG,AFNE01.JPG,AFNE01.JPG,AFNE01.JPG,AFNE01.JPG,AFNE01.JPG,,,,,,,,,,,,,2,3,23,5,,,,,,,,,,,AMSA09.jpg,AMSA07.jpg,AMNE09.jpg,AMNE11.jpg,AMSA09.jpg,MS,2,num_8,16,num_8,0.633445047104,,,2017_Jul_18_1142,60.0082569895,FEMA4ImagesEEG,001,200900,
AFNE01.JPG,AFNE01.JPG,AFNE01.JPG,AFNE01.JPG,AFNE01.JPG,AFNE01.JPG,,,,,,,,,,,,,2,4,24,7,,,,,,,,,,,AMNE08.jpg,AMNE04.jpg,AMSA20.jpg,AMSA11.jpg,AMNE04.jpg,MN,1,num_6,32,num_8,1.01680485754,,,2017_Jul_18_1142,60.0082569895,FEMA4ImagesEEG,001,200900,
AFNE01.JPG,AFNE01.JPG,AFNE01.JPG,AFNE01.JPG,AFNE01.JPG,AFNE01.JPG,,,,,,,,,,,,,2,5,25,0,,,,,,,,,,,AMSA03.jpg,AMNE20.jpg,AMSA09.jpg,AMNE12.jpg,AMSA03.jpg,MS,2,num_8,16,num_8,0.666777642749,,,2017_Jul_18_1142,60.0082569895,FEMA4ImagesEEG,001,200900,
AFNE01.JPG,AFNE01.JPG,AFNE01.JPG,AFNE01.JPG,AFNE01.JPG,AFNE01.JPG,,,,,,,,,,,,,2,6,26,9,,,,,,,,,,,AMNE16.jpg,AMSA17.jpg,AMSA01.jpg,AMNE17.jpg,AMSA01.jpg,MS,2,num_2,16,num_2,0.800123100067,,,2017_Jul_18_1142,60.0082569895,FEMA4ImagesEEG,001,200900,
AFNE01.JPG,AFNE01.JPG,AFNE01.JPG,AFNE01.JPG,AFNE01.JPG,AFNE01.JPG,,,,,,,,,,,,,2,7,27,8,,,,,,,,,,,AMNE02.jpg,AMNE19.jpg,AMSA13.jpg,AMSA15.jpg,AMSA13.jpg,MS,2,num_2,16,num_2,0.550297342124,,,2017_Jul_18_1142,60.0082569895,FEMA4ImagesEEG,001,200900,
AFNE01.JPG,AFNE01.JPG,AFNE01.JPG,AFNE01.JPG,AFNE01.JPG,AFNE01.JPG,,,,,,,,,,,,,2,8,28,2,,,,,,,,,,,AMNE16.jpg,AMNE03.jpg,AMSA12.jpg,AMSA18.jpg,AMNE16.jpg,MN,1,num_8,16,num_8,0.800149721486,,,2017_Jul_18_1142,60.0082569895,FEMA4ImagesEEG,001,200900,
AFNE01.JPG,AFNE01.JPG,AFNE01.JPG,AFNE01.JPG,AFNE01.JPG,AFNE01.JPG,,,,,,,,,,,,,2,9,29,6,,,,,,,,,,,AMNE03.jpg,AMSA07.jpg,AMNE01.jpg,AMSA17.jpg,AMNE01.jpg,MN,1,num_2,16,num_2,0.433535752411,,,2017_Jul_18_1142,60.0082569895,FEMA4ImagesEEG,001,200900,
AFNE01.JPG,AFNE01.JPG,AFNE01.JPG,AFNE01.JPG,AFNE01.JPG,AFNE01.JPG,,,,,,,,,,,,,3,0,30,7,,,,,,,,,,,AMSA10.jpg,AMNE09.jpg,AMSA17.jpg,AMNE18.jpg,AMSA17.jpg,MS,2,num_2,16,num_2,0.716822402028,,,2017_Jul_18_1142,60.0082569895,FEMA4ImagesEEG,001,200900,
AFNE01.JPG,AFNE01.JPG,AFNE01.JPG,AFNE01.JPG,AFNE01.JPG,AFNE01.JPG,,,,,,,,,,,,,3,1,31,2,,,,,,,,,,,AMSA18.jpg,AMSA05.jpg,AMNE04.jpg,AMNE14.jpg,AMSA18.jpg,MS,2,num_8,16,num_8,0.483520854046,,,2017_Jul_18_1142,60.0082569895,FEMA4ImagesEEG,001,200900,
AFNE01.JPG,AFNE01.JPG,AFNE01.JPG,AFNE01.JPG,AFNE01.JPG,AFNE01.JPG,,,,,,,,,,,,,3,2,32,4,,,,,,,,,,,AMSA18.jpg,AMNE13.jpg,AMNE11.jpg,AMSA05.jpg,AMNE13.jpg,MN,1,num_6,16,num_6,0.466873800629,,,2017_Jul_18_1142,60.0082569895,FEMA4ImagesEEG,001,200900,
AFNE01.JPG,AFNE01.JPG,AFNE01.JPG,AFNE01.JPG,AFNE01.JPG,AFNE01.JPG,,,,,,,,,,,,,3,3,33,3,,,,,,,,,,,AMNE08.jpg,AMNE03.jpg,AMSA17.jpg,AMSA18.jpg,AMSA17.jpg,MS,2,num_2,16,num_2,0.63312366551,,,2017_Jul_18_1142,60.0082569895,FEMA4ImagesEEG,001,200900,
AFNE01.JPG,AFNE01.JPG,AFNE01.JPG,AFNE01.JPG,AFNE01.JPG,AFNE01.JPG,,,,,,,,,,,,,3,4,34,5,,,,,,,,,,,AMSA09.jpg,AMNE11.jpg,AMNE07.jpg,AMSA12.jpg,AMNE11.jpg,MN,1,num_6,16,num_6,1.16672872989,,,2017_Jul_18_1142,60.0082569895,FEMA4ImagesEEG,001,200900,
AFNE01.JPG,AFNE01.JPG,AFNE01.JPG,AFNE01.JPG,AFNE01.JPG,AFNE01.JPG,,,,,,,,,,,,,3,5,35,8,,,,,,,,,,,AMSA18.jpg,AMNE03.jpg,AMNE04.jpg,AMSA01.jpg,AMSA18.jpg,MS,2,num_8,16,num_8,0.716783271724,,,2017_Jul_18_1142,60.0082569895,FEMA4ImagesEEG,001,200900,
AFNE01.JPG,AFNE01.JPG,AFNE01.JPG,AFNE01.JPG,AFNE01.JPG,AFNE01.JPG,,,,,,,,,,,,,3,6,36,0,,,,,,,,,,,AMNE19.jpg,AMSA10.jpg,AMNE17.jpg,AMSA17.jpg,AMSA10.jpg,MS,2,num_6,16,num_6,0.883545037854,,,2017_Jul_18_1142,60.0082569895,FEMA4ImagesEEG,001,200900,
AFNE01.JPG,AFNE01.JPG,AFNE01.JPG,AFNE01.JPG,AFNE01.JPG,AFNE01.JPG,,,,,,,,,,,,,3,7,37,9,,,,,,,,,,,AMNE08.jpg,AMSA16.jpg,AMNE11.jpg,AMSA19.jpg,AMNE08.jpg,MN,1,num_8,16,num_8,1.03334959486,,,2017_Jul_18_1142,60.0082569895,FEMA4ImagesEEG,001,200900,
AFNE01.JPG,AFNE01.JPG,AFNE01.JPG,AFNE01.JPG,AFNE01.JPG,AFNE01.JPG,,,,,,,,,,,,,3,8,38,1,,,,,,,,,,,AMSA13.jpg,AMNE06.jpg,AMSA01.jpg,AMNE02.jpg,AMSA01.jpg,MS,2,num_2,16,num_2,0.700164122711,,,2017_Jul_18_1142,60.0082569895,FEMA4ImagesEEG,001,200900,
AFNE01.JPG,AFNE01.JPG,AFNE01.JPG,AFNE01.JPG,AFNE01.JPG,AFNE01.JPG,,,,,,,,,,,,,3,9,39,6,,,,,,,,,,,AMNE13.jpg,AMSA11.jpg,AMNE06.jpg,AMSA01.jpg,AMSA11.jpg,MS,2,num_6,16,num_6,0.68352412559,,,2017_Jul_18_1142,60.0082569895,FEMA4ImagesEEG,001,200900,
AFNE01.JPG,AFNE01.JPG,AFNE01.JPG,AFNE01.JPG,AFNE01.JPG,AFNE01.JPG,,,,,,,,,,,,,4,0,40,4,,,,,,,,,,,AMNE07.jpg,AMSA19.jpg,AMNE12.jpg,AMSA07.jpg,AMSA07.jpg,MS,2,num_4,16,num_4,0.666795283454,,,2017_Jul_18_1142,60.0082569895,FEMA4ImagesEEG,001,200900,
AFNE01.JPG,AFNE01.JPG,AFNE01.JPG,AFNE01.JPG,AFNE01.JPG,AFNE01.JPG,,,,,,,,,,,,,4,1,41,8,,,,,,,,,,,AMSA01.jpg,AMNE12.jpg,AMNE07.jpg,AMSA12.jpg,AMSA12.jpg,MS,2,num_4,16,num_4,0.833162539217,,,2017_Jul_18_1142,60.0082569895,FEMA4ImagesEEG,001,200900,
AFNE01.JPG,AFNE01.JPG,AFNE01.JPG,AFNE01.JPG,AFNE01.JPG,AFNE01.JPG,,,,,,,,,,,,,4,2,42,5,,,,,,,,,,,AMNE04.jpg,AMSA12.jpg,AMSA14.jpg,AMNE03.jpg,AMNE03.jpg,MN,1,num_4,32,num_8,1.23344652251,,,2017_Jul_18_1142,60.0082569895,FEMA4ImagesEEG,001,200900,
AFNE01.JPG,AFNE01.JPG,AFNE01.JPG,AFNE01.JPG,AFNE01.JPG,AFNE01.JPG,,,,,,,,,,,,,4,3,43,2,,,,,,,,,,,AMNE07.jpg,AMSA01.jpg,AMNE04.jpg,AMSA04.jpg,AMNE04.jpg,MN,1,num_2,16,num_2,1.01684110118,,,2017_Jul_18_1142,60.0082569895,FEMA4ImagesEEG,001,200900,
AFNE01.JPG,AFNE01.JPG,AFNE01.JPG,AFNE01.JPG,AFNE01.JPG,AFNE01.JPG,,,,,,,,,,,,,4,4,44,3,,,,,,,,,,,AMNE16.jpg,AMSA14.jpg,AMSA07.jpg,AMNE15.jpg,AMSA07.jpg,MS,2,num_2,16,num_2,0.633515289199,,,2017_Jul_18_1142,60.0082569895,FEMA4ImagesEEG,001,200900,
AFNE01.JPG,AFNE01.JPG,AFNE01.JPG,AFNE01.JPG,AFNE01.JPG,AFNE01.JPG,,,,,,,,,,,,,4,5,45,7,,,,,,,,,,,AMSA16.jpg,AMNE18.jpg,AMNE11.jpg,AMSA02.jpg,AMNE18.jpg,MN,1,num_6,32,num_4,1.00014721972,,,2017_Jul_18_1142,60.0082569895,FEMA4ImagesEEG,001,200900,
AFNE01.JPG,AFNE01.JPG,AFNE01.JPG,AFNE01.JPG,AFNE01.JPG,AFNE01.JPG,,,,,,,,,,,,,4,6,46,1,,,,,,,,,,,AMSA15.jpg,AMNE15.jpg,AMNE16.jpg,AMSA20.jpg,AMNE16.jpg,MN,1,num_2,32,num_6,1.09997693879,,,2017_Jul_18_1142,60.0082569895,FEMA4ImagesEEG,001,200900,
AFNE01.JPG,AFNE01.JPG,AFNE01.JPG,AFNE01.JPG,AFNE01.JPG,AFNE01.JPG,,,,,,,,,,,,,4,7,47,9,,,,,,,,,,,AMSA19.jpg,AMNE17.jpg,AMSA08.jpg,AMNE09.jpg,AMSA19.jpg,MS,2,num_8,16,num_8,0.733447324368,,,2017_Jul_18_1142,60.0082569895,FEMA4ImagesEEG,001,200900,
AFNE01.JPG,AFNE01.JPG,AFNE01.JPG,AFNE01.JPG,AFNE01.JPG,AFNE01.JPG,,,,,,,,,,,,,4,8,48,0,,,,,,,,,,,AMSA15.jpg,AMSA03.jpg,AMNE17.jpg,AMNE08.jpg,AMNE08.jpg,MN,1,num_4,32,num_2,0.983423188678,,,2017_Jul_18_1142,60.0082569895,FEMA4ImagesEEG,001,200900,
AFNE01.JPG,AFNE01.JPG,AFNE01.JPG,AFNE01.JPG,AFNE01.JPG,AFNE01.JPG,,,,,,,,,,,,,4,9,49,6,,,,,,,,,,,AMSA04.jpg,AMNE06.jpg,AMNE09.jpg,AMSA15.jpg,AMNE09.jpg,MN,1,num_2,16,num_2,0.733541621972,,,2017_Jul_18_1142,60.0082569895,FEMA4ImagesEEG,001,200900,
AFNE01.JPG,AFNE01.JPG,AFNE01.JPG,AFNE01.JPG,AFNE01.JPG,AFNE01.JPG,,,,,,,,,,,,,5,0,50,7,,,,,,,,,,,AMNE16.jpg,AMSA20.jpg,AMNE18.jpg,AMSA12.jpg,AMNE16.jpg,MN,1,num_8,32,num_4,0.800147797039,,,2017_Jul_18_1142,60.0082569895,FEMA4ImagesEEG,001,200900,
AFNE01.JPG,AFNE01.JPG,AFNE01.JPG,AFNE01.JPG,AFNE01.JPG,AFNE01.JPG,,,,,,,,,,,,,5,1,51,8,,,,,,,,,,,AMNE17.jpg,AMSA15.jpg,AMSA16.jpg,AMNE03.jpg,AMNE17.jpg,MN,1,num_8,16,num_8,1.61676752339,,,2017_Jul_18_1142,60.0082569895,FEMA4ImagesEEG,001,200900,
AFNE01.JPG,AFNE01.JPG,AFNE01.JPG,AFNE01.JPG,AFNE01.JPG,AFNE01.JPG,,,,,,,,,,,,,5,2,52,5,,,,,,,,,,,AMNE03.jpg,AMNE11.jpg,AMSA17.jpg,AMSA11.jpg,AMSA11.jpg,MS,2,num_4,16,num_4,0.74982848423,,,2017_Jul_18_1142,60.0082569895,FEMA4ImagesEEG,001,200900,
AFNE01.JPG,AFNE01.JPG,AFNE01.JPG,AFNE01.JPG,AFNE01.JPG,AFNE01.JPG,,,,,,,,,,,,,5,3,53,9,,,,,,,,,,,AMSA06.jpg,AMSA10.jpg,AMNE06.jpg,AMNE03.jpg,AMNE03.jpg,MN,1,num_4,32,num_2,1.51663983676,,,2017_Jul_18_1142,60.0082569895,FEMA4ImagesEEG,001,200900,
AFNE01.JPG,AFNE01.JPG,AFNE01.JPG,AFNE01.JPG,AFNE01.JPG,AFNE01.JPG,,,,,,,,,,,,,5,4,54,2,,,,,,,,,,,AMNE07.jpg,AMSA03.jpg,AMSA15.jpg,AMNE05.jpg,AMNE05.jpg,MN,1,num_4,16,num_4,1.88337568706,,,2017_Jul_18_1142,60.0082569895,FEMA4ImagesEEG,001,200900,
AFNE01.JPG,AFNE01.JPG,AFNE01.JPG,AFNE01.JPG,AFNE01.JPG,AFNE01.JPG,,,,,,,,,,,,,5,5,55,1,,,,,,,,,,,AMNE09.jpg,AMSA03.jpg,AMNE05.jpg,AMSA19.jpg,AMNE09.jpg,MN,1,num_8,16,num_8,0.867114804758,,,2017_Jul_18_1142,60.0082569895,FEMA4ImagesEEG,001,200900,
AFNE01.JPG,AFNE01.JPG,AFNE01.JPG,AFNE01.JPG,AFNE01.JPG,AFNE01.JPG,,,,,,,,,,,,,5,6,56,3,,,,,,,,,,,AMSA13.jpg,AMNE04.jpg,AMNE07.jpg,AMSA12.jpg,AMNE07.jpg,MN,1,num_2,16,num_2,1.26674768561,,,2017_Jul_18_1142,60.0082569895,FEMA4ImagesEEG,001,200900,
AFNE01.JPG,AFNE01.JPG,AFNE01.JPG,AFNE01.JPG,AFNE01.JPG,AFNE01.JPG,,,,,,,,,,,,,5,7,57,0,,,,,,,,,,,AMNE13.jpg,AMSA07.jpg,AMNE07.jpg,AMSA04.jpg,AMNE07.jpg,MN,1,num_2,32,num_6,1.33346483677,,,2017_Jul_18_1142,60.0082569895,FEMA4ImagesEEG,001,200900,
AFNE01.JPG,AFNE01.JPG,AFNE01.JPG,AFNE01.JPG,AFNE01.JPG,AFNE01.JPG,,,,,,,,,,,,,5,8,58,4,,,,,,,,,,,AMNE13.jpg,AMSA09.jpg,AMSA11.jpg,AMNE19.jpg,AMNE19.jpg,MN,1,num_4,16,num_4,1.15015448448,,,2017_Jul_18_1142,60.0082569895,FEMA4ImagesEEG,001,200900,
AFNE01.JPG,AFNE01.JPG,AFNE01.JPG,AFNE01.JPG,AFNE01.JPG,AFNE01.JPG,,,,,,,,,,,,,5,9,59,6,,,,,,,,,,,AMSA19.jpg,AMNE15.jpg,AMSA16.jpg,AMNE09.jpg,AMSA19.jpg,MS,2,num_8,16,num_8,0.633548325422,,,2017_Jul_18_1142,60.0082569895,FEMA4ImagesEEG,001,200900,
,,,,,,,,,,,,,,,,,,,,,,,,,,,,,,,,,,,,,,,,,,,space,44.1634196541,2017_Jul_18_1142,60.0082569895,FEMA4ImagesEEG,001,200900,
AFNE01.JPG,AFNE01.JPG,AFNE01.JPG,AFNE01.JPG,AFNE01.JPG,AFNE01.JPG,,,,,,,,,,,,,,,,,0,0,0,4,,,,,,,AFNE20.jpg,AFNE12.jpg,AFSA07.jpg,AFSA20.jpg,AFNE20.jpg,FN,3,num_8,32,num_2,0.883427326218,,,2017_Jul_18_1142,60.0082569895,FEMA4ImagesEEG,001,200900,
AFNE01.JPG,AFNE01.JPG,AFNE01.JPG,AFNE01.JPG,AFNE01.JPG,AFNE01.JPG,,,,,,,,,,,,,,,,,0,1,1,0,,,,,,,AFNE08.jpg,AFSA09.jpg,AFSA05.jpg,AFNE14.jpg,AFSA05.jpg,FS,4,num_2,16,num_2,0.550148839451,,,2017_Jul_18_1142,60.0082569895,FEMA4ImagesEEG,001,200900,
AFNE01.JPG,AFNE01.JPG,AFNE01.JPG,AFNE01.JPG,AFNE01.JPG,AFNE01.JPG,,,,,,,,,,,,,,,,,0,2,2,3,,,,,,,AFNE09.jpg,AFSA04.jpg,AFNE04.jpg,AFSA17.jpg,AFSA17.jpg,FS,4,num_4,16,num_4,0.650131872302,,,2017_Jul_18_1142,60.0082569895,FEMA4ImagesEEG,001,200900,
AFNE01.JPG,AFNE01.JPG,AFNE01.JPG,AFNE01.JPG,AFNE01.JPG,AFNE01.JPG,,,,,,,,,,,,,,,,,0,3,3,8,,,,,,,AFSA16.jpg,AFNE04.jpg,AFSA02.jpg,AFNE11.jpg,AFSA02.jpg,FS,4,num_2,32,num_8,1.24994603547,,,2017_Jul_18_1142,60.0082569895,FEMA4ImagesEEG,001,200900,
AFNE01.JPG,AFNE01.JPG,AFNE01.JPG,AFNE01.JPG,AFNE01.JPG,AFNE01.JPG,,,,,,,,,,,,,,,,,0,4,4,6,,,,,,,AFSA04.jpg,AFSA09.jpg,AFNE19.jpg,AFNE15.jpg,AFNE15.jpg,FN,3,num_4,32,num_6,1.18340785729,,,2017_Jul_18_1142,60.0082569895,FEMA4ImagesEEG,001,200900,
AFNE01.JPG,AFNE01.JPG,AFNE01.JPG,AFNE01.JPG,AFNE01.JPG,AFNE01.JPG,,,,,,,,,,,,,,,,,0,5,5,9,,,,,,,AFSA18.jpg,AFSA11.jpg,AFNE10.jpg,AFNE08.jpg,AFSA18.jpg,FS,4,num_8,16,num_8,0.700116653185,,,2017_Jul_18_1142,60.0082569895,FEMA4ImagesEEG,001,200900,
AFNE01.JPG,AFNE01.JPG,AFNE01.JPG,AFNE01.JPG,AFNE01.JPG,AFNE01.JPG,,,,,,,,,,,,,,,,,0,6,6,2,,,,,,,AFNE20.jpg,AFSA15.jpg,AFNE17.jpg,AFSA14.jpg,AFNE20.jpg,FN,3,num_8,32,num_2,1.06675724368,,,2017_Jul_18_1142,60.0082569895,FEMA4ImagesEEG,001,200900,
AFNE01.JPG,AFNE01.JPG,AFNE01.JPG,AFNE01.JPG,AFNE01.JPG,AFNE01.JPG,,,,,,,,,,,,,,,,,0,7,7,7,,,,,,,AFSA14.jpg,AFSA13.jpg,AFNE06.jpg,AFNE11.jpg,AFSA14.jpg,FS,4,num_8,32,num_6,0.650164587802,,,2017_Jul_18_1142,60.0082569895,FEMA4ImagesEEG,001,200900,
AFNE01.JPG,AFNE01.JPG,AFNE01.JPG,AFNE01.JPG,AFNE01.JPG,AFNE01.JPG,,,,,,,,,,,,,,,,,0,8,8,1,,,,,,,AFNE15.jpg,AFSA20.jpg,AFSA07.jpg,AFNE04.jpg,AFSA20.jpg,FS,4,num_6,32,num_2,0.916764412206,,,2017_Jul_18_1142,60.0082569895,FEMA4ImagesEEG,001,200900,
AFNE01.JPG,AFNE01.JPG,AFNE01.JPG,AFNE01.JPG,AFNE01.JPG,AFNE01.JPG,,,,,,,,,,,,,,,,,0,9,9,5,,,,,,,AFSA02.jpg,AFNE17.jpg,AFSA09.jpg,AFNE13.jpg,AFSA02.jpg,FS,4,num_8,16,num_8,1.03345928798,,,2017_Jul_18_1142,60.0082569895,FEMA4ImagesEEG,001,200900,
AFNE01.JPG,AFNE01.JPG,AFNE01.JPG,AFNE01.JPG,AFNE01.JPG,AFNE01.JPG,,,,,,,,,,,,,,,,,1,0,10,5,,,,,,,AFSA02.jpg,AFSA09.jpg,AFNE12.jpg,AFNE02.jpg,AFSA02.jpg,FS,4,num_8,16,num_8,0.616778749303,,,2017_Jul_18_1142,60.0082569895,FEMA4ImagesEEG,001,200900,
AFNE01.JPG,AFNE01.JPG,AFNE01.JPG,AFNE01.JPG,AFNE01.JPG,AFNE01.JPG,,,,,,,,,,,,,,,,,1,1,11,2,,,,,,,AFSA14.jpg,AFNE08.jpg,AFNE18.jpg,AFSA08.jpg,AFSA08.jpg,FS,4,num_4,16,num_4,1.05007555035,,,2017_Jul_18_1142,60.0082569895,FEMA4ImagesEEG,001,200900,
AFNE01.JPG,AFNE01.JPG,AFNE01.JPG,AFNE01.JPG,AFNE01.JPG,AFNE01.JPG,,,,,,,,,,,,,,,,,1,2,12,6,,,,,,,AFSA20.jpg,AFNE16.jpg,AFNE15.jpg,AFSA14.jpg,AFSA20.jpg,FS,4,num_8,16,num_8,0.533494729752,,,2017_Jul_18_1142,60.0082569895,FEMA4ImagesEEG,001,200900,
AFNE01.JPG,AFNE01.JPG,AFNE01.JPG,AFNE01.JPG,AFNE01.JPG,AFNE01.JPG,,,,,,,,,,,,,,,,,1,3,13,1,,,,,,,AFSA15.jpg,AFSA18.jpg,AFNE18.jpg,AFNE15.jpg,AFNE18.jpg,FN,3,num_2,32,num_6,1.01676508576,,,2017_Jul_18_1142,60.0082569895,FEMA4ImagesEEG,001,200900,
AFNE01.JPG,AFNE01.JPG,AFNE01.JPG,AFNE01.JPG,AFNE01.JPG,AFNE01.JPG,,,,,,,,,,,,,,,,,1,4,14,0,,,,,,,AFSA18.jpg,AFNE13.jpg,AFSA09.jpg,AFNE16.jpg,AFNE16.jpg,FN,3,num_4,16,num_4,0.883604374758,,,2017_Jul_18_1142,60.0082569895,FEMA4ImagesEEG,001,200900,
AFNE01.JPG,AFNE01.JPG,AFNE01.JPG,AFNE01.JPG,AFNE01.JPG,AFNE01.JPG,,,,,,,,,,,,,,,,,1,5,15,7,,,,,,,AFNE03.jpg,AFSA11.jpg,AFSA01.jpg,AFNE01.jpg,AFNE03.jpg,FN,3,num_8,32,num_4,1.01675546356,,,2017_Jul_18_1142,60.0082569895,FEMA4ImagesEEG,001,200900,
AFNE01.JPG,AFNE01.JPG,AFNE01.JPG,AFNE01.JPG,AFNE01.JPG,AFNE01.JPG,,,,,,,,,,,,,,,,,1,6,16,4,,,,,,,AFNE15.jpg,AFNE09.jpg,AFSA19.jpg,AFSA11.jpg,AFNE09.jpg,FN,3,num_6,32,num_2,1.15010412829,,,2017_Jul_18_1142,60.0082569895,FEMA4ImagesEEG,001,200900,
AFNE01.JPG,AFNE01.JPG,AFNE01.JPG,AFNE01.JPG,AFNE01.JPG,AFNE01.JPG,,,,,,,,,,,,,,,,,1,7,17,9,,,,,,,AFNE08.jpg,AFSA02.jpg,AFSA12.jpg,AFNE02.jpg,AFSA12.jpg,FS,4,num_2,16,num_2,0.816740003895,,,2017_Jul_18_1142,60.0082569895,FEMA4ImagesEEG,001,200900,
AFNE01.JPG,AFNE01.JPG,AFNE01.JPG,AFNE01.JPG,AFNE01.JPG,AFNE01.JPG,,,,,,,,,,,,,,,,,1,8,18,8,,,,,,,AFNE07.jpg,AFSA04.jpg,AFNE05.jpg,AFSA17.jpg,AFSA04.jpg,FS,4,num_6,16,num_6,0.533490880873,,,2017_Jul_18_1142,60.0082569895,FEMA4ImagesEEG,001,200900,
AFNE01.JPG,AFNE01.JPG,AFNE01.JPG,AFNE01.JPG,AFNE01.JPG,AFNE01.JPG,,,,,,,,,,,,,,,,,1,9,19,3,,,,,,,AFNE11.jpg,AFNE15.jpg,AFSA14.jpg,AFSA15.jpg,AFNE15.jpg,FN,3,num_6,16,num_6,0.616781635967,,,2017_Jul_18_1142,60.0082569895,FEMA4ImagesEEG,001,200900,
AFNE01.JPG,AFNE01.JPG,AFNE01.JPG,AFNE01.JPG,AFNE01.JPG,AFNE01.JPG,,,,,,,,,,,,,,,,,2,0,20,9,,,,,,,AFNE16.jpg,AFSA01.jpg,AFSA20.jpg,AFNE06.jpg,AFNE16.jpg,FN,3,num_8,32,num_4,0.916795203259,,,2017_Jul_18_1142,60.0082569895,FEMA4ImagesEEG,001,200900,
AFNE01.JPG,AFNE01.JPG,AFNE01.JPG,AFNE01.JPG,AFNE01.JPG,AFNE01.JPG,,,,,,,,,,,,,,,,,2,1,21,5,,,,,,,AFSA11.jpg,AFNE05.jpg,AFSA12.jpg,AFNE17.jpg,AFSA11.jpg,FS,4,num_8,16,num_8,0.733437060699,,,2017_Jul_18_1142,60.0082569895,FEMA4ImagesEEG,001,200900,
AFNE01.JPG,AFNE01.JPG,AFNE01.JPG,AFNE01.JPG,AFNE01.JPG,AFNE01.JPG,,,,,,,,,,,,,,,,,2,2,22,4,,,,,,,AFNE03.jpg,AFSA03.jpg,AFNE07.jpg,AFSA14.jpg,AFSA03.jpg,FS,4,num_6,32,num_4,0.71692343516,,,2017_Jul_18_1142,60.0082569895,FEMA4ImagesEEG,001,200900,
AFNE01.JPG,AFNE01.JPG,AFNE01.JPG,AFNE01.JPG,AFNE01.JPG,AFNE01.JPG,,,,,,,,,,,,,,,,,2,3,23,3,,,,,,,AFSA06.jpg,AFNE02.jpg,AFNE14.jpg,AFSA14.jpg,AFNE14.jpg,FN,3,num_2,32,num_6,0.866752047688,,,2017_Jul_18_1142,60.0082569895,FEMA4ImagesEEG,001,200900,
AFNE01.JPG,AFNE01.JPG,AFNE01.JPG,AFNE01.JPG,AFNE01.JPG,AFNE01.JPG,,,,,,,,,,,,,,,,,2,4,24,0,,,,,,,AFNE08.jpg,AFNE18.jpg,AFSA05.jpg,AFSA06.jpg,AFNE08.jpg,FN,3,num_8,32,num_6,1.06685474867,,,2017_Jul_18_1142,60.0082569895,FEMA4ImagesEEG,001,200900,
AFNE01.JPG,AFNE01.JPG,AFNE01.JPG,AFNE01.JPG,AFNE01.JPG,AFNE01.JPG,,,,,,,,,,,,,,,,,2,5,25,7,,,,,,,AFSA09.jpg,AFSA18.jpg,AFNE07.jpg,AFNE17.jpg,AFNE07.jpg,FN,3,num_2,16,num_2,1.18357367993,,,2017_Jul_18_1142,60.0082569895,FEMA4ImagesEEG,001,200900,
AFNE01.JPG,AFNE01.JPG,AFNE01.JPG,AFNE01.JPG,AFNE01.JPG,AFNE01.JPG,,,,,,,,,,,,,,,,,2,6,26,1,,,,,,,AFSA12.jpg,AFNE11.jpg,AFSA01.jpg,AFNE17.jpg,AFNE11.jpg,FN,3,num_6,16,num_6,1.63342195383,,,2017_Jul_18_1142,60.0082569895,FEMA4ImagesEEG,001,200900,
AFNE01.JPG,AFNE01.JPG,AFNE01.JPG,AFNE01.JPG,AFNE01.JPG,AFNE01.JPG,,,,,,,,,,,,,,,,,2,7,27,6,,,,,,,AFSA17.jpg,AFSA12.jpg,AFNE01.jpg,AFNE16.jpg,AFNE01.jpg,FN,3,num_2,32,num_4,1.16673835207,,,2017_Jul_18_1142,60.0082569895,FEMA4ImagesEEG,001,200900,
AFNE01.JPG,AFNE01.JPG,AFNE01.JPG,AFNE01.JPG,AFNE01.JPG,AFNE01.JPG,,,,,,,,,,,,,,,,,2,8,28,8,,,,,,,AFNE04.jpg,AFSA05.jpg,AFSA20.jpg,AFNE12.jpg,AFSA20.jpg,FS,4,num_2,32,num_4,1.3000735457,,,2017_Jul_18_1142,60.0082569895,FEMA4ImagesEEG,001,200900,
AFNE01.JPG,AFNE01.JPG,AFNE01.JPG,AFNE01.JPG,AFNE01.JPG,AFNE01.JPG,,,,,,,,,,,,,,,,,2,9,29,2,,,,,,,AFSA12.jpg,AFNE17.jpg,AFNE11.jpg,AFSA02.jpg,AFSA12.jpg,FS,4,num_8,16,num_8,0.60018974985,,,2017_Jul_18_1142,60.0082569895,FEMA4ImagesEEG,001,200900,
AFNE01.JPG,AFNE01.JPG,AFNE01.JPG,AFNE01.JPG,AFNE01.JPG,AFNE01.JPG,,,,,,,,,,,,,,,,,3,0,30,6,,,,,,,AFNE18.jpg,AFNE06.jpg,AFSA17.jpg,AFSA01.jpg,AFSA17.jpg,FS,4,num_2,32,num_4,0.483525023665,,,2017_Jul_18_1142,60.0082569895,FEMA4ImagesEEG,001,200900,
AFNE01.JPG,AFNE01.JPG,AFNE01.JPG,AFNE01.JPG,AFNE01.JPG,AFNE01.JPG,,,,,,,,,,,,,,,,,3,1,31,4,,,,,,,AFNE07.jpg,AFNE12.jpg,AFSA08.jpg,AFSA18.jpg,AFNE07.jpg,FN,3,num_8,16,num_8,1.11674010011,,,2017_Jul_18_1142,60.0082569895,FEMA4ImagesEEG,001,200900,
AFNE01.JPG,AFNE01.JPG,AFNE01.JPG,AFNE01.JPG,AFNE01.JPG,AFNE01.JPG,,,,,,,,,,,,,,,,,3,2,32,0,,,,,,,AFSA20.jpg,AFNE19.jpg,AFSA15.jpg,AFNE05.jpg,AFNE05.jpg,FN,3,num_4,16,num_4,0.600171788406,,,2017_Jul_18_1142,60.0082569895,FEMA4ImagesEEG,001,200900,
AFNE01.JPG,AFNE01.JPG,AFNE01.JPG,AFNE01.JPG,AFNE01.JPG,AFNE01.JPG,,,,,,,,,,,,,,,,,3,3,33,7,,,,,,,AFNE17.jpg,AFSA03.jpg,AFNE15.jpg,AFSA02.jpg,AFNE17.jpg,FN,3,num_8,16,num_8,0.516748888389,,,2017_Jul_18_1142,60.0082569895,FEMA4ImagesEEG,001,200900,
AFNE01.JPG,AFNE01.JPG,AFNE01.JPG,AFNE01.JPG,AFNE01.JPG,AFNE01.JPG,,,,,,,,,,,,,,,,,3,4,34,8,,,,,,,AFSA07.jpg,AFNE01.jpg,AFNE11.jpg,AFSA02.jpg,AFSA02.jpg,FS,4,num_4,16,num_4,1.43345043555,,,2017_Jul_18_1142,60.0082569895,FEMA4ImagesEEG,001,200900,
AFNE01.JPG,AFNE01.JPG,AFNE01.JPG,AFNE01.JPG,AFNE01.JPG,AFNE01.JPG,,,,,,,,,,,,,,,,,3,5,35,9,,,,,,,AFSA17.jpg,AFNE03.jpg,AFNE05.jpg,AFSA20.jpg,AFSA20.jpg,FS,4,num_4,16,num_4,0.66683281005,,,2017_Jul_18_1142,60.0082569895,FEMA4ImagesEEG,001,200900,
AFNE01.JPG,AFNE01.JPG,AFNE01.JPG,AFNE01.JPG,AFNE01.JPG,AFNE01.JPG,,,,,,,,,,,,,,,,,3,6,36,5,,,,,,,AFNE19.jpg,AFSA04.jpg,AFSA12.jpg,AFNE20.jpg,AFNE20.jpg,FN,3,num_4,16,num_4,1.23343305144,,,2017_Jul_18_1142,60.0082569895,FEMA4ImagesEEG,001,200900,
AFNE01.JPG,AFNE01.JPG,AFNE01.JPG,AFNE01.JPG,AFNE01.JPG,AFNE01.JPG,,,,,,,,,,,,,,,,,3,7,37,2,,,,,,,AFSA01.jpg,AFNE09.jpg,AFNE10.jpg,AFSA02.jpg,AFNE09.jpg,FN,3,num_6,16,num_6,1.26672138493,,,2017_Jul_18_1142,60.0082569895,FEMA4ImagesEEG,001,200900,
AFNE01.JPG,AFNE01.JPG,AFNE01.JPG,AFNE01.JPG,AFNE01.JPG,AFNE01.JPG,,,,,,,,,,,,,,,,,3,8,38,1,,,,,,,AFSA17.jpg,AFNE08.jpg,AFSA07.jpg,AFNE19.jpg,AFNE19.jpg,FN,3,num_4,32,num_6,1.00014048418,,,2017_Jul_18_1142,60.0082569895,FEMA4ImagesEEG,001,200900,
AFNE01.JPG,AFNE01.JPG,AFNE01.JPG,AFNE01.JPG,AFNE01.JPG,AFNE01.JPG,,,,,,,,,,,,,,,,,3,9,39,3,,,,,,,AFNE01.jpg,AFNE15.jpg,AFSA20.jpg,AFSA06.jpg,AFSA20.jpg,FS,4,num_2,16,num_2,0.933452199621,,,2017_Jul_18_1142,60.0082569895,FEMA4ImagesEEG,001,200900,
AFNE01.JPG,AFNE01.JPG,AFNE01.JPG,AFNE01.JPG,AFNE01.JPG,AFNE01.JPG,,,,,,,,,,,,,,,,,4,0,40,8,,,,,,,AFSA16.jpg,AFSA04.jpg,AFNE03.jpg,AFNE15.jpg,AFSA16.jpg,FS,4,num_8,32,num_2,1.50013904083,,,2017_Jul_18_1142,60.0082569895,FEMA4ImagesEEG,001,200900,
AFNE01.JPG,AFNE01.JPG,AFNE01.JPG,AFNE01.JPG,AFNE01.JPG,AFNE01.JPG,,,,,,,,,,,,,,,,,4,1,41,6,,,,,,,AFSA10.jpg,AFSA07.jpg,AFNE18.jpg,AFNE09.jpg,AFNE09.jpg,FN,3,num_4,32,num_2,1.06676045107,,,2017_Jul_18_1142,60.0082569895,FEMA4ImagesEEG,001,200900,
AFNE01.JPG,AFNE01.JPG,AFNE01.JPG,AFNE01.JPG,AFNE01.JPG,AFNE01.JPG,,,,,,,,,,,,,,,,,4,2,42,7,,,,,,,AFNE06.jpg,AFSA14.jpg,AFSA07.jpg,AFNE09.jpg,AFSA07.jpg,FS,4,num_2,32,num_6,0.56677023365,,,2017_Jul_18_1142,60.0082569895,FEMA4ImagesEEG,001,200900,
AFNE01.JPG,AFNE01.JPG,AFNE01.JPG,AFNE01.JPG,AFNE01.JPG,AFNE01.JPG,,,,,,,,,,,,,,,,,4,3,43,1,,,,,,,AFNE04.jpg,AFSA06.jpg,AFSA07.jpg,AFNE12.jpg,AFNE12.jpg,FN,3,num_4,16,num_4,0.56678178029,,,2017_Jul_18_1142,60.0082569895,FEMA4ImagesEEG,001,200900,
AFNE01.JPG,AFNE01.JPG,AFNE01.JPG,AFNE01.JPG,AFNE01.JPG,AFNE01.JPG,,,,,,,,,,,,,,,,,4,4,44,3,,,,,,,AFSA16.jpg,AFSA14.jpg,AFNE16.jpg,AFNE17.jpg,AFNE16.jpg,FN,3,num_2,16,num_2,0.633445047119,,,2017_Jul_18_1142,60.0082569895,FEMA4ImagesEEG,001,200900,
AFNE01.JPG,AFNE01.JPG,AFNE01.JPG,AFNE01.JPG,AFNE01.JPG,AFNE01.JPG,,,,,,,,,,,,,,,,,4,5,45,0,,,,,,,AFNE12.jpg,AFNE13.jpg,AFSA20.jpg,AFSA02.jpg,AFNE13.jpg,FN,3,num_6,32,num_2,0.716756008827,,,2017_Jul_18_1142,60.0082569895,FEMA4ImagesEEG,001,200900,
AFNE01.JPG,AFNE01.JPG,AFNE01.JPG,AFNE01.JPG,AFNE01.JPG,AFNE01.JPG,,,,,,,,,,,,,,,,,4,6,46,4,,,,,,,AFSA04.jpg,AFSA17.jpg,AFNE11.jpg,AFNE18.jpg,AFNE11.jpg,FN,3,num_2,16,num_2,0.550145632049,,,2017_Jul_18_1142,60.0082569895,FEMA4ImagesEEG,001,200900,
AFNE01.JPG,AFNE01.JPG,AFNE01.JPG,AFNE01.JPG,AFNE01.JPG,AFNE01.JPG,,,,,,,,,,,,,,,,,4,7,47,5,,,,,,,AFSA06.jpg,AFNE17.jpg,AFNE11.jpg,AFSA20.jpg,AFNE11.jpg,FN,3,num_2,16,num_2,2.43337762755,,,2017_Jul_18_1142,60.0082569895,FEMA4ImagesEEG,001,200900,
AFNE01.JPG,AFNE01.JPG,AFNE01.JPG,AFNE01.JPG,AFNE01.JPG,AFNE01.JPG,,,,,,,,,,,,,,,,,4,8,48,2,,,,,,,AFSA01.jpg,AFNE10.jpg,AFNE05.jpg,AFSA19.jpg,AFSA01.jpg,FS,4,num_8,32,num_2,0.866771612826,,,2017_Jul_18_1142,60.0082569895,FEMA4ImagesEEG,001,200900,
AFNE01.JPG,AFNE01.JPG,AFNE01.JPG,AFNE01.JPG,AFNE01.JPG,AFNE01.JPG,,,,,,,,,,,,,,,,,4,9,49,9,,,,,,,AFNE09.jpg,AFNE16.jpg,AFSA06.jpg,AFSA19.jpg,AFNE09.jpg,FN,3,num_8,16,num_8,1.03315201895,,,2017_Jul_18_1142,60.0082569895,FEMA4ImagesEEG,001,200900,
AFNE01.JPG,AFNE01.JPG,AFNE01.JPG,AFNE01.JPG,AFNE01.JPG,AFNE01.JPG,,,,,,,,,,,,,,,,,5,0,50,4,,,,,,,AFSA14.jpg,AFNE14.jpg,AFNE10.jpg,AFSA09.jpg,AFSA09.jpg,FS,4,num_4,16,num_4,1.06672324523,,,2017_Jul_18_1142,60.0082569895,FEMA4ImagesEEG,001,200900,
AFNE01.JPG,AFNE01.JPG,AFNE01.JPG,AFNE01.JPG,AFNE01.JPG,AFNE01.JPG,,,,,,,,,,,,,,,,,5,1,51,5,,,,,,,AFSA07.jpg,AFSA13.jpg,AFNE04.jpg,AFNE12.jpg,AFNE04.jpg,FN,3,num_2,16,num_2,1.56671442487,,,2017_Jul_18_1142,60.0082569895,FEMA4ImagesEEG,001,200900,
AFNE01.JPG,AFNE01.JPG,AFNE01.JPG,AFNE01.JPG,AFNE01.JPG,AFNE01.JPG,,,,,,,,,,,,,,,,,5,2,52,1,,,,,,,AFSA13.jpg,AFNE15.jpg,AFSA16.jpg,AFNE07.jpg,AFSA13.jpg,FS,4,num_8,16,num_8,0.650448763525,,,2017_Jul_18_1142,60.0082569895,FEMA4ImagesEEG,001,200900,
AFNE01.JPG,AFNE01.JPG,AFNE01.JPG,AFNE01.JPG,AFNE01.JPG,AFNE01.JPG,,,,,,,,,,,,,,,,,5,3,53,6,,,,,,,AFSA04.jpg,AFSA02.jpg,AFNE06.jpg,AFNE11.jpg,AFNE06.jpg,FN,3,num_2,32,num_6,0.900134678785,,,2017_Jul_18_1142,60.0082569895,FEMA4ImagesEEG,001,200900,
AFNE01.JPG,AFNE01.JPG,AFNE01.JPG,AFNE01.JPG,AFNE01.JPG,AFNE01.JPG,,,,,,,,,,,,,,,,,5,4,54,3,,,,,,,AFNE05.jpg,AFSA05.jpg,AFSA06.jpg,AFNE02.jpg,AFNE02.jpg,FN,3,num_4,16,num_4,0.933476575869,,,2017_Jul_18_1142,60.0082569895,FEMA4ImagesEEG,001,200900,
AFNE01.JPG,AFNE01.JPG,AFNE01.JPG,AFNE01.JPG,AFNE01.JPG,AFNE01.JPG,,,,,,,,,,,,,,,,,5,5,55,8,,,,,,,AFNE17.jpg,AFNE16.jpg,AFSA15.jpg,AFSA20.jpg,AFSA15.jpg,FS,4,num_2,16,num_2,1.36672783182,,,2017_Jul_18_1142,60.0082569895,FEMA4ImagesEEG,001,200900,
AFNE01.JPG,AFNE01.JPG,AFNE01.JPG,AFNE01.JPG,AFNE01.JPG,AFNE01.JPG,,,,,,,,,,,,,,,,,5,6,56,0,,,,,,,AFSA17.jpg,AFSA20.jpg,AFNE02.jpg,AFNE18.jpg,AFNE18.jpg,FN,3,num_4,16,num_4,1.16672295655,,,2017_Jul_18_1142,60.0082569895,FEMA4ImagesEEG,001,200900,
AFNE01.JPG,AFNE01.JPG,AFNE01.JPG,AFNE01.JPG,AFNE01.JPG,AFNE01.JPG,,,,,,,,,,,,,,,,,5,7,57,7,,,,,,,AFNE07.jpg,AFNE09.jpg,AFSA05.jpg,AFSA13.jpg,AFSA13.jpg,FS,4,num_4,16,num_4,0.516817206037,,,2017_Jul_18_1142,60.0082569895,FEMA4ImagesEEG,001,200900,
AFNE01.JPG,AFNE01.JPG,AFNE01.JPG,AFNE01.JPG,AFNE01.JPG,AFNE01.JPG,,,,,,,,,,,,,,,,,5,8,58,2,,,,,,,AFSA09.jpg,AFNE19.jpg,AFNE08.jpg,AFSA07.jpg,AFNE19.jpg,FN,3,num_6,16,num_6,1.10007604749,,,2017_Jul_18_1142,60.0082569895,FEMA4ImagesEEG,001,200900,
AFNE01.JPG,AFNE01.JPG,AFNE01.JPG,AFNE01.JPG,AFNE01.JPG,AFNE01.JPG,,,,,,,,,,,,,,,,,5,9,59,9,,,,,,,AFNE10.jpg,AFNE01.jpg,AFSA08.jpg,AFSA13.jpg,AFSA13.jpg,FS,4,num_4,16,num_4,0.850114295739,,,2017_Jul_18_1142,60.0082569895,FEMA4ImagesEEG,001,200900,
,,,,,,,,,,,,,,,,,,,,,,,,,,,,,,,,,,,,,,,,,,,space,24.2483798615,2017_Jul_18_1142,60.0082569895,FEMA4ImagesEEG,001,200900,
AFNE01.JPG,AFNE01.JPG,AFNE01.JPG,AFNE01.JPG,AFNE01.JPG,AFNE01.JPG,,,,,,,,,,,,,,,,,,,,,0,0,0,9,,,AMSA13.jpg,AMNE05.jpg,AMSA16.jpg,AMNE02.jpg,AMSA16.jpg,MS,2,num_2,16,num_2,0.566862606807,,,2017_Jul_18_1142,60.0082569895,FEMA4ImagesEEG,001,200900,
AFNE01.JPG,AFNE01.JPG,AFNE01.JPG,AFNE01.JPG,AFNE01.JPG,AFNE01.JPG,,,,,,,,,,,,,,,,,,,,,0,1,1,8,,,AMSA20.jpg,AMSA11.jpg,AMNE02.jpg,AMNE08.jpg,AMNE08.jpg,MN,1,num_4,16,num_4,0.933469840325,,,2017_Jul_18_1142,60.0082569895,FEMA4ImagesEEG,001,200900,
AFNE01.JPG,AFNE01.JPG,AFNE01.JPG,AFNE01.JPG,AFNE01.JPG,AFNE01.JPG,,,,,,,,,,,,,,,,,,,,,0,2,2,0,,,AMNE03.jpg,AMSA15.jpg,AMSA03.jpg,AMNE09.jpg,AMNE03.jpg,MN,1,num_8,32,num_4,0.800179871061,,,2017_Jul_18_1142,60.0082569895,FEMA4ImagesEEG,001,200900,
AFNE01.JPG,AFNE01.JPG,AFNE01.JPG,AFNE01.JPG,AFNE01.JPG,AFNE01.JPG,,,,,,,,,,,,,,,,,,,,,0,3,3,5,,,AMSA19.jpg,AMSA06.jpg,AMNE12.jpg,AMNE19.jpg,AMSA06.jpg,MS,2,num_6,32,num_8,0.699998941549,,,2017_Jul_18_1142,60.0082569895,FEMA4ImagesEEG,001,200900,
AFNE01.JPG,AFNE01.JPG,AFNE01.JPG,AFNE01.JPG,AFNE01.JPG,AFNE01.JPG,,,,,,,,,,,,,,,,,,,,,0,4,4,2,,,AMNE20.jpg,AMSA16.jpg,AMNE01.jpg,AMSA13.jpg,AMSA16.jpg,MS,2,num_6,32,num_4,0.500253545062,,,2017_Jul_18_1142,60.0082569895,FEMA4ImagesEEG,001,200900,
AFNE01.JPG,AFNE01.JPG,AFNE01.JPG,AFNE01.JPG,AFNE01.JPG,AFNE01.JPG,,,,,,,,,,,,,,,,,,,,,0,5,5,7,,,AMSA01.jpg,AMNE05.jpg,AMSA04.jpg,AMNE03.jpg,AMSA04.jpg,MS,2,num_2,16,num_2,0.433501753971,,,2017_Jul_18_1142,60.0082569895,FEMA4ImagesEEG,001,200900,
AFNE01.JPG,AFNE01.JPG,AFNE01.JPG,AFNE01.JPG,AFNE01.JPG,AFNE01.JPG,,,,,,,,,,,,,,,,,,,,,0,6,6,4,,,AMNE01.jpg,AMSA14.jpg,AMNE03.jpg,AMSA05.jpg,AMSA14.jpg,MS,2,num_6,16,num_6,0.516832922294,,,2017_Jul_18_1142,60.0082569895,FEMA4ImagesEEG,001,200900,
AFNE01.JPG,AFNE01.JPG,AFNE01.JPG,AFNE01.JPG,AFNE01.JPG,AFNE01.JPG,,,,,,,,,,,,,,,,,,,,,0,7,7,1,,,AMNE19.jpg,AMSA04.jpg,AMSA12.jpg,AMNE04.jpg,AMNE19.jpg,MN,1,num_8,16,num_8,0.866693993725,,,2017_Jul_18_1142,60.0082569895,FEMA4ImagesEEG,001,200900,
AFNE01.JPG,AFNE01.JPG,AFNE01.JPG,AFNE01.JPG,AFNE01.JPG,AFNE01.JPG,,,,,,,,,,,,,,,,,,,,,0,8,8,6,,,AMNE17.jpg,AMSA04.jpg,AMNE16.jpg,AMSA16.jpg,AMSA04.jpg,MS,2,num_6,32,num_4,0.933517951344,,,2017_Jul_18_1142,60.0082569895,FEMA4ImagesEEG,001,200900,
AFNE01.JPG,AFNE01.JPG,AFNE01.JPG,AFNE01.JPG,AFNE01.JPG,AFNE01.JPG,,,,,,,,,,,,,,,,,,,,,0,9,9,3,,,AMNE15.jpg,AMNE02.jpg,AMSA11.jpg,AMSA14.jpg,AMSA14.jpg,MS,2,num_4,16,num_4,0.483506420729,,,2017_Jul_18_1142,60.0082569895,FEMA4ImagesEEG,001,200900,
AFNE01.JPG,AFNE01.JPG,AFNE01.JPG,AFNE01.JPG,AFNE01.JPG,AFNE01.JPG,,,,,,,,,,,,,,,,,,,,,1,0,10,6,,,AMNE19.jpg,AMSA15.jpg,AMSA01.jpg,AMNE03.jpg,AMNE19.jpg,MN,1,num_8,16,num_8,0.51679122608,,,2017_Jul_18_1142,60.0082569895,FEMA4ImagesEEG,001,200900,
AFNE01.JPG,AFNE01.JPG,AFNE01.JPG,AFNE01.JPG,AFNE01.JPG,AFNE01.JPG,,,,,,,,,,,,,,,,,,,,,1,1,11,2,,,AMSA05.jpg,AMSA17.jpg,AMNE20.jpg,AMNE04.jpg,AMSA05.jpg,MS,2,num_8,16,num_8,1.43341772005,,,2017_Jul_18_1142,60.0082569895,FEMA4ImagesEEG,001,200900,
AFNE01.JPG,AFNE01.JPG,AFNE01.JPG,AFNE01.JPG,AFNE01.JPG,AFNE01.JPG,,,,,,,,,,,,,,,,,,,,,1,2,12,9,,,AMSA15.jpg,AMNE04.jpg,AMNE06.jpg,AMSA12.jpg,AMNE04.jpg,MN,1,num_6,32,num_8,0.900144300977,,,2017_Jul_18_1142,60.0082569895,FEMA4ImagesEEG,001,200900,
AFNE01.JPG,AFNE01.JPG,AFNE01.JPG,AFNE01.JPG,AFNE01.JPG,AFNE01.JPG,,,,,,,,,,,,,,,,,,,,,1,3,13,1,,,AMSA15.jpg,AMSA17.jpg,AMNE14.jpg,AMNE18.jpg,AMNE14.jpg,MN,1,num_2,16,num_2,0.666794641977,,,2017_Jul_18_1142,60.0082569895,FEMA4ImagesEEG,001,200900,
AFNE01.JPG,AFNE01.JPG,AFNE01.JPG,AFNE01.JPG,AFNE01.JPG,AFNE01.JPG,,,,,,,,,,,,,,,,,,,,,1,4,14,5,,,AMNE19.jpg,AMSA15.jpg,AMNE10.jpg,AMSA18.jpg,AMNE19.jpg,MN,1,num_8,16,num_8,1.30012390191,,,2017_Jul_18_1142,60.0082569895,FEMA4ImagesEEG,001,200900,
AFNE01.JPG,AFNE01.JPG,AFNE01.JPG,AFNE01.JPG,AFNE01.JPG,AFNE01.JPG,,,,,,,,,,,,,,,,,,,,,1,5,15,7,,,AMNE03.jpg,AMNE10.jpg,AMSA19.jpg,AMSA06.jpg,AMSA06.jpg,MS,2,num_4,16,num_4,1.06673062225,,,2017_Jul_18_1142,60.0082569895,FEMA4ImagesEEG,001,200900,
AFNE01.JPG,AFNE01.JPG,AFNE01.JPG,AFNE01.JPG,AFNE01.JPG,AFNE01.JPG,,,,,,,,,,,,,,,,,,,,,1,6,16,0,,,AMNE11.jpg,AMSA08.jpg,AMNE17.jpg,AMSA20.jpg,AMNE17.jpg,MN,1,num_2,16,num_2,0.783474122218,,,2017_Jul_18_1142,60.0082569895,FEMA4ImagesEEG,001,200900,
AFNE01.JPG,AFNE01.JPG,AFNE01.JPG,AFNE01.JPG,AFNE01.JPG,AFNE01.JPG,,,,,,,,,,,,,,,,,,,,,1,7,17,3,,,AMSA03.jpg,AMSA02.jpg,AMNE04.jpg,AMNE16.jpg,AMNE16.jpg,MN,1,num_4,32,num_8,1.08357749674,,,2017_Jul_18_1142,60.0082569895,FEMA4ImagesEEG,001,200900,
AFNE01.JPG,AFNE01.JPG,AFNE01.JPG,AFNE01.JPG,AFNE01.JPG,AFNE01.JPG,,,,,,,,,,,,,,,,,,,,,1,8,18,8,,,AMSA03.jpg,AMNE02.jpg,AMSA12.jpg,AMNE14.jpg,AMNE14.jpg,MN,1,num_4,16,num_4,0.716796742825,,,2017_Jul_18_1142,60.0082569895,FEMA4ImagesEEG,001,200900,
AFNE01.JPG,AFNE01.JPG,AFNE01.JPG,AFNE01.JPG,AFNE01.JPG,AFNE01.JPG,,,,,,,,,,,,,,,,,,,,,1,9,19,4,,,AMNE14.jpg,AMNE12.jpg,AMSA05.jpg,AMSA10.jpg,AMSA05.jpg,MS,2,num_2,16,num_2,0.500135833441,,,2017_Jul_18_1142,60.0082569895,FEMA4ImagesEEG,001,200900,
AFNE01.JPG,AFNE01.JPG,AFNE01.JPG,AFNE01.JPG,AFNE01.JPG,AFNE01.JPG,,,,,,,,,,,,,,,,,,,,,2,0,20,9,,,AMNE05.jpg,AMSA19.jpg,AMNE13.jpg,AMSA09.jpg,AMSA09.jpg,MS,2,num_4,16,num_4,0.866831591236,,,2017_Jul_18_1142,60.0082569895,FEMA4ImagesEEG,001,200900,
AFNE01.JPG,AFNE01.JPG,AFNE01.JPG,AFNE01.JPG,AFNE01.JPG,AFNE01.JPG,,,,,,,,,,,,,,,,,,,,,2,1,21,3,,,AMSA02.jpg,AMSA11.jpg,AMNE06.jpg,AMNE01.jpg,AMNE06.jpg,MN,1,num_2,16,num_2,1.03345223168,,,2017_Jul_18_1142,60.0082569895,FEMA4ImagesEEG,001,200900,
AFNE01.JPG,AFNE01.JPG,AFNE01.JPG,AFNE01.JPG,AFNE01.JPG,AFNE01.JPG,,,,,,,,,,,,,,,,,,,,,2,2,22,5,,,AMSA04.jpg,AMSA14.jpg,AMNE01.jpg,AMNE05.jpg,AMSA14.jpg,MS,2,num_6,16,num_6,0.833524334084,,,2017_Jul_18_1142,60.0082569895,FEMA4ImagesEEG,001,200900,
AFNE01.JPG,AFNE01.JPG,AFNE01.JPG,AFNE01.JPG,AFNE01.JPG,AFNE01.JPG,,,,,,,,,,,,,,,,,,,,,2,3,23,4,,,AMNE15.jpg,AMNE18.jpg,AMSA06.jpg,AMSA20.jpg,AMSA06.jpg,MS,2,num_2,16,num_2,0.883456192838,,,2017_Jul_18_1142,60.0082569895,FEMA4ImagesEEG,001,200900,
AFNE01.JPG,AFNE01.JPG,AFNE01.JPG,AFNE01.JPG,AFNE01.JPG,AFNE01.JPG,,,,,,,,,,,,,,,,,,,,,2,4,24,7,,,AMSA16.jpg,AMNE16.jpg,AMNE19.jpg,AMSA06.jpg,AMSA16.jpg,MS,2,num_8,16,num_8,1.2167577729,,,2017_Jul_18_1142,60.0082569895,FEMA4ImagesEEG,001,200900,
AFNE01.JPG,AFNE01.JPG,AFNE01.JPG,AFNE01.JPG,AFNE01.JPG,AFNE01.JPG,,,,,,,,,,,,,,,,,,,,,2,5,25,0,,,AMSA17.jpg,AMNE04.jpg,AMSA09.jpg,AMNE14.jpg,AMNE14.jpg,MN,1,num_4,32,num_6,1.63342195384,,,2017_Jul_18_1142,60.0082569895,FEMA4ImagesEEG,001,200900,
AFNE01.JPG,AFNE01.JPG,AFNE01.JPG,AFNE01.JPG,AFNE01.JPG,AFNE01.JPG,,,,,,,,,,,,,,,,,,,,,2,6,26,6,,,AMSA17.jpg,AMSA20.jpg,AMNE08.jpg,AMNE18.jpg,AMSA17.jpg,MS,2,num_8,16,num_8,0.850129049795,,,2017_Jul_18_1142,60.0082569895,FEMA4ImagesEEG,001,200900,
AFNE01.JPG,AFNE01.JPG,AFNE01.JPG,AFNE01.JPG,AFNE01.JPG,AFNE01.JPG,,,,,,,,,,,,,,,,,,,,,2,7,27,2,,,AMNE02.jpg,AMSA06.jpg,AMSA11.jpg,AMNE13.jpg,AMNE02.jpg,MN,1,num_8,16,num_8,0.900186638668,,,2017_Jul_18_1142,60.0082569895,FEMA4ImagesEEG,001,200900,
AFNE01.JPG,AFNE01.JPG,AFNE01.JPG,AFNE01.JPG,AFNE01.JPG,AFNE01.JPG,,,,,,,,,,,,,,,,,,,,,2,8,28,1,,,AMSA13.jpg,AMSA06.jpg,AMNE02.jpg,AMNE18.jpg,AMSA06.jpg,MS,2,num_6,16,num_6,0.533500503079,,,2017_Jul_18_1142,60.0082569895,FEMA4ImagesEEG,001,200900,
AFNE01.JPG,AFNE01.JPG,AFNE01.JPG,AFNE01.JPG,AFNE01.JPG,AFNE01.JPG,,,,,,,,,,,,,,,,,,,,,2,9,29,8,,,AMNE17.jpg,AMNE16.jpg,AMSA18.jpg,AMSA13.jpg,AMSA13.jpg,MS,2,num_4,16,num_4,1.51660134795,,,2017_Jul_18_1142,60.0082569895,FEMA4ImagesEEG,001,200900,
AFNE01.JPG,AFNE01.JPG,AFNE01.JPG,AFNE01.JPG,AFNE01.JPG,AFNE01.JPG,,,,,,,,,,,,,,,,,,,,,3,0,30,8,,,AMNE08.jpg,AMNE04.jpg,AMSA03.jpg,AMSA12.jpg,AMNE08.jpg,MN,1,num_8,32,num_4,0.966776776739,,,2017_Jul_18_1142,60.0082569895,FEMA4ImagesEEG,001,200900,
AFNE01.JPG,AFNE01.JPG,AFNE01.JPG,AFNE01.JPG,AFNE01.JPG,AFNE01.JPG,,,,,,,,,,,,,,,,,,,,,3,1,31,4,,,AMSA11.jpg,AMNE17.jpg,AMNE10.jpg,AMSA03.jpg,AMSA03.jpg,MS,2,num_4,32,num_8,0.88344304249,,,2017_Jul_18_1142,60.0082569895,FEMA4ImagesEEG,001,200900,
AFNE01.JPG,AFNE01.JPG,AFNE01.JPG,AFNE01.JPG,AFNE01.JPG,AFNE01.JPG,,,,,,,,,,,,,,,,,,,,,3,2,32,6,,,AMSA05.jpg,AMNE19.jpg,AMSA10.jpg,AMNE20.jpg,AMSA10.jpg,MS,2,num_2,16,num_2,0.600262557855,,,2017_Jul_18_1142,60.0082569895,FEMA4ImagesEEG,001,200900,
AFNE01.JPG,AFNE01.JPG,AFNE01.JPG,AFNE01.JPG,AFNE01.JPG,AFNE01.JPG,,,,,,,,,,,,,,,,,,,,,3,3,33,9,,,AMSA09.jpg,AMNE06.jpg,AMNE15.jpg,AMSA05.jpg,AMNE06.jpg,MN,1,num_6,16,num_6,0.766781523707,,,2017_Jul_18_1142,60.0082569895,FEMA4ImagesEEG,001,200900,
AFNE01.JPG,AFNE01.JPG,AFNE01.JPG,AFNE01.JPG,AFNE01.JPG,AFNE01.JPG,,,,,,,,,,,,,,,,,,,,,3,4,34,1,,,AMNE15.jpg,AMNE11.jpg,AMSA16.jpg,AMSA10.jpg,AMNE11.jpg,MN,1,num_6,16,num_6,0.650234509143,,,2017_Jul_18_1142,60.0082569895,FEMA4ImagesEEG,001,200900,
AFNE01.JPG,AFNE01.JPG,AFNE01.JPG,AFNE01.JPG,AFNE01.JPG,AFNE01.JPG,,,,,,,,,,,,,,,,,,,,,3,5,35,7,,,AMSA14.jpg,AMNE20.jpg,AMNE18.jpg,AMSA16.jpg,AMSA14.jpg,MS,2,num_8,16,num_8,0.533445335794,,,2017_Jul_18_1142,60.0082569895,FEMA4ImagesEEG,001,200900,
AFNE01.JPG,AFNE01.JPG,AFNE01.JPG,AFNE01.JPG,AFNE01.JPG,AFNE01.JPG,,,,,,,,,,,,,,,,,,,,,3,6,36,5,,,AMNE13.jpg,AMSA10.jpg,AMNE02.jpg,AMSA16.jpg,AMNE13.jpg,MN,1,num_8,32,num_2,1.58340734412,,,2017_Jul_18_1142,60.0082569895,FEMA4ImagesEEG,001,200900,
AFNE01.JPG,AFNE01.JPG,AFNE01.JPG,AFNE01.JPG,AFNE01.JPG,AFNE01.JPG,,,,,,,,,,,,,,,,,,,,,3,7,37,2,,,AMNE16.jpg,AMSA20.jpg,AMSA16.jpg,AMNE11.jpg,AMNE16.jpg,MN,1,num_8,16,num_8,0.966772286381,,,2017_Jul_18_1142,60.0082569895,FEMA4ImagesEEG,001,200900,
AFNE01.JPG,AFNE01.JPG,AFNE01.JPG,AFNE01.JPG,AFNE01.JPG,AFNE01.JPG,,,,,,,,,,,,,,,,,,,,,3,8,38,0,,,AMSA05.jpg,AMNE19.jpg,AMNE03.jpg,AMSA09.jpg,AMNE03.jpg,MN,1,num_2,16,num_2,0.95014896775,,,2017_Jul_18_1142,60.0082569895,FEMA4ImagesEEG,001,200900,
