IPosition2,IPosition3,IPosition1,IPosition6,IPosition4,IPosition5,TrialsM1.thisRepN,TrialsM1.thisTrialN,TrialsM1.thisN,TrialsM1.thisIndex,TrialsF1.thisRepN,TrialsF1.thisTrialN,TrialsF1.thisN,TrialsF1.thisIndex,TrialsM2.thisRepN,TrialsM2.thisTrialN,TrialsM2.thisN,TrialsM2.thisIndex,TrialsF2.thisRepN,TrialsF2.thisTrialN,TrialsF2.thisN,TrialsF2.thisIndex,TrialsM3.thisRepN,TrialsM3.thisTrialN,TrialsM3.thisN,TrialsM3.thisIndex,TrialsF3.thisRepN,TrialsF3.thisTrialN,TrialsF3.thisN,TrialsF3.thisIndex,InstrKey_resp.keys,InstrKey_resp.rt,Image0 _Position,Image1 _Position,Image2 _Position,Image3 _Position,Center_image,condition,code,correct_answer,accuracy,Key_Resp.keys,Key_Resp.rt,BreakKey_resp.keys,BreakKey_resp.rt,date,frameRate,expName,session,participant,
,,,,,,,,,,,,,,,,,,,,,,,,,,,,,,space,10.916121649,,,,,,,,,,,,,,2017_Jul_19_1129,60.01218418,MAFE4ImagesEEG,001,200970,
AFSA25.JPG,AFNE24.JPG,AFSA24.JPG,AFNE21.JPG,AFSA21.JPG,AFNE25.JPG,0,0,0,2,,,,,,,,,,,,,,,,,,,,,,,AMSA10.jpg,AMNE08.jpg,AMNE05.jpg,AMSA04.jpg,AMSA04.jpg,MS,2,num_4,16,num_4,0.883441438811,,,2017_Jul_19_1129,60.01218418,MAFE4ImagesEEG,001,200970,
AFNE23.JPG,AFNE24.JPG,AFNE22.JPG,AFSA24.JPG,AFSA22.JPG,AFSA23.JPG,0,1,1,8,,,,,,,,,,,,,,,,,,,,,,,AMNE05.jpg,AMSA08.jpg,AMNE17.jpg,AMSA04.jpg,AMSA08.jpg,MS,2,num_6,32,num_8,1.1667338617,,,2017_Jul_19_1129,60.01218418,MAFE4ImagesEEG,001,200970,
AMSA25.JPG,AMNE24.JPG,AMSA24.JPG,AMNE26.JPG,AMSA21.JPG,AMNE25.JPG,0,2,2,3,,,,,,,,,,,,,,,,,,,,,,,AMSA10.jpg,AMSA18.jpg,AMNE04.jpg,AMNE10.jpg,AMNE04.jpg,MN,1,num_2,16,num_2,1.16672071136,,,2017_Jul_19_1129,60.01218418,MAFE4ImagesEEG,001,200970,
AFNE22.JPG,AFSA24.JPG,AFSA22.JPG,AFNE25.JPG,AFNE24.JPG,AFSA25.JPG,0,3,3,6,,,,,,,,,,,,,,,,,,,,,,,AMSA19.jpg,AMNE20.jpg,AMSA15.jpg,AMNE06.jpg,AMNE20.jpg,MN,1,num_6,16,num_6,0.883421873645,,,2017_Jul_19_1129,60.01218418,MAFE4ImagesEEG,001,200970,
AFSA21.JPG,AFNE23.JPG,AFNE21.JPG,AFSA25.JPG,AFNE25.JPG,AFSA23.JPG,0,4,4,4,,,,,,,,,,,,,,,,,,,,,,,AMSA03.jpg,AMNE10.jpg,AMSA15.jpg,AMNE17.jpg,AMSA03.jpg,MS,2,num_8,32,num_2,1.6333879554,,,2017_Jul_19_1129,60.01218418,MAFE4ImagesEEG,001,200970,
AMNE22.JPG,AMSA24.JPG,AMSA22.JPG,AMNE25.JPG,AMNE24.JPG,AMSA25.JPG,0,5,5,7,,,,,,,,,,,,,,,,,,,,,,,AMSA15.jpg,AMSA03.jpg,AMNE15.jpg,AMNE01.jpg,AMSA03.jpg,MS,2,num_6,32,num_4,0.71674414142,,,2017_Jul_19_1129,60.01218418,MAFE4ImagesEEG,001,200970,
AMNE23.JPG,AMNE24.JPG,AMNE22.JPG,AMSA24.JPG,AMSA22.JPG,AMSA23.JPG,0,6,6,9,,,,,,,,,,,,,,,,,,,,,,,AMNE02.jpg,AMNE01.jpg,AMSA06.jpg,AMSA09.jpg,AMNE01.jpg,MN,1,num_6,16,num_6,1.2000924373,,,2017_Jul_19_1129,60.01218418,MAFE4ImagesEEG,001,200970,
AFSA21.JPG,AFNE22.JPG,AFNE21.JPG,AFSA23.JPG,AFSA22.JPG,AFNE23.JPG,0,7,7,0,,,,,,,,,,,,,,,,,,,,,,,AMNE14.jpg,AMSA01.jpg,AMNE07.jpg,AMSA09.jpg,AMSA09.jpg,MS,2,num_4,32,num_8,0.766460462852,,,2017_Jul_19_1129,60.01218418,MAFE4ImagesEEG,001,200970,
AMSA21.JPG,AMNE22.JPG,AMNE21.JPG,AMSA23.JPG,AMSA22.JPG,AMNE23.JPG,0,8,8,1,,,,,,,,,,,,,,,,,,,,,,,AMSA03.jpg,AMNE06.jpg,AMSA10.jpg,AMNE20.jpg,AMSA03.jpg,MS,2,num_8,32,num_2,1.41692879153,,,2017_Jul_19_1129,60.01218418,MAFE4ImagesEEG,001,200970,
AMSA21.JPG,AMNE23.JPG,AMNE21.JPG,AMSA25.JPG,AMNE25.JPG,AMSA23.JPG,0,9,9,5,,,,,,,,,,,,,,,,,,,,,,,AMSA20.jpg,AMNE12.jpg,AMNE19.jpg,AMSA14.jpg,AMSA14.jpg,MS,2,num_4,16,num_4,0.533561122953,,,2017_Jul_19_1129,60.01218418,MAFE4ImagesEEG,001,200970,
AFSA21.JPG,AFNE23.JPG,AFNE21.JPG,AFSA25.JPG,AFNE25.JPG,AFSA23.JPG,,,,,0,0,0,4,,,,,,,,,,,,,,,,,,,AFSA11.jpg,AFSA02.jpg,AFNE15.jpg,AFNE07.jpg,AFNE15.jpg,FN,3,num_2,32,num_4,0.616808898892,,,2017_Jul_19_1129,60.01218418,MAFE4ImagesEEG,001,200970,
AFSA21.JPG,AFNE22.JPG,AFNE21.JPG,AFSA23.JPG,AFSA22.JPG,AFNE23.JPG,,,,,0,1,1,0,,,,,,,,,,,,,,,,,,,AFNE06.jpg,AFNE01.jpg,AFSA19.jpg,AFSA14.jpg,AFSA19.jpg,FS,4,num_2,32,num_6,0.633471027075,,,2017_Jul_19_1129,60.01218418,MAFE4ImagesEEG,001,200970,
AMSA25.JPG,AMNE24.JPG,AMSA24.JPG,AMNE26.JPG,AMSA21.JPG,AMNE25.JPG,,,,,0,2,2,3,,,,,,,,,,,,,,,,,,,AFSA01.jpg,AFSA08.jpg,AFNE16.jpg,AFNE03.jpg,AFSA08.jpg,FS,4,num_6,32,num_8,0.866780914308,,,2017_Jul_19_1129,60.01218418,MAFE4ImagesEEG,001,200970,
AMSA21.JPG,AMNE22.JPG,AMNE21.JPG,AMSA23.JPG,AMSA22.JPG,AMNE23.JPG,,,,,0,3,3,1,,,,,,,,,,,,,,,,,,,AFSA16.jpg,AFSA07.jpg,AFNE08.jpg,AFNE05.jpg,AFNE05.jpg,FN,3,num_4,16,num_4,0.750113622169,,,2017_Jul_19_1129,60.01218418,MAFE4ImagesEEG,001,200970,
AFNE23.JPG,AFNE24.JPG,AFNE22.JPG,AFSA24.JPG,AFSA22.JPG,AFSA23.JPG,,,,,0,4,4,8,,,,,,,,,,,,,,,,,,,AFSA12.jpg,AFNE01.jpg,AFSA13.jpg,AFNE13.jpg,AFSA12.jpg,FS,4,num_8,16,num_8,0.966609350406,,,2017_Jul_19_1129,60.01218418,MAFE4ImagesEEG,001,200970,
AMNE23.JPG,AMNE24.JPG,AMNE22.JPG,AMSA24.JPG,AMSA22.JPG,AMSA23.JPG,,,,,0,5,5,9,,,,,,,,,,,,,,,,,,,AFSA09.jpg,AFNE10.jpg,AFNE13.jpg,AFSA10.jpg,AFSA10.jpg,FS,4,num_4,32,num_8,1.01677278354,,,2017_Jul_19_1129,60.01218418,MAFE4ImagesEEG,001,200970,
AMSA21.JPG,AMNE23.JPG,AMNE21.JPG,AMSA25.JPG,AMNE25.JPG,AMSA23.JPG,,,,,0,6,6,5,,,,,,,,,,,,,,,,,,,AFNE18.jpg,AFSA13.jpg,AFSA12.jpg,AFNE20.jpg,AFSA12.jpg,FS,4,num_2,16,num_2,0.600135544781,,,2017_Jul_19_1129,60.01218418,MAFE4ImagesEEG,001,200970,
AFSA25.JPG,AFNE24.JPG,AFSA24.JPG,AFNE21.JPG,AFSA21.JPG,AFNE25.JPG,,,,,0,7,7,2,,,,,,,,,,,,,,,,,,,AFSA10.jpg,AFNE15.jpg,AFNE05.jpg,AFSA06.jpg,AFNE15.jpg,FN,3,num_6,16,num_6,1.05018363975,,,2017_Jul_19_1129,60.01218418,MAFE4ImagesEEG,001,200970,
AFNE22.JPG,AFSA24.JPG,AFSA22.JPG,AFNE25.JPG,AFNE24.JPG,AFSA25.JPG,,,,,0,8,8,6,,,,,,,,,,,,,,,,,,,AFSA01.jpg,AFSA17.jpg,AFNE15.jpg,AFNE10.jpg,AFSA17.jpg,FS,4,num_6,16,num_6,0.833512145939,,,2017_Jul_19_1129,60.01218418,MAFE4ImagesEEG,001,200970,
AMNE22.JPG,AMSA24.JPG,AMSA22.JPG,AMNE25.JPG,AMNE24.JPG,AMSA25.JPG,,,,,0,9,9,7,,,,,,,,,,,,,,,,,,,AFNE07.jpg,AFSA01.jpg,AFSA14.jpg,AFNE01.jpg,AFNE01.jpg,FN,3,num_4,16,num_4,1.06673479185,,,2017_Jul_19_1129,60.01218418,MAFE4ImagesEEG,001,200970,
AFSA21.JPG,AFNE23.JPG,AFNE21.JPG,AFSA25.JPG,AFNE25.JPG,AFSA23.JPG,,,,,,,,,0,0,0,4,,,,,,,,,,,,,,,AMNE03.jpg,AMNE01.jpg,AMSA07.jpg,AMSA06.jpg,AMSA07.jpg,MS,2,num_2,32,num_8,1.35008655171,,,2017_Jul_19_1129,60.01218418,MAFE4ImagesEEG,001,200970,
AMNE22.JPG,AMSA24.JPG,AMSA22.JPG,AMNE25.JPG,AMNE24.JPG,AMSA25.JPG,,,,,,,,,0,1,1,7,,,,,,,,,,,,,,,AMSA12.jpg,AMNE18.jpg,AMNE04.jpg,AMSA05.jpg,AMSA12.jpg,MS,2,num_8,32,num_4,0.816620047117,,,2017_Jul_19_1129,60.01218418,MAFE4ImagesEEG,001,200970,
AFNE23.JPG,AFNE24.JPG,AFNE22.JPG,AFSA24.JPG,AFSA22.JPG,AFSA23.JPG,,,,,,,,,0,2,2,8,,,,,,,,,,,,,,,AMSA12.jpg,AMNE15.jpg,AMSA10.jpg,AMNE08.jpg,AMSA10.jpg,MS,2,num_2,32,num_6,0.883455551375,,,2017_Jul_19_1129,60.01218418,MAFE4ImagesEEG,001,200970,
AFNE22.JPG,AFSA24.JPG,AFSA22.JPG,AFNE25.JPG,AFNE24.JPG,AFSA25.JPG,,,,,,,,,0,3,3,6,,,,,,,,,,,,,,,AMNE16.jpg,AMSA04.jpg,AMNE02.jpg,AMSA13.jpg,AMNE02.jpg,MN,1,num_2,16,num_2,0.533559519245,,,2017_Jul_19_1129,60.01218418,MAFE4ImagesEEG,001,200970,
AMSA21.JPG,AMNE23.JPG,AMNE21.JPG,AMSA25.JPG,AMNE25.JPG,AMSA23.JPG,,,,,,,,,0,4,4,5,,,,,,,,,,,,,,,AMNE05.jpg,AMSA06.jpg,AMNE01.jpg,AMSA16.jpg,AMSA16.jpg,MS,2,num_4,32,num_8,0.766748808208,,,2017_Jul_19_1129,60.01218418,MAFE4ImagesEEG,001,200970,
AMSA21.JPG,AMNE22.JPG,AMNE21.JPG,AMSA23.JPG,AMSA22.JPG,AMNE23.JPG,,,,,,,,,0,5,5,1,,,,,,,,,,,,,,,AMNE06.jpg,AMNE12.jpg,AMSA13.jpg,AMSA20.jpg,AMNE06.jpg,MN,1,num_8,32,num_6,0.833447997924,,,2017_Jul_19_1129,60.01218418,MAFE4ImagesEEG,001,200970,
AFSA21.JPG,AFNE22.JPG,AFNE21.JPG,AFSA23.JPG,AFSA22.JPG,AFNE23.JPG,,,,,,,,,0,6,6,0,,,,,,,,,,,,,,,AMSA11.jpg,AMSA03.jpg,AMNE20.jpg,AMNE17.jpg,AMSA11.jpg,MS,2,num_8,32,num_6,0.800114440062,,,2017_Jul_19_1129,60.01218418,MAFE4ImagesEEG,001,200970,
AMNE23.JPG,AMNE24.JPG,AMNE22.JPG,AMSA24.JPG,AMSA22.JPG,AMSA23.JPG,,,,,,,,,0,7,7,9,,,,,,,,,,,,,,,AMSA04.jpg,AMNE18.jpg,AMNE03.jpg,AMSA11.jpg,AMNE18.jpg,MN,1,num_6,32,num_8,1.10004365272,,,2017_Jul_19_1129,60.01218418,MAFE4ImagesEEG,001,200970,
AFSA25.JPG,AFNE24.JPG,AFSA24.JPG,AFNE21.JPG,AFSA21.JPG,AFNE25.JPG,,,,,,,,,0,8,8,2,,,,,,,,,,,,,,,AMSA18.jpg,AMNE12.jpg,AMNE20.jpg,AMSA05.jpg,AMSA05.jpg,MS,2,num_4,32,num_2,1.03345704279,,,2017_Jul_19_1129,60.01218418,MAFE4ImagesEEG,001,200970,
AMSA25.JPG,AMNE24.JPG,AMSA24.JPG,AMNE26.JPG,AMSA21.JPG,AMNE25.JPG,,,,,,,,,0,9,9,3,,,,,,,,,,,,,,,AMSA02.jpg,AMSA15.jpg,AMNE13.jpg,AMNE09.jpg,AMSA15.jpg,MS,2,num_6,16,num_6,1.6167611086,,,2017_Jul_19_1129,60.01218418,MAFE4ImagesEEG,001,200970,
AFSA21.JPG,AFNE22.JPG,AFNE21.JPG,AFSA23.JPG,AFSA22.JPG,AFNE23.JPG,,,,,,,,,,,,,0,0,0,0,,,,,,,,,,,AFSA15.jpg,AFNE07.jpg,AFSA11.jpg,AFNE17.jpg,AFSA11.jpg,FS,4,num_2,16,num_2,0.83346146901,,,2017_Jul_19_1129,60.01218418,MAFE4ImagesEEG,001,200970,
AFNE22.JPG,AFSA24.JPG,AFSA22.JPG,AFNE25.JPG,AFNE24.JPG,AFSA25.JPG,,,,,,,,,,,,,0,1,1,6,,,,,,,,,,,AFSA20.jpg,AFSA02.jpg,AFNE08.jpg,AFNE05.jpg,AFSA02.jpg,FS,4,num_6,16,num_6,0.950019067997,,,2017_Jul_19_1129,60.01218418,MAFE4ImagesEEG,001,200970,
AMNE22.JPG,AMSA24.JPG,AMSA22.JPG,AMNE25.JPG,AMNE24.JPG,AMSA25.JPG,,,,,,,,,,,,,0,2,2,7,,,,,,,,,,,AFNE18.jpg,AFSA01.jpg,AFNE15.jpg,AFSA05.jpg,AFSA01.jpg,FS,4,num_6,32,num_8,0.900152640213,,,2017_Jul_19_1129,60.01218418,MAFE4ImagesEEG,001,200970,
AFNE23.JPG,AFNE24.JPG,AFNE22.JPG,AFSA24.JPG,AFSA22.JPG,AFSA23.JPG,,,,,,,,,,,,,0,3,3,8,,,,,,,,,,,AFNE19.jpg,AFSA10.jpg,AFSA07.jpg,AFNE02.jpg,AFSA07.jpg,FS,4,num_2,16,num_2,0.78347989553,,,2017_Jul_19_1129,60.01218418,MAFE4ImagesEEG,001,200970,
AMSA25.JPG,AMNE24.JPG,AMSA24.JPG,AMNE26.JPG,AMSA21.JPG,AMNE25.JPG,,,,,,,,,,,,,0,4,4,3,,,,,,,,,,,AFNE12.jpg,AFSA17.jpg,AFSA02.jpg,AFNE14.jpg,AFNE14.jpg,FN,3,num_4,16,num_4,0.650163625571,,,2017_Jul_19_1129,60.01218418,MAFE4ImagesEEG,001,200970,
AMNE23.JPG,AMNE24.JPG,AMNE22.JPG,AMSA24.JPG,AMSA22.JPG,AMSA23.JPG,,,,,,,,,,,,,0,5,5,9,,,,,,,,,,,AFNE01.jpg,AFSA12.jpg,AFSA06.jpg,AFNE05.jpg,AFSA12.jpg,FS,4,num_6,16,num_6,0.45014175112,,,2017_Jul_19_1129,60.01218418,MAFE4ImagesEEG,001,200970,
AMSA21.JPG,AMNE22.JPG,AMNE21.JPG,AMSA23.JPG,AMSA22.JPG,AMNE23.JPG,,,,,,,,,,,,,0,6,6,1,,,,,,,,,,,AFNE11.jpg,AFSA08.jpg,AFSA15.jpg,AFNE01.jpg,AFNE11.jpg,FN,3,num_8,16,num_8,0.850120389805,,,2017_Jul_19_1129,60.01218418,MAFE4ImagesEEG,001,200970,
AFSA21.JPG,AFNE23.JPG,AFNE21.JPG,AFSA25.JPG,AFNE25.JPG,AFSA23.JPG,,,,,,,,,,,,,0,7,7,4,,,,,,,,,,,AFSA14.jpg,AFSA01.jpg,AFNE08.jpg,AFNE15.jpg,AFNE08.jpg,FN,3,num_2,32,num_8,1.16677299203,,,2017_Jul_19_1129,60.01218418,MAFE4ImagesEEG,001,200970,
AFSA25.JPG,AFNE24.JPG,AFSA24.JPG,AFNE21.JPG,AFSA21.JPG,AFNE25.JPG,,,,,,,,,,,,,0,8,8,2,,,,,,,,,,,AFSA16.jpg,AFNE01.jpg,AFSA04.jpg,AFNE05.jpg,AFSA16.jpg,FS,4,num_8,32,num_6,0.750149224332,,,2017_Jul_19_1129,60.01218418,MAFE4ImagesEEG,001,200970,
AMSA21.JPG,AMNE23.JPG,AMNE21.JPG,AMSA25.JPG,AMNE25.JPG,AMSA23.JPG,,,,,,,,,,,,,0,9,9,5,,,,,,,,,,,AFSA16.jpg,AFSA09.jpg,AFNE07.jpg,AFNE18.jpg,AFNE07.jpg,FN,3,num_2,32,num_4,0.983437621966,,,2017_Jul_19_1129,60.01218418,MAFE4ImagesEEG,001,200970,
AFNE22.JPG,AFSA24.JPG,AFSA22.JPG,AFNE25.JPG,AFNE24.JPG,AFSA25.JPG,,,,,,,,,,,,,,,,,0,0,0,6,,,,,,,AMSA08.jpg,AMNE20.jpg,AMSA07.jpg,AMNE11.jpg,AMNE11.jpg,MN,1,num_4,16,num_4,0.90010934032,,,2017_Jul_19_1129,60.01218418,MAFE4ImagesEEG,001,200970,
AMNE22.JPG,AMSA24.JPG,AMSA22.JPG,AMNE25.JPG,AMNE24.JPG,AMSA25.JPG,,,,,,,,,,,,,,,,,0,1,1,7,,,,,,,AMNE20.jpg,AMNE05.jpg,AMSA10.jpg,AMSA07.jpg,AMNE05.jpg,MN,1,num_6,16,num_6,0.866776423936,,,2017_Jul_19_1129,60.01218418,MAFE4ImagesEEG,001,200970,
AFSA21.JPG,AFNE23.JPG,AFNE21.JPG,AFSA25.JPG,AFNE25.JPG,AFSA23.JPG,,,,,,,,,,,,,,,,,0,2,2,4,,,,,,,AMNE11.jpg,AMSA12.jpg,AMSA03.jpg,AMNE06.jpg,AMSA12.jpg,MS,2,num_6,32,num_8,0.933304979902,,,2017_Jul_19_1129,60.01218418,MAFE4ImagesEEG,001,200970,
AFSA25.JPG,AFNE24.JPG,AFSA24.JPG,AFNE21.JPG,AFSA21.JPG,AFNE25.JPG,,,,,,,,,,,,,,,,,0,3,3,2,,,,,,,AMNE15.jpg,AMSA19.jpg,AMNE05.jpg,AMSA10.jpg,AMSA10.jpg,MS,2,num_4,32,num_8,1.26661650292,,,2017_Jul_19_1129,60.01218418,MAFE4ImagesEEG,001,200970,
AMSA25.JPG,AMNE24.JPG,AMSA24.JPG,AMNE26.JPG,AMSA21.JPG,AMNE25.JPG,,,,,,,,,,,,,,,,,0,4,4,3,,,,,,,AMSA10.jpg,AMNE19.jpg,AMSA01.jpg,AMNE18.jpg,AMSA01.jpg,MS,2,num_2,16,num_2,1.48351764664,,,2017_Jul_19_1129,60.01218418,MAFE4ImagesEEG,001,200970,
AFSA21.JPG,AFNE22.JPG,AFNE21.JPG,AFSA23.JPG,AFSA22.JPG,AFNE23.JPG,,,,,,,,,,,,,,,,,0,5,5,0,,,,,,,AMNE19.jpg,AMSA12.jpg,AMSA15.jpg,AMNE18.jpg,AMNE19.jpg,MN,1,num_8,32,num_4,0.383471748704,,,2017_Jul_19_1129,60.01218418,MAFE4ImagesEEG,001,200970,
AFNE23.JPG,AFNE24.JPG,AFNE22.JPG,AFSA24.JPG,AFSA22.JPG,AFSA23.JPG,,,,,,,,,,,,,,,,,0,6,6,8,,,,,,,AMNE13.jpg,AMSA14.jpg,AMSA06.jpg,AMNE05.jpg,AMSA14.jpg,MS,2,num_6,16,num_6,0.700175348611,,,2017_Jul_19_1129,60.01218418,MAFE4ImagesEEG,001,200970,
AMNE23.JPG,AMNE24.JPG,AMNE22.JPG,AMSA24.JPG,AMSA22.JPG,AMSA23.JPG,,,,,,,,,,,,,,,,,0,7,7,9,,,,,,,AMNE11.jpg,AMNE10.jpg,AMSA02.jpg,AMSA06.jpg,AMSA06.jpg,MS,2,num_4,32,num_8,1.10008566966,,,2017_Jul_19_1129,60.01218418,MAFE4ImagesEEG,001,200970,
AMSA21.JPG,AMNE22.JPG,AMNE21.JPG,AMSA23.JPG,AMSA22.JPG,AMNE23.JPG,,,,,,,,,,,,,,,,,0,8,8,1,,,,,,,AMSA09.jpg,AMNE09.jpg,AMSA11.jpg,AMNE04.jpg,AMNE04.jpg,MN,1,num_4,16,num_4,0.866767122468,,,2017_Jul_19_1129,60.01218418,MAFE4ImagesEEG,001,200970,
AMSA21.JPG,AMNE23.JPG,AMNE21.JPG,AMSA25.JPG,AMNE25.JPG,AMSA23.JPG,,,,,,,,,,,,,,,,,0,9,9,5,,,,,,,AMNE08.jpg,AMSA14.jpg,AMSA16.jpg,AMNE10.jpg,AMNE10.jpg,MN,1,num_4,16,num_4,0.950104384887,,,2017_Jul_19_1129,60.01218418,MAFE4ImagesEEG,001,200970,
AMSA25.JPG,AMNE24.JPG,AMSA24.JPG,AMNE26.JPG,AMSA21.JPG,AMNE25.JPG,,,,,,,,,,,,,,,,,,,,,0,0,0,3,,,AFNE02.jpg,AFSA14.jpg,AFNE14.jpg,AFSA10.jpg,AFNE02.jpg,FN,3,num_8,16,num_8,0.900136603217,,,2017_Jul_19_1129,60.01218418,MAFE4ImagesEEG,001,200970,
AMSA21.JPG,AMNE22.JPG,AMNE21.JPG,AMSA23.JPG,AMSA22.JPG,AMNE23.JPG,,,,,,,,,,,,,,,,,,,,,0,1,1,1,,,AFNE02.jpg,AFNE17.jpg,AFSA02.jpg,AFSA06.jpg,AFSA02.jpg,FS,4,num_2,16,num_2,1.63341072793,,,2017_Jul_19_1129,60.01218418,MAFE4ImagesEEG,001,200970,
AMNE23.JPG,AMNE24.JPG,AMNE22.JPG,AMSA24.JPG,AMSA22.JPG,AMSA23.JPG,,,,,,,,,,,,,,,,,,,,,0,2,2,9,,,AFNE12.jpg,AFSA05.jpg,AFSA14.jpg,AFNE08.jpg,AFSA14.jpg,FS,4,num_2,32,num_4,0.950114327803,,,2017_Jul_19_1129,60.01218418,MAFE4ImagesEEG,001,200970,
AFNE22.JPG,AFSA24.JPG,AFSA22.JPG,AFNE25.JPG,AFNE24.JPG,AFSA25.JPG,,,,,,,,,,,,,,,,,,,,,0,3,3,6,,,AFNE08.jpg,AFSA20.jpg,AFNE19.jpg,AFSA02.jpg,AFNE08.jpg,FN,3,num_8,32,num_6,0.9501787966,,,2017_Jul_19_1129,60.01218418,MAFE4ImagesEEG,001,200970,
AMSA21.JPG,AMNE23.JPG,AMNE21.JPG,AMSA25.JPG,AMNE25.JPG,AMSA23.JPG,,,,,,,,,,,,,,,,,,,,,0,4,4,5,,,AFNE20.jpg,AFSA11.jpg,AFNE07.jpg,AFSA05.jpg,AFSA11.jpg,FS,4,num_6,32,num_8,0.833532352553,,,2017_Jul_19_1129,60.01218418,MAFE4ImagesEEG,001,200970,
AFSA21.JPG,AFNE22.JPG,AFNE21.JPG,AFSA23.JPG,AFSA22.JPG,AFNE23.JPG,,,,,,,,,,,,,,,,,,,,,0,5,5,0,,,AFSA06.jpg,AFSA07.jpg,AFNE01.jpg,AFNE02.jpg,AFSA06.jpg,FS,4,num_8,32,num_4,0.783442368935,,,2017_Jul_19_1129,60.01218418,MAFE4ImagesEEG,001,200970,
AFSA25.JPG,AFNE24.JPG,AFSA24.JPG,AFNE21.JPG,AFSA21.JPG,AFNE25.JPG,,,,,,,,,,,,,,,,,,,,,0,6,6,2,,,AFSA10.jpg,AFNE13.jpg,AFNE05.jpg,AFSA03.jpg,AFSA10.jpg,FS,4,num_8,32,num_6,1.10009817855,,,2017_Jul_19_1129,60.01218418,MAFE4ImagesEEG,001,200970,
AMNE22.JPG,AMSA24.JPG,AMSA22.JPG,AMNE25.JPG,AMNE24.JPG,AMSA25.JPG,,,,,,,,,,,,,,,,,,,,,0,7,7,7,,,AFNE19.jpg,AFSA01.jpg,AFSA11.jpg,AFNE08.jpg,AFNE08.jpg,FN,3,num_4,32,num_8,0.716785837663,,,2017_Jul_19_1129,60.01218418,MAFE4ImagesEEG,001,200970,
AFNE23.JPG,AFNE24.JPG,AFNE22.JPG,AFSA24.JPG,AFSA22.JPG,AFSA23.JPG,,,,,,,,,,,,,,,,,,,,,0,8,8,8,,,AFSA11.jpg,AFNE11.jpg,AFNE13.jpg,AFSA06.jpg,AFSA06.jpg,FS,4,num_4,32,num_2,1.25008587819,,,2017_Jul_19_1129,60.01218418,MAFE4ImagesEEG,001,200970,
AFSA21.JPG,AFNE23.JPG,AFNE21.JPG,AFSA25.JPG,AFNE25.JPG,AFSA23.JPG,,,,,,,,,,,,,,,,,,,,,0,9,9,4,,,AFSA11.jpg,AFNE17.jpg,AFSA01.jpg,AFNE08.jpg,AFSA01.jpg,FS,4,num_2,16,num_2,0.766758751153,,,2017_Jul_19_1129,60.01218418,MAFE4ImagesEEG,001,200970,
,,,,,,,,,,,,,,,,,,,,,,,,,,,,,,,,,,,,,,,,,,,space,24.7479547205,2017_Jul_19_1129,60.01218418,MAFE4ImagesEEG,001,200970,
AFNE01.JPG,AFNE01.JPG,AFNE01.JPG,AFNE01.JPG,AFNE01.JPG,AFNE01.JPG,0,0,0,0,,,,,,,,,,,,,,,,,,,,,,,AMNE16.jpg,AMSA04.jpg,AMSA05.jpg,AMNE05.jpg,AMSA04.jpg,MS,2,num_6,16,num_6,1.750136074,,,2017_Jul_19_1129,60.01218418,MAFE4ImagesEEG,001,200970,
AFNE01.JPG,AFNE01.JPG,AFNE01.JPG,AFNE01.JPG,AFNE01.JPG,AFNE01.JPG,0,1,1,8,,,,,,,,,,,,,,,,,,,,,,,AMSA14.jpg,AMSA02.jpg,AMNE01.jpg,AMNE12.jpg,AMSA14.jpg,MS,2,num_8,32,num_4,0.866595205793,,,2017_Jul_19_1129,60.01218418,MAFE4ImagesEEG,001,200970,
AFNE01.JPG,AFNE01.JPG,AFNE01.JPG,AFNE01.JPG,AFNE01.JPG,AFNE01.JPG,0,2,2,7,,,,,,,,,,,,,,,,,,,,,,,AMSA04.jpg,AMSA06.jpg,AMNE05.jpg,AMNE07.jpg,AMSA04.jpg,MS,2,num_8,16,num_8,1.01677919834,,,2017_Jul_19_1129,60.01218418,MAFE4ImagesEEG,001,200970,
AFNE01.JPG,AFNE01.JPG,AFNE01.JPG,AFNE01.JPG,AFNE01.JPG,AFNE01.JPG,0,3,3,6,,,,,,,,,,,,,,,,,,,,,,,AMNE13.jpg,AMSA16.jpg,AMNE07.jpg,AMSA17.jpg,AMNE07.jpg,MN,1,num_2,16,num_2,0.583430116676,,,2017_Jul_19_1129,60.01218418,MAFE4ImagesEEG,001,200970,
AFNE01.JPG,AFNE01.JPG,AFNE01.JPG,AFNE01.JPG,AFNE01.JPG,AFNE01.JPG,0,4,4,2,,,,,,,,,,,,,,,,,,,,,,,AMNE07.jpg,AMNE17.jpg,AMSA13.jpg,AMSA03.jpg,AMNE07.jpg,MN,1,num_8,32,num_6,0.916779486986,,,2017_Jul_19_1129,60.01218418,MAFE4ImagesEEG,001,200970,
AFNE01.JPG,AFNE01.JPG,AFNE01.JPG,AFNE01.JPG,AFNE01.JPG,AFNE01.JPG,0,5,5,4,,,,,,,,,,,,,,,,,,,,,,,AMSA12.jpg,AMNE08.jpg,AMSA01.jpg,AMNE07.jpg,AMNE08.jpg,MN,1,num_6,16,num_6,0.850172349717,,,2017_Jul_19_1129,60.01218418,MAFE4ImagesEEG,001,200970,
AFNE01.JPG,AFNE01.JPG,AFNE01.JPG,AFNE01.JPG,AFNE01.JPG,AFNE01.JPG,0,6,6,9,,,,,,,,,,,,,,,,,,,,,,,AMSA09.jpg,AMSA13.jpg,AMNE19.jpg,AMNE15.jpg,AMNE15.jpg,MN,1,num_4,32,num_8,0.783475405158,,,2017_Jul_19_1129,60.01218418,MAFE4ImagesEEG,001,200970,
AFNE01.JPG,AFNE01.JPG,AFNE01.JPG,AFNE01.JPG,AFNE01.JPG,AFNE01.JPG,0,7,7,3,,,,,,,,,,,,,,,,,,,,,,,AMSA19.jpg,AMNE02.jpg,AMNE11.jpg,AMSA06.jpg,AMNE11.jpg,MN,1,num_2,16,num_2,0.800096157909,,,2017_Jul_19_1129,60.01218418,MAFE4ImagesEEG,001,200970,
AFNE01.JPG,AFNE01.JPG,AFNE01.JPG,AFNE01.JPG,AFNE01.JPG,AFNE01.JPG,0,8,8,1,,,,,,,,,,,,,,,,,,,,,,,AMNE12.jpg,AMNE17.jpg,AMSA18.jpg,AMSA13.jpg,AMSA18.jpg,MS,2,num_2,32,num_6,1.06673382965,,,2017_Jul_19_1129,60.01218418,MAFE4ImagesEEG,001,200970,
AFNE01.JPG,AFNE01.JPG,AFNE01.JPG,AFNE01.JPG,AFNE01.JPG,AFNE01.JPG,0,9,9,5,,,,,,,,,,,,,,,,,,,,,,,AMNE07.jpg,AMSA18.jpg,AMSA06.jpg,AMNE19.jpg,AMNE07.jpg,MN,1,num_8,32,num_4,0.833446073491,,,2017_Jul_19_1129,60.01218418,MAFE4ImagesEEG,001,200970,
AFNE01.JPG,AFNE01.JPG,AFNE01.JPG,AFNE01.JPG,AFNE01.JPG,AFNE01.JPG,1,0,10,5,,,,,,,,,,,,,,,,,,,,,,,AMSA05.jpg,AMSA06.jpg,AMNE14.jpg,AMNE18.jpg,AMSA05.jpg,MS,2,num_8,32,num_6,0.766755543766,,,2017_Jul_19_1129,60.01218418,MAFE4ImagesEEG,001,200970,
AFNE01.JPG,AFNE01.JPG,AFNE01.JPG,AFNE01.JPG,AFNE01.JPG,AFNE01.JPG,1,1,11,3,,,,,,,,,,,,,,,,,,,,,,,AMSA04.jpg,AMNE03.jpg,AMNE14.jpg,AMSA18.jpg,AMSA18.jpg,MS,2,num_4,32,num_8,1.15012529711,,,2017_Jul_19_1129,60.01218418,MAFE4ImagesEEG,001,200970,
AFNE01.JPG,AFNE01.JPG,AFNE01.JPG,AFNE01.JPG,AFNE01.JPG,AFNE01.JPG,1,2,12,0,,,,,,,,,,,,,,,,,,,,,,,AMNE09.jpg,AMSA08.jpg,AMSA16.jpg,AMNE11.jpg,AMSA08.jpg,MS,2,num_6,16,num_6,0.883431175083,,,2017_Jul_19_1129,60.01218418,MAFE4ImagesEEG,001,200970,
AFNE01.JPG,AFNE01.JPG,AFNE01.JPG,AFNE01.JPG,AFNE01.JPG,AFNE01.JPG,1,3,13,2,,,,,,,,,,,,,,,,,,,,,,,AMNE10.jpg,AMSA20.jpg,AMSA17.jpg,AMNE20.jpg,AMNE20.jpg,MN,1,num_4,16,num_4,0.633504704776,,,2017_Jul_19_1129,60.01218418,MAFE4ImagesEEG,001,200970,
AFNE01.JPG,AFNE01.JPG,AFNE01.JPG,AFNE01.JPG,AFNE01.JPG,AFNE01.JPG,1,4,14,7,,,,,,,,,,,,,,,,,,,,,,,AMNE17.jpg,AMSA05.jpg,AMNE07.jpg,AMSA09.jpg,AMNE17.jpg,MN,1,num_8,32,num_4,1.36677433914,,,2017_Jul_19_1129,60.01218418,MAFE4ImagesEEG,001,200970,
AFNE01.JPG,AFNE01.JPG,AFNE01.JPG,AFNE01.JPG,AFNE01.JPG,AFNE01.JPG,1,5,15,8,,,,,,,,,,,,,,,,,,,,,,,AMSA09.jpg,AMNE13.jpg,AMSA04.jpg,AMNE15.jpg,AMSA04.jpg,MS,2,num_2,16,num_2,0.933447709249,,,2017_Jul_19_1129,60.01218418,MAFE4ImagesEEG,001,200970,
AFNE01.JPG,AFNE01.JPG,AFNE01.JPG,AFNE01.JPG,AFNE01.JPG,AFNE01.JPG,1,6,16,9,,,,,,,,,,,,,,,,,,,,,,,AMSA03.jpg,AMNE12.jpg,AMNE06.jpg,AMSA07.jpg,AMNE12.jpg,MN,1,num_6,32,num_2,1.28346850927,,,2017_Jul_19_1129,60.01218418,MAFE4ImagesEEG,001,200970,
AFNE01.JPG,AFNE01.JPG,AFNE01.JPG,AFNE01.JPG,AFNE01.JPG,AFNE01.JPG,1,7,17,4,,,,,,,,,,,,,,,,,,,,,,,AMSA14.jpg,AMNE06.jpg,AMNE10.jpg,AMSA16.jpg,AMNE06.jpg,MN,1,num_6,16,num_6,0.833455374959,,,2017_Jul_19_1129,60.01218418,MAFE4ImagesEEG,001,200970,
AFNE01.JPG,AFNE01.JPG,AFNE01.JPG,AFNE01.JPG,AFNE01.JPG,AFNE01.JPG,1,8,18,1,,,,,,,,,,,,,,,,,,,,,,,AMNE06.jpg,AMSA14.jpg,AMSA06.jpg,AMNE09.jpg,AMNE06.jpg,MN,1,num_8,16,num_8,1.05007683331,,,2017_Jul_19_1129,60.01218418,MAFE4ImagesEEG,001,200970,
AFNE01.JPG,AFNE01.JPG,AFNE01.JPG,AFNE01.JPG,AFNE01.JPG,AFNE01.JPG,1,9,19,6,,,,,,,,,,,,,,,,,,,,,,,AMNE18.jpg,AMSA10.jpg,AMSA11.jpg,AMNE11.jpg,AMSA10.jpg,MS,2,num_6,32,num_2,0.866821327567,,,2017_Jul_19_1129,60.01218418,MAFE4ImagesEEG,001,200970,
AFNE01.JPG,AFNE01.JPG,AFNE01.JPG,AFNE01.JPG,AFNE01.JPG,AFNE01.JPG,2,0,20,9,,,,,,,,,,,,,,,,,,,,,,,AMSA07.jpg,AMNE17.jpg,AMSA03.jpg,AMNE01.jpg,AMSA07.jpg,MS,2,num_8,16,num_8,1.11673400606,,,2017_Jul_19_1129,60.01218418,MAFE4ImagesEEG,001,200970,
AFNE01.JPG,AFNE01.JPG,AFNE01.JPG,AFNE01.JPG,AFNE01.JPG,AFNE01.JPG,2,1,21,3,,,,,,,,,,,,,,,,,,,,,,,AMNE14.jpg,AMSA14.jpg,AMSA10.jpg,AMNE01.jpg,AMNE14.jpg,MN,1,num_8,32,num_6,0.600170505437,,,2017_Jul_19_1129,60.01218418,MAFE4ImagesEEG,001,200970,
AFNE01.JPG,AFNE01.JPG,AFNE01.JPG,AFNE01.JPG,AFNE01.JPG,AFNE01.JPG,2,2,22,2,,,,,,,,,,,,,,,,,,,,,,,AMSA12.jpg,AMNE20.jpg,AMNE17.jpg,AMSA11.jpg,AMNE20.jpg,MN,1,num_6,32,num_2,1.46674486311,,,2017_Jul_19_1129,60.01218418,MAFE4ImagesEEG,001,200970,
AFNE01.JPG,AFNE01.JPG,AFNE01.JPG,AFNE01.JPG,AFNE01.JPG,AFNE01.JPG,2,3,23,0,,,,,,,,,,,,,,,,,,,,,,,AMNE03.jpg,AMNE19.jpg,AMSA14.jpg,AMSA11.jpg,AMSA11.jpg,MS,2,num_4,32,num_8,1.01674391693,,,2017_Jul_19_1129,60.01218418,MAFE4ImagesEEG,001,200970,
AFNE01.JPG,AFNE01.JPG,AFNE01.JPG,AFNE01.JPG,AFNE01.JPG,AFNE01.JPG,2,4,24,4,,,,,,,,,,,,,,,,,,,,,,,AMNE08.jpg,AMSA15.jpg,AMNE03.jpg,AMSA16.jpg,AMSA16.jpg,MS,2,num_4,32,num_8,1.08342995631,,,2017_Jul_19_1129,60.01218418,MAFE4ImagesEEG,001,200970,
AFNE01.JPG,AFNE01.JPG,AFNE01.JPG,AFNE01.JPG,AFNE01.JPG,AFNE01.JPG,2,5,25,1,,,,,,,,,,,,,,,,,,,,,,,AMSA07.jpg,AMNE11.jpg,AMSA04.jpg,AMNE17.jpg,AMSA07.jpg,MS,2,num_8,16,num_8,1.09999040989,,,2017_Jul_19_1129,60.01218418,MAFE4ImagesEEG,001,200970,
AFNE01.JPG,AFNE01.JPG,AFNE01.JPG,AFNE01.JPG,AFNE01.JPG,AFNE01.JPG,2,6,26,5,,,,,,,,,,,,,,,,,,,,,,,AMSA09.jpg,AMNE07.jpg,AMSA04.jpg,AMNE05.jpg,AMNE05.jpg,MN,1,num_4,32,num_6,1.50011017424,,,2017_Jul_19_1129,60.01218418,MAFE4ImagesEEG,001,200970,
AFNE01.JPG,AFNE01.JPG,AFNE01.JPG,AFNE01.JPG,AFNE01.JPG,AFNE01.JPG,2,7,27,7,,,,,,,,,,,,,,,,,,,,,,,AMSA06.jpg,AMNE09.jpg,AMNE18.jpg,AMSA10.jpg,AMSA06.jpg,MS,2,num_8,16,num_8,2.0000384888,,,2017_Jul_19_1129,60.01218418,MAFE4ImagesEEG,001,200970,
AFNE01.JPG,AFNE01.JPG,AFNE01.JPG,AFNE01.JPG,AFNE01.JPG,AFNE01.JPG,2,8,28,6,,,,,,,,,,,,,,,,,,,,,,,AMSA08.jpg,AMSA01.jpg,AMNE10.jpg,AMNE03.jpg,AMNE10.jpg,MN,1,num_2,16,num_2,0.966750155319,,,2017_Jul_19_1129,60.01218418,MAFE4ImagesEEG,001,200970,
AFNE01.JPG,AFNE01.JPG,AFNE01.JPG,AFNE01.JPG,AFNE01.JPG,AFNE01.JPG,2,9,29,8,,,,,,,,,,,,,,,,,,,,,,,AMNE15.jpg,AMNE20.jpg,AMSA13.jpg,AMSA09.jpg,AMSA13.jpg,MS,2,num_2,32,num_6,1.53339818699,,,2017_Jul_19_1129,60.01218418,MAFE4ImagesEEG,001,200970,
AFNE01.JPG,AFNE01.JPG,AFNE01.JPG,AFNE01.JPG,AFNE01.JPG,AFNE01.JPG,3,0,30,6,,,,,,,,,,,,,,,,,,,,,,,AMSA07.jpg,AMNE01.jpg,AMSA20.jpg,AMNE19.jpg,AMSA20.jpg,MS,2,num_2,32,num_4,0.70020806411,,,2017_Jul_19_1129,60.01218418,MAFE4ImagesEEG,001,200970,
AFNE01.JPG,AFNE01.JPG,AFNE01.JPG,AFNE01.JPG,AFNE01.JPG,AFNE01.JPG,3,1,31,4,,,,,,,,,,,,,,,,,,,,,,,AMSA19.jpg,AMNE10.jpg,AMNE01.jpg,AMSA17.jpg,AMSA17.jpg,MS,2,num_4,32,num_8,0.85010788092,,,2017_Jul_19_1129,60.01218418,MAFE4ImagesEEG,001,200970,
AFNE01.JPG,AFNE01.JPG,AFNE01.JPG,AFNE01.JPG,AFNE01.JPG,AFNE01.JPG,3,2,32,7,,,,,,,,,,,,,,,,,,,,,,,AMNE20.jpg,AMNE06.jpg,AMSA15.jpg,AMSA13.jpg,AMNE06.jpg,MN,1,num_6,32,num_8,1.28348486699,,,2017_Jul_19_1129,60.01218418,MAFE4ImagesEEG,001,200970,
AFNE01.JPG,AFNE01.JPG,AFNE01.JPG,AFNE01.JPG,AFNE01.JPG,AFNE01.JPG,3,3,33,3,,,,,,,,,,,,,,,,,,,,,,,AMNE13.jpg,AMSA09.jpg,AMNE08.jpg,AMSA13.jpg,AMNE13.jpg,MN,1,num_8,32,num_4,0.733492227999,,,2017_Jul_19_1129,60.01218418,MAFE4ImagesEEG,001,200970,
AFNE01.JPG,AFNE01.JPG,AFNE01.JPG,AFNE01.JPG,AFNE01.JPG,AFNE01.JPG,3,4,34,0,,,,,,,,,,,,,,,,,,,,,,,AMNE18.jpg,AMSA08.jpg,AMNE07.jpg,AMSA13.jpg,AMSA13.jpg,MS,2,num_4,32,num_2,0.816777209751,,,2017_Jul_19_1129,60.01218418,MAFE4ImagesEEG,001,200970,
AFNE01.JPG,AFNE01.JPG,AFNE01.JPG,AFNE01.JPG,AFNE01.JPG,AFNE01.JPG,3,5,35,9,,,,,,,,,,,,,,,,,,,,,,,AMSA03.jpg,AMNE18.jpg,AMSA04.jpg,AMNE09.jpg,AMSA03.jpg,MS,2,num_8,32,num_2,0.800182436971,,,2017_Jul_19_1129,60.01218418,MAFE4ImagesEEG,001,200970,
AFNE01.JPG,AFNE01.JPG,AFNE01.JPG,AFNE01.JPG,AFNE01.JPG,AFNE01.JPG,3,6,36,1,,,,,,,,,,,,,,,,,,,,,,,AMNE13.jpg,AMNE19.jpg,AMSA05.jpg,AMSA12.jpg,AMSA05.jpg,MS,2,num_2,32,num_6,1.13345418821,,,2017_Jul_19_1129,60.01218418,MAFE4ImagesEEG,001,200970,
AFNE01.JPG,AFNE01.JPG,AFNE01.JPG,AFNE01.JPG,AFNE01.JPG,AFNE01.JPG,3,7,37,8,,,,,,,,,,,,,,,,,,,,,,,AMNE01.jpg,AMSA15.jpg,AMSA12.jpg,AMNE02.jpg,AMNE02.jpg,MN,1,num_4,32,num_2,1.40008287923,,,2017_Jul_19_1129,60.01218418,MAFE4ImagesEEG,001,200970,
AFNE01.JPG,AFNE01.JPG,AFNE01.JPG,AFNE01.JPG,AFNE01.JPG,AFNE01.JPG,3,8,38,2,,,,,,,,,,,,,,,,,,,,,,,AMNE16.jpg,AMNE06.jpg,AMSA17.jpg,AMSA04.jpg,AMSA17.jpg,MS,2,num_2,16,num_2,1.36673873698,,,2017_Jul_19_1129,60.01218418,MAFE4ImagesEEG,001,200970,
AFNE01.JPG,AFNE01.JPG,AFNE01.JPG,AFNE01.JPG,AFNE01.JPG,AFNE01.JPG,3,9,39,5,,,,,,,,,,,,,,,,,,,,,,,AMNE14.jpg,AMSA20.jpg,AMNE13.jpg,AMSA15.jpg,AMSA15.jpg,MS,2,num_4,32,num_8,1.05009511547,,,2017_Jul_19_1129,60.01218418,MAFE4ImagesEEG,001,200970,
AFNE01.JPG,AFNE01.JPG,AFNE01.JPG,AFNE01.JPG,AFNE01.JPG,AFNE01.JPG,4,0,40,9,,,,,,,,,,,,,,,,,,,,,,,AMSA02.jpg,AMNE18.jpg,AMSA15.jpg,AMNE19.jpg,AMSA15.jpg,MS,2,num_2,16,num_2,1.05009415324,,,2017_Jul_19_1129,60.01218418,MAFE4ImagesEEG,001,200970,
AFNE01.JPG,AFNE01.JPG,AFNE01.JPG,AFNE01.JPG,AFNE01.JPG,AFNE01.JPG,4,1,41,4,,,,,,,,,,,,,,,,,,,,,,,AMSA20.jpg,AMNE08.jpg,AMNE14.jpg,AMSA14.jpg,AMSA14.jpg,MS,2,num_4,16,num_4,0.816614915238,,,2017_Jul_19_1129,60.01218418,MAFE4ImagesEEG,001,200970,
AFNE01.JPG,AFNE01.JPG,AFNE01.JPG,AFNE01.JPG,AFNE01.JPG,AFNE01.JPG,4,2,42,6,,,,,,,,,,,,,,,,,,,,,,,AMNE16.jpg,AMNE19.jpg,AMSA20.jpg,AMSA17.jpg,AMNE19.jpg,MN,1,num_6,32,num_4,0.833503485948,,,2017_Jul_19_1129,60.01218418,MAFE4ImagesEEG,001,200970,
AFNE01.JPG,AFNE01.JPG,AFNE01.JPG,AFNE01.JPG,AFNE01.JPG,AFNE01.JPG,4,3,43,1,,,,,,,,,,,,,,,,,,,,,,,AMNE13.jpg,AMSA17.jpg,AMNE19.jpg,AMSA06.jpg,AMNE13.jpg,MN,1,num_8,32,num_6,0.666790472344,,,2017_Jul_19_1129,60.01218418,MAFE4ImagesEEG,001,200970,
AFNE01.JPG,AFNE01.JPG,AFNE01.JPG,AFNE01.JPG,AFNE01.JPG,AFNE01.JPG,4,4,44,5,,,,,,,,,,,,,,,,,,,,,,,AMSA01.jpg,AMSA14.jpg,AMNE13.jpg,AMNE12.jpg,AMSA14.jpg,MS,2,num_6,32,num_2,1.43368746247,,,2017_Jul_19_1129,60.01218418,MAFE4ImagesEEG,001,200970,
AFNE01.JPG,AFNE01.JPG,AFNE01.JPG,AFNE01.JPG,AFNE01.JPG,AFNE01.JPG,4,5,45,0,,,,,,,,,,,,,,,,,,,,,,,AMNE20.jpg,AMNE12.jpg,AMSA19.jpg,AMSA20.jpg,AMSA20.jpg,MS,2,num_4,16,num_4,0.583474699524,,,2017_Jul_19_1129,60.01218418,MAFE4ImagesEEG,001,200970,
AFNE01.JPG,AFNE01.JPG,AFNE01.JPG,AFNE01.JPG,AFNE01.JPG,AFNE01.JPG,4,6,46,3,,,,,,,,,,,,,,,,,,,,,,,AMNE10.jpg,AMNE14.jpg,AMSA07.jpg,AMSA03.jpg,AMSA07.jpg,MS,2,num_2,32,num_4,1.10014276142,,,2017_Jul_19_1129,60.01218418,MAFE4ImagesEEG,001,200970,
AFNE01.JPG,AFNE01.JPG,AFNE01.JPG,AFNE01.JPG,AFNE01.JPG,AFNE01.JPG,4,7,47,2,,,,,,,,,,,,,,,,,,,,,,,AMNE06.jpg,AMSA03.jpg,AMNE11.jpg,AMSA19.jpg,AMNE11.jpg,MN,1,num_2,16,num_2,1.10008727337,,,2017_Jul_19_1129,60.01218418,MAFE4ImagesEEG,001,200970,
AFNE01.JPG,AFNE01.JPG,AFNE01.JPG,AFNE01.JPG,AFNE01.JPG,AFNE01.JPG,4,8,48,7,,,,,,,,,,,,,,,,,,,,,,,AMSA19.jpg,AMNE12.jpg,AMSA09.jpg,AMNE13.jpg,AMNE13.jpg,MN,1,num_4,16,num_4,1.28342296416,,,2017_Jul_19_1129,60.01218418,MAFE4ImagesEEG,001,200970,
AFNE01.JPG,AFNE01.JPG,AFNE01.JPG,AFNE01.JPG,AFNE01.JPG,AFNE01.JPG,4,9,49,8,,,,,,,,,,,,,,,,,,,,,,,AMNE17.jpg,AMSA07.jpg,AMSA01.jpg,AMNE13.jpg,AMSA07.jpg,MS,2,num_6,16,num_6,0.733493510925,,,2017_Jul_19_1129,60.01218418,MAFE4ImagesEEG,001,200970,
AFNE01.JPG,AFNE01.JPG,AFNE01.JPG,AFNE01.JPG,AFNE01.JPG,AFNE01.JPG,5,0,50,2,,,,,,,,,,,,,,,,,,,,,,,AMNE17.jpg,AMNE02.jpg,AMSA20.jpg,AMSA05.jpg,AMNE17.jpg,MN,1,num_8,16,num_8,1.06680888284,,,2017_Jul_19_1129,60.01218418,MAFE4ImagesEEG,001,200970,
AFNE01.JPG,AFNE01.JPG,AFNE01.JPG,AFNE01.JPG,AFNE01.JPG,AFNE01.JPG,5,1,51,6,,,,,,,,,,,,,,,,,,,,,,,AMNE19.jpg,AMSA03.jpg,AMNE01.jpg,AMSA12.jpg,AMNE19.jpg,MN,1,num_8,16,num_8,0.866750443995,,,2017_Jul_19_1129,60.01218418,MAFE4ImagesEEG,001,200970,
AFNE01.JPG,AFNE01.JPG,AFNE01.JPG,AFNE01.JPG,AFNE01.JPG,AFNE01.JPG,5,2,52,7,,,,,,,,,,,,,,,,,,,,,,,AMNE08.jpg,AMSA08.jpg,AMSA16.jpg,AMNE04.jpg,AMNE04.jpg,MN,1,num_4,16,num_4,0.83348905266,,,2017_Jul_19_1129,60.01218418,MAFE4ImagesEEG,001,200970,
AFNE01.JPG,AFNE01.JPG,AFNE01.JPG,AFNE01.JPG,AFNE01.JPG,AFNE01.JPG,5,3,53,5,,,,,,,,,,,,,,,,,,,,,,,AMNE05.jpg,AMNE19.jpg,AMSA05.jpg,AMSA03.jpg,AMNE05.jpg,MN,1,num_8,16,num_8,1.01676027468,,,2017_Jul_19_1129,60.01218418,MAFE4ImagesEEG,001,200970,
AFNE01.JPG,AFNE01.JPG,AFNE01.JPG,AFNE01.JPG,AFNE01.JPG,AFNE01.JPG,5,4,54,0,,,,,,,,,,,,,,,,,,,,,,,AMSA19.jpg,AMNE11.jpg,AMNE07.jpg,AMSA14.jpg,AMNE11.jpg,MN,1,num_6,32,num_8,1.00015171006,,,2017_Jul_19_1129,60.01218418,MAFE4ImagesEEG,001,200970,
AFNE01.JPG,AFNE01.JPG,AFNE01.JPG,AFNE01.JPG,AFNE01.JPG,AFNE01.JPG,5,5,55,9,,,,,,,,,,,,,,,,,,,,,,,AMSA03.jpg,AMSA12.jpg,AMNE03.jpg,AMNE13.jpg,AMNE13.jpg,MN,1,num_4,32,num_8,1.61675341081,,,2017_Jul_19_1129,60.01218418,MAFE4ImagesEEG,001,200970,
AFNE01.JPG,AFNE01.JPG,AFNE01.JPG,AFNE01.JPG,AFNE01.JPG,AFNE01.JPG,5,6,56,8,,,,,,,,,,,,,,,,,,,,,,,AMSA15.jpg,AMSA01.jpg,AMNE17.jpg,AMNE10.jpg,AMSA15.jpg,MS,2,num_8,16,num_8,0.850140275696,,,2017_Jul_19_1129,60.01218418,MAFE4ImagesEEG,001,200970,
AFNE01.JPG,AFNE01.JPG,AFNE01.JPG,AFNE01.JPG,AFNE01.JPG,AFNE01.JPG,5,7,57,3,,,,,,,,,,,,,,,,,,,,,,,AMSA16.jpg,AMNE01.jpg,AMNE10.jpg,AMSA15.jpg,AMSA16.jpg,MS,2,num_8,16,num_8,0.883458758763,,,2017_Jul_19_1129,60.01218418,MAFE4ImagesEEG,001,200970,
AFNE01.JPG,AFNE01.JPG,AFNE01.JPG,AFNE01.JPG,AFNE01.JPG,AFNE01.JPG,5,8,58,4,,,,,,,,,,,,,,,,,,,,,,,AMNE07.jpg,AMSA11.jpg,AMSA04.jpg,AMNE14.jpg,AMSA04.jpg,MS,2,num_2,16,num_2,0.883451061003,,,2017_Jul_19_1129,60.01218418,MAFE4ImagesEEG,001,200970,
AFNE01.JPG,AFNE01.JPG,AFNE01.JPG,AFNE01.JPG,AFNE01.JPG,AFNE01.JPG,5,9,59,1,,,,,,,,,,,,,,,,,,,,,,,AMSA14.jpg,AMSA06.jpg,AMNE13.jpg,AMNE15.jpg,AMNE13.jpg,MN,1,num_2,32,num_6,1.05011147325,,,2017_Jul_19_1129,60.01218418,MAFE4ImagesEEG,001,200970,
,,,,,,,,,,,,,,,,,,,,,,,,,,,,,,,,,,,,,,,,,,,space,78.6105275245,2017_Jul_19_1129,60.01218418,MAFE4ImagesEEG,001,200970,
AFNE01.JPG,AFNE01.JPG,AFNE01.JPG,AFNE01.JPG,AFNE01.JPG,AFNE01.JPG,,,,,0,0,0,9,,,,,,,,,,,,,,,,,,,AFNE18.jpg,AFSA04.jpg,AFSA16.jpg,AFNE03.jpg,AFSA16.jpg,FS,4,num_2,32,num_4,0.933409220452,,,2017_Jul_19_1129,60.01218418,MAFE4ImagesEEG,001,200970,
AFNE01.JPG,AFNE01.JPG,AFNE01.JPG,AFNE01.JPG,AFNE01.JPG,AFNE01.JPG,,,,,0,1,1,3,,,,,,,,,,,,,,,,,,,AFNE15.jpg,AFSA02.jpg,AFNE02.jpg,AFSA08.jpg,AFSA08.jpg,FS,4,num_4,32,num_8,0.916761525557,,,2017_Jul_19_1129,60.01218418,MAFE4ImagesEEG,001,200970,
AFNE01.JPG,AFNE01.JPG,AFNE01.JPG,AFNE01.JPG,AFNE01.JPG,AFNE01.JPG,,,,,0,2,2,6,,,,,,,,,,,,,,,,,,,AFSA16.jpg,AFNE08.jpg,AFNE10.jpg,AFSA14.jpg,AFNE10.jpg,FN,3,num_2,16,num_2,1.23344171143,,,2017_Jul_19_1129,60.01218418,MAFE4ImagesEEG,001,200970,
AFNE01.JPG,AFNE01.JPG,AFNE01.JPG,AFNE01.JPG,AFNE01.JPG,AFNE01.JPG,,,,,0,3,3,1,,,,,,,,,,,,,,,,,,,AFNE01.jpg,AFNE02.jpg,AFSA01.jpg,AFSA02.jpg,AFNE01.jpg,FN,3,num_8,32,num_6,1.01681031013,,,2017_Jul_19_1129,60.01218418,MAFE4ImagesEEG,001,200970,
AFNE01.JPG,AFNE01.JPG,AFNE01.JPG,AFNE01.JPG,AFNE01.JPG,AFNE01.JPG,,,,,0,4,4,8,,,,,,,,,,,,,,,,,,,AFNE07.jpg,AFSA01.jpg,AFSA02.jpg,AFNE04.jpg,AFSA02.jpg,FS,4,num_2,32,num_4,0.7334819643,,,2017_Jul_19_1129,60.01218418,MAFE4ImagesEEG,001,200970,
AFNE01.JPG,AFNE01.JPG,AFNE01.JPG,AFNE01.JPG,AFNE01.JPG,AFNE01.JPG,,,,,0,5,5,7,,,,,,,,,,,,,,,,,,,AFSA05.jpg,AFSA16.jpg,AFNE01.jpg,AFNE07.jpg,AFSA16.jpg,FS,4,num_6,32,num_4,1.03341598806,,,2017_Jul_19_1129,60.01218418,MAFE4ImagesEEG,001,200970,
AFNE01.JPG,AFNE01.JPG,AFNE01.JPG,AFNE01.JPG,AFNE01.JPG,AFNE01.JPG,,,,,0,6,6,5,,,,,,,,,,,,,,,,,,,AFNE12.jpg,AFSA03.jpg,AFSA14.jpg,AFNE10.jpg,AFNE12.jpg,FN,3,num_8,16,num_8,1.30006360277,,,2017_Jul_19_1129,60.01218418,MAFE4ImagesEEG,001,200970,
AFNE01.JPG,AFNE01.JPG,AFNE01.JPG,AFNE01.JPG,AFNE01.JPG,AFNE01.JPG,,,,,0,7,7,2,,,,,,,,,,,,,,,,,,,AFSA17.jpg,AFNE01.jpg,AFSA06.jpg,AFNE03.jpg,AFNE03.jpg,FN,3,num_4,16,num_4,0.550137292797,,,2017_Jul_19_1129,60.01218418,MAFE4ImagesEEG,001,200970,
AFNE01.JPG,AFNE01.JPG,AFNE01.JPG,AFNE01.JPG,AFNE01.JPG,AFNE01.JPG,,,,,0,8,8,0,,,,,,,,,,,,,,,,,,,AFNE15.jpg,AFSA10.jpg,AFNE17.jpg,AFSA16.jpg,AFSA16.jpg,FS,4,num_4,16,num_4,0.500114664581,,,2017_Jul_19_1129,60.01218418,MAFE4ImagesEEG,001,200970,
AFNE01.JPG,AFNE01.JPG,AFNE01.JPG,AFNE01.JPG,AFNE01.JPG,AFNE01.JPG,,,,,0,9,9,4,,,,,,,,,,,,,,,,,,,AFSA15.jpg,AFSA03.jpg,AFNE03.jpg,AFNE01.jpg,AFSA15.jpg,FS,4,num_8,16,num_8,0.833443186828,,,2017_Jul_19_1129,60.01218418,MAFE4ImagesEEG,001,200970,
AFNE01.JPG,AFNE01.JPG,AFNE01.JPG,AFNE01.JPG,AFNE01.JPG,AFNE01.JPG,,,,,1,0,10,1,,,,,,,,,,,,,,,,,,,AFSA20.jpg,AFNE05.jpg,AFNE03.jpg,AFSA10.jpg,AFNE05.jpg,FN,3,num_6,32,num_2,0.850041166996,,,2017_Jul_19_1129,60.01218418,MAFE4ImagesEEG,001,200970,
AFNE01.JPG,AFNE01.JPG,AFNE01.JPG,AFNE01.JPG,AFNE01.JPG,AFNE01.JPG,,,,,1,1,11,7,,,,,,,,,,,,,,,,,,,AFSA14.jpg,AFNE12.jpg,AFSA01.jpg,AFNE17.jpg,AFNE17.jpg,FN,3,num_4,32,num_8,1.06709786967,,,2017_Jul_19_1129,60.01218418,MAFE4ImagesEEG,001,200970,
AFNE01.JPG,AFNE01.JPG,AFNE01.JPG,AFNE01.JPG,AFNE01.JPG,AFNE01.JPG,,,,,1,2,12,4,,,,,,,,,,,,,,,,,,,AFNE09.jpg,AFSA08.jpg,AFNE17.jpg,AFSA11.jpg,AFNE17.jpg,FN,3,num_2,32,num_8,1.73340210001,,,2017_Jul_19_1129,60.01218418,MAFE4ImagesEEG,001,200970,
AFNE01.JPG,AFNE01.JPG,AFNE01.JPG,AFNE01.JPG,AFNE01.JPG,AFNE01.JPG,,,,,1,3,13,0,,,,,,,,,,,,,,,,,,,AFSA15.jpg,AFNE18.jpg,AFNE01.jpg,AFSA14.jpg,AFNE18.jpg,FN,3,num_6,16,num_6,0.950045368692,,,2017_Jul_19_1129,60.01218418,MAFE4ImagesEEG,001,200970,
AFNE01.JPG,AFNE01.JPG,AFNE01.JPG,AFNE01.JPG,AFNE01.JPG,AFNE01.JPG,,,,,1,4,14,9,,,,,,,,,,,,,,,,,,,AFNE08.jpg,AFNE09.jpg,AFSA02.jpg,AFSA15.jpg,AFNE08.jpg,FN,3,num_8,16,num_8,0.983401057631,,,2017_Jul_19_1129,60.01218418,MAFE4ImagesEEG,001,200970,
AFNE01.JPG,AFNE01.JPG,AFNE01.JPG,AFNE01.JPG,AFNE01.JPG,AFNE01.JPG,,,,,1,5,15,5,,,,,,,,,,,,,,,,,,,AFNE17.jpg,AFNE03.jpg,AFSA06.jpg,AFSA17.jpg,AFSA06.jpg,FS,4,num_2,16,num_2,0.900113830663,,,2017_Jul_19_1129,60.01218418,MAFE4ImagesEEG,001,200970,
AFNE01.JPG,AFNE01.JPG,AFNE01.JPG,AFNE01.JPG,AFNE01.JPG,AFNE01.JPG,,,,,1,6,16,3,,,,,,,,,,,,,,,,,,,AFSA18.jpg,AFNE02.jpg,AFNE17.jpg,AFSA04.jpg,AFSA04.jpg,FS,4,num_4,16,num_4,1.05007073923,,,2017_Jul_19_1129,60.01218418,MAFE4ImagesEEG,001,200970,
AFNE01.JPG,AFNE01.JPG,AFNE01.JPG,AFNE01.JPG,AFNE01.JPG,AFNE01.JPG,,,,,1,7,17,6,,,,,,,,,,,,,,,,,,,AFSA13.jpg,AFNE09.jpg,AFNE07.jpg,AFSA10.jpg,AFSA13.jpg,FS,4,num_8,16,num_8,0.850015187054,,,2017_Jul_19_1129,60.01218418,MAFE4ImagesEEG,001,200970,
AFNE01.JPG,AFNE01.JPG,AFNE01.JPG,AFNE01.JPG,AFNE01.JPG,AFNE01.JPG,,,,,1,8,18,8,,,,,,,,,,,,,,,,,,,AFSA02.jpg,AFNE10.jpg,AFSA09.jpg,AFNE11.jpg,AFNE10.jpg,FN,3,num_6,16,num_6,0.683442336856,,,2017_Jul_19_1129,60.01218418,MAFE4ImagesEEG,001,200970,
AFNE01.JPG,AFNE01.JPG,AFNE01.JPG,AFNE01.JPG,AFNE01.JPG,AFNE01.JPG,,,,,1,9,19,2,,,,,,,,,,,,,,,,,,,AFNE04.jpg,AFNE08.jpg,AFSA03.jpg,AFSA07.jpg,AFSA07.jpg,FS,4,num_4,32,num_8,1.00007120433,,,2017_Jul_19_1129,60.01218418,MAFE4ImagesEEG,001,200970,
AFNE01.JPG,AFNE01.JPG,AFNE01.JPG,AFNE01.JPG,AFNE01.JPG,AFNE01.JPG,,,,,2,0,20,5,,,,,,,,,,,,,,,,,,,AFSA05.jpg,AFSA07.jpg,AFNE15.jpg,AFNE05.jpg,AFNE15.jpg,FN,3,num_2,16,num_2,0.550143707602,,,2017_Jul_19_1129,60.01218418,MAFE4ImagesEEG,001,200970,
AFNE01.JPG,AFNE01.JPG,AFNE01.JPG,AFNE01.JPG,AFNE01.JPG,AFNE01.JPG,,,,,2,1,21,3,,,,,,,,,,,,,,,,,,,AFNE15.jpg,AFNE16.jpg,AFSA06.jpg,AFSA19.jpg,AFSA19.jpg,FS,4,num_4,16,num_4,0.70015899089,,,2017_Jul_19_1129,60.01218418,MAFE4ImagesEEG,001,200970,
AFNE01.JPG,AFNE01.JPG,AFNE01.JPG,AFNE01.JPG,AFNE01.JPG,AFNE01.JPG,,,,,2,2,22,8,,,,,,,,,,,,,,,,,,,AFSA08.jpg,AFNE04.jpg,AFNE15.jpg,AFSA01.jpg,AFNE15.jpg,FN,3,num_2,16,num_2,0.90015584763,,,2017_Jul_19_1129,60.01218418,MAFE4ImagesEEG,001,200970,
AFNE01.JPG,AFNE01.JPG,AFNE01.JPG,AFNE01.JPG,AFNE01.JPG,AFNE01.JPG,,,,,2,3,23,7,,,,,,,,,,,,,,,,,,,AFNE11.jpg,AFSA20.jpg,AFSA19.jpg,AFNE15.jpg,AFSA20.jpg,FS,4,num_6,32,num_8,1.03343587395,,,2017_Jul_19_1129,60.01218418,MAFE4ImagesEEG,001,200970,
AFNE01.JPG,AFNE01.JPG,AFNE01.JPG,AFNE01.JPG,AFNE01.JPG,AFNE01.JPG,,,,,2,4,24,0,,,,,,,,,,,,,,,,,,,AFSA09.jpg,AFSA07.jpg,AFNE14.jpg,AFNE18.jpg,AFSA07.jpg,FS,4,num_6,32,num_8,0.900119283237,,,2017_Jul_19_1129,60.01218418,MAFE4ImagesEEG,001,200970,
AFNE01.JPG,AFNE01.JPG,AFNE01.JPG,AFNE01.JPG,AFNE01.JPG,AFNE01.JPG,,,,,2,5,25,9,,,,,,,,,,,,,,,,,,,AFNE18.jpg,AFNE11.jpg,AFSA15.jpg,AFSA05.jpg,AFNE18.jpg,FN,3,num_8,32,num_6,1.3000982427,,,2017_Jul_19_1129,60.01218418,MAFE4ImagesEEG,001,200970,
AFNE01.JPG,AFNE01.JPG,AFNE01.JPG,AFNE01.JPG,AFNE01.JPG,AFNE01.JPG,,,,,2,6,26,1,,,,,,,,,,,,,,,,,,,AFNE07.jpg,AFSA17.jpg,AFNE05.jpg,AFSA19.jpg,AFSA19.jpg,FS,4,num_4,32,num_2,0.800146834808,,,2017_Jul_19_1129,60.01218418,MAFE4ImagesEEG,001,200970,
AFNE01.JPG,AFNE01.JPG,AFNE01.JPG,AFNE01.JPG,AFNE01.JPG,AFNE01.JPG,,,,,2,7,27,4,,,,,,,,,,,,,,,,,,,AFSA02.jpg,AFSA15.jpg,AFNE05.jpg,AFNE18.jpg,AFSA02.jpg,FS,4,num_8,16,num_8,0.750119395496,,,2017_Jul_19_1129,60.01218418,MAFE4ImagesEEG,001,200970,
AFNE01.JPG,AFNE01.JPG,AFNE01.JPG,AFNE01.JPG,AFNE01.JPG,AFNE01.JPG,,,,,2,8,28,6,,,,,,,,,,,,,,,,,,,AFNE09.jpg,AFNE04.jpg,AFSA17.jpg,AFSA07.jpg,AFSA17.jpg,FS,4,num_2,16,num_2,0.650162984093,,,2017_Jul_19_1129,60.01218418,MAFE4ImagesEEG,001,200970,
AFNE01.JPG,AFNE01.JPG,AFNE01.JPG,AFNE01.JPG,AFNE01.JPG,AFNE01.JPG,,,,,2,9,29,2,,,,,,,,,,,,,,,,,,,AFSA01.jpg,AFNE01.jpg,AFNE12.jpg,AFSA19.jpg,AFSA19.jpg,FS,4,num_4,32,num_8,0.750176487258,,,2017_Jul_19_1129,60.01218418,MAFE4ImagesEEG,001,200970,
AFNE01.JPG,AFNE01.JPG,AFNE01.JPG,AFNE01.JPG,AFNE01.JPG,AFNE01.JPG,,,,,3,0,30,8,,,,,,,,,,,,,,,,,,,AFNE14.jpg,AFNE05.jpg,AFSA16.jpg,AFSA02.jpg,AFSA16.jpg,FS,4,num_2,32,num_6,0.716774611763,,,2017_Jul_19_1129,60.01218418,MAFE4ImagesEEG,001,200970,
AFNE01.JPG,AFNE01.JPG,AFNE01.JPG,AFNE01.JPG,AFNE01.JPG,AFNE01.JPG,,,,,3,1,31,9,,,,,,,,,,,,,,,,,,,AFSA10.jpg,AFSA17.jpg,AFNE13.jpg,AFNE14.jpg,AFNE13.jpg,FN,3,num_2,32,num_6,0.700107672455,,,2017_Jul_19_1129,60.01218418,MAFE4ImagesEEG,001,200970,
AFNE01.JPG,AFNE01.JPG,AFNE01.JPG,AFNE01.JPG,AFNE01.JPG,AFNE01.JPG,,,,,3,2,32,7,,,,,,,,,,,,,,,,,,,AFNE05.jpg,AFSA20.jpg,AFNE01.jpg,AFSA14.jpg,AFNE01.jpg,FN,3,num_2,32,num_8,1.05017690419,,,2017_Jul_19_1129,60.01218418,MAFE4ImagesEEG,001,200970,
AFNE01.JPG,AFNE01.JPG,AFNE01.JPG,AFNE01.JPG,AFNE01.JPG,AFNE01.JPG,,,,,3,3,33,2,,,,,,,,,,,,,,,,,,,AFSA04.jpg,AFSA11.jpg,AFNE10.jpg,AFNE19.jpg,AFNE19.jpg,FN,3,num_4,32,num_6,0.800121817098,,,2017_Jul_19_1129,60.01218418,MAFE4ImagesEEG,001,200970,
AFNE01.JPG,AFNE01.JPG,AFNE01.JPG,AFNE01.JPG,AFNE01.JPG,AFNE01.JPG,,,,,3,4,34,1,,,,,,,,,,,,,,,,,,,AFSA01.jpg,AFNE17.jpg,AFNE15.jpg,AFSA09.jpg,AFNE17.jpg,FN,3,num_6,32,num_8,0.783380145353,,,2017_Jul_19_1129,60.01218418,MAFE4ImagesEEG,001,200970,
AFNE01.JPG,AFNE01.JPG,AFNE01.JPG,AFNE01.JPG,AFNE01.JPG,AFNE01.JPG,,,,,3,5,35,5,,,,,,,,,,,,,,,,,,,AFNE01.jpg,AFNE20.jpg,AFSA16.jpg,AFSA06.jpg,AFNE20.jpg,FN,3,num_6,16,num_6,1.116752609,,,2017_Jul_19_1129,60.01218418,MAFE4ImagesEEG,001,200970,
AFNE01.JPG,AFNE01.JPG,AFNE01.JPG,AFNE01.JPG,AFNE01.JPG,AFNE01.JPG,,,,,3,6,36,3,,,,,,,,,,,,,,,,,,,AFSA16.jpg,AFNE10.jpg,AFSA15.jpg,AFNE14.jpg,AFNE14.jpg,FN,3,num_4,16,num_4,0.6336480756,,,2017_Jul_19_1129,60.01218418,MAFE4ImagesEEG,001,200970,
AFNE01.JPG,AFNE01.JPG,AFNE01.JPG,AFNE01.JPG,AFNE01.JPG,AFNE01.JPG,,,,,3,7,37,6,,,,,,,,,,,,,,,,,,,AFSA20.jpg,AFNE20.jpg,AFNE04.jpg,AFSA08.jpg,AFNE04.jpg,FN,3,num_2,16,num_2,1.01684366708,,,2017_Jul_19_1129,60.01218418,MAFE4ImagesEEG,001,200970,
AFNE01.JPG,AFNE01.JPG,AFNE01.JPG,AFNE01.JPG,AFNE01.JPG,AFNE01.JPG,,,,,3,8,38,0,,,,,,,,,,,,,,,,,,,AFSA16.jpg,AFNE03.jpg,AFSA04.jpg,AFNE07.jpg,AFSA16.jpg,FS,4,num_8,32,num_6,0.883484097227,,,2017_Jul_19_1129,60.01218418,MAFE4ImagesEEG,001,200970,
AFNE01.JPG,AFNE01.JPG,AFNE01.JPG,AFNE01.JPG,AFNE01.JPG,AFNE01.JPG,,,,,3,9,39,4,,,,,,,,,,,,,,,,,,,AFSA13.jpg,AFNE08.jpg,AFNE09.jpg,AFSA16.jpg,AFNE08.jpg,FN,3,num_6,32,num_2,1.20008634322,,,2017_Jul_19_1129,60.01218418,MAFE4ImagesEEG,001,200970,
AFNE01.JPG,AFNE01.JPG,AFNE01.JPG,AFNE01.JPG,AFNE01.JPG,AFNE01.JPG,,,,,4,0,40,7,,,,,,,,,,,,,,,,,,,AFNE12.jpg,AFSA20.jpg,AFSA17.jpg,AFNE04.jpg,AFNE12.jpg,FN,3,num_8,16,num_8,0.616767844156,,,2017_Jul_19_1129,60.01218418,MAFE4ImagesEEG,001,200970,
AFNE01.JPG,AFNE01.JPG,AFNE01.JPG,AFNE01.JPG,AFNE01.JPG,AFNE01.JPG,,,,,4,1,41,0,,,,,,,,,,,,,,,,,,,AFSA20.jpg,AFNE09.jpg,AFNE06.jpg,AFSA11.jpg,AFNE09.jpg,FN,3,num_6,16,num_6,0.666753907979,,,2017_Jul_19_1129,60.01218418,MAFE4ImagesEEG,001,200970,
AFNE01.JPG,AFNE01.JPG,AFNE01.JPG,AFNE01.JPG,AFNE01.JPG,AFNE01.JPG,,,,,4,2,42,5,,,,,,,,,,,,,,,,,,,AFSA03.jpg,AFNE12.jpg,AFSA16.jpg,AFNE13.jpg,AFSA03.jpg,FS,4,num_8,16,num_8,1.00010488203,,,2017_Jul_19_1129,60.01218418,MAFE4ImagesEEG,001,200970,
AFNE01.JPG,AFNE01.JPG,AFNE01.JPG,AFNE01.JPG,AFNE01.JPG,AFNE01.JPG,,,,,4,3,43,4,,,,,,,,,,,,,,,,,,,AFNE17.jpg,AFSA10.jpg,AFSA05.jpg,AFNE16.jpg,AFSA05.jpg,FS,4,num_2,32,num_8,0.966763626406,,,2017_Jul_19_1129,60.01218418,MAFE4ImagesEEG,001,200970,
AFNE01.JPG,AFNE01.JPG,AFNE01.JPG,AFNE01.JPG,AFNE01.JPG,AFNE01.JPG,,,,,4,4,44,3,,,,,,,,,,,,,,,,,,,AFSA14.jpg,AFSA06.jpg,AFNE08.jpg,AFNE09.jpg,AFNE08.jpg,FN,3,num_2,32,num_8,1.03343779838,,,2017_Jul_19_1129,60.01218418,MAFE4ImagesEEG,001,200970,
AFNE01.JPG,AFNE01.JPG,AFNE01.JPG,AFNE01.JPG,AFNE01.JPG,AFNE01.JPG,,,,,4,5,45,9,,,,,,,,,,,,,,,,,,,AFNE04.jpg,AFSA03.jpg,AFNE07.jpg,AFSA04.jpg,AFNE04.jpg,FN,3,num_8,32,num_2,2.25004514417,,,2017_Jul_19_1129,60.01218418,MAFE4ImagesEEG,001,200970,
AFNE01.JPG,AFNE01.JPG,AFNE01.JPG,AFNE01.JPG,AFNE01.JPG,AFNE01.JPG,,,,,4,6,46,6,,,,,,,,,,,,,,,,,,,AFSA16.jpg,AFNE19.jpg,AFNE13.jpg,AFSA17.jpg,AFSA17.jpg,FS,4,num_4,16,num_4,0.550160706829,,,2017_Jul_19_1129,60.01218418,MAFE4ImagesEEG,001,200970,
AFNE01.JPG,AFNE01.JPG,AFNE01.JPG,AFNE01.JPG,AFNE01.JPG,AFNE01.JPG,,,,,4,7,47,8,,,,,,,,,,,,,,,,,,,AFSA20.jpg,AFNE13.jpg,AFNE04.jpg,AFSA07.jpg,AFNE04.jpg,FN,3,num_2,32,num_8,1.25009614186,,,2017_Jul_19_1129,60.01218418,MAFE4ImagesEEG,001,200970,
AFNE01.JPG,AFNE01.JPG,AFNE01.JPG,AFNE01.JPG,AFNE01.JPG,AFNE01.JPG,,,,,4,8,48,1,,,,,,,,,,,,,,,,,,,AFNE12.jpg,AFSA17.jpg,AFSA09.jpg,AFNE13.jpg,AFNE12.jpg,FN,3,num_8,16,num_8,0.666792396776,,,2017_Jul_19_1129,60.01218418,MAFE4ImagesEEG,001,200970,
AFNE01.JPG,AFNE01.JPG,AFNE01.JPG,AFNE01.JPG,AFNE01.JPG,AFNE01.JPG,,,,,4,9,49,2,,,,,,,,,,,,,,,,,,,AFNE18.jpg,AFSA16.jpg,AFNE16.jpg,AFSA18.jpg,AFSA18.jpg,FS,4,num_4,32,num_2,0.966758173832,,,2017_Jul_19_1129,60.01218418,MAFE4ImagesEEG,001,200970,
AFNE01.JPG,AFNE01.JPG,AFNE01.JPG,AFNE01.JPG,AFNE01.JPG,AFNE01.JPG,,,,,5,0,50,3,,,,,,,,,,,,,,,,,,,AFSA07.jpg,AFNE12.jpg,AFNE02.jpg,AFSA03.jpg,AFSA07.jpg,FS,4,num_8,16,num_8,0.98341388721,,,2017_Jul_19_1129,60.01218418,MAFE4ImagesEEG,001,200970,
AFNE01.JPG,AFNE01.JPG,AFNE01.JPG,AFNE01.JPG,AFNE01.JPG,AFNE01.JPG,,,,,5,1,51,9,,,,,,,,,,,,,,,,,,,AFSA19.jpg,AFSA05.jpg,AFNE07.jpg,AFNE14.jpg,AFNE07.jpg,FN,3,num_2,16,num_2,0.68350295673,,,2017_Jul_19_1129,60.01218418,MAFE4ImagesEEG,001,200970,
AFNE01.JPG,AFNE01.JPG,AFNE01.JPG,AFNE01.JPG,AFNE01.JPG,AFNE01.JPG,,,,,5,2,52,6,,,,,,,,,,,,,,,,,,,AFSA06.jpg,AFSA02.jpg,AFNE17.jpg,AFNE04.jpg,AFNE17.jpg,FN,3,num_2,32,num_6,1.18345468538,,,2017_Jul_19_1129,60.01218418,MAFE4ImagesEEG,001,200970,
AFNE01.JPG,AFNE01.JPG,AFNE01.JPG,AFNE01.JPG,AFNE01.JPG,AFNE01.JPG,,,,,5,3,53,7,,,,,,,,,,,,,,,,,,,AFSA07.jpg,AFNE18.jpg,AFSA20.jpg,AFNE05.jpg,AFNE18.jpg,FN,3,num_6,16,num_6,0.766751053394,,,2017_Jul_19_1129,60.01218418,MAFE4ImagesEEG,001,200970,
AFNE01.JPG,AFNE01.JPG,AFNE01.JPG,AFNE01.JPG,AFNE01.JPG,AFNE01.JPG,,,,,5,4,54,8,,,,,,,,,,,,,,,,,,,AFNE14.jpg,AFSA05.jpg,AFSA02.jpg,AFNE19.jpg,AFSA02.jpg,FS,4,num_2,16,num_2,0.900153602444,,,2017_Jul_19_1129,60.01218418,MAFE4ImagesEEG,001,200970,
AFNE01.JPG,AFNE01.JPG,AFNE01.JPG,AFNE01.JPG,AFNE01.JPG,AFNE01.JPG,,,,,5,5,55,2,,,,,,,,,,,,,,,,,,,AFNE11.jpg,AFNE13.jpg,AFSA11.jpg,AFSA09.jpg,AFSA11.jpg,FS,4,num_2,32,num_8,0.666785661248,,,2017_Jul_19_1129,60.01218418,MAFE4ImagesEEG,001,200970,
AFNE01.JPG,AFNE01.JPG,AFNE01.JPG,AFNE01.JPG,AFNE01.JPG,AFNE01.JPG,,,,,5,6,56,4,,,,,,,,,,,,,,,,,,,AFSA06.jpg,AFNE04.jpg,AFNE08.jpg,AFSA14.jpg,AFSA06.jpg,FS,4,num_8,16,num_8,0.800095516432,,,2017_Jul_19_1129,60.01218418,MAFE4ImagesEEG,001,200970,
AFNE01.JPG,AFNE01.JPG,AFNE01.JPG,AFNE01.JPG,AFNE01.JPG,AFNE01.JPG,,,,,5,7,57,1,,,,,,,,,,,,,,,,,,,AFNE01.jpg,AFNE06.jpg,AFSA09.jpg,AFSA07.jpg,AFNE06.jpg,FN,3,num_6,32,num_8,1.05012751021,,,2017_Jul_19_1129,60.01218418,MAFE4ImagesEEG,001,200970,
AFNE01.JPG,AFNE01.JPG,AFNE01.JPG,AFNE01.JPG,AFNE01.JPG,AFNE01.JPG,,,,,5,8,58,5,,,,,,,,,,,,,,,,,,,AFSA06.jpg,AFNE16.jpg,AFNE20.jpg,AFSA07.jpg,AFNE20.jpg,FN,3,num_2,32,num_6,0.93344867148,,,2017_Jul_19_1129,60.01218418,MAFE4ImagesEEG,001,200970,
AFNE01.JPG,AFNE01.JPG,AFNE01.JPG,AFNE01.JPG,AFNE01.JPG,AFNE01.JPG,,,,,5,9,59,0,,,,,,,,,,,,,,,,,,,AFNE13.jpg,AFSA04.jpg,AFNE14.jpg,AFSA17.jpg,AFNE14.jpg,FN,3,num_2,16,num_2,1.3167356739,,,2017_Jul_19_1129,60.01218418,MAFE4ImagesEEG,001,200970,
,,,,,,,,,,,,,,,,,,,,,,,,,,,,,,,,,,,,,,,,,,,space,19.998637496,2017_Jul_19_1129,60.01218418,MAFE4ImagesEEG,001,200970,
AFNE01.JPG,AFNE01.JPG,AFNE01.JPG,AFNE01.JPG,AFNE01.JPG,AFNE01.JPG,,,,,,,,,0,0,0,1,,,,,,,,,,,,,,,AMSA13.jpg,AMNE18.jpg,AMSA09.jpg,AMNE07.jpg,AMNE18.jpg,MN,1,num_6,32,num_2,2.58302694635,,,2017_Jul_19_1129,60.01218418,MAFE4ImagesEEG,001,200970,
AFNE01.JPG,AFNE01.JPG,AFNE01.JPG,AFNE01.JPG,AFNE01.JPG,AFNE01.JPG,,,,,,,,,0,1,1,5,,,,,,,,,,,,,,,AMNE13.jpg,AMNE01.jpg,AMSA07.jpg,AMSA08.jpg,AMNE01.jpg,MN,1,num_6,16,num_6,0.700082013238,,,2017_Jul_19_1129,60.01218418,MAFE4ImagesEEG,001,200970,
AFNE01.JPG,AFNE01.JPG,AFNE01.JPG,AFNE01.JPG,AFNE01.JPG,AFNE01.JPG,,,,,,,,,0,2,2,0,,,,,,,,,,,,,,,AMSA19.jpg,AMSA15.jpg,AMNE16.jpg,AMNE06.jpg,AMSA19.jpg,MS,2,num_8,16,num_8,0.783482140716,,,2017_Jul_19_1129,60.01218418,MAFE4ImagesEEG,001,200970,
AFNE01.JPG,AFNE01.JPG,AFNE01.JPG,AFNE01.JPG,AFNE01.JPG,AFNE01.JPG,,,,,,,,,0,3,3,2,,,,,,,,,,,,,,,AMNE19.jpg,AMNE07.jpg,AMSA15.jpg,AMSA04.jpg,AMSA15.jpg,MS,2,num_2,16,num_2,0.716810213926,,,2017_Jul_19_1129,60.01218418,MAFE4ImagesEEG,001,200970,
AFNE01.JPG,AFNE01.JPG,AFNE01.JPG,AFNE01.JPG,AFNE01.JPG,AFNE01.JPG,,,,,,,,,0,4,4,3,,,,,,,,,,,,,,,AMNE11.jpg,AMSA20.jpg,AMNE15.jpg,AMSA11.jpg,AMSA20.jpg,MS,2,num_6,32,num_8,1.03346506131,,,2017_Jul_19_1129,60.01218418,MAFE4ImagesEEG,001,200970,
AFNE01.JPG,AFNE01.JPG,AFNE01.JPG,AFNE01.JPG,AFNE01.JPG,AFNE01.JPG,,,,,,,,,0,5,5,8,,,,,,,,,,,,,,,AMSA06.jpg,AMSA05.jpg,AMNE19.jpg,AMNE04.jpg,AMSA05.jpg,MS,2,num_6,16,num_6,0.633490592212,,,2017_Jul_19_1129,60.01218418,MAFE4ImagesEEG,001,200970,
AFNE01.JPG,AFNE01.JPG,AFNE01.JPG,AFNE01.JPG,AFNE01.JPG,AFNE01.JPG,,,,,,,,,0,6,6,9,,,,,,,,,,,,,,,AMNE01.jpg,AMNE12.jpg,AMSA05.jpg,AMSA16.jpg,AMSA05.jpg,MS,2,num_2,16,num_2,0.683446506504,,,2017_Jul_19_1129,60.01218418,MAFE4ImagesEEG,001,200970,
AFNE01.JPG,AFNE01.JPG,AFNE01.JPG,AFNE01.JPG,AFNE01.JPG,AFNE01.JPG,,,,,,,,,0,7,7,7,,,,,,,,,,,,,,,AMNE08.jpg,AMNE13.jpg,AMSA14.jpg,AMSA11.jpg,AMNE13.jpg,MN,1,num_6,16,num_6,0.65000325549,,,2017_Jul_19_1129,60.01218418,MAFE4ImagesEEG,001,200970,
AFNE01.JPG,AFNE01.JPG,AFNE01.JPG,AFNE01.JPG,AFNE01.JPG,AFNE01.JPG,,,,,,,,,0,8,8,6,,,,,,,,,,,,,,,AMSA11.jpg,AMNE01.jpg,AMNE19.jpg,AMSA10.jpg,AMSA11.jpg,MS,2,num_8,32,num_6,0.65020403883,,,2017_Jul_19_1129,60.01218418,MAFE4ImagesEEG,001,200970,
AFNE01.JPG,AFNE01.JPG,AFNE01.JPG,AFNE01.JPG,AFNE01.JPG,AFNE01.JPG,,,,,,,,,0,9,9,4,,,,,,,,,,,,,,,AMNE08.jpg,AMSA19.jpg,AMSA08.jpg,AMNE13.jpg,AMSA08.jpg,MS,2,num_2,16,num_2,0.883494360896,,,2017_Jul_19_1129,60.01218418,MAFE4ImagesEEG,001,200970,
AFNE01.JPG,AFNE01.JPG,AFNE01.JPG,AFNE01.JPG,AFNE01.JPG,AFNE01.JPG,,,,,,,,,1,0,10,3,,,,,,,,,,,,,,,AMSA05.jpg,AMSA02.jpg,AMNE20.jpg,AMNE17.jpg,AMSA02.jpg,MS,2,num_6,32,num_4,1.05007330514,,,2017_Jul_19_1129,60.01218418,MAFE4ImagesEEG,001,200970,
AFNE01.JPG,AFNE01.JPG,AFNE01.JPG,AFNE01.JPG,AFNE01.JPG,AFNE01.JPG,,,,,,,,,1,1,11,9,,,,,,,,,,,,,,,AMSA18.jpg,AMNE06.jpg,AMNE10.jpg,AMSA20.jpg,AMSA20.jpg,MS,2,num_4,32,num_2,0.933190154959,,,2017_Jul_19_1129,60.01218418,MAFE4ImagesEEG,001,200970,
AFNE01.JPG,AFNE01.JPG,AFNE01.JPG,AFNE01.JPG,AFNE01.JPG,AFNE01.JPG,,,,,,,,,1,2,12,4,,,,,,,,,,,,,,,AMNE17.jpg,AMSA09.jpg,AMSA11.jpg,AMNE13.jpg,AMNE17.jpg,MN,1,num_8,32,num_4,0.700145519775,,,2017_Jul_19_1129,60.01218418,MAFE4ImagesEEG,001,200970,
AFNE01.JPG,AFNE01.JPG,AFNE01.JPG,AFNE01.JPG,AFNE01.JPG,AFNE01.JPG,,,,,,,,,1,3,13,5,,,,,,,,,,,,,,,AMSA01.jpg,AMNE19.jpg,AMNE13.jpg,AMSA17.jpg,AMSA01.jpg,MS,2,num_8,16,num_8,0.650131551549,,,2017_Jul_19_1129,60.01218418,MAFE4ImagesEEG,001,200970,
AFNE01.JPG,AFNE01.JPG,AFNE01.JPG,AFNE01.JPG,AFNE01.JPG,AFNE01.JPG,,,,,,,,,1,4,14,8,,,,,,,,,,,,,,,AMNE09.jpg,AMNE20.jpg,AMSA09.jpg,AMSA03.jpg,AMSA09.jpg,MS,2,num_2,32,num_8,1.08347742585,,,2017_Jul_19_1129,60.01218418,MAFE4ImagesEEG,001,200970,
AFNE01.JPG,AFNE01.JPG,AFNE01.JPG,AFNE01.JPG,AFNE01.JPG,AFNE01.JPG,,,,,,,,,1,5,15,0,,,,,,,,,,,,,,,AMSA04.jpg,AMNE07.jpg,AMSA09.jpg,AMNE12.jpg,AMSA09.jpg,MS,2,num_2,32,num_4,0.78342729414,,,2017_Jul_19_1129,60.01218418,MAFE4ImagesEEG,001,200970,
AFNE01.JPG,AFNE01.JPG,AFNE01.JPG,AFNE01.JPG,AFNE01.JPG,AFNE01.JPG,,,,,,,,,1,6,16,2,,,,,,,,,,,,,,,AMNE15.jpg,AMSA01.jpg,AMNE08.jpg,AMSA03.jpg,AMNE08.jpg,MN,1,num_2,32,num_8,0.933428464836,,,2017_Jul_19_1129,60.01218418,MAFE4ImagesEEG,001,200970,
AFNE01.JPG,AFNE01.JPG,AFNE01.JPG,AFNE01.JPG,AFNE01.JPG,AFNE01.JPG,,,,,,,,,1,7,17,6,,,,,,,,,,,,,,,AMSA12.jpg,AMSA02.jpg,AMNE06.jpg,AMNE19.jpg,AMNE19.jpg,MN,1,num_4,32,num_8,1.06680631693,,,2017_Jul_19_1129,60.01218418,MAFE4ImagesEEG,001,200970,
AFNE01.JPG,AFNE01.JPG,AFNE01.JPG,AFNE01.JPG,AFNE01.JPG,AFNE01.JPG,,,,,,,,,1,8,18,7,,,,,,,,,,,,,,,AMNE13.jpg,AMSA02.jpg,AMSA16.jpg,AMNE08.jpg,AMNE13.jpg,MN,1,num_8,32,num_2,1.05011724654,,,2017_Jul_19_1129,60.01218418,MAFE4ImagesEEG,001,200970,
AFNE01.JPG,AFNE01.JPG,AFNE01.JPG,AFNE01.JPG,AFNE01.JPG,AFNE01.JPG,,,,,,,,,1,9,19,1,,,,,,,,,,,,,,,AMNE19.jpg,AMSA03.jpg,AMNE17.jpg,AMSA18.jpg,AMSA03.jpg,MS,2,num_6,32,num_2,1.31673310799,,,2017_Jul_19_1129,60.01218418,MAFE4ImagesEEG,001,200970,
AFNE01.JPG,AFNE01.JPG,AFNE01.JPG,AFNE01.JPG,AFNE01.JPG,AFNE01.JPG,,,,,,,,,2,0,20,6,,,,,,,,,,,,,,,AMNE15.jpg,AMSA17.jpg,AMSA05.jpg,AMNE18.jpg,AMSA17.jpg,MS,2,num_6,16,num_6,0.966735722031,,,2017_Jul_19_1129,60.01218418,MAFE4ImagesEEG,001,200970,
AFNE01.JPG,AFNE01.JPG,AFNE01.JPG,AFNE01.JPG,AFNE01.JPG,AFNE01.JPG,,,,,,,,,2,1,21,8,,,,,,,,,,,,,,,AMNE08.jpg,AMSA20.jpg,AMSA05.jpg,AMNE01.jpg,AMNE01.jpg,MN,1,num_4,16,num_4,0.416797608807,,,2017_Jul_19_1129,60.01218418,MAFE4ImagesEEG,001,200970,
AFNE01.JPG,AFNE01.JPG,AFNE01.JPG,AFNE01.JPG,AFNE01.JPG,AFNE01.JPG,,,,,,,,,2,2,22,9,,,,,,,,,,,,,,,AMSA16.jpg,AMNE19.jpg,AMSA06.jpg,AMNE10.jpg,AMSA06.jpg,MS,2,num_2,32,num_4,1.36671339851,,,2017_Jul_19_1129,60.01218418,MAFE4ImagesEEG,001,200970,
AFNE01.JPG,AFNE01.JPG,AFNE01.JPG,AFNE01.JPG,AFNE01.JPG,AFNE01.JPG,,,,,,,,,2,3,23,1,,,,,,,,,,,,,,,AMSA09.jpg,AMNE08.jpg,AMSA05.jpg,AMNE10.jpg,AMSA05.jpg,MS,2,num_2,32,num_6,1.18344025206,,,2017_Jul_19_1129,60.01218418,MAFE4ImagesEEG,001,200970,
AFNE01.JPG,AFNE01.JPG,AFNE01.JPG,AFNE01.JPG,AFNE01.JPG,AFNE01.JPG,,,,,,,,,2,4,24,3,,,,,,,,,,,,,,,AMSA03.jpg,AMNE15.jpg,AMSA13.jpg,AMNE16.jpg,AMNE15.jpg,MN,1,num_6,16,num_6,0.683469920506,,,2017_Jul_19_1129,60.01218418,MAFE4ImagesEEG,001,200970,
AFNE01.JPG,AFNE01.JPG,AFNE01.JPG,AFNE01.JPG,AFNE01.JPG,AFNE01.JPG,,,,,,,,,2,5,25,2,,,,,,,,,,,,,,,AMSA03.jpg,AMNE13.jpg,AMSA06.jpg,AMNE09.jpg,AMNE13.jpg,MN,1,num_6,16,num_6,0.8834343825,,,2017_Jul_19_1129,60.01218418,MAFE4ImagesEEG,001,200970,
AFNE01.JPG,AFNE01.JPG,AFNE01.JPG,AFNE01.JPG,AFNE01.JPG,AFNE01.JPG,,,,,,,,,2,6,26,7,,,,,,,,,,,,,,,AMSA14.jpg,AMSA06.jpg,AMNE06.jpg,AMNE12.jpg,AMSA06.jpg,MS,2,num_6,32,num_2,1.38347303169,,,2017_Jul_19_1129,60.01218418,MAFE4ImagesEEG,001,200970,
AFNE01.JPG,AFNE01.JPG,AFNE01.JPG,AFNE01.JPG,AFNE01.JPG,AFNE01.JPG,,,,,,,,,2,7,27,5,,,,,,,,,,,,,,,AMNE01.jpg,AMSA07.jpg,AMSA01.jpg,AMNE08.jpg,AMSA07.jpg,MS,2,num_6,32,num_4,0.949991484347,,,2017_Jul_19_1129,60.01218418,MAFE4ImagesEEG,001,200970,
AFNE01.JPG,AFNE01.JPG,AFNE01.JPG,AFNE01.JPG,AFNE01.JPG,AFNE01.JPG,,,,,,,,,2,8,28,4,,,,,,,,,,,,,,,AMNE07.jpg,AMSA17.jpg,AMNE02.jpg,AMSA20.jpg,AMSA20.jpg,MS,2,num_4,32,num_8,1.86656569768,,,2017_Jul_19_1129,60.01218418,MAFE4ImagesEEG,001,200970,
AFNE01.JPG,AFNE01.JPG,AFNE01.JPG,AFNE01.JPG,AFNE01.JPG,AFNE01.JPG,,,,,,,,,2,9,29,0,,,,,,,,,,,,,,,AMSA20.jpg,AMSA12.jpg,AMNE19.jpg,AMNE18.jpg,AMSA12.jpg,MS,2,num_6,16,num_6,0.550135689118,,,2017_Jul_19_1129,60.01218418,MAFE4ImagesEEG,001,200970,
AFNE01.JPG,AFNE01.JPG,AFNE01.JPG,AFNE01.JPG,AFNE01.JPG,AFNE01.JPG,,,,,,,,,3,0,30,0,,,,,,,,,,,,,,,AMSA10.jpg,AMSA02.jpg,AMNE15.jpg,AMNE18.jpg,AMSA02.jpg,MS,2,num_6,16,num_6,0.733456305112,,,2017_Jul_19_1129,60.01218418,MAFE4ImagesEEG,001,200970,
AFNE01.JPG,AFNE01.JPG,AFNE01.JPG,AFNE01.JPG,AFNE01.JPG,AFNE01.JPG,,,,,,,,,3,1,31,2,,,,,,,,,,,,,,,AMSA19.jpg,AMSA01.jpg,AMNE14.jpg,AMNE05.jpg,AMNE05.jpg,MN,1,num_4,16,num_4,0.966784474498,,,2017_Jul_19_1129,60.01218418,MAFE4ImagesEEG,001,200970,
AFNE01.JPG,AFNE01.JPG,AFNE01.JPG,AFNE01.JPG,AFNE01.JPG,AFNE01.JPG,,,,,,,,,3,2,32,6,,,,,,,,,,,,,,,AMNE07.jpg,AMSA10.jpg,AMSA04.jpg,AMNE18.jpg,AMSA10.jpg,MS,2,num_6,32,num_8,0.666775397549,,,2017_Jul_19_1129,60.01218418,MAFE4ImagesEEG,001,200970,
AFNE01.JPG,AFNE01.JPG,AFNE01.JPG,AFNE01.JPG,AFNE01.JPG,AFNE01.JPG,,,,,,,,,3,3,33,9,,,,,,,,,,,,,,,AMNE09.jpg,AMSA11.jpg,AMNE04.jpg,AMSA16.jpg,AMSA11.jpg,MS,2,num_6,16,num_6,1.05016182942,,,2017_Jul_19_1129,60.01218418,MAFE4ImagesEEG,001,200970,
AFNE01.JPG,AFNE01.JPG,AFNE01.JPG,AFNE01.JPG,AFNE01.JPG,AFNE01.JPG,,,,,,,,,3,4,34,1,,,,,,,,,,,,,,,AMNE17.jpg,AMSA01.jpg,AMSA17.jpg,AMNE16.jpg,AMNE17.jpg,MN,1,num_8,16,num_8,1.09996186401,,,2017_Jul_19_1129,60.01218418,MAFE4ImagesEEG,001,200970,
AFNE01.JPG,AFNE01.JPG,AFNE01.JPG,AFNE01.JPG,AFNE01.JPG,AFNE01.JPG,,,,,,,,,3,5,35,7,,,,,,,,,,,,,,,AMSA05.jpg,AMNE07.jpg,AMSA19.jpg,AMNE17.jpg,AMNE07.jpg,MN,1,num_6,32,num_2,0.966756249371,,,2017_Jul_19_1129,60.01218418,MAFE4ImagesEEG,001,200970,
AFNE01.JPG,AFNE01.JPG,AFNE01.JPG,AFNE01.JPG,AFNE01.JPG,AFNE01.JPG,,,,,,,,,3,6,36,4,,,,,,,,,,,,,,,AMSA14.jpg,AMNE05.jpg,AMNE15.jpg,AMSA07.jpg,AMSA07.jpg,MS,2,num_4,32,num_6,1.1833007301,,,2017_Jul_19_1129,60.01218418,MAFE4ImagesEEG,001,200970,
AFNE01.JPG,AFNE01.JPG,AFNE01.JPG,AFNE01.JPG,AFNE01.JPG,AFNE01.JPG,,,,,,,,,3,7,37,3,,,,,,,,,,,,,,,AMSA09.jpg,AMNE20.jpg,AMSA12.jpg,AMNE09.jpg,AMNE09.jpg,MN,1,num_4,16,num_4,1.28343002044,,,2017_Jul_19_1129,60.01218418,MAFE4ImagesEEG,001,200970,
AFNE01.JPG,AFNE01.JPG,AFNE01.JPG,AFNE01.JPG,AFNE01.JPG,AFNE01.JPG,,,,,,,,,3,8,38,8,,,,,,,,,,,,,,,AMNE08.jpg,AMSA03.jpg,AMNE01.jpg,AMSA11.jpg,AMNE01.jpg,MN,1,num_2,32,num_6,0.950100535963,,,2017_Jul_19_1129,60.01218418,MAFE4ImagesEEG,001,200970,
AFNE01.JPG,AFNE01.JPG,AFNE01.JPG,AFNE01.JPG,AFNE01.JPG,AFNE01.JPG,,,,,,,,,3,9,39,5,,,,,,,,,,,,,,,AMNE12.jpg,AMNE19.jpg,AMSA08.jpg,AMSA14.jpg,AMSA14.jpg,MS,2,num_4,16,num_4,0.683460298285,,,2017_Jul_19_1129,60.01218418,MAFE4ImagesEEG,001,200970,
AFNE01.JPG,AFNE01.JPG,AFNE01.JPG,AFNE01.JPG,AFNE01.JPG,AFNE01.JPG,,,,,,,,,4,0,40,1,,,,,,,,,,,,,,,AMSA09.jpg,AMNE10.jpg,AMNE18.jpg,AMSA05.jpg,AMNE18.jpg,MN,1,num_2,16,num_2,0.966760418989,,,2017_Jul_19_1129,60.01218418,MAFE4ImagesEEG,001,200970,
AFNE01.JPG,AFNE01.JPG,AFNE01.JPG,AFNE01.JPG,AFNE01.JPG,AFNE01.JPG,,,,,,,,,4,1,41,2,,,,,,,,,,,,,,,AMSA17.jpg,AMSA10.jpg,AMNE10.jpg,AMNE19.jpg,AMSA17.jpg,MS,2,num_8,16,num_8,1.36676247173,,,2017_Jul_19_1129,60.01218418,MAFE4ImagesEEG,001,200970,
AFNE01.JPG,AFNE01.JPG,AFNE01.JPG,AFNE01.JPG,AFNE01.JPG,AFNE01.JPG,,,,,,,,,4,2,42,3,,,,,,,,,,,,,,,AMSA14.jpg,AMSA04.jpg,AMNE01.jpg,AMNE18.jpg,AMNE18.jpg,MN,1,num_4,16,num_4,0.766784731095,,,2017_Jul_19_1129,60.01218418,MAFE4ImagesEEG,001,200970,
AFNE01.JPG,AFNE01.JPG,AFNE01.JPG,AFNE01.JPG,AFNE01.JPG,AFNE01.JPG,,,,,,,,,4,3,43,7,,,,,,,,,,,,,,,AMSA14.jpg,AMSA20.jpg,AMNE03.jpg,AMNE14.jpg,AMSA20.jpg,MS,2,num_6,16,num_6,0.733452135493,,,2017_Jul_19_1129,60.01218418,MAFE4ImagesEEG,001,200970,
AFNE01.JPG,AFNE01.JPG,AFNE01.JPG,AFNE01.JPG,AFNE01.JPG,AFNE01.JPG,,,,,,,,,4,4,44,8,,,,,,,,,,,,,,,AMSA09.jpg,AMNE02.jpg,AMNE14.jpg,AMSA16.jpg,AMSA09.jpg,MS,2,num_8,32,num_4,0.800062159426,,,2017_Jul_19_1129,60.01218418,MAFE4ImagesEEG,001,200970,
AFNE01.JPG,AFNE01.JPG,AFNE01.JPG,AFNE01.JPG,AFNE01.JPG,AFNE01.JPG,,,,,,,,,4,5,45,4,,,,,,,,,,,,,,,AMSA19.jpg,AMSA20.jpg,AMNE16.jpg,AMNE03.jpg,AMNE03.jpg,MN,1,num_4,16,num_4,1.45006220756,,,2017_Jul_19_1129,60.01218418,MAFE4ImagesEEG,001,200970,
AFNE01.JPG,AFNE01.JPG,AFNE01.JPG,AFNE01.JPG,AFNE01.JPG,AFNE01.JPG,,,,,,,,,4,6,46,6,,,,,,,,,,,,,,,AMSA08.jpg,AMSA14.jpg,AMNE04.jpg,AMNE11.jpg,AMSA08.jpg,MS,2,num_8,16,num_8,1.05011724654,,,2017_Jul_19_1129,60.01218418,MAFE4ImagesEEG,001,200970,
AFNE01.JPG,AFNE01.JPG,AFNE01.JPG,AFNE01.JPG,AFNE01.JPG,AFNE01.JPG,,,,,,,,,4,7,47,9,,,,,,,,,,,,,,,AMSA01.jpg,AMNE16.jpg,AMSA06.jpg,AMNE07.jpg,AMNE07.jpg,MN,1,num_4,16,num_4,0.816791643068,,,2017_Jul_19_1129,60.01218418,MAFE4ImagesEEG,001,200970,
AFNE01.JPG,AFNE01.JPG,AFNE01.JPG,AFNE01.JPG,AFNE01.JPG,AFNE01.JPG,,,,,,,,,4,8,48,0,,,,,,,,,,,,,,,AMNE19.jpg,AMSA01.jpg,AMSA13.jpg,AMNE16.jpg,AMNE19.jpg,MN,1,num_8,16,num_8,1.03342977987,,,2017_Jul_19_1129,60.01218418,MAFE4ImagesEEG,001,200970,
AFNE01.JPG,AFNE01.JPG,AFNE01.JPG,AFNE01.JPG,AFNE01.JPG,AFNE01.JPG,,,,,,,,,4,9,49,5,,,,,,,,,,,,,,,AMNE09.jpg,AMSA14.jpg,AMNE03.jpg,AMSA18.jpg,AMNE03.jpg,MN,1,num_2,16,num_2,1.23341508998,,,2017_Jul_19_1129,60.01218418,MAFE4ImagesEEG,001,200970,
AFNE01.JPG,AFNE01.JPG,AFNE01.JPG,AFNE01.JPG,AFNE01.JPG,AFNE01.JPG,,,,,,,,,5,0,50,0,,,,,,,,,,,,,,,AMSA17.jpg,AMNE11.jpg,AMSA18.jpg,AMNE12.jpg,AMNE12.jpg,MN,1,num_4,32,num_8,0.833484241564,,,2017_Jul_19_1129,60.01218418,MAFE4ImagesEEG,001,200970,
AFNE01.JPG,AFNE01.JPG,AFNE01.JPG,AFNE01.JPG,AFNE01.JPG,AFNE01.JPG,,,,,,,,,5,1,51,4,,,,,,,,,,,,,,,AMNE12.jpg,AMSA09.jpg,AMSA12.jpg,AMNE01.jpg,AMSA12.jpg,MS,2,num_2,16,num_2,1.3167141843,,,2017_Jul_19_1129,60.01218418,MAFE4ImagesEEG,001,200970,
AFNE01.JPG,AFNE01.JPG,AFNE01.JPG,AFNE01.JPG,AFNE01.JPG,AFNE01.JPG,,,,,,,,,5,2,52,7,,,,,,,,,,,,,,,AMSA12.jpg,AMNE13.jpg,AMNE06.jpg,AMSA10.jpg,AMNE06.jpg,MN,1,num_2,16,num_2,1.11674619417,,,2017_Jul_19_1129,60.01218418,MAFE4ImagesEEG,001,200970,
AFNE01.JPG,AFNE01.JPG,AFNE01.JPG,AFNE01.JPG,AFNE01.JPG,AFNE01.JPG,,,,,,,,,5,3,53,3,,,,,,,,,,,,,,,AMSA13.jpg,AMNE10.jpg,AMNE02.jpg,AMSA02.jpg,AMNE02.jpg,MN,1,num_2,32,num_8,0.983457507857,,,2017_Jul_19_1129,60.01218418,MAFE4ImagesEEG,001,200970,
AFNE01.JPG,AFNE01.JPG,AFNE01.JPG,AFNE01.JPG,AFNE01.JPG,AFNE01.JPG,,,,,,,,,5,4,54,5,,,,,,,,,,,,,,,AMSA06.jpg,AMNE16.jpg,AMSA07.jpg,AMNE15.jpg,AMSA06.jpg,MS,2,num_8,32,num_4,0.933509932831,,,2017_Jul_19_1129,60.01218418,MAFE4ImagesEEG,001,200970,
AFNE01.JPG,AFNE01.JPG,AFNE01.JPG,AFNE01.JPG,AFNE01.JPG,AFNE01.JPG,,,,,,,,,5,5,55,8,,,,,,,,,,,,,,,AMSA12.jpg,AMNE12.jpg,AMNE06.jpg,AMSA20.jpg,AMSA20.jpg,MS,2,num_4,16,num_4,1.2834319449,,,2017_Jul_19_1129,60.01218418,MAFE4ImagesEEG,001,200970,
AFNE01.JPG,AFNE01.JPG,AFNE01.JPG,AFNE01.JPG,AFNE01.JPG,AFNE01.JPG,,,,,,,,,5,6,56,9,,,,,,,,,,,,,,,AMSA03.jpg,AMNE11.jpg,AMNE05.jpg,AMSA17.jpg,AMSA03.jpg,MS,2,num_8,32,num_6,1.26673774267,,,2017_Jul_19_1129,60.01218418,MAFE4ImagesEEG,001,200970,
AFNE01.JPG,AFNE01.JPG,AFNE01.JPG,AFNE01.JPG,AFNE01.JPG,AFNE01.JPG,,,,,,,,,5,7,57,1,,,,,,,,,,,,,,,AMSA02.jpg,AMNE13.jpg,AMSA19.jpg,AMNE02.jpg,AMNE13.jpg,MN,1,num_6,16,num_6,0.966756890877,,,2017_Jul_19_1129,60.01218418,MAFE4ImagesEEG,001,200970,
AFNE01.JPG,AFNE01.JPG,AFNE01.JPG,AFNE01.JPG,AFNE01.JPG,AFNE01.JPG,,,,,,,,,5,8,58,2,,,,,,,,,,,,,,,AMNE20.jpg,AMSA19.jpg,AMSA20.jpg,AMNE10.jpg,AMSA19.jpg,MS,2,num_6,32,num_2,1.36675990582,,,2017_Jul_19_1129,60.01218418,MAFE4ImagesEEG,001,200970,
AFNE01.JPG,AFNE01.JPG,AFNE01.JPG,AFNE01.JPG,AFNE01.JPG,AFNE01.JPG,,,,,,,,,5,9,59,6,,,,,,,,,,,,,,,AMNE09.jpg,AMNE03.jpg,AMSA20.jpg,AMSA12.jpg,AMNE03.jpg,MN,1,num_6,32,num_8,1.18348515566,,,2017_Jul_19_1129,60.01218418,MAFE4ImagesEEG,001,200970,
,,,,,,,,,,,,,,,,,,,,,,,,,,,,,,,,,,,,,,,,,,,space,6.2163507537,2017_Jul_19_1129,60.01218418,MAFE4ImagesEEG,001,200970,
AFNE01.JPG,AFNE01.JPG,AFNE01.JPG,AFNE01.JPG,AFNE01.JPG,AFNE01.JPG,,,,,,,,,,,,,0,0,0,9,,,,,,,,,,,AFNE16.jpg,AFSA06.jpg,AFSA03.jpg,AFNE13.jpg,AFSA06.jpg,FS,4,num_6,32,num_8,0.916818938043,,,2017_Jul_19_1129,60.01218418,MAFE4ImagesEEG,001,200970,
AFNE01.JPG,AFNE01.JPG,AFNE01.JPG,AFNE01.JPG,AFNE01.JPG,AFNE01.JPG,,,,,,,,,,,,,0,1,1,6,,,,,,,,,,,AFSA02.jpg,AFSA05.jpg,AFNE07.jpg,AFNE12.jpg,AFNE07.jpg,FN,3,num_2,32,num_8,0.983547956595,,,2017_Jul_19_1129,60.01218418,MAFE4ImagesEEG,001,200970,
AFNE01.JPG,AFNE01.JPG,AFNE01.JPG,AFNE01.JPG,AFNE01.JPG,AFNE01.JPG,,,,,,,,,,,,,0,2,2,0,,,,,,,,,,,AFNE01.jpg,AFSA06.jpg,AFSA12.jpg,AFNE14.jpg,AFSA12.jpg,FS,4,num_2,16,num_2,0.783476367389,,,2017_Jul_19_1129,60.01218418,MAFE4ImagesEEG,001,200970,
AFNE01.JPG,AFNE01.JPG,AFNE01.JPG,AFNE01.JPG,AFNE01.JPG,AFNE01.JPG,,,,,,,,,,,,,0,3,3,5,,,,,,,,,,,AFNE02.jpg,AFSA12.jpg,AFNE14.jpg,AFSA13.jpg,AFSA12.jpg,FS,4,num_6,16,num_6,1.28347460332,,,2017_Jul_19_1129,60.01218418,MAFE4ImagesEEG,001,200970,
AFNE01.JPG,AFNE01.JPG,AFNE01.JPG,AFNE01.JPG,AFNE01.JPG,AFNE01.JPG,,,,,,,,,,,,,0,4,4,3,,,,,,,,,,,AFSA07.jpg,AFSA19.jpg,AFNE11.jpg,AFNE18.jpg,AFNE11.jpg,FN,3,num_2,16,num_2,0.90053752836,,,2017_Jul_19_1129,60.01218418,MAFE4ImagesEEG,001,200970,
AFNE01.JPG,AFNE01.JPG,AFNE01.JPG,AFNE01.JPG,AFNE01.JPG,AFNE01.JPG,,,,,,,,,,,,,0,5,5,4,,,,,,,,,,,AFNE03.jpg,AFSA12.jpg,AFSA06.jpg,AFNE20.jpg,AFNE20.jpg,FN,3,num_4,32,num_6,1.00008018501,,,2017_Jul_19_1129,60.01218418,MAFE4ImagesEEG,001,200970,
AFNE01.JPG,AFNE01.JPG,AFNE01.JPG,AFNE01.JPG,AFNE01.JPG,AFNE01.JPG,,,,,,,,,,,,,0,6,6,2,,,,,,,,,,,AFSA14.jpg,AFNE14.jpg,AFSA10.jpg,AFNE07.jpg,AFSA14.jpg,FS,4,num_8,32,num_6,1.15013780599,,,2017_Jul_19_1129,60.01218418,MAFE4ImagesEEG,001,200970,
AFNE01.JPG,AFNE01.JPG,AFNE01.JPG,AFNE01.JPG,AFNE01.JPG,AFNE01.JPG,,,,,,,,,,,,,0,7,7,1,,,,,,,,,,,AFSA20.jpg,AFNE18.jpg,AFNE05.jpg,AFSA16.jpg,AFNE05.jpg,FN,3,num_2,16,num_2,1.15007494093,,,2017_Jul_19_1129,60.01218418,MAFE4ImagesEEG,001,200970,
AFNE01.JPG,AFNE01.JPG,AFNE01.JPG,AFNE01.JPG,AFNE01.JPG,AFNE01.JPG,,,,,,,,,,,,,0,8,8,7,,,,,,,,,,,AFSA07.jpg,AFSA12.jpg,AFNE17.jpg,AFNE15.jpg,AFNE17.jpg,FN,3,num_2,16,num_2,0.916740998189,,,2017_Jul_19_1129,60.01218418,MAFE4ImagesEEG,001,200970,
AFNE01.JPG,AFNE01.JPG,AFNE01.JPG,AFNE01.JPG,AFNE01.JPG,AFNE01.JPG,,,,,,,,,,,,,0,9,9,8,,,,,,,,,,,AFNE17.jpg,AFNE16.jpg,AFSA09.jpg,AFSA01.jpg,AFNE16.jpg,FN,3,num_6,32,num_2,0.866769046901,,,2017_Jul_19_1129,60.01218418,MAFE4ImagesEEG,001,200970,
AFNE01.JPG,AFNE01.JPG,AFNE01.JPG,AFNE01.JPG,AFNE01.JPG,AFNE01.JPG,,,,,,,,,,,,,1,0,10,5,,,,,,,,,,,AFSA10.jpg,AFNE09.jpg,AFNE03.jpg,AFSA20.jpg,AFNE09.jpg,FN,3,num_6,16,num_6,0.883419949212,,,2017_Jul_19_1129,60.01218418,MAFE4ImagesEEG,001,200970,
AFNE01.JPG,AFNE01.JPG,AFNE01.JPG,AFNE01.JPG,AFNE01.JPG,AFNE01.JPG,,,,,,,,,,,,,1,1,11,8,,,,,,,,,,,AFNE07.jpg,AFSA01.jpg,AFSA04.jpg,AFNE08.jpg,AFSA04.jpg,FS,4,num_2,32,num_8,0.966792172287,,,2017_Jul_19_1129,60.01218418,MAFE4ImagesEEG,001,200970,
AFNE01.JPG,AFNE01.JPG,AFNE01.JPG,AFNE01.JPG,AFNE01.JPG,AFNE01.JPG,,,,,,,,,,,,,1,2,12,7,,,,,,,,,,,AFSA12.jpg,AFNE11.jpg,AFSA01.jpg,AFNE07.jpg,AFNE07.jpg,FN,3,num_4,16,num_4,0.700122747221,,,2017_Jul_19_1129,60.01218418,MAFE4ImagesEEG,001,200970,
AFNE01.JPG,AFNE01.JPG,AFNE01.JPG,AFNE01.JPG,AFNE01.JPG,AFNE01.JPG,,,,,,,,,,,,,1,3,13,9,,,,,,,,,,,AFNE04.jpg,AFSA05.jpg,AFNE13.jpg,AFSA16.jpg,AFNE04.jpg,FN,3,num_8,16,num_8,0.983464243414,,,2017_Jul_19_1129,60.01218418,MAFE4ImagesEEG,001,200970,
AFNE01.JPG,AFNE01.JPG,AFNE01.JPG,AFNE01.JPG,AFNE01.JPG,AFNE01.JPG,,,,,,,,,,,,,1,4,14,2,,,,,,,,,,,AFNE07.jpg,AFSA10.jpg,AFNE09.jpg,AFSA03.jpg,AFNE07.jpg,FN,3,num_8,32,num_6,0.916750620381,,,2017_Jul_19_1129,60.01218418,MAFE4ImagesEEG,001,200970,
AFNE01.JPG,AFNE01.JPG,AFNE01.JPG,AFNE01.JPG,AFNE01.JPG,AFNE01.JPG,,,,,,,,,,,,,1,5,15,1,,,,,,,,,,,AFNE05.jpg,AFSA03.jpg,AFSA09.jpg,AFNE20.jpg,AFNE05.jpg,FN,3,num_8,32,num_2,1.03341117696,,,2017_Jul_19_1129,60.01218418,MAFE4ImagesEEG,001,200970,
AFNE01.JPG,AFNE01.JPG,AFNE01.JPG,AFNE01.JPG,AFNE01.JPG,AFNE01.JPG,,,,,,,,,,,,,1,6,16,0,,,,,,,,,,,AFSA07.jpg,AFNE08.jpg,AFSA06.jpg,AFNE11.jpg,AFNE08.jpg,FN,3,num_6,32,num_8,0.816802868969,,,2017_Jul_19_1129,60.01218418,MAFE4ImagesEEG,001,200970,
AFNE01.JPG,AFNE01.JPG,AFNE01.JPG,AFNE01.JPG,AFNE01.JPG,AFNE01.JPG,,,,,,,,,,,,,1,7,17,6,,,,,,,,,,,AFSA17.jpg,AFSA14.jpg,AFNE12.jpg,AFNE13.jpg,AFNE13.jpg,FN,3,num_4,32,num_8,1.16672712617,,,2017_Jul_19_1129,60.01218418,MAFE4ImagesEEG,001,200970,
AFNE01.JPG,AFNE01.JPG,AFNE01.JPG,AFNE01.JPG,AFNE01.JPG,AFNE01.JPG,,,,,,,,,,,,,1,8,18,4,,,,,,,,,,,AFNE02.jpg,AFSA03.jpg,AFNE14.jpg,AFSA16.jpg,AFSA03.jpg,FS,4,num_6,32,num_8,1.53324230728,,,2017_Jul_19_1129,60.01218418,MAFE4ImagesEEG,001,200970,
AFNE01.JPG,AFNE01.JPG,AFNE01.JPG,AFNE01.JPG,AFNE01.JPG,AFNE01.JPG,,,,,,,,,,,,,1,9,19,3,,,,,,,,,,,AFSA15.jpg,AFNE18.jpg,AFSA13.jpg,AFNE10.jpg,AFSA15.jpg,FS,4,num_8,32,num_2,0.866620544228,,,2017_Jul_19_1129,60.01218418,MAFE4ImagesEEG,001,200970,
AFNE01.JPG,AFNE01.JPG,AFNE01.JPG,AFNE01.JPG,AFNE01.JPG,AFNE01.JPG,,,,,,,,,,,,,2,0,20,3,,,,,,,,,,,AFSA04.jpg,AFNE01.jpg,AFSA09.jpg,AFNE10.jpg,AFSA04.jpg,FS,4,num_8,32,num_4,1.00012573012,,,2017_Jul_19_1129,60.01218418,MAFE4ImagesEEG,001,200970,
AFNE01.JPG,AFNE01.JPG,AFNE01.JPG,AFNE01.JPG,AFNE01.JPG,AFNE01.JPG,,,,,,,,,,,,,2,1,21,4,,,,,,,,,,,AFNE13.jpg,AFSA14.jpg,AFNE15.jpg,AFSA07.jpg,AFNE13.jpg,FN,3,num_8,32,num_2,1.11671572388,,,2017_Jul_19_1129,60.01218418,MAFE4ImagesEEG,001,200970,
AFNE01.JPG,AFNE01.JPG,AFNE01.JPG,AFNE01.JPG,AFNE01.JPG,AFNE01.JPG,,,,,,,,,,,,,2,2,22,1,,,,,,,,,,,AFSA07.jpg,AFNE03.jpg,AFSA12.jpg,AFNE14.jpg,AFSA07.jpg,FS,4,num_8,16,num_8,0.983411642053,,,2017_Jul_19_1129,60.01218418,MAFE4ImagesEEG,001,200970,
AFNE01.JPG,AFNE01.JPG,AFNE01.JPG,AFNE01.JPG,AFNE01.JPG,AFNE01.JPG,,,,,,,,,,,,,2,3,23,6,,,,,,,,,,,AFSA12.jpg,AFSA03.jpg,AFNE11.jpg,AFNE10.jpg,AFSA12.jpg,FS,4,num_8,16,num_8,1.01677470797,,,2017_Jul_19_1129,60.01218418,MAFE4ImagesEEG,001,200970,
AFNE01.JPG,AFNE01.JPG,AFNE01.JPG,AFNE01.JPG,AFNE01.JPG,AFNE01.JPG,,,,,,,,,,,,,2,4,24,0,,,,,,,,,,,AFSA02.jpg,AFNE13.jpg,AFSA19.jpg,AFNE01.jpg,AFNE01.jpg,FN,3,num_4,32,num_6,2.71664086313,,,2017_Jul_19_1129,60.01218418,MAFE4ImagesEEG,001,200970,
AFNE01.JPG,AFNE01.JPG,AFNE01.JPG,AFNE01.JPG,AFNE01.JPG,AFNE01.JPG,,,,,,,,,,,,,2,5,25,2,,,,,,,,,,,AFNE15.jpg,AFSA15.jpg,AFSA09.jpg,AFNE18.jpg,AFSA15.jpg,FS,4,num_6,32,num_8,0.70010799318,,,2017_Jul_19_1129,60.01218418,MAFE4ImagesEEG,001,200970,
AFNE01.JPG,AFNE01.JPG,AFNE01.JPG,AFNE01.JPG,AFNE01.JPG,AFNE01.JPG,,,,,,,,,,,,,2,6,26,9,,,,,,,,,,,AFNE17.jpg,AFSA07.jpg,AFSA06.jpg,AFNE15.jpg,AFNE17.jpg,FN,3,num_8,32,num_6,0.716836193838,,,2017_Jul_19_1129,60.01218418,MAFE4ImagesEEG,001,200970,
AFNE01.JPG,AFNE01.JPG,AFNE01.JPG,AFNE01.JPG,AFNE01.JPG,AFNE01.JPG,,,,,,,,,,,,,2,7,27,7,,,,,,,,,,,AFNE09.jpg,AFNE14.jpg,AFSA14.jpg,AFSA12.jpg,AFNE09.jpg,FN,3,num_8,16,num_8,1.06673382965,,,2017_Jul_19_1129,60.01218418,MAFE4ImagesEEG,001,200970,
AFNE01.JPG,AFNE01.JPG,AFNE01.JPG,AFNE01.JPG,AFNE01.JPG,AFNE01.JPG,,,,,,,,,,,,,2,8,28,5,,,,,,,,,,,AFSA15.jpg,AFSA02.jpg,AFNE01.jpg,AFNE02.jpg,AFSA02.jpg,FS,4,num_6,16,num_6,0.950113044848,,,2017_Jul_19_1129,60.01218418,MAFE4ImagesEEG,001,200970,
AFNE01.JPG,AFNE01.JPG,AFNE01.JPG,AFNE01.JPG,AFNE01.JPG,AFNE01.JPG,,,,,,,,,,,,,2,9,29,8,,,,,,,,,,,AFSA01.jpg,AFNE17.jpg,AFSA07.jpg,AFNE19.jpg,AFNE19.jpg,FN,3,num_4,32,num_6,0.933760110114,,,2017_Jul_19_1129,60.01218418,MAFE4ImagesEEG,001,200970,
AFNE01.JPG,AFNE01.JPG,AFNE01.JPG,AFNE01.JPG,AFNE01.JPG,AFNE01.JPG,,,,,,,,,,,,,3,0,30,2,,,,,,,,,,,AFNE12.jpg,AFSA09.jpg,AFSA11.jpg,AFNE05.jpg,AFNE05.jpg,FN,3,num_4,16,num_4,0.883461645426,,,2017_Jul_19_1129,60.01218418,MAFE4ImagesEEG,001,200970,
AFNE01.JPG,AFNE01.JPG,AFNE01.JPG,AFNE01.JPG,AFNE01.JPG,AFNE01.JPG,,,,,,,,,,,,,3,1,31,0,,,,,,,,,,,AFSA18.jpg,AFSA14.jpg,AFNE20.jpg,AFNE03.jpg,AFNE20.jpg,FN,3,num_2,32,num_8,1.30014122187,,,2017_Jul_19_1129,60.01218418,MAFE4ImagesEEG,001,200970,
AFNE01.JPG,AFNE01.JPG,AFNE01.JPG,AFNE01.JPG,AFNE01.JPG,AFNE01.JPG,,,,,,,,,,,,,3,2,32,8,,,,,,,,,,,AFSA02.jpg,AFSA17.jpg,AFNE04.jpg,AFNE19.jpg,AFNE19.jpg,FN,3,num_4,32,num_8,1.10009112227,,,2017_Jul_19_1129,60.01218418,MAFE4ImagesEEG,001,200970,
AFNE01.JPG,AFNE01.JPG,AFNE01.JPG,AFNE01.JPG,AFNE01.JPG,AFNE01.JPG,,,,,,,,,,,,,3,3,33,6,,,,,,,,,,,AFSA14.jpg,AFNE12.jpg,AFNE03.jpg,AFSA10.jpg,AFNE12.jpg,FN,3,num_6,16,num_6,0.433500471001,,,2017_Jul_19_1129,60.01218418,MAFE4ImagesEEG,001,200970,
AFNE01.JPG,AFNE01.JPG,AFNE01.JPG,AFNE01.JPG,AFNE01.JPG,AFNE01.JPG,,,,,,,,,,,,,3,4,34,3,,,,,,,,,,,AFNE02.jpg,AFNE13.jpg,AFSA02.jpg,AFSA18.jpg,AFSA18.jpg,FS,4,num_4,32,num_2,1.06674922517,,,2017_Jul_19_1129,60.01218418,MAFE4ImagesEEG,001,200970,
AFNE01.JPG,AFNE01.JPG,AFNE01.JPG,AFNE01.JPG,AFNE01.JPG,AFNE01.JPG,,,,,,,,,,,,,3,5,35,1,,,,,,,,,,,AFSA02.jpg,AFNE11.jpg,AFSA11.jpg,AFNE14.jpg,AFSA02.jpg,FS,4,num_8,16,num_8,1.06673767851,,,2017_Jul_19_1129,60.01218418,MAFE4ImagesEEG,001,200970,
AFNE01.JPG,AFNE01.JPG,AFNE01.JPG,AFNE01.JPG,AFNE01.JPG,AFNE01.JPG,,,,,,,,,,,,,3,6,36,4,,,,,,,,,,,AFNE17.jpg,AFSA02.jpg,AFNE08.jpg,AFSA03.jpg,AFNE17.jpg,FN,3,num_8,16,num_8,1.15009835496,,,2017_Jul_19_1129,60.01218418,MAFE4ImagesEEG,001,200970,
AFNE01.JPG,AFNE01.JPG,AFNE01.JPG,AFNE01.JPG,AFNE01.JPG,AFNE01.JPG,,,,,,,,,,,,,3,7,37,5,,,,,,,,,,,AFSA15.jpg,AFSA20.jpg,AFNE02.jpg,AFNE01.jpg,AFNE01.jpg,FN,3,num_4,32,num_2,0.983486053767,,,2017_Jul_19_1129,60.01218418,MAFE4ImagesEEG,001,200970,
AFNE01.JPG,AFNE01.JPG,AFNE01.JPG,AFNE01.JPG,AFNE01.JPG,AFNE01.JPG,,,,,,,,,,,,,3,8,38,9,,,,,,,,,,,AFSA15.jpg,AFNE20.jpg,AFNE16.jpg,AFSA14.jpg,AFSA14.jpg,FS,4,num_4,32,num_6,1.43344017185,,,2017_Jul_19_1129,60.01218418,MAFE4ImagesEEG,001,200970,
AFNE01.JPG,AFNE01.JPG,AFNE01.JPG,AFNE01.JPG,AFNE01.JPG,AFNE01.JPG,,,,,,,,,,,,,3,9,39,7,,,,,,,,,,,AFSA07.jpg,AFNE17.jpg,AFNE13.jpg,AFSA20.jpg,AFNE17.jpg,FN,3,num_6,16,num_6,0.866778027645,,,2017_Jul_19_1129,60.01218418,MAFE4ImagesEEG,001,200970,
AFNE01.JPG,AFNE01.JPG,AFNE01.JPG,AFNE01.JPG,AFNE01.JPG,AFNE01.JPG,,,,,,,,,,,,,4,0,40,7,,,,,,,,,,,AFNE20.jpg,AFSA11.jpg,AFNE10.jpg,AFSA05.jpg,AFSA11.jpg,FS,4,num_6,16,num_6,0.633545438788,,,2017_Jul_19_1129,60.01218418,MAFE4ImagesEEG,001,200970,
AFNE01.JPG,AFNE01.JPG,AFNE01.JPG,AFNE01.JPG,AFNE01.JPG,AFNE01.JPG,,,,,,,,,,,,,4,1,41,9,,,,,,,,,,,AFNE10.jpg,AFSA14.jpg,AFNE19.jpg,AFSA18.jpg,AFNE10.jpg,FN,3,num_8,16,num_8,1.20009211655,,,2017_Jul_19_1129,60.01218418,MAFE4ImagesEEG,001,200970,
AFNE01.JPG,AFNE01.JPG,AFNE01.JPG,AFNE01.JPG,AFNE01.JPG,AFNE01.JPG,,,,,,,,,,,,,4,2,42,3,,,,,,,,,,,AFSA15.jpg,AFSA01.jpg,AFNE14.jpg,AFNE11.jpg,AFNE14.jpg,FN,3,num_2,16,num_2,0.900154243922,,,2017_Jul_19_1129,60.01218418,MAFE4ImagesEEG,001,200970,
AFNE01.JPG,AFNE01.JPG,AFNE01.JPG,AFNE01.JPG,AFNE01.JPG,AFNE01.JPG,,,,,,,,,,,,,4,3,43,4,,,,,,,,,,,AFNE17.jpg,AFNE06.jpg,AFSA07.jpg,AFSA02.jpg,AFSA02.jpg,FS,4,num_4,16,num_4,1.3668821078,,,2017_Jul_19_1129,60.01218418,MAFE4ImagesEEG,001,200970,
AFNE01.JPG,AFNE01.JPG,AFNE01.JPG,AFNE01.JPG,AFNE01.JPG,AFNE01.JPG,,,,,,,,,,,,,4,4,44,6,,,,,,,,,,,AFSA20.jpg,AFNE20.jpg,AFSA04.jpg,AFNE06.jpg,AFSA04.jpg,FS,4,num_2,32,num_8,1.00012605087,,,2017_Jul_19_1129,60.01218418,MAFE4ImagesEEG,001,200970,
AFNE01.JPG,AFNE01.JPG,AFNE01.JPG,AFNE01.JPG,AFNE01.JPG,AFNE01.JPG,,,,,,,,,,,,,4,5,45,2,,,,,,,,,,,AFNE15.jpg,AFSA11.jpg,AFNE09.jpg,AFSA16.jpg,AFNE15.jpg,FN,3,num_8,16,num_8,1.0500960777,,,2017_Jul_19_1129,60.01218418,MAFE4ImagesEEG,001,200970,
AFNE01.JPG,AFNE01.JPG,AFNE01.JPG,AFNE01.JPG,AFNE01.JPG,AFNE01.JPG,,,,,,,,,,,,,4,6,46,0,,,,,,,,,,,AFSA15.jpg,AFSA13.jpg,AFNE07.jpg,AFNE06.jpg,AFSA15.jpg,FS,4,num_8,16,num_8,0.800166399975,,,2017_Jul_19_1129,60.01218418,MAFE4ImagesEEG,001,200970,
AFNE01.JPG,AFNE01.JPG,AFNE01.JPG,AFNE01.JPG,AFNE01.JPG,AFNE01.JPG,,,,,,,,,,,,,4,7,47,5,,,,,,,,,,,AFSA20.jpg,AFNE15.jpg,AFNE02.jpg,AFSA07.jpg,AFNE15.jpg,FN,3,num_6,16,num_6,0.783449104492,,,2017_Jul_19_1129,60.01218418,MAFE4ImagesEEG,001,200970,
AFNE01.JPG,AFNE01.JPG,AFNE01.JPG,AFNE01.JPG,AFNE01.JPG,AFNE01.JPG,,,,,,,,,,,,,4,8,48,1,,,,,,,,,,,AFNE14.jpg,AFSA20.jpg,AFNE10.jpg,AFSA08.jpg,AFNE14.jpg,FN,3,num_8,16,num_8,1.30013544855,,,2017_Jul_19_1129,60.01218418,MAFE4ImagesEEG,001,200970,
AFNE01.JPG,AFNE01.JPG,AFNE01.JPG,AFNE01.JPG,AFNE01.JPG,AFNE01.JPG,,,,,,,,,,,,,4,9,49,8,,,,,,,,,,,AFSA18.jpg,AFNE01.jpg,AFNE02.jpg,AFSA07.jpg,AFSA18.jpg,FS,4,num_8,32,num_4,1.08339692006,,,2017_Jul_19_1129,60.01218418,MAFE4ImagesEEG,001,200970,
AFNE01.JPG,AFNE01.JPG,AFNE01.JPG,AFNE01.JPG,AFNE01.JPG,AFNE01.JPG,,,,,,,,,,,,,5,0,50,1,,,,,,,,,,,AFNE15.jpg,AFNE20.jpg,AFSA01.jpg,AFSA06.jpg,AFSA06.jpg,FS,4,num_4,16,num_4,0.716814704239,,,2017_Jul_19_1129,60.01218418,MAFE4ImagesEEG,001,200970,
AFNE01.JPG,AFNE01.JPG,AFNE01.JPG,AFNE01.JPG,AFNE01.JPG,AFNE01.JPG,,,,,,,,,,,,,5,1,51,9,,,,,,,,,,,AFSA03.jpg,AFNE12.jpg,AFSA01.jpg,AFNE20.jpg,AFSA01.jpg,FS,4,num_2,16,num_2,0.483528231038,,,2017_Jul_19_1129,60.01218418,MAFE4ImagesEEG,001,200970,
AFNE01.JPG,AFNE01.JPG,AFNE01.JPG,AFNE01.JPG,AFNE01.JPG,AFNE01.JPG,,,,,,,,,,,,,5,2,52,6,,,,,,,,,,,AFNE08.jpg,AFSA03.jpg,AFNE13.jpg,AFSA10.jpg,AFNE13.jpg,FN,3,num_2,32,num_8,0.883254447283,,,2017_Jul_19_1129,60.01218418,MAFE4ImagesEEG,001,200970,
AFNE01.JPG,AFNE01.JPG,AFNE01.JPG,AFNE01.JPG,AFNE01.JPG,AFNE01.JPG,,,,,,,,,,,,,5,3,53,4,,,,,,,,,,,AFSA12.jpg,AFNE13.jpg,AFNE01.jpg,AFSA16.jpg,AFSA12.jpg,FS,4,num_8,32,num_6,0.916776600352,,,2017_Jul_19_1129,60.01218418,MAFE4ImagesEEG,001,200970,
AFNE01.JPG,AFNE01.JPG,AFNE01.JPG,AFNE01.JPG,AFNE01.JPG,AFNE01.JPG,,,,,,,,,,,,,5,4,54,3,,,,,,,,,,,AFSA01.jpg,AFNE07.jpg,AFSA12.jpg,AFNE02.jpg,AFSA12.jpg,FS,4,num_2,32,num_6,1.00009237314,,,2017_Jul_19_1129,60.01218418,MAFE4ImagesEEG,001,200970,
AFNE01.JPG,AFNE01.JPG,AFNE01.JPG,AFNE01.JPG,AFNE01.JPG,AFNE01.JPG,,,,,,,,,,,,,5,5,55,5,,,,,,,,,,,AFNE10.jpg,AFNE14.jpg,AFSA08.jpg,AFSA11.jpg,AFNE14.jpg,FN,3,num_6,32,num_8,2.06665909721,,,2017_Jul_19_1129,60.01218418,MAFE4ImagesEEG,001,200970,
AFNE01.JPG,AFNE01.JPG,AFNE01.JPG,AFNE01.JPG,AFNE01.JPG,AFNE01.JPG,,,,,,,,,,,,,5,6,56,0,,,,,,,,,,,AFSA02.jpg,AFNE03.jpg,AFSA19.jpg,AFNE02.jpg,AFSA02.jpg,FS,4,num_8,32,num_2,1.11657556045,,,2017_Jul_19_1129,60.01218418,MAFE4ImagesEEG,001,200970,
AFNE01.JPG,AFNE01.JPG,AFNE01.JPG,AFNE01.JPG,AFNE01.JPG,AFNE01.JPG,,,,,,,,,,,,,5,7,57,2,,,,,,,,,,,AFSA07.jpg,AFNE05.jpg,AFNE18.jpg,AFSA13.jpg,AFSA07.jpg,FS,4,num_8,32,num_6,0.850119427603,,,2017_Jul_19_1129,60.01218418,MAFE4ImagesEEG,001,200970,
AFNE01.JPG,AFNE01.JPG,AFNE01.JPG,AFNE01.JPG,AFNE01.JPG,AFNE01.JPG,,,,,,,,,,,,,5,8,58,7,,,,,,,,,,,AFNE04.jpg,AFSA19.jpg,AFNE03.jpg,AFSA08.jpg,AFSA19.jpg,FS,4,num_6,32,num_4,1.01675770877,,,2017_Jul_19_1129,60.01218418,MAFE4ImagesEEG,001,200970,
AFNE01.JPG,AFNE01.JPG,AFNE01.JPG,AFNE01.JPG,AFNE01.JPG,AFNE01.JPG,,,,,,,,,,,,,5,9,59,8,,,,,,,,,,,AFNE01.jpg,AFNE12.jpg,AFSA09.jpg,AFSA13.jpg,AFNE01.jpg,FN,3,num_8,32,num_4,0.933442577429,,,2017_Jul_19_1129,60.01218418,MAFE4ImagesEEG,001,200970,
,,,,,,,,,,,,,,,,,,,,,,,,,,,,,,,,,,,,,,,,,,,space,19.1820119963,2017_Jul_19_1129,60.01218418,MAFE4ImagesEEG,001,200970,
AFNE01.JPG,AFNE01.JPG,AFNE01.JPG,AFNE01.JPG,AFNE01.JPG,AFNE01.JPG,,,,,,,,,,,,,,,,,0,0,0,3,,,,,,,AMSA05.jpg,AMSA20.jpg,AMNE20.jpg,AMNE04.jpg,AMSA20.jpg,MS,2,num_6,32,num_8,0.766794353316,,,2017_Jul_19_1129,60.01218418,MAFE4ImagesEEG,001,200970,
AFNE01.JPG,AFNE01.JPG,AFNE01.JPG,AFNE01.JPG,AFNE01.JPG,AFNE01.JPG,,,,,,,,,,,,,,,,,0,1,1,2,,,,,,,AMSA15.jpg,AMNE13.jpg,AMNE18.jpg,AMSA20.jpg,AMNE18.jpg,MN,1,num_2,32,num_6,0.850136426801,,,2017_Jul_19_1129,60.01218418,MAFE4ImagesEEG,001,200970,
AFNE01.JPG,AFNE01.JPG,AFNE01.JPG,AFNE01.JPG,AFNE01.JPG,AFNE01.JPG,,,,,,,,,,,,,,,,,0,2,2,1,,,,,,,AMNE10.jpg,AMSA18.jpg,AMNE06.jpg,AMSA20.jpg,AMSA20.jpg,MS,2,num_4,16,num_4,1.1000994615,,,2017_Jul_19_1129,60.01218418,MAFE4ImagesEEG,001,200970,
AFNE01.JPG,AFNE01.JPG,AFNE01.JPG,AFNE01.JPG,AFNE01.JPG,AFNE01.JPG,,,,,,,,,,,,,,,,,0,3,3,9,,,,,,,AMNE19.jpg,AMSA14.jpg,AMNE08.jpg,AMSA11.jpg,AMSA14.jpg,MS,2,num_6,16,num_6,0.416793439188,,,2017_Jul_19_1129,60.01218418,MAFE4ImagesEEG,001,200970,
AFNE01.JPG,AFNE01.JPG,AFNE01.JPG,AFNE01.JPG,AFNE01.JPG,AFNE01.JPG,,,,,,,,,,,,,,,,,0,4,4,0,,,,,,,AMSA16.jpg,AMNE15.jpg,AMSA20.jpg,AMNE04.jpg,AMNE04.jpg,MN,1,num_4,32,num_2,1.10009593339,,,2017_Jul_19_1129,60.01218418,MAFE4ImagesEEG,001,200970,
AFNE01.JPG,AFNE01.JPG,AFNE01.JPG,AFNE01.JPG,AFNE01.JPG,AFNE01.JPG,,,,,,,,,,,,,,,,,0,5,5,4,,,,,,,AMSA03.jpg,AMNE01.jpg,AMSA09.jpg,AMNE04.jpg,AMSA09.jpg,MS,2,num_2,32,num_8,0.916717584158,,,2017_Jul_19_1129,60.01218418,MAFE4ImagesEEG,001,200970,
AFNE01.JPG,AFNE01.JPG,AFNE01.JPG,AFNE01.JPG,AFNE01.JPG,AFNE01.JPG,,,,,,,,,,,,,,,,,0,6,6,8,,,,,,,AMSA16.jpg,AMSA06.jpg,AMNE09.jpg,AMNE07.jpg,AMSA06.jpg,MS,2,num_6,32,num_2,1.05009543622,,,2017_Jul_19_1129,60.01218418,MAFE4ImagesEEG,001,200970,
AFNE01.JPG,AFNE01.JPG,AFNE01.JPG,AFNE01.JPG,AFNE01.JPG,AFNE01.JPG,,,,,,,,,,,,,,,,,0,7,7,5,,,,,,,AMNE20.jpg,AMSA14.jpg,AMSA12.jpg,AMNE02.jpg,AMNE02.jpg,MN,1,num_4,32,num_6,0.733469134691,,,2017_Jul_19_1129,60.01218418,MAFE4ImagesEEG,001,200970,
AFNE01.JPG,AFNE01.JPG,AFNE01.JPG,AFNE01.JPG,AFNE01.JPG,AFNE01.JPG,,,,,,,,,,,,,,,,,0,8,8,7,,,,,,,AMNE06.jpg,AMNE05.jpg,AMSA17.jpg,AMSA03.jpg,AMSA03.jpg,MS,2,num_4,16,num_4,0.650160738907,,,2017_Jul_19_1129,60.01218418,MAFE4ImagesEEG,001,200970,
AFNE01.JPG,AFNE01.JPG,AFNE01.JPG,AFNE01.JPG,AFNE01.JPG,AFNE01.JPG,,,,,,,,,,,,,,,,,0,9,9,6,,,,,,,AMSA20.jpg,AMSA07.jpg,AMNE20.jpg,AMNE13.jpg,AMNE20.jpg,MN,1,num_2,32,num_8,0.816814094869,,,2017_Jul_19_1129,60.01218418,MAFE4ImagesEEG,001,200970,
AFNE01.JPG,AFNE01.JPG,AFNE01.JPG,AFNE01.JPG,AFNE01.JPG,AFNE01.JPG,,,,,,,,,,,,,,,,,1,0,10,9,,,,,,,AMNE19.jpg,AMSA01.jpg,AMNE06.jpg,AMSA08.jpg,AMSA08.jpg,MS,2,num_4,32,num_2,0.633477441879,,,2017_Jul_19_1129,60.01218418,MAFE4ImagesEEG,001,200970,
AFNE01.JPG,AFNE01.JPG,AFNE01.JPG,AFNE01.JPG,AFNE01.JPG,AFNE01.JPG,,,,,,,,,,,,,,,,,1,1,11,5,,,,,,,AMSA06.jpg,AMNE11.jpg,AMSA08.jpg,AMNE08.jpg,AMSA06.jpg,MS,2,num_8,16,num_8,0.900126980996,,,2017_Jul_19_1129,60.01218418,MAFE4ImagesEEG,001,200970,
AFNE01.JPG,AFNE01.JPG,AFNE01.JPG,AFNE01.JPG,AFNE01.JPG,AFNE01.JPG,,,,,,,,,,,,,,,,,1,2,12,6,,,,,,,AMSA05.jpg,AMSA14.jpg,AMNE19.jpg,AMNE03.jpg,AMSA05.jpg,MS,2,num_8,16,num_8,1.06673318814,,,2017_Jul_19_1129,60.01218418,MAFE4ImagesEEG,001,200970,
AFNE01.JPG,AFNE01.JPG,AFNE01.JPG,AFNE01.JPG,AFNE01.JPG,AFNE01.JPG,,,,,,,,,,,,,,,,,1,3,13,3,,,,,,,AMNE14.jpg,AMSA19.jpg,AMSA12.jpg,AMNE20.jpg,AMNE14.jpg,MN,1,num_8,16,num_8,1.03344581689,,,2017_Jul_19_1129,60.01218418,MAFE4ImagesEEG,001,200970,
AFNE01.JPG,AFNE01.JPG,AFNE01.JPG,AFNE01.JPG,AFNE01.JPG,AFNE01.JPG,,,,,,,,,,,,,,,,,1,4,14,8,,,,,,,AMNE10.jpg,AMSA04.jpg,AMNE06.jpg,AMSA20.jpg,AMNE06.jpg,MN,1,num_2,32,num_4,1.7499154048,,,2017_Jul_19_1129,60.01218418,MAFE4ImagesEEG,001,200970,
AFNE01.JPG,AFNE01.JPG,AFNE01.JPG,AFNE01.JPG,AFNE01.JPG,AFNE01.JPG,,,,,,,,,,,,,,,,,1,5,15,1,,,,,,,AMNE10.jpg,AMSA07.jpg,AMNE20.jpg,AMSA13.jpg,AMSA07.jpg,MS,2,num_6,16,num_6,0.633481611498,,,2017_Jul_19_1129,60.01218418,MAFE4ImagesEEG,001,200970,
AFNE01.JPG,AFNE01.JPG,AFNE01.JPG,AFNE01.JPG,AFNE01.JPG,AFNE01.JPG,,,,,,,,,,,,,,,,,1,6,16,0,,,,,,,AMNE12.jpg,AMNE13.jpg,AMSA15.jpg,AMSA12.jpg,AMSA12.jpg,MS,2,num_4,32,num_6,0.933476575854,,,2017_Jul_19_1129,60.01218418,MAFE4ImagesEEG,001,200970,
AFNE01.JPG,AFNE01.JPG,AFNE01.JPG,AFNE01.JPG,AFNE01.JPG,AFNE01.JPG,,,,,,,,,,,,,,,,,1,7,17,7,,,,,,,AMSA14.jpg,AMSA16.jpg,AMNE05.jpg,AMNE17.jpg,AMSA16.jpg,MS,2,num_6,32,num_8,1.50004185658,,,2017_Jul_19_1129,60.01218418,MAFE4ImagesEEG,001,200970,
AFNE01.JPG,AFNE01.JPG,AFNE01.JPG,AFNE01.JPG,AFNE01.JPG,AFNE01.JPG,,,,,,,,,,,,,,,,,1,8,18,2,,,,,,,AMNE15.jpg,AMSA07.jpg,AMNE17.jpg,AMSA13.jpg,AMNE15.jpg,MN,1,num_8,32,num_4,1.60008101896,,,2017_Jul_19_1129,60.01218418,MAFE4ImagesEEG,001,200970,
AFNE01.JPG,AFNE01.JPG,AFNE01.JPG,AFNE01.JPG,AFNE01.JPG,AFNE01.JPG,,,,,,,,,,,,,,,,,1,9,19,4,,,,,,,AMNE18.jpg,AMSA09.jpg,AMSA04.jpg,AMNE19.jpg,AMNE19.jpg,MN,1,num_4,32,num_2,0.866780272801,,,2017_Jul_19_1129,60.01218418,MAFE4ImagesEEG,001,200970,
AFNE01.JPG,AFNE01.JPG,AFNE01.JPG,AFNE01.JPG,AFNE01.JPG,AFNE01.JPG,,,,,,,,,,,,,,,,,2,0,20,1,,,,,,,AMSA07.jpg,AMNE01.jpg,AMSA14.jpg,AMNE06.jpg,AMSA14.jpg,MS,2,num_2,32,num_6,0.933510574308,,,2017_Jul_19_1129,60.01218418,MAFE4ImagesEEG,001,200970,
AFNE01.JPG,AFNE01.JPG,AFNE01.JPG,AFNE01.JPG,AFNE01.JPG,AFNE01.JPG,,,,,,,,,,,,,,,,,2,1,21,3,,,,,,,AMNE06.jpg,AMSA14.jpg,AMSA18.jpg,AMNE12.jpg,AMSA18.jpg,MS,2,num_2,16,num_2,0.96679762486,,,2017_Jul_19_1129,60.01218418,MAFE4ImagesEEG,001,200970,
AFNE01.JPG,AFNE01.JPG,AFNE01.JPG,AFNE01.JPG,AFNE01.JPG,AFNE01.JPG,,,,,,,,,,,,,,,,,2,2,22,2,,,,,,,AMNE04.jpg,AMNE03.jpg,AMSA20.jpg,AMSA19.jpg,AMSA20.jpg,MS,2,num_2,32,num_8,1.06678258214,,,2017_Jul_19_1129,60.01218418,MAFE4ImagesEEG,001,200970,
AFNE01.JPG,AFNE01.JPG,AFNE01.JPG,AFNE01.JPG,AFNE01.JPG,AFNE01.JPG,,,,,,,,,,,,,,,,,2,3,23,5,,,,,,,AMNE07.jpg,AMNE18.jpg,AMSA10.jpg,AMSA14.jpg,AMSA14.jpg,MS,2,num_4,16,num_4,1.0000663932,,,2017_Jul_19_1129,60.01218418,MAFE4ImagesEEG,001,200970,
AFNE01.JPG,AFNE01.JPG,AFNE01.JPG,AFNE01.JPG,AFNE01.JPG,AFNE01.JPG,,,,,,,,,,,,,,,,,2,4,24,0,,,,,,,AMNE03.jpg,AMSA10.jpg,AMSA19.jpg,AMNE17.jpg,AMNE17.jpg,MN,1,num_4,32,num_8,1.10015238365,,,2017_Jul_19_1129,60.01218418,MAFE4ImagesEEG,001,200970,
AFNE01.JPG,AFNE01.JPG,AFNE01.JPG,AFNE01.JPG,AFNE01.JPG,AFNE01.JPG,,,,,,,,,,,,,,,,,2,5,25,9,,,,,,,AMNE15.jpg,AMSA03.jpg,AMSA04.jpg,AMNE09.jpg,AMSA03.jpg,MS,2,num_6,32,num_2,0.933456048515,,,2017_Jul_19_1129,60.01218418,MAFE4ImagesEEG,001,200970,
AFNE01.JPG,AFNE01.JPG,AFNE01.JPG,AFNE01.JPG,AFNE01.JPG,AFNE01.JPG,,,,,,,,,,,,,,,,,2,6,26,8,,,,,,,AMNE04.jpg,AMNE08.jpg,AMSA02.jpg,AMSA14.jpg,AMNE04.jpg,MN,1,num_8,32,num_2,1.20017518825,,,2017_Jul_19_1129,60.01218418,MAFE4ImagesEEG,001,200970,
AFNE01.JPG,AFNE01.JPG,AFNE01.JPG,AFNE01.JPG,AFNE01.JPG,AFNE01.JPG,,,,,,,,,,,,,,,,,2,7,27,6,,,,,,,AMNE11.jpg,AMSA11.jpg,AMSA17.jpg,AMNE19.jpg,AMNE11.jpg,MN,1,num_8,16,num_8,1.40023009895,,,2017_Jul_19_1129,60.01218418,MAFE4ImagesEEG,001,200970,
AFNE01.JPG,AFNE01.JPG,AFNE01.JPG,AFNE01.JPG,AFNE01.JPG,AFNE01.JPG,,,,,,,,,,,,,,,,,2,8,28,4,,,,,,,AMSA06.jpg,AMSA08.jpg,AMNE11.jpg,AMNE05.jpg,AMNE11.jpg,MN,1,num_2,32,num_4,0.916780449246,,,2017_Jul_19_1129,60.01218418,MAFE4ImagesEEG,001,200970,
AFNE01.JPG,AFNE01.JPG,AFNE01.JPG,AFNE01.JPG,AFNE01.JPG,AFNE01.JPG,,,,,,,,,,,,,,,,,2,9,29,7,,,,,,,AMNE08.jpg,AMSA14.jpg,AMNE12.jpg,AMSA06.jpg,AMSA14.jpg,MS,2,num_6,16,num_6,1.03346538203,,,2017_Jul_19_1129,60.01218418,MAFE4ImagesEEG,001,200970,
AFNE01.JPG,AFNE01.JPG,AFNE01.JPG,AFNE01.JPG,AFNE01.JPG,AFNE01.JPG,,,,,,,,,,,,,,,,,3,0,30,9,,,,,,,AMNE04.jpg,AMSA12.jpg,AMSA03.jpg,AMNE16.jpg,AMNE16.jpg,MN,1,num_4,16,num_4,1.06682876873,,,2017_Jul_19_1129,60.01218418,MAFE4ImagesEEG,001,200970,
AFNE01.JPG,AFNE01.JPG,AFNE01.JPG,AFNE01.JPG,AFNE01.JPG,AFNE01.JPG,,,,,,,,,,,,,,,,,3,1,31,5,,,,,,,AMSA07.jpg,AMNE20.jpg,AMNE10.jpg,AMSA10.jpg,AMNE10.jpg,MN,1,num_2,32,num_8,0.933859539567,,,2017_Jul_19_1129,60.01218418,MAFE4ImagesEEG,001,200970,
AFNE01.JPG,AFNE01.JPG,AFNE01.JPG,AFNE01.JPG,AFNE01.JPG,AFNE01.JPG,,,,,,,,,,,,,,,,,3,2,32,7,,,,,,,AMNE17.jpg,AMSA15.jpg,AMNE20.jpg,AMSA16.jpg,AMNE17.jpg,MN,1,num_8,16,num_8,1.10015334585,,,2017_Jul_19_1129,60.01218418,MAFE4ImagesEEG,001,200970,
AFNE01.JPG,AFNE01.JPG,AFNE01.JPG,AFNE01.JPG,AFNE01.JPG,AFNE01.JPG,,,,,,,,,,,,,,,,,3,3,33,6,,,,,,,AMSA04.jpg,AMNE20.jpg,AMNE17.jpg,AMSA20.jpg,AMNE20.jpg,MN,1,num_6,32,num_2,1.6165843808,,,2017_Jul_19_1129,60.01218418,MAFE4ImagesEEG,001,200970,
AFNE01.JPG,AFNE01.JPG,AFNE01.JPG,AFNE01.JPG,AFNE01.JPG,AFNE01.JPG,,,,,,,,,,,,,,,,,3,4,34,0,,,,,,,AMSA13.jpg,AMNE14.jpg,AMSA04.jpg,AMNE09.jpg,AMNE09.jpg,MN,1,num_4,32,num_8,1.11677313634,,,2017_Jul_19_1129,60.01218418,MAFE4ImagesEEG,001,200970,
AFNE01.JPG,AFNE01.JPG,AFNE01.JPG,AFNE01.JPG,AFNE01.JPG,AFNE01.JPG,,,,,,,,,,,,,,,,,3,5,35,1,,,,,,,AMSA14.jpg,AMNE01.jpg,AMSA12.jpg,AMNE05.jpg,AMSA12.jpg,MS,2,num_2,32,num_4,1.35007147695,,,2017_Jul_19_1129,60.01218418,MAFE4ImagesEEG,001,200970,
AFNE01.JPG,AFNE01.JPG,AFNE01.JPG,AFNE01.JPG,AFNE01.JPG,AFNE01.JPG,,,,,,,,,,,,,,,,,3,6,36,3,,,,,,,AMSA20.jpg,AMSA12.jpg,AMNE11.jpg,AMNE20.jpg,AMSA12.jpg,MS,2,num_6,32,num_2,1.15011663715,,,2017_Jul_19_1129,60.01218418,MAFE4ImagesEEG,001,200970,
AFNE01.JPG,AFNE01.JPG,AFNE01.JPG,AFNE01.JPG,AFNE01.JPG,AFNE01.JPG,,,,,,,,,,,,,,,,,3,7,37,4,,,,,,,AMSA07.jpg,AMNE01.jpg,AMSA06.jpg,AMNE06.jpg,AMSA06.jpg,MS,2,num_2,16,num_2,1.1334403964,,,2017_Jul_19_1129,60.01218418,MAFE4ImagesEEG,001,200970,
AFNE01.JPG,AFNE01.JPG,AFNE01.JPG,AFNE01.JPG,AFNE01.JPG,AFNE01.JPG,,,,,,,,,,,,,,,,,3,8,38,8,,,,,,,AMSA17.jpg,AMNE12.jpg,AMNE04.jpg,AMSA16.jpg,AMNE12.jpg,MN,1,num_6,32,num_4,1.33340485836,,,2017_Jul_19_1129,60.01218418,MAFE4ImagesEEG,001,200970,
AFNE01.JPG,AFNE01.JPG,AFNE01.JPG,AFNE01.JPG,AFNE01.JPG,AFNE01.JPG,,,,,,,,,,,,,,,,,3,9,39,2,,,,,,,AMNE08.jpg,AMNE05.jpg,AMSA18.jpg,AMSA17.jpg,AMSA18.jpg,MS,2,num_2,32,num_8,1.24975776102,,,2017_Jul_19_1129,60.01218418,MAFE4ImagesEEG,001,200970,
AFNE01.JPG,AFNE01.JPG,AFNE01.JPG,AFNE01.JPG,AFNE01.JPG,AFNE01.JPG,,,,,,,,,,,,,,,,,4,0,40,6,,,,,,,AMSA08.jpg,AMNE11.jpg,AMSA15.jpg,AMNE20.jpg,AMNE11.jpg,MN,1,num_6,32,num_2,1.01675738799,,,2017_Jul_19_1129,60.01218418,MAFE4ImagesEEG,001,200970,
AFNE01.JPG,AFNE01.JPG,AFNE01.JPG,AFNE01.JPG,AFNE01.JPG,AFNE01.JPG,,,,,,,,,,,,,,,,,4,1,41,4,,,,,,,AMSA04.jpg,AMNE02.jpg,AMNE09.jpg,AMSA18.jpg,AMNE02.jpg,MN,1,num_6,16,num_6,0.833507655567,,,2017_Jul_19_1129,60.01218418,MAFE4ImagesEEG,001,200970,
AFNE01.JPG,AFNE01.JPG,AFNE01.JPG,AFNE01.JPG,AFNE01.JPG,AFNE01.JPG,,,,,,,,,,,,,,,,,4,2,42,2,,,,,,,AMSA05.jpg,AMNE04.jpg,AMNE17.jpg,AMSA18.jpg,AMNE04.jpg,MN,1,num_6,32,num_8,1.0999490344,,,2017_Jul_19_1129,60.01218418,MAFE4ImagesEEG,001,200970,
AFNE01.JPG,AFNE01.JPG,AFNE01.JPG,AFNE01.JPG,AFNE01.JPG,AFNE01.JPG,,,,,,,,,,,,,,,,,4,3,43,1,,,,,,,AMNE14.jpg,AMSA09.jpg,AMSA16.jpg,AMNE04.jpg,AMNE04.jpg,MN,1,num_4,16,num_4,1.16674733281,,,2017_Jul_19_1129,60.01218418,MAFE4ImagesEEG,001,200970,
AFNE01.JPG,AFNE01.JPG,AFNE01.JPG,AFNE01.JPG,AFNE01.JPG,AFNE01.JPG,,,,,,,,,,,,,,,,,4,4,44,0,,,,,,,AMSA13.jpg,AMNE14.jpg,AMNE11.jpg,AMSA05.jpg,AMSA05.jpg,MS,2,num_4,16,num_4,0.783550779102,,,2017_Jul_19_1129,60.01218418,MAFE4ImagesEEG,001,200970,
AFNE01.JPG,AFNE01.JPG,AFNE01.JPG,AFNE01.JPG,AFNE01.JPG,AFNE01.JPG,,,,,,,,,,,,,,,,,4,5,45,9,,,,,,,AMSA08.jpg,AMSA13.jpg,AMNE07.jpg,AMNE18.jpg,AMNE07.jpg,MN,1,num_2,32,num_8,0.900136282493,,,2017_Jul_19_1129,60.01218418,MAFE4ImagesEEG,001,200970,
AFNE01.JPG,AFNE01.JPG,AFNE01.JPG,AFNE01.JPG,AFNE01.JPG,AFNE01.JPG,,,,,,,,,,,,,,,,,4,6,46,7,,,,,,,AMNE12.jpg,AMNE15.jpg,AMSA02.jpg,AMSA05.jpg,AMSA02.jpg,MS,2,num_2,16,num_2,0.383567329292,,,2017_Jul_19_1129,60.01218418,MAFE4ImagesEEG,001,200970,
AFNE01.JPG,AFNE01.JPG,AFNE01.JPG,AFNE01.JPG,AFNE01.JPG,AFNE01.JPG,,,,,,,,,,,,,,,,,4,7,47,5,,,,,,,AMSA14.jpg,AMNE15.jpg,AMNE06.jpg,AMSA20.jpg,AMSA14.jpg,MS,2,num_8,16,num_8,0.816791963793,,,2017_Jul_19_1129,60.01218418,MAFE4ImagesEEG,001,200970,
AFNE01.JPG,AFNE01.JPG,AFNE01.JPG,AFNE01.JPG,AFNE01.JPG,AFNE01.JPG,,,,,,,,,,,,,,,,,4,8,48,8,,,,,,,AMNE09.jpg,AMNE16.jpg,AMSA20.jpg,AMSA06.jpg,AMNE16.jpg,MN,1,num_6,16,num_6,1.03345351465,,,2017_Jul_19_1129,60.01218418,MAFE4ImagesEEG,001,200970,
AFNE01.JPG,AFNE01.JPG,AFNE01.JPG,AFNE01.JPG,AFNE01.JPG,AFNE01.JPG,,,,,,,,,,,,,,,,,4,9,49,3,,,,,,,AMSA11.jpg,AMSA15.jpg,AMNE11.jpg,AMNE14.jpg,AMNE11.jpg,MN,1,num_2,32,num_4,0.966739570897,,,2017_Jul_19_1129,60.01218418,MAFE4ImagesEEG,001,200970,
AFNE01.JPG,AFNE01.JPG,AFNE01.JPG,AFNE01.JPG,AFNE01.JPG,AFNE01.JPG,,,,,,,,,,,,,,,,,5,0,50,1,,,,,,,AMNE15.jpg,AMNE16.jpg,AMSA07.jpg,AMSA10.jpg,AMNE15.jpg,MN,1,num_8,16,num_8,0.750156922091,,,2017_Jul_19_1129,60.01218418,MAFE4ImagesEEG,001,200970,
AFNE01.JPG,AFNE01.JPG,AFNE01.JPG,AFNE01.JPG,AFNE01.JPG,AFNE01.JPG,,,,,,,,,,,,,,,,,5,1,51,7,,,,,,,AMNE07.jpg,AMSA08.jpg,AMSA07.jpg,AMNE05.jpg,AMSA08.jpg,MS,2,num_6,32,num_2,1.15012978748,,,2017_Jul_19_1129,60.01218418,MAFE4ImagesEEG,001,200970,
AFNE01.JPG,AFNE01.JPG,AFNE01.JPG,AFNE01.JPG,AFNE01.JPG,AFNE01.JPG,,,,,,,,,,,,,,,,,5,2,52,8,,,,,,,AMNE06.jpg,AMSA14.jpg,AMSA11.jpg,AMNE03.jpg,AMNE03.jpg,MN,1,num_4,32,num_6,1.08344054071,,,2017_Jul_19_1129,60.01218418,MAFE4ImagesEEG,001,200970,
AFNE01.JPG,AFNE01.JPG,AFNE01.JPG,AFNE01.JPG,AFNE01.JPG,AFNE01.JPG,,,,,,,,,,,,,,,,,5,3,53,6,,,,,,,AMSA07.jpg,AMNE07.jpg,AMSA01.jpg,AMNE20.jpg,AMSA07.jpg,MS,2,num_8,32,num_4,1.21679818616,,,2017_Jul_19_1129,60.01218418,MAFE4ImagesEEG,001,200970,
AFNE01.JPG,AFNE01.JPG,AFNE01.JPG,AFNE01.JPG,AFNE01.JPG,AFNE01.JPG,,,,,,,,,,,,,,,,,5,4,54,0,,,,,,,AMSA12.jpg,AMNE17.jpg,AMSA18.jpg,AMNE01.jpg,AMSA18.jpg,MS,2,num_2,32,num_8,1.2000597218,,,2017_Jul_19_1129,60.01218418,MAFE4ImagesEEG,001,200970,
AFNE01.JPG,AFNE01.JPG,AFNE01.JPG,AFNE01.JPG,AFNE01.JPG,AFNE01.JPG,,,,,,,,,,,,,,,,,5,5,55,4,,,,,,,AMNE04.jpg,AMSA08.jpg,AMSA03.jpg,AMNE17.jpg,AMSA03.jpg,MS,2,num_2,16,num_2,1.56670351973,,,2017_Jul_19_1129,60.01218418,MAFE4ImagesEEG,001,200970,
AFNE01.JPG,AFNE01.JPG,AFNE01.JPG,AFNE01.JPG,AFNE01.JPG,AFNE01.JPG,,,,,,,,,,,,,,,,,5,6,56,3,,,,,,,AMSA12.jpg,AMSA01.jpg,AMNE07.jpg,AMNE14.jpg,AMSA01.jpg,MS,2,num_6,16,num_6,0.433489245101,,,2017_Jul_19_1129,60.01218418,MAFE4ImagesEEG,001,200970,
AFNE01.JPG,AFNE01.JPG,AFNE01.JPG,AFNE01.JPG,AFNE01.JPG,AFNE01.JPG,,,,,,,,,,,,,,,,,5,7,57,9,,,,,,,AMSA03.jpg,AMSA05.jpg,AMNE08.jpg,AMNE20.jpg,AMSA05.jpg,MS,2,num_6,32,num_4,1.18346013792,,,2017_Jul_19_1129,60.01218418,MAFE4ImagesEEG,001,200970,
AFNE01.JPG,AFNE01.JPG,AFNE01.JPG,AFNE01.JPG,AFNE01.JPG,AFNE01.JPG,,,,,,,,,,,,,,,,,5,8,58,2,,,,,,,AMSA08.jpg,AMNE01.jpg,AMSA17.jpg,AMNE03.jpg,AMSA08.jpg,MS,2,num_8,16,num_8,0.883458758763,,,2017_Jul_19_1129,60.01218418,MAFE4ImagesEEG,001,200970,
AFNE01.JPG,AFNE01.JPG,AFNE01.JPG,AFNE01.JPG,AFNE01.JPG,AFNE01.JPG,,,,,,,,,,,,,,,,,5,9,59,5,,,,,,,AMSA16.jpg,AMSA10.jpg,AMNE18.jpg,AMNE08.jpg,AMSA16.jpg,MS,2,num_8,32,num_6,1.10013634662,,,2017_Jul_19_1129,60.01218418,MAFE4ImagesEEG,001,200970,
,,,,,,,,,,,,,,,,,,,,,,,,,,,,,,,,,,,,,,,,,,,space,47.3965480024,2017_Jul_19_1129,60.01218418,MAFE4ImagesEEG,001,200970,
AFNE01.JPG,AFNE01.JPG,AFNE01.JPG,AFNE01.JPG,AFNE01.JPG,AFNE01.JPG,,,,,,,,,,,,,,,,,,,,,0,0,0,0,,,AFNE08.jpg,AFNE09.jpg,AFSA02.jpg,AFSA12.jpg,AFNE08.jpg,FN,3,num_8,16,num_8,0.883468701708,,,2017_Jul_19_1129,60.01218418,MAFE4ImagesEEG,001,200970,
AFNE01.JPG,AFNE01.JPG,AFNE01.JPG,AFNE01.JPG,AFNE01.JPG,AFNE01.JPG,,,,,,,,,,,,,,,,,,,,,0,1,1,6,,,AFNE16.jpg,AFSA09.jpg,AFNE12.jpg,AFSA18.jpg,AFSA18.jpg,FS,4,num_4,32,num_6,0.666762247216,,,2017_Jul_19_1129,60.01218418,MAFE4ImagesEEG,001,200970,
AFNE01.JPG,AFNE01.JPG,AFNE01.JPG,AFNE01.JPG,AFNE01.JPG,AFNE01.JPG,,,,,,,,,,,,,,,,,,,,,0,2,2,9,,,AFNE06.jpg,AFSA15.jpg,AFNE05.jpg,AFSA03.jpg,AFNE05.jpg,FN,3,num_2,32,num_4,1.08344984218,,,2017_Jul_19_1129,60.01218418,MAFE4ImagesEEG,001,200970,
AFNE01.JPG,AFNE01.JPG,AFNE01.JPG,AFNE01.JPG,AFNE01.JPG,AFNE01.JPG,,,,,,,,,,,,,,,,,,,,,0,3,3,1,,,AFNE08.jpg,AFSA16.jpg,AFSA08.jpg,AFNE12.jpg,AFNE08.jpg,FN,3,num_8,16,num_8,0.766832200636,,,2017_Jul_19_1129,60.01218418,MAFE4ImagesEEG,001,200970,
AFNE01.JPG,AFNE01.JPG,AFNE01.JPG,AFNE01.JPG,AFNE01.JPG,AFNE01.JPG,,,,,,,,,,,,,,,,,,,,,0,4,4,4,,,AFNE07.jpg,AFSA01.jpg,AFNE03.jpg,AFSA09.jpg,AFNE03.jpg,FN,3,num_2,16,num_2,0.916748375224,,,2017_Jul_19_1129,60.01218418,MAFE4ImagesEEG,001,200970,
AFNE01.JPG,AFNE01.JPG,AFNE01.JPG,AFNE01.JPG,AFNE01.JPG,AFNE01.JPG,,,,,,,,,,,,,,,,,,,,,0,5,5,7,,,AFNE10.jpg,AFSA15.jpg,AFNE06.jpg,AFSA17.jpg,AFSA15.jpg,FS,4,num_6,16,num_6,0.733498001297,,,2017_Jul_19_1129,60.01218418,MAFE4ImagesEEG,001,200970,
AFNE01.JPG,AFNE01.JPG,AFNE01.JPG,AFNE01.JPG,AFNE01.JPG,AFNE01.JPG,,,,,,,,,,,,,,,,,,,,,0,6,6,2,,,AFSA16.jpg,AFNE03.jpg,AFNE05.jpg,AFSA05.jpg,AFNE03.jpg,FN,3,num_6,32,num_2,1.00013631457,,,2017_Jul_19_1129,60.01218418,MAFE4ImagesEEG,001,200970,
AFNE01.JPG,AFNE01.JPG,AFNE01.JPG,AFNE01.JPG,AFNE01.JPG,AFNE01.JPG,,,,,,,,,,,,,,,,,,,,,0,7,7,5,,,AFSA15.jpg,AFNE16.jpg,AFNE11.jpg,AFSA01.jpg,AFSA15.jpg,FS,4,num_8,16,num_8,0.866877136345,,,2017_Jul_19_1129,60.01218418,MAFE4ImagesEEG,001,200970,
AFNE01.JPG,AFNE01.JPG,AFNE01.JPG,AFNE01.JPG,AFNE01.JPG,AFNE01.JPG,,,,,,,,,,,,,,,,,,,,,0,8,8,8,,,AFSA17.jpg,AFSA08.jpg,AFNE13.jpg,AFNE11.jpg,AFSA08.jpg,FS,4,num_6,16,num_6,1.16678742532,,,2017_Jul_19_1129,60.01218418,MAFE4ImagesEEG,001,200970,
AFNE01.JPG,AFNE01.JPG,AFNE01.JPG,AFNE01.JPG,AFNE01.JPG,AFNE01.JPG,,,,,,,,,,,,,,,,,,,,,0,9,9,3,,,AFSA02.jpg,AFSA16.jpg,AFNE09.jpg,AFNE14.jpg,AFSA16.jpg,FS,4,num_6,16,num_6,0.683466071641,,,2017_Jul_19_1129,60.01218418,MAFE4ImagesEEG,001,200970,
AFNE01.JPG,AFNE01.JPG,AFNE01.JPG,AFNE01.JPG,AFNE01.JPG,AFNE01.JPG,,,,,,,,,,,,,,,,,,,,,1,0,10,6,,,AFSA07.jpg,AFSA16.jpg,AFNE09.jpg,AFNE10.jpg,AFSA16.jpg,FS,4,num_6,32,num_8,0.933539120189,,,2017_Jul_19_1129,60.01218418,MAFE4ImagesEEG,001,200970,
AFNE01.JPG,AFNE01.JPG,AFNE01.JPG,AFNE01.JPG,AFNE01.JPG,AFNE01.JPG,,,,,,,,,,,,,,,,,,,,,1,1,11,8,,,AFSA11.jpg,AFSA08.jpg,AFNE14.jpg,AFNE19.jpg,AFNE19.jpg,FN,3,num_4,32,num_2,0.850103390578,,,2017_Jul_19_1129,60.01218418,MAFE4ImagesEEG,001,200970,
AFNE01.JPG,AFNE01.JPG,AFNE01.JPG,AFNE01.JPG,AFNE01.JPG,AFNE01.JPG,,,,,,,,,,,,,,,,,,,,,1,2,12,4,,,AFSA05.jpg,AFSA07.jpg,AFNE20.jpg,AFNE16.jpg,AFSA07.jpg,FS,4,num_6,32,num_2,0.916768581839,,,2017_Jul_19_1129,60.01218418,MAFE4ImagesEEG,001,200970,
AFNE01.JPG,AFNE01.JPG,AFNE01.JPG,AFNE01.JPG,AFNE01.JPG,AFNE01.JPG,,,,,,,,,,,,,,,,,,,,,1,3,13,3,,,AFNE16.jpg,AFSA04.jpg,AFNE18.jpg,AFSA06.jpg,AFSA04.jpg,FS,4,num_6,16,num_6,0.783455840021,,,2017_Jul_19_1129,60.01218418,MAFE4ImagesEEG,001,200970,
AFNE01.JPG,AFNE01.JPG,AFNE01.JPG,AFNE01.JPG,AFNE01.JPG,AFNE01.JPG,,,,,,,,,,,,,,,,,,,,,1,4,14,5,,,AFSA06.jpg,AFNE05.jpg,AFNE13.jpg,AFSA19.jpg,AFSA19.jpg,FS,4,num_4,16,num_4,0.999974661536,,,2017_Jul_19_1129,60.01218418,MAFE4ImagesEEG,001,200970,
AFNE01.JPG,AFNE01.JPG,AFNE01.JPG,AFNE01.JPG,AFNE01.JPG,AFNE01.JPG,,,,,,,,,,,,,,,,,,,,,1,5,15,1,,,AFSA20.jpg,AFNE16.jpg,AFSA09.jpg,AFNE06.jpg,AFSA20.jpg,FS,4,num_8,32,num_2,1.08343508813,,,2017_Jul_19_1129,60.01218418,MAFE4ImagesEEG,001,200970,
AFNE01.JPG,AFNE01.JPG,AFNE01.JPG,AFNE01.JPG,AFNE01.JPG,AFNE01.JPG,,,,,,,,,,,,,,,,,,,,,1,6,16,7,,,AFNE11.jpg,AFSA10.jpg,AFSA12.jpg,AFNE02.jpg,AFNE02.jpg,FN,3,num_4,16,num_4,0.966784153774,,,2017_Jul_19_1129,60.01218418,MAFE4ImagesEEG,001,200970,
AFNE01.JPG,AFNE01.JPG,AFNE01.JPG,AFNE01.JPG,AFNE01.JPG,AFNE01.JPG,,,,,,,,,,,,,,,,,,,,,1,7,17,9,,,AFSA19.jpg,AFSA16.jpg,AFNE04.jpg,AFNE05.jpg,AFNE05.jpg,FN,3,num_4,32,num_6,1.23339712853,,,2017_Jul_19_1129,60.01218418,MAFE4ImagesEEG,001,200970,
AFNE01.JPG,AFNE01.JPG,AFNE01.JPG,AFNE01.JPG,AFNE01.JPG,AFNE01.JPG,,,,,,,,,,,,,,,,,,,,,1,8,18,0,,,AFNE13.jpg,AFSA01.jpg,AFNE06.jpg,AFSA20.jpg,AFNE06.jpg,FN,3,num_2,32,num_8,0.966790889303,,,2017_Jul_19_1129,60.01218418,MAFE4ImagesEEG,001,200970,
AFNE01.JPG,AFNE01.JPG,AFNE01.JPG,AFNE01.JPG,AFNE01.JPG,AFNE01.JPG,,,,,,,,,,,,,,,,,,,,,1,9,19,2,,,AFNE12.jpg,AFSA19.jpg,AFNE09.jpg,AFSA09.jpg,AFNE09.jpg,FN,3,num_2,16,num_2,0.933470802527,,,2017_Jul_19_1129,60.01218418,MAFE4ImagesEEG,001,200970,
AFNE01.JPG,AFNE01.JPG,AFNE01.JPG,AFNE01.JPG,AFNE01.JPG,AFNE01.JPG,,,,,,,,,,,,,,,,,,,,,2,0,20,6,,,AFSA12.jpg,AFSA13.jpg,AFNE02.jpg,AFNE09.jpg,AFNE02.jpg,FN,3,num_2,16,num_2,2.08337543049,,,2017_Jul_19_1129,60.01218418,MAFE4ImagesEEG,001,200970,
AFNE01.JPG,AFNE01.JPG,AFNE01.JPG,AFNE01.JPG,AFNE01.JPG,AFNE01.JPG,,,,,,,,,,,,,,,,,,,,,2,1,21,8,,,AFSA08.jpg,AFNE03.jpg,AFSA04.jpg,AFNE08.jpg,AFNE03.jpg,FN,3,num_6,32,num_8,1.21669907746,,,2017_Jul_19_1129,60.01218418,MAFE4ImagesEEG,001,200970,
AFNE01.JPG,AFNE01.JPG,AFNE01.JPG,AFNE01.JPG,AFNE01.JPG,AFNE01.JPG,,,,,,,,,,,,,,,,,,,,,2,2,22,1,,,AFNE09.jpg,AFNE19.jpg,AFSA10.jpg,AFSA12.jpg,AFSA12.jpg,FS,4,num_4,16,num_4,0.683488844195,,,2017_Jul_19_1129,60.01218418,MAFE4ImagesEEG,001,200970,
AFNE01.JPG,AFNE01.JPG,AFNE01.JPG,AFNE01.JPG,AFNE01.JPG,AFNE01.JPG,,,,,,,,,,,,,,,,,,,,,2,3,23,4,,,AFNE15.jpg,AFSA07.jpg,AFSA18.jpg,AFNE02.jpg,AFNE02.jpg,FN,3,num_4,16,num_4,1.00010071238,,,2017_Jul_19_1129,60.01218418,MAFE4ImagesEEG,001,200970,
AFNE01.JPG,AFNE01.JPG,AFNE01.JPG,AFNE01.JPG,AFNE01.JPG,AFNE01.JPG,,,,,,,,,,,,,,,,,,,,,2,4,24,0,,,AFSA05.jpg,AFNE05.jpg,AFSA03.jpg,AFNE02.jpg,AFSA03.jpg,FS,4,num_2,16,num_2,0.883232957713,,,2017_Jul_19_1129,60.01218418,MAFE4ImagesEEG,001,200970,
AFNE01.JPG,AFNE01.JPG,AFNE01.JPG,AFNE01.JPG,AFNE01.JPG,AFNE01.JPG,,,,,,,,,,,,,,,,,,,,,2,5,25,3,,,AFNE12.jpg,AFSA04.jpg,AFNE13.jpg,AFSA10.jpg,AFNE12.jpg,FN,3,num_8,16,num_8,0.883457155054,,,2017_Jul_19_1129,60.01218418,MAFE4ImagesEEG,001,200970,
AFNE01.JPG,AFNE01.JPG,AFNE01.JPG,AFNE01.JPG,AFNE01.JPG,AFNE01.JPG,,,,,,,,,,,,,,,,,,,,,2,6,26,7,,,AFNE02.jpg,AFSA07.jpg,AFSA01.jpg,AFNE07.jpg,AFSA07.jpg,FS,4,num_6,32,num_4,1.11681419107,,,2017_Jul_19_1129,60.01218418,MAFE4ImagesEEG,001,200970,
AFNE01.JPG,AFNE01.JPG,AFNE01.JPG,AFNE01.JPG,AFNE01.JPG,AFNE01.JPG,,,,,,,,,,,,,,,,,,,,,2,7,27,2,,,AFSA07.jpg,AFSA17.jpg,AFNE16.jpg,AFNE11.jpg,AFNE11.jpg,FN,3,num_4,16,num_4,1.43336960903,,,2017_Jul_19_1129,60.01218418,MAFE4ImagesEEG,001,200970,
AFNE01.JPG,AFNE01.JPG,AFNE01.JPG,AFNE01.JPG,AFNE01.JPG,AFNE01.JPG,,,,,,,,,,,,,,,,,,,,,2,8,28,5,,,AFSA14.jpg,AFSA12.jpg,AFNE12.jpg,AFNE02.jpg,AFSA14.jpg,FS,4,num_8,16,num_8,2.0000439414,,,2017_Jul_19_1129,60.01218418,MAFE4ImagesEEG,001,200970,
AFNE01.JPG,AFNE01.JPG,AFNE01.JPG,AFNE01.JPG,AFNE01.JPG,AFNE01.JPG,,,,,,,,,,,,,,,,,,,,,2,9,29,9,,,AFSA16.jpg,AFNE07.jpg,AFSA03.jpg,AFNE04.jpg,AFSA03.jpg,FS,4,num_2,16,num_2,0.583500679495,,,2017_Jul_19_1129,60.01218418,MAFE4ImagesEEG,001,200970,
AFNE01.JPG,AFNE01.JPG,AFNE01.JPG,AFNE01.JPG,AFNE01.JPG,AFNE01.JPG,,,,,,,,,,,,,,,,,,,,,3,0,30,3,,,AFSA18.jpg,AFNE11.jpg,AFSA06.jpg,AFNE13.jpg,AFNE13.jpg,FN,3,num_4,32,num_2,0.883463569829,,,2017_Jul_19_1129,60.01218418,MAFE4ImagesEEG,001,200970,
AFNE01.JPG,AFNE01.JPG,AFNE01.JPG,AFNE01.JPG,AFNE01.JPG,AFNE01.JPG,,,,,,,,,,,,,,,,,,,,,3,1,31,9,,,AFNE10.jpg,AFSA14.jpg,AFNE18.jpg,AFSA06.jpg,AFSA06.jpg,FS,4,num_4,32,num_6,1.10007893413,,,2017_Jul_19_1129,60.01218418,MAFE4ImagesEEG,001,200970,
AFNE01.JPG,AFNE01.JPG,AFNE01.JPG,AFNE01.JPG,AFNE01.JPG,AFNE01.JPG,,,,,,,,,,,,,,,,,,,,,3,2,32,7,,,AFNE20.jpg,AFSA07.jpg,AFSA16.jpg,AFNE05.jpg,AFSA07.jpg,FS,4,num_6,32,num_8,1.08344503108,,,2017_Jul_19_1129,60.01218418,MAFE4ImagesEEG,001,200970,
AFNE01.JPG,AFNE01.JPG,AFNE01.JPG,AFNE01.JPG,AFNE01.JPG,AFNE01.JPG,,,,,,,,,,,,,,,,,,,,,3,3,33,0,,,AFNE03.jpg,AFSA11.jpg,AFSA07.jpg,AFNE14.jpg,AFSA07.jpg,FS,4,num_2,16,num_2,1.15022761322,,,2017_Jul_19_1129,60.01218418,MAFE4ImagesEEG,001,200970,
AFNE01.JPG,AFNE01.JPG,AFNE01.JPG,AFNE01.JPG,AFNE01.JPG,AFNE01.JPG,,,,,,,,,,,,,,,,,,,,,3,4,34,8,,,AFSA13.jpg,AFNE19.jpg,AFSA03.jpg,AFNE08.jpg,AFSA13.jpg,FS,4,num_8,16,num_8,1.06683454203,,,2017_Jul_19_1129,60.01218418,MAFE4ImagesEEG,001,200970,
AFNE01.JPG,AFNE01.JPG,AFNE01.JPG,AFNE01.JPG,AFNE01.JPG,AFNE01.JPG,,,,,,,,,,,,,,,,,,,,,3,5,35,2,,,AFNE19.jpg,AFSA15.jpg,AFSA07.jpg,AFNE04.jpg,AFSA07.jpg,FS,4,num_2,32,num_4,0.783563608711,,,2017_Jul_19_1129,60.01218418,MAFE4ImagesEEG,001,200970,
AFNE01.JPG,AFNE01.JPG,AFNE01.JPG,AFNE01.JPG,AFNE01.JPG,AFNE01.JPG,,,,,,,,,,,,,,,,,,,,,3,6,36,6,,,AFSA12.jpg,AFNE10.jpg,AFSA15.jpg,AFNE13.jpg,AFNE13.jpg,FN,3,num_4,16,num_4,0.850165934884,,,2017_Jul_19_1129,60.01218418,MAFE4ImagesEEG,001,200970,
AFNE01.JPG,AFNE01.JPG,AFNE01.JPG,AFNE01.JPG,AFNE01.JPG,AFNE01.JPG,,,,,,,,,,,,,,,,,,,,,3,7,37,4,,,AFSA16.jpg,AFSA14.jpg,AFNE04.jpg,AFNE03.jpg,AFNE03.jpg,FN,3,num_4,32,num_8,1.10008053784,,,2017_Jul_19_1129,60.01218418,MAFE4ImagesEEG,001,200970,
AFNE01.JPG,AFNE01.JPG,AFNE01.JPG,AFNE01.JPG,AFNE01.JPG,AFNE01.JPG,,,,,,,,,,,,,,,,,,,,,3,8,38,5,,,AFSA01.jpg,AFNE05.jpg,AFNE14.jpg,AFSA19.jpg,AFNE05.jpg,FN,3,num_6,32,num_8,0.91663419173,,,2017_Jul_19_1129,60.01218418,MAFE4ImagesEEG,001,200970,
AFNE01.JPG,AFNE01.JPG,AFNE01.JPG,AFNE01.JPG,AFNE01.JPG,AFNE01.JPG,,,,,,,,,,,,,,,,,,,,,3,9,39,1,,,AFSA11.jpg,AFSA07.jpg,AFNE19.jpg,AFNE02.jpg,AFSA11.jpg,FS,4,num_8,32,num_2,1.15016410669,,,2017_Jul_19_1129,60.01218418,MAFE4ImagesEEG,001,200970,
AFNE01.JPG,AFNE01.JPG,AFNE01.JPG,AFNE01.JPG,AFNE01.JPG,AFNE01.JPG,,,,,,,,,,,,,,,,,,,,,4,0,40,3,,,AFNE14.jpg,AFSA17.jpg,AFNE17.jpg,AFSA07.jpg,AFSA17.jpg,FS,4,num_6,32,num_2,1.15009194013,,,2017_Jul_19_1129,60.01218418,MAFE4ImagesEEG,001,200970,
AFNE01.JPG,AFNE01.JPG,AFNE01.JPG,AFNE01.JPG,AFNE01.JPG,AFNE01.JPG,,,,,,,,,,,,,,,,,,,,,4,1,41,1,,,AFSA05.jpg,AFSA11.jpg,AFNE02.jpg,AFNE13.jpg,AFNE13.jpg,FN,3,num_4,32,num_8,1.51672002178,,,2017_Jul_19_1129,60.01218418,MAFE4ImagesEEG,001,200970,
AFNE01.JPG,AFNE01.JPG,AFNE01.JPG,AFNE01.JPG,AFNE01.JPG,AFNE01.JPG,,,,,,,,,,,,,,,,,,,,,4,2,42,2,,,AFSA14.jpg,AFNE11.jpg,AFSA06.jpg,AFNE19.jpg,AFSA14.jpg,FS,4,num_8,32,num_2,1.23340771298,,,2017_Jul_19_1129,60.01218418,MAFE4ImagesEEG,001,200970,
