IPosition2,IPosition3,IPosition1,IPosition6,IPosition4,IPosition5,TrialsF1.thisRepN,TrialsF1.thisTrialN,TrialsF1.thisN,TrialsF1.thisIndex,TrialsM1.thisRepN,TrialsM1.thisTrialN,TrialsM1.thisN,TrialsM1.thisIndex,TrialsF2.thisRepN,TrialsF2.thisTrialN,TrialsF2.thisN,TrialsF2.thisIndex,TrialsM2.thisRepN,TrialsM2.thisTrialN,TrialsM2.thisN,TrialsM2.thisIndex,TrialsF3.thisRepN,TrialsF3.thisTrialN,TrialsF3.thisN,TrialsF3.thisIndex,TrialsM3.thisRepN,TrialsM3.thisTrialN,TrialsM3.thisN,TrialsM3.thisIndex,InstrKey_resp.keys,InstrKey_resp.rt,Image0 _Position,Image1 _Position,Image2 _Position,Image3 _Position,Center_image,condition,code,correct_answer,accuracy,Key_Resp.keys,Key_Resp.rt,BreakKey_resp.keys,BreakKey_resp.rt,date,frameRate,expName,session,participant,
,,,,,,,,,,,,,,,,,,,,,,,,,,,,,,space,10.3162215275,,,,,,,,,,,,,,2017_Jul_17_1038,59.9986721652,FEMA4ImagesEEG,001,200905,
AFNE22.JPG,AFSA24.JPG,AFSA22.JPG,AFNE25.JPG,AFNE24.JPG,AFSA25.JPG,0,0,0,6,,,,,,,,,,,,,,,,,,,,,,,AFSA16.jpg,AFNE13.jpg,AFSA20.jpg,AFNE04.jpg,AFNE04.jpg,FN,3,num_4,32,num_2,1.2001963571,,,2017_Jul_17_1038,59.9986721652,FEMA4ImagesEEG,001,200905,
AFSA21.JPG,AFNE22.JPG,AFNE21.JPG,AFSA23.JPG,AFSA22.JPG,AFNE23.JPG,0,1,1,0,,,,,,,,,,,,,,,,,,,,,,,AFNE03.jpg,AFSA16.jpg,AFNE17.jpg,AFSA15.jpg,AFNE17.jpg,FN,3,num_2,32,num_6,1.25009004779,,,2017_Jul_17_1038,59.9986721652,FEMA4ImagesEEG,001,200905,
AMSA21.JPG,AMNE22.JPG,AMNE21.JPG,AMSA23.JPG,AMSA22.JPG,AMNE23.JPG,0,2,2,1,,,,,,,,,,,,,,,,,,,,,,,AFSA09.jpg,AFNE18.jpg,AFSA12.jpg,AFNE16.jpg,AFSA09.jpg,FS,4,num_8,32,num_2,1.45011448818,,,2017_Jul_17_1038,59.9986721652,FEMA4ImagesEEG,001,200905,
AFSA25.JPG,AFNE24.JPG,AFSA24.JPG,AFNE21.JPG,AFSA21.JPG,AFNE25.JPG,0,3,3,2,,,,,,,,,,,,,,,,,,,,,,,AFNE20.jpg,AFSA14.jpg,AFSA03.jpg,AFNE01.jpg,AFSA14.jpg,FS,4,num_6,32,num_4,2.4334876414,,,2017_Jul_17_1038,59.9986721652,FEMA4ImagesEEG,001,200905,
AMNE23.JPG,AMNE24.JPG,AMNE22.JPG,AMSA24.JPG,AMSA22.JPG,AMSA23.JPG,0,4,4,9,,,,,,,,,,,,,,,,,,,,,,,AFNE20.jpg,AFNE16.jpg,AFSA14.jpg,AFSA03.jpg,AFSA14.jpg,FS,4,num_2,32,num_4,1.01662812974,,,2017_Jul_17_1038,59.9986721652,FEMA4ImagesEEG,001,200905,
AFSA21.JPG,AFNE23.JPG,AFNE21.JPG,AFSA25.JPG,AFNE25.JPG,AFSA23.JPG,0,5,5,4,,,,,,,,,,,,,,,,,,,,,,,AFSA20.jpg,AFSA02.jpg,AFNE16.jpg,AFNE14.jpg,AFSA02.jpg,FS,4,num_6,32,num_8,1.15021446288,,,2017_Jul_17_1038,59.9986721652,FEMA4ImagesEEG,001,200905,
AMNE22.JPG,AMSA24.JPG,AMSA22.JPG,AMNE25.JPG,AMNE24.JPG,AMSA25.JPG,0,6,6,7,,,,,,,,,,,,,,,,,,,,,,,AFNE17.jpg,AFSA05.jpg,AFNE13.jpg,AFSA11.jpg,AFNE13.jpg,FN,3,num_2,32,num_8,0.966791851533,,,2017_Jul_17_1038,59.9986721652,FEMA4ImagesEEG,001,200905,
AFNE23.JPG,AFNE24.JPG,AFNE22.JPG,AFSA24.JPG,AFSA22.JPG,AFSA23.JPG,0,7,7,8,,,,,,,,,,,,,,,,,,,,,,,AFNE01.jpg,AFSA12.jpg,AFSA07.jpg,AFNE04.jpg,AFSA12.jpg,FS,4,num_6,32,num_2,1.63333984436,,,2017_Jul_17_1038,59.9986721652,FEMA4ImagesEEG,001,200905,
AMSA21.JPG,AMNE23.JPG,AMNE21.JPG,AMSA25.JPG,AMNE25.JPG,AMSA23.JPG,0,8,8,5,,,,,,,,,,,,,,,,,,,,,,,AFNE13.jpg,AFSA10.jpg,AFSA20.jpg,AFNE20.jpg,AFNE13.jpg,FN,3,num_8,32,num_4,0.833613820563,,,2017_Jul_17_1038,59.9986721652,FEMA4ImagesEEG,001,200905,
AMSA25.JPG,AMNE24.JPG,AMSA24.JPG,AMNE26.JPG,AMSA21.JPG,AMNE25.JPG,0,9,9,3,,,,,,,,,,,,,,,,,,,,,,,AFNE09.jpg,AFNE02.jpg,AFSA03.jpg,AFSA20.jpg,AFSA20.jpg,FS,4,num_4,16,num_4,1.10020306057,,,2017_Jul_17_1038,59.9986721652,FEMA4ImagesEEG,001,200905,
AMSA25.JPG,AMNE24.JPG,AMSA24.JPG,AMNE26.JPG,AMSA21.JPG,AMNE25.JPG,,,,,0,0,0,3,,,,,,,,,,,,,,,,,,,AMSA05.jpg,AMSA13.jpg,AMNE01.jpg,AMNE18.jpg,AMNE18.jpg,MN,1,num_4,16,num_4,1.21677797952,,,2017_Jul_17_1038,59.9986721652,FEMA4ImagesEEG,001,200905,
AFSA21.JPG,AFNE23.JPG,AFNE21.JPG,AFSA25.JPG,AFNE25.JPG,AFSA23.JPG,,,,,0,1,1,4,,,,,,,,,,,,,,,,,,,AMSA10.jpg,AMNE05.jpg,AMNE19.jpg,AMSA13.jpg,AMNE05.jpg,MN,1,num_6,32,num_2,0.966652008843,,,2017_Jul_17_1038,59.9986721652,FEMA4ImagesEEG,001,200905,
AFSA21.JPG,AFNE22.JPG,AFNE21.JPG,AFSA23.JPG,AFSA22.JPG,AFNE23.JPG,,,,,0,2,2,0,,,,,,,,,,,,,,,,,,,AMNE10.jpg,AMSA09.jpg,AMNE07.jpg,AMSA15.jpg,AMNE10.jpg,MN,1,num_8,16,num_8,1.06679412879,,,2017_Jul_17_1038,59.9986721652,FEMA4ImagesEEG,001,200905,
AFSA25.JPG,AFNE24.JPG,AFSA24.JPG,AFNE21.JPG,AFSA21.JPG,AFNE25.JPG,,,,,0,3,3,2,,,,,,,,,,,,,,,,,,,AMSA19.jpg,AMNE10.jpg,AMNE14.jpg,AMSA08.jpg,AMSA08.jpg,MS,2,num_4,32,num_2,1.56675002702,,,2017_Jul_17_1038,59.9986721652,FEMA4ImagesEEG,001,200905,
AMNE22.JPG,AMSA24.JPG,AMSA22.JPG,AMNE25.JPG,AMNE24.JPG,AMSA25.JPG,,,,,0,4,4,7,,,,,,,,,,,,,,,,,,,AMSA10.jpg,AMNE17.jpg,AMSA07.jpg,AMNE01.jpg,AMSA10.jpg,MS,2,num_8,16,num_8,1.48341789646,,,2017_Jul_17_1038,59.9986721652,FEMA4ImagesEEG,001,200905,
AFNE22.JPG,AFSA24.JPG,AFSA22.JPG,AFNE25.JPG,AFNE24.JPG,AFSA25.JPG,,,,,0,5,5,6,,,,,,,,,,,,,,,,,,,AMSA18.jpg,AMNE12.jpg,AMNE18.jpg,AMSA02.jpg,AMNE18.jpg,MN,1,num_2,32,num_6,1.10008117932,,,2017_Jul_17_1038,59.9986721652,FEMA4ImagesEEG,001,200905,
AMSA21.JPG,AMNE23.JPG,AMNE21.JPG,AMSA25.JPG,AMNE25.JPG,AMSA23.JPG,,,,,0,6,6,5,,,,,,,,,,,,,,,,,,,AMSA10.jpg,AMNE01.jpg,AMNE15.jpg,AMSA01.jpg,AMNE01.jpg,MN,1,num_6,16,num_6,0.783521271003,,,2017_Jul_17_1038,59.9986721652,FEMA4ImagesEEG,001,200905,
AMSA21.JPG,AMNE22.JPG,AMNE21.JPG,AMSA23.JPG,AMSA22.JPG,AMNE23.JPG,,,,,0,7,7,1,,,,,,,,,,,,,,,,,,,AMNE11.jpg,AMSA19.jpg,AMSA11.jpg,AMNE19.jpg,AMSA19.jpg,MS,2,num_6,32,num_2,1.88312775496,,,2017_Jul_17_1038,59.9986721652,FEMA4ImagesEEG,001,200905,
AMNE23.JPG,AMNE24.JPG,AMNE22.JPG,AMSA24.JPG,AMSA22.JPG,AMSA23.JPG,,,,,0,8,8,9,,,,,,,,,,,,,,,,,,,AMNE15.jpg,AMSA06.jpg,AMNE01.jpg,AMSA10.jpg,AMSA10.jpg,MS,2,num_4,32,num_8,1.60018237283,,,2017_Jul_17_1038,59.9986721652,FEMA4ImagesEEG,001,200905,
AFNE23.JPG,AFNE24.JPG,AFNE22.JPG,AFSA24.JPG,AFSA22.JPG,AFSA23.JPG,,,,,0,9,9,8,,,,,,,,,,,,,,,,,,,AMNE16.jpg,AMNE06.jpg,AMSA17.jpg,AMSA13.jpg,AMSA13.jpg,MS,2,num_4,32,num_8,1.18329239086,,,2017_Jul_17_1038,59.9986721652,FEMA4ImagesEEG,001,200905,
AFSA25.JPG,AFNE24.JPG,AFSA24.JPG,AFNE21.JPG,AFSA21.JPG,AFNE25.JPG,,,,,,,,,0,0,0,2,,,,,,,,,,,,,,,AFSA01.jpg,AFSA07.jpg,AFNE20.jpg,AFNE14.jpg,AFSA01.jpg,FS,4,num_8,16,num_8,1.10014885549,,,2017_Jul_17_1038,59.9986721652,FEMA4ImagesEEG,001,200905,
AFSA21.JPG,AFNE22.JPG,AFNE21.JPG,AFSA23.JPG,AFSA22.JPG,AFNE23.JPG,,,,,,,,,0,1,1,0,,,,,,,,,,,,,,,AFSA10.jpg,AFSA01.jpg,AFNE16.jpg,AFNE12.jpg,AFSA01.jpg,FS,4,num_6,16,num_6,0.833446714963,,,2017_Jul_17_1038,59.9986721652,FEMA4ImagesEEG,001,200905,
AMSA21.JPG,AMNE22.JPG,AMNE21.JPG,AMSA23.JPG,AMSA22.JPG,AMNE23.JPG,,,,,,,,,0,2,2,1,,,,,,,,,,,,,,,AFSA02.jpg,AFNE01.jpg,AFNE02.jpg,AFSA17.jpg,AFNE02.jpg,FN,3,num_2,16,num_2,0.916761846295,,,2017_Jul_17_1038,59.9986721652,FEMA4ImagesEEG,001,200905,
AMNE23.JPG,AMNE24.JPG,AMNE22.JPG,AMSA24.JPG,AMSA22.JPG,AMSA23.JPG,,,,,,,,,0,3,3,9,,,,,,,,,,,,,,,AFSA09.jpg,AFSA18.jpg,AFNE05.jpg,AFNE13.jpg,AFSA18.jpg,FS,4,num_6,16,num_6,2.05008902142,,,2017_Jul_17_1038,59.9986721652,FEMA4ImagesEEG,001,200905,
AMNE22.JPG,AMSA24.JPG,AMSA22.JPG,AMNE25.JPG,AMNE24.JPG,AMSA25.JPG,,,,,,,,,0,4,4,7,,,,,,,,,,,,,,,AFSA11.jpg,AFNE16.jpg,AFSA10.jpg,AFNE01.jpg,AFSA10.jpg,FS,4,num_2,16,num_2,0.750160129503,,,2017_Jul_17_1038,59.9986721652,FEMA4ImagesEEG,001,200905,
AFNE23.JPG,AFNE24.JPG,AFNE22.JPG,AFSA24.JPG,AFSA22.JPG,AFSA23.JPG,,,,,,,,,0,5,5,8,,,,,,,,,,,,,,,AFSA10.jpg,AFSA02.jpg,AFNE08.jpg,AFNE11.jpg,AFSA10.jpg,FS,4,num_8,16,num_8,0.966788964873,,,2017_Jul_17_1038,59.9986721652,FEMA4ImagesEEG,001,200905,
AMSA21.JPG,AMNE23.JPG,AMNE21.JPG,AMSA25.JPG,AMNE25.JPG,AMSA23.JPG,,,,,,,,,0,6,6,5,,,,,,,,,,,,,,,AFSA16.jpg,AFSA14.jpg,AFNE01.jpg,AFNE17.jpg,AFNE17.jpg,FN,3,num_4,16,num_4,2.01660760237,,,2017_Jul_17_1038,59.9986721652,FEMA4ImagesEEG,001,200905,
AMSA25.JPG,AMNE24.JPG,AMSA24.JPG,AMNE26.JPG,AMSA21.JPG,AMNE25.JPG,,,,,,,,,0,7,7,3,,,,,,,,,,,,,,,AFNE01.jpg,AFSA09.jpg,AFNE13.jpg,AFSA11.jpg,AFNE13.jpg,FN,3,num_2,32,num_8,1.08344406886,,,2017_Jul_17_1038,59.9986721652,FEMA4ImagesEEG,001,200905,
AFNE22.JPG,AFSA24.JPG,AFSA22.JPG,AFNE25.JPG,AFNE24.JPG,AFSA25.JPG,,,,,,,,,0,8,8,6,,,,,,,,,,,,,,,AFNE09.jpg,AFSA13.jpg,AFNE05.jpg,AFSA08.jpg,AFNE05.jpg,FN,3,num_2,16,num_2,0.766667981701,,,2017_Jul_17_1038,59.9986721652,FEMA4ImagesEEG,001,200905,
AFSA21.JPG,AFNE23.JPG,AFNE21.JPG,AFSA25.JPG,AFNE25.JPG,AFSA23.JPG,,,,,,,,,0,9,9,4,,,,,,,,,,,,,,,AFNE05.jpg,AFSA03.jpg,AFSA09.jpg,AFNE03.jpg,AFNE03.jpg,FN,3,num_4,32,num_6,0.783521591744,,,2017_Jul_17_1038,59.9986721652,FEMA4ImagesEEG,001,200905,
AFSA21.JPG,AFNE22.JPG,AFNE21.JPG,AFSA23.JPG,AFSA22.JPG,AFNE23.JPG,,,,,,,,,,,,,0,0,0,0,,,,,,,,,,,AMSA04.jpg,AMSA16.jpg,AMNE05.jpg,AMNE09.jpg,AMSA16.jpg,MS,2,num_6,32,num_8,1.83352016445,,,2017_Jul_17_1038,59.9986721652,FEMA4ImagesEEG,001,200905,
AFSA25.JPG,AFNE24.JPG,AFSA24.JPG,AFNE21.JPG,AFSA21.JPG,AFNE25.JPG,,,,,,,,,,,,,0,1,1,2,,,,,,,,,,,AMSA17.jpg,AMNE19.jpg,AMSA19.jpg,AMNE08.jpg,AMSA19.jpg,MS,2,num_2,16,num_2,1.33346996862,,,2017_Jul_17_1038,59.9986721652,FEMA4ImagesEEG,001,200905,
AFNE23.JPG,AFNE24.JPG,AFNE22.JPG,AFSA24.JPG,AFSA22.JPG,AFSA23.JPG,,,,,,,,,,,,,0,2,2,8,,,,,,,,,,,AMNE08.jpg,AMNE17.jpg,AMSA18.jpg,AMSA06.jpg,AMSA18.jpg,MS,2,num_2,16,num_2,0.716797384301,,,2017_Jul_17_1038,59.9986721652,FEMA4ImagesEEG,001,200905,
AMNE22.JPG,AMSA24.JPG,AMSA22.JPG,AMNE25.JPG,AMNE24.JPG,AMSA25.JPG,,,,,,,,,,,,,0,3,3,7,,,,,,,,,,,AMSA03.jpg,AMNE20.jpg,AMNE17.jpg,AMSA16.jpg,AMNE20.jpg,MN,1,num_6,16,num_6,1.23344491882,,,2017_Jul_17_1038,59.9986721652,FEMA4ImagesEEG,001,200905,
AMSA21.JPG,AMNE23.JPG,AMNE21.JPG,AMSA25.JPG,AMNE25.JPG,AMSA23.JPG,,,,,,,,,,,,,0,4,4,5,,,,,,,,,,,AMSA20.jpg,AMNE11.jpg,AMNE18.jpg,AMSA08.jpg,AMNE11.jpg,MN,1,num_6,32,num_8,1.08347325621,,,2017_Jul_17_1038,59.9986721652,FEMA4ImagesEEG,001,200905,
AFNE22.JPG,AFSA24.JPG,AFSA22.JPG,AFNE25.JPG,AFNE24.JPG,AFSA25.JPG,,,,,,,,,,,,,0,5,5,6,,,,,,,,,,,AMNE19.jpg,AMSA07.jpg,AMNE02.jpg,AMSA10.jpg,AMNE02.jpg,MN,1,num_2,16,num_2,0.800230227253,,,2017_Jul_17_1038,59.9986721652,FEMA4ImagesEEG,001,200905,
AMSA25.JPG,AMNE24.JPG,AMSA24.JPG,AMNE26.JPG,AMSA21.JPG,AMNE25.JPG,,,,,,,,,,,,,0,6,6,3,,,,,,,,,,,AMSA20.jpg,AMSA06.jpg,AMNE18.jpg,AMNE07.jpg,AMNE18.jpg,MN,1,num_2,32,num_8,0.766813918452,,,2017_Jul_17_1038,59.9986721652,FEMA4ImagesEEG,001,200905,
AMSA21.JPG,AMNE22.JPG,AMNE21.JPG,AMSA23.JPG,AMSA22.JPG,AMNE23.JPG,,,,,,,,,,,,,0,7,7,1,,,,,,,,,,,AMNE03.jpg,AMSA06.jpg,AMNE19.jpg,AMSA16.jpg,AMNE03.jpg,MN,1,num_8,16,num_8,1.98339400133,,,2017_Jul_17_1038,59.9986721652,FEMA4ImagesEEG,001,200905,
AMNE23.JPG,AMNE24.JPG,AMNE22.JPG,AMSA24.JPG,AMSA22.JPG,AMSA23.JPG,,,,,,,,,,,,,0,8,8,9,,,,,,,,,,,AMSA02.jpg,AMSA04.jpg,AMNE18.jpg,AMNE05.jpg,AMNE05.jpg,MN,1,num_4,16,num_4,0.683516427827,,,2017_Jul_17_1038,59.9986721652,FEMA4ImagesEEG,001,200905,
AFSA21.JPG,AFNE23.JPG,AFNE21.JPG,AFSA25.JPG,AFNE25.JPG,AFSA23.JPG,,,,,,,,,,,,,0,9,9,4,,,,,,,,,,,AMNE07.jpg,AMNE05.jpg,AMSA14.jpg,AMSA17.jpg,AMNE05.jpg,MN,1,num_6,32,num_4,0.683569029206,,,2017_Jul_17_1038,59.9986721652,FEMA4ImagesEEG,001,200905,
AFSA21.JPG,AFNE22.JPG,AFNE21.JPG,AFSA23.JPG,AFSA22.JPG,AFNE23.JPG,,,,,,,,,,,,,,,,,0,0,0,0,,,,,,,AFSA05.jpg,AFNE18.jpg,AFNE07.jpg,AFSA08.jpg,AFNE07.jpg,FN,3,num_2,16,num_2,0.950241340899,,,2017_Jul_17_1038,59.9986721652,FEMA4ImagesEEG,001,200905,
AMSA21.JPG,AMNE22.JPG,AMNE21.JPG,AMSA23.JPG,AMSA22.JPG,AMNE23.JPG,,,,,,,,,,,,,,,,,0,1,1,1,,,,,,,AFSA06.jpg,AFNE01.jpg,AFNE04.jpg,AFSA09.jpg,AFSA06.jpg,FS,4,num_8,32,num_4,1.31683189594,,,2017_Jul_17_1038,59.9986721652,FEMA4ImagesEEG,001,200905,
AMNE22.JPG,AMSA24.JPG,AMSA22.JPG,AMNE25.JPG,AMNE24.JPG,AMSA25.JPG,,,,,,,,,,,,,,,,,0,2,2,7,,,,,,,AFSA01.jpg,AFSA09.jpg,AFNE10.jpg,AFNE15.jpg,AFNE10.jpg,FN,3,num_2,16,num_2,1.30020536989,,,2017_Jul_17_1038,59.9986721652,FEMA4ImagesEEG,001,200905,
AFSA25.JPG,AFNE24.JPG,AFSA24.JPG,AFNE21.JPG,AFSA21.JPG,AFNE25.JPG,,,,,,,,,,,,,,,,,0,3,3,2,,,,,,,AFSA05.jpg,AFNE12.jpg,AFNE06.jpg,AFSA19.jpg,AFNE12.jpg,FN,3,num_6,32,num_2,0.950125232978,,,2017_Jul_17_1038,59.9986721652,FEMA4ImagesEEG,001,200905,
AFSA21.JPG,AFNE23.JPG,AFNE21.JPG,AFSA25.JPG,AFNE25.JPG,AFSA23.JPG,,,,,,,,,,,,,,,,,0,4,4,4,,,,,,,AFSA20.jpg,AFNE03.jpg,AFNE16.jpg,AFSA13.jpg,AFNE03.jpg,FN,3,num_6,32,num_4,1.01679683904,,,2017_Jul_17_1038,59.9986721652,FEMA4ImagesEEG,001,200905,
AFNE22.JPG,AFSA24.JPG,AFSA22.JPG,AFNE25.JPG,AFNE24.JPG,AFSA25.JPG,,,,,,,,,,,,,,,,,0,5,5,6,,,,,,,AFNE12.jpg,AFNE06.jpg,AFSA17.jpg,AFSA12.jpg,AFNE06.jpg,FN,3,num_6,16,num_6,1.7999579189,,,2017_Jul_17_1038,59.9986721652,FEMA4ImagesEEG,001,200905,
AFNE23.JPG,AFNE24.JPG,AFNE22.JPG,AFSA24.JPG,AFSA22.JPG,AFSA23.JPG,,,,,,,,,,,,,,,,,0,6,6,8,,,,,,,AFNE07.jpg,AFNE13.jpg,AFSA17.jpg,AFSA13.jpg,AFNE07.jpg,FN,3,num_8,16,num_8,0.816913845036,,,2017_Jul_17_1038,59.9986721652,FEMA4ImagesEEG,001,200905,
AMSA25.JPG,AMNE24.JPG,AMSA24.JPG,AMNE26.JPG,AMSA21.JPG,AMNE25.JPG,,,,,,,,,,,,,,,,,0,7,7,3,,,,,,,AFSA14.jpg,AFSA18.jpg,AFNE06.jpg,AFNE17.jpg,AFNE06.jpg,FN,3,num_2,16,num_2,1.26672170567,,,2017_Jul_17_1038,59.9986721652,FEMA4ImagesEEG,001,200905,
AMSA21.JPG,AMNE23.JPG,AMNE21.JPG,AMSA25.JPG,AMNE25.JPG,AMSA23.JPG,,,,,,,,,,,,,,,,,0,8,8,5,,,,,,,AFSA04.jpg,AFNE16.jpg,AFNE18.jpg,AFSA20.jpg,AFNE16.jpg,FN,3,num_6,16,num_6,0.800144910384,,,2017_Jul_17_1038,59.9986721652,FEMA4ImagesEEG,001,200905,
AMNE23.JPG,AMNE24.JPG,AMNE22.JPG,AMSA24.JPG,AMSA22.JPG,AMSA23.JPG,,,,,,,,,,,,,,,,,0,9,9,9,,,,,,,AFNE15.jpg,AFSA09.jpg,AFSA12.jpg,AFNE02.jpg,AFSA09.jpg,FS,4,num_6,32,num_2,0.783626794501,,,2017_Jul_17_1038,59.9986721652,FEMA4ImagesEEG,001,200905,
AMNE23.JPG,AMNE24.JPG,AMNE22.JPG,AMSA24.JPG,AMSA22.JPG,AMSA23.JPG,,,,,,,,,,,,,,,,,,,,,0,0,0,9,,,AMNE16.jpg,AMSA10.jpg,AMNE01.jpg,AMSA02.jpg,AMNE16.jpg,MN,1,num_8,16,num_8,0.83352048519,,,2017_Jul_17_1038,59.9986721652,FEMA4ImagesEEG,001,200905,
AMSA21.JPG,AMNE22.JPG,AMNE21.JPG,AMSA23.JPG,AMSA22.JPG,AMNE23.JPG,,,,,,,,,,,,,,,,,,,,,0,1,1,1,,,AMSA04.jpg,AMSA12.jpg,AMNE04.jpg,AMNE03.jpg,AMSA04.jpg,MS,2,num_8,16,num_8,1.4333757031,,,2017_Jul_17_1038,59.9986721652,FEMA4ImagesEEG,001,200905,
AFNE23.JPG,AFNE24.JPG,AFNE22.JPG,AFSA24.JPG,AFSA22.JPG,AFSA23.JPG,,,,,,,,,,,,,,,,,,,,,0,2,2,8,,,AMSA12.jpg,AMNE17.jpg,AMNE01.jpg,AMSA05.jpg,AMNE01.jpg,MN,1,num_2,16,num_2,0.933575363823,,,2017_Jul_17_1038,59.9986721652,FEMA4ImagesEEG,001,200905,
AFSA21.JPG,AFNE23.JPG,AFNE21.JPG,AFSA25.JPG,AFNE25.JPG,AFSA23.JPG,,,,,,,,,,,,,,,,,,,,,0,3,3,4,,,AMNE06.jpg,AMSA14.jpg,AMSA02.jpg,AMNE14.jpg,AMNE06.jpg,MN,1,num_8,16,num_8,0.816748022396,,,2017_Jul_17_1038,59.9986721652,FEMA4ImagesEEG,001,200905,
AFSA25.JPG,AFNE24.JPG,AFSA24.JPG,AFNE21.JPG,AFSA21.JPG,AFNE25.JPG,,,,,,,,,,,,,,,,,,,,,0,4,4,2,,,AMNE15.jpg,AMNE06.jpg,AMSA16.jpg,AMSA12.jpg,AMNE06.jpg,MN,1,num_6,16,num_6,0.900216467503,,,2017_Jul_17_1038,59.9986721652,FEMA4ImagesEEG,001,200905,
AFNE22.JPG,AFSA24.JPG,AFSA22.JPG,AFNE25.JPG,AFNE24.JPG,AFSA25.JPG,,,,,,,,,,,,,,,,,,,,,0,5,5,6,,,AMSA12.jpg,AMNE17.jpg,AMNE08.jpg,AMSA10.jpg,AMNE08.jpg,MN,1,num_2,32,num_4,1.41680979694,,,2017_Jul_17_1038,59.9986721652,FEMA4ImagesEEG,001,200905,
AFSA21.JPG,AFNE22.JPG,AFNE21.JPG,AFSA23.JPG,AFSA22.JPG,AFNE23.JPG,,,,,,,,,,,,,,,,,,,,,0,6,6,0,,,AMSA19.jpg,AMSA04.jpg,AMNE20.jpg,AMNE03.jpg,AMSA19.jpg,MS,2,num_8,16,num_8,1.25000569314,,,2017_Jul_17_1038,59.9986721652,FEMA4ImagesEEG,001,200905,
AMSA21.JPG,AMNE23.JPG,AMNE21.JPG,AMSA25.JPG,AMNE25.JPG,AMSA23.JPG,,,,,,,,,,,,,,,,,,,,,0,7,7,5,,,AMNE19.jpg,AMSA17.jpg,AMSA08.jpg,AMNE16.jpg,AMNE19.jpg,MN,1,num_8,16,num_8,1.10012319628,,,2017_Jul_17_1038,59.9986721652,FEMA4ImagesEEG,001,200905,
AMSA25.JPG,AMNE24.JPG,AMSA24.JPG,AMNE26.JPG,AMSA21.JPG,AMNE25.JPG,,,,,,,,,,,,,,,,,,,,,0,8,8,3,,,AMNE18.jpg,AMNE10.jpg,AMSA01.jpg,AMSA06.jpg,AMNE10.jpg,MN,1,num_6,16,num_6,1.11682734143,,,2017_Jul_17_1038,59.9986721652,FEMA4ImagesEEG,001,200905,
AMNE22.JPG,AMSA24.JPG,AMSA22.JPG,AMNE25.JPG,AMNE24.JPG,AMSA25.JPG,,,,,,,,,,,,,,,,,,,,,0,9,9,7,,,AMNE05.jpg,AMNE03.jpg,AMSA18.jpg,AMSA06.jpg,AMSA06.jpg,MS,2,num_4,16,num_4,1.30020472841,,,2017_Jul_17_1038,59.9986721652,FEMA4ImagesEEG,001,200905,
,,,,,,,,,,,,,,,,,,,,,,,,,,,,,,,,,,,,,,,,,,,space,15.0154054684,2017_Jul_17_1038,59.9986721652,FEMA4ImagesEEG,001,200905,
AFNE01.JPG,AFNE01.JPG,AFNE01.JPG,AFNE01.JPG,AFNE01.JPG,AFNE01.JPG,0,0,0,4,,,,,,,,,,,,,,,,,,,,,,,AFNE01.jpg,AFNE04.jpg,AFSA08.jpg,AFSA18.jpg,AFSA08.jpg,FS,4,num_2,16,num_2,0.683491410098,,,2017_Jul_17_1038,59.9986721652,FEMA4ImagesEEG,001,200905,
AFNE01.JPG,AFNE01.JPG,AFNE01.JPG,AFNE01.JPG,AFNE01.JPG,AFNE01.JPG,0,1,1,8,,,,,,,,,,,,,,,,,,,,,,,AFNE02.jpg,AFNE18.jpg,AFSA12.jpg,AFSA11.jpg,AFNE18.jpg,FN,3,num_6,32,num_8,0.866849873421,,,2017_Jul_17_1038,59.9986721652,FEMA4ImagesEEG,001,200905,
AFNE01.JPG,AFNE01.JPG,AFNE01.JPG,AFNE01.JPG,AFNE01.JPG,AFNE01.JPG,0,2,2,3,,,,,,,,,,,,,,,,,,,,,,,AFSA15.jpg,AFNE14.jpg,AFSA03.jpg,AFNE10.jpg,AFSA15.jpg,FS,4,num_8,32,num_4,0.983795247209,,,2017_Jul_17_1038,59.9986721652,FEMA4ImagesEEG,001,200905,
AFNE01.JPG,AFNE01.JPG,AFNE01.JPG,AFNE01.JPG,AFNE01.JPG,AFNE01.JPG,0,3,3,0,,,,,,,,,,,,,,,,,,,,,,,AFSA19.jpg,AFNE19.jpg,AFSA15.jpg,AFNE16.jpg,AFNE16.jpg,FN,3,num_4,32,num_6,1.48340474612,,,2017_Jul_17_1038,59.9986721652,FEMA4ImagesEEG,001,200905,
AFNE01.JPG,AFNE01.JPG,AFNE01.JPG,AFNE01.JPG,AFNE01.JPG,AFNE01.JPG,0,4,4,5,,,,,,,,,,,,,,,,,,,,,,,AFNE06.jpg,AFNE04.jpg,AFSA01.jpg,AFSA11.jpg,AFNE06.jpg,FN,3,num_8,16,num_8,0.866617336837,,,2017_Jul_17_1038,59.9986721652,FEMA4ImagesEEG,001,200905,
AFNE01.JPG,AFNE01.JPG,AFNE01.JPG,AFNE01.JPG,AFNE01.JPG,AFNE01.JPG,0,5,5,6,,,,,,,,,,,,,,,,,,,,,,,AFNE14.jpg,AFSA19.jpg,AFSA03.jpg,AFNE18.jpg,AFNE14.jpg,FN,3,num_8,16,num_8,0.666835055226,,,2017_Jul_17_1038,59.9986721652,FEMA4ImagesEEG,001,200905,
AFNE01.JPG,AFNE01.JPG,AFNE01.JPG,AFNE01.JPG,AFNE01.JPG,AFNE01.JPG,0,6,6,2,,,,,,,,,,,,,,,,,,,,,,,AFNE16.jpg,AFSA20.jpg,AFSA19.jpg,AFNE04.jpg,AFNE16.jpg,FN,3,num_8,32,num_6,0.716758895486,,,2017_Jul_17_1038,59.9986721652,FEMA4ImagesEEG,001,200905,
AFNE01.JPG,AFNE01.JPG,AFNE01.JPG,AFNE01.JPG,AFNE01.JPG,AFNE01.JPG,0,7,7,1,,,,,,,,,,,,,,,,,,,,,,,AFNE12.jpg,AFSA12.jpg,AFNE04.jpg,AFSA15.jpg,AFNE12.jpg,FN,3,num_8,32,num_4,1.33346708196,,,2017_Jul_17_1038,59.9986721652,FEMA4ImagesEEG,001,200905,
AFNE01.JPG,AFNE01.JPG,AFNE01.JPG,AFNE01.JPG,AFNE01.JPG,AFNE01.JPG,0,8,8,7,,,,,,,,,,,,,,,,,,,,,,,AFNE12.jpg,AFNE20.jpg,AFSA10.jpg,AFSA06.jpg,AFNE12.jpg,FN,3,num_8,16,num_8,0.733472342099,,,2017_Jul_17_1038,59.9986721652,FEMA4ImagesEEG,001,200905,
AFNE01.JPG,AFNE01.JPG,AFNE01.JPG,AFNE01.JPG,AFNE01.JPG,AFNE01.JPG,0,9,9,9,,,,,,,,,,,,,,,,,,,,,,,AFSA17.jpg,AFNE18.jpg,AFSA09.jpg,AFNE13.jpg,AFSA17.jpg,FS,4,num_8,16,num_8,1.16675150243,,,2017_Jul_17_1038,59.9986721652,FEMA4ImagesEEG,001,200905,
AFNE01.JPG,AFNE01.JPG,AFNE01.JPG,AFNE01.JPG,AFNE01.JPG,AFNE01.JPG,1,0,10,7,,,,,,,,,,,,,,,,,,,,,,,AFSA06.jpg,AFNE01.jpg,AFSA16.jpg,AFNE14.jpg,AFNE01.jpg,FN,3,num_6,16,num_6,0.783494649573,,,2017_Jul_17_1038,59.9986721652,FEMA4ImagesEEG,001,200905,
AFNE01.JPG,AFNE01.JPG,AFNE01.JPG,AFNE01.JPG,AFNE01.JPG,AFNE01.JPG,1,1,11,9,,,,,,,,,,,,,,,,,,,,,,,AFSA11.jpg,AFSA15.jpg,AFNE06.jpg,AFNE19.jpg,AFNE19.jpg,FN,3,num_4,16,num_4,0.716765951769,,,2017_Jul_17_1038,59.9986721652,FEMA4ImagesEEG,001,200905,
AFNE01.JPG,AFNE01.JPG,AFNE01.JPG,AFNE01.JPG,AFNE01.JPG,AFNE01.JPG,1,2,12,4,,,,,,,,,,,,,,,,,,,,,,,AFNE11.jpg,AFSA09.jpg,AFSA20.jpg,AFNE19.jpg,AFSA20.jpg,FS,4,num_2,32,num_8,1.58341792854,,,2017_Jul_17_1038,59.9986721652,FEMA4ImagesEEG,001,200905,
AFNE01.JPG,AFNE01.JPG,AFNE01.JPG,AFNE01.JPG,AFNE01.JPG,AFNE01.JPG,1,3,13,3,,,,,,,,,,,,,,,,,,,,,,,AFNE15.jpg,AFNE01.jpg,AFSA12.jpg,AFSA17.jpg,AFNE01.jpg,FN,3,num_6,16,num_6,1.31677993604,,,2017_Jul_17_1038,59.9986721652,FEMA4ImagesEEG,001,200905,
AFNE01.JPG,AFNE01.JPG,AFNE01.JPG,AFNE01.JPG,AFNE01.JPG,AFNE01.JPG,1,4,14,1,,,,,,,,,,,,,,,,,,,,,,,AFSA14.jpg,AFNE04.jpg,AFNE20.jpg,AFSA01.jpg,AFSA14.jpg,FS,4,num_8,32,num_6,0.950130364819,,,2017_Jul_17_1038,59.9986721652,FEMA4ImagesEEG,001,200905,
AFNE01.JPG,AFNE01.JPG,AFNE01.JPG,AFNE01.JPG,AFNE01.JPG,AFNE01.JPG,1,5,15,5,,,,,,,,,,,,,,,,,,,,,,,AFSA16.jpg,AFSA05.jpg,AFNE18.jpg,AFNE08.jpg,AFSA16.jpg,FS,4,num_8,16,num_8,1.1334413586,,,2017_Jul_17_1038,59.9986721652,FEMA4ImagesEEG,001,200905,
AFNE01.JPG,AFNE01.JPG,AFNE01.JPG,AFNE01.JPG,AFNE01.JPG,AFNE01.JPG,1,6,16,2,,,,,,,,,,,,,,,,,,,,,,,AFSA14.jpg,AFNE10.jpg,AFNE06.jpg,AFSA02.jpg,AFNE10.jpg,FN,3,num_6,16,num_6,0.633532288426,,,2017_Jul_17_1038,59.9986721652,FEMA4ImagesEEG,001,200905,
AFNE01.JPG,AFNE01.JPG,AFNE01.JPG,AFNE01.JPG,AFNE01.JPG,AFNE01.JPG,1,7,17,8,,,,,,,,,,,,,,,,,,,,,,,AFSA13.jpg,AFNE17.jpg,AFSA18.jpg,AFNE19.jpg,AFNE19.jpg,FN,3,num_4,32,num_8,0.73347490802,,,2017_Jul_17_1038,59.9986721652,FEMA4ImagesEEG,001,200905,
AFNE01.JPG,AFNE01.JPG,AFNE01.JPG,AFNE01.JPG,AFNE01.JPG,AFNE01.JPG,1,8,18,0,,,,,,,,,,,,,,,,,,,,,,,AFNE11.jpg,AFNE15.jpg,AFSA07.jpg,AFSA17.jpg,AFSA07.jpg,FS,4,num_2,16,num_2,1.63339950202,,,2017_Jul_17_1038,59.9986721652,FEMA4ImagesEEG,001,200905,
AFNE01.JPG,AFNE01.JPG,AFNE01.JPG,AFNE01.JPG,AFNE01.JPG,AFNE01.JPG,1,9,19,6,,,,,,,,,,,,,,,,,,,,,,,AFNE04.jpg,AFSA11.jpg,AFSA18.jpg,AFNE08.jpg,AFSA18.jpg,FS,4,num_2,16,num_2,1.71675408438,,,2017_Jul_17_1038,59.9986721652,FEMA4ImagesEEG,001,200905,
AFNE01.JPG,AFNE01.JPG,AFNE01.JPG,AFNE01.JPG,AFNE01.JPG,AFNE01.JPG,2,0,20,9,,,,,,,,,,,,,,,,,,,,,,,AFSA04.jpg,AFNE19.jpg,AFNE14.jpg,AFSA14.jpg,AFSA04.jpg,FS,4,num_8,16,num_8,1.0667806577,,,2017_Jul_17_1038,59.9986721652,FEMA4ImagesEEG,001,200905,
AFNE01.JPG,AFNE01.JPG,AFNE01.JPG,AFNE01.JPG,AFNE01.JPG,AFNE01.JPG,2,1,21,6,,,,,,,,,,,,,,,,,,,,,,,AFSA13.jpg,AFNE13.jpg,AFSA10.jpg,AFNE04.jpg,AFSA10.jpg,FS,4,num_2,32,num_4,1.0834979532,,,2017_Jul_17_1038,59.9986721652,FEMA4ImagesEEG,001,200905,
AFNE01.JPG,AFNE01.JPG,AFNE01.JPG,AFNE01.JPG,AFNE01.JPG,AFNE01.JPG,2,2,22,2,,,,,,,,,,,,,,,,,,,,,,,AFNE11.jpg,AFSA10.jpg,AFSA19.jpg,AFNE20.jpg,AFSA19.jpg,FS,4,num_2,16,num_2,0.516799886073,,,2017_Jul_17_1038,59.9986721652,FEMA4ImagesEEG,001,200905,
AFNE01.JPG,AFNE01.JPG,AFNE01.JPG,AFNE01.JPG,AFNE01.JPG,AFNE01.JPG,2,3,23,7,,,,,,,,,,,,,,,,,,,,,,,AFSA18.jpg,AFNE19.jpg,AFSA04.jpg,AFNE12.jpg,AFNE12.jpg,FN,3,num_4,16,num_4,0.966967937856,,,2017_Jul_17_1038,59.9986721652,FEMA4ImagesEEG,001,200905,
AFNE01.JPG,AFNE01.JPG,AFNE01.JPG,AFNE01.JPG,AFNE01.JPG,AFNE01.JPG,2,4,24,3,,,,,,,,,,,,,,,,,,,,,,,AFSA15.jpg,AFSA19.jpg,AFNE11.jpg,AFNE09.jpg,AFSA19.jpg,FS,4,num_6,16,num_6,0.683477297533,,,2017_Jul_17_1038,59.9986721652,FEMA4ImagesEEG,001,200905,
AFNE01.JPG,AFNE01.JPG,AFNE01.JPG,AFNE01.JPG,AFNE01.JPG,AFNE01.JPG,2,5,25,4,,,,,,,,,,,,,,,,,,,,,,,AFNE09.jpg,AFNE10.jpg,AFSA14.jpg,AFSA16.jpg,AFSA16.jpg,FS,4,num_4,32,num_2,0.800130156339,,,2017_Jul_17_1038,59.9986721652,FEMA4ImagesEEG,001,200905,
AFNE01.JPG,AFNE01.JPG,AFNE01.JPG,AFNE01.JPG,AFNE01.JPG,AFNE01.JPG,2,6,26,1,,,,,,,,,,,,,,,,,,,,,,,AFSA03.jpg,AFNE07.jpg,AFSA15.jpg,AFNE14.jpg,AFNE14.jpg,FN,3,num_4,16,num_4,0.949835925394,,,2017_Jul_17_1038,59.9986721652,FEMA4ImagesEEG,001,200905,
AFNE01.JPG,AFNE01.JPG,AFNE01.JPG,AFNE01.JPG,AFNE01.JPG,AFNE01.JPG,2,7,27,0,,,,,,,,,,,,,,,,,,,,,,,AFNE08.jpg,AFNE09.jpg,AFSA13.jpg,AFSA20.jpg,AFSA20.jpg,FS,4,num_4,16,num_4,1.43341707858,,,2017_Jul_17_1038,59.9986721652,FEMA4ImagesEEG,001,200905,
AFNE01.JPG,AFNE01.JPG,AFNE01.JPG,AFNE01.JPG,AFNE01.JPG,AFNE01.JPG,2,8,28,8,,,,,,,,,,,,,,,,,,,,,,,AFSA03.jpg,AFNE08.jpg,AFSA09.jpg,AFNE03.jpg,AFNE03.jpg,FN,3,num_4,32,num_8,0.783467065924,,,2017_Jul_17_1038,59.9986721652,FEMA4ImagesEEG,001,200905,
AFNE01.JPG,AFNE01.JPG,AFNE01.JPG,AFNE01.JPG,AFNE01.JPG,AFNE01.JPG,2,9,29,5,,,,,,,,,,,,,,,,,,,,,,,AFSA04.jpg,AFSA16.jpg,AFNE12.jpg,AFNE11.jpg,AFNE11.jpg,FN,3,num_4,16,num_4,0.966785436731,,,2017_Jul_17_1038,59.9986721652,FEMA4ImagesEEG,001,200905,
AFNE01.JPG,AFNE01.JPG,AFNE01.JPG,AFNE01.JPG,AFNE01.JPG,AFNE01.JPG,3,0,30,1,,,,,,,,,,,,,,,,,,,,,,,AFNE01.jpg,AFNE08.jpg,AFSA04.jpg,AFSA13.jpg,AFNE01.jpg,FN,3,num_8,32,num_2,1.25013847954,,,2017_Jul_17_1038,59.9986721652,FEMA4ImagesEEG,001,200905,
AFNE01.JPG,AFNE01.JPG,AFNE01.JPG,AFNE01.JPG,AFNE01.JPG,AFNE01.JPG,3,1,31,7,,,,,,,,,,,,,,,,,,,,,,,AFNE11.jpg,AFNE03.jpg,AFSA13.jpg,AFSA07.jpg,AFNE11.jpg,FN,3,num_8,16,num_8,0.85011461648,,,2017_Jul_17_1038,59.9986721652,FEMA4ImagesEEG,001,200905,
AFNE01.JPG,AFNE01.JPG,AFNE01.JPG,AFNE01.JPG,AFNE01.JPG,AFNE01.JPG,3,2,32,5,,,,,,,,,,,,,,,,,,,,,,,AFSA03.jpg,AFNE08.jpg,AFSA02.jpg,AFNE13.jpg,AFSA03.jpg,FS,4,num_8,16,num_8,0.600148053636,,,2017_Jul_17_1038,59.9986721652,FEMA4ImagesEEG,001,200905,
AFNE01.JPG,AFNE01.JPG,AFNE01.JPG,AFNE01.JPG,AFNE01.JPG,AFNE01.JPG,3,3,33,9,,,,,,,,,,,,,,,,,,,,,,,AFSA01.jpg,AFSA04.jpg,AFNE17.jpg,AFNE12.jpg,AFSA01.jpg,FS,4,num_8,32,num_6,2.3333570681,,,2017_Jul_17_1038,59.9986721652,FEMA4ImagesEEG,001,200905,
AFNE01.JPG,AFNE01.JPG,AFNE01.JPG,AFNE01.JPG,AFNE01.JPG,AFNE01.JPG,3,4,34,4,,,,,,,,,,,,,,,,,,,,,,,AFSA04.jpg,AFSA09.jpg,AFNE03.jpg,AFNE05.jpg,AFNE03.jpg,FN,3,num_2,16,num_2,0.533433468398,,,2017_Jul_17_1038,59.9986721652,FEMA4ImagesEEG,001,200905,
AFNE01.JPG,AFNE01.JPG,AFNE01.JPG,AFNE01.JPG,AFNE01.JPG,AFNE01.JPG,3,5,35,2,,,,,,,,,,,,,,,,,,,,,,,AFNE05.jpg,AFSA13.jpg,AFNE11.jpg,AFSA07.jpg,AFNE11.jpg,FN,3,num_2,16,num_2,1.28344509523,,,2017_Jul_17_1038,59.9986721652,FEMA4ImagesEEG,001,200905,
AFNE01.JPG,AFNE01.JPG,AFNE01.JPG,AFNE01.JPG,AFNE01.JPG,AFNE01.JPG,3,6,36,0,,,,,,,,,,,,,,,,,,,,,,,AFNE15.jpg,AFSA08.jpg,AFNE19.jpg,AFSA19.jpg,AFNE15.jpg,FN,3,num_8,16,num_8,0.850139954949,,,2017_Jul_17_1038,59.9986721652,FEMA4ImagesEEG,001,200905,
AFNE01.JPG,AFNE01.JPG,AFNE01.JPG,AFNE01.JPG,AFNE01.JPG,AFNE01.JPG,3,7,37,3,,,,,,,,,,,,,,,,,,,,,,,AFNE11.jpg,AFSA09.jpg,AFSA17.jpg,AFNE05.jpg,AFSA09.jpg,FS,4,num_6,32,num_4,1.55008982327,,,2017_Jul_17_1038,59.9986721652,FEMA4ImagesEEG,001,200905,
AFNE01.JPG,AFNE01.JPG,AFNE01.JPG,AFNE01.JPG,AFNE01.JPG,AFNE01.JPG,3,8,38,8,,,,,,,,,,,,,,,,,,,,,,,AFNE11.jpg,AFSA04.jpg,AFNE14.jpg,AFSA17.jpg,AFNE14.jpg,FN,3,num_2,16,num_2,1.70007110808,,,2017_Jul_17_1038,59.9986721652,FEMA4ImagesEEG,001,200905,
AFNE01.JPG,AFNE01.JPG,AFNE01.JPG,AFNE01.JPG,AFNE01.JPG,AFNE01.JPG,3,9,39,6,,,,,,,,,,,,,,,,,,,,,,,AFSA16.jpg,AFNE13.jpg,AFNE20.jpg,AFSA18.jpg,AFNE13.jpg,FN,3,num_6,32,num_4,1.91671533898,,,2017_Jul_17_1038,59.9986721652,FEMA4ImagesEEG,001,200905,
AFNE01.JPG,AFNE01.JPG,AFNE01.JPG,AFNE01.JPG,AFNE01.JPG,AFNE01.JPG,4,0,40,5,,,,,,,,,,,,,,,,,,,,,,,AFSA15.jpg,AFNE06.jpg,AFNE17.jpg,AFSA14.jpg,AFNE17.jpg,FN,3,num_2,32,num_4,1.59976508994,,,2017_Jul_17_1038,59.9986721652,FEMA4ImagesEEG,001,200905,
AFNE01.JPG,AFNE01.JPG,AFNE01.JPG,AFNE01.JPG,AFNE01.JPG,AFNE01.JPG,4,1,41,6,,,,,,,,,,,,,,,,,,,,,,,AFNE09.jpg,AFNE17.jpg,AFSA04.jpg,AFSA07.jpg,AFNE09.jpg,FN,3,num_8,16,num_8,3.09995448698,,,2017_Jul_17_1038,59.9986721652,FEMA4ImagesEEG,001,200905,
AFNE01.JPG,AFNE01.JPG,AFNE01.JPG,AFNE01.JPG,AFNE01.JPG,AFNE01.JPG,4,2,42,1,,,,,,,,,,,,,,,,,,,,,,,AFNE08.jpg,AFNE07.jpg,AFSA15.jpg,AFSA03.jpg,AFSA03.jpg,FS,4,num_4,16,num_4,1.63348578111,,,2017_Jul_17_1038,59.9986721652,FEMA4ImagesEEG,001,200905,
AFNE01.JPG,AFNE01.JPG,AFNE01.JPG,AFNE01.JPG,AFNE01.JPG,AFNE01.JPG,4,3,43,0,,,,,,,,,,,,,,,,,,,,,,,AFSA19.jpg,AFNE17.jpg,AFSA11.jpg,AFNE12.jpg,AFNE17.jpg,FN,3,num_6,16,num_6,0.900099718101,,,2017_Jul_17_1038,59.9986721652,FEMA4ImagesEEG,001,200905,
AFNE01.JPG,AFNE01.JPG,AFNE01.JPG,AFNE01.JPG,AFNE01.JPG,AFNE01.JPG,4,4,44,3,,,,,,,,,,,,,,,,,,,,,,,AFSA19.jpg,AFNE14.jpg,AFNE11.jpg,AFSA17.jpg,AFSA17.jpg,FS,4,num_4,16,num_4,1.08345850216,,,2017_Jul_17_1038,59.9986721652,FEMA4ImagesEEG,001,200905,
AFNE01.JPG,AFNE01.JPG,AFNE01.JPG,AFNE01.JPG,AFNE01.JPG,AFNE01.JPG,4,5,45,8,,,,,,,,,,,,,,,,,,,,,,,AFSA07.jpg,AFSA10.jpg,AFNE20.jpg,AFNE17.jpg,AFSA07.jpg,FS,4,num_8,16,num_8,2.56665252203,,,2017_Jul_17_1038,59.9986721652,FEMA4ImagesEEG,001,200905,
AFNE01.JPG,AFNE01.JPG,AFNE01.JPG,AFNE01.JPG,AFNE01.JPG,AFNE01.JPG,4,6,46,4,,,,,,,,,,,,,,,,,,,,,,,AFSA06.jpg,AFNE02.jpg,AFNE03.jpg,AFSA07.jpg,AFNE02.jpg,FN,3,num_6,32,num_2,0.816806397097,,,2017_Jul_17_1038,59.9986721652,FEMA4ImagesEEG,001,200905,
AFNE01.JPG,AFNE01.JPG,AFNE01.JPG,AFNE01.JPG,AFNE01.JPG,AFNE01.JPG,4,7,47,2,,,,,,,,,,,,,,,,,,,,,,,AFSA15.jpg,AFNE07.jpg,AFSA09.jpg,AFNE09.jpg,AFNE09.jpg,FN,3,num_4,32,num_8,1.15011182604,,,2017_Jul_17_1038,59.9986721652,FEMA4ImagesEEG,001,200905,
AFNE01.JPG,AFNE01.JPG,AFNE01.JPG,AFNE01.JPG,AFNE01.JPG,AFNE01.JPG,4,8,48,9,,,,,,,,,,,,,,,,,,,,,,,AFSA16.jpg,AFNE03.jpg,AFNE06.jpg,AFSA07.jpg,AFNE03.jpg,FN,3,num_6,32,num_2,1.00025434691,,,2017_Jul_17_1038,59.9986721652,FEMA4ImagesEEG,001,200905,
AFNE01.JPG,AFNE01.JPG,AFNE01.JPG,AFNE01.JPG,AFNE01.JPG,AFNE01.JPG,4,9,49,7,,,,,,,,,,,,,,,,,,,,,,,AFNE06.jpg,AFSA18.jpg,AFSA10.jpg,AFNE04.jpg,AFSA18.jpg,FS,4,num_6,16,num_6,1.51672354993,,,2017_Jul_17_1038,59.9986721652,FEMA4ImagesEEG,001,200905,
AFNE01.JPG,AFNE01.JPG,AFNE01.JPG,AFNE01.JPG,AFNE01.JPG,AFNE01.JPG,5,0,50,2,,,,,,,,,,,,,,,,,,,,,,,AFNE18.jpg,AFSA16.jpg,AFSA15.jpg,AFNE15.jpg,AFSA15.jpg,FS,4,num_2,16,num_2,0.649839998794,,,2017_Jul_17_1038,59.9986721652,FEMA4ImagesEEG,001,200905,
AFNE01.JPG,AFNE01.JPG,AFNE01.JPG,AFNE01.JPG,AFNE01.JPG,AFNE01.JPG,5,1,51,0,,,,,,,,,,,,,,,,,,,,,,,AFSA13.jpg,AFNE01.jpg,AFSA11.jpg,AFNE06.jpg,AFNE01.jpg,FN,3,num_6,32,num_4,1.05009960584,,,2017_Jul_17_1038,59.9986721652,FEMA4ImagesEEG,001,200905,
AFNE01.JPG,AFNE01.JPG,AFNE01.JPG,AFNE01.JPG,AFNE01.JPG,AFNE01.JPG,5,2,52,6,,,,,,,,,,,,,,,,,,,,,,,AFSA17.jpg,AFNE05.jpg,AFSA20.jpg,AFNE06.jpg,AFNE06.jpg,FN,3,num_4,32,num_6,0.800195908061,,,2017_Jul_17_1038,59.9986721652,FEMA4ImagesEEG,001,200905,
AFNE01.JPG,AFNE01.JPG,AFNE01.JPG,AFNE01.JPG,AFNE01.JPG,AFNE01.JPG,5,3,53,3,,,,,,,,,,,,,,,,,,,,,,,AFSA08.jpg,AFNE20.jpg,AFSA05.jpg,AFNE08.jpg,AFNE08.jpg,FN,3,num_4,16,num_4,1.78340644604,,,2017_Jul_17_1038,59.9986721652,FEMA4ImagesEEG,001,200905,
AFNE01.JPG,AFNE01.JPG,AFNE01.JPG,AFNE01.JPG,AFNE01.JPG,AFNE01.JPG,5,4,54,9,,,,,,,,,,,,,,,,,,,,,,,AFNE03.jpg,AFSA05.jpg,AFNE14.jpg,AFSA08.jpg,AFNE03.jpg,FN,3,num_8,32,num_2,1.26673453527,,,2017_Jul_17_1038,59.9986721652,FEMA4ImagesEEG,001,200905,
AFNE01.JPG,AFNE01.JPG,AFNE01.JPG,AFNE01.JPG,AFNE01.JPG,AFNE01.JPG,5,5,55,7,,,,,,,,,,,,,,,,,,,,,,,AFSA02.jpg,AFSA16.jpg,AFNE13.jpg,AFNE15.jpg,AFSA02.jpg,FS,4,num_8,32,num_4,1.21663204277,,,2017_Jul_17_1038,59.9986721652,FEMA4ImagesEEG,001,200905,
AFNE01.JPG,AFNE01.JPG,AFNE01.JPG,AFNE01.JPG,AFNE01.JPG,AFNE01.JPG,5,6,56,5,,,,,,,,,,,,,,,,,,,,,,,AFSA05.jpg,AFNE11.jpg,AFNE06.jpg,AFSA08.jpg,AFSA08.jpg,FS,4,num_4,16,num_4,1.01680966865,,,2017_Jul_17_1038,59.9986721652,FEMA4ImagesEEG,001,200905,
AFNE01.JPG,AFNE01.JPG,AFNE01.JPG,AFNE01.JPG,AFNE01.JPG,AFNE01.JPG,5,7,57,8,,,,,,,,,,,,,,,,,,,,,,,AFSA18.jpg,AFNE03.jpg,AFSA19.jpg,AFNE13.jpg,AFSA19.jpg,FS,4,num_2,16,num_2,0.733433211805,,,2017_Jul_17_1038,59.9986721652,FEMA4ImagesEEG,001,200905,
AFNE01.JPG,AFNE01.JPG,AFNE01.JPG,AFNE01.JPG,AFNE01.JPG,AFNE01.JPG,5,8,58,4,,,,,,,,,,,,,,,,,,,,,,,AFNE08.jpg,AFSA20.jpg,AFSA16.jpg,AFNE09.jpg,AFNE08.jpg,FN,3,num_8,32,num_4,0.750142809536,,,2017_Jul_17_1038,59.9986721652,FEMA4ImagesEEG,001,200905,
AFNE01.JPG,AFNE01.JPG,AFNE01.JPG,AFNE01.JPG,AFNE01.JPG,AFNE01.JPG,5,9,59,1,,,,,,,,,,,,,,,,,,,,,,,AFSA06.jpg,AFNE11.jpg,AFSA18.jpg,AFNE12.jpg,AFSA18.jpg,FS,4,num_2,32,num_6,0.833527220732,,,2017_Jul_17_1038,59.9986721652,FEMA4ImagesEEG,001,200905,
,,,,,,,,,,,,,,,,,,,,,,,,,,,,,,,,,,,,,,,,,,,space,24.7983093147,2017_Jul_17_1038,59.9986721652,FEMA4ImagesEEG,001,200905,
AFNE01.JPG,AFNE01.JPG,AFNE01.JPG,AFNE01.JPG,AFNE01.JPG,AFNE01.JPG,,,,,0,0,0,9,,,,,,,,,,,,,,,,,,,AMNE10.jpg,AMNE15.jpg,AMSA13.jpg,AMSA08.jpg,AMSA13.jpg,MS,2,num_2,16,num_2,0.733464965076,,,2017_Jul_17_1038,59.9986721652,FEMA4ImagesEEG,001,200905,
AFNE01.JPG,AFNE01.JPG,AFNE01.JPG,AFNE01.JPG,AFNE01.JPG,AFNE01.JPG,,,,,0,1,1,4,,,,,,,,,,,,,,,,,,,AMNE08.jpg,AMSA06.jpg,AMNE16.jpg,AMSA18.jpg,AMSA18.jpg,MS,2,num_4,16,num_4,0.850186141525,,,2017_Jul_17_1038,59.9986721652,FEMA4ImagesEEG,001,200905,
AFNE01.JPG,AFNE01.JPG,AFNE01.JPG,AFNE01.JPG,AFNE01.JPG,AFNE01.JPG,,,,,0,2,2,8,,,,,,,,,,,,,,,,,,,AMNE14.jpg,AMSA08.jpg,AMSA05.jpg,AMNE06.jpg,AMNE06.jpg,MN,1,num_4,16,num_4,0.90015103652,,,2017_Jul_17_1038,59.9986721652,FEMA4ImagesEEG,001,200905,
AFNE01.JPG,AFNE01.JPG,AFNE01.JPG,AFNE01.JPG,AFNE01.JPG,AFNE01.JPG,,,,,0,3,3,1,,,,,,,,,,,,,,,,,,,AMNE06.jpg,AMSA20.jpg,AMNE11.jpg,AMSA03.jpg,AMNE11.jpg,MN,1,num_2,32,num_8,0.783560722037,,,2017_Jul_17_1038,59.9986721652,FEMA4ImagesEEG,001,200905,
AFNE01.JPG,AFNE01.JPG,AFNE01.JPG,AFNE01.JPG,AFNE01.JPG,AFNE01.JPG,,,,,0,4,4,7,,,,,,,,,,,,,,,,,,,AMSA19.jpg,AMNE17.jpg,AMSA08.jpg,AMNE11.jpg,AMSA19.jpg,MS,2,num_8,32,num_2,1.20011873799,,,2017_Jul_17_1038,59.9986721652,FEMA4ImagesEEG,001,200905,
AFNE01.JPG,AFNE01.JPG,AFNE01.JPG,AFNE01.JPG,AFNE01.JPG,AFNE01.JPG,,,,,0,5,5,0,,,,,,,,,,,,,,,,,,,AMNE02.jpg,AMSA16.jpg,AMSA14.jpg,AMNE05.jpg,AMNE05.jpg,MN,1,num_4,16,num_4,1.15014422079,,,2017_Jul_17_1038,59.9986721652,FEMA4ImagesEEG,001,200905,
AFNE01.JPG,AFNE01.JPG,AFNE01.JPG,AFNE01.JPG,AFNE01.JPG,AFNE01.JPG,,,,,0,6,6,2,,,,,,,,,,,,,,,,,,,AMSA09.jpg,AMSA03.jpg,AMNE08.jpg,AMNE07.jpg,AMSA09.jpg,MS,2,num_8,16,num_8,1.11676511784,,,2017_Jul_17_1038,59.9986721652,FEMA4ImagesEEG,001,200905,
AFNE01.JPG,AFNE01.JPG,AFNE01.JPG,AFNE01.JPG,AFNE01.JPG,AFNE01.JPG,,,,,0,7,7,5,,,,,,,,,,,,,,,,,,,AMNE20.jpg,AMNE10.jpg,AMSA09.jpg,AMSA06.jpg,AMNE20.jpg,MN,1,num_8,16,num_8,0.816989539703,,,2017_Jul_17_1038,59.9986721652,FEMA4ImagesEEG,001,200905,
AFNE01.JPG,AFNE01.JPG,AFNE01.JPG,AFNE01.JPG,AFNE01.JPG,AFNE01.JPG,,,,,0,8,8,6,,,,,,,,,,,,,,,,,,,AMSA16.jpg,AMNE01.jpg,AMSA01.jpg,AMNE08.jpg,AMSA01.jpg,MS,2,num_2,32,num_6,0.749926951438,,,2017_Jul_17_1038,59.9986721652,FEMA4ImagesEEG,001,200905,
AFNE01.JPG,AFNE01.JPG,AFNE01.JPG,AFNE01.JPG,AFNE01.JPG,AFNE01.JPG,,,,,0,9,9,3,,,,,,,,,,,,,,,,,,,AMNE05.jpg,AMSA19.jpg,AMNE17.jpg,AMSA20.jpg,AMNE17.jpg,MN,1,num_2,16,num_2,0.68349654194,,,2017_Jul_17_1038,59.9986721652,FEMA4ImagesEEG,001,200905,
AFNE01.JPG,AFNE01.JPG,AFNE01.JPG,AFNE01.JPG,AFNE01.JPG,AFNE01.JPG,,,,,1,0,10,2,,,,,,,,,,,,,,,,,,,AMNE14.jpg,AMSA01.jpg,AMSA09.jpg,AMNE12.jpg,AMNE14.jpg,MN,1,num_8,32,num_6,1.20010590839,,,2017_Jul_17_1038,59.9986721652,FEMA4ImagesEEG,001,200905,
AFNE01.JPG,AFNE01.JPG,AFNE01.JPG,AFNE01.JPG,AFNE01.JPG,AFNE01.JPG,,,,,1,1,11,1,,,,,,,,,,,,,,,,,,,AMNE18.jpg,AMNE04.jpg,AMSA16.jpg,AMSA15.jpg,AMSA16.jpg,MS,2,num_2,16,num_2,1.58345866253,,,2017_Jul_17_1038,59.9986721652,FEMA4ImagesEEG,001,200905,
AFNE01.JPG,AFNE01.JPG,AFNE01.JPG,AFNE01.JPG,AFNE01.JPG,AFNE01.JPG,,,,,1,2,12,0,,,,,,,,,,,,,,,,,,,AMSA09.jpg,AMSA07.jpg,AMNE01.jpg,AMNE10.jpg,AMNE01.jpg,MN,1,num_2,16,num_2,0.566818665407,,,2017_Jul_17_1038,59.9986721652,FEMA4ImagesEEG,001,200905,
AFNE01.JPG,AFNE01.JPG,AFNE01.JPG,AFNE01.JPG,AFNE01.JPG,AFNE01.JPG,,,,,1,3,13,3,,,,,,,,,,,,,,,,,,,AMNE18.jpg,AMSA10.jpg,AMNE08.jpg,AMSA12.jpg,AMSA12.jpg,MS,2,num_4,16,num_4,0.533474843872,,,2017_Jul_17_1038,59.9986721652,FEMA4ImagesEEG,001,200905,
AFNE01.JPG,AFNE01.JPG,AFNE01.JPG,AFNE01.JPG,AFNE01.JPG,AFNE01.JPG,,,,,1,4,14,5,,,,,,,,,,,,,,,,,,,AMNE01.jpg,AMNE14.jpg,AMSA02.jpg,AMSA15.jpg,AMNE01.jpg,MN,1,num_8,16,num_8,0.833419131313,,,2017_Jul_17_1038,59.9986721652,FEMA4ImagesEEG,001,200905,
AFNE01.JPG,AFNE01.JPG,AFNE01.JPG,AFNE01.JPG,AFNE01.JPG,AFNE01.JPG,,,,,1,5,15,9,,,,,,,,,,,,,,,,,,,AMNE17.jpg,AMSA05.jpg,AMNE10.jpg,AMSA12.jpg,AMNE17.jpg,MN,1,num_8,16,num_8,0.5501780268,,,2017_Jul_17_1038,59.9986721652,FEMA4ImagesEEG,001,200905,
AFNE01.JPG,AFNE01.JPG,AFNE01.JPG,AFNE01.JPG,AFNE01.JPG,AFNE01.JPG,,,,,1,6,16,8,,,,,,,,,,,,,,,,,,,AMSA01.jpg,AMSA04.jpg,AMNE07.jpg,AMNE09.jpg,AMSA04.jpg,MS,2,num_6,16,num_6,0.883590582943,,,2017_Jul_17_1038,59.9986721652,FEMA4ImagesEEG,001,200905,
AFNE01.JPG,AFNE01.JPG,AFNE01.JPG,AFNE01.JPG,AFNE01.JPG,AFNE01.JPG,,,,,1,7,17,7,,,,,,,,,,,,,,,,,,,AMSA16.jpg,AMNE08.jpg,AMNE16.jpg,AMSA05.jpg,AMSA16.jpg,MS,2,num_8,32,num_2,2.59988055638,,,2017_Jul_17_1038,59.9986721652,FEMA4ImagesEEG,001,200905,
AFNE01.JPG,AFNE01.JPG,AFNE01.JPG,AFNE01.JPG,AFNE01.JPG,AFNE01.JPG,,,,,1,8,18,4,,,,,,,,,,,,,,,,,,,AMNE02.jpg,AMSA07.jpg,AMNE16.jpg,AMSA20.jpg,AMNE16.jpg,MN,1,num_2,32,num_6,1.36678011245,,,2017_Jul_17_1038,59.9986721652,FEMA4ImagesEEG,001,200905,
AFNE01.JPG,AFNE01.JPG,AFNE01.JPG,AFNE01.JPG,AFNE01.JPG,AFNE01.JPG,,,,,1,9,19,6,,,,,,,,,,,,,,,,,,,AMSA17.jpg,AMNE17.jpg,AMSA07.jpg,AMNE04.jpg,AMNE17.jpg,MN,1,num_6,16,num_6,1.08349570802,,,2017_Jul_17_1038,59.9986721652,FEMA4ImagesEEG,001,200905,
AFNE01.JPG,AFNE01.JPG,AFNE01.JPG,AFNE01.JPG,AFNE01.JPG,AFNE01.JPG,,,,,2,0,20,4,,,,,,,,,,,,,,,,,,,AMSA08.jpg,AMNE09.jpg,AMNE12.jpg,AMSA19.jpg,AMNE09.jpg,MN,1,num_6,32,num_2,0.966846698093,,,2017_Jul_17_1038,59.9986721652,FEMA4ImagesEEG,001,200905,
AFNE01.JPG,AFNE01.JPG,AFNE01.JPG,AFNE01.JPG,AFNE01.JPG,AFNE01.JPG,,,,,2,1,21,7,,,,,,,,,,,,,,,,,,,AMNE18.jpg,AMSA16.jpg,AMNE09.jpg,AMSA05.jpg,AMSA16.jpg,MS,2,num_6,32,num_2,1.11677762671,,,2017_Jul_17_1038,59.9986721652,FEMA4ImagesEEG,001,200905,
AFNE01.JPG,AFNE01.JPG,AFNE01.JPG,AFNE01.JPG,AFNE01.JPG,AFNE01.JPG,,,,,2,2,22,6,,,,,,,,,,,,,,,,,,,AMSA15.jpg,AMNE01.jpg,AMSA06.jpg,AMNE15.jpg,AMNE01.jpg,MN,1,num_6,16,num_6,0.850128408304,,,2017_Jul_17_1038,59.9986721652,FEMA4ImagesEEG,001,200905,
AFNE01.JPG,AFNE01.JPG,AFNE01.JPG,AFNE01.JPG,AFNE01.JPG,AFNE01.JPG,,,,,2,3,23,2,,,,,,,,,,,,,,,,,,,AMSA19.jpg,AMNE03.jpg,AMNE19.jpg,AMSA18.jpg,AMSA19.jpg,MS,2,num_8,16,num_8,0.850155029734,,,2017_Jul_17_1038,59.9986721652,FEMA4ImagesEEG,001,200905,
AFNE01.JPG,AFNE01.JPG,AFNE01.JPG,AFNE01.JPG,AFNE01.JPG,AFNE01.JPG,,,,,2,4,24,8,,,,,,,,,,,,,,,,,,,AMSA12.jpg,AMNE20.jpg,AMNE02.jpg,AMSA09.jpg,AMSA12.jpg,MS,2,num_8,32,num_4,1.18344827055,,,2017_Jul_17_1038,59.9986721652,FEMA4ImagesEEG,001,200905,
AFNE01.JPG,AFNE01.JPG,AFNE01.JPG,AFNE01.JPG,AFNE01.JPG,AFNE01.JPG,,,,,2,5,25,0,,,,,,,,,,,,,,,,,,,AMNE01.jpg,AMSA06.jpg,AMSA08.jpg,AMNE17.jpg,AMSA06.jpg,MS,2,num_6,32,num_8,0.916816692855,,,2017_Jul_17_1038,59.9986721652,FEMA4ImagesEEG,001,200905,
AFNE01.JPG,AFNE01.JPG,AFNE01.JPG,AFNE01.JPG,AFNE01.JPG,AFNE01.JPG,,,,,2,6,26,1,,,,,,,,,,,,,,,,,,,AMNE01.jpg,AMSA10.jpg,AMSA07.jpg,AMNE16.jpg,AMSA10.jpg,MS,2,num_6,32,num_2,1.28344381227,,,2017_Jul_17_1038,59.9986721652,FEMA4ImagesEEG,001,200905,
AFNE01.JPG,AFNE01.JPG,AFNE01.JPG,AFNE01.JPG,AFNE01.JPG,AFNE01.JPG,,,,,2,7,27,9,,,,,,,,,,,,,,,,,,,AMSA15.jpg,AMSA11.jpg,AMNE18.jpg,AMNE05.jpg,AMNE18.jpg,MN,1,num_2,16,num_2,0.866749802504,,,2017_Jul_17_1038,59.9986721652,FEMA4ImagesEEG,001,200905,
AFNE01.JPG,AFNE01.JPG,AFNE01.JPG,AFNE01.JPG,AFNE01.JPG,AFNE01.JPG,,,,,2,8,28,3,,,,,,,,,,,,,,,,,,,AMNE20.jpg,AMNE09.jpg,AMSA18.jpg,AMSA03.jpg,AMSA18.jpg,MS,2,num_2,16,num_2,1.8000746683,,,2017_Jul_17_1038,59.9986721652,FEMA4ImagesEEG,001,200905,
AFNE01.JPG,AFNE01.JPG,AFNE01.JPG,AFNE01.JPG,AFNE01.JPG,AFNE01.JPG,,,,,2,9,29,5,,,,,,,,,,,,,,,,,,,AMSA13.jpg,AMNE04.jpg,AMNE10.jpg,AMSA15.jpg,AMSA15.jpg,MS,2,num_4,16,num_4,0.933460538863,,,2017_Jul_17_1038,59.9986721652,FEMA4ImagesEEG,001,200905,
AFNE01.JPG,AFNE01.JPG,AFNE01.JPG,AFNE01.JPG,AFNE01.JPG,AFNE01.JPG,,,,,3,0,30,1,,,,,,,,,,,,,,,,,,,AMNE17.jpg,AMSA18.jpg,AMNE18.jpg,AMSA08.jpg,AMSA18.jpg,MS,2,num_6,32,num_4,1.71673676442,,,2017_Jul_17_1038,59.9986721652,FEMA4ImagesEEG,001,200905,
AFNE01.JPG,AFNE01.JPG,AFNE01.JPG,AFNE01.JPG,AFNE01.JPG,AFNE01.JPG,,,,,3,1,31,3,,,,,,,,,,,,,,,,,,,AMNE03.jpg,AMSA01.jpg,AMSA17.jpg,AMNE05.jpg,AMSA17.jpg,MS,2,num_2,16,num_2,0.950022596141,,,2017_Jul_17_1038,59.9986721652,FEMA4ImagesEEG,001,200905,
AFNE01.JPG,AFNE01.JPG,AFNE01.JPG,AFNE01.JPG,AFNE01.JPG,AFNE01.JPG,,,,,3,2,32,6,,,,,,,,,,,,,,,,,,,AMNE03.jpg,AMSA12.jpg,AMSA04.jpg,AMNE07.jpg,AMSA04.jpg,MS,2,num_2,32,num_8,1.15011342974,,,2017_Jul_17_1038,59.9986721652,FEMA4ImagesEEG,001,200905,
AFNE01.JPG,AFNE01.JPG,AFNE01.JPG,AFNE01.JPG,AFNE01.JPG,AFNE01.JPG,,,,,3,3,33,7,,,,,,,,,,,,,,,,,,,AMNE11.jpg,AMNE20.jpg,AMSA06.jpg,AMSA10.jpg,AMNE20.jpg,MN,1,num_6,32,num_4,1.56680006248,,,2017_Jul_17_1038,59.9986721652,FEMA4ImagesEEG,001,200905,
AFNE01.JPG,AFNE01.JPG,AFNE01.JPG,AFNE01.JPG,AFNE01.JPG,AFNE01.JPG,,,,,3,4,34,2,,,,,,,,,,,,,,,,,,,AMNE20.jpg,AMSA03.jpg,AMNE03.jpg,AMSA20.jpg,AMNE03.jpg,MN,1,num_2,16,num_2,0.733454059912,,,2017_Jul_17_1038,59.9986721652,FEMA4ImagesEEG,001,200905,
AFNE01.JPG,AFNE01.JPG,AFNE01.JPG,AFNE01.JPG,AFNE01.JPG,AFNE01.JPG,,,,,3,5,35,8,,,,,,,,,,,,,,,,,,,AMNE04.jpg,AMSA12.jpg,AMNE17.jpg,AMSA11.jpg,AMNE17.jpg,MN,1,num_2,16,num_2,0.583513509093,,,2017_Jul_17_1038,59.9986721652,FEMA4ImagesEEG,001,200905,
AFNE01.JPG,AFNE01.JPG,AFNE01.JPG,AFNE01.JPG,AFNE01.JPG,AFNE01.JPG,,,,,3,6,36,5,,,,,,,,,,,,,,,,,,,AMSA02.jpg,AMSA08.jpg,AMNE16.jpg,AMNE09.jpg,AMSA08.jpg,MS,2,num_6,16,num_6,0.966745664957,,,2017_Jul_17_1038,59.9986721652,FEMA4ImagesEEG,001,200905,
AFNE01.JPG,AFNE01.JPG,AFNE01.JPG,AFNE01.JPG,AFNE01.JPG,AFNE01.JPG,,,,,3,7,37,9,,,,,,,,,,,,,,,,,,,AMNE10.jpg,AMNE12.jpg,AMSA08.jpg,AMSA12.jpg,AMNE10.jpg,MN,1,num_8,16,num_8,1.60007556637,,,2017_Jul_17_1038,59.9986721652,FEMA4ImagesEEG,001,200905,
AFNE01.JPG,AFNE01.JPG,AFNE01.JPG,AFNE01.JPG,AFNE01.JPG,AFNE01.JPG,,,,,3,8,38,0,,,,,,,,,,,,,,,,,,,AMNE09.jpg,AMSA01.jpg,AMNE12.jpg,AMSA07.jpg,AMSA07.jpg,MS,2,num_4,32,num_2,1.3167436924,,,2017_Jul_17_1038,59.9986721652,FEMA4ImagesEEG,001,200905,
AFNE01.JPG,AFNE01.JPG,AFNE01.JPG,AFNE01.JPG,AFNE01.JPG,AFNE01.JPG,,,,,3,9,39,4,,,,,,,,,,,,,,,,,,,AMSA11.jpg,AMNE05.jpg,AMSA07.jpg,AMNE08.jpg,AMSA07.jpg,MS,2,num_2,16,num_2,0.783464179263,,,2017_Jul_17_1038,59.9986721652,FEMA4ImagesEEG,001,200905,
AFNE01.JPG,AFNE01.JPG,AFNE01.JPG,AFNE01.JPG,AFNE01.JPG,AFNE01.JPG,,,,,4,0,40,5,,,,,,,,,,,,,,,,,,,AMNE16.jpg,AMSA10.jpg,AMSA07.jpg,AMNE03.jpg,AMNE16.jpg,MN,1,num_8,16,num_8,2.08340558004,,,2017_Jul_17_1038,59.9986721652,FEMA4ImagesEEG,001,200905,
AFNE01.JPG,AFNE01.JPG,AFNE01.JPG,AFNE01.JPG,AFNE01.JPG,AFNE01.JPG,,,,,4,1,41,0,,,,,,,,,,,,,,,,,,,AMNE13.jpg,AMSA20.jpg,AMNE03.jpg,AMSA17.jpg,AMSA17.jpg,MS,2,num_4,16,num_4,1.50008740168,,,2017_Jul_17_1038,59.9986721652,FEMA4ImagesEEG,001,200905,
AFNE01.JPG,AFNE01.JPG,AFNE01.JPG,AFNE01.JPG,AFNE01.JPG,AFNE01.JPG,,,,,4,2,42,2,,,,,,,,,,,,,,,,,,,AMSA03.jpg,AMNE05.jpg,AMSA08.jpg,AMNE03.jpg,AMSA03.jpg,MS,2,num_8,32,num_2,1.21704387308,,,2017_Jul_17_1038,59.9986721652,FEMA4ImagesEEG,001,200905,
AFNE01.JPG,AFNE01.JPG,AFNE01.JPG,AFNE01.JPG,AFNE01.JPG,AFNE01.JPG,,,,,4,3,43,3,,,,,,,,,,,,,,,,,,,AMNE17.jpg,AMSA02.jpg,AMSA01.jpg,AMNE12.jpg,AMNE17.jpg,MN,1,num_8,32,num_4,1.0335266434,,,2017_Jul_17_1038,59.9986721652,FEMA4ImagesEEG,001,200905,
AFNE01.JPG,AFNE01.JPG,AFNE01.JPG,AFNE01.JPG,AFNE01.JPG,AFNE01.JPG,,,,,4,4,44,7,,,,,,,,,,,,,,,,,,,AMSA10.jpg,AMSA14.jpg,AMNE20.jpg,AMNE09.jpg,AMNE20.jpg,MN,1,num_2,32,num_4,1.03345768428,,,2017_Jul_17_1038,59.9986721652,FEMA4ImagesEEG,001,200905,
AFNE01.JPG,AFNE01.JPG,AFNE01.JPG,AFNE01.JPG,AFNE01.JPG,AFNE01.JPG,,,,,4,5,45,4,,,,,,,,,,,,,,,,,,,AMNE19.jpg,AMSA10.jpg,AMSA19.jpg,AMNE12.jpg,AMNE19.jpg,MN,1,num_8,32,num_2,1.30008829975,,,2017_Jul_17_1038,59.9986721652,FEMA4ImagesEEG,001,200905,
AFNE01.JPG,AFNE01.JPG,AFNE01.JPG,AFNE01.JPG,AFNE01.JPG,AFNE01.JPG,,,,,4,6,46,9,,,,,,,,,,,,,,,,,,,AMSA06.jpg,AMSA04.jpg,AMNE08.jpg,AMNE19.jpg,AMSA04.jpg,MS,2,num_6,32,num_2,1.05015798054,,,2017_Jul_17_1038,59.9986721652,FEMA4ImagesEEG,001,200905,
AFNE01.JPG,AFNE01.JPG,AFNE01.JPG,AFNE01.JPG,AFNE01.JPG,AFNE01.JPG,,,,,4,7,47,1,,,,,,,,,,,,,,,,,,,AMSA13.jpg,AMNE09.jpg,AMNE19.jpg,AMSA20.jpg,AMSA20.jpg,MS,2,num_4,32,num_2,0.883659221327,,,2017_Jul_17_1038,59.9986721652,FEMA4ImagesEEG,001,200905,
AFNE01.JPG,AFNE01.JPG,AFNE01.JPG,AFNE01.JPG,AFNE01.JPG,AFNE01.JPG,,,,,4,8,48,6,,,,,,,,,,,,,,,,,,,AMSA15.jpg,AMNE09.jpg,AMNE13.jpg,AMSA16.jpg,AMSA16.jpg,MS,2,num_4,32,num_6,0.600203862416,,,2017_Jul_17_1038,59.9986721652,FEMA4ImagesEEG,001,200905,
AFNE01.JPG,AFNE01.JPG,AFNE01.JPG,AFNE01.JPG,AFNE01.JPG,AFNE01.JPG,,,,,4,9,49,8,,,,,,,,,,,,,,,,,,,AMSA15.jpg,AMSA19.jpg,AMNE05.jpg,AMNE15.jpg,AMNE15.jpg,MN,1,num_4,16,num_4,1.3834435236,,,2017_Jul_17_1038,59.9986721652,FEMA4ImagesEEG,001,200905,
AFNE01.JPG,AFNE01.JPG,AFNE01.JPG,AFNE01.JPG,AFNE01.JPG,AFNE01.JPG,,,,,5,0,50,2,,,,,,,,,,,,,,,,,,,AMNE15.jpg,AMSA06.jpg,AMSA02.jpg,AMNE14.jpg,AMNE15.jpg,MN,1,num_8,16,num_8,1.66669521254,,,2017_Jul_17_1038,59.9986721652,FEMA4ImagesEEG,001,200905,
AFNE01.JPG,AFNE01.JPG,AFNE01.JPG,AFNE01.JPG,AFNE01.JPG,AFNE01.JPG,,,,,5,1,51,5,,,,,,,,,,,,,,,,,,,AMSA04.jpg,AMNE02.jpg,AMNE11.jpg,AMSA11.jpg,AMSA04.jpg,MS,2,num_8,16,num_8,0.566848173497,,,2017_Jul_17_1038,59.9986721652,FEMA4ImagesEEG,001,200905,
AFNE01.JPG,AFNE01.JPG,AFNE01.JPG,AFNE01.JPG,AFNE01.JPG,AFNE01.JPG,,,,,5,2,52,8,,,,,,,,,,,,,,,,,,,AMNE15.jpg,AMSA09.jpg,AMSA20.jpg,AMNE12.jpg,AMSA20.jpg,MS,2,num_2,16,num_2,1.41706125719,,,2017_Jul_17_1038,59.9986721652,FEMA4ImagesEEG,001,200905,
AFNE01.JPG,AFNE01.JPG,AFNE01.JPG,AFNE01.JPG,AFNE01.JPG,AFNE01.JPG,,,,,5,3,53,1,,,,,,,,,,,,,,,,,,,AMNE11.jpg,AMSA18.jpg,AMNE12.jpg,AMSA05.jpg,AMSA18.jpg,MS,2,num_6,16,num_6,0.483498722973,,,2017_Jul_17_1038,59.9986721652,FEMA4ImagesEEG,001,200905,
AFNE01.JPG,AFNE01.JPG,AFNE01.JPG,AFNE01.JPG,AFNE01.JPG,AFNE01.JPG,,,,,5,4,54,9,,,,,,,,,,,,,,,,,,,AMSA17.jpg,AMNE13.jpg,AMSA16.jpg,AMNE11.jpg,AMSA17.jpg,MS,2,num_8,32,num_6,0.716784554696,,,2017_Jul_17_1038,59.9986721652,FEMA4ImagesEEG,001,200905,
AFNE01.JPG,AFNE01.JPG,AFNE01.JPG,AFNE01.JPG,AFNE01.JPG,AFNE01.JPG,,,,,5,5,55,3,,,,,,,,,,,,,,,,,,,AMNE15.jpg,AMSA05.jpg,AMSA18.jpg,AMNE20.jpg,AMNE15.jpg,MN,1,num_8,16,num_8,0.966754645679,,,2017_Jul_17_1038,59.9986721652,FEMA4ImagesEEG,001,200905,
AFNE01.JPG,AFNE01.JPG,AFNE01.JPG,AFNE01.JPG,AFNE01.JPG,AFNE01.JPG,,,,,5,6,56,7,,,,,,,,,,,,,,,,,,,AMSA01.jpg,AMSA11.jpg,AMNE13.jpg,AMNE09.jpg,AMNE13.jpg,MN,1,num_2,32,num_8,1.76670518756,,,2017_Jul_17_1038,59.9986721652,FEMA4ImagesEEG,001,200905,
AFNE01.JPG,AFNE01.JPG,AFNE01.JPG,AFNE01.JPG,AFNE01.JPG,AFNE01.JPG,,,,,5,7,57,4,,,,,,,,,,,,,,,,,,,AMNE02.jpg,AMNE18.jpg,AMSA04.jpg,AMSA07.jpg,AMSA04.jpg,MS,2,num_2,32,num_8,0.883469663919,,,2017_Jul_17_1038,59.9986721652,FEMA4ImagesEEG,001,200905,
AFNE01.JPG,AFNE01.JPG,AFNE01.JPG,AFNE01.JPG,AFNE01.JPG,AFNE01.JPG,,,,,5,8,58,0,,,,,,,,,,,,,,,,,,,AMNE17.jpg,AMSA10.jpg,AMSA12.jpg,AMNE14.jpg,AMNE14.jpg,MN,1,num_4,16,num_4,0.76680397551,,,2017_Jul_17_1038,59.9986721652,FEMA4ImagesEEG,001,200905,
AFNE01.JPG,AFNE01.JPG,AFNE01.JPG,AFNE01.JPG,AFNE01.JPG,AFNE01.JPG,,,,,5,9,59,6,,,,,,,,,,,,,,,,,,,AMNE11.jpg,AMSA13.jpg,AMSA18.jpg,AMNE09.jpg,AMNE11.jpg,MN,1,num_8,32,num_4,1.41671453713,,,2017_Jul_17_1038,59.9986721652,FEMA4ImagesEEG,001,200905,
,,,,,,,,,,,,,,,,,,,,,,,,,,,,,,,,,,,,,,,,,,,space,44.3467903056,2017_Jul_17_1038,59.9986721652,FEMA4ImagesEEG,001,200905,
AFNE01.JPG,AFNE01.JPG,AFNE01.JPG,AFNE01.JPG,AFNE01.JPG,AFNE01.JPG,,,,,,,,,0,0,0,4,,,,,,,,,,,,,,,AFSA01.jpg,AFSA07.jpg,AFNE19.jpg,AFNE07.jpg,AFSA07.jpg,FS,4,num_6,32,num_4,0.649944239331,,,2017_Jul_17_1038,59.9986721652,FEMA4ImagesEEG,001,200905,
AFNE01.JPG,AFNE01.JPG,AFNE01.JPG,AFNE01.JPG,AFNE01.JPG,AFNE01.JPG,,,,,,,,,0,1,1,0,,,,,,,,,,,,,,,AFSA10.jpg,AFNE02.jpg,AFSA11.jpg,AFNE17.jpg,AFNE17.jpg,FN,3,num_4,16,num_4,0.866637543465,,,2017_Jul_17_1038,59.9986721652,FEMA4ImagesEEG,001,200905,
AFNE01.JPG,AFNE01.JPG,AFNE01.JPG,AFNE01.JPG,AFNE01.JPG,AFNE01.JPG,,,,,,,,,0,2,2,2,,,,,,,,,,,,,,,AFNE01.jpg,AFNE17.jpg,AFSA06.jpg,AFSA09.jpg,AFNE17.jpg,FN,3,num_6,16,num_6,0.883168488952,,,2017_Jul_17_1038,59.9986721652,FEMA4ImagesEEG,001,200905,
AFNE01.JPG,AFNE01.JPG,AFNE01.JPG,AFNE01.JPG,AFNE01.JPG,AFNE01.JPG,,,,,,,,,0,3,3,7,,,,,,,,,,,,,,,AFSA12.jpg,AFNE17.jpg,AFNE13.jpg,AFSA11.jpg,AFSA11.jpg,FS,4,num_4,16,num_4,0.483505137776,,,2017_Jul_17_1038,59.9986721652,FEMA4ImagesEEG,001,200905,
AFNE01.JPG,AFNE01.JPG,AFNE01.JPG,AFNE01.JPG,AFNE01.JPG,AFNE01.JPG,,,,,,,,,0,4,4,8,,,,,,,,,,,,,,,AFSA09.jpg,AFNE17.jpg,AFNE03.jpg,AFSA11.jpg,AFNE17.jpg,FN,3,num_6,16,num_6,0.683609763201,,,2017_Jul_17_1038,59.9986721652,FEMA4ImagesEEG,001,200905,
AFNE01.JPG,AFNE01.JPG,AFNE01.JPG,AFNE01.JPG,AFNE01.JPG,AFNE01.JPG,,,,,,,,,0,5,5,9,,,,,,,,,,,,,,,AFNE20.jpg,AFSA12.jpg,AFSA01.jpg,AFNE18.jpg,AFNE20.jpg,FN,3,num_8,16,num_8,0.750110735525,,,2017_Jul_17_1038,59.9986721652,FEMA4ImagesEEG,001,200905,
AFNE01.JPG,AFNE01.JPG,AFNE01.JPG,AFNE01.JPG,AFNE01.JPG,AFNE01.JPG,,,,,,,,,0,6,6,5,,,,,,,,,,,,,,,AFSA04.jpg,AFNE19.jpg,AFSA05.jpg,AFNE02.jpg,AFNE02.jpg,FN,3,num_4,32,num_2,1.2834248886,,,2017_Jul_17_1038,59.9986721652,FEMA4ImagesEEG,001,200905,
AFNE01.JPG,AFNE01.JPG,AFNE01.JPG,AFNE01.JPG,AFNE01.JPG,AFNE01.JPG,,,,,,,,,0,7,7,6,,,,,,,,,,,,,,,AFNE07.jpg,AFSA06.jpg,AFSA08.jpg,AFNE20.jpg,AFSA06.jpg,FS,4,num_6,32,num_2,1.48341308536,,,2017_Jul_17_1038,59.9986721652,FEMA4ImagesEEG,001,200905,
AFNE01.JPG,AFNE01.JPG,AFNE01.JPG,AFNE01.JPG,AFNE01.JPG,AFNE01.JPG,,,,,,,,,0,8,8,1,,,,,,,,,,,,,,,AFNE02.jpg,AFNE15.jpg,AFSA08.jpg,AFSA15.jpg,AFSA15.jpg,FS,4,num_4,16,num_4,0.766660925419,,,2017_Jul_17_1038,59.9986721652,FEMA4ImagesEEG,001,200905,
AFNE01.JPG,AFNE01.JPG,AFNE01.JPG,AFNE01.JPG,AFNE01.JPG,AFNE01.JPG,,,,,,,,,0,9,9,3,,,,,,,,,,,,,,,AFNE08.jpg,AFSA16.jpg,AFNE02.jpg,AFSA01.jpg,AFSA16.jpg,FS,4,num_6,32,num_4,0.700190423406,,,2017_Jul_17_1038,59.9986721652,FEMA4ImagesEEG,001,200905,
AFNE01.JPG,AFNE01.JPG,AFNE01.JPG,AFNE01.JPG,AFNE01.JPG,AFNE01.JPG,,,,,,,,,1,0,10,8,,,,,,,,,,,,,,,AFSA02.jpg,AFSA10.jpg,AFNE15.jpg,AFNE14.jpg,AFNE15.jpg,FN,3,num_2,16,num_2,0.716808610204,,,2017_Jul_17_1038,59.9986721652,FEMA4ImagesEEG,001,200905,
AFNE01.JPG,AFNE01.JPG,AFNE01.JPG,AFNE01.JPG,AFNE01.JPG,AFNE01.JPG,,,,,,,,,1,1,11,1,,,,,,,,,,,,,,,AFSA18.jpg,AFNE18.jpg,AFSA20.jpg,AFNE14.jpg,AFSA20.jpg,FS,4,num_2,32,num_8,1.13349235628,,,2017_Jul_17_1038,59.9986721652,FEMA4ImagesEEG,001,200905,
AFNE01.JPG,AFNE01.JPG,AFNE01.JPG,AFNE01.JPG,AFNE01.JPG,AFNE01.JPG,,,,,,,,,1,2,12,9,,,,,,,,,,,,,,,AFNE15.jpg,AFNE01.jpg,AFSA19.jpg,AFSA06.jpg,AFNE01.jpg,FN,3,num_6,16,num_6,0.850125521644,,,2017_Jul_17_1038,59.9986721652,FEMA4ImagesEEG,001,200905,
AFNE01.JPG,AFNE01.JPG,AFNE01.JPG,AFNE01.JPG,AFNE01.JPG,AFNE01.JPG,,,,,,,,,1,3,13,2,,,,,,,,,,,,,,,AFNE14.jpg,AFNE03.jpg,AFSA10.jpg,AFSA17.jpg,AFNE14.jpg,FN,3,num_8,16,num_8,1.13344200008,,,2017_Jul_17_1038,59.9986721652,FEMA4ImagesEEG,001,200905,
AFNE01.JPG,AFNE01.JPG,AFNE01.JPG,AFNE01.JPG,AFNE01.JPG,AFNE01.JPG,,,,,,,,,1,4,14,3,,,,,,,,,,,,,,,AFSA19.jpg,AFNE06.jpg,AFSA16.jpg,AFNE05.jpg,AFSA16.jpg,FS,4,num_2,32,num_4,1.10013762958,,,2017_Jul_17_1038,59.9986721652,FEMA4ImagesEEG,001,200905,
AFNE01.JPG,AFNE01.JPG,AFNE01.JPG,AFNE01.JPG,AFNE01.JPG,AFNE01.JPG,,,,,,,,,1,5,15,6,,,,,,,,,,,,,,,AFSA10.jpg,AFNE01.jpg,AFSA17.jpg,AFNE05.jpg,AFSA17.jpg,FS,4,num_2,32,num_6,1.05013937762,,,2017_Jul_17_1038,59.9986721652,FEMA4ImagesEEG,001,200905,
AFNE01.JPG,AFNE01.JPG,AFNE01.JPG,AFNE01.JPG,AFNE01.JPG,AFNE01.JPG,,,,,,,,,1,6,16,4,,,,,,,,,,,,,,,AFNE05.jpg,AFSA15.jpg,AFNE20.jpg,AFSA19.jpg,AFSA15.jpg,FS,4,num_6,16,num_6,0.833447356444,,,2017_Jul_17_1038,59.9986721652,FEMA4ImagesEEG,001,200905,
AFNE01.JPG,AFNE01.JPG,AFNE01.JPG,AFNE01.JPG,AFNE01.JPG,AFNE01.JPG,,,,,,,,,1,7,17,5,,,,,,,,,,,,,,,AFSA06.jpg,AFNE09.jpg,AFSA10.jpg,AFNE08.jpg,AFNE09.jpg,FN,3,num_6,16,num_6,0.650148550784,,,2017_Jul_17_1038,59.9986721652,FEMA4ImagesEEG,001,200905,
AFNE01.JPG,AFNE01.JPG,AFNE01.JPG,AFNE01.JPG,AFNE01.JPG,AFNE01.JPG,,,,,,,,,1,8,18,0,,,,,,,,,,,,,,,AFNE06.jpg,AFSA18.jpg,AFNE19.jpg,AFSA15.jpg,AFNE06.jpg,FN,3,num_8,16,num_8,0.583482397301,,,2017_Jul_17_1038,59.9986721652,FEMA4ImagesEEG,001,200905,
AFNE01.JPG,AFNE01.JPG,AFNE01.JPG,AFNE01.JPG,AFNE01.JPG,AFNE01.JPG,,,,,,,,,1,9,19,7,,,,,,,,,,,,,,,AFNE15.jpg,AFNE01.jpg,AFSA18.jpg,AFSA17.jpg,AFNE15.jpg,FN,3,num_8,16,num_8,1.08331288615,,,2017_Jul_17_1038,59.9986721652,FEMA4ImagesEEG,001,200905,
AFNE01.JPG,AFNE01.JPG,AFNE01.JPG,AFNE01.JPG,AFNE01.JPG,AFNE01.JPG,,,,,,,,,2,0,20,8,,,,,,,,,,,,,,,AFSA19.jpg,AFNE17.jpg,AFSA03.jpg,AFNE05.jpg,AFNE17.jpg,FN,3,num_6,32,num_4,1.36671307776,,,2017_Jul_17_1038,59.9986721652,FEMA4ImagesEEG,001,200905,
AFNE01.JPG,AFNE01.JPG,AFNE01.JPG,AFNE01.JPG,AFNE01.JPG,AFNE01.JPG,,,,,,,,,2,1,21,1,,,,,,,,,,,,,,,AFNE07.jpg,AFNE17.jpg,AFSA03.jpg,AFSA07.jpg,AFNE17.jpg,FN,3,num_6,16,num_6,0.633480970008,,,2017_Jul_17_1038,59.9986721652,FEMA4ImagesEEG,001,200905,
AFNE01.JPG,AFNE01.JPG,AFNE01.JPG,AFNE01.JPG,AFNE01.JPG,AFNE01.JPG,,,,,,,,,2,2,22,9,,,,,,,,,,,,,,,AFSA06.jpg,AFNE16.jpg,AFNE17.jpg,AFSA07.jpg,AFNE16.jpg,FN,3,num_6,16,num_6,0.616784522622,,,2017_Jul_17_1038,59.9986721652,FEMA4ImagesEEG,001,200905,
AFNE01.JPG,AFNE01.JPG,AFNE01.JPG,AFNE01.JPG,AFNE01.JPG,AFNE01.JPG,,,,,,,,,2,3,23,4,,,,,,,,,,,,,,,AFNE08.jpg,AFNE15.jpg,AFSA13.jpg,AFSA12.jpg,AFNE15.jpg,FN,3,num_6,16,num_6,0.80013496744,,,2017_Jul_17_1038,59.9986721652,FEMA4ImagesEEG,001,200905,
AFNE01.JPG,AFNE01.JPG,AFNE01.JPG,AFNE01.JPG,AFNE01.JPG,AFNE01.JPG,,,,,,,,,2,4,24,6,,,,,,,,,,,,,,,AFNE13.jpg,AFSA12.jpg,AFSA02.jpg,AFNE20.jpg,AFSA02.jpg,FS,4,num_2,32,num_8,1.06675596071,,,2017_Jul_17_1038,59.9986721652,FEMA4ImagesEEG,001,200905,
AFNE01.JPG,AFNE01.JPG,AFNE01.JPG,AFNE01.JPG,AFNE01.JPG,AFNE01.JPG,,,,,,,,,2,5,25,2,,,,,,,,,,,,,,,AFNE08.jpg,AFNE18.jpg,AFSA15.jpg,AFSA10.jpg,AFSA10.jpg,FS,4,num_4,16,num_4,0.850135785327,,,2017_Jul_17_1038,59.9986721652,FEMA4ImagesEEG,001,200905,
AFNE01.JPG,AFNE01.JPG,AFNE01.JPG,AFNE01.JPG,AFNE01.JPG,AFNE01.JPG,,,,,,,,,2,6,26,5,,,,,,,,,,,,,,,AFNE11.jpg,AFSA02.jpg,AFNE19.jpg,AFSA06.jpg,AFSA06.jpg,FS,4,num_4,32,num_8,1.28343515228,,,2017_Jul_17_1038,59.9986721652,FEMA4ImagesEEG,001,200905,
AFNE01.JPG,AFNE01.JPG,AFNE01.JPG,AFNE01.JPG,AFNE01.JPG,AFNE01.JPG,,,,,,,,,2,7,27,0,,,,,,,,,,,,,,,AFNE18.jpg,AFSA18.jpg,AFNE14.jpg,AFSA11.jpg,AFSA18.jpg,FS,4,num_6,16,num_6,0.73350345389,,,2017_Jul_17_1038,59.9986721652,FEMA4ImagesEEG,001,200905,
AFNE01.JPG,AFNE01.JPG,AFNE01.JPG,AFNE01.JPG,AFNE01.JPG,AFNE01.JPG,,,,,,,,,2,8,28,7,,,,,,,,,,,,,,,AFSA08.jpg,AFSA18.jpg,AFNE13.jpg,AFNE07.jpg,AFSA08.jpg,FS,4,num_8,16,num_8,1.01680646125,,,2017_Jul_17_1038,59.9986721652,FEMA4ImagesEEG,001,200905,
AFNE01.JPG,AFNE01.JPG,AFNE01.JPG,AFNE01.JPG,AFNE01.JPG,AFNE01.JPG,,,,,,,,,2,9,29,3,,,,,,,,,,,,,,,AFSA05.jpg,AFNE20.jpg,AFNE06.jpg,AFSA20.jpg,AFNE06.jpg,FN,3,num_2,16,num_2,0.983315099258,,,2017_Jul_17_1038,59.9986721652,FEMA4ImagesEEG,001,200905,
AFNE01.JPG,AFNE01.JPG,AFNE01.JPG,AFNE01.JPG,AFNE01.JPG,AFNE01.JPG,,,,,,,,,3,0,30,2,,,,,,,,,,,,,,,AFNE19.jpg,AFSA11.jpg,AFNE20.jpg,AFSA12.jpg,AFNE19.jpg,FN,3,num_8,32,num_4,1.26674961006,,,2017_Jul_17_1038,59.9986721652,FEMA4ImagesEEG,001,200905,
AFNE01.JPG,AFNE01.JPG,AFNE01.JPG,AFNE01.JPG,AFNE01.JPG,AFNE01.JPG,,,,,,,,,3,1,31,5,,,,,,,,,,,,,,,AFSA09.jpg,AFNE01.jpg,AFSA02.jpg,AFNE17.jpg,AFSA09.jpg,FS,4,num_8,32,num_2,1.18344859129,,,2017_Jul_17_1038,59.9986721652,FEMA4ImagesEEG,001,200905,
AFNE01.JPG,AFNE01.JPG,AFNE01.JPG,AFNE01.JPG,AFNE01.JPG,AFNE01.JPG,,,,,,,,,3,2,32,4,,,,,,,,,,,,,,,AFNE20.jpg,AFNE09.jpg,AFSA15.jpg,AFSA07.jpg,AFSA07.jpg,FS,4,num_4,32,num_8,1.13345707487,,,2017_Jul_17_1038,59.9986721652,FEMA4ImagesEEG,001,200905,
AFNE01.JPG,AFNE01.JPG,AFNE01.JPG,AFNE01.JPG,AFNE01.JPG,AFNE01.JPG,,,,,,,,,3,3,33,3,,,,,,,,,,,,,,,AFNE09.jpg,AFNE17.jpg,AFSA16.jpg,AFSA12.jpg,AFNE09.jpg,FN,3,num_8,32,num_6,0.883766027785,,,2017_Jul_17_1038,59.9986721652,FEMA4ImagesEEG,001,200905,
AFNE01.JPG,AFNE01.JPG,AFNE01.JPG,AFNE01.JPG,AFNE01.JPG,AFNE01.JPG,,,,,,,,,3,4,34,9,,,,,,,,,,,,,,,AFSA20.jpg,AFNE17.jpg,AFSA10.jpg,AFNE05.jpg,AFNE05.jpg,FN,3,num_4,32,num_8,2.66667949627,,,2017_Jul_17_1038,59.9986721652,FEMA4ImagesEEG,001,200905,
AFNE01.JPG,AFNE01.JPG,AFNE01.JPG,AFNE01.JPG,AFNE01.JPG,AFNE01.JPG,,,,,,,,,3,5,35,7,,,,,,,,,,,,,,,AFNE17.jpg,AFSA18.jpg,AFSA08.jpg,AFNE20.jpg,AFSA08.jpg,FS,4,num_2,16,num_2,0.866793423159,,,2017_Jul_17_1038,59.9986721652,FEMA4ImagesEEG,001,200905,
AFNE01.JPG,AFNE01.JPG,AFNE01.JPG,AFNE01.JPG,AFNE01.JPG,AFNE01.JPG,,,,,,,,,3,6,36,1,,,,,,,,,,,,,,,AFSA17.jpg,AFSA01.jpg,AFNE06.jpg,AFNE16.jpg,AFNE06.jpg,FN,3,num_2,16,num_2,0.716848061238,,,2017_Jul_17_1038,59.9986721652,FEMA4ImagesEEG,001,200905,
AFNE01.JPG,AFNE01.JPG,AFNE01.JPG,AFNE01.JPG,AFNE01.JPG,AFNE01.JPG,,,,,,,,,3,7,37,8,,,,,,,,,,,,,,,AFSA05.jpg,AFNE15.jpg,AFSA20.jpg,AFNE07.jpg,AFSA05.jpg,FS,4,num_8,16,num_8,0.983443395304,,,2017_Jul_17_1038,59.9986721652,FEMA4ImagesEEG,001,200905,
AFNE01.JPG,AFNE01.JPG,AFNE01.JPG,AFNE01.JPG,AFNE01.JPG,AFNE01.JPG,,,,,,,,,3,8,38,6,,,,,,,,,,,,,,,AFNE10.jpg,AFSA18.jpg,AFSA01.jpg,AFNE16.jpg,AFSA01.jpg,FS,4,num_2,32,num_6,0.733481964302,,,2017_Jul_17_1038,59.9986721652,FEMA4ImagesEEG,001,200905,
AFNE01.JPG,AFNE01.JPG,AFNE01.JPG,AFNE01.JPG,AFNE01.JPG,AFNE01.JPG,,,,,,,,,3,9,39,0,,,,,,,,,,,,,,,AFSA18.jpg,AFNE19.jpg,AFNE04.jpg,AFSA07.jpg,AFNE19.jpg,FN,3,num_6,16,num_6,0.500155719325,,,2017_Jul_17_1038,59.9986721652,FEMA4ImagesEEG,001,200905,
AFNE01.JPG,AFNE01.JPG,AFNE01.JPG,AFNE01.JPG,AFNE01.JPG,AFNE01.JPG,,,,,,,,,4,0,40,8,,,,,,,,,,,,,,,AFNE12.jpg,AFSA12.jpg,AFSA06.jpg,AFNE05.jpg,AFNE12.jpg,FN,3,num_8,16,num_8,0.866799517222,,,2017_Jul_17_1038,59.9986721652,FEMA4ImagesEEG,001,200905,
AFNE01.JPG,AFNE01.JPG,AFNE01.JPG,AFNE01.JPG,AFNE01.JPG,AFNE01.JPG,,,,,,,,,4,1,41,5,,,,,,,,,,,,,,,AFNE09.jpg,AFNE17.jpg,AFSA16.jpg,AFSA09.jpg,AFNE17.jpg,FN,3,num_6,32,num_8,1.01678657536,,,2017_Jul_17_1038,59.9986721652,FEMA4ImagesEEG,001,200905,
AFNE01.JPG,AFNE01.JPG,AFNE01.JPG,AFNE01.JPG,AFNE01.JPG,AFNE01.JPG,,,,,,,,,4,2,42,2,,,,,,,,,,,,,,,AFSA07.jpg,AFNE13.jpg,AFNE12.jpg,AFSA09.jpg,AFSA09.jpg,FS,4,num_4,32,num_8,1.13346637633,,,2017_Jul_17_1038,59.9986721652,FEMA4ImagesEEG,001,200905,
AFNE01.JPG,AFNE01.JPG,AFNE01.JPG,AFNE01.JPG,AFNE01.JPG,AFNE01.JPG,,,,,,,,,4,3,43,9,,,,,,,,,,,,,,,AFSA02.jpg,AFSA09.jpg,AFNE08.jpg,AFNE02.jpg,AFNE02.jpg,FN,3,num_4,16,num_4,1.98340843463,,,2017_Jul_17_1038,59.9986721652,FEMA4ImagesEEG,001,200905,
AFNE01.JPG,AFNE01.JPG,AFNE01.JPG,AFNE01.JPG,AFNE01.JPG,AFNE01.JPG,,,,,,,,,4,4,44,7,,,,,,,,,,,,,,,AFSA12.jpg,AFNE02.jpg,AFNE16.jpg,AFSA04.jpg,AFNE02.jpg,FN,3,num_6,32,num_2,1.15016571038,,,2017_Jul_17_1038,59.9986721652,FEMA4ImagesEEG,001,200905,
AFNE01.JPG,AFNE01.JPG,AFNE01.JPG,AFNE01.JPG,AFNE01.JPG,AFNE01.JPG,,,,,,,,,4,5,45,1,,,,,,,,,,,,,,,AFNE19.jpg,AFSA03.jpg,AFSA16.jpg,AFNE14.jpg,AFSA03.jpg,FS,4,num_6,32,num_2,1.30011075156,,,2017_Jul_17_1038,59.9986721652,FEMA4ImagesEEG,001,200905,
AFNE01.JPG,AFNE01.JPG,AFNE01.JPG,AFNE01.JPG,AFNE01.JPG,AFNE01.JPG,,,,,,,,,4,6,46,4,,,,,,,,,,,,,,,AFSA14.jpg,AFSA04.jpg,AFNE02.jpg,AFNE01.jpg,AFSA14.jpg,FS,4,num_8,32,num_6,1.09968666898,,,2017_Jul_17_1038,59.9986721652,FEMA4ImagesEEG,001,200905,
AFNE01.JPG,AFNE01.JPG,AFNE01.JPG,AFNE01.JPG,AFNE01.JPG,AFNE01.JPG,,,,,,,,,4,7,47,6,,,,,,,,,,,,,,,AFNE10.jpg,AFNE12.jpg,AFSA13.jpg,AFSA11.jpg,AFNE10.jpg,FN,3,num_8,16,num_8,0.700149047932,,,2017_Jul_17_1038,59.9986721652,FEMA4ImagesEEG,001,200905,
AFNE01.JPG,AFNE01.JPG,AFNE01.JPG,AFNE01.JPG,AFNE01.JPG,AFNE01.JPG,,,,,,,,,4,8,48,0,,,,,,,,,,,,,,,AFNE13.jpg,AFNE04.jpg,AFSA15.jpg,AFSA11.jpg,AFNE13.jpg,FN,3,num_8,16,num_8,0.916770506278,,,2017_Jul_17_1038,59.9986721652,FEMA4ImagesEEG,001,200905,
AFNE01.JPG,AFNE01.JPG,AFNE01.JPG,AFNE01.JPG,AFNE01.JPG,AFNE01.JPG,,,,,,,,,4,9,49,3,,,,,,,,,,,,,,,AFNE17.jpg,AFSA10.jpg,AFNE16.jpg,AFSA15.jpg,AFNE16.jpg,FN,3,num_2,16,num_2,1.10018509912,,,2017_Jul_17_1038,59.9986721652,FEMA4ImagesEEG,001,200905,
AFNE01.JPG,AFNE01.JPG,AFNE01.JPG,AFNE01.JPG,AFNE01.JPG,AFNE01.JPG,,,,,,,,,5,0,50,6,,,,,,,,,,,,,,,AFSA14.jpg,AFSA01.jpg,AFNE08.jpg,AFNE14.jpg,AFNE08.jpg,FN,3,num_2,16,num_2,0.633515289201,,,2017_Jul_17_1038,59.9986721652,FEMA4ImagesEEG,001,200905,
AFNE01.JPG,AFNE01.JPG,AFNE01.JPG,AFNE01.JPG,AFNE01.JPG,AFNE01.JPG,,,,,,,,,5,1,51,0,,,,,,,,,,,,,,,AFNE13.jpg,AFSA19.jpg,AFSA01.jpg,AFNE06.jpg,AFNE06.jpg,FN,3,num_4,32,num_8,1.11675485416,,,2017_Jul_17_1038,59.9986721652,FEMA4ImagesEEG,001,200905,
AFNE01.JPG,AFNE01.JPG,AFNE01.JPG,AFNE01.JPG,AFNE01.JPG,AFNE01.JPG,,,,,,,,,5,2,52,9,,,,,,,,,,,,,,,AFSA12.jpg,AFNE15.jpg,AFNE10.jpg,AFSA06.jpg,AFNE10.jpg,FN,3,num_2,16,num_2,0.716827213131,,,2017_Jul_17_1038,59.9986721652,FEMA4ImagesEEG,001,200905,
AFNE01.JPG,AFNE01.JPG,AFNE01.JPG,AFNE01.JPG,AFNE01.JPG,AFNE01.JPG,,,,,,,,,5,3,53,5,,,,,,,,,,,,,,,AFSA06.jpg,AFNE14.jpg,AFSA16.jpg,AFNE09.jpg,AFSA06.jpg,FS,4,num_8,32,num_2,2.06669534083,,,2017_Jul_17_1038,59.9986721652,FEMA4ImagesEEG,001,200905,
AFNE01.JPG,AFNE01.JPG,AFNE01.JPG,AFNE01.JPG,AFNE01.JPG,AFNE01.JPG,,,,,,,,,5,4,54,8,,,,,,,,,,,,,,,AFNE02.jpg,AFSA02.jpg,AFNE06.jpg,AFSA18.jpg,AFSA02.jpg,FS,4,num_6,16,num_6,1.28344124634,,,2017_Jul_17_1038,59.9986721652,FEMA4ImagesEEG,001,200905,
AFNE01.JPG,AFNE01.JPG,AFNE01.JPG,AFNE01.JPG,AFNE01.JPG,AFNE01.JPG,,,,,,,,,5,5,55,2,,,,,,,,,,,,,,,AFNE19.jpg,AFSA20.jpg,AFSA03.jpg,AFNE07.jpg,AFNE07.jpg,FN,3,num_4,16,num_4,0.73330940612,,,2017_Jul_17_1038,59.9986721652,FEMA4ImagesEEG,001,200905,
AFNE01.JPG,AFNE01.JPG,AFNE01.JPG,AFNE01.JPG,AFNE01.JPG,AFNE01.JPG,,,,,,,,,5,6,56,7,,,,,,,,,,,,,,,AFNE11.jpg,AFNE01.jpg,AFSA16.jpg,AFSA15.jpg,AFSA15.jpg,FS,4,num_4,16,num_4,0.650139570061,,,2017_Jul_17_1038,59.9986721652,FEMA4ImagesEEG,001,200905,
AFNE01.JPG,AFNE01.JPG,AFNE01.JPG,AFNE01.JPG,AFNE01.JPG,AFNE01.JPG,,,,,,,,,5,7,57,1,,,,,,,,,,,,,,,AFNE04.jpg,AFSA15.jpg,AFNE07.jpg,AFSA05.jpg,AFNE07.jpg,FN,3,num_2,32,num_8,1.91640742847,,,2017_Jul_17_1038,59.9986721652,FEMA4ImagesEEG,001,200905,
AFNE01.JPG,AFNE01.JPG,AFNE01.JPG,AFNE01.JPG,AFNE01.JPG,AFNE01.JPG,,,,,,,,,5,8,58,4,,,,,,,,,,,,,,,AFSA09.jpg,AFSA04.jpg,AFNE15.jpg,AFNE01.jpg,AFSA09.jpg,FS,4,num_8,32,num_6,0.700128520563,,,2017_Jul_17_1038,59.9986721652,FEMA4ImagesEEG,001,200905,
AFNE01.JPG,AFNE01.JPG,AFNE01.JPG,AFNE01.JPG,AFNE01.JPG,AFNE01.JPG,,,,,,,,,5,9,59,3,,,,,,,,,,,,,,,AFNE19.jpg,AFSA17.jpg,AFSA01.jpg,AFNE12.jpg,AFNE12.jpg,FN,3,num_4,32,num_8,0.800142985943,,,2017_Jul_17_1038,59.9986721652,FEMA4ImagesEEG,001,200905,
,,,,,,,,,,,,,,,,,,,,,,,,,,,,,,,,,,,,,,,,,,,space,35.9310777606,2017_Jul_17_1038,59.9986721652,FEMA4ImagesEEG,001,200905,
AFNE01.JPG,AFNE01.JPG,AFNE01.JPG,AFNE01.JPG,AFNE01.JPG,AFNE01.JPG,,,,,,,,,,,,,0,0,0,4,,,,,,,,,,,AMNE01.jpg,AMSA19.jpg,AMSA11.jpg,AMNE20.jpg,AMSA19.jpg,MS,2,num_6,32,num_8,0.900134999514,,,2017_Jul_17_1038,59.9986721652,FEMA4ImagesEEG,001,200905,
AFNE01.JPG,AFNE01.JPG,AFNE01.JPG,AFNE01.JPG,AFNE01.JPG,AFNE01.JPG,,,,,,,,,,,,,0,1,1,0,,,,,,,,,,,AMNE14.jpg,AMNE05.jpg,AMSA14.jpg,AMSA09.jpg,AMSA09.jpg,MS,2,num_4,16,num_4,0.70014680275,,,2017_Jul_17_1038,59.9986721652,FEMA4ImagesEEG,001,200905,
AFNE01.JPG,AFNE01.JPG,AFNE01.JPG,AFNE01.JPG,AFNE01.JPG,AFNE01.JPG,,,,,,,,,,,,,0,2,2,2,,,,,,,,,,,AMNE11.jpg,AMNE15.jpg,AMSA09.jpg,AMSA11.jpg,AMNE15.jpg,MN,1,num_6,16,num_6,0.883450419512,,,2017_Jul_17_1038,59.9986721652,FEMA4ImagesEEG,001,200905,
AFNE01.JPG,AFNE01.JPG,AFNE01.JPG,AFNE01.JPG,AFNE01.JPG,AFNE01.JPG,,,,,,,,,,,,,0,3,3,6,,,,,,,,,,,AMNE10.jpg,AMNE16.jpg,AMSA02.jpg,AMSA19.jpg,AMSA02.jpg,MS,2,num_2,16,num_2,0.616868877272,,,2017_Jul_17_1038,59.9986721652,FEMA4ImagesEEG,001,200905,
AFNE01.JPG,AFNE01.JPG,AFNE01.JPG,AFNE01.JPG,AFNE01.JPG,AFNE01.JPG,,,,,,,,,,,,,0,4,4,7,,,,,,,,,,,AMSA01.jpg,AMNE11.jpg,AMNE13.jpg,AMSA08.jpg,AMSA01.jpg,MS,2,num_8,16,num_8,0.850138992729,,,2017_Jul_17_1038,59.9986721652,FEMA4ImagesEEG,001,200905,
AFNE01.JPG,AFNE01.JPG,AFNE01.JPG,AFNE01.JPG,AFNE01.JPG,AFNE01.JPG,,,,,,,,,,,,,0,5,5,9,,,,,,,,,,,AMNE04.jpg,AMSA19.jpg,AMNE14.jpg,AMSA20.jpg,AMNE04.jpg,MN,1,num_8,16,num_8,1.11678628669,,,2017_Jul_17_1038,59.9986721652,FEMA4ImagesEEG,001,200905,
AFNE01.JPG,AFNE01.JPG,AFNE01.JPG,AFNE01.JPG,AFNE01.JPG,AFNE01.JPG,,,,,,,,,,,,,0,6,6,5,,,,,,,,,,,AMSA20.jpg,AMNE05.jpg,AMNE01.jpg,AMSA05.jpg,AMSA20.jpg,MS,2,num_8,16,num_8,0.650144701903,,,2017_Jul_17_1038,59.9986721652,FEMA4ImagesEEG,001,200905,
AFNE01.JPG,AFNE01.JPG,AFNE01.JPG,AFNE01.JPG,AFNE01.JPG,AFNE01.JPG,,,,,,,,,,,,,0,7,7,8,,,,,,,,,,,AMSA15.jpg,AMSA03.jpg,AMNE05.jpg,AMNE01.jpg,AMNE01.jpg,MN,1,num_4,16,num_4,0.567609931269,,,2017_Jul_17_1038,59.9986721652,FEMA4ImagesEEG,001,200905,
AFNE01.JPG,AFNE01.JPG,AFNE01.JPG,AFNE01.JPG,AFNE01.JPG,AFNE01.JPG,,,,,,,,,,,,,0,8,8,3,,,,,,,,,,,AMNE01.jpg,AMNE08.jpg,AMSA20.jpg,AMSA09.jpg,AMSA09.jpg,MS,2,num_4,32,num_2,1.03343843987,,,2017_Jul_17_1038,59.9986721652,FEMA4ImagesEEG,001,200905,
AFNE01.JPG,AFNE01.JPG,AFNE01.JPG,AFNE01.JPG,AFNE01.JPG,AFNE01.JPG,,,,,,,,,,,,,0,9,9,1,,,,,,,,,,,AMSA02.jpg,AMNE13.jpg,AMSA04.jpg,AMNE05.jpg,AMSA02.jpg,MS,2,num_8,16,num_8,0.700136218326,,,2017_Jul_17_1038,59.9986721652,FEMA4ImagesEEG,001,200905,
AFNE01.JPG,AFNE01.JPG,AFNE01.JPG,AFNE01.JPG,AFNE01.JPG,AFNE01.JPG,,,,,,,,,,,,,1,0,10,6,,,,,,,,,,,AMNE02.jpg,AMNE19.jpg,AMSA02.jpg,AMSA03.jpg,AMSA02.jpg,MS,2,num_2,32,num_4,0.866804328324,,,2017_Jul_17_1038,59.9986721652,FEMA4ImagesEEG,001,200905,
AFNE01.JPG,AFNE01.JPG,AFNE01.JPG,AFNE01.JPG,AFNE01.JPG,AFNE01.JPG,,,,,,,,,,,,,1,1,11,9,,,,,,,,,,,AMSA19.jpg,AMNE02.jpg,AMSA05.jpg,AMNE08.jpg,AMNE02.jpg,MN,1,num_6,32,num_8,1.81668644029,,,2017_Jul_17_1038,59.9986721652,FEMA4ImagesEEG,001,200905,
AFNE01.JPG,AFNE01.JPG,AFNE01.JPG,AFNE01.JPG,AFNE01.JPG,AFNE01.JPG,,,,,,,,,,,,,1,2,12,7,,,,,,,,,,,AMNE11.jpg,AMSA12.jpg,AMSA09.jpg,AMNE16.jpg,AMNE11.jpg,MN,1,num_8,16,num_8,0.783478933308,,,2017_Jul_17_1038,59.9986721652,FEMA4ImagesEEG,001,200905,
AFNE01.JPG,AFNE01.JPG,AFNE01.JPG,AFNE01.JPG,AFNE01.JPG,AFNE01.JPG,,,,,,,,,,,,,1,3,13,2,,,,,,,,,,,AMSA11.jpg,AMNE01.jpg,AMSA07.jpg,AMNE10.jpg,AMSA07.jpg,MS,2,num_2,32,num_4,1.76692489453,,,2017_Jul_17_1038,59.9986721652,FEMA4ImagesEEG,001,200905,
AFNE01.JPG,AFNE01.JPG,AFNE01.JPG,AFNE01.JPG,AFNE01.JPG,AFNE01.JPG,,,,,,,,,,,,,1,4,14,8,,,,,,,,,,,AMNE16.jpg,AMSA19.jpg,AMSA18.jpg,AMNE12.jpg,AMSA18.jpg,MS,2,num_2,16,num_2,1.05010666212,,,2017_Jul_17_1038,59.9986721652,FEMA4ImagesEEG,001,200905,
AFNE01.JPG,AFNE01.JPG,AFNE01.JPG,AFNE01.JPG,AFNE01.JPG,AFNE01.JPG,,,,,,,,,,,,,1,5,15,4,,,,,,,,,,,AMNE07.jpg,AMNE19.jpg,AMSA18.jpg,AMSA16.jpg,AMSA16.jpg,MS,2,num_4,32,num_8,0.650141815241,,,2017_Jul_17_1038,59.9986721652,FEMA4ImagesEEG,001,200905,
AFNE01.JPG,AFNE01.JPG,AFNE01.JPG,AFNE01.JPG,AFNE01.JPG,AFNE01.JPG,,,,,,,,,,,,,1,6,16,5,,,,,,,,,,,AMNE13.jpg,AMSA19.jpg,AMSA03.jpg,AMNE11.jpg,AMNE13.jpg,MN,1,num_8,16,num_8,1.03344293023,,,2017_Jul_17_1038,59.9986721652,FEMA4ImagesEEG,001,200905,
AFNE01.JPG,AFNE01.JPG,AFNE01.JPG,AFNE01.JPG,AFNE01.JPG,AFNE01.JPG,,,,,,,,,,,,,1,7,17,1,,,,,,,,,,,AMSA05.jpg,AMNE15.jpg,AMNE03.jpg,AMSA16.jpg,AMNE15.jpg,MN,1,num_6,16,num_6,1.26674961006,,,2017_Jul_17_1038,59.9986721652,FEMA4ImagesEEG,001,200905,
AFNE01.JPG,AFNE01.JPG,AFNE01.JPG,AFNE01.JPG,AFNE01.JPG,AFNE01.JPG,,,,,,,,,,,,,1,8,18,0,,,,,,,,,,,AMSA15.jpg,AMNE07.jpg,AMNE12.jpg,AMSA20.jpg,AMSA20.jpg,MS,2,num_4,32,num_6,0.98348861966,,,2017_Jul_17_1038,59.9986721652,FEMA4ImagesEEG,001,200905,
AFNE01.JPG,AFNE01.JPG,AFNE01.JPG,AFNE01.JPG,AFNE01.JPG,AFNE01.JPG,,,,,,,,,,,,,1,9,19,3,,,,,,,,,,,AMNE09.jpg,AMSA15.jpg,AMNE15.jpg,AMSA11.jpg,AMNE09.jpg,MN,1,num_8,16,num_8,0.850172991181,,,2017_Jul_17_1038,59.9986721652,FEMA4ImagesEEG,001,200905,
AFNE01.JPG,AFNE01.JPG,AFNE01.JPG,AFNE01.JPG,AFNE01.JPG,AFNE01.JPG,,,,,,,,,,,,,2,0,20,4,,,,,,,,,,,AMNE20.jpg,AMSA08.jpg,AMNE09.jpg,AMSA14.jpg,AMSA08.jpg,MS,2,num_6,16,num_6,1.30005847092,,,2017_Jul_17_1038,59.9986721652,FEMA4ImagesEEG,001,200905,
AFNE01.JPG,AFNE01.JPG,AFNE01.JPG,AFNE01.JPG,AFNE01.JPG,AFNE01.JPG,,,,,,,,,,,,,2,1,21,0,,,,,,,,,,,AMNE04.jpg,AMSA17.jpg,AMSA02.jpg,AMNE13.jpg,AMSA02.jpg,MS,2,num_2,16,num_2,0.533515257126,,,2017_Jul_17_1038,59.9986721652,FEMA4ImagesEEG,001,200905,
AFNE01.JPG,AFNE01.JPG,AFNE01.JPG,AFNE01.JPG,AFNE01.JPG,AFNE01.JPG,,,,,,,,,,,,,2,2,22,8,,,,,,,,,,,AMNE06.jpg,AMSA16.jpg,AMNE16.jpg,AMSA05.jpg,AMSA16.jpg,MS,2,num_6,32,num_8,0.66678854791,,,2017_Jul_17_1038,59.9986721652,FEMA4ImagesEEG,001,200905,
AFNE01.JPG,AFNE01.JPG,AFNE01.JPG,AFNE01.JPG,AFNE01.JPG,AFNE01.JPG,,,,,,,,,,,,,2,3,23,9,,,,,,,,,,,AMSA09.jpg,AMSA07.jpg,AMNE20.jpg,AMNE09.jpg,AMNE20.jpg,MN,1,num_2,16,num_2,1.2834216812,,,2017_Jul_17_1038,59.9986721652,FEMA4ImagesEEG,001,200905,
AFNE01.JPG,AFNE01.JPG,AFNE01.JPG,AFNE01.JPG,AFNE01.JPG,AFNE01.JPG,,,,,,,,,,,,,2,4,24,2,,,,,,,,,,,AMSA07.jpg,AMNE08.jpg,AMNE15.jpg,AMSA05.jpg,AMSA05.jpg,MS,2,num_4,32,num_8,1.20014086906,,,2017_Jul_17_1038,59.9986721652,FEMA4ImagesEEG,001,200905,
AFNE01.JPG,AFNE01.JPG,AFNE01.JPG,AFNE01.JPG,AFNE01.JPG,AFNE01.JPG,,,,,,,,,,,,,2,5,25,5,,,,,,,,,,,AMNE11.jpg,AMSA01.jpg,AMSA17.jpg,AMNE12.jpg,AMNE11.jpg,MN,1,num_8,32,num_4,3.00009333537,,,2017_Jul_17_1038,59.9986721652,FEMA4ImagesEEG,001,200905,
AFNE01.JPG,AFNE01.JPG,AFNE01.JPG,AFNE01.JPG,AFNE01.JPG,AFNE01.JPG,,,,,,,,,,,,,2,6,26,3,,,,,,,,,,,AMSA13.jpg,AMNE12.jpg,AMSA18.jpg,AMNE07.jpg,AMNE07.jpg,MN,1,num_4,32,num_6,0.750145696197,,,2017_Jul_17_1038,59.9986721652,FEMA4ImagesEEG,001,200905,
AFNE01.JPG,AFNE01.JPG,AFNE01.JPG,AFNE01.JPG,AFNE01.JPG,AFNE01.JPG,,,,,,,,,,,,,2,7,27,1,,,,,,,,,,,AMSA02.jpg,AMSA19.jpg,AMNE16.jpg,AMNE15.jpg,AMSA02.jpg,MS,2,num_8,16,num_8,0.983452696767,,,2017_Jul_17_1038,59.9986721652,FEMA4ImagesEEG,001,200905,
AFNE01.JPG,AFNE01.JPG,AFNE01.JPG,AFNE01.JPG,AFNE01.JPG,AFNE01.JPG,,,,,,,,,,,,,2,8,28,7,,,,,,,,,,,AMSA20.jpg,AMSA15.jpg,AMNE13.jpg,AMNE20.jpg,AMNE13.jpg,MN,1,num_2,32,num_4,1.11677890967,,,2017_Jul_17_1038,59.9986721652,FEMA4ImagesEEG,001,200905,
AFNE01.JPG,AFNE01.JPG,AFNE01.JPG,AFNE01.JPG,AFNE01.JPG,AFNE01.JPG,,,,,,,,,,,,,2,9,29,6,,,,,,,,,,,AMSA07.jpg,AMNE15.jpg,AMNE01.jpg,AMSA13.jpg,AMSA13.jpg,MS,2,num_4,32,num_6,1.0834556155,,,2017_Jul_17_1038,59.9986721652,FEMA4ImagesEEG,001,200905,
AFNE01.JPG,AFNE01.JPG,AFNE01.JPG,AFNE01.JPG,AFNE01.JPG,AFNE01.JPG,,,,,,,,,,,,,3,0,30,8,,,,,,,,,,,AMSA10.jpg,AMNE04.jpg,AMSA05.jpg,AMNE10.jpg,AMNE04.jpg,MN,1,num_6,16,num_6,0.566822514288,,,2017_Jul_17_1038,59.9986721652,FEMA4ImagesEEG,001,200905,
AFNE01.JPG,AFNE01.JPG,AFNE01.JPG,AFNE01.JPG,AFNE01.JPG,AFNE01.JPG,,,,,,,,,,,,,3,1,31,4,,,,,,,,,,,AMNE15.jpg,AMSA12.jpg,AMSA01.jpg,AMNE13.jpg,AMNE15.jpg,MN,1,num_8,32,num_4,0.566657333129,,,2017_Jul_17_1038,59.9986721652,FEMA4ImagesEEG,001,200905,
AFNE01.JPG,AFNE01.JPG,AFNE01.JPG,AFNE01.JPG,AFNE01.JPG,AFNE01.JPG,,,,,,,,,,,,,3,2,32,2,,,,,,,,,,,AMNE07.jpg,AMNE18.jpg,AMSA12.jpg,AMSA07.jpg,AMNE07.jpg,MN,1,num_8,16,num_8,0.66681613156,,,2017_Jul_17_1038,59.9986721652,FEMA4ImagesEEG,001,200905,
AFNE01.JPG,AFNE01.JPG,AFNE01.JPG,AFNE01.JPG,AFNE01.JPG,AFNE01.JPG,,,,,,,,,,,,,3,3,33,9,,,,,,,,,,,AMSA05.jpg,AMNE02.jpg,AMNE19.jpg,AMSA14.jpg,AMSA05.jpg,MS,2,num_8,32,num_2,1.38343807102,,,2017_Jul_17_1038,59.9986721652,FEMA4ImagesEEG,001,200905,
AFNE01.JPG,AFNE01.JPG,AFNE01.JPG,AFNE01.JPG,AFNE01.JPG,AFNE01.JPG,,,,,,,,,,,,,3,4,34,5,,,,,,,,,,,AMSA04.jpg,AMNE11.jpg,AMNE15.jpg,AMSA08.jpg,AMNE15.jpg,MN,1,num_2,16,num_2,1.90006187077,,,2017_Jul_17_1038,59.9986721652,FEMA4ImagesEEG,001,200905,
AFNE01.JPG,AFNE01.JPG,AFNE01.JPG,AFNE01.JPG,AFNE01.JPG,AFNE01.JPG,,,,,,,,,,,,,3,5,35,7,,,,,,,,,,,AMSA18.jpg,AMNE04.jpg,AMSA02.jpg,AMNE15.jpg,AMNE15.jpg,MN,1,num_4,16,num_4,0.933460859603,,,2017_Jul_17_1038,59.9986721652,FEMA4ImagesEEG,001,200905,
AFNE01.JPG,AFNE01.JPG,AFNE01.JPG,AFNE01.JPG,AFNE01.JPG,AFNE01.JPG,,,,,,,,,,,,,3,6,36,6,,,,,,,,,,,AMSA17.jpg,AMNE03.jpg,AMNE02.jpg,AMSA09.jpg,AMSA17.jpg,MS,2,num_8,16,num_8,1.56680391136,,,2017_Jul_17_1038,59.9986721652,FEMA4ImagesEEG,001,200905,
AFNE01.JPG,AFNE01.JPG,AFNE01.JPG,AFNE01.JPG,AFNE01.JPG,AFNE01.JPG,,,,,,,,,,,,,3,7,37,3,,,,,,,,,,,AMNE02.jpg,AMNE01.jpg,AMSA05.jpg,AMSA04.jpg,AMSA05.jpg,MS,2,num_2,16,num_2,0.783488555511,,,2017_Jul_17_1038,59.9986721652,FEMA4ImagesEEG,001,200905,
AFNE01.JPG,AFNE01.JPG,AFNE01.JPG,AFNE01.JPG,AFNE01.JPG,AFNE01.JPG,,,,,,,,,,,,,3,8,38,1,,,,,,,,,,,AMSA08.jpg,AMNE04.jpg,AMNE19.jpg,AMSA16.jpg,AMSA08.jpg,MS,2,num_8,32,num_6,0.88347222984,,,2017_Jul_17_1038,59.9986721652,FEMA4ImagesEEG,001,200905,
AFNE01.JPG,AFNE01.JPG,AFNE01.JPG,AFNE01.JPG,AFNE01.JPG,AFNE01.JPG,,,,,,,,,,,,,3,9,39,0,,,,,,,,,,,AMNE08.jpg,AMNE12.jpg,AMSA12.jpg,AMSA20.jpg,AMNE08.jpg,MN,1,num_8,16,num_8,1.30010850638,,,2017_Jul_17_1038,59.9986721652,FEMA4ImagesEEG,001,200905,
AFNE01.JPG,AFNE01.JPG,AFNE01.JPG,AFNE01.JPG,AFNE01.JPG,AFNE01.JPG,,,,,,,,,,,,,4,0,40,7,,,,,,,,,,,AMNE14.jpg,AMSA01.jpg,AMSA15.jpg,AMNE10.jpg,AMSA01.jpg,MS,2,num_6,16,num_6,1.05001813785,,,2017_Jul_17_1038,59.9986721652,FEMA4ImagesEEG,001,200905,
AFNE01.JPG,AFNE01.JPG,AFNE01.JPG,AFNE01.JPG,AFNE01.JPG,AFNE01.JPG,,,,,,,,,,,,,4,1,41,8,,,,,,,,,,,AMSA06.jpg,AMNE05.jpg,AMSA02.jpg,AMNE16.jpg,AMSA02.jpg,MS,2,num_2,16,num_2,1.0167836887,,,2017_Jul_17_1038,59.9986721652,FEMA4ImagesEEG,001,200905,
AFNE01.JPG,AFNE01.JPG,AFNE01.JPG,AFNE01.JPG,AFNE01.JPG,AFNE01.JPG,,,,,,,,,,,,,4,2,42,5,,,,,,,,,,,AMNE14.jpg,AMSA16.jpg,AMNE20.jpg,AMSA14.jpg,AMNE14.jpg,MN,1,num_8,16,num_8,1.91668935903,,,2017_Jul_17_1038,59.9986721652,FEMA4ImagesEEG,001,200905,
AFNE01.JPG,AFNE01.JPG,AFNE01.JPG,AFNE01.JPG,AFNE01.JPG,AFNE01.JPG,,,,,,,,,,,,,4,3,43,9,,,,,,,,,,,AMSA06.jpg,AMSA08.jpg,AMNE13.jpg,AMNE04.jpg,AMSA08.jpg,MS,2,num_6,16,num_6,0.550151084631,,,2017_Jul_17_1038,59.9986721652,FEMA4ImagesEEG,001,200905,
AFNE01.JPG,AFNE01.JPG,AFNE01.JPG,AFNE01.JPG,AFNE01.JPG,AFNE01.JPG,,,,,,,,,,,,,4,4,44,3,,,,,,,,,,,AMNE14.jpg,AMNE12.jpg,AMSA13.jpg,AMSA15.jpg,AMNE12.jpg,MN,1,num_6,32,num_8,1.46673588238,,,2017_Jul_17_1038,59.9986721652,FEMA4ImagesEEG,001,200905,
AFNE01.JPG,AFNE01.JPG,AFNE01.JPG,AFNE01.JPG,AFNE01.JPG,AFNE01.JPG,,,,,,,,,,,,,4,5,45,4,,,,,,,,,,,AMSA07.jpg,AMNE20.jpg,AMSA13.jpg,AMNE06.jpg,AMSA13.jpg,MS,2,num_2,16,num_2,1.01673269102,,,2017_Jul_17_1038,59.9986721652,FEMA4ImagesEEG,001,200905,
AFNE01.JPG,AFNE01.JPG,AFNE01.JPG,AFNE01.JPG,AFNE01.JPG,AFNE01.JPG,,,,,,,,,,,,,4,6,46,2,,,,,,,,,,,AMSA08.jpg,AMNE13.jpg,AMNE16.jpg,AMSA20.jpg,AMSA20.jpg,MS,2,num_4,32,num_2,0.800188851779,,,2017_Jul_17_1038,59.9986721652,FEMA4ImagesEEG,001,200905,
AFNE01.JPG,AFNE01.JPG,AFNE01.JPG,AFNE01.JPG,AFNE01.JPG,AFNE01.JPG,,,,,,,,,,,,,4,7,47,0,,,,,,,,,,,AMNE18.jpg,AMSA14.jpg,AMNE13.jpg,AMSA16.jpg,AMNE13.jpg,MN,1,num_2,32,num_8,1.53344565652,,,2017_Jul_17_1038,59.9986721652,FEMA4ImagesEEG,001,200905,
AFNE01.JPG,AFNE01.JPG,AFNE01.JPG,AFNE01.JPG,AFNE01.JPG,AFNE01.JPG,,,,,,,,,,,,,4,8,48,1,,,,,,,,,,,AMNE15.jpg,AMSA13.jpg,AMNE07.jpg,AMSA05.jpg,AMNE07.jpg,MN,1,num_2,32,num_8,0.966765230104,,,2017_Jul_17_1038,59.9986721652,FEMA4ImagesEEG,001,200905,
AFNE01.JPG,AFNE01.JPG,AFNE01.JPG,AFNE01.JPG,AFNE01.JPG,AFNE01.JPG,,,,,,,,,,,,,4,9,49,6,,,,,,,,,,,AMSA20.jpg,AMSA06.jpg,AMNE07.jpg,AMNE14.jpg,AMSA20.jpg,MS,2,num_8,16,num_8,0.61678067374,,,2017_Jul_17_1038,59.9986721652,FEMA4ImagesEEG,001,200905,
AFNE01.JPG,AFNE01.JPG,AFNE01.JPG,AFNE01.JPG,AFNE01.JPG,AFNE01.JPG,,,,,,,,,,,,,5,0,50,4,,,,,,,,,,,AMSA04.jpg,AMNE11.jpg,AMNE02.jpg,AMSA20.jpg,AMSA04.jpg,MS,2,num_8,32,num_6,2.06666839866,,,2017_Jul_17_1038,59.9986721652,FEMA4ImagesEEG,001,200905,
AFNE01.JPG,AFNE01.JPG,AFNE01.JPG,AFNE01.JPG,AFNE01.JPG,AFNE01.JPG,,,,,,,,,,,,,5,1,51,9,,,,,,,,,,,AMSA16.jpg,AMSA04.jpg,AMNE17.jpg,AMNE09.jpg,AMNE09.jpg,MN,1,num_4,16,num_4,0.733489982805,,,2017_Jul_17_1038,59.9986721652,FEMA4ImagesEEG,001,200905,
AFNE01.JPG,AFNE01.JPG,AFNE01.JPG,AFNE01.JPG,AFNE01.JPG,AFNE01.JPG,,,,,,,,,,,,,5,2,52,0,,,,,,,,,,,AMSA01.jpg,AMNE18.jpg,AMSA18.jpg,AMNE02.jpg,AMNE18.jpg,MN,1,num_6,16,num_6,0.9667556079,,,2017_Jul_17_1038,59.9986721652,FEMA4ImagesEEG,001,200905,
AFNE01.JPG,AFNE01.JPG,AFNE01.JPG,AFNE01.JPG,AFNE01.JPG,AFNE01.JPG,,,,,,,,,,,,,5,3,53,5,,,,,,,,,,,AMNE03.jpg,AMSA02.jpg,AMSA17.jpg,AMNE01.jpg,AMSA17.jpg,MS,2,num_2,16,num_2,2.48335727658,,,2017_Jul_17_1038,59.9986721652,FEMA4ImagesEEG,001,200905,
AFNE01.JPG,AFNE01.JPG,AFNE01.JPG,AFNE01.JPG,AFNE01.JPG,AFNE01.JPG,,,,,,,,,,,,,5,4,54,6,,,,,,,,,,,AMSA18.jpg,AMNE04.jpg,AMNE16.jpg,AMSA04.jpg,AMSA18.jpg,MS,2,num_8,32,num_4,0.700163801976,,,2017_Jul_17_1038,59.9986721652,FEMA4ImagesEEG,001,200905,
AFNE01.JPG,AFNE01.JPG,AFNE01.JPG,AFNE01.JPG,AFNE01.JPG,AFNE01.JPG,,,,,,,,,,,,,5,5,55,7,,,,,,,,,,,AMSA03.jpg,AMSA10.jpg,AMNE03.jpg,AMNE20.jpg,AMNE03.jpg,MN,1,num_2,32,num_6,1.8334261876,,,2017_Jul_17_1038,59.9986721652,FEMA4ImagesEEG,001,200905,
AFNE01.JPG,AFNE01.JPG,AFNE01.JPG,AFNE01.JPG,AFNE01.JPG,AFNE01.JPG,,,,,,,,,,,,,5,6,56,3,,,,,,,,,,,AMSA08.jpg,AMNE12.jpg,AMSA14.jpg,AMNE17.jpg,AMNE12.jpg,MN,1,num_6,16,num_6,0.833499637083,,,2017_Jul_17_1038,59.9986721652,FEMA4ImagesEEG,001,200905,
AFNE01.JPG,AFNE01.JPG,AFNE01.JPG,AFNE01.JPG,AFNE01.JPG,AFNE01.JPG,,,,,,,,,,,,,5,7,57,8,,,,,,,,,,,AMSA01.jpg,AMNE04.jpg,AMNE15.jpg,AMSA04.jpg,AMSA04.jpg,MS,2,num_4,16,num_4,0.833487769698,,,2017_Jul_17_1038,59.9986721652,FEMA4ImagesEEG,001,200905,
AFNE01.JPG,AFNE01.JPG,AFNE01.JPG,AFNE01.JPG,AFNE01.JPG,AFNE01.JPG,,,,,,,,,,,,,5,8,58,1,,,,,,,,,,,AMSA14.jpg,AMNE16.jpg,AMSA01.jpg,AMNE03.jpg,AMNE03.jpg,MN,1,num_4,16,num_4,1.21674462255,,,2017_Jul_17_1038,59.9986721652,FEMA4ImagesEEG,001,200905,
AFNE01.JPG,AFNE01.JPG,AFNE01.JPG,AFNE01.JPG,AFNE01.JPG,AFNE01.JPG,,,,,,,,,,,,,5,9,59,2,,,,,,,,,,,AMSA11.jpg,AMNE08.jpg,AMNE20.jpg,AMSA07.jpg,AMNE08.jpg,MN,1,num_6,16,num_6,3.06659494918,,,2017_Jul_17_1038,59.9986721652,FEMA4ImagesEEG,001,200905,
,,,,,,,,,,,,,,,,,,,,,,,,,,,,,,,,,,,,,,,,,,,space,38.8302842174,2017_Jul_17_1038,59.9986721652,FEMA4ImagesEEG,001,200905,
AFNE01.JPG,AFNE01.JPG,AFNE01.JPG,AFNE01.JPG,AFNE01.JPG,AFNE01.JPG,,,,,,,,,,,,,,,,,0,0,0,2,,,,,,,AFSA12.jpg,AFSA10.jpg,AFNE02.jpg,AFNE14.jpg,AFSA10.jpg,FS,4,num_6,16,num_6,0.76680333403,,,2017_Jul_17_1038,59.9986721652,FEMA4ImagesEEG,001,200905,
AFNE01.JPG,AFNE01.JPG,AFNE01.JPG,AFNE01.JPG,AFNE01.JPG,AFNE01.JPG,,,,,,,,,,,,,,,,,0,1,1,4,,,,,,,AFNE08.jpg,AFSA10.jpg,AFSA06.jpg,AFNE03.jpg,AFNE03.jpg,FN,3,num_4,16,num_4,0.650158493728,,,2017_Jul_17_1038,59.9986721652,FEMA4ImagesEEG,001,200905,
AFNE01.JPG,AFNE01.JPG,AFNE01.JPG,AFNE01.JPG,AFNE01.JPG,AFNE01.JPG,,,,,,,,,,,,,,,,,0,2,2,0,,,,,,,AFSA13.jpg,AFNE20.jpg,AFNE19.jpg,AFSA17.jpg,AFSA13.jpg,FS,4,num_8,32,num_4,1.7667103194,,,2017_Jul_17_1038,59.9986721652,FEMA4ImagesEEG,001,200905,
AFNE01.JPG,AFNE01.JPG,AFNE01.JPG,AFNE01.JPG,AFNE01.JPG,AFNE01.JPG,,,,,,,,,,,,,,,,,0,3,3,5,,,,,,,AFNE06.jpg,AFSA03.jpg,AFSA14.jpg,AFNE12.jpg,AFSA14.jpg,FS,4,num_2,32,num_8,1.35003651626,,,2017_Jul_17_1038,59.9986721652,FEMA4ImagesEEG,001,200905,
AFNE01.JPG,AFNE01.JPG,AFNE01.JPG,AFNE01.JPG,AFNE01.JPG,AFNE01.JPG,,,,,,,,,,,,,,,,,0,4,4,9,,,,,,,AFSA05.jpg,AFNE01.jpg,AFNE20.jpg,AFSA19.jpg,AFSA05.jpg,FS,4,num_8,32,num_6,0.883493719427,,,2017_Jul_17_1038,59.9986721652,FEMA4ImagesEEG,001,200905,
AFNE01.JPG,AFNE01.JPG,AFNE01.JPG,AFNE01.JPG,AFNE01.JPG,AFNE01.JPG,,,,,,,,,,,,,,,,,0,5,5,6,,,,,,,AFNE11.jpg,AFSA09.jpg,AFNE13.jpg,AFSA15.jpg,AFSA15.jpg,FS,4,num_4,16,num_4,1.25010897145,,,2017_Jul_17_1038,59.9986721652,FEMA4ImagesEEG,001,200905,
AFNE01.JPG,AFNE01.JPG,AFNE01.JPG,AFNE01.JPG,AFNE01.JPG,AFNE01.JPG,,,,,,,,,,,,,,,,,0,6,6,7,,,,,,,AFSA11.jpg,AFSA20.jpg,AFNE02.jpg,AFNE17.jpg,AFNE17.jpg,FN,3,num_4,32,num_8,1.41674532818,,,2017_Jul_17_1038,59.9986721652,FEMA4ImagesEEG,001,200905,
AFNE01.JPG,AFNE01.JPG,AFNE01.JPG,AFNE01.JPG,AFNE01.JPG,AFNE01.JPG,,,,,,,,,,,,,,,,,0,7,7,1,,,,,,,AFNE14.jpg,AFSA18.jpg,AFSA11.jpg,AFNE15.jpg,AFNE14.jpg,FN,3,num_8,16,num_8,1.26651579052,,,2017_Jul_17_1038,59.9986721652,FEMA4ImagesEEG,001,200905,
AFNE01.JPG,AFNE01.JPG,AFNE01.JPG,AFNE01.JPG,AFNE01.JPG,AFNE01.JPG,,,,,,,,,,,,,,,,,0,8,8,8,,,,,,,AFSA11.jpg,AFNE01.jpg,AFSA15.jpg,AFNE10.jpg,AFNE01.jpg,FN,3,num_6,16,num_6,0.900174129808,,,2017_Jul_17_1038,59.9986721652,FEMA4ImagesEEG,001,200905,
AFNE01.JPG,AFNE01.JPG,AFNE01.JPG,AFNE01.JPG,AFNE01.JPG,AFNE01.JPG,,,,,,,,,,,,,,,,,0,9,9,3,,,,,,,AFSA20.jpg,AFNE14.jpg,AFSA16.jpg,AFNE18.jpg,AFSA20.jpg,FS,4,num_8,16,num_8,0.666808433798,,,2017_Jul_17_1038,59.9986721652,FEMA4ImagesEEG,001,200905,
AFNE01.JPG,AFNE01.JPG,AFNE01.JPG,AFNE01.JPG,AFNE01.JPG,AFNE01.JPG,,,,,,,,,,,,,,,,,1,0,10,5,,,,,,,AFNE19.jpg,AFNE14.jpg,AFSA03.jpg,AFSA13.jpg,AFNE14.jpg,FN,3,num_6,32,num_8,0.766811994013,,,2017_Jul_17_1038,59.9986721652,FEMA4ImagesEEG,001,200905,
AFNE01.JPG,AFNE01.JPG,AFNE01.JPG,AFNE01.JPG,AFNE01.JPG,AFNE01.JPG,,,,,,,,,,,,,,,,,1,1,11,1,,,,,,,AFNE04.jpg,AFNE11.jpg,AFSA13.jpg,AFSA03.jpg,AFSA13.jpg,FS,4,num_2,16,num_2,0.96678126711,,,2017_Jul_17_1038,59.9986721652,FEMA4ImagesEEG,001,200905,
AFNE01.JPG,AFNE01.JPG,AFNE01.JPG,AFNE01.JPG,AFNE01.JPG,AFNE01.JPG,,,,,,,,,,,,,,,,,1,2,12,2,,,,,,,AFSA13.jpg,AFSA11.jpg,AFNE08.jpg,AFNE11.jpg,AFNE11.jpg,FN,3,num_4,16,num_4,2.40000718458,,,2017_Jul_17_1038,59.9986721652,FEMA4ImagesEEG,001,200905,
AFNE01.JPG,AFNE01.JPG,AFNE01.JPG,AFNE01.JPG,AFNE01.JPG,AFNE01.JPG,,,,,,,,,,,,,,,,,1,3,13,8,,,,,,,AFNE13.jpg,AFSA15.jpg,AFNE10.jpg,AFSA11.jpg,AFSA15.jpg,FS,4,num_6,16,num_6,0.816753474978,,,2017_Jul_17_1038,59.9986721652,FEMA4ImagesEEG,001,200905,
AFNE01.JPG,AFNE01.JPG,AFNE01.JPG,AFNE01.JPG,AFNE01.JPG,AFNE01.JPG,,,,,,,,,,,,,,,,,1,4,14,3,,,,,,,AFSA08.jpg,AFNE11.jpg,AFNE13.jpg,AFSA02.jpg,AFSA02.jpg,FS,4,num_4,16,num_4,0.916808674352,,,2017_Jul_17_1038,59.9986721652,FEMA4ImagesEEG,001,200905,
AFNE01.JPG,AFNE01.JPG,AFNE01.JPG,AFNE01.JPG,AFNE01.JPG,AFNE01.JPG,,,,,,,,,,,,,,,,,1,5,15,7,,,,,,,AFSA16.jpg,AFNE10.jpg,AFNE01.jpg,AFSA12.jpg,AFSA12.jpg,FS,4,num_4,32,num_8,1.1001257622,,,2017_Jul_17_1038,59.9986721652,FEMA4ImagesEEG,001,200905,
AFNE01.JPG,AFNE01.JPG,AFNE01.JPG,AFNE01.JPG,AFNE01.JPG,AFNE01.JPG,,,,,,,,,,,,,,,,,1,6,16,9,,,,,,,AFSA04.jpg,AFNE14.jpg,AFSA08.jpg,AFNE11.jpg,AFSA04.jpg,FS,4,num_8,32,num_2,0.81678522825,,,2017_Jul_17_1038,59.9986721652,FEMA4ImagesEEG,001,200905,
AFNE01.JPG,AFNE01.JPG,AFNE01.JPG,AFNE01.JPG,AFNE01.JPG,AFNE01.JPG,,,,,,,,,,,,,,,,,1,7,17,6,,,,,,,AFNE01.jpg,AFSA16.jpg,AFSA12.jpg,AFNE08.jpg,AFSA16.jpg,FS,4,num_6,32,num_4,0.766843747284,,,2017_Jul_17_1038,59.9986721652,FEMA4ImagesEEG,001,200905,
AFNE01.JPG,AFNE01.JPG,AFNE01.JPG,AFNE01.JPG,AFNE01.JPG,AFNE01.JPG,,,,,,,,,,,,,,,,,1,8,18,0,,,,,,,AFNE02.jpg,AFSA18.jpg,AFNE03.jpg,AFSA10.jpg,AFNE03.jpg,FN,3,num_2,16,num_2,0.699847231484,,,2017_Jul_17_1038,59.9986721652,FEMA4ImagesEEG,001,200905,
AFNE01.JPG,AFNE01.JPG,AFNE01.JPG,AFNE01.JPG,AFNE01.JPG,AFNE01.JPG,,,,,,,,,,,,,,,,,1,9,19,4,,,,,,,AFSA20.jpg,AFSA04.jpg,AFNE05.jpg,AFNE07.jpg,AFSA04.jpg,FS,4,num_6,16,num_6,2.38334088676,,,2017_Jul_17_1038,59.9986721652,FEMA4ImagesEEG,001,200905,
AFNE01.JPG,AFNE01.JPG,AFNE01.JPG,AFNE01.JPG,AFNE01.JPG,AFNE01.JPG,,,,,,,,,,,,,,,,,2,0,20,1,,,,,,,AFSA19.jpg,AFNE19.jpg,AFSA09.jpg,AFNE03.jpg,AFSA09.jpg,FS,4,num_2,16,num_2,0.733487737624,,,2017_Jul_17_1038,59.9986721652,FEMA4ImagesEEG,001,200905,
AFNE01.JPG,AFNE01.JPG,AFNE01.JPG,AFNE01.JPG,AFNE01.JPG,AFNE01.JPG,,,,,,,,,,,,,,,,,2,1,21,8,,,,,,,AFSA16.jpg,AFNE06.jpg,AFNE12.jpg,AFSA12.jpg,AFSA12.jpg,FS,4,num_4,32,num_2,1.25010768849,,,2017_Jul_17_1038,59.9986721652,FEMA4ImagesEEG,001,200905,
AFNE01.JPG,AFNE01.JPG,AFNE01.JPG,AFNE01.JPG,AFNE01.JPG,AFNE01.JPG,,,,,,,,,,,,,,,,,2,2,22,9,,,,,,,AFNE19.jpg,AFNE05.jpg,AFSA14.jpg,AFSA17.jpg,AFNE19.jpg,FN,3,num_8,32,num_6,0.933480424749,,,2017_Jul_17_1038,59.9986721652,FEMA4ImagesEEG,001,200905,
AFNE01.JPG,AFNE01.JPG,AFNE01.JPG,AFNE01.JPG,AFNE01.JPG,AFNE01.JPG,,,,,,,,,,,,,,,,,2,3,23,6,,,,,,,AFNE12.jpg,AFNE13.jpg,AFSA15.jpg,AFSA08.jpg,AFSA15.jpg,FS,4,num_2,32,num_4,1.11675709934,,,2017_Jul_17_1038,59.9986721652,FEMA4ImagesEEG,001,200905,
AFNE01.JPG,AFNE01.JPG,AFNE01.JPG,AFNE01.JPG,AFNE01.JPG,AFNE01.JPG,,,,,,,,,,,,,,,,,2,4,24,0,,,,,,,AFNE04.jpg,AFSA13.jpg,AFSA01.jpg,AFNE05.jpg,AFNE04.jpg,FN,3,num_8,32,num_6,1.3001518063,,,2017_Jul_17_1038,59.9986721652,FEMA4ImagesEEG,001,200905,
AFNE01.JPG,AFNE01.JPG,AFNE01.JPG,AFNE01.JPG,AFNE01.JPG,AFNE01.JPG,,,,,,,,,,,,,,,,,2,5,25,4,,,,,,,AFNE04.jpg,AFSA07.jpg,AFNE14.jpg,AFSA15.jpg,AFNE04.jpg,FN,3,num_8,16,num_8,0.750134149553,,,2017_Jul_17_1038,59.9986721652,FEMA4ImagesEEG,001,200905,
AFNE01.JPG,AFNE01.JPG,AFNE01.JPG,AFNE01.JPG,AFNE01.JPG,AFNE01.JPG,,,,,,,,,,,,,,,,,2,6,26,7,,,,,,,AFNE13.jpg,AFSA18.jpg,AFNE12.jpg,AFSA05.jpg,AFNE12.jpg,FN,3,num_2,16,num_2,1.0167461621,,,2017_Jul_17_1038,59.9986721652,FEMA4ImagesEEG,001,200905,
AFNE01.JPG,AFNE01.JPG,AFNE01.JPG,AFNE01.JPG,AFNE01.JPG,AFNE01.JPG,,,,,,,,,,,,,,,,,2,7,27,3,,,,,,,AFSA03.jpg,AFNE14.jpg,AFSA16.jpg,AFNE13.jpg,AFSA16.jpg,FS,4,num_2,32,num_4,1.06674826295,,,2017_Jul_17_1038,59.9986721652,FEMA4ImagesEEG,001,200905,
AFNE01.JPG,AFNE01.JPG,AFNE01.JPG,AFNE01.JPG,AFNE01.JPG,AFNE01.JPG,,,,,,,,,,,,,,,,,2,8,28,5,,,,,,,AFSA16.jpg,AFNE10.jpg,AFSA17.jpg,AFNE19.jpg,AFNE10.jpg,FN,3,num_6,16,num_6,0.733515000534,,,2017_Jul_17_1038,59.9986721652,FEMA4ImagesEEG,001,200905,
AFNE01.JPG,AFNE01.JPG,AFNE01.JPG,AFNE01.JPG,AFNE01.JPG,AFNE01.JPG,,,,,,,,,,,,,,,,,2,9,29,2,,,,,,,AFSA16.jpg,AFSA13.jpg,AFNE08.jpg,AFNE17.jpg,AFNE08.jpg,FN,3,num_2,32,num_4,1.10012640368,,,2017_Jul_17_1038,59.9986721652,FEMA4ImagesEEG,001,200905,
AFNE01.JPG,AFNE01.JPG,AFNE01.JPG,AFNE01.JPG,AFNE01.JPG,AFNE01.JPG,,,,,,,,,,,,,,,,,3,0,30,6,,,,,,,AFSA05.jpg,AFNE13.jpg,AFSA07.jpg,AFNE19.jpg,AFSA05.jpg,FS,4,num_8,32,num_4,1.08349731172,,,2017_Jul_17_1038,59.9986721652,FEMA4ImagesEEG,001,200905,
AFNE01.JPG,AFNE01.JPG,AFNE01.JPG,AFNE01.JPG,AFNE01.JPG,AFNE01.JPG,,,,,,,,,,,,,,,,,3,1,31,4,,,,,,,AFNE09.jpg,AFSA02.jpg,AFNE19.jpg,AFSA08.jpg,AFNE19.jpg,FN,3,num_2,32,num_8,1.03349553161,,,2017_Jul_17_1038,59.9986721652,FEMA4ImagesEEG,001,200905,
AFNE01.JPG,AFNE01.JPG,AFNE01.JPG,AFNE01.JPG,AFNE01.JPG,AFNE01.JPG,,,,,,,,,,,,,,,,,3,2,32,3,,,,,,,AFSA04.jpg,AFNE01.jpg,AFSA17.jpg,AFNE20.jpg,AFSA04.jpg,FS,4,num_8,16,num_8,2.56669261454,,,2017_Jul_17_1038,59.9986721652,FEMA4ImagesEEG,001,200905,
AFNE01.JPG,AFNE01.JPG,AFNE01.JPG,AFNE01.JPG,AFNE01.JPG,AFNE01.JPG,,,,,,,,,,,,,,,,,3,3,33,1,,,,,,,AFSA01.jpg,AFSA07.jpg,AFNE02.jpg,AFNE18.jpg,AFSA01.jpg,FS,4,num_8,32,num_2,0.850134181626,,,2017_Jul_17_1038,59.9986721652,FEMA4ImagesEEG,001,200905,
AFNE01.JPG,AFNE01.JPG,AFNE01.JPG,AFNE01.JPG,AFNE01.JPG,AFNE01.JPG,,,,,,,,,,,,,,,,,3,4,34,0,,,,,,,AFSA14.jpg,AFNE04.jpg,AFSA11.jpg,AFNE03.jpg,AFNE04.jpg,FN,3,num_6,32,num_8,1.75008764224,,,2017_Jul_17_1038,59.9986721652,FEMA4ImagesEEG,001,200905,
AFNE01.JPG,AFNE01.JPG,AFNE01.JPG,AFNE01.JPG,AFNE01.JPG,AFNE01.JPG,,,,,,,,,,,,,,,,,3,5,35,5,,,,,,,AFNE06.jpg,AFSA16.jpg,AFNE17.jpg,AFSA01.jpg,AFNE17.jpg,FN,3,num_2,16,num_2,0.816768229024,,,2017_Jul_17_1038,59.9986721652,FEMA4ImagesEEG,001,200905,
AFNE01.JPG,AFNE01.JPG,AFNE01.JPG,AFNE01.JPG,AFNE01.JPG,AFNE01.JPG,,,,,,,,,,,,,,,,,3,6,36,8,,,,,,,AFSA02.jpg,AFNE13.jpg,AFSA20.jpg,AFNE01.jpg,AFNE01.jpg,FN,3,num_4,32,num_6,1.01677438723,,,2017_Jul_17_1038,59.9986721652,FEMA4ImagesEEG,001,200905,
AFNE01.JPG,AFNE01.JPG,AFNE01.JPG,AFNE01.JPG,AFNE01.JPG,AFNE01.JPG,,,,,,,,,,,,,,,,,3,7,37,9,,,,,,,AFSA16.jpg,AFSA15.jpg,AFNE19.jpg,AFNE08.jpg,AFSA16.jpg,FS,4,num_8,32,num_4,1.26670631014,,,2017_Jul_17_1038,59.9986721652,FEMA4ImagesEEG,001,200905,
AFNE01.JPG,AFNE01.JPG,AFNE01.JPG,AFNE01.JPG,AFNE01.JPG,AFNE01.JPG,,,,,,,,,,,,,,,,,3,8,38,2,,,,,,,AFSA15.jpg,AFNE17.jpg,AFNE11.jpg,AFSA02.jpg,AFNE17.jpg,FN,3,num_6,32,num_2,2.88324835324,,,2017_Jul_17_1038,59.9986721652,FEMA4ImagesEEG,001,200905,
AFNE01.JPG,AFNE01.JPG,AFNE01.JPG,AFNE01.JPG,AFNE01.JPG,AFNE01.JPG,,,,,,,,,,,,,,,,,3,9,39,7,,,,,,,AFSA13.jpg,AFNE05.jpg,AFNE07.jpg,AFSA11.jpg,AFSA13.jpg,FS,4,num_8,16,num_8,2.86664139235,,,2017_Jul_17_1038,59.9986721652,FEMA4ImagesEEG,001,200905,
AFNE01.JPG,AFNE01.JPG,AFNE01.JPG,AFNE01.JPG,AFNE01.JPG,AFNE01.JPG,,,,,,,,,,,,,,,,,4,0,40,8,,,,,,,AFNE06.jpg,AFSA17.jpg,AFSA13.jpg,AFNE03.jpg,AFNE03.jpg,FN,3,num_4,16,num_4,0.85014252087,,,2017_Jul_17_1038,59.9986721652,FEMA4ImagesEEG,001,200905,
AFNE01.JPG,AFNE01.JPG,AFNE01.JPG,AFNE01.JPG,AFNE01.JPG,AFNE01.JPG,,,,,,,,,,,,,,,,,4,1,41,4,,,,,,,AFNE01.jpg,AFSA09.jpg,AFSA02.jpg,AFNE05.jpg,AFNE05.jpg,FN,3,num_4,32,num_8,2.00007377023,,,2017_Jul_17_1038,59.9986721652,FEMA4ImagesEEG,001,200905,
AFNE01.JPG,AFNE01.JPG,AFNE01.JPG,AFNE01.JPG,AFNE01.JPG,AFNE01.JPG,,,,,,,,,,,,,,,,,4,2,42,7,,,,,,,AFSA08.jpg,AFNE12.jpg,AFNE07.jpg,AFSA20.jpg,AFSA08.jpg,FS,4,num_8,32,num_4,0.850161444537,,,2017_Jul_17_1038,59.9986721652,FEMA4ImagesEEG,001,200905,
AFNE01.JPG,AFNE01.JPG,AFNE01.JPG,AFNE01.JPG,AFNE01.JPG,AFNE01.JPG,,,,,,,,,,,,,,,,,4,3,43,5,,,,,,,AFSA13.jpg,AFNE07.jpg,AFSA20.jpg,AFNE20.jpg,AFNE20.jpg,FN,3,num_4,16,num_4,0.800156136288,,,2017_Jul_17_1038,59.9986721652,FEMA4ImagesEEG,001,200905,
AFNE01.JPG,AFNE01.JPG,AFNE01.JPG,AFNE01.JPG,AFNE01.JPG,AFNE01.JPG,,,,,,,,,,,,,,,,,4,4,44,0,,,,,,,AFNE01.jpg,AFNE20.jpg,AFSA18.jpg,AFSA14.jpg,AFSA18.jpg,FS,4,num_2,32,num_4,1.36674547251,,,2017_Jul_17_1038,59.9986721652,FEMA4ImagesEEG,001,200905,
AFNE01.JPG,AFNE01.JPG,AFNE01.JPG,AFNE01.JPG,AFNE01.JPG,AFNE01.JPG,,,,,,,,,,,,,,,,,4,5,45,2,,,,,,,AFNE03.jpg,AFSA10.jpg,AFSA02.jpg,AFNE09.jpg,AFNE09.jpg,FN,3,num_4,32,num_6,1.11678500373,,,2017_Jul_17_1038,59.9986721652,FEMA4ImagesEEG,001,200905,
AFNE01.JPG,AFNE01.JPG,AFNE01.JPG,AFNE01.JPG,AFNE01.JPG,AFNE01.JPG,,,,,,,,,,,,,,,,,4,6,46,6,,,,,,,AFNE19.jpg,AFSA08.jpg,AFSA09.jpg,AFNE16.jpg,AFNE19.jpg,FN,3,num_8,16,num_8,0.850161444537,,,2017_Jul_17_1038,59.9986721652,FEMA4ImagesEEG,001,200905,
AFNE01.JPG,AFNE01.JPG,AFNE01.JPG,AFNE01.JPG,AFNE01.JPG,AFNE01.JPG,,,,,,,,,,,,,,,,,4,7,47,9,,,,,,,AFNE01.jpg,AFSA14.jpg,AFSA12.jpg,AFNE09.jpg,AFNE01.jpg,FN,3,num_8,16,num_8,2.03339802661,,,2017_Jul_17_1038,59.9986721652,FEMA4ImagesEEG,001,200905,
AFNE01.JPG,AFNE01.JPG,AFNE01.JPG,AFNE01.JPG,AFNE01.JPG,AFNE01.JPG,,,,,,,,,,,,,,,,,4,8,48,3,,,,,,,AFSA02.jpg,AFSA08.jpg,AFNE17.jpg,AFNE01.jpg,AFNE01.jpg,FN,3,num_4,16,num_4,0.666786623469,,,2017_Jul_17_1038,59.9986721652,FEMA4ImagesEEG,001,200905,
AFNE01.JPG,AFNE01.JPG,AFNE01.JPG,AFNE01.JPG,AFNE01.JPG,AFNE01.JPG,,,,,,,,,,,,,,,,,4,9,49,1,,,,,,,AFNE05.jpg,AFSA05.jpg,AFNE11.jpg,AFSA08.jpg,AFNE11.jpg,FN,3,num_2,32,num_8,0.966495166927,,,2017_Jul_17_1038,59.9986721652,FEMA4ImagesEEG,001,200905,
AFNE01.JPG,AFNE01.JPG,AFNE01.JPG,AFNE01.JPG,AFNE01.JPG,AFNE01.JPG,,,,,,,,,,,,,,,,,5,0,50,8,,,,,,,AFSA19.jpg,AFNE12.jpg,AFNE02.jpg,AFSA15.jpg,AFNE02.jpg,FN,3,num_2,32,num_4,0.983445319744,,,2017_Jul_17_1038,59.9986721652,FEMA4ImagesEEG,001,200905,
AFNE01.JPG,AFNE01.JPG,AFNE01.JPG,AFNE01.JPG,AFNE01.JPG,AFNE01.JPG,,,,,,,,,,,,,,,,,5,1,51,6,,,,,,,AFNE03.jpg,AFSA12.jpg,AFNE11.jpg,AFSA09.jpg,AFNE11.jpg,FN,3,num_2,32,num_8,0.833467883811,,,2017_Jul_17_1038,59.9986721652,FEMA4ImagesEEG,001,200905,
AFNE01.JPG,AFNE01.JPG,AFNE01.JPG,AFNE01.JPG,AFNE01.JPG,AFNE01.JPG,,,,,,,,,,,,,,,,,5,2,52,5,,,,,,,AFSA08.jpg,AFNE05.jpg,AFNE09.jpg,AFSA19.jpg,AFNE05.jpg,FN,3,num_6,32,num_2,1.01676251985,,,2017_Jul_17_1038,59.9986721652,FEMA4ImagesEEG,001,200905,
AFNE01.JPG,AFNE01.JPG,AFNE01.JPG,AFNE01.JPG,AFNE01.JPG,AFNE01.JPG,,,,,,,,,,,,,,,,,5,3,53,7,,,,,,,AFNE17.jpg,AFNE05.jpg,AFSA15.jpg,AFSA05.jpg,AFNE05.jpg,FN,3,num_6,16,num_6,1.06679252509,,,2017_Jul_17_1038,59.9986721652,FEMA4ImagesEEG,001,200905,
AFNE01.JPG,AFNE01.JPG,AFNE01.JPG,AFNE01.JPG,AFNE01.JPG,AFNE01.JPG,,,,,,,,,,,,,,,,,5,4,54,3,,,,,,,AFNE13.jpg,AFSA16.jpg,AFSA07.jpg,AFNE02.jpg,AFNE13.jpg,FN,3,num_8,32,num_2,1.30013416559,,,2017_Jul_17_1038,59.9986721652,FEMA4ImagesEEG,001,200905,
AFNE01.JPG,AFNE01.JPG,AFNE01.JPG,AFNE01.JPG,AFNE01.JPG,AFNE01.JPG,,,,,,,,,,,,,,,,,5,5,55,0,,,,,,,AFSA06.jpg,AFNE10.jpg,AFSA18.jpg,AFNE01.jpg,AFNE01.jpg,FN,3,num_4,16,num_4,0.733476832461,,,2017_Jul_17_1038,59.9986721652,FEMA4ImagesEEG,001,200905,
AFNE01.JPG,AFNE01.JPG,AFNE01.JPG,AFNE01.JPG,AFNE01.JPG,AFNE01.JPG,,,,,,,,,,,,,,,,,5,6,56,2,,,,,,,AFNE09.jpg,AFNE14.jpg,AFSA16.jpg,AFSA17.jpg,AFSA16.jpg,FS,4,num_2,16,num_2,0.800195587321,,,2017_Jul_17_1038,59.9986721652,FEMA4ImagesEEG,001,200905,
AFNE01.JPG,AFNE01.JPG,AFNE01.JPG,AFNE01.JPG,AFNE01.JPG,AFNE01.JPG,,,,,,,,,,,,,,,,,5,7,57,4,,,,,,,AFNE16.jpg,AFSA04.jpg,AFSA18.jpg,AFNE06.jpg,AFNE06.jpg,FN,3,num_4,32,num_6,2.63331899625,,,2017_Jul_17_1038,59.9986721652,FEMA4ImagesEEG,001,200905,
AFNE01.JPG,AFNE01.JPG,AFNE01.JPG,AFNE01.JPG,AFNE01.JPG,AFNE01.JPG,,,,,,,,,,,,,,,,,5,8,58,1,,,,,,,AFSA01.jpg,AFNE07.jpg,AFNE15.jpg,AFSA12.jpg,AFNE07.jpg,FN,3,num_6,32,num_4,1.26675281746,,,2017_Jul_17_1038,59.9986721652,FEMA4ImagesEEG,001,200905,
AFNE01.JPG,AFNE01.JPG,AFNE01.JPG,AFNE01.JPG,AFNE01.JPG,AFNE01.JPG,,,,,,,,,,,,,,,,,5,9,59,9,,,,,,,AFNE10.jpg,AFNE08.jpg,AFSA05.jpg,AFSA19.jpg,AFSA05.jpg,FS,4,num_2,32,num_4,0.833472374173,,,2017_Jul_17_1038,59.9986721652,FEMA4ImagesEEG,001,200905,
,,,,,,,,,,,,,,,,,,,,,,,,,,,,,,,,,,,,,,,,,,,space,48.4798217583,2017_Jul_17_1038,59.9986721652,FEMA4ImagesEEG,001,200905,
AFNE01.JPG,AFNE01.JPG,AFNE01.JPG,AFNE01.JPG,AFNE01.JPG,AFNE01.JPG,,,,,,,,,,,,,,,,,,,,,0,0,0,8,,,AMNE02.jpg,AMSA08.jpg,AMNE13.jpg,AMSA15.jpg,AMSA08.jpg,MS,2,num_6,32,num_4,0.816829169646,,,2017_Jul_17_1038,59.9986721652,FEMA4ImagesEEG,001,200905,
AFNE01.JPG,AFNE01.JPG,AFNE01.JPG,AFNE01.JPG,AFNE01.JPG,AFNE01.JPG,,,,,,,,,,,,,,,,,,,,,0,1,1,3,,,AMSA02.jpg,AMNE08.jpg,AMNE09.jpg,AMSA05.jpg,AMSA05.jpg,MS,2,num_4,32,num_8,0.93356574162,,,2017_Jul_17_1038,59.9986721652,FEMA4ImagesEEG,001,200905,
AFNE01.JPG,AFNE01.JPG,AFNE01.JPG,AFNE01.JPG,AFNE01.JPG,AFNE01.JPG,,,,,,,,,,,,,,,,,,,,,0,2,2,0,,,AMNE16.jpg,AMSA16.jpg,AMNE14.jpg,AMSA06.jpg,AMNE14.jpg,MN,1,num_2,32,num_8,1.35012055017,,,2017_Jul_17_1038,59.9986721652,FEMA4ImagesEEG,001,200905,
AFNE01.JPG,AFNE01.JPG,AFNE01.JPG,AFNE01.JPG,AFNE01.JPG,AFNE01.JPG,,,,,,,,,,,,,,,,,,,,,0,3,3,2,,,AMSA07.jpg,AMNE10.jpg,AMSA08.jpg,AMNE02.jpg,AMSA07.jpg,MS,2,num_8,16,num_8,0.916778524781,,,2017_Jul_17_1038,59.9986721652,FEMA4ImagesEEG,001,200905,
AFNE01.JPG,AFNE01.JPG,AFNE01.JPG,AFNE01.JPG,AFNE01.JPG,AFNE01.JPG,,,,,,,,,,,,,,,,,,,,,0,4,4,6,,,AMNE13.jpg,AMSA11.jpg,AMSA09.jpg,AMNE16.jpg,AMSA09.jpg,MS,2,num_2,16,num_2,1.21676450844,,,2017_Jul_17_1038,59.9986721652,FEMA4ImagesEEG,001,200905,
AFNE01.JPG,AFNE01.JPG,AFNE01.JPG,AFNE01.JPG,AFNE01.JPG,AFNE01.JPG,,,,,,,,,,,,,,,,,,,,,0,5,5,1,,,AMNE20.jpg,AMSA09.jpg,AMNE05.jpg,AMSA06.jpg,AMSA09.jpg,MS,2,num_6,16,num_6,0.98348926114,,,2017_Jul_17_1038,59.9986721652,FEMA4ImagesEEG,001,200905,
AFNE01.JPG,AFNE01.JPG,AFNE01.JPG,AFNE01.JPG,AFNE01.JPG,AFNE01.JPG,,,,,,,,,,,,,,,,,,,,,0,6,6,4,,,AMSA02.jpg,AMNE16.jpg,AMNE20.jpg,AMSA18.jpg,AMNE16.jpg,MN,1,num_6,16,num_6,0.816795491934,,,2017_Jul_17_1038,59.9986721652,FEMA4ImagesEEG,001,200905,
AFNE01.JPG,AFNE01.JPG,AFNE01.JPG,AFNE01.JPG,AFNE01.JPG,AFNE01.JPG,,,,,,,,,,,,,,,,,,,,,0,7,7,7,,,AMSA13.jpg,AMSA12.jpg,AMNE10.jpg,AMNE01.jpg,AMSA12.jpg,MS,2,num_6,16,num_6,1.1167959089,,,2017_Jul_17_1038,59.9986721652,FEMA4ImagesEEG,001,200905,
AFNE01.JPG,AFNE01.JPG,AFNE01.JPG,AFNE01.JPG,AFNE01.JPG,AFNE01.JPG,,,,,,,,,,,,,,,,,,,,,0,8,8,5,,,AMNE19.jpg,AMSA02.jpg,AMNE08.jpg,AMSA20.jpg,AMSA02.jpg,MS,2,num_6,16,num_6,0.733472983579,,,2017_Jul_17_1038,59.9986721652,FEMA4ImagesEEG,001,200905,
AFNE01.JPG,AFNE01.JPG,AFNE01.JPG,AFNE01.JPG,AFNE01.JPG,AFNE01.JPG,,,,,,,,,,,,,,,,,,,,,0,9,9,9,,,AMSA01.jpg,AMNE08.jpg,AMNE16.jpg,AMSA19.jpg,AMNE16.jpg,MN,1,num_2,16,num_2,1.03346602352,,,2017_Jul_17_1038,59.9986721652,FEMA4ImagesEEG,001,200905,
AFNE01.JPG,AFNE01.JPG,AFNE01.JPG,AFNE01.JPG,AFNE01.JPG,AFNE01.JPG,,,,,,,,,,,,,,,,,,,,,1,0,10,6,,,AMSA07.jpg,AMNE18.jpg,AMNE02.jpg,AMSA19.jpg,AMNE18.jpg,MN,1,num_6,16,num_6,0.70017470714,,,2017_Jul_17_1038,59.9986721652,FEMA4ImagesEEG,001,200905,
AFNE01.JPG,AFNE01.JPG,AFNE01.JPG,AFNE01.JPG,AFNE01.JPG,AFNE01.JPG,,,,,,,,,,,,,,,,,,,,,1,1,11,3,,,AMNE12.jpg,AMNE07.jpg,AMSA02.jpg,AMSA16.jpg,AMNE07.jpg,MN,1,num_6,16,num_6,1.0167461621,,,2017_Jul_17_1038,59.9986721652,FEMA4ImagesEEG,001,200905,
AFNE01.JPG,AFNE01.JPG,AFNE01.JPG,AFNE01.JPG,AFNE01.JPG,AFNE01.JPG,,,,,,,,,,,,,,,,,,,,,1,2,12,9,,,AMNE18.jpg,AMSA10.jpg,AMSA18.jpg,AMNE12.jpg,AMNE18.jpg,MN,1,num_8,32,num_4,0.833486807478,,,2017_Jul_17_1038,59.9986721652,FEMA4ImagesEEG,001,200905,
AFNE01.JPG,AFNE01.JPG,AFNE01.JPG,AFNE01.JPG,AFNE01.JPG,AFNE01.JPG,,,,,,,,,,,,,,,,,,,,,1,3,13,1,,,AMNE04.jpg,AMSA14.jpg,AMSA01.jpg,AMNE06.jpg,AMSA01.jpg,MS,2,num_2,16,num_2,0.800156136288,,,2017_Jul_17_1038,59.9986721652,FEMA4ImagesEEG,001,200905,
AFNE01.JPG,AFNE01.JPG,AFNE01.JPG,AFNE01.JPG,AFNE01.JPG,AFNE01.JPG,,,,,,,,,,,,,,,,,,,,,1,4,14,0,,,AMNE06.jpg,AMSA11.jpg,AMSA17.jpg,AMNE10.jpg,AMNE10.jpg,MN,1,num_4,16,num_4,1.03345255243,,,2017_Jul_17_1038,59.9986721652,FEMA4ImagesEEG,001,200905,
AFNE01.JPG,AFNE01.JPG,AFNE01.JPG,AFNE01.JPG,AFNE01.JPG,AFNE01.JPG,,,,,,,,,,,,,,,,,,,,,1,5,15,4,,,AMSA04.jpg,AMSA15.jpg,AMNE08.jpg,AMNE10.jpg,AMNE08.jpg,MN,1,num_2,16,num_2,0.616739939745,,,2017_Jul_17_1038,59.9986721652,FEMA4ImagesEEG,001,200905,
AFNE01.JPG,AFNE01.JPG,AFNE01.JPG,AFNE01.JPG,AFNE01.JPG,AFNE01.JPG,,,,,,,,,,,,,,,,,,,,,1,6,16,5,,,AMSA02.jpg,AMSA08.jpg,AMNE15.jpg,AMNE19.jpg,AMSA08.jpg,MS,2,num_6,32,num_2,2.38342171327,,,2017_Jul_17_1038,59.9986721652,FEMA4ImagesEEG,001,200905,
AFNE01.JPG,AFNE01.JPG,AFNE01.JPG,AFNE01.JPG,AFNE01.JPG,AFNE01.JPG,,,,,,,,,,,,,,,,,,,,,1,7,17,8,,,AMNE08.jpg,AMNE15.jpg,AMSA18.jpg,AMSA12.jpg,AMSA18.jpg,MS,2,num_2,32,num_4,1.01679234868,,,2017_Jul_17_1038,59.9986721652,FEMA4ImagesEEG,001,200905,
AFNE01.JPG,AFNE01.JPG,AFNE01.JPG,AFNE01.JPG,AFNE01.JPG,AFNE01.JPG,,,,,,,,,,,,,,,,,,,,,1,8,18,2,,,AMSA05.jpg,AMNE18.jpg,AMNE13.jpg,AMSA03.jpg,AMNE13.jpg,MN,1,num_2,32,num_6,0.8332703079,,,2017_Jul_17_1038,59.9986721652,FEMA4ImagesEEG,001,200905,
AFNE01.JPG,AFNE01.JPG,AFNE01.JPG,AFNE01.JPG,AFNE01.JPG,AFNE01.JPG,,,,,,,,,,,,,,,,,,,,,1,9,19,7,,,AMNE19.jpg,AMSA02.jpg,AMNE14.jpg,AMSA10.jpg,AMNE14.jpg,MN,1,num_2,32,num_8,0.766776712599,,,2017_Jul_17_1038,59.9986721652,FEMA4ImagesEEG,001,200905,
AFNE01.JPG,AFNE01.JPG,AFNE01.JPG,AFNE01.JPG,AFNE01.JPG,AFNE01.JPG,,,,,,,,,,,,,,,,,,,,,2,0,20,4,,,AMNE04.jpg,AMSA02.jpg,AMNE08.jpg,AMSA18.jpg,AMSA18.jpg,MS,2,num_4,16,num_4,0.716480172327,,,2017_Jul_17_1038,59.9986721652,FEMA4ImagesEEG,001,200905,
AFNE01.JPG,AFNE01.JPG,AFNE01.JPG,AFNE01.JPG,AFNE01.JPG,AFNE01.JPG,,,,,,,,,,,,,,,,,,,,,2,1,21,1,,,AMNE08.jpg,AMNE03.jpg,AMSA10.jpg,AMSA05.jpg,AMSA05.jpg,MS,2,num_4,16,num_4,1.05006111703,,,2017_Jul_17_1038,59.9986721652,FEMA4ImagesEEG,001,200905,
AFNE01.JPG,AFNE01.JPG,AFNE01.JPG,AFNE01.JPG,AFNE01.JPG,AFNE01.JPG,,,,,,,,,,,,,,,,,,,,,2,2,22,3,,,AMSA20.jpg,AMNE20.jpg,AMSA06.jpg,AMNE03.jpg,AMSA06.jpg,MS,2,num_2,16,num_2,1.58327295401,,,2017_Jul_17_1038,59.9986721652,FEMA4ImagesEEG,001,200905,
AFNE01.JPG,AFNE01.JPG,AFNE01.JPG,AFNE01.JPG,AFNE01.JPG,AFNE01.JPG,,,,,,,,,,,,,,,,,,,,,2,3,23,8,,,AMSA12.jpg,AMSA16.jpg,AMNE18.jpg,AMNE13.jpg,AMSA12.jpg,MS,2,num_8,16,num_8,0.950163401051,,,2017_Jul_17_1038,59.9986721652,FEMA4ImagesEEG,001,200905,
AFNE01.JPG,AFNE01.JPG,AFNE01.JPG,AFNE01.JPG,AFNE01.JPG,AFNE01.JPG,,,,,,,,,,,,,,,,,,,,,2,4,24,0,,,AMNE05.jpg,AMNE09.jpg,AMSA04.jpg,AMSA15.jpg,AMSA04.jpg,MS,2,num_2,16,num_2,0.733494473167,,,2017_Jul_17_1038,59.9986721652,FEMA4ImagesEEG,001,200905,
AFNE01.JPG,AFNE01.JPG,AFNE01.JPG,AFNE01.JPG,AFNE01.JPG,AFNE01.JPG,,,,,,,,,,,,,,,,,,,,,2,5,25,7,,,AMNE01.jpg,AMSA10.jpg,AMSA12.jpg,AMNE05.jpg,AMNE05.jpg,MN,1,num_4,16,num_4,0.800130797818,,,2017_Jul_17_1038,59.9986721652,FEMA4ImagesEEG,001,200905,
AFNE01.JPG,AFNE01.JPG,AFNE01.JPG,AFNE01.JPG,AFNE01.JPG,AFNE01.JPG,,,,,,,,,,,,,,,,,,,,,2,6,26,5,,,AMSA04.jpg,AMSA08.jpg,AMNE14.jpg,AMNE18.jpg,AMNE14.jpg,MN,1,num_2,32,num_8,1.48343874457,,,2017_Jul_17_1038,59.9986721652,FEMA4ImagesEEG,001,200905,
AFNE01.JPG,AFNE01.JPG,AFNE01.JPG,AFNE01.JPG,AFNE01.JPG,AFNE01.JPG,,,,,,,,,,,,,,,,,,,,,2,7,27,9,,,AMSA08.jpg,AMNE06.jpg,AMSA15.jpg,AMNE14.jpg,AMSA08.jpg,MS,2,num_8,32,num_4,1.41671742379,,,2017_Jul_17_1038,59.9986721652,FEMA4ImagesEEG,001,200905,
AFNE01.JPG,AFNE01.JPG,AFNE01.JPG,AFNE01.JPG,AFNE01.JPG,AFNE01.JPG,,,,,,,,,,,,,,,,,,,,,2,8,28,6,,,AMNE02.jpg,AMSA20.jpg,AMNE14.jpg,AMSA11.jpg,AMSA20.jpg,MS,2,num_6,16,num_6,0.66678534051,,,2017_Jul_17_1038,59.9986721652,FEMA4ImagesEEG,001,200905,
AFNE01.JPG,AFNE01.JPG,AFNE01.JPG,AFNE01.JPG,AFNE01.JPG,AFNE01.JPG,,,,,,,,,,,,,,,,,,,,,2,9,29,2,,,AMSA14.jpg,AMNE18.jpg,AMSA19.jpg,AMNE01.jpg,AMSA14.jpg,MS,2,num_8,16,num_8,0.666820621922,,,2017_Jul_17_1038,59.9986721652,FEMA4ImagesEEG,001,200905,
AFNE01.JPG,AFNE01.JPG,AFNE01.JPG,AFNE01.JPG,AFNE01.JPG,AFNE01.JPG,,,,,,,,,,,,,,,,,,,,,3,0,30,2,,,AMNE08.jpg,AMSA12.jpg,AMSA16.jpg,AMNE20.jpg,AMSA12.jpg,MS,2,num_6,32,num_2,1.45009203638,,,2017_Jul_17_1038,59.9986721652,FEMA4ImagesEEG,001,200905,
AFNE01.JPG,AFNE01.JPG,AFNE01.JPG,AFNE01.JPG,AFNE01.JPG,AFNE01.JPG,,,,,,,,,,,,,,,,,,,,,3,1,31,5,,,AMSA16.jpg,AMNE09.jpg,AMNE07.jpg,AMSA17.jpg,AMNE09.jpg,MN,1,num_6,16,num_6,0.750133508073,,,2017_Jul_17_1038,59.9986721652,FEMA4ImagesEEG,001,200905,
AFNE01.JPG,AFNE01.JPG,AFNE01.JPG,AFNE01.JPG,AFNE01.JPG,AFNE01.JPG,,,,,,,,,,,,,,,,,,,,,3,2,32,8,,,AMNE04.jpg,AMNE17.jpg,AMSA05.jpg,AMSA12.jpg,AMNE04.jpg,MN,1,num_8,16,num_8,0.700147444231,,,2017_Jul_17_1038,59.9986721652,FEMA4ImagesEEG,001,200905,
AFNE01.JPG,AFNE01.JPG,AFNE01.JPG,AFNE01.JPG,AFNE01.JPG,AFNE01.JPG,,,,,,,,,,,,,,,,,,,,,3,3,33,6,,,AMSA10.jpg,AMNE04.jpg,AMSA14.jpg,AMNE08.jpg,AMNE08.jpg,MN,1,num_4,32,num_8,1.01674872803,,,2017_Jul_17_1038,59.9986721652,FEMA4ImagesEEG,001,200905,
AFNE01.JPG,AFNE01.JPG,AFNE01.JPG,AFNE01.JPG,AFNE01.JPG,AFNE01.JPG,,,,,,,,,,,,,,,,,,,,,3,4,34,1,,,AMSA06.jpg,AMNE14.jpg,AMNE04.jpg,AMSA20.jpg,AMSA06.jpg,MS,2,num_8,32,num_4,0.833474940094,,,2017_Jul_17_1038,59.9986721652,FEMA4ImagesEEG,001,200905,
AFNE01.JPG,AFNE01.JPG,AFNE01.JPG,AFNE01.JPG,AFNE01.JPG,AFNE01.JPG,,,,,,,,,,,,,,,,,,,,,3,5,35,0,,,AMNE19.jpg,AMSA11.jpg,AMNE14.jpg,AMSA18.jpg,AMNE14.jpg,MN,1,num_2,16,num_2,0.699996696377,,,2017_Jul_17_1038,59.9986721652,FEMA4ImagesEEG,001,200905,
AFNE01.JPG,AFNE01.JPG,AFNE01.JPG,AFNE01.JPG,AFNE01.JPG,AFNE01.JPG,,,,,,,,,,,,,,,,,,,,,3,6,36,4,,,AMSA18.jpg,AMNE13.jpg,AMSA13.jpg,AMNE06.jpg,AMSA18.jpg,MS,2,num_8,16,num_8,0.583498113568,,,2017_Jul_17_1038,59.9986721652,FEMA4ImagesEEG,001,200905,
AFNE01.JPG,AFNE01.JPG,AFNE01.JPG,AFNE01.JPG,AFNE01.JPG,AFNE01.JPG,,,,,,,,,,,,,,,,,,,,,3,7,37,3,,,AMSA09.jpg,AMNE04.jpg,AMNE18.jpg,AMSA13.jpg,AMSA13.jpg,MS,2,num_4,32,num_2,1.48339063356,,,2017_Jul_17_1038,59.9986721652,FEMA4ImagesEEG,001,200905,
AFNE01.JPG,AFNE01.JPG,AFNE01.JPG,AFNE01.JPG,AFNE01.JPG,AFNE01.JPG,,,,,,,,,,,,,,,,,,,,,3,8,38,7,,,AMSA06.jpg,AMNE06.jpg,AMNE17.jpg,AMSA03.jpg,AMSA06.jpg,MS,2,num_8,32,num_6,0.633526835844,,,2017_Jul_17_1038,59.9986721652,FEMA4ImagesEEG,001,200905,
