IPosition2,IPosition3,IPosition1,IPosition6,IPosition4,IPosition5,TrialsF1.thisRepN,TrialsF1.thisTrialN,TrialsF1.thisN,TrialsF1.thisIndex,TrialsM1.thisRepN,TrialsM1.thisTrialN,TrialsM1.thisN,TrialsM1.thisIndex,TrialsF2.thisRepN,TrialsF2.thisTrialN,TrialsF2.thisN,TrialsF2.thisIndex,TrialsM2.thisRepN,TrialsM2.thisTrialN,TrialsM2.thisN,TrialsM2.thisIndex,TrialsF3.thisRepN,TrialsF3.thisTrialN,TrialsF3.thisN,TrialsF3.thisIndex,TrialsM3.thisRepN,TrialsM3.thisTrialN,TrialsM3.thisN,TrialsM3.thisIndex,InstrKey_resp.keys,InstrKey_resp.rt,Image0 _Position,Image1 _Position,Image2 _Position,Image3 _Position,Center_image,condition,code,correct_answer,accuracy,Key_Resp.keys,Key_Resp.rt,BreakKey_resp.keys,BreakKey_resp.rt,date,frameRate,expName,session,participant,
,,,,,,,,,,,,,,,,,,,,,,,,,,,,,,space,9.54955482879,,,,,,,,,,,,,,2017_Jul_24_1625,60.0246622042,FEMA4ImagesEEG,001,200989,
AFNE22.JPG,AFSA24.JPG,AFSA22.JPG,AFNE25.JPG,AFNE24.JPG,AFSA25.JPG,0,0,0,6,,,,,,,,,,,,,,,,,,,,,,,AFNE02.jpg,AFSA06.jpg,AFSA11.jpg,AFNE09.jpg,AFSA11.jpg,FS,4,num_2,32,num_4,0.58351479203,,,2017_Jul_24_1625,60.0246622042,FEMA4ImagesEEG,001,200989,
AFNE23.JPG,AFNE24.JPG,AFNE22.JPG,AFSA24.JPG,AFSA22.JPG,AFSA23.JPG,0,1,1,8,,,,,,,,,,,,,,,,,,,,,,,AFNE17.jpg,AFSA14.jpg,AFNE07.jpg,AFSA12.jpg,AFSA14.jpg,FS,4,num_6,32,num_2,0.617077999865,,,2017_Jul_24_1625,60.0246622042,FEMA4ImagesEEG,001,200989,
AFSA21.JPG,AFNE23.JPG,AFNE21.JPG,AFSA25.JPG,AFNE25.JPG,AFSA23.JPG,0,2,2,4,,,,,,,,,,,,,,,,,,,,,,,AFSA18.jpg,AFNE14.jpg,AFNE12.jpg,AFSA05.jpg,AFNE14.jpg,FN,3,num_6,16,num_6,0.333468044177,,,2017_Jul_24_1625,60.0246622042,FEMA4ImagesEEG,001,200989,
AMSA21.JPG,AMNE22.JPG,AMNE21.JPG,AMSA23.JPG,AMSA22.JPG,AMNE23.JPG,0,3,3,1,,,,,,,,,,,,,,,,,,,,,,,AFSA01.jpg,AFSA15.jpg,AFNE17.jpg,AFNE02.jpg,AFSA01.jpg,FS,4,num_8,16,num_8,0.500144172693,,,2017_Jul_24_1625,60.0246622042,FEMA4ImagesEEG,001,200989,
AMSA25.JPG,AMNE24.JPG,AMSA24.JPG,AMNE26.JPG,AMSA21.JPG,AMNE25.JPG,0,4,4,3,,,,,,,,,,,,,,,,,,,,,,,AFSA17.jpg,AFNE12.jpg,AFNE05.jpg,AFSA13.jpg,AFSA17.jpg,FS,4,num_8,32,num_2,1.06675499852,,,2017_Jul_24_1625,60.0246622042,FEMA4ImagesEEG,001,200989,
AMSA21.JPG,AMNE23.JPG,AMNE21.JPG,AMSA25.JPG,AMNE25.JPG,AMSA23.JPG,0,5,5,5,,,,,,,,,,,,,,,,,,,,,,,AFNE08.jpg,AFSA06.jpg,AFSA15.jpg,AFNE05.jpg,AFNE05.jpg,FN,3,num_4,16,num_4,0.966700761346,,,2017_Jul_24_1625,60.0246622042,FEMA4ImagesEEG,001,200989,
AFSA25.JPG,AFNE24.JPG,AFSA24.JPG,AFNE21.JPG,AFSA21.JPG,AFNE25.JPG,0,6,6,2,,,,,,,,,,,,,,,,,,,,,,,AFNE18.jpg,AFNE11.jpg,AFSA20.jpg,AFSA15.jpg,AFNE11.jpg,FN,3,num_6,16,num_6,0.600115979672,,,2017_Jul_24_1625,60.0246622042,FEMA4ImagesEEG,001,200989,
AMNE22.JPG,AMSA24.JPG,AMSA22.JPG,AMNE25.JPG,AMNE24.JPG,AMSA25.JPG,0,7,7,7,,,,,,,,,,,,,,,,,,,,,,,AFSA15.jpg,AFNE03.jpg,AFSA06.jpg,AFNE19.jpg,AFSA06.jpg,FS,4,num_2,16,num_2,0.35015422781,,,2017_Jul_24_1625,60.0246622042,FEMA4ImagesEEG,001,200989,
AMNE23.JPG,AMNE24.JPG,AMNE22.JPG,AMSA24.JPG,AMSA22.JPG,AMSA23.JPG,0,8,8,9,,,,,,,,,,,,,,,,,,,,,,,AFSA16.jpg,AFNE14.jpg,AFNE06.jpg,AFSA10.jpg,AFSA16.jpg,FS,4,num_8,32,num_4,0.266742553795,,,2017_Jul_24_1625,60.0246622042,FEMA4ImagesEEG,001,200989,
AFSA21.JPG,AFNE22.JPG,AFNE21.JPG,AFSA23.JPG,AFSA22.JPG,AFNE23.JPG,0,9,9,0,,,,,,,,,,,,,,,,,,,,,,,AFNE18.jpg,AFNE06.jpg,AFSA09.jpg,AFSA03.jpg,AFSA03.jpg,FS,4,num_4,32,num_6,0.533458486083,,,2017_Jul_24_1625,60.0246622042,FEMA4ImagesEEG,001,200989,
AMSA25.JPG,AMNE24.JPG,AMSA24.JPG,AMNE26.JPG,AMSA21.JPG,AMNE25.JPG,,,,,0,0,0,3,,,,,,,,,,,,,,,,,,,AMSA01.jpg,AMSA17.jpg,AMNE03.jpg,AMNE07.jpg,AMNE07.jpg,MN,1,num_4,32,num_8,0.466772446758,,,2017_Jul_24_1625,60.0246622042,FEMA4ImagesEEG,001,200989,
AFSA21.JPG,AFNE22.JPG,AFNE21.JPG,AFSA23.JPG,AFSA22.JPG,AFNE23.JPG,,,,,0,1,1,0,,,,,,,,,,,,,,,,,,,AMSA12.jpg,AMNE13.jpg,AMNE20.jpg,AMSA09.jpg,AMSA09.jpg,MS,2,num_4,16,num_4,0.650087289396,,,2017_Jul_24_1625,60.0246622042,FEMA4ImagesEEG,001,200989,
AFNE22.JPG,AFSA24.JPG,AFSA22.JPG,AFNE25.JPG,AFNE24.JPG,AFSA25.JPG,,,,,0,2,2,6,,,,,,,,,,,,,,,,,,,AMSA19.jpg,AMNE06.jpg,AMSA02.jpg,AMNE18.jpg,AMNE18.jpg,MN,1,num_4,16,num_4,0.766763882944,,,2017_Jul_24_1625,60.0246622042,FEMA4ImagesEEG,001,200989,
AFSA21.JPG,AFNE23.JPG,AFNE21.JPG,AFSA25.JPG,AFNE25.JPG,AFSA23.JPG,,,,,0,3,3,4,,,,,,,,,,,,,,,,,,,AMSA09.jpg,AMNE01.jpg,AMSA18.jpg,AMNE17.jpg,AMSA18.jpg,MS,2,num_2,32,num_8,0.683550105547,,,2017_Jul_24_1625,60.0246622042,FEMA4ImagesEEG,001,200989,
AMSA21.JPG,AMNE23.JPG,AMNE21.JPG,AMSA25.JPG,AMNE25.JPG,AMSA23.JPG,,,,,0,4,4,5,,,,,,,,,,,,,,,,,,,AMNE15.jpg,AMNE01.jpg,AMSA06.jpg,AMSA12.jpg,AMSA06.jpg,MS,2,num_2,16,num_2,0.933482349152,,,2017_Jul_24_1625,60.0246622042,FEMA4ImagesEEG,001,200989,
AFSA25.JPG,AFNE24.JPG,AFSA24.JPG,AFNE21.JPG,AFSA21.JPG,AFNE25.JPG,,,,,0,5,5,2,,,,,,,,,,,,,,,,,,,AMSA17.jpg,AMSA11.jpg,AMNE20.jpg,AMNE15.jpg,AMNE15.jpg,MN,1,num_4,16,num_4,0.73341364658,,,2017_Jul_24_1625,60.0246622042,FEMA4ImagesEEG,001,200989,
AFNE23.JPG,AFNE24.JPG,AFNE22.JPG,AFSA24.JPG,AFSA22.JPG,AFSA23.JPG,,,,,0,6,6,8,,,,,,,,,,,,,,,,,,,AMSA09.jpg,AMNE05.jpg,AMSA20.jpg,AMNE17.jpg,AMSA20.jpg,MS,2,num_2,32,num_8,1.06672035856,,,2017_Jul_24_1625,60.0246622042,FEMA4ImagesEEG,001,200989,
AMNE23.JPG,AMNE24.JPG,AMNE22.JPG,AMSA24.JPG,AMSA22.JPG,AMSA23.JPG,,,,,0,7,7,9,,,,,,,,,,,,,,,,,,,AMNE15.jpg,AMNE11.jpg,AMSA09.jpg,AMSA14.jpg,AMNE11.jpg,MN,1,num_6,32,num_2,0.883447853616,,,2017_Jul_24_1625,60.0246622042,FEMA4ImagesEEG,001,200989,
AMNE22.JPG,AMSA24.JPG,AMSA22.JPG,AMNE25.JPG,AMNE24.JPG,AMSA25.JPG,,,,,0,8,8,7,,,,,,,,,,,,,,,,,,,AMNE03.jpg,AMNE16.jpg,AMSA09.jpg,AMSA13.jpg,AMSA13.jpg,MS,2,num_4,32,num_6,0.716889115982,,,2017_Jul_24_1625,60.0246622042,FEMA4ImagesEEG,001,200989,
AMSA21.JPG,AMNE22.JPG,AMNE21.JPG,AMSA23.JPG,AMSA22.JPG,AMNE23.JPG,,,,,0,9,9,1,,,,,,,,,,,,,,,,,,,AMSA09.jpg,AMSA08.jpg,AMNE08.jpg,AMNE02.jpg,AMNE08.jpg,MN,1,num_2,32,num_6,0.883444325416,,,2017_Jul_24_1625,60.0246622042,FEMA4ImagesEEG,001,200989,
AMSA25.JPG,AMNE24.JPG,AMSA24.JPG,AMNE26.JPG,AMSA21.JPG,AMNE25.JPG,,,,,,,,,0,0,0,3,,,,,,,,,,,,,,,AFNE19.jpg,AFSA10.jpg,AFSA02.jpg,AFNE09.jpg,AFSA10.jpg,FS,4,num_6,16,num_6,0.549848305876,,,2017_Jul_24_1625,60.0246622042,FEMA4ImagesEEG,001,200989,
AFNE23.JPG,AFNE24.JPG,AFNE22.JPG,AFSA24.JPG,AFSA22.JPG,AFSA23.JPG,,,,,,,,,0,1,1,8,,,,,,,,,,,,,,,AFNE10.jpg,AFNE18.jpg,AFSA09.jpg,AFSA11.jpg,AFNE10.jpg,FN,3,num_8,16,num_8,0.633547363221,,,2017_Jul_24_1625,60.0246622042,FEMA4ImagesEEG,001,200989,
AMNE22.JPG,AMSA24.JPG,AMSA22.JPG,AMNE25.JPG,AMNE24.JPG,AMSA25.JPG,,,,,,,,,0,2,2,7,,,,,,,,,,,,,,,AFSA12.jpg,AFNE13.jpg,AFNE11.jpg,AFSA02.jpg,AFNE13.jpg,FN,3,num_6,32,num_2,0.83345794084,,,2017_Jul_24_1625,60.0246622042,FEMA4ImagesEEG,001,200989,
AFSA25.JPG,AFNE24.JPG,AFSA24.JPG,AFNE21.JPG,AFSA21.JPG,AFNE25.JPG,,,,,,,,,0,3,3,2,,,,,,,,,,,,,,,AFSA14.jpg,AFSA15.jpg,AFNE17.jpg,AFNE15.jpg,AFSA15.jpg,FS,4,num_6,32,num_4,0.500158926705,,,2017_Jul_24_1625,60.0246622042,FEMA4ImagesEEG,001,200989,
AFSA21.JPG,AFNE22.JPG,AFNE21.JPG,AFSA23.JPG,AFSA22.JPG,AFNE23.JPG,,,,,,,,,0,4,4,0,,,,,,,,,,,,,,,AFSA12.jpg,AFNE07.jpg,AFNE18.jpg,AFSA15.jpg,AFNE07.jpg,FN,3,num_6,32,num_8,0.48345446086,,,2017_Jul_24_1625,60.0246622042,FEMA4ImagesEEG,001,200989,
AFSA21.JPG,AFNE23.JPG,AFNE21.JPG,AFSA25.JPG,AFNE25.JPG,AFSA23.JPG,,,,,,,,,0,5,5,4,,,,,,,,,,,,,,,AFNE03.jpg,AFSA15.jpg,AFSA04.jpg,AFNE09.jpg,AFNE03.jpg,FN,3,num_8,32,num_2,0.583456096589,,,2017_Jul_24_1625,60.0246622042,FEMA4ImagesEEG,001,200989,
AMNE23.JPG,AMNE24.JPG,AMNE22.JPG,AMSA24.JPG,AMSA22.JPG,AMSA23.JPG,,,,,,,,,0,6,6,9,,,,,,,,,,,,,,,AFSA05.jpg,AFSA11.jpg,AFNE20.jpg,AFNE03.jpg,AFNE20.jpg,FN,3,num_2,32,num_4,0.666802339721,,,2017_Jul_24_1625,60.0246622042,FEMA4ImagesEEG,001,200989,
AFNE22.JPG,AFSA24.JPG,AFSA22.JPG,AFNE25.JPG,AFNE24.JPG,AFSA25.JPG,,,,,,,,,0,7,7,6,,,,,,,,,,,,,,,AFSA17.jpg,AFNE19.jpg,AFNE15.jpg,AFSA18.jpg,AFNE15.jpg,FN,3,num_2,32,num_6,0.71679834649,,,2017_Jul_24_1625,60.0246622042,FEMA4ImagesEEG,001,200989,
AMSA21.JPG,AMNE22.JPG,AMNE21.JPG,AMSA23.JPG,AMSA22.JPG,AMNE23.JPG,,,,,,,,,0,8,8,1,,,,,,,,,,,,,,,AFSA08.jpg,AFSA07.jpg,AFNE08.jpg,AFNE16.jpg,AFNE08.jpg,FN,3,num_2,16,num_2,0.699960132013,,,2017_Jul_24_1625,60.0246622042,FEMA4ImagesEEG,001,200989,
AMSA21.JPG,AMNE23.JPG,AMNE21.JPG,AMSA25.JPG,AMNE25.JPG,AMSA23.JPG,,,,,,,,,0,9,9,5,,,,,,,,,,,,,,,AFSA04.jpg,AFNE07.jpg,AFNE16.jpg,AFSA05.jpg,AFNE07.jpg,FN,3,num_6,16,num_6,0.666828640387,,,2017_Jul_24_1625,60.0246622042,FEMA4ImagesEEG,001,200989,
AMSA21.JPG,AMNE22.JPG,AMNE21.JPG,AMSA23.JPG,AMSA22.JPG,AMNE23.JPG,,,,,,,,,,,,,0,0,0,1,,,,,,,,,,,AMSA10.jpg,AMSA13.jpg,AMNE03.jpg,AMNE08.jpg,AMSA10.jpg,MS,2,num_8,32,num_6,0.466666923254,,,2017_Jul_24_1625,60.0246622042,FEMA4ImagesEEG,001,200989,
AMSA25.JPG,AMNE24.JPG,AMSA24.JPG,AMNE26.JPG,AMSA21.JPG,AMNE25.JPG,,,,,,,,,,,,,0,1,1,3,,,,,,,,,,,AMSA20.jpg,AMNE10.jpg,AMNE05.jpg,AMSA02.jpg,AMNE05.jpg,MN,1,num_2,16,num_2,0.750157884206,,,2017_Jul_24_1625,60.0246622042,FEMA4ImagesEEG,001,200989,
AMSA21.JPG,AMNE23.JPG,AMNE21.JPG,AMSA25.JPG,AMNE25.JPG,AMSA23.JPG,,,,,,,,,,,,,0,2,2,5,,,,,,,,,,,AMSA01.jpg,AMSA11.jpg,AMNE10.jpg,AMNE16.jpg,AMNE10.jpg,MN,1,num_2,32,num_4,0.66647743003,,,2017_Jul_24_1625,60.0246622042,FEMA4ImagesEEG,001,200989,
AFSA21.JPG,AFNE22.JPG,AFNE21.JPG,AFSA23.JPG,AFSA22.JPG,AFNE23.JPG,,,,,,,,,,,,,0,3,3,0,,,,,,,,,,,AMSA03.jpg,AMSA15.jpg,AMNE06.jpg,AMNE16.jpg,AMSA15.jpg,MS,2,num_6,16,num_6,0.666734022088,,,2017_Jul_24_1625,60.0246622042,FEMA4ImagesEEG,001,200989,
AFNE23.JPG,AFNE24.JPG,AFNE22.JPG,AFSA24.JPG,AFSA22.JPG,AFSA23.JPG,,,,,,,,,,,,,0,4,4,8,,,,,,,,,,,AMSA15.jpg,AMNE20.jpg,AMSA11.jpg,AMNE01.jpg,AMSA15.jpg,MS,2,num_8,32,num_6,0.633516251459,,,2017_Jul_24_1625,60.0246622042,FEMA4ImagesEEG,001,200989,
AFNE22.JPG,AFSA24.JPG,AFSA22.JPG,AFNE25.JPG,AFNE24.JPG,AFSA25.JPG,,,,,,,,,,,,,0,5,5,6,,,,,,,,,,,AMNE15.jpg,AMNE06.jpg,AMSA20.jpg,AMSA04.jpg,AMSA20.jpg,MS,2,num_2,32,num_6,0.750120036886,,,2017_Jul_24_1625,60.0246622042,FEMA4ImagesEEG,001,200989,
AFSA25.JPG,AFNE24.JPG,AFSA24.JPG,AFNE21.JPG,AFSA21.JPG,AFNE25.JPG,,,,,,,,,,,,,0,6,6,2,,,,,,,,,,,AMNE11.jpg,AMSA18.jpg,AMNE17.jpg,AMSA04.jpg,AMSA04.jpg,MS,2,num_4,16,num_4,0.700103182113,,,2017_Jul_24_1625,60.0246622042,FEMA4ImagesEEG,001,200989,
AFSA21.JPG,AFNE23.JPG,AFNE21.JPG,AFSA25.JPG,AFNE25.JPG,AFSA23.JPG,,,,,,,,,,,,,0,7,7,4,,,,,,,,,,,AMNE05.jpg,AMNE01.jpg,AMSA10.jpg,AMSA19.jpg,AMSA10.jpg,MS,2,num_2,32,num_8,0.800147476373,,,2017_Jul_24_1625,60.0246622042,FEMA4ImagesEEG,001,200989,
AMNE23.JPG,AMNE24.JPG,AMNE22.JPG,AMSA24.JPG,AMSA22.JPG,AMSA23.JPG,,,,,,,,,,,,,0,8,8,9,,,,,,,,,,,AMNE07.jpg,AMNE06.jpg,AMSA12.jpg,AMSA02.jpg,AMNE07.jpg,MN,1,num_8,32,num_2,0.833461789764,,,2017_Jul_24_1625,60.0246622042,FEMA4ImagesEEG,001,200989,
AMNE22.JPG,AMSA24.JPG,AMSA22.JPG,AMNE25.JPG,AMNE24.JPG,AMSA25.JPG,,,,,,,,,,,,,0,9,9,7,,,,,,,,,,,AMSA03.jpg,AMNE08.jpg,AMNE15.jpg,AMSA08.jpg,AMSA08.jpg,MS,2,num_4,32,num_6,0.650109741255,,,2017_Jul_24_1625,60.0246622042,FEMA4ImagesEEG,001,200989,
AFSA25.JPG,AFNE24.JPG,AFSA24.JPG,AFNE21.JPG,AFSA21.JPG,AFNE25.JPG,,,,,,,,,,,,,,,,,0,0,0,2,,,,,,,AFNE16.jpg,AFNE05.jpg,AFSA14.jpg,AFSA02.jpg,AFSA14.jpg,FS,4,num_2,32,num_8,0.516663892311,,,2017_Jul_24_1625,60.0246622042,FEMA4ImagesEEG,001,200989,
AMSA21.JPG,AMNE22.JPG,AMNE21.JPG,AMSA23.JPG,AMSA22.JPG,AMNE23.JPG,,,,,,,,,,,,,,,,,0,1,1,1,,,,,,,AFSA19.jpg,AFSA12.jpg,AFNE14.jpg,AFNE04.jpg,AFNE14.jpg,FN,3,num_2,32,num_6,0.516810470494,,,2017_Jul_24_1625,60.0246622042,FEMA4ImagesEEG,001,200989,
AMSA25.JPG,AMNE24.JPG,AMSA24.JPG,AMNE26.JPG,AMSA21.JPG,AMNE25.JPG,,,,,,,,,,,,,,,,,0,2,2,3,,,,,,,AFSA20.jpg,AFNE11.jpg,AFNE03.jpg,AFSA16.jpg,AFSA16.jpg,FS,4,num_4,16,num_4,0.433495980571,,,2017_Jul_24_1625,60.0246622042,FEMA4ImagesEEG,001,200989,
AFSA21.JPG,AFNE22.JPG,AFNE21.JPG,AFSA23.JPG,AFSA22.JPG,AFNE23.JPG,,,,,,,,,,,,,,,,,0,3,3,0,,,,,,,AFNE18.jpg,AFSA14.jpg,AFNE01.jpg,AFSA09.jpg,AFNE01.jpg,FN,3,num_2,16,num_2,0.533615969587,,,2017_Jul_24_1625,60.0246622042,FEMA4ImagesEEG,001,200989,
AMNE22.JPG,AMSA24.JPG,AMSA22.JPG,AMNE25.JPG,AMNE24.JPG,AMSA25.JPG,,,,,,,,,,,,,,,,,0,4,4,7,,,,,,,AFSA02.jpg,AFSA05.jpg,AFNE06.jpg,AFNE01.jpg,AFSA05.jpg,FS,4,num_6,32,num_8,0.483219037647,,,2017_Jul_24_1625,60.0246622042,FEMA4ImagesEEG,001,200989,
AFSA21.JPG,AFNE23.JPG,AFNE21.JPG,AFSA25.JPG,AFNE25.JPG,AFSA23.JPG,,,,,,,,,,,,,,,,,0,5,5,4,,,,,,,AFNE07.jpg,AFSA05.jpg,AFSA01.jpg,AFNE10.jpg,AFSA05.jpg,FS,4,num_6,32,num_4,0.316955060116,,,2017_Jul_24_1625,60.0246622042,FEMA4ImagesEEG,001,200989,
AMSA21.JPG,AMNE23.JPG,AMNE21.JPG,AMSA25.JPG,AMNE25.JPG,AMSA23.JPG,,,,,,,,,,,,,,,,,0,6,6,5,,,,,,,AFSA06.jpg,AFNE16.jpg,AFNE20.jpg,AFSA10.jpg,AFNE20.jpg,FN,3,num_2,32,num_6,0.433668859536,,,2017_Jul_24_1625,60.0246622042,FEMA4ImagesEEG,001,200989,
AMNE23.JPG,AMNE24.JPG,AMNE22.JPG,AMSA24.JPG,AMSA22.JPG,AMSA23.JPG,,,,,,,,,,,,,,,,,0,7,7,9,,,,,,,AFNE12.jpg,AFSA08.jpg,AFNE05.jpg,AFSA12.jpg,AFSA12.jpg,FS,4,num_4,16,num_4,0.617023153347,,,2017_Jul_24_1625,60.0246622042,FEMA4ImagesEEG,001,200989,
AFNE22.JPG,AFSA24.JPG,AFSA22.JPG,AFNE25.JPG,AFNE24.JPG,AFSA25.JPG,,,,,,,,,,,,,,,,,0,8,8,6,,,,,,,AFSA15.jpg,AFSA08.jpg,AFNE15.jpg,AFNE06.jpg,AFSA08.jpg,FS,4,num_6,32,num_8,0.666825433029,,,2017_Jul_24_1625,60.0246622042,FEMA4ImagesEEG,001,200989,
AFNE23.JPG,AFNE24.JPG,AFNE22.JPG,AFSA24.JPG,AFSA22.JPG,AFSA23.JPG,,,,,,,,,,,,,,,,,0,9,9,8,,,,,,,AFNE17.jpg,AFNE12.jpg,AFSA17.jpg,AFSA05.jpg,AFNE12.jpg,FN,3,num_6,16,num_6,0.466805162258,,,2017_Jul_24_1625,60.0246622042,FEMA4ImagesEEG,001,200989,
AFSA21.JPG,AFNE23.JPG,AFNE21.JPG,AFSA25.JPG,AFNE25.JPG,AFSA23.JPG,,,,,,,,,,,,,,,,,,,,,0,0,0,4,,,AMSA04.jpg,AMNE14.jpg,AMNE04.jpg,AMSA18.jpg,AMSA18.jpg,MS,2,num_4,16,num_4,0.400108538452,,,2017_Jul_24_1625,60.0246622042,FEMA4ImagesEEG,001,200989,
AFSA25.JPG,AFNE24.JPG,AFSA24.JPG,AFNE21.JPG,AFSA21.JPG,AFNE25.JPG,,,,,,,,,,,,,,,,,,,,,0,1,1,2,,,AMNE17.jpg,AMSA13.jpg,AMNE07.jpg,AMSA10.jpg,AMNE17.jpg,MN,1,num_8,16,num_8,0.833448639489,,,2017_Jul_24_1625,60.0246622042,FEMA4ImagesEEG,001,200989,
AMSA25.JPG,AMNE24.JPG,AMSA24.JPG,AMNE26.JPG,AMSA21.JPG,AMNE25.JPG,,,,,,,,,,,,,,,,,,,,,0,2,2,3,,,AMNE07.jpg,AMNE17.jpg,AMSA03.jpg,AMSA12.jpg,AMNE07.jpg,MN,1,num_8,16,num_8,0.683517390047,,,2017_Jul_24_1625,60.0246622042,FEMA4ImagesEEG,001,200989,
AMSA21.JPG,AMNE22.JPG,AMNE21.JPG,AMSA23.JPG,AMSA22.JPG,AMNE23.JPG,,,,,,,,,,,,,,,,,,,,,0,3,3,1,,,AMNE04.jpg,AMSA13.jpg,AMSA05.jpg,AMNE05.jpg,AMNE04.jpg,MN,1,num_8,16,num_8,0.383346339338,,,2017_Jul_24_1625,60.0246622042,FEMA4ImagesEEG,001,200989,
AMSA21.JPG,AMNE23.JPG,AMNE21.JPG,AMSA25.JPG,AMNE25.JPG,AMSA23.JPG,,,,,,,,,,,,,,,,,,,,,0,4,4,5,,,AMNE20.jpg,AMSA03.jpg,AMNE04.jpg,AMSA01.jpg,AMSA01.jpg,MS,2,num_4,16,num_4,0.633487705491,,,2017_Jul_24_1625,60.0246622042,FEMA4ImagesEEG,001,200989,
AMNE22.JPG,AMSA24.JPG,AMSA22.JPG,AMNE25.JPG,AMNE24.JPG,AMSA25.JPG,,,,,,,,,,,,,,,,,,,,,0,5,5,7,,,AMSA15.jpg,AMNE07.jpg,AMNE02.jpg,AMSA02.jpg,AMSA02.jpg,MS,2,num_4,32,num_2,0.766788900713,,,2017_Jul_24_1625,60.0246622042,FEMA4ImagesEEG,001,200989,
AFNE23.JPG,AFNE24.JPG,AFNE22.JPG,AFSA24.JPG,AFSA22.JPG,AFSA23.JPG,,,,,,,,,,,,,,,,,,,,,0,6,6,8,,,AMSA02.jpg,AMNE19.jpg,AMSA19.jpg,AMNE02.jpg,AMNE02.jpg,MN,1,num_4,32,num_8,0.716754084337,,,2017_Jul_24_1625,60.0246622042,FEMA4ImagesEEG,001,200989,
AFSA21.JPG,AFNE22.JPG,AFNE21.JPG,AFSA23.JPG,AFSA22.JPG,AFNE23.JPG,,,,,,,,,,,,,,,,,,,,,0,7,7,0,,,AMNE06.jpg,AMNE02.jpg,AMSA15.jpg,AMSA10.jpg,AMNE06.jpg,MN,1,num_8,16,num_8,0.883421232109,,,2017_Jul_24_1625,60.0246622042,FEMA4ImagesEEG,001,200989,
AFNE22.JPG,AFSA24.JPG,AFSA22.JPG,AFNE25.JPG,AFNE24.JPG,AFSA25.JPG,,,,,,,,,,,,,,,,,,,,,0,8,8,6,,,AMNE19.jpg,AMSA14.jpg,AMSA03.jpg,AMNE02.jpg,AMNE02.jpg,MN,1,num_4,32,num_2,0.666761605768,,,2017_Jul_24_1625,60.0246622042,FEMA4ImagesEEG,001,200989,
AMNE23.JPG,AMNE24.JPG,AMNE22.JPG,AMSA24.JPG,AMSA22.JPG,AMSA23.JPG,,,,,,,,,,,,,,,,,,,,,0,9,9,9,,,AMSA11.jpg,AMNE07.jpg,AMSA04.jpg,AMNE13.jpg,AMSA11.jpg,MS,2,num_8,32,num_4,0.667118910234,,,2017_Jul_24_1625,60.0246622042,FEMA4ImagesEEG,001,200989,
,,,,,,,,,,,,,,,,,,,,,,,,,,,,,,,,,,,,,,,,,,,space,3.26661201264,2017_Jul_24_1625,60.0246622042,FEMA4ImagesEEG,001,200989,
AFNE01.JPG,AFNE01.JPG,AFNE01.JPG,AFNE01.JPG,AFNE01.JPG,AFNE01.JPG,0,0,0,1,,,,,,,,,,,,,,,,,,,,,,,AFNE09.jpg,AFSA13.jpg,AFSA10.jpg,AFNE03.jpg,AFSA10.jpg,FS,4,num_2,32,num_8,0.766744959401,,,2017_Jul_24_1625,60.0246622042,FEMA4ImagesEEG,001,200989,
AFNE01.JPG,AFNE01.JPG,AFNE01.JPG,AFNE01.JPG,AFNE01.JPG,AFNE01.JPG,0,1,1,6,,,,,,,,,,,,,,,,,,,,,,,AFNE18.jpg,AFSA11.jpg,AFNE09.jpg,AFSA16.jpg,AFSA11.jpg,FS,4,num_6,16,num_6,0.500146417879,,,2017_Jul_24_1625,60.0246622042,FEMA4ImagesEEG,001,200989,
AFNE01.JPG,AFNE01.JPG,AFNE01.JPG,AFNE01.JPG,AFNE01.JPG,AFNE01.JPG,0,2,2,3,,,,,,,,,,,,,,,,,,,,,,,AFNE04.jpg,AFSA13.jpg,AFSA08.jpg,AFNE03.jpg,AFSA08.jpg,FS,4,num_2,16,num_2,0.683528295136,,,2017_Jul_24_1625,60.0246622042,FEMA4ImagesEEG,001,200989,
AFNE01.JPG,AFNE01.JPG,AFNE01.JPG,AFNE01.JPG,AFNE01.JPG,AFNE01.JPG,0,3,3,8,,,,,,,,,,,,,,,,,,,,,,,AFSA14.jpg,AFNE06.jpg,AFSA06.jpg,AFNE17.jpg,AFNE06.jpg,FN,3,num_6,16,num_6,0.483449970488,,,2017_Jul_24_1625,60.0246622042,FEMA4ImagesEEG,001,200989,
AFNE01.JPG,AFNE01.JPG,AFNE01.JPG,AFNE01.JPG,AFNE01.JPG,AFNE01.JPG,0,4,4,4,,,,,,,,,,,,,,,,,,,,,,,AFNE03.jpg,AFSA10.jpg,AFNE01.jpg,AFSA16.jpg,AFNE01.jpg,FN,3,num_2,32,num_8,0.583531791344,,,2017_Jul_24_1625,60.0246622042,FEMA4ImagesEEG,001,200989,
AFNE01.JPG,AFNE01.JPG,AFNE01.JPG,AFNE01.JPG,AFNE01.JPG,AFNE01.JPG,0,5,5,9,,,,,,,,,,,,,,,,,,,,,,,AFNE16.jpg,AFNE15.jpg,AFSA09.jpg,AFSA15.jpg,AFSA09.jpg,FS,4,num_2,32,num_4,0.866933586658,,,2017_Jul_24_1625,60.0246622042,FEMA4ImagesEEG,001,200989,
AFNE01.JPG,AFNE01.JPG,AFNE01.JPG,AFNE01.JPG,AFNE01.JPG,AFNE01.JPG,0,6,6,7,,,,,,,,,,,,,,,,,,,,,,,AFSA15.jpg,AFNE20.jpg,AFSA03.jpg,AFNE03.jpg,AFNE20.jpg,FN,3,num_6,32,num_8,0.516709437361,,,2017_Jul_24_1625,60.0246622042,FEMA4ImagesEEG,001,200989,
AFNE01.JPG,AFNE01.JPG,AFNE01.JPG,AFNE01.JPG,AFNE01.JPG,AFNE01.JPG,0,7,7,5,,,,,,,,,,,,,,,,,,,,,,,AFNE02.jpg,AFSA07.jpg,AFNE18.jpg,AFSA13.jpg,AFSA13.jpg,FS,4,num_4,32,num_2,0.483561588102,,,2017_Jul_24_1625,60.0246622042,FEMA4ImagesEEG,001,200989,
AFNE01.JPG,AFNE01.JPG,AFNE01.JPG,AFNE01.JPG,AFNE01.JPG,AFNE01.JPG,0,8,8,0,,,,,,,,,,,,,,,,,,,,,,,AFNE07.jpg,AFSA15.jpg,AFNE13.jpg,AFSA12.jpg,AFNE07.jpg,FN,3,num_8,32,num_6,0.416829362162,,,2017_Jul_24_1625,60.0246622042,FEMA4ImagesEEG,001,200989,
AFNE01.JPG,AFNE01.JPG,AFNE01.JPG,AFNE01.JPG,AFNE01.JPG,AFNE01.JPG,0,9,9,2,,,,,,,,,,,,,,,,,,,,,,,AFSA09.jpg,AFNE18.jpg,AFSA18.jpg,AFNE02.jpg,AFSA18.jpg,FS,4,num_2,32,num_8,0.966796662542,,,2017_Jul_24_1625,60.0246622042,FEMA4ImagesEEG,001,200989,
AFNE01.JPG,AFNE01.JPG,AFNE01.JPG,AFNE01.JPG,AFNE01.JPG,AFNE01.JPG,1,0,10,3,,,,,,,,,,,,,,,,,,,,,,,AFSA11.jpg,AFNE19.jpg,AFSA13.jpg,AFNE02.jpg,AFNE02.jpg,FN,3,num_4,32,num_2,0.866779952077,,,2017_Jul_24_1625,60.0246622042,FEMA4ImagesEEG,001,200989,
AFNE01.JPG,AFNE01.JPG,AFNE01.JPG,AFNE01.JPG,AFNE01.JPG,AFNE01.JPG,1,1,11,2,,,,,,,,,,,,,,,,,,,,,,,AFNE11.jpg,AFNE02.jpg,AFSA18.jpg,AFSA20.jpg,AFSA20.jpg,FS,4,num_4,32,num_8,0.516790905269,,,2017_Jul_24_1625,60.0246622042,FEMA4ImagesEEG,001,200989,
AFNE01.JPG,AFNE01.JPG,AFNE01.JPG,AFNE01.JPG,AFNE01.JPG,AFNE01.JPG,1,2,12,9,,,,,,,,,,,,,,,,,,,,,,,AFNE13.jpg,AFSA14.jpg,AFSA18.jpg,AFNE06.jpg,AFNE06.jpg,FN,3,num_4,16,num_4,0.600136506953,,,2017_Jul_24_1625,60.0246622042,FEMA4ImagesEEG,001,200989,
AFNE01.JPG,AFNE01.JPG,AFNE01.JPG,AFNE01.JPG,AFNE01.JPG,AFNE01.JPG,1,3,13,8,,,,,,,,,,,,,,,,,,,,,,,AFNE15.jpg,AFNE18.jpg,AFSA09.jpg,AFSA02.jpg,AFSA02.jpg,FS,4,num_4,32,num_6,0.516742473585,,,2017_Jul_24_1625,60.0246622042,FEMA4ImagesEEG,001,200989,
AFNE01.JPG,AFNE01.JPG,AFNE01.JPG,AFNE01.JPG,AFNE01.JPG,AFNE01.JPG,1,4,14,1,,,,,,,,,,,,,,,,,,,,,,,AFNE05.jpg,AFNE08.jpg,AFSA04.jpg,AFSA15.jpg,AFSA04.jpg,FS,4,num_2,32,num_4,0.650077025639,,,2017_Jul_24_1625,60.0246622042,FEMA4ImagesEEG,001,200989,
AFNE01.JPG,AFNE01.JPG,AFNE01.JPG,AFNE01.JPG,AFNE01.JPG,AFNE01.JPG,1,5,15,4,,,,,,,,,,,,,,,,,,,,,,,AFNE10.jpg,AFSA16.jpg,AFNE07.jpg,AFSA10.jpg,AFNE07.jpg,FN,3,num_2,32,num_8,0.917224353529,,,2017_Jul_24_1625,60.0246622042,FEMA4ImagesEEG,001,200989,
AFNE01.JPG,AFNE01.JPG,AFNE01.JPG,AFNE01.JPG,AFNE01.JPG,AFNE01.JPG,1,6,16,6,,,,,,,,,,,,,,,,,,,,,,,AFSA09.jpg,AFNE14.jpg,AFNE13.jpg,AFSA19.jpg,AFSA09.jpg,FS,4,num_8,32,num_4,0.483442593366,,,2017_Jul_24_1625,60.0246622042,FEMA4ImagesEEG,001,200989,
AFNE01.JPG,AFNE01.JPG,AFNE01.JPG,AFNE01.JPG,AFNE01.JPG,AFNE01.JPG,1,7,17,5,,,,,,,,,,,,,,,,,,,,,,,AFSA15.jpg,AFNE11.jpg,AFNE04.jpg,AFSA17.jpg,AFNE11.jpg,FN,3,num_6,32,num_4,0.666781812324,,,2017_Jul_24_1625,60.0246622042,FEMA4ImagesEEG,001,200989,
AFNE01.JPG,AFNE01.JPG,AFNE01.JPG,AFNE01.JPG,AFNE01.JPG,AFNE01.JPG,1,8,18,7,,,,,,,,,,,,,,,,,,,,,,,AFNE06.jpg,AFSA16.jpg,AFNE12.jpg,AFSA02.jpg,AFSA16.jpg,FS,4,num_6,16,num_6,0.716770442203,,,2017_Jul_24_1625,60.0246622042,FEMA4ImagesEEG,001,200989,
AFNE01.JPG,AFNE01.JPG,AFNE01.JPG,AFNE01.JPG,AFNE01.JPG,AFNE01.JPG,1,9,19,0,,,,,,,,,,,,,,,,,,,,,,,AFSA14.jpg,AFSA12.jpg,AFNE13.jpg,AFNE10.jpg,AFSA12.jpg,FS,4,num_6,16,num_6,0.416808193317,,,2017_Jul_24_1625,60.0246622042,FEMA4ImagesEEG,001,200989,
AFNE01.JPG,AFNE01.JPG,AFNE01.JPG,AFNE01.JPG,AFNE01.JPG,AFNE01.JPG,2,0,20,4,,,,,,,,,,,,,,,,,,,,,,,AFSA08.jpg,AFNE20.jpg,AFSA04.jpg,AFNE12.jpg,AFSA08.jpg,FS,4,num_8,32,num_2,1.26673710125,,,2017_Jul_24_1625,60.0246622042,FEMA4ImagesEEG,001,200989,
AFNE01.JPG,AFNE01.JPG,AFNE01.JPG,AFNE01.JPG,AFNE01.JPG,AFNE01.JPG,2,1,21,1,,,,,,,,,,,,,,,,,,,,,,,AFNE17.jpg,AFSA11.jpg,AFNE10.jpg,AFSA16.jpg,AFNE10.jpg,FN,3,num_2,16,num_2,0.816779454937,,,2017_Jul_24_1625,60.0246622042,FEMA4ImagesEEG,001,200989,
AFNE01.JPG,AFNE01.JPG,AFNE01.JPG,AFNE01.JPG,AFNE01.JPG,AFNE01.JPG,2,2,22,8,,,,,,,,,,,,,,,,,,,,,,,AFSA08.jpg,AFNE11.jpg,AFNE09.jpg,AFSA06.jpg,AFNE09.jpg,FN,3,num_2,32,num_8,0.68339550891,,,2017_Jul_24_1625,60.0246622042,FEMA4ImagesEEG,001,200989,
AFNE01.JPG,AFNE01.JPG,AFNE01.JPG,AFNE01.JPG,AFNE01.JPG,AFNE01.JPG,2,3,23,9,,,,,,,,,,,,,,,,,,,,,,,AFNE18.jpg,AFNE09.jpg,AFSA04.jpg,AFSA10.jpg,AFNE18.jpg,FN,3,num_8,32,num_2,0.566787553602,,,2017_Jul_24_1625,60.0246622042,FEMA4ImagesEEG,001,200989,
AFNE01.JPG,AFNE01.JPG,AFNE01.JPG,AFNE01.JPG,AFNE01.JPG,AFNE01.JPG,2,4,24,3,,,,,,,,,,,,,,,,,,,,,,,AFSA04.jpg,AFNE16.jpg,AFSA01.jpg,AFNE08.jpg,AFNE08.jpg,FN,3,num_4,32,num_6,0.500132946763,,,2017_Jul_24_1625,60.0246622042,FEMA4ImagesEEG,001,200989,
AFNE01.JPG,AFNE01.JPG,AFNE01.JPG,AFNE01.JPG,AFNE01.JPG,AFNE01.JPG,2,5,25,5,,,,,,,,,,,,,,,,,,,,,,,AFSA20.jpg,AFNE10.jpg,AFSA12.jpg,AFNE17.jpg,AFSA12.jpg,FS,4,num_2,16,num_2,0.483434574911,,,2017_Jul_24_1625,60.0246622042,FEMA4ImagesEEG,001,200989,
AFNE01.JPG,AFNE01.JPG,AFNE01.JPG,AFNE01.JPG,AFNE01.JPG,AFNE01.JPG,2,6,26,6,,,,,,,,,,,,,,,,,,,,,,,AFSA07.jpg,AFNE04.jpg,AFSA16.jpg,AFNE14.jpg,AFSA07.jpg,FS,4,num_8,32,num_4,0.516849921551,,,2017_Jul_24_1625,60.0246622042,FEMA4ImagesEEG,001,200989,
AFNE01.JPG,AFNE01.JPG,AFNE01.JPG,AFNE01.JPG,AFNE01.JPG,AFNE01.JPG,2,7,27,2,,,,,,,,,,,,,,,,,,,,,,,AFNE11.jpg,AFSA13.jpg,AFSA08.jpg,AFNE17.jpg,AFNE17.jpg,FN,3,num_4,16,num_4,0.550167442416,,,2017_Jul_24_1625,60.0246622042,FEMA4ImagesEEG,001,200989,
AFNE01.JPG,AFNE01.JPG,AFNE01.JPG,AFNE01.JPG,AFNE01.JPG,AFNE01.JPG,2,8,28,7,,,,,,,,,,,,,,,,,,,,,,,AFSA17.jpg,AFSA05.jpg,AFNE01.jpg,AFNE11.jpg,AFNE01.jpg,FN,3,num_2,32,num_8,0.816746739438,,,2017_Jul_24_1625,60.0246622042,FEMA4ImagesEEG,001,200989,
AFNE01.JPG,AFNE01.JPG,AFNE01.JPG,AFNE01.JPG,AFNE01.JPG,AFNE01.JPG,2,9,29,0,,,,,,,,,,,,,,,,,,,,,,,AFNE08.jpg,AFSA17.jpg,AFNE14.jpg,AFSA19.jpg,AFNE14.jpg,FN,3,num_2,16,num_2,0.88342411886,,,2017_Jul_24_1625,60.0246622042,FEMA4ImagesEEG,001,200989,
AFNE01.JPG,AFNE01.JPG,AFNE01.JPG,AFNE01.JPG,AFNE01.JPG,AFNE01.JPG,3,0,30,1,,,,,,,,,,,,,,,,,,,,,,,AFSA03.jpg,AFSA16.jpg,AFNE04.jpg,AFNE08.jpg,AFNE04.jpg,FN,3,num_2,32,num_8,0.750177128706,,,2017_Jul_24_1625,60.0246622042,FEMA4ImagesEEG,001,200989,
AFNE01.JPG,AFNE01.JPG,AFNE01.JPG,AFNE01.JPG,AFNE01.JPG,AFNE01.JPG,3,1,31,9,,,,,,,,,,,,,,,,,,,,,,,AFSA17.jpg,AFNE03.jpg,AFNE10.jpg,AFSA16.jpg,AFSA17.jpg,FS,4,num_8,32,num_6,0.700163481175,,,2017_Jul_24_1625,60.0246622042,FEMA4ImagesEEG,001,200989,
AFNE01.JPG,AFNE01.JPG,AFNE01.JPG,AFNE01.JPG,AFNE01.JPG,AFNE01.JPG,3,2,32,7,,,,,,,,,,,,,,,,,,,,,,,AFSA16.jpg,AFNE09.jpg,AFSA01.jpg,AFNE18.jpg,AFNE18.jpg,FN,3,num_4,16,num_4,0.533516219351,,,2017_Jul_24_1625,60.0246622042,FEMA4ImagesEEG,001,200989,
AFNE01.JPG,AFNE01.JPG,AFNE01.JPG,AFNE01.JPG,AFNE01.JPG,AFNE01.JPG,3,3,33,0,,,,,,,,,,,,,,,,,,,,,,,AFNE06.jpg,AFSA17.jpg,AFNE20.jpg,AFSA19.jpg,AFSA19.jpg,FS,4,num_4,16,num_4,0.516883599339,,,2017_Jul_24_1625,60.0246622042,FEMA4ImagesEEG,001,200989,
AFNE01.JPG,AFNE01.JPG,AFNE01.JPG,AFNE01.JPG,AFNE01.JPG,AFNE01.JPG,3,4,34,5,,,,,,,,,,,,,,,,,,,,,,,AFNE14.jpg,AFSA04.jpg,AFNE10.jpg,AFSA19.jpg,AFSA04.jpg,FS,4,num_6,16,num_6,0.500241677742,,,2017_Jul_24_1625,60.0246622042,FEMA4ImagesEEG,001,200989,
AFNE01.JPG,AFNE01.JPG,AFNE01.JPG,AFNE01.JPG,AFNE01.JPG,AFNE01.JPG,3,5,35,3,,,,,,,,,,,,,,,,,,,,,,,AFNE13.jpg,AFSA07.jpg,AFSA15.jpg,AFNE10.jpg,AFSA15.jpg,FS,4,num_2,16,num_2,0.900126660243,,,2017_Jul_24_1625,60.0246622042,FEMA4ImagesEEG,001,200989,
AFNE01.JPG,AFNE01.JPG,AFNE01.JPG,AFNE01.JPG,AFNE01.JPG,AFNE01.JPG,3,6,36,4,,,,,,,,,,,,,,,,,,,,,,,AFNE19.jpg,AFSA07.jpg,AFSA04.jpg,AFNE13.jpg,AFNE19.jpg,FN,3,num_8,16,num_8,0.983436980518,,,2017_Jul_24_1625,60.0246622042,FEMA4ImagesEEG,001,200989,
AFNE01.JPG,AFNE01.JPG,AFNE01.JPG,AFNE01.JPG,AFNE01.JPG,AFNE01.JPG,3,7,37,8,,,,,,,,,,,,,,,,,,,,,,,AFNE01.jpg,AFNE18.jpg,AFSA08.jpg,AFSA10.jpg,AFSA08.jpg,FS,4,num_2,32,num_6,0.433510413859,,,2017_Jul_24_1625,60.0246622042,FEMA4ImagesEEG,001,200989,
AFNE01.JPG,AFNE01.JPG,AFNE01.JPG,AFNE01.JPG,AFNE01.JPG,AFNE01.JPG,3,8,38,6,,,,,,,,,,,,,,,,,,,,,,,AFNE10.jpg,AFSA18.jpg,AFNE16.jpg,AFSA17.jpg,AFSA17.jpg,FS,4,num_4,32,num_2,0.750097264419,,,2017_Jul_24_1625,60.0246622042,FEMA4ImagesEEG,001,200989,
AFNE01.JPG,AFNE01.JPG,AFNE01.JPG,AFNE01.JPG,AFNE01.JPG,AFNE01.JPG,3,9,39,2,,,,,,,,,,,,,,,,,,,,,,,AFNE08.jpg,AFSA13.jpg,AFSA14.jpg,AFNE09.jpg,AFNE08.jpg,FN,3,num_8,16,num_8,0.550132802455,,,2017_Jul_24_1625,60.0246622042,FEMA4ImagesEEG,001,200989,
AFNE01.JPG,AFNE01.JPG,AFNE01.JPG,AFNE01.JPG,AFNE01.JPG,AFNE01.JPG,4,0,40,6,,,,,,,,,,,,,,,,,,,,,,,AFSA10.jpg,AFNE01.jpg,AFNE03.jpg,AFSA14.jpg,AFSA14.jpg,FS,4,num_4,32,num_2,0.833476223052,,,2017_Jul_24_1625,60.0246622042,FEMA4ImagesEEG,001,200989,
AFNE01.JPG,AFNE01.JPG,AFNE01.JPG,AFNE01.JPG,AFNE01.JPG,AFNE01.JPG,4,1,41,9,,,,,,,,,,,,,,,,,,,,,,,AFSA15.jpg,AFNE07.jpg,AFNE12.jpg,AFSA09.jpg,AFNE07.jpg,FN,3,num_6,16,num_6,0.750146979117,,,2017_Jul_24_1625,60.0246622042,FEMA4ImagesEEG,001,200989,
AFNE01.JPG,AFNE01.JPG,AFNE01.JPG,AFNE01.JPG,AFNE01.JPG,AFNE01.JPG,4,2,42,1,,,,,,,,,,,,,,,,,,,,,,,AFSA14.jpg,AFNE13.jpg,AFNE02.jpg,AFSA04.jpg,AFSA04.jpg,FS,4,num_4,32,num_2,0.533728869981,,,2017_Jul_24_1625,60.0246622042,FEMA4ImagesEEG,001,200989,
AFNE01.JPG,AFNE01.JPG,AFNE01.JPG,AFNE01.JPG,AFNE01.JPG,AFNE01.JPG,4,3,43,0,,,,,,,,,,,,,,,,,,,,,,,AFSA14.jpg,AFSA02.jpg,AFNE06.jpg,AFNE17.jpg,AFNE06.jpg,FN,3,num_2,32,num_6,0.450113846688,,,2017_Jul_24_1625,60.0246622042,FEMA4ImagesEEG,001,200989,
AFNE01.JPG,AFNE01.JPG,AFNE01.JPG,AFNE01.JPG,AFNE01.JPG,AFNE01.JPG,4,4,44,8,,,,,,,,,,,,,,,,,,,,,,,AFNE05.jpg,AFNE03.jpg,AFSA11.jpg,AFSA09.jpg,AFNE03.jpg,FN,3,num_6,32,num_8,0.78343595413,,,2017_Jul_24_1625,60.0246622042,FEMA4ImagesEEG,001,200989,
AFNE01.JPG,AFNE01.JPG,AFNE01.JPG,AFNE01.JPG,AFNE01.JPG,AFNE01.JPG,4,5,45,5,,,,,,,,,,,,,,,,,,,,,,,AFSA14.jpg,AFSA12.jpg,AFNE16.jpg,AFNE02.jpg,AFSA12.jpg,FS,4,num_6,16,num_6,0.416805948014,,,2017_Jul_24_1625,60.0246622042,FEMA4ImagesEEG,001,200989,
AFNE01.JPG,AFNE01.JPG,AFNE01.JPG,AFNE01.JPG,AFNE01.JPG,AFNE01.JPG,4,6,46,7,,,,,,,,,,,,,,,,,,,,,,,AFSA10.jpg,AFNE08.jpg,AFNE01.jpg,AFSA07.jpg,AFNE08.jpg,FN,3,num_6,32,num_4,0.500123645295,,,2017_Jul_24_1625,60.0246622042,FEMA4ImagesEEG,001,200989,
AFNE01.JPG,AFNE01.JPG,AFNE01.JPG,AFNE01.JPG,AFNE01.JPG,AFNE01.JPG,4,7,47,2,,,,,,,,,,,,,,,,,,,,,,,AFSA11.jpg,AFNE03.jpg,AFNE14.jpg,AFSA02.jpg,AFSA11.jpg,FS,4,num_8,16,num_8,0.400160498335,,,2017_Jul_24_1625,60.0246622042,FEMA4ImagesEEG,001,200989,
AFNE01.JPG,AFNE01.JPG,AFNE01.JPG,AFNE01.JPG,AFNE01.JPG,AFNE01.JPG,4,8,48,4,,,,,,,,,,,,,,,,,,,,,,,AFSA08.jpg,AFNE14.jpg,AFSA14.jpg,AFNE06.jpg,AFSA14.jpg,FS,4,num_2,16,num_2,1.11673625116,,,2017_Jul_24_1625,60.0246622042,FEMA4ImagesEEG,001,200989,
AFNE01.JPG,AFNE01.JPG,AFNE01.JPG,AFNE01.JPG,AFNE01.JPG,AFNE01.JPG,4,9,49,3,,,,,,,,,,,,,,,,,,,,,,,AFNE17.jpg,AFSA04.jpg,AFNE02.jpg,AFSA06.jpg,AFSA06.jpg,FS,4,num_4,32,num_8,0.866756538046,,,2017_Jul_24_1625,60.0246622042,FEMA4ImagesEEG,001,200989,
AFNE01.JPG,AFNE01.JPG,AFNE01.JPG,AFNE01.JPG,AFNE01.JPG,AFNE01.JPG,5,0,50,3,,,,,,,,,,,,,,,,,,,,,,,AFNE10.jpg,AFSA03.jpg,AFSA14.jpg,AFNE18.jpg,AFNE18.jpg,FN,3,num_4,32,num_8,0.916747733718,,,2017_Jul_24_1625,60.0246622042,FEMA4ImagesEEG,001,200989,
AFNE01.JPG,AFNE01.JPG,AFNE01.JPG,AFNE01.JPG,AFNE01.JPG,AFNE01.JPG,5,1,51,7,,,,,,,,,,,,,,,,,,,,,,,AFNE06.jpg,AFSA03.jpg,AFNE08.jpg,AFSA18.jpg,AFNE06.jpg,FN,3,num_8,16,num_8,0.90009907668,,,2017_Jul_24_1625,60.0246622042,FEMA4ImagesEEG,001,200989,
AFNE01.JPG,AFNE01.JPG,AFNE01.JPG,AFNE01.JPG,AFNE01.JPG,AFNE01.JPG,5,2,52,2,,,,,,,,,,,,,,,,,,,,,,,AFNE12.jpg,AFSA08.jpg,AFSA10.jpg,AFNE07.jpg,AFSA10.jpg,FS,4,num_2,16,num_2,0.816801265348,,,2017_Jul_24_1625,60.0246622042,FEMA4ImagesEEG,001,200989,
AFNE01.JPG,AFNE01.JPG,AFNE01.JPG,AFNE01.JPG,AFNE01.JPG,AFNE01.JPG,5,3,53,1,,,,,,,,,,,,,,,,,,,,,,,AFNE19.jpg,AFNE09.jpg,AFSA12.jpg,AFSA01.jpg,AFNE19.jpg,FN,3,num_8,16,num_8,0.983456545626,,,2017_Jul_24_1625,60.0246622042,FEMA4ImagesEEG,001,200989,
AFNE01.JPG,AFNE01.JPG,AFNE01.JPG,AFNE01.JPG,AFNE01.JPG,AFNE01.JPG,5,4,54,9,,,,,,,,,,,,,,,,,,,,,,,AFSA13.jpg,AFNE12.jpg,AFNE16.jpg,AFSA09.jpg,AFNE16.jpg,FN,3,num_2,16,num_2,0.650120325619,,,2017_Jul_24_1625,60.0246622042,FEMA4ImagesEEG,001,200989,
AFNE01.JPG,AFNE01.JPG,AFNE01.JPG,AFNE01.JPG,AFNE01.JPG,AFNE01.JPG,5,5,55,5,,,,,,,,,,,,,,,,,,,,,,,AFSA09.jpg,AFSA18.jpg,AFNE01.jpg,AFNE20.jpg,AFSA18.jpg,FS,4,num_6,16,num_6,0.716790648759,,,2017_Jul_24_1625,60.0246622042,FEMA4ImagesEEG,001,200989,
AFNE01.JPG,AFNE01.JPG,AFNE01.JPG,AFNE01.JPG,AFNE01.JPG,AFNE01.JPG,5,6,56,0,,,,,,,,,,,,,,,,,,,,,,,AFNE01.jpg,AFNE04.jpg,AFSA19.jpg,AFSA04.jpg,AFSA19.jpg,FS,4,num_2,32,num_8,0.716839401284,,,2017_Jul_24_1625,60.0246622042,FEMA4ImagesEEG,001,200989,
AFNE01.JPG,AFNE01.JPG,AFNE01.JPG,AFNE01.JPG,AFNE01.JPG,AFNE01.JPG,5,7,57,4,,,,,,,,,,,,,,,,,,,,,,,AFSA13.jpg,AFNE15.jpg,AFSA10.jpg,AFNE19.jpg,AFNE19.jpg,FN,3,num_4,32,num_2,0.70016668865,,,2017_Jul_24_1625,60.0246622042,FEMA4ImagesEEG,001,200989,
AFNE01.JPG,AFNE01.JPG,AFNE01.JPG,AFNE01.JPG,AFNE01.JPG,AFNE01.JPG,5,8,58,6,,,,,,,,,,,,,,,,,,,,,,,AFNE11.jpg,AFSA12.jpg,AFSA13.jpg,AFNE18.jpg,AFNE18.jpg,FN,3,num_4,16,num_4,0.650168436696,,,2017_Jul_24_1625,60.0246622042,FEMA4ImagesEEG,001,200989,
AFNE01.JPG,AFNE01.JPG,AFNE01.JPG,AFNE01.JPG,AFNE01.JPG,AFNE01.JPG,5,9,59,8,,,,,,,,,,,,,,,,,,,,,,,AFSA17.jpg,AFSA12.jpg,AFNE15.jpg,AFNE17.jpg,AFSA12.jpg,FS,4,num_6,16,num_6,0.450168372481,,,2017_Jul_24_1625,60.0246622042,FEMA4ImagesEEG,001,200989,
,,,,,,,,,,,,,,,,,,,,,,,,,,,,,,,,,,,,,,,,,,,space,1.99999711337,2017_Jul_24_1625,60.0246622042,FEMA4ImagesEEG,001,200989,
AFNE01.JPG,AFNE01.JPG,AFNE01.JPG,AFNE01.JPG,AFNE01.JPG,AFNE01.JPG,,,,,0,0,0,3,,,,,,,,,,,,,,,,,,,AMSA07.jpg,AMSA04.jpg,AMNE06.jpg,AMNE05.jpg,AMSA04.jpg,MS,2,num_6,16,num_6,0.483628301998,,,2017_Jul_24_1625,60.0246622042,FEMA4ImagesEEG,001,200989,
AFNE01.JPG,AFNE01.JPG,AFNE01.JPG,AFNE01.JPG,AFNE01.JPG,AFNE01.JPG,,,,,0,1,1,4,,,,,,,,,,,,,,,,,,,AMNE07.jpg,AMSA18.jpg,AMNE04.jpg,AMSA15.jpg,AMNE04.jpg,MN,1,num_2,16,num_2,0.89996981842,,,2017_Jul_24_1625,60.0246622042,FEMA4ImagesEEG,001,200989,
AFNE01.JPG,AFNE01.JPG,AFNE01.JPG,AFNE01.JPG,AFNE01.JPG,AFNE01.JPG,,,,,0,2,2,6,,,,,,,,,,,,,,,,,,,AMSA13.jpg,AMSA08.jpg,AMNE04.jpg,AMNE14.jpg,AMNE04.jpg,MN,1,num_2,32,num_8,1.11676704232,,,2017_Jul_24_1625,60.0246622042,FEMA4ImagesEEG,001,200989,
AFNE01.JPG,AFNE01.JPG,AFNE01.JPG,AFNE01.JPG,AFNE01.JPG,AFNE01.JPG,,,,,0,3,3,9,,,,,,,,,,,,,,,,,,,AMNE02.jpg,AMSA14.jpg,AMSA09.jpg,AMNE08.jpg,AMSA09.jpg,MS,2,num_2,32,num_8,0.800200077705,,,2017_Jul_24_1625,60.0246622042,FEMA4ImagesEEG,001,200989,
AFNE01.JPG,AFNE01.JPG,AFNE01.JPG,AFNE01.JPG,AFNE01.JPG,AFNE01.JPG,,,,,0,4,4,0,,,,,,,,,,,,,,,,,,,AMSA16.jpg,AMSA10.jpg,AMNE04.jpg,AMNE01.jpg,AMNE04.jpg,MN,1,num_2,16,num_2,0.75018610945,,,2017_Jul_24_1625,60.0246622042,FEMA4ImagesEEG,001,200989,
AFNE01.JPG,AFNE01.JPG,AFNE01.JPG,AFNE01.JPG,AFNE01.JPG,AFNE01.JPG,,,,,0,5,5,8,,,,,,,,,,,,,,,,,,,AMNE02.jpg,AMSA20.jpg,AMNE03.jpg,AMSA07.jpg,AMSA07.jpg,MS,2,num_4,16,num_4,0.650145984837,,,2017_Jul_24_1625,60.0246622042,FEMA4ImagesEEG,001,200989,
AFNE01.JPG,AFNE01.JPG,AFNE01.JPG,AFNE01.JPG,AFNE01.JPG,AFNE01.JPG,,,,,0,6,6,2,,,,,,,,,,,,,,,,,,,AMNE03.jpg,AMSA12.jpg,AMNE16.jpg,AMSA03.jpg,AMSA03.jpg,MS,2,num_4,16,num_4,0.533165329602,,,2017_Jul_24_1625,60.0246622042,FEMA4ImagesEEG,001,200989,
AFNE01.JPG,AFNE01.JPG,AFNE01.JPG,AFNE01.JPG,AFNE01.JPG,AFNE01.JPG,,,,,0,7,7,7,,,,,,,,,,,,,,,,,,,AMNE04.jpg,AMSA12.jpg,AMSA15.jpg,AMNE07.jpg,AMNE07.jpg,MN,1,num_4,32,num_6,0.500160530442,,,2017_Jul_24_1625,60.0246622042,FEMA4ImagesEEG,001,200989,
AFNE01.JPG,AFNE01.JPG,AFNE01.JPG,AFNE01.JPG,AFNE01.JPG,AFNE01.JPG,,,,,0,8,8,1,,,,,,,,,,,,,,,,,,,AMNE01.jpg,AMSA02.jpg,AMNE02.jpg,AMSA10.jpg,AMSA02.jpg,MS,2,num_6,32,num_2,0.800133684534,,,2017_Jul_24_1625,60.0246622042,FEMA4ImagesEEG,001,200989,
AFNE01.JPG,AFNE01.JPG,AFNE01.JPG,AFNE01.JPG,AFNE01.JPG,AFNE01.JPG,,,,,0,9,9,5,,,,,,,,,,,,,,,,,,,AMSA17.jpg,AMNE01.jpg,AMNE15.jpg,AMSA09.jpg,AMNE15.jpg,MN,1,num_2,32,num_4,0.600128488499,,,2017_Jul_24_1625,60.0246622042,FEMA4ImagesEEG,001,200989,
AFNE01.JPG,AFNE01.JPG,AFNE01.JPG,AFNE01.JPG,AFNE01.JPG,AFNE01.JPG,,,,,1,0,10,0,,,,,,,,,,,,,,,,,,,AMSA01.jpg,AMSA14.jpg,AMNE09.jpg,AMNE16.jpg,AMSA14.jpg,MS,2,num_6,16,num_6,0.60012271523,,,2017_Jul_24_1625,60.0246622042,FEMA4ImagesEEG,001,200989,
AFNE01.JPG,AFNE01.JPG,AFNE01.JPG,AFNE01.JPG,AFNE01.JPG,AFNE01.JPG,,,,,1,1,11,4,,,,,,,,,,,,,,,,,,,AMSA02.jpg,AMSA20.jpg,AMNE10.jpg,AMNE16.jpg,AMSA20.jpg,MS,2,num_6,32,num_2,0.883413534379,,,2017_Jul_24_1625,60.0246622042,FEMA4ImagesEEG,001,200989,
AFNE01.JPG,AFNE01.JPG,AFNE01.JPG,AFNE01.JPG,AFNE01.JPG,AFNE01.JPG,,,,,1,2,12,6,,,,,,,,,,,,,,,,,,,AMSA12.jpg,AMSA20.jpg,AMNE16.jpg,AMNE05.jpg,AMNE05.jpg,MN,1,num_4,16,num_4,0.600233370438,,,2017_Jul_24_1625,60.0246622042,FEMA4ImagesEEG,001,200989,
AFNE01.JPG,AFNE01.JPG,AFNE01.JPG,AFNE01.JPG,AFNE01.JPG,AFNE01.JPG,,,,,1,3,13,2,,,,,,,,,,,,,,,,,,,AMSA05.jpg,AMSA03.jpg,AMNE11.jpg,AMNE17.jpg,AMSA03.jpg,MS,2,num_6,16,num_6,0.666769624222,,,2017_Jul_24_1625,60.0246622042,FEMA4ImagesEEG,001,200989,
AFNE01.JPG,AFNE01.JPG,AFNE01.JPG,AFNE01.JPG,AFNE01.JPG,AFNE01.JPG,,,,,1,4,14,1,,,,,,,,,,,,,,,,,,,AMNE14.jpg,AMNE20.jpg,AMSA14.jpg,AMSA09.jpg,AMNE14.jpg,MN,1,num_8,16,num_8,1.1500630735,,,2017_Jul_24_1625,60.0246622042,FEMA4ImagesEEG,001,200989,
AFNE01.JPG,AFNE01.JPG,AFNE01.JPG,AFNE01.JPG,AFNE01.JPG,AFNE01.JPG,,,,,1,5,15,9,,,,,,,,,,,,,,,,,,,AMSA12.jpg,AMSA05.jpg,AMNE01.jpg,AMNE16.jpg,AMNE16.jpg,MN,1,num_4,32,num_6,0.616813389235,,,2017_Jul_24_1625,60.0246622042,FEMA4ImagesEEG,001,200989,
AFNE01.JPG,AFNE01.JPG,AFNE01.JPG,AFNE01.JPG,AFNE01.JPG,AFNE01.JPG,,,,,1,6,16,5,,,,,,,,,,,,,,,,,,,AMSA04.jpg,AMSA09.jpg,AMNE03.jpg,AMNE18.jpg,AMNE18.jpg,MN,1,num_4,16,num_4,0.700150651624,,,2017_Jul_24_1625,60.0246622042,FEMA4ImagesEEG,001,200989,
AFNE01.JPG,AFNE01.JPG,AFNE01.JPG,AFNE01.JPG,AFNE01.JPG,AFNE01.JPG,,,,,1,7,17,7,,,,,,,,,,,,,,,,,,,AMNE05.jpg,AMSA02.jpg,AMSA05.jpg,AMNE11.jpg,AMSA02.jpg,MS,2,num_6,16,num_6,0.450112884515,,,2017_Jul_24_1625,60.0246622042,FEMA4ImagesEEG,001,200989,
AFNE01.JPG,AFNE01.JPG,AFNE01.JPG,AFNE01.JPG,AFNE01.JPG,AFNE01.JPG,,,,,1,8,18,8,,,,,,,,,,,,,,,,,,,AMNE20.jpg,AMSA09.jpg,AMNE16.jpg,AMSA11.jpg,AMNE20.jpg,MN,1,num_8,32,num_2,0.749794165022,,,2017_Jul_24_1625,60.0246622042,FEMA4ImagesEEG,001,200989,
AFNE01.JPG,AFNE01.JPG,AFNE01.JPG,AFNE01.JPG,AFNE01.JPG,AFNE01.JPG,,,,,1,9,19,3,,,,,,,,,,,,,,,,,,,AMNE20.jpg,AMSA11.jpg,AMNE15.jpg,AMSA14.jpg,AMSA14.jpg,MS,2,num_4,16,num_4,0.600118866307,,,2017_Jul_24_1625,60.0246622042,FEMA4ImagesEEG,001,200989,
AFNE01.JPG,AFNE01.JPG,AFNE01.JPG,AFNE01.JPG,AFNE01.JPG,AFNE01.JPG,,,,,2,0,20,5,,,,,,,,,,,,,,,,,,,AMSA04.jpg,AMNE17.jpg,AMSA08.jpg,AMNE20.jpg,AMSA04.jpg,MS,2,num_8,32,num_6,0.666797207901,,,2017_Jul_24_1625,60.0246622042,FEMA4ImagesEEG,001,200989,
AFNE01.JPG,AFNE01.JPG,AFNE01.JPG,AFNE01.JPG,AFNE01.JPG,AFNE01.JPG,,,,,2,1,21,0,,,,,,,,,,,,,,,,,,,AMSA10.jpg,AMNE06.jpg,AMNE01.jpg,AMSA01.jpg,AMNE01.jpg,MN,1,num_2,32,num_4,0.800146834808,,,2017_Jul_24_1625,60.0246622042,FEMA4ImagesEEG,001,200989,
AFNE01.JPG,AFNE01.JPG,AFNE01.JPG,AFNE01.JPG,AFNE01.JPG,AFNE01.JPG,,,,,2,2,22,1,,,,,,,,,,,,,,,,,,,AMNE05.jpg,AMSA08.jpg,AMNE15.jpg,AMSA09.jpg,AMSA08.jpg,MS,2,num_6,32,num_8,0.850102749071,,,2017_Jul_24_1625,60.0246622042,FEMA4ImagesEEG,001,200989,
AFNE01.JPG,AFNE01.JPG,AFNE01.JPG,AFNE01.JPG,AFNE01.JPG,AFNE01.JPG,,,,,2,3,23,7,,,,,,,,,,,,,,,,,,,AMNE04.jpg,AMNE16.jpg,AMSA13.jpg,AMSA05.jpg,AMSA13.jpg,MS,2,num_2,32,num_4,0.700129162055,,,2017_Jul_24_1625,60.0246622042,FEMA4ImagesEEG,001,200989,
AFNE01.JPG,AFNE01.JPG,AFNE01.JPG,AFNE01.JPG,AFNE01.JPG,AFNE01.JPG,,,,,2,4,24,8,,,,,,,,,,,,,,,,,,,AMNE01.jpg,AMNE10.jpg,AMSA19.jpg,AMSA04.jpg,AMSA19.jpg,MS,2,num_2,16,num_2,0.616936232662,,,2017_Jul_24_1625,60.0246622042,FEMA4ImagesEEG,001,200989,
AFNE01.JPG,AFNE01.JPG,AFNE01.JPG,AFNE01.JPG,AFNE01.JPG,AFNE01.JPG,,,,,2,5,25,2,,,,,,,,,,,,,,,,,,,AMNE08.jpg,AMNE11.jpg,AMSA17.jpg,AMSA03.jpg,AMSA17.jpg,MS,2,num_2,32,num_6,0.566801666166,,,2017_Jul_24_1625,60.0246622042,FEMA4ImagesEEG,001,200989,
AFNE01.JPG,AFNE01.JPG,AFNE01.JPG,AFNE01.JPG,AFNE01.JPG,AFNE01.JPG,,,,,2,6,26,4,,,,,,,,,,,,,,,,,,,AMSA01.jpg,AMSA19.jpg,AMNE18.jpg,AMNE19.jpg,AMSA19.jpg,MS,2,num_6,32,num_8,0.583508377196,,,2017_Jul_24_1625,60.0246622042,FEMA4ImagesEEG,001,200989,
AFNE01.JPG,AFNE01.JPG,AFNE01.JPG,AFNE01.JPG,AFNE01.JPG,AFNE01.JPG,,,,,2,7,27,3,,,,,,,,,,,,,,,,,,,AMNE15.jpg,AMSA08.jpg,AMNE19.jpg,AMSA09.jpg,AMSA08.jpg,MS,2,num_6,32,num_4,0.700112162856,,,2017_Jul_24_1625,60.0246622042,FEMA4ImagesEEG,001,200989,
AFNE01.JPG,AFNE01.JPG,AFNE01.JPG,AFNE01.JPG,AFNE01.JPG,AFNE01.JPG,,,,,2,8,28,6,,,,,,,,,,,,,,,,,,,AMNE16.jpg,AMNE09.jpg,AMSA07.jpg,AMSA20.jpg,AMNE09.jpg,MN,1,num_6,16,num_6,0.716761461343,,,2017_Jul_24_1625,60.0246622042,FEMA4ImagesEEG,001,200989,
AFNE01.JPG,AFNE01.JPG,AFNE01.JPG,AFNE01.JPG,AFNE01.JPG,AFNE01.JPG,,,,,2,9,29,9,,,,,,,,,,,,,,,,,,,AMSA15.jpg,AMNE17.jpg,AMSA14.jpg,AMNE12.jpg,AMNE12.jpg,MN,1,num_4,16,num_4,0.68356774631,,,2017_Jul_24_1625,60.0246622042,FEMA4ImagesEEG,001,200989,
AFNE01.JPG,AFNE01.JPG,AFNE01.JPG,AFNE01.JPG,AFNE01.JPG,AFNE01.JPG,,,,,3,0,30,3,,,,,,,,,,,,,,,,,,,AMNE15.jpg,AMSA17.jpg,AMNE16.jpg,AMSA03.jpg,AMNE16.jpg,MN,1,num_2,16,num_2,1.1001539873,,,2017_Jul_24_1625,60.0246622042,FEMA4ImagesEEG,001,200989,
AFNE01.JPG,AFNE01.JPG,AFNE01.JPG,AFNE01.JPG,AFNE01.JPG,AFNE01.JPG,,,,,3,1,31,0,,,,,,,,,,,,,,,,,,,AMSA12.jpg,AMNE18.jpg,AMSA14.jpg,AMNE17.jpg,AMNE17.jpg,MN,1,num_4,16,num_4,0.500120758661,,,2017_Jul_24_1625,60.0246622042,FEMA4ImagesEEG,001,200989,
AFNE01.JPG,AFNE01.JPG,AFNE01.JPG,AFNE01.JPG,AFNE01.JPG,AFNE01.JPG,,,,,3,2,32,7,,,,,,,,,,,,,,,,,,,AMNE12.jpg,AMSA20.jpg,AMNE07.jpg,AMSA13.jpg,AMNE07.jpg,MN,1,num_2,32,num_6,1.3167876337,,,2017_Jul_24_1625,60.0246622042,FEMA4ImagesEEG,001,200989,
AFNE01.JPG,AFNE01.JPG,AFNE01.JPG,AFNE01.JPG,AFNE01.JPG,AFNE01.JPG,,,,,3,3,33,1,,,,,,,,,,,,,,,,,,,AMSA09.jpg,AMNE08.jpg,AMSA04.jpg,AMNE09.jpg,AMNE08.jpg,MN,1,num_6,32,num_8,0.383848618367,,,2017_Jul_24_1625,60.0246622042,FEMA4ImagesEEG,001,200989,
AFNE01.JPG,AFNE01.JPG,AFNE01.JPG,AFNE01.JPG,AFNE01.JPG,AFNE01.JPG,,,,,3,4,34,6,,,,,,,,,,,,,,,,,,,AMNE10.jpg,AMSA13.jpg,AMNE07.jpg,AMSA04.jpg,AMSA04.jpg,MS,2,num_4,32,num_2,0.583436852205,,,2017_Jul_24_1625,60.0246622042,FEMA4ImagesEEG,001,200989,
AFNE01.JPG,AFNE01.JPG,AFNE01.JPG,AFNE01.JPG,AFNE01.JPG,AFNE01.JPG,,,,,3,5,35,5,,,,,,,,,,,,,,,,,,,AMSA18.jpg,AMNE11.jpg,AMSA19.jpg,AMNE02.jpg,AMSA18.jpg,MS,2,num_8,16,num_8,0.500128777116,,,2017_Jul_24_1625,60.0246622042,FEMA4ImagesEEG,001,200989,
AFNE01.JPG,AFNE01.JPG,AFNE01.JPG,AFNE01.JPG,AFNE01.JPG,AFNE01.JPG,,,,,3,6,36,9,,,,,,,,,,,,,,,,,,,AMSA10.jpg,AMNE09.jpg,AMSA11.jpg,AMNE16.jpg,AMSA10.jpg,MS,2,num_8,16,num_8,0.783457764541,,,2017_Jul_24_1625,60.0246622042,FEMA4ImagesEEG,001,200989,
AFNE01.JPG,AFNE01.JPG,AFNE01.JPG,AFNE01.JPG,AFNE01.JPG,AFNE01.JPG,,,,,3,7,37,2,,,,,,,,,,,,,,,,,,,AMSA07.jpg,AMNE05.jpg,AMNE04.jpg,AMSA14.jpg,AMSA14.jpg,MS,2,num_4,16,num_4,0.516762038693,,,2017_Jul_24_1625,60.0246622042,FEMA4ImagesEEG,001,200989,
AFNE01.JPG,AFNE01.JPG,AFNE01.JPG,AFNE01.JPG,AFNE01.JPG,AFNE01.JPG,,,,,3,8,38,8,,,,,,,,,,,,,,,,,,,AMSA11.jpg,AMNE01.jpg,AMSA03.jpg,AMNE03.jpg,AMSA11.jpg,MS,2,num_8,16,num_8,0.666761605651,,,2017_Jul_24_1625,60.0246622042,FEMA4ImagesEEG,001,200989,
AFNE01.JPG,AFNE01.JPG,AFNE01.JPG,AFNE01.JPG,AFNE01.JPG,AFNE01.JPG,,,,,3,9,39,4,,,,,,,,,,,,,,,,,,,AMSA08.jpg,AMNE08.jpg,AMSA09.jpg,AMNE06.jpg,AMSA08.jpg,MS,2,num_8,32,num_6,0.733449890278,,,2017_Jul_24_1625,60.0246622042,FEMA4ImagesEEG,001,200989,
AFNE01.JPG,AFNE01.JPG,AFNE01.JPG,AFNE01.JPG,AFNE01.JPG,AFNE01.JPG,,,,,4,0,40,8,,,,,,,,,,,,,,,,,,,AMSA05.jpg,AMNE16.jpg,AMNE09.jpg,AMSA16.jpg,AMSA16.jpg,MS,2,num_4,32,num_2,0.916735545616,,,2017_Jul_24_1625,60.0246622042,FEMA4ImagesEEG,001,200989,
AFNE01.JPG,AFNE01.JPG,AFNE01.JPG,AFNE01.JPG,AFNE01.JPG,AFNE01.JPG,,,,,4,1,41,3,,,,,,,,,,,,,,,,,,,AMSA11.jpg,AMSA05.jpg,AMNE11.jpg,AMNE16.jpg,AMNE16.jpg,MN,1,num_4,32,num_6,0.750093094772,,,2017_Jul_24_1625,60.0246622042,FEMA4ImagesEEG,001,200989,
AFNE01.JPG,AFNE01.JPG,AFNE01.JPG,AFNE01.JPG,AFNE01.JPG,AFNE01.JPG,,,,,4,2,42,7,,,,,,,,,,,,,,,,,,,AMNE16.jpg,AMNE07.jpg,AMSA13.jpg,AMSA08.jpg,AMSA13.jpg,MS,2,num_2,32,num_6,0.750215617474,,,2017_Jul_24_1625,60.0246622042,FEMA4ImagesEEG,001,200989,
AFNE01.JPG,AFNE01.JPG,AFNE01.JPG,AFNE01.JPG,AFNE01.JPG,AFNE01.JPG,,,,,4,3,43,1,,,,,,,,,,,,,,,,,,,AMNE09.jpg,AMSA17.jpg,AMSA11.jpg,AMNE05.jpg,AMNE05.jpg,MN,1,num_4,16,num_4,0.950128119555,,,2017_Jul_24_1625,60.0246622042,FEMA4ImagesEEG,001,200989,
AFNE01.JPG,AFNE01.JPG,AFNE01.JPG,AFNE01.JPG,AFNE01.JPG,AFNE01.JPG,,,,,4,4,44,9,,,,,,,,,,,,,,,,,,,AMSA03.jpg,AMNE03.jpg,AMSA01.jpg,AMNE11.jpg,AMSA01.jpg,MS,2,num_2,32,num_6,1.58368702955,,,2017_Jul_24_1625,60.0246622042,FEMA4ImagesEEG,001,200989,
AFNE01.JPG,AFNE01.JPG,AFNE01.JPG,AFNE01.JPG,AFNE01.JPG,AFNE01.JPG,,,,,4,5,45,0,,,,,,,,,,,,,,,,,,,AMNE12.jpg,AMSA01.jpg,AMSA15.jpg,AMNE15.jpg,AMNE12.jpg,MN,1,num_8,16,num_8,0.716883984045,,,2017_Jul_24_1625,60.0246622042,FEMA4ImagesEEG,001,200989,
AFNE01.JPG,AFNE01.JPG,AFNE01.JPG,AFNE01.JPG,AFNE01.JPG,AFNE01.JPG,,,,,4,6,46,4,,,,,,,,,,,,,,,,,,,AMNE07.jpg,AMSA10.jpg,AMSA09.jpg,AMNE09.jpg,AMSA10.jpg,MS,2,num_6,16,num_6,0.583498113556,,,2017_Jul_24_1625,60.0246622042,FEMA4ImagesEEG,001,200989,
AFNE01.JPG,AFNE01.JPG,AFNE01.JPG,AFNE01.JPG,AFNE01.JPG,AFNE01.JPG,,,,,4,7,47,6,,,,,,,,,,,,,,,,,,,AMSA15.jpg,AMNE14.jpg,AMSA03.jpg,AMNE19.jpg,AMNE14.jpg,MN,1,num_6,32,num_2,0.649984652526,,,2017_Jul_24_1625,60.0246622042,FEMA4ImagesEEG,001,200989,
AFNE01.JPG,AFNE01.JPG,AFNE01.JPG,AFNE01.JPG,AFNE01.JPG,AFNE01.JPG,,,,,4,8,48,2,,,,,,,,,,,,,,,,,,,AMNE06.jpg,AMSA06.jpg,AMSA12.jpg,AMNE13.jpg,AMSA06.jpg,MS,2,num_6,16,num_6,0.650100439787,,,2017_Jul_24_1625,60.0246622042,FEMA4ImagesEEG,001,200989,
AFNE01.JPG,AFNE01.JPG,AFNE01.JPG,AFNE01.JPG,AFNE01.JPG,AFNE01.JPG,,,,,4,9,49,5,,,,,,,,,,,,,,,,,,,AMSA19.jpg,AMSA03.jpg,AMNE18.jpg,AMNE07.jpg,AMSA19.jpg,MS,2,num_8,16,num_8,0.883469022461,,,2017_Jul_24_1625,60.0246622042,FEMA4ImagesEEG,001,200989,
AFNE01.JPG,AFNE01.JPG,AFNE01.JPG,AFNE01.JPG,AFNE01.JPG,AFNE01.JPG,,,,,5,0,50,7,,,,,,,,,,,,,,,,,,,AMSA04.jpg,AMNE07.jpg,AMNE20.jpg,AMSA13.jpg,AMNE07.jpg,MN,1,num_6,32,num_4,0.616766240448,,,2017_Jul_24_1625,60.0246622042,FEMA4ImagesEEG,001,200989,
AFNE01.JPG,AFNE01.JPG,AFNE01.JPG,AFNE01.JPG,AFNE01.JPG,AFNE01.JPG,,,,,5,1,51,3,,,,,,,,,,,,,,,,,,,AMSA17.jpg,AMNE18.jpg,AMSA06.jpg,AMNE10.jpg,AMNE10.jpg,MN,1,num_4,32,num_2,0.883438231423,,,2017_Jul_24_1625,60.0246622042,FEMA4ImagesEEG,001,200989,
AFNE01.JPG,AFNE01.JPG,AFNE01.JPG,AFNE01.JPG,AFNE01.JPG,AFNE01.JPG,,,,,5,2,52,1,,,,,,,,,,,,,,,,,,,AMSA15.jpg,AMSA02.jpg,AMNE15.jpg,AMNE01.jpg,AMSA15.jpg,MS,2,num_8,32,num_4,0.91678910912,,,2017_Jul_24_1625,60.0246622042,FEMA4ImagesEEG,001,200989,
AFNE01.JPG,AFNE01.JPG,AFNE01.JPG,AFNE01.JPG,AFNE01.JPG,AFNE01.JPG,,,,,5,3,53,6,,,,,,,,,,,,,,,,,,,AMNE09.jpg,AMSA09.jpg,AMNE06.jpg,AMSA15.jpg,AMNE06.jpg,MN,1,num_2,32,num_8,0.783188984264,,,2017_Jul_24_1625,60.0246622042,FEMA4ImagesEEG,001,200989,
AFNE01.JPG,AFNE01.JPG,AFNE01.JPG,AFNE01.JPG,AFNE01.JPG,AFNE01.JPG,,,,,5,4,54,4,,,,,,,,,,,,,,,,,,,AMSA11.jpg,AMNE05.jpg,AMNE12.jpg,AMSA18.jpg,AMNE12.jpg,MN,1,num_2,32,num_6,0.566792043974,,,2017_Jul_24_1625,60.0246622042,FEMA4ImagesEEG,001,200989,
AFNE01.JPG,AFNE01.JPG,AFNE01.JPG,AFNE01.JPG,AFNE01.JPG,AFNE01.JPG,,,,,5,5,55,5,,,,,,,,,,,,,,,,,,,AMNE15.jpg,AMSA14.jpg,AMSA04.jpg,AMNE18.jpg,AMNE15.jpg,MN,1,num_8,16,num_8,1.08341584378,,,2017_Jul_24_1625,60.0246622042,FEMA4ImagesEEG,001,200989,
AFNE01.JPG,AFNE01.JPG,AFNE01.JPG,AFNE01.JPG,AFNE01.JPG,AFNE01.JPG,,,,,5,6,56,9,,,,,,,,,,,,,,,,,,,AMNE04.jpg,AMSA06.jpg,AMNE20.jpg,AMSA13.jpg,AMNE20.jpg,MN,1,num_2,32,num_4,0.733477794682,,,2017_Jul_24_1625,60.0246622042,FEMA4ImagesEEG,001,200989,
AFNE01.JPG,AFNE01.JPG,AFNE01.JPG,AFNE01.JPG,AFNE01.JPG,AFNE01.JPG,,,,,5,7,57,0,,,,,,,,,,,,,,,,,,,AMNE04.jpg,AMNE02.jpg,AMSA06.jpg,AMSA18.jpg,AMNE02.jpg,MN,1,num_6,32,num_8,0.733462719945,,,2017_Jul_24_1625,60.0246622042,FEMA4ImagesEEG,001,200989,
AFNE01.JPG,AFNE01.JPG,AFNE01.JPG,AFNE01.JPG,AFNE01.JPG,AFNE01.JPG,,,,,5,8,58,2,,,,,,,,,,,,,,,,,,,AMSA20.jpg,AMNE14.jpg,AMNE09.jpg,AMSA09.jpg,AMSA09.jpg,MS,2,num_4,32,num_2,0.716791931773,,,2017_Jul_24_1625,60.0246622042,FEMA4ImagesEEG,001,200989,
AFNE01.JPG,AFNE01.JPG,AFNE01.JPG,AFNE01.JPG,AFNE01.JPG,AFNE01.JPG,,,,,5,9,59,8,,,,,,,,,,,,,,,,,,,AMNE01.jpg,AMSA13.jpg,AMSA03.jpg,AMNE11.jpg,AMNE01.jpg,MN,1,num_8,32,num_6,0.900150074391,,,2017_Jul_24_1625,60.0246622042,FEMA4ImagesEEG,001,200989,
,,,,,,,,,,,,,,,,,,,,,,,,,,,,,,,,,,,,,,,,,,,space,19.015420864,2017_Jul_24_1625,60.0246622042,FEMA4ImagesEEG,001,200989,
AFNE01.JPG,AFNE01.JPG,AFNE01.JPG,AFNE01.JPG,AFNE01.JPG,AFNE01.JPG,,,,,,,,,0,0,0,0,,,,,,,,,,,,,,,AFSA06.jpg,AFNE08.jpg,AFSA12.jpg,AFNE09.jpg,AFNE08.jpg,FN,3,num_6,32,num_2,0.383451862843,,,2017_Jul_24_1625,60.0246622042,FEMA4ImagesEEG,001,200989,
AFNE01.JPG,AFNE01.JPG,AFNE01.JPG,AFNE01.JPG,AFNE01.JPG,AFNE01.JPG,,,,,,,,,0,1,1,6,,,,,,,,,,,,,,,AFNE12.jpg,AFSA15.jpg,AFSA20.jpg,AFNE07.jpg,AFSA20.jpg,FS,4,num_2,32,num_6,0.650265941629,,,2017_Jul_24_1625,60.0246622042,FEMA4ImagesEEG,001,200989,
AFNE01.JPG,AFNE01.JPG,AFNE01.JPG,AFNE01.JPG,AFNE01.JPG,AFNE01.JPG,,,,,,,,,0,2,2,9,,,,,,,,,,,,,,,AFSA02.jpg,AFSA04.jpg,AFNE06.jpg,AFNE12.jpg,AFSA02.jpg,FS,4,num_8,16,num_8,0.700097408844,,,2017_Jul_24_1625,60.0246622042,FEMA4ImagesEEG,001,200989,
AFNE01.JPG,AFNE01.JPG,AFNE01.JPG,AFNE01.JPG,AFNE01.JPG,AFNE01.JPG,,,,,,,,,0,3,3,3,,,,,,,,,,,,,,,AFSA03.jpg,AFSA11.jpg,AFNE03.jpg,AFNE07.jpg,AFNE03.jpg,FN,3,num_2,32,num_8,0.81707678095,,,2017_Jul_24_1625,60.0246622042,FEMA4ImagesEEG,001,200989,
AFNE01.JPG,AFNE01.JPG,AFNE01.JPG,AFNE01.JPG,AFNE01.JPG,AFNE01.JPG,,,,,,,,,0,4,4,1,,,,,,,,,,,,,,,AFSA17.jpg,AFSA20.jpg,AFNE18.jpg,AFNE11.jpg,AFNE18.jpg,FN,3,num_2,16,num_2,0.733440268086,,,2017_Jul_24_1625,60.0246622042,FEMA4ImagesEEG,001,200989,
AFNE01.JPG,AFNE01.JPG,AFNE01.JPG,AFNE01.JPG,AFNE01.JPG,AFNE01.JPG,,,,,,,,,0,5,5,4,,,,,,,,,,,,,,,AFSA05.jpg,AFNE04.jpg,AFNE19.jpg,AFSA02.jpg,AFNE04.jpg,FN,3,num_6,16,num_6,3.48331397667,,,2017_Jul_24_1625,60.0246622042,FEMA4ImagesEEG,001,200989,
AFNE01.JPG,AFNE01.JPG,AFNE01.JPG,AFNE01.JPG,AFNE01.JPG,AFNE01.JPG,,,,,,,,,0,6,6,2,,,,,,,,,,,,,,,AFNE16.jpg,AFNE10.jpg,AFSA07.jpg,AFSA08.jpg,AFSA07.jpg,FS,4,num_2,32,num_6,0.650174209964,,,2017_Jul_24_1625,60.0246622042,FEMA4ImagesEEG,001,200989,
AFNE01.JPG,AFNE01.JPG,AFNE01.JPG,AFNE01.JPG,AFNE01.JPG,AFNE01.JPG,,,,,,,,,0,7,7,8,,,,,,,,,,,,,,,AFSA04.jpg,AFNE16.jpg,AFNE17.jpg,AFSA14.jpg,AFSA04.jpg,FS,4,num_8,16,num_8,0.616647887393,,,2017_Jul_24_1625,60.0246622042,FEMA4ImagesEEG,001,200989,
AFNE01.JPG,AFNE01.JPG,AFNE01.JPG,AFNE01.JPG,AFNE01.JPG,AFNE01.JPG,,,,,,,,,0,8,8,5,,,,,,,,,,,,,,,AFSA18.jpg,AFNE03.jpg,AFSA03.jpg,AFNE06.jpg,AFNE06.jpg,FN,3,num_4,16,num_4,0.73343289108,,,2017_Jul_24_1625,60.0246622042,FEMA4ImagesEEG,001,200989,
AFNE01.JPG,AFNE01.JPG,AFNE01.JPG,AFNE01.JPG,AFNE01.JPG,AFNE01.JPG,,,,,,,,,0,9,9,7,,,,,,,,,,,,,,,AFSA18.jpg,AFNE18.jpg,AFNE16.jpg,AFSA03.jpg,AFNE18.jpg,FN,3,num_6,32,num_2,0.833586236928,,,2017_Jul_24_1625,60.0246622042,FEMA4ImagesEEG,001,200989,
AFNE01.JPG,AFNE01.JPG,AFNE01.JPG,AFNE01.JPG,AFNE01.JPG,AFNE01.JPG,,,,,,,,,1,0,10,1,,,,,,,,,,,,,,,AFSA12.jpg,AFSA14.jpg,AFNE09.jpg,AFNE11.jpg,AFNE09.jpg,FN,3,num_2,32,num_6,0.533442769898,,,2017_Jul_24_1625,60.0246622042,FEMA4ImagesEEG,001,200989,
AFNE01.JPG,AFNE01.JPG,AFNE01.JPG,AFNE01.JPG,AFNE01.JPG,AFNE01.JPG,,,,,,,,,1,1,11,9,,,,,,,,,,,,,,,AFNE18.jpg,AFNE09.jpg,AFSA10.jpg,AFSA13.jpg,AFSA10.jpg,FS,4,num_2,32,num_8,0.966860169196,,,2017_Jul_24_1625,60.0246622042,FEMA4ImagesEEG,001,200989,
AFNE01.JPG,AFNE01.JPG,AFNE01.JPG,AFNE01.JPG,AFNE01.JPG,AFNE01.JPG,,,,,,,,,1,2,12,8,,,,,,,,,,,,,,,AFSA08.jpg,AFNE05.jpg,AFSA03.jpg,AFNE09.jpg,AFNE09.jpg,FN,3,num_4,16,num_4,0.583785176044,,,2017_Jul_24_1625,60.0246622042,FEMA4ImagesEEG,001,200989,
AFNE01.JPG,AFNE01.JPG,AFNE01.JPG,AFNE01.JPG,AFNE01.JPG,AFNE01.JPG,,,,,,,,,1,3,13,0,,,,,,,,,,,,,,,AFSA12.jpg,AFNE17.jpg,AFSA01.jpg,AFNE16.jpg,AFSA01.jpg,FS,4,num_2,32,num_4,0.78353345918,,,2017_Jul_24_1625,60.0246622042,FEMA4ImagesEEG,001,200989,
AFNE01.JPG,AFNE01.JPG,AFNE01.JPG,AFNE01.JPG,AFNE01.JPG,AFNE01.JPG,,,,,,,,,1,4,14,7,,,,,,,,,,,,,,,AFSA06.jpg,AFNE04.jpg,AFSA08.jpg,AFNE15.jpg,AFNE04.jpg,FN,3,num_6,32,num_2,1.16679897194,,,2017_Jul_24_1625,60.0246622042,FEMA4ImagesEEG,001,200989,
AFNE01.JPG,AFNE01.JPG,AFNE01.JPG,AFNE01.JPG,AFNE01.JPG,AFNE01.JPG,,,,,,,,,1,5,15,2,,,,,,,,,,,,,,,AFNE12.jpg,AFSA02.jpg,AFSA14.jpg,AFNE04.jpg,AFNE04.jpg,FN,3,num_4,32,num_6,0.516732851393,,,2017_Jul_24_1625,60.0246622042,FEMA4ImagesEEG,001,200989,
AFNE01.JPG,AFNE01.JPG,AFNE01.JPG,AFNE01.JPG,AFNE01.JPG,AFNE01.JPG,,,,,,,,,1,6,16,6,,,,,,,,,,,,,,,AFSA01.jpg,AFSA20.jpg,AFNE08.jpg,AFNE07.jpg,AFNE08.jpg,FN,3,num_2,32,num_4,0.566787232878,,,2017_Jul_24_1625,60.0246622042,FEMA4ImagesEEG,001,200989,
AFNE01.JPG,AFNE01.JPG,AFNE01.JPG,AFNE01.JPG,AFNE01.JPG,AFNE01.JPG,,,,,,,,,1,7,17,3,,,,,,,,,,,,,,,AFNE12.jpg,AFSA05.jpg,AFNE18.jpg,AFSA17.jpg,AFSA17.jpg,FS,4,num_4,16,num_4,0.55013857584,,,2017_Jul_24_1625,60.0246622042,FEMA4ImagesEEG,001,200989,
AFNE01.JPG,AFNE01.JPG,AFNE01.JPG,AFNE01.JPG,AFNE01.JPG,AFNE01.JPG,,,,,,,,,1,8,18,5,,,,,,,,,,,,,,,AFNE16.jpg,AFNE01.jpg,AFSA07.jpg,AFSA01.jpg,AFNE01.jpg,FN,3,num_6,16,num_6,0.716770762927,,,2017_Jul_24_1625,60.0246622042,FEMA4ImagesEEG,001,200989,
AFNE01.JPG,AFNE01.JPG,AFNE01.JPG,AFNE01.JPG,AFNE01.JPG,AFNE01.JPG,,,,,,,,,1,9,19,4,,,,,,,,,,,,,,,AFSA15.jpg,AFNE16.jpg,AFNE05.jpg,AFSA12.jpg,AFSA15.jpg,FS,4,num_8,16,num_8,0.950140949222,,,2017_Jul_24_1625,60.0246622042,FEMA4ImagesEEG,001,200989,
AFNE01.JPG,AFNE01.JPG,AFNE01.JPG,AFNE01.JPG,AFNE01.JPG,AFNE01.JPG,,,,,,,,,2,0,20,8,,,,,,,,,,,,,,,AFSA05.jpg,AFSA04.jpg,AFNE19.jpg,AFNE15.jpg,AFNE15.jpg,FN,3,num_4,32,num_6,0.716799308779,,,2017_Jul_24_1625,60.0246622042,FEMA4ImagesEEG,001,200989,
AFNE01.JPG,AFNE01.JPG,AFNE01.JPG,AFNE01.JPG,AFNE01.JPG,AFNE01.JPG,,,,,,,,,2,1,21,6,,,,,,,,,,,,,,,AFNE09.jpg,AFNE05.jpg,AFSA16.jpg,AFSA07.jpg,AFNE09.jpg,FN,3,num_8,32,num_6,0.78350683779,,,2017_Jul_24_1625,60.0246622042,FEMA4ImagesEEG,001,200989,
AFNE01.JPG,AFNE01.JPG,AFNE01.JPG,AFNE01.JPG,AFNE01.JPG,AFNE01.JPG,,,,,,,,,2,2,22,5,,,,,,,,,,,,,,,AFSA10.jpg,AFNE20.jpg,AFSA17.jpg,AFNE01.jpg,AFNE01.jpg,FN,3,num_4,32,num_6,0.700052505126,,,2017_Jul_24_1625,60.0246622042,FEMA4ImagesEEG,001,200989,
AFNE01.JPG,AFNE01.JPG,AFNE01.JPG,AFNE01.JPG,AFNE01.JPG,AFNE01.JPG,,,,,,,,,2,3,23,2,,,,,,,,,,,,,,,AFSA01.jpg,AFSA11.jpg,AFNE16.jpg,AFNE12.jpg,AFSA01.jpg,FS,4,num_8,32,num_6,0.649808886927,,,2017_Jul_24_1625,60.0246622042,FEMA4ImagesEEG,001,200989,
AFNE01.JPG,AFNE01.JPG,AFNE01.JPG,AFNE01.JPG,AFNE01.JPG,AFNE01.JPG,,,,,,,,,2,4,24,0,,,,,,,,,,,,,,,AFSA05.jpg,AFNE14.jpg,AFSA09.jpg,AFNE03.jpg,AFSA05.jpg,FS,4,num_8,32,num_6,0.91678141139,,,2017_Jul_24_1625,60.0246622042,FEMA4ImagesEEG,001,200989,
AFNE01.JPG,AFNE01.JPG,AFNE01.JPG,AFNE01.JPG,AFNE01.JPG,AFNE01.JPG,,,,,,,,,2,5,25,7,,,,,,,,,,,,,,,AFNE19.jpg,AFSA09.jpg,AFNE01.jpg,AFSA01.jpg,AFSA01.jpg,FS,4,num_4,16,num_4,0.550107463961,,,2017_Jul_24_1625,60.0246622042,FEMA4ImagesEEG,001,200989,
AFNE01.JPG,AFNE01.JPG,AFNE01.JPG,AFNE01.JPG,AFNE01.JPG,AFNE01.JPG,,,,,,,,,2,6,26,1,,,,,,,,,,,,,,,AFSA09.jpg,AFNE10.jpg,AFSA10.jpg,AFNE08.jpg,AFNE08.jpg,FN,3,num_4,32,num_6,0.616814992973,,,2017_Jul_24_1625,60.0246622042,FEMA4ImagesEEG,001,200989,
AFNE01.JPG,AFNE01.JPG,AFNE01.JPG,AFNE01.JPG,AFNE01.JPG,AFNE01.JPG,,,,,,,,,2,7,27,9,,,,,,,,,,,,,,,AFNE09.jpg,AFSA01.jpg,AFSA14.jpg,AFNE01.jpg,AFSA01.jpg,FS,4,num_6,16,num_6,0.800130477059,,,2017_Jul_24_1625,60.0246622042,FEMA4ImagesEEG,001,200989,
AFNE01.JPG,AFNE01.JPG,AFNE01.JPG,AFNE01.JPG,AFNE01.JPG,AFNE01.JPG,,,,,,,,,2,8,28,3,,,,,,,,,,,,,,,AFNE12.jpg,AFNE20.jpg,AFSA12.jpg,AFSA08.jpg,AFNE20.jpg,FN,3,num_6,32,num_8,1.13360493607,,,2017_Jul_24_1625,60.0246622042,FEMA4ImagesEEG,001,200989,
AFNE01.JPG,AFNE01.JPG,AFNE01.JPG,AFNE01.JPG,AFNE01.JPG,AFNE01.JPG,,,,,,,,,2,9,29,4,,,,,,,,,,,,,,,AFSA14.jpg,AFNE18.jpg,AFSA12.jpg,AFNE19.jpg,AFSA14.jpg,FS,4,num_8,32,num_2,0.766741751926,,,2017_Jul_24_1625,60.0246622042,FEMA4ImagesEEG,001,200989,
AFNE01.JPG,AFNE01.JPG,AFNE01.JPG,AFNE01.JPG,AFNE01.JPG,AFNE01.JPG,,,,,,,,,3,0,30,2,,,,,,,,,,,,,,,AFSA05.jpg,AFNE20.jpg,AFNE09.jpg,AFSA11.jpg,AFNE20.jpg,FN,3,num_6,16,num_6,0.650173247792,,,2017_Jul_24_1625,60.0246622042,FEMA4ImagesEEG,001,200989,
AFNE01.JPG,AFNE01.JPG,AFNE01.JPG,AFNE01.JPG,AFNE01.JPG,AFNE01.JPG,,,,,,,,,3,1,31,3,,,,,,,,,,,,,,,AFNE03.jpg,AFSA13.jpg,AFNE09.jpg,AFSA11.jpg,AFSA11.jpg,FS,4,num_4,16,num_4,0.616783239646,,,2017_Jul_24_1625,60.0246622042,FEMA4ImagesEEG,001,200989,
AFNE01.JPG,AFNE01.JPG,AFNE01.JPG,AFNE01.JPG,AFNE01.JPG,AFNE01.JPG,,,,,,,,,3,2,32,5,,,,,,,,,,,,,,,AFNE14.jpg,AFNE12.jpg,AFSA12.jpg,AFSA07.jpg,AFSA07.jpg,FS,4,num_4,32,num_8,0.766747525195,,,2017_Jul_24_1625,60.0246622042,FEMA4ImagesEEG,001,200989,
AFNE01.JPG,AFNE01.JPG,AFNE01.JPG,AFNE01.JPG,AFNE01.JPG,AFNE01.JPG,,,,,,,,,3,3,33,9,,,,,,,,,,,,,,,AFNE19.jpg,AFNE18.jpg,AFSA15.jpg,AFSA06.jpg,AFSA15.jpg,FS,4,num_2,16,num_2,0.466795219341,,,2017_Jul_24_1625,60.0246622042,FEMA4ImagesEEG,001,200989,
AFNE01.JPG,AFNE01.JPG,AFNE01.JPG,AFNE01.JPG,AFNE01.JPG,AFNE01.JPG,,,,,,,,,3,4,34,4,,,,,,,,,,,,,,,AFNE17.jpg,AFSA15.jpg,AFSA09.jpg,AFNE05.jpg,AFNE17.jpg,FN,3,num_8,32,num_6,0.533928049612,,,2017_Jul_24_1625,60.0246622042,FEMA4ImagesEEG,001,200989,
AFNE01.JPG,AFNE01.JPG,AFNE01.JPG,AFNE01.JPG,AFNE01.JPG,AFNE01.JPG,,,,,,,,,3,5,35,1,,,,,,,,,,,,,,,AFNE20.jpg,AFSA10.jpg,AFSA07.jpg,AFNE09.jpg,AFNE20.jpg,FN,3,num_8,16,num_8,0.383482333156,,,2017_Jul_24_1625,60.0246622042,FEMA4ImagesEEG,001,200989,
AFNE01.JPG,AFNE01.JPG,AFNE01.JPG,AFNE01.JPG,AFNE01.JPG,AFNE01.JPG,,,,,,,,,3,6,36,8,,,,,,,,,,,,,,,AFSA17.jpg,AFSA09.jpg,AFNE05.jpg,AFNE19.jpg,AFNE19.jpg,FN,3,num_4,16,num_4,0.516787377186,,,2017_Jul_24_1625,60.0246622042,FEMA4ImagesEEG,001,200989,
AFNE01.JPG,AFNE01.JPG,AFNE01.JPG,AFNE01.JPG,AFNE01.JPG,AFNE01.JPG,,,,,,,,,3,7,37,7,,,,,,,,,,,,,,,AFNE01.jpg,AFNE06.jpg,AFSA05.jpg,AFSA18.jpg,AFNE06.jpg,FN,3,num_6,32,num_2,0.750109131797,,,2017_Jul_24_1625,60.0246622042,FEMA4ImagesEEG,001,200989,
AFNE01.JPG,AFNE01.JPG,AFNE01.JPG,AFNE01.JPG,AFNE01.JPG,AFNE01.JPG,,,,,,,,,3,8,38,0,,,,,,,,,,,,,,,AFNE01.jpg,AFSA12.jpg,AFNE04.jpg,AFSA16.jpg,AFSA12.jpg,FS,4,num_6,16,num_6,0.366856127861,,,2017_Jul_24_1625,60.0246622042,FEMA4ImagesEEG,001,200989,
AFNE01.JPG,AFNE01.JPG,AFNE01.JPG,AFNE01.JPG,AFNE01.JPG,AFNE01.JPG,,,,,,,,,3,9,39,6,,,,,,,,,,,,,,,AFSA14.jpg,AFNE16.jpg,AFSA06.jpg,AFNE20.jpg,AFNE20.jpg,FN,3,num_4,32,num_8,1.01675546356,,,2017_Jul_24_1625,60.0246622042,FEMA4ImagesEEG,001,200989,
AFNE01.JPG,AFNE01.JPG,AFNE01.JPG,AFNE01.JPG,AFNE01.JPG,AFNE01.JPG,,,,,,,,,4,0,40,8,,,,,,,,,,,,,,,AFSA02.jpg,AFNE03.jpg,AFSA20.jpg,AFNE19.jpg,AFSA20.jpg,FS,4,num_2,16,num_2,0.733538735309,,,2017_Jul_24_1625,60.0246622042,FEMA4ImagesEEG,001,200989,
AFNE01.JPG,AFNE01.JPG,AFNE01.JPG,AFNE01.JPG,AFNE01.JPG,AFNE01.JPG,,,,,,,,,4,1,41,2,,,,,,,,,,,,,,,AFNE08.jpg,AFSA01.jpg,AFNE19.jpg,AFSA03.jpg,AFSA01.jpg,FS,4,num_6,32,num_8,0.583492019447,,,2017_Jul_24_1625,60.0246622042,FEMA4ImagesEEG,001,200989,
AFNE01.JPG,AFNE01.JPG,AFNE01.JPG,AFNE01.JPG,AFNE01.JPG,AFNE01.JPG,,,,,,,,,4,2,42,1,,,,,,,,,,,,,,,AFNE07.jpg,AFNE12.jpg,AFSA06.jpg,AFSA10.jpg,AFNE07.jpg,FN,3,num_8,32,num_2,0.600094169262,,,2017_Jul_24_1625,60.0246622042,FEMA4ImagesEEG,001,200989,
AFNE01.JPG,AFNE01.JPG,AFNE01.JPG,AFNE01.JPG,AFNE01.JPG,AFNE01.JPG,,,,,,,,,4,3,43,0,,,,,,,,,,,,,,,AFNE14.jpg,AFSA07.jpg,AFNE18.jpg,AFSA17.jpg,AFNE14.jpg,FN,3,num_8,16,num_8,0.816782662296,,,2017_Jul_24_1625,60.0246622042,FEMA4ImagesEEG,001,200989,
AFNE01.JPG,AFNE01.JPG,AFNE01.JPG,AFNE01.JPG,AFNE01.JPG,AFNE01.JPG,,,,,,,,,4,4,44,7,,,,,,,,,,,,,,,AFSA12.jpg,AFSA03.jpg,AFNE19.jpg,AFNE01.jpg,AFSA12.jpg,FS,4,num_8,32,num_6,0.58345288923,,,2017_Jul_24_1625,60.0246622042,FEMA4ImagesEEG,001,200989,
AFNE01.JPG,AFNE01.JPG,AFNE01.JPG,AFNE01.JPG,AFNE01.JPG,AFNE01.JPG,,,,,,,,,4,5,45,5,,,,,,,,,,,,,,,AFNE11.jpg,AFNE14.jpg,AFSA18.jpg,AFSA19.jpg,AFNE14.jpg,FN,3,num_6,32,num_2,0.900119924685,,,2017_Jul_24_1625,60.0246622042,FEMA4ImagesEEG,001,200989,
AFNE01.JPG,AFNE01.JPG,AFNE01.JPG,AFNE01.JPG,AFNE01.JPG,AFNE01.JPG,,,,,,,,,4,6,46,3,,,,,,,,,,,,,,,AFNE04.jpg,AFNE13.jpg,AFSA12.jpg,AFSA20.jpg,AFSA20.jpg,FS,4,num_4,32,num_8,0.633517855196,,,2017_Jul_24_1625,60.0246622042,FEMA4ImagesEEG,001,200989,
AFNE01.JPG,AFNE01.JPG,AFNE01.JPG,AFNE01.JPG,AFNE01.JPG,AFNE01.JPG,,,,,,,,,4,7,47,4,,,,,,,,,,,,,,,AFNE20.jpg,AFSA15.jpg,AFSA20.jpg,AFNE17.jpg,AFNE17.jpg,FN,3,num_4,16,num_4,0.766850803629,,,2017_Jul_24_1625,60.0246622042,FEMA4ImagesEEG,001,200989,
AFNE01.JPG,AFNE01.JPG,AFNE01.JPG,AFNE01.JPG,AFNE01.JPG,AFNE01.JPG,,,,,,,,,4,8,48,9,,,,,,,,,,,,,,,AFNE02.jpg,AFNE15.jpg,AFSA09.jpg,AFSA17.jpg,AFNE02.jpg,FN,3,num_8,32,num_6,0.566925471881,,,2017_Jul_24_1625,60.0246622042,FEMA4ImagesEEG,001,200989,
AFNE01.JPG,AFNE01.JPG,AFNE01.JPG,AFNE01.JPG,AFNE01.JPG,AFNE01.JPG,,,,,,,,,4,9,49,6,,,,,,,,,,,,,,,AFSA10.jpg,AFSA14.jpg,AFNE02.jpg,AFNE16.jpg,AFNE02.jpg,FN,3,num_2,32,num_8,0.66677635978,,,2017_Jul_24_1625,60.0246622042,FEMA4ImagesEEG,001,200989,
AFNE01.JPG,AFNE01.JPG,AFNE01.JPG,AFNE01.JPG,AFNE01.JPG,AFNE01.JPG,,,,,,,,,5,0,50,7,,,,,,,,,,,,,,,AFSA12.jpg,AFNE11.jpg,AFSA13.jpg,AFNE04.jpg,AFSA13.jpg,FS,4,num_2,16,num_2,0.766782806604,,,2017_Jul_24_1625,60.0246622042,FEMA4ImagesEEG,001,200989,
AFNE01.JPG,AFNE01.JPG,AFNE01.JPG,AFNE01.JPG,AFNE01.JPG,AFNE01.JPG,,,,,,,,,5,1,51,4,,,,,,,,,,,,,,,AFNE12.jpg,AFSA14.jpg,AFSA08.jpg,AFNE10.jpg,AFNE10.jpg,FN,3,num_4,32,num_6,0.783446217887,,,2017_Jul_24_1625,60.0246622042,FEMA4ImagesEEG,001,200989,
AFNE01.JPG,AFNE01.JPG,AFNE01.JPG,AFNE01.JPG,AFNE01.JPG,AFNE01.JPG,,,,,,,,,5,2,52,6,,,,,,,,,,,,,,,AFSA16.jpg,AFSA17.jpg,AFNE12.jpg,AFNE06.jpg,AFSA16.jpg,FS,4,num_8,32,num_4,0.666767379153,,,2017_Jul_24_1625,60.0246622042,FEMA4ImagesEEG,001,200989,
AFNE01.JPG,AFNE01.JPG,AFNE01.JPG,AFNE01.JPG,AFNE01.JPG,AFNE01.JPG,,,,,,,,,5,3,53,1,,,,,,,,,,,,,,,AFNE15.jpg,AFSA14.jpg,AFNE17.jpg,AFSA02.jpg,AFNE17.jpg,FN,3,num_2,32,num_8,0.800118609681,,,2017_Jul_24_1625,60.0246622042,FEMA4ImagesEEG,001,200989,
AFNE01.JPG,AFNE01.JPG,AFNE01.JPG,AFNE01.JPG,AFNE01.JPG,AFNE01.JPG,,,,,,,,,5,4,54,5,,,,,,,,,,,,,,,AFSA16.jpg,AFNE18.jpg,AFNE08.jpg,AFSA15.jpg,AFNE08.jpg,FN,3,num_2,16,num_2,0.483492949628,,,2017_Jul_24_1625,60.0246622042,FEMA4ImagesEEG,001,200989,
AFNE01.JPG,AFNE01.JPG,AFNE01.JPG,AFNE01.JPG,AFNE01.JPG,AFNE01.JPG,,,,,,,,,5,5,55,8,,,,,,,,,,,,,,,AFNE10.jpg,AFNE14.jpg,AFSA07.jpg,AFSA14.jpg,AFNE10.jpg,FN,3,num_8,32,num_6,0.716749273357,,,2017_Jul_24_1625,60.0246622042,FEMA4ImagesEEG,001,200989,
AFNE01.JPG,AFNE01.JPG,AFNE01.JPG,AFNE01.JPG,AFNE01.JPG,AFNE01.JPG,,,,,,,,,5,6,56,2,,,,,,,,,,,,,,,AFNE11.jpg,AFNE02.jpg,AFSA01.jpg,AFSA09.jpg,AFNE02.jpg,FN,3,num_6,32,num_8,1.08336228004,,,2017_Jul_24_1625,60.0246622042,FEMA4ImagesEEG,001,200989,
AFNE01.JPG,AFNE01.JPG,AFNE01.JPG,AFNE01.JPG,AFNE01.JPG,AFNE01.JPG,,,,,,,,,5,7,57,0,,,,,,,,,,,,,,,AFNE11.jpg,AFSA07.jpg,AFSA06.jpg,AFNE04.jpg,AFSA06.jpg,FS,4,num_2,16,num_2,1.01675642584,,,2017_Jul_24_1625,60.0246622042,FEMA4ImagesEEG,001,200989,
AFNE01.JPG,AFNE01.JPG,AFNE01.JPG,AFNE01.JPG,AFNE01.JPG,AFNE01.JPG,,,,,,,,,5,8,58,9,,,,,,,,,,,,,,,AFNE09.jpg,AFSA09.jpg,AFSA17.jpg,AFNE13.jpg,AFNE09.jpg,FN,3,num_8,32,num_6,0.583701462834,,,2017_Jul_24_1625,60.0246622042,FEMA4ImagesEEG,001,200989,
AFNE01.JPG,AFNE01.JPG,AFNE01.JPG,AFNE01.JPG,AFNE01.JPG,AFNE01.JPG,,,,,,,,,5,9,59,3,,,,,,,,,,,,,,,AFSA12.jpg,AFNE05.jpg,AFSA16.jpg,AFNE04.jpg,AFSA12.jpg,FS,4,num_8,16,num_8,0.516636308632,,,2017_Jul_24_1625,60.0246622042,FEMA4ImagesEEG,001,200989,
,,,,,,,,,,,,,,,,,,,,,,,,,,,,,,,,,,,,,,,,,,,space,2.61663569929,2017_Jul_24_1625,60.0246622042,FEMA4ImagesEEG,001,200989,
AFNE01.JPG,AFNE01.JPG,AFNE01.JPG,AFNE01.JPG,AFNE01.JPG,AFNE01.JPG,,,,,,,,,,,,,0,0,0,0,,,,,,,,,,,AMSA16.jpg,AMSA03.jpg,AMNE04.jpg,AMNE18.jpg,AMNE04.jpg,MN,1,num_2,32,num_4,0.716785516939,,,2017_Jul_24_1625,60.0246622042,FEMA4ImagesEEG,001,200989,
AFNE01.JPG,AFNE01.JPG,AFNE01.JPG,AFNE01.JPG,AFNE01.JPG,AFNE01.JPG,,,,,,,,,,,,,0,1,1,5,,,,,,,,,,,AMNE12.jpg,AMNE18.jpg,AMSA19.jpg,AMSA17.jpg,AMNE12.jpg,MN,1,num_8,32,num_2,0.783470914816,,,2017_Jul_24_1625,60.0246622042,FEMA4ImagesEEG,001,200989,
AFNE01.JPG,AFNE01.JPG,AFNE01.JPG,AFNE01.JPG,AFNE01.JPG,AFNE01.JPG,,,,,,,,,,,,,0,2,2,6,,,,,,,,,,,AMNE07.jpg,AMSA07.jpg,AMNE03.jpg,AMSA03.jpg,AMSA07.jpg,MS,2,num_6,32,num_8,0.933435200364,,,2017_Jul_24_1625,60.0246622042,FEMA4ImagesEEG,001,200989,
AFNE01.JPG,AFNE01.JPG,AFNE01.JPG,AFNE01.JPG,AFNE01.JPG,AFNE01.JPG,,,,,,,,,,,,,0,3,3,4,,,,,,,,,,,AMSA07.jpg,AMNE20.jpg,AMNE07.jpg,AMSA14.jpg,AMSA14.jpg,MS,2,num_4,16,num_4,0.58348560473,,,2017_Jul_24_1625,60.0246622042,FEMA4ImagesEEG,001,200989,
AFNE01.JPG,AFNE01.JPG,AFNE01.JPG,AFNE01.JPG,AFNE01.JPG,AFNE01.JPG,,,,,,,,,,,,,0,4,4,8,,,,,,,,,,,AMSA11.jpg,AMNE09.jpg,AMNE04.jpg,AMSA19.jpg,AMSA11.jpg,MS,2,num_8,32,num_6,0.783490479924,,,2017_Jul_24_1625,60.0246622042,FEMA4ImagesEEG,001,200989,
AFNE01.JPG,AFNE01.JPG,AFNE01.JPG,AFNE01.JPG,AFNE01.JPG,AFNE01.JPG,,,,,,,,,,,,,0,5,5,3,,,,,,,,,,,AMNE01.jpg,AMSA15.jpg,AMNE19.jpg,AMSA19.jpg,AMSA19.jpg,MS,2,num_4,16,num_4,0.566812250647,,,2017_Jul_24_1625,60.0246622042,FEMA4ImagesEEG,001,200989,
AFNE01.JPG,AFNE01.JPG,AFNE01.JPG,AFNE01.JPG,AFNE01.JPG,AFNE01.JPG,,,,,,,,,,,,,0,6,6,7,,,,,,,,,,,AMSA13.jpg,AMNE12.jpg,AMNE08.jpg,AMSA15.jpg,AMSA13.jpg,MS,2,num_8,16,num_8,0.533572990331,,,2017_Jul_24_1625,60.0246622042,FEMA4ImagesEEG,001,200989,
AFNE01.JPG,AFNE01.JPG,AFNE01.JPG,AFNE01.JPG,AFNE01.JPG,AFNE01.JPG,,,,,,,,,,,,,0,7,7,2,,,,,,,,,,,AMNE05.jpg,AMSA10.jpg,AMNE09.jpg,AMSA03.jpg,AMSA03.jpg,MS,2,num_4,16,num_4,0.583476303262,,,2017_Jul_24_1625,60.0246622042,FEMA4ImagesEEG,001,200989,
AFNE01.JPG,AFNE01.JPG,AFNE01.JPG,AFNE01.JPG,AFNE01.JPG,AFNE01.JPG,,,,,,,,,,,,,0,8,8,9,,,,,,,,,,,AMNE15.jpg,AMSA15.jpg,AMSA09.jpg,AMNE16.jpg,AMSA09.jpg,MS,2,num_2,16,num_2,0.700150972465,,,2017_Jul_24_1625,60.0246622042,FEMA4ImagesEEG,001,200989,
AFNE01.JPG,AFNE01.JPG,AFNE01.JPG,AFNE01.JPG,AFNE01.JPG,AFNE01.JPG,,,,,,,,,,,,,0,9,9,1,,,,,,,,,,,AMSA02.jpg,AMSA15.jpg,AMNE07.jpg,AMNE14.jpg,AMNE07.jpg,MN,1,num_2,32,num_6,0.600121432217,,,2017_Jul_24_1625,60.0246622042,FEMA4ImagesEEG,001,200989,
AFNE01.JPG,AFNE01.JPG,AFNE01.JPG,AFNE01.JPG,AFNE01.JPG,AFNE01.JPG,,,,,,,,,,,,,1,0,10,8,,,,,,,,,,,AMSA10.jpg,AMNE08.jpg,AMNE14.jpg,AMSA05.jpg,AMSA05.jpg,MS,2,num_4,32,num_8,0.766840539989,,,2017_Jul_24_1625,60.0246622042,FEMA4ImagesEEG,001,200989,
AFNE01.JPG,AFNE01.JPG,AFNE01.JPG,AFNE01.JPG,AFNE01.JPG,AFNE01.JPG,,,,,,,,,,,,,1,1,11,3,,,,,,,,,,,AMNE15.jpg,AMNE19.jpg,AMSA03.jpg,AMSA18.jpg,AMNE19.jpg,MN,1,num_6,32,num_2,0.483476912603,,,2017_Jul_24_1625,60.0246622042,FEMA4ImagesEEG,001,200989,
AFNE01.JPG,AFNE01.JPG,AFNE01.JPG,AFNE01.JPG,AFNE01.JPG,AFNE01.JPG,,,,,,,,,,,,,1,2,12,4,,,,,,,,,,,AMNE05.jpg,AMSA19.jpg,AMSA06.jpg,AMNE01.jpg,AMSA19.jpg,MS,2,num_6,16,num_6,0.583241842221,,,2017_Jul_24_1625,60.0246622042,FEMA4ImagesEEG,001,200989,
AFNE01.JPG,AFNE01.JPG,AFNE01.JPG,AFNE01.JPG,AFNE01.JPG,AFNE01.JPG,,,,,,,,,,,,,1,3,13,6,,,,,,,,,,,AMNE08.jpg,AMNE18.jpg,AMSA15.jpg,AMSA06.jpg,AMNE08.jpg,MN,1,num_8,16,num_8,0.616884914343,,,2017_Jul_24_1625,60.0246622042,FEMA4ImagesEEG,001,200989,
AFNE01.JPG,AFNE01.JPG,AFNE01.JPG,AFNE01.JPG,AFNE01.JPG,AFNE01.JPG,,,,,,,,,,,,,1,4,14,5,,,,,,,,,,,AMSA09.jpg,AMSA06.jpg,AMNE13.jpg,AMNE06.jpg,AMSA06.jpg,MS,2,num_6,32,num_2,0.950088027166,,,2017_Jul_24_1625,60.0246622042,FEMA4ImagesEEG,001,200989,
AFNE01.JPG,AFNE01.JPG,AFNE01.JPG,AFNE01.JPG,AFNE01.JPG,AFNE01.JPG,,,,,,,,,,,,,1,5,15,9,,,,,,,,,,,AMSA17.jpg,AMSA13.jpg,AMNE06.jpg,AMNE16.jpg,AMSA13.jpg,MS,2,num_6,32,num_4,0.700200366322,,,2017_Jul_24_1625,60.0246622042,FEMA4ImagesEEG,001,200989,
AFNE01.JPG,AFNE01.JPG,AFNE01.JPG,AFNE01.JPG,AFNE01.JPG,AFNE01.JPG,,,,,,,,,,,,,1,6,16,7,,,,,,,,,,,AMSA09.jpg,AMSA07.jpg,AMNE16.jpg,AMNE07.jpg,AMSA09.jpg,MS,2,num_8,32,num_6,0.55013985862,,,2017_Jul_24_1625,60.0246622042,FEMA4ImagesEEG,001,200989,
AFNE01.JPG,AFNE01.JPG,AFNE01.JPG,AFNE01.JPG,AFNE01.JPG,AFNE01.JPG,,,,,,,,,,,,,1,7,17,1,,,,,,,,,,,AMSA17.jpg,AMSA19.jpg,AMNE15.jpg,AMNE06.jpg,AMSA19.jpg,MS,2,num_6,32,num_8,0.400142216124,,,2017_Jul_24_1625,60.0246622042,FEMA4ImagesEEG,001,200989,
AFNE01.JPG,AFNE01.JPG,AFNE01.JPG,AFNE01.JPG,AFNE01.JPG,AFNE01.JPG,,,,,,,,,,,,,1,8,18,0,,,,,,,,,,,AMSA09.jpg,AMNE10.jpg,AMNE11.jpg,AMSA07.jpg,AMNE11.jpg,MN,1,num_2,32,num_6,0.566762215109,,,2017_Jul_24_1625,60.0246622042,FEMA4ImagesEEG,001,200989,
AFNE01.JPG,AFNE01.JPG,AFNE01.JPG,AFNE01.JPG,AFNE01.JPG,AFNE01.JPG,,,,,,,,,,,,,1,9,19,2,,,,,,,,,,,AMSA11.jpg,AMNE03.jpg,AMSA13.jpg,AMNE10.jpg,AMSA11.jpg,MS,2,num_8,16,num_8,0.816801586072,,,2017_Jul_24_1625,60.0246622042,FEMA4ImagesEEG,001,200989,
AFNE01.JPG,AFNE01.JPG,AFNE01.JPG,AFNE01.JPG,AFNE01.JPG,AFNE01.JPG,,,,,,,,,,,,,2,0,20,3,,,,,,,,,,,AMNE05.jpg,AMSA04.jpg,AMSA19.jpg,AMNE03.jpg,AMNE03.jpg,MN,1,num_4,32,num_2,0.400158573873,,,2017_Jul_24_1625,60.0246622042,FEMA4ImagesEEG,001,200989,
AFNE01.JPG,AFNE01.JPG,AFNE01.JPG,AFNE01.JPG,AFNE01.JPG,AFNE01.JPG,,,,,,,,,,,,,2,1,21,8,,,,,,,,,,,AMNE05.jpg,AMSA18.jpg,AMNE06.jpg,AMSA06.jpg,AMNE05.jpg,MN,1,num_8,16,num_8,0.983460073825,,,2017_Jul_24_1625,60.0246622042,FEMA4ImagesEEG,001,200989,
AFNE01.JPG,AFNE01.JPG,AFNE01.JPG,AFNE01.JPG,AFNE01.JPG,AFNE01.JPG,,,,,,,,,,,,,2,2,22,7,,,,,,,,,,,AMNE06.jpg,AMSA16.jpg,AMSA11.jpg,AMNE16.jpg,AMSA16.jpg,MS,2,num_6,16,num_6,0.7501505072,,,2017_Jul_24_1625,60.0246622042,FEMA4ImagesEEG,001,200989,
AFNE01.JPG,AFNE01.JPG,AFNE01.JPG,AFNE01.JPG,AFNE01.JPG,AFNE01.JPG,,,,,,,,,,,,,2,3,23,5,,,,,,,,,,,AMNE15.jpg,AMNE03.jpg,AMSA03.jpg,AMSA04.jpg,AMSA04.jpg,MS,2,num_4,16,num_4,0.416788307368,,,2017_Jul_24_1625,60.0246622042,FEMA4ImagesEEG,001,200989,
AFNE01.JPG,AFNE01.JPG,AFNE01.JPG,AFNE01.JPG,AFNE01.JPG,AFNE01.JPG,,,,,,,,,,,,,2,4,24,2,,,,,,,,,,,AMSA04.jpg,AMNE10.jpg,AMNE06.jpg,AMSA09.jpg,AMSA09.jpg,MS,2,num_4,16,num_4,0.68356421811,,,2017_Jul_24_1625,60.0246622042,FEMA4ImagesEEG,001,200989,
AFNE01.JPG,AFNE01.JPG,AFNE01.JPG,AFNE01.JPG,AFNE01.JPG,AFNE01.JPG,,,,,,,,,,,,,2,5,25,1,,,,,,,,,,,AMNE13.jpg,AMSA19.jpg,AMSA20.jpg,AMNE04.jpg,AMSA20.jpg,MS,2,num_2,32,num_6,0.550247306703,,,2017_Jul_24_1625,60.0246622042,FEMA4ImagesEEG,001,200989,
AFNE01.JPG,AFNE01.JPG,AFNE01.JPG,AFNE01.JPG,AFNE01.JPG,AFNE01.JPG,,,,,,,,,,,,,2,6,26,0,,,,,,,,,,,AMNE04.jpg,AMSA04.jpg,AMNE02.jpg,AMSA13.jpg,AMNE02.jpg,MN,1,num_2,16,num_2,0.833427791251,,,2017_Jul_24_1625,60.0246622042,FEMA4ImagesEEG,001,200989,
AFNE01.JPG,AFNE01.JPG,AFNE01.JPG,AFNE01.JPG,AFNE01.JPG,AFNE01.JPG,,,,,,,,,,,,,2,7,27,9,,,,,,,,,,,AMSA06.jpg,AMNE11.jpg,AMSA20.jpg,AMNE07.jpg,AMSA20.jpg,MS,2,num_2,32,num_4,0.783422483015,,,2017_Jul_24_1625,60.0246622042,FEMA4ImagesEEG,001,200989,
AFNE01.JPG,AFNE01.JPG,AFNE01.JPG,AFNE01.JPG,AFNE01.JPG,AFNE01.JPG,,,,,,,,,,,,,2,8,28,4,,,,,,,,,,,AMNE02.jpg,AMSA19.jpg,AMNE18.jpg,AMSA17.jpg,AMSA19.jpg,MS,2,num_6,32,num_2,0.916757997358,,,2017_Jul_24_1625,60.0246622042,FEMA4ImagesEEG,001,200989,
AFNE01.JPG,AFNE01.JPG,AFNE01.JPG,AFNE01.JPG,AFNE01.JPG,AFNE01.JPG,,,,,,,,,,,,,2,9,29,6,,,,,,,,,,,AMSA13.jpg,AMNE19.jpg,AMSA05.jpg,AMNE15.jpg,AMNE19.jpg,MN,1,num_6,16,num_6,0.50015700236,,,2017_Jul_24_1625,60.0246622042,FEMA4ImagesEEG,001,200989,
AFNE01.JPG,AFNE01.JPG,AFNE01.JPG,AFNE01.JPG,AFNE01.JPG,AFNE01.JPG,,,,,,,,,,,,,3,0,30,2,,,,,,,,,,,AMSA13.jpg,AMNE16.jpg,AMSA18.jpg,AMNE10.jpg,AMSA13.jpg,MS,2,num_8,16,num_8,0.46678720077,,,2017_Jul_24_1625,60.0246622042,FEMA4ImagesEEG,001,200989,
AFNE01.JPG,AFNE01.JPG,AFNE01.JPG,AFNE01.JPG,AFNE01.JPG,AFNE01.JPG,,,,,,,,,,,,,3,1,31,0,,,,,,,,,,,AMSA11.jpg,AMSA07.jpg,AMNE14.jpg,AMNE01.jpg,AMSA11.jpg,MS,2,num_8,32,num_4,0.733483568067,,,2017_Jul_24_1625,60.0246622042,FEMA4ImagesEEG,001,200989,
AFNE01.JPG,AFNE01.JPG,AFNE01.JPG,AFNE01.JPG,AFNE01.JPG,AFNE01.JPG,,,,,,,,,,,,,3,2,32,1,,,,,,,,,,,AMNE08.jpg,AMSA16.jpg,AMSA17.jpg,AMNE14.jpg,AMNE14.jpg,MN,1,num_4,32,num_2,0.800163834123,,,2017_Jul_24_1625,60.0246622042,FEMA4ImagesEEG,001,200989,
AFNE01.JPG,AFNE01.JPG,AFNE01.JPG,AFNE01.JPG,AFNE01.JPG,AFNE01.JPG,,,,,,,,,,,,,3,3,33,6,,,,,,,,,,,AMSA01.jpg,AMNE01.jpg,AMNE13.jpg,AMSA17.jpg,AMNE13.jpg,MN,1,num_2,32,num_4,0.700152576086,,,2017_Jul_24_1625,60.0246622042,FEMA4ImagesEEG,001,200989,
AFNE01.JPG,AFNE01.JPG,AFNE01.JPG,AFNE01.JPG,AFNE01.JPG,AFNE01.JPG,,,,,,,,,,,,,3,4,34,8,,,,,,,,,,,AMSA13.jpg,AMSA20.jpg,AMNE09.jpg,AMNE20.jpg,AMNE20.jpg,MN,1,num_4,32,num_2,0.950141590671,,,2017_Jul_24_1625,60.0246622042,FEMA4ImagesEEG,001,200989,
AFNE01.JPG,AFNE01.JPG,AFNE01.JPG,AFNE01.JPG,AFNE01.JPG,AFNE01.JPG,,,,,,,,,,,,,3,5,35,5,,,,,,,,,,,AMSA09.jpg,AMNE13.jpg,AMNE14.jpg,AMSA11.jpg,AMNE13.jpg,MN,1,num_6,32,num_4,0.716864739778,,,2017_Jul_24_1625,60.0246622042,FEMA4ImagesEEG,001,200989,
AFNE01.JPG,AFNE01.JPG,AFNE01.JPG,AFNE01.JPG,AFNE01.JPG,AFNE01.JPG,,,,,,,,,,,,,3,6,36,7,,,,,,,,,,,AMNE02.jpg,AMNE12.jpg,AMSA19.jpg,AMSA07.jpg,AMNE12.jpg,MN,1,num_6,16,num_6,0.566816741019,,,2017_Jul_24_1625,60.0246622042,FEMA4ImagesEEG,001,200989,
AFNE01.JPG,AFNE01.JPG,AFNE01.JPG,AFNE01.JPG,AFNE01.JPG,AFNE01.JPG,,,,,,,,,,,,,3,7,37,3,,,,,,,,,,,AMSA17.jpg,AMSA07.jpg,AMNE05.jpg,AMNE15.jpg,AMSA07.jpg,MS,2,num_6,32,num_8,0.566967168124,,,2017_Jul_24_1625,60.0246622042,FEMA4ImagesEEG,001,200989,
AFNE01.JPG,AFNE01.JPG,AFNE01.JPG,AFNE01.JPG,AFNE01.JPG,AFNE01.JPG,,,,,,,,,,,,,3,8,38,4,,,,,,,,,,,AMSA06.jpg,AMSA18.jpg,AMNE01.jpg,AMNE05.jpg,AMNE05.jpg,MN,1,num_4,16,num_4,0.883527717902,,,2017_Jul_24_1625,60.0246622042,FEMA4ImagesEEG,001,200989,
AFNE01.JPG,AFNE01.JPG,AFNE01.JPG,AFNE01.JPG,AFNE01.JPG,AFNE01.JPG,,,,,,,,,,,,,3,9,39,9,,,,,,,,,,,AMNE18.jpg,AMNE03.jpg,AMSA08.jpg,AMSA14.jpg,AMNE03.jpg,MN,1,num_6,32,num_2,0.749950365513,,,2017_Jul_24_1625,60.0246622042,FEMA4ImagesEEG,001,200989,
AFNE01.JPG,AFNE01.JPG,AFNE01.JPG,AFNE01.JPG,AFNE01.JPG,AFNE01.JPG,,,,,,,,,,,,,4,0,40,1,,,,,,,,,,,AMNE18.jpg,AMSA17.jpg,AMSA11.jpg,AMNE12.jpg,AMNE18.jpg,MN,1,num_8,32,num_6,0.683366321493,,,2017_Jul_24_1625,60.0246622042,FEMA4ImagesEEG,001,200989,
AFNE01.JPG,AFNE01.JPG,AFNE01.JPG,AFNE01.JPG,AFNE01.JPG,AFNE01.JPG,,,,,,,,,,,,,4,1,41,7,,,,,,,,,,,AMNE03.jpg,AMSA02.jpg,AMSA05.jpg,AMNE11.jpg,AMNE03.jpg,MN,1,num_8,16,num_8,0.750092132599,,,2017_Jul_24_1625,60.0246622042,FEMA4ImagesEEG,001,200989,
AFNE01.JPG,AFNE01.JPG,AFNE01.JPG,AFNE01.JPG,AFNE01.JPG,AFNE01.JPG,,,,,,,,,,,,,4,2,42,5,,,,,,,,,,,AMNE08.jpg,AMNE03.jpg,AMSA14.jpg,AMSA12.jpg,AMNE03.jpg,MN,1,num_6,16,num_6,0.566796213621,,,2017_Jul_24_1625,60.0246622042,FEMA4ImagesEEG,001,200989,
AFNE01.JPG,AFNE01.JPG,AFNE01.JPG,AFNE01.JPG,AFNE01.JPG,AFNE01.JPG,,,,,,,,,,,,,4,3,43,8,,,,,,,,,,,AMNE19.jpg,AMSA17.jpg,AMNE17.jpg,AMSA19.jpg,AMSA17.jpg,MS,2,num_6,32,num_4,0.700134293875,,,2017_Jul_24_1625,60.0246622042,FEMA4ImagesEEG,001,200989,
AFNE01.JPG,AFNE01.JPG,AFNE01.JPG,AFNE01.JPG,AFNE01.JPG,AFNE01.JPG,,,,,,,,,,,,,4,4,44,3,,,,,,,,,,,AMSA15.jpg,AMNE12.jpg,AMNE02.jpg,AMSA05.jpg,AMNE02.jpg,MN,1,num_2,32,num_8,0.666763850837,,,2017_Jul_24_1625,60.0246622042,FEMA4ImagesEEG,001,200989,
AFNE01.JPG,AFNE01.JPG,AFNE01.JPG,AFNE01.JPG,AFNE01.JPG,AFNE01.JPG,,,,,,,,,,,,,4,5,45,2,,,,,,,,,,,AMSA07.jpg,AMNE12.jpg,AMNE13.jpg,AMSA18.jpg,AMNE12.jpg,MN,1,num_6,32,num_2,0.833436772111,,,2017_Jul_24_1625,60.0246622042,FEMA4ImagesEEG,001,200989,
AFNE01.JPG,AFNE01.JPG,AFNE01.JPG,AFNE01.JPG,AFNE01.JPG,AFNE01.JPG,,,,,,,,,,,,,4,6,46,0,,,,,,,,,,,AMSA17.jpg,AMNE12.jpg,AMSA19.jpg,AMNE17.jpg,AMNE12.jpg,MN,1,num_6,16,num_6,0.316863007727,,,2017_Jul_24_1625,60.0246622042,FEMA4ImagesEEG,001,200989,
AFNE01.JPG,AFNE01.JPG,AFNE01.JPG,AFNE01.JPG,AFNE01.JPG,AFNE01.JPG,,,,,,,,,,,,,4,7,47,6,,,,,,,,,,,AMNE10.jpg,AMSA08.jpg,AMSA10.jpg,AMNE05.jpg,AMNE05.jpg,MN,1,num_4,32,num_2,0.600150940358,,,2017_Jul_24_1625,60.0246622042,FEMA4ImagesEEG,001,200989,
AFNE01.JPG,AFNE01.JPG,AFNE01.JPG,AFNE01.JPG,AFNE01.JPG,AFNE01.JPG,,,,,,,,,,,,,4,8,48,9,,,,,,,,,,,AMNE08.jpg,AMNE14.jpg,AMSA03.jpg,AMSA15.jpg,AMNE08.jpg,MN,1,num_8,32,num_4,0.583477265434,,,2017_Jul_24_1625,60.0246622042,FEMA4ImagesEEG,001,200989,
AFNE01.JPG,AFNE01.JPG,AFNE01.JPG,AFNE01.JPG,AFNE01.JPG,AFNE01.JPG,,,,,,,,,,,,,4,9,49,4,,,,,,,,,,,AMSA05.jpg,AMNE18.jpg,AMNE09.jpg,AMSA11.jpg,AMSA11.jpg,MS,2,num_4,16,num_4,0.600159279536,,,2017_Jul_24_1625,60.0246622042,FEMA4ImagesEEG,001,200989,
AFNE01.JPG,AFNE01.JPG,AFNE01.JPG,AFNE01.JPG,AFNE01.JPG,AFNE01.JPG,,,,,,,,,,,,,5,0,50,0,,,,,,,,,,,AMNE07.jpg,AMSA02.jpg,AMNE20.jpg,AMSA04.jpg,AMSA04.jpg,MS,2,num_4,16,num_4,0.633561154944,,,2017_Jul_24_1625,60.0246622042,FEMA4ImagesEEG,001,200989,
AFNE01.JPG,AFNE01.JPG,AFNE01.JPG,AFNE01.JPG,AFNE01.JPG,AFNE01.JPG,,,,,,,,,,,,,5,1,51,7,,,,,,,,,,,AMSA12.jpg,AMSA20.jpg,AMNE14.jpg,AMNE10.jpg,AMSA20.jpg,MS,2,num_6,16,num_6,0.817465197295,,,2017_Jul_24_1625,60.0246622042,FEMA4ImagesEEG,001,200989,
AFNE01.JPG,AFNE01.JPG,AFNE01.JPG,AFNE01.JPG,AFNE01.JPG,AFNE01.JPG,,,,,,,,,,,,,5,2,52,5,,,,,,,,,,,AMSA06.jpg,AMNE14.jpg,AMNE17.jpg,AMSA05.jpg,AMSA05.jpg,MS,2,num_4,32,num_2,0.967402540729,,,2017_Jul_24_1625,60.0246622042,FEMA4ImagesEEG,001,200989,
AFNE01.JPG,AFNE01.JPG,AFNE01.JPG,AFNE01.JPG,AFNE01.JPG,AFNE01.JPG,,,,,,,,,,,,,5,3,53,2,,,,,,,,,,,AMNE13.jpg,AMNE20.jpg,AMSA11.jpg,AMSA08.jpg,AMNE20.jpg,MN,1,num_6,32,num_8,0.950134855113,,,2017_Jul_24_1625,60.0246622042,FEMA4ImagesEEG,001,200989,
AFNE01.JPG,AFNE01.JPG,AFNE01.JPG,AFNE01.JPG,AFNE01.JPG,AFNE01.JPG,,,,,,,,,,,,,5,4,54,3,,,,,,,,,,,AMNE20.jpg,AMNE07.jpg,AMSA16.jpg,AMSA14.jpg,AMSA14.jpg,MS,2,num_4,16,num_4,0.583445832832,,,2017_Jul_24_1625,60.0246622042,FEMA4ImagesEEG,001,200989,
AFNE01.JPG,AFNE01.JPG,AFNE01.JPG,AFNE01.JPG,AFNE01.JPG,AFNE01.JPG,,,,,,,,,,,,,5,5,55,4,,,,,,,,,,,AMSA16.jpg,AMNE15.jpg,AMNE14.jpg,AMSA06.jpg,AMSA16.jpg,MS,2,num_8,16,num_8,0.783396823797,,,2017_Jul_24_1625,60.0246622042,FEMA4ImagesEEG,001,200989,
AFNE01.JPG,AFNE01.JPG,AFNE01.JPG,AFNE01.JPG,AFNE01.JPG,AFNE01.JPG,,,,,,,,,,,,,5,6,56,1,,,,,,,,,,,AMNE14.jpg,AMNE10.jpg,AMSA18.jpg,AMSA19.jpg,AMSA19.jpg,MS,2,num_4,16,num_4,0.583562582266,,,2017_Jul_24_1625,60.0246622042,FEMA4ImagesEEG,001,200989,
AFNE01.JPG,AFNE01.JPG,AFNE01.JPG,AFNE01.JPG,AFNE01.JPG,AFNE01.JPG,,,,,,,,,,,,,5,7,57,6,,,,,,,,,,,AMSA11.jpg,AMNE02.jpg,AMNE09.jpg,AMSA03.jpg,AMSA11.jpg,MS,2,num_8,32,num_6,0.683417319204,,,2017_Jul_24_1625,60.0246622042,FEMA4ImagesEEG,001,200989,
AFNE01.JPG,AFNE01.JPG,AFNE01.JPG,AFNE01.JPG,AFNE01.JPG,AFNE01.JPG,,,,,,,,,,,,,5,8,58,8,,,,,,,,,,,AMSA20.jpg,AMNE19.jpg,AMNE01.jpg,AMSA09.jpg,AMNE01.jpg,MN,1,num_2,16,num_2,0.750130942208,,,2017_Jul_24_1625,60.0246622042,FEMA4ImagesEEG,001,200989,
AFNE01.JPG,AFNE01.JPG,AFNE01.JPG,AFNE01.JPG,AFNE01.JPG,AFNE01.JPG,,,,,,,,,,,,,5,9,59,9,,,,,,,,,,,AMNE11.jpg,AMNE13.jpg,AMSA18.jpg,AMSA16.jpg,AMNE11.jpg,MN,1,num_8,32,num_6,0.516826507519,,,2017_Jul_24_1625,60.0246622042,FEMA4ImagesEEG,001,200989,
,,,,,,,,,,,,,,,,,,,,,,,,,,,,,,,,,,,,,,,,,,,space,2.23337788414,2017_Jul_24_1625,60.0246622042,FEMA4ImagesEEG,001,200989,
AFNE01.JPG,AFNE01.JPG,AFNE01.JPG,AFNE01.JPG,AFNE01.JPG,AFNE01.JPG,,,,,,,,,,,,,,,,,0,0,0,3,,,,,,,AFSA04.jpg,AFSA17.jpg,AFNE03.jpg,AFNE11.jpg,AFNE03.jpg,FN,3,num_2,32,num_6,2.33368646831,,,2017_Jul_24_1625,60.0246622042,FEMA4ImagesEEG,001,200989,
AFNE01.JPG,AFNE01.JPG,AFNE01.JPG,AFNE01.JPG,AFNE01.JPG,AFNE01.JPG,,,,,,,,,,,,,,,,,0,1,1,9,,,,,,,AFNE04.jpg,AFSA10.jpg,AFNE18.jpg,AFSA17.jpg,AFNE04.jpg,FN,3,num_8,16,num_8,1.00014369166,,,2017_Jul_24_1625,60.0246622042,FEMA4ImagesEEG,001,200989,
AFNE01.JPG,AFNE01.JPG,AFNE01.JPG,AFNE01.JPG,AFNE01.JPG,AFNE01.JPG,,,,,,,,,,,,,,,,,0,2,2,6,,,,,,,AFSA09.jpg,AFSA03.jpg,AFNE10.jpg,AFNE03.jpg,AFNE10.jpg,FN,3,num_2,16,num_2,0.633492195862,,,2017_Jul_24_1625,60.0246622042,FEMA4ImagesEEG,001,200989,
AFNE01.JPG,AFNE01.JPG,AFNE01.JPG,AFNE01.JPG,AFNE01.JPG,AFNE01.JPG,,,,,,,,,,,,,,,,,0,3,3,1,,,,,,,AFNE14.jpg,AFSA13.jpg,AFSA10.jpg,AFNE16.jpg,AFNE14.jpg,FN,3,num_8,16,num_8,0.800152287353,,,2017_Jul_24_1625,60.0246622042,FEMA4ImagesEEG,001,200989,
AFNE01.JPG,AFNE01.JPG,AFNE01.JPG,AFNE01.JPG,AFNE01.JPG,AFNE01.JPG,,,,,,,,,,,,,,,,,0,4,4,5,,,,,,,AFSA10.jpg,AFNE16.jpg,AFSA20.jpg,AFNE03.jpg,AFNE16.jpg,FN,3,num_6,32,num_2,0.716749914805,,,2017_Jul_24_1625,60.0246622042,FEMA4ImagesEEG,001,200989,
AFNE01.JPG,AFNE01.JPG,AFNE01.JPG,AFNE01.JPG,AFNE01.JPG,AFNE01.JPG,,,,,,,,,,,,,,,,,0,5,5,2,,,,,,,AFSA14.jpg,AFSA09.jpg,AFNE14.jpg,AFNE10.jpg,AFNE10.jpg,FN,3,num_4,32,num_8,0.766802692553,,,2017_Jul_24_1625,60.0246622042,FEMA4ImagesEEG,001,200989,
AFNE01.JPG,AFNE01.JPG,AFNE01.JPG,AFNE01.JPG,AFNE01.JPG,AFNE01.JPG,,,,,,,,,,,,,,,,,0,6,6,4,,,,,,,AFSA15.jpg,AFNE18.jpg,AFSA02.jpg,AFNE03.jpg,AFSA02.jpg,FS,4,num_2,32,num_6,0.366791017703,,,2017_Jul_24_1625,60.0246622042,FEMA4ImagesEEG,001,200989,
AFNE01.JPG,AFNE01.JPG,AFNE01.JPG,AFNE01.JPG,AFNE01.JPG,AFNE01.JPG,,,,,,,,,,,,,,,,,0,7,7,8,,,,,,,AFNE11.jpg,AFNE02.jpg,AFSA20.jpg,AFSA04.jpg,AFSA20.jpg,FS,4,num_2,32,num_8,0.833444469841,,,2017_Jul_24_1625,60.0246622042,FEMA4ImagesEEG,001,200989,
AFNE01.JPG,AFNE01.JPG,AFNE01.JPG,AFNE01.JPG,AFNE01.JPG,AFNE01.JPG,,,,,,,,,,,,,,,,,0,8,8,0,,,,,,,AFSA14.jpg,AFSA03.jpg,AFNE03.jpg,AFNE05.jpg,AFSA03.jpg,FS,4,num_6,32,num_4,0.51679379202,,,2017_Jul_24_1625,60.0246622042,FEMA4ImagesEEG,001,200989,
AFNE01.JPG,AFNE01.JPG,AFNE01.JPG,AFNE01.JPG,AFNE01.JPG,AFNE01.JPG,,,,,,,,,,,,,,,,,0,9,9,7,,,,,,,AFSA17.jpg,AFNE13.jpg,AFNE08.jpg,AFSA20.jpg,AFSA17.jpg,FS,4,num_8,32,num_4,0.633489309228,,,2017_Jul_24_1625,60.0246622042,FEMA4ImagesEEG,001,200989,
AFNE01.JPG,AFNE01.JPG,AFNE01.JPG,AFNE01.JPG,AFNE01.JPG,AFNE01.JPG,,,,,,,,,,,,,,,,,1,0,10,5,,,,,,,AFSA17.jpg,AFNE08.jpg,AFSA15.jpg,AFNE05.jpg,AFSA15.jpg,FS,4,num_2,16,num_2,0.800118609681,,,2017_Jul_24_1625,60.0246622042,FEMA4ImagesEEG,001,200989,
AFNE01.JPG,AFNE01.JPG,AFNE01.JPG,AFNE01.JPG,AFNE01.JPG,AFNE01.JPG,,,,,,,,,,,,,,,,,1,1,11,7,,,,,,,AFSA18.jpg,AFSA09.jpg,AFNE18.jpg,AFNE12.jpg,AFNE18.jpg,FN,3,num_2,32,num_8,0.53344726027,,,2017_Jul_24_1625,60.0246622042,FEMA4ImagesEEG,001,200989,
AFNE01.JPG,AFNE01.JPG,AFNE01.JPG,AFNE01.JPG,AFNE01.JPG,AFNE01.JPG,,,,,,,,,,,,,,,,,1,2,12,9,,,,,,,AFNE11.jpg,AFSA09.jpg,AFNE03.jpg,AFSA20.jpg,AFSA09.jpg,FS,4,num_6,16,num_6,0.600148053723,,,2017_Jul_24_1625,60.0246622042,FEMA4ImagesEEG,001,200989,
AFNE01.JPG,AFNE01.JPG,AFNE01.JPG,AFNE01.JPG,AFNE01.JPG,AFNE01.JPG,,,,,,,,,,,,,,,,,1,3,13,4,,,,,,,AFSA04.jpg,AFNE13.jpg,AFNE04.jpg,AFSA16.jpg,AFSA16.jpg,FS,4,num_4,16,num_4,0.45012892154,,,2017_Jul_24_1625,60.0246622042,FEMA4ImagesEEG,001,200989,
AFNE01.JPG,AFNE01.JPG,AFNE01.JPG,AFNE01.JPG,AFNE01.JPG,AFNE01.JPG,,,,,,,,,,,,,,,,,1,4,14,2,,,,,,,AFSA17.jpg,AFNE19.jpg,AFNE17.jpg,AFSA11.jpg,AFNE19.jpg,FN,3,num_6,32,num_2,0.883449457353,,,2017_Jul_24_1625,60.0246622042,FEMA4ImagesEEG,001,200989,
AFNE01.JPG,AFNE01.JPG,AFNE01.JPG,AFNE01.JPG,AFNE01.JPG,AFNE01.JPG,,,,,,,,,,,,,,,,,1,5,15,1,,,,,,,AFNE06.jpg,AFSA02.jpg,AFNE11.jpg,AFSA09.jpg,AFNE06.jpg,FN,3,num_8,32,num_6,0.716759216157,,,2017_Jul_24_1625,60.0246622042,FEMA4ImagesEEG,001,200989,
AFNE01.JPG,AFNE01.JPG,AFNE01.JPG,AFNE01.JPG,AFNE01.JPG,AFNE01.JPG,,,,,,,,,,,,,,,,,1,6,16,3,,,,,,,AFSA13.jpg,AFNE06.jpg,AFNE16.jpg,AFSA07.jpg,AFSA13.jpg,FS,4,num_8,16,num_8,0.816775926738,,,2017_Jul_24_1625,60.0246622042,FEMA4ImagesEEG,001,200989,
AFNE01.JPG,AFNE01.JPG,AFNE01.JPG,AFNE01.JPG,AFNE01.JPG,AFNE01.JPG,,,,,,,,,,,,,,,,,1,7,17,6,,,,,,,AFNE13.jpg,AFSA05.jpg,AFSA15.jpg,AFNE02.jpg,AFNE02.jpg,FN,3,num_4,16,num_4,0.516798603116,,,2017_Jul_24_1625,60.0246622042,FEMA4ImagesEEG,001,200989,
AFNE01.JPG,AFNE01.JPG,AFNE01.JPG,AFNE01.JPG,AFNE01.JPG,AFNE01.JPG,,,,,,,,,,,,,,,,,1,8,18,0,,,,,,,AFNE06.jpg,AFNE18.jpg,AFSA20.jpg,AFSA10.jpg,AFNE06.jpg,FN,3,num_8,16,num_8,0.366786848055,,,2017_Jul_24_1625,60.0246622042,FEMA4ImagesEEG,001,200989,
AFNE01.JPG,AFNE01.JPG,AFNE01.JPG,AFNE01.JPG,AFNE01.JPG,AFNE01.JPG,,,,,,,,,,,,,,,,,1,9,19,8,,,,,,,AFNE15.jpg,AFNE09.jpg,AFSA12.jpg,AFSA18.jpg,AFSA18.jpg,FS,4,num_4,16,num_4,0.616789975204,,,2017_Jul_24_1625,60.0246622042,FEMA4ImagesEEG,001,200989,
AFNE01.JPG,AFNE01.JPG,AFNE01.JPG,AFNE01.JPG,AFNE01.JPG,AFNE01.JPG,,,,,,,,,,,,,,,,,2,0,20,3,,,,,,,AFSA14.jpg,AFNE05.jpg,AFNE19.jpg,AFSA16.jpg,AFSA16.jpg,FS,4,num_4,32,num_6,0.450052264612,,,2017_Jul_24_1625,60.0246622042,FEMA4ImagesEEG,001,200989,
AFNE01.JPG,AFNE01.JPG,AFNE01.JPG,AFNE01.JPG,AFNE01.JPG,AFNE01.JPG,,,,,,,,,,,,,,,,,2,1,21,8,,,,,,,AFSA20.jpg,AFNE08.jpg,AFNE19.jpg,AFSA02.jpg,AFSA02.jpg,FS,4,num_4,32,num_8,0.683487561299,,,2017_Jul_24_1625,60.0246622042,FEMA4ImagesEEG,001,200989,
AFNE01.JPG,AFNE01.JPG,AFNE01.JPG,AFNE01.JPG,AFNE01.JPG,AFNE01.JPG,,,,,,,,,,,,,,,,,2,2,22,5,,,,,,,AFSA16.jpg,AFSA02.jpg,AFNE08.jpg,AFNE03.jpg,AFSA16.jpg,FS,4,num_8,32,num_2,0.800109308213,,,2017_Jul_24_1625,60.0246622042,FEMA4ImagesEEG,001,200989,
AFNE01.JPG,AFNE01.JPG,AFNE01.JPG,AFNE01.JPG,AFNE01.JPG,AFNE01.JPG,,,,,,,,,,,,,,,,,2,3,23,4,,,,,,,AFSA20.jpg,AFNE05.jpg,AFSA02.jpg,AFNE08.jpg,AFNE05.jpg,FN,3,num_6,32,num_4,0.433467113995,,,2017_Jul_24_1625,60.0246622042,FEMA4ImagesEEG,001,200989,
AFNE01.JPG,AFNE01.JPG,AFNE01.JPG,AFNE01.JPG,AFNE01.JPG,AFNE01.JPG,,,,,,,,,,,,,,,,,2,4,24,2,,,,,,,AFNE08.jpg,AFSA16.jpg,AFNE05.jpg,AFSA12.jpg,AFSA16.jpg,FS,4,num_6,16,num_6,0.666599632008,,,2017_Jul_24_1625,60.0246622042,FEMA4ImagesEEG,001,200989,
AFNE01.JPG,AFNE01.JPG,AFNE01.JPG,AFNE01.JPG,AFNE01.JPG,AFNE01.JPG,,,,,,,,,,,,,,,,,2,5,25,0,,,,,,,AFNE19.jpg,AFNE03.jpg,AFSA16.jpg,AFSA20.jpg,AFNE03.jpg,FN,3,num_6,32,num_2,0.650122250081,,,2017_Jul_24_1625,60.0246622042,FEMA4ImagesEEG,001,200989,
AFNE01.JPG,AFNE01.JPG,AFNE01.JPG,AFNE01.JPG,AFNE01.JPG,AFNE01.JPG,,,,,,,,,,,,,,,,,2,6,26,7,,,,,,,AFSA04.jpg,AFNE05.jpg,AFSA02.jpg,AFNE01.jpg,AFNE05.jpg,FN,3,num_6,32,num_4,0.466817991924,,,2017_Jul_24_1625,60.0246622042,FEMA4ImagesEEG,001,200989,
AFNE01.JPG,AFNE01.JPG,AFNE01.JPG,AFNE01.JPG,AFNE01.JPG,AFNE01.JPG,,,,,,,,,,,,,,,,,2,7,27,6,,,,,,,AFNE03.jpg,AFNE05.jpg,AFSA06.jpg,AFSA20.jpg,AFSA20.jpg,FS,4,num_4,32,num_6,0.733446041355,,,2017_Jul_24_1625,60.0246622042,FEMA4ImagesEEG,001,200989,
AFNE01.JPG,AFNE01.JPG,AFNE01.JPG,AFNE01.JPG,AFNE01.JPG,AFNE01.JPG,,,,,,,,,,,,,,,,,2,8,28,1,,,,,,,AFSA09.jpg,AFNE20.jpg,AFNE18.jpg,AFSA18.jpg,AFSA18.jpg,FS,4,num_4,32,num_2,0.600142280338,,,2017_Jul_24_1625,60.0246622042,FEMA4ImagesEEG,001,200989,
AFNE01.JPG,AFNE01.JPG,AFNE01.JPG,AFNE01.JPG,AFNE01.JPG,AFNE01.JPG,,,,,,,,,,,,,,,,,2,9,29,9,,,,,,,AFSA16.jpg,AFSA18.jpg,AFNE03.jpg,AFNE08.jpg,AFNE03.jpg,FN,3,num_2,32,num_6,0.683452279889,,,2017_Jul_24_1625,60.0246622042,FEMA4ImagesEEG,001,200989,
AFNE01.JPG,AFNE01.JPG,AFNE01.JPG,AFNE01.JPG,AFNE01.JPG,AFNE01.JPG,,,,,,,,,,,,,,,,,3,0,30,1,,,,,,,AFNE15.jpg,AFSA16.jpg,AFSA12.jpg,AFNE06.jpg,AFNE15.jpg,FN,3,num_8,16,num_8,0.33338817989,,,2017_Jul_24_1625,60.0246622042,FEMA4ImagesEEG,001,200989,
AFNE01.JPG,AFNE01.JPG,AFNE01.JPG,AFNE01.JPG,AFNE01.JPG,AFNE01.JPG,,,,,,,,,,,,,,,,,3,1,31,8,,,,,,,AFSA14.jpg,AFSA16.jpg,AFNE04.jpg,AFNE19.jpg,AFNE19.jpg,FN,3,num_4,32,num_6,0.566796213621,,,2017_Jul_24_1625,60.0246622042,FEMA4ImagesEEG,001,200989,
AFNE01.JPG,AFNE01.JPG,AFNE01.JPG,AFNE01.JPG,AFNE01.JPG,AFNE01.JPG,,,,,,,,,,,,,,,,,3,2,32,3,,,,,,,AFSA01.jpg,AFNE08.jpg,AFSA05.jpg,AFNE04.jpg,AFNE04.jpg,FN,3,num_4,32,num_8,0.700112483581,,,2017_Jul_24_1625,60.0246622042,FEMA4ImagesEEG,001,200989,
AFNE01.JPG,AFNE01.JPG,AFNE01.JPG,AFNE01.JPG,AFNE01.JPG,AFNE01.JPG,,,,,,,,,,,,,,,,,3,3,33,2,,,,,,,AFNE01.jpg,AFSA11.jpg,AFNE14.jpg,AFSA05.jpg,AFSA05.jpg,FS,4,num_4,32,num_2,0.566843362409,,,2017_Jul_24_1625,60.0246622042,FEMA4ImagesEEG,001,200989,
AFNE01.JPG,AFNE01.JPG,AFNE01.JPG,AFNE01.JPG,AFNE01.JPG,AFNE01.JPG,,,,,,,,,,,,,,,,,3,4,34,9,,,,,,,AFNE20.jpg,AFNE19.jpg,AFSA19.jpg,AFSA07.jpg,AFNE19.jpg,FN,3,num_6,32,num_2,0.717015487608,,,2017_Jul_24_1625,60.0246622042,FEMA4ImagesEEG,001,200989,
AFNE01.JPG,AFNE01.JPG,AFNE01.JPG,AFNE01.JPG,AFNE01.JPG,AFNE01.JPG,,,,,,,,,,,,,,,,,3,5,35,4,,,,,,,AFNE02.jpg,AFSA06.jpg,AFNE01.jpg,AFSA13.jpg,AFSA13.jpg,FS,4,num_4,16,num_4,0.667086194735,,,2017_Jul_24_1625,60.0246622042,FEMA4ImagesEEG,001,200989,
AFNE01.JPG,AFNE01.JPG,AFNE01.JPG,AFNE01.JPG,AFNE01.JPG,AFNE01.JPG,,,,,,,,,,,,,,,,,3,6,36,6,,,,,,,AFSA12.jpg,AFNE03.jpg,AFNE02.jpg,AFSA05.jpg,AFSA12.jpg,FS,4,num_8,16,num_8,0.483501609648,,,2017_Jul_24_1625,60.0246622042,FEMA4ImagesEEG,001,200989,
AFNE01.JPG,AFNE01.JPG,AFNE01.JPG,AFNE01.JPG,AFNE01.JPG,AFNE01.JPG,,,,,,,,,,,,,,,,,3,7,37,7,,,,,,,AFNE16.jpg,AFSA10.jpg,AFSA02.jpg,AFNE09.jpg,AFNE09.jpg,FN,3,num_4,32,num_6,0.600161524722,,,2017_Jul_24_1625,60.0246622042,FEMA4ImagesEEG,001,200989,
AFNE01.JPG,AFNE01.JPG,AFNE01.JPG,AFNE01.JPG,AFNE01.JPG,AFNE01.JPG,,,,,,,,,,,,,,,,,3,8,38,0,,,,,,,AFNE13.jpg,AFSA20.jpg,AFNE04.jpg,AFSA06.jpg,AFSA06.jpg,FS,4,num_4,16,num_4,0.433466793271,,,2017_Jul_24_1625,60.0246622042,FEMA4ImagesEEG,001,200989,
AFNE01.JPG,AFNE01.JPG,AFNE01.JPG,AFNE01.JPG,AFNE01.JPG,AFNE01.JPG,,,,,,,,,,,,,,,,,3,9,39,5,,,,,,,AFSA03.jpg,AFNE07.jpg,AFSA07.jpg,AFNE08.jpg,AFNE08.jpg,FN,3,num_4,32,num_6,0.550126708345,,,2017_Jul_24_1625,60.0246622042,FEMA4ImagesEEG,001,200989,
AFNE01.JPG,AFNE01.JPG,AFNE01.JPG,AFNE01.JPG,AFNE01.JPG,AFNE01.JPG,,,,,,,,,,,,,,,,,4,0,40,5,,,,,,,AFSA11.jpg,AFNE18.jpg,AFSA14.jpg,AFNE02.jpg,AFSA11.jpg,FS,4,num_8,16,num_8,0.550155575038,,,2017_Jul_24_1625,60.0246622042,FEMA4ImagesEEG,001,200989,
AFNE01.JPG,AFNE01.JPG,AFNE01.JPG,AFNE01.JPG,AFNE01.JPG,AFNE01.JPG,,,,,,,,,,,,,,,,,4,1,41,3,,,,,,,AFNE17.jpg,AFSA12.jpg,AFSA14.jpg,AFNE01.jpg,AFSA12.jpg,FS,4,num_6,16,num_6,0.600151902414,,,2017_Jul_24_1625,60.0246622042,FEMA4ImagesEEG,001,200989,
AFNE01.JPG,AFNE01.JPG,AFNE01.JPG,AFNE01.JPG,AFNE01.JPG,AFNE01.JPG,,,,,,,,,,,,,,,,,4,2,42,4,,,,,,,AFNE03.jpg,AFSA05.jpg,AFNE20.jpg,AFSA12.jpg,AFSA05.jpg,FS,4,num_6,32,num_2,1.35005608143,,,2017_Jul_24_1625,60.0246622042,FEMA4ImagesEEG,001,200989,
AFNE01.JPG,AFNE01.JPG,AFNE01.JPG,AFNE01.JPG,AFNE01.JPG,AFNE01.JPG,,,,,,,,,,,,,,,,,4,3,43,6,,,,,,,AFSA05.jpg,AFNE04.jpg,AFSA11.jpg,AFNE10.jpg,AFSA05.jpg,FS,4,num_8,32,num_6,0.633463008562,,,2017_Jul_24_1625,60.0246622042,FEMA4ImagesEEG,001,200989,
AFNE01.JPG,AFNE01.JPG,AFNE01.JPG,AFNE01.JPG,AFNE01.JPG,AFNE01.JPG,,,,,,,,,,,,,,,,,4,4,44,0,,,,,,,AFSA02.jpg,AFNE19.jpg,AFSA04.jpg,AFNE14.jpg,AFSA04.jpg,FS,4,num_2,32,num_8,0.666785019799,,,2017_Jul_24_1625,60.0246622042,FEMA4ImagesEEG,001,200989,
AFNE01.JPG,AFNE01.JPG,AFNE01.JPG,AFNE01.JPG,AFNE01.JPG,AFNE01.JPG,,,,,,,,,,,,,,,,,4,5,45,9,,,,,,,AFNE03.jpg,AFNE12.jpg,AFSA19.jpg,AFSA04.jpg,AFSA04.jpg,FS,4,num_4,32,num_2,0.71679225238,,,2017_Jul_24_1625,60.0246622042,FEMA4ImagesEEG,001,200989,
AFNE01.JPG,AFNE01.JPG,AFNE01.JPG,AFNE01.JPG,AFNE01.JPG,AFNE01.JPG,,,,,,,,,,,,,,,,,4,6,46,2,,,,,,,AFNE08.jpg,AFSA12.jpg,AFSA03.jpg,AFNE01.jpg,AFNE01.jpg,FN,3,num_4,32,num_8,0.750123565202,,,2017_Jul_24_1625,60.0246622042,FEMA4ImagesEEG,001,200989,
AFNE01.JPG,AFNE01.JPG,AFNE01.JPG,AFNE01.JPG,AFNE01.JPG,AFNE01.JPG,,,,,,,,,,,,,,,,,4,7,47,7,,,,,,,AFSA01.jpg,AFSA03.jpg,AFNE07.jpg,AFNE14.jpg,AFNE14.jpg,FN,3,num_4,32,num_2,0.666937692091,,,2017_Jul_24_1625,60.0246622042,FEMA4ImagesEEG,001,200989,
AFNE01.JPG,AFNE01.JPG,AFNE01.JPG,AFNE01.JPG,AFNE01.JPG,AFNE01.JPG,,,,,,,,,,,,,,,,,4,8,48,8,,,,,,,AFSA12.jpg,AFNE11.jpg,AFNE17.jpg,AFSA19.jpg,AFNE11.jpg,FN,3,num_6,32,num_8,0.950116893742,,,2017_Jul_24_1625,60.0246622042,FEMA4ImagesEEG,001,200989,
AFNE01.JPG,AFNE01.JPG,AFNE01.JPG,AFNE01.JPG,AFNE01.JPG,AFNE01.JPG,,,,,,,,,,,,,,,,,4,9,49,1,,,,,,,AFSA12.jpg,AFNE11.jpg,AFSA03.jpg,AFNE03.jpg,AFNE03.jpg,FN,3,num_4,16,num_4,0.633465253748,,,2017_Jul_24_1625,60.0246622042,FEMA4ImagesEEG,001,200989,
AFNE01.JPG,AFNE01.JPG,AFNE01.JPG,AFNE01.JPG,AFNE01.JPG,AFNE01.JPG,,,,,,,,,,,,,,,,,5,0,50,1,,,,,,,AFNE10.jpg,AFNE05.jpg,AFSA07.jpg,AFSA16.jpg,AFSA07.jpg,FS,4,num_2,16,num_2,0.583476303262,,,2017_Jul_24_1625,60.0246622042,FEMA4ImagesEEG,001,200989,
AFNE01.JPG,AFNE01.JPG,AFNE01.JPG,AFNE01.JPG,AFNE01.JPG,AFNE01.JPG,,,,,,,,,,,,,,,,,5,1,51,4,,,,,,,AFSA20.jpg,AFNE02.jpg,AFNE12.jpg,AFSA15.jpg,AFSA15.jpg,FS,4,num_4,32,num_6,0.383461485035,,,2017_Jul_24_1625,60.0246622042,FEMA4ImagesEEG,001,200989,
AFNE01.JPG,AFNE01.JPG,AFNE01.JPG,AFNE01.JPG,AFNE01.JPG,AFNE01.JPG,,,,,,,,,,,,,,,,,5,2,52,9,,,,,,,AFNE11.jpg,AFNE19.jpg,AFSA19.jpg,AFSA10.jpg,AFNE19.jpg,FN,3,num_6,32,num_4,0.716788082733,,,2017_Jul_24_1625,60.0246622042,FEMA4ImagesEEG,001,200989,
AFNE01.JPG,AFNE01.JPG,AFNE01.JPG,AFNE01.JPG,AFNE01.JPG,AFNE01.JPG,,,,,,,,,,,,,,,,,5,3,53,0,,,,,,,AFSA11.jpg,AFNE08.jpg,AFNE19.jpg,AFSA06.jpg,AFNE19.jpg,FN,3,num_2,16,num_2,0.566753234365,,,2017_Jul_24_1625,60.0246622042,FEMA4ImagesEEG,001,200989,
AFNE01.JPG,AFNE01.JPG,AFNE01.JPG,AFNE01.JPG,AFNE01.JPG,AFNE01.JPG,,,,,,,,,,,,,,,,,5,4,54,2,,,,,,,AFSA11.jpg,AFNE06.jpg,AFSA07.jpg,AFNE05.jpg,AFSA07.jpg,FS,4,num_2,32,num_6,0.483440989745,,,2017_Jul_24_1625,60.0246622042,FEMA4ImagesEEG,001,200989,
AFNE01.JPG,AFNE01.JPG,AFNE01.JPG,AFNE01.JPG,AFNE01.JPG,AFNE01.JPG,,,,,,,,,,,,,,,,,5,5,55,3,,,,,,,AFSA13.jpg,AFNE16.jpg,AFSA18.jpg,AFNE18.jpg,AFSA18.jpg,FS,4,num_2,16,num_2,1.05012205767,,,2017_Jul_24_1625,60.0246622042,FEMA4ImagesEEG,001,200989,
AFNE01.JPG,AFNE01.JPG,AFNE01.JPG,AFNE01.JPG,AFNE01.JPG,AFNE01.JPG,,,,,,,,,,,,,,,,,5,6,56,6,,,,,,,AFSA17.jpg,AFNE12.jpg,AFSA10.jpg,AFNE13.jpg,AFNE13.jpg,FN,3,num_4,16,num_4,0.750154356123,,,2017_Jul_24_1625,60.0246622042,FEMA4ImagesEEG,001,200989,
AFNE01.JPG,AFNE01.JPG,AFNE01.JPG,AFNE01.JPG,AFNE01.JPG,AFNE01.JPG,,,,,,,,,,,,,,,,,5,7,57,8,,,,,,,AFSA14.jpg,AFNE06.jpg,AFSA03.jpg,AFNE17.jpg,AFSA14.jpg,FS,4,num_8,16,num_8,0.400138367317,,,2017_Jul_24_1625,60.0246622042,FEMA4ImagesEEG,001,200989,
AFNE01.JPG,AFNE01.JPG,AFNE01.JPG,AFNE01.JPG,AFNE01.JPG,AFNE01.JPG,,,,,,,,,,,,,,,,,5,8,58,5,,,,,,,AFNE16.jpg,AFSA03.jpg,AFNE03.jpg,AFSA20.jpg,AFSA20.jpg,FS,4,num_4,16,num_4,0.4501286007,,,2017_Jul_24_1625,60.0246622042,FEMA4ImagesEEG,001,200989,
AFNE01.JPG,AFNE01.JPG,AFNE01.JPG,AFNE01.JPG,AFNE01.JPG,AFNE01.JPG,,,,,,,,,,,,,,,,,5,9,59,7,,,,,,,AFNE05.jpg,AFSA01.jpg,AFNE04.jpg,AFSA12.jpg,AFNE05.jpg,FN,3,num_8,32,num_4,0.5338321483,,,2017_Jul_24_1625,60.0246622042,FEMA4ImagesEEG,001,200989,
,,,,,,,,,,,,,,,,,,,,,,,,,,,,,,,,,,,,,,,,,,,space,2.84996643453,2017_Jul_24_1625,60.0246622042,FEMA4ImagesEEG,001,200989,
AFNE01.JPG,AFNE01.JPG,AFNE01.JPG,AFNE01.JPG,AFNE01.JPG,AFNE01.JPG,,,,,,,,,,,,,,,,,,,,,0,0,0,0,,,AMNE11.jpg,AMSA03.jpg,AMSA16.jpg,AMNE13.jpg,AMNE13.jpg,MN,1,num_4,16,num_4,0.633581040893,,,2017_Jul_24_1625,60.0246622042,FEMA4ImagesEEG,001,200989,
AFNE01.JPG,AFNE01.JPG,AFNE01.JPG,AFNE01.JPG,AFNE01.JPG,AFNE01.JPG,,,,,,,,,,,,,,,,,,,,,0,1,1,2,,,AMSA17.jpg,AMSA04.jpg,AMNE15.jpg,AMNE20.jpg,AMSA04.jpg,MS,2,num_6,16,num_6,0.350163529394,,,2017_Jul_24_1625,60.0246622042,FEMA4ImagesEEG,001,200989,
AFNE01.JPG,AFNE01.JPG,AFNE01.JPG,AFNE01.JPG,AFNE01.JPG,AFNE01.JPG,,,,,,,,,,,,,,,,,,,,,0,2,2,9,,,AMSA18.jpg,AMSA12.jpg,AMNE01.jpg,AMNE18.jpg,AMSA18.jpg,MS,2,num_8,16,num_8,0.750148582854,,,2017_Jul_24_1625,60.0246622042,FEMA4ImagesEEG,001,200989,
AFNE01.JPG,AFNE01.JPG,AFNE01.JPG,AFNE01.JPG,AFNE01.JPG,AFNE01.JPG,,,,,,,,,,,,,,,,,,,,,0,3,3,6,,,AMSA15.jpg,AMNE02.jpg,AMNE05.jpg,AMSA04.jpg,AMSA04.jpg,MS,2,num_4,32,num_6,0.516840620083,,,2017_Jul_24_1625,60.0246622042,FEMA4ImagesEEG,001,200989,
AFNE01.JPG,AFNE01.JPG,AFNE01.JPG,AFNE01.JPG,AFNE01.JPG,AFNE01.JPG,,,,,,,,,,,,,,,,,,,,,0,4,4,8,,,AMNE11.jpg,AMSA04.jpg,AMSA03.jpg,AMNE12.jpg,AMNE11.jpg,MN,1,num_8,32,num_2,0.850114616449,,,2017_Jul_24_1625,60.0246622042,FEMA4ImagesEEG,001,200989,
AFNE01.JPG,AFNE01.JPG,AFNE01.JPG,AFNE01.JPG,AFNE01.JPG,AFNE01.JPG,,,,,,,,,,,,,,,,,,,,,0,5,5,5,,,AMSA08.jpg,AMNE13.jpg,AMSA12.jpg,AMNE01.jpg,AMNE13.jpg,MN,1,num_6,32,num_8,0.58347181289,,,2017_Jul_24_1625,60.0246622042,FEMA4ImagesEEG,001,200989,
AFNE01.JPG,AFNE01.JPG,AFNE01.JPG,AFNE01.JPG,AFNE01.JPG,AFNE01.JPG,,,,,,,,,,,,,,,,,,,,,0,6,6,3,,,AMSA12.jpg,AMNE12.jpg,AMNE13.jpg,AMSA03.jpg,AMNE12.jpg,MN,1,num_6,32,num_2,1.11670834688,,,2017_Jul_24_1625,60.0246622042,FEMA4ImagesEEG,001,200989,
AFNE01.JPG,AFNE01.JPG,AFNE01.JPG,AFNE01.JPG,AFNE01.JPG,AFNE01.JPG,,,,,,,,,,,,,,,,,,,,,0,7,7,4,,,AMSA03.jpg,AMNE20.jpg,AMNE11.jpg,AMSA16.jpg,AMSA03.jpg,MS,2,num_8,32,num_6,0.58352505567,,,2017_Jul_24_1625,60.0246622042,FEMA4ImagesEEG,001,200989,
AFNE01.JPG,AFNE01.JPG,AFNE01.JPG,AFNE01.JPG,AFNE01.JPG,AFNE01.JPG,,,,,,,,,,,,,,,,,,,,,0,8,8,7,,,AMNE20.jpg,AMSA08.jpg,AMSA04.jpg,AMNE16.jpg,AMSA08.jpg,MS,2,num_6,32,num_4,0.566786591429,,,2017_Jul_24_1625,60.0246622042,FEMA4ImagesEEG,001,200989,
AFNE01.JPG,AFNE01.JPG,AFNE01.JPG,AFNE01.JPG,AFNE01.JPG,AFNE01.JPG,,,,,,,,,,,,,,,,,,,,,0,9,9,1,,,AMNE06.jpg,AMSA09.jpg,AMSA02.jpg,AMNE11.jpg,AMNE11.jpg,MN,1,num_4,32,num_6,0.450145279174,,,2017_Jul_24_1625,60.0246622042,FEMA4ImagesEEG,001,200989,
AFNE01.JPG,AFNE01.JPG,AFNE01.JPG,AFNE01.JPG,AFNE01.JPG,AFNE01.JPG,,,,,,,,,,,,,,,,,,,,,1,0,10,8,,,AMNE03.jpg,AMNE01.jpg,AMSA20.jpg,AMSA01.jpg,AMSA20.jpg,MS,2,num_2,32,num_6,0.633487384766,,,2017_Jul_24_1625,60.0246622042,FEMA4ImagesEEG,001,200989,
AFNE01.JPG,AFNE01.JPG,AFNE01.JPG,AFNE01.JPG,AFNE01.JPG,AFNE01.JPG,,,,,,,,,,,,,,,,,,,,,1,1,11,6,,,AMNE11.jpg,AMSA17.jpg,AMNE18.jpg,AMSA11.jpg,AMSA11.jpg,MS,2,num_4,32,num_8,0.666861355887,,,2017_Jul_24_1625,60.0246622042,FEMA4ImagesEEG,001,200989,
AFNE01.JPG,AFNE01.JPG,AFNE01.JPG,AFNE01.JPG,AFNE01.JPG,AFNE01.JPG,,,,,,,,,,,,,,,,,,,,,1,2,12,2,,,AMNE18.jpg,AMSA08.jpg,AMSA10.jpg,AMNE08.jpg,AMSA10.jpg,MS,2,num_2,16,num_2,0.916736507788,,,2017_Jul_24_1625,60.0246622042,FEMA4ImagesEEG,001,200989,
AFNE01.JPG,AFNE01.JPG,AFNE01.JPG,AFNE01.JPG,AFNE01.JPG,AFNE01.JPG,,,,,,,,,,,,,,,,,,,,,1,3,13,3,,,AMNE18.jpg,AMNE09.jpg,AMSA15.jpg,AMSA14.jpg,AMSA14.jpg,MS,2,num_4,16,num_4,0.666822867119,,,2017_Jul_24_1625,60.0246622042,FEMA4ImagesEEG,001,200989,
AFNE01.JPG,AFNE01.JPG,AFNE01.JPG,AFNE01.JPG,AFNE01.JPG,AFNE01.JPG,,,,,,,,,,,,,,,,,,,,,1,4,14,7,,,AMSA04.jpg,AMNE10.jpg,AMNE12.jpg,AMSA18.jpg,AMNE10.jpg,MN,1,num_6,16,num_6,0.833473336417,,,2017_Jul_24_1625,60.0246622042,FEMA4ImagesEEG,001,200989,
AFNE01.JPG,AFNE01.JPG,AFNE01.JPG,AFNE01.JPG,AFNE01.JPG,AFNE01.JPG,,,,,,,,,,,,,,,,,,,,,1,5,15,1,,,AMSA05.jpg,AMNE11.jpg,AMNE04.jpg,AMSA18.jpg,AMSA18.jpg,MS,2,num_4,16,num_4,0.516834846698,,,2017_Jul_24_1625,60.0246622042,FEMA4ImagesEEG,001,200989,
AFNE01.JPG,AFNE01.JPG,AFNE01.JPG,AFNE01.JPG,AFNE01.JPG,AFNE01.JPG,,,,,,,,,,,,,,,,,,,,,1,6,16,4,,,AMNE08.jpg,AMNE16.jpg,AMSA15.jpg,AMSA02.jpg,AMSA15.jpg,MS,2,num_2,16,num_2,0.666832810035,,,2017_Jul_24_1625,60.0246622042,FEMA4ImagesEEG,001,200989,
AFNE01.JPG,AFNE01.JPG,AFNE01.JPG,AFNE01.JPG,AFNE01.JPG,AFNE01.JPG,,,,,,,,,,,,,,,,,,,,,1,7,17,5,,,AMNE03.jpg,AMNE13.jpg,AMSA04.jpg,AMSA11.jpg,AMSA04.jpg,MS,2,num_2,16,num_2,0.783442368964,,,2017_Jul_24_1625,60.0246622042,FEMA4ImagesEEG,001,200989,
AFNE01.JPG,AFNE01.JPG,AFNE01.JPG,AFNE01.JPG,AFNE01.JPG,AFNE01.JPG,,,,,,,,,,,,,,,,,,,,,1,8,18,9,,,AMNE13.jpg,AMNE02.jpg,AMSA15.jpg,AMSA20.jpg,AMNE02.jpg,MN,1,num_6,32,num_2,0.983634556411,,,2017_Jul_24_1625,60.0246622042,FEMA4ImagesEEG,001,200989,
AFNE01.JPG,AFNE01.JPG,AFNE01.JPG,AFNE01.JPG,AFNE01.JPG,AFNE01.JPG,,,,,,,,,,,,,,,,,,,,,1,9,19,0,,,AMSA07.jpg,AMNE11.jpg,AMSA10.jpg,AMNE16.jpg,AMNE11.jpg,MN,1,num_6,32,num_8,0.333467402612,,,2017_Jul_24_1625,60.0246622042,FEMA4ImagesEEG,001,200989,
AFNE01.JPG,AFNE01.JPG,AFNE01.JPG,AFNE01.JPG,AFNE01.JPG,AFNE01.JPG,,,,,,,,,,,,,,,,,,,,,2,0,20,8,,,AMNE11.jpg,AMSA15.jpg,AMSA20.jpg,AMNE10.jpg,AMSA15.jpg,MS,2,num_6,16,num_6,0.466859688051,,,2017_Jul_24_1625,60.0246622042,FEMA4ImagesEEG,001,200989,
AFNE01.JPG,AFNE01.JPG,AFNE01.JPG,AFNE01.JPG,AFNE01.JPG,AFNE01.JPG,,,,,,,,,,,,,,,,,,,,,2,1,21,1,,,AMSA12.jpg,AMNE11.jpg,AMSA04.jpg,AMNE17.jpg,AMNE11.jpg,MN,1,num_6,32,num_2,0.816882091691,,,2017_Jul_24_1625,60.0246622042,FEMA4ImagesEEG,001,200989,
AFNE01.JPG,AFNE01.JPG,AFNE01.JPG,AFNE01.JPG,AFNE01.JPG,AFNE01.JPG,,,,,,,,,,,,,,,,,,,,,2,2,22,3,,,AMNE20.jpg,AMNE02.jpg,AMSA02.jpg,AMSA03.jpg,AMSA02.jpg,MS,2,num_2,32,num_8,0.583520886139,,,2017_Jul_24_1625,60.0246622042,FEMA4ImagesEEG,001,200989,
AFNE01.JPG,AFNE01.JPG,AFNE01.JPG,AFNE01.JPG,AFNE01.JPG,AFNE01.JPG,,,,,,,,,,,,,,,,,,,,,2,3,23,9,,,AMNE13.jpg,AMSA10.jpg,AMSA12.jpg,AMNE19.jpg,AMSA12.jpg,MS,2,num_2,32,num_4,0.533473560936,,,2017_Jul_24_1625,60.0246622042,FEMA4ImagesEEG,001,200989,
AFNE01.JPG,AFNE01.JPG,AFNE01.JPG,AFNE01.JPG,AFNE01.JPG,AFNE01.JPG,,,,,,,,,,,,,,,,,,,,,2,4,24,0,,,AMNE20.jpg,AMNE15.jpg,AMSA17.jpg,AMSA08.jpg,AMNE15.jpg,MN,1,num_6,16,num_6,0.6834805049,,,2017_Jul_24_1625,60.0246622042,FEMA4ImagesEEG,001,200989,
AFNE01.JPG,AFNE01.JPG,AFNE01.JPG,AFNE01.JPG,AFNE01.JPG,AFNE01.JPG,,,,,,,,,,,,,,,,,,,,,2,5,25,5,,,AMSA15.jpg,AMNE03.jpg,AMSA03.jpg,AMNE12.jpg,AMNE12.jpg,MN,1,num_4,32,num_6,1.13349171483,,,2017_Jul_24_1625,60.0246622042,FEMA4ImagesEEG,001,200989,
AFNE01.JPG,AFNE01.JPG,AFNE01.JPG,AFNE01.JPG,AFNE01.JPG,AFNE01.JPG,,,,,,,,,,,,,,,,,,,,,2,6,26,4,,,AMSA12.jpg,AMSA02.jpg,AMNE04.jpg,AMNE18.jpg,AMSA12.jpg,MS,2,num_8,32,num_2,0.916765053757,,,2017_Jul_24_1625,60.0246622042,FEMA4ImagesEEG,001,200989,
AFNE01.JPG,AFNE01.JPG,AFNE01.JPG,AFNE01.JPG,AFNE01.JPG,AFNE01.JPG,,,,,,,,,,,,,,,,,,,,,2,7,27,2,,,AMNE10.jpg,AMNE06.jpg,AMSA02.jpg,AMSA11.jpg,AMNE10.jpg,MN,1,num_8,16,num_8,0.733338593505,,,2017_Jul_24_1625,60.0246622042,FEMA4ImagesEEG,001,200989,
AFNE01.JPG,AFNE01.JPG,AFNE01.JPG,AFNE01.JPG,AFNE01.JPG,AFNE01.JPG,,,,,,,,,,,,,,,,,,,,,2,8,28,6,,,AMSA14.jpg,AMNE16.jpg,AMNE18.jpg,AMSA17.jpg,AMSA14.jpg,MS,2,num_8,16,num_8,0.550153329736,,,2017_Jul_24_1625,60.0246622042,FEMA4ImagesEEG,001,200989,
AFNE01.JPG,AFNE01.JPG,AFNE01.JPG,AFNE01.JPG,AFNE01.JPG,AFNE01.JPG,,,,,,,,,,,,,,,,,,,,,2,9,29,7,,,AMSA19.jpg,AMNE08.jpg,AMNE20.jpg,AMSA17.jpg,AMNE20.jpg,MN,1,num_2,32,num_6,0.583391307155,,,2017_Jul_24_1625,60.0246622042,FEMA4ImagesEEG,001,200989,
AFNE01.JPG,AFNE01.JPG,AFNE01.JPG,AFNE01.JPG,AFNE01.JPG,AFNE01.JPG,,,,,,,,,,,,,,,,,,,,,3,0,30,8,,,AMSA08.jpg,AMNE17.jpg,AMNE05.jpg,AMSA05.jpg,AMNE05.jpg,MN,1,num_2,32,num_8,0.616780673736,,,2017_Jul_24_1625,60.0246622042,FEMA4ImagesEEG,001,200989,
AFNE01.JPG,AFNE01.JPG,AFNE01.JPG,AFNE01.JPG,AFNE01.JPG,AFNE01.JPG,,,,,,,,,,,,,,,,,,,,,3,1,31,5,,,AMNE01.jpg,AMSA12.jpg,AMNE09.jpg,AMSA16.jpg,AMSA16.jpg,MS,2,num_4,16,num_4,0.550135689089,,,2017_Jul_24_1625,60.0246622042,FEMA4ImagesEEG,001,200989,
AFNE01.JPG,AFNE01.JPG,AFNE01.JPG,AFNE01.JPG,AFNE01.JPG,AFNE01.JPG,,,,,,,,,,,,,,,,,,,,,3,2,32,6,,,AMSA10.jpg,AMSA04.jpg,AMNE18.jpg,AMNE11.jpg,AMNE18.jpg,MN,1,num_2,16,num_2,0.850127446116,,,2017_Jul_24_1625,60.0246622042,FEMA4ImagesEEG,001,200989,
AFNE01.JPG,AFNE01.JPG,AFNE01.JPG,AFNE01.JPG,AFNE01.JPG,AFNE01.JPG,,,,,,,,,,,,,,,,,,,,,3,3,33,7,,,AMSA11.jpg,AMNE03.jpg,AMSA13.jpg,AMNE01.jpg,AMSA11.jpg,MS,2,num_8,16,num_8,0.70010221994,,,2017_Jul_24_1625,60.0246622042,FEMA4ImagesEEG,001,200989,
AFNE01.JPG,AFNE01.JPG,AFNE01.JPG,AFNE01.JPG,AFNE01.JPG,AFNE01.JPG,,,,,,,,,,,,,,,,,,,,,3,4,34,1,,,AMSA04.jpg,AMNE09.jpg,AMSA01.jpg,AMNE06.jpg,AMSA01.jpg,MS,2,num_2,16,num_2,1.16675086087,,,2017_Jul_24_1625,60.0246622042,FEMA4ImagesEEG,001,200989,
AFNE01.JPG,AFNE01.JPG,AFNE01.JPG,AFNE01.JPG,AFNE01.JPG,AFNE01.JPG,,,,,,,,,,,,,,,,,,,,,3,5,35,4,,,AMSA06.jpg,AMSA02.jpg,AMNE11.jpg,AMNE19.jpg,AMNE11.jpg,MN,1,num_2,32,num_4,0.866927171708,,,2017_Jul_24_1625,60.0246622042,FEMA4ImagesEEG,001,200989,
AFNE01.JPG,AFNE01.JPG,AFNE01.JPG,AFNE01.JPG,AFNE01.JPG,AFNE01.JPG,,,,,,,,,,,,,,,,,,,,,3,6,36,0,,,AMNE12.jpg,AMNE13.jpg,AMSA13.jpg,AMSA03.jpg,AMNE12.jpg,MN,1,num_8,32,num_6,0.616761108511,,,2017_Jul_24_1625,60.0246622042,FEMA4ImagesEEG,001,200989,
AFNE01.JPG,AFNE01.JPG,AFNE01.JPG,AFNE01.JPG,AFNE01.JPG,AFNE01.JPG,,,,,,,,,,,,,,,,,,,,,3,7,37,3,,,AMSA19.jpg,AMNE14.jpg,AMNE19.jpg,AMSA18.jpg,AMSA19.jpg,MS,2,num_8,16,num_8,0.816760210437,,,2017_Jul_24_1625,60.0246622042,FEMA4ImagesEEG,001,200989,
AFNE01.JPG,AFNE01.JPG,AFNE01.JPG,AFNE01.JPG,AFNE01.JPG,AFNE01.JPG,,,,,,,,,,,,,,,,,,,,,3,8,38,9,,,AMSA17.jpg,AMSA08.jpg,AMNE16.jpg,AMNE17.jpg,AMNE16.jpg,MN,1,num_2,32,num_4,0.566766384756,,,2017_Jul_24_1625,60.0246622042,FEMA4ImagesEEG,001,200989,
