IPosition2,IPosition3,IPosition1,IPosition6,IPosition4,IPosition5,TrialsF1.thisRepN,TrialsF1.thisTrialN,TrialsF1.thisN,TrialsF1.thisIndex,TrialsM1.thisRepN,TrialsM1.thisTrialN,TrialsM1.thisN,TrialsM1.thisIndex,TrialsF2.thisRepN,TrialsF2.thisTrialN,TrialsF2.thisN,TrialsF2.thisIndex,TrialsM2.thisRepN,TrialsM2.thisTrialN,TrialsM2.thisN,TrialsM2.thisIndex,TrialsF3.thisRepN,TrialsF3.thisTrialN,TrialsF3.thisN,TrialsF3.thisIndex,TrialsM3.thisRepN,TrialsM3.thisTrialN,TrialsM3.thisN,TrialsM3.thisIndex,InstrKey_resp.keys,InstrKey_resp.rt,Image0 _Position,Image1 _Position,Image2 _Position,Image3 _Position,Center_image,condition,code,correct_answer,accuracy,Key_Resp.keys,Key_Resp.rt,BreakKey_resp.keys,BreakKey_resp.rt,date,frameRate,expName,session,participant,
,,,,,,,,,,,,,,,,,,,,,,,,,,,,,,space,15.6994101276,,,,,,,,,,,,,,2017_Sep_01_1528,60.0069480227,FEMA4ImagesEEG,001,200915,
AFSA21.JPG,AFNE23.JPG,AFNE21.JPG,AFSA25.JPG,AFNE25.JPG,AFSA23.JPG,0,0,0,4,,,,,,,,,,,,,,,,,,,,,,,AFNE01.jpg,AFSA02.jpg,AFSA16.jpg,AFNE12.jpg,AFSA16.jpg,FS,4,num_2,32,num_8,0.916611205437,,,2017_Sep_01_1528,60.0069480227,FEMA4ImagesEEG,001,200915,
AMSA25.JPG,AMNE24.JPG,AMSA24.JPG,AMNE26.JPG,AMSA21.JPG,AMNE25.JPG,0,1,1,3,,,,,,,,,,,,,,,,,,,,,,,AFNE02.jpg,AFNE01.jpg,AFSA17.jpg,AFSA08.jpg,AFNE02.jpg,FN,3,num_8,16,num_8,0.76675488078,,,2017_Sep_01_1528,60.0069480227,FEMA4ImagesEEG,001,200915,
AMNE23.JPG,AMNE24.JPG,AMNE22.JPG,AMSA24.JPG,AMSA22.JPG,AMSA23.JPG,0,2,2,9,,,,,,,,,,,,,,,,,,,,,,,AFNE20.jpg,AFNE07.jpg,AFSA13.jpg,AFSA17.jpg,AFNE07.jpg,FN,3,num_6,16,num_6,0.450187039358,,,2017_Sep_01_1528,60.0069480227,FEMA4ImagesEEG,001,200915,
AFNE23.JPG,AFNE24.JPG,AFNE22.JPG,AFSA24.JPG,AFSA22.JPG,AFSA23.JPG,0,3,3,8,,,,,,,,,,,,,,,,,,,,,,,AFNE12.jpg,AFSA01.jpg,AFNE10.jpg,AFSA16.jpg,AFSA01.jpg,FS,4,num_6,16,num_6,0.416724266193,,,2017_Sep_01_1528,60.0069480227,FEMA4ImagesEEG,001,200915,
AMNE22.JPG,AMSA24.JPG,AMSA22.JPG,AMNE25.JPG,AMNE24.JPG,AMSA25.JPG,0,4,4,7,,,,,,,,,,,,,,,,,,,,,,,AFSA10.jpg,AFSA02.jpg,AFNE19.jpg,AFNE18.jpg,AFSA10.jpg,FS,4,num_8,16,num_8,1.01677019609,,,2017_Sep_01_1528,60.0069480227,FEMA4ImagesEEG,001,200915,
AFNE22.JPG,AFSA24.JPG,AFSA22.JPG,AFNE25.JPG,AFNE24.JPG,AFSA25.JPG,0,5,5,6,,,,,,,,,,,,,,,,,,,,,,,AFNE03.jpg,AFSA02.jpg,AFSA12.jpg,AFNE14.jpg,AFSA02.jpg,FS,4,num_6,32,num_4,0.650142264087,,,2017_Sep_01_1528,60.0069480227,FEMA4ImagesEEG,001,200915,
AFSA21.JPG,AFNE22.JPG,AFNE21.JPG,AFSA23.JPG,AFSA22.JPG,AFNE23.JPG,0,6,6,0,,,,,,,,,,,,,,,,,,,,,,,AFNE13.jpg,AFNE15.jpg,AFSA03.jpg,AFSA02.jpg,AFNE13.jpg,FN,3,num_8,16,num_8,0.850123789482,,,2017_Sep_01_1528,60.0069480227,FEMA4ImagesEEG,001,200915,
AFSA25.JPG,AFNE24.JPG,AFSA24.JPG,AFNE21.JPG,AFSA21.JPG,AFNE25.JPG,0,7,7,2,,,,,,,,,,,,,,,,,,,,,,,AFNE10.jpg,AFSA16.jpg,AFSA08.jpg,AFNE09.jpg,AFNE10.jpg,FN,3,num_8,16,num_8,1.28345275007,,,2017_Sep_01_1528,60.0069480227,FEMA4ImagesEEG,001,200915,
AMSA21.JPG,AMNE22.JPG,AMNE21.JPG,AMSA23.JPG,AMSA22.JPG,AMNE23.JPG,0,8,8,1,,,,,,,,,,,,,,,,,,,,,,,AFNE19.jpg,AFSA07.jpg,AFNE01.jpg,AFSA09.jpg,AFSA07.jpg,FS,4,num_6,16,num_6,0.566809278214,,,2017_Sep_01_1528,60.0069480227,FEMA4ImagesEEG,001,200915,
AMSA21.JPG,AMNE23.JPG,AMNE21.JPG,AMSA25.JPG,AMNE25.JPG,AMSA23.JPG,0,9,9,5,,,,,,,,,,,,,,,,,,,,,,,AFSA20.jpg,AFNE10.jpg,AFNE08.jpg,AFSA10.jpg,AFSA20.jpg,FS,4,num_8,16,num_8,1.36706702466,,,2017_Sep_01_1528,60.0069480227,FEMA4ImagesEEG,001,200915,
AMNE23.JPG,AMNE24.JPG,AMNE22.JPG,AMSA24.JPG,AMSA22.JPG,AMSA23.JPG,,,,,0,0,0,9,,,,,,,,,,,,,,,,,,,AMSA13.jpg,AMNE05.jpg,AMNE10.jpg,AMSA20.jpg,AMSA20.jpg,MS,2,num_4,16,num_4,0.650255164481,,,2017_Sep_01_1528,60.0069480227,FEMA4ImagesEEG,001,200915,
AFSA25.JPG,AFNE24.JPG,AFSA24.JPG,AFNE21.JPG,AFSA21.JPG,AFNE25.JPG,,,,,0,1,1,2,,,,,,,,,,,,,,,,,,,AMSA20.jpg,AMSA07.jpg,AMNE03.jpg,AMNE11.jpg,AMSA07.jpg,MS,2,num_6,16,num_6,0.616646133974,,,2017_Sep_01_1528,60.0069480227,FEMA4ImagesEEG,001,200915,
AMNE22.JPG,AMSA24.JPG,AMSA22.JPG,AMNE25.JPG,AMNE24.JPG,AMSA25.JPG,,,,,0,2,2,7,,,,,,,,,,,,,,,,,,,AMNE13.jpg,AMSA08.jpg,AMNE19.jpg,AMSA03.jpg,AMNE19.jpg,MN,1,num_2,32,num_8,0.700122490496,,,2017_Sep_01_1528,60.0069480227,FEMA4ImagesEEG,001,200915,
AFSA21.JPG,AFNE23.JPG,AFNE21.JPG,AFSA25.JPG,AFNE25.JPG,AFSA23.JPG,,,,,0,3,3,4,,,,,,,,,,,,,,,,,,,AMNE18.jpg,AMSA11.jpg,AMNE10.jpg,AMSA08.jpg,AMNE18.jpg,MN,1,num_8,16,num_8,0.850047453452,,,2017_Sep_01_1528,60.0069480227,FEMA4ImagesEEG,001,200915,
AMSA25.JPG,AMNE24.JPG,AMSA24.JPG,AMNE26.JPG,AMSA21.JPG,AMNE25.JPG,,,,,0,4,4,3,,,,,,,,,,,,,,,,,,,AMSA19.jpg,AMNE04.jpg,AMNE06.jpg,AMSA20.jpg,AMSA20.jpg,MS,2,num_4,16,num_4,1.28328275803,,,2017_Sep_01_1528,60.0069480227,FEMA4ImagesEEG,001,200915,
AFNE23.JPG,AFNE24.JPG,AFNE22.JPG,AFSA24.JPG,AFSA22.JPG,AFSA23.JPG,,,,,0,5,5,8,,,,,,,,,,,,,,,,,,,AMNE07.jpg,AMSA19.jpg,AMSA20.jpg,AMNE05.jpg,AMNE05.jpg,MN,1,num_4,32,num_8,0.971519918094,,,2017_Sep_01_1528,60.0069480227,FEMA4ImagesEEG,001,200915,
AMSA21.JPG,AMNE22.JPG,AMNE21.JPG,AMSA23.JPG,AMSA22.JPG,AMNE23.JPG,,,,,0,6,6,1,,,,,,,,,,,,,,,,,,,AMNE07.jpg,AMNE13.jpg,AMSA03.jpg,AMSA20.jpg,AMSA20.jpg,MS,2,num_4,16,num_4,1.20006459698,,,2017_Sep_01_1528,60.0069480227,FEMA4ImagesEEG,001,200915,
AFSA21.JPG,AFNE22.JPG,AFNE21.JPG,AFSA23.JPG,AFSA22.JPG,AFNE23.JPG,,,,,0,7,7,0,,,,,,,,,,,,,,,,,,,AMSA06.jpg,AMSA14.jpg,AMNE15.jpg,AMNE06.jpg,AMSA06.jpg,MS,2,num_8,32,num_2,2.06696563883,,,2017_Sep_01_1528,60.0069480227,FEMA4ImagesEEG,001,200915,
AFNE22.JPG,AFSA24.JPG,AFSA22.JPG,AFNE25.JPG,AFNE24.JPG,AFSA25.JPG,,,,,0,8,8,6,,,,,,,,,,,,,,,,,,,AMSA15.jpg,AMNE16.jpg,AMSA09.jpg,AMNE18.jpg,AMSA15.jpg,MS,2,num_8,16,num_8,0.483475971618,,,2017_Sep_01_1528,60.0069480227,FEMA4ImagesEEG,001,200915,
AMSA21.JPG,AMNE23.JPG,AMNE21.JPG,AMSA25.JPG,AMNE25.JPG,AMSA23.JPG,,,,,0,9,9,5,,,,,,,,,,,,,,,,,,,AMNE03.jpg,AMSA01.jpg,AMSA03.jpg,AMNE17.jpg,AMNE17.jpg,MN,1,num_4,16,num_4,0.61677026024,,,2017_Sep_01_1528,60.0069480227,FEMA4ImagesEEG,001,200915,
AMSA25.JPG,AMNE24.JPG,AMSA24.JPG,AMNE26.JPG,AMSA21.JPG,AMNE25.JPG,,,,,,,,,0,0,0,3,,,,,,,,,,,,,,,AFSA03.jpg,AFNE01.jpg,AFNE04.jpg,AFSA04.jpg,AFNE04.jpg,FN,3,num_2,32,num_8,1.40008813926,,,2017_Sep_01_1528,60.0069480227,FEMA4ImagesEEG,001,200915,
AMNE22.JPG,AMSA24.JPG,AMSA22.JPG,AMNE25.JPG,AMNE24.JPG,AMSA25.JPG,,,,,,,,,0,1,1,7,,,,,,,,,,,,,,,AFSA05.jpg,AFNE05.jpg,AFSA20.jpg,AFNE07.jpg,AFNE07.jpg,FN,3,num_4,16,num_4,0.733447345614,,,2017_Sep_01_1528,60.0069480227,FEMA4ImagesEEG,001,200915,
AMNE23.JPG,AMNE24.JPG,AMNE22.JPG,AMSA24.JPG,AMSA22.JPG,AMSA23.JPG,,,,,,,,,0,2,2,9,,,,,,,,,,,,,,,AFSA12.jpg,AFNE19.jpg,AFSA16.jpg,AFNE04.jpg,AFSA12.jpg,FS,4,num_8,32,num_4,0.583514684899,,,2017_Sep_01_1528,60.0069480227,FEMA4ImagesEEG,001,200915,
AFSA25.JPG,AFNE24.JPG,AFSA24.JPG,AFNE21.JPG,AFSA21.JPG,AFNE25.JPG,,,,,,,,,0,3,3,2,,,,,,,,,,,,,,,AFNE02.jpg,AFSA10.jpg,AFNE05.jpg,AFSA05.jpg,AFNE02.jpg,FN,3,num_8,32,num_2,1.48345640651,,,2017_Sep_01_1528,60.0069480227,FEMA4ImagesEEG,001,200915,
AFSA21.JPG,AFNE22.JPG,AFNE21.JPG,AFSA23.JPG,AFSA22.JPG,AFNE23.JPG,,,,,,,,,0,4,4,0,,,,,,,,,,,,,,,AFNE10.jpg,AFSA12.jpg,AFSA11.jpg,AFNE01.jpg,AFSA12.jpg,FS,4,num_6,16,num_6,0.800112772064,,,2017_Sep_01_1528,60.0069480227,FEMA4ImagesEEG,001,200915,
AMSA21.JPG,AMNE22.JPG,AMNE21.JPG,AMSA23.JPG,AMSA22.JPG,AMNE23.JPG,,,,,,,,,0,5,5,1,,,,,,,,,,,,,,,AFSA17.jpg,AFNE16.jpg,AFSA04.jpg,AFNE01.jpg,AFNE16.jpg,FN,3,num_6,32,num_4,1.11676689246,,,2017_Sep_01_1528,60.0069480227,FEMA4ImagesEEG,001,200915,
AMSA21.JPG,AMNE23.JPG,AMNE21.JPG,AMSA25.JPG,AMNE25.JPG,AMSA23.JPG,,,,,,,,,0,6,6,5,,,,,,,,,,,,,,,AFSA20.jpg,AFNE11.jpg,AFNE16.jpg,AFSA15.jpg,AFNE11.jpg,FN,3,num_6,16,num_6,0.633506778686,,,2017_Sep_01_1528,60.0069480227,FEMA4ImagesEEG,001,200915,
AFSA21.JPG,AFNE23.JPG,AFNE21.JPG,AFSA25.JPG,AFNE25.JPG,AFSA23.JPG,,,,,,,,,0,7,7,4,,,,,,,,,,,,,,,AFSA09.jpg,AFNE13.jpg,AFNE19.jpg,AFSA12.jpg,AFNE19.jpg,FN,3,num_2,16,num_2,0.866752539383,,,2017_Sep_01_1528,60.0069480227,FEMA4ImagesEEG,001,200915,
AFNE22.JPG,AFSA24.JPG,AFSA22.JPG,AFNE25.JPG,AFNE24.JPG,AFSA25.JPG,,,,,,,,,0,8,8,6,,,,,,,,,,,,,,,AFNE09.jpg,AFSA06.jpg,AFSA19.jpg,AFNE14.jpg,AFNE14.jpg,FN,3,num_4,16,num_4,0.633473421738,,,2017_Sep_01_1528,60.0069480227,FEMA4ImagesEEG,001,200915,
AFNE23.JPG,AFNE24.JPG,AFNE22.JPG,AFSA24.JPG,AFSA22.JPG,AFSA23.JPG,,,,,,,,,0,9,9,8,,,,,,,,,,,,,,,AFSA13.jpg,AFNE04.jpg,AFSA20.jpg,AFNE14.jpg,AFNE14.jpg,FN,3,num_4,32,num_6,1.15008276686,,,2017_Sep_01_1528,60.0069480227,FEMA4ImagesEEG,001,200915,
AFSA25.JPG,AFNE24.JPG,AFSA24.JPG,AFNE21.JPG,AFSA21.JPG,AFNE25.JPG,,,,,,,,,,,,,0,0,0,2,,,,,,,,,,,AMNE18.jpg,AMNE15.jpg,AMSA10.jpg,AMSA13.jpg,AMSA10.jpg,MS,2,num_2,32,num_6,0.633444875915,,,2017_Sep_01_1528,60.0069480227,FEMA4ImagesEEG,001,200915,
AFSA21.JPG,AFNE23.JPG,AFNE21.JPG,AFSA25.JPG,AFNE25.JPG,AFSA23.JPG,,,,,,,,,,,,,0,1,1,4,,,,,,,,,,,AMNE17.jpg,AMNE12.jpg,AMSA18.jpg,AMSA20.jpg,AMSA20.jpg,MS,2,num_4,32,num_2,1.00011578703,,,2017_Sep_01_1528,60.0069480227,FEMA4ImagesEEG,001,200915,
AMNE23.JPG,AMNE24.JPG,AMNE22.JPG,AMSA24.JPG,AMSA22.JPG,AMSA23.JPG,,,,,,,,,,,,,0,2,2,9,,,,,,,,,,,AMSA01.jpg,AMNE12.jpg,AMNE19.jpg,AMSA02.jpg,AMNE19.jpg,MN,1,num_2,16,num_2,0.866825347301,,,2017_Sep_01_1528,60.0069480227,FEMA4ImagesEEG,001,200915,
AMSA21.JPG,AMNE23.JPG,AMNE21.JPG,AMSA25.JPG,AMNE25.JPG,AMSA23.JPG,,,,,,,,,,,,,0,3,3,5,,,,,,,,,,,AMSA12.jpg,AMNE05.jpg,AMSA09.jpg,AMNE15.jpg,AMSA12.jpg,MS,2,num_8,32,num_6,0.700124094205,,,2017_Sep_01_1528,60.0069480227,FEMA4ImagesEEG,001,200915,
AMSA25.JPG,AMNE24.JPG,AMSA24.JPG,AMNE26.JPG,AMSA21.JPG,AMNE25.JPG,,,,,,,,,,,,,0,4,4,3,,,,,,,,,,,AMNE20.jpg,AMSA17.jpg,AMNE09.jpg,AMSA08.jpg,AMSA17.jpg,MS,2,num_6,16,num_6,0.583494478313,,,2017_Sep_01_1528,60.0069480227,FEMA4ImagesEEG,001,200915,
AMNE22.JPG,AMSA24.JPG,AMSA22.JPG,AMNE25.JPG,AMNE24.JPG,AMSA25.JPG,,,,,,,,,,,,,0,5,5,7,,,,,,,,,,,AMNE20.jpg,AMNE13.jpg,AMSA07.jpg,AMSA05.jpg,AMNE13.jpg,MN,1,num_6,32,num_8,1.05006169429,,,2017_Sep_01_1528,60.0069480227,FEMA4ImagesEEG,001,200915,
AFSA21.JPG,AFNE22.JPG,AFNE21.JPG,AFSA23.JPG,AFSA22.JPG,AFNE23.JPG,,,,,,,,,,,,,0,6,6,0,,,,,,,,,,,AMNE09.jpg,AMNE15.jpg,AMSA19.jpg,AMSA13.jpg,AMSA19.jpg,MS,2,num_2,32,num_4,0.53373043047,,,2017_Sep_01_1528,60.0069480227,FEMA4ImagesEEG,001,200915,
AFNE23.JPG,AFNE24.JPG,AFNE22.JPG,AFSA24.JPG,AFSA22.JPG,AFSA23.JPG,,,,,,,,,,,,,0,7,7,8,,,,,,,,,,,AMNE07.jpg,AMNE04.jpg,AMSA13.jpg,AMSA03.jpg,AMSA13.jpg,MS,2,num_2,32,num_4,0.633468931366,,,2017_Sep_01_1528,60.0069480227,FEMA4ImagesEEG,001,200915,
AMSA21.JPG,AMNE22.JPG,AMNE21.JPG,AMSA23.JPG,AMSA22.JPG,AMNE23.JPG,,,,,,,,,,,,,0,8,8,1,,,,,,,,,,,AMSA10.jpg,AMNE04.jpg,AMSA03.jpg,AMNE18.jpg,AMNE18.jpg,MN,1,num_4,16,num_4,0.56679003383,,,2017_Sep_01_1528,60.0069480227,FEMA4ImagesEEG,001,200915,
AFNE22.JPG,AFSA24.JPG,AFSA22.JPG,AFNE25.JPG,AFNE24.JPG,AFSA25.JPG,,,,,,,,,,,,,0,9,9,6,,,,,,,,,,,AMNE04.jpg,AMSA17.jpg,AMNE16.jpg,AMSA19.jpg,AMSA17.jpg,MS,2,num_6,16,num_6,0.533504950436,,,2017_Sep_01_1528,60.0069480227,FEMA4ImagesEEG,001,200915,
AFNE23.JPG,AFNE24.JPG,AFNE22.JPG,AFSA24.JPG,AFSA22.JPG,AFSA23.JPG,,,,,,,,,,,,,,,,,0,0,0,8,,,,,,,AFSA12.jpg,AFSA01.jpg,AFNE02.jpg,AFNE17.jpg,AFSA12.jpg,FS,4,num_8,16,num_8,0.883445757965,,,2017_Sep_01_1528,60.0069480227,FEMA4ImagesEEG,001,200915,
AFSA21.JPG,AFNE22.JPG,AFNE21.JPG,AFSA23.JPG,AFSA22.JPG,AFNE23.JPG,,,,,,,,,,,,,,,,,0,1,1,0,,,,,,,AFNE02.jpg,AFSA15.jpg,AFSA11.jpg,AFNE10.jpg,AFSA15.jpg,FS,4,num_6,16,num_6,0.433494783007,,,2017_Sep_01_1528,60.0069480227,FEMA4ImagesEEG,001,200915,
AMNE23.JPG,AMNE24.JPG,AMNE22.JPG,AMSA24.JPG,AMSA22.JPG,AMSA23.JPG,,,,,,,,,,,,,,,,,0,2,2,9,,,,,,,AFSA08.jpg,AFSA14.jpg,AFNE15.jpg,AFNE09.jpg,AFNE15.jpg,FN,3,num_2,16,num_2,0.600145038508,,,2017_Sep_01_1528,60.0069480227,FEMA4ImagesEEG,001,200915,
AMSA25.JPG,AMNE24.JPG,AMSA24.JPG,AMNE26.JPG,AMSA21.JPG,AMNE25.JPG,,,,,,,,,,,,,,,,,0,3,3,3,,,,,,,AFSA04.jpg,AFSA18.jpg,AFNE06.jpg,AFNE07.jpg,AFSA18.jpg,FS,4,num_6,32,num_2,1.35000623838,,,2017_Sep_01_1528,60.0069480227,FEMA4ImagesEEG,001,200915,
AFSA21.JPG,AFNE23.JPG,AFNE21.JPG,AFSA25.JPG,AFNE25.JPG,AFSA23.JPG,,,,,,,,,,,,,,,,,0,4,4,4,,,,,,,AFSA11.jpg,AFSA12.jpg,AFNE05.jpg,AFNE01.jpg,AFSA11.jpg,FS,4,num_8,32,num_2,1.38335579046,,,2017_Sep_01_1528,60.0069480227,FEMA4ImagesEEG,001,200915,
AMSA21.JPG,AMNE22.JPG,AMNE21.JPG,AMSA23.JPG,AMSA22.JPG,AMNE23.JPG,,,,,,,,,,,,,,,,,0,5,5,1,,,,,,,AFNE04.jpg,AFSA14.jpg,AFSA13.jpg,AFNE20.jpg,AFSA13.jpg,FS,4,num_2,16,num_2,0.583470422833,,,2017_Sep_01_1528,60.0069480227,FEMA4ImagesEEG,001,200915,
AFSA25.JPG,AFNE24.JPG,AFSA24.JPG,AFNE21.JPG,AFSA21.JPG,AFNE25.JPG,,,,,,,,,,,,,,,,,0,6,6,2,,,,,,,AFNE20.jpg,AFNE09.jpg,AFSA12.jpg,AFSA03.jpg,AFNE09.jpg,FN,3,num_6,16,num_6,0.616846596298,,,2017_Sep_01_1528,60.0069480227,FEMA4ImagesEEG,001,200915,
AMSA21.JPG,AMNE23.JPG,AMNE21.JPG,AMSA25.JPG,AMNE25.JPG,AMSA23.JPG,,,,,,,,,,,,,,,,,0,7,7,5,,,,,,,AFNE10.jpg,AFSA14.jpg,AFSA15.jpg,AFNE08.jpg,AFSA15.jpg,FS,4,num_2,32,num_8,1.11674828958,,,2017_Sep_01_1528,60.0069480227,FEMA4ImagesEEG,001,200915,
AMNE22.JPG,AMSA24.JPG,AMSA22.JPG,AMNE25.JPG,AMNE24.JPG,AMSA25.JPG,,,,,,,,,,,,,,,,,0,8,8,7,,,,,,,AFNE05.jpg,AFSA05.jpg,AFSA16.jpg,AFNE17.jpg,AFSA16.jpg,FS,4,num_2,32,num_4,0.633488817257,,,2017_Sep_01_1528,60.0069480227,FEMA4ImagesEEG,001,200915,
AFNE22.JPG,AFSA24.JPG,AFSA22.JPG,AFNE25.JPG,AFNE24.JPG,AFSA25.JPG,,,,,,,,,,,,,,,,,0,9,9,6,,,,,,,AFNE13.jpg,AFNE12.jpg,AFSA12.jpg,AFSA01.jpg,AFNE12.jpg,FN,3,num_6,16,num_6,0.400181795267,,,2017_Sep_01_1528,60.0069480227,FEMA4ImagesEEG,001,200915,
AFSA21.JPG,AFNE22.JPG,AFNE21.JPG,AFSA23.JPG,AFSA22.JPG,AFNE23.JPG,,,,,,,,,,,,,,,,,,,,,0,0,0,0,,,AMNE03.jpg,AMSA11.jpg,AMNE13.jpg,AMSA10.jpg,AMNE13.jpg,MN,1,num_2,32,num_8,1.25008234993,,,2017_Sep_01_1528,60.0069480227,FEMA4ImagesEEG,001,200915,
AFSA25.JPG,AFNE24.JPG,AFSA24.JPG,AFNE21.JPG,AFSA21.JPG,AFNE25.JPG,,,,,,,,,,,,,,,,,,,,,0,1,1,2,,,AMNE05.jpg,AMSA01.jpg,AMNE01.jpg,AMSA19.jpg,AMSA19.jpg,MS,2,num_4,32,num_2,1.06673278182,,,2017_Sep_01_1528,60.0069480227,FEMA4ImagesEEG,001,200915,
AFSA21.JPG,AFNE23.JPG,AFNE21.JPG,AFSA25.JPG,AFNE25.JPG,AFSA23.JPG,,,,,,,,,,,,,,,,,,,,,0,2,2,4,,,AMSA17.jpg,AMNE05.jpg,AMNE06.jpg,AMSA04.jpg,AMNE05.jpg,MN,1,num_6,32,num_2,2.5167219248,,,2017_Sep_01_1528,60.0069480227,FEMA4ImagesEEG,001,200915,
AMNE23.JPG,AMNE24.JPG,AMNE22.JPG,AMSA24.JPG,AMSA22.JPG,AMSA23.JPG,,,,,,,,,,,,,,,,,,,,,0,3,3,9,,,AMNE18.jpg,AMNE03.jpg,AMSA10.jpg,AMSA07.jpg,AMSA07.jpg,MS,2,num_4,16,num_4,0.583536815946,,,2017_Sep_01_1528,60.0069480227,FEMA4ImagesEEG,001,200915,
AFNE23.JPG,AFNE24.JPG,AFNE22.JPG,AFSA24.JPG,AFSA22.JPG,AFSA23.JPG,,,,,,,,,,,,,,,,,,,,,0,4,4,8,,,AMNE16.jpg,AMSA14.jpg,AMNE10.jpg,AMSA16.jpg,AMSA14.jpg,MS,2,num_6,16,num_6,0.41681150737,,,2017_Sep_01_1528,60.0069480227,FEMA4ImagesEEG,001,200915,
AMSA21.JPG,AMNE22.JPG,AMNE21.JPG,AMSA23.JPG,AMSA22.JPG,AMNE23.JPG,,,,,,,,,,,,,,,,,,,,,0,5,5,1,,,AMSA08.jpg,AMNE14.jpg,AMSA04.jpg,AMNE06.jpg,AMNE14.jpg,MN,1,num_6,16,num_6,0.51679601564,,,2017_Sep_01_1528,60.0069480227,FEMA4ImagesEEG,001,200915,
AMSA25.JPG,AMNE24.JPG,AMSA24.JPG,AMNE26.JPG,AMSA21.JPG,AMNE25.JPG,,,,,,,,,,,,,,,,,,,,,0,6,6,3,,,AMNE17.jpg,AMNE12.jpg,AMSA16.jpg,AMSA15.jpg,AMSA16.jpg,MS,2,num_2,32,num_8,1.83339208216,,,2017_Sep_01_1528,60.0069480227,FEMA4ImagesEEG,001,200915,
AMSA21.JPG,AMNE23.JPG,AMNE21.JPG,AMSA25.JPG,AMNE25.JPG,AMSA23.JPG,,,,,,,,,,,,,,,,,,,,,0,7,7,5,,,AMSA18.jpg,AMNE08.jpg,AMNE07.jpg,AMSA19.jpg,AMNE07.jpg,MN,1,num_2,32,num_4,0.666801484243,,,2017_Sep_01_1528,60.0069480227,FEMA4ImagesEEG,001,200915,
AMNE22.JPG,AMSA24.JPG,AMSA22.JPG,AMNE25.JPG,AMNE24.JPG,AMSA25.JPG,,,,,,,,,,,,,,,,,,,,,0,8,8,7,,,AMSA18.jpg,AMNE13.jpg,AMNE01.jpg,AMSA16.jpg,AMNE13.jpg,MN,1,num_6,16,num_6,0.466781149356,,,2017_Sep_01_1528,60.0069480227,FEMA4ImagesEEG,001,200915,
AFNE22.JPG,AFSA24.JPG,AFSA22.JPG,AFNE25.JPG,AFNE24.JPG,AFSA25.JPG,,,,,,,,,,,,,,,,,,,,,0,9,9,6,,,AMNE14.jpg,AMSA09.jpg,AMSA03.jpg,AMNE01.jpg,AMSA03.jpg,MS,2,num_2,32,num_8,3.39989505397,,,2017_Sep_01_1528,60.0069480227,FEMA4ImagesEEG,001,200915,
,,,,,,,,,,,,,,,,,,,,,,,,,,,,,,,,,,,,,,,,,,,space,13.9823660519,2017_Sep_01_1528,60.0069480227,FEMA4ImagesEEG,001,200915,
AFNE01.JPG,AFNE01.JPG,AFNE01.JPG,AFNE01.JPG,AFNE01.JPG,AFNE01.JPG,0,0,0,8,,,,,,,,,,,,,,,,,,,,,,,AFSA20.jpg,AFSA13.jpg,AFNE09.jpg,AFNE06.jpg,AFNE06.jpg,FN,3,num_4,32,num_2,1.18350063651,,,2017_Sep_01_1528,60.0069480227,FEMA4ImagesEEG,001,200915,
AFNE01.JPG,AFNE01.JPG,AFNE01.JPG,AFNE01.JPG,AFNE01.JPG,AFNE01.JPG,0,1,1,6,,,,,,,,,,,,,,,,,,,,,,,AFNE06.jpg,AFSA16.jpg,AFNE11.jpg,AFSA07.jpg,AFNE06.jpg,FN,3,num_8,16,num_8,0.766770276299,,,2017_Sep_01_1528,60.0069480227,FEMA4ImagesEEG,001,200915,
AFNE01.JPG,AFNE01.JPG,AFNE01.JPG,AFNE01.JPG,AFNE01.JPG,AFNE01.JPG,0,2,2,7,,,,,,,,,,,,,,,,,,,,,,,AFNE20.jpg,AFSA19.jpg,AFNE14.jpg,AFSA20.jpg,AFSA19.jpg,FS,4,num_6,32,num_4,0.566797731619,,,2017_Sep_01_1528,60.0069480227,FEMA4ImagesEEG,001,200915,
AFNE01.JPG,AFNE01.JPG,AFNE01.JPG,AFNE01.JPG,AFNE01.JPG,AFNE01.JPG,0,3,3,0,,,,,,,,,,,,,,,,,,,,,,,AFSA17.jpg,AFNE10.jpg,AFNE15.jpg,AFSA13.jpg,AFNE10.jpg,FN,3,num_6,16,num_6,0.416797715559,,,2017_Sep_01_1528,60.0069480227,FEMA4ImagesEEG,001,200915,
AFNE01.JPG,AFNE01.JPG,AFNE01.JPG,AFNE01.JPG,AFNE01.JPG,AFNE01.JPG,0,4,4,9,,,,,,,,,,,,,,,,,,,,,,,AFNE02.jpg,AFSA07.jpg,AFSA10.jpg,AFNE19.jpg,AFNE02.jpg,FN,3,num_8,16,num_8,0.566822749301,,,2017_Sep_01_1528,60.0069480227,FEMA4ImagesEEG,001,200915,
AFNE01.JPG,AFNE01.JPG,AFNE01.JPG,AFNE01.JPG,AFNE01.JPG,AFNE01.JPG,0,5,5,4,,,,,,,,,,,,,,,,,,,,,,,AFNE03.jpg,AFSA06.jpg,AFSA14.jpg,AFNE05.jpg,AFSA14.jpg,FS,4,num_2,32,num_6,1.80004381304,,,2017_Sep_01_1528,60.0069480227,FEMA4ImagesEEG,001,200915,
AFNE01.JPG,AFNE01.JPG,AFNE01.JPG,AFNE01.JPG,AFNE01.JPG,AFNE01.JPG,0,6,6,3,,,,,,,,,,,,,,,,,,,,,,,AFNE03.jpg,AFSA14.jpg,AFSA06.jpg,AFNE10.jpg,AFNE10.jpg,FN,3,num_4,32,num_6,0.766838593845,,,2017_Sep_01_1528,60.0069480227,FEMA4ImagesEEG,001,200915,
AFNE01.JPG,AFNE01.JPG,AFNE01.JPG,AFNE01.JPG,AFNE01.JPG,AFNE01.JPG,0,7,7,1,,,,,,,,,,,,,,,,,,,,,,,AFNE11.jpg,AFSA13.jpg,AFSA19.jpg,AFNE17.jpg,AFNE11.jpg,FN,3,num_8,16,num_8,0.916452118516,,,2017_Sep_01_1528,60.0069480227,FEMA4ImagesEEG,001,200915,
AFNE01.JPG,AFNE01.JPG,AFNE01.JPG,AFNE01.JPG,AFNE01.JPG,AFNE01.JPG,0,8,8,2,,,,,,,,,,,,,,,,,,,,,,,AFSA16.jpg,AFNE15.jpg,AFNE20.jpg,AFSA05.jpg,AFNE15.jpg,FN,3,num_6,16,num_6,0.550156793586,,,2017_Sep_01_1528,60.0069480227,FEMA4ImagesEEG,001,200915,
AFNE01.JPG,AFNE01.JPG,AFNE01.JPG,AFNE01.JPG,AFNE01.JPG,AFNE01.JPG,0,9,9,5,,,,,,,,,,,,,,,,,,,,,,,AFNE16.jpg,AFSA15.jpg,AFSA14.jpg,AFNE07.jpg,AFSA14.jpg,FS,4,num_2,16,num_2,1.11673129036,,,2017_Sep_01_1528,60.0069480227,FEMA4ImagesEEG,001,200915,
AFNE01.JPG,AFNE01.JPG,AFNE01.JPG,AFNE01.JPG,AFNE01.JPG,AFNE01.JPG,1,0,10,5,,,,,,,,,,,,,,,,,,,,,,,AFNE09.jpg,AFSA05.jpg,AFNE03.jpg,AFSA15.jpg,AFSA15.jpg,FS,4,num_4,16,num_4,1.10006661763,,,2017_Sep_01_1528,60.0069480227,FEMA4ImagesEEG,001,200915,
AFNE01.JPG,AFNE01.JPG,AFNE01.JPG,AFNE01.JPG,AFNE01.JPG,AFNE01.JPG,1,1,11,4,,,,,,,,,,,,,,,,,,,,,,,AFNE01.jpg,AFNE17.jpg,AFSA01.jpg,AFSA13.jpg,AFNE17.jpg,FN,3,num_6,32,num_8,0.816767501878,,,2017_Sep_01_1528,60.0069480227,FEMA4ImagesEEG,001,200915,
AFNE01.JPG,AFNE01.JPG,AFNE01.JPG,AFNE01.JPG,AFNE01.JPG,AFNE01.JPG,1,2,12,9,,,,,,,,,,,,,,,,,,,,,,,AFNE13.jpg,AFNE03.jpg,AFSA10.jpg,AFSA01.jpg,AFNE03.jpg,FN,3,num_6,32,num_2,1.30004236972,,,2017_Sep_01_1528,60.0069480227,FEMA4ImagesEEG,001,200915,
AFNE01.JPG,AFNE01.JPG,AFNE01.JPG,AFNE01.JPG,AFNE01.JPG,AFNE01.JPG,1,3,13,2,,,,,,,,,,,,,,,,,,,,,,,AFNE05.jpg,AFSA04.jpg,AFNE15.jpg,AFSA09.jpg,AFSA09.jpg,FS,4,num_4,32,num_6,0.683514267934,,,2017_Sep_01_1528,60.0069480227,FEMA4ImagesEEG,001,200915,
AFNE01.JPG,AFNE01.JPG,AFNE01.JPG,AFNE01.JPG,AFNE01.JPG,AFNE01.JPG,1,4,14,8,,,,,,,,,,,,,,,,,,,,,,,AFSA05.jpg,AFNE05.jpg,AFSA07.jpg,AFNE14.jpg,AFSA05.jpg,FS,4,num_8,16,num_8,0.650204487611,,,2017_Sep_01_1528,60.0069480227,FEMA4ImagesEEG,001,200915,
AFNE01.JPG,AFNE01.JPG,AFNE01.JPG,AFNE01.JPG,AFNE01.JPG,AFNE01.JPG,1,5,15,7,,,,,,,,,,,,,,,,,,,,,,,AFSA02.jpg,AFNE15.jpg,AFSA17.jpg,AFNE10.jpg,AFNE15.jpg,FN,3,num_6,16,num_6,0.483499064867,,,2017_Sep_01_1528,60.0069480227,FEMA4ImagesEEG,001,200915,
AFNE01.JPG,AFNE01.JPG,AFNE01.JPG,AFNE01.JPG,AFNE01.JPG,AFNE01.JPG,1,6,16,3,,,,,,,,,,,,,,,,,,,,,,,AFNE03.jpg,AFSA18.jpg,AFSA09.jpg,AFNE19.jpg,AFNE19.jpg,FN,3,num_4,32,num_2,1.15006223955,,,2017_Sep_01_1528,60.0069480227,FEMA4ImagesEEG,001,200915,
AFNE01.JPG,AFNE01.JPG,AFNE01.JPG,AFNE01.JPG,AFNE01.JPG,AFNE01.JPG,1,7,17,0,,,,,,,,,,,,,,,,,,,,,,,AFNE15.jpg,AFNE12.jpg,AFSA07.jpg,AFSA06.jpg,AFNE12.jpg,FN,3,num_6,16,num_6,0.816779369256,,,2017_Sep_01_1528,60.0069480227,FEMA4ImagesEEG,001,200915,
AFNE01.JPG,AFNE01.JPG,AFNE01.JPG,AFNE01.JPG,AFNE01.JPG,AFNE01.JPG,1,8,18,1,,,,,,,,,,,,,,,,,,,,,,,AFSA09.jpg,AFNE06.jpg,AFNE04.jpg,AFSA06.jpg,AFNE06.jpg,FN,3,num_6,32,num_2,1.20011270794,,,2017_Sep_01_1528,60.0069480227,FEMA4ImagesEEG,001,200915,
AFNE01.JPG,AFNE01.JPG,AFNE01.JPG,AFNE01.JPG,AFNE01.JPG,AFNE01.JPG,1,9,19,6,,,,,,,,,,,,,,,,,,,,,,,AFNE18.jpg,AFNE02.jpg,AFSA16.jpg,AFSA10.jpg,AFSA10.jpg,FS,4,num_4,32,num_8,1.21682901977,,,2017_Sep_01_1528,60.0069480227,FEMA4ImagesEEG,001,200915,
AFNE01.JPG,AFNE01.JPG,AFNE01.JPG,AFNE01.JPG,AFNE01.JPG,AFNE01.JPG,2,0,20,4,,,,,,,,,,,,,,,,,,,,,,,AFSA06.jpg,AFSA11.jpg,AFNE07.jpg,AFNE05.jpg,AFSA06.jpg,FS,4,num_8,32,num_2,1.24998484505,,,2017_Sep_01_1528,60.0069480227,FEMA4ImagesEEG,001,200915,
AFNE01.JPG,AFNE01.JPG,AFNE01.JPG,AFNE01.JPG,AFNE01.JPG,AFNE01.JPG,2,1,21,8,,,,,,,,,,,,,,,,,,,,,,,AFNE16.jpg,AFSA07.jpg,AFSA17.jpg,AFNE01.jpg,AFSA17.jpg,FS,4,num_2,32,num_4,1.31678915181,,,2017_Sep_01_1528,60.0069480227,FEMA4ImagesEEG,001,200915,
AFNE01.JPG,AFNE01.JPG,AFNE01.JPG,AFNE01.JPG,AFNE01.JPG,AFNE01.JPG,2,2,22,9,,,,,,,,,,,,,,,,,,,,,,,AFSA18.jpg,AFNE11.jpg,AFNE18.jpg,AFSA13.jpg,AFSA13.jpg,FS,4,num_4,32,num_6,0.683471609576,,,2017_Sep_01_1528,60.0069480227,FEMA4ImagesEEG,001,200915,
AFNE01.JPG,AFNE01.JPG,AFNE01.JPG,AFNE01.JPG,AFNE01.JPG,AFNE01.JPG,2,3,23,0,,,,,,,,,,,,,,,,,,,,,,,AFNE12.jpg,AFSA12.jpg,AFSA13.jpg,AFNE19.jpg,AFNE19.jpg,FN,3,num_4,16,num_4,1.28325292922,,,2017_Sep_01_1528,60.0069480227,FEMA4ImagesEEG,001,200915,
AFNE01.JPG,AFNE01.JPG,AFNE01.JPG,AFNE01.JPG,AFNE01.JPG,AFNE01.JPG,2,4,24,3,,,,,,,,,,,,,,,,,,,,,,,AFSA20.jpg,AFNE07.jpg,AFSA16.jpg,AFNE11.jpg,AFSA16.jpg,FS,4,num_2,32,num_4,0.883422343933,,,2017_Sep_01_1528,60.0069480227,FEMA4ImagesEEG,001,200915,
AFNE01.JPG,AFNE01.JPG,AFNE01.JPG,AFNE01.JPG,AFNE01.JPG,AFNE01.JPG,2,5,25,5,,,,,,,,,,,,,,,,,,,,,,,AFNE07.jpg,AFNE03.jpg,AFSA17.jpg,AFSA07.jpg,AFSA17.jpg,FS,4,num_2,32,num_6,1.11671621562,,,2017_Sep_01_1528,60.0069480227,FEMA4ImagesEEG,001,200915,
AFNE01.JPG,AFNE01.JPG,AFNE01.JPG,AFNE01.JPG,AFNE01.JPG,AFNE01.JPG,2,6,26,1,,,,,,,,,,,,,,,,,,,,,,,AFNE09.jpg,AFSA06.jpg,AFSA19.jpg,AFNE05.jpg,AFSA06.jpg,FS,4,num_6,16,num_6,0.500146417675,,,2017_Sep_01_1528,60.0069480227,FEMA4ImagesEEG,001,200915,
AFNE01.JPG,AFNE01.JPG,AFNE01.JPG,AFNE01.JPG,AFNE01.JPG,AFNE01.JPG,2,7,27,6,,,,,,,,,,,,,,,,,,,,,,,AFNE03.jpg,AFSA18.jpg,AFNE04.jpg,AFSA17.jpg,AFSA18.jpg,FS,4,num_6,16,num_6,0.716742259683,,,2017_Sep_01_1528,60.0069480227,FEMA4ImagesEEG,001,200915,
AFNE01.JPG,AFNE01.JPG,AFNE01.JPG,AFNE01.JPG,AFNE01.JPG,AFNE01.JPG,2,8,28,2,,,,,,,,,,,,,,,,,,,,,,,AFNE17.jpg,AFSA18.jpg,AFNE03.jpg,AFSA05.jpg,AFNE17.jpg,FN,3,num_8,16,num_8,1.18340345236,,,2017_Sep_01_1528,60.0069480227,FEMA4ImagesEEG,001,200915,
AFNE01.JPG,AFNE01.JPG,AFNE01.JPG,AFNE01.JPG,AFNE01.JPG,AFNE01.JPG,2,9,29,7,,,,,,,,,,,,,,,,,,,,,,,AFNE18.jpg,AFSA13.jpg,AFNE19.jpg,AFSA14.jpg,AFNE19.jpg,FN,3,num_2,16,num_2,0.783468947426,,,2017_Sep_01_1528,60.0069480227,FEMA4ImagesEEG,001,200915,
AFNE01.JPG,AFNE01.JPG,AFNE01.JPG,AFNE01.JPG,AFNE01.JPG,AFNE01.JPG,3,0,30,7,,,,,,,,,,,,,,,,,,,,,,,AFNE06.jpg,AFSA13.jpg,AFNE16.jpg,AFSA10.jpg,AFNE16.jpg,FN,3,num_2,32,num_8,0.916736293904,,,2017_Sep_01_1528,60.0069480227,FEMA4ImagesEEG,001,200915,
AFNE01.JPG,AFNE01.JPG,AFNE01.JPG,AFNE01.JPG,AFNE01.JPG,AFNE01.JPG,3,1,31,8,,,,,,,,,,,,,,,,,,,,,,,AFSA07.jpg,AFNE14.jpg,AFSA19.jpg,AFNE07.jpg,AFNE14.jpg,FN,3,num_6,16,num_6,0.633443272207,,,2017_Sep_01_1528,60.0069480227,FEMA4ImagesEEG,001,200915,
AFNE01.JPG,AFNE01.JPG,AFNE01.JPG,AFNE01.JPG,AFNE01.JPG,AFNE01.JPG,3,2,32,5,,,,,,,,,,,,,,,,,,,,,,,AFNE18.jpg,AFNE16.jpg,AFSA08.jpg,AFSA17.jpg,AFSA08.jpg,FS,4,num_2,16,num_2,0.883428758738,,,2017_Sep_01_1528,60.0069480227,FEMA4ImagesEEG,001,200915,
AFNE01.JPG,AFNE01.JPG,AFNE01.JPG,AFNE01.JPG,AFNE01.JPG,AFNE01.JPG,3,3,33,1,,,,,,,,,,,,,,,,,,,,,,,AFNE09.jpg,AFSA10.jpg,AFSA09.jpg,AFNE19.jpg,AFSA09.jpg,FS,4,num_2,32,num_6,0.799823464884,,,2017_Sep_01_1528,60.0069480227,FEMA4ImagesEEG,001,200915,
AFNE01.JPG,AFNE01.JPG,AFNE01.JPG,AFNE01.JPG,AFNE01.JPG,AFNE01.JPG,3,4,34,0,,,,,,,,,,,,,,,,,,,,,,,AFSA01.jpg,AFSA02.jpg,AFNE17.jpg,AFNE11.jpg,AFNE17.jpg,FN,3,num_2,32,num_6,0.583478120592,,,2017_Sep_01_1528,60.0069480227,FEMA4ImagesEEG,001,200915,
AFNE01.JPG,AFNE01.JPG,AFNE01.JPG,AFNE01.JPG,AFNE01.JPG,AFNE01.JPG,3,5,35,6,,,,,,,,,,,,,,,,,,,,,,,AFSA07.jpg,AFNE16.jpg,AFSA02.jpg,AFNE18.jpg,AFNE16.jpg,FN,3,num_6,16,num_6,0.383490821871,,,2017_Sep_01_1528,60.0069480227,FEMA4ImagesEEG,001,200915,
AFNE01.JPG,AFNE01.JPG,AFNE01.JPG,AFNE01.JPG,AFNE01.JPG,AFNE01.JPG,3,6,36,4,,,,,,,,,,,,,,,,,,,,,,,AFSA09.jpg,AFNE19.jpg,AFSA04.jpg,AFNE17.jpg,AFSA09.jpg,FS,4,num_8,16,num_8,1.28341522353,,,2017_Sep_01_1528,60.0069480227,FEMA4ImagesEEG,001,200915,
AFNE01.JPG,AFNE01.JPG,AFNE01.JPG,AFNE01.JPG,AFNE01.JPG,AFNE01.JPG,3,7,37,3,,,,,,,,,,,,,,,,,,,,,,,AFNE09.jpg,AFSA01.jpg,AFSA12.jpg,AFNE15.jpg,AFSA12.jpg,FS,4,num_2,16,num_2,0.883446399414,,,2017_Sep_01_1528,60.0069480227,FEMA4ImagesEEG,001,200915,
AFNE01.JPG,AFNE01.JPG,AFNE01.JPG,AFNE01.JPG,AFNE01.JPG,AFNE01.JPG,3,8,38,9,,,,,,,,,,,,,,,,,,,,,,,AFSA08.jpg,AFNE07.jpg,AFNE16.jpg,AFSA09.jpg,AFSA08.jpg,FS,4,num_8,16,num_8,0.750160770782,,,2017_Sep_01_1528,60.0069480227,FEMA4ImagesEEG,001,200915,
AFNE01.JPG,AFNE01.JPG,AFNE01.JPG,AFNE01.JPG,AFNE01.JPG,AFNE01.JPG,3,9,39,2,,,,,,,,,,,,,,,,,,,,,,,AFSA13.jpg,AFSA10.jpg,AFNE14.jpg,AFNE12.jpg,AFSA13.jpg,FS,4,num_8,32,num_2,1.11672391335,,,2017_Sep_01_1528,60.0069480227,FEMA4ImagesEEG,001,200915,
AFNE01.JPG,AFNE01.JPG,AFNE01.JPG,AFNE01.JPG,AFNE01.JPG,AFNE01.JPG,4,0,40,5,,,,,,,,,,,,,,,,,,,,,,,AFNE16.jpg,AFSA13.jpg,AFSA06.jpg,AFNE07.jpg,AFNE16.jpg,FN,3,num_8,16,num_8,0.800161524501,,,2017_Sep_01_1528,60.0069480227,FEMA4ImagesEEG,001,200915,
AFNE01.JPG,AFNE01.JPG,AFNE01.JPG,AFNE01.JPG,AFNE01.JPG,AFNE01.JPG,4,1,41,3,,,,,,,,,,,,,,,,,,,,,,,AFNE13.jpg,AFNE16.jpg,AFSA13.jpg,AFSA15.jpg,AFNE13.jpg,FN,3,num_8,16,num_8,0.900111713621,,,2017_Sep_01_1528,60.0069480227,FEMA4ImagesEEG,001,200915,
AFNE01.JPG,AFNE01.JPG,AFNE01.JPG,AFNE01.JPG,AFNE01.JPG,AFNE01.JPG,4,2,42,4,,,,,,,,,,,,,,,,,,,,,,,AFNE12.jpg,AFNE14.jpg,AFSA15.jpg,AFSA13.jpg,AFNE12.jpg,FN,3,num_8,16,num_8,0.666762674751,,,2017_Sep_01_1528,60.0069480227,FEMA4ImagesEEG,001,200915,
AFNE01.JPG,AFNE01.JPG,AFNE01.JPG,AFNE01.JPG,AFNE01.JPG,AFNE01.JPG,4,3,43,8,,,,,,,,,,,,,,,,,,,,,,,AFSA05.jpg,AFNE07.jpg,AFSA03.jpg,AFNE04.jpg,AFNE04.jpg,FN,3,num_4,32,num_6,0.583566644753,,,2017_Sep_01_1528,60.0069480227,FEMA4ImagesEEG,001,200915,
AFNE01.JPG,AFNE01.JPG,AFNE01.JPG,AFNE01.JPG,AFNE01.JPG,AFNE01.JPG,4,4,44,7,,,,,,,,,,,,,,,,,,,,,,,AFSA10.jpg,AFNE18.jpg,AFNE04.jpg,AFSA19.jpg,AFNE18.jpg,FN,3,num_6,32,num_2,1.08346545135,,,2017_Sep_01_1528,60.0069480227,FEMA4ImagesEEG,001,200915,
AFNE01.JPG,AFNE01.JPG,AFNE01.JPG,AFNE01.JPG,AFNE01.JPG,AFNE01.JPG,4,5,45,6,,,,,,,,,,,,,,,,,,,,,,,AFSA08.jpg,AFNE03.jpg,AFNE17.jpg,AFSA13.jpg,AFNE17.jpg,FN,3,num_2,16,num_2,1.26673130642,,,2017_Sep_01_1528,60.0069480227,FEMA4ImagesEEG,001,200915,
AFNE01.JPG,AFNE01.JPG,AFNE01.JPG,AFNE01.JPG,AFNE01.JPG,AFNE01.JPG,4,6,46,1,,,,,,,,,,,,,,,,,,,,,,,AFNE14.jpg,AFSA06.jpg,AFNE06.jpg,AFSA19.jpg,AFNE14.jpg,FN,3,num_8,32,num_2,1.16680388982,,,2017_Sep_01_1528,60.0069480227,FEMA4ImagesEEG,001,200915,
AFNE01.JPG,AFNE01.JPG,AFNE01.JPG,AFNE01.JPG,AFNE01.JPG,AFNE01.JPG,4,7,47,0,,,,,,,,,,,,,,,,,,,,,,,AFSA06.jpg,AFNE01.jpg,AFSA10.jpg,AFNE16.jpg,AFNE01.jpg,FN,3,num_6,16,num_6,0.583494478313,,,2017_Sep_01_1528,60.0069480227,FEMA4ImagesEEG,001,200915,
AFNE01.JPG,AFNE01.JPG,AFNE01.JPG,AFNE01.JPG,AFNE01.JPG,AFNE01.JPG,4,8,48,2,,,,,,,,,,,,,,,,,,,,,,,AFSA08.jpg,AFNE17.jpg,AFSA09.jpg,AFNE13.jpg,AFSA08.jpg,FS,4,num_8,32,num_2,0.883412721741,,,2017_Sep_01_1528,60.0069480227,FEMA4ImagesEEG,001,200915,
AFNE01.JPG,AFNE01.JPG,AFNE01.JPG,AFNE01.JPG,AFNE01.JPG,AFNE01.JPG,4,9,49,9,,,,,,,,,,,,,,,,,,,,,,,AFSA01.jpg,AFNE04.jpg,AFSA10.jpg,AFNE08.jpg,AFSA01.jpg,FS,4,num_8,16,num_8,0.983451114298,,,2017_Sep_01_1528,60.0069480227,FEMA4ImagesEEG,001,200915,
AFNE01.JPG,AFNE01.JPG,AFNE01.JPG,AFNE01.JPG,AFNE01.JPG,AFNE01.JPG,5,0,50,9,,,,,,,,,,,,,,,,,,,,,,,AFNE15.jpg,AFNE09.jpg,AFSA04.jpg,AFSA08.jpg,AFSA08.jpg,FS,4,num_4,16,num_4,0.850161636772,,,2017_Sep_01_1528,60.0069480227,FEMA4ImagesEEG,001,200915,
AFNE01.JPG,AFNE01.JPG,AFNE01.JPG,AFNE01.JPG,AFNE01.JPG,AFNE01.JPG,5,1,51,2,,,,,,,,,,,,,,,,,,,,,,,AFSA11.jpg,AFNE18.jpg,AFSA19.jpg,AFNE02.jpg,AFNE02.jpg,FN,3,num_4,16,num_4,0.916869721637,,,2017_Sep_01_1528,60.0069480227,FEMA4ImagesEEG,001,200915,
AFNE01.JPG,AFNE01.JPG,AFNE01.JPG,AFNE01.JPG,AFNE01.JPG,AFNE01.JPG,5,2,52,4,,,,,,,,,,,,,,,,,,,,,,,AFNE16.jpg,AFSA16.jpg,AFNE17.jpg,AFSA17.jpg,AFSA17.jpg,FS,4,num_4,16,num_4,0.966916020378,,,2017_Sep_01_1528,60.0069480227,FEMA4ImagesEEG,001,200915,
AFNE01.JPG,AFNE01.JPG,AFNE01.JPG,AFNE01.JPG,AFNE01.JPG,AFNE01.JPG,5,3,53,3,,,,,,,,,,,,,,,,,,,,,,,AFSA05.jpg,AFNE18.jpg,AFNE19.jpg,AFSA08.jpg,AFNE19.jpg,FN,3,num_2,16,num_2,1.05010659783,,,2017_Sep_01_1528,60.0069480227,FEMA4ImagesEEG,001,200915,
AFNE01.JPG,AFNE01.JPG,AFNE01.JPG,AFNE01.JPG,AFNE01.JPG,AFNE01.JPG,5,4,54,1,,,,,,,,,,,,,,,,,,,,,,,AFNE08.jpg,AFSA17.jpg,AFSA08.jpg,AFNE17.jpg,AFNE08.jpg,FN,3,num_8,32,num_4,0.900097601087,,,2017_Sep_01_1528,60.0069480227,FEMA4ImagesEEG,001,200915,
AFNE01.JPG,AFNE01.JPG,AFNE01.JPG,AFNE01.JPG,AFNE01.JPG,AFNE01.JPG,5,5,55,5,,,,,,,,,,,,,,,,,,,,,,,AFNE02.jpg,AFNE15.jpg,AFSA10.jpg,AFSA07.jpg,AFNE15.jpg,FN,3,num_6,16,num_6,0.500120117038,,,2017_Sep_01_1528,60.0069480227,FEMA4ImagesEEG,001,200915,
AFNE01.JPG,AFNE01.JPG,AFNE01.JPG,AFNE01.JPG,AFNE01.JPG,AFNE01.JPG,5,6,56,7,,,,,,,,,,,,,,,,,,,,,,,AFSA04.jpg,AFSA02.jpg,AFNE13.jpg,AFNE07.jpg,AFNE07.jpg,FN,3,num_4,32,num_2,1.06674529065,,,2017_Sep_01_1528,60.0069480227,FEMA4ImagesEEG,001,200915,
AFNE01.JPG,AFNE01.JPG,AFNE01.JPG,AFNE01.JPG,AFNE01.JPG,AFNE01.JPG,5,7,57,0,,,,,,,,,,,,,,,,,,,,,,,AFSA17.jpg,AFNE13.jpg,AFNE18.jpg,AFSA11.jpg,AFSA17.jpg,FS,4,num_8,16,num_8,0.800140355685,,,2017_Sep_01_1528,60.0069480227,FEMA4ImagesEEG,001,200915,
AFNE01.JPG,AFNE01.JPG,AFNE01.JPG,AFNE01.JPG,AFNE01.JPG,AFNE01.JPG,5,8,58,6,,,,,,,,,,,,,,,,,,,,,,,AFSA06.jpg,AFNE09.jpg,AFSA14.jpg,AFNE04.jpg,AFSA06.jpg,FS,4,num_8,32,num_2,0.800132978678,,,2017_Sep_01_1528,60.0069480227,FEMA4ImagesEEG,001,200915,
AFNE01.JPG,AFNE01.JPG,AFNE01.JPG,AFNE01.JPG,AFNE01.JPG,AFNE01.JPG,5,9,59,8,,,,,,,,,,,,,,,,,,,,,,,AFSA05.jpg,AFSA10.jpg,AFNE10.jpg,AFNE04.jpg,AFSA05.jpg,FS,4,num_8,16,num_8,1.01676089465,,,2017_Sep_01_1528,60.0069480227,FEMA4ImagesEEG,001,200915,
,,,,,,,,,,,,,,,,,,,,,,,,,,,,,,,,,,,,,,,,,,,space,15.6989662239,2017_Sep_01_1528,60.0069480227,FEMA4ImagesEEG,001,200915,
AFNE01.JPG,AFNE01.JPG,AFNE01.JPG,AFNE01.JPG,AFNE01.JPG,AFNE01.JPG,,,,,0,0,0,7,,,,,,,,,,,,,,,,,,,AMSA18.jpg,AMSA08.jpg,AMNE02.jpg,AMNE08.jpg,AMSA18.jpg,MS,2,num_8,16,num_8,0.850152335333,,,2017_Sep_01_1528,60.0069480227,FEMA4ImagesEEG,001,200915,
AFNE01.JPG,AFNE01.JPG,AFNE01.JPG,AFNE01.JPG,AFNE01.JPG,AFNE01.JPG,,,,,0,1,1,3,,,,,,,,,,,,,,,,,,,AMNE04.jpg,AMSA02.jpg,AMNE07.jpg,AMSA04.jpg,AMNE04.jpg,MN,1,num_8,32,num_4,0.683454610349,,,2017_Sep_01_1528,60.0069480227,FEMA4ImagesEEG,001,200915,
AFNE01.JPG,AFNE01.JPG,AFNE01.JPG,AFNE01.JPG,AFNE01.JPG,AFNE01.JPG,,,,,0,2,2,2,,,,,,,,,,,,,,,,,,,AMSA05.jpg,AMSA03.jpg,AMNE03.jpg,AMNE13.jpg,AMSA05.jpg,MS,2,num_8,16,num_8,0.850025322376,,,2017_Sep_01_1528,60.0069480227,FEMA4ImagesEEG,001,200915,
AFNE01.JPG,AFNE01.JPG,AFNE01.JPG,AFNE01.JPG,AFNE01.JPG,AFNE01.JPG,,,,,0,3,3,0,,,,,,,,,,,,,,,,,,,AMSA04.jpg,AMNE18.jpg,AMNE11.jpg,AMSA09.jpg,AMSA04.jpg,MS,2,num_8,32,num_2,1.03343198218,,,2017_Sep_01_1528,60.0069480227,FEMA4ImagesEEG,001,200915,
AFNE01.JPG,AFNE01.JPG,AFNE01.JPG,AFNE01.JPG,AFNE01.JPG,AFNE01.JPG,,,,,0,4,4,8,,,,,,,,,,,,,,,,,,,AMNE01.jpg,AMSA10.jpg,AMSA07.jpg,AMNE08.jpg,AMNE01.jpg,MN,1,num_8,32,num_4,0.933432399121,,,2017_Sep_01_1528,60.0069480227,FEMA4ImagesEEG,001,200915,
AFNE01.JPG,AFNE01.JPG,AFNE01.JPG,AFNE01.JPG,AFNE01.JPG,AFNE01.JPG,,,,,0,5,5,6,,,,,,,,,,,,,,,,,,,AMSA19.jpg,AMNE10.jpg,AMNE15.jpg,AMSA17.jpg,AMNE10.jpg,MN,1,num_6,16,num_6,1.1831975375,,,2017_Sep_01_1528,60.0069480227,FEMA4ImagesEEG,001,200915,
AFNE01.JPG,AFNE01.JPG,AFNE01.JPG,AFNE01.JPG,AFNE01.JPG,AFNE01.JPG,,,,,0,6,6,5,,,,,,,,,,,,,,,,,,,AMNE19.jpg,AMSA09.jpg,AMSA16.jpg,AMNE09.jpg,AMSA09.jpg,MS,2,num_6,16,num_6,0.550167698762,,,2017_Sep_01_1528,60.0069480227,FEMA4ImagesEEG,001,200915,
AFNE01.JPG,AFNE01.JPG,AFNE01.JPG,AFNE01.JPG,AFNE01.JPG,AFNE01.JPG,,,,,0,7,7,4,,,,,,,,,,,,,,,,,,,AMNE07.jpg,AMSA17.jpg,AMNE04.jpg,AMSA01.jpg,AMNE04.jpg,MN,1,num_2,32,num_4,0.633444875915,,,2017_Sep_01_1528,60.0069480227,FEMA4ImagesEEG,001,200915,
AFNE01.JPG,AFNE01.JPG,AFNE01.JPG,AFNE01.JPG,AFNE01.JPG,AFNE01.JPG,,,,,0,8,8,1,,,,,,,,,,,,,,,,,,,AMSA15.jpg,AMSA12.jpg,AMNE12.jpg,AMNE03.jpg,AMSA12.jpg,MS,2,num_6,16,num_6,0.583467215416,,,2017_Sep_01_1528,60.0069480227,FEMA4ImagesEEG,001,200915,
AFNE01.JPG,AFNE01.JPG,AFNE01.JPG,AFNE01.JPG,AFNE01.JPG,AFNE01.JPG,,,,,0,9,9,9,,,,,,,,,,,,,,,,,,,AMNE05.jpg,AMSA15.jpg,AMNE19.jpg,AMSA03.jpg,AMNE05.jpg,MN,1,num_8,32,num_6,0.783473758522,,,2017_Sep_01_1528,60.0069480227,FEMA4ImagesEEG,001,200915,
AFNE01.JPG,AFNE01.JPG,AFNE01.JPG,AFNE01.JPG,AFNE01.JPG,AFNE01.JPG,,,,,1,0,10,5,,,,,,,,,,,,,,,,,,,AMSA02.jpg,AMSA01.jpg,AMNE15.jpg,AMNE05.jpg,AMSA01.jpg,MS,2,num_6,16,num_6,0.516793449729,,,2017_Sep_01_1528,60.0069480227,FEMA4ImagesEEG,001,200915,
AFNE01.JPG,AFNE01.JPG,AFNE01.JPG,AFNE01.JPG,AFNE01.JPG,AFNE01.JPG,,,,,1,1,11,8,,,,,,,,,,,,,,,,,,,AMSA06.jpg,AMSA05.jpg,AMNE12.jpg,AMNE08.jpg,AMSA05.jpg,MS,2,num_6,32,num_8,1.0000750531,,,2017_Sep_01_1528,60.0069480227,FEMA4ImagesEEG,001,200915,
AFNE01.JPG,AFNE01.JPG,AFNE01.JPG,AFNE01.JPG,AFNE01.JPG,AFNE01.JPG,,,,,1,2,12,6,,,,,,,,,,,,,,,,,,,AMNE13.jpg,AMNE12.jpg,AMSA04.jpg,AMSA17.jpg,AMSA04.jpg,MS,2,num_2,16,num_2,0.73341687533,,,2017_Sep_01_1528,60.0069480227,FEMA4ImagesEEG,001,200915,
AFNE01.JPG,AFNE01.JPG,AFNE01.JPG,AFNE01.JPG,AFNE01.JPG,AFNE01.JPG,,,,,1,3,13,4,,,,,,,,,,,,,,,,,,,AMSA04.jpg,AMSA18.jpg,AMNE12.jpg,AMNE13.jpg,AMSA04.jpg,MS,2,num_8,32,num_6,0.683434083039,,,2017_Sep_01_1528,60.0069480227,FEMA4ImagesEEG,001,200915,
AFNE01.JPG,AFNE01.JPG,AFNE01.JPG,AFNE01.JPG,AFNE01.JPG,AFNE01.JPG,,,,,1,4,14,0,,,,,,,,,,,,,,,,,,,AMNE01.jpg,AMSA01.jpg,AMNE19.jpg,AMSA13.jpg,AMSA13.jpg,MS,2,num_4,32,num_2,0.983467472019,,,2017_Sep_01_1528,60.0069480227,FEMA4ImagesEEG,001,200915,
AFNE01.JPG,AFNE01.JPG,AFNE01.JPG,AFNE01.JPG,AFNE01.JPG,AFNE01.JPG,,,,,1,5,15,1,,,,,,,,,,,,,,,,,,,AMNE19.jpg,AMSA13.jpg,AMNE04.jpg,AMSA02.jpg,AMNE19.jpg,MN,1,num_8,16,num_8,0.650126227119,,,2017_Sep_01_1528,60.0069480227,FEMA4ImagesEEG,001,200915,
AFNE01.JPG,AFNE01.JPG,AFNE01.JPG,AFNE01.JPG,AFNE01.JPG,AFNE01.JPG,,,,,1,6,16,3,,,,,,,,,,,,,,,,,,,AMNE11.jpg,AMSA05.jpg,AMSA04.jpg,AMNE08.jpg,AMSA05.jpg,MS,2,num_6,16,num_6,0.53346934836,,,2017_Sep_01_1528,60.0069480227,FEMA4ImagesEEG,001,200915,
AFNE01.JPG,AFNE01.JPG,AFNE01.JPG,AFNE01.JPG,AFNE01.JPG,AFNE01.JPG,,,,,1,7,17,2,,,,,,,,,,,,,,,,,,,AMNE15.jpg,AMSA08.jpg,AMNE18.jpg,AMSA13.jpg,AMNE15.jpg,MN,1,num_8,32,num_4,1.76671318462,,,2017_Sep_01_1528,60.0069480227,FEMA4ImagesEEG,001,200915,
AFNE01.JPG,AFNE01.JPG,AFNE01.JPG,AFNE01.JPG,AFNE01.JPG,AFNE01.JPG,,,,,1,8,18,9,,,,,,,,,,,,,,,,,,,AMNE17.jpg,AMSA09.jpg,AMNE13.jpg,AMSA16.jpg,AMNE17.jpg,MN,1,num_8,16,num_8,0.51684925842,,,2017_Sep_01_1528,60.0069480227,FEMA4ImagesEEG,001,200915,
AFNE01.JPG,AFNE01.JPG,AFNE01.JPG,AFNE01.JPG,AFNE01.JPG,AFNE01.JPG,,,,,1,9,19,7,,,,,,,,,,,,,,,,,,,AMNE10.jpg,AMSA07.jpg,AMNE02.jpg,AMSA19.jpg,AMNE02.jpg,MN,1,num_2,32,num_4,0.999948040175,,,2017_Sep_01_1528,60.0069480227,FEMA4ImagesEEG,001,200915,
AFNE01.JPG,AFNE01.JPG,AFNE01.JPG,AFNE01.JPG,AFNE01.JPG,AFNE01.JPG,,,,,2,0,20,2,,,,,,,,,,,,,,,,,,,AMSA05.jpg,AMNE10.jpg,AMSA19.jpg,AMNE03.jpg,AMSA19.jpg,MS,2,num_2,32,num_8,0.683478024381,,,2017_Sep_01_1528,60.0069480227,FEMA4ImagesEEG,001,200915,
AFNE01.JPG,AFNE01.JPG,AFNE01.JPG,AFNE01.JPG,AFNE01.JPG,AFNE01.JPG,,,,,2,1,21,0,,,,,,,,,,,,,,,,,,,AMSA17.jpg,AMNE01.jpg,AMSA10.jpg,AMNE12.jpg,AMNE12.jpg,MN,1,num_4,16,num_4,0.983421926969,,,2017_Sep_01_1528,60.0069480227,FEMA4ImagesEEG,001,200915,
AFNE01.JPG,AFNE01.JPG,AFNE01.JPG,AFNE01.JPG,AFNE01.JPG,AFNE01.JPG,,,,,2,2,22,8,,,,,,,,,,,,,,,,,,,AMNE02.jpg,AMNE11.jpg,AMSA06.jpg,AMSA18.jpg,AMNE02.jpg,MN,1,num_8,32,num_2,1.11670883858,,,2017_Sep_01_1528,60.0069480227,FEMA4ImagesEEG,001,200915,
AFNE01.JPG,AFNE01.JPG,AFNE01.JPG,AFNE01.JPG,AFNE01.JPG,AFNE01.JPG,,,,,2,3,23,3,,,,,,,,,,,,,,,,,,,AMNE10.jpg,AMNE20.jpg,AMSA05.jpg,AMSA12.jpg,AMSA12.jpg,MS,2,num_4,32,num_8,1.11659914564,,,2017_Sep_01_1528,60.0069480227,FEMA4ImagesEEG,001,200915,
AFNE01.JPG,AFNE01.JPG,AFNE01.JPG,AFNE01.JPG,AFNE01.JPG,AFNE01.JPG,,,,,2,4,24,9,,,,,,,,,,,,,,,,,,,AMSA14.jpg,AMNE11.jpg,AMSA17.jpg,AMNE05.jpg,AMNE11.jpg,MN,1,num_6,32,num_2,0.933445870207,,,2017_Sep_01_1528,60.0069480227,FEMA4ImagesEEG,001,200915,
AFNE01.JPG,AFNE01.JPG,AFNE01.JPG,AFNE01.JPG,AFNE01.JPG,AFNE01.JPG,,,,,2,5,25,5,,,,,,,,,,,,,,,,,,,AMSA02.jpg,AMNE01.jpg,AMSA05.jpg,AMNE14.jpg,AMSA02.jpg,MS,2,num_8,16,num_8,0.733467231476,,,2017_Sep_01_1528,60.0069480227,FEMA4ImagesEEG,001,200915,
AFNE01.JPG,AFNE01.JPG,AFNE01.JPG,AFNE01.JPG,AFNE01.JPG,AFNE01.JPG,,,,,2,6,26,1,,,,,,,,,,,,,,,,,,,AMSA05.jpg,AMSA15.jpg,AMNE20.jpg,AMNE07.jpg,AMSA05.jpg,MS,2,num_8,32,num_6,0.633480798744,,,2017_Sep_01_1528,60.0069480227,FEMA4ImagesEEG,001,200915,
AFNE01.JPG,AFNE01.JPG,AFNE01.JPG,AFNE01.JPG,AFNE01.JPG,AFNE01.JPG,,,,,2,7,27,4,,,,,,,,,,,,,,,,,,,AMNE10.jpg,AMSA17.jpg,AMNE03.jpg,AMSA04.jpg,AMNE10.jpg,MN,1,num_8,16,num_8,0.666822332336,,,2017_Sep_01_1528,60.0069480227,FEMA4ImagesEEG,001,200915,
AFNE01.JPG,AFNE01.JPG,AFNE01.JPG,AFNE01.JPG,AFNE01.JPG,AFNE01.JPG,,,,,2,8,28,6,,,,,,,,,,,,,,,,,,,AMNE09.jpg,AMNE13.jpg,AMSA06.jpg,AMSA20.jpg,AMNE09.jpg,MN,1,num_8,16,num_8,1.50005628983,,,2017_Sep_01_1528,60.0069480227,FEMA4ImagesEEG,001,200915,
AFNE01.JPG,AFNE01.JPG,AFNE01.JPG,AFNE01.JPG,AFNE01.JPG,AFNE01.JPG,,,,,2,9,29,7,,,,,,,,,,,,,,,,,,,AMSA03.jpg,AMNE11.jpg,AMNE12.jpg,AMSA09.jpg,AMSA03.jpg,MS,2,num_8,32,num_4,0.833476115949,,,2017_Sep_01_1528,60.0069480227,FEMA4ImagesEEG,001,200915,
AFNE01.JPG,AFNE01.JPG,AFNE01.JPG,AFNE01.JPG,AFNE01.JPG,AFNE01.JPG,,,,,3,0,30,1,,,,,,,,,,,,,,,,,,,AMSA19.jpg,AMNE02.jpg,AMSA08.jpg,AMNE18.jpg,AMSA08.jpg,MS,2,num_2,32,num_8,0.916760349413,,,2017_Sep_01_1528,60.0069480227,FEMA4ImagesEEG,001,200915,
AFNE01.JPG,AFNE01.JPG,AFNE01.JPG,AFNE01.JPG,AFNE01.JPG,AFNE01.JPG,,,,,3,1,31,3,,,,,,,,,,,,,,,,,,,AMNE05.jpg,AMSA04.jpg,AMSA12.jpg,AMNE16.jpg,AMNE05.jpg,MN,1,num_8,16,num_8,0.566636078787,,,2017_Sep_01_1528,60.0069480227,FEMA4ImagesEEG,001,200915,
AFNE01.JPG,AFNE01.JPG,AFNE01.JPG,AFNE01.JPG,AFNE01.JPG,AFNE01.JPG,,,,,3,2,32,7,,,,,,,,,,,,,,,,,,,AMSA19.jpg,AMNE15.jpg,AMSA02.jpg,AMNE16.jpg,AMSA19.jpg,MS,2,num_8,16,num_8,1.03376106112,,,2017_Sep_01_1528,60.0069480227,FEMA4ImagesEEG,001,200915,
AFNE01.JPG,AFNE01.JPG,AFNE01.JPG,AFNE01.JPG,AFNE01.JPG,AFNE01.JPG,,,,,3,3,33,2,,,,,,,,,,,,,,,,,,,AMSA13.jpg,AMNE12.jpg,AMSA16.jpg,AMNE18.jpg,AMSA16.jpg,MS,2,num_2,32,num_4,0.966755329806,,,2017_Sep_01_1528,60.0069480227,FEMA4ImagesEEG,001,200915,
AFNE01.JPG,AFNE01.JPG,AFNE01.JPG,AFNE01.JPG,AFNE01.JPG,AFNE01.JPG,,,,,3,4,34,8,,,,,,,,,,,,,,,,,,,AMNE10.jpg,AMSA08.jpg,AMNE06.jpg,AMSA05.jpg,AMNE06.jpg,MN,1,num_2,32,num_4,0.70012794307,,,2017_Sep_01_1528,60.0069480227,FEMA4ImagesEEG,001,200915,
AFNE01.JPG,AFNE01.JPG,AFNE01.JPG,AFNE01.JPG,AFNE01.JPG,AFNE01.JPG,,,,,3,5,35,5,,,,,,,,,,,,,,,,,,,AMSA01.jpg,AMNE16.jpg,AMNE10.jpg,AMSA07.jpg,AMNE16.jpg,MN,1,num_6,32,num_8,0.599996215286,,,2017_Sep_01_1528,60.0069480227,FEMA4ImagesEEG,001,200915,
AFNE01.JPG,AFNE01.JPG,AFNE01.JPG,AFNE01.JPG,AFNE01.JPG,AFNE01.JPG,,,,,3,6,36,0,,,,,,,,,,,,,,,,,,,AMSA01.jpg,AMSA17.jpg,AMNE13.jpg,AMNE15.jpg,AMSA01.jpg,MS,2,num_8,16,num_8,0.483348317241,,,2017_Sep_01_1528,60.0069480227,FEMA4ImagesEEG,001,200915,
AFNE01.JPG,AFNE01.JPG,AFNE01.JPG,AFNE01.JPG,AFNE01.JPG,AFNE01.JPG,,,,,3,7,37,4,,,,,,,,,,,,,,,,,,,AMSA08.jpg,AMNE04.jpg,AMSA03.jpg,AMNE15.jpg,AMNE04.jpg,MN,1,num_6,16,num_6,0.966732236557,,,2017_Sep_01_1528,60.0069480227,FEMA4ImagesEEG,001,200915,
AFNE01.JPG,AFNE01.JPG,AFNE01.JPG,AFNE01.JPG,AFNE01.JPG,AFNE01.JPG,,,,,3,8,38,9,,,,,,,,,,,,,,,,,,,AMSA10.jpg,AMNE03.jpg,AMSA16.jpg,AMNE12.jpg,AMNE12.jpg,MN,1,num_4,16,num_4,0.983477735717,,,2017_Sep_01_1528,60.0069480227,FEMA4ImagesEEG,001,200915,
AFNE01.JPG,AFNE01.JPG,AFNE01.JPG,AFNE01.JPG,AFNE01.JPG,AFNE01.JPG,,,,,3,9,39,6,,,,,,,,,,,,,,,,,,,AMNE09.jpg,AMSA08.jpg,AMNE13.jpg,AMSA18.jpg,AMSA18.jpg,MS,2,num_4,16,num_4,0.800108602474,,,2017_Sep_01_1528,60.0069480227,FEMA4ImagesEEG,001,200915,
AFNE01.JPG,AFNE01.JPG,AFNE01.JPG,AFNE01.JPG,AFNE01.JPG,AFNE01.JPG,,,,,4,0,40,8,,,,,,,,,,,,,,,,,,,AMSA09.jpg,AMSA04.jpg,AMNE05.jpg,AMNE07.jpg,AMSA04.jpg,MS,2,num_6,16,num_6,0.466888597148,,,2017_Sep_01_1528,60.0069480227,FEMA4ImagesEEG,001,200915,
AFNE01.JPG,AFNE01.JPG,AFNE01.JPG,AFNE01.JPG,AFNE01.JPG,AFNE01.JPG,,,,,4,1,41,2,,,,,,,,,,,,,,,,,,,AMNE08.jpg,AMSA06.jpg,AMNE07.jpg,AMSA11.jpg,AMNE08.jpg,MN,1,num_8,16,num_8,1.00034671961,,,2017_Sep_01_1528,60.0069480227,FEMA4ImagesEEG,001,200915,
AFNE01.JPG,AFNE01.JPG,AFNE01.JPG,AFNE01.JPG,AFNE01.JPG,AFNE01.JPG,,,,,4,2,42,5,,,,,,,,,,,,,,,,,,,AMSA19.jpg,AMNE07.jpg,AMSA09.jpg,AMNE03.jpg,AMSA09.jpg,MS,2,num_2,16,num_2,0.56678490201,,,2017_Sep_01_1528,60.0069480227,FEMA4ImagesEEG,001,200915,
AFNE01.JPG,AFNE01.JPG,AFNE01.JPG,AFNE01.JPG,AFNE01.JPG,AFNE01.JPG,,,,,4,3,43,9,,,,,,,,,,,,,,,,,,,AMNE09.jpg,AMSA01.jpg,AMNE15.jpg,AMSA10.jpg,AMSA01.jpg,MS,2,num_6,16,num_6,0.466790450824,,,2017_Sep_01_1528,60.0069480227,FEMA4ImagesEEG,001,200915,
AFNE01.JPG,AFNE01.JPG,AFNE01.JPG,AFNE01.JPG,AFNE01.JPG,AFNE01.JPG,,,,,4,4,44,7,,,,,,,,,,,,,,,,,,,AMNE08.jpg,AMNE20.jpg,AMSA01.jpg,AMSA14.jpg,AMSA01.jpg,MS,2,num_2,32,num_4,0.866774991155,,,2017_Sep_01_1528,60.0069480227,FEMA4ImagesEEG,001,200915,
AFNE01.JPG,AFNE01.JPG,AFNE01.JPG,AFNE01.JPG,AFNE01.JPG,AFNE01.JPG,,,,,4,5,45,0,,,,,,,,,,,,,,,,,,,AMSA12.jpg,AMNE17.jpg,AMSA05.jpg,AMNE15.jpg,AMNE15.jpg,MN,1,num_4,16,num_4,0.45014341874,,,2017_Sep_01_1528,60.0069480227,FEMA4ImagesEEG,001,200915,
AFNE01.JPG,AFNE01.JPG,AFNE01.JPG,AFNE01.JPG,AFNE01.JPG,AFNE01.JPG,,,,,4,6,46,3,,,,,,,,,,,,,,,,,,,AMNE05.jpg,AMSA03.jpg,AMSA08.jpg,AMNE06.jpg,AMNE05.jpg,MN,1,num_8,16,num_8,0.966746028338,,,2017_Sep_01_1528,60.0069480227,FEMA4ImagesEEG,001,200915,
AFNE01.JPG,AFNE01.JPG,AFNE01.JPG,AFNE01.JPG,AFNE01.JPG,AFNE01.JPG,,,,,4,7,47,6,,,,,,,,,,,,,,,,,,,AMNE08.jpg,AMSA03.jpg,AMSA13.jpg,AMNE20.jpg,AMNE20.jpg,MN,1,num_4,16,num_4,0.533475442411,,,2017_Sep_01_1528,60.0069480227,FEMA4ImagesEEG,001,200915,
AFNE01.JPG,AFNE01.JPG,AFNE01.JPG,AFNE01.JPG,AFNE01.JPG,AFNE01.JPG,,,,,4,8,48,1,,,,,,,,,,,,,,,,,,,AMNE07.jpg,AMSA02.jpg,AMNE14.jpg,AMSA13.jpg,AMNE14.jpg,MN,1,num_2,16,num_2,0.73345985444,,,2017_Sep_01_1528,60.0069480227,FEMA4ImagesEEG,001,200915,
AFNE01.JPG,AFNE01.JPG,AFNE01.JPG,AFNE01.JPG,AFNE01.JPG,AFNE01.JPG,,,,,4,9,49,4,,,,,,,,,,,,,,,,,,,AMSA10.jpg,AMSA03.jpg,AMNE08.jpg,AMNE19.jpg,AMSA10.jpg,MS,2,num_8,16,num_8,1.10012050191,,,2017_Sep_01_1528,60.0069480227,FEMA4ImagesEEG,001,200915,
AFNE01.JPG,AFNE01.JPG,AFNE01.JPG,AFNE01.JPG,AFNE01.JPG,AFNE01.JPG,,,,,5,0,50,1,,,,,,,,,,,,,,,,,,,AMSA17.jpg,AMSA20.jpg,AMNE01.jpg,AMNE02.jpg,AMNE01.jpg,MN,1,num_2,32,num_4,0.700202033942,,,2017_Sep_01_1528,60.0069480227,FEMA4ImagesEEG,001,200915,
AFNE01.JPG,AFNE01.JPG,AFNE01.JPG,AFNE01.JPG,AFNE01.JPG,AFNE01.JPG,,,,,5,1,51,0,,,,,,,,,,,,,,,,,,,AMSA13.jpg,AMNE06.jpg,AMSA15.jpg,AMNE05.jpg,AMSA15.jpg,MS,2,num_2,16,num_2,0.783514492447,,,2017_Sep_01_1528,60.0069480227,FEMA4ImagesEEG,001,200915,
AFNE01.JPG,AFNE01.JPG,AFNE01.JPG,AFNE01.JPG,AFNE01.JPG,AFNE01.JPG,,,,,5,2,52,9,,,,,,,,,,,,,,,,,,,AMNE20.jpg,AMNE10.jpg,AMSA04.jpg,AMSA05.jpg,AMNE20.jpg,MN,1,num_8,16,num_8,0.536848020391,,,2017_Sep_01_1528,60.0069480227,FEMA4ImagesEEG,001,200915,
AFNE01.JPG,AFNE01.JPG,AFNE01.JPG,AFNE01.JPG,AFNE01.JPG,AFNE01.JPG,,,,,5,3,53,5,,,,,,,,,,,,,,,,,,,AMSA12.jpg,AMSA14.jpg,AMNE14.jpg,AMNE20.jpg,AMSA14.jpg,MS,2,num_6,32,num_2,2.06668691602,,,2017_Sep_01_1528,60.0069480227,FEMA4ImagesEEG,001,200915,
AFNE01.JPG,AFNE01.JPG,AFNE01.JPG,AFNE01.JPG,AFNE01.JPG,AFNE01.JPG,,,,,5,4,54,4,,,,,,,,,,,,,,,,,,,AMNE07.jpg,AMNE12.jpg,AMSA14.jpg,AMSA03.jpg,AMSA03.jpg,MS,2,num_4,16,num_4,1.11677298654,,,2017_Sep_01_1528,60.0069480227,FEMA4ImagesEEG,001,200915,
AFNE01.JPG,AFNE01.JPG,AFNE01.JPG,AFNE01.JPG,AFNE01.JPG,AFNE01.JPG,,,,,5,5,55,6,,,,,,,,,,,,,,,,,,,AMNE08.jpg,AMSA19.jpg,AMNE07.jpg,AMSA12.jpg,AMNE07.jpg,MN,1,num_2,16,num_2,0.700085926161,,,2017_Sep_01_1528,60.0069480227,FEMA4ImagesEEG,001,200915,
AFNE01.JPG,AFNE01.JPG,AFNE01.JPG,AFNE01.JPG,AFNE01.JPG,AFNE01.JPG,,,,,5,6,56,7,,,,,,,,,,,,,,,,,,,AMNE10.jpg,AMSA05.jpg,AMNE14.jpg,AMSA11.jpg,AMSA05.jpg,MS,2,num_6,16,num_6,1.23337245287,,,2017_Sep_01_1528,60.0069480227,FEMA4ImagesEEG,001,200915,
AFNE01.JPG,AFNE01.JPG,AFNE01.JPG,AFNE01.JPG,AFNE01.JPG,AFNE01.JPG,,,,,5,7,57,2,,,,,,,,,,,,,,,,,,,AMNE20.jpg,AMSA20.jpg,AMNE07.jpg,AMSA07.jpg,AMNE07.jpg,MN,1,num_2,32,num_6,0.683422215661,,,2017_Sep_01_1528,60.0069480227,FEMA4ImagesEEG,001,200915,
AFNE01.JPG,AFNE01.JPG,AFNE01.JPG,AFNE01.JPG,AFNE01.JPG,AFNE01.JPG,,,,,5,8,58,8,,,,,,,,,,,,,,,,,,,AMSA04.jpg,AMNE14.jpg,AMNE20.jpg,AMSA17.jpg,AMNE20.jpg,MN,1,num_2,16,num_2,1.35006557524,,,2017_Sep_01_1528,60.0069480227,FEMA4ImagesEEG,001,200915,
AFNE01.JPG,AFNE01.JPG,AFNE01.JPG,AFNE01.JPG,AFNE01.JPG,AFNE01.JPG,,,,,5,9,59,3,,,,,,,,,,,,,,,,,,,AMNE15.jpg,AMSA10.jpg,AMNE11.jpg,AMSA20.jpg,AMNE11.jpg,MN,1,num_2,32,num_6,0.483473084983,,,2017_Sep_01_1528,60.0069480227,FEMA4ImagesEEG,001,200915,
,,,,,,,,,,,,,,,,,,,,,,,,,,,,,,,,,,,,,,,,,,,space,12.4322438982,2017_Sep_01_1528,60.0069480227,FEMA4ImagesEEG,001,200915,
AFNE01.JPG,AFNE01.JPG,AFNE01.JPG,AFNE01.JPG,AFNE01.JPG,AFNE01.JPG,,,,,,,,,0,0,0,0,,,,,,,,,,,,,,,AFNE14.jpg,AFNE02.jpg,AFSA14.jpg,AFSA05.jpg,AFNE14.jpg,FN,3,num_8,32,num_6,0.983469075727,,,2017_Sep_01_1528,60.0069480227,FEMA4ImagesEEG,001,200915,
AFNE01.JPG,AFNE01.JPG,AFNE01.JPG,AFNE01.JPG,AFNE01.JPG,AFNE01.JPG,,,,,,,,,0,1,1,9,,,,,,,,,,,,,,,AFSA03.jpg,AFSA10.jpg,AFNE09.jpg,AFNE12.jpg,AFNE09.jpg,FN,3,num_2,32,num_4,0.716938873113,,,2017_Sep_01_1528,60.0069480227,FEMA4ImagesEEG,001,200915,
AFNE01.JPG,AFNE01.JPG,AFNE01.JPG,AFNE01.JPG,AFNE01.JPG,AFNE01.JPG,,,,,,,,,0,2,2,5,,,,,,,,,,,,,,,AFNE17.jpg,AFSA09.jpg,AFNE05.jpg,AFSA16.jpg,AFNE05.jpg,FN,3,num_2,32,num_6,0.700097472785,,,2017_Sep_01_1528,60.0069480227,FEMA4ImagesEEG,001,200915,
AFNE01.JPG,AFNE01.JPG,AFNE01.JPG,AFNE01.JPG,AFNE01.JPG,AFNE01.JPG,,,,,,,,,0,3,3,2,,,,,,,,,,,,,,,AFNE15.jpg,AFNE08.jpg,AFSA19.jpg,AFSA04.jpg,AFNE08.jpg,FN,3,num_6,16,num_6,0.533456198027,,,2017_Sep_01_1528,60.0069480227,FEMA4ImagesEEG,001,200915,
AFNE01.JPG,AFNE01.JPG,AFNE01.JPG,AFNE01.JPG,AFNE01.JPG,AFNE01.JPG,,,,,,,,,0,4,4,7,,,,,,,,,,,,,,,AFNE17.jpg,AFSA04.jpg,AFNE04.jpg,AFSA18.jpg,AFSA04.jpg,FS,4,num_6,16,num_6,0.383498840383,,,2017_Sep_01_1528,60.0069480227,FEMA4ImagesEEG,001,200915,
AFNE01.JPG,AFNE01.JPG,AFNE01.JPG,AFNE01.JPG,AFNE01.JPG,AFNE01.JPG,,,,,,,,,0,5,5,3,,,,,,,,,,,,,,,AFSA17.jpg,AFSA03.jpg,AFNE16.jpg,AFNE19.jpg,AFSA03.jpg,FS,4,num_6,16,num_6,0.650111793831,,,2017_Sep_01_1528,60.0069480227,FEMA4ImagesEEG,001,200915,
AFNE01.JPG,AFNE01.JPG,AFNE01.JPG,AFNE01.JPG,AFNE01.JPG,AFNE01.JPG,,,,,,,,,0,6,6,6,,,,,,,,,,,,,,,AFNE16.jpg,AFSA03.jpg,AFNE10.jpg,AFSA15.jpg,AFSA15.jpg,FS,4,num_4,16,num_4,0.466800073016,,,2017_Sep_01_1528,60.0069480227,FEMA4ImagesEEG,001,200915,
AFNE01.JPG,AFNE01.JPG,AFNE01.JPG,AFNE01.JPG,AFNE01.JPG,AFNE01.JPG,,,,,,,,,0,7,7,4,,,,,,,,,,,,,,,AFSA12.jpg,AFNE09.jpg,AFSA17.jpg,AFNE13.jpg,AFSA12.jpg,FS,4,num_8,16,num_8,0.516787997156,,,2017_Sep_01_1528,60.0069480227,FEMA4ImagesEEG,001,200915,
AFNE01.JPG,AFNE01.JPG,AFNE01.JPG,AFNE01.JPG,AFNE01.JPG,AFNE01.JPG,,,,,,,,,0,8,8,1,,,,,,,,,,,,,,,AFNE01.jpg,AFSA14.jpg,AFNE02.jpg,AFSA16.jpg,AFSA14.jpg,FS,4,num_6,32,num_8,0.700137886015,,,2017_Sep_01_1528,60.0069480227,FEMA4ImagesEEG,001,200915,
AFNE01.JPG,AFNE01.JPG,AFNE01.JPG,AFNE01.JPG,AFNE01.JPG,AFNE01.JPG,,,,,,,,,0,9,9,8,,,,,,,,,,,,,,,AFSA12.jpg,AFNE04.jpg,AFSA10.jpg,AFNE16.jpg,AFSA10.jpg,FS,4,num_2,32,num_6,1.08349303497,,,2017_Sep_01_1528,60.0069480227,FEMA4ImagesEEG,001,200915,
AFNE01.JPG,AFNE01.JPG,AFNE01.JPG,AFNE01.JPG,AFNE01.JPG,AFNE01.JPG,,,,,,,,,1,0,10,6,,,,,,,,,,,,,,,AFSA15.jpg,AFSA06.jpg,AFNE19.jpg,AFNE15.jpg,AFSA06.jpg,FS,4,num_6,32,num_2,2.18331589043,,,2017_Sep_01_1528,60.0069480227,FEMA4ImagesEEG,001,200915,
AFNE01.JPG,AFNE01.JPG,AFNE01.JPG,AFNE01.JPG,AFNE01.JPG,AFNE01.JPG,,,,,,,,,1,1,11,5,,,,,,,,,,,,,,,AFSA04.jpg,AFNE09.jpg,AFNE03.jpg,AFSA10.jpg,AFSA10.jpg,FS,4,num_4,16,num_4,1.68341644233,,,2017_Sep_01_1528,60.0069480227,FEMA4ImagesEEG,001,200915,
AFNE01.JPG,AFNE01.JPG,AFNE01.JPG,AFNE01.JPG,AFNE01.JPG,AFNE01.JPG,,,,,,,,,1,2,12,3,,,,,,,,,,,,,,,AFNE12.jpg,AFSA13.jpg,AFSA03.jpg,AFNE16.jpg,AFNE16.jpg,FN,3,num_4,32,num_8,0.80020867323,,,2017_Sep_01_1528,60.0069480227,FEMA4ImagesEEG,001,200915,
AFNE01.JPG,AFNE01.JPG,AFNE01.JPG,AFNE01.JPG,AFNE01.JPG,AFNE01.JPG,,,,,,,,,1,3,13,4,,,,,,,,,,,,,,,AFSA17.jpg,AFNE17.jpg,AFNE04.jpg,AFSA07.jpg,AFNE04.jpg,FN,3,num_2,16,num_2,1.08346801728,,,2017_Sep_01_1528,60.0069480227,FEMA4ImagesEEG,001,200915,
AFNE01.JPG,AFNE01.JPG,AFNE01.JPG,AFNE01.JPG,AFNE01.JPG,AFNE01.JPG,,,,,,,,,1,4,14,1,,,,,,,,,,,,,,,AFNE04.jpg,AFSA05.jpg,AFNE02.jpg,AFSA04.jpg,AFNE02.jpg,FN,3,num_2,32,num_6,0.933575128292,,,2017_Sep_01_1528,60.0069480227,FEMA4ImagesEEG,001,200915,
AFNE01.JPG,AFNE01.JPG,AFNE01.JPG,AFNE01.JPG,AFNE01.JPG,AFNE01.JPG,,,,,,,,,1,5,15,7,,,,,,,,,,,,,,,AFNE06.jpg,AFNE08.jpg,AFSA02.jpg,AFSA15.jpg,AFSA02.jpg,FS,4,num_2,16,num_2,1.1668741318,,,2017_Sep_01_1528,60.0069480227,FEMA4ImagesEEG,001,200915,
AFNE01.JPG,AFNE01.JPG,AFNE01.JPG,AFNE01.JPG,AFNE01.JPG,AFNE01.JPG,,,,,,,,,1,6,16,9,,,,,,,,,,,,,,,AFNE18.jpg,AFNE02.jpg,AFSA17.jpg,AFSA09.jpg,AFSA17.jpg,FS,4,num_2,16,num_2,1.13345850733,,,2017_Sep_01_1528,60.0069480227,FEMA4ImagesEEG,001,200915,
AFNE01.JPG,AFNE01.JPG,AFNE01.JPG,AFNE01.JPG,AFNE01.JPG,AFNE01.JPG,,,,,,,,,1,7,17,2,,,,,,,,,,,,,,,AFSA16.jpg,AFNE09.jpg,AFNE06.jpg,AFSA14.jpg,AFSA14.jpg,FS,4,num_4,32,num_2,1.08342183076,,,2017_Sep_01_1528,60.0069480227,FEMA4ImagesEEG,001,200915,
AFNE01.JPG,AFNE01.JPG,AFNE01.JPG,AFNE01.JPG,AFNE01.JPG,AFNE01.JPG,,,,,,,,,1,8,18,8,,,,,,,,,,,,,,,AFNE14.jpg,AFNE03.jpg,AFSA01.jpg,AFSA20.jpg,AFSA20.jpg,FS,4,num_4,32,num_6,0.633509344596,,,2017_Sep_01_1528,60.0069480227,FEMA4ImagesEEG,001,200915,
AFNE01.JPG,AFNE01.JPG,AFNE01.JPG,AFNE01.JPG,AFNE01.JPG,AFNE01.JPG,,,,,,,,,1,9,19,0,,,,,,,,,,,,,,,AFSA17.jpg,AFNE11.jpg,AFSA04.jpg,AFNE03.jpg,AFSA17.jpg,FS,4,num_8,32,num_6,0.650292370265,,,2017_Sep_01_1528,60.0069480227,FEMA4ImagesEEG,001,200915,
AFNE01.JPG,AFNE01.JPG,AFNE01.JPG,AFNE01.JPG,AFNE01.JPG,AFNE01.JPG,,,,,,,,,2,0,20,5,,,,,,,,,,,,,,,AFNE02.jpg,AFNE19.jpg,AFSA15.jpg,AFSA02.jpg,AFSA15.jpg,FS,4,num_2,16,num_2,1.10006341024,,,2017_Sep_01_1528,60.0069480227,FEMA4ImagesEEG,001,200915,
AFNE01.JPG,AFNE01.JPG,AFNE01.JPG,AFNE01.JPG,AFNE01.JPG,AFNE01.JPG,,,,,,,,,2,1,21,4,,,,,,,,,,,,,,,AFNE11.jpg,AFSA05.jpg,AFNE07.jpg,AFSA14.jpg,AFNE07.jpg,FN,3,num_2,16,num_2,0.983440209151,,,2017_Sep_01_1528,60.0069480227,FEMA4ImagesEEG,001,200915,
AFNE01.JPG,AFNE01.JPG,AFNE01.JPG,AFNE01.JPG,AFNE01.JPG,AFNE01.JPG,,,,,,,,,2,2,22,1,,,,,,,,,,,,,,,AFSA05.jpg,AFNE05.jpg,AFNE12.jpg,AFSA13.jpg,AFNE12.jpg,FN,3,num_2,16,num_2,0.466824128467,,,2017_Sep_01_1528,60.0069480227,FEMA4ImagesEEG,001,200915,
AFNE01.JPG,AFNE01.JPG,AFNE01.JPG,AFNE01.JPG,AFNE01.JPG,AFNE01.JPG,,,,,,,,,2,3,23,0,,,,,,,,,,,,,,,AFNE02.jpg,AFNE12.jpg,AFSA14.jpg,AFSA07.jpg,AFSA07.jpg,FS,4,num_4,32,num_6,0.516663229413,,,2017_Sep_01_1528,60.0069480227,FEMA4ImagesEEG,001,200915,
AFNE01.JPG,AFNE01.JPG,AFNE01.JPG,AFNE01.JPG,AFNE01.JPG,AFNE01.JPG,,,,,,,,,2,4,24,7,,,,,,,,,,,,,,,AFSA06.jpg,AFNE10.jpg,AFSA16.jpg,AFNE06.jpg,AFNE10.jpg,FN,3,num_6,16,num_6,0.533453952841,,,2017_Sep_01_1528,60.0069480227,FEMA4ImagesEEG,001,200915,
AFNE01.JPG,AFNE01.JPG,AFNE01.JPG,AFNE01.JPG,AFNE01.JPG,AFNE01.JPG,,,,,,,,,2,5,25,8,,,,,,,,,,,,,,,AFSA13.jpg,AFNE01.jpg,AFNE15.jpg,AFSA08.jpg,AFNE15.jpg,FN,3,num_2,16,num_2,0.683435686718,,,2017_Sep_01_1528,60.0069480227,FEMA4ImagesEEG,001,200915,
AFNE01.JPG,AFNE01.JPG,AFNE01.JPG,AFNE01.JPG,AFNE01.JPG,AFNE01.JPG,,,,,,,,,2,6,26,3,,,,,,,,,,,,,,,AFSA12.jpg,AFSA09.jpg,AFNE01.jpg,AFNE16.jpg,AFNE01.jpg,FN,3,num_2,32,num_4,0.900095355901,,,2017_Sep_01_1528,60.0069480227,FEMA4ImagesEEG,001,200915,
AFNE01.JPG,AFNE01.JPG,AFNE01.JPG,AFNE01.JPG,AFNE01.JPG,AFNE01.JPG,,,,,,,,,2,7,27,2,,,,,,,,,,,,,,,AFSA17.jpg,AFNE07.jpg,AFNE06.jpg,AFSA10.jpg,AFSA10.jpg,FS,4,num_4,16,num_4,0.450134758779,,,2017_Sep_01_1528,60.0069480227,FEMA4ImagesEEG,001,200915,
AFNE01.JPG,AFNE01.JPG,AFNE01.JPG,AFNE01.JPG,AFNE01.JPG,AFNE01.JPG,,,,,,,,,2,8,28,6,,,,,,,,,,,,,,,AFSA15.jpg,AFNE09.jpg,AFNE12.jpg,AFSA01.jpg,AFNE09.jpg,FN,3,num_6,32,num_4,0.783445854177,,,2017_Sep_01_1528,60.0069480227,FEMA4ImagesEEG,001,200915,
AFNE01.JPG,AFNE01.JPG,AFNE01.JPG,AFNE01.JPG,AFNE01.JPG,AFNE01.JPG,,,,,,,,,2,9,29,9,,,,,,,,,,,,,,,AFNE11.jpg,AFSA13.jpg,AFNE20.jpg,AFSA16.jpg,AFNE11.jpg,FN,3,num_8,16,num_8,0.433352374588,,,2017_Sep_01_1528,60.0069480227,FEMA4ImagesEEG,001,200915,
AFNE01.JPG,AFNE01.JPG,AFNE01.JPG,AFNE01.JPG,AFNE01.JPG,AFNE01.JPG,,,,,,,,,3,0,30,1,,,,,,,,,,,,,,,AFNE06.jpg,AFSA05.jpg,AFNE17.jpg,AFSA04.jpg,AFSA04.jpg,FS,4,num_4,16,num_4,0.550151341013,,,2017_Sep_01_1528,60.0069480227,FEMA4ImagesEEG,001,200915,
AFNE01.JPG,AFNE01.JPG,AFNE01.JPG,AFNE01.JPG,AFNE01.JPG,AFNE01.JPG,,,,,,,,,3,1,31,8,,,,,,,,,,,,,,,AFSA19.jpg,AFSA15.jpg,AFNE13.jpg,AFNE16.jpg,AFSA19.jpg,FS,4,num_8,16,num_8,0.850113205088,,,2017_Sep_01_1528,60.0069480227,FEMA4ImagesEEG,001,200915,
AFNE01.JPG,AFNE01.JPG,AFNE01.JPG,AFNE01.JPG,AFNE01.JPG,AFNE01.JPG,,,,,,,,,3,2,32,9,,,,,,,,,,,,,,,AFNE08.jpg,AFSA04.jpg,AFNE20.jpg,AFSA09.jpg,AFNE08.jpg,FN,3,num_8,16,num_8,0.900116203993,,,2017_Sep_01_1528,60.0069480227,FEMA4ImagesEEG,001,200915,
AFNE01.JPG,AFNE01.JPG,AFNE01.JPG,AFNE01.JPG,AFNE01.JPG,AFNE01.JPG,,,,,,,,,3,3,33,5,,,,,,,,,,,,,,,AFNE17.jpg,AFSA12.jpg,AFNE03.jpg,AFSA10.jpg,AFSA12.jpg,FS,4,num_6,32,num_4,0.616779882432,,,2017_Sep_01_1528,60.0069480227,FEMA4ImagesEEG,001,200915,
AFNE01.JPG,AFNE01.JPG,AFNE01.JPG,AFNE01.JPG,AFNE01.JPG,AFNE01.JPG,,,,,,,,,3,4,34,3,,,,,,,,,,,,,,,AFSA11.jpg,AFNE03.jpg,AFSA07.jpg,AFNE18.jpg,AFNE03.jpg,FN,3,num_6,16,num_6,0.616816446767,,,2017_Sep_01_1528,60.0069480227,FEMA4ImagesEEG,001,200915,
AFNE01.JPG,AFNE01.JPG,AFNE01.JPG,AFNE01.JPG,AFNE01.JPG,AFNE01.JPG,,,,,,,,,3,5,35,0,,,,,,,,,,,,,,,AFSA05.jpg,AFSA11.jpg,AFNE06.jpg,AFNE05.jpg,AFSA11.jpg,FS,4,num_6,16,num_6,0.633747654181,,,2017_Sep_01_1528,60.0069480227,FEMA4ImagesEEG,001,200915,
AFNE01.JPG,AFNE01.JPG,AFNE01.JPG,AFNE01.JPG,AFNE01.JPG,AFNE01.JPG,,,,,,,,,3,6,36,7,,,,,,,,,,,,,,,AFSA06.jpg,AFNE05.jpg,AFSA14.jpg,AFNE20.jpg,AFSA14.jpg,FS,4,num_2,32,num_8,0.966737047653,,,2017_Sep_01_1528,60.0069480227,FEMA4ImagesEEG,001,200915,
AFNE01.JPG,AFNE01.JPG,AFNE01.JPG,AFNE01.JPG,AFNE01.JPG,AFNE01.JPG,,,,,,,,,3,7,37,4,,,,,,,,,,,,,,,AFNE10.jpg,AFSA20.jpg,AFNE03.jpg,AFSA01.jpg,AFNE10.jpg,FN,3,num_8,16,num_8,1.18337362359,,,2017_Sep_01_1528,60.0069480227,FEMA4ImagesEEG,001,200915,
AFNE01.JPG,AFNE01.JPG,AFNE01.JPG,AFNE01.JPG,AFNE01.JPG,AFNE01.JPG,,,,,,,,,3,8,38,6,,,,,,,,,,,,,,,AFNE14.jpg,AFNE10.jpg,AFSA13.jpg,AFSA02.jpg,AFNE10.jpg,FN,3,num_6,32,num_8,0.800102508423,,,2017_Sep_01_1528,60.0069480227,FEMA4ImagesEEG,001,200915,
AFNE01.JPG,AFNE01.JPG,AFNE01.JPG,AFNE01.JPG,AFNE01.JPG,AFNE01.JPG,,,,,,,,,3,9,39,2,,,,,,,,,,,,,,,AFNE18.jpg,AFSA02.jpg,AFNE13.jpg,AFSA07.jpg,AFNE13.jpg,FN,3,num_2,32,num_8,0.966851872479,,,2017_Sep_01_1528,60.0069480227,FEMA4ImagesEEG,001,200915,
AFNE01.JPG,AFNE01.JPG,AFNE01.JPG,AFNE01.JPG,AFNE01.JPG,AFNE01.JPG,,,,,,,,,4,0,40,5,,,,,,,,,,,,,,,AFNE15.jpg,AFSA15.jpg,AFNE06.jpg,AFSA17.jpg,AFSA15.jpg,FS,4,num_6,16,num_6,0.716758617375,,,2017_Sep_01_1528,60.0069480227,FEMA4ImagesEEG,001,200915,
AFNE01.JPG,AFNE01.JPG,AFNE01.JPG,AFNE01.JPG,AFNE01.JPG,AFNE01.JPG,,,,,,,,,4,1,41,6,,,,,,,,,,,,,,,AFNE12.jpg,AFSA05.jpg,AFSA17.jpg,AFNE13.jpg,AFNE12.jpg,FN,3,num_8,16,num_8,0.783425968286,,,2017_Sep_01_1528,60.0069480227,FEMA4ImagesEEG,001,200915,
AFNE01.JPG,AFNE01.JPG,AFNE01.JPG,AFNE01.JPG,AFNE01.JPG,AFNE01.JPG,,,,,,,,,4,2,42,7,,,,,,,,,,,,,,,AFSA17.jpg,AFSA15.jpg,AFNE03.jpg,AFNE01.jpg,AFSA15.jpg,FS,4,num_6,16,num_6,0.500149625062,,,2017_Sep_01_1528,60.0069480227,FEMA4ImagesEEG,001,200915,
AFNE01.JPG,AFNE01.JPG,AFNE01.JPG,AFNE01.JPG,AFNE01.JPG,AFNE01.JPG,,,,,,,,,4,3,43,2,,,,,,,,,,,,,,,AFSA14.jpg,AFNE15.jpg,AFSA08.jpg,AFNE04.jpg,AFNE04.jpg,FN,3,num_4,32,num_6,0.683447233343,,,2017_Sep_01_1528,60.0069480227,FEMA4ImagesEEG,001,200915,
AFNE01.JPG,AFNE01.JPG,AFNE01.JPG,AFNE01.JPG,AFNE01.JPG,AFNE01.JPG,,,,,,,,,4,4,44,8,,,,,,,,,,,,,,,AFSA06.jpg,AFNE03.jpg,AFSA14.jpg,AFNE16.jpg,AFSA06.jpg,FS,4,num_8,32,num_6,0.8168759119,,,2017_Sep_01_1528,60.0069480227,FEMA4ImagesEEG,001,200915,
AFNE01.JPG,AFNE01.JPG,AFNE01.JPG,AFNE01.JPG,AFNE01.JPG,AFNE01.JPG,,,,,,,,,4,5,45,9,,,,,,,,,,,,,,,AFNE13.jpg,AFSA15.jpg,AFSA10.jpg,AFNE07.jpg,AFNE07.jpg,FN,3,num_4,32,num_2,1.1667641181,,,2017_Sep_01_1528,60.0069480227,FEMA4ImagesEEG,001,200915,
AFNE01.JPG,AFNE01.JPG,AFNE01.JPG,AFNE01.JPG,AFNE01.JPG,AFNE01.JPG,,,,,,,,,4,6,46,3,,,,,,,,,,,,,,,AFSA10.jpg,AFSA17.jpg,AFNE03.jpg,AFNE04.jpg,AFNE03.jpg,FN,3,num_2,32,num_4,0.966780988994,,,2017_Sep_01_1528,60.0069480227,FEMA4ImagesEEG,001,200915,
AFNE01.JPG,AFNE01.JPG,AFNE01.JPG,AFNE01.JPG,AFNE01.JPG,AFNE01.JPG,,,,,,,,,4,7,47,4,,,,,,,,,,,,,,,AFSA12.jpg,AFNE07.jpg,AFSA05.jpg,AFNE17.jpg,AFSA12.jpg,FS,4,num_8,16,num_8,0.717067168996,,,2017_Sep_01_1528,60.0069480227,FEMA4ImagesEEG,001,200915,
AFNE01.JPG,AFNE01.JPG,AFNE01.JPG,AFNE01.JPG,AFNE01.JPG,AFNE01.JPG,,,,,,,,,4,8,48,1,,,,,,,,,,,,,,,AFSA14.jpg,AFNE01.jpg,AFNE07.jpg,AFSA08.jpg,AFNE01.jpg,FN,3,num_6,32,num_8,1.25005476631,,,2017_Sep_01_1528,60.0069480227,FEMA4ImagesEEG,001,200915,
AFNE01.JPG,AFNE01.JPG,AFNE01.JPG,AFNE01.JPG,AFNE01.JPG,AFNE01.JPG,,,,,,,,,4,9,49,0,,,,,,,,,,,,,,,AFNE19.jpg,AFNE07.jpg,AFSA09.jpg,AFSA13.jpg,AFNE19.jpg,FN,3,num_8,32,num_4,1.23344077045,,,2017_Sep_01_1528,60.0069480227,FEMA4ImagesEEG,001,200915,
AFNE01.JPG,AFNE01.JPG,AFNE01.JPG,AFNE01.JPG,AFNE01.JPG,AFNE01.JPG,,,,,,,,,5,0,50,3,,,,,,,,,,,,,,,AFNE12.jpg,AFSA15.jpg,AFSA13.jpg,AFNE15.jpg,AFNE12.jpg,FN,3,num_8,16,num_8,0.983453680208,,,2017_Sep_01_1528,60.0069480227,FEMA4ImagesEEG,001,200915,
AFNE01.JPG,AFNE01.JPG,AFNE01.JPG,AFNE01.JPG,AFNE01.JPG,AFNE01.JPG,,,,,,,,,5,1,51,8,,,,,,,,,,,,,,,AFNE01.jpg,AFSA18.jpg,AFSA13.jpg,AFNE18.jpg,AFSA13.jpg,FS,4,num_2,16,num_2,2.76659868052,,,2017_Sep_01_1528,60.0069480227,FEMA4ImagesEEG,001,200915,
AFNE01.JPG,AFNE01.JPG,AFNE01.JPG,AFNE01.JPG,AFNE01.JPG,AFNE01.JPG,,,,,,,,,5,2,52,6,,,,,,,,,,,,,,,AFNE03.jpg,AFSA07.jpg,AFSA13.jpg,AFNE10.jpg,AFNE03.jpg,FN,3,num_8,32,num_6,1.00009654264,,,2017_Sep_01_1528,60.0069480227,FEMA4ImagesEEG,001,200915,
AFNE01.JPG,AFNE01.JPG,AFNE01.JPG,AFNE01.JPG,AFNE01.JPG,AFNE01.JPG,,,,,,,,,5,3,53,7,,,,,,,,,,,,,,,AFSA16.jpg,AFNE04.jpg,AFNE08.jpg,AFSA15.jpg,AFNE08.jpg,FN,3,num_2,32,num_6,0.633450007736,,,2017_Sep_01_1528,60.0069480227,FEMA4ImagesEEG,001,200915,
AFNE01.JPG,AFNE01.JPG,AFNE01.JPG,AFNE01.JPG,AFNE01.JPG,AFNE01.JPG,,,,,,,,,5,4,54,0,,,,,,,,,,,,,,,AFSA03.jpg,AFNE04.jpg,AFNE19.jpg,AFSA19.jpg,AFNE04.jpg,FN,3,num_6,16,num_6,0.583487422031,,,2017_Sep_01_1528,60.0069480227,FEMA4ImagesEEG,001,200915,
AFNE01.JPG,AFNE01.JPG,AFNE01.JPG,AFNE01.JPG,AFNE01.JPG,AFNE01.JPG,,,,,,,,,5,5,55,2,,,,,,,,,,,,,,,AFSA11.jpg,AFNE20.jpg,AFSA08.jpg,AFNE16.jpg,AFSA08.jpg,FS,4,num_2,16,num_2,1.7333745377,,,2017_Sep_01_1528,60.0069480227,FEMA4ImagesEEG,001,200915,
AFNE01.JPG,AFNE01.JPG,AFNE01.JPG,AFNE01.JPG,AFNE01.JPG,AFNE01.JPG,,,,,,,,,5,6,56,1,,,,,,,,,,,,,,,AFSA09.jpg,AFNE02.jpg,AFSA19.jpg,AFNE17.jpg,AFSA19.jpg,FS,4,num_2,32,num_4,1.18344033745,,,2017_Sep_01_1528,60.0069480227,FEMA4ImagesEEG,001,200915,
AFNE01.JPG,AFNE01.JPG,AFNE01.JPG,AFNE01.JPG,AFNE01.JPG,AFNE01.JPG,,,,,,,,,5,7,57,4,,,,,,,,,,,,,,,AFNE18.jpg,AFNE20.jpg,AFSA17.jpg,AFSA18.jpg,AFSA18.jpg,FS,4,num_4,32,num_8,1.15028387067,,,2017_Sep_01_1528,60.0069480227,FEMA4ImagesEEG,001,200915,
AFNE01.JPG,AFNE01.JPG,AFNE01.JPG,AFNE01.JPG,AFNE01.JPG,AFNE01.JPG,,,,,,,,,5,8,58,9,,,,,,,,,,,,,,,AFSA04.jpg,AFNE12.jpg,AFNE17.jpg,AFSA06.jpg,AFSA04.jpg,FS,4,num_8,32,num_4,0.816762049304,,,2017_Sep_01_1528,60.0069480227,FEMA4ImagesEEG,001,200915,
AFNE01.JPG,AFNE01.JPG,AFNE01.JPG,AFNE01.JPG,AFNE01.JPG,AFNE01.JPG,,,,,,,,,5,9,59,5,,,,,,,,,,,,,,,AFSA04.jpg,AFNE10.jpg,AFSA01.jpg,AFNE04.jpg,AFSA01.jpg,FS,4,num_2,16,num_2,1.05011910669,,,2017_Sep_01_1528,60.0069480227,FEMA4ImagesEEG,001,200915,
,,,,,,,,,,,,,,,,,,,,,,,,,,,,,,,,,,,,,,,,,,,space,82.7100458562,2017_Sep_01_1528,60.0069480227,FEMA4ImagesEEG,001,200915,
AFNE01.JPG,AFNE01.JPG,AFNE01.JPG,AFNE01.JPG,AFNE01.JPG,AFNE01.JPG,,,,,,,,,,,,,0,0,0,7,,,,,,,,,,,AMSA15.jpg,AMSA02.jpg,AMNE16.jpg,AMNE04.jpg,AMSA02.jpg,MS,2,num_6,32,num_2,1.76669650615,,,2017_Sep_01_1528,60.0069480227,FEMA4ImagesEEG,001,200915,
AFNE01.JPG,AFNE01.JPG,AFNE01.JPG,AFNE01.JPG,AFNE01.JPG,AFNE01.JPG,,,,,,,,,,,,,0,1,1,1,,,,,,,,,,,AMSA12.jpg,AMNE04.jpg,AMNE14.jpg,AMSA01.jpg,AMSA01.jpg,MS,2,num_4,32,num_8,0.950146145042,,,2017_Sep_01_1528,60.0069480227,FEMA4ImagesEEG,001,200915,
AFNE01.JPG,AFNE01.JPG,AFNE01.JPG,AFNE01.JPG,AFNE01.JPG,AFNE01.JPG,,,,,,,,,,,,,0,2,2,6,,,,,,,,,,,AMNE19.jpg,AMSA13.jpg,AMNE20.jpg,AMSA18.jpg,AMNE20.jpg,MN,1,num_2,16,num_2,0.750155959686,,,2017_Sep_01_1528,60.0069480227,FEMA4ImagesEEG,001,200915,
AFNE01.JPG,AFNE01.JPG,AFNE01.JPG,AFNE01.JPG,AFNE01.JPG,AFNE01.JPG,,,,,,,,,,,,,0,3,3,0,,,,,,,,,,,AMSA20.jpg,AMSA16.jpg,AMNE15.jpg,AMNE03.jpg,AMSA20.jpg,MS,2,num_8,32,num_6,0.500183302764,,,2017_Sep_01_1528,60.0069480227,FEMA4ImagesEEG,001,200915,
AFNE01.JPG,AFNE01.JPG,AFNE01.JPG,AFNE01.JPG,AFNE01.JPG,AFNE01.JPG,,,,,,,,,,,,,0,4,4,9,,,,,,,,,,,AMSA10.jpg,AMSA19.jpg,AMNE06.jpg,AMNE20.jpg,AMSA19.jpg,MS,2,num_6,32,num_8,0.600189300574,,,2017_Sep_01_1528,60.0069480227,FEMA4ImagesEEG,001,200915,
AFNE01.JPG,AFNE01.JPG,AFNE01.JPG,AFNE01.JPG,AFNE01.JPG,AFNE01.JPG,,,,,,,,,,,,,0,5,5,8,,,,,,,,,,,AMNE09.jpg,AMSA01.jpg,AMNE02.jpg,AMSA13.jpg,AMSA13.jpg,MS,2,num_4,16,num_4,1.01681509966,,,2017_Sep_01_1528,60.0069480227,FEMA4ImagesEEG,001,200915,
AFNE01.JPG,AFNE01.JPG,AFNE01.JPG,AFNE01.JPG,AFNE01.JPG,AFNE01.JPG,,,,,,,,,,,,,0,6,6,2,,,,,,,,,,,AMSA06.jpg,AMNE14.jpg,AMSA10.jpg,AMNE04.jpg,AMSA06.jpg,MS,2,num_8,16,num_8,0.950105731841,,,2017_Sep_01_1528,60.0069480227,FEMA4ImagesEEG,001,200915,
AFNE01.JPG,AFNE01.JPG,AFNE01.JPG,AFNE01.JPG,AFNE01.JPG,AFNE01.JPG,,,,,,,,,,,,,0,7,7,3,,,,,,,,,,,AMSA13.jpg,AMNE18.jpg,AMNE16.jpg,AMSA11.jpg,AMSA11.jpg,MS,2,num_4,16,num_4,0.466812581843,,,2017_Sep_01_1528,60.0069480227,FEMA4ImagesEEG,001,200915,
AFNE01.JPG,AFNE01.JPG,AFNE01.JPG,AFNE01.JPG,AFNE01.JPG,AFNE01.JPG,,,,,,,,,,,,,0,8,8,5,,,,,,,,,,,AMNE07.jpg,AMSA18.jpg,AMNE11.jpg,AMSA05.jpg,AMSA18.jpg,MS,2,num_6,16,num_6,0.450139569904,,,2017_Sep_01_1528,60.0069480227,FEMA4ImagesEEG,001,200915,
AFNE01.JPG,AFNE01.JPG,AFNE01.JPG,AFNE01.JPG,AFNE01.JPG,AFNE01.JPG,,,,,,,,,,,,,0,9,9,4,,,,,,,,,,,AMSA17.jpg,AMSA15.jpg,AMNE13.jpg,AMNE07.jpg,AMNE13.jpg,MN,1,num_2,32,num_8,0.966761103104,,,2017_Sep_01_1528,60.0069480227,FEMA4ImagesEEG,001,200915,
AFNE01.JPG,AFNE01.JPG,AFNE01.JPG,AFNE01.JPG,AFNE01.JPG,AFNE01.JPG,,,,,,,,,,,,,1,0,10,4,,,,,,,,,,,AMSA10.jpg,AMNE15.jpg,AMSA12.jpg,AMNE02.jpg,AMSA12.jpg,MS,2,num_2,32,num_6,0.533340090245,,,2017_Sep_01_1528,60.0069480227,FEMA4ImagesEEG,001,200915,
AFNE01.JPG,AFNE01.JPG,AFNE01.JPG,AFNE01.JPG,AFNE01.JPG,AFNE01.JPG,,,,,,,,,,,,,1,1,11,8,,,,,,,,,,,AMNE09.jpg,AMNE18.jpg,AMSA11.jpg,AMSA16.jpg,AMSA16.jpg,MS,2,num_4,16,num_4,0.450100118906,,,2017_Sep_01_1528,60.0069480227,FEMA4ImagesEEG,001,200915,
AFNE01.JPG,AFNE01.JPG,AFNE01.JPG,AFNE01.JPG,AFNE01.JPG,AFNE01.JPG,,,,,,,,,,,,,1,2,12,9,,,,,,,,,,,AMSA13.jpg,AMSA15.jpg,AMNE17.jpg,AMNE09.jpg,AMNE09.jpg,MN,1,num_4,32,num_8,0.783457400801,,,2017_Sep_01_1528,60.0069480227,FEMA4ImagesEEG,001,200915,
AFNE01.JPG,AFNE01.JPG,AFNE01.JPG,AFNE01.JPG,AFNE01.JPG,AFNE01.JPG,,,,,,,,,,,,,1,3,13,5,,,,,,,,,,,AMSA14.jpg,AMNE10.jpg,AMSA01.jpg,AMNE03.jpg,AMSA14.jpg,MS,2,num_8,32,num_4,1.33366455053,,,2017_Sep_01_1528,60.0069480227,FEMA4ImagesEEG,001,200915,
AFNE01.JPG,AFNE01.JPG,AFNE01.JPG,AFNE01.JPG,AFNE01.JPG,AFNE01.JPG,,,,,,,,,,,,,1,4,14,0,,,,,,,,,,,AMSA07.jpg,AMNE12.jpg,AMNE04.jpg,AMSA04.jpg,AMSA07.jpg,MS,2,num_8,16,num_8,0.86675478454,,,2017_Sep_01_1528,60.0069480227,FEMA4ImagesEEG,001,200915,
AFNE01.JPG,AFNE01.JPG,AFNE01.JPG,AFNE01.JPG,AFNE01.JPG,AFNE01.JPG,,,,,,,,,,,,,1,5,15,6,,,,,,,,,,,AMSA08.jpg,AMSA04.jpg,AMNE14.jpg,AMNE10.jpg,AMNE14.jpg,MN,1,num_2,32,num_4,0.816747295292,,,2017_Sep_01_1528,60.0069480227,FEMA4ImagesEEG,001,200915,
AFNE01.JPG,AFNE01.JPG,AFNE01.JPG,AFNE01.JPG,AFNE01.JPG,AFNE01.JPG,,,,,,,,,,,,,1,6,16,3,,,,,,,,,,,AMSA20.jpg,AMNE02.jpg,AMNE07.jpg,AMSA09.jpg,AMSA20.jpg,MS,2,num_8,16,num_8,0.550124398898,,,2017_Sep_01_1528,60.0069480227,FEMA4ImagesEEG,001,200915,
AFNE01.JPG,AFNE01.JPG,AFNE01.JPG,AFNE01.JPG,AFNE01.JPG,AFNE01.JPG,,,,,,,,,,,,,1,7,17,2,,,,,,,,,,,AMNE16.jpg,AMSA09.jpg,AMSA04.jpg,AMNE10.jpg,AMNE10.jpg,MN,1,num_4,32,num_8,0.733593602898,,,2017_Sep_01_1528,60.0069480227,FEMA4ImagesEEG,001,200915,
AFNE01.JPG,AFNE01.JPG,AFNE01.JPG,AFNE01.JPG,AFNE01.JPG,AFNE01.JPG,,,,,,,,,,,,,1,8,18,7,,,,,,,,,,,AMNE09.jpg,AMNE08.jpg,AMSA03.jpg,AMSA07.jpg,AMNE08.jpg,MN,1,num_6,32,num_8,1.35009540402,,,2017_Sep_01_1528,60.0069480227,FEMA4ImagesEEG,001,200915,
AFNE01.JPG,AFNE01.JPG,AFNE01.JPG,AFNE01.JPG,AFNE01.JPG,AFNE01.JPG,,,,,,,,,,,,,1,9,19,1,,,,,,,,,,,AMSA19.jpg,AMNE07.jpg,AMSA12.jpg,AMNE18.jpg,AMSA19.jpg,MS,2,num_8,32,num_4,1.05021917747,,,2017_Sep_01_1528,60.0069480227,FEMA4ImagesEEG,001,200915,
AFNE01.JPG,AFNE01.JPG,AFNE01.JPG,AFNE01.JPG,AFNE01.JPG,AFNE01.JPG,,,,,,,,,,,,,2,0,20,4,,,,,,,,,,,AMSA18.jpg,AMNE09.jpg,AMSA12.jpg,AMNE02.jpg,AMSA18.jpg,MS,2,num_8,16,num_8,1.01673010364,,,2017_Sep_01_1528,60.0069480227,FEMA4ImagesEEG,001,200915,
AFNE01.JPG,AFNE01.JPG,AFNE01.JPG,AFNE01.JPG,AFNE01.JPG,AFNE01.JPG,,,,,,,,,,,,,2,1,21,6,,,,,,,,,,,AMSA04.jpg,AMNE05.jpg,AMSA18.jpg,AMNE20.jpg,AMNE20.jpg,MN,1,num_4,16,num_4,0.466825411451,,,2017_Sep_01_1528,60.0069480227,FEMA4ImagesEEG,001,200915,
AFNE01.JPG,AFNE01.JPG,AFNE01.JPG,AFNE01.JPG,AFNE01.JPG,AFNE01.JPG,,,,,,,,,,,,,2,2,22,7,,,,,,,,,,,AMNE20.jpg,AMSA01.jpg,AMNE06.jpg,AMSA15.jpg,AMSA15.jpg,MS,2,num_4,32,num_2,1.40007659263,,,2017_Sep_01_1528,60.0069480227,FEMA4ImagesEEG,001,200915,
AFNE01.JPG,AFNE01.JPG,AFNE01.JPG,AFNE01.JPG,AFNE01.JPG,AFNE01.JPG,,,,,,,,,,,,,2,3,23,0,,,,,,,,,,,AMSA07.jpg,AMNE05.jpg,AMNE18.jpg,AMSA12.jpg,AMSA07.jpg,MS,2,num_8,16,num_8,1.08345679138,,,2017_Sep_01_1528,60.0069480227,FEMA4ImagesEEG,001,200915,
AFNE01.JPG,AFNE01.JPG,AFNE01.JPG,AFNE01.JPG,AFNE01.JPG,AFNE01.JPG,,,,,,,,,,,,,2,4,24,3,,,,,,,,,,,AMNE05.jpg,AMNE20.jpg,AMSA19.jpg,AMSA20.jpg,AMSA20.jpg,MS,2,num_4,32,num_6,0.533541514771,,,2017_Sep_01_1528,60.0069480227,FEMA4ImagesEEG,001,200915,
AFNE01.JPG,AFNE01.JPG,AFNE01.JPG,AFNE01.JPG,AFNE01.JPG,AFNE01.JPG,,,,,,,,,,,,,2,5,25,5,,,,,,,,,,,AMSA05.jpg,AMSA07.jpg,AMNE04.jpg,AMNE12.jpg,AMNE04.jpg,MN,1,num_2,16,num_2,1.45008793077,,,2017_Sep_01_1528,60.0069480227,FEMA4ImagesEEG,001,200915,
AFNE01.JPG,AFNE01.JPG,AFNE01.JPG,AFNE01.JPG,AFNE01.JPG,AFNE01.JPG,,,,,,,,,,,,,2,6,26,8,,,,,,,,,,,AMNE15.jpg,AMSA07.jpg,AMNE16.jpg,AMSA20.jpg,AMSA20.jpg,MS,2,num_4,16,num_4,0.583484535367,,,2017_Sep_01_1528,60.0069480227,FEMA4ImagesEEG,001,200915,
AFNE01.JPG,AFNE01.JPG,AFNE01.JPG,AFNE01.JPG,AFNE01.JPG,AFNE01.JPG,,,,,,,,,,,,,2,7,27,9,,,,,,,,,,,AMNE02.jpg,AMSA10.jpg,AMSA07.jpg,AMNE18.jpg,AMSA07.jpg,MS,2,num_2,16,num_2,1.25012372533,,,2017_Sep_01_1528,60.0069480227,FEMA4ImagesEEG,001,200915,
AFNE01.JPG,AFNE01.JPG,AFNE01.JPG,AFNE01.JPG,AFNE01.JPG,AFNE01.JPG,,,,,,,,,,,,,2,8,28,2,,,,,,,,,,,AMNE20.jpg,AMSA10.jpg,AMNE16.jpg,AMSA12.jpg,AMNE16.jpg,MN,1,num_2,16,num_2,1.08344235813,,,2017_Sep_01_1528,60.0069480227,FEMA4ImagesEEG,001,200915,
AFNE01.JPG,AFNE01.JPG,AFNE01.JPG,AFNE01.JPG,AFNE01.JPG,AFNE01.JPG,,,,,,,,,,,,,2,9,29,1,,,,,,,,,,,AMNE20.jpg,AMSA04.jpg,AMNE12.jpg,AMSA16.jpg,AMNE20.jpg,MN,1,num_8,16,num_8,0.916743670939,,,2017_Sep_01_1528,60.0069480227,FEMA4ImagesEEG,001,200915,
AFNE01.JPG,AFNE01.JPG,AFNE01.JPG,AFNE01.JPG,AFNE01.JPG,AFNE01.JPG,,,,,,,,,,,,,3,0,30,0,,,,,,,,,,,AMNE08.jpg,AMSA16.jpg,AMSA20.jpg,AMNE01.jpg,AMSA20.jpg,MS,2,num_2,16,num_2,0.616780844633,,,2017_Sep_01_1528,60.0069480227,FEMA4ImagesEEG,001,200915,
AFNE01.JPG,AFNE01.JPG,AFNE01.JPG,AFNE01.JPG,AFNE01.JPG,AFNE01.JPG,,,,,,,,,,,,,3,1,31,6,,,,,,,,,,,AMNE09.jpg,AMSA02.jpg,AMNE12.jpg,AMSA17.jpg,AMSA17.jpg,MS,2,num_4,16,num_4,0.566771430953,,,2017_Sep_01_1528,60.0069480227,FEMA4ImagesEEG,001,200915,
AFNE01.JPG,AFNE01.JPG,AFNE01.JPG,AFNE01.JPG,AFNE01.JPG,AFNE01.JPG,,,,,,,,,,,,,3,2,32,7,,,,,,,,,,,AMSA19.jpg,AMNE10.jpg,AMNE15.jpg,AMSA14.jpg,AMNE10.jpg,MN,1,num_6,16,num_6,1.34994818448,,,2017_Sep_01_1528,60.0069480227,FEMA4ImagesEEG,001,200915,
AFNE01.JPG,AFNE01.JPG,AFNE01.JPG,AFNE01.JPG,AFNE01.JPG,AFNE01.JPG,,,,,,,,,,,,,3,3,33,9,,,,,,,,,,,AMNE11.jpg,AMNE17.jpg,AMSA19.jpg,AMSA11.jpg,AMNE17.jpg,MN,1,num_6,16,num_6,0.550217092677,,,2017_Sep_01_1528,60.0069480227,FEMA4ImagesEEG,001,200915,
AFNE01.JPG,AFNE01.JPG,AFNE01.JPG,AFNE01.JPG,AFNE01.JPG,AFNE01.JPG,,,,,,,,,,,,,3,4,34,8,,,,,,,,,,,AMNE02.jpg,AMNE06.jpg,AMSA06.jpg,AMSA18.jpg,AMNE06.jpg,MN,1,num_6,16,num_6,0.567031871586,,,2017_Sep_01_1528,60.0069480227,FEMA4ImagesEEG,001,200915,
AFNE01.JPG,AFNE01.JPG,AFNE01.JPG,AFNE01.JPG,AFNE01.JPG,AFNE01.JPG,,,,,,,,,,,,,3,5,35,1,,,,,,,,,,,AMSA04.jpg,AMSA05.jpg,AMNE17.jpg,AMNE06.jpg,AMSA05.jpg,MS,2,num_6,16,num_6,0.733450553031,,,2017_Sep_01_1528,60.0069480227,FEMA4ImagesEEG,001,200915,
AFNE01.JPG,AFNE01.JPG,AFNE01.JPG,AFNE01.JPG,AFNE01.JPG,AFNE01.JPG,,,,,,,,,,,,,3,6,36,2,,,,,,,,,,,AMNE09.jpg,AMNE07.jpg,AMSA14.jpg,AMSA04.jpg,AMNE09.jpg,MN,1,num_8,32,num_6,0.833512359561,,,2017_Sep_01_1528,60.0069480227,FEMA4ImagesEEG,001,200915,
AFNE01.JPG,AFNE01.JPG,AFNE01.JPG,AFNE01.JPG,AFNE01.JPG,AFNE01.JPG,,,,,,,,,,,,,3,7,37,5,,,,,,,,,,,AMSA19.jpg,AMSA09.jpg,AMNE09.jpg,AMNE17.jpg,AMSA19.jpg,MS,2,num_8,32,num_2,1.53338884268,,,2017_Sep_01_1528,60.0069480227,FEMA4ImagesEEG,001,200915,
AFNE01.JPG,AFNE01.JPG,AFNE01.JPG,AFNE01.JPG,AFNE01.JPG,AFNE01.JPG,,,,,,,,,,,,,3,8,38,3,,,,,,,,,,,AMNE08.jpg,AMSA02.jpg,AMSA01.jpg,AMNE11.jpg,AMSA01.jpg,MS,2,num_2,16,num_2,1.83338278069,,,2017_Sep_01_1528,60.0069480227,FEMA4ImagesEEG,001,200915,
AFNE01.JPG,AFNE01.JPG,AFNE01.JPG,AFNE01.JPG,AFNE01.JPG,AFNE01.JPG,,,,,,,,,,,,,3,9,39,4,,,,,,,,,,,AMNE08.jpg,AMNE18.jpg,AMSA20.jpg,AMSA09.jpg,AMNE08.jpg,MN,1,num_8,16,num_8,1.10010799306,,,2017_Sep_01_1528,60.0069480227,FEMA4ImagesEEG,001,200915,
AFNE01.JPG,AFNE01.JPG,AFNE01.JPG,AFNE01.JPG,AFNE01.JPG,AFNE01.JPG,,,,,,,,,,,,,4,0,40,9,,,,,,,,,,,AMSA02.jpg,AMNE08.jpg,AMNE12.jpg,AMSA11.jpg,AMNE12.jpg,MN,1,num_2,32,num_6,0.883449927584,,,2017_Sep_01_1528,60.0069480227,FEMA4ImagesEEG,001,200915,
AFNE01.JPG,AFNE01.JPG,AFNE01.JPG,AFNE01.JPG,AFNE01.JPG,AFNE01.JPG,,,,,,,,,,,,,4,1,41,2,,,,,,,,,,,AMNE04.jpg,AMNE08.jpg,AMSA17.jpg,AMSA06.jpg,AMNE08.jpg,MN,1,num_6,32,num_8,1.20007325694,,,2017_Sep_01_1528,60.0069480227,FEMA4ImagesEEG,001,200915,
AFNE01.JPG,AFNE01.JPG,AFNE01.JPG,AFNE01.JPG,AFNE01.JPG,AFNE01.JPG,,,,,,,,,,,,,4,2,42,1,,,,,,,,,,,AMNE15.jpg,AMNE14.jpg,AMSA17.jpg,AMSA04.jpg,AMNE14.jpg,MN,1,num_6,16,num_6,0.600230034528,,,2017_Sep_01_1528,60.0069480227,FEMA4ImagesEEG,001,200915,
AFNE01.JPG,AFNE01.JPG,AFNE01.JPG,AFNE01.JPG,AFNE01.JPG,AFNE01.JPG,,,,,,,,,,,,,4,3,43,8,,,,,,,,,,,AMSA19.jpg,AMNE12.jpg,AMSA04.jpg,AMNE13.jpg,AMSA19.jpg,MS,2,num_8,16,num_8,1.23339843279,,,2017_Sep_01_1528,60.0069480227,FEMA4ImagesEEG,001,200915,
AFNE01.JPG,AFNE01.JPG,AFNE01.JPG,AFNE01.JPG,AFNE01.JPG,AFNE01.JPG,,,,,,,,,,,,,4,4,44,7,,,,,,,,,,,AMSA20.jpg,AMNE03.jpg,AMSA15.jpg,AMNE20.jpg,AMSA20.jpg,MS,2,num_8,32,num_4,1.40008332816,,,2017_Sep_01_1528,60.0069480227,FEMA4ImagesEEG,001,200915,
AFNE01.JPG,AFNE01.JPG,AFNE01.JPG,AFNE01.JPG,AFNE01.JPG,AFNE01.JPG,,,,,,,,,,,,,4,5,45,0,,,,,,,,,,,AMSA11.jpg,AMNE13.jpg,AMNE19.jpg,AMSA18.jpg,AMNE13.jpg,MN,1,num_6,32,num_8,1.23321464896,,,2017_Sep_01_1528,60.0069480227,FEMA4ImagesEEG,001,200915,
AFNE01.JPG,AFNE01.JPG,AFNE01.JPG,AFNE01.JPG,AFNE01.JPG,AFNE01.JPG,,,,,,,,,,,,,4,6,46,6,,,,,,,,,,,AMNE18.jpg,AMNE07.jpg,AMSA04.jpg,AMSA10.jpg,AMSA10.jpg,MS,2,num_4,16,num_4,0.566901330516,,,2017_Sep_01_1528,60.0069480227,FEMA4ImagesEEG,001,200915,
AFNE01.JPG,AFNE01.JPG,AFNE01.JPG,AFNE01.JPG,AFNE01.JPG,AFNE01.JPG,,,,,,,,,,,,,4,7,47,5,,,,,,,,,,,AMNE17.jpg,AMSA09.jpg,AMNE10.jpg,AMSA08.jpg,AMNE10.jpg,MN,1,num_2,32,num_8,0.950089374121,,,2017_Sep_01_1528,60.0069480227,FEMA4ImagesEEG,001,200915,
AFNE01.JPG,AFNE01.JPG,AFNE01.JPG,AFNE01.JPG,AFNE01.JPG,AFNE01.JPG,,,,,,,,,,,,,4,8,48,4,,,,,,,,,,,AMSA14.jpg,AMNE16.jpg,AMSA09.jpg,AMNE12.jpg,AMNE12.jpg,MN,1,num_4,16,num_4,0.88311283011,,,2017_Sep_01_1528,60.0069480227,FEMA4ImagesEEG,001,200915,
AFNE01.JPG,AFNE01.JPG,AFNE01.JPG,AFNE01.JPG,AFNE01.JPG,AFNE01.JPG,,,,,,,,,,,,,4,9,49,3,,,,,,,,,,,AMNE11.jpg,AMNE17.jpg,AMSA05.jpg,AMSA13.jpg,AMNE17.jpg,MN,1,num_6,16,num_6,0.550155510631,,,2017_Sep_01_1528,60.0069480227,FEMA4ImagesEEG,001,200915,
AFNE01.JPG,AFNE01.JPG,AFNE01.JPG,AFNE01.JPG,AFNE01.JPG,AFNE01.JPG,,,,,,,,,,,,,5,0,50,8,,,,,,,,,,,AMSA01.jpg,AMNE20.jpg,AMNE01.jpg,AMSA07.jpg,AMSA07.jpg,MS,2,num_4,16,num_4,0.500129097723,,,2017_Sep_01_1528,60.0069480227,FEMA4ImagesEEG,001,200915,
AFNE01.JPG,AFNE01.JPG,AFNE01.JPG,AFNE01.JPG,AFNE01.JPG,AFNE01.JPG,,,,,,,,,,,,,5,1,51,4,,,,,,,,,,,AMSA12.jpg,AMNE01.jpg,AMNE05.jpg,AMSA10.jpg,AMSA10.jpg,MS,2,num_4,16,num_4,0.916807498113,,,2017_Sep_01_1528,60.0069480227,FEMA4ImagesEEG,001,200915,
AFNE01.JPG,AFNE01.JPG,AFNE01.JPG,AFNE01.JPG,AFNE01.JPG,AFNE01.JPG,,,,,,,,,,,,,5,2,52,5,,,,,,,,,,,AMNE09.jpg,AMSA12.jpg,AMNE18.jpg,AMSA11.jpg,AMNE09.jpg,MN,1,num_8,32,num_6,1.23328264579,,,2017_Sep_01_1528,60.0069480227,FEMA4ImagesEEG,001,200915,
AFNE01.JPG,AFNE01.JPG,AFNE01.JPG,AFNE01.JPG,AFNE01.JPG,AFNE01.JPG,,,,,,,,,,,,,5,3,53,9,,,,,,,,,,,AMNE18.jpg,AMSA11.jpg,AMSA20.jpg,AMNE16.jpg,AMNE16.jpg,MN,1,num_4,16,num_4,0.666768768802,,,2017_Sep_01_1528,60.0069480227,FEMA4ImagesEEG,001,200915,
AFNE01.JPG,AFNE01.JPG,AFNE01.JPG,AFNE01.JPG,AFNE01.JPG,AFNE01.JPG,,,,,,,,,,,,,5,4,54,3,,,,,,,,,,,AMNE03.jpg,AMSA07.jpg,AMSA03.jpg,AMNE19.jpg,AMSA03.jpg,MS,2,num_2,32,num_6,1.40008332819,,,2017_Sep_01_1528,60.0069480227,FEMA4ImagesEEG,001,200915,
AFNE01.JPG,AFNE01.JPG,AFNE01.JPG,AFNE01.JPG,AFNE01.JPG,AFNE01.JPG,,,,,,,,,,,,,5,5,55,7,,,,,,,,,,,AMNE15.jpg,AMSA04.jpg,AMSA12.jpg,AMNE06.jpg,AMNE15.jpg,MN,1,num_8,32,num_4,0.900316666317,,,2017_Sep_01_1528,60.0069480227,FEMA4ImagesEEG,001,200915,
AFNE01.JPG,AFNE01.JPG,AFNE01.JPG,AFNE01.JPG,AFNE01.JPG,AFNE01.JPG,,,,,,,,,,,,,5,6,56,6,,,,,,,,,,,AMSA20.jpg,AMNE20.jpg,AMNE14.jpg,AMSA09.jpg,AMSA09.jpg,MS,2,num_4,16,num_4,1.25009806617,,,2017_Sep_01_1528,60.0069480227,FEMA4ImagesEEG,001,200915,
AFNE01.JPG,AFNE01.JPG,AFNE01.JPG,AFNE01.JPG,AFNE01.JPG,AFNE01.JPG,,,,,,,,,,,,,5,7,57,0,,,,,,,,,,,AMNE16.jpg,AMSA20.jpg,AMNE12.jpg,AMSA17.jpg,AMNE16.jpg,MN,1,num_8,16,num_8,0.783219091216,,,2017_Sep_01_1528,60.0069480227,FEMA4ImagesEEG,001,200915,
AFNE01.JPG,AFNE01.JPG,AFNE01.JPG,AFNE01.JPG,AFNE01.JPG,AFNE01.JPG,,,,,,,,,,,,,5,8,58,2,,,,,,,,,,,AMNE11.jpg,AMNE09.jpg,AMSA09.jpg,AMSA13.jpg,AMSA09.jpg,MS,2,num_2,32,num_6,0.683444025955,,,2017_Sep_01_1528,60.0069480227,FEMA4ImagesEEG,001,200915,
AFNE01.JPG,AFNE01.JPG,AFNE01.JPG,AFNE01.JPG,AFNE01.JPG,AFNE01.JPG,,,,,,,,,,,,,5,9,59,1,,,,,,,,,,,AMNE13.jpg,AMSA05.jpg,AMNE09.jpg,AMSA12.jpg,AMSA12.jpg,MS,2,num_4,16,num_4,2.86659216951,,,2017_Sep_01_1528,60.0069480227,FEMA4ImagesEEG,001,200915,
,,,,,,,,,,,,,,,,,,,,,,,,,,,,,,,,,,,,,,,,,,,space,90.4428218936,2017_Sep_01_1528,60.0069480227,FEMA4ImagesEEG,001,200915,
AFNE01.JPG,AFNE01.JPG,AFNE01.JPG,AFNE01.JPG,AFNE01.JPG,AFNE01.JPG,,,,,,,,,,,,,,,,,0,0,0,6,,,,,,,AFNE19.jpg,AFSA11.jpg,AFNE10.jpg,AFSA04.jpg,AFNE19.jpg,FN,3,num_8,16,num_8,0.616785655759,,,2017_Sep_01_1528,60.0069480227,FEMA4ImagesEEG,001,200915,
AFNE01.JPG,AFNE01.JPG,AFNE01.JPG,AFNE01.JPG,AFNE01.JPG,AFNE01.JPG,,,,,,,,,,,,,,,,,0,1,1,7,,,,,,,AFNE15.jpg,AFSA04.jpg,AFSA05.jpg,AFNE18.jpg,AFSA05.jpg,FS,4,num_2,16,num_2,0.616798164585,,,2017_Sep_01_1528,60.0069480227,FEMA4ImagesEEG,001,200915,
AFNE01.JPG,AFNE01.JPG,AFNE01.JPG,AFNE01.JPG,AFNE01.JPG,AFNE01.JPG,,,,,,,,,,,,,,,,,0,2,2,5,,,,,,,AFSA13.jpg,AFNE13.jpg,AFNE02.jpg,AFSA01.jpg,AFSA01.jpg,FS,4,num_4,32,num_2,0.566890746093,,,2017_Sep_01_1528,60.0069480227,FEMA4ImagesEEG,001,200915,
AFNE01.JPG,AFNE01.JPG,AFNE01.JPG,AFNE01.JPG,AFNE01.JPG,AFNE01.JPG,,,,,,,,,,,,,,,,,0,3,3,1,,,,,,,AFNE04.jpg,AFSA06.jpg,AFSA11.jpg,AFNE14.jpg,AFNE04.jpg,FN,3,num_8,16,num_8,0.633464761748,,,2017_Sep_01_1528,60.0069480227,FEMA4ImagesEEG,001,200915,
AFNE01.JPG,AFNE01.JPG,AFNE01.JPG,AFNE01.JPG,AFNE01.JPG,AFNE01.JPG,,,,,,,,,,,,,,,,,0,4,4,4,,,,,,,AFNE16.jpg,AFSA09.jpg,AFNE12.jpg,AFSA18.jpg,AFNE16.jpg,FN,3,num_8,32,num_4,1.05004629877,,,2017_Sep_01_1528,60.0069480227,FEMA4ImagesEEG,001,200915,
AFNE01.JPG,AFNE01.JPG,AFNE01.JPG,AFNE01.JPG,AFNE01.JPG,AFNE01.JPG,,,,,,,,,,,,,,,,,0,5,5,2,,,,,,,AFNE09.jpg,AFSA18.jpg,AFNE11.jpg,AFSA07.jpg,AFNE09.jpg,FN,3,num_8,16,num_8,0.61684242668,,,2017_Sep_01_1528,60.0069480227,FEMA4ImagesEEG,001,200915,
AFNE01.JPG,AFNE01.JPG,AFNE01.JPG,AFNE01.JPG,AFNE01.JPG,AFNE01.JPG,,,,,,,,,,,,,,,,,0,6,6,9,,,,,,,AFSA06.jpg,AFSA17.jpg,AFNE19.jpg,AFNE11.jpg,AFNE11.jpg,FN,3,num_4,32,num_8,0.983409418113,,,2017_Sep_01_1528,60.0069480227,FEMA4ImagesEEG,001,200915,
AFNE01.JPG,AFNE01.JPG,AFNE01.JPG,AFNE01.JPG,AFNE01.JPG,AFNE01.JPG,,,,,,,,,,,,,,,,,0,7,7,8,,,,,,,AFSA11.jpg,AFNE04.jpg,AFNE01.jpg,AFSA15.jpg,AFNE01.jpg,FN,3,num_2,32,num_6,0.616783089819,,,2017_Sep_01_1528,60.0069480227,FEMA4ImagesEEG,001,200915,
AFNE01.JPG,AFNE01.JPG,AFNE01.JPG,AFNE01.JPG,AFNE01.JPG,AFNE01.JPG,,,,,,,,,,,,,,,,,0,8,8,3,,,,,,,AFNE18.jpg,AFNE07.jpg,AFSA20.jpg,AFSA06.jpg,AFSA20.jpg,FS,4,num_2,16,num_2,0.633482723177,,,2017_Sep_01_1528,60.0069480227,FEMA4ImagesEEG,001,200915,
AFNE01.JPG,AFNE01.JPG,AFNE01.JPG,AFNE01.JPG,AFNE01.JPG,AFNE01.JPG,,,,,,,,,,,,,,,,,0,9,9,0,,,,,,,AFSA11.jpg,AFSA01.jpg,AFNE15.jpg,AFNE08.jpg,AFSA11.jpg,FS,4,num_8,16,num_8,0.783446174901,,,2017_Sep_01_1528,60.0069480227,FEMA4ImagesEEG,001,200915,
AFNE01.JPG,AFNE01.JPG,AFNE01.JPG,AFNE01.JPG,AFNE01.JPG,AFNE01.JPG,,,,,,,,,,,,,,,,,1,0,10,1,,,,,,,AFNE13.jpg,AFNE11.jpg,AFSA04.jpg,AFSA20.jpg,AFSA20.jpg,FS,4,num_4,32,num_2,1.16678753207,,,2017_Sep_01_1528,60.0069480227,FEMA4ImagesEEG,001,200915,
AFNE01.JPG,AFNE01.JPG,AFNE01.JPG,AFNE01.JPG,AFNE01.JPG,AFNE01.JPG,,,,,,,,,,,,,,,,,1,1,11,4,,,,,,,AFSA16.jpg,AFSA04.jpg,AFNE03.jpg,AFNE10.jpg,AFNE03.jpg,FN,3,num_2,32,num_8,0.93367199169,,,2017_Sep_01_1528,60.0069480227,FEMA4ImagesEEG,001,200915,
AFNE01.JPG,AFNE01.JPG,AFNE01.JPG,AFNE01.JPG,AFNE01.JPG,AFNE01.JPG,,,,,,,,,,,,,,,,,1,2,12,9,,,,,,,AFSA16.jpg,AFSA02.jpg,AFNE07.jpg,AFNE11.jpg,AFNE11.jpg,FN,3,num_4,32,num_8,0.883497076284,,,2017_Sep_01_1528,60.0069480227,FEMA4ImagesEEG,001,200915,
AFNE01.JPG,AFNE01.JPG,AFNE01.JPG,AFNE01.JPG,AFNE01.JPG,AFNE01.JPG,,,,,,,,,,,,,,,,,1,3,13,6,,,,,,,AFSA15.jpg,AFNE01.jpg,AFNE05.jpg,AFSA19.jpg,AFNE01.jpg,FN,3,num_6,16,num_6,0.600118737842,,,2017_Sep_01_1528,60.0069480227,FEMA4ImagesEEG,001,200915,
AFNE01.JPG,AFNE01.JPG,AFNE01.JPG,AFNE01.JPG,AFNE01.JPG,AFNE01.JPG,,,,,,,,,,,,,,,,,1,4,14,3,,,,,,,AFSA11.jpg,AFSA03.jpg,AFNE02.jpg,AFNE06.jpg,AFNE06.jpg,FN,3,num_4,16,num_4,0.833457833796,,,2017_Sep_01_1528,60.0069480227,FEMA4ImagesEEG,001,200915,
AFNE01.JPG,AFNE01.JPG,AFNE01.JPG,AFNE01.JPG,AFNE01.JPG,AFNE01.JPG,,,,,,,,,,,,,,,,,1,5,15,7,,,,,,,AFSA07.jpg,AFNE19.jpg,AFSA18.jpg,AFNE11.jpg,AFNE11.jpg,FN,3,num_4,16,num_4,0.850161636772,,,2017_Sep_01_1528,60.0069480227,FEMA4ImagesEEG,001,200915,
AFNE01.JPG,AFNE01.JPG,AFNE01.JPG,AFNE01.JPG,AFNE01.JPG,AFNE01.JPG,,,,,,,,,,,,,,,,,1,6,16,0,,,,,,,AFNE10.jpg,AFSA03.jpg,AFNE19.jpg,AFSA17.jpg,AFSA03.jpg,FS,4,num_6,32,num_8,1.13353773006,,,2017_Sep_01_1528,60.0069480227,FEMA4ImagesEEG,001,200915,
AFNE01.JPG,AFNE01.JPG,AFNE01.JPG,AFNE01.JPG,AFNE01.JPG,AFNE01.JPG,,,,,,,,,,,,,,,,,1,7,17,5,,,,,,,AFNE03.jpg,AFNE18.jpg,AFSA03.jpg,AFSA18.jpg,AFSA03.jpg,FS,4,num_2,32,num_4,0.816762049304,,,2017_Sep_01_1528,60.0069480227,FEMA4ImagesEEG,001,200915,
AFNE01.JPG,AFNE01.JPG,AFNE01.JPG,AFNE01.JPG,AFNE01.JPG,AFNE01.JPG,,,,,,,,,,,,,,,,,1,8,18,8,,,,,,,AFSA10.jpg,AFNE19.jpg,AFSA15.jpg,AFNE10.jpg,AFNE19.jpg,FN,3,num_6,16,num_6,0.916718973982,,,2017_Sep_01_1528,60.0069480227,FEMA4ImagesEEG,001,200915,
AFNE01.JPG,AFNE01.JPG,AFNE01.JPG,AFNE01.JPG,AFNE01.JPG,AFNE01.JPG,,,,,,,,,,,,,,,,,1,9,19,2,,,,,,,AFSA09.jpg,AFSA05.jpg,AFNE06.jpg,AFNE12.jpg,AFNE06.jpg,FN,3,num_2,16,num_2,1.63309687332,,,2017_Sep_01_1528,60.0069480227,FEMA4ImagesEEG,001,200915,
AFNE01.JPG,AFNE01.JPG,AFNE01.JPG,AFNE01.JPG,AFNE01.JPG,AFNE01.JPG,,,,,,,,,,,,,,,,,2,0,20,7,,,,,,,AFSA04.jpg,AFSA18.jpg,AFNE14.jpg,AFNE05.jpg,AFSA18.jpg,FS,4,num_6,16,num_6,0.550145246962,,,2017_Sep_01_1528,60.0069480227,FEMA4ImagesEEG,001,200915,
AFNE01.JPG,AFNE01.JPG,AFNE01.JPG,AFNE01.JPG,AFNE01.JPG,AFNE01.JPG,,,,,,,,,,,,,,,,,2,1,21,0,,,,,,,AFNE05.jpg,AFSA01.jpg,AFSA13.jpg,AFNE02.jpg,AFNE02.jpg,FN,3,num_4,32,num_8,0.966683804872,,,2017_Sep_01_1528,60.0069480227,FEMA4ImagesEEG,001,200915,
AFNE01.JPG,AFNE01.JPG,AFNE01.JPG,AFNE01.JPG,AFNE01.JPG,AFNE01.JPG,,,,,,,,,,,,,,,,,2,2,22,9,,,,,,,AFSA17.jpg,AFSA01.jpg,AFNE19.jpg,AFNE05.jpg,AFSA01.jpg,FS,4,num_6,16,num_6,0.433477463055,,,2017_Sep_01_1528,60.0069480227,FEMA4ImagesEEG,001,200915,
AFNE01.JPG,AFNE01.JPG,AFNE01.JPG,AFNE01.JPG,AFNE01.JPG,AFNE01.JPG,,,,,,,,,,,,,,,,,2,3,23,5,,,,,,,AFNE17.jpg,AFSA15.jpg,AFSA16.jpg,AFNE07.jpg,AFSA16.jpg,FS,4,num_2,16,num_2,1.0500934475,,,2017_Sep_01_1528,60.0069480227,FEMA4ImagesEEG,001,200915,
AFNE01.JPG,AFNE01.JPG,AFNE01.JPG,AFNE01.JPG,AFNE01.JPG,AFNE01.JPG,,,,,,,,,,,,,,,,,2,4,24,4,,,,,,,AFNE03.jpg,AFSA14.jpg,AFSA04.jpg,AFNE08.jpg,AFSA14.jpg,FS,4,num_6,32,num_4,1.11675085549,,,2017_Sep_01_1528,60.0069480227,FEMA4ImagesEEG,001,200915,
AFNE01.JPG,AFNE01.JPG,AFNE01.JPG,AFNE01.JPG,AFNE01.JPG,AFNE01.JPG,,,,,,,,,,,,,,,,,2,5,25,3,,,,,,,AFSA03.jpg,AFSA12.jpg,AFNE11.jpg,AFNE02.jpg,AFSA03.jpg,FS,4,num_8,16,num_8,0.833453664178,,,2017_Sep_01_1528,60.0069480227,FEMA4ImagesEEG,001,200915,
AFNE01.JPG,AFNE01.JPG,AFNE01.JPG,AFNE01.JPG,AFNE01.JPG,AFNE01.JPG,,,,,,,,,,,,,,,,,2,6,26,6,,,,,,,AFSA09.jpg,AFNE08.jpg,AFNE07.jpg,AFSA14.jpg,AFNE07.jpg,FN,3,num_2,16,num_2,0.516764583153,,,2017_Sep_01_1528,60.0069480227,FEMA4ImagesEEG,001,200915,
AFNE01.JPG,AFNE01.JPG,AFNE01.JPG,AFNE01.JPG,AFNE01.JPG,AFNE01.JPG,,,,,,,,,,,,,,,,,2,7,27,1,,,,,,,AFNE15.jpg,AFSA14.jpg,AFSA01.jpg,AFNE16.jpg,AFNE15.jpg,FN,3,num_8,32,num_6,1.2501169898,,,2017_Sep_01_1528,60.0069480227,FEMA4ImagesEEG,001,200915,
AFNE01.JPG,AFNE01.JPG,AFNE01.JPG,AFNE01.JPG,AFNE01.JPG,AFNE01.JPG,,,,,,,,,,,,,,,,,2,8,28,8,,,,,,,AFNE12.jpg,AFNE19.jpg,AFSA01.jpg,AFSA20.jpg,AFNE19.jpg,FN,3,num_6,32,num_2,1.78337721588,,,2017_Sep_01_1528,60.0069480227,FEMA4ImagesEEG,001,200915,
AFNE01.JPG,AFNE01.JPG,AFNE01.JPG,AFNE01.JPG,AFNE01.JPG,AFNE01.JPG,,,,,,,,,,,,,,,,,2,9,29,2,,,,,,,AFSA15.jpg,AFSA06.jpg,AFNE09.jpg,AFNE20.jpg,AFSA06.jpg,FS,4,num_6,32,num_4,0.516753998731,,,2017_Sep_01_1528,60.0069480227,FEMA4ImagesEEG,001,200915,
AFNE01.JPG,AFNE01.JPG,AFNE01.JPG,AFNE01.JPG,AFNE01.JPG,AFNE01.JPG,,,,,,,,,,,,,,,,,3,0,30,9,,,,,,,AFSA08.jpg,AFNE19.jpg,AFSA10.jpg,AFNE08.jpg,AFNE08.jpg,FN,3,num_4,16,num_4,0.583469460631,,,2017_Sep_01_1528,60.0069480227,FEMA4ImagesEEG,001,200915,
AFNE01.JPG,AFNE01.JPG,AFNE01.JPG,AFNE01.JPG,AFNE01.JPG,AFNE01.JPG,,,,,,,,,,,,,,,,,3,1,31,1,,,,,,,AFNE14.jpg,AFSA10.jpg,AFNE17.jpg,AFSA02.jpg,AFNE14.jpg,FN,3,num_8,32,num_6,0.633454498078,,,2017_Sep_01_1528,60.0069480227,FEMA4ImagesEEG,001,200915,
AFNE01.JPG,AFNE01.JPG,AFNE01.JPG,AFNE01.JPG,AFNE01.JPG,AFNE01.JPG,,,,,,,,,,,,,,,,,3,2,32,7,,,,,,,AFNE16.jpg,AFSA09.jpg,AFNE03.jpg,AFSA19.jpg,AFSA09.jpg,FS,4,num_6,32,num_8,1.10005956137,,,2017_Sep_01_1528,60.0069480227,FEMA4ImagesEEG,001,200915,
AFNE01.JPG,AFNE01.JPG,AFNE01.JPG,AFNE01.JPG,AFNE01.JPG,AFNE01.JPG,,,,,,,,,,,,,,,,,3,3,33,5,,,,,,,AFNE06.jpg,AFNE16.jpg,AFSA13.jpg,AFSA11.jpg,AFNE06.jpg,FN,3,num_8,32,num_6,0.466798148555,,,2017_Sep_01_1528,60.0069480227,FEMA4ImagesEEG,001,200915,
AFNE01.JPG,AFNE01.JPG,AFNE01.JPG,AFNE01.JPG,AFNE01.JPG,AFNE01.JPG,,,,,,,,,,,,,,,,,3,4,34,8,,,,,,,AFNE01.jpg,AFSA19.jpg,AFSA10.jpg,AFNE02.jpg,AFNE02.jpg,FN,3,num_4,32,num_8,0.633353144367,,,2017_Sep_01_1528,60.0069480227,FEMA4ImagesEEG,001,200915,
AFNE01.JPG,AFNE01.JPG,AFNE01.JPG,AFNE01.JPG,AFNE01.JPG,AFNE01.JPG,,,,,,,,,,,,,,,,,3,5,35,3,,,,,,,AFSA02.jpg,AFNE04.jpg,AFSA16.jpg,AFNE08.jpg,AFNE08.jpg,FN,3,num_4,32,num_8,1.06673406478,,,2017_Sep_01_1528,60.0069480227,FEMA4ImagesEEG,001,200915,
AFNE01.JPG,AFNE01.JPG,AFNE01.JPG,AFNE01.JPG,AFNE01.JPG,AFNE01.JPG,,,,,,,,,,,,,,,,,3,6,36,0,,,,,,,AFSA18.jpg,AFNE17.jpg,AFSA17.jpg,AFNE18.jpg,AFNE18.jpg,FN,3,num_4,32,num_6,0.916777027829,,,2017_Sep_01_1528,60.0069480227,FEMA4ImagesEEG,001,200915,
AFNE01.JPG,AFNE01.JPG,AFNE01.JPG,AFNE01.JPG,AFNE01.JPG,AFNE01.JPG,,,,,,,,,,,,,,,,,3,7,37,6,,,,,,,AFNE08.jpg,AFNE19.jpg,AFSA08.jpg,AFSA14.jpg,AFNE19.jpg,FN,3,num_6,16,num_6,0.550131134427,,,2017_Sep_01_1528,60.0069480227,FEMA4ImagesEEG,001,200915,
AFNE01.JPG,AFNE01.JPG,AFNE01.JPG,AFNE01.JPG,AFNE01.JPG,AFNE01.JPG,,,,,,,,,,,,,,,,,3,8,38,2,,,,,,,AFSA18.jpg,AFNE08.jpg,AFNE19.jpg,AFSA04.jpg,AFNE08.jpg,FN,3,num_6,16,num_6,1.00018795347,,,2017_Sep_01_1528,60.0069480227,FEMA4ImagesEEG,001,200915,
AFNE01.JPG,AFNE01.JPG,AFNE01.JPG,AFNE01.JPG,AFNE01.JPG,AFNE01.JPG,,,,,,,,,,,,,,,,,3,9,39,4,,,,,,,AFNE08.jpg,AFNE04.jpg,AFSA10.jpg,AFSA17.jpg,AFSA10.jpg,FS,4,num_2,16,num_2,0.866757671232,,,2017_Sep_01_1528,60.0069480227,FEMA4ImagesEEG,001,200915,
AFNE01.JPG,AFNE01.JPG,AFNE01.JPG,AFNE01.JPG,AFNE01.JPG,AFNE01.JPG,,,,,,,,,,,,,,,,,4,0,40,0,,,,,,,AFNE09.jpg,AFNE20.jpg,AFSA02.jpg,AFSA11.jpg,AFSA02.jpg,FS,4,num_2,16,num_2,0.966780026763,,,2017_Sep_01_1528,60.0069480227,FEMA4ImagesEEG,001,200915,
AFNE01.JPG,AFNE01.JPG,AFNE01.JPG,AFNE01.JPG,AFNE01.JPG,AFNE01.JPG,,,,,,,,,,,,,,,,,4,1,41,7,,,,,,,AFSA07.jpg,AFSA06.jpg,AFNE10.jpg,AFNE04.jpg,AFNE10.jpg,FN,3,num_2,16,num_2,0.816726126475,,,2017_Sep_01_1528,60.0069480227,FEMA4ImagesEEG,001,200915,
AFNE01.JPG,AFNE01.JPG,AFNE01.JPG,AFNE01.JPG,AFNE01.JPG,AFNE01.JPG,,,,,,,,,,,,,,,,,4,2,42,2,,,,,,,AFNE18.jpg,AFNE17.jpg,AFSA10.jpg,AFSA05.jpg,AFNE17.jpg,FN,3,num_6,16,num_6,0.833469701145,,,2017_Sep_01_1528,60.0069480227,FEMA4ImagesEEG,001,200915,
AFNE01.JPG,AFNE01.JPG,AFNE01.JPG,AFNE01.JPG,AFNE01.JPG,AFNE01.JPG,,,,,,,,,,,,,,,,,4,3,43,4,,,,,,,AFNE05.jpg,AFNE02.jpg,AFSA01.jpg,AFSA18.jpg,AFSA01.jpg,FS,4,num_2,32,num_4,0.533517138567,,,2017_Sep_01_1528,60.0069480227,FEMA4ImagesEEG,001,200915,
AFNE01.JPG,AFNE01.JPG,AFNE01.JPG,AFNE01.JPG,AFNE01.JPG,AFNE01.JPG,,,,,,,,,,,,,,,,,4,4,44,5,,,,,,,AFSA20.jpg,AFNE09.jpg,AFSA08.jpg,AFNE02.jpg,AFNE02.jpg,FN,3,num_4,16,num_4,1.05009633416,,,2017_Sep_01_1528,60.0069480227,FEMA4ImagesEEG,001,200915,
AFNE01.JPG,AFNE01.JPG,AFNE01.JPG,AFNE01.JPG,AFNE01.JPG,AFNE01.JPG,,,,,,,,,,,,,,,,,4,5,45,3,,,,,,,AFSA07.jpg,AFNE12.jpg,AFNE16.jpg,AFSA06.jpg,AFNE16.jpg,FN,3,num_2,32,num_8,0.916757141997,,,2017_Sep_01_1528,60.0069480227,FEMA4ImagesEEG,001,200915,
AFNE01.JPG,AFNE01.JPG,AFNE01.JPG,AFNE01.JPG,AFNE01.JPG,AFNE01.JPG,,,,,,,,,,,,,,,,,4,6,46,1,,,,,,,AFSA04.jpg,AFNE12.jpg,AFSA06.jpg,AFNE04.jpg,AFSA06.jpg,FS,4,num_2,16,num_2,0.966729349893,,,2017_Sep_01_1528,60.0069480227,FEMA4ImagesEEG,001,200915,
AFNE01.JPG,AFNE01.JPG,AFNE01.JPG,AFNE01.JPG,AFNE01.JPG,AFNE01.JPG,,,,,,,,,,,,,,,,,4,7,47,6,,,,,,,AFSA13.jpg,AFNE12.jpg,AFSA17.jpg,AFNE09.jpg,AFNE12.jpg,FN,3,num_6,16,num_6,0.600114888977,,,2017_Sep_01_1528,60.0069480227,FEMA4ImagesEEG,001,200915,
AFNE01.JPG,AFNE01.JPG,AFNE01.JPG,AFNE01.JPG,AFNE01.JPG,AFNE01.JPG,,,,,,,,,,,,,,,,,4,8,48,8,,,,,,,AFNE12.jpg,AFSA09.jpg,AFNE08.jpg,AFSA14.jpg,AFSA14.jpg,FS,4,num_4,16,num_4,1.40011379845,,,2017_Sep_01_1528,60.0069480227,FEMA4ImagesEEG,001,200915,
AFNE01.JPG,AFNE01.JPG,AFNE01.JPG,AFNE01.JPG,AFNE01.JPG,AFNE01.JPG,,,,,,,,,,,,,,,,,4,9,49,9,,,,,,,AFNE13.jpg,AFSA05.jpg,AFNE04.jpg,AFSA02.jpg,AFNE04.jpg,FN,3,num_2,16,num_2,0.700104529067,,,2017_Sep_01_1528,60.0069480227,FEMA4ImagesEEG,001,200915,
AFNE01.JPG,AFNE01.JPG,AFNE01.JPG,AFNE01.JPG,AFNE01.JPG,AFNE01.JPG,,,,,,,,,,,,,,,,,5,0,50,0,,,,,,,AFNE01.jpg,AFNE08.jpg,AFSA09.jpg,AFSA12.jpg,AFSA12.jpg,FS,4,num_4,16,num_4,0.416776867496,,,2017_Sep_01_1528,60.0069480227,FEMA4ImagesEEG,001,200915,
AFNE01.JPG,AFNE01.JPG,AFNE01.JPG,AFNE01.JPG,AFNE01.JPG,AFNE01.JPG,,,,,,,,,,,,,,,,,5,1,51,4,,,,,,,AFNE05.jpg,AFSA18.jpg,AFSA03.jpg,AFNE03.jpg,AFSA18.jpg,FS,4,num_6,16,num_6,1.50006238386,,,2017_Sep_01_1528,60.0069480227,FEMA4ImagesEEG,001,200915,
AFNE01.JPG,AFNE01.JPG,AFNE01.JPG,AFNE01.JPG,AFNE01.JPG,AFNE01.JPG,,,,,,,,,,,,,,,,,5,2,52,1,,,,,,,AFSA17.jpg,AFSA06.jpg,AFNE11.jpg,AFNE04.jpg,AFNE04.jpg,FN,3,num_4,16,num_4,0.483472443506,,,2017_Sep_01_1528,60.0069480227,FEMA4ImagesEEG,001,200915,
AFNE01.JPG,AFNE01.JPG,AFNE01.JPG,AFNE01.JPG,AFNE01.JPG,AFNE01.JPG,,,,,,,,,,,,,,,,,5,3,53,9,,,,,,,AFSA01.jpg,AFNE12.jpg,AFNE18.jpg,AFSA09.jpg,AFNE12.jpg,FN,3,num_6,16,num_6,0.766792086593,,,2017_Sep_01_1528,60.0069480227,FEMA4ImagesEEG,001,200915,
AFNE01.JPG,AFNE01.JPG,AFNE01.JPG,AFNE01.JPG,AFNE01.JPG,AFNE01.JPG,,,,,,,,,,,,,,,,,5,4,54,6,,,,,,,AFNE16.jpg,AFSA16.jpg,AFSA06.jpg,AFNE13.jpg,AFSA06.jpg,FS,4,num_2,16,num_2,1.91667439116,,,2017_Sep_01_1528,60.0069480227,FEMA4ImagesEEG,001,200915,
AFNE01.JPG,AFNE01.JPG,AFNE01.JPG,AFNE01.JPG,AFNE01.JPG,AFNE01.JPG,,,,,,,,,,,,,,,,,5,5,55,7,,,,,,,AFSA12.jpg,AFNE05.jpg,AFSA18.jpg,AFNE19.jpg,AFSA12.jpg,FS,4,num_8,16,num_8,0.483492650092,,,2017_Sep_01_1528,60.0069480227,FEMA4ImagesEEG,001,200915,
AFNE01.JPG,AFNE01.JPG,AFNE01.JPG,AFNE01.JPG,AFNE01.JPG,AFNE01.JPG,,,,,,,,,,,,,,,,,5,6,56,8,,,,,,,AFSA19.jpg,AFNE04.jpg,AFNE14.jpg,AFSA04.jpg,AFNE04.jpg,FN,3,num_6,16,num_6,0.483432030276,,,2017_Sep_01_1528,60.0069480227,FEMA4ImagesEEG,001,200915,
AFNE01.JPG,AFNE01.JPG,AFNE01.JPG,AFNE01.JPG,AFNE01.JPG,AFNE01.JPG,,,,,,,,,,,,,,,,,5,7,57,3,,,,,,,AFSA04.jpg,AFNE05.jpg,AFNE12.jpg,AFSA19.jpg,AFSA04.jpg,FS,4,num_8,32,num_4,1.01667621935,,,2017_Sep_01_1528,60.0069480227,FEMA4ImagesEEG,001,200915,
AFNE01.JPG,AFNE01.JPG,AFNE01.JPG,AFNE01.JPG,AFNE01.JPG,AFNE01.JPG,,,,,,,,,,,,,,,,,5,8,58,2,,,,,,,AFSA05.jpg,AFSA18.jpg,AFNE14.jpg,AFNE01.jpg,AFSA18.jpg,FS,4,num_6,32,num_8,1.48339514522,,,2017_Sep_01_1528,60.0069480227,FEMA4ImagesEEG,001,200915,
AFNE01.JPG,AFNE01.JPG,AFNE01.JPG,AFNE01.JPG,AFNE01.JPG,AFNE01.JPG,,,,,,,,,,,,,,,,,5,9,59,5,,,,,,,AFNE05.jpg,AFNE20.jpg,AFSA17.jpg,AFSA07.jpg,AFNE05.jpg,FN,3,num_8,32,num_4,0.716816992004,,,2017_Sep_01_1528,60.0069480227,FEMA4ImagesEEG,001,200915,
,,,,,,,,,,,,,,,,,,,,,,,,,,,,,,,,,,,,,,,,,,,space,64.5117812504,2017_Sep_01_1528,60.0069480227,FEMA4ImagesEEG,001,200915,
AFNE01.JPG,AFNE01.JPG,AFNE01.JPG,AFNE01.JPG,AFNE01.JPG,AFNE01.JPG,,,,,,,,,,,,,,,,,,,,,0,0,0,9,,,AMSA18.jpg,AMNE11.jpg,AMNE03.jpg,AMSA03.jpg,AMSA18.jpg,MS,2,num_8,16,num_8,0.900138335041,,,2017_Sep_01_1528,60.0069480227,FEMA4ImagesEEG,001,200915,
AFNE01.JPG,AFNE01.JPG,AFNE01.JPG,AFNE01.JPG,AFNE01.JPG,AFNE01.JPG,,,,,,,,,,,,,,,,,,,,,0,1,1,0,,,AMNE03.jpg,AMSA15.jpg,AMNE11.jpg,AMSA06.jpg,AMNE03.jpg,MN,1,num_8,16,num_8,0.716282639682,,,2017_Sep_01_1528,60.0069480227,FEMA4ImagesEEG,001,200915,
AFNE01.JPG,AFNE01.JPG,AFNE01.JPG,AFNE01.JPG,AFNE01.JPG,AFNE01.JPG,,,,,,,,,,,,,,,,,,,,,0,2,2,4,,,AMSA02.jpg,AMNE19.jpg,AMSA03.jpg,AMNE11.jpg,AMNE19.jpg,MN,1,num_6,16,num_6,0.650130396738,,,2017_Sep_01_1528,60.0069480227,FEMA4ImagesEEG,001,200915,
AFNE01.JPG,AFNE01.JPG,AFNE01.JPG,AFNE01.JPG,AFNE01.JPG,AFNE01.JPG,,,,,,,,,,,,,,,,,,,,,0,3,3,7,,,AMSA09.jpg,AMSA06.jpg,AMNE16.jpg,AMNE09.jpg,AMSA09.jpg,MS,2,num_8,16,num_8,0.666781277658,,,2017_Sep_01_1528,60.0069480227,FEMA4ImagesEEG,001,200915,
AFNE01.JPG,AFNE01.JPG,AFNE01.JPG,AFNE01.JPG,AFNE01.JPG,AFNE01.JPG,,,,,,,,,,,,,,,,,,,,,0,4,4,6,,,AMNE16.jpg,AMSA11.jpg,AMSA20.jpg,AMNE07.jpg,AMNE16.jpg,MN,1,num_8,32,num_4,0.933474416059,,,2017_Sep_01_1528,60.0069480227,FEMA4ImagesEEG,001,200915,
AFNE01.JPG,AFNE01.JPG,AFNE01.JPG,AFNE01.JPG,AFNE01.JPG,AFNE01.JPG,,,,,,,,,,,,,,,,,,,,,0,5,5,3,,,AMSA10.jpg,AMNE13.jpg,AMNE10.jpg,AMSA17.jpg,AMNE13.jpg,MN,1,num_6,32,num_8,0.716775295848,,,2017_Sep_01_1528,60.0069480227,FEMA4ImagesEEG,001,200915,
AFNE01.JPG,AFNE01.JPG,AFNE01.JPG,AFNE01.JPG,AFNE01.JPG,AFNE01.JPG,,,,,,,,,,,,,,,,,,,,,0,6,6,8,,,AMNE03.jpg,AMNE01.jpg,AMSA13.jpg,AMSA01.jpg,AMSA01.jpg,MS,2,num_4,32,num_8,0.766805236897,,,2017_Sep_01_1528,60.0069480227,FEMA4ImagesEEG,001,200915,
AFNE01.JPG,AFNE01.JPG,AFNE01.JPG,AFNE01.JPG,AFNE01.JPG,AFNE01.JPG,,,,,,,,,,,,,,,,,,,,,0,7,7,1,,,AMNE10.jpg,AMNE09.jpg,AMSA12.jpg,AMSA09.jpg,AMNE09.jpg,MN,1,num_6,16,num_6,0.466776979738,,,2017_Sep_01_1528,60.0069480227,FEMA4ImagesEEG,001,200915,
AFNE01.JPG,AFNE01.JPG,AFNE01.JPG,AFNE01.JPG,AFNE01.JPG,AFNE01.JPG,,,,,,,,,,,,,,,,,,,,,0,8,8,2,,,AMNE16.jpg,AMSA03.jpg,AMNE13.jpg,AMSA08.jpg,AMNE16.jpg,MN,1,num_8,16,num_8,0.766742692649,,,2017_Sep_01_1528,60.0069480227,FEMA4ImagesEEG,001,200915,
AFNE01.JPG,AFNE01.JPG,AFNE01.JPG,AFNE01.JPG,AFNE01.JPG,AFNE01.JPG,,,,,,,,,,,,,,,,,,,,,0,9,9,5,,,AMNE03.jpg,AMSA17.jpg,AMNE17.jpg,AMSA07.jpg,AMSA07.jpg,MS,2,num_4,16,num_4,0.433538724348,,,2017_Sep_01_1528,60.0069480227,FEMA4ImagesEEG,001,200915,
AFNE01.JPG,AFNE01.JPG,AFNE01.JPG,AFNE01.JPG,AFNE01.JPG,AFNE01.JPG,,,,,,,,,,,,,,,,,,,,,1,0,10,0,,,AMNE11.jpg,AMNE20.jpg,AMSA20.jpg,AMSA07.jpg,AMSA07.jpg,MS,2,num_4,32,num_2,1.06673406478,,,2017_Sep_01_1528,60.0069480227,FEMA4ImagesEEG,001,200915,
AFNE01.JPG,AFNE01.JPG,AFNE01.JPG,AFNE01.JPG,AFNE01.JPG,AFNE01.JPG,,,,,,,,,,,,,,,,,,,,,1,1,11,9,,,AMSA16.jpg,AMSA19.jpg,AMNE11.jpg,AMNE15.jpg,AMNE11.jpg,MN,1,num_2,32,num_4,0.416792263015,,,2017_Sep_01_1528,60.0069480227,FEMA4ImagesEEG,001,200915,
AFNE01.JPG,AFNE01.JPG,AFNE01.JPG,AFNE01.JPG,AFNE01.JPG,AFNE01.JPG,,,,,,,,,,,,,,,,,,,,,1,2,12,6,,,AMNE06.jpg,AMSA09.jpg,AMNE13.jpg,AMSA07.jpg,AMSA09.jpg,MS,2,num_6,16,num_6,0.533451066207,,,2017_Sep_01_1528,60.0069480227,FEMA4ImagesEEG,001,200915,
AFNE01.JPG,AFNE01.JPG,AFNE01.JPG,AFNE01.JPG,AFNE01.JPG,AFNE01.JPG,,,,,,,,,,,,,,,,,,,,,1,3,13,5,,,AMSA13.jpg,AMSA18.jpg,AMNE19.jpg,AMNE20.jpg,AMSA13.jpg,MS,2,num_8,16,num_8,0.749922461167,,,2017_Sep_01_1528,60.0069480227,FEMA4ImagesEEG,001,200915,
AFNE01.JPG,AFNE01.JPG,AFNE01.JPG,AFNE01.JPG,AFNE01.JPG,AFNE01.JPG,,,,,,,,,,,,,,,,,,,,,1,4,14,7,,,AMSA09.jpg,AMNE20.jpg,AMSA05.jpg,AMNE09.jpg,AMSA09.jpg,MS,2,num_8,32,num_4,0.850172221195,,,2017_Sep_01_1528,60.0069480227,FEMA4ImagesEEG,001,200915,
AFNE01.JPG,AFNE01.JPG,AFNE01.JPG,AFNE01.JPG,AFNE01.JPG,AFNE01.JPG,,,,,,,,,,,,,,,,,,,,,1,5,15,2,,,AMNE19.jpg,AMSA11.jpg,AMNE01.jpg,AMSA16.jpg,AMSA11.jpg,MS,2,num_6,32,num_8,1.65007811613,,,2017_Sep_01_1528,60.0069480227,FEMA4ImagesEEG,001,200915,
AFNE01.JPG,AFNE01.JPG,AFNE01.JPG,AFNE01.JPG,AFNE01.JPG,AFNE01.JPG,,,,,,,,,,,,,,,,,,,,,1,6,16,3,,,AMSA12.jpg,AMNE04.jpg,AMNE17.jpg,AMSA01.jpg,AMNE17.jpg,MN,1,num_2,16,num_2,1.21669751647,,,2017_Sep_01_1528,60.0069480227,FEMA4ImagesEEG,001,200915,
AFNE01.JPG,AFNE01.JPG,AFNE01.JPG,AFNE01.JPG,AFNE01.JPG,AFNE01.JPG,,,,,,,,,,,,,,,,,,,,,1,7,17,8,,,AMSA19.jpg,AMNE05.jpg,AMNE16.jpg,AMSA02.jpg,AMNE05.jpg,MN,1,num_6,16,num_6,0.933493339689,,,2017_Sep_01_1528,60.0069480227,FEMA4ImagesEEG,001,200915,
AFNE01.JPG,AFNE01.JPG,AFNE01.JPG,AFNE01.JPG,AFNE01.JPG,AFNE01.JPG,,,,,,,,,,,,,,,,,,,,,1,8,18,1,,,AMSA16.jpg,AMNE12.jpg,AMNE19.jpg,AMSA07.jpg,AMNE19.jpg,MN,1,num_2,32,num_6,0.733439006377,,,2017_Sep_01_1528,60.0069480227,FEMA4ImagesEEG,001,200915,
AFNE01.JPG,AFNE01.JPG,AFNE01.JPG,AFNE01.JPG,AFNE01.JPG,AFNE01.JPG,,,,,,,,,,,,,,,,,,,,,1,9,19,4,,,AMNE16.jpg,AMSA20.jpg,AMSA13.jpg,AMNE12.jpg,AMNE16.jpg,MN,1,num_8,16,num_8,0.650194865419,,,2017_Sep_01_1528,60.0069480227,FEMA4ImagesEEG,001,200915,
AFNE01.JPG,AFNE01.JPG,AFNE01.JPG,AFNE01.JPG,AFNE01.JPG,AFNE01.JPG,,,,,,,,,,,,,,,,,,,,,2,0,20,5,,,AMNE10.jpg,AMNE12.jpg,AMSA03.jpg,AMSA02.jpg,AMSA02.jpg,MS,2,num_4,32,num_2,1.23341446978,,,2017_Sep_01_1528,60.0069480227,FEMA4ImagesEEG,001,200915,
AFNE01.JPG,AFNE01.JPG,AFNE01.JPG,AFNE01.JPG,AFNE01.JPG,AFNE01.JPG,,,,,,,,,,,,,,,,,,,,,2,1,21,0,,,AMNE07.jpg,AMSA14.jpg,AMNE03.jpg,AMSA19.jpg,AMSA19.jpg,MS,2,num_4,32,num_2,1.25007304846,,,2017_Sep_01_1528,60.0069480227,FEMA4ImagesEEG,001,200915,
AFNE01.JPG,AFNE01.JPG,AFNE01.JPG,AFNE01.JPG,AFNE01.JPG,AFNE01.JPG,,,,,,,,,,,,,,,,,,,,,2,2,22,6,,,AMSA04.jpg,AMSA01.jpg,AMNE19.jpg,AMNE01.jpg,AMSA01.jpg,MS,2,num_6,32,num_4,1.03333640174,,,2017_Sep_01_1528,60.0069480227,FEMA4ImagesEEG,001,200915,
AFNE01.JPG,AFNE01.JPG,AFNE01.JPG,AFNE01.JPG,AFNE01.JPG,AFNE01.JPG,,,,,,,,,,,,,,,,,,,,,2,3,23,3,,,AMNE13.jpg,AMSA13.jpg,AMNE08.jpg,AMSA16.jpg,AMNE08.jpg,MN,1,num_2,32,num_8,0.683444346709,,,2017_Sep_01_1528,60.0069480227,FEMA4ImagesEEG,001,200915,
AFNE01.JPG,AFNE01.JPG,AFNE01.JPG,AFNE01.JPG,AFNE01.JPG,AFNE01.JPG,,,,,,,,,,,,,,,,,,,,,2,4,24,2,,,AMSA08.jpg,AMNE04.jpg,AMSA15.jpg,AMNE02.jpg,AMSA08.jpg,MS,2,num_8,32,num_6,0.999774840719,,,2017_Sep_01_1528,60.0069480227,FEMA4ImagesEEG,001,200915,
AFNE01.JPG,AFNE01.JPG,AFNE01.JPG,AFNE01.JPG,AFNE01.JPG,AFNE01.JPG,,,,,,,,,,,,,,,,,,,,,2,5,25,4,,,AMSA18.jpg,AMNE10.jpg,AMNE05.jpg,AMSA20.jpg,AMNE05.jpg,MN,1,num_2,32,num_6,0.416854807234,,,2017_Sep_01_1528,60.0069480227,FEMA4ImagesEEG,001,200915,
AFNE01.JPG,AFNE01.JPG,AFNE01.JPG,AFNE01.JPG,AFNE01.JPG,AFNE01.JPG,,,,,,,,,,,,,,,,,,,,,2,6,26,1,,,AMSA03.jpg,AMNE03.jpg,AMSA05.jpg,AMNE05.jpg,AMSA05.jpg,MS,2,num_2,32,num_6,0.533496611228,,,2017_Sep_01_1528,60.0069480227,FEMA4ImagesEEG,001,200915,
AFNE01.JPG,AFNE01.JPG,AFNE01.JPG,AFNE01.JPG,AFNE01.JPG,AFNE01.JPG,,,,,,,,,,,,,,,,,,,,,2,7,27,7,,,AMSA20.jpg,AMSA03.jpg,AMNE11.jpg,AMNE20.jpg,AMNE11.jpg,MN,1,num_2,32,num_8,0.583463687275,,,2017_Sep_01_1528,60.0069480227,FEMA4ImagesEEG,001,200915,
AFNE01.JPG,AFNE01.JPG,AFNE01.JPG,AFNE01.JPG,AFNE01.JPG,AFNE01.JPG,,,,,,,,,,,,,,,,,,,,,2,8,28,8,,,AMNE07.jpg,AMSA05.jpg,AMNE02.jpg,AMSA19.jpg,AMSA05.jpg,MS,2,num_6,16,num_6,0.483471160522,,,2017_Sep_01_1528,60.0069480227,FEMA4ImagesEEG,001,200915,
AFNE01.JPG,AFNE01.JPG,AFNE01.JPG,AFNE01.JPG,AFNE01.JPG,AFNE01.JPG,,,,,,,,,,,,,,,,,,,,,2,9,29,9,,,AMSA09.jpg,AMNE08.jpg,AMNE20.jpg,AMSA01.jpg,AMSA09.jpg,MS,2,num_8,32,num_6,0.750176807749,,,2017_Sep_01_1528,60.0069480227,FEMA4ImagesEEG,001,200915,
AFNE01.JPG,AFNE01.JPG,AFNE01.JPG,AFNE01.JPG,AFNE01.JPG,AFNE01.JPG,,,,,,,,,,,,,,,,,,,,,3,0,30,7,,,AMNE08.jpg,AMNE17.jpg,AMSA16.jpg,AMSA18.jpg,AMSA16.jpg,MS,2,num_2,32,num_8,1.28342388352,,,2017_Sep_01_1528,60.0069480227,FEMA4ImagesEEG,001,200915,
AFNE01.JPG,AFNE01.JPG,AFNE01.JPG,AFNE01.JPG,AFNE01.JPG,AFNE01.JPG,,,,,,,,,,,,,,,,,,,,,3,1,31,8,,,AMNE01.jpg,AMSA15.jpg,AMNE04.jpg,AMSA02.jpg,AMNE01.jpg,MN,1,num_8,32,num_2,1.1000608443,,,2017_Sep_01_1528,60.0069480227,FEMA4ImagesEEG,001,200915,
AFNE01.JPG,AFNE01.JPG,AFNE01.JPG,AFNE01.JPG,AFNE01.JPG,AFNE01.JPG,,,,,,,,,,,,,,,,,,,,,3,2,32,4,,,AMNE19.jpg,AMSA01.jpg,AMNE10.jpg,AMSA08.jpg,AMSA01.jpg,MS,2,num_6,32,num_4,1.26677909662,,,2017_Sep_01_1528,60.0069480227,FEMA4ImagesEEG,001,200915,
AFNE01.JPG,AFNE01.JPG,AFNE01.JPG,AFNE01.JPG,AFNE01.JPG,AFNE01.JPG,,,,,,,,,,,,,,,,,,,,,3,3,33,6,,,AMNE06.jpg,AMNE08.jpg,AMSA19.jpg,AMSA07.jpg,AMNE08.jpg,MN,1,num_6,16,num_6,0.783460287465,,,2017_Sep_01_1528,60.0069480227,FEMA4ImagesEEG,001,200915,
AFNE01.JPG,AFNE01.JPG,AFNE01.JPG,AFNE01.JPG,AFNE01.JPG,AFNE01.JPG,,,,,,,,,,,,,,,,,,,,,3,4,34,9,,,AMNE03.jpg,AMSA18.jpg,AMSA07.jpg,AMNE15.jpg,AMNE15.jpg,MN,1,num_4,16,num_4,0.866733615752,,,2017_Sep_01_1528,60.0069480227,FEMA4ImagesEEG,001,200915,
AFNE01.JPG,AFNE01.JPG,AFNE01.JPG,AFNE01.JPG,AFNE01.JPG,AFNE01.JPG,,,,,,,,,,,,,,,,,,,,,3,5,35,0,,,AMNE18.jpg,AMSA01.jpg,AMSA16.jpg,AMNE14.jpg,AMSA01.jpg,MS,2,num_6,16,num_6,0.516854711022,,,2017_Sep_01_1528,60.0069480227,FEMA4ImagesEEG,001,200915,
AFNE01.JPG,AFNE01.JPG,AFNE01.JPG,AFNE01.JPG,AFNE01.JPG,AFNE01.JPG,,,,,,,,,,,,,,,,,,,,,3,6,36,5,,,AMNE17.jpg,AMSA13.jpg,AMSA20.jpg,AMNE09.jpg,AMSA20.jpg,MS,2,num_2,16,num_2,0.766918778769,,,2017_Sep_01_1528,60.0069480227,FEMA4ImagesEEG,001,200915,
AFNE01.JPG,AFNE01.JPG,AFNE01.JPG,AFNE01.JPG,AFNE01.JPG,AFNE01.JPG,,,,,,,,,,,,,,,,,,,,,3,7,37,2,,,AMSA15.jpg,AMSA17.jpg,AMNE17.jpg,AMNE16.jpg,AMSA17.jpg,MS,2,num_6,16,num_6,0.600135416316,,,2017_Sep_01_1528,60.0069480227,FEMA4ImagesEEG,001,200915,
AFNE01.JPG,AFNE01.JPG,AFNE01.JPG,AFNE01.JPG,AFNE01.JPG,AFNE01.JPG,,,,,,,,,,,,,,,,,,,,,3,8,38,1,,,AMSA19.jpg,AMNE13.jpg,AMSA09.jpg,AMNE01.jpg,AMSA19.jpg,MS,2,num_8,16,num_8,0.833439551643,,,2017_Sep_01_1528,60.0069480227,FEMA4ImagesEEG,001,200915,
