IPosition2,IPosition3,IPosition1,IPosition6,IPosition4,IPosition5,TrialsF1.thisRepN,TrialsF1.thisTrialN,TrialsF1.thisN,TrialsF1.thisIndex,TrialsM1.thisRepN,TrialsM1.thisTrialN,TrialsM1.thisN,TrialsM1.thisIndex,TrialsF2.thisRepN,TrialsF2.thisTrialN,TrialsF2.thisN,TrialsF2.thisIndex,TrialsM2.thisRepN,TrialsM2.thisTrialN,TrialsM2.thisN,TrialsM2.thisIndex,TrialsF3.thisRepN,TrialsF3.thisTrialN,TrialsF3.thisN,TrialsF3.thisIndex,TrialsM3.thisRepN,TrialsM3.thisTrialN,TrialsM3.thisN,TrialsM3.thisIndex,InstrKey_resp.keys,InstrKey_resp.rt,Image0 _Position,Image1 _Position,Image2 _Position,Image3 _Position,Center_image,condition,code,correct_answer,accuracy,Key_Resp.keys,Key_Resp.rt,BreakKey_resp.keys,BreakKey_resp.rt,date,frameRate,expName,session,participant,
,,,,,,,,,,,,,,,,,,,,,,,,,,,,,,space,6.5497562536,,,,,,,,,,,,,,2017_Aug_02_1545,60.004099338,FEMA4ImagesEEG,001,201088,
AFSA25.JPG,AFNE24.JPG,AFSA24.JPG,AFNE21.JPG,AFSA21.JPG,AFNE25.JPG,0,0,0,2,,,,,,,,,,,,,,,,,,,,,,,AFSA13.jpg,AFNE19.jpg,AFSA18.jpg,AFNE17.jpg,AFNE19.jpg,FN,3,num_6,32,num_4,1.43366340687,,,2017_Aug_02_1545,60.004099338,FEMA4ImagesEEG,001,201088,
AMNE23.JPG,AMNE24.JPG,AMNE22.JPG,AMSA24.JPG,AMSA22.JPG,AMSA23.JPG,0,1,1,9,,,,,,,,,,,,,,,,,,,,,,,AFNE04.jpg,AFNE14.jpg,AFSA04.jpg,AFSA19.jpg,AFSA19.jpg,FS,4,num_4,16,num_4,0.916776279686,,,2017_Aug_02_1545,60.004099338,FEMA4ImagesEEG,001,201088,
AFNE23.JPG,AFNE24.JPG,AFNE22.JPG,AFSA24.JPG,AFSA22.JPG,AFSA23.JPG,0,2,2,8,,,,,,,,,,,,,,,,,,,,,,,AFNE09.jpg,AFNE12.jpg,AFSA05.jpg,AFSA18.jpg,AFNE12.jpg,FN,3,num_6,16,num_6,0.866763273487,,,2017_Aug_02_1545,60.004099338,FEMA4ImagesEEG,001,201088,
AFSA21.JPG,AFNE23.JPG,AFNE21.JPG,AFSA25.JPG,AFNE25.JPG,AFSA23.JPG,0,3,3,4,,,,,,,,,,,,,,,,,,,,,,,AFNE13.jpg,AFSA11.jpg,AFNE14.jpg,AFSA08.jpg,AFNE14.jpg,FN,3,num_2,32,num_8,0.966768437531,,,2017_Aug_02_1545,60.004099338,FEMA4ImagesEEG,001,201088,
AFNE22.JPG,AFSA24.JPG,AFSA22.JPG,AFNE25.JPG,AFNE24.JPG,AFSA25.JPG,0,4,4,6,,,,,,,,,,,,,,,,,,,,,,,AFSA18.jpg,AFSA01.jpg,AFNE08.jpg,AFNE20.jpg,AFSA01.jpg,FS,4,num_6,32,num_8,1.2167936957,,,2017_Aug_02_1545,60.004099338,FEMA4ImagesEEG,001,201088,
AMSA21.JPG,AMNE23.JPG,AMNE21.JPG,AMSA25.JPG,AMNE25.JPG,AMSA23.JPG,0,5,5,5,,,,,,,,,,,,,,,,,,,,,,,AFNE11.jpg,AFSA01.jpg,AFNE19.jpg,AFSA16.jpg,AFSA01.jpg,FS,4,num_6,16,num_6,0.800131118624,,,2017_Aug_02_1545,60.004099338,FEMA4ImagesEEG,001,201088,
AMSA25.JPG,AMNE24.JPG,AMSA24.JPG,AMNE26.JPG,AMSA21.JPG,AMNE25.JPG,0,6,6,3,,,,,,,,,,,,,,,,,,,,,,,AFSA15.jpg,AFNE09.jpg,AFSA13.jpg,AFNE11.jpg,AFNE09.jpg,FN,3,num_6,16,num_6,0.966664838372,,,2017_Aug_02_1545,60.004099338,FEMA4ImagesEEG,001,201088,
AMSA21.JPG,AMNE22.JPG,AMNE21.JPG,AMSA23.JPG,AMSA22.JPG,AMNE23.JPG,0,7,7,1,,,,,,,,,,,,,,,,,,,,,,,AFSA07.jpg,AFNE09.jpg,AFNE08.jpg,AFSA01.jpg,AFNE09.jpg,FN,3,num_6,16,num_6,1.56670384039,,,2017_Aug_02_1545,60.004099338,FEMA4ImagesEEG,001,201088,
AFSA21.JPG,AFNE22.JPG,AFNE21.JPG,AFSA23.JPG,AFSA22.JPG,AFNE23.JPG,0,8,8,0,,,,,,,,,,,,,,,,,,,,,,,AFSA04.jpg,AFNE16.jpg,AFNE20.jpg,AFSA14.jpg,AFNE16.jpg,FN,3,num_6,16,num_6,0.833436130546,,,2017_Aug_02_1545,60.004099338,FEMA4ImagesEEG,001,201088,
AMNE22.JPG,AMSA24.JPG,AMSA22.JPG,AMNE25.JPG,AMNE24.JPG,AMSA25.JPG,0,9,9,7,,,,,,,,,,,,,,,,,,,,,,,AFNE06.jpg,AFNE08.jpg,AFSA17.jpg,AFSA12.jpg,AFSA12.jpg,FS,4,num_4,16,num_4,1.41666770889,,,2017_Aug_02_1545,60.004099338,FEMA4ImagesEEG,001,201088,
AMSA25.JPG,AMNE24.JPG,AMSA24.JPG,AMNE26.JPG,AMSA21.JPG,AMNE25.JPG,,,,,0,0,0,3,,,,,,,,,,,,,,,,,,,AMSA18.jpg,AMSA01.jpg,AMNE19.jpg,AMNE08.jpg,AMNE08.jpg,MN,1,num_4,16,num_4,1.01674840739,,,2017_Aug_02_1545,60.004099338,FEMA4ImagesEEG,001,201088,
AMSA21.JPG,AMNE23.JPG,AMNE21.JPG,AMSA25.JPG,AMNE25.JPG,AMSA23.JPG,,,,,0,1,1,5,,,,,,,,,,,,,,,,,,,AMNE06.jpg,AMNE12.jpg,AMSA10.jpg,AMSA18.jpg,AMSA10.jpg,MS,2,num_2,16,num_2,1.08370354772,,,2017_Aug_02_1545,60.004099338,FEMA4ImagesEEG,001,201088,
AFSA21.JPG,AFNE23.JPG,AFNE21.JPG,AFSA25.JPG,AFNE25.JPG,AFSA23.JPG,,,,,0,2,2,4,,,,,,,,,,,,,,,,,,,AMSA16.jpg,AMNE04.jpg,AMSA09.jpg,AMNE08.jpg,AMNE08.jpg,MN,1,num_4,16,num_4,0.950128119672,,,2017_Aug_02_1545,60.004099338,FEMA4ImagesEEG,001,201088,
AFNE22.JPG,AFSA24.JPG,AFSA22.JPG,AFNE25.JPG,AFNE24.JPG,AFSA25.JPG,,,,,0,3,3,6,,,,,,,,,,,,,,,,,,,AMNE12.jpg,AMSA02.jpg,AMNE03.jpg,AMSA08.jpg,AMSA08.jpg,MS,2,num_4,32,num_6,0.816773681436,,,2017_Aug_02_1545,60.004099338,FEMA4ImagesEEG,001,201088,
AMSA21.JPG,AMNE22.JPG,AMNE21.JPG,AMSA23.JPG,AMSA22.JPG,AMNE23.JPG,,,,,0,4,4,1,,,,,,,,,,,,,,,,,,,AMNE07.jpg,AMNE09.jpg,AMSA14.jpg,AMSA12.jpg,AMNE09.jpg,MN,1,num_6,32,num_8,1.25007882179,,,2017_Aug_02_1545,60.004099338,FEMA4ImagesEEG,001,201088,
AFSA25.JPG,AFNE24.JPG,AFSA24.JPG,AFNE21.JPG,AFSA21.JPG,AFNE25.JPG,,,,,0,5,5,2,,,,,,,,,,,,,,,,,,,AMNE13.jpg,AMSA11.jpg,AMSA02.jpg,AMNE18.jpg,AMNE18.jpg,MN,1,num_4,32,num_2,1.30012550554,,,2017_Aug_02_1545,60.004099338,FEMA4ImagesEEG,001,201088,
AFSA21.JPG,AFNE22.JPG,AFNE21.JPG,AFSA23.JPG,AFSA22.JPG,AFNE23.JPG,,,,,0,6,6,0,,,,,,,,,,,,,,,,,,,AMSA11.jpg,AMNE08.jpg,AMSA02.jpg,AMNE09.jpg,AMNE09.jpg,MN,1,num_4,16,num_4,1.60007171752,,,2017_Aug_02_1545,60.004099338,FEMA4ImagesEEG,001,201088,
AMNE22.JPG,AMSA24.JPG,AMSA22.JPG,AMNE25.JPG,AMNE24.JPG,AMSA25.JPG,,,,,0,7,7,7,,,,,,,,,,,,,,,,,,,AMSA18.jpg,AMSA06.jpg,AMNE13.jpg,AMNE08.jpg,AMSA06.jpg,MS,2,num_6,16,num_6,0.766827710206,,,2017_Aug_02_1545,60.004099338,FEMA4ImagesEEG,001,201088,
AFNE23.JPG,AFNE24.JPG,AFNE22.JPG,AFSA24.JPG,AFSA22.JPG,AFSA23.JPG,,,,,0,8,8,8,,,,,,,,,,,,,,,,,,,AMSA20.jpg,AMSA15.jpg,AMNE14.jpg,AMNE20.jpg,AMNE14.jpg,MN,1,num_2,16,num_2,0.916718867142,,,2017_Aug_02_1545,60.004099338,FEMA4ImagesEEG,001,201088,
AMNE23.JPG,AMNE24.JPG,AMNE22.JPG,AMSA24.JPG,AMSA22.JPG,AMSA23.JPG,,,,,0,9,9,9,,,,,,,,,,,,,,,,,,,AMNE17.jpg,AMNE15.jpg,AMSA05.jpg,AMSA15.jpg,AMNE17.jpg,MN,1,num_8,32,num_2,1.5167027018,,,2017_Aug_02_1545,60.004099338,FEMA4ImagesEEG,001,201088,
AFNE22.JPG,AFSA24.JPG,AFSA22.JPG,AFNE25.JPG,AFNE24.JPG,AFSA25.JPG,,,,,,,,,0,0,0,6,,,,,,,,,,,,,,,AFSA16.jpg,AFSA19.jpg,AFNE20.jpg,AFNE17.jpg,AFSA16.jpg,FS,4,num_8,16,num_8,1.11678307923,,,2017_Aug_02_1545,60.004099338,FEMA4ImagesEEG,001,201088,
AMSA25.JPG,AMNE24.JPG,AMSA24.JPG,AMNE26.JPG,AMSA21.JPG,AMNE25.JPG,,,,,,,,,0,1,1,3,,,,,,,,,,,,,,,AFNE04.jpg,AFSA13.jpg,AFNE06.jpg,AFSA11.jpg,AFNE04.jpg,FN,3,num_8,16,num_8,1.3837594525,,,2017_Aug_02_1545,60.004099338,FEMA4ImagesEEG,001,201088,
AMSA21.JPG,AMNE22.JPG,AMNE21.JPG,AMSA23.JPG,AMSA22.JPG,AMNE23.JPG,,,,,,,,,0,2,2,1,,,,,,,,,,,,,,,AFSA15.jpg,AFNE09.jpg,AFNE16.jpg,AFSA06.jpg,AFNE09.jpg,FN,3,num_6,16,num_6,0.933439049171,,,2017_Aug_02_1545,60.004099338,FEMA4ImagesEEG,001,201088,
AFNE23.JPG,AFNE24.JPG,AFNE22.JPG,AFSA24.JPG,AFSA22.JPG,AFSA23.JPG,,,,,,,,,0,3,3,8,,,,,,,,,,,,,,,AFNE13.jpg,AFNE06.jpg,AFSA07.jpg,AFSA14.jpg,AFNE06.jpg,FN,3,num_6,32,num_8,1.1500919403,,,2017_Aug_02_1545,60.004099338,FEMA4ImagesEEG,001,201088,
AMNE23.JPG,AMNE24.JPG,AMNE22.JPG,AMSA24.JPG,AMSA22.JPG,AMSA23.JPG,,,,,,,,,0,4,4,9,,,,,,,,,,,,,,,AFSA03.jpg,AFSA01.jpg,AFNE19.jpg,AFNE15.jpg,AFNE19.jpg,FN,3,num_2,32,num_4,1.45010230015,,,2017_Aug_02_1545,60.004099338,FEMA4ImagesEEG,001,201088,
AMSA21.JPG,AMNE23.JPG,AMNE21.JPG,AMSA25.JPG,AMNE25.JPG,AMSA23.JPG,,,,,,,,,0,5,5,5,,,,,,,,,,,,,,,AFNE03.jpg,AFSA16.jpg,AFSA10.jpg,AFNE07.jpg,AFSA16.jpg,FS,4,num_6,16,num_6,0.900217750343,,,2017_Aug_02_1545,60.004099338,FEMA4ImagesEEG,001,201088,
AFSA21.JPG,AFNE22.JPG,AFNE21.JPG,AFSA23.JPG,AFSA22.JPG,AFNE23.JPG,,,,,,,,,0,6,6,0,,,,,,,,,,,,,,,AFSA16.jpg,AFSA09.jpg,AFNE13.jpg,AFNE15.jpg,AFNE13.jpg,FN,3,num_2,16,num_2,0.866773858201,,,2017_Aug_02_1545,60.004099338,FEMA4ImagesEEG,001,201088,
AMNE22.JPG,AMSA24.JPG,AMSA22.JPG,AMNE25.JPG,AMNE24.JPG,AMSA25.JPG,,,,,,,,,0,7,7,7,,,,,,,,,,,,,,,AFSA15.jpg,AFNE20.jpg,AFSA10.jpg,AFNE01.jpg,AFNE01.jpg,FN,3,num_4,32,num_6,0.683439450338,,,2017_Aug_02_1545,60.004099338,FEMA4ImagesEEG,001,201088,
AFSA25.JPG,AFNE24.JPG,AFSA24.JPG,AFNE21.JPG,AFSA21.JPG,AFNE25.JPG,,,,,,,,,0,8,8,2,,,,,,,,,,,,,,,AFNE05.jpg,AFSA20.jpg,AFNE12.jpg,AFSA16.jpg,AFSA20.jpg,FS,4,num_6,32,num_4,1.40009827469,,,2017_Aug_02_1545,60.004099338,FEMA4ImagesEEG,001,201088,
AFSA21.JPG,AFNE23.JPG,AFNE21.JPG,AFSA25.JPG,AFNE25.JPG,AFSA23.JPG,,,,,,,,,0,9,9,4,,,,,,,,,,,,,,,AFSA11.jpg,AFNE07.jpg,AFSA19.jpg,AFNE15.jpg,AFNE15.jpg,FN,3,num_4,32,num_6,1.50156505127,,,2017_Aug_02_1545,60.004099338,FEMA4ImagesEEG,001,201088,
AMNE23.JPG,AMNE24.JPG,AMNE22.JPG,AMSA24.JPG,AMSA22.JPG,AMSA23.JPG,,,,,,,,,,,,,0,0,0,9,,,,,,,,,,,AMNE15.jpg,AMNE19.jpg,AMSA13.jpg,AMSA17.jpg,AMSA17.jpg,MS,2,num_4,16,num_4,1.58346283203,,,2017_Aug_02_1545,60.004099338,FEMA4ImagesEEG,001,201088,
AFSA21.JPG,AFNE23.JPG,AFNE21.JPG,AFSA25.JPG,AFNE25.JPG,AFSA23.JPG,,,,,,,,,,,,,0,1,1,4,,,,,,,,,,,AMNE19.jpg,AMNE07.jpg,AMSA08.jpg,AMSA13.jpg,AMSA13.jpg,MS,2,num_4,32,num_2,1.56674681976,,,2017_Aug_02_1545,60.004099338,FEMA4ImagesEEG,001,201088,
AMSA21.JPG,AMNE22.JPG,AMNE21.JPG,AMSA23.JPG,AMSA22.JPG,AMNE23.JPG,,,,,,,,,,,,,0,2,2,1,,,,,,,,,,,AMNE02.jpg,AMNE17.jpg,AMSA08.jpg,AMSA20.jpg,AMSA08.jpg,MS,2,num_2,32,num_8,1.41697946843,,,2017_Aug_02_1545,60.004099338,FEMA4ImagesEEG,001,201088,
AFSA21.JPG,AFNE22.JPG,AFNE21.JPG,AFSA23.JPG,AFSA22.JPG,AFNE23.JPG,,,,,,,,,,,,,0,3,3,0,,,,,,,,,,,AMSA05.jpg,AMNE15.jpg,AMSA18.jpg,AMNE10.jpg,AMNE15.jpg,MN,1,num_6,32,num_4,1.10012961109,,,2017_Aug_02_1545,60.004099338,FEMA4ImagesEEG,001,201088,
AFNE23.JPG,AFNE24.JPG,AFNE22.JPG,AFSA24.JPG,AFSA22.JPG,AFSA23.JPG,,,,,,,,,,,,,0,4,4,8,,,,,,,,,,,AMNE16.jpg,AMSA04.jpg,AMNE11.jpg,AMSA06.jpg,AMSA04.jpg,MS,2,num_6,32,num_4,1.26676853374,,,2017_Aug_02_1545,60.004099338,FEMA4ImagesEEG,001,201088,
AFNE22.JPG,AFSA24.JPG,AFSA22.JPG,AFNE25.JPG,AFNE24.JPG,AFSA25.JPG,,,,,,,,,,,,,0,5,5,6,,,,,,,,,,,AMSA02.jpg,AMNE15.jpg,AMNE12.jpg,AMSA04.jpg,AMNE12.jpg,MN,1,num_2,16,num_2,1.13345162221,,,2017_Aug_02_1545,60.004099338,FEMA4ImagesEEG,001,201088,
AMNE22.JPG,AMSA24.JPG,AMSA22.JPG,AMNE25.JPG,AMNE24.JPG,AMSA25.JPG,,,,,,,,,,,,,0,6,6,7,,,,,,,,,,,AMNE15.jpg,AMSA12.jpg,AMSA19.jpg,AMNE20.jpg,AMSA12.jpg,MS,2,num_6,16,num_6,1.03338391404,,,2017_Aug_02_1545,60.004099338,FEMA4ImagesEEG,001,201088,
AMSA21.JPG,AMNE23.JPG,AMNE21.JPG,AMSA25.JPG,AMNE25.JPG,AMSA23.JPG,,,,,,,,,,,,,0,7,7,5,,,,,,,,,,,AMSA02.jpg,AMSA04.jpg,AMNE08.jpg,AMNE16.jpg,AMNE08.jpg,MN,1,num_2,16,num_2,0.983457828639,,,2017_Aug_02_1545,60.004099338,FEMA4ImagesEEG,001,201088,
AMSA25.JPG,AMNE24.JPG,AMSA24.JPG,AMNE26.JPG,AMSA21.JPG,AMNE25.JPG,,,,,,,,,,,,,0,8,8,3,,,,,,,,,,,AMNE15.jpg,AMSA01.jpg,AMSA07.jpg,AMNE14.jpg,AMNE14.jpg,MN,1,num_4,16,num_4,1.25013847952,,,2017_Aug_02_1545,60.004099338,FEMA4ImagesEEG,001,201088,
AFSA25.JPG,AFNE24.JPG,AFSA24.JPG,AFNE21.JPG,AFSA21.JPG,AFNE25.JPG,,,,,,,,,,,,,0,9,9,2,,,,,,,,,,,AMNE05.jpg,AMSA10.jpg,AMNE14.jpg,AMSA01.jpg,AMSA10.jpg,MS,2,num_6,16,num_6,0.600157354958,,,2017_Aug_02_1545,60.004099338,FEMA4ImagesEEG,001,201088,
AMSA25.JPG,AMNE24.JPG,AMSA24.JPG,AMNE26.JPG,AMSA21.JPG,AMNE25.JPG,,,,,,,,,,,,,,,,,0,0,0,3,,,,,,,AFNE09.jpg,AFSA09.jpg,AFNE05.jpg,AFSA18.jpg,AFSA18.jpg,FS,4,num_4,16,num_4,0.800098082284,,,2017_Aug_02_1545,60.004099338,FEMA4ImagesEEG,001,201088,
AMSA21.JPG,AMNE22.JPG,AMNE21.JPG,AMSA23.JPG,AMSA22.JPG,AMNE23.JPG,,,,,,,,,,,,,,,,,0,1,1,1,,,,,,,AFSA20.jpg,AFSA09.jpg,AFNE05.jpg,AFNE20.jpg,AFNE20.jpg,FN,3,num_4,16,num_4,1.21681743069,,,2017_Aug_02_1545,60.004099338,FEMA4ImagesEEG,001,201088,
AFNE22.JPG,AFSA24.JPG,AFSA22.JPG,AFNE25.JPG,AFNE24.JPG,AFSA25.JPG,,,,,,,,,,,,,,,,,0,2,2,6,,,,,,,AFSA03.jpg,AFSA05.jpg,AFNE20.jpg,AFNE04.jpg,AFNE04.jpg,FN,3,num_4,32,num_2,1.41673923424,,,2017_Aug_02_1545,60.004099338,FEMA4ImagesEEG,001,201088,
AFSA21.JPG,AFNE23.JPG,AFNE21.JPG,AFSA25.JPG,AFNE25.JPG,AFSA23.JPG,,,,,,,,,,,,,,,,,0,3,3,4,,,,,,,AFNE17.jpg,AFNE14.jpg,AFSA15.jpg,AFSA13.jpg,AFSA13.jpg,FS,4,num_4,16,num_4,0.783460330451,,,2017_Aug_02_1545,60.004099338,FEMA4ImagesEEG,001,201088,
AFSA21.JPG,AFNE22.JPG,AFNE21.JPG,AFSA23.JPG,AFSA22.JPG,AFNE23.JPG,,,,,,,,,,,,,,,,,0,4,4,0,,,,,,,AFSA08.jpg,AFNE12.jpg,AFNE04.jpg,AFSA02.jpg,AFSA08.jpg,FS,4,num_8,16,num_8,1.03345319396,,,2017_Aug_02_1545,60.004099338,FEMA4ImagesEEG,001,201088,
AMNE22.JPG,AMSA24.JPG,AMSA22.JPG,AMNE25.JPG,AMNE24.JPG,AMSA25.JPG,,,,,,,,,,,,,,,,,0,5,5,7,,,,,,,AFNE12.jpg,AFNE08.jpg,AFSA17.jpg,AFSA07.jpg,AFSA17.jpg,FS,4,num_2,16,num_2,1.8500860706,,,2017_Aug_02_1545,60.004099338,FEMA4ImagesEEG,001,201088,
AFSA25.JPG,AFNE24.JPG,AFSA24.JPG,AFNE21.JPG,AFSA21.JPG,AFNE25.JPG,,,,,,,,,,,,,,,,,0,6,6,2,,,,,,,AFSA05.jpg,AFNE16.jpg,AFSA04.jpg,AFNE10.jpg,AFSA04.jpg,FS,4,num_2,16,num_2,1.26670310274,,,2017_Aug_02_1545,60.004099338,FEMA4ImagesEEG,001,201088,
AMSA21.JPG,AMNE23.JPG,AMNE21.JPG,AMSA25.JPG,AMNE25.JPG,AMSA23.JPG,,,,,,,,,,,,,,,,,0,7,7,5,,,,,,,AFSA14.jpg,AFNE11.jpg,AFNE15.jpg,AFSA02.jpg,AFSA02.jpg,FS,4,num_4,32,num_6,0.633506949758,,,2017_Aug_02_1545,60.004099338,FEMA4ImagesEEG,001,201088,
AMNE23.JPG,AMNE24.JPG,AMNE22.JPG,AMSA24.JPG,AMSA22.JPG,AMSA23.JPG,,,,,,,,,,,,,,,,,0,8,8,9,,,,,,,AFNE15.jpg,AFSA14.jpg,AFNE09.jpg,AFSA12.jpg,AFNE15.jpg,FN,3,num_8,16,num_8,0.883455230622,,,2017_Aug_02_1545,60.004099338,FEMA4ImagesEEG,001,201088,
AFNE23.JPG,AFNE24.JPG,AFNE22.JPG,AFSA24.JPG,AFSA22.JPG,AFSA23.JPG,,,,,,,,,,,,,,,,,0,9,9,8,,,,,,,AFNE16.jpg,AFSA20.jpg,AFNE20.jpg,AFSA08.jpg,AFNE20.jpg,FN,3,num_2,16,num_2,1.5500692958,,,2017_Aug_02_1545,60.004099338,FEMA4ImagesEEG,001,201088,
AMSA25.JPG,AMNE24.JPG,AMSA24.JPG,AMNE26.JPG,AMSA21.JPG,AMNE25.JPG,,,,,,,,,,,,,,,,,,,,,0,0,0,3,,,AMSA18.jpg,AMSA11.jpg,AMNE05.jpg,AMNE11.jpg,AMSA18.jpg,MS,2,num_8,32,num_6,1.30009311088,,,2017_Aug_02_1545,60.004099338,FEMA4ImagesEEG,001,201088,
AMNE23.JPG,AMNE24.JPG,AMNE22.JPG,AMSA24.JPG,AMSA22.JPG,AMSA23.JPG,,,,,,,,,,,,,,,,,,,,,0,1,1,9,,,AMSA02.jpg,AMNE01.jpg,AMNE07.jpg,AMSA13.jpg,AMNE07.jpg,MN,1,num_2,32,num_8,1.11672727042,,,2017_Aug_02_1545,60.004099338,FEMA4ImagesEEG,001,201088,
AMSA21.JPG,AMNE23.JPG,AMNE21.JPG,AMSA25.JPG,AMNE25.JPG,AMSA23.JPG,,,,,,,,,,,,,,,,,,,,,0,2,2,5,,,AMSA14.jpg,AMSA20.jpg,AMNE18.jpg,AMNE09.jpg,AMNE18.jpg,MN,1,num_2,32,num_4,1.2668253046,,,2017_Aug_02_1545,60.004099338,FEMA4ImagesEEG,001,201088,
AFNE23.JPG,AFNE24.JPG,AFNE22.JPG,AFSA24.JPG,AFSA22.JPG,AFSA23.JPG,,,,,,,,,,,,,,,,,,,,,0,3,3,8,,,AMSA18.jpg,AMSA09.jpg,AMNE08.jpg,AMNE09.jpg,AMNE09.jpg,MN,1,num_4,16,num_4,0.916788788512,,,2017_Aug_02_1545,60.004099338,FEMA4ImagesEEG,001,201088,
AFSA21.JPG,AFNE22.JPG,AFNE21.JPG,AFSA23.JPG,AFSA22.JPG,AFNE23.JPG,,,,,,,,,,,,,,,,,,,,,0,4,4,0,,,AMSA18.jpg,AMNE20.jpg,AMSA08.jpg,AMNE16.jpg,AMNE20.jpg,MN,1,num_6,16,num_6,0.733484209515,,,2017_Aug_02_1545,60.004099338,FEMA4ImagesEEG,001,201088,
AFNE22.JPG,AFSA24.JPG,AFSA22.JPG,AFNE25.JPG,AFNE24.JPG,AFSA25.JPG,,,,,,,,,,,,,,,,,,,,,0,5,5,6,,,AMSA14.jpg,AMNE18.jpg,AMNE08.jpg,AMSA18.jpg,AMNE18.jpg,MN,1,num_6,32,num_2,1.35014909599,,,2017_Aug_02_1545,60.004099338,FEMA4ImagesEEG,001,201088,
AMNE22.JPG,AMSA24.JPG,AMSA22.JPG,AMNE25.JPG,AMNE24.JPG,AMSA25.JPG,,,,,,,,,,,,,,,,,,,,,0,6,6,7,,,AMNE05.jpg,AMNE12.jpg,AMSA09.jpg,AMSA01.jpg,AMSA09.jpg,MS,2,num_2,32,num_6,1.48340538773,,,2017_Aug_02_1545,60.004099338,FEMA4ImagesEEG,001,201088,
AFSA21.JPG,AFNE23.JPG,AFNE21.JPG,AFSA25.JPG,AFNE25.JPG,AFSA23.JPG,,,,,,,,,,,,,,,,,,,,,0,7,7,4,,,AMNE12.jpg,AMNE09.jpg,AMSA15.jpg,AMSA01.jpg,AMSA15.jpg,MS,2,num_2,16,num_2,0.966750155203,,,2017_Aug_02_1545,60.004099338,FEMA4ImagesEEG,001,201088,
AMSA21.JPG,AMNE22.JPG,AMNE21.JPG,AMSA23.JPG,AMSA22.JPG,AMNE23.JPG,,,,,,,,,,,,,,,,,,,,,0,8,8,1,,,AMSA09.jpg,AMNE01.jpg,AMSA16.jpg,AMNE12.jpg,AMSA09.jpg,MS,2,num_8,16,num_8,1.28342553019,,,2017_Aug_02_1545,60.004099338,FEMA4ImagesEEG,001,201088,
AFSA25.JPG,AFNE24.JPG,AFSA24.JPG,AFNE21.JPG,AFSA21.JPG,AFNE25.JPG,,,,,,,,,,,,,,,,,,,,,0,9,9,2,,,AMNE05.jpg,AMSA17.jpg,AMNE15.jpg,AMSA16.jpg,AMSA17.jpg,MS,2,num_6,16,num_6,1.2334769927,,,2017_Aug_02_1545,60.004099338,FEMA4ImagesEEG,001,201088,
,,,,,,,,,,,,,,,,,,,,,,,,,,,,,,,,,,,,,,,,,,,space,7.51624147757,2017_Aug_02_1545,60.004099338,FEMA4ImagesEEG,001,201088,
AFNE01.JPG,AFNE01.JPG,AFNE01.JPG,AFNE01.JPG,AFNE01.JPG,AFNE01.JPG,0,0,0,8,,,,,,,,,,,,,,,,,,,,,,,AFNE19.jpg,AFSA05.jpg,AFSA06.jpg,AFNE09.jpg,AFNE09.jpg,FN,3,num_4,16,num_4,0.950114969164,,,2017_Aug_02_1545,60.004099338,FEMA4ImagesEEG,001,201088,
AFNE01.JPG,AFNE01.JPG,AFNE01.JPG,AFNE01.JPG,AFNE01.JPG,AFNE01.JPG,0,1,1,5,,,,,,,,,,,,,,,,,,,,,,,AFNE02.jpg,AFNE17.jpg,AFSA05.jpg,AFSA08.jpg,AFNE17.jpg,FN,3,num_6,16,num_6,0.833469808102,,,2017_Aug_02_1545,60.004099338,FEMA4ImagesEEG,001,201088,
AFNE01.JPG,AFNE01.JPG,AFNE01.JPG,AFNE01.JPG,AFNE01.JPG,AFNE01.JPG,0,2,2,3,,,,,,,,,,,,,,,,,,,,,,,AFSA16.jpg,AFSA07.jpg,AFNE02.jpg,AFNE04.jpg,AFNE02.jpg,FN,3,num_2,16,num_2,0.966878772015,,,2017_Aug_02_1545,60.004099338,FEMA4ImagesEEG,001,201088,
AFNE01.JPG,AFNE01.JPG,AFNE01.JPG,AFNE01.JPG,AFNE01.JPG,AFNE01.JPG,0,3,3,0,,,,,,,,,,,,,,,,,,,,,,,AFSA07.jpg,AFNE04.jpg,AFNE09.jpg,AFSA01.jpg,AFNE09.jpg,FN,3,num_2,32,num_6,1.25011731079,,,2017_Aug_02_1545,60.004099338,FEMA4ImagesEEG,001,201088,
AFNE01.JPG,AFNE01.JPG,AFNE01.JPG,AFNE01.JPG,AFNE01.JPG,AFNE01.JPG,0,4,4,6,,,,,,,,,,,,,,,,,,,,,,,AFNE03.jpg,AFNE04.jpg,AFSA15.jpg,AFSA07.jpg,AFSA15.jpg,FS,4,num_2,16,num_2,1.05012526503,,,2017_Aug_02_1545,60.004099338,FEMA4ImagesEEG,001,201088,
AFNE01.JPG,AFNE01.JPG,AFNE01.JPG,AFNE01.JPG,AFNE01.JPG,AFNE01.JPG,0,5,5,9,,,,,,,,,,,,,,,,,,,,,,,AFSA12.jpg,AFNE03.jpg,AFNE14.jpg,AFSA04.jpg,AFSA04.jpg,FS,4,num_4,16,num_4,1.05011949176,,,2017_Aug_02_1545,60.004099338,FEMA4ImagesEEG,001,201088,
AFNE01.JPG,AFNE01.JPG,AFNE01.JPG,AFNE01.JPG,AFNE01.JPG,AFNE01.JPG,0,6,6,2,,,,,,,,,,,,,,,,,,,,,,,AFNE10.jpg,AFSA07.jpg,AFSA08.jpg,AFNE12.jpg,AFNE10.jpg,FN,3,num_8,16,num_8,1.25008202926,,,2017_Aug_02_1545,60.004099338,FEMA4ImagesEEG,001,201088,
AFNE01.JPG,AFNE01.JPG,AFNE01.JPG,AFNE01.JPG,AFNE01.JPG,AFNE01.JPG,0,7,7,1,,,,,,,,,,,,,,,,,,,,,,,AFNE05.jpg,AFSA17.jpg,AFNE16.jpg,AFSA18.jpg,AFNE05.jpg,FN,3,num_8,32,num_6,1.7666750378,,,2017_Aug_02_1545,60.004099338,FEMA4ImagesEEG,001,201088,
AFNE01.JPG,AFNE01.JPG,AFNE01.JPG,AFNE01.JPG,AFNE01.JPG,AFNE01.JPG,0,8,8,4,,,,,,,,,,,,,,,,,,,,,,,AFNE11.jpg,AFNE17.jpg,AFSA15.jpg,AFSA01.jpg,AFSA15.jpg,FS,4,num_2,16,num_2,0.550174177857,,,2017_Aug_02_1545,60.004099338,FEMA4ImagesEEG,001,201088,
AFNE01.JPG,AFNE01.JPG,AFNE01.JPG,AFNE01.JPG,AFNE01.JPG,AFNE01.JPG,0,9,9,7,,,,,,,,,,,,,,,,,,,,,,,AFNE09.jpg,AFSA03.jpg,AFSA06.jpg,AFNE15.jpg,AFNE15.jpg,FN,3,num_4,16,num_4,0.733569526346,,,2017_Aug_02_1545,60.004099338,FEMA4ImagesEEG,001,201088,
AFNE01.JPG,AFNE01.JPG,AFNE01.JPG,AFNE01.JPG,AFNE01.JPG,AFNE01.JPG,1,0,10,0,,,,,,,,,,,,,,,,,,,,,,,AFSA01.jpg,AFSA03.jpg,AFNE11.jpg,AFNE14.jpg,AFSA01.jpg,FS,4,num_8,32,num_2,1.11676543858,,,2017_Aug_02_1545,60.004099338,FEMA4ImagesEEG,001,201088,
AFNE01.JPG,AFNE01.JPG,AFNE01.JPG,AFNE01.JPG,AFNE01.JPG,AFNE01.JPG,1,1,11,5,,,,,,,,,,,,,,,,,,,,,,,AFSA07.jpg,AFSA03.jpg,AFNE19.jpg,AFNE14.jpg,AFSA03.jpg,FS,4,num_6,16,num_6,0.683574802475,,,2017_Aug_02_1545,60.004099338,FEMA4ImagesEEG,001,201088,
AFNE01.JPG,AFNE01.JPG,AFNE01.JPG,AFNE01.JPG,AFNE01.JPG,AFNE01.JPG,1,2,12,2,,,,,,,,,,,,,,,,,,,,,,,AFNE18.jpg,AFNE11.jpg,AFSA13.jpg,AFSA16.jpg,AFNE18.jpg,FN,3,num_8,32,num_6,0.900134358089,,,2017_Aug_02_1545,60.004099338,FEMA4ImagesEEG,001,201088,
AFNE01.JPG,AFNE01.JPG,AFNE01.JPG,AFNE01.JPG,AFNE01.JPG,AFNE01.JPG,1,3,13,6,,,,,,,,,,,,,,,,,,,,,,,AFNE06.jpg,AFNE05.jpg,AFSA03.jpg,AFSA09.jpg,AFNE06.jpg,FN,3,num_8,16,num_8,0.616661037784,,,2017_Aug_02_1545,60.004099338,FEMA4ImagesEEG,001,201088,
AFNE01.JPG,AFNE01.JPG,AFNE01.JPG,AFNE01.JPG,AFNE01.JPG,AFNE01.JPG,1,4,14,1,,,,,,,,,,,,,,,,,,,,,,,AFSA17.jpg,AFNE04.jpg,AFSA14.jpg,AFNE02.jpg,AFNE04.jpg,FN,3,num_6,16,num_6,0.7001211436,,,2017_Aug_02_1545,60.004099338,FEMA4ImagesEEG,001,201088,
AFNE01.JPG,AFNE01.JPG,AFNE01.JPG,AFNE01.JPG,AFNE01.JPG,AFNE01.JPG,1,5,15,9,,,,,,,,,,,,,,,,,,,,,,,AFSA07.jpg,AFSA05.jpg,AFNE20.jpg,AFNE01.jpg,AFNE01.jpg,FN,3,num_4,32,num_2,1.10010940442,,,2017_Aug_02_1545,60.004099338,FEMA4ImagesEEG,001,201088,
AFNE01.JPG,AFNE01.JPG,AFNE01.JPG,AFNE01.JPG,AFNE01.JPG,AFNE01.JPG,1,6,16,7,,,,,,,,,,,,,,,,,,,,,,,AFNE07.jpg,AFSA14.jpg,AFSA03.jpg,AFNE17.jpg,AFNE07.jpg,FN,3,num_8,16,num_8,0.983527108328,,,2017_Aug_02_1545,60.004099338,FEMA4ImagesEEG,001,201088,
AFNE01.JPG,AFNE01.JPG,AFNE01.JPG,AFNE01.JPG,AFNE01.JPG,AFNE01.JPG,1,7,17,8,,,,,,,,,,,,,,,,,,,,,,,AFSA16.jpg,AFNE02.jpg,AFNE06.jpg,AFSA06.jpg,AFSA06.jpg,FS,4,num_4,32,num_8,1.2167356417,,,2017_Aug_02_1545,60.004099338,FEMA4ImagesEEG,001,201088,
AFNE01.JPG,AFNE01.JPG,AFNE01.JPG,AFNE01.JPG,AFNE01.JPG,AFNE01.JPG,1,8,18,4,,,,,,,,,,,,,,,,,,,,,,,AFNE02.jpg,AFSA20.jpg,AFSA19.jpg,AFNE08.jpg,AFNE02.jpg,FN,3,num_8,16,num_8,1.31671418413,,,2017_Aug_02_1545,60.004099338,FEMA4ImagesEEG,001,201088,
AFNE01.JPG,AFNE01.JPG,AFNE01.JPG,AFNE01.JPG,AFNE01.JPG,AFNE01.JPG,1,9,19,3,,,,,,,,,,,,,,,,,,,,,,,AFNE08.jpg,AFNE16.jpg,AFSA18.jpg,AFSA07.jpg,AFNE16.jpg,FN,3,num_6,16,num_6,0.883513926063,,,2017_Aug_02_1545,60.004099338,FEMA4ImagesEEG,001,201088,
AFNE01.JPG,AFNE01.JPG,AFNE01.JPG,AFNE01.JPG,AFNE01.JPG,AFNE01.JPG,2,0,20,8,,,,,,,,,,,,,,,,,,,,,,,AFSA07.jpg,AFNE08.jpg,AFSA12.jpg,AFNE05.jpg,AFNE05.jpg,FN,3,num_4,32,num_8,1.166721032,,,2017_Aug_02_1545,60.004099338,FEMA4ImagesEEG,001,201088,
AFNE01.JPG,AFNE01.JPG,AFNE01.JPG,AFNE01.JPG,AFNE01.JPG,AFNE01.JPG,2,1,21,3,,,,,,,,,,,,,,,,,,,,,,,AFNE07.jpg,AFSA20.jpg,AFSA06.jpg,AFNE16.jpg,AFNE16.jpg,FN,3,num_4,32,num_8,0.750134470174,,,2017_Aug_02_1545,60.004099338,FEMA4ImagesEEG,001,201088,
AFNE01.JPG,AFNE01.JPG,AFNE01.JPG,AFNE01.JPG,AFNE01.JPG,AFNE01.JPG,2,2,22,9,,,,,,,,,,,,,,,,,,,,,,,AFSA03.jpg,AFNE11.jpg,AFNE19.jpg,AFSA19.jpg,AFNE19.jpg,FN,3,num_2,32,num_4,1.23342118412,,,2017_Aug_02_1545,60.004099338,FEMA4ImagesEEG,001,201088,
AFNE01.JPG,AFNE01.JPG,AFNE01.JPG,AFNE01.JPG,AFNE01.JPG,AFNE01.JPG,2,3,23,2,,,,,,,,,,,,,,,,,,,,,,,AFSA16.jpg,AFNE15.jpg,AFSA10.jpg,AFNE02.jpg,AFSA10.jpg,FS,4,num_2,32,num_6,1.48352726875,,,2017_Aug_02_1545,60.004099338,FEMA4ImagesEEG,001,201088,
AFNE01.JPG,AFNE01.JPG,AFNE01.JPG,AFNE01.JPG,AFNE01.JPG,AFNE01.JPG,2,4,24,1,,,,,,,,,,,,,,,,,,,,,,,AFNE11.jpg,AFSA03.jpg,AFSA10.jpg,AFNE03.jpg,AFSA03.jpg,FS,4,num_6,16,num_6,0.900120245526,,,2017_Aug_02_1545,60.004099338,FEMA4ImagesEEG,001,201088,
AFNE01.JPG,AFNE01.JPG,AFNE01.JPG,AFNE01.JPG,AFNE01.JPG,AFNE01.JPG,2,5,25,4,,,,,,,,,,,,,,,,,,,,,,,AFNE18.jpg,AFSA17.jpg,AFSA01.jpg,AFNE11.jpg,AFSA17.jpg,FS,4,num_6,32,num_2,0.816794850398,,,2017_Aug_02_1545,60.004099338,FEMA4ImagesEEG,001,201088,
AFNE01.JPG,AFNE01.JPG,AFNE01.JPG,AFNE01.JPG,AFNE01.JPG,AFNE01.JPG,2,6,26,5,,,,,,,,,,,,,,,,,,,,,,,AFNE07.jpg,AFSA17.jpg,AFNE09.jpg,AFSA11.jpg,AFSA17.jpg,FS,4,num_6,32,num_4,1.00000224519,,,2017_Aug_02_1545,60.004099338,FEMA4ImagesEEG,001,201088,
AFNE01.JPG,AFNE01.JPG,AFNE01.JPG,AFNE01.JPG,AFNE01.JPG,AFNE01.JPG,2,7,27,6,,,,,,,,,,,,,,,,,,,,,,,AFSA15.jpg,AFNE03.jpg,AFNE04.jpg,AFSA16.jpg,AFSA16.jpg,FS,4,num_4,16,num_4,1.00007152511,,,2017_Aug_02_1545,60.004099338,FEMA4ImagesEEG,001,201088,
AFNE01.JPG,AFNE01.JPG,AFNE01.JPG,AFNE01.JPG,AFNE01.JPG,AFNE01.JPG,2,8,28,0,,,,,,,,,,,,,,,,,,,,,,,AFSA05.jpg,AFNE11.jpg,AFNE06.jpg,AFSA11.jpg,AFNE11.jpg,FN,3,num_6,16,num_6,1.30009599752,,,2017_Aug_02_1545,60.004099338,FEMA4ImagesEEG,001,201088,
AFNE01.JPG,AFNE01.JPG,AFNE01.JPG,AFNE01.JPG,AFNE01.JPG,AFNE01.JPG,2,9,29,7,,,,,,,,,,,,,,,,,,,,,,,AFNE20.jpg,AFNE10.jpg,AFSA07.jpg,AFSA08.jpg,AFNE20.jpg,FN,3,num_8,16,num_8,1.31672027847,,,2017_Aug_02_1545,60.004099338,FEMA4ImagesEEG,001,201088,
AFNE01.JPG,AFNE01.JPG,AFNE01.JPG,AFNE01.JPG,AFNE01.JPG,AFNE01.JPG,3,0,30,4,,,,,,,,,,,,,,,,,,,,,,,AFSA12.jpg,AFSA20.jpg,AFNE10.jpg,AFNE03.jpg,AFNE03.jpg,FN,3,num_4,32,num_8,1.28342937888,,,2017_Aug_02_1545,60.004099338,FEMA4ImagesEEG,001,201088,
AFNE01.JPG,AFNE01.JPG,AFNE01.JPG,AFNE01.JPG,AFNE01.JPG,AFNE01.JPG,3,1,31,3,,,,,,,,,,,,,,,,,,,,,,,AFSA07.jpg,AFSA05.jpg,AFNE05.jpg,AFNE06.jpg,AFSA05.jpg,FS,4,num_6,16,num_6,1.5667099345,,,2017_Aug_02_1545,60.004099338,FEMA4ImagesEEG,001,201088,
AFNE01.JPG,AFNE01.JPG,AFNE01.JPG,AFNE01.JPG,AFNE01.JPG,AFNE01.JPG,3,2,32,5,,,,,,,,,,,,,,,,,,,,,,,AFNE14.jpg,AFNE07.jpg,AFSA04.jpg,AFSA02.jpg,AFNE14.jpg,FN,3,num_8,32,num_6,0.783448783914,,,2017_Aug_02_1545,60.004099338,FEMA4ImagesEEG,001,201088,
AFNE01.JPG,AFNE01.JPG,AFNE01.JPG,AFNE01.JPG,AFNE01.JPG,AFNE01.JPG,3,3,33,6,,,,,,,,,,,,,,,,,,,,,,,AFSA18.jpg,AFNE14.jpg,AFNE11.jpg,AFSA08.jpg,AFNE14.jpg,FN,3,num_6,16,num_6,0.81672974024,,,2017_Aug_02_1545,60.004099338,FEMA4ImagesEEG,001,201088,
AFNE01.JPG,AFNE01.JPG,AFNE01.JPG,AFNE01.JPG,AFNE01.JPG,AFNE01.JPG,3,4,34,7,,,,,,,,,,,,,,,,,,,,,,,AFNE16.jpg,AFNE03.jpg,AFSA04.jpg,AFSA06.jpg,AFSA06.jpg,FS,4,num_4,32,num_2,0.766780240694,,,2017_Aug_02_1545,60.004099338,FEMA4ImagesEEG,001,201088,
AFNE01.JPG,AFNE01.JPG,AFNE01.JPG,AFNE01.JPG,AFNE01.JPG,AFNE01.JPG,3,5,35,1,,,,,,,,,,,,,,,,,,,,,,,AFSA06.jpg,AFNE03.jpg,AFSA08.jpg,AFNE11.jpg,AFSA06.jpg,FS,4,num_8,16,num_8,0.967122534523,,,2017_Aug_02_1545,60.004099338,FEMA4ImagesEEG,001,201088,
AFNE01.JPG,AFNE01.JPG,AFNE01.JPG,AFNE01.JPG,AFNE01.JPG,AFNE01.JPG,3,6,36,8,,,,,,,,,,,,,,,,,,,,,,,AFNE16.jpg,AFNE14.jpg,AFSA05.jpg,AFSA04.jpg,AFSA04.jpg,FS,4,num_4,16,num_4,1.03343362873,,,2017_Aug_02_1545,60.004099338,FEMA4ImagesEEG,001,201088,
AFNE01.JPG,AFNE01.JPG,AFNE01.JPG,AFNE01.JPG,AFNE01.JPG,AFNE01.JPG,3,7,37,0,,,,,,,,,,,,,,,,,,,,,,,AFSA11.jpg,AFNE08.jpg,AFSA03.jpg,AFNE18.jpg,AFNE18.jpg,FN,3,num_4,32,num_6,0.850106597878,,,2017_Aug_02_1545,60.004099338,FEMA4ImagesEEG,001,201088,
AFNE01.JPG,AFNE01.JPG,AFNE01.JPG,AFNE01.JPG,AFNE01.JPG,AFNE01.JPG,3,8,38,9,,,,,,,,,,,,,,,,,,,,,,,AFSA03.jpg,AFNE12.jpg,AFSA09.jpg,AFNE20.jpg,AFNE12.jpg,FN,3,num_6,16,num_6,3.34992137062,,,2017_Aug_02_1545,60.004099338,FEMA4ImagesEEG,001,201088,
AFNE01.JPG,AFNE01.JPG,AFNE01.JPG,AFNE01.JPG,AFNE01.JPG,AFNE01.JPG,3,9,39,2,,,,,,,,,,,,,,,,,,,,,,,AFNE11.jpg,AFSA06.jpg,AFSA20.jpg,AFNE16.jpg,AFSA20.jpg,FS,4,num_2,32,num_8,1.40005080518,,,2017_Aug_02_1545,60.004099338,FEMA4ImagesEEG,001,201088,
AFNE01.JPG,AFNE01.JPG,AFNE01.JPG,AFNE01.JPG,AFNE01.JPG,AFNE01.JPG,4,0,40,7,,,,,,,,,,,,,,,,,,,,,,,AFSA09.jpg,AFSA04.jpg,AFNE15.jpg,AFNE09.jpg,AFSA09.jpg,FS,4,num_8,32,num_4,1.65006098873,,,2017_Aug_02_1545,60.004099338,FEMA4ImagesEEG,001,201088,
AFNE01.JPG,AFNE01.JPG,AFNE01.JPG,AFNE01.JPG,AFNE01.JPG,AFNE01.JPG,4,1,41,2,,,,,,,,,,,,,,,,,,,,,,,AFSA20.jpg,AFNE09.jpg,AFSA07.jpg,AFNE15.jpg,AFSA07.jpg,FS,4,num_2,32,num_8,1.06677616737,,,2017_Aug_02_1545,60.004099338,FEMA4ImagesEEG,001,201088,
AFNE01.JPG,AFNE01.JPG,AFNE01.JPG,AFNE01.JPG,AFNE01.JPG,AFNE01.JPG,4,2,42,1,,,,,,,,,,,,,,,,,,,,,,,AFNE10.jpg,AFNE16.jpg,AFSA18.jpg,AFSA19.jpg,AFNE16.jpg,FN,3,num_6,16,num_6,1.08338858071,,,2017_Aug_02_1545,60.004099338,FEMA4ImagesEEG,001,201088,
AFNE01.JPG,AFNE01.JPG,AFNE01.JPG,AFNE01.JPG,AFNE01.JPG,AFNE01.JPG,4,3,43,9,,,,,,,,,,,,,,,,,,,,,,,AFSA20.jpg,AFNE15.jpg,AFSA04.jpg,AFNE18.jpg,AFSA04.jpg,FS,4,num_2,32,num_4,1.25013366854,,,2017_Aug_02_1545,60.004099338,FEMA4ImagesEEG,001,201088,
AFNE01.JPG,AFNE01.JPG,AFNE01.JPG,AFNE01.JPG,AFNE01.JPG,AFNE01.JPG,4,4,44,6,,,,,,,,,,,,,,,,,,,,,,,AFNE17.jpg,AFNE08.jpg,AFSA17.jpg,AFSA11.jpg,AFSA11.jpg,FS,4,num_4,16,num_4,1.10008759424,,,2017_Aug_02_1545,60.004099338,FEMA4ImagesEEG,001,201088,
AFNE01.JPG,AFNE01.JPG,AFNE01.JPG,AFNE01.JPG,AFNE01.JPG,AFNE01.JPG,4,5,45,5,,,,,,,,,,,,,,,,,,,,,,,AFNE01.jpg,AFSA06.jpg,AFSA16.jpg,AFNE19.jpg,AFSA16.jpg,FS,4,num_2,32,num_8,1.18344698753,,,2017_Aug_02_1545,60.004099338,FEMA4ImagesEEG,001,201088,
AFNE01.JPG,AFNE01.JPG,AFNE01.JPG,AFNE01.JPG,AFNE01.JPG,AFNE01.JPG,4,6,46,3,,,,,,,,,,,,,,,,,,,,,,,AFSA03.jpg,AFNE09.jpg,AFSA04.jpg,AFNE10.jpg,AFNE09.jpg,FN,3,num_6,16,num_6,0.983484129421,,,2017_Aug_02_1545,60.004099338,FEMA4ImagesEEG,001,201088,
AFNE01.JPG,AFNE01.JPG,AFNE01.JPG,AFNE01.JPG,AFNE01.JPG,AFNE01.JPG,4,7,47,4,,,,,,,,,,,,,,,,,,,,,,,AFSA18.jpg,AFNE08.jpg,AFSA06.jpg,AFNE18.jpg,AFSA18.jpg,FS,4,num_8,16,num_8,0.916727206204,,,2017_Aug_02_1545,60.004099338,FEMA4ImagesEEG,001,201088,
AFNE01.JPG,AFNE01.JPG,AFNE01.JPG,AFNE01.JPG,AFNE01.JPG,AFNE01.JPG,4,8,48,8,,,,,,,,,,,,,,,,,,,,,,,AFNE14.jpg,AFNE12.jpg,AFSA13.jpg,AFSA10.jpg,AFSA13.jpg,FS,4,num_2,16,num_2,1.1835823399,,,2017_Aug_02_1545,60.004099338,FEMA4ImagesEEG,001,201088,
AFNE01.JPG,AFNE01.JPG,AFNE01.JPG,AFNE01.JPG,AFNE01.JPG,AFNE01.JPG,4,9,49,0,,,,,,,,,,,,,,,,,,,,,,,AFNE15.jpg,AFSA19.jpg,AFNE03.jpg,AFSA14.jpg,AFNE15.jpg,FN,3,num_8,16,num_8,1.13342179335,,,2017_Aug_02_1545,60.004099338,FEMA4ImagesEEG,001,201088,
AFNE01.JPG,AFNE01.JPG,AFNE01.JPG,AFNE01.JPG,AFNE01.JPG,AFNE01.JPG,5,0,50,6,,,,,,,,,,,,,,,,,,,,,,,AFNE14.jpg,AFNE19.jpg,AFSA12.jpg,AFSA16.jpg,AFSA16.jpg,FS,4,num_4,16,num_4,1.08344631409,,,2017_Aug_02_1545,60.004099338,FEMA4ImagesEEG,001,201088,
AFNE01.JPG,AFNE01.JPG,AFNE01.JPG,AFNE01.JPG,AFNE01.JPG,AFNE01.JPG,5,1,51,5,,,,,,,,,,,,,,,,,,,,,,,AFNE08.jpg,AFNE05.jpg,AFSA14.jpg,AFSA09.jpg,AFNE08.jpg,FN,3,num_8,16,num_8,0.86640115804,,,2017_Aug_02_1545,60.004099338,FEMA4ImagesEEG,001,201088,
AFNE01.JPG,AFNE01.JPG,AFNE01.JPG,AFNE01.JPG,AFNE01.JPG,AFNE01.JPG,5,2,52,8,,,,,,,,,,,,,,,,,,,,,,,AFNE12.jpg,AFNE08.jpg,AFSA17.jpg,AFSA14.jpg,AFNE12.jpg,FN,3,num_8,16,num_8,1.00012733368,,,2017_Aug_02_1545,60.004099338,FEMA4ImagesEEG,001,201088,
AFNE01.JPG,AFNE01.JPG,AFNE01.JPG,AFNE01.JPG,AFNE01.JPG,AFNE01.JPG,5,3,53,9,,,,,,,,,,,,,,,,,,,,,,,AFSA15.jpg,AFNE19.jpg,AFSA11.jpg,AFNE03.jpg,AFNE03.jpg,FN,3,num_4,32,num_2,1.1336020492,,,2017_Aug_02_1545,60.004099338,FEMA4ImagesEEG,001,201088,
AFNE01.JPG,AFNE01.JPG,AFNE01.JPG,AFNE01.JPG,AFNE01.JPG,AFNE01.JPG,5,4,54,7,,,,,,,,,,,,,,,,,,,,,,,AFNE06.jpg,AFSA01.jpg,AFSA15.jpg,AFNE01.jpg,AFNE06.jpg,FN,3,num_8,16,num_8,1.0335106065,,,2017_Aug_02_1545,60.004099338,FEMA4ImagesEEG,001,201088,
AFNE01.JPG,AFNE01.JPG,AFNE01.JPG,AFNE01.JPG,AFNE01.JPG,AFNE01.JPG,5,5,55,4,,,,,,,,,,,,,,,,,,,,,,,AFSA09.jpg,AFSA12.jpg,AFNE16.jpg,AFNE18.jpg,AFSA12.jpg,FS,4,num_6,32,num_2,1.29998181411,,,2017_Aug_02_1545,60.004099338,FEMA4ImagesEEG,001,201088,
AFNE01.JPG,AFNE01.JPG,AFNE01.JPG,AFNE01.JPG,AFNE01.JPG,AFNE01.JPG,5,6,56,3,,,,,,,,,,,,,,,,,,,,,,,AFNE04.jpg,AFSA08.jpg,AFSA11.jpg,AFNE08.jpg,AFSA11.jpg,FS,4,num_2,16,num_2,1.51709881565,,,2017_Aug_02_1545,60.004099338,FEMA4ImagesEEG,001,201088,
AFNE01.JPG,AFNE01.JPG,AFNE01.JPG,AFNE01.JPG,AFNE01.JPG,AFNE01.JPG,5,7,57,2,,,,,,,,,,,,,,,,,,,,,,,AFNE04.jpg,AFSA05.jpg,AFNE01.jpg,AFSA20.jpg,AFNE01.jpg,FN,3,num_2,16,num_2,0.850006527035,,,2017_Aug_02_1545,60.004099338,FEMA4ImagesEEG,001,201088,
AFNE01.JPG,AFNE01.JPG,AFNE01.JPG,AFNE01.JPG,AFNE01.JPG,AFNE01.JPG,5,8,58,1,,,,,,,,,,,,,,,,,,,,,,,AFNE03.jpg,AFSA09.jpg,AFSA07.jpg,AFNE19.jpg,AFNE03.jpg,FN,3,num_8,16,num_8,0.933401843533,,,2017_Aug_02_1545,60.004099338,FEMA4ImagesEEG,001,201088,
AFNE01.JPG,AFNE01.JPG,AFNE01.JPG,AFNE01.JPG,AFNE01.JPG,AFNE01.JPG,5,9,59,0,,,,,,,,,,,,,,,,,,,,,,,AFNE18.jpg,AFSA09.jpg,AFSA16.jpg,AFNE12.jpg,AFSA16.jpg,FS,4,num_2,32,num_6,1.25009261374,,,2017_Aug_02_1545,60.004099338,FEMA4ImagesEEG,001,201088,
,,,,,,,,,,,,,,,,,,,,,,,,,,,,,,,,,,,,,,,,,,,space,55.3959684251,2017_Aug_02_1545,60.004099338,FEMA4ImagesEEG,001,201088,
AFNE01.JPG,AFNE01.JPG,AFNE01.JPG,AFNE01.JPG,AFNE01.JPG,AFNE01.JPG,,,,,0,0,0,9,,,,,,,,,,,,,,,,,,,AMSA15.jpg,AMNE16.jpg,AMNE15.jpg,AMSA20.jpg,AMNE15.jpg,MN,1,num_2,32,num_8,0.950122346403,,,2017_Aug_02_1545,60.004099338,FEMA4ImagesEEG,001,201088,
AFNE01.JPG,AFNE01.JPG,AFNE01.JPG,AFNE01.JPG,AFNE01.JPG,AFNE01.JPG,,,,,0,1,1,6,,,,,,,,,,,,,,,,,,,AMSA18.jpg,AMNE05.jpg,AMSA17.jpg,AMNE14.jpg,AMNE14.jpg,MN,1,num_4,16,num_4,1.26671304577,,,2017_Aug_02_1545,60.004099338,FEMA4ImagesEEG,001,201088,
AFNE01.JPG,AFNE01.JPG,AFNE01.JPG,AFNE01.JPG,AFNE01.JPG,AFNE01.JPG,,,,,0,2,2,1,,,,,,,,,,,,,,,,,,,AMNE19.jpg,AMNE20.jpg,AMSA06.jpg,AMSA04.jpg,AMSA04.jpg,MS,2,num_4,16,num_4,1.0834552946,,,2017_Aug_02_1545,60.004099338,FEMA4ImagesEEG,001,201088,
AFNE01.JPG,AFNE01.JPG,AFNE01.JPG,AFNE01.JPG,AFNE01.JPG,AFNE01.JPG,,,,,0,3,3,5,,,,,,,,,,,,,,,,,,,AMNE07.jpg,AMSA13.jpg,AMNE18.jpg,AMSA20.jpg,AMNE18.jpg,MN,1,num_2,16,num_2,0.666781812441,,,2017_Aug_02_1545,60.004099338,FEMA4ImagesEEG,001,201088,
AFNE01.JPG,AFNE01.JPG,AFNE01.JPG,AFNE01.JPG,AFNE01.JPG,AFNE01.JPG,,,,,0,4,4,0,,,,,,,,,,,,,,,,,,,AMNE07.jpg,AMSA05.jpg,AMNE16.jpg,AMSA18.jpg,AMSA18.jpg,MS,2,num_4,16,num_4,1.18341202685,,,2017_Aug_02_1545,60.004099338,FEMA4ImagesEEG,001,201088,
AFNE01.JPG,AFNE01.JPG,AFNE01.JPG,AFNE01.JPG,AFNE01.JPG,AFNE01.JPG,,,,,0,5,5,3,,,,,,,,,,,,,,,,,,,AMSA03.jpg,AMNE20.jpg,AMNE04.jpg,AMSA15.jpg,AMNE04.jpg,MN,1,num_2,16,num_2,1.16674540844,,,2017_Aug_02_1545,60.004099338,FEMA4ImagesEEG,001,201088,
AFNE01.JPG,AFNE01.JPG,AFNE01.JPG,AFNE01.JPG,AFNE01.JPG,AFNE01.JPG,,,,,0,6,6,8,,,,,,,,,,,,,,,,,,,AMSA07.jpg,AMNE19.jpg,AMNE06.jpg,AMSA16.jpg,AMNE19.jpg,MN,1,num_6,16,num_6,1.05020160112,,,2017_Aug_02_1545,60.004099338,FEMA4ImagesEEG,001,201088,
AFNE01.JPG,AFNE01.JPG,AFNE01.JPG,AFNE01.JPG,AFNE01.JPG,AFNE01.JPG,,,,,0,7,7,7,,,,,,,,,,,,,,,,,,,AMSA14.jpg,AMSA17.jpg,AMNE02.jpg,AMNE12.jpg,AMNE02.jpg,MN,1,num_2,32,num_4,1.6001079611,,,2017_Aug_02_1545,60.004099338,FEMA4ImagesEEG,001,201088,
AFNE01.JPG,AFNE01.JPG,AFNE01.JPG,AFNE01.JPG,AFNE01.JPG,AFNE01.JPG,,,,,0,8,8,2,,,,,,,,,,,,,,,,,,,AMNE04.jpg,AMSA08.jpg,AMSA07.jpg,AMNE14.jpg,AMSA08.jpg,MS,2,num_6,32,num_8,1.266739988,,,2017_Aug_02_1545,60.004099338,FEMA4ImagesEEG,001,201088,
AFNE01.JPG,AFNE01.JPG,AFNE01.JPG,AFNE01.JPG,AFNE01.JPG,AFNE01.JPG,,,,,0,9,9,4,,,,,,,,,,,,,,,,,,,AMSA20.jpg,AMNE02.jpg,AMSA08.jpg,AMNE18.jpg,AMSA20.jpg,MS,2,num_8,16,num_8,1.11673977948,,,2017_Aug_02_1545,60.004099338,FEMA4ImagesEEG,001,201088,
AFNE01.JPG,AFNE01.JPG,AFNE01.JPG,AFNE01.JPG,AFNE01.JPG,AFNE01.JPG,,,,,1,0,10,3,,,,,,,,,,,,,,,,,,,AMNE10.jpg,AMNE02.jpg,AMSA09.jpg,AMSA03.jpg,AMNE10.jpg,MN,1,num_8,16,num_8,1.28341270029,,,2017_Aug_02_1545,60.004099338,FEMA4ImagesEEG,001,201088,
AFNE01.JPG,AFNE01.JPG,AFNE01.JPG,AFNE01.JPG,AFNE01.JPG,AFNE01.JPG,,,,,1,1,11,8,,,,,,,,,,,,,,,,,,,AMSA09.jpg,AMNE20.jpg,AMSA10.jpg,AMNE16.jpg,AMSA09.jpg,MS,2,num_8,32,num_4,1.18342613941,,,2017_Aug_02_1545,60.004099338,FEMA4ImagesEEG,001,201088,
AFNE01.JPG,AFNE01.JPG,AFNE01.JPG,AFNE01.JPG,AFNE01.JPG,AFNE01.JPG,,,,,1,2,12,6,,,,,,,,,,,,,,,,,,,AMNE06.jpg,AMSA03.jpg,AMNE09.jpg,AMSA11.jpg,AMSA03.jpg,MS,2,num_6,16,num_6,0.983431207249,,,2017_Aug_02_1545,60.004099338,FEMA4ImagesEEG,001,201088,
AFNE01.JPG,AFNE01.JPG,AFNE01.JPG,AFNE01.JPG,AFNE01.JPG,AFNE01.JPG,,,,,1,3,13,7,,,,,,,,,,,,,,,,,,,AMSA17.jpg,AMSA05.jpg,AMNE09.jpg,AMNE16.jpg,AMSA05.jpg,MS,2,num_6,32,num_8,0.783460971899,,,2017_Aug_02_1545,60.004099338,FEMA4ImagesEEG,001,201088,
AFNE01.JPG,AFNE01.JPG,AFNE01.JPG,AFNE01.JPG,AFNE01.JPG,AFNE01.JPG,,,,,1,4,14,9,,,,,,,,,,,,,,,,,,,AMSA14.jpg,AMNE08.jpg,AMSA04.jpg,AMNE20.jpg,AMSA14.jpg,MS,2,num_8,16,num_8,0.999774198979,,,2017_Aug_02_1545,60.004099338,FEMA4ImagesEEG,001,201088,
AFNE01.JPG,AFNE01.JPG,AFNE01.JPG,AFNE01.JPG,AFNE01.JPG,AFNE01.JPG,,,,,1,5,15,0,,,,,,,,,,,,,,,,,,,AMNE03.jpg,AMNE12.jpg,AMSA04.jpg,AMSA13.jpg,AMSA13.jpg,MS,2,num_4,16,num_4,1.0167801606,,,2017_Aug_02_1545,60.004099338,FEMA4ImagesEEG,001,201088,
AFNE01.JPG,AFNE01.JPG,AFNE01.JPG,AFNE01.JPG,AFNE01.JPG,AFNE01.JPG,,,,,1,6,16,4,,,,,,,,,,,,,,,,,,,AMNE03.jpg,AMNE10.jpg,AMSA10.jpg,AMSA12.jpg,AMSA10.jpg,MS,2,num_2,16,num_2,1.40006395546,,,2017_Aug_02_1545,60.004099338,FEMA4ImagesEEG,001,201088,
AFNE01.JPG,AFNE01.JPG,AFNE01.JPG,AFNE01.JPG,AFNE01.JPG,AFNE01.JPG,,,,,1,7,17,5,,,,,,,,,,,,,,,,,,,AMSA16.jpg,AMSA19.jpg,AMNE10.jpg,AMNE12.jpg,AMNE12.jpg,MN,1,num_4,32,num_2,1.95028143353,,,2017_Aug_02_1545,60.004099338,FEMA4ImagesEEG,001,201088,
AFNE01.JPG,AFNE01.JPG,AFNE01.JPG,AFNE01.JPG,AFNE01.JPG,AFNE01.JPG,,,,,1,8,18,1,,,,,,,,,,,,,,,,,,,AMSA20.jpg,AMSA08.jpg,AMNE20.jpg,AMNE15.jpg,AMSA20.jpg,MS,2,num_8,16,num_8,0.933509291383,,,2017_Aug_02_1545,60.004099338,FEMA4ImagesEEG,001,201088,
AFNE01.JPG,AFNE01.JPG,AFNE01.JPG,AFNE01.JPG,AFNE01.JPG,AFNE01.JPG,,,,,1,9,19,2,,,,,,,,,,,,,,,,,,,AMSA19.jpg,AMNE13.jpg,AMSA06.jpg,AMNE07.jpg,AMSA06.jpg,MS,2,num_2,16,num_2,0.533538029762,,,2017_Aug_02_1545,60.004099338,FEMA4ImagesEEG,001,201088,
AFNE01.JPG,AFNE01.JPG,AFNE01.JPG,AFNE01.JPG,AFNE01.JPG,AFNE01.JPG,,,,,2,0,20,1,,,,,,,,,,,,,,,,,,,AMNE01.jpg,AMSA04.jpg,AMNE04.jpg,AMSA10.jpg,AMNE01.jpg,MN,1,num_8,16,num_8,1.08351302799,,,2017_Aug_02_1545,60.004099338,FEMA4ImagesEEG,001,201088,
AFNE01.JPG,AFNE01.JPG,AFNE01.JPG,AFNE01.JPG,AFNE01.JPG,AFNE01.JPG,,,,,2,1,21,5,,,,,,,,,,,,,,,,,,,AMNE13.jpg,AMSA18.jpg,AMSA12.jpg,AMNE04.jpg,AMNE04.jpg,MN,1,num_4,16,num_4,1.18343415787,,,2017_Aug_02_1545,60.004099338,FEMA4ImagesEEG,001,201088,
AFNE01.JPG,AFNE01.JPG,AFNE01.JPG,AFNE01.JPG,AFNE01.JPG,AFNE01.JPG,,,,,2,2,22,3,,,,,,,,,,,,,,,,,,,AMNE01.jpg,AMSA02.jpg,AMNE19.jpg,AMSA19.jpg,AMNE01.jpg,MN,1,num_8,16,num_8,0.983479638817,,,2017_Aug_02_1545,60.004099338,FEMA4ImagesEEG,001,201088,
AFNE01.JPG,AFNE01.JPG,AFNE01.JPG,AFNE01.JPG,AFNE01.JPG,AFNE01.JPG,,,,,2,3,23,8,,,,,,,,,,,,,,,,,,,AMNE12.jpg,AMSA15.jpg,AMNE14.jpg,AMSA11.jpg,AMSA11.jpg,MS,2,num_4,32,num_8,1.00014208793,,,2017_Aug_02_1545,60.004099338,FEMA4ImagesEEG,001,201088,
AFNE01.JPG,AFNE01.JPG,AFNE01.JPG,AFNE01.JPG,AFNE01.JPG,AFNE01.JPG,,,,,2,4,24,9,,,,,,,,,,,,,,,,,,,AMNE07.jpg,AMSA04.jpg,AMNE15.jpg,AMSA18.jpg,AMSA18.jpg,MS,2,num_4,16,num_4,1.36675413256,,,2017_Aug_02_1545,60.004099338,FEMA4ImagesEEG,001,201088,
AFNE01.JPG,AFNE01.JPG,AFNE01.JPG,AFNE01.JPG,AFNE01.JPG,AFNE01.JPG,,,,,2,5,25,6,,,,,,,,,,,,,,,,,,,AMNE12.jpg,AMSA01.jpg,AMSA18.jpg,AMNE14.jpg,AMNE12.jpg,MN,1,num_8,16,num_8,0.983316703001,,,2017_Aug_02_1545,60.004099338,FEMA4ImagesEEG,001,201088,
AFNE01.JPG,AFNE01.JPG,AFNE01.JPG,AFNE01.JPG,AFNE01.JPG,AFNE01.JPG,,,,,2,6,26,0,,,,,,,,,,,,,,,,,,,AMSA03.jpg,AMNE02.jpg,AMSA12.jpg,AMNE08.jpg,AMNE08.jpg,MN,1,num_4,32,num_6,1.21677509299,,,2017_Aug_02_1545,60.004099338,FEMA4ImagesEEG,001,201088,
AFNE01.JPG,AFNE01.JPG,AFNE01.JPG,AFNE01.JPG,AFNE01.JPG,AFNE01.JPG,,,,,2,7,27,7,,,,,,,,,,,,,,,,,,,AMNE05.jpg,AMSA08.jpg,AMNE08.jpg,AMSA03.jpg,AMNE05.jpg,MN,1,num_8,16,num_8,0.933445143281,,,2017_Aug_02_1545,60.004099338,FEMA4ImagesEEG,001,201088,
AFNE01.JPG,AFNE01.JPG,AFNE01.JPG,AFNE01.JPG,AFNE01.JPG,AFNE01.JPG,,,,,2,8,28,4,,,,,,,,,,,,,,,,,,,AMNE11.jpg,AMNE05.jpg,AMSA17.jpg,AMSA12.jpg,AMNE05.jpg,MN,1,num_6,32,num_8,0.900092982687,,,2017_Aug_02_1545,60.004099338,FEMA4ImagesEEG,001,201088,
AFNE01.JPG,AFNE01.JPG,AFNE01.JPG,AFNE01.JPG,AFNE01.JPG,AFNE01.JPG,,,,,2,9,29,2,,,,,,,,,,,,,,,,,,,AMSA03.jpg,AMNE16.jpg,AMSA09.jpg,AMNE03.jpg,AMNE03.jpg,MN,1,num_4,32,num_6,1.000072808,,,2017_Aug_02_1545,60.004099338,FEMA4ImagesEEG,001,201088,
AFNE01.JPG,AFNE01.JPG,AFNE01.JPG,AFNE01.JPG,AFNE01.JPG,AFNE01.JPG,,,,,3,0,30,4,,,,,,,,,,,,,,,,,,,AMNE14.jpg,AMSA19.jpg,AMSA06.jpg,AMNE10.jpg,AMSA19.jpg,MS,2,num_6,16,num_6,1.23344652262,,,2017_Aug_02_1545,60.004099338,FEMA4ImagesEEG,001,201088,
AFNE01.JPG,AFNE01.JPG,AFNE01.JPG,AFNE01.JPG,AFNE01.JPG,AFNE01.JPG,,,,,3,1,31,0,,,,,,,,,,,,,,,,,,,AMSA15.jpg,AMNE01.jpg,AMNE16.jpg,AMSA08.jpg,AMNE01.jpg,MN,1,num_6,16,num_6,0.566789798671,,,2017_Aug_02_1545,60.004099338,FEMA4ImagesEEG,001,201088,
AFNE01.JPG,AFNE01.JPG,AFNE01.JPG,AFNE01.JPG,AFNE01.JPG,AFNE01.JPG,,,,,3,2,32,7,,,,,,,,,,,,,,,,,,,AMNE16.jpg,AMSA12.jpg,AMNE19.jpg,AMSA14.jpg,AMNE16.jpg,MN,1,num_8,32,num_6,1.08345112531,,,2017_Aug_02_1545,60.004099338,FEMA4ImagesEEG,001,201088,
AFNE01.JPG,AFNE01.JPG,AFNE01.JPG,AFNE01.JPG,AFNE01.JPG,AFNE01.JPG,,,,,3,3,33,9,,,,,,,,,,,,,,,,,,,AMNE20.jpg,AMNE11.jpg,AMSA12.jpg,AMSA17.jpg,AMSA17.jpg,MS,2,num_4,32,num_2,1.21676579141,,,2017_Aug_02_1545,60.004099338,FEMA4ImagesEEG,001,201088,
AFNE01.JPG,AFNE01.JPG,AFNE01.JPG,AFNE01.JPG,AFNE01.JPG,AFNE01.JPG,,,,,3,4,34,2,,,,,,,,,,,,,,,,,,,AMSA10.jpg,AMNE01.jpg,AMNE08.jpg,AMSA13.jpg,AMNE08.jpg,MN,1,num_2,16,num_2,0.933473368408,,,2017_Aug_02_1545,60.004099338,FEMA4ImagesEEG,001,201088,
AFNE01.JPG,AFNE01.JPG,AFNE01.JPG,AFNE01.JPG,AFNE01.JPG,AFNE01.JPG,,,,,3,5,35,6,,,,,,,,,,,,,,,,,,,AMNE13.jpg,AMSA20.jpg,AMSA12.jpg,AMNE03.jpg,AMNE13.jpg,MN,1,num_8,16,num_8,1.28344830265,,,2017_Aug_02_1545,60.004099338,FEMA4ImagesEEG,001,201088,
AFNE01.JPG,AFNE01.JPG,AFNE01.JPG,AFNE01.JPG,AFNE01.JPG,AFNE01.JPG,,,,,3,6,36,1,,,,,,,,,,,,,,,,,,,AMSA13.jpg,AMSA15.jpg,AMNE06.jpg,AMNE12.jpg,AMSA13.jpg,MS,2,num_8,32,num_6,1.23341669375,,,2017_Aug_02_1545,60.004099338,FEMA4ImagesEEG,001,201088,
AFNE01.JPG,AFNE01.JPG,AFNE01.JPG,AFNE01.JPG,AFNE01.JPG,AFNE01.JPG,,,,,3,7,37,5,,,,,,,,,,,,,,,,,,,AMSA11.jpg,AMNE10.jpg,AMSA10.jpg,AMNE16.jpg,AMNE10.jpg,MN,1,num_6,16,num_6,1.25010448112,,,2017_Aug_02_1545,60.004099338,FEMA4ImagesEEG,001,201088,
AFNE01.JPG,AFNE01.JPG,AFNE01.JPG,AFNE01.JPG,AFNE01.JPG,AFNE01.JPG,,,,,3,8,38,3,,,,,,,,,,,,,,,,,,,AMSA07.jpg,AMNE16.jpg,AMNE11.jpg,AMSA18.jpg,AMSA07.jpg,MS,2,num_8,16,num_8,1.20009660698,,,2017_Aug_02_1545,60.004099338,FEMA4ImagesEEG,001,201088,
AFNE01.JPG,AFNE01.JPG,AFNE01.JPG,AFNE01.JPG,AFNE01.JPG,AFNE01.JPG,,,,,3,9,39,8,,,,,,,,,,,,,,,,,,,AMNE06.jpg,AMSA14.jpg,AMSA15.jpg,AMNE19.jpg,AMSA14.jpg,MS,2,num_6,16,num_6,0.966855999548,,,2017_Aug_02_1545,60.004099338,FEMA4ImagesEEG,001,201088,
AFNE01.JPG,AFNE01.JPG,AFNE01.JPG,AFNE01.JPG,AFNE01.JPG,AFNE01.JPG,,,,,4,0,40,8,,,,,,,,,,,,,,,,,,,AMSA15.jpg,AMSA17.jpg,AMNE01.jpg,AMNE02.jpg,AMNE01.jpg,MN,1,num_2,16,num_2,1.35025012912,,,2017_Aug_02_1545,60.004099338,FEMA4ImagesEEG,001,201088,
AFNE01.JPG,AFNE01.JPG,AFNE01.JPG,AFNE01.JPG,AFNE01.JPG,AFNE01.JPG,,,,,4,1,41,9,,,,,,,,,,,,,,,,,,,AMSA02.jpg,AMSA13.jpg,AMNE05.jpg,AMNE12.jpg,AMSA02.jpg,MS,2,num_8,16,num_8,1.00007761898,,,2017_Aug_02_1545,60.004099338,FEMA4ImagesEEG,001,201088,
AFNE01.JPG,AFNE01.JPG,AFNE01.JPG,AFNE01.JPG,AFNE01.JPG,AFNE01.JPG,,,,,4,2,42,6,,,,,,,,,,,,,,,,,,,AMNE13.jpg,AMSA05.jpg,AMSA14.jpg,AMNE20.jpg,AMNE13.jpg,MN,1,num_8,32,num_6,1.25003488059,,,2017_Aug_02_1545,60.004099338,FEMA4ImagesEEG,001,201088,
AFNE01.JPG,AFNE01.JPG,AFNE01.JPG,AFNE01.JPG,AFNE01.JPG,AFNE01.JPG,,,,,4,3,43,3,,,,,,,,,,,,,,,,,,,AMSA19.jpg,AMSA14.jpg,AMNE12.jpg,AMNE13.jpg,AMSA14.jpg,MS,2,num_6,16,num_6,1.55008180486,,,2017_Aug_02_1545,60.004099338,FEMA4ImagesEEG,001,201088,
AFNE01.JPG,AFNE01.JPG,AFNE01.JPG,AFNE01.JPG,AFNE01.JPG,AFNE01.JPG,,,,,4,4,44,2,,,,,,,,,,,,,,,,,,,AMNE15.jpg,AMSA16.jpg,AMSA13.jpg,AMNE19.jpg,AMNE19.jpg,MN,1,num_4,16,num_4,1.616765599,,,2017_Aug_02_1545,60.004099338,FEMA4ImagesEEG,001,201088,
AFNE01.JPG,AFNE01.JPG,AFNE01.JPG,AFNE01.JPG,AFNE01.JPG,AFNE01.JPG,,,,,4,5,45,7,,,,,,,,,,,,,,,,,,,AMSA11.jpg,AMSA03.jpg,AMNE03.jpg,AMNE18.jpg,AMSA03.jpg,MS,2,num_6,32,num_2,0.800508950371,,,2017_Aug_02_1545,60.004099338,FEMA4ImagesEEG,001,201088,
AFNE01.JPG,AFNE01.JPG,AFNE01.JPG,AFNE01.JPG,AFNE01.JPG,AFNE01.JPG,,,,,4,6,46,4,,,,,,,,,,,,,,,,,,,AMNE12.jpg,AMNE05.jpg,AMSA01.jpg,AMSA05.jpg,AMSA05.jpg,MS,2,num_4,32,num_6,1.01694502099,,,2017_Aug_02_1545,60.004099338,FEMA4ImagesEEG,001,201088,
AFNE01.JPG,AFNE01.JPG,AFNE01.JPG,AFNE01.JPG,AFNE01.JPG,AFNE01.JPG,,,,,4,7,47,1,,,,,,,,,,,,,,,,,,,AMNE01.jpg,AMNE06.jpg,AMSA06.jpg,AMSA20.jpg,AMNE01.jpg,MN,1,num_8,16,num_8,0.566854909062,,,2017_Aug_02_1545,60.004099338,FEMA4ImagesEEG,001,201088,
AFNE01.JPG,AFNE01.JPG,AFNE01.JPG,AFNE01.JPG,AFNE01.JPG,AFNE01.JPG,,,,,4,8,48,0,,,,,,,,,,,,,,,,,,,AMSA08.jpg,AMSA16.jpg,AMNE04.jpg,AMNE15.jpg,AMNE15.jpg,MN,1,num_4,32,num_8,1.05011949176,,,2017_Aug_02_1545,60.004099338,FEMA4ImagesEEG,001,201088,
AFNE01.JPG,AFNE01.JPG,AFNE01.JPG,AFNE01.JPG,AFNE01.JPG,AFNE01.JPG,,,,,4,9,49,5,,,,,,,,,,,,,,,,,,,AMNE17.jpg,AMSA18.jpg,AMSA15.jpg,AMNE09.jpg,AMNE09.jpg,MN,1,num_4,32,num_8,0.800118930638,,,2017_Aug_02_1545,60.004099338,FEMA4ImagesEEG,001,201088,
AFNE01.JPG,AFNE01.JPG,AFNE01.JPG,AFNE01.JPG,AFNE01.JPG,AFNE01.JPG,,,,,5,0,50,5,,,,,,,,,,,,,,,,,,,AMSA04.jpg,AMNE10.jpg,AMSA05.jpg,AMNE19.jpg,AMNE19.jpg,MN,1,num_4,32,num_6,1.33339042519,,,2017_Aug_02_1545,60.004099338,FEMA4ImagesEEG,001,201088,
AFNE01.JPG,AFNE01.JPG,AFNE01.JPG,AFNE01.JPG,AFNE01.JPG,AFNE01.JPG,,,,,5,1,51,2,,,,,,,,,,,,,,,,,,,AMNE01.jpg,AMNE04.jpg,AMSA03.jpg,AMSA04.jpg,AMSA04.jpg,MS,2,num_4,16,num_4,1.13344681123,,,2017_Aug_02_1545,60.004099338,FEMA4ImagesEEG,001,201088,
AFNE01.JPG,AFNE01.JPG,AFNE01.JPG,AFNE01.JPG,AFNE01.JPG,AFNE01.JPG,,,,,5,2,52,4,,,,,,,,,,,,,,,,,,,AMNE19.jpg,AMSA04.jpg,AMSA09.jpg,AMNE17.jpg,AMSA04.jpg,MS,2,num_6,16,num_6,0.800156777725,,,2017_Aug_02_1545,60.004099338,FEMA4ImagesEEG,001,201088,
AFNE01.JPG,AFNE01.JPG,AFNE01.JPG,AFNE01.JPG,AFNE01.JPG,AFNE01.JPG,,,,,5,3,53,3,,,,,,,,,,,,,,,,,,,AMNE08.jpg,AMSA13.jpg,AMNE02.jpg,AMSA18.jpg,AMNE02.jpg,MN,1,num_2,16,num_2,0.950169174233,,,2017_Aug_02_1545,60.004099338,FEMA4ImagesEEG,001,201088,
AFNE01.JPG,AFNE01.JPG,AFNE01.JPG,AFNE01.JPG,AFNE01.JPG,AFNE01.JPG,,,,,5,4,54,8,,,,,,,,,,,,,,,,,,,AMSA02.jpg,AMSA04.jpg,AMNE06.jpg,AMNE08.jpg,AMNE08.jpg,MN,1,num_4,16,num_4,1.05013167975,,,2017_Aug_02_1545,60.004099338,FEMA4ImagesEEG,001,201088,
AFNE01.JPG,AFNE01.JPG,AFNE01.JPG,AFNE01.JPG,AFNE01.JPG,AFNE01.JPG,,,,,5,5,55,7,,,,,,,,,,,,,,,,,,,AMSA10.jpg,AMNE18.jpg,AMNE07.jpg,AMSA07.jpg,AMNE18.jpg,MN,1,num_6,32,num_2,1.38350318139,,,2017_Aug_02_1545,60.004099338,FEMA4ImagesEEG,001,201088,
AFNE01.JPG,AFNE01.JPG,AFNE01.JPG,AFNE01.JPG,AFNE01.JPG,AFNE01.JPG,,,,,5,6,56,9,,,,,,,,,,,,,,,,,,,AMSA18.jpg,AMNE05.jpg,AMNE04.jpg,AMSA20.jpg,AMSA18.jpg,MS,2,num_8,16,num_8,1.21680299728,,,2017_Aug_02_1545,60.004099338,FEMA4ImagesEEG,001,201088,
AFNE01.JPG,AFNE01.JPG,AFNE01.JPG,AFNE01.JPG,AFNE01.JPG,AFNE01.JPG,,,,,5,7,57,6,,,,,,,,,,,,,,,,,,,AMNE11.jpg,AMNE16.jpg,AMSA05.jpg,AMSA12.jpg,AMNE11.jpg,MN,1,num_8,16,num_8,1.03320494108,,,2017_Aug_02_1545,60.004099338,FEMA4ImagesEEG,001,201088,
AFNE01.JPG,AFNE01.JPG,AFNE01.JPG,AFNE01.JPG,AFNE01.JPG,AFNE01.JPG,,,,,5,8,58,1,,,,,,,,,,,,,,,,,,,AMSA05.jpg,AMNE17.jpg,AMSA20.jpg,AMNE20.jpg,AMNE20.jpg,MN,1,num_4,32,num_6,0.916735545732,,,2017_Aug_02_1545,60.004099338,FEMA4ImagesEEG,001,201088,
AFNE01.JPG,AFNE01.JPG,AFNE01.JPG,AFNE01.JPG,AFNE01.JPG,AFNE01.JPG,,,,,5,9,59,0,,,,,,,,,,,,,,,,,,,AMNE07.jpg,AMSA12.jpg,AMNE11.jpg,AMSA05.jpg,AMSA05.jpg,MS,2,num_4,16,num_4,1.53340845066,,,2017_Aug_02_1545,60.004099338,FEMA4ImagesEEG,001,201088,
,,,,,,,,,,,,,,,,,,,,,,,,,,,,,,,,,,,,,,,,,,,space,1.51680245204,2017_Aug_02_1545,60.004099338,FEMA4ImagesEEG,001,201088,
AFNE01.JPG,AFNE01.JPG,AFNE01.JPG,AFNE01.JPG,AFNE01.JPG,AFNE01.JPG,,,,,,,,,0,0,0,9,,,,,,,,,,,,,,,AFSA07.jpg,AFNE08.jpg,AFNE11.jpg,AFSA16.jpg,AFSA07.jpg,FS,4,num_8,16,num_8,1.05008068215,,,2017_Aug_02_1545,60.004099338,FEMA4ImagesEEG,001,201088,
AFNE01.JPG,AFNE01.JPG,AFNE01.JPG,AFNE01.JPG,AFNE01.JPG,AFNE01.JPG,,,,,,,,,0,1,1,7,,,,,,,,,,,,,,,AFNE05.jpg,AFSA10.jpg,AFSA12.jpg,AFNE20.jpg,AFNE20.jpg,FN,3,num_4,16,num_4,1.28345984919,,,2017_Aug_02_1545,60.004099338,FEMA4ImagesEEG,001,201088,
AFNE01.JPG,AFNE01.JPG,AFNE01.JPG,AFNE01.JPG,AFNE01.JPG,AFNE01.JPG,,,,,,,,,0,2,2,0,,,,,,,,,,,,,,,AFNE15.jpg,AFNE11.jpg,AFSA01.jpg,AFSA03.jpg,AFNE11.jpg,FN,3,num_6,32,num_8,1.03342817607,,,2017_Aug_02_1545,60.004099338,FEMA4ImagesEEG,001,201088,
AFNE01.JPG,AFNE01.JPG,AFNE01.JPG,AFNE01.JPG,AFNE01.JPG,AFNE01.JPG,,,,,,,,,0,3,3,1,,,,,,,,,,,,,,,AFSA10.jpg,AFSA11.jpg,AFNE08.jpg,AFNE06.jpg,AFNE08.jpg,FN,3,num_2,16,num_2,1.03348655067,,,2017_Aug_02_1545,60.004099338,FEMA4ImagesEEG,001,201088,
AFNE01.JPG,AFNE01.JPG,AFNE01.JPG,AFNE01.JPG,AFNE01.JPG,AFNE01.JPG,,,,,,,,,0,4,4,6,,,,,,,,,,,,,,,AFNE04.jpg,AFSA18.jpg,AFSA14.jpg,AFNE08.jpg,AFNE04.jpg,FN,3,num_8,16,num_8,1.31672348571,,,2017_Aug_02_1545,60.004099338,FEMA4ImagesEEG,001,201088,
AFNE01.JPG,AFNE01.JPG,AFNE01.JPG,AFNE01.JPG,AFNE01.JPG,AFNE01.JPG,,,,,,,,,0,5,5,3,,,,,,,,,,,,,,,AFNE06.jpg,AFSA16.jpg,AFSA19.jpg,AFNE09.jpg,AFSA16.jpg,FS,4,num_6,16,num_6,1.18347168458,,,2017_Aug_02_1545,60.004099338,FEMA4ImagesEEG,001,201088,
AFNE01.JPG,AFNE01.JPG,AFNE01.JPG,AFNE01.JPG,AFNE01.JPG,AFNE01.JPG,,,,,,,,,0,6,6,4,,,,,,,,,,,,,,,AFSA12.jpg,AFNE05.jpg,AFSA10.jpg,AFNE18.jpg,AFNE05.jpg,FN,3,num_6,16,num_6,1.11673079873,,,2017_Aug_02_1545,60.004099338,FEMA4ImagesEEG,001,201088,
AFNE01.JPG,AFNE01.JPG,AFNE01.JPG,AFNE01.JPG,AFNE01.JPG,AFNE01.JPG,,,,,,,,,0,7,7,2,,,,,,,,,,,,,,,AFSA14.jpg,AFNE08.jpg,AFNE04.jpg,AFSA03.jpg,AFSA14.jpg,FS,4,num_8,16,num_8,1.11671187496,,,2017_Aug_02_1545,60.004099338,FEMA4ImagesEEG,001,201088,
AFNE01.JPG,AFNE01.JPG,AFNE01.JPG,AFNE01.JPG,AFNE01.JPG,AFNE01.JPG,,,,,,,,,0,8,8,8,,,,,,,,,,,,,,,AFSA01.jpg,AFNE06.jpg,AFSA15.jpg,AFNE19.jpg,AFSA01.jpg,FS,4,num_8,32,num_2,1.26675057225,,,2017_Aug_02_1545,60.004099338,FEMA4ImagesEEG,001,201088,
AFNE01.JPG,AFNE01.JPG,AFNE01.JPG,AFNE01.JPG,AFNE01.JPG,AFNE01.JPG,,,,,,,,,0,9,9,5,,,,,,,,,,,,,,,AFNE06.jpg,AFNE13.jpg,AFSA18.jpg,AFSA02.jpg,AFSA02.jpg,FS,4,num_4,32,num_2,1.333480553,,,2017_Aug_02_1545,60.004099338,FEMA4ImagesEEG,001,201088,
AFNE01.JPG,AFNE01.JPG,AFNE01.JPG,AFNE01.JPG,AFNE01.JPG,AFNE01.JPG,,,,,,,,,1,0,10,1,,,,,,,,,,,,,,,AFSA14.jpg,AFSA01.jpg,AFNE15.jpg,AFNE10.jpg,AFNE15.jpg,FN,3,num_2,32,num_4,1.18348772149,,,2017_Aug_02_1545,60.004099338,FEMA4ImagesEEG,001,201088,
AFNE01.JPG,AFNE01.JPG,AFNE01.JPG,AFNE01.JPG,AFNE01.JPG,AFNE01.JPG,,,,,,,,,1,1,11,0,,,,,,,,,,,,,,,AFSA08.jpg,AFNE16.jpg,AFNE14.jpg,AFSA09.jpg,AFSA08.jpg,FS,4,num_8,32,num_4,1.0668117695,,,2017_Aug_02_1545,60.004099338,FEMA4ImagesEEG,001,201088,
AFNE01.JPG,AFNE01.JPG,AFNE01.JPG,AFNE01.JPG,AFNE01.JPG,AFNE01.JPG,,,,,,,,,1,2,12,8,,,,,,,,,,,,,,,AFNE09.jpg,AFNE15.jpg,AFSA11.jpg,AFSA08.jpg,AFSA08.jpg,FS,4,num_4,16,num_4,1.25010287738,,,2017_Aug_02_1545,60.004099338,FEMA4ImagesEEG,001,201088,
AFNE01.JPG,AFNE01.JPG,AFNE01.JPG,AFNE01.JPG,AFNE01.JPG,AFNE01.JPG,,,,,,,,,1,3,13,4,,,,,,,,,,,,,,,AFNE14.jpg,AFSA08.jpg,AFSA15.jpg,AFNE15.jpg,AFNE14.jpg,FN,3,num_8,16,num_8,0.966743740486,,,2017_Aug_02_1545,60.004099338,FEMA4ImagesEEG,001,201088,
AFNE01.JPG,AFNE01.JPG,AFNE01.JPG,AFNE01.JPG,AFNE01.JPG,AFNE01.JPG,,,,,,,,,1,4,14,2,,,,,,,,,,,,,,,AFSA05.jpg,AFNE18.jpg,AFNE06.jpg,AFSA16.jpg,AFSA16.jpg,FS,4,num_4,32,num_8,1.2501307819,,,2017_Aug_02_1545,60.004099338,FEMA4ImagesEEG,001,201088,
AFNE01.JPG,AFNE01.JPG,AFNE01.JPG,AFNE01.JPG,AFNE01.JPG,AFNE01.JPG,,,,,,,,,1,5,15,3,,,,,,,,,,,,,,,AFNE06.jpg,AFNE15.jpg,AFSA07.jpg,AFSA06.jpg,AFSA06.jpg,FS,4,num_4,16,num_4,1.16672456032,,,2017_Aug_02_1545,60.004099338,FEMA4ImagesEEG,001,201088,
AFNE01.JPG,AFNE01.JPG,AFNE01.JPG,AFNE01.JPG,AFNE01.JPG,AFNE01.JPG,,,,,,,,,1,6,16,6,,,,,,,,,,,,,,,AFNE20.jpg,AFSA16.jpg,AFNE18.jpg,AFSA11.jpg,AFNE18.jpg,FN,3,num_2,32,num_8,0.933496141108,,,2017_Aug_02_1545,60.004099338,FEMA4ImagesEEG,001,201088,
AFNE01.JPG,AFNE01.JPG,AFNE01.JPG,AFNE01.JPG,AFNE01.JPG,AFNE01.JPG,,,,,,,,,1,7,17,5,,,,,,,,,,,,,,,AFNE07.jpg,AFNE10.jpg,AFSA18.jpg,AFSA13.jpg,AFNE07.jpg,FN,3,num_8,16,num_8,1.33345553535,,,2017_Aug_02_1545,60.004099338,FEMA4ImagesEEG,001,201088,
AFNE01.JPG,AFNE01.JPG,AFNE01.JPG,AFNE01.JPG,AFNE01.JPG,AFNE01.JPG,,,,,,,,,1,8,18,7,,,,,,,,,,,,,,,AFSA02.jpg,AFNE12.jpg,AFNE03.jpg,AFSA18.jpg,AFSA02.jpg,FS,4,num_8,32,num_4,1.09983036062,,,2017_Aug_02_1545,60.004099338,FEMA4ImagesEEG,001,201088,
AFNE01.JPG,AFNE01.JPG,AFNE01.JPG,AFNE01.JPG,AFNE01.JPG,AFNE01.JPG,,,,,,,,,1,9,19,9,,,,,,,,,,,,,,,AFNE08.jpg,AFSA19.jpg,AFNE14.jpg,AFSA02.jpg,AFSA19.jpg,FS,4,num_6,16,num_6,1.01681993227,,,2017_Aug_02_1545,60.004099338,FEMA4ImagesEEG,001,201088,
AFNE01.JPG,AFNE01.JPG,AFNE01.JPG,AFNE01.JPG,AFNE01.JPG,AFNE01.JPG,,,,,,,,,2,0,20,0,,,,,,,,,,,,,,,AFSA03.jpg,AFNE03.jpg,AFSA14.jpg,AFNE19.jpg,AFSA03.jpg,FS,4,num_8,32,num_4,1.35010483372,,,2017_Aug_02_1545,60.004099338,FEMA4ImagesEEG,001,201088,
AFNE01.JPG,AFNE01.JPG,AFNE01.JPG,AFNE01.JPG,AFNE01.JPG,AFNE01.JPG,,,,,,,,,2,1,21,6,,,,,,,,,,,,,,,AFSA17.jpg,AFSA02.jpg,AFNE11.jpg,AFNE06.jpg,AFSA17.jpg,FS,4,num_8,16,num_8,1.11701593664,,,2017_Aug_02_1545,60.004099338,FEMA4ImagesEEG,001,201088,
AFNE01.JPG,AFNE01.JPG,AFNE01.JPG,AFNE01.JPG,AFNE01.JPG,AFNE01.JPG,,,,,,,,,2,2,22,4,,,,,,,,,,,,,,,AFNE05.jpg,AFNE03.jpg,AFSA05.jpg,AFSA16.jpg,AFSA05.jpg,FS,4,num_2,16,num_2,1.23343882477,,,2017_Aug_02_1545,60.004099338,FEMA4ImagesEEG,001,201088,
AFNE01.JPG,AFNE01.JPG,AFNE01.JPG,AFNE01.JPG,AFNE01.JPG,AFNE01.JPG,,,,,,,,,2,3,23,1,,,,,,,,,,,,,,,AFNE19.jpg,AFSA15.jpg,AFSA12.jpg,AFNE04.jpg,AFSA12.jpg,FS,4,num_2,16,num_2,1.00020559435,,,2017_Aug_02_1545,60.004099338,FEMA4ImagesEEG,001,201088,
AFNE01.JPG,AFNE01.JPG,AFNE01.JPG,AFNE01.JPG,AFNE01.JPG,AFNE01.JPG,,,,,,,,,2,4,24,3,,,,,,,,,,,,,,,AFSA01.jpg,AFNE12.jpg,AFNE15.jpg,AFSA07.jpg,AFSA07.jpg,FS,4,num_4,32,num_8,0.983431207249,,,2017_Aug_02_1545,60.004099338,FEMA4ImagesEEG,001,201088,
AFNE01.JPG,AFNE01.JPG,AFNE01.JPG,AFNE01.JPG,AFNE01.JPG,AFNE01.JPG,,,,,,,,,2,5,25,2,,,,,,,,,,,,,,,AFSA06.jpg,AFSA16.jpg,AFNE02.jpg,AFNE12.jpg,AFNE02.jpg,FN,3,num_2,16,num_2,0.899784751236,,,2017_Aug_02_1545,60.004099338,FEMA4ImagesEEG,001,201088,
AFNE01.JPG,AFNE01.JPG,AFNE01.JPG,AFNE01.JPG,AFNE01.JPG,AFNE01.JPG,,,,,,,,,2,6,26,5,,,,,,,,,,,,,,,AFSA01.jpg,AFNE14.jpg,AFSA18.jpg,AFNE13.jpg,AFNE13.jpg,FN,3,num_4,32,num_8,1.05013905675,,,2017_Aug_02_1545,60.004099338,FEMA4ImagesEEG,001,201088,
AFNE01.JPG,AFNE01.JPG,AFNE01.JPG,AFNE01.JPG,AFNE01.JPG,AFNE01.JPG,,,,,,,,,2,7,27,9,,,,,,,,,,,,,,,AFNE03.jpg,AFSA02.jpg,AFSA04.jpg,AFNE02.jpg,AFNE03.jpg,FN,3,num_8,32,num_4,1.31671642954,,,2017_Aug_02_1545,60.004099338,FEMA4ImagesEEG,001,201088,
AFNE01.JPG,AFNE01.JPG,AFNE01.JPG,AFNE01.JPG,AFNE01.JPG,AFNE01.JPG,,,,,,,,,2,8,28,7,,,,,,,,,,,,,,,AFSA15.jpg,AFNE01.jpg,AFNE16.jpg,AFSA14.jpg,AFNE16.jpg,FN,3,num_2,16,num_2,0.899999647168,,,2017_Aug_02_1545,60.004099338,FEMA4ImagesEEG,001,201088,
AFNE01.JPG,AFNE01.JPG,AFNE01.JPG,AFNE01.JPG,AFNE01.JPG,AFNE01.JPG,,,,,,,,,2,9,29,8,,,,,,,,,,,,,,,AFNE18.jpg,AFSA08.jpg,AFNE17.jpg,AFSA13.jpg,AFNE18.jpg,FN,3,num_8,32,num_2,1.0829312054,,,2017_Aug_02_1545,60.004099338,FEMA4ImagesEEG,001,201088,
AFNE01.JPG,AFNE01.JPG,AFNE01.JPG,AFNE01.JPG,AFNE01.JPG,AFNE01.JPG,,,,,,,,,3,0,30,6,,,,,,,,,,,,,,,AFSA19.jpg,AFNE03.jpg,AFSA16.jpg,AFNE02.jpg,AFNE03.jpg,FN,3,num_6,16,num_6,1.0501185297,,,2017_Aug_02_1545,60.004099338,FEMA4ImagesEEG,001,201088,
AFNE01.JPG,AFNE01.JPG,AFNE01.JPG,AFNE01.JPG,AFNE01.JPG,AFNE01.JPG,,,,,,,,,3,1,31,9,,,,,,,,,,,,,,,AFSA04.jpg,AFNE01.jpg,AFNE20.jpg,AFSA02.jpg,AFNE20.jpg,FN,3,num_2,16,num_2,1.20007351367,,,2017_Aug_02_1545,60.004099338,FEMA4ImagesEEG,001,201088,
AFNE01.JPG,AFNE01.JPG,AFNE01.JPG,AFNE01.JPG,AFNE01.JPG,AFNE01.JPG,,,,,,,,,3,2,32,1,,,,,,,,,,,,,,,AFNE02.jpg,AFNE13.jpg,AFSA10.jpg,AFSA05.jpg,AFNE13.jpg,FN,3,num_6,16,num_6,1.03343747766,,,2017_Aug_02_1545,60.004099338,FEMA4ImagesEEG,001,201088,
AFNE01.JPG,AFNE01.JPG,AFNE01.JPG,AFNE01.JPG,AFNE01.JPG,AFNE01.JPG,,,,,,,,,3,3,33,5,,,,,,,,,,,,,,,AFNE07.jpg,AFNE09.jpg,AFSA11.jpg,AFSA05.jpg,AFNE07.jpg,FN,3,num_8,16,num_8,0.900131792063,,,2017_Aug_02_1545,60.004099338,FEMA4ImagesEEG,001,201088,
AFNE01.JPG,AFNE01.JPG,AFNE01.JPG,AFNE01.JPG,AFNE01.JPG,AFNE01.JPG,,,,,,,,,3,4,34,4,,,,,,,,,,,,,,,AFNE17.jpg,AFNE04.jpg,AFSA07.jpg,AFSA12.jpg,AFNE17.jpg,FN,3,num_8,32,num_6,1.2834659433,,,2017_Aug_02_1545,60.004099338,FEMA4ImagesEEG,001,201088,
AFNE01.JPG,AFNE01.JPG,AFNE01.JPG,AFNE01.JPG,AFNE01.JPG,AFNE01.JPG,,,,,,,,,3,5,35,7,,,,,,,,,,,,,,,AFNE02.jpg,AFSA03.jpg,AFNE14.jpg,AFSA13.jpg,AFSA03.jpg,FS,4,num_6,16,num_6,1.01674904884,,,2017_Aug_02_1545,60.004099338,FEMA4ImagesEEG,001,201088,
AFNE01.JPG,AFNE01.JPG,AFNE01.JPG,AFNE01.JPG,AFNE01.JPG,AFNE01.JPG,,,,,,,,,3,6,36,2,,,,,,,,,,,,,,,AFNE04.jpg,AFNE09.jpg,AFSA01.jpg,AFSA04.jpg,AFSA01.jpg,FS,4,num_2,16,num_2,1.45007535792,,,2017_Aug_02_1545,60.004099338,FEMA4ImagesEEG,001,201088,
AFNE01.JPG,AFNE01.JPG,AFNE01.JPG,AFNE01.JPG,AFNE01.JPG,AFNE01.JPG,,,,,,,,,3,7,37,0,,,,,,,,,,,,,,,AFSA07.jpg,AFNE04.jpg,AFSA05.jpg,AFNE02.jpg,AFNE04.jpg,FN,3,num_6,16,num_6,0.883802592056,,,2017_Aug_02_1545,60.004099338,FEMA4ImagesEEG,001,201088,
AFNE01.JPG,AFNE01.JPG,AFNE01.JPG,AFNE01.JPG,AFNE01.JPG,AFNE01.JPG,,,,,,,,,3,8,38,8,,,,,,,,,,,,,,,AFNE10.jpg,AFSA02.jpg,AFNE04.jpg,AFSA05.jpg,AFNE10.jpg,FN,3,num_8,16,num_8,1.01673012506,,,2017_Aug_02_1545,60.004099338,FEMA4ImagesEEG,001,201088,
AFNE01.JPG,AFNE01.JPG,AFNE01.JPG,AFNE01.JPG,AFNE01.JPG,AFNE01.JPG,,,,,,,,,3,9,39,3,,,,,,,,,,,,,,,AFNE05.jpg,AFSA04.jpg,AFNE08.jpg,AFSA01.jpg,AFNE08.jpg,FN,3,num_2,32,num_8,1.36667779624,,,2017_Aug_02_1545,60.004099338,FEMA4ImagesEEG,001,201088,
AFNE01.JPG,AFNE01.JPG,AFNE01.JPG,AFNE01.JPG,AFNE01.JPG,AFNE01.JPG,,,,,,,,,4,0,40,3,,,,,,,,,,,,,,,AFSA07.jpg,AFSA15.jpg,AFNE06.jpg,AFNE02.jpg,AFNE02.jpg,FN,3,num_4,16,num_4,0.983440187993,,,2017_Aug_02_1545,60.004099338,FEMA4ImagesEEG,001,201088,
AFNE01.JPG,AFNE01.JPG,AFNE01.JPG,AFNE01.JPG,AFNE01.JPG,AFNE01.JPG,,,,,,,,,4,1,41,0,,,,,,,,,,,,,,,AFSA16.jpg,AFNE03.jpg,AFNE10.jpg,AFSA03.jpg,AFNE10.jpg,FN,3,num_2,16,num_2,2.00000160374,,,2017_Aug_02_1545,60.004099338,FEMA4ImagesEEG,001,201088,
AFNE01.JPG,AFNE01.JPG,AFNE01.JPG,AFNE01.JPG,AFNE01.JPG,AFNE01.JPG,,,,,,,,,4,2,42,7,,,,,,,,,,,,,,,AFNE08.jpg,AFSA08.jpg,AFNE01.jpg,AFSA11.jpg,AFNE01.jpg,FN,3,num_2,32,num_8,1.03354877443,,,2017_Aug_02_1545,60.004099338,FEMA4ImagesEEG,001,201088,
AFNE01.JPG,AFNE01.JPG,AFNE01.JPG,AFNE01.JPG,AFNE01.JPG,AFNE01.JPG,,,,,,,,,4,3,43,8,,,,,,,,,,,,,,,AFNE06.jpg,AFNE11.jpg,AFSA16.jpg,AFSA18.jpg,AFNE11.jpg,FN,3,num_6,16,num_6,0.8497502557,,,2017_Aug_02_1545,60.004099338,FEMA4ImagesEEG,001,201088,
AFNE01.JPG,AFNE01.JPG,AFNE01.JPG,AFNE01.JPG,AFNE01.JPG,AFNE01.JPG,,,,,,,,,4,4,44,1,,,,,,,,,,,,,,,AFNE18.jpg,AFNE14.jpg,AFSA18.jpg,AFSA11.jpg,AFNE18.jpg,FN,3,num_8,32,num_6,1.01676733093,,,2017_Aug_02_1545,60.004099338,FEMA4ImagesEEG,001,201088,
AFNE01.JPG,AFNE01.JPG,AFNE01.JPG,AFNE01.JPG,AFNE01.JPG,AFNE01.JPG,,,,,,,,,4,5,45,4,,,,,,,,,,,,,,,AFSA18.jpg,AFSA11.jpg,AFNE11.jpg,AFNE16.jpg,AFNE16.jpg,FN,3,num_4,16,num_4,1.18343063002,,,2017_Aug_02_1545,60.004099338,FEMA4ImagesEEG,001,201088,
AFNE01.JPG,AFNE01.JPG,AFNE01.JPG,AFNE01.JPG,AFNE01.JPG,AFNE01.JPG,,,,,,,,,4,6,46,2,,,,,,,,,,,,,,,AFNE10.jpg,AFSA14.jpg,AFNE11.jpg,AFSA17.jpg,AFNE10.jpg,FN,3,num_8,16,num_8,1.03341085627,,,2017_Aug_02_1545,60.004099338,FEMA4ImagesEEG,001,201088,
AFNE01.JPG,AFNE01.JPG,AFNE01.JPG,AFNE01.JPG,AFNE01.JPG,AFNE01.JPG,,,,,,,,,4,7,47,5,,,,,,,,,,,,,,,AFSA18.jpg,AFNE03.jpg,AFSA02.jpg,AFNE05.jpg,AFSA18.jpg,FS,4,num_8,32,num_2,1.30010112934,,,2017_Aug_02_1545,60.004099338,FEMA4ImagesEEG,001,201088,
AFNE01.JPG,AFNE01.JPG,AFNE01.JPG,AFNE01.JPG,AFNE01.JPG,AFNE01.JPG,,,,,,,,,4,8,48,9,,,,,,,,,,,,,,,AFSA03.jpg,AFSA04.jpg,AFNE15.jpg,AFNE09.jpg,AFNE15.jpg,FN,3,num_2,16,num_2,0.966788323363,,,2017_Aug_02_1545,60.004099338,FEMA4ImagesEEG,001,201088,
AFNE01.JPG,AFNE01.JPG,AFNE01.JPG,AFNE01.JPG,AFNE01.JPG,AFNE01.JPG,,,,,,,,,4,9,49,6,,,,,,,,,,,,,,,AFSA19.jpg,AFNE03.jpg,AFSA17.jpg,AFNE19.jpg,AFSA19.jpg,FS,4,num_8,32,num_4,1.33342378191,,,2017_Aug_02_1545,60.004099338,FEMA4ImagesEEG,001,201088,
AFNE01.JPG,AFNE01.JPG,AFNE01.JPG,AFNE01.JPG,AFNE01.JPG,AFNE01.JPG,,,,,,,,,5,0,50,4,,,,,,,,,,,,,,,AFNE08.jpg,AFNE18.jpg,AFSA06.jpg,AFSA08.jpg,AFSA08.jpg,FS,4,num_4,16,num_4,1.08345401194,,,2017_Aug_02_1545,60.004099338,FEMA4ImagesEEG,001,201088,
AFNE01.JPG,AFNE01.JPG,AFNE01.JPG,AFNE01.JPG,AFNE01.JPG,AFNE01.JPG,,,,,,,,,5,1,51,0,,,,,,,,,,,,,,,AFNE12.jpg,AFNE13.jpg,AFSA04.jpg,AFSA15.jpg,AFNE13.jpg,FN,3,num_6,32,num_8,1.23342503281,,,2017_Aug_02_1545,60.004099338,FEMA4ImagesEEG,001,201088,
AFNE01.JPG,AFNE01.JPG,AFNE01.JPG,AFNE01.JPG,AFNE01.JPG,AFNE01.JPG,,,,,,,,,5,2,52,1,,,,,,,,,,,,,,,AFSA09.jpg,AFNE05.jpg,AFNE15.jpg,AFSA12.jpg,AFNE05.jpg,FN,3,num_6,16,num_6,1.10001254105,,,2017_Aug_02_1545,60.004099338,FEMA4ImagesEEG,001,201088,
AFNE01.JPG,AFNE01.JPG,AFNE01.JPG,AFNE01.JPG,AFNE01.JPG,AFNE01.JPG,,,,,,,,,5,3,53,5,,,,,,,,,,,,,,,AFNE15.jpg,AFSA09.jpg,AFNE03.jpg,AFSA16.jpg,AFSA09.jpg,FS,4,num_6,16,num_6,1.06678995909,,,2017_Aug_02_1545,60.004099338,FEMA4ImagesEEG,001,201088,
AFNE01.JPG,AFNE01.JPG,AFNE01.JPG,AFNE01.JPG,AFNE01.JPG,AFNE01.JPG,,,,,,,,,5,4,54,8,,,,,,,,,,,,,,,AFSA10.jpg,AFNE03.jpg,AFNE11.jpg,AFSA06.jpg,AFNE11.jpg,FN,3,num_2,16,num_2,1.1167862867,,,2017_Aug_02_1545,60.004099338,FEMA4ImagesEEG,001,201088,
AFNE01.JPG,AFNE01.JPG,AFNE01.JPG,AFNE01.JPG,AFNE01.JPG,AFNE01.JPG,,,,,,,,,5,5,55,9,,,,,,,,,,,,,,,AFSA07.jpg,AFNE04.jpg,AFNE18.jpg,AFSA14.jpg,AFNE04.jpg,FN,3,num_6,16,num_6,0.866797271883,,,2017_Aug_02_1545,60.004099338,FEMA4ImagesEEG,001,201088,
AFNE01.JPG,AFNE01.JPG,AFNE01.JPG,AFNE01.JPG,AFNE01.JPG,AFNE01.JPG,,,,,,,,,5,6,56,7,,,,,,,,,,,,,,,AFSA12.jpg,AFSA11.jpg,AFNE13.jpg,AFNE07.jpg,AFNE07.jpg,FN,3,num_4,16,num_4,1.23340963735,,,2017_Aug_02_1545,60.004099338,FEMA4ImagesEEG,001,201088,
AFNE01.JPG,AFNE01.JPG,AFNE01.JPG,AFNE01.JPG,AFNE01.JPG,AFNE01.JPG,,,,,,,,,5,7,57,3,,,,,,,,,,,,,,,AFSA18.jpg,AFSA06.jpg,AFNE03.jpg,AFNE04.jpg,AFNE04.jpg,FN,3,num_4,32,num_6,1.28344862326,,,2017_Aug_02_1545,60.004099338,FEMA4ImagesEEG,001,201088,
AFNE01.JPG,AFNE01.JPG,AFNE01.JPG,AFNE01.JPG,AFNE01.JPG,AFNE01.JPG,,,,,,,,,5,8,58,2,,,,,,,,,,,,,,,AFSA13.jpg,AFSA03.jpg,AFNE01.jpg,AFNE04.jpg,AFSA13.jpg,FS,4,num_8,16,num_8,1.03342849691,,,2017_Aug_02_1545,60.004099338,FEMA4ImagesEEG,001,201088,
AFNE01.JPG,AFNE01.JPG,AFNE01.JPG,AFNE01.JPG,AFNE01.JPG,AFNE01.JPG,,,,,,,,,5,9,59,6,,,,,,,,,,,,,,,AFNE19.jpg,AFSA19.jpg,AFSA14.jpg,AFNE20.jpg,AFSA19.jpg,FS,4,num_6,16,num_6,0.800140099134,,,2017_Aug_02_1545,60.004099338,FEMA4ImagesEEG,001,201088,
,,,,,,,,,,,,,,,,,,,,,,,,,,,,,,,,,,,,,,,,,,,space,1.98335005995,2017_Aug_02_1545,60.004099338,FEMA4ImagesEEG,001,201088,
AFNE01.JPG,AFNE01.JPG,AFNE01.JPG,AFNE01.JPG,AFNE01.JPG,AFNE01.JPG,,,,,,,,,,,,,0,0,0,4,,,,,,,,,,,AMSA09.jpg,AMNE01.jpg,AMSA18.jpg,AMNE06.jpg,AMNE01.jpg,MN,1,num_6,16,num_6,0.91677884548,,,2017_Aug_02_1545,60.004099338,FEMA4ImagesEEG,001,201088,
AFNE01.JPG,AFNE01.JPG,AFNE01.JPG,AFNE01.JPG,AFNE01.JPG,AFNE01.JPG,,,,,,,,,,,,,0,1,1,3,,,,,,,,,,,AMNE18.jpg,AMSA10.jpg,AMSA01.jpg,AMNE16.jpg,AMSA10.jpg,MS,2,num_6,16,num_6,0.883520982461,,,2017_Aug_02_1545,60.004099338,FEMA4ImagesEEG,001,201088,
AFNE01.JPG,AFNE01.JPG,AFNE01.JPG,AFNE01.JPG,AFNE01.JPG,AFNE01.JPG,,,,,,,,,,,,,0,2,2,5,,,,,,,,,,,AMSA09.jpg,AMNE19.jpg,AMNE11.jpg,AMSA06.jpg,AMSA06.jpg,MS,2,num_4,32,num_8,0.683495258912,,,2017_Aug_02_1545,60.004099338,FEMA4ImagesEEG,001,201088,
AFNE01.JPG,AFNE01.JPG,AFNE01.JPG,AFNE01.JPG,AFNE01.JPG,AFNE01.JPG,,,,,,,,,,,,,0,3,3,6,,,,,,,,,,,AMNE03.jpg,AMSA10.jpg,AMNE19.jpg,AMSA04.jpg,AMSA10.jpg,MS,2,num_6,32,num_2,1.08347902959,,,2017_Aug_02_1545,60.004099338,FEMA4ImagesEEG,001,201088,
AFNE01.JPG,AFNE01.JPG,AFNE01.JPG,AFNE01.JPG,AFNE01.JPG,AFNE01.JPG,,,,,,,,,,,,,0,4,4,1,,,,,,,,,,,AMNE09.jpg,AMSA09.jpg,AMNE20.jpg,AMSA13.jpg,AMSA09.jpg,MS,2,num_6,16,num_6,1.1170836126,,,2017_Aug_02_1545,60.004099338,FEMA4ImagesEEG,001,201088,
AFNE01.JPG,AFNE01.JPG,AFNE01.JPG,AFNE01.JPG,AFNE01.JPG,AFNE01.JPG,,,,,,,,,,,,,0,5,5,9,,,,,,,,,,,AMNE14.jpg,AMSA17.jpg,AMSA07.jpg,AMNE20.jpg,AMSA07.jpg,MS,2,num_2,16,num_2,0.800129514886,,,2017_Aug_02_1545,60.004099338,FEMA4ImagesEEG,001,201088,
AFNE01.JPG,AFNE01.JPG,AFNE01.JPG,AFNE01.JPG,AFNE01.JPG,AFNE01.JPG,,,,,,,,,,,,,0,6,6,8,,,,,,,,,,,AMNE06.jpg,AMSA16.jpg,AMNE12.jpg,AMSA03.jpg,AMSA03.jpg,MS,2,num_4,32,num_6,1.03347436269,,,2017_Aug_02_1545,60.004099338,FEMA4ImagesEEG,001,201088,
AFNE01.JPG,AFNE01.JPG,AFNE01.JPG,AFNE01.JPG,AFNE01.JPG,AFNE01.JPG,,,,,,,,,,,,,0,7,7,0,,,,,,,,,,,AMNE10.jpg,AMSA17.jpg,AMNE03.jpg,AMSA01.jpg,AMNE10.jpg,MN,1,num_8,16,num_8,0.866744349711,,,2017_Aug_02_1545,60.004099338,FEMA4ImagesEEG,001,201088,
AFNE01.JPG,AFNE01.JPG,AFNE01.JPG,AFNE01.JPG,AFNE01.JPG,AFNE01.JPG,,,,,,,,,,,,,0,8,8,7,,,,,,,,,,,AMSA06.jpg,AMNE04.jpg,AMSA18.jpg,AMNE03.jpg,AMSA06.jpg,MS,2,num_8,16,num_8,0.9502147194,,,2017_Aug_02_1545,60.004099338,FEMA4ImagesEEG,001,201088,
AFNE01.JPG,AFNE01.JPG,AFNE01.JPG,AFNE01.JPG,AFNE01.JPG,AFNE01.JPG,,,,,,,,,,,,,0,9,9,2,,,,,,,,,,,AMSA16.jpg,AMNE04.jpg,AMSA10.jpg,AMNE13.jpg,AMSA10.jpg,MS,2,num_2,16,num_2,0.850209234981,,,2017_Aug_02_1545,60.004099338,FEMA4ImagesEEG,001,201088,
AFNE01.JPG,AFNE01.JPG,AFNE01.JPG,AFNE01.JPG,AFNE01.JPG,AFNE01.JPG,,,,,,,,,,,,,1,0,10,9,,,,,,,,,,,AMSA05.jpg,AMSA14.jpg,AMNE04.jpg,AMNE11.jpg,AMNE11.jpg,MN,1,num_4,32,num_2,1.05013777409,,,2017_Aug_02_1545,60.004099338,FEMA4ImagesEEG,001,201088,
AFNE01.JPG,AFNE01.JPG,AFNE01.JPG,AFNE01.JPG,AFNE01.JPG,AFNE01.JPG,,,,,,,,,,,,,1,1,11,7,,,,,,,,,,,AMNE19.jpg,AMSA15.jpg,AMSA05.jpg,AMNE14.jpg,AMSA05.jpg,MS,2,num_2,32,num_6,1.00011450402,,,2017_Aug_02_1545,60.004099338,FEMA4ImagesEEG,001,201088,
AFNE01.JPG,AFNE01.JPG,AFNE01.JPG,AFNE01.JPG,AFNE01.JPG,AFNE01.JPG,,,,,,,,,,,,,1,2,12,0,,,,,,,,,,,AMNE16.jpg,AMSA03.jpg,AMNE09.jpg,AMSA13.jpg,AMNE16.jpg,MN,1,num_8,16,num_8,1.08295141184,,,2017_Aug_02_1545,60.004099338,FEMA4ImagesEEG,001,201088,
AFNE01.JPG,AFNE01.JPG,AFNE01.JPG,AFNE01.JPG,AFNE01.JPG,AFNE01.JPG,,,,,,,,,,,,,1,3,13,1,,,,,,,,,,,AMSA07.jpg,AMSA09.jpg,AMNE04.jpg,AMNE13.jpg,AMNE04.jpg,MN,1,num_2,16,num_2,0.816768870456,,,2017_Aug_02_1545,60.004099338,FEMA4ImagesEEG,001,201088,
AFNE01.JPG,AFNE01.JPG,AFNE01.JPG,AFNE01.JPG,AFNE01.JPG,AFNE01.JPG,,,,,,,,,,,,,1,4,14,8,,,,,,,,,,,AMNE14.jpg,AMSA15.jpg,AMNE10.jpg,AMSA08.jpg,AMSA08.jpg,MS,2,num_4,32,num_8,1.1334211519,,,2017_Aug_02_1545,60.004099338,FEMA4ImagesEEG,001,201088,
AFNE01.JPG,AFNE01.JPG,AFNE01.JPG,AFNE01.JPG,AFNE01.JPG,AFNE01.JPG,,,,,,,,,,,,,1,5,15,4,,,,,,,,,,,AMSA17.jpg,AMNE01.jpg,AMSA10.jpg,AMNE04.jpg,AMSA10.jpg,MS,2,num_2,16,num_2,0.917041852372,,,2017_Aug_02_1545,60.004099338,FEMA4ImagesEEG,001,201088,
AFNE01.JPG,AFNE01.JPG,AFNE01.JPG,AFNE01.JPG,AFNE01.JPG,AFNE01.JPG,,,,,,,,,,,,,1,6,16,2,,,,,,,,,,,AMSA19.jpg,AMSA12.jpg,AMNE13.jpg,AMNE02.jpg,AMNE13.jpg,MN,1,num_2,32,num_4,1.28346562269,,,2017_Aug_02_1545,60.004099338,FEMA4ImagesEEG,001,201088,
AFNE01.JPG,AFNE01.JPG,AFNE01.JPG,AFNE01.JPG,AFNE01.JPG,AFNE01.JPG,,,,,,,,,,,,,1,7,17,6,,,,,,,,,,,AMSA04.jpg,AMNE08.jpg,AMNE20.jpg,AMSA14.jpg,AMSA04.jpg,MS,2,num_8,16,num_8,1.16669633496,,,2017_Aug_02_1545,60.004099338,FEMA4ImagesEEG,001,201088,
AFNE01.JPG,AFNE01.JPG,AFNE01.JPG,AFNE01.JPG,AFNE01.JPG,AFNE01.JPG,,,,,,,,,,,,,1,8,18,3,,,,,,,,,,,AMNE14.jpg,AMNE20.jpg,AMSA15.jpg,AMSA20.jpg,AMNE20.jpg,MN,1,num_6,16,num_6,0.816821472021,,,2017_Aug_02_1545,60.004099338,FEMA4ImagesEEG,001,201088,
AFNE01.JPG,AFNE01.JPG,AFNE01.JPG,AFNE01.JPG,AFNE01.JPG,AFNE01.JPG,,,,,,,,,,,,,1,9,19,5,,,,,,,,,,,AMNE12.jpg,AMNE16.jpg,AMSA14.jpg,AMSA16.jpg,AMSA16.jpg,MS,2,num_4,16,num_4,1.16672552237,,,2017_Aug_02_1545,60.004099338,FEMA4ImagesEEG,001,201088,
AFNE01.JPG,AFNE01.JPG,AFNE01.JPG,AFNE01.JPG,AFNE01.JPG,AFNE01.JPG,,,,,,,,,,,,,2,0,20,2,,,,,,,,,,,AMSA06.jpg,AMNE08.jpg,AMNE17.jpg,AMSA12.jpg,AMSA12.jpg,MS,2,num_4,16,num_4,0.916776279453,,,2017_Aug_02_1545,60.004099338,FEMA4ImagesEEG,001,201088,
AFNE01.JPG,AFNE01.JPG,AFNE01.JPG,AFNE01.JPG,AFNE01.JPG,AFNE01.JPG,,,,,,,,,,,,,2,1,21,9,,,,,,,,,,,AMSA09.jpg,AMNE13.jpg,AMNE10.jpg,AMSA14.jpg,AMSA09.jpg,MS,2,num_8,16,num_8,1.7833955409,,,2017_Aug_02_1545,60.004099338,FEMA4ImagesEEG,001,201088,
AFNE01.JPG,AFNE01.JPG,AFNE01.JPG,AFNE01.JPG,AFNE01.JPG,AFNE01.JPG,,,,,,,,,,,,,2,2,22,1,,,,,,,,,,,AMSA09.jpg,AMNE17.jpg,AMNE19.jpg,AMSA03.jpg,AMNE17.jpg,MN,1,num_6,16,num_6,0.850107239326,,,2017_Aug_02_1545,60.004099338,FEMA4ImagesEEG,001,201088,
AFNE01.JPG,AFNE01.JPG,AFNE01.JPG,AFNE01.JPG,AFNE01.JPG,AFNE01.JPG,,,,,,,,,,,,,2,3,23,0,,,,,,,,,,,AMNE19.jpg,AMSA06.jpg,AMSA12.jpg,AMNE10.jpg,AMSA06.jpg,MS,2,num_6,16,num_6,1.1000956127,,,2017_Aug_02_1545,60.004099338,FEMA4ImagesEEG,001,201088,
AFNE01.JPG,AFNE01.JPG,AFNE01.JPG,AFNE01.JPG,AFNE01.JPG,AFNE01.JPG,,,,,,,,,,,,,2,4,24,4,,,,,,,,,,,AMSA06.jpg,AMNE01.jpg,AMSA14.jpg,AMNE08.jpg,AMSA14.jpg,MS,2,num_2,32,num_4,1.28346818849,,,2017_Aug_02_1545,60.004099338,FEMA4ImagesEEG,001,201088,
AFNE01.JPG,AFNE01.JPG,AFNE01.JPG,AFNE01.JPG,AFNE01.JPG,AFNE01.JPG,,,,,,,,,,,,,2,5,25,7,,,,,,,,,,,AMSA09.jpg,AMNE03.jpg,AMSA03.jpg,AMNE11.jpg,AMNE03.jpg,MN,1,num_6,32,num_4,1.21677252697,,,2017_Aug_02_1545,60.004099338,FEMA4ImagesEEG,001,201088,
AFNE01.JPG,AFNE01.JPG,AFNE01.JPG,AFNE01.JPG,AFNE01.JPG,AFNE01.JPG,,,,,,,,,,,,,2,6,26,5,,,,,,,,,,,AMNE09.jpg,AMNE15.jpg,AMSA04.jpg,AMSA11.jpg,AMNE15.jpg,MN,1,num_6,16,num_6,0.600034832256,,,2017_Aug_02_1545,60.004099338,FEMA4ImagesEEG,001,201088,
AFNE01.JPG,AFNE01.JPG,AFNE01.JPG,AFNE01.JPG,AFNE01.JPG,AFNE01.JPG,,,,,,,,,,,,,2,7,27,8,,,,,,,,,,,AMNE01.jpg,AMSA07.jpg,AMSA19.jpg,AMNE07.jpg,AMNE07.jpg,MN,1,num_4,16,num_4,1.30008797906,,,2017_Aug_02_1545,60.004099338,FEMA4ImagesEEG,001,201088,
AFNE01.JPG,AFNE01.JPG,AFNE01.JPG,AFNE01.JPG,AFNE01.JPG,AFNE01.JPG,,,,,,,,,,,,,2,8,28,6,,,,,,,,,,,AMSA16.jpg,AMNE18.jpg,AMNE03.jpg,AMSA14.jpg,AMNE18.jpg,MN,1,num_6,32,num_4,1.25009453809,,,2017_Aug_02_1545,60.004099338,FEMA4ImagesEEG,001,201088,
AFNE01.JPG,AFNE01.JPG,AFNE01.JPG,AFNE01.JPG,AFNE01.JPG,AFNE01.JPG,,,,,,,,,,,,,2,9,29,3,,,,,,,,,,,AMSA07.jpg,AMNE09.jpg,AMNE07.jpg,AMSA08.jpg,AMNE07.jpg,MN,1,num_2,16,num_2,1.21676482912,,,2017_Aug_02_1545,60.004099338,FEMA4ImagesEEG,001,201088,
AFNE01.JPG,AFNE01.JPG,AFNE01.JPG,AFNE01.JPG,AFNE01.JPG,AFNE01.JPG,,,,,,,,,,,,,3,0,30,0,,,,,,,,,,,AMSA03.jpg,AMNE01.jpg,AMNE09.jpg,AMSA18.jpg,AMSA03.jpg,MS,2,num_8,16,num_8,1.18311149348,,,2017_Aug_02_1545,60.004099338,FEMA4ImagesEEG,001,201088,
AFNE01.JPG,AFNE01.JPG,AFNE01.JPG,AFNE01.JPG,AFNE01.JPG,AFNE01.JPG,,,,,,,,,,,,,3,1,31,8,,,,,,,,,,,AMNE05.jpg,AMSA06.jpg,AMSA04.jpg,AMNE06.jpg,AMNE06.jpg,MN,1,num_4,16,num_4,1.2669548837,,,2017_Aug_02_1545,60.004099338,FEMA4ImagesEEG,001,201088,
AFNE01.JPG,AFNE01.JPG,AFNE01.JPG,AFNE01.JPG,AFNE01.JPG,AFNE01.JPG,,,,,,,,,,,,,3,2,32,9,,,,,,,,,,,AMSA09.jpg,AMNE05.jpg,AMSA03.jpg,AMNE17.jpg,AMSA03.jpg,MS,2,num_2,16,num_2,1.13347760239,,,2017_Aug_02_1545,60.004099338,FEMA4ImagesEEG,001,201088,
AFNE01.JPG,AFNE01.JPG,AFNE01.JPG,AFNE01.JPG,AFNE01.JPG,AFNE01.JPG,,,,,,,,,,,,,3,3,33,3,,,,,,,,,,,AMNE15.jpg,AMNE03.jpg,AMSA11.jpg,AMSA14.jpg,AMSA14.jpg,MS,2,num_4,16,num_4,1.45043266239,,,2017_Aug_02_1545,60.004099338,FEMA4ImagesEEG,001,201088,
AFNE01.JPG,AFNE01.JPG,AFNE01.JPG,AFNE01.JPG,AFNE01.JPG,AFNE01.JPG,,,,,,,,,,,,,3,4,34,6,,,,,,,,,,,AMSA13.jpg,AMSA06.jpg,AMNE01.jpg,AMNE14.jpg,AMNE01.jpg,MN,1,num_2,16,num_2,1.000138239,,,2017_Aug_02_1545,60.004099338,FEMA4ImagesEEG,001,201088,
AFNE01.JPG,AFNE01.JPG,AFNE01.JPG,AFNE01.JPG,AFNE01.JPG,AFNE01.JPG,,,,,,,,,,,,,3,5,35,2,,,,,,,,,,,AMSA06.jpg,AMNE06.jpg,AMSA12.jpg,AMNE13.jpg,AMNE13.jpg,MN,1,num_4,32,num_6,1.11677249498,,,2017_Aug_02_1545,60.004099338,FEMA4ImagesEEG,001,201088,
AFNE01.JPG,AFNE01.JPG,AFNE01.JPG,AFNE01.JPG,AFNE01.JPG,AFNE01.JPG,,,,,,,,,,,,,3,6,36,4,,,,,,,,,,,AMSA04.jpg,AMNE10.jpg,AMSA05.jpg,AMNE05.jpg,AMSA05.jpg,MS,2,num_2,16,num_2,1.08340814593,,,2017_Aug_02_1545,60.004099338,FEMA4ImagesEEG,001,201088,
AFNE01.JPG,AFNE01.JPG,AFNE01.JPG,AFNE01.JPG,AFNE01.JPG,AFNE01.JPG,,,,,,,,,,,,,3,7,37,1,,,,,,,,,,,AMNE12.jpg,AMNE19.jpg,AMSA07.jpg,AMSA03.jpg,AMSA07.jpg,MS,2,num_2,16,num_2,0.900126660243,,,2017_Aug_02_1545,60.004099338,FEMA4ImagesEEG,001,201088,
AFNE01.JPG,AFNE01.JPG,AFNE01.JPG,AFNE01.JPG,AFNE01.JPG,AFNE01.JPG,,,,,,,,,,,,,3,8,38,7,,,,,,,,,,,AMNE19.jpg,AMNE20.jpg,AMSA04.jpg,AMSA15.jpg,AMNE19.jpg,MN,1,num_8,16,num_8,1.13341441657,,,2017_Aug_02_1545,60.004099338,FEMA4ImagesEEG,001,201088,
AFNE01.JPG,AFNE01.JPG,AFNE01.JPG,AFNE01.JPG,AFNE01.JPG,AFNE01.JPG,,,,,,,,,,,,,3,9,39,5,,,,,,,,,,,AMNE09.jpg,AMSA08.jpg,AMSA16.jpg,AMNE18.jpg,AMSA08.jpg,MS,2,num_6,16,num_6,1.1500534513,,,2017_Aug_02_1545,60.004099338,FEMA4ImagesEEG,001,201088,
AFNE01.JPG,AFNE01.JPG,AFNE01.JPG,AFNE01.JPG,AFNE01.JPG,AFNE01.JPG,,,,,,,,,,,,,4,0,40,3,,,,,,,,,,,AMNE01.jpg,AMSA19.jpg,AMNE10.jpg,AMSA12.jpg,AMSA12.jpg,MS,2,num_4,16,num_4,0.98344660271,,,2017_Aug_02_1545,60.004099338,FEMA4ImagesEEG,001,201088,
AFNE01.JPG,AFNE01.JPG,AFNE01.JPG,AFNE01.JPG,AFNE01.JPG,AFNE01.JPG,,,,,,,,,,,,,4,1,41,9,,,,,,,,,,,AMNE06.jpg,AMNE03.jpg,AMSA03.jpg,AMSA17.jpg,AMSA03.jpg,MS,2,num_2,16,num_2,1.15010733553,,,2017_Aug_02_1545,60.004099338,FEMA4ImagesEEG,001,201088,
AFNE01.JPG,AFNE01.JPG,AFNE01.JPG,AFNE01.JPG,AFNE01.JPG,AFNE01.JPG,,,,,,,,,,,,,4,2,42,5,,,,,,,,,,,AMSA11.jpg,AMSA20.jpg,AMNE06.jpg,AMNE04.jpg,AMSA11.jpg,MS,2,num_8,16,num_8,1.11679687095,,,2017_Aug_02_1545,60.004099338,FEMA4ImagesEEG,001,201088,
AFNE01.JPG,AFNE01.JPG,AFNE01.JPG,AFNE01.JPG,AFNE01.JPG,AFNE01.JPG,,,,,,,,,,,,,4,3,43,6,,,,,,,,,,,AMSA14.jpg,AMNE12.jpg,AMSA02.jpg,AMNE04.jpg,AMSA14.jpg,MS,2,num_8,16,num_8,0.866787970532,,,2017_Aug_02_1545,60.004099338,FEMA4ImagesEEG,001,201088,
AFNE01.JPG,AFNE01.JPG,AFNE01.JPG,AFNE01.JPG,AFNE01.JPG,AFNE01.JPG,,,,,,,,,,,,,4,4,44,4,,,,,,,,,,,AMNE02.jpg,AMSA05.jpg,AMNE16.jpg,AMSA11.jpg,AMSA05.jpg,MS,2,num_6,32,num_4,1.15011054324,,,2017_Aug_02_1545,60.004099338,FEMA4ImagesEEG,001,201088,
AFNE01.JPG,AFNE01.JPG,AFNE01.JPG,AFNE01.JPG,AFNE01.JPG,AFNE01.JPG,,,,,,,,,,,,,4,5,45,8,,,,,,,,,,,AMSA08.jpg,AMNE10.jpg,AMNE09.jpg,AMSA05.jpg,AMNE09.jpg,MN,1,num_2,16,num_2,0.933476255042,,,2017_Aug_02_1545,60.004099338,FEMA4ImagesEEG,001,201088,
AFNE01.JPG,AFNE01.JPG,AFNE01.JPG,AFNE01.JPG,AFNE01.JPG,AFNE01.JPG,,,,,,,,,,,,,4,6,46,0,,,,,,,,,,,AMSA05.jpg,AMNE05.jpg,AMNE15.jpg,AMSA01.jpg,AMNE05.jpg,MN,1,num_6,32,num_8,0.883461324731,,,2017_Aug_02_1545,60.004099338,FEMA4ImagesEEG,001,201088,
AFNE01.JPG,AFNE01.JPG,AFNE01.JPG,AFNE01.JPG,AFNE01.JPG,AFNE01.JPG,,,,,,,,,,,,,4,7,47,2,,,,,,,,,,,AMSA08.jpg,AMNE17.jpg,AMNE14.jpg,AMSA19.jpg,AMNE17.jpg,MN,1,num_6,16,num_6,0.800114760874,,,2017_Aug_02_1545,60.004099338,FEMA4ImagesEEG,001,201088,
AFNE01.JPG,AFNE01.JPG,AFNE01.JPG,AFNE01.JPG,AFNE01.JPG,AFNE01.JPG,,,,,,,,,,,,,4,8,48,7,,,,,,,,,,,AMSA16.jpg,AMNE09.jpg,AMSA06.jpg,AMNE15.jpg,AMNE09.jpg,MN,1,num_6,32,num_2,1.2667412709,,,2017_Aug_02_1545,60.004099338,FEMA4ImagesEEG,001,201088,
AFNE01.JPG,AFNE01.JPG,AFNE01.JPG,AFNE01.JPG,AFNE01.JPG,AFNE01.JPG,,,,,,,,,,,,,4,9,49,1,,,,,,,,,,,AMNE09.jpg,AMSA19.jpg,AMNE12.jpg,AMSA06.jpg,AMNE09.jpg,MN,1,num_8,32,num_2,0.866765839281,,,2017_Aug_02_1545,60.004099338,FEMA4ImagesEEG,001,201088,
AFNE01.JPG,AFNE01.JPG,AFNE01.JPG,AFNE01.JPG,AFNE01.JPG,AFNE01.JPG,,,,,,,,,,,,,5,0,50,1,,,,,,,,,,,AMSA03.jpg,AMNE05.jpg,AMNE12.jpg,AMSA08.jpg,AMNE12.jpg,MN,1,num_2,32,num_6,0.783491121372,,,2017_Aug_02_1545,60.004099338,FEMA4ImagesEEG,001,201088,
AFNE01.JPG,AFNE01.JPG,AFNE01.JPG,AFNE01.JPG,AFNE01.JPG,AFNE01.JPG,,,,,,,,,,,,,5,1,51,2,,,,,,,,,,,AMSA12.jpg,AMNE12.jpg,AMSA19.jpg,AMNE17.jpg,AMNE17.jpg,MN,1,num_4,16,num_4,0.93348812242,,,2017_Aug_02_1545,60.004099338,FEMA4ImagesEEG,001,201088,
AFNE01.JPG,AFNE01.JPG,AFNE01.JPG,AFNE01.JPG,AFNE01.JPG,AFNE01.JPG,,,,,,,,,,,,,5,2,52,5,,,,,,,,,,,AMSA18.jpg,AMNE06.jpg,AMSA06.jpg,AMNE17.jpg,AMSA18.jpg,MS,2,num_8,16,num_8,0.816774323117,,,2017_Aug_02_1545,60.004099338,FEMA4ImagesEEG,001,201088,
AFNE01.JPG,AFNE01.JPG,AFNE01.JPG,AFNE01.JPG,AFNE01.JPG,AFNE01.JPG,,,,,,,,,,,,,5,3,53,9,,,,,,,,,,,AMSA11.jpg,AMNE14.jpg,AMSA09.jpg,AMNE02.jpg,AMNE02.jpg,MN,1,num_4,16,num_4,1.09996507154,,,2017_Aug_02_1545,60.004099338,FEMA4ImagesEEG,001,201088,
AFNE01.JPG,AFNE01.JPG,AFNE01.JPG,AFNE01.JPG,AFNE01.JPG,AFNE01.JPG,,,,,,,,,,,,,5,4,54,4,,,,,,,,,,,AMSA17.jpg,AMNE16.jpg,AMSA10.jpg,AMNE01.jpg,AMNE01.jpg,MN,1,num_4,16,num_4,1.03342272365,,,2017_Aug_02_1545,60.004099338,FEMA4ImagesEEG,001,201088,
AFNE01.JPG,AFNE01.JPG,AFNE01.JPG,AFNE01.JPG,AFNE01.JPG,AFNE01.JPG,,,,,,,,,,,,,5,5,55,8,,,,,,,,,,,AMSA10.jpg,AMNE04.jpg,AMNE19.jpg,AMSA11.jpg,AMSA11.jpg,MS,2,num_4,32,num_8,1.0667533949,,,2017_Aug_02_1545,60.004099338,FEMA4ImagesEEG,001,201088,
AFNE01.JPG,AFNE01.JPG,AFNE01.JPG,AFNE01.JPG,AFNE01.JPG,AFNE01.JPG,,,,,,,,,,,,,5,6,56,0,,,,,,,,,,,AMSA12.jpg,AMSA09.jpg,AMNE17.jpg,AMNE09.jpg,AMNE09.jpg,MN,1,num_4,16,num_4,0.866787970532,,,2017_Aug_02_1545,60.004099338,FEMA4ImagesEEG,001,201088,
AFNE01.JPG,AFNE01.JPG,AFNE01.JPG,AFNE01.JPG,AFNE01.JPG,AFNE01.JPG,,,,,,,,,,,,,5,7,57,6,,,,,,,,,,,AMNE12.jpg,AMNE02.jpg,AMSA10.jpg,AMSA20.jpg,AMNE12.jpg,MN,1,num_8,16,num_8,0.866752047557,,,2017_Aug_02_1545,60.004099338,FEMA4ImagesEEG,001,201088,
AFNE01.JPG,AFNE01.JPG,AFNE01.JPG,AFNE01.JPG,AFNE01.JPG,AFNE01.JPG,,,,,,,,,,,,,5,8,58,7,,,,,,,,,,,AMNE04.jpg,AMSA12.jpg,AMSA10.jpg,AMNE15.jpg,AMNE15.jpg,MN,1,num_4,16,num_4,0.816809925251,,,2017_Aug_02_1545,60.004099338,FEMA4ImagesEEG,001,201088,
AFNE01.JPG,AFNE01.JPG,AFNE01.JPG,AFNE01.JPG,AFNE01.JPG,AFNE01.JPG,,,,,,,,,,,,,5,9,59,3,,,,,,,,,,,AMSA04.jpg,AMSA15.jpg,AMNE12.jpg,AMNE17.jpg,AMNE17.jpg,MN,1,num_4,32,num_2,0.983442753786,,,2017_Aug_02_1545,60.004099338,FEMA4ImagesEEG,001,201088,
,,,,,,,,,,,,,,,,,,,,,,,,,,,,,,,,,,,,,,,,,,,space,10.8493085965,2017_Aug_02_1545,60.004099338,FEMA4ImagesEEG,001,201088,
AFNE01.JPG,AFNE01.JPG,AFNE01.JPG,AFNE01.JPG,AFNE01.JPG,AFNE01.JPG,,,,,,,,,,,,,,,,,0,0,0,8,,,,,,,AFNE06.jpg,AFSA01.jpg,AFNE05.jpg,AFSA02.jpg,AFNE05.jpg,FN,3,num_2,32,num_8,1.25010448112,,,2017_Aug_02_1545,60.004099338,FEMA4ImagesEEG,001,201088,
AFNE01.JPG,AFNE01.JPG,AFNE01.JPG,AFNE01.JPG,AFNE01.JPG,AFNE01.JPG,,,,,,,,,,,,,,,,,0,1,1,6,,,,,,,AFNE13.jpg,AFSA19.jpg,AFNE11.jpg,AFSA13.jpg,AFNE13.jpg,FN,3,num_8,32,num_6,0.850150218466,,,2017_Aug_02_1545,60.004099338,FEMA4ImagesEEG,001,201088,
AFNE01.JPG,AFNE01.JPG,AFNE01.JPG,AFNE01.JPG,AFNE01.JPG,AFNE01.JPG,,,,,,,,,,,,,,,,,0,2,2,4,,,,,,,AFSA20.jpg,AFSA07.jpg,AFNE08.jpg,AFNE02.jpg,AFNE08.jpg,FN,3,num_2,16,num_2,1.13340960536,,,2017_Aug_02_1545,60.004099338,FEMA4ImagesEEG,001,201088,
AFNE01.JPG,AFNE01.JPG,AFNE01.JPG,AFNE01.JPG,AFNE01.JPG,AFNE01.JPG,,,,,,,,,,,,,,,,,0,3,3,2,,,,,,,AFNE02.jpg,AFNE18.jpg,AFSA17.jpg,AFSA12.jpg,AFSA12.jpg,FS,4,num_4,16,num_4,0.800127590541,,,2017_Aug_02_1545,60.004099338,FEMA4ImagesEEG,001,201088,
AFNE01.JPG,AFNE01.JPG,AFNE01.JPG,AFNE01.JPG,AFNE01.JPG,AFNE01.JPG,,,,,,,,,,,,,,,,,0,4,4,0,,,,,,,AFNE11.jpg,AFNE02.jpg,AFSA20.jpg,AFSA07.jpg,AFSA07.jpg,FS,4,num_4,16,num_4,1.06653785752,,,2017_Aug_02_1545,60.004099338,FEMA4ImagesEEG,001,201088,
AFNE01.JPG,AFNE01.JPG,AFNE01.JPG,AFNE01.JPG,AFNE01.JPG,AFNE01.JPG,,,,,,,,,,,,,,,,,0,5,5,7,,,,,,,AFNE19.jpg,AFSA01.jpg,AFSA12.jpg,AFNE15.jpg,AFSA12.jpg,FS,4,num_2,16,num_2,0.93334378954,,,2017_Aug_02_1545,60.004099338,FEMA4ImagesEEG,001,201088,
AFNE01.JPG,AFNE01.JPG,AFNE01.JPG,AFNE01.JPG,AFNE01.JPG,AFNE01.JPG,,,,,,,,,,,,,,,,,0,6,6,1,,,,,,,AFNE13.jpg,AFSA02.jpg,AFSA05.jpg,AFNE06.jpg,AFNE13.jpg,FN,3,num_8,16,num_8,1.20007960754,,,2017_Aug_02_1545,60.004099338,FEMA4ImagesEEG,001,201088,
AFNE01.JPG,AFNE01.JPG,AFNE01.JPG,AFNE01.JPG,AFNE01.JPG,AFNE01.JPG,,,,,,,,,,,,,,,,,0,7,7,5,,,,,,,AFSA03.jpg,AFNE17.jpg,AFSA11.jpg,AFNE14.jpg,AFSA11.jpg,FS,4,num_2,32,num_8,0.866757179378,,,2017_Aug_02_1545,60.004099338,FEMA4ImagesEEG,001,201088,
AFNE01.JPG,AFNE01.JPG,AFNE01.JPG,AFNE01.JPG,AFNE01.JPG,AFNE01.JPG,,,,,,,,,,,,,,,,,0,8,8,3,,,,,,,AFNE07.jpg,AFSA16.jpg,AFNE01.jpg,AFSA05.jpg,AFSA16.jpg,FS,4,num_6,16,num_6,1.03340764879,,,2017_Aug_02_1545,60.004099338,FEMA4ImagesEEG,001,201088,
AFNE01.JPG,AFNE01.JPG,AFNE01.JPG,AFNE01.JPG,AFNE01.JPG,AFNE01.JPG,,,,,,,,,,,,,,,,,0,9,9,9,,,,,,,AFNE02.jpg,AFSA04.jpg,AFNE06.jpg,AFSA16.jpg,AFSA04.jpg,FS,4,num_6,16,num_6,0.533506918,,,2017_Aug_02_1545,60.004099338,FEMA4ImagesEEG,001,201088,
AFNE01.JPG,AFNE01.JPG,AFNE01.JPG,AFNE01.JPG,AFNE01.JPG,AFNE01.JPG,,,,,,,,,,,,,,,,,1,0,10,5,,,,,,,AFSA03.jpg,AFNE04.jpg,AFNE09.jpg,AFSA10.jpg,AFSA10.jpg,FS,4,num_4,16,num_4,1.1333287789,,,2017_Aug_02_1545,60.004099338,FEMA4ImagesEEG,001,201088,
AFNE01.JPG,AFNE01.JPG,AFNE01.JPG,AFNE01.JPG,AFNE01.JPG,AFNE01.JPG,,,,,,,,,,,,,,,,,1,1,11,7,,,,,,,AFNE08.jpg,AFNE04.jpg,AFSA07.jpg,AFSA02.jpg,AFNE04.jpg,FN,3,num_6,32,num_8,1.05013007601,,,2017_Aug_02_1545,60.004099338,FEMA4ImagesEEG,001,201088,
AFNE01.JPG,AFNE01.JPG,AFNE01.JPG,AFNE01.JPG,AFNE01.JPG,AFNE01.JPG,,,,,,,,,,,,,,,,,1,2,12,2,,,,,,,AFNE06.jpg,AFSA17.jpg,AFSA01.jpg,AFNE11.jpg,AFSA01.jpg,FS,4,num_2,16,num_2,1.00010520266,,,2017_Aug_02_1545,60.004099338,FEMA4ImagesEEG,001,201088,
AFNE01.JPG,AFNE01.JPG,AFNE01.JPG,AFNE01.JPG,AFNE01.JPG,AFNE01.JPG,,,,,,,,,,,,,,,,,1,3,13,8,,,,,,,AFNE18.jpg,AFNE12.jpg,AFSA17.jpg,AFSA16.jpg,AFNE18.jpg,FN,3,num_8,32,num_6,0.800169286551,,,2017_Aug_02_1545,60.004099338,FEMA4ImagesEEG,001,201088,
AFNE01.JPG,AFNE01.JPG,AFNE01.JPG,AFNE01.JPG,AFNE01.JPG,AFNE01.JPG,,,,,,,,,,,,,,,,,1,4,14,6,,,,,,,AFSA09.jpg,AFSA13.jpg,AFNE14.jpg,AFNE19.jpg,AFNE19.jpg,FN,3,num_4,32,num_8,0.849972528638,,,2017_Aug_02_1545,60.004099338,FEMA4ImagesEEG,001,201088,
AFNE01.JPG,AFNE01.JPG,AFNE01.JPG,AFNE01.JPG,AFNE01.JPG,AFNE01.JPG,,,,,,,,,,,,,,,,,1,5,15,9,,,,,,,AFNE13.jpg,AFNE01.jpg,AFSA09.jpg,AFSA12.jpg,AFSA09.jpg,FS,4,num_2,16,num_2,0.883348744828,,,2017_Aug_02_1545,60.004099338,FEMA4ImagesEEG,001,201088,
AFNE01.JPG,AFNE01.JPG,AFNE01.JPG,AFNE01.JPG,AFNE01.JPG,AFNE01.JPG,,,,,,,,,,,,,,,,,1,6,16,3,,,,,,,AFNE18.jpg,AFSA15.jpg,AFNE14.jpg,AFSA04.jpg,AFSA15.jpg,FS,4,num_6,16,num_6,0.750119716162,,,2017_Aug_02_1545,60.004099338,FEMA4ImagesEEG,001,201088,
AFNE01.JPG,AFNE01.JPG,AFNE01.JPG,AFNE01.JPG,AFNE01.JPG,AFNE01.JPG,,,,,,,,,,,,,,,,,1,7,17,0,,,,,,,AFSA17.jpg,AFNE01.jpg,AFNE18.jpg,AFSA13.jpg,AFNE18.jpg,FN,3,num_2,32,num_6,1.28342713369,,,2017_Aug_02_1545,60.004099338,FEMA4ImagesEEG,001,201088,
AFNE01.JPG,AFNE01.JPG,AFNE01.JPG,AFNE01.JPG,AFNE01.JPG,AFNE01.JPG,,,,,,,,,,,,,,,,,1,8,18,1,,,,,,,AFSA17.jpg,AFSA14.jpg,AFNE12.jpg,AFNE20.jpg,AFNE20.jpg,FN,3,num_4,32,num_8,0.850093447603,,,2017_Aug_02_1545,60.004099338,FEMA4ImagesEEG,001,201088,
AFNE01.JPG,AFNE01.JPG,AFNE01.JPG,AFNE01.JPG,AFNE01.JPG,AFNE01.JPG,,,,,,,,,,,,,,,,,1,9,19,4,,,,,,,AFSA07.jpg,AFNE13.jpg,AFSA11.jpg,AFNE07.jpg,AFSA07.jpg,FS,4,num_8,32,num_6,0.833539729705,,,2017_Aug_02_1545,60.004099338,FEMA4ImagesEEG,001,201088,
AFNE01.JPG,AFNE01.JPG,AFNE01.JPG,AFNE01.JPG,AFNE01.JPG,AFNE01.JPG,,,,,,,,,,,,,,,,,2,0,20,4,,,,,,,AFSA05.jpg,AFNE17.jpg,AFNE13.jpg,AFSA13.jpg,AFNE13.jpg,FN,3,num_2,32,num_6,1.01673814352,,,2017_Aug_02_1545,60.004099338,FEMA4ImagesEEG,001,201088,
AFNE01.JPG,AFNE01.JPG,AFNE01.JPG,AFNE01.JPG,AFNE01.JPG,AFNE01.JPG,,,,,,,,,,,,,,,,,2,1,21,9,,,,,,,AFNE01.jpg,AFSA06.jpg,AFNE04.jpg,AFSA16.jpg,AFSA16.jpg,FS,4,num_4,16,num_4,1.31671739183,,,2017_Aug_02_1545,60.004099338,FEMA4ImagesEEG,001,201088,
AFNE01.JPG,AFNE01.JPG,AFNE01.JPG,AFNE01.JPG,AFNE01.JPG,AFNE01.JPG,,,,,,,,,,,,,,,,,2,2,22,1,,,,,,,AFNE20.jpg,AFSA18.jpg,AFSA19.jpg,AFNE01.jpg,AFSA18.jpg,FS,4,num_6,16,num_6,0.950125233037,,,2017_Aug_02_1545,60.004099338,FEMA4ImagesEEG,001,201088,
AFNE01.JPG,AFNE01.JPG,AFNE01.JPG,AFNE01.JPG,AFNE01.JPG,AFNE01.JPG,,,,,,,,,,,,,,,,,2,3,23,0,,,,,,,AFSA07.jpg,AFNE15.jpg,AFSA03.jpg,AFNE03.jpg,AFNE03.jpg,FN,3,num_4,16,num_4,1.00014080503,,,2017_Aug_02_1545,60.004099338,FEMA4ImagesEEG,001,201088,
AFNE01.JPG,AFNE01.JPG,AFNE01.JPG,AFNE01.JPG,AFNE01.JPG,AFNE01.JPG,,,,,,,,,,,,,,,,,2,4,24,7,,,,,,,AFNE17.jpg,AFNE12.jpg,AFSA03.jpg,AFSA04.jpg,AFSA03.jpg,FS,4,num_2,16,num_2,0.866622148082,,,2017_Aug_02_1545,60.004099338,FEMA4ImagesEEG,001,201088,
AFNE01.JPG,AFNE01.JPG,AFNE01.JPG,AFNE01.JPG,AFNE01.JPG,AFNE01.JPG,,,,,,,,,,,,,,,,,2,5,25,8,,,,,,,AFNE02.jpg,AFSA08.jpg,AFSA10.jpg,AFNE15.jpg,AFSA10.jpg,FS,4,num_2,16,num_2,1.13343815133,,,2017_Aug_02_1545,60.004099338,FEMA4ImagesEEG,001,201088,
AFNE01.JPG,AFNE01.JPG,AFNE01.JPG,AFNE01.JPG,AFNE01.JPG,AFNE01.JPG,,,,,,,,,,,,,,,,,2,6,26,3,,,,,,,AFSA06.jpg,AFSA05.jpg,AFNE06.jpg,AFNE05.jpg,AFSA06.jpg,FS,4,num_8,16,num_8,0.966778380331,,,2017_Aug_02_1545,60.004099338,FEMA4ImagesEEG,001,201088,
AFNE01.JPG,AFNE01.JPG,AFNE01.JPG,AFNE01.JPG,AFNE01.JPG,AFNE01.JPG,,,,,,,,,,,,,,,,,2,7,27,5,,,,,,,AFNE19.jpg,AFNE06.jpg,AFSA04.jpg,AFSA17.jpg,AFSA04.jpg,FS,4,num_2,16,num_2,1.21677990397,,,2017_Aug_02_1545,60.004099338,FEMA4ImagesEEG,001,201088,
AFNE01.JPG,AFNE01.JPG,AFNE01.JPG,AFNE01.JPG,AFNE01.JPG,AFNE01.JPG,,,,,,,,,,,,,,,,,2,8,28,6,,,,,,,AFNE07.jpg,AFNE10.jpg,AFSA15.jpg,AFSA17.jpg,AFNE10.jpg,FN,3,num_6,32,num_8,1.00002245186,,,2017_Aug_02_1545,60.004099338,FEMA4ImagesEEG,001,201088,
AFNE01.JPG,AFNE01.JPG,AFNE01.JPG,AFNE01.JPG,AFNE01.JPG,AFNE01.JPG,,,,,,,,,,,,,,,,,2,9,29,2,,,,,,,AFNE08.jpg,AFSA09.jpg,AFSA06.jpg,AFNE20.jpg,AFNE20.jpg,FN,3,num_4,16,num_4,1.08345818147,,,2017_Aug_02_1545,60.004099338,FEMA4ImagesEEG,001,201088,
AFNE01.JPG,AFNE01.JPG,AFNE01.JPG,AFNE01.JPG,AFNE01.JPG,AFNE01.JPG,,,,,,,,,,,,,,,,,3,0,30,0,,,,,,,AFNE16.jpg,AFSA19.jpg,AFSA17.jpg,AFNE05.jpg,AFSA19.jpg,FS,4,num_6,32,num_4,1.11678821128,,,2017_Aug_02_1545,60.004099338,FEMA4ImagesEEG,001,201088,
AFNE01.JPG,AFNE01.JPG,AFNE01.JPG,AFNE01.JPG,AFNE01.JPG,AFNE01.JPG,,,,,,,,,,,,,,,,,3,1,31,2,,,,,,,AFSA01.jpg,AFNE15.jpg,AFNE12.jpg,AFSA05.jpg,AFNE12.jpg,FN,3,num_2,16,num_2,1.01678561303,,,2017_Aug_02_1545,60.004099338,FEMA4ImagesEEG,001,201088,
AFNE01.JPG,AFNE01.JPG,AFNE01.JPG,AFNE01.JPG,AFNE01.JPG,AFNE01.JPG,,,,,,,,,,,,,,,,,3,2,32,4,,,,,,,AFNE11.jpg,AFSA18.jpg,AFNE01.jpg,AFSA02.jpg,AFNE11.jpg,FN,3,num_8,16,num_8,1.0168625908,,,2017_Aug_02_1545,60.004099338,FEMA4ImagesEEG,001,201088,
AFNE01.JPG,AFNE01.JPG,AFNE01.JPG,AFNE01.JPG,AFNE01.JPG,AFNE01.JPG,,,,,,,,,,,,,,,,,3,3,33,6,,,,,,,AFSA12.jpg,AFNE16.jpg,AFSA14.jpg,AFNE09.jpg,AFNE16.jpg,FN,3,num_6,32,num_8,1.00014144625,,,2017_Aug_02_1545,60.004099338,FEMA4ImagesEEG,001,201088,
AFNE01.JPG,AFNE01.JPG,AFNE01.JPG,AFNE01.JPG,AFNE01.JPG,AFNE01.JPG,,,,,,,,,,,,,,,,,3,4,34,5,,,,,,,AFSA03.jpg,AFNE14.jpg,AFSA16.jpg,AFNE16.jpg,AFNE14.jpg,FN,3,num_6,32,num_8,0.850129691418,,,2017_Aug_02_1545,60.004099338,FEMA4ImagesEEG,001,201088,
AFNE01.JPG,AFNE01.JPG,AFNE01.JPG,AFNE01.JPG,AFNE01.JPG,AFNE01.JPG,,,,,,,,,,,,,,,,,3,5,35,7,,,,,,,AFNE20.jpg,AFSA01.jpg,AFSA15.jpg,AFNE12.jpg,AFSA01.jpg,FS,4,num_6,16,num_6,0.716853513848,,,2017_Aug_02_1545,60.004099338,FEMA4ImagesEEG,001,201088,
AFNE01.JPG,AFNE01.JPG,AFNE01.JPG,AFNE01.JPG,AFNE01.JPG,AFNE01.JPG,,,,,,,,,,,,,,,,,3,6,36,1,,,,,,,AFNE05.jpg,AFNE04.jpg,AFSA09.jpg,AFSA10.jpg,AFSA09.jpg,FS,4,num_2,16,num_2,1.18342678109,,,2017_Aug_02_1545,60.004099338,FEMA4ImagesEEG,001,201088,
AFNE01.JPG,AFNE01.JPG,AFNE01.JPG,AFNE01.JPG,AFNE01.JPG,AFNE01.JPG,,,,,,,,,,,,,,,,,3,7,37,3,,,,,,,AFSA14.jpg,AFNE02.jpg,AFNE11.jpg,AFSA18.jpg,AFNE11.jpg,FN,3,num_2,16,num_2,0.916753827827,,,2017_Aug_02_1545,60.004099338,FEMA4ImagesEEG,001,201088,
AFNE01.JPG,AFNE01.JPG,AFNE01.JPG,AFNE01.JPG,AFNE01.JPG,AFNE01.JPG,,,,,,,,,,,,,,,,,3,8,38,9,,,,,,,AFNE15.jpg,AFNE03.jpg,AFSA09.jpg,AFSA06.jpg,AFSA09.jpg,FS,4,num_2,16,num_2,1.16673482396,,,2017_Aug_02_1545,60.004099338,FEMA4ImagesEEG,001,201088,
AFNE01.JPG,AFNE01.JPG,AFNE01.JPG,AFNE01.JPG,AFNE01.JPG,AFNE01.JPG,,,,,,,,,,,,,,,,,3,9,39,8,,,,,,,AFSA03.jpg,AFNE11.jpg,AFSA11.jpg,AFNE15.jpg,AFSA03.jpg,FS,4,num_8,16,num_8,0.96680083219,,,2017_Aug_02_1545,60.004099338,FEMA4ImagesEEG,001,201088,
AFNE01.JPG,AFNE01.JPG,AFNE01.JPG,AFNE01.JPG,AFNE01.JPG,AFNE01.JPG,,,,,,,,,,,,,,,,,4,0,40,6,,,,,,,AFSA18.jpg,AFNE16.jpg,AFSA02.jpg,AFNE07.jpg,AFNE07.jpg,FN,3,num_4,32,num_6,0.849962906446,,,2017_Aug_02_1545,60.004099338,FEMA4ImagesEEG,001,201088,
AFNE01.JPG,AFNE01.JPG,AFNE01.JPG,AFNE01.JPG,AFNE01.JPG,AFNE01.JPG,,,,,,,,,,,,,,,,,4,1,41,4,,,,,,,AFNE15.jpg,AFNE03.jpg,AFSA16.jpg,AFSA15.jpg,AFSA15.jpg,FS,4,num_4,16,num_4,1.25017472333,,,2017_Aug_02_1545,60.004099338,FEMA4ImagesEEG,001,201088,
AFNE01.JPG,AFNE01.JPG,AFNE01.JPG,AFNE01.JPG,AFNE01.JPG,AFNE01.JPG,,,,,,,,,,,,,,,,,4,2,42,9,,,,,,,AFSA06.jpg,AFNE14.jpg,AFNE01.jpg,AFSA01.jpg,AFSA06.jpg,FS,4,num_8,16,num_8,1.10012961109,,,2017_Aug_02_1545,60.004099338,FEMA4ImagesEEG,001,201088,
AFNE01.JPG,AFNE01.JPG,AFNE01.JPG,AFNE01.JPG,AFNE01.JPG,AFNE01.JPG,,,,,,,,,,,,,,,,,4,3,43,8,,,,,,,AFNE17.jpg,AFSA09.jpg,AFSA02.jpg,AFNE15.jpg,AFSA02.jpg,FS,4,num_2,32,num_8,1.43345749169,,,2017_Aug_02_1545,60.004099338,FEMA4ImagesEEG,001,201088,
AFNE01.JPG,AFNE01.JPG,AFNE01.JPG,AFNE01.JPG,AFNE01.JPG,AFNE01.JPG,,,,,,,,,,,,,,,,,4,4,44,1,,,,,,,AFSA09.jpg,AFNE20.jpg,AFSA05.jpg,AFNE12.jpg,AFNE12.jpg,FN,3,num_4,32,num_6,1.35009521176,,,2017_Aug_02_1545,60.004099338,FEMA4ImagesEEG,001,201088,
AFNE01.JPG,AFNE01.JPG,AFNE01.JPG,AFNE01.JPG,AFNE01.JPG,AFNE01.JPG,,,,,,,,,,,,,,,,,4,5,45,0,,,,,,,AFSA13.jpg,AFNE19.jpg,AFNE10.jpg,AFSA02.jpg,AFNE19.jpg,FN,3,num_6,16,num_6,0.866764235776,,,2017_Aug_02_1545,60.004099338,FEMA4ImagesEEG,001,201088,
AFNE01.JPG,AFNE01.JPG,AFNE01.JPG,AFNE01.JPG,AFNE01.JPG,AFNE01.JPG,,,,,,,,,,,,,,,,,4,6,46,5,,,,,,,AFNE13.jpg,AFSA13.jpg,AFSA02.jpg,AFNE06.jpg,AFSA02.jpg,FS,4,num_2,32,num_6,0.78346129274,,,2017_Aug_02_1545,60.004099338,FEMA4ImagesEEG,001,201088,
AFNE01.JPG,AFNE01.JPG,AFNE01.JPG,AFNE01.JPG,AFNE01.JPG,AFNE01.JPG,,,,,,,,,,,,,,,,,4,7,47,2,,,,,,,AFSA04.jpg,AFSA12.jpg,AFNE20.jpg,AFNE16.jpg,AFNE16.jpg,FN,3,num_4,16,num_4,1.05008421047,,,2017_Aug_02_1545,60.004099338,FEMA4ImagesEEG,001,201088,
AFNE01.JPG,AFNE01.JPG,AFNE01.JPG,AFNE01.JPG,AFNE01.JPG,AFNE01.JPG,,,,,,,,,,,,,,,,,4,8,48,7,,,,,,,AFNE20.jpg,AFNE15.jpg,AFSA16.jpg,AFSA07.jpg,AFNE15.jpg,FN,3,num_6,16,num_6,0.583525697235,,,2017_Aug_02_1545,60.004099338,FEMA4ImagesEEG,001,201088,
AFNE01.JPG,AFNE01.JPG,AFNE01.JPG,AFNE01.JPG,AFNE01.JPG,AFNE01.JPG,,,,,,,,,,,,,,,,,4,9,49,3,,,,,,,AFSA17.jpg,AFNE11.jpg,AFNE12.jpg,AFSA09.jpg,AFNE11.jpg,FN,3,num_6,16,num_6,0.766761316918,,,2017_Aug_02_1545,60.004099338,FEMA4ImagesEEG,001,201088,
AFNE01.JPG,AFNE01.JPG,AFNE01.JPG,AFNE01.JPG,AFNE01.JPG,AFNE01.JPG,,,,,,,,,,,,,,,,,5,0,50,6,,,,,,,AFSA03.jpg,AFNE16.jpg,AFNE08.jpg,AFSA04.jpg,AFSA03.jpg,FS,4,num_8,16,num_8,1.61675276933,,,2017_Aug_02_1545,60.004099338,FEMA4ImagesEEG,001,201088,
AFNE01.JPG,AFNE01.JPG,AFNE01.JPG,AFNE01.JPG,AFNE01.JPG,AFNE01.JPG,,,,,,,,,,,,,,,,,5,1,51,8,,,,,,,AFSA06.jpg,AFNE15.jpg,AFNE19.jpg,AFSA09.jpg,AFNE15.jpg,FN,3,num_6,16,num_6,0.800130797783,,,2017_Aug_02_1545,60.004099338,FEMA4ImagesEEG,001,201088,
AFNE01.JPG,AFNE01.JPG,AFNE01.JPG,AFNE01.JPG,AFNE01.JPG,AFNE01.JPG,,,,,,,,,,,,,,,,,5,2,52,2,,,,,,,AFSA12.jpg,AFNE05.jpg,AFNE06.jpg,AFSA15.jpg,AFSA12.jpg,FS,4,num_8,16,num_8,1.03348462656,,,2017_Aug_02_1545,60.004099338,FEMA4ImagesEEG,001,201088,
AFNE01.JPG,AFNE01.JPG,AFNE01.JPG,AFNE01.JPG,AFNE01.JPG,AFNE01.JPG,,,,,,,,,,,,,,,,,5,3,53,0,,,,,,,AFNE04.jpg,AFSA08.jpg,AFNE03.jpg,AFSA16.jpg,AFSA08.jpg,FS,4,num_6,16,num_6,0.716753763612,,,2017_Aug_02_1545,60.004099338,FEMA4ImagesEEG,001,201088,
AFNE01.JPG,AFNE01.JPG,AFNE01.JPG,AFNE01.JPG,AFNE01.JPG,AFNE01.JPG,,,,,,,,,,,,,,,,,5,4,54,4,,,,,,,AFNE12.jpg,AFNE17.jpg,AFSA19.jpg,AFSA10.jpg,AFSA19.jpg,FS,4,num_2,32,num_4,1.31673246645,,,2017_Aug_02_1545,60.004099338,FEMA4ImagesEEG,001,201088,
AFNE01.JPG,AFNE01.JPG,AFNE01.JPG,AFNE01.JPG,AFNE01.JPG,AFNE01.JPG,,,,,,,,,,,,,,,,,5,5,55,3,,,,,,,AFSA04.jpg,AFNE06.jpg,AFSA18.jpg,AFNE01.jpg,AFSA18.jpg,FS,4,num_2,16,num_2,0.550128953531,,,2017_Aug_02_1545,60.004099338,FEMA4ImagesEEG,001,201088,
AFNE01.JPG,AFNE01.JPG,AFNE01.JPG,AFNE01.JPG,AFNE01.JPG,AFNE01.JPG,,,,,,,,,,,,,,,,,5,6,56,1,,,,,,,AFNE14.jpg,AFSA15.jpg,AFNE07.jpg,AFSA11.jpg,AFSA11.jpg,FS,4,num_4,32,num_8,1.00007633609,,,2017_Aug_02_1545,60.004099338,FEMA4ImagesEEG,001,201088,
AFNE01.JPG,AFNE01.JPG,AFNE01.JPG,AFNE01.JPG,AFNE01.JPG,AFNE01.JPG,,,,,,,,,,,,,,,,,5,7,57,7,,,,,,,AFNE05.jpg,AFSA04.jpg,AFNE08.jpg,AFSA03.jpg,AFNE08.jpg,FN,3,num_2,32,num_8,0.866832232568,,,2017_Aug_02_1545,60.004099338,FEMA4ImagesEEG,001,201088,
AFNE01.JPG,AFNE01.JPG,AFNE01.JPG,AFNE01.JPG,AFNE01.JPG,AFNE01.JPG,,,,,,,,,,,,,,,,,5,8,58,5,,,,,,,AFNE18.jpg,AFSA07.jpg,AFSA02.jpg,AFNE01.jpg,AFNE18.jpg,FN,3,num_8,16,num_8,0.950090913801,,,2017_Aug_02_1545,60.004099338,FEMA4ImagesEEG,001,201088,
AFNE01.JPG,AFNE01.JPG,AFNE01.JPG,AFNE01.JPG,AFNE01.JPG,AFNE01.JPG,,,,,,,,,,,,,,,,,5,9,59,9,,,,,,,AFSA12.jpg,AFSA14.jpg,AFNE18.jpg,AFNE06.jpg,AFSA12.jpg,FS,4,num_8,32,num_6,0.783461292507,,,2017_Aug_02_1545,60.004099338,FEMA4ImagesEEG,001,201088,
,,,,,,,,,,,,,,,,,,,,,,,,,,,,,,,,,,,,,,,,,,,space,2.4163620437,2017_Aug_02_1545,60.004099338,FEMA4ImagesEEG,001,201088,
AFNE01.JPG,AFNE01.JPG,AFNE01.JPG,AFNE01.JPG,AFNE01.JPG,AFNE01.JPG,,,,,,,,,,,,,,,,,,,,,0,0,0,4,,,AMSA16.jpg,AMSA09.jpg,AMNE20.jpg,AMNE08.jpg,AMNE20.jpg,MN,1,num_2,16,num_2,1.00012284354,,,2017_Aug_02_1545,60.004099338,FEMA4ImagesEEG,001,201088,
AFNE01.JPG,AFNE01.JPG,AFNE01.JPG,AFNE01.JPG,AFNE01.JPG,AFNE01.JPG,,,,,,,,,,,,,,,,,,,,,0,1,1,2,,,AMSA20.jpg,AMNE01.jpg,AMNE12.jpg,AMSA13.jpg,AMNE12.jpg,MN,1,num_2,16,num_2,0.616828143131,,,2017_Aug_02_1545,60.004099338,FEMA4ImagesEEG,001,201088,
AFNE01.JPG,AFNE01.JPG,AFNE01.JPG,AFNE01.JPG,AFNE01.JPG,AFNE01.JPG,,,,,,,,,,,,,,,,,,,,,0,2,2,0,,,AMNE17.jpg,AMSA06.jpg,AMNE15.jpg,AMSA19.jpg,AMNE17.jpg,MN,1,num_8,32,num_6,1.0003759074,,,2017_Aug_02_1545,60.004099338,FEMA4ImagesEEG,001,201088,
AFNE01.JPG,AFNE01.JPG,AFNE01.JPG,AFNE01.JPG,AFNE01.JPG,AFNE01.JPG,,,,,,,,,,,,,,,,,,,,,0,3,3,5,,,AMSA03.jpg,AMSA17.jpg,AMNE04.jpg,AMNE01.jpg,AMNE01.jpg,MN,1,num_4,16,num_4,0.783448783914,,,2017_Aug_02_1545,60.004099338,FEMA4ImagesEEG,001,201088,
AFNE01.JPG,AFNE01.JPG,AFNE01.JPG,AFNE01.JPG,AFNE01.JPG,AFNE01.JPG,,,,,,,,,,,,,,,,,,,,,0,4,4,7,,,AMNE03.jpg,AMSA05.jpg,AMSA13.jpg,AMNE08.jpg,AMNE08.jpg,MN,1,num_4,16,num_4,0.800181795377,,,2017_Aug_02_1545,60.004099338,FEMA4ImagesEEG,001,201088,
AFNE01.JPG,AFNE01.JPG,AFNE01.JPG,AFNE01.JPG,AFNE01.JPG,AFNE01.JPG,,,,,,,,,,,,,,,,,,,,,0,5,5,9,,,AMSA12.jpg,AMNE15.jpg,AMNE08.jpg,AMSA06.jpg,AMNE08.jpg,MN,1,num_2,16,num_2,1.25008587819,,,2017_Aug_02_1545,60.004099338,FEMA4ImagesEEG,001,201088,
AFNE01.JPG,AFNE01.JPG,AFNE01.JPG,AFNE01.JPG,AFNE01.JPG,AFNE01.JPG,,,,,,,,,,,,,,,,,,,,,0,6,6,8,,,AMSA15.jpg,AMSA16.jpg,AMNE11.jpg,AMNE13.jpg,AMNE13.jpg,MN,1,num_4,32,num_2,1.03342464799,,,2017_Aug_02_1545,60.004099338,FEMA4ImagesEEG,001,201088,
AFNE01.JPG,AFNE01.JPG,AFNE01.JPG,AFNE01.JPG,AFNE01.JPG,AFNE01.JPG,,,,,,,,,,,,,,,,,,,,,0,7,7,3,,,AMSA14.jpg,AMNE02.jpg,AMSA03.jpg,AMNE06.jpg,AMNE06.jpg,MN,1,num_4,32,num_6,1.16671910766,,,2017_Aug_02_1545,60.004099338,FEMA4ImagesEEG,001,201088,
AFNE01.JPG,AFNE01.JPG,AFNE01.JPG,AFNE01.JPG,AFNE01.JPG,AFNE01.JPG,,,,,,,,,,,,,,,,,,,,,0,8,8,1,,,AMNE04.jpg,AMSA08.jpg,AMSA15.jpg,AMNE02.jpg,AMNE04.jpg,MN,1,num_8,32,num_4,1.10014019557,,,2017_Aug_02_1545,60.004099338,FEMA4ImagesEEG,001,201088,
AFNE01.JPG,AFNE01.JPG,AFNE01.JPG,AFNE01.JPG,AFNE01.JPG,AFNE01.JPG,,,,,,,,,,,,,,,,,,,,,0,9,9,6,,,AMNE12.jpg,AMSA12.jpg,AMNE15.jpg,AMSA02.jpg,AMNE15.jpg,MN,1,num_2,16,num_2,0.90007373807,,,2017_Aug_02_1545,60.004099338,FEMA4ImagesEEG,001,201088,
AFNE01.JPG,AFNE01.JPG,AFNE01.JPG,AFNE01.JPG,AFNE01.JPG,AFNE01.JPG,,,,,,,,,,,,,,,,,,,,,1,0,10,0,,,AMNE02.jpg,AMSA03.jpg,AMSA06.jpg,AMNE08.jpg,AMSA06.jpg,MS,2,num_2,32,num_4,1.31682868861,,,2017_Aug_02_1545,60.004099338,FEMA4ImagesEEG,001,201088,
AFNE01.JPG,AFNE01.JPG,AFNE01.JPG,AFNE01.JPG,AFNE01.JPG,AFNE01.JPG,,,,,,,,,,,,,,,,,,,,,1,1,11,2,,,AMNE05.jpg,AMSA06.jpg,AMSA12.jpg,AMNE03.jpg,AMSA06.jpg,MS,2,num_6,16,num_6,0.966930732131,,,2017_Aug_02_1545,60.004099338,FEMA4ImagesEEG,001,201088,
AFNE01.JPG,AFNE01.JPG,AFNE01.JPG,AFNE01.JPG,AFNE01.JPG,AFNE01.JPG,,,,,,,,,,,,,,,,,,,,,1,2,12,4,,,AMSA06.jpg,AMNE06.jpg,AMNE08.jpg,AMSA04.jpg,AMSA04.jpg,MS,2,num_4,16,num_4,1.25013078167,,,2017_Aug_02_1545,60.004099338,FEMA4ImagesEEG,001,201088,
AFNE01.JPG,AFNE01.JPG,AFNE01.JPG,AFNE01.JPG,AFNE01.JPG,AFNE01.JPG,,,,,,,,,,,,,,,,,,,,,1,3,13,8,,,AMNE11.jpg,AMSA17.jpg,AMSA06.jpg,AMNE10.jpg,AMNE11.jpg,MN,1,num_8,16,num_8,1.03344966588,,,2017_Aug_02_1545,60.004099338,FEMA4ImagesEEG,001,201088,
AFNE01.JPG,AFNE01.JPG,AFNE01.JPG,AFNE01.JPG,AFNE01.JPG,AFNE01.JPG,,,,,,,,,,,,,,,,,,,,,1,4,14,1,,,AMSA10.jpg,AMSA09.jpg,AMNE18.jpg,AMNE14.jpg,AMSA10.jpg,MS,2,num_8,16,num_8,1.01681095152,,,2017_Aug_02_1545,60.004099338,FEMA4ImagesEEG,001,201088,
AFNE01.JPG,AFNE01.JPG,AFNE01.JPG,AFNE01.JPG,AFNE01.JPG,AFNE01.JPG,,,,,,,,,,,,,,,,,,,,,1,5,15,5,,,AMNE05.jpg,AMSA15.jpg,AMSA19.jpg,AMNE07.jpg,AMNE05.jpg,MN,1,num_8,32,num_4,1.15016250312,,,2017_Aug_02_1545,60.004099338,FEMA4ImagesEEG,001,201088,
AFNE01.JPG,AFNE01.JPG,AFNE01.JPG,AFNE01.JPG,AFNE01.JPG,AFNE01.JPG,,,,,,,,,,,,,,,,,,,,,1,6,16,6,,,AMNE02.jpg,AMSA08.jpg,AMNE12.jpg,AMSA04.jpg,AMSA04.jpg,MS,2,num_4,16,num_4,1.0001250885,,,2017_Aug_02_1545,60.004099338,FEMA4ImagesEEG,001,201088,
AFNE01.JPG,AFNE01.JPG,AFNE01.JPG,AFNE01.JPG,AFNE01.JPG,AFNE01.JPG,,,,,,,,,,,,,,,,,,,,,1,7,17,9,,,AMNE06.jpg,AMSA11.jpg,AMNE10.jpg,AMSA18.jpg,AMSA18.jpg,MS,2,num_4,32,num_2,1.0334406849,,,2017_Aug_02_1545,60.004099338,FEMA4ImagesEEG,001,201088,
AFNE01.JPG,AFNE01.JPG,AFNE01.JPG,AFNE01.JPG,AFNE01.JPG,AFNE01.JPG,,,,,,,,,,,,,,,,,,,,,1,8,18,7,,,AMNE20.jpg,AMNE16.jpg,AMSA03.jpg,AMSA07.jpg,AMNE16.jpg,MN,1,num_6,16,num_6,0.933461821871,,,2017_Aug_02_1545,60.004099338,FEMA4ImagesEEG,001,201088,
AFNE01.JPG,AFNE01.JPG,AFNE01.JPG,AFNE01.JPG,AFNE01.JPG,AFNE01.JPG,,,,,,,,,,,,,,,,,,,,,1,9,19,3,,,AMSA14.jpg,AMSA03.jpg,AMNE08.jpg,AMNE02.jpg,AMNE08.jpg,MN,1,num_2,32,num_4,1.01675385982,,,2017_Aug_02_1545,60.004099338,FEMA4ImagesEEG,001,201088,
AFNE01.JPG,AFNE01.JPG,AFNE01.JPG,AFNE01.JPG,AFNE01.JPG,AFNE01.JPG,,,,,,,,,,,,,,,,,,,,,2,0,20,4,,,AMSA05.jpg,AMSA16.jpg,AMNE07.jpg,AMNE15.jpg,AMNE07.jpg,MN,1,num_2,16,num_2,0.800101289526,,,2017_Aug_02_1545,60.004099338,FEMA4ImagesEEG,001,201088,
AFNE01.JPG,AFNE01.JPG,AFNE01.JPG,AFNE01.JPG,AFNE01.JPG,AFNE01.JPG,,,,,,,,,,,,,,,,,,,,,2,1,21,9,,,AMSA08.jpg,AMNE05.jpg,AMSA01.jpg,AMNE20.jpg,AMSA01.jpg,MS,2,num_2,16,num_2,0.816537296167,,,2017_Aug_02_1545,60.004099338,FEMA4ImagesEEG,001,201088,
AFNE01.JPG,AFNE01.JPG,AFNE01.JPG,AFNE01.JPG,AFNE01.JPG,AFNE01.JPG,,,,,,,,,,,,,,,,,,,,,2,2,22,8,,,AMSA19.jpg,AMNE08.jpg,AMSA18.jpg,AMNE14.jpg,AMSA19.jpg,MS,2,num_8,32,num_4,1.74993946031,,,2017_Aug_02_1545,60.004099338,FEMA4ImagesEEG,001,201088,
AFNE01.JPG,AFNE01.JPG,AFNE01.JPG,AFNE01.JPG,AFNE01.JPG,AFNE01.JPG,,,,,,,,,,,,,,,,,,,,,2,3,23,5,,,AMNE12.jpg,AMSA05.jpg,AMNE09.jpg,AMSA07.jpg,AMSA07.jpg,MS,2,num_4,16,num_4,1.11680456903,,,2017_Aug_02_1545,60.004099338,FEMA4ImagesEEG,001,201088,
AFNE01.JPG,AFNE01.JPG,AFNE01.JPG,AFNE01.JPG,AFNE01.JPG,AFNE01.JPG,,,,,,,,,,,,,,,,,,,,,2,4,24,2,,,AMNE06.jpg,AMSA06.jpg,AMNE01.jpg,AMSA13.jpg,AMSA06.jpg,MS,2,num_6,16,num_6,0.950424162904,,,2017_Aug_02_1545,60.004099338,FEMA4ImagesEEG,001,201088,
AFNE01.JPG,AFNE01.JPG,AFNE01.JPG,AFNE01.JPG,AFNE01.JPG,AFNE01.JPG,,,,,,,,,,,,,,,,,,,,,2,5,25,3,,,AMNE12.jpg,AMSA05.jpg,AMSA13.jpg,AMNE17.jpg,AMNE12.jpg,MN,1,num_8,16,num_8,1.46671984531,,,2017_Aug_02_1545,60.004099338,FEMA4ImagesEEG,001,201088,
AFNE01.JPG,AFNE01.JPG,AFNE01.JPG,AFNE01.JPG,AFNE01.JPG,AFNE01.JPG,,,,,,,,,,,,,,,,,,,,,2,6,26,1,,,AMNE11.jpg,AMSA18.jpg,AMSA16.jpg,AMNE09.jpg,AMSA16.jpg,MS,2,num_2,32,num_6,1.01676604804,,,2017_Aug_02_1545,60.004099338,FEMA4ImagesEEG,001,201088,
AFNE01.JPG,AFNE01.JPG,AFNE01.JPG,AFNE01.JPG,AFNE01.JPG,AFNE01.JPG,,,,,,,,,,,,,,,,,,,,,2,7,27,0,,,AMNE15.jpg,AMNE20.jpg,AMSA06.jpg,AMSA09.jpg,AMSA09.jpg,MS,2,num_4,32,num_8,1.21659451607,,,2017_Aug_02_1545,60.004099338,FEMA4ImagesEEG,001,201088,
AFNE01.JPG,AFNE01.JPG,AFNE01.JPG,AFNE01.JPG,AFNE01.JPG,AFNE01.JPG,,,,,,,,,,,,,,,,,,,,,2,8,28,7,,,AMSA20.jpg,AMSA05.jpg,AMNE05.jpg,AMNE07.jpg,AMNE07.jpg,MN,1,num_4,32,num_2,1.0665811575,,,2017_Aug_02_1545,60.004099338,FEMA4ImagesEEG,001,201088,
AFNE01.JPG,AFNE01.JPG,AFNE01.JPG,AFNE01.JPG,AFNE01.JPG,AFNE01.JPG,,,,,,,,,,,,,,,,,,,,,2,9,29,6,,,AMNE15.jpg,AMSA05.jpg,AMSA06.jpg,AMNE08.jpg,AMNE08.jpg,MN,1,num_4,32,num_8,0.93342846469,,,2017_Aug_02_1545,60.004099338,FEMA4ImagesEEG,001,201088,
AFNE01.JPG,AFNE01.JPG,AFNE01.JPG,AFNE01.JPG,AFNE01.JPG,AFNE01.JPG,,,,,,,,,,,,,,,,,,,,,3,0,30,7,,,AMNE16.jpg,AMSA13.jpg,AMSA15.jpg,AMNE20.jpg,AMSA15.jpg,MS,2,num_2,16,num_2,0.733480681432,,,2017_Aug_02_1545,60.004099338,FEMA4ImagesEEG,001,201088,
AFNE01.JPG,AFNE01.JPG,AFNE01.JPG,AFNE01.JPG,AFNE01.JPG,AFNE01.JPG,,,,,,,,,,,,,,,,,,,,,3,1,31,5,,,AMNE06.jpg,AMSA05.jpg,AMSA17.jpg,AMNE02.jpg,AMSA17.jpg,MS,2,num_2,16,num_2,1.00011739088,,,2017_Aug_02_1545,60.004099338,FEMA4ImagesEEG,001,201088,
AFNE01.JPG,AFNE01.JPG,AFNE01.JPG,AFNE01.JPG,AFNE01.JPG,AFNE01.JPG,,,,,,,,,,,,,,,,,,,,,3,2,32,9,,,AMSA07.jpg,AMNE06.jpg,AMSA16.jpg,AMNE14.jpg,AMSA07.jpg,MS,2,num_8,16,num_8,0.950192267774,,,2017_Aug_02_1545,60.004099338,FEMA4ImagesEEG,001,201088,
AFNE01.JPG,AFNE01.JPG,AFNE01.JPG,AFNE01.JPG,AFNE01.JPG,AFNE01.JPG,,,,,,,,,,,,,,,,,,,,,3,3,33,8,,,AMSA05.jpg,AMSA09.jpg,AMNE16.jpg,AMNE02.jpg,AMSA05.jpg,MS,2,num_8,16,num_8,1.2001091158,,,2017_Aug_02_1545,60.004099338,FEMA4ImagesEEG,001,201088,
AFNE01.JPG,AFNE01.JPG,AFNE01.JPG,AFNE01.JPG,AFNE01.JPG,AFNE01.JPG,,,,,,,,,,,,,,,,,,,,,3,4,34,3,,,AMSA20.jpg,AMSA14.jpg,AMNE08.jpg,AMNE19.jpg,AMNE08.jpg,MN,1,num_2,16,num_2,1.28346369811,,,2017_Aug_02_1545,60.004099338,FEMA4ImagesEEG,001,201088,
AFNE01.JPG,AFNE01.JPG,AFNE01.JPG,AFNE01.JPG,AFNE01.JPG,AFNE01.JPG,,,,,,,,,,,,,,,,,,,,,3,5,35,2,,,AMSA16.jpg,AMSA05.jpg,AMNE12.jpg,AMNE13.jpg,AMSA16.jpg,MS,2,num_8,16,num_8,1.00013310718,,,2017_Aug_02_1545,60.004099338,FEMA4ImagesEEG,001,201088,
AFNE01.JPG,AFNE01.JPG,AFNE01.JPG,AFNE01.JPG,AFNE01.JPG,AFNE01.JPG,,,,,,,,,,,,,,,,,,,,,3,6,36,6,,,AMSA04.jpg,AMNE16.jpg,AMSA12.jpg,AMNE04.jpg,AMNE16.jpg,MN,1,num_6,16,num_6,0.51679154695,,,2017_Aug_02_1545,60.004099338,FEMA4ImagesEEG,001,201088,
AFNE01.JPG,AFNE01.JPG,AFNE01.JPG,AFNE01.JPG,AFNE01.JPG,AFNE01.JPG,,,,,,,,,,,,,,,,,,,,,3,7,37,0,,,AMNE03.jpg,AMSA01.jpg,AMNE12.jpg,AMSA04.jpg,AMSA04.jpg,MS,2,num_4,16,num_4,0.916789109353,,,2017_Aug_02_1545,60.004099338,FEMA4ImagesEEG,001,201088,
AFNE01.JPG,AFNE01.JPG,AFNE01.JPG,AFNE01.JPG,AFNE01.JPG,AFNE01.JPG,,,,,,,,,,,,,,,,,,,,,3,8,38,4,,,AMNE09.jpg,AMNE20.jpg,AMSA15.jpg,AMSA11.jpg,AMNE20.jpg,MN,1,num_6,16,num_6,0.550165197346,,,2017_Aug_02_1545,60.004099338,FEMA4ImagesEEG,001,201088,
AFNE01.JPG,AFNE01.JPG,AFNE01.JPG,AFNE01.JPG,AFNE01.JPG,AFNE01.JPG,,,,,,,,,,,,,,,,,,,,,3,9,39,1,,,AMNE01.jpg,AMSA17.jpg,AMSA02.jpg,AMNE06.jpg,AMSA02.jpg,MS,2,num_2,16,num_2,1.1001286488,,,2017_Aug_02_1545,60.004099338,FEMA4ImagesEEG,001,201088,
AFNE01.JPG,AFNE01.JPG,AFNE01.JPG,AFNE01.JPG,AFNE01.JPG,AFNE01.JPG,,,,,,,,,,,,,,,,,,,,,4,0,40,9,,,AMNE01.jpg,AMSA20.jpg,AMSA18.jpg,AMNE08.jpg,AMNE01.jpg,MN,1,num_8,16,num_8,0.716632844647,,,2017_Aug_02_1545,60.004099338,FEMA4ImagesEEG,001,201088,
