IPosition2,IPosition3,IPosition1,IPosition6,IPosition4,IPosition5,TrialsF1.thisRepN,TrialsF1.thisTrialN,TrialsF1.thisN,TrialsF1.thisIndex,TrialsM1.thisRepN,TrialsM1.thisTrialN,TrialsM1.thisN,TrialsM1.thisIndex,TrialsF2.thisRepN,TrialsF2.thisTrialN,TrialsF2.thisN,TrialsF2.thisIndex,TrialsM2.thisRepN,TrialsM2.thisTrialN,TrialsM2.thisN,TrialsM2.thisIndex,TrialsF3.thisRepN,TrialsF3.thisTrialN,TrialsF3.thisN,TrialsF3.thisIndex,TrialsM3.thisRepN,TrialsM3.thisTrialN,TrialsM3.thisN,TrialsM3.thisIndex,InstrKey_resp.keys,InstrKey_resp.rt,Image0 _Position,Image1 _Position,Image2 _Position,Image3 _Position,Center_image,condition,code,correct_answer,accuracy,Key_Resp.keys,Key_Resp.rt,BreakKey_resp.keys,BreakKey_resp.rt,date,frameRate,expName,session,participant,
,,,,,,,,,,,,,,,,,,,,,,,,,,,,,,space,25.8655576115,,,,,,,,,,,,,,2017_Jul_28_1317,59.9971712131,FEMA4ImagesEEG,001,201056,
AMSA21.JPG,AMNE22.JPG,AMNE21.JPG,AMSA23.JPG,AMSA22.JPG,AMNE23.JPG,0,0,0,1,,,,,,,,,,,,,,,,,,,,,,,AFSA20.jpg,AFSA04.jpg,AFNE14.jpg,AFNE15.jpg,AFSA04.jpg,FS,4,num_6,32,num_2,1.71666042833,,,2017_Jul_28_1317,59.9971712131,FEMA4ImagesEEG,001,201056,
AFNE22.JPG,AFSA24.JPG,AFSA22.JPG,AFNE25.JPG,AFNE24.JPG,AFSA25.JPG,0,1,1,6,,,,,,,,,,,,,,,,,,,,,,,AFNE03.jpg,AFNE20.jpg,AFSA15.jpg,AFSA09.jpg,AFNE20.jpg,FN,3,num_6,16,num_6,1.13344777341,,,2017_Jul_28_1317,59.9971712131,FEMA4ImagesEEG,001,201056,
AFSA25.JPG,AFNE24.JPG,AFSA24.JPG,AFNE21.JPG,AFSA21.JPG,AFNE25.JPG,0,2,2,2,,,,,,,,,,,,,,,,,,,,,,,AFNE08.jpg,AFSA05.jpg,AFSA07.jpg,AFNE07.jpg,AFNE08.jpg,FN,3,num_8,32,num_4,1.05013552879,,,2017_Jul_28_1317,59.9971712131,FEMA4ImagesEEG,001,201056,
AMSA25.JPG,AMNE24.JPG,AMSA24.JPG,AMNE26.JPG,AMSA21.JPG,AMNE25.JPG,0,3,3,3,,,,,,,,,,,,,,,,,,,,,,,AFNE20.jpg,AFNE02.jpg,AFSA03.jpg,AFSA17.jpg,AFSA17.jpg,FS,4,num_4,32,num_2,0.850120389834,,,2017_Jul_28_1317,59.9971712131,FEMA4ImagesEEG,001,201056,
AMNE22.JPG,AMSA24.JPG,AMSA22.JPG,AMNE25.JPG,AMNE24.JPG,AMSA25.JPG,0,4,4,7,,,,,,,,,,,,,,,,,,,,,,,AFSA09.jpg,AFNE02.jpg,AFNE17.jpg,AFSA14.jpg,AFNE02.jpg,FN,3,num_6,32,num_8,1.08347357693,,,2017_Jul_28_1317,59.9971712131,FEMA4ImagesEEG,001,201056,
AMNE23.JPG,AMNE24.JPG,AMNE22.JPG,AMSA24.JPG,AMSA22.JPG,AMSA23.JPG,0,5,5,9,,,,,,,,,,,,,,,,,,,,,,,AFNE13.jpg,AFSA09.jpg,AFNE02.jpg,AFSA15.jpg,AFNE02.jpg,FN,3,num_2,16,num_2,0.816725891316,,,2017_Jul_28_1317,59.9971712131,FEMA4ImagesEEG,001,201056,
AFNE23.JPG,AFNE24.JPG,AFNE22.JPG,AFSA24.JPG,AFSA22.JPG,AFSA23.JPG,0,6,6,8,,,,,,,,,,,,,,,,,,,,,,,AFNE10.jpg,AFNE03.jpg,AFSA08.jpg,AFSA02.jpg,AFSA08.jpg,FS,4,num_2,32,num_6,1.68345869461,,,2017_Jul_28_1317,59.9971712131,FEMA4ImagesEEG,001,201056,
AMSA21.JPG,AMNE23.JPG,AMNE21.JPG,AMSA25.JPG,AMNE25.JPG,AMSA23.JPG,0,7,7,5,,,,,,,,,,,,,,,,,,,,,,,AFNE02.jpg,AFSA18.jpg,AFNE10.jpg,AFSA19.jpg,AFNE10.jpg,FN,3,num_2,32,num_8,1.03343234584,,,2017_Jul_28_1317,59.9971712131,FEMA4ImagesEEG,001,201056,
AFSA21.JPG,AFNE22.JPG,AFNE21.JPG,AFSA23.JPG,AFSA22.JPG,AFNE23.JPG,0,8,8,0,,,,,,,,,,,,,,,,,,,,,,,AFNE10.jpg,AFNE05.jpg,AFSA12.jpg,AFSA08.jpg,AFSA12.jpg,FS,4,num_2,16,num_2,1.21680395945,,,2017_Jul_28_1317,59.9971712131,FEMA4ImagesEEG,001,201056,
AFSA21.JPG,AFNE23.JPG,AFNE21.JPG,AFSA25.JPG,AFNE25.JPG,AFSA23.JPG,0,9,9,4,,,,,,,,,,,,,,,,,,,,,,,AFSA20.jpg,AFNE05.jpg,AFSA03.jpg,AFNE01.jpg,AFSA20.jpg,FS,4,num_8,32,num_6,1.85008767433,,,2017_Jul_28_1317,59.9971712131,FEMA4ImagesEEG,001,201056,
AFSA21.JPG,AFNE22.JPG,AFNE21.JPG,AFSA23.JPG,AFSA22.JPG,AFNE23.JPG,,,,,0,0,0,0,,,,,,,,,,,,,,,,,,,AMSA11.jpg,AMNE06.jpg,AMNE20.jpg,AMSA01.jpg,AMSA01.jpg,MS,2,num_4,16,num_4,1.33329420304,,,2017_Jul_28_1317,59.9971712131,FEMA4ImagesEEG,001,201056,
AFSA25.JPG,AFNE24.JPG,AFSA24.JPG,AFNE21.JPG,AFSA21.JPG,AFNE25.JPG,,,,,0,1,1,2,,,,,,,,,,,,,,,,,,,AMSA05.jpg,AMNE02.jpg,AMNE13.jpg,AMSA19.jpg,AMSA19.jpg,MS,2,num_4,32,num_2,1.43345492589,,,2017_Jul_28_1317,59.9971712131,FEMA4ImagesEEG,001,201056,
AFNE23.JPG,AFNE24.JPG,AFNE22.JPG,AFSA24.JPG,AFSA22.JPG,AFSA23.JPG,,,,,0,2,2,8,,,,,,,,,,,,,,,,,,,AMNE05.jpg,AMSA13.jpg,AMNE11.jpg,AMSA15.jpg,AMSA13.jpg,MS,2,num_6,32,num_8,0.966752079781,,,2017_Jul_28_1317,59.9971712131,FEMA4ImagesEEG,001,201056,
AMNE23.JPG,AMNE24.JPG,AMNE22.JPG,AMSA24.JPG,AMSA22.JPG,AMSA23.JPG,,,,,0,3,3,9,,,,,,,,,,,,,,,,,,,AMSA05.jpg,AMNE10.jpg,AMNE06.jpg,AMSA10.jpg,AMNE10.jpg,MN,1,num_6,16,num_6,1.31672348583,,,2017_Jul_28_1317,59.9971712131,FEMA4ImagesEEG,001,201056,
AFNE22.JPG,AFSA24.JPG,AFSA22.JPG,AFNE25.JPG,AFNE24.JPG,AFSA25.JPG,,,,,0,4,4,6,,,,,,,,,,,,,,,,,,,AMNE10.jpg,AMSA19.jpg,AMSA08.jpg,AMNE12.jpg,AMSA19.jpg,MS,2,num_6,32,num_2,0.933538799407,,,2017_Jul_28_1317,59.9971712131,FEMA4ImagesEEG,001,201056,
AFSA21.JPG,AFNE23.JPG,AFNE21.JPG,AFSA25.JPG,AFNE25.JPG,AFSA23.JPG,,,,,0,5,5,4,,,,,,,,,,,,,,,,,,,AMNE11.jpg,AMNE15.jpg,AMSA19.jpg,AMSA05.jpg,AMNE11.jpg,MN,1,num_8,16,num_8,0.750114584342,,,2017_Jul_28_1317,59.9971712131,FEMA4ImagesEEG,001,201056,
AMSA25.JPG,AMNE24.JPG,AMSA24.JPG,AMNE26.JPG,AMSA21.JPG,AMNE25.JPG,,,,,0,6,6,3,,,,,,,,,,,,,,,,,,,AMNE16.jpg,AMSA16.jpg,AMSA01.jpg,AMNE10.jpg,AMNE16.jpg,MN,1,num_8,32,num_4,1.30008445086,,,2017_Jul_28_1317,59.9971712131,FEMA4ImagesEEG,001,201056,
AMNE22.JPG,AMSA24.JPG,AMSA22.JPG,AMNE25.JPG,AMNE24.JPG,AMSA25.JPG,,,,,0,7,7,7,,,,,,,,,,,,,,,,,,,AMNE09.jpg,AMSA05.jpg,AMSA03.jpg,AMNE06.jpg,AMNE09.jpg,MN,1,num_8,16,num_8,1.38345282502,,,2017_Jul_28_1317,59.9971712131,FEMA4ImagesEEG,001,201056,
AMSA21.JPG,AMNE22.JPG,AMNE21.JPG,AMSA23.JPG,AMSA22.JPG,AMNE23.JPG,,,,,0,8,8,1,,,,,,,,,,,,,,,,,,,AMSA02.jpg,AMNE09.jpg,AMNE20.jpg,AMSA18.jpg,AMNE09.jpg,MN,1,num_6,16,num_6,0.950158269261,,,2017_Jul_28_1317,59.9971712131,FEMA4ImagesEEG,001,201056,
AMSA21.JPG,AMNE23.JPG,AMNE21.JPG,AMSA25.JPG,AMNE25.JPG,AMSA23.JPG,,,,,0,9,9,5,,,,,,,,,,,,,,,,,,,AMSA19.jpg,AMNE06.jpg,AMSA18.jpg,AMNE02.jpg,AMNE02.jpg,MN,1,num_4,16,num_4,1.46680387924,,,2017_Jul_28_1317,59.9971712131,FEMA4ImagesEEG,001,201056,
AFSA21.JPG,AFNE22.JPG,AFNE21.JPG,AFSA23.JPG,AFSA22.JPG,AFNE23.JPG,,,,,,,,,0,0,0,0,,,,,,,,,,,,,,,AFSA15.jpg,AFSA07.jpg,AFNE02.jpg,AFNE05.jpg,AFSA07.jpg,FS,4,num_6,32,num_8,1.05011243548,,,2017_Jul_28_1317,59.9971712131,FEMA4ImagesEEG,001,201056,
AMNE23.JPG,AMNE24.JPG,AMNE22.JPG,AMSA24.JPG,AMSA22.JPG,AMSA23.JPG,,,,,,,,,0,1,1,9,,,,,,,,,,,,,,,AFSA06.jpg,AFNE06.jpg,AFNE01.jpg,AFSA03.jpg,AFSA03.jpg,FS,4,num_4,32,num_2,1.06679893984,,,2017_Jul_28_1317,59.9971712131,FEMA4ImagesEEG,001,201056,
AMSA21.JPG,AMNE23.JPG,AMNE21.JPG,AMSA25.JPG,AMNE25.JPG,AMSA23.JPG,,,,,,,,,0,2,2,5,,,,,,,,,,,,,,,AFSA01.jpg,AFNE01.jpg,AFSA19.jpg,AFNE02.jpg,AFSA19.jpg,FS,4,num_2,16,num_2,1.61668830062,,,2017_Jul_28_1317,59.9971712131,FEMA4ImagesEEG,001,201056,
AMNE22.JPG,AMSA24.JPG,AMSA22.JPG,AMNE25.JPG,AMNE24.JPG,AMSA25.JPG,,,,,,,,,0,3,3,7,,,,,,,,,,,,,,,AFNE03.jpg,AFSA02.jpg,AFSA14.jpg,AFNE12.jpg,AFSA14.jpg,FS,4,num_2,32,num_6,0.866834477871,,,2017_Jul_28_1317,59.9971712131,FEMA4ImagesEEG,001,201056,
AFSA25.JPG,AFNE24.JPG,AFSA24.JPG,AFNE21.JPG,AFSA21.JPG,AFNE25.JPG,,,,,,,,,0,4,4,2,,,,,,,,,,,,,,,AFNE04.jpg,AFNE11.jpg,AFSA11.jpg,AFSA02.jpg,AFSA02.jpg,FS,4,num_4,32,num_2,2.23331822653,,,2017_Jul_28_1317,59.9971712131,FEMA4ImagesEEG,001,201056,
AFSA21.JPG,AFNE23.JPG,AFNE21.JPG,AFSA25.JPG,AFNE25.JPG,AFSA23.JPG,,,,,,,,,0,5,5,4,,,,,,,,,,,,,,,AFSA04.jpg,AFNE11.jpg,AFSA11.jpg,AFNE09.jpg,AFNE09.jpg,FN,3,num_4,16,num_4,1.28341398353,,,2017_Jul_28_1317,59.9971712131,FEMA4ImagesEEG,001,201056,
AMSA25.JPG,AMNE24.JPG,AMSA24.JPG,AMNE26.JPG,AMSA21.JPG,AMNE25.JPG,,,,,,,,,0,6,6,3,,,,,,,,,,,,,,,AFNE15.jpg,AFSA10.jpg,AFNE19.jpg,AFSA12.jpg,AFNE19.jpg,FN,3,num_2,16,num_2,1.43340873928,,,2017_Jul_28_1317,59.9971712131,FEMA4ImagesEEG,001,201056,
AFNE22.JPG,AFSA24.JPG,AFSA22.JPG,AFNE25.JPG,AFNE24.JPG,AFSA25.JPG,,,,,,,,,0,7,7,6,,,,,,,,,,,,,,,AFNE16.jpg,AFSA04.jpg,AFSA17.jpg,AFNE11.jpg,AFSA04.jpg,FS,4,num_6,32,num_8,1.15015223925,,,2017_Jul_28_1317,59.9971712131,FEMA4ImagesEEG,001,201056,
AFNE23.JPG,AFNE24.JPG,AFNE22.JPG,AFSA24.JPG,AFSA22.JPG,AFSA23.JPG,,,,,,,,,0,8,8,8,,,,,,,,,,,,,,,AFSA06.jpg,AFNE03.jpg,AFSA03.jpg,AFNE09.jpg,AFSA06.jpg,FS,4,num_8,32,num_6,0.816722363234,,,2017_Jul_28_1317,59.9971712131,FEMA4ImagesEEG,001,201056,
AMSA21.JPG,AMNE22.JPG,AMNE21.JPG,AMSA23.JPG,AMSA22.JPG,AMNE23.JPG,,,,,,,,,0,9,9,1,,,,,,,,,,,,,,,AFSA11.jpg,AFSA06.jpg,AFNE01.jpg,AFNE02.jpg,AFNE01.jpg,FN,3,num_2,16,num_2,1.71672425559,,,2017_Jul_28_1317,59.9971712131,FEMA4ImagesEEG,001,201056,
AFSA21.JPG,AFNE22.JPG,AFNE21.JPG,AFSA23.JPG,AFSA22.JPG,AFNE23.JPG,,,,,,,,,,,,,0,0,0,0,,,,,,,,,,,AMSA12.jpg,AMNE04.jpg,AMNE15.jpg,AMSA17.jpg,AMNE15.jpg,MN,1,num_2,32,num_4,2.00005228061,,,2017_Jul_28_1317,59.9971712131,FEMA4ImagesEEG,001,201056,
AFSA25.JPG,AFNE24.JPG,AFSA24.JPG,AFNE21.JPG,AFSA21.JPG,AFNE25.JPG,,,,,,,,,,,,,0,1,1,2,,,,,,,,,,,AMNE08.jpg,AMSA07.jpg,AMSA16.jpg,AMNE20.jpg,AMNE20.jpg,MN,1,num_4,16,num_4,1.01682121528,,,2017_Jul_28_1317,59.9971712131,FEMA4ImagesEEG,001,201056,
AMSA21.JPG,AMNE22.JPG,AMNE21.JPG,AMSA23.JPG,AMSA22.JPG,AMNE23.JPG,,,,,,,,,,,,,0,2,2,1,,,,,,,,,,,AMSA12.jpg,AMNE20.jpg,AMSA14.jpg,AMNE18.jpg,AMSA14.jpg,MS,2,num_2,16,num_2,0.616879461682,,,2017_Jul_28_1317,59.9971712131,FEMA4ImagesEEG,001,201056,
AMSA25.JPG,AMNE24.JPG,AMSA24.JPG,AMNE26.JPG,AMSA21.JPG,AMNE25.JPG,,,,,,,,,,,,,0,3,3,3,,,,,,,,,,,AMNE10.jpg,AMNE12.jpg,AMSA09.jpg,AMSA05.jpg,AMSA09.jpg,MS,2,num_2,16,num_2,0.783472518553,,,2017_Jul_28_1317,59.9971712131,FEMA4ImagesEEG,001,201056,
AMNE23.JPG,AMNE24.JPG,AMNE22.JPG,AMSA24.JPG,AMSA22.JPG,AMSA23.JPG,,,,,,,,,,,,,0,4,4,9,,,,,,,,,,,AMSA19.jpg,AMSA07.jpg,AMNE07.jpg,AMNE18.jpg,AMNE07.jpg,MN,1,num_2,32,num_4,1.05014835834,,,2017_Jul_28_1317,59.9971712131,FEMA4ImagesEEG,001,201056,
AFSA21.JPG,AFNE23.JPG,AFNE21.JPG,AFSA25.JPG,AFNE25.JPG,AFSA23.JPG,,,,,,,,,,,,,0,5,5,4,,,,,,,,,,,AMNE04.jpg,AMSA10.jpg,AMNE17.jpg,AMSA17.jpg,AMNE04.jpg,MN,1,num_8,16,num_8,0.999586886726,,,2017_Jul_28_1317,59.9971712131,FEMA4ImagesEEG,001,201056,
AFNE23.JPG,AFNE24.JPG,AFNE22.JPG,AFSA24.JPG,AFSA22.JPG,AFSA23.JPG,,,,,,,,,,,,,0,6,6,8,,,,,,,,,,,AMNE03.jpg,AMSA10.jpg,AMNE18.jpg,AMSA07.jpg,AMSA10.jpg,MS,2,num_6,32,num_2,1.10020787164,,,2017_Jul_28_1317,59.9971712131,FEMA4ImagesEEG,001,201056,
AFNE22.JPG,AFSA24.JPG,AFSA22.JPG,AFNE25.JPG,AFNE24.JPG,AFSA25.JPG,,,,,,,,,,,,,0,7,7,6,,,,,,,,,,,AMSA06.jpg,AMNE04.jpg,AMNE12.jpg,AMSA19.jpg,AMNE04.jpg,MN,1,num_6,32,num_8,0.900130188442,,,2017_Jul_28_1317,59.9971712131,FEMA4ImagesEEG,001,201056,
AMNE22.JPG,AMSA24.JPG,AMSA22.JPG,AMNE25.JPG,AMNE24.JPG,AMSA25.JPG,,,,,,,,,,,,,0,8,8,7,,,,,,,,,,,AMNE08.jpg,AMSA16.jpg,AMNE17.jpg,AMSA07.jpg,AMNE08.jpg,MN,1,num_8,32,num_2,1.05010088882,,,2017_Jul_28_1317,59.9971712131,FEMA4ImagesEEG,001,201056,
AMSA21.JPG,AMNE23.JPG,AMNE21.JPG,AMSA25.JPG,AMNE25.JPG,AMSA23.JPG,,,,,,,,,,,,,0,9,9,5,,,,,,,,,,,AMSA03.jpg,AMNE17.jpg,AMSA20.jpg,AMNE13.jpg,AMNE17.jpg,MN,1,num_6,16,num_6,1.13344969787,,,2017_Jul_28_1317,59.9971712131,FEMA4ImagesEEG,001,201056,
AMSA21.JPG,AMNE22.JPG,AMNE21.JPG,AMSA23.JPG,AMSA22.JPG,AMNE23.JPG,,,,,,,,,,,,,,,,,0,0,0,1,,,,,,,AFSA14.jpg,AFNE11.jpg,AFSA09.jpg,AFNE07.jpg,AFNE11.jpg,FN,3,num_6,32,num_8,1.50008964678,,,2017_Jul_28_1317,59.9971712131,FEMA4ImagesEEG,001,201056,
AFSA25.JPG,AFNE24.JPG,AFSA24.JPG,AFNE21.JPG,AFSA21.JPG,AFNE25.JPG,,,,,,,,,,,,,,,,,0,1,1,2,,,,,,,AFNE10.jpg,AFSA18.jpg,AFSA19.jpg,AFNE08.jpg,AFSA18.jpg,FS,4,num_6,16,num_6,1.16669954255,,,2017_Jul_28_1317,59.9971712131,FEMA4ImagesEEG,001,201056,
AMSA21.JPG,AMNE23.JPG,AMNE21.JPG,AMSA25.JPG,AMNE25.JPG,AMSA23.JPG,,,,,,,,,,,,,,,,,0,2,2,5,,,,,,,AFNE09.jpg,AFNE11.jpg,AFSA20.jpg,AFSA18.jpg,AFNE11.jpg,FN,3,num_6,32,num_4,0.950117855915,,,2017_Jul_28_1317,59.9971712131,FEMA4ImagesEEG,001,201056,
AFSA21.JPG,AFNE23.JPG,AFNE21.JPG,AFSA25.JPG,AFNE25.JPG,AFSA23.JPG,,,,,,,,,,,,,,,,,0,3,3,4,,,,,,,AFNE08.jpg,AFSA16.jpg,AFNE15.jpg,AFSA01.jpg,AFSA01.jpg,FS,4,num_4,32,num_6,2.03344934504,,,2017_Jul_28_1317,59.9971712131,FEMA4ImagesEEG,001,201056,
AFNE23.JPG,AFNE24.JPG,AFNE22.JPG,AFSA24.JPG,AFSA22.JPG,AFSA23.JPG,,,,,,,,,,,,,,,,,0,4,4,8,,,,,,,AFSA12.jpg,AFNE02.jpg,AFSA03.jpg,AFNE13.jpg,AFNE02.jpg,FN,3,num_6,32,num_4,2.49998027459,,,2017_Jul_28_1317,59.9971712131,FEMA4ImagesEEG,001,201056,
AMNE23.JPG,AMNE24.JPG,AMNE22.JPG,AMSA24.JPG,AMSA22.JPG,AMSA23.JPG,,,,,,,,,,,,,,,,,0,5,5,9,,,,,,,AFNE01.jpg,AFNE08.jpg,AFSA11.jpg,AFSA12.jpg,AFNE01.jpg,FN,3,num_8,16,num_8,0.900086567737,,,2017_Jul_28_1317,59.9971712131,FEMA4ImagesEEG,001,201056,
AFNE22.JPG,AFSA24.JPG,AFSA22.JPG,AFNE25.JPG,AFNE24.JPG,AFSA25.JPG,,,,,,,,,,,,,,,,,0,6,6,6,,,,,,,AFNE17.jpg,AFNE20.jpg,AFSA09.jpg,AFSA01.jpg,AFSA01.jpg,FS,4,num_4,32,num_2,1.20011841727,,,2017_Jul_28_1317,59.9971712131,FEMA4ImagesEEG,001,201056,
AMSA25.JPG,AMNE24.JPG,AMSA24.JPG,AMNE26.JPG,AMSA21.JPG,AMNE25.JPG,,,,,,,,,,,,,,,,,0,7,7,3,,,,,,,AFNE03.jpg,AFSA07.jpg,AFSA04.jpg,AFNE07.jpg,AFSA04.jpg,FS,4,num_2,16,num_2,0.716890719603,,,2017_Jul_28_1317,59.9971712131,FEMA4ImagesEEG,001,201056,
AFSA21.JPG,AFNE22.JPG,AFNE21.JPG,AFSA23.JPG,AFSA22.JPG,AFNE23.JPG,,,,,,,,,,,,,,,,,0,8,8,0,,,,,,,AFSA20.jpg,AFSA18.jpg,AFNE09.jpg,AFNE18.jpg,AFSA18.jpg,FS,4,num_6,32,num_4,1.1668833266,,,2017_Jul_28_1317,59.9971712131,FEMA4ImagesEEG,001,201056,
AMNE22.JPG,AMSA24.JPG,AMSA22.JPG,AMNE25.JPG,AMNE24.JPG,AMSA25.JPG,,,,,,,,,,,,,,,,,0,9,9,7,,,,,,,AFNE10.jpg,AFNE12.jpg,AFSA17.jpg,AFSA01.jpg,AFNE12.jpg,FN,3,num_6,16,num_6,0.966791530722,,,2017_Jul_28_1317,59.9971712131,FEMA4ImagesEEG,001,201056,
AMNE23.JPG,AMNE24.JPG,AMNE22.JPG,AMSA24.JPG,AMSA22.JPG,AMSA23.JPG,,,,,,,,,,,,,,,,,,,,,0,0,0,9,,,AMSA17.jpg,AMNE16.jpg,AMSA15.jpg,AMNE06.jpg,AMSA15.jpg,MS,2,num_2,32,num_6,0.933457331499,,,2017_Jul_28_1317,59.9971712131,FEMA4ImagesEEG,001,201056,
AMSA25.JPG,AMNE24.JPG,AMSA24.JPG,AMNE26.JPG,AMSA21.JPG,AMNE25.JPG,,,,,,,,,,,,,,,,,,,,,0,1,1,3,,,AMSA02.jpg,AMNE17.jpg,AMNE13.jpg,AMSA04.jpg,AMSA02.jpg,MS,2,num_8,32,num_4,0.766771260067,,,2017_Jul_28_1317,59.9971712131,FEMA4ImagesEEG,001,201056,
AFSA25.JPG,AFNE24.JPG,AFSA24.JPG,AFNE21.JPG,AFSA21.JPG,AFNE25.JPG,,,,,,,,,,,,,,,,,,,,,0,2,2,2,,,AMSA12.jpg,AMSA14.jpg,AMNE12.jpg,AMNE07.jpg,AMNE12.jpg,MN,1,num_2,16,num_2,1.08346010593,,,2017_Jul_28_1317,59.9971712131,FEMA4ImagesEEG,001,201056,
AFNE22.JPG,AFSA24.JPG,AFSA22.JPG,AFNE25.JPG,AFNE24.JPG,AFSA25.JPG,,,,,,,,,,,,,,,,,,,,,0,3,3,6,,,AMSA10.jpg,AMSA09.jpg,AMNE10.jpg,AMNE12.jpg,AMNE12.jpg,MN,1,num_4,32,num_8,0.683549463982,,,2017_Jul_28_1317,59.9971712131,FEMA4ImagesEEG,001,201056,
AMSA21.JPG,AMNE22.JPG,AMNE21.JPG,AMSA23.JPG,AMSA22.JPG,AMNE23.JPG,,,,,,,,,,,,,,,,,,,,,0,4,4,1,,,AMNE05.jpg,AMNE07.jpg,AMSA09.jpg,AMSA10.jpg,AMSA10.jpg,MS,2,num_4,32,num_2,0.63349893142,,,2017_Jul_28_1317,59.9971712131,FEMA4ImagesEEG,001,201056,
AMSA21.JPG,AMNE23.JPG,AMNE21.JPG,AMSA25.JPG,AMNE25.JPG,AMSA23.JPG,,,,,,,,,,,,,,,,,,,,,0,5,5,5,,,AMNE12.jpg,AMNE06.jpg,AMSA10.jpg,AMSA02.jpg,AMNE12.jpg,MN,1,num_8,32,num_6,0.716780385119,,,2017_Jul_28_1317,59.9971712131,FEMA4ImagesEEG,001,201056,
AFSA21.JPG,AFNE23.JPG,AFNE21.JPG,AFSA25.JPG,AFNE25.JPG,AFSA23.JPG,,,,,,,,,,,,,,,,,,,,,0,6,6,4,,,AMNE13.jpg,AMSA05.jpg,AMNE08.jpg,AMSA12.jpg,AMNE13.jpg,MN,1,num_8,32,num_2,1.18346366601,,,2017_Jul_28_1317,59.9971712131,FEMA4ImagesEEG,001,201056,
AMNE22.JPG,AMSA24.JPG,AMSA22.JPG,AMNE25.JPG,AMNE24.JPG,AMSA25.JPG,,,,,,,,,,,,,,,,,,,,,0,7,7,7,,,AMSA09.jpg,AMNE20.jpg,AMSA02.jpg,AMNE14.jpg,AMSA02.jpg,MS,2,num_2,32,num_4,0.983493430773,,,2017_Jul_28_1317,59.9971712131,FEMA4ImagesEEG,001,201056,
AFSA21.JPG,AFNE22.JPG,AFNE21.JPG,AFSA23.JPG,AFSA22.JPG,AFNE23.JPG,,,,,,,,,,,,,,,,,,,,,0,8,8,0,,,AMNE16.jpg,AMSA17.jpg,AMNE06.jpg,AMSA18.jpg,AMSA18.jpg,MS,2,num_4,16,num_4,0.850116861751,,,2017_Jul_28_1317,59.9971712131,FEMA4ImagesEEG,001,201056,
AFNE23.JPG,AFNE24.JPG,AFNE22.JPG,AFSA24.JPG,AFSA22.JPG,AFSA23.JPG,,,,,,,,,,,,,,,,,,,,,0,9,9,8,,,AMSA07.jpg,AMNE18.jpg,AMNE02.jpg,AMSA06.jpg,AMSA07.jpg,MS,2,num_8,16,num_8,0.666810999741,,,2017_Jul_28_1317,59.9971712131,FEMA4ImagesEEG,001,201056,
,,,,,,,,,,,,,,,,,,,,,,,,,,,,,,,,,,,,,,,,,,,space,28.6649545559,2017_Jul_28_1317,59.9971712131,FEMA4ImagesEEG,001,201056,
AFNE01.JPG,AFNE01.JPG,AFNE01.JPG,AFNE01.JPG,AFNE01.JPG,AFNE01.JPG,0,0,0,0,,,,,,,,,,,,,,,,,,,,,,,AFNE17.jpg,AFNE12.jpg,AFSA08.jpg,AFSA03.jpg,AFSA03.jpg,FS,4,num_4,16,num_4,1.23344459804,,,2017_Jul_28_1317,59.9971712131,FEMA4ImagesEEG,001,201056,
AFNE01.JPG,AFNE01.JPG,AFNE01.JPG,AFNE01.JPG,AFNE01.JPG,AFNE01.JPG,0,1,1,2,,,,,,,,,,,,,,,,,,,,,,,AFNE15.jpg,AFSA02.jpg,AFNE17.jpg,AFSA05.jpg,AFSA05.jpg,FS,4,num_4,16,num_4,0.900115434313,,,2017_Jul_28_1317,59.9971712131,FEMA4ImagesEEG,001,201056,
AFNE01.JPG,AFNE01.JPG,AFNE01.JPG,AFNE01.JPG,AFNE01.JPG,AFNE01.JPG,0,2,2,9,,,,,,,,,,,,,,,,,,,,,,,AFNE08.jpg,AFSA11.jpg,AFNE18.jpg,AFSA20.jpg,AFNE18.jpg,FN,3,num_2,32,num_8,0.983349739108,,,2017_Jul_28_1317,59.9971712131,FEMA4ImagesEEG,001,201056,
AFNE01.JPG,AFNE01.JPG,AFNE01.JPG,AFNE01.JPG,AFNE01.JPG,AFNE01.JPG,0,3,3,8,,,,,,,,,,,,,,,,,,,,,,,AFNE04.jpg,AFNE09.jpg,AFSA20.jpg,AFSA18.jpg,AFNE04.jpg,FN,3,num_8,32,num_2,0.866643316811,,,2017_Jul_28_1317,59.9971712131,FEMA4ImagesEEG,001,201056,
AFNE01.JPG,AFNE01.JPG,AFNE01.JPG,AFNE01.JPG,AFNE01.JPG,AFNE01.JPG,0,4,4,4,,,,,,,,,,,,,,,,,,,,,,,AFSA12.jpg,AFNE20.jpg,AFNE01.jpg,AFSA08.jpg,AFSA08.jpg,FS,4,num_4,32,num_6,1.93338003312,,,2017_Jul_28_1317,59.9971712131,FEMA4ImagesEEG,001,201056,
AFNE01.JPG,AFNE01.JPG,AFNE01.JPG,AFNE01.JPG,AFNE01.JPG,AFNE01.JPG,0,5,5,1,,,,,,,,,,,,,,,,,,,,,,,AFSA03.jpg,AFNE16.jpg,AFSA06.jpg,AFNE14.jpg,AFNE16.jpg,FN,3,num_6,16,num_6,0.983474507113,,,2017_Jul_28_1317,59.9971712131,FEMA4ImagesEEG,001,201056,
AFNE01.JPG,AFNE01.JPG,AFNE01.JPG,AFNE01.JPG,AFNE01.JPG,AFNE01.JPG,0,6,6,7,,,,,,,,,,,,,,,,,,,,,,,AFSA20.jpg,AFSA13.jpg,AFNE19.jpg,AFNE12.jpg,AFSA13.jpg,FS,4,num_6,32,num_4,1.20006838185,,,2017_Jul_28_1317,59.9971712131,FEMA4ImagesEEG,001,201056,
AFNE01.JPG,AFNE01.JPG,AFNE01.JPG,AFNE01.JPG,AFNE01.JPG,AFNE01.JPG,0,7,7,6,,,,,,,,,,,,,,,,,,,,,,,AFNE12.jpg,AFSA09.jpg,AFSA02.jpg,AFNE19.jpg,AFSA09.jpg,FS,4,num_6,32,num_2,1.30019542691,,,2017_Jul_28_1317,59.9971712131,FEMA4ImagesEEG,001,201056,
AFNE01.JPG,AFNE01.JPG,AFNE01.JPG,AFNE01.JPG,AFNE01.JPG,AFNE01.JPG,0,8,8,5,,,,,,,,,,,,,,,,,,,,,,,AFNE15.jpg,AFNE04.jpg,AFSA16.jpg,AFSA17.jpg,AFNE15.jpg,FN,3,num_8,16,num_8,0.950156665524,,,2017_Jul_28_1317,59.9971712131,FEMA4ImagesEEG,001,201056,
AFNE01.JPG,AFNE01.JPG,AFNE01.JPG,AFNE01.JPG,AFNE01.JPG,AFNE01.JPG,0,9,9,3,,,,,,,,,,,,,,,,,,,,,,,AFSA04.jpg,AFNE01.jpg,AFSA14.jpg,AFNE10.jpg,AFNE10.jpg,FN,3,num_4,32,num_8,1.08329652844,,,2017_Jul_28_1317,59.9971712131,FEMA4ImagesEEG,001,201056,
AFNE01.JPG,AFNE01.JPG,AFNE01.JPG,AFNE01.JPG,AFNE01.JPG,AFNE01.JPG,1,0,10,4,,,,,,,,,,,,,,,,,,,,,,,AFNE20.jpg,AFNE15.jpg,AFSA14.jpg,AFSA09.jpg,AFNE20.jpg,FN,3,num_8,16,num_8,1.66670804215,,,2017_Jul_28_1317,59.9971712131,FEMA4ImagesEEG,001,201056,
AFNE01.JPG,AFNE01.JPG,AFNE01.JPG,AFNE01.JPG,AFNE01.JPG,AFNE01.JPG,1,1,11,5,,,,,,,,,,,,,,,,,,,,,,,AFSA04.jpg,AFSA05.jpg,AFNE06.jpg,AFNE12.jpg,AFSA05.jpg,FS,4,num_6,16,num_6,1.33343661157,,,2017_Jul_28_1317,59.9971712131,FEMA4ImagesEEG,001,201056,
AFNE01.JPG,AFNE01.JPG,AFNE01.JPG,AFNE01.JPG,AFNE01.JPG,AFNE01.JPG,1,2,12,1,,,,,,,,,,,,,,,,,,,,,,,AFSA20.jpg,AFNE18.jpg,AFSA06.jpg,AFNE10.jpg,AFSA20.jpg,FS,4,num_8,16,num_8,1.21675392403,,,2017_Jul_28_1317,59.9971712131,FEMA4ImagesEEG,001,201056,
AFNE01.JPG,AFNE01.JPG,AFNE01.JPG,AFNE01.JPG,AFNE01.JPG,AFNE01.JPG,1,3,13,8,,,,,,,,,,,,,,,,,,,,,,,AFNE16.jpg,AFSA10.jpg,AFSA16.jpg,AFNE06.jpg,AFSA10.jpg,FS,4,num_6,16,num_6,1.01675514283,,,2017_Jul_28_1317,59.9971712131,FEMA4ImagesEEG,001,201056,
AFNE01.JPG,AFNE01.JPG,AFNE01.JPG,AFNE01.JPG,AFNE01.JPG,AFNE01.JPG,1,4,14,0,,,,,,,,,,,,,,,,,,,,,,,AFSA03.jpg,AFNE14.jpg,AFNE20.jpg,AFSA20.jpg,AFNE20.jpg,FN,3,num_2,32,num_8,1.34998840524,,,2017_Jul_28_1317,59.9971712131,FEMA4ImagesEEG,001,201056,
AFNE01.JPG,AFNE01.JPG,AFNE01.JPG,AFNE01.JPG,AFNE01.JPG,AFNE01.JPG,1,5,15,2,,,,,,,,,,,,,,,,,,,,,,,AFSA19.jpg,AFSA18.jpg,AFNE17.jpg,AFNE03.jpg,AFSA19.jpg,FS,4,num_8,32,num_4,1.05014450941,,,2017_Jul_28_1317,59.9971712131,FEMA4ImagesEEG,001,201056,
AFNE01.JPG,AFNE01.JPG,AFNE01.JPG,AFNE01.JPG,AFNE01.JPG,AFNE01.JPG,1,6,16,7,,,,,,,,,,,,,,,,,,,,,,,AFNE05.jpg,AFSA11.jpg,AFSA13.jpg,AFNE09.jpg,AFNE09.jpg,FN,3,num_4,32,num_8,0.900030117482,,,2017_Jul_28_1317,59.9971712131,FEMA4ImagesEEG,001,201056,
AFNE01.JPG,AFNE01.JPG,AFNE01.JPG,AFNE01.JPG,AFNE01.JPG,AFNE01.JPG,1,7,17,3,,,,,,,,,,,,,,,,,,,,,,,AFSA17.jpg,AFNE16.jpg,AFSA06.jpg,AFNE19.jpg,AFNE19.jpg,FN,3,num_4,32,num_2,1.06662477809,,,2017_Jul_28_1317,59.9971712131,FEMA4ImagesEEG,001,201056,
AFNE01.JPG,AFNE01.JPG,AFNE01.JPG,AFNE01.JPG,AFNE01.JPG,AFNE01.JPG,1,8,18,9,,,,,,,,,,,,,,,,,,,,,,,AFNE14.jpg,AFNE04.jpg,AFSA15.jpg,AFSA02.jpg,AFNE04.jpg,FN,3,num_6,32,num_8,1.61680344632,,,2017_Jul_28_1317,59.9971712131,FEMA4ImagesEEG,001,201056,
AFNE01.JPG,AFNE01.JPG,AFNE01.JPG,AFNE01.JPG,AFNE01.JPG,AFNE01.JPG,1,9,19,6,,,,,,,,,,,,,,,,,,,,,,,AFNE03.jpg,AFNE14.jpg,AFSA02.jpg,AFSA14.jpg,AFSA14.jpg,FS,4,num_4,32,num_6,0.883508473518,,,2017_Jul_28_1317,59.9971712131,FEMA4ImagesEEG,001,201056,
AFNE01.JPG,AFNE01.JPG,AFNE01.JPG,AFNE01.JPG,AFNE01.JPG,AFNE01.JPG,2,0,20,0,,,,,,,,,,,,,,,,,,,,,,,AFNE05.jpg,AFSA05.jpg,AFSA18.jpg,AFNE08.jpg,AFSA18.jpg,FS,4,num_2,32,num_4,2.26667134941,,,2017_Jul_28_1317,59.9971712131,FEMA4ImagesEEG,001,201056,
AFNE01.JPG,AFNE01.JPG,AFNE01.JPG,AFNE01.JPG,AFNE01.JPG,AFNE01.JPG,2,1,21,6,,,,,,,,,,,,,,,,,,,,,,,AFNE10.jpg,AFNE17.jpg,AFSA03.jpg,AFSA01.jpg,AFSA03.jpg,FS,4,num_2,16,num_2,0.90013082989,,,2017_Jul_28_1317,59.9971712131,FEMA4ImagesEEG,001,201056,
AFNE01.JPG,AFNE01.JPG,AFNE01.JPG,AFNE01.JPG,AFNE01.JPG,AFNE01.JPG,2,2,22,7,,,,,,,,,,,,,,,,,,,,,,,AFSA07.jpg,AFNE04.jpg,AFSA06.jpg,AFNE11.jpg,AFSA07.jpg,FS,4,num_8,32,num_2,0.866775140981,,,2017_Jul_28_1317,59.9971712131,FEMA4ImagesEEG,001,201056,
AFNE01.JPG,AFNE01.JPG,AFNE01.JPG,AFNE01.JPG,AFNE01.JPG,AFNE01.JPG,2,3,23,9,,,,,,,,,,,,,,,,,,,,,,,AFNE09.jpg,AFNE04.jpg,AFSA11.jpg,AFSA06.jpg,AFSA06.jpg,FS,4,num_4,32,num_2,1.10013859184,,,2017_Jul_28_1317,59.9971712131,FEMA4ImagesEEG,001,201056,
AFNE01.JPG,AFNE01.JPG,AFNE01.JPG,AFNE01.JPG,AFNE01.JPG,AFNE01.JPG,2,4,24,5,,,,,,,,,,,,,,,,,,,,,,,AFNE06.jpg,AFSA16.jpg,AFNE04.jpg,AFSA01.jpg,AFNE04.jpg,FN,3,num_2,32,num_8,0.866719653015,,,2017_Jul_28_1317,59.9971712131,FEMA4ImagesEEG,001,201056,
AFNE01.JPG,AFNE01.JPG,AFNE01.JPG,AFNE01.JPG,AFNE01.JPG,AFNE01.JPG,2,5,25,3,,,,,,,,,,,,,,,,,,,,,,,AFSA15.jpg,AFNE11.jpg,AFSA12.jpg,AFNE08.jpg,AFNE11.jpg,FN,3,num_6,16,num_6,0.666836017394,,,2017_Jul_28_1317,59.9971712131,FEMA4ImagesEEG,001,201056,
AFNE01.JPG,AFNE01.JPG,AFNE01.JPG,AFNE01.JPG,AFNE01.JPG,AFNE01.JPG,2,6,26,2,,,,,,,,,,,,,,,,,,,,,,,AFNE10.jpg,AFSA04.jpg,AFSA16.jpg,AFNE03.jpg,AFNE10.jpg,FN,3,num_8,16,num_8,0.91660917399,,,2017_Jul_28_1317,59.9971712131,FEMA4ImagesEEG,001,201056,
AFNE01.JPG,AFNE01.JPG,AFNE01.JPG,AFNE01.JPG,AFNE01.JPG,AFNE01.JPG,2,7,27,4,,,,,,,,,,,,,,,,,,,,,,,AFSA19.jpg,AFNE09.jpg,AFSA06.jpg,AFNE05.jpg,AFNE05.jpg,FN,3,num_4,32,num_2,1.25012436695,,,2017_Jul_28_1317,59.9971712131,FEMA4ImagesEEG,001,201056,
AFNE01.JPG,AFNE01.JPG,AFNE01.JPG,AFNE01.JPG,AFNE01.JPG,AFNE01.JPG,2,8,28,8,,,,,,,,,,,,,,,,,,,,,,,AFNE08.jpg,AFSA12.jpg,AFSA03.jpg,AFNE04.jpg,AFSA12.jpg,FS,4,num_6,16,num_6,1.11675036384,,,2017_Jul_28_1317,59.9971712131,FEMA4ImagesEEG,001,201056,
AFNE01.JPG,AFNE01.JPG,AFNE01.JPG,AFNE01.JPG,AFNE01.JPG,AFNE01.JPG,2,9,29,1,,,,,,,,,,,,,,,,,,,,,,,AFSA20.jpg,AFNE05.jpg,AFSA04.jpg,AFNE09.jpg,AFNE05.jpg,FN,3,num_6,48,None,,,,2017_Jul_28_1317,59.9971712131,FEMA4ImagesEEG,001,201056,
AFNE01.JPG,AFNE01.JPG,AFNE01.JPG,AFNE01.JPG,AFNE01.JPG,AFNE01.JPG,3,0,30,7,,,,,,,,,,,,,,,,,,,,,,,AFSA16.jpg,AFNE12.jpg,AFSA07.jpg,AFNE13.jpg,AFSA16.jpg,FS,4,num_8,16,num_8,0.883420911385,,,2017_Jul_28_1317,59.9971712131,FEMA4ImagesEEG,001,201056,
AFNE01.JPG,AFNE01.JPG,AFNE01.JPG,AFNE01.JPG,AFNE01.JPG,AFNE01.JPG,3,1,31,6,,,,,,,,,,,,,,,,,,,,,,,AFNE16.jpg,AFSA01.jpg,AFSA20.jpg,AFNE20.jpg,AFNE16.jpg,FN,3,num_8,32,num_4,0.950190343196,,,2017_Jul_28_1317,59.9971712131,FEMA4ImagesEEG,001,201056,
AFNE01.JPG,AFNE01.JPG,AFNE01.JPG,AFNE01.JPG,AFNE01.JPG,AFNE01.JPG,3,2,32,0,,,,,,,,,,,,,,,,,,,,,,,AFNE17.jpg,AFSA06.jpg,AFSA12.jpg,AFNE20.jpg,AFNE20.jpg,FN,3,num_4,32,num_6,1.28342969972,,,2017_Jul_28_1317,59.9971712131,FEMA4ImagesEEG,001,201056,
AFNE01.JPG,AFNE01.JPG,AFNE01.JPG,AFNE01.JPG,AFNE01.JPG,AFNE01.JPG,3,3,33,9,,,,,,,,,,,,,,,,,,,,,,,AFSA17.jpg,AFNE17.jpg,AFSA02.jpg,AFNE07.jpg,AFSA17.jpg,FS,4,num_8,16,num_8,0.916769864736,,,2017_Jul_28_1317,59.9971712131,FEMA4ImagesEEG,001,201056,
AFNE01.JPG,AFNE01.JPG,AFNE01.JPG,AFNE01.JPG,AFNE01.JPG,AFNE01.JPG,3,4,34,1,,,,,,,,,,,,,,,,,,,,,,,AFSA14.jpg,AFSA05.jpg,AFNE04.jpg,AFNE12.jpg,AFNE04.jpg,FN,3,num_2,16,num_2,1.10012640362,,,2017_Jul_28_1317,59.9971712131,FEMA4ImagesEEG,001,201056,
AFNE01.JPG,AFNE01.JPG,AFNE01.JPG,AFNE01.JPG,AFNE01.JPG,AFNE01.JPG,3,5,35,4,,,,,,,,,,,,,,,,,,,,,,,AFNE04.jpg,AFNE18.jpg,AFSA14.jpg,AFSA07.jpg,AFNE18.jpg,FN,3,num_6,16,num_6,1.15040081285,,,2017_Jul_28_1317,59.9971712131,FEMA4ImagesEEG,001,201056,
AFNE01.JPG,AFNE01.JPG,AFNE01.JPG,AFNE01.JPG,AFNE01.JPG,AFNE01.JPG,3,6,36,3,,,,,,,,,,,,,,,,,,,,,,,AFNE15.jpg,AFSA18.jpg,AFSA01.jpg,AFNE05.jpg,AFSA18.jpg,FS,4,num_6,32,num_8,1.01677983976,,,2017_Jul_28_1317,59.9971712131,FEMA4ImagesEEG,001,201056,
AFNE01.JPG,AFNE01.JPG,AFNE01.JPG,AFNE01.JPG,AFNE01.JPG,AFNE01.JPG,3,7,37,5,,,,,,,,,,,,,,,,,,,,,,,AFSA05.jpg,AFNE09.jpg,AFSA13.jpg,AFNE01.jpg,AFNE09.jpg,FN,3,num_6,32,num_2,1.28344958567,,,2017_Jul_28_1317,59.9971712131,FEMA4ImagesEEG,001,201056,
AFNE01.JPG,AFNE01.JPG,AFNE01.JPG,AFNE01.JPG,AFNE01.JPG,AFNE01.JPG,3,8,38,8,,,,,,,,,,,,,,,,,,,,,,,AFNE18.jpg,AFSA09.jpg,AFNE02.jpg,AFSA04.jpg,AFSA04.jpg,FS,4,num_4,16,num_4,1.18327218422,,,2017_Jul_28_1317,59.9971712131,FEMA4ImagesEEG,001,201056,
AFNE01.JPG,AFNE01.JPG,AFNE01.JPG,AFNE01.JPG,AFNE01.JPG,AFNE01.JPG,3,9,39,2,,,,,,,,,,,,,,,,,,,,,,,AFNE07.jpg,AFNE02.jpg,AFSA13.jpg,AFSA04.jpg,AFSA04.jpg,FS,4,num_4,16,num_4,2.03339770588,,,2017_Jul_28_1317,59.9971712131,FEMA4ImagesEEG,001,201056,
AFNE01.JPG,AFNE01.JPG,AFNE01.JPG,AFNE01.JPG,AFNE01.JPG,AFNE01.JPG,4,0,40,6,,,,,,,,,,,,,,,,,,,,,,,AFNE12.jpg,AFNE19.jpg,AFSA03.jpg,AFSA18.jpg,AFSA03.jpg,FS,4,num_2,16,num_2,0.783496253309,,,2017_Jul_28_1317,59.9971712131,FEMA4ImagesEEG,001,201056,
AFNE01.JPG,AFNE01.JPG,AFNE01.JPG,AFNE01.JPG,AFNE01.JPG,AFNE01.JPG,4,1,41,4,,,,,,,,,,,,,,,,,,,,,,,AFSA09.jpg,AFNE11.jpg,AFNE15.jpg,AFSA02.jpg,AFNE11.jpg,FN,3,num_6,32,num_4,1.38343710883,,,2017_Jul_28_1317,59.9971712131,FEMA4ImagesEEG,001,201056,
AFNE01.JPG,AFNE01.JPG,AFNE01.JPG,AFNE01.JPG,AFNE01.JPG,AFNE01.JPG,4,2,42,2,,,,,,,,,,,,,,,,,,,,,,,AFSA07.jpg,AFNE17.jpg,AFSA09.jpg,AFNE10.jpg,AFSA07.jpg,FS,4,num_8,16,num_8,0.700227950001,,,2017_Jul_28_1317,59.9971712131,FEMA4ImagesEEG,001,201056,
AFNE01.JPG,AFNE01.JPG,AFNE01.JPG,AFNE01.JPG,AFNE01.JPG,AFNE01.JPG,4,3,43,3,,,,,,,,,,,,,,,,,,,,,,,AFSA14.jpg,AFSA11.jpg,AFNE02.jpg,AFNE15.jpg,AFSA11.jpg,FS,4,num_6,32,num_8,1.16669858037,,,2017_Jul_28_1317,59.9971712131,FEMA4ImagesEEG,001,201056,
AFNE01.JPG,AFNE01.JPG,AFNE01.JPG,AFNE01.JPG,AFNE01.JPG,AFNE01.JPG,4,4,44,1,,,,,,,,,,,,,,,,,,,,,,,AFNE01.jpg,AFSA07.jpg,AFSA01.jpg,AFNE12.jpg,AFSA01.jpg,FS,4,num_2,16,num_2,0.716791611048,,,2017_Jul_28_1317,59.9971712131,FEMA4ImagesEEG,001,201056,
AFNE01.JPG,AFNE01.JPG,AFNE01.JPG,AFNE01.JPG,AFNE01.JPG,AFNE01.JPG,4,5,45,5,,,,,,,,,,,,,,,,,,,,,,,AFNE04.jpg,AFNE03.jpg,AFSA17.jpg,AFSA10.jpg,AFNE03.jpg,FN,3,num_6,32,num_4,0.90010677441,,,2017_Jul_28_1317,59.9971712131,FEMA4ImagesEEG,001,201056,
AFNE01.JPG,AFNE01.JPG,AFNE01.JPG,AFNE01.JPG,AFNE01.JPG,AFNE01.JPG,4,6,46,7,,,,,,,,,,,,,,,,,,,,,,,AFNE17.jpg,AFSA06.jpg,AFNE19.jpg,AFSA01.jpg,AFSA06.jpg,FS,4,num_6,32,num_2,1.20015434013,,,2017_Jul_28_1317,59.9971712131,FEMA4ImagesEEG,001,201056,
AFNE01.JPG,AFNE01.JPG,AFNE01.JPG,AFNE01.JPG,AFNE01.JPG,AFNE01.JPG,4,7,47,9,,,,,,,,,,,,,,,,,,,,,,,AFSA06.jpg,AFNE20.jpg,AFNE07.jpg,AFSA08.jpg,AFSA08.jpg,FS,4,num_4,32,num_8,0.816772077931,,,2017_Jul_28_1317,59.9971712131,FEMA4ImagesEEG,001,201056,
AFNE01.JPG,AFNE01.JPG,AFNE01.JPG,AFNE01.JPG,AFNE01.JPG,AFNE01.JPG,4,8,48,0,,,,,,,,,,,,,,,,,,,,,,,AFNE13.jpg,AFNE09.jpg,AFSA16.jpg,AFSA01.jpg,AFNE09.jpg,FN,3,num_6,16,num_6,0.716794176842,,,2017_Jul_28_1317,59.9971712131,FEMA4ImagesEEG,001,201056,
AFNE01.JPG,AFNE01.JPG,AFNE01.JPG,AFNE01.JPG,AFNE01.JPG,AFNE01.JPG,4,9,49,8,,,,,,,,,,,,,,,,,,,,,,,AFSA19.jpg,AFNE03.jpg,AFSA13.jpg,AFNE09.jpg,AFNE03.jpg,FN,3,num_6,16,num_6,0.600174354389,,,2017_Jul_28_1317,59.9971712131,FEMA4ImagesEEG,001,201056,
AFNE01.JPG,AFNE01.JPG,AFNE01.JPG,AFNE01.JPG,AFNE01.JPG,AFNE01.JPG,5,0,50,7,,,,,,,,,,,,,,,,,,,,,,,AFSA20.jpg,AFSA01.jpg,AFNE02.jpg,AFNE09.jpg,AFNE09.jpg,FN,3,num_4,16,num_4,1.66657108616,,,2017_Jul_28_1317,59.9971712131,FEMA4ImagesEEG,001,201056,
AFNE01.JPG,AFNE01.JPG,AFNE01.JPG,AFNE01.JPG,AFNE01.JPG,AFNE01.JPG,5,1,51,1,,,,,,,,,,,,,,,,,,,,,,,AFNE13.jpg,AFNE16.jpg,AFSA03.jpg,AFSA16.jpg,AFNE16.jpg,FN,3,num_6,32,num_2,0.88346966391,,,2017_Jul_28_1317,59.9971712131,FEMA4ImagesEEG,001,201056,
AFNE01.JPG,AFNE01.JPG,AFNE01.JPG,AFNE01.JPG,AFNE01.JPG,AFNE01.JPG,5,2,52,9,,,,,,,,,,,,,,,,,,,,,,,AFSA14.jpg,AFNE16.jpg,AFNE02.jpg,AFSA12.jpg,AFSA12.jpg,FS,4,num_4,16,num_4,1.08348127478,,,2017_Jul_28_1317,59.9971712131,FEMA4ImagesEEG,001,201056,
AFNE01.JPG,AFNE01.JPG,AFNE01.JPG,AFNE01.JPG,AFNE01.JPG,AFNE01.JPG,5,3,53,4,,,,,,,,,,,,,,,,,,,,,,,AFSA13.jpg,AFNE02.jpg,AFNE11.jpg,AFSA03.jpg,AFSA03.jpg,FS,4,num_4,16,num_4,0.783400993445,,,2017_Jul_28_1317,59.9971712131,FEMA4ImagesEEG,001,201056,
AFNE01.JPG,AFNE01.JPG,AFNE01.JPG,AFNE01.JPG,AFNE01.JPG,AFNE01.JPG,5,4,54,2,,,,,,,,,,,,,,,,,,,,,,,AFSA19.jpg,AFSA09.jpg,AFNE08.jpg,AFNE11.jpg,AFSA19.jpg,FS,4,num_8,32,num_2,1.34993195499,,,2017_Jul_28_1317,59.9971712131,FEMA4ImagesEEG,001,201056,
AFNE01.JPG,AFNE01.JPG,AFNE01.JPG,AFNE01.JPG,AFNE01.JPG,AFNE01.JPG,5,5,55,0,,,,,,,,,,,,,,,,,,,,,,,AFNE09.jpg,AFNE03.jpg,AFSA08.jpg,AFSA01.jpg,AFNE03.jpg,FN,3,num_6,32,num_4,0.833510221564,,,2017_Jul_28_1317,59.9971712131,FEMA4ImagesEEG,001,201056,
AFNE01.JPG,AFNE01.JPG,AFNE01.JPG,AFNE01.JPG,AFNE01.JPG,AFNE01.JPG,5,6,56,8,,,,,,,,,,,,,,,,,,,,,,,AFNE09.jpg,AFSA11.jpg,AFNE05.jpg,AFSA03.jpg,AFNE05.jpg,FN,3,num_2,32,num_8,1.10015687393,,,2017_Jul_28_1317,59.9971712131,FEMA4ImagesEEG,001,201056,
AFNE01.JPG,AFNE01.JPG,AFNE01.JPG,AFNE01.JPG,AFNE01.JPG,AFNE01.JPG,5,7,57,5,,,,,,,,,,,,,,,,,,,,,,,AFSA05.jpg,AFSA07.jpg,AFNE09.jpg,AFNE13.jpg,AFSA07.jpg,FS,4,num_6,32,num_8,1.18344313873,,,2017_Jul_28_1317,59.9971712131,FEMA4ImagesEEG,001,201056,
AFNE01.JPG,AFNE01.JPG,AFNE01.JPG,AFNE01.JPG,AFNE01.JPG,AFNE01.JPG,5,8,58,6,,,,,,,,,,,,,,,,,,,,,,,AFNE15.jpg,AFNE01.jpg,AFSA07.jpg,AFSA13.jpg,AFNE01.jpg,FN,3,num_6,32,num_2,1.05011051102,,,2017_Jul_28_1317,59.9971712131,FEMA4ImagesEEG,001,201056,
AFNE01.JPG,AFNE01.JPG,AFNE01.JPG,AFNE01.JPG,AFNE01.JPG,AFNE01.JPG,5,9,59,3,,,,,,,,,,,,,,,,,,,,,,,AFSA09.jpg,AFSA02.jpg,AFNE04.jpg,AFNE14.jpg,AFSA02.jpg,FS,4,num_6,32,num_2,1.25011346187,,,2017_Jul_28_1317,59.9971712131,FEMA4ImagesEEG,001,201056,
,,,,,,,,,,,,,,,,,,,,,,,,,,,,,,,,,,,,,,,,,,,space,28.5810306598,2017_Jul_28_1317,59.9971712131,FEMA4ImagesEEG,001,201056,
AFNE01.JPG,AFNE01.JPG,AFNE01.JPG,AFNE01.JPG,AFNE01.JPG,AFNE01.JPG,,,,,0,0,0,1,,,,,,,,,,,,,,,,,,,AMSA11.jpg,AMNE09.jpg,AMSA09.jpg,AMNE17.jpg,AMNE17.jpg,MN,1,num_4,32,num_2,1.11677249486,,,2017_Jul_28_1317,59.9971712131,FEMA4ImagesEEG,001,201056,
AFNE01.JPG,AFNE01.JPG,AFNE01.JPG,AFNE01.JPG,AFNE01.JPG,AFNE01.JPG,,,,,0,1,1,3,,,,,,,,,,,,,,,,,,,AMSA16.jpg,AMNE10.jpg,AMNE14.jpg,AMSA05.jpg,AMSA16.jpg,MS,2,num_8,32,num_6,0.916772430763,,,2017_Jul_28_1317,59.9971712131,FEMA4ImagesEEG,001,201056,
AFNE01.JPG,AFNE01.JPG,AFNE01.JPG,AFNE01.JPG,AFNE01.JPG,AFNE01.JPG,,,,,0,2,2,4,,,,,,,,,,,,,,,,,,,AMNE09.jpg,AMNE10.jpg,AMSA10.jpg,AMSA16.jpg,AMNE09.jpg,MN,1,num_8,32,num_6,1.08369905723,,,2017_Jul_28_1317,59.9971712131,FEMA4ImagesEEG,001,201056,
AFNE01.JPG,AFNE01.JPG,AFNE01.JPG,AFNE01.JPG,AFNE01.JPG,AFNE01.JPG,,,,,0,3,3,0,,,,,,,,,,,,,,,,,,,AMSA10.jpg,AMNE02.jpg,AMNE20.jpg,AMSA01.jpg,AMSA10.jpg,MS,2,num_8,16,num_8,0.816724287579,,,2017_Jul_28_1317,59.9971712131,FEMA4ImagesEEG,001,201056,
AFNE01.JPG,AFNE01.JPG,AFNE01.JPG,AFNE01.JPG,AFNE01.JPG,AFNE01.JPG,,,,,0,4,4,2,,,,,,,,,,,,,,,,,,,AMSA03.jpg,AMSA15.jpg,AMNE16.jpg,AMNE02.jpg,AMSA03.jpg,MS,2,num_8,32,num_4,2.66663298896,,,2017_Jul_28_1317,59.9971712131,FEMA4ImagesEEG,001,201056,
AFNE01.JPG,AFNE01.JPG,AFNE01.JPG,AFNE01.JPG,AFNE01.JPG,AFNE01.JPG,,,,,0,5,5,7,,,,,,,,,,,,,,,,,,,AMSA11.jpg,AMNE01.jpg,AMSA12.jpg,AMNE10.jpg,AMSA12.jpg,MS,2,num_2,16,num_2,0.766785372631,,,2017_Jul_28_1317,59.9971712131,FEMA4ImagesEEG,001,201056,
AFNE01.JPG,AFNE01.JPG,AFNE01.JPG,AFNE01.JPG,AFNE01.JPG,AFNE01.JPG,,,,,0,6,6,6,,,,,,,,,,,,,,,,,,,AMSA03.jpg,AMNE13.jpg,AMSA09.jpg,AMNE10.jpg,AMNE13.jpg,MN,1,num_6,32,num_4,0.950121063273,,,2017_Jul_28_1317,59.9971712131,FEMA4ImagesEEG,001,201056,
AFNE01.JPG,AFNE01.JPG,AFNE01.JPG,AFNE01.JPG,AFNE01.JPG,AFNE01.JPG,,,,,0,7,7,5,,,,,,,,,,,,,,,,,,,AMSA05.jpg,AMSA15.jpg,AMNE01.jpg,AMNE05.jpg,AMNE05.jpg,MN,1,num_4,32,num_2,1.35010419239,,,2017_Jul_28_1317,59.9971712131,FEMA4ImagesEEG,001,201056,
AFNE01.JPG,AFNE01.JPG,AFNE01.JPG,AFNE01.JPG,AFNE01.JPG,AFNE01.JPG,,,,,0,8,8,8,,,,,,,,,,,,,,,,,,,AMSA03.jpg,AMSA17.jpg,AMNE11.jpg,AMNE02.jpg,AMSA03.jpg,MS,2,num_8,16,num_8,1.21671447298,,,2017_Jul_28_1317,59.9971712131,FEMA4ImagesEEG,001,201056,
AFNE01.JPG,AFNE01.JPG,AFNE01.JPG,AFNE01.JPG,AFNE01.JPG,AFNE01.JPG,,,,,0,9,9,9,,,,,,,,,,,,,,,,,,,AMSA01.jpg,AMNE16.jpg,AMNE10.jpg,AMSA10.jpg,AMNE16.jpg,MN,1,num_6,32,num_2,1.26674704417,,,2017_Jul_28_1317,59.9971712131,FEMA4ImagesEEG,001,201056,
AFNE01.JPG,AFNE01.JPG,AFNE01.JPG,AFNE01.JPG,AFNE01.JPG,AFNE01.JPG,,,,,1,0,10,5,,,,,,,,,,,,,,,,,,,AMNE16.jpg,AMNE02.jpg,AMSA18.jpg,AMSA13.jpg,AMSA18.jpg,MS,2,num_2,32,num_8,1.4167305741,,,2017_Jul_28_1317,59.9971712131,FEMA4ImagesEEG,001,201056,
AFNE01.JPG,AFNE01.JPG,AFNE01.JPG,AFNE01.JPG,AFNE01.JPG,AFNE01.JPG,,,,,1,1,11,9,,,,,,,,,,,,,,,,,,,AMNE14.jpg,AMSA12.jpg,AMNE19.jpg,AMSA13.jpg,AMNE19.jpg,MN,1,num_2,16,num_2,1.31676838943,,,2017_Jul_28_1317,59.9971712131,FEMA4ImagesEEG,001,201056,
AFNE01.JPG,AFNE01.JPG,AFNE01.JPG,AFNE01.JPG,AFNE01.JPG,AFNE01.JPG,,,,,1,2,12,4,,,,,,,,,,,,,,,,,,,AMNE15.jpg,AMSA19.jpg,AMNE11.jpg,AMSA08.jpg,AMSA19.jpg,MS,2,num_6,16,num_6,0.783463858534,,,2017_Jul_28_1317,59.9971712131,FEMA4ImagesEEG,001,201056,
AFNE01.JPG,AFNE01.JPG,AFNE01.JPG,AFNE01.JPG,AFNE01.JPG,AFNE01.JPG,,,,,1,3,13,6,,,,,,,,,,,,,,,,,,,AMSA19.jpg,AMSA20.jpg,AMNE02.jpg,AMNE11.jpg,AMNE02.jpg,MN,1,num_2,16,num_2,1.26675506274,,,2017_Jul_28_1317,59.9971712131,FEMA4ImagesEEG,001,201056,
AFNE01.JPG,AFNE01.JPG,AFNE01.JPG,AFNE01.JPG,AFNE01.JPG,AFNE01.JPG,,,,,1,4,14,3,,,,,,,,,,,,,,,,,,,AMNE03.jpg,AMSA07.jpg,AMNE01.jpg,AMSA13.jpg,AMNE01.jpg,MN,1,num_2,32,num_4,1.18349894753,,,2017_Jul_28_1317,59.9971712131,FEMA4ImagesEEG,001,201056,
AFNE01.JPG,AFNE01.JPG,AFNE01.JPG,AFNE01.JPG,AFNE01.JPG,AFNE01.JPG,,,,,1,5,15,2,,,,,,,,,,,,,,,,,,,AMNE18.jpg,AMNE20.jpg,AMSA05.jpg,AMSA13.jpg,AMSA05.jpg,MS,2,num_2,16,num_2,0.950136138126,,,2017_Jul_28_1317,59.9971712131,FEMA4ImagesEEG,001,201056,
AFNE01.JPG,AFNE01.JPG,AFNE01.JPG,AFNE01.JPG,AFNE01.JPG,AFNE01.JPG,,,,,1,6,16,1,,,,,,,,,,,,,,,,,,,AMNE14.jpg,AMNE17.jpg,AMSA17.jpg,AMSA07.jpg,AMNE14.jpg,MN,1,num_8,32,num_2,1.05011788802,,,2017_Jul_28_1317,59.9971712131,FEMA4ImagesEEG,001,201056,
AFNE01.JPG,AFNE01.JPG,AFNE01.JPG,AFNE01.JPG,AFNE01.JPG,AFNE01.JPG,,,,,1,7,17,7,,,,,,,,,,,,,,,,,,,AMNE12.jpg,AMSA08.jpg,AMSA14.jpg,AMNE03.jpg,AMNE12.jpg,MN,1,num_8,32,num_4,1.03342849691,,,2017_Jul_28_1317,59.9971712131,FEMA4ImagesEEG,001,201056,
AFNE01.JPG,AFNE01.JPG,AFNE01.JPG,AFNE01.JPG,AFNE01.JPG,AFNE01.JPG,,,,,1,8,18,8,,,,,,,,,,,,,,,,,,,AMNE15.jpg,AMNE18.jpg,AMSA20.jpg,AMSA04.jpg,AMSA04.jpg,MS,2,num_4,16,num_4,0.950141911395,,,2017_Jul_28_1317,59.9971712131,FEMA4ImagesEEG,001,201056,
AFNE01.JPG,AFNE01.JPG,AFNE01.JPG,AFNE01.JPG,AFNE01.JPG,AFNE01.JPG,,,,,1,9,19,0,,,,,,,,,,,,,,,,,,,AMNE06.jpg,AMSA03.jpg,AMSA07.jpg,AMNE10.jpg,AMSA07.jpg,MS,2,num_2,16,num_2,0.716869550874,,,2017_Jul_28_1317,59.9971712131,FEMA4ImagesEEG,001,201056,
AFNE01.JPG,AFNE01.JPG,AFNE01.JPG,AFNE01.JPG,AFNE01.JPG,AFNE01.JPG,,,,,2,0,20,1,,,,,,,,,,,,,,,,,,,AMNE20.jpg,AMNE01.jpg,AMSA06.jpg,AMSA20.jpg,AMSA06.jpg,MS,2,num_2,32,num_4,0.75022684352,,,2017_Jul_28_1317,59.9971712131,FEMA4ImagesEEG,001,201056,
AFNE01.JPG,AFNE01.JPG,AFNE01.JPG,AFNE01.JPG,AFNE01.JPG,AFNE01.JPG,,,,,2,1,21,3,,,,,,,,,,,,,,,,,,,AMSA12.jpg,AMNE19.jpg,AMSA13.jpg,AMNE07.jpg,AMNE07.jpg,MN,1,num_4,16,num_4,1.1334416793,,,2017_Jul_28_1317,59.9971712131,FEMA4ImagesEEG,001,201056,
AFNE01.JPG,AFNE01.JPG,AFNE01.JPG,AFNE01.JPG,AFNE01.JPG,AFNE01.JPG,,,,,2,2,22,5,,,,,,,,,,,,,,,,,,,AMSA12.jpg,AMNE19.jpg,AMSA06.jpg,AMNE11.jpg,AMSA06.jpg,MS,2,num_2,32,num_8,0.766795636271,,,2017_Jul_28_1317,59.9971712131,FEMA4ImagesEEG,001,201056,
AFNE01.JPG,AFNE01.JPG,AFNE01.JPG,AFNE01.JPG,AFNE01.JPG,AFNE01.JPG,,,,,2,3,23,7,,,,,,,,,,,,,,,,,,,AMSA04.jpg,AMSA16.jpg,AMNE19.jpg,AMNE20.jpg,AMNE19.jpg,MN,1,num_2,16,num_2,0.616914422368,,,2017_Jul_28_1317,59.9971712131,FEMA4ImagesEEG,001,201056,
AFNE01.JPG,AFNE01.JPG,AFNE01.JPG,AFNE01.JPG,AFNE01.JPG,AFNE01.JPG,,,,,2,4,24,4,,,,,,,,,,,,,,,,,,,AMSA02.jpg,AMNE08.jpg,AMNE09.jpg,AMSA16.jpg,AMNE08.jpg,MN,1,num_6,32,num_4,0.983426396037,,,2017_Jul_28_1317,59.9971712131,FEMA4ImagesEEG,001,201056,
AFNE01.JPG,AFNE01.JPG,AFNE01.JPG,AFNE01.JPG,AFNE01.JPG,AFNE01.JPG,,,,,2,5,25,2,,,,,,,,,,,,,,,,,,,AMNE14.jpg,AMSA08.jpg,AMSA16.jpg,AMNE17.jpg,AMSA08.jpg,MS,2,num_6,32,num_4,0.833453771193,,,2017_Jul_28_1317,59.9971712131,FEMA4ImagesEEG,001,201056,
AFNE01.JPG,AFNE01.JPG,AFNE01.JPG,AFNE01.JPG,AFNE01.JPG,AFNE01.JPG,,,,,2,6,26,8,,,,,,,,,,,,,,,,,,,AMNE13.jpg,AMSA01.jpg,AMNE06.jpg,AMSA20.jpg,AMSA20.jpg,MS,2,num_4,32,num_6,0.583486246178,,,2017_Jul_28_1317,59.9971712131,FEMA4ImagesEEG,001,201056,
AFNE01.JPG,AFNE01.JPG,AFNE01.JPG,AFNE01.JPG,AFNE01.JPG,AFNE01.JPG,,,,,2,7,27,6,,,,,,,,,,,,,,,,,,,AMSA06.jpg,AMNE07.jpg,AMSA16.jpg,AMNE02.jpg,AMSA06.jpg,MS,2,num_8,16,num_8,1.36693502986,,,2017_Jul_28_1317,59.9971712131,FEMA4ImagesEEG,001,201056,
AFNE01.JPG,AFNE01.JPG,AFNE01.JPG,AFNE01.JPG,AFNE01.JPG,AFNE01.JPG,,,,,2,8,28,9,,,,,,,,,,,,,,,,,,,AMSA09.jpg,AMNE13.jpg,AMSA12.jpg,AMNE01.jpg,AMSA09.jpg,MS,2,num_8,32,num_6,2.51663727092,,,2017_Jul_28_1317,59.9971712131,FEMA4ImagesEEG,001,201056,
AFNE01.JPG,AFNE01.JPG,AFNE01.JPG,AFNE01.JPG,AFNE01.JPG,AFNE01.JPG,,,,,2,9,29,0,,,,,,,,,,,,,,,,,,,AMSA03.jpg,AMSA14.jpg,AMNE12.jpg,AMNE04.jpg,AMSA03.jpg,MS,2,num_8,32,num_4,0.983458470087,,,2017_Jul_28_1317,59.9971712131,FEMA4ImagesEEG,001,201056,
AFNE01.JPG,AFNE01.JPG,AFNE01.JPG,AFNE01.JPG,AFNE01.JPG,AFNE01.JPG,,,,,3,0,30,1,,,,,,,,,,,,,,,,,,,AMNE15.jpg,AMSA09.jpg,AMSA02.jpg,AMNE10.jpg,AMNE15.jpg,MN,1,num_8,32,num_4,1.30010465754,,,2017_Jul_28_1317,59.9971712131,FEMA4ImagesEEG,001,201056,
AFNE01.JPG,AFNE01.JPG,AFNE01.JPG,AFNE01.JPG,AFNE01.JPG,AFNE01.JPG,,,,,3,1,31,9,,,,,,,,,,,,,,,,,,,AMSA15.jpg,AMSA01.jpg,AMNE10.jpg,AMNE02.jpg,AMNE02.jpg,MN,1,num_4,32,num_2,1.15005377214,,,2017_Jul_28_1317,59.9971712131,FEMA4ImagesEEG,001,201056,
AFNE01.JPG,AFNE01.JPG,AFNE01.JPG,AFNE01.JPG,AFNE01.JPG,AFNE01.JPG,,,,,3,2,32,8,,,,,,,,,,,,,,,,,,,AMSA07.jpg,AMNE18.jpg,AMSA15.jpg,AMNE01.jpg,AMNE01.jpg,MN,1,num_4,16,num_4,0.533503710409,,,2017_Jul_28_1317,59.9971712131,FEMA4ImagesEEG,001,201056,
AFNE01.JPG,AFNE01.JPG,AFNE01.JPG,AFNE01.JPG,AFNE01.JPG,AFNE01.JPG,,,,,3,3,33,0,,,,,,,,,,,,,,,,,,,AMSA10.jpg,AMNE01.jpg,AMSA16.jpg,AMNE19.jpg,AMSA10.jpg,MS,2,num_8,32,num_2,1.15018270968,,,2017_Jul_28_1317,59.9971712131,FEMA4ImagesEEG,001,201056,
AFNE01.JPG,AFNE01.JPG,AFNE01.JPG,AFNE01.JPG,AFNE01.JPG,AFNE01.JPG,,,,,3,4,34,5,,,,,,,,,,,,,,,,,,,AMNE03.jpg,AMNE14.jpg,AMSA19.jpg,AMSA03.jpg,AMNE14.jpg,MN,1,num_6,32,num_4,1.03348238126,,,2017_Jul_28_1317,59.9971712131,FEMA4ImagesEEG,001,201056,
AFNE01.JPG,AFNE01.JPG,AFNE01.JPG,AFNE01.JPG,AFNE01.JPG,AFNE01.JPG,,,,,3,5,35,4,,,,,,,,,,,,,,,,,,,AMSA06.jpg,AMNE15.jpg,AMNE16.jpg,AMSA01.jpg,AMSA06.jpg,MS,2,num_8,32,num_2,1.76676035486,,,2017_Jul_28_1317,59.9971712131,FEMA4ImagesEEG,001,201056,
AFNE01.JPG,AFNE01.JPG,AFNE01.JPG,AFNE01.JPG,AFNE01.JPG,AFNE01.JPG,,,,,3,6,36,2,,,,,,,,,,,,,,,,,,,AMSA02.jpg,AMNE16.jpg,AMSA18.jpg,AMNE19.jpg,AMNE19.jpg,MN,1,num_4,32,num_6,0.783449425246,,,2017_Jul_28_1317,59.9971712131,FEMA4ImagesEEG,001,201056,
AFNE01.JPG,AFNE01.JPG,AFNE01.JPG,AFNE01.JPG,AFNE01.JPG,AFNE01.JPG,,,,,3,7,37,7,,,,,,,,,,,,,,,,,,,AMNE09.jpg,AMSA14.jpg,AMNE02.jpg,AMSA19.jpg,AMSA19.jpg,MS,2,num_4,32,num_2,1.16672199441,,,2017_Jul_28_1317,59.9971712131,FEMA4ImagesEEG,001,201056,
AFNE01.JPG,AFNE01.JPG,AFNE01.JPG,AFNE01.JPG,AFNE01.JPG,AFNE01.JPG,,,,,3,8,38,3,,,,,,,,,,,,,,,,,,,AMSA15.jpg,AMNE06.jpg,AMNE01.jpg,AMSA20.jpg,AMNE01.jpg,MN,1,num_2,32,num_6,0.900165149127,,,2017_Jul_28_1317,59.9971712131,FEMA4ImagesEEG,001,201056,
AFNE01.JPG,AFNE01.JPG,AFNE01.JPG,AFNE01.JPG,AFNE01.JPG,AFNE01.JPG,,,,,3,9,39,6,,,,,,,,,,,,,,,,,,,AMNE11.jpg,AMNE19.jpg,AMSA15.jpg,AMSA12.jpg,AMSA15.jpg,MS,2,num_2,32,num_4,1.05015413172,,,2017_Jul_28_1317,59.9971712131,FEMA4ImagesEEG,001,201056,
AFNE01.JPG,AFNE01.JPG,AFNE01.JPG,AFNE01.JPG,AFNE01.JPG,AFNE01.JPG,,,,,4,0,40,1,,,,,,,,,,,,,,,,,,,AMSA04.jpg,AMNE01.jpg,AMSA12.jpg,AMNE02.jpg,AMSA04.jpg,MS,2,num_8,32,num_2,0.866757179494,,,2017_Jul_28_1317,59.9971712131,FEMA4ImagesEEG,001,201056,
AFNE01.JPG,AFNE01.JPG,AFNE01.JPG,AFNE01.JPG,AFNE01.JPG,AFNE01.JPG,,,,,4,1,41,7,,,,,,,,,,,,,,,,,,,AMSA05.jpg,AMNE17.jpg,AMSA06.jpg,AMNE13.jpg,AMNE17.jpg,MN,1,num_6,16,num_6,0.883550811093,,,2017_Jul_28_1317,59.9971712131,FEMA4ImagesEEG,001,201056,
AFNE01.JPG,AFNE01.JPG,AFNE01.JPG,AFNE01.JPG,AFNE01.JPG,AFNE01.JPG,,,,,4,2,42,0,,,,,,,,,,,,,,,,,,,AMNE06.jpg,AMNE15.jpg,AMSA09.jpg,AMSA11.jpg,AMNE15.jpg,MN,1,num_6,32,num_8,0.750149545027,,,2017_Jul_28_1317,59.9971712131,FEMA4ImagesEEG,001,201056,
AFNE01.JPG,AFNE01.JPG,AFNE01.JPG,AFNE01.JPG,AFNE01.JPG,AFNE01.JPG,,,,,4,3,43,6,,,,,,,,,,,,,,,,,,,AMSA15.jpg,AMNE06.jpg,AMNE13.jpg,AMSA11.jpg,AMSA15.jpg,MS,2,num_8,32,num_4,1.18344313873,,,2017_Jul_28_1317,59.9971712131,FEMA4ImagesEEG,001,201056,
AFNE01.JPG,AFNE01.JPG,AFNE01.JPG,AFNE01.JPG,AFNE01.JPG,AFNE01.JPG,,,,,4,4,44,5,,,,,,,,,,,,,,,,,,,AMNE18.jpg,AMNE16.jpg,AMSA07.jpg,AMSA19.jpg,AMSA07.jpg,MS,2,num_2,16,num_2,0.883434061776,,,2017_Jul_28_1317,59.9971712131,FEMA4ImagesEEG,001,201056,
AFNE01.JPG,AFNE01.JPG,AFNE01.JPG,AFNE01.JPG,AFNE01.JPG,AFNE01.JPG,,,,,4,5,45,2,,,,,,,,,,,,,,,,,,,AMNE19.jpg,AMNE12.jpg,AMSA15.jpg,AMSA16.jpg,AMSA16.jpg,MS,2,num_4,32,num_6,0.833455695771,,,2017_Jul_28_1317,59.9971712131,FEMA4ImagesEEG,001,201056,
AFNE01.JPG,AFNE01.JPG,AFNE01.JPG,AFNE01.JPG,AFNE01.JPG,AFNE01.JPG,,,,,4,6,46,9,,,,,,,,,,,,,,,,,,,AMNE15.jpg,AMNE01.jpg,AMSA05.jpg,AMSA01.jpg,AMNE15.jpg,MN,1,num_8,32,num_6,1.46677950304,,,2017_Jul_28_1317,59.9971712131,FEMA4ImagesEEG,001,201056,
AFNE01.JPG,AFNE01.JPG,AFNE01.JPG,AFNE01.JPG,AFNE01.JPG,AFNE01.JPG,,,,,4,7,47,8,,,,,,,,,,,,,,,,,,,AMNE09.jpg,AMSA17.jpg,AMNE18.jpg,AMSA18.jpg,AMNE18.jpg,MN,1,num_2,16,num_2,1.03345832578,,,2017_Jul_28_1317,59.9971712131,FEMA4ImagesEEG,001,201056,
AFNE01.JPG,AFNE01.JPG,AFNE01.JPG,AFNE01.JPG,AFNE01.JPG,AFNE01.JPG,,,,,4,8,48,3,,,,,,,,,,,,,,,,,,,AMNE05.jpg,AMNE16.jpg,AMSA18.jpg,AMSA16.jpg,AMSA18.jpg,MS,2,num_2,32,num_4,0.766755222925,,,2017_Jul_28_1317,59.9971712131,FEMA4ImagesEEG,001,201056,
AFNE01.JPG,AFNE01.JPG,AFNE01.JPG,AFNE01.JPG,AFNE01.JPG,AFNE01.JPG,,,,,4,9,49,4,,,,,,,,,,,,,,,,,,,AMSA08.jpg,AMNE03.jpg,AMSA16.jpg,AMNE12.jpg,AMSA08.jpg,MS,2,num_8,32,num_2,0.766807503649,,,2017_Jul_28_1317,59.9971712131,FEMA4ImagesEEG,001,201056,
AFNE01.JPG,AFNE01.JPG,AFNE01.JPG,AFNE01.JPG,AFNE01.JPG,AFNE01.JPG,,,,,5,0,50,0,,,,,,,,,,,,,,,,,,,AMNE16.jpg,AMSA14.jpg,AMNE14.jpg,AMSA06.jpg,AMNE14.jpg,MN,1,num_2,32,num_6,1.00029668456,,,2017_Jul_28_1317,59.9971712131,FEMA4ImagesEEG,001,201056,
AFNE01.JPG,AFNE01.JPG,AFNE01.JPG,AFNE01.JPG,AFNE01.JPG,AFNE01.JPG,,,,,5,1,51,4,,,,,,,,,,,,,,,,,,,AMSA17.jpg,AMSA08.jpg,AMNE16.jpg,AMNE19.jpg,AMNE16.jpg,MN,1,num_2,16,num_2,1.03351605905,,,2017_Jul_28_1317,59.9971712131,FEMA4ImagesEEG,001,201056,
AFNE01.JPG,AFNE01.JPG,AFNE01.JPG,AFNE01.JPG,AFNE01.JPG,AFNE01.JPG,,,,,5,2,52,2,,,,,,,,,,,,,,,,,,,AMSA15.jpg,AMSA16.jpg,AMNE16.jpg,AMNE06.jpg,AMNE06.jpg,MN,1,num_4,16,num_4,1.0001722374,,,2017_Jul_28_1317,59.9971712131,FEMA4ImagesEEG,001,201056,
AFNE01.JPG,AFNE01.JPG,AFNE01.JPG,AFNE01.JPG,AFNE01.JPG,AFNE01.JPG,,,,,5,3,53,9,,,,,,,,,,,,,,,,,,,AMNE18.jpg,AMNE16.jpg,AMSA20.jpg,AMSA12.jpg,AMNE16.jpg,MN,1,num_6,32,num_2,0.700121785048,,,2017_Jul_28_1317,59.9971712131,FEMA4ImagesEEG,001,201056,
AFNE01.JPG,AFNE01.JPG,AFNE01.JPG,AFNE01.JPG,AFNE01.JPG,AFNE01.JPG,,,,,5,4,54,5,,,,,,,,,,,,,,,,,,,AMSA11.jpg,AMSA15.jpg,AMNE19.jpg,AMNE07.jpg,AMSA11.jpg,MS,2,num_8,16,num_8,0.783410936361,,,2017_Jul_28_1317,59.9971712131,FEMA4ImagesEEG,001,201056,
AFNE01.JPG,AFNE01.JPG,AFNE01.JPG,AFNE01.JPG,AFNE01.JPG,AFNE01.JPG,,,,,5,5,55,8,,,,,,,,,,,,,,,,,,,AMNE17.jpg,AMSA20.jpg,AMNE20.jpg,AMSA17.jpg,AMNE17.jpg,MN,1,num_8,32,num_4,0.900139810517,,,2017_Jul_28_1317,59.9971712131,FEMA4ImagesEEG,001,201056,
AFNE01.JPG,AFNE01.JPG,AFNE01.JPG,AFNE01.JPG,AFNE01.JPG,AFNE01.JPG,,,,,5,6,56,1,,,,,,,,,,,,,,,,,,,AMSA14.jpg,AMNE09.jpg,AMSA19.jpg,AMNE08.jpg,AMSA19.jpg,MS,2,num_2,16,num_2,1.10004878463,,,2017_Jul_28_1317,59.9971712131,FEMA4ImagesEEG,001,201056,
AFNE01.JPG,AFNE01.JPG,AFNE01.JPG,AFNE01.JPG,AFNE01.JPG,AFNE01.JPG,,,,,5,7,57,7,,,,,,,,,,,,,,,,,,,AMNE13.jpg,AMSA16.jpg,AMSA09.jpg,AMNE11.jpg,AMNE13.jpg,MN,1,num_8,32,num_2,0.866853080806,,,2017_Jul_28_1317,59.9971712131,FEMA4ImagesEEG,001,201056,
AFNE01.JPG,AFNE01.JPG,AFNE01.JPG,AFNE01.JPG,AFNE01.JPG,AFNE01.JPG,,,,,5,8,58,3,,,,,,,,,,,,,,,,,,,AMSA10.jpg,AMNE16.jpg,AMNE01.jpg,AMSA04.jpg,AMSA04.jpg,MS,2,num_4,16,num_4,0.95009957382,,,2017_Jul_28_1317,59.9971712131,FEMA4ImagesEEG,001,201056,
AFNE01.JPG,AFNE01.JPG,AFNE01.JPG,AFNE01.JPG,AFNE01.JPG,AFNE01.JPG,,,,,5,9,59,6,,,,,,,,,,,,,,,,,,,AMNE09.jpg,AMNE11.jpg,AMSA11.jpg,AMSA01.jpg,AMSA11.jpg,MS,2,num_2,16,num_2,0.833485845244,,,2017_Jul_28_1317,59.9971712131,FEMA4ImagesEEG,001,201056,
,,,,,,,,,,,,,,,,,,,,,,,,,,,,,,,,,,,,,,,,,,,space,28.4976683798,2017_Jul_28_1317,59.9971712131,FEMA4ImagesEEG,001,201056,
AFNE01.JPG,AFNE01.JPG,AFNE01.JPG,AFNE01.JPG,AFNE01.JPG,AFNE01.JPG,,,,,,,,,0,0,0,5,,,,,,,,,,,,,,,AFSA10.jpg,AFNE19.jpg,AFSA14.jpg,AFNE12.jpg,AFSA14.jpg,FS,4,num_2,16,num_2,1.28348743287,,,2017_Jul_28_1317,59.9971712131,FEMA4ImagesEEG,001,201056,
AFNE01.JPG,AFNE01.JPG,AFNE01.JPG,AFNE01.JPG,AFNE01.JPG,AFNE01.JPG,,,,,,,,,0,1,1,8,,,,,,,,,,,,,,,AFSA16.jpg,AFNE13.jpg,AFNE16.jpg,AFSA19.jpg,AFSA16.jpg,FS,4,num_8,16,num_8,1.0334791739,,,2017_Jul_28_1317,59.9971712131,FEMA4ImagesEEG,001,201056,
AFNE01.JPG,AFNE01.JPG,AFNE01.JPG,AFNE01.JPG,AFNE01.JPG,AFNE01.JPG,,,,,,,,,0,2,2,3,,,,,,,,,,,,,,,AFSA19.jpg,AFNE17.jpg,AFSA11.jpg,AFNE11.jpg,AFNE17.jpg,FN,3,num_6,16,num_6,0.700165405753,,,2017_Jul_28_1317,59.9971712131,FEMA4ImagesEEG,001,201056,
AFNE01.JPG,AFNE01.JPG,AFNE01.JPG,AFNE01.JPG,AFNE01.JPG,AFNE01.JPG,,,,,,,,,0,3,3,9,,,,,,,,,,,,,,,AFSA18.jpg,AFNE01.jpg,AFNE12.jpg,AFSA05.jpg,AFNE01.jpg,FN,3,num_6,32,num_2,1.0002241974,,,2017_Jul_28_1317,59.9971712131,FEMA4ImagesEEG,001,201056,
AFNE01.JPG,AFNE01.JPG,AFNE01.JPG,AFNE01.JPG,AFNE01.JPG,AFNE01.JPG,,,,,,,,,0,4,4,4,,,,,,,,,,,,,,,AFSA05.jpg,AFNE03.jpg,AFNE02.jpg,AFSA09.jpg,AFNE03.jpg,FN,3,num_6,16,num_6,0.700175348669,,,2017_Jul_28_1317,59.9971712131,FEMA4ImagesEEG,001,201056,
AFNE01.JPG,AFNE01.JPG,AFNE01.JPG,AFNE01.JPG,AFNE01.JPG,AFNE01.JPG,,,,,,,,,0,5,5,1,,,,,,,,,,,,,,,AFNE03.jpg,AFSA17.jpg,AFNE01.jpg,AFSA14.jpg,AFSA17.jpg,FS,4,num_6,32,num_8,0.783453594777,,,2017_Jul_28_1317,59.9971712131,FEMA4ImagesEEG,001,201056,
AFNE01.JPG,AFNE01.JPG,AFNE01.JPG,AFNE01.JPG,AFNE01.JPG,AFNE01.JPG,,,,,,,,,0,6,6,6,,,,,,,,,,,,,,,AFSA16.jpg,AFNE06.jpg,AFSA02.jpg,AFNE04.jpg,AFSA16.jpg,FS,4,num_8,16,num_8,0.883452664712,,,2017_Jul_28_1317,59.9971712131,FEMA4ImagesEEG,001,201056,
AFNE01.JPG,AFNE01.JPG,AFNE01.JPG,AFNE01.JPG,AFNE01.JPG,AFNE01.JPG,,,,,,,,,0,7,7,0,,,,,,,,,,,,,,,AFSA02.jpg,AFSA01.jpg,AFNE10.jpg,AFNE15.jpg,AFSA02.jpg,FS,4,num_8,32,num_6,0.733471059124,,,2017_Jul_28_1317,59.9971712131,FEMA4ImagesEEG,001,201056,
AFNE01.JPG,AFNE01.JPG,AFNE01.JPG,AFNE01.JPG,AFNE01.JPG,AFNE01.JPG,,,,,,,,,0,8,8,2,,,,,,,,,,,,,,,AFSA18.jpg,AFSA03.jpg,AFNE18.jpg,AFNE14.jpg,AFSA03.jpg,FS,4,num_6,16,num_6,0.833484562347,,,2017_Jul_28_1317,59.9971712131,FEMA4ImagesEEG,001,201056,
AFNE01.JPG,AFNE01.JPG,AFNE01.JPG,AFNE01.JPG,AFNE01.JPG,AFNE01.JPG,,,,,,,,,0,9,9,7,,,,,,,,,,,,,,,AFNE17.jpg,AFSA14.jpg,AFSA02.jpg,AFNE01.jpg,AFSA02.jpg,FS,4,num_2,32,num_6,0.883467739448,,,2017_Jul_28_1317,59.9971712131,FEMA4ImagesEEG,001,201056,
AFNE01.JPG,AFNE01.JPG,AFNE01.JPG,AFNE01.JPG,AFNE01.JPG,AFNE01.JPG,,,,,,,,,1,0,10,8,,,,,,,,,,,,,,,AFSA18.jpg,AFNE09.jpg,AFNE03.jpg,AFSA08.jpg,AFSA18.jpg,FS,4,num_8,16,num_8,0.983428641339,,,2017_Jul_28_1317,59.9971712131,FEMA4ImagesEEG,001,201056,
AFNE01.JPG,AFNE01.JPG,AFNE01.JPG,AFNE01.JPG,AFNE01.JPG,AFNE01.JPG,,,,,,,,,1,1,11,4,,,,,,,,,,,,,,,AFSA19.jpg,AFNE12.jpg,AFSA03.jpg,AFNE15.jpg,AFSA03.jpg,FS,4,num_2,32,num_6,0.800142023712,,,2017_Jul_28_1317,59.9971712131,FEMA4ImagesEEG,001,201056,
AFNE01.JPG,AFNE01.JPG,AFNE01.JPG,AFNE01.JPG,AFNE01.JPG,AFNE01.JPG,,,,,,,,,1,2,12,2,,,,,,,,,,,,,,,AFSA04.jpg,AFSA17.jpg,AFNE02.jpg,AFNE08.jpg,AFSA04.jpg,FS,4,num_8,32,num_4,0.66677668062,,,2017_Jul_28_1317,59.9971712131,FEMA4ImagesEEG,001,201056,
AFNE01.JPG,AFNE01.JPG,AFNE01.JPG,AFNE01.JPG,AFNE01.JPG,AFNE01.JPG,,,,,,,,,1,3,13,6,,,,,,,,,,,,,,,AFSA05.jpg,AFNE07.jpg,AFNE05.jpg,AFSA16.jpg,AFSA16.jpg,FS,4,num_4,32,num_2,1.00017255824,,,2017_Jul_28_1317,59.9971712131,FEMA4ImagesEEG,001,201056,
AFNE01.JPG,AFNE01.JPG,AFNE01.JPG,AFNE01.JPG,AFNE01.JPG,AFNE01.JPG,,,,,,,,,1,4,14,7,,,,,,,,,,,,,,,AFSA09.jpg,AFNE07.jpg,AFNE01.jpg,AFSA07.jpg,AFNE01.jpg,FN,3,num_2,32,num_4,1.83341111289,,,2017_Jul_28_1317,59.9971712131,FEMA4ImagesEEG,001,201056,
AFNE01.JPG,AFNE01.JPG,AFNE01.JPG,AFNE01.JPG,AFNE01.JPG,AFNE01.JPG,,,,,,,,,1,5,15,1,,,,,,,,,,,,,,,AFNE02.jpg,AFNE19.jpg,AFSA11.jpg,AFSA02.jpg,AFNE19.jpg,FN,3,num_6,16,num_6,1.20019186672,,,2017_Jul_28_1317,59.9971712131,FEMA4ImagesEEG,001,201056,
AFNE01.JPG,AFNE01.JPG,AFNE01.JPG,AFNE01.JPG,AFNE01.JPG,AFNE01.JPG,,,,,,,,,1,6,16,9,,,,,,,,,,,,,,,AFSA13.jpg,AFNE11.jpg,AFSA11.jpg,AFNE19.jpg,AFSA13.jpg,FS,4,num_8,32,num_4,0.883501737844,,,2017_Jul_28_1317,59.9971712131,FEMA4ImagesEEG,001,201056,
AFNE01.JPG,AFNE01.JPG,AFNE01.JPG,AFNE01.JPG,AFNE01.JPG,AFNE01.JPG,,,,,,,,,1,7,17,5,,,,,,,,,,,,,,,AFNE15.jpg,AFSA10.jpg,AFSA13.jpg,AFNE17.jpg,AFSA13.jpg,FS,4,num_2,16,num_2,0.650228735758,,,2017_Jul_28_1317,59.9971712131,FEMA4ImagesEEG,001,201056,
AFNE01.JPG,AFNE01.JPG,AFNE01.JPG,AFNE01.JPG,AFNE01.JPG,AFNE01.JPG,,,,,,,,,1,8,18,0,,,,,,,,,,,,,,,AFSA04.jpg,AFSA11.jpg,AFNE18.jpg,AFNE02.jpg,AFNE18.jpg,FN,3,num_2,32,num_8,0.933475934435,,,2017_Jul_28_1317,59.9971712131,FEMA4ImagesEEG,001,201056,
AFNE01.JPG,AFNE01.JPG,AFNE01.JPG,AFNE01.JPG,AFNE01.JPG,AFNE01.JPG,,,,,,,,,1,9,19,3,,,,,,,,,,,,,,,AFNE01.jpg,AFSA09.jpg,AFNE05.jpg,AFSA14.jpg,AFSA09.jpg,FS,4,num_6,32,num_2,0.950125874369,,,2017_Jul_28_1317,59.9971712131,FEMA4ImagesEEG,001,201056,
AFNE01.JPG,AFNE01.JPG,AFNE01.JPG,AFNE01.JPG,AFNE01.JPG,AFNE01.JPG,,,,,,,,,2,0,20,7,,,,,,,,,,,,,,,AFSA12.jpg,AFNE16.jpg,AFSA10.jpg,AFNE12.jpg,AFNE16.jpg,FN,3,num_6,16,num_6,0.716782951029,,,2017_Jul_28_1317,59.9971712131,FEMA4ImagesEEG,001,201056,
AFNE01.JPG,AFNE01.JPG,AFNE01.JPG,AFNE01.JPG,AFNE01.JPG,AFNE01.JPG,,,,,,,,,2,1,21,9,,,,,,,,,,,,,,,AFSA18.jpg,AFSA10.jpg,AFNE17.jpg,AFNE18.jpg,AFSA18.jpg,FS,4,num_8,16,num_8,0.750156922149,,,2017_Jul_28_1317,59.9971712131,FEMA4ImagesEEG,001,201056,
AFNE01.JPG,AFNE01.JPG,AFNE01.JPG,AFNE01.JPG,AFNE01.JPG,AFNE01.JPG,,,,,,,,,2,2,22,6,,,,,,,,,,,,,,,AFSA02.jpg,AFNE16.jpg,AFNE03.jpg,AFSA07.jpg,AFSA02.jpg,FS,4,num_8,32,num_2,1.21676450851,,,2017_Jul_28_1317,59.9971712131,FEMA4ImagesEEG,001,201056,
AFNE01.JPG,AFNE01.JPG,AFNE01.JPG,AFNE01.JPG,AFNE01.JPG,AFNE01.JPG,,,,,,,,,2,3,23,3,,,,,,,,,,,,,,,AFNE20.jpg,AFNE17.jpg,AFSA15.jpg,AFSA16.jpg,AFNE17.jpg,FN,3,num_6,32,num_2,0.683485316113,,,2017_Jul_28_1317,59.9971712131,FEMA4ImagesEEG,001,201056,
AFNE01.JPG,AFNE01.JPG,AFNE01.JPG,AFNE01.JPG,AFNE01.JPG,AFNE01.JPG,,,,,,,,,2,4,24,8,,,,,,,,,,,,,,,AFSA19.jpg,AFNE17.jpg,AFNE02.jpg,AFSA14.jpg,AFSA19.jpg,FS,4,num_8,32,num_2,1.3500945702,,,2017_Jul_28_1317,59.9971712131,FEMA4ImagesEEG,001,201056,
AFNE01.JPG,AFNE01.JPG,AFNE01.JPG,AFNE01.JPG,AFNE01.JPG,AFNE01.JPG,,,,,,,,,2,5,25,2,,,,,,,,,,,,,,,AFNE06.jpg,AFNE14.jpg,AFSA17.jpg,AFSA11.jpg,AFNE14.jpg,FN,3,num_6,32,num_8,0.750155639136,,,2017_Jul_28_1317,59.9971712131,FEMA4ImagesEEG,001,201056,
AFNE01.JPG,AFNE01.JPG,AFNE01.JPG,AFNE01.JPG,AFNE01.JPG,AFNE01.JPG,,,,,,,,,2,6,26,0,,,,,,,,,,,,,,,AFNE02.jpg,AFNE20.jpg,AFSA05.jpg,AFSA08.jpg,AFNE02.jpg,FN,3,num_8,16,num_8,1.06675852661,,,2017_Jul_28_1317,59.9971712131,FEMA4ImagesEEG,001,201056,
AFNE01.JPG,AFNE01.JPG,AFNE01.JPG,AFNE01.JPG,AFNE01.JPG,AFNE01.JPG,,,,,,,,,2,7,27,4,,,,,,,,,,,,,,,AFNE03.jpg,AFSA02.jpg,AFSA10.jpg,AFNE12.jpg,AFSA02.jpg,FS,4,num_6,32,num_2,1.23340226046,,,2017_Jul_28_1317,59.9971712131,FEMA4ImagesEEG,001,201056,
AFNE01.JPG,AFNE01.JPG,AFNE01.JPG,AFNE01.JPG,AFNE01.JPG,AFNE01.JPG,,,,,,,,,2,8,28,1,,,,,,,,,,,,,,,AFNE07.jpg,AFSA02.jpg,AFNE05.jpg,AFSA18.jpg,AFNE07.jpg,FN,3,num_8,16,num_8,1.01680197089,,,2017_Jul_28_1317,59.9971712131,FEMA4ImagesEEG,001,201056,
AFNE01.JPG,AFNE01.JPG,AFNE01.JPG,AFNE01.JPG,AFNE01.JPG,AFNE01.JPG,,,,,,,,,2,9,29,5,,,,,,,,,,,,,,,AFNE04.jpg,AFSA06.jpg,AFNE06.jpg,AFSA11.jpg,AFSA11.jpg,FS,4,num_4,32,num_2,1.35007917462,,,2017_Jul_28_1317,59.9971712131,FEMA4ImagesEEG,001,201056,
AFNE01.JPG,AFNE01.JPG,AFNE01.JPG,AFNE01.JPG,AFNE01.JPG,AFNE01.JPG,,,,,,,,,3,0,30,9,,,,,,,,,,,,,,,AFNE13.jpg,AFSA13.jpg,AFNE18.jpg,AFSA16.jpg,AFNE13.jpg,FN,3,num_8,16,num_8,1.08343348443,,,2017_Jul_28_1317,59.9971712131,FEMA4ImagesEEG,001,201056,
AFNE01.JPG,AFNE01.JPG,AFNE01.JPG,AFNE01.JPG,AFNE01.JPG,AFNE01.JPG,,,,,,,,,3,1,31,4,,,,,,,,,,,,,,,AFSA18.jpg,AFNE20.jpg,AFSA15.jpg,AFNE02.jpg,AFNE02.jpg,FN,3,num_4,16,num_4,0.766824823571,,,2017_Jul_28_1317,59.9971712131,FEMA4ImagesEEG,001,201056,
AFNE01.JPG,AFNE01.JPG,AFNE01.JPG,AFNE01.JPG,AFNE01.JPG,AFNE01.JPG,,,,,,,,,3,2,32,2,,,,,,,,,,,,,,,AFSA05.jpg,AFNE18.jpg,AFSA10.jpg,AFNE08.jpg,AFSA05.jpg,FS,4,num_8,32,num_2,0.966864659567,,,2017_Jul_28_1317,59.9971712131,FEMA4ImagesEEG,001,201056,
AFNE01.JPG,AFNE01.JPG,AFNE01.JPG,AFNE01.JPG,AFNE01.JPG,AFNE01.JPG,,,,,,,,,3,3,33,0,,,,,,,,,,,,,,,AFSA06.jpg,AFNE08.jpg,AFNE17.jpg,AFSA14.jpg,AFSA14.jpg,FS,4,num_4,16,num_4,0.783517422038,,,2017_Jul_28_1317,59.9971712131,FEMA4ImagesEEG,001,201056,
AFNE01.JPG,AFNE01.JPG,AFNE01.JPG,AFNE01.JPG,AFNE01.JPG,AFNE01.JPG,,,,,,,,,3,4,34,8,,,,,,,,,,,,,,,AFSA09.jpg,AFNE06.jpg,AFNE10.jpg,AFSA05.jpg,AFSA09.jpg,FS,4,num_8,16,num_8,1.01675642584,,,2017_Jul_28_1317,59.9971712131,FEMA4ImagesEEG,001,201056,
AFNE01.JPG,AFNE01.JPG,AFNE01.JPG,AFNE01.JPG,AFNE01.JPG,AFNE01.JPG,,,,,,,,,3,5,35,5,,,,,,,,,,,,,,,AFSA04.jpg,AFNE05.jpg,AFNE17.jpg,AFSA18.jpg,AFSA04.jpg,FS,4,num_8,32,num_2,1.85005046835,,,2017_Jul_28_1317,59.9971712131,FEMA4ImagesEEG,001,201056,
AFNE01.JPG,AFNE01.JPG,AFNE01.JPG,AFNE01.JPG,AFNE01.JPG,AFNE01.JPG,,,,,,,,,3,6,36,1,,,,,,,,,,,,,,,AFNE19.jpg,AFSA14.jpg,AFSA05.jpg,AFNE12.jpg,AFNE12.jpg,FN,3,num_4,16,num_4,0.616775541916,,,2017_Jul_28_1317,59.9971712131,FEMA4ImagesEEG,001,201056,
AFNE01.JPG,AFNE01.JPG,AFNE01.JPG,AFNE01.JPG,AFNE01.JPG,AFNE01.JPG,,,,,,,,,3,7,37,6,,,,,,,,,,,,,,,AFNE06.jpg,AFSA17.jpg,AFSA06.jpg,AFNE18.jpg,AFSA17.jpg,FS,4,num_6,16,num_6,0.766821295489,,,2017_Jul_28_1317,59.9971712131,FEMA4ImagesEEG,001,201056,
AFNE01.JPG,AFNE01.JPG,AFNE01.JPG,AFNE01.JPG,AFNE01.JPG,AFNE01.JPG,,,,,,,,,3,8,38,3,,,,,,,,,,,,,,,AFNE18.jpg,AFSA12.jpg,AFNE10.jpg,AFSA08.jpg,AFNE10.jpg,FN,3,num_2,32,num_6,1.10014179919,,,2017_Jul_28_1317,59.9971712131,FEMA4ImagesEEG,001,201056,
AFNE01.JPG,AFNE01.JPG,AFNE01.JPG,AFNE01.JPG,AFNE01.JPG,AFNE01.JPG,,,,,,,,,3,9,39,7,,,,,,,,,,,,,,,AFNE06.jpg,AFSA07.jpg,AFNE12.jpg,AFSA01.jpg,AFSA01.jpg,FS,4,num_4,16,num_4,1.13341409573,,,2017_Jul_28_1317,59.9971712131,FEMA4ImagesEEG,001,201056,
AFNE01.JPG,AFNE01.JPG,AFNE01.JPG,AFNE01.JPG,AFNE01.JPG,AFNE01.JPG,,,,,,,,,4,0,40,8,,,,,,,,,,,,,,,AFSA10.jpg,AFNE09.jpg,AFSA08.jpg,AFNE07.jpg,AFSA10.jpg,FS,4,num_8,32,num_2,1.51674728468,,,2017_Jul_28_1317,59.9971712131,FEMA4ImagesEEG,001,201056,
AFNE01.JPG,AFNE01.JPG,AFNE01.JPG,AFNE01.JPG,AFNE01.JPG,AFNE01.JPG,,,,,,,,,4,1,41,3,,,,,,,,,,,,,,,AFNE19.jpg,AFSA04.jpg,AFSA19.jpg,AFNE07.jpg,AFSA19.jpg,FS,4,num_2,32,num_8,0.866798875853,,,2017_Jul_28_1317,59.9971712131,FEMA4ImagesEEG,001,201056,
AFNE01.JPG,AFNE01.JPG,AFNE01.JPG,AFNE01.JPG,AFNE01.JPG,AFNE01.JPG,,,,,,,,,4,2,42,9,,,,,,,,,,,,,,,AFSA09.jpg,AFSA11.jpg,AFNE04.jpg,AFNE02.jpg,AFSA11.jpg,FS,4,num_6,32,num_2,0.983475148561,,,2017_Jul_28_1317,59.9971712131,FEMA4ImagesEEG,001,201056,
AFNE01.JPG,AFNE01.JPG,AFNE01.JPG,AFNE01.JPG,AFNE01.JPG,AFNE01.JPG,,,,,,,,,4,3,43,1,,,,,,,,,,,,,,,AFNE20.jpg,AFSA19.jpg,AFSA13.jpg,AFNE10.jpg,AFSA19.jpg,FS,4,num_6,16,num_6,0.900129226269,,,2017_Jul_28_1317,59.9971712131,FEMA4ImagesEEG,001,201056,
AFNE01.JPG,AFNE01.JPG,AFNE01.JPG,AFNE01.JPG,AFNE01.JPG,AFNE01.JPG,,,,,,,,,4,4,44,2,,,,,,,,,,,,,,,AFNE01.jpg,AFNE02.jpg,AFSA17.jpg,AFSA20.jpg,AFNE02.jpg,FN,3,num_6,32,num_2,1.0168180078,,,2017_Jul_28_1317,59.9971712131,FEMA4ImagesEEG,001,201056,
AFNE01.JPG,AFNE01.JPG,AFNE01.JPG,AFNE01.JPG,AFNE01.JPG,AFNE01.JPG,,,,,,,,,4,5,45,5,,,,,,,,,,,,,,,AFNE18.jpg,AFSA03.jpg,AFNE16.jpg,AFSA20.jpg,AFSA20.jpg,FS,4,num_4,16,num_4,0.716673899326,,,2017_Jul_28_1317,59.9971712131,FEMA4ImagesEEG,001,201056,
AFNE01.JPG,AFNE01.JPG,AFNE01.JPG,AFNE01.JPG,AFNE01.JPG,AFNE01.JPG,,,,,,,,,4,6,46,7,,,,,,,,,,,,,,,AFNE09.jpg,AFSA05.jpg,AFNE17.jpg,AFSA17.jpg,AFSA17.jpg,FS,4,num_4,32,num_2,0.816784907482,,,2017_Jul_28_1317,59.9971712131,FEMA4ImagesEEG,001,201056,
AFNE01.JPG,AFNE01.JPG,AFNE01.JPG,AFNE01.JPG,AFNE01.JPG,AFNE01.JPG,,,,,,,,,4,7,47,0,,,,,,,,,,,,,,,AFSA16.jpg,AFNE14.jpg,AFNE19.jpg,AFSA17.jpg,AFNE14.jpg,FN,3,num_6,16,num_6,0.900228655664,,,2017_Jul_28_1317,59.9971712131,FEMA4ImagesEEG,001,201056,
AFNE01.JPG,AFNE01.JPG,AFNE01.JPG,AFNE01.JPG,AFNE01.JPG,AFNE01.JPG,,,,,,,,,4,8,48,6,,,,,,,,,,,,,,,AFSA10.jpg,AFNE16.jpg,AFSA11.jpg,AFNE15.jpg,AFSA10.jpg,FS,4,num_8,32,num_6,0.699998300057,,,2017_Jul_28_1317,59.9971712131,FEMA4ImagesEEG,001,201056,
AFNE01.JPG,AFNE01.JPG,AFNE01.JPG,AFNE01.JPG,AFNE01.JPG,AFNE01.JPG,,,,,,,,,4,9,49,4,,,,,,,,,,,,,,,AFNE07.jpg,AFSA02.jpg,AFSA18.jpg,AFNE14.jpg,AFNE14.jpg,FN,3,num_4,32,num_8,0.866812346736,,,2017_Jul_28_1317,59.9971712131,FEMA4ImagesEEG,001,201056,
AFNE01.JPG,AFNE01.JPG,AFNE01.JPG,AFNE01.JPG,AFNE01.JPG,AFNE01.JPG,,,,,,,,,5,0,50,1,,,,,,,,,,,,,,,AFNE16.jpg,AFNE15.jpg,AFSA17.jpg,AFSA02.jpg,AFNE15.jpg,FN,3,num_6,16,num_6,0.683519314392,,,2017_Jul_28_1317,59.9971712131,FEMA4ImagesEEG,001,201056,
AFNE01.JPG,AFNE01.JPG,AFNE01.JPG,AFNE01.JPG,AFNE01.JPG,AFNE01.JPG,,,,,,,,,5,1,51,0,,,,,,,,,,,,,,,AFSA14.jpg,AFSA16.jpg,AFNE01.jpg,AFNE16.jpg,AFSA16.jpg,FS,4,num_6,32,num_8,0.283550939523,,,2017_Jul_28_1317,59.9971712131,FEMA4ImagesEEG,001,201056,
AFNE01.JPG,AFNE01.JPG,AFNE01.JPG,AFNE01.JPG,AFNE01.JPG,AFNE01.JPG,,,,,,,,,5,2,52,9,,,,,,,,,,,,,,,AFSA13.jpg,AFSA06.jpg,AFNE05.jpg,AFNE15.jpg,AFSA06.jpg,FS,4,num_6,32,num_4,1.01680068788,,,2017_Jul_28_1317,59.9971712131,FEMA4ImagesEEG,001,201056,
AFNE01.JPG,AFNE01.JPG,AFNE01.JPG,AFNE01.JPG,AFNE01.JPG,AFNE01.JPG,,,,,,,,,5,3,53,8,,,,,,,,,,,,,,,AFSA05.jpg,AFNE16.jpg,AFSA04.jpg,AFNE04.jpg,AFSA05.jpg,FS,4,num_8,32,num_6,1.28344734036,,,2017_Jul_28_1317,59.9971712131,FEMA4ImagesEEG,001,201056,
AFNE01.JPG,AFNE01.JPG,AFNE01.JPG,AFNE01.JPG,AFNE01.JPG,AFNE01.JPG,,,,,,,,,5,4,54,7,,,,,,,,,,,,,,,AFNE09.jpg,AFSA07.jpg,AFSA17.jpg,AFNE11.jpg,AFNE09.jpg,FN,3,num_8,32,num_2,4.08301716379,,,2017_Jul_28_1317,59.9971712131,FEMA4ImagesEEG,001,201056,
AFNE01.JPG,AFNE01.JPG,AFNE01.JPG,AFNE01.JPG,AFNE01.JPG,AFNE01.JPG,,,,,,,,,5,5,55,2,,,,,,,,,,,,,,,AFNE12.jpg,AFSA14.jpg,AFSA05.jpg,AFNE13.jpg,AFNE13.jpg,FN,3,num_4,16,num_4,0.766793070361,,,2017_Jul_28_1317,59.9971712131,FEMA4ImagesEEG,001,201056,
AFNE01.JPG,AFNE01.JPG,AFNE01.JPG,AFNE01.JPG,AFNE01.JPG,AFNE01.JPG,,,,,,,,,5,6,56,5,,,,,,,,,,,,,,,AFSA12.jpg,AFSA18.jpg,AFNE20.jpg,AFNE12.jpg,AFSA18.jpg,FS,4,num_6,16,num_6,0.783517742879,,,2017_Jul_28_1317,59.9971712131,FEMA4ImagesEEG,001,201056,
AFNE01.JPG,AFNE01.JPG,AFNE01.JPG,AFNE01.JPG,AFNE01.JPG,AFNE01.JPG,,,,,,,,,5,7,57,6,,,,,,,,,,,,,,,AFNE10.jpg,AFSA03.jpg,AFNE02.jpg,AFSA15.jpg,AFNE02.jpg,FN,3,num_2,16,num_2,0.7166578623,,,2017_Jul_28_1317,59.9971712131,FEMA4ImagesEEG,001,201056,
AFNE01.JPG,AFNE01.JPG,AFNE01.JPG,AFNE01.JPG,AFNE01.JPG,AFNE01.JPG,,,,,,,,,5,8,58,3,,,,,,,,,,,,,,,AFSA16.jpg,AFNE15.jpg,AFSA11.jpg,AFNE11.jpg,AFNE11.jpg,FN,3,num_4,32,num_2,1.25012276333,,,2017_Jul_28_1317,59.9971712131,FEMA4ImagesEEG,001,201056,
AFNE01.JPG,AFNE01.JPG,AFNE01.JPG,AFNE01.JPG,AFNE01.JPG,AFNE01.JPG,,,,,,,,,5,9,59,4,,,,,,,,,,,,,,,AFNE11.jpg,AFSA01.jpg,AFSA16.jpg,AFNE06.jpg,AFNE11.jpg,FN,3,num_8,32,num_6,1.00012188125,,,2017_Jul_28_1317,59.9971712131,FEMA4ImagesEEG,001,201056,
,,,,,,,,,,,,,,,,,,,,,,,,,,,,,,,,,,,,,,,,,,,space,41.4469930454,2017_Jul_28_1317,59.9971712131,FEMA4ImagesEEG,001,201056,
AFNE01.JPG,AFNE01.JPG,AFNE01.JPG,AFNE01.JPG,AFNE01.JPG,AFNE01.JPG,,,,,,,,,,,,,0,0,0,2,,,,,,,,,,,AMNE10.jpg,AMNE01.jpg,AMSA03.jpg,AMSA04.jpg,AMSA03.jpg,MS,2,num_2,32,num_6,0.983461677446,,,2017_Jul_28_1317,59.9971712131,FEMA4ImagesEEG,001,201056,
AFNE01.JPG,AFNE01.JPG,AFNE01.JPG,AFNE01.JPG,AFNE01.JPG,AFNE01.JPG,,,,,,,,,,,,,0,1,1,7,,,,,,,,,,,AMNE14.jpg,AMSA13.jpg,AMSA05.jpg,AMNE12.jpg,AMSA05.jpg,MS,2,num_2,32,num_6,0.883449136512,,,2017_Jul_28_1317,59.9971712131,FEMA4ImagesEEG,001,201056,
AFNE01.JPG,AFNE01.JPG,AFNE01.JPG,AFNE01.JPG,AFNE01.JPG,AFNE01.JPG,,,,,,,,,,,,,0,2,2,3,,,,,,,,,,,AMNE08.jpg,AMSA12.jpg,AMNE13.jpg,AMSA18.jpg,AMSA18.jpg,MS,2,num_4,16,num_4,0.600142601063,,,2017_Jul_28_1317,59.9971712131,FEMA4ImagesEEG,001,201056,
AFNE01.JPG,AFNE01.JPG,AFNE01.JPG,AFNE01.JPG,AFNE01.JPG,AFNE01.JPG,,,,,,,,,,,,,0,3,3,4,,,,,,,,,,,AMNE13.jpg,AMSA18.jpg,AMNE11.jpg,AMSA08.jpg,AMSA08.jpg,MS,2,num_4,32,num_8,0.850162727525,,,2017_Jul_28_1317,59.9971712131,FEMA4ImagesEEG,001,201056,
AFNE01.JPG,AFNE01.JPG,AFNE01.JPG,AFNE01.JPG,AFNE01.JPG,AFNE01.JPG,,,,,,,,,,,,,0,4,4,9,,,,,,,,,,,AMNE06.jpg,AMSA07.jpg,AMSA17.jpg,AMNE18.jpg,AMSA07.jpg,MS,2,num_6,32,num_2,1.01641804504,,,2017_Jul_28_1317,59.9971712131,FEMA4ImagesEEG,001,201056,
AFNE01.JPG,AFNE01.JPG,AFNE01.JPG,AFNE01.JPG,AFNE01.JPG,AFNE01.JPG,,,,,,,,,,,,,0,5,5,0,,,,,,,,,,,AMSA07.jpg,AMSA18.jpg,AMNE20.jpg,AMNE19.jpg,AMSA07.jpg,MS,2,num_8,16,num_8,0.850144766155,,,2017_Jul_28_1317,59.9971712131,FEMA4ImagesEEG,001,201056,
AFNE01.JPG,AFNE01.JPG,AFNE01.JPG,AFNE01.JPG,AFNE01.JPG,AFNE01.JPG,,,,,,,,,,,,,0,6,6,8,,,,,,,,,,,AMNE11.jpg,AMNE15.jpg,AMSA17.jpg,AMSA07.jpg,AMSA17.jpg,MS,2,num_2,16,num_2,0.8167970957,,,2017_Jul_28_1317,59.9971712131,FEMA4ImagesEEG,001,201056,
AFNE01.JPG,AFNE01.JPG,AFNE01.JPG,AFNE01.JPG,AFNE01.JPG,AFNE01.JPG,,,,,,,,,,,,,0,7,7,6,,,,,,,,,,,AMSA04.jpg,AMSA12.jpg,AMNE08.jpg,AMNE19.jpg,AMSA12.jpg,MS,2,num_6,32,num_8,1.03342817619,,,2017_Jul_28_1317,59.9971712131,FEMA4ImagesEEG,001,201056,
AFNE01.JPG,AFNE01.JPG,AFNE01.JPG,AFNE01.JPG,AFNE01.JPG,AFNE01.JPG,,,,,,,,,,,,,0,8,8,1,,,,,,,,,,,AMSA12.jpg,AMNE06.jpg,AMSA08.jpg,AMNE11.jpg,AMNE06.jpg,MN,1,num_6,32,num_2,0.86682421423,,,2017_Jul_28_1317,59.9971712131,FEMA4ImagesEEG,001,201056,
AFNE01.JPG,AFNE01.JPG,AFNE01.JPG,AFNE01.JPG,AFNE01.JPG,AFNE01.JPG,,,,,,,,,,,,,0,9,9,5,,,,,,,,,,,AMSA19.jpg,AMNE06.jpg,AMSA01.jpg,AMNE09.jpg,AMNE06.jpg,MN,1,num_6,16,num_6,0.683484033099,,,2017_Jul_28_1317,59.9971712131,FEMA4ImagesEEG,001,201056,
AFNE01.JPG,AFNE01.JPG,AFNE01.JPG,AFNE01.JPG,AFNE01.JPG,AFNE01.JPG,,,,,,,,,,,,,1,0,10,1,,,,,,,,,,,AMSA07.jpg,AMNE18.jpg,AMNE06.jpg,AMSA08.jpg,AMNE18.jpg,MN,1,num_6,32,num_8,1.28352207295,,,2017_Jul_28_1317,59.9971712131,FEMA4ImagesEEG,001,201056,
AFNE01.JPG,AFNE01.JPG,AFNE01.JPG,AFNE01.JPG,AFNE01.JPG,AFNE01.JPG,,,,,,,,,,,,,1,1,11,6,,,,,,,,,,,AMSA10.jpg,AMSA07.jpg,AMNE12.jpg,AMNE16.jpg,AMSA07.jpg,MS,2,num_6,16,num_6,0.700158349355,,,2017_Jul_28_1317,59.9971712131,FEMA4ImagesEEG,001,201056,
AFNE01.JPG,AFNE01.JPG,AFNE01.JPG,AFNE01.JPG,AFNE01.JPG,AFNE01.JPG,,,,,,,,,,,,,1,2,12,4,,,,,,,,,,,AMSA10.jpg,AMNE13.jpg,AMNE12.jpg,AMSA12.jpg,AMNE12.jpg,MN,1,num_2,32,num_4,1.03346313688,,,2017_Jul_28_1317,59.9971712131,FEMA4ImagesEEG,001,201056,
AFNE01.JPG,AFNE01.JPG,AFNE01.JPG,AFNE01.JPG,AFNE01.JPG,AFNE01.JPG,,,,,,,,,,,,,1,3,13,5,,,,,,,,,,,AMNE15.jpg,AMSA19.jpg,AMNE07.jpg,AMSA20.jpg,AMNE07.jpg,MN,1,num_2,16,num_2,0.750120357727,,,2017_Jul_28_1317,59.9971712131,FEMA4ImagesEEG,001,201056,
AFNE01.JPG,AFNE01.JPG,AFNE01.JPG,AFNE01.JPG,AFNE01.JPG,AFNE01.JPG,,,,,,,,,,,,,1,4,14,8,,,,,,,,,,,AMNE09.jpg,AMNE03.jpg,AMSA02.jpg,AMSA08.jpg,AMSA02.jpg,MS,2,num_2,32,num_4,0.800074026803,,,2017_Jul_28_1317,59.9971712131,FEMA4ImagesEEG,001,201056,
AFNE01.JPG,AFNE01.JPG,AFNE01.JPG,AFNE01.JPG,AFNE01.JPG,AFNE01.JPG,,,,,,,,,,,,,1,5,15,0,,,,,,,,,,,AMSA11.jpg,AMNE04.jpg,AMNE18.jpg,AMSA05.jpg,AMNE18.jpg,MN,1,num_2,32,num_8,0.683485957445,,,2017_Jul_28_1317,59.9971712131,FEMA4ImagesEEG,001,201056,
AFNE01.JPG,AFNE01.JPG,AFNE01.JPG,AFNE01.JPG,AFNE01.JPG,AFNE01.JPG,,,,,,,,,,,,,1,6,16,3,,,,,,,,,,,AMSA03.jpg,AMNE20.jpg,AMNE13.jpg,AMSA08.jpg,AMNE13.jpg,MN,1,num_2,32,num_8,0.816778813372,,,2017_Jul_28_1317,59.9971712131,FEMA4ImagesEEG,001,201056,
AFNE01.JPG,AFNE01.JPG,AFNE01.JPG,AFNE01.JPG,AFNE01.JPG,AFNE01.JPG,,,,,,,,,,,,,1,7,17,7,,,,,,,,,,,AMSA17.jpg,AMNE11.jpg,AMNE09.jpg,AMSA05.jpg,AMSA05.jpg,MS,2,num_4,32,num_2,0.916845559492,,,2017_Jul_28_1317,59.9971712131,FEMA4ImagesEEG,001,201056,
AFNE01.JPG,AFNE01.JPG,AFNE01.JPG,AFNE01.JPG,AFNE01.JPG,AFNE01.JPG,,,,,,,,,,,,,1,8,18,2,,,,,,,,,,,AMNE05.jpg,AMNE04.jpg,AMSA12.jpg,AMSA09.jpg,AMSA09.jpg,MS,2,num_4,16,num_4,0.683749285177,,,2017_Jul_28_1317,59.9971712131,FEMA4ImagesEEG,001,201056,
AFNE01.JPG,AFNE01.JPG,AFNE01.JPG,AFNE01.JPG,AFNE01.JPG,AFNE01.JPG,,,,,,,,,,,,,1,9,19,9,,,,,,,,,,,AMSA09.jpg,AMNE19.jpg,AMSA13.jpg,AMNE04.jpg,AMNE19.jpg,MN,1,num_6,16,num_6,1.0002241974,,,2017_Jul_28_1317,59.9971712131,FEMA4ImagesEEG,001,201056,
AFNE01.JPG,AFNE01.JPG,AFNE01.JPG,AFNE01.JPG,AFNE01.JPG,AFNE01.JPG,,,,,,,,,,,,,2,0,20,6,,,,,,,,,,,AMNE12.jpg,AMSA08.jpg,AMNE20.jpg,AMSA15.jpg,AMNE20.jpg,MN,1,num_2,16,num_2,0.683466713177,,,2017_Jul_28_1317,59.9971712131,FEMA4ImagesEEG,001,201056,
AFNE01.JPG,AFNE01.JPG,AFNE01.JPG,AFNE01.JPG,AFNE01.JPG,AFNE01.JPG,,,,,,,,,,,,,2,1,21,3,,,,,,,,,,,AMSA05.jpg,AMNE06.jpg,AMNE19.jpg,AMSA18.jpg,AMNE19.jpg,MN,1,num_2,16,num_2,0.633483535843,,,2017_Jul_28_1317,59.9971712131,FEMA4ImagesEEG,001,201056,
AFNE01.JPG,AFNE01.JPG,AFNE01.JPG,AFNE01.JPG,AFNE01.JPG,AFNE01.JPG,,,,,,,,,,,,,2,2,22,8,,,,,,,,,,,AMNE14.jpg,AMNE05.jpg,AMSA13.jpg,AMSA14.jpg,AMNE14.jpg,MN,1,num_8,32,num_6,1.46661464265,,,2017_Jul_28_1317,59.9971712131,FEMA4ImagesEEG,001,201056,
AFNE01.JPG,AFNE01.JPG,AFNE01.JPG,AFNE01.JPG,AFNE01.JPG,AFNE01.JPG,,,,,,,,,,,,,2,3,23,4,,,,,,,,,,,AMNE16.jpg,AMSA08.jpg,AMSA11.jpg,AMNE18.jpg,AMNE16.jpg,MN,1,num_8,32,num_2,0.983465847094,,,2017_Jul_28_1317,59.9971712131,FEMA4ImagesEEG,001,201056,
AFNE01.JPG,AFNE01.JPG,AFNE01.JPG,AFNE01.JPG,AFNE01.JPG,AFNE01.JPG,,,,,,,,,,,,,2,4,24,2,,,,,,,,,,,AMNE09.jpg,AMNE18.jpg,AMSA17.jpg,AMSA14.jpg,AMNE18.jpg,MN,1,num_6,16,num_6,1.30012678856,,,2017_Jul_28_1317,59.9971712131,FEMA4ImagesEEG,001,201056,
AFNE01.JPG,AFNE01.JPG,AFNE01.JPG,AFNE01.JPG,AFNE01.JPG,AFNE01.JPG,,,,,,,,,,,,,2,5,25,0,,,,,,,,,,,AMNE15.jpg,AMNE19.jpg,AMSA11.jpg,AMSA12.jpg,AMSA12.jpg,MS,2,num_4,32,num_2,1.10011646082,,,2017_Jul_28_1317,59.9971712131,FEMA4ImagesEEG,001,201056,
AFNE01.JPG,AFNE01.JPG,AFNE01.JPG,AFNE01.JPG,AFNE01.JPG,AFNE01.JPG,,,,,,,,,,,,,2,6,26,5,,,,,,,,,,,AMSA18.jpg,AMNE05.jpg,AMNE17.jpg,AMSA11.jpg,AMNE17.jpg,MN,1,num_2,32,num_4,0.933362392359,,,2017_Jul_28_1317,59.9971712131,FEMA4ImagesEEG,001,201056,
AFNE01.JPG,AFNE01.JPG,AFNE01.JPG,AFNE01.JPG,AFNE01.JPG,AFNE01.JPG,,,,,,,,,,,,,2,7,27,7,,,,,,,,,,,AMSA05.jpg,AMSA19.jpg,AMNE03.jpg,AMNE18.jpg,AMNE03.jpg,MN,1,num_2,16,num_2,0.883456513518,,,2017_Jul_28_1317,59.9971712131,FEMA4ImagesEEG,001,201056,
AFNE01.JPG,AFNE01.JPG,AFNE01.JPG,AFNE01.JPG,AFNE01.JPG,AFNE01.JPG,,,,,,,,,,,,,2,8,28,9,,,,,,,,,,,AMSA14.jpg,AMNE08.jpg,AMSA03.jpg,AMNE01.jpg,AMSA14.jpg,MS,2,num_8,16,num_8,0.650012236205,,,2017_Jul_28_1317,59.9971712131,FEMA4ImagesEEG,001,201056,
AFNE01.JPG,AFNE01.JPG,AFNE01.JPG,AFNE01.JPG,AFNE01.JPG,AFNE01.JPG,,,,,,,,,,,,,2,9,29,1,,,,,,,,,,,AMSA16.jpg,AMNE19.jpg,AMSA03.jpg,AMNE18.jpg,AMNE19.jpg,MN,1,num_6,16,num_6,0.749759204336,,,2017_Jul_28_1317,59.9971712131,FEMA4ImagesEEG,001,201056,
AFNE01.JPG,AFNE01.JPG,AFNE01.JPG,AFNE01.JPG,AFNE01.JPG,AFNE01.JPG,,,,,,,,,,,,,3,0,30,0,,,,,,,,,,,AMNE15.jpg,AMSA19.jpg,AMNE13.jpg,AMSA20.jpg,AMSA19.jpg,MS,2,num_6,16,num_6,2.26670149912,,,2017_Jul_28_1317,59.9971712131,FEMA4ImagesEEG,001,201056,
AFNE01.JPG,AFNE01.JPG,AFNE01.JPG,AFNE01.JPG,AFNE01.JPG,AFNE01.JPG,,,,,,,,,,,,,3,1,31,2,,,,,,,,,,,AMSA14.jpg,AMNE08.jpg,AMNE12.jpg,AMSA05.jpg,AMNE08.jpg,MN,1,num_6,32,num_2,0.650253753527,,,2017_Jul_28_1317,59.9971712131,FEMA4ImagesEEG,001,201056,
AFNE01.JPG,AFNE01.JPG,AFNE01.JPG,AFNE01.JPG,AFNE01.JPG,AFNE01.JPG,,,,,,,,,,,,,3,2,32,7,,,,,,,,,,,AMNE08.jpg,AMSA02.jpg,AMNE12.jpg,AMSA11.jpg,AMSA11.jpg,MS,2,num_4,32,num_2,0.733738556388,,,2017_Jul_28_1317,59.9971712131,FEMA4ImagesEEG,001,201056,
AFNE01.JPG,AFNE01.JPG,AFNE01.JPG,AFNE01.JPG,AFNE01.JPG,AFNE01.JPG,,,,,,,,,,,,,3,3,33,8,,,,,,,,,,,AMSA04.jpg,AMNE15.jpg,AMSA10.jpg,AMNE18.jpg,AMSA04.jpg,MS,2,num_8,32,num_6,3.43326568918,,,2017_Jul_28_1317,59.9971712131,FEMA4ImagesEEG,001,201056,
AFNE01.JPG,AFNE01.JPG,AFNE01.JPG,AFNE01.JPG,AFNE01.JPG,AFNE01.JPG,,,,,,,,,,,,,3,4,34,1,,,,,,,,,,,AMNE16.jpg,AMNE15.jpg,AMSA08.jpg,AMSA13.jpg,AMSA13.jpg,MS,2,num_4,16,num_4,1.03343940212,,,2017_Jul_28_1317,59.9971712131,FEMA4ImagesEEG,001,201056,
AFNE01.JPG,AFNE01.JPG,AFNE01.JPG,AFNE01.JPG,AFNE01.JPG,AFNE01.JPG,,,,,,,,,,,,,3,5,35,5,,,,,,,,,,,AMNE01.jpg,AMNE06.jpg,AMSA02.jpg,AMSA04.jpg,AMSA02.jpg,MS,2,num_2,32,num_8,0.766805899912,,,2017_Jul_28_1317,59.9971712131,FEMA4ImagesEEG,001,201056,
AFNE01.JPG,AFNE01.JPG,AFNE01.JPG,AFNE01.JPG,AFNE01.JPG,AFNE01.JPG,,,,,,,,,,,,,3,6,36,4,,,,,,,,,,,AMSA11.jpg,AMSA14.jpg,AMNE08.jpg,AMNE19.jpg,AMSA11.jpg,MS,2,num_8,32,num_2,0.78347636736,,,2017_Jul_28_1317,59.9971712131,FEMA4ImagesEEG,001,201056,
AFNE01.JPG,AFNE01.JPG,AFNE01.JPG,AFNE01.JPG,AFNE01.JPG,AFNE01.JPG,,,,,,,,,,,,,3,7,37,6,,,,,,,,,,,AMNE12.jpg,AMNE05.jpg,AMSA18.jpg,AMSA01.jpg,AMSA18.jpg,MS,2,num_2,16,num_2,0.650178379612,,,2017_Jul_28_1317,59.9971712131,FEMA4ImagesEEG,001,201056,
AFNE01.JPG,AFNE01.JPG,AFNE01.JPG,AFNE01.JPG,AFNE01.JPG,AFNE01.JPG,,,,,,,,,,,,,3,8,38,9,,,,,,,,,,,AMSA09.jpg,AMSA07.jpg,AMNE17.jpg,AMNE08.jpg,AMNE17.jpg,MN,1,num_2,32,num_6,0.800159343751,,,2017_Jul_28_1317,59.9971712131,FEMA4ImagesEEG,001,201056,
AFNE01.JPG,AFNE01.JPG,AFNE01.JPG,AFNE01.JPG,AFNE01.JPG,AFNE01.JPG,,,,,,,,,,,,,3,9,39,3,,,,,,,,,,,AMNE02.jpg,AMSA12.jpg,AMNE17.jpg,AMSA02.jpg,AMNE17.jpg,MN,1,num_2,16,num_2,0.566738480353,,,2017_Jul_28_1317,59.9971712131,FEMA4ImagesEEG,001,201056,
AFNE01.JPG,AFNE01.JPG,AFNE01.JPG,AFNE01.JPG,AFNE01.JPG,AFNE01.JPG,,,,,,,,,,,,,4,0,40,2,,,,,,,,,,,AMSA12.jpg,AMNE13.jpg,AMSA17.jpg,AMNE08.jpg,AMSA12.jpg,MS,2,num_8,16,num_8,0.966749834595,,,2017_Jul_28_1317,59.9971712131,FEMA4ImagesEEG,001,201056,
AFNE01.JPG,AFNE01.JPG,AFNE01.JPG,AFNE01.JPG,AFNE01.JPG,AFNE01.JPG,,,,,,,,,,,,,4,1,41,6,,,,,,,,,,,AMNE16.jpg,AMSA20.jpg,AMNE02.jpg,AMSA19.jpg,AMSA19.jpg,MS,2,num_4,32,num_2,0.916819258709,,,2017_Jul_28_1317,59.9971712131,FEMA4ImagesEEG,001,201056,
AFNE01.JPG,AFNE01.JPG,AFNE01.JPG,AFNE01.JPG,AFNE01.JPG,AFNE01.JPG,,,,,,,,,,,,,4,2,42,9,,,,,,,,,,,AMSA04.jpg,AMNE13.jpg,AMNE04.jpg,AMSA09.jpg,AMNE04.jpg,MN,1,num_2,32,num_8,1.13345001859,,,2017_Jul_28_1317,59.9971712131,FEMA4ImagesEEG,001,201056,
AFNE01.JPG,AFNE01.JPG,AFNE01.JPG,AFNE01.JPG,AFNE01.JPG,AFNE01.JPG,,,,,,,,,,,,,4,3,43,0,,,,,,,,,,,AMNE06.jpg,AMNE16.jpg,AMSA03.jpg,AMSA08.jpg,AMSA03.jpg,MS,2,num_2,16,num_2,0.58351735794,,,2017_Jul_28_1317,59.9971712131,FEMA4ImagesEEG,001,201056,
AFNE01.JPG,AFNE01.JPG,AFNE01.JPG,AFNE01.JPG,AFNE01.JPG,AFNE01.JPG,,,,,,,,,,,,,4,4,44,5,,,,,,,,,,,AMSA19.jpg,AMSA06.jpg,AMNE19.jpg,AMNE03.jpg,AMSA19.jpg,MS,2,num_8,32,num_2,0.666783095337,,,2017_Jul_28_1317,59.9971712131,FEMA4ImagesEEG,001,201056,
AFNE01.JPG,AFNE01.JPG,AFNE01.JPG,AFNE01.JPG,AFNE01.JPG,AFNE01.JPG,,,,,,,,,,,,,4,5,45,4,,,,,,,,,,,AMSA18.jpg,AMNE13.jpg,AMSA15.jpg,AMNE15.jpg,AMNE13.jpg,MN,1,num_6,16,num_6,0.716788403573,,,2017_Jul_28_1317,59.9971712131,FEMA4ImagesEEG,001,201056,
AFNE01.JPG,AFNE01.JPG,AFNE01.JPG,AFNE01.JPG,AFNE01.JPG,AFNE01.JPG,,,,,,,,,,,,,4,6,46,3,,,,,,,,,,,AMSA18.jpg,AMSA03.jpg,AMNE12.jpg,AMNE09.jpg,AMNE12.jpg,MN,1,num_2,32,num_6,4.78315209912,,,2017_Jul_28_1317,59.9971712131,FEMA4ImagesEEG,001,201056,
AFNE01.JPG,AFNE01.JPG,AFNE01.JPG,AFNE01.JPG,AFNE01.JPG,AFNE01.JPG,,,,,,,,,,,,,4,7,47,8,,,,,,,,,,,AMSA20.jpg,AMNE13.jpg,AMSA08.jpg,AMNE05.jpg,AMSA20.jpg,MS,2,num_8,16,num_8,0.800149400719,,,2017_Jul_28_1317,59.9971712131,FEMA4ImagesEEG,001,201056,
AFNE01.JPG,AFNE01.JPG,AFNE01.JPG,AFNE01.JPG,AFNE01.JPG,AFNE01.JPG,,,,,,,,,,,,,4,8,48,7,,,,,,,,,,,AMSA16.jpg,AMNE10.jpg,AMNE02.jpg,AMSA08.jpg,AMNE02.jpg,MN,1,num_2,16,num_2,0.983450130792,,,2017_Jul_28_1317,59.9971712131,FEMA4ImagesEEG,001,201056,
AFNE01.JPG,AFNE01.JPG,AFNE01.JPG,AFNE01.JPG,AFNE01.JPG,AFNE01.JPG,,,,,,,,,,,,,4,9,49,1,,,,,,,,,,,AMNE01.jpg,AMNE19.jpg,AMSA05.jpg,AMSA20.jpg,AMNE01.jpg,MN,1,num_8,32,num_2,1.20011713426,,,2017_Jul_28_1317,59.9971712131,FEMA4ImagesEEG,001,201056,
AFNE01.JPG,AFNE01.JPG,AFNE01.JPG,AFNE01.JPG,AFNE01.JPG,AFNE01.JPG,,,,,,,,,,,,,5,0,50,4,,,,,,,,,,,AMSA19.jpg,AMNE16.jpg,AMNE12.jpg,AMSA01.jpg,AMSA01.jpg,MS,2,num_4,16,num_4,0.716880776687,,,2017_Jul_28_1317,59.9971712131,FEMA4ImagesEEG,001,201056,
AFNE01.JPG,AFNE01.JPG,AFNE01.JPG,AFNE01.JPG,AFNE01.JPG,AFNE01.JPG,,,,,,,,,,,,,5,1,51,5,,,,,,,,,,,AMNE20.jpg,AMSA20.jpg,AMSA11.jpg,AMNE04.jpg,AMSA11.jpg,MS,2,num_2,32,num_8,1.21681614756,,,2017_Jul_28_1317,59.9971712131,FEMA4ImagesEEG,001,201056,
AFNE01.JPG,AFNE01.JPG,AFNE01.JPG,AFNE01.JPG,AFNE01.JPG,AFNE01.JPG,,,,,,,,,,,,,5,2,52,9,,,,,,,,,,,AMNE09.jpg,AMSA06.jpg,AMSA08.jpg,AMNE07.jpg,AMNE09.jpg,MN,1,num_8,32,num_4,0.650111665716,,,2017_Jul_28_1317,59.9971712131,FEMA4ImagesEEG,001,201056,
AFNE01.JPG,AFNE01.JPG,AFNE01.JPG,AFNE01.JPG,AFNE01.JPG,AFNE01.JPG,,,,,,,,,,,,,5,3,53,1,,,,,,,,,,,AMSA12.jpg,AMSA04.jpg,AMNE15.jpg,AMNE07.jpg,AMSA04.jpg,MS,2,num_6,32,num_2,0.616783881094,,,2017_Jul_28_1317,59.9971712131,FEMA4ImagesEEG,001,201056,
AFNE01.JPG,AFNE01.JPG,AFNE01.JPG,AFNE01.JPG,AFNE01.JPG,AFNE01.JPG,,,,,,,,,,,,,5,4,54,6,,,,,,,,,,,AMSA11.jpg,AMNE19.jpg,AMNE15.jpg,AMSA20.jpg,AMSA11.jpg,MS,2,num_8,16,num_8,0.766829955392,,,2017_Jul_28_1317,59.9971712131,FEMA4ImagesEEG,001,201056,
AFNE01.JPG,AFNE01.JPG,AFNE01.JPG,AFNE01.JPG,AFNE01.JPG,AFNE01.JPG,,,,,,,,,,,,,5,5,55,8,,,,,,,,,,,AMNE04.jpg,AMSA14.jpg,AMNE13.jpg,AMSA07.jpg,AMNE04.jpg,MN,1,num_8,32,num_2,0.783537307987,,,2017_Jul_28_1317,59.9971712131,FEMA4ImagesEEG,001,201056,
AFNE01.JPG,AFNE01.JPG,AFNE01.JPG,AFNE01.JPG,AFNE01.JPG,AFNE01.JPG,,,,,,,,,,,,,5,6,56,7,,,,,,,,,,,AMNE07.jpg,AMSA20.jpg,AMSA03.jpg,AMNE09.jpg,AMSA03.jpg,MS,2,num_2,32,num_6,1.98338758654,,,2017_Jul_28_1317,59.9971712131,FEMA4ImagesEEG,001,201056,
AFNE01.JPG,AFNE01.JPG,AFNE01.JPG,AFNE01.JPG,AFNE01.JPG,AFNE01.JPG,,,,,,,,,,,,,5,7,57,0,,,,,,,,,,,AMSA13.jpg,AMNE17.jpg,AMNE05.jpg,AMSA04.jpg,AMNE17.jpg,MN,1,num_6,16,num_6,1.01676572731,,,2017_Jul_28_1317,59.9971712131,FEMA4ImagesEEG,001,201056,
AFNE01.JPG,AFNE01.JPG,AFNE01.JPG,AFNE01.JPG,AFNE01.JPG,AFNE01.JPG,,,,,,,,,,,,,5,8,58,2,,,,,,,,,,,AMNE19.jpg,AMNE18.jpg,AMSA17.jpg,AMSA11.jpg,AMSA17.jpg,MS,2,num_2,32,num_6,1.0501175673,,,2017_Jul_28_1317,59.9971712131,FEMA4ImagesEEG,001,201056,
AFNE01.JPG,AFNE01.JPG,AFNE01.JPG,AFNE01.JPG,AFNE01.JPG,AFNE01.JPG,,,,,,,,,,,,,5,9,59,3,,,,,,,,,,,AMSA08.jpg,AMNE11.jpg,AMNE09.jpg,AMSA05.jpg,AMNE09.jpg,MN,1,num_2,32,num_8,0.716859287233,,,2017_Jul_28_1317,59.9971712131,FEMA4ImagesEEG,001,201056,
,,,,,,,,,,,,,,,,,,,,,,,,,,,,,,,,,,,,,,,,,,,space,30.0812524516,2017_Jul_28_1317,59.9971712131,FEMA4ImagesEEG,001,201056,
AFNE01.JPG,AFNE01.JPG,AFNE01.JPG,AFNE01.JPG,AFNE01.JPG,AFNE01.JPG,,,,,,,,,,,,,,,,,0,0,0,6,,,,,,,AFSA09.jpg,AFNE01.jpg,AFNE10.jpg,AFSA07.jpg,AFSA07.jpg,FS,4,num_4,16,num_4,0.716794176959,,,2017_Jul_28_1317,59.9971712131,FEMA4ImagesEEG,001,201056,
AFNE01.JPG,AFNE01.JPG,AFNE01.JPG,AFNE01.JPG,AFNE01.JPG,AFNE01.JPG,,,,,,,,,,,,,,,,,0,1,1,5,,,,,,,AFNE09.jpg,AFNE08.jpg,AFSA12.jpg,AFSA06.jpg,AFNE09.jpg,FN,3,num_8,16,num_8,0.93354521424,,,2017_Jul_28_1317,59.9971712131,FEMA4ImagesEEG,001,201056,
AFNE01.JPG,AFNE01.JPG,AFNE01.JPG,AFNE01.JPG,AFNE01.JPG,AFNE01.JPG,,,,,,,,,,,,,,,,,0,2,2,1,,,,,,,AFNE07.jpg,AFNE06.jpg,AFSA07.jpg,AFSA16.jpg,AFSA16.jpg,FS,4,num_4,32,num_6,1.13343269855,,,2017_Jul_28_1317,59.9971712131,FEMA4ImagesEEG,001,201056,
AFNE01.JPG,AFNE01.JPG,AFNE01.JPG,AFNE01.JPG,AFNE01.JPG,AFNE01.JPG,,,,,,,,,,,,,,,,,0,3,3,7,,,,,,,AFSA18.jpg,AFNE02.jpg,AFNE17.jpg,AFSA08.jpg,AFSA08.jpg,FS,4,num_4,16,num_4,0.700141029432,,,2017_Jul_28_1317,59.9971712131,FEMA4ImagesEEG,001,201056,
AFNE01.JPG,AFNE01.JPG,AFNE01.JPG,AFNE01.JPG,AFNE01.JPG,AFNE01.JPG,,,,,,,,,,,,,,,,,0,4,4,2,,,,,,,AFSA11.jpg,AFNE15.jpg,AFSA10.jpg,AFNE17.jpg,AFSA11.jpg,FS,4,num_8,16,num_8,0.733487416874,,,2017_Jul_28_1317,59.9971712131,FEMA4ImagesEEG,001,201056,
AFNE01.JPG,AFNE01.JPG,AFNE01.JPG,AFNE01.JPG,AFNE01.JPG,AFNE01.JPG,,,,,,,,,,,,,,,,,0,5,5,8,,,,,,,AFSA14.jpg,AFSA05.jpg,AFNE12.jpg,AFNE02.jpg,AFNE12.jpg,FN,3,num_2,16,num_2,0.616769768531,,,2017_Jul_28_1317,59.9971712131,FEMA4ImagesEEG,001,201056,
AFNE01.JPG,AFNE01.JPG,AFNE01.JPG,AFNE01.JPG,AFNE01.JPG,AFNE01.JPG,,,,,,,,,,,,,,,,,0,6,6,0,,,,,,,AFSA01.jpg,AFNE15.jpg,AFNE10.jpg,AFSA04.jpg,AFSA01.jpg,FS,4,num_8,16,num_8,0.883193506743,,,2017_Jul_28_1317,59.9971712131,FEMA4ImagesEEG,001,201056,
AFNE01.JPG,AFNE01.JPG,AFNE01.JPG,AFNE01.JPG,AFNE01.JPG,AFNE01.JPG,,,,,,,,,,,,,,,,,0,7,7,4,,,,,,,AFNE11.jpg,AFSA20.jpg,AFSA15.jpg,AFNE04.jpg,AFSA20.jpg,FS,4,num_6,32,num_8,1.11679622962,,,2017_Jul_28_1317,59.9971712131,FEMA4ImagesEEG,001,201056,
AFNE01.JPG,AFNE01.JPG,AFNE01.JPG,AFNE01.JPG,AFNE01.JPG,AFNE01.JPG,,,,,,,,,,,,,,,,,0,8,8,3,,,,,,,AFSA15.jpg,AFSA09.jpg,AFNE20.jpg,AFNE17.jpg,AFNE20.jpg,FN,3,num_2,16,num_2,0.866811063839,,,2017_Jul_28_1317,59.9971712131,FEMA4ImagesEEG,001,201056,
AFNE01.JPG,AFNE01.JPG,AFNE01.JPG,AFNE01.JPG,AFNE01.JPG,AFNE01.JPG,,,,,,,,,,,,,,,,,0,9,9,9,,,,,,,AFNE11.jpg,AFNE19.jpg,AFSA13.jpg,AFSA05.jpg,AFSA13.jpg,FS,4,num_2,16,num_2,0.583467963967,,,2017_Jul_28_1317,59.9971712131,FEMA4ImagesEEG,001,201056,
AFNE01.JPG,AFNE01.JPG,AFNE01.JPG,AFNE01.JPG,AFNE01.JPG,AFNE01.JPG,,,,,,,,,,,,,,,,,1,0,10,3,,,,,,,AFNE09.jpg,AFNE19.jpg,AFSA10.jpg,AFSA13.jpg,AFNE09.jpg,FN,3,num_8,32,num_6,0.833509900724,,,2017_Jul_28_1317,59.9971712131,FEMA4ImagesEEG,001,201056,
AFNE01.JPG,AFNE01.JPG,AFNE01.JPG,AFNE01.JPG,AFNE01.JPG,AFNE01.JPG,,,,,,,,,,,,,,,,,1,1,11,8,,,,,,,AFSA05.jpg,AFSA04.jpg,AFNE18.jpg,AFNE13.jpg,AFNE13.jpg,FN,3,num_4,32,num_2,0.716751197702,,,2017_Jul_28_1317,59.9971712131,FEMA4ImagesEEG,001,201056,
AFNE01.JPG,AFNE01.JPG,AFNE01.JPG,AFNE01.JPG,AFNE01.JPG,AFNE01.JPG,,,,,,,,,,,,,,,,,1,2,12,6,,,,,,,AFNE03.jpg,AFSA04.jpg,AFNE16.jpg,AFSA05.jpg,AFNE16.jpg,FN,3,num_2,32,num_6,0.58353660244,,,2017_Jul_28_1317,59.9971712131,FEMA4ImagesEEG,001,201056,
AFNE01.JPG,AFNE01.JPG,AFNE01.JPG,AFNE01.JPG,AFNE01.JPG,AFNE01.JPG,,,,,,,,,,,,,,,,,1,3,13,1,,,,,,,AFNE05.jpg,AFNE04.jpg,AFSA07.jpg,AFSA02.jpg,AFNE04.jpg,FN,3,num_6,32,num_8,4.04988759663,,,2017_Jul_28_1317,59.9971712131,FEMA4ImagesEEG,001,201056,
AFNE01.JPG,AFNE01.JPG,AFNE01.JPG,AFNE01.JPG,AFNE01.JPG,AFNE01.JPG,,,,,,,,,,,,,,,,,1,4,14,0,,,,,,,AFNE15.jpg,AFNE01.jpg,AFSA18.jpg,AFSA11.jpg,AFSA18.jpg,FS,4,num_2,16,num_2,1.10011613998,,,2017_Jul_28_1317,59.9971712131,FEMA4ImagesEEG,001,201056,
AFNE01.JPG,AFNE01.JPG,AFNE01.JPG,AFNE01.JPG,AFNE01.JPG,AFNE01.JPG,,,,,,,,,,,,,,,,,1,5,15,7,,,,,,,AFSA07.jpg,AFNE05.jpg,AFSA20.jpg,AFNE15.jpg,AFNE15.jpg,FN,3,num_4,32,num_8,0.800207775435,,,2017_Jul_28_1317,59.9971712131,FEMA4ImagesEEG,001,201056,
AFNE01.JPG,AFNE01.JPG,AFNE01.JPG,AFNE01.JPG,AFNE01.JPG,AFNE01.JPG,,,,,,,,,,,,,,,,,1,6,16,2,,,,,,,AFSA08.jpg,AFNE02.jpg,AFNE16.jpg,AFSA11.jpg,AFNE16.jpg,FN,3,num_2,32,num_6,1.11677121196,,,2017_Jul_28_1317,59.9971712131,FEMA4ImagesEEG,001,201056,
AFNE01.JPG,AFNE01.JPG,AFNE01.JPG,AFNE01.JPG,AFNE01.JPG,AFNE01.JPG,,,,,,,,,,,,,,,,,1,7,17,4,,,,,,,AFSA10.jpg,AFNE18.jpg,AFNE04.jpg,AFSA20.jpg,AFNE04.jpg,FN,3,num_2,32,num_8,1.45011352596,,,2017_Jul_28_1317,59.9971712131,FEMA4ImagesEEG,001,201056,
AFNE01.JPG,AFNE01.JPG,AFNE01.JPG,AFNE01.JPG,AFNE01.JPG,AFNE01.JPG,,,,,,,,,,,,,,,,,1,8,18,5,,,,,,,AFSA12.jpg,AFNE17.jpg,AFSA02.jpg,AFNE05.jpg,AFSA12.jpg,FS,4,num_8,32,num_4,0.816848414135,,,2017_Jul_28_1317,59.9971712131,FEMA4ImagesEEG,001,201056,
AFNE01.JPG,AFNE01.JPG,AFNE01.JPG,AFNE01.JPG,AFNE01.JPG,AFNE01.JPG,,,,,,,,,,,,,,,,,1,9,19,9,,,,,,,AFSA20.jpg,AFNE18.jpg,AFNE05.jpg,AFSA03.jpg,AFSA03.jpg,FS,4,num_4,16,num_4,0.88349115348,,,2017_Jul_28_1317,59.9971712131,FEMA4ImagesEEG,001,201056,
AFNE01.JPG,AFNE01.JPG,AFNE01.JPG,AFNE01.JPG,AFNE01.JPG,AFNE01.JPG,,,,,,,,,,,,,,,,,2,0,20,1,,,,,,,AFNE06.jpg,AFSA01.jpg,AFSA13.jpg,AFNE08.jpg,AFNE08.jpg,FN,3,num_4,32,num_8,1.21674077364,,,2017_Jul_28_1317,59.9971712131,FEMA4ImagesEEG,001,201056,
AFNE01.JPG,AFNE01.JPG,AFNE01.JPG,AFNE01.JPG,AFNE01.JPG,AFNE01.JPG,,,,,,,,,,,,,,,,,2,1,21,5,,,,,,,AFSA02.jpg,AFNE15.jpg,AFNE01.jpg,AFSA17.jpg,AFNE01.jpg,FN,3,num_2,16,num_2,1.56672372634,,,2017_Jul_28_1317,59.9971712131,FEMA4ImagesEEG,001,201056,
AFNE01.JPG,AFNE01.JPG,AFNE01.JPG,AFNE01.JPG,AFNE01.JPG,AFNE01.JPG,,,,,,,,,,,,,,,,,2,2,22,0,,,,,,,AFNE11.jpg,AFNE19.jpg,AFSA02.jpg,AFSA09.jpg,AFNE11.jpg,FN,3,num_8,16,num_8,0.650128344074,,,2017_Jul_28_1317,59.9971712131,FEMA4ImagesEEG,001,201056,
AFNE01.JPG,AFNE01.JPG,AFNE01.JPG,AFNE01.JPG,AFNE01.JPG,AFNE01.JPG,,,,,,,,,,,,,,,,,2,3,23,8,,,,,,,AFSA10.jpg,AFNE11.jpg,AFSA18.jpg,AFNE20.jpg,AFNE20.jpg,FN,3,num_4,32,num_8,1.50008579798,,,2017_Jul_28_1317,59.9971712131,FEMA4ImagesEEG,001,201056,
AFNE01.JPG,AFNE01.JPG,AFNE01.JPG,AFNE01.JPG,AFNE01.JPG,AFNE01.JPG,,,,,,,,,,,,,,,,,2,4,24,9,,,,,,,AFNE18.jpg,AFNE08.jpg,AFSA06.jpg,AFSA04.jpg,AFSA06.jpg,FS,4,num_2,32,num_4,0.800140099367,,,2017_Jul_28_1317,59.9971712131,FEMA4ImagesEEG,001,201056,
AFNE01.JPG,AFNE01.JPG,AFNE01.JPG,AFNE01.JPG,AFNE01.JPG,AFNE01.JPG,,,,,,,,,,,,,,,,,2,5,25,2,,,,,,,AFNE15.jpg,AFSA07.jpg,AFNE18.jpg,AFSA08.jpg,AFSA08.jpg,FS,4,num_4,32,num_8,0.900153923198,,,2017_Jul_28_1317,59.9971712131,FEMA4ImagesEEG,001,201056,
AFNE01.JPG,AFNE01.JPG,AFNE01.JPG,AFNE01.JPG,AFNE01.JPG,AFNE01.JPG,,,,,,,,,,,,,,,,,2,6,26,6,,,,,,,AFNE11.jpg,AFSA15.jpg,AFSA10.jpg,AFNE06.jpg,AFSA15.jpg,FS,4,num_6,32,num_2,0.733515962726,,,2017_Jul_28_1317,59.9971712131,FEMA4ImagesEEG,001,201056,
AFNE01.JPG,AFNE01.JPG,AFNE01.JPG,AFNE01.JPG,AFNE01.JPG,AFNE01.JPG,,,,,,,,,,,,,,,,,2,7,27,3,,,,,,,AFSA13.jpg,AFSA19.jpg,AFNE12.jpg,AFNE14.jpg,AFNE14.jpg,FN,3,num_4,32,num_6,1.05013103841,,,2017_Jul_28_1317,59.9971712131,FEMA4ImagesEEG,001,201056,
AFNE01.JPG,AFNE01.JPG,AFNE01.JPG,AFNE01.JPG,AFNE01.JPG,AFNE01.JPG,,,,,,,,,,,,,,,,,2,8,28,4,,,,,,,AFSA18.jpg,AFSA01.jpg,AFNE15.jpg,AFNE06.jpg,AFNE06.jpg,FN,3,num_4,16,num_4,0.733444437734,,,2017_Jul_28_1317,59.9971712131,FEMA4ImagesEEG,001,201056,
AFNE01.JPG,AFNE01.JPG,AFNE01.JPG,AFNE01.JPG,AFNE01.JPG,AFNE01.JPG,,,,,,,,,,,,,,,,,2,9,29,7,,,,,,,AFNE03.jpg,AFNE11.jpg,AFSA11.jpg,AFSA16.jpg,AFSA16.jpg,FS,4,num_4,32,num_6,3.46658705897,,,2017_Jul_28_1317,59.9971712131,FEMA4ImagesEEG,001,201056,
AFNE01.JPG,AFNE01.JPG,AFNE01.JPG,AFNE01.JPG,AFNE01.JPG,AFNE01.JPG,,,,,,,,,,,,,,,,,3,0,30,3,,,,,,,AFSA19.jpg,AFSA04.jpg,AFNE19.jpg,AFNE11.jpg,AFSA04.jpg,FS,4,num_6,16,num_6,1.08344727627,,,2017_Jul_28_1317,59.9971712131,FEMA4ImagesEEG,001,201056,
AFNE01.JPG,AFNE01.JPG,AFNE01.JPG,AFNE01.JPG,AFNE01.JPG,AFNE01.JPG,,,,,,,,,,,,,,,,,3,1,31,0,,,,,,,AFNE12.jpg,AFSA09.jpg,AFNE09.jpg,AFSA17.jpg,AFNE12.jpg,FN,3,num_8,32,num_2,1.01677085913,,,2017_Jul_28_1317,59.9971712131,FEMA4ImagesEEG,001,201056,
AFNE01.JPG,AFNE01.JPG,AFNE01.JPG,AFNE01.JPG,AFNE01.JPG,AFNE01.JPG,,,,,,,,,,,,,,,,,3,2,32,4,,,,,,,AFNE02.jpg,AFSA17.jpg,AFSA01.jpg,AFNE18.jpg,AFNE02.jpg,FN,3,num_8,32,num_2,1.26674928935,,,2017_Jul_28_1317,59.9971712131,FEMA4ImagesEEG,001,201056,
AFNE01.JPG,AFNE01.JPG,AFNE01.JPG,AFNE01.JPG,AFNE01.JPG,AFNE01.JPG,,,,,,,,,,,,,,,,,3,3,33,6,,,,,,,AFNE15.jpg,AFNE18.jpg,AFSA14.jpg,AFSA01.jpg,AFSA14.jpg,FS,4,num_2,32,num_8,2.14988506283,,,2017_Jul_28_1317,59.9971712131,FEMA4ImagesEEG,001,201056,
AFNE01.JPG,AFNE01.JPG,AFNE01.JPG,AFNE01.JPG,AFNE01.JPG,AFNE01.JPG,,,,,,,,,,,,,,,,,3,4,34,1,,,,,,,AFNE16.jpg,AFNE15.jpg,AFSA12.jpg,AFSA20.jpg,AFNE15.jpg,FN,3,num_6,32,num_8,1.3167680687,,,2017_Jul_28_1317,59.9971712131,FEMA4ImagesEEG,001,201056,
AFNE01.JPG,AFNE01.JPG,AFNE01.JPG,AFNE01.JPG,AFNE01.JPG,AFNE01.JPG,,,,,,,,,,,,,,,,,3,5,35,8,,,,,,,AFSA18.jpg,AFSA07.jpg,AFNE09.jpg,AFNE03.jpg,AFNE09.jpg,FN,3,num_2,16,num_2,1.03345479758,,,2017_Jul_28_1317,59.9971712131,FEMA4ImagesEEG,001,201056,
AFNE01.JPG,AFNE01.JPG,AFNE01.JPG,AFNE01.JPG,AFNE01.JPG,AFNE01.JPG,,,,,,,,,,,,,,,,,3,6,36,2,,,,,,,AFNE08.jpg,AFSA13.jpg,AFNE17.jpg,AFSA01.jpg,AFSA01.jpg,FS,4,num_4,16,num_4,0.633501497447,,,2017_Jul_28_1317,59.9971712131,FEMA4ImagesEEG,001,201056,
AFNE01.JPG,AFNE01.JPG,AFNE01.JPG,AFNE01.JPG,AFNE01.JPG,AFNE01.JPG,,,,,,,,,,,,,,,,,3,7,37,5,,,,,,,AFSA08.jpg,AFSA13.jpg,AFNE20.jpg,AFNE13.jpg,AFSA13.jpg,FS,4,num_6,32,num_8,1.31679212407,,,2017_Jul_28_1317,59.9971712131,FEMA4ImagesEEG,001,201056,
AFNE01.JPG,AFNE01.JPG,AFNE01.JPG,AFNE01.JPG,AFNE01.JPG,AFNE01.JPG,,,,,,,,,,,,,,,,,3,8,38,7,,,,,,,AFSA03.jpg,AFNE17.jpg,AFSA01.jpg,AFNE07.jpg,AFNE17.jpg,FN,3,num_6,16,num_6,0.850137389032,,,2017_Jul_28_1317,59.9971712131,FEMA4ImagesEEG,001,201056,
AFNE01.JPG,AFNE01.JPG,AFNE01.JPG,AFNE01.JPG,AFNE01.JPG,AFNE01.JPG,,,,,,,,,,,,,,,,,3,9,39,9,,,,,,,AFNE11.jpg,AFNE05.jpg,AFSA17.jpg,AFSA18.jpg,AFSA17.jpg,FS,4,num_2,32,num_8,0.183551548864,,,2017_Jul_28_1317,59.9971712131,FEMA4ImagesEEG,001,201056,
AFNE01.JPG,AFNE01.JPG,AFNE01.JPG,AFNE01.JPG,AFNE01.JPG,AFNE01.JPG,,,,,,,,,,,,,,,,,4,0,40,4,,,,,,,AFSA15.jpg,AFNE04.jpg,AFSA13.jpg,AFNE18.jpg,AFNE04.jpg,FN,3,num_6,16,num_6,0.800123420777,,,2017_Jul_28_1317,59.9971712131,FEMA4ImagesEEG,001,201056,
AFNE01.JPG,AFNE01.JPG,AFNE01.JPG,AFNE01.JPG,AFNE01.JPG,AFNE01.JPG,,,,,,,,,,,,,,,,,4,1,41,0,,,,,,,AFSA09.jpg,AFNE04.jpg,AFSA20.jpg,AFNE08.jpg,AFSA09.jpg,FS,4,num_8,32,num_6,0.883438552031,,,2017_Jul_28_1317,59.9971712131,FEMA4ImagesEEG,001,201056,
AFNE01.JPG,AFNE01.JPG,AFNE01.JPG,AFNE01.JPG,AFNE01.JPG,AFNE01.JPG,,,,,,,,,,,,,,,,,4,2,42,2,,,,,,,AFNE04.jpg,AFSA10.jpg,AFSA09.jpg,AFNE02.jpg,AFNE04.jpg,FN,3,num_8,32,num_2,0.900131792063,,,2017_Jul_28_1317,59.9971712131,FEMA4ImagesEEG,001,201056,
AFNE01.JPG,AFNE01.JPG,AFNE01.JPG,AFNE01.JPG,AFNE01.JPG,AFNE01.JPG,,,,,,,,,,,,,,,,,4,3,43,8,,,,,,,AFSA10.jpg,AFSA20.jpg,AFNE05.jpg,AFNE14.jpg,AFSA20.jpg,FS,4,num_6,16,num_6,0.833496750449,,,2017_Jul_28_1317,59.9971712131,FEMA4ImagesEEG,001,201056,
AFNE01.JPG,AFNE01.JPG,AFNE01.JPG,AFNE01.JPG,AFNE01.JPG,AFNE01.JPG,,,,,,,,,,,,,,,,,4,4,44,7,,,,,,,AFSA04.jpg,AFNE14.jpg,AFSA11.jpg,AFNE01.jpg,AFSA11.jpg,FS,4,num_2,32,num_8,1.08328562335,,,2017_Jul_28_1317,59.9971712131,FEMA4ImagesEEG,001,201056,
AFNE01.JPG,AFNE01.JPG,AFNE01.JPG,AFNE01.JPG,AFNE01.JPG,AFNE01.JPG,,,,,,,,,,,,,,,,,4,5,45,6,,,,,,,AFSA03.jpg,AFNE09.jpg,AFNE14.jpg,AFSA18.jpg,AFNE14.jpg,FN,3,num_2,32,num_6,1.60006722703,,,2017_Jul_28_1317,59.9971712131,FEMA4ImagesEEG,001,201056,
AFNE01.JPG,AFNE01.JPG,AFNE01.JPG,AFNE01.JPG,AFNE01.JPG,AFNE01.JPG,,,,,,,,,,,,,,,,,4,6,46,5,,,,,,,AFNE10.jpg,AFSA17.jpg,AFSA19.jpg,AFNE14.jpg,AFSA19.jpg,FS,4,num_2,16,num_2,0.933445784845,,,2017_Jul_28_1317,59.9971712131,FEMA4ImagesEEG,001,201056,
AFNE01.JPG,AFNE01.JPG,AFNE01.JPG,AFNE01.JPG,AFNE01.JPG,AFNE01.JPG,,,,,,,,,,,,,,,,,4,7,47,9,,,,,,,AFSA05.jpg,AFNE20.jpg,AFSA20.jpg,AFNE01.jpg,AFSA05.jpg,FS,4,num_8,48,None,,,,2017_Jul_28_1317,59.9971712131,FEMA4ImagesEEG,001,201056,
AFNE01.JPG,AFNE01.JPG,AFNE01.JPG,AFNE01.JPG,AFNE01.JPG,AFNE01.JPG,,,,,,,,,,,,,,,,,4,8,48,3,,,,,,,AFNE01.jpg,AFNE19.jpg,AFSA03.jpg,AFSA09.jpg,AFSA09.jpg,FS,4,num_4,32,num_2,0.849830119987,,,2017_Jul_28_1317,59.9971712131,FEMA4ImagesEEG,001,201056,
AFNE01.JPG,AFNE01.JPG,AFNE01.JPG,AFNE01.JPG,AFNE01.JPG,AFNE01.JPG,,,,,,,,,,,,,,,,,4,9,49,1,,,,,,,AFNE18.jpg,AFSA05.jpg,AFSA11.jpg,AFNE04.jpg,AFSA05.jpg,FS,4,num_6,32,num_2,0.616809861152,,,2017_Jul_28_1317,59.9971712131,FEMA4ImagesEEG,001,201056,
AFNE01.JPG,AFNE01.JPG,AFNE01.JPG,AFNE01.JPG,AFNE01.JPG,AFNE01.JPG,,,,,,,,,,,,,,,,,5,0,50,8,,,,,,,AFSA04.jpg,AFNE02.jpg,AFSA12.jpg,AFNE03.jpg,AFSA12.jpg,FS,4,num_2,32,num_8,1.0667912421,,,2017_Jul_28_1317,59.9971712131,FEMA4ImagesEEG,001,201056,
AFNE01.JPG,AFNE01.JPG,AFNE01.JPG,AFNE01.JPG,AFNE01.JPG,AFNE01.JPG,,,,,,,,,,,,,,,,,5,1,51,3,,,,,,,AFSA01.jpg,AFNE16.jpg,AFSA17.jpg,AFNE11.jpg,AFSA17.jpg,FS,4,num_2,32,num_4,4.4001175192,,,2017_Jul_28_1317,59.9971712131,FEMA4ImagesEEG,001,201056,
AFNE01.JPG,AFNE01.JPG,AFNE01.JPG,AFNE01.JPG,AFNE01.JPG,AFNE01.JPG,,,,,,,,,,,,,,,,,5,2,52,4,,,,,,,AFNE12.jpg,AFNE16.jpg,AFSA07.jpg,AFSA06.jpg,AFSA07.jpg,FS,4,num_2,16,num_2,0.716810213984,,,2017_Jul_28_1317,59.9971712131,FEMA4ImagesEEG,001,201056,
AFNE01.JPG,AFNE01.JPG,AFNE01.JPG,AFNE01.JPG,AFNE01.JPG,AFNE01.JPG,,,,,,,,,,,,,,,,,5,3,53,0,,,,,,,AFNE07.jpg,AFSA11.jpg,AFSA19.jpg,AFNE02.jpg,AFNE02.jpg,FN,3,num_4,32,num_2,1.00012893754,,,2017_Jul_28_1317,59.9971712131,FEMA4ImagesEEG,001,201056,
AFNE01.JPG,AFNE01.JPG,AFNE01.JPG,AFNE01.JPG,AFNE01.JPG,AFNE01.JPG,,,,,,,,,,,,,,,,,5,4,54,7,,,,,,,AFNE19.jpg,AFNE12.jpg,AFSA19.jpg,AFSA09.jpg,AFSA19.jpg,FS,4,num_2,16,num_2,0.950137421023,,,2017_Jul_28_1317,59.9971712131,FEMA4ImagesEEG,001,201056,
AFNE01.JPG,AFNE01.JPG,AFNE01.JPG,AFNE01.JPG,AFNE01.JPG,AFNE01.JPG,,,,,,,,,,,,,,,,,5,5,55,9,,,,,,,AFNE16.jpg,AFSA20.jpg,AFSA12.jpg,AFNE06.jpg,AFSA20.jpg,FS,4,num_6,32,num_8,0.583505811286,,,2017_Jul_28_1317,59.9971712131,FEMA4ImagesEEG,001,201056,
AFNE01.JPG,AFNE01.JPG,AFNE01.JPG,AFNE01.JPG,AFNE01.JPG,AFNE01.JPG,,,,,,,,,,,,,,,,,5,6,56,5,,,,,,,AFSA13.jpg,AFNE12.jpg,AFSA14.jpg,AFNE06.jpg,AFSA14.jpg,FS,4,num_2,32,num_8,0.400164988707,,,2017_Jul_28_1317,59.9971712131,FEMA4ImagesEEG,001,201056,
AFNE01.JPG,AFNE01.JPG,AFNE01.JPG,AFNE01.JPG,AFNE01.JPG,AFNE01.JPG,,,,,,,,,,,,,,,,,5,7,57,2,,,,,,,AFSA01.jpg,AFNE04.jpg,AFNE13.jpg,AFSA07.jpg,AFSA01.jpg,FS,4,num_8,16,num_8,1.43342060666,,,2017_Jul_28_1317,59.9971712131,FEMA4ImagesEEG,001,201056,
AFNE01.JPG,AFNE01.JPG,AFNE01.JPG,AFNE01.JPG,AFNE01.JPG,AFNE01.JPG,,,,,,,,,,,,,,,,,5,8,58,1,,,,,,,AFNE06.jpg,AFNE02.jpg,AFSA14.jpg,AFSA20.jpg,AFSA20.jpg,FS,4,num_4,32,num_2,0.783450708259,,,2017_Jul_28_1317,59.9971712131,FEMA4ImagesEEG,001,201056,
AFNE01.JPG,AFNE01.JPG,AFNE01.JPG,AFNE01.JPG,AFNE01.JPG,AFNE01.JPG,,,,,,,,,,,,,,,,,5,9,59,6,,,,,,,AFNE04.jpg,AFSA15.jpg,AFNE17.jpg,AFSA07.jpg,AFNE17.jpg,FN,3,num_2,16,num_2,1.2332851903,,,2017_Jul_28_1317,59.9971712131,FEMA4ImagesEEG,001,201056,
,,,,,,,,,,,,,,,,,,,,,,,,,,,,,,,,,,,,,,,,,,,space,36.731019001,2017_Jul_28_1317,59.9971712131,FEMA4ImagesEEG,001,201056,
AFNE01.JPG,AFNE01.JPG,AFNE01.JPG,AFNE01.JPG,AFNE01.JPG,AFNE01.JPG,,,,,,,,,,,,,,,,,,,,,0,0,0,9,,,AMSA03.jpg,AMSA13.jpg,AMNE17.jpg,AMNE04.jpg,AMSA03.jpg,MS,2,num_8,32,num_6,0.850177802378,,,2017_Jul_28_1317,59.9971712131,FEMA4ImagesEEG,001,201056,
AFNE01.JPG,AFNE01.JPG,AFNE01.JPG,AFNE01.JPG,AFNE01.JPG,AFNE01.JPG,,,,,,,,,,,,,,,,,,,,,0,1,1,3,,,AMNE07.jpg,AMSA03.jpg,AMNE01.jpg,AMSA17.jpg,AMSA03.jpg,MS,2,num_6,16,num_6,1.100118706,,,2017_Jul_28_1317,59.9971712131,FEMA4ImagesEEG,001,201056,
AFNE01.JPG,AFNE01.JPG,AFNE01.JPG,AFNE01.JPG,AFNE01.JPG,AFNE01.JPG,,,,,,,,,,,,,,,,,,,,,0,2,2,1,,,AMSA07.jpg,AMNE12.jpg,AMSA01.jpg,AMNE08.jpg,AMSA07.jpg,MS,2,num_8,16,num_8,1.33341961238,,,2017_Jul_28_1317,59.9971712131,FEMA4ImagesEEG,001,201056,
AFNE01.JPG,AFNE01.JPG,AFNE01.JPG,AFNE01.JPG,AFNE01.JPG,AFNE01.JPG,,,,,,,,,,,,,,,,,,,,,0,3,3,8,,,AMNE15.jpg,AMSA07.jpg,AMNE12.jpg,AMSA05.jpg,AMNE12.jpg,MN,1,num_2,32,num_8,0.733382534818,,,2017_Jul_28_1317,59.9971712131,FEMA4ImagesEEG,001,201056,
AFNE01.JPG,AFNE01.JPG,AFNE01.JPG,AFNE01.JPG,AFNE01.JPG,AFNE01.JPG,,,,,,,,,,,,,,,,,,,,,0,4,4,5,,,AMNE01.jpg,AMSA10.jpg,AMSA04.jpg,AMNE08.jpg,AMNE01.jpg,MN,1,num_8,16,num_8,0.666639403789,,,2017_Jul_28_1317,59.9971712131,FEMA4ImagesEEG,001,201056,
AFNE01.JPG,AFNE01.JPG,AFNE01.JPG,AFNE01.JPG,AFNE01.JPG,AFNE01.JPG,,,,,,,,,,,,,,,,,,,,,0,5,5,0,,,AMNE20.jpg,AMNE16.jpg,AMSA12.jpg,AMSA05.jpg,AMSA05.jpg,MS,2,num_4,16,num_4,0.933463425492,,,2017_Jul_28_1317,59.9971712131,FEMA4ImagesEEG,001,201056,
AFNE01.JPG,AFNE01.JPG,AFNE01.JPG,AFNE01.JPG,AFNE01.JPG,AFNE01.JPG,,,,,,,,,,,,,,,,,,,,,0,6,6,7,,,AMNE01.jpg,AMSA08.jpg,AMSA03.jpg,AMNE04.jpg,AMSA03.jpg,MS,2,num_2,32,num_8,0.766778637073,,,2017_Jul_28_1317,59.9971712131,FEMA4ImagesEEG,001,201056,
AFNE01.JPG,AFNE01.JPG,AFNE01.JPG,AFNE01.JPG,AFNE01.JPG,AFNE01.JPG,,,,,,,,,,,,,,,,,,,,,0,7,7,2,,,AMSA01.jpg,AMSA08.jpg,AMNE11.jpg,AMNE01.jpg,AMSA01.jpg,MS,2,num_8,32,num_4,1.73338574229,,,2017_Jul_28_1317,59.9971712131,FEMA4ImagesEEG,001,201056,
AFNE01.JPG,AFNE01.JPG,AFNE01.JPG,AFNE01.JPG,AFNE01.JPG,AFNE01.JPG,,,,,,,,,,,,,,,,,,,,,0,8,8,4,,,AMNE05.jpg,AMNE17.jpg,AMSA10.jpg,AMSA08.jpg,AMSA10.jpg,MS,2,num_2,32,num_8,1.13342243503,,,2017_Jul_28_1317,59.9971712131,FEMA4ImagesEEG,001,201056,
AFNE01.JPG,AFNE01.JPG,AFNE01.JPG,AFNE01.JPG,AFNE01.JPG,AFNE01.JPG,,,,,,,,,,,,,,,,,,,,,0,9,9,6,,,AMNE18.jpg,AMNE03.jpg,AMSA17.jpg,AMSA15.jpg,AMNE03.jpg,MN,1,num_6,32,num_4,0.816815377795,,,2017_Jul_28_1317,59.9971712131,FEMA4ImagesEEG,001,201056,
AFNE01.JPG,AFNE01.JPG,AFNE01.JPG,AFNE01.JPG,AFNE01.JPG,AFNE01.JPG,,,,,,,,,,,,,,,,,,,,,1,0,10,8,,,AMSA15.jpg,AMNE01.jpg,AMSA10.jpg,AMNE08.jpg,AMSA15.jpg,MS,2,num_8,32,num_2,0.966752400505,,,2017_Jul_28_1317,59.9971712131,FEMA4ImagesEEG,001,201056,
AFNE01.JPG,AFNE01.JPG,AFNE01.JPG,AFNE01.JPG,AFNE01.JPG,AFNE01.JPG,,,,,,,,,,,,,,,,,,,,,1,1,11,1,,,AMNE14.jpg,AMSA07.jpg,AMSA15.jpg,AMNE05.jpg,AMNE05.jpg,MN,1,num_4,16,num_4,0.866773537244,,,2017_Jul_28_1317,59.9971712131,FEMA4ImagesEEG,001,201056,
AFNE01.JPG,AFNE01.JPG,AFNE01.JPG,AFNE01.JPG,AFNE01.JPG,AFNE01.JPG,,,,,,,,,,,,,,,,,,,,,1,2,12,0,,,AMNE19.jpg,AMNE12.jpg,AMSA02.jpg,AMSA20.jpg,AMNE12.jpg,MN,1,num_6,16,num_6,0.900167715037,,,2017_Jul_28_1317,59.9971712131,FEMA4ImagesEEG,001,201056,
AFNE01.JPG,AFNE01.JPG,AFNE01.JPG,AFNE01.JPG,AFNE01.JPG,AFNE01.JPG,,,,,,,,,,,,,,,,,,,,,1,3,13,6,,,AMNE09.jpg,AMNE04.jpg,AMSA10.jpg,AMSA16.jpg,AMSA10.jpg,MS,2,num_2,16,num_2,1.03346377832,,,2017_Jul_28_1317,59.9971712131,FEMA4ImagesEEG,001,201056,
AFNE01.JPG,AFNE01.JPG,AFNE01.JPG,AFNE01.JPG,AFNE01.JPG,AFNE01.JPG,,,,,,,,,,,,,,,,,,,,,1,4,14,4,,,AMNE05.jpg,AMSA19.jpg,AMNE06.jpg,AMSA14.jpg,AMSA14.jpg,MS,2,num_4,16,num_4,0.600020719809,,,2017_Jul_28_1317,59.9971712131,FEMA4ImagesEEG,001,201056,
AFNE01.JPG,AFNE01.JPG,AFNE01.JPG,AFNE01.JPG,AFNE01.JPG,AFNE01.JPG,,,,,,,,,,,,,,,,,,,,,1,5,15,7,,,AMNE15.jpg,AMSA20.jpg,AMSA16.jpg,AMNE08.jpg,AMSA16.jpg,MS,2,num_2,32,num_6,0.666814527824,,,2017_Jul_28_1317,59.9971712131,FEMA4ImagesEEG,001,201056,
AFNE01.JPG,AFNE01.JPG,AFNE01.JPG,AFNE01.JPG,AFNE01.JPG,AFNE01.JPG,,,,,,,,,,,,,,,,,,,,,1,6,16,2,,,AMSA20.jpg,AMSA07.jpg,AMNE02.jpg,AMNE03.jpg,AMSA07.jpg,MS,2,num_6,32,num_4,1.03372197412,,,2017_Jul_28_1317,59.9971712131,FEMA4ImagesEEG,001,201056,
AFNE01.JPG,AFNE01.JPG,AFNE01.JPG,AFNE01.JPG,AFNE01.JPG,AFNE01.JPG,,,,,,,,,,,,,,,,,,,,,1,7,17,5,,,AMNE12.jpg,AMNE10.jpg,AMSA18.jpg,AMSA07.jpg,AMNE10.jpg,MN,1,num_6,16,num_6,1.20005619363,,,2017_Jul_28_1317,59.9971712131,FEMA4ImagesEEG,001,201056,
AFNE01.JPG,AFNE01.JPG,AFNE01.JPG,AFNE01.JPG,AFNE01.JPG,AFNE01.JPG,,,,,,,,,,,,,,,,,,,,,1,8,18,3,,,AMSA06.jpg,AMSA11.jpg,AMNE11.jpg,AMNE14.jpg,AMSA11.jpg,MS,2,num_6,32,num_8,0.933501914376,,,2017_Jul_28_1317,59.9971712131,FEMA4ImagesEEG,001,201056,
AFNE01.JPG,AFNE01.JPG,AFNE01.JPG,AFNE01.JPG,AFNE01.JPG,AFNE01.JPG,,,,,,,,,,,,,,,,,,,,,1,9,19,9,,,AMSA08.jpg,AMSA01.jpg,AMNE18.jpg,AMNE02.jpg,AMSA01.jpg,MS,2,num_6,32,num_8,0.816774964565,,,2017_Jul_28_1317,59.9971712131,FEMA4ImagesEEG,001,201056,
AFNE01.JPG,AFNE01.JPG,AFNE01.JPG,AFNE01.JPG,AFNE01.JPG,AFNE01.JPG,,,,,,,,,,,,,,,,,,,,,2,0,20,6,,,AMSA12.jpg,AMNE08.jpg,AMNE14.jpg,AMSA05.jpg,AMSA05.jpg,MS,2,num_4,32,num_8,1.65010589233,,,2017_Jul_28_1317,59.9971712131,FEMA4ImagesEEG,001,201056,
AFNE01.JPG,AFNE01.JPG,AFNE01.JPG,AFNE01.JPG,AFNE01.JPG,AFNE01.JPG,,,,,,,,,,,,,,,,,,,,,2,1,21,8,,,AMNE16.jpg,AMSA09.jpg,AMSA19.jpg,AMNE06.jpg,AMNE06.jpg,MN,1,num_4,16,num_4,0.783472197712,,,2017_Jul_28_1317,59.9971712131,FEMA4ImagesEEG,001,201056,
AFNE01.JPG,AFNE01.JPG,AFNE01.JPG,AFNE01.JPG,AFNE01.JPG,AFNE01.JPG,,,,,,,,,,,,,,,,,,,,,2,2,22,7,,,AMSA02.jpg,AMNE19.jpg,AMNE14.jpg,AMSA16.jpg,AMNE14.jpg,MN,1,num_2,32,num_8,1.13342596299,,,2017_Jul_28_1317,59.9971712131,FEMA4ImagesEEG,001,201056,
AFNE01.JPG,AFNE01.JPG,AFNE01.JPG,AFNE01.JPG,AFNE01.JPG,AFNE01.JPG,,,,,,,,,,,,,,,,,,,,,2,3,23,5,,,AMSA20.jpg,AMNE10.jpg,AMSA01.jpg,AMNE14.jpg,AMSA20.jpg,MS,2,num_8,32,num_6,1.40005337121,,,2017_Jul_28_1317,59.9971712131,FEMA4ImagesEEG,001,201056,
AFNE01.JPG,AFNE01.JPG,AFNE01.JPG,AFNE01.JPG,AFNE01.JPG,AFNE01.JPG,,,,,,,,,,,,,,,,,,,,,2,4,24,0,,,AMNE13.jpg,AMSA10.jpg,AMSA19.jpg,AMNE18.jpg,AMNE18.jpg,MN,1,num_4,16,num_4,0.883488266845,,,2017_Jul_28_1317,59.9971712131,FEMA4ImagesEEG,001,201056,
AFNE01.JPG,AFNE01.JPG,AFNE01.JPG,AFNE01.JPG,AFNE01.JPG,AFNE01.JPG,,,,,,,,,,,,,,,,,,,,,2,5,25,9,,,AMNE04.jpg,AMNE05.jpg,AMSA18.jpg,AMSA02.jpg,AMSA18.jpg,MS,2,num_2,32,num_4,0.733467210317,,,2017_Jul_28_1317,59.9971712131,FEMA4ImagesEEG,001,201056,
AFNE01.JPG,AFNE01.JPG,AFNE01.JPG,AFNE01.JPG,AFNE01.JPG,AFNE01.JPG,,,,,,,,,,,,,,,,,,,,,2,6,26,4,,,AMNE08.jpg,AMSA10.jpg,AMSA08.jpg,AMNE04.jpg,AMNE08.jpg,MN,1,num_8,32,num_4,3.33356330404,,,2017_Jul_28_1317,59.9971712131,FEMA4ImagesEEG,001,201056,
AFNE01.JPG,AFNE01.JPG,AFNE01.JPG,AFNE01.JPG,AFNE01.JPG,AFNE01.JPG,,,,,,,,,,,,,,,,,,,,,2,7,27,3,,,AMNE05.jpg,AMSA20.jpg,AMNE12.jpg,AMSA18.jpg,AMNE12.jpg,MN,1,num_2,16,num_2,1.15011599567,,,2017_Jul_28_1317,59.9971712131,FEMA4ImagesEEG,001,201056,
AFNE01.JPG,AFNE01.JPG,AFNE01.JPG,AFNE01.JPG,AFNE01.JPG,AFNE01.JPG,,,,,,,,,,,,,,,,,,,,,2,8,28,2,,,AMNE02.jpg,AMNE11.jpg,AMSA18.jpg,AMSA16.jpg,AMSA16.jpg,MS,2,num_4,32,num_8,0.750101754908,,,2017_Jul_28_1317,59.9971712131,FEMA4ImagesEEG,001,201056,
AFNE01.JPG,AFNE01.JPG,AFNE01.JPG,AFNE01.JPG,AFNE01.JPG,AFNE01.JPG,,,,,,,,,,,,,,,,,,,,,2,9,29,1,,,AMNE19.jpg,AMSA02.jpg,AMSA07.jpg,AMNE01.jpg,AMNE19.jpg,MN,1,num_8,32,num_6,1.00010776869,,,2017_Jul_28_1317,59.9971712131,FEMA4ImagesEEG,001,201056,
AFNE01.JPG,AFNE01.JPG,AFNE01.JPG,AFNE01.JPG,AFNE01.JPG,AFNE01.JPG,,,,,,,,,,,,,,,,,,,,,3,0,30,2,,,AMSA02.jpg,AMSA15.jpg,AMNE05.jpg,AMNE11.jpg,AMNE11.jpg,MN,1,num_4,16,num_4,1.00012573018,,,2017_Jul_28_1317,59.9971712131,FEMA4ImagesEEG,001,201056,
AFNE01.JPG,AFNE01.JPG,AFNE01.JPG,AFNE01.JPG,AFNE01.JPG,AFNE01.JPG,,,,,,,,,,,,,,,,,,,,,3,1,31,3,,,AMNE08.jpg,AMSA19.jpg,AMNE07.jpg,AMSA02.jpg,AMSA19.jpg,MS,2,num_6,16,num_6,0.833465959411,,,2017_Jul_28_1317,59.9971712131,FEMA4ImagesEEG,001,201056,
AFNE01.JPG,AFNE01.JPG,AFNE01.JPG,AFNE01.JPG,AFNE01.JPG,AFNE01.JPG,,,,,,,,,,,,,,,,,,,,,3,2,32,8,,,AMSA12.jpg,AMSA17.jpg,AMNE01.jpg,AMNE07.jpg,AMSA12.jpg,MS,2,num_8,32,num_6,2.58328674582,,,2017_Jul_28_1317,59.9971712131,FEMA4ImagesEEG,001,201056,
AFNE01.JPG,AFNE01.JPG,AFNE01.JPG,AFNE01.JPG,AFNE01.JPG,AFNE01.JPG,,,,,,,,,,,,,,,,,,,,,3,3,33,6,,,AMNE19.jpg,AMSA17.jpg,AMSA11.jpg,AMNE01.jpg,AMSA17.jpg,MS,2,num_6,16,num_6,0.850188065902,,,2017_Jul_28_1317,59.9971712131,FEMA4ImagesEEG,001,201056,
AFNE01.JPG,AFNE01.JPG,AFNE01.JPG,AFNE01.JPG,AFNE01.JPG,AFNE01.JPG,,,,,,,,,,,,,,,,,,,,,3,4,34,0,,,AMSA20.jpg,AMNE17.jpg,AMSA10.jpg,AMNE14.jpg,AMNE17.jpg,MN,1,num_6,32,num_2,1.51640762086,,,2017_Jul_28_1317,59.9971712131,FEMA4ImagesEEG,001,201056,
AFNE01.JPG,AFNE01.JPG,AFNE01.JPG,AFNE01.JPG,AFNE01.JPG,AFNE01.JPG,,,,,,,,,,,,,,,,,,,,,3,5,35,9,,,AMSA06.jpg,AMNE17.jpg,AMSA12.jpg,AMNE05.jpg,AMSA12.jpg,MS,2,num_2,32,num_6,3.71656965872,,,2017_Jul_28_1317,59.9971712131,FEMA4ImagesEEG,001,201056,
AFNE01.JPG,AFNE01.JPG,AFNE01.JPG,AFNE01.JPG,AFNE01.JPG,AFNE01.JPG,,,,,,,,,,,,,,,,,,,,,3,6,36,5,,,AMSA20.jpg,AMNE03.jpg,AMSA07.jpg,AMNE04.jpg,AMNE04.jpg,MN,1,num_4,16,num_4,0.900137565448,,,2017_Jul_28_1317,59.9971712131,FEMA4ImagesEEG,001,201056,
AFNE01.JPG,AFNE01.JPG,AFNE01.JPG,AFNE01.JPG,AFNE01.JPG,AFNE01.JPG,,,,,,,,,,,,,,,,,,,,,3,7,37,7,,,AMSA08.jpg,AMNE15.jpg,AMNE02.jpg,AMSA12.jpg,AMSA12.jpg,MS,2,num_4,32,num_8,0.800154211815,,,2017_Jul_28_1317,59.9971712131,FEMA4ImagesEEG,001,201056,
AFNE01.JPG,AFNE01.JPG,AFNE01.JPG,AFNE01.JPG,AFNE01.JPG,AFNE01.JPG,,,,,,,,,,,,,,,,,,,,,3,8,38,1,,,AMNE18.jpg,AMSA13.jpg,AMNE20.jpg,AMSA08.jpg,AMNE18.jpg,MN,1,num_8,16,num_8,0.416824230226,,,2017_Jul_28_1317,59.9971712131,FEMA4ImagesEEG,001,201056,
