IPosition2,IPosition3,IPosition1,IPosition6,IPosition4,IPosition5,TrialsF1.thisRepN,TrialsF1.thisTrialN,TrialsF1.thisN,TrialsF1.thisIndex,TrialsM1.thisRepN,TrialsM1.thisTrialN,TrialsM1.thisN,TrialsM1.thisIndex,TrialsF2.thisRepN,TrialsF2.thisTrialN,TrialsF2.thisN,TrialsF2.thisIndex,TrialsM2.thisRepN,TrialsM2.thisTrialN,TrialsM2.thisN,TrialsM2.thisIndex,TrialsF3.thisRepN,TrialsF3.thisTrialN,TrialsF3.thisN,TrialsF3.thisIndex,TrialsM3.thisRepN,TrialsM3.thisTrialN,TrialsM3.thisN,TrialsM3.thisIndex,InstrKey_resp.keys,InstrKey_resp.rt,Image0 _Position,Image1 _Position,Image2 _Position,Image3 _Position,Center_image,condition,code,correct_answer,accuracy,Key_Resp.keys,Key_Resp.rt,BreakKey_resp.keys,BreakKey_resp.rt,date,frameRate,expName,session,participant,
,,,,,,,,,,,,,,,,,,,,,,,,,,,,,,space,16.8826104011,,,,,,,,,,,,,,2017_Jul_31_1424,60.012646235,FEMA4ImagesEEG,001,201038,
AMSA21.JPG,AMNE22.JPG,AMNE21.JPG,AMSA23.JPG,AMSA22.JPG,AMNE23.JPG,0,0,0,1,,,,,,,,,,,,,,,,,,,,,,,AFNE14.jpg,AFSA16.jpg,AFSA02.jpg,AFNE09.jpg,AFSA16.jpg,FS,4,num_6,32,num_2,0.583481435198,,,2017_Jul_31_1424,60.012646235,FEMA4ImagesEEG,001,201038,
AFSA21.JPG,AFNE23.JPG,AFNE21.JPG,AFSA25.JPG,AFNE25.JPG,AFSA23.JPG,0,1,1,4,,,,,,,,,,,,,,,,,,,,,,,AFNE09.jpg,AFSA05.jpg,AFSA08.jpg,AFNE11.jpg,AFNE11.jpg,FN,3,num_4,32,num_6,0.883450419642,,,2017_Jul_31_1424,60.012646235,FEMA4ImagesEEG,001,201038,
AMNE23.JPG,AMNE24.JPG,AMNE22.JPG,AMSA24.JPG,AMSA22.JPG,AMSA23.JPG,0,2,2,9,,,,,,,,,,,,,,,,,,,,,,,AFNE14.jpg,AFNE19.jpg,AFSA16.jpg,AFSA07.jpg,AFNE14.jpg,FN,3,num_8,16,num_8,0.533503068844,,,2017_Jul_31_1424,60.012646235,FEMA4ImagesEEG,001,201038,
AFNE23.JPG,AFNE24.JPG,AFNE22.JPG,AFSA24.JPG,AFSA22.JPG,AFSA23.JPG,0,3,3,8,,,,,,,,,,,,,,,,,,,,,,,AFSA17.jpg,AFSA11.jpg,AFNE17.jpg,AFNE05.jpg,AFNE17.jpg,FN,3,num_2,32,num_4,0.866776423994,,,2017_Jul_31_1424,60.012646235,FEMA4ImagesEEG,001,201038,
AMNE22.JPG,AMSA24.JPG,AMSA22.JPG,AMNE25.JPG,AMNE24.JPG,AMSA25.JPG,0,4,4,7,,,,,,,,,,,,,,,,,,,,,,,AFNE17.jpg,AFSA11.jpg,AFNE11.jpg,AFSA15.jpg,AFSA15.jpg,FS,4,num_4,32,num_6,0.783507158514,,,2017_Jul_31_1424,60.012646235,FEMA4ImagesEEG,001,201038,
AFSA25.JPG,AFNE24.JPG,AFSA24.JPG,AFNE21.JPG,AFSA21.JPG,AFNE25.JPG,0,5,5,2,,,,,,,,,,,,,,,,,,,,,,,AFNE20.jpg,AFSA12.jpg,AFSA13.jpg,AFNE17.jpg,AFSA12.jpg,FS,4,num_6,16,num_6,0.933476575883,,,2017_Jul_31_1424,60.012646235,FEMA4ImagesEEG,001,201038,
AMSA25.JPG,AMNE24.JPG,AMSA24.JPG,AMNE26.JPG,AMSA21.JPG,AMNE25.JPG,0,6,6,3,,,,,,,,,,,,,,,,,,,,,,,AFNE14.jpg,AFNE12.jpg,AFSA03.jpg,AFSA06.jpg,AFSA06.jpg,FS,4,num_4,16,num_4,0.866745312233,,,2017_Jul_31_1424,60.012646235,FEMA4ImagesEEG,001,201038,
AMSA21.JPG,AMNE23.JPG,AMNE21.JPG,AMSA25.JPG,AMNE25.JPG,AMSA23.JPG,0,7,7,5,,,,,,,,,,,,,,,,,,,,,,,AFNE02.jpg,AFSA03.jpg,AFSA01.jpg,AFNE10.jpg,AFSA03.jpg,FS,4,num_6,32,num_2,1.45010935632,,,2017_Jul_31_1424,60.012646235,FEMA4ImagesEEG,001,201038,
AFSA21.JPG,AFNE22.JPG,AFNE21.JPG,AFSA23.JPG,AFSA22.JPG,AFNE23.JPG,0,8,8,0,,,,,,,,,,,,,,,,,,,,,,,AFSA05.jpg,AFNE06.jpg,AFSA02.jpg,AFNE11.jpg,AFSA02.jpg,FS,4,num_2,32,num_8,1.03346409905,,,2017_Jul_31_1424,60.012646235,FEMA4ImagesEEG,001,201038,
AFNE22.JPG,AFSA24.JPG,AFSA22.JPG,AFNE25.JPG,AFNE24.JPG,AFSA25.JPG,0,9,9,6,,,,,,,,,,,,,,,,,,,,,,,AFSA16.jpg,AFNE16.jpg,AFNE09.jpg,AFSA03.jpg,AFNE16.jpg,FN,3,num_6,16,num_6,0.966748230858,,,2017_Jul_31_1424,60.012646235,FEMA4ImagesEEG,001,201038,
AFSA21.JPG,AFNE23.JPG,AFNE21.JPG,AFSA25.JPG,AFNE25.JPG,AFSA23.JPG,,,,,0,0,0,4,,,,,,,,,,,,,,,,,,,AMNE16.jpg,AMSA07.jpg,AMSA11.jpg,AMNE05.jpg,AMSA11.jpg,MS,2,num_2,16,num_2,0.700241741724,,,2017_Jul_31_1424,60.012646235,FEMA4ImagesEEG,001,201038,
AFNE23.JPG,AFNE24.JPG,AFNE22.JPG,AFSA24.JPG,AFSA22.JPG,AFSA23.JPG,,,,,0,1,1,8,,,,,,,,,,,,,,,,,,,AMNE09.jpg,AMSA13.jpg,AMNE05.jpg,AMSA08.jpg,AMNE09.jpg,MN,1,num_8,16,num_8,0.933419804787,,,2017_Jul_31_1424,60.012646235,FEMA4ImagesEEG,001,201038,
AMNE22.JPG,AMSA24.JPG,AMSA22.JPG,AMNE25.JPG,AMNE24.JPG,AMSA25.JPG,,,,,0,2,2,7,,,,,,,,,,,,,,,,,,,AMSA20.jpg,AMNE16.jpg,AMNE17.jpg,AMSA12.jpg,AMNE17.jpg,MN,1,num_2,32,num_6,1.13350294065,,,2017_Jul_31_1424,60.012646235,FEMA4ImagesEEG,001,201038,
AFSA25.JPG,AFNE24.JPG,AFSA24.JPG,AFNE21.JPG,AFSA21.JPG,AFNE25.JPG,,,,,0,3,3,2,,,,,,,,,,,,,,,,,,,AMNE04.jpg,AMSA19.jpg,AMSA09.jpg,AMNE11.jpg,AMNE11.jpg,MN,1,num_4,16,num_4,0.950154741062,,,2017_Jul_31_1424,60.012646235,FEMA4ImagesEEG,001,201038,
AFSA21.JPG,AFNE22.JPG,AFNE21.JPG,AFSA23.JPG,AFSA22.JPG,AFNE23.JPG,,,,,0,4,4,0,,,,,,,,,,,,,,,,,,,AMNE03.jpg,AMSA01.jpg,AMNE15.jpg,AMSA07.jpg,AMSA01.jpg,MS,2,num_6,16,num_6,1.16683136672,,,2017_Jul_31_1424,60.012646235,FEMA4ImagesEEG,001,201038,
AFNE22.JPG,AFSA24.JPG,AFSA22.JPG,AFNE25.JPG,AFNE24.JPG,AFSA25.JPG,,,,,0,5,5,6,,,,,,,,,,,,,,,,,,,AMSA09.jpg,AMNE05.jpg,AMSA07.jpg,AMNE11.jpg,AMSA09.jpg,MS,2,num_8,32,num_2,1.05009832303,,,2017_Jul_31_1424,60.012646235,FEMA4ImagesEEG,001,201038,
AMSA21.JPG,AMNE22.JPG,AMNE21.JPG,AMSA23.JPG,AMSA22.JPG,AMNE23.JPG,,,,,0,6,6,1,,,,,,,,,,,,,,,,,,,AMSA06.jpg,AMNE17.jpg,AMNE07.jpg,AMSA02.jpg,AMNE07.jpg,MN,1,num_2,16,num_2,0.883472871268,,,2017_Jul_31_1424,60.012646235,FEMA4ImagesEEG,001,201038,
AMNE23.JPG,AMNE24.JPG,AMNE22.JPG,AMSA24.JPG,AMSA22.JPG,AMSA23.JPG,,,,,0,7,7,9,,,,,,,,,,,,,,,,,,,AMNE01.jpg,AMNE07.jpg,AMSA16.jpg,AMSA05.jpg,AMNE01.jpg,MN,1,num_8,16,num_8,0.566765743308,,,2017_Jul_31_1424,60.012646235,FEMA4ImagesEEG,001,201038,
AMSA21.JPG,AMNE23.JPG,AMNE21.JPG,AMSA25.JPG,AMNE25.JPG,AMSA23.JPG,,,,,0,8,8,5,,,,,,,,,,,,,,,,,,,AMSA20.jpg,AMNE06.jpg,AMSA16.jpg,AMNE01.jpg,AMSA20.jpg,MS,2,num_8,32,num_6,1.18344217655,,,2017_Jul_31_1424,60.012646235,FEMA4ImagesEEG,001,201038,
AMSA25.JPG,AMNE24.JPG,AMSA24.JPG,AMNE26.JPG,AMSA21.JPG,AMNE25.JPG,,,,,0,9,9,3,,,,,,,,,,,,,,,,,,,AMNE16.jpg,AMSA08.jpg,AMNE06.jpg,AMSA09.jpg,AMNE06.jpg,MN,1,num_2,16,num_2,0.616805691272,,,2017_Jul_31_1424,60.012646235,FEMA4ImagesEEG,001,201038,
AMNE22.JPG,AMSA24.JPG,AMSA22.JPG,AMNE25.JPG,AMNE24.JPG,AMSA25.JPG,,,,,,,,,0,0,0,7,,,,,,,,,,,,,,,AFNE07.jpg,AFNE20.jpg,AFSA06.jpg,AFSA11.jpg,AFNE07.jpg,FN,3,num_8,16,num_8,1.03339385707,,,2017_Jul_31_1424,60.012646235,FEMA4ImagesEEG,001,201038,
AMSA21.JPG,AMNE22.JPG,AMNE21.JPG,AMSA23.JPG,AMSA22.JPG,AMNE23.JPG,,,,,,,,,0,1,1,1,,,,,,,,,,,,,,,AFSA18.jpg,AFNE11.jpg,AFSA11.jpg,AFNE09.jpg,AFNE09.jpg,FN,3,num_4,32,num_6,0.983553729719,,,2017_Jul_31_1424,60.012646235,FEMA4ImagesEEG,001,201038,
AMSA21.JPG,AMNE23.JPG,AMNE21.JPG,AMSA25.JPG,AMNE25.JPG,AMSA23.JPG,,,,,,,,,0,2,2,5,,,,,,,,,,,,,,,AFNE06.jpg,AFSA20.jpg,AFNE07.jpg,AFSA07.jpg,AFSA20.jpg,FS,4,num_6,32,num_4,0.86673921789,,,2017_Jul_31_1424,60.012646235,FEMA4ImagesEEG,001,201038,
AFSA21.JPG,AFNE22.JPG,AFNE21.JPG,AFSA23.JPG,AFSA22.JPG,AFNE23.JPG,,,,,,,,,0,3,3,0,,,,,,,,,,,,,,,AFNE20.jpg,AFSA17.jpg,AFNE13.jpg,AFSA18.jpg,AFNE20.jpg,FN,3,num_8,16,num_8,0.683499749284,,,2017_Jul_31_1424,60.012646235,FEMA4ImagesEEG,001,201038,
AFSA25.JPG,AFNE24.JPG,AFSA24.JPG,AFNE21.JPG,AFSA21.JPG,AFNE25.JPG,,,,,,,,,0,4,4,2,,,,,,,,,,,,,,,AFSA11.jpg,AFNE02.jpg,AFNE05.jpg,AFSA15.jpg,AFSA15.jpg,FS,4,num_4,32,num_2,2.03333227476,,,2017_Jul_31_1424,60.012646235,FEMA4ImagesEEG,001,201038,
AFNE23.JPG,AFNE24.JPG,AFNE22.JPG,AFSA24.JPG,AFSA22.JPG,AFSA23.JPG,,,,,,,,,0,5,5,8,,,,,,,,,,,,,,,AFNE07.jpg,AFSA11.jpg,AFNE04.jpg,AFSA20.jpg,AFNE04.jpg,FN,3,num_2,16,num_2,0.55023736367,,,2017_Jul_31_1424,60.012646235,FEMA4ImagesEEG,001,201038,
AMNE23.JPG,AMNE24.JPG,AMNE22.JPG,AMSA24.JPG,AMSA22.JPG,AMSA23.JPG,,,,,,,,,0,6,6,9,,,,,,,,,,,,,,,AFSA03.jpg,AFSA16.jpg,AFNE15.jpg,AFNE18.jpg,AFSA03.jpg,FS,4,num_8,32,num_6,0.950086102821,,,2017_Jul_31_1424,60.012646235,FEMA4ImagesEEG,001,201038,
AFNE22.JPG,AFSA24.JPG,AFSA22.JPG,AFNE25.JPG,AFNE24.JPG,AFSA25.JPG,,,,,,,,,0,7,7,6,,,,,,,,,,,,,,,AFSA07.jpg,AFNE13.jpg,AFNE09.jpg,AFSA13.jpg,AFSA13.jpg,FS,4,num_4,32,num_6,1.10006834962,,,2017_Jul_31_1424,60.012646235,FEMA4ImagesEEG,001,201038,
AMSA25.JPG,AMNE24.JPG,AMSA24.JPG,AMNE26.JPG,AMSA21.JPG,AMNE25.JPG,,,,,,,,,0,8,8,3,,,,,,,,,,,,,,,AFNE06.jpg,AFSA13.jpg,AFSA06.jpg,AFNE12.jpg,AFNE12.jpg,FN,3,num_4,32,num_8,0.81680479343,,,2017_Jul_31_1424,60.012646235,FEMA4ImagesEEG,001,201038,
AFSA21.JPG,AFNE23.JPG,AFNE21.JPG,AFSA25.JPG,AFNE25.JPG,AFSA23.JPG,,,,,,,,,0,9,9,4,,,,,,,,,,,,,,,AFSA20.jpg,AFSA06.jpg,AFNE10.jpg,AFNE09.jpg,AFNE09.jpg,FN,3,num_4,16,num_4,1.23339135526,,,2017_Jul_31_1424,60.012646235,FEMA4ImagesEEG,001,201038,
AFNE23.JPG,AFNE24.JPG,AFNE22.JPG,AFSA24.JPG,AFSA22.JPG,AFSA23.JPG,,,,,,,,,,,,,0,0,0,8,,,,,,,,,,,AMSA17.jpg,AMNE03.jpg,AMNE17.jpg,AMSA02.jpg,AMNE17.jpg,MN,1,num_2,32,num_8,0.716803799151,,,2017_Jul_31_1424,60.012646235,FEMA4ImagesEEG,001,201038,
AFSA21.JPG,AFNE23.JPG,AFNE21.JPG,AFSA25.JPG,AFNE25.JPG,AFSA23.JPG,,,,,,,,,,,,,0,1,1,4,,,,,,,,,,,AMSA04.jpg,AMNE20.jpg,AMSA07.jpg,AMNE08.jpg,AMNE08.jpg,MN,1,num_4,16,num_4,0.96675785305,,,2017_Jul_31_1424,60.012646235,FEMA4ImagesEEG,001,201038,
AFSA25.JPG,AFNE24.JPG,AFSA24.JPG,AFNE21.JPG,AFSA21.JPG,AFNE25.JPG,,,,,,,,,,,,,0,2,2,2,,,,,,,,,,,AMNE06.jpg,AMSA16.jpg,AMNE03.jpg,AMSA17.jpg,AMSA17.jpg,MS,2,num_4,32,num_8,2.20001193159,,,2017_Jul_31_1424,60.012646235,FEMA4ImagesEEG,001,201038,
AMNE23.JPG,AMNE24.JPG,AMNE22.JPG,AMSA24.JPG,AMSA22.JPG,AMSA23.JPG,,,,,,,,,,,,,0,3,3,9,,,,,,,,,,,AMSA07.jpg,AMNE12.jpg,AMSA08.jpg,AMNE01.jpg,AMSA07.jpg,MS,2,num_8,32,num_2,1.35013177618,,,2017_Jul_31_1424,60.012646235,FEMA4ImagesEEG,001,201038,
AFSA21.JPG,AFNE22.JPG,AFNE21.JPG,AFSA23.JPG,AFSA22.JPG,AFNE23.JPG,,,,,,,,,,,,,0,4,4,0,,,,,,,,,,,AMNE18.jpg,AMSA06.jpg,AMSA09.jpg,AMNE20.jpg,AMNE18.jpg,MN,1,num_8,16,num_8,0.816739362432,,,2017_Jul_31_1424,60.012646235,FEMA4ImagesEEG,001,201038,
AMNE22.JPG,AMSA24.JPG,AMSA22.JPG,AMNE25.JPG,AMNE24.JPG,AMSA25.JPG,,,,,,,,,,,,,0,5,5,7,,,,,,,,,,,AMNE01.jpg,AMSA17.jpg,AMSA15.jpg,AMNE12.jpg,AMSA15.jpg,MS,2,num_2,32,num_8,2.11675870325,,,2017_Jul_31_1424,60.012646235,FEMA4ImagesEEG,001,201038,
AMSA25.JPG,AMNE24.JPG,AMSA24.JPG,AMNE26.JPG,AMSA21.JPG,AMNE25.JPG,,,,,,,,,,,,,0,6,6,3,,,,,,,,,,,AMNE03.jpg,AMSA06.jpg,AMSA08.jpg,AMNE16.jpg,AMNE16.jpg,MN,1,num_4,32,num_6,1.20011553052,,,2017_Jul_31_1424,60.012646235,FEMA4ImagesEEG,001,201038,
AMSA21.JPG,AMNE22.JPG,AMNE21.JPG,AMSA23.JPG,AMSA22.JPG,AMNE23.JPG,,,,,,,,,,,,,0,7,7,1,,,,,,,,,,,AMNE05.jpg,AMNE04.jpg,AMSA17.jpg,AMSA02.jpg,AMSA02.jpg,MS,2,num_4,32,num_6,2.46654824936,,,2017_Jul_31_1424,60.012646235,FEMA4ImagesEEG,001,201038,
AMSA21.JPG,AMNE23.JPG,AMNE21.JPG,AMSA25.JPG,AMNE25.JPG,AMSA23.JPG,,,,,,,,,,,,,0,8,8,5,,,,,,,,,,,AMSA06.jpg,AMNE03.jpg,AMNE06.jpg,AMSA10.jpg,AMSA06.jpg,MS,2,num_8,32,num_2,0.766767090419,,,2017_Jul_31_1424,60.012646235,FEMA4ImagesEEG,001,201038,
AFNE22.JPG,AFSA24.JPG,AFSA22.JPG,AFNE25.JPG,AFNE24.JPG,AFSA25.JPG,,,,,,,,,,,,,0,9,9,6,,,,,,,,,,,AMNE14.jpg,AMNE15.jpg,AMSA01.jpg,AMSA20.jpg,AMSA01.jpg,MS,2,num_2,32,num_8,1.4500859424,,,2017_Jul_31_1424,60.012646235,FEMA4ImagesEEG,001,201038,
AMNE22.JPG,AMSA24.JPG,AMSA22.JPG,AMNE25.JPG,AMNE24.JPG,AMSA25.JPG,,,,,,,,,,,,,,,,,0,0,0,7,,,,,,,AFSA16.jpg,AFNE11.jpg,AFNE04.jpg,AFSA13.jpg,AFNE04.jpg,FN,3,num_2,32,num_6,2.79996048496,,,2017_Jul_31_1424,60.012646235,FEMA4ImagesEEG,001,201038,
AFNE22.JPG,AFSA24.JPG,AFSA22.JPG,AFNE25.JPG,AFNE24.JPG,AFSA25.JPG,,,,,,,,,,,,,,,,,0,1,1,6,,,,,,,AFNE11.jpg,AFSA08.jpg,AFNE14.jpg,AFSA14.jpg,AFSA14.jpg,FS,4,num_4,32,num_2,2.43340553204,,,2017_Jul_31_1424,60.012646235,FEMA4ImagesEEG,001,201038,
AFSA21.JPG,AFNE23.JPG,AFNE21.JPG,AFSA25.JPG,AFNE25.JPG,AFSA23.JPG,,,,,,,,,,,,,,,,,0,2,2,4,,,,,,,AFNE05.jpg,AFSA01.jpg,AFNE18.jpg,AFSA04.jpg,AFSA01.jpg,FS,4,num_6,32,num_8,2.15002298099,,,2017_Jul_31_1424,60.012646235,FEMA4ImagesEEG,001,201038,
AMSA25.JPG,AMNE24.JPG,AMSA24.JPG,AMNE26.JPG,AMSA21.JPG,AMNE25.JPG,,,,,,,,,,,,,,,,,0,3,3,3,,,,,,,AFSA02.jpg,AFSA04.jpg,AFNE12.jpg,AFNE02.jpg,AFSA02.jpg,FS,4,num_8,16,num_8,0.866855967557,,,2017_Jul_31_1424,60.012646235,FEMA4ImagesEEG,001,201038,
AMSA21.JPG,AMNE22.JPG,AMNE21.JPG,AMSA23.JPG,AMSA22.JPG,AMNE23.JPG,,,,,,,,,,,,,,,,,0,4,4,1,,,,,,,AFSA14.jpg,AFSA13.jpg,AFNE09.jpg,AFNE14.jpg,AFSA14.jpg,FS,4,num_8,32,num_4,1.21674173581,,,2017_Jul_31_1424,60.012646235,FEMA4ImagesEEG,001,201038,
AMNE23.JPG,AMNE24.JPG,AMNE22.JPG,AMSA24.JPG,AMSA22.JPG,AMSA23.JPG,,,,,,,,,,,,,,,,,0,5,5,9,,,,,,,AFNE03.jpg,AFSA10.jpg,AFNE18.jpg,AFSA11.jpg,AFSA11.jpg,FS,4,num_4,32,num_6,0.950109195895,,,2017_Jul_31_1424,60.012646235,FEMA4ImagesEEG,001,201038,
AMSA21.JPG,AMNE23.JPG,AMNE21.JPG,AMSA25.JPG,AMNE25.JPG,AMSA23.JPG,,,,,,,,,,,,,,,,,0,6,6,5,,,,,,,AFNE01.jpg,AFNE16.jpg,AFSA20.jpg,AFSA05.jpg,AFNE01.jpg,FN,3,num_8,16,num_8,0.783426011214,,,2017_Jul_31_1424,60.012646235,FEMA4ImagesEEG,001,201038,
AFSA25.JPG,AFNE24.JPG,AFSA24.JPG,AFNE21.JPG,AFSA21.JPG,AFNE25.JPG,,,,,,,,,,,,,,,,,0,7,7,2,,,,,,,AFSA17.jpg,AFNE01.jpg,AFSA18.jpg,AFNE20.jpg,AFNE20.jpg,FN,3,num_4,32,num_6,2.16661871597,,,2017_Jul_31_1424,60.012646235,FEMA4ImagesEEG,001,201038,
AFNE23.JPG,AFNE24.JPG,AFNE22.JPG,AFSA24.JPG,AFSA22.JPG,AFSA23.JPG,,,,,,,,,,,,,,,,,0,8,8,8,,,,,,,AFNE10.jpg,AFNE01.jpg,AFSA11.jpg,AFSA02.jpg,AFSA02.jpg,FS,4,num_4,32,num_8,1.86655639624,,,2017_Jul_31_1424,60.012646235,FEMA4ImagesEEG,001,201038,
AFSA21.JPG,AFNE22.JPG,AFNE21.JPG,AFSA23.JPG,AFSA22.JPG,AFNE23.JPG,,,,,,,,,,,,,,,,,0,9,9,0,,,,,,,AFSA20.jpg,AFNE09.jpg,AFNE17.jpg,AFSA03.jpg,AFNE17.jpg,FN,3,num_2,16,num_2,0.766592928674,,,2017_Jul_31_1424,60.012646235,FEMA4ImagesEEG,001,201038,
AMSA21.JPG,AMNE22.JPG,AMNE21.JPG,AMSA23.JPG,AMSA22.JPG,AMNE23.JPG,,,,,,,,,,,,,,,,,,,,,0,0,0,1,,,AMSA16.jpg,AMNE08.jpg,AMNE09.jpg,AMSA01.jpg,AMNE08.jpg,MN,1,num_6,16,num_6,1.03345319396,,,2017_Jul_31_1424,60.012646235,FEMA4ImagesEEG,001,201038,
AMSA25.JPG,AMNE24.JPG,AMSA24.JPG,AMNE26.JPG,AMSA21.JPG,AMNE25.JPG,,,,,,,,,,,,,,,,,,,,,0,1,1,3,,,AMNE05.jpg,AMSA11.jpg,AMNE13.jpg,AMSA06.jpg,AMNE05.jpg,MN,1,num_8,16,num_8,1.4000899354,,,2017_Jul_31_1424,60.012646235,FEMA4ImagesEEG,001,201038,
AFSA25.JPG,AFNE24.JPG,AFSA24.JPG,AFNE21.JPG,AFSA21.JPG,AFNE25.JPG,,,,,,,,,,,,,,,,,,,,,0,2,2,2,,,AMNE07.jpg,AMSA01.jpg,AMNE02.jpg,AMSA13.jpg,AMNE07.jpg,MN,1,num_8,32,num_2,1.08342386223,,,2017_Jul_31_1424,60.012646235,FEMA4ImagesEEG,001,201038,
AMNE23.JPG,AMNE24.JPG,AMNE22.JPG,AMSA24.JPG,AMSA22.JPG,AMSA23.JPG,,,,,,,,,,,,,,,,,,,,,0,3,3,9,,,AMNE03.jpg,AMSA04.jpg,AMSA05.jpg,AMNE18.jpg,AMNE03.jpg,MN,1,num_8,32,num_4,1.16674059746,,,2017_Jul_31_1424,60.012646235,FEMA4ImagesEEG,001,201038,
AMSA21.JPG,AMNE23.JPG,AMNE21.JPG,AMSA25.JPG,AMNE25.JPG,AMSA23.JPG,,,,,,,,,,,,,,,,,,,,,0,4,4,5,,,AMSA05.jpg,AMSA14.jpg,AMNE11.jpg,AMNE03.jpg,AMNE03.jpg,MN,1,num_4,16,num_4,0.883488587569,,,2017_Jul_31_1424,60.012646235,FEMA4ImagesEEG,001,201038,
AMNE22.JPG,AMSA24.JPG,AMSA22.JPG,AMNE25.JPG,AMNE24.JPG,AMSA25.JPG,,,,,,,,,,,,,,,,,,,,,0,5,5,7,,,AMSA20.jpg,AMNE20.jpg,AMNE16.jpg,AMSA02.jpg,AMNE20.jpg,MN,1,num_6,32,num_8,0.933433596743,,,2017_Jul_31_1424,60.012646235,FEMA4ImagesEEG,001,201038,
AFSA21.JPG,AFNE23.JPG,AFNE21.JPG,AFSA25.JPG,AFNE25.JPG,AFSA23.JPG,,,,,,,,,,,,,,,,,,,,,0,6,6,4,,,AMNE01.jpg,AMSA20.jpg,AMSA13.jpg,AMNE08.jpg,AMNE01.jpg,MN,1,num_8,32,num_2,1.30007771519,,,2017_Jul_31_1424,60.012646235,FEMA4ImagesEEG,001,201038,
AFNE22.JPG,AFSA24.JPG,AFSA22.JPG,AFNE25.JPG,AFNE24.JPG,AFSA25.JPG,,,,,,,,,,,,,,,,,,,,,0,7,7,6,,,AMNE16.jpg,AMNE08.jpg,AMSA12.jpg,AMSA20.jpg,AMNE16.jpg,MN,1,num_8,32,num_4,1.16673514456,,,2017_Jul_31_1424,60.012646235,FEMA4ImagesEEG,001,201038,
AFSA21.JPG,AFNE22.JPG,AFNE21.JPG,AFSA23.JPG,AFSA22.JPG,AFNE23.JPG,,,,,,,,,,,,,,,,,,,,,0,8,8,0,,,AMNE12.jpg,AMSA07.jpg,AMSA08.jpg,AMNE04.jpg,AMSA08.jpg,MS,2,num_2,32,num_4,0.883488587569,,,2017_Jul_31_1424,60.012646235,FEMA4ImagesEEG,001,201038,
AFNE23.JPG,AFNE24.JPG,AFNE22.JPG,AFSA24.JPG,AFSA22.JPG,AFSA23.JPG,,,,,,,,,,,,,,,,,,,,,0,9,9,8,,,AMSA17.jpg,AMSA05.jpg,AMNE05.jpg,AMNE18.jpg,AMSA05.jpg,MS,2,num_6,16,num_6,0.683421168011,,,2017_Jul_31_1424,60.012646235,FEMA4ImagesEEG,001,201038,
,,,,,,,,,,,,,,,,,,,,,,,,,,,,,,,,,,,,,,,,,,,space,15.9489705686,2017_Jul_31_1424,60.012646235,FEMA4ImagesEEG,001,201038,
AFNE01.JPG,AFNE01.JPG,AFNE01.JPG,AFNE01.JPG,AFNE01.JPG,AFNE01.JPG,0,0,0,3,,,,,,,,,,,,,,,,,,,,,,,AFSA20.jpg,AFSA06.jpg,AFNE20.jpg,AFNE03.jpg,AFNE20.jpg,FN,3,num_2,32,num_6,0.933440332301,,,2017_Jul_31_1424,60.012646235,FEMA4ImagesEEG,001,201038,
AFNE01.JPG,AFNE01.JPG,AFNE01.JPG,AFNE01.JPG,AFNE01.JPG,AFNE01.JPG,0,1,1,6,,,,,,,,,,,,,,,,,,,,,,,AFSA09.jpg,AFNE18.jpg,AFNE09.jpg,AFSA10.jpg,AFNE18.jpg,FN,3,num_6,32,num_2,0.783473801333,,,2017_Jul_31_1424,60.012646235,FEMA4ImagesEEG,001,201038,
AFNE01.JPG,AFNE01.JPG,AFNE01.JPG,AFNE01.JPG,AFNE01.JPG,AFNE01.JPG,0,2,2,7,,,,,,,,,,,,,,,,,,,,,,,AFNE17.jpg,AFSA12.jpg,AFNE16.jpg,AFSA18.jpg,AFNE16.jpg,FN,3,num_2,32,num_6,0.900140131358,,,2017_Jul_31_1424,60.012646235,FEMA4ImagesEEG,001,201038,
AFNE01.JPG,AFNE01.JPG,AFNE01.JPG,AFNE01.JPG,AFNE01.JPG,AFNE01.JPG,0,3,3,8,,,,,,,,,,,,,,,,,,,,,,,AFSA08.jpg,AFSA19.jpg,AFNE15.jpg,AFNE18.jpg,AFNE18.jpg,FN,3,num_4,32,num_8,0.883470305242,,,2017_Jul_31_1424,60.012646235,FEMA4ImagesEEG,001,201038,
AFNE01.JPG,AFNE01.JPG,AFNE01.JPG,AFNE01.JPG,AFNE01.JPG,AFNE01.JPG,0,4,4,4,,,,,,,,,,,,,,,,,,,,,,,AFNE18.jpg,AFSA18.jpg,AFSA09.jpg,AFNE06.jpg,AFSA18.jpg,FS,4,num_6,16,num_6,0.566846890608,,,2017_Jul_31_1424,60.012646235,FEMA4ImagesEEG,001,201038,
AFNE01.JPG,AFNE01.JPG,AFNE01.JPG,AFNE01.JPG,AFNE01.JPG,AFNE01.JPG,0,5,5,9,,,,,,,,,,,,,,,,,,,,,,,AFNE10.jpg,AFNE19.jpg,AFSA10.jpg,AFSA19.jpg,AFSA10.jpg,FS,4,num_2,16,num_2,0.583328121342,,,2017_Jul_31_1424,60.012646235,FEMA4ImagesEEG,001,201038,
AFNE01.JPG,AFNE01.JPG,AFNE01.JPG,AFNE01.JPG,AFNE01.JPG,AFNE01.JPG,0,6,6,0,,,,,,,,,,,,,,,,,,,,,,,AFSA14.jpg,AFSA11.jpg,AFNE06.jpg,AFNE07.jpg,AFNE06.jpg,FN,3,num_2,32,num_6,0.516792188166,,,2017_Jul_31_1424,60.012646235,FEMA4ImagesEEG,001,201038,
AFNE01.JPG,AFNE01.JPG,AFNE01.JPG,AFNE01.JPG,AFNE01.JPG,AFNE01.JPG,0,7,7,1,,,,,,,,,,,,,,,,,,,,,,,AFNE15.jpg,AFNE19.jpg,AFSA02.jpg,AFSA01.jpg,AFSA02.jpg,FS,4,num_2,32,num_8,0.900133075193,,,2017_Jul_31_1424,60.012646235,FEMA4ImagesEEG,001,201038,
AFNE01.JPG,AFNE01.JPG,AFNE01.JPG,AFNE01.JPG,AFNE01.JPG,AFNE01.JPG,0,8,8,2,,,,,,,,,,,,,,,,,,,,,,,AFNE09.jpg,AFSA20.jpg,AFSA03.jpg,AFNE03.jpg,AFNE03.jpg,FN,3,num_4,16,num_4,0.816780096618,,,2017_Jul_31_1424,60.012646235,FEMA4ImagesEEG,001,201038,
AFNE01.JPG,AFNE01.JPG,AFNE01.JPG,AFNE01.JPG,AFNE01.JPG,AFNE01.JPG,0,9,9,5,,,,,,,,,,,,,,,,,,,,,,,AFSA04.jpg,AFNE20.jpg,AFNE10.jpg,AFSA17.jpg,AFNE10.jpg,FN,3,num_2,32,num_8,0.883458117256,,,2017_Jul_31_1424,60.012646235,FEMA4ImagesEEG,001,201038,
AFNE01.JPG,AFNE01.JPG,AFNE01.JPG,AFNE01.JPG,AFNE01.JPG,AFNE01.JPG,1,0,10,3,,,,,,,,,,,,,,,,,,,,,,,AFSA12.jpg,AFNE04.jpg,AFNE06.jpg,AFSA16.jpg,AFNE06.jpg,FN,3,num_2,32,num_4,1.05010473775,,,2017_Jul_31_1424,60.012646235,FEMA4ImagesEEG,001,201038,
AFNE01.JPG,AFNE01.JPG,AFNE01.JPG,AFNE01.JPG,AFNE01.JPG,AFNE01.JPG,1,1,11,2,,,,,,,,,,,,,,,,,,,,,,,AFNE09.jpg,AFSA07.jpg,AFNE11.jpg,AFSA03.jpg,AFNE11.jpg,FN,3,num_2,32,num_8,0.883435665397,,,2017_Jul_31_1424,60.012646235,FEMA4ImagesEEG,001,201038,
AFNE01.JPG,AFNE01.JPG,AFNE01.JPG,AFNE01.JPG,AFNE01.JPG,AFNE01.JPG,1,2,12,1,,,,,,,,,,,,,,,,,,,,,,,AFNE03.jpg,AFSA03.jpg,AFNE12.jpg,AFSA07.jpg,AFSA03.jpg,FS,4,num_6,32,num_8,1.95011400711,,,2017_Jul_31_1424,60.012646235,FEMA4ImagesEEG,001,201038,
AFNE01.JPG,AFNE01.JPG,AFNE01.JPG,AFNE01.JPG,AFNE01.JPG,AFNE01.JPG,1,3,13,4,,,,,,,,,,,,,,,,,,,,,,,AFSA18.jpg,AFNE05.jpg,AFNE19.jpg,AFSA09.jpg,AFSA09.jpg,FS,4,num_4,32,num_2,1.06688906788,,,2017_Jul_31_1424,60.012646235,FEMA4ImagesEEG,001,201038,
AFNE01.JPG,AFNE01.JPG,AFNE01.JPG,AFNE01.JPG,AFNE01.JPG,AFNE01.JPG,1,4,14,9,,,,,,,,,,,,,,,,,,,,,,,AFNE17.jpg,AFNE05.jpg,AFSA03.jpg,AFSA08.jpg,AFNE17.jpg,FN,3,num_8,16,num_8,0.816752192099,,,2017_Jul_31_1424,60.012646235,FEMA4ImagesEEG,001,201038,
AFNE01.JPG,AFNE01.JPG,AFNE01.JPG,AFNE01.JPG,AFNE01.JPG,AFNE01.JPG,1,5,15,8,,,,,,,,,,,,,,,,,,,,,,,AFSA18.jpg,AFSA02.jpg,AFNE08.jpg,AFNE09.jpg,AFNE08.jpg,FN,3,num_2,32,num_4,0.616867915029,,,2017_Jul_31_1424,60.012646235,FEMA4ImagesEEG,001,201038,
AFNE01.JPG,AFNE01.JPG,AFNE01.JPG,AFNE01.JPG,AFNE01.JPG,AFNE01.JPG,1,6,16,7,,,,,,,,,,,,,,,,,,,,,,,AFNE02.jpg,AFSA12.jpg,AFSA13.jpg,AFNE11.jpg,AFNE11.jpg,FN,3,num_4,16,num_4,0.650145022431,,,2017_Jul_31_1424,60.012646235,FEMA4ImagesEEG,001,201038,
AFNE01.JPG,AFNE01.JPG,AFNE01.JPG,AFNE01.JPG,AFNE01.JPG,AFNE01.JPG,1,7,17,6,,,,,,,,,,,,,,,,,,,,,,,AFNE14.jpg,AFSA13.jpg,AFSA18.jpg,AFNE02.jpg,AFSA13.jpg,FS,4,num_6,16,num_6,0.616816917434,,,2017_Jul_31_1424,60.012646235,FEMA4ImagesEEG,001,201038,
AFNE01.JPG,AFNE01.JPG,AFNE01.JPG,AFNE01.JPG,AFNE01.JPG,AFNE01.JPG,1,8,18,5,,,,,,,,,,,,,,,,,,,,,,,AFNE04.jpg,AFSA01.jpg,AFSA05.jpg,AFNE16.jpg,AFSA05.jpg,FS,4,num_2,16,num_2,0.816885299282,,,2017_Jul_31_1424,60.012646235,FEMA4ImagesEEG,001,201038,
AFNE01.JPG,AFNE01.JPG,AFNE01.JPG,AFNE01.JPG,AFNE01.JPG,AFNE01.JPG,1,9,19,0,,,,,,,,,,,,,,,,,,,,,,,AFNE07.jpg,AFSA06.jpg,AFSA18.jpg,AFNE17.jpg,AFSA18.jpg,FS,4,num_2,16,num_2,1.0500813236,,,2017_Jul_31_1424,60.012646235,FEMA4ImagesEEG,001,201038,
AFNE01.JPG,AFNE01.JPG,AFNE01.JPG,AFNE01.JPG,AFNE01.JPG,AFNE01.JPG,2,0,20,0,,,,,,,,,,,,,,,,,,,,,,,AFNE02.jpg,AFSA11.jpg,AFNE14.jpg,AFSA15.jpg,AFSA11.jpg,FS,4,num_6,16,num_6,0.949879546184,,,2017_Jul_31_1424,60.012646235,FEMA4ImagesEEG,001,201038,
AFNE01.JPG,AFNE01.JPG,AFNE01.JPG,AFNE01.JPG,AFNE01.JPG,AFNE01.JPG,2,1,21,6,,,,,,,,,,,,,,,,,,,,,,,AFSA07.jpg,AFSA11.jpg,AFNE05.jpg,AFNE19.jpg,AFSA11.jpg,FS,4,num_6,16,num_6,0.683806376765,,,2017_Jul_31_1424,60.012646235,FEMA4ImagesEEG,001,201038,
AFNE01.JPG,AFNE01.JPG,AFNE01.JPG,AFNE01.JPG,AFNE01.JPG,AFNE01.JPG,2,2,22,3,,,,,,,,,,,,,,,,,,,,,,,AFNE13.jpg,AFSA04.jpg,AFSA17.jpg,AFNE14.jpg,AFSA17.jpg,FS,4,num_2,32,num_4,1.0667617342,,,2017_Jul_31_1424,60.012646235,FEMA4ImagesEEG,001,201038,
AFNE01.JPG,AFNE01.JPG,AFNE01.JPG,AFNE01.JPG,AFNE01.JPG,AFNE01.JPG,2,3,23,9,,,,,,,,,,,,,,,,,,,,,,,AFNE07.jpg,AFSA13.jpg,AFNE16.jpg,AFSA18.jpg,AFSA13.jpg,FS,4,num_6,32,num_8,1.10011581914,,,2017_Jul_31_1424,60.012646235,FEMA4ImagesEEG,001,201038,
AFNE01.JPG,AFNE01.JPG,AFNE01.JPG,AFNE01.JPG,AFNE01.JPG,AFNE01.JPG,2,4,24,7,,,,,,,,,,,,,,,,,,,,,,,AFNE07.jpg,AFSA01.jpg,AFNE20.jpg,AFSA08.jpg,AFNE07.jpg,FN,3,num_8,32,num_2,0.91676761955,,,2017_Jul_31_1424,60.012646235,FEMA4ImagesEEG,001,201038,
AFNE01.JPG,AFNE01.JPG,AFNE01.JPG,AFNE01.JPG,AFNE01.JPG,AFNE01.JPG,2,5,25,1,,,,,,,,,,,,,,,,,,,,,,,AFNE15.jpg,AFSA01.jpg,AFSA10.jpg,AFNE08.jpg,AFNE08.jpg,FN,3,num_4,32,num_8,1.0168927405,,,2017_Jul_31_1424,60.012646235,FEMA4ImagesEEG,001,201038,
AFNE01.JPG,AFNE01.JPG,AFNE01.JPG,AFNE01.JPG,AFNE01.JPG,AFNE01.JPG,2,6,26,8,,,,,,,,,,,,,,,,,,,,,,,AFSA15.jpg,AFNE18.jpg,AFSA03.jpg,AFNE08.jpg,AFSA03.jpg,FS,4,num_2,32,num_6,1.36669030529,,,2017_Jul_31_1424,60.012646235,FEMA4ImagesEEG,001,201038,
AFNE01.JPG,AFNE01.JPG,AFNE01.JPG,AFNE01.JPG,AFNE01.JPG,AFNE01.JPG,2,7,27,4,,,,,,,,,,,,,,,,,,,,,,,AFNE14.jpg,AFSA02.jpg,AFNE17.jpg,AFSA09.jpg,AFNE17.jpg,FN,3,num_2,32,num_8,1.41667893506,,,2017_Jul_31_1424,60.012646235,FEMA4ImagesEEG,001,201038,
AFNE01.JPG,AFNE01.JPG,AFNE01.JPG,AFNE01.JPG,AFNE01.JPG,AFNE01.JPG,2,8,28,2,,,,,,,,,,,,,,,,,,,,,,,AFSA17.jpg,AFSA03.jpg,AFNE06.jpg,AFNE07.jpg,AFNE07.jpg,FN,3,num_4,16,num_4,1.11674491107,,,2017_Jul_31_1424,60.012646235,FEMA4ImagesEEG,001,201038,
AFNE01.JPG,AFNE01.JPG,AFNE01.JPG,AFNE01.JPG,AFNE01.JPG,AFNE01.JPG,2,9,29,5,,,,,,,,,,,,,,,,,,,,,,,AFSA13.jpg,AFNE02.jpg,AFSA08.jpg,AFNE08.jpg,AFSA08.jpg,FS,4,num_2,32,num_6,0.716756008798,,,2017_Jul_31_1424,60.012646235,FEMA4ImagesEEG,001,201038,
AFNE01.JPG,AFNE01.JPG,AFNE01.JPG,AFNE01.JPG,AFNE01.JPG,AFNE01.JPG,3,0,30,5,,,,,,,,,,,,,,,,,,,,,,,AFNE16.jpg,AFNE17.jpg,AFSA17.jpg,AFSA04.jpg,AFNE17.jpg,FN,3,num_6,32,num_8,1.63334978744,,,2017_Jul_31_1424,60.012646235,FEMA4ImagesEEG,001,201038,
AFNE01.JPG,AFNE01.JPG,AFNE01.JPG,AFNE01.JPG,AFNE01.JPG,AFNE01.JPG,3,1,31,2,,,,,,,,,,,,,,,,,,,,,,,AFNE15.jpg,AFSA08.jpg,AFNE11.jpg,AFSA19.jpg,AFNE11.jpg,FN,3,num_2,32,num_8,1.93338516494,,,2017_Jul_31_1424,60.012646235,FEMA4ImagesEEG,001,201038,
AFNE01.JPG,AFNE01.JPG,AFNE01.JPG,AFNE01.JPG,AFNE01.JPG,AFNE01.JPG,3,2,32,6,,,,,,,,,,,,,,,,,,,,,,,AFNE02.jpg,AFNE07.jpg,AFSA14.jpg,AFSA18.jpg,AFSA14.jpg,FS,4,num_2,16,num_2,1.53366825008,,,2017_Jul_31_1424,60.012646235,FEMA4ImagesEEG,001,201038,
AFNE01.JPG,AFNE01.JPG,AFNE01.JPG,AFNE01.JPG,AFNE01.JPG,AFNE01.JPG,3,3,33,1,,,,,,,,,,,,,,,,,,,,,,,AFNE05.jpg,AFSA18.jpg,AFNE02.jpg,AFSA09.jpg,AFSA18.jpg,FS,4,num_6,16,num_6,0.583480152069,,,2017_Jul_31_1424,60.012646235,FEMA4ImagesEEG,001,201038,
AFNE01.JPG,AFNE01.JPG,AFNE01.JPG,AFNE01.JPG,AFNE01.JPG,AFNE01.JPG,3,4,34,4,,,,,,,,,,,,,,,,,,,,,,,AFSA15.jpg,AFSA03.jpg,AFNE16.jpg,AFNE07.jpg,AFSA15.jpg,FS,4,num_8,16,num_8,1.20010045567,,,2017_Jul_31_1424,60.012646235,FEMA4ImagesEEG,001,201038,
AFNE01.JPG,AFNE01.JPG,AFNE01.JPG,AFNE01.JPG,AFNE01.JPG,AFNE01.JPG,3,5,35,7,,,,,,,,,,,,,,,,,,,,,,,AFSA04.jpg,AFNE14.jpg,AFSA02.jpg,AFNE16.jpg,AFNE14.jpg,FN,3,num_6,32,num_8,1.63338603103,,,2017_Jul_31_1424,60.012646235,FEMA4ImagesEEG,001,201038,
AFNE01.JPG,AFNE01.JPG,AFNE01.JPG,AFNE01.JPG,AFNE01.JPG,AFNE01.JPG,3,6,36,8,,,,,,,,,,,,,,,,,,,,,,,AFNE13.jpg,AFSA13.jpg,AFNE20.jpg,AFSA18.jpg,AFNE20.jpg,FN,3,num_2,32,num_4,1.20014760457,,,2017_Jul_31_1424,60.012646235,FEMA4ImagesEEG,001,201038,
AFNE01.JPG,AFNE01.JPG,AFNE01.JPG,AFNE01.JPG,AFNE01.JPG,AFNE01.JPG,3,7,37,0,,,,,,,,,,,,,,,,,,,,,,,AFSA06.jpg,AFNE04.jpg,AFNE06.jpg,AFSA05.jpg,AFNE04.jpg,FN,3,num_6,16,num_6,1.51677101944,,,2017_Jul_31_1424,60.012646235,FEMA4ImagesEEG,001,201038,
AFNE01.JPG,AFNE01.JPG,AFNE01.JPG,AFNE01.JPG,AFNE01.JPG,AFNE01.JPG,3,8,38,9,,,,,,,,,,,,,,,,,,,,,,,AFSA19.jpg,AFNE14.jpg,AFNE10.jpg,AFSA14.jpg,AFSA19.jpg,FS,4,num_8,32,num_2,1.08365992713,,,2017_Jul_31_1424,60.012646235,FEMA4ImagesEEG,001,201038,
AFNE01.JPG,AFNE01.JPG,AFNE01.JPG,AFNE01.JPG,AFNE01.JPG,AFNE01.JPG,3,9,39,3,,,,,,,,,,,,,,,,,,,,,,,AFNE14.jpg,AFNE18.jpg,AFSA01.jpg,AFSA20.jpg,AFNE18.jpg,FN,3,num_6,32,num_4,3.3499842356,,,2017_Jul_31_1424,60.012646235,FEMA4ImagesEEG,001,201038,
AFNE01.JPG,AFNE01.JPG,AFNE01.JPG,AFNE01.JPG,AFNE01.JPG,AFNE01.JPG,4,0,40,6,,,,,,,,,,,,,,,,,,,,,,,AFSA15.jpg,AFNE10.jpg,AFSA08.jpg,AFNE14.jpg,AFSA08.jpg,FS,4,num_2,32,num_6,1.08346042666,,,2017_Jul_31_1424,60.012646235,FEMA4ImagesEEG,001,201038,
AFNE01.JPG,AFNE01.JPG,AFNE01.JPG,AFNE01.JPG,AFNE01.JPG,AFNE01.JPG,4,1,41,8,,,,,,,,,,,,,,,,,,,,,,,AFSA10.jpg,AFSA03.jpg,AFNE18.jpg,AFNE13.jpg,AFSA10.jpg,FS,4,num_8,16,num_8,0.916761846282,,,2017_Jul_31_1424,60.012646235,FEMA4ImagesEEG,001,201038,
AFNE01.JPG,AFNE01.JPG,AFNE01.JPG,AFNE01.JPG,AFNE01.JPG,AFNE01.JPG,4,2,42,0,,,,,,,,,,,,,,,,,,,,,,,AFSA12.jpg,AFNE03.jpg,AFSA19.jpg,AFNE11.jpg,AFNE11.jpg,FN,3,num_4,16,num_4,0.65012577828,,,2017_Jul_31_1424,60.012646235,FEMA4ImagesEEG,001,201038,
AFNE01.JPG,AFNE01.JPG,AFNE01.JPG,AFNE01.JPG,AFNE01.JPG,AFNE01.JPG,4,3,43,1,,,,,,,,,,,,,,,,,,,,,,,AFSA15.jpg,AFSA03.jpg,AFNE11.jpg,AFNE14.jpg,AFNE14.jpg,FN,3,num_4,16,num_4,0.733581393724,,,2017_Jul_31_1424,60.012646235,FEMA4ImagesEEG,001,201038,
AFNE01.JPG,AFNE01.JPG,AFNE01.JPG,AFNE01.JPG,AFNE01.JPG,AFNE01.JPG,4,4,44,7,,,,,,,,,,,,,,,,,,,,,,,AFSA14.jpg,AFSA18.jpg,AFNE03.jpg,AFNE08.jpg,AFNE08.jpg,FN,3,num_4,32,num_8,0.866732161725,,,2017_Jul_31_1424,60.012646235,FEMA4ImagesEEG,001,201038,
AFNE01.JPG,AFNE01.JPG,AFNE01.JPG,AFNE01.JPG,AFNE01.JPG,AFNE01.JPG,4,5,45,9,,,,,,,,,,,,,,,,,,,,,,,AFNE07.jpg,AFSA16.jpg,AFSA17.jpg,AFNE02.jpg,AFSA17.jpg,FS,4,num_2,32,num_6,1.28342328477,,,2017_Jul_31_1424,60.012646235,FEMA4ImagesEEG,001,201038,
AFNE01.JPG,AFNE01.JPG,AFNE01.JPG,AFNE01.JPG,AFNE01.JPG,AFNE01.JPG,4,6,46,3,,,,,,,,,,,,,,,,,,,,,,,AFSA01.jpg,AFSA09.jpg,AFNE10.jpg,AFNE20.jpg,AFNE20.jpg,FN,3,num_4,16,num_4,0.650094666518,,,2017_Jul_31_1424,60.012646235,FEMA4ImagesEEG,001,201038,
AFNE01.JPG,AFNE01.JPG,AFNE01.JPG,AFNE01.JPG,AFNE01.JPG,AFNE01.JPG,4,7,47,5,,,,,,,,,,,,,,,,,,,,,,,AFNE07.jpg,AFSA15.jpg,AFNE11.jpg,AFSA02.jpg,AFSA15.jpg,FS,4,num_6,32,num_8,1.66668045847,,,2017_Jul_31_1424,60.012646235,FEMA4ImagesEEG,001,201038,
AFNE01.JPG,AFNE01.JPG,AFNE01.JPG,AFNE01.JPG,AFNE01.JPG,AFNE01.JPG,4,8,48,4,,,,,,,,,,,,,,,,,,,,,,,AFSA13.jpg,AFNE16.jpg,AFSA05.jpg,AFNE05.jpg,AFSA05.jpg,FS,4,num_2,16,num_2,0.666753587313,,,2017_Jul_31_1424,60.012646235,FEMA4ImagesEEG,001,201038,
AFNE01.JPG,AFNE01.JPG,AFNE01.JPG,AFNE01.JPG,AFNE01.JPG,AFNE01.JPG,4,9,49,2,,,,,,,,,,,,,,,,,,,,,,,AFNE06.jpg,AFSA05.jpg,AFNE11.jpg,AFSA17.jpg,AFNE06.jpg,FN,3,num_8,32,num_4,0.816773360828,,,2017_Jul_31_1424,60.012646235,FEMA4ImagesEEG,001,201038,
AFNE01.JPG,AFNE01.JPG,AFNE01.JPG,AFNE01.JPG,AFNE01.JPG,AFNE01.JPG,5,0,50,1,,,,,,,,,,,,,,,,,,,,,,,AFSA14.jpg,AFNE11.jpg,AFSA01.jpg,AFNE08.jpg,AFSA01.jpg,FS,4,num_2,32,num_8,2.44965069788,,,2017_Jul_31_1424,60.012646235,FEMA4ImagesEEG,001,201038,
AFNE01.JPG,AFNE01.JPG,AFNE01.JPG,AFNE01.JPG,AFNE01.JPG,AFNE01.JPG,5,1,51,6,,,,,,,,,,,,,,,,,,,,,,,AFSA07.jpg,AFSA16.jpg,AFNE04.jpg,AFNE09.jpg,AFNE09.jpg,FN,3,num_4,16,num_4,2.05001685489,,,2017_Jul_31_1424,60.012646235,FEMA4ImagesEEG,001,201038,
AFNE01.JPG,AFNE01.JPG,AFNE01.JPG,AFNE01.JPG,AFNE01.JPG,AFNE01.JPG,5,2,52,3,,,,,,,,,,,,,,,,,,,,,,,AFSA20.jpg,AFNE09.jpg,AFSA03.jpg,AFNE18.jpg,AFSA20.jpg,FS,4,num_8,32,num_2,2.45003751037,,,2017_Jul_31_1424,60.012646235,FEMA4ImagesEEG,001,201038,
AFNE01.JPG,AFNE01.JPG,AFNE01.JPG,AFNE01.JPG,AFNE01.JPG,AFNE01.JPG,5,3,53,9,,,,,,,,,,,,,,,,,,,,,,,AFSA17.jpg,AFSA18.jpg,AFNE14.jpg,AFNE04.jpg,AFSA17.jpg,FS,4,num_8,16,num_8,1.11671219557,,,2017_Jul_31_1424,60.012646235,FEMA4ImagesEEG,001,201038,
AFNE01.JPG,AFNE01.JPG,AFNE01.JPG,AFNE01.JPG,AFNE01.JPG,AFNE01.JPG,5,4,54,5,,,,,,,,,,,,,,,,,,,,,,,AFSA08.jpg,AFNE14.jpg,AFSA13.jpg,AFNE20.jpg,AFSA08.jpg,FS,4,num_8,32,num_4,0.750121319899,,,2017_Jul_31_1424,60.012646235,FEMA4ImagesEEG,001,201038,
AFNE01.JPG,AFNE01.JPG,AFNE01.JPG,AFNE01.JPG,AFNE01.JPG,AFNE01.JPG,5,5,55,2,,,,,,,,,,,,,,,,,,,,,,,AFSA18.jpg,AFNE07.jpg,AFNE16.jpg,AFSA17.jpg,AFNE16.jpg,FN,3,num_2,32,num_8,1.80006376305,,,2017_Jul_31_1424,60.012646235,FEMA4ImagesEEG,001,201038,
AFNE01.JPG,AFNE01.JPG,AFNE01.JPG,AFNE01.JPG,AFNE01.JPG,AFNE01.JPG,5,6,56,4,,,,,,,,,,,,,,,,,,,,,,,AFSA10.jpg,AFNE18.jpg,AFSA01.jpg,AFNE07.jpg,AFSA01.jpg,FS,4,num_2,32,num_4,0.883519699331,,,2017_Jul_31_1424,60.012646235,FEMA4ImagesEEG,001,201038,
AFNE01.JPG,AFNE01.JPG,AFNE01.JPG,AFNE01.JPG,AFNE01.JPG,AFNE01.JPG,5,7,57,0,,,,,,,,,,,,,,,,,,,,,,,AFSA08.jpg,AFSA12.jpg,AFNE13.jpg,AFNE11.jpg,AFSA12.jpg,FS,4,num_6,16,num_6,1.66669649538,,,2017_Jul_31_1424,60.012646235,FEMA4ImagesEEG,001,201038,
AFNE01.JPG,AFNE01.JPG,AFNE01.JPG,AFNE01.JPG,AFNE01.JPG,AFNE01.JPG,5,8,58,7,,,,,,,,,,,,,,,,,,,,,,,AFNE02.jpg,AFNE07.jpg,AFSA03.jpg,AFSA14.jpg,AFNE02.jpg,FN,3,num_8,16,num_8,1.35007596738,,,2017_Jul_31_1424,60.012646235,FEMA4ImagesEEG,001,201038,
AFNE01.JPG,AFNE01.JPG,AFNE01.JPG,AFNE01.JPG,AFNE01.JPG,AFNE01.JPG,5,9,59,8,,,,,,,,,,,,,,,,,,,,,,,AFSA08.jpg,AFNE17.jpg,AFSA16.jpg,AFNE07.jpg,AFSA16.jpg,FS,4,num_2,16,num_2,2.89993389533,,,2017_Jul_31_1424,60.012646235,FEMA4ImagesEEG,001,201038,
,,,,,,,,,,,,,,,,,,,,,,,,,,,,,,,,,,,,,,,,,,,space,27.6647479993,2017_Jul_31_1424,60.012646235,FEMA4ImagesEEG,001,201038,
AFNE01.JPG,AFNE01.JPG,AFNE01.JPG,AFNE01.JPG,AFNE01.JPG,AFNE01.JPG,,,,,0,0,0,5,,,,,,,,,,,,,,,,,,,AMNE02.jpg,AMSA20.jpg,AMNE13.jpg,AMSA06.jpg,AMSA20.jpg,MS,2,num_6,16,num_6,1.00012829597,,,2017_Jul_31_1424,60.012646235,FEMA4ImagesEEG,001,201038,
AFNE01.JPG,AFNE01.JPG,AFNE01.JPG,AFNE01.JPG,AFNE01.JPG,AFNE01.JPG,,,,,0,1,1,9,,,,,,,,,,,,,,,,,,,AMSA14.jpg,AMNE04.jpg,AMSA17.jpg,AMNE03.jpg,AMNE03.jpg,MN,1,num_4,16,num_4,0.616818521172,,,2017_Jul_31_1424,60.012646235,FEMA4ImagesEEG,001,201038,
AFNE01.JPG,AFNE01.JPG,AFNE01.JPG,AFNE01.JPG,AFNE01.JPG,AFNE01.JPG,,,,,0,2,2,4,,,,,,,,,,,,,,,,,,,AMSA07.jpg,AMSA08.jpg,AMNE15.jpg,AMNE18.jpg,AMNE15.jpg,MN,1,num_2,16,num_2,0.550124463392,,,2017_Jul_31_1424,60.012646235,FEMA4ImagesEEG,001,201038,
AFNE01.JPG,AFNE01.JPG,AFNE01.JPG,AFNE01.JPG,AFNE01.JPG,AFNE01.JPG,,,,,0,3,3,2,,,,,,,,,,,,,,,,,,,AMSA07.jpg,AMNE10.jpg,AMNE13.jpg,AMSA01.jpg,AMNE13.jpg,MN,1,num_2,32,num_8,0.716775574023,,,2017_Jul_31_1424,60.012646235,FEMA4ImagesEEG,001,201038,
AFNE01.JPG,AFNE01.JPG,AFNE01.JPG,AFNE01.JPG,AFNE01.JPG,AFNE01.JPG,,,,,0,4,4,0,,,,,,,,,,,,,,,,,,,AMSA07.jpg,AMNE19.jpg,AMNE01.jpg,AMSA19.jpg,AMSA19.jpg,MS,2,num_4,32,num_8,0.983413245529,,,2017_Jul_31_1424,60.012646235,FEMA4ImagesEEG,001,201038,
AFNE01.JPG,AFNE01.JPG,AFNE01.JPG,AFNE01.JPG,AFNE01.JPG,AFNE01.JPG,,,,,0,5,5,6,,,,,,,,,,,,,,,,,,,AMSA07.jpg,AMSA10.jpg,AMNE06.jpg,AMNE10.jpg,AMNE06.jpg,MN,1,num_2,32,num_4,0.749832012458,,,2017_Jul_31_1424,60.012646235,FEMA4ImagesEEG,001,201038,
AFNE01.JPG,AFNE01.JPG,AFNE01.JPG,AFNE01.JPG,AFNE01.JPG,AFNE01.JPG,,,,,0,6,6,8,,,,,,,,,,,,,,,,,,,AMSA01.jpg,AMNE09.jpg,AMNE02.jpg,AMSA07.jpg,AMNE02.jpg,MN,1,num_2,16,num_2,0.966746627353,,,2017_Jul_31_1424,60.012646235,FEMA4ImagesEEG,001,201038,
AFNE01.JPG,AFNE01.JPG,AFNE01.JPG,AFNE01.JPG,AFNE01.JPG,AFNE01.JPG,,,,,0,7,7,1,,,,,,,,,,,,,,,,,,,AMSA08.jpg,AMNE02.jpg,AMSA12.jpg,AMNE20.jpg,AMSA12.jpg,MS,2,num_2,32,num_8,1.26677526929,,,2017_Jul_31_1424,60.012646235,FEMA4ImagesEEG,001,201038,
AFNE01.JPG,AFNE01.JPG,AFNE01.JPG,AFNE01.JPG,AFNE01.JPG,AFNE01.JPG,,,,,0,8,8,7,,,,,,,,,,,,,,,,,,,AMNE14.jpg,AMSA09.jpg,AMNE15.jpg,AMSA20.jpg,AMSA09.jpg,MS,2,num_6,16,num_6,1.83365262998,,,2017_Jul_31_1424,60.012646235,FEMA4ImagesEEG,001,201038,
AFNE01.JPG,AFNE01.JPG,AFNE01.JPG,AFNE01.JPG,AFNE01.JPG,AFNE01.JPG,,,,,0,9,9,3,,,,,,,,,,,,,,,,,,,AMNE01.jpg,AMNE10.jpg,AMSA11.jpg,AMSA17.jpg,AMNE10.jpg,MN,1,num_6,16,num_6,0.93341980502,,,2017_Jul_31_1424,60.012646235,FEMA4ImagesEEG,001,201038,
AFNE01.JPG,AFNE01.JPG,AFNE01.JPG,AFNE01.JPG,AFNE01.JPG,AFNE01.JPG,,,,,1,0,10,2,,,,,,,,,,,,,,,,,,,AMSA05.jpg,AMNE16.jpg,AMNE08.jpg,AMSA07.jpg,AMSA05.jpg,MS,2,num_8,16,num_8,0.833461469039,,,2017_Jul_31_1424,60.012646235,FEMA4ImagesEEG,001,201038,
AFNE01.JPG,AFNE01.JPG,AFNE01.JPG,AFNE01.JPG,AFNE01.JPG,AFNE01.JPG,,,,,1,1,11,7,,,,,,,,,,,,,,,,,,,AMSA10.jpg,AMNE09.jpg,AMSA19.jpg,AMNE06.jpg,AMNE06.jpg,MN,1,num_4,32,num_8,1.46667718678,,,2017_Jul_31_1424,60.012646235,FEMA4ImagesEEG,001,201038,
AFNE01.JPG,AFNE01.JPG,AFNE01.JPG,AFNE01.JPG,AFNE01.JPG,AFNE01.JPG,,,,,1,2,12,1,,,,,,,,,,,,,,,,,,,AMSA19.jpg,AMSA01.jpg,AMNE18.jpg,AMNE19.jpg,AMNE19.jpg,MN,1,num_4,16,num_4,0.983475469286,,,2017_Jul_31_1424,60.012646235,FEMA4ImagesEEG,001,201038,
AFNE01.JPG,AFNE01.JPG,AFNE01.JPG,AFNE01.JPG,AFNE01.JPG,AFNE01.JPG,,,,,1,3,13,0,,,,,,,,,,,,,,,,,,,AMSA02.jpg,AMNE19.jpg,AMSA01.jpg,AMNE16.jpg,AMNE19.jpg,MN,1,num_6,32,num_4,1.38326743711,,,2017_Jul_31_1424,60.012646235,FEMA4ImagesEEG,001,201038,
AFNE01.JPG,AFNE01.JPG,AFNE01.JPG,AFNE01.JPG,AFNE01.JPG,AFNE01.JPG,,,,,1,4,14,4,,,,,,,,,,,,,,,,,,,AMNE06.jpg,AMNE20.jpg,AMSA12.jpg,AMSA07.jpg,AMSA12.jpg,MS,2,num_2,32,num_8,1.33344591316,,,2017_Jul_31_1424,60.012646235,FEMA4ImagesEEG,001,201038,
AFNE01.JPG,AFNE01.JPG,AFNE01.JPG,AFNE01.JPG,AFNE01.JPG,AFNE01.JPG,,,,,1,5,15,8,,,,,,,,,,,,,,,,,,,AMNE10.jpg,AMSA13.jpg,AMNE19.jpg,AMSA16.jpg,AMSA16.jpg,MS,2,num_4,16,num_4,0.883476720192,,,2017_Jul_31_1424,60.012646235,FEMA4ImagesEEG,001,201038,
AFNE01.JPG,AFNE01.JPG,AFNE01.JPG,AFNE01.JPG,AFNE01.JPG,AFNE01.JPG,,,,,1,6,16,9,,,,,,,,,,,,,,,,,,,AMNE14.jpg,AMNE05.jpg,AMSA10.jpg,AMSA08.jpg,AMSA08.jpg,MS,2,num_4,16,num_4,1.26675377972,,,2017_Jul_31_1424,60.012646235,FEMA4ImagesEEG,001,201038,
AFNE01.JPG,AFNE01.JPG,AFNE01.JPG,AFNE01.JPG,AFNE01.JPG,AFNE01.JPG,,,,,1,7,17,6,,,,,,,,,,,,,,,,,,,AMSA17.jpg,AMSA19.jpg,AMNE20.jpg,AMNE09.jpg,AMSA17.jpg,MS,2,num_8,32,num_4,1.51673349296,,,2017_Jul_31_1424,60.012646235,FEMA4ImagesEEG,001,201038,
AFNE01.JPG,AFNE01.JPG,AFNE01.JPG,AFNE01.JPG,AFNE01.JPG,AFNE01.JPG,,,,,1,8,18,5,,,,,,,,,,,,,,,,,,,AMSA10.jpg,AMNE16.jpg,AMNE04.jpg,AMSA16.jpg,AMSA10.jpg,MS,2,num_8,16,num_8,0.883779819589,,,2017_Jul_31_1424,60.012646235,FEMA4ImagesEEG,001,201038,
AFNE01.JPG,AFNE01.JPG,AFNE01.JPG,AFNE01.JPG,AFNE01.JPG,AFNE01.JPG,,,,,1,9,19,3,,,,,,,,,,,,,,,,,,,AMNE12.jpg,AMNE09.jpg,AMSA13.jpg,AMSA10.jpg,AMNE09.jpg,MN,1,num_6,32,num_4,1.31671995763,,,2017_Jul_31_1424,60.012646235,FEMA4ImagesEEG,001,201038,
AFNE01.JPG,AFNE01.JPG,AFNE01.JPG,AFNE01.JPG,AFNE01.JPG,AFNE01.JPG,,,,,2,0,20,7,,,,,,,,,,,,,,,,,,,AMSA05.jpg,AMSA16.jpg,AMNE12.jpg,AMNE05.jpg,AMNE05.jpg,MN,1,num_4,32,num_6,1.150168597,,,2017_Jul_31_1424,60.012646235,FEMA4ImagesEEG,001,201038,
AFNE01.JPG,AFNE01.JPG,AFNE01.JPG,AFNE01.JPG,AFNE01.JPG,AFNE01.JPG,,,,,2,1,21,4,,,,,,,,,,,,,,,,,,,AMSA20.jpg,AMNE08.jpg,AMNE15.jpg,AMSA08.jpg,AMNE08.jpg,MN,1,num_6,32,num_2,0.933442577254,,,2017_Jul_31_1424,60.012646235,FEMA4ImagesEEG,001,201038,
AFNE01.JPG,AFNE01.JPG,AFNE01.JPG,AFNE01.JPG,AFNE01.JPG,AFNE01.JPG,,,,,2,2,22,5,,,,,,,,,,,,,,,,,,,AMSA04.jpg,AMNE19.jpg,AMNE15.jpg,AMSA17.jpg,AMSA04.jpg,MS,2,num_8,32,num_6,1.06676846952,,,2017_Jul_31_1424,60.012646235,FEMA4ImagesEEG,001,201038,
AFNE01.JPG,AFNE01.JPG,AFNE01.JPG,AFNE01.JPG,AFNE01.JPG,AFNE01.JPG,,,,,2,3,23,9,,,,,,,,,,,,,,,,,,,AMNE18.jpg,AMSA17.jpg,AMSA20.jpg,AMNE08.jpg,AMNE18.jpg,MN,1,num_8,48,None,,,,2017_Jul_31_1424,60.012646235,FEMA4ImagesEEG,001,201038,
AFNE01.JPG,AFNE01.JPG,AFNE01.JPG,AFNE01.JPG,AFNE01.JPG,AFNE01.JPG,,,,,2,4,24,6,,,,,,,,,,,,,,,,,,,AMSA16.jpg,AMNE02.jpg,AMNE15.jpg,AMSA10.jpg,AMNE15.jpg,MN,1,num_2,32,num_4,0.683557482436,,,2017_Jul_31_1424,60.012646235,FEMA4ImagesEEG,001,201038,
AFNE01.JPG,AFNE01.JPG,AFNE01.JPG,AFNE01.JPG,AFNE01.JPG,AFNE01.JPG,,,,,2,5,25,8,,,,,,,,,,,,,,,,,,,AMSA03.jpg,AMSA20.jpg,AMNE06.jpg,AMNE10.jpg,AMSA20.jpg,MS,2,num_6,32,num_8,1.00009205239,,,2017_Jul_31_1424,60.012646235,FEMA4ImagesEEG,001,201038,
AFNE01.JPG,AFNE01.JPG,AFNE01.JPG,AFNE01.JPG,AFNE01.JPG,AFNE01.JPG,,,,,2,6,26,3,,,,,,,,,,,,,,,,,,,AMSA17.jpg,AMNE16.jpg,AMNE13.jpg,AMSA07.jpg,AMNE13.jpg,MN,1,num_2,32,num_6,0.833462751936,,,2017_Jul_31_1424,60.012646235,FEMA4ImagesEEG,001,201038,
AFNE01.JPG,AFNE01.JPG,AFNE01.JPG,AFNE01.JPG,AFNE01.JPG,AFNE01.JPG,,,,,2,7,27,1,,,,,,,,,,,,,,,,,,,AMNE05.jpg,AMSA19.jpg,AMSA01.jpg,AMNE08.jpg,AMNE08.jpg,MN,1,num_4,16,num_4,0.916803863132,,,2017_Jul_31_1424,60.012646235,FEMA4ImagesEEG,001,201038,
AFNE01.JPG,AFNE01.JPG,AFNE01.JPG,AFNE01.JPG,AFNE01.JPG,AFNE01.JPG,,,,,2,8,28,2,,,,,,,,,,,,,,,,,,,AMSA04.jpg,AMNE07.jpg,AMNE10.jpg,AMSA03.jpg,AMNE10.jpg,MN,1,num_2,16,num_2,0.783304771408,,,2017_Jul_31_1424,60.012646235,FEMA4ImagesEEG,001,201038,
AFNE01.JPG,AFNE01.JPG,AFNE01.JPG,AFNE01.JPG,AFNE01.JPG,AFNE01.JPG,,,,,2,9,29,0,,,,,,,,,,,,,,,,,,,AMSA07.jpg,AMNE09.jpg,AMNE05.jpg,AMSA03.jpg,AMNE05.jpg,MN,1,num_2,32,num_6,0.866634977516,,,2017_Jul_31_1424,60.012646235,FEMA4ImagesEEG,001,201038,
AFNE01.JPG,AFNE01.JPG,AFNE01.JPG,AFNE01.JPG,AFNE01.JPG,AFNE01.JPG,,,,,3,0,30,9,,,,,,,,,,,,,,,,,,,AMSA01.jpg,AMNE01.jpg,AMSA20.jpg,AMNE14.jpg,AMSA01.jpg,MS,2,num_8,16,num_8,1.0001209192,,,2017_Jul_31_1424,60.012646235,FEMA4ImagesEEG,001,201038,
AFNE01.JPG,AFNE01.JPG,AFNE01.JPG,AFNE01.JPG,AFNE01.JPG,AFNE01.JPG,,,,,3,1,31,3,,,,,,,,,,,,,,,,,,,AMSA02.jpg,AMSA03.jpg,AMNE18.jpg,AMNE16.jpg,AMSA03.jpg,MS,2,num_6,32,num_8,1.03341951617,,,2017_Jul_31_1424,60.012646235,FEMA4ImagesEEG,001,201038,
AFNE01.JPG,AFNE01.JPG,AFNE01.JPG,AFNE01.JPG,AFNE01.JPG,AFNE01.JPG,,,,,3,2,32,1,,,,,,,,,,,,,,,,,,,AMNE12.jpg,AMNE14.jpg,AMSA09.jpg,AMSA07.jpg,AMNE14.jpg,MN,1,num_6,32,num_4,0.866755896481,,,2017_Jul_31_1424,60.012646235,FEMA4ImagesEEG,001,201038,
AFNE01.JPG,AFNE01.JPG,AFNE01.JPG,AFNE01.JPG,AFNE01.JPG,AFNE01.JPG,,,,,3,3,33,4,,,,,,,,,,,,,,,,,,,AMNE20.jpg,AMSA07.jpg,AMSA15.jpg,AMNE11.jpg,AMSA07.jpg,MS,2,num_6,32,num_2,0.999814612325,,,2017_Jul_31_1424,60.012646235,FEMA4ImagesEEG,001,201038,
AFNE01.JPG,AFNE01.JPG,AFNE01.JPG,AFNE01.JPG,AFNE01.JPG,AFNE01.JPG,,,,,3,4,34,8,,,,,,,,,,,,,,,,,,,AMSA18.jpg,AMSA10.jpg,AMNE15.jpg,AMNE14.jpg,AMSA10.jpg,MS,2,num_6,16,num_6,1.55008565378,,,2017_Jul_31_1424,60.012646235,FEMA4ImagesEEG,001,201038,
AFNE01.JPG,AFNE01.JPG,AFNE01.JPG,AFNE01.JPG,AFNE01.JPG,AFNE01.JPG,,,,,3,5,35,6,,,,,,,,,,,,,,,,,,,AMSA15.jpg,AMNE12.jpg,AMNE10.jpg,AMSA20.jpg,AMNE10.jpg,MN,1,num_2,16,num_2,0.850082221907,,,2017_Jul_31_1424,60.012646235,FEMA4ImagesEEG,001,201038,
AFNE01.JPG,AFNE01.JPG,AFNE01.JPG,AFNE01.JPG,AFNE01.JPG,AFNE01.JPG,,,,,3,6,36,2,,,,,,,,,,,,,,,,,,,AMNE03.jpg,AMSA06.jpg,AMNE12.jpg,AMSA07.jpg,AMSA07.jpg,MS,2,num_4,32,num_2,1.48339736904,,,2017_Jul_31_1424,60.012646235,FEMA4ImagesEEG,001,201038,
AFNE01.JPG,AFNE01.JPG,AFNE01.JPG,AFNE01.JPG,AFNE01.JPG,AFNE01.JPG,,,,,3,7,37,0,,,,,,,,,,,,,,,,,,,AMSA02.jpg,AMNE08.jpg,AMSA04.jpg,AMNE06.jpg,AMSA04.jpg,MS,2,num_2,32,num_4,1.35004645935,,,2017_Jul_31_1424,60.012646235,FEMA4ImagesEEG,001,201038,
AFNE01.JPG,AFNE01.JPG,AFNE01.JPG,AFNE01.JPG,AFNE01.JPG,AFNE01.JPG,,,,,3,8,38,7,,,,,,,,,,,,,,,,,,,AMNE18.jpg,AMSA06.jpg,AMNE13.jpg,AMSA01.jpg,AMNE13.jpg,MN,1,num_2,32,num_8,0.78345487779,,,2017_Jul_31_1424,60.012646235,FEMA4ImagesEEG,001,201038,
AFNE01.JPG,AFNE01.JPG,AFNE01.JPG,AFNE01.JPG,AFNE01.JPG,AFNE01.JPG,,,,,3,9,39,5,,,,,,,,,,,,,,,,,,,AMSA08.jpg,AMNE08.jpg,AMSA15.jpg,AMNE18.jpg,AMNE18.jpg,MN,1,num_4,32,num_6,1.00042947102,,,2017_Jul_31_1424,60.012646235,FEMA4ImagesEEG,001,201038,
AFNE01.JPG,AFNE01.JPG,AFNE01.JPG,AFNE01.JPG,AFNE01.JPG,AFNE01.JPG,,,,,4,0,40,0,,,,,,,,,,,,,,,,,,,AMNE03.jpg,AMSA04.jpg,AMSA15.jpg,AMNE06.jpg,AMSA15.jpg,MS,2,num_2,16,num_2,0.983482846525,,,2017_Jul_31_1424,60.012646235,FEMA4ImagesEEG,001,201038,
AFNE01.JPG,AFNE01.JPG,AFNE01.JPG,AFNE01.JPG,AFNE01.JPG,AFNE01.JPG,,,,,4,1,41,1,,,,,,,,,,,,,,,,,,,AMSA02.jpg,AMNE09.jpg,AMSA10.jpg,AMNE13.jpg,AMNE09.jpg,MN,1,num_6,16,num_6,0.566798458807,,,2017_Jul_31_1424,60.012646235,FEMA4ImagesEEG,001,201038,
AFNE01.JPG,AFNE01.JPG,AFNE01.JPG,AFNE01.JPG,AFNE01.JPG,AFNE01.JPG,,,,,4,2,42,8,,,,,,,,,,,,,,,,,,,AMSA05.jpg,AMSA10.jpg,AMNE01.jpg,AMNE18.jpg,AMSA10.jpg,MS,2,num_6,16,num_6,1.35010130564,,,2017_Jul_31_1424,60.012646235,FEMA4ImagesEEG,001,201038,
AFNE01.JPG,AFNE01.JPG,AFNE01.JPG,AFNE01.JPG,AFNE01.JPG,AFNE01.JPG,,,,,4,3,43,2,,,,,,,,,,,,,,,,,,,AMNE06.jpg,AMNE20.jpg,AMSA20.jpg,AMSA01.jpg,AMSA01.jpg,MS,2,num_4,16,num_4,1.383399582,,,2017_Jul_31_1424,60.012646235,FEMA4ImagesEEG,001,201038,
AFNE01.JPG,AFNE01.JPG,AFNE01.JPG,AFNE01.JPG,AFNE01.JPG,AFNE01.JPG,,,,,4,4,44,5,,,,,,,,,,,,,,,,,,,AMSA07.jpg,AMNE12.jpg,AMNE11.jpg,AMSA10.jpg,AMSA07.jpg,MS,2,num_8,16,num_8,1.88331602956,,,2017_Jul_31_1424,60.012646235,FEMA4ImagesEEG,001,201038,
AFNE01.JPG,AFNE01.JPG,AFNE01.JPG,AFNE01.JPG,AFNE01.JPG,AFNE01.JPG,,,,,4,5,45,3,,,,,,,,,,,,,,,,,,,AMSA17.jpg,AMSA04.jpg,AMNE09.jpg,AMNE14.jpg,AMNE09.jpg,MN,1,num_2,32,num_8,0.950083215954,,,2017_Jul_31_1424,60.012646235,FEMA4ImagesEEG,001,201038,
AFNE01.JPG,AFNE01.JPG,AFNE01.JPG,AFNE01.JPG,AFNE01.JPG,AFNE01.JPG,,,,,4,6,46,4,,,,,,,,,,,,,,,,,,,AMNE08.jpg,AMSA10.jpg,AMNE18.jpg,AMSA15.jpg,AMNE08.jpg,MN,1,num_8,32,num_2,2.63341169013,,,2017_Jul_31_1424,60.012646235,FEMA4ImagesEEG,001,201038,
AFNE01.JPG,AFNE01.JPG,AFNE01.JPG,AFNE01.JPG,AFNE01.JPG,AFNE01.JPG,,,,,4,7,47,9,,,,,,,,,,,,,,,,,,,AMSA06.jpg,AMSA14.jpg,AMNE08.jpg,AMNE11.jpg,AMSA06.jpg,MS,2,num_8,16,num_8,0.799596765544,,,2017_Jul_31_1424,60.012646235,FEMA4ImagesEEG,001,201038,
AFNE01.JPG,AFNE01.JPG,AFNE01.JPG,AFNE01.JPG,AFNE01.JPG,AFNE01.JPG,,,,,4,8,48,6,,,,,,,,,,,,,,,,,,,AMSA14.jpg,AMSA03.jpg,AMNE09.jpg,AMNE07.jpg,AMSA14.jpg,MS,2,num_8,32,num_6,1.01681897021,,,2017_Jul_31_1424,60.012646235,FEMA4ImagesEEG,001,201038,
AFNE01.JPG,AFNE01.JPG,AFNE01.JPG,AFNE01.JPG,AFNE01.JPG,AFNE01.JPG,,,,,4,9,49,7,,,,,,,,,,,,,,,,,,,AMSA05.jpg,AMNE11.jpg,AMNE08.jpg,AMSA02.jpg,AMNE08.jpg,MN,1,num_2,16,num_2,0.583514471306,,,2017_Jul_31_1424,60.012646235,FEMA4ImagesEEG,001,201038,
AFNE01.JPG,AFNE01.JPG,AFNE01.JPG,AFNE01.JPG,AFNE01.JPG,AFNE01.JPG,,,,,5,0,50,9,,,,,,,,,,,,,,,,,,,AMNE15.jpg,AMNE13.jpg,AMSA19.jpg,AMSA20.jpg,AMNE15.jpg,MN,1,num_8,16,num_8,0.733480360592,,,2017_Jul_31_1424,60.012646235,FEMA4ImagesEEG,001,201038,
AFNE01.JPG,AFNE01.JPG,AFNE01.JPG,AFNE01.JPG,AFNE01.JPG,AFNE01.JPG,,,,,5,1,51,7,,,,,,,,,,,,,,,,,,,AMSA14.jpg,AMNE14.jpg,AMNE02.jpg,AMSA01.jpg,AMNE14.jpg,MN,1,num_6,32,num_8,0.850115899462,,,2017_Jul_31_1424,60.012646235,FEMA4ImagesEEG,001,201038,
AFNE01.JPG,AFNE01.JPG,AFNE01.JPG,AFNE01.JPG,AFNE01.JPG,AFNE01.JPG,,,,,5,2,52,0,,,,,,,,,,,,,,,,,,,AMNE12.jpg,AMSA01.jpg,AMSA05.jpg,AMNE06.jpg,AMNE12.jpg,MN,1,num_8,16,num_8,0.816774964565,,,2017_Jul_31_1424,60.012646235,FEMA4ImagesEEG,001,201038,
AFNE01.JPG,AFNE01.JPG,AFNE01.JPG,AFNE01.JPG,AFNE01.JPG,AFNE01.JPG,,,,,5,3,53,1,,,,,,,,,,,,,,,,,,,AMNE04.jpg,AMNE08.jpg,AMSA03.jpg,AMSA09.jpg,AMNE04.jpg,MN,1,num_8,32,num_6,1.05010281317,,,2017_Jul_31_1424,60.012646235,FEMA4ImagesEEG,001,201038,
AFNE01.JPG,AFNE01.JPG,AFNE01.JPG,AFNE01.JPG,AFNE01.JPG,AFNE01.JPG,,,,,5,4,54,3,,,,,,,,,,,,,,,,,,,AMSA19.jpg,AMNE17.jpg,AMSA07.jpg,AMNE11.jpg,AMNE17.jpg,MN,1,num_6,16,num_6,0.916736507788,,,2017_Jul_31_1424,60.012646235,FEMA4ImagesEEG,001,201038,
AFNE01.JPG,AFNE01.JPG,AFNE01.JPG,AFNE01.JPG,AFNE01.JPG,AFNE01.JPG,,,,,5,5,55,5,,,,,,,,,,,,,,,,,,,AMNE07.jpg,AMNE18.jpg,AMSA15.jpg,AMSA13.jpg,AMNE18.jpg,MN,1,num_6,32,num_8,0.866754613584,,,2017_Jul_31_1424,60.012646235,FEMA4ImagesEEG,001,201038,
AFNE01.JPG,AFNE01.JPG,AFNE01.JPG,AFNE01.JPG,AFNE01.JPG,AFNE01.JPG,,,,,5,6,56,8,,,,,,,,,,,,,,,,,,,AMSA15.jpg,AMNE19.jpg,AMNE03.jpg,AMSA10.jpg,AMSA15.jpg,MS,2,num_8,32,num_4,0.800119571853,,,2017_Jul_31_1424,60.012646235,FEMA4ImagesEEG,001,201038,
AFNE01.JPG,AFNE01.JPG,AFNE01.JPG,AFNE01.JPG,AFNE01.JPG,AFNE01.JPG,,,,,5,7,57,4,,,,,,,,,,,,,,,,,,,AMNE07.jpg,AMNE20.jpg,AMSA12.jpg,AMSA02.jpg,AMNE20.jpg,MN,1,num_6,48,None,,,,2017_Jul_31_1424,60.012646235,FEMA4ImagesEEG,001,201038,
AFNE01.JPG,AFNE01.JPG,AFNE01.JPG,AFNE01.JPG,AFNE01.JPG,AFNE01.JPG,,,,,5,8,58,2,,,,,,,,,,,,,,,,,,,AMNE13.jpg,AMNE01.jpg,AMSA05.jpg,AMSA07.jpg,AMSA07.jpg,MS,2,num_4,16,num_4,0.600174354389,,,2017_Jul_31_1424,60.012646235,FEMA4ImagesEEG,001,201038,
AFNE01.JPG,AFNE01.JPG,AFNE01.JPG,AFNE01.JPG,AFNE01.JPG,AFNE01.JPG,,,,,5,9,59,6,,,,,,,,,,,,,,,,,,,AMNE01.jpg,AMSA15.jpg,AMSA08.jpg,AMNE02.jpg,AMSA15.jpg,MS,2,num_6,32,num_8,0.850088636391,,,2017_Jul_31_1424,60.012646235,FEMA4ImagesEEG,001,201038,
,,,,,,,,,,,,,,,,,,,,,,,,,,,,,,,,,,,,,,,,,,,space,23.2653585603,2017_Jul_31_1424,60.012646235,FEMA4ImagesEEG,001,201038,
AFNE01.JPG,AFNE01.JPG,AFNE01.JPG,AFNE01.JPG,AFNE01.JPG,AFNE01.JPG,,,,,,,,,0,0,0,0,,,,,,,,,,,,,,,AFNE01.jpg,AFSA15.jpg,AFNE02.jpg,AFSA20.jpg,AFNE02.jpg,FN,3,num_2,32,num_8,0.783477329416,,,2017_Jul_31_1424,60.012646235,FEMA4ImagesEEG,001,201038,
AFNE01.JPG,AFNE01.JPG,AFNE01.JPG,AFNE01.JPG,AFNE01.JPG,AFNE01.JPG,,,,,,,,,0,1,1,4,,,,,,,,,,,,,,,AFNE04.jpg,AFSA19.jpg,AFNE06.jpg,AFSA02.jpg,AFSA19.jpg,FS,4,num_6,16,num_6,0.366836883361,,,2017_Jul_31_1424,60.012646235,FEMA4ImagesEEG,001,201038,
AFNE01.JPG,AFNE01.JPG,AFNE01.JPG,AFNE01.JPG,AFNE01.JPG,AFNE01.JPG,,,,,,,,,0,2,2,9,,,,,,,,,,,,,,,AFSA02.jpg,AFNE11.jpg,AFSA15.jpg,AFNE20.jpg,AFNE11.jpg,FN,3,num_6,32,num_8,0.63341650134,,,2017_Jul_31_1424,60.012646235,FEMA4ImagesEEG,001,201038,
AFNE01.JPG,AFNE01.JPG,AFNE01.JPG,AFNE01.JPG,AFNE01.JPG,AFNE01.JPG,,,,,,,,,0,3,3,8,,,,,,,,,,,,,,,AFNE10.jpg,AFNE15.jpg,AFSA08.jpg,AFSA16.jpg,AFSA08.jpg,FS,4,num_2,16,num_2,0.516782245366,,,2017_Jul_31_1424,60.012646235,FEMA4ImagesEEG,001,201038,
AFNE01.JPG,AFNE01.JPG,AFNE01.JPG,AFNE01.JPG,AFNE01.JPG,AFNE01.JPG,,,,,,,,,0,4,4,1,,,,,,,,,,,,,,,AFNE07.jpg,AFNE13.jpg,AFSA03.jpg,AFSA11.jpg,AFNE07.jpg,FN,3,num_8,16,num_8,0.866758462274,,,2017_Jul_31_1424,60.012646235,FEMA4ImagesEEG,001,201038,
AFNE01.JPG,AFNE01.JPG,AFNE01.JPG,AFNE01.JPG,AFNE01.JPG,AFNE01.JPG,,,,,,,,,0,5,5,2,,,,,,,,,,,,,,,AFNE15.jpg,AFSA09.jpg,AFSA17.jpg,AFNE07.jpg,AFSA17.jpg,FS,4,num_2,32,num_6,0.616906082956,,,2017_Jul_31_1424,60.012646235,FEMA4ImagesEEG,001,201038,
AFNE01.JPG,AFNE01.JPG,AFNE01.JPG,AFNE01.JPG,AFNE01.JPG,AFNE01.JPG,,,,,,,,,0,6,6,6,,,,,,,,,,,,,,,AFNE03.jpg,AFNE10.jpg,AFSA16.jpg,AFSA18.jpg,AFNE03.jpg,FN,3,num_8,32,num_6,0.749876915943,,,2017_Jul_31_1424,60.012646235,FEMA4ImagesEEG,001,201038,
AFNE01.JPG,AFNE01.JPG,AFNE01.JPG,AFNE01.JPG,AFNE01.JPG,AFNE01.JPG,,,,,,,,,0,7,7,3,,,,,,,,,,,,,,,AFSA19.jpg,AFSA07.jpg,AFNE07.jpg,AFNE10.jpg,AFSA07.jpg,FS,4,num_6,32,num_2,1.28372702561,,,2017_Jul_31_1424,60.012646235,FEMA4ImagesEEG,001,201038,
AFNE01.JPG,AFNE01.JPG,AFNE01.JPG,AFNE01.JPG,AFNE01.JPG,AFNE01.JPG,,,,,,,,,0,8,8,7,,,,,,,,,,,,,,,AFSA01.jpg,AFNE01.jpg,AFSA17.jpg,AFNE16.jpg,AFNE16.jpg,FN,3,num_4,32,num_8,1.56528328243,,,2017_Jul_31_1424,60.012646235,FEMA4ImagesEEG,001,201038,
AFNE01.JPG,AFNE01.JPG,AFNE01.JPG,AFNE01.JPG,AFNE01.JPG,AFNE01.JPG,,,,,,,,,0,9,9,5,,,,,,,,,,,,,,,AFNE04.jpg,AFSA09.jpg,AFNE18.jpg,AFSA06.jpg,AFSA09.jpg,FS,4,num_6,32,num_4,1.43342766305,,,2017_Jul_31_1424,60.012646235,FEMA4ImagesEEG,001,201038,
AFNE01.JPG,AFNE01.JPG,AFNE01.JPG,AFNE01.JPG,AFNE01.JPG,AFNE01.JPG,,,,,,,,,1,0,10,0,,,,,,,,,,,,,,,AFNE11.jpg,AFSA01.jpg,AFSA12.jpg,AFNE14.jpg,AFNE11.jpg,FN,3,num_8,16,num_8,1.06672549038,,,2017_Jul_31_1424,60.012646235,FEMA4ImagesEEG,001,201038,
AFNE01.JPG,AFNE01.JPG,AFNE01.JPG,AFNE01.JPG,AFNE01.JPG,AFNE01.JPG,,,,,,,,,1,1,11,5,,,,,,,,,,,,,,,AFNE05.jpg,AFSA19.jpg,AFNE13.jpg,AFSA16.jpg,AFSA19.jpg,FS,4,num_6,16,num_6,0.716777498368,,,2017_Jul_31_1424,60.012646235,FEMA4ImagesEEG,001,201038,
AFNE01.JPG,AFNE01.JPG,AFNE01.JPG,AFNE01.JPG,AFNE01.JPG,AFNE01.JPG,,,,,,,,,1,2,12,2,,,,,,,,,,,,,,,AFNE14.jpg,AFSA04.jpg,AFSA09.jpg,AFNE05.jpg,AFNE14.jpg,FN,3,num_8,16,num_8,0.850093768444,,,2017_Jul_31_1424,60.012646235,FEMA4ImagesEEG,001,201038,
AFNE01.JPG,AFNE01.JPG,AFNE01.JPG,AFNE01.JPG,AFNE01.JPG,AFNE01.JPG,,,,,,,,,1,3,13,4,,,,,,,,,,,,,,,AFNE16.jpg,AFSA20.jpg,AFSA11.jpg,AFNE07.jpg,AFNE16.jpg,FN,3,num_8,32,num_4,0.966776455985,,,2017_Jul_31_1424,60.012646235,FEMA4ImagesEEG,001,201038,
AFNE01.JPG,AFNE01.JPG,AFNE01.JPG,AFNE01.JPG,AFNE01.JPG,AFNE01.JPG,,,,,,,,,1,4,14,1,,,,,,,,,,,,,,,AFSA16.jpg,AFNE19.jpg,AFSA08.jpg,AFNE16.jpg,AFNE16.jpg,FN,3,num_4,16,num_4,2.06667802087,,,2017_Jul_31_1424,60.012646235,FEMA4ImagesEEG,001,201038,
AFNE01.JPG,AFNE01.JPG,AFNE01.JPG,AFNE01.JPG,AFNE01.JPG,AFNE01.JPG,,,,,,,,,1,5,15,7,,,,,,,,,,,,,,,AFSA01.jpg,AFNE05.jpg,AFSA03.jpg,AFNE14.jpg,AFSA03.jpg,FS,4,num_2,16,num_2,0.983436339069,,,2017_Jul_31_1424,60.012646235,FEMA4ImagesEEG,001,201038,
AFNE01.JPG,AFNE01.JPG,AFNE01.JPG,AFNE01.JPG,AFNE01.JPG,AFNE01.JPG,,,,,,,,,1,6,16,8,,,,,,,,,,,,,,,AFSA05.jpg,AFNE05.jpg,AFNE04.jpg,AFSA10.jpg,AFSA05.jpg,FS,4,num_8,16,num_8,1.16672905069,,,2017_Jul_31_1424,60.012646235,FEMA4ImagesEEG,001,201038,
AFNE01.JPG,AFNE01.JPG,AFNE01.JPG,AFNE01.JPG,AFNE01.JPG,AFNE01.JPG,,,,,,,,,1,7,17,6,,,,,,,,,,,,,,,AFNE19.jpg,AFSA07.jpg,AFNE15.jpg,AFSA10.jpg,AFNE15.jpg,FN,3,num_2,16,num_2,0.633513685549,,,2017_Jul_31_1424,60.012646235,FEMA4ImagesEEG,001,201038,
AFNE01.JPG,AFNE01.JPG,AFNE01.JPG,AFNE01.JPG,AFNE01.JPG,AFNE01.JPG,,,,,,,,,1,8,18,3,,,,,,,,,,,,,,,AFSA18.jpg,AFNE07.jpg,AFNE12.jpg,AFSA05.jpg,AFSA18.jpg,FS,4,num_8,16,num_8,0.666799453087,,,2017_Jul_31_1424,60.012646235,FEMA4ImagesEEG,001,201038,
AFNE01.JPG,AFNE01.JPG,AFNE01.JPG,AFNE01.JPG,AFNE01.JPG,AFNE01.JPG,,,,,,,,,1,9,19,9,,,,,,,,,,,,,,,AFSA17.jpg,AFNE17.jpg,AFNE07.jpg,AFSA03.jpg,AFNE17.jpg,FN,3,num_6,32,num_4,0.833499636967,,,2017_Jul_31_1424,60.012646235,FEMA4ImagesEEG,001,201038,
AFNE01.JPG,AFNE01.JPG,AFNE01.JPG,AFNE01.JPG,AFNE01.JPG,AFNE01.JPG,,,,,,,,,2,0,20,0,,,,,,,,,,,,,,,AFNE17.jpg,AFNE07.jpg,AFSA05.jpg,AFSA09.jpg,AFNE17.jpg,FN,3,num_8,16,num_8,1.03344838275,,,2017_Jul_31_1424,60.012646235,FEMA4ImagesEEG,001,201038,
AFNE01.JPG,AFNE01.JPG,AFNE01.JPG,AFNE01.JPG,AFNE01.JPG,AFNE01.JPG,,,,,,,,,2,1,21,2,,,,,,,,,,,,,,,AFSA18.jpg,AFNE20.jpg,AFSA12.jpg,AFNE07.jpg,AFNE07.jpg,FN,3,num_4,32,num_6,0.783447179943,,,2017_Jul_31_1424,60.012646235,FEMA4ImagesEEG,001,201038,
AFNE01.JPG,AFNE01.JPG,AFNE01.JPG,AFNE01.JPG,AFNE01.JPG,AFNE01.JPG,,,,,,,,,2,2,22,4,,,,,,,,,,,,,,,AFNE20.jpg,AFSA20.jpg,AFNE06.jpg,AFSA03.jpg,AFSA03.jpg,FS,4,num_4,16,num_4,0.816772398772,,,2017_Jul_31_1424,60.012646235,FEMA4ImagesEEG,001,201038,
AFNE01.JPG,AFNE01.JPG,AFNE01.JPG,AFNE01.JPG,AFNE01.JPG,AFNE01.JPG,,,,,,,,,2,3,23,9,,,,,,,,,,,,,,,AFNE11.jpg,AFSA20.jpg,AFNE03.jpg,AFSA17.jpg,AFSA20.jpg,FS,4,num_6,32,num_2,1.1833716135,,,2017_Jul_31_1424,60.012646235,FEMA4ImagesEEG,001,201038,
AFNE01.JPG,AFNE01.JPG,AFNE01.JPG,AFNE01.JPG,AFNE01.JPG,AFNE01.JPG,,,,,,,,,2,4,24,8,,,,,,,,,,,,,,,AFNE09.jpg,AFSA06.jpg,AFSA01.jpg,AFNE03.jpg,AFNE03.jpg,FN,3,num_4,16,num_4,1.99988100538,,,2017_Jul_31_1424,60.012646235,FEMA4ImagesEEG,001,201038,
AFNE01.JPG,AFNE01.JPG,AFNE01.JPG,AFNE01.JPG,AFNE01.JPG,AFNE01.JPG,,,,,,,,,2,5,25,6,,,,,,,,,,,,,,,AFSA02.jpg,AFSA04.jpg,AFNE02.jpg,AFNE07.jpg,AFSA02.jpg,FS,4,num_8,32,num_2,1.70013172785,,,2017_Jul_31_1424,60.012646235,FEMA4ImagesEEG,001,201038,
AFNE01.JPG,AFNE01.JPG,AFNE01.JPG,AFNE01.JPG,AFNE01.JPG,AFNE01.JPG,,,,,,,,,2,6,26,5,,,,,,,,,,,,,,,AFNE04.jpg,AFSA04.jpg,AFSA06.jpg,AFNE19.jpg,AFNE19.jpg,FN,3,num_4,16,num_4,1.10011742311,,,2017_Jul_31_1424,60.012646235,FEMA4ImagesEEG,001,201038,
AFNE01.JPG,AFNE01.JPG,AFNE01.JPG,AFNE01.JPG,AFNE01.JPG,AFNE01.JPG,,,,,,,,,2,7,27,7,,,,,,,,,,,,,,,AFNE14.jpg,AFSA14.jpg,AFSA03.jpg,AFNE03.jpg,AFNE03.jpg,FN,3,num_4,16,num_4,1.73336746008,,,2017_Jul_31_1424,60.012646235,FEMA4ImagesEEG,001,201038,
AFNE01.JPG,AFNE01.JPG,AFNE01.JPG,AFNE01.JPG,AFNE01.JPG,AFNE01.JPG,,,,,,,,,2,8,28,1,,,,,,,,,,,,,,,AFNE20.jpg,AFSA12.jpg,AFNE04.jpg,AFSA10.jpg,AFNE20.jpg,FN,3,num_8,16,num_8,0.88343951432,,,2017_Jul_31_1424,60.012646235,FEMA4ImagesEEG,001,201038,
AFNE01.JPG,AFNE01.JPG,AFNE01.JPG,AFNE01.JPG,AFNE01.JPG,AFNE01.JPG,,,,,,,,,2,9,29,3,,,,,,,,,,,,,,,AFSA09.jpg,AFNE05.jpg,AFNE15.jpg,AFSA14.jpg,AFNE15.jpg,FN,3,num_2,16,num_2,0.750163978431,,,2017_Jul_31_1424,60.012646235,FEMA4ImagesEEG,001,201038,
AFNE01.JPG,AFNE01.JPG,AFNE01.JPG,AFNE01.JPG,AFNE01.JPG,AFNE01.JPG,,,,,,,,,3,0,30,0,,,,,,,,,,,,,,,AFSA12.jpg,AFNE01.jpg,AFNE06.jpg,AFSA16.jpg,AFSA12.jpg,FS,4,num_8,32,num_2,0.800088460092,,,2017_Jul_31_1424,60.012646235,FEMA4ImagesEEG,001,201038,
AFNE01.JPG,AFNE01.JPG,AFNE01.JPG,AFNE01.JPG,AFNE01.JPG,AFNE01.JPG,,,,,,,,,3,1,31,3,,,,,,,,,,,,,,,AFSA14.jpg,AFNE19.jpg,AFSA08.jpg,AFNE03.jpg,AFSA14.jpg,FS,4,num_8,16,num_8,0.666797207901,,,2017_Jul_31_1424,60.012646235,FEMA4ImagesEEG,001,201038,
AFNE01.JPG,AFNE01.JPG,AFNE01.JPG,AFNE01.JPG,AFNE01.JPG,AFNE01.JPG,,,,,,,,,3,2,32,9,,,,,,,,,,,,,,,AFNE11.jpg,AFNE04.jpg,AFSA10.jpg,AFSA18.jpg,AFSA10.jpg,FS,4,num_2,32,num_8,0.949969032547,,,2017_Jul_31_1424,60.012646235,FEMA4ImagesEEG,001,201038,
AFNE01.JPG,AFNE01.JPG,AFNE01.JPG,AFNE01.JPG,AFNE01.JPG,AFNE01.JPG,,,,,,,,,3,3,33,1,,,,,,,,,,,,,,,AFNE11.jpg,AFNE02.jpg,AFSA20.jpg,AFSA08.jpg,AFSA20.jpg,FS,4,num_2,32,num_8,0.583459624788,,,2017_Jul_31_1424,60.012646235,FEMA4ImagesEEG,001,201038,
AFNE01.JPG,AFNE01.JPG,AFNE01.JPG,AFNE01.JPG,AFNE01.JPG,AFNE01.JPG,,,,,,,,,3,4,34,2,,,,,,,,,,,,,,,AFNE06.jpg,AFSA07.jpg,AFNE19.jpg,AFSA12.jpg,AFNE19.jpg,FN,3,num_2,32,num_8,0.516831318615,,,2017_Jul_31_1424,60.012646235,FEMA4ImagesEEG,001,201038,
AFNE01.JPG,AFNE01.JPG,AFNE01.JPG,AFNE01.JPG,AFNE01.JPG,AFNE01.JPG,,,,,,,,,3,5,35,5,,,,,,,,,,,,,,,AFSA12.jpg,AFNE02.jpg,AFSA04.jpg,AFNE14.jpg,AFSA04.jpg,FS,4,num_2,32,num_6,0.650139249396,,,2017_Jul_31_1424,60.012646235,FEMA4ImagesEEG,001,201038,
AFNE01.JPG,AFNE01.JPG,AFNE01.JPG,AFNE01.JPG,AFNE01.JPG,AFNE01.JPG,,,,,,,,,3,6,36,8,,,,,,,,,,,,,,,AFNE05.jpg,AFSA09.jpg,AFNE17.jpg,AFSA01.jpg,AFSA09.jpg,FS,4,num_6,32,num_2,0.666795283323,,,2017_Jul_31_1424,60.012646235,FEMA4ImagesEEG,001,201038,
AFNE01.JPG,AFNE01.JPG,AFNE01.JPG,AFNE01.JPG,AFNE01.JPG,AFNE01.JPG,,,,,,,,,3,7,37,6,,,,,,,,,,,,,,,AFSA17.jpg,AFNE09.jpg,AFSA20.jpg,AFNE08.jpg,AFSA20.jpg,FS,4,num_2,16,num_2,0.716768517625,,,2017_Jul_31_1424,60.012646235,FEMA4ImagesEEG,001,201038,
AFNE01.JPG,AFNE01.JPG,AFNE01.JPG,AFNE01.JPG,AFNE01.JPG,AFNE01.JPG,,,,,,,,,3,8,38,4,,,,,,,,,,,,,,,AFSA06.jpg,AFNE08.jpg,AFSA12.jpg,AFNE16.jpg,AFNE16.jpg,FN,3,num_4,32,num_8,0.650141494581,,,2017_Jul_31_1424,60.012646235,FEMA4ImagesEEG,001,201038,
AFNE01.JPG,AFNE01.JPG,AFNE01.JPG,AFNE01.JPG,AFNE01.JPG,AFNE01.JPG,,,,,,,,,3,9,39,7,,,,,,,,,,,,,,,AFSA17.jpg,AFNE06.jpg,AFSA05.jpg,AFNE10.jpg,AFNE06.jpg,FN,3,num_6,16,num_6,0.750016758684,,,2017_Jul_31_1424,60.012646235,FEMA4ImagesEEG,001,201038,
AFNE01.JPG,AFNE01.JPG,AFNE01.JPG,AFNE01.JPG,AFNE01.JPG,AFNE01.JPG,,,,,,,,,4,0,40,3,,,,,,,,,,,,,,,AFSA15.jpg,AFNE02.jpg,AFSA09.jpg,AFNE20.jpg,AFSA15.jpg,FS,4,num_8,16,num_8,0.616813389119,,,2017_Jul_31_1424,60.012646235,FEMA4ImagesEEG,001,201038,
AFNE01.JPG,AFNE01.JPG,AFNE01.JPG,AFNE01.JPG,AFNE01.JPG,AFNE01.JPG,,,,,,,,,4,1,41,8,,,,,,,,,,,,,,,AFNE06.jpg,AFSA09.jpg,AFNE03.jpg,AFSA02.jpg,AFNE06.jpg,FN,3,num_8,32,num_4,0.816819868283,,,2017_Jul_31_1424,60.012646235,FEMA4ImagesEEG,001,201038,
AFNE01.JPG,AFNE01.JPG,AFNE01.JPG,AFNE01.JPG,AFNE01.JPG,AFNE01.JPG,,,,,,,,,4,2,42,0,,,,,,,,,,,,,,,AFNE11.jpg,AFNE09.jpg,AFSA16.jpg,AFSA04.jpg,AFSA04.jpg,FS,4,num_4,32,num_6,1.18346623215,,,2017_Jul_31_1424,60.012646235,FEMA4ImagesEEG,001,201038,
AFNE01.JPG,AFNE01.JPG,AFNE01.JPG,AFNE01.JPG,AFNE01.JPG,AFNE01.JPG,,,,,,,,,4,3,43,1,,,,,,,,,,,,,,,AFNE16.jpg,AFSA14.jpg,AFSA05.jpg,AFNE05.jpg,AFNE16.jpg,FN,3,num_8,32,num_4,0.766811993904,,,2017_Jul_31_1424,60.012646235,FEMA4ImagesEEG,001,201038,
AFNE01.JPG,AFNE01.JPG,AFNE01.JPG,AFNE01.JPG,AFNE01.JPG,AFNE01.JPG,,,,,,,,,4,4,44,6,,,,,,,,,,,,,,,AFSA19.jpg,AFSA15.jpg,AFNE16.jpg,AFNE02.jpg,AFSA19.jpg,FS,4,num_8,16,num_8,0.78313702438,,,2017_Jul_31_1424,60.012646235,FEMA4ImagesEEG,001,201038,
AFNE01.JPG,AFNE01.JPG,AFNE01.JPG,AFNE01.JPG,AFNE01.JPG,AFNE01.JPG,,,,,,,,,4,5,45,7,,,,,,,,,,,,,,,AFNE17.jpg,AFSA03.jpg,AFSA13.jpg,AFNE08.jpg,AFNE17.jpg,FN,3,num_8,32,num_4,0.883458437864,,,2017_Jul_31_1424,60.012646235,FEMA4ImagesEEG,001,201038,
AFNE01.JPG,AFNE01.JPG,AFNE01.JPG,AFNE01.JPG,AFNE01.JPG,AFNE01.JPG,,,,,,,,,4,6,46,5,,,,,,,,,,,,,,,AFSA10.jpg,AFNE01.jpg,AFNE09.jpg,AFSA19.jpg,AFNE09.jpg,FN,3,num_2,16,num_2,0.650273960084,,,2017_Jul_31_1424,60.012646235,FEMA4ImagesEEG,001,201038,
AFNE01.JPG,AFNE01.JPG,AFNE01.JPG,AFNE01.JPG,AFNE01.JPG,AFNE01.JPG,,,,,,,,,4,7,47,9,,,,,,,,,,,,,,,AFSA06.jpg,AFSA03.jpg,AFNE20.jpg,AFNE17.jpg,AFNE17.jpg,FN,3,num_4,32,num_8,0.950362901203,,,2017_Jul_31_1424,60.012646235,FEMA4ImagesEEG,001,201038,
AFNE01.JPG,AFNE01.JPG,AFNE01.JPG,AFNE01.JPG,AFNE01.JPG,AFNE01.JPG,,,,,,,,,4,8,48,4,,,,,,,,,,,,,,,AFSA03.jpg,AFNE12.jpg,AFNE19.jpg,AFSA08.jpg,AFNE12.jpg,FN,3,num_6,32,num_2,1.25018017576,,,2017_Jul_31_1424,60.012646235,FEMA4ImagesEEG,001,201038,
AFNE01.JPG,AFNE01.JPG,AFNE01.JPG,AFNE01.JPG,AFNE01.JPG,AFNE01.JPG,,,,,,,,,4,9,49,2,,,,,,,,,,,,,,,AFSA04.jpg,AFSA17.jpg,AFNE06.jpg,AFNE15.jpg,AFSA17.jpg,FS,4,num_6,32,num_8,1.11677121185,,,2017_Jul_31_1424,60.012646235,FEMA4ImagesEEG,001,201038,
AFNE01.JPG,AFNE01.JPG,AFNE01.JPG,AFNE01.JPG,AFNE01.JPG,AFNE01.JPG,,,,,,,,,5,0,50,2,,,,,,,,,,,,,,,AFNE18.jpg,AFNE11.jpg,AFSA16.jpg,AFSA10.jpg,AFSA10.jpg,FS,4,num_4,16,num_4,0.700244628591,,,2017_Jul_31_1424,60.012646235,FEMA4ImagesEEG,001,201038,
AFNE01.JPG,AFNE01.JPG,AFNE01.JPG,AFNE01.JPG,AFNE01.JPG,AFNE01.JPG,,,,,,,,,5,1,51,4,,,,,,,,,,,,,,,AFNE03.jpg,AFSA08.jpg,AFSA13.jpg,AFNE07.jpg,AFNE03.jpg,FN,3,num_8,32,num_2,1.06708151195,,,2017_Jul_31_1424,60.012646235,FEMA4ImagesEEG,001,201038,
AFNE01.JPG,AFNE01.JPG,AFNE01.JPG,AFNE01.JPG,AFNE01.JPG,AFNE01.JPG,,,,,,,,,5,2,52,3,,,,,,,,,,,,,,,AFSA01.jpg,AFNE16.jpg,AFSA16.jpg,AFNE02.jpg,AFSA16.jpg,FS,4,num_2,32,num_8,0.850149577251,,,2017_Jul_31_1424,60.012646235,FEMA4ImagesEEG,001,201038,
AFNE01.JPG,AFNE01.JPG,AFNE01.JPG,AFNE01.JPG,AFNE01.JPG,AFNE01.JPG,,,,,,,,,5,3,53,9,,,,,,,,,,,,,,,AFSA07.jpg,AFNE15.jpg,AFSA12.jpg,AFNE20.jpg,AFNE15.jpg,FN,3,num_6,32,num_4,1.0501053792,,,2017_Jul_31_1424,60.012646235,FEMA4ImagesEEG,001,201038,
AFNE01.JPG,AFNE01.JPG,AFNE01.JPG,AFNE01.JPG,AFNE01.JPG,AFNE01.JPG,,,,,,,,,5,4,54,5,,,,,,,,,,,,,,,AFNE10.jpg,AFSA20.jpg,AFNE09.jpg,AFSA05.jpg,AFNE10.jpg,FN,3,num_8,32,num_6,0.800164154964,,,2017_Jul_31_1424,60.012646235,FEMA4ImagesEEG,001,201038,
AFNE01.JPG,AFNE01.JPG,AFNE01.JPG,AFNE01.JPG,AFNE01.JPG,AFNE01.JPG,,,,,,,,,5,5,55,8,,,,,,,,,,,,,,,AFSA13.jpg,AFNE14.jpg,AFSA07.jpg,AFNE09.jpg,AFNE09.jpg,FN,3,num_4,32,num_8,0.683475693688,,,2017_Jul_31_1424,60.012646235,FEMA4ImagesEEG,001,201038,
AFNE01.JPG,AFNE01.JPG,AFNE01.JPG,AFNE01.JPG,AFNE01.JPG,AFNE01.JPG,,,,,,,,,5,6,56,6,,,,,,,,,,,,,,,AFSA16.jpg,AFNE08.jpg,AFNE09.jpg,AFSA12.jpg,AFSA12.jpg,FS,4,num_4,32,num_2,0.683471203549,,,2017_Jul_31_1424,60.012646235,FEMA4ImagesEEG,001,201038,
AFNE01.JPG,AFNE01.JPG,AFNE01.JPG,AFNE01.JPG,AFNE01.JPG,AFNE01.JPG,,,,,,,,,5,7,57,0,,,,,,,,,,,,,,,AFSA08.jpg,AFNE15.jpg,AFSA05.jpg,AFNE09.jpg,AFSA08.jpg,FS,4,num_8,16,num_8,0.650204038946,,,2017_Jul_31_1424,60.012646235,FEMA4ImagesEEG,001,201038,
AFNE01.JPG,AFNE01.JPG,AFNE01.JPG,AFNE01.JPG,AFNE01.JPG,AFNE01.JPG,,,,,,,,,5,8,58,7,,,,,,,,,,,,,,,AFSA09.jpg,AFSA13.jpg,AFNE04.jpg,AFNE15.jpg,AFNE04.jpg,FN,3,num_2,32,num_4,0.566827646224,,,2017_Jul_31_1424,60.012646235,FEMA4ImagesEEG,001,201038,
AFNE01.JPG,AFNE01.JPG,AFNE01.JPG,AFNE01.JPG,AFNE01.JPG,AFNE01.JPG,,,,,,,,,5,9,59,1,,,,,,,,,,,,,,,AFSA20.jpg,AFNE20.jpg,AFNE17.jpg,AFSA09.jpg,AFNE17.jpg,FN,3,num_2,32,num_6,0.816754437285,,,2017_Jul_31_1424,60.012646235,FEMA4ImagesEEG,001,201038,
,,,,,,,,,,,,,,,,,,,,,,,,,,,,,,,,,,,,,,,,,,,space,17.5988747154,2017_Jul_31_1424,60.012646235,FEMA4ImagesEEG,001,201038,
AFNE01.JPG,AFNE01.JPG,AFNE01.JPG,AFNE01.JPG,AFNE01.JPG,AFNE01.JPG,,,,,,,,,,,,,0,0,0,6,,,,,,,,,,,AMSA11.jpg,AMSA09.jpg,AMNE15.jpg,AMNE03.jpg,AMNE03.jpg,MN,1,num_4,32,num_8,0.600130733801,,,2017_Jul_31_1424,60.012646235,FEMA4ImagesEEG,001,201038,
AFNE01.JPG,AFNE01.JPG,AFNE01.JPG,AFNE01.JPG,AFNE01.JPG,AFNE01.JPG,,,,,,,,,,,,,0,1,1,7,,,,,,,,,,,AMNE06.jpg,AMSA08.jpg,AMNE17.jpg,AMSA05.jpg,AMNE17.jpg,MN,1,num_2,32,num_4,0.850116540911,,,2017_Jul_31_1424,60.012646235,FEMA4ImagesEEG,001,201038,
AFNE01.JPG,AFNE01.JPG,AFNE01.JPG,AFNE01.JPG,AFNE01.JPG,AFNE01.JPG,,,,,,,,,,,,,0,2,2,4,,,,,,,,,,,AMNE14.jpg,AMNE18.jpg,AMSA20.jpg,AMSA03.jpg,AMNE18.jpg,MN,1,num_6,32,num_8,0.633469102671,,,2017_Jul_31_1424,60.012646235,FEMA4ImagesEEG,001,201038,
AFNE01.JPG,AFNE01.JPG,AFNE01.JPG,AFNE01.JPG,AFNE01.JPG,AFNE01.JPG,,,,,,,,,,,,,0,3,3,2,,,,,,,,,,,AMSA01.jpg,AMNE13.jpg,AMNE12.jpg,AMSA17.jpg,AMSA01.jpg,MS,2,num_8,32,num_4,0.666764492402,,,2017_Jul_31_1424,60.012646235,FEMA4ImagesEEG,001,201038,
AFNE01.JPG,AFNE01.JPG,AFNE01.JPG,AFNE01.JPG,AFNE01.JPG,AFNE01.JPG,,,,,,,,,,,,,0,4,4,8,,,,,,,,,,,AMSA07.jpg,AMNE06.jpg,AMNE11.jpg,AMSA14.jpg,AMSA14.jpg,MS,2,num_4,16,num_4,0.550119331572,,,2017_Jul_31_1424,60.012646235,FEMA4ImagesEEG,001,201038,
AFNE01.JPG,AFNE01.JPG,AFNE01.JPG,AFNE01.JPG,AFNE01.JPG,AFNE01.JPG,,,,,,,,,,,,,0,5,5,1,,,,,,,,,,,AMSA08.jpg,AMNE10.jpg,AMNE14.jpg,AMSA02.jpg,AMNE10.jpg,MN,1,num_6,32,num_2,0.716775253415,,,2017_Jul_31_1424,60.012646235,FEMA4ImagesEEG,001,201038,
AFNE01.JPG,AFNE01.JPG,AFNE01.JPG,AFNE01.JPG,AFNE01.JPG,AFNE01.JPG,,,,,,,,,,,,,0,6,6,0,,,,,,,,,,,AMSA11.jpg,AMSA05.jpg,AMNE06.jpg,AMNE01.jpg,AMSA05.jpg,MS,2,num_6,32,num_8,1.08356755367,,,2017_Jul_31_1424,60.012646235,FEMA4ImagesEEG,001,201038,
AFNE01.JPG,AFNE01.JPG,AFNE01.JPG,AFNE01.JPG,AFNE01.JPG,AFNE01.JPG,,,,,,,,,,,,,0,7,7,5,,,,,,,,,,,AMNE18.jpg,AMSA12.jpg,AMNE09.jpg,AMSA11.jpg,AMNE09.jpg,MN,1,num_2,16,num_2,0.933419483947,,,2017_Jul_31_1424,60.012646235,FEMA4ImagesEEG,001,201038,
AFNE01.JPG,AFNE01.JPG,AFNE01.JPG,AFNE01.JPG,AFNE01.JPG,AFNE01.JPG,,,,,,,,,,,,,0,8,8,3,,,,,,,,,,,AMSA10.jpg,AMSA12.jpg,AMNE20.jpg,AMNE18.jpg,AMSA10.jpg,MS,2,num_8,16,num_8,1.05011339765,,,2017_Jul_31_1424,60.012646235,FEMA4ImagesEEG,001,201038,
AFNE01.JPG,AFNE01.JPG,AFNE01.JPG,AFNE01.JPG,AFNE01.JPG,AFNE01.JPG,,,,,,,,,,,,,0,9,9,9,,,,,,,,,,,AMSA20.jpg,AMNE05.jpg,AMNE17.jpg,AMSA16.jpg,AMNE05.jpg,MN,1,num_6,16,num_6,0.583482397255,,,2017_Jul_31_1424,60.012646235,FEMA4ImagesEEG,001,201038,
AFNE01.JPG,AFNE01.JPG,AFNE01.JPG,AFNE01.JPG,AFNE01.JPG,AFNE01.JPG,,,,,,,,,,,,,1,0,10,1,,,,,,,,,,,AMNE15.jpg,AMSA01.jpg,AMSA12.jpg,AMNE14.jpg,AMSA12.jpg,MS,2,num_2,16,num_2,0.583290915471,,,2017_Jul_31_1424,60.012646235,FEMA4ImagesEEG,001,201038,
AFNE01.JPG,AFNE01.JPG,AFNE01.JPG,AFNE01.JPG,AFNE01.JPG,AFNE01.JPG,,,,,,,,,,,,,1,1,11,2,,,,,,,,,,,AMSA01.jpg,AMNE02.jpg,AMNE06.jpg,AMSA14.jpg,AMNE06.jpg,MN,1,num_2,32,num_8,0.700143274618,,,2017_Jul_31_1424,60.012646235,FEMA4ImagesEEG,001,201038,
AFNE01.JPG,AFNE01.JPG,AFNE01.JPG,AFNE01.JPG,AFNE01.JPG,AFNE01.JPG,,,,,,,,,,,,,1,2,12,8,,,,,,,,,,,AMSA09.jpg,AMSA05.jpg,AMNE12.jpg,AMNE11.jpg,AMNE11.jpg,MN,1,num_4,32,num_6,0.533499861602,,,2017_Jul_31_1424,60.012646235,FEMA4ImagesEEG,001,201038,
AFNE01.JPG,AFNE01.JPG,AFNE01.JPG,AFNE01.JPG,AFNE01.JPG,AFNE01.JPG,,,,,,,,,,,,,1,3,13,4,,,,,,,,,,,AMSA01.jpg,AMSA12.jpg,AMNE16.jpg,AMNE07.jpg,AMSA01.jpg,MS,2,num_8,32,num_4,0.983426075429,,,2017_Jul_31_1424,60.012646235,FEMA4ImagesEEG,001,201038,
AFNE01.JPG,AFNE01.JPG,AFNE01.JPG,AFNE01.JPG,AFNE01.JPG,AFNE01.JPG,,,,,,,,,,,,,1,4,14,5,,,,,,,,,,,AMNE01.jpg,AMNE13.jpg,AMSA16.jpg,AMSA17.jpg,AMSA17.jpg,MS,2,num_4,32,num_2,1.53343731724,,,2017_Jul_31_1424,60.012646235,FEMA4ImagesEEG,001,201038,
AFNE01.JPG,AFNE01.JPG,AFNE01.JPG,AFNE01.JPG,AFNE01.JPG,AFNE01.JPG,,,,,,,,,,,,,1,5,15,6,,,,,,,,,,,AMNE16.jpg,AMSA05.jpg,AMSA16.jpg,AMNE03.jpg,AMNE03.jpg,MN,1,num_4,32,num_8,0.700182084227,,,2017_Jul_31_1424,60.012646235,FEMA4ImagesEEG,001,201038,
AFNE01.JPG,AFNE01.JPG,AFNE01.JPG,AFNE01.JPG,AFNE01.JPG,AFNE01.JPG,,,,,,,,,,,,,1,6,16,9,,,,,,,,,,,AMSA04.jpg,AMNE01.jpg,AMNE07.jpg,AMSA08.jpg,AMSA08.jpg,MS,2,num_4,16,num_4,0.816743211122,,,2017_Jul_31_1424,60.012646235,FEMA4ImagesEEG,001,201038,
AFNE01.JPG,AFNE01.JPG,AFNE01.JPG,AFNE01.JPG,AFNE01.JPG,AFNE01.JPG,,,,,,,,,,,,,1,7,17,7,,,,,,,,,,,AMSA07.jpg,AMSA08.jpg,AMNE01.jpg,AMNE13.jpg,AMSA08.jpg,MS,2,num_6,16,num_6,0.950109516736,,,2017_Jul_31_1424,60.012646235,FEMA4ImagesEEG,001,201038,
AFNE01.JPG,AFNE01.JPG,AFNE01.JPG,AFNE01.JPG,AFNE01.JPG,AFNE01.JPG,,,,,,,,,,,,,1,8,18,0,,,,,,,,,,,AMNE05.jpg,AMNE08.jpg,AMSA20.jpg,AMSA03.jpg,AMNE08.jpg,MN,1,num_6,32,num_8,0.666862959508,,,2017_Jul_31_1424,60.012646235,FEMA4ImagesEEG,001,201038,
AFNE01.JPG,AFNE01.JPG,AFNE01.JPG,AFNE01.JPG,AFNE01.JPG,AFNE01.JPG,,,,,,,,,,,,,1,9,19,3,,,,,,,,,,,AMSA13.jpg,AMNE02.jpg,AMNE19.jpg,AMSA14.jpg,AMNE19.jpg,MN,1,num_2,32,num_4,0.933434238192,,,2017_Jul_31_1424,60.012646235,FEMA4ImagesEEG,001,201038,
AFNE01.JPG,AFNE01.JPG,AFNE01.JPG,AFNE01.JPG,AFNE01.JPG,AFNE01.JPG,,,,,,,,,,,,,2,0,20,1,,,,,,,,,,,AMNE17.jpg,AMSA15.jpg,AMSA04.jpg,AMNE20.jpg,AMNE20.jpg,MN,1,num_4,32,num_2,1.11676479713,,,2017_Jul_31_1424,60.012646235,FEMA4ImagesEEG,001,201038,
AFNE01.JPG,AFNE01.JPG,AFNE01.JPG,AFNE01.JPG,AFNE01.JPG,AFNE01.JPG,,,,,,,,,,,,,2,1,21,9,,,,,,,,,,,AMNE11.jpg,AMSA06.jpg,AMSA01.jpg,AMNE05.jpg,AMNE11.jpg,MN,1,num_8,16,num_8,0.733464644291,,,2017_Jul_31_1424,60.012646235,FEMA4ImagesEEG,001,201038,
AFNE01.JPG,AFNE01.JPG,AFNE01.JPG,AFNE01.JPG,AFNE01.JPG,AFNE01.JPG,,,,,,,,,,,,,2,2,22,7,,,,,,,,,,,AMSA03.jpg,AMSA09.jpg,AMNE20.jpg,AMNE15.jpg,AMSA03.jpg,MS,2,num_8,16,num_8,0.583480472909,,,2017_Jul_31_1424,60.012646235,FEMA4ImagesEEG,001,201038,
AFNE01.JPG,AFNE01.JPG,AFNE01.JPG,AFNE01.JPG,AFNE01.JPG,AFNE01.JPG,,,,,,,,,,,,,2,3,23,5,,,,,,,,,,,AMNE15.jpg,AMSA11.jpg,AMNE14.jpg,AMSA09.jpg,AMNE14.jpg,MN,1,num_2,32,num_6,0.85012263502,,,2017_Jul_31_1424,60.012646235,FEMA4ImagesEEG,001,201038,
AFNE01.JPG,AFNE01.JPG,AFNE01.JPG,AFNE01.JPG,AFNE01.JPG,AFNE01.JPG,,,,,,,,,,,,,2,4,24,2,,,,,,,,,,,AMNE08.jpg,AMSA17.jpg,AMSA06.jpg,AMNE04.jpg,AMNE08.jpg,MN,1,num_8,32,num_4,0.63348129089,,,2017_Jul_31_1424,60.012646235,FEMA4ImagesEEG,001,201038,
AFNE01.JPG,AFNE01.JPG,AFNE01.JPG,AFNE01.JPG,AFNE01.JPG,AFNE01.JPG,,,,,,,,,,,,,2,5,25,4,,,,,,,,,,,AMNE15.jpg,AMSA06.jpg,AMNE04.jpg,AMSA12.jpg,AMSA12.jpg,MS,2,num_4,32,num_8,0.866737293545,,,2017_Jul_31_1424,60.012646235,FEMA4ImagesEEG,001,201038,
AFNE01.JPG,AFNE01.JPG,AFNE01.JPG,AFNE01.JPG,AFNE01.JPG,AFNE01.JPG,,,,,,,,,,,,,2,6,26,8,,,,,,,,,,,AMNE11.jpg,AMNE18.jpg,AMSA15.jpg,AMSA16.jpg,AMNE18.jpg,MN,1,num_6,16,num_6,0.783442048123,,,2017_Jul_31_1424,60.012646235,FEMA4ImagesEEG,001,201038,
AFNE01.JPG,AFNE01.JPG,AFNE01.JPG,AFNE01.JPG,AFNE01.JPG,AFNE01.JPG,,,,,,,,,,,,,2,7,27,6,,,,,,,,,,,AMNE02.jpg,AMSA08.jpg,AMSA09.jpg,AMNE11.jpg,AMNE11.jpg,MN,1,num_4,32,num_2,1.08344887989,,,2017_Jul_31_1424,60.012646235,FEMA4ImagesEEG,001,201038,
AFNE01.JPG,AFNE01.JPG,AFNE01.JPG,AFNE01.JPG,AFNE01.JPG,AFNE01.JPG,,,,,,,,,,,,,2,8,28,3,,,,,,,,,,,AMSA14.jpg,AMNE03.jpg,AMSA08.jpg,AMNE06.jpg,AMSA08.jpg,MS,2,num_2,32,num_4,1.55009976611,,,2017_Jul_31_1424,60.012646235,FEMA4ImagesEEG,001,201038,
AFNE01.JPG,AFNE01.JPG,AFNE01.JPG,AFNE01.JPG,AFNE01.JPG,AFNE01.JPG,,,,,,,,,,,,,2,9,29,0,,,,,,,,,,,AMNE09.jpg,AMSA11.jpg,AMSA08.jpg,AMNE19.jpg,AMNE19.jpg,MN,1,num_4,32,num_8,0.78344974597,,,2017_Jul_31_1424,60.012646235,FEMA4ImagesEEG,001,201038,
AFNE01.JPG,AFNE01.JPG,AFNE01.JPG,AFNE01.JPG,AFNE01.JPG,AFNE01.JPG,,,,,,,,,,,,,3,0,30,4,,,,,,,,,,,AMNE03.jpg,AMSA20.jpg,AMSA03.jpg,AMNE19.jpg,AMNE03.jpg,MN,1,num_8,32,num_4,0.966769078979,,,2017_Jul_31_1424,60.012646235,FEMA4ImagesEEG,001,201038,
AFNE01.JPG,AFNE01.JPG,AFNE01.JPG,AFNE01.JPG,AFNE01.JPG,AFNE01.JPG,,,,,,,,,,,,,3,1,31,5,,,,,,,,,,,AMNE04.jpg,AMSA14.jpg,AMSA15.jpg,AMNE03.jpg,AMNE03.jpg,MN,1,num_4,16,num_4,0.950074876891,,,2017_Jul_31_1424,60.012646235,FEMA4ImagesEEG,001,201038,
AFNE01.JPG,AFNE01.JPG,AFNE01.JPG,AFNE01.JPG,AFNE01.JPG,AFNE01.JPG,,,,,,,,,,,,,3,2,32,3,,,,,,,,,,,AMNE16.jpg,AMNE09.jpg,AMSA01.jpg,AMSA06.jpg,AMSA06.jpg,MS,2,num_4,32,num_2,1.00006863847,,,2017_Jul_31_1424,60.012646235,FEMA4ImagesEEG,001,201038,
AFNE01.JPG,AFNE01.JPG,AFNE01.JPG,AFNE01.JPG,AFNE01.JPG,AFNE01.JPG,,,,,,,,,,,,,3,3,33,0,,,,,,,,,,,AMNE17.jpg,AMSA16.jpg,AMNE03.jpg,AMSA18.jpg,AMSA16.jpg,MS,2,num_6,16,num_6,1.01660311199,,,2017_Jul_31_1424,60.012646235,FEMA4ImagesEEG,001,201038,
AFNE01.JPG,AFNE01.JPG,AFNE01.JPG,AFNE01.JPG,AFNE01.JPG,AFNE01.JPG,,,,,,,,,,,,,3,4,34,2,,,,,,,,,,,AMSA17.jpg,AMNE19.jpg,AMSA14.jpg,AMNE11.jpg,AMSA14.jpg,MS,2,num_2,32,num_8,0.883267918369,,,2017_Jul_31_1424,60.012646235,FEMA4ImagesEEG,001,201038,
AFNE01.JPG,AFNE01.JPG,AFNE01.JPG,AFNE01.JPG,AFNE01.JPG,AFNE01.JPG,,,,,,,,,,,,,3,5,35,9,,,,,,,,,,,AMNE08.jpg,AMSA09.jpg,AMSA08.jpg,AMNE07.jpg,AMSA08.jpg,MS,2,num_2,16,num_2,0.70010991767,,,2017_Jul_31_1424,60.012646235,FEMA4ImagesEEG,001,201038,
AFNE01.JPG,AFNE01.JPG,AFNE01.JPG,AFNE01.JPG,AFNE01.JPG,AFNE01.JPG,,,,,,,,,,,,,3,6,36,6,,,,,,,,,,,AMSA13.jpg,AMNE02.jpg,AMNE14.jpg,AMSA08.jpg,AMSA13.jpg,MS,2,num_8,16,num_8,0.783585418947,,,2017_Jul_31_1424,60.012646235,FEMA4ImagesEEG,001,201038,
AFNE01.JPG,AFNE01.JPG,AFNE01.JPG,AFNE01.JPG,AFNE01.JPG,AFNE01.JPG,,,,,,,,,,,,,3,7,37,1,,,,,,,,,,,AMNE17.jpg,AMSA07.jpg,AMNE15.jpg,AMSA03.jpg,AMSA07.jpg,MS,2,num_6,32,num_8,0.916645096848,,,2017_Jul_31_1424,60.012646235,FEMA4ImagesEEG,001,201038,
AFNE01.JPG,AFNE01.JPG,AFNE01.JPG,AFNE01.JPG,AFNE01.JPG,AFNE01.JPG,,,,,,,,,,,,,3,8,38,8,,,,,,,,,,,AMSA17.jpg,AMNE11.jpg,AMNE06.jpg,AMSA06.jpg,AMSA17.jpg,MS,2,num_8,32,num_6,0.833527541487,,,2017_Jul_31_1424,60.012646235,FEMA4ImagesEEG,001,201038,
AFNE01.JPG,AFNE01.JPG,AFNE01.JPG,AFNE01.JPG,AFNE01.JPG,AFNE01.JPG,,,,,,,,,,,,,3,9,39,7,,,,,,,,,,,AMSA02.jpg,AMNE04.jpg,AMSA06.jpg,AMNE14.jpg,AMNE04.jpg,MN,1,num_6,32,num_8,1.65006836597,,,2017_Jul_31_1424,60.012646235,FEMA4ImagesEEG,001,201038,
AFNE01.JPG,AFNE01.JPG,AFNE01.JPG,AFNE01.JPG,AFNE01.JPG,AFNE01.JPG,,,,,,,,,,,,,4,0,40,8,,,,,,,,,,,AMSA06.jpg,AMNE03.jpg,AMSA13.jpg,AMNE18.jpg,AMSA13.jpg,MS,2,num_2,16,num_2,0.966635330347,,,2017_Jul_31_1424,60.012646235,FEMA4ImagesEEG,001,201038,
AFNE01.JPG,AFNE01.JPG,AFNE01.JPG,AFNE01.JPG,AFNE01.JPG,AFNE01.JPG,,,,,,,,,,,,,4,1,41,7,,,,,,,,,,,AMSA02.jpg,AMNE11.jpg,AMSA12.jpg,AMNE08.jpg,AMSA12.jpg,MS,2,num_2,16,num_2,0.70009965403,,,2017_Jul_31_1424,60.012646235,FEMA4ImagesEEG,001,201038,
AFNE01.JPG,AFNE01.JPG,AFNE01.JPG,AFNE01.JPG,AFNE01.JPG,AFNE01.JPG,,,,,,,,,,,,,4,2,42,1,,,,,,,,,,,AMSA16.jpg,AMNE11.jpg,AMSA15.jpg,AMNE09.jpg,AMNE11.jpg,MN,1,num_6,32,num_4,2.03558130446,,,2017_Jul_31_1424,60.012646235,FEMA4ImagesEEG,001,201038,
AFNE01.JPG,AFNE01.JPG,AFNE01.JPG,AFNE01.JPG,AFNE01.JPG,AFNE01.JPG,,,,,,,,,,,,,4,3,43,0,,,,,,,,,,,AMNE16.jpg,AMSA17.jpg,AMNE11.jpg,AMSA16.jpg,AMSA16.jpg,MS,2,num_4,32,num_8,1.30011043069,,,2017_Jul_31_1424,60.012646235,FEMA4ImagesEEG,001,201038,
AFNE01.JPG,AFNE01.JPG,AFNE01.JPG,AFNE01.JPG,AFNE01.JPG,AFNE01.JPG,,,,,,,,,,,,,4,4,44,4,,,,,,,,,,,AMNE16.jpg,AMNE04.jpg,AMSA03.jpg,AMSA17.jpg,AMSA17.jpg,MS,2,num_4,32,num_6,0.866790536558,,,2017_Jul_31_1424,60.012646235,FEMA4ImagesEEG,001,201038,
AFNE01.JPG,AFNE01.JPG,AFNE01.JPG,AFNE01.JPG,AFNE01.JPG,AFNE01.JPG,,,,,,,,,,,,,4,5,45,9,,,,,,,,,,,AMSA07.jpg,AMNE19.jpg,AMNE18.jpg,AMSA14.jpg,AMNE18.jpg,MN,1,num_2,32,num_8,1.10015687393,,,2017_Jul_31_1424,60.012646235,FEMA4ImagesEEG,001,201038,
AFNE01.JPG,AFNE01.JPG,AFNE01.JPG,AFNE01.JPG,AFNE01.JPG,AFNE01.JPG,,,,,,,,,,,,,4,6,46,3,,,,,,,,,,,AMNE04.jpg,AMSA19.jpg,AMNE15.jpg,AMSA10.jpg,AMSA19.jpg,MS,2,num_6,32,num_4,0.633475517388,,,2017_Jul_31_1424,60.012646235,FEMA4ImagesEEG,001,201038,
AFNE01.JPG,AFNE01.JPG,AFNE01.JPG,AFNE01.JPG,AFNE01.JPG,AFNE01.JPG,,,,,,,,,,,,,4,7,47,6,,,,,,,,,,,AMNE04.jpg,AMSA05.jpg,AMNE10.jpg,AMSA19.jpg,AMNE10.jpg,MN,1,num_2,32,num_8,0.650155286305,,,2017_Jul_31_1424,60.012646235,FEMA4ImagesEEG,001,201038,
AFNE01.JPG,AFNE01.JPG,AFNE01.JPG,AFNE01.JPG,AFNE01.JPG,AFNE01.JPG,,,,,,,,,,,,,4,8,48,2,,,,,,,,,,,AMNE11.jpg,AMSA09.jpg,AMNE16.jpg,AMSA17.jpg,AMSA17.jpg,MS,2,num_4,32,num_2,0.783453274053,,,2017_Jul_31_1424,60.012646235,FEMA4ImagesEEG,001,201038,
AFNE01.JPG,AFNE01.JPG,AFNE01.JPG,AFNE01.JPG,AFNE01.JPG,AFNE01.JPG,,,,,,,,,,,,,4,9,49,5,,,,,,,,,,,AMSA02.jpg,AMNE08.jpg,AMNE18.jpg,AMSA16.jpg,AMNE08.jpg,MN,1,num_6,16,num_6,0.850121672964,,,2017_Jul_31_1424,60.012646235,FEMA4ImagesEEG,001,201038,
AFNE01.JPG,AFNE01.JPG,AFNE01.JPG,AFNE01.JPG,AFNE01.JPG,AFNE01.JPG,,,,,,,,,,,,,5,0,50,7,,,,,,,,,,,AMSA20.jpg,AMNE11.jpg,AMNE20.jpg,AMSA11.jpg,AMNE11.jpg,MN,1,num_6,32,num_8,0.850138351321,,,2017_Jul_31_1424,60.012646235,FEMA4ImagesEEG,001,201038,
AFNE01.JPG,AFNE01.JPG,AFNE01.JPG,AFNE01.JPG,AFNE01.JPG,AFNE01.JPG,,,,,,,,,,,,,5,1,51,3,,,,,,,,,,,AMNE05.jpg,AMSA19.jpg,AMNE07.jpg,AMSA10.jpg,AMSA19.jpg,MS,2,num_6,32,num_4,0.783458726713,,,2017_Jul_31_1424,60.012646235,FEMA4ImagesEEG,001,201038,
AFNE01.JPG,AFNE01.JPG,AFNE01.JPG,AFNE01.JPG,AFNE01.JPG,AFNE01.JPG,,,,,,,,,,,,,5,2,52,5,,,,,,,,,,,AMSA15.jpg,AMNE17.jpg,AMSA01.jpg,AMNE18.jpg,AMNE18.jpg,MN,1,num_4,32,num_6,0.633482573554,,,2017_Jul_31_1424,60.012646235,FEMA4ImagesEEG,001,201038,
AFNE01.JPG,AFNE01.JPG,AFNE01.JPG,AFNE01.JPG,AFNE01.JPG,AFNE01.JPG,,,,,,,,,,,,,5,3,53,6,,,,,,,,,,,AMSA04.jpg,AMNE18.jpg,AMNE05.jpg,AMSA07.jpg,AMNE18.jpg,MN,1,num_6,32,num_2,1.19994874578,,,2017_Jul_31_1424,60.012646235,FEMA4ImagesEEG,001,201038,
AFNE01.JPG,AFNE01.JPG,AFNE01.JPG,AFNE01.JPG,AFNE01.JPG,AFNE01.JPG,,,,,,,,,,,,,5,4,54,4,,,,,,,,,,,AMSA12.jpg,AMNE09.jpg,AMNE16.jpg,AMSA02.jpg,AMNE16.jpg,MN,1,num_2,16,num_2,0.950101818889,,,2017_Jul_31_1424,60.012646235,FEMA4ImagesEEG,001,201038,
AFNE01.JPG,AFNE01.JPG,AFNE01.JPG,AFNE01.JPG,AFNE01.JPG,AFNE01.JPG,,,,,,,,,,,,,5,5,55,0,,,,,,,,,,,AMSA04.jpg,AMNE11.jpg,AMSA16.jpg,AMNE01.jpg,AMSA16.jpg,MS,2,num_2,32,num_8,0.767136583105,,,2017_Jul_31_1424,60.012646235,FEMA4ImagesEEG,001,201038,
AFNE01.JPG,AFNE01.JPG,AFNE01.JPG,AFNE01.JPG,AFNE01.JPG,AFNE01.JPG,,,,,,,,,,,,,5,6,56,2,,,,,,,,,,,AMNE03.jpg,AMSA11.jpg,AMSA04.jpg,AMNE18.jpg,AMSA04.jpg,MS,2,num_2,32,num_6,0.666762888664,,,2017_Jul_31_1424,60.012646235,FEMA4ImagesEEG,001,201038,
AFNE01.JPG,AFNE01.JPG,AFNE01.JPG,AFNE01.JPG,AFNE01.JPG,AFNE01.JPG,,,,,,,,,,,,,5,7,57,8,,,,,,,,,,,AMNE05.jpg,AMSA09.jpg,AMNE04.jpg,AMSA05.jpg,AMSA05.jpg,MS,2,num_4,32,num_2,0.650135079864,,,2017_Jul_31_1424,60.012646235,FEMA4ImagesEEG,001,201038,
AFNE01.JPG,AFNE01.JPG,AFNE01.JPG,AFNE01.JPG,AFNE01.JPG,AFNE01.JPG,,,,,,,,,,,,,5,8,58,1,,,,,,,,,,,AMSA05.jpg,AMSA02.jpg,AMNE13.jpg,AMNE08.jpg,AMNE13.jpg,MN,1,num_2,32,num_8,0.583509660093,,,2017_Jul_31_1424,60.012646235,FEMA4ImagesEEG,001,201038,
AFNE01.JPG,AFNE01.JPG,AFNE01.JPG,AFNE01.JPG,AFNE01.JPG,AFNE01.JPG,,,,,,,,,,,,,5,9,59,9,,,,,,,,,,,AMNE05.jpg,AMSA01.jpg,AMSA12.jpg,AMNE15.jpg,AMNE05.jpg,MN,1,num_8,32,num_4,0.700083616888,,,2017_Jul_31_1424,60.012646235,FEMA4ImagesEEG,001,201038,
,,,,,,,,,,,,,,,,,,,,,,,,,,,,,,,,,,,,,,,,,,,space,25.2312533017,2017_Jul_31_1424,60.012646235,FEMA4ImagesEEG,001,201038,
AFNE01.JPG,AFNE01.JPG,AFNE01.JPG,AFNE01.JPG,AFNE01.JPG,AFNE01.JPG,,,,,,,,,,,,,,,,,0,0,0,3,,,,,,,AFNE16.jpg,AFNE06.jpg,AFSA14.jpg,AFSA12.jpg,AFSA14.jpg,FS,4,num_2,32,num_4,1.00012284354,,,2017_Jul_31_1424,60.012646235,FEMA4ImagesEEG,001,201038,
AFNE01.JPG,AFNE01.JPG,AFNE01.JPG,AFNE01.JPG,AFNE01.JPG,AFNE01.JPG,,,,,,,,,,,,,,,,,0,1,1,0,,,,,,,AFSA15.jpg,AFNE17.jpg,AFNE06.jpg,AFSA12.jpg,AFSA15.jpg,FS,4,num_8,16,num_8,0.633487064159,,,2017_Jul_31_1424,60.012646235,FEMA4ImagesEEG,001,201038,
AFNE01.JPG,AFNE01.JPG,AFNE01.JPG,AFNE01.JPG,AFNE01.JPG,AFNE01.JPG,,,,,,,,,,,,,,,,,0,2,2,8,,,,,,,AFSA17.jpg,AFNE03.jpg,AFNE19.jpg,AFSA14.jpg,AFNE03.jpg,FN,3,num_6,16,num_6,1.0001125799,,,2017_Jul_31_1424,60.012646235,FEMA4ImagesEEG,001,201038,
AFNE01.JPG,AFNE01.JPG,AFNE01.JPG,AFNE01.JPG,AFNE01.JPG,AFNE01.JPG,,,,,,,,,,,,,,,,,0,3,3,5,,,,,,,AFSA08.jpg,AFNE02.jpg,AFSA01.jpg,AFNE10.jpg,AFNE02.jpg,FN,3,num_6,32,num_8,0.800145872636,,,2017_Jul_31_1424,60.012646235,FEMA4ImagesEEG,001,201038,
AFNE01.JPG,AFNE01.JPG,AFNE01.JPG,AFNE01.JPG,AFNE01.JPG,AFNE01.JPG,,,,,,,,,,,,,,,,,0,4,4,6,,,,,,,AFSA18.jpg,AFNE13.jpg,AFNE20.jpg,AFSA02.jpg,AFNE20.jpg,FN,3,num_2,16,num_2,1.06674088584,,,2017_Jul_31_1424,60.012646235,FEMA4ImagesEEG,001,201038,
AFNE01.JPG,AFNE01.JPG,AFNE01.JPG,AFNE01.JPG,AFNE01.JPG,AFNE01.JPG,,,,,,,,,,,,,,,,,0,5,5,7,,,,,,,AFSA20.jpg,AFSA14.jpg,AFNE07.jpg,AFNE14.jpg,AFNE07.jpg,FN,3,num_2,32,num_8,0.866785725579,,,2017_Jul_31_1424,60.012646235,FEMA4ImagesEEG,001,201038,
AFNE01.JPG,AFNE01.JPG,AFNE01.JPG,AFNE01.JPG,AFNE01.JPG,AFNE01.JPG,,,,,,,,,,,,,,,,,0,6,6,2,,,,,,,AFSA10.jpg,AFSA07.jpg,AFNE10.jpg,AFNE19.jpg,AFSA10.jpg,FS,4,num_8,32,num_4,1.13342788769,,,2017_Jul_31_1424,60.012646235,FEMA4ImagesEEG,001,201038,
AFNE01.JPG,AFNE01.JPG,AFNE01.JPG,AFNE01.JPG,AFNE01.JPG,AFNE01.JPG,,,,,,,,,,,,,,,,,0,7,7,1,,,,,,,AFSA06.jpg,AFSA04.jpg,AFNE15.jpg,AFNE12.jpg,AFNE15.jpg,FN,3,num_2,16,num_2,0.666741399094,,,2017_Jul_31_1424,60.012646235,FEMA4ImagesEEG,001,201038,
AFNE01.JPG,AFNE01.JPG,AFNE01.JPG,AFNE01.JPG,AFNE01.JPG,AFNE01.JPG,,,,,,,,,,,,,,,,,0,8,8,4,,,,,,,AFNE11.jpg,AFSA14.jpg,AFSA17.jpg,AFNE19.jpg,AFNE11.jpg,FN,3,num_8,32,num_4,1.16679768893,,,2017_Jul_31_1424,60.012646235,FEMA4ImagesEEG,001,201038,
AFNE01.JPG,AFNE01.JPG,AFNE01.JPG,AFNE01.JPG,AFNE01.JPG,AFNE01.JPG,,,,,,,,,,,,,,,,,0,9,9,9,,,,,,,AFNE11.jpg,AFNE09.jpg,AFSA05.jpg,AFSA13.jpg,AFSA13.jpg,FS,4,num_4,32,num_8,0.616794144735,,,2017_Jul_31_1424,60.012646235,FEMA4ImagesEEG,001,201038,
AFNE01.JPG,AFNE01.JPG,AFNE01.JPG,AFNE01.JPG,AFNE01.JPG,AFNE01.JPG,,,,,,,,,,,,,,,,,1,0,10,4,,,,,,,AFSA07.jpg,AFNE01.jpg,AFSA04.jpg,AFNE13.jpg,AFSA04.jpg,FS,4,num_2,16,num_2,0.583477906883,,,2017_Jul_31_1424,60.012646235,FEMA4ImagesEEG,001,201038,
AFNE01.JPG,AFNE01.JPG,AFNE01.JPG,AFNE01.JPG,AFNE01.JPG,AFNE01.JPG,,,,,,,,,,,,,,,,,1,1,11,1,,,,,,,AFNE15.jpg,AFNE01.jpg,AFSA12.jpg,AFSA10.jpg,AFSA10.jpg,FS,4,num_4,32,num_8,1.08344406891,,,2017_Jul_31_1424,60.012646235,FEMA4ImagesEEG,001,201038,
AFNE01.JPG,AFNE01.JPG,AFNE01.JPG,AFNE01.JPG,AFNE01.JPG,AFNE01.JPG,,,,,,,,,,,,,,,,,1,2,12,5,,,,,,,AFNE13.jpg,AFNE03.jpg,AFSA13.jpg,AFSA08.jpg,AFSA08.jpg,FS,4,num_4,32,num_6,0.55010938854,,,2017_Jul_31_1424,60.012646235,FEMA4ImagesEEG,001,201038,
AFNE01.JPG,AFNE01.JPG,AFNE01.JPG,AFNE01.JPG,AFNE01.JPG,AFNE01.JPG,,,,,,,,,,,,,,,,,1,3,13,7,,,,,,,AFNE17.jpg,AFSA14.jpg,AFNE02.jpg,AFSA02.jpg,AFNE02.jpg,FN,3,num_2,32,num_4,0.716786799952,,,2017_Jul_31_1424,60.012646235,FEMA4ImagesEEG,001,201038,
AFNE01.JPG,AFNE01.JPG,AFNE01.JPG,AFNE01.JPG,AFNE01.JPG,AFNE01.JPG,,,,,,,,,,,,,,,,,1,4,14,9,,,,,,,AFNE14.jpg,AFSA02.jpg,AFSA15.jpg,AFNE02.jpg,AFNE14.jpg,FN,3,num_8,16,num_8,0.700244307518,,,2017_Jul_31_1424,60.012646235,FEMA4ImagesEEG,001,201038,
AFNE01.JPG,AFNE01.JPG,AFNE01.JPG,AFNE01.JPG,AFNE01.JPG,AFNE01.JPG,,,,,,,,,,,,,,,,,1,5,15,0,,,,,,,AFSA01.jpg,AFNE20.jpg,AFNE17.jpg,AFSA14.jpg,AFNE20.jpg,FN,3,num_6,16,num_6,0.533325379016,,,2017_Jul_31_1424,60.012646235,FEMA4ImagesEEG,001,201038,
AFNE01.JPG,AFNE01.JPG,AFNE01.JPG,AFNE01.JPG,AFNE01.JPG,AFNE01.JPG,,,,,,,,,,,,,,,,,1,6,16,6,,,,,,,AFSA12.jpg,AFNE16.jpg,AFSA19.jpg,AFNE03.jpg,AFNE03.jpg,FN,3,num_4,32,num_8,0.850120068993,,,2017_Jul_31_1424,60.012646235,FEMA4ImagesEEG,001,201038,
AFNE01.JPG,AFNE01.JPG,AFNE01.JPG,AFNE01.JPG,AFNE01.JPG,AFNE01.JPG,,,,,,,,,,,,,,,,,1,7,17,3,,,,,,,AFNE01.jpg,AFSA20.jpg,AFSA19.jpg,AFNE05.jpg,AFSA20.jpg,FS,4,num_6,32,num_2,0.516865958693,,,2017_Jul_31_1424,60.012646235,FEMA4ImagesEEG,001,201038,
AFNE01.JPG,AFNE01.JPG,AFNE01.JPG,AFNE01.JPG,AFNE01.JPG,AFNE01.JPG,,,,,,,,,,,,,,,,,1,8,18,8,,,,,,,AFNE11.jpg,AFNE03.jpg,AFSA17.jpg,AFSA08.jpg,AFSA17.jpg,FS,4,num_2,32,num_8,0.566812891979,,,2017_Jul_31_1424,60.012646235,FEMA4ImagesEEG,001,201038,
AFNE01.JPG,AFNE01.JPG,AFNE01.JPG,AFNE01.JPG,AFNE01.JPG,AFNE01.JPG,,,,,,,,,,,,,,,,,1,9,19,2,,,,,,,AFSA06.jpg,AFNE14.jpg,AFSA18.jpg,AFNE20.jpg,AFNE14.jpg,FN,3,num_6,32,num_4,0.900134037249,,,2017_Jul_31_1424,60.012646235,FEMA4ImagesEEG,001,201038,
AFNE01.JPG,AFNE01.JPG,AFNE01.JPG,AFNE01.JPG,AFNE01.JPG,AFNE01.JPG,,,,,,,,,,,,,,,,,2,0,20,8,,,,,,,AFNE18.jpg,AFNE13.jpg,AFSA08.jpg,AFSA15.jpg,AFSA08.jpg,FS,4,num_2,32,num_6,0.900114472024,,,2017_Jul_31_1424,60.012646235,FEMA4ImagesEEG,001,201038,
AFNE01.JPG,AFNE01.JPG,AFNE01.JPG,AFNE01.JPG,AFNE01.JPG,AFNE01.JPG,,,,,,,,,,,,,,,,,2,1,21,2,,,,,,,AFNE09.jpg,AFNE01.jpg,AFSA13.jpg,AFSA18.jpg,AFSA13.jpg,FS,4,num_2,32,num_4,0.833429074148,,,2017_Jul_31_1424,60.012646235,FEMA4ImagesEEG,001,201038,
AFNE01.JPG,AFNE01.JPG,AFNE01.JPG,AFNE01.JPG,AFNE01.JPG,AFNE01.JPG,,,,,,,,,,,,,,,,,2,2,22,9,,,,,,,AFNE18.jpg,AFNE16.jpg,AFSA13.jpg,AFSA19.jpg,AFSA13.jpg,FS,4,num_2,32,num_4,0.633475196781,,,2017_Jul_31_1424,60.012646235,FEMA4ImagesEEG,001,201038,
AFNE01.JPG,AFNE01.JPG,AFNE01.JPG,AFNE01.JPG,AFNE01.JPG,AFNE01.JPG,,,,,,,,,,,,,,,,,2,3,23,5,,,,,,,AFNE20.jpg,AFSA14.jpg,AFSA09.jpg,AFNE18.jpg,AFNE18.jpg,FN,3,num_4,32,num_8,0.783469631802,,,2017_Jul_31_1424,60.012646235,FEMA4ImagesEEG,001,201038,
AFNE01.JPG,AFNE01.JPG,AFNE01.JPG,AFNE01.JPG,AFNE01.JPG,AFNE01.JPG,,,,,,,,,,,,,,,,,2,4,24,4,,,,,,,AFNE18.jpg,AFNE20.jpg,AFSA06.jpg,AFSA05.jpg,AFNE20.jpg,FN,3,num_6,32,num_8,0.950146402,,,2017_Jul_31_1424,60.012646235,FEMA4ImagesEEG,001,201038,
AFNE01.JPG,AFNE01.JPG,AFNE01.JPG,AFNE01.JPG,AFNE01.JPG,AFNE01.JPG,,,,,,,,,,,,,,,,,2,5,25,6,,,,,,,AFSA05.jpg,AFSA08.jpg,AFNE16.jpg,AFNE15.jpg,AFSA08.jpg,FS,4,num_6,16,num_6,1.13332557119,,,2017_Jul_31_1424,60.012646235,FEMA4ImagesEEG,001,201038,
AFNE01.JPG,AFNE01.JPG,AFNE01.JPG,AFNE01.JPG,AFNE01.JPG,AFNE01.JPG,,,,,,,,,,,,,,,,,2,6,26,3,,,,,,,AFNE19.jpg,AFSA19.jpg,AFNE06.jpg,AFSA11.jpg,AFSA19.jpg,FS,4,num_6,16,num_6,0.550123821711,,,2017_Jul_31_1424,60.012646235,FEMA4ImagesEEG,001,201038,
AFNE01.JPG,AFNE01.JPG,AFNE01.JPG,AFNE01.JPG,AFNE01.JPG,AFNE01.JPG,,,,,,,,,,,,,,,,,2,7,27,1,,,,,,,AFSA05.jpg,AFNE20.jpg,AFSA02.jpg,AFNE18.jpg,AFSA05.jpg,FS,4,num_8,32,num_4,0.550177706173,,,2017_Jul_31_1424,60.012646235,FEMA4ImagesEEG,001,201038,
AFNE01.JPG,AFNE01.JPG,AFNE01.JPG,AFNE01.JPG,AFNE01.JPG,AFNE01.JPG,,,,,,,,,,,,,,,,,2,8,28,7,,,,,,,AFNE02.jpg,AFNE09.jpg,AFSA07.jpg,AFSA09.jpg,AFNE09.jpg,FN,3,num_6,32,num_8,0.91679552407,,,2017_Jul_31_1424,60.012646235,FEMA4ImagesEEG,001,201038,
AFNE01.JPG,AFNE01.JPG,AFNE01.JPG,AFNE01.JPG,AFNE01.JPG,AFNE01.JPG,,,,,,,,,,,,,,,,,2,9,29,0,,,,,,,AFNE15.jpg,AFSA18.jpg,AFNE06.jpg,AFSA03.jpg,AFSA18.jpg,FS,4,num_6,32,num_2,0.766767090419,,,2017_Jul_31_1424,60.012646235,FEMA4ImagesEEG,001,201038,
AFNE01.JPG,AFNE01.JPG,AFNE01.JPG,AFNE01.JPG,AFNE01.JPG,AFNE01.JPG,,,,,,,,,,,,,,,,,3,0,30,7,,,,,,,AFNE11.jpg,AFSA14.jpg,AFSA11.jpg,AFNE10.jpg,AFSA11.jpg,FS,4,num_2,16,num_2,0.966820397414,,,2017_Jul_31_1424,60.012646235,FEMA4ImagesEEG,001,201038,
AFNE01.JPG,AFNE01.JPG,AFNE01.JPG,AFNE01.JPG,AFNE01.JPG,AFNE01.JPG,,,,,,,,,,,,,,,,,3,1,31,9,,,,,,,AFNE17.jpg,AFNE12.jpg,AFSA06.jpg,AFSA10.jpg,AFNE12.jpg,FN,3,num_6,16,num_6,0.733531358419,,,2017_Jul_31_1424,60.012646235,FEMA4ImagesEEG,001,201038,
AFNE01.JPG,AFNE01.JPG,AFNE01.JPG,AFNE01.JPG,AFNE01.JPG,AFNE01.JPG,,,,,,,,,,,,,,,,,3,2,32,6,,,,,,,AFSA06.jpg,AFNE17.jpg,AFSA11.jpg,AFNE12.jpg,AFSA11.jpg,FS,4,num_2,32,num_8,0.883472871268,,,2017_Jul_31_1424,60.012646235,FEMA4ImagesEEG,001,201038,
AFNE01.JPG,AFNE01.JPG,AFNE01.JPG,AFNE01.JPG,AFNE01.JPG,AFNE01.JPG,,,,,,,,,,,,,,,,,3,3,33,8,,,,,,,AFNE05.jpg,AFSA17.jpg,AFNE09.jpg,AFSA09.jpg,AFSA17.jpg,FS,4,num_6,16,num_6,1.11671283725,,,2017_Jul_31_1424,60.012646235,FEMA4ImagesEEG,001,201038,
AFNE01.JPG,AFNE01.JPG,AFNE01.JPG,AFNE01.JPG,AFNE01.JPG,AFNE01.JPG,,,,,,,,,,,,,,,,,3,4,34,5,,,,,,,AFSA03.jpg,AFNE17.jpg,AFNE07.jpg,AFSA11.jpg,AFNE07.jpg,FN,3,num_2,32,num_4,1.5167780756,,,2017_Jul_31_1424,60.012646235,FEMA4ImagesEEG,001,201038,
AFNE01.JPG,AFNE01.JPG,AFNE01.JPG,AFNE01.JPG,AFNE01.JPG,AFNE01.JPG,,,,,,,,,,,,,,,,,3,5,35,1,,,,,,,AFNE18.jpg,AFNE19.jpg,AFSA06.jpg,AFSA15.jpg,AFSA06.jpg,FS,4,num_2,32,num_6,0.850113654044,,,2017_Jul_31_1424,60.012646235,FEMA4ImagesEEG,001,201038,
AFNE01.JPG,AFNE01.JPG,AFNE01.JPG,AFNE01.JPG,AFNE01.JPG,AFNE01.JPG,,,,,,,,,,,,,,,,,3,6,36,4,,,,,,,AFNE11.jpg,AFNE13.jpg,AFSA12.jpg,AFSA14.jpg,AFSA12.jpg,FS,4,num_2,16,num_2,0.683491089381,,,2017_Jul_31_1424,60.012646235,FEMA4ImagesEEG,001,201038,
AFNE01.JPG,AFNE01.JPG,AFNE01.JPG,AFNE01.JPG,AFNE01.JPG,AFNE01.JPG,,,,,,,,,,,,,,,,,3,7,37,2,,,,,,,AFNE02.jpg,AFNE16.jpg,AFSA18.jpg,AFSA16.jpg,AFNE16.jpg,FN,3,num_6,32,num_8,0.650014160899,,,2017_Jul_31_1424,60.012646235,FEMA4ImagesEEG,001,201038,
AFNE01.JPG,AFNE01.JPG,AFNE01.JPG,AFNE01.JPG,AFNE01.JPG,AFNE01.JPG,,,,,,,,,,,,,,,,,3,8,38,0,,,,,,,AFNE14.jpg,AFSA17.jpg,AFSA07.jpg,AFNE01.jpg,AFNE14.jpg,FN,3,num_8,32,num_6,0.716786799952,,,2017_Jul_31_1424,60.012646235,FEMA4ImagesEEG,001,201038,
AFNE01.JPG,AFNE01.JPG,AFNE01.JPG,AFNE01.JPG,AFNE01.JPG,AFNE01.JPG,,,,,,,,,,,,,,,,,3,9,39,3,,,,,,,AFSA16.jpg,AFSA20.jpg,AFNE19.jpg,AFNE10.jpg,AFSA20.jpg,FS,4,num_6,32,num_4,0.650148230139,,,2017_Jul_31_1424,60.012646235,FEMA4ImagesEEG,001,201038,
AFNE01.JPG,AFNE01.JPG,AFNE01.JPG,AFNE01.JPG,AFNE01.JPG,AFNE01.JPG,,,,,,,,,,,,,,,,,4,0,40,5,,,,,,,AFSA12.jpg,AFSA15.jpg,AFNE19.jpg,AFNE20.jpg,AFSA15.jpg,FS,4,num_6,32,num_8,0.766743997112,,,2017_Jul_31_1424,60.012646235,FEMA4ImagesEEG,001,201038,
AFNE01.JPG,AFNE01.JPG,AFNE01.JPG,AFNE01.JPG,AFNE01.JPG,AFNE01.JPG,,,,,,,,,,,,,,,,,4,1,41,1,,,,,,,AFNE17.jpg,AFSA06.jpg,AFSA16.jpg,AFNE04.jpg,AFNE17.jpg,FN,3,num_8,32,num_6,0.91679424094,,,2017_Jul_31_1424,60.012646235,FEMA4ImagesEEG,001,201038,
AFNE01.JPG,AFNE01.JPG,AFNE01.JPG,AFNE01.JPG,AFNE01.JPG,AFNE01.JPG,,,,,,,,,,,,,,,,,4,2,42,7,,,,,,,AFSA10.jpg,AFSA01.jpg,AFNE12.jpg,AFNE19.jpg,AFSA01.jpg,FS,4,num_6,32,num_4,1.23340835446,,,2017_Jul_31_1424,60.012646235,FEMA4ImagesEEG,001,201038,
AFNE01.JPG,AFNE01.JPG,AFNE01.JPG,AFNE01.JPG,AFNE01.JPG,AFNE01.JPG,,,,,,,,,,,,,,,,,4,3,43,6,,,,,,,AFNE14.jpg,AFSA03.jpg,AFNE19.jpg,AFSA11.jpg,AFSA11.jpg,FS,4,num_4,32,num_8,1.11683985032,,,2017_Jul_31_1424,60.012646235,FEMA4ImagesEEG,001,201038,
AFNE01.JPG,AFNE01.JPG,AFNE01.JPG,AFNE01.JPG,AFNE01.JPG,AFNE01.JPG,,,,,,,,,,,,,,,,,4,4,44,9,,,,,,,AFSA17.jpg,AFSA12.jpg,AFNE11.jpg,AFNE17.jpg,AFNE11.jpg,FN,3,num_2,16,num_2,0.899792449083,,,2017_Jul_31_1424,60.012646235,FEMA4ImagesEEG,001,201038,
AFNE01.JPG,AFNE01.JPG,AFNE01.JPG,AFNE01.JPG,AFNE01.JPG,AFNE01.JPG,,,,,,,,,,,,,,,,,4,5,45,0,,,,,,,AFNE14.jpg,AFSA10.jpg,AFSA16.jpg,AFNE18.jpg,AFNE14.jpg,FN,3,num_8,16,num_8,0.950134855229,,,2017_Jul_31_1424,60.012646235,FEMA4ImagesEEG,001,201038,
AFNE01.JPG,AFNE01.JPG,AFNE01.JPG,AFNE01.JPG,AFNE01.JPG,AFNE01.JPG,,,,,,,,,,,,,,,,,4,6,46,3,,,,,,,AFSA15.jpg,AFSA03.jpg,AFNE07.jpg,AFNE02.jpg,AFSA15.jpg,FS,4,num_8,32,num_2,1.4168203813,,,2017_Jul_31_1424,60.012646235,FEMA4ImagesEEG,001,201038,
AFNE01.JPG,AFNE01.JPG,AFNE01.JPG,AFNE01.JPG,AFNE01.JPG,AFNE01.JPG,,,,,,,,,,,,,,,,,4,7,47,8,,,,,,,AFSA14.jpg,AFSA10.jpg,AFNE01.jpg,AFNE19.jpg,AFNE01.jpg,FN,3,num_2,32,num_4,1.35033672908,,,2017_Jul_31_1424,60.012646235,FEMA4ImagesEEG,001,201038,
AFNE01.JPG,AFNE01.JPG,AFNE01.JPG,AFNE01.JPG,AFNE01.JPG,AFNE01.JPG,,,,,,,,,,,,,,,,,4,8,48,4,,,,,,,AFSA02.jpg,AFNE03.jpg,AFSA10.jpg,AFNE07.jpg,AFNE03.jpg,FN,3,num_6,32,num_8,0.983466809383,,,2017_Jul_31_1424,60.012646235,FEMA4ImagesEEG,001,201038,
AFNE01.JPG,AFNE01.JPG,AFNE01.JPG,AFNE01.JPG,AFNE01.JPG,AFNE01.JPG,,,,,,,,,,,,,,,,,4,9,49,2,,,,,,,AFSA04.jpg,AFNE04.jpg,AFSA16.jpg,AFNE19.jpg,AFSA16.jpg,FS,4,num_2,32,num_4,1.35009873984,,,2017_Jul_31_1424,60.012646235,FEMA4ImagesEEG,001,201038,
AFNE01.JPG,AFNE01.JPG,AFNE01.JPG,AFNE01.JPG,AFNE01.JPG,AFNE01.JPG,,,,,,,,,,,,,,,,,5,0,50,6,,,,,,,AFSA09.jpg,AFNE09.jpg,AFNE05.jpg,AFSA03.jpg,AFNE05.jpg,FN,3,num_2,32,num_8,1.23343337211,,,2017_Jul_31_1424,60.012646235,FEMA4ImagesEEG,001,201038,
AFNE01.JPG,AFNE01.JPG,AFNE01.JPG,AFNE01.JPG,AFNE01.JPG,AFNE01.JPG,,,,,,,,,,,,,,,,,5,1,51,7,,,,,,,AFNE01.jpg,AFSA19.jpg,AFNE08.jpg,AFSA06.jpg,AFNE01.jpg,FN,3,num_8,32,num_2,1.06673511257,,,2017_Jul_31_1424,60.012646235,FEMA4ImagesEEG,001,201038,
AFNE01.JPG,AFNE01.JPG,AFNE01.JPG,AFNE01.JPG,AFNE01.JPG,AFNE01.JPG,,,,,,,,,,,,,,,,,5,2,52,0,,,,,,,AFNE07.jpg,AFSA13.jpg,AFNE11.jpg,AFSA20.jpg,AFNE07.jpg,FN,3,num_8,16,num_8,0.800114760874,,,2017_Jul_31_1424,60.012646235,FEMA4ImagesEEG,001,201038,
AFNE01.JPG,AFNE01.JPG,AFNE01.JPG,AFNE01.JPG,AFNE01.JPG,AFNE01.JPG,,,,,,,,,,,,,,,,,5,3,53,1,,,,,,,AFSA01.jpg,AFSA11.jpg,AFNE15.jpg,AFNE11.jpg,AFSA11.jpg,FS,4,num_6,32,num_4,0.850103390636,,,2017_Jul_31_1424,60.012646235,FEMA4ImagesEEG,001,201038,
AFNE01.JPG,AFNE01.JPG,AFNE01.JPG,AFNE01.JPG,AFNE01.JPG,AFNE01.JPG,,,,,,,,,,,,,,,,,5,4,54,5,,,,,,,AFSA20.jpg,AFNE03.jpg,AFSA04.jpg,AFNE12.jpg,AFSA04.jpg,FS,4,num_2,16,num_2,0.600121753057,,,2017_Jul_31_1424,60.012646235,FEMA4ImagesEEG,001,201038,
AFNE01.JPG,AFNE01.JPG,AFNE01.JPG,AFNE01.JPG,AFNE01.JPG,AFNE01.JPG,,,,,,,,,,,,,,,,,5,5,55,9,,,,,,,AFNE04.jpg,AFSA19.jpg,AFNE15.jpg,AFSA10.jpg,AFNE04.jpg,FN,3,num_8,16,num_8,0.650193454232,,,2017_Jul_31_1424,60.012646235,FEMA4ImagesEEG,001,201038,
AFNE01.JPG,AFNE01.JPG,AFNE01.JPG,AFNE01.JPG,AFNE01.JPG,AFNE01.JPG,,,,,,,,,,,,,,,,,5,6,56,8,,,,,,,AFSA18.jpg,AFNE16.jpg,AFSA20.jpg,AFNE02.jpg,AFSA18.jpg,FS,4,num_8,32,num_4,0.916762808571,,,2017_Jul_31_1424,60.012646235,FEMA4ImagesEEG,001,201038,
AFNE01.JPG,AFNE01.JPG,AFNE01.JPG,AFNE01.JPG,AFNE01.JPG,AFNE01.JPG,,,,,,,,,,,,,,,,,5,7,57,3,,,,,,,AFSA12.jpg,AFNE11.jpg,AFSA16.jpg,AFNE19.jpg,AFSA16.jpg,FS,4,num_2,16,num_2,0.700121785048,,,2017_Jul_31_1424,60.012646235,FEMA4ImagesEEG,001,201038,
AFNE01.JPG,AFNE01.JPG,AFNE01.JPG,AFNE01.JPG,AFNE01.JPG,AFNE01.JPG,,,,,,,,,,,,,,,,,5,8,58,2,,,,,,,AFNE18.jpg,AFSA12.jpg,AFNE04.jpg,AFSA03.jpg,AFNE04.jpg,FN,3,num_2,32,num_6,0.950108875288,,,2017_Jul_31_1424,60.012646235,FEMA4ImagesEEG,001,201038,
AFNE01.JPG,AFNE01.JPG,AFNE01.JPG,AFNE01.JPG,AFNE01.JPG,AFNE01.JPG,,,,,,,,,,,,,,,,,5,9,59,4,,,,,,,AFSA19.jpg,AFNE15.jpg,AFNE14.jpg,AFSA20.jpg,AFSA20.jpg,FS,4,num_4,32,num_8,0.816786190495,,,2017_Jul_31_1424,60.012646235,FEMA4ImagesEEG,001,201038,
,,,,,,,,,,,,,,,,,,,,,,,,,,,,,,,,,,,,,,,,,,,space,43.9298291192,2017_Jul_31_1424,60.012646235,FEMA4ImagesEEG,001,201038,
AFNE01.JPG,AFNE01.JPG,AFNE01.JPG,AFNE01.JPG,AFNE01.JPG,AFNE01.JPG,,,,,,,,,,,,,,,,,,,,,0,0,0,5,,,AMNE14.jpg,AMSA07.jpg,AMSA11.jpg,AMNE06.jpg,AMSA07.jpg,MS,2,num_6,16,num_6,0.733539056033,,,2017_Jul_31_1424,60.012646235,FEMA4ImagesEEG,001,201038,
AFNE01.JPG,AFNE01.JPG,AFNE01.JPG,AFNE01.JPG,AFNE01.JPG,AFNE01.JPG,,,,,,,,,,,,,,,,,,,,,0,1,1,2,,,AMNE20.jpg,AMSA18.jpg,AMSA17.jpg,AMNE04.jpg,AMNE04.jpg,MN,1,num_4,32,num_8,0.550181234023,,,2017_Jul_31_1424,60.012646235,FEMA4ImagesEEG,001,201038,
AFNE01.JPG,AFNE01.JPG,AFNE01.JPG,AFNE01.JPG,AFNE01.JPG,AFNE01.JPG,,,,,,,,,,,,,,,,,,,,,0,2,2,9,,,AMNE14.jpg,AMSA03.jpg,AMNE08.jpg,AMSA07.jpg,AMNE14.jpg,MN,1,num_8,32,num_4,0.850157274865,,,2017_Jul_31_1424,60.012646235,FEMA4ImagesEEG,001,201038,
AFNE01.JPG,AFNE01.JPG,AFNE01.JPG,AFNE01.JPG,AFNE01.JPG,AFNE01.JPG,,,,,,,,,,,,,,,,,,,,,0,3,3,1,,,AMSA11.jpg,AMNE07.jpg,AMNE02.jpg,AMSA05.jpg,AMNE02.jpg,MN,1,num_2,16,num_2,0.733474908164,,,2017_Jul_31_1424,60.012646235,FEMA4ImagesEEG,001,201038,
AFNE01.JPG,AFNE01.JPG,AFNE01.JPG,AFNE01.JPG,AFNE01.JPG,AFNE01.JPG,,,,,,,,,,,,,,,,,,,,,0,4,4,3,,,AMNE09.jpg,AMNE18.jpg,AMSA19.jpg,AMSA20.jpg,AMSA19.jpg,MS,2,num_2,32,num_8,0.55015782034,,,2017_Jul_31_1424,60.012646235,FEMA4ImagesEEG,001,201038,
AFNE01.JPG,AFNE01.JPG,AFNE01.JPG,AFNE01.JPG,AFNE01.JPG,AFNE01.JPG,,,,,,,,,,,,,,,,,,,,,0,5,5,8,,,AMNE07.jpg,AMSA07.jpg,AMSA14.jpg,AMNE20.jpg,AMSA14.jpg,MS,2,num_2,16,num_2,0.616860217182,,,2017_Jul_31_1424,60.012646235,FEMA4ImagesEEG,001,201038,
AFNE01.JPG,AFNE01.JPG,AFNE01.JPG,AFNE01.JPG,AFNE01.JPG,AFNE01.JPG,,,,,,,,,,,,,,,,,,,,,0,6,6,0,,,AMSA04.jpg,AMNE05.jpg,AMSA06.jpg,AMNE17.jpg,AMNE05.jpg,MN,1,num_6,32,num_8,0.8501175032,,,2017_Jul_31_1424,60.012646235,FEMA4ImagesEEG,001,201038,
AFNE01.JPG,AFNE01.JPG,AFNE01.JPG,AFNE01.JPG,AFNE01.JPG,AFNE01.JPG,,,,,,,,,,,,,,,,,,,,,0,7,7,7,,,AMSA16.jpg,AMNE01.jpg,AMNE09.jpg,AMSA12.jpg,AMSA16.jpg,MS,2,num_8,32,num_6,0.766988721909,,,2017_Jul_31_1424,60.012646235,FEMA4ImagesEEG,001,201038,
AFNE01.JPG,AFNE01.JPG,AFNE01.JPG,AFNE01.JPG,AFNE01.JPG,AFNE01.JPG,,,,,,,,,,,,,,,,,,,,,0,8,8,4,,,AMNE04.jpg,AMNE15.jpg,AMSA12.jpg,AMSA14.jpg,AMSA12.jpg,MS,2,num_2,16,num_2,0.916473180056,,,2017_Jul_31_1424,60.012646235,FEMA4ImagesEEG,001,201038,
AFNE01.JPG,AFNE01.JPG,AFNE01.JPG,AFNE01.JPG,AFNE01.JPG,AFNE01.JPG,,,,,,,,,,,,,,,,,,,,,0,9,9,6,,,AMSA20.jpg,AMSA12.jpg,AMNE07.jpg,AMNE13.jpg,AMSA20.jpg,MS,2,num_8,16,num_8,0.91681701364,,,2017_Jul_31_1424,60.012646235,FEMA4ImagesEEG,001,201038,
AFNE01.JPG,AFNE01.JPG,AFNE01.JPG,AFNE01.JPG,AFNE01.JPG,AFNE01.JPG,,,,,,,,,,,,,,,,,,,,,1,0,10,0,,,AMNE17.jpg,AMSA10.jpg,AMSA05.jpg,AMNE07.jpg,AMSA10.jpg,MS,2,num_6,16,num_6,0.533479975769,,,2017_Jul_31_1424,60.012646235,FEMA4ImagesEEG,001,201038,
AFNE01.JPG,AFNE01.JPG,AFNE01.JPG,AFNE01.JPG,AFNE01.JPG,AFNE01.JPG,,,,,,,,,,,,,,,,,,,,,1,1,11,2,,,AMSA11.jpg,AMNE06.jpg,AMSA08.jpg,AMNE11.jpg,AMNE06.jpg,MN,1,num_6,32,num_8,0.700198762584,,,2017_Jul_31_1424,60.012646235,FEMA4ImagesEEG,001,201038,
AFNE01.JPG,AFNE01.JPG,AFNE01.JPG,AFNE01.JPG,AFNE01.JPG,AFNE01.JPG,,,,,,,,,,,,,,,,,,,,,1,2,12,4,,,AMSA11.jpg,AMNE09.jpg,AMSA04.jpg,AMNE18.jpg,AMSA04.jpg,MS,2,num_2,32,num_4,0.60014805384,,,2017_Jul_31_1424,60.012646235,FEMA4ImagesEEG,001,201038,
AFNE01.JPG,AFNE01.JPG,AFNE01.JPG,AFNE01.JPG,AFNE01.JPG,AFNE01.JPG,,,,,,,,,,,,,,,,,,,,,1,3,13,7,,,AMNE01.jpg,AMSA19.jpg,AMSA02.jpg,AMNE13.jpg,AMNE13.jpg,MN,1,num_4,32,num_8,0.633499572985,,,2017_Jul_31_1424,60.012646235,FEMA4ImagesEEG,001,201038,
AFNE01.JPG,AFNE01.JPG,AFNE01.JPG,AFNE01.JPG,AFNE01.JPG,AFNE01.JPG,,,,,,,,,,,,,,,,,,,,,1,4,14,1,,,AMNE11.jpg,AMSA10.jpg,AMSA09.jpg,AMNE19.jpg,AMNE11.jpg,MN,1,num_8,32,num_6,0.650149192195,,,2017_Jul_31_1424,60.012646235,FEMA4ImagesEEG,001,201038,
AFNE01.JPG,AFNE01.JPG,AFNE01.JPG,AFNE01.JPG,AFNE01.JPG,AFNE01.JPG,,,,,,,,,,,,,,,,,,,,,1,5,15,3,,,AMNE10.jpg,AMNE18.jpg,AMSA19.jpg,AMSA17.jpg,AMNE18.jpg,MN,1,num_6,32,num_4,0.61674924125,,,2017_Jul_31_1424,60.012646235,FEMA4ImagesEEG,001,201038,
AFNE01.JPG,AFNE01.JPG,AFNE01.JPG,AFNE01.JPG,AFNE01.JPG,AFNE01.JPG,,,,,,,,,,,,,,,,,,,,,1,6,16,6,,,AMNE05.jpg,AMNE18.jpg,AMSA06.jpg,AMSA14.jpg,AMNE18.jpg,MN,1,num_6,32,num_8,0.683528295252,,,2017_Jul_31_1424,60.012646235,FEMA4ImagesEEG,001,201038,
AFNE01.JPG,AFNE01.JPG,AFNE01.JPG,AFNE01.JPG,AFNE01.JPG,AFNE01.JPG,,,,,,,,,,,,,,,,,,,,,1,7,17,8,,,AMNE15.jpg,AMSA14.jpg,AMNE13.jpg,AMSA19.jpg,AMNE13.jpg,MN,1,num_2,32,num_8,0.683532144176,,,2017_Jul_31_1424,60.012646235,FEMA4ImagesEEG,001,201038,
AFNE01.JPG,AFNE01.JPG,AFNE01.JPG,AFNE01.JPG,AFNE01.JPG,AFNE01.JPG,,,,,,,,,,,,,,,,,,,,,1,8,18,9,,,AMSA09.jpg,AMSA06.jpg,AMNE04.jpg,AMNE19.jpg,AMNE19.jpg,MN,1,num_4,16,num_4,1.60003643623,,,2017_Jul_31_1424,60.012646235,FEMA4ImagesEEG,001,201038,
AFNE01.JPG,AFNE01.JPG,AFNE01.JPG,AFNE01.JPG,AFNE01.JPG,AFNE01.JPG,,,,,,,,,,,,,,,,,,,,,1,9,19,5,,,AMNE02.jpg,AMNE13.jpg,AMSA02.jpg,AMSA06.jpg,AMNE02.jpg,MN,1,num_8,32,num_2,0.716802516254,,,2017_Jul_31_1424,60.012646235,FEMA4ImagesEEG,001,201038,
AFNE01.JPG,AFNE01.JPG,AFNE01.JPG,AFNE01.JPG,AFNE01.JPG,AFNE01.JPG,,,,,,,,,,,,,,,,,,,,,2,0,20,4,,,AMNE18.jpg,AMNE15.jpg,AMSA09.jpg,AMSA02.jpg,AMNE18.jpg,MN,1,num_8,16,num_8,1.05028371071,,,2017_Jul_31_1424,60.012646235,FEMA4ImagesEEG,001,201038,
AFNE01.JPG,AFNE01.JPG,AFNE01.JPG,AFNE01.JPG,AFNE01.JPG,AFNE01.JPG,,,,,,,,,,,,,,,,,,,,,2,1,21,7,,,AMNE15.jpg,AMSA04.jpg,AMSA01.jpg,AMNE09.jpg,AMSA01.jpg,MS,2,num_2,16,num_2,0.650139249396,,,2017_Jul_31_1424,60.012646235,FEMA4ImagesEEG,001,201038,
AFNE01.JPG,AFNE01.JPG,AFNE01.JPG,AFNE01.JPG,AFNE01.JPG,AFNE01.JPG,,,,,,,,,,,,,,,,,,,,,2,2,22,6,,,AMNE10.jpg,AMSA13.jpg,AMNE16.jpg,AMSA10.jpg,AMNE16.jpg,MN,1,num_2,32,num_8,0.550116765546,,,2017_Jul_31_1424,60.012646235,FEMA4ImagesEEG,001,201038,
AFNE01.JPG,AFNE01.JPG,AFNE01.JPG,AFNE01.JPG,AFNE01.JPG,AFNE01.JPG,,,,,,,,,,,,,,,,,,,,,2,3,23,1,,,AMNE05.jpg,AMSA03.jpg,AMSA19.jpg,AMNE18.jpg,AMNE05.jpg,MN,1,num_8,32,num_4,0.9337690908,,,2017_Jul_31_1424,60.012646235,FEMA4ImagesEEG,001,201038,
AFNE01.JPG,AFNE01.JPG,AFNE01.JPG,AFNE01.JPG,AFNE01.JPG,AFNE01.JPG,,,,,,,,,,,,,,,,,,,,,2,4,24,0,,,AMNE20.jpg,AMSA10.jpg,AMNE05.jpg,AMSA06.jpg,AMSA06.jpg,MS,2,num_4,32,num_8,0.78340195585,,,2017_Jul_31_1424,60.012646235,FEMA4ImagesEEG,001,201038,
AFNE01.JPG,AFNE01.JPG,AFNE01.JPG,AFNE01.JPG,AFNE01.JPG,AFNE01.JPG,,,,,,,,,,,,,,,,,,,,,2,5,25,8,,,AMNE07.jpg,AMSA01.jpg,AMSA03.jpg,AMNE16.jpg,AMSA01.jpg,MS,2,num_6,16,num_6,0.666792717529,,,2017_Jul_31_1424,60.012646235,FEMA4ImagesEEG,001,201038,
AFNE01.JPG,AFNE01.JPG,AFNE01.JPG,AFNE01.JPG,AFNE01.JPG,AFNE01.JPG,,,,,,,,,,,,,,,,,,,,,2,6,26,9,,,AMNE17.jpg,AMNE09.jpg,AMSA05.jpg,AMSA08.jpg,AMSA05.jpg,MS,2,num_2,16,num_2,0.700092276791,,,2017_Jul_31_1424,60.012646235,FEMA4ImagesEEG,001,201038,
AFNE01.JPG,AFNE01.JPG,AFNE01.JPG,AFNE01.JPG,AFNE01.JPG,AFNE01.JPG,,,,,,,,,,,,,,,,,,,,,2,7,27,5,,,AMSA08.jpg,AMNE06.jpg,AMSA03.jpg,AMNE16.jpg,AMNE06.jpg,MN,1,num_6,32,num_8,4.949838812,,,2017_Jul_31_1424,60.012646235,FEMA4ImagesEEG,001,201038,
AFNE01.JPG,AFNE01.JPG,AFNE01.JPG,AFNE01.JPG,AFNE01.JPG,AFNE01.JPG,,,,,,,,,,,,,,,,,,,,,2,8,28,2,,,AMSA12.jpg,AMNE03.jpg,AMNE12.jpg,AMSA07.jpg,AMSA07.jpg,MS,2,num_4,16,num_4,0.649859563913,,,2017_Jul_31_1424,60.012646235,FEMA4ImagesEEG,001,201038,
AFNE01.JPG,AFNE01.JPG,AFNE01.JPG,AFNE01.JPG,AFNE01.JPG,AFNE01.JPG,,,,,,,,,,,,,,,,,,,,,2,9,29,3,,,AMNE20.jpg,AMNE07.jpg,AMSA08.jpg,AMSA01.jpg,AMSA01.jpg,MS,2,num_4,32,num_2,0.683464788599,,,2017_Jul_31_1424,60.012646235,FEMA4ImagesEEG,001,201038,
AFNE01.JPG,AFNE01.JPG,AFNE01.JPG,AFNE01.JPG,AFNE01.JPG,AFNE01.JPG,,,,,,,,,,,,,,,,,,,,,3,0,30,5,,,AMNE07.jpg,AMNE18.jpg,AMSA09.jpg,AMSA19.jpg,AMSA19.jpg,MS,2,num_4,16,num_4,0.683478259714,,,2017_Jul_31_1424,60.012646235,FEMA4ImagesEEG,001,201038,
AFNE01.JPG,AFNE01.JPG,AFNE01.JPG,AFNE01.JPG,AFNE01.JPG,AFNE01.JPG,,,,,,,,,,,,,,,,,,,,,3,1,31,4,,,AMNE19.jpg,AMSA20.jpg,AMSA05.jpg,AMNE05.jpg,AMNE05.jpg,MN,1,num_4,32,num_8,1.36676696222,,,2017_Jul_31_1424,60.012646235,FEMA4ImagesEEG,001,201038,
AFNE01.JPG,AFNE01.JPG,AFNE01.JPG,AFNE01.JPG,AFNE01.JPG,AFNE01.JPG,,,,,,,,,,,,,,,,,,,,,3,2,32,8,,,AMSA18.jpg,AMNE03.jpg,AMNE11.jpg,AMSA04.jpg,AMNE11.jpg,MN,1,num_2,16,num_2,0.600122715114,,,2017_Jul_31_1424,60.012646235,FEMA4ImagesEEG,001,201038,
AFNE01.JPG,AFNE01.JPG,AFNE01.JPG,AFNE01.JPG,AFNE01.JPG,AFNE01.JPG,,,,,,,,,,,,,,,,,,,,,3,3,33,9,,,AMSA12.jpg,AMSA01.jpg,AMNE19.jpg,AMNE07.jpg,AMNE19.jpg,MN,1,num_2,32,num_8,0.650202434976,,,2017_Jul_31_1424,60.012646235,FEMA4ImagesEEG,001,201038,
AFNE01.JPG,AFNE01.JPG,AFNE01.JPG,AFNE01.JPG,AFNE01.JPG,AFNE01.JPG,,,,,,,,,,,,,,,,,,,,,3,4,34,1,,,AMSA02.jpg,AMNE10.jpg,AMNE05.jpg,AMSA01.jpg,AMSA02.jpg,MS,2,num_8,32,num_4,0.750132545829,,,2017_Jul_31_1424,60.012646235,FEMA4ImagesEEG,001,201038,
AFNE01.JPG,AFNE01.JPG,AFNE01.JPG,AFNE01.JPG,AFNE01.JPG,AFNE01.JPG,,,,,,,,,,,,,,,,,,,,,3,5,35,6,,,AMNE01.jpg,AMSA18.jpg,AMNE18.jpg,AMSA01.jpg,AMSA18.jpg,MS,2,num_6,16,num_6,1.08343284274,,,2017_Jul_31_1424,60.012646235,FEMA4ImagesEEG,001,201038,
AFNE01.JPG,AFNE01.JPG,AFNE01.JPG,AFNE01.JPG,AFNE01.JPG,AFNE01.JPG,,,,,,,,,,,,,,,,,,,,,3,6,36,7,,,AMNE14.jpg,AMSA14.jpg,AMNE06.jpg,AMSA17.jpg,AMSA14.jpg,MS,2,num_6,32,num_2,1.30012678867,,,2017_Jul_31_1424,60.012646235,FEMA4ImagesEEG,001,201038,
AFNE01.JPG,AFNE01.JPG,AFNE01.JPG,AFNE01.JPG,AFNE01.JPG,AFNE01.JPG,,,,,,,,,,,,,,,,,,,,,3,7,37,3,,,AMNE10.jpg,AMSA03.jpg,AMSA10.jpg,AMNE05.jpg,AMSA10.jpg,MS,2,num_2,32,num_4,0.68346895813,,,2017_Jul_31_1424,60.012646235,FEMA4ImagesEEG,001,201038,
AFNE01.JPG,AFNE01.JPG,AFNE01.JPG,AFNE01.JPG,AFNE01.JPG,AFNE01.JPG,,,,,,,,,,,,,,,,,,,,,3,8,38,0,,,AMSA13.jpg,AMSA02.jpg,AMNE03.jpg,AMNE07.jpg,AMNE03.jpg,MN,1,num_2,16,num_2,0.666759360582,,,2017_Jul_31_1424,60.012646235,FEMA4ImagesEEG,001,201038,
AFNE01.JPG,AFNE01.JPG,AFNE01.JPG,AFNE01.JPG,AFNE01.JPG,AFNE01.JPG,,,,,,,,,,,,,,,,,,,,,3,9,39,2,,,AMSA14.jpg,AMNE16.jpg,AMNE13.jpg,AMSA10.jpg,AMSA10.jpg,MS,2,num_4,32,num_8,0.633558589267,,,2017_Jul_31_1424,60.012646235,FEMA4ImagesEEG,001,201038,
AFNE01.JPG,AFNE01.JPG,AFNE01.JPG,AFNE01.JPG,AFNE01.JPG,AFNE01.JPG,,,,,,,,,,,,,,,,,,,,,4,0,40,1,,,AMNE07.jpg,AMSA15.jpg,AMNE12.jpg,AMSA01.jpg,AMNE12.jpg,MN,1,num_2,32,num_6,0.950098932255,,,2017_Jul_31_1424,60.012646235,FEMA4ImagesEEG,001,201038,
