IPosition2,IPosition3,IPosition1,IPosition6,IPosition4,IPosition5,TrialsM1.thisRepN,TrialsM1.thisTrialN,TrialsM1.thisN,TrialsM1.thisIndex,TrialsF1.thisRepN,TrialsF1.thisTrialN,TrialsF1.thisN,TrialsF1.thisIndex,TrialsM2.thisRepN,TrialsM2.thisTrialN,TrialsM2.thisN,TrialsM2.thisIndex,TrialsF2.thisRepN,TrialsF2.thisTrialN,TrialsF2.thisN,TrialsF2.thisIndex,TrialsM3.thisRepN,TrialsM3.thisTrialN,TrialsM3.thisN,TrialsM3.thisIndex,TrialsF3.thisRepN,TrialsF3.thisTrialN,TrialsF3.thisN,TrialsF3.thisIndex,InstrKey_resp.keys,InstrKey_resp.rt,Image0 _Position,Image1 _Position,Image2 _Position,Image3 _Position,Center_image,condition,code,correct_answer,accuracy,Key_Resp.keys,Key_Resp.rt,BreakKey_resp.keys,BreakKey_resp.rt,date,frameRate,expName,session,participant,
,,,,,,,,,,,,,,,,,,,,,,,,,,,,,,space,20.1490123291,,,,,,,,,,,,,,2017_Aug_08_1616,60.008603469,MAFE4ImagesEEG,001,201090,
AFNE22.JPG,AFSA24.JPG,AFSA22.JPG,AFNE25.JPG,AFNE24.JPG,AFSA25.JPG,0,0,0,6,,,,,,,,,,,,,,,,,,,,,,,AMSA11.jpg,AMSA19.jpg,AMNE01.jpg,AMNE14.jpg,AMNE01.jpg,MN,1,num_2,32,num_4,2.00000064145,,,2017_Aug_08_1616,60.008603469,MAFE4ImagesEEG,001,201090,
AFSA21.JPG,AFNE22.JPG,AFNE21.JPG,AFSA23.JPG,AFSA22.JPG,AFNE23.JPG,0,1,1,0,,,,,,,,,,,,,,,,,,,,,,,AMSA03.jpg,AMNE09.jpg,AMNE14.jpg,AMSA07.jpg,AMNE14.jpg,MN,1,num_2,16,num_2,1.13341954816,,,2017_Aug_08_1616,60.008603469,MAFE4ImagesEEG,001,201090,
AMNE23.JPG,AMNE24.JPG,AMNE22.JPG,AMSA24.JPG,AMSA22.JPG,AMSA23.JPG,0,2,2,9,,,,,,,,,,,,,,,,,,,,,,,AMNE01.jpg,AMSA17.jpg,AMNE08.jpg,AMSA01.jpg,AMSA01.jpg,MS,2,num_4,32,num_8,3.3499746134,,,2017_Aug_08_1616,60.008603469,MAFE4ImagesEEG,001,201090,
AMSA21.JPG,AMNE23.JPG,AMNE21.JPG,AMSA25.JPG,AMNE25.JPG,AMSA23.JPG,0,3,3,5,,,,,,,,,,,,,,,,,,,,,,,AMNE06.jpg,AMSA09.jpg,AMNE14.jpg,AMSA05.jpg,AMNE06.jpg,MN,1,num_8,16,num_8,1.0667732805,,,2017_Aug_08_1616,60.008603469,MAFE4ImagesEEG,001,201090,
AFNE23.JPG,AFNE24.JPG,AFNE22.JPG,AFSA24.JPG,AFSA22.JPG,AFSA23.JPG,0,4,4,8,,,,,,,,,,,,,,,,,,,,,,,AMNE13.jpg,AMSA15.jpg,AMNE12.jpg,AMSA08.jpg,AMSA15.jpg,MS,2,num_6,16,num_6,0.950108875288,,,2017_Aug_08_1616,60.008603469,MAFE4ImagesEEG,001,201090,
AMNE22.JPG,AMSA24.JPG,AMSA22.JPG,AMNE25.JPG,AMNE24.JPG,AMSA25.JPG,0,5,5,7,,,,,,,,,,,,,,,,,,,,,,,AMNE19.jpg,AMSA14.jpg,AMNE06.jpg,AMSA04.jpg,AMNE19.jpg,MN,1,num_8,32,num_4,0.616740581114,,,2017_Aug_08_1616,60.008603469,MAFE4ImagesEEG,001,201090,
AFSA21.JPG,AFNE23.JPG,AFNE21.JPG,AFSA25.JPG,AFNE25.JPG,AFSA23.JPG,0,6,6,4,,,,,,,,,,,,,,,,,,,,,,,AMNE04.jpg,AMSA10.jpg,AMSA18.jpg,AMNE01.jpg,AMNE01.jpg,MN,1,num_4,32,num_8,0.750136394752,,,2017_Aug_08_1616,60.008603469,MAFE4ImagesEEG,001,201090,
AMSA25.JPG,AMNE24.JPG,AMSA24.JPG,AMNE26.JPG,AMSA21.JPG,AMNE25.JPG,0,7,7,3,,,,,,,,,,,,,,,,,,,,,,,AMSA10.jpg,AMNE05.jpg,AMSA05.jpg,AMNE17.jpg,AMNE17.jpg,MN,1,num_4,32,num_6,0.566824117908,,,2017_Aug_08_1616,60.008603469,MAFE4ImagesEEG,001,201090,
AMSA21.JPG,AMNE22.JPG,AMNE21.JPG,AMSA23.JPG,AMSA22.JPG,AMNE23.JPG,0,8,8,1,,,,,,,,,,,,,,,,,,,,,,,AMSA03.jpg,AMSA06.jpg,AMNE12.jpg,AMNE16.jpg,AMNE12.jpg,MN,1,num_2,32,num_8,0.666822546395,,,2017_Aug_08_1616,60.008603469,MAFE4ImagesEEG,001,201090,
AFSA25.JPG,AFNE24.JPG,AFSA24.JPG,AFNE21.JPG,AFSA21.JPG,AFNE25.JPG,0,9,9,2,,,,,,,,,,,,,,,,,,,,,,,AMNE08.jpg,AMSA16.jpg,AMSA02.jpg,AMNE13.jpg,AMSA16.jpg,MS,2,num_6,32,num_4,0.90011832118,,,2017_Aug_08_1616,60.008603469,MAFE4ImagesEEG,001,201090,
AFSA25.JPG,AFNE24.JPG,AFSA24.JPG,AFNE21.JPG,AFSA21.JPG,AFNE25.JPG,,,,,0,0,0,2,,,,,,,,,,,,,,,,,,,AFNE03.jpg,AFNE02.jpg,AFSA11.jpg,AFSA17.jpg,AFNE03.jpg,FN,3,num_8,16,num_8,0.616785164224,,,2017_Aug_08_1616,60.008603469,MAFE4ImagesEEG,001,201090,
AFSA21.JPG,AFNE22.JPG,AFNE21.JPG,AFSA23.JPG,AFSA22.JPG,AFNE23.JPG,,,,,0,1,1,0,,,,,,,,,,,,,,,,,,,AFSA09.jpg,AFNE06.jpg,AFNE02.jpg,AFSA14.jpg,AFNE06.jpg,FN,3,num_6,16,num_6,0.766651944723,,,2017_Aug_08_1616,60.008603469,MAFE4ImagesEEG,001,201090,
AMNE23.JPG,AMNE24.JPG,AMNE22.JPG,AMSA24.JPG,AMSA22.JPG,AMSA23.JPG,,,,,0,2,2,9,,,,,,,,,,,,,,,,,,,AFSA14.jpg,AFSA09.jpg,AFNE08.jpg,AFNE04.jpg,AFSA14.jpg,FS,4,num_8,32,num_4,0.316766465083,,,2017_Aug_08_1616,60.008603469,MAFE4ImagesEEG,001,201090,
AMSA21.JPG,AMNE22.JPG,AMNE21.JPG,AMSA23.JPG,AMSA22.JPG,AMNE23.JPG,,,,,0,3,3,1,,,,,,,,,,,,,,,,,,,AFNE03.jpg,AFNE13.jpg,AFSA04.jpg,AFSA16.jpg,AFSA16.jpg,FS,4,num_4,32,num_6,0.450302120997,,,2017_Aug_08_1616,60.008603469,MAFE4ImagesEEG,001,201090,
AFNE23.JPG,AFNE24.JPG,AFNE22.JPG,AFSA24.JPG,AFSA22.JPG,AFSA23.JPG,,,,,0,4,4,8,,,,,,,,,,,,,,,,,,,AFNE02.jpg,AFNE07.jpg,AFSA04.jpg,AFSA09.jpg,AFSA09.jpg,FS,4,num_4,32,num_8,0.500231093261,,,2017_Aug_08_1616,60.008603469,MAFE4ImagesEEG,001,201090,
AMSA21.JPG,AMNE23.JPG,AMNE21.JPG,AMSA25.JPG,AMNE25.JPG,AMSA23.JPG,,,,,0,5,5,5,,,,,,,,,,,,,,,,,,,AFSA12.jpg,AFSA15.jpg,AFNE03.jpg,AFNE13.jpg,AFNE13.jpg,FN,3,num_4,32,num_8,1.2500509175,,,2017_Aug_08_1616,60.008603469,MAFE4ImagesEEG,001,201090,
AFNE22.JPG,AFSA24.JPG,AFSA22.JPG,AFNE25.JPG,AFNE24.JPG,AFSA25.JPG,,,,,0,6,6,6,,,,,,,,,,,,,,,,,,,AFSA04.jpg,AFNE20.jpg,AFNE08.jpg,AFSA05.jpg,AFSA05.jpg,FS,4,num_4,16,num_4,0.583476623986,,,2017_Aug_08_1616,60.008603469,MAFE4ImagesEEG,001,201090,
AMSA25.JPG,AMNE24.JPG,AMSA24.JPG,AMNE26.JPG,AMSA21.JPG,AMNE25.JPG,,,,,0,7,7,3,,,,,,,,,,,,,,,,,,,AFSA20.jpg,AFSA09.jpg,AFNE16.jpg,AFNE12.jpg,AFNE16.jpg,FN,3,num_2,32,num_8,1.28343451093,,,2017_Aug_08_1616,60.008603469,MAFE4ImagesEEG,001,201090,
AMNE22.JPG,AMSA24.JPG,AMSA22.JPG,AMNE25.JPG,AMNE24.JPG,AMSA25.JPG,,,,,0,8,8,7,,,,,,,,,,,,,,,,,,,AFSA11.jpg,AFNE07.jpg,AFNE19.jpg,AFSA01.jpg,AFNE07.jpg,FN,3,num_6,16,num_6,0.533450788353,,,2017_Aug_08_1616,60.008603469,MAFE4ImagesEEG,001,201090,
AFSA21.JPG,AFNE23.JPG,AFNE21.JPG,AFSA25.JPG,AFNE25.JPG,AFSA23.JPG,,,,,0,9,9,4,,,,,,,,,,,,,,,,,,,AFNE18.jpg,AFSA19.jpg,AFNE13.jpg,AFSA07.jpg,AFNE18.jpg,FN,3,num_8,16,num_8,1.33341031102,,,2017_Aug_08_1616,60.008603469,MAFE4ImagesEEG,001,201090,
AFSA21.JPG,AFNE22.JPG,AFNE21.JPG,AFSA23.JPG,AFSA22.JPG,AFNE23.JPG,,,,,,,,,0,0,0,0,,,,,,,,,,,,,,,AMNE05.jpg,AMNE07.jpg,AMSA20.jpg,AMSA12.jpg,AMNE07.jpg,MN,1,num_6,32,num_2,0.900114472257,,,2017_Aug_08_1616,60.008603469,MAFE4ImagesEEG,001,201090,
AMNE22.JPG,AMSA24.JPG,AMSA22.JPG,AMNE25.JPG,AMNE24.JPG,AMSA25.JPG,,,,,,,,,0,1,1,7,,,,,,,,,,,,,,,AMSA11.jpg,AMNE17.jpg,AMNE14.jpg,AMSA17.jpg,AMSA17.jpg,MS,2,num_4,32,num_6,0.900276445784,,,2017_Aug_08_1616,60.008603469,MAFE4ImagesEEG,001,201090,
AMNE23.JPG,AMNE24.JPG,AMNE22.JPG,AMSA24.JPG,AMSA22.JPG,AMSA23.JPG,,,,,,,,,0,2,2,9,,,,,,,,,,,,,,,AMSA05.jpg,AMSA07.jpg,AMNE06.jpg,AMNE19.jpg,AMNE19.jpg,MN,1,num_4,16,num_4,0.949598577805,,,2017_Aug_08_1616,60.008603469,MAFE4ImagesEEG,001,201090,
AMSA21.JPG,AMNE23.JPG,AMNE21.JPG,AMSA25.JPG,AMNE25.JPG,AMSA23.JPG,,,,,,,,,0,3,3,5,,,,,,,,,,,,,,,AMSA05.jpg,AMNE10.jpg,AMSA04.jpg,AMNE15.jpg,AMSA05.jpg,MS,2,num_8,16,num_8,1.55006673001,,,2017_Aug_08_1616,60.008603469,MAFE4ImagesEEG,001,201090,
AFNE22.JPG,AFSA24.JPG,AFSA22.JPG,AFNE25.JPG,AFNE24.JPG,AFSA25.JPG,,,,,,,,,0,4,4,6,,,,,,,,,,,,,,,AMSA03.jpg,AMNE04.jpg,AMSA19.jpg,AMNE11.jpg,AMSA03.jpg,MS,2,num_8,32,num_6,0.999970171135,,,2017_Aug_08_1616,60.008603469,MAFE4ImagesEEG,001,201090,
AFNE23.JPG,AFNE24.JPG,AFNE22.JPG,AFSA24.JPG,AFSA22.JPG,AFSA23.JPG,,,,,,,,,0,5,5,8,,,,,,,,,,,,,,,AMNE11.jpg,AMSA18.jpg,AMNE09.jpg,AMSA05.jpg,AMSA05.jpg,MS,2,num_4,16,num_4,0.733504415955,,,2017_Aug_08_1616,60.008603469,MAFE4ImagesEEG,001,201090,
AFSA25.JPG,AFNE24.JPG,AFSA24.JPG,AFNE21.JPG,AFSA21.JPG,AFNE25.JPG,,,,,,,,,0,6,6,2,,,,,,,,,,,,,,,AMNE01.jpg,AMNE16.jpg,AMSA17.jpg,AMSA20.jpg,AMSA17.jpg,MS,2,num_2,16,num_2,0.56675900775,,,2017_Aug_08_1616,60.008603469,MAFE4ImagesEEG,001,201090,
AMSA21.JPG,AMNE22.JPG,AMNE21.JPG,AMSA23.JPG,AMSA22.JPG,AMNE23.JPG,,,,,,,,,0,7,7,1,,,,,,,,,,,,,,,AMNE12.jpg,AMSA01.jpg,AMSA20.jpg,AMNE15.jpg,AMNE15.jpg,MN,1,num_4,32,num_8,0.666864883853,,,2017_Aug_08_1616,60.008603469,MAFE4ImagesEEG,001,201090,
AMSA25.JPG,AMNE24.JPG,AMSA24.JPG,AMNE26.JPG,AMSA21.JPG,AMNE25.JPG,,,,,,,,,0,8,8,3,,,,,,,,,,,,,,,AMSA12.jpg,AMNE20.jpg,AMSA06.jpg,AMNE04.jpg,AMSA12.jpg,MS,2,num_8,32,num_6,0.749968647724,,,2017_Aug_08_1616,60.008603469,MAFE4ImagesEEG,001,201090,
AFSA21.JPG,AFNE23.JPG,AFNE21.JPG,AFSA25.JPG,AFNE25.JPG,AFSA23.JPG,,,,,,,,,0,9,9,4,,,,,,,,,,,,,,,AMSA16.jpg,AMNE02.jpg,AMNE15.jpg,AMSA12.jpg,AMNE15.jpg,MN,1,num_2,32,num_8,0.866760066245,,,2017_Aug_08_1616,60.008603469,MAFE4ImagesEEG,001,201090,
AMSA25.JPG,AMNE24.JPG,AMSA24.JPG,AMNE26.JPG,AMSA21.JPG,AMNE25.JPG,,,,,,,,,,,,,0,0,0,3,,,,,,,,,,,AFSA13.jpg,AFSA07.jpg,AFNE06.jpg,AFNE02.jpg,AFSA07.jpg,FS,4,num_6,32,num_4,0.883616883773,,,2017_Aug_08_1616,60.008603469,MAFE4ImagesEEG,001,201090,
AMNE23.JPG,AMNE24.JPG,AMNE22.JPG,AMSA24.JPG,AMSA22.JPG,AMSA23.JPG,,,,,,,,,,,,,0,1,1,9,,,,,,,,,,,AFNE20.jpg,AFSA06.jpg,AFNE12.jpg,AFSA03.jpg,AFSA03.jpg,FS,4,num_4,16,num_4,0.900141735096,,,2017_Aug_08_1616,60.008603469,MAFE4ImagesEEG,001,201090,
AMSA21.JPG,AMNE22.JPG,AMNE21.JPG,AMSA23.JPG,AMSA22.JPG,AMNE23.JPG,,,,,,,,,,,,,0,2,2,1,,,,,,,,,,,AFNE16.jpg,AFSA07.jpg,AFSA10.jpg,AFNE13.jpg,AFSA07.jpg,FS,4,num_6,32,num_2,0.582277697278,,,2017_Aug_08_1616,60.008603469,MAFE4ImagesEEG,001,201090,
AFSA25.JPG,AFNE24.JPG,AFSA24.JPG,AFNE21.JPG,AFSA21.JPG,AFNE25.JPG,,,,,,,,,,,,,0,3,3,2,,,,,,,,,,,AFNE04.jpg,AFNE08.jpg,AFSA13.jpg,AFSA06.jpg,AFNE04.jpg,FN,3,num_8,32,num_6,0.516787377186,,,2017_Aug_08_1616,60.008603469,MAFE4ImagesEEG,001,201090,
AFNE23.JPG,AFNE24.JPG,AFNE22.JPG,AFSA24.JPG,AFSA22.JPG,AFSA23.JPG,,,,,,,,,,,,,0,4,4,8,,,,,,,,,,,AFNE07.jpg,AFNE14.jpg,AFSA12.jpg,AFSA13.jpg,AFSA12.jpg,FS,4,num_2,32,num_8,0.650097232545,,,2017_Aug_08_1616,60.008603469,MAFE4ImagesEEG,001,201090,
AMSA21.JPG,AMNE23.JPG,AMNE21.JPG,AMSA25.JPG,AMNE25.JPG,AMSA23.JPG,,,,,,,,,,,,,0,5,5,5,,,,,,,,,,,AFNE10.jpg,AFNE08.jpg,AFSA12.jpg,AFSA18.jpg,AFSA12.jpg,FS,4,num_2,32,num_4,1.11672662897,,,2017_Aug_08_1616,60.008603469,MAFE4ImagesEEG,001,201090,
AFNE22.JPG,AFSA24.JPG,AFSA22.JPG,AFNE25.JPG,AFNE24.JPG,AFSA25.JPG,,,,,,,,,,,,,0,6,6,6,,,,,,,,,,,AFNE02.jpg,AFSA11.jpg,AFSA08.jpg,AFNE14.jpg,AFSA11.jpg,FS,4,num_6,16,num_6,0.56679717591,,,2017_Aug_08_1616,60.008603469,MAFE4ImagesEEG,001,201090,
AFSA21.JPG,AFNE23.JPG,AFNE21.JPG,AFSA25.JPG,AFNE25.JPG,AFSA23.JPG,,,,,,,,,,,,,0,7,7,4,,,,,,,,,,,AFNE12.jpg,AFSA16.jpg,AFSA11.jpg,AFNE20.jpg,AFSA16.jpg,FS,4,num_6,32,num_8,1.60015735519,,,2017_Aug_08_1616,60.008603469,MAFE4ImagesEEG,001,201090,
AMNE22.JPG,AMSA24.JPG,AMSA22.JPG,AMNE25.JPG,AMNE24.JPG,AMSA25.JPG,,,,,,,,,,,,,0,8,8,7,,,,,,,,,,,AFNE03.jpg,AFNE07.jpg,AFSA04.jpg,AFSA16.jpg,AFNE03.jpg,FN,3,num_8,16,num_8,1.76668466022,,,2017_Aug_08_1616,60.008603469,MAFE4ImagesEEG,001,201090,
AFSA21.JPG,AFNE22.JPG,AFNE21.JPG,AFSA23.JPG,AFSA22.JPG,AFNE23.JPG,,,,,,,,,,,,,0,9,9,0,,,,,,,,,,,AFNE09.jpg,AFSA05.jpg,AFNE08.jpg,AFSA06.jpg,AFNE08.jpg,FN,3,num_2,32,num_6,1.25006695464,,,2017_Aug_08_1616,60.008603469,MAFE4ImagesEEG,001,201090,
AMSA25.JPG,AMNE24.JPG,AMSA24.JPG,AMNE26.JPG,AMSA21.JPG,AMNE25.JPG,,,,,,,,,,,,,,,,,0,0,0,3,,,,,,,AMNE19.jpg,AMSA05.jpg,AMNE14.jpg,AMSA07.jpg,AMNE19.jpg,MN,1,num_8,32,num_4,1.13343526446,,,2017_Aug_08_1616,60.008603469,MAFE4ImagesEEG,001,201090,
AMNE23.JPG,AMNE24.JPG,AMNE22.JPG,AMSA24.JPG,AMSA22.JPG,AMSA23.JPG,,,,,,,,,,,,,,,,,0,1,1,9,,,,,,,AMNE10.jpg,AMNE04.jpg,AMSA14.jpg,AMSA15.jpg,AMSA14.jpg,MS,2,num_2,32,num_8,1.33342859312,,,2017_Aug_08_1616,60.008603469,MAFE4ImagesEEG,001,201090,
AFSA25.JPG,AFNE24.JPG,AFSA24.JPG,AFNE21.JPG,AFSA21.JPG,AFNE25.JPG,,,,,,,,,,,,,,,,,0,2,2,2,,,,,,,AMSA15.jpg,AMNE04.jpg,AMNE20.jpg,AMSA05.jpg,AMSA15.jpg,MS,2,num_8,32,num_6,0.766766448738,,,2017_Aug_08_1616,60.008603469,MAFE4ImagesEEG,001,201090,
AFNE22.JPG,AFSA24.JPG,AFSA22.JPG,AFNE25.JPG,AFNE24.JPG,AFSA25.JPG,,,,,,,,,,,,,,,,,0,3,3,6,,,,,,,AMSA14.jpg,AMNE12.jpg,AMSA18.jpg,AMNE14.jpg,AMNE14.jpg,MN,1,num_4,32,num_8,0.750089245848,,,2017_Aug_08_1616,60.008603469,MAFE4ImagesEEG,001,201090,
AFNE23.JPG,AFNE24.JPG,AFNE22.JPG,AFSA24.JPG,AFSA22.JPG,AFSA23.JPG,,,,,,,,,,,,,,,,,0,4,4,8,,,,,,,AMSA06.jpg,AMSA13.jpg,AMNE15.jpg,AMNE18.jpg,AMSA06.jpg,MS,2,num_8,32,num_2,1.15010060021,,,2017_Aug_08_1616,60.008603469,MAFE4ImagesEEG,001,201090,
AFSA21.JPG,AFNE23.JPG,AFNE21.JPG,AFSA25.JPG,AFNE25.JPG,AFSA23.JPG,,,,,,,,,,,,,,,,,0,5,5,4,,,,,,,AMNE12.jpg,AMSA04.jpg,AMSA08.jpg,AMNE07.jpg,AMNE12.jpg,MN,1,num_8,32,num_4,1.2167356417,,,2017_Aug_08_1616,60.008603469,MAFE4ImagesEEG,001,201090,
AMSA21.JPG,AMNE23.JPG,AMNE21.JPG,AMSA25.JPG,AMNE25.JPG,AMSA23.JPG,,,,,,,,,,,,,,,,,0,6,6,5,,,,,,,AMSA06.jpg,AMSA19.jpg,AMNE01.jpg,AMNE17.jpg,AMSA19.jpg,MS,2,num_6,32,num_8,0.700135577004,,,2017_Aug_08_1616,60.008603469,MAFE4ImagesEEG,001,201090,
AMNE22.JPG,AMSA24.JPG,AMSA22.JPG,AMNE25.JPG,AMNE24.JPG,AMSA25.JPG,,,,,,,,,,,,,,,,,0,7,7,7,,,,,,,AMNE05.jpg,AMNE13.jpg,AMSA01.jpg,AMSA02.jpg,AMNE05.jpg,MN,1,num_8,16,num_8,1.10013730871,,,2017_Aug_08_1616,60.008603469,MAFE4ImagesEEG,001,201090,
AFSA21.JPG,AFNE22.JPG,AFNE21.JPG,AFSA23.JPG,AFSA22.JPG,AFNE23.JPG,,,,,,,,,,,,,,,,,0,8,8,0,,,,,,,AMNE07.jpg,AMSA13.jpg,AMNE03.jpg,AMSA09.jpg,AMNE07.jpg,MN,1,num_8,16,num_8,0.700146802701,,,2017_Aug_08_1616,60.008603469,MAFE4ImagesEEG,001,201090,
AMSA21.JPG,AMNE22.JPG,AMNE21.JPG,AMSA23.JPG,AMSA22.JPG,AMNE23.JPG,,,,,,,,,,,,,,,,,0,9,9,1,,,,,,,AMNE18.jpg,AMSA01.jpg,AMNE16.jpg,AMSA16.jpg,AMSA01.jpg,MS,2,num_6,32,num_2,1.03347179689,,,2017_Aug_08_1616,60.008603469,MAFE4ImagesEEG,001,201090,
AFNE23.JPG,AFNE24.JPG,AFNE22.JPG,AFSA24.JPG,AFSA22.JPG,AFSA23.JPG,,,,,,,,,,,,,,,,,,,,,0,0,0,8,,,AFNE17.jpg,AFSA13.jpg,AFNE20.jpg,AFSA06.jpg,AFNE17.jpg,FN,3,num_8,32,num_4,2.13331498695,,,2017_Aug_08_1616,60.008603469,MAFE4ImagesEEG,001,201090,
AFSA21.JPG,AFNE22.JPG,AFNE21.JPG,AFSA23.JPG,AFSA22.JPG,AFNE23.JPG,,,,,,,,,,,,,,,,,,,,,0,1,1,0,,,AFSA10.jpg,AFSA18.jpg,AFNE15.jpg,AFNE18.jpg,AFSA10.jpg,FS,4,num_8,16,num_8,1.93340601306,,,2017_Aug_08_1616,60.008603469,MAFE4ImagesEEG,001,201090,
AMSA21.JPG,AMNE23.JPG,AMNE21.JPG,AMSA25.JPG,AMNE25.JPG,AMSA23.JPG,,,,,,,,,,,,,,,,,,,,,0,2,2,5,,,AFSA14.jpg,AFSA06.jpg,AFNE18.jpg,AFNE16.jpg,AFNE18.jpg,FN,3,num_2,32,num_8,1.66672664508,,,2017_Aug_08_1616,60.008603469,MAFE4ImagesEEG,001,201090,
AMNE22.JPG,AMSA24.JPG,AMSA22.JPG,AMNE25.JPG,AMNE24.JPG,AMSA25.JPG,,,,,,,,,,,,,,,,,,,,,0,3,3,7,,,AFNE14.jpg,AFNE01.jpg,AFSA11.jpg,AFSA17.jpg,AFNE01.jpg,FN,3,num_6,16,num_6,0.966801473638,,,2017_Aug_08_1616,60.008603469,MAFE4ImagesEEG,001,201090,
AFNE22.JPG,AFSA24.JPG,AFSA22.JPG,AFNE25.JPG,AFNE24.JPG,AFSA25.JPG,,,,,,,,,,,,,,,,,,,,,0,4,4,6,,,AFSA06.jpg,AFNE19.jpg,AFSA19.jpg,AFNE08.jpg,AFNE19.jpg,FN,3,num_6,16,num_6,2.41664974764,,,2017_Aug_08_1616,60.008603469,MAFE4ImagesEEG,001,201090,
AMNE23.JPG,AMNE24.JPG,AMNE22.JPG,AMSA24.JPG,AMSA22.JPG,AMSA23.JPG,,,,,,,,,,,,,,,,,,,,,0,5,5,9,,,AFSA18.jpg,AFSA13.jpg,AFNE20.jpg,AFNE18.jpg,AFNE20.jpg,FN,3,num_2,32,num_8,1.01682923385,,,2017_Aug_08_1616,60.008603469,MAFE4ImagesEEG,001,201090,
AFSA21.JPG,AFNE23.JPG,AFNE21.JPG,AFSA25.JPG,AFNE25.JPG,AFSA23.JPG,,,,,,,,,,,,,,,,,,,,,0,6,6,4,,,AFNE06.jpg,AFSA13.jpg,AFSA02.jpg,AFNE16.jpg,AFNE16.jpg,FN,3,num_4,32,num_2,1.25008138781,,,2017_Aug_08_1616,60.008603469,MAFE4ImagesEEG,001,201090,
AFSA25.JPG,AFNE24.JPG,AFSA24.JPG,AFNE21.JPG,AFSA21.JPG,AFNE25.JPG,,,,,,,,,,,,,,,,,,,,,0,7,7,2,,,AFNE01.jpg,AFNE19.jpg,AFSA09.jpg,AFSA07.jpg,AFNE19.jpg,FN,3,num_6,32,num_8,0.95011240337,,,2017_Aug_08_1616,60.008603469,MAFE4ImagesEEG,001,201090,
AMSA21.JPG,AMNE22.JPG,AMNE21.JPG,AMSA23.JPG,AMSA22.JPG,AMNE23.JPG,,,,,,,,,,,,,,,,,,,,,0,8,8,1,,,AFNE12.jpg,AFNE15.jpg,AFSA07.jpg,AFSA10.jpg,AFSA10.jpg,FS,4,num_4,32,num_8,0.800102572655,,,2017_Aug_08_1616,60.008603469,MAFE4ImagesEEG,001,201090,
AMSA25.JPG,AMNE24.JPG,AMSA24.JPG,AMNE26.JPG,AMSA21.JPG,AMNE25.JPG,,,,,,,,,,,,,,,,,,,,,0,9,9,3,,,AFSA07.jpg,AFNE14.jpg,AFNE13.jpg,AFSA05.jpg,AFSA05.jpg,FS,4,num_4,16,num_4,0.866741142701,,,2017_Aug_08_1616,60.008603469,MAFE4ImagesEEG,001,201090,
,,,,,,,,,,,,,,,,,,,,,,,,,,,,,,,,,,,,,,,,,,,space,5.68277070718,2017_Aug_08_1616,60.008603469,MAFE4ImagesEEG,001,201090,
AFNE01.JPG,AFNE01.JPG,AFNE01.JPG,AFNE01.JPG,AFNE01.JPG,AFNE01.JPG,0,0,0,1,,,,,,,,,,,,,,,,,,,,,,,AMSA04.jpg,AMNE01.jpg,AMSA20.jpg,AMNE07.jpg,AMSA04.jpg,MS,2,num_8,32,num_6,0.966756890994,,,2017_Aug_08_1616,60.008603469,MAFE4ImagesEEG,001,201090,
AFNE01.JPG,AFNE01.JPG,AFNE01.JPG,AFNE01.JPG,AFNE01.JPG,AFNE01.JPG,0,1,1,0,,,,,,,,,,,,,,,,,,,,,,,AMNE18.jpg,AMSA14.jpg,AMNE16.jpg,AMSA09.jpg,AMSA14.jpg,MS,2,num_6,16,num_6,0.566799741704,,,2017_Aug_08_1616,60.008603469,MAFE4ImagesEEG,001,201090,
AFNE01.JPG,AFNE01.JPG,AFNE01.JPG,AFNE01.JPG,AFNE01.JPG,AFNE01.JPG,0,2,2,4,,,,,,,,,,,,,,,,,,,,,,,AMSA01.jpg,AMSA19.jpg,AMNE11.jpg,AMNE15.jpg,AMNE15.jpg,MN,1,num_4,32,num_2,1.30005494272,,,2017_Aug_08_1616,60.008603469,MAFE4ImagesEEG,001,201090,
AFNE01.JPG,AFNE01.JPG,AFNE01.JPG,AFNE01.JPG,AFNE01.JPG,AFNE01.JPG,0,3,3,5,,,,,,,,,,,,,,,,,,,,,,,AMSA01.jpg,AMNE03.jpg,AMSA16.jpg,AMNE09.jpg,AMNE09.jpg,MN,1,num_4,16,num_4,1.16671365523,,,2017_Aug_08_1616,60.008603469,MAFE4ImagesEEG,001,201090,
AFNE01.JPG,AFNE01.JPG,AFNE01.JPG,AFNE01.JPG,AFNE01.JPG,AFNE01.JPG,0,4,4,9,,,,,,,,,,,,,,,,,,,,,,,AMNE15.jpg,AMSA20.jpg,AMSA03.jpg,AMNE16.jpg,AMNE15.jpg,MN,1,num_8,32,num_6,0.616793182679,,,2017_Aug_08_1616,60.008603469,MAFE4ImagesEEG,001,201090,
AFNE01.JPG,AFNE01.JPG,AFNE01.JPG,AFNE01.JPG,AFNE01.JPG,AFNE01.JPG,0,5,5,8,,,,,,,,,,,,,,,,,,,,,,,AMSA19.jpg,AMSA15.jpg,AMNE10.jpg,AMNE07.jpg,AMSA19.jpg,MS,2,num_8,32,num_2,1.16680153785,,,2017_Aug_08_1616,60.008603469,MAFE4ImagesEEG,001,201090,
AFNE01.JPG,AFNE01.JPG,AFNE01.JPG,AFNE01.JPG,AFNE01.JPG,AFNE01.JPG,0,6,6,2,,,,,,,,,,,,,,,,,,,,,,,AMNE02.jpg,AMNE14.jpg,AMSA18.jpg,AMSA13.jpg,AMSA18.jpg,MS,2,num_2,32,num_6,3.68322808249,,,2017_Aug_08_1616,60.008603469,MAFE4ImagesEEG,001,201090,
AFNE01.JPG,AFNE01.JPG,AFNE01.JPG,AFNE01.JPG,AFNE01.JPG,AFNE01.JPG,0,7,7,3,,,,,,,,,,,,,,,,,,,,,,,AMNE11.jpg,AMNE06.jpg,AMSA19.jpg,AMSA11.jpg,AMNE06.jpg,MN,1,num_6,32,num_8,0.867119295057,,,2017_Aug_08_1616,60.008603469,MAFE4ImagesEEG,001,201090,
AFNE01.JPG,AFNE01.JPG,AFNE01.JPG,AFNE01.JPG,AFNE01.JPG,AFNE01.JPG,0,8,8,6,,,,,,,,,,,,,,,,,,,,,,,AMSA13.jpg,AMNE06.jpg,AMSA16.jpg,AMNE04.jpg,AMNE06.jpg,MN,1,num_6,32,num_2,0.68344233674,,,2017_Aug_08_1616,60.008603469,MAFE4ImagesEEG,001,201090,
AFNE01.JPG,AFNE01.JPG,AFNE01.JPG,AFNE01.JPG,AFNE01.JPG,AFNE01.JPG,0,9,9,7,,,,,,,,,,,,,,,,,,,,,,,AMNE03.jpg,AMSA12.jpg,AMSA18.jpg,AMNE17.jpg,AMSA12.jpg,MS,2,num_6,32,num_8,1.38313914114,,,2017_Aug_08_1616,60.008603469,MAFE4ImagesEEG,001,201090,
AFNE01.JPG,AFNE01.JPG,AFNE01.JPG,AFNE01.JPG,AFNE01.JPG,AFNE01.JPG,1,0,10,8,,,,,,,,,,,,,,,,,,,,,,,AMSA05.jpg,AMNE16.jpg,AMNE07.jpg,AMSA01.jpg,AMSA01.jpg,MS,2,num_4,32,num_6,0.83349322225,,,2017_Aug_08_1616,60.008603469,MAFE4ImagesEEG,001,201090,
AFNE01.JPG,AFNE01.JPG,AFNE01.JPG,AFNE01.JPG,AFNE01.JPG,AFNE01.JPG,1,1,11,0,,,,,,,,,,,,,,,,,,,,,,,AMNE09.jpg,AMSA04.jpg,AMNE06.jpg,AMSA12.jpg,AMSA12.jpg,MS,2,num_4,32,num_2,0.950177834369,,,2017_Aug_08_1616,60.008603469,MAFE4ImagesEEG,001,201090,
AFNE01.JPG,AFNE01.JPG,AFNE01.JPG,AFNE01.JPG,AFNE01.JPG,AFNE01.JPG,1,2,12,6,,,,,,,,,,,,,,,,,,,,,,,AMSA03.jpg,AMSA08.jpg,AMNE15.jpg,AMNE06.jpg,AMSA03.jpg,MS,2,num_8,16,num_8,2.43362042797,,,2017_Aug_08_1616,60.008603469,MAFE4ImagesEEG,001,201090,
AFNE01.JPG,AFNE01.JPG,AFNE01.JPG,AFNE01.JPG,AFNE01.JPG,AFNE01.JPG,1,3,13,4,,,,,,,,,,,,,,,,,,,,,,,AMNE20.jpg,AMSA16.jpg,AMSA08.jpg,AMNE05.jpg,AMNE05.jpg,MN,1,num_4,32,num_6,0.650138287107,,,2017_Aug_08_1616,60.008603469,MAFE4ImagesEEG,001,201090,
AFNE01.JPG,AFNE01.JPG,AFNE01.JPG,AFNE01.JPG,AFNE01.JPG,AFNE01.JPG,1,4,14,9,,,,,,,,,,,,,,,,,,,,,,,AMSA08.jpg,AMSA15.jpg,AMNE16.jpg,AMNE02.jpg,AMNE16.jpg,MN,1,num_2,32,num_8,1.08358551539,,,2017_Aug_08_1616,60.008603469,MAFE4ImagesEEG,001,201090,
AFNE01.JPG,AFNE01.JPG,AFNE01.JPG,AFNE01.JPG,AFNE01.JPG,AFNE01.JPG,1,5,15,2,,,,,,,,,,,,,,,,,,,,,,,AMNE18.jpg,AMSA02.jpg,AMNE03.jpg,AMSA14.jpg,AMSA14.jpg,MS,2,num_4,32,num_2,0.700197800528,,,2017_Aug_08_1616,60.008603469,MAFE4ImagesEEG,001,201090,
AFNE01.JPG,AFNE01.JPG,AFNE01.JPG,AFNE01.JPG,AFNE01.JPG,AFNE01.JPG,1,6,16,1,,,,,,,,,,,,,,,,,,,,,,,AMSA03.jpg,AMSA01.jpg,AMNE13.jpg,AMNE08.jpg,AMNE08.jpg,MN,1,num_4,16,num_4,1.06659045885,,,2017_Aug_08_1616,60.008603469,MAFE4ImagesEEG,001,201090,
AFNE01.JPG,AFNE01.JPG,AFNE01.JPG,AFNE01.JPG,AFNE01.JPG,AFNE01.JPG,1,7,17,7,,,,,,,,,,,,,,,,,,,,,,,AMSA13.jpg,AMNE07.jpg,AMNE01.jpg,AMSA16.jpg,AMNE07.jpg,MN,1,num_6,16,num_6,2.31662309403,,,2017_Aug_08_1616,60.008603469,MAFE4ImagesEEG,001,201090,
AFNE01.JPG,AFNE01.JPG,AFNE01.JPG,AFNE01.JPG,AFNE01.JPG,AFNE01.JPG,1,8,18,5,,,,,,,,,,,,,,,,,,,,,,,AMNE12.jpg,AMSA14.jpg,AMNE19.jpg,AMSA17.jpg,AMNE12.jpg,MN,1,num_8,32,num_2,1.33343725302,,,2017_Aug_08_1616,60.008603469,MAFE4ImagesEEG,001,201090,
AFNE01.JPG,AFNE01.JPG,AFNE01.JPG,AFNE01.JPG,AFNE01.JPG,AFNE01.JPG,1,9,19,3,,,,,,,,,,,,,,,,,,,,,,,AMNE12.jpg,AMNE13.jpg,AMSA15.jpg,AMSA06.jpg,AMSA15.jpg,MS,2,num_2,32,num_4,1.51675498253,,,2017_Aug_08_1616,60.008603469,MAFE4ImagesEEG,001,201090,
AFNE01.JPG,AFNE01.JPG,AFNE01.JPG,AFNE01.JPG,AFNE01.JPG,AFNE01.JPG,2,0,20,5,,,,,,,,,,,,,,,,,,,,,,,AMSA08.jpg,AMNE10.jpg,AMNE19.jpg,AMSA15.jpg,AMNE19.jpg,MN,1,num_2,32,num_8,1.14999218984,,,2017_Aug_08_1616,60.008603469,MAFE4ImagesEEG,001,201090,
AFNE01.JPG,AFNE01.JPG,AFNE01.JPG,AFNE01.JPG,AFNE01.JPG,AFNE01.JPG,2,1,21,3,,,,,,,,,,,,,,,,,,,,,,,AMNE03.jpg,AMSA03.jpg,AMNE18.jpg,AMSA14.jpg,AMSA03.jpg,MS,2,num_6,16,num_6,0.51678994298,,,2017_Aug_08_1616,60.008603469,MAFE4ImagesEEG,001,201090,
AFNE01.JPG,AFNE01.JPG,AFNE01.JPG,AFNE01.JPG,AFNE01.JPG,AFNE01.JPG,2,2,22,6,,,,,,,,,,,,,,,,,,,,,,,AMNE10.jpg,AMSA18.jpg,AMSA04.jpg,AMNE14.jpg,AMNE14.jpg,MN,1,num_4,32,num_2,0.666875789175,,,2017_Aug_08_1616,60.008603469,MAFE4ImagesEEG,001,201090,
AFNE01.JPG,AFNE01.JPG,AFNE01.JPG,AFNE01.JPG,AFNE01.JPG,AFNE01.JPG,2,3,23,9,,,,,,,,,,,,,,,,,,,,,,,AMNE16.jpg,AMSA11.jpg,AMSA09.jpg,AMNE06.jpg,AMNE16.jpg,MN,1,num_8,16,num_8,0.966740533011,,,2017_Aug_08_1616,60.008603469,MAFE4ImagesEEG,001,201090,
AFNE01.JPG,AFNE01.JPG,AFNE01.JPG,AFNE01.JPG,AFNE01.JPG,AFNE01.JPG,2,4,24,4,,,,,,,,,,,,,,,,,,,,,,,AMSA03.jpg,AMNE20.jpg,AMSA17.jpg,AMNE15.jpg,AMNE20.jpg,MN,1,num_6,16,num_6,1.11674843938,,,2017_Aug_08_1616,60.008603469,MAFE4ImagesEEG,001,201090,
AFNE01.JPG,AFNE01.JPG,AFNE01.JPG,AFNE01.JPG,AFNE01.JPG,AFNE01.JPG,2,5,25,2,,,,,,,,,,,,,,,,,,,,,,,AMNE11.jpg,AMSA12.jpg,AMNE19.jpg,AMSA03.jpg,AMNE11.jpg,MN,1,num_8,16,num_8,0.833669950021,,,2017_Aug_08_1616,60.008603469,MAFE4ImagesEEG,001,201090,
AFNE01.JPG,AFNE01.JPG,AFNE01.JPG,AFNE01.JPG,AFNE01.JPG,AFNE01.JPG,2,6,26,0,,,,,,,,,,,,,,,,,,,,,,,AMSA15.jpg,AMNE18.jpg,AMSA16.jpg,AMNE10.jpg,AMSA16.jpg,MS,2,num_2,16,num_2,0.450122506823,,,2017_Aug_08_1616,60.008603469,MAFE4ImagesEEG,001,201090,
AFNE01.JPG,AFNE01.JPG,AFNE01.JPG,AFNE01.JPG,AFNE01.JPG,AFNE01.JPG,2,7,27,7,,,,,,,,,,,,,,,,,,,,,,,AMSA14.jpg,AMNE14.jpg,AMNE08.jpg,AMSA13.jpg,AMNE14.jpg,MN,1,num_6,16,num_6,0.516789943213,,,2017_Aug_08_1616,60.008603469,MAFE4ImagesEEG,001,201090,
AFNE01.JPG,AFNE01.JPG,AFNE01.JPG,AFNE01.JPG,AFNE01.JPG,AFNE01.JPG,2,8,28,1,,,,,,,,,,,,,,,,,,,,,,,AMNE12.jpg,AMSA10.jpg,AMSA07.jpg,AMNE01.jpg,AMNE12.jpg,MN,1,num_8,32,num_6,0.783155306475,,,2017_Aug_08_1616,60.008603469,MAFE4ImagesEEG,001,201090,
AFNE01.JPG,AFNE01.JPG,AFNE01.JPG,AFNE01.JPG,AFNE01.JPG,AFNE01.JPG,2,9,29,8,,,,,,,,,,,,,,,,,,,,,,,AMSA18.jpg,AMNE12.jpg,AMSA01.jpg,AMNE18.jpg,AMNE12.jpg,MN,1,num_6,16,num_6,0.916738111526,,,2017_Aug_08_1616,60.008603469,MAFE4ImagesEEG,001,201090,
AFNE01.JPG,AFNE01.JPG,AFNE01.JPG,AFNE01.JPG,AFNE01.JPG,AFNE01.JPG,3,0,30,2,,,,,,,,,,,,,,,,,,,,,,,AMSA19.jpg,AMNE08.jpg,AMSA10.jpg,AMNE16.jpg,AMNE08.jpg,MN,1,num_6,32,num_8,2.21663332568,,,2017_Aug_08_1616,60.008603469,MAFE4ImagesEEG,001,201090,
AFNE01.JPG,AFNE01.JPG,AFNE01.JPG,AFNE01.JPG,AFNE01.JPG,AFNE01.JPG,3,1,31,5,,,,,,,,,,,,,,,,,,,,,,,AMSA06.jpg,AMNE19.jpg,AMNE01.jpg,AMSA15.jpg,AMNE01.jpg,MN,1,num_2,32,num_6,0.850083183963,,,2017_Aug_08_1616,60.008603469,MAFE4ImagesEEG,001,201090,
AFNE01.JPG,AFNE01.JPG,AFNE01.JPG,AFNE01.JPG,AFNE01.JPG,AFNE01.JPG,3,2,32,0,,,,,,,,,,,,,,,,,,,,,,,AMNE05.jpg,AMSA10.jpg,AMNE08.jpg,AMSA17.jpg,AMSA17.jpg,MS,2,num_4,16,num_4,0.950111761922,,,2017_Aug_08_1616,60.008603469,MAFE4ImagesEEG,001,201090,
AFNE01.JPG,AFNE01.JPG,AFNE01.JPG,AFNE01.JPG,AFNE01.JPG,AFNE01.JPG,3,3,33,3,,,,,,,,,,,,,,,,,,,,,,,AMSA20.jpg,AMNE05.jpg,AMSA13.jpg,AMNE14.jpg,AMNE14.jpg,MN,1,num_4,32,num_6,1.91672528186,,,2017_Aug_08_1616,60.008603469,MAFE4ImagesEEG,001,201090,
AFNE01.JPG,AFNE01.JPG,AFNE01.JPG,AFNE01.JPG,AFNE01.JPG,AFNE01.JPG,3,4,34,6,,,,,,,,,,,,,,,,,,,,,,,AMSA16.jpg,AMSA17.jpg,AMNE05.jpg,AMNE13.jpg,AMSA16.jpg,MS,2,num_8,16,num_8,0.833444469841,,,2017_Aug_08_1616,60.008603469,MAFE4ImagesEEG,001,201090,
AFNE01.JPG,AFNE01.JPG,AFNE01.JPG,AFNE01.JPG,AFNE01.JPG,AFNE01.JPG,3,5,35,9,,,,,,,,,,,,,,,,,,,,,,,AMSA15.jpg,AMNE13.jpg,AMSA04.jpg,AMNE07.jpg,AMSA15.jpg,MS,2,num_8,32,num_2,0.900125377346,,,2017_Aug_08_1616,60.008603469,MAFE4ImagesEEG,001,201090,
AFNE01.JPG,AFNE01.JPG,AFNE01.JPG,AFNE01.JPG,AFNE01.JPG,AFNE01.JPG,3,6,36,7,,,,,,,,,,,,,,,,,,,,,,,AMNE14.jpg,AMSA07.jpg,AMNE12.jpg,AMSA04.jpg,AMSA07.jpg,MS,2,num_6,32,num_4,1.53342480841,,,2017_Aug_08_1616,60.008603469,MAFE4ImagesEEG,001,201090,
AFNE01.JPG,AFNE01.JPG,AFNE01.JPG,AFNE01.JPG,AFNE01.JPG,AFNE01.JPG,3,7,37,8,,,,,,,,,,,,,,,,,,,,,,,AMSA03.jpg,AMNE16.jpg,AMSA19.jpg,AMNE12.jpg,AMSA19.jpg,MS,2,num_2,32,num_4,1.566715708,,,2017_Aug_08_1616,60.008603469,MAFE4ImagesEEG,001,201090,
AFNE01.JPG,AFNE01.JPG,AFNE01.JPG,AFNE01.JPG,AFNE01.JPG,AFNE01.JPG,3,8,38,4,,,,,,,,,,,,,,,,,,,,,,,AMNE03.jpg,AMSA03.jpg,AMNE11.jpg,AMSA01.jpg,AMSA03.jpg,MS,2,num_6,16,num_6,1.20009243721,,,2017_Aug_08_1616,60.008603469,MAFE4ImagesEEG,001,201090,
AFNE01.JPG,AFNE01.JPG,AFNE01.JPG,AFNE01.JPG,AFNE01.JPG,AFNE01.JPG,3,9,39,1,,,,,,,,,,,,,,,,,,,,,,,AMNE10.jpg,AMNE03.jpg,AMSA08.jpg,AMSA20.jpg,AMSA08.jpg,MS,2,num_2,32,num_6,1.16669569351,,,2017_Aug_08_1616,60.008603469,MAFE4ImagesEEG,001,201090,
AFNE01.JPG,AFNE01.JPG,AFNE01.JPG,AFNE01.JPG,AFNE01.JPG,AFNE01.JPG,4,0,40,3,,,,,,,,,,,,,,,,,,,,,,,AMSA15.jpg,AMSA01.jpg,AMNE07.jpg,AMNE20.jpg,AMSA01.jpg,MS,2,num_6,32,num_8,1.06672356604,,,2017_Aug_08_1616,60.008603469,MAFE4ImagesEEG,001,201090,
AFNE01.JPG,AFNE01.JPG,AFNE01.JPG,AFNE01.JPG,AFNE01.JPG,AFNE01.JPG,4,1,41,1,,,,,,,,,,,,,,,,,,,,,,,AMNE17.jpg,AMNE15.jpg,AMSA16.jpg,AMSA18.jpg,AMSA16.jpg,MS,2,num_2,48,None,,,,2017_Aug_08_1616,60.008603469,MAFE4ImagesEEG,001,201090,
AFNE01.JPG,AFNE01.JPG,AFNE01.JPG,AFNE01.JPG,AFNE01.JPG,AFNE01.JPG,4,2,42,9,,,,,,,,,,,,,,,,,,,,,,,AMNE03.jpg,AMNE10.jpg,AMSA06.jpg,AMSA04.jpg,AMNE10.jpg,MN,1,num_6,16,num_6,0.933513460914,,,2017_Aug_08_1616,60.008603469,MAFE4ImagesEEG,001,201090,
AFNE01.JPG,AFNE01.JPG,AFNE01.JPG,AFNE01.JPG,AFNE01.JPG,AFNE01.JPG,4,3,43,2,,,,,,,,,,,,,,,,,,,,,,,AMSA02.jpg,AMNE05.jpg,AMNE15.jpg,AMSA16.jpg,AMNE05.jpg,MN,1,num_6,32,num_8,1.05025805137,,,2017_Aug_08_1616,60.008603469,MAFE4ImagesEEG,001,201090,
AFNE01.JPG,AFNE01.JPG,AFNE01.JPG,AFNE01.JPG,AFNE01.JPG,AFNE01.JPG,4,4,44,5,,,,,,,,,,,,,,,,,,,,,,,AMNE09.jpg,AMNE05.jpg,AMSA17.jpg,AMSA16.jpg,AMNE09.jpg,MN,1,num_8,32,num_6,0.583486246178,,,2017_Aug_08_1616,60.008603469,MAFE4ImagesEEG,001,201090,
AFNE01.JPG,AFNE01.JPG,AFNE01.JPG,AFNE01.JPG,AFNE01.JPG,AFNE01.JPG,4,5,45,4,,,,,,,,,,,,,,,,,,,,,,,AMNE16.jpg,AMNE06.jpg,AMSA17.jpg,AMSA02.jpg,AMSA02.jpg,MS,2,num_4,32,num_8,0.550144348992,,,2017_Aug_08_1616,60.008603469,MAFE4ImagesEEG,001,201090,
AFNE01.JPG,AFNE01.JPG,AFNE01.JPG,AFNE01.JPG,AFNE01.JPG,AFNE01.JPG,4,6,46,0,,,,,,,,,,,,,,,,,,,,,,,AMSA07.jpg,AMNE20.jpg,AMSA12.jpg,AMNE10.jpg,AMNE20.jpg,MN,1,num_6,32,num_2,0.500140323769,,,2017_Aug_08_1616,60.008603469,MAFE4ImagesEEG,001,201090,
AFNE01.JPG,AFNE01.JPG,AFNE01.JPG,AFNE01.JPG,AFNE01.JPG,AFNE01.JPG,4,7,47,7,,,,,,,,,,,,,,,,,,,,,,,AMNE11.jpg,AMNE07.jpg,AMSA09.jpg,AMSA20.jpg,AMSA20.jpg,MS,2,num_4,32,num_8,1.46659251139,,,2017_Aug_08_1616,60.008603469,MAFE4ImagesEEG,001,201090,
AFNE01.JPG,AFNE01.JPG,AFNE01.JPG,AFNE01.JPG,AFNE01.JPG,AFNE01.JPG,4,8,48,6,,,,,,,,,,,,,,,,,,,,,,,AMNE18.jpg,AMSA02.jpg,AMSA07.jpg,AMNE06.jpg,AMNE18.jpg,MN,1,num_8,32,num_6,0.883406157373,,,2017_Aug_08_1616,60.008603469,MAFE4ImagesEEG,001,201090,
AFNE01.JPG,AFNE01.JPG,AFNE01.JPG,AFNE01.JPG,AFNE01.JPG,AFNE01.JPG,4,9,49,8,,,,,,,,,,,,,,,,,,,,,,,AMNE19.jpg,AMSA10.jpg,AMSA08.jpg,AMNE06.jpg,AMSA08.jpg,MS,2,num_2,32,num_8,0.716774291126,,,2017_Aug_08_1616,60.008603469,MAFE4ImagesEEG,001,201090,
AFNE01.JPG,AFNE01.JPG,AFNE01.JPG,AFNE01.JPG,AFNE01.JPG,AFNE01.JPG,5,0,50,0,,,,,,,,,,,,,,,,,,,,,,,AMSA05.jpg,AMNE01.jpg,AMNE06.jpg,AMSA03.jpg,AMNE06.jpg,MN,1,num_2,32,num_6,0.816754437285,,,2017_Aug_08_1616,60.008603469,MAFE4ImagesEEG,001,201090,
AFNE01.JPG,AFNE01.JPG,AFNE01.JPG,AFNE01.JPG,AFNE01.JPG,AFNE01.JPG,5,1,51,9,,,,,,,,,,,,,,,,,,,,,,,AMNE02.jpg,AMNE03.jpg,AMSA14.jpg,AMSA07.jpg,AMSA14.jpg,MS,2,num_2,32,num_4,0.666810358176,,,2017_Aug_08_1616,60.008603469,MAFE4ImagesEEG,001,201090,
AFNE01.JPG,AFNE01.JPG,AFNE01.JPG,AFNE01.JPG,AFNE01.JPG,AFNE01.JPG,5,2,52,3,,,,,,,,,,,,,,,,,,,,,,,AMNE06.jpg,AMSA09.jpg,AMNE04.jpg,AMSA03.jpg,AMNE06.jpg,MN,1,num_8,32,num_2,1.03342945897,,,2017_Aug_08_1616,60.008603469,MAFE4ImagesEEG,001,201090,
AFNE01.JPG,AFNE01.JPG,AFNE01.JPG,AFNE01.JPG,AFNE01.JPG,AFNE01.JPG,5,3,53,2,,,,,,,,,,,,,,,,,,,,,,,AMSA06.jpg,AMNE19.jpg,AMNE03.jpg,AMSA03.jpg,AMSA03.jpg,MS,2,num_4,32,num_2,2.43336062832,,,2017_Aug_08_1616,60.008603469,MAFE4ImagesEEG,001,201090,
AFNE01.JPG,AFNE01.JPG,AFNE01.JPG,AFNE01.JPG,AFNE01.JPG,AFNE01.JPG,5,4,54,4,,,,,,,,,,,,,,,,,,,,,,,AMSA01.jpg,AMSA08.jpg,AMNE20.jpg,AMNE18.jpg,AMNE20.jpg,MN,1,num_2,16,num_2,1.26677045808,,,2017_Aug_08_1616,60.008603469,MAFE4ImagesEEG,001,201090,
AFNE01.JPG,AFNE01.JPG,AFNE01.JPG,AFNE01.JPG,AFNE01.JPG,AFNE01.JPG,5,5,55,5,,,,,,,,,,,,,,,,,,,,,,,AMSA01.jpg,AMNE06.jpg,AMNE09.jpg,AMSA20.jpg,AMSA20.jpg,MS,2,num_4,32,num_2,1.56667369092,,,2017_Aug_08_1616,60.008603469,MAFE4ImagesEEG,001,201090,
AFNE01.JPG,AFNE01.JPG,AFNE01.JPG,AFNE01.JPG,AFNE01.JPG,AFNE01.JPG,5,6,56,8,,,,,,,,,,,,,,,,,,,,,,,AMSA05.jpg,AMNE12.jpg,AMSA10.jpg,AMNE04.jpg,AMSA10.jpg,MS,2,num_2,32,num_6,3.0165752077,,,2017_Aug_08_1616,60.008603469,MAFE4ImagesEEG,001,201090,
AFNE01.JPG,AFNE01.JPG,AFNE01.JPG,AFNE01.JPG,AFNE01.JPG,AFNE01.JPG,5,7,57,1,,,,,,,,,,,,,,,,,,,,,,,AMNE09.jpg,AMSA16.jpg,AMNE11.jpg,AMSA09.jpg,AMNE09.jpg,MN,1,num_8,16,num_8,0.650126098888,,,2017_Aug_08_1616,60.008603469,MAFE4ImagesEEG,001,201090,
AFNE01.JPG,AFNE01.JPG,AFNE01.JPG,AFNE01.JPG,AFNE01.JPG,AFNE01.JPG,5,8,58,7,,,,,,,,,,,,,,,,,,,,,,,AMNE19.jpg,AMNE05.jpg,AMSA15.jpg,AMSA08.jpg,AMNE19.jpg,MN,1,num_8,32,num_6,0.583520244574,,,2017_Aug_08_1616,60.008603469,MAFE4ImagesEEG,001,201090,
AFNE01.JPG,AFNE01.JPG,AFNE01.JPG,AFNE01.JPG,AFNE01.JPG,AFNE01.JPG,5,9,59,6,,,,,,,,,,,,,,,,,,,,,,,AMNE07.jpg,AMNE08.jpg,AMSA03.jpg,AMSA05.jpg,AMNE07.jpg,MN,1,num_8,16,num_8,0.733454701491,,,2017_Aug_08_1616,60.008603469,MAFE4ImagesEEG,001,201090,
,,,,,,,,,,,,,,,,,,,,,,,,,,,,,,,,,,,,,,,,,,,space,10.9826617516,2017_Aug_08_1616,60.008603469,MAFE4ImagesEEG,001,201090,
AFNE01.JPG,AFNE01.JPG,AFNE01.JPG,AFNE01.JPG,AFNE01.JPG,AFNE01.JPG,,,,,0,0,0,6,,,,,,,,,,,,,,,,,,,AFNE08.jpg,AFSA18.jpg,AFSA05.jpg,AFNE03.jpg,AFNE03.jpg,FN,3,num_4,16,num_4,0.516808545915,,,2017_Aug_08_1616,60.008603469,MAFE4ImagesEEG,001,201090,
AFNE01.JPG,AFNE01.JPG,AFNE01.JPG,AFNE01.JPG,AFNE01.JPG,AFNE01.JPG,,,,,0,1,1,8,,,,,,,,,,,,,,,,,,,AFNE11.jpg,AFSA14.jpg,AFSA13.jpg,AFNE07.jpg,AFNE11.jpg,FN,3,num_8,32,num_2,1.11674106237,,,2017_Aug_08_1616,60.008603469,MAFE4ImagesEEG,001,201090,
AFNE01.JPG,AFNE01.JPG,AFNE01.JPG,AFNE01.JPG,AFNE01.JPG,AFNE01.JPG,,,,,0,2,2,9,,,,,,,,,,,,,,,,,,,AFNE03.jpg,AFSA03.jpg,AFSA07.jpg,AFNE06.jpg,AFNE03.jpg,FN,3,num_8,32,num_6,0.833523051115,,,2017_Aug_08_1616,60.008603469,MAFE4ImagesEEG,001,201090,
AFNE01.JPG,AFNE01.JPG,AFNE01.JPG,AFNE01.JPG,AFNE01.JPG,AFNE01.JPG,,,,,0,3,3,2,,,,,,,,,,,,,,,,,,,AFSA18.jpg,AFNE15.jpg,AFNE17.jpg,AFSA04.jpg,AFSA04.jpg,FS,4,num_4,16,num_4,2.66664934671,,,2017_Aug_08_1616,60.008603469,MAFE4ImagesEEG,001,201090,
AFNE01.JPG,AFNE01.JPG,AFNE01.JPG,AFNE01.JPG,AFNE01.JPG,AFNE01.JPG,,,,,0,4,4,7,,,,,,,,,,,,,,,,,,,AFNE05.jpg,AFSA07.jpg,AFNE09.jpg,AFSA18.jpg,AFNE09.jpg,FN,3,num_2,32,num_8,1.40008480381,,,2017_Aug_08_1616,60.008603469,MAFE4ImagesEEG,001,201090,
AFNE01.JPG,AFNE01.JPG,AFNE01.JPG,AFNE01.JPG,AFNE01.JPG,AFNE01.JPG,,,,,0,5,5,0,,,,,,,,,,,,,,,,,,,AFSA15.jpg,AFSA07.jpg,AFNE11.jpg,AFNE06.jpg,AFNE06.jpg,FN,3,num_4,32,num_8,1.23334228201,,,2017_Aug_08_1616,60.008603469,MAFE4ImagesEEG,001,201090,
AFNE01.JPG,AFNE01.JPG,AFNE01.JPG,AFNE01.JPG,AFNE01.JPG,AFNE01.JPG,,,,,0,6,6,1,,,,,,,,,,,,,,,,,,,AFNE12.jpg,AFSA13.jpg,AFSA06.jpg,AFNE05.jpg,AFSA06.jpg,FS,4,num_2,32,num_6,0.650101722684,,,2017_Aug_08_1616,60.008603469,MAFE4ImagesEEG,001,201090,
AFNE01.JPG,AFNE01.JPG,AFNE01.JPG,AFNE01.JPG,AFNE01.JPG,AFNE01.JPG,,,,,0,7,7,4,,,,,,,,,,,,,,,,,,,AFNE20.jpg,AFSA13.jpg,AFNE10.jpg,AFSA08.jpg,AFSA08.jpg,FS,4,num_4,32,num_8,1.28348390479,,,2017_Aug_08_1616,60.008603469,MAFE4ImagesEEG,001,201090,
AFNE01.JPG,AFNE01.JPG,AFNE01.JPG,AFNE01.JPG,AFNE01.JPG,AFNE01.JPG,,,,,0,8,8,3,,,,,,,,,,,,,,,,,,,AFSA07.jpg,AFSA12.jpg,AFNE03.jpg,AFNE11.jpg,AFSA12.jpg,FS,4,num_6,32,num_2,0.833458903013,,,2017_Aug_08_1616,60.008603469,MAFE4ImagesEEG,001,201090,
AFNE01.JPG,AFNE01.JPG,AFNE01.JPG,AFNE01.JPG,AFNE01.JPG,AFNE01.JPG,,,,,0,9,9,5,,,,,,,,,,,,,,,,,,,AFNE14.jpg,AFSA12.jpg,AFSA18.jpg,AFNE03.jpg,AFSA12.jpg,FS,4,num_6,32,num_8,1.21675937669,,,2017_Aug_08_1616,60.008603469,MAFE4ImagesEEG,001,201090,
AFNE01.JPG,AFNE01.JPG,AFNE01.JPG,AFNE01.JPG,AFNE01.JPG,AFNE01.JPG,,,,,1,0,10,3,,,,,,,,,,,,,,,,,,,AFSA03.jpg,AFSA08.jpg,AFNE03.jpg,AFNE04.jpg,AFSA03.jpg,FS,4,num_8,32,num_6,0.633580720285,,,2017_Aug_08_1616,60.008603469,MAFE4ImagesEEG,001,201090,
AFNE01.JPG,AFNE01.JPG,AFNE01.JPG,AFNE01.JPG,AFNE01.JPG,AFNE01.JPG,,,,,1,1,11,4,,,,,,,,,,,,,,,,,,,AFNE05.jpg,AFSA03.jpg,AFNE13.jpg,AFSA02.jpg,AFNE05.jpg,FN,3,num_8,16,num_8,0.883437910816,,,2017_Aug_08_1616,60.008603469,MAFE4ImagesEEG,001,201090,
AFNE01.JPG,AFNE01.JPG,AFNE01.JPG,AFNE01.JPG,AFNE01.JPG,AFNE01.JPG,,,,,1,2,12,0,,,,,,,,,,,,,,,,,,,AFNE16.jpg,AFNE09.jpg,AFSA06.jpg,AFSA15.jpg,AFNE09.jpg,FN,3,num_6,16,num_6,0.650202756049,,,2017_Aug_08_1616,60.008603469,MAFE4ImagesEEG,001,201090,
AFNE01.JPG,AFNE01.JPG,AFNE01.JPG,AFNE01.JPG,AFNE01.JPG,AFNE01.JPG,,,,,1,3,13,5,,,,,,,,,,,,,,,,,,,AFNE10.jpg,AFSA03.jpg,AFSA20.jpg,AFNE03.jpg,AFNE03.jpg,FN,3,num_4,16,num_4,0.500492817257,,,2017_Aug_08_1616,60.008603469,MAFE4ImagesEEG,001,201090,
AFNE01.JPG,AFNE01.JPG,AFNE01.JPG,AFNE01.JPG,AFNE01.JPG,AFNE01.JPG,,,,,1,4,14,8,,,,,,,,,,,,,,,,,,,AFSA10.jpg,AFNE05.jpg,AFNE11.jpg,AFSA20.jpg,AFSA10.jpg,FS,4,num_8,16,num_8,0.83331489074,,,2017_Aug_08_1616,60.008603469,MAFE4ImagesEEG,001,201090,
AFNE01.JPG,AFNE01.JPG,AFNE01.JPG,AFNE01.JPG,AFNE01.JPG,AFNE01.JPG,,,,,1,5,15,2,,,,,,,,,,,,,,,,,,,AFNE16.jpg,AFNE12.jpg,AFSA04.jpg,AFSA18.jpg,AFSA18.jpg,FS,4,num_4,16,num_4,0.900118320948,,,2017_Aug_08_1616,60.008603469,MAFE4ImagesEEG,001,201090,
AFNE01.JPG,AFNE01.JPG,AFNE01.JPG,AFNE01.JPG,AFNE01.JPG,AFNE01.JPG,,,,,1,6,16,6,,,,,,,,,,,,,,,,,,,AFSA14.jpg,AFNE07.jpg,AFSA04.jpg,AFNE03.jpg,AFSA04.jpg,FS,4,num_2,32,num_8,1.06676718662,,,2017_Aug_08_1616,60.008603469,MAFE4ImagesEEG,001,201090,
AFNE01.JPG,AFNE01.JPG,AFNE01.JPG,AFNE01.JPG,AFNE01.JPG,AFNE01.JPG,,,,,1,7,17,1,,,,,,,,,,,,,,,,,,,AFNE06.jpg,AFSA03.jpg,AFSA19.jpg,AFNE13.jpg,AFSA03.jpg,FS,4,num_6,16,num_6,1.9500084836,,,2017_Aug_08_1616,60.008603469,MAFE4ImagesEEG,001,201090,
AFNE01.JPG,AFNE01.JPG,AFNE01.JPG,AFNE01.JPG,AFNE01.JPG,AFNE01.JPG,,,,,1,8,18,7,,,,,,,,,,,,,,,,,,,AFNE03.jpg,AFNE18.jpg,AFSA10.jpg,AFSA13.jpg,AFSA10.jpg,FS,4,num_2,16,num_2,2.73329433147,,,2017_Aug_08_1616,60.008603469,MAFE4ImagesEEG,001,201090,
AFNE01.JPG,AFNE01.JPG,AFNE01.JPG,AFNE01.JPG,AFNE01.JPG,AFNE01.JPG,,,,,1,9,19,9,,,,,,,,,,,,,,,,,,,AFNE07.jpg,AFNE13.jpg,AFSA12.jpg,AFSA15.jpg,AFSA15.jpg,FS,4,num_4,16,num_4,1.08348704805,,,2017_Aug_08_1616,60.008603469,MAFE4ImagesEEG,001,201090,
AFNE01.JPG,AFNE01.JPG,AFNE01.JPG,AFNE01.JPG,AFNE01.JPG,AFNE01.JPG,,,,,2,0,20,2,,,,,,,,,,,,,,,,,,,AFNE20.jpg,AFNE15.jpg,AFSA13.jpg,AFSA20.jpg,AFSA20.jpg,FS,4,num_4,16,num_4,0.850188707467,,,2017_Aug_08_1616,60.008603469,MAFE4ImagesEEG,001,201090,
AFNE01.JPG,AFNE01.JPG,AFNE01.JPG,AFNE01.JPG,AFNE01.JPG,AFNE01.JPG,,,,,2,1,21,0,,,,,,,,,,,,,,,,,,,AFNE17.jpg,AFSA16.jpg,AFNE14.jpg,AFSA10.jpg,AFSA16.jpg,FS,4,num_6,16,num_6,0.783496574033,,,2017_Aug_08_1616,60.008603469,MAFE4ImagesEEG,001,201090,
AFNE01.JPG,AFNE01.JPG,AFNE01.JPG,AFNE01.JPG,AFNE01.JPG,AFNE01.JPG,,,,,2,2,22,3,,,,,,,,,,,,,,,,,,,AFSA09.jpg,AFNE10.jpg,AFSA15.jpg,AFNE05.jpg,AFSA09.jpg,FS,4,num_8,32,num_4,2.40003027767,,,2017_Aug_08_1616,60.008603469,MAFE4ImagesEEG,001,201090,
AFNE01.JPG,AFNE01.JPG,AFNE01.JPG,AFNE01.JPG,AFNE01.JPG,AFNE01.JPG,,,,,2,3,23,1,,,,,,,,,,,,,,,,,,,AFNE19.jpg,AFSA04.jpg,AFSA16.jpg,AFNE18.jpg,AFNE18.jpg,FN,3,num_4,16,num_4,2.31697815354,,,2017_Aug_08_1616,60.008603469,MAFE4ImagesEEG,001,201090,
AFNE01.JPG,AFNE01.JPG,AFNE01.JPG,AFNE01.JPG,AFNE01.JPG,AFNE01.JPG,,,,,2,4,24,9,,,,,,,,,,,,,,,,,,,AFSA04.jpg,AFNE17.jpg,AFSA20.jpg,AFNE15.jpg,AFNE15.jpg,FN,3,num_4,32,num_6,1.76666734018,,,2017_Aug_08_1616,60.008603469,MAFE4ImagesEEG,001,201090,
AFNE01.JPG,AFNE01.JPG,AFNE01.JPG,AFNE01.JPG,AFNE01.JPG,AFNE01.JPG,,,,,2,5,25,5,,,,,,,,,,,,,,,,,,,AFNE06.jpg,AFNE09.jpg,AFSA05.jpg,AFSA13.jpg,AFSA13.jpg,FS,4,num_4,32,num_2,4.73312818795,,,2017_Aug_08_1616,60.008603469,MAFE4ImagesEEG,001,201090,
AFNE01.JPG,AFNE01.JPG,AFNE01.JPG,AFNE01.JPG,AFNE01.JPG,AFNE01.JPG,,,,,2,6,26,7,,,,,,,,,,,,,,,,,,,AFSA20.jpg,AFNE15.jpg,AFSA01.jpg,AFNE07.jpg,AFSA01.jpg,FS,4,num_2,16,num_2,1.2667412709,,,2017_Aug_08_1616,60.008603469,MAFE4ImagesEEG,001,201090,
AFNE01.JPG,AFNE01.JPG,AFNE01.JPG,AFNE01.JPG,AFNE01.JPG,AFNE01.JPG,,,,,2,7,27,6,,,,,,,,,,,,,,,,,,,AFSA06.jpg,AFNE10.jpg,AFNE09.jpg,AFSA12.jpg,AFNE09.jpg,FN,3,num_2,32,num_4,1.18344025197,,,2017_Aug_08_1616,60.008603469,MAFE4ImagesEEG,001,201090,
AFNE01.JPG,AFNE01.JPG,AFNE01.JPG,AFNE01.JPG,AFNE01.JPG,AFNE01.JPG,,,,,2,8,28,4,,,,,,,,,,,,,,,,,,,AFSA09.jpg,AFNE18.jpg,AFNE04.jpg,AFSA11.jpg,AFNE18.jpg,FN,3,num_6,32,num_8,1.96665457473,,,2017_Aug_08_1616,60.008603469,MAFE4ImagesEEG,001,201090,
AFNE01.JPG,AFNE01.JPG,AFNE01.JPG,AFNE01.JPG,AFNE01.JPG,AFNE01.JPG,,,,,2,9,29,8,,,,,,,,,,,,,,,,,,,AFNE05.jpg,AFSA01.jpg,AFSA09.jpg,AFNE09.jpg,AFSA09.jpg,FS,4,num_2,32,num_6,0.700149047887,,,2017_Aug_08_1616,60.008603469,MAFE4ImagesEEG,001,201090,
AFNE01.JPG,AFNE01.JPG,AFNE01.JPG,AFNE01.JPG,AFNE01.JPG,AFNE01.JPG,,,,,3,0,30,9,,,,,,,,,,,,,,,,,,,AFSA15.jpg,AFNE05.jpg,AFNE10.jpg,AFSA03.jpg,AFSA03.jpg,FS,4,num_4,16,num_4,0.783437237144,,,2017_Aug_08_1616,60.008603469,MAFE4ImagesEEG,001,201090,
AFNE01.JPG,AFNE01.JPG,AFNE01.JPG,AFNE01.JPG,AFNE01.JPG,AFNE01.JPG,,,,,3,1,31,4,,,,,,,,,,,,,,,,,,,AFNE12.jpg,AFSA08.jpg,AFSA04.jpg,AFNE20.jpg,AFNE20.jpg,FN,3,num_4,32,num_8,0.850150539307,,,2017_Aug_08_1616,60.008603469,MAFE4ImagesEEG,001,201090,
AFNE01.JPG,AFNE01.JPG,AFNE01.JPG,AFNE01.JPG,AFNE01.JPG,AFNE01.JPG,,,,,3,2,32,0,,,,,,,,,,,,,,,,,,,AFSA11.jpg,AFNE09.jpg,AFNE16.jpg,AFSA01.jpg,AFNE16.jpg,FN,3,num_2,16,num_2,1.06676301709,,,2017_Aug_08_1616,60.008603469,MAFE4ImagesEEG,001,201090,
AFNE01.JPG,AFNE01.JPG,AFNE01.JPG,AFNE01.JPG,AFNE01.JPG,AFNE01.JPG,,,,,3,3,33,2,,,,,,,,,,,,,,,,,,,AFSA01.jpg,AFNE06.jpg,AFSA04.jpg,AFNE08.jpg,AFNE06.jpg,FN,3,num_6,16,num_6,1.3667643962,,,2017_Aug_08_1616,60.008603469,MAFE4ImagesEEG,001,201090,
AFNE01.JPG,AFNE01.JPG,AFNE01.JPG,AFNE01.JPG,AFNE01.JPG,AFNE01.JPG,,,,,3,4,34,5,,,,,,,,,,,,,,,,,,,AFNE06.jpg,AFSA10.jpg,AFNE13.jpg,AFSA07.jpg,AFSA07.jpg,FS,4,num_4,32,num_8,1.60005632183,,,2017_Aug_08_1616,60.008603469,MAFE4ImagesEEG,001,201090,
AFNE01.JPG,AFNE01.JPG,AFNE01.JPG,AFNE01.JPG,AFNE01.JPG,AFNE01.JPG,,,,,3,5,35,1,,,,,,,,,,,,,,,,,,,AFNE10.jpg,AFSA18.jpg,AFSA13.jpg,AFNE03.jpg,AFNE10.jpg,FN,3,num_8,32,num_6,0.98339849175,,,2017_Aug_08_1616,60.008603469,MAFE4ImagesEEG,001,201090,
AFNE01.JPG,AFNE01.JPG,AFNE01.JPG,AFNE01.JPG,AFNE01.JPG,AFNE01.JPG,,,,,3,6,36,6,,,,,,,,,,,,,,,,,,,AFSA16.jpg,AFSA05.jpg,AFNE09.jpg,AFNE16.jpg,AFSA05.jpg,FS,4,num_6,16,num_6,1.5167437566,,,2017_Aug_08_1616,60.008603469,MAFE4ImagesEEG,001,201090,
AFNE01.JPG,AFNE01.JPG,AFNE01.JPG,AFNE01.JPG,AFNE01.JPG,AFNE01.JPG,,,,,3,7,37,8,,,,,,,,,,,,,,,,,,,AFNE19.jpg,AFSA09.jpg,AFSA03.jpg,AFNE01.jpg,AFSA09.jpg,FS,4,num_6,16,num_6,0.883429571288,,,2017_Aug_08_1616,60.008603469,MAFE4ImagesEEG,001,201090,
AFNE01.JPG,AFNE01.JPG,AFNE01.JPG,AFNE01.JPG,AFNE01.JPG,AFNE01.JPG,,,,,3,8,38,7,,,,,,,,,,,,,,,,,,,AFSA18.jpg,AFNE10.jpg,AFSA01.jpg,AFNE01.jpg,AFSA18.jpg,FS,4,num_8,32,num_2,0.916762808571,,,2017_Aug_08_1616,60.008603469,MAFE4ImagesEEG,001,201090,
AFNE01.JPG,AFNE01.JPG,AFNE01.JPG,AFNE01.JPG,AFNE01.JPG,AFNE01.JPG,,,,,3,9,39,3,,,,,,,,,,,,,,,,,,,AFSA03.jpg,AFSA14.jpg,AFNE06.jpg,AFNE07.jpg,AFNE07.jpg,FN,3,num_4,32,num_6,1.43345652963,,,2017_Aug_08_1616,60.008603469,MAFE4ImagesEEG,001,201090,
AFNE01.JPG,AFNE01.JPG,AFNE01.JPG,AFNE01.JPG,AFNE01.JPG,AFNE01.JPG,,,,,4,0,40,2,,,,,,,,,,,,,,,,,,,AFSA14.jpg,AFNE10.jpg,AFNE06.jpg,AFSA09.jpg,AFNE10.jpg,FN,3,num_6,32,num_8,1.40007261559,,,2017_Aug_08_1616,60.008603469,MAFE4ImagesEEG,001,201090,
AFNE01.JPG,AFNE01.JPG,AFNE01.JPG,AFNE01.JPG,AFNE01.JPG,AFNE01.JPG,,,,,4,1,41,0,,,,,,,,,,,,,,,,,,,AFNE04.jpg,AFSA20.jpg,AFNE11.jpg,AFSA09.jpg,AFSA20.jpg,FS,4,num_6,16,num_6,0.64981754683,,,2017_Aug_08_1616,60.008603469,MAFE4ImagesEEG,001,201090,
AFNE01.JPG,AFNE01.JPG,AFNE01.JPG,AFNE01.JPG,AFNE01.JPG,AFNE01.JPG,,,,,4,2,42,3,,,,,,,,,,,,,,,,,,,AFSA06.jpg,AFSA11.jpg,AFNE14.jpg,AFNE12.jpg,AFSA06.jpg,FS,4,num_8,32,num_6,0.83345537493,,,2017_Aug_08_1616,60.008603469,MAFE4ImagesEEG,001,201090,
AFNE01.JPG,AFNE01.JPG,AFNE01.JPG,AFNE01.JPG,AFNE01.JPG,AFNE01.JPG,,,,,4,3,43,6,,,,,,,,,,,,,,,,,,,AFNE13.jpg,AFSA01.jpg,AFSA09.jpg,AFNE17.jpg,AFNE13.jpg,FN,3,num_8,16,num_8,1.30010433681,,,2017_Aug_08_1616,60.008603469,MAFE4ImagesEEG,001,201090,
AFNE01.JPG,AFNE01.JPG,AFNE01.JPG,AFNE01.JPG,AFNE01.JPG,AFNE01.JPG,,,,,4,4,44,5,,,,,,,,,,,,,,,,,,,AFNE05.jpg,AFSA08.jpg,AFSA04.jpg,AFNE02.jpg,AFSA08.jpg,FS,4,num_6,16,num_6,1.05023110937,,,2017_Aug_08_1616,60.008603469,MAFE4ImagesEEG,001,201090,
AFNE01.JPG,AFNE01.JPG,AFNE01.JPG,AFNE01.JPG,AFNE01.JPG,AFNE01.JPG,,,,,4,5,45,8,,,,,,,,,,,,,,,,,,,AFSA05.jpg,AFSA16.jpg,AFNE18.jpg,AFNE15.jpg,AFNE18.jpg,FN,3,num_2,32,num_8,1.46686321613,,,2017_Aug_08_1616,60.008603469,MAFE4ImagesEEG,001,201090,
AFNE01.JPG,AFNE01.JPG,AFNE01.JPG,AFNE01.JPG,AFNE01.JPG,AFNE01.JPG,,,,,4,6,46,1,,,,,,,,,,,,,,,,,,,AFNE11.jpg,AFSA01.jpg,AFNE18.jpg,AFSA18.jpg,AFSA01.jpg,FS,4,num_6,32,num_8,1.01658194303,,,2017_Aug_08_1616,60.008603469,MAFE4ImagesEEG,001,201090,
AFNE01.JPG,AFNE01.JPG,AFNE01.JPG,AFNE01.JPG,AFNE01.JPG,AFNE01.JPG,,,,,4,7,47,7,,,,,,,,,,,,,,,,,,,AFSA07.jpg,AFNE16.jpg,AFNE17.jpg,AFSA02.jpg,AFNE17.jpg,FN,3,num_2,32,num_6,0.666761605768,,,2017_Aug_08_1616,60.008603469,MAFE4ImagesEEG,001,201090,
AFNE01.JPG,AFNE01.JPG,AFNE01.JPG,AFNE01.JPG,AFNE01.JPG,AFNE01.JPG,,,,,4,8,48,4,,,,,,,,,,,,,,,,,,,AFNE14.jpg,AFNE08.jpg,AFSA14.jpg,AFSA19.jpg,AFNE08.jpg,FN,3,num_6,16,num_6,0.616868877318,,,2017_Aug_08_1616,60.008603469,MAFE4ImagesEEG,001,201090,
AFNE01.JPG,AFNE01.JPG,AFNE01.JPG,AFNE01.JPG,AFNE01.JPG,AFNE01.JPG,,,,,4,9,49,9,,,,,,,,,,,,,,,,,,,AFSA15.jpg,AFNE11.jpg,AFSA11.jpg,AFNE15.jpg,AFNE15.jpg,FN,3,num_4,32,num_8,1.2001017388,,,2017_Aug_08_1616,60.008603469,MAFE4ImagesEEG,001,201090,
AFNE01.JPG,AFNE01.JPG,AFNE01.JPG,AFNE01.JPG,AFNE01.JPG,AFNE01.JPG,,,,,5,0,50,3,,,,,,,,,,,,,,,,,,,AFNE15.jpg,AFNE10.jpg,AFSA10.jpg,AFSA11.jpg,AFNE10.jpg,FN,3,num_6,32,num_8,0.733461757656,,,2017_Aug_08_1616,60.008603469,MAFE4ImagesEEG,001,201090,
AFNE01.JPG,AFNE01.JPG,AFNE01.JPG,AFNE01.JPG,AFNE01.JPG,AFNE01.JPG,,,,,5,1,51,5,,,,,,,,,,,,,,,,,,,AFNE16.jpg,AFSA15.jpg,AFNE13.jpg,AFSA18.jpg,AFSA18.jpg,FS,4,num_4,32,num_8,0.983443395235,,,2017_Aug_08_1616,60.008603469,MAFE4ImagesEEG,001,201090,
AFNE01.JPG,AFNE01.JPG,AFNE01.JPG,AFNE01.JPG,AFNE01.JPG,AFNE01.JPG,,,,,5,2,52,4,,,,,,,,,,,,,,,,,,,AFSA11.jpg,AFNE15.jpg,AFSA08.jpg,AFNE09.jpg,AFNE15.jpg,FN,3,num_6,16,num_6,0.75009501935,,,2017_Aug_08_1616,60.008603469,MAFE4ImagesEEG,001,201090,
AFNE01.JPG,AFNE01.JPG,AFNE01.JPG,AFNE01.JPG,AFNE01.JPG,AFNE01.JPG,,,,,5,3,53,2,,,,,,,,,,,,,,,,,,,AFSA05.jpg,AFSA02.jpg,AFNE09.jpg,AFNE03.jpg,AFSA02.jpg,FS,4,num_6,32,num_4,0.816796454135,,,2017_Aug_08_1616,60.008603469,MAFE4ImagesEEG,001,201090,
AFNE01.JPG,AFNE01.JPG,AFNE01.JPG,AFNE01.JPG,AFNE01.JPG,AFNE01.JPG,,,,,5,4,54,8,,,,,,,,,,,,,,,,,,,AFNE03.jpg,AFSA17.jpg,AFNE08.jpg,AFSA18.jpg,AFSA17.jpg,FS,4,num_6,32,num_8,0.700099012582,,,2017_Aug_08_1616,60.008603469,MAFE4ImagesEEG,001,201090,
AFNE01.JPG,AFNE01.JPG,AFNE01.JPG,AFNE01.JPG,AFNE01.JPG,AFNE01.JPG,,,,,5,5,55,0,,,,,,,,,,,,,,,,,,,AFNE04.jpg,AFSA18.jpg,AFSA15.jpg,AFNE15.jpg,AFNE15.jpg,FN,3,num_4,32,num_8,0.783474443015,,,2017_Aug_08_1616,60.008603469,MAFE4ImagesEEG,001,201090,
AFNE01.JPG,AFNE01.JPG,AFNE01.JPG,AFNE01.JPG,AFNE01.JPG,AFNE01.JPG,,,,,5,6,56,9,,,,,,,,,,,,,,,,,,,AFSA17.jpg,AFNE09.jpg,AFSA04.jpg,AFNE01.jpg,AFSA04.jpg,FS,4,num_2,32,num_8,0.916767298942,,,2017_Aug_08_1616,60.008603469,MAFE4ImagesEEG,001,201090,
AFNE01.JPG,AFNE01.JPG,AFNE01.JPG,AFNE01.JPG,AFNE01.JPG,AFNE01.JPG,,,,,5,7,57,6,,,,,,,,,,,,,,,,,,,AFNE06.jpg,AFNE14.jpg,AFSA07.jpg,AFSA15.jpg,AFSA15.jpg,FS,4,num_4,32,num_8,0.866602262249,,,2017_Aug_08_1616,60.008603469,MAFE4ImagesEEG,001,201090,
AFNE01.JPG,AFNE01.JPG,AFNE01.JPG,AFNE01.JPG,AFNE01.JPG,AFNE01.JPG,,,,,5,8,58,1,,,,,,,,,,,,,,,,,,,AFSA13.jpg,AFNE15.jpg,AFNE17.jpg,AFSA06.jpg,AFSA06.jpg,FS,4,num_4,32,num_6,4.16651287186,,,2017_Aug_08_1616,60.008603469,MAFE4ImagesEEG,001,201090,
AFNE01.JPG,AFNE01.JPG,AFNE01.JPG,AFNE01.JPG,AFNE01.JPG,AFNE01.JPG,,,,,5,9,59,7,,,,,,,,,,,,,,,,,,,AFNE05.jpg,AFSA03.jpg,AFNE09.jpg,AFSA06.jpg,AFNE05.jpg,FN,3,num_8,16,num_8,0.516794112744,,,2017_Aug_08_1616,60.008603469,MAFE4ImagesEEG,001,201090,
,,,,,,,,,,,,,,,,,,,,,,,,,,,,,,,,,,,,,,,,,,,space,3.09992722399,2017_Aug_08_1616,60.008603469,MAFE4ImagesEEG,001,201090,
AFNE01.JPG,AFNE01.JPG,AFNE01.JPG,AFNE01.JPG,AFNE01.JPG,AFNE01.JPG,,,,,,,,,0,0,0,0,,,,,,,,,,,,,,,AMSA05.jpg,AMNE16.jpg,AMNE10.jpg,AMSA16.jpg,AMSA05.jpg,MS,2,num_8,16,num_8,0.76675618533,,,2017_Aug_08_1616,60.008603469,MAFE4ImagesEEG,001,201090,
AFNE01.JPG,AFNE01.JPG,AFNE01.JPG,AFNE01.JPG,AFNE01.JPG,AFNE01.JPG,,,,,,,,,0,1,1,8,,,,,,,,,,,,,,,AMNE19.jpg,AMSA07.jpg,AMNE02.jpg,AMSA12.jpg,AMNE02.jpg,MN,1,num_2,32,num_8,0.766764203552,,,2017_Aug_08_1616,60.008603469,MAFE4ImagesEEG,001,201090,
AFNE01.JPG,AFNE01.JPG,AFNE01.JPG,AFNE01.JPG,AFNE01.JPG,AFNE01.JPG,,,,,,,,,0,2,2,4,,,,,,,,,,,,,,,AMNE09.jpg,AMSA20.jpg,AMNE15.jpg,AMSA06.jpg,AMSA06.jpg,MS,2,num_4,16,num_4,2.1497202022,,,2017_Aug_08_1616,60.008603469,MAFE4ImagesEEG,001,201090,
AFNE01.JPG,AFNE01.JPG,AFNE01.JPG,AFNE01.JPG,AFNE01.JPG,AFNE01.JPG,,,,,,,,,0,3,3,1,,,,,,,,,,,,,,,AMNE07.jpg,AMSA09.jpg,AMNE05.jpg,AMSA11.jpg,AMSA09.jpg,MS,2,num_6,16,num_6,1.05008838,,,2017_Aug_08_1616,60.008603469,MAFE4ImagesEEG,001,201090,
AFNE01.JPG,AFNE01.JPG,AFNE01.JPG,AFNE01.JPG,AFNE01.JPG,AFNE01.JPG,,,,,,,,,0,4,4,3,,,,,,,,,,,,,,,AMSA10.jpg,AMNE04.jpg,AMNE12.jpg,AMSA15.jpg,AMNE04.jpg,MN,1,num_6,32,num_8,0.850163689815,,,2017_Aug_08_1616,60.008603469,MAFE4ImagesEEG,001,201090,
AFNE01.JPG,AFNE01.JPG,AFNE01.JPG,AFNE01.JPG,AFNE01.JPG,AFNE01.JPG,,,,,,,,,0,5,5,9,,,,,,,,,,,,,,,AMNE14.jpg,AMNE11.jpg,AMSA08.jpg,AMSA11.jpg,AMSA08.jpg,MS,2,num_2,32,num_8,0.933439049171,,,2017_Aug_08_1616,60.008603469,MAFE4ImagesEEG,001,201090,
AFNE01.JPG,AFNE01.JPG,AFNE01.JPG,AFNE01.JPG,AFNE01.JPG,AFNE01.JPG,,,,,,,,,0,6,6,7,,,,,,,,,,,,,,,AMSA07.jpg,AMNE18.jpg,AMNE03.jpg,AMSA11.jpg,AMNE18.jpg,MN,1,num_6,16,num_6,1.15012786305,,,2017_Aug_08_1616,60.008603469,MAFE4ImagesEEG,001,201090,
AFNE01.JPG,AFNE01.JPG,AFNE01.JPG,AFNE01.JPG,AFNE01.JPG,AFNE01.JPG,,,,,,,,,0,7,7,5,,,,,,,,,,,,,,,AMSA12.jpg,AMSA13.jpg,AMNE06.jpg,AMNE10.jpg,AMNE06.jpg,MN,1,num_2,16,num_2,1.3835118413,,,2017_Aug_08_1616,60.008603469,MAFE4ImagesEEG,001,201090,
AFNE01.JPG,AFNE01.JPG,AFNE01.JPG,AFNE01.JPG,AFNE01.JPG,AFNE01.JPG,,,,,,,,,0,8,8,2,,,,,,,,,,,,,,,AMNE11.jpg,AMSA17.jpg,AMNE09.jpg,AMSA15.jpg,AMNE09.jpg,MN,1,num_2,32,num_4,0.983428320615,,,2017_Aug_08_1616,60.008603469,MAFE4ImagesEEG,001,201090,
AFNE01.JPG,AFNE01.JPG,AFNE01.JPG,AFNE01.JPG,AFNE01.JPG,AFNE01.JPG,,,,,,,,,0,9,9,6,,,,,,,,,,,,,,,AMNE06.jpg,AMSA01.jpg,AMNE18.jpg,AMSA07.jpg,AMNE18.jpg,MN,1,num_2,32,num_6,0.633457876742,,,2017_Aug_08_1616,60.008603469,MAFE4ImagesEEG,001,201090,
AFNE01.JPG,AFNE01.JPG,AFNE01.JPG,AFNE01.JPG,AFNE01.JPG,AFNE01.JPG,,,,,,,,,1,0,10,0,,,,,,,,,,,,,,,AMNE13.jpg,AMNE01.jpg,AMSA01.jpg,AMSA15.jpg,AMNE13.jpg,MN,1,num_8,16,num_8,1.35484473128,,,2017_Aug_08_1616,60.008603469,MAFE4ImagesEEG,001,201090,
AFNE01.JPG,AFNE01.JPG,AFNE01.JPG,AFNE01.JPG,AFNE01.JPG,AFNE01.JPG,,,,,,,,,1,1,11,1,,,,,,,,,,,,,,,AMSA16.jpg,AMNE19.jpg,AMNE18.jpg,AMSA10.jpg,AMNE19.jpg,MN,1,num_6,32,num_4,0.71675536735,,,2017_Aug_08_1616,60.008603469,MAFE4ImagesEEG,001,201090,
AFNE01.JPG,AFNE01.JPG,AFNE01.JPG,AFNE01.JPG,AFNE01.JPG,AFNE01.JPG,,,,,,,,,1,2,12,5,,,,,,,,,,,,,,,AMNE16.jpg,AMNE08.jpg,AMSA14.jpg,AMSA15.jpg,AMSA14.jpg,MS,2,num_2,32,num_8,3.09989418788,,,2017_Aug_08_1616,60.008603469,MAFE4ImagesEEG,001,201090,
AFNE01.JPG,AFNE01.JPG,AFNE01.JPG,AFNE01.JPG,AFNE01.JPG,AFNE01.JPG,,,,,,,,,1,3,13,8,,,,,,,,,,,,,,,AMSA19.jpg,AMNE13.jpg,AMSA11.jpg,AMNE03.jpg,AMNE13.jpg,MN,1,num_6,16,num_6,0.733456946677,,,2017_Aug_08_1616,60.008603469,MAFE4ImagesEEG,001,201090,
AFNE01.JPG,AFNE01.JPG,AFNE01.JPG,AFNE01.JPG,AFNE01.JPG,AFNE01.JPG,,,,,,,,,1,4,14,7,,,,,,,,,,,,,,,AMSA10.jpg,AMSA15.jpg,AMNE03.jpg,AMNE18.jpg,AMSA10.jpg,MS,2,num_8,32,num_6,2.84997573611,,,2017_Aug_08_1616,60.008603469,MAFE4ImagesEEG,001,201090,
AFNE01.JPG,AFNE01.JPG,AFNE01.JPG,AFNE01.JPG,AFNE01.JPG,AFNE01.JPG,,,,,,,,,1,5,15,4,,,,,,,,,,,,,,,AMNE12.jpg,AMSA16.jpg,AMSA05.jpg,AMNE04.jpg,AMSA16.jpg,MS,2,num_6,16,num_6,2.21692231251,,,2017_Aug_08_1616,60.008603469,MAFE4ImagesEEG,001,201090,
AFNE01.JPG,AFNE01.JPG,AFNE01.JPG,AFNE01.JPG,AFNE01.JPG,AFNE01.JPG,,,,,,,,,1,6,16,6,,,,,,,,,,,,,,,AMSA07.jpg,AMSA06.jpg,AMNE04.jpg,AMNE02.jpg,AMNE04.jpg,MN,1,num_2,32,num_8,1.21674013208,,,2017_Aug_08_1616,60.008603469,MAFE4ImagesEEG,001,201090,
AFNE01.JPG,AFNE01.JPG,AFNE01.JPG,AFNE01.JPG,AFNE01.JPG,AFNE01.JPG,,,,,,,,,1,7,17,9,,,,,,,,,,,,,,,AMNE11.jpg,AMNE17.jpg,AMSA11.jpg,AMSA15.jpg,AMSA11.jpg,MS,2,num_2,32,num_6,1.46668231883,,,2017_Aug_08_1616,60.008603469,MAFE4ImagesEEG,001,201090,
AFNE01.JPG,AFNE01.JPG,AFNE01.JPG,AFNE01.JPG,AFNE01.JPG,AFNE01.JPG,,,,,,,,,1,8,18,3,,,,,,,,,,,,,,,AMSA20.jpg,AMSA02.jpg,AMNE20.jpg,AMNE03.jpg,AMNE03.jpg,MN,1,num_4,32,num_2,1.35009938129,,,2017_Aug_08_1616,60.008603469,MAFE4ImagesEEG,001,201090,
AFNE01.JPG,AFNE01.JPG,AFNE01.JPG,AFNE01.JPG,AFNE01.JPG,AFNE01.JPG,,,,,,,,,1,9,19,2,,,,,,,,,,,,,,,AMNE03.jpg,AMSA09.jpg,AMNE15.jpg,AMSA19.jpg,AMSA09.jpg,MS,2,num_6,32,num_8,0.783439161722,,,2017_Aug_08_1616,60.008603469,MAFE4ImagesEEG,001,201090,
AFNE01.JPG,AFNE01.JPG,AFNE01.JPG,AFNE01.JPG,AFNE01.JPG,AFNE01.JPG,,,,,,,,,2,0,20,7,,,,,,,,,,,,,,,AMNE13.jpg,AMSA20.jpg,AMSA01.jpg,AMNE01.jpg,AMSA20.jpg,MS,2,num_6,16,num_6,0.30004083016,,,2017_Aug_08_1616,60.008603469,MAFE4ImagesEEG,001,201090,
AFNE01.JPG,AFNE01.JPG,AFNE01.JPG,AFNE01.JPG,AFNE01.JPG,AFNE01.JPG,,,,,,,,,2,1,21,6,,,,,,,,,,,,,,,AMSA15.jpg,AMNE07.jpg,AMNE16.jpg,AMSA10.jpg,AMNE16.jpg,MN,1,num_2,32,num_4,1.18344666692,,,2017_Aug_08_1616,60.008603469,MAFE4ImagesEEG,001,201090,
AFNE01.JPG,AFNE01.JPG,AFNE01.JPG,AFNE01.JPG,AFNE01.JPG,AFNE01.JPG,,,,,,,,,2,2,22,5,,,,,,,,,,,,,,,AMNE20.jpg,AMSA08.jpg,AMNE03.jpg,AMSA14.jpg,AMSA14.jpg,MS,2,num_4,32,num_8,3.1165813338,,,2017_Aug_08_1616,60.008603469,MAFE4ImagesEEG,001,201090,
AFNE01.JPG,AFNE01.JPG,AFNE01.JPG,AFNE01.JPG,AFNE01.JPG,AFNE01.JPG,,,,,,,,,2,3,23,0,,,,,,,,,,,,,,,AMSA18.jpg,AMSA16.jpg,AMNE06.jpg,AMNE18.jpg,AMNE06.jpg,MN,1,num_2,32,num_6,0.550151725998,,,2017_Aug_08_1616,60.008603469,MAFE4ImagesEEG,001,201090,
AFNE01.JPG,AFNE01.JPG,AFNE01.JPG,AFNE01.JPG,AFNE01.JPG,AFNE01.JPG,,,,,,,,,2,4,24,1,,,,,,,,,,,,,,,AMSA09.jpg,AMSA12.jpg,AMNE20.jpg,AMNE05.jpg,AMSA09.jpg,MS,2,num_8,32,num_2,1.60004669963,,,2017_Aug_08_1616,60.008603469,MAFE4ImagesEEG,001,201090,
AFNE01.JPG,AFNE01.JPG,AFNE01.JPG,AFNE01.JPG,AFNE01.JPG,AFNE01.JPG,,,,,,,,,2,5,25,8,,,,,,,,,,,,,,,AMSA14.jpg,AMNE12.jpg,AMSA19.jpg,AMNE17.jpg,AMNE12.jpg,MN,1,num_6,16,num_6,1.48396924883,,,2017_Aug_08_1616,60.008603469,MAFE4ImagesEEG,001,201090,
AFNE01.JPG,AFNE01.JPG,AFNE01.JPG,AFNE01.JPG,AFNE01.JPG,AFNE01.JPG,,,,,,,,,2,6,26,3,,,,,,,,,,,,,,,AMNE10.jpg,AMNE20.jpg,AMSA16.jpg,AMSA20.jpg,AMNE20.jpg,MN,1,num_6,16,num_6,1.51658274513,,,2017_Aug_08_1616,60.008603469,MAFE4ImagesEEG,001,201090,
AFNE01.JPG,AFNE01.JPG,AFNE01.JPG,AFNE01.JPG,AFNE01.JPG,AFNE01.JPG,,,,,,,,,2,7,27,2,,,,,,,,,,,,,,,AMSA07.jpg,AMNE18.jpg,AMSA12.jpg,AMNE09.jpg,AMNE18.jpg,MN,1,num_6,16,num_6,2.98331092973,,,2017_Aug_08_1616,60.008603469,MAFE4ImagesEEG,001,201090,
AFNE01.JPG,AFNE01.JPG,AFNE01.JPG,AFNE01.JPG,AFNE01.JPG,AFNE01.JPG,,,,,,,,,2,8,28,4,,,,,,,,,,,,,,,AMNE07.jpg,AMSA02.jpg,AMNE14.jpg,AMSA11.jpg,AMNE07.jpg,MN,1,num_8,16,num_8,1.13340864307,,,2017_Aug_08_1616,60.008603469,MAFE4ImagesEEG,001,201090,
AFNE01.JPG,AFNE01.JPG,AFNE01.JPG,AFNE01.JPG,AFNE01.JPG,AFNE01.JPG,,,,,,,,,2,9,29,9,,,,,,,,,,,,,,,AMNE05.jpg,AMSA14.jpg,AMSA15.jpg,AMNE09.jpg,AMNE09.jpg,MN,1,num_4,32,num_2,3.66653259727,,,2017_Aug_08_1616,60.008603469,MAFE4ImagesEEG,001,201090,
AFNE01.JPG,AFNE01.JPG,AFNE01.JPG,AFNE01.JPG,AFNE01.JPG,AFNE01.JPG,,,,,,,,,3,0,30,2,,,,,,,,,,,,,,,AMNE16.jpg,AMSA02.jpg,AMNE17.jpg,AMSA20.jpg,AMNE16.jpg,MN,1,num_8,16,num_8,2.33325892175,,,2017_Aug_08_1616,60.008603469,MAFE4ImagesEEG,001,201090,
AFNE01.JPG,AFNE01.JPG,AFNE01.JPG,AFNE01.JPG,AFNE01.JPG,AFNE01.JPG,,,,,,,,,3,1,31,3,,,,,,,,,,,,,,,AMNE12.jpg,AMNE13.jpg,AMSA01.jpg,AMSA17.jpg,AMSA17.jpg,MS,2,num_4,32,num_2,0.966777097667,,,2017_Aug_08_1616,60.008603469,MAFE4ImagesEEG,001,201090,
AFNE01.JPG,AFNE01.JPG,AFNE01.JPG,AFNE01.JPG,AFNE01.JPG,AFNE01.JPG,,,,,,,,,3,2,32,8,,,,,,,,,,,,,,,AMSA10.jpg,AMNE09.jpg,AMSA07.jpg,AMNE13.jpg,AMSA10.jpg,MS,2,num_8,16,num_8,0.799986785511,,,2017_Aug_08_1616,60.008603469,MAFE4ImagesEEG,001,201090,
AFNE01.JPG,AFNE01.JPG,AFNE01.JPG,AFNE01.JPG,AFNE01.JPG,AFNE01.JPG,,,,,,,,,3,3,33,1,,,,,,,,,,,,,,,AMNE12.jpg,AMNE20.jpg,AMSA09.jpg,AMSA11.jpg,AMSA11.jpg,MS,2,num_4,16,num_4,2.03336723568,,,2017_Aug_08_1616,60.008603469,MAFE4ImagesEEG,001,201090,
AFNE01.JPG,AFNE01.JPG,AFNE01.JPG,AFNE01.JPG,AFNE01.JPG,AFNE01.JPG,,,,,,,,,3,4,34,9,,,,,,,,,,,,,,,AMNE03.jpg,AMSA13.jpg,AMSA16.jpg,AMNE15.jpg,AMNE15.jpg,MN,1,num_4,32,num_6,2.73333666893,,,2017_Aug_08_1616,60.008603469,MAFE4ImagesEEG,001,201090,
AFNE01.JPG,AFNE01.JPG,AFNE01.JPG,AFNE01.JPG,AFNE01.JPG,AFNE01.JPG,,,,,,,,,3,5,35,6,,,,,,,,,,,,,,,AMSA10.jpg,AMNE02.jpg,AMSA17.jpg,AMNE04.jpg,AMNE04.jpg,MN,1,num_4,32,num_2,1.26671881904,,,2017_Aug_08_1616,60.008603469,MAFE4ImagesEEG,001,201090,
AFNE01.JPG,AFNE01.JPG,AFNE01.JPG,AFNE01.JPG,AFNE01.JPG,AFNE01.JPG,,,,,,,,,3,6,36,0,,,,,,,,,,,,,,,AMSA13.jpg,AMSA05.jpg,AMNE18.jpg,AMNE02.jpg,AMSA13.jpg,MS,2,num_8,16,num_8,1.08343027695,,,2017_Aug_08_1616,60.008603469,MAFE4ImagesEEG,001,201090,
AFNE01.JPG,AFNE01.JPG,AFNE01.JPG,AFNE01.JPG,AFNE01.JPG,AFNE01.JPG,,,,,,,,,3,7,37,4,,,,,,,,,,,,,,,AMSA03.jpg,AMNE06.jpg,AMSA06.jpg,AMNE14.jpg,AMSA06.jpg,MS,2,num_2,32,num_6,0.300149881747,,,2017_Aug_08_1616,60.008603469,MAFE4ImagesEEG,001,201090,
AFNE01.JPG,AFNE01.JPG,AFNE01.JPG,AFNE01.JPG,AFNE01.JPG,AFNE01.JPG,,,,,,,,,3,8,38,5,,,,,,,,,,,,,,,AMNE04.jpg,AMSA14.jpg,AMSA01.jpg,AMNE05.jpg,AMNE05.jpg,MN,1,num_4,16,num_4,0.83384314971,,,2017_Aug_08_1616,60.008603469,MAFE4ImagesEEG,001,201090,
AFNE01.JPG,AFNE01.JPG,AFNE01.JPG,AFNE01.JPG,AFNE01.JPG,AFNE01.JPG,,,,,,,,,3,9,39,7,,,,,,,,,,,,,,,AMSA18.jpg,AMSA06.jpg,AMNE17.jpg,AMNE02.jpg,AMSA18.jpg,MS,2,num_8,32,num_4,1.01676861383,,,2017_Aug_08_1616,60.008603469,MAFE4ImagesEEG,001,201090,
AFNE01.JPG,AFNE01.JPG,AFNE01.JPG,AFNE01.JPG,AFNE01.JPG,AFNE01.JPG,,,,,,,,,4,0,40,4,,,,,,,,,,,,,,,AMSA04.jpg,AMSA16.jpg,AMNE11.jpg,AMNE16.jpg,AMNE11.jpg,MN,1,num_2,16,num_2,1.05018588505,,,2017_Aug_08_1616,60.008603469,MAFE4ImagesEEG,001,201090,
AFNE01.JPG,AFNE01.JPG,AFNE01.JPG,AFNE01.JPG,AFNE01.JPG,AFNE01.JPG,,,,,,,,,4,1,41,8,,,,,,,,,,,,,,,AMNE03.jpg,AMNE07.jpg,AMSA17.jpg,AMSA07.jpg,AMNE03.jpg,MN,1,num_8,16,num_8,0.983373794705,,,2017_Aug_08_1616,60.008603469,MAFE4ImagesEEG,001,201090,
AFNE01.JPG,AFNE01.JPG,AFNE01.JPG,AFNE01.JPG,AFNE01.JPG,AFNE01.JPG,,,,,,,,,4,2,42,6,,,,,,,,,,,,,,,AMSA09.jpg,AMSA06.jpg,AMNE16.jpg,AMNE10.jpg,AMNE16.jpg,MN,1,num_2,32,num_6,1.40015215916,,,2017_Aug_08_1616,60.008603469,MAFE4ImagesEEG,001,201090,
AFNE01.JPG,AFNE01.JPG,AFNE01.JPG,AFNE01.JPG,AFNE01.JPG,AFNE01.JPG,,,,,,,,,4,3,43,9,,,,,,,,,,,,,,,AMNE12.jpg,AMSA04.jpg,AMSA10.jpg,AMNE20.jpg,AMNE12.jpg,MN,1,num_8,32,num_2,1.61670626211,,,2017_Aug_08_1616,60.008603469,MAFE4ImagesEEG,001,201090,
AFNE01.JPG,AFNE01.JPG,AFNE01.JPG,AFNE01.JPG,AFNE01.JPG,AFNE01.JPG,,,,,,,,,4,4,44,7,,,,,,,,,,,,,,,AMNE19.jpg,AMNE07.jpg,AMSA13.jpg,AMSA07.jpg,AMNE19.jpg,MN,1,num_8,16,num_8,0.883459720993,,,2017_Aug_08_1616,60.008603469,MAFE4ImagesEEG,001,201090,
AFNE01.JPG,AFNE01.JPG,AFNE01.JPG,AFNE01.JPG,AFNE01.JPG,AFNE01.JPG,,,,,,,,,4,5,45,1,,,,,,,,,,,,,,,AMNE17.jpg,AMNE18.jpg,AMSA15.jpg,AMSA13.jpg,AMSA15.jpg,MS,2,num_2,32,num_8,0.86673665233,,,2017_Aug_08_1616,60.008603469,MAFE4ImagesEEG,001,201090,
AFNE01.JPG,AFNE01.JPG,AFNE01.JPG,AFNE01.JPG,AFNE01.JPG,AFNE01.JPG,,,,,,,,,4,6,46,0,,,,,,,,,,,,,,,AMNE13.jpg,AMSA17.jpg,AMNE08.jpg,AMSA18.jpg,AMNE13.jpg,MN,1,num_8,32,num_6,0.766756185098,,,2017_Aug_08_1616,60.008603469,MAFE4ImagesEEG,001,201090,
AFNE01.JPG,AFNE01.JPG,AFNE01.JPG,AFNE01.JPG,AFNE01.JPG,AFNE01.JPG,,,,,,,,,4,7,47,5,,,,,,,,,,,,,,,AMNE06.jpg,AMSA15.jpg,AMNE09.jpg,AMSA20.jpg,AMSA20.jpg,MS,2,num_4,32,num_2,1.03342111991,,,2017_Aug_08_1616,60.008603469,MAFE4ImagesEEG,001,201090,
AFNE01.JPG,AFNE01.JPG,AFNE01.JPG,AFNE01.JPG,AFNE01.JPG,AFNE01.JPG,,,,,,,,,4,8,48,2,,,,,,,,,,,,,,,AMSA17.jpg,AMNE01.jpg,AMNE06.jpg,AMSA20.jpg,AMNE01.jpg,MN,1,num_6,16,num_6,0.833848281531,,,2017_Aug_08_1616,60.008603469,MAFE4ImagesEEG,001,201090,
AFNE01.JPG,AFNE01.JPG,AFNE01.JPG,AFNE01.JPG,AFNE01.JPG,AFNE01.JPG,,,,,,,,,4,9,49,3,,,,,,,,,,,,,,,AMSA13.jpg,AMSA16.jpg,AMNE12.jpg,AMNE10.jpg,AMNE12.jpg,MN,1,num_2,32,num_8,0.766780561535,,,2017_Aug_08_1616,60.008603469,MAFE4ImagesEEG,001,201090,
AFNE01.JPG,AFNE01.JPG,AFNE01.JPG,AFNE01.JPG,AFNE01.JPG,AFNE01.JPG,,,,,,,,,5,0,50,5,,,,,,,,,,,,,,,AMNE14.jpg,AMNE09.jpg,AMSA11.jpg,AMSA06.jpg,AMNE14.jpg,MN,1,num_8,32,num_6,1.36673745397,,,2017_Aug_08_1616,60.008603469,MAFE4ImagesEEG,001,201090,
AFNE01.JPG,AFNE01.JPG,AFNE01.JPG,AFNE01.JPG,AFNE01.JPG,AFNE01.JPG,,,,,,,,,5,1,51,6,,,,,,,,,,,,,,,AMNE19.jpg,AMSA05.jpg,AMSA12.jpg,AMNE01.jpg,AMNE19.jpg,MN,1,num_8,32,num_4,0.666765775299,,,2017_Aug_08_1616,60.008603469,MAFE4ImagesEEG,001,201090,
AFNE01.JPG,AFNE01.JPG,AFNE01.JPG,AFNE01.JPG,AFNE01.JPG,AFNE01.JPG,,,,,,,,,5,2,52,4,,,,,,,,,,,,,,,AMSA06.jpg,AMNE08.jpg,AMSA02.jpg,AMNE11.jpg,AMSA06.jpg,MS,2,num_8,16,num_8,0.266774948454,,,2017_Aug_08_1616,60.008603469,MAFE4ImagesEEG,001,201090,
AFNE01.JPG,AFNE01.JPG,AFNE01.JPG,AFNE01.JPG,AFNE01.JPG,AFNE01.JPG,,,,,,,,,5,3,53,3,,,,,,,,,,,,,,,AMSA09.jpg,AMNE06.jpg,AMNE20.jpg,AMSA14.jpg,AMSA09.jpg,MS,2,num_8,32,num_6,0.800031688996,,,2017_Aug_08_1616,60.008603469,MAFE4ImagesEEG,001,201090,
AFNE01.JPG,AFNE01.JPG,AFNE01.JPG,AFNE01.JPG,AFNE01.JPG,AFNE01.JPG,,,,,,,,,5,4,54,8,,,,,,,,,,,,,,,AMSA05.jpg,AMNE10.jpg,AMNE09.jpg,AMSA19.jpg,AMNE09.jpg,MN,1,num_2,16,num_2,0.550155574922,,,2017_Aug_08_1616,60.008603469,MAFE4ImagesEEG,001,201090,
AFNE01.JPG,AFNE01.JPG,AFNE01.JPG,AFNE01.JPG,AFNE01.JPG,AFNE01.JPG,,,,,,,,,5,5,55,9,,,,,,,,,,,,,,,AMSA06.jpg,AMNE10.jpg,AMNE06.jpg,AMSA17.jpg,AMSA06.jpg,MS,2,num_8,32,num_6,3.26653471403,,,2017_Aug_08_1616,60.008603469,MAFE4ImagesEEG,001,201090,
AFNE01.JPG,AFNE01.JPG,AFNE01.JPG,AFNE01.JPG,AFNE01.JPG,AFNE01.JPG,,,,,,,,,5,6,56,1,,,,,,,,,,,,,,,AMNE11.jpg,AMSA17.jpg,AMSA14.jpg,AMNE03.jpg,AMSA14.jpg,MS,2,num_2,32,num_8,0.816755399341,,,2017_Aug_08_1616,60.008603469,MAFE4ImagesEEG,001,201090,
AFNE01.JPG,AFNE01.JPG,AFNE01.JPG,AFNE01.JPG,AFNE01.JPG,AFNE01.JPG,,,,,,,,,5,7,57,7,,,,,,,,,,,,,,,AMSA14.jpg,AMNE19.jpg,AMNE15.jpg,AMSA06.jpg,AMSA14.jpg,MS,2,num_8,32,num_4,0.583468284691,,,2017_Aug_08_1616,60.008603469,MAFE4ImagesEEG,001,201090,
AFNE01.JPG,AFNE01.JPG,AFNE01.JPG,AFNE01.JPG,AFNE01.JPG,AFNE01.JPG,,,,,,,,,5,8,58,2,,,,,,,,,,,,,,,AMNE11.jpg,AMNE13.jpg,AMSA03.jpg,AMSA04.jpg,AMSA04.jpg,MS,2,num_4,32,num_6,0.366788451793,,,2017_Aug_08_1616,60.008603469,MAFE4ImagesEEG,001,201090,
AFNE01.JPG,AFNE01.JPG,AFNE01.JPG,AFNE01.JPG,AFNE01.JPG,AFNE01.JPG,,,,,,,,,5,9,59,0,,,,,,,,,,,,,,,AMNE04.jpg,AMNE10.jpg,AMSA12.jpg,AMSA04.jpg,AMSA12.jpg,MS,2,num_2,48,None,,,,2017_Aug_08_1616,60.008603469,MAFE4ImagesEEG,001,201090,
,,,,,,,,,,,,,,,,,,,,,,,,,,,,,,,,,,,,,,,,,,,space,24.9645963854,2017_Aug_08_1616,60.008603469,MAFE4ImagesEEG,001,201090,
AFNE01.JPG,AFNE01.JPG,AFNE01.JPG,AFNE01.JPG,AFNE01.JPG,AFNE01.JPG,,,,,,,,,,,,,0,0,0,3,,,,,,,,,,,AFNE16.jpg,AFSA14.jpg,AFSA12.jpg,AFNE02.jpg,AFSA14.jpg,FS,4,num_6,32,num_2,1.16685606376,,,2017_Aug_08_1616,60.008603469,MAFE4ImagesEEG,001,201090,
AFNE01.JPG,AFNE01.JPG,AFNE01.JPG,AFNE01.JPG,AFNE01.JPG,AFNE01.JPG,,,,,,,,,,,,,0,1,1,1,,,,,,,,,,,AFNE08.jpg,AFSA04.jpg,AFNE03.jpg,AFSA10.jpg,AFNE03.jpg,FN,3,num_2,32,num_4,1.10009048088,,,2017_Aug_08_1616,60.008603469,MAFE4ImagesEEG,001,201090,
AFNE01.JPG,AFNE01.JPG,AFNE01.JPG,AFNE01.JPG,AFNE01.JPG,AFNE01.JPG,,,,,,,,,,,,,0,2,2,9,,,,,,,,,,,AFSA16.jpg,AFNE18.jpg,AFNE13.jpg,AFSA14.jpg,AFNE18.jpg,FN,3,num_6,32,num_8,0.75007737847,,,2017_Aug_08_1616,60.008603469,MAFE4ImagesEEG,001,201090,
AFNE01.JPG,AFNE01.JPG,AFNE01.JPG,AFNE01.JPG,AFNE01.JPG,AFNE01.JPG,,,,,,,,,,,,,0,3,3,7,,,,,,,,,,,AFNE06.jpg,AFNE12.jpg,AFSA07.jpg,AFSA06.jpg,AFNE12.jpg,FN,3,num_6,32,num_8,0.716809572419,,,2017_Aug_08_1616,60.008603469,MAFE4ImagesEEG,001,201090,
AFNE01.JPG,AFNE01.JPG,AFNE01.JPG,AFNE01.JPG,AFNE01.JPG,AFNE01.JPG,,,,,,,,,,,,,0,4,4,8,,,,,,,,,,,AFNE03.jpg,AFSA12.jpg,AFNE05.jpg,AFSA18.jpg,AFSA18.jpg,FS,4,num_4,32,num_6,0.433486037655,,,2017_Aug_08_1616,60.008603469,MAFE4ImagesEEG,001,201090,
AFNE01.JPG,AFNE01.JPG,AFNE01.JPG,AFNE01.JPG,AFNE01.JPG,AFNE01.JPG,,,,,,,,,,,,,0,5,5,6,,,,,,,,,,,AFSA11.jpg,AFSA17.jpg,AFNE04.jpg,AFNE08.jpg,AFSA11.jpg,FS,4,num_8,16,num_8,0.966755928705,,,2017_Aug_08_1616,60.008603469,MAFE4ImagesEEG,001,201090,
AFNE01.JPG,AFNE01.JPG,AFNE01.JPG,AFNE01.JPG,AFNE01.JPG,AFNE01.JPG,,,,,,,,,,,,,0,6,6,5,,,,,,,,,,,AFNE11.jpg,AFNE06.jpg,AFSA19.jpg,AFSA01.jpg,AFNE11.jpg,FN,3,num_8,16,num_8,0.633508874336,,,2017_Aug_08_1616,60.008603469,MAFE4ImagesEEG,001,201090,
AFNE01.JPG,AFNE01.JPG,AFNE01.JPG,AFNE01.JPG,AFNE01.JPG,AFNE01.JPG,,,,,,,,,,,,,0,7,7,4,,,,,,,,,,,AFNE01.jpg,AFSA04.jpg,AFSA01.jpg,AFNE08.jpg,AFNE01.jpg,FN,3,num_8,32,num_6,0.716751197586,,,2017_Aug_08_1616,60.008603469,MAFE4ImagesEEG,001,201090,
AFNE01.JPG,AFNE01.JPG,AFNE01.JPG,AFNE01.JPG,AFNE01.JPG,AFNE01.JPG,,,,,,,,,,,,,0,8,8,2,,,,,,,,,,,AFNE03.jpg,AFSA11.jpg,AFSA02.jpg,AFNE13.jpg,AFNE13.jpg,FN,3,num_4,32,num_2,1.50006559119,,,2017_Aug_08_1616,60.008603469,MAFE4ImagesEEG,001,201090,
AFNE01.JPG,AFNE01.JPG,AFNE01.JPG,AFNE01.JPG,AFNE01.JPG,AFNE01.JPG,,,,,,,,,,,,,0,9,9,0,,,,,,,,,,,AFNE02.jpg,AFNE13.jpg,AFSA16.jpg,AFSA15.jpg,AFSA16.jpg,FS,4,num_2,32,num_4,4.93285915116,,,2017_Aug_08_1616,60.008603469,MAFE4ImagesEEG,001,201090,
AFNE01.JPG,AFNE01.JPG,AFNE01.JPG,AFNE01.JPG,AFNE01.JPG,AFNE01.JPG,,,,,,,,,,,,,1,0,10,6,,,,,,,,,,,AFNE01.jpg,AFSA03.jpg,AFNE17.jpg,AFSA12.jpg,AFNE17.jpg,FN,3,num_2,32,num_6,1.01675065258,,,2017_Aug_08_1616,60.008603469,MAFE4ImagesEEG,001,201090,
AFNE01.JPG,AFNE01.JPG,AFNE01.JPG,AFNE01.JPG,AFNE01.JPG,AFNE01.JPG,,,,,,,,,,,,,1,1,11,9,,,,,,,,,,,AFNE18.jpg,AFSA20.jpg,AFSA03.jpg,AFNE06.jpg,AFNE18.jpg,FN,3,num_8,32,num_4,1.5332621932,,,2017_Aug_08_1616,60.008603469,MAFE4ImagesEEG,001,201090,
AFNE01.JPG,AFNE01.JPG,AFNE01.JPG,AFNE01.JPG,AFNE01.JPG,AFNE01.JPG,,,,,,,,,,,,,1,2,12,1,,,,,,,,,,,AFNE18.jpg,AFSA03.jpg,AFSA20.jpg,AFNE16.jpg,AFSA20.jpg,FS,4,num_2,16,num_2,1.05006977706,,,2017_Aug_08_1616,60.008603469,MAFE4ImagesEEG,001,201090,
AFNE01.JPG,AFNE01.JPG,AFNE01.JPG,AFNE01.JPG,AFNE01.JPG,AFNE01.JPG,,,,,,,,,,,,,1,3,13,0,,,,,,,,,,,AFNE09.jpg,AFSA08.jpg,AFNE13.jpg,AFSA09.jpg,AFNE13.jpg,FN,3,num_2,32,num_6,2.84997477382,,,2017_Aug_08_1616,60.008603469,MAFE4ImagesEEG,001,201090,
AFNE01.JPG,AFNE01.JPG,AFNE01.JPG,AFNE01.JPG,AFNE01.JPG,AFNE01.JPG,,,,,,,,,,,,,1,4,14,8,,,,,,,,,,,AFNE08.jpg,AFSA01.jpg,AFSA15.jpg,AFNE05.jpg,AFNE05.jpg,FN,3,num_4,16,num_4,0.750104641309,,,2017_Aug_08_1616,60.008603469,MAFE4ImagesEEG,001,201090,
AFNE01.JPG,AFNE01.JPG,AFNE01.JPG,AFNE01.JPG,AFNE01.JPG,AFNE01.JPG,,,,,,,,,,,,,1,5,15,5,,,,,,,,,,,AFNE04.jpg,AFSA16.jpg,AFSA07.jpg,AFNE10.jpg,AFSA07.jpg,FS,4,num_2,32,num_8,0.966804681113,,,2017_Aug_08_1616,60.008603469,MAFE4ImagesEEG,001,201090,
AFNE01.JPG,AFNE01.JPG,AFNE01.JPG,AFNE01.JPG,AFNE01.JPG,AFNE01.JPG,,,,,,,,,,,,,1,6,16,7,,,,,,,,,,,AFSA13.jpg,AFNE02.jpg,AFNE17.jpg,AFSA11.jpg,AFSA11.jpg,FS,4,num_4,32,num_6,0.983422226273,,,2017_Aug_08_1616,60.008603469,MAFE4ImagesEEG,001,201090,
AFNE01.JPG,AFNE01.JPG,AFNE01.JPG,AFNE01.JPG,AFNE01.JPG,AFNE01.JPG,,,,,,,,,,,,,1,7,17,2,,,,,,,,,,,AFNE04.jpg,AFSA16.jpg,AFNE18.jpg,AFSA14.jpg,AFSA16.jpg,FS,4,num_6,32,num_4,0.750123885693,,,2017_Aug_08_1616,60.008603469,MAFE4ImagesEEG,001,201090,
AFNE01.JPG,AFNE01.JPG,AFNE01.JPG,AFNE01.JPG,AFNE01.JPG,AFNE01.JPG,,,,,,,,,,,,,1,8,18,3,,,,,,,,,,,AFSA08.jpg,AFNE12.jpg,AFSA02.jpg,AFNE09.jpg,AFSA02.jpg,FS,4,num_2,32,num_4,1.10017900518,,,2017_Aug_08_1616,60.008603469,MAFE4ImagesEEG,001,201090,
AFNE01.JPG,AFNE01.JPG,AFNE01.JPG,AFNE01.JPG,AFNE01.JPG,AFNE01.JPG,,,,,,,,,,,,,1,9,19,4,,,,,,,,,,,AFNE09.jpg,AFNE18.jpg,AFSA04.jpg,AFSA13.jpg,AFSA04.jpg,FS,4,num_2,48,None,,,,2017_Aug_08_1616,60.008603469,MAFE4ImagesEEG,001,201090,
AFNE01.JPG,AFNE01.JPG,AFNE01.JPG,AFNE01.JPG,AFNE01.JPG,AFNE01.JPG,,,,,,,,,,,,,2,0,20,7,,,,,,,,,,,AFNE09.jpg,AFSA01.jpg,AFSA11.jpg,AFNE11.jpg,AFNE09.jpg,FN,3,num_8,16,num_8,1.03346313676,,,2017_Aug_08_1616,60.008603469,MAFE4ImagesEEG,001,201090,
AFNE01.JPG,AFNE01.JPG,AFNE01.JPG,AFNE01.JPG,AFNE01.JPG,AFNE01.JPG,,,,,,,,,,,,,2,1,21,3,,,,,,,,,,,AFSA05.jpg,AFSA15.jpg,AFNE16.jpg,AFNE07.jpg,AFNE07.jpg,FN,3,num_4,32,num_2,1.10013859184,,,2017_Aug_08_1616,60.008603469,MAFE4ImagesEEG,001,201090,
AFNE01.JPG,AFNE01.JPG,AFNE01.JPG,AFNE01.JPG,AFNE01.JPG,AFNE01.JPG,,,,,,,,,,,,,2,2,22,4,,,,,,,,,,,AFSA19.jpg,AFSA17.jpg,AFNE06.jpg,AFNE03.jpg,AFSA19.jpg,FS,4,num_8,16,num_8,1.30009439378,,,2017_Aug_08_1616,60.008603469,MAFE4ImagesEEG,001,201090,
AFNE01.JPG,AFNE01.JPG,AFNE01.JPG,AFNE01.JPG,AFNE01.JPG,AFNE01.JPG,,,,,,,,,,,,,2,3,23,6,,,,,,,,,,,AFNE11.jpg,AFSA02.jpg,AFNE20.jpg,AFSA09.jpg,AFSA09.jpg,FS,4,num_4,32,num_8,1.58341504191,,,2017_Aug_08_1616,60.008603469,MAFE4ImagesEEG,001,201090,
AFNE01.JPG,AFNE01.JPG,AFNE01.JPG,AFNE01.JPG,AFNE01.JPG,AFNE01.JPG,,,,,,,,,,,,,2,4,24,9,,,,,,,,,,,AFSA01.jpg,AFSA13.jpg,AFNE06.jpg,AFNE11.jpg,AFNE11.jpg,FN,3,num_4,16,num_4,1.23345518252,,,2017_Aug_08_1616,60.008603469,MAFE4ImagesEEG,001,201090,
AFNE01.JPG,AFNE01.JPG,AFNE01.JPG,AFNE01.JPG,AFNE01.JPG,AFNE01.JPG,,,,,,,,,,,,,2,5,25,1,,,,,,,,,,,AFSA15.jpg,AFSA04.jpg,AFNE16.jpg,AFNE06.jpg,AFSA15.jpg,FS,4,num_8,16,num_8,0.966774210799,,,2017_Aug_08_1616,60.008603469,MAFE4ImagesEEG,001,201090,
AFNE01.JPG,AFNE01.JPG,AFNE01.JPG,AFNE01.JPG,AFNE01.JPG,AFNE01.JPG,,,,,,,,,,,,,2,6,26,5,,,,,,,,,,,AFSA06.jpg,AFSA19.jpg,AFNE05.jpg,AFNE09.jpg,AFNE09.jpg,FN,3,num_4,32,num_6,0.950065575307,,,2017_Aug_08_1616,60.008603469,MAFE4ImagesEEG,001,201090,
AFNE01.JPG,AFNE01.JPG,AFNE01.JPG,AFNE01.JPG,AFNE01.JPG,AFNE01.JPG,,,,,,,,,,,,,2,7,27,2,,,,,,,,,,,AFSA03.jpg,AFNE17.jpg,AFNE15.jpg,AFSA01.jpg,AFNE17.jpg,FN,3,num_6,32,num_8,0.716776536079,,,2017_Aug_08_1616,60.008603469,MAFE4ImagesEEG,001,201090,
AFNE01.JPG,AFNE01.JPG,AFNE01.JPG,AFNE01.JPG,AFNE01.JPG,AFNE01.JPG,,,,,,,,,,,,,2,8,28,0,,,,,,,,,,,AFSA08.jpg,AFNE06.jpg,AFSA03.jpg,AFNE09.jpg,AFSA08.jpg,FS,4,num_8,32,num_4,0.766817446565,,,2017_Aug_08_1616,60.008603469,MAFE4ImagesEEG,001,201090,
AFNE01.JPG,AFNE01.JPG,AFNE01.JPG,AFNE01.JPG,AFNE01.JPG,AFNE01.JPG,,,,,,,,,,,,,2,9,29,8,,,,,,,,,,,AFSA01.jpg,AFNE12.jpg,AFNE03.jpg,AFSA17.jpg,AFSA01.jpg,FS,4,num_8,16,num_8,0.63348513958,,,2017_Aug_08_1616,60.008603469,MAFE4ImagesEEG,001,201090,
AFNE01.JPG,AFNE01.JPG,AFNE01.JPG,AFNE01.JPG,AFNE01.JPG,AFNE01.JPG,,,,,,,,,,,,,3,0,30,2,,,,,,,,,,,AFSA17.jpg,AFNE02.jpg,AFNE04.jpg,AFSA13.jpg,AFSA17.jpg,FS,4,num_8,16,num_8,0.716821119189,,,2017_Aug_08_1616,60.008603469,MAFE4ImagesEEG,001,201090,
AFNE01.JPG,AFNE01.JPG,AFNE01.JPG,AFNE01.JPG,AFNE01.JPG,AFNE01.JPG,,,,,,,,,,,,,3,1,31,8,,,,,,,,,,,AFSA09.jpg,AFNE15.jpg,AFNE05.jpg,AFSA08.jpg,AFNE15.jpg,FN,3,num_6,16,num_6,0.633462046506,,,2017_Aug_08_1616,60.008603469,MAFE4ImagesEEG,001,201090,
AFNE01.JPG,AFNE01.JPG,AFNE01.JPG,AFNE01.JPG,AFNE01.JPG,AFNE01.JPG,,,,,,,,,,,,,3,2,32,0,,,,,,,,,,,AFNE13.jpg,AFNE18.jpg,AFSA20.jpg,AFSA15.jpg,AFNE13.jpg,FN,3,num_8,16,num_8,0.583498434164,,,2017_Aug_08_1616,60.008603469,MAFE4ImagesEEG,001,201090,
AFNE01.JPG,AFNE01.JPG,AFNE01.JPG,AFNE01.JPG,AFNE01.JPG,AFNE01.JPG,,,,,,,,,,,,,3,3,33,1,,,,,,,,,,,AFNE17.jpg,AFNE20.jpg,AFSA10.jpg,AFSA01.jpg,AFNE20.jpg,FN,3,num_6,16,num_6,1.33340614126,,,2017_Aug_08_1616,60.008603469,MAFE4ImagesEEG,001,201090,
AFNE01.JPG,AFNE01.JPG,AFNE01.JPG,AFNE01.JPG,AFNE01.JPG,AFNE01.JPG,,,,,,,,,,,,,3,4,34,3,,,,,,,,,,,AFSA11.jpg,AFNE15.jpg,AFSA12.jpg,AFNE13.jpg,AFNE13.jpg,FN,3,num_4,32,num_8,0.816742569907,,,2017_Aug_08_1616,60.008603469,MAFE4ImagesEEG,001,201090,
AFNE01.JPG,AFNE01.JPG,AFNE01.JPG,AFNE01.JPG,AFNE01.JPG,AFNE01.JPG,,,,,,,,,,,,,3,5,35,9,,,,,,,,,,,AFNE10.jpg,AFSA12.jpg,AFSA13.jpg,AFNE18.jpg,AFNE18.jpg,FN,3,num_4,16,num_4,0.816778492648,,,2017_Aug_08_1616,60.008603469,MAFE4ImagesEEG,001,201090,
AFNE01.JPG,AFNE01.JPG,AFNE01.JPG,AFNE01.JPG,AFNE01.JPG,AFNE01.JPG,,,,,,,,,,,,,3,6,36,6,,,,,,,,,,,AFSA04.jpg,AFNE15.jpg,AFNE11.jpg,AFSA03.jpg,AFNE11.jpg,FN,3,num_2,32,num_8,1.18347649556,,,2017_Aug_08_1616,60.008603469,MAFE4ImagesEEG,001,201090,
AFNE01.JPG,AFNE01.JPG,AFNE01.JPG,AFNE01.JPG,AFNE01.JPG,AFNE01.JPG,,,,,,,,,,,,,3,7,37,5,,,,,,,,,,,AFNE10.jpg,AFNE12.jpg,AFSA15.jpg,AFSA04.jpg,AFSA15.jpg,FS,4,num_2,16,num_2,0.816748984624,,,2017_Aug_08_1616,60.008603469,MAFE4ImagesEEG,001,201090,
AFNE01.JPG,AFNE01.JPG,AFNE01.JPG,AFNE01.JPG,AFNE01.JPG,AFNE01.JPG,,,,,,,,,,,,,3,8,38,7,,,,,,,,,,,AFNE11.jpg,AFSA12.jpg,AFSA09.jpg,AFNE10.jpg,AFSA09.jpg,FS,4,num_2,32,num_8,1.61655423115,,,2017_Aug_08_1616,60.008603469,MAFE4ImagesEEG,001,201090,
AFNE01.JPG,AFNE01.JPG,AFNE01.JPG,AFNE01.JPG,AFNE01.JPG,AFNE01.JPG,,,,,,,,,,,,,3,9,39,4,,,,,,,,,,,AFSA10.jpg,AFNE07.jpg,AFSA01.jpg,AFNE04.jpg,AFSA01.jpg,FS,4,num_2,16,num_2,3.2165704607,,,2017_Aug_08_1616,60.008603469,MAFE4ImagesEEG,001,201090,
AFNE01.JPG,AFNE01.JPG,AFNE01.JPG,AFNE01.JPG,AFNE01.JPG,AFNE01.JPG,,,,,,,,,,,,,4,0,40,2,,,,,,,,,,,AFNE20.jpg,AFSA19.jpg,AFSA11.jpg,AFNE08.jpg,AFNE20.jpg,FN,3,num_8,32,num_6,0.866792781511,,,2017_Aug_08_1616,60.008603469,MAFE4ImagesEEG,001,201090,
AFNE01.JPG,AFNE01.JPG,AFNE01.JPG,AFNE01.JPG,AFNE01.JPG,AFNE01.JPG,,,,,,,,,,,,,4,1,41,4,,,,,,,,,,,AFNE13.jpg,AFSA20.jpg,AFNE17.jpg,AFSA18.jpg,AFSA20.jpg,FS,4,num_6,32,num_8,0.850146690384,,,2017_Aug_08_1616,60.008603469,MAFE4ImagesEEG,001,201090,
AFNE01.JPG,AFNE01.JPG,AFNE01.JPG,AFNE01.JPG,AFNE01.JPG,AFNE01.JPG,,,,,,,,,,,,,4,2,42,7,,,,,,,,,,,AFNE18.jpg,AFSA10.jpg,AFNE02.jpg,AFSA19.jpg,AFNE02.jpg,FN,3,num_2,16,num_2,1.2334343344,,,2017_Aug_08_1616,60.008603469,MAFE4ImagesEEG,001,201090,
AFNE01.JPG,AFNE01.JPG,AFNE01.JPG,AFNE01.JPG,AFNE01.JPG,AFNE01.JPG,,,,,,,,,,,,,4,3,43,5,,,,,,,,,,,AFNE07.jpg,AFSA17.jpg,AFSA04.jpg,AFNE13.jpg,AFNE07.jpg,FN,3,num_8,16,num_8,0.85040264111,,,2017_Aug_08_1616,60.008603469,MAFE4ImagesEEG,001,201090,
AFNE01.JPG,AFNE01.JPG,AFNE01.JPG,AFNE01.JPG,AFNE01.JPG,AFNE01.JPG,,,,,,,,,,,,,4,4,44,3,,,,,,,,,,,AFNE14.jpg,AFNE19.jpg,AFSA14.jpg,AFSA12.jpg,AFSA14.jpg,FS,4,num_2,32,num_4,0.850136426743,,,2017_Aug_08_1616,60.008603469,MAFE4ImagesEEG,001,201090,
AFNE01.JPG,AFNE01.JPG,AFNE01.JPG,AFNE01.JPG,AFNE01.JPG,AFNE01.JPG,,,,,,,,,,,,,4,5,45,8,,,,,,,,,,,AFNE05.jpg,AFSA03.jpg,AFSA18.jpg,AFNE03.jpg,AFSA03.jpg,FS,4,num_6,16,num_6,1.61670048861,,,2017_Aug_08_1616,60.008603469,MAFE4ImagesEEG,001,201090,
AFNE01.JPG,AFNE01.JPG,AFNE01.JPG,AFNE01.JPG,AFNE01.JPG,AFNE01.JPG,,,,,,,,,,,,,4,6,46,0,,,,,,,,,,,AFNE16.jpg,AFSA13.jpg,AFNE20.jpg,AFSA11.jpg,AFNE20.jpg,FN,3,num_2,32,num_8,1.36676728283,,,2017_Aug_08_1616,60.008603469,MAFE4ImagesEEG,001,201090,
AFNE01.JPG,AFNE01.JPG,AFNE01.JPG,AFNE01.JPG,AFNE01.JPG,AFNE01.JPG,,,,,,,,,,,,,4,7,47,1,,,,,,,,,,,AFNE15.jpg,AFSA02.jpg,AFSA11.jpg,AFNE02.jpg,AFSA11.jpg,FS,4,num_2,32,num_6,1.05009479471,,,2017_Aug_08_1616,60.008603469,MAFE4ImagesEEG,001,201090,
AFNE01.JPG,AFNE01.JPG,AFNE01.JPG,AFNE01.JPG,AFNE01.JPG,AFNE01.JPG,,,,,,,,,,,,,4,8,48,9,,,,,,,,,,,AFSA06.jpg,AFNE18.jpg,AFNE17.jpg,AFSA20.jpg,AFNE18.jpg,FN,3,num_6,32,num_2,0.866617336636,,,2017_Aug_08_1616,60.008603469,MAFE4ImagesEEG,001,201090,
AFNE01.JPG,AFNE01.JPG,AFNE01.JPG,AFNE01.JPG,AFNE01.JPG,AFNE01.JPG,,,,,,,,,,,,,4,9,49,6,,,,,,,,,,,AFSA18.jpg,AFSA08.jpg,AFNE10.jpg,AFNE11.jpg,AFSA08.jpg,FS,4,num_6,16,num_6,1.28339987085,,,2017_Aug_08_1616,60.008603469,MAFE4ImagesEEG,001,201090,
AFNE01.JPG,AFNE01.JPG,AFNE01.JPG,AFNE01.JPG,AFNE01.JPG,AFNE01.JPG,,,,,,,,,,,,,5,0,50,2,,,,,,,,,,,AFNE13.jpg,AFNE07.jpg,AFSA07.jpg,AFSA15.jpg,AFNE13.jpg,FN,3,num_8,32,num_6,0.93354232749,,,2017_Aug_08_1616,60.008603469,MAFE4ImagesEEG,001,201090,
AFNE01.JPG,AFNE01.JPG,AFNE01.JPG,AFNE01.JPG,AFNE01.JPG,AFNE01.JPG,,,,,,,,,,,,,5,1,51,8,,,,,,,,,,,AFSA03.jpg,AFSA15.jpg,AFNE02.jpg,AFNE11.jpg,AFNE11.jpg,FN,3,num_4,32,num_8,0.85015438823,,,2017_Aug_08_1616,60.008603469,MAFE4ImagesEEG,001,201090,
AFNE01.JPG,AFNE01.JPG,AFNE01.JPG,AFNE01.JPG,AFNE01.JPG,AFNE01.JPG,,,,,,,,,,,,,5,2,52,5,,,,,,,,,,,AFSA08.jpg,AFSA09.jpg,AFNE01.jpg,AFNE12.jpg,AFNE12.jpg,FN,3,num_4,16,num_4,1.00012637163,,,2017_Aug_08_1616,60.008603469,MAFE4ImagesEEG,001,201090,
AFNE01.JPG,AFNE01.JPG,AFNE01.JPG,AFNE01.JPG,AFNE01.JPG,AFNE01.JPG,,,,,,,,,,,,,5,3,53,7,,,,,,,,,,,AFSA05.jpg,AFNE17.jpg,AFNE16.jpg,AFSA17.jpg,AFNE16.jpg,FN,3,num_2,32,num_8,1.03341951617,,,2017_Aug_08_1616,60.008603469,MAFE4ImagesEEG,001,201090,
AFNE01.JPG,AFNE01.JPG,AFNE01.JPG,AFNE01.JPG,AFNE01.JPG,AFNE01.JPG,,,,,,,,,,,,,5,4,54,1,,,,,,,,,,,AFSA11.jpg,AFNE15.jpg,AFNE20.jpg,AFSA03.jpg,AFNE15.jpg,FN,3,num_6,32,num_2,0.766949270852,,,2017_Aug_08_1616,60.008603469,MAFE4ImagesEEG,001,201090,
AFNE01.JPG,AFNE01.JPG,AFNE01.JPG,AFNE01.JPG,AFNE01.JPG,AFNE01.JPG,,,,,,,,,,,,,5,5,55,9,,,,,,,,,,,AFSA08.jpg,AFSA09.jpg,AFNE14.jpg,AFNE07.jpg,AFSA09.jpg,FS,4,num_6,32,num_4,1.83336203964,,,2017_Aug_08_1616,60.008603469,MAFE4ImagesEEG,001,201090,
AFNE01.JPG,AFNE01.JPG,AFNE01.JPG,AFNE01.JPG,AFNE01.JPG,AFNE01.JPG,,,,,,,,,,,,,5,6,56,3,,,,,,,,,,,AFSA01.jpg,AFNE13.jpg,AFSA07.jpg,AFNE06.jpg,AFSA07.jpg,FS,4,num_2,32,num_6,1.66676481324,,,2017_Aug_08_1616,60.008603469,MAFE4ImagesEEG,001,201090,
AFNE01.JPG,AFNE01.JPG,AFNE01.JPG,AFNE01.JPG,AFNE01.JPG,AFNE01.JPG,,,,,,,,,,,,,5,7,57,4,,,,,,,,,,,AFNE04.jpg,AFNE11.jpg,AFSA14.jpg,AFSA05.jpg,AFNE04.jpg,FN,3,num_8,32,num_4,1.51654489757,,,2017_Aug_08_1616,60.008603469,MAFE4ImagesEEG,001,201090,
AFNE01.JPG,AFNE01.JPG,AFNE01.JPG,AFNE01.JPG,AFNE01.JPG,AFNE01.JPG,,,,,,,,,,,,,5,8,58,0,,,,,,,,,,,AFNE07.jpg,AFNE04.jpg,AFSA11.jpg,AFSA05.jpg,AFSA11.jpg,FS,4,num_2,32,num_8,1.11675645784,,,2017_Aug_08_1616,60.008603469,MAFE4ImagesEEG,001,201090,
AFNE01.JPG,AFNE01.JPG,AFNE01.JPG,AFNE01.JPG,AFNE01.JPG,AFNE01.JPG,,,,,,,,,,,,,5,9,59,6,,,,,,,,,,,AFNE16.jpg,AFSA19.jpg,AFSA20.jpg,AFNE08.jpg,AFSA19.jpg,FS,4,num_6,32,num_4,1.25016349717,,,2017_Aug_08_1616,60.008603469,MAFE4ImagesEEG,001,201090,
,,,,,,,,,,,,,,,,,,,,,,,,,,,,,,,,,,,,,,,,,,,space,1.41670042463,2017_Aug_08_1616,60.008603469,MAFE4ImagesEEG,001,201090,
AFNE01.JPG,AFNE01.JPG,AFNE01.JPG,AFNE01.JPG,AFNE01.JPG,AFNE01.JPG,,,,,,,,,,,,,,,,,0,0,0,4,,,,,,,AMSA10.jpg,AMNE16.jpg,AMNE09.jpg,AMSA16.jpg,AMNE09.jpg,MN,1,num_2,32,num_6,0.583470850484,,,2017_Aug_08_1616,60.008603469,MAFE4ImagesEEG,001,201090,
AFNE01.JPG,AFNE01.JPG,AFNE01.JPG,AFNE01.JPG,AFNE01.JPG,AFNE01.JPG,,,,,,,,,,,,,,,,,0,1,1,0,,,,,,,AMNE11.jpg,AMNE18.jpg,AMSA17.jpg,AMSA12.jpg,AMSA12.jpg,MS,2,num_4,32,num_2,0.316677940777,,,2017_Aug_08_1616,60.008603469,MAFE4ImagesEEG,001,201090,
AFNE01.JPG,AFNE01.JPG,AFNE01.JPG,AFNE01.JPG,AFNE01.JPG,AFNE01.JPG,,,,,,,,,,,,,,,,,0,2,2,7,,,,,,,AMSA09.jpg,AMSA19.jpg,AMNE15.jpg,AMNE20.jpg,AMNE20.jpg,MN,1,num_4,32,num_8,1.25008331239,,,2017_Aug_08_1616,60.008603469,MAFE4ImagesEEG,001,201090,
AFNE01.JPG,AFNE01.JPG,AFNE01.JPG,AFNE01.JPG,AFNE01.JPG,AFNE01.JPG,,,,,,,,,,,,,,,,,0,3,3,6,,,,,,,AMNE16.jpg,AMNE02.jpg,AMSA11.jpg,AMSA09.jpg,AMSA11.jpg,MS,2,num_2,32,num_8,2.33339812281,,,2017_Aug_08_1616,60.008603469,MAFE4ImagesEEG,001,201090,
AFNE01.JPG,AFNE01.JPG,AFNE01.JPG,AFNE01.JPG,AFNE01.JPG,AFNE01.JPG,,,,,,,,,,,,,,,,,0,4,4,2,,,,,,,AMSA10.jpg,AMNE15.jpg,AMNE18.jpg,AMSA11.jpg,AMSA10.jpg,MS,2,num_8,16,num_8,0.817069724668,,,2017_Aug_08_1616,60.008603469,MAFE4ImagesEEG,001,201090,
AFNE01.JPG,AFNE01.JPG,AFNE01.JPG,AFNE01.JPG,AFNE01.JPG,AFNE01.JPG,,,,,,,,,,,,,,,,,0,5,5,3,,,,,,,AMNE05.jpg,AMNE12.jpg,AMSA10.jpg,AMSA19.jpg,AMNE05.jpg,MN,1,num_8,32,num_6,1.4833883883,,,2017_Aug_08_1616,60.008603469,MAFE4ImagesEEG,001,201090,
AFNE01.JPG,AFNE01.JPG,AFNE01.JPG,AFNE01.JPG,AFNE01.JPG,AFNE01.JPG,,,,,,,,,,,,,,,,,0,6,6,5,,,,,,,AMSA15.jpg,AMNE07.jpg,AMSA03.jpg,AMNE17.jpg,AMNE07.jpg,MN,1,num_6,32,num_4,1.56668074708,,,2017_Aug_08_1616,60.008603469,MAFE4ImagesEEG,001,201090,
AFNE01.JPG,AFNE01.JPG,AFNE01.JPG,AFNE01.JPG,AFNE01.JPG,AFNE01.JPG,,,,,,,,,,,,,,,,,0,7,7,9,,,,,,,AMSA16.jpg,AMSA10.jpg,AMNE04.jpg,AMNE12.jpg,AMNE04.jpg,MN,1,num_2,32,num_6,0.766752657015,,,2017_Aug_08_1616,60.008603469,MAFE4ImagesEEG,001,201090,
AFNE01.JPG,AFNE01.JPG,AFNE01.JPG,AFNE01.JPG,AFNE01.JPG,AFNE01.JPG,,,,,,,,,,,,,,,,,0,8,8,8,,,,,,,AMNE19.jpg,AMSA12.jpg,AMSA02.jpg,AMNE09.jpg,AMSA12.jpg,MS,2,num_6,32,num_8,1.78336924012,,,2017_Aug_08_1616,60.008603469,MAFE4ImagesEEG,001,201090,
AFNE01.JPG,AFNE01.JPG,AFNE01.JPG,AFNE01.JPG,AFNE01.JPG,AFNE01.JPG,,,,,,,,,,,,,,,,,0,9,9,1,,,,,,,AMSA12.jpg,AMNE04.jpg,AMNE16.jpg,AMSA04.jpg,AMNE04.jpg,MN,1,num_6,16,num_6,0.599969722098,,,2017_Aug_08_1616,60.008603469,MAFE4ImagesEEG,001,201090,
AFNE01.JPG,AFNE01.JPG,AFNE01.JPG,AFNE01.JPG,AFNE01.JPG,AFNE01.JPG,,,,,,,,,,,,,,,,,1,0,10,3,,,,,,,AMSA16.jpg,AMNE18.jpg,AMSA17.jpg,AMNE12.jpg,AMSA17.jpg,MS,2,num_2,32,num_6,1.08342771116,,,2017_Aug_08_1616,60.008603469,MAFE4ImagesEEG,001,201090,
AFNE01.JPG,AFNE01.JPG,AFNE01.JPG,AFNE01.JPG,AFNE01.JPG,AFNE01.JPG,,,,,,,,,,,,,,,,,1,1,11,1,,,,,,,AMSA05.jpg,AMSA04.jpg,AMNE19.jpg,AMNE09.jpg,AMNE19.jpg,MN,1,num_2,32,num_4,1.06660104333,,,2017_Aug_08_1616,60.008603469,MAFE4ImagesEEG,001,201090,
AFNE01.JPG,AFNE01.JPG,AFNE01.JPG,AFNE01.JPG,AFNE01.JPG,AFNE01.JPG,,,,,,,,,,,,,,,,,1,2,12,8,,,,,,,AMNE15.jpg,AMSA17.jpg,AMSA20.jpg,AMNE01.jpg,AMNE01.jpg,MN,1,num_4,32,num_2,0.800123741617,,,2017_Aug_08_1616,60.008603469,MAFE4ImagesEEG,001,201090,
AFNE01.JPG,AFNE01.JPG,AFNE01.JPG,AFNE01.JPG,AFNE01.JPG,AFNE01.JPG,,,,,,,,,,,,,,,,,1,3,13,5,,,,,,,AMNE13.jpg,AMSA10.jpg,AMNE20.jpg,AMSA19.jpg,AMSA19.jpg,MS,2,num_4,16,num_4,1.41665487946,,,2017_Aug_08_1616,60.008603469,MAFE4ImagesEEG,001,201090,
AFNE01.JPG,AFNE01.JPG,AFNE01.JPG,AFNE01.JPG,AFNE01.JPG,AFNE01.JPG,,,,,,,,,,,,,,,,,1,4,14,6,,,,,,,AMNE11.jpg,AMSA19.jpg,AMNE12.jpg,AMSA08.jpg,AMSA08.jpg,MS,2,num_4,32,num_2,0.683450676035,,,2017_Aug_08_1616,60.008603469,MAFE4ImagesEEG,001,201090,
AFNE01.JPG,AFNE01.JPG,AFNE01.JPG,AFNE01.JPG,AFNE01.JPG,AFNE01.JPG,,,,,,,,,,,,,,,,,1,5,15,0,,,,,,,AMNE02.jpg,AMSA19.jpg,AMSA12.jpg,AMNE15.jpg,AMSA19.jpg,MS,2,num_6,32,num_8,0.350161283975,,,2017_Aug_08_1616,60.008603469,MAFE4ImagesEEG,001,201090,
AFNE01.JPG,AFNE01.JPG,AFNE01.JPG,AFNE01.JPG,AFNE01.JPG,AFNE01.JPG,,,,,,,,,,,,,,,,,1,6,16,4,,,,,,,AMNE02.jpg,AMSA03.jpg,AMSA11.jpg,AMNE05.jpg,AMNE02.jpg,MN,1,num_8,32,num_2,1.08346748282,,,2017_Aug_08_1616,60.008603469,MAFE4ImagesEEG,001,201090,
AFNE01.JPG,AFNE01.JPG,AFNE01.JPG,AFNE01.JPG,AFNE01.JPG,AFNE01.JPG,,,,,,,,,,,,,,,,,1,7,17,9,,,,,,,AMSA06.jpg,AMSA14.jpg,AMNE06.jpg,AMNE14.jpg,AMSA06.jpg,MS,2,num_8,32,num_6,1.10010876297,,,2017_Aug_08_1616,60.008603469,MAFE4ImagesEEG,001,201090,
AFNE01.JPG,AFNE01.JPG,AFNE01.JPG,AFNE01.JPG,AFNE01.JPG,AFNE01.JPG,,,,,,,,,,,,,,,,,1,8,18,2,,,,,,,AMNE09.jpg,AMNE10.jpg,AMSA02.jpg,AMSA07.jpg,AMSA02.jpg,MS,2,num_2,16,num_2,0.73347715335,,,2017_Aug_08_1616,60.008603469,MAFE4ImagesEEG,001,201090,
AFNE01.JPG,AFNE01.JPG,AFNE01.JPG,AFNE01.JPG,AFNE01.JPG,AFNE01.JPG,,,,,,,,,,,,,,,,,1,9,19,7,,,,,,,AMSA07.jpg,AMNE11.jpg,AMSA19.jpg,AMNE14.jpg,AMNE14.jpg,MN,1,num_4,16,num_4,0.550184762338,,,2017_Aug_08_1616,60.008603469,MAFE4ImagesEEG,001,201090,
AFNE01.JPG,AFNE01.JPG,AFNE01.JPG,AFNE01.JPG,AFNE01.JPG,AFNE01.JPG,,,,,,,,,,,,,,,,,2,0,20,9,,,,,,,AMNE17.jpg,AMNE03.jpg,AMSA17.jpg,AMSA05.jpg,AMNE17.jpg,MN,1,num_8,32,num_6,1.03339963034,,,2017_Aug_08_1616,60.008603469,MAFE4ImagesEEG,001,201090,
AFNE01.JPG,AFNE01.JPG,AFNE01.JPG,AFNE01.JPG,AFNE01.JPG,AFNE01.JPG,,,,,,,,,,,,,,,,,2,1,21,3,,,,,,,AMNE04.jpg,AMSA18.jpg,AMSA17.jpg,AMNE07.jpg,AMNE04.jpg,MN,1,num_8,16,num_8,0.550167121692,,,2017_Aug_08_1616,60.008603469,MAFE4ImagesEEG,001,201090,
AFNE01.JPG,AFNE01.JPG,AFNE01.JPG,AFNE01.JPG,AFNE01.JPG,AFNE01.JPG,,,,,,,,,,,,,,,,,2,2,22,0,,,,,,,AMNE20.jpg,AMSA12.jpg,AMNE06.jpg,AMSA06.jpg,AMSA06.jpg,MS,2,num_4,32,num_6,0.850118786097,,,2017_Aug_08_1616,60.008603469,MAFE4ImagesEEG,001,201090,
AFNE01.JPG,AFNE01.JPG,AFNE01.JPG,AFNE01.JPG,AFNE01.JPG,AFNE01.JPG,,,,,,,,,,,,,,,,,2,3,23,8,,,,,,,AMSA17.jpg,AMNE02.jpg,AMNE10.jpg,AMSA04.jpg,AMSA04.jpg,MS,2,num_4,16,num_4,1.76635750523,,,2017_Aug_08_1616,60.008603469,MAFE4ImagesEEG,001,201090,
AFNE01.JPG,AFNE01.JPG,AFNE01.JPG,AFNE01.JPG,AFNE01.JPG,AFNE01.JPG,,,,,,,,,,,,,,,,,2,4,24,4,,,,,,,AMSA16.jpg,AMNE09.jpg,AMSA02.jpg,AMNE13.jpg,AMNE13.jpg,MN,1,num_4,32,num_6,0.833431640174,,,2017_Aug_08_1616,60.008603469,MAFE4ImagesEEG,001,201090,
AFNE01.JPG,AFNE01.JPG,AFNE01.JPG,AFNE01.JPG,AFNE01.JPG,AFNE01.JPG,,,,,,,,,,,,,,,,,2,5,25,2,,,,,,,AMSA17.jpg,AMNE05.jpg,AMNE06.jpg,AMSA13.jpg,AMSA13.jpg,MS,2,num_4,32,num_2,0.716731632361,,,2017_Aug_08_1616,60.008603469,MAFE4ImagesEEG,001,201090,
AFNE01.JPG,AFNE01.JPG,AFNE01.JPG,AFNE01.JPG,AFNE01.JPG,AFNE01.JPG,,,,,,,,,,,,,,,,,2,6,26,5,,,,,,,AMSA04.jpg,AMSA03.jpg,AMNE11.jpg,AMNE12.jpg,AMNE12.jpg,MN,1,num_4,32,num_6,0.783438840648,,,2017_Aug_08_1616,60.008603469,MAFE4ImagesEEG,001,201090,
AFNE01.JPG,AFNE01.JPG,AFNE01.JPG,AFNE01.JPG,AFNE01.JPG,AFNE01.JPG,,,,,,,,,,,,,,,,,2,7,27,7,,,,,,,AMSA13.jpg,AMNE11.jpg,AMNE12.jpg,AMSA12.jpg,AMNE11.jpg,MN,1,num_6,32,num_8,0.933462463319,,,2017_Aug_08_1616,60.008603469,MAFE4ImagesEEG,001,201090,
AFNE01.JPG,AFNE01.JPG,AFNE01.JPG,AFNE01.JPG,AFNE01.JPG,AFNE01.JPG,,,,,,,,,,,,,,,,,2,8,28,6,,,,,,,AMNE15.jpg,AMSA11.jpg,AMNE08.jpg,AMSA20.jpg,AMSA11.jpg,MS,2,num_6,32,num_4,0.916804825421,,,2017_Aug_08_1616,60.008603469,MAFE4ImagesEEG,001,201090,
AFNE01.JPG,AFNE01.JPG,AFNE01.JPG,AFNE01.JPG,AFNE01.JPG,AFNE01.JPG,,,,,,,,,,,,,,,,,2,9,29,1,,,,,,,AMSA05.jpg,AMNE10.jpg,AMSA07.jpg,AMNE11.jpg,AMNE10.jpg,MN,1,num_6,32,num_8,0.716866664123,,,2017_Aug_08_1616,60.008603469,MAFE4ImagesEEG,001,201090,
AFNE01.JPG,AFNE01.JPG,AFNE01.JPG,AFNE01.JPG,AFNE01.JPG,AFNE01.JPG,,,,,,,,,,,,,,,,,3,0,30,0,,,,,,,AMNE08.jpg,AMSA19.jpg,AMSA17.jpg,AMNE11.jpg,AMNE08.jpg,MN,1,num_8,16,num_8,1.20013605803,,,2017_Aug_08_1616,60.008603469,MAFE4ImagesEEG,001,201090,
AFNE01.JPG,AFNE01.JPG,AFNE01.JPG,AFNE01.JPG,AFNE01.JPG,AFNE01.JPG,,,,,,,,,,,,,,,,,3,1,31,9,,,,,,,AMSA01.jpg,AMNE17.jpg,AMNE18.jpg,AMSA07.jpg,AMSA01.jpg,MS,2,num_8,16,num_8,0.950967817334,,,2017_Aug_08_1616,60.008603469,MAFE4ImagesEEG,001,201090,
AFNE01.JPG,AFNE01.JPG,AFNE01.JPG,AFNE01.JPG,AFNE01.JPG,AFNE01.JPG,,,,,,,,,,,,,,,,,3,2,32,3,,,,,,,AMSA05.jpg,AMSA07.jpg,AMNE17.jpg,AMNE09.jpg,AMSA05.jpg,MS,2,num_8,32,num_4,1.31670584506,,,2017_Aug_08_1616,60.008603469,MAFE4ImagesEEG,001,201090,
AFNE01.JPG,AFNE01.JPG,AFNE01.JPG,AFNE01.JPG,AFNE01.JPG,AFNE01.JPG,,,,,,,,,,,,,,,,,3,3,33,6,,,,,,,AMNE19.jpg,AMNE05.jpg,AMSA08.jpg,AMSA17.jpg,AMNE19.jpg,MN,1,num_8,16,num_8,1.1834101025,,,2017_Aug_08_1616,60.008603469,MAFE4ImagesEEG,001,201090,
AFNE01.JPG,AFNE01.JPG,AFNE01.JPG,AFNE01.JPG,AFNE01.JPG,AFNE01.JPG,,,,,,,,,,,,,,,,,3,4,34,5,,,,,,,AMNE07.jpg,AMNE02.jpg,AMSA16.jpg,AMSA20.jpg,AMNE07.jpg,MN,1,num_8,16,num_8,0.916430521756,,,2017_Aug_08_1616,60.008603469,MAFE4ImagesEEG,001,201090,
AFNE01.JPG,AFNE01.JPG,AFNE01.JPG,AFNE01.JPG,AFNE01.JPG,AFNE01.JPG,,,,,,,,,,,,,,,,,3,5,35,8,,,,,,,AMNE18.jpg,AMSA05.jpg,AMNE04.jpg,AMSA10.jpg,AMNE04.jpg,MN,1,num_2,32,num_6,0.816770153353,,,2017_Aug_08_1616,60.008603469,MAFE4ImagesEEG,001,201090,
AFNE01.JPG,AFNE01.JPG,AFNE01.JPG,AFNE01.JPG,AFNE01.JPG,AFNE01.JPG,,,,,,,,,,,,,,,,,3,6,36,1,,,,,,,AMNE09.jpg,AMSA03.jpg,AMNE13.jpg,AMSA19.jpg,AMSA03.jpg,MS,2,num_6,32,num_4,1.01675963332,,,2017_Aug_08_1616,60.008603469,MAFE4ImagesEEG,001,201090,
AFNE01.JPG,AFNE01.JPG,AFNE01.JPG,AFNE01.JPG,AFNE01.JPG,AFNE01.JPG,,,,,,,,,,,,,,,,,3,7,37,2,,,,,,,AMNE14.jpg,AMSA16.jpg,AMNE11.jpg,AMSA08.jpg,AMSA08.jpg,MS,2,num_4,32,num_2,0.416803382104,,,2017_Aug_08_1616,60.008603469,MAFE4ImagesEEG,001,201090,
AFNE01.JPG,AFNE01.JPG,AFNE01.JPG,AFNE01.JPG,AFNE01.JPG,AFNE01.JPG,,,,,,,,,,,,,,,,,3,8,38,4,,,,,,,AMNE12.jpg,AMSA01.jpg,AMNE10.jpg,AMSA19.jpg,AMNE10.jpg,MN,1,num_2,32,num_8,1.01676059538,,,2017_Aug_08_1616,60.008603469,MAFE4ImagesEEG,001,201090,
AFNE01.JPG,AFNE01.JPG,AFNE01.JPG,AFNE01.JPG,AFNE01.JPG,AFNE01.JPG,,,,,,,,,,,,,,,,,3,9,39,7,,,,,,,AMNE12.jpg,AMNE04.jpg,AMSA15.jpg,AMSA18.jpg,AMSA18.jpg,MS,2,num_4,32,num_6,0.400126499822,,,2017_Aug_08_1616,60.008603469,MAFE4ImagesEEG,001,201090,
AFNE01.JPG,AFNE01.JPG,AFNE01.JPG,AFNE01.JPG,AFNE01.JPG,AFNE01.JPG,,,,,,,,,,,,,,,,,4,0,40,1,,,,,,,AMNE10.jpg,AMNE09.jpg,AMSA05.jpg,AMSA06.jpg,AMNE10.jpg,MN,1,num_8,16,num_8,0.716797384433,,,2017_Aug_08_1616,60.008603469,MAFE4ImagesEEG,001,201090,
AFNE01.JPG,AFNE01.JPG,AFNE01.JPG,AFNE01.JPG,AFNE01.JPG,AFNE01.JPG,,,,,,,,,,,,,,,,,4,1,41,2,,,,,,,AMSA12.jpg,AMNE20.jpg,AMNE09.jpg,AMSA15.jpg,AMNE20.jpg,MN,1,num_6,32,num_8,0.783426973503,,,2017_Aug_08_1616,60.008603469,MAFE4ImagesEEG,001,201090,
AFNE01.JPG,AFNE01.JPG,AFNE01.JPG,AFNE01.JPG,AFNE01.JPG,AFNE01.JPG,,,,,,,,,,,,,,,,,4,2,42,3,,,,,,,AMNE15.jpg,AMSA04.jpg,AMSA11.jpg,AMNE13.jpg,AMSA11.jpg,MS,2,num_2,32,num_6,0.616808257531,,,2017_Aug_08_1616,60.008603469,MAFE4ImagesEEG,001,201090,
AFNE01.JPG,AFNE01.JPG,AFNE01.JPG,AFNE01.JPG,AFNE01.JPG,AFNE01.JPG,,,,,,,,,,,,,,,,,4,3,43,7,,,,,,,AMNE12.jpg,AMSA01.jpg,AMNE20.jpg,AMSA10.jpg,AMSA10.jpg,MS,2,num_4,32,num_8,0.833349209977,,,2017_Aug_08_1616,60.008603469,MAFE4ImagesEEG,001,201090,
AFNE01.JPG,AFNE01.JPG,AFNE01.JPG,AFNE01.JPG,AFNE01.JPG,AFNE01.JPG,,,,,,,,,,,,,,,,,4,4,44,0,,,,,,,AMNE15.jpg,AMSA10.jpg,AMSA18.jpg,AMNE10.jpg,AMSA10.jpg,MS,2,num_6,16,num_6,0.483473063679,,,2017_Aug_08_1616,60.008603469,MAFE4ImagesEEG,001,201090,
AFNE01.JPG,AFNE01.JPG,AFNE01.JPG,AFNE01.JPG,AFNE01.JPG,AFNE01.JPG,,,,,,,,,,,,,,,,,4,5,45,8,,,,,,,AMNE05.jpg,AMSA02.jpg,AMNE01.jpg,AMSA10.jpg,AMSA10.jpg,MS,2,num_4,16,num_4,1.00013406924,,,2017_Aug_08_1616,60.008603469,MAFE4ImagesEEG,001,201090,
AFNE01.JPG,AFNE01.JPG,AFNE01.JPG,AFNE01.JPG,AFNE01.JPG,AFNE01.JPG,,,,,,,,,,,,,,,,,4,6,46,6,,,,,,,AMSA12.jpg,AMNE05.jpg,AMNE20.jpg,AMSA01.jpg,AMNE05.jpg,MN,1,num_6,32,num_8,0.766780240694,,,2017_Aug_08_1616,60.008603469,MAFE4ImagesEEG,001,201090,
AFNE01.JPG,AFNE01.JPG,AFNE01.JPG,AFNE01.JPG,AFNE01.JPG,AFNE01.JPG,,,,,,,,,,,,,,,,,4,7,47,4,,,,,,,AMSA17.jpg,AMNE13.jpg,AMSA13.jpg,AMNE03.jpg,AMNE03.jpg,MN,1,num_4,32,num_2,0.800169928232,,,2017_Aug_08_1616,60.008603469,MAFE4ImagesEEG,001,201090,
AFNE01.JPG,AFNE01.JPG,AFNE01.JPG,AFNE01.JPG,AFNE01.JPG,AFNE01.JPG,,,,,,,,,,,,,,,,,4,8,48,5,,,,,,,AMNE03.jpg,AMNE05.jpg,AMSA12.jpg,AMSA19.jpg,AMSA19.jpg,MS,2,num_4,32,num_8,0.800351146143,,,2017_Aug_08_1616,60.008603469,MAFE4ImagesEEG,001,201090,
AFNE01.JPG,AFNE01.JPG,AFNE01.JPG,AFNE01.JPG,AFNE01.JPG,AFNE01.JPG,,,,,,,,,,,,,,,,,4,9,49,9,,,,,,,AMSA05.jpg,AMSA17.jpg,AMNE08.jpg,AMNE04.jpg,AMNE04.jpg,MN,1,num_4,32,num_6,0.833711967105,,,2017_Aug_08_1616,60.008603469,MAFE4ImagesEEG,001,201090,
AFNE01.JPG,AFNE01.JPG,AFNE01.JPG,AFNE01.JPG,AFNE01.JPG,AFNE01.JPG,,,,,,,,,,,,,,,,,5,0,50,8,,,,,,,AMSA11.jpg,AMNE05.jpg,AMNE15.jpg,AMSA05.jpg,AMSA05.jpg,MS,2,num_4,32,num_6,0.716791610932,,,2017_Aug_08_1616,60.008603469,MAFE4ImagesEEG,001,201090,
AFNE01.JPG,AFNE01.JPG,AFNE01.JPG,AFNE01.JPG,AFNE01.JPG,AFNE01.JPG,,,,,,,,,,,,,,,,,5,1,51,3,,,,,,,AMSA10.jpg,AMSA02.jpg,AMNE07.jpg,AMNE20.jpg,AMNE07.jpg,MN,1,num_2,32,num_4,1.53340812982,,,2017_Aug_08_1616,60.008603469,MAFE4ImagesEEG,001,201090,
AFNE01.JPG,AFNE01.JPG,AFNE01.JPG,AFNE01.JPG,AFNE01.JPG,AFNE01.JPG,,,,,,,,,,,,,,,,,5,2,52,7,,,,,,,AMNE20.jpg,AMSA03.jpg,AMNE13.jpg,AMSA15.jpg,AMSA03.jpg,MS,2,num_6,32,num_2,0.766785051674,,,2017_Aug_08_1616,60.008603469,MAFE4ImagesEEG,001,201090,
AFNE01.JPG,AFNE01.JPG,AFNE01.JPG,AFNE01.JPG,AFNE01.JPG,AFNE01.JPG,,,,,,,,,,,,,,,,,5,3,53,9,,,,,,,AMNE01.jpg,AMSA15.jpg,AMNE11.jpg,AMSA06.jpg,AMSA15.jpg,MS,2,num_6,16,num_6,0.933540403144,,,2017_Aug_08_1616,60.008603469,MAFE4ImagesEEG,001,201090,
AFNE01.JPG,AFNE01.JPG,AFNE01.JPG,AFNE01.JPG,AFNE01.JPG,AFNE01.JPG,,,,,,,,,,,,,,,,,5,4,54,2,,,,,,,AMSA06.jpg,AMNE09.jpg,AMSA03.jpg,AMNE03.jpg,AMNE03.jpg,MN,1,num_4,32,num_8,1.0166820141,,,2017_Aug_08_1616,60.008603469,MAFE4ImagesEEG,001,201090,
AFNE01.JPG,AFNE01.JPG,AFNE01.JPG,AFNE01.JPG,AFNE01.JPG,AFNE01.JPG,,,,,,,,,,,,,,,,,5,5,55,4,,,,,,,AMSA16.jpg,AMSA06.jpg,AMNE10.jpg,AMNE03.jpg,AMNE03.jpg,MN,1,num_4,16,num_4,1.50001812167,,,2017_Aug_08_1616,60.008603469,MAFE4ImagesEEG,001,201090,
AFNE01.JPG,AFNE01.JPG,AFNE01.JPG,AFNE01.JPG,AFNE01.JPG,AFNE01.JPG,,,,,,,,,,,,,,,,,5,6,56,5,,,,,,,AMNE04.jpg,AMSA03.jpg,AMNE09.jpg,AMSA11.jpg,AMNE09.jpg,MN,1,num_2,32,num_8,0.65015881462,,,2017_Aug_08_1616,60.008603469,MAFE4ImagesEEG,001,201090,
AFNE01.JPG,AFNE01.JPG,AFNE01.JPG,AFNE01.JPG,AFNE01.JPG,AFNE01.JPG,,,,,,,,,,,,,,,,,5,7,57,6,,,,,,,AMSA04.jpg,AMNE14.jpg,AMNE09.jpg,AMSA17.jpg,AMNE09.jpg,MN,1,num_2,16,num_2,0.64967834577,,,2017_Aug_08_1616,60.008603469,MAFE4ImagesEEG,001,201090,
AFNE01.JPG,AFNE01.JPG,AFNE01.JPG,AFNE01.JPG,AFNE01.JPG,AFNE01.JPG,,,,,,,,,,,,,,,,,5,8,58,0,,,,,,,AMSA19.jpg,AMSA02.jpg,AMNE07.jpg,AMNE10.jpg,AMNE10.jpg,MN,1,num_4,32,num_8,0.98345173453,,,2017_Aug_08_1616,60.008603469,MAFE4ImagesEEG,001,201090,
AFNE01.JPG,AFNE01.JPG,AFNE01.JPG,AFNE01.JPG,AFNE01.JPG,AFNE01.JPG,,,,,,,,,,,,,,,,,5,9,59,1,,,,,,,AMNE19.jpg,AMSA09.jpg,AMSA15.jpg,AMNE17.jpg,AMNE17.jpg,MN,1,num_4,32,num_8,0.933424936607,,,2017_Aug_08_1616,60.008603469,MAFE4ImagesEEG,001,201090,
,,,,,,,,,,,,,,,,,,,,,,,,,,,,,,,,,,,,,,,,,,,space,1.08345048386,2017_Aug_08_1616,60.008603469,MAFE4ImagesEEG,001,201090,
AFNE01.JPG,AFNE01.JPG,AFNE01.JPG,AFNE01.JPG,AFNE01.JPG,AFNE01.JPG,,,,,,,,,,,,,,,,,,,,,0,0,0,2,,,AFNE12.jpg,AFSA03.jpg,AFNE08.jpg,AFSA18.jpg,AFNE12.jpg,FN,3,num_8,32,num_2,0.866756217321,,,2017_Aug_08_1616,60.008603469,MAFE4ImagesEEG,001,201090,
AFNE01.JPG,AFNE01.JPG,AFNE01.JPG,AFNE01.JPG,AFNE01.JPG,AFNE01.JPG,,,,,,,,,,,,,,,,,,,,,0,1,1,3,,,AFNE17.jpg,AFSA08.jpg,AFNE20.jpg,AFSA02.jpg,AFSA08.jpg,FS,4,num_6,16,num_6,0.683436242631,,,2017_Aug_08_1616,60.008603469,MAFE4ImagesEEG,001,201090,
AFNE01.JPG,AFNE01.JPG,AFNE01.JPG,AFNE01.JPG,AFNE01.JPG,AFNE01.JPG,,,,,,,,,,,,,,,,,,,,,0,2,2,9,,,AFNE13.jpg,AFSA05.jpg,AFSA01.jpg,AFNE08.jpg,AFSA05.jpg,FS,4,num_6,32,num_4,1.1999481041,,,2017_Aug_08_1616,60.008603469,MAFE4ImagesEEG,001,201090,
AFNE01.JPG,AFNE01.JPG,AFNE01.JPG,AFNE01.JPG,AFNE01.JPG,AFNE01.JPG,,,,,,,,,,,,,,,,,,,,,0,3,3,4,,,AFNE07.jpg,AFSA17.jpg,AFNE05.jpg,AFSA10.jpg,AFNE05.jpg,FN,3,num_2,32,num_8,0.933452841127,,,2017_Aug_08_1616,60.008603469,MAFE4ImagesEEG,001,201090,
AFNE01.JPG,AFNE01.JPG,AFNE01.JPG,AFNE01.JPG,AFNE01.JPG,AFNE01.JPG,,,,,,,,,,,,,,,,,,,,,0,4,4,7,,,AFSA07.jpg,AFNE20.jpg,AFSA09.jpg,AFNE13.jpg,AFNE20.jpg,FN,3,num_6,32,num_2,0.866800479358,,,2017_Aug_08_1616,60.008603469,MAFE4ImagesEEG,001,201090,
AFNE01.JPG,AFNE01.JPG,AFNE01.JPG,AFNE01.JPG,AFNE01.JPG,AFNE01.JPG,,,,,,,,,,,,,,,,,,,,,0,5,5,1,,,AFNE08.jpg,AFNE02.jpg,AFSA11.jpg,AFSA15.jpg,AFNE02.jpg,FN,3,num_6,32,num_4,0.433460699162,,,2017_Aug_08_1616,60.008603469,MAFE4ImagesEEG,001,201090,
AFNE01.JPG,AFNE01.JPG,AFNE01.JPG,AFNE01.JPG,AFNE01.JPG,AFNE01.JPG,,,,,,,,,,,,,,,,,,,,,0,6,6,6,,,AFSA17.jpg,AFNE20.jpg,AFSA03.jpg,AFNE19.jpg,AFNE19.jpg,FN,3,num_4,32,num_6,0.633507270599,,,2017_Aug_08_1616,60.008603469,MAFE4ImagesEEG,001,201090,
AFNE01.JPG,AFNE01.JPG,AFNE01.JPG,AFNE01.JPG,AFNE01.JPG,AFNE01.JPG,,,,,,,,,,,,,,,,,,,,,0,7,7,0,,,AFNE06.jpg,AFNE08.jpg,AFSA20.jpg,AFSA03.jpg,AFSA20.jpg,FS,4,num_2,32,num_6,1.18351113563,,,2017_Aug_08_1616,60.008603469,MAFE4ImagesEEG,001,201090,
AFNE01.JPG,AFNE01.JPG,AFNE01.JPG,AFNE01.JPG,AFNE01.JPG,AFNE01.JPG,,,,,,,,,,,,,,,,,,,,,0,8,8,5,,,AFNE11.jpg,AFSA19.jpg,AFNE08.jpg,AFSA11.jpg,AFNE11.jpg,FN,3,num_8,16,num_8,1.18310668226,,,2017_Aug_08_1616,60.008603469,MAFE4ImagesEEG,001,201090,
AFNE01.JPG,AFNE01.JPG,AFNE01.JPG,AFNE01.JPG,AFNE01.JPG,AFNE01.JPG,,,,,,,,,,,,,,,,,,,,,0,9,9,8,,,AFNE08.jpg,AFSA17.jpg,AFSA01.jpg,AFNE01.jpg,AFSA01.jpg,FS,4,num_2,32,num_6,0.616736090742,,,2017_Aug_08_1616,60.008603469,MAFE4ImagesEEG,001,201090,
AFNE01.JPG,AFNE01.JPG,AFNE01.JPG,AFNE01.JPG,AFNE01.JPG,AFNE01.JPG,,,,,,,,,,,,,,,,,,,,,1,0,10,0,,,AFSA13.jpg,AFSA02.jpg,AFNE18.jpg,AFNE14.jpg,AFSA02.jpg,FS,4,num_6,32,num_8,0.516828431981,,,2017_Aug_08_1616,60.008603469,MAFE4ImagesEEG,001,201090,
AFNE01.JPG,AFNE01.JPG,AFNE01.JPG,AFNE01.JPG,AFNE01.JPG,AFNE01.JPG,,,,,,,,,,,,,,,,,,,,,1,1,11,5,,,AFSA05.jpg,AFNE04.jpg,AFSA02.jpg,AFNE15.jpg,AFNE04.jpg,FN,3,num_6,32,num_4,0.70015770779,,,2017_Aug_08_1616,60.008603469,MAFE4ImagesEEG,001,201090,
AFNE01.JPG,AFNE01.JPG,AFNE01.JPG,AFNE01.JPG,AFNE01.JPG,AFNE01.JPG,,,,,,,,,,,,,,,,,,,,,1,2,12,4,,,AFNE17.jpg,AFSA15.jpg,AFSA17.jpg,AFNE10.jpg,AFSA15.jpg,FS,4,num_6,16,num_6,0.516797961667,,,2017_Aug_08_1616,60.008603469,MAFE4ImagesEEG,001,201090,
AFNE01.JPG,AFNE01.JPG,AFNE01.JPG,AFNE01.JPG,AFNE01.JPG,AFNE01.JPG,,,,,,,,,,,,,,,,,,,,,1,3,13,6,,,AFSA08.jpg,AFNE06.jpg,AFNE03.jpg,AFSA07.jpg,AFSA07.jpg,FS,4,num_4,32,num_6,0.883462286787,,,2017_Aug_08_1616,60.008603469,MAFE4ImagesEEG,001,201090,
AFNE01.JPG,AFNE01.JPG,AFNE01.JPG,AFNE01.JPG,AFNE01.JPG,AFNE01.JPG,,,,,,,,,,,,,,,,,,,,,1,4,14,8,,,AFNE19.jpg,AFSA05.jpg,AFNE11.jpg,AFSA19.jpg,AFNE19.jpg,FN,3,num_8,32,num_4,2.10012961109,,,2017_Aug_08_1616,60.008603469,MAFE4ImagesEEG,001,201090,
AFNE01.JPG,AFNE01.JPG,AFNE01.JPG,AFNE01.JPG,AFNE01.JPG,AFNE01.JPG,,,,,,,,,,,,,,,,,,,,,1,5,15,3,,,AFNE07.jpg,AFSA07.jpg,AFNE10.jpg,AFSA08.jpg,AFSA07.jpg,FS,4,num_6,32,num_8,1.50017368072,,,2017_Aug_08_1616,60.008603469,MAFE4ImagesEEG,001,201090,
AFNE01.JPG,AFNE01.JPG,AFNE01.JPG,AFNE01.JPG,AFNE01.JPG,AFNE01.JPG,,,,,,,,,,,,,,,,,,,,,1,6,16,9,,,AFNE16.jpg,AFSA10.jpg,AFNE02.jpg,AFSA09.jpg,AFNE02.jpg,FN,3,num_2,32,num_8,1.75003985199,,,2017_Aug_08_1616,60.008603469,MAFE4ImagesEEG,001,201090,
AFNE01.JPG,AFNE01.JPG,AFNE01.JPG,AFNE01.JPG,AFNE01.JPG,AFNE01.JPG,,,,,,,,,,,,,,,,,,,,,1,7,17,1,,,AFNE08.jpg,AFNE10.jpg,AFSA18.jpg,AFSA10.jpg,AFSA18.jpg,FS,4,num_2,32,num_8,0.750146658393,,,2017_Aug_08_1616,60.008603469,MAFE4ImagesEEG,001,201090,
AFNE01.JPG,AFNE01.JPG,AFNE01.JPG,AFNE01.JPG,AFNE01.JPG,AFNE01.JPG,,,,,,,,,,,,,,,,,,,,,1,8,18,7,,,AFNE13.jpg,AFSA10.jpg,AFSA16.jpg,AFNE18.jpg,AFNE18.jpg,FN,3,num_4,32,num_8,0.700113766361,,,2017_Aug_08_1616,60.008603469,MAFE4ImagesEEG,001,201090,
AFNE01.JPG,AFNE01.JPG,AFNE01.JPG,AFNE01.JPG,AFNE01.JPG,AFNE01.JPG,,,,,,,,,,,,,,,,,,,,,1,9,19,2,,,AFNE05.jpg,AFNE04.jpg,AFSA04.jpg,AFSA17.jpg,AFNE04.jpg,FN,3,num_6,48,None,,,,2017_Aug_08_1616,60.008603469,MAFE4ImagesEEG,001,201090,
AFNE01.JPG,AFNE01.JPG,AFNE01.JPG,AFNE01.JPG,AFNE01.JPG,AFNE01.JPG,,,,,,,,,,,,,,,,,,,,,2,0,20,1,,,AFSA04.jpg,AFNE10.jpg,AFNE09.jpg,AFSA08.jpg,AFSA08.jpg,FS,4,num_4,32,num_8,0.933307545958,,,2017_Aug_08_1616,60.008603469,MAFE4ImagesEEG,001,201090,
AFNE01.JPG,AFNE01.JPG,AFNE01.JPG,AFNE01.JPG,AFNE01.JPG,AFNE01.JPG,,,,,,,,,,,,,,,,,,,,,2,1,21,5,,,AFSA06.jpg,AFNE04.jpg,AFNE13.jpg,AFSA20.jpg,AFNE13.jpg,FN,3,num_2,32,num_4,0.883422515122,,,2017_Aug_08_1616,60.008603469,MAFE4ImagesEEG,001,201090,
AFNE01.JPG,AFNE01.JPG,AFNE01.JPG,AFNE01.JPG,AFNE01.JPG,AFNE01.JPG,,,,,,,,,,,,,,,,,,,,,2,2,22,0,,,AFNE05.jpg,AFSA20.jpg,AFSA11.jpg,AFNE14.jpg,AFSA20.jpg,FS,4,num_6,32,num_8,0.716735802358,,,2017_Aug_08_1616,60.008603469,MAFE4ImagesEEG,001,201090,
AFNE01.JPG,AFNE01.JPG,AFNE01.JPG,AFNE01.JPG,AFNE01.JPG,AFNE01.JPG,,,,,,,,,,,,,,,,,,,,,2,3,23,4,,,AFSA20.jpg,AFNE11.jpg,AFNE15.jpg,AFSA11.jpg,AFNE15.jpg,FN,3,num_2,32,num_8,0.733467530925,,,2017_Aug_08_1616,60.008603469,MAFE4ImagesEEG,001,201090,
AFNE01.JPG,AFNE01.JPG,AFNE01.JPG,AFNE01.JPG,AFNE01.JPG,AFNE01.JPG,,,,,,,,,,,,,,,,,,,,,2,4,24,6,,,AFSA19.jpg,AFNE06.jpg,AFSA07.jpg,AFNE12.jpg,AFSA07.jpg,FS,4,num_2,32,num_4,0.750096623087,,,2017_Aug_08_1616,60.008603469,MAFE4ImagesEEG,001,201090,
AFNE01.JPG,AFNE01.JPG,AFNE01.JPG,AFNE01.JPG,AFNE01.JPG,AFNE01.JPG,,,,,,,,,,,,,,,,,,,,,2,5,25,9,,,AFSA03.jpg,AFNE16.jpg,AFSA19.jpg,AFNE07.jpg,AFSA03.jpg,FS,4,num_8,32,num_2,0.866634977516,,,2017_Aug_08_1616,60.008603469,MAFE4ImagesEEG,001,201090,
AFNE01.JPG,AFNE01.JPG,AFNE01.JPG,AFNE01.JPG,AFNE01.JPG,AFNE01.JPG,,,,,,,,,,,,,,,,,,,,,2,6,26,2,,,AFSA04.jpg,AFNE20.jpg,AFNE16.jpg,AFSA16.jpg,AFNE20.jpg,FN,3,num_6,32,num_4,0.916870256653,,,2017_Aug_08_1616,60.008603469,MAFE4ImagesEEG,001,201090,
AFNE01.JPG,AFNE01.JPG,AFNE01.JPG,AFNE01.JPG,AFNE01.JPG,AFNE01.JPG,,,,,,,,,,,,,,,,,,,,,2,7,27,7,,,AFNE07.jpg,AFSA19.jpg,AFNE04.jpg,AFSA05.jpg,AFNE04.jpg,FN,3,num_2,32,num_8,1.43359284406,,,2017_Aug_08_1616,60.008603469,MAFE4ImagesEEG,001,201090,
AFNE01.JPG,AFNE01.JPG,AFNE01.JPG,AFNE01.JPG,AFNE01.JPG,AFNE01.JPG,,,,,,,,,,,,,,,,,,,,,2,8,28,8,,,AFNE03.jpg,AFSA20.jpg,AFNE07.jpg,AFSA19.jpg,AFNE03.jpg,FN,3,num_8,32,num_4,1.36672686972,,,2017_Aug_08_1616,60.008603469,MAFE4ImagesEEG,001,201090,
AFNE01.JPG,AFNE01.JPG,AFNE01.JPG,AFNE01.JPG,AFNE01.JPG,AFNE01.JPG,,,,,,,,,,,,,,,,,,,,,2,9,29,3,,,AFSA07.jpg,AFNE20.jpg,AFNE13.jpg,AFSA14.jpg,AFNE13.jpg,FN,3,num_2,32,num_8,0.483460554853,,,2017_Aug_08_1616,60.008603469,MAFE4ImagesEEG,001,201090,
AFNE01.JPG,AFNE01.JPG,AFNE01.JPG,AFNE01.JPG,AFNE01.JPG,AFNE01.JPG,,,,,,,,,,,,,,,,,,,,,3,0,30,7,,,AFSA16.jpg,AFNE17.jpg,AFSA12.jpg,AFNE14.jpg,AFNE17.jpg,FN,3,num_6,32,num_2,1.05009126663,,,2017_Aug_08_1616,60.008603469,MAFE4ImagesEEG,001,201090,
AFNE01.JPG,AFNE01.JPG,AFNE01.JPG,AFNE01.JPG,AFNE01.JPG,AFNE01.JPG,,,,,,,,,,,,,,,,,,,,,3,1,31,1,,,AFNE07.jpg,AFNE19.jpg,AFSA09.jpg,AFSA01.jpg,AFNE07.jpg,FN,3,num_8,32,num_2,1.00012220209,,,2017_Aug_08_1616,60.008603469,MAFE4ImagesEEG,001,201090,
AFNE01.JPG,AFNE01.JPG,AFNE01.JPG,AFNE01.JPG,AFNE01.JPG,AFNE01.JPG,,,,,,,,,,,,,,,,,,,,,3,2,32,8,,,AFSA20.jpg,AFSA15.jpg,AFNE05.jpg,AFNE01.jpg,AFSA20.jpg,FS,4,num_8,32,num_6,0.833477185108,,,2017_Aug_08_1616,60.008603469,MAFE4ImagesEEG,001,201090,
AFNE01.JPG,AFNE01.JPG,AFNE01.JPG,AFNE01.JPG,AFNE01.JPG,AFNE01.JPG,,,,,,,,,,,,,,,,,,,,,3,3,33,0,,,AFNE09.jpg,AFSA15.jpg,AFNE16.jpg,AFSA20.jpg,AFSA15.jpg,FS,4,num_6,32,num_8,0.550152367447,,,2017_Aug_08_1616,60.008603469,MAFE4ImagesEEG,001,201090,
AFNE01.JPG,AFNE01.JPG,AFNE01.JPG,AFNE01.JPG,AFNE01.JPG,AFNE01.JPG,,,,,,,,,,,,,,,,,,,,,3,4,34,5,,,AFSA17.jpg,AFSA01.jpg,AFNE03.jpg,AFNE08.jpg,AFNE08.jpg,FN,3,num_4,32,num_6,0.533514936222,,,2017_Aug_08_1616,60.008603469,MAFE4ImagesEEG,001,201090,
AFNE01.JPG,AFNE01.JPG,AFNE01.JPG,AFNE01.JPG,AFNE01.JPG,AFNE01.JPG,,,,,,,,,,,,,,,,,,,,,3,5,35,3,,,AFNE17.jpg,AFNE01.jpg,AFSA06.jpg,AFSA16.jpg,AFSA16.jpg,FS,4,num_4,32,num_8,0.583455455024,,,2017_Aug_08_1616,60.008603469,MAFE4ImagesEEG,001,201090,
AFNE01.JPG,AFNE01.JPG,AFNE01.JPG,AFNE01.JPG,AFNE01.JPG,AFNE01.JPG,,,,,,,,,,,,,,,,,,,,,3,6,36,4,,,AFSA01.jpg,AFNE19.jpg,AFNE08.jpg,AFSA13.jpg,AFNE19.jpg,FN,3,num_6,32,num_2,0.916764091467,,,2017_Aug_08_1616,60.008603469,MAFE4ImagesEEG,001,201090,
AFNE01.JPG,AFNE01.JPG,AFNE01.JPG,AFNE01.JPG,AFNE01.JPG,AFNE01.JPG,,,,,,,,,,,,,,,,,,,,,3,7,37,2,,,AFSA18.jpg,AFNE20.jpg,AFSA15.jpg,AFNE11.jpg,AFSA15.jpg,FS,4,num_2,32,num_6,0.650095628574,,,2017_Aug_08_1616,60.008603469,MAFE4ImagesEEG,001,201090,
AFNE01.JPG,AFNE01.JPG,AFNE01.JPG,AFNE01.JPG,AFNE01.JPG,AFNE01.JPG,,,,,,,,,,,,,,,,,,,,,3,8,38,6,,,AFSA16.jpg,AFNE17.jpg,AFSA18.jpg,AFNE04.jpg,AFNE04.jpg,FN,3,num_4,32,num_8,0.966723854654,,,2017_Aug_08_1616,60.008603469,MAFE4ImagesEEG,001,201090,
AFNE01.JPG,AFNE01.JPG,AFNE01.JPG,AFNE01.JPG,AFNE01.JPG,AFNE01.JPG,,,,,,,,,,,,,,,,,,,,,3,9,39,9,,,AFNE01.jpg,AFNE19.jpg,AFSA10.jpg,AFSA08.jpg,AFSA10.jpg,FS,4,num_2,32,num_4,1.28340981388,,,2017_Aug_08_1616,60.008603469,MAFE4ImagesEEG,001,201090,
AFNE01.JPG,AFNE01.JPG,AFNE01.JPG,AFNE01.JPG,AFNE01.JPG,AFNE01.JPG,,,,,,,,,,,,,,,,,,,,,4,0,40,8,,,AFNE13.jpg,AFNE18.jpg,AFSA18.jpg,AFSA17.jpg,AFNE13.jpg,FN,3,num_8,32,num_4,3.51657055691,,,2017_Aug_08_1616,60.008603469,MAFE4ImagesEEG,001,201090,
