IPosition2,IPosition3,IPosition1,IPosition6,IPosition4,IPosition5,TrialsF1.thisRepN,TrialsF1.thisTrialN,TrialsF1.thisN,TrialsF1.thisIndex,TrialsM1.thisRepN,TrialsM1.thisTrialN,TrialsM1.thisN,TrialsM1.thisIndex,TrialsF2.thisRepN,TrialsF2.thisTrialN,TrialsF2.thisN,TrialsF2.thisIndex,TrialsM2.thisRepN,TrialsM2.thisTrialN,TrialsM2.thisN,TrialsM2.thisIndex,TrialsF3.thisRepN,TrialsF3.thisTrialN,TrialsF3.thisN,TrialsF3.thisIndex,TrialsM3.thisRepN,TrialsM3.thisTrialN,TrialsM3.thisN,TrialsM3.thisIndex,InstrKey_resp.keys,InstrKey_resp.rt,Image0 _Position,Image1 _Position,Image2 _Position,Image3 _Position,Center_image,condition,code,correct_answer,accuracy,Key_Resp.keys,Key_Resp.rt,BreakKey_resp.keys,BreakKey_resp.rt,date,frameRate,expName,session,participant,
,,,,,,,,,,,,,,,,,,,,,,,,,,,,,,space,7.7830183506,,,,,,,,,,,,,,2017_Jul_31_1159,60.0062935974,FEMA4ImagesEEG,001,201057,
AFSA25.JPG,AFNE24.JPG,AFSA24.JPG,AFNE21.JPG,AFSA21.JPG,AFNE25.JPG,0,0,0,2,,,,,,,,,,,,,,,,,,,,,,,AFNE09.jpg,AFNE16.jpg,AFSA14.jpg,AFSA10.jpg,AFSA14.jpg,FS,4,num_2,32,num_8,0.800130797783,,,2017_Jul_31_1159,60.0062935974,FEMA4ImagesEEG,001,201057,
AFSA21.JPG,AFNE22.JPG,AFNE21.JPG,AFSA23.JPG,AFSA22.JPG,AFNE23.JPG,0,1,1,0,,,,,,,,,,,,,,,,,,,,,,,AFSA03.jpg,AFSA07.jpg,AFNE09.jpg,AFNE05.jpg,AFNE09.jpg,FN,3,num_2,32,num_6,1.71671142592,,,2017_Jul_31_1159,60.0062935974,FEMA4ImagesEEG,001,201057,
AMSA21.JPG,AMNE22.JPG,AMNE21.JPG,AMSA23.JPG,AMSA22.JPG,AMNE23.JPG,0,2,2,1,,,,,,,,,,,,,,,,,,,,,,,AFSA06.jpg,AFNE11.jpg,AFSA02.jpg,AFNE05.jpg,AFNE05.jpg,FN,3,num_4,16,num_4,1.55007827654,,,2017_Jul_31_1159,60.0062935974,FEMA4ImagesEEG,001,201057,
AMSA25.JPG,AMNE24.JPG,AMSA24.JPG,AMNE26.JPG,AMSA21.JPG,AMNE25.JPG,0,3,3,3,,,,,,,,,,,,,,,,,,,,,,,AFNE04.jpg,AFNE08.jpg,AFSA11.jpg,AFSA06.jpg,AFSA11.jpg,FS,4,num_2,16,num_2,1.6834647886,,,2017_Jul_31_1159,60.0062935974,FEMA4ImagesEEG,001,201057,
AFNE22.JPG,AFSA24.JPG,AFSA22.JPG,AFNE25.JPG,AFNE24.JPG,AFSA25.JPG,0,4,4,6,,,,,,,,,,,,,,,,,,,,,,,AFSA15.jpg,AFSA13.jpg,AFNE15.jpg,AFNE02.jpg,AFSA13.jpg,FS,4,num_6,32,num_4,1.03352343617,,,2017_Jul_31_1159,60.0062935974,FEMA4ImagesEEG,001,201057,
AMNE22.JPG,AMSA24.JPG,AMSA22.JPG,AMNE25.JPG,AMNE24.JPG,AMSA25.JPG,0,5,5,7,,,,,,,,,,,,,,,,,,,,,,,AFSA02.jpg,AFNE06.jpg,AFSA04.jpg,AFNE15.jpg,AFNE15.jpg,FN,3,num_4,32,num_8,1.0833982029,,,2017_Jul_31_1159,60.0062935974,FEMA4ImagesEEG,001,201057,
AMSA21.JPG,AMNE23.JPG,AMNE21.JPG,AMSA25.JPG,AMNE25.JPG,AMSA23.JPG,0,6,6,5,,,,,,,,,,,,,,,,,,,,,,,AFNE16.jpg,AFSA19.jpg,AFSA07.jpg,AFNE04.jpg,AFSA19.jpg,FS,4,num_6,32,num_2,1.38339380873,,,2017_Jul_31_1159,60.0062935974,FEMA4ImagesEEG,001,201057,
AMNE23.JPG,AMNE24.JPG,AMNE22.JPG,AMSA24.JPG,AMSA22.JPG,AMSA23.JPG,0,7,7,9,,,,,,,,,,,,,,,,,,,,,,,AFSA03.jpg,AFNE01.jpg,AFSA01.jpg,AFNE15.jpg,AFNE01.jpg,FN,3,num_6,16,num_6,1.59978465503,,,2017_Jul_31_1159,60.0062935974,FEMA4ImagesEEG,001,201057,
AFSA21.JPG,AFNE23.JPG,AFNE21.JPG,AFSA25.JPG,AFNE25.JPG,AFSA23.JPG,0,8,8,4,,,,,,,,,,,,,,,,,,,,,,,AFNE12.jpg,AFSA14.jpg,AFNE13.jpg,AFSA04.jpg,AFSA14.jpg,FS,4,num_6,32,num_2,1.30014346726,,,2017_Jul_31_1159,60.0062935974,FEMA4ImagesEEG,001,201057,
AFNE23.JPG,AFNE24.JPG,AFNE22.JPG,AFSA24.JPG,AFSA22.JPG,AFSA23.JPG,0,9,9,8,,,,,,,,,,,,,,,,,,,,,,,AFNE02.jpg,AFSA07.jpg,AFSA16.jpg,AFNE09.jpg,AFSA16.jpg,FS,4,num_2,32,num_4,2.36663193046,,,2017_Jul_31_1159,60.0062935974,FEMA4ImagesEEG,001,201057,
AFSA25.JPG,AFNE24.JPG,AFSA24.JPG,AFNE21.JPG,AFSA21.JPG,AFNE25.JPG,,,,,0,0,0,2,,,,,,,,,,,,,,,,,,,AMSA10.jpg,AMSA12.jpg,AMNE05.jpg,AMNE17.jpg,AMSA10.jpg,MS,2,num_8,32,num_2,1.41683673905,,,2017_Jul_31_1159,60.0062935974,FEMA4ImagesEEG,001,201057,
AMNE23.JPG,AMNE24.JPG,AMNE22.JPG,AMSA24.JPG,AMSA22.JPG,AMSA23.JPG,,,,,0,1,1,9,,,,,,,,,,,,,,,,,,,AMSA18.jpg,AMNE19.jpg,AMNE05.jpg,AMSA14.jpg,AMNE05.jpg,MN,1,num_2,16,num_2,0.833466280252,,,2017_Jul_31_1159,60.0062935974,FEMA4ImagesEEG,001,201057,
AFSA21.JPG,AFNE23.JPG,AFNE21.JPG,AFSA25.JPG,AFNE25.JPG,AFSA23.JPG,,,,,0,2,2,4,,,,,,,,,,,,,,,,,,,AMNE20.jpg,AMSA03.jpg,AMNE03.jpg,AMSA08.jpg,AMNE03.jpg,MN,1,num_2,32,num_6,2.21671864251,,,2017_Jul_31_1159,60.0062935974,FEMA4ImagesEEG,001,201057,
AFNE23.JPG,AFNE24.JPG,AFNE22.JPG,AFSA24.JPG,AFSA22.JPG,AFSA23.JPG,,,,,0,3,3,8,,,,,,,,,,,,,,,,,,,AMNE02.jpg,AMNE09.jpg,AMSA13.jpg,AMSA01.jpg,AMNE02.jpg,MN,1,num_8,16,num_8,4.01655339729,,,2017_Jul_31_1159,60.0062935974,FEMA4ImagesEEG,001,201057,
AMSA25.JPG,AMNE24.JPG,AMSA24.JPG,AMNE26.JPG,AMSA21.JPG,AMNE25.JPG,,,,,0,4,4,3,,,,,,,,,,,,,,,,,,,AMSA16.jpg,AMNE18.jpg,AMNE17.jpg,AMSA20.jpg,AMSA20.jpg,MS,2,num_4,32,num_2,1.75005332287,,,2017_Jul_31_1159,60.0062935974,FEMA4ImagesEEG,001,201057,
AMSA21.JPG,AMNE23.JPG,AMNE21.JPG,AMSA25.JPG,AMNE25.JPG,AMSA23.JPG,,,,,0,5,5,5,,,,,,,,,,,,,,,,,,,AMNE06.jpg,AMNE07.jpg,AMSA09.jpg,AMSA02.jpg,AMSA02.jpg,MS,2,num_4,32,num_6,1.18338123593,,,2017_Jul_31_1159,60.0062935974,FEMA4ImagesEEG,001,201057,
AFSA21.JPG,AFNE22.JPG,AFNE21.JPG,AFSA23.JPG,AFSA22.JPG,AFNE23.JPG,,,,,0,6,6,0,,,,,,,,,,,,,,,,,,,AMNE13.jpg,AMSA03.jpg,AMNE07.jpg,AMSA05.jpg,AMNE13.jpg,MN,1,num_8,16,num_8,1.03347083461,,,2017_Jul_31_1159,60.0062935974,FEMA4ImagesEEG,001,201057,
AFNE22.JPG,AFSA24.JPG,AFSA22.JPG,AFNE25.JPG,AFNE24.JPG,AFSA25.JPG,,,,,0,7,7,6,,,,,,,,,,,,,,,,,,,AMNE04.jpg,AMSA16.jpg,AMSA12.jpg,AMNE10.jpg,AMSA12.jpg,MS,2,num_2,16,num_2,1.48340955726,,,2017_Jul_31_1159,60.0062935974,FEMA4ImagesEEG,001,201057,
AMSA21.JPG,AMNE22.JPG,AMNE21.JPG,AMSA23.JPG,AMSA22.JPG,AMNE23.JPG,,,,,0,8,8,1,,,,,,,,,,,,,,,,,,,AMNE02.jpg,AMSA14.jpg,AMNE18.jpg,AMSA17.jpg,AMNE02.jpg,MN,1,num_8,16,num_8,1.19985797605,,,2017_Jul_31_1159,60.0062935974,FEMA4ImagesEEG,001,201057,
AMNE22.JPG,AMSA24.JPG,AMSA22.JPG,AMNE25.JPG,AMNE24.JPG,AMSA25.JPG,,,,,0,9,9,7,,,,,,,,,,,,,,,,,,,AMNE01.jpg,AMSA03.jpg,AMNE09.jpg,AMSA19.jpg,AMSA03.jpg,MS,2,num_6,32,num_2,2.2502815295,,,2017_Jul_31_1159,60.0062935974,FEMA4ImagesEEG,001,201057,
AMSA21.JPG,AMNE22.JPG,AMNE21.JPG,AMSA23.JPG,AMSA22.JPG,AMNE23.JPG,,,,,,,,,0,0,0,1,,,,,,,,,,,,,,,AFSA14.jpg,AFSA17.jpg,AFNE16.jpg,AFNE19.jpg,AFSA14.jpg,FS,4,num_8,32,num_2,0.80012213788,,,2017_Jul_31_1159,60.0062935974,FEMA4ImagesEEG,001,201057,
AFSA21.JPG,AFNE23.JPG,AFNE21.JPG,AFSA25.JPG,AFNE25.JPG,AFSA23.JPG,,,,,,,,,0,1,1,4,,,,,,,,,,,,,,,AFSA15.jpg,AFNE09.jpg,AFNE05.jpg,AFSA05.jpg,AFSA15.jpg,FS,4,num_8,32,num_4,1.01678785821,,,2017_Jul_31_1159,60.0062935974,FEMA4ImagesEEG,001,201057,
AFSA21.JPG,AFNE22.JPG,AFNE21.JPG,AFSA23.JPG,AFSA22.JPG,AFNE23.JPG,,,,,,,,,0,2,2,0,,,,,,,,,,,,,,,AFSA10.jpg,AFNE08.jpg,AFNE19.jpg,AFSA11.jpg,AFNE08.jpg,FN,3,num_6,16,num_6,0.683436563471,,,2017_Jul_31_1159,60.0062935974,FEMA4ImagesEEG,001,201057,
AFNE23.JPG,AFNE24.JPG,AFNE22.JPG,AFSA24.JPG,AFSA22.JPG,AFSA23.JPG,,,,,,,,,0,3,3,8,,,,,,,,,,,,,,,AFNE16.jpg,AFSA10.jpg,AFSA06.jpg,AFNE11.jpg,AFNE11.jpg,FN,3,num_4,32,num_2,0.950145760318,,,2017_Jul_31_1159,60.0062935974,FEMA4ImagesEEG,001,201057,
AFSA25.JPG,AFNE24.JPG,AFSA24.JPG,AFNE21.JPG,AFSA21.JPG,AFNE25.JPG,,,,,,,,,0,4,4,2,,,,,,,,,,,,,,,AFNE03.jpg,AFSA02.jpg,AFSA13.jpg,AFNE19.jpg,AFNE03.jpg,FN,3,num_8,16,num_8,0.950113045052,,,2017_Jul_31_1159,60.0062935974,FEMA4ImagesEEG,001,201057,
AMNE22.JPG,AMSA24.JPG,AMSA22.JPG,AMNE25.JPG,AMNE24.JPG,AMSA25.JPG,,,,,,,,,0,5,5,7,,,,,,,,,,,,,,,AFNE17.jpg,AFSA10.jpg,AFNE16.jpg,AFSA08.jpg,AFNE17.jpg,FN,3,num_8,16,num_8,1.08339435421,,,2017_Jul_31_1159,60.0062935974,FEMA4ImagesEEG,001,201057,
AFNE22.JPG,AFSA24.JPG,AFSA22.JPG,AFNE25.JPG,AFNE24.JPG,AFSA25.JPG,,,,,,,,,0,6,6,6,,,,,,,,,,,,,,,AFSA17.jpg,AFNE08.jpg,AFSA13.jpg,AFNE15.jpg,AFNE15.jpg,FN,3,num_4,16,num_4,0.766598701943,,,2017_Jul_31_1159,60.0062935974,FEMA4ImagesEEG,001,201057,
AMSA25.JPG,AMNE24.JPG,AMSA24.JPG,AMNE26.JPG,AMSA21.JPG,AMNE25.JPG,,,,,,,,,0,7,7,3,,,,,,,,,,,,,,,AFSA02.jpg,AFNE16.jpg,AFNE17.jpg,AFSA19.jpg,AFSA19.jpg,FS,4,num_4,32,num_8,1.50013872026,,,2017_Jul_31_1159,60.0062935974,FEMA4ImagesEEG,001,201057,
AMNE23.JPG,AMNE24.JPG,AMNE22.JPG,AMSA24.JPG,AMSA22.JPG,AMSA23.JPG,,,,,,,,,0,8,8,9,,,,,,,,,,,,,,,AFNE16.jpg,AFNE15.jpg,AFSA12.jpg,AFSA11.jpg,AFNE16.jpg,FN,3,num_8,32,num_2,1.48339993507,,,2017_Jul_31_1159,60.0062935974,FEMA4ImagesEEG,001,201057,
AMSA21.JPG,AMNE23.JPG,AMNE21.JPG,AMSA25.JPG,AMNE25.JPG,AMSA23.JPG,,,,,,,,,0,9,9,5,,,,,,,,,,,,,,,AFSA01.jpg,AFSA03.jpg,AFNE10.jpg,AFNE03.jpg,AFSA03.jpg,FS,4,num_6,16,num_6,0.750076095574,,,2017_Jul_31_1159,60.0062935974,FEMA4ImagesEEG,001,201057,
AFSA21.JPG,AFNE22.JPG,AFNE21.JPG,AFSA23.JPG,AFSA22.JPG,AFNE23.JPG,,,,,,,,,,,,,0,0,0,0,,,,,,,,,,,AMNE13.jpg,AMSA19.jpg,AMNE07.jpg,AMSA10.jpg,AMSA10.jpg,MS,2,num_4,32,num_8,0.716851910111,,,2017_Jul_31_1159,60.0062935974,FEMA4ImagesEEG,001,201057,
AMSA21.JPG,AMNE23.JPG,AMNE21.JPG,AMSA25.JPG,AMNE25.JPG,AMSA23.JPG,,,,,,,,,,,,,0,1,1,5,,,,,,,,,,,AMNE06.jpg,AMSA17.jpg,AMNE16.jpg,AMSA12.jpg,AMNE16.jpg,MN,1,num_2,16,num_2,0.733471700456,,,2017_Jul_31_1159,60.0062935974,FEMA4ImagesEEG,001,201057,
AFSA21.JPG,AFNE23.JPG,AFNE21.JPG,AFSA25.JPG,AFNE25.JPG,AFSA23.JPG,,,,,,,,,,,,,0,2,2,4,,,,,,,,,,,AMNE13.jpg,AMNE10.jpg,AMSA10.jpg,AMSA20.jpg,AMSA10.jpg,MS,2,num_2,32,num_4,1.20008922997,,,2017_Jul_31_1159,60.0062935974,FEMA4ImagesEEG,001,201057,
AMSA25.JPG,AMNE24.JPG,AMSA24.JPG,AMNE26.JPG,AMSA21.JPG,AMNE25.JPG,,,,,,,,,,,,,0,3,3,3,,,,,,,,,,,AMNE12.jpg,AMNE17.jpg,AMSA04.jpg,AMSA18.jpg,AMSA04.jpg,MS,2,num_2,32,num_4,0.816780737834,,,2017_Jul_31_1159,60.0062935974,FEMA4ImagesEEG,001,201057,
AMNE23.JPG,AMNE24.JPG,AMNE22.JPG,AMSA24.JPG,AMSA22.JPG,AMSA23.JPG,,,,,,,,,,,,,0,4,4,9,,,,,,,,,,,AMNE20.jpg,AMSA20.jpg,AMSA08.jpg,AMNE05.jpg,AMNE20.jpg,MN,1,num_8,16,num_8,0.850098900264,,,2017_Jul_31_1159,60.0062935974,FEMA4ImagesEEG,001,201057,
AMSA21.JPG,AMNE22.JPG,AMNE21.JPG,AMSA23.JPG,AMSA22.JPG,AMNE23.JPG,,,,,,,,,,,,,0,5,5,1,,,,,,,,,,,AMNE05.jpg,AMSA16.jpg,AMSA19.jpg,AMNE19.jpg,AMNE19.jpg,MN,1,num_4,32,num_2,1.10013217712,,,2017_Jul_31_1159,60.0062935974,FEMA4ImagesEEG,001,201057,
AFNE23.JPG,AFNE24.JPG,AFNE22.JPG,AFSA24.JPG,AFSA22.JPG,AFSA23.JPG,,,,,,,,,,,,,0,6,6,8,,,,,,,,,,,AMSA20.jpg,AMSA16.jpg,AMNE01.jpg,AMNE05.jpg,AMSA16.jpg,MS,2,num_6,32,num_4,1.11671668617,,,2017_Jul_31_1159,60.0062935974,FEMA4ImagesEEG,001,201057,
AFSA25.JPG,AFNE24.JPG,AFSA24.JPG,AFNE21.JPG,AFSA21.JPG,AFNE25.JPG,,,,,,,,,,,,,0,7,7,2,,,,,,,,,,,AMSA06.jpg,AMSA16.jpg,AMNE14.jpg,AMNE05.jpg,AMNE05.jpg,MN,1,num_4,32,num_6,0.833454733249,,,2017_Jul_31_1159,60.0062935974,FEMA4ImagesEEG,001,201057,
AFNE22.JPG,AFSA24.JPG,AFSA22.JPG,AFNE25.JPG,AFNE24.JPG,AFSA25.JPG,,,,,,,,,,,,,0,8,8,6,,,,,,,,,,,AMNE05.jpg,AMSA19.jpg,AMSA02.jpg,AMNE03.jpg,AMNE03.jpg,MN,1,num_4,32,num_2,1.00015363446,,,2017_Jul_31_1159,60.0062935974,FEMA4ImagesEEG,001,201057,
AMNE22.JPG,AMSA24.JPG,AMSA22.JPG,AMNE25.JPG,AMNE24.JPG,AMSA25.JPG,,,,,,,,,,,,,0,9,9,7,,,,,,,,,,,AMSA09.jpg,AMSA19.jpg,AMNE12.jpg,AMNE03.jpg,AMSA19.jpg,MS,2,num_6,32,num_2,0.833440941526,,,2017_Jul_31_1159,60.0062935974,FEMA4ImagesEEG,001,201057,
AMSA21.JPG,AMNE23.JPG,AMNE21.JPG,AMSA25.JPG,AMNE25.JPG,AMSA23.JPG,,,,,,,,,,,,,,,,,0,0,0,5,,,,,,,AFNE15.jpg,AFNE07.jpg,AFSA08.jpg,AFSA01.jpg,AFNE07.jpg,FN,3,num_6,32,num_8,1.2335154817,,,2017_Jul_31_1159,60.0062935974,FEMA4ImagesEEG,001,201057,
AFSA21.JPG,AFNE22.JPG,AFNE21.JPG,AFSA23.JPG,AFSA22.JPG,AFNE23.JPG,,,,,,,,,,,,,,,,,0,1,1,0,,,,,,,AFSA17.jpg,AFSA08.jpg,AFNE19.jpg,AFNE09.jpg,AFNE09.jpg,FN,3,num_4,16,num_4,0.833538125968,,,2017_Jul_31_1159,60.0062935974,FEMA4ImagesEEG,001,201057,
AFNE22.JPG,AFSA24.JPG,AFSA22.JPG,AFNE25.JPG,AFNE24.JPG,AFSA25.JPG,,,,,,,,,,,,,,,,,0,2,2,6,,,,,,,AFSA19.jpg,AFSA10.jpg,AFNE18.jpg,AFNE19.jpg,AFSA19.jpg,FS,4,num_8,16,num_8,1.63340270938,,,2017_Jul_31_1159,60.0062935974,FEMA4ImagesEEG,001,201057,
AMSA21.JPG,AMNE22.JPG,AMNE21.JPG,AMSA23.JPG,AMSA22.JPG,AMNE23.JPG,,,,,,,,,,,,,,,,,0,3,3,1,,,,,,,AFNE14.jpg,AFSA12.jpg,AFSA04.jpg,AFNE16.jpg,AFNE14.jpg,FN,3,num_8,32,num_6,0.833566671936,,,2017_Jul_31_1159,60.0062935974,FEMA4ImagesEEG,001,201057,
AFSA25.JPG,AFNE24.JPG,AFSA24.JPG,AFNE21.JPG,AFSA21.JPG,AFNE25.JPG,,,,,,,,,,,,,,,,,0,4,4,2,,,,,,,AFSA03.jpg,AFNE13.jpg,AFNE18.jpg,AFSA07.jpg,AFSA03.jpg,FS,4,num_8,32,num_6,0.933463425376,,,2017_Jul_31_1159,60.0062935974,FEMA4ImagesEEG,001,201057,
AFNE23.JPG,AFNE24.JPG,AFNE22.JPG,AFSA24.JPG,AFSA22.JPG,AFSA23.JPG,,,,,,,,,,,,,,,,,0,5,5,8,,,,,,,AFSA01.jpg,AFNE14.jpg,AFSA16.jpg,AFNE02.jpg,AFNE02.jpg,FN,3,num_4,32,num_8,0.90012826398,,,2017_Jul_31_1159,60.0062935974,FEMA4ImagesEEG,001,201057,
AMNE22.JPG,AMSA24.JPG,AMSA22.JPG,AMNE25.JPG,AMNE24.JPG,AMSA25.JPG,,,,,,,,,,,,,,,,,0,6,6,7,,,,,,,AFNE04.jpg,AFNE17.jpg,AFSA16.jpg,AFSA01.jpg,AFSA16.jpg,FS,4,num_2,16,num_2,1.1999622169,,,2017_Jul_31_1159,60.0062935974,FEMA4ImagesEEG,001,201057,
AFSA21.JPG,AFNE23.JPG,AFNE21.JPG,AFSA25.JPG,AFNE25.JPG,AFSA23.JPG,,,,,,,,,,,,,,,,,0,7,7,4,,,,,,,AFSA16.jpg,AFNE02.jpg,AFSA20.jpg,AFNE01.jpg,AFNE01.jpg,FN,3,num_4,16,num_4,0.950148005737,,,2017_Jul_31_1159,60.0062935974,FEMA4ImagesEEG,001,201057,
AMSA25.JPG,AMNE24.JPG,AMSA24.JPG,AMNE26.JPG,AMSA21.JPG,AMNE25.JPG,,,,,,,,,,,,,,,,,0,8,8,3,,,,,,,AFSA18.jpg,AFNE07.jpg,AFNE08.jpg,AFSA10.jpg,AFNE07.jpg,FN,3,num_6,16,num_6,1.10015527019,,,2017_Jul_31_1159,60.0062935974,FEMA4ImagesEEG,001,201057,
AMNE23.JPG,AMNE24.JPG,AMNE22.JPG,AMSA24.JPG,AMSA22.JPG,AMSA23.JPG,,,,,,,,,,,,,,,,,0,9,9,9,,,,,,,AFSA09.jpg,AFNE11.jpg,AFNE20.jpg,AFSA10.jpg,AFNE11.jpg,FN,3,num_6,32,num_8,0.866758783115,,,2017_Jul_31_1159,60.0062935974,FEMA4ImagesEEG,001,201057,
AMSA25.JPG,AMNE24.JPG,AMSA24.JPG,AMNE26.JPG,AMSA21.JPG,AMNE25.JPG,,,,,,,,,,,,,,,,,,,,,0,0,0,3,,,AMSA14.jpg,AMNE01.jpg,AMNE14.jpg,AMSA18.jpg,AMNE14.jpg,MN,1,num_2,32,num_4,1.10016104369,,,2017_Jul_31_1159,60.0062935974,FEMA4ImagesEEG,001,201057,
AFSA25.JPG,AFNE24.JPG,AFSA24.JPG,AFNE21.JPG,AFSA21.JPG,AFNE25.JPG,,,,,,,,,,,,,,,,,,,,,0,1,1,2,,,AMNE07.jpg,AMSA07.jpg,AMNE02.jpg,AMSA19.jpg,AMNE02.jpg,MN,1,num_2,16,num_2,0.983467450831,,,2017_Jul_31_1159,60.0062935974,FEMA4ImagesEEG,001,201057,
AMNE23.JPG,AMNE24.JPG,AMNE22.JPG,AMSA24.JPG,AMSA22.JPG,AMSA23.JPG,,,,,,,,,,,,,,,,,,,,,0,2,2,9,,,AMNE07.jpg,AMSA12.jpg,AMNE04.jpg,AMSA13.jpg,AMNE04.jpg,MN,1,num_2,16,num_2,1.53339465871,,,2017_Jul_31_1159,60.0062935974,FEMA4ImagesEEG,001,201057,
AMNE22.JPG,AMSA24.JPG,AMSA22.JPG,AMNE25.JPG,AMNE24.JPG,AMSA25.JPG,,,,,,,,,,,,,,,,,,,,,0,3,3,7,,,AMSA20.jpg,AMNE17.jpg,AMSA17.jpg,AMNE20.jpg,AMNE17.jpg,MN,1,num_6,32,num_4,2.33332948433,,,2017_Jul_31_1159,60.0062935974,FEMA4ImagesEEG,001,201057,
AFNE23.JPG,AFNE24.JPG,AFNE22.JPG,AFSA24.JPG,AFSA22.JPG,AFSA23.JPG,,,,,,,,,,,,,,,,,,,,,0,4,4,8,,,AMNE19.jpg,AMSA13.jpg,AMSA20.jpg,AMNE12.jpg,AMSA13.jpg,MS,2,num_6,32,num_2,1.25010127388,,,2017_Jul_31_1159,60.0062935974,FEMA4ImagesEEG,001,201057,
AMSA21.JPG,AMNE22.JPG,AMNE21.JPG,AMSA23.JPG,AMSA22.JPG,AMNE23.JPG,,,,,,,,,,,,,,,,,,,,,0,5,5,1,,,AMNE06.jpg,AMSA17.jpg,AMNE05.jpg,AMSA14.jpg,AMNE05.jpg,MN,1,num_2,16,num_2,0.900095548481,,,2017_Jul_31_1159,60.0062935974,FEMA4ImagesEEG,001,201057,
AFSA21.JPG,AFNE23.JPG,AFNE21.JPG,AFSA25.JPG,AFNE25.JPG,AFSA23.JPG,,,,,,,,,,,,,,,,,,,,,0,6,6,4,,,AMNE01.jpg,AMSA04.jpg,AMSA11.jpg,AMNE11.jpg,AMNE11.jpg,MN,1,num_4,32,num_8,0.683476014761,,,2017_Jul_31_1159,60.0062935974,FEMA4ImagesEEG,001,201057,
AFNE22.JPG,AFSA24.JPG,AFSA22.JPG,AFNE25.JPG,AFNE24.JPG,AFSA25.JPG,,,,,,,,,,,,,,,,,,,,,0,7,7,6,,,AMSA01.jpg,AMSA12.jpg,AMNE08.jpg,AMNE19.jpg,AMNE08.jpg,MN,1,num_2,16,num_2,1.60003675683,,,2017_Jul_31_1159,60.0062935974,FEMA4ImagesEEG,001,201057,
AFSA21.JPG,AFNE22.JPG,AFNE21.JPG,AFSA23.JPG,AFSA22.JPG,AFNE23.JPG,,,,,,,,,,,,,,,,,,,,,0,8,8,0,,,AMSA12.jpg,AMSA20.jpg,AMNE06.jpg,AMNE09.jpg,AMSA12.jpg,MS,2,num_8,32,num_6,0.800181795377,,,2017_Jul_31_1159,60.0062935974,FEMA4ImagesEEG,001,201057,
AMSA21.JPG,AMNE23.JPG,AMNE21.JPG,AMSA25.JPG,AMNE25.JPG,AMSA23.JPG,,,,,,,,,,,,,,,,,,,,,0,9,9,5,,,AMNE11.jpg,AMNE13.jpg,AMSA20.jpg,AMSA05.jpg,AMNE11.jpg,MN,1,num_8,32,num_4,0.950097970199,,,2017_Jul_31_1159,60.0062935974,FEMA4ImagesEEG,001,201057,
,,,,,,,,,,,,,,,,,,,,,,,,,,,,,,,,,,,,,,,,,,,space,4.84949943703,2017_Jul_31_1159,60.0062935974,FEMA4ImagesEEG,001,201057,
AFNE01.JPG,AFNE01.JPG,AFNE01.JPG,AFNE01.JPG,AFNE01.JPG,AFNE01.JPG,0,0,0,8,,,,,,,,,,,,,,,,,,,,,,,AFNE19.jpg,AFSA02.jpg,AFSA04.jpg,AFNE11.jpg,AFNE11.jpg,FN,3,num_4,32,num_2,1.80003008526,,,2017_Jul_31_1159,60.0062935974,FEMA4ImagesEEG,001,201057,
AFNE01.JPG,AFNE01.JPG,AFNE01.JPG,AFNE01.JPG,AFNE01.JPG,AFNE01.JPG,0,1,1,1,,,,,,,,,,,,,,,,,,,,,,,AFNE04.jpg,AFSA09.jpg,AFNE15.jpg,AFSA10.jpg,AFSA09.jpg,FS,4,num_6,32,num_4,1.71673259488,,,2017_Jul_31_1159,60.0062935974,FEMA4ImagesEEG,001,201057,
AFNE01.JPG,AFNE01.JPG,AFNE01.JPG,AFNE01.JPG,AFNE01.JPG,AFNE01.JPG,0,2,2,9,,,,,,,,,,,,,,,,,,,,,,,AFNE02.jpg,AFSA18.jpg,AFSA10.jpg,AFNE03.jpg,AFSA10.jpg,FS,4,num_2,32,num_4,0.933511857409,,,2017_Jul_31_1159,60.0062935974,FEMA4ImagesEEG,001,201057,
AFNE01.JPG,AFNE01.JPG,AFNE01.JPG,AFNE01.JPG,AFNE01.JPG,AFNE01.JPG,0,3,3,3,,,,,,,,,,,,,,,,,,,,,,,AFSA10.jpg,AFNE08.jpg,AFSA02.jpg,AFNE14.jpg,AFNE08.jpg,FN,3,num_6,32,num_2,2.98329617549,,,2017_Jul_31_1159,60.0062935974,FEMA4ImagesEEG,001,201057,
AFNE01.JPG,AFNE01.JPG,AFNE01.JPG,AFNE01.JPG,AFNE01.JPG,AFNE01.JPG,0,4,4,2,,,,,,,,,,,,,,,,,,,,,,,AFNE05.jpg,AFNE18.jpg,AFSA10.jpg,AFSA19.jpg,AFSA10.jpg,FS,4,num_2,16,num_2,0.833310400369,,,2017_Jul_31_1159,60.0062935974,FEMA4ImagesEEG,001,201057,
AFNE01.JPG,AFNE01.JPG,AFNE01.JPG,AFNE01.JPG,AFNE01.JPG,AFNE01.JPG,0,5,5,7,,,,,,,,,,,,,,,,,,,,,,,AFNE12.jpg,AFNE05.jpg,AFSA11.jpg,AFSA19.jpg,AFSA11.jpg,FS,4,num_2,16,num_2,0.683420526562,,,2017_Jul_31_1159,60.0062935974,FEMA4ImagesEEG,001,201057,
AFNE01.JPG,AFNE01.JPG,AFNE01.JPG,AFNE01.JPG,AFNE01.JPG,AFNE01.JPG,0,6,6,5,,,,,,,,,,,,,,,,,,,,,,,AFNE13.jpg,AFNE20.jpg,AFSA04.jpg,AFSA05.jpg,AFSA05.jpg,FS,4,num_4,16,num_4,2.51667223149,,,2017_Jul_31_1159,60.0062935974,FEMA4ImagesEEG,001,201057,
AFNE01.JPG,AFNE01.JPG,AFNE01.JPG,AFNE01.JPG,AFNE01.JPG,AFNE01.JPG,0,7,7,0,,,,,,,,,,,,,,,,,,,,,,,AFNE10.jpg,AFSA10.jpg,AFSA15.jpg,AFNE14.jpg,AFNE10.jpg,FN,3,num_8,32,num_4,1.25024079578,,,2017_Jul_31_1159,60.0062935974,FEMA4ImagesEEG,001,201057,
AFNE01.JPG,AFNE01.JPG,AFNE01.JPG,AFNE01.JPG,AFNE01.JPG,AFNE01.JPG,0,8,8,4,,,,,,,,,,,,,,,,,,,,,,,AFSA16.jpg,AFNE16.jpg,AFSA04.jpg,AFNE08.jpg,AFSA16.jpg,FS,4,num_8,16,num_8,1.7666468129,,,2017_Jul_31_1159,60.0062935974,FEMA4ImagesEEG,001,201057,
AFNE01.JPG,AFNE01.JPG,AFNE01.JPG,AFNE01.JPG,AFNE01.JPG,AFNE01.JPG,0,9,9,6,,,,,,,,,,,,,,,,,,,,,,,AFNE15.jpg,AFSA20.jpg,AFNE01.jpg,AFSA02.jpg,AFNE15.jpg,FN,3,num_8,32,num_6,0.966821038863,,,2017_Jul_31_1159,60.0062935974,FEMA4ImagesEEG,001,201057,
AFNE01.JPG,AFNE01.JPG,AFNE01.JPG,AFNE01.JPG,AFNE01.JPG,AFNE01.JPG,1,0,10,1,,,,,,,,,,,,,,,,,,,,,,,AFSA15.jpg,AFNE02.jpg,AFSA13.jpg,AFNE15.jpg,AFSA13.jpg,FS,4,num_2,16,num_2,2.33335963404,,,2017_Jul_31_1159,60.0062935974,FEMA4ImagesEEG,001,201057,
AFNE01.JPG,AFNE01.JPG,AFNE01.JPG,AFNE01.JPG,AFNE01.JPG,AFNE01.JPG,1,1,11,8,,,,,,,,,,,,,,,,,,,,,,,AFSA12.jpg,AFNE04.jpg,AFSA07.jpg,AFNE10.jpg,AFNE10.jpg,FN,3,num_4,32,num_8,1.61697664601,,,2017_Jul_31_1159,60.0062935974,FEMA4ImagesEEG,001,201057,
AFNE01.JPG,AFNE01.JPG,AFNE01.JPG,AFNE01.JPG,AFNE01.JPG,AFNE01.JPG,1,2,12,7,,,,,,,,,,,,,,,,,,,,,,,AFNE10.jpg,AFNE08.jpg,AFSA16.jpg,AFSA02.jpg,AFSA16.jpg,FS,4,num_2,32,num_4,0.900105170673,,,2017_Jul_31_1159,60.0062935974,FEMA4ImagesEEG,001,201057,
AFNE01.JPG,AFNE01.JPG,AFNE01.JPG,AFNE01.JPG,AFNE01.JPG,AFNE01.JPG,1,3,13,3,,,,,,,,,,,,,,,,,,,,,,,AFNE11.jpg,AFSA19.jpg,AFNE09.jpg,AFSA09.jpg,AFNE09.jpg,FN,3,num_2,16,num_2,0.883453626884,,,2017_Jul_31_1159,60.0062935974,FEMA4ImagesEEG,001,201057,
AFNE01.JPG,AFNE01.JPG,AFNE01.JPG,AFNE01.JPG,AFNE01.JPG,AFNE01.JPG,1,4,14,5,,,,,,,,,,,,,,,,,,,,,,,AFNE15.jpg,AFSA14.jpg,AFSA07.jpg,AFNE01.jpg,AFSA07.jpg,FS,4,num_2,16,num_2,1.86677032989,,,2017_Jul_31_1159,60.0062935974,FEMA4ImagesEEG,001,201057,
AFNE01.JPG,AFNE01.JPG,AFNE01.JPG,AFNE01.JPG,AFNE01.JPG,AFNE01.JPG,1,5,15,6,,,,,,,,,,,,,,,,,,,,,,,AFNE18.jpg,AFNE17.jpg,AFSA03.jpg,AFSA19.jpg,AFNE18.jpg,FN,3,num_8,16,num_8,1.15008777054,,,2017_Jul_31_1159,60.0062935974,FEMA4ImagesEEG,001,201057,
AFNE01.JPG,AFNE01.JPG,AFNE01.JPG,AFNE01.JPG,AFNE01.JPG,AFNE01.JPG,1,6,16,4,,,,,,,,,,,,,,,,,,,,,,,AFNE02.jpg,AFSA14.jpg,AFSA01.jpg,AFNE12.jpg,AFSA14.jpg,FS,4,num_6,32,num_4,1.63355281577,,,2017_Jul_31_1159,60.0062935974,FEMA4ImagesEEG,001,201057,
AFNE01.JPG,AFNE01.JPG,AFNE01.JPG,AFNE01.JPG,AFNE01.JPG,AFNE01.JPG,1,7,17,0,,,,,,,,,,,,,,,,,,,,,,,AFNE06.jpg,AFSA07.jpg,AFNE14.jpg,AFSA05.jpg,AFSA05.jpg,FS,4,num_4,16,num_4,0.783467066009,,,2017_Jul_31_1159,60.0062935974,FEMA4ImagesEEG,001,201057,
AFNE01.JPG,AFNE01.JPG,AFNE01.JPG,AFNE01.JPG,AFNE01.JPG,AFNE01.JPG,1,8,18,9,,,,,,,,,,,,,,,,,,,,,,,AFNE14.jpg,AFNE10.jpg,AFSA16.jpg,AFSA19.jpg,AFSA19.jpg,FS,4,num_4,32,num_2,2.05002230755,,,2017_Jul_31_1159,60.0062935974,FEMA4ImagesEEG,001,201057,
AFNE01.JPG,AFNE01.JPG,AFNE01.JPG,AFNE01.JPG,AFNE01.JPG,AFNE01.JPG,1,9,19,2,,,,,,,,,,,,,,,,,,,,,,,AFSA13.jpg,AFNE09.jpg,AFSA09.jpg,AFNE08.jpg,AFSA09.jpg,FS,4,num_2,32,num_8,1.36682212935,,,2017_Jul_31_1159,60.0062935974,FEMA4ImagesEEG,001,201057,
AFNE01.JPG,AFNE01.JPG,AFNE01.JPG,AFNE01.JPG,AFNE01.JPG,AFNE01.JPG,2,0,20,0,,,,,,,,,,,,,,,,,,,,,,,AFNE08.jpg,AFNE18.jpg,AFSA15.jpg,AFSA12.jpg,AFSA15.jpg,FS,4,num_2,16,num_2,0.966787040466,,,2017_Jul_31_1159,60.0062935974,FEMA4ImagesEEG,001,201057,
AFNE01.JPG,AFNE01.JPG,AFNE01.JPG,AFNE01.JPG,AFNE01.JPG,AFNE01.JPG,2,1,21,1,,,,,,,,,,,,,,,,,,,,,,,AFNE19.jpg,AFSA13.jpg,AFNE10.jpg,AFSA03.jpg,AFNE10.jpg,FN,3,num_2,16,num_2,1.11675870302,,,2017_Jul_31_1159,60.0062935974,FEMA4ImagesEEG,001,201057,
AFNE01.JPG,AFNE01.JPG,AFNE01.JPG,AFNE01.JPG,AFNE01.JPG,AFNE01.JPG,2,2,22,4,,,,,,,,,,,,,,,,,,,,,,,AFSA12.jpg,AFNE19.jpg,AFNE14.jpg,AFSA15.jpg,AFSA12.jpg,FS,4,num_8,16,num_8,0.616766881896,,,2017_Jul_31_1159,60.0062935974,FEMA4ImagesEEG,001,201057,
AFNE01.JPG,AFNE01.JPG,AFNE01.JPG,AFNE01.JPG,AFNE01.JPG,AFNE01.JPG,2,3,23,5,,,,,,,,,,,,,,,,,,,,,,,AFSA14.jpg,AFSA13.jpg,AFNE03.jpg,AFNE12.jpg,AFSA13.jpg,FS,4,num_6,16,num_6,1.33344110195,,,2017_Jul_31_1159,60.0062935974,FEMA4ImagesEEG,001,201057,
AFNE01.JPG,AFNE01.JPG,AFNE01.JPG,AFNE01.JPG,AFNE01.JPG,AFNE01.JPG,2,4,24,3,,,,,,,,,,,,,,,,,,,,,,,AFSA13.jpg,AFSA16.jpg,AFNE07.jpg,AFNE08.jpg,AFSA13.jpg,FS,4,num_8,16,num_8,1.46689529018,,,2017_Jul_31_1159,60.0062935974,FEMA4ImagesEEG,001,201057,
AFNE01.JPG,AFNE01.JPG,AFNE01.JPG,AFNE01.JPG,AFNE01.JPG,AFNE01.JPG,2,5,25,2,,,,,,,,,,,,,,,,,,,,,,,AFNE10.jpg,AFSA14.jpg,AFSA02.jpg,AFNE18.jpg,AFSA14.jpg,FS,4,num_6,32,num_2,1.25019557122,,,2017_Jul_31_1159,60.0062935974,FEMA4ImagesEEG,001,201057,
AFNE01.JPG,AFNE01.JPG,AFNE01.JPG,AFNE01.JPG,AFNE01.JPG,AFNE01.JPG,2,6,26,9,,,,,,,,,,,,,,,,,,,,,,,AFSA20.jpg,AFNE19.jpg,AFSA03.jpg,AFNE14.jpg,AFSA03.jpg,FS,4,num_2,16,num_2,1.08343027695,,,2017_Jul_31_1159,60.0062935974,FEMA4ImagesEEG,001,201057,
AFNE01.JPG,AFNE01.JPG,AFNE01.JPG,AFNE01.JPG,AFNE01.JPG,AFNE01.JPG,2,7,27,6,,,,,,,,,,,,,,,,,,,,,,,AFNE08.jpg,AFSA06.jpg,AFNE11.jpg,AFSA02.jpg,AFSA02.jpg,FS,4,num_4,32,num_6,1.1167606276,,,2017_Jul_31_1159,60.0062935974,FEMA4ImagesEEG,001,201057,
AFNE01.JPG,AFNE01.JPG,AFNE01.JPG,AFNE01.JPG,AFNE01.JPG,AFNE01.JPG,2,8,28,7,,,,,,,,,,,,,,,,,,,,,,,AFNE17.jpg,AFSA14.jpg,AFSA03.jpg,AFNE18.jpg,AFNE18.jpg,FN,3,num_4,32,num_6,2.68332975707,,,2017_Jul_31_1159,60.0062935974,FEMA4ImagesEEG,001,201057,
AFNE01.JPG,AFNE01.JPG,AFNE01.JPG,AFNE01.JPG,AFNE01.JPG,AFNE01.JPG,2,9,29,8,,,,,,,,,,,,,,,,,,,,,,,AFNE10.jpg,AFSA06.jpg,AFNE09.jpg,AFSA01.jpg,AFSA06.jpg,FS,4,num_6,32,num_2,1.59975386411,,,2017_Jul_31_1159,60.0062935974,FEMA4ImagesEEG,001,201057,
AFNE01.JPG,AFNE01.JPG,AFNE01.JPG,AFNE01.JPG,AFNE01.JPG,AFNE01.JPG,3,0,30,6,,,,,,,,,,,,,,,,,,,,,,,AFNE02.jpg,AFSA16.jpg,AFSA14.jpg,AFNE05.jpg,AFNE05.jpg,FN,3,num_4,32,num_8,1.58337494917,,,2017_Jul_31_1159,60.0062935974,FEMA4ImagesEEG,001,201057,
AFNE01.JPG,AFNE01.JPG,AFNE01.JPG,AFNE01.JPG,AFNE01.JPG,AFNE01.JPG,3,1,31,0,,,,,,,,,,,,,,,,,,,,,,,AFSA04.jpg,AFNE12.jpg,AFSA08.jpg,AFNE17.jpg,AFSA04.jpg,FS,4,num_8,16,num_8,0.766775108874,,,2017_Jul_31_1159,60.0062935974,FEMA4ImagesEEG,001,201057,
AFNE01.JPG,AFNE01.JPG,AFNE01.JPG,AFNE01.JPG,AFNE01.JPG,AFNE01.JPG,3,2,32,1,,,,,,,,,,,,,,,,,,,,,,,AFNE11.jpg,AFSA20.jpg,AFSA10.jpg,AFNE02.jpg,AFSA20.jpg,FS,4,num_6,32,num_4,2.20000968617,,,2017_Jul_31_1159,60.0062935974,FEMA4ImagesEEG,001,201057,
AFNE01.JPG,AFNE01.JPG,AFNE01.JPG,AFNE01.JPG,AFNE01.JPG,AFNE01.JPG,3,3,33,7,,,,,,,,,,,,,,,,,,,,,,,AFSA12.jpg,AFNE12.jpg,AFNE19.jpg,AFSA10.jpg,AFNE19.jpg,FN,3,num_2,32,num_4,3.69987481507,,,2017_Jul_31_1159,60.0062935974,FEMA4ImagesEEG,001,201057,
AFNE01.JPG,AFNE01.JPG,AFNE01.JPG,AFNE01.JPG,AFNE01.JPG,AFNE01.JPG,3,4,34,4,,,,,,,,,,,,,,,,,,,,,,,AFNE18.jpg,AFSA11.jpg,AFSA19.jpg,AFNE06.jpg,AFNE06.jpg,FN,3,num_4,16,num_4,1.20008602249,,,2017_Jul_31_1159,60.0062935974,FEMA4ImagesEEG,001,201057,
AFNE01.JPG,AFNE01.JPG,AFNE01.JPG,AFNE01.JPG,AFNE01.JPG,AFNE01.JPG,3,5,35,3,,,,,,,,,,,,,,,,,,,,,,,AFNE12.jpg,AFSA07.jpg,AFSA05.jpg,AFNE14.jpg,AFNE14.jpg,FN,3,num_4,32,num_8,0.88350013434,,,2017_Jul_31_1159,60.0062935974,FEMA4ImagesEEG,001,201057,
AFNE01.JPG,AFNE01.JPG,AFNE01.JPG,AFNE01.JPG,AFNE01.JPG,AFNE01.JPG,3,6,36,8,,,,,,,,,,,,,,,,,,,,,,,AFNE04.jpg,AFSA08.jpg,AFSA07.jpg,AFNE03.jpg,AFSA08.jpg,FS,4,num_6,32,num_4,1.08342963574,,,2017_Jul_31_1159,60.0062935974,FEMA4ImagesEEG,001,201057,
AFNE01.JPG,AFNE01.JPG,AFNE01.JPG,AFNE01.JPG,AFNE01.JPG,AFNE01.JPG,3,7,37,9,,,,,,,,,,,,,,,,,,,,,,,AFSA02.jpg,AFNE11.jpg,AFSA03.jpg,AFNE01.jpg,AFSA02.jpg,FS,4,num_8,32,num_2,0.950098932255,,,2017_Jul_31_1159,60.0062935974,FEMA4ImagesEEG,001,201057,
AFNE01.JPG,AFNE01.JPG,AFNE01.JPG,AFNE01.JPG,AFNE01.JPG,AFNE01.JPG,3,8,38,2,,,,,,,,,,,,,,,,,,,,,,,AFNE14.jpg,AFNE17.jpg,AFSA02.jpg,AFSA18.jpg,AFSA02.jpg,FS,4,num_2,32,num_8,0.900122811319,,,2017_Jul_31_1159,60.0062935974,FEMA4ImagesEEG,001,201057,
AFNE01.JPG,AFNE01.JPG,AFNE01.JPG,AFNE01.JPG,AFNE01.JPG,AFNE01.JPG,3,9,39,5,,,,,,,,,,,,,,,,,,,,,,,AFSA09.jpg,AFSA18.jpg,AFNE14.jpg,AFNE01.jpg,AFSA09.jpg,FS,4,num_8,32,num_2,1.44978476735,,,2017_Jul_31_1159,60.0062935974,FEMA4ImagesEEG,001,201057,
AFNE01.JPG,AFNE01.JPG,AFNE01.JPG,AFNE01.JPG,AFNE01.JPG,AFNE01.JPG,4,0,40,3,,,,,,,,,,,,,,,,,,,,,,,AFSA20.jpg,AFNE15.jpg,AFSA17.jpg,AFNE13.jpg,AFNE15.jpg,FN,3,num_6,16,num_6,0.683501353022,,,2017_Jul_31_1159,60.0062935974,FEMA4ImagesEEG,001,201057,
AFNE01.JPG,AFNE01.JPG,AFNE01.JPG,AFNE01.JPG,AFNE01.JPG,AFNE01.JPG,4,1,41,8,,,,,,,,,,,,,,,,,,,,,,,AFNE15.jpg,AFSA13.jpg,AFSA02.jpg,AFNE13.jpg,AFNE13.jpg,FN,3,num_4,16,num_4,1.16677491646,,,2017_Jul_31_1159,60.0062935974,FEMA4ImagesEEG,001,201057,
AFNE01.JPG,AFNE01.JPG,AFNE01.JPG,AFNE01.JPG,AFNE01.JPG,AFNE01.JPG,4,2,42,0,,,,,,,,,,,,,,,,,,,,,,,AFSA08.jpg,AFNE12.jpg,AFNE13.jpg,AFSA07.jpg,AFNE13.jpg,FN,3,num_2,16,num_2,0.900111264782,,,2017_Jul_31_1159,60.0062935974,FEMA4ImagesEEG,001,201057,
AFNE01.JPG,AFNE01.JPG,AFNE01.JPG,AFNE01.JPG,AFNE01.JPG,AFNE01.JPG,4,3,43,1,,,,,,,,,,,,,,,,,,,,,,,AFNE05.jpg,AFSA18.jpg,AFSA01.jpg,AFNE18.jpg,AFNE18.jpg,FN,3,num_4,32,num_2,2.0333736504,,,2017_Jul_31_1159,60.0062935974,FEMA4ImagesEEG,001,201057,
AFNE01.JPG,AFNE01.JPG,AFNE01.JPG,AFNE01.JPG,AFNE01.JPG,AFNE01.JPG,4,4,44,7,,,,,,,,,,,,,,,,,,,,,,,AFSA12.jpg,AFNE01.jpg,AFSA18.jpg,AFNE07.jpg,AFNE01.jpg,FN,3,num_6,16,num_6,1.10013923328,,,2017_Jul_31_1159,60.0062935974,FEMA4ImagesEEG,001,201057,
AFNE01.JPG,AFNE01.JPG,AFNE01.JPG,AFNE01.JPG,AFNE01.JPG,AFNE01.JPG,4,5,45,4,,,,,,,,,,,,,,,,,,,,,,,AFNE04.jpg,AFSA02.jpg,AFSA03.jpg,AFNE12.jpg,AFSA03.jpg,FS,4,num_2,32,num_6,0.783535383642,,,2017_Jul_31_1159,60.0062935974,FEMA4ImagesEEG,001,201057,
AFNE01.JPG,AFNE01.JPG,AFNE01.JPG,AFNE01.JPG,AFNE01.JPG,AFNE01.JPG,4,6,46,5,,,,,,,,,,,,,,,,,,,,,,,AFNE04.jpg,AFSA02.jpg,AFNE02.jpg,AFSA03.jpg,AFNE02.jpg,FN,3,num_2,32,num_8,1.28347684839,,,2017_Jul_31_1159,60.0062935974,FEMA4ImagesEEG,001,201057,
AFNE01.JPG,AFNE01.JPG,AFNE01.JPG,AFNE01.JPG,AFNE01.JPG,AFNE01.JPG,4,7,47,6,,,,,,,,,,,,,,,,,,,,,,,AFNE09.jpg,AFSA03.jpg,AFSA09.jpg,AFNE01.jpg,AFSA09.jpg,FS,4,num_2,32,num_6,1.05015381076,,,2017_Jul_31_1159,60.0062935974,FEMA4ImagesEEG,001,201057,
AFNE01.JPG,AFNE01.JPG,AFNE01.JPG,AFNE01.JPG,AFNE01.JPG,AFNE01.JPG,4,8,48,2,,,,,,,,,,,,,,,,,,,,,,,AFNE12.jpg,AFSA16.jpg,AFNE10.jpg,AFSA04.jpg,AFNE10.jpg,FN,3,num_2,32,num_8,1.0001395219,,,2017_Jul_31_1159,60.0062935974,FEMA4ImagesEEG,001,201057,
AFNE01.JPG,AFNE01.JPG,AFNE01.JPG,AFNE01.JPG,AFNE01.JPG,AFNE01.JPG,4,9,49,9,,,,,,,,,,,,,,,,,,,,,,,AFSA19.jpg,AFSA05.jpg,AFNE11.jpg,AFNE12.jpg,AFSA19.jpg,FS,4,num_8,16,num_8,1.85003475216,,,2017_Jul_31_1159,60.0062935974,FEMA4ImagesEEG,001,201057,
AFNE01.JPG,AFNE01.JPG,AFNE01.JPG,AFNE01.JPG,AFNE01.JPG,AFNE01.JPG,5,0,50,0,,,,,,,,,,,,,,,,,,,,,,,AFSA06.jpg,AFNE15.jpg,AFSA13.jpg,AFNE13.jpg,AFSA13.jpg,FS,4,num_2,16,num_2,0.66678790655,,,2017_Jul_31_1159,60.0062935974,FEMA4ImagesEEG,001,201057,
AFNE01.JPG,AFNE01.JPG,AFNE01.JPG,AFNE01.JPG,AFNE01.JPG,AFNE01.JPG,5,1,51,8,,,,,,,,,,,,,,,,,,,,,,,AFSA20.jpg,AFNE09.jpg,AFNE02.jpg,AFSA13.jpg,AFNE02.jpg,FN,3,num_2,16,num_2,1.4502581798,,,2017_Jul_31_1159,60.0062935974,FEMA4ImagesEEG,001,201057,
AFNE01.JPG,AFNE01.JPG,AFNE01.JPG,AFNE01.JPG,AFNE01.JPG,AFNE01.JPG,5,2,52,4,,,,,,,,,,,,,,,,,,,,,,,AFNE04.jpg,AFNE02.jpg,AFSA03.jpg,AFSA15.jpg,AFSA03.jpg,FS,4,num_2,32,num_4,1.16692181537,,,2017_Jul_31_1159,60.0062935974,FEMA4ImagesEEG,001,201057,
AFNE01.JPG,AFNE01.JPG,AFNE01.JPG,AFNE01.JPG,AFNE01.JPG,AFNE01.JPG,5,3,53,1,,,,,,,,,,,,,,,,,,,,,,,AFSA14.jpg,AFSA18.jpg,AFNE13.jpg,AFNE16.jpg,AFSA14.jpg,FS,4,num_8,16,num_8,2.23340482637,,,2017_Jul_31_1159,60.0062935974,FEMA4ImagesEEG,001,201057,
AFNE01.JPG,AFNE01.JPG,AFNE01.JPG,AFNE01.JPG,AFNE01.JPG,AFNE01.JPG,5,4,54,7,,,,,,,,,,,,,,,,,,,,,,,AFSA03.jpg,AFNE11.jpg,AFSA15.jpg,AFNE02.jpg,AFSA15.jpg,FS,4,num_2,16,num_2,1.35007436364,,,2017_Jul_31_1159,60.0062935974,FEMA4ImagesEEG,001,201057,
AFNE01.JPG,AFNE01.JPG,AFNE01.JPG,AFNE01.JPG,AFNE01.JPG,AFNE01.JPG,5,5,55,6,,,,,,,,,,,,,,,,,,,,,,,AFNE04.jpg,AFSA03.jpg,AFNE01.jpg,AFSA09.jpg,AFSA03.jpg,FS,4,num_6,16,num_6,2.33332274901,,,2017_Jul_31_1159,60.0062935974,FEMA4ImagesEEG,001,201057,
AFNE01.JPG,AFNE01.JPG,AFNE01.JPG,AFNE01.JPG,AFNE01.JPG,AFNE01.JPG,5,6,56,5,,,,,,,,,,,,,,,,,,,,,,,AFNE12.jpg,AFSA08.jpg,AFNE01.jpg,AFSA12.jpg,AFNE01.jpg,FN,3,num_2,16,num_2,1.53344597714,,,2017_Jul_31_1159,60.0062935974,FEMA4ImagesEEG,001,201057,
AFNE01.JPG,AFNE01.JPG,AFNE01.JPG,AFNE01.JPG,AFNE01.JPG,AFNE01.JPG,5,7,57,2,,,,,,,,,,,,,,,,,,,,,,,AFNE06.jpg,AFNE20.jpg,AFSA17.jpg,AFSA09.jpg,AFSA17.jpg,FS,4,num_2,32,num_4,1.13348626229,,,2017_Jul_31_1159,60.0062935974,FEMA4ImagesEEG,001,201057,
AFNE01.JPG,AFNE01.JPG,AFNE01.JPG,AFNE01.JPG,AFNE01.JPG,AFNE01.JPG,5,8,58,3,,,,,,,,,,,,,,,,,,,,,,,AFNE02.jpg,AFNE07.jpg,AFSA18.jpg,AFSA08.jpg,AFNE07.jpg,FN,3,num_6,16,num_6,0.700169896241,,,2017_Jul_31_1159,60.0062935974,FEMA4ImagesEEG,001,201057,
AFNE01.JPG,AFNE01.JPG,AFNE01.JPG,AFNE01.JPG,AFNE01.JPG,AFNE01.JPG,5,9,59,9,,,,,,,,,,,,,,,,,,,,,,,AFSA07.jpg,AFNE15.jpg,AFNE06.jpg,AFSA10.jpg,AFNE06.jpg,FN,3,num_2,32,num_8,1.86665229732,,,2017_Jul_31_1159,60.0062935974,FEMA4ImagesEEG,001,201057,
,,,,,,,,,,,,,,,,,,,,,,,,,,,,,,,,,,,,,,,,,,,space,11.3490396561,2017_Jul_31_1159,60.0062935974,FEMA4ImagesEEG,001,201057,
AFNE01.JPG,AFNE01.JPG,AFNE01.JPG,AFNE01.JPG,AFNE01.JPG,AFNE01.JPG,,,,,0,0,0,2,,,,,,,,,,,,,,,,,,,AMNE11.jpg,AMNE13.jpg,AMSA05.jpg,AMSA01.jpg,AMNE11.jpg,MN,1,num_8,32,num_2,0.933489084709,,,2017_Jul_31_1159,60.0062935974,FEMA4ImagesEEG,001,201057,
AFNE01.JPG,AFNE01.JPG,AFNE01.JPG,AFNE01.JPG,AFNE01.JPG,AFNE01.JPG,,,,,0,1,1,0,,,,,,,,,,,,,,,,,,,AMSA03.jpg,AMNE17.jpg,AMNE12.jpg,AMSA07.jpg,AMSA07.jpg,MS,2,num_4,32,num_8,1.10009400896,,,2017_Jul_31_1159,60.0062935974,FEMA4ImagesEEG,001,201057,
AFNE01.JPG,AFNE01.JPG,AFNE01.JPG,AFNE01.JPG,AFNE01.JPG,AFNE01.JPG,,,,,0,2,2,7,,,,,,,,,,,,,,,,,,,AMSA16.jpg,AMNE04.jpg,AMNE13.jpg,AMSA07.jpg,AMSA16.jpg,MS,2,num_8,16,num_8,0.583467322635,,,2017_Jul_31_1159,60.0062935974,FEMA4ImagesEEG,001,201057,
AFNE01.JPG,AFNE01.JPG,AFNE01.JPG,AFNE01.JPG,AFNE01.JPG,AFNE01.JPG,,,,,0,3,3,1,,,,,,,,,,,,,,,,,,,AMSA18.jpg,AMNE20.jpg,AMSA09.jpg,AMNE17.jpg,AMSA18.jpg,MS,2,num_8,32,num_2,1.00012123981,,,2017_Jul_31_1159,60.0062935974,FEMA4ImagesEEG,001,201057,
AFNE01.JPG,AFNE01.JPG,AFNE01.JPG,AFNE01.JPG,AFNE01.JPG,AFNE01.JPG,,,,,0,4,4,6,,,,,,,,,,,,,,,,,,,AMNE13.jpg,AMSA06.jpg,AMSA11.jpg,AMNE01.jpg,AMSA11.jpg,MS,2,num_2,16,num_2,1.30014763656,,,2017_Jul_31_1159,60.0062935974,FEMA4ImagesEEG,001,201057,
AFNE01.JPG,AFNE01.JPG,AFNE01.JPG,AFNE01.JPG,AFNE01.JPG,AFNE01.JPG,,,,,0,5,5,4,,,,,,,,,,,,,,,,,,,AMSA06.jpg,AMSA11.jpg,AMNE19.jpg,AMNE15.jpg,AMNE19.jpg,MN,1,num_2,32,num_8,1.3834393539,,,2017_Jul_31_1159,60.0062935974,FEMA4ImagesEEG,001,201057,
AFNE01.JPG,AFNE01.JPG,AFNE01.JPG,AFNE01.JPG,AFNE01.JPG,AFNE01.JPG,,,,,0,6,6,9,,,,,,,,,,,,,,,,,,,AMSA07.jpg,AMNE01.jpg,AMNE11.jpg,AMSA08.jpg,AMNE01.jpg,MN,1,num_6,32,num_4,1.3167257309,,,2017_Jul_31_1159,60.0062935974,FEMA4ImagesEEG,001,201057,
AFNE01.JPG,AFNE01.JPG,AFNE01.JPG,AFNE01.JPG,AFNE01.JPG,AFNE01.JPG,,,,,0,7,7,8,,,,,,,,,,,,,,,,,,,AMNE18.jpg,AMNE20.jpg,AMSA10.jpg,AMSA01.jpg,AMNE18.jpg,MN,1,num_8,32,num_2,1.8000618387,,,2017_Jul_31_1159,60.0062935974,FEMA4ImagesEEG,001,201057,
AFNE01.JPG,AFNE01.JPG,AFNE01.JPG,AFNE01.JPG,AFNE01.JPG,AFNE01.JPG,,,,,0,8,8,5,,,,,,,,,,,,,,,,,,,AMNE14.jpg,AMNE04.jpg,AMSA17.jpg,AMSA09.jpg,AMNE04.jpg,MN,1,num_6,32,num_2,2.33334038965,,,2017_Jul_31_1159,60.0062935974,FEMA4ImagesEEG,001,201057,
AFNE01.JPG,AFNE01.JPG,AFNE01.JPG,AFNE01.JPG,AFNE01.JPG,AFNE01.JPG,,,,,0,9,9,3,,,,,,,,,,,,,,,,,,,AMNE11.jpg,AMNE20.jpg,AMSA03.jpg,AMSA06.jpg,AMNE20.jpg,MN,1,num_6,16,num_6,1.20013124682,,,2017_Jul_31_1159,60.0062935974,FEMA4ImagesEEG,001,201057,
AFNE01.JPG,AFNE01.JPG,AFNE01.JPG,AFNE01.JPG,AFNE01.JPG,AFNE01.JPG,,,,,1,0,10,5,,,,,,,,,,,,,,,,,,,AMSA06.jpg,AMSA03.jpg,AMNE16.jpg,AMNE13.jpg,AMNE16.jpg,MN,1,num_2,16,num_2,0.783426331822,,,2017_Jul_31_1159,60.0062935974,FEMA4ImagesEEG,001,201057,
AFNE01.JPG,AFNE01.JPG,AFNE01.JPG,AFNE01.JPG,AFNE01.JPG,AFNE01.JPG,,,,,1,1,11,8,,,,,,,,,,,,,,,,,,,AMNE11.jpg,AMNE09.jpg,AMSA18.jpg,AMSA02.jpg,AMNE11.jpg,MN,1,num_8,32,num_6,1.13340479415,,,2017_Jul_31_1159,60.0062935974,FEMA4ImagesEEG,001,201057,
AFNE01.JPG,AFNE01.JPG,AFNE01.JPG,AFNE01.JPG,AFNE01.JPG,AFNE01.JPG,,,,,1,2,12,0,,,,,,,,,,,,,,,,,,,AMNE09.jpg,AMSA09.jpg,AMSA06.jpg,AMNE18.jpg,AMSA09.jpg,MS,2,num_6,16,num_6,1.16677202983,,,2017_Jul_31_1159,60.0062935974,FEMA4ImagesEEG,001,201057,
AFNE01.JPG,AFNE01.JPG,AFNE01.JPG,AFNE01.JPG,AFNE01.JPG,AFNE01.JPG,,,,,1,3,13,2,,,,,,,,,,,,,,,,,,,AMNE02.jpg,AMSA17.jpg,AMSA10.jpg,AMNE14.jpg,AMNE02.jpg,MN,1,num_8,16,num_8,3.66651303205,,,2017_Jul_31_1159,60.0062935974,FEMA4ImagesEEG,001,201057,
AFNE01.JPG,AFNE01.JPG,AFNE01.JPG,AFNE01.JPG,AFNE01.JPG,AFNE01.JPG,,,,,1,4,14,6,,,,,,,,,,,,,,,,,,,AMSA02.jpg,AMNE15.jpg,AMSA20.jpg,AMNE02.jpg,AMNE02.jpg,MN,1,num_4,32,num_8,1.03341278061,,,2017_Jul_31_1159,60.0062935974,FEMA4ImagesEEG,001,201057,
AFNE01.JPG,AFNE01.JPG,AFNE01.JPG,AFNE01.JPG,AFNE01.JPG,AFNE01.JPG,,,,,1,5,15,3,,,,,,,,,,,,,,,,,,,AMNE07.jpg,AMSA10.jpg,AMNE02.jpg,AMSA14.jpg,AMNE07.jpg,MN,1,num_8,32,num_4,1.93337810854,,,2017_Jul_31_1159,60.0062935974,FEMA4ImagesEEG,001,201057,
AFNE01.JPG,AFNE01.JPG,AFNE01.JPG,AFNE01.JPG,AFNE01.JPG,AFNE01.JPG,,,,,1,6,16,7,,,,,,,,,,,,,,,,,,,AMSA07.jpg,AMSA18.jpg,AMNE07.jpg,AMNE02.jpg,AMNE02.jpg,MN,1,num_4,32,num_6,2.01666854299,,,2017_Jul_31_1159,60.0062935974,FEMA4ImagesEEG,001,201057,
AFNE01.JPG,AFNE01.JPG,AFNE01.JPG,AFNE01.JPG,AFNE01.JPG,AFNE01.JPG,,,,,1,7,17,4,,,,,,,,,,,,,,,,,,,AMNE04.jpg,AMSA17.jpg,AMNE05.jpg,AMSA16.jpg,AMNE04.jpg,MN,1,num_8,16,num_8,0.750154676847,,,2017_Jul_31_1159,60.0062935974,FEMA4ImagesEEG,001,201057,
AFNE01.JPG,AFNE01.JPG,AFNE01.JPG,AFNE01.JPG,AFNE01.JPG,AFNE01.JPG,,,,,1,8,18,9,,,,,,,,,,,,,,,,,,,AMSA08.jpg,AMNE07.jpg,AMSA19.jpg,AMNE04.jpg,AMNE07.jpg,MN,1,num_6,16,num_6,1.11675645784,,,2017_Jul_31_1159,60.0062935974,FEMA4ImagesEEG,001,201057,
AFNE01.JPG,AFNE01.JPG,AFNE01.JPG,AFNE01.JPG,AFNE01.JPG,AFNE01.JPG,,,,,1,9,19,1,,,,,,,,,,,,,,,,,,,AMNE08.jpg,AMNE02.jpg,AMSA16.jpg,AMSA02.jpg,AMSA02.jpg,MS,2,num_4,16,num_4,1.23344042851,,,2017_Jul_31_1159,60.0062935974,FEMA4ImagesEEG,001,201057,
AFNE01.JPG,AFNE01.JPG,AFNE01.JPG,AFNE01.JPG,AFNE01.JPG,AFNE01.JPG,,,,,2,0,20,1,,,,,,,,,,,,,,,,,,,AMNE07.jpg,AMNE14.jpg,AMSA07.jpg,AMSA10.jpg,AMNE07.jpg,MN,1,num_8,32,num_2,3.55021042144,,,2017_Jul_31_1159,60.0062935974,FEMA4ImagesEEG,001,201057,
AFNE01.JPG,AFNE01.JPG,AFNE01.JPG,AFNE01.JPG,AFNE01.JPG,AFNE01.JPG,,,,,2,1,21,6,,,,,,,,,,,,,,,,,,,AMNE04.jpg,AMNE18.jpg,AMSA04.jpg,AMSA03.jpg,AMNE18.jpg,MN,1,num_6,32,num_8,1.86669014487,,,2017_Jul_31_1159,60.0062935974,FEMA4ImagesEEG,001,201057,
AFNE01.JPG,AFNE01.JPG,AFNE01.JPG,AFNE01.JPG,AFNE01.JPG,AFNE01.JPG,,,,,2,2,22,8,,,,,,,,,,,,,,,,,,,AMNE04.jpg,AMNE19.jpg,AMSA18.jpg,AMSA08.jpg,AMSA08.jpg,MS,2,num_4,32,num_8,0.833485203795,,,2017_Jul_31_1159,60.0062935974,FEMA4ImagesEEG,001,201057,
AFNE01.JPG,AFNE01.JPG,AFNE01.JPG,AFNE01.JPG,AFNE01.JPG,AFNE01.JPG,,,,,2,3,23,4,,,,,,,,,,,,,,,,,,,AMSA17.jpg,AMNE05.jpg,AMSA03.jpg,AMNE17.jpg,AMNE05.jpg,MN,1,num_6,16,num_6,1.05010185088,,,2017_Jul_31_1159,60.0062935974,FEMA4ImagesEEG,001,201057,
AFNE01.JPG,AFNE01.JPG,AFNE01.JPG,AFNE01.JPG,AFNE01.JPG,AFNE01.JPG,,,,,2,4,24,5,,,,,,,,,,,,,,,,,,,AMNE16.jpg,AMSA11.jpg,AMSA13.jpg,AMNE01.jpg,AMSA13.jpg,MS,2,num_2,16,num_2,1.2667499308,,,2017_Jul_31_1159,60.0062935974,FEMA4ImagesEEG,001,201057,
AFNE01.JPG,AFNE01.JPG,AFNE01.JPG,AFNE01.JPG,AFNE01.JPG,AFNE01.JPG,,,,,2,5,25,3,,,,,,,,,,,,,,,,,,,AMNE05.jpg,AMSA03.jpg,AMSA11.jpg,AMNE01.jpg,AMNE05.jpg,MN,1,num_8,16,num_8,0.683476655977,,,2017_Jul_31_1159,60.0062935974,FEMA4ImagesEEG,001,201057,
AFNE01.JPG,AFNE01.JPG,AFNE01.JPG,AFNE01.JPG,AFNE01.JPG,AFNE01.JPG,,,,,2,6,26,7,,,,,,,,,,,,,,,,,,,AMSA20.jpg,AMNE17.jpg,AMNE12.jpg,AMSA16.jpg,AMSA16.jpg,MS,2,num_4,16,num_4,1.73342262744,,,2017_Jul_31_1159,60.0062935974,FEMA4ImagesEEG,001,201057,
AFNE01.JPG,AFNE01.JPG,AFNE01.JPG,AFNE01.JPG,AFNE01.JPG,AFNE01.JPG,,,,,2,7,27,9,,,,,,,,,,,,,,,,,,,AMSA20.jpg,AMNE07.jpg,AMSA19.jpg,AMNE09.jpg,AMNE09.jpg,MN,1,num_4,32,num_6,1.31672188197,,,2017_Jul_31_1159,60.0062935974,FEMA4ImagesEEG,001,201057,
AFNE01.JPG,AFNE01.JPG,AFNE01.JPG,AFNE01.JPG,AFNE01.JPG,AFNE01.JPG,,,,,2,8,28,2,,,,,,,,,,,,,,,,,,,AMNE18.jpg,AMSA08.jpg,AMNE06.jpg,AMSA13.jpg,AMNE18.jpg,MN,1,num_8,32,num_2,0.900087209418,,,2017_Jul_31_1159,60.0062935974,FEMA4ImagesEEG,001,201057,
AFNE01.JPG,AFNE01.JPG,AFNE01.JPG,AFNE01.JPG,AFNE01.JPG,AFNE01.JPG,,,,,2,9,29,0,,,,,,,,,,,,,,,,,,,AMNE06.jpg,AMSA17.jpg,AMNE03.jpg,AMSA06.jpg,AMNE03.jpg,MN,1,num_2,16,num_2,0.983424792299,,,2017_Jul_31_1159,60.0062935974,FEMA4ImagesEEG,001,201057,
AFNE01.JPG,AFNE01.JPG,AFNE01.JPG,AFNE01.JPG,AFNE01.JPG,AFNE01.JPG,,,,,3,0,30,0,,,,,,,,,,,,,,,,,,,AMSA10.jpg,AMNE02.jpg,AMSA17.jpg,AMNE04.jpg,AMNE04.jpg,MN,1,num_4,16,num_4,0.616678357823,,,2017_Jul_31_1159,60.0062935974,FEMA4ImagesEEG,001,201057,
AFNE01.JPG,AFNE01.JPG,AFNE01.JPG,AFNE01.JPG,AFNE01.JPG,AFNE01.JPG,,,,,3,1,31,9,,,,,,,,,,,,,,,,,,,AMSA14.jpg,AMNE04.jpg,AMSA01.jpg,AMNE02.jpg,AMSA01.jpg,MS,2,num_2,32,num_8,1.81669381727,,,2017_Jul_31_1159,60.0062935974,FEMA4ImagesEEG,001,201057,
AFNE01.JPG,AFNE01.JPG,AFNE01.JPG,AFNE01.JPG,AFNE01.JPG,AFNE01.JPG,,,,,3,2,32,1,,,,,,,,,,,,,,,,,,,AMSA03.jpg,AMNE12.jpg,AMNE10.jpg,AMSA18.jpg,AMNE12.jpg,MN,1,num_6,16,num_6,0.833516636398,,,2017_Jul_31_1159,60.0062935974,FEMA4ImagesEEG,001,201057,
AFNE01.JPG,AFNE01.JPG,AFNE01.JPG,AFNE01.JPG,AFNE01.JPG,AFNE01.JPG,,,,,3,3,33,4,,,,,,,,,,,,,,,,,,,AMSA06.jpg,AMNE11.jpg,AMNE04.jpg,AMSA12.jpg,AMNE04.jpg,MN,1,num_2,16,num_2,1.20008153212,,,2017_Jul_31_1159,60.0062935974,FEMA4ImagesEEG,001,201057,
AFNE01.JPG,AFNE01.JPG,AFNE01.JPG,AFNE01.JPG,AFNE01.JPG,AFNE01.JPG,,,,,3,4,34,8,,,,,,,,,,,,,,,,,,,AMNE18.jpg,AMNE04.jpg,AMSA15.jpg,AMSA18.jpg,AMSA18.jpg,MS,2,num_4,32,num_8,1.43340007938,,,2017_Jul_31_1159,60.0062935974,FEMA4ImagesEEG,001,201057,
AFNE01.JPG,AFNE01.JPG,AFNE01.JPG,AFNE01.JPG,AFNE01.JPG,AFNE01.JPG,,,,,3,5,35,2,,,,,,,,,,,,,,,,,,,AMNE13.jpg,AMSA11.jpg,AMSA18.jpg,AMNE04.jpg,AMNE04.jpg,MN,1,num_4,16,num_4,2.40000910917,,,2017_Jul_31_1159,60.0062935974,FEMA4ImagesEEG,001,201057,
AFNE01.JPG,AFNE01.JPG,AFNE01.JPG,AFNE01.JPG,AFNE01.JPG,AFNE01.JPG,,,,,3,6,36,6,,,,,,,,,,,,,,,,,,,AMSA19.jpg,AMSA17.jpg,AMNE15.jpg,AMNE04.jpg,AMSA19.jpg,MS,2,num_8,32,num_6,1.1835194747,,,2017_Jul_31_1159,60.0062935974,FEMA4ImagesEEG,001,201057,
AFNE01.JPG,AFNE01.JPG,AFNE01.JPG,AFNE01.JPG,AFNE01.JPG,AFNE01.JPG,,,,,3,7,37,5,,,,,,,,,,,,,,,,,,,AMSA16.jpg,AMSA18.jpg,AMNE03.jpg,AMNE05.jpg,AMSA16.jpg,MS,2,num_8,32,num_4,1.03341566725,,,2017_Jul_31_1159,60.0062935974,FEMA4ImagesEEG,001,201057,
AFNE01.JPG,AFNE01.JPG,AFNE01.JPG,AFNE01.JPG,AFNE01.JPG,AFNE01.JPG,,,,,3,8,38,3,,,,,,,,,,,,,,,,,,,AMSA17.jpg,AMSA06.jpg,AMNE15.jpg,AMNE12.jpg,AMNE15.jpg,MN,1,num_2,32,num_8,0.849789386149,,,2017_Jul_31_1159,60.0062935974,FEMA4ImagesEEG,001,201057,
AFNE01.JPG,AFNE01.JPG,AFNE01.JPG,AFNE01.JPG,AFNE01.JPG,AFNE01.JPG,,,,,3,9,39,7,,,,,,,,,,,,,,,,,,,AMSA19.jpg,AMNE19.jpg,AMSA01.jpg,AMNE01.jpg,AMSA01.jpg,MS,2,num_2,32,num_8,1.16677940683,,,2017_Jul_31_1159,60.0062935974,FEMA4ImagesEEG,001,201057,
AFNE01.JPG,AFNE01.JPG,AFNE01.JPG,AFNE01.JPG,AFNE01.JPG,AFNE01.JPG,,,,,4,0,40,6,,,,,,,,,,,,,,,,,,,AMSA09.jpg,AMNE16.jpg,AMNE05.jpg,AMSA06.jpg,AMSA06.jpg,MS,2,num_4,32,num_8,1.03340861085,,,2017_Jul_31_1159,60.0062935974,FEMA4ImagesEEG,001,201057,
AFNE01.JPG,AFNE01.JPG,AFNE01.JPG,AFNE01.JPG,AFNE01.JPG,AFNE01.JPG,,,,,4,1,41,4,,,,,,,,,,,,,,,,,,,AMNE17.jpg,AMSA03.jpg,AMSA02.jpg,AMNE12.jpg,AMSA02.jpg,MS,2,num_2,48,None,,,,2017_Jul_31_1159,60.0062935974,FEMA4ImagesEEG,001,201057,
AFNE01.JPG,AFNE01.JPG,AFNE01.JPG,AFNE01.JPG,AFNE01.JPG,AFNE01.JPG,,,,,4,2,42,9,,,,,,,,,,,,,,,,,,,AMSA16.jpg,AMNE14.jpg,AMSA13.jpg,AMNE01.jpg,AMSA16.jpg,MS,2,num_8,16,num_8,0.933471123222,,,2017_Jul_31_1159,60.0062935974,FEMA4ImagesEEG,001,201057,
AFNE01.JPG,AFNE01.JPG,AFNE01.JPG,AFNE01.JPG,AFNE01.JPG,AFNE01.JPG,,,,,4,3,43,7,,,,,,,,,,,,,,,,,,,AMNE01.jpg,AMSA04.jpg,AMNE13.jpg,AMSA20.jpg,AMSA20.jpg,MS,2,num_4,32,num_2,0.866768084699,,,2017_Jul_31_1159,60.0062935974,FEMA4ImagesEEG,001,201057,
AFNE01.JPG,AFNE01.JPG,AFNE01.JPG,AFNE01.JPG,AFNE01.JPG,AFNE01.JPG,,,,,4,4,44,8,,,,,,,,,,,,,,,,,,,AMSA11.jpg,AMNE17.jpg,AMNE16.jpg,AMSA01.jpg,AMNE16.jpg,MN,1,num_2,32,num_8,0.950115290005,,,2017_Jul_31_1159,60.0062935974,FEMA4ImagesEEG,001,201057,
AFNE01.JPG,AFNE01.JPG,AFNE01.JPG,AFNE01.JPG,AFNE01.JPG,AFNE01.JPG,,,,,4,5,45,2,,,,,,,,,,,,,,,,,,,AMSA10.jpg,AMNE15.jpg,AMNE01.jpg,AMSA13.jpg,AMNE01.jpg,MN,1,num_2,32,num_4,0.783429539297,,,2017_Jul_31_1159,60.0062935974,FEMA4ImagesEEG,001,201057,
AFNE01.JPG,AFNE01.JPG,AFNE01.JPG,AFNE01.JPG,AFNE01.JPG,AFNE01.JPG,,,,,4,6,46,1,,,,,,,,,,,,,,,,,,,AMSA19.jpg,AMNE11.jpg,AMNE18.jpg,AMSA11.jpg,AMNE11.jpg,MN,1,num_6,32,num_2,1.68336728355,,,2017_Jul_31_1159,60.0062935974,FEMA4ImagesEEG,001,201057,
AFNE01.JPG,AFNE01.JPG,AFNE01.JPG,AFNE01.JPG,AFNE01.JPG,AFNE01.JPG,,,,,4,7,47,0,,,,,,,,,,,,,,,,,,,AMSA11.jpg,AMNE02.jpg,AMNE19.jpg,AMSA18.jpg,AMNE19.jpg,MN,1,num_2,16,num_2,1.15011471277,,,2017_Jul_31_1159,60.0062935974,FEMA4ImagesEEG,001,201057,
AFNE01.JPG,AFNE01.JPG,AFNE01.JPG,AFNE01.JPG,AFNE01.JPG,AFNE01.JPG,,,,,4,8,48,3,,,,,,,,,,,,,,,,,,,AMSA05.jpg,AMSA20.jpg,AMNE20.jpg,AMNE16.jpg,AMNE16.jpg,MN,1,num_4,16,num_4,0.650114872959,,,2017_Jul_31_1159,60.0062935974,FEMA4ImagesEEG,001,201057,
AFNE01.JPG,AFNE01.JPG,AFNE01.JPG,AFNE01.JPG,AFNE01.JPG,AFNE01.JPG,,,,,4,9,49,5,,,,,,,,,,,,,,,,,,,AMSA14.jpg,AMNE10.jpg,AMNE01.jpg,AMSA07.jpg,AMSA07.jpg,MS,2,num_4,16,num_4,1.49990586261,,,2017_Jul_31_1159,60.0062935974,FEMA4ImagesEEG,001,201057,
AFNE01.JPG,AFNE01.JPG,AFNE01.JPG,AFNE01.JPG,AFNE01.JPG,AFNE01.JPG,,,,,5,0,50,2,,,,,,,,,,,,,,,,,,,AMSA19.jpg,AMNE15.jpg,AMSA04.jpg,AMNE16.jpg,AMNE15.jpg,MN,1,num_6,16,num_6,0.766762279207,,,2017_Jul_31_1159,60.0062935974,FEMA4ImagesEEG,001,201057,
AFNE01.JPG,AFNE01.JPG,AFNE01.JPG,AFNE01.JPG,AFNE01.JPG,AFNE01.JPG,,,,,5,1,51,7,,,,,,,,,,,,,,,,,,,AMSA02.jpg,AMNE20.jpg,AMSA09.jpg,AMNE09.jpg,AMNE20.jpg,MN,1,num_6,16,num_6,0.55012959498,,,2017_Jul_31_1159,60.0062935974,FEMA4ImagesEEG,001,201057,
AFNE01.JPG,AFNE01.JPG,AFNE01.JPG,AFNE01.JPG,AFNE01.JPG,AFNE01.JPG,,,,,5,2,52,3,,,,,,,,,,,,,,,,,,,AMNE19.jpg,AMSA10.jpg,AMSA04.jpg,AMNE14.jpg,AMNE14.jpg,MN,1,num_4,16,num_4,0.550143707776,,,2017_Jul_31_1159,60.0062935974,FEMA4ImagesEEG,001,201057,
AFNE01.JPG,AFNE01.JPG,AFNE01.JPG,AFNE01.JPG,AFNE01.JPG,AFNE01.JPG,,,,,5,3,53,0,,,,,,,,,,,,,,,,,,,AMSA13.jpg,AMNE10.jpg,AMSA20.jpg,AMNE01.jpg,AMSA13.jpg,MS,2,num_8,32,num_4,1.53340299823,,,2017_Jul_31_1159,60.0062935974,FEMA4ImagesEEG,001,201057,
AFNE01.JPG,AFNE01.JPG,AFNE01.JPG,AFNE01.JPG,AFNE01.JPG,AFNE01.JPG,,,,,5,4,54,9,,,,,,,,,,,,,,,,,,,AMNE13.jpg,AMSA09.jpg,AMNE09.jpg,AMSA02.jpg,AMSA09.jpg,MS,2,num_6,32,num_8,0.950118818088,,,2017_Jul_31_1159,60.0062935974,FEMA4ImagesEEG,001,201057,
AFNE01.JPG,AFNE01.JPG,AFNE01.JPG,AFNE01.JPG,AFNE01.JPG,AFNE01.JPG,,,,,5,5,55,6,,,,,,,,,,,,,,,,,,,AMNE15.jpg,AMSA14.jpg,AMSA06.jpg,AMNE19.jpg,AMSA06.jpg,MS,2,num_2,16,num_2,0.900077266386,,,2017_Jul_31_1159,60.0062935974,FEMA4ImagesEEG,001,201057,
AFNE01.JPG,AFNE01.JPG,AFNE01.JPG,AFNE01.JPG,AFNE01.JPG,AFNE01.JPG,,,,,5,6,56,1,,,,,,,,,,,,,,,,,,,AMSA07.jpg,AMSA08.jpg,AMNE16.jpg,AMNE08.jpg,AMNE08.jpg,MN,1,num_4,16,num_4,0.733438664582,,,2017_Jul_31_1159,60.0062935974,FEMA4ImagesEEG,001,201057,
AFNE01.JPG,AFNE01.JPG,AFNE01.JPG,AFNE01.JPG,AFNE01.JPG,AFNE01.JPG,,,,,5,7,57,8,,,,,,,,,,,,,,,,,,,AMSA08.jpg,AMNE18.jpg,AMNE06.jpg,AMSA06.jpg,AMSA06.jpg,MS,2,num_4,32,num_6,0.816775285406,,,2017_Jul_31_1159,60.0062935974,FEMA4ImagesEEG,001,201057,
AFNE01.JPG,AFNE01.JPG,AFNE01.JPG,AFNE01.JPG,AFNE01.JPG,AFNE01.JPG,,,,,5,8,58,4,,,,,,,,,,,,,,,,,,,AMSA17.jpg,AMNE19.jpg,AMSA10.jpg,AMNE08.jpg,AMSA10.jpg,MS,2,num_2,16,num_2,1.24997490225,,,2017_Jul_31_1159,60.0062935974,FEMA4ImagesEEG,001,201057,
AFNE01.JPG,AFNE01.JPG,AFNE01.JPG,AFNE01.JPG,AFNE01.JPG,AFNE01.JPG,,,,,5,9,59,5,,,,,,,,,,,,,,,,,,,AMNE12.jpg,AMSA08.jpg,AMSA20.jpg,AMNE02.jpg,AMNE12.jpg,MN,1,num_8,16,num_8,0.583508698037,,,2017_Jul_31_1159,60.0062935974,FEMA4ImagesEEG,001,201057,
,,,,,,,,,,,,,,,,,,,,,,,,,,,,,,,,,,,,,,,,,,,space,6.73274490354,2017_Jul_31_1159,60.0062935974,FEMA4ImagesEEG,001,201057,
AFNE01.JPG,AFNE01.JPG,AFNE01.JPG,AFNE01.JPG,AFNE01.JPG,AFNE01.JPG,,,,,,,,,0,0,0,8,,,,,,,,,,,,,,,AFNE05.jpg,AFNE02.jpg,AFSA10.jpg,AFSA07.jpg,AFSA10.jpg,FS,4,num_2,16,num_2,1.06675788504,,,2017_Jul_31_1159,60.0062935974,FEMA4ImagesEEG,001,201057,
AFNE01.JPG,AFNE01.JPG,AFNE01.JPG,AFNE01.JPG,AFNE01.JPG,AFNE01.JPG,,,,,,,,,0,1,1,9,,,,,,,,,,,,,,,AFSA15.jpg,AFNE11.jpg,AFSA08.jpg,AFNE08.jpg,AFSA15.jpg,FS,4,num_8,32,num_2,1.56700277026,,,2017_Jul_31_1159,60.0062935974,FEMA4ImagesEEG,001,201057,
AFNE01.JPG,AFNE01.JPG,AFNE01.JPG,AFNE01.JPG,AFNE01.JPG,AFNE01.JPG,,,,,,,,,0,2,2,5,,,,,,,,,,,,,,,AFSA03.jpg,AFNE04.jpg,AFNE15.jpg,AFSA10.jpg,AFSA10.jpg,FS,4,num_4,16,num_4,1.08346395474,,,2017_Jul_31_1159,60.0062935974,FEMA4ImagesEEG,001,201057,
AFNE01.JPG,AFNE01.JPG,AFNE01.JPG,AFNE01.JPG,AFNE01.JPG,AFNE01.JPG,,,,,,,,,0,3,3,1,,,,,,,,,,,,,,,AFSA05.jpg,AFNE13.jpg,AFSA04.jpg,AFNE06.jpg,AFNE13.jpg,FN,3,num_6,16,num_6,1.06676814891,,,2017_Jul_31_1159,60.0062935974,FEMA4ImagesEEG,001,201057,
AFNE01.JPG,AFNE01.JPG,AFNE01.JPG,AFNE01.JPG,AFNE01.JPG,AFNE01.JPG,,,,,,,,,0,4,4,4,,,,,,,,,,,,,,,AFNE16.jpg,AFNE12.jpg,AFSA06.jpg,AFSA14.jpg,AFNE16.jpg,FN,3,num_8,16,num_8,1.13393080817,,,2017_Jul_31_1159,60.0062935974,FEMA4ImagesEEG,001,201057,
AFNE01.JPG,AFNE01.JPG,AFNE01.JPG,AFNE01.JPG,AFNE01.JPG,AFNE01.JPG,,,,,,,,,0,5,5,2,,,,,,,,,,,,,,,AFSA09.jpg,AFNE05.jpg,AFNE09.jpg,AFSA03.jpg,AFSA03.jpg,FS,4,num_4,16,num_4,1.43342702161,,,2017_Jul_31_1159,60.0062935974,FEMA4ImagesEEG,001,201057,
AFNE01.JPG,AFNE01.JPG,AFNE01.JPG,AFNE01.JPG,AFNE01.JPG,AFNE01.JPG,,,,,,,,,0,6,6,6,,,,,,,,,,,,,,,AFNE04.jpg,AFNE18.jpg,AFSA13.jpg,AFSA17.jpg,AFSA13.jpg,FS,4,num_2,16,num_2,1.41671517864,,,2017_Jul_31_1159,60.0062935974,FEMA4ImagesEEG,001,201057,
AFNE01.JPG,AFNE01.JPG,AFNE01.JPG,AFNE01.JPG,AFNE01.JPG,AFNE01.JPG,,,,,,,,,0,7,7,3,,,,,,,,,,,,,,,AFNE16.jpg,AFSA11.jpg,AFSA03.jpg,AFNE10.jpg,AFNE16.jpg,FN,3,num_8,32,num_6,1.81656969083,,,2017_Jul_31_1159,60.0062935974,FEMA4ImagesEEG,001,201057,
AFNE01.JPG,AFNE01.JPG,AFNE01.JPG,AFNE01.JPG,AFNE01.JPG,AFNE01.JPG,,,,,,,,,0,8,8,7,,,,,,,,,,,,,,,AFNE13.jpg,AFNE09.jpg,AFSA04.jpg,AFSA12.jpg,AFNE13.jpg,FN,3,num_8,16,num_8,1.60003290791,,,2017_Jul_31_1159,60.0062935974,FEMA4ImagesEEG,001,201057,
AFNE01.JPG,AFNE01.JPG,AFNE01.JPG,AFNE01.JPG,AFNE01.JPG,AFNE01.JPG,,,,,,,,,0,9,9,0,,,,,,,,,,,,,,,AFSA16.jpg,AFSA05.jpg,AFNE17.jpg,AFNE12.jpg,AFNE12.jpg,FN,3,num_4,16,num_4,0.58345288923,,,2017_Jul_31_1159,60.0062935974,FEMA4ImagesEEG,001,201057,
AFNE01.JPG,AFNE01.JPG,AFNE01.JPG,AFNE01.JPG,AFNE01.JPG,AFNE01.JPG,,,,,,,,,1,0,10,1,,,,,,,,,,,,,,,AFSA10.jpg,AFSA07.jpg,AFNE19.jpg,AFNE12.jpg,AFSA10.jpg,FS,4,num_8,32,num_6,1.23347635148,,,2017_Jul_31_1159,60.0062935974,FEMA4ImagesEEG,001,201057,
AFNE01.JPG,AFNE01.JPG,AFNE01.JPG,AFNE01.JPG,AFNE01.JPG,AFNE01.JPG,,,,,,,,,1,1,11,8,,,,,,,,,,,,,,,AFNE12.jpg,AFSA07.jpg,AFNE13.jpg,AFSA03.jpg,AFNE12.jpg,FN,3,num_8,16,num_8,0.683518031612,,,2017_Jul_31_1159,60.0062935974,FEMA4ImagesEEG,001,201057,
AFNE01.JPG,AFNE01.JPG,AFNE01.JPG,AFNE01.JPG,AFNE01.JPG,AFNE01.JPG,,,,,,,,,1,2,12,6,,,,,,,,,,,,,,,AFNE15.jpg,AFSA07.jpg,AFNE12.jpg,AFSA10.jpg,AFNE12.jpg,FN,3,num_2,16,num_2,1.11670770543,,,2017_Jul_31_1159,60.0062935974,FEMA4ImagesEEG,001,201057,
AFNE01.JPG,AFNE01.JPG,AFNE01.JPG,AFNE01.JPG,AFNE01.JPG,AFNE01.JPG,,,,,,,,,1,3,13,0,,,,,,,,,,,,,,,AFNE17.jpg,AFSA15.jpg,AFSA09.jpg,AFNE07.jpg,AFSA09.jpg,FS,4,num_2,16,num_2,0.650103647262,,,2017_Jul_31_1159,60.0062935974,FEMA4ImagesEEG,001,201057,
AFNE01.JPG,AFNE01.JPG,AFNE01.JPG,AFNE01.JPG,AFNE01.JPG,AFNE01.JPG,,,,,,,,,1,4,14,2,,,,,,,,,,,,,,,AFNE02.jpg,AFNE04.jpg,AFSA15.jpg,AFSA06.jpg,AFSA15.jpg,FS,4,num_2,16,num_2,0.800084932009,,,2017_Jul_31_1159,60.0062935974,FEMA4ImagesEEG,001,201057,
AFNE01.JPG,AFNE01.JPG,AFNE01.JPG,AFNE01.JPG,AFNE01.JPG,AFNE01.JPG,,,,,,,,,1,5,15,5,,,,,,,,,,,,,,,AFSA09.jpg,AFNE17.jpg,AFSA17.jpg,AFNE14.jpg,AFSA09.jpg,FS,4,num_8,32,num_2,1.16670274991,,,2017_Jul_31_1159,60.0062935974,FEMA4ImagesEEG,001,201057,
AFNE01.JPG,AFNE01.JPG,AFNE01.JPG,AFNE01.JPG,AFNE01.JPG,AFNE01.JPG,,,,,,,,,1,6,16,9,,,,,,,,,,,,,,,AFNE11.jpg,AFSA07.jpg,AFNE02.jpg,AFSA13.jpg,AFNE02.jpg,FN,3,num_2,32,num_8,1.36674867989,,,2017_Jul_31_1159,60.0062935974,FEMA4ImagesEEG,001,201057,
AFNE01.JPG,AFNE01.JPG,AFNE01.JPG,AFNE01.JPG,AFNE01.JPG,AFNE01.JPG,,,,,,,,,1,7,17,7,,,,,,,,,,,,,,,AFNE04.jpg,AFNE17.jpg,AFSA01.jpg,AFSA18.jpg,AFNE17.jpg,FN,3,num_6,16,num_6,1.21672249143,,,2017_Jul_31_1159,60.0062935974,FEMA4ImagesEEG,001,201057,
AFNE01.JPG,AFNE01.JPG,AFNE01.JPG,AFNE01.JPG,AFNE01.JPG,AFNE01.JPG,,,,,,,,,1,8,18,4,,,,,,,,,,,,,,,AFNE05.jpg,AFNE13.jpg,AFSA11.jpg,AFSA20.jpg,AFNE05.jpg,FN,3,num_8,32,num_6,0.666838583304,,,2017_Jul_31_1159,60.0062935974,FEMA4ImagesEEG,001,201057,
AFNE01.JPG,AFNE01.JPG,AFNE01.JPG,AFNE01.JPG,AFNE01.JPG,AFNE01.JPG,,,,,,,,,1,9,19,3,,,,,,,,,,,,,,,AFNE18.jpg,AFSA12.jpg,AFSA01.jpg,AFNE03.jpg,AFNE18.jpg,FN,3,num_8,32,num_4,1.31677127606,,,2017_Jul_31_1159,60.0062935974,FEMA4ImagesEEG,001,201057,
AFNE01.JPG,AFNE01.JPG,AFNE01.JPG,AFNE01.JPG,AFNE01.JPG,AFNE01.JPG,,,,,,,,,2,0,20,1,,,,,,,,,,,,,,,AFSA08.jpg,AFNE19.jpg,AFNE05.jpg,AFSA13.jpg,AFNE19.jpg,FN,3,num_6,32,num_8,1.05006785248,,,2017_Jul_31_1159,60.0062935974,FEMA4ImagesEEG,001,201057,
AFNE01.JPG,AFNE01.JPG,AFNE01.JPG,AFNE01.JPG,AFNE01.JPG,AFNE01.JPG,,,,,,,,,2,1,21,5,,,,,,,,,,,,,,,AFSA08.jpg,AFSA05.jpg,AFNE03.jpg,AFNE12.jpg,AFNE03.jpg,FN,3,num_2,32,num_8,0.850133860949,,,2017_Jul_31_1159,60.0062935974,FEMA4ImagesEEG,001,201057,
AFNE01.JPG,AFNE01.JPG,AFNE01.JPG,AFNE01.JPG,AFNE01.JPG,AFNE01.JPG,,,,,,,,,2,2,22,9,,,,,,,,,,,,,,,AFNE07.jpg,AFSA02.jpg,AFNE19.jpg,AFSA09.jpg,AFSA09.jpg,FS,4,num_4,32,num_2,1.53340396029,,,2017_Jul_31_1159,60.0062935974,FEMA4ImagesEEG,001,201057,
AFNE01.JPG,AFNE01.JPG,AFNE01.JPG,AFNE01.JPG,AFNE01.JPG,AFNE01.JPG,,,,,,,,,2,3,23,7,,,,,,,,,,,,,,,AFSA20.jpg,AFNE20.jpg,AFSA19.jpg,AFNE03.jpg,AFNE03.jpg,FN,3,num_4,16,num_4,0.766797881573,,,2017_Jul_31_1159,60.0062935974,FEMA4ImagesEEG,001,201057,
AFNE01.JPG,AFNE01.JPG,AFNE01.JPG,AFNE01.JPG,AFNE01.JPG,AFNE01.JPG,,,,,,,,,2,4,24,2,,,,,,,,,,,,,,,AFSA12.jpg,AFNE17.jpg,AFNE06.jpg,AFSA07.jpg,AFNE06.jpg,FN,3,num_2,16,num_2,1.01676540659,,,2017_Jul_31_1159,60.0062935974,FEMA4ImagesEEG,001,201057,
AFNE01.JPG,AFNE01.JPG,AFNE01.JPG,AFNE01.JPG,AFNE01.JPG,AFNE01.JPG,,,,,,,,,2,5,25,4,,,,,,,,,,,,,,,AFNE10.jpg,AFNE20.jpg,AFSA07.jpg,AFSA10.jpg,AFNE10.jpg,FN,3,num_8,32,num_4,0.816828528186,,,2017_Jul_31_1159,60.0062935974,FEMA4ImagesEEG,001,201057,
AFNE01.JPG,AFNE01.JPG,AFNE01.JPG,AFNE01.JPG,AFNE01.JPG,AFNE01.JPG,,,,,,,,,2,6,26,3,,,,,,,,,,,,,,,AFNE09.jpg,AFSA16.jpg,AFSA03.jpg,AFNE08.jpg,AFSA16.jpg,FS,4,num_6,32,num_2,1.01674135099,,,2017_Jul_31_1159,60.0062935974,FEMA4ImagesEEG,001,201057,
AFNE01.JPG,AFNE01.JPG,AFNE01.JPG,AFNE01.JPG,AFNE01.JPG,AFNE01.JPG,,,,,,,,,2,7,27,6,,,,,,,,,,,,,,,AFSA19.jpg,AFNE07.jpg,AFSA05.jpg,AFNE14.jpg,AFNE07.jpg,FN,3,num_6,32,num_8,0.650103326421,,,2017_Jul_31_1159,60.0062935974,FEMA4ImagesEEG,001,201057,
AFNE01.JPG,AFNE01.JPG,AFNE01.JPG,AFNE01.JPG,AFNE01.JPG,AFNE01.JPG,,,,,,,,,2,8,28,0,,,,,,,,,,,,,,,AFNE16.jpg,AFSA20.jpg,AFNE01.jpg,AFSA03.jpg,AFNE01.jpg,FN,3,num_2,32,num_4,1.05011660489,,,2017_Jul_31_1159,60.0062935974,FEMA4ImagesEEG,001,201057,
AFNE01.JPG,AFNE01.JPG,AFNE01.JPG,AFNE01.JPG,AFNE01.JPG,AFNE01.JPG,,,,,,,,,2,9,29,8,,,,,,,,,,,,,,,AFSA19.jpg,AFNE06.jpg,AFNE14.jpg,AFSA02.jpg,AFSA02.jpg,FS,4,num_4,32,num_2,1.29998566303,,,2017_Jul_31_1159,60.0062935974,FEMA4ImagesEEG,001,201057,
AFNE01.JPG,AFNE01.JPG,AFNE01.JPG,AFNE01.JPG,AFNE01.JPG,AFNE01.JPG,,,,,,,,,3,0,30,3,,,,,,,,,,,,,,,AFSA16.jpg,AFNE02.jpg,AFSA14.jpg,AFNE03.jpg,AFNE03.jpg,FN,3,num_4,16,num_4,1.05008613481,,,2017_Jul_31_1159,60.0062935974,FEMA4ImagesEEG,001,201057,
AFNE01.JPG,AFNE01.JPG,AFNE01.JPG,AFNE01.JPG,AFNE01.JPG,AFNE01.JPG,,,,,,,,,3,1,31,9,,,,,,,,,,,,,,,AFNE18.jpg,AFNE08.jpg,AFSA18.jpg,AFSA10.jpg,AFSA10.jpg,FS,4,num_4,32,num_8,0.816988898208,,,2017_Jul_31_1159,60.0062935974,FEMA4ImagesEEG,001,201057,
AFNE01.JPG,AFNE01.JPG,AFNE01.JPG,AFNE01.JPG,AFNE01.JPG,AFNE01.JPG,,,,,,,,,3,2,32,1,,,,,,,,,,,,,,,AFNE20.jpg,AFSA02.jpg,AFNE16.jpg,AFSA15.jpg,AFSA15.jpg,FS,4,num_4,16,num_4,1.166786463,,,2017_Jul_31_1159,60.0062935974,FEMA4ImagesEEG,001,201057,
AFNE01.JPG,AFNE01.JPG,AFNE01.JPG,AFNE01.JPG,AFNE01.JPG,AFNE01.JPG,,,,,,,,,3,3,33,2,,,,,,,,,,,,,,,AFSA17.jpg,AFSA18.jpg,AFNE10.jpg,AFNE19.jpg,AFNE10.jpg,FN,3,num_2,16,num_2,1.31685338565,,,2017_Jul_31_1159,60.0062935974,FEMA4ImagesEEG,001,201057,
AFNE01.JPG,AFNE01.JPG,AFNE01.JPG,AFNE01.JPG,AFNE01.JPG,AFNE01.JPG,,,,,,,,,3,4,34,8,,,,,,,,,,,,,,,AFNE19.jpg,AFSA13.jpg,AFNE06.jpg,AFSA18.jpg,AFSA13.jpg,FS,4,num_6,16,num_6,0.700126916869,,,2017_Jul_31_1159,60.0062935974,FEMA4ImagesEEG,001,201057,
AFNE01.JPG,AFNE01.JPG,AFNE01.JPG,AFNE01.JPG,AFNE01.JPG,AFNE01.JPG,,,,,,,,,3,5,35,0,,,,,,,,,,,,,,,AFSA04.jpg,AFNE17.jpg,AFSA12.jpg,AFNE09.jpg,AFSA12.jpg,FS,4,num_2,32,num_4,1.30010914779,,,2017_Jul_31_1159,60.0062935974,FEMA4ImagesEEG,001,201057,
AFNE01.JPG,AFNE01.JPG,AFNE01.JPG,AFNE01.JPG,AFNE01.JPG,AFNE01.JPG,,,,,,,,,3,6,36,7,,,,,,,,,,,,,,,AFNE07.jpg,AFSA19.jpg,AFSA03.jpg,AFNE13.jpg,AFNE07.jpg,FN,3,num_8,16,num_8,1.3834778429,,,2017_Jul_31_1159,60.0062935974,FEMA4ImagesEEG,001,201057,
AFNE01.JPG,AFNE01.JPG,AFNE01.JPG,AFNE01.JPG,AFNE01.JPG,AFNE01.JPG,,,,,,,,,3,7,37,4,,,,,,,,,,,,,,,AFSA10.jpg,AFNE01.jpg,AFNE13.jpg,AFSA20.jpg,AFNE01.jpg,FN,3,num_6,16,num_6,0.916799693601,,,2017_Jul_31_1159,60.0062935974,FEMA4ImagesEEG,001,201057,
AFNE01.JPG,AFNE01.JPG,AFNE01.JPG,AFNE01.JPG,AFNE01.JPG,AFNE01.JPG,,,,,,,,,3,8,38,5,,,,,,,,,,,,,,,AFNE15.jpg,AFNE14.jpg,AFSA02.jpg,AFSA10.jpg,AFNE14.jpg,FN,3,num_6,16,num_6,0.750085076317,,,2017_Jul_31_1159,60.0062935974,FEMA4ImagesEEG,001,201057,
AFNE01.JPG,AFNE01.JPG,AFNE01.JPG,AFNE01.JPG,AFNE01.JPG,AFNE01.JPG,,,,,,,,,3,9,39,6,,,,,,,,,,,,,,,AFNE09.jpg,AFSA07.jpg,AFNE13.jpg,AFSA08.jpg,AFNE09.jpg,FN,3,num_8,16,num_8,0.666787906317,,,2017_Jul_31_1159,60.0062935974,FEMA4ImagesEEG,001,201057,
AFNE01.JPG,AFNE01.JPG,AFNE01.JPG,AFNE01.JPG,AFNE01.JPG,AFNE01.JPG,,,,,,,,,4,0,40,1,,,,,,,,,,,,,,,AFNE16.jpg,AFSA04.jpg,AFNE05.jpg,AFSA18.jpg,AFNE16.jpg,FN,3,num_8,32,num_2,1.00011867401,,,2017_Jul_31_1159,60.0062935974,FEMA4ImagesEEG,001,201057,
AFNE01.JPG,AFNE01.JPG,AFNE01.JPG,AFNE01.JPG,AFNE01.JPG,AFNE01.JPG,,,,,,,,,4,1,41,7,,,,,,,,,,,,,,,AFNE16.jpg,AFSA12.jpg,AFSA07.jpg,AFNE15.jpg,AFSA07.jpg,FS,4,num_2,16,num_2,1.03355871746,,,2017_Jul_31_1159,60.0062935974,FEMA4ImagesEEG,001,201057,
AFNE01.JPG,AFNE01.JPG,AFNE01.JPG,AFNE01.JPG,AFNE01.JPG,AFNE01.JPG,,,,,,,,,4,2,42,5,,,,,,,,,,,,,,,AFNE12.jpg,AFNE05.jpg,AFSA01.jpg,AFSA03.jpg,AFSA03.jpg,FS,4,num_4,16,num_4,0.716957754223,,,2017_Jul_31_1159,60.0062935974,FEMA4ImagesEEG,001,201057,
AFNE01.JPG,AFNE01.JPG,AFNE01.JPG,AFNE01.JPG,AFNE01.JPG,AFNE01.JPG,,,,,,,,,4,3,43,3,,,,,,,,,,,,,,,AFNE08.jpg,AFSA17.jpg,AFNE07.jpg,AFSA20.jpg,AFSA17.jpg,FS,4,num_6,16,num_6,1.08364132396,,,2017_Jul_31_1159,60.0062935974,FEMA4ImagesEEG,001,201057,
AFNE01.JPG,AFNE01.JPG,AFNE01.JPG,AFNE01.JPG,AFNE01.JPG,AFNE01.JPG,,,,,,,,,4,4,44,6,,,,,,,,,,,,,,,AFNE12.jpg,AFNE19.jpg,AFSA03.jpg,AFSA10.jpg,AFSA10.jpg,FS,4,num_4,16,num_4,0.716900021303,,,2017_Jul_31_1159,60.0062935974,FEMA4ImagesEEG,001,201057,
AFNE01.JPG,AFNE01.JPG,AFNE01.JPG,AFNE01.JPG,AFNE01.JPG,AFNE01.JPG,,,,,,,,,4,5,45,8,,,,,,,,,,,,,,,AFSA12.jpg,AFSA19.jpg,AFNE11.jpg,AFNE09.jpg,AFSA12.jpg,FS,4,num_8,16,num_8,0.466793936212,,,2017_Jul_31_1159,60.0062935974,FEMA4ImagesEEG,001,201057,
AFNE01.JPG,AFNE01.JPG,AFNE01.JPG,AFNE01.JPG,AFNE01.JPG,AFNE01.JPG,,,,,,,,,4,6,46,4,,,,,,,,,,,,,,,AFSA03.jpg,AFSA04.jpg,AFNE18.jpg,AFNE08.jpg,AFSA03.jpg,FS,4,num_8,32,num_4,0.766769977054,,,2017_Jul_31_1159,60.0062935974,FEMA4ImagesEEG,001,201057,
AFNE01.JPG,AFNE01.JPG,AFNE01.JPG,AFNE01.JPG,AFNE01.JPG,AFNE01.JPG,,,,,,,,,4,7,47,9,,,,,,,,,,,,,,,AFSA13.jpg,AFNE10.jpg,AFNE06.jpg,AFSA10.jpg,AFSA13.jpg,FS,4,num_8,16,num_8,1.00011001388,,,2017_Jul_31_1159,60.0062935974,FEMA4ImagesEEG,001,201057,
AFNE01.JPG,AFNE01.JPG,AFNE01.JPG,AFNE01.JPG,AFNE01.JPG,AFNE01.JPG,,,,,,,,,4,8,48,0,,,,,,,,,,,,,,,AFSA19.jpg,AFNE04.jpg,AFNE20.jpg,AFSA02.jpg,AFSA19.jpg,FS,4,num_8,32,num_4,1.38326070178,,,2017_Jul_31_1159,60.0062935974,FEMA4ImagesEEG,001,201057,
AFNE01.JPG,AFNE01.JPG,AFNE01.JPG,AFNE01.JPG,AFNE01.JPG,AFNE01.JPG,,,,,,,,,4,9,49,2,,,,,,,,,,,,,,,AFSA16.jpg,AFNE04.jpg,AFSA08.jpg,AFNE17.jpg,AFSA16.jpg,FS,4,num_8,16,num_8,0.966748551698,,,2017_Jul_31_1159,60.0062935974,FEMA4ImagesEEG,001,201057,
AFNE01.JPG,AFNE01.JPG,AFNE01.JPG,AFNE01.JPG,AFNE01.JPG,AFNE01.JPG,,,,,,,,,5,0,50,7,,,,,,,,,,,,,,,AFNE02.jpg,AFSA17.jpg,AFNE18.jpg,AFSA10.jpg,AFSA17.jpg,FS,4,num_6,32,num_4,0.966591388918,,,2017_Jul_31_1159,60.0062935974,FEMA4ImagesEEG,001,201057,
AFNE01.JPG,AFNE01.JPG,AFNE01.JPG,AFNE01.JPG,AFNE01.JPG,AFNE01.JPG,,,,,,,,,5,1,51,4,,,,,,,,,,,,,,,AFSA15.jpg,AFSA20.jpg,AFNE19.jpg,AFNE14.jpg,AFNE14.jpg,FN,3,num_4,32,num_6,0.683338737814,,,2017_Jul_31_1159,60.0062935974,FEMA4ImagesEEG,001,201057,
AFNE01.JPG,AFNE01.JPG,AFNE01.JPG,AFNE01.JPG,AFNE01.JPG,AFNE01.JPG,,,,,,,,,5,2,52,1,,,,,,,,,,,,,,,AFNE14.jpg,AFNE05.jpg,AFSA09.jpg,AFSA20.jpg,AFSA20.jpg,FS,4,num_4,32,num_2,1.08331930102,,,2017_Jul_31_1159,60.0062935974,FEMA4ImagesEEG,001,201057,
AFNE01.JPG,AFNE01.JPG,AFNE01.JPG,AFNE01.JPG,AFNE01.JPG,AFNE01.JPG,,,,,,,,,5,3,53,9,,,,,,,,,,,,,,,AFNE20.jpg,AFNE03.jpg,AFSA18.jpg,AFSA02.jpg,AFNE20.jpg,FN,3,num_8,32,num_6,0.950099573703,,,2017_Jul_31_1159,60.0062935974,FEMA4ImagesEEG,001,201057,
AFNE01.JPG,AFNE01.JPG,AFNE01.JPG,AFNE01.JPG,AFNE01.JPG,AFNE01.JPG,,,,,,,,,5,4,54,3,,,,,,,,,,,,,,,AFSA19.jpg,AFNE18.jpg,AFSA16.jpg,AFNE10.jpg,AFNE10.jpg,FN,3,num_4,32,num_8,0.733431928791,,,2017_Jul_31_1159,60.0062935974,FEMA4ImagesEEG,001,201057,
AFNE01.JPG,AFNE01.JPG,AFNE01.JPG,AFNE01.JPG,AFNE01.JPG,AFNE01.JPG,,,,,,,,,5,5,55,0,,,,,,,,,,,,,,,AFNE05.jpg,AFSA01.jpg,AFSA03.jpg,AFNE08.jpg,AFNE08.jpg,FN,3,num_4,16,num_4,1.08344823844,,,2017_Jul_31_1159,60.0062935974,FEMA4ImagesEEG,001,201057,
AFNE01.JPG,AFNE01.JPG,AFNE01.JPG,AFNE01.JPG,AFNE01.JPG,AFNE01.JPG,,,,,,,,,5,6,56,2,,,,,,,,,,,,,,,AFSA08.jpg,AFNE07.jpg,AFNE03.jpg,AFSA17.jpg,AFNE07.jpg,FN,3,num_6,16,num_6,1.35006891098,,,2017_Jul_31_1159,60.0062935974,FEMA4ImagesEEG,001,201057,
AFNE01.JPG,AFNE01.JPG,AFNE01.JPG,AFNE01.JPG,AFNE01.JPG,AFNE01.JPG,,,,,,,,,5,7,57,5,,,,,,,,,,,,,,,AFNE07.jpg,AFNE06.jpg,AFSA11.jpg,AFSA14.jpg,AFSA14.jpg,FS,4,num_4,16,num_4,1.3667246243,,,2017_Jul_31_1159,60.0062935974,FEMA4ImagesEEG,001,201057,
AFNE01.JPG,AFNE01.JPG,AFNE01.JPG,AFNE01.JPG,AFNE01.JPG,AFNE01.JPG,,,,,,,,,5,8,58,8,,,,,,,,,,,,,,,AFNE08.jpg,AFSA12.jpg,AFNE02.jpg,AFSA16.jpg,AFSA12.jpg,FS,4,num_6,16,num_6,0.46676314529,,,2017_Jul_31_1159,60.0062935974,FEMA4ImagesEEG,001,201057,
AFNE01.JPG,AFNE01.JPG,AFNE01.JPG,AFNE01.JPG,AFNE01.JPG,AFNE01.JPG,,,,,,,,,5,9,59,6,,,,,,,,,,,,,,,AFSA01.jpg,AFNE10.jpg,AFSA05.jpg,AFNE02.jpg,AFSA05.jpg,FS,4,num_2,32,num_4,2.18332350277,,,2017_Jul_31_1159,60.0062935974,FEMA4ImagesEEG,001,201057,
,,,,,,,,,,,,,,,,,,,,,,,,,,,,,,,,,,,,,,,,,,,space,3.44990376174,2017_Jul_31_1159,60.0062935974,FEMA4ImagesEEG,001,201057,
AFNE01.JPG,AFNE01.JPG,AFNE01.JPG,AFNE01.JPG,AFNE01.JPG,AFNE01.JPG,,,,,,,,,,,,,0,0,0,2,,,,,,,,,,,AMNE16.jpg,AMNE15.jpg,AMSA10.jpg,AMSA17.jpg,AMSA10.jpg,MS,2,num_2,32,num_6,0.783457764424,,,2017_Jul_31_1159,60.0062935974,FEMA4ImagesEEG,001,201057,
AFNE01.JPG,AFNE01.JPG,AFNE01.JPG,AFNE01.JPG,AFNE01.JPG,AFNE01.JPG,,,,,,,,,,,,,0,1,1,9,,,,,,,,,,,AMSA09.jpg,AMNE20.jpg,AMSA03.jpg,AMNE02.jpg,AMNE02.jpg,MN,1,num_4,16,num_4,0.983443074627,,,2017_Jul_31_1159,60.0062935974,FEMA4ImagesEEG,001,201057,
AFNE01.JPG,AFNE01.JPG,AFNE01.JPG,AFNE01.JPG,AFNE01.JPG,AFNE01.JPG,,,,,,,,,,,,,0,2,2,6,,,,,,,,,,,AMSA06.jpg,AMNE20.jpg,AMSA11.jpg,AMNE14.jpg,AMNE14.jpg,MN,1,num_4,32,num_8,0.933468878036,,,2017_Jul_31_1159,60.0062935974,FEMA4ImagesEEG,001,201057,
AFNE01.JPG,AFNE01.JPG,AFNE01.JPG,AFNE01.JPG,AFNE01.JPG,AFNE01.JPG,,,,,,,,,,,,,0,3,3,1,,,,,,,,,,,AMNE13.jpg,AMSA05.jpg,AMSA12.jpg,AMNE03.jpg,AMNE03.jpg,MN,1,num_4,16,num_4,0.516849921551,,,2017_Jul_31_1159,60.0062935974,FEMA4ImagesEEG,001,201057,
AFNE01.JPG,AFNE01.JPG,AFNE01.JPG,AFNE01.JPG,AFNE01.JPG,AFNE01.JPG,,,,,,,,,,,,,0,4,4,7,,,,,,,,,,,AMSA03.jpg,AMSA02.jpg,AMNE04.jpg,AMNE05.jpg,AMSA02.jpg,MS,2,num_6,16,num_6,0.983452696819,,,2017_Jul_31_1159,60.0062935974,FEMA4ImagesEEG,001,201057,
AFNE01.JPG,AFNE01.JPG,AFNE01.JPG,AFNE01.JPG,AFNE01.JPG,AFNE01.JPG,,,,,,,,,,,,,0,5,5,4,,,,,,,,,,,AMSA06.jpg,AMNE15.jpg,AMSA04.jpg,AMNE08.jpg,AMSA04.jpg,MS,2,num_2,16,num_2,0.933388051577,,,2017_Jul_31_1159,60.0062935974,FEMA4ImagesEEG,001,201057,
AFNE01.JPG,AFNE01.JPG,AFNE01.JPG,AFNE01.JPG,AFNE01.JPG,AFNE01.JPG,,,,,,,,,,,,,0,6,6,3,,,,,,,,,,,AMNE06.jpg,AMSA18.jpg,AMNE01.jpg,AMSA06.jpg,AMNE01.jpg,MN,1,num_2,16,num_2,1.7833628254,,,2017_Jul_31_1159,60.0062935974,FEMA4ImagesEEG,001,201057,
AFNE01.JPG,AFNE01.JPG,AFNE01.JPG,AFNE01.JPG,AFNE01.JPG,AFNE01.JPG,,,,,,,,,,,,,0,7,7,0,,,,,,,,,,,AMSA18.jpg,AMSA10.jpg,AMNE05.jpg,AMNE02.jpg,AMSA18.jpg,MS,2,num_8,16,num_8,1.26675538346,,,2017_Jul_31_1159,60.0062935974,FEMA4ImagesEEG,001,201057,
AFNE01.JPG,AFNE01.JPG,AFNE01.JPG,AFNE01.JPG,AFNE01.JPG,AFNE01.JPG,,,,,,,,,,,,,0,8,8,8,,,,,,,,,,,AMNE03.jpg,AMNE02.jpg,AMSA03.jpg,AMSA04.jpg,AMSA04.jpg,MS,2,num_4,16,num_4,0.66681933892,,,2017_Jul_31_1159,60.0062935974,FEMA4ImagesEEG,001,201057,
AFNE01.JPG,AFNE01.JPG,AFNE01.JPG,AFNE01.JPG,AFNE01.JPG,AFNE01.JPG,,,,,,,,,,,,,0,9,9,5,,,,,,,,,,,AMSA01.jpg,AMNE08.jpg,AMNE18.jpg,AMSA19.jpg,AMSA19.jpg,MS,2,num_4,32,num_2,1.21661825106,,,2017_Jul_31_1159,60.0062935974,FEMA4ImagesEEG,001,201057,
AFNE01.JPG,AFNE01.JPG,AFNE01.JPG,AFNE01.JPG,AFNE01.JPG,AFNE01.JPG,,,,,,,,,,,,,1,0,10,5,,,,,,,,,,,AMSA01.jpg,AMNE16.jpg,AMSA10.jpg,AMNE11.jpg,AMSA01.jpg,MS,2,num_8,16,num_8,0.916795844678,,,2017_Jul_31_1159,60.0062935974,FEMA4ImagesEEG,001,201057,
AFNE01.JPG,AFNE01.JPG,AFNE01.JPG,AFNE01.JPG,AFNE01.JPG,AFNE01.JPG,,,,,,,,,,,,,1,1,11,4,,,,,,,,,,,AMNE11.jpg,AMNE16.jpg,AMSA12.jpg,AMSA15.jpg,AMNE16.jpg,MN,1,num_6,32,num_8,2.44984795316,,,2017_Jul_31_1159,60.0062935974,FEMA4ImagesEEG,001,201057,
AFNE01.JPG,AFNE01.JPG,AFNE01.JPG,AFNE01.JPG,AFNE01.JPG,AFNE01.JPG,,,,,,,,,,,,,1,2,12,6,,,,,,,,,,,AMNE19.jpg,AMSA15.jpg,AMNE05.jpg,AMSA09.jpg,AMNE19.jpg,MN,1,num_8,16,num_8,2.19998306502,,,2017_Jul_31_1159,60.0062935974,FEMA4ImagesEEG,001,201057,
AFNE01.JPG,AFNE01.JPG,AFNE01.JPG,AFNE01.JPG,AFNE01.JPG,AFNE01.JPG,,,,,,,,,,,,,1,3,13,3,,,,,,,,,,,AMNE18.jpg,AMSA02.jpg,AMNE13.jpg,AMSA18.jpg,AMNE18.jpg,MN,1,num_8,32,num_2,1.06676911097,,,2017_Jul_31_1159,60.0062935974,FEMA4ImagesEEG,001,201057,
AFNE01.JPG,AFNE01.JPG,AFNE01.JPG,AFNE01.JPG,AFNE01.JPG,AFNE01.JPG,,,,,,,,,,,,,1,4,14,1,,,,,,,,,,,AMNE05.jpg,AMSA19.jpg,AMNE03.jpg,AMSA06.jpg,AMSA06.jpg,MS,2,num_4,16,num_4,1.53343667579,,,2017_Jul_31_1159,60.0062935974,FEMA4ImagesEEG,001,201057,
AFNE01.JPG,AFNE01.JPG,AFNE01.JPG,AFNE01.JPG,AFNE01.JPG,AFNE01.JPG,,,,,,,,,,,,,1,5,15,0,,,,,,,,,,,AMNE12.jpg,AMNE16.jpg,AMSA04.jpg,AMSA02.jpg,AMNE16.jpg,MN,1,num_6,32,num_8,1.06673350907,,,2017_Jul_31_1159,60.0062935974,FEMA4ImagesEEG,001,201057,
AFNE01.JPG,AFNE01.JPG,AFNE01.JPG,AFNE01.JPG,AFNE01.JPG,AFNE01.JPG,,,,,,,,,,,,,1,6,16,8,,,,,,,,,,,AMSA06.jpg,AMNE04.jpg,AMNE11.jpg,AMSA08.jpg,AMSA06.jpg,MS,2,num_8,32,num_6,1.85035003978,,,2017_Jul_31_1159,60.0062935974,FEMA4ImagesEEG,001,201057,
AFNE01.JPG,AFNE01.JPG,AFNE01.JPG,AFNE01.JPG,AFNE01.JPG,AFNE01.JPG,,,,,,,,,,,,,1,7,17,9,,,,,,,,,,,AMSA06.jpg,AMNE11.jpg,AMSA08.jpg,AMNE06.jpg,AMNE06.jpg,MN,1,num_4,32,num_2,2.94980898337,,,2017_Jul_31_1159,60.0062935974,FEMA4ImagesEEG,001,201057,
AFNE01.JPG,AFNE01.JPG,AFNE01.JPG,AFNE01.JPG,AFNE01.JPG,AFNE01.JPG,,,,,,,,,,,,,1,8,18,7,,,,,,,,,,,AMSA13.jpg,AMNE18.jpg,AMNE11.jpg,AMSA16.jpg,AMSA13.jpg,MS,2,num_8,32,num_2,1.71670276602,,,2017_Jul_31_1159,60.0062935974,FEMA4ImagesEEG,001,201057,
AFNE01.JPG,AFNE01.JPG,AFNE01.JPG,AFNE01.JPG,AFNE01.JPG,AFNE01.JPG,,,,,,,,,,,,,1,9,19,2,,,,,,,,,,,AMNE05.jpg,AMSA19.jpg,AMSA05.jpg,AMNE15.jpg,AMSA19.jpg,MS,2,num_6,32,num_2,1.45012154453,,,2017_Jul_31_1159,60.0062935974,FEMA4ImagesEEG,001,201057,
AFNE01.JPG,AFNE01.JPG,AFNE01.JPG,AFNE01.JPG,AFNE01.JPG,AFNE01.JPG,,,,,,,,,,,,,2,0,20,9,,,,,,,,,,,AMSA20.jpg,AMNE07.jpg,AMSA16.jpg,AMNE17.jpg,AMSA20.jpg,MS,2,num_8,32,num_6,1.73337964807,,,2017_Jul_31_1159,60.0062935974,FEMA4ImagesEEG,001,201057,
AFNE01.JPG,AFNE01.JPG,AFNE01.JPG,AFNE01.JPG,AFNE01.JPG,AFNE01.JPG,,,,,,,,,,,,,2,1,21,0,,,,,,,,,,,AMSA13.jpg,AMNE11.jpg,AMNE09.jpg,AMSA01.jpg,AMNE09.jpg,MN,1,num_2,16,num_2,0.900093303295,,,2017_Jul_31_1159,60.0062935974,FEMA4ImagesEEG,001,201057,
AFNE01.JPG,AFNE01.JPG,AFNE01.JPG,AFNE01.JPG,AFNE01.JPG,AFNE01.JPG,,,,,,,,,,,,,2,2,22,4,,,,,,,,,,,AMNE07.jpg,AMNE15.jpg,AMSA07.jpg,AMSA17.jpg,AMSA07.jpg,MS,2,num_2,16,num_2,0.816726853605,,,2017_Jul_31_1159,60.0062935974,FEMA4ImagesEEG,001,201057,
AFNE01.JPG,AFNE01.JPG,AFNE01.JPG,AFNE01.JPG,AFNE01.JPG,AFNE01.JPG,,,,,,,,,,,,,2,3,23,1,,,,,,,,,,,AMSA19.jpg,AMNE03.jpg,AMNE10.jpg,AMSA08.jpg,AMSA19.jpg,MS,2,num_8,32,num_2,1.16644583712,,,2017_Jul_31_1159,60.0062935974,FEMA4ImagesEEG,001,201057,
AFNE01.JPG,AFNE01.JPG,AFNE01.JPG,AFNE01.JPG,AFNE01.JPG,AFNE01.JPG,,,,,,,,,,,,,2,4,24,7,,,,,,,,,,,AMSA05.jpg,AMNE18.jpg,AMNE14.jpg,AMSA01.jpg,AMNE14.jpg,MN,1,num_2,32,num_8,1.05013745325,,,2017_Jul_31_1159,60.0062935974,FEMA4ImagesEEG,001,201057,
AFNE01.JPG,AFNE01.JPG,AFNE01.JPG,AFNE01.JPG,AFNE01.JPG,AFNE01.JPG,,,,,,,,,,,,,2,5,25,3,,,,,,,,,,,AMNE04.jpg,AMSA02.jpg,AMSA17.jpg,AMNE15.jpg,AMSA02.jpg,MS,2,num_6,32,num_2,1.0667973361,,,2017_Jul_31_1159,60.0062935974,FEMA4ImagesEEG,001,201057,
AFNE01.JPG,AFNE01.JPG,AFNE01.JPG,AFNE01.JPG,AFNE01.JPG,AFNE01.JPG,,,,,,,,,,,,,2,6,26,6,,,,,,,,,,,AMSA16.jpg,AMNE07.jpg,AMSA15.jpg,AMNE19.jpg,AMNE19.jpg,MN,1,num_4,16,num_4,1.40005689929,,,2017_Jul_31_1159,60.0062935974,FEMA4ImagesEEG,001,201057,
AFNE01.JPG,AFNE01.JPG,AFNE01.JPG,AFNE01.JPG,AFNE01.JPG,AFNE01.JPG,,,,,,,,,,,,,2,7,27,2,,,,,,,,,,,AMNE09.jpg,AMSA17.jpg,AMNE05.jpg,AMSA04.jpg,AMNE09.jpg,MN,1,num_8,16,num_8,0.883476399584,,,2017_Jul_31_1159,60.0062935974,FEMA4ImagesEEG,001,201057,
AFNE01.JPG,AFNE01.JPG,AFNE01.JPG,AFNE01.JPG,AFNE01.JPG,AFNE01.JPG,,,,,,,,,,,,,2,8,28,5,,,,,,,,,,,AMSA02.jpg,AMNE11.jpg,AMNE06.jpg,AMSA20.jpg,AMSA02.jpg,MS,2,num_8,32,num_2,0.91674580914,,,2017_Jul_31_1159,60.0062935974,FEMA4ImagesEEG,001,201057,
AFNE01.JPG,AFNE01.JPG,AFNE01.JPG,AFNE01.JPG,AFNE01.JPG,AFNE01.JPG,,,,,,,,,,,,,2,9,29,8,,,,,,,,,,,AMSA20.jpg,AMNE08.jpg,AMSA18.jpg,AMNE15.jpg,AMNE08.jpg,MN,1,num_6,32,num_2,1.21677252697,,,2017_Jul_31_1159,60.0062935974,FEMA4ImagesEEG,001,201057,
AFNE01.JPG,AFNE01.JPG,AFNE01.JPG,AFNE01.JPG,AFNE01.JPG,AFNE01.JPG,,,,,,,,,,,,,3,0,30,7,,,,,,,,,,,AMSA02.jpg,AMNE14.jpg,AMNE08.jpg,AMSA06.jpg,AMNE14.jpg,MN,1,num_6,16,num_6,0.883462286787,,,2017_Jul_31_1159,60.0062935974,FEMA4ImagesEEG,001,201057,
AFNE01.JPG,AFNE01.JPG,AFNE01.JPG,AFNE01.JPG,AFNE01.JPG,AFNE01.JPG,,,,,,,,,,,,,3,1,31,5,,,,,,,,,,,AMSA14.jpg,AMNE04.jpg,AMSA12.jpg,AMNE09.jpg,AMSA14.jpg,MS,2,num_8,32,num_2,1.43338372163,,,2017_Jul_31_1159,60.0062935974,FEMA4ImagesEEG,001,201057,
AFNE01.JPG,AFNE01.JPG,AFNE01.JPG,AFNE01.JPG,AFNE01.JPG,AFNE01.JPG,,,,,,,,,,,,,3,2,32,9,,,,,,,,,,,AMNE09.jpg,AMSA11.jpg,AMNE15.jpg,AMSA08.jpg,AMSA11.jpg,MS,2,num_6,32,num_4,1.58338970342,,,2017_Jul_31_1159,60.0062935974,FEMA4ImagesEEG,001,201057,
AFNE01.JPG,AFNE01.JPG,AFNE01.JPG,AFNE01.JPG,AFNE01.JPG,AFNE01.JPG,,,,,,,,,,,,,3,3,33,3,,,,,,,,,,,AMSA09.jpg,AMNE13.jpg,AMNE11.jpg,AMSA06.jpg,AMNE11.jpg,MN,1,num_2,32,num_4,0.950084498851,,,2017_Jul_31_1159,60.0062935974,FEMA4ImagesEEG,001,201057,
AFNE01.JPG,AFNE01.JPG,AFNE01.JPG,AFNE01.JPG,AFNE01.JPG,AFNE01.JPG,,,,,,,,,,,,,3,4,34,1,,,,,,,,,,,AMSA12.jpg,AMNE16.jpg,AMNE02.jpg,AMSA11.jpg,AMSA11.jpg,MS,2,num_4,32,num_2,1.53342031804,,,2017_Jul_31_1159,60.0062935974,FEMA4ImagesEEG,001,201057,
AFNE01.JPG,AFNE01.JPG,AFNE01.JPG,AFNE01.JPG,AFNE01.JPG,AFNE01.JPG,,,,,,,,,,,,,3,5,35,2,,,,,,,,,,,AMNE12.jpg,AMNE05.jpg,AMSA14.jpg,AMSA08.jpg,AMSA14.jpg,MS,2,num_2,16,num_2,0.650162021862,,,2017_Jul_31_1159,60.0062935974,FEMA4ImagesEEG,001,201057,
AFNE01.JPG,AFNE01.JPG,AFNE01.JPG,AFNE01.JPG,AFNE01.JPG,AFNE01.JPG,,,,,,,,,,,,,3,6,36,8,,,,,,,,,,,AMNE12.jpg,AMSA08.jpg,AMNE14.jpg,AMSA13.jpg,AMNE14.jpg,MN,1,num_2,32,num_8,0.716766593279,,,2017_Jul_31_1159,60.0062935974,FEMA4ImagesEEG,001,201057,
AFNE01.JPG,AFNE01.JPG,AFNE01.JPG,AFNE01.JPG,AFNE01.JPG,AFNE01.JPG,,,,,,,,,,,,,3,7,37,4,,,,,,,,,,,AMNE09.jpg,AMSA12.jpg,AMSA16.jpg,AMNE14.jpg,AMSA12.jpg,MS,2,num_6,32,num_2,0.883794573834,,,2017_Jul_31_1159,60.0062935974,FEMA4ImagesEEG,001,201057,
AFNE01.JPG,AFNE01.JPG,AFNE01.JPG,AFNE01.JPG,AFNE01.JPG,AFNE01.JPG,,,,,,,,,,,,,3,8,38,0,,,,,,,,,,,AMNE04.jpg,AMNE09.jpg,AMSA05.jpg,AMSA01.jpg,AMNE04.jpg,MN,1,num_8,32,num_2,1.8166200472,,,2017_Jul_31_1159,60.0062935974,FEMA4ImagesEEG,001,201057,
AFNE01.JPG,AFNE01.JPG,AFNE01.JPG,AFNE01.JPG,AFNE01.JPG,AFNE01.JPG,,,,,,,,,,,,,3,9,39,6,,,,,,,,,,,AMNE15.jpg,AMNE12.jpg,AMSA19.jpg,AMSA12.jpg,AMSA19.jpg,MS,2,num_2,32,num_6,1.5500452402,,,2017_Jul_31_1159,60.0062935974,FEMA4ImagesEEG,001,201057,
AFNE01.JPG,AFNE01.JPG,AFNE01.JPG,AFNE01.JPG,AFNE01.JPG,AFNE01.JPG,,,,,,,,,,,,,4,0,40,2,,,,,,,,,,,AMNE10.jpg,AMNE16.jpg,AMSA05.jpg,AMSA08.jpg,AMNE16.jpg,MN,1,num_6,32,num_8,0.999984925147,,,2017_Jul_31_1159,60.0062935974,FEMA4ImagesEEG,001,201057,
AFNE01.JPG,AFNE01.JPG,AFNE01.JPG,AFNE01.JPG,AFNE01.JPG,AFNE01.JPG,,,,,,,,,,,,,4,1,41,8,,,,,,,,,,,AMSA09.jpg,AMNE09.jpg,AMNE05.jpg,AMSA08.jpg,AMSA08.jpg,MS,2,num_4,32,num_8,1.01673654001,,,2017_Jul_31_1159,60.0062935974,FEMA4ImagesEEG,001,201057,
AFNE01.JPG,AFNE01.JPG,AFNE01.JPG,AFNE01.JPG,AFNE01.JPG,AFNE01.JPG,,,,,,,,,,,,,4,2,42,5,,,,,,,,,,,AMNE15.jpg,AMSA18.jpg,AMSA17.jpg,AMNE07.jpg,AMNE07.jpg,MN,1,num_4,32,num_8,1.5666855583,,,2017_Jul_31_1159,60.0062935974,FEMA4ImagesEEG,001,201057,
AFNE01.JPG,AFNE01.JPG,AFNE01.JPG,AFNE01.JPG,AFNE01.JPG,AFNE01.JPG,,,,,,,,,,,,,4,3,43,6,,,,,,,,,,,AMNE18.jpg,AMSA07.jpg,AMSA10.jpg,AMNE10.jpg,AMNE18.jpg,MN,1,num_8,32,num_6,1.38350029476,,,2017_Jul_31_1159,60.0062935974,FEMA4ImagesEEG,001,201057,
AFNE01.JPG,AFNE01.JPG,AFNE01.JPG,AFNE01.JPG,AFNE01.JPG,AFNE01.JPG,,,,,,,,,,,,,4,4,44,0,,,,,,,,,,,AMSA04.jpg,AMSA14.jpg,AMNE07.jpg,AMNE18.jpg,AMSA04.jpg,MS,2,num_8,16,num_8,1.28340981365,,,2017_Jul_31_1159,60.0062935974,FEMA4ImagesEEG,001,201057,
AFNE01.JPG,AFNE01.JPG,AFNE01.JPG,AFNE01.JPG,AFNE01.JPG,AFNE01.JPG,,,,,,,,,,,,,4,5,45,3,,,,,,,,,,,AMNE19.jpg,AMSA20.jpg,AMNE07.jpg,AMSA06.jpg,AMNE07.jpg,MN,1,num_2,32,num_8,1.11675645807,,,2017_Jul_31_1159,60.0062935974,FEMA4ImagesEEG,001,201057,
AFNE01.JPG,AFNE01.JPG,AFNE01.JPG,AFNE01.JPG,AFNE01.JPG,AFNE01.JPG,,,,,,,,,,,,,4,6,46,7,,,,,,,,,,,AMNE09.jpg,AMSA11.jpg,AMNE13.jpg,AMSA16.jpg,AMNE13.jpg,MN,1,num_2,16,num_2,0.833443828393,,,2017_Jul_31_1159,60.0062935974,FEMA4ImagesEEG,001,201057,
AFNE01.JPG,AFNE01.JPG,AFNE01.JPG,AFNE01.JPG,AFNE01.JPG,AFNE01.JPG,,,,,,,,,,,,,4,7,47,4,,,,,,,,,,,AMSA04.jpg,AMNE03.jpg,AMNE17.jpg,AMSA08.jpg,AMSA08.jpg,MS,2,num_4,32,num_6,0.783505554777,,,2017_Jul_31_1159,60.0062935974,FEMA4ImagesEEG,001,201057,
AFNE01.JPG,AFNE01.JPG,AFNE01.JPG,AFNE01.JPG,AFNE01.JPG,AFNE01.JPG,,,,,,,,,,,,,4,8,48,9,,,,,,,,,,,AMNE08.jpg,AMNE18.jpg,AMSA01.jpg,AMSA13.jpg,AMSA13.jpg,MS,2,num_4,16,num_4,1.91667075618,,,2017_Jul_31_1159,60.0062935974,FEMA4ImagesEEG,001,201057,
AFNE01.JPG,AFNE01.JPG,AFNE01.JPG,AFNE01.JPG,AFNE01.JPG,AFNE01.JPG,,,,,,,,,,,,,4,9,49,1,,,,,,,,,,,AMNE08.jpg,AMSA01.jpg,AMSA12.jpg,AMNE19.jpg,AMNE19.jpg,MN,1,num_4,32,num_8,0.900222561555,,,2017_Jul_31_1159,60.0062935974,FEMA4ImagesEEG,001,201057,
AFNE01.JPG,AFNE01.JPG,AFNE01.JPG,AFNE01.JPG,AFNE01.JPG,AFNE01.JPG,,,,,,,,,,,,,5,0,50,5,,,,,,,,,,,AMSA18.jpg,AMSA14.jpg,AMNE20.jpg,AMNE16.jpg,AMNE20.jpg,MN,1,num_2,16,num_2,1.05015862198,,,2017_Jul_31_1159,60.0062935974,FEMA4ImagesEEG,001,201057,
AFNE01.JPG,AFNE01.JPG,AFNE01.JPG,AFNE01.JPG,AFNE01.JPG,AFNE01.JPG,,,,,,,,,,,,,5,1,51,6,,,,,,,,,,,AMSA02.jpg,AMNE03.jpg,AMSA08.jpg,AMNE17.jpg,AMSA08.jpg,MS,2,num_2,16,num_2,0.750111697707,,,2017_Jul_31_1159,60.0062935974,FEMA4ImagesEEG,001,201057,
AFNE01.JPG,AFNE01.JPG,AFNE01.JPG,AFNE01.JPG,AFNE01.JPG,AFNE01.JPG,,,,,,,,,,,,,5,2,52,3,,,,,,,,,,,AMSA14.jpg,AMSA07.jpg,AMNE01.jpg,AMNE09.jpg,AMNE09.jpg,MN,1,num_4,16,num_4,0.933460538974,,,2017_Jul_31_1159,60.0062935974,FEMA4ImagesEEG,001,201057,
AFNE01.JPG,AFNE01.JPG,AFNE01.JPG,AFNE01.JPG,AFNE01.JPG,AFNE01.JPG,,,,,,,,,,,,,5,3,53,0,,,,,,,,,,,AMSA11.jpg,AMNE11.jpg,AMSA08.jpg,AMNE14.jpg,AMSA08.jpg,MS,2,num_2,32,num_8,0.850105314981,,,2017_Jul_31_1159,60.0062935974,FEMA4ImagesEEG,001,201057,
AFNE01.JPG,AFNE01.JPG,AFNE01.JPG,AFNE01.JPG,AFNE01.JPG,AFNE01.JPG,,,,,,,,,,,,,5,4,54,9,,,,,,,,,,,AMNE05.jpg,AMSA07.jpg,AMNE11.jpg,AMSA08.jpg,AMSA08.jpg,MS,2,num_4,16,num_4,0.683475052239,,,2017_Jul_31_1159,60.0062935974,FEMA4ImagesEEG,001,201057,
AFNE01.JPG,AFNE01.JPG,AFNE01.JPG,AFNE01.JPG,AFNE01.JPG,AFNE01.JPG,,,,,,,,,,,,,5,5,55,7,,,,,,,,,,,AMSA11.jpg,AMNE07.jpg,AMNE15.jpg,AMSA03.jpg,AMNE15.jpg,MN,1,num_2,16,num_2,0.63343702862,,,2017_Jul_31_1159,60.0062935974,FEMA4ImagesEEG,001,201057,
AFNE01.JPG,AFNE01.JPG,AFNE01.JPG,AFNE01.JPG,AFNE01.JPG,AFNE01.JPG,,,,,,,,,,,,,5,6,56,1,,,,,,,,,,,AMSA11.jpg,AMNE08.jpg,AMSA08.jpg,AMNE01.jpg,AMSA08.jpg,MS,2,num_2,32,num_8,1.20006517437,,,2017_Jul_31_1159,60.0062935974,FEMA4ImagesEEG,001,201057,
AFNE01.JPG,AFNE01.JPG,AFNE01.JPG,AFNE01.JPG,AFNE01.JPG,AFNE01.JPG,,,,,,,,,,,,,5,7,57,8,,,,,,,,,,,AMSA20.jpg,AMNE04.jpg,AMNE16.jpg,AMSA16.jpg,AMNE04.jpg,MN,1,num_6,16,num_6,0.533462014282,,,2017_Jul_31_1159,60.0062935974,FEMA4ImagesEEG,001,201057,
AFNE01.JPG,AFNE01.JPG,AFNE01.JPG,AFNE01.JPG,AFNE01.JPG,AFNE01.JPG,,,,,,,,,,,,,5,8,58,2,,,,,,,,,,,AMSA02.jpg,AMNE01.jpg,AMNE08.jpg,AMSA13.jpg,AMNE01.jpg,MN,1,num_6,32,num_2,0.850168500794,,,2017_Jul_31_1159,60.0062935974,FEMA4ImagesEEG,001,201057,
AFNE01.JPG,AFNE01.JPG,AFNE01.JPG,AFNE01.JPG,AFNE01.JPG,AFNE01.JPG,,,,,,,,,,,,,5,9,59,4,,,,,,,,,,,AMNE18.jpg,AMSA08.jpg,AMSA05.jpg,AMNE20.jpg,AMSA05.jpg,MS,2,num_2,16,num_2,0.766818088014,,,2017_Jul_31_1159,60.0062935974,FEMA4ImagesEEG,001,201057,
,,,,,,,,,,,,,,,,,,,,,,,,,,,,,,,,,,,,,,,,,,,space,10.6326335745,2017_Jul_31_1159,60.0062935974,FEMA4ImagesEEG,001,201057,
AFNE01.JPG,AFNE01.JPG,AFNE01.JPG,AFNE01.JPG,AFNE01.JPG,AFNE01.JPG,,,,,,,,,,,,,,,,,0,0,0,6,,,,,,,AFSA16.jpg,AFNE05.jpg,AFNE04.jpg,AFSA08.jpg,AFSA16.jpg,FS,4,num_8,32,num_4,0.966767475475,,,2017_Jul_31_1159,60.0062935974,FEMA4ImagesEEG,001,201057,
AFNE01.JPG,AFNE01.JPG,AFNE01.JPG,AFNE01.JPG,AFNE01.JPG,AFNE01.JPG,,,,,,,,,,,,,,,,,0,1,1,8,,,,,,,AFSA07.jpg,AFNE17.jpg,AFNE06.jpg,AFSA03.jpg,AFNE06.jpg,FN,3,num_2,16,num_2,2.1499963596,,,2017_Jul_31_1159,60.0062935974,FEMA4ImagesEEG,001,201057,
AFNE01.JPG,AFNE01.JPG,AFNE01.JPG,AFNE01.JPG,AFNE01.JPG,AFNE01.JPG,,,,,,,,,,,,,,,,,0,2,2,1,,,,,,,AFSA18.jpg,AFNE03.jpg,AFNE19.jpg,AFSA01.jpg,AFSA18.jpg,FS,4,num_8,32,num_2,1.1500547342,,,2017_Jul_31_1159,60.0062935974,FEMA4ImagesEEG,001,201057,
AFNE01.JPG,AFNE01.JPG,AFNE01.JPG,AFNE01.JPG,AFNE01.JPG,AFNE01.JPG,,,,,,,,,,,,,,,,,0,3,3,5,,,,,,,AFSA19.jpg,AFNE12.jpg,AFNE08.jpg,AFSA07.jpg,AFSA07.jpg,FS,4,num_4,32,num_8,1.00012925826,,,2017_Jul_31_1159,60.0062935974,FEMA4ImagesEEG,001,201057,
AFNE01.JPG,AFNE01.JPG,AFNE01.JPG,AFNE01.JPG,AFNE01.JPG,AFNE01.JPG,,,,,,,,,,,,,,,,,0,4,4,2,,,,,,,AFSA19.jpg,AFNE06.jpg,AFNE17.jpg,AFSA20.jpg,AFSA19.jpg,FS,4,num_8,16,num_8,0.783129326534,,,2017_Jul_31_1159,60.0062935974,FEMA4ImagesEEG,001,201057,
AFNE01.JPG,AFNE01.JPG,AFNE01.JPG,AFNE01.JPG,AFNE01.JPG,AFNE01.JPG,,,,,,,,,,,,,,,,,0,5,5,3,,,,,,,AFSA03.jpg,AFNE03.jpg,AFSA18.jpg,AFNE20.jpg,AFNE03.jpg,FN,3,num_6,32,num_4,1.10013185628,,,2017_Jul_31_1159,60.0062935974,FEMA4ImagesEEG,001,201057,
AFNE01.JPG,AFNE01.JPG,AFNE01.JPG,AFNE01.JPG,AFNE01.JPG,AFNE01.JPG,,,,,,,,,,,,,,,,,0,6,6,9,,,,,,,AFSA18.jpg,AFNE16.jpg,AFNE06.jpg,AFSA11.jpg,AFNE16.jpg,FN,3,num_6,32,num_8,1.06680984516,,,2017_Jul_31_1159,60.0062935974,FEMA4ImagesEEG,001,201057,
AFNE01.JPG,AFNE01.JPG,AFNE01.JPG,AFNE01.JPG,AFNE01.JPG,AFNE01.JPG,,,,,,,,,,,,,,,,,0,7,7,4,,,,,,,AFNE15.jpg,AFSA18.jpg,AFSA20.jpg,AFNE20.jpg,AFNE20.jpg,FN,3,num_4,32,num_8,0.833437413443,,,2017_Jul_31_1159,60.0062935974,FEMA4ImagesEEG,001,201057,
AFNE01.JPG,AFNE01.JPG,AFNE01.JPG,AFNE01.JPG,AFNE01.JPG,AFNE01.JPG,,,,,,,,,,,,,,,,,0,8,8,7,,,,,,,AFSA20.jpg,AFNE20.jpg,AFSA08.jpg,AFNE16.jpg,AFNE16.jpg,FN,3,num_4,32,num_8,1.21677765879,,,2017_Jul_31_1159,60.0062935974,FEMA4ImagesEEG,001,201057,
AFNE01.JPG,AFNE01.JPG,AFNE01.JPG,AFNE01.JPG,AFNE01.JPG,AFNE01.JPG,,,,,,,,,,,,,,,,,0,9,9,0,,,,,,,AFNE15.jpg,AFSA07.jpg,AFSA18.jpg,AFNE11.jpg,AFSA18.jpg,FS,4,num_2,32,num_4,1.56678851601,,,2017_Jul_31_1159,60.0062935974,FEMA4ImagesEEG,001,201057,
AFNE01.JPG,AFNE01.JPG,AFNE01.JPG,AFNE01.JPG,AFNE01.JPG,AFNE01.JPG,,,,,,,,,,,,,,,,,1,0,10,2,,,,,,,AFNE11.jpg,AFSA06.jpg,AFSA16.jpg,AFNE09.jpg,AFSA06.jpg,FS,4,num_6,32,num_2,1.05045466498,,,2017_Jul_31_1159,60.0062935974,FEMA4ImagesEEG,001,201057,
AFNE01.JPG,AFNE01.JPG,AFNE01.JPG,AFNE01.JPG,AFNE01.JPG,AFNE01.JPG,,,,,,,,,,,,,,,,,1,1,11,5,,,,,,,AFSA20.jpg,AFSA05.jpg,AFNE05.jpg,AFNE07.jpg,AFSA05.jpg,FS,4,num_6,32,num_4,2.0666735305,,,2017_Jul_31_1159,60.0062935974,FEMA4ImagesEEG,001,201057,
AFNE01.JPG,AFNE01.JPG,AFNE01.JPG,AFNE01.JPG,AFNE01.JPG,AFNE01.JPG,,,,,,,,,,,,,,,,,1,2,12,8,,,,,,,AFNE07.jpg,AFSA18.jpg,AFSA05.jpg,AFNE09.jpg,AFSA18.jpg,FS,4,num_6,32,num_2,1.36673488794,,,2017_Jul_31_1159,60.0062935974,FEMA4ImagesEEG,001,201057,
AFNE01.JPG,AFNE01.JPG,AFNE01.JPG,AFNE01.JPG,AFNE01.JPG,AFNE01.JPG,,,,,,,,,,,,,,,,,1,3,13,1,,,,,,,AFSA07.jpg,AFNE01.jpg,AFSA13.jpg,AFNE07.jpg,AFNE07.jpg,FN,3,num_4,32,num_8,0.81676277658,,,2017_Jul_31_1159,60.0062935974,FEMA4ImagesEEG,001,201057,
AFNE01.JPG,AFNE01.JPG,AFNE01.JPG,AFNE01.JPG,AFNE01.JPG,AFNE01.JPG,,,,,,,,,,,,,,,,,1,4,14,9,,,,,,,AFNE06.jpg,AFSA05.jpg,AFNE15.jpg,AFSA07.jpg,AFNE06.jpg,FN,3,num_8,16,num_8,0.916739715263,,,2017_Jul_31_1159,60.0062935974,FEMA4ImagesEEG,001,201057,
AFNE01.JPG,AFNE01.JPG,AFNE01.JPG,AFNE01.JPG,AFNE01.JPG,AFNE01.JPG,,,,,,,,,,,,,,,,,1,5,15,4,,,,,,,AFSA16.jpg,AFSA10.jpg,AFNE16.jpg,AFNE12.jpg,AFNE12.jpg,FN,3,num_4,16,num_4,0.800088460092,,,2017_Jul_31_1159,60.0062935974,FEMA4ImagesEEG,001,201057,
AFNE01.JPG,AFNE01.JPG,AFNE01.JPG,AFNE01.JPG,AFNE01.JPG,AFNE01.JPG,,,,,,,,,,,,,,,,,1,6,16,0,,,,,,,AFSA12.jpg,AFNE06.jpg,AFNE19.jpg,AFSA04.jpg,AFSA04.jpg,FS,4,num_4,16,num_4,0.5501574995,,,2017_Jul_31_1159,60.0062935974,FEMA4ImagesEEG,001,201057,
AFNE01.JPG,AFNE01.JPG,AFNE01.JPG,AFNE01.JPG,AFNE01.JPG,AFNE01.JPG,,,,,,,,,,,,,,,,,1,7,17,6,,,,,,,AFSA13.jpg,AFSA16.jpg,AFNE06.jpg,AFNE12.jpg,AFNE06.jpg,FN,3,num_2,32,num_6,1.90011158562,,,2017_Jul_31_1159,60.0062935974,FEMA4ImagesEEG,001,201057,
AFNE01.JPG,AFNE01.JPG,AFNE01.JPG,AFNE01.JPG,AFNE01.JPG,AFNE01.JPG,,,,,,,,,,,,,,,,,1,8,18,7,,,,,,,AFNE02.jpg,AFSA04.jpg,AFNE12.jpg,AFSA08.jpg,AFSA04.jpg,FS,4,num_6,32,num_4,1.00008082646,,,2017_Jul_31_1159,60.0062935974,FEMA4ImagesEEG,001,201057,
AFNE01.JPG,AFNE01.JPG,AFNE01.JPG,AFNE01.JPG,AFNE01.JPG,AFNE01.JPG,,,,,,,,,,,,,,,,,1,9,19,3,,,,,,,AFNE12.jpg,AFNE10.jpg,AFSA01.jpg,AFSA10.jpg,AFSA10.jpg,FS,4,num_4,16,num_4,0.766843426507,,,2017_Jul_31_1159,60.0062935974,FEMA4ImagesEEG,001,201057,
AFNE01.JPG,AFNE01.JPG,AFNE01.JPG,AFNE01.JPG,AFNE01.JPG,AFNE01.JPG,,,,,,,,,,,,,,,,,2,0,20,7,,,,,,,AFSA11.jpg,AFNE06.jpg,AFSA06.jpg,AFNE14.jpg,AFSA06.jpg,FS,4,num_2,16,num_2,1.55000546877,,,2017_Jul_31_1159,60.0062935974,FEMA4ImagesEEG,001,201057,
AFNE01.JPG,AFNE01.JPG,AFNE01.JPG,AFNE01.JPG,AFNE01.JPG,AFNE01.JPG,,,,,,,,,,,,,,,,,2,1,21,9,,,,,,,AFSA18.jpg,AFNE16.jpg,AFSA01.jpg,AFNE12.jpg,AFSA01.jpg,FS,4,num_2,32,num_6,0.966732193716,,,2017_Jul_31_1159,60.0062935974,FEMA4ImagesEEG,001,201057,
AFNE01.JPG,AFNE01.JPG,AFNE01.JPG,AFNE01.JPG,AFNE01.JPG,AFNE01.JPG,,,,,,,,,,,,,,,,,2,2,22,3,,,,,,,AFSA13.jpg,AFNE02.jpg,AFSA08.jpg,AFNE05.jpg,AFNE02.jpg,FN,3,num_6,16,num_6,0.71662642993,,,2017_Jul_31_1159,60.0062935974,FEMA4ImagesEEG,001,201057,
AFNE01.JPG,AFNE01.JPG,AFNE01.JPG,AFNE01.JPG,AFNE01.JPG,AFNE01.JPG,,,,,,,,,,,,,,,,,2,3,23,4,,,,,,,AFSA10.jpg,AFSA08.jpg,AFNE02.jpg,AFNE17.jpg,AFNE02.jpg,FN,3,num_2,32,num_8,1.11666665063,,,2017_Jul_31_1159,60.0062935974,FEMA4ImagesEEG,001,201057,
AFNE01.JPG,AFNE01.JPG,AFNE01.JPG,AFNE01.JPG,AFNE01.JPG,AFNE01.JPG,,,,,,,,,,,,,,,,,2,4,24,0,,,,,,,AFNE20.jpg,AFSA17.jpg,AFNE18.jpg,AFSA08.jpg,AFSA08.jpg,FS,4,num_4,32,num_2,1.28340821015,,,2017_Jul_31_1159,60.0062935974,FEMA4ImagesEEG,001,201057,
AFNE01.JPG,AFNE01.JPG,AFNE01.JPG,AFNE01.JPG,AFNE01.JPG,AFNE01.JPG,,,,,,,,,,,,,,,,,2,5,25,1,,,,,,,AFNE04.jpg,AFSA09.jpg,AFSA07.jpg,AFNE08.jpg,AFSA07.jpg,FS,4,num_2,32,num_4,0.733446041355,,,2017_Jul_31_1159,60.0062935974,FEMA4ImagesEEG,001,201057,
AFNE01.JPG,AFNE01.JPG,AFNE01.JPG,AFNE01.JPG,AFNE01.JPG,AFNE01.JPG,,,,,,,,,,,,,,,,,2,6,26,5,,,,,,,AFSA20.jpg,AFSA05.jpg,AFNE10.jpg,AFNE09.jpg,AFSA05.jpg,FS,4,num_6,16,num_6,0.583554563811,,,2017_Jul_31_1159,60.0062935974,FEMA4ImagesEEG,001,201057,
AFNE01.JPG,AFNE01.JPG,AFNE01.JPG,AFNE01.JPG,AFNE01.JPG,AFNE01.JPG,,,,,,,,,,,,,,,,,2,7,27,6,,,,,,,AFNE03.jpg,AFSA02.jpg,AFSA20.jpg,AFNE12.jpg,AFSA02.jpg,FS,4,num_6,32,num_8,0.716757933144,,,2017_Jul_31_1159,60.0062935974,FEMA4ImagesEEG,001,201057,
AFNE01.JPG,AFNE01.JPG,AFNE01.JPG,AFNE01.JPG,AFNE01.JPG,AFNE01.JPG,,,,,,,,,,,,,,,,,2,8,28,8,,,,,,,AFSA06.jpg,AFSA16.jpg,AFNE08.jpg,AFNE13.jpg,AFNE08.jpg,FN,3,num_2,32,num_4,1.18344666669,,,2017_Jul_31_1159,60.0062935974,FEMA4ImagesEEG,001,201057,
AFNE01.JPG,AFNE01.JPG,AFNE01.JPG,AFNE01.JPG,AFNE01.JPG,AFNE01.JPG,,,,,,,,,,,,,,,,,2,9,29,2,,,,,,,AFSA13.jpg,AFNE01.jpg,AFNE18.jpg,AFSA01.jpg,AFNE18.jpg,FN,3,num_2,32,num_8,0.900277728913,,,2017_Jul_31_1159,60.0062935974,FEMA4ImagesEEG,001,201057,
AFNE01.JPG,AFNE01.JPG,AFNE01.JPG,AFNE01.JPG,AFNE01.JPG,AFNE01.JPG,,,,,,,,,,,,,,,,,3,0,30,1,,,,,,,AFSA05.jpg,AFNE10.jpg,AFNE05.jpg,AFSA16.jpg,AFNE10.jpg,FN,3,num_6,16,num_6,0.916832409101,,,2017_Jul_31_1159,60.0062935974,FEMA4ImagesEEG,001,201057,
AFNE01.JPG,AFNE01.JPG,AFNE01.JPG,AFNE01.JPG,AFNE01.JPG,AFNE01.JPG,,,,,,,,,,,,,,,,,3,1,31,9,,,,,,,AFSA02.jpg,AFNE18.jpg,AFSA16.jpg,AFNE07.jpg,AFNE18.jpg,FN,3,num_6,16,num_6,0.600188146112,,,2017_Jul_31_1159,60.0062935974,FEMA4ImagesEEG,001,201057,
AFNE01.JPG,AFNE01.JPG,AFNE01.JPG,AFNE01.JPG,AFNE01.JPG,AFNE01.JPG,,,,,,,,,,,,,,,,,3,2,32,3,,,,,,,AFSA16.jpg,AFNE20.jpg,AFNE04.jpg,AFSA02.jpg,AFSA16.jpg,FS,4,num_8,16,num_8,0.916632908862,,,2017_Jul_31_1159,60.0062935974,FEMA4ImagesEEG,001,201057,
AFNE01.JPG,AFNE01.JPG,AFNE01.JPG,AFNE01.JPG,AFNE01.JPG,AFNE01.JPG,,,,,,,,,,,,,,,,,3,3,33,6,,,,,,,AFSA08.jpg,AFNE13.jpg,AFSA16.jpg,AFNE11.jpg,AFNE13.jpg,FN,3,num_6,32,num_8,1.16674637049,,,2017_Jul_31_1159,60.0062935974,FEMA4ImagesEEG,001,201057,
AFNE01.JPG,AFNE01.JPG,AFNE01.JPG,AFNE01.JPG,AFNE01.JPG,AFNE01.JPG,,,,,,,,,,,,,,,,,3,4,34,5,,,,,,,AFSA11.jpg,AFNE11.jpg,AFNE17.jpg,AFSA18.jpg,AFSA11.jpg,FS,4,num_8,32,num_4,1.38352659531,,,2017_Jul_31_1159,60.0062935974,FEMA4ImagesEEG,001,201057,
AFNE01.JPG,AFNE01.JPG,AFNE01.JPG,AFNE01.JPG,AFNE01.JPG,AFNE01.JPG,,,,,,,,,,,,,,,,,3,5,35,0,,,,,,,AFNE04.jpg,AFSA20.jpg,AFNE17.jpg,AFSA13.jpg,AFSA20.jpg,FS,4,num_6,32,num_4,1.16672616405,,,2017_Jul_31_1159,60.0062935974,FEMA4ImagesEEG,001,201057,
AFNE01.JPG,AFNE01.JPG,AFNE01.JPG,AFNE01.JPG,AFNE01.JPG,AFNE01.JPG,,,,,,,,,,,,,,,,,3,6,36,8,,,,,,,AFSA13.jpg,AFNE06.jpg,AFSA20.jpg,AFNE18.jpg,AFSA20.jpg,FS,4,num_2,32,num_4,0.983336588833,,,2017_Jul_31_1159,60.0062935974,FEMA4ImagesEEG,001,201057,
AFNE01.JPG,AFNE01.JPG,AFNE01.JPG,AFNE01.JPG,AFNE01.JPG,AFNE01.JPG,,,,,,,,,,,,,,,,,3,7,37,4,,,,,,,AFNE12.jpg,AFSA14.jpg,AFNE14.jpg,AFSA11.jpg,AFSA11.jpg,FS,4,num_4,16,num_4,0.683558444725,,,2017_Jul_31_1159,60.0062935974,FEMA4ImagesEEG,001,201057,
AFNE01.JPG,AFNE01.JPG,AFNE01.JPG,AFNE01.JPG,AFNE01.JPG,AFNE01.JPG,,,,,,,,,,,,,,,,,3,8,38,7,,,,,,,AFSA06.jpg,AFNE15.jpg,AFSA19.jpg,AFNE05.jpg,AFSA06.jpg,FS,4,num_8,16,num_8,0.850192556391,,,2017_Jul_31_1159,60.0062935974,FEMA4ImagesEEG,001,201057,
AFNE01.JPG,AFNE01.JPG,AFNE01.JPG,AFNE01.JPG,AFNE01.JPG,AFNE01.JPG,,,,,,,,,,,,,,,,,3,9,39,2,,,,,,,AFSA07.jpg,AFNE03.jpg,AFNE01.jpg,AFSA17.jpg,AFSA17.jpg,FS,4,num_4,32,num_8,0.916802259628,,,2017_Jul_31_1159,60.0062935974,FEMA4ImagesEEG,001,201057,
AFNE01.JPG,AFNE01.JPG,AFNE01.JPG,AFNE01.JPG,AFNE01.JPG,AFNE01.JPG,,,,,,,,,,,,,,,,,4,0,40,2,,,,,,,AFNE08.jpg,AFSA08.jpg,AFNE09.jpg,AFSA17.jpg,AFSA17.jpg,FS,4,num_4,32,num_8,0.983742325101,,,2017_Jul_31_1159,60.0062935974,FEMA4ImagesEEG,001,201057,
AFNE01.JPG,AFNE01.JPG,AFNE01.JPG,AFNE01.JPG,AFNE01.JPG,AFNE01.JPG,,,,,,,,,,,,,,,,,4,1,41,6,,,,,,,AFSA02.jpg,AFNE10.jpg,AFSA13.jpg,AFNE05.jpg,AFSA13.jpg,FS,4,num_2,32,num_4,0.866773537127,,,2017_Jul_31_1159,60.0062935974,FEMA4ImagesEEG,001,201057,
AFNE01.JPG,AFNE01.JPG,AFNE01.JPG,AFNE01.JPG,AFNE01.JPG,AFNE01.JPG,,,,,,,,,,,,,,,,,4,2,42,8,,,,,,,AFNE16.jpg,AFNE11.jpg,AFSA17.jpg,AFSA03.jpg,AFNE11.jpg,FN,3,num_6,32,num_8,0.950149288401,,,2017_Jul_31_1159,60.0062935974,FEMA4ImagesEEG,001,201057,
AFNE01.JPG,AFNE01.JPG,AFNE01.JPG,AFNE01.JPG,AFNE01.JPG,AFNE01.JPG,,,,,,,,,,,,,,,,,4,3,43,9,,,,,,,AFSA12.jpg,AFNE15.jpg,AFNE20.jpg,AFSA01.jpg,AFNE15.jpg,FN,3,num_6,16,num_6,0.583530508215,,,2017_Jul_31_1159,60.0062935974,FEMA4ImagesEEG,001,201057,
AFNE01.JPG,AFNE01.JPG,AFNE01.JPG,AFNE01.JPG,AFNE01.JPG,AFNE01.JPG,,,,,,,,,,,,,,,,,4,4,44,4,,,,,,,AFNE12.jpg,AFSA02.jpg,AFSA07.jpg,AFNE15.jpg,AFNE12.jpg,FN,3,num_8,16,num_8,0.96819701395,,,2017_Jul_31_1159,60.0062935974,FEMA4ImagesEEG,001,201057,
AFNE01.JPG,AFNE01.JPG,AFNE01.JPG,AFNE01.JPG,AFNE01.JPG,AFNE01.JPG,,,,,,,,,,,,,,,,,4,5,45,1,,,,,,,AFSA06.jpg,AFSA10.jpg,AFNE14.jpg,AFNE17.jpg,AFSA10.jpg,FS,4,num_6,32,num_8,0.900185676524,,,2017_Jul_31_1159,60.0062935974,FEMA4ImagesEEG,001,201057,
AFNE01.JPG,AFNE01.JPG,AFNE01.JPG,AFNE01.JPG,AFNE01.JPG,AFNE01.JPG,,,,,,,,,,,,,,,,,4,6,46,3,,,,,,,AFNE03.jpg,AFSA10.jpg,AFNE17.jpg,AFSA07.jpg,AFNE17.jpg,FN,3,num_2,32,num_4,1.15012337267,,,2017_Jul_31_1159,60.0062935974,FEMA4ImagesEEG,001,201057,
AFNE01.JPG,AFNE01.JPG,AFNE01.JPG,AFNE01.JPG,AFNE01.JPG,AFNE01.JPG,,,,,,,,,,,,,,,,,4,7,47,7,,,,,,,AFNE03.jpg,AFSA17.jpg,AFSA15.jpg,AFNE12.jpg,AFSA15.jpg,FS,4,num_2,16,num_2,1.51668826863,,,2017_Jul_31_1159,60.0062935974,FEMA4ImagesEEG,001,201057,
AFNE01.JPG,AFNE01.JPG,AFNE01.JPG,AFNE01.JPG,AFNE01.JPG,AFNE01.JPG,,,,,,,,,,,,,,,,,4,8,48,5,,,,,,,AFNE08.jpg,AFSA10.jpg,AFSA16.jpg,AFNE17.jpg,AFNE17.jpg,FN,3,num_4,16,num_4,1.45008048974,,,2017_Jul_31_1159,60.0062935974,FEMA4ImagesEEG,001,201057,
AFNE01.JPG,AFNE01.JPG,AFNE01.JPG,AFNE01.JPG,AFNE01.JPG,AFNE01.JPG,,,,,,,,,,,,,,,,,4,9,49,0,,,,,,,AFNE09.jpg,AFSA18.jpg,AFSA20.jpg,AFNE08.jpg,AFSA20.jpg,FS,4,num_2,32,num_6,1.01679523522,,,2017_Jul_31_1159,60.0062935974,FEMA4ImagesEEG,001,201057,
AFNE01.JPG,AFNE01.JPG,AFNE01.JPG,AFNE01.JPG,AFNE01.JPG,AFNE01.JPG,,,,,,,,,,,,,,,,,5,0,50,1,,,,,,,AFNE05.jpg,AFNE04.jpg,AFSA20.jpg,AFSA17.jpg,AFNE04.jpg,FN,3,num_6,16,num_6,0.950143835973,,,2017_Jul_31_1159,60.0062935974,FEMA4ImagesEEG,001,201057,
AFNE01.JPG,AFNE01.JPG,AFNE01.JPG,AFNE01.JPG,AFNE01.JPG,AFNE01.JPG,,,,,,,,,,,,,,,,,5,1,51,7,,,,,,,AFNE14.jpg,AFNE06.jpg,AFSA11.jpg,AFSA14.jpg,AFNE06.jpg,FN,3,num_6,16,num_6,1.06675050827,,,2017_Jul_31_1159,60.0062935974,FEMA4ImagesEEG,001,201057,
AFNE01.JPG,AFNE01.JPG,AFNE01.JPG,AFNE01.JPG,AFNE01.JPG,AFNE01.JPG,,,,,,,,,,,,,,,,,5,2,52,0,,,,,,,AFNE16.jpg,AFNE11.jpg,AFSA20.jpg,AFSA02.jpg,AFSA02.jpg,FS,4,num_4,32,num_8,0.983434414724,,,2017_Jul_31_1159,60.0062935974,FEMA4ImagesEEG,001,201057,
AFNE01.JPG,AFNE01.JPG,AFNE01.JPG,AFNE01.JPG,AFNE01.JPG,AFNE01.JPG,,,,,,,,,,,,,,,,,5,3,53,3,,,,,,,AFSA12.jpg,AFNE01.jpg,AFSA14.jpg,AFNE09.jpg,AFNE01.jpg,FN,3,num_6,32,num_8,1.16679929267,,,2017_Jul_31_1159,60.0062935974,FEMA4ImagesEEG,001,201057,
AFNE01.JPG,AFNE01.JPG,AFNE01.JPG,AFNE01.JPG,AFNE01.JPG,AFNE01.JPG,,,,,,,,,,,,,,,,,5,4,54,8,,,,,,,AFSA20.jpg,AFNE10.jpg,AFSA02.jpg,AFNE04.jpg,AFNE04.jpg,FN,3,num_4,16,num_4,0.650171323447,,,2017_Jul_31_1159,60.0062935974,FEMA4ImagesEEG,001,201057,
AFNE01.JPG,AFNE01.JPG,AFNE01.JPG,AFNE01.JPG,AFNE01.JPG,AFNE01.JPG,,,,,,,,,,,,,,,,,5,5,55,2,,,,,,,AFNE09.jpg,AFSA05.jpg,AFSA18.jpg,AFNE16.jpg,AFSA18.jpg,FS,4,num_2,16,num_2,1.60003996408,,,2017_Jul_31_1159,60.0062935974,FEMA4ImagesEEG,001,201057,
AFNE01.JPG,AFNE01.JPG,AFNE01.JPG,AFNE01.JPG,AFNE01.JPG,AFNE01.JPG,,,,,,,,,,,,,,,,,5,6,56,6,,,,,,,AFSA10.jpg,AFNE07.jpg,AFNE03.jpg,AFSA13.jpg,AFNE07.jpg,FN,3,num_6,16,num_6,0.850028658286,,,2017_Jul_31_1159,60.0062935974,FEMA4ImagesEEG,001,201057,
AFNE01.JPG,AFNE01.JPG,AFNE01.JPG,AFNE01.JPG,AFNE01.JPG,AFNE01.JPG,,,,,,,,,,,,,,,,,5,7,57,4,,,,,,,AFSA01.jpg,AFNE12.jpg,AFNE13.jpg,AFSA18.jpg,AFNE13.jpg,FN,3,num_2,32,num_8,0.633516892791,,,2017_Jul_31_1159,60.0062935974,FEMA4ImagesEEG,001,201057,
AFNE01.JPG,AFNE01.JPG,AFNE01.JPG,AFNE01.JPG,AFNE01.JPG,AFNE01.JPG,,,,,,,,,,,,,,,,,5,8,58,5,,,,,,,AFNE02.jpg,AFSA19.jpg,AFSA01.jpg,AFNE11.jpg,AFSA19.jpg,FS,4,num_6,16,num_6,0.800114119193,,,2017_Jul_31_1159,60.0062935974,FEMA4ImagesEEG,001,201057,
AFNE01.JPG,AFNE01.JPG,AFNE01.JPG,AFNE01.JPG,AFNE01.JPG,AFNE01.JPG,,,,,,,,,,,,,,,,,5,9,59,9,,,,,,,AFNE05.jpg,AFNE07.jpg,AFSA11.jpg,AFSA10.jpg,AFSA11.jpg,FS,4,num_2,32,num_8,0.78344493499,,,2017_Jul_31_1159,60.0062935974,FEMA4ImagesEEG,001,201057,
,,,,,,,,,,,,,,,,,,,,,,,,,,,,,,,,,,,,,,,,,,,space,4.16647951468,2017_Jul_31_1159,60.0062935974,FEMA4ImagesEEG,001,201057,
AFNE01.JPG,AFNE01.JPG,AFNE01.JPG,AFNE01.JPG,AFNE01.JPG,AFNE01.JPG,,,,,,,,,,,,,,,,,,,,,0,0,0,7,,,AMSA01.jpg,AMNE07.jpg,AMNE10.jpg,AMSA19.jpg,AMSA19.jpg,MS,2,num_4,32,num_6,0.833459865302,,,2017_Jul_31_1159,60.0062935974,FEMA4ImagesEEG,001,201057,
AFNE01.JPG,AFNE01.JPG,AFNE01.JPG,AFNE01.JPG,AFNE01.JPG,AFNE01.JPG,,,,,,,,,,,,,,,,,,,,,0,1,1,2,,,AMSA04.jpg,AMNE14.jpg,AMSA10.jpg,AMNE20.jpg,AMNE14.jpg,MN,1,num_6,32,num_8,0.816812170437,,,2017_Jul_31_1159,60.0062935974,FEMA4ImagesEEG,001,201057,
AFNE01.JPG,AFNE01.JPG,AFNE01.JPG,AFNE01.JPG,AFNE01.JPG,AFNE01.JPG,,,,,,,,,,,,,,,,,,,,,0,2,2,0,,,AMSA08.jpg,AMSA20.jpg,AMNE11.jpg,AMNE06.jpg,AMNE06.jpg,MN,1,num_4,16,num_4,0.933461821871,,,2017_Jul_31_1159,60.0062935974,FEMA4ImagesEEG,001,201057,
AFNE01.JPG,AFNE01.JPG,AFNE01.JPG,AFNE01.JPG,AFNE01.JPG,AFNE01.JPG,,,,,,,,,,,,,,,,,,,,,0,3,3,6,,,AMNE12.jpg,AMSA18.jpg,AMSA14.jpg,AMNE09.jpg,AMSA18.jpg,MS,2,num_6,16,num_6,0.733455984388,,,2017_Jul_31_1159,60.0062935974,FEMA4ImagesEEG,001,201057,
AFNE01.JPG,AFNE01.JPG,AFNE01.JPG,AFNE01.JPG,AFNE01.JPG,AFNE01.JPG,,,,,,,,,,,,,,,,,,,,,0,4,4,5,,,AMNE02.jpg,AMSA19.jpg,AMNE17.jpg,AMSA02.jpg,AMSA19.jpg,MS,2,num_6,32,num_8,0.733477153117,,,2017_Jul_31_1159,60.0062935974,FEMA4ImagesEEG,001,201057,
AFNE01.JPG,AFNE01.JPG,AFNE01.JPG,AFNE01.JPG,AFNE01.JPG,AFNE01.JPG,,,,,,,,,,,,,,,,,,,,,0,5,5,8,,,AMSA05.jpg,AMNE07.jpg,AMNE09.jpg,AMSA03.jpg,AMNE07.jpg,MN,1,num_6,16,num_6,0.983392077032,,,2017_Jul_31_1159,60.0062935974,FEMA4ImagesEEG,001,201057,
AFNE01.JPG,AFNE01.JPG,AFNE01.JPG,AFNE01.JPG,AFNE01.JPG,AFNE01.JPG,,,,,,,,,,,,,,,,,,,,,0,6,6,1,,,AMNE14.jpg,AMSA09.jpg,AMSA07.jpg,AMNE09.jpg,AMNE09.jpg,MN,1,num_4,16,num_4,0.583520244574,,,2017_Jul_31_1159,60.0062935974,FEMA4ImagesEEG,001,201057,
AFNE01.JPG,AFNE01.JPG,AFNE01.JPG,AFNE01.JPG,AFNE01.JPG,AFNE01.JPG,,,,,,,,,,,,,,,,,,,,,0,7,7,4,,,AMNE20.jpg,AMNE01.jpg,AMSA10.jpg,AMSA15.jpg,AMSA10.jpg,MS,2,num_2,32,num_8,0.933444181224,,,2017_Jul_31_1159,60.0062935974,FEMA4ImagesEEG,001,201057,
AFNE01.JPG,AFNE01.JPG,AFNE01.JPG,AFNE01.JPG,AFNE01.JPG,AFNE01.JPG,,,,,,,,,,,,,,,,,,,,,0,8,8,3,,,AMSA07.jpg,AMNE04.jpg,AMNE15.jpg,AMSA09.jpg,AMSA07.jpg,MS,2,num_8,32,num_6,0.766629492864,,,2017_Jul_31_1159,60.0062935974,FEMA4ImagesEEG,001,201057,
AFNE01.JPG,AFNE01.JPG,AFNE01.JPG,AFNE01.JPG,AFNE01.JPG,AFNE01.JPG,,,,,,,,,,,,,,,,,,,,,0,9,9,9,,,AMNE19.jpg,AMSA12.jpg,AMSA02.jpg,AMNE17.jpg,AMSA02.jpg,MS,2,num_2,16,num_2,0.883435023949,,,2017_Jul_31_1159,60.0062935974,FEMA4ImagesEEG,001,201057,
AFNE01.JPG,AFNE01.JPG,AFNE01.JPG,AFNE01.JPG,AFNE01.JPG,AFNE01.JPG,,,,,,,,,,,,,,,,,,,,,1,0,10,0,,,AMSA13.jpg,AMNE07.jpg,AMNE04.jpg,AMSA11.jpg,AMNE04.jpg,MN,1,num_2,32,num_4,1.65014406038,,,2017_Jul_31_1159,60.0062935974,FEMA4ImagesEEG,001,201057,
AFNE01.JPG,AFNE01.JPG,AFNE01.JPG,AFNE01.JPG,AFNE01.JPG,AFNE01.JPG,,,,,,,,,,,,,,,,,,,,,1,1,11,8,,,AMNE10.jpg,AMSA17.jpg,AMSA09.jpg,AMNE15.jpg,AMSA17.jpg,MS,2,num_6,16,num_6,1.00010680663,,,2017_Jul_31_1159,60.0062935974,FEMA4ImagesEEG,001,201057,
AFNE01.JPG,AFNE01.JPG,AFNE01.JPG,AFNE01.JPG,AFNE01.JPG,AFNE01.JPG,,,,,,,,,,,,,,,,,,,,,1,2,12,5,,,AMSA04.jpg,AMNE18.jpg,AMNE01.jpg,AMSA18.jpg,AMSA18.jpg,MS,2,num_4,16,num_4,0.816776889144,,,2017_Jul_31_1159,60.0062935974,FEMA4ImagesEEG,001,201057,
AFNE01.JPG,AFNE01.JPG,AFNE01.JPG,AFNE01.JPG,AFNE01.JPG,AFNE01.JPG,,,,,,,,,,,,,,,,,,,,,1,3,13,4,,,AMNE17.jpg,AMSA05.jpg,AMSA14.jpg,AMNE20.jpg,AMNE20.jpg,MN,1,num_4,32,num_8,0.783488876419,,,2017_Jul_31_1159,60.0062935974,FEMA4ImagesEEG,001,201057,
AFNE01.JPG,AFNE01.JPG,AFNE01.JPG,AFNE01.JPG,AFNE01.JPG,AFNE01.JPG,,,,,,,,,,,,,,,,,,,,,1,4,14,6,,,AMSA06.jpg,AMNE13.jpg,AMSA14.jpg,AMNE20.jpg,AMNE20.jpg,MN,1,num_4,32,num_6,0.766761958599,,,2017_Jul_31_1159,60.0062935974,FEMA4ImagesEEG,001,201057,
AFNE01.JPG,AFNE01.JPG,AFNE01.JPG,AFNE01.JPG,AFNE01.JPG,AFNE01.JPG,,,,,,,,,,,,,,,,,,,,,1,5,15,7,,,AMNE11.jpg,AMNE03.jpg,AMSA05.jpg,AMSA19.jpg,AMNE11.jpg,MN,1,num_8,16,num_8,1.30007803603,,,2017_Jul_31_1159,60.0062935974,FEMA4ImagesEEG,001,201057,
AFNE01.JPG,AFNE01.JPG,AFNE01.JPG,AFNE01.JPG,AFNE01.JPG,AFNE01.JPG,,,,,,,,,,,,,,,,,,,,,1,6,16,2,,,AMSA01.jpg,AMNE10.jpg,AMSA18.jpg,AMNE19.jpg,AMSA01.jpg,MS,2,num_8,32,num_2,1.19989454071,,,2017_Jul_31_1159,60.0062935974,FEMA4ImagesEEG,001,201057,
AFNE01.JPG,AFNE01.JPG,AFNE01.JPG,AFNE01.JPG,AFNE01.JPG,AFNE01.JPG,,,,,,,,,,,,,,,,,,,,,1,7,17,1,,,AMNE16.jpg,AMSA05.jpg,AMNE17.jpg,AMSA17.jpg,AMNE17.jpg,MN,1,num_2,32,num_8,0.683490768541,,,2017_Jul_31_1159,60.0062935974,FEMA4ImagesEEG,001,201057,
AFNE01.JPG,AFNE01.JPG,AFNE01.JPG,AFNE01.JPG,AFNE01.JPG,AFNE01.JPG,,,,,,,,,,,,,,,,,,,,,1,8,18,3,,,AMNE04.jpg,AMSA09.jpg,AMSA14.jpg,AMNE05.jpg,AMSA09.jpg,MS,2,num_6,32,num_8,1.28341687005,,,2017_Jul_31_1159,60.0062935974,FEMA4ImagesEEG,001,201057,
AFNE01.JPG,AFNE01.JPG,AFNE01.JPG,AFNE01.JPG,AFNE01.JPG,AFNE01.JPG,,,,,,,,,,,,,,,,,,,,,1,9,19,9,,,AMSA08.jpg,AMNE17.jpg,AMNE03.jpg,AMSA15.jpg,AMNE17.jpg,MN,1,num_6,32,num_2,1.4167450075,,,2017_Jul_31_1159,60.0062935974,FEMA4ImagesEEG,001,201057,
AFNE01.JPG,AFNE01.JPG,AFNE01.JPG,AFNE01.JPG,AFNE01.JPG,AFNE01.JPG,,,,,,,,,,,,,,,,,,,,,2,0,20,5,,,AMNE04.jpg,AMNE19.jpg,AMSA17.jpg,AMSA12.jpg,AMNE19.jpg,MN,1,num_6,32,num_8,1.98314093729,,,2017_Jul_31_1159,60.0062935974,FEMA4ImagesEEG,001,201057,
AFNE01.JPG,AFNE01.JPG,AFNE01.JPG,AFNE01.JPG,AFNE01.JPG,AFNE01.JPG,,,,,,,,,,,,,,,,,,,,,2,1,21,9,,,AMSA11.jpg,AMNE08.jpg,AMSA01.jpg,AMNE11.jpg,AMNE08.jpg,MN,1,num_6,32,num_8,0.933412748622,,,2017_Jul_31_1159,60.0062935974,FEMA4ImagesEEG,001,201057,
AFNE01.JPG,AFNE01.JPG,AFNE01.JPG,AFNE01.JPG,AFNE01.JPG,AFNE01.JPG,,,,,,,,,,,,,,,,,,,,,2,2,22,7,,,AMNE09.jpg,AMNE15.jpg,AMSA04.jpg,AMSA07.jpg,AMNE09.jpg,MN,1,num_8,16,num_8,1.13342628395,,,2017_Jul_31_1159,60.0062935974,FEMA4ImagesEEG,001,201057,
AFNE01.JPG,AFNE01.JPG,AFNE01.JPG,AFNE01.JPG,AFNE01.JPG,AFNE01.JPG,,,,,,,,,,,,,,,,,,,,,2,3,23,6,,,AMSA07.jpg,AMNE02.jpg,AMNE01.jpg,AMSA04.jpg,AMNE01.jpg,MN,1,num_2,32,num_6,0.683502315311,,,2017_Jul_31_1159,60.0062935974,FEMA4ImagesEEG,001,201057,
AFNE01.JPG,AFNE01.JPG,AFNE01.JPG,AFNE01.JPG,AFNE01.JPG,AFNE01.JPG,,,,,,,,,,,,,,,,,,,,,2,4,24,2,,,AMSA08.jpg,AMSA11.jpg,AMNE05.jpg,AMNE14.jpg,AMSA11.jpg,MS,2,num_6,32,num_8,0.71678198874,,,2017_Jul_31_1159,60.0062935974,FEMA4ImagesEEG,001,201057,
AFNE01.JPG,AFNE01.JPG,AFNE01.JPG,AFNE01.JPG,AFNE01.JPG,AFNE01.JPG,,,,,,,,,,,,,,,,,,,,,2,5,25,8,,,AMNE14.jpg,AMSA06.jpg,AMSA15.jpg,AMNE09.jpg,AMSA06.jpg,MS,2,num_6,16,num_6,0.98345173453,,,2017_Jul_31_1159,60.0062935974,FEMA4ImagesEEG,001,201057,
AFNE01.JPG,AFNE01.JPG,AFNE01.JPG,AFNE01.JPG,AFNE01.JPG,AFNE01.JPG,,,,,,,,,,,,,,,,,,,,,2,6,26,0,,,AMNE02.jpg,AMNE01.jpg,AMSA07.jpg,AMSA13.jpg,AMNE02.jpg,MN,1,num_8,32,num_6,0.666736267274,,,2017_Jul_31_1159,60.0062935974,FEMA4ImagesEEG,001,201057,
AFNE01.JPG,AFNE01.JPG,AFNE01.JPG,AFNE01.JPG,AFNE01.JPG,AFNE01.JPG,,,,,,,,,,,,,,,,,,,,,2,7,27,3,,,AMSA20.jpg,AMNE08.jpg,AMSA15.jpg,AMNE15.jpg,AMSA15.jpg,MS,2,num_2,16,num_2,1.15008360101,,,2017_Jul_31_1159,60.0062935974,FEMA4ImagesEEG,001,201057,
AFNE01.JPG,AFNE01.JPG,AFNE01.JPG,AFNE01.JPG,AFNE01.JPG,AFNE01.JPG,,,,,,,,,,,,,,,,,,,,,2,8,28,4,,,AMNE01.jpg,AMSA20.jpg,AMSA02.jpg,AMNE08.jpg,AMSA02.jpg,MS,2,num_2,32,num_8,0.616808578139,,,2017_Jul_31_1159,60.0062935974,FEMA4ImagesEEG,001,201057,
AFNE01.JPG,AFNE01.JPG,AFNE01.JPG,AFNE01.JPG,AFNE01.JPG,AFNE01.JPG,,,,,,,,,,,,,,,,,,,,,2,9,29,1,,,AMSA05.jpg,AMNE20.jpg,AMNE12.jpg,AMSA01.jpg,AMSA05.jpg,MS,2,num_8,16,num_8,0.900204920908,,,2017_Jul_31_1159,60.0062935974,FEMA4ImagesEEG,001,201057,
AFNE01.JPG,AFNE01.JPG,AFNE01.JPG,AFNE01.JPG,AFNE01.JPG,AFNE01.JPG,,,,,,,,,,,,,,,,,,,,,3,0,30,3,,,AMNE12.jpg,AMSA13.jpg,AMNE19.jpg,AMSA11.jpg,AMNE12.jpg,MN,1,num_8,16,num_8,0.816768870689,,,2017_Jul_31_1159,60.0062935974,FEMA4ImagesEEG,001,201057,
AFNE01.JPG,AFNE01.JPG,AFNE01.JPG,AFNE01.JPG,AFNE01.JPG,AFNE01.JPG,,,,,,,,,,,,,,,,,,,,,3,1,31,9,,,AMSA07.jpg,AMNE13.jpg,AMNE02.jpg,AMSA06.jpg,AMNE02.jpg,MN,1,num_2,16,num_2,0.650140853133,,,2017_Jul_31_1159,60.0062935974,FEMA4ImagesEEG,001,201057,
AFNE01.JPG,AFNE01.JPG,AFNE01.JPG,AFNE01.JPG,AFNE01.JPG,AFNE01.JPG,,,,,,,,,,,,,,,,,,,,,3,2,32,8,,,AMSA03.jpg,AMNE08.jpg,AMNE17.jpg,AMSA06.jpg,AMNE08.jpg,MN,1,num_6,16,num_6,0.666801056825,,,2017_Jul_31_1159,60.0062935974,FEMA4ImagesEEG,001,201057,
AFNE01.JPG,AFNE01.JPG,AFNE01.JPG,AFNE01.JPG,AFNE01.JPG,AFNE01.JPG,,,,,,,,,,,,,,,,,,,,,3,3,33,6,,,AMSA19.jpg,AMSA11.jpg,AMNE01.jpg,AMNE06.jpg,AMSA11.jpg,MS,2,num_6,32,num_8,0.550133443903,,,2017_Jul_31_1159,60.0062935974,FEMA4ImagesEEG,001,201057,
AFNE01.JPG,AFNE01.JPG,AFNE01.JPG,AFNE01.JPG,AFNE01.JPG,AFNE01.JPG,,,,,,,,,,,,,,,,,,,,,3,4,34,4,,,AMSA04.jpg,AMNE19.jpg,AMSA14.jpg,AMNE12.jpg,AMSA14.jpg,MS,2,num_2,32,num_4,1.30008316808,,,2017_Jul_31_1159,60.0062935974,FEMA4ImagesEEG,001,201057,
AFNE01.JPG,AFNE01.JPG,AFNE01.JPG,AFNE01.JPG,AFNE01.JPG,AFNE01.JPG,,,,,,,,,,,,,,,,,,,,,3,5,35,0,,,AMNE04.jpg,AMSA11.jpg,AMSA17.jpg,AMNE03.jpg,AMNE04.jpg,MN,1,num_8,16,num_8,0.900128905429,,,2017_Jul_31_1159,60.0062935974,FEMA4ImagesEEG,001,201057,
AFNE01.JPG,AFNE01.JPG,AFNE01.JPG,AFNE01.JPG,AFNE01.JPG,AFNE01.JPG,,,,,,,,,,,,,,,,,,,,,3,6,36,7,,,AMNE14.jpg,AMSA14.jpg,AMNE18.jpg,AMSA05.jpg,AMSA05.jpg,MS,2,num_4,32,num_8,0.733476190828,,,2017_Jul_31_1159,60.0062935974,FEMA4ImagesEEG,001,201057,
AFNE01.JPG,AFNE01.JPG,AFNE01.JPG,AFNE01.JPG,AFNE01.JPG,AFNE01.JPG,,,,,,,,,,,,,,,,,,,,,3,7,37,2,,,AMNE03.jpg,AMSA17.jpg,AMNE16.jpg,AMSA20.jpg,AMNE16.jpg,MN,1,num_2,32,num_8,0.999971774872,,,2017_Jul_31_1159,60.0062935974,FEMA4ImagesEEG,001,201057,
AFNE01.JPG,AFNE01.JPG,AFNE01.JPG,AFNE01.JPG,AFNE01.JPG,AFNE01.JPG,,,,,,,,,,,,,,,,,,,,,3,8,38,1,,,AMNE03.jpg,AMNE01.jpg,AMSA12.jpg,AMSA16.jpg,AMSA12.jpg,MS,2,num_2,32,num_8,0.86664299597,,,2017_Jul_31_1159,60.0062935974,FEMA4ImagesEEG,001,201057,
