IPosition2,IPosition3,IPosition1,IPosition6,IPosition4,IPosition5,TrialsM1.thisRepN,TrialsM1.thisTrialN,TrialsM1.thisN,TrialsM1.thisIndex,TrialsF1.thisRepN,TrialsF1.thisTrialN,TrialsF1.thisN,TrialsF1.thisIndex,TrialsM2.thisRepN,TrialsM2.thisTrialN,TrialsM2.thisN,TrialsM2.thisIndex,TrialsF2.thisRepN,TrialsF2.thisTrialN,TrialsF2.thisN,TrialsF2.thisIndex,TrialsM3.thisRepN,TrialsM3.thisTrialN,TrialsM3.thisN,TrialsM3.thisIndex,TrialsF3.thisRepN,TrialsF3.thisTrialN,TrialsF3.thisN,TrialsF3.thisIndex,InstrKey_resp.keys,InstrKey_resp.rt,Image0 _Position,Image1 _Position,Image2 _Position,Image3 _Position,Center_image,condition,code,correct_answer,accuracy,Key_Resp.keys,Key_Resp.rt,BreakKey_resp.keys,BreakKey_resp.rt,date,frameRate,expName,session,participant,
,,,,,,,,,,,,,,,,,,,,,,,,,,,,,,space,12.4160317892,,,,,,,,,,,,,,2017_Aug_16_1137,60.0137628815,MAFE4ImagesEEG,001,201126,
AFSA21.JPG,AFNE23.JPG,AFNE21.JPG,AFSA25.JPG,AFNE25.JPG,AFSA23.JPG,0,0,0,4,,,,,,,,,,,,,,,,,,,,,,,AMSA20.jpg,AMNE20.jpg,AMSA05.jpg,AMNE03.jpg,AMNE20.jpg,MN,1,num_6,16,num_6,0.966787403799,,,2017_Aug_16_1137,60.0137628815,MAFE4ImagesEEG,001,201126,
AMNE22.JPG,AMSA24.JPG,AMSA22.JPG,AMNE25.JPG,AMNE24.JPG,AMSA25.JPG,0,1,1,7,,,,,,,,,,,,,,,,,,,,,,,AMNE15.jpg,AMSA08.jpg,AMNE10.jpg,AMSA02.jpg,AMNE10.jpg,MN,1,num_2,16,num_2,0.716759579605,,,2017_Aug_16_1137,60.0137628815,MAFE4ImagesEEG,001,201126,
AMSA21.JPG,AMNE22.JPG,AMNE21.JPG,AMSA23.JPG,AMSA22.JPG,AMNE23.JPG,0,2,2,1,,,,,,,,,,,,,,,,,,,,,,,AMSA20.jpg,AMNE09.jpg,AMNE04.jpg,AMSA02.jpg,AMNE04.jpg,MN,1,num_2,32,num_6,0.583492233127,,,2017_Aug_16_1137,60.0137628815,MAFE4ImagesEEG,001,201126,
AFNE23.JPG,AFNE24.JPG,AFNE22.JPG,AFSA24.JPG,AFSA22.JPG,AFSA23.JPG,0,3,3,8,,,,,,,,,,,,,,,,,,,,,,,AMNE20.jpg,AMNE03.jpg,AMSA12.jpg,AMSA16.jpg,AMSA12.jpg,MS,2,num_2,16,num_2,1.43337546784,,,2017_Aug_16_1137,60.0137628815,MAFE4ImagesEEG,001,201126,
AFSA25.JPG,AFNE24.JPG,AFSA24.JPG,AFNE21.JPG,AFSA21.JPG,AFNE25.JPG,0,4,4,2,,,,,,,,,,,,,,,,,,,,,,,AMSA17.jpg,AMNE04.jpg,AMNE14.jpg,AMSA03.jpg,AMSA03.jpg,MS,2,num_4,16,num_4,0.733480702533,,,2017_Aug_16_1137,60.0137628815,MAFE4ImagesEEG,001,201126,
AFNE22.JPG,AFSA24.JPG,AFSA22.JPG,AFNE25.JPG,AFNE24.JPG,AFSA25.JPG,0,5,5,6,,,,,,,,,,,,,,,,,,,,,,,AMNE10.jpg,AMSA19.jpg,AMNE20.jpg,AMSA16.jpg,AMNE20.jpg,MN,1,num_2,16,num_2,0.600172942854,,,2017_Aug_16_1137,60.0137628815,MAFE4ImagesEEG,001,201126,
AFSA21.JPG,AFNE22.JPG,AFNE21.JPG,AFSA23.JPG,AFSA22.JPG,AFNE23.JPG,0,6,6,0,,,,,,,,,,,,,,,,,,,,,,,AMSA03.jpg,AMNE02.jpg,AMNE13.jpg,AMSA09.jpg,AMSA03.jpg,MS,2,num_8,16,num_8,0.750087000633,,,2017_Aug_16_1137,60.0137628815,MAFE4ImagesEEG,001,201126,
AMSA25.JPG,AMNE24.JPG,AMSA24.JPG,AMNE26.JPG,AMSA21.JPG,AMNE25.JPG,0,7,7,3,,,,,,,,,,,,,,,,,,,,,,,AMSA14.jpg,AMNE13.jpg,AMSA12.jpg,AMNE20.jpg,AMSA14.jpg,MS,2,num_8,16,num_8,0.53318934259,,,2017_Aug_16_1137,60.0137628815,MAFE4ImagesEEG,001,201126,
AMNE23.JPG,AMNE24.JPG,AMNE22.JPG,AMSA24.JPG,AMSA22.JPG,AMSA23.JPG,0,8,8,9,,,,,,,,,,,,,,,,,,,,,,,AMSA14.jpg,AMNE19.jpg,AMNE12.jpg,AMSA08.jpg,AMSA14.jpg,MS,2,num_8,16,num_8,0.833468738943,,,2017_Aug_16_1137,60.0137628815,MAFE4ImagesEEG,001,201126,
AMSA21.JPG,AMNE23.JPG,AMNE21.JPG,AMSA25.JPG,AMNE25.JPG,AMSA23.JPG,0,9,9,5,,,,,,,,,,,,,,,,,,,,,,,AMSA16.jpg,AMNE13.jpg,AMSA06.jpg,AMNE01.jpg,AMSA06.jpg,MS,2,num_2,32,num_8,1.51671101965,,,2017_Aug_16_1137,60.0137628815,MAFE4ImagesEEG,001,201126,
AMNE22.JPG,AMSA24.JPG,AMSA22.JPG,AMNE25.JPG,AMNE24.JPG,AMSA25.JPG,,,,,0,0,0,7,,,,,,,,,,,,,,,,,,,AFSA11.jpg,AFSA07.jpg,AFNE14.jpg,AFNE20.jpg,AFNE14.jpg,FN,3,num_2,16,num_2,1.03345828282,,,2017_Aug_16_1137,60.0137628815,MAFE4ImagesEEG,001,201126,
AMSA21.JPG,AMNE23.JPG,AMNE21.JPG,AMSA25.JPG,AMNE25.JPG,AMSA23.JPG,,,,,0,1,1,5,,,,,,,,,,,,,,,,,,,AFSA18.jpg,AFNE19.jpg,AFNE01.jpg,AFSA17.jpg,AFSA18.jpg,FS,4,num_8,32,num_6,1.31670543874,,,2017_Aug_16_1137,60.0137628815,MAFE4ImagesEEG,001,201126,
AFSA21.JPG,AFNE22.JPG,AFNE21.JPG,AFSA23.JPG,AFSA22.JPG,AFNE23.JPG,,,,,0,2,2,0,,,,,,,,,,,,,,,,,,,AFSA04.jpg,AFNE06.jpg,AFSA07.jpg,AFNE16.jpg,AFSA07.jpg,FS,4,num_2,16,num_2,1.01675031023,,,2017_Aug_16_1137,60.0137628815,MAFE4ImagesEEG,001,201126,
AFSA21.JPG,AFNE23.JPG,AFNE21.JPG,AFSA25.JPG,AFNE25.JPG,AFSA23.JPG,,,,,0,3,3,4,,,,,,,,,,,,,,,,,,,AFNE02.jpg,AFNE13.jpg,AFSA08.jpg,AFSA01.jpg,AFSA08.jpg,FS,4,num_2,32,num_6,1.08343081147,,,2017_Aug_16_1137,60.0137628815,MAFE4ImagesEEG,001,201126,
AMSA21.JPG,AMNE22.JPG,AMNE21.JPG,AMSA23.JPG,AMSA22.JPG,AMNE23.JPG,,,,,0,4,4,1,,,,,,,,,,,,,,,,,,,AFSA14.jpg,AFSA03.jpg,AFNE06.jpg,AFNE04.jpg,AFSA03.jpg,FS,4,num_6,32,num_8,0.86675478454,,,2017_Aug_16_1137,60.0137628815,MAFE4ImagesEEG,001,201126,
AFSA25.JPG,AFNE24.JPG,AFSA24.JPG,AFNE21.JPG,AFSA21.JPG,AFNE25.JPG,,,,,0,5,5,2,,,,,,,,,,,,,,,,,,,AFSA10.jpg,AFSA16.jpg,AFNE03.jpg,AFNE02.jpg,AFSA16.jpg,FS,4,num_6,32,num_2,0.866745162377,,,2017_Aug_16_1137,60.0137628815,MAFE4ImagesEEG,001,201126,
AFNE23.JPG,AFNE24.JPG,AFNE22.JPG,AFSA24.JPG,AFSA22.JPG,AFSA23.JPG,,,,,0,6,6,8,,,,,,,,,,,,,,,,,,,AFSA15.jpg,AFNE09.jpg,AFSA16.jpg,AFNE12.jpg,AFNE12.jpg,FN,3,num_4,32,num_8,1.08343466037,,,2017_Aug_16_1137,60.0137628815,MAFE4ImagesEEG,001,201126,
AFNE22.JPG,AFSA24.JPG,AFSA22.JPG,AFNE25.JPG,AFNE24.JPG,AFSA25.JPG,,,,,0,7,7,6,,,,,,,,,,,,,,,,,,,AFSA12.jpg,AFSA01.jpg,AFNE10.jpg,AFNE02.jpg,AFSA01.jpg,FS,4,num_6,32,num_8,1.13344728146,,,2017_Aug_16_1137,60.0137628815,MAFE4ImagesEEG,001,201126,
AMNE23.JPG,AMNE24.JPG,AMNE22.JPG,AMSA24.JPG,AMSA22.JPG,AMSA23.JPG,,,,,0,8,8,9,,,,,,,,,,,,,,,,,,,AFNE12.jpg,AFSA07.jpg,AFNE08.jpg,AFSA14.jpg,AFNE12.jpg,FN,3,num_8,32,num_6,0.966453513771,,,2017_Aug_16_1137,60.0137628815,MAFE4ImagesEEG,001,201126,
AMSA25.JPG,AMNE24.JPG,AMSA24.JPG,AMNE26.JPG,AMSA21.JPG,AMNE25.JPG,,,,,0,9,9,3,,,,,,,,,,,,,,,,,,,AFNE20.jpg,AFSA14.jpg,AFNE09.jpg,AFSA16.jpg,AFNE09.jpg,FN,3,num_2,32,num_8,1.85008081034,,,2017_Aug_16_1137,60.0137628815,MAFE4ImagesEEG,001,201126,
AFNE22.JPG,AFSA24.JPG,AFSA22.JPG,AFNE25.JPG,AFNE24.JPG,AFSA25.JPG,,,,,,,,,0,0,0,6,,,,,,,,,,,,,,,AMSA16.jpg,AMNE01.jpg,AMNE16.jpg,AMSA07.jpg,AMSA07.jpg,MS,2,num_4,16,num_4,0.516781261627,,,2017_Aug_16_1137,60.0137628815,MAFE4ImagesEEG,001,201126,
AMSA21.JPG,AMNE23.JPG,AMNE21.JPG,AMSA25.JPG,AMNE25.JPG,AMSA23.JPG,,,,,,,,,0,1,1,5,,,,,,,,,,,,,,,AMNE12.jpg,AMSA05.jpg,AMSA04.jpg,AMNE07.jpg,AMNE07.jpg,MN,1,num_4,32,num_8,0.800123356486,,,2017_Aug_16_1137,60.0137628815,MAFE4ImagesEEG,001,201126,
AFSA25.JPG,AFNE24.JPG,AFSA24.JPG,AFNE21.JPG,AFSA21.JPG,AFNE25.JPG,,,,,,,,,0,2,2,2,,,,,,,,,,,,,,,AMNE15.jpg,AMNE02.jpg,AMSA03.jpg,AMSA04.jpg,AMSA03.jpg,MS,2,num_2,32,num_8,1.03344898138,,,2017_Aug_16_1137,60.0137628815,MAFE4ImagesEEG,001,201126,
AMNE23.JPG,AMNE24.JPG,AMNE22.JPG,AMSA24.JPG,AMSA22.JPG,AMSA23.JPG,,,,,,,,,0,3,3,9,,,,,,,,,,,,,,,AMSA18.jpg,AMNE17.jpg,AMSA14.jpg,AMNE19.jpg,AMSA18.jpg,MS,2,num_8,16,num_8,0.916765481234,,,2017_Aug_16_1137,60.0137628815,MAFE4ImagesEEG,001,201126,
AMSA21.JPG,AMNE22.JPG,AMNE21.JPG,AMSA23.JPG,AMSA22.JPG,AMNE23.JPG,,,,,,,,,0,4,4,1,,,,,,,,,,,,,,,AMNE07.jpg,AMNE20.jpg,AMSA19.jpg,AMSA16.jpg,AMNE20.jpg,MN,1,num_6,16,num_6,1.4000746682,,,2017_Aug_16_1137,60.0137628815,MAFE4ImagesEEG,001,201126,
AFNE23.JPG,AFNE24.JPG,AFNE22.JPG,AFSA24.JPG,AFSA22.JPG,AFSA23.JPG,,,,,,,,,0,5,5,8,,,,,,,,,,,,,,,AMNE10.jpg,AMNE20.jpg,AMSA19.jpg,AMSA01.jpg,AMSA01.jpg,MS,2,num_4,16,num_4,0.566778807959,,,2017_Aug_16_1137,60.0137628815,MAFE4ImagesEEG,001,201126,
AFSA21.JPG,AFNE22.JPG,AFNE21.JPG,AFSA23.JPG,AFSA22.JPG,AFNE23.JPG,,,,,,,,,0,6,6,0,,,,,,,,,,,,,,,AMSA12.jpg,AMNE17.jpg,AMSA11.jpg,AMNE07.jpg,AMSA12.jpg,MS,2,num_8,16,num_8,0.716773050663,,,2017_Aug_16_1137,60.0137628815,MAFE4ImagesEEG,001,201126,
AMNE22.JPG,AMSA24.JPG,AMSA22.JPG,AMNE25.JPG,AMNE24.JPG,AMSA25.JPG,,,,,,,,,0,7,7,7,,,,,,,,,,,,,,,AMSA08.jpg,AMSA20.jpg,AMNE11.jpg,AMNE12.jpg,AMSA20.jpg,MS,2,num_6,32,num_2,1.28342484572,,,2017_Aug_16_1137,60.0137628815,MAFE4ImagesEEG,001,201126,
AMSA25.JPG,AMNE24.JPG,AMSA24.JPG,AMNE26.JPG,AMSA21.JPG,AMNE25.JPG,,,,,,,,,0,8,8,3,,,,,,,,,,,,,,,AMNE13.jpg,AMNE03.jpg,AMSA10.jpg,AMSA14.jpg,AMSA10.jpg,MS,2,num_2,32,num_6,1.28344024121,,,2017_Aug_16_1137,60.0137628815,MAFE4ImagesEEG,001,201126,
AFSA21.JPG,AFNE23.JPG,AFNE21.JPG,AFSA25.JPG,AFNE25.JPG,AFSA23.JPG,,,,,,,,,0,9,9,4,,,,,,,,,,,,,,,AMNE03.jpg,AMSA20.jpg,AMSA15.jpg,AMNE20.jpg,AMNE20.jpg,MN,1,num_4,32,num_8,1.53308959253,,,2017_Aug_16_1137,60.0137628815,MAFE4ImagesEEG,001,201126,
AMSA21.JPG,AMNE23.JPG,AMNE21.JPG,AMSA25.JPG,AMNE25.JPG,AMSA23.JPG,,,,,,,,,,,,,0,0,0,5,,,,,,,,,,,AFNE10.jpg,AFNE18.jpg,AFSA14.jpg,AFSA08.jpg,AFNE18.jpg,FN,3,num_6,16,num_6,0.80006530261,,,2017_Aug_16_1137,60.0137628815,MAFE4ImagesEEG,001,201126,
AMSA25.JPG,AMNE24.JPG,AMSA24.JPG,AMNE26.JPG,AMSA21.JPG,AMNE25.JPG,,,,,,,,,,,,,0,1,1,3,,,,,,,,,,,AFSA09.jpg,AFNE17.jpg,AFSA04.jpg,AFNE07.jpg,AFSA09.jpg,FS,4,num_8,16,num_8,0.6334753462,,,2017_Aug_16_1137,60.0137628815,MAFE4ImagesEEG,001,201126,
AMNE22.JPG,AMSA24.JPG,AMSA22.JPG,AMNE25.JPG,AMNE24.JPG,AMSA25.JPG,,,,,,,,,,,,,0,2,2,7,,,,,,,,,,,AFNE09.jpg,AFSA04.jpg,AFSA10.jpg,AFNE15.jpg,AFSA04.jpg,FS,4,num_6,32,num_8,0.950106052565,,,2017_Aug_16_1137,60.0137628815,MAFE4ImagesEEG,001,201126,
AFNE23.JPG,AFNE24.JPG,AFNE22.JPG,AFSA24.JPG,AFSA22.JPG,AFSA23.JPG,,,,,,,,,,,,,0,3,3,8,,,,,,,,,,,AFSA02.jpg,AFSA03.jpg,AFNE01.jpg,AFNE06.jpg,AFSA03.jpg,FS,4,num_6,16,num_6,0.866753822338,,,2017_Aug_16_1137,60.0137628815,MAFE4ImagesEEG,001,201126,
AFSA25.JPG,AFNE24.JPG,AFSA24.JPG,AFNE21.JPG,AFSA21.JPG,AFNE25.JPG,,,,,,,,,,,,,0,4,4,2,,,,,,,,,,,AFNE14.jpg,AFSA18.jpg,AFSA11.jpg,AFNE05.jpg,AFSA11.jpg,FS,4,num_2,16,num_2,1.05009793787,,,2017_Aug_16_1137,60.0137628815,MAFE4ImagesEEG,001,201126,
AFSA21.JPG,AFNE23.JPG,AFNE21.JPG,AFSA25.JPG,AFNE25.JPG,AFSA23.JPG,,,,,,,,,,,,,0,5,5,4,,,,,,,,,,,AFNE05.jpg,AFSA19.jpg,AFSA02.jpg,AFNE14.jpg,AFSA19.jpg,FS,4,num_6,16,num_6,1.31656014366,,,2017_Aug_16_1137,60.0137628815,MAFE4ImagesEEG,001,201126,
AFNE22.JPG,AFSA24.JPG,AFSA22.JPG,AFNE25.JPG,AFNE24.JPG,AFSA25.JPG,,,,,,,,,,,,,0,6,6,6,,,,,,,,,,,AFNE04.jpg,AFNE05.jpg,AFSA04.jpg,AFSA08.jpg,AFNE05.jpg,FN,3,num_6,32,num_2,0.983444058045,,,2017_Aug_16_1137,60.0137628815,MAFE4ImagesEEG,001,201126,
AFSA21.JPG,AFNE22.JPG,AFNE21.JPG,AFSA23.JPG,AFSA22.JPG,AFNE23.JPG,,,,,,,,,,,,,0,7,7,0,,,,,,,,,,,AFNE18.jpg,AFSA20.jpg,AFNE17.jpg,AFSA02.jpg,AFNE18.jpg,FN,3,num_8,16,num_8,1.03345539619,,,2017_Aug_16_1137,60.0137628815,MAFE4ImagesEEG,001,201126,
AMSA21.JPG,AMNE22.JPG,AMNE21.JPG,AMSA23.JPG,AMSA22.JPG,AMNE23.JPG,,,,,,,,,,,,,0,8,8,1,,,,,,,,,,,AFNE05.jpg,AFSA18.jpg,AFSA06.jpg,AFNE17.jpg,AFNE05.jpg,FN,3,num_8,16,num_8,1.03344096287,,,2017_Aug_16_1137,60.0137628815,MAFE4ImagesEEG,001,201126,
AMNE23.JPG,AMNE24.JPG,AMNE22.JPG,AMSA24.JPG,AMSA22.JPG,AMSA23.JPG,,,,,,,,,,,,,0,9,9,9,,,,,,,,,,,AFNE04.jpg,AFSA14.jpg,AFNE03.jpg,AFSA13.jpg,AFNE04.jpg,FN,3,num_8,32,num_2,1.28340495986,,,2017_Aug_16_1137,60.0137628815,MAFE4ImagesEEG,001,201126,
AMSA25.JPG,AMNE24.JPG,AMSA24.JPG,AMNE26.JPG,AMSA21.JPG,AMNE25.JPG,,,,,,,,,,,,,,,,,0,0,0,3,,,,,,,AMNE12.jpg,AMNE15.jpg,AMSA18.jpg,AMSA12.jpg,AMNE12.jpg,MN,1,num_8,16,num_8,1.35007166929,,,2017_Aug_16_1137,60.0137628815,MAFE4ImagesEEG,001,201126,
AMSA21.JPG,AMNE23.JPG,AMNE21.JPG,AMSA25.JPG,AMNE25.JPG,AMSA23.JPG,,,,,,,,,,,,,,,,,0,1,1,5,,,,,,,AMNE20.jpg,AMSA20.jpg,AMNE04.jpg,AMSA07.jpg,AMNE20.jpg,MN,1,num_8,16,num_8,0.933487887116,,,2017_Aug_16_1137,60.0137628815,MAFE4ImagesEEG,001,201126,
AMSA21.JPG,AMNE22.JPG,AMNE21.JPG,AMSA23.JPG,AMSA22.JPG,AMNE23.JPG,,,,,,,,,,,,,,,,,0,2,2,1,,,,,,,AMNE20.jpg,AMNE05.jpg,AMSA03.jpg,AMSA06.jpg,AMNE20.jpg,MN,1,num_8,16,num_8,0.650163753657,,,2017_Aug_16_1137,60.0137628815,MAFE4ImagesEEG,001,201126,
AMNE23.JPG,AMNE24.JPG,AMNE22.JPG,AMSA24.JPG,AMSA22.JPG,AMSA23.JPG,,,,,,,,,,,,,,,,,0,3,3,9,,,,,,,AMSA02.jpg,AMSA04.jpg,AMNE14.jpg,AMNE09.jpg,AMNE14.jpg,MN,1,num_2,16,num_2,0.833449815313,,,2017_Aug_16_1137,60.0137628815,MAFE4ImagesEEG,001,201126,
AFSA25.JPG,AFNE24.JPG,AFSA24.JPG,AFNE21.JPG,AFSA21.JPG,AFNE25.JPG,,,,,,,,,,,,,,,,,0,4,4,2,,,,,,,AMNE13.jpg,AMSA05.jpg,AMNE11.jpg,AMSA01.jpg,AMSA05.jpg,MS,2,num_6,16,num_6,0.766748145252,,,2017_Aug_16_1137,60.0137628815,MAFE4ImagesEEG,001,201126,
AFSA21.JPG,AFNE22.JPG,AFNE21.JPG,AFSA23.JPG,AFSA22.JPG,AFNE23.JPG,,,,,,,,,,,,,,,,,0,5,5,0,,,,,,,AMNE14.jpg,AMSA19.jpg,AMSA03.jpg,AMNE04.jpg,AMSA03.jpg,MS,2,num_2,32,num_8,1.83335166896,,,2017_Aug_16_1137,60.0137628815,MAFE4ImagesEEG,001,201126,
AFSA21.JPG,AFNE23.JPG,AFNE21.JPG,AFSA25.JPG,AFNE25.JPG,AFSA23.JPG,,,,,,,,,,,,,,,,,0,6,6,4,,,,,,,AMSA03.jpg,AMSA20.jpg,AMNE17.jpg,AMNE02.jpg,AMNE02.jpg,MN,1,num_4,32,num_8,1.23355559524,,,2017_Aug_16_1137,60.0137628815,MAFE4ImagesEEG,001,201126,
AFNE23.JPG,AFNE24.JPG,AFNE22.JPG,AFSA24.JPG,AFSA22.JPG,AFSA23.JPG,,,,,,,,,,,,,,,,,0,7,7,8,,,,,,,AMSA03.jpg,AMNE19.jpg,AMSA12.jpg,AMNE17.jpg,AMNE17.jpg,MN,1,num_4,32,num_2,0.800082622562,,,2017_Aug_16_1137,60.0137628815,MAFE4ImagesEEG,001,201126,
AFNE22.JPG,AFSA24.JPG,AFSA22.JPG,AFNE25.JPG,AFNE24.JPG,AFSA25.JPG,,,,,,,,,,,,,,,,,0,8,8,6,,,,,,,AMSA10.jpg,AMNE12.jpg,AMSA20.jpg,AMNE01.jpg,AMSA10.jpg,MS,2,num_8,32,num_6,1.06674721511,,,2017_Aug_16_1137,60.0137628815,MAFE4ImagesEEG,001,201126,
AMNE22.JPG,AMSA24.JPG,AMSA22.JPG,AMNE25.JPG,AMNE24.JPG,AMSA25.JPG,,,,,,,,,,,,,,,,,0,9,9,7,,,,,,,AMSA10.jpg,AMSA07.jpg,AMNE15.jpg,AMNE11.jpg,AMNE15.jpg,MN,1,num_2,16,num_2,0.466712190304,,,2017_Aug_16_1137,60.0137628815,MAFE4ImagesEEG,001,201126,
AFNE22.JPG,AFSA24.JPG,AFSA22.JPG,AFNE25.JPG,AFNE24.JPG,AFSA25.JPG,,,,,,,,,,,,,,,,,,,,,0,0,0,6,,,AFNE05.jpg,AFNE03.jpg,AFSA02.jpg,AFSA04.jpg,AFNE05.jpg,FN,3,num_8,32,num_6,0.700116396445,,,2017_Aug_16_1137,60.0137628815,MAFE4ImagesEEG,001,201126,
AMSA21.JPG,AMNE22.JPG,AMNE21.JPG,AMSA23.JPG,AMSA22.JPG,AMNE23.JPG,,,,,,,,,,,,,,,,,,,,,0,1,1,1,,,AFSA08.jpg,AFSA18.jpg,AFNE04.jpg,AFNE02.jpg,AFSA08.jpg,FS,4,num_8,16,num_8,1.01669642597,,,2017_Aug_16_1137,60.0137628815,MAFE4ImagesEEG,001,201126,
AFNE23.JPG,AFNE24.JPG,AFNE22.JPG,AFSA24.JPG,AFSA22.JPG,AFSA23.JPG,,,,,,,,,,,,,,,,,,,,,0,2,2,8,,,AFSA13.jpg,AFSA19.jpg,AFNE16.jpg,AFNE03.jpg,AFNE03.jpg,FN,3,num_4,32,num_6,0.833503058093,,,2017_Aug_16_1137,60.0137628815,MAFE4ImagesEEG,001,201126,
AMSA21.JPG,AMNE23.JPG,AMNE21.JPG,AMSA25.JPG,AMNE25.JPG,AMSA23.JPG,,,,,,,,,,,,,,,,,,,,,0,3,3,5,,,AFNE05.jpg,AFSA05.jpg,AFSA09.jpg,AFNE16.jpg,AFSA09.jpg,FS,4,num_2,16,num_2,0.666802446474,,,2017_Aug_16_1137,60.0137628815,MAFE4ImagesEEG,001,201126,
AFSA25.JPG,AFNE24.JPG,AFSA24.JPG,AFNE21.JPG,AFSA21.JPG,AFNE25.JPG,,,,,,,,,,,,,,,,,,,,,0,4,4,2,,,AFSA14.jpg,AFSA17.jpg,AFNE18.jpg,AFNE05.jpg,AFNE18.jpg,FN,3,num_2,32,num_6,1.01685936173,,,2017_Aug_16_1137,60.0137628815,MAFE4ImagesEEG,001,201126,
AMSA25.JPG,AMNE24.JPG,AMSA24.JPG,AMNE26.JPG,AMSA21.JPG,AMNE25.JPG,,,,,,,,,,,,,,,,,,,,,0,5,5,3,,,AFNE11.jpg,AFNE03.jpg,AFSA19.jpg,AFSA04.jpg,AFNE03.jpg,FN,3,num_6,32,num_2,2.43332671543,,,2017_Aug_16_1137,60.0137628815,MAFE4ImagesEEG,001,201126,
AFSA21.JPG,AFNE23.JPG,AFNE21.JPG,AFSA25.JPG,AFNE25.JPG,AFSA23.JPG,,,,,,,,,,,,,,,,,,,,,0,6,6,4,,,AFSA07.jpg,AFSA17.jpg,AFNE12.jpg,AFNE03.jpg,AFSA17.jpg,FS,4,num_6,32,num_8,0.983431228437,,,2017_Aug_16_1137,60.0137628815,MAFE4ImagesEEG,001,201126,
AMNE22.JPG,AMSA24.JPG,AMSA22.JPG,AMNE25.JPG,AMNE24.JPG,AMSA25.JPG,,,,,,,,,,,,,,,,,,,,,0,7,7,7,,,AFNE05.jpg,AFNE15.jpg,AFSA19.jpg,AFSA07.jpg,AFNE15.jpg,FN,3,num_6,16,num_6,0.466783073789,,,2017_Aug_16_1137,60.0137628815,MAFE4ImagesEEG,001,201126,
AMNE23.JPG,AMNE24.JPG,AMNE22.JPG,AMSA24.JPG,AMSA22.JPG,AMSA23.JPG,,,,,,,,,,,,,,,,,,,,,0,8,8,9,,,AFSA15.jpg,AFNE12.jpg,AFNE14.jpg,AFSA11.jpg,AFNE12.jpg,FN,3,num_6,32,num_2,1.38341833471,,,2017_Aug_16_1137,60.0137628815,MAFE4ImagesEEG,001,201126,
AFSA21.JPG,AFNE22.JPG,AFNE21.JPG,AFSA23.JPG,AFSA22.JPG,AFNE23.JPG,,,,,,,,,,,,,,,,,,,,,0,9,9,0,,,AFSA01.jpg,AFNE04.jpg,AFSA14.jpg,AFNE11.jpg,AFSA01.jpg,FS,4,num_8,16,num_8,0.783452268981,,,2017_Aug_16_1137,60.0137628815,MAFE4ImagesEEG,001,201126,
,,,,,,,,,,,,,,,,,,,,,,,,,,,,,,,,,,,,,,,,,,,space,41.2636124335,2017_Aug_16_1137,60.0137628815,MAFE4ImagesEEG,001,201126,
AFNE01.JPG,AFNE01.JPG,AFNE01.JPG,AFNE01.JPG,AFNE01.JPG,AFNE01.JPG,0,0,0,7,,,,,,,,,,,,,,,,,,,,,,,AMNE15.jpg,AMSA18.jpg,AMSA15.jpg,AMNE13.jpg,AMNE15.jpg,MN,1,num_8,16,num_8,1.05007131648,,,2017_Aug_16_1137,60.0137628815,MAFE4ImagesEEG,001,201126,
AFNE01.JPG,AFNE01.JPG,AFNE01.JPG,AFNE01.JPG,AFNE01.JPG,AFNE01.JPG,0,1,1,5,,,,,,,,,,,,,,,,,,,,,,,AMSA06.jpg,AMNE14.jpg,AMSA20.jpg,AMNE03.jpg,AMSA06.jpg,MS,2,num_8,16,num_8,1.56668098233,,,2017_Aug_16_1137,60.0137628815,MAFE4ImagesEEG,001,201126,
AFNE01.JPG,AFNE01.JPG,AFNE01.JPG,AFNE01.JPG,AFNE01.JPG,AFNE01.JPG,0,2,2,9,,,,,,,,,,,,,,,,,,,,,,,AMSA18.jpg,AMSA14.jpg,AMNE11.jpg,AMNE14.jpg,AMSA18.jpg,MS,2,num_8,16,num_8,2.40002816095,,,2017_Aug_16_1137,60.0137628815,MAFE4ImagesEEG,001,201126,
AFNE01.JPG,AFNE01.JPG,AFNE01.JPG,AFNE01.JPG,AFNE01.JPG,AFNE01.JPG,0,3,3,3,,,,,,,,,,,,,,,,,,,,,,,AMNE14.jpg,AMSA11.jpg,AMNE18.jpg,AMSA15.jpg,AMSA11.jpg,MS,2,num_6,16,num_6,0.733458892239,,,2017_Aug_16_1137,60.0137628815,MAFE4ImagesEEG,001,201126,
AFNE01.JPG,AFNE01.JPG,AFNE01.JPG,AFNE01.JPG,AFNE01.JPG,AFNE01.JPG,0,4,4,1,,,,,,,,,,,,,,,,,,,,,,,AMNE19.jpg,AMSA20.jpg,AMNE13.jpg,AMSA06.jpg,AMNE13.jpg,MN,1,num_2,32,num_8,1.20012200938,,,2017_Aug_16_1137,60.0137628815,MAFE4ImagesEEG,001,201126,
AFNE01.JPG,AFNE01.JPG,AFNE01.JPG,AFNE01.JPG,AFNE01.JPG,AFNE01.JPG,0,5,5,4,,,,,,,,,,,,,,,,,,,,,,,AMNE09.jpg,AMNE02.jpg,AMSA07.jpg,AMSA04.jpg,AMSA07.jpg,MS,2,num_2,32,num_8,1.11673930884,,,2017_Aug_16_1137,60.0137628815,MAFE4ImagesEEG,001,201126,
AFNE01.JPG,AFNE01.JPG,AFNE01.JPG,AFNE01.JPG,AFNE01.JPG,AFNE01.JPG,0,6,6,8,,,,,,,,,,,,,,,,,,,,,,,AMSA05.jpg,AMSA03.jpg,AMNE10.jpg,AMNE19.jpg,AMSA05.jpg,MS,2,num_8,32,num_4,0.933488528564,,,2017_Aug_16_1137,60.0137628815,MAFE4ImagesEEG,001,201126,
AFNE01.JPG,AFNE01.JPG,AFNE01.JPG,AFNE01.JPG,AFNE01.JPG,AFNE01.JPG,0,7,7,2,,,,,,,,,,,,,,,,,,,,,,,AMNE17.jpg,AMSA07.jpg,AMNE19.jpg,AMSA09.jpg,AMSA09.jpg,MS,2,num_4,32,num_8,0.950149352429,,,2017_Aug_16_1137,60.0137628815,MAFE4ImagesEEG,001,201126,
AFNE01.JPG,AFNE01.JPG,AFNE01.JPG,AFNE01.JPG,AFNE01.JPG,AFNE01.JPG,0,8,8,6,,,,,,,,,,,,,,,,,,,,,,,AMNE06.jpg,AMNE18.jpg,AMSA14.jpg,AMSA03.jpg,AMNE18.jpg,MN,1,num_6,16,num_6,0.466806487791,,,2017_Aug_16_1137,60.0137628815,MAFE4ImagesEEG,001,201126,
AFNE01.JPG,AFNE01.JPG,AFNE01.JPG,AFNE01.JPG,AFNE01.JPG,AFNE01.JPG,0,9,9,0,,,,,,,,,,,,,,,,,,,,,,,AMNE18.jpg,AMSA14.jpg,AMSA10.jpg,AMNE11.jpg,AMSA14.jpg,MS,2,num_6,32,num_8,0.750107527972,,,2017_Aug_16_1137,60.0137628815,MAFE4ImagesEEG,001,201126,
AFNE01.JPG,AFNE01.JPG,AFNE01.JPG,AFNE01.JPG,AFNE01.JPG,AFNE01.JPG,1,0,10,7,,,,,,,,,,,,,,,,,,,,,,,AMSA11.jpg,AMSA03.jpg,AMNE11.jpg,AMNE05.jpg,AMNE11.jpg,MN,1,num_2,32,num_4,1.91656566039,,,2017_Aug_16_1137,60.0137628815,MAFE4ImagesEEG,001,201126,
AFNE01.JPG,AFNE01.JPG,AFNE01.JPG,AFNE01.JPG,AFNE01.JPG,AFNE01.JPG,1,1,11,3,,,,,,,,,,,,,,,,,,,,,,,AMNE18.jpg,AMNE01.jpg,AMSA13.jpg,AMSA04.jpg,AMSA04.jpg,MS,2,num_4,16,num_4,1.40015998497,,,2017_Aug_16_1137,60.0137628815,MAFE4ImagesEEG,001,201126,
AFNE01.JPG,AFNE01.JPG,AFNE01.JPG,AFNE01.JPG,AFNE01.JPG,AFNE01.JPG,1,2,12,4,,,,,,,,,,,,,,,,,,,,,,,AMNE07.jpg,AMSA03.jpg,AMNE02.jpg,AMSA20.jpg,AMNE02.jpg,MN,1,num_2,16,num_2,0.833459437505,,,2017_Aug_16_1137,60.0137628815,MAFE4ImagesEEG,001,201126,
AFNE01.JPG,AFNE01.JPG,AFNE01.JPG,AFNE01.JPG,AFNE01.JPG,AFNE01.JPG,1,3,13,9,,,,,,,,,,,,,,,,,,,,,,,AMSA05.jpg,AMNE13.jpg,AMSA16.jpg,AMNE18.jpg,AMNE18.jpg,MN,1,num_4,16,num_4,1.81665075265,,,2017_Aug_16_1137,60.0137628815,MAFE4ImagesEEG,001,201126,
AFNE01.JPG,AFNE01.JPG,AFNE01.JPG,AFNE01.JPG,AFNE01.JPG,AFNE01.JPG,1,4,14,1,,,,,,,,,,,,,,,,,,,,,,,AMNE05.jpg,AMSA07.jpg,AMNE03.jpg,AMSA19.jpg,AMNE03.jpg,MN,1,num_2,32,num_6,0.566841031454,,,2017_Aug_16_1137,60.0137628815,MAFE4ImagesEEG,001,201126,
AFNE01.JPG,AFNE01.JPG,AFNE01.JPG,AFNE01.JPG,AFNE01.JPG,AFNE01.JPG,1,5,15,2,,,,,,,,,,,,,,,,,,,,,,,AMSA07.jpg,AMNE02.jpg,AMSA06.jpg,AMNE10.jpg,AMNE10.jpg,MN,1,num_4,16,num_4,0.816756276006,,,2017_Aug_16_1137,60.0137628815,MAFE4ImagesEEG,001,201126,
AFNE01.JPG,AFNE01.JPG,AFNE01.JPG,AFNE01.JPG,AFNE01.JPG,AFNE01.JPG,1,6,16,8,,,,,,,,,,,,,,,,,,,,,,,AMSA20.jpg,AMNE09.jpg,AMSA16.jpg,AMNE20.jpg,AMSA20.jpg,MS,2,num_8,16,num_8,0.733422648627,,,2017_Aug_16_1137,60.0137628815,MAFE4ImagesEEG,001,201126,
AFNE01.JPG,AFNE01.JPG,AFNE01.JPG,AFNE01.JPG,AFNE01.JPG,AFNE01.JPG,1,7,17,5,,,,,,,,,,,,,,,,,,,,,,,AMSA02.jpg,AMNE04.jpg,AMNE07.jpg,AMSA18.jpg,AMSA18.jpg,MS,2,num_4,16,num_4,0.566989213199,,,2017_Aug_16_1137,60.0137628815,MAFE4ImagesEEG,001,201126,
AFNE01.JPG,AFNE01.JPG,AFNE01.JPG,AFNE01.JPG,AFNE01.JPG,AFNE01.JPG,1,8,18,6,,,,,,,,,,,,,,,,,,,,,,,AMSA01.jpg,AMNE15.jpg,AMNE11.jpg,AMSA12.jpg,AMSA01.jpg,MS,2,num_8,16,num_8,0.950207406335,,,2017_Aug_16_1137,60.0137628815,MAFE4ImagesEEG,001,201126,
AFNE01.JPG,AFNE01.JPG,AFNE01.JPG,AFNE01.JPG,AFNE01.JPG,AFNE01.JPG,1,9,19,0,,,,,,,,,,,,,,,,,,,,,,,AMSA06.jpg,AMSA05.jpg,AMNE13.jpg,AMNE12.jpg,AMSA06.jpg,MS,2,num_8,16,num_8,0.81679091588,,,2017_Aug_16_1137,60.0137628815,MAFE4ImagesEEG,001,201126,
AFNE01.JPG,AFNE01.JPG,AFNE01.JPG,AFNE01.JPG,AFNE01.JPG,AFNE01.JPG,2,0,20,9,,,,,,,,,,,,,,,,,,,,,,,AMSA08.jpg,AMNE01.jpg,AMSA15.jpg,AMNE13.jpg,AMSA15.jpg,MS,2,num_2,16,num_2,1.05019223533,,,2017_Aug_16_1137,60.0137628815,MAFE4ImagesEEG,001,201126,
AFNE01.JPG,AFNE01.JPG,AFNE01.JPG,AFNE01.JPG,AFNE01.JPG,AFNE01.JPG,2,1,21,5,,,,,,,,,,,,,,,,,,,,,,,AMSA08.jpg,AMSA12.jpg,AMNE02.jpg,AMNE01.jpg,AMNE02.jpg,MN,1,num_2,32,num_4,1.066578506,,,2017_Aug_16_1137,60.0137628815,MAFE4ImagesEEG,001,201126,
AFNE01.JPG,AFNE01.JPG,AFNE01.JPG,AFNE01.JPG,AFNE01.JPG,AFNE01.JPG,2,2,22,4,,,,,,,,,,,,,,,,,,,,,,,AMNE03.jpg,AMSA13.jpg,AMNE17.jpg,AMSA04.jpg,AMNE17.jpg,MN,1,num_2,32,num_8,1.30013121461,,,2017_Aug_16_1137,60.0137628815,MAFE4ImagesEEG,001,201126,
AFNE01.JPG,AFNE01.JPG,AFNE01.JPG,AFNE01.JPG,AFNE01.JPG,AFNE01.JPG,2,3,23,1,,,,,,,,,,,,,,,,,,,,,,,AMSA13.jpg,AMNE18.jpg,AMSA09.jpg,AMNE20.jpg,AMSA09.jpg,MS,2,num_2,16,num_2,1.91669812589,,,2017_Aug_16_1137,60.0137628815,MAFE4ImagesEEG,001,201126,
AFNE01.JPG,AFNE01.JPG,AFNE01.JPG,AFNE01.JPG,AFNE01.JPG,AFNE01.JPG,2,4,24,6,,,,,,,,,,,,,,,,,,,,,,,AMSA02.jpg,AMSA19.jpg,AMNE05.jpg,AMNE13.jpg,AMNE05.jpg,MN,1,num_2,16,num_2,0.633445838117,,,2017_Aug_16_1137,60.0137628815,MAFE4ImagesEEG,001,201126,
AFNE01.JPG,AFNE01.JPG,AFNE01.JPG,AFNE01.JPG,AFNE01.JPG,AFNE01.JPG,2,5,25,8,,,,,,,,,,,,,,,,,,,,,,,AMNE06.jpg,AMNE14.jpg,AMSA05.jpg,AMSA17.jpg,AMNE14.jpg,MN,1,num_6,32,num_4,0.833441796829,,,2017_Aug_16_1137,60.0137628815,MAFE4ImagesEEG,001,201126,
AFNE01.JPG,AFNE01.JPG,AFNE01.JPG,AFNE01.JPG,AFNE01.JPG,AFNE01.JPG,2,6,26,0,,,,,,,,,,,,,,,,,,,,,,,AMSA15.jpg,AMNE01.jpg,AMSA02.jpg,AMNE10.jpg,AMSA15.jpg,MS,2,num_8,32,num_4,1.48339578672,,,2017_Aug_16_1137,60.0137628815,MAFE4ImagesEEG,001,201126,
AFNE01.JPG,AFNE01.JPG,AFNE01.JPG,AFNE01.JPG,AFNE01.JPG,AFNE01.JPG,2,7,27,3,,,,,,,,,,,,,,,,,,,,,,,AMSA20.jpg,AMNE03.jpg,AMSA14.jpg,AMNE20.jpg,AMSA20.jpg,MS,2,num_8,16,num_8,0.500002084824,,,2017_Aug_16_1137,60.0137628815,MAFE4ImagesEEG,001,201126,
AFNE01.JPG,AFNE01.JPG,AFNE01.JPG,AFNE01.JPG,AFNE01.JPG,AFNE01.JPG,2,8,28,2,,,,,,,,,,,,,,,,,,,,,,,AMNE11.jpg,AMNE08.jpg,AMSA18.jpg,AMSA20.jpg,AMNE08.jpg,MN,1,num_6,16,num_6,1.05013033259,,,2017_Aug_16_1137,60.0137628815,MAFE4ImagesEEG,001,201126,
AFNE01.JPG,AFNE01.JPG,AFNE01.JPG,AFNE01.JPG,AFNE01.JPG,AFNE01.JPG,2,9,29,7,,,,,,,,,,,,,,,,,,,,,,,AMSA07.jpg,AMSA14.jpg,AMNE18.jpg,AMNE05.jpg,AMNE05.jpg,MN,1,num_4,32,num_8,0.93344619096,,,2017_Aug_16_1137,60.0137628815,MAFE4ImagesEEG,001,201126,
AFNE01.JPG,AFNE01.JPG,AFNE01.JPG,AFNE01.JPG,AFNE01.JPG,AFNE01.JPG,3,0,30,6,,,,,,,,,,,,,,,,,,,,,,,AMSA15.jpg,AMSA08.jpg,AMNE14.jpg,AMNE01.jpg,AMNE01.jpg,MN,1,num_4,16,num_4,0.783456759324,,,2017_Aug_16_1137,60.0137628815,MAFE4ImagesEEG,001,201126,
AFNE01.JPG,AFNE01.JPG,AFNE01.JPG,AFNE01.JPG,AFNE01.JPG,AFNE01.JPG,3,1,31,5,,,,,,,,,,,,,,,,,,,,,,,AMNE16.jpg,AMSA10.jpg,AMSA02.jpg,AMNE04.jpg,AMNE04.jpg,MN,1,num_4,32,num_8,1.23345392078,,,2017_Aug_16_1137,60.0137628815,MAFE4ImagesEEG,001,201126,
AFNE01.JPG,AFNE01.JPG,AFNE01.JPG,AFNE01.JPG,AFNE01.JPG,AFNE01.JPG,3,2,32,0,,,,,,,,,,,,,,,,,,,,,,,AMSA01.jpg,AMNE13.jpg,AMSA20.jpg,AMNE03.jpg,AMNE13.jpg,MN,1,num_6,16,num_6,0.450142135785,,,2017_Aug_16_1137,60.0137628815,MAFE4ImagesEEG,001,201126,
AFNE01.JPG,AFNE01.JPG,AFNE01.JPG,AFNE01.JPG,AFNE01.JPG,AFNE01.JPG,3,3,33,9,,,,,,,,,,,,,,,,,,,,,,,AMSA08.jpg,AMNE01.jpg,AMNE08.jpg,AMSA10.jpg,AMSA08.jpg,MS,2,num_8,16,num_8,0.466790771548,,,2017_Aug_16_1137,60.0137628815,MAFE4ImagesEEG,001,201126,
AFNE01.JPG,AFNE01.JPG,AFNE01.JPG,AFNE01.JPG,AFNE01.JPG,AFNE01.JPG,3,4,34,8,,,,,,,,,,,,,,,,,,,,,,,AMSA07.jpg,AMNE15.jpg,AMSA01.jpg,AMNE14.jpg,AMSA07.jpg,MS,2,num_8,32,num_2,1.66667896169,,,2017_Aug_16_1137,60.0137628815,MAFE4ImagesEEG,001,201126,
AFNE01.JPG,AFNE01.JPG,AFNE01.JPG,AFNE01.JPG,AFNE01.JPG,AFNE01.JPG,3,5,35,7,,,,,,,,,,,,,,,,,,,,,,,AMSA05.jpg,AMNE07.jpg,AMNE06.jpg,AMSA06.jpg,AMSA06.jpg,MS,2,num_4,16,num_4,1.23341350755,,,2017_Aug_16_1137,60.0137628815,MAFE4ImagesEEG,001,201126,
AFNE01.JPG,AFNE01.JPG,AFNE01.JPG,AFNE01.JPG,AFNE01.JPG,AFNE01.JPG,3,6,36,2,,,,,,,,,,,,,,,,,,,,,,,AMSA09.jpg,AMSA04.jpg,AMNE05.jpg,AMNE01.jpg,AMSA09.jpg,MS,2,num_8,16,num_8,1.03327353677,,,2017_Aug_16_1137,60.0137628815,MAFE4ImagesEEG,001,201126,
AFNE01.JPG,AFNE01.JPG,AFNE01.JPG,AFNE01.JPG,AFNE01.JPG,AFNE01.JPG,3,7,37,3,,,,,,,,,,,,,,,,,,,,,,,AMSA01.jpg,AMNE11.jpg,AMNE15.jpg,AMSA18.jpg,AMNE11.jpg,MN,1,num_6,16,num_6,0.933437210217,,,2017_Aug_16_1137,60.0137628815,MAFE4ImagesEEG,001,201126,
AFNE01.JPG,AFNE01.JPG,AFNE01.JPG,AFNE01.JPG,AFNE01.JPG,AFNE01.JPG,3,8,38,4,,,,,,,,,,,,,,,,,,,,,,,AMNE13.jpg,AMNE08.jpg,AMSA18.jpg,AMSA11.jpg,AMSA11.jpg,MS,2,num_4,16,num_4,0.950102845178,,,2017_Aug_16_1137,60.0137628815,MAFE4ImagesEEG,001,201126,
AFNE01.JPG,AFNE01.JPG,AFNE01.JPG,AFNE01.JPG,AFNE01.JPG,AFNE01.JPG,3,9,39,1,,,,,,,,,,,,,,,,,,,,,,,AMSA06.jpg,AMNE07.jpg,AMSA05.jpg,AMNE02.jpg,AMNE02.jpg,MN,1,num_4,16,num_4,0.866836252419,,,2017_Aug_16_1137,60.0137628815,MAFE4ImagesEEG,001,201126,
AFNE01.JPG,AFNE01.JPG,AFNE01.JPG,AFNE01.JPG,AFNE01.JPG,AFNE01.JPG,4,0,40,4,,,,,,,,,,,,,,,,,,,,,,,AMNE14.jpg,AMNE10.jpg,AMSA06.jpg,AMSA10.jpg,AMSA06.jpg,MS,2,num_2,32,num_6,0.650106341258,,,2017_Aug_16_1137,60.0137628815,MAFE4ImagesEEG,001,201126,
AFNE01.JPG,AFNE01.JPG,AFNE01.JPG,AFNE01.JPG,AFNE01.JPG,AFNE01.JPG,4,1,41,6,,,,,,,,,,,,,,,,,,,,,,,AMSA15.jpg,AMNE19.jpg,AMNE07.jpg,AMSA20.jpg,AMSA20.jpg,MS,2,num_4,32,num_2,1.60008955054,,,2017_Aug_16_1137,60.0137628815,MAFE4ImagesEEG,001,201126,
AFNE01.JPG,AFNE01.JPG,AFNE01.JPG,AFNE01.JPG,AFNE01.JPG,AFNE01.JPG,4,2,42,2,,,,,,,,,,,,,,,,,,,,,,,AMNE19.jpg,AMNE20.jpg,AMSA06.jpg,AMSA09.jpg,AMSA09.jpg,MS,2,num_4,32,num_8,0.750136394548,,,2017_Aug_16_1137,60.0137628815,MAFE4ImagesEEG,001,201126,
AFNE01.JPG,AFNE01.JPG,AFNE01.JPG,AFNE01.JPG,AFNE01.JPG,AFNE01.JPG,4,3,43,0,,,,,,,,,,,,,,,,,,,,,,,AMSA05.jpg,AMSA20.jpg,AMNE20.jpg,AMNE04.jpg,AMSA20.jpg,MS,2,num_6,32,num_2,1.18345509146,,,2017_Aug_16_1137,60.0137628815,MAFE4ImagesEEG,001,201126,
AFNE01.JPG,AFNE01.JPG,AFNE01.JPG,AFNE01.JPG,AFNE01.JPG,AFNE01.JPG,4,4,44,8,,,,,,,,,,,,,,,,,,,,,,,AMNE17.jpg,AMSA14.jpg,AMSA20.jpg,AMNE13.jpg,AMSA20.jpg,MS,2,num_2,16,num_2,1.55005319469,,,2017_Aug_16_1137,60.0137628815,MAFE4ImagesEEG,001,201126,
AFNE01.JPG,AFNE01.JPG,AFNE01.JPG,AFNE01.JPG,AFNE01.JPG,AFNE01.JPG,4,5,45,9,,,,,,,,,,,,,,,,,,,,,,,AMSA03.jpg,AMNE12.jpg,AMSA20.jpg,AMNE19.jpg,AMNE12.jpg,MN,1,num_6,16,num_6,0.883585279691,,,2017_Aug_16_1137,60.0137628815,MAFE4ImagesEEG,001,201126,
AFNE01.JPG,AFNE01.JPG,AFNE01.JPG,AFNE01.JPG,AFNE01.JPG,AFNE01.JPG,4,6,46,7,,,,,,,,,,,,,,,,,,,,,,,AMNE11.jpg,AMSA11.jpg,AMNE12.jpg,AMSA13.jpg,AMSA13.jpg,MS,2,num_4,16,num_4,0.516798260825,,,2017_Aug_16_1137,60.0137628815,MAFE4ImagesEEG,001,201126,
AFNE01.JPG,AFNE01.JPG,AFNE01.JPG,AFNE01.JPG,AFNE01.JPG,AFNE01.JPG,4,7,47,5,,,,,,,,,,,,,,,,,,,,,,,AMSA09.jpg,AMNE18.jpg,AMNE20.jpg,AMSA02.jpg,AMSA02.jpg,MS,2,num_4,16,num_4,1.06677800609,,,2017_Aug_16_1137,60.0137628815,MAFE4ImagesEEG,001,201126,
AFNE01.JPG,AFNE01.JPG,AFNE01.JPG,AFNE01.JPG,AFNE01.JPG,AFNE01.JPG,4,8,48,1,,,,,,,,,,,,,,,,,,,,,,,AMSA18.jpg,AMNE06.jpg,AMSA14.jpg,AMNE04.jpg,AMSA18.jpg,MS,2,num_8,32,num_4,1.80007139666,,,2017_Aug_16_1137,60.0137628815,MAFE4ImagesEEG,001,201126,
AFNE01.JPG,AFNE01.JPG,AFNE01.JPG,AFNE01.JPG,AFNE01.JPG,AFNE01.JPG,4,9,49,3,,,,,,,,,,,,,,,,,,,,,,,AMSA01.jpg,AMNE15.jpg,AMNE05.jpg,AMSA17.jpg,AMSA17.jpg,MS,2,num_4,32,num_2,0.866666260408,,,2017_Aug_16_1137,60.0137628815,MAFE4ImagesEEG,001,201126,
AFNE01.JPG,AFNE01.JPG,AFNE01.JPG,AFNE01.JPG,AFNE01.JPG,AFNE01.JPG,5,0,50,2,,,,,,,,,,,,,,,,,,,,,,,AMNE15.jpg,AMNE05.jpg,AMSA08.jpg,AMSA20.jpg,AMSA20.jpg,MS,2,num_4,16,num_4,0.483441010991,,,2017_Aug_16_1137,60.0137628815,MAFE4ImagesEEG,001,201126,
AFNE01.JPG,AFNE01.JPG,AFNE01.JPG,AFNE01.JPG,AFNE01.JPG,AFNE01.JPG,5,1,51,4,,,,,,,,,,,,,,,,,,,,,,,AMNE17.jpg,AMNE13.jpg,AMSA09.jpg,AMSA03.jpg,AMNE17.jpg,MN,1,num_8,16,num_8,0.683449157805,,,2017_Aug_16_1137,60.0137628815,MAFE4ImagesEEG,001,201126,
AFNE01.JPG,AFNE01.JPG,AFNE01.JPG,AFNE01.JPG,AFNE01.JPG,AFNE01.JPG,5,2,52,8,,,,,,,,,,,,,,,,,,,,,,,AMNE20.jpg,AMSA11.jpg,AMNE02.jpg,AMSA16.jpg,AMSA16.jpg,MS,2,num_4,32,num_6,0.900107223279,,,2017_Aug_16_1137,60.0137628815,MAFE4ImagesEEG,001,201126,
AFNE01.JPG,AFNE01.JPG,AFNE01.JPG,AFNE01.JPG,AFNE01.JPG,AFNE01.JPG,5,3,53,6,,,,,,,,,,,,,,,,,,,,,,,AMNE02.jpg,AMSA18.jpg,AMSA14.jpg,AMNE09.jpg,AMSA18.jpg,MS,2,num_6,32,num_2,0.816780652211,,,2017_Aug_16_1137,60.0137628815,MAFE4ImagesEEG,001,201126,
AFNE01.JPG,AFNE01.JPG,AFNE01.JPG,AFNE01.JPG,AFNE01.JPG,AFNE01.JPG,5,4,54,7,,,,,,,,,,,,,,,,,,,,,,,AMNE18.jpg,AMSA06.jpg,AMNE02.jpg,AMSA01.jpg,AMNE02.jpg,MN,1,num_2,16,num_2,1.35009572477,,,2017_Aug_16_1137,60.0137628815,MAFE4ImagesEEG,001,201126,
AFNE01.JPG,AFNE01.JPG,AFNE01.JPG,AFNE01.JPG,AFNE01.JPG,AFNE01.JPG,5,5,55,3,,,,,,,,,,,,,,,,,,,,,,,AMSA06.jpg,AMNE18.jpg,AMSA04.jpg,AMNE13.jpg,AMSA06.jpg,MS,2,num_8,16,num_8,0.800451473217,,,2017_Aug_16_1137,60.0137628815,MAFE4ImagesEEG,001,201126,
AFNE01.JPG,AFNE01.JPG,AFNE01.JPG,AFNE01.JPG,AFNE01.JPG,AFNE01.JPG,5,6,56,0,,,,,,,,,,,,,,,,,,,,,,,AMSA07.jpg,AMNE08.jpg,AMSA20.jpg,AMNE09.jpg,AMNE09.jpg,MN,1,num_4,32,num_8,1.26669474208,,,2017_Aug_16_1137,60.0137628815,MAFE4ImagesEEG,001,201126,
AFNE01.JPG,AFNE01.JPG,AFNE01.JPG,AFNE01.JPG,AFNE01.JPG,AFNE01.JPG,5,7,57,5,,,,,,,,,,,,,,,,,,,,,,,AMNE16.jpg,AMSA01.jpg,AMNE14.jpg,AMSA16.jpg,AMSA01.jpg,MS,2,num_6,16,num_6,0.800114375772,,,2017_Aug_16_1137,60.0137628815,MAFE4ImagesEEG,001,201126,
AFNE01.JPG,AFNE01.JPG,AFNE01.JPG,AFNE01.JPG,AFNE01.JPG,AFNE01.JPG,5,8,58,9,,,,,,,,,,,,,,,,,,,,,,,AMNE03.jpg,AMNE13.jpg,AMSA11.jpg,AMSA17.jpg,AMNE13.jpg,MN,1,num_6,16,num_6,1.26669923242,,,2017_Aug_16_1137,60.0137628815,MAFE4ImagesEEG,001,201126,
AFNE01.JPG,AFNE01.JPG,AFNE01.JPG,AFNE01.JPG,AFNE01.JPG,AFNE01.JPG,5,9,59,1,,,,,,,,,,,,,,,,,,,,,,,AMSA05.jpg,AMNE04.jpg,AMSA14.jpg,AMNE06.jpg,AMNE04.jpg,MN,1,num_6,32,num_4,0.916773820471,,,2017_Aug_16_1137,60.0137628815,MAFE4ImagesEEG,001,201126,
,,,,,,,,,,,,,,,,,,,,,,,,,,,,,,,,,,,,,,,,,,,space,52.8460459049,2017_Aug_16_1137,60.0137628815,MAFE4ImagesEEG,001,201126,
AFNE01.JPG,AFNE01.JPG,AFNE01.JPG,AFNE01.JPG,AFNE01.JPG,AFNE01.JPG,,,,,0,0,0,7,,,,,,,,,,,,,,,,,,,AFSA05.jpg,AFNE08.jpg,AFNE13.jpg,AFSA19.jpg,AFNE08.jpg,FN,3,num_6,32,num_8,1.13344247037,,,2017_Aug_16_1137,60.0137628815,MAFE4ImagesEEG,001,201126,
AFNE01.JPG,AFNE01.JPG,AFNE01.JPG,AFNE01.JPG,AFNE01.JPG,AFNE01.JPG,,,,,0,1,1,5,,,,,,,,,,,,,,,,,,,AFNE05.jpg,AFSA08.jpg,AFNE16.jpg,AFSA09.jpg,AFSA08.jpg,FS,4,num_6,16,num_6,1.28367309822,,,2017_Aug_16_1137,60.0137628815,MAFE4ImagesEEG,001,201126,
AFNE01.JPG,AFNE01.JPG,AFNE01.JPG,AFNE01.JPG,AFNE01.JPG,AFNE01.JPG,,,,,0,2,2,3,,,,,,,,,,,,,,,,,,,AFNE03.jpg,AFSA06.jpg,AFNE12.jpg,AFSA02.jpg,AFSA06.jpg,FS,4,num_6,32,num_8,0.81673510719,,,2017_Aug_16_1137,60.0137628815,MAFE4ImagesEEG,001,201126,
AFNE01.JPG,AFNE01.JPG,AFNE01.JPG,AFNE01.JPG,AFNE01.JPG,AFNE01.JPG,,,,,0,3,3,8,,,,,,,,,,,,,,,,,,,AFNE04.jpg,AFSA11.jpg,AFSA15.jpg,AFNE14.jpg,AFSA11.jpg,FS,4,num_6,32,num_8,1.45007285604,,,2017_Aug_16_1137,60.0137628815,MAFE4ImagesEEG,001,201126,
AFNE01.JPG,AFNE01.JPG,AFNE01.JPG,AFNE01.JPG,AFNE01.JPG,AFNE01.JPG,,,,,0,4,4,1,,,,,,,,,,,,,,,,,,,AFSA04.jpg,AFNE20.jpg,AFNE17.jpg,AFSA06.jpg,AFNE20.jpg,FN,3,num_6,16,num_6,0.883446399414,,,2017_Aug_16_1137,60.0137628815,MAFE4ImagesEEG,001,201126,
AFNE01.JPG,AFNE01.JPG,AFNE01.JPG,AFNE01.JPG,AFNE01.JPG,AFNE01.JPG,,,,,0,5,5,9,,,,,,,,,,,,,,,,,,,AFSA08.jpg,AFNE02.jpg,AFSA13.jpg,AFNE15.jpg,AFNE02.jpg,FN,3,num_6,32,num_8,0.716765032179,,,2017_Aug_16_1137,60.0137628815,MAFE4ImagesEEG,001,201126,
AFNE01.JPG,AFNE01.JPG,AFNE01.JPG,AFNE01.JPG,AFNE01.JPG,AFNE01.JPG,,,,,0,6,6,0,,,,,,,,,,,,,,,,,,,AFSA20.jpg,AFNE16.jpg,AFNE18.jpg,AFSA07.jpg,AFSA20.jpg,FS,4,num_8,16,num_8,0.650132641924,,,2017_Aug_16_1137,60.0137628815,MAFE4ImagesEEG,001,201126,
AFNE01.JPG,AFNE01.JPG,AFNE01.JPG,AFNE01.JPG,AFNE01.JPG,AFNE01.JPG,,,,,0,7,7,4,,,,,,,,,,,,,,,,,,,AFNE17.jpg,AFSA08.jpg,AFNE12.jpg,AFSA16.jpg,AFNE17.jpg,FN,3,num_8,32,num_6,0.700193053228,,,2017_Aug_16_1137,60.0137628815,MAFE4ImagesEEG,001,201126,
AFNE01.JPG,AFNE01.JPG,AFNE01.JPG,AFNE01.JPG,AFNE01.JPG,AFNE01.JPG,,,,,0,8,8,6,,,,,,,,,,,,,,,,,,,AFSA12.jpg,AFSA04.jpg,AFNE02.jpg,AFNE13.jpg,AFSA04.jpg,FS,4,num_6,32,num_8,0.833438268659,,,2017_Aug_16_1137,60.0137628815,MAFE4ImagesEEG,001,201126,
AFNE01.JPG,AFNE01.JPG,AFNE01.JPG,AFNE01.JPG,AFNE01.JPG,AFNE01.JPG,,,,,0,9,9,2,,,,,,,,,,,,,,,,,,,AFNE16.jpg,AFSA13.jpg,AFNE07.jpg,AFSA15.jpg,AFSA13.jpg,FS,4,num_6,16,num_6,0.98300721054,,,2017_Aug_16_1137,60.0137628815,MAFE4ImagesEEG,001,201126,
AFNE01.JPG,AFNE01.JPG,AFNE01.JPG,AFNE01.JPG,AFNE01.JPG,AFNE01.JPG,,,,,1,0,10,1,,,,,,,,,,,,,,,,,,,AFNE18.jpg,AFSA09.jpg,AFSA03.jpg,AFNE03.jpg,AFSA09.jpg,FS,4,num_6,32,num_8,0.73344349672,,,2017_Aug_16_1137,60.0137628815,MAFE4ImagesEEG,001,201126,
AFNE01.JPG,AFNE01.JPG,AFNE01.JPG,AFNE01.JPG,AFNE01.JPG,AFNE01.JPG,,,,,1,1,11,9,,,,,,,,,,,,,,,,,,,AFNE19.jpg,AFSA20.jpg,AFNE13.jpg,AFSA06.jpg,AFSA06.jpg,FS,4,num_4,32,num_2,0.63347791211,,,2017_Aug_16_1137,60.0137628815,MAFE4ImagesEEG,001,201126,
AFNE01.JPG,AFNE01.JPG,AFNE01.JPG,AFNE01.JPG,AFNE01.JPG,AFNE01.JPG,,,,,1,2,12,8,,,,,,,,,,,,,,,,,,,AFNE15.jpg,AFSA04.jpg,AFNE16.jpg,AFSA07.jpg,AFSA07.jpg,FS,4,num_4,16,num_4,1.0500530343,,,2017_Aug_16_1137,60.0137628815,MAFE4ImagesEEG,001,201126,
AFNE01.JPG,AFNE01.JPG,AFNE01.JPG,AFNE01.JPG,AFNE01.JPG,AFNE01.JPG,,,,,1,3,13,7,,,,,,,,,,,,,,,,,,,AFNE07.jpg,AFSA16.jpg,AFSA15.jpg,AFNE10.jpg,AFSA15.jpg,FS,4,num_2,16,num_2,0.750208881742,,,2017_Aug_16_1137,60.0137628815,MAFE4ImagesEEG,001,201126,
AFNE01.JPG,AFNE01.JPG,AFNE01.JPG,AFNE01.JPG,AFNE01.JPG,AFNE01.JPG,,,,,1,4,14,2,,,,,,,,,,,,,,,,,,,AFSA02.jpg,AFNE09.jpg,AFNE12.jpg,AFSA08.jpg,AFSA08.jpg,FS,4,num_4,32,num_8,1.25009806617,,,2017_Aug_16_1137,60.0137628815,MAFE4ImagesEEG,001,201126,
AFNE01.JPG,AFNE01.JPG,AFNE01.JPG,AFNE01.JPG,AFNE01.JPG,AFNE01.JPG,,,,,1,5,15,4,,,,,,,,,,,,,,,,,,,AFSA09.jpg,AFNE01.jpg,AFNE19.jpg,AFSA16.jpg,AFSA09.jpg,FS,4,num_8,32,num_2,0.700188883609,,,2017_Aug_16_1137,60.0137628815,MAFE4ImagesEEG,001,201126,
AFNE01.JPG,AFNE01.JPG,AFNE01.JPG,AFNE01.JPG,AFNE01.JPG,AFNE01.JPG,,,,,1,6,16,0,,,,,,,,,,,,,,,,,,,AFSA05.jpg,AFSA13.jpg,AFNE20.jpg,AFNE05.jpg,AFSA13.jpg,FS,4,num_6,16,num_6,1.50002774398,,,2017_Aug_16_1137,60.0137628815,MAFE4ImagesEEG,001,201126,
AFNE01.JPG,AFNE01.JPG,AFNE01.JPG,AFNE01.JPG,AFNE01.JPG,AFNE01.JPG,,,,,1,7,17,3,,,,,,,,,,,,,,,,,,,AFSA19.jpg,AFNE18.jpg,AFNE09.jpg,AFSA10.jpg,AFSA19.jpg,FS,4,num_8,16,num_8,0.800247803505,,,2017_Aug_16_1137,60.0137628815,MAFE4ImagesEEG,001,201126,
AFNE01.JPG,AFNE01.JPG,AFNE01.JPG,AFNE01.JPG,AFNE01.JPG,AFNE01.JPG,,,,,1,8,18,6,,,,,,,,,,,,,,,,,,,AFNE09.jpg,AFSA10.jpg,AFSA20.jpg,AFNE19.jpg,AFNE19.jpg,FN,3,num_4,16,num_4,1.21671419495,,,2017_Aug_16_1137,60.0137628815,MAFE4ImagesEEG,001,201126,
AFNE01.JPG,AFNE01.JPG,AFNE01.JPG,AFNE01.JPG,AFNE01.JPG,AFNE01.JPG,,,,,1,9,19,5,,,,,,,,,,,,,,,,,,,AFSA15.jpg,AFSA08.jpg,AFNE12.jpg,AFNE11.jpg,AFNE11.jpg,FN,3,num_4,16,num_4,1.09996269798,,,2017_Aug_16_1137,60.0137628815,MAFE4ImagesEEG,001,201126,
AFNE01.JPG,AFNE01.JPG,AFNE01.JPG,AFNE01.JPG,AFNE01.JPG,AFNE01.JPG,,,,,2,0,20,9,,,,,,,,,,,,,,,,,,,AFSA17.jpg,AFNE14.jpg,AFSA18.jpg,AFNE02.jpg,AFSA17.jpg,FS,4,num_8,16,num_8,1.04980798918,,,2017_Aug_16_1137,60.0137628815,MAFE4ImagesEEG,001,201126,
AFNE01.JPG,AFNE01.JPG,AFNE01.JPG,AFNE01.JPG,AFNE01.JPG,AFNE01.JPG,,,,,2,1,21,3,,,,,,,,,,,,,,,,,,,AFNE17.jpg,AFNE16.jpg,AFSA10.jpg,AFSA12.jpg,AFNE16.jpg,FN,3,num_6,32,num_8,1.450097553,,,2017_Aug_16_1137,60.0137628815,MAFE4ImagesEEG,001,201126,
AFNE01.JPG,AFNE01.JPG,AFNE01.JPG,AFNE01.JPG,AFNE01.JPG,AFNE01.JPG,,,,,2,2,22,7,,,,,,,,,,,,,,,,,,,AFSA02.jpg,AFNE08.jpg,AFNE07.jpg,AFSA19.jpg,AFNE08.jpg,FN,3,num_6,16,num_6,1.00011835294,,,2017_Aug_16_1137,60.0137628815,MAFE4ImagesEEG,001,201126,
AFNE01.JPG,AFNE01.JPG,AFNE01.JPG,AFNE01.JPG,AFNE01.JPG,AFNE01.JPG,,,,,2,3,23,2,,,,,,,,,,,,,,,,,,,AFNE19.jpg,AFSA08.jpg,AFNE06.jpg,AFSA12.jpg,AFSA08.jpg,FS,4,num_6,32,num_2,1.65001749634,,,2017_Aug_16_1137,60.0137628815,MAFE4ImagesEEG,001,201126,
AFNE01.JPG,AFNE01.JPG,AFNE01.JPG,AFNE01.JPG,AFNE01.JPG,AFNE01.JPG,,,,,2,4,24,5,,,,,,,,,,,,,,,,,,,AFNE19.jpg,AFSA08.jpg,AFSA01.jpg,AFNE11.jpg,AFSA08.jpg,FS,4,num_6,32,num_4,1.11673129036,,,2017_Aug_16_1137,60.0137628815,MAFE4ImagesEEG,001,201126,
AFNE01.JPG,AFNE01.JPG,AFNE01.JPG,AFNE01.JPG,AFNE01.JPG,AFNE01.JPG,,,,,2,5,25,8,,,,,,,,,,,,,,,,,,,AFSA15.jpg,AFSA14.jpg,AFNE19.jpg,AFNE14.jpg,AFSA14.jpg,FS,4,num_6,16,num_6,0.650165998843,,,2017_Aug_16_1137,60.0137628815,MAFE4ImagesEEG,001,201126,
AFNE01.JPG,AFNE01.JPG,AFNE01.JPG,AFNE01.JPG,AFNE01.JPG,AFNE01.JPG,,,,,2,6,26,6,,,,,,,,,,,,,,,,,,,AFNE20.jpg,AFSA07.jpg,AFNE19.jpg,AFSA03.jpg,AFNE19.jpg,FN,3,num_2,16,num_2,0.600176150241,,,2017_Aug_16_1137,60.0137628815,MAFE4ImagesEEG,001,201126,
AFNE01.JPG,AFNE01.JPG,AFNE01.JPG,AFNE01.JPG,AFNE01.JPG,AFNE01.JPG,,,,,2,7,27,1,,,,,,,,,,,,,,,,,,,AFNE01.jpg,AFSA15.jpg,AFNE07.jpg,AFSA03.jpg,AFNE01.jpg,FN,3,num_8,16,num_8,1.78334770782,,,2017_Aug_16_1137,60.0137628815,MAFE4ImagesEEG,001,201126,
AFNE01.JPG,AFNE01.JPG,AFNE01.JPG,AFNE01.JPG,AFNE01.JPG,AFNE01.JPG,,,,,2,8,28,0,,,,,,,,,,,,,,,,,,,AFNE01.jpg,AFSA07.jpg,AFSA03.jpg,AFNE06.jpg,AFSA07.jpg,FS,4,num_6,16,num_6,0.733464024059,,,2017_Aug_16_1137,60.0137628815,MAFE4ImagesEEG,001,201126,
AFNE01.JPG,AFNE01.JPG,AFNE01.JPG,AFNE01.JPG,AFNE01.JPG,AFNE01.JPG,,,,,2,9,29,4,,,,,,,,,,,,,,,,,,,AFSA16.jpg,AFNE08.jpg,AFNE18.jpg,AFSA06.jpg,AFNE18.jpg,FN,3,num_2,16,num_2,0.800144525303,,,2017_Aug_16_1137,60.0137628815,MAFE4ImagesEEG,001,201126,
AFNE01.JPG,AFNE01.JPG,AFNE01.JPG,AFNE01.JPG,AFNE01.JPG,AFNE01.JPG,,,,,3,0,30,9,,,,,,,,,,,,,,,,,,,AFNE13.jpg,AFSA14.jpg,AFSA05.jpg,AFNE08.jpg,AFSA05.jpg,FS,4,num_2,16,num_2,1.30007540589,,,2017_Aug_16_1137,60.0137628815,MAFE4ImagesEEG,001,201126,
AFNE01.JPG,AFNE01.JPG,AFNE01.JPG,AFNE01.JPG,AFNE01.JPG,AFNE01.JPG,,,,,3,1,31,8,,,,,,,,,,,,,,,,,,,AFSA05.jpg,AFNE02.jpg,AFSA04.jpg,AFNE14.jpg,AFSA04.jpg,FS,4,num_2,32,num_8,1.28342837386,,,2017_Aug_16_1137,60.0137628815,MAFE4ImagesEEG,001,201126,
AFNE01.JPG,AFNE01.JPG,AFNE01.JPG,AFNE01.JPG,AFNE01.JPG,AFNE01.JPG,,,,,3,2,32,5,,,,,,,,,,,,,,,,,,,AFNE14.jpg,AFSA20.jpg,AFNE20.jpg,AFSA04.jpg,AFNE14.jpg,FN,3,num_8,32,num_6,0.850108714745,,,2017_Aug_16_1137,60.0137628815,MAFE4ImagesEEG,001,201126,
AFNE01.JPG,AFNE01.JPG,AFNE01.JPG,AFNE01.JPG,AFNE01.JPG,AFNE01.JPG,,,,,3,3,33,0,,,,,,,,,,,,,,,,,,,AFNE03.jpg,AFSA17.jpg,AFSA06.jpg,AFNE17.jpg,AFNE17.jpg,FN,3,num_4,32,num_2,0.766801067308,,,2017_Aug_16_1137,60.0137628815,MAFE4ImagesEEG,001,201126,
AFNE01.JPG,AFNE01.JPG,AFNE01.JPG,AFNE01.JPG,AFNE01.JPG,AFNE01.JPG,,,,,3,4,34,4,,,,,,,,,,,,,,,,,,,AFSA17.jpg,AFNE17.jpg,AFSA19.jpg,AFNE13.jpg,AFNE13.jpg,FN,3,num_4,32,num_6,1.40035723988,,,2017_Aug_16_1137,60.0137628815,MAFE4ImagesEEG,001,201126,
AFNE01.JPG,AFNE01.JPG,AFNE01.JPG,AFNE01.JPG,AFNE01.JPG,AFNE01.JPG,,,,,3,5,35,7,,,,,,,,,,,,,,,,,,,AFNE01.jpg,AFNE07.jpg,AFSA06.jpg,AFSA03.jpg,AFSA06.jpg,FS,4,num_2,32,num_4,0.650142584811,,,2017_Aug_16_1137,60.0137628815,MAFE4ImagesEEG,001,201126,
AFNE01.JPG,AFNE01.JPG,AFNE01.JPG,AFNE01.JPG,AFNE01.JPG,AFNE01.JPG,,,,,3,6,36,6,,,,,,,,,,,,,,,,,,,AFSA03.jpg,AFSA01.jpg,AFNE14.jpg,AFNE13.jpg,AFSA03.jpg,FS,4,num_8,16,num_8,0.483528252196,,,2017_Aug_16_1137,60.0137628815,MAFE4ImagesEEG,001,201126,
AFNE01.JPG,AFNE01.JPG,AFNE01.JPG,AFNE01.JPG,AFNE01.JPG,AFNE01.JPG,,,,,3,7,37,2,,,,,,,,,,,,,,,,,,,AFSA06.jpg,AFNE04.jpg,AFNE05.jpg,AFSA17.jpg,AFNE04.jpg,FN,3,num_6,16,num_6,0.450227131834,,,2017_Aug_16_1137,60.0137628815,MAFE4ImagesEEG,001,201126,
AFNE01.JPG,AFNE01.JPG,AFNE01.JPG,AFNE01.JPG,AFNE01.JPG,AFNE01.JPG,,,,,3,8,38,3,,,,,,,,,,,,,,,,,,,AFSA16.jpg,AFSA06.jpg,AFNE11.jpg,AFNE17.jpg,AFNE17.jpg,FN,3,num_4,16,num_4,0.800137148297,,,2017_Aug_16_1137,60.0137628815,MAFE4ImagesEEG,001,201126,
AFNE01.JPG,AFNE01.JPG,AFNE01.JPG,AFNE01.JPG,AFNE01.JPG,AFNE01.JPG,,,,,3,9,39,1,,,,,,,,,,,,,,,,,,,AFNE17.jpg,AFSA01.jpg,AFSA04.jpg,AFNE09.jpg,AFSA04.jpg,FS,4,num_2,16,num_2,0.866757671203,,,2017_Aug_16_1137,60.0137628815,MAFE4ImagesEEG,001,201126,
AFNE01.JPG,AFNE01.JPG,AFNE01.JPG,AFNE01.JPG,AFNE01.JPG,AFNE01.JPG,,,,,4,0,40,3,,,,,,,,,,,,,,,,,,,AFSA15.jpg,AFSA11.jpg,AFNE04.jpg,AFNE02.jpg,AFNE04.jpg,FN,3,num_2,32,num_8,3.61661855035,,,2017_Aug_16_1137,60.0137628815,MAFE4ImagesEEG,001,201126,
AFNE01.JPG,AFNE01.JPG,AFNE01.JPG,AFNE01.JPG,AFNE01.JPG,AFNE01.JPG,,,,,4,1,41,9,,,,,,,,,,,,,,,,,,,AFSA01.jpg,AFSA06.jpg,AFNE02.jpg,AFNE19.jpg,AFSA06.jpg,FS,4,num_6,16,num_6,0.933433682076,,,2017_Aug_16_1137,60.0137628815,MAFE4ImagesEEG,001,201126,
AFNE01.JPG,AFNE01.JPG,AFNE01.JPG,AFNE01.JPG,AFNE01.JPG,AFNE01.JPG,,,,,4,2,42,6,,,,,,,,,,,,,,,,,,,AFSA20.jpg,AFNE07.jpg,AFNE05.jpg,AFSA19.jpg,AFSA20.jpg,FS,4,num_8,16,num_8,0.916779914522,,,2017_Aug_16_1137,60.0137628815,MAFE4ImagesEEG,001,201126,
AFNE01.JPG,AFNE01.JPG,AFNE01.JPG,AFNE01.JPG,AFNE01.JPG,AFNE01.JPG,,,,,4,3,43,4,,,,,,,,,,,,,,,,,,,AFNE10.jpg,AFSA17.jpg,AFNE02.jpg,AFSA05.jpg,AFSA17.jpg,FS,4,num_6,32,num_8,1.00009622192,,,2017_Aug_16_1137,60.0137628815,MAFE4ImagesEEG,001,201126,
AFNE01.JPG,AFNE01.JPG,AFNE01.JPG,AFNE01.JPG,AFNE01.JPG,AFNE01.JPG,,,,,4,4,44,7,,,,,,,,,,,,,,,,,,,AFSA04.jpg,AFNE12.jpg,AFNE13.jpg,AFSA02.jpg,AFNE12.jpg,FN,3,num_6,16,num_6,0.566838786268,,,2017_Aug_16_1137,60.0137628815,MAFE4ImagesEEG,001,201126,
AFNE01.JPG,AFNE01.JPG,AFNE01.JPG,AFNE01.JPG,AFNE01.JPG,AFNE01.JPG,,,,,4,5,45,8,,,,,,,,,,,,,,,,,,,AFNE05.jpg,AFNE03.jpg,AFSA12.jpg,AFSA11.jpg,AFSA12.jpg,FS,4,num_2,16,num_2,0.633455781062,,,2017_Aug_16_1137,60.0137628815,MAFE4ImagesEEG,001,201126,
AFNE01.JPG,AFNE01.JPG,AFNE01.JPG,AFNE01.JPG,AFNE01.JPG,AFNE01.JPG,,,,,4,6,46,5,,,,,,,,,,,,,,,,,,,AFNE14.jpg,AFSA18.jpg,AFSA12.jpg,AFNE07.jpg,AFSA18.jpg,FS,4,num_6,16,num_6,0.766749428178,,,2017_Aug_16_1137,60.0137628815,MAFE4ImagesEEG,001,201126,
AFNE01.JPG,AFNE01.JPG,AFNE01.JPG,AFNE01.JPG,AFNE01.JPG,AFNE01.JPG,,,,,4,7,47,0,,,,,,,,,,,,,,,,,,,AFNE19.jpg,AFSA17.jpg,AFSA05.jpg,AFNE03.jpg,AFNE19.jpg,FN,3,num_8,16,num_8,0.450180303829,,,2017_Aug_16_1137,60.0137628815,MAFE4ImagesEEG,001,201126,
AFNE01.JPG,AFNE01.JPG,AFNE01.JPG,AFNE01.JPG,AFNE01.JPG,AFNE01.JPG,,,,,4,8,48,1,,,,,,,,,,,,,,,,,,,AFSA16.jpg,AFNE10.jpg,AFNE02.jpg,AFSA13.jpg,AFSA13.jpg,FS,4,num_4,32,num_8,0.950113108847,,,2017_Aug_16_1137,60.0137628815,MAFE4ImagesEEG,001,201126,
AFNE01.JPG,AFNE01.JPG,AFNE01.JPG,AFNE01.JPG,AFNE01.JPG,AFNE01.JPG,,,,,4,9,49,2,,,,,,,,,,,,,,,,,,,AFNE09.jpg,AFNE12.jpg,AFSA01.jpg,AFSA15.jpg,AFNE09.jpg,FN,3,num_8,16,num_8,1.03343775551,,,2017_Aug_16_1137,60.0137628815,MAFE4ImagesEEG,001,201126,
AFNE01.JPG,AFNE01.JPG,AFNE01.JPG,AFNE01.JPG,AFNE01.JPG,AFNE01.JPG,,,,,5,0,50,3,,,,,,,,,,,,,,,,,,,AFNE12.jpg,AFNE07.jpg,AFSA18.jpg,AFSA06.jpg,AFSA06.jpg,FS,4,num_4,16,num_4,1.00012797513,,,2017_Aug_16_1137,60.0137628815,MAFE4ImagesEEG,001,201126,
AFNE01.JPG,AFNE01.JPG,AFNE01.JPG,AFNE01.JPG,AFNE01.JPG,AFNE01.JPG,,,,,5,1,51,5,,,,,,,,,,,,,,,,,,,AFSA11.jpg,AFSA14.jpg,AFNE19.jpg,AFNE17.jpg,AFNE19.jpg,FN,3,num_2,16,num_2,0.516767469817,,,2017_Aug_16_1137,60.0137628815,MAFE4ImagesEEG,001,201126,
AFNE01.JPG,AFNE01.JPG,AFNE01.JPG,AFNE01.JPG,AFNE01.JPG,AFNE01.JPG,,,,,5,2,52,9,,,,,,,,,,,,,,,,,,,AFNE01.jpg,AFSA13.jpg,AFSA06.jpg,AFNE11.jpg,AFNE01.jpg,FN,3,num_8,16,num_8,1.31670928764,,,2017_Aug_16_1137,60.0137628815,MAFE4ImagesEEG,001,201126,
AFNE01.JPG,AFNE01.JPG,AFNE01.JPG,AFNE01.JPG,AFNE01.JPG,AFNE01.JPG,,,,,5,3,53,2,,,,,,,,,,,,,,,,,,,AFNE14.jpg,AFSA01.jpg,AFNE19.jpg,AFSA15.jpg,AFNE14.jpg,FN,3,num_8,16,num_8,1.0164510601,,,2017_Aug_16_1137,60.0137628815,MAFE4ImagesEEG,001,201126,
AFNE01.JPG,AFNE01.JPG,AFNE01.JPG,AFNE01.JPG,AFNE01.JPG,AFNE01.JPG,,,,,5,4,54,6,,,,,,,,,,,,,,,,,,,AFNE15.jpg,AFSA13.jpg,AFNE06.jpg,AFSA14.jpg,AFNE15.jpg,FN,3,num_8,16,num_8,1.93344426653,,,2017_Aug_16_1137,60.0137628815,MAFE4ImagesEEG,001,201126,
AFNE01.JPG,AFNE01.JPG,AFNE01.JPG,AFNE01.JPG,AFNE01.JPG,AFNE01.JPG,,,,,5,5,55,7,,,,,,,,,,,,,,,,,,,AFSA04.jpg,AFNE18.jpg,AFSA19.jpg,AFNE13.jpg,AFSA04.jpg,FS,4,num_8,32,num_4,1.23344526079,,,2017_Aug_16_1137,60.0137628815,MAFE4ImagesEEG,001,201126,
AFNE01.JPG,AFNE01.JPG,AFNE01.JPG,AFNE01.JPG,AFNE01.JPG,AFNE01.JPG,,,,,5,6,56,8,,,,,,,,,,,,,,,,,,,AFNE13.jpg,AFNE12.jpg,AFSA06.jpg,AFSA03.jpg,AFNE12.jpg,FN,3,num_6,32,num_8,1.00040766015,,,2017_Aug_16_1137,60.0137628815,MAFE4ImagesEEG,001,201126,
AFNE01.JPG,AFNE01.JPG,AFNE01.JPG,AFNE01.JPG,AFNE01.JPG,AFNE01.JPG,,,,,5,7,57,0,,,,,,,,,,,,,,,,,,,AFNE08.jpg,AFSA11.jpg,AFNE16.jpg,AFSA15.jpg,AFSA11.jpg,FS,4,num_6,16,num_6,0.466844335082,,,2017_Aug_16_1137,60.0137628815,MAFE4ImagesEEG,001,201126,
AFNE01.JPG,AFNE01.JPG,AFNE01.JPG,AFNE01.JPG,AFNE01.JPG,AFNE01.JPG,,,,,5,8,58,4,,,,,,,,,,,,,,,,,,,AFSA02.jpg,AFNE01.jpg,AFNE03.jpg,AFSA12.jpg,AFNE01.jpg,FN,3,num_6,32,num_2,1.58339825639,,,2017_Aug_16_1137,60.0137628815,MAFE4ImagesEEG,001,201126,
AFNE01.JPG,AFNE01.JPG,AFNE01.JPG,AFNE01.JPG,AFNE01.JPG,AFNE01.JPG,,,,,5,9,59,1,,,,,,,,,,,,,,,,,,,AFNE16.jpg,AFSA09.jpg,AFSA03.jpg,AFNE05.jpg,AFSA09.jpg,FS,4,num_6,32,num_2,0.816796689207,,,2017_Aug_16_1137,60.0137628815,MAFE4ImagesEEG,001,201126,
,,,,,,,,,,,,,,,,,,,,,,,,,,,,,,,,,,,,,,,,,,,space,36.8805873257,2017_Aug_16_1137,60.0137628815,MAFE4ImagesEEG,001,201126,
AFNE01.JPG,AFNE01.JPG,AFNE01.JPG,AFNE01.JPG,AFNE01.JPG,AFNE01.JPG,,,,,,,,,0,0,0,4,,,,,,,,,,,,,,,AMNE11.jpg,AMSA15.jpg,AMSA06.jpg,AMNE13.jpg,AMNE11.jpg,MN,1,num_8,32,num_6,1.08348854462,,,2017_Aug_16_1137,60.0137628815,MAFE4ImagesEEG,001,201126,
AFNE01.JPG,AFNE01.JPG,AFNE01.JPG,AFNE01.JPG,AFNE01.JPG,AFNE01.JPG,,,,,,,,,0,1,1,9,,,,,,,,,,,,,,,AMSA20.jpg,AMNE05.jpg,AMSA02.jpg,AMNE18.jpg,AMSA20.jpg,MS,2,num_8,16,num_8,0.616658001352,,,2017_Aug_16_1137,60.0137628815,MAFE4ImagesEEG,001,201126,
AFNE01.JPG,AFNE01.JPG,AFNE01.JPG,AFNE01.JPG,AFNE01.JPG,AFNE01.JPG,,,,,,,,,0,2,2,5,,,,,,,,,,,,,,,AMNE17.jpg,AMSA09.jpg,AMNE14.jpg,AMSA15.jpg,AMSA15.jpg,MS,2,num_4,16,num_4,0.483433954709,,,2017_Aug_16_1137,60.0137628815,MAFE4ImagesEEG,001,201126,
AFNE01.JPG,AFNE01.JPG,AFNE01.JPG,AFNE01.JPG,AFNE01.JPG,AFNE01.JPG,,,,,,,,,0,3,3,7,,,,,,,,,,,,,,,AMSA03.jpg,AMNE10.jpg,AMNE04.jpg,AMSA02.jpg,AMSA03.jpg,MS,2,num_8,32,num_2,1.06657177047,,,2017_Aug_16_1137,60.0137628815,MAFE4ImagesEEG,001,201126,
AFNE01.JPG,AFNE01.JPG,AFNE01.JPG,AFNE01.JPG,AFNE01.JPG,AFNE01.JPG,,,,,,,,,0,4,4,3,,,,,,,,,,,,,,,AMNE08.jpg,AMNE09.jpg,AMSA12.jpg,AMSA10.jpg,AMNE09.jpg,MN,1,num_6,16,num_6,0.716752844077,,,2017_Aug_16_1137,60.0137628815,MAFE4ImagesEEG,001,201126,
AFNE01.JPG,AFNE01.JPG,AFNE01.JPG,AFNE01.JPG,AFNE01.JPG,AFNE01.JPG,,,,,,,,,0,5,5,8,,,,,,,,,,,,,,,AMSA13.jpg,AMNE15.jpg,AMNE19.jpg,AMSA02.jpg,AMSA02.jpg,MS,2,num_4,16,num_4,0.483470839798,,,2017_Aug_16_1137,60.0137628815,MAFE4ImagesEEG,001,201126,
AFNE01.JPG,AFNE01.JPG,AFNE01.JPG,AFNE01.JPG,AFNE01.JPG,AFNE01.JPG,,,,,,,,,0,6,6,6,,,,,,,,,,,,,,,AMSA19.jpg,AMNE17.jpg,AMSA15.jpg,AMNE18.jpg,AMSA15.jpg,MS,2,num_2,32,num_6,1.38345008795,,,2017_Aug_16_1137,60.0137628815,MAFE4ImagesEEG,001,201126,
AFNE01.JPG,AFNE01.JPG,AFNE01.JPG,AFNE01.JPG,AFNE01.JPG,AFNE01.JPG,,,,,,,,,0,7,7,2,,,,,,,,,,,,,,,AMNE18.jpg,AMNE19.jpg,AMSA09.jpg,AMSA03.jpg,AMSA09.jpg,MS,2,num_2,32,num_8,0.650099284976,,,2017_Aug_16_1137,60.0137628815,MAFE4ImagesEEG,001,201126,
AFNE01.JPG,AFNE01.JPG,AFNE01.JPG,AFNE01.JPG,AFNE01.JPG,AFNE01.JPG,,,,,,,,,0,8,8,1,,,,,,,,,,,,,,,AMSA12.jpg,AMNE09.jpg,AMNE11.jpg,AMSA17.jpg,AMNE09.jpg,MN,1,num_6,16,num_6,0.833466814511,,,2017_Aug_16_1137,60.0137628815,MAFE4ImagesEEG,001,201126,
AFNE01.JPG,AFNE01.JPG,AFNE01.JPG,AFNE01.JPG,AFNE01.JPG,AFNE01.JPG,,,,,,,,,0,9,9,0,,,,,,,,,,,,,,,AMNE11.jpg,AMSA03.jpg,AMSA11.jpg,AMNE19.jpg,AMNE11.jpg,MN,1,num_8,16,num_8,0.933460303495,,,2017_Aug_16_1137,60.0137628815,MAFE4ImagesEEG,001,201126,
AFNE01.JPG,AFNE01.JPG,AFNE01.JPG,AFNE01.JPG,AFNE01.JPG,AFNE01.JPG,,,,,,,,,1,0,10,4,,,,,,,,,,,,,,,AMNE03.jpg,AMSA05.jpg,AMNE12.jpg,AMSA20.jpg,AMNE12.jpg,MN,1,num_2,32,num_6,1.38340935396,,,2017_Aug_16_1137,60.0137628815,MAFE4ImagesEEG,001,201126,
AFNE01.JPG,AFNE01.JPG,AFNE01.JPG,AFNE01.JPG,AFNE01.JPG,AFNE01.JPG,,,,,,,,,1,1,11,2,,,,,,,,,,,,,,,AMSA06.jpg,AMNE04.jpg,AMSA17.jpg,AMNE13.jpg,AMSA17.jpg,MS,2,num_2,32,num_6,0.616640681401,,,2017_Aug_16_1137,60.0137628815,MAFE4ImagesEEG,001,201126,
AFNE01.JPG,AFNE01.JPG,AFNE01.JPG,AFNE01.JPG,AFNE01.JPG,AFNE01.JPG,,,,,,,,,1,2,12,3,,,,,,,,,,,,,,,AMSA08.jpg,AMSA13.jpg,AMNE11.jpg,AMNE09.jpg,AMNE11.jpg,MN,1,num_2,32,num_8,0.883440626116,,,2017_Aug_16_1137,60.0137628815,MAFE4ImagesEEG,001,201126,
AFNE01.JPG,AFNE01.JPG,AFNE01.JPG,AFNE01.JPG,AFNE01.JPG,AFNE01.JPG,,,,,,,,,1,3,13,6,,,,,,,,,,,,,,,AMSA11.jpg,AMNE14.jpg,AMSA07.jpg,AMNE17.jpg,AMNE14.jpg,MN,1,num_6,16,num_6,1.64996200838,,,2017_Aug_16_1137,60.0137628815,MAFE4ImagesEEG,001,201126,
AFNE01.JPG,AFNE01.JPG,AFNE01.JPG,AFNE01.JPG,AFNE01.JPG,AFNE01.JPG,,,,,,,,,1,4,14,7,,,,,,,,,,,,,,,AMNE01.jpg,AMNE15.jpg,AMSA03.jpg,AMSA19.jpg,AMNE01.jpg,MN,1,num_8,16,num_8,1.28342099686,,,2017_Aug_16_1137,60.0137628815,MAFE4ImagesEEG,001,201126,
AFNE01.JPG,AFNE01.JPG,AFNE01.JPG,AFNE01.JPG,AFNE01.JPG,AFNE01.JPG,,,,,,,,,1,5,15,9,,,,,,,,,,,,,,,AMNE17.jpg,AMNE03.jpg,AMSA02.jpg,AMSA12.jpg,AMNE03.jpg,MN,1,num_6,16,num_6,0.733448949293,,,2017_Aug_16_1137,60.0137628815,MAFE4ImagesEEG,001,201126,
AFNE01.JPG,AFNE01.JPG,AFNE01.JPG,AFNE01.JPG,AFNE01.JPG,AFNE01.JPG,,,,,,,,,1,6,16,5,,,,,,,,,,,,,,,AMNE09.jpg,AMSA08.jpg,AMSA14.jpg,AMNE11.jpg,AMNE11.jpg,MN,1,num_4,16,num_4,0.783481456281,,,2017_Aug_16_1137,60.0137628815,MAFE4ImagesEEG,001,201126,
AFNE01.JPG,AFNE01.JPG,AFNE01.JPG,AFNE01.JPG,AFNE01.JPG,AFNE01.JPG,,,,,,,,,1,7,17,1,,,,,,,,,,,,,,,AMNE13.jpg,AMNE04.jpg,AMSA20.jpg,AMSA09.jpg,AMNE13.jpg,MN,1,num_8,16,num_8,0.766782785155,,,2017_Aug_16_1137,60.0137628815,MAFE4ImagesEEG,001,201126,
AFNE01.JPG,AFNE01.JPG,AFNE01.JPG,AFNE01.JPG,AFNE01.JPG,AFNE01.JPG,,,,,,,,,1,8,18,0,,,,,,,,,,,,,,,AMNE03.jpg,AMSA11.jpg,AMNE09.jpg,AMSA02.jpg,AMNE03.jpg,MN,1,num_8,32,num_4,0.70011511349,,,2017_Aug_16_1137,60.0137628815,MAFE4ImagesEEG,001,201126,
AFNE01.JPG,AFNE01.JPG,AFNE01.JPG,AFNE01.JPG,AFNE01.JPG,AFNE01.JPG,,,,,,,,,1,9,19,8,,,,,,,,,,,,,,,AMNE17.jpg,AMSA19.jpg,AMNE15.jpg,AMSA18.jpg,AMNE17.jpg,MN,1,num_8,16,num_8,0.716782993608,,,2017_Aug_16_1137,60.0137628815,MAFE4ImagesEEG,001,201126,
AFNE01.JPG,AFNE01.JPG,AFNE01.JPG,AFNE01.JPG,AFNE01.JPG,AFNE01.JPG,,,,,,,,,2,0,20,6,,,,,,,,,,,,,,,AMNE16.jpg,AMSA16.jpg,AMNE14.jpg,AMSA17.jpg,AMNE16.jpg,MN,1,num_8,16,num_8,1.13342771636,,,2017_Aug_16_1137,60.0137628815,MAFE4ImagesEEG,001,201126,
AFNE01.JPG,AFNE01.JPG,AFNE01.JPG,AFNE01.JPG,AFNE01.JPG,AFNE01.JPG,,,,,,,,,2,1,21,3,,,,,,,,,,,,,,,AMSA20.jpg,AMNE14.jpg,AMNE05.jpg,AMSA09.jpg,AMNE05.jpg,MN,1,num_2,16,num_2,1.48370369681,,,2017_Aug_16_1137,60.0137628815,MAFE4ImagesEEG,001,201126,
AFNE01.JPG,AFNE01.JPG,AFNE01.JPG,AFNE01.JPG,AFNE01.JPG,AFNE01.JPG,,,,,,,,,2,2,22,7,,,,,,,,,,,,,,,AMSA03.jpg,AMSA05.jpg,AMNE06.jpg,AMNE07.jpg,AMSA05.jpg,MS,2,num_6,16,num_6,0.550102909328,,,2017_Aug_16_1137,60.0137628815,MAFE4ImagesEEG,001,201126,
AFNE01.JPG,AFNE01.JPG,AFNE01.JPG,AFNE01.JPG,AFNE01.JPG,AFNE01.JPG,,,,,,,,,2,3,23,4,,,,,,,,,,,,,,,AMNE20.jpg,AMNE19.jpg,AMSA15.jpg,AMSA13.jpg,AMNE20.jpg,MN,1,num_8,32,num_6,0.766436065518,,,2017_Aug_16_1137,60.0137628815,MAFE4ImagesEEG,001,201126,
AFNE01.JPG,AFNE01.JPG,AFNE01.JPG,AFNE01.JPG,AFNE01.JPG,AFNE01.JPG,,,,,,,,,2,4,24,5,,,,,,,,,,,,,,,AMNE13.jpg,AMSA11.jpg,AMSA08.jpg,AMNE02.jpg,AMNE13.jpg,MN,1,num_8,16,num_8,0.80011597948,,,2017_Aug_16_1137,60.0137628815,MAFE4ImagesEEG,001,201126,
AFNE01.JPG,AFNE01.JPG,AFNE01.JPG,AFNE01.JPG,AFNE01.JPG,AFNE01.JPG,,,,,,,,,2,5,25,8,,,,,,,,,,,,,,,AMSA13.jpg,AMSA08.jpg,AMNE13.jpg,AMNE01.jpg,AMSA08.jpg,MS,2,num_6,16,num_6,1.50004217727,,,2017_Aug_16_1137,60.0137628815,MAFE4ImagesEEG,001,201126,
AFNE01.JPG,AFNE01.JPG,AFNE01.JPG,AFNE01.JPG,AFNE01.JPG,AFNE01.JPG,,,,,,,,,2,6,26,2,,,,,,,,,,,,,,,AMSA10.jpg,AMNE17.jpg,AMNE18.jpg,AMSA03.jpg,AMNE17.jpg,MN,1,num_6,32,num_2,0.833481889247,,,2017_Aug_16_1137,60.0137628815,MAFE4ImagesEEG,001,201126,
AFNE01.JPG,AFNE01.JPG,AFNE01.JPG,AFNE01.JPG,AFNE01.JPG,AFNE01.JPG,,,,,,,,,2,7,27,0,,,,,,,,,,,,,,,AMSA06.jpg,AMNE16.jpg,AMSA03.jpg,AMNE10.jpg,AMNE16.jpg,MN,1,num_6,16,num_6,1.01662265582,,,2017_Aug_16_1137,60.0137628815,MAFE4ImagesEEG,001,201126,
AFNE01.JPG,AFNE01.JPG,AFNE01.JPG,AFNE01.JPG,AFNE01.JPG,AFNE01.JPG,,,,,,,,,2,8,28,9,,,,,,,,,,,,,,,AMSA15.jpg,AMNE20.jpg,AMSA06.jpg,AMNE09.jpg,AMSA06.jpg,MS,2,num_2,16,num_2,1.41679258374,,,2017_Aug_16_1137,60.0137628815,MAFE4ImagesEEG,001,201126,
AFNE01.JPG,AFNE01.JPG,AFNE01.JPG,AFNE01.JPG,AFNE01.JPG,AFNE01.JPG,,,,,,,,,2,9,29,1,,,,,,,,,,,,,,,AMNE08.jpg,AMSA12.jpg,AMSA18.jpg,AMNE19.jpg,AMNE19.jpg,MN,1,num_4,16,num_4,0.916760670138,,,2017_Aug_16_1137,60.0137628815,MAFE4ImagesEEG,001,201126,
AFNE01.JPG,AFNE01.JPG,AFNE01.JPG,AFNE01.JPG,AFNE01.JPG,AFNE01.JPG,,,,,,,,,3,0,30,4,,,,,,,,,,,,,,,AMNE02.jpg,AMNE15.jpg,AMSA19.jpg,AMSA10.jpg,AMSA19.jpg,MS,2,num_2,16,num_2,0.666766202892,,,2017_Aug_16_1137,60.0137628815,MAFE4ImagesEEG,001,201126,
AFNE01.JPG,AFNE01.JPG,AFNE01.JPG,AFNE01.JPG,AFNE01.JPG,AFNE01.JPG,,,,,,,,,3,1,31,1,,,,,,,,,,,,,,,AMNE18.jpg,AMSA19.jpg,AMNE20.jpg,AMSA02.jpg,AMNE20.jpg,MN,1,num_2,16,num_2,0.633548795566,,,2017_Aug_16_1137,60.0137628815,MAFE4ImagesEEG,001,201126,
AFNE01.JPG,AFNE01.JPG,AFNE01.JPG,AFNE01.JPG,AFNE01.JPG,AFNE01.JPG,,,,,,,,,3,2,32,0,,,,,,,,,,,,,,,AMNE14.jpg,AMNE17.jpg,AMSA01.jpg,AMSA12.jpg,AMNE14.jpg,MN,1,num_8,32,num_6,0.866764086008,,,2017_Aug_16_1137,60.0137628815,MAFE4ImagesEEG,001,201126,
AFNE01.JPG,AFNE01.JPG,AFNE01.JPG,AFNE01.JPG,AFNE01.JPG,AFNE01.JPG,,,,,,,,,3,3,33,6,,,,,,,,,,,,,,,AMSA03.jpg,AMNE07.jpg,AMNE18.jpg,AMSA20.jpg,AMNE18.jpg,MN,1,num_2,16,num_2,0.600107511971,,,2017_Aug_16_1137,60.0137628815,MAFE4ImagesEEG,001,201126,
AFNE01.JPG,AFNE01.JPG,AFNE01.JPG,AFNE01.JPG,AFNE01.JPG,AFNE01.JPG,,,,,,,,,3,4,34,9,,,,,,,,,,,,,,,AMNE09.jpg,AMNE20.jpg,AMSA14.jpg,AMSA15.jpg,AMNE09.jpg,MN,1,num_8,16,num_8,0.566802221962,,,2017_Aug_16_1137,60.0137628815,MAFE4ImagesEEG,001,201126,
AFNE01.JPG,AFNE01.JPG,AFNE01.JPG,AFNE01.JPG,AFNE01.JPG,AFNE01.JPG,,,,,,,,,3,5,35,3,,,,,,,,,,,,,,,AMSA02.jpg,AMNE14.jpg,AMNE04.jpg,AMSA15.jpg,AMNE04.jpg,MN,1,num_2,16,num_2,0.766919420246,,,2017_Aug_16_1137,60.0137628815,MAFE4ImagesEEG,001,201126,
AFNE01.JPG,AFNE01.JPG,AFNE01.JPG,AFNE01.JPG,AFNE01.JPG,AFNE01.JPG,,,,,,,,,3,6,36,7,,,,,,,,,,,,,,,AMNE01.jpg,AMNE07.jpg,AMSA06.jpg,AMSA10.jpg,AMNE07.jpg,MN,1,num_6,16,num_6,0.700115434243,,,2017_Aug_16_1137,60.0137628815,MAFE4ImagesEEG,001,201126,
AFNE01.JPG,AFNE01.JPG,AFNE01.JPG,AFNE01.JPG,AFNE01.JPG,AFNE01.JPG,,,,,,,,,3,7,37,5,,,,,,,,,,,,,,,AMSA14.jpg,AMNE15.jpg,AMNE19.jpg,AMSA15.jpg,AMSA14.jpg,MS,2,num_8,32,num_2,0.750139601936,,,2017_Aug_16_1137,60.0137628815,MAFE4ImagesEEG,001,201126,
AFNE01.JPG,AFNE01.JPG,AFNE01.JPG,AFNE01.JPG,AFNE01.JPG,AFNE01.JPG,,,,,,,,,3,8,38,2,,,,,,,,,,,,,,,AMSA04.jpg,AMNE18.jpg,AMSA01.jpg,AMNE12.jpg,AMSA04.jpg,MS,2,num_8,16,num_8,0.616742676648,,,2017_Aug_16_1137,60.0137628815,MAFE4ImagesEEG,001,201126,
AFNE01.JPG,AFNE01.JPG,AFNE01.JPG,AFNE01.JPG,AFNE01.JPG,AFNE01.JPG,,,,,,,,,3,9,39,8,,,,,,,,,,,,,,,AMSA13.jpg,AMNE02.jpg,AMSA06.jpg,AMNE14.jpg,AMNE02.jpg,MN,1,num_6,16,num_6,0.833455267886,,,2017_Aug_16_1137,60.0137628815,MAFE4ImagesEEG,001,201126,
AFNE01.JPG,AFNE01.JPG,AFNE01.JPG,AFNE01.JPG,AFNE01.JPG,AFNE01.JPG,,,,,,,,,4,0,40,5,,,,,,,,,,,,,,,AMSA02.jpg,AMNE13.jpg,AMSA03.jpg,AMNE17.jpg,AMNE13.jpg,MN,1,num_6,16,num_6,0.866730087611,,,2017_Aug_16_1137,60.0137628815,MAFE4ImagesEEG,001,201126,
AFNE01.JPG,AFNE01.JPG,AFNE01.JPG,AFNE01.JPG,AFNE01.JPG,AFNE01.JPG,,,,,,,,,4,1,41,0,,,,,,,,,,,,,,,AMSA20.jpg,AMNE05.jpg,AMNE17.jpg,AMSA13.jpg,AMNE05.jpg,MN,1,num_6,32,num_4,0.999841554614,,,2017_Aug_16_1137,60.0137628815,MAFE4ImagesEEG,001,201126,
AFNE01.JPG,AFNE01.JPG,AFNE01.JPG,AFNE01.JPG,AFNE01.JPG,AFNE01.JPG,,,,,,,,,4,2,42,2,,,,,,,,,,,,,,,AMNE08.jpg,AMNE06.jpg,AMSA20.jpg,AMSA06.jpg,AMNE08.jpg,MN,1,num_8,32,num_2,2.84999100326,,,2017_Aug_16_1137,60.0137628815,MAFE4ImagesEEG,001,201126,
AFNE01.JPG,AFNE01.JPG,AFNE01.JPG,AFNE01.JPG,AFNE01.JPG,AFNE01.JPG,,,,,,,,,4,3,43,4,,,,,,,,,,,,,,,AMSA20.jpg,AMNE13.jpg,AMSA05.jpg,AMNE01.jpg,AMNE13.jpg,MN,1,num_6,16,num_6,1.40038257831,,,2017_Aug_16_1137,60.0137628815,MAFE4ImagesEEG,001,201126,
AFNE01.JPG,AFNE01.JPG,AFNE01.JPG,AFNE01.JPG,AFNE01.JPG,AFNE01.JPG,,,,,,,,,4,4,44,6,,,,,,,,,,,,,,,AMSA19.jpg,AMNE09.jpg,AMSA06.jpg,AMNE08.jpg,AMSA19.jpg,MS,2,num_8,32,num_2,0.933397117769,,,2017_Aug_16_1137,60.0137628815,MAFE4ImagesEEG,001,201126,
AFNE01.JPG,AFNE01.JPG,AFNE01.JPG,AFNE01.JPG,AFNE01.JPG,AFNE01.JPG,,,,,,,,,4,5,45,7,,,,,,,,,,,,,,,AMNE15.jpg,AMSA19.jpg,AMSA01.jpg,AMNE16.jpg,AMNE15.jpg,MN,1,num_8,16,num_8,1.13342066004,,,2017_Aug_16_1137,60.0137628815,MAFE4ImagesEEG,001,201126,
AFNE01.JPG,AFNE01.JPG,AFNE01.JPG,AFNE01.JPG,AFNE01.JPG,AFNE01.JPG,,,,,,,,,4,6,46,8,,,,,,,,,,,,,,,AMSA03.jpg,AMNE18.jpg,AMSA16.jpg,AMNE12.jpg,AMNE12.jpg,MN,1,num_4,16,num_4,1.68336095437,,,2017_Aug_16_1137,60.0137628815,MAFE4ImagesEEG,001,201126,
AFNE01.JPG,AFNE01.JPG,AFNE01.JPG,AFNE01.JPG,AFNE01.JPG,AFNE01.JPG,,,,,,,,,4,7,47,1,,,,,,,,,,,,,,,AMSA12.jpg,AMNE04.jpg,AMNE11.jpg,AMSA18.jpg,AMNE04.jpg,MN,1,num_6,16,num_6,1.08345230104,,,2017_Aug_16_1137,60.0137628815,MAFE4ImagesEEG,001,201126,
AFNE01.JPG,AFNE01.JPG,AFNE01.JPG,AFNE01.JPG,AFNE01.JPG,AFNE01.JPG,,,,,,,,,4,8,48,9,,,,,,,,,,,,,,,AMSA18.jpg,AMNE06.jpg,AMSA03.jpg,AMNE12.jpg,AMSA18.jpg,MS,2,num_8,16,num_8,1.00012540922,,,2017_Aug_16_1137,60.0137628815,MAFE4ImagesEEG,001,201126,
AFNE01.JPG,AFNE01.JPG,AFNE01.JPG,AFNE01.JPG,AFNE01.JPG,AFNE01.JPG,,,,,,,,,4,9,49,3,,,,,,,,,,,,,,,AMNE18.jpg,AMSA07.jpg,AMNE01.jpg,AMSA09.jpg,AMSA09.jpg,MS,2,num_4,16,num_4,1.06676196912,,,2017_Aug_16_1137,60.0137628815,MAFE4ImagesEEG,001,201126,
AFNE01.JPG,AFNE01.JPG,AFNE01.JPG,AFNE01.JPG,AFNE01.JPG,AFNE01.JPG,,,,,,,,,5,0,50,8,,,,,,,,,,,,,,,AMNE14.jpg,AMNE11.jpg,AMSA17.jpg,AMSA20.jpg,AMSA20.jpg,MS,2,num_4,32,num_2,0.883452493494,,,2017_Aug_16_1137,60.0137628815,MAFE4ImagesEEG,001,201126,
AFNE01.JPG,AFNE01.JPG,AFNE01.JPG,AFNE01.JPG,AFNE01.JPG,AFNE01.JPG,,,,,,,,,5,1,51,3,,,,,,,,,,,,,,,AMSA05.jpg,AMSA01.jpg,AMNE13.jpg,AMNE20.jpg,AMNE20.jpg,MN,1,num_4,16,num_4,1.01676987536,,,2017_Aug_16_1137,60.0137628815,MAFE4ImagesEEG,001,201126,
AFNE01.JPG,AFNE01.JPG,AFNE01.JPG,AFNE01.JPG,AFNE01.JPG,AFNE01.JPG,,,,,,,,,5,2,52,2,,,,,,,,,,,,,,,AMSA19.jpg,AMNE20.jpg,AMSA18.jpg,AMNE01.jpg,AMSA18.jpg,MS,2,num_2,16,num_2,0.983246161632,,,2017_Aug_16_1137,60.0137628815,MAFE4ImagesEEG,001,201126,
AFNE01.JPG,AFNE01.JPG,AFNE01.JPG,AFNE01.JPG,AFNE01.JPG,AFNE01.JPG,,,,,,,,,5,3,53,7,,,,,,,,,,,,,,,AMNE10.jpg,AMSA18.jpg,AMSA14.jpg,AMNE13.jpg,AMNE10.jpg,MN,1,num_8,32,num_4,1.18340601827,,,2017_Aug_16_1137,60.0137628815,MAFE4ImagesEEG,001,201126,
AFNE01.JPG,AFNE01.JPG,AFNE01.JPG,AFNE01.JPG,AFNE01.JPG,AFNE01.JPG,,,,,,,,,5,4,54,1,,,,,,,,,,,,,,,AMNE17.jpg,AMSA13.jpg,AMNE19.jpg,AMSA02.jpg,AMSA02.jpg,MS,2,num_4,16,num_4,0.816814009158,,,2017_Aug_16_1137,60.0137628815,MAFE4ImagesEEG,001,201126,
AFNE01.JPG,AFNE01.JPG,AFNE01.JPG,AFNE01.JPG,AFNE01.JPG,AFNE01.JPG,,,,,,,,,5,5,55,5,,,,,,,,,,,,,,,AMNE08.jpg,AMNE16.jpg,AMSA10.jpg,AMSA06.jpg,AMNE16.jpg,MN,1,num_6,16,num_6,0.83347707818,,,2017_Aug_16_1137,60.0137628815,MAFE4ImagesEEG,001,201126,
AFNE01.JPG,AFNE01.JPG,AFNE01.JPG,AFNE01.JPG,AFNE01.JPG,AFNE01.JPG,,,,,,,,,5,6,56,9,,,,,,,,,,,,,,,AMNE18.jpg,AMNE02.jpg,AMSA06.jpg,AMSA20.jpg,AMSA20.jpg,MS,2,num_4,16,num_4,0.866783971869,,,2017_Aug_16_1137,60.0137628815,MAFE4ImagesEEG,001,201126,
AFNE01.JPG,AFNE01.JPG,AFNE01.JPG,AFNE01.JPG,AFNE01.JPG,AFNE01.JPG,,,,,,,,,5,7,57,6,,,,,,,,,,,,,,,AMNE11.jpg,AMSA11.jpg,AMSA17.jpg,AMNE07.jpg,AMSA17.jpg,MS,2,num_2,16,num_2,0.666766202892,,,2017_Aug_16_1137,60.0137628815,MAFE4ImagesEEG,001,201126,
AFNE01.JPG,AFNE01.JPG,AFNE01.JPG,AFNE01.JPG,AFNE01.JPG,AFNE01.JPG,,,,,,,,,5,8,58,4,,,,,,,,,,,,,,,AMNE01.jpg,AMSA17.jpg,AMNE10.jpg,AMSA13.jpg,AMNE01.jpg,MN,1,num_8,16,num_8,0.683435686718,,,2017_Aug_16_1137,60.0137628815,MAFE4ImagesEEG,001,201126,
AFNE01.JPG,AFNE01.JPG,AFNE01.JPG,AFNE01.JPG,AFNE01.JPG,AFNE01.JPG,,,,,,,,,5,9,59,0,,,,,,,,,,,,,,,AMSA02.jpg,AMSA09.jpg,AMNE12.jpg,AMNE03.jpg,AMSA09.jpg,MS,2,num_6,16,num_6,0.550131775934,,,2017_Aug_16_1137,60.0137628815,MAFE4ImagesEEG,001,201126,
,,,,,,,,,,,,,,,,,,,,,,,,,,,,,,,,,,,,,,,,,,,space,26.8477515986,2017_Aug_16_1137,60.0137628815,MAFE4ImagesEEG,001,201126,
AFNE01.JPG,AFNE01.JPG,AFNE01.JPG,AFNE01.JPG,AFNE01.JPG,AFNE01.JPG,,,,,,,,,,,,,0,0,0,3,,,,,,,,,,,AFSA17.jpg,AFNE20.jpg,AFNE13.jpg,AFSA07.jpg,AFNE13.jpg,FN,3,num_2,32,num_6,2.10030877611,,,2017_Aug_16_1137,60.0137628815,MAFE4ImagesEEG,001,201126,
AFNE01.JPG,AFNE01.JPG,AFNE01.JPG,AFNE01.JPG,AFNE01.JPG,AFNE01.JPG,,,,,,,,,,,,,0,1,1,6,,,,,,,,,,,AFNE05.jpg,AFSA14.jpg,AFSA16.jpg,AFNE07.jpg,AFNE05.jpg,FN,3,num_8,32,num_6,0.766768993315,,,2017_Aug_16_1137,60.0137628815,MAFE4ImagesEEG,001,201126,
AFNE01.JPG,AFNE01.JPG,AFNE01.JPG,AFNE01.JPG,AFNE01.JPG,AFNE01.JPG,,,,,,,,,,,,,0,2,2,2,,,,,,,,,,,AFNE07.jpg,AFSA08.jpg,AFSA10.jpg,AFNE15.jpg,AFNE07.jpg,FN,3,num_8,16,num_8,0.766761295585,,,2017_Aug_16_1137,60.0137628815,MAFE4ImagesEEG,001,201126,
AFNE01.JPG,AFNE01.JPG,AFNE01.JPG,AFNE01.JPG,AFNE01.JPG,AFNE01.JPG,,,,,,,,,,,,,0,3,3,4,,,,,,,,,,,AFNE14.jpg,AFSA02.jpg,AFNE11.jpg,AFSA08.jpg,AFNE11.jpg,FN,3,num_2,32,num_8,1.1334498474,,,2017_Aug_16_1137,60.0137628815,MAFE4ImagesEEG,001,201126,
AFNE01.JPG,AFNE01.JPG,AFNE01.JPG,AFNE01.JPG,AFNE01.JPG,AFNE01.JPG,,,,,,,,,,,,,0,4,4,7,,,,,,,,,,,AFSA14.jpg,AFSA17.jpg,AFNE06.jpg,AFNE04.jpg,AFNE06.jpg,FN,3,num_2,32,num_4,0.966786441539,,,2017_Aug_16_1137,60.0137628815,MAFE4ImagesEEG,001,201126,
AFNE01.JPG,AFNE01.JPG,AFNE01.JPG,AFNE01.JPG,AFNE01.JPG,AFNE01.JPG,,,,,,,,,,,,,0,5,5,5,,,,,,,,,,,AFNE16.jpg,AFSA19.jpg,AFSA11.jpg,AFNE05.jpg,AFSA11.jpg,FS,4,num_2,16,num_2,0.583488704986,,,2017_Aug_16_1137,60.0137628815,MAFE4ImagesEEG,001,201126,
AFNE01.JPG,AFNE01.JPG,AFNE01.JPG,AFNE01.JPG,AFNE01.JPG,AFNE01.JPG,,,,,,,,,,,,,0,6,6,0,,,,,,,,,,,AFNE16.jpg,AFSA13.jpg,AFNE18.jpg,AFSA14.jpg,AFSA13.jpg,FS,4,num_6,16,num_6,1.45002859394,,,2017_Aug_16_1137,60.0137628815,MAFE4ImagesEEG,001,201126,
AFNE01.JPG,AFNE01.JPG,AFNE01.JPG,AFNE01.JPG,AFNE01.JPG,AFNE01.JPG,,,,,,,,,,,,,0,7,7,8,,,,,,,,,,,AFSA08.jpg,AFSA19.jpg,AFNE18.jpg,AFNE05.jpg,AFSA19.jpg,FS,4,num_6,16,num_6,0.633459309203,,,2017_Aug_16_1137,60.0137628815,MAFE4ImagesEEG,001,201126,
AFNE01.JPG,AFNE01.JPG,AFNE01.JPG,AFNE01.JPG,AFNE01.JPG,AFNE01.JPG,,,,,,,,,,,,,0,8,8,1,,,,,,,,,,,AFSA14.jpg,AFNE12.jpg,AFSA12.jpg,AFNE01.jpg,AFNE12.jpg,FN,3,num_6,16,num_6,0.816822348366,,,2017_Aug_16_1137,60.0137628815,MAFE4ImagesEEG,001,201126,
AFNE01.JPG,AFNE01.JPG,AFNE01.JPG,AFNE01.JPG,AFNE01.JPG,AFNE01.JPG,,,,,,,,,,,,,0,9,9,9,,,,,,,,,,,AFNE13.jpg,AFSA13.jpg,AFSA17.jpg,AFNE07.jpg,AFSA13.jpg,FS,4,num_6,16,num_6,0.650014609681,,,2017_Aug_16_1137,60.0137628815,MAFE4ImagesEEG,001,201126,
AFNE01.JPG,AFNE01.JPG,AFNE01.JPG,AFNE01.JPG,AFNE01.JPG,AFNE01.JPG,,,,,,,,,,,,,1,0,10,2,,,,,,,,,,,AFSA17.jpg,AFSA14.jpg,AFNE20.jpg,AFNE16.jpg,AFNE16.jpg,FN,3,num_4,32,num_2,0.983488320111,,,2017_Aug_16_1137,60.0137628815,MAFE4ImagesEEG,001,201126,
AFNE01.JPG,AFNE01.JPG,AFNE01.JPG,AFNE01.JPG,AFNE01.JPG,AFNE01.JPG,,,,,,,,,,,,,1,1,11,9,,,,,,,,,,,AFNE10.jpg,AFSA20.jpg,AFSA17.jpg,AFNE15.jpg,AFNE15.jpg,FN,3,num_4,16,num_4,0.633741239406,,,2017_Aug_16_1137,60.0137628815,MAFE4ImagesEEG,001,201126,
AFNE01.JPG,AFNE01.JPG,AFNE01.JPG,AFNE01.JPG,AFNE01.JPG,AFNE01.JPG,,,,,,,,,,,,,1,2,12,5,,,,,,,,,,,AFSA19.jpg,AFNE18.jpg,AFNE09.jpg,AFSA01.jpg,AFNE18.jpg,FN,3,num_6,16,num_6,0.950040942436,,,2017_Aug_16_1137,60.0137628815,MAFE4ImagesEEG,001,201126,
AFNE01.JPG,AFNE01.JPG,AFNE01.JPG,AFNE01.JPG,AFNE01.JPG,AFNE01.JPG,,,,,,,,,,,,,1,3,13,0,,,,,,,,,,,AFNE17.jpg,AFNE07.jpg,AFSA03.jpg,AFSA20.jpg,AFNE07.jpg,FN,3,num_6,16,num_6,0.800135223864,,,2017_Aug_16_1137,60.0137628815,MAFE4ImagesEEG,001,201126,
AFNE01.JPG,AFNE01.JPG,AFNE01.JPG,AFNE01.JPG,AFNE01.JPG,AFNE01.JPG,,,,,,,,,,,,,1,4,14,7,,,,,,,,,,,AFSA20.jpg,AFNE04.jpg,AFSA02.jpg,AFNE14.jpg,AFSA20.jpg,FS,4,num_8,16,num_8,0.866776915616,,,2017_Aug_16_1137,60.0137628815,MAFE4ImagesEEG,001,201126,
AFNE01.JPG,AFNE01.JPG,AFNE01.JPG,AFNE01.JPG,AFNE01.JPG,AFNE01.JPG,,,,,,,,,,,,,1,5,15,1,,,,,,,,,,,AFSA07.jpg,AFNE20.jpg,AFSA15.jpg,AFNE08.jpg,AFSA15.jpg,FS,4,num_2,16,num_2,0.616781486111,,,2017_Aug_16_1137,60.0137628815,MAFE4ImagesEEG,001,201126,
AFNE01.JPG,AFNE01.JPG,AFNE01.JPG,AFNE01.JPG,AFNE01.JPG,AFNE01.JPG,,,,,,,,,,,,,1,6,16,3,,,,,,,,,,,AFSA06.jpg,AFSA05.jpg,AFNE06.jpg,AFNE14.jpg,AFSA06.jpg,FS,4,num_8,16,num_8,0.766993190366,,,2017_Aug_16_1137,60.0137628815,MAFE4ImagesEEG,001,201126,
AFNE01.JPG,AFNE01.JPG,AFNE01.JPG,AFNE01.JPG,AFNE01.JPG,AFNE01.JPG,,,,,,,,,,,,,1,7,17,6,,,,,,,,,,,AFSA05.jpg,AFSA04.jpg,AFNE04.jpg,AFNE15.jpg,AFNE15.jpg,FN,3,num_4,16,num_4,0.600147925143,,,2017_Aug_16_1137,60.0137628815,MAFE4ImagesEEG,001,201126,
AFNE01.JPG,AFNE01.JPG,AFNE01.JPG,AFNE01.JPG,AFNE01.JPG,AFNE01.JPG,,,,,,,,,,,,,1,8,18,4,,,,,,,,,,,AFNE16.jpg,AFNE06.jpg,AFSA19.jpg,AFSA02.jpg,AFNE16.jpg,FN,3,num_8,32,num_4,0.633464441024,,,2017_Aug_16_1137,60.0137628815,MAFE4ImagesEEG,001,201126,
AFNE01.JPG,AFNE01.JPG,AFNE01.JPG,AFNE01.JPG,AFNE01.JPG,AFNE01.JPG,,,,,,,,,,,,,1,9,19,8,,,,,,,,,,,AFNE11.jpg,AFNE10.jpg,AFSA16.jpg,AFSA09.jpg,AFSA09.jpg,FS,4,num_4,16,num_4,0.73346338261,,,2017_Aug_16_1137,60.0137628815,MAFE4ImagesEEG,001,201126,
AFNE01.JPG,AFNE01.JPG,AFNE01.JPG,AFNE01.JPG,AFNE01.JPG,AFNE01.JPG,,,,,,,,,,,,,2,0,20,7,,,,,,,,,,,AFSA10.jpg,AFSA19.jpg,AFNE11.jpg,AFNE19.jpg,AFSA10.jpg,FS,4,num_8,32,num_4,0.683481873246,,,2017_Aug_16_1137,60.0137628815,MAFE4ImagesEEG,001,201126,
AFNE01.JPG,AFNE01.JPG,AFNE01.JPG,AFNE01.JPG,AFNE01.JPG,AFNE01.JPG,,,,,,,,,,,,,2,1,21,8,,,,,,,,,,,AFNE18.jpg,AFNE10.jpg,AFSA17.jpg,AFSA05.jpg,AFNE10.jpg,FN,3,num_6,32,num_8,0.866791028151,,,2017_Aug_16_1137,60.0137628815,MAFE4ImagesEEG,001,201126,
AFNE01.JPG,AFNE01.JPG,AFNE01.JPG,AFNE01.JPG,AFNE01.JPG,AFNE01.JPG,,,,,,,,,,,,,2,2,22,9,,,,,,,,,,,AFSA15.jpg,AFNE03.jpg,AFNE15.jpg,AFSA09.jpg,AFNE15.jpg,FN,3,num_2,32,num_8,0.583446046629,,,2017_Aug_16_1137,60.0137628815,MAFE4ImagesEEG,001,201126,
AFNE01.JPG,AFNE01.JPG,AFNE01.JPG,AFNE01.JPG,AFNE01.JPG,AFNE01.JPG,,,,,,,,,,,,,2,3,23,3,,,,,,,,,,,AFNE09.jpg,AFSA12.jpg,AFNE11.jpg,AFSA09.jpg,AFNE11.jpg,FN,3,num_2,32,num_4,0.833499529952,,,2017_Aug_16_1137,60.0137628815,MAFE4ImagesEEG,001,201126,
AFNE01.JPG,AFNE01.JPG,AFNE01.JPG,AFNE01.JPG,AFNE01.JPG,AFNE01.JPG,,,,,,,,,,,,,2,4,24,0,,,,,,,,,,,AFNE11.jpg,AFSA15.jpg,AFSA19.jpg,AFNE09.jpg,AFSA19.jpg,FS,4,num_2,16,num_2,1.53342412406,,,2017_Aug_16_1137,60.0137628815,MAFE4ImagesEEG,001,201126,
AFNE01.JPG,AFNE01.JPG,AFNE01.JPG,AFNE01.JPG,AFNE01.JPG,AFNE01.JPG,,,,,,,,,,,,,2,5,25,4,,,,,,,,,,,AFSA10.jpg,AFNE11.jpg,AFSA18.jpg,AFNE02.jpg,AFSA10.jpg,FS,4,num_8,32,num_4,1.23346033556,,,2017_Aug_16_1137,60.0137628815,MAFE4ImagesEEG,001,201126,
AFNE01.JPG,AFNE01.JPG,AFNE01.JPG,AFNE01.JPG,AFNE01.JPG,AFNE01.JPG,,,,,,,,,,,,,2,6,26,2,,,,,,,,,,,AFSA09.jpg,AFNE17.jpg,AFNE11.jpg,AFSA11.jpg,AFSA09.jpg,FS,4,num_8,16,num_8,1.68343183782,,,2017_Aug_16_1137,60.0137628815,MAFE4ImagesEEG,001,201126,
AFNE01.JPG,AFNE01.JPG,AFNE01.JPG,AFNE01.JPG,AFNE01.JPG,AFNE01.JPG,,,,,,,,,,,,,2,7,27,6,,,,,,,,,,,AFSA06.jpg,AFNE09.jpg,AFSA20.jpg,AFNE16.jpg,AFNE09.jpg,FN,3,num_6,16,num_6,0.816792840313,,,2017_Aug_16_1137,60.0137628815,MAFE4ImagesEEG,001,201126,
AFNE01.JPG,AFNE01.JPG,AFNE01.JPG,AFNE01.JPG,AFNE01.JPG,AFNE01.JPG,,,,,,,,,,,,,2,8,28,1,,,,,,,,,,,AFSA04.jpg,AFNE02.jpg,AFSA01.jpg,AFNE20.jpg,AFNE20.jpg,FN,3,num_4,32,num_6,1.11670755563,,,2017_Aug_16_1137,60.0137628815,MAFE4ImagesEEG,001,201126,
AFNE01.JPG,AFNE01.JPG,AFNE01.JPG,AFNE01.JPG,AFNE01.JPG,AFNE01.JPG,,,,,,,,,,,,,2,9,29,5,,,,,,,,,,,AFNE14.jpg,AFSA16.jpg,AFSA12.jpg,AFNE10.jpg,AFSA16.jpg,FS,4,num_6,16,num_6,0.749974741746,,,2017_Aug_16_1137,60.0137628815,MAFE4ImagesEEG,001,201126,
AFNE01.JPG,AFNE01.JPG,AFNE01.JPG,AFNE01.JPG,AFNE01.JPG,AFNE01.JPG,,,,,,,,,,,,,3,0,30,4,,,,,,,,,,,AFSA15.jpg,AFNE01.jpg,AFSA05.jpg,AFNE09.jpg,AFNE01.jpg,FN,3,num_6,16,num_6,1.08329225192,,,2017_Aug_16_1137,60.0137628815,MAFE4ImagesEEG,001,201126,
AFNE01.JPG,AFNE01.JPG,AFNE01.JPG,AFNE01.JPG,AFNE01.JPG,AFNE01.JPG,,,,,,,,,,,,,3,1,31,8,,,,,,,,,,,AFNE01.jpg,AFSA09.jpg,AFSA13.jpg,AFNE10.jpg,AFSA13.jpg,FS,4,num_2,16,num_2,0.683459421445,,,2017_Aug_16_1137,60.0137628815,MAFE4ImagesEEG,001,201126,
AFNE01.JPG,AFNE01.JPG,AFNE01.JPG,AFNE01.JPG,AFNE01.JPG,AFNE01.JPG,,,,,,,,,,,,,3,2,32,7,,,,,,,,,,,AFNE14.jpg,AFSA17.jpg,AFNE12.jpg,AFSA02.jpg,AFNE14.jpg,FN,3,num_8,16,num_8,0.750131262699,,,2017_Aug_16_1137,60.0137628815,MAFE4ImagesEEG,001,201126,
AFNE01.JPG,AFNE01.JPG,AFNE01.JPG,AFNE01.JPG,AFNE01.JPG,AFNE01.JPG,,,,,,,,,,,,,3,3,33,5,,,,,,,,,,,AFSA11.jpg,AFNE02.jpg,AFSA13.jpg,AFNE19.jpg,AFSA11.jpg,FS,4,num_8,16,num_8,0.599941048044,,,2017_Aug_16_1137,60.0137628815,MAFE4ImagesEEG,001,201126,
AFNE01.JPG,AFNE01.JPG,AFNE01.JPG,AFNE01.JPG,AFNE01.JPG,AFNE01.JPG,,,,,,,,,,,,,3,4,34,9,,,,,,,,,,,AFNE17.jpg,AFSA16.jpg,AFNE06.jpg,AFSA02.jpg,AFNE06.jpg,FN,3,num_2,16,num_2,0.966725821781,,,2017_Aug_16_1137,60.0137628815,MAFE4ImagesEEG,001,201126,
AFNE01.JPG,AFNE01.JPG,AFNE01.JPG,AFNE01.JPG,AFNE01.JPG,AFNE01.JPG,,,,,,,,,,,,,3,5,35,0,,,,,,,,,,,AFSA13.jpg,AFNE02.jpg,AFSA06.jpg,AFNE14.jpg,AFNE14.jpg,FN,3,num_4,16,num_4,1.01677853533,,,2017_Aug_16_1137,60.0137628815,MAFE4ImagesEEG,001,201126,
AFNE01.JPG,AFNE01.JPG,AFNE01.JPG,AFNE01.JPG,AFNE01.JPG,AFNE01.JPG,,,,,,,,,,,,,3,6,36,2,,,,,,,,,,,AFSA15.jpg,AFNE19.jpg,AFNE12.jpg,AFSA04.jpg,AFNE19.jpg,FN,3,num_6,16,num_6,0.633449687011,,,2017_Aug_16_1137,60.0137628815,MAFE4ImagesEEG,001,201126,
AFNE01.JPG,AFNE01.JPG,AFNE01.JPG,AFNE01.JPG,AFNE01.JPG,AFNE01.JPG,,,,,,,,,,,,,3,7,37,1,,,,,,,,,,,AFSA11.jpg,AFNE15.jpg,AFNE16.jpg,AFSA03.jpg,AFSA11.jpg,FS,4,num_8,16,num_8,0.800125601672,,,2017_Aug_16_1137,60.0137628815,MAFE4ImagesEEG,001,201126,
AFNE01.JPG,AFNE01.JPG,AFNE01.JPG,AFNE01.JPG,AFNE01.JPG,AFNE01.JPG,,,,,,,,,,,,,3,8,38,3,,,,,,,,,,,AFSA12.jpg,AFNE02.jpg,AFSA09.jpg,AFNE13.jpg,AFSA09.jpg,FS,4,num_2,16,num_2,1.26679577507,,,2017_Aug_16_1137,60.0137628815,MAFE4ImagesEEG,001,201126,
AFNE01.JPG,AFNE01.JPG,AFNE01.JPG,AFNE01.JPG,AFNE01.JPG,AFNE01.JPG,,,,,,,,,,,,,3,9,39,6,,,,,,,,,,,AFNE02.jpg,AFSA03.jpg,AFSA13.jpg,AFNE06.jpg,AFSA13.jpg,FS,4,num_2,32,num_6,0.450154965394,,,2017_Aug_16_1137,60.0137628815,MAFE4ImagesEEG,001,201126,
AFNE01.JPG,AFNE01.JPG,AFNE01.JPG,AFNE01.JPG,AFNE01.JPG,AFNE01.JPG,,,,,,,,,,,,,4,0,40,6,,,,,,,,,,,AFSA14.jpg,AFSA18.jpg,AFNE09.jpg,AFNE16.jpg,AFNE09.jpg,FN,3,num_2,16,num_2,0.583511477511,,,2017_Aug_16_1137,60.0137628815,MAFE4ImagesEEG,001,201126,
AFNE01.JPG,AFNE01.JPG,AFNE01.JPG,AFNE01.JPG,AFNE01.JPG,AFNE01.JPG,,,,,,,,,,,,,4,1,41,4,,,,,,,,,,,AFNE05.jpg,AFSA02.jpg,AFNE20.jpg,AFSA13.jpg,AFSA02.jpg,FS,4,num_6,16,num_6,0.900098563317,,,2017_Aug_16_1137,60.0137628815,MAFE4ImagesEEG,001,201126,
AFNE01.JPG,AFNE01.JPG,AFNE01.JPG,AFNE01.JPG,AFNE01.JPG,AFNE01.JPG,,,,,,,,,,,,,4,2,42,7,,,,,,,,,,,AFNE07.jpg,AFSA09.jpg,AFNE20.jpg,AFSA06.jpg,AFNE20.jpg,FN,3,num_2,32,num_8,1.16643022807,,,2017_Aug_16_1137,60.0137628815,MAFE4ImagesEEG,001,201126,
AFNE01.JPG,AFNE01.JPG,AFNE01.JPG,AFNE01.JPG,AFNE01.JPG,AFNE01.JPG,,,,,,,,,,,,,4,3,43,3,,,,,,,,,,,AFNE09.jpg,AFNE15.jpg,AFSA05.jpg,AFSA15.jpg,AFSA05.jpg,FS,4,num_2,32,num_8,0.96678066827,,,2017_Aug_16_1137,60.0137628815,MAFE4ImagesEEG,001,201126,
AFNE01.JPG,AFNE01.JPG,AFNE01.JPG,AFNE01.JPG,AFNE01.JPG,AFNE01.JPG,,,,,,,,,,,,,4,4,44,1,,,,,,,,,,,AFSA01.jpg,AFNE07.jpg,AFNE20.jpg,AFSA17.jpg,AFNE07.jpg,FN,3,num_6,16,num_6,1.25006086036,,,2017_Aug_16_1137,60.0137628815,MAFE4ImagesEEG,001,201126,
AFNE01.JPG,AFNE01.JPG,AFNE01.JPG,AFNE01.JPG,AFNE01.JPG,AFNE01.JPG,,,,,,,,,,,,,4,5,45,8,,,,,,,,,,,AFNE08.jpg,AFSA01.jpg,AFSA19.jpg,AFNE01.jpg,AFSA19.jpg,FS,4,num_2,32,num_6,1.0667513847,,,2017_Aug_16_1137,60.0137628815,MAFE4ImagesEEG,001,201126,
AFNE01.JPG,AFNE01.JPG,AFNE01.JPG,AFNE01.JPG,AFNE01.JPG,AFNE01.JPG,,,,,,,,,,,,,4,6,46,0,,,,,,,,,,,AFNE05.jpg,AFSA11.jpg,AFNE15.jpg,AFSA16.jpg,AFSA16.jpg,FS,4,num_4,16,num_4,0.566755073232,,,2017_Aug_16_1137,60.0137628815,MAFE4ImagesEEG,001,201126,
AFNE01.JPG,AFNE01.JPG,AFNE01.JPG,AFNE01.JPG,AFNE01.JPG,AFNE01.JPG,,,,,,,,,,,,,4,7,47,9,,,,,,,,,,,AFSA18.jpg,AFNE15.jpg,AFSA08.jpg,AFNE02.jpg,AFNE15.jpg,FN,3,num_6,16,num_6,0.600166528078,,,2017_Aug_16_1137,60.0137628815,MAFE4ImagesEEG,001,201126,
AFNE01.JPG,AFNE01.JPG,AFNE01.JPG,AFNE01.JPG,AFNE01.JPG,AFNE01.JPG,,,,,,,,,,,,,4,8,48,5,,,,,,,,,,,AFSA06.jpg,AFSA14.jpg,AFNE09.jpg,AFNE12.jpg,AFSA14.jpg,FS,4,num_6,16,num_6,1.00012348479,,,2017_Aug_16_1137,60.0137628815,MAFE4ImagesEEG,001,201126,
AFNE01.JPG,AFNE01.JPG,AFNE01.JPG,AFNE01.JPG,AFNE01.JPG,AFNE01.JPG,,,,,,,,,,,,,4,9,49,2,,,,,,,,,,,AFSA02.jpg,AFNE19.jpg,AFSA03.jpg,AFNE04.jpg,AFNE19.jpg,FN,3,num_6,16,num_6,1.1499756398,,,2017_Aug_16_1137,60.0137628815,MAFE4ImagesEEG,001,201126,
AFNE01.JPG,AFNE01.JPG,AFNE01.JPG,AFNE01.JPG,AFNE01.JPG,AFNE01.JPG,,,,,,,,,,,,,5,0,50,6,,,,,,,,,,,AFSA08.jpg,AFSA09.jpg,AFNE12.jpg,AFNE02.jpg,AFNE12.jpg,FN,3,num_2,16,num_2,0.5001804161,,,2017_Aug_16_1137,60.0137628815,MAFE4ImagesEEG,001,201126,
AFNE01.JPG,AFNE01.JPG,AFNE01.JPG,AFNE01.JPG,AFNE01.JPG,AFNE01.JPG,,,,,,,,,,,,,5,1,51,3,,,,,,,,,,,AFNE05.jpg,AFNE18.jpg,AFSA02.jpg,AFSA03.jpg,AFNE18.jpg,FN,3,num_6,16,num_6,0.91676516048,,,2017_Aug_16_1137,60.0137628815,MAFE4ImagesEEG,001,201126,
AFNE01.JPG,AFNE01.JPG,AFNE01.JPG,AFNE01.JPG,AFNE01.JPG,AFNE01.JPG,,,,,,,,,,,,,5,2,52,9,,,,,,,,,,,AFSA08.jpg,AFNE20.jpg,AFNE18.jpg,AFSA14.jpg,AFNE20.jpg,FN,3,num_6,16,num_6,0.833456550841,,,2017_Aug_16_1137,60.0137628815,MAFE4ImagesEEG,001,201126,
AFNE01.JPG,AFNE01.JPG,AFNE01.JPG,AFNE01.JPG,AFNE01.JPG,AFNE01.JPG,,,,,,,,,,,,,5,3,53,4,,,,,,,,,,,AFSA05.jpg,AFSA01.jpg,AFNE08.jpg,AFNE04.jpg,AFNE08.jpg,FN,3,num_2,16,num_2,0.90012454323,,,2017_Aug_16_1137,60.0137628815,MAFE4ImagesEEG,001,201126,
AFNE01.JPG,AFNE01.JPG,AFNE01.JPG,AFNE01.JPG,AFNE01.JPG,AFNE01.JPG,,,,,,,,,,,,,5,4,54,1,,,,,,,,,,,AFSA09.jpg,AFNE04.jpg,AFSA04.jpg,AFNE19.jpg,AFSA09.jpg,FS,4,num_8,16,num_8,1.31682539539,,,2017_Aug_16_1137,60.0137628815,MAFE4ImagesEEG,001,201126,
AFNE01.JPG,AFNE01.JPG,AFNE01.JPG,AFNE01.JPG,AFNE01.JPG,AFNE01.JPG,,,,,,,,,,,,,5,5,55,5,,,,,,,,,,,AFSA14.jpg,AFNE09.jpg,AFSA05.jpg,AFNE04.jpg,AFNE09.jpg,FN,3,num_6,16,num_6,0.616817408998,,,2017_Aug_16_1137,60.0137628815,MAFE4ImagesEEG,001,201126,
AFNE01.JPG,AFNE01.JPG,AFNE01.JPG,AFNE01.JPG,AFNE01.JPG,AFNE01.JPG,,,,,,,,,,,,,5,6,56,0,,,,,,,,,,,AFNE05.jpg,AFNE15.jpg,AFSA05.jpg,AFSA03.jpg,AFSA05.jpg,FS,4,num_2,16,num_2,0.883464040118,,,2017_Aug_16_1137,60.0137628815,MAFE4ImagesEEG,001,201126,
AFNE01.JPG,AFNE01.JPG,AFNE01.JPG,AFNE01.JPG,AFNE01.JPG,AFNE01.JPG,,,,,,,,,,,,,5,7,57,7,,,,,,,,,,,AFSA05.jpg,AFSA15.jpg,AFNE17.jpg,AFNE09.jpg,AFNE17.jpg,FN,3,num_2,16,num_2,0.566839427745,,,2017_Aug_16_1137,60.0137628815,MAFE4ImagesEEG,001,201126,
AFNE01.JPG,AFNE01.JPG,AFNE01.JPG,AFNE01.JPG,AFNE01.JPG,AFNE01.JPG,,,,,,,,,,,,,5,8,58,8,,,,,,,,,,,AFNE14.jpg,AFSA02.jpg,AFSA17.jpg,AFNE12.jpg,AFNE12.jpg,FN,3,num_4,32,num_8,1.90032340185,,,2017_Aug_16_1137,60.0137628815,MAFE4ImagesEEG,001,201126,
AFNE01.JPG,AFNE01.JPG,AFNE01.JPG,AFNE01.JPG,AFNE01.JPG,AFNE01.JPG,,,,,,,,,,,,,5,9,59,2,,,,,,,,,,,AFNE03.jpg,AFSA15.jpg,AFSA11.jpg,AFNE20.jpg,AFNE03.jpg,FN,3,num_8,16,num_8,1.36672607833,,,2017_Aug_16_1137,60.0137628815,MAFE4ImagesEEG,001,201126,
,,,,,,,,,,,,,,,,,,,,,,,,,,,,,,,,,,,,,,,,,,,space,17.5655016224,2017_Aug_16_1137,60.0137628815,MAFE4ImagesEEG,001,201126,
AFNE01.JPG,AFNE01.JPG,AFNE01.JPG,AFNE01.JPG,AFNE01.JPG,AFNE01.JPG,,,,,,,,,,,,,,,,,0,0,0,1,,,,,,,AMNE03.jpg,AMNE14.jpg,AMSA09.jpg,AMSA20.jpg,AMSA09.jpg,MS,2,num_2,16,num_2,1.06696756327,,,2017_Aug_16_1137,60.0137628815,MAFE4ImagesEEG,001,201126,
AFNE01.JPG,AFNE01.JPG,AFNE01.JPG,AFNE01.JPG,AFNE01.JPG,AFNE01.JPG,,,,,,,,,,,,,,,,,0,1,1,7,,,,,,,AMNE04.jpg,AMSA02.jpg,AMNE20.jpg,AMSA03.jpg,AMNE20.jpg,MN,1,num_2,32,num_8,0.916750727192,,,2017_Aug_16_1137,60.0137628815,MAFE4ImagesEEG,001,201126,
AFNE01.JPG,AFNE01.JPG,AFNE01.JPG,AFNE01.JPG,AFNE01.JPG,AFNE01.JPG,,,,,,,,,,,,,,,,,0,2,2,8,,,,,,,AMSA04.jpg,AMSA07.jpg,AMNE09.jpg,AMNE05.jpg,AMNE09.jpg,MN,1,num_2,16,num_2,1.40012470359,,,2017_Aug_16_1137,60.0137628815,MAFE4ImagesEEG,001,201126,
AFNE01.JPG,AFNE01.JPG,AFNE01.JPG,AFNE01.JPG,AFNE01.JPG,AFNE01.JPG,,,,,,,,,,,,,,,,,0,3,3,0,,,,,,,AMSA05.jpg,AMNE20.jpg,AMSA07.jpg,AMNE12.jpg,AMSA07.jpg,MS,2,num_2,32,num_8,1.2000915391,,,2017_Aug_16_1137,60.0137628815,MAFE4ImagesEEG,001,201126,
AFNE01.JPG,AFNE01.JPG,AFNE01.JPG,AFNE01.JPG,AFNE01.JPG,AFNE01.JPG,,,,,,,,,,,,,,,,,0,4,4,3,,,,,,,AMSA09.jpg,AMNE04.jpg,AMSA03.jpg,AMNE03.jpg,AMNE03.jpg,MN,1,num_4,32,num_6,2.46665894752,,,2017_Aug_16_1137,60.0137628815,MAFE4ImagesEEG,001,201126,
AFNE01.JPG,AFNE01.JPG,AFNE01.JPG,AFNE01.JPG,AFNE01.JPG,AFNE01.JPG,,,,,,,,,,,,,,,,,0,5,5,2,,,,,,,AMNE13.jpg,AMSA17.jpg,AMNE10.jpg,AMSA20.jpg,AMNE10.jpg,MN,1,num_2,32,num_8,0.883414004697,,,2017_Aug_16_1137,60.0137628815,MAFE4ImagesEEG,001,201126,
AFNE01.JPG,AFNE01.JPG,AFNE01.JPG,AFNE01.JPG,AFNE01.JPG,AFNE01.JPG,,,,,,,,,,,,,,,,,0,6,6,4,,,,,,,AMSA12.jpg,AMSA13.jpg,AMNE07.jpg,AMNE17.jpg,AMNE07.jpg,MN,1,num_2,32,num_6,1.15006352251,,,2017_Aug_16_1137,60.0137628815,MAFE4ImagesEEG,001,201126,
AFNE01.JPG,AFNE01.JPG,AFNE01.JPG,AFNE01.JPG,AFNE01.JPG,AFNE01.JPG,,,,,,,,,,,,,,,,,0,7,7,9,,,,,,,AMSA02.jpg,AMNE16.jpg,AMNE12.jpg,AMSA14.jpg,AMSA02.jpg,MS,2,num_8,16,num_8,0.700137565262,,,2017_Aug_16_1137,60.0137628815,MAFE4ImagesEEG,001,201126,
AFNE01.JPG,AFNE01.JPG,AFNE01.JPG,AFNE01.JPG,AFNE01.JPG,AFNE01.JPG,,,,,,,,,,,,,,,,,0,8,8,6,,,,,,,AMSA11.jpg,AMNE14.jpg,AMNE13.jpg,AMSA10.jpg,AMSA11.jpg,MS,2,num_8,16,num_8,0.916734369472,,,2017_Aug_16_1137,60.0137628815,MAFE4ImagesEEG,001,201126,
AFNE01.JPG,AFNE01.JPG,AFNE01.JPG,AFNE01.JPG,AFNE01.JPG,AFNE01.JPG,,,,,,,,,,,,,,,,,0,9,9,5,,,,,,,AMNE10.jpg,AMNE07.jpg,AMSA15.jpg,AMSA14.jpg,AMSA15.jpg,MS,2,num_2,16,num_2,0.666805653862,,,2017_Aug_16_1137,60.0137628815,MAFE4ImagesEEG,001,201126,
AFNE01.JPG,AFNE01.JPG,AFNE01.JPG,AFNE01.JPG,AFNE01.JPG,AFNE01.JPG,,,,,,,,,,,,,,,,,1,0,10,3,,,,,,,AMNE01.jpg,AMSA05.jpg,AMSA04.jpg,AMNE16.jpg,AMNE01.jpg,MN,1,num_8,16,num_8,1.06672348035,,,2017_Aug_16_1137,60.0137628815,MAFE4ImagesEEG,001,201126,
AFNE01.JPG,AFNE01.JPG,AFNE01.JPG,AFNE01.JPG,AFNE01.JPG,AFNE01.JPG,,,,,,,,,,,,,,,,,1,1,11,1,,,,,,,AMSA04.jpg,AMSA10.jpg,AMNE15.jpg,AMNE03.jpg,AMNE15.jpg,MN,1,num_2,16,num_2,0.516490350681,,,2017_Aug_16_1137,60.0137628815,MAFE4ImagesEEG,001,201126,
AFNE01.JPG,AFNE01.JPG,AFNE01.JPG,AFNE01.JPG,AFNE01.JPG,AFNE01.JPG,,,,,,,,,,,,,,,,,1,2,12,0,,,,,,,AMNE20.jpg,AMSA06.jpg,AMSA11.jpg,AMNE10.jpg,AMNE20.jpg,MN,1,num_8,16,num_8,0.783450344548,,,2017_Aug_16_1137,60.0137628815,MAFE4ImagesEEG,001,201126,
AFNE01.JPG,AFNE01.JPG,AFNE01.JPG,AFNE01.JPG,AFNE01.JPG,AFNE01.JPG,,,,,,,,,,,,,,,,,1,3,13,8,,,,,,,AMNE07.jpg,AMSA16.jpg,AMNE20.jpg,AMSA19.jpg,AMNE07.jpg,MN,1,num_8,32,num_6,0.766764182248,,,2017_Aug_16_1137,60.0137628815,MAFE4ImagesEEG,001,201126,
AFNE01.JPG,AFNE01.JPG,AFNE01.JPG,AFNE01.JPG,AFNE01.JPG,AFNE01.JPG,,,,,,,,,,,,,,,,,1,4,14,6,,,,,,,AMNE09.jpg,AMSA12.jpg,AMNE08.jpg,AMSA13.jpg,AMNE08.jpg,MN,1,num_2,32,num_8,0.800123035733,,,2017_Aug_16_1137,60.0137628815,MAFE4ImagesEEG,001,201126,
AFNE01.JPG,AFNE01.JPG,AFNE01.JPG,AFNE01.JPG,AFNE01.JPG,AFNE01.JPG,,,,,,,,,,,,,,,,,1,5,15,2,,,,,,,AMSA14.jpg,AMNE08.jpg,AMSA11.jpg,AMNE10.jpg,AMSA14.jpg,MS,2,num_8,16,num_8,0.699947366636,,,2017_Aug_16_1137,60.0137628815,MAFE4ImagesEEG,001,201126,
AFNE01.JPG,AFNE01.JPG,AFNE01.JPG,AFNE01.JPG,AFNE01.JPG,AFNE01.JPG,,,,,,,,,,,,,,,,,1,6,16,7,,,,,,,AMNE03.jpg,AMSA08.jpg,AMNE08.jpg,AMSA16.jpg,AMNE03.jpg,MN,1,num_8,32,num_6,0.88326582298,,,2017_Aug_16_1137,60.0137628815,MAFE4ImagesEEG,001,201126,
AFNE01.JPG,AFNE01.JPG,AFNE01.JPG,AFNE01.JPG,AFNE01.JPG,AFNE01.JPG,,,,,,,,,,,,,,,,,1,7,17,9,,,,,,,AMNE05.jpg,AMSA07.jpg,AMSA13.jpg,AMNE14.jpg,AMSA13.jpg,MS,2,num_2,16,num_2,0.500165662059,,,2017_Aug_16_1137,60.0137628815,MAFE4ImagesEEG,001,201126,
AFNE01.JPG,AFNE01.JPG,AFNE01.JPG,AFNE01.JPG,AFNE01.JPG,AFNE01.JPG,,,,,,,,,,,,,,,,,1,8,18,4,,,,,,,AMSA11.jpg,AMSA04.jpg,AMNE01.jpg,AMNE07.jpg,AMNE07.jpg,MN,1,num_4,32,num_2,1.06676485579,,,2017_Aug_16_1137,60.0137628815,MAFE4ImagesEEG,001,201126,
AFNE01.JPG,AFNE01.JPG,AFNE01.JPG,AFNE01.JPG,AFNE01.JPG,AFNE01.JPG,,,,,,,,,,,,,,,,,1,9,19,5,,,,,,,AMSA15.jpg,AMSA18.jpg,AMNE01.jpg,AMNE20.jpg,AMSA18.jpg,MS,2,num_6,32,num_2,1.26676819148,,,2017_Aug_16_1137,60.0137628815,MAFE4ImagesEEG,001,201126,
AFNE01.JPG,AFNE01.JPG,AFNE01.JPG,AFNE01.JPG,AFNE01.JPG,AFNE01.JPG,,,,,,,,,,,,,,,,,2,0,20,5,,,,,,,AMSA03.jpg,AMNE18.jpg,AMNE06.jpg,AMSA07.jpg,AMSA07.jpg,MS,2,num_4,16,num_4,2.08335928651,,,2017_Aug_16_1137,60.0137628815,MAFE4ImagesEEG,001,201126,
AFNE01.JPG,AFNE01.JPG,AFNE01.JPG,AFNE01.JPG,AFNE01.JPG,AFNE01.JPG,,,,,,,,,,,,,,,,,2,1,21,0,,,,,,,AMSA03.jpg,AMNE11.jpg,AMSA18.jpg,AMNE05.jpg,AMNE11.jpg,MN,1,num_6,32,num_2,2.35001104948,,,2017_Aug_16_1137,60.0137628815,MAFE4ImagesEEG,001,201126,
AFNE01.JPG,AFNE01.JPG,AFNE01.JPG,AFNE01.JPG,AFNE01.JPG,AFNE01.JPG,,,,,,,,,,,,,,,,,2,2,22,6,,,,,,,AMSA09.jpg,AMNE14.jpg,AMSA14.jpg,AMNE19.jpg,AMNE14.jpg,MN,1,num_6,16,num_6,0.533500460093,,,2017_Aug_16_1137,60.0137628815,MAFE4ImagesEEG,001,201126,
AFNE01.JPG,AFNE01.JPG,AFNE01.JPG,AFNE01.JPG,AFNE01.JPG,AFNE01.JPG,,,,,,,,,,,,,,,,,2,3,23,8,,,,,,,AMNE04.jpg,AMSA19.jpg,AMNE13.jpg,AMSA20.jpg,AMNE04.jpg,MN,1,num_8,16,num_8,0.733550944511,,,2017_Aug_16_1137,60.0137628815,MAFE4ImagesEEG,001,201126,
AFNE01.JPG,AFNE01.JPG,AFNE01.JPG,AFNE01.JPG,AFNE01.JPG,AFNE01.JPG,,,,,,,,,,,,,,,,,2,4,24,3,,,,,,,AMNE20.jpg,AMSA18.jpg,AMSA07.jpg,AMNE03.jpg,AMSA07.jpg,MS,2,num_2,16,num_2,0.550119908527,,,2017_Aug_16_1137,60.0137628815,MAFE4ImagesEEG,001,201126,
AFNE01.JPG,AFNE01.JPG,AFNE01.JPG,AFNE01.JPG,AFNE01.JPG,AFNE01.JPG,,,,,,,,,,,,,,,,,2,5,25,7,,,,,,,AMSA10.jpg,AMNE03.jpg,AMNE18.jpg,AMSA19.jpg,AMSA10.jpg,MS,2,num_8,16,num_8,0.450177096413,,,2017_Aug_16_1137,60.0137628815,MAFE4ImagesEEG,001,201126,
AFNE01.JPG,AFNE01.JPG,AFNE01.JPG,AFNE01.JPG,AFNE01.JPG,AFNE01.JPG,,,,,,,,,,,,,,,,,2,6,26,9,,,,,,,AMSA06.jpg,AMSA19.jpg,AMNE04.jpg,AMNE01.jpg,AMNE01.jpg,MN,1,num_4,16,num_4,0.700129546749,,,2017_Aug_16_1137,60.0137628815,MAFE4ImagesEEG,001,201126,
AFNE01.JPG,AFNE01.JPG,AFNE01.JPG,AFNE01.JPG,AFNE01.JPG,AFNE01.JPG,,,,,,,,,,,,,,,,,2,7,27,1,,,,,,,AMNE16.jpg,AMSA20.jpg,AMSA02.jpg,AMNE02.jpg,AMNE16.jpg,MN,1,num_8,16,num_8,0.766829933855,,,2017_Aug_16_1137,60.0137628815,MAFE4ImagesEEG,001,201126,
AFNE01.JPG,AFNE01.JPG,AFNE01.JPG,AFNE01.JPG,AFNE01.JPG,AFNE01.JPG,,,,,,,,,,,,,,,,,2,8,28,2,,,,,,,AMSA03.jpg,AMNE16.jpg,AMNE10.jpg,AMSA11.jpg,AMSA03.jpg,MS,2,num_8,16,num_8,0.933422776958,,,2017_Aug_16_1137,60.0137628815,MAFE4ImagesEEG,001,201126,
AFNE01.JPG,AFNE01.JPG,AFNE01.JPG,AFNE01.JPG,AFNE01.JPG,AFNE01.JPG,,,,,,,,,,,,,,,,,2,9,29,4,,,,,,,AMNE08.jpg,AMNE14.jpg,AMSA04.jpg,AMSA15.jpg,AMNE14.jpg,MN,1,num_6,16,num_6,0.616752940317,,,2017_Aug_16_1137,60.0137628815,MAFE4ImagesEEG,001,201126,
AFNE01.JPG,AFNE01.JPG,AFNE01.JPG,AFNE01.JPG,AFNE01.JPG,AFNE01.JPG,,,,,,,,,,,,,,,,,3,0,30,4,,,,,,,AMSA15.jpg,AMSA08.jpg,AMNE07.jpg,AMNE11.jpg,AMNE07.jpg,MN,1,num_2,32,num_6,0.700153922982,,,2017_Aug_16_1137,60.0137628815,MAFE4ImagesEEG,001,201126,
AFNE01.JPG,AFNE01.JPG,AFNE01.JPG,AFNE01.JPG,AFNE01.JPG,AFNE01.JPG,,,,,,,,,,,,,,,,,3,1,31,6,,,,,,,AMNE15.jpg,AMSA16.jpg,AMSA06.jpg,AMNE08.jpg,AMSA06.jpg,MS,2,num_2,32,num_4,1.3335291984,,,2017_Aug_16_1137,60.0137628815,MAFE4ImagesEEG,001,201126,
AFNE01.JPG,AFNE01.JPG,AFNE01.JPG,AFNE01.JPG,AFNE01.JPG,AFNE01.JPG,,,,,,,,,,,,,,,,,3,2,32,5,,,,,,,AMSA01.jpg,AMNE13.jpg,AMSA11.jpg,AMNE06.jpg,AMNE06.jpg,MN,1,num_4,16,num_4,0.816794764774,,,2017_Aug_16_1137,60.0137628815,MAFE4ImagesEEG,001,201126,
AFNE01.JPG,AFNE01.JPG,AFNE01.JPG,AFNE01.JPG,AFNE01.JPG,AFNE01.JPG,,,,,,,,,,,,,,,,,3,3,33,8,,,,,,,AMSA07.jpg,AMNE02.jpg,AMSA05.jpg,AMNE11.jpg,AMNE02.jpg,MN,1,num_6,16,num_6,0.91675650049,,,2017_Aug_16_1137,60.0137628815,MAFE4ImagesEEG,001,201126,
AFNE01.JPG,AFNE01.JPG,AFNE01.JPG,AFNE01.JPG,AFNE01.JPG,AFNE01.JPG,,,,,,,,,,,,,,,,,3,4,34,1,,,,,,,AMSA11.jpg,AMNE09.jpg,AMNE02.jpg,AMSA10.jpg,AMSA11.jpg,MS,2,num_8,16,num_8,0.633351540659,,,2017_Aug_16_1137,60.0137628815,MAFE4ImagesEEG,001,201126,
AFNE01.JPG,AFNE01.JPG,AFNE01.JPG,AFNE01.JPG,AFNE01.JPG,AFNE01.JPG,,,,,,,,,,,,,,,,,3,5,35,9,,,,,,,AMNE11.jpg,AMNE02.jpg,AMSA14.jpg,AMSA08.jpg,AMSA14.jpg,MS,2,num_2,16,num_2,0.516821995552,,,2017_Aug_16_1137,60.0137628815,MAFE4ImagesEEG,001,201126,
AFNE01.JPG,AFNE01.JPG,AFNE01.JPG,AFNE01.JPG,AFNE01.JPG,AFNE01.JPG,,,,,,,,,,,,,,,,,3,6,36,3,,,,,,,AMNE16.jpg,AMNE17.jpg,AMSA01.jpg,AMSA15.jpg,AMSA15.jpg,MS,2,num_4,16,num_4,0.950103486684,,,2017_Aug_16_1137,60.0137628815,MAFE4ImagesEEG,001,201126,
AFNE01.JPG,AFNE01.JPG,AFNE01.JPG,AFNE01.JPG,AFNE01.JPG,AFNE01.JPG,,,,,,,,,,,,,,,,,3,7,37,0,,,,,,,AMSA16.jpg,AMSA06.jpg,AMNE16.jpg,AMNE02.jpg,AMSA06.jpg,MS,2,num_6,16,num_6,0.516842843645,,,2017_Aug_16_1137,60.0137628815,MAFE4ImagesEEG,001,201126,
AFNE01.JPG,AFNE01.JPG,AFNE01.JPG,AFNE01.JPG,AFNE01.JPG,AFNE01.JPG,,,,,,,,,,,,,,,,,3,8,38,7,,,,,,,AMNE10.jpg,AMNE20.jpg,AMSA04.jpg,AMSA09.jpg,AMNE20.jpg,MN,1,num_6,16,num_6,1.13343156519,,,2017_Aug_16_1137,60.0137628815,MAFE4ImagesEEG,001,201126,
AFNE01.JPG,AFNE01.JPG,AFNE01.JPG,AFNE01.JPG,AFNE01.JPG,AFNE01.JPG,,,,,,,,,,,,,,,,,3,9,39,2,,,,,,,AMNE18.jpg,AMSA10.jpg,AMSA11.jpg,AMNE14.jpg,AMNE14.jpg,MN,1,num_4,16,num_4,0.65014771666,,,2017_Aug_16_1137,60.0137628815,MAFE4ImagesEEG,001,201126,
AFNE01.JPG,AFNE01.JPG,AFNE01.JPG,AFNE01.JPG,AFNE01.JPG,AFNE01.JPG,,,,,,,,,,,,,,,,,4,0,40,7,,,,,,,AMNE13.jpg,AMSA12.jpg,AMSA08.jpg,AMNE10.jpg,AMSA08.jpg,MS,2,num_2,32,num_6,0.683474175486,,,2017_Aug_16_1137,60.0137628815,MAFE4ImagesEEG,001,201126,
AFNE01.JPG,AFNE01.JPG,AFNE01.JPG,AFNE01.JPG,AFNE01.JPG,AFNE01.JPG,,,,,,,,,,,,,,,,,4,1,41,2,,,,,,,AMSA14.jpg,AMSA19.jpg,AMNE04.jpg,AMNE15.jpg,AMNE04.jpg,MN,1,num_2,32,num_4,1.01676987534,,,2017_Aug_16_1137,60.0137628815,MAFE4ImagesEEG,001,201126,
AFNE01.JPG,AFNE01.JPG,AFNE01.JPG,AFNE01.JPG,AFNE01.JPG,AFNE01.JPG,,,,,,,,,,,,,,,,,4,2,42,4,,,,,,,AMSA01.jpg,AMSA18.jpg,AMNE13.jpg,AMNE05.jpg,AMNE13.jpg,MN,1,num_2,16,num_2,1.51656604526,,,2017_Aug_16_1137,60.0137628815,MAFE4ImagesEEG,001,201126,
AFNE01.JPG,AFNE01.JPG,AFNE01.JPG,AFNE01.JPG,AFNE01.JPG,AFNE01.JPG,,,,,,,,,,,,,,,,,4,3,43,6,,,,,,,AMNE16.jpg,AMSA11.jpg,AMNE10.jpg,AMSA10.jpg,AMNE16.jpg,MN,1,num_8,16,num_8,0.933492056734,,,2017_Aug_16_1137,60.0137628815,MAFE4ImagesEEG,001,201126,
AFNE01.JPG,AFNE01.JPG,AFNE01.JPG,AFNE01.JPG,AFNE01.JPG,AFNE01.JPG,,,,,,,,,,,,,,,,,4,4,44,8,,,,,,,AMSA15.jpg,AMNE01.jpg,AMSA12.jpg,AMNE03.jpg,AMSA12.jpg,MS,2,num_2,16,num_2,1.10010221973,,,2017_Aug_16_1137,60.0137628815,MAFE4ImagesEEG,001,201126,
AFNE01.JPG,AFNE01.JPG,AFNE01.JPG,AFNE01.JPG,AFNE01.JPG,AFNE01.JPG,,,,,,,,,,,,,,,,,4,5,45,0,,,,,,,AMSA20.jpg,AMNE09.jpg,AMNE01.jpg,AMSA06.jpg,AMSA20.jpg,MS,2,num_8,16,num_8,0.833452060469,,,2017_Aug_16_1137,60.0137628815,MAFE4ImagesEEG,001,201126,
AFNE01.JPG,AFNE01.JPG,AFNE01.JPG,AFNE01.JPG,AFNE01.JPG,AFNE01.JPG,,,,,,,,,,,,,,,,,4,6,46,1,,,,,,,AMSA07.jpg,AMNE16.jpg,AMNE07.jpg,AMSA14.jpg,AMSA07.jpg,MS,2,num_8,16,num_8,0.50016053021,,,2017_Aug_16_1137,60.0137628815,MAFE4ImagesEEG,001,201126,
AFNE01.JPG,AFNE01.JPG,AFNE01.JPG,AFNE01.JPG,AFNE01.JPG,AFNE01.JPG,,,,,,,,,,,,,,,,,4,7,47,5,,,,,,,AMNE12.jpg,AMSA10.jpg,AMSA16.jpg,AMNE08.jpg,AMNE12.jpg,MN,1,num_8,16,num_8,0.800093848433,,,2017_Aug_16_1137,60.0137628815,MAFE4ImagesEEG,001,201126,
AFNE01.JPG,AFNE01.JPG,AFNE01.JPG,AFNE01.JPG,AFNE01.JPG,AFNE01.JPG,,,,,,,,,,,,,,,,,4,8,48,9,,,,,,,AMNE04.jpg,AMSA07.jpg,AMNE18.jpg,AMSA18.jpg,AMSA18.jpg,MS,2,num_4,16,num_4,0.716816029802,,,2017_Aug_16_1137,60.0137628815,MAFE4ImagesEEG,001,201126,
AFNE01.JPG,AFNE01.JPG,AFNE01.JPG,AFNE01.JPG,AFNE01.JPG,AFNE01.JPG,,,,,,,,,,,,,,,,,4,9,49,3,,,,,,,AMNE17.jpg,AMNE10.jpg,AMSA05.jpg,AMSA06.jpg,AMNE10.jpg,MN,1,num_6,16,num_6,1.10005218434,,,2017_Aug_16_1137,60.0137628815,MAFE4ImagesEEG,001,201126,
AFNE01.JPG,AFNE01.JPG,AFNE01.JPG,AFNE01.JPG,AFNE01.JPG,AFNE01.JPG,,,,,,,,,,,,,,,,,5,0,50,9,,,,,,,AMSA08.jpg,AMNE19.jpg,AMNE14.jpg,AMSA09.jpg,AMNE19.jpg,MN,1,num_6,32,num_8,1.10013397297,,,2017_Aug_16_1137,60.0137628815,MAFE4ImagesEEG,001,201126,
AFNE01.JPG,AFNE01.JPG,AFNE01.JPG,AFNE01.JPG,AFNE01.JPG,AFNE01.JPG,,,,,,,,,,,,,,,,,5,1,51,7,,,,,,,AMNE03.jpg,AMSA04.jpg,AMNE07.jpg,AMSA08.jpg,AMSA04.jpg,MS,2,num_6,16,num_6,0.750126772386,,,2017_Aug_16_1137,60.0137628815,MAFE4ImagesEEG,001,201126,
AFNE01.JPG,AFNE01.JPG,AFNE01.JPG,AFNE01.JPG,AFNE01.JPG,AFNE01.JPG,,,,,,,,,,,,,,,,,5,2,52,8,,,,,,,AMNE20.jpg,AMSA05.jpg,AMNE05.jpg,AMSA08.jpg,AMSA08.jpg,MS,2,num_4,16,num_4,1.11673257334,,,2017_Aug_16_1137,60.0137628815,MAFE4ImagesEEG,001,201126,
AFNE01.JPG,AFNE01.JPG,AFNE01.JPG,AFNE01.JPG,AFNE01.JPG,AFNE01.JPG,,,,,,,,,,,,,,,,,5,3,53,0,,,,,,,AMNE09.jpg,AMSA05.jpg,AMSA10.jpg,AMNE04.jpg,AMNE09.jpg,MN,1,num_8,16,num_8,0.883801137534,,,2017_Aug_16_1137,60.0137628815,MAFE4ImagesEEG,001,201126,
AFNE01.JPG,AFNE01.JPG,AFNE01.JPG,AFNE01.JPG,AFNE01.JPG,AFNE01.JPG,,,,,,,,,,,,,,,,,5,4,54,3,,,,,,,AMSA08.jpg,AMNE17.jpg,AMSA14.jpg,AMNE18.jpg,AMNE18.jpg,MN,1,num_4,32,num_2,1.1667602692,,,2017_Aug_16_1137,60.0137628815,MAFE4ImagesEEG,001,201126,
AFNE01.JPG,AFNE01.JPG,AFNE01.JPG,AFNE01.JPG,AFNE01.JPG,AFNE01.JPG,,,,,,,,,,,,,,,,,5,5,55,6,,,,,,,AMSA07.jpg,AMSA03.jpg,AMNE03.jpg,AMNE06.jpg,AMNE03.jpg,MN,1,num_2,16,num_2,0.983441171353,,,2017_Aug_16_1137,60.0137628815,MAFE4ImagesEEG,001,201126,
AFNE01.JPG,AFNE01.JPG,AFNE01.JPG,AFNE01.JPG,AFNE01.JPG,AFNE01.JPG,,,,,,,,,,,,,,,,,5,6,56,2,,,,,,,AMSA15.jpg,AMNE13.jpg,AMNE10.jpg,AMSA19.jpg,AMSA15.jpg,MS,2,num_8,16,num_8,0.616784693557,,,2017_Aug_16_1137,60.0137628815,MAFE4ImagesEEG,001,201126,
AFNE01.JPG,AFNE01.JPG,AFNE01.JPG,AFNE01.JPG,AFNE01.JPG,AFNE01.JPG,,,,,,,,,,,,,,,,,5,7,57,5,,,,,,,AMNE02.jpg,AMSA03.jpg,AMSA08.jpg,AMNE12.jpg,AMSA03.jpg,MS,2,num_6,16,num_6,0.466772810119,,,2017_Aug_16_1137,60.0137628815,MAFE4ImagesEEG,001,201126,
AFNE01.JPG,AFNE01.JPG,AFNE01.JPG,AFNE01.JPG,AFNE01.JPG,AFNE01.JPG,,,,,,,,,,,,,,,,,5,8,58,4,,,,,,,AMSA05.jpg,AMNE12.jpg,AMNE13.jpg,AMSA01.jpg,AMNE13.jpg,MN,1,num_2,16,num_2,0.88343068317,,,2017_Aug_16_1137,60.0137628815,MAFE4ImagesEEG,001,201126,
AFNE01.JPG,AFNE01.JPG,AFNE01.JPG,AFNE01.JPG,AFNE01.JPG,AFNE01.JPG,,,,,,,,,,,,,,,,,5,9,59,1,,,,,,,AMSA14.jpg,AMNE17.jpg,AMSA07.jpg,AMNE10.jpg,AMSA14.jpg,MS,2,num_8,16,num_8,0.700122490467,,,2017_Aug_16_1137,60.0137628815,MAFE4ImagesEEG,001,201126,
,,,,,,,,,,,,,,,,,,,,,,,,,,,,,,,,,,,,,,,,,,,space,5.08312514654,2017_Aug_16_1137,60.0137628815,MAFE4ImagesEEG,001,201126,
AFNE01.JPG,AFNE01.JPG,AFNE01.JPG,AFNE01.JPG,AFNE01.JPG,AFNE01.JPG,,,,,,,,,,,,,,,,,,,,,0,0,0,4,,,AFNE12.jpg,AFSA08.jpg,AFSA06.jpg,AFNE10.jpg,AFSA06.jpg,FS,4,num_2,32,num_6,0.75012709311,,,2017_Aug_16_1137,60.0137628815,MAFE4ImagesEEG,001,201126,
AFNE01.JPG,AFNE01.JPG,AFNE01.JPG,AFNE01.JPG,AFNE01.JPG,AFNE01.JPG,,,,,,,,,,,,,,,,,,,,,0,1,1,0,,,AFSA08.jpg,AFNE18.jpg,AFNE04.jpg,AFSA04.jpg,AFNE18.jpg,FN,3,num_6,32,num_2,1.20007903027,,,2017_Aug_16_1137,60.0137628815,MAFE4ImagesEEG,001,201126,
AFNE01.JPG,AFNE01.JPG,AFNE01.JPG,AFNE01.JPG,AFNE01.JPG,AFNE01.JPG,,,,,,,,,,,,,,,,,,,,,0,2,2,2,,,AFSA06.jpg,AFNE08.jpg,AFSA15.jpg,AFNE07.jpg,AFNE08.jpg,FN,3,num_6,16,num_6,0.850104545098,,,2017_Aug_16_1137,60.0137628815,MAFE4ImagesEEG,001,201126,
AFNE01.JPG,AFNE01.JPG,AFNE01.JPG,AFNE01.JPG,AFNE01.JPG,AFNE01.JPG,,,,,,,,,,,,,,,,,,,,,0,3,3,1,,,AFNE10.jpg,AFSA07.jpg,AFNE15.jpg,AFSA10.jpg,AFNE15.jpg,FN,3,num_2,32,num_6,0.883439022407,,,2017_Aug_16_1137,60.0137628815,MAFE4ImagesEEG,001,201126,
AFNE01.JPG,AFNE01.JPG,AFNE01.JPG,AFNE01.JPG,AFNE01.JPG,AFNE01.JPG,,,,,,,,,,,,,,,,,,,,,0,4,4,5,,,AFNE15.jpg,AFNE12.jpg,AFSA05.jpg,AFSA08.jpg,AFSA05.jpg,FS,4,num_2,16,num_2,0.566814730788,,,2017_Aug_16_1137,60.0137628815,MAFE4ImagesEEG,001,201126,
AFNE01.JPG,AFNE01.JPG,AFNE01.JPG,AFNE01.JPG,AFNE01.JPG,AFNE01.JPG,,,,,,,,,,,,,,,,,,,,,0,5,5,8,,,AFSA02.jpg,AFSA16.jpg,AFNE02.jpg,AFNE17.jpg,AFNE02.jpg,FN,3,num_2,16,num_2,0.683456214058,,,2017_Aug_16_1137,60.0137628815,MAFE4ImagesEEG,001,201126,
AFNE01.JPG,AFNE01.JPG,AFNE01.JPG,AFNE01.JPG,AFNE01.JPG,AFNE01.JPG,,,,,,,,,,,,,,,,,,,,,0,6,6,7,,,AFSA10.jpg,AFSA20.jpg,AFNE02.jpg,AFNE04.jpg,AFNE02.jpg,FN,3,num_2,32,num_8,1.1500731447,,,2017_Aug_16_1137,60.0137628815,MAFE4ImagesEEG,001,201126,
AFNE01.JPG,AFNE01.JPG,AFNE01.JPG,AFNE01.JPG,AFNE01.JPG,AFNE01.JPG,,,,,,,,,,,,,,,,,,,,,0,7,7,9,,,AFNE04.jpg,AFSA16.jpg,AFSA10.jpg,AFNE02.jpg,AFSA10.jpg,FS,4,num_2,32,num_8,0.816779048502,,,2017_Aug_16_1137,60.0137628815,MAFE4ImagesEEG,001,201126,
AFNE01.JPG,AFNE01.JPG,AFNE01.JPG,AFNE01.JPG,AFNE01.JPG,AFNE01.JPG,,,,,,,,,,,,,,,,,,,,,0,8,8,3,,,AFSA08.jpg,AFSA05.jpg,AFNE01.jpg,AFNE02.jpg,AFNE01.jpg,FN,3,num_2,16,num_2,1.71659119125,,,2017_Aug_16_1137,60.0137628815,MAFE4ImagesEEG,001,201126,
AFNE01.JPG,AFNE01.JPG,AFNE01.JPG,AFNE01.JPG,AFNE01.JPG,AFNE01.JPG,,,,,,,,,,,,,,,,,,,,,0,9,9,6,,,AFNE20.jpg,AFSA01.jpg,AFNE07.jpg,AFSA10.jpg,AFSA01.jpg,FS,4,num_6,16,num_6,1.03345571691,,,2017_Aug_16_1137,60.0137628815,MAFE4ImagesEEG,001,201126,
AFNE01.JPG,AFNE01.JPG,AFNE01.JPG,AFNE01.JPG,AFNE01.JPG,AFNE01.JPG,,,,,,,,,,,,,,,,,,,,,1,0,10,0,,,AFNE07.jpg,AFNE18.jpg,AFSA15.jpg,AFSA08.jpg,AFSA08.jpg,FS,4,num_4,16,num_4,1.11660491893,,,2017_Aug_16_1137,60.0137628815,MAFE4ImagesEEG,001,201126,
AFNE01.JPG,AFNE01.JPG,AFNE01.JPG,AFNE01.JPG,AFNE01.JPG,AFNE01.JPG,,,,,,,,,,,,,,,,,,,,,1,1,11,6,,,AFNE16.jpg,AFSA13.jpg,AFSA07.jpg,AFNE11.jpg,AFSA07.jpg,FS,4,num_2,16,num_2,1.11675823253,,,2017_Aug_16_1137,60.0137628815,MAFE4ImagesEEG,001,201126,
AFNE01.JPG,AFNE01.JPG,AFNE01.JPG,AFNE01.JPG,AFNE01.JPG,AFNE01.JPG,,,,,,,,,,,,,,,,,,,,,1,2,12,5,,,AFSA08.jpg,AFNE06.jpg,AFSA13.jpg,AFNE12.jpg,AFNE12.jpg,FN,3,num_4,16,num_4,1.01676827166,,,2017_Aug_16_1137,60.0137628815,MAFE4ImagesEEG,001,201126,
AFNE01.JPG,AFNE01.JPG,AFNE01.JPG,AFNE01.JPG,AFNE01.JPG,AFNE01.JPG,,,,,,,,,,,,,,,,,,,,,1,3,13,2,,,AFNE16.jpg,AFSA13.jpg,AFNE15.jpg,AFSA12.jpg,AFSA13.jpg,FS,4,num_6,32,num_4,0.816786425508,,,2017_Aug_16_1137,60.0137628815,MAFE4ImagesEEG,001,201126,
AFNE01.JPG,AFNE01.JPG,AFNE01.JPG,AFNE01.JPG,AFNE01.JPG,AFNE01.JPG,,,,,,,,,,,,,,,,,,,,,1,4,14,7,,,AFNE18.jpg,AFNE01.jpg,AFSA05.jpg,AFSA13.jpg,AFSA13.jpg,FS,4,num_4,16,num_4,0.633485289116,,,2017_Aug_16_1137,60.0137628815,MAFE4ImagesEEG,001,201126,
AFNE01.JPG,AFNE01.JPG,AFNE01.JPG,AFNE01.JPG,AFNE01.JPG,AFNE01.JPG,,,,,,,,,,,,,,,,,,,,,1,5,15,1,,,AFNE11.jpg,AFNE05.jpg,AFSA19.jpg,AFSA17.jpg,AFSA17.jpg,FS,4,num_4,16,num_4,1.28341105391,,,2017_Aug_16_1137,60.0137628815,MAFE4ImagesEEG,001,201126,
AFNE01.JPG,AFNE01.JPG,AFNE01.JPG,AFNE01.JPG,AFNE01.JPG,AFNE01.JPG,,,,,,,,,,,,,,,,,,,,,1,6,16,8,,,AFSA04.jpg,AFNE05.jpg,AFNE08.jpg,AFSA14.jpg,AFNE05.jpg,FN,3,num_6,16,num_6,1.25014361119,,,2017_Aug_16_1137,60.0137628815,MAFE4ImagesEEG,001,201126,
AFNE01.JPG,AFNE01.JPG,AFNE01.JPG,AFNE01.JPG,AFNE01.JPG,AFNE01.JPG,,,,,,,,,,,,,,,,,,,,,1,7,17,9,,,AFNE12.jpg,AFSA10.jpg,AFNE01.jpg,AFSA03.jpg,AFNE01.jpg,FN,3,num_2,16,num_2,0.566789392353,,,2017_Aug_16_1137,60.0137628815,MAFE4ImagesEEG,001,201126,
AFNE01.JPG,AFNE01.JPG,AFNE01.JPG,AFNE01.JPG,AFNE01.JPG,AFNE01.JPG,,,,,,,,,,,,,,,,,,,,,1,8,18,3,,,AFNE08.jpg,AFNE13.jpg,AFSA02.jpg,AFSA01.jpg,AFSA01.jpg,FS,4,num_4,16,num_4,1.03346052804,,,2017_Aug_16_1137,60.0137628815,MAFE4ImagesEEG,001,201126,
AFNE01.JPG,AFNE01.JPG,AFNE01.JPG,AFNE01.JPG,AFNE01.JPG,AFNE01.JPG,,,,,,,,,,,,,,,,,,,,,1,9,19,4,,,AFNE13.jpg,AFSA12.jpg,AFSA02.jpg,AFNE16.jpg,AFSA12.jpg,FS,4,num_6,16,num_6,0.750130300497,,,2017_Aug_16_1137,60.0137628815,MAFE4ImagesEEG,001,201126,
AFNE01.JPG,AFNE01.JPG,AFNE01.JPG,AFNE01.JPG,AFNE01.JPG,AFNE01.JPG,,,,,,,,,,,,,,,,,,,,,2,0,20,5,,,AFNE17.jpg,AFSA14.jpg,AFNE07.jpg,AFSA13.jpg,AFSA13.jpg,FS,4,num_4,16,num_4,1.51700674163,,,2017_Aug_16_1137,60.0137628815,MAFE4ImagesEEG,001,201126,
AFNE01.JPG,AFNE01.JPG,AFNE01.JPG,AFNE01.JPG,AFNE01.JPG,AFNE01.JPG,,,,,,,,,,,,,,,,,,,,,2,1,21,9,,,AFSA13.jpg,AFSA05.jpg,AFNE12.jpg,AFNE16.jpg,AFSA05.jpg,FS,4,num_6,16,num_6,0.616744921805,,,2017_Aug_16_1137,60.0137628815,MAFE4ImagesEEG,001,201126,
AFNE01.JPG,AFNE01.JPG,AFNE01.JPG,AFNE01.JPG,AFNE01.JPG,AFNE01.JPG,,,,,,,,,,,,,,,,,,,,,2,2,22,6,,,AFSA14.jpg,AFNE06.jpg,AFNE15.jpg,AFSA11.jpg,AFNE15.jpg,FN,3,num_2,16,num_2,0.883464360842,,,2017_Aug_16_1137,60.0137628815,MAFE4ImagesEEG,001,201126,
AFNE01.JPG,AFNE01.JPG,AFNE01.JPG,AFNE01.JPG,AFNE01.JPG,AFNE01.JPG,,,,,,,,,,,,,,,,,,,,,2,3,23,0,,,AFNE18.jpg,AFSA20.jpg,AFNE12.jpg,AFSA06.jpg,AFNE18.jpg,FN,3,num_8,16,num_8,1.35005050048,,,2017_Aug_16_1137,60.0137628815,MAFE4ImagesEEG,001,201126,
AFNE01.JPG,AFNE01.JPG,AFNE01.JPG,AFNE01.JPG,AFNE01.JPG,AFNE01.JPG,,,,,,,,,,,,,,,,,,,,,2,4,24,2,,,AFNE01.jpg,AFNE06.jpg,AFSA19.jpg,AFSA15.jpg,AFSA15.jpg,FS,4,num_4,16,num_4,1.01676121537,,,2017_Aug_16_1137,60.0137628815,MAFE4ImagesEEG,001,201126,
AFNE01.JPG,AFNE01.JPG,AFNE01.JPG,AFNE01.JPG,AFNE01.JPG,AFNE01.JPG,,,,,,,,,,,,,,,,,,,,,2,5,25,1,,,AFSA17.jpg,AFSA18.jpg,AFNE02.jpg,AFNE07.jpg,AFSA18.jpg,FS,4,num_6,16,num_6,0.53350462974,,,2017_Aug_16_1137,60.0137628815,MAFE4ImagesEEG,001,201126,
AFNE01.JPG,AFNE01.JPG,AFNE01.JPG,AFNE01.JPG,AFNE01.JPG,AFNE01.JPG,,,,,,,,,,,,,,,,,,,,,2,6,26,3,,,AFNE01.jpg,AFSA03.jpg,AFSA01.jpg,AFNE05.jpg,AFNE05.jpg,FN,3,num_4,32,num_8,0.766802670987,,,2017_Aug_16_1137,60.0137628815,MAFE4ImagesEEG,001,201126,
AFNE01.JPG,AFNE01.JPG,AFNE01.JPG,AFNE01.JPG,AFNE01.JPG,AFNE01.JPG,,,,,,,,,,,,,,,,,,,,,2,7,27,7,,,AFSA11.jpg,AFSA15.jpg,AFNE16.jpg,AFNE12.jpg,AFSA15.jpg,FS,4,num_6,16,num_6,0.866731370537,,,2017_Aug_16_1137,60.0137628815,MAFE4ImagesEEG,001,201126,
AFNE01.JPG,AFNE01.JPG,AFNE01.JPG,AFNE01.JPG,AFNE01.JPG,AFNE01.JPG,,,,,,,,,,,,,,,,,,,,,2,8,28,4,,,AFSA10.jpg,AFSA18.jpg,AFNE20.jpg,AFNE06.jpg,AFSA10.jpg,FS,4,num_8,16,num_8,1.18345092185,,,2017_Aug_16_1137,60.0137628815,MAFE4ImagesEEG,001,201126,
AFNE01.JPG,AFNE01.JPG,AFNE01.JPG,AFNE01.JPG,AFNE01.JPG,AFNE01.JPG,,,,,,,,,,,,,,,,,,,,,2,9,29,8,,,AFNE02.jpg,AFNE08.jpg,AFSA07.jpg,AFSA13.jpg,AFSA13.jpg,FS,4,num_4,16,num_4,1.03350895969,,,2017_Aug_16_1137,60.0137628815,MAFE4ImagesEEG,001,201126,
AFNE01.JPG,AFNE01.JPG,AFNE01.JPG,AFNE01.JPG,AFNE01.JPG,AFNE01.JPG,,,,,,,,,,,,,,,,,,,,,3,0,30,1,,,AFSA01.jpg,AFNE04.jpg,AFSA15.jpg,AFNE12.jpg,AFSA15.jpg,FS,4,num_2,32,num_8,0.966768480139,,,2017_Aug_16_1137,60.0137628815,MAFE4ImagesEEG,001,201126,
AFNE01.JPG,AFNE01.JPG,AFNE01.JPG,AFNE01.JPG,AFNE01.JPG,AFNE01.JPG,,,,,,,,,,,,,,,,,,,,,3,1,31,7,,,AFNE20.jpg,AFSA06.jpg,AFNE19.jpg,AFSA17.jpg,AFSA17.jpg,FS,4,num_4,16,num_4,0.817015433684,,,2017_Aug_16_1137,60.0137628815,MAFE4ImagesEEG,001,201126,
AFNE01.JPG,AFNE01.JPG,AFNE01.JPG,AFNE01.JPG,AFNE01.JPG,AFNE01.JPG,,,,,,,,,,,,,,,,,,,,,3,2,32,0,,,AFNE04.jpg,AFSA01.jpg,AFSA16.jpg,AFNE10.jpg,AFSA16.jpg,FS,4,num_2,16,num_2,0.716740976699,,,2017_Aug_16_1137,60.0137628815,MAFE4ImagesEEG,001,201126,
AFNE01.JPG,AFNE01.JPG,AFNE01.JPG,AFNE01.JPG,AFNE01.JPG,AFNE01.JPG,,,,,,,,,,,,,,,,,,,,,3,3,33,6,,,AFSA06.jpg,AFNE08.jpg,AFNE07.jpg,AFSA18.jpg,AFNE08.jpg,FN,3,num_6,16,num_6,0.999974982289,,,2017_Aug_16_1137,60.0137628815,MAFE4ImagesEEG,001,201126,
AFNE01.JPG,AFNE01.JPG,AFNE01.JPG,AFNE01.JPG,AFNE01.JPG,AFNE01.JPG,,,,,,,,,,,,,,,,,,,,,3,4,34,2,,,AFSA16.jpg,AFNE01.jpg,AFNE09.jpg,AFSA01.jpg,AFNE01.jpg,FN,3,num_6,16,num_6,0.816741201241,,,2017_Aug_16_1137,60.0137628815,MAFE4ImagesEEG,001,201126,
AFNE01.JPG,AFNE01.JPG,AFNE01.JPG,AFNE01.JPG,AFNE01.JPG,AFNE01.JPG,,,,,,,,,,,,,,,,,,,,,3,5,35,9,,,AFNE20.jpg,AFNE14.jpg,AFSA06.jpg,AFSA01.jpg,AFSA06.jpg,FS,4,num_2,32,num_4,0.916735973151,,,2017_Aug_16_1137,60.0137628815,MAFE4ImagesEEG,001,201126,
AFNE01.JPG,AFNE01.JPG,AFNE01.JPG,AFNE01.JPG,AFNE01.JPG,AFNE01.JPG,,,,,,,,,,,,,,,,,,,,,3,6,36,4,,,AFNE10.jpg,AFNE03.jpg,AFSA19.jpg,AFSA04.jpg,AFNE03.jpg,FN,3,num_6,16,num_6,0.633463158068,,,2017_Aug_16_1137,60.0137628815,MAFE4ImagesEEG,001,201126,
AFNE01.JPG,AFNE01.JPG,AFNE01.JPG,AFNE01.JPG,AFNE01.JPG,AFNE01.JPG,,,,,,,,,,,,,,,,,,,,,3,7,37,8,,,AFNE20.jpg,AFNE13.jpg,AFSA16.jpg,AFSA15.jpg,AFSA16.jpg,FS,4,num_2,16,num_2,0.616734337411,,,2017_Aug_16_1137,60.0137628815,MAFE4ImagesEEG,001,201126,
AFNE01.JPG,AFNE01.JPG,AFNE01.JPG,AFNE01.JPG,AFNE01.JPG,AFNE01.JPG,,,,,,,,,,,,,,,,,,,,,3,8,38,5,,,AFSA08.jpg,AFNE07.jpg,AFSA06.jpg,AFNE18.jpg,AFNE07.jpg,FN,3,num_6,16,num_6,0.766803312465,,,2017_Aug_16_1137,60.0137628815,MAFE4ImagesEEG,001,201126,
