IPosition2,IPosition3,IPosition1,IPosition6,IPosition4,IPosition5,TrialsF1.thisRepN,TrialsF1.thisTrialN,TrialsF1.thisN,TrialsF1.thisIndex,TrialsM1.thisRepN,TrialsM1.thisTrialN,TrialsM1.thisN,TrialsM1.thisIndex,TrialsF2.thisRepN,TrialsF2.thisTrialN,TrialsF2.thisN,TrialsF2.thisIndex,TrialsM2.thisRepN,TrialsM2.thisTrialN,TrialsM2.thisN,TrialsM2.thisIndex,TrialsF3.thisRepN,TrialsF3.thisTrialN,TrialsF3.thisN,TrialsF3.thisIndex,TrialsM3.thisRepN,TrialsM3.thisTrialN,TrialsM3.thisN,TrialsM3.thisIndex,InstrKey_resp.keys,InstrKey_resp.rt,Image0 _Position,Image1 _Position,Image2 _Position,Image3 _Position,Center_image,condition,code,correct_answer,accuracy,Key_Resp.keys,Key_Resp.rt,BreakKey_resp.keys,BreakKey_resp.rt,date,frameRate,expName,session,participant,
,,,,,,,,,,,,,,,,,,,,,,,,,,,,,,space,10.0162105262,,,,,,,,,,,,,,2017_Aug_07_1820,60.004099338,FEMA4ImagesEEG,001,201108,
AMNE22.JPG,AMSA24.JPG,AMSA22.JPG,AMNE25.JPG,AMNE24.JPG,AMSA25.JPG,0,0,0,7,,,,,,,,,,,,,,,,,,,,,,,AFSA09.jpg,AFNE13.jpg,AFSA17.jpg,AFNE01.jpg,AFNE13.jpg,FN,3,num_6,32,num_4,1.41675270535,,,2017_Aug_07_1820,60.004099338,FEMA4ImagesEEG,001,201108,
AFNE22.JPG,AFSA24.JPG,AFSA22.JPG,AFNE25.JPG,AFNE24.JPG,AFSA25.JPG,0,1,1,6,,,,,,,,,,,,,,,,,,,,,,,AFNE16.jpg,AFSA18.jpg,AFSA01.jpg,AFNE12.jpg,AFNE16.jpg,FN,3,num_8,32,num_6,0.800184361404,,,2017_Aug_07_1820,60.004099338,FEMA4ImagesEEG,001,201108,
AMSA25.JPG,AMNE24.JPG,AMSA24.JPG,AMNE26.JPG,AMSA21.JPG,AMNE25.JPG,0,2,2,3,,,,,,,,,,,,,,,,,,,,,,,AFSA08.jpg,AFSA02.jpg,AFNE06.jpg,AFNE02.jpg,AFNE06.jpg,FN,3,num_2,32,num_8,0.966838358669,,,2017_Aug_07_1820,60.004099338,FEMA4ImagesEEG,001,201108,
AMSA21.JPG,AMNE23.JPG,AMNE21.JPG,AMSA25.JPG,AMNE25.JPG,AMSA23.JPG,0,3,3,5,,,,,,,,,,,,,,,,,,,,,,,AFNE06.jpg,AFSA06.jpg,AFSA16.jpg,AFNE05.jpg,AFNE05.jpg,FN,3,num_4,32,num_2,1.60007556644,,,2017_Aug_07_1820,60.004099338,FEMA4ImagesEEG,001,201108,
AFSA25.JPG,AFNE24.JPG,AFSA24.JPG,AFNE21.JPG,AFSA21.JPG,AFNE25.JPG,0,4,4,2,,,,,,,,,,,,,,,,,,,,,,,AFNE08.jpg,AFNE17.jpg,AFSA16.jpg,AFSA10.jpg,AFSA16.jpg,FS,4,num_2,32,num_4,1.0001709545,,,2017_Aug_07_1820,60.004099338,FEMA4ImagesEEG,001,201108,
AFSA21.JPG,AFNE23.JPG,AFNE21.JPG,AFSA25.JPG,AFNE25.JPG,AFSA23.JPG,0,5,5,4,,,,,,,,,,,,,,,,,,,,,,,AFSA03.jpg,AFNE06.jpg,AFSA11.jpg,AFNE20.jpg,AFSA11.jpg,FS,4,num_2,16,num_2,1.25010319799,,,2017_Aug_07_1820,60.004099338,FEMA4ImagesEEG,001,201108,
AFSA21.JPG,AFNE22.JPG,AFNE21.JPG,AFSA23.JPG,AFSA22.JPG,AFNE23.JPG,0,6,6,0,,,,,,,,,,,,,,,,,,,,,,,AFSA18.jpg,AFSA03.jpg,AFNE16.jpg,AFNE11.jpg,AFNE16.jpg,FN,3,num_2,32,num_8,0.900119603844,,,2017_Aug_07_1820,60.004099338,FEMA4ImagesEEG,001,201108,
AFNE23.JPG,AFNE24.JPG,AFNE22.JPG,AFSA24.JPG,AFSA22.JPG,AFSA23.JPG,0,7,7,8,,,,,,,,,,,,,,,,,,,,,,,AFSA20.jpg,AFNE01.jpg,AFNE12.jpg,AFSA08.jpg,AFSA08.jpg,FS,4,num_4,16,num_4,0.699811308645,,,2017_Aug_07_1820,60.004099338,FEMA4ImagesEEG,001,201108,
AMNE23.JPG,AMNE24.JPG,AMNE22.JPG,AMSA24.JPG,AMSA22.JPG,AMSA23.JPG,0,8,8,9,,,,,,,,,,,,,,,,,,,,,,,AFSA01.jpg,AFNE02.jpg,AFSA07.jpg,AFNE10.jpg,AFSA01.jpg,FS,4,num_8,16,num_8,0.916799372761,,,2017_Aug_07_1820,60.004099338,FEMA4ImagesEEG,001,201108,
AMSA21.JPG,AMNE22.JPG,AMNE21.JPG,AMSA23.JPG,AMSA22.JPG,AMNE23.JPG,0,9,9,1,,,,,,,,,,,,,,,,,,,,,,,AFNE19.jpg,AFNE14.jpg,AFSA14.jpg,AFSA15.jpg,AFNE19.jpg,FN,3,num_8,32,num_2,1.11684401985,,,2017_Aug_07_1820,60.004099338,FEMA4ImagesEEG,001,201108,
AMSA25.JPG,AMNE24.JPG,AMSA24.JPG,AMNE26.JPG,AMSA21.JPG,AMNE25.JPG,,,,,0,0,0,3,,,,,,,,,,,,,,,,,,,AMSA06.jpg,AMNE05.jpg,AMSA15.jpg,AMNE09.jpg,AMNE05.jpg,MN,1,num_6,32,num_4,1.05013488722,,,2017_Aug_07_1820,60.004099338,FEMA4ImagesEEG,001,201108,
AMSA21.JPG,AMNE22.JPG,AMNE21.JPG,AMSA23.JPG,AMSA22.JPG,AMNE23.JPG,,,,,0,1,1,1,,,,,,,,,,,,,,,,,,,AMNE20.jpg,AMSA09.jpg,AMSA13.jpg,AMNE19.jpg,AMSA09.jpg,MS,2,num_6,16,num_6,1.00013054139,,,2017_Aug_07_1820,60.004099338,FEMA4ImagesEEG,001,201108,
AFSA21.JPG,AFNE23.JPG,AFNE21.JPG,AFSA25.JPG,AFNE25.JPG,AFSA23.JPG,,,,,0,2,2,4,,,,,,,,,,,,,,,,,,,AMNE02.jpg,AMSA07.jpg,AMNE04.jpg,AMSA17.jpg,AMSA07.jpg,MS,2,num_6,16,num_6,0.650156569201,,,2017_Aug_07_1820,60.004099338,FEMA4ImagesEEG,001,201108,
AMSA21.JPG,AMNE23.JPG,AMNE21.JPG,AMSA25.JPG,AMNE25.JPG,AMSA23.JPG,,,,,0,3,3,5,,,,,,,,,,,,,,,,,,,AMNE19.jpg,AMSA17.jpg,AMSA04.jpg,AMNE07.jpg,AMSA17.jpg,MS,2,num_6,32,num_8,0.783445576206,,,2017_Aug_07_1820,60.004099338,FEMA4ImagesEEG,001,201108,
AMNE23.JPG,AMNE24.JPG,AMNE22.JPG,AMSA24.JPG,AMSA22.JPG,AMSA23.JPG,,,,,0,4,4,9,,,,,,,,,,,,,,,,,,,AMNE09.jpg,AMSA13.jpg,AMSA15.jpg,AMNE20.jpg,AMNE09.jpg,MN,1,num_8,32,num_2,0.866810101783,,,2017_Aug_07_1820,60.004099338,FEMA4ImagesEEG,001,201108,
AMNE22.JPG,AMSA24.JPG,AMSA22.JPG,AMNE25.JPG,AMNE24.JPG,AMSA25.JPG,,,,,0,5,5,7,,,,,,,,,,,,,,,,,,,AMSA08.jpg,AMSA13.jpg,AMNE04.jpg,AMNE10.jpg,AMSA08.jpg,MS,2,num_8,16,num_8,0.883397818077,,,2017_Aug_07_1820,60.004099338,FEMA4ImagesEEG,001,201108,
AFNE23.JPG,AFNE24.JPG,AFNE22.JPG,AFSA24.JPG,AFSA22.JPG,AFSA23.JPG,,,,,0,6,6,8,,,,,,,,,,,,,,,,,,,AMSA08.jpg,AMNE02.jpg,AMSA09.jpg,AMNE20.jpg,AMSA09.jpg,MS,2,num_2,16,num_2,0.866761349142,,,2017_Aug_07_1820,60.004099338,FEMA4ImagesEEG,001,201108,
AFNE22.JPG,AFSA24.JPG,AFSA22.JPG,AFNE25.JPG,AFNE24.JPG,AFSA25.JPG,,,,,0,7,7,6,,,,,,,,,,,,,,,,,,,AMNE13.jpg,AMNE03.jpg,AMSA19.jpg,AMSA18.jpg,AMSA19.jpg,MS,2,num_2,16,num_2,1.30012197746,,,2017_Aug_07_1820,60.004099338,FEMA4ImagesEEG,001,201108,
AFSA25.JPG,AFNE24.JPG,AFSA24.JPG,AFNE21.JPG,AFSA21.JPG,AFNE25.JPG,,,,,0,8,8,2,,,,,,,,,,,,,,,,,,,AMNE08.jpg,AMNE20.jpg,AMSA06.jpg,AMSA03.jpg,AMNE08.jpg,MN,1,num_8,16,num_8,1.20009243744,,,2017_Aug_07_1820,60.004099338,FEMA4ImagesEEG,001,201108,
AFSA21.JPG,AFNE22.JPG,AFNE21.JPG,AFSA23.JPG,AFSA22.JPG,AFNE23.JPG,,,,,0,9,9,0,,,,,,,,,,,,,,,,,,,AMNE12.jpg,AMNE09.jpg,AMSA15.jpg,AMSA13.jpg,AMNE09.jpg,MN,1,num_6,32,num_4,1.05010666209,,,2017_Aug_07_1820,60.004099338,FEMA4ImagesEEG,001,201108,
AMNE22.JPG,AMSA24.JPG,AMSA22.JPG,AMNE25.JPG,AMNE24.JPG,AMSA25.JPG,,,,,,,,,0,0,0,7,,,,,,,,,,,,,,,AFSA06.jpg,AFNE11.jpg,AFNE20.jpg,AFSA12.jpg,AFSA12.jpg,FS,4,num_4,16,num_4,0.68354016263,,,2017_Aug_07_1820,60.004099338,FEMA4ImagesEEG,001,201108,
AMNE23.JPG,AMNE24.JPG,AMNE22.JPG,AMSA24.JPG,AMSA22.JPG,AMSA23.JPG,,,,,,,,,0,1,1,9,,,,,,,,,,,,,,,AFSA17.jpg,AFSA09.jpg,AFNE05.jpg,AFNE08.jpg,AFSA09.jpg,FS,4,num_6,32,num_8,1.0501210955,,,2017_Aug_07_1820,60.004099338,FEMA4ImagesEEG,001,201108,
AFNE22.JPG,AFSA24.JPG,AFSA22.JPG,AFNE25.JPG,AFNE24.JPG,AFSA25.JPG,,,,,,,,,0,2,2,6,,,,,,,,,,,,,,,AFSA17.jpg,AFSA03.jpg,AFNE02.jpg,AFNE14.jpg,AFNE14.jpg,FN,3,num_4,16,num_4,0.850151822204,,,2017_Aug_07_1820,60.004099338,FEMA4ImagesEEG,001,201108,
AFNE23.JPG,AFNE24.JPG,AFNE22.JPG,AFSA24.JPG,AFSA22.JPG,AFSA23.JPG,,,,,,,,,0,3,3,8,,,,,,,,,,,,,,,AFSA06.jpg,AFSA08.jpg,AFNE19.jpg,AFNE09.jpg,AFSA08.jpg,FS,4,num_6,32,num_2,1.00010712724,,,2017_Aug_07_1820,60.004099338,FEMA4ImagesEEG,001,201108,
AFSA21.JPG,AFNE22.JPG,AFNE21.JPG,AFSA23.JPG,AFSA22.JPG,AFNE23.JPG,,,,,,,,,0,4,4,0,,,,,,,,,,,,,,,AFNE18.jpg,AFNE19.jpg,AFSA04.jpg,AFSA06.jpg,AFSA06.jpg,FS,4,num_4,32,num_8,0.98346680915,,,2017_Aug_07_1820,60.004099338,FEMA4ImagesEEG,001,201108,
AMSA25.JPG,AMNE24.JPG,AMSA24.JPG,AMNE26.JPG,AMSA21.JPG,AMNE25.JPG,,,,,,,,,0,5,5,3,,,,,,,,,,,,,,,AFNE20.jpg,AFSA02.jpg,AFSA11.jpg,AFNE03.jpg,AFSA02.jpg,FS,4,num_6,32,num_4,0.866751406109,,,2017_Aug_07_1820,60.004099338,FEMA4ImagesEEG,001,201108,
AMSA21.JPG,AMNE22.JPG,AMNE21.JPG,AMSA23.JPG,AMSA22.JPG,AMNE23.JPG,,,,,,,,,0,6,6,1,,,,,,,,,,,,,,,AFNE12.jpg,AFSA06.jpg,AFNE05.jpg,AFSA17.jpg,AFSA17.jpg,FS,4,num_4,16,num_4,0.6001733921,,,2017_Aug_07_1820,60.004099338,FEMA4ImagesEEG,001,201108,
AMSA21.JPG,AMNE23.JPG,AMNE21.JPG,AMSA25.JPG,AMNE25.JPG,AMSA23.JPG,,,,,,,,,0,7,7,5,,,,,,,,,,,,,,,AFNE20.jpg,AFSA20.jpg,AFNE02.jpg,AFSA18.jpg,AFNE20.jpg,FN,3,num_8,32,num_2,1.35005030804,,,2017_Aug_07_1820,60.004099338,FEMA4ImagesEEG,001,201108,
AFSA21.JPG,AFNE23.JPG,AFNE21.JPG,AFSA25.JPG,AFNE25.JPG,AFSA23.JPG,,,,,,,,,0,8,8,4,,,,,,,,,,,,,,,AFSA17.jpg,AFNE14.jpg,AFSA11.jpg,AFNE06.jpg,AFSA17.jpg,FS,4,num_8,16,num_8,1.33330574958,,,2017_Aug_07_1820,60.004099338,FEMA4ImagesEEG,001,201108,
AFSA25.JPG,AFNE24.JPG,AFSA24.JPG,AFNE21.JPG,AFSA21.JPG,AFNE25.JPG,,,,,,,,,0,9,9,2,,,,,,,,,,,,,,,AFNE05.jpg,AFSA02.jpg,AFSA08.jpg,AFNE12.jpg,AFSA08.jpg,FS,4,num_2,32,num_6,1.00010327832,,,2017_Aug_07_1820,60.004099338,FEMA4ImagesEEG,001,201108,
AMSA25.JPG,AMNE24.JPG,AMSA24.JPG,AMNE26.JPG,AMSA21.JPG,AMNE25.JPG,,,,,,,,,,,,,0,0,0,3,,,,,,,,,,,AMSA17.jpg,AMNE11.jpg,AMSA16.jpg,AMNE07.jpg,AMSA16.jpg,MS,2,num_2,16,num_2,1.30018644617,,,2017_Aug_07_1820,60.004099338,FEMA4ImagesEEG,001,201108,
AFNE23.JPG,AFNE24.JPG,AFNE22.JPG,AFSA24.JPG,AFSA22.JPG,AFSA23.JPG,,,,,,,,,,,,,0,1,1,8,,,,,,,,,,,AMNE10.jpg,AMNE07.jpg,AMSA03.jpg,AMSA07.jpg,AMSA07.jpg,MS,2,num_4,16,num_4,0.866796630435,,,2017_Aug_07_1820,60.004099338,FEMA4ImagesEEG,001,201108,
AMSA21.JPG,AMNE23.JPG,AMNE21.JPG,AMSA25.JPG,AMNE25.JPG,AMSA23.JPG,,,,,,,,,,,,,0,2,2,5,,,,,,,,,,,AMSA13.jpg,AMNE20.jpg,AMSA18.jpg,AMNE18.jpg,AMNE20.jpg,MN,1,num_6,16,num_6,0.750154356007,,,2017_Aug_07_1820,60.004099338,FEMA4ImagesEEG,001,201108,
AFNE22.JPG,AFSA24.JPG,AFSA22.JPG,AFNE25.JPG,AFNE24.JPG,AFSA25.JPG,,,,,,,,,,,,,0,3,3,6,,,,,,,,,,,AMSA20.jpg,AMNE12.jpg,AMSA07.jpg,AMNE16.jpg,AMNE12.jpg,MN,1,num_6,32,num_4,0.766919441987,,,2017_Aug_07_1820,60.004099338,FEMA4ImagesEEG,001,201108,
AFSA21.JPG,AFNE23.JPG,AFNE21.JPG,AFSA25.JPG,AFNE25.JPG,AFSA23.JPG,,,,,,,,,,,,,0,4,4,4,,,,,,,,,,,AMSA20.jpg,AMNE20.jpg,AMNE07.jpg,AMSA09.jpg,AMNE07.jpg,MN,1,num_2,32,num_8,1.13345033932,,,2017_Aug_07_1820,60.004099338,FEMA4ImagesEEG,001,201108,
AMNE22.JPG,AMSA24.JPG,AMSA22.JPG,AMNE25.JPG,AMNE24.JPG,AMSA25.JPG,,,,,,,,,,,,,0,5,5,7,,,,,,,,,,,AMSA09.jpg,AMSA07.jpg,AMNE01.jpg,AMNE14.jpg,AMNE01.jpg,MN,1,num_2,32,num_4,1.05012045405,,,2017_Aug_07_1820,60.004099338,FEMA4ImagesEEG,001,201108,
AFSA21.JPG,AFNE22.JPG,AFNE21.JPG,AFSA23.JPG,AFSA22.JPG,AFNE23.JPG,,,,,,,,,,,,,0,6,6,0,,,,,,,,,,,AMNE05.jpg,AMSA13.jpg,AMNE18.jpg,AMSA06.jpg,AMSA06.jpg,MS,2,num_4,16,num_4,0.783506516833,,,2017_Aug_07_1820,60.004099338,FEMA4ImagesEEG,001,201108,
AMNE23.JPG,AMNE24.JPG,AMNE22.JPG,AMSA24.JPG,AMSA22.JPG,AMSA23.JPG,,,,,,,,,,,,,0,7,7,9,,,,,,,,,,,AMSA06.jpg,AMNE18.jpg,AMSA12.jpg,AMNE15.jpg,AMSA12.jpg,MS,2,num_2,32,num_8,1.41678670351,,,2017_Aug_07_1820,60.004099338,FEMA4ImagesEEG,001,201108,
AMSA21.JPG,AMNE22.JPG,AMNE21.JPG,AMSA23.JPG,AMSA22.JPG,AMNE23.JPG,,,,,,,,,,,,,0,8,8,1,,,,,,,,,,,AMNE14.jpg,AMSA03.jpg,AMNE05.jpg,AMSA16.jpg,AMSA16.jpg,MS,2,num_4,16,num_4,0.633417463396,,,2017_Aug_07_1820,60.004099338,FEMA4ImagesEEG,001,201108,
AFSA25.JPG,AFNE24.JPG,AFSA24.JPG,AFNE21.JPG,AFSA21.JPG,AFNE25.JPG,,,,,,,,,,,,,0,9,9,2,,,,,,,,,,,AMNE11.jpg,AMNE04.jpg,AMSA09.jpg,AMSA13.jpg,AMNE04.jpg,MN,1,num_6,32,num_2,2.249979713,,,2017_Aug_07_1820,60.004099338,FEMA4ImagesEEG,001,201108,
AMSA25.JPG,AMNE24.JPG,AMSA24.JPG,AMNE26.JPG,AMSA21.JPG,AMNE25.JPG,,,,,,,,,,,,,,,,,0,0,0,3,,,,,,,AFSA15.jpg,AFNE02.jpg,AFSA05.jpg,AFNE11.jpg,AFSA15.jpg,FS,4,num_8,16,num_8,0.8829048404,,,2017_Aug_07_1820,60.004099338,FEMA4ImagesEEG,001,201108,
AMNE22.JPG,AMSA24.JPG,AMSA22.JPG,AMNE25.JPG,AMNE24.JPG,AMSA25.JPG,,,,,,,,,,,,,,,,,0,1,1,7,,,,,,,AFSA17.jpg,AFNE06.jpg,AFNE12.jpg,AFSA02.jpg,AFNE06.jpg,FN,3,num_6,16,num_6,0.76677735406,,,2017_Aug_07_1820,60.004099338,FEMA4ImagesEEG,001,201108,
AFSA21.JPG,AFNE23.JPG,AFNE21.JPG,AFSA25.JPG,AFNE25.JPG,AFSA23.JPG,,,,,,,,,,,,,,,,,0,2,2,4,,,,,,,AFSA14.jpg,AFNE18.jpg,AFNE20.jpg,AFSA08.jpg,AFSA08.jpg,FS,4,num_4,32,num_8,1.66661951784,,,2017_Aug_07_1820,60.004099338,FEMA4ImagesEEG,001,201108,
AMSA21.JPG,AMNE22.JPG,AMNE21.JPG,AMSA23.JPG,AMSA22.JPG,AMNE23.JPG,,,,,,,,,,,,,,,,,0,3,3,1,,,,,,,AFNE09.jpg,AFSA15.jpg,AFSA07.jpg,AFNE16.jpg,AFNE16.jpg,FN,3,num_4,32,num_2,0.933474972146,,,2017_Aug_07_1820,60.004099338,FEMA4ImagesEEG,001,201108,
AMNE23.JPG,AMNE24.JPG,AMNE22.JPG,AMSA24.JPG,AMSA22.JPG,AMSA23.JPG,,,,,,,,,,,,,,,,,0,4,4,9,,,,,,,AFSA18.jpg,AFNE02.jpg,AFNE17.jpg,AFSA16.jpg,AFNE17.jpg,FN,3,num_2,32,num_4,0.550196308875,,,2017_Aug_07_1820,60.004099338,FEMA4ImagesEEG,001,201108,
AMSA21.JPG,AMNE23.JPG,AMNE21.JPG,AMSA25.JPG,AMNE25.JPG,AMSA23.JPG,,,,,,,,,,,,,,,,,0,5,5,5,,,,,,,AFNE16.jpg,AFSA19.jpg,AFSA18.jpg,AFNE15.jpg,AFSA18.jpg,FS,4,num_2,16,num_2,0.733520132257,,,2017_Aug_07_1820,60.004099338,FEMA4ImagesEEG,001,201108,
AFSA25.JPG,AFNE24.JPG,AFSA24.JPG,AFNE21.JPG,AFSA21.JPG,AFNE25.JPG,,,,,,,,,,,,,,,,,0,6,6,2,,,,,,,AFSA19.jpg,AFSA18.jpg,AFNE04.jpg,AFNE09.jpg,AFNE04.jpg,FN,3,num_2,32,num_4,1.0001324655,,,2017_Aug_07_1820,60.004099338,FEMA4ImagesEEG,001,201108,
AFNE22.JPG,AFSA24.JPG,AFSA22.JPG,AFNE25.JPG,AFNE24.JPG,AFSA25.JPG,,,,,,,,,,,,,,,,,0,7,7,6,,,,,,,AFSA08.jpg,AFNE15.jpg,AFNE16.jpg,AFSA06.jpg,AFSA06.jpg,FS,4,num_4,32,num_2,1.15015127719,,,2017_Aug_07_1820,60.004099338,FEMA4ImagesEEG,001,201108,
AFNE23.JPG,AFNE24.JPG,AFNE22.JPG,AFSA24.JPG,AFSA22.JPG,AFSA23.JPG,,,,,,,,,,,,,,,,,0,8,8,8,,,,,,,AFNE17.jpg,AFSA14.jpg,AFNE07.jpg,AFSA20.jpg,AFNE07.jpg,FN,3,num_2,32,num_4,0.900128584821,,,2017_Aug_07_1820,60.004099338,FEMA4ImagesEEG,001,201108,
AFSA21.JPG,AFNE22.JPG,AFNE21.JPG,AFSA23.JPG,AFSA22.JPG,AFNE23.JPG,,,,,,,,,,,,,,,,,0,9,9,0,,,,,,,AFSA17.jpg,AFSA06.jpg,AFNE11.jpg,AFNE04.jpg,AFSA06.jpg,FS,4,num_6,32,num_8,1.05001621344,,,2017_Aug_07_1820,60.004099338,FEMA4ImagesEEG,001,201108,
AMNE22.JPG,AMSA24.JPG,AMSA22.JPG,AMNE25.JPG,AMNE24.JPG,AMSA25.JPG,,,,,,,,,,,,,,,,,,,,,0,0,0,7,,,AMNE14.jpg,AMNE08.jpg,AMSA04.jpg,AMSA19.jpg,AMSA19.jpg,MS,2,num_4,32,num_6,1.03346826881,,,2017_Aug_07_1820,60.004099338,FEMA4ImagesEEG,001,201108,
AMNE23.JPG,AMNE24.JPG,AMNE22.JPG,AMSA24.JPG,AMSA22.JPG,AMSA23.JPG,,,,,,,,,,,,,,,,,,,,,0,1,1,9,,,AMNE12.jpg,AMNE11.jpg,AMSA17.jpg,AMSA20.jpg,AMSA17.jpg,MS,2,num_2,16,num_2,1.06676013023,,,2017_Aug_07_1820,60.004099338,FEMA4ImagesEEG,001,201108,
AMSA21.JPG,AMNE22.JPG,AMNE21.JPG,AMSA23.JPG,AMSA22.JPG,AMNE23.JPG,,,,,,,,,,,,,,,,,,,,,0,2,2,1,,,AMSA01.jpg,AMNE07.jpg,AMNE08.jpg,AMSA16.jpg,AMSA01.jpg,MS,2,num_8,16,num_8,0.633506629383,,,2017_Aug_07_1820,60.004099338,FEMA4ImagesEEG,001,201108,
AMSA21.JPG,AMNE23.JPG,AMNE21.JPG,AMSA25.JPG,AMNE25.JPG,AMSA23.JPG,,,,,,,,,,,,,,,,,,,,,0,3,3,5,,,AMNE07.jpg,AMNE15.jpg,AMSA17.jpg,AMSA20.jpg,AMSA17.jpg,MS,2,num_2,16,num_2,1.36675894354,,,2017_Aug_07_1820,60.004099338,FEMA4ImagesEEG,001,201108,
AFSA21.JPG,AFNE23.JPG,AFNE21.JPG,AFSA25.JPG,AFNE25.JPG,AFSA23.JPG,,,,,,,,,,,,,,,,,,,,,0,4,4,4,,,AMNE16.jpg,AMNE12.jpg,AMSA03.jpg,AMSA08.jpg,AMSA03.jpg,MS,2,num_2,16,num_2,1.08342739032,,,2017_Aug_07_1820,60.004099338,FEMA4ImagesEEG,001,201108,
AFNE22.JPG,AFSA24.JPG,AFSA22.JPG,AFNE25.JPG,AFNE24.JPG,AFSA25.JPG,,,,,,,,,,,,,,,,,,,,,0,5,5,6,,,AMNE04.jpg,AMSA08.jpg,AMNE13.jpg,AMSA16.jpg,AMNE13.jpg,MN,1,num_2,32,num_8,0.650230018655,,,2017_Aug_07_1820,60.004099338,FEMA4ImagesEEG,001,201108,
AFNE23.JPG,AFNE24.JPG,AFNE22.JPG,AFSA24.JPG,AFSA22.JPG,AFSA23.JPG,,,,,,,,,,,,,,,,,,,,,0,6,6,8,,,AMSA11.jpg,AMSA13.jpg,AMNE16.jpg,AMNE05.jpg,AMNE05.jpg,MN,1,num_4,16,num_4,0.63345338637,,,2017_Aug_07_1820,60.004099338,FEMA4ImagesEEG,001,201108,
AFSA21.JPG,AFNE22.JPG,AFNE21.JPG,AFSA23.JPG,AFSA22.JPG,AFNE23.JPG,,,,,,,,,,,,,,,,,,,,,0,7,7,0,,,AMSA01.jpg,AMNE19.jpg,AMNE13.jpg,AMSA14.jpg,AMSA01.jpg,MS,2,num_8,16,num_8,0.883437589975,,,2017_Aug_07_1820,60.004099338,FEMA4ImagesEEG,001,201108,
AFSA25.JPG,AFNE24.JPG,AFSA24.JPG,AFNE21.JPG,AFSA21.JPG,AFNE25.JPG,,,,,,,,,,,,,,,,,,,,,0,8,8,2,,,AMSA06.jpg,AMSA16.jpg,AMNE11.jpg,AMNE04.jpg,AMNE04.jpg,MN,1,num_4,16,num_4,0.700138463406,,,2017_Aug_07_1820,60.004099338,FEMA4ImagesEEG,001,201108,
AMSA25.JPG,AMNE24.JPG,AMSA24.JPG,AMNE26.JPG,AMSA21.JPG,AMNE25.JPG,,,,,,,,,,,,,,,,,,,,,0,9,9,3,,,AMNE01.jpg,AMSA04.jpg,AMSA16.jpg,AMNE15.jpg,AMNE01.jpg,MN,1,num_8,16,num_8,0.816786831943,,,2017_Aug_07_1820,60.004099338,FEMA4ImagesEEG,001,201108,
,,,,,,,,,,,,,,,,,,,,,,,,,,,,,,,,,,,,,,,,,,,space,10.0160357228,2017_Aug_07_1820,60.004099338,FEMA4ImagesEEG,001,201108,
AFNE01.JPG,AFNE01.JPG,AFNE01.JPG,AFNE01.JPG,AFNE01.JPG,AFNE01.JPG,0,0,0,8,,,,,,,,,,,,,,,,,,,,,,,AFNE14.jpg,AFSA12.jpg,AFSA05.jpg,AFNE03.jpg,AFNE03.jpg,FN,3,num_4,16,num_4,0.633449858287,,,2017_Aug_07_1820,60.004099338,FEMA4ImagesEEG,001,201108,
AFNE01.JPG,AFNE01.JPG,AFNE01.JPG,AFNE01.JPG,AFNE01.JPG,AFNE01.JPG,0,1,1,7,,,,,,,,,,,,,,,,,,,,,,,AFNE09.jpg,AFSA11.jpg,AFNE11.jpg,AFSA12.jpg,AFSA11.jpg,FS,4,num_6,32,num_8,0.950114648556,,,2017_Aug_07_1820,60.004099338,FEMA4ImagesEEG,001,201108,
AFNE01.JPG,AFNE01.JPG,AFNE01.JPG,AFNE01.JPG,AFNE01.JPG,AFNE01.JPG,0,2,2,4,,,,,,,,,,,,,,,,,,,,,,,AFNE06.jpg,AFNE15.jpg,AFSA13.jpg,AFSA02.jpg,AFSA02.jpg,FS,4,num_4,16,num_4,0.650239961687,,,2017_Aug_07_1820,60.004099338,FEMA4ImagesEEG,001,201108,
AFNE01.JPG,AFNE01.JPG,AFNE01.JPG,AFNE01.JPG,AFNE01.JPG,AFNE01.JPG,0,3,3,5,,,,,,,,,,,,,,,,,,,,,,,AFNE13.jpg,AFSA13.jpg,AFNE10.jpg,AFSA01.jpg,AFSA13.jpg,FS,4,num_6,32,num_4,1.3001235812,,,2017_Aug_07_1820,60.004099338,FEMA4ImagesEEG,001,201108,
AFNE01.JPG,AFNE01.JPG,AFNE01.JPG,AFNE01.JPG,AFNE01.JPG,AFNE01.JPG,0,4,4,1,,,,,,,,,,,,,,,,,,,,,,,AFNE08.jpg,AFNE17.jpg,AFSA14.jpg,AFSA16.jpg,AFNE08.jpg,FN,3,num_8,16,num_8,1.01676155766,,,2017_Aug_07_1820,60.004099338,FEMA4ImagesEEG,001,201108,
AFNE01.JPG,AFNE01.JPG,AFNE01.JPG,AFNE01.JPG,AFNE01.JPG,AFNE01.JPG,0,5,5,6,,,,,,,,,,,,,,,,,,,,,,,AFSA07.jpg,AFNE19.jpg,AFNE17.jpg,AFSA14.jpg,AFSA14.jpg,FS,4,num_4,16,num_4,0.700181442779,,,2017_Aug_07_1820,60.004099338,FEMA4ImagesEEG,001,201108,
AFNE01.JPG,AFNE01.JPG,AFNE01.JPG,AFNE01.JPG,AFNE01.JPG,AFNE01.JPG,0,6,6,9,,,,,,,,,,,,,,,,,,,,,,,AFSA01.jpg,AFNE14.jpg,AFNE04.jpg,AFSA07.jpg,AFNE04.jpg,FN,3,num_2,32,num_8,1.01675321837,,,2017_Aug_07_1820,60.004099338,FEMA4ImagesEEG,001,201108,
AFNE01.JPG,AFNE01.JPG,AFNE01.JPG,AFNE01.JPG,AFNE01.JPG,AFNE01.JPG,0,7,7,2,,,,,,,,,,,,,,,,,,,,,,,AFSA18.jpg,AFSA20.jpg,AFNE02.jpg,AFNE17.jpg,AFSA20.jpg,FS,4,num_6,32,num_8,0.916741639841,,,2017_Aug_07_1820,60.004099338,FEMA4ImagesEEG,001,201108,
AFNE01.JPG,AFNE01.JPG,AFNE01.JPG,AFNE01.JPG,AFNE01.JPG,AFNE01.JPG,0,8,8,3,,,,,,,,,,,,,,,,,,,,,,,AFNE12.jpg,AFSA06.jpg,AFSA20.jpg,AFNE16.jpg,AFSA06.jpg,FS,4,num_6,32,num_4,0.916795203229,,,2017_Aug_07_1820,60.004099338,FEMA4ImagesEEG,001,201108,
AFNE01.JPG,AFNE01.JPG,AFNE01.JPG,AFNE01.JPG,AFNE01.JPG,AFNE01.JPG,0,9,9,0,,,,,,,,,,,,,,,,,,,,,,,AFNE11.jpg,AFSA18.jpg,AFNE12.jpg,AFSA13.jpg,AFNE12.jpg,FN,3,num_2,16,num_2,0.566820268985,,,2017_Aug_07_1820,60.004099338,FEMA4ImagesEEG,001,201108,
AFNE01.JPG,AFNE01.JPG,AFNE01.JPG,AFNE01.JPG,AFNE01.JPG,AFNE01.JPG,1,0,10,5,,,,,,,,,,,,,,,,,,,,,,,AFNE19.jpg,AFSA13.jpg,AFSA09.jpg,AFNE11.jpg,AFSA09.jpg,FS,4,num_2,32,num_8,0.783479574835,,,2017_Aug_07_1820,60.004099338,FEMA4ImagesEEG,001,201108,
AFNE01.JPG,AFNE01.JPG,AFNE01.JPG,AFNE01.JPG,AFNE01.JPG,AFNE01.JPG,1,1,11,0,,,,,,,,,,,,,,,,,,,,,,,AFSA15.jpg,AFNE17.jpg,AFSA20.jpg,AFNE18.jpg,AFSA15.jpg,FS,4,num_8,32,num_4,0.750059737824,,,2017_Aug_07_1820,60.004099338,FEMA4ImagesEEG,001,201108,
AFNE01.JPG,AFNE01.JPG,AFNE01.JPG,AFNE01.JPG,AFNE01.JPG,AFNE01.JPG,1,2,12,2,,,,,,,,,,,,,,,,,,,,,,,AFNE19.jpg,AFNE10.jpg,AFSA16.jpg,AFSA02.jpg,AFSA16.jpg,FS,4,num_2,32,num_4,0.666758719133,,,2017_Aug_07_1820,60.004099338,FEMA4ImagesEEG,001,201108,
AFNE01.JPG,AFNE01.JPG,AFNE01.JPG,AFNE01.JPG,AFNE01.JPG,AFNE01.JPG,1,3,13,1,,,,,,,,,,,,,,,,,,,,,,,AFNE12.jpg,AFNE15.jpg,AFSA01.jpg,AFSA12.jpg,AFSA01.jpg,FS,4,num_2,16,num_2,1.4334055318,,,2017_Aug_07_1820,60.004099338,FEMA4ImagesEEG,001,201108,
AFNE01.JPG,AFNE01.JPG,AFNE01.JPG,AFNE01.JPG,AFNE01.JPG,AFNE01.JPG,1,4,14,8,,,,,,,,,,,,,,,,,,,,,,,AFNE06.jpg,AFNE14.jpg,AFSA02.jpg,AFSA18.jpg,AFSA02.jpg,FS,4,num_2,16,num_2,1.2501676667,,,2017_Aug_07_1820,60.004099338,FEMA4ImagesEEG,001,201108,
AFNE01.JPG,AFNE01.JPG,AFNE01.JPG,AFNE01.JPG,AFNE01.JPG,AFNE01.JPG,1,5,15,9,,,,,,,,,,,,,,,,,,,,,,,AFNE02.jpg,AFNE01.jpg,AFSA10.jpg,AFSA19.jpg,AFNE01.jpg,FN,3,num_6,16,num_6,0.916779807536,,,2017_Aug_07_1820,60.004099338,FEMA4ImagesEEG,001,201108,
AFNE01.JPG,AFNE01.JPG,AFNE01.JPG,AFNE01.JPG,AFNE01.JPG,AFNE01.JPG,1,6,16,4,,,,,,,,,,,,,,,,,,,,,,,AFNE17.jpg,AFSA14.jpg,AFNE08.jpg,AFSA05.jpg,AFSA14.jpg,FS,4,num_6,32,num_2,0.833493222483,,,2017_Aug_07_1820,60.004099338,FEMA4ImagesEEG,001,201108,
AFNE01.JPG,AFNE01.JPG,AFNE01.JPG,AFNE01.JPG,AFNE01.JPG,AFNE01.JPG,1,7,17,3,,,,,,,,,,,,,,,,,,,,,,,AFNE20.jpg,AFSA06.jpg,AFNE09.jpg,AFSA11.jpg,AFNE09.jpg,FN,3,num_2,32,num_8,0.966766833793,,,2017_Aug_07_1820,60.004099338,FEMA4ImagesEEG,001,201108,
AFNE01.JPG,AFNE01.JPG,AFNE01.JPG,AFNE01.JPG,AFNE01.JPG,AFNE01.JPG,1,8,18,6,,,,,,,,,,,,,,,,,,,,,,,AFSA11.jpg,AFNE02.jpg,AFSA19.jpg,AFNE13.jpg,AFSA11.jpg,FS,4,num_8,16,num_8,0.933435200248,,,2017_Aug_07_1820,60.004099338,FEMA4ImagesEEG,001,201108,
AFNE01.JPG,AFNE01.JPG,AFNE01.JPG,AFNE01.JPG,AFNE01.JPG,AFNE01.JPG,1,9,19,7,,,,,,,,,,,,,,,,,,,,,,,AFNE07.jpg,AFSA11.jpg,AFNE11.jpg,AFSA05.jpg,AFNE11.jpg,FN,3,num_2,32,num_8,0.916677491739,,,2017_Aug_07_1820,60.004099338,FEMA4ImagesEEG,001,201108,
AFNE01.JPG,AFNE01.JPG,AFNE01.JPG,AFNE01.JPG,AFNE01.JPG,AFNE01.JPG,2,0,20,3,,,,,,,,,,,,,,,,,,,,,,,AFNE11.jpg,AFSA12.jpg,AFSA02.jpg,AFNE13.jpg,AFSA12.jpg,FS,4,num_6,16,num_6,0.483475950547,,,2017_Aug_07_1820,60.004099338,FEMA4ImagesEEG,001,201108,
AFNE01.JPG,AFNE01.JPG,AFNE01.JPG,AFNE01.JPG,AFNE01.JPG,AFNE01.JPG,2,1,21,9,,,,,,,,,,,,,,,,,,,,,,,AFNE19.jpg,AFSA01.jpg,AFSA17.jpg,AFNE06.jpg,AFSA17.jpg,FS,4,num_2,16,num_2,1.26673806342,,,2017_Aug_07_1820,60.004099338,FEMA4ImagesEEG,001,201108,
AFNE01.JPG,AFNE01.JPG,AFNE01.JPG,AFNE01.JPG,AFNE01.JPG,AFNE01.JPG,2,2,22,7,,,,,,,,,,,,,,,,,,,,,,,AFNE12.jpg,AFSA09.jpg,AFSA02.jpg,AFNE10.jpg,AFNE12.jpg,FN,3,num_8,32,num_4,0.600154789165,,,2017_Aug_07_1820,60.004099338,FEMA4ImagesEEG,001,201108,
AFNE01.JPG,AFNE01.JPG,AFNE01.JPG,AFNE01.JPG,AFNE01.JPG,AFNE01.JPG,2,3,23,8,,,,,,,,,,,,,,,,,,,,,,,AFSA16.jpg,AFNE09.jpg,AFNE18.jpg,AFSA03.jpg,AFSA16.jpg,FS,4,num_8,16,num_8,1.25008427445,,,2017_Aug_07_1820,60.004099338,FEMA4ImagesEEG,001,201108,
AFNE01.JPG,AFNE01.JPG,AFNE01.JPG,AFNE01.JPG,AFNE01.JPG,AFNE01.JPG,2,4,24,5,,,,,,,,,,,,,,,,,,,,,,,AFSA14.jpg,AFNE08.jpg,AFNE11.jpg,AFSA09.jpg,AFNE11.jpg,FN,3,num_2,16,num_2,0.933493575081,,,2017_Aug_07_1820,60.004099338,FEMA4ImagesEEG,001,201108,
AFNE01.JPG,AFNE01.JPG,AFNE01.JPG,AFNE01.JPG,AFNE01.JPG,AFNE01.JPG,2,5,25,0,,,,,,,,,,,,,,,,,,,,,,,AFSA14.jpg,AFSA06.jpg,AFNE19.jpg,AFNE11.jpg,AFNE11.jpg,FN,3,num_4,16,num_4,0.816757644527,,,2017_Aug_07_1820,60.004099338,FEMA4ImagesEEG,001,201108,
AFNE01.JPG,AFNE01.JPG,AFNE01.JPG,AFNE01.JPG,AFNE01.JPG,AFNE01.JPG,2,6,26,6,,,,,,,,,,,,,,,,,,,,,,,AFNE12.jpg,AFSA05.jpg,AFSA20.jpg,AFNE19.jpg,AFNE19.jpg,FN,3,num_4,32,num_6,0.633520741714,,,2017_Aug_07_1820,60.004099338,FEMA4ImagesEEG,001,201108,
AFNE01.JPG,AFNE01.JPG,AFNE01.JPG,AFNE01.JPG,AFNE01.JPG,AFNE01.JPG,2,7,27,1,,,,,,,,,,,,,,,,,,,,,,,AFSA06.jpg,AFSA18.jpg,AFNE01.jpg,AFNE13.jpg,AFSA18.jpg,FS,4,num_6,16,num_6,0.433509772643,,,2017_Aug_07_1820,60.004099338,FEMA4ImagesEEG,001,201108,
AFNE01.JPG,AFNE01.JPG,AFNE01.JPG,AFNE01.JPG,AFNE01.JPG,AFNE01.JPG,2,8,28,4,,,,,,,,,,,,,,,,,,,,,,,AFSA06.jpg,AFNE12.jpg,AFNE17.jpg,AFSA11.jpg,AFSA11.jpg,FS,4,num_4,16,num_4,0.550170008326,,,2017_Aug_07_1820,60.004099338,FEMA4ImagesEEG,001,201108,
AFNE01.JPG,AFNE01.JPG,AFNE01.JPG,AFNE01.JPG,AFNE01.JPG,AFNE01.JPG,2,9,29,2,,,,,,,,,,,,,,,,,,,,,,,AFSA03.jpg,AFNE18.jpg,AFSA16.jpg,AFNE15.jpg,AFNE15.jpg,FN,3,num_4,16,num_4,0.600202900125,,,2017_Aug_07_1820,60.004099338,FEMA4ImagesEEG,001,201108,
AFNE01.JPG,AFNE01.JPG,AFNE01.JPG,AFNE01.JPG,AFNE01.JPG,AFNE01.JPG,3,0,30,5,,,,,,,,,,,,,,,,,,,,,,,AFNE01.jpg,AFSA20.jpg,AFSA16.jpg,AFNE14.jpg,AFSA20.jpg,FS,4,num_6,16,num_6,0.666790472344,,,2017_Aug_07_1820,60.004099338,FEMA4ImagesEEG,001,201108,
AFNE01.JPG,AFNE01.JPG,AFNE01.JPG,AFNE01.JPG,AFNE01.JPG,AFNE01.JPG,3,1,31,6,,,,,,,,,,,,,,,,,,,,,,,AFNE19.jpg,AFNE14.jpg,AFSA17.jpg,AFSA06.jpg,AFSA17.jpg,FS,4,num_2,32,num_8,0.916776279686,,,2017_Aug_07_1820,60.004099338,FEMA4ImagesEEG,001,201108,
AFNE01.JPG,AFNE01.JPG,AFNE01.JPG,AFNE01.JPG,AFNE01.JPG,AFNE01.JPG,3,2,32,0,,,,,,,,,,,,,,,,,,,,,,,AFNE20.jpg,AFSA09.jpg,AFNE05.jpg,AFSA18.jpg,AFNE05.jpg,FN,3,num_2,32,num_4,0.683471203549,,,2017_Aug_07_1820,60.004099338,FEMA4ImagesEEG,001,201108,
AFNE01.JPG,AFNE01.JPG,AFNE01.JPG,AFNE01.JPG,AFNE01.JPG,AFNE01.JPG,3,3,33,9,,,,,,,,,,,,,,,,,,,,,,,AFNE10.jpg,AFSA13.jpg,AFNE06.jpg,AFSA03.jpg,AFNE06.jpg,FN,3,num_2,16,num_2,1.46656460734,,,2017_Aug_07_1820,60.004099338,FEMA4ImagesEEG,001,201108,
AFNE01.JPG,AFNE01.JPG,AFNE01.JPG,AFNE01.JPG,AFNE01.JPG,AFNE01.JPG,3,4,34,2,,,,,,,,,,,,,,,,,,,,,,,AFNE05.jpg,AFSA15.jpg,AFNE07.jpg,AFSA06.jpg,AFSA06.jpg,FS,4,num_4,16,num_4,0.716769479914,,,2017_Aug_07_1820,60.004099338,FEMA4ImagesEEG,001,201108,
AFNE01.JPG,AFNE01.JPG,AFNE01.JPG,AFNE01.JPG,AFNE01.JPG,AFNE01.JPG,3,5,35,7,,,,,,,,,,,,,,,,,,,,,,,AFSA20.jpg,AFNE17.jpg,AFNE14.jpg,AFSA01.jpg,AFNE14.jpg,FN,3,num_2,16,num_2,1.05011692573,,,2017_Aug_07_1820,60.004099338,FEMA4ImagesEEG,001,201108,
AFNE01.JPG,AFNE01.JPG,AFNE01.JPG,AFNE01.JPG,AFNE01.JPG,AFNE01.JPG,3,6,36,8,,,,,,,,,,,,,,,,,,,,,,,AFSA10.jpg,AFNE07.jpg,AFNE03.jpg,AFSA11.jpg,AFNE03.jpg,FN,3,num_2,32,num_8,0.883478003321,,,2017_Aug_07_1820,60.004099338,FEMA4ImagesEEG,001,201108,
AFNE01.JPG,AFNE01.JPG,AFNE01.JPG,AFNE01.JPG,AFNE01.JPG,AFNE01.JPG,3,7,37,4,,,,,,,,,,,,,,,,,,,,,,,AFNE10.jpg,AFSA04.jpg,AFSA09.jpg,AFNE07.jpg,AFSA09.jpg,FS,4,num_2,32,num_4,0.800168003654,,,2017_Aug_07_1820,60.004099338,FEMA4ImagesEEG,001,201108,
AFNE01.JPG,AFNE01.JPG,AFNE01.JPG,AFNE01.JPG,AFNE01.JPG,AFNE01.JPG,3,8,38,3,,,,,,,,,,,,,,,,,,,,,,,AFNE11.jpg,AFNE09.jpg,AFSA10.jpg,AFSA19.jpg,AFNE11.jpg,FN,3,num_8,32,num_2,1.31676550279,,,2017_Aug_07_1820,60.004099338,FEMA4ImagesEEG,001,201108,
AFNE01.JPG,AFNE01.JPG,AFNE01.JPG,AFNE01.JPG,AFNE01.JPG,AFNE01.JPG,3,9,39,1,,,,,,,,,,,,,,,,,,,,,,,AFSA04.jpg,AFNE16.jpg,AFSA10.jpg,AFNE19.jpg,AFSA10.jpg,FS,4,num_2,16,num_2,0.900102604646,,,2017_Aug_07_1820,60.004099338,FEMA4ImagesEEG,001,201108,
AFNE01.JPG,AFNE01.JPG,AFNE01.JPG,AFNE01.JPG,AFNE01.JPG,AFNE01.JPG,4,0,40,5,,,,,,,,,,,,,,,,,,,,,,,AFNE20.jpg,AFSA14.jpg,AFSA03.jpg,AFNE13.jpg,AFSA03.jpg,FS,4,num_2,32,num_8,0.800148438429,,,2017_Aug_07_1820,60.004099338,FEMA4ImagesEEG,001,201108,
AFNE01.JPG,AFNE01.JPG,AFNE01.JPG,AFNE01.JPG,AFNE01.JPG,AFNE01.JPG,4,1,41,1,,,,,,,,,,,,,,,,,,,,,,,AFSA18.jpg,AFSA09.jpg,AFNE10.jpg,AFNE02.jpg,AFNE10.jpg,FN,3,num_2,16,num_2,0.700160273816,,,2017_Aug_07_1820,60.004099338,FEMA4ImagesEEG,001,201108,
AFNE01.JPG,AFNE01.JPG,AFNE01.JPG,AFNE01.JPG,AFNE01.JPG,AFNE01.JPG,4,2,42,0,,,,,,,,,,,,,,,,,,,,,,,AFSA16.jpg,AFNE10.jpg,AFSA19.jpg,AFNE01.jpg,AFNE10.jpg,FN,3,num_6,16,num_6,0.383494521258,,,2017_Aug_07_1820,60.004099338,FEMA4ImagesEEG,001,201108,
AFNE01.JPG,AFNE01.JPG,AFNE01.JPG,AFNE01.JPG,AFNE01.JPG,AFNE01.JPG,4,3,43,6,,,,,,,,,,,,,,,,,,,,,,,AFNE08.jpg,AFSA03.jpg,AFNE11.jpg,AFSA12.jpg,AFNE11.jpg,FN,3,num_2,32,num_8,1.40008287923,,,2017_Aug_07_1820,60.004099338,FEMA4ImagesEEG,001,201108,
AFNE01.JPG,AFNE01.JPG,AFNE01.JPG,AFNE01.JPG,AFNE01.JPG,AFNE01.JPG,4,4,44,7,,,,,,,,,,,,,,,,,,,,,,,AFSA07.jpg,AFNE15.jpg,AFSA16.jpg,AFNE02.jpg,AFSA16.jpg,FS,4,num_2,32,num_4,1.08345369087,,,2017_Aug_07_1820,60.004099338,FEMA4ImagesEEG,001,201108,
AFNE01.JPG,AFNE01.JPG,AFNE01.JPG,AFNE01.JPG,AFNE01.JPG,AFNE01.JPG,4,5,45,4,,,,,,,,,,,,,,,,,,,,,,,AFSA01.jpg,AFNE17.jpg,AFSA05.jpg,AFNE08.jpg,AFSA05.jpg,FS,4,num_2,16,num_2,1.40006331401,,,2017_Aug_07_1820,60.004099338,FEMA4ImagesEEG,001,201108,
AFNE01.JPG,AFNE01.JPG,AFNE01.JPG,AFNE01.JPG,AFNE01.JPG,AFNE01.JPG,4,6,46,2,,,,,,,,,,,,,,,,,,,,,,,AFNE13.jpg,AFSA02.jpg,AFNE09.jpg,AFSA18.jpg,AFSA02.jpg,FS,4,num_6,32,num_2,1.05008645565,,,2017_Aug_07_1820,60.004099338,FEMA4ImagesEEG,001,201108,
AFNE01.JPG,AFNE01.JPG,AFNE01.JPG,AFNE01.JPG,AFNE01.JPG,AFNE01.JPG,4,7,47,3,,,,,,,,,,,,,,,,,,,,,,,AFSA11.jpg,AFNE12.jpg,AFSA18.jpg,AFNE19.jpg,AFNE19.jpg,FN,3,num_4,32,num_8,0.983507543337,,,2017_Aug_07_1820,60.004099338,FEMA4ImagesEEG,001,201108,
AFNE01.JPG,AFNE01.JPG,AFNE01.JPG,AFNE01.JPG,AFNE01.JPG,AFNE01.JPG,4,8,48,8,,,,,,,,,,,,,,,,,,,,,,,AFNE13.jpg,AFNE02.jpg,AFSA07.jpg,AFSA06.jpg,AFNE13.jpg,FN,3,num_8,32,num_2,1.50039691594,,,2017_Aug_07_1820,60.004099338,FEMA4ImagesEEG,001,201108,
AFNE01.JPG,AFNE01.JPG,AFNE01.JPG,AFNE01.JPG,AFNE01.JPG,AFNE01.JPG,4,9,49,9,,,,,,,,,,,,,,,,,,,,,,,AFSA04.jpg,AFNE03.jpg,AFNE07.jpg,AFSA17.jpg,AFNE07.jpg,FN,3,num_2,32,num_8,1.15913167945,,,2017_Aug_07_1820,60.004099338,FEMA4ImagesEEG,001,201108,
AFNE01.JPG,AFNE01.JPG,AFNE01.JPG,AFNE01.JPG,AFNE01.JPG,AFNE01.JPG,5,0,50,8,,,,,,,,,,,,,,,,,,,,,,,AFSA11.jpg,AFNE16.jpg,AFNE09.jpg,AFSA12.jpg,AFNE09.jpg,FN,3,num_2,32,num_6,0.73346592742,,,2017_Aug_07_1820,60.004099338,FEMA4ImagesEEG,001,201108,
AFNE01.JPG,AFNE01.JPG,AFNE01.JPG,AFNE01.JPG,AFNE01.JPG,AFNE01.JPG,5,1,51,9,,,,,,,,,,,,,,,,,,,,,,,AFSA15.jpg,AFNE11.jpg,AFSA03.jpg,AFNE20.jpg,AFNE11.jpg,FN,3,num_6,32,num_8,0.550126708578,,,2017_Aug_07_1820,60.004099338,FEMA4ImagesEEG,001,201108,
AFNE01.JPG,AFNE01.JPG,AFNE01.JPG,AFNE01.JPG,AFNE01.JPG,AFNE01.JPG,5,2,52,1,,,,,,,,,,,,,,,,,,,,,,,AFSA13.jpg,AFNE03.jpg,AFSA15.jpg,AFNE11.jpg,AFSA15.jpg,FS,4,num_2,32,num_6,1.05006592814,,,2017_Aug_07_1820,60.004099338,FEMA4ImagesEEG,001,201108,
AFNE01.JPG,AFNE01.JPG,AFNE01.JPG,AFNE01.JPG,AFNE01.JPG,AFNE01.JPG,5,3,53,7,,,,,,,,,,,,,,,,,,,,,,,AFSA17.jpg,AFSA20.jpg,AFNE01.jpg,AFNE04.jpg,AFSA17.jpg,FS,4,num_8,32,num_2,1.21680043126,,,2017_Aug_07_1820,60.004099338,FEMA4ImagesEEG,001,201108,
AFNE01.JPG,AFNE01.JPG,AFNE01.JPG,AFNE01.JPG,AFNE01.JPG,AFNE01.JPG,5,4,54,2,,,,,,,,,,,,,,,,,,,,,,,AFSA06.jpg,AFSA05.jpg,AFNE18.jpg,AFNE15.jpg,AFSA06.jpg,FS,4,num_8,16,num_8,1.08341039112,,,2017_Aug_07_1820,60.004099338,FEMA4ImagesEEG,001,201108,
AFNE01.JPG,AFNE01.JPG,AFNE01.JPG,AFNE01.JPG,AFNE01.JPG,AFNE01.JPG,5,5,55,6,,,,,,,,,,,,,,,,,,,,,,,AFSA01.jpg,AFNE06.jpg,AFSA06.jpg,AFNE02.jpg,AFNE06.jpg,FN,3,num_6,32,num_2,0.616814992856,,,2017_Aug_07_1820,60.004099338,FEMA4ImagesEEG,001,201108,
AFNE01.JPG,AFNE01.JPG,AFNE01.JPG,AFNE01.JPG,AFNE01.JPG,AFNE01.JPG,5,6,56,0,,,,,,,,,,,,,,,,,,,,,,,AFSA14.jpg,AFNE08.jpg,AFNE16.jpg,AFSA13.jpg,AFNE16.jpg,FN,3,num_2,16,num_2,1.50005949731,,,2017_Aug_07_1820,60.004099338,FEMA4ImagesEEG,001,201108,
AFNE01.JPG,AFNE01.JPG,AFNE01.JPG,AFNE01.JPG,AFNE01.JPG,AFNE01.JPG,5,7,57,4,,,,,,,,,,,,,,,,,,,,,,,AFSA16.jpg,AFNE08.jpg,AFNE09.jpg,AFSA13.jpg,AFNE08.jpg,FN,3,num_6,16,num_6,1.15010156226,,,2017_Aug_07_1820,60.004099338,FEMA4ImagesEEG,001,201108,
AFNE01.JPG,AFNE01.JPG,AFNE01.JPG,AFNE01.JPG,AFNE01.JPG,AFNE01.JPG,5,8,58,5,,,,,,,,,,,,,,,,,,,,,,,AFNE01.jpg,AFNE11.jpg,AFSA12.jpg,AFSA07.jpg,AFNE01.jpg,FN,3,num_8,16,num_8,1.03343587392,,,2017_Aug_07_1820,60.004099338,FEMA4ImagesEEG,001,201108,
AFNE01.JPG,AFNE01.JPG,AFNE01.JPG,AFNE01.JPG,AFNE01.JPG,AFNE01.JPG,5,9,59,3,,,,,,,,,,,,,,,,,,,,,,,AFSA12.jpg,AFNE02.jpg,AFSA14.jpg,AFNE08.jpg,AFNE02.jpg,FN,3,num_6,16,num_6,0.716816628585,,,2017_Aug_07_1820,60.004099338,FEMA4ImagesEEG,001,201108,
,,,,,,,,,,,,,,,,,,,,,,,,,,,,,,,,,,,,,,,,,,,space,14.5326890305,2017_Aug_07_1820,60.004099338,FEMA4ImagesEEG,001,201108,
AFNE01.JPG,AFNE01.JPG,AFNE01.JPG,AFNE01.JPG,AFNE01.JPG,AFNE01.JPG,,,,,0,0,0,0,,,,,,,,,,,,,,,,,,,AMSA11.jpg,AMNE10.jpg,AMSA05.jpg,AMNE16.jpg,AMSA11.jpg,MS,2,num_8,16,num_8,1.35009938129,,,2017_Aug_07_1820,60.004099338,FEMA4ImagesEEG,001,201108,
AFNE01.JPG,AFNE01.JPG,AFNE01.JPG,AFNE01.JPG,AFNE01.JPG,AFNE01.JPG,,,,,0,1,1,4,,,,,,,,,,,,,,,,,,,AMNE18.jpg,AMSA09.jpg,AMSA18.jpg,AMNE07.jpg,AMNE07.jpg,MN,1,num_4,16,num_4,0.800110270502,,,2017_Aug_07_1820,60.004099338,FEMA4ImagesEEG,001,201108,
AFNE01.JPG,AFNE01.JPG,AFNE01.JPG,AFNE01.JPG,AFNE01.JPG,AFNE01.JPG,,,,,0,2,2,9,,,,,,,,,,,,,,,,,,,AMSA16.jpg,AMSA10.jpg,AMNE18.jpg,AMNE15.jpg,AMNE18.jpg,MN,1,num_2,32,num_4,0.633482894395,,,2017_Aug_07_1820,60.004099338,FEMA4ImagesEEG,001,201108,
AFNE01.JPG,AFNE01.JPG,AFNE01.JPG,AFNE01.JPG,AFNE01.JPG,AFNE01.JPG,,,,,0,3,3,6,,,,,,,,,,,,,,,,,,,AMNE18.jpg,AMSA11.jpg,AMSA13.jpg,AMNE03.jpg,AMSA11.jpg,MS,2,num_6,16,num_6,0.650157531491,,,2017_Aug_07_1820,60.004099338,FEMA4ImagesEEG,001,201108,
AFNE01.JPG,AFNE01.JPG,AFNE01.JPG,AFNE01.JPG,AFNE01.JPG,AFNE01.JPG,,,,,0,4,4,7,,,,,,,,,,,,,,,,,,,AMNE17.jpg,AMSA05.jpg,AMNE03.jpg,AMSA07.jpg,AMSA07.jpg,MS,2,num_4,16,num_4,0.416811079951,,,2017_Aug_07_1820,60.004099338,FEMA4ImagesEEG,001,201108,
AFNE01.JPG,AFNE01.JPG,AFNE01.JPG,AFNE01.JPG,AFNE01.JPG,AFNE01.JPG,,,,,0,5,5,5,,,,,,,,,,,,,,,,,,,AMSA13.jpg,AMSA14.jpg,AMNE18.jpg,AMNE11.jpg,AMNE18.jpg,MN,1,num_2,32,num_8,0.733513717772,,,2017_Aug_07_1820,60.004099338,FEMA4ImagesEEG,001,201108,
AFNE01.JPG,AFNE01.JPG,AFNE01.JPG,AFNE01.JPG,AFNE01.JPG,AFNE01.JPG,,,,,0,6,6,1,,,,,,,,,,,,,,,,,,,AMSA13.jpg,AMNE07.jpg,AMNE06.jpg,AMSA09.jpg,AMSA13.jpg,MS,2,num_8,32,num_2,1.48340634978,,,2017_Aug_07_1820,60.004099338,FEMA4ImagesEEG,001,201108,
AFNE01.JPG,AFNE01.JPG,AFNE01.JPG,AFNE01.JPG,AFNE01.JPG,AFNE01.JPG,,,,,0,7,7,8,,,,,,,,,,,,,,,,,,,AMSA16.jpg,AMNE09.jpg,AMNE06.jpg,AMSA07.jpg,AMNE09.jpg,MN,1,num_6,32,num_4,0.65041187848,,,2017_Aug_07_1820,60.004099338,FEMA4ImagesEEG,001,201108,
AFNE01.JPG,AFNE01.JPG,AFNE01.JPG,AFNE01.JPG,AFNE01.JPG,AFNE01.JPG,,,,,0,8,8,3,,,,,,,,,,,,,,,,,,,AMNE12.jpg,AMNE05.jpg,AMSA03.jpg,AMSA18.jpg,AMSA03.jpg,MS,2,num_2,32,num_4,0.466793936444,,,2017_Aug_07_1820,60.004099338,FEMA4ImagesEEG,001,201108,
AFNE01.JPG,AFNE01.JPG,AFNE01.JPG,AFNE01.JPG,AFNE01.JPG,AFNE01.JPG,,,,,0,9,9,2,,,,,,,,,,,,,,,,,,,AMNE07.jpg,AMSA19.jpg,AMSA01.jpg,AMNE11.jpg,AMSA19.jpg,MS,2,num_6,16,num_6,0.533469712129,,,2017_Aug_07_1820,60.004099338,FEMA4ImagesEEG,001,201108,
AFNE01.JPG,AFNE01.JPG,AFNE01.JPG,AFNE01.JPG,AFNE01.JPG,AFNE01.JPG,,,,,1,0,10,3,,,,,,,,,,,,,,,,,,,AMNE12.jpg,AMSA06.jpg,AMSA02.jpg,AMNE06.jpg,AMSA02.jpg,MS,2,num_2,32,num_8,0.800154532539,,,2017_Aug_07_1820,60.004099338,FEMA4ImagesEEG,001,201108,
AFNE01.JPG,AFNE01.JPG,AFNE01.JPG,AFNE01.JPG,AFNE01.JPG,AFNE01.JPG,,,,,1,1,11,2,,,,,,,,,,,,,,,,,,,AMNE06.jpg,AMSA02.jpg,AMSA18.jpg,AMNE12.jpg,AMSA18.jpg,MS,2,num_2,16,num_2,1.15010092082,,,2017_Aug_07_1820,60.004099338,FEMA4ImagesEEG,001,201108,
AFNE01.JPG,AFNE01.JPG,AFNE01.JPG,AFNE01.JPG,AFNE01.JPG,AFNE01.JPG,,,,,1,2,12,1,,,,,,,,,,,,,,,,,,,AMSA14.jpg,AMNE07.jpg,AMNE03.jpg,AMSA12.jpg,AMSA12.jpg,MS,2,num_4,32,num_6,0.850135785295,,,2017_Aug_07_1820,60.004099338,FEMA4ImagesEEG,001,201108,
AFNE01.JPG,AFNE01.JPG,AFNE01.JPG,AFNE01.JPG,AFNE01.JPG,AFNE01.JPG,,,,,1,3,13,5,,,,,,,,,,,,,,,,,,,AMNE09.jpg,AMNE04.jpg,AMSA07.jpg,AMSA05.jpg,AMSA07.jpg,MS,2,num_2,16,num_2,1.01677438733,,,2017_Aug_07_1820,60.004099338,FEMA4ImagesEEG,001,201108,
AFNE01.JPG,AFNE01.JPG,AFNE01.JPG,AFNE01.JPG,AFNE01.JPG,AFNE01.JPG,,,,,1,4,14,8,,,,,,,,,,,,,,,,,,,AMNE02.jpg,AMSA08.jpg,AMSA01.jpg,AMNE04.jpg,AMNE04.jpg,MN,1,num_4,32,num_2,0.966763305711,,,2017_Aug_07_1820,60.004099338,FEMA4ImagesEEG,001,201108,
AFNE01.JPG,AFNE01.JPG,AFNE01.JPG,AFNE01.JPG,AFNE01.JPG,AFNE01.JPG,,,,,1,5,15,9,,,,,,,,,,,,,,,,,,,AMSA14.jpg,AMNE19.jpg,AMNE14.jpg,AMSA02.jpg,AMNE14.jpg,MN,1,num_2,16,num_2,0.783447180176,,,2017_Aug_07_1820,60.004099338,FEMA4ImagesEEG,001,201108,
AFNE01.JPG,AFNE01.JPG,AFNE01.JPG,AFNE01.JPG,AFNE01.JPG,AFNE01.JPG,,,,,1,6,16,6,,,,,,,,,,,,,,,,,,,AMSA11.jpg,AMNE20.jpg,AMSA15.jpg,AMNE02.jpg,AMSA15.jpg,MS,2,num_2,32,num_4,0.749810202047,,,2017_Aug_07_1820,60.004099338,FEMA4ImagesEEG,001,201108,
AFNE01.JPG,AFNE01.JPG,AFNE01.JPG,AFNE01.JPG,AFNE01.JPG,AFNE01.JPG,,,,,1,7,17,4,,,,,,,,,,,,,,,,,,,AMNE20.jpg,AMSA05.jpg,AMSA07.jpg,AMNE07.jpg,AMNE07.jpg,MN,1,num_4,32,num_6,0.900123773608,,,2017_Aug_07_1820,60.004099338,FEMA4ImagesEEG,001,201108,
AFNE01.JPG,AFNE01.JPG,AFNE01.JPG,AFNE01.JPG,AFNE01.JPG,AFNE01.JPG,,,,,1,8,18,7,,,,,,,,,,,,,,,,,,,AMNE13.jpg,AMSA02.jpg,AMSA15.jpg,AMNE14.jpg,AMNE14.jpg,MN,1,num_4,16,num_4,0.716801233357,,,2017_Aug_07_1820,60.004099338,FEMA4ImagesEEG,001,201108,
AFNE01.JPG,AFNE01.JPG,AFNE01.JPG,AFNE01.JPG,AFNE01.JPG,AFNE01.JPG,,,,,1,9,19,0,,,,,,,,,,,,,,,,,,,AMSA06.jpg,AMNE13.jpg,AMSA02.jpg,AMNE07.jpg,AMSA06.jpg,MS,2,num_8,32,num_2,1.26700427756,,,2017_Aug_07_1820,60.004099338,FEMA4ImagesEEG,001,201108,
AFNE01.JPG,AFNE01.JPG,AFNE01.JPG,AFNE01.JPG,AFNE01.JPG,AFNE01.JPG,,,,,2,0,20,4,,,,,,,,,,,,,,,,,,,AMSA04.jpg,AMNE07.jpg,AMSA02.jpg,AMNE08.jpg,AMNE08.jpg,MN,1,num_4,16,num_4,0.683445865056,,,2017_Aug_07_1820,60.004099338,FEMA4ImagesEEG,001,201108,
AFNE01.JPG,AFNE01.JPG,AFNE01.JPG,AFNE01.JPG,AFNE01.JPG,AFNE01.JPG,,,,,2,1,21,2,,,,,,,,,,,,,,,,,,,AMSA02.jpg,AMNE01.jpg,AMNE19.jpg,AMSA14.jpg,AMNE01.jpg,MN,1,num_6,32,num_4,0.683449393138,,,2017_Aug_07_1820,60.004099338,FEMA4ImagesEEG,001,201108,
AFNE01.JPG,AFNE01.JPG,AFNE01.JPG,AFNE01.JPG,AFNE01.JPG,AFNE01.JPG,,,,,2,2,22,0,,,,,,,,,,,,,,,,,,,AMNE08.jpg,AMNE09.jpg,AMSA08.jpg,AMSA09.jpg,AMSA08.jpg,MS,2,num_2,32,num_6,0.93355259113,,,2017_Aug_07_1820,60.004099338,FEMA4ImagesEEG,001,201108,
AFNE01.JPG,AFNE01.JPG,AFNE01.JPG,AFNE01.JPG,AFNE01.JPG,AFNE01.JPG,,,,,2,3,23,1,,,,,,,,,,,,,,,,,,,AMSA14.jpg,AMSA01.jpg,AMNE01.jpg,AMNE02.jpg,AMNE02.jpg,MN,1,num_4,32,num_2,1.03344421322,,,2017_Aug_07_1820,60.004099338,FEMA4ImagesEEG,001,201108,
AFNE01.JPG,AFNE01.JPG,AFNE01.JPG,AFNE01.JPG,AFNE01.JPG,AFNE01.JPG,,,,,2,4,24,3,,,,,,,,,,,,,,,,,,,AMSA06.jpg,AMSA19.jpg,AMNE10.jpg,AMNE13.jpg,AMSA19.jpg,MS,2,num_6,16,num_6,0.583486246178,,,2017_Aug_07_1820,60.004099338,FEMA4ImagesEEG,001,201108,
AFNE01.JPG,AFNE01.JPG,AFNE01.JPG,AFNE01.JPG,AFNE01.JPG,AFNE01.JPG,,,,,2,5,25,7,,,,,,,,,,,,,,,,,,,AMSA20.jpg,AMSA12.jpg,AMNE20.jpg,AMNE07.jpg,AMSA12.jpg,MS,2,num_6,32,num_8,0.633504704572,,,2017_Aug_07_1820,60.004099338,FEMA4ImagesEEG,001,201108,
AFNE01.JPG,AFNE01.JPG,AFNE01.JPG,AFNE01.JPG,AFNE01.JPG,AFNE01.JPG,,,,,2,6,26,6,,,,,,,,,,,,,,,,,,,AMSA05.jpg,AMNE11.jpg,AMSA02.jpg,AMNE07.jpg,AMSA02.jpg,MS,2,num_2,16,num_2,1.05010922789,,,2017_Aug_07_1820,60.004099338,FEMA4ImagesEEG,001,201108,
AFNE01.JPG,AFNE01.JPG,AFNE01.JPG,AFNE01.JPG,AFNE01.JPG,AFNE01.JPG,,,,,2,7,27,5,,,,,,,,,,,,,,,,,,,AMSA19.jpg,AMNE04.jpg,AMSA03.jpg,AMNE16.jpg,AMNE16.jpg,MN,1,num_4,16,num_4,0.76675073267,,,2017_Aug_07_1820,60.004099338,FEMA4ImagesEEG,001,201108,
AFNE01.JPG,AFNE01.JPG,AFNE01.JPG,AFNE01.JPG,AFNE01.JPG,AFNE01.JPG,,,,,2,8,28,8,,,,,,,,,,,,,,,,,,,AMNE17.jpg,AMNE06.jpg,AMSA13.jpg,AMSA01.jpg,AMNE17.jpg,MN,1,num_8,16,num_8,0.883468060289,,,2017_Aug_07_1820,60.004099338,FEMA4ImagesEEG,001,201108,
AFNE01.JPG,AFNE01.JPG,AFNE01.JPG,AFNE01.JPG,AFNE01.JPG,AFNE01.JPG,,,,,2,9,29,9,,,,,,,,,,,,,,,,,,,AMSA16.jpg,AMSA11.jpg,AMNE13.jpg,AMNE06.jpg,AMNE13.jpg,MN,1,num_2,32,num_4,0.733451814856,,,2017_Aug_07_1820,60.004099338,FEMA4ImagesEEG,001,201108,
AFNE01.JPG,AFNE01.JPG,AFNE01.JPG,AFNE01.JPG,AFNE01.JPG,AFNE01.JPG,,,,,3,0,30,8,,,,,,,,,,,,,,,,,,,AMSA09.jpg,AMNE15.jpg,AMNE14.jpg,AMSA03.jpg,AMSA03.jpg,MS,2,num_4,16,num_4,0.65048661083,,,2017_Aug_07_1820,60.004099338,FEMA4ImagesEEG,001,201108,
AFNE01.JPG,AFNE01.JPG,AFNE01.JPG,AFNE01.JPG,AFNE01.JPG,AFNE01.JPG,,,,,3,1,31,6,,,,,,,,,,,,,,,,,,,AMSA20.jpg,AMNE11.jpg,AMNE08.jpg,AMSA19.jpg,AMNE11.jpg,MN,1,num_6,32,num_4,0.700183687732,,,2017_Aug_07_1820,60.004099338,FEMA4ImagesEEG,001,201108,
AFNE01.JPG,AFNE01.JPG,AFNE01.JPG,AFNE01.JPG,AFNE01.JPG,AFNE01.JPG,,,,,3,2,32,7,,,,,,,,,,,,,,,,,,,AMSA03.jpg,AMSA17.jpg,AMNE20.jpg,AMNE08.jpg,AMSA17.jpg,MS,2,num_6,32,num_2,1.43341290904,,,2017_Aug_07_1820,60.004099338,FEMA4ImagesEEG,001,201108,
AFNE01.JPG,AFNE01.JPG,AFNE01.JPG,AFNE01.JPG,AFNE01.JPG,AFNE01.JPG,,,,,3,3,33,1,,,,,,,,,,,,,,,,,,,AMSA01.jpg,AMNE11.jpg,AMSA15.jpg,AMNE06.jpg,AMNE11.jpg,MN,1,num_6,32,num_4,0.733461437048,,,2017_Aug_07_1820,60.004099338,FEMA4ImagesEEG,001,201108,
AFNE01.JPG,AFNE01.JPG,AFNE01.JPG,AFNE01.JPG,AFNE01.JPG,AFNE01.JPG,,,,,3,4,34,2,,,,,,,,,,,,,,,,,,,AMNE14.jpg,AMSA01.jpg,AMNE01.jpg,AMSA19.jpg,AMSA01.jpg,MS,2,num_6,32,num_2,1.66667019483,,,2017_Aug_07_1820,60.004099338,FEMA4ImagesEEG,001,201108,
AFNE01.JPG,AFNE01.JPG,AFNE01.JPG,AFNE01.JPG,AFNE01.JPG,AFNE01.JPG,,,,,3,5,35,0,,,,,,,,,,,,,,,,,,,AMNE20.jpg,AMSA20.jpg,AMSA17.jpg,AMNE18.jpg,AMNE18.jpg,MN,1,num_4,16,num_4,1.06675788504,,,2017_Aug_07_1820,60.004099338,FEMA4ImagesEEG,001,201108,
AFNE01.JPG,AFNE01.JPG,AFNE01.JPG,AFNE01.JPG,AFNE01.JPG,AFNE01.JPG,,,,,3,6,36,5,,,,,,,,,,,,,,,,,,,AMSA04.jpg,AMNE02.jpg,AMNE10.jpg,AMSA13.jpg,AMNE02.jpg,MN,1,num_6,32,num_4,0.666756473714,,,2017_Aug_07_1820,60.004099338,FEMA4ImagesEEG,001,201108,
AFNE01.JPG,AFNE01.JPG,AFNE01.JPG,AFNE01.JPG,AFNE01.JPG,AFNE01.JPG,,,,,3,7,37,4,,,,,,,,,,,,,,,,,,,AMSA10.jpg,AMNE03.jpg,AMSA15.jpg,AMNE19.jpg,AMSA15.jpg,MS,2,num_2,16,num_2,1.25021641934,,,2017_Aug_07_1820,60.004099338,FEMA4ImagesEEG,001,201108,
AFNE01.JPG,AFNE01.JPG,AFNE01.JPG,AFNE01.JPG,AFNE01.JPG,AFNE01.JPG,,,,,3,8,38,3,,,,,,,,,,,,,,,,,,,AMSA14.jpg,AMNE02.jpg,AMSA01.jpg,AMNE08.jpg,AMSA14.jpg,MS,2,num_8,16,num_8,1.08347004885,,,2017_Aug_07_1820,60.004099338,FEMA4ImagesEEG,001,201108,
AFNE01.JPG,AFNE01.JPG,AFNE01.JPG,AFNE01.JPG,AFNE01.JPG,AFNE01.JPG,,,,,3,9,39,9,,,,,,,,,,,,,,,,,,,AMSA20.jpg,AMNE13.jpg,AMNE03.jpg,AMSA17.jpg,AMNE03.jpg,MN,1,num_2,16,num_2,0.816807680065,,,2017_Aug_07_1820,60.004099338,FEMA4ImagesEEG,001,201108,
AFNE01.JPG,AFNE01.JPG,AFNE01.JPG,AFNE01.JPG,AFNE01.JPG,AFNE01.JPG,,,,,4,0,40,7,,,,,,,,,,,,,,,,,,,AMNE11.jpg,AMSA19.jpg,AMSA17.jpg,AMNE08.jpg,AMSA17.jpg,MS,2,num_2,32,num_4,0.76667632116,,,2017_Aug_07_1820,60.004099338,FEMA4ImagesEEG,001,201108,
AFNE01.JPG,AFNE01.JPG,AFNE01.JPG,AFNE01.JPG,AFNE01.JPG,AFNE01.JPG,,,,,4,1,41,8,,,,,,,,,,,,,,,,,,,AMSA02.jpg,AMNE17.jpg,AMSA11.jpg,AMNE01.jpg,AMNE01.jpg,MN,1,num_4,32,num_2,1.28341558692,,,2017_Aug_07_1820,60.004099338,FEMA4ImagesEEG,001,201108,
AFNE01.JPG,AFNE01.JPG,AFNE01.JPG,AFNE01.JPG,AFNE01.JPG,AFNE01.JPG,,,,,4,2,42,9,,,,,,,,,,,,,,,,,,,AMSA09.jpg,AMSA02.jpg,AMNE12.jpg,AMNE10.jpg,AMSA02.jpg,MS,2,num_6,32,num_4,0.666694250423,,,2017_Aug_07_1820,60.004099338,FEMA4ImagesEEG,001,201108,
AFNE01.JPG,AFNE01.JPG,AFNE01.JPG,AFNE01.JPG,AFNE01.JPG,AFNE01.JPG,,,,,4,3,43,4,,,,,,,,,,,,,,,,,,,AMNE17.jpg,AMSA19.jpg,AMNE19.jpg,AMSA01.jpg,AMSA19.jpg,MS,2,num_6,16,num_6,0.800065366784,,,2017_Aug_07_1820,60.004099338,FEMA4ImagesEEG,001,201108,
AFNE01.JPG,AFNE01.JPG,AFNE01.JPG,AFNE01.JPG,AFNE01.JPG,AFNE01.JPG,,,,,4,4,44,6,,,,,,,,,,,,,,,,,,,AMNE11.jpg,AMNE08.jpg,AMSA07.jpg,AMSA09.jpg,AMNE08.jpg,MN,1,num_6,16,num_6,0.883461645339,,,2017_Aug_07_1820,60.004099338,FEMA4ImagesEEG,001,201108,
AFNE01.JPG,AFNE01.JPG,AFNE01.JPG,AFNE01.JPG,AFNE01.JPG,AFNE01.JPG,,,,,4,5,45,1,,,,,,,,,,,,,,,,,,,AMNE10.jpg,AMSA01.jpg,AMNE04.jpg,AMSA14.jpg,AMSA01.jpg,MS,2,num_6,32,num_4,0.750163978431,,,2017_Aug_07_1820,60.004099338,FEMA4ImagesEEG,001,201108,
AFNE01.JPG,AFNE01.JPG,AFNE01.JPG,AFNE01.JPG,AFNE01.JPG,AFNE01.JPG,,,,,4,6,46,3,,,,,,,,,,,,,,,,,,,AMSA04.jpg,AMNE13.jpg,AMSA16.jpg,AMNE07.jpg,AMSA16.jpg,MS,2,num_2,32,num_6,0.666785019683,,,2017_Aug_07_1820,60.004099338,FEMA4ImagesEEG,001,201108,
AFNE01.JPG,AFNE01.JPG,AFNE01.JPG,AFNE01.JPG,AFNE01.JPG,AFNE01.JPG,,,,,4,7,47,2,,,,,,,,,,,,,,,,,,,AMNE13.jpg,AMSA01.jpg,AMSA13.jpg,AMNE02.jpg,AMSA01.jpg,MS,2,num_6,32,num_2,1.70013525616,,,2017_Aug_07_1820,60.004099338,FEMA4ImagesEEG,001,201108,
AFNE01.JPG,AFNE01.JPG,AFNE01.JPG,AFNE01.JPG,AFNE01.JPG,AFNE01.JPG,,,,,4,8,48,5,,,,,,,,,,,,,,,,,,,AMNE03.jpg,AMSA07.jpg,AMNE12.jpg,AMSA09.jpg,AMNE03.jpg,MN,1,num_8,32,num_2,1.24997778866,,,2017_Aug_07_1820,60.004099338,FEMA4ImagesEEG,001,201108,
AFNE01.JPG,AFNE01.JPG,AFNE01.JPG,AFNE01.JPG,AFNE01.JPG,AFNE01.JPG,,,,,4,9,49,0,,,,,,,,,,,,,,,,,,,AMSA16.jpg,AMNE20.jpg,AMNE01.jpg,AMSA08.jpg,AMSA16.jpg,MS,2,num_8,16,num_8,0.916727206437,,,2017_Aug_07_1820,60.004099338,FEMA4ImagesEEG,001,201108,
AFNE01.JPG,AFNE01.JPG,AFNE01.JPG,AFNE01.JPG,AFNE01.JPG,AFNE01.JPG,,,,,5,0,50,8,,,,,,,,,,,,,,,,,,,AMNE02.jpg,AMSA14.jpg,AMNE16.jpg,AMSA10.jpg,AMNE02.jpg,MN,1,num_8,32,num_4,0.650117118144,,,2017_Aug_07_1820,60.004099338,FEMA4ImagesEEG,001,201108,
AFNE01.JPG,AFNE01.JPG,AFNE01.JPG,AFNE01.JPG,AFNE01.JPG,AFNE01.JPG,,,,,5,1,51,1,,,,,,,,,,,,,,,,,,,AMSA13.jpg,AMNE11.jpg,AMSA07.jpg,AMNE15.jpg,AMSA07.jpg,MS,2,num_2,16,num_2,1.16672680527,,,2017_Aug_07_1820,60.004099338,FEMA4ImagesEEG,001,201108,
AFNE01.JPG,AFNE01.JPG,AFNE01.JPG,AFNE01.JPG,AFNE01.JPG,AFNE01.JPG,,,,,5,2,52,2,,,,,,,,,,,,,,,,,,,AMSA11.jpg,AMNE08.jpg,AMSA12.jpg,AMNE17.jpg,AMSA12.jpg,MS,2,num_2,32,num_8,0.716807006625,,,2017_Aug_07_1820,60.004099338,FEMA4ImagesEEG,001,201108,
AFNE01.JPG,AFNE01.JPG,AFNE01.JPG,AFNE01.JPG,AFNE01.JPG,AFNE01.JPG,,,,,5,3,53,6,,,,,,,,,,,,,,,,,,,AMSA10.jpg,AMNE04.jpg,AMSA20.jpg,AMNE12.jpg,AMNE12.jpg,MN,1,num_4,16,num_4,0.383484257618,,,2017_Aug_07_1820,60.004099338,FEMA4ImagesEEG,001,201108,
AFNE01.JPG,AFNE01.JPG,AFNE01.JPG,AFNE01.JPG,AFNE01.JPG,AFNE01.JPG,,,,,5,4,54,9,,,,,,,,,,,,,,,,,,,AMNE11.jpg,AMSA18.jpg,AMSA13.jpg,AMNE10.jpg,AMSA13.jpg,MS,2,num_2,32,num_4,1.08345882292,,,2017_Aug_07_1820,60.004099338,FEMA4ImagesEEG,001,201108,
AFNE01.JPG,AFNE01.JPG,AFNE01.JPG,AFNE01.JPG,AFNE01.JPG,AFNE01.JPG,,,,,5,5,55,0,,,,,,,,,,,,,,,,,,,AMNE02.jpg,AMSA03.jpg,AMNE12.jpg,AMSA07.jpg,AMSA03.jpg,MS,2,num_6,32,num_4,0.716821119189,,,2017_Aug_07_1820,60.004099338,FEMA4ImagesEEG,001,201108,
AFNE01.JPG,AFNE01.JPG,AFNE01.JPG,AFNE01.JPG,AFNE01.JPG,AFNE01.JPG,,,,,5,6,56,5,,,,,,,,,,,,,,,,,,,AMSA12.jpg,AMNE11.jpg,AMNE07.jpg,AMSA03.jpg,AMNE11.jpg,MN,1,num_6,32,num_2,1.2167426981,,,2017_Aug_07_1820,60.004099338,FEMA4ImagesEEG,001,201108,
AFNE01.JPG,AFNE01.JPG,AFNE01.JPG,AFNE01.JPG,AFNE01.JPG,AFNE01.JPG,,,,,5,7,57,3,,,,,,,,,,,,,,,,,,,AMSA12.jpg,AMNE06.jpg,AMNE10.jpg,AMSA20.jpg,AMNE10.jpg,MN,1,num_2,16,num_2,1.16669376916,,,2017_Aug_07_1820,60.004099338,FEMA4ImagesEEG,001,201108,
AFNE01.JPG,AFNE01.JPG,AFNE01.JPG,AFNE01.JPG,AFNE01.JPG,AFNE01.JPG,,,,,5,8,58,7,,,,,,,,,,,,,,,,,,,AMSA04.jpg,AMNE17.jpg,AMNE06.jpg,AMSA18.jpg,AMSA18.jpg,MS,2,num_4,16,num_4,0.450145600131,,,2017_Aug_07_1820,60.004099338,FEMA4ImagesEEG,001,201108,
AFNE01.JPG,AFNE01.JPG,AFNE01.JPG,AFNE01.JPG,AFNE01.JPG,AFNE01.JPG,,,,,5,9,59,4,,,,,,,,,,,,,,,,,,,AMNE13.jpg,AMSA05.jpg,AMSA02.jpg,AMNE16.jpg,AMNE13.jpg,MN,1,num_8,32,num_6,0.63345819735,,,2017_Aug_07_1820,60.004099338,FEMA4ImagesEEG,001,201108,
,,,,,,,,,,,,,,,,,,,,,,,,,,,,,,,,,,,,,,,,,,,space,11.5822802633,2017_Aug_07_1820,60.004099338,FEMA4ImagesEEG,001,201108,
AFNE01.JPG,AFNE01.JPG,AFNE01.JPG,AFNE01.JPG,AFNE01.JPG,AFNE01.JPG,,,,,,,,,0,0,0,0,,,,,,,,,,,,,,,AFNE02.jpg,AFSA09.jpg,AFSA13.jpg,AFNE18.jpg,AFNE18.jpg,FN,3,num_4,16,num_4,0.516782887047,,,2017_Aug_07_1820,60.004099338,FEMA4ImagesEEG,001,201108,
AFNE01.JPG,AFNE01.JPG,AFNE01.JPG,AFNE01.JPG,AFNE01.JPG,AFNE01.JPG,,,,,,,,,0,1,1,7,,,,,,,,,,,,,,,AFNE14.jpg,AFSA03.jpg,AFSA16.jpg,AFNE07.jpg,AFSA16.jpg,FS,4,num_2,32,num_8,0.666744927177,,,2017_Aug_07_1820,60.004099338,FEMA4ImagesEEG,001,201108,
AFNE01.JPG,AFNE01.JPG,AFNE01.JPG,AFNE01.JPG,AFNE01.JPG,AFNE01.JPG,,,,,,,,,0,2,2,8,,,,,,,,,,,,,,,AFNE16.jpg,AFSA03.jpg,AFNE02.jpg,AFSA19.jpg,AFNE02.jpg,FN,3,num_2,32,num_8,0.850409697276,,,2017_Aug_07_1820,60.004099338,FEMA4ImagesEEG,001,201108,
AFNE01.JPG,AFNE01.JPG,AFNE01.JPG,AFNE01.JPG,AFNE01.JPG,AFNE01.JPG,,,,,,,,,0,3,3,6,,,,,,,,,,,,,,,AFSA04.jpg,AFSA19.jpg,AFNE07.jpg,AFNE04.jpg,AFSA04.jpg,FS,4,num_8,32,num_4,0.816786190495,,,2017_Aug_07_1820,60.004099338,FEMA4ImagesEEG,001,201108,
AFNE01.JPG,AFNE01.JPG,AFNE01.JPG,AFNE01.JPG,AFNE01.JPG,AFNE01.JPG,,,,,,,,,0,4,4,9,,,,,,,,,,,,,,,AFSA10.jpg,AFNE09.jpg,AFSA03.jpg,AFNE19.jpg,AFNE19.jpg,FN,3,num_4,32,num_6,0.716778460657,,,2017_Aug_07_1820,60.004099338,FEMA4ImagesEEG,001,201108,
AFNE01.JPG,AFNE01.JPG,AFNE01.JPG,AFNE01.JPG,AFNE01.JPG,AFNE01.JPG,,,,,,,,,0,5,5,5,,,,,,,,,,,,,,,AFNE13.jpg,AFSA11.jpg,AFSA15.jpg,AFNE17.jpg,AFNE17.jpg,FN,3,num_4,16,num_4,0.766771580791,,,2017_Aug_07_1820,60.004099338,FEMA4ImagesEEG,001,201108,
AFNE01.JPG,AFNE01.JPG,AFNE01.JPG,AFNE01.JPG,AFNE01.JPG,AFNE01.JPG,,,,,,,,,0,6,6,2,,,,,,,,,,,,,,,AFNE01.jpg,AFSA09.jpg,AFNE12.jpg,AFSA17.jpg,AFSA09.jpg,FS,4,num_6,32,num_4,0.550140179461,,,2017_Aug_07_1820,60.004099338,FEMA4ImagesEEG,001,201108,
AFNE01.JPG,AFNE01.JPG,AFNE01.JPG,AFNE01.JPG,AFNE01.JPG,AFNE01.JPG,,,,,,,,,0,7,7,3,,,,,,,,,,,,,,,AFSA18.jpg,AFNE09.jpg,AFNE18.jpg,AFSA12.jpg,AFSA12.jpg,FS,4,num_4,16,num_4,0.417117386824,,,2017_Aug_07_1820,60.004099338,FEMA4ImagesEEG,001,201108,
AFNE01.JPG,AFNE01.JPG,AFNE01.JPG,AFNE01.JPG,AFNE01.JPG,AFNE01.JPG,,,,,,,,,0,8,8,4,,,,,,,,,,,,,,,AFSA11.jpg,AFNE18.jpg,AFSA05.jpg,AFNE17.jpg,AFSA05.jpg,FS,4,num_2,16,num_2,0.98339720862,,,2017_Aug_07_1820,60.004099338,FEMA4ImagesEEG,001,201108,
AFNE01.JPG,AFNE01.JPG,AFNE01.JPG,AFNE01.JPG,AFNE01.JPG,AFNE01.JPG,,,,,,,,,0,9,9,1,,,,,,,,,,,,,,,AFSA06.jpg,AFNE13.jpg,AFSA14.jpg,AFNE11.jpg,AFSA14.jpg,FS,4,num_2,32,num_6,0.550155895762,,,2017_Aug_07_1820,60.004099338,FEMA4ImagesEEG,001,201108,
AFNE01.JPG,AFNE01.JPG,AFNE01.JPG,AFNE01.JPG,AFNE01.JPG,AFNE01.JPG,,,,,,,,,1,0,10,3,,,,,,,,,,,,,,,AFNE18.jpg,AFSA11.jpg,AFNE15.jpg,AFSA06.jpg,AFSA06.jpg,FS,4,num_4,16,num_4,0.666792076081,,,2017_Aug_07_1820,60.004099338,FEMA4ImagesEEG,001,201108,
AFNE01.JPG,AFNE01.JPG,AFNE01.JPG,AFNE01.JPG,AFNE01.JPG,AFNE01.JPG,,,,,,,,,1,1,11,0,,,,,,,,,,,,,,,AFNE06.jpg,AFSA19.jpg,AFSA01.jpg,AFNE08.jpg,AFNE08.jpg,FN,3,num_4,16,num_4,0.466808048775,,,2017_Aug_07_1820,60.004099338,FEMA4ImagesEEG,001,201108,
AFNE01.JPG,AFNE01.JPG,AFNE01.JPG,AFNE01.JPG,AFNE01.JPG,AFNE01.JPG,,,,,,,,,1,2,12,6,,,,,,,,,,,,,,,AFSA07.jpg,AFSA11.jpg,AFNE11.jpg,AFNE10.jpg,AFNE10.jpg,FN,3,num_4,16,num_4,0.466821519891,,,2017_Aug_07_1820,60.004099338,FEMA4ImagesEEG,001,201108,
AFNE01.JPG,AFNE01.JPG,AFNE01.JPG,AFNE01.JPG,AFNE01.JPG,AFNE01.JPG,,,,,,,,,1,3,13,1,,,,,,,,,,,,,,,AFNE11.jpg,AFSA02.jpg,AFSA03.jpg,AFNE18.jpg,AFSA02.jpg,FS,4,num_6,32,num_8,0.816775926854,,,2017_Aug_07_1820,60.004099338,FEMA4ImagesEEG,001,201108,
AFNE01.JPG,AFNE01.JPG,AFNE01.JPG,AFNE01.JPG,AFNE01.JPG,AFNE01.JPG,,,,,,,,,1,4,14,7,,,,,,,,,,,,,,,AFNE01.jpg,AFSA10.jpg,AFNE18.jpg,AFSA05.jpg,AFSA05.jpg,FS,4,num_4,16,num_4,0.516838054173,,,2017_Aug_07_1820,60.004099338,FEMA4ImagesEEG,001,201108,
AFNE01.JPG,AFNE01.JPG,AFNE01.JPG,AFNE01.JPG,AFNE01.JPG,AFNE01.JPG,,,,,,,,,1,5,15,8,,,,,,,,,,,,,,,AFSA03.jpg,AFSA11.jpg,AFNE19.jpg,AFNE14.jpg,AFSA11.jpg,FS,4,num_6,32,num_8,0.783535383642,,,2017_Aug_07_1820,60.004099338,FEMA4ImagesEEG,001,201108,
AFNE01.JPG,AFNE01.JPG,AFNE01.JPG,AFNE01.JPG,AFNE01.JPG,AFNE01.JPG,,,,,,,,,1,6,16,4,,,,,,,,,,,,,,,AFNE09.jpg,AFNE02.jpg,AFSA02.jpg,AFSA12.jpg,AFSA12.jpg,FS,4,num_4,16,num_4,0.383509596111,,,2017_Aug_07_1820,60.004099338,FEMA4ImagesEEG,001,201108,
AFNE01.JPG,AFNE01.JPG,AFNE01.JPG,AFNE01.JPG,AFNE01.JPG,AFNE01.JPG,,,,,,,,,1,7,17,5,,,,,,,,,,,,,,,AFSA04.jpg,AFNE13.jpg,AFSA03.jpg,AFNE20.jpg,AFNE20.jpg,FN,3,num_4,16,num_4,0.366801602067,,,2017_Aug_07_1820,60.004099338,FEMA4ImagesEEG,001,201108,
AFNE01.JPG,AFNE01.JPG,AFNE01.JPG,AFNE01.JPG,AFNE01.JPG,AFNE01.JPG,,,,,,,,,1,8,18,2,,,,,,,,,,,,,,,AFNE05.jpg,AFSA02.jpg,AFSA03.jpg,AFNE01.jpg,AFSA03.jpg,FS,4,num_2,32,num_6,0.650040782057,,,2017_Aug_07_1820,60.004099338,FEMA4ImagesEEG,001,201108,
AFNE01.JPG,AFNE01.JPG,AFNE01.JPG,AFNE01.JPG,AFNE01.JPG,AFNE01.JPG,,,,,,,,,1,9,19,9,,,,,,,,,,,,,,,AFSA10.jpg,AFNE06.jpg,AFNE19.jpg,AFSA08.jpg,AFNE06.jpg,FN,3,num_6,16,num_6,0.600134261884,,,2017_Aug_07_1820,60.004099338,FEMA4ImagesEEG,001,201108,
AFNE01.JPG,AFNE01.JPG,AFNE01.JPG,AFNE01.JPG,AFNE01.JPG,AFNE01.JPG,,,,,,,,,2,0,20,6,,,,,,,,,,,,,,,AFNE08.jpg,AFSA19.jpg,AFNE11.jpg,AFSA02.jpg,AFNE11.jpg,FN,3,num_2,16,num_2,1.23340129829,,,2017_Aug_07_1820,60.004099338,FEMA4ImagesEEG,001,201108,
AFNE01.JPG,AFNE01.JPG,AFNE01.JPG,AFNE01.JPG,AFNE01.JPG,AFNE01.JPG,,,,,,,,,2,1,21,0,,,,,,,,,,,,,,,AFNE09.jpg,AFNE06.jpg,AFSA20.jpg,AFSA08.jpg,AFNE09.jpg,FN,3,num_8,16,num_8,1.16675278544,,,2017_Aug_07_1820,60.004099338,FEMA4ImagesEEG,001,201108,
AFNE01.JPG,AFNE01.JPG,AFNE01.JPG,AFNE01.JPG,AFNE01.JPG,AFNE01.JPG,,,,,,,,,2,2,22,4,,,,,,,,,,,,,,,AFNE17.jpg,AFSA20.jpg,AFSA05.jpg,AFNE06.jpg,AFSA05.jpg,FS,4,num_2,16,num_2,1.84969925787,,,2017_Aug_07_1820,60.004099338,FEMA4ImagesEEG,001,201108,
AFNE01.JPG,AFNE01.JPG,AFNE01.JPG,AFNE01.JPG,AFNE01.JPG,AFNE01.JPG,,,,,,,,,2,3,23,8,,,,,,,,,,,,,,,AFNE10.jpg,AFSA18.jpg,AFSA11.jpg,AFNE16.jpg,AFSA18.jpg,FS,4,num_6,32,num_4,0.6835616522,,,2017_Aug_07_1820,60.004099338,FEMA4ImagesEEG,001,201108,
AFNE01.JPG,AFNE01.JPG,AFNE01.JPG,AFNE01.JPG,AFNE01.JPG,AFNE01.JPG,,,,,,,,,2,4,24,7,,,,,,,,,,,,,,,AFSA07.jpg,AFSA03.jpg,AFNE15.jpg,AFNE11.jpg,AFSA03.jpg,FS,4,num_6,16,num_6,0.866798234405,,,2017_Aug_07_1820,60.004099338,FEMA4ImagesEEG,001,201108,
AFNE01.JPG,AFNE01.JPG,AFNE01.JPG,AFNE01.JPG,AFNE01.JPG,AFNE01.JPG,,,,,,,,,2,5,25,9,,,,,,,,,,,,,,,AFSA14.jpg,AFNE17.jpg,AFNE04.jpg,AFSA20.jpg,AFNE17.jpg,FN,3,num_6,32,num_8,1.2667569872,,,2017_Aug_07_1820,60.004099338,FEMA4ImagesEEG,001,201108,
AFNE01.JPG,AFNE01.JPG,AFNE01.JPG,AFNE01.JPG,AFNE01.JPG,AFNE01.JPG,,,,,,,,,2,6,26,1,,,,,,,,,,,,,,,AFNE09.jpg,AFSA15.jpg,AFSA04.jpg,AFNE07.jpg,AFSA04.jpg,FS,4,num_2,32,num_4,0.600155110005,,,2017_Aug_07_1820,60.004099338,FEMA4ImagesEEG,001,201108,
AFNE01.JPG,AFNE01.JPG,AFNE01.JPG,AFNE01.JPG,AFNE01.JPG,AFNE01.JPG,,,,,,,,,2,7,27,2,,,,,,,,,,,,,,,AFSA05.jpg,AFNE04.jpg,AFNE12.jpg,AFSA13.jpg,AFSA13.jpg,FS,4,num_4,32,num_8,0.700142312329,,,2017_Aug_07_1820,60.004099338,FEMA4ImagesEEG,001,201108,
AFNE01.JPG,AFNE01.JPG,AFNE01.JPG,AFNE01.JPG,AFNE01.JPG,AFNE01.JPG,,,,,,,,,2,8,28,3,,,,,,,,,,,,,,,AFNE15.jpg,AFSA05.jpg,AFNE05.jpg,AFSA17.jpg,AFNE05.jpg,FN,3,num_2,32,num_4,0.766793711809,,,2017_Aug_07_1820,60.004099338,FEMA4ImagesEEG,001,201108,
AFNE01.JPG,AFNE01.JPG,AFNE01.JPG,AFNE01.JPG,AFNE01.JPG,AFNE01.JPG,,,,,,,,,2,9,29,5,,,,,,,,,,,,,,,AFNE05.jpg,AFSA15.jpg,AFNE13.jpg,AFSA13.jpg,AFSA15.jpg,FS,4,num_6,32,num_8,2.54998045089,,,2017_Aug_07_1820,60.004099338,FEMA4ImagesEEG,001,201108,
AFNE01.JPG,AFNE01.JPG,AFNE01.JPG,AFNE01.JPG,AFNE01.JPG,AFNE01.JPG,,,,,,,,,3,0,30,4,,,,,,,,,,,,,,,AFSA10.jpg,AFSA01.jpg,AFNE15.jpg,AFNE07.jpg,AFNE07.jpg,FN,3,num_4,16,num_4,0.650120967068,,,2017_Aug_07_1820,60.004099338,FEMA4ImagesEEG,001,201108,
AFNE01.JPG,AFNE01.JPG,AFNE01.JPG,AFNE01.JPG,AFNE01.JPG,AFNE01.JPG,,,,,,,,,3,1,31,6,,,,,,,,,,,,,,,AFNE07.jpg,AFSA06.jpg,AFNE18.jpg,AFSA12.jpg,AFNE07.jpg,FN,3,num_8,16,num_8,0.800155173987,,,2017_Aug_07_1820,60.004099338,FEMA4ImagesEEG,001,201108,
AFNE01.JPG,AFNE01.JPG,AFNE01.JPG,AFNE01.JPG,AFNE01.JPG,AFNE01.JPG,,,,,,,,,3,2,32,7,,,,,,,,,,,,,,,AFSA17.jpg,AFNE14.jpg,AFNE12.jpg,AFSA08.jpg,AFSA08.jpg,FS,4,num_4,16,num_4,0.650106854504,,,2017_Aug_07_1820,60.004099338,FEMA4ImagesEEG,001,201108,
AFNE01.JPG,AFNE01.JPG,AFNE01.JPG,AFNE01.JPG,AFNE01.JPG,AFNE01.JPG,,,,,,,,,3,3,33,2,,,,,,,,,,,,,,,AFSA09.jpg,AFNE06.jpg,AFSA20.jpg,AFNE11.jpg,AFSA20.jpg,FS,4,num_2,32,num_4,0.550130557269,,,2017_Aug_07_1820,60.004099338,FEMA4ImagesEEG,001,201108,
AFNE01.JPG,AFNE01.JPG,AFNE01.JPG,AFNE01.JPG,AFNE01.JPG,AFNE01.JPG,,,,,,,,,3,4,34,9,,,,,,,,,,,,,,,AFSA15.jpg,AFNE15.jpg,AFSA17.jpg,AFNE16.jpg,AFNE15.jpg,FN,3,num_6,32,num_4,1.03343683598,,,2017_Aug_07_1820,60.004099338,FEMA4ImagesEEG,001,201108,
AFNE01.JPG,AFNE01.JPG,AFNE01.JPG,AFNE01.JPG,AFNE01.JPG,AFNE01.JPG,,,,,,,,,3,5,35,1,,,,,,,,,,,,,,,AFNE18.jpg,AFSA15.jpg,AFNE08.jpg,AFSA01.jpg,AFNE18.jpg,FN,3,num_8,32,num_6,0.583497472107,,,2017_Aug_07_1820,60.004099338,FEMA4ImagesEEG,001,201108,
AFNE01.JPG,AFNE01.JPG,AFNE01.JPG,AFNE01.JPG,AFNE01.JPG,AFNE01.JPG,,,,,,,,,3,6,36,5,,,,,,,,,,,,,,,AFSA20.jpg,AFNE17.jpg,AFNE20.jpg,AFSA12.jpg,AFSA20.jpg,FS,4,num_8,16,num_8,1.01708454289,,,2017_Aug_07_1820,60.004099338,FEMA4ImagesEEG,001,201108,
AFNE01.JPG,AFNE01.JPG,AFNE01.JPG,AFNE01.JPG,AFNE01.JPG,AFNE01.JPG,,,,,,,,,3,7,37,3,,,,,,,,,,,,,,,AFNE12.jpg,AFSA13.jpg,AFNE15.jpg,AFSA12.jpg,AFNE12.jpg,FN,3,num_8,32,num_4,0.516807263019,,,2017_Aug_07_1820,60.004099338,FEMA4ImagesEEG,001,201108,
AFNE01.JPG,AFNE01.JPG,AFNE01.JPG,AFNE01.JPG,AFNE01.JPG,AFNE01.JPG,,,,,,,,,3,8,38,0,,,,,,,,,,,,,,,AFNE04.jpg,AFNE13.jpg,AFSA14.jpg,AFSA02.jpg,AFSA02.jpg,FS,4,num_4,16,num_4,0.783540194854,,,2017_Aug_07_1820,60.004099338,FEMA4ImagesEEG,001,201108,
AFNE01.JPG,AFNE01.JPG,AFNE01.JPG,AFNE01.JPG,AFNE01.JPG,AFNE01.JPG,,,,,,,,,3,9,39,8,,,,,,,,,,,,,,,AFSA01.jpg,AFSA13.jpg,AFNE08.jpg,AFNE19.jpg,AFSA01.jpg,FS,4,num_8,32,num_2,0.850165293319,,,2017_Aug_07_1820,60.004099338,FEMA4ImagesEEG,001,201108,
AFNE01.JPG,AFNE01.JPG,AFNE01.JPG,AFNE01.JPG,AFNE01.JPG,AFNE01.JPG,,,,,,,,,4,0,40,8,,,,,,,,,,,,,,,AFSA20.jpg,AFSA02.jpg,AFNE03.jpg,AFNE18.jpg,AFSA02.jpg,FS,4,num_6,32,num_8,0.650155927753,,,2017_Aug_07_1820,60.004099338,FEMA4ImagesEEG,001,201108,
AFNE01.JPG,AFNE01.JPG,AFNE01.JPG,AFNE01.JPG,AFNE01.JPG,AFNE01.JPG,,,,,,,,,4,1,41,7,,,,,,,,,,,,,,,AFNE04.jpg,AFSA10.jpg,AFSA08.jpg,AFNE05.jpg,AFNE05.jpg,FN,3,num_4,32,num_8,0.866738897283,,,2017_Aug_07_1820,60.004099338,FEMA4ImagesEEG,001,201108,
AFNE01.JPG,AFNE01.JPG,AFNE01.JPG,AFNE01.JPG,AFNE01.JPG,AFNE01.JPG,,,,,,,,,4,2,42,3,,,,,,,,,,,,,,,AFNE06.jpg,AFSA10.jpg,AFNE01.jpg,AFSA17.jpg,AFSA10.jpg,FS,4,num_6,16,num_6,0.533499220153,,,2017_Aug_07_1820,60.004099338,FEMA4ImagesEEG,001,201108,
AFNE01.JPG,AFNE01.JPG,AFNE01.JPG,AFNE01.JPG,AFNE01.JPG,AFNE01.JPG,,,,,,,,,4,3,43,2,,,,,,,,,,,,,,,AFSA01.jpg,AFNE13.jpg,AFNE10.jpg,AFSA05.jpg,AFSA05.jpg,FS,4,num_4,16,num_4,1.26675570407,,,2017_Aug_07_1820,60.004099338,FEMA4ImagesEEG,001,201108,
AFNE01.JPG,AFNE01.JPG,AFNE01.JPG,AFNE01.JPG,AFNE01.JPG,AFNE01.JPG,,,,,,,,,4,4,44,0,,,,,,,,,,,,,,,AFSA19.jpg,AFNE05.jpg,AFSA04.jpg,AFNE14.jpg,AFSA04.jpg,FS,4,num_2,32,num_6,0.666765454458,,,2017_Aug_07_1820,60.004099338,FEMA4ImagesEEG,001,201108,
AFNE01.JPG,AFNE01.JPG,AFNE01.JPG,AFNE01.JPG,AFNE01.JPG,AFNE01.JPG,,,,,,,,,4,5,45,5,,,,,,,,,,,,,,,AFSA15.jpg,AFSA11.jpg,AFNE05.jpg,AFNE01.jpg,AFNE01.jpg,FN,3,num_4,16,num_4,0.700114408042,,,2017_Aug_07_1820,60.004099338,FEMA4ImagesEEG,001,201108,
AFNE01.JPG,AFNE01.JPG,AFNE01.JPG,AFNE01.JPG,AFNE01.JPG,AFNE01.JPG,,,,,,,,,4,6,46,4,,,,,,,,,,,,,,,AFNE07.jpg,AFSA20.jpg,AFSA09.jpg,AFNE14.jpg,AFSA09.jpg,FS,4,num_2,32,num_4,0.583478227491,,,2017_Aug_07_1820,60.004099338,FEMA4ImagesEEG,001,201108,
AFNE01.JPG,AFNE01.JPG,AFNE01.JPG,AFNE01.JPG,AFNE01.JPG,AFNE01.JPG,,,,,,,,,4,7,47,9,,,,,,,,,,,,,,,AFNE02.jpg,AFSA10.jpg,AFNE18.jpg,AFSA19.jpg,AFSA10.jpg,FS,4,num_6,16,num_6,0.53347901348,,,2017_Aug_07_1820,60.004099338,FEMA4ImagesEEG,001,201108,
AFNE01.JPG,AFNE01.JPG,AFNE01.JPG,AFNE01.JPG,AFNE01.JPG,AFNE01.JPG,,,,,,,,,4,8,48,1,,,,,,,,,,,,,,,AFNE06.jpg,AFNE12.jpg,AFSA06.jpg,AFSA01.jpg,AFSA06.jpg,FS,4,num_2,32,num_4,1.10006546322,,,2017_Aug_07_1820,60.004099338,FEMA4ImagesEEG,001,201108,
AFNE01.JPG,AFNE01.JPG,AFNE01.JPG,AFNE01.JPG,AFNE01.JPG,AFNE01.JPG,,,,,,,,,4,9,49,6,,,,,,,,,,,,,,,AFNE16.jpg,AFNE15.jpg,AFSA18.jpg,AFSA04.jpg,AFSA18.jpg,FS,4,num_2,32,num_8,1.36673135986,,,2017_Aug_07_1820,60.004099338,FEMA4ImagesEEG,001,201108,
AFNE01.JPG,AFNE01.JPG,AFNE01.JPG,AFNE01.JPG,AFNE01.JPG,AFNE01.JPG,,,,,,,,,5,0,50,1,,,,,,,,,,,,,,,AFNE04.jpg,AFSA17.jpg,AFNE01.jpg,AFSA08.jpg,AFSA08.jpg,FS,4,num_4,16,num_4,0.450203974731,,,2017_Aug_07_1820,60.004099338,FEMA4ImagesEEG,001,201108,
AFNE01.JPG,AFNE01.JPG,AFNE01.JPG,AFNE01.JPG,AFNE01.JPG,AFNE01.JPG,,,,,,,,,5,1,51,6,,,,,,,,,,,,,,,AFNE01.jpg,AFSA17.jpg,AFNE09.jpg,AFSA10.jpg,AFNE01.jpg,FN,3,num_8,16,num_8,0.966773890192,,,2017_Aug_07_1820,60.004099338,FEMA4ImagesEEG,001,201108,
AFNE01.JPG,AFNE01.JPG,AFNE01.JPG,AFNE01.JPG,AFNE01.JPG,AFNE01.JPG,,,,,,,,,5,2,52,4,,,,,,,,,,,,,,,AFSA09.jpg,AFNE06.jpg,AFNE14.jpg,AFSA14.jpg,AFNE06.jpg,FN,3,num_6,32,num_4,0.633496686118,,,2017_Aug_07_1820,60.004099338,FEMA4ImagesEEG,001,201108,
AFNE01.JPG,AFNE01.JPG,AFNE01.JPG,AFNE01.JPG,AFNE01.JPG,AFNE01.JPG,,,,,,,,,5,3,53,5,,,,,,,,,,,,,,,AFSA15.jpg,AFSA01.jpg,AFNE17.jpg,AFNE04.jpg,AFSA01.jpg,FS,4,num_6,32,num_4,0.583470850717,,,2017_Aug_07_1820,60.004099338,FEMA4ImagesEEG,001,201108,
AFNE01.JPG,AFNE01.JPG,AFNE01.JPG,AFNE01.JPG,AFNE01.JPG,AFNE01.JPG,,,,,,,,,5,4,54,2,,,,,,,,,,,,,,,AFNE18.jpg,AFSA05.jpg,AFNE01.jpg,AFSA01.jpg,AFSA05.jpg,FS,4,num_6,16,num_6,0.550163272768,,,2017_Aug_07_1820,60.004099338,FEMA4ImagesEEG,001,201108,
AFNE01.JPG,AFNE01.JPG,AFNE01.JPG,AFNE01.JPG,AFNE01.JPG,AFNE01.JPG,,,,,,,,,5,5,55,8,,,,,,,,,,,,,,,AFSA20.jpg,AFNE18.jpg,AFNE09.jpg,AFSA15.jpg,AFSA20.jpg,FS,4,num_8,32,num_4,0.583486887626,,,2017_Aug_07_1820,60.004099338,FEMA4ImagesEEG,001,201108,
AFNE01.JPG,AFNE01.JPG,AFNE01.JPG,AFNE01.JPG,AFNE01.JPG,AFNE01.JPG,,,,,,,,,5,6,56,3,,,,,,,,,,,,,,,AFSA09.jpg,AFSA17.jpg,AFNE04.jpg,AFNE02.jpg,AFSA09.jpg,FS,4,num_8,32,num_6,0.666768661933,,,2017_Aug_07_1820,60.004099338,FEMA4ImagesEEG,001,201108,
AFNE01.JPG,AFNE01.JPG,AFNE01.JPG,AFNE01.JPG,AFNE01.JPG,AFNE01.JPG,,,,,,,,,5,7,57,9,,,,,,,,,,,,,,,AFNE03.jpg,AFSA16.jpg,AFNE06.jpg,AFSA17.jpg,AFNE06.jpg,FN,3,num_2,32,num_8,1.01681255526,,,2017_Aug_07_1820,60.004099338,FEMA4ImagesEEG,001,201108,
AFNE01.JPG,AFNE01.JPG,AFNE01.JPG,AFNE01.JPG,AFNE01.JPG,AFNE01.JPG,,,,,,,,,5,8,58,0,,,,,,,,,,,,,,,AFNE06.jpg,AFSA17.jpg,AFSA15.jpg,AFNE15.jpg,AFNE15.jpg,FN,3,num_4,16,num_4,0.866765839513,,,2017_Aug_07_1820,60.004099338,FEMA4ImagesEEG,001,201108,
AFNE01.JPG,AFNE01.JPG,AFNE01.JPG,AFNE01.JPG,AFNE01.JPG,AFNE01.JPG,,,,,,,,,5,9,59,7,,,,,,,,,,,,,,,AFSA19.jpg,AFSA01.jpg,AFNE16.jpg,AFNE11.jpg,AFSA19.jpg,FS,4,num_8,16,num_8,2.21672152914,,,2017_Aug_07_1820,60.004099338,FEMA4ImagesEEG,001,201108,
,,,,,,,,,,,,,,,,,,,,,,,,,,,,,,,,,,,,,,,,,,,space,14.5825185732,2017_Aug_07_1820,60.004099338,FEMA4ImagesEEG,001,201108,
AFNE01.JPG,AFNE01.JPG,AFNE01.JPG,AFNE01.JPG,AFNE01.JPG,AFNE01.JPG,,,,,,,,,,,,,0,0,0,8,,,,,,,,,,,AMNE05.jpg,AMNE08.jpg,AMSA08.jpg,AMSA17.jpg,AMNE08.jpg,MN,1,num_6,16,num_6,0.583471492166,,,2017_Aug_07_1820,60.004099338,FEMA4ImagesEEG,001,201108,
AFNE01.JPG,AFNE01.JPG,AFNE01.JPG,AFNE01.JPG,AFNE01.JPG,AFNE01.JPG,,,,,,,,,,,,,0,1,1,6,,,,,,,,,,,AMNE13.jpg,AMSA12.jpg,AMSA13.jpg,AMNE20.jpg,AMNE20.jpg,MN,1,num_4,32,num_8,0.600166656543,,,2017_Aug_07_1820,60.004099338,FEMA4ImagesEEG,001,201108,
AFNE01.JPG,AFNE01.JPG,AFNE01.JPG,AFNE01.JPG,AFNE01.JPG,AFNE01.JPG,,,,,,,,,,,,,0,2,2,4,,,,,,,,,,,AMNE01.jpg,AMSA07.jpg,AMNE12.jpg,AMSA14.jpg,AMSA07.jpg,MS,2,num_6,16,num_6,0.583495547529,,,2017_Aug_07_1820,60.004099338,FEMA4ImagesEEG,001,201108,
AFNE01.JPG,AFNE01.JPG,AFNE01.JPG,AFNE01.JPG,AFNE01.JPG,AFNE01.JPG,,,,,,,,,,,,,0,3,3,9,,,,,,,,,,,AMSA08.jpg,AMSA06.jpg,AMNE19.jpg,AMNE16.jpg,AMSA06.jpg,MS,2,num_6,16,num_6,0.566799100488,,,2017_Aug_07_1820,60.004099338,FEMA4ImagesEEG,001,201108,
AFNE01.JPG,AFNE01.JPG,AFNE01.JPG,AFNE01.JPG,AFNE01.JPG,AFNE01.JPG,,,,,,,,,,,,,0,4,4,1,,,,,,,,,,,AMSA19.jpg,AMSA01.jpg,AMNE14.jpg,AMNE13.jpg,AMSA01.jpg,MS,2,num_6,16,num_6,0.733468493214,,,2017_Aug_07_1820,60.004099338,FEMA4ImagesEEG,001,201108,
AFNE01.JPG,AFNE01.JPG,AFNE01.JPG,AFNE01.JPG,AFNE01.JPG,AFNE01.JPG,,,,,,,,,,,,,0,5,5,3,,,,,,,,,,,AMSA16.jpg,AMNE07.jpg,AMNE08.jpg,AMSA07.jpg,AMNE08.jpg,MN,1,num_2,32,num_8,0.683521559695,,,2017_Aug_07_1820,60.004099338,FEMA4ImagesEEG,001,201108,
AFNE01.JPG,AFNE01.JPG,AFNE01.JPG,AFNE01.JPG,AFNE01.JPG,AFNE01.JPG,,,,,,,,,,,,,0,6,6,2,,,,,,,,,,,AMSA02.jpg,AMNE19.jpg,AMSA19.jpg,AMNE20.jpg,AMSA19.jpg,MS,2,num_2,32,num_4,1.53339658328,,,2017_Aug_07_1820,60.004099338,FEMA4ImagesEEG,001,201108,
AFNE01.JPG,AFNE01.JPG,AFNE01.JPG,AFNE01.JPG,AFNE01.JPG,AFNE01.JPG,,,,,,,,,,,,,0,7,7,0,,,,,,,,,,,AMNE19.jpg,AMSA05.jpg,AMNE14.jpg,AMSA14.jpg,AMSA05.jpg,MS,2,num_6,16,num_6,0.500131663866,,,2017_Aug_07_1820,60.004099338,FEMA4ImagesEEG,001,201108,
AFNE01.JPG,AFNE01.JPG,AFNE01.JPG,AFNE01.JPG,AFNE01.JPG,AFNE01.JPG,,,,,,,,,,,,,0,8,8,7,,,,,,,,,,,AMSA18.jpg,AMSA06.jpg,AMNE12.jpg,AMNE08.jpg,AMNE12.jpg,MN,1,num_2,32,num_6,0.716807648074,,,2017_Aug_07_1820,60.004099338,FEMA4ImagesEEG,001,201108,
AFNE01.JPG,AFNE01.JPG,AFNE01.JPG,AFNE01.JPG,AFNE01.JPG,AFNE01.JPG,,,,,,,,,,,,,0,9,9,5,,,,,,,,,,,AMSA15.jpg,AMNE04.jpg,AMSA19.jpg,AMNE03.jpg,AMNE03.jpg,MN,1,num_4,32,num_2,1.01677727397,,,2017_Aug_07_1820,60.004099338,FEMA4ImagesEEG,001,201108,
AFNE01.JPG,AFNE01.JPG,AFNE01.JPG,AFNE01.JPG,AFNE01.JPG,AFNE01.JPG,,,,,,,,,,,,,1,0,10,5,,,,,,,,,,,AMSA07.jpg,AMNE10.jpg,AMNE05.jpg,AMSA04.jpg,AMSA04.jpg,MS,2,num_4,16,num_4,0.516741190571,,,2017_Aug_07_1820,60.004099338,FEMA4ImagesEEG,001,201108,
AFNE01.JPG,AFNE01.JPG,AFNE01.JPG,AFNE01.JPG,AFNE01.JPG,AFNE01.JPG,,,,,,,,,,,,,1,1,11,1,,,,,,,,,,,AMSA05.jpg,AMNE16.jpg,AMSA10.jpg,AMNE04.jpg,AMSA10.jpg,MS,2,num_2,16,num_2,0.833483920898,,,2017_Aug_07_1820,60.004099338,FEMA4ImagesEEG,001,201108,
AFNE01.JPG,AFNE01.JPG,AFNE01.JPG,AFNE01.JPG,AFNE01.JPG,AFNE01.JPG,,,,,,,,,,,,,1,2,12,4,,,,,,,,,,,AMSA20.jpg,AMNE04.jpg,AMNE08.jpg,AMSA12.jpg,AMNE04.jpg,MN,1,num_6,16,num_6,0.866770650493,,,2017_Aug_07_1820,60.004099338,FEMA4ImagesEEG,001,201108,
AFNE01.JPG,AFNE01.JPG,AFNE01.JPG,AFNE01.JPG,AFNE01.JPG,AFNE01.JPG,,,,,,,,,,,,,1,3,13,7,,,,,,,,,,,AMNE13.jpg,AMSA10.jpg,AMSA17.jpg,AMNE20.jpg,AMNE13.jpg,MN,1,num_8,16,num_8,1.03346666507,,,2017_Aug_07_1820,60.004099338,FEMA4ImagesEEG,001,201108,
AFNE01.JPG,AFNE01.JPG,AFNE01.JPG,AFNE01.JPG,AFNE01.JPG,AFNE01.JPG,,,,,,,,,,,,,1,4,14,2,,,,,,,,,,,AMSA20.jpg,AMNE20.jpg,AMNE12.jpg,AMSA02.jpg,AMSA20.jpg,MS,2,num_8,32,num_2,1.25036363909,,,2017_Aug_07_1820,60.004099338,FEMA4ImagesEEG,001,201108,
AFNE01.JPG,AFNE01.JPG,AFNE01.JPG,AFNE01.JPG,AFNE01.JPG,AFNE01.JPG,,,,,,,,,,,,,1,5,15,8,,,,,,,,,,,AMSA09.jpg,AMNE12.jpg,AMNE01.jpg,AMSA10.jpg,AMNE01.jpg,MN,1,num_2,16,num_2,0.483504175674,,,2017_Aug_07_1820,60.004099338,FEMA4ImagesEEG,001,201108,
AFNE01.JPG,AFNE01.JPG,AFNE01.JPG,AFNE01.JPG,AFNE01.JPG,AFNE01.JPG,,,,,,,,,,,,,1,6,16,3,,,,,,,,,,,AMNE12.jpg,AMSA20.jpg,AMNE01.jpg,AMSA08.jpg,AMSA08.jpg,MS,2,num_4,32,num_8,2.11669166852,,,2017_Aug_07_1820,60.004099338,FEMA4ImagesEEG,001,201108,
AFNE01.JPG,AFNE01.JPG,AFNE01.JPG,AFNE01.JPG,AFNE01.JPG,AFNE01.JPG,,,,,,,,,,,,,1,7,17,9,,,,,,,,,,,AMNE02.jpg,AMSA18.jpg,AMSA11.jpg,AMNE16.jpg,AMSA18.jpg,MS,2,num_6,16,num_6,0.866759104189,,,2017_Aug_07_1820,60.004099338,FEMA4ImagesEEG,001,201108,
AFNE01.JPG,AFNE01.JPG,AFNE01.JPG,AFNE01.JPG,AFNE01.JPG,AFNE01.JPG,,,,,,,,,,,,,1,8,18,6,,,,,,,,,,,AMSA14.jpg,AMSA07.jpg,AMNE05.jpg,AMNE18.jpg,AMNE05.jpg,MN,1,num_2,32,num_4,0.583468605531,,,2017_Aug_07_1820,60.004099338,FEMA4ImagesEEG,001,201108,
AFNE01.JPG,AFNE01.JPG,AFNE01.JPG,AFNE01.JPG,AFNE01.JPG,AFNE01.JPG,,,,,,,,,,,,,1,9,19,0,,,,,,,,,,,AMSA06.jpg,AMNE15.jpg,AMNE13.jpg,AMSA03.jpg,AMNE15.jpg,MN,1,num_6,16,num_6,0.617123544915,,,2017_Aug_07_1820,60.004099338,FEMA4ImagesEEG,001,201108,
AFNE01.JPG,AFNE01.JPG,AFNE01.JPG,AFNE01.JPG,AFNE01.JPG,AFNE01.JPG,,,,,,,,,,,,,2,0,20,4,,,,,,,,,,,AMSA12.jpg,AMNE17.jpg,AMSA02.jpg,AMNE13.jpg,AMNE17.jpg,MN,1,num_6,16,num_6,0.650127381785,,,2017_Aug_07_1820,60.004099338,FEMA4ImagesEEG,001,201108,
AFNE01.JPG,AFNE01.JPG,AFNE01.JPG,AFNE01.JPG,AFNE01.JPG,AFNE01.JPG,,,,,,,,,,,,,2,1,21,5,,,,,,,,,,,AMSA20.jpg,AMNE13.jpg,AMNE09.jpg,AMSA14.jpg,AMNE13.jpg,MN,1,num_6,16,num_6,0.500181699172,,,2017_Aug_07_1820,60.004099338,FEMA4ImagesEEG,001,201108,
AFNE01.JPG,AFNE01.JPG,AFNE01.JPG,AFNE01.JPG,AFNE01.JPG,AFNE01.JPG,,,,,,,,,,,,,2,2,22,6,,,,,,,,,,,AMNE08.jpg,AMNE06.jpg,AMSA14.jpg,AMSA20.jpg,AMNE06.jpg,MN,1,num_6,16,num_6,1.01675385982,,,2017_Aug_07_1820,60.004099338,FEMA4ImagesEEG,001,201108,
AFNE01.JPG,AFNE01.JPG,AFNE01.JPG,AFNE01.JPG,AFNE01.JPG,AFNE01.JPG,,,,,,,,,,,,,2,3,23,2,,,,,,,,,,,AMSA09.jpg,AMSA04.jpg,AMNE08.jpg,AMNE14.jpg,AMSA04.jpg,MS,2,num_6,16,num_6,0.433495018398,,,2017_Aug_07_1820,60.004099338,FEMA4ImagesEEG,001,201108,
AFNE01.JPG,AFNE01.JPG,AFNE01.JPG,AFNE01.JPG,AFNE01.JPG,AFNE01.JPG,,,,,,,,,,,,,2,4,24,7,,,,,,,,,,,AMSA10.jpg,AMNE10.jpg,AMNE01.jpg,AMSA13.jpg,AMNE10.jpg,MN,1,num_6,16,num_6,0.616791578941,,,2017_Aug_07_1820,60.004099338,FEMA4ImagesEEG,001,201108,
AFNE01.JPG,AFNE01.JPG,AFNE01.JPG,AFNE01.JPG,AFNE01.JPG,AFNE01.JPG,,,,,,,,,,,,,2,5,25,1,,,,,,,,,,,AMNE01.jpg,AMNE18.jpg,AMSA08.jpg,AMSA04.jpg,AMSA04.jpg,MS,2,num_4,16,num_4,0.700136859668,,,2017_Aug_07_1820,60.004099338,FEMA4ImagesEEG,001,201108,
AFNE01.JPG,AFNE01.JPG,AFNE01.JPG,AFNE01.JPG,AFNE01.JPG,AFNE01.JPG,,,,,,,,,,,,,2,6,26,9,,,,,,,,,,,AMNE11.jpg,AMSA20.jpg,AMNE16.jpg,AMSA02.jpg,AMSA20.jpg,MS,2,num_6,16,num_6,1.18345725117,,,2017_Aug_07_1820,60.004099338,FEMA4ImagesEEG,001,201108,
AFNE01.JPG,AFNE01.JPG,AFNE01.JPG,AFNE01.JPG,AFNE01.JPG,AFNE01.JPG,,,,,,,,,,,,,2,7,27,0,,,,,,,,,,,AMNE20.jpg,AMSA12.jpg,AMSA07.jpg,AMNE18.jpg,AMNE18.jpg,MN,1,num_4,32,num_6,0.866765839513,,,2017_Aug_07_1820,60.004099338,FEMA4ImagesEEG,001,201108,
AFNE01.JPG,AFNE01.JPG,AFNE01.JPG,AFNE01.JPG,AFNE01.JPG,AFNE01.JPG,,,,,,,,,,,,,2,8,28,3,,,,,,,,,,,AMNE13.jpg,AMSA08.jpg,AMNE04.jpg,AMSA13.jpg,AMSA08.jpg,MS,2,num_6,16,num_6,0.766857218463,,,2017_Aug_07_1820,60.004099338,FEMA4ImagesEEG,001,201108,
AFNE01.JPG,AFNE01.JPG,AFNE01.JPG,AFNE01.JPG,AFNE01.JPG,AFNE01.JPG,,,,,,,,,,,,,2,9,29,8,,,,,,,,,,,AMNE04.jpg,AMSA15.jpg,AMSA17.jpg,AMNE10.jpg,AMSA17.jpg,MS,2,num_2,32,num_8,2.61662415252,,,2017_Aug_07_1820,60.004099338,FEMA4ImagesEEG,001,201108,
AFNE01.JPG,AFNE01.JPG,AFNE01.JPG,AFNE01.JPG,AFNE01.JPG,AFNE01.JPG,,,,,,,,,,,,,3,0,30,8,,,,,,,,,,,AMSA05.jpg,AMNE07.jpg,AMNE02.jpg,AMSA12.jpg,AMSA12.jpg,MS,2,num_4,16,num_4,0.750188034028,,,2017_Aug_07_1820,60.004099338,FEMA4ImagesEEG,001,201108,
AFNE01.JPG,AFNE01.JPG,AFNE01.JPG,AFNE01.JPG,AFNE01.JPG,AFNE01.JPG,,,,,,,,,,,,,3,1,31,5,,,,,,,,,,,AMNE05.jpg,AMNE19.jpg,AMSA06.jpg,AMSA05.jpg,AMNE19.jpg,MN,1,num_6,16,num_6,0.633465895196,,,2017_Aug_07_1820,60.004099338,FEMA4ImagesEEG,001,201108,
AFNE01.JPG,AFNE01.JPG,AFNE01.JPG,AFNE01.JPG,AFNE01.JPG,AFNE01.JPG,,,,,,,,,,,,,3,2,32,1,,,,,,,,,,,AMNE02.jpg,AMNE15.jpg,AMSA18.jpg,AMSA12.jpg,AMNE15.jpg,MN,1,num_6,32,num_2,1.44994834461,,,2017_Aug_07_1820,60.004099338,FEMA4ImagesEEG,001,201108,
AFNE01.JPG,AFNE01.JPG,AFNE01.JPG,AFNE01.JPG,AFNE01.JPG,AFNE01.JPG,,,,,,,,,,,,,3,3,33,4,,,,,,,,,,,AMNE18.jpg,AMSA08.jpg,AMSA06.jpg,AMNE06.jpg,AMSA06.jpg,MS,2,num_2,16,num_2,0.7338052704,,,2017_Aug_07_1820,60.004099338,FEMA4ImagesEEG,001,201108,
AFNE01.JPG,AFNE01.JPG,AFNE01.JPG,AFNE01.JPG,AFNE01.JPG,AFNE01.JPG,,,,,,,,,,,,,3,4,34,7,,,,,,,,,,,AMSA16.jpg,AMSA04.jpg,AMNE02.jpg,AMNE12.jpg,AMNE12.jpg,MN,1,num_4,32,num_8,0.666792396922,,,2017_Aug_07_1820,60.004099338,FEMA4ImagesEEG,001,201108,
AFNE01.JPG,AFNE01.JPG,AFNE01.JPG,AFNE01.JPG,AFNE01.JPG,AFNE01.JPG,,,,,,,,,,,,,3,5,35,2,,,,,,,,,,,AMSA04.jpg,AMNE12.jpg,AMNE01.jpg,AMSA15.jpg,AMSA04.jpg,MS,2,num_8,32,num_6,0.600135544781,,,2017_Aug_07_1820,60.004099338,FEMA4ImagesEEG,001,201108,
AFNE01.JPG,AFNE01.JPG,AFNE01.JPG,AFNE01.JPG,AFNE01.JPG,AFNE01.JPG,,,,,,,,,,,,,3,6,36,0,,,,,,,,,,,AMNE16.jpg,AMNE18.jpg,AMSA06.jpg,AMSA18.jpg,AMNE18.jpg,MN,1,num_6,16,num_6,1.73340210016,,,2017_Aug_07_1820,60.004099338,FEMA4ImagesEEG,001,201108,
AFNE01.JPG,AFNE01.JPG,AFNE01.JPG,AFNE01.JPG,AFNE01.JPG,AFNE01.JPG,,,,,,,,,,,,,3,7,37,6,,,,,,,,,,,AMSA17.jpg,AMSA01.jpg,AMNE18.jpg,AMNE15.jpg,AMSA17.jpg,MS,2,num_8,16,num_8,0.700139425695,,,2017_Aug_07_1820,60.004099338,FEMA4ImagesEEG,001,201108,
AFNE01.JPG,AFNE01.JPG,AFNE01.JPG,AFNE01.JPG,AFNE01.JPG,AFNE01.JPG,,,,,,,,,,,,,3,8,38,3,,,,,,,,,,,AMSA17.jpg,AMSA03.jpg,AMNE12.jpg,AMNE14.jpg,AMNE14.jpg,MN,1,num_4,16,num_4,0.466782710515,,,2017_Aug_07_1820,60.004099338,FEMA4ImagesEEG,001,201108,
AFNE01.JPG,AFNE01.JPG,AFNE01.JPG,AFNE01.JPG,AFNE01.JPG,AFNE01.JPG,,,,,,,,,,,,,3,9,39,9,,,,,,,,,,,AMNE12.jpg,AMNE15.jpg,AMSA15.jpg,AMSA03.jpg,AMNE15.jpg,MN,1,num_6,16,num_6,0.9001561685,,,2017_Aug_07_1820,60.004099338,FEMA4ImagesEEG,001,201108,
AFNE01.JPG,AFNE01.JPG,AFNE01.JPG,AFNE01.JPG,AFNE01.JPG,AFNE01.JPG,,,,,,,,,,,,,4,0,40,7,,,,,,,,,,,AMSA18.jpg,AMNE12.jpg,AMNE07.jpg,AMSA13.jpg,AMNE07.jpg,MN,1,num_2,32,num_8,0.966750796884,,,2017_Aug_07_1820,60.004099338,FEMA4ImagesEEG,001,201108,
AFNE01.JPG,AFNE01.JPG,AFNE01.JPG,AFNE01.JPG,AFNE01.JPG,AFNE01.JPG,,,,,,,,,,,,,4,1,41,9,,,,,,,,,,,AMSA18.jpg,AMNE09.jpg,AMNE02.jpg,AMSA11.jpg,AMSA11.jpg,MS,2,num_4,16,num_4,1.35012953077,,,2017_Aug_07_1820,60.004099338,FEMA4ImagesEEG,001,201108,
AFNE01.JPG,AFNE01.JPG,AFNE01.JPG,AFNE01.JPG,AFNE01.JPG,AFNE01.JPG,,,,,,,,,,,,,4,2,42,4,,,,,,,,,,,AMNE15.jpg,AMNE12.jpg,AMSA01.jpg,AMSA20.jpg,AMNE12.jpg,MN,1,num_6,32,num_4,0.63348642271,,,2017_Aug_07_1820,60.004099338,FEMA4ImagesEEG,001,201108,
AFNE01.JPG,AFNE01.JPG,AFNE01.JPG,AFNE01.JPG,AFNE01.JPG,AFNE01.JPG,,,,,,,,,,,,,4,3,43,3,,,,,,,,,,,AMSA13.jpg,AMNE16.jpg,AMNE01.jpg,AMSA18.jpg,AMSA13.jpg,MS,2,num_8,48,None,,,,2017_Aug_07_1820,60.004099338,FEMA4ImagesEEG,001,201108,
AFNE01.JPG,AFNE01.JPG,AFNE01.JPG,AFNE01.JPG,AFNE01.JPG,AFNE01.JPG,,,,,,,,,,,,,4,4,44,0,,,,,,,,,,,AMNE02.jpg,AMNE18.jpg,AMSA12.jpg,AMSA17.jpg,AMNE02.jpg,MN,1,num_8,16,num_8,2.56652871636,,,2017_Aug_07_1820,60.004099338,FEMA4ImagesEEG,001,201108,
AFNE01.JPG,AFNE01.JPG,AFNE01.JPG,AFNE01.JPG,AFNE01.JPG,AFNE01.JPG,,,,,,,,,,,,,4,5,45,8,,,,,,,,,,,AMNE10.jpg,AMSA05.jpg,AMNE06.jpg,AMSA16.jpg,AMSA16.jpg,MS,2,num_4,16,num_4,0.566812891979,,,2017_Aug_07_1820,60.004099338,FEMA4ImagesEEG,001,201108,
AFNE01.JPG,AFNE01.JPG,AFNE01.JPG,AFNE01.JPG,AFNE01.JPG,AFNE01.JPG,,,,,,,,,,,,,4,6,46,2,,,,,,,,,,,AMNE17.jpg,AMSA18.jpg,AMNE04.jpg,AMSA01.jpg,AMSA01.jpg,MS,2,num_4,32,num_2,0.966786078177,,,2017_Aug_07_1820,60.004099338,FEMA4ImagesEEG,001,201108,
AFNE01.JPG,AFNE01.JPG,AFNE01.JPG,AFNE01.JPG,AFNE01.JPG,AFNE01.JPG,,,,,,,,,,,,,4,7,47,1,,,,,,,,,,,AMNE02.jpg,AMSA05.jpg,AMNE16.jpg,AMSA13.jpg,AMSA05.jpg,MS,2,num_6,16,num_6,0.933452520287,,,2017_Aug_07_1820,60.004099338,FEMA4ImagesEEG,001,201108,
AFNE01.JPG,AFNE01.JPG,AFNE01.JPG,AFNE01.JPG,AFNE01.JPG,AFNE01.JPG,,,,,,,,,,,,,4,8,48,6,,,,,,,,,,,AMNE03.jpg,AMSA19.jpg,AMSA16.jpg,AMNE02.jpg,AMSA16.jpg,MS,2,num_2,16,num_2,0.916784939589,,,2017_Aug_07_1820,60.004099338,FEMA4ImagesEEG,001,201108,
AFNE01.JPG,AFNE01.JPG,AFNE01.JPG,AFNE01.JPG,AFNE01.JPG,AFNE01.JPG,,,,,,,,,,,,,4,9,49,5,,,,,,,,,,,AMSA17.jpg,AMNE05.jpg,AMSA05.jpg,AMNE04.jpg,AMSA05.jpg,MS,2,num_2,32,num_6,0.71677204594,,,2017_Aug_07_1820,60.004099338,FEMA4ImagesEEG,001,201108,
AFNE01.JPG,AFNE01.JPG,AFNE01.JPG,AFNE01.JPG,AFNE01.JPG,AFNE01.JPG,,,,,,,,,,,,,5,0,50,4,,,,,,,,,,,AMNE10.jpg,AMSA09.jpg,AMSA12.jpg,AMNE02.jpg,AMNE02.jpg,MN,1,num_4,16,num_4,0.750047549838,,,2017_Aug_07_1820,60.004099338,FEMA4ImagesEEG,001,201108,
AFNE01.JPG,AFNE01.JPG,AFNE01.JPG,AFNE01.JPG,AFNE01.JPG,AFNE01.JPG,,,,,,,,,,,,,5,1,51,9,,,,,,,,,,,AMNE15.jpg,AMSA15.jpg,AMNE07.jpg,AMSA16.jpg,AMSA15.jpg,MS,2,num_6,16,num_6,0.567080710083,,,2017_Aug_07_1820,60.004099338,FEMA4ImagesEEG,001,201108,
AFNE01.JPG,AFNE01.JPG,AFNE01.JPG,AFNE01.JPG,AFNE01.JPG,AFNE01.JPG,,,,,,,,,,,,,5,2,52,2,,,,,,,,,,,AMSA19.jpg,AMNE17.jpg,AMSA11.jpg,AMNE14.jpg,AMNE14.jpg,MN,1,num_4,16,num_4,0.516786094289,,,2017_Aug_07_1820,60.004099338,FEMA4ImagesEEG,001,201108,
AFNE01.JPG,AFNE01.JPG,AFNE01.JPG,AFNE01.JPG,AFNE01.JPG,AFNE01.JPG,,,,,,,,,,,,,5,3,53,8,,,,,,,,,,,AMSA06.jpg,AMSA04.jpg,AMNE03.jpg,AMNE17.jpg,AMSA06.jpg,MS,2,num_8,32,num_4,1.00011418364,,,2017_Aug_07_1820,60.004099338,FEMA4ImagesEEG,001,201108,
AFNE01.JPG,AFNE01.JPG,AFNE01.JPG,AFNE01.JPG,AFNE01.JPG,AFNE01.JPG,,,,,,,,,,,,,5,4,54,5,,,,,,,,,,,AMSA15.jpg,AMSA05.jpg,AMNE20.jpg,AMNE09.jpg,AMNE20.jpg,MN,1,num_2,32,num_6,0.633466857485,,,2017_Aug_07_1820,60.004099338,FEMA4ImagesEEG,001,201108,
AFNE01.JPG,AFNE01.JPG,AFNE01.JPG,AFNE01.JPG,AFNE01.JPG,AFNE01.JPG,,,,,,,,,,,,,5,5,55,3,,,,,,,,,,,AMSA07.jpg,AMNE06.jpg,AMNE03.jpg,AMSA19.jpg,AMNE06.jpg,MN,1,num_6,32,num_8,1.40010533109,,,2017_Aug_07_1820,60.004099338,FEMA4ImagesEEG,001,201108,
AFNE01.JPG,AFNE01.JPG,AFNE01.JPG,AFNE01.JPG,AFNE01.JPG,AFNE01.JPG,,,,,,,,,,,,,5,6,56,0,,,,,,,,,,,AMNE18.jpg,AMSA17.jpg,AMNE20.jpg,AMSA15.jpg,AMSA15.jpg,MS,2,num_4,16,num_4,0.766761958599,,,2017_Aug_07_1820,60.004099338,FEMA4ImagesEEG,001,201108,
AFNE01.JPG,AFNE01.JPG,AFNE01.JPG,AFNE01.JPG,AFNE01.JPG,AFNE01.JPG,,,,,,,,,,,,,5,7,57,1,,,,,,,,,,,AMNE20.jpg,AMSA03.jpg,AMSA09.jpg,AMNE03.jpg,AMNE03.jpg,MN,1,num_4,32,num_2,0.966753041837,,,2017_Aug_07_1820,60.004099338,FEMA4ImagesEEG,001,201108,
AFNE01.JPG,AFNE01.JPG,AFNE01.JPG,AFNE01.JPG,AFNE01.JPG,AFNE01.JPG,,,,,,,,,,,,,5,8,58,6,,,,,,,,,,,AMNE01.jpg,AMNE06.jpg,AMSA17.jpg,AMSA07.jpg,AMSA17.jpg,MS,2,num_2,32,num_4,1.58341375878,,,2017_Aug_07_1820,60.004099338,FEMA4ImagesEEG,001,201108,
AFNE01.JPG,AFNE01.JPG,AFNE01.JPG,AFNE01.JPG,AFNE01.JPG,AFNE01.JPG,,,,,,,,,,,,,5,9,59,7,,,,,,,,,,,AMNE05.jpg,AMSA02.jpg,AMNE02.jpg,AMSA16.jpg,AMNE05.jpg,MN,1,num_8,32,num_4,0.650015443563,,,2017_Aug_07_1820,60.004099338,FEMA4ImagesEEG,001,201108,
,,,,,,,,,,,,,,,,,,,,,,,,,,,,,,,,,,,,,,,,,,,space,18.5987589282,2017_Aug_07_1820,60.004099338,FEMA4ImagesEEG,001,201108,
AFNE01.JPG,AFNE01.JPG,AFNE01.JPG,AFNE01.JPG,AFNE01.JPG,AFNE01.JPG,,,,,,,,,,,,,,,,,0,0,0,2,,,,,,,AFNE11.jpg,AFNE07.jpg,AFSA02.jpg,AFSA16.jpg,AFNE07.jpg,FN,3,num_6,32,num_4,0.600136506837,,,2017_Aug_07_1820,60.004099338,FEMA4ImagesEEG,001,201108,
AFNE01.JPG,AFNE01.JPG,AFNE01.JPG,AFNE01.JPG,AFNE01.JPG,AFNE01.JPG,,,,,,,,,,,,,,,,,0,1,1,4,,,,,,,AFNE10.jpg,AFSA05.jpg,AFSA06.jpg,AFNE14.jpg,AFNE10.jpg,FN,3,num_8,16,num_8,0.616761108628,,,2017_Aug_07_1820,60.004099338,FEMA4ImagesEEG,001,201108,
AFNE01.JPG,AFNE01.JPG,AFNE01.JPG,AFNE01.JPG,AFNE01.JPG,AFNE01.JPG,,,,,,,,,,,,,,,,,0,2,2,1,,,,,,,AFNE20.jpg,AFNE14.jpg,AFSA01.jpg,AFSA12.jpg,AFSA12.jpg,FS,4,num_4,16,num_4,0.533522954909,,,2017_Aug_07_1820,60.004099338,FEMA4ImagesEEG,001,201108,
AFNE01.JPG,AFNE01.JPG,AFNE01.JPG,AFNE01.JPG,AFNE01.JPG,AFNE01.JPG,,,,,,,,,,,,,,,,,0,3,3,0,,,,,,,AFNE11.jpg,AFSA09.jpg,AFNE09.jpg,AFSA04.jpg,AFNE09.jpg,FN,3,num_2,32,num_6,0.916785901878,,,2017_Aug_07_1820,60.004099338,FEMA4ImagesEEG,001,201108,
AFNE01.JPG,AFNE01.JPG,AFNE01.JPG,AFNE01.JPG,AFNE01.JPG,AFNE01.JPG,,,,,,,,,,,,,,,,,0,4,4,6,,,,,,,AFSA16.jpg,AFNE01.jpg,AFNE10.jpg,AFSA01.jpg,AFSA01.jpg,FS,4,num_4,16,num_4,0.633484818973,,,2017_Aug_07_1820,60.004099338,FEMA4ImagesEEG,001,201108,
AFNE01.JPG,AFNE01.JPG,AFNE01.JPG,AFNE01.JPG,AFNE01.JPG,AFNE01.JPG,,,,,,,,,,,,,,,,,0,5,5,5,,,,,,,AFNE16.jpg,AFSA11.jpg,AFNE08.jpg,AFSA05.jpg,AFSA05.jpg,FS,4,num_4,16,num_4,0.466842688853,,,2017_Aug_07_1820,60.004099338,FEMA4ImagesEEG,001,201108,
AFNE01.JPG,AFNE01.JPG,AFNE01.JPG,AFNE01.JPG,AFNE01.JPG,AFNE01.JPG,,,,,,,,,,,,,,,,,0,6,6,7,,,,,,,AFNE06.jpg,AFNE01.jpg,AFSA19.jpg,AFSA01.jpg,AFSA01.jpg,FS,4,num_4,16,num_4,0.71679866733,,,2017_Aug_07_1820,60.004099338,FEMA4ImagesEEG,001,201108,
AFNE01.JPG,AFNE01.JPG,AFNE01.JPG,AFNE01.JPG,AFNE01.JPG,AFNE01.JPG,,,,,,,,,,,,,,,,,0,7,7,9,,,,,,,AFNE20.jpg,AFSA02.jpg,AFNE17.jpg,AFSA20.jpg,AFNE17.jpg,FN,3,num_2,16,num_2,1.24979721196,,,2017_Aug_07_1820,60.004099338,FEMA4ImagesEEG,001,201108,
AFNE01.JPG,AFNE01.JPG,AFNE01.JPG,AFNE01.JPG,AFNE01.JPG,AFNE01.JPG,,,,,,,,,,,,,,,,,0,8,8,3,,,,,,,AFNE04.jpg,AFSA10.jpg,AFSA06.jpg,AFNE14.jpg,AFNE04.jpg,FN,3,num_8,16,num_8,0.783432746772,,,2017_Aug_07_1820,60.004099338,FEMA4ImagesEEG,001,201108,
AFNE01.JPG,AFNE01.JPG,AFNE01.JPG,AFNE01.JPG,AFNE01.JPG,AFNE01.JPG,,,,,,,,,,,,,,,,,0,9,9,8,,,,,,,AFSA20.jpg,AFNE12.jpg,AFSA01.jpg,AFNE04.jpg,AFNE04.jpg,FN,3,num_4,16,num_4,0.466821840731,,,2017_Aug_07_1820,60.004099338,FEMA4ImagesEEG,001,201108,
AFNE01.JPG,AFNE01.JPG,AFNE01.JPG,AFNE01.JPG,AFNE01.JPG,AFNE01.JPG,,,,,,,,,,,,,,,,,1,0,10,3,,,,,,,AFSA09.jpg,AFNE05.jpg,AFNE18.jpg,AFSA18.jpg,AFNE18.jpg,FN,3,num_2,16,num_2,1.6666746852,,,2017_Aug_07_1820,60.004099338,FEMA4ImagesEEG,001,201108,
AFNE01.JPG,AFNE01.JPG,AFNE01.JPG,AFNE01.JPG,AFNE01.JPG,AFNE01.JPG,,,,,,,,,,,,,,,,,1,1,11,0,,,,,,,AFNE19.jpg,AFSA07.jpg,AFSA08.jpg,AFNE15.jpg,AFSA08.jpg,FS,4,num_2,32,num_8,0.800163192442,,,2017_Aug_07_1820,60.004099338,FEMA4ImagesEEG,001,201108,
AFNE01.JPG,AFNE01.JPG,AFNE01.JPG,AFNE01.JPG,AFNE01.JPG,AFNE01.JPG,,,,,,,,,,,,,,,,,1,2,12,2,,,,,,,AFSA05.jpg,AFNE14.jpg,AFNE08.jpg,AFSA01.jpg,AFSA05.jpg,FS,4,num_8,32,num_4,0.483534645988,,,2017_Aug_07_1820,60.004099338,FEMA4ImagesEEG,001,201108,
AFNE01.JPG,AFNE01.JPG,AFNE01.JPG,AFNE01.JPG,AFNE01.JPG,AFNE01.JPG,,,,,,,,,,,,,,,,,1,3,13,9,,,,,,,AFNE20.jpg,AFSA15.jpg,AFSA14.jpg,AFNE12.jpg,AFSA14.jpg,FS,4,num_2,32,num_6,0.800141382264,,,2017_Aug_07_1820,60.004099338,FEMA4ImagesEEG,001,201108,
AFNE01.JPG,AFNE01.JPG,AFNE01.JPG,AFNE01.JPG,AFNE01.JPG,AFNE01.JPG,,,,,,,,,,,,,,,,,1,4,14,1,,,,,,,AFSA16.jpg,AFNE16.jpg,AFNE11.jpg,AFSA15.jpg,AFNE11.jpg,FN,3,num_2,32,num_8,0.850136426976,,,2017_Aug_07_1820,60.004099338,FEMA4ImagesEEG,001,201108,
AFNE01.JPG,AFNE01.JPG,AFNE01.JPG,AFNE01.JPG,AFNE01.JPG,AFNE01.JPG,,,,,,,,,,,,,,,,,1,5,15,7,,,,,,,AFNE19.jpg,AFSA12.jpg,AFNE18.jpg,AFSA16.jpg,AFSA16.jpg,FS,4,num_4,16,num_4,1.31682804693,,,2017_Aug_07_1820,60.004099338,FEMA4ImagesEEG,001,201108,
AFNE01.JPG,AFNE01.JPG,AFNE01.JPG,AFNE01.JPG,AFNE01.JPG,AFNE01.JPG,,,,,,,,,,,,,,,,,1,6,16,5,,,,,,,AFSA01.jpg,AFSA12.jpg,AFNE04.jpg,AFNE11.jpg,AFSA12.jpg,FS,4,num_6,16,num_6,0.45582013391,,,2017_Aug_07_1820,60.004099338,FEMA4ImagesEEG,001,201108,
AFNE01.JPG,AFNE01.JPG,AFNE01.JPG,AFNE01.JPG,AFNE01.JPG,AFNE01.JPG,,,,,,,,,,,,,,,,,1,7,17,4,,,,,,,AFNE02.jpg,AFSA10.jpg,AFSA05.jpg,AFNE10.jpg,AFNE02.jpg,FN,3,num_8,32,num_2,1.71671078447,,,2017_Aug_07_1820,60.004099338,FEMA4ImagesEEG,001,201108,
AFNE01.JPG,AFNE01.JPG,AFNE01.JPG,AFNE01.JPG,AFNE01.JPG,AFNE01.JPG,,,,,,,,,,,,,,,,,1,8,18,6,,,,,,,AFNE09.jpg,AFSA16.jpg,AFNE11.jpg,AFSA12.jpg,AFSA16.jpg,FS,4,num_6,32,num_8,1.68311261595,,,2017_Aug_07_1820,60.004099338,FEMA4ImagesEEG,001,201108,
AFNE01.JPG,AFNE01.JPG,AFNE01.JPG,AFNE01.JPG,AFNE01.JPG,AFNE01.JPG,,,,,,,,,,,,,,,,,1,9,19,8,,,,,,,AFNE17.jpg,AFSA17.jpg,AFSA07.jpg,AFNE08.jpg,AFSA07.jpg,FS,4,num_2,32,num_4,0.63344825455,,,2017_Aug_07_1820,60.004099338,FEMA4ImagesEEG,001,201108,
AFNE01.JPG,AFNE01.JPG,AFNE01.JPG,AFNE01.JPG,AFNE01.JPG,AFNE01.JPG,,,,,,,,,,,,,,,,,2,0,20,8,,,,,,,AFSA06.jpg,AFSA17.jpg,AFNE20.jpg,AFNE19.jpg,AFNE19.jpg,FN,3,num_4,16,num_4,0.683468316915,,,2017_Aug_07_1820,60.004099338,FEMA4ImagesEEG,001,201108,
AFNE01.JPG,AFNE01.JPG,AFNE01.JPG,AFNE01.JPG,AFNE01.JPG,AFNE01.JPG,,,,,,,,,,,,,,,,,2,1,21,7,,,,,,,AFNE15.jpg,AFNE18.jpg,AFSA01.jpg,AFSA07.jpg,AFSA07.jpg,FS,4,num_4,16,num_4,0.88346100389,,,2017_Aug_07_1820,60.004099338,FEMA4ImagesEEG,001,201108,
AFNE01.JPG,AFNE01.JPG,AFNE01.JPG,AFNE01.JPG,AFNE01.JPG,AFNE01.JPG,,,,,,,,,,,,,,,,,2,2,22,9,,,,,,,AFSA18.jpg,AFNE02.jpg,AFNE13.jpg,AFSA17.jpg,AFSA17.jpg,FS,4,num_4,32,num_8,0.633502139011,,,2017_Aug_07_1820,60.004099338,FEMA4ImagesEEG,001,201108,
AFNE01.JPG,AFNE01.JPG,AFNE01.JPG,AFNE01.JPG,AFNE01.JPG,AFNE01.JPG,,,,,,,,,,,,,,,,,2,3,23,1,,,,,,,AFSA01.jpg,AFNE10.jpg,AFSA13.jpg,AFNE03.jpg,AFNE10.jpg,FN,3,num_6,16,num_6,0.566770875128,,,2017_Aug_07_1820,60.004099338,FEMA4ImagesEEG,001,201108,
AFNE01.JPG,AFNE01.JPG,AFNE01.JPG,AFNE01.JPG,AFNE01.JPG,AFNE01.JPG,,,,,,,,,,,,,,,,,2,4,24,0,,,,,,,AFSA16.jpg,AFSA08.jpg,AFNE12.jpg,AFNE05.jpg,AFNE12.jpg,FN,3,num_2,16,num_2,1.28345054784,,,2017_Aug_07_1820,60.004099338,FEMA4ImagesEEG,001,201108,
AFNE01.JPG,AFNE01.JPG,AFNE01.JPG,AFNE01.JPG,AFNE01.JPG,AFNE01.JPG,,,,,,,,,,,,,,,,,2,5,25,2,,,,,,,AFNE11.jpg,AFSA08.jpg,AFSA13.jpg,AFNE07.jpg,AFNE07.jpg,FN,3,num_4,16,num_4,0.516795075033,,,2017_Aug_07_1820,60.004099338,FEMA4ImagesEEG,001,201108,
AFNE01.JPG,AFNE01.JPG,AFNE01.JPG,AFNE01.JPG,AFNE01.JPG,AFNE01.JPG,,,,,,,,,,,,,,,,,2,6,26,5,,,,,,,AFNE02.jpg,AFSA12.jpg,AFSA09.jpg,AFNE12.jpg,AFNE02.jpg,FN,3,num_8,16,num_8,0.716785517056,,,2017_Aug_07_1820,60.004099338,FEMA4ImagesEEG,001,201108,
AFNE01.JPG,AFNE01.JPG,AFNE01.JPG,AFNE01.JPG,AFNE01.JPG,AFNE01.JPG,,,,,,,,,,,,,,,,,2,7,27,4,,,,,,,AFNE08.jpg,AFSA10.jpg,AFNE06.jpg,AFSA14.jpg,AFNE06.jpg,FN,3,num_2,32,num_4,1.15014197561,,,2017_Aug_07_1820,60.004099338,FEMA4ImagesEEG,001,201108,
AFNE01.JPG,AFNE01.JPG,AFNE01.JPG,AFNE01.JPG,AFNE01.JPG,AFNE01.JPG,,,,,,,,,,,,,,,,,2,8,28,3,,,,,,,AFSA03.jpg,AFNE06.jpg,AFSA02.jpg,AFNE15.jpg,AFSA03.jpg,FS,4,num_8,16,num_8,0.850114616565,,,2017_Aug_07_1820,60.004099338,FEMA4ImagesEEG,001,201108,
AFNE01.JPG,AFNE01.JPG,AFNE01.JPG,AFNE01.JPG,AFNE01.JPG,AFNE01.JPG,,,,,,,,,,,,,,,,,2,9,29,6,,,,,,,AFNE09.jpg,AFNE12.jpg,AFSA16.jpg,AFSA06.jpg,AFSA16.jpg,FS,4,num_2,32,num_4,0.716783913085,,,2017_Aug_07_1820,60.004099338,FEMA4ImagesEEG,001,201108,
AFNE01.JPG,AFNE01.JPG,AFNE01.JPG,AFNE01.JPG,AFNE01.JPG,AFNE01.JPG,,,,,,,,,,,,,,,,,3,0,30,6,,,,,,,AFSA08.jpg,AFSA11.jpg,AFNE04.jpg,AFNE06.jpg,AFSA11.jpg,FS,4,num_6,32,num_8,3.81652735313,,,2017_Aug_07_1820,60.004099338,FEMA4ImagesEEG,001,201108,
AFNE01.JPG,AFNE01.JPG,AFNE01.JPG,AFNE01.JPG,AFNE01.JPG,AFNE01.JPG,,,,,,,,,,,,,,,,,3,1,31,1,,,,,,,AFSA03.jpg,AFSA10.jpg,AFNE02.jpg,AFNE17.jpg,AFNE02.jpg,FN,3,num_2,32,num_4,0.766777995508,,,2017_Aug_07_1820,60.004099338,FEMA4ImagesEEG,001,201108,
AFNE01.JPG,AFNE01.JPG,AFNE01.JPG,AFNE01.JPG,AFNE01.JPG,AFNE01.JPG,,,,,,,,,,,,,,,,,3,2,32,2,,,,,,,AFNE11.jpg,AFSA12.jpg,AFSA07.jpg,AFNE09.jpg,AFSA12.jpg,FS,4,num_6,16,num_6,0.500191321597,,,2017_Aug_07_1820,60.004099338,FEMA4ImagesEEG,001,201108,
AFNE01.JPG,AFNE01.JPG,AFNE01.JPG,AFNE01.JPG,AFNE01.JPG,AFNE01.JPG,,,,,,,,,,,,,,,,,3,3,33,9,,,,,,,AFSA06.jpg,AFSA17.jpg,AFNE02.jpg,AFNE12.jpg,AFSA17.jpg,FS,4,num_6,32,num_2,1.68340865918,,,2017_Aug_07_1820,60.004099338,FEMA4ImagesEEG,001,201108,
AFNE01.JPG,AFNE01.JPG,AFNE01.JPG,AFNE01.JPG,AFNE01.JPG,AFNE01.JPG,,,,,,,,,,,,,,,,,3,4,34,8,,,,,,,AFNE15.jpg,AFSA13.jpg,AFSA17.jpg,AFNE19.jpg,AFNE15.jpg,FN,3,num_8,16,num_8,1.18346045865,,,2017_Aug_07_1820,60.004099338,FEMA4ImagesEEG,001,201108,
AFNE01.JPG,AFNE01.JPG,AFNE01.JPG,AFNE01.JPG,AFNE01.JPG,AFNE01.JPG,,,,,,,,,,,,,,,,,3,5,35,4,,,,,,,AFNE15.jpg,AFSA19.jpg,AFSA01.jpg,AFNE01.jpg,AFNE15.jpg,FN,3,num_8,16,num_8,0.650116476696,,,2017_Aug_07_1820,60.004099338,FEMA4ImagesEEG,001,201108,
AFNE01.JPG,AFNE01.JPG,AFNE01.JPG,AFNE01.JPG,AFNE01.JPG,AFNE01.JPG,,,,,,,,,,,,,,,,,3,6,36,7,,,,,,,AFNE07.jpg,AFNE04.jpg,AFSA05.jpg,AFSA14.jpg,AFNE04.jpg,FN,3,num_6,32,num_8,0.616815634537,,,2017_Aug_07_1820,60.004099338,FEMA4ImagesEEG,001,201108,
AFNE01.JPG,AFNE01.JPG,AFNE01.JPG,AFNE01.JPG,AFNE01.JPG,AFNE01.JPG,,,,,,,,,,,,,,,,,3,7,37,0,,,,,,,AFNE08.jpg,AFNE05.jpg,AFSA03.jpg,AFSA02.jpg,AFSA03.jpg,FS,4,num_2,16,num_2,1.26686828397,,,2017_Aug_07_1820,60.004099338,FEMA4ImagesEEG,001,201108,
AFNE01.JPG,AFNE01.JPG,AFNE01.JPG,AFNE01.JPG,AFNE01.JPG,AFNE01.JPG,,,,,,,,,,,,,,,,,3,8,38,5,,,,,,,AFNE05.jpg,AFSA10.jpg,AFNE06.jpg,AFSA15.jpg,AFSA15.jpg,FS,4,num_4,16,num_4,0.650129948044,,,2017_Aug_07_1820,60.004099338,FEMA4ImagesEEG,001,201108,
AFNE01.JPG,AFNE01.JPG,AFNE01.JPG,AFNE01.JPG,AFNE01.JPG,AFNE01.JPG,,,,,,,,,,,,,,,,,3,9,39,3,,,,,,,AFNE11.jpg,AFSA03.jpg,AFSA15.jpg,AFNE15.jpg,AFNE11.jpg,FN,3,num_8,32,num_6,1.43341643712,,,2017_Aug_07_1820,60.004099338,FEMA4ImagesEEG,001,201108,
AFNE01.JPG,AFNE01.JPG,AFNE01.JPG,AFNE01.JPG,AFNE01.JPG,AFNE01.JPG,,,,,,,,,,,,,,,,,4,0,40,5,,,,,,,AFSA08.jpg,AFSA02.jpg,AFNE05.jpg,AFNE19.jpg,AFNE19.jpg,FN,3,num_4,32,num_2,1.26650135708,,,2017_Aug_07_1820,60.004099338,FEMA4ImagesEEG,001,201108,
AFNE01.JPG,AFNE01.JPG,AFNE01.JPG,AFNE01.JPG,AFNE01.JPG,AFNE01.JPG,,,,,,,,,,,,,,,,,4,1,41,2,,,,,,,AFSA20.jpg,AFSA13.jpg,AFNE09.jpg,AFNE13.jpg,AFNE13.jpg,FN,3,num_4,16,num_4,0.733455984388,,,2017_Aug_07_1820,60.004099338,FEMA4ImagesEEG,001,201108,
AFNE01.JPG,AFNE01.JPG,AFNE01.JPG,AFNE01.JPG,AFNE01.JPG,AFNE01.JPG,,,,,,,,,,,,,,,,,4,2,42,8,,,,,,,AFNE04.jpg,AFSA13.jpg,AFSA09.jpg,AFNE02.jpg,AFSA09.jpg,FS,4,num_2,32,num_8,0.916783015011,,,2017_Aug_07_1820,60.004099338,FEMA4ImagesEEG,001,201108,
AFNE01.JPG,AFNE01.JPG,AFNE01.JPG,AFNE01.JPG,AFNE01.JPG,AFNE01.JPG,,,,,,,,,,,,,,,,,4,3,43,3,,,,,,,AFNE20.jpg,AFNE04.jpg,AFSA02.jpg,AFSA09.jpg,AFNE20.jpg,FN,3,num_8,16,num_8,0.800114119425,,,2017_Aug_07_1820,60.004099338,FEMA4ImagesEEG,001,201108,
AFNE01.JPG,AFNE01.JPG,AFNE01.JPG,AFNE01.JPG,AFNE01.JPG,AFNE01.JPG,,,,,,,,,,,,,,,,,4,4,44,0,,,,,,,AFSA06.jpg,AFSA11.jpg,AFNE03.jpg,AFNE07.jpg,AFNE07.jpg,FN,3,num_4,16,num_4,0.966740853852,,,2017_Aug_07_1820,60.004099338,FEMA4ImagesEEG,001,201108,
AFNE01.JPG,AFNE01.JPG,AFNE01.JPG,AFNE01.JPG,AFNE01.JPG,AFNE01.JPG,,,,,,,,,,,,,,,,,4,5,45,6,,,,,,,AFSA16.jpg,AFSA02.jpg,AFNE01.jpg,AFNE06.jpg,AFSA02.jpg,FS,4,num_6,16,num_6,0.833337663207,,,2017_Aug_07_1820,60.004099338,FEMA4ImagesEEG,001,201108,
AFNE01.JPG,AFNE01.JPG,AFNE01.JPG,AFNE01.JPG,AFNE01.JPG,AFNE01.JPG,,,,,,,,,,,,,,,,,4,6,46,1,,,,,,,AFSA07.jpg,AFSA20.jpg,AFNE09.jpg,AFNE17.jpg,AFNE17.jpg,FN,3,num_4,32,num_6,0.816856432473,,,2017_Aug_07_1820,60.004099338,FEMA4ImagesEEG,001,201108,
AFNE01.JPG,AFNE01.JPG,AFNE01.JPG,AFNE01.JPG,AFNE01.JPG,AFNE01.JPG,,,,,,,,,,,,,,,,,4,7,47,4,,,,,,,AFNE11.jpg,AFSA07.jpg,AFSA19.jpg,AFNE01.jpg,AFSA19.jpg,FS,4,num_2,16,num_2,0.566823476693,,,2017_Aug_07_1820,60.004099338,FEMA4ImagesEEG,001,201108,
AFNE01.JPG,AFNE01.JPG,AFNE01.JPG,AFNE01.JPG,AFNE01.JPG,AFNE01.JPG,,,,,,,,,,,,,,,,,4,8,48,7,,,,,,,AFSA16.jpg,AFNE19.jpg,AFNE07.jpg,AFSA03.jpg,AFNE19.jpg,FN,3,num_6,16,num_6,0.4501998052,,,2017_Aug_07_1820,60.004099338,FEMA4ImagesEEG,001,201108,
AFNE01.JPG,AFNE01.JPG,AFNE01.JPG,AFNE01.JPG,AFNE01.JPG,AFNE01.JPG,,,,,,,,,,,,,,,,,4,9,49,9,,,,,,,AFNE13.jpg,AFSA08.jpg,AFSA19.jpg,AFNE02.jpg,AFNE13.jpg,FN,3,num_8,16,num_8,0.933436803985,,,2017_Aug_07_1820,60.004099338,FEMA4ImagesEEG,001,201108,
AFNE01.JPG,AFNE01.JPG,AFNE01.JPG,AFNE01.JPG,AFNE01.JPG,AFNE01.JPG,,,,,,,,,,,,,,,,,5,0,50,3,,,,,,,AFSA11.jpg,AFNE06.jpg,AFSA01.jpg,AFNE03.jpg,AFSA01.jpg,FS,4,num_2,32,num_8,1.01669356064,,,2017_Aug_07_1820,60.004099338,FEMA4ImagesEEG,001,201108,
AFNE01.JPG,AFNE01.JPG,AFNE01.JPG,AFNE01.JPG,AFNE01.JPG,AFNE01.JPG,,,,,,,,,,,,,,,,,5,1,51,5,,,,,,,AFSA07.jpg,AFNE17.jpg,AFSA08.jpg,AFNE11.jpg,AFNE17.jpg,FN,3,num_6,16,num_6,0.816979276016,,,2017_Aug_07_1820,60.004099338,FEMA4ImagesEEG,001,201108,
AFNE01.JPG,AFNE01.JPG,AFNE01.JPG,AFNE01.JPG,AFNE01.JPG,AFNE01.JPG,,,,,,,,,,,,,,,,,5,2,52,8,,,,,,,AFNE17.jpg,AFSA19.jpg,AFSA14.jpg,AFNE09.jpg,AFNE17.jpg,FN,3,num_8,32,num_6,0.766789221438,,,2017_Aug_07_1820,60.004099338,FEMA4ImagesEEG,001,201108,
AFNE01.JPG,AFNE01.JPG,AFNE01.JPG,AFNE01.JPG,AFNE01.JPG,AFNE01.JPG,,,,,,,,,,,,,,,,,5,3,53,7,,,,,,,AFSA03.jpg,AFNE10.jpg,AFNE06.jpg,AFSA13.jpg,AFSA13.jpg,FS,4,num_4,32,num_8,0.633478404023,,,2017_Aug_07_1820,60.004099338,FEMA4ImagesEEG,001,201108,
AFNE01.JPG,AFNE01.JPG,AFNE01.JPG,AFNE01.JPG,AFNE01.JPG,AFNE01.JPG,,,,,,,,,,,,,,,,,5,4,54,9,,,,,,,AFSA17.jpg,AFSA04.jpg,AFNE12.jpg,AFNE05.jpg,AFSA04.jpg,FS,4,num_6,16,num_6,0.733470096951,,,2017_Aug_07_1820,60.004099338,FEMA4ImagesEEG,001,201108,
AFNE01.JPG,AFNE01.JPG,AFNE01.JPG,AFNE01.JPG,AFNE01.JPG,AFNE01.JPG,,,,,,,,,,,,,,,,,5,5,55,2,,,,,,,AFSA15.jpg,AFNE10.jpg,AFSA03.jpg,AFNE12.jpg,AFSA03.jpg,FS,4,num_2,16,num_2,0.767061529681,,,2017_Aug_07_1820,60.004099338,FEMA4ImagesEEG,001,201108,
AFNE01.JPG,AFNE01.JPG,AFNE01.JPG,AFNE01.JPG,AFNE01.JPG,AFNE01.JPG,,,,,,,,,,,,,,,,,5,6,56,4,,,,,,,AFNE20.jpg,AFSA13.jpg,AFSA15.jpg,AFNE09.jpg,AFNE09.jpg,FN,3,num_4,16,num_4,0.883479606826,,,2017_Aug_07_1820,60.004099338,FEMA4ImagesEEG,001,201108,
AFNE01.JPG,AFNE01.JPG,AFNE01.JPG,AFNE01.JPG,AFNE01.JPG,AFNE01.JPG,,,,,,,,,,,,,,,,,5,7,57,0,,,,,,,AFNE04.jpg,AFSA18.jpg,AFSA02.jpg,AFNE11.jpg,AFSA02.jpg,FS,4,num_2,32,num_8,0.816757965367,,,2017_Aug_07_1820,60.004099338,FEMA4ImagesEEG,001,201108,
AFNE01.JPG,AFNE01.JPG,AFNE01.JPG,AFNE01.JPG,AFNE01.JPG,AFNE01.JPG,,,,,,,,,,,,,,,,,5,8,58,1,,,,,,,AFNE12.jpg,AFSA10.jpg,AFSA15.jpg,AFNE18.jpg,AFNE12.jpg,FN,3,num_8,32,num_4,0.600166335702,,,2017_Aug_07_1820,60.004099338,FEMA4ImagesEEG,001,201108,
AFNE01.JPG,AFNE01.JPG,AFNE01.JPG,AFNE01.JPG,AFNE01.JPG,AFNE01.JPG,,,,,,,,,,,,,,,,,5,9,59,6,,,,,,,AFSA17.jpg,AFSA16.jpg,AFNE05.jpg,AFNE14.jpg,AFNE05.jpg,FN,3,num_2,32,num_8,0.849997867132,,,2017_Aug_07_1820,60.004099338,FEMA4ImagesEEG,001,201108,
,,,,,,,,,,,,,,,,,,,,,,,,,,,,,,,,,,,,,,,,,,,space,12.8825539509,2017_Aug_07_1820,60.004099338,FEMA4ImagesEEG,001,201108,
AFNE01.JPG,AFNE01.JPG,AFNE01.JPG,AFNE01.JPG,AFNE01.JPG,AFNE01.JPG,,,,,,,,,,,,,,,,,,,,,0,0,0,9,,,AMSA18.jpg,AMSA19.jpg,AMNE02.jpg,AMNE01.jpg,AMNE02.jpg,MN,1,num_2,32,num_4,0.866798875853,,,2017_Aug_07_1820,60.004099338,FEMA4ImagesEEG,001,201108,
AFNE01.JPG,AFNE01.JPG,AFNE01.JPG,AFNE01.JPG,AFNE01.JPG,AFNE01.JPG,,,,,,,,,,,,,,,,,,,,,0,1,1,1,,,AMSA19.jpg,AMNE11.jpg,AMNE13.jpg,AMSA06.jpg,AMNE13.jpg,MN,1,num_2,32,num_4,0.566826683935,,,2017_Aug_07_1820,60.004099338,FEMA4ImagesEEG,001,201108,
AFNE01.JPG,AFNE01.JPG,AFNE01.JPG,AFNE01.JPG,AFNE01.JPG,AFNE01.JPG,,,,,,,,,,,,,,,,,,,,,0,2,2,4,,,AMNE03.jpg,AMSA13.jpg,AMNE18.jpg,AMSA19.jpg,AMSA19.jpg,MS,2,num_4,16,num_4,0.533491201699,,,2017_Aug_07_1820,60.004099338,FEMA4ImagesEEG,001,201108,
AFNE01.JPG,AFNE01.JPG,AFNE01.JPG,AFNE01.JPG,AFNE01.JPG,AFNE01.JPG,,,,,,,,,,,,,,,,,,,,,0,3,3,5,,,AMNE12.jpg,AMNE05.jpg,AMSA02.jpg,AMSA20.jpg,AMSA02.jpg,MS,2,num_2,32,num_8,0.734102275688,,,2017_Aug_07_1820,60.004099338,FEMA4ImagesEEG,001,201108,
AFNE01.JPG,AFNE01.JPG,AFNE01.JPG,AFNE01.JPG,AFNE01.JPG,AFNE01.JPG,,,,,,,,,,,,,,,,,,,,,0,4,4,2,,,AMSA20.jpg,AMNE19.jpg,AMSA14.jpg,AMNE08.jpg,AMSA14.jpg,MS,2,num_2,16,num_2,1.23342920258,,,2017_Aug_07_1820,60.004099338,FEMA4ImagesEEG,001,201108,
AFNE01.JPG,AFNE01.JPG,AFNE01.JPG,AFNE01.JPG,AFNE01.JPG,AFNE01.JPG,,,,,,,,,,,,,,,,,,,,,0,5,5,8,,,AMSA19.jpg,AMSA03.jpg,AMNE14.jpg,AMNE17.jpg,AMSA19.jpg,MS,2,num_8,32,num_4,0.516775509808,,,2017_Aug_07_1820,60.004099338,FEMA4ImagesEEG,001,201108,
AFNE01.JPG,AFNE01.JPG,AFNE01.JPG,AFNE01.JPG,AFNE01.JPG,AFNE01.JPG,,,,,,,,,,,,,,,,,,,,,0,6,6,6,,,AMNE10.jpg,AMSA18.jpg,AMSA02.jpg,AMNE17.jpg,AMNE10.jpg,MN,1,num_8,16,num_8,0.683472807286,,,2017_Aug_07_1820,60.004099338,FEMA4ImagesEEG,001,201108,
AFNE01.JPG,AFNE01.JPG,AFNE01.JPG,AFNE01.JPG,AFNE01.JPG,AFNE01.JPG,,,,,,,,,,,,,,,,,,,,,0,7,7,7,,,AMNE19.jpg,AMSA18.jpg,AMNE20.jpg,AMSA03.jpg,AMNE19.jpg,MN,1,num_8,16,num_8,0.600137789967,,,2017_Aug_07_1820,60.004099338,FEMA4ImagesEEG,001,201108,
AFNE01.JPG,AFNE01.JPG,AFNE01.JPG,AFNE01.JPG,AFNE01.JPG,AFNE01.JPG,,,,,,,,,,,,,,,,,,,,,0,8,8,3,,,AMNE10.jpg,AMNE16.jpg,AMSA13.jpg,AMSA04.jpg,AMNE10.jpg,MN,1,num_8,16,num_8,1.01675225608,,,2017_Aug_07_1820,60.004099338,FEMA4ImagesEEG,001,201108,
AFNE01.JPG,AFNE01.JPG,AFNE01.JPG,AFNE01.JPG,AFNE01.JPG,AFNE01.JPG,,,,,,,,,,,,,,,,,,,,,0,9,9,0,,,AMNE19.jpg,AMSA16.jpg,AMSA10.jpg,AMNE02.jpg,AMSA16.jpg,MS,2,num_6,16,num_6,0.43349437695,,,2017_Aug_07_1820,60.004099338,FEMA4ImagesEEG,001,201108,
AFNE01.JPG,AFNE01.JPG,AFNE01.JPG,AFNE01.JPG,AFNE01.JPG,AFNE01.JPG,,,,,,,,,,,,,,,,,,,,,1,0,10,9,,,AMSA20.jpg,AMNE13.jpg,AMSA02.jpg,AMNE19.jpg,AMSA02.jpg,MS,2,num_2,32,num_8,0.766770297894,,,2017_Aug_07_1820,60.004099338,FEMA4ImagesEEG,001,201108,
AFNE01.JPG,AFNE01.JPG,AFNE01.JPG,AFNE01.JPG,AFNE01.JPG,AFNE01.JPG,,,,,,,,,,,,,,,,,,,,,1,1,11,2,,,AMNE15.jpg,AMNE19.jpg,AMSA07.jpg,AMSA19.jpg,AMSA07.jpg,MS,2,num_2,16,num_2,0.450147845317,,,2017_Aug_07_1820,60.004099338,FEMA4ImagesEEG,001,201108,
AFNE01.JPG,AFNE01.JPG,AFNE01.JPG,AFNE01.JPG,AFNE01.JPG,AFNE01.JPG,,,,,,,,,,,,,,,,,,,,,1,2,12,6,,,AMNE08.jpg,AMNE20.jpg,AMSA17.jpg,AMSA15.jpg,AMNE20.jpg,MN,1,num_6,16,num_6,0.649797019549,,,2017_Aug_07_1820,60.004099338,FEMA4ImagesEEG,001,201108,
AFNE01.JPG,AFNE01.JPG,AFNE01.JPG,AFNE01.JPG,AFNE01.JPG,AFNE01.JPG,,,,,,,,,,,,,,,,,,,,,1,3,13,1,,,AMNE05.jpg,AMSA06.jpg,AMSA20.jpg,AMNE08.jpg,AMNE08.jpg,MN,1,num_4,16,num_4,0.850121031282,,,2017_Aug_07_1820,60.004099338,FEMA4ImagesEEG,001,201108,
AFNE01.JPG,AFNE01.JPG,AFNE01.JPG,AFNE01.JPG,AFNE01.JPG,AFNE01.JPG,,,,,,,,,,,,,,,,,,,,,1,4,14,3,,,AMNE05.jpg,AMSA18.jpg,AMSA16.jpg,AMNE02.jpg,AMNE05.jpg,MN,1,num_8,32,num_4,0.500138399191,,,2017_Aug_07_1820,60.004099338,FEMA4ImagesEEG,001,201108,
AFNE01.JPG,AFNE01.JPG,AFNE01.JPG,AFNE01.JPG,AFNE01.JPG,AFNE01.JPG,,,,,,,,,,,,,,,,,,,,,1,5,15,5,,,AMSA05.jpg,AMNE04.jpg,AMNE09.jpg,AMSA07.jpg,AMSA05.jpg,MS,2,num_8,16,num_8,0.816754116444,,,2017_Aug_07_1820,60.004099338,FEMA4ImagesEEG,001,201108,
AFNE01.JPG,AFNE01.JPG,AFNE01.JPG,AFNE01.JPG,AFNE01.JPG,AFNE01.JPG,,,,,,,,,,,,,,,,,,,,,1,6,16,8,,,AMNE05.jpg,AMSA20.jpg,AMNE03.jpg,AMSA07.jpg,AMNE03.jpg,MN,1,num_2,32,num_4,0.566689727828,,,2017_Aug_07_1820,60.004099338,FEMA4ImagesEEG,001,201108,
AFNE01.JPG,AFNE01.JPG,AFNE01.JPG,AFNE01.JPG,AFNE01.JPG,AFNE01.JPG,,,,,,,,,,,,,,,,,,,,,1,7,17,0,,,AMNE19.jpg,AMSA18.jpg,AMSA20.jpg,AMNE20.jpg,AMNE19.jpg,MN,1,num_8,16,num_8,0.766735657817,,,2017_Aug_07_1820,60.004099338,FEMA4ImagesEEG,001,201108,
AFNE01.JPG,AFNE01.JPG,AFNE01.JPG,AFNE01.JPG,AFNE01.JPG,AFNE01.JPG,,,,,,,,,,,,,,,,,,,,,1,8,18,7,,,AMSA09.jpg,AMNE17.jpg,AMSA06.jpg,AMNE10.jpg,AMSA06.jpg,MS,2,num_2,32,num_6,0.666757756844,,,2017_Aug_07_1820,60.004099338,FEMA4ImagesEEG,001,201108,
AFNE01.JPG,AFNE01.JPG,AFNE01.JPG,AFNE01.JPG,AFNE01.JPG,AFNE01.JPG,,,,,,,,,,,,,,,,,,,,,1,9,19,4,,,AMNE20.jpg,AMNE02.jpg,AMSA18.jpg,AMSA12.jpg,AMNE02.jpg,MN,1,num_6,32,num_2,0.850131936371,,,2017_Aug_07_1820,60.004099338,FEMA4ImagesEEG,001,201108,
AFNE01.JPG,AFNE01.JPG,AFNE01.JPG,AFNE01.JPG,AFNE01.JPG,AFNE01.JPG,,,,,,,,,,,,,,,,,,,,,2,0,20,9,,,AMSA15.jpg,AMNE19.jpg,AMSA13.jpg,AMNE12.jpg,AMNE12.jpg,MN,1,num_4,32,num_6,0.600135865388,,,2017_Aug_07_1820,60.004099338,FEMA4ImagesEEG,001,201108,
AFNE01.JPG,AFNE01.JPG,AFNE01.JPG,AFNE01.JPG,AFNE01.JPG,AFNE01.JPG,,,,,,,,,,,,,,,,,,,,,2,1,21,7,,,AMSA01.jpg,AMNE15.jpg,AMSA09.jpg,AMNE19.jpg,AMNE15.jpg,MN,1,num_6,16,num_6,0.766811993904,,,2017_Aug_07_1820,60.004099338,FEMA4ImagesEEG,001,201108,
AFNE01.JPG,AFNE01.JPG,AFNE01.JPG,AFNE01.JPG,AFNE01.JPG,AFNE01.JPG,,,,,,,,,,,,,,,,,,,,,2,2,22,2,,,AMNE09.jpg,AMSA04.jpg,AMNE08.jpg,AMSA15.jpg,AMNE08.jpg,MN,1,num_2,32,num_6,0.8001599852,,,2017_Aug_07_1820,60.004099338,FEMA4ImagesEEG,001,201108,
AFNE01.JPG,AFNE01.JPG,AFNE01.JPG,AFNE01.JPG,AFNE01.JPG,AFNE01.JPG,,,,,,,,,,,,,,,,,,,,,2,3,23,0,,,AMSA13.jpg,AMNE05.jpg,AMSA08.jpg,AMNE12.jpg,AMSA13.jpg,MS,2,num_8,32,num_6,0.700142312329,,,2017_Aug_07_1820,60.004099338,FEMA4ImagesEEG,001,201108,
AFNE01.JPG,AFNE01.JPG,AFNE01.JPG,AFNE01.JPG,AFNE01.JPG,AFNE01.JPG,,,,,,,,,,,,,,,,,,,,,2,4,24,1,,,AMSA03.jpg,AMNE16.jpg,AMNE08.jpg,AMSA05.jpg,AMSA05.jpg,MS,2,num_4,16,num_4,0.883445287822,,,2017_Aug_07_1820,60.004099338,FEMA4ImagesEEG,001,201108,
AFNE01.JPG,AFNE01.JPG,AFNE01.JPG,AFNE01.JPG,AFNE01.JPG,AFNE01.JPG,,,,,,,,,,,,,,,,,,,,,2,5,25,4,,,AMSA09.jpg,AMNE15.jpg,AMNE17.jpg,AMSA19.jpg,AMSA09.jpg,MS,2,num_8,32,num_2,1.0834453518,,,2017_Aug_07_1820,60.004099338,FEMA4ImagesEEG,001,201108,
AFNE01.JPG,AFNE01.JPG,AFNE01.JPG,AFNE01.JPG,AFNE01.JPG,AFNE01.JPG,,,,,,,,,,,,,,,,,,,,,2,6,26,3,,,AMSA01.jpg,AMNE02.jpg,AMSA12.jpg,AMNE19.jpg,AMNE19.jpg,MN,1,num_4,16,num_4,0.666791434633,,,2017_Aug_07_1820,60.004099338,FEMA4ImagesEEG,001,201108,
AFNE01.JPG,AFNE01.JPG,AFNE01.JPG,AFNE01.JPG,AFNE01.JPG,AFNE01.JPG,,,,,,,,,,,,,,,,,,,,,2,7,27,8,,,AMSA14.jpg,AMNE08.jpg,AMNE15.jpg,AMSA12.jpg,AMNE15.jpg,MN,1,num_2,16,num_2,0.950362901203,,,2017_Aug_07_1820,60.004099338,FEMA4ImagesEEG,001,201108,
AFNE01.JPG,AFNE01.JPG,AFNE01.JPG,AFNE01.JPG,AFNE01.JPG,AFNE01.JPG,,,,,,,,,,,,,,,,,,,,,2,8,28,6,,,AMNE15.jpg,AMNE20.jpg,AMSA13.jpg,AMSA18.jpg,AMSA13.jpg,MS,2,num_2,32,num_4,0.566655408591,,,2017_Aug_07_1820,60.004099338,FEMA4ImagesEEG,001,201108,
AFNE01.JPG,AFNE01.JPG,AFNE01.JPG,AFNE01.JPG,AFNE01.JPG,AFNE01.JPG,,,,,,,,,,,,,,,,,,,,,2,9,29,5,,,AMSA06.jpg,AMNE19.jpg,AMSA14.jpg,AMNE10.jpg,AMNE10.jpg,MN,1,num_4,16,num_4,0.600164090749,,,2017_Aug_07_1820,60.004099338,FEMA4ImagesEEG,001,201108,
AFNE01.JPG,AFNE01.JPG,AFNE01.JPG,AFNE01.JPG,AFNE01.JPG,AFNE01.JPG,,,,,,,,,,,,,,,,,,,,,3,0,30,7,,,AMSA19.jpg,AMNE07.jpg,AMNE18.jpg,AMSA11.jpg,AMNE07.jpg,MN,1,num_6,16,num_6,0.383564442629,,,2017_Aug_07_1820,60.004099338,FEMA4ImagesEEG,001,201108,
AFNE01.JPG,AFNE01.JPG,AFNE01.JPG,AFNE01.JPG,AFNE01.JPG,AFNE01.JPG,,,,,,,,,,,,,,,,,,,,,3,1,31,5,,,AMSA08.jpg,AMNE06.jpg,AMSA17.jpg,AMNE13.jpg,AMSA08.jpg,MS,2,num_8,32,num_4,0.83345152624,,,2017_Aug_07_1820,60.004099338,FEMA4ImagesEEG,001,201108,
AFNE01.JPG,AFNE01.JPG,AFNE01.JPG,AFNE01.JPG,AFNE01.JPG,AFNE01.JPG,,,,,,,,,,,,,,,,,,,,,3,2,32,4,,,AMSA01.jpg,AMNE08.jpg,AMSA03.jpg,AMNE01.jpg,AMSA01.jpg,MS,2,num_8,32,num_4,0.833481354872,,,2017_Aug_07_1820,60.004099338,FEMA4ImagesEEG,001,201108,
AFNE01.JPG,AFNE01.JPG,AFNE01.JPG,AFNE01.JPG,AFNE01.JPG,AFNE01.JPG,,,,,,,,,,,,,,,,,,,,,3,3,33,0,,,AMNE13.jpg,AMSA14.jpg,AMSA04.jpg,AMNE20.jpg,AMNE13.jpg,MN,1,num_8,32,num_4,0.683507767739,,,2017_Aug_07_1820,60.004099338,FEMA4ImagesEEG,001,201108,
AFNE01.JPG,AFNE01.JPG,AFNE01.JPG,AFNE01.JPG,AFNE01.JPG,AFNE01.JPG,,,,,,,,,,,,,,,,,,,,,3,4,34,8,,,AMSA04.jpg,AMNE17.jpg,AMNE02.jpg,AMSA18.jpg,AMSA04.jpg,MS,2,num_8,32,num_4,0.700152576203,,,2017_Aug_07_1820,60.004099338,FEMA4ImagesEEG,001,201108,
AFNE01.JPG,AFNE01.JPG,AFNE01.JPG,AFNE01.JPG,AFNE01.JPG,AFNE01.JPG,,,,,,,,,,,,,,,,,,,,,3,5,35,6,,,AMSA20.jpg,AMNE04.jpg,AMSA05.jpg,AMNE14.jpg,AMSA05.jpg,MS,2,num_2,16,num_2,0.950103101786,,,2017_Aug_07_1820,60.004099338,FEMA4ImagesEEG,001,201108,
AFNE01.JPG,AFNE01.JPG,AFNE01.JPG,AFNE01.JPG,AFNE01.JPG,AFNE01.JPG,,,,,,,,,,,,,,,,,,,,,3,6,36,1,,,AMSA17.jpg,AMNE07.jpg,AMSA19.jpg,AMNE11.jpg,AMSA19.jpg,MS,2,num_2,32,num_8,0.68350840942,,,2017_Aug_07_1820,60.004099338,FEMA4ImagesEEG,001,201108,
AFNE01.JPG,AFNE01.JPG,AFNE01.JPG,AFNE01.JPG,AFNE01.JPG,AFNE01.JPG,,,,,,,,,,,,,,,,,,,,,3,7,37,9,,,AMSA06.jpg,AMNE10.jpg,AMSA20.jpg,AMNE01.jpg,AMSA20.jpg,MS,2,num_2,32,num_4,0.600148695055,,,2017_Aug_07_1820,60.004099338,FEMA4ImagesEEG,001,201108,
AFNE01.JPG,AFNE01.JPG,AFNE01.JPG,AFNE01.JPG,AFNE01.JPG,AFNE01.JPG,,,,,,,,,,,,,,,,,,,,,3,8,38,2,,,AMNE12.jpg,AMSA15.jpg,AMSA16.jpg,AMNE11.jpg,AMNE11.jpg,MN,1,num_4,32,num_8,0.816792605445,,,2017_Aug_07_1820,60.004099338,FEMA4ImagesEEG,001,201108,
AFNE01.JPG,AFNE01.JPG,AFNE01.JPG,AFNE01.JPG,AFNE01.JPG,AFNE01.JPG,,,,,,,,,,,,,,,,,,,,,3,9,39,3,,,AMSA12.jpg,AMSA18.jpg,AMNE07.jpg,AMNE14.jpg,AMNE14.jpg,MN,1,num_4,32,num_8,0.833847640082,,,2017_Aug_07_1820,60.004099338,FEMA4ImagesEEG,001,201108,
AFNE01.JPG,AFNE01.JPG,AFNE01.JPG,AFNE01.JPG,AFNE01.JPG,AFNE01.JPG,,,,,,,,,,,,,,,,,,,,,4,0,40,1,,,AMSA10.jpg,AMNE16.jpg,AMSA15.jpg,AMNE06.jpg,AMNE06.jpg,MN,1,num_4,16,num_4,0.633120458107,,,2017_Aug_07_1820,60.004099338,FEMA4ImagesEEG,001,201108,
