IPosition2,IPosition3,IPosition1,IPosition6,IPosition4,IPosition5,TrialsF1.thisRepN,TrialsF1.thisTrialN,TrialsF1.thisN,TrialsF1.thisIndex,TrialsM1.thisRepN,TrialsM1.thisTrialN,TrialsM1.thisN,TrialsM1.thisIndex,TrialsF2.thisRepN,TrialsF2.thisTrialN,TrialsF2.thisN,TrialsF2.thisIndex,TrialsM2.thisRepN,TrialsM2.thisTrialN,TrialsM2.thisN,TrialsM2.thisIndex,TrialsF3.thisRepN,TrialsF3.thisTrialN,TrialsF3.thisN,TrialsF3.thisIndex,TrialsM3.thisRepN,TrialsM3.thisTrialN,TrialsM3.thisN,TrialsM3.thisIndex,InstrKey_resp.keys,InstrKey_resp.rt,Image0 _Position,Image1 _Position,Image2 _Position,Image3 _Position,Center_image,condition,code,correct_answer,accuracy,Key_Resp.keys,Key_Resp.rt,BreakKey_resp.keys,BreakKey_resp.rt,date,frameRate,expName,session,participant,
,,,,,,,,,,,,,,,,,,,,,,,,,,,,,,space,12.0327526976,,,,,,,,,,,,,,2017_Aug_09_1342,60.0066400123,FEMA4ImagesEEG,001,201117,
AMSA25.JPG,AMNE24.JPG,AMSA24.JPG,AMNE26.JPG,AMSA21.JPG,AMNE25.JPG,0,0,0,3,,,,,,,,,,,,,,,,,,,,,,,AFNE18.jpg,AFSA07.jpg,AFSA02.jpg,AFNE09.jpg,AFNE18.jpg,FN,3,num_8,32,num_6,1.36657451815,,,2017_Aug_09_1342,60.0066400123,FEMA4ImagesEEG,001,201117,
AFSA25.JPG,AFNE24.JPG,AFSA24.JPG,AFNE21.JPG,AFSA21.JPG,AFNE25.JPG,0,1,1,2,,,,,,,,,,,,,,,,,,,,,,,AFNE08.jpg,AFSA14.jpg,AFSA07.jpg,AFNE09.jpg,AFNE08.jpg,FN,3,num_8,32,num_2,0.683497183258,,,2017_Aug_09_1342,60.0066400123,FEMA4ImagesEEG,001,201117,
AMNE23.JPG,AMNE24.JPG,AMNE22.JPG,AMSA24.JPG,AMSA22.JPG,AMSA23.JPG,0,2,2,9,,,,,,,,,,,,,,,,,,,,,,,AFNE16.jpg,AFSA04.jpg,AFNE10.jpg,AFSA20.jpg,AFNE10.jpg,FN,3,num_2,16,num_2,1.08344887989,,,2017_Aug_09_1342,60.0066400123,FEMA4ImagesEEG,001,201117,
AMSA21.JPG,AMNE23.JPG,AMNE21.JPG,AMSA25.JPG,AMNE25.JPG,AMSA23.JPG,0,3,3,5,,,,,,,,,,,,,,,,,,,,,,,AFSA03.jpg,AFNE07.jpg,AFSA10.jpg,AFNE06.jpg,AFNE07.jpg,FN,3,num_6,32,num_2,0.583492981736,,,2017_Aug_09_1342,60.0066400123,FEMA4ImagesEEG,001,201117,
AFSA21.JPG,AFNE23.JPG,AFNE21.JPG,AFSA25.JPG,AFNE25.JPG,AFSA23.JPG,0,4,4,4,,,,,,,,,,,,,,,,,,,,,,,AFSA07.jpg,AFSA09.jpg,AFNE13.jpg,AFNE01.jpg,AFNE13.jpg,FN,3,num_2,32,num_6,0.716689294903,,,2017_Aug_09_1342,60.0066400123,FEMA4ImagesEEG,001,201117,
AMSA21.JPG,AMNE22.JPG,AMNE21.JPG,AMSA23.JPG,AMSA22.JPG,AMNE23.JPG,0,5,5,1,,,,,,,,,,,,,,,,,,,,,,,AFSA16.jpg,AFSA13.jpg,AFNE13.jpg,AFNE08.jpg,AFNE13.jpg,FN,3,num_2,16,num_2,0.850140596274,,,2017_Aug_09_1342,60.0066400123,FEMA4ImagesEEG,001,201117,
AFNE22.JPG,AFSA24.JPG,AFSA22.JPG,AFNE25.JPG,AFNE24.JPG,AFSA25.JPG,0,6,6,6,,,,,,,,,,,,,,,,,,,,,,,AFNE03.jpg,AFNE10.jpg,AFSA05.jpg,AFSA18.jpg,AFNE10.jpg,FN,3,num_6,16,num_6,0.483484931057,,,2017_Aug_09_1342,60.0066400123,FEMA4ImagesEEG,001,201117,
AFNE23.JPG,AFNE24.JPG,AFNE22.JPG,AFSA24.JPG,AFSA22.JPG,AFSA23.JPG,0,7,7,8,,,,,,,,,,,,,,,,,,,,,,,AFSA01.jpg,AFNE01.jpg,AFSA20.jpg,AFNE15.jpg,AFNE15.jpg,FN,3,num_4,32,num_8,0.466853593942,,,2017_Aug_09_1342,60.0066400123,FEMA4ImagesEEG,001,201117,
AFSA21.JPG,AFNE22.JPG,AFNE21.JPG,AFSA23.JPG,AFSA22.JPG,AFNE23.JPG,0,8,8,0,,,,,,,,,,,,,,,,,,,,,,,AFNE18.jpg,AFSA11.jpg,AFSA18.jpg,AFNE14.jpg,AFSA18.jpg,FS,4,num_2,32,num_8,0.900032362668,,,2017_Aug_09_1342,60.0066400123,FEMA4ImagesEEG,001,201117,
AMNE22.JPG,AMSA24.JPG,AMSA22.JPG,AMNE25.JPG,AMNE24.JPG,AMSA25.JPG,0,9,9,7,,,,,,,,,,,,,,,,,,,,,,,AFNE06.jpg,AFSA16.jpg,AFSA11.jpg,AFNE12.jpg,AFSA16.jpg,FS,4,num_6,16,num_6,0.733477153117,,,2017_Aug_09_1342,60.0066400123,FEMA4ImagesEEG,001,201117,
AMNE22.JPG,AMSA24.JPG,AMSA22.JPG,AMNE25.JPG,AMNE24.JPG,AMSA25.JPG,,,,,0,0,0,7,,,,,,,,,,,,,,,,,,,AMNE06.jpg,AMSA16.jpg,AMSA03.jpg,AMNE18.jpg,AMSA03.jpg,MS,2,num_2,16,num_2,0.533467146102,,,2017_Aug_09_1342,60.0066400123,FEMA4ImagesEEG,001,201117,
AMSA21.JPG,AMNE22.JPG,AMNE21.JPG,AMSA23.JPG,AMSA22.JPG,AMNE23.JPG,,,,,0,1,1,1,,,,,,,,,,,,,,,,,,,AMNE17.jpg,AMSA01.jpg,AMNE12.jpg,AMSA16.jpg,AMSA16.jpg,MS,2,num_4,32,num_2,0.750141205732,,,2017_Aug_09_1342,60.0066400123,FEMA4ImagesEEG,001,201117,
AMSA21.JPG,AMNE23.JPG,AMNE21.JPG,AMSA25.JPG,AMNE25.JPG,AMSA23.JPG,,,,,0,2,2,5,,,,,,,,,,,,,,,,,,,AMSA02.jpg,AMSA09.jpg,AMNE07.jpg,AMNE03.jpg,AMSA02.jpg,MS,2,num_8,16,num_8,0.383505426347,,,2017_Aug_09_1342,60.0066400123,FEMA4ImagesEEG,001,201117,
AFNE23.JPG,AFNE24.JPG,AFNE22.JPG,AFSA24.JPG,AFSA22.JPG,AFSA23.JPG,,,,,0,3,3,8,,,,,,,,,,,,,,,,,,,AMSA15.jpg,AMNE07.jpg,AMNE14.jpg,AMSA18.jpg,AMSA15.jpg,MS,2,num_8,32,num_4,0.583432361949,,,2017_Aug_09_1342,60.0066400123,FEMA4ImagesEEG,001,201117,
AFSA25.JPG,AFNE24.JPG,AFSA24.JPG,AFNE21.JPG,AFSA21.JPG,AFNE25.JPG,,,,,0,4,4,2,,,,,,,,,,,,,,,,,,,AMNE12.jpg,AMSA19.jpg,AMNE16.jpg,AMSA03.jpg,AMNE12.jpg,MN,1,num_8,16,num_8,0.616780673619,,,2017_Aug_09_1342,60.0066400123,FEMA4ImagesEEG,001,201117,
AMSA25.JPG,AMNE24.JPG,AMSA24.JPG,AMNE26.JPG,AMSA21.JPG,AMNE25.JPG,,,,,0,5,5,3,,,,,,,,,,,,,,,,,,,AMNE15.jpg,AMNE16.jpg,AMSA13.jpg,AMSA12.jpg,AMSA12.jpg,MS,2,num_4,32,num_2,0.50013904064,,,2017_Aug_09_1342,60.0066400123,FEMA4ImagesEEG,001,201117,
AMNE23.JPG,AMNE24.JPG,AMNE22.JPG,AMSA24.JPG,AMSA22.JPG,AMSA23.JPG,,,,,0,6,6,9,,,,,,,,,,,,,,,,,,,AMSA11.jpg,AMNE16.jpg,AMNE14.jpg,AMSA13.jpg,AMSA11.jpg,MS,2,num_8,16,num_8,1.1167622311,,,2017_Aug_09_1342,60.0066400123,FEMA4ImagesEEG,001,201117,
AFNE22.JPG,AFSA24.JPG,AFSA22.JPG,AFNE25.JPG,AFNE24.JPG,AFSA25.JPG,,,,,0,7,7,6,,,,,,,,,,,,,,,,,,,AMNE06.jpg,AMSA02.jpg,AMNE05.jpg,AMSA07.jpg,AMSA02.jpg,MS,2,num_6,16,num_6,0.516805659281,,,2017_Aug_09_1342,60.0066400123,FEMA4ImagesEEG,001,201117,
AFSA21.JPG,AFNE23.JPG,AFNE21.JPG,AFSA25.JPG,AFNE25.JPG,AFSA23.JPG,,,,,0,8,8,4,,,,,,,,,,,,,,,,,,,AMSA04.jpg,AMNE08.jpg,AMNE03.jpg,AMSA13.jpg,AMSA13.jpg,MS,2,num_4,32,num_2,1.13340383186,,,2017_Aug_09_1342,60.0066400123,FEMA4ImagesEEG,001,201117,
AFSA21.JPG,AFNE22.JPG,AFNE21.JPG,AFSA23.JPG,AFSA22.JPG,AFNE23.JPG,,,,,0,9,9,0,,,,,,,,,,,,,,,,,,,AMNE05.jpg,AMSA12.jpg,AMNE07.jpg,AMSA07.jpg,AMNE05.jpg,MN,1,num_8,32,num_6,0.583494906081,,,2017_Aug_09_1342,60.0066400123,FEMA4ImagesEEG,001,201117,
AFSA25.JPG,AFNE24.JPG,AFSA24.JPG,AFNE21.JPG,AFSA21.JPG,AFNE25.JPG,,,,,,,,,0,0,0,2,,,,,,,,,,,,,,,AFNE03.jpg,AFSA09.jpg,AFNE08.jpg,AFSA15.jpg,AFNE08.jpg,FN,3,num_2,32,num_4,0.600092886249,,,2017_Aug_09_1342,60.0066400123,FEMA4ImagesEEG,001,201117,
AFSA21.JPG,AFNE23.JPG,AFNE21.JPG,AFSA25.JPG,AFNE25.JPG,AFSA23.JPG,,,,,,,,,0,1,1,4,,,,,,,,,,,,,,,AFNE05.jpg,AFNE13.jpg,AFSA05.jpg,AFSA15.jpg,AFNE05.jpg,FN,3,num_8,16,num_8,0.750111056259,,,2017_Aug_09_1342,60.0066400123,FEMA4ImagesEEG,001,201117,
AMSA25.JPG,AMNE24.JPG,AMSA24.JPG,AMNE26.JPG,AMSA21.JPG,AMNE25.JPG,,,,,,,,,0,2,2,3,,,,,,,,,,,,,,,AFSA01.jpg,AFNE04.jpg,AFSA06.jpg,AFNE10.jpg,AFSA01.jpg,FS,4,num_8,32,num_2,0.783500102116,,,2017_Aug_09_1342,60.0066400123,FEMA4ImagesEEG,001,201117,
AMNE22.JPG,AMSA24.JPG,AMSA22.JPG,AMNE25.JPG,AMNE24.JPG,AMSA25.JPG,,,,,,,,,0,3,3,7,,,,,,,,,,,,,,,AFSA09.jpg,AFNE19.jpg,AFNE12.jpg,AFSA14.jpg,AFNE12.jpg,FN,3,num_2,16,num_2,0.550166800851,,,2017_Aug_09_1342,60.0066400123,FEMA4ImagesEEG,001,201117,
AFSA21.JPG,AFNE22.JPG,AFNE21.JPG,AFSA23.JPG,AFSA22.JPG,AFNE23.JPG,,,,,,,,,0,4,4,0,,,,,,,,,,,,,,,AFNE07.jpg,AFNE04.jpg,AFSA11.jpg,AFSA02.jpg,AFSA02.jpg,FS,4,num_4,16,num_4,1.56675291364,,,2017_Aug_09_1342,60.0066400123,FEMA4ImagesEEG,001,201117,
AFNE23.JPG,AFNE24.JPG,AFNE22.JPG,AFSA24.JPG,AFSA22.JPG,AFSA23.JPG,,,,,,,,,0,5,5,8,,,,,,,,,,,,,,,AFNE15.jpg,AFNE07.jpg,AFSA13.jpg,AFSA17.jpg,AFNE15.jpg,FN,3,num_8,16,num_8,0.883437269134,,,2017_Aug_09_1342,60.0066400123,FEMA4ImagesEEG,001,201117,
AMSA21.JPG,AMNE22.JPG,AMNE21.JPG,AMSA23.JPG,AMSA22.JPG,AMNE23.JPG,,,,,,,,,0,6,6,1,,,,,,,,,,,,,,,AFSA15.jpg,AFSA13.jpg,AFNE12.jpg,AFNE18.jpg,AFNE12.jpg,FN,3,num_2,16,num_2,0.533567537554,,,2017_Aug_09_1342,60.0066400123,FEMA4ImagesEEG,001,201117,
AMSA21.JPG,AMNE23.JPG,AMNE21.JPG,AMSA25.JPG,AMNE25.JPG,AMSA23.JPG,,,,,,,,,0,7,7,5,,,,,,,,,,,,,,,AFSA05.jpg,AFNE05.jpg,AFNE14.jpg,AFSA18.jpg,AFSA05.jpg,FS,4,num_8,16,num_8,0.783462575404,,,2017_Aug_09_1342,60.0066400123,FEMA4ImagesEEG,001,201117,
AMNE23.JPG,AMNE24.JPG,AMNE22.JPG,AMSA24.JPG,AMSA22.JPG,AMSA23.JPG,,,,,,,,,0,8,8,9,,,,,,,,,,,,,,,AFNE12.jpg,AFSA05.jpg,AFNE04.jpg,AFSA20.jpg,AFNE12.jpg,FN,3,num_8,16,num_8,0.750119395554,,,2017_Aug_09_1342,60.0066400123,FEMA4ImagesEEG,001,201117,
AFNE22.JPG,AFSA24.JPG,AFSA22.JPG,AFNE25.JPG,AFNE24.JPG,AFSA25.JPG,,,,,,,,,0,9,9,6,,,,,,,,,,,,,,,AFSA10.jpg,AFNE20.jpg,AFNE07.jpg,AFSA13.jpg,AFSA13.jpg,FS,4,num_4,16,num_4,1.03345094854,,,2017_Aug_09_1342,60.0066400123,FEMA4ImagesEEG,001,201117,
AMSA21.JPG,AMNE23.JPG,AMNE21.JPG,AMSA25.JPG,AMNE25.JPG,AMSA23.JPG,,,,,,,,,,,,,0,0,0,5,,,,,,,,,,,AMSA11.jpg,AMSA20.jpg,AMNE14.jpg,AMNE03.jpg,AMSA11.jpg,MS,2,num_8,32,num_4,0.666782133048,,,2017_Aug_09_1342,60.0066400123,FEMA4ImagesEEG,001,201117,
AMNE22.JPG,AMSA24.JPG,AMSA22.JPG,AMNE25.JPG,AMNE24.JPG,AMSA25.JPG,,,,,,,,,,,,,0,1,1,7,,,,,,,,,,,AMNE16.jpg,AMSA04.jpg,AMSA10.jpg,AMNE20.jpg,AMSA04.jpg,MS,2,num_6,32,num_8,0.883444325533,,,2017_Aug_09_1342,60.0066400123,FEMA4ImagesEEG,001,201117,
AFNE23.JPG,AFNE24.JPG,AFNE22.JPG,AFSA24.JPG,AFSA22.JPG,AFSA23.JPG,,,,,,,,,,,,,0,2,2,8,,,,,,,,,,,AMNE04.jpg,AMSA20.jpg,AMSA12.jpg,AMNE12.jpg,AMNE12.jpg,MN,1,num_4,16,num_4,0.983492147876,,,2017_Aug_09_1342,60.0066400123,FEMA4ImagesEEG,001,201117,
AMNE23.JPG,AMNE24.JPG,AMNE22.JPG,AMSA24.JPG,AMSA22.JPG,AMSA23.JPG,,,,,,,,,,,,,0,3,3,9,,,,,,,,,,,AMSA17.jpg,AMNE05.jpg,AMNE19.jpg,AMSA06.jpg,AMSA06.jpg,MS,2,num_4,32,num_2,1.01675321837,,,2017_Aug_09_1342,60.0066400123,FEMA4ImagesEEG,001,201117,
AFSA21.JPG,AFNE23.JPG,AFNE21.JPG,AFSA25.JPG,AFNE25.JPG,AFSA23.JPG,,,,,,,,,,,,,0,4,4,4,,,,,,,,,,,AMNE17.jpg,AMSA13.jpg,AMSA02.jpg,AMNE10.jpg,AMSA13.jpg,MS,2,num_6,16,num_6,0.666808433831,,,2017_Aug_09_1342,60.0066400123,FEMA4ImagesEEG,001,201117,
AFSA25.JPG,AFNE24.JPG,AFSA24.JPG,AFNE21.JPG,AFSA21.JPG,AFNE25.JPG,,,,,,,,,,,,,0,5,5,2,,,,,,,,,,,AMSA07.jpg,AMNE17.jpg,AMNE19.jpg,AMSA01.jpg,AMSA07.jpg,MS,2,num_8,32,num_2,0.816781700123,,,2017_Aug_09_1342,60.0066400123,FEMA4ImagesEEG,001,201117,
AFNE22.JPG,AFSA24.JPG,AFSA22.JPG,AFNE25.JPG,AFNE24.JPG,AFSA25.JPG,,,,,,,,,,,,,0,6,6,6,,,,,,,,,,,AMNE13.jpg,AMSA11.jpg,AMNE20.jpg,AMSA20.jpg,AMNE20.jpg,MN,1,num_2,32,num_4,0.616653019097,,,2017_Aug_09_1342,60.0066400123,FEMA4ImagesEEG,001,201117,
AMSA25.JPG,AMNE24.JPG,AMSA24.JPG,AMNE26.JPG,AMSA21.JPG,AMNE25.JPG,,,,,,,,,,,,,0,7,7,3,,,,,,,,,,,AMNE09.jpg,AMSA05.jpg,AMSA04.jpg,AMNE02.jpg,AMSA05.jpg,MS,2,num_6,16,num_6,0.883346179035,,,2017_Aug_09_1342,60.0066400123,FEMA4ImagesEEG,001,201117,
AMSA21.JPG,AMNE22.JPG,AMNE21.JPG,AMSA23.JPG,AMSA22.JPG,AMNE23.JPG,,,,,,,,,,,,,0,8,8,1,,,,,,,,,,,AMSA12.jpg,AMSA04.jpg,AMNE16.jpg,AMNE17.jpg,AMNE16.jpg,MN,1,num_2,16,num_2,0.600134261884,,,2017_Aug_09_1342,60.0066400123,FEMA4ImagesEEG,001,201117,
AFSA21.JPG,AFNE22.JPG,AFNE21.JPG,AFSA23.JPG,AFSA22.JPG,AFNE23.JPG,,,,,,,,,,,,,0,9,9,0,,,,,,,,,,,AMNE09.jpg,AMSA11.jpg,AMSA19.jpg,AMNE12.jpg,AMSA11.jpg,MS,2,num_6,32,num_4,1.50008868473,,,2017_Aug_09_1342,60.0066400123,FEMA4ImagesEEG,001,201117,
AMSA21.JPG,AMNE23.JPG,AMNE21.JPG,AMSA25.JPG,AMNE25.JPG,AMSA23.JPG,,,,,,,,,,,,,,,,,0,0,0,5,,,,,,,AFNE19.jpg,AFSA03.jpg,AFSA04.jpg,AFNE06.jpg,AFNE06.jpg,FN,3,num_4,16,num_4,0.900152640184,,,2017_Aug_09_1342,60.0066400123,FEMA4ImagesEEG,001,201117,
AMSA25.JPG,AMNE24.JPG,AMSA24.JPG,AMNE26.JPG,AMSA21.JPG,AMNE25.JPG,,,,,,,,,,,,,,,,,0,1,1,3,,,,,,,AFNE07.jpg,AFSA03.jpg,AFSA18.jpg,AFNE03.jpg,AFSA03.jpg,FS,4,num_6,32,num_4,0.650207246421,,,2017_Aug_09_1342,60.0066400123,FEMA4ImagesEEG,001,201117,
AMNE23.JPG,AMNE24.JPG,AMNE22.JPG,AMSA24.JPG,AMSA22.JPG,AMSA23.JPG,,,,,,,,,,,,,,,,,0,2,2,9,,,,,,,AFSA15.jpg,AFNE11.jpg,AFSA17.jpg,AFNE10.jpg,AFSA15.jpg,FS,4,num_8,16,num_8,0.983458470087,,,2017_Aug_09_1342,60.0066400123,FEMA4ImagesEEG,001,201117,
AFSA25.JPG,AFNE24.JPG,AFSA24.JPG,AFNE21.JPG,AFSA21.JPG,AFNE25.JPG,,,,,,,,,,,,,,,,,0,3,3,2,,,,,,,AFSA04.jpg,AFNE02.jpg,AFSA14.jpg,AFNE01.jpg,AFSA04.jpg,FS,4,num_8,16,num_8,1.04990170919,,,2017_Aug_09_1342,60.0066400123,FEMA4ImagesEEG,001,201117,
AMNE22.JPG,AMSA24.JPG,AMSA22.JPG,AMNE25.JPG,AMNE24.JPG,AMSA25.JPG,,,,,,,,,,,,,,,,,0,4,4,7,,,,,,,AFSA12.jpg,AFNE12.jpg,AFNE11.jpg,AFSA14.jpg,AFSA14.jpg,FS,4,num_4,16,num_4,1.33343532868,,,2017_Aug_09_1342,60.0066400123,FEMA4ImagesEEG,001,201117,
AFNE22.JPG,AFSA24.JPG,AFSA22.JPG,AFNE25.JPG,AFNE24.JPG,AFSA25.JPG,,,,,,,,,,,,,,,,,0,5,5,6,,,,,,,AFSA18.jpg,AFSA06.jpg,AFNE09.jpg,AFNE13.jpg,AFNE13.jpg,FN,3,num_4,16,num_4,0.78350298875,,,2017_Aug_09_1342,60.0066400123,FEMA4ImagesEEG,001,201117,
AFSA21.JPG,AFNE23.JPG,AFNE21.JPG,AFSA25.JPG,AFNE25.JPG,AFSA23.JPG,,,,,,,,,,,,,,,,,0,6,6,4,,,,,,,AFNE14.jpg,AFSA12.jpg,AFNE02.jpg,AFSA05.jpg,AFSA05.jpg,FS,4,num_4,32,num_2,0.766769335605,,,2017_Aug_09_1342,60.0066400123,FEMA4ImagesEEG,001,201117,
AFNE23.JPG,AFNE24.JPG,AFNE22.JPG,AFSA24.JPG,AFSA22.JPG,AFSA23.JPG,,,,,,,,,,,,,,,,,0,7,7,8,,,,,,,AFNE09.jpg,AFSA16.jpg,AFNE16.jpg,AFSA15.jpg,AFNE09.jpg,FN,3,num_8,16,num_8,0.700202611508,,,2017_Aug_09_1342,60.0066400123,FEMA4ImagesEEG,001,201117,
AFSA21.JPG,AFNE22.JPG,AFNE21.JPG,AFSA23.JPG,AFSA22.JPG,AFNE23.JPG,,,,,,,,,,,,,,,,,0,8,8,0,,,,,,,AFSA10.jpg,AFNE13.jpg,AFSA19.jpg,AFNE18.jpg,AFNE13.jpg,FN,3,num_6,32,num_4,1.00016197376,,,2017_Aug_09_1342,60.0066400123,FEMA4ImagesEEG,001,201117,
AMSA21.JPG,AMNE22.JPG,AMNE21.JPG,AMSA23.JPG,AMSA22.JPG,AMNE23.JPG,,,,,,,,,,,,,,,,,0,9,9,1,,,,,,,AFSA09.jpg,AFSA13.jpg,AFNE10.jpg,AFNE13.jpg,AFSA09.jpg,FS,4,num_8,32,num_4,0.783529930981,,,2017_Aug_09_1342,60.0066400123,FEMA4ImagesEEG,001,201117,
AFSA25.JPG,AFNE24.JPG,AFSA24.JPG,AFNE21.JPG,AFSA21.JPG,AFNE25.JPG,,,,,,,,,,,,,,,,,,,,,0,0,0,2,,,AMNE20.jpg,AMNE15.jpg,AMSA10.jpg,AMSA05.jpg,AMNE15.jpg,MN,1,num_6,16,num_6,0.700127558317,,,2017_Aug_09_1342,60.0066400123,FEMA4ImagesEEG,001,201117,
AMSA25.JPG,AMNE24.JPG,AMSA24.JPG,AMNE26.JPG,AMSA21.JPG,AMNE25.JPG,,,,,,,,,,,,,,,,,,,,,0,1,1,3,,,AMSA06.jpg,AMSA10.jpg,AMNE14.jpg,AMNE08.jpg,AMSA06.jpg,MS,2,num_8,32,num_2,1.30011716648,,,2017_Aug_09_1342,60.0066400123,FEMA4ImagesEEG,001,201117,
AFNE22.JPG,AFSA24.JPG,AFSA22.JPG,AFNE25.JPG,AFNE24.JPG,AFSA25.JPG,,,,,,,,,,,,,,,,,,,,,0,2,2,6,,,AMNE07.jpg,AMSA08.jpg,AMNE12.jpg,AMSA03.jpg,AMNE12.jpg,MN,1,num_2,32,num_6,0.733514679829,,,2017_Aug_09_1342,60.0066400123,FEMA4ImagesEEG,001,201117,
AFSA21.JPG,AFNE22.JPG,AFNE21.JPG,AFSA23.JPG,AFSA22.JPG,AFNE23.JPG,,,,,,,,,,,,,,,,,,,,,0,3,3,0,,,AMSA19.jpg,AMNE10.jpg,AMSA16.jpg,AMNE13.jpg,AMSA16.jpg,MS,2,num_2,16,num_2,0.633449216839,,,2017_Aug_09_1342,60.0066400123,FEMA4ImagesEEG,001,201117,
AMNE23.JPG,AMNE24.JPG,AMNE22.JPG,AMSA24.JPG,AMSA22.JPG,AMSA23.JPG,,,,,,,,,,,,,,,,,,,,,0,4,4,9,,,AMSA15.jpg,AMSA17.jpg,AMNE10.jpg,AMNE07.jpg,AMNE07.jpg,MN,1,num_4,32,num_8,0.849977660459,,,2017_Aug_09_1342,60.0066400123,FEMA4ImagesEEG,001,201117,
AFSA21.JPG,AFNE23.JPG,AFNE21.JPG,AFSA25.JPG,AFNE25.JPG,AFSA23.JPG,,,,,,,,,,,,,,,,,,,,,0,5,5,4,,,AMSA10.jpg,AMSA17.jpg,AMNE09.jpg,AMNE15.jpg,AMNE15.jpg,MN,1,num_4,16,num_4,0.600167939439,,,2017_Aug_09_1342,60.0066400123,FEMA4ImagesEEG,001,201117,
AMSA21.JPG,AMNE22.JPG,AMNE21.JPG,AMSA23.JPG,AMSA22.JPG,AMNE23.JPG,,,,,,,,,,,,,,,,,,,,,0,6,6,1,,,AMNE15.jpg,AMNE17.jpg,AMSA13.jpg,AMSA10.jpg,AMNE15.jpg,MN,1,num_8,16,num_8,1.31706411182,,,2017_Aug_09_1342,60.0066400123,FEMA4ImagesEEG,001,201117,
AMNE22.JPG,AMSA24.JPG,AMSA22.JPG,AMNE25.JPG,AMNE24.JPG,AMSA25.JPG,,,,,,,,,,,,,,,,,,,,,0,7,7,7,,,AMNE05.jpg,AMSA02.jpg,AMSA05.jpg,AMNE14.jpg,AMSA02.jpg,MS,2,num_6,16,num_6,0.716747669503,,,2017_Aug_09_1342,60.0066400123,FEMA4ImagesEEG,001,201117,
AMSA21.JPG,AMNE23.JPG,AMNE21.JPG,AMSA25.JPG,AMNE25.JPG,AMSA23.JPG,,,,,,,,,,,,,,,,,,,,,0,8,8,5,,,AMNE01.jpg,AMSA17.jpg,AMNE18.jpg,AMSA14.jpg,AMNE01.jpg,MN,1,num_8,32,num_4,0.966796983266,,,2017_Aug_09_1342,60.0066400123,FEMA4ImagesEEG,001,201117,
AFNE23.JPG,AFNE24.JPG,AFNE22.JPG,AFSA24.JPG,AFSA22.JPG,AFSA23.JPG,,,,,,,,,,,,,,,,,,,,,0,9,9,8,,,AMNE11.jpg,AMSA16.jpg,AMSA17.jpg,AMNE10.jpg,AMNE10.jpg,MN,1,num_4,32,num_6,1.83339828323,,,2017_Aug_09_1342,60.0066400123,FEMA4ImagesEEG,001,201117,
,,,,,,,,,,,,,,,,,,,,,,,,,,,,,,,,,,,,,,,,,,,space,4.71646349388,2017_Aug_09_1342,60.0066400123,FEMA4ImagesEEG,001,201117,
AFNE01.JPG,AFNE01.JPG,AFNE01.JPG,AFNE01.JPG,AFNE01.JPG,AFNE01.JPG,0,0,0,2,,,,,,,,,,,,,,,,,,,,,,,AFNE15.jpg,AFNE13.jpg,AFSA04.jpg,AFSA16.jpg,AFSA04.jpg,FS,4,num_2,32,num_8,0.80012598657,,,2017_Aug_09_1342,60.0066400123,FEMA4ImagesEEG,001,201117,
AFNE01.JPG,AFNE01.JPG,AFNE01.JPG,AFNE01.JPG,AFNE01.JPG,AFNE01.JPG,0,1,1,9,,,,,,,,,,,,,,,,,,,,,,,AFNE13.jpg,AFNE15.jpg,AFSA15.jpg,AFSA04.jpg,AFNE15.jpg,FN,3,num_6,16,num_6,0.533488956513,,,2017_Aug_09_1342,60.0066400123,FEMA4ImagesEEG,001,201117,
AFNE01.JPG,AFNE01.JPG,AFNE01.JPG,AFNE01.JPG,AFNE01.JPG,AFNE01.JPG,0,2,2,1,,,,,,,,,,,,,,,,,,,,,,,AFSA16.jpg,AFNE17.jpg,AFNE02.jpg,AFSA08.jpg,AFSA08.jpg,FS,4,num_4,16,num_4,0.566808080999,,,2017_Aug_09_1342,60.0066400123,FEMA4ImagesEEG,001,201117,
AFNE01.JPG,AFNE01.JPG,AFNE01.JPG,AFNE01.JPG,AFNE01.JPG,AFNE01.JPG,0,3,3,0,,,,,,,,,,,,,,,,,,,,,,,AFSA18.jpg,AFNE15.jpg,AFNE18.jpg,AFSA03.jpg,AFNE18.jpg,FN,3,num_2,16,num_2,0.616766561056,,,2017_Aug_09_1342,60.0066400123,FEMA4ImagesEEG,001,201117,
AFNE01.JPG,AFNE01.JPG,AFNE01.JPG,AFNE01.JPG,AFNE01.JPG,AFNE01.JPG,0,4,4,8,,,,,,,,,,,,,,,,,,,,,,,AFSA20.jpg,AFNE09.jpg,AFNE11.jpg,AFSA15.jpg,AFNE11.jpg,FN,3,num_2,16,num_2,0.71680861013,,,2017_Aug_09_1342,60.0066400123,FEMA4ImagesEEG,001,201117,
AFNE01.JPG,AFNE01.JPG,AFNE01.JPG,AFNE01.JPG,AFNE01.JPG,AFNE01.JPG,0,5,5,7,,,,,,,,,,,,,,,,,,,,,,,AFNE02.jpg,AFSA09.jpg,AFSA12.jpg,AFNE15.jpg,AFNE15.jpg,FN,3,num_4,16,num_4,0.983499204041,,,2017_Aug_09_1342,60.0066400123,FEMA4ImagesEEG,001,201117,
AFNE01.JPG,AFNE01.JPG,AFNE01.JPG,AFNE01.JPG,AFNE01.JPG,AFNE01.JPG,0,6,6,3,,,,,,,,,,,,,,,,,,,,,,,AFSA10.jpg,AFSA02.jpg,AFNE06.jpg,AFNE14.jpg,AFNE14.jpg,FN,3,num_4,32,num_8,0.650156248594,,,2017_Aug_09_1342,60.0066400123,FEMA4ImagesEEG,001,201117,
AFNE01.JPG,AFNE01.JPG,AFNE01.JPG,AFNE01.JPG,AFNE01.JPG,AFNE01.JPG,0,7,7,6,,,,,,,,,,,,,,,,,,,,,,,AFSA19.jpg,AFNE15.jpg,AFNE04.jpg,AFSA20.jpg,AFSA20.jpg,FS,4,num_4,32,num_2,0.73370263353,,,2017_Aug_09_1342,60.0066400123,FEMA4ImagesEEG,001,201117,
AFNE01.JPG,AFNE01.JPG,AFNE01.JPG,AFNE01.JPG,AFNE01.JPG,AFNE01.JPG,0,8,8,5,,,,,,,,,,,,,,,,,,,,,,,AFNE15.jpg,AFSA01.jpg,AFNE17.jpg,AFSA14.jpg,AFSA01.jpg,FS,4,num_6,32,num_4,0.900101321749,,,2017_Aug_09_1342,60.0066400123,FEMA4ImagesEEG,001,201117,
AFNE01.JPG,AFNE01.JPG,AFNE01.JPG,AFNE01.JPG,AFNE01.JPG,AFNE01.JPG,0,9,9,4,,,,,,,,,,,,,,,,,,,,,,,AFNE15.jpg,AFSA03.jpg,AFSA16.jpg,AFNE14.jpg,AFSA03.jpg,FS,4,num_6,16,num_6,0.56677023368,,,2017_Aug_09_1342,60.0066400123,FEMA4ImagesEEG,001,201117,
AFNE01.JPG,AFNE01.JPG,AFNE01.JPG,AFNE01.JPG,AFNE01.JPG,AFNE01.JPG,1,0,10,0,,,,,,,,,,,,,,,,,,,,,,,AFNE18.jpg,AFNE10.jpg,AFSA19.jpg,AFSA02.jpg,AFSA19.jpg,FS,4,num_2,16,num_2,1.16661839536,,,2017_Aug_09_1342,60.0066400123,FEMA4ImagesEEG,001,201117,
AFNE01.JPG,AFNE01.JPG,AFNE01.JPG,AFNE01.JPG,AFNE01.JPG,AFNE01.JPG,1,1,11,6,,,,,,,,,,,,,,,,,,,,,,,AFSA09.jpg,AFNE02.jpg,AFSA17.jpg,AFNE03.jpg,AFSA17.jpg,FS,4,num_2,32,num_8,0.95013517607,,,2017_Aug_09_1342,60.0066400123,FEMA4ImagesEEG,001,201117,
AFNE01.JPG,AFNE01.JPG,AFNE01.JPG,AFNE01.JPG,AFNE01.JPG,AFNE01.JPG,1,2,12,2,,,,,,,,,,,,,,,,,,,,,,,AFSA05.jpg,AFSA08.jpg,AFNE04.jpg,AFNE08.jpg,AFSA05.jpg,FS,4,num_8,32,num_6,0.916752865538,,,2017_Aug_09_1342,60.0066400123,FEMA4ImagesEEG,001,201117,
AFNE01.JPG,AFNE01.JPG,AFNE01.JPG,AFNE01.JPG,AFNE01.JPG,AFNE01.JPG,1,3,13,1,,,,,,,,,,,,,,,,,,,,,,,AFNE01.jpg,AFSA16.jpg,AFNE03.jpg,AFSA09.jpg,AFSA16.jpg,FS,4,num_6,16,num_6,0.650168115972,,,2017_Aug_09_1342,60.0066400123,FEMA4ImagesEEG,001,201117,
AFNE01.JPG,AFNE01.JPG,AFNE01.JPG,AFNE01.JPG,AFNE01.JPG,AFNE01.JPG,1,4,14,5,,,,,,,,,,,,,,,,,,,,,,,AFSA02.jpg,AFNE04.jpg,AFNE01.jpg,AFSA08.jpg,AFNE01.jpg,FN,3,num_2,16,num_2,0.566762856673,,,2017_Aug_09_1342,60.0066400123,FEMA4ImagesEEG,001,201117,
AFNE01.JPG,AFNE01.JPG,AFNE01.JPG,AFNE01.JPG,AFNE01.JPG,AFNE01.JPG,1,5,15,8,,,,,,,,,,,,,,,,,,,,,,,AFSA19.jpg,AFSA08.jpg,AFNE02.jpg,AFNE12.jpg,AFNE02.jpg,FN,3,num_2,32,num_8,0.800143306609,,,2017_Aug_09_1342,60.0066400123,FEMA4ImagesEEG,001,201117,
AFNE01.JPG,AFNE01.JPG,AFNE01.JPG,AFNE01.JPG,AFNE01.JPG,AFNE01.JPG,1,6,16,9,,,,,,,,,,,,,,,,,,,,,,,AFSA18.jpg,AFNE16.jpg,AFNE03.jpg,AFSA17.jpg,AFSA18.jpg,FS,4,num_8,32,num_2,0.81679934077,,,2017_Aug_09_1342,60.0066400123,FEMA4ImagesEEG,001,201117,
AFNE01.JPG,AFNE01.JPG,AFNE01.JPG,AFNE01.JPG,AFNE01.JPG,AFNE01.JPG,1,7,17,3,,,,,,,,,,,,,,,,,,,,,,,AFSA18.jpg,AFNE06.jpg,AFNE10.jpg,AFSA15.jpg,AFNE06.jpg,FN,3,num_6,32,num_2,1.08345753979,,,2017_Aug_09_1342,60.0066400123,FEMA4ImagesEEG,001,201117,
AFNE01.JPG,AFNE01.JPG,AFNE01.JPG,AFNE01.JPG,AFNE01.JPG,AFNE01.JPG,1,8,18,4,,,,,,,,,,,,,,,,,,,,,,,AFSA03.jpg,AFNE02.jpg,AFNE01.jpg,AFSA14.jpg,AFSA14.jpg,FS,4,num_4,32,num_6,0.466817029752,,,2017_Aug_09_1342,60.0066400123,FEMA4ImagesEEG,001,201117,
AFNE01.JPG,AFNE01.JPG,AFNE01.JPG,AFNE01.JPG,AFNE01.JPG,AFNE01.JPG,1,9,19,7,,,,,,,,,,,,,,,,,,,,,,,AFNE16.jpg,AFSA15.jpg,AFSA04.jpg,AFNE09.jpg,AFNE16.jpg,FN,3,num_8,16,num_8,0.583505811403,,,2017_Aug_09_1342,60.0066400123,FEMA4ImagesEEG,001,201117,
AFNE01.JPG,AFNE01.JPG,AFNE01.JPG,AFNE01.JPG,AFNE01.JPG,AFNE01.JPG,2,0,20,8,,,,,,,,,,,,,,,,,,,,,,,AFNE10.jpg,AFSA04.jpg,AFSA19.jpg,AFNE02.jpg,AFNE10.jpg,FN,3,num_8,16,num_8,1.48339672759,,,2017_Aug_09_1342,60.0066400123,FEMA4ImagesEEG,001,201117,
AFNE01.JPG,AFNE01.JPG,AFNE01.JPG,AFNE01.JPG,AFNE01.JPG,AFNE01.JPG,2,1,21,2,,,,,,,,,,,,,,,,,,,,,,,AFSA01.jpg,AFSA15.jpg,AFNE06.jpg,AFNE10.jpg,AFSA15.jpg,FS,4,num_6,16,num_6,1.11673272308,,,2017_Aug_09_1342,60.0066400123,FEMA4ImagesEEG,001,201117,
AFNE01.JPG,AFNE01.JPG,AFNE01.JPG,AFNE01.JPG,AFNE01.JPG,AFNE01.JPG,2,2,22,6,,,,,,,,,,,,,,,,,,,,,,,AFNE07.jpg,AFNE11.jpg,AFSA06.jpg,AFSA04.jpg,AFSA06.jpg,FS,4,num_2,32,num_4,0.750157884322,,,2017_Aug_09_1342,60.0066400123,FEMA4ImagesEEG,001,201117,
AFNE01.JPG,AFNE01.JPG,AFNE01.JPG,AFNE01.JPG,AFNE01.JPG,AFNE01.JPG,2,3,23,1,,,,,,,,,,,,,,,,,,,,,,,AFSA16.jpg,AFNE20.jpg,AFNE11.jpg,AFSA03.jpg,AFNE11.jpg,FN,3,num_2,16,num_2,0.666773472913,,,2017_Aug_09_1342,60.0066400123,FEMA4ImagesEEG,001,201117,
AFNE01.JPG,AFNE01.JPG,AFNE01.JPG,AFNE01.JPG,AFNE01.JPG,AFNE01.JPG,2,4,24,7,,,,,,,,,,,,,,,,,,,,,,,AFSA17.jpg,AFSA01.jpg,AFNE06.jpg,AFNE11.jpg,AFNE11.jpg,FN,3,num_4,32,num_6,0.650155606912,,,2017_Aug_09_1342,60.0066400123,FEMA4ImagesEEG,001,201117,
AFNE01.JPG,AFNE01.JPG,AFNE01.JPG,AFNE01.JPG,AFNE01.JPG,AFNE01.JPG,2,5,25,9,,,,,,,,,,,,,,,,,,,,,,,AFNE10.jpg,AFSA11.jpg,AFNE08.jpg,AFSA01.jpg,AFSA01.jpg,FS,4,num_4,16,num_4,0.933436803985,,,2017_Aug_09_1342,60.0066400123,FEMA4ImagesEEG,001,201117,
AFNE01.JPG,AFNE01.JPG,AFNE01.JPG,AFNE01.JPG,AFNE01.JPG,AFNE01.JPG,2,6,26,5,,,,,,,,,,,,,,,,,,,,,,,AFSA14.jpg,AFSA08.jpg,AFNE20.jpg,AFNE18.jpg,AFNE20.jpg,FN,3,num_2,16,num_2,1.10009529185,,,2017_Aug_09_1342,60.0066400123,FEMA4ImagesEEG,001,201117,
AFNE01.JPG,AFNE01.JPG,AFNE01.JPG,AFNE01.JPG,AFNE01.JPG,AFNE01.JPG,2,7,27,4,,,,,,,,,,,,,,,,,,,,,,,AFNE20.jpg,AFSA19.jpg,AFSA07.jpg,AFNE03.jpg,AFNE20.jpg,FN,3,num_8,32,num_4,0.716798987938,,,2017_Aug_09_1342,60.0066400123,FEMA4ImagesEEG,001,201117,
AFNE01.JPG,AFNE01.JPG,AFNE01.JPG,AFNE01.JPG,AFNE01.JPG,AFNE01.JPG,2,8,28,0,,,,,,,,,,,,,,,,,,,,,,,AFSA08.jpg,AFNE03.jpg,AFNE20.jpg,AFSA09.jpg,AFNE20.jpg,FN,3,num_2,32,num_6,0.416845078347,,,2017_Aug_09_1342,60.0066400123,FEMA4ImagesEEG,001,201117,
AFNE01.JPG,AFNE01.JPG,AFNE01.JPG,AFNE01.JPG,AFNE01.JPG,AFNE01.JPG,2,9,29,3,,,,,,,,,,,,,,,,,,,,,,,AFNE04.jpg,AFNE06.jpg,AFSA14.jpg,AFSA08.jpg,AFNE06.jpg,FN,3,num_6,16,num_6,0.583496830426,,,2017_Aug_09_1342,60.0066400123,FEMA4ImagesEEG,001,201117,
AFNE01.JPG,AFNE01.JPG,AFNE01.JPG,AFNE01.JPG,AFNE01.JPG,AFNE01.JPG,3,0,30,1,,,,,,,,,,,,,,,,,,,,,,,AFSA03.jpg,AFNE11.jpg,AFNE13.jpg,AFSA16.jpg,AFSA03.jpg,FS,4,num_8,48,None,,,,2017_Aug_09_1342,60.0066400123,FEMA4ImagesEEG,001,201117,
AFNE01.JPG,AFNE01.JPG,AFNE01.JPG,AFNE01.JPG,AFNE01.JPG,AFNE01.JPG,3,1,31,7,,,,,,,,,,,,,,,,,,,,,,,AFNE03.jpg,AFSA18.jpg,AFNE14.jpg,AFSA04.jpg,AFSA18.jpg,FS,4,num_6,16,num_6,0.766781844432,,,2017_Aug_09_1342,60.0066400123,FEMA4ImagesEEG,001,201117,
AFNE01.JPG,AFNE01.JPG,AFNE01.JPG,AFNE01.JPG,AFNE01.JPG,AFNE01.JPG,3,2,32,4,,,,,,,,,,,,,,,,,,,,,,,AFNE06.jpg,AFSA05.jpg,AFSA18.jpg,AFNE04.jpg,AFNE04.jpg,FN,3,num_4,32,num_8,0.866768084699,,,2017_Aug_09_1342,60.0066400123,FEMA4ImagesEEG,001,201117,
AFNE01.JPG,AFNE01.JPG,AFNE01.JPG,AFNE01.JPG,AFNE01.JPG,AFNE01.JPG,3,3,33,3,,,,,,,,,,,,,,,,,,,,,,,AFSA11.jpg,AFSA04.jpg,AFNE03.jpg,AFNE09.jpg,AFSA04.jpg,FS,4,num_6,32,num_4,0.666614065412,,,2017_Aug_09_1342,60.0066400123,FEMA4ImagesEEG,001,201117,
AFNE01.JPG,AFNE01.JPG,AFNE01.JPG,AFNE01.JPG,AFNE01.JPG,AFNE01.JPG,3,4,34,0,,,,,,,,,,,,,,,,,,,,,,,AFSA08.jpg,AFNE15.jpg,AFSA10.jpg,AFNE16.jpg,AFSA08.jpg,FS,4,num_8,32,num_2,0.56679685507,,,2017_Aug_09_1342,60.0066400123,FEMA4ImagesEEG,001,201117,
AFNE01.JPG,AFNE01.JPG,AFNE01.JPG,AFNE01.JPG,AFNE01.JPG,AFNE01.JPG,3,5,35,5,,,,,,,,,,,,,,,,,,,,,,,AFNE06.jpg,AFSA13.jpg,AFSA08.jpg,AFNE11.jpg,AFSA13.jpg,FS,4,num_6,16,num_6,1.45007086755,,,2017_Aug_09_1342,60.0066400123,FEMA4ImagesEEG,001,201117,
AFNE01.JPG,AFNE01.JPG,AFNE01.JPG,AFNE01.JPG,AFNE01.JPG,AFNE01.JPG,3,6,36,6,,,,,,,,,,,,,,,,,,,,,,,AFSA16.jpg,AFNE01.jpg,AFNE15.jpg,AFSA04.jpg,AFSA04.jpg,FS,4,num_4,32,num_6,1.21659259172,,,2017_Aug_09_1342,60.0066400123,FEMA4ImagesEEG,001,201117,
AFNE01.JPG,AFNE01.JPG,AFNE01.JPG,AFNE01.JPG,AFNE01.JPG,AFNE01.JPG,3,7,37,8,,,,,,,,,,,,,,,,,,,,,,,AFNE17.jpg,AFSA04.jpg,AFSA09.jpg,AFNE04.jpg,AFSA09.jpg,FS,4,num_2,16,num_2,1.18344794982,,,2017_Aug_09_1342,60.0066400123,FEMA4ImagesEEG,001,201117,
AFNE01.JPG,AFNE01.JPG,AFNE01.JPG,AFNE01.JPG,AFNE01.JPG,AFNE01.JPG,3,8,38,2,,,,,,,,,,,,,,,,,,,,,,,AFSA05.jpg,AFNE05.jpg,AFSA20.jpg,AFNE20.jpg,AFSA05.jpg,FS,4,num_8,32,num_6,1.68342245091,,,2017_Aug_09_1342,60.0066400123,FEMA4ImagesEEG,001,201117,
AFNE01.JPG,AFNE01.JPG,AFNE01.JPG,AFNE01.JPG,AFNE01.JPG,AFNE01.JPG,3,9,39,9,,,,,,,,,,,,,,,,,,,,,,,AFNE17.jpg,AFNE04.jpg,AFSA05.jpg,AFSA08.jpg,AFNE17.jpg,FN,3,num_8,16,num_8,1.33341223537,,,2017_Aug_09_1342,60.0066400123,FEMA4ImagesEEG,001,201117,
AFNE01.JPG,AFNE01.JPG,AFNE01.JPG,AFNE01.JPG,AFNE01.JPG,AFNE01.JPG,4,0,40,8,,,,,,,,,,,,,,,,,,,,,,,AFSA04.jpg,AFNE03.jpg,AFSA20.jpg,AFNE11.jpg,AFNE03.jpg,FN,3,num_6,16,num_6,0.833452808904,,,2017_Aug_09_1342,60.0066400123,FEMA4ImagesEEG,001,201117,
AFNE01.JPG,AFNE01.JPG,AFNE01.JPG,AFNE01.JPG,AFNE01.JPG,AFNE01.JPG,4,1,41,6,,,,,,,,,,,,,,,,,,,,,,,AFSA18.jpg,AFNE16.jpg,AFNE02.jpg,AFSA14.jpg,AFSA14.jpg,FS,4,num_4,32,num_2,0.716782630188,,,2017_Aug_09_1342,60.0066400123,FEMA4ImagesEEG,001,201117,
AFNE01.JPG,AFNE01.JPG,AFNE01.JPG,AFNE01.JPG,AFNE01.JPG,AFNE01.JPG,4,2,42,1,,,,,,,,,,,,,,,,,,,,,,,AFSA05.jpg,AFSA04.jpg,AFNE19.jpg,AFNE08.jpg,AFSA04.jpg,FS,4,num_6,32,num_8,0.450174145866,,,2017_Aug_09_1342,60.0066400123,FEMA4ImagesEEG,001,201117,
AFNE01.JPG,AFNE01.JPG,AFNE01.JPG,AFNE01.JPG,AFNE01.JPG,AFNE01.JPG,4,3,43,7,,,,,,,,,,,,,,,,,,,,,,,AFNE07.jpg,AFSA05.jpg,AFNE16.jpg,AFSA04.jpg,AFSA05.jpg,FS,4,num_6,16,num_6,0.450163240544,,,2017_Aug_09_1342,60.0066400123,FEMA4ImagesEEG,001,201117,
AFNE01.JPG,AFNE01.JPG,AFNE01.JPG,AFNE01.JPG,AFNE01.JPG,AFNE01.JPG,4,4,44,3,,,,,,,,,,,,,,,,,,,,,,,AFSA08.jpg,AFNE18.jpg,AFNE06.jpg,AFSA19.jpg,AFSA08.jpg,FS,4,num_8,32,num_4,1.10021749372,,,2017_Aug_09_1342,60.0066400123,FEMA4ImagesEEG,001,201117,
AFNE01.JPG,AFNE01.JPG,AFNE01.JPG,AFNE01.JPG,AFNE01.JPG,AFNE01.JPG,4,5,45,5,,,,,,,,,,,,,,,,,,,,,,,AFSA15.jpg,AFNE17.jpg,AFSA10.jpg,AFNE06.jpg,AFSA10.jpg,FS,4,num_2,32,num_8,0.883516812697,,,2017_Aug_09_1342,60.0066400123,FEMA4ImagesEEG,001,201117,
AFNE01.JPG,AFNE01.JPG,AFNE01.JPG,AFNE01.JPG,AFNE01.JPG,AFNE01.JPG,4,6,46,9,,,,,,,,,,,,,,,,,,,,,,,AFSA14.jpg,AFSA01.jpg,AFNE07.jpg,AFNE09.jpg,AFSA14.jpg,FS,4,num_8,32,num_4,0.950108875055,,,2017_Aug_09_1342,60.0066400123,FEMA4ImagesEEG,001,201117,
AFNE01.JPG,AFNE01.JPG,AFNE01.JPG,AFNE01.JPG,AFNE01.JPG,AFNE01.JPG,4,7,47,0,,,,,,,,,,,,,,,,,,,,,,,AFSA04.jpg,AFSA13.jpg,AFNE20.jpg,AFNE17.jpg,AFNE17.jpg,FN,3,num_4,32,num_8,1.01674680365,,,2017_Aug_09_1342,60.0066400123,FEMA4ImagesEEG,001,201117,
AFNE01.JPG,AFNE01.JPG,AFNE01.JPG,AFNE01.JPG,AFNE01.JPG,AFNE01.JPG,4,8,48,4,,,,,,,,,,,,,,,,,,,,,,,AFSA04.jpg,AFNE03.jpg,AFNE10.jpg,AFSA03.jpg,AFNE10.jpg,FN,3,num_2,32,num_4,0.683438167209,,,2017_Aug_09_1342,60.0066400123,FEMA4ImagesEEG,001,201117,
AFNE01.JPG,AFNE01.JPG,AFNE01.JPG,AFNE01.JPG,AFNE01.JPG,AFNE01.JPG,4,9,49,2,,,,,,,,,,,,,,,,,,,,,,,AFNE19.jpg,AFNE01.jpg,AFSA06.jpg,AFSA15.jpg,AFNE01.jpg,FN,3,num_6,48,None,,,,2017_Aug_09_1342,60.0066400123,FEMA4ImagesEEG,001,201117,
AFNE01.JPG,AFNE01.JPG,AFNE01.JPG,AFNE01.JPG,AFNE01.JPG,AFNE01.JPG,5,0,50,8,,,,,,,,,,,,,,,,,,,,,,,AFSA06.jpg,AFNE14.jpg,AFNE20.jpg,AFSA12.jpg,AFNE14.jpg,FN,3,num_6,32,num_2,0.70022249734,,,2017_Aug_09_1342,60.0066400123,FEMA4ImagesEEG,001,201117,
AFNE01.JPG,AFNE01.JPG,AFNE01.JPG,AFNE01.JPG,AFNE01.JPG,AFNE01.JPG,5,1,51,3,,,,,,,,,,,,,,,,,,,,,,,AFSA15.jpg,AFSA07.jpg,AFNE02.jpg,AFNE19.jpg,AFNE19.jpg,FN,3,num_4,32,num_8,0.816763738636,,,2017_Aug_09_1342,60.0066400123,FEMA4ImagesEEG,001,201117,
AFNE01.JPG,AFNE01.JPG,AFNE01.JPG,AFNE01.JPG,AFNE01.JPG,AFNE01.JPG,5,2,52,5,,,,,,,,,,,,,,,,,,,,,,,AFNE18.jpg,AFSA04.jpg,AFSA18.jpg,AFNE16.jpg,AFSA18.jpg,FS,4,num_2,16,num_2,0.10017323168,,,2017_Aug_09_1342,60.0066400123,FEMA4ImagesEEG,001,201117,
AFNE01.JPG,AFNE01.JPG,AFNE01.JPG,AFNE01.JPG,AFNE01.JPG,AFNE01.JPG,5,3,53,9,,,,,,,,,,,,,,,,,,,,,,,AFSA14.jpg,AFNE10.jpg,AFNE19.jpg,AFSA03.jpg,AFSA14.jpg,FS,4,num_8,32,num_6,0.600025851512,,,2017_Aug_09_1342,60.0066400123,FEMA4ImagesEEG,001,201117,
AFNE01.JPG,AFNE01.JPG,AFNE01.JPG,AFNE01.JPG,AFNE01.JPG,AFNE01.JPG,5,4,54,1,,,,,,,,,,,,,,,,,,,,,,,AFNE04.jpg,AFSA08.jpg,AFSA11.jpg,AFNE17.jpg,AFNE04.jpg,FN,3,num_8,16,num_8,0.666781170759,,,2017_Aug_09_1342,60.0066400123,FEMA4ImagesEEG,001,201117,
AFNE01.JPG,AFNE01.JPG,AFNE01.JPG,AFNE01.JPG,AFNE01.JPG,AFNE01.JPG,5,5,55,2,,,,,,,,,,,,,,,,,,,,,,,AFSA11.jpg,AFNE20.jpg,AFNE15.jpg,AFSA06.jpg,AFNE15.jpg,FN,3,num_2,16,num_2,0.533488956513,,,2017_Aug_09_1342,60.0066400123,FEMA4ImagesEEG,001,201117,
AFNE01.JPG,AFNE01.JPG,AFNE01.JPG,AFNE01.JPG,AFNE01.JPG,AFNE01.JPG,5,6,56,7,,,,,,,,,,,,,,,,,,,,,,,AFNE18.jpg,AFSA01.jpg,AFSA13.jpg,AFNE13.jpg,AFNE18.jpg,FN,3,num_8,32,num_6,0.733431287343,,,2017_Aug_09_1342,60.0066400123,FEMA4ImagesEEG,001,201117,
AFNE01.JPG,AFNE01.JPG,AFNE01.JPG,AFNE01.JPG,AFNE01.JPG,AFNE01.JPG,5,7,57,6,,,,,,,,,,,,,,,,,,,,,,,AFSA18.jpg,AFNE05.jpg,AFNE08.jpg,AFSA11.jpg,AFSA18.jpg,FS,4,num_8,32,num_4,1.36675028363,,,2017_Aug_09_1342,60.0066400123,FEMA4ImagesEEG,001,201117,
AFNE01.JPG,AFNE01.JPG,AFNE01.JPG,AFNE01.JPG,AFNE01.JPG,AFNE01.JPG,5,8,58,0,,,,,,,,,,,,,,,,,,,,,,,AFNE03.jpg,AFSA11.jpg,AFNE07.jpg,AFSA20.jpg,AFNE03.jpg,FN,3,num_8,32,num_2,0.783493045717,,,2017_Aug_09_1342,60.0066400123,FEMA4ImagesEEG,001,201117,
AFNE01.JPG,AFNE01.JPG,AFNE01.JPG,AFNE01.JPG,AFNE01.JPG,AFNE01.JPG,5,9,59,4,,,,,,,,,,,,,,,,,,,,,,,AFNE14.jpg,AFNE08.jpg,AFSA07.jpg,AFSA16.jpg,AFSA16.jpg,FS,4,num_4,16,num_4,0.966642707586,,,2017_Aug_09_1342,60.0066400123,FEMA4ImagesEEG,001,201117,
,,,,,,,,,,,,,,,,,,,,,,,,,,,,,,,,,,,,,,,,,,,space,2.03300800663,2017_Aug_09_1342,60.0066400123,FEMA4ImagesEEG,001,201117,
AFNE01.JPG,AFNE01.JPG,AFNE01.JPG,AFNE01.JPG,AFNE01.JPG,AFNE01.JPG,,,,,0,0,0,4,,,,,,,,,,,,,,,,,,,AMNE08.jpg,AMNE15.jpg,AMSA12.jpg,AMSA02.jpg,AMSA02.jpg,MS,2,num_4,16,num_4,0.700139746536,,,2017_Aug_09_1342,60.0066400123,FEMA4ImagesEEG,001,201117,
AFNE01.JPG,AFNE01.JPG,AFNE01.JPG,AFNE01.JPG,AFNE01.JPG,AFNE01.JPG,,,,,0,1,1,5,,,,,,,,,,,,,,,,,,,AMNE01.jpg,AMNE06.jpg,AMSA20.jpg,AMSA18.jpg,AMNE01.jpg,MN,1,num_8,32,num_2,0.666823829291,,,2017_Aug_09_1342,60.0066400123,FEMA4ImagesEEG,001,201117,
AFNE01.JPG,AFNE01.JPG,AFNE01.JPG,AFNE01.JPG,AFNE01.JPG,AFNE01.JPG,,,,,0,2,2,1,,,,,,,,,,,,,,,,,,,AMSA07.jpg,AMSA12.jpg,AMNE02.jpg,AMNE05.jpg,AMSA12.jpg,MS,2,num_6,16,num_6,1.30006296141,,,2017_Aug_09_1342,60.0066400123,FEMA4ImagesEEG,001,201117,
AFNE01.JPG,AFNE01.JPG,AFNE01.JPG,AFNE01.JPG,AFNE01.JPG,AFNE01.JPG,,,,,0,3,3,6,,,,,,,,,,,,,,,,,,,AMSA10.jpg,AMSA02.jpg,AMNE02.jpg,AMNE15.jpg,AMSA10.jpg,MS,2,num_8,32,num_2,1.2334686534,,,2017_Aug_09_1342,60.0066400123,FEMA4ImagesEEG,001,201117,
AFNE01.JPG,AFNE01.JPG,AFNE01.JPG,AFNE01.JPG,AFNE01.JPG,AFNE01.JPG,,,,,0,4,4,9,,,,,,,,,,,,,,,,,,,AMNE06.jpg,AMSA16.jpg,AMNE08.jpg,AMSA13.jpg,AMNE06.jpg,MN,1,num_8,16,num_8,0.700165726477,,,2017_Aug_09_1342,60.0066400123,FEMA4ImagesEEG,001,201117,
AFNE01.JPG,AFNE01.JPG,AFNE01.JPG,AFNE01.JPG,AFNE01.JPG,AFNE01.JPG,,,,,0,5,5,0,,,,,,,,,,,,,,,,,,,AMNE10.jpg,AMSA20.jpg,AMSA13.jpg,AMNE11.jpg,AMNE11.jpg,MN,1,num_4,16,num_4,0.916844597086,,,2017_Aug_09_1342,60.0066400123,FEMA4ImagesEEG,001,201117,
AFNE01.JPG,AFNE01.JPG,AFNE01.JPG,AFNE01.JPG,AFNE01.JPG,AFNE01.JPG,,,,,0,6,6,3,,,,,,,,,,,,,,,,,,,AMSA06.jpg,AMNE02.jpg,AMNE19.jpg,AMSA15.jpg,AMNE19.jpg,MN,1,num_2,32,num_4,1.33340165112,,,2017_Aug_09_1342,60.0066400123,FEMA4ImagesEEG,001,201117,
AFNE01.JPG,AFNE01.JPG,AFNE01.JPG,AFNE01.JPG,AFNE01.JPG,AFNE01.JPG,,,,,0,7,7,8,,,,,,,,,,,,,,,,,,,AMNE15.jpg,AMSA16.jpg,AMNE10.jpg,AMSA12.jpg,AMNE15.jpg,MN,1,num_8,16,num_8,0.816764700925,,,2017_Aug_09_1342,60.0066400123,FEMA4ImagesEEG,001,201117,
AFNE01.JPG,AFNE01.JPG,AFNE01.JPG,AFNE01.JPG,AFNE01.JPG,AFNE01.JPG,,,,,0,8,8,2,,,,,,,,,,,,,,,,,,,AMSA02.jpg,AMSA19.jpg,AMNE08.jpg,AMNE15.jpg,AMNE08.jpg,MN,1,num_2,32,num_6,0.733450210886,,,2017_Aug_09_1342,60.0066400123,FEMA4ImagesEEG,001,201117,
AFNE01.JPG,AFNE01.JPG,AFNE01.JPG,AFNE01.JPG,AFNE01.JPG,AFNE01.JPG,,,,,0,9,9,7,,,,,,,,,,,,,,,,,,,AMSA09.jpg,AMSA04.jpg,AMNE06.jpg,AMNE18.jpg,AMSA09.jpg,MS,2,num_8,32,num_4,1.61669792281,,,2017_Aug_09_1342,60.0066400123,FEMA4ImagesEEG,001,201117,
AFNE01.JPG,AFNE01.JPG,AFNE01.JPG,AFNE01.JPG,AFNE01.JPG,AFNE01.JPG,,,,,1,0,10,2,,,,,,,,,,,,,,,,,,,AMSA06.jpg,AMNE19.jpg,AMNE07.jpg,AMSA09.jpg,AMSA09.jpg,MS,2,num_4,32,num_8,1.35007436364,,,2017_Aug_09_1342,60.0066400123,FEMA4ImagesEEG,001,201117,
AFNE01.JPG,AFNE01.JPG,AFNE01.JPG,AFNE01.JPG,AFNE01.JPG,AFNE01.JPG,,,,,1,1,11,5,,,,,,,,,,,,,,,,,,,AMNE18.jpg,AMNE03.jpg,AMSA14.jpg,AMSA16.jpg,AMSA14.jpg,MS,2,num_2,16,num_2,0.933459255844,,,2017_Aug_09_1342,60.0066400123,FEMA4ImagesEEG,001,201117,
AFNE01.JPG,AFNE01.JPG,AFNE01.JPG,AFNE01.JPG,AFNE01.JPG,AFNE01.JPG,,,,,1,2,12,4,,,,,,,,,,,,,,,,,,,AMSA05.jpg,AMSA20.jpg,AMNE12.jpg,AMNE20.jpg,AMNE12.jpg,MN,1,num_2,32,num_8,0.750189958373,,,2017_Aug_09_1342,60.0066400123,FEMA4ImagesEEG,001,201117,
AFNE01.JPG,AFNE01.JPG,AFNE01.JPG,AFNE01.JPG,AFNE01.JPG,AFNE01.JPG,,,,,1,3,13,3,,,,,,,,,,,,,,,,,,,AMNE02.jpg,AMNE10.jpg,AMSA01.jpg,AMSA11.jpg,AMNE10.jpg,MN,1,num_6,16,num_6,1.1001369881,,,2017_Aug_09_1342,60.0066400123,FEMA4ImagesEEG,001,201117,
AFNE01.JPG,AFNE01.JPG,AFNE01.JPG,AFNE01.JPG,AFNE01.JPG,AFNE01.JPG,,,,,1,4,14,8,,,,,,,,,,,,,,,,,,,AMNE06.jpg,AMSA02.jpg,AMNE08.jpg,AMSA20.jpg,AMNE08.jpg,MN,1,num_2,32,num_8,0.783474122174,,,2017_Aug_09_1342,60.0066400123,FEMA4ImagesEEG,001,201117,
AFNE01.JPG,AFNE01.JPG,AFNE01.JPG,AFNE01.JPG,AFNE01.JPG,AFNE01.JPG,,,,,1,5,15,6,,,,,,,,,,,,,,,,,,,AMSA16.jpg,AMNE05.jpg,AMNE04.jpg,AMSA01.jpg,AMSA01.jpg,MS,2,num_4,32,num_2,0.883452985436,,,2017_Aug_09_1342,60.0066400123,FEMA4ImagesEEG,001,201117,
AFNE01.JPG,AFNE01.JPG,AFNE01.JPG,AFNE01.JPG,AFNE01.JPG,AFNE01.JPG,,,,,1,6,16,0,,,,,,,,,,,,,,,,,,,AMNE05.jpg,AMSA01.jpg,AMNE19.jpg,AMSA03.jpg,AMNE05.jpg,MN,1,num_8,16,num_8,0.916749016847,,,2017_Aug_09_1342,60.0066400123,FEMA4ImagesEEG,001,201117,
AFNE01.JPG,AFNE01.JPG,AFNE01.JPG,AFNE01.JPG,AFNE01.JPG,AFNE01.JPG,,,,,1,7,17,7,,,,,,,,,,,,,,,,,,,AMSA13.jpg,AMSA20.jpg,AMNE08.jpg,AMNE03.jpg,AMNE08.jpg,MN,1,num_2,16,num_2,1.26674447814,,,2017_Aug_09_1342,60.0066400123,FEMA4ImagesEEG,001,201117,
AFNE01.JPG,AFNE01.JPG,AFNE01.JPG,AFNE01.JPG,AFNE01.JPG,AFNE01.JPG,,,,,1,8,18,9,,,,,,,,,,,,,,,,,,,AMSA03.jpg,AMNE18.jpg,AMNE09.jpg,AMSA11.jpg,AMSA11.jpg,MS,2,num_4,32,num_8,1.46678944584,,,2017_Aug_09_1342,60.0066400123,FEMA4ImagesEEG,001,201117,
AFNE01.JPG,AFNE01.JPG,AFNE01.JPG,AFNE01.JPG,AFNE01.JPG,AFNE01.JPG,,,,,1,9,19,1,,,,,,,,,,,,,,,,,,,AMSA06.jpg,AMSA10.jpg,AMNE06.jpg,AMNE15.jpg,AMSA06.jpg,MS,2,num_8,32,num_6,1.03342528944,,,2017_Aug_09_1342,60.0066400123,FEMA4ImagesEEG,001,201117,
AFNE01.JPG,AFNE01.JPG,AFNE01.JPG,AFNE01.JPG,AFNE01.JPG,AFNE01.JPG,,,,,2,0,20,8,,,,,,,,,,,,,,,,,,,AMSA02.jpg,AMNE07.jpg,AMNE17.jpg,AMSA07.jpg,AMSA07.jpg,MS,2,num_4,16,num_4,0.400146706495,,,2017_Aug_09_1342,60.0066400123,FEMA4ImagesEEG,001,201117,
AFNE01.JPG,AFNE01.JPG,AFNE01.JPG,AFNE01.JPG,AFNE01.JPG,AFNE01.JPG,,,,,2,1,21,7,,,,,,,,,,,,,,,,,,,AMSA07.jpg,AMNE18.jpg,AMNE02.jpg,AMSA14.jpg,AMNE18.jpg,MN,1,num_6,16,num_6,0.733451494016,,,2017_Aug_09_1342,60.0066400123,FEMA4ImagesEEG,001,201117,
AFNE01.JPG,AFNE01.JPG,AFNE01.JPG,AFNE01.JPG,AFNE01.JPG,AFNE01.JPG,,,,,2,2,22,0,,,,,,,,,,,,,,,,,,,AMNE13.jpg,AMNE06.jpg,AMSA02.jpg,AMSA16.jpg,AMSA02.jpg,MS,2,num_2,16,num_2,0.73357369611,,,2017_Aug_09_1342,60.0066400123,FEMA4ImagesEEG,001,201117,
AFNE01.JPG,AFNE01.JPG,AFNE01.JPG,AFNE01.JPG,AFNE01.JPG,AFNE01.JPG,,,,,2,3,23,9,,,,,,,,,,,,,,,,,,,AMSA02.jpg,AMNE18.jpg,AMNE11.jpg,AMSA07.jpg,AMNE11.jpg,MN,1,num_2,16,num_2,1.05019743158,,,2017_Aug_09_1342,60.0066400123,FEMA4ImagesEEG,001,201117,
AFNE01.JPG,AFNE01.JPG,AFNE01.JPG,AFNE01.JPG,AFNE01.JPG,AFNE01.JPG,,,,,2,4,24,5,,,,,,,,,,,,,,,,,,,AMNE02.jpg,AMSA06.jpg,AMSA07.jpg,AMNE19.jpg,AMSA07.jpg,MS,2,num_2,32,num_6,0.566797817126,,,2017_Aug_09_1342,60.0066400123,FEMA4ImagesEEG,001,201117,
AFNE01.JPG,AFNE01.JPG,AFNE01.JPG,AFNE01.JPG,AFNE01.JPG,AFNE01.JPG,,,,,2,5,25,3,,,,,,,,,,,,,,,,,,,AMSA16.jpg,AMSA11.jpg,AMNE03.jpg,AMNE04.jpg,AMSA16.jpg,MS,2,num_8,16,num_8,3.26659244741,,,2017_Aug_09_1342,60.0066400123,FEMA4ImagesEEG,001,201117,
AFNE01.JPG,AFNE01.JPG,AFNE01.JPG,AFNE01.JPG,AFNE01.JPG,AFNE01.JPG,,,,,2,6,26,6,,,,,,,,,,,,,,,,,,,AMSA02.jpg,AMNE17.jpg,AMNE05.jpg,AMSA20.jpg,AMNE05.jpg,MN,1,num_2,32,num_6,0.68352829502,,,2017_Aug_09_1342,60.0066400123,FEMA4ImagesEEG,001,201117,
AFNE01.JPG,AFNE01.JPG,AFNE01.JPG,AFNE01.JPG,AFNE01.JPG,AFNE01.JPG,,,,,2,7,27,1,,,,,,,,,,,,,,,,,,,AMNE09.jpg,AMSA11.jpg,AMNE15.jpg,AMSA02.jpg,AMNE09.jpg,MN,1,num_8,16,num_8,1.55004620249,,,2017_Aug_09_1342,60.0066400123,FEMA4ImagesEEG,001,201117,
AFNE01.JPG,AFNE01.JPG,AFNE01.JPG,AFNE01.JPG,AFNE01.JPG,AFNE01.JPG,,,,,2,8,28,4,,,,,,,,,,,,,,,,,,,AMNE04.jpg,AMNE14.jpg,AMSA14.jpg,AMSA13.jpg,AMNE04.jpg,MN,1,num_8,48,None,,,,2017_Aug_09_1342,60.0066400123,FEMA4ImagesEEG,001,201117,
AFNE01.JPG,AFNE01.JPG,AFNE01.JPG,AFNE01.JPG,AFNE01.JPG,AFNE01.JPG,,,,,2,9,29,2,,,,,,,,,,,,,,,,,,,AMSA02.jpg,AMNE07.jpg,AMNE06.jpg,AMSA03.jpg,AMNE07.jpg,MN,1,num_6,16,num_6,0.650136041921,,,2017_Aug_09_1342,60.0066400123,FEMA4ImagesEEG,001,201117,
AFNE01.JPG,AFNE01.JPG,AFNE01.JPG,AFNE01.JPG,AFNE01.JPG,AFNE01.JPG,,,,,3,0,30,8,,,,,,,,,,,,,,,,,,,AMNE16.jpg,AMNE10.jpg,AMSA08.jpg,AMSA14.jpg,AMSA08.jpg,MS,2,num_2,32,num_8,3.89957210049,,,2017_Aug_09_1342,60.0066400123,FEMA4ImagesEEG,001,201117,
AFNE01.JPG,AFNE01.JPG,AFNE01.JPG,AFNE01.JPG,AFNE01.JPG,AFNE01.JPG,,,,,3,1,31,9,,,,,,,,,,,,,,,,,,,AMNE07.jpg,AMNE15.jpg,AMSA02.jpg,AMSA19.jpg,AMNE07.jpg,MN,1,num_8,32,num_4,0.966758815339,,,2017_Aug_09_1342,60.0066400123,FEMA4ImagesEEG,001,201117,
AFNE01.JPG,AFNE01.JPG,AFNE01.JPG,AFNE01.JPG,AFNE01.JPG,AFNE01.JPG,,,,,3,2,32,5,,,,,,,,,,,,,,,,,,,AMSA15.jpg,AMNE14.jpg,AMSA04.jpg,AMNE07.jpg,AMSA04.jpg,MS,2,num_2,16,num_2,1.65009947773,,,2017_Aug_09_1342,60.0066400123,FEMA4ImagesEEG,001,201117,
AFNE01.JPG,AFNE01.JPG,AFNE01.JPG,AFNE01.JPG,AFNE01.JPG,AFNE01.JPG,,,,,3,3,33,0,,,,,,,,,,,,,,,,,,,AMSA19.jpg,AMSA01.jpg,AMNE15.jpg,AMNE14.jpg,AMNE15.jpg,MN,1,num_2,16,num_2,0.867050015135,,,2017_Aug_09_1342,60.0066400123,FEMA4ImagesEEG,001,201117,
AFNE01.JPG,AFNE01.JPG,AFNE01.JPG,AFNE01.JPG,AFNE01.JPG,AFNE01.JPG,,,,,3,4,34,1,,,,,,,,,,,,,,,,,,,AMNE02.jpg,AMSA16.jpg,AMNE12.jpg,AMSA02.jpg,AMSA02.jpg,MS,2,num_4,16,num_4,1.31674754131,,,2017_Aug_09_1342,60.0066400123,FEMA4ImagesEEG,001,201117,
AFNE01.JPG,AFNE01.JPG,AFNE01.JPG,AFNE01.JPG,AFNE01.JPG,AFNE01.JPG,,,,,3,5,35,2,,,,,,,,,,,,,,,,,,,AMSA09.jpg,AMNE04.jpg,AMNE13.jpg,AMSA04.jpg,AMNE04.jpg,MN,1,num_6,16,num_6,0.666782133048,,,2017_Aug_09_1342,60.0066400123,FEMA4ImagesEEG,001,201117,
AFNE01.JPG,AFNE01.JPG,AFNE01.JPG,AFNE01.JPG,AFNE01.JPG,AFNE01.JPG,,,,,3,6,36,4,,,,,,,,,,,,,,,,,,,AMNE07.jpg,AMSA18.jpg,AMNE19.jpg,AMSA05.jpg,AMNE07.jpg,MN,1,num_8,16,num_8,0.58350100019,,,2017_Aug_09_1342,60.0066400123,FEMA4ImagesEEG,001,201117,
AFNE01.JPG,AFNE01.JPG,AFNE01.JPG,AFNE01.JPG,AFNE01.JPG,AFNE01.JPG,,,,,3,7,37,3,,,,,,,,,,,,,,,,,,,AMSA04.jpg,AMNE08.jpg,AMNE14.jpg,AMSA02.jpg,AMSA04.jpg,MS,2,num_8,16,num_8,0.816751871258,,,2017_Aug_09_1342,60.0066400123,FEMA4ImagesEEG,001,201117,
AFNE01.JPG,AFNE01.JPG,AFNE01.JPG,AFNE01.JPG,AFNE01.JPG,AFNE01.JPG,,,,,3,8,38,6,,,,,,,,,,,,,,,,,,,AMNE19.jpg,AMNE10.jpg,AMSA04.jpg,AMSA19.jpg,AMSA19.jpg,MS,2,num_4,16,num_4,1.05014258507,,,2017_Aug_09_1342,60.0066400123,FEMA4ImagesEEG,001,201117,
AFNE01.JPG,AFNE01.JPG,AFNE01.JPG,AFNE01.JPG,AFNE01.JPG,AFNE01.JPG,,,,,3,9,39,7,,,,,,,,,,,,,,,,,,,AMSA01.jpg,AMNE07.jpg,AMSA13.jpg,AMNE02.jpg,AMNE07.jpg,MN,1,num_6,16,num_6,1.53350499365,,,2017_Aug_09_1342,60.0066400123,FEMA4ImagesEEG,001,201117,
AFNE01.JPG,AFNE01.JPG,AFNE01.JPG,AFNE01.JPG,AFNE01.JPG,AFNE01.JPG,,,,,4,0,40,6,,,,,,,,,,,,,,,,,,,AMSA18.jpg,AMNE19.jpg,AMSA09.jpg,AMNE11.jpg,AMSA09.jpg,MS,2,num_2,32,num_8,3.38326038094,,,2017_Aug_09_1342,60.0066400123,FEMA4ImagesEEG,001,201117,
AFNE01.JPG,AFNE01.JPG,AFNE01.JPG,AFNE01.JPG,AFNE01.JPG,AFNE01.JPG,,,,,4,1,41,5,,,,,,,,,,,,,,,,,,,AMNE05.jpg,AMSA04.jpg,AMSA03.jpg,AMNE17.jpg,AMSA04.jpg,MS,2,num_6,16,num_6,0.550151084783,,,2017_Aug_09_1342,60.0066400123,FEMA4ImagesEEG,001,201117,
AFNE01.JPG,AFNE01.JPG,AFNE01.JPG,AFNE01.JPG,AFNE01.JPG,AFNE01.JPG,,,,,4,2,42,8,,,,,,,,,,,,,,,,,,,AMSA10.jpg,AMNE06.jpg,AMSA16.jpg,AMNE14.jpg,AMSA16.jpg,MS,2,num_2,48,None,,,,2017_Aug_09_1342,60.0066400123,FEMA4ImagesEEG,001,201117,
AFNE01.JPG,AFNE01.JPG,AFNE01.JPG,AFNE01.JPG,AFNE01.JPG,AFNE01.JPG,,,,,4,3,43,7,,,,,,,,,,,,,,,,,,,AMSA05.jpg,AMNE14.jpg,AMNE09.jpg,AMSA10.jpg,AMSA10.jpg,MS,2,num_4,32,num_6,0.967057103524,,,2017_Aug_09_1342,60.0066400123,FEMA4ImagesEEG,001,201117,
AFNE01.JPG,AFNE01.JPG,AFNE01.JPG,AFNE01.JPG,AFNE01.JPG,AFNE01.JPG,,,,,4,4,44,9,,,,,,,,,,,,,,,,,,,AMSA07.jpg,AMNE16.jpg,AMNE08.jpg,AMSA11.jpg,AMNE16.jpg,MN,1,num_6,32,num_2,0.550147556467,,,2017_Aug_09_1342,60.0066400123,FEMA4ImagesEEG,001,201117,
AFNE01.JPG,AFNE01.JPG,AFNE01.JPG,AFNE01.JPG,AFNE01.JPG,AFNE01.JPG,,,,,4,5,45,2,,,,,,,,,,,,,,,,,,,AMNE05.jpg,AMSA06.jpg,AMNE01.jpg,AMSA16.jpg,AMNE05.jpg,MN,1,num_8,16,num_8,0.300151164876,,,2017_Aug_09_1342,60.0066400123,FEMA4ImagesEEG,001,201117,
AFNE01.JPG,AFNE01.JPG,AFNE01.JPG,AFNE01.JPG,AFNE01.JPG,AFNE01.JPG,,,,,4,6,46,3,,,,,,,,,,,,,,,,,,,AMNE04.jpg,AMNE13.jpg,AMSA16.jpg,AMSA04.jpg,AMSA04.jpg,MS,2,num_4,16,num_4,0.333489533747,,,2017_Aug_09_1342,60.0066400123,FEMA4ImagesEEG,001,201117,
AFNE01.JPG,AFNE01.JPG,AFNE01.JPG,AFNE01.JPG,AFNE01.JPG,AFNE01.JPG,,,,,4,7,47,4,,,,,,,,,,,,,,,,,,,AMNE06.jpg,AMSA15.jpg,AMNE08.jpg,AMSA02.jpg,AMSA02.jpg,MS,2,num_4,16,num_4,0.616809219588,,,2017_Aug_09_1342,60.0066400123,FEMA4ImagesEEG,001,201117,
AFNE01.JPG,AFNE01.JPG,AFNE01.JPG,AFNE01.JPG,AFNE01.JPG,AFNE01.JPG,,,,,4,8,48,1,,,,,,,,,,,,,,,,,,,AMNE14.jpg,AMNE08.jpg,AMSA14.jpg,AMSA03.jpg,AMSA03.jpg,MS,2,num_4,16,num_4,0.583490415942,,,2017_Aug_09_1342,60.0066400123,FEMA4ImagesEEG,001,201117,
AFNE01.JPG,AFNE01.JPG,AFNE01.JPG,AFNE01.JPG,AFNE01.JPG,AFNE01.JPG,,,,,4,9,49,0,,,,,,,,,,,,,,,,,,,AMNE18.jpg,AMNE02.jpg,AMSA08.jpg,AMSA19.jpg,AMSA08.jpg,MS,2,num_2,32,num_8,0.833457620116,,,2017_Aug_09_1342,60.0066400123,FEMA4ImagesEEG,001,201117,
AFNE01.JPG,AFNE01.JPG,AFNE01.JPG,AFNE01.JPG,AFNE01.JPG,AFNE01.JPG,,,,,5,0,50,4,,,,,,,,,,,,,,,,,,,AMNE09.jpg,AMSA12.jpg,AMNE20.jpg,AMSA03.jpg,AMNE09.jpg,MN,1,num_8,32,num_2,0.633486101869,,,2017_Aug_09_1342,60.0066400123,FEMA4ImagesEEG,001,201117,
AFNE01.JPG,AFNE01.JPG,AFNE01.JPG,AFNE01.JPG,AFNE01.JPG,AFNE01.JPG,,,,,5,1,51,5,,,,,,,,,,,,,,,,,,,AMNE20.jpg,AMSA06.jpg,AMNE04.jpg,AMSA11.jpg,AMNE20.jpg,MN,1,num_8,16,num_8,0.500191321597,,,2017_Aug_09_1342,60.0066400123,FEMA4ImagesEEG,001,201117,
AFNE01.JPG,AFNE01.JPG,AFNE01.JPG,AFNE01.JPG,AFNE01.JPG,AFNE01.JPG,,,,,5,2,52,1,,,,,,,,,,,,,,,,,,,AMNE19.jpg,AMSA17.jpg,AMSA03.jpg,AMNE15.jpg,AMNE19.jpg,MN,1,num_8,16,num_8,0.750139601994,,,2017_Aug_09_1342,60.0066400123,FEMA4ImagesEEG,001,201117,
AFNE01.JPG,AFNE01.JPG,AFNE01.JPG,AFNE01.JPG,AFNE01.JPG,AFNE01.JPG,,,,,5,3,53,6,,,,,,,,,,,,,,,,,,,AMSA15.jpg,AMSA12.jpg,AMNE01.jpg,AMNE02.jpg,AMNE01.jpg,MN,1,num_2,16,num_2,0.950170778204,,,2017_Aug_09_1342,60.0066400123,FEMA4ImagesEEG,001,201117,
AFNE01.JPG,AFNE01.JPG,AFNE01.JPG,AFNE01.JPG,AFNE01.JPG,AFNE01.JPG,,,,,5,4,54,3,,,,,,,,,,,,,,,,,,,AMSA07.jpg,AMNE10.jpg,AMNE14.jpg,AMSA03.jpg,AMSA03.jpg,MS,2,num_4,16,num_4,0.733449569438,,,2017_Aug_09_1342,60.0066400123,FEMA4ImagesEEG,001,201117,
AFNE01.JPG,AFNE01.JPG,AFNE01.JPG,AFNE01.JPG,AFNE01.JPG,AFNE01.JPG,,,,,5,5,55,0,,,,,,,,,,,,,,,,,,,AMSA08.jpg,AMNE17.jpg,AMSA17.jpg,AMNE05.jpg,AMNE17.jpg,MN,1,num_6,16,num_6,0.716788724298,,,2017_Aug_09_1342,60.0066400123,FEMA4ImagesEEG,001,201117,
AFNE01.JPG,AFNE01.JPG,AFNE01.JPG,AFNE01.JPG,AFNE01.JPG,AFNE01.JPG,,,,,5,6,56,9,,,,,,,,,,,,,,,,,,,AMNE07.jpg,AMSA07.jpg,AMNE17.jpg,AMSA10.jpg,AMNE07.jpg,MN,1,num_8,32,num_4,0.68347408995,,,2017_Aug_09_1342,60.0066400123,FEMA4ImagesEEG,001,201117,
AFNE01.JPG,AFNE01.JPG,AFNE01.JPG,AFNE01.JPG,AFNE01.JPG,AFNE01.JPG,,,,,5,7,57,8,,,,,,,,,,,,,,,,,,,AMSA17.jpg,AMNE07.jpg,AMSA18.jpg,AMNE19.jpg,AMSA18.jpg,MS,2,num_2,32,num_8,0.816797095584,,,2017_Aug_09_1342,60.0066400123,FEMA4ImagesEEG,001,201117,
AFNE01.JPG,AFNE01.JPG,AFNE01.JPG,AFNE01.JPG,AFNE01.JPG,AFNE01.JPG,,,,,5,8,58,2,,,,,,,,,,,,,,,,,,,AMNE13.jpg,AMSA06.jpg,AMSA16.jpg,AMNE04.jpg,AMNE13.jpg,MN,1,num_8,16,num_8,1.35007692943,,,2017_Aug_09_1342,60.0066400123,FEMA4ImagesEEG,001,201117,
AFNE01.JPG,AFNE01.JPG,AFNE01.JPG,AFNE01.JPG,AFNE01.JPG,AFNE01.JPG,,,,,5,9,59,7,,,,,,,,,,,,,,,,,,,AMSA18.jpg,AMSA17.jpg,AMNE11.jpg,AMNE01.jpg,AMNE11.jpg,MN,1,num_2,32,num_4,1.45007599937,,,2017_Aug_09_1342,60.0066400123,FEMA4ImagesEEG,001,201117,
,,,,,,,,,,,,,,,,,,,,,,,,,,,,,,,,,,,,,,,,,,,space,4.73314582882,2017_Aug_09_1342,60.0066400123,FEMA4ImagesEEG,001,201117,
AFNE01.JPG,AFNE01.JPG,AFNE01.JPG,AFNE01.JPG,AFNE01.JPG,AFNE01.JPG,,,,,,,,,0,0,0,5,,,,,,,,,,,,,,,AFSA03.jpg,AFSA09.jpg,AFNE14.jpg,AFNE16.jpg,AFNE14.jpg,FN,3,num_2,32,num_6,0.78349785693,,,2017_Aug_09_1342,60.0066400123,FEMA4ImagesEEG,001,201117,
AFNE01.JPG,AFNE01.JPG,AFNE01.JPG,AFNE01.JPG,AFNE01.JPG,AFNE01.JPG,,,,,,,,,0,1,1,2,,,,,,,,,,,,,,,AFNE20.jpg,AFSA11.jpg,AFNE19.jpg,AFSA01.jpg,AFSA01.jpg,FS,4,num_4,16,num_4,0.650165229337,,,2017_Aug_09_1342,60.0066400123,FEMA4ImagesEEG,001,201117,
AFNE01.JPG,AFNE01.JPG,AFNE01.JPG,AFNE01.JPG,AFNE01.JPG,AFNE01.JPG,,,,,,,,,0,2,2,0,,,,,,,,,,,,,,,AFSA19.jpg,AFNE11.jpg,AFSA15.jpg,AFNE01.jpg,AFSA15.jpg,FS,4,num_2,16,num_2,0.800137533341,,,2017_Aug_09_1342,60.0066400123,FEMA4ImagesEEG,001,201117,
AFNE01.JPG,AFNE01.JPG,AFNE01.JPG,AFNE01.JPG,AFNE01.JPG,AFNE01.JPG,,,,,,,,,0,3,3,9,,,,,,,,,,,,,,,AFNE04.jpg,AFSA07.jpg,AFSA04.jpg,AFNE02.jpg,AFSA04.jpg,FS,4,num_2,16,num_2,0.683485957561,,,2017_Aug_09_1342,60.0066400123,FEMA4ImagesEEG,001,201117,
AFNE01.JPG,AFNE01.JPG,AFNE01.JPG,AFNE01.JPG,AFNE01.JPG,AFNE01.JPG,,,,,,,,,0,4,4,8,,,,,,,,,,,,,,,AFSA09.jpg,AFNE13.jpg,AFNE18.jpg,AFSA11.jpg,AFNE13.jpg,FN,3,num_6,16,num_6,0.433460057713,,,2017_Aug_09_1342,60.0066400123,FEMA4ImagesEEG,001,201117,
AFNE01.JPG,AFNE01.JPG,AFNE01.JPG,AFNE01.JPG,AFNE01.JPG,AFNE01.JPG,,,,,,,,,0,5,5,4,,,,,,,,,,,,,,,AFSA15.jpg,AFNE10.jpg,AFNE03.jpg,AFSA14.jpg,AFNE10.jpg,FN,3,num_6,32,num_4,0.716768197017,,,2017_Aug_09_1342,60.0066400123,FEMA4ImagesEEG,001,201117,
AFNE01.JPG,AFNE01.JPG,AFNE01.JPG,AFNE01.JPG,AFNE01.JPG,AFNE01.JPG,,,,,,,,,0,6,6,1,,,,,,,,,,,,,,,AFSA14.jpg,AFNE13.jpg,AFSA02.jpg,AFNE16.jpg,AFNE16.jpg,FN,3,num_4,16,num_4,0.683476655977,,,2017_Aug_09_1342,60.0066400123,FEMA4ImagesEEG,001,201117,
AFNE01.JPG,AFNE01.JPG,AFNE01.JPG,AFNE01.JPG,AFNE01.JPG,AFNE01.JPG,,,,,,,,,0,7,7,3,,,,,,,,,,,,,,,AFNE09.jpg,AFSA10.jpg,AFNE07.jpg,AFSA15.jpg,AFSA10.jpg,FS,4,num_6,16,num_6,0.433480584994,,,2017_Aug_09_1342,60.0066400123,FEMA4ImagesEEG,001,201117,
AFNE01.JPG,AFNE01.JPG,AFNE01.JPG,AFNE01.JPG,AFNE01.JPG,AFNE01.JPG,,,,,,,,,0,8,8,7,,,,,,,,,,,,,,,AFSA09.jpg,AFNE04.jpg,AFNE19.jpg,AFSA03.jpg,AFNE19.jpg,FN,3,num_2,32,num_8,0.800149721326,,,2017_Aug_09_1342,60.0066400123,FEMA4ImagesEEG,001,201117,
AFNE01.JPG,AFNE01.JPG,AFNE01.JPG,AFNE01.JPG,AFNE01.JPG,AFNE01.JPG,,,,,,,,,0,9,9,6,,,,,,,,,,,,,,,AFNE05.jpg,AFNE09.jpg,AFSA11.jpg,AFSA09.jpg,AFSA09.jpg,FS,4,num_4,32,num_6,0.616808578139,,,2017_Aug_09_1342,60.0066400123,FEMA4ImagesEEG,001,201117,
AFNE01.JPG,AFNE01.JPG,AFNE01.JPG,AFNE01.JPG,AFNE01.JPG,AFNE01.JPG,,,,,,,,,1,0,10,0,,,,,,,,,,,,,,,AFNE05.jpg,AFNE20.jpg,AFSA17.jpg,AFSA20.jpg,AFSA20.jpg,FS,4,num_4,32,num_6,0.550145311281,,,2017_Aug_09_1342,60.0066400123,FEMA4ImagesEEG,001,201117,
AFNE01.JPG,AFNE01.JPG,AFNE01.JPG,AFNE01.JPG,AFNE01.JPG,AFNE01.JPG,,,,,,,,,1,1,11,3,,,,,,,,,,,,,,,AFSA14.jpg,AFNE06.jpg,AFNE20.jpg,AFSA16.jpg,AFNE06.jpg,FN,3,num_6,32,num_8,0.850124880206,,,2017_Aug_09_1342,60.0066400123,FEMA4ImagesEEG,001,201117,
AFNE01.JPG,AFNE01.JPG,AFNE01.JPG,AFNE01.JPG,AFNE01.JPG,AFNE01.JPG,,,,,,,,,1,2,12,7,,,,,,,,,,,,,,,AFSA08.jpg,AFNE08.jpg,AFSA15.jpg,AFNE06.jpg,AFSA08.jpg,FS,4,num_8,32,num_4,0.866763915168,,,2017_Aug_09_1342,60.0066400123,FEMA4ImagesEEG,001,201117,
AFNE01.JPG,AFNE01.JPG,AFNE01.JPG,AFNE01.JPG,AFNE01.JPG,AFNE01.JPG,,,,,,,,,1,3,13,4,,,,,,,,,,,,,,,AFSA19.jpg,AFNE19.jpg,AFNE07.jpg,AFSA16.jpg,AFSA19.jpg,FS,4,num_8,16,num_8,1.76670198026,,,2017_Aug_09_1342,60.0066400123,FEMA4ImagesEEG,001,201117,
AFNE01.JPG,AFNE01.JPG,AFNE01.JPG,AFNE01.JPG,AFNE01.JPG,AFNE01.JPG,,,,,,,,,1,4,14,9,,,,,,,,,,,,,,,AFNE07.jpg,AFSA04.jpg,AFSA15.jpg,AFNE01.jpg,AFNE01.jpg,FN,3,num_4,32,num_8,1.38341337419,,,2017_Aug_09_1342,60.0066400123,FEMA4ImagesEEG,001,201117,
AFNE01.JPG,AFNE01.JPG,AFNE01.JPG,AFNE01.JPG,AFNE01.JPG,AFNE01.JPG,,,,,,,,,1,5,15,1,,,,,,,,,,,,,,,AFSA12.jpg,AFSA04.jpg,AFNE08.jpg,AFNE12.jpg,AFSA12.jpg,FS,4,num_8,32,num_6,0.750244804891,,,2017_Aug_09_1342,60.0066400123,FEMA4ImagesEEG,001,201117,
AFNE01.JPG,AFNE01.JPG,AFNE01.JPG,AFNE01.JPG,AFNE01.JPG,AFNE01.JPG,,,,,,,,,1,6,16,5,,,,,,,,,,,,,,,AFSA17.jpg,AFNE14.jpg,AFSA19.jpg,AFNE15.jpg,AFSA19.jpg,FS,4,num_2,32,num_8,0.983809038997,,,2017_Aug_09_1342,60.0066400123,FEMA4ImagesEEG,001,201117,
AFNE01.JPG,AFNE01.JPG,AFNE01.JPG,AFNE01.JPG,AFNE01.JPG,AFNE01.JPG,,,,,,,,,1,7,17,8,,,,,,,,,,,,,,,AFNE03.jpg,AFSA06.jpg,AFSA10.jpg,AFNE04.jpg,AFNE03.jpg,FN,3,num_8,32,num_2,2.05007587117,,,2017_Aug_09_1342,60.0066400123,FEMA4ImagesEEG,001,201117,
AFNE01.JPG,AFNE01.JPG,AFNE01.JPG,AFNE01.JPG,AFNE01.JPG,AFNE01.JPG,,,,,,,,,1,8,18,2,,,,,,,,,,,,,,,AFSA15.jpg,AFSA13.jpg,AFNE01.jpg,AFNE16.jpg,AFSA15.jpg,FS,4,num_8,16,num_8,0.533498257864,,,2017_Aug_09_1342,60.0066400123,FEMA4ImagesEEG,001,201117,
AFNE01.JPG,AFNE01.JPG,AFNE01.JPG,AFNE01.JPG,AFNE01.JPG,AFNE01.JPG,,,,,,,,,1,9,19,6,,,,,,,,,,,,,,,AFSA10.jpg,AFSA15.jpg,AFNE08.jpg,AFNE20.jpg,AFSA10.jpg,FS,4,num_8,16,num_8,0.616805050056,,,2017_Aug_09_1342,60.0066400123,FEMA4ImagesEEG,001,201117,
AFNE01.JPG,AFNE01.JPG,AFNE01.JPG,AFNE01.JPG,AFNE01.JPG,AFNE01.JPG,,,,,,,,,2,0,20,4,,,,,,,,,,,,,,,AFSA05.jpg,AFSA01.jpg,AFNE09.jpg,AFNE04.jpg,AFNE04.jpg,FN,3,num_4,32,num_8,0.750150507316,,,2017_Aug_09_1342,60.0066400123,FEMA4ImagesEEG,001,201117,
AFNE01.JPG,AFNE01.JPG,AFNE01.JPG,AFNE01.JPG,AFNE01.JPG,AFNE01.JPG,,,,,,,,,2,1,21,5,,,,,,,,,,,,,,,AFNE13.jpg,AFNE17.jpg,AFSA20.jpg,AFSA17.jpg,AFNE17.jpg,FN,3,num_6,32,num_2,0.616768485634,,,2017_Aug_09_1342,60.0066400123,FEMA4ImagesEEG,001,201117,
AFNE01.JPG,AFNE01.JPG,AFNE01.JPG,AFNE01.JPG,AFNE01.JPG,AFNE01.JPG,,,,,,,,,2,2,22,9,,,,,,,,,,,,,,,AFNE06.jpg,AFSA15.jpg,AFSA04.jpg,AFNE13.jpg,AFNE06.jpg,FN,3,num_8,32,num_4,0.366823733086,,,2017_Aug_09_1342,60.0066400123,FEMA4ImagesEEG,001,201117,
AFNE01.JPG,AFNE01.JPG,AFNE01.JPG,AFNE01.JPG,AFNE01.JPG,AFNE01.JPG,,,,,,,,,2,3,23,7,,,,,,,,,,,,,,,AFSA15.jpg,AFNE12.jpg,AFSA19.jpg,AFNE15.jpg,AFNE15.jpg,FN,3,num_4,32,num_6,1.25017857202,,,2017_Aug_09_1342,60.0066400123,FEMA4ImagesEEG,001,201117,
AFNE01.JPG,AFNE01.JPG,AFNE01.JPG,AFNE01.JPG,AFNE01.JPG,AFNE01.JPG,,,,,,,,,2,4,24,8,,,,,,,,,,,,,,,AFSA15.jpg,AFNE16.jpg,AFNE14.jpg,AFSA04.jpg,AFNE14.jpg,FN,3,num_2,16,num_2,0.733456946677,,,2017_Aug_09_1342,60.0066400123,FEMA4ImagesEEG,001,201117,
AFNE01.JPG,AFNE01.JPG,AFNE01.JPG,AFNE01.JPG,AFNE01.JPG,AFNE01.JPG,,,,,,,,,2,5,25,3,,,,,,,,,,,,,,,AFNE04.jpg,AFSA17.jpg,AFSA14.jpg,AFNE10.jpg,AFNE10.jpg,FN,3,num_4,32,num_8,0.75012645172,,,2017_Aug_09_1342,60.0066400123,FEMA4ImagesEEG,001,201117,
AFNE01.JPG,AFNE01.JPG,AFNE01.JPG,AFNE01.JPG,AFNE01.JPG,AFNE01.JPG,,,,,,,,,2,6,26,2,,,,,,,,,,,,,,,AFSA07.jpg,AFSA20.jpg,AFNE01.jpg,AFNE08.jpg,AFNE01.jpg,FN,3,num_2,16,num_2,0.450153297745,,,2017_Aug_09_1342,60.0066400123,FEMA4ImagesEEG,001,201117,
AFNE01.JPG,AFNE01.JPG,AFNE01.JPG,AFNE01.JPG,AFNE01.JPG,AFNE01.JPG,,,,,,,,,2,7,27,6,,,,,,,,,,,,,,,AFNE17.jpg,AFNE01.jpg,AFSA18.jpg,AFSA03.jpg,AFNE17.jpg,FN,3,num_8,32,num_6,0.93348812242,,,2017_Aug_09_1342,60.0066400123,FEMA4ImagesEEG,001,201117,
AFNE01.JPG,AFNE01.JPG,AFNE01.JPG,AFNE01.JPG,AFNE01.JPG,AFNE01.JPG,,,,,,,,,2,8,28,1,,,,,,,,,,,,,,,AFNE09.jpg,AFSA18.jpg,AFNE10.jpg,AFSA08.jpg,AFNE09.jpg,FN,3,num_8,16,num_8,0.700139105087,,,2017_Aug_09_1342,60.0066400123,FEMA4ImagesEEG,001,201117,
AFNE01.JPG,AFNE01.JPG,AFNE01.JPG,AFNE01.JPG,AFNE01.JPG,AFNE01.JPG,,,,,,,,,2,9,29,0,,,,,,,,,,,,,,,AFNE13.jpg,AFSA01.jpg,AFNE14.jpg,AFSA15.jpg,AFSA15.jpg,FS,4,num_4,32,num_8,1.08342867321,,,2017_Aug_09_1342,60.0066400123,FEMA4ImagesEEG,001,201117,
AFNE01.JPG,AFNE01.JPG,AFNE01.JPG,AFNE01.JPG,AFNE01.JPG,AFNE01.JPG,,,,,,,,,3,0,30,3,,,,,,,,,,,,,,,AFNE14.jpg,AFSA08.jpg,AFSA14.jpg,AFNE13.jpg,AFSA14.jpg,FS,4,num_2,16,num_2,0.733456305228,,,2017_Aug_09_1342,60.0066400123,FEMA4ImagesEEG,001,201117,
AFNE01.JPG,AFNE01.JPG,AFNE01.JPG,AFNE01.JPG,AFNE01.JPG,AFNE01.JPG,,,,,,,,,3,1,31,5,,,,,,,,,,,,,,,AFNE14.jpg,AFSA07.jpg,AFSA11.jpg,AFNE16.jpg,AFNE14.jpg,FN,3,num_8,32,num_6,0.583501962246,,,2017_Aug_09_1342,60.0066400123,FEMA4ImagesEEG,001,201117,
AFNE01.JPG,AFNE01.JPG,AFNE01.JPG,AFNE01.JPG,AFNE01.JPG,AFNE01.JPG,,,,,,,,,3,2,32,7,,,,,,,,,,,,,,,AFSA16.jpg,AFNE11.jpg,AFSA03.jpg,AFNE03.jpg,AFSA03.jpg,FS,4,num_2,32,num_8,0.783477971097,,,2017_Aug_09_1342,60.0066400123,FEMA4ImagesEEG,001,201117,
AFNE01.JPG,AFNE01.JPG,AFNE01.JPG,AFNE01.JPG,AFNE01.JPG,AFNE01.JPG,,,,,,,,,3,3,33,9,,,,,,,,,,,,,,,AFSA06.jpg,AFSA18.jpg,AFNE13.jpg,AFNE01.jpg,AFNE13.jpg,FN,3,num_2,32,num_8,0.800158702303,,,2017_Aug_09_1342,60.0066400123,FEMA4ImagesEEG,001,201117,
AFNE01.JPG,AFNE01.JPG,AFNE01.JPG,AFNE01.JPG,AFNE01.JPG,AFNE01.JPG,,,,,,,,,3,4,34,0,,,,,,,,,,,,,,,AFSA13.jpg,AFNE19.jpg,AFNE07.jpg,AFSA20.jpg,AFSA13.jpg,FS,4,num_8,16,num_8,1.08346299268,,,2017_Aug_09_1342,60.0066400123,FEMA4ImagesEEG,001,201117,
AFNE01.JPG,AFNE01.JPG,AFNE01.JPG,AFNE01.JPG,AFNE01.JPG,AFNE01.JPG,,,,,,,,,3,5,35,1,,,,,,,,,,,,,,,AFSA18.jpg,AFNE08.jpg,AFSA05.jpg,AFNE04.jpg,AFSA05.jpg,FS,4,num_2,32,num_8,1.43340809783,,,2017_Aug_09_1342,60.0066400123,FEMA4ImagesEEG,001,201117,
AFNE01.JPG,AFNE01.JPG,AFNE01.JPG,AFNE01.JPG,AFNE01.JPG,AFNE01.JPG,,,,,,,,,3,6,36,4,,,,,,,,,,,,,,,AFSA02.jpg,AFNE01.jpg,AFSA14.jpg,AFNE18.jpg,AFSA02.jpg,FS,4,num_8,32,num_2,1.7164185904,,,2017_Aug_09_1342,60.0066400123,FEMA4ImagesEEG,001,201117,
AFNE01.JPG,AFNE01.JPG,AFNE01.JPG,AFNE01.JPG,AFNE01.JPG,AFNE01.JPG,,,,,,,,,3,7,37,8,,,,,,,,,,,,,,,AFSA17.jpg,AFNE17.jpg,AFSA04.jpg,AFNE10.jpg,AFNE17.jpg,FN,3,num_6,32,num_8,0.716810534708,,,2017_Aug_09_1342,60.0066400123,FEMA4ImagesEEG,001,201117,
AFNE01.JPG,AFNE01.JPG,AFNE01.JPG,AFNE01.JPG,AFNE01.JPG,AFNE01.JPG,,,,,,,,,3,8,38,6,,,,,,,,,,,,,,,AFSA05.jpg,AFNE12.jpg,AFSA03.jpg,AFNE01.jpg,AFSA05.jpg,FS,4,num_8,16,num_8,0.50017368095,,,2017_Aug_09_1342,60.0066400123,FEMA4ImagesEEG,001,201117,
AFNE01.JPG,AFNE01.JPG,AFNE01.JPG,AFNE01.JPG,AFNE01.JPG,AFNE01.JPG,,,,,,,,,3,9,39,2,,,,,,,,,,,,,,,AFNE07.jpg,AFSA10.jpg,AFNE02.jpg,AFSA05.jpg,AFNE07.jpg,FN,3,num_8,32,num_6,0.700162198162,,,2017_Aug_09_1342,60.0066400123,FEMA4ImagesEEG,001,201117,
AFNE01.JPG,AFNE01.JPG,AFNE01.JPG,AFNE01.JPG,AFNE01.JPG,AFNE01.JPG,,,,,,,,,4,0,40,5,,,,,,,,,,,,,,,AFSA19.jpg,AFNE14.jpg,AFNE02.jpg,AFSA12.jpg,AFSA19.jpg,FS,4,num_8,32,num_2,1.81669959053,,,2017_Aug_09_1342,60.0066400123,FEMA4ImagesEEG,001,201117,
AFNE01.JPG,AFNE01.JPG,AFNE01.JPG,AFNE01.JPG,AFNE01.JPG,AFNE01.JPG,,,,,,,,,4,1,41,3,,,,,,,,,,,,,,,AFSA20.jpg,AFNE13.jpg,AFSA02.jpg,AFNE20.jpg,AFSA20.jpg,FS,4,num_8,16,num_8,0.416844436899,,,2017_Aug_09_1342,60.0066400123,FEMA4ImagesEEG,001,201117,
AFNE01.JPG,AFNE01.JPG,AFNE01.JPG,AFNE01.JPG,AFNE01.JPG,AFNE01.JPG,,,,,,,,,4,2,42,7,,,,,,,,,,,,,,,AFSA17.jpg,AFSA13.jpg,AFNE01.jpg,AFNE07.jpg,AFSA17.jpg,FS,4,num_8,32,num_6,0.73345566378,,,2017_Aug_09_1342,60.0066400123,FEMA4ImagesEEG,001,201117,
AFNE01.JPG,AFNE01.JPG,AFNE01.JPG,AFNE01.JPG,AFNE01.JPG,AFNE01.JPG,,,,,,,,,4,3,43,6,,,,,,,,,,,,,,,AFNE20.jpg,AFSA01.jpg,AFSA15.jpg,AFNE19.jpg,AFNE19.jpg,FN,3,num_4,32,num_8,1.0834636339,,,2017_Aug_09_1342,60.0066400123,FEMA4ImagesEEG,001,201117,
AFNE01.JPG,AFNE01.JPG,AFNE01.JPG,AFNE01.JPG,AFNE01.JPG,AFNE01.JPG,,,,,,,,,4,4,44,9,,,,,,,,,,,,,,,AFNE09.jpg,AFSA15.jpg,AFNE11.jpg,AFSA08.jpg,AFSA15.jpg,FS,4,num_6,16,num_6,0.650133475894,,,2017_Aug_09_1342,60.0066400123,FEMA4ImagesEEG,001,201117,
AFNE01.JPG,AFNE01.JPG,AFNE01.JPG,AFNE01.JPG,AFNE01.JPG,AFNE01.JPG,,,,,,,,,4,5,45,1,,,,,,,,,,,,,,,AFSA12.jpg,AFNE15.jpg,AFSA05.jpg,AFNE11.jpg,AFSA12.jpg,FS,4,num_8,16,num_8,0.533474523341,,,2017_Aug_09_1342,60.0066400123,FEMA4ImagesEEG,001,201117,
AFNE01.JPG,AFNE01.JPG,AFNE01.JPG,AFNE01.JPG,AFNE01.JPG,AFNE01.JPG,,,,,,,,,4,6,46,4,,,,,,,,,,,,,,,AFNE15.jpg,AFSA18.jpg,AFSA03.jpg,AFNE18.jpg,AFNE18.jpg,FN,3,num_4,16,num_4,0.916723678121,,,2017_Aug_09_1342,60.0066400123,FEMA4ImagesEEG,001,201117,
AFNE01.JPG,AFNE01.JPG,AFNE01.JPG,AFNE01.JPG,AFNE01.JPG,AFNE01.JPG,,,,,,,,,4,7,47,8,,,,,,,,,,,,,,,AFNE18.jpg,AFSA17.jpg,AFSA10.jpg,AFNE13.jpg,AFNE18.jpg,FN,3,num_8,16,num_8,1.05011147307,,,2017_Aug_09_1342,60.0066400123,FEMA4ImagesEEG,001,201117,
AFNE01.JPG,AFNE01.JPG,AFNE01.JPG,AFNE01.JPG,AFNE01.JPG,AFNE01.JPG,,,,,,,,,4,8,48,2,,,,,,,,,,,,,,,AFSA17.jpg,AFSA01.jpg,AFNE07.jpg,AFNE12.jpg,AFSA01.jpg,FS,4,num_6,32,num_8,0.583482397255,,,2017_Aug_09_1342,60.0066400123,FEMA4ImagesEEG,001,201117,
AFNE01.JPG,AFNE01.JPG,AFNE01.JPG,AFNE01.JPG,AFNE01.JPG,AFNE01.JPG,,,,,,,,,4,9,49,0,,,,,,,,,,,,,,,AFNE15.jpg,AFSA03.jpg,AFSA06.jpg,AFNE07.jpg,AFSA06.jpg,FS,4,num_2,32,num_4,1.05011564284,,,2017_Aug_09_1342,60.0066400123,FEMA4ImagesEEG,001,201117,
AFNE01.JPG,AFNE01.JPG,AFNE01.JPG,AFNE01.JPG,AFNE01.JPG,AFNE01.JPG,,,,,,,,,5,0,50,8,,,,,,,,,,,,,,,AFSA20.jpg,AFSA07.jpg,AFNE13.jpg,AFNE07.jpg,AFNE07.jpg,FN,3,num_4,32,num_8,0.733489982784,,,2017_Aug_09_1342,60.0066400123,FEMA4ImagesEEG,001,201117,
AFNE01.JPG,AFNE01.JPG,AFNE01.JPG,AFNE01.JPG,AFNE01.JPG,AFNE01.JPG,,,,,,,,,5,1,51,5,,,,,,,,,,,,,,,AFNE13.jpg,AFSA11.jpg,AFSA04.jpg,AFNE01.jpg,AFNE01.jpg,FN,3,num_4,32,num_8,0.900102604879,,,2017_Aug_09_1342,60.0066400123,FEMA4ImagesEEG,001,201117,
AFNE01.JPG,AFNE01.JPG,AFNE01.JPG,AFNE01.JPG,AFNE01.JPG,AFNE01.JPG,,,,,,,,,5,2,52,2,,,,,,,,,,,,,,,AFSA18.jpg,AFNE03.jpg,AFSA06.jpg,AFNE13.jpg,AFNE13.jpg,FN,3,num_4,32,num_6,0.650511307875,,,2017_Aug_09_1342,60.0066400123,FEMA4ImagesEEG,001,201117,
AFNE01.JPG,AFNE01.JPG,AFNE01.JPG,AFNE01.JPG,AFNE01.JPG,AFNE01.JPG,,,,,,,,,5,3,53,7,,,,,,,,,,,,,,,AFNE11.jpg,AFSA05.jpg,AFSA15.jpg,AFNE03.jpg,AFNE03.jpg,FN,3,num_4,32,num_8,0.68336792523,,,2017_Aug_09_1342,60.0066400123,FEMA4ImagesEEG,001,201117,
AFNE01.JPG,AFNE01.JPG,AFNE01.JPG,AFNE01.JPG,AFNE01.JPG,AFNE01.JPG,,,,,,,,,5,4,54,6,,,,,,,,,,,,,,,AFNE05.jpg,AFNE14.jpg,AFSA02.jpg,AFSA12.jpg,AFSA02.jpg,FS,4,num_2,16,num_2,0.566827325383,,,2017_Aug_09_1342,60.0066400123,FEMA4ImagesEEG,001,201117,
AFNE01.JPG,AFNE01.JPG,AFNE01.JPG,AFNE01.JPG,AFNE01.JPG,AFNE01.JPG,,,,,,,,,5,5,55,0,,,,,,,,,,,,,,,AFNE19.jpg,AFSA19.jpg,AFSA12.jpg,AFNE14.jpg,AFSA12.jpg,FS,4,num_2,16,num_2,0.733438664349,,,2017_Aug_09_1342,60.0066400123,FEMA4ImagesEEG,001,201117,
AFNE01.JPG,AFNE01.JPG,AFNE01.JPG,AFNE01.JPG,AFNE01.JPG,AFNE01.JPG,,,,,,,,,5,6,56,9,,,,,,,,,,,,,,,AFNE08.jpg,AFSA02.jpg,AFSA01.jpg,AFNE11.jpg,AFNE11.jpg,FN,3,num_4,16,num_4,1.48344676313,,,2017_Aug_09_1342,60.0066400123,FEMA4ImagesEEG,001,201117,
AFNE01.JPG,AFNE01.JPG,AFNE01.JPG,AFNE01.JPG,AFNE01.JPG,AFNE01.JPG,,,,,,,,,5,7,57,1,,,,,,,,,,,,,,,AFNE12.jpg,AFNE04.jpg,AFSA01.jpg,AFSA12.jpg,AFSA01.jpg,FS,4,num_2,32,num_4,0.683462864254,,,2017_Aug_09_1342,60.0066400123,FEMA4ImagesEEG,001,201117,
AFNE01.JPG,AFNE01.JPG,AFNE01.JPG,AFNE01.JPG,AFNE01.JPG,AFNE01.JPG,,,,,,,,,5,8,58,3,,,,,,,,,,,,,,,AFSA10.jpg,AFNE10.jpg,AFNE11.jpg,AFSA15.jpg,AFSA15.jpg,FS,4,num_4,32,num_8,0.716773328837,,,2017_Aug_09_1342,60.0066400123,FEMA4ImagesEEG,001,201117,
AFNE01.JPG,AFNE01.JPG,AFNE01.JPG,AFNE01.JPG,AFNE01.JPG,AFNE01.JPG,,,,,,,,,5,9,59,4,,,,,,,,,,,,,,,AFSA12.jpg,AFNE14.jpg,AFNE01.jpg,AFSA19.jpg,AFSA19.jpg,FS,4,num_4,32,num_6,0.81679966161,,,2017_Aug_09_1342,60.0066400123,FEMA4ImagesEEG,001,201117,
,,,,,,,,,,,,,,,,,,,,,,,,,,,,,,,,,,,,,,,,,,,space,3.18324460066,2017_Aug_09_1342,60.0066400123,FEMA4ImagesEEG,001,201117,
AFNE01.JPG,AFNE01.JPG,AFNE01.JPG,AFNE01.JPG,AFNE01.JPG,AFNE01.JPG,,,,,,,,,,,,,0,0,0,4,,,,,,,,,,,AMSA20.jpg,AMNE03.jpg,AMSA08.jpg,AMNE06.jpg,AMSA08.jpg,MS,2,num_2,32,num_6,0.60016184533,,,2017_Aug_09_1342,60.0066400123,FEMA4ImagesEEG,001,201117,
AFNE01.JPG,AFNE01.JPG,AFNE01.JPG,AFNE01.JPG,AFNE01.JPG,AFNE01.JPG,,,,,,,,,,,,,0,1,1,1,,,,,,,,,,,AMNE17.jpg,AMNE02.jpg,AMSA03.jpg,AMSA18.jpg,AMNE02.jpg,MN,1,num_6,32,num_2,0.800356598804,,,2017_Aug_09_1342,60.0066400123,FEMA4ImagesEEG,001,201117,
AFNE01.JPG,AFNE01.JPG,AFNE01.JPG,AFNE01.JPG,AFNE01.JPG,AFNE01.JPG,,,,,,,,,,,,,0,2,2,0,,,,,,,,,,,AMNE18.jpg,AMNE06.jpg,AMSA03.jpg,AMSA15.jpg,AMNE06.jpg,MN,1,num_6,16,num_6,0.583462190581,,,2017_Aug_09_1342,60.0066400123,FEMA4ImagesEEG,001,201117,
AFNE01.JPG,AFNE01.JPG,AFNE01.JPG,AFNE01.JPG,AFNE01.JPG,AFNE01.JPG,,,,,,,,,,,,,0,3,3,3,,,,,,,,,,,AMNE06.jpg,AMNE01.jpg,AMSA07.jpg,AMSA10.jpg,AMSA10.jpg,MS,2,num_4,32,num_2,0.883479927666,,,2017_Aug_09_1342,60.0066400123,FEMA4ImagesEEG,001,201117,
AFNE01.JPG,AFNE01.JPG,AFNE01.JPG,AFNE01.JPG,AFNE01.JPG,AFNE01.JPG,,,,,,,,,,,,,0,4,4,6,,,,,,,,,,,AMSA12.jpg,AMNE17.jpg,AMSA19.jpg,AMNE14.jpg,AMSA12.jpg,MS,2,num_8,32,num_2,0.750130300643,,,2017_Aug_09_1342,60.0066400123,FEMA4ImagesEEG,001,201117,
AFNE01.JPG,AFNE01.JPG,AFNE01.JPG,AFNE01.JPG,AFNE01.JPG,AFNE01.JPG,,,,,,,,,,,,,0,5,5,7,,,,,,,,,,,AMSA03.jpg,AMSA18.jpg,AMNE14.jpg,AMNE06.jpg,AMSA03.jpg,MS,2,num_8,16,num_8,0.116827982944,,,2017_Aug_09_1342,60.0066400123,FEMA4ImagesEEG,001,201117,
AFNE01.JPG,AFNE01.JPG,AFNE01.JPG,AFNE01.JPG,AFNE01.JPG,AFNE01.JPG,,,,,,,,,,,,,0,6,6,9,,,,,,,,,,,AMSA17.jpg,AMSA19.jpg,AMNE18.jpg,AMNE20.jpg,AMSA19.jpg,MS,2,num_6,16,num_6,0.0500543813687,,,2017_Aug_09_1342,60.0066400123,FEMA4ImagesEEG,001,201117,
AFNE01.JPG,AFNE01.JPG,AFNE01.JPG,AFNE01.JPG,AFNE01.JPG,AFNE01.JPG,,,,,,,,,,,,,0,7,7,2,,,,,,,,,,,AMNE07.jpg,AMSA06.jpg,AMNE15.jpg,AMSA08.jpg,AMSA06.jpg,MS,2,num_6,32,num_2,0.516763963271,,,2017_Aug_09_1342,60.0066400123,FEMA4ImagesEEG,001,201117,
AFNE01.JPG,AFNE01.JPG,AFNE01.JPG,AFNE01.JPG,AFNE01.JPG,AFNE01.JPG,,,,,,,,,,,,,0,8,8,8,,,,,,,,,,,AMNE15.jpg,AMSA08.jpg,AMSA10.jpg,AMNE05.jpg,AMNE05.jpg,MN,1,num_4,32,num_8,0.733490945073,,,2017_Aug_09_1342,60.0066400123,FEMA4ImagesEEG,001,201117,
AFNE01.JPG,AFNE01.JPG,AFNE01.JPG,AFNE01.JPG,AFNE01.JPG,AFNE01.JPG,,,,,,,,,,,,,0,9,9,5,,,,,,,,,,,AMNE08.jpg,AMSA16.jpg,AMSA15.jpg,AMNE07.jpg,AMNE08.jpg,MN,1,num_8,32,num_6,0.733453097753,,,2017_Aug_09_1342,60.0066400123,FEMA4ImagesEEG,001,201117,
AFNE01.JPG,AFNE01.JPG,AFNE01.JPG,AFNE01.JPG,AFNE01.JPG,AFNE01.JPG,,,,,,,,,,,,,1,0,10,3,,,,,,,,,,,AMNE07.jpg,AMSA11.jpg,AMNE18.jpg,AMSA14.jpg,AMNE07.jpg,MN,1,num_8,32,num_2,0.633500214433,,,2017_Aug_09_1342,60.0066400123,FEMA4ImagesEEG,001,201117,
AFNE01.JPG,AFNE01.JPG,AFNE01.JPG,AFNE01.JPG,AFNE01.JPG,AFNE01.JPG,,,,,,,,,,,,,1,1,11,1,,,,,,,,,,,AMNE09.jpg,AMSA18.jpg,AMNE03.jpg,AMSA01.jpg,AMSA01.jpg,MS,2,num_4,32,num_2,0.766793711809,,,2017_Aug_09_1342,60.0066400123,FEMA4ImagesEEG,001,201117,
AFNE01.JPG,AFNE01.JPG,AFNE01.JPG,AFNE01.JPG,AFNE01.JPG,AFNE01.JPG,,,,,,,,,,,,,1,2,12,6,,,,,,,,,,,AMNE11.jpg,AMNE06.jpg,AMSA01.jpg,AMSA08.jpg,AMSA08.jpg,MS,2,num_4,32,num_8,0.80013881647,,,2017_Aug_09_1342,60.0066400123,FEMA4ImagesEEG,001,201117,
AFNE01.JPG,AFNE01.JPG,AFNE01.JPG,AFNE01.JPG,AFNE01.JPG,AFNE01.JPG,,,,,,,,,,,,,1,3,13,0,,,,,,,,,,,AMNE09.jpg,AMSA10.jpg,AMNE03.jpg,AMSA01.jpg,AMSA01.jpg,MS,2,num_4,16,num_4,0.750157242874,,,2017_Aug_09_1342,60.0066400123,FEMA4ImagesEEG,001,201117,
AFNE01.JPG,AFNE01.JPG,AFNE01.JPG,AFNE01.JPG,AFNE01.JPG,AFNE01.JPG,,,,,,,,,,,,,1,4,14,4,,,,,,,,,,,AMNE16.jpg,AMNE09.jpg,AMSA10.jpg,AMSA06.jpg,AMNE09.jpg,MN,1,num_6,32,num_8,1.60010154638,,,2017_Aug_09_1342,60.0066400123,FEMA4ImagesEEG,001,201117,
AFNE01.JPG,AFNE01.JPG,AFNE01.JPG,AFNE01.JPG,AFNE01.JPG,AFNE01.JPG,,,,,,,,,,,,,1,5,15,7,,,,,,,,,,,AMSA09.jpg,AMNE04.jpg,AMNE05.jpg,AMSA10.jpg,AMNE05.jpg,MN,1,num_2,32,num_8,1.35005383636,,,2017_Aug_09_1342,60.0066400123,FEMA4ImagesEEG,001,201117,
AFNE01.JPG,AFNE01.JPG,AFNE01.JPG,AFNE01.JPG,AFNE01.JPG,AFNE01.JPG,,,,,,,,,,,,,1,6,16,2,,,,,,,,,,,AMNE07.jpg,AMNE17.jpg,AMSA20.jpg,AMSA02.jpg,AMNE07.jpg,MN,1,num_8,32,num_6,1.00013920129,,,2017_Aug_09_1342,60.0066400123,FEMA4ImagesEEG,001,201117,
AFNE01.JPG,AFNE01.JPG,AFNE01.JPG,AFNE01.JPG,AFNE01.JPG,AFNE01.JPG,,,,,,,,,,,,,1,7,17,8,,,,,,,,,,,AMSA14.jpg,AMSA07.jpg,AMNE10.jpg,AMNE06.jpg,AMSA07.jpg,MS,2,num_6,16,num_6,0.516644006362,,,2017_Aug_09_1342,60.0066400123,FEMA4ImagesEEG,001,201117,
AFNE01.JPG,AFNE01.JPG,AFNE01.JPG,AFNE01.JPG,AFNE01.JPG,AFNE01.JPG,,,,,,,,,,,,,1,8,18,9,,,,,,,,,,,AMNE17.jpg,AMSA18.jpg,AMNE18.jpg,AMSA16.jpg,AMSA18.jpg,MS,2,num_6,16,num_6,0.516770698596,,,2017_Aug_09_1342,60.0066400123,FEMA4ImagesEEG,001,201117,
AFNE01.JPG,AFNE01.JPG,AFNE01.JPG,AFNE01.JPG,AFNE01.JPG,AFNE01.JPG,,,,,,,,,,,,,1,9,19,5,,,,,,,,,,,AMSA06.jpg,AMSA13.jpg,AMNE10.jpg,AMNE19.jpg,AMNE19.jpg,MN,1,num_4,32,num_2,0.90016482817,,,2017_Aug_09_1342,60.0066400123,FEMA4ImagesEEG,001,201117,
AFNE01.JPG,AFNE01.JPG,AFNE01.JPG,AFNE01.JPG,AFNE01.JPG,AFNE01.JPG,,,,,,,,,,,,,2,0,20,4,,,,,,,,,,,AMNE19.jpg,AMNE05.jpg,AMSA09.jpg,AMSA17.jpg,AMNE19.jpg,MN,1,num_8,32,num_6,0.850125201046,,,2017_Aug_09_1342,60.0066400123,FEMA4ImagesEEG,001,201117,
AFNE01.JPG,AFNE01.JPG,AFNE01.JPG,AFNE01.JPG,AFNE01.JPG,AFNE01.JPG,,,,,,,,,,,,,2,1,21,2,,,,,,,,,,,AMNE01.jpg,AMSA18.jpg,AMSA14.jpg,AMNE20.jpg,AMSA14.jpg,MS,2,num_2,32,num_6,0.91676377086,,,2017_Aug_09_1342,60.0066400123,FEMA4ImagesEEG,001,201117,
AFNE01.JPG,AFNE01.JPG,AFNE01.JPG,AFNE01.JPG,AFNE01.JPG,AFNE01.JPG,,,,,,,,,,,,,2,2,22,5,,,,,,,,,,,AMNE03.jpg,AMSA01.jpg,AMSA07.jpg,AMNE18.jpg,AMSA07.jpg,MS,2,num_2,16,num_2,0.650154965697,,,2017_Aug_09_1342,60.0066400123,FEMA4ImagesEEG,001,201117,
AFNE01.JPG,AFNE01.JPG,AFNE01.JPG,AFNE01.JPG,AFNE01.JPG,AFNE01.JPG,,,,,,,,,,,,,2,3,23,6,,,,,,,,,,,AMSA14.jpg,AMNE16.jpg,AMSA18.jpg,AMNE20.jpg,AMSA14.jpg,MS,2,num_8,32,num_2,1.41670170752,,,2017_Aug_09_1342,60.0066400123,FEMA4ImagesEEG,001,201117,
AFNE01.JPG,AFNE01.JPG,AFNE01.JPG,AFNE01.JPG,AFNE01.JPG,AFNE01.JPG,,,,,,,,,,,,,2,4,24,9,,,,,,,,,,,AMSA02.jpg,AMNE15.jpg,AMSA14.jpg,AMNE04.jpg,AMNE15.jpg,MN,1,num_6,16,num_6,1.26734009269,,,2017_Aug_09_1342,60.0066400123,FEMA4ImagesEEG,001,201117,
AFNE01.JPG,AFNE01.JPG,AFNE01.JPG,AFNE01.JPG,AFNE01.JPG,AFNE01.JPG,,,,,,,,,,,,,2,5,25,8,,,,,,,,,,,AMSA16.jpg,AMNE11.jpg,AMNE14.jpg,AMSA06.jpg,AMNE11.jpg,MN,1,num_6,32,num_8,0.916736828396,,,2017_Aug_09_1342,60.0066400123,FEMA4ImagesEEG,001,201117,
AFNE01.JPG,AFNE01.JPG,AFNE01.JPG,AFNE01.JPG,AFNE01.JPG,AFNE01.JPG,,,,,,,,,,,,,2,6,26,3,,,,,,,,,,,AMSA11.jpg,AMNE09.jpg,AMSA04.jpg,AMNE11.jpg,AMNE09.jpg,MN,1,num_6,32,num_4,1.51669596625,,,2017_Aug_09_1342,60.0066400123,FEMA4ImagesEEG,001,201117,
AFNE01.JPG,AFNE01.JPG,AFNE01.JPG,AFNE01.JPG,AFNE01.JPG,AFNE01.JPG,,,,,,,,,,,,,2,7,27,0,,,,,,,,,,,AMNE17.jpg,AMSA10.jpg,AMNE05.jpg,AMSA17.jpg,AMNE17.jpg,MN,1,num_8,16,num_8,0.816788756521,,,2017_Aug_09_1342,60.0066400123,FEMA4ImagesEEG,001,201117,
AFNE01.JPG,AFNE01.JPG,AFNE01.JPG,AFNE01.JPG,AFNE01.JPG,AFNE01.JPG,,,,,,,,,,,,,2,8,28,7,,,,,,,,,,,AMSA14.jpg,AMNE19.jpg,AMNE06.jpg,AMSA02.jpg,AMNE19.jpg,MN,1,num_6,16,num_6,0.600125601748,,,2017_Aug_09_1342,60.0066400123,FEMA4ImagesEEG,001,201117,
AFNE01.JPG,AFNE01.JPG,AFNE01.JPG,AFNE01.JPG,AFNE01.JPG,AFNE01.JPG,,,,,,,,,,,,,2,9,29,1,,,,,,,,,,,AMSA11.jpg,AMNE08.jpg,AMNE01.jpg,AMSA09.jpg,AMNE08.jpg,MN,1,num_6,32,num_8,0.766809428111,,,2017_Aug_09_1342,60.0066400123,FEMA4ImagesEEG,001,201117,
AFNE01.JPG,AFNE01.JPG,AFNE01.JPG,AFNE01.JPG,AFNE01.JPG,AFNE01.JPG,,,,,,,,,,,,,3,0,30,5,,,,,,,,,,,AMNE05.jpg,AMSA01.jpg,AMSA17.jpg,AMNE02.jpg,AMNE02.jpg,MN,1,num_4,32,num_2,1.0334236857,,,2017_Aug_09_1342,60.0066400123,FEMA4ImagesEEG,001,201117,
AFNE01.JPG,AFNE01.JPG,AFNE01.JPG,AFNE01.JPG,AFNE01.JPG,AFNE01.JPG,,,,,,,,,,,,,3,1,31,4,,,,,,,,,,,AMSA17.jpg,AMSA08.jpg,AMNE14.jpg,AMNE18.jpg,AMNE14.jpg,MN,1,num_2,32,num_8,0.533513974166,,,2017_Aug_09_1342,60.0066400123,FEMA4ImagesEEG,001,201117,
AFNE01.JPG,AFNE01.JPG,AFNE01.JPG,AFNE01.JPG,AFNE01.JPG,AFNE01.JPG,,,,,,,,,,,,,3,2,32,0,,,,,,,,,,,AMNE08.jpg,AMNE20.jpg,AMSA19.jpg,AMSA03.jpg,AMNE08.jpg,MN,1,num_8,32,num_6,1.31672669319,,,2017_Aug_09_1342,60.0066400123,FEMA4ImagesEEG,001,201117,
AFNE01.JPG,AFNE01.JPG,AFNE01.JPG,AFNE01.JPG,AFNE01.JPG,AFNE01.JPG,,,,,,,,,,,,,3,3,33,9,,,,,,,,,,,AMSA09.jpg,AMNE18.jpg,AMSA12.jpg,AMNE06.jpg,AMSA12.jpg,MS,2,num_2,16,num_2,0.566776969237,,,2017_Aug_09_1342,60.0066400123,FEMA4ImagesEEG,001,201117,
AFNE01.JPG,AFNE01.JPG,AFNE01.JPG,AFNE01.JPG,AFNE01.JPG,AFNE01.JPG,,,,,,,,,,,,,3,4,34,8,,,,,,,,,,,AMNE03.jpg,AMSA05.jpg,AMNE06.jpg,AMSA06.jpg,AMNE03.jpg,MN,1,num_8,32,num_4,0.383501898265,,,2017_Aug_09_1342,60.0066400123,FEMA4ImagesEEG,001,201117,
AFNE01.JPG,AFNE01.JPG,AFNE01.JPG,AFNE01.JPG,AFNE01.JPG,AFNE01.JPG,,,,,,,,,,,,,3,5,35,6,,,,,,,,,,,AMSA18.jpg,AMSA17.jpg,AMNE15.jpg,AMNE13.jpg,AMSA17.jpg,MS,2,num_6,32,num_8,0.900126660243,,,2017_Aug_09_1342,60.0066400123,FEMA4ImagesEEG,001,201117,
AFNE01.JPG,AFNE01.JPG,AFNE01.JPG,AFNE01.JPG,AFNE01.JPG,AFNE01.JPG,,,,,,,,,,,,,3,6,36,2,,,,,,,,,,,AMNE03.jpg,AMSA11.jpg,AMSA10.jpg,AMNE19.jpg,AMNE19.jpg,MN,1,num_4,32,num_6,0.466769880848,,,2017_Aug_09_1342,60.0066400123,FEMA4ImagesEEG,001,201117,
AFNE01.JPG,AFNE01.JPG,AFNE01.JPG,AFNE01.JPG,AFNE01.JPG,AFNE01.JPG,,,,,,,,,,,,,3,7,37,7,,,,,,,,,,,AMNE03.jpg,AMNE19.jpg,AMSA06.jpg,AMSA15.jpg,AMNE19.jpg,MN,1,num_6,16,num_6,0.700172462035,,,2017_Aug_09_1342,60.0066400123,FEMA4ImagesEEG,001,201117,
AFNE01.JPG,AFNE01.JPG,AFNE01.JPG,AFNE01.JPG,AFNE01.JPG,AFNE01.JPG,,,,,,,,,,,,,3,8,38,3,,,,,,,,,,,AMSA02.jpg,AMNE09.jpg,AMSA07.jpg,AMNE08.jpg,AMSA02.jpg,MS,2,num_8,16,num_8,0.900155847659,,,2017_Aug_09_1342,60.0066400123,FEMA4ImagesEEG,001,201117,
AFNE01.JPG,AFNE01.JPG,AFNE01.JPG,AFNE01.JPG,AFNE01.JPG,AFNE01.JPG,,,,,,,,,,,,,3,9,39,1,,,,,,,,,,,AMNE19.jpg,AMSA14.jpg,AMSA17.jpg,AMNE08.jpg,AMNE19.jpg,MN,1,num_8,32,num_4,0.900132433744,,,2017_Aug_09_1342,60.0066400123,FEMA4ImagesEEG,001,201117,
AFNE01.JPG,AFNE01.JPG,AFNE01.JPG,AFNE01.JPG,AFNE01.JPG,AFNE01.JPG,,,,,,,,,,,,,4,0,40,9,,,,,,,,,,,AMNE03.jpg,AMNE12.jpg,AMSA12.jpg,AMSA06.jpg,AMSA06.jpg,MS,2,num_4,32,num_8,1.30008124351,,,2017_Aug_09_1342,60.0066400123,FEMA4ImagesEEG,001,201117,
AFNE01.JPG,AFNE01.JPG,AFNE01.JPG,AFNE01.JPG,AFNE01.JPG,AFNE01.JPG,,,,,,,,,,,,,4,1,41,0,,,,,,,,,,,AMSA14.jpg,AMNE11.jpg,AMSA20.jpg,AMNE16.jpg,AMNE16.jpg,MN,1,num_4,32,num_6,0.816751871258,,,2017_Aug_09_1342,60.0066400123,FEMA4ImagesEEG,001,201117,
AFNE01.JPG,AFNE01.JPG,AFNE01.JPG,AFNE01.JPG,AFNE01.JPG,AFNE01.JPG,,,,,,,,,,,,,4,2,42,5,,,,,,,,,,,AMNE20.jpg,AMNE12.jpg,AMSA06.jpg,AMSA09.jpg,AMNE20.jpg,MN,1,num_8,16,num_8,0.850117823808,,,2017_Aug_09_1342,60.0066400123,FEMA4ImagesEEG,001,201117,
AFNE01.JPG,AFNE01.JPG,AFNE01.JPG,AFNE01.JPG,AFNE01.JPG,AFNE01.JPG,,,,,,,,,,,,,4,3,43,2,,,,,,,,,,,AMSA13.jpg,AMNE13.jpg,AMSA11.jpg,AMNE04.jpg,AMSA11.jpg,MS,2,num_2,32,num_4,1.43339302298,,,2017_Aug_09_1342,60.0066400123,FEMA4ImagesEEG,001,201117,
AFNE01.JPG,AFNE01.JPG,AFNE01.JPG,AFNE01.JPG,AFNE01.JPG,AFNE01.JPG,,,,,,,,,,,,,4,4,44,3,,,,,,,,,,,AMNE07.jpg,AMSA16.jpg,AMSA20.jpg,AMNE20.jpg,AMSA16.jpg,MS,2,num_6,32,num_8,2.19969824748,,,2017_Aug_09_1342,60.0066400123,FEMA4ImagesEEG,001,201117,
AFNE01.JPG,AFNE01.JPG,AFNE01.JPG,AFNE01.JPG,AFNE01.JPG,AFNE01.JPG,,,,,,,,,,,,,4,5,45,7,,,,,,,,,,,AMSA01.jpg,AMNE17.jpg,AMSA07.jpg,AMNE18.jpg,AMSA01.jpg,MS,2,num_8,16,num_8,0.666911712149,,,2017_Aug_09_1342,60.0066400123,FEMA4ImagesEEG,001,201117,
AFNE01.JPG,AFNE01.JPG,AFNE01.JPG,AFNE01.JPG,AFNE01.JPG,AFNE01.JPG,,,,,,,,,,,,,4,6,46,4,,,,,,,,,,,AMSA13.jpg,AMNE17.jpg,AMNE13.jpg,AMSA09.jpg,AMNE17.jpg,MN,1,num_6,16,num_6,0.916645096848,,,2017_Aug_09_1342,60.0066400123,FEMA4ImagesEEG,001,201117,
AFNE01.JPG,AFNE01.JPG,AFNE01.JPG,AFNE01.JPG,AFNE01.JPG,AFNE01.JPG,,,,,,,,,,,,,4,7,47,1,,,,,,,,,,,AMSA08.jpg,AMSA04.jpg,AMNE15.jpg,AMNE03.jpg,AMSA08.jpg,MS,2,num_8,32,num_2,1.30008316808,,,2017_Aug_09_1342,60.0066400123,FEMA4ImagesEEG,001,201117,
AFNE01.JPG,AFNE01.JPG,AFNE01.JPG,AFNE01.JPG,AFNE01.JPG,AFNE01.JPG,,,,,,,,,,,,,4,8,48,8,,,,,,,,,,,AMSA18.jpg,AMSA04.jpg,AMNE19.jpg,AMNE04.jpg,AMNE19.jpg,MN,1,num_2,16,num_2,0.916846521664,,,2017_Aug_09_1342,60.0066400123,FEMA4ImagesEEG,001,201117,
AFNE01.JPG,AFNE01.JPG,AFNE01.JPG,AFNE01.JPG,AFNE01.JPG,AFNE01.JPG,,,,,,,,,,,,,4,9,49,6,,,,,,,,,,,AMSA12.jpg,AMNE07.jpg,AMSA18.jpg,AMNE13.jpg,AMSA18.jpg,MS,2,num_2,16,num_2,0.433509451803,,,2017_Aug_09_1342,60.0066400123,FEMA4ImagesEEG,001,201117,
AFNE01.JPG,AFNE01.JPG,AFNE01.JPG,AFNE01.JPG,AFNE01.JPG,AFNE01.JPG,,,,,,,,,,,,,5,0,50,5,,,,,,,,,,,AMNE04.jpg,AMSA19.jpg,AMSA05.jpg,AMNE14.jpg,AMNE14.jpg,MN,1,num_4,16,num_4,0.450137902284,,,2017_Aug_09_1342,60.0066400123,FEMA4ImagesEEG,001,201117,
AFNE01.JPG,AFNE01.JPG,AFNE01.JPG,AFNE01.JPG,AFNE01.JPG,AFNE01.JPG,,,,,,,,,,,,,5,1,51,6,,,,,,,,,,,AMSA19.jpg,AMSA04.jpg,AMNE16.jpg,AMNE17.jpg,AMNE16.jpg,MN,1,num_2,32,num_8,2.8664720417,,,2017_Aug_09_1342,60.0066400123,FEMA4ImagesEEG,001,201117,
AFNE01.JPG,AFNE01.JPG,AFNE01.JPG,AFNE01.JPG,AFNE01.JPG,AFNE01.JPG,,,,,,,,,,,,,5,2,52,0,,,,,,,,,,,AMSA05.jpg,AMNE11.jpg,AMNE10.jpg,AMSA14.jpg,AMSA14.jpg,MS,2,num_4,16,num_4,0.800117326668,,,2017_Aug_09_1342,60.0066400123,FEMA4ImagesEEG,001,201117,
AFNE01.JPG,AFNE01.JPG,AFNE01.JPG,AFNE01.JPG,AFNE01.JPG,AFNE01.JPG,,,,,,,,,,,,,5,3,53,3,,,,,,,,,,,AMNE10.jpg,AMSA19.jpg,AMSA20.jpg,AMNE07.jpg,AMSA20.jpg,MS,2,num_2,16,num_2,1.54991501989,,,2017_Aug_09_1342,60.0066400123,FEMA4ImagesEEG,001,201117,
AFNE01.JPG,AFNE01.JPG,AFNE01.JPG,AFNE01.JPG,AFNE01.JPG,AFNE01.JPG,,,,,,,,,,,,,5,4,54,8,,,,,,,,,,,AMNE20.jpg,AMSA12.jpg,AMNE05.jpg,AMSA11.jpg,AMSA12.jpg,MS,2,num_6,32,num_2,0.68335124664,,,2017_Aug_09_1342,60.0066400123,FEMA4ImagesEEG,001,201117,
AFNE01.JPG,AFNE01.JPG,AFNE01.JPG,AFNE01.JPG,AFNE01.JPG,AFNE01.JPG,,,,,,,,,,,,,5,5,55,7,,,,,,,,,,,AMNE15.jpg,AMSA03.jpg,AMNE17.jpg,AMSA13.jpg,AMSA13.jpg,MS,2,num_4,32,num_8,1.0167788777,,,2017_Aug_09_1342,60.0066400123,FEMA4ImagesEEG,001,201117,
AFNE01.JPG,AFNE01.JPG,AFNE01.JPG,AFNE01.JPG,AFNE01.JPG,AFNE01.JPG,,,,,,,,,,,,,5,6,56,2,,,,,,,,,,,AMNE03.jpg,AMNE18.jpg,AMSA11.jpg,AMSA07.jpg,AMSA07.jpg,MS,2,num_4,16,num_4,0.81679934077,,,2017_Aug_09_1342,60.0066400123,FEMA4ImagesEEG,001,201117,
AFNE01.JPG,AFNE01.JPG,AFNE01.JPG,AFNE01.JPG,AFNE01.JPG,AFNE01.JPG,,,,,,,,,,,,,5,7,57,1,,,,,,,,,,,AMSA11.jpg,AMNE03.jpg,AMNE05.jpg,AMSA20.jpg,AMSA11.jpg,MS,2,num_8,32,num_6,0.916718225693,,,2017_Aug_09_1342,60.0066400123,FEMA4ImagesEEG,001,201117,
AFNE01.JPG,AFNE01.JPG,AFNE01.JPG,AFNE01.JPG,AFNE01.JPG,AFNE01.JPG,,,,,,,,,,,,,5,8,58,9,,,,,,,,,,,AMSA04.jpg,AMNE02.jpg,AMNE18.jpg,AMSA20.jpg,AMNE02.jpg,MN,1,num_6,16,num_6,0.950394654647,,,2017_Aug_09_1342,60.0066400123,FEMA4ImagesEEG,001,201117,
AFNE01.JPG,AFNE01.JPG,AFNE01.JPG,AFNE01.JPG,AFNE01.JPG,AFNE01.JPG,,,,,,,,,,,,,5,9,59,4,,,,,,,,,,,AMSA09.jpg,AMNE06.jpg,AMNE13.jpg,AMSA19.jpg,AMNE06.jpg,MN,1,num_6,16,num_6,1.38340599719,,,2017_Aug_09_1342,60.0066400123,FEMA4ImagesEEG,001,201117,
,,,,,,,,,,,,,,,,,,,,,,,,,,,,,,,,,,,,,,,,,,,space,2.91656811931,2017_Aug_09_1342,60.0066400123,FEMA4ImagesEEG,001,201117,
AFNE01.JPG,AFNE01.JPG,AFNE01.JPG,AFNE01.JPG,AFNE01.JPG,AFNE01.JPG,,,,,,,,,,,,,,,,,0,0,0,2,,,,,,,AFNE17.jpg,AFSA16.jpg,AFSA11.jpg,AFNE08.jpg,AFSA16.jpg,FS,4,num_6,16,num_6,0.733474266483,,,2017_Aug_09_1342,60.0066400123,FEMA4ImagesEEG,001,201117,
AFNE01.JPG,AFNE01.JPG,AFNE01.JPG,AFNE01.JPG,AFNE01.JPG,AFNE01.JPG,,,,,,,,,,,,,,,,,0,1,1,4,,,,,,,AFSA04.jpg,AFSA11.jpg,AFNE06.jpg,AFNE07.jpg,AFNE06.jpg,FN,3,num_2,32,num_4,0.600095452275,,,2017_Aug_09_1342,60.0066400123,FEMA4ImagesEEG,001,201117,
AFNE01.JPG,AFNE01.JPG,AFNE01.JPG,AFNE01.JPG,AFNE01.JPG,AFNE01.JPG,,,,,,,,,,,,,,,,,0,2,2,5,,,,,,,AFNE19.jpg,AFSA08.jpg,AFSA15.jpg,AFNE15.jpg,AFSA08.jpg,FS,4,num_6,16,num_6,0.750114263501,,,2017_Aug_09_1342,60.0066400123,FEMA4ImagesEEG,001,201117,
AFNE01.JPG,AFNE01.JPG,AFNE01.JPG,AFNE01.JPG,AFNE01.JPG,AFNE01.JPG,,,,,,,,,,,,,,,,,0,3,3,7,,,,,,,AFSA01.jpg,AFSA05.jpg,AFNE03.jpg,AFNE02.jpg,AFNE03.jpg,FN,3,num_2,32,num_8,0.716800912283,,,2017_Aug_09_1342,60.0066400123,FEMA4ImagesEEG,001,201117,
AFNE01.JPG,AFNE01.JPG,AFNE01.JPG,AFNE01.JPG,AFNE01.JPG,AFNE01.JPG,,,,,,,,,,,,,,,,,0,4,4,3,,,,,,,AFSA20.jpg,AFSA10.jpg,AFNE01.jpg,AFNE04.jpg,AFNE01.jpg,FN,3,num_2,16,num_2,0.85011237138,,,2017_Aug_09_1342,60.0066400123,FEMA4ImagesEEG,001,201117,
AFNE01.JPG,AFNE01.JPG,AFNE01.JPG,AFNE01.JPG,AFNE01.JPG,AFNE01.JPG,,,,,,,,,,,,,,,,,0,5,5,6,,,,,,,AFSA12.jpg,AFSA09.jpg,AFNE08.jpg,AFNE18.jpg,AFNE18.jpg,FN,3,num_4,32,num_6,0.766754260985,,,2017_Aug_09_1342,60.0066400123,FEMA4ImagesEEG,001,201117,
AFNE01.JPG,AFNE01.JPG,AFNE01.JPG,AFNE01.JPG,AFNE01.JPG,AFNE01.JPG,,,,,,,,,,,,,,,,,0,6,6,8,,,,,,,AFSA05.jpg,AFNE10.jpg,AFSA18.jpg,AFNE19.jpg,AFSA05.jpg,FS,4,num_8,32,num_4,1.3834223547,,,2017_Aug_09_1342,60.0066400123,FEMA4ImagesEEG,001,201117,
AFNE01.JPG,AFNE01.JPG,AFNE01.JPG,AFNE01.JPG,AFNE01.JPG,AFNE01.JPG,,,,,,,,,,,,,,,,,0,7,7,0,,,,,,,AFSA20.jpg,AFNE18.jpg,AFNE06.jpg,AFSA07.jpg,AFNE06.jpg,FN,3,num_2,16,num_2,0.96679088939,,,2017_Aug_09_1342,60.0066400123,FEMA4ImagesEEG,001,201117,
AFNE01.JPG,AFNE01.JPG,AFNE01.JPG,AFNE01.JPG,AFNE01.JPG,AFNE01.JPG,,,,,,,,,,,,,,,,,0,8,8,9,,,,,,,AFSA17.jpg,AFSA20.jpg,AFNE20.jpg,AFNE17.jpg,AFSA17.jpg,FS,4,num_8,16,num_8,0.800192379858,,,2017_Aug_09_1342,60.0066400123,FEMA4ImagesEEG,001,201117,
AFNE01.JPG,AFNE01.JPG,AFNE01.JPG,AFNE01.JPG,AFNE01.JPG,AFNE01.JPG,,,,,,,,,,,,,,,,,0,9,9,1,,,,,,,AFSA13.jpg,AFNE05.jpg,AFSA09.jpg,AFNE02.jpg,AFNE05.jpg,FN,3,num_6,32,num_2,0.916739715263,,,2017_Aug_09_1342,60.0066400123,FEMA4ImagesEEG,001,201117,
AFNE01.JPG,AFNE01.JPG,AFNE01.JPG,AFNE01.JPG,AFNE01.JPG,AFNE01.JPG,,,,,,,,,,,,,,,,,1,0,10,8,,,,,,,AFSA11.jpg,AFSA02.jpg,AFNE11.jpg,AFNE19.jpg,AFSA02.jpg,FS,4,num_6,16,num_6,0.850186462281,,,2017_Aug_09_1342,60.0066400123,FEMA4ImagesEEG,001,201117,
AFNE01.JPG,AFNE01.JPG,AFNE01.JPG,AFNE01.JPG,AFNE01.JPG,AFNE01.JPG,,,,,,,,,,,,,,,,,1,1,11,0,,,,,,,AFNE17.jpg,AFNE15.jpg,AFSA02.jpg,AFSA18.jpg,AFNE15.jpg,FN,3,num_6,16,num_6,0.416883567115,,,2017_Aug_09_1342,60.0066400123,FEMA4ImagesEEG,001,201117,
AFNE01.JPG,AFNE01.JPG,AFNE01.JPG,AFNE01.JPG,AFNE01.JPG,AFNE01.JPG,,,,,,,,,,,,,,,,,1,2,12,6,,,,,,,AFNE17.jpg,AFSA12.jpg,AFSA02.jpg,AFNE20.jpg,AFNE17.jpg,FN,3,num_8,32,num_2,1.11671636533,,,2017_Aug_09_1342,60.0066400123,FEMA4ImagesEEG,001,201117,
AFNE01.JPG,AFNE01.JPG,AFNE01.JPG,AFNE01.JPG,AFNE01.JPG,AFNE01.JPG,,,,,,,,,,,,,,,,,1,3,13,3,,,,,,,AFSA11.jpg,AFNE19.jpg,AFNE09.jpg,AFSA13.jpg,AFSA13.jpg,FS,4,num_4,32,num_8,0.833463072777,,,2017_Aug_09_1342,60.0066400123,FEMA4ImagesEEG,001,201117,
AFNE01.JPG,AFNE01.JPG,AFNE01.JPG,AFNE01.JPG,AFNE01.JPG,AFNE01.JPG,,,,,,,,,,,,,,,,,1,4,14,1,,,,,,,AFSA07.jpg,AFSA10.jpg,AFNE05.jpg,AFNE16.jpg,AFNE16.jpg,FN,3,num_4,16,num_4,1.35006955266,,,2017_Aug_09_1342,60.0066400123,FEMA4ImagesEEG,001,201117,
AFNE01.JPG,AFNE01.JPG,AFNE01.JPG,AFNE01.JPG,AFNE01.JPG,AFNE01.JPG,,,,,,,,,,,,,,,,,1,5,15,7,,,,,,,AFNE11.jpg,AFNE03.jpg,AFSA16.jpg,AFSA13.jpg,AFNE11.jpg,FN,3,num_8,16,num_8,0.733500888105,,,2017_Aug_09_1342,60.0066400123,FEMA4ImagesEEG,001,201117,
AFNE01.JPG,AFNE01.JPG,AFNE01.JPG,AFNE01.JPG,AFNE01.JPG,AFNE01.JPG,,,,,,,,,,,,,,,,,1,6,16,4,,,,,,,AFSA15.jpg,AFNE07.jpg,AFNE06.jpg,AFSA20.jpg,AFNE06.jpg,FN,3,num_2,32,num_4,0.800159022911,,,2017_Aug_09_1342,60.0066400123,FEMA4ImagesEEG,001,201117,
AFNE01.JPG,AFNE01.JPG,AFNE01.JPG,AFNE01.JPG,AFNE01.JPG,AFNE01.JPG,,,,,,,,,,,,,,,,,1,7,17,9,,,,,,,AFSA10.jpg,AFNE19.jpg,AFNE05.jpg,AFSA18.jpg,AFNE05.jpg,FN,3,num_2,32,num_6,0.733334103134,,,2017_Aug_09_1342,60.0066400123,FEMA4ImagesEEG,001,201117,
AFNE01.JPG,AFNE01.JPG,AFNE01.JPG,AFNE01.JPG,AFNE01.JPG,AFNE01.JPG,,,,,,,,,,,,,,,,,1,8,18,2,,,,,,,AFNE07.jpg,AFSA20.jpg,AFNE13.jpg,AFSA08.jpg,AFNE13.jpg,FN,3,num_2,16,num_2,1.76669171639,,,2017_Aug_09_1342,60.0066400123,FEMA4ImagesEEG,001,201117,
AFNE01.JPG,AFNE01.JPG,AFNE01.JPG,AFNE01.JPG,AFNE01.JPG,AFNE01.JPG,,,,,,,,,,,,,,,,,1,9,19,5,,,,,,,AFSA11.jpg,AFSA03.jpg,AFNE01.jpg,AFNE12.jpg,AFNE01.jpg,FN,3,num_2,32,num_6,0.816819868283,,,2017_Aug_09_1342,60.0066400123,FEMA4ImagesEEG,001,201117,
AFNE01.JPG,AFNE01.JPG,AFNE01.JPG,AFNE01.JPG,AFNE01.JPG,AFNE01.JPG,,,,,,,,,,,,,,,,,2,0,20,0,,,,,,,AFSA17.jpg,AFNE17.jpg,AFSA04.jpg,AFNE01.jpg,AFSA04.jpg,FS,4,num_2,32,num_8,0.966776455985,,,2017_Aug_09_1342,60.0066400123,FEMA4ImagesEEG,001,201117,
AFNE01.JPG,AFNE01.JPG,AFNE01.JPG,AFNE01.JPG,AFNE01.JPG,AFNE01.JPG,,,,,,,,,,,,,,,,,2,1,21,9,,,,,,,AFNE07.jpg,AFNE12.jpg,AFSA10.jpg,AFSA02.jpg,AFSA10.jpg,FS,4,num_2,16,num_2,1.6171315636,,,2017_Aug_09_1342,60.0066400123,FEMA4ImagesEEG,001,201117,
AFNE01.JPG,AFNE01.JPG,AFNE01.JPG,AFNE01.JPG,AFNE01.JPG,AFNE01.JPG,,,,,,,,,,,,,,,,,2,2,22,6,,,,,,,AFSA16.jpg,AFSA03.jpg,AFNE10.jpg,AFNE04.jpg,AFNE10.jpg,FN,3,num_2,32,num_8,0.783451349474,,,2017_Aug_09_1342,60.0066400123,FEMA4ImagesEEG,001,201117,
AFNE01.JPG,AFNE01.JPG,AFNE01.JPG,AFNE01.JPG,AFNE01.JPG,AFNE01.JPG,,,,,,,,,,,,,,,,,2,3,23,8,,,,,,,AFNE06.jpg,AFSA04.jpg,AFSA01.jpg,AFNE12.jpg,AFSA01.jpg,FS,4,num_2,32,num_6,0.650151758222,,,2017_Aug_09_1342,60.0066400123,FEMA4ImagesEEG,001,201117,
AFNE01.JPG,AFNE01.JPG,AFNE01.JPG,AFNE01.JPG,AFNE01.JPG,AFNE01.JPG,,,,,,,,,,,,,,,,,2,4,24,3,,,,,,,AFSA16.jpg,AFSA01.jpg,AFNE17.jpg,AFNE04.jpg,AFNE04.jpg,FN,3,num_4,16,num_4,0.516792509006,,,2017_Aug_09_1342,60.0066400123,FEMA4ImagesEEG,001,201117,
AFNE01.JPG,AFNE01.JPG,AFNE01.JPG,AFNE01.JPG,AFNE01.JPG,AFNE01.JPG,,,,,,,,,,,,,,,,,2,5,25,7,,,,,,,AFSA10.jpg,AFNE02.jpg,AFSA13.jpg,AFNE10.jpg,AFNE02.jpg,FN,3,num_6,16,num_6,0.833463714225,,,2017_Aug_09_1342,60.0066400123,FEMA4ImagesEEG,001,201117,
AFNE01.JPG,AFNE01.JPG,AFNE01.JPG,AFNE01.JPG,AFNE01.JPG,AFNE01.JPG,,,,,,,,,,,,,,,,,2,6,26,5,,,,,,,AFSA09.jpg,AFNE12.jpg,AFSA02.jpg,AFNE15.jpg,AFSA09.jpg,FS,4,num_8,32,num_6,0.950120422058,,,2017_Aug_09_1342,60.0066400123,FEMA4ImagesEEG,001,201117,
AFNE01.JPG,AFNE01.JPG,AFNE01.JPG,AFNE01.JPG,AFNE01.JPG,AFNE01.JPG,,,,,,,,,,,,,,,,,2,7,27,1,,,,,,,AFNE02.jpg,AFNE05.jpg,AFSA07.jpg,AFSA10.jpg,AFNE05.jpg,FN,3,num_6,16,num_6,0.433529979084,,,2017_Aug_09_1342,60.0066400123,FEMA4ImagesEEG,001,201117,
AFNE01.JPG,AFNE01.JPG,AFNE01.JPG,AFNE01.JPG,AFNE01.JPG,AFNE01.JPG,,,,,,,,,,,,,,,,,2,8,28,2,,,,,,,AFNE03.jpg,AFSA03.jpg,AFNE20.jpg,AFSA12.jpg,AFNE03.jpg,FN,3,num_8,32,num_2,0.650130589493,,,2017_Aug_09_1342,60.0066400123,FEMA4ImagesEEG,001,201117,
AFNE01.JPG,AFNE01.JPG,AFNE01.JPG,AFNE01.JPG,AFNE01.JPG,AFNE01.JPG,,,,,,,,,,,,,,,,,2,9,29,4,,,,,,,AFSA09.jpg,AFNE04.jpg,AFNE18.jpg,AFSA16.jpg,AFSA09.jpg,FS,4,num_8,32,num_2,0.916842672974,,,2017_Aug_09_1342,60.0066400123,FEMA4ImagesEEG,001,201117,
AFNE01.JPG,AFNE01.JPG,AFNE01.JPG,AFNE01.JPG,AFNE01.JPG,AFNE01.JPG,,,,,,,,,,,,,,,,,3,0,30,6,,,,,,,AFNE18.jpg,AFNE04.jpg,AFSA16.jpg,AFSA05.jpg,AFSA05.jpg,FS,4,num_4,32,num_8,0.683331039967,,,2017_Aug_09_1342,60.0066400123,FEMA4ImagesEEG,001,201117,
AFNE01.JPG,AFNE01.JPG,AFNE01.JPG,AFNE01.JPG,AFNE01.JPG,AFNE01.JPG,,,,,,,,,,,,,,,,,3,1,31,5,,,,,,,AFNE10.jpg,AFSA12.jpg,AFNE12.jpg,AFSA15.jpg,AFSA12.jpg,FS,4,num_6,16,num_6,0.383489068598,,,2017_Aug_09_1342,60.0066400123,FEMA4ImagesEEG,001,201117,
AFNE01.JPG,AFNE01.JPG,AFNE01.JPG,AFNE01.JPG,AFNE01.JPG,AFNE01.JPG,,,,,,,,,,,,,,,,,3,2,32,1,,,,,,,AFNE16.jpg,AFSA20.jpg,AFSA07.jpg,AFNE04.jpg,AFNE04.jpg,FN,3,num_4,32,num_8,0.583451927174,,,2017_Aug_09_1342,60.0066400123,FEMA4ImagesEEG,001,201117,
AFNE01.JPG,AFNE01.JPG,AFNE01.JPG,AFNE01.JPG,AFNE01.JPG,AFNE01.JPG,,,,,,,,,,,,,,,,,3,3,33,3,,,,,,,AFNE16.jpg,AFSA09.jpg,AFSA15.jpg,AFNE18.jpg,AFNE16.jpg,FN,3,num_8,16,num_8,0.700173103483,,,2017_Aug_09_1342,60.0066400123,FEMA4ImagesEEG,001,201117,
AFNE01.JPG,AFNE01.JPG,AFNE01.JPG,AFNE01.JPG,AFNE01.JPG,AFNE01.JPG,,,,,,,,,,,,,,,,,3,4,34,4,,,,,,,AFSA18.jpg,AFNE10.jpg,AFSA13.jpg,AFNE08.jpg,AFSA13.jpg,FS,4,num_2,16,num_2,0.416796005098,,,2017_Aug_09_1342,60.0066400123,FEMA4ImagesEEG,001,201117,
AFNE01.JPG,AFNE01.JPG,AFNE01.JPG,AFNE01.JPG,AFNE01.JPG,AFNE01.JPG,,,,,,,,,,,,,,,,,3,5,35,0,,,,,,,AFNE07.jpg,AFSA07.jpg,AFNE01.jpg,AFSA13.jpg,AFNE01.jpg,FN,3,num_2,32,num_6,0.716873079073,,,2017_Aug_09_1342,60.0066400123,FEMA4ImagesEEG,001,201117,
AFNE01.JPG,AFNE01.JPG,AFNE01.JPG,AFNE01.JPG,AFNE01.JPG,AFNE01.JPG,,,,,,,,,,,,,,,,,3,6,36,7,,,,,,,AFSA15.jpg,AFNE07.jpg,AFSA03.jpg,AFNE04.jpg,AFSA03.jpg,FS,4,num_2,16,num_2,1.00012476789,,,2017_Aug_09_1342,60.0066400123,FEMA4ImagesEEG,001,201117,
AFNE01.JPG,AFNE01.JPG,AFNE01.JPG,AFNE01.JPG,AFNE01.JPG,AFNE01.JPG,,,,,,,,,,,,,,,,,3,7,37,8,,,,,,,AFNE10.jpg,AFSA05.jpg,AFNE13.jpg,AFSA14.jpg,AFNE13.jpg,FN,3,num_2,32,num_8,1.09995673201,,,2017_Aug_09_1342,60.0066400123,FEMA4ImagesEEG,001,201117,
AFNE01.JPG,AFNE01.JPG,AFNE01.JPG,AFNE01.JPG,AFNE01.JPG,AFNE01.JPG,,,,,,,,,,,,,,,,,3,8,38,2,,,,,,,AFSA18.jpg,AFSA04.jpg,AFNE05.jpg,AFNE08.jpg,AFNE08.jpg,FN,3,num_4,32,num_8,1.25011314102,,,2017_Aug_09_1342,60.0066400123,FEMA4ImagesEEG,001,201117,
AFNE01.JPG,AFNE01.JPG,AFNE01.JPG,AFNE01.JPG,AFNE01.JPG,AFNE01.JPG,,,,,,,,,,,,,,,,,3,9,39,9,,,,,,,AFSA04.jpg,AFNE15.jpg,AFSA08.jpg,AFNE17.jpg,AFSA08.jpg,FS,4,num_2,32,num_8,0.750187392347,,,2017_Aug_09_1342,60.0066400123,FEMA4ImagesEEG,001,201117,
AFNE01.JPG,AFNE01.JPG,AFNE01.JPG,AFNE01.JPG,AFNE01.JPG,AFNE01.JPG,,,,,,,,,,,,,,,,,4,0,40,8,,,,,,,AFSA16.jpg,AFNE06.jpg,AFNE11.jpg,AFSA02.jpg,AFNE06.jpg,FN,3,num_6,16,num_6,0.583480152069,,,2017_Aug_09_1342,60.0066400123,FEMA4ImagesEEG,001,201117,
AFNE01.JPG,AFNE01.JPG,AFNE01.JPG,AFNE01.JPG,AFNE01.JPG,AFNE01.JPG,,,,,,,,,,,,,,,,,4,1,41,3,,,,,,,AFSA03.jpg,AFNE11.jpg,AFNE12.jpg,AFSA16.jpg,AFNE12.jpg,FN,3,num_2,32,num_8,0.733455342939,,,2017_Aug_09_1342,60.0066400123,FEMA4ImagesEEG,001,201117,
AFNE01.JPG,AFNE01.JPG,AFNE01.JPG,AFNE01.JPG,AFNE01.JPG,AFNE01.JPG,,,,,,,,,,,,,,,,,4,2,42,0,,,,,,,AFNE09.jpg,AFNE15.jpg,AFSA10.jpg,AFSA01.jpg,AFSA10.jpg,FS,4,num_2,16,num_2,1.88328587986,,,2017_Aug_09_1342,60.0066400123,FEMA4ImagesEEG,001,201117,
AFNE01.JPG,AFNE01.JPG,AFNE01.JPG,AFNE01.JPG,AFNE01.JPG,AFNE01.JPG,,,,,,,,,,,,,,,,,4,3,43,4,,,,,,,AFSA06.jpg,AFSA07.jpg,AFNE09.jpg,AFNE17.jpg,AFNE17.jpg,FN,3,num_4,16,num_4,0.983445961261,,,2017_Aug_09_1342,60.0066400123,FEMA4ImagesEEG,001,201117,
AFNE01.JPG,AFNE01.JPG,AFNE01.JPG,AFNE01.JPG,AFNE01.JPG,AFNE01.JPG,,,,,,,,,,,,,,,,,4,4,44,1,,,,,,,AFSA17.jpg,AFNE02.jpg,AFNE11.jpg,AFSA15.jpg,AFNE11.jpg,FN,3,num_2,32,num_8,0.566858437145,,,2017_Aug_09_1342,60.0066400123,FEMA4ImagesEEG,001,201117,
AFNE01.JPG,AFNE01.JPG,AFNE01.JPG,AFNE01.JPG,AFNE01.JPG,AFNE01.JPG,,,,,,,,,,,,,,,,,4,5,45,9,,,,,,,AFSA18.jpg,AFSA11.jpg,AFNE02.jpg,AFNE17.jpg,AFSA18.jpg,FS,4,num_8,32,num_2,0.800141702872,,,2017_Aug_09_1342,60.0066400123,FEMA4ImagesEEG,001,201117,
AFNE01.JPG,AFNE01.JPG,AFNE01.JPG,AFNE01.JPG,AFNE01.JPG,AFNE01.JPG,,,,,,,,,,,,,,,,,4,6,46,6,,,,,,,AFSA11.jpg,AFNE01.jpg,AFNE13.jpg,AFSA10.jpg,AFSA10.jpg,FS,4,num_4,32,num_2,1.30006328202,,,2017_Aug_09_1342,60.0066400123,FEMA4ImagesEEG,001,201117,
AFNE01.JPG,AFNE01.JPG,AFNE01.JPG,AFNE01.JPG,AFNE01.JPG,AFNE01.JPG,,,,,,,,,,,,,,,,,4,7,47,5,,,,,,,AFNE04.jpg,AFSA20.jpg,AFSA08.jpg,AFNE19.jpg,AFNE19.jpg,FN,3,num_4,32,num_6,0.600195843959,,,2017_Aug_09_1342,60.0066400123,FEMA4ImagesEEG,001,201117,
AFNE01.JPG,AFNE01.JPG,AFNE01.JPG,AFNE01.JPG,AFNE01.JPG,AFNE01.JPG,,,,,,,,,,,,,,,,,4,8,48,2,,,,,,,AFNE06.jpg,AFNE10.jpg,AFSA07.jpg,AFSA19.jpg,AFSA19.jpg,FS,4,num_4,32,num_2,0.583481755806,,,2017_Aug_09_1342,60.0066400123,FEMA4ImagesEEG,001,201117,
AFNE01.JPG,AFNE01.JPG,AFNE01.JPG,AFNE01.JPG,AFNE01.JPG,AFNE01.JPG,,,,,,,,,,,,,,,,,4,9,49,7,,,,,,,AFSA16.jpg,AFNE02.jpg,AFSA18.jpg,AFNE17.jpg,AFSA18.jpg,FS,4,num_2,16,num_2,0.783445576206,,,2017_Aug_09_1342,60.0066400123,FEMA4ImagesEEG,001,201117,
AFNE01.JPG,AFNE01.JPG,AFNE01.JPG,AFNE01.JPG,AFNE01.JPG,AFNE01.JPG,,,,,,,,,,,,,,,,,5,0,50,8,,,,,,,AFSA20.jpg,AFNE13.jpg,AFSA14.jpg,AFNE05.jpg,AFNE13.jpg,FN,3,num_6,16,num_6,0.633476158837,,,2017_Aug_09_1342,60.0066400123,FEMA4ImagesEEG,001,201117,
AFNE01.JPG,AFNE01.JPG,AFNE01.JPG,AFNE01.JPG,AFNE01.JPG,AFNE01.JPG,,,,,,,,,,,,,,,,,5,1,51,3,,,,,,,AFSA20.jpg,AFNE16.jpg,AFNE01.jpg,AFSA16.jpg,AFSA16.jpg,FS,4,num_4,16,num_4,0.433499829611,,,2017_Aug_09_1342,60.0066400123,FEMA4ImagesEEG,001,201117,
AFNE01.JPG,AFNE01.JPG,AFNE01.JPG,AFNE01.JPG,AFNE01.JPG,AFNE01.JPG,,,,,,,,,,,,,,,,,5,2,52,1,,,,,,,AFNE14.jpg,AFSA17.jpg,AFSA14.jpg,AFNE20.jpg,AFNE20.jpg,FN,3,num_4,16,num_4,2.7332972181,,,2017_Aug_09_1342,60.0066400123,FEMA4ImagesEEG,001,201117,
AFNE01.JPG,AFNE01.JPG,AFNE01.JPG,AFNE01.JPG,AFNE01.JPG,AFNE01.JPG,,,,,,,,,,,,,,,,,5,3,53,4,,,,,,,AFNE13.jpg,AFNE12.jpg,AFSA13.jpg,AFSA15.jpg,AFNE13.jpg,FN,3,num_8,32,num_4,0.866810743231,,,2017_Aug_09_1342,60.0066400123,FEMA4ImagesEEG,001,201117,
AFNE01.JPG,AFNE01.JPG,AFNE01.JPG,AFNE01.JPG,AFNE01.JPG,AFNE01.JPG,,,,,,,,,,,,,,,,,5,4,54,0,,,,,,,AFSA05.jpg,AFSA19.jpg,AFNE09.jpg,AFNE05.jpg,AFSA05.jpg,FS,4,num_8,32,num_2,0.766743035056,,,2017_Aug_09_1342,60.0066400123,FEMA4ImagesEEG,001,201117,
AFNE01.JPG,AFNE01.JPG,AFNE01.JPG,AFNE01.JPG,AFNE01.JPG,AFNE01.JPG,,,,,,,,,,,,,,,,,5,5,55,7,,,,,,,AFNE10.jpg,AFSA08.jpg,AFNE06.jpg,AFSA13.jpg,AFSA08.jpg,FS,4,num_6,16,num_6,0.633467178093,,,2017_Aug_09_1342,60.0066400123,FEMA4ImagesEEG,001,201117,
AFNE01.JPG,AFNE01.JPG,AFNE01.JPG,AFNE01.JPG,AFNE01.JPG,AFNE01.JPG,,,,,,,,,,,,,,,,,5,6,56,5,,,,,,,AFNE06.jpg,AFSA13.jpg,AFSA15.jpg,AFNE20.jpg,AFSA13.jpg,FS,4,num_6,16,num_6,0.716729066567,,,2017_Aug_09_1342,60.0066400123,FEMA4ImagesEEG,001,201117,
AFNE01.JPG,AFNE01.JPG,AFNE01.JPG,AFNE01.JPG,AFNE01.JPG,AFNE01.JPG,,,,,,,,,,,,,,,,,5,7,57,2,,,,,,,AFNE19.jpg,AFSA02.jpg,AFNE12.jpg,AFSA04.jpg,AFSA02.jpg,FS,4,num_6,32,num_2,0.683460619068,,,2017_Aug_09_1342,60.0066400123,FEMA4ImagesEEG,001,201117,
AFNE01.JPG,AFNE01.JPG,AFNE01.JPG,AFNE01.JPG,AFNE01.JPG,AFNE01.JPG,,,,,,,,,,,,,,,,,5,8,58,6,,,,,,,AFSA20.jpg,AFNE09.jpg,AFSA06.jpg,AFNE20.jpg,AFNE20.jpg,FN,3,num_4,32,num_6,0.566820269218,,,2017_Aug_09_1342,60.0066400123,FEMA4ImagesEEG,001,201117,
AFNE01.JPG,AFNE01.JPG,AFNE01.JPG,AFNE01.JPG,AFNE01.JPG,AFNE01.JPG,,,,,,,,,,,,,,,,,5,9,59,9,,,,,,,AFNE08.jpg,AFSA13.jpg,AFSA20.jpg,AFNE11.jpg,AFSA13.jpg,FS,4,num_6,32,num_4,0.683473769575,,,2017_Aug_09_1342,60.0066400123,FEMA4ImagesEEG,001,201117,
,,,,,,,,,,,,,,,,,,,,,,,,,,,,,,,,,,,,,,,,,,,space,2.11664259504,2017_Aug_09_1342,60.0066400123,FEMA4ImagesEEG,001,201117,
AFNE01.JPG,AFNE01.JPG,AFNE01.JPG,AFNE01.JPG,AFNE01.JPG,AFNE01.JPG,,,,,,,,,,,,,,,,,,,,,0,0,0,0,,,AMNE05.jpg,AMSA17.jpg,AMNE07.jpg,AMSA09.jpg,AMNE05.jpg,MN,1,num_8,16,num_8,0.783501705853,,,2017_Aug_09_1342,60.0066400123,FEMA4ImagesEEG,001,201117,
AFNE01.JPG,AFNE01.JPG,AFNE01.JPG,AFNE01.JPG,AFNE01.JPG,AFNE01.JPG,,,,,,,,,,,,,,,,,,,,,0,1,1,7,,,AMNE05.jpg,AMSA06.jpg,AMNE02.jpg,AMSA08.jpg,AMNE05.jpg,MN,1,num_8,16,num_8,0.666762567824,,,2017_Aug_09_1342,60.0066400123,FEMA4ImagesEEG,001,201117,
AFNE01.JPG,AFNE01.JPG,AFNE01.JPG,AFNE01.JPG,AFNE01.JPG,AFNE01.JPG,,,,,,,,,,,,,,,,,,,,,0,2,2,4,,,AMSA03.jpg,AMNE04.jpg,AMNE13.jpg,AMSA16.jpg,AMNE13.jpg,MN,1,num_2,32,num_4,0.600164732197,,,2017_Aug_09_1342,60.0066400123,FEMA4ImagesEEG,001,201117,
AFNE01.JPG,AFNE01.JPG,AFNE01.JPG,AFNE01.JPG,AFNE01.JPG,AFNE01.JPG,,,,,,,,,,,,,,,,,,,,,0,3,3,2,,,AMNE20.jpg,AMSA05.jpg,AMNE01.jpg,AMSA10.jpg,AMSA05.jpg,MS,2,num_6,32,num_8,0.650125778047,,,2017_Aug_09_1342,60.0066400123,FEMA4ImagesEEG,001,201117,
AFNE01.JPG,AFNE01.JPG,AFNE01.JPG,AFNE01.JPG,AFNE01.JPG,AFNE01.JPG,,,,,,,,,,,,,,,,,,,,,0,4,4,9,,,AMNE06.jpg,AMNE03.jpg,AMSA11.jpg,AMSA12.jpg,AMNE06.jpg,MN,1,num_8,16,num_8,0.466697072843,,,2017_Aug_09_1342,60.0066400123,FEMA4ImagesEEG,001,201117,
AFNE01.JPG,AFNE01.JPG,AFNE01.JPG,AFNE01.JPG,AFNE01.JPG,AFNE01.JPG,,,,,,,,,,,,,,,,,,,,,0,5,5,8,,,AMNE17.jpg,AMSA14.jpg,AMNE04.jpg,AMSA09.jpg,AMNE04.jpg,MN,1,num_2,32,num_6,0.816753474995,,,2017_Aug_09_1342,60.0066400123,FEMA4ImagesEEG,001,201117,
AFNE01.JPG,AFNE01.JPG,AFNE01.JPG,AFNE01.JPG,AFNE01.JPG,AFNE01.JPG,,,,,,,,,,,,,,,,,,,,,0,6,6,3,,,AMNE03.jpg,AMNE10.jpg,AMSA06.jpg,AMSA09.jpg,AMNE03.jpg,MN,1,num_8,32,num_4,0.8334669217,,,2017_Aug_09_1342,60.0066400123,FEMA4ImagesEEG,001,201117,
AFNE01.JPG,AFNE01.JPG,AFNE01.JPG,AFNE01.JPG,AFNE01.JPG,AFNE01.JPG,,,,,,,,,,,,,,,,,,,,,0,7,7,5,,,AMSA20.jpg,AMSA11.jpg,AMNE12.jpg,AMNE20.jpg,AMNE12.jpg,MN,1,num_2,32,num_6,0.766752336407,,,2017_Aug_09_1342,60.0066400123,FEMA4ImagesEEG,001,201117,
AFNE01.JPG,AFNE01.JPG,AFNE01.JPG,AFNE01.JPG,AFNE01.JPG,AFNE01.JPG,,,,,,,,,,,,,,,,,,,,,0,8,8,1,,,AMSA15.jpg,AMNE04.jpg,AMSA07.jpg,AMNE12.jpg,AMSA07.jpg,MS,2,num_2,16,num_2,1.48324148939,,,2017_Aug_09_1342,60.0066400123,FEMA4ImagesEEG,001,201117,
AFNE01.JPG,AFNE01.JPG,AFNE01.JPG,AFNE01.JPG,AFNE01.JPG,AFNE01.JPG,,,,,,,,,,,,,,,,,,,,,0,9,9,6,,,AMSA07.jpg,AMSA04.jpg,AMNE06.jpg,AMNE12.jpg,AMNE06.jpg,MN,1,num_2,32,num_8,1.23346608761,,,2017_Aug_09_1342,60.0066400123,FEMA4ImagesEEG,001,201117,
AFNE01.JPG,AFNE01.JPG,AFNE01.JPG,AFNE01.JPG,AFNE01.JPG,AFNE01.JPG,,,,,,,,,,,,,,,,,,,,,1,0,10,1,,,AMSA12.jpg,AMNE10.jpg,AMNE04.jpg,AMSA07.jpg,AMSA12.jpg,MS,2,num_8,32,num_6,1.91693825345,,,2017_Aug_09_1342,60.0066400123,FEMA4ImagesEEG,001,201117,
AFNE01.JPG,AFNE01.JPG,AFNE01.JPG,AFNE01.JPG,AFNE01.JPG,AFNE01.JPG,,,,,,,,,,,,,,,,,,,,,1,1,11,7,,,AMSA05.jpg,AMSA16.jpg,AMNE20.jpg,AMNE04.jpg,AMNE04.jpg,MN,1,num_4,16,num_4,0.750176166417,,,2017_Aug_09_1342,60.0066400123,FEMA4ImagesEEG,001,201117,
AFNE01.JPG,AFNE01.JPG,AFNE01.JPG,AFNE01.JPG,AFNE01.JPG,AFNE01.JPG,,,,,,,,,,,,,,,,,,,,,1,2,12,8,,,AMSA15.jpg,AMSA11.jpg,AMNE16.jpg,AMNE20.jpg,AMSA15.jpg,MS,2,num_8,32,num_6,0.550115482416,,,2017_Aug_09_1342,60.0066400123,FEMA4ImagesEEG,001,201117,
AFNE01.JPG,AFNE01.JPG,AFNE01.JPG,AFNE01.JPG,AFNE01.JPG,AFNE01.JPG,,,,,,,,,,,,,,,,,,,,,1,3,13,4,,,AMSA18.jpg,AMSA10.jpg,AMNE10.jpg,AMNE06.jpg,AMNE10.jpg,MN,1,num_2,32,num_8,1.29977782327,,,2017_Aug_09_1342,60.0066400123,FEMA4ImagesEEG,001,201117,
AFNE01.JPG,AFNE01.JPG,AFNE01.JPG,AFNE01.JPG,AFNE01.JPG,AFNE01.JPG,,,,,,,,,,,,,,,,,,,,,1,4,14,3,,,AMSA10.jpg,AMNE12.jpg,AMNE04.jpg,AMSA18.jpg,AMSA18.jpg,MS,2,num_4,16,num_4,0.433482509572,,,2017_Aug_09_1342,60.0066400123,FEMA4ImagesEEG,001,201117,
AFNE01.JPG,AFNE01.JPG,AFNE01.JPG,AFNE01.JPG,AFNE01.JPG,AFNE01.JPG,,,,,,,,,,,,,,,,,,,,,1,5,15,2,,,AMNE03.jpg,AMSA01.jpg,AMSA07.jpg,AMNE19.jpg,AMNE19.jpg,MN,1,num_4,16,num_4,0.650146626402,,,2017_Aug_09_1342,60.0066400123,FEMA4ImagesEEG,001,201117,
AFNE01.JPG,AFNE01.JPG,AFNE01.JPG,AFNE01.JPG,AFNE01.JPG,AFNE01.JPG,,,,,,,,,,,,,,,,,,,,,1,6,16,9,,,AMNE12.jpg,AMSA01.jpg,AMNE19.jpg,AMSA14.jpg,AMSA14.jpg,MS,2,num_4,16,num_4,0.533469711896,,,2017_Aug_09_1342,60.0066400123,FEMA4ImagesEEG,001,201117,
AFNE01.JPG,AFNE01.JPG,AFNE01.JPG,AFNE01.JPG,AFNE01.JPG,AFNE01.JPG,,,,,,,,,,,,,,,,,,,,,1,7,17,0,,,AMSA12.jpg,AMNE07.jpg,AMSA10.jpg,AMNE12.jpg,AMNE12.jpg,MN,1,num_4,32,num_2,1.60007396271,,,2017_Aug_09_1342,60.0066400123,FEMA4ImagesEEG,001,201117,
AFNE01.JPG,AFNE01.JPG,AFNE01.JPG,AFNE01.JPG,AFNE01.JPG,AFNE01.JPG,,,,,,,,,,,,,,,,,,,,,1,8,18,5,,,AMNE20.jpg,AMSA06.jpg,AMNE03.jpg,AMSA18.jpg,AMSA18.jpg,MS,2,num_4,16,num_4,0.683456449537,,,2017_Aug_09_1342,60.0066400123,FEMA4ImagesEEG,001,201117,
AFNE01.JPG,AFNE01.JPG,AFNE01.JPG,AFNE01.JPG,AFNE01.JPG,AFNE01.JPG,,,,,,,,,,,,,,,,,,,,,1,9,19,6,,,AMNE16.jpg,AMNE15.jpg,AMSA11.jpg,AMSA07.jpg,AMSA11.jpg,MS,2,num_2,16,num_2,0.666850450914,,,2017_Aug_09_1342,60.0066400123,FEMA4ImagesEEG,001,201117,
AFNE01.JPG,AFNE01.JPG,AFNE01.JPG,AFNE01.JPG,AFNE01.JPG,AFNE01.JPG,,,,,,,,,,,,,,,,,,,,,2,0,20,5,,,AMNE11.jpg,AMSA13.jpg,AMNE08.jpg,AMSA14.jpg,AMSA13.jpg,MS,2,num_6,16,num_6,0.516787377186,,,2017_Aug_09_1342,60.0066400123,FEMA4ImagesEEG,001,201117,
AFNE01.JPG,AFNE01.JPG,AFNE01.JPG,AFNE01.JPG,AFNE01.JPG,AFNE01.JPG,,,,,,,,,,,,,,,,,,,,,2,1,21,6,,,AMSA08.jpg,AMNE14.jpg,AMSA05.jpg,AMNE08.jpg,AMSA08.jpg,MS,2,num_8,16,num_8,1.00009141094,,,2017_Aug_09_1342,60.0066400123,FEMA4ImagesEEG,001,201117,
AFNE01.JPG,AFNE01.JPG,AFNE01.JPG,AFNE01.JPG,AFNE01.JPG,AFNE01.JPG,,,,,,,,,,,,,,,,,,,,,2,2,22,2,,,AMSA03.jpg,AMNE12.jpg,AMNE08.jpg,AMSA19.jpg,AMNE12.jpg,MN,1,num_6,16,num_6,0.650120004779,,,2017_Aug_09_1342,60.0066400123,FEMA4ImagesEEG,001,201117,
AFNE01.JPG,AFNE01.JPG,AFNE01.JPG,AFNE01.JPG,AFNE01.JPG,AFNE01.JPG,,,,,,,,,,,,,,,,,,,,,2,3,23,1,,,AMNE19.jpg,AMSA07.jpg,AMNE07.jpg,AMSA02.jpg,AMNE07.jpg,MN,1,num_2,32,num_8,0.700110238511,,,2017_Aug_09_1342,60.0066400123,FEMA4ImagesEEG,001,201117,
AFNE01.JPG,AFNE01.JPG,AFNE01.JPG,AFNE01.JPG,AFNE01.JPG,AFNE01.JPG,,,,,,,,,,,,,,,,,,,,,2,4,24,7,,,AMNE17.jpg,AMNE10.jpg,AMSA05.jpg,AMSA15.jpg,AMSA15.jpg,MS,2,num_4,32,num_2,0.933495178819,,,2017_Aug_09_1342,60.0066400123,FEMA4ImagesEEG,001,201117,
AFNE01.JPG,AFNE01.JPG,AFNE01.JPG,AFNE01.JPG,AFNE01.JPG,AFNE01.JPG,,,,,,,,,,,,,,,,,,,,,2,5,25,8,,,AMNE13.jpg,AMSA14.jpg,AMSA05.jpg,AMNE18.jpg,AMNE18.jpg,MN,1,num_4,32,num_8,1.10026913299,,,2017_Aug_09_1342,60.0066400123,FEMA4ImagesEEG,001,201117,
AFNE01.JPG,AFNE01.JPG,AFNE01.JPG,AFNE01.JPG,AFNE01.JPG,AFNE01.JPG,,,,,,,,,,,,,,,,,,,,,2,6,26,9,,,AMNE08.jpg,AMSA01.jpg,AMSA14.jpg,AMNE19.jpg,AMNE08.jpg,MN,1,num_8,16,num_8,1.26673100702,,,2017_Aug_09_1342,60.0066400123,FEMA4ImagesEEG,001,201117,
AFNE01.JPG,AFNE01.JPG,AFNE01.JPG,AFNE01.JPG,AFNE01.JPG,AFNE01.JPG,,,,,,,,,,,,,,,,,,,,,2,7,27,3,,,AMSA17.jpg,AMSA02.jpg,AMNE01.jpg,AMNE16.jpg,AMNE16.jpg,MN,1,num_4,32,num_8,1.00014721975,,,2017_Aug_09_1342,60.0066400123,FEMA4ImagesEEG,001,201117,
AFNE01.JPG,AFNE01.JPG,AFNE01.JPG,AFNE01.JPG,AFNE01.JPG,AFNE01.JPG,,,,,,,,,,,,,,,,,,,,,2,8,28,0,,,AMSA11.jpg,AMNE08.jpg,AMNE17.jpg,AMSA15.jpg,AMNE17.jpg,MN,1,num_2,32,num_6,0.833446073346,,,2017_Aug_09_1342,60.0066400123,FEMA4ImagesEEG,001,201117,
AFNE01.JPG,AFNE01.JPG,AFNE01.JPG,AFNE01.JPG,AFNE01.JPG,AFNE01.JPG,,,,,,,,,,,,,,,,,,,,,2,9,29,4,,,AMSA03.jpg,AMNE19.jpg,AMNE10.jpg,AMSA15.jpg,AMSA03.jpg,MS,2,num_8,16,num_8,0.750142488861,,,2017_Aug_09_1342,60.0066400123,FEMA4ImagesEEG,001,201117,
AFNE01.JPG,AFNE01.JPG,AFNE01.JPG,AFNE01.JPG,AFNE01.JPG,AFNE01.JPG,,,,,,,,,,,,,,,,,,,,,3,0,30,4,,,AMNE05.jpg,AMNE10.jpg,AMSA11.jpg,AMSA20.jpg,AMNE05.jpg,MN,1,num_8,16,num_8,0.516825866187,,,2017_Aug_09_1342,60.0066400123,FEMA4ImagesEEG,001,201117,
AFNE01.JPG,AFNE01.JPG,AFNE01.JPG,AFNE01.JPG,AFNE01.JPG,AFNE01.JPG,,,,,,,,,,,,,,,,,,,,,3,1,31,1,,,AMSA14.jpg,AMSA05.jpg,AMNE14.jpg,AMNE02.jpg,AMNE02.jpg,MN,1,num_4,16,num_4,0.683467675466,,,2017_Aug_09_1342,60.0066400123,FEMA4ImagesEEG,001,201117,
AFNE01.JPG,AFNE01.JPG,AFNE01.JPG,AFNE01.JPG,AFNE01.JPG,AFNE01.JPG,,,,,,,,,,,,,,,,,,,,,3,2,32,0,,,AMSA06.jpg,AMNE05.jpg,AMSA01.jpg,AMNE19.jpg,AMSA01.jpg,MS,2,num_2,16,num_2,0.533468428999,,,2017_Aug_09_1342,60.0066400123,FEMA4ImagesEEG,001,201117,
AFNE01.JPG,AFNE01.JPG,AFNE01.JPG,AFNE01.JPG,AFNE01.JPG,AFNE01.JPG,,,,,,,,,,,,,,,,,,,,,3,3,33,6,,,AMSA04.jpg,AMNE01.jpg,AMSA08.jpg,AMNE18.jpg,AMNE01.jpg,MN,1,num_6,16,num_6,0.700129482662,,,2017_Aug_09_1342,60.0066400123,FEMA4ImagesEEG,001,201117,
AFNE01.JPG,AFNE01.JPG,AFNE01.JPG,AFNE01.JPG,AFNE01.JPG,AFNE01.JPG,,,,,,,,,,,,,,,,,,,,,3,4,34,8,,,AMSA19.jpg,AMNE02.jpg,AMSA12.jpg,AMNE06.jpg,AMNE06.jpg,MN,1,num_4,32,num_2,0.450210068841,,,2017_Aug_09_1342,60.0066400123,FEMA4ImagesEEG,001,201117,
AFNE01.JPG,AFNE01.JPG,AFNE01.JPG,AFNE01.JPG,AFNE01.JPG,AFNE01.JPG,,,,,,,,,,,,,,,,,,,,,3,5,35,7,,,AMNE11.jpg,AMSA12.jpg,AMSA01.jpg,AMNE10.jpg,AMSA12.jpg,MS,2,num_6,32,num_8,0.583476623986,,,2017_Aug_09_1342,60.0066400123,FEMA4ImagesEEG,001,201117,
AFNE01.JPG,AFNE01.JPG,AFNE01.JPG,AFNE01.JPG,AFNE01.JPG,AFNE01.JPG,,,,,,,,,,,,,,,,,,,,,3,6,36,5,,,AMSA20.jpg,AMNE02.jpg,AMNE12.jpg,AMSA14.jpg,AMNE02.jpg,MN,1,num_6,32,num_8,0.683436884079,,,2017_Aug_09_1342,60.0066400123,FEMA4ImagesEEG,001,201117,
AFNE01.JPG,AFNE01.JPG,AFNE01.JPG,AFNE01.JPG,AFNE01.JPG,AFNE01.JPG,,,,,,,,,,,,,,,,,,,,,3,7,37,9,,,AMNE09.jpg,AMSA04.jpg,AMSA08.jpg,AMNE06.jpg,AMNE09.jpg,MN,1,num_8,32,num_6,0.666813886492,,,2017_Aug_09_1342,60.0066400123,FEMA4ImagesEEG,001,201117,
AFNE01.JPG,AFNE01.JPG,AFNE01.JPG,AFNE01.JPG,AFNE01.JPG,AFNE01.JPG,,,,,,,,,,,,,,,,,,,,,3,8,38,2,,,AMSA13.jpg,AMNE04.jpg,AMNE18.jpg,AMSA02.jpg,AMSA13.jpg,MS,2,num_8,48,None,,,,2017_Aug_09_1342,60.0066400123,FEMA4ImagesEEG,001,201117,
