IPosition2,IPosition3,IPosition1,IPosition6,IPosition4,IPosition5,TrialsF1.thisRepN,TrialsF1.thisTrialN,TrialsF1.thisN,TrialsF1.thisIndex,TrialsM1.thisRepN,TrialsM1.thisTrialN,TrialsM1.thisN,TrialsM1.thisIndex,TrialsF2.thisRepN,TrialsF2.thisTrialN,TrialsF2.thisN,TrialsF2.thisIndex,TrialsM2.thisRepN,TrialsM2.thisTrialN,TrialsM2.thisN,TrialsM2.thisIndex,TrialsF3.thisRepN,TrialsF3.thisTrialN,TrialsF3.thisN,TrialsF3.thisIndex,TrialsM3.thisRepN,TrialsM3.thisTrialN,TrialsM3.thisN,TrialsM3.thisIndex,InstrKey_resp.keys,InstrKey_resp.rt,Image0 _Position,Image1 _Position,Image2 _Position,Image3 _Position,Center_image,condition,code,correct_answer,accuracy,Key_Resp.keys,Key_Resp.rt,BreakKey_resp.keys,BreakKey_resp.rt,date,frameRate,expName,session,participant,
,,,,,,,,,,,,,,,,,,,,,,,,,,,,,,space,9.94946457318,,,,,,,,,,,,,,2017_Aug_21_1217,59.9935538077,FEMA4ImagesEEG,001,201141,
AFSA21.JPG,AFNE23.JPG,AFNE21.JPG,AFSA25.JPG,AFNE25.JPG,AFSA23.JPG,0,0,0,4,,,,,,,,,,,,,,,,,,,,,,,AFSA01.jpg,AFSA02.jpg,AFNE14.jpg,AFNE18.jpg,AFNE14.jpg,FN,3,num_2,32,num_4,0.883424589178,,,2017_Aug_21_1217,59.9935538077,FEMA4ImagesEEG,001,201141,
AFNE22.JPG,AFSA24.JPG,AFSA22.JPG,AFNE25.JPG,AFNE24.JPG,AFSA25.JPG,0,1,1,6,,,,,,,,,,,,,,,,,,,,,,,AFNE08.jpg,AFSA19.jpg,AFNE17.jpg,AFSA11.jpg,AFNE08.jpg,FN,3,num_8,32,num_6,1.08355557919,,,2017_Aug_21_1217,59.9935538077,FEMA4ImagesEEG,001,201141,
AFNE23.JPG,AFNE24.JPG,AFNE22.JPG,AFSA24.JPG,AFSA22.JPG,AFSA23.JPG,0,2,2,8,,,,,,,,,,,,,,,,,,,,,,,AFSA02.jpg,AFSA18.jpg,AFNE04.jpg,AFNE18.jpg,AFSA02.jpg,FS,4,num_8,32,num_6,0.850077603012,,,2017_Aug_21_1217,59.9935538077,FEMA4ImagesEEG,001,201141,
AMSA21.JPG,AMNE23.JPG,AMNE21.JPG,AMSA25.JPG,AMNE25.JPG,AMSA23.JPG,0,3,3,5,,,,,,,,,,,,,,,,,,,,,,,AFSA19.jpg,AFSA05.jpg,AFNE11.jpg,AFNE06.jpg,AFSA19.jpg,FS,4,num_8,16,num_8,1.13343124453,,,2017_Aug_21_1217,59.9935538077,FEMA4ImagesEEG,001,201141,
AFSA25.JPG,AFNE24.JPG,AFSA24.JPG,AFNE21.JPG,AFSA21.JPG,AFNE25.JPG,0,4,4,2,,,,,,,,,,,,,,,,,,,,,,,AFSA16.jpg,AFSA08.jpg,AFNE01.jpg,AFNE18.jpg,AFNE18.jpg,FN,3,num_4,16,num_4,0.88344704092,,,2017_Aug_21_1217,59.9935538077,FEMA4ImagesEEG,001,201141,
AMSA21.JPG,AMNE22.JPG,AMNE21.JPG,AMSA23.JPG,AMSA22.JPG,AMNE23.JPG,0,5,5,1,,,,,,,,,,,,,,,,,,,,,,,AFNE04.jpg,AFSA14.jpg,AFNE20.jpg,AFSA05.jpg,AFSA05.jpg,FS,4,num_4,32,num_8,1.18343713006,,,2017_Aug_21_1217,59.9935538077,FEMA4ImagesEEG,001,201141,
AFSA21.JPG,AFNE22.JPG,AFNE21.JPG,AFSA23.JPG,AFSA22.JPG,AFNE23.JPG,0,6,6,0,,,,,,,,,,,,,,,,,,,,,,,AFSA15.jpg,AFNE07.jpg,AFSA02.jpg,AFNE18.jpg,AFSA15.jpg,FS,4,num_8,32,num_2,0.916737897554,,,2017_Aug_21_1217,59.9935538077,FEMA4ImagesEEG,001,201141,
AMNE23.JPG,AMNE24.JPG,AMNE22.JPG,AMSA24.JPG,AMSA22.JPG,AMSA23.JPG,0,7,7,9,,,,,,,,,,,,,,,,,,,,,,,AFSA07.jpg,AFNE14.jpg,AFSA04.jpg,AFNE02.jpg,AFSA07.jpg,FS,4,num_8,32,num_6,1.73310864449,,,2017_Aug_21_1217,59.9935538077,FEMA4ImagesEEG,001,201141,
AMSA25.JPG,AMNE24.JPG,AMSA24.JPG,AMNE26.JPG,AMSA21.JPG,AMNE25.JPG,0,8,8,3,,,,,,,,,,,,,,,,,,,,,,,AFNE01.jpg,AFNE17.jpg,AFSA05.jpg,AFSA19.jpg,AFSA05.jpg,FS,4,num_2,16,num_2,0.766601567157,,,2017_Aug_21_1217,59.9935538077,FEMA4ImagesEEG,001,201141,
AMNE22.JPG,AMSA24.JPG,AMSA22.JPG,AMNE25.JPG,AMNE24.JPG,AMSA25.JPG,0,9,9,7,,,,,,,,,,,,,,,,,,,,,,,AFSA19.jpg,AFNE19.jpg,AFNE18.jpg,AFSA16.jpg,AFSA19.jpg,FS,4,num_8,32,num_4,0.600127718528,,,2017_Aug_21_1217,59.9935538077,FEMA4ImagesEEG,001,201141,
AMSA21.JPG,AMNE22.JPG,AMNE21.JPG,AMSA23.JPG,AMSA22.JPG,AMNE23.JPG,,,,,0,0,0,1,,,,,,,,,,,,,,,,,,,AMNE15.jpg,AMNE20.jpg,AMSA07.jpg,AMSA20.jpg,AMSA07.jpg,MS,2,num_2,16,num_2,0.900137052173,,,2017_Aug_21_1217,59.9935538077,FEMA4ImagesEEG,001,201141,
AMSA25.JPG,AMNE24.JPG,AMSA24.JPG,AMNE26.JPG,AMSA21.JPG,AMNE25.JPG,,,,,0,1,1,3,,,,,,,,,,,,,,,,,,,AMNE16.jpg,AMNE14.jpg,AMSA01.jpg,AMSA19.jpg,AMNE14.jpg,MN,1,num_6,32,num_8,1.35010374326,,,2017_Aug_21_1217,59.9935538077,FEMA4ImagesEEG,001,201141,
AMSA21.JPG,AMNE23.JPG,AMNE21.JPG,AMSA25.JPG,AMNE25.JPG,AMSA23.JPG,,,,,0,2,2,5,,,,,,,,,,,,,,,,,,,AMNE15.jpg,AMSA01.jpg,AMNE10.jpg,AMSA14.jpg,AMSA01.jpg,MS,2,num_6,16,num_6,0.683457817766,,,2017_Aug_21_1217,59.9935538077,FEMA4ImagesEEG,001,201141,
AMNE22.JPG,AMSA24.JPG,AMSA22.JPG,AMNE25.JPG,AMNE24.JPG,AMSA25.JPG,,,,,0,3,3,7,,,,,,,,,,,,,,,,,,,AMNE20.jpg,AMSA12.jpg,AMNE09.jpg,AMSA10.jpg,AMSA12.jpg,MS,2,num_6,32,num_2,1.28340463911,,,2017_Aug_21_1217,59.9935538077,FEMA4ImagesEEG,001,201141,
AFSA25.JPG,AFNE24.JPG,AFSA24.JPG,AFNE21.JPG,AFSA21.JPG,AFNE25.JPG,,,,,0,4,4,2,,,,,,,,,,,,,,,,,,,AMSA06.jpg,AMNE10.jpg,AMSA03.jpg,AMNE17.jpg,AMSA03.jpg,MS,2,num_2,32,num_4,0.983412946225,,,2017_Aug_21_1217,59.9935538077,FEMA4ImagesEEG,001,201141,
AMNE23.JPG,AMNE24.JPG,AMNE22.JPG,AMSA24.JPG,AMSA22.JPG,AMSA23.JPG,,,,,0,5,5,9,,,,,,,,,,,,,,,,,,,AMNE02.jpg,AMNE20.jpg,AMSA19.jpg,AMSA04.jpg,AMNE02.jpg,MN,1,num_8,32,num_2,1.48343074729,,,2017_Aug_21_1217,59.9935538077,FEMA4ImagesEEG,001,201141,
AFSA21.JPG,AFNE22.JPG,AFNE21.JPG,AFSA23.JPG,AFSA22.JPG,AFNE23.JPG,,,,,0,6,6,0,,,,,,,,,,,,,,,,,,,AMNE09.jpg,AMSA19.jpg,AMNE19.jpg,AMSA08.jpg,AMSA19.jpg,MS,2,num_6,32,num_2,1.48338295717,,,2017_Aug_21_1217,59.9935538077,FEMA4ImagesEEG,001,201141,
AFSA21.JPG,AFNE23.JPG,AFNE21.JPG,AFSA25.JPG,AFNE25.JPG,AFSA23.JPG,,,,,0,7,7,4,,,,,,,,,,,,,,,,,,,AMSA08.jpg,AMNE14.jpg,AMNE04.jpg,AMSA18.jpg,AMSA18.jpg,MS,2,num_4,16,num_4,0.933460624306,,,2017_Aug_21_1217,59.9935538077,FEMA4ImagesEEG,001,201141,
AFNE23.JPG,AFNE24.JPG,AFNE22.JPG,AFSA24.JPG,AFSA22.JPG,AFSA23.JPG,,,,,0,8,8,8,,,,,,,,,,,,,,,,,,,AMNE19.jpg,AMSA18.jpg,AMSA15.jpg,AMNE08.jpg,AMNE08.jpg,MN,1,num_4,32,num_8,0.966485908488,,,2017_Aug_21_1217,59.9935538077,FEMA4ImagesEEG,001,201141,
AFNE22.JPG,AFSA24.JPG,AFSA22.JPG,AFNE25.JPG,AFNE24.JPG,AFSA25.JPG,,,,,0,9,9,6,,,,,,,,,,,,,,,,,,,AMSA16.jpg,AMSA09.jpg,AMNE14.jpg,AMNE15.jpg,AMSA09.jpg,MS,2,num_6,32,num_4,0.916777669336,,,2017_Aug_21_1217,59.9935538077,FEMA4ImagesEEG,001,201141,
AMSA25.JPG,AMNE24.JPG,AMSA24.JPG,AMNE26.JPG,AMSA21.JPG,AMNE25.JPG,,,,,,,,,0,0,0,3,,,,,,,,,,,,,,,AFSA19.jpg,AFSA18.jpg,AFNE14.jpg,AFNE10.jpg,AFSA19.jpg,FS,4,num_8,32,num_6,1.63344936632,,,2017_Aug_21_1217,59.9935538077,FEMA4ImagesEEG,001,201141,
AFSA21.JPG,AFNE23.JPG,AFNE21.JPG,AFSA25.JPG,AFNE25.JPG,AFSA23.JPG,,,,,,,,,0,1,1,4,,,,,,,,,,,,,,,AFNE03.jpg,AFNE01.jpg,AFSA13.jpg,AFSA11.jpg,AFNE01.jpg,FN,3,num_6,32,num_2,1.43342037138,,,2017_Aug_21_1217,59.9935538077,FEMA4ImagesEEG,001,201141,
AMNE22.JPG,AMSA24.JPG,AMSA22.JPG,AMNE25.JPG,AMNE24.JPG,AMSA25.JPG,,,,,,,,,0,2,2,7,,,,,,,,,,,,,,,AFNE03.jpg,AFNE18.jpg,AFSA14.jpg,AFSA16.jpg,AFNE18.jpg,FN,3,num_6,16,num_6,0.833477398846,,,2017_Aug_21_1217,59.9935538077,FEMA4ImagesEEG,001,201141,
AMNE23.JPG,AMNE24.JPG,AMNE22.JPG,AMSA24.JPG,AMSA22.JPG,AMSA23.JPG,,,,,,,,,0,3,3,9,,,,,,,,,,,,,,,AFSA11.jpg,AFSA08.jpg,AFNE02.jpg,AFNE05.jpg,AFNE05.jpg,FN,3,num_4,32,num_2,1.25005797367,,,2017_Aug_21_1217,59.9935538077,FEMA4ImagesEEG,001,201141,
AMSA21.JPG,AMNE22.JPG,AMNE21.JPG,AMSA23.JPG,AMSA22.JPG,AMNE23.JPG,,,,,,,,,0,4,4,1,,,,,,,,,,,,,,,AFNE03.jpg,AFNE10.jpg,AFSA16.jpg,AFSA18.jpg,AFSA16.jpg,FS,4,num_2,32,num_4,0.66678320209,,,2017_Aug_21_1217,59.9935538077,FEMA4ImagesEEG,001,201141,
AFNE22.JPG,AFSA24.JPG,AFSA22.JPG,AFNE25.JPG,AFNE24.JPG,AFSA25.JPG,,,,,,,,,0,5,5,6,,,,,,,,,,,,,,,AFSA07.jpg,AFNE05.jpg,AFSA02.jpg,AFNE13.jpg,AFNE13.jpg,FN,3,num_4,32,num_8,1.26676434255,,,2017_Aug_21_1217,59.9935538077,FEMA4ImagesEEG,001,201141,
AMSA21.JPG,AMNE23.JPG,AMNE21.JPG,AMSA25.JPG,AMNE25.JPG,AMSA23.JPG,,,,,,,,,0,6,6,5,,,,,,,,,,,,,,,AFSA17.jpg,AFSA14.jpg,AFNE02.jpg,AFNE15.jpg,AFSA14.jpg,FS,4,num_6,32,num_2,1.55009553232,,,2017_Aug_21_1217,59.9935538077,FEMA4ImagesEEG,001,201141,
AFSA25.JPG,AFNE24.JPG,AFSA24.JPG,AFNE21.JPG,AFSA21.JPG,AFNE25.JPG,,,,,,,,,0,7,7,2,,,,,,,,,,,,,,,AFNE10.jpg,AFSA06.jpg,AFNE16.jpg,AFSA01.jpg,AFSA06.jpg,FS,4,num_6,32,num_4,0.800012701191,,,2017_Aug_21_1217,59.9935538077,FEMA4ImagesEEG,001,201141,
AFSA21.JPG,AFNE22.JPG,AFNE21.JPG,AFSA23.JPG,AFSA22.JPG,AFNE23.JPG,,,,,,,,,0,8,8,0,,,,,,,,,,,,,,,AFNE11.jpg,AFSA17.jpg,AFNE18.jpg,AFSA16.jpg,AFNE18.jpg,FN,3,num_2,16,num_2,1.65003000526,,,2017_Aug_21_1217,59.9935538077,FEMA4ImagesEEG,001,201141,
AFNE23.JPG,AFNE24.JPG,AFNE22.JPG,AFSA24.JPG,AFSA22.JPG,AFSA23.JPG,,,,,,,,,0,9,9,8,,,,,,,,,,,,,,,AFNE18.jpg,AFSA13.jpg,AFNE16.jpg,AFSA20.jpg,AFNE18.jpg,FN,3,num_8,32,num_2,1.36675109598,,,2017_Aug_21_1217,59.9935538077,FEMA4ImagesEEG,001,201141,
AFSA21.JPG,AFNE22.JPG,AFNE21.JPG,AFSA23.JPG,AFSA22.JPG,AFNE23.JPG,,,,,,,,,,,,,0,0,0,0,,,,,,,,,,,AMNE16.jpg,AMSA02.jpg,AMNE17.jpg,AMSA11.jpg,AMNE16.jpg,MN,1,num_8,32,num_2,1.36681043287,,,2017_Aug_21_1217,59.9935538077,FEMA4ImagesEEG,001,201141,
AFNE23.JPG,AFNE24.JPG,AFNE22.JPG,AFSA24.JPG,AFSA22.JPG,AFSA23.JPG,,,,,,,,,,,,,0,1,1,8,,,,,,,,,,,AMSA15.jpg,AMSA18.jpg,AMNE05.jpg,AMNE01.jpg,AMSA18.jpg,MS,2,num_6,16,num_6,0.416786489775,,,2017_Aug_21_1217,59.9935538077,FEMA4ImagesEEG,001,201141,
AMSA25.JPG,AMNE24.JPG,AMSA24.JPG,AMNE26.JPG,AMSA21.JPG,AMNE25.JPG,,,,,,,,,,,,,0,2,2,3,,,,,,,,,,,AMSA02.jpg,AMNE19.jpg,AMSA20.jpg,AMNE09.jpg,AMSA02.jpg,MS,2,num_8,32,num_2,2.33332713228,,,2017_Aug_21_1217,59.9935538077,FEMA4ImagesEEG,001,201141,
AFSA25.JPG,AFNE24.JPG,AFSA24.JPG,AFNE21.JPG,AFSA21.JPG,AFNE25.JPG,,,,,,,,,,,,,0,3,3,2,,,,,,,,,,,AMNE18.jpg,AMSA02.jpg,AMNE12.jpg,AMSA13.jpg,AMNE18.jpg,MN,1,num_8,32,num_4,1.0501194275,,,2017_Aug_21_1217,59.9935538077,FEMA4ImagesEEG,001,201141,
AMNE23.JPG,AMNE24.JPG,AMNE22.JPG,AMSA24.JPG,AMSA22.JPG,AMSA23.JPG,,,,,,,,,,,,,0,4,4,9,,,,,,,,,,,AMSA17.jpg,AMNE09.jpg,AMNE14.jpg,AMSA19.jpg,AMSA17.jpg,MS,2,num_8,32,num_4,0.666894819471,,,2017_Aug_21_1217,59.9935538077,FEMA4ImagesEEG,001,201141,
AMSA21.JPG,AMNE23.JPG,AMNE21.JPG,AMSA25.JPG,AMNE25.JPG,AMSA23.JPG,,,,,,,,,,,,,0,5,5,5,,,,,,,,,,,AMNE09.jpg,AMNE18.jpg,AMSA15.jpg,AMSA09.jpg,AMNE09.jpg,MN,1,num_8,32,num_2,0.983462340198,,,2017_Aug_21_1217,59.9935538077,FEMA4ImagesEEG,001,201141,
AMNE22.JPG,AMSA24.JPG,AMSA22.JPG,AMNE25.JPG,AMNE24.JPG,AMSA25.JPG,,,,,,,,,,,,,0,6,6,7,,,,,,,,,,,AMSA20.jpg,AMNE07.jpg,AMNE06.jpg,AMSA11.jpg,AMSA11.jpg,MS,2,num_4,16,num_4,1.00010808918,,,2017_Aug_21_1217,59.9935538077,FEMA4ImagesEEG,001,201141,
AFNE22.JPG,AFSA24.JPG,AFSA22.JPG,AFNE25.JPG,AFNE24.JPG,AFSA25.JPG,,,,,,,,,,,,,0,7,7,6,,,,,,,,,,,AMSA02.jpg,AMSA17.jpg,AMNE17.jpg,AMNE14.jpg,AMNE14.jpg,MN,1,num_4,16,num_4,0.85015009006,,,2017_Aug_21_1217,59.9935538077,FEMA4ImagesEEG,001,201141,
AFSA21.JPG,AFNE23.JPG,AFNE21.JPG,AFSA25.JPG,AFNE25.JPG,AFSA23.JPG,,,,,,,,,,,,,0,8,8,4,,,,,,,,,,,AMNE18.jpg,AMNE09.jpg,AMSA10.jpg,AMSA04.jpg,AMSA04.jpg,MS,2,num_4,16,num_4,0.500179774594,,,2017_Aug_21_1217,59.9935538077,FEMA4ImagesEEG,001,201141,
AMSA21.JPG,AMNE22.JPG,AMNE21.JPG,AMSA23.JPG,AMSA22.JPG,AMNE23.JPG,,,,,,,,,,,,,0,9,9,1,,,,,,,,,,,AMNE19.jpg,AMNE04.jpg,AMSA19.jpg,AMSA16.jpg,AMSA16.jpg,MS,2,num_4,32,num_2,2.33328543627,,,2017_Aug_21_1217,59.9935538077,FEMA4ImagesEEG,001,201141,
AFNE23.JPG,AFNE24.JPG,AFNE22.JPG,AFSA24.JPG,AFSA22.JPG,AFSA23.JPG,,,,,,,,,,,,,,,,,0,0,0,8,,,,,,,AFNE13.jpg,AFSA16.jpg,AFSA20.jpg,AFNE02.jpg,AFSA20.jpg,FS,4,num_2,32,num_4,1.68342927191,,,2017_Aug_21_1217,59.9935538077,FEMA4ImagesEEG,001,201141,
AMNE22.JPG,AMSA24.JPG,AMSA22.JPG,AMNE25.JPG,AMNE24.JPG,AMSA25.JPG,,,,,,,,,,,,,,,,,0,1,1,7,,,,,,,AFNE19.jpg,AFSA12.jpg,AFSA18.jpg,AFNE02.jpg,AFNE02.jpg,FN,3,num_4,32,num_2,1.2334064513,,,2017_Aug_21_1217,59.9935538077,FEMA4ImagesEEG,001,201141,
AMSA21.JPG,AMNE22.JPG,AMNE21.JPG,AMSA23.JPG,AMSA22.JPG,AMNE23.JPG,,,,,,,,,,,,,,,,,0,2,2,1,,,,,,,AFSA18.jpg,AFNE01.jpg,AFSA05.jpg,AFNE10.jpg,AFSA05.jpg,FS,4,num_2,32,num_8,0.966752122389,,,2017_Aug_21_1217,59.9935538077,FEMA4ImagesEEG,001,201141,
AFNE22.JPG,AFSA24.JPG,AFSA22.JPG,AFNE25.JPG,AFNE24.JPG,AFSA25.JPG,,,,,,,,,,,,,,,,,0,3,3,6,,,,,,,AFNE14.jpg,AFSA18.jpg,AFSA08.jpg,AFNE18.jpg,AFNE14.jpg,FN,3,num_8,32,num_6,0.916766443406,,,2017_Aug_21_1217,59.9935538077,FEMA4ImagesEEG,001,201141,
AMSA25.JPG,AMNE24.JPG,AMSA24.JPG,AMNE26.JPG,AMSA21.JPG,AMNE25.JPG,,,,,,,,,,,,,,,,,0,4,4,3,,,,,,,AFNE17.jpg,AFSA19.jpg,AFSA06.jpg,AFNE01.jpg,AFSA19.jpg,FS,4,num_6,32,num_2,0.883466926869,,,2017_Aug_21_1217,59.9935538077,FEMA4ImagesEEG,001,201141,
AFSA25.JPG,AFNE24.JPG,AFSA24.JPG,AFNE21.JPG,AFSA21.JPG,AFNE25.JPG,,,,,,,,,,,,,,,,,0,5,5,2,,,,,,,AFSA02.jpg,AFNE15.jpg,AFNE11.jpg,AFSA10.jpg,AFNE15.jpg,FN,3,num_6,16,num_6,0.916743991664,,,2017_Aug_21_1217,59.9935538077,FEMA4ImagesEEG,001,201141,
AMSA21.JPG,AMNE23.JPG,AMNE21.JPG,AMSA25.JPG,AMNE25.JPG,AMSA23.JPG,,,,,,,,,,,,,,,,,0,6,6,5,,,,,,,AFNE17.jpg,AFSA10.jpg,AFNE18.jpg,AFSA05.jpg,AFSA05.jpg,FS,4,num_4,16,num_4,1.0001080893,,,2017_Aug_21_1217,59.9935538077,FEMA4ImagesEEG,001,201141,
AFSA21.JPG,AFNE23.JPG,AFNE21.JPG,AFSA25.JPG,AFNE25.JPG,AFSA23.JPG,,,,,,,,,,,,,,,,,0,7,7,4,,,,,,,AFSA01.jpg,AFNE18.jpg,AFNE01.jpg,AFSA03.jpg,AFNE18.jpg,FN,3,num_6,16,num_6,0.700121849077,,,2017_Aug_21_1217,59.9935538077,FEMA4ImagesEEG,001,201141,
AFSA21.JPG,AFNE22.JPG,AFNE21.JPG,AFSA23.JPG,AFSA22.JPG,AFNE23.JPG,,,,,,,,,,,,,,,,,0,8,8,0,,,,,,,AFNE15.jpg,AFSA11.jpg,AFNE01.jpg,AFSA16.jpg,AFNE15.jpg,FN,3,num_8,16,num_8,0.933461265638,,,2017_Aug_21_1217,59.9935538077,FEMA4ImagesEEG,001,201141,
AMNE23.JPG,AMNE24.JPG,AMNE22.JPG,AMSA24.JPG,AMSA22.JPG,AMSA23.JPG,,,,,,,,,,,,,,,,,0,9,9,9,,,,,,,AFNE14.jpg,AFNE01.jpg,AFSA18.jpg,AFSA08.jpg,AFNE01.jpg,FN,3,num_6,32,num_2,1.66680789902,,,2017_Aug_21_1217,59.9935538077,FEMA4ImagesEEG,001,201141,
AFSA25.JPG,AFNE24.JPG,AFSA24.JPG,AFNE21.JPG,AFSA21.JPG,AFNE25.JPG,,,,,,,,,,,,,,,,,,,,,0,0,0,2,,,AMNE03.jpg,AMNE11.jpg,AMSA03.jpg,AMSA12.jpg,AMNE11.jpg,MN,1,num_6,32,num_4,1.11642338021,,,2017_Aug_21_1217,59.9935538077,FEMA4ImagesEEG,001,201141,
AFNE22.JPG,AFSA24.JPG,AFSA22.JPG,AFNE25.JPG,AFNE24.JPG,AFSA25.JPG,,,,,,,,,,,,,,,,,,,,,0,1,1,6,,,AMSA11.jpg,AMNE10.jpg,AMNE04.jpg,AMSA06.jpg,AMNE10.jpg,MN,1,num_6,16,num_6,0.850131166517,,,2017_Aug_21_1217,59.9935538077,FEMA4ImagesEEG,001,201141,
AFSA21.JPG,AFNE23.JPG,AFNE21.JPG,AFSA25.JPG,AFNE25.JPG,AFSA23.JPG,,,,,,,,,,,,,,,,,,,,,0,2,2,4,,,AMNE02.jpg,AMNE19.jpg,AMSA14.jpg,AMSA05.jpg,AMSA14.jpg,MS,2,num_2,32,num_4,0.983467792743,,,2017_Aug_21_1217,59.9935538077,FEMA4ImagesEEG,001,201141,
AMSA21.JPG,AMNE22.JPG,AMNE21.JPG,AMSA23.JPG,AMSA22.JPG,AMNE23.JPG,,,,,,,,,,,,,,,,,,,,,0,3,3,1,,,AMSA15.jpg,AMNE04.jpg,AMNE12.jpg,AMSA19.jpg,AMSA19.jpg,MS,2,num_4,32,num_2,1.1834230175,,,2017_Aug_21_1217,59.9935538077,FEMA4ImagesEEG,001,201141,
AMSA21.JPG,AMNE23.JPG,AMNE21.JPG,AMSA25.JPG,AMNE25.JPG,AMSA23.JPG,,,,,,,,,,,,,,,,,,,,,0,4,4,5,,,AMNE09.jpg,AMNE10.jpg,AMSA15.jpg,AMSA17.jpg,AMSA15.jpg,MS,2,num_2,16,num_2,0.783455797005,,,2017_Aug_21_1217,59.9935538077,FEMA4ImagesEEG,001,201141,
AMNE22.JPG,AMSA24.JPG,AMSA22.JPG,AMNE25.JPG,AMNE24.JPG,AMSA25.JPG,,,,,,,,,,,,,,,,,,,,,0,5,5,7,,,AMNE17.jpg,AMSA15.jpg,AMNE07.jpg,AMSA05.jpg,AMNE17.jpg,MN,1,num_8,32,num_2,1.50002742326,,,2017_Aug_21_1217,59.9935538077,FEMA4ImagesEEG,001,201141,
AMNE23.JPG,AMNE24.JPG,AMNE22.JPG,AMSA24.JPG,AMSA22.JPG,AMSA23.JPG,,,,,,,,,,,,,,,,,,,,,0,6,6,9,,,AMNE11.jpg,AMNE12.jpg,AMSA04.jpg,AMSA08.jpg,AMSA08.jpg,MS,2,num_4,16,num_4,1.18393235211,,,2017_Aug_21_1217,59.9935538077,FEMA4ImagesEEG,001,201141,
AFSA21.JPG,AFNE22.JPG,AFNE21.JPG,AFSA23.JPG,AFSA22.JPG,AFNE23.JPG,,,,,,,,,,,,,,,,,,,,,0,7,7,0,,,AMSA14.jpg,AMNE07.jpg,AMSA02.jpg,AMNE18.jpg,AMSA14.jpg,MS,2,num_8,16,num_8,0.483472443419,,,2017_Aug_21_1217,59.9935538077,FEMA4ImagesEEG,001,201141,
AMSA25.JPG,AMNE24.JPG,AMSA24.JPG,AMNE26.JPG,AMSA21.JPG,AMNE25.JPG,,,,,,,,,,,,,,,,,,,,,0,8,8,3,,,AMSA09.jpg,AMNE11.jpg,AMNE03.jpg,AMSA02.jpg,AMSA09.jpg,MS,2,num_8,16,num_8,1.43337386416,,,2017_Aug_21_1217,59.9935538077,FEMA4ImagesEEG,001,201141,
AFNE23.JPG,AFNE24.JPG,AFNE22.JPG,AFSA24.JPG,AFSA22.JPG,AFSA23.JPG,,,,,,,,,,,,,,,,,,,,,0,9,9,8,,,AMNE03.jpg,AMNE18.jpg,AMSA10.jpg,AMSA13.jpg,AMNE03.jpg,MN,1,num_8,32,num_2,2.2666822332,,,2017_Aug_21_1217,59.9935538077,FEMA4ImagesEEG,001,201141,
,,,,,,,,,,,,,,,,,,,,,,,,,,,,,,,,,,,,,,,,,,,space,11.5656587849,2017_Aug_21_1217,59.9935538077,FEMA4ImagesEEG,001,201141,
AFNE01.JPG,AFNE01.JPG,AFNE01.JPG,AFNE01.JPG,AFNE01.JPG,AFNE01.JPG,0,0,0,6,,,,,,,,,,,,,,,,,,,,,,,AFSA01.jpg,AFNE14.jpg,AFSA17.jpg,AFNE18.jpg,AFSA01.jpg,FS,4,num_8,32,num_2,1.00010680628,,,2017_Aug_21_1217,59.9935538077,FEMA4ImagesEEG,001,201141,
AFNE01.JPG,AFNE01.JPG,AFNE01.JPG,AFNE01.JPG,AFNE01.JPG,AFNE01.JPG,0,1,1,0,,,,,,,,,,,,,,,,,,,,,,,AFSA09.jpg,AFNE19.jpg,AFNE20.jpg,AFSA20.jpg,AFNE20.jpg,FN,3,num_2,32,num_4,0.766805878375,,,2017_Aug_21_1217,59.9935538077,FEMA4ImagesEEG,001,201141,
AFNE01.JPG,AFNE01.JPG,AFNE01.JPG,AFNE01.JPG,AFNE01.JPG,AFNE01.JPG,0,2,2,2,,,,,,,,,,,,,,,,,,,,,,,AFNE12.jpg,AFSA11.jpg,AFSA10.jpg,AFNE16.jpg,AFSA10.jpg,FS,4,num_2,16,num_2,1.2001528003,,,2017_Aug_21_1217,59.9935538077,FEMA4ImagesEEG,001,201141,
AFNE01.JPG,AFNE01.JPG,AFNE01.JPG,AFNE01.JPG,AFNE01.JPG,AFNE01.JPG,0,3,3,7,,,,,,,,,,,,,,,,,,,,,,,AFNE01.jpg,AFSA13.jpg,AFSA08.jpg,AFNE16.jpg,AFSA13.jpg,FS,4,num_6,16,num_6,1.08346994163,,,2017_Aug_21_1217,59.9935538077,FEMA4ImagesEEG,001,201141,
AFNE01.JPG,AFNE01.JPG,AFNE01.JPG,AFNE01.JPG,AFNE01.JPG,AFNE01.JPG,0,4,4,8,,,,,,,,,,,,,,,,,,,,,,,AFNE01.jpg,AFNE09.jpg,AFSA07.jpg,AFSA02.jpg,AFSA02.jpg,FS,4,num_4,32,num_2,1.1499406792,,,2017_Aug_21_1217,59.9935538077,FEMA4ImagesEEG,001,201141,
AFNE01.JPG,AFNE01.JPG,AFNE01.JPG,AFNE01.JPG,AFNE01.JPG,AFNE01.JPG,0,5,5,5,,,,,,,,,,,,,,,,,,,,,,,AFSA06.jpg,AFNE05.jpg,AFSA09.jpg,AFNE19.jpg,AFNE19.jpg,FN,3,num_4,16,num_4,0.750135753187,,,2017_Aug_21_1217,59.9935538077,FEMA4ImagesEEG,001,201141,
AFNE01.JPG,AFNE01.JPG,AFNE01.JPG,AFNE01.JPG,AFNE01.JPG,AFNE01.JPG,0,6,6,1,,,,,,,,,,,,,,,,,,,,,,,AFNE04.jpg,AFSA06.jpg,AFSA09.jpg,AFNE19.jpg,AFSA09.jpg,FS,4,num_2,32,num_6,0.816746333148,,,2017_Aug_21_1217,59.9935538077,FEMA4ImagesEEG,001,201141,
AFNE01.JPG,AFNE01.JPG,AFNE01.JPG,AFNE01.JPG,AFNE01.JPG,AFNE01.JPG,0,7,7,9,,,,,,,,,,,,,,,,,,,,,,,AFSA11.jpg,AFNE09.jpg,AFNE15.jpg,AFSA10.jpg,AFSA11.jpg,FS,4,num_8,16,num_8,0.933435606537,,,2017_Aug_21_1217,59.9935538077,FEMA4ImagesEEG,001,201141,
AFNE01.JPG,AFNE01.JPG,AFNE01.JPG,AFNE01.JPG,AFNE01.JPG,AFNE01.JPG,0,8,8,4,,,,,,,,,,,,,,,,,,,,,,,AFSA12.jpg,AFSA14.jpg,AFNE12.jpg,AFNE07.jpg,AFNE07.jpg,FN,3,num_4,32,num_6,0.833521019435,,,2017_Aug_21_1217,59.9935538077,FEMA4ImagesEEG,001,201141,
AFNE01.JPG,AFNE01.JPG,AFNE01.JPG,AFNE01.JPG,AFNE01.JPG,AFNE01.JPG,0,9,9,3,,,,,,,,,,,,,,,,,,,,,,,AFNE12.jpg,AFSA18.jpg,AFNE10.jpg,AFSA12.jpg,AFNE12.jpg,FN,3,num_8,32,num_2,1.03334923123,,,2017_Aug_21_1217,59.9935538077,FEMA4ImagesEEG,001,201141,
AFNE01.JPG,AFNE01.JPG,AFNE01.JPG,AFNE01.JPG,AFNE01.JPG,AFNE01.JPG,1,0,10,7,,,,,,,,,,,,,,,,,,,,,,,AFNE03.jpg,AFSA20.jpg,AFSA08.jpg,AFNE19.jpg,AFNE03.jpg,FN,3,num_8,32,num_6,0.933514829259,,,2017_Aug_21_1217,59.9935538077,FEMA4ImagesEEG,001,201141,
AFNE01.JPG,AFNE01.JPG,AFNE01.JPG,AFNE01.JPG,AFNE01.JPG,AFNE01.JPG,1,1,11,4,,,,,,,,,,,,,,,,,,,,,,,AFSA08.jpg,AFSA13.jpg,AFNE10.jpg,AFNE16.jpg,AFNE10.jpg,FN,3,num_2,32,num_4,1.11680249462,,,2017_Aug_21_1217,59.9935538077,FEMA4ImagesEEG,001,201141,
AFNE01.JPG,AFNE01.JPG,AFNE01.JPG,AFNE01.JPG,AFNE01.JPG,AFNE01.JPG,1,2,12,6,,,,,,,,,,,,,,,,,,,,,,,AFNE16.jpg,AFSA05.jpg,AFSA16.jpg,AFNE01.jpg,AFSA16.jpg,FS,4,num_2,16,num_2,1.03346245235,,,2017_Aug_21_1217,59.9935538077,FEMA4ImagesEEG,001,201141,
AFNE01.JPG,AFNE01.JPG,AFNE01.JPG,AFNE01.JPG,AFNE01.JPG,AFNE01.JPG,1,3,13,5,,,,,,,,,,,,,,,,,,,,,,,AFSA10.jpg,AFSA12.jpg,AFNE14.jpg,AFNE19.jpg,AFNE14.jpg,FN,3,num_2,16,num_2,1.13341200002,,,2017_Aug_21_1217,59.9935538077,FEMA4ImagesEEG,001,201141,
AFNE01.JPG,AFNE01.JPG,AFNE01.JPG,AFNE01.JPG,AFNE01.JPG,AFNE01.JPG,1,4,14,0,,,,,,,,,,,,,,,,,,,,,,,AFSA08.jpg,AFSA15.jpg,AFNE09.jpg,AFNE20.jpg,AFNE09.jpg,FN,3,num_2,32,num_6,1.58337580459,,,2017_Aug_21_1217,59.9935538077,FEMA4ImagesEEG,001,201141,
AFNE01.JPG,AFNE01.JPG,AFNE01.JPG,AFNE01.JPG,AFNE01.JPG,AFNE01.JPG,1,5,15,9,,,,,,,,,,,,,,,,,,,,,,,AFNE20.jpg,AFSA03.jpg,AFNE12.jpg,AFSA09.jpg,AFSA09.jpg,FS,4,num_4,16,num_4,0.500133267255,,,2017_Aug_21_1217,59.9935538077,FEMA4ImagesEEG,001,201141,
AFNE01.JPG,AFNE01.JPG,AFNE01.JPG,AFNE01.JPG,AFNE01.JPG,AFNE01.JPG,1,6,16,2,,,,,,,,,,,,,,,,,,,,,,,AFNE18.jpg,AFSA02.jpg,AFNE11.jpg,AFSA11.jpg,AFNE11.jpg,FN,3,num_2,32,num_4,1.45007029001,,,2017_Aug_21_1217,59.9935538077,FEMA4ImagesEEG,001,201141,
AFNE01.JPG,AFNE01.JPG,AFNE01.JPG,AFNE01.JPG,AFNE01.JPG,AFNE01.JPG,1,7,17,1,,,,,,,,,,,,,,,,,,,,,,,AFSA06.jpg,AFNE14.jpg,AFSA01.jpg,AFNE13.jpg,AFNE14.jpg,FN,3,num_6,32,num_4,1.35008321586,,,2017_Aug_21_1217,59.9935538077,FEMA4ImagesEEG,001,201141,
AFNE01.JPG,AFNE01.JPG,AFNE01.JPG,AFNE01.JPG,AFNE01.JPG,AFNE01.JPG,1,8,18,3,,,,,,,,,,,,,,,,,,,,,,,AFSA19.jpg,AFNE09.jpg,AFSA04.jpg,AFNE13.jpg,AFNE13.jpg,FN,3,num_4,32,num_6,0.716772729997,,,2017_Aug_21_1217,59.9935538077,FEMA4ImagesEEG,001,201141,
AFNE01.JPG,AFNE01.JPG,AFNE01.JPG,AFNE01.JPG,AFNE01.JPG,AFNE01.JPG,1,9,19,8,,,,,,,,,,,,,,,,,,,,,,,AFSA09.jpg,AFNE17.jpg,AFSA08.jpg,AFNE09.jpg,AFNE17.jpg,FN,3,num_6,32,num_4,1.16675994836,,,2017_Aug_21_1217,59.9935538077,FEMA4ImagesEEG,001,201141,
AFNE01.JPG,AFNE01.JPG,AFNE01.JPG,AFNE01.JPG,AFNE01.JPG,AFNE01.JPG,2,0,20,9,,,,,,,,,,,,,,,,,,,,,,,AFSA17.jpg,AFNE09.jpg,AFNE19.jpg,AFSA20.jpg,AFSA20.jpg,FS,4,num_4,32,num_2,3.28297773458,,,2017_Aug_21_1217,59.9935538077,FEMA4ImagesEEG,001,201141,
AFNE01.JPG,AFNE01.JPG,AFNE01.JPG,AFNE01.JPG,AFNE01.JPG,AFNE01.JPG,2,1,21,4,,,,,,,,,,,,,,,,,,,,,,,AFSA04.jpg,AFSA09.jpg,AFNE09.jpg,AFNE17.jpg,AFSA09.jpg,FS,4,num_6,16,num_6,0.466852353537,,,2017_Aug_21_1217,59.9935538077,FEMA4ImagesEEG,001,201141,
AFNE01.JPG,AFNE01.JPG,AFNE01.JPG,AFNE01.JPG,AFNE01.JPG,AFNE01.JPG,2,2,22,7,,,,,,,,,,,,,,,,,,,,,,,AFSA09.jpg,AFSA18.jpg,AFNE06.jpg,AFNE04.jpg,AFNE04.jpg,FN,3,num_4,32,num_2,2.11707159528,,,2017_Aug_21_1217,59.9935538077,FEMA4ImagesEEG,001,201141,
AFNE01.JPG,AFNE01.JPG,AFNE01.JPG,AFNE01.JPG,AFNE01.JPG,AFNE01.JPG,2,3,23,8,,,,,,,,,,,,,,,,,,,,,,,AFNE08.jpg,AFNE10.jpg,AFSA07.jpg,AFSA10.jpg,AFSA10.jpg,FS,4,num_4,16,num_4,0.733468514401,,,2017_Aug_21_1217,59.9935538077,FEMA4ImagesEEG,001,201141,
AFNE01.JPG,AFNE01.JPG,AFNE01.JPG,AFNE01.JPG,AFNE01.JPG,AFNE01.JPG,2,4,24,5,,,,,,,,,,,,,,,,,,,,,,,AFNE07.jpg,AFSA08.jpg,AFNE01.jpg,AFSA16.jpg,AFSA16.jpg,FS,4,num_4,16,num_4,0.50013647473,,,2017_Aug_21_1217,59.9935538077,FEMA4ImagesEEG,001,201141,
AFNE01.JPG,AFNE01.JPG,AFNE01.JPG,AFNE01.JPG,AFNE01.JPG,AFNE01.JPG,2,5,25,1,,,,,,,,,,,,,,,,,,,,,,,AFSA14.jpg,AFNE07.jpg,AFSA10.jpg,AFNE13.jpg,AFNE13.jpg,FN,3,num_4,32,num_6,1.88339796779,,,2017_Aug_21_1217,59.9935538077,FEMA4ImagesEEG,001,201141,
AFNE01.JPG,AFNE01.JPG,AFNE01.JPG,AFNE01.JPG,AFNE01.JPG,AFNE01.JPG,2,6,26,2,,,,,,,,,,,,,,,,,,,,,,,AFSA08.jpg,AFNE10.jpg,AFSA02.jpg,AFNE02.jpg,AFNE10.jpg,FN,3,num_6,32,num_4,1.00013791805,,,2017_Aug_21_1217,59.9935538077,FEMA4ImagesEEG,001,201141,
AFNE01.JPG,AFNE01.JPG,AFNE01.JPG,AFNE01.JPG,AFNE01.JPG,AFNE01.JPG,2,7,27,3,,,,,,,,,,,,,,,,,,,,,,,AFSA08.jpg,AFNE17.jpg,AFSA05.jpg,AFNE16.jpg,AFNE16.jpg,FN,3,num_4,32,num_6,1.16644177469,,,2017_Aug_21_1217,59.9935538077,FEMA4ImagesEEG,001,201141,
AFNE01.JPG,AFNE01.JPG,AFNE01.JPG,AFNE01.JPG,AFNE01.JPG,AFNE01.JPG,2,8,28,0,,,,,,,,,,,,,,,,,,,,,,,AFNE19.jpg,AFSA14.jpg,AFSA11.jpg,AFNE16.jpg,AFNE16.jpg,FN,3,num_4,16,num_4,1.18339703756,,,2017_Aug_21_1217,59.9935538077,FEMA4ImagesEEG,001,201141,
AFNE01.JPG,AFNE01.JPG,AFNE01.JPG,AFNE01.JPG,AFNE01.JPG,AFNE01.JPG,2,9,29,6,,,,,,,,,,,,,,,,,,,,,,,AFNE14.jpg,AFSA13.jpg,AFNE05.jpg,AFSA11.jpg,AFSA11.jpg,FS,4,num_4,16,num_4,0.433455011225,,,2017_Aug_21_1217,59.9935538077,FEMA4ImagesEEG,001,201141,
AFNE01.JPG,AFNE01.JPG,AFNE01.JPG,AFNE01.JPG,AFNE01.JPG,AFNE01.JPG,3,0,30,2,,,,,,,,,,,,,,,,,,,,,,,AFSA15.jpg,AFNE19.jpg,AFSA14.jpg,AFNE17.jpg,AFSA15.jpg,FS,4,num_8,32,num_2,1.30007604742,,,2017_Aug_21_1217,59.9935538077,FEMA4ImagesEEG,001,201141,
AFNE01.JPG,AFNE01.JPG,AFNE01.JPG,AFNE01.JPG,AFNE01.JPG,AFNE01.JPG,3,1,31,8,,,,,,,,,,,,,,,,,,,,,,,AFNE14.jpg,AFSA11.jpg,AFNE17.jpg,AFSA17.jpg,AFNE14.jpg,FN,3,num_8,32,num_4,0.966762706754,,,2017_Aug_21_1217,59.9935538077,FEMA4ImagesEEG,001,201141,
AFNE01.JPG,AFNE01.JPG,AFNE01.JPG,AFNE01.JPG,AFNE01.JPG,AFNE01.JPG,3,2,32,9,,,,,,,,,,,,,,,,,,,,,,,AFSA02.jpg,AFNE08.jpg,AFSA01.jpg,AFNE12.jpg,AFSA02.jpg,FS,4,num_8,16,num_8,1.08341766114,,,2017_Aug_21_1217,59.9935538077,FEMA4ImagesEEG,001,201141,
AFNE01.JPG,AFNE01.JPG,AFNE01.JPG,AFNE01.JPG,AFNE01.JPG,AFNE01.JPG,3,3,33,6,,,,,,,,,,,,,,,,,,,,,,,AFNE16.jpg,AFSA12.jpg,AFSA03.jpg,AFNE18.jpg,AFNE16.jpg,FN,3,num_8,32,num_2,2.06670167006,,,2017_Aug_21_1217,59.9935538077,FEMA4ImagesEEG,001,201141,
AFNE01.JPG,AFNE01.JPG,AFNE01.JPG,AFNE01.JPG,AFNE01.JPG,AFNE01.JPG,3,4,34,0,,,,,,,,,,,,,,,,,,,,,,,AFNE01.jpg,AFNE20.jpg,AFSA10.jpg,AFSA09.jpg,AFNE01.jpg,FN,3,num_8,32,num_2,3.29996122257,,,2017_Aug_21_1217,59.9935538077,FEMA4ImagesEEG,001,201141,
AFNE01.JPG,AFNE01.JPG,AFNE01.JPG,AFNE01.JPG,AFNE01.JPG,AFNE01.JPG,3,5,35,3,,,,,,,,,,,,,,,,,,,,,,,AFSA18.jpg,AFSA08.jpg,AFNE19.jpg,AFNE16.jpg,AFSA08.jpg,FS,4,num_6,32,num_8,0.966732557281,,,2017_Aug_21_1217,59.9935538077,FEMA4ImagesEEG,001,201141,
AFNE01.JPG,AFNE01.JPG,AFNE01.JPG,AFNE01.JPG,AFNE01.JPG,AFNE01.JPG,3,6,36,7,,,,,,,,,,,,,,,,,,,,,,,AFSA08.jpg,AFNE02.jpg,AFNE09.jpg,AFSA12.jpg,AFNE02.jpg,FN,3,num_6,16,num_6,1.06672476337,,,2017_Aug_21_1217,59.9935538077,FEMA4ImagesEEG,001,201141,
AFNE01.JPG,AFNE01.JPG,AFNE01.JPG,AFNE01.JPG,AFNE01.JPG,AFNE01.JPG,3,7,37,1,,,,,,,,,,,,,,,,,,,,,,,AFNE18.jpg,AFNE08.jpg,AFSA15.jpg,AFSA07.jpg,AFSA07.jpg,FS,4,num_4,16,num_4,0.866778198513,,,2017_Aug_21_1217,59.9935538077,FEMA4ImagesEEG,001,201141,
AFNE01.JPG,AFNE01.JPG,AFNE01.JPG,AFNE01.JPG,AFNE01.JPG,AFNE01.JPG,3,8,38,4,,,,,,,,,,,,,,,,,,,,,,,AFNE19.jpg,AFSA07.jpg,AFSA11.jpg,AFNE16.jpg,AFNE16.jpg,FN,3,num_4,16,num_4,1.10007110797,,,2017_Aug_21_1217,59.9935538077,FEMA4ImagesEEG,001,201141,
AFNE01.JPG,AFNE01.JPG,AFNE01.JPG,AFNE01.JPG,AFNE01.JPG,AFNE01.JPG,3,9,39,5,,,,,,,,,,,,,,,,,,,,,,,AFNE01.jpg,AFSA13.jpg,AFSA18.jpg,AFNE05.jpg,AFSA18.jpg,FS,4,num_2,16,num_2,0.933435927262,,,2017_Aug_21_1217,59.9935538077,FEMA4ImagesEEG,001,201141,
AFNE01.JPG,AFNE01.JPG,AFNE01.JPG,AFNE01.JPG,AFNE01.JPG,AFNE01.JPG,4,0,40,5,,,,,,,,,,,,,,,,,,,,,,,AFNE15.jpg,AFSA15.jpg,AFNE03.jpg,AFSA20.jpg,AFSA20.jpg,FS,4,num_4,32,num_2,1.26670115697,,,2017_Aug_21_1217,59.9935538077,FEMA4ImagesEEG,001,201141,
AFNE01.JPG,AFNE01.JPG,AFNE01.JPG,AFNE01.JPG,AFNE01.JPG,AFNE01.JPG,4,1,41,7,,,,,,,,,,,,,,,,,,,,,,,AFSA16.jpg,AFNE01.jpg,AFSA09.jpg,AFNE17.jpg,AFNE01.jpg,FN,3,num_6,32,num_4,3.01663676836,,,2017_Aug_21_1217,59.9935538077,FEMA4ImagesEEG,001,201141,
AFNE01.JPG,AFNE01.JPG,AFNE01.JPG,AFNE01.JPG,AFNE01.JPG,AFNE01.JPG,4,2,42,8,,,,,,,,,,,,,,,,,,,,,,,AFNE06.jpg,AFSA11.jpg,AFNE04.jpg,AFSA04.jpg,AFSA04.jpg,FS,4,num_4,32,num_6,2.21669206384,,,2017_Aug_21_1217,59.9935538077,FEMA4ImagesEEG,001,201141,
AFNE01.JPG,AFNE01.JPG,AFNE01.JPG,AFNE01.JPG,AFNE01.JPG,AFNE01.JPG,4,3,43,9,,,,,,,,,,,,,,,,,,,,,,,AFSA01.jpg,AFNE19.jpg,AFSA04.jpg,AFNE06.jpg,AFSA04.jpg,FS,4,num_2,32,num_8,0.683406499331,,,2017_Aug_21_1217,59.9935538077,FEMA4ImagesEEG,001,201141,
AFNE01.JPG,AFNE01.JPG,AFNE01.JPG,AFNE01.JPG,AFNE01.JPG,AFNE01.JPG,4,4,44,6,,,,,,,,,,,,,,,,,,,,,,,AFSA14.jpg,AFNE20.jpg,AFNE06.jpg,AFSA19.jpg,AFNE20.jpg,FN,3,num_6,16,num_6,0.916749123484,,,2017_Aug_21_1217,59.9935538077,FEMA4ImagesEEG,001,201141,
AFNE01.JPG,AFNE01.JPG,AFNE01.JPG,AFNE01.JPG,AFNE01.JPG,AFNE01.JPG,4,5,45,3,,,,,,,,,,,,,,,,,,,,,,,AFNE15.jpg,AFSA08.jpg,AFSA15.jpg,AFNE06.jpg,AFSA08.jpg,FS,4,num_6,16,num_6,1.01666114468,,,2017_Aug_21_1217,59.9935538077,FEMA4ImagesEEG,001,201141,
AFNE01.JPG,AFNE01.JPG,AFNE01.JPG,AFNE01.JPG,AFNE01.JPG,AFNE01.JPG,4,6,46,1,,,,,,,,,,,,,,,,,,,,,,,AFSA14.jpg,AFNE08.jpg,AFNE07.jpg,AFSA13.jpg,AFSA13.jpg,FS,4,num_4,16,num_4,0.933488849318,,,2017_Aug_21_1217,59.9935538077,FEMA4ImagesEEG,001,201141,
AFNE01.JPG,AFNE01.JPG,AFNE01.JPG,AFNE01.JPG,AFNE01.JPG,AFNE01.JPG,4,7,47,2,,,,,,,,,,,,,,,,,,,,,,,AFSA13.jpg,AFNE18.jpg,AFSA10.jpg,AFNE03.jpg,AFNE18.jpg,FN,3,num_6,32,num_2,1.0667494603,,,2017_Aug_21_1217,59.9935538077,FEMA4ImagesEEG,001,201141,
AFNE01.JPG,AFNE01.JPG,AFNE01.JPG,AFNE01.JPG,AFNE01.JPG,AFNE01.JPG,4,8,48,4,,,,,,,,,,,,,,,,,,,,,,,AFSA06.jpg,AFSA05.jpg,AFNE05.jpg,AFNE09.jpg,AFSA05.jpg,FS,4,num_6,16,num_6,0.616813560133,,,2017_Aug_21_1217,59.9935538077,FEMA4ImagesEEG,001,201141,
AFNE01.JPG,AFNE01.JPG,AFNE01.JPG,AFNE01.JPG,AFNE01.JPG,AFNE01.JPG,4,9,49,0,,,,,,,,,,,,,,,,,,,,,,,AFNE01.jpg,AFSA17.jpg,AFSA02.jpg,AFNE10.jpg,AFSA02.jpg,FS,4,num_2,16,num_2,0.900126467692,,,2017_Aug_21_1217,59.9935538077,FEMA4ImagesEEG,001,201141,
AFNE01.JPG,AFNE01.JPG,AFNE01.JPG,AFNE01.JPG,AFNE01.JPG,AFNE01.JPG,5,0,50,8,,,,,,,,,,,,,,,,,,,,,,,AFNE11.jpg,AFSA17.jpg,AFNE04.jpg,AFSA05.jpg,AFSA05.jpg,FS,4,num_4,16,num_4,0.650107303401,,,2017_Aug_21_1217,59.9935538077,FEMA4ImagesEEG,001,201141,
AFNE01.JPG,AFNE01.JPG,AFNE01.JPG,AFNE01.JPG,AFNE01.JPG,AFNE01.JPG,5,1,51,2,,,,,,,,,,,,,,,,,,,,,,,AFNE02.jpg,AFSA12.jpg,AFNE01.jpg,AFSA10.jpg,AFNE02.jpg,FN,3,num_8,32,num_4,0.866765048238,,,2017_Aug_21_1217,59.9935538077,FEMA4ImagesEEG,001,201141,
AFNE01.JPG,AFNE01.JPG,AFNE01.JPG,AFNE01.JPG,AFNE01.JPG,AFNE01.JPG,5,2,52,1,,,,,,,,,,,,,,,,,,,,,,,AFNE08.jpg,AFSA16.jpg,AFNE01.jpg,AFSA02.jpg,AFNE01.jpg,FN,3,num_2,16,num_2,2.04999658419,,,2017_Aug_21_1217,59.9935538077,FEMA4ImagesEEG,001,201141,
AFNE01.JPG,AFNE01.JPG,AFNE01.JPG,AFNE01.JPG,AFNE01.JPG,AFNE01.JPG,5,3,53,7,,,,,,,,,,,,,,,,,,,,,,,AFNE02.jpg,AFSA12.jpg,AFSA20.jpg,AFNE17.jpg,AFNE17.jpg,FN,3,num_4,16,num_4,0.800100904657,,,2017_Aug_21_1217,59.9935538077,FEMA4ImagesEEG,001,201141,
AFNE01.JPG,AFNE01.JPG,AFNE01.JPG,AFNE01.JPG,AFNE01.JPG,AFNE01.JPG,5,4,54,3,,,,,,,,,,,,,,,,,,,,,,,AFNE05.jpg,AFNE14.jpg,AFSA04.jpg,AFSA20.jpg,AFSA20.jpg,FS,4,num_4,16,num_4,0.466844655806,,,2017_Aug_21_1217,59.9935538077,FEMA4ImagesEEG,001,201141,
AFNE01.JPG,AFNE01.JPG,AFNE01.JPG,AFNE01.JPG,AFNE01.JPG,AFNE01.JPG,5,5,55,9,,,,,,,,,,,,,,,,,,,,,,,AFSA17.jpg,AFNE10.jpg,AFNE05.jpg,AFSA05.jpg,AFNE10.jpg,FN,3,num_6,16,num_6,0.566852578078,,,2017_Aug_21_1217,59.9935538077,FEMA4ImagesEEG,001,201141,
AFNE01.JPG,AFNE01.JPG,AFNE01.JPG,AFNE01.JPG,AFNE01.JPG,AFNE01.JPG,5,6,56,0,,,,,,,,,,,,,,,,,,,,,,,AFNE09.jpg,AFSA10.jpg,AFNE19.jpg,AFSA17.jpg,AFNE09.jpg,FN,3,num_8,16,num_8,0.816759483423,,,2017_Aug_21_1217,59.9935538077,FEMA4ImagesEEG,001,201141,
AFNE01.JPG,AFNE01.JPG,AFNE01.JPG,AFNE01.JPG,AFNE01.JPG,AFNE01.JPG,5,7,57,5,,,,,,,,,,,,,,,,,,,,,,,AFSA09.jpg,AFNE15.jpg,AFNE04.jpg,AFSA04.jpg,AFSA04.jpg,FS,4,num_4,16,num_4,1.2500643885,,,2017_Aug_21_1217,59.9935538077,FEMA4ImagesEEG,001,201141,
AFNE01.JPG,AFNE01.JPG,AFNE01.JPG,AFNE01.JPG,AFNE01.JPG,AFNE01.JPG,5,8,58,6,,,,,,,,,,,,,,,,,,,,,,,AFNE03.jpg,AFSA01.jpg,AFSA03.jpg,AFNE13.jpg,AFSA03.jpg,FS,4,num_2,16,num_2,1.26672745752,,,2017_Aug_21_1217,59.9935538077,FEMA4ImagesEEG,001,201141,
AFNE01.JPG,AFNE01.JPG,AFNE01.JPG,AFNE01.JPG,AFNE01.JPG,AFNE01.JPG,5,9,59,4,,,,,,,,,,,,,,,,,,,,,,,AFSA05.jpg,AFNE02.jpg,AFNE03.jpg,AFSA16.jpg,AFSA16.jpg,FS,4,num_4,32,num_8,2.78328355984,,,2017_Aug_21_1217,59.9935538077,FEMA4ImagesEEG,001,201141,
,,,,,,,,,,,,,,,,,,,,,,,,,,,,,,,,,,,,,,,,,,,space,14.3154442902,2017_Aug_21_1217,59.9935538077,FEMA4ImagesEEG,001,201141,
AFNE01.JPG,AFNE01.JPG,AFNE01.JPG,AFNE01.JPG,AFNE01.JPG,AFNE01.JPG,,,,,0,0,0,7,,,,,,,,,,,,,,,,,,,AMSA19.jpg,AMSA13.jpg,AMNE11.jpg,AMNE04.jpg,AMNE11.jpg,MN,1,num_2,32,num_4,0.750111697591,,,2017_Aug_21_1217,59.9935538077,FEMA4ImagesEEG,001,201141,
AFNE01.JPG,AFNE01.JPG,AFNE01.JPG,AFNE01.JPG,AFNE01.JPG,AFNE01.JPG,,,,,0,1,1,5,,,,,,,,,,,,,,,,,,,AMNE09.jpg,AMNE19.jpg,AMSA10.jpg,AMSA02.jpg,AMSA10.jpg,MS,2,num_2,16,num_2,1.06683381472,,,2017_Aug_21_1217,59.9935538077,FEMA4ImagesEEG,001,201141,
AFNE01.JPG,AFNE01.JPG,AFNE01.JPG,AFNE01.JPG,AFNE01.JPG,AFNE01.JPG,,,,,0,2,2,6,,,,,,,,,,,,,,,,,,,AMSA13.jpg,AMNE03.jpg,AMNE17.jpg,AMSA15.jpg,AMNE03.jpg,MN,1,num_6,16,num_6,1.26700361434,,,2017_Aug_21_1217,59.9935538077,FEMA4ImagesEEG,001,201141,
AFNE01.JPG,AFNE01.JPG,AFNE01.JPG,AFNE01.JPG,AFNE01.JPG,AFNE01.JPG,,,,,0,3,3,8,,,,,,,,,,,,,,,,,,,AMSA13.jpg,AMSA06.jpg,AMNE06.jpg,AMNE02.jpg,AMSA13.jpg,MS,2,num_8,32,num_6,0.616858142894,,,2017_Aug_21_1217,59.9935538077,FEMA4ImagesEEG,001,201141,
AFNE01.JPG,AFNE01.JPG,AFNE01.JPG,AFNE01.JPG,AFNE01.JPG,AFNE01.JPG,,,,,0,4,4,9,,,,,,,,,,,,,,,,,,,AMSA16.jpg,AMNE06.jpg,AMSA05.jpg,AMNE03.jpg,AMSA05.jpg,MS,2,num_2,16,num_2,0.900162069825,,,2017_Aug_21_1217,59.9935538077,FEMA4ImagesEEG,001,201141,
AFNE01.JPG,AFNE01.JPG,AFNE01.JPG,AFNE01.JPG,AFNE01.JPG,AFNE01.JPG,,,,,0,5,5,1,,,,,,,,,,,,,,,,,,,AMNE11.jpg,AMSA18.jpg,AMNE12.jpg,AMSA04.jpg,AMNE12.jpg,MN,1,num_2,32,num_8,1.216743703,,,2017_Aug_21_1217,59.9935538077,FEMA4ImagesEEG,001,201141,
AFNE01.JPG,AFNE01.JPG,AFNE01.JPG,AFNE01.JPG,AFNE01.JPG,AFNE01.JPG,,,,,0,6,6,3,,,,,,,,,,,,,,,,,,,AMNE12.jpg,AMSA16.jpg,AMSA04.jpg,AMNE08.jpg,AMNE08.jpg,MN,1,num_4,32,num_6,1.18347465666,,,2017_Aug_21_1217,59.9935538077,FEMA4ImagesEEG,001,201141,
AFNE01.JPG,AFNE01.JPG,AFNE01.JPG,AFNE01.JPG,AFNE01.JPG,AFNE01.JPG,,,,,0,7,7,4,,,,,,,,,,,,,,,,,,,AMNE15.jpg,AMSA16.jpg,AMNE08.jpg,AMSA01.jpg,AMSA01.jpg,MS,2,num_4,16,num_4,1.01673363172,,,2017_Aug_21_1217,59.9935538077,FEMA4ImagesEEG,001,201141,
AFNE01.JPG,AFNE01.JPG,AFNE01.JPG,AFNE01.JPG,AFNE01.JPG,AFNE01.JPG,,,,,0,8,8,2,,,,,,,,,,,,,,,,,,,AMSA12.jpg,AMNE04.jpg,AMNE10.jpg,AMSA05.jpg,AMSA05.jpg,MS,2,num_4,16,num_4,0.750122281956,,,2017_Aug_21_1217,59.9935538077,FEMA4ImagesEEG,001,201141,
AFNE01.JPG,AFNE01.JPG,AFNE01.JPG,AFNE01.JPG,AFNE01.JPG,AFNE01.JPG,,,,,0,9,9,0,,,,,,,,,,,,,,,,,,,AMNE08.jpg,AMNE16.jpg,AMSA05.jpg,AMSA15.jpg,AMSA15.jpg,MS,2,num_4,16,num_4,0.450129947625,,,2017_Aug_21_1217,59.9935538077,FEMA4ImagesEEG,001,201141,
AFNE01.JPG,AFNE01.JPG,AFNE01.JPG,AFNE01.JPG,AFNE01.JPG,AFNE01.JPG,,,,,1,0,10,8,,,,,,,,,,,,,,,,,,,AMSA02.jpg,AMSA13.jpg,AMNE14.jpg,AMNE15.jpg,AMSA02.jpg,MS,2,num_8,32,num_6,0.89983331156,,,2017_Aug_21_1217,59.9935538077,FEMA4ImagesEEG,001,201141,
AFNE01.JPG,AFNE01.JPG,AFNE01.JPG,AFNE01.JPG,AFNE01.JPG,AFNE01.JPG,,,,,1,1,11,1,,,,,,,,,,,,,,,,,,,AMSA06.jpg,AMSA15.jpg,AMNE11.jpg,AMNE17.jpg,AMSA15.jpg,MS,2,num_6,16,num_6,0.500243922463,,,2017_Aug_21_1217,59.9935538077,FEMA4ImagesEEG,001,201141,
AFNE01.JPG,AFNE01.JPG,AFNE01.JPG,AFNE01.JPG,AFNE01.JPG,AFNE01.JPG,,,,,1,2,12,5,,,,,,,,,,,,,,,,,,,AMSA04.jpg,AMSA08.jpg,AMNE20.jpg,AMNE10.jpg,AMNE10.jpg,MN,1,num_4,32,num_2,1.89991221356,,,2017_Aug_21_1217,59.9935538077,FEMA4ImagesEEG,001,201141,
AFNE01.JPG,AFNE01.JPG,AFNE01.JPG,AFNE01.JPG,AFNE01.JPG,AFNE01.JPG,,,,,1,3,13,7,,,,,,,,,,,,,,,,,,,AMNE01.jpg,AMSA16.jpg,AMNE10.jpg,AMSA06.jpg,AMSA16.jpg,MS,2,num_6,32,num_4,1.58366190444,,,2017_Aug_21_1217,59.9935538077,FEMA4ImagesEEG,001,201141,
AFNE01.JPG,AFNE01.JPG,AFNE01.JPG,AFNE01.JPG,AFNE01.JPG,AFNE01.JPG,,,,,1,4,14,2,,,,,,,,,,,,,,,,,,,AMNE13.jpg,AMSA11.jpg,AMNE06.jpg,AMSA15.jpg,AMNE13.jpg,MN,1,num_8,32,num_2,1.71669029992,,,2017_Aug_21_1217,59.9935538077,FEMA4ImagesEEG,001,201141,
AFNE01.JPG,AFNE01.JPG,AFNE01.JPG,AFNE01.JPG,AFNE01.JPG,AFNE01.JPG,,,,,1,5,15,6,,,,,,,,,,,,,,,,,,,AMNE02.jpg,AMSA19.jpg,AMNE13.jpg,AMSA11.jpg,AMNE13.jpg,MN,1,num_2,32,num_8,1.21670040314,,,2017_Aug_21_1217,59.9935538077,FEMA4ImagesEEG,001,201141,
AFNE01.JPG,AFNE01.JPG,AFNE01.JPG,AFNE01.JPG,AFNE01.JPG,AFNE01.JPG,,,,,1,6,16,4,,,,,,,,,,,,,,,,,,,AMNE02.jpg,AMNE18.jpg,AMSA02.jpg,AMSA01.jpg,AMNE02.jpg,MN,1,num_8,32,num_2,1.16656333511,,,2017_Aug_21_1217,59.9935538077,FEMA4ImagesEEG,001,201141,
AFNE01.JPG,AFNE01.JPG,AFNE01.JPG,AFNE01.JPG,AFNE01.JPG,AFNE01.JPG,,,,,1,7,17,9,,,,,,,,,,,,,,,,,,,AMNE09.jpg,AMSA09.jpg,AMNE01.jpg,AMSA03.jpg,AMSA09.jpg,MS,2,num_6,16,num_6,1.1167450822,,,2017_Aug_21_1217,59.9935538077,FEMA4ImagesEEG,001,201141,
AFNE01.JPG,AFNE01.JPG,AFNE01.JPG,AFNE01.JPG,AFNE01.JPG,AFNE01.JPG,,,,,1,8,18,3,,,,,,,,,,,,,,,,,,,AMSA09.jpg,AMNE11.jpg,AMNE18.jpg,AMSA15.jpg,AMNE18.jpg,MN,1,num_2,16,num_2,1.26674477744,,,2017_Aug_21_1217,59.9935538077,FEMA4ImagesEEG,001,201141,
AFNE01.JPG,AFNE01.JPG,AFNE01.JPG,AFNE01.JPG,AFNE01.JPG,AFNE01.JPG,,,,,1,9,19,0,,,,,,,,,,,,,,,,,,,AMSA07.jpg,AMSA05.jpg,AMNE09.jpg,AMNE17.jpg,AMNE09.jpg,MN,1,num_2,16,num_2,1.53334907093,,,2017_Aug_21_1217,59.9935538077,FEMA4ImagesEEG,001,201141,
AFNE01.JPG,AFNE01.JPG,AFNE01.JPG,AFNE01.JPG,AFNE01.JPG,AFNE01.JPG,,,,,2,0,20,6,,,,,,,,,,,,,,,,,,,AMSA01.jpg,AMNE17.jpg,AMSA12.jpg,AMNE04.jpg,AMNE04.jpg,MN,1,num_4,32,num_2,2.14970333176,,,2017_Aug_21_1217,59.9935538077,FEMA4ImagesEEG,001,201141,
AFNE01.JPG,AFNE01.JPG,AFNE01.JPG,AFNE01.JPG,AFNE01.JPG,AFNE01.JPG,,,,,2,1,21,3,,,,,,,,,,,,,,,,,,,AMSA08.jpg,AMNE19.jpg,AMSA15.jpg,AMNE13.jpg,AMNE19.jpg,MN,1,num_6,16,num_6,0.633513193461,,,2017_Aug_21_1217,59.9935538077,FEMA4ImagesEEG,001,201141,
AFNE01.JPG,AFNE01.JPG,AFNE01.JPG,AFNE01.JPG,AFNE01.JPG,AFNE01.JPG,,,,,2,2,22,0,,,,,,,,,,,,,,,,,,,AMSA07.jpg,AMNE11.jpg,AMSA01.jpg,AMNE02.jpg,AMSA01.jpg,MS,2,num_2,16,num_2,1.05009793793,,,2017_Aug_21_1217,59.9935538077,FEMA4ImagesEEG,001,201141,
AFNE01.JPG,AFNE01.JPG,AFNE01.JPG,AFNE01.JPG,AFNE01.JPG,AFNE01.JPG,,,,,2,3,23,2,,,,,,,,,,,,,,,,,,,AMSA15.jpg,AMNE11.jpg,AMNE17.jpg,AMSA04.jpg,AMNE17.jpg,MN,1,num_2,16,num_2,1.73337261332,,,2017_Aug_21_1217,59.9935538077,FEMA4ImagesEEG,001,201141,
AFNE01.JPG,AFNE01.JPG,AFNE01.JPG,AFNE01.JPG,AFNE01.JPG,AFNE01.JPG,,,,,2,4,24,4,,,,,,,,,,,,,,,,,,,AMSA08.jpg,AMNE16.jpg,AMNE13.jpg,AMSA10.jpg,AMSA10.jpg,MS,2,num_4,16,num_4,0.633509344654,,,2017_Aug_21_1217,59.9935538077,FEMA4ImagesEEG,001,201141,
AFNE01.JPG,AFNE01.JPG,AFNE01.JPG,AFNE01.JPG,AFNE01.JPG,AFNE01.JPG,,,,,2,5,25,1,,,,,,,,,,,,,,,,,,,AMSA16.jpg,AMNE07.jpg,AMNE20.jpg,AMSA05.jpg,AMNE20.jpg,MN,1,num_2,16,num_2,1.2000944257,,,2017_Aug_21_1217,59.9935538077,FEMA4ImagesEEG,001,201141,
AFNE01.JPG,AFNE01.JPG,AFNE01.JPG,AFNE01.JPG,AFNE01.JPG,AFNE01.JPG,,,,,2,6,26,8,,,,,,,,,,,,,,,,,,,AMSA03.jpg,AMNE17.jpg,AMNE01.jpg,AMSA15.jpg,AMNE01.jpg,MN,1,num_2,16,num_2,1.66672995931,,,2017_Aug_21_1217,59.9935538077,FEMA4ImagesEEG,001,201141,
AFNE01.JPG,AFNE01.JPG,AFNE01.JPG,AFNE01.JPG,AFNE01.JPG,AFNE01.JPG,,,,,2,7,27,5,,,,,,,,,,,,,,,,,,,AMSA07.jpg,AMNE18.jpg,AMNE11.jpg,AMSA12.jpg,AMNE11.jpg,MN,1,num_2,16,num_2,1.76666571514,,,2017_Aug_21_1217,59.9935538077,FEMA4ImagesEEG,001,201141,
AFNE01.JPG,AFNE01.JPG,AFNE01.JPG,AFNE01.JPG,AFNE01.JPG,AFNE01.JPG,,,,,2,8,28,9,,,,,,,,,,,,,,,,,,,AMNE09.jpg,AMSA14.jpg,AMSA08.jpg,AMNE01.jpg,AMSA08.jpg,MS,2,num_2,32,num_4,0.966766555677,,,2017_Aug_21_1217,59.9935538077,FEMA4ImagesEEG,001,201141,
AFNE01.JPG,AFNE01.JPG,AFNE01.JPG,AFNE01.JPG,AFNE01.JPG,AFNE01.JPG,,,,,2,9,29,7,,,,,,,,,,,,,,,,,,,AMSA12.jpg,AMNE17.jpg,AMNE08.jpg,AMSA10.jpg,AMNE17.jpg,MN,1,num_6,32,num_2,1.45008408197,,,2017_Aug_21_1217,59.9935538077,FEMA4ImagesEEG,001,201141,
AFNE01.JPG,AFNE01.JPG,AFNE01.JPG,AFNE01.JPG,AFNE01.JPG,AFNE01.JPG,,,,,3,0,30,3,,,,,,,,,,,,,,,,,,,AMSA07.jpg,AMSA11.jpg,AMNE06.jpg,AMNE03.jpg,AMSA07.jpg,MS,2,num_8,16,num_8,0.750114904949,,,2017_Aug_21_1217,59.9935538077,FEMA4ImagesEEG,001,201141,
AFNE01.JPG,AFNE01.JPG,AFNE01.JPG,AFNE01.JPG,AFNE01.JPG,AFNE01.JPG,,,,,3,1,31,6,,,,,,,,,,,,,,,,,,,AMSA07.jpg,AMNE04.jpg,AMNE12.jpg,AMSA16.jpg,AMNE04.jpg,MN,1,num_6,32,num_2,1.10007174953,,,2017_Aug_21_1217,59.9935538077,FEMA4ImagesEEG,001,201141,
AFNE01.JPG,AFNE01.JPG,AFNE01.JPG,AFNE01.JPG,AFNE01.JPG,AFNE01.JPG,,,,,3,2,32,7,,,,,,,,,,,,,,,,,,,AMNE04.jpg,AMNE09.jpg,AMSA05.jpg,AMSA03.jpg,AMSA03.jpg,MS,2,num_4,32,num_6,1.41642533673,,,2017_Aug_21_1217,59.9935538077,FEMA4ImagesEEG,001,201141,
AFNE01.JPG,AFNE01.JPG,AFNE01.JPG,AFNE01.JPG,AFNE01.JPG,AFNE01.JPG,,,,,3,3,33,8,,,,,,,,,,,,,,,,,,,AMSA14.jpg,AMSA02.jpg,AMNE10.jpg,AMNE17.jpg,AMNE17.jpg,MN,1,num_4,16,num_4,0.783476645127,,,2017_Aug_21_1217,59.9935538077,FEMA4ImagesEEG,001,201141,
AFNE01.JPG,AFNE01.JPG,AFNE01.JPG,AFNE01.JPG,AFNE01.JPG,AFNE01.JPG,,,,,3,4,34,0,,,,,,,,,,,,,,,,,,,AMSA19.jpg,AMSA20.jpg,AMNE04.jpg,AMNE01.jpg,AMSA19.jpg,MS,2,num_8,32,num_6,2.31665989372,,,2017_Aug_21_1217,59.9935538077,FEMA4ImagesEEG,001,201141,
AFNE01.JPG,AFNE01.JPG,AFNE01.JPG,AFNE01.JPG,AFNE01.JPG,AFNE01.JPG,,,,,3,5,35,9,,,,,,,,,,,,,,,,,,,AMNE13.jpg,AMNE11.jpg,AMSA12.jpg,AMSA02.jpg,AMSA12.jpg,MS,2,num_2,16,num_2,2.06670199079,,,2017_Aug_21_1217,59.9935538077,FEMA4ImagesEEG,001,201141,
AFNE01.JPG,AFNE01.JPG,AFNE01.JPG,AFNE01.JPG,AFNE01.JPG,AFNE01.JPG,,,,,3,6,36,4,,,,,,,,,,,,,,,,,,,AMSA01.jpg,AMNE09.jpg,AMNE13.jpg,AMSA09.jpg,AMNE09.jpg,MN,1,num_6,32,num_4,1.70002658933,,,2017_Aug_21_1217,59.9935538077,FEMA4ImagesEEG,001,201141,
AFNE01.JPG,AFNE01.JPG,AFNE01.JPG,AFNE01.JPG,AFNE01.JPG,AFNE01.JPG,,,,,3,7,37,2,,,,,,,,,,,,,,,,,,,AMSA17.jpg,AMNE17.jpg,AMSA05.jpg,AMNE02.jpg,AMSA05.jpg,MS,2,num_2,16,num_2,1.15014306596,,,2017_Aug_21_1217,59.9935538077,FEMA4ImagesEEG,001,201141,
AFNE01.JPG,AFNE01.JPG,AFNE01.JPG,AFNE01.JPG,AFNE01.JPG,AFNE01.JPG,,,,,3,8,38,1,,,,,,,,,,,,,,,,,,,AMNE07.jpg,AMSA15.jpg,AMNE03.jpg,AMSA20.jpg,AMSA15.jpg,MS,2,num_6,16,num_6,0.716743221856,,,2017_Aug_21_1217,59.9935538077,FEMA4ImagesEEG,001,201141,
AFNE01.JPG,AFNE01.JPG,AFNE01.JPG,AFNE01.JPG,AFNE01.JPG,AFNE01.JPG,,,,,3,9,39,5,,,,,,,,,,,,,,,,,,,AMNE14.jpg,AMNE19.jpg,AMSA17.jpg,AMSA13.jpg,AMSA13.jpg,MS,2,num_4,32,num_2,1.91669491853,,,2017_Aug_21_1217,59.9935538077,FEMA4ImagesEEG,001,201141,
AFNE01.JPG,AFNE01.JPG,AFNE01.JPG,AFNE01.JPG,AFNE01.JPG,AFNE01.JPG,,,,,4,0,40,1,,,,,,,,,,,,,,,,,,,AMSA14.jpg,AMSA20.jpg,AMNE06.jpg,AMNE15.jpg,AMNE06.jpg,MN,1,num_2,32,num_4,0.550105154514,,,2017_Aug_21_1217,59.9935538077,FEMA4ImagesEEG,001,201141,
AFNE01.JPG,AFNE01.JPG,AFNE01.JPG,AFNE01.JPG,AFNE01.JPG,AFNE01.JPG,,,,,4,1,41,4,,,,,,,,,,,,,,,,,,,AMNE03.jpg,AMNE18.jpg,AMSA05.jpg,AMSA12.jpg,AMNE03.jpg,MN,1,num_8,32,num_2,1.0501486148,,,2017_Aug_21_1217,59.9935538077,FEMA4ImagesEEG,001,201141,
AFNE01.JPG,AFNE01.JPG,AFNE01.JPG,AFNE01.JPG,AFNE01.JPG,AFNE01.JPG,,,,,4,2,42,2,,,,,,,,,,,,,,,,,,,AMNE09.jpg,AMSA02.jpg,AMSA11.jpg,AMNE10.jpg,AMNE10.jpg,MN,1,num_4,16,num_4,0.899954871857,,,2017_Aug_21_1217,59.9935538077,FEMA4ImagesEEG,001,201141,
AFNE01.JPG,AFNE01.JPG,AFNE01.JPG,AFNE01.JPG,AFNE01.JPG,AFNE01.JPG,,,,,4,3,43,5,,,,,,,,,,,,,,,,,,,AMNE14.jpg,AMSA06.jpg,AMSA07.jpg,AMNE16.jpg,AMSA06.jpg,MS,2,num_6,32,num_8,1.13343637635,,,2017_Aug_21_1217,59.9935538077,FEMA4ImagesEEG,001,201141,
AFNE01.JPG,AFNE01.JPG,AFNE01.JPG,AFNE01.JPG,AFNE01.JPG,AFNE01.JPG,,,,,4,4,44,0,,,,,,,,,,,,,,,,,,,AMSA03.jpg,AMNE18.jpg,AMSA19.jpg,AMNE19.jpg,AMSA19.jpg,MS,2,num_2,32,num_8,0.400075951125,,,2017_Aug_21_1217,59.9935538077,FEMA4ImagesEEG,001,201141,
AFNE01.JPG,AFNE01.JPG,AFNE01.JPG,AFNE01.JPG,AFNE01.JPG,AFNE01.JPG,,,,,4,5,45,7,,,,,,,,,,,,,,,,,,,AMNE07.jpg,AMSA08.jpg,AMSA15.jpg,AMNE01.jpg,AMNE01.jpg,MN,1,num_4,16,num_4,0.900134165422,,,2017_Aug_21_1217,59.9935538077,FEMA4ImagesEEG,001,201141,
AFNE01.JPG,AFNE01.JPG,AFNE01.JPG,AFNE01.JPG,AFNE01.JPG,AFNE01.JPG,,,,,4,6,46,6,,,,,,,,,,,,,,,,,,,AMNE11.jpg,AMSA18.jpg,AMNE14.jpg,AMSA09.jpg,AMSA09.jpg,MS,2,num_4,32,num_6,0.700131471152,,,2017_Aug_21_1217,59.9935538077,FEMA4ImagesEEG,001,201141,
AFNE01.JPG,AFNE01.JPG,AFNE01.JPG,AFNE01.JPG,AFNE01.JPG,AFNE01.JPG,,,,,4,7,47,3,,,,,,,,,,,,,,,,,,,AMNE12.jpg,AMSA15.jpg,AMNE19.jpg,AMSA10.jpg,AMNE19.jpg,MN,1,num_2,16,num_2,1.01683723077,,,2017_Aug_21_1217,59.9935538077,FEMA4ImagesEEG,001,201141,
AFNE01.JPG,AFNE01.JPG,AFNE01.JPG,AFNE01.JPG,AFNE01.JPG,AFNE01.JPG,,,,,4,8,48,9,,,,,,,,,,,,,,,,,,,AMNE17.jpg,AMSA02.jpg,AMSA05.jpg,AMNE10.jpg,AMSA05.jpg,MS,2,num_2,16,num_2,1.15009399271,,,2017_Aug_21_1217,59.9935538077,FEMA4ImagesEEG,001,201141,
AFNE01.JPG,AFNE01.JPG,AFNE01.JPG,AFNE01.JPG,AFNE01.JPG,AFNE01.JPG,,,,,4,9,49,8,,,,,,,,,,,,,,,,,,,AMNE19.jpg,AMSA05.jpg,AMNE11.jpg,AMSA18.jpg,AMNE11.jpg,MN,1,num_2,16,num_2,1.41662772349,,,2017_Aug_21_1217,59.9935538077,FEMA4ImagesEEG,001,201141,
AFNE01.JPG,AFNE01.JPG,AFNE01.JPG,AFNE01.JPG,AFNE01.JPG,AFNE01.JPG,,,,,5,0,50,5,,,,,,,,,,,,,,,,,,,AMSA08.jpg,AMNE20.jpg,AMSA20.jpg,AMNE14.jpg,AMNE14.jpg,MN,1,num_4,32,num_8,2.00003913022,,,2017_Aug_21_1217,59.9935538077,FEMA4ImagesEEG,001,201141,
AFNE01.JPG,AFNE01.JPG,AFNE01.JPG,AFNE01.JPG,AFNE01.JPG,AFNE01.JPG,,,,,5,1,51,3,,,,,,,,,,,,,,,,,,,AMSA15.jpg,AMNE04.jpg,AMNE17.jpg,AMSA14.jpg,AMSA14.jpg,MS,2,num_4,16,num_4,0.533481857157,,,2017_Aug_21_1217,59.9935538077,FEMA4ImagesEEG,001,201141,
AFNE01.JPG,AFNE01.JPG,AFNE01.JPG,AFNE01.JPG,AFNE01.JPG,AFNE01.JPG,,,,,5,2,52,0,,,,,,,,,,,,,,,,,,,AMNE09.jpg,AMSA16.jpg,AMSA05.jpg,AMNE03.jpg,AMSA16.jpg,MS,2,num_6,16,num_6,0.7331403977,,,2017_Aug_21_1217,59.9935538077,FEMA4ImagesEEG,001,201141,
AFNE01.JPG,AFNE01.JPG,AFNE01.JPG,AFNE01.JPG,AFNE01.JPG,AFNE01.JPG,,,,,5,3,53,9,,,,,,,,,,,,,,,,,,,AMSA01.jpg,AMNE03.jpg,AMNE14.jpg,AMSA17.jpg,AMNE14.jpg,MN,1,num_2,16,num_2,1.31674328609,,,2017_Aug_21_1217,59.9935538077,FEMA4ImagesEEG,001,201141,
AFNE01.JPG,AFNE01.JPG,AFNE01.JPG,AFNE01.JPG,AFNE01.JPG,AFNE01.JPG,,,,,5,4,54,1,,,,,,,,,,,,,,,,,,,AMSA07.jpg,AMNE17.jpg,AMSA09.jpg,AMNE06.jpg,AMSA07.jpg,MS,2,num_8,32,num_4,1.43343288032,,,2017_Aug_21_1217,59.9935538077,FEMA4ImagesEEG,001,201141,
AFNE01.JPG,AFNE01.JPG,AFNE01.JPG,AFNE01.JPG,AFNE01.JPG,AFNE01.JPG,,,,,5,5,55,2,,,,,,,,,,,,,,,,,,,AMNE19.jpg,AMSA13.jpg,AMNE04.jpg,AMSA17.jpg,AMSA17.jpg,MS,2,num_4,32,num_8,0.783471192583,,,2017_Aug_21_1217,59.9935538077,FEMA4ImagesEEG,001,201141,
AFNE01.JPG,AFNE01.JPG,AFNE01.JPG,AFNE01.JPG,AFNE01.JPG,AFNE01.JPG,,,,,5,6,56,6,,,,,,,,,,,,,,,,,,,AMNE12.jpg,AMNE13.jpg,AMSA15.jpg,AMSA01.jpg,AMSA15.jpg,MS,2,num_2,16,num_2,0.950123051764,,,2017_Aug_21_1217,59.9935538077,FEMA4ImagesEEG,001,201141,
AFNE01.JPG,AFNE01.JPG,AFNE01.JPG,AFNE01.JPG,AFNE01.JPG,AFNE01.JPG,,,,,5,7,57,4,,,,,,,,,,,,,,,,,,,AMSA20.jpg,AMNE13.jpg,AMNE19.jpg,AMSA07.jpg,AMSA07.jpg,MS,2,num_4,16,num_4,0.550115738995,,,2017_Aug_21_1217,59.9935538077,FEMA4ImagesEEG,001,201141,
AFNE01.JPG,AFNE01.JPG,AFNE01.JPG,AFNE01.JPG,AFNE01.JPG,AFNE01.JPG,,,,,5,8,58,8,,,,,,,,,,,,,,,,,,,AMNE13.jpg,AMNE03.jpg,AMSA12.jpg,AMSA02.jpg,AMSA12.jpg,MS,2,num_2,32,num_6,0.800126563874,,,2017_Aug_21_1217,59.9935538077,FEMA4ImagesEEG,001,201141,
AFNE01.JPG,AFNE01.JPG,AFNE01.JPG,AFNE01.JPG,AFNE01.JPG,AFNE01.JPG,,,,,5,9,59,7,,,,,,,,,,,,,,,,,,,AMSA09.jpg,AMSA13.jpg,AMNE11.jpg,AMNE10.jpg,AMSA09.jpg,MS,2,num_8,32,num_2,0.950081355637,,,2017_Aug_21_1217,59.9935538077,FEMA4ImagesEEG,001,201141,
,,,,,,,,,,,,,,,,,,,,,,,,,,,,,,,,,,,,,,,,,,,space,23.4313949002,2017_Aug_21_1217,59.9935538077,FEMA4ImagesEEG,001,201141,
AFNE01.JPG,AFNE01.JPG,AFNE01.JPG,AFNE01.JPG,AFNE01.JPG,AFNE01.JPG,,,,,,,,,0,0,0,4,,,,,,,,,,,,,,,AFSA16.jpg,AFNE13.jpg,AFNE18.jpg,AFSA05.jpg,AFNE13.jpg,FN,3,num_6,32,num_2,1.20011687744,,,2017_Aug_21_1217,59.9935538077,FEMA4ImagesEEG,001,201141,
AFNE01.JPG,AFNE01.JPG,AFNE01.JPG,AFNE01.JPG,AFNE01.JPG,AFNE01.JPG,,,,,,,,,0,1,1,6,,,,,,,,,,,,,,,AFSA18.jpg,AFSA14.jpg,AFNE20.jpg,AFNE02.jpg,AFSA14.jpg,FS,4,num_6,32,num_2,1.21700542665,,,2017_Aug_21_1217,59.9935538077,FEMA4ImagesEEG,001,201141,
AFNE01.JPG,AFNE01.JPG,AFNE01.JPG,AFNE01.JPG,AFNE01.JPG,AFNE01.JPG,,,,,,,,,0,2,2,2,,,,,,,,,,,,,,,AFSA02.jpg,AFNE08.jpg,AFSA09.jpg,AFNE02.jpg,AFSA09.jpg,FS,4,num_2,32,num_8,0.93347185012,,,2017_Aug_21_1217,59.9935538077,FEMA4ImagesEEG,001,201141,
AFNE01.JPG,AFNE01.JPG,AFNE01.JPG,AFNE01.JPG,AFNE01.JPG,AFNE01.JPG,,,,,,,,,0,3,3,9,,,,,,,,,,,,,,,AFSA04.jpg,AFNE05.jpg,AFSA07.jpg,AFNE13.jpg,AFNE05.jpg,FN,3,num_6,16,num_6,0.833447890938,,,2017_Aug_21_1217,59.9935538077,FEMA4ImagesEEG,001,201141,
AFNE01.JPG,AFNE01.JPG,AFNE01.JPG,AFNE01.JPG,AFNE01.JPG,AFNE01.JPG,,,,,,,,,0,4,4,7,,,,,,,,,,,,,,,AFSA03.jpg,AFSA02.jpg,AFNE04.jpg,AFNE17.jpg,AFNE04.jpg,FN,3,num_2,32,num_4,0.883465643856,,,2017_Aug_21_1217,59.9935538077,FEMA4ImagesEEG,001,201141,
AFNE01.JPG,AFNE01.JPG,AFNE01.JPG,AFNE01.JPG,AFNE01.JPG,AFNE01.JPG,,,,,,,,,0,5,5,3,,,,,,,,,,,,,,,AFSA15.jpg,AFNE04.jpg,AFNE10.jpg,AFSA14.jpg,AFSA15.jpg,FS,4,num_8,32,num_4,0.633529551211,,,2017_Aug_21_1217,59.9935538077,FEMA4ImagesEEG,001,201141,
AFNE01.JPG,AFNE01.JPG,AFNE01.JPG,AFNE01.JPG,AFNE01.JPG,AFNE01.JPG,,,,,,,,,0,6,6,5,,,,,,,,,,,,,,,AFNE09.jpg,AFSA03.jpg,AFSA04.jpg,AFNE15.jpg,AFSA03.jpg,FS,4,num_6,32,num_8,0.933453247184,,,2017_Aug_21_1217,59.9935538077,FEMA4ImagesEEG,001,201141,
AFNE01.JPG,AFNE01.JPG,AFNE01.JPG,AFNE01.JPG,AFNE01.JPG,AFNE01.JPG,,,,,,,,,0,7,7,0,,,,,,,,,,,,,,,AFSA08.jpg,AFSA06.jpg,AFNE07.jpg,AFNE04.jpg,AFSA08.jpg,FS,4,num_8,32,num_2,1.61665896361,,,2017_Aug_21_1217,59.9935538077,FEMA4ImagesEEG,001,201141,
AFNE01.JPG,AFNE01.JPG,AFNE01.JPG,AFNE01.JPG,AFNE01.JPG,AFNE01.JPG,,,,,,,,,0,8,8,1,,,,,,,,,,,,,,,AFNE06.jpg,AFSA16.jpg,AFSA11.jpg,AFNE08.jpg,AFNE06.jpg,FN,3,num_8,16,num_8,1.76670452463,,,2017_Aug_21_1217,59.9935538077,FEMA4ImagesEEG,001,201141,
AFNE01.JPG,AFNE01.JPG,AFNE01.JPG,AFNE01.JPG,AFNE01.JPG,AFNE01.JPG,,,,,,,,,0,9,9,8,,,,,,,,,,,,,,,AFSA07.jpg,AFSA12.jpg,AFNE09.jpg,AFNE14.jpg,AFNE14.jpg,FN,3,num_4,16,num_4,1.13342354679,,,2017_Aug_21_1217,59.9935538077,FEMA4ImagesEEG,001,201141,
AFNE01.JPG,AFNE01.JPG,AFNE01.JPG,AFNE01.JPG,AFNE01.JPG,AFNE01.JPG,,,,,,,,,1,0,10,6,,,,,,,,,,,,,,,AFSA20.jpg,AFNE17.jpg,AFNE05.jpg,AFSA16.jpg,AFSA16.jpg,FS,4,num_4,32,num_2,2.05001358327,,,2017_Aug_21_1217,59.9935538077,FEMA4ImagesEEG,001,201141,
AFNE01.JPG,AFNE01.JPG,AFNE01.JPG,AFNE01.JPG,AFNE01.JPG,AFNE01.JPG,,,,,,,,,1,1,11,1,,,,,,,,,,,,,,,AFNE13.jpg,AFSA11.jpg,AFNE02.jpg,AFSA13.jpg,AFSA13.jpg,FS,4,num_4,16,num_4,0.566769827274,,,2017_Aug_21_1217,59.9935538077,FEMA4ImagesEEG,001,201141,
AFNE01.JPG,AFNE01.JPG,AFNE01.JPG,AFNE01.JPG,AFNE01.JPG,AFNE01.JPG,,,,,,,,,1,2,12,7,,,,,,,,,,,,,,,AFNE06.jpg,AFSA02.jpg,AFSA14.jpg,AFNE11.jpg,AFSA14.jpg,FS,4,num_2,32,num_8,1.11665174703,,,2017_Aug_21_1217,59.9935538077,FEMA4ImagesEEG,001,201141,
AFNE01.JPG,AFNE01.JPG,AFNE01.JPG,AFNE01.JPG,AFNE01.JPG,AFNE01.JPG,,,,,,,,,1,3,13,9,,,,,,,,,,,,,,,AFSA17.jpg,AFNE03.jpg,AFNE09.jpg,AFSA06.jpg,AFNE03.jpg,FN,3,num_6,32,num_2,2.10000856384,,,2017_Aug_21_1217,59.9935538077,FEMA4ImagesEEG,001,201141,
AFNE01.JPG,AFNE01.JPG,AFNE01.JPG,AFNE01.JPG,AFNE01.JPG,AFNE01.JPG,,,,,,,,,1,4,14,2,,,,,,,,,,,,,,,AFNE02.jpg,AFNE17.jpg,AFSA13.jpg,AFSA08.jpg,AFNE02.jpg,FN,3,num_8,32,num_2,2.59997215983,,,2017_Aug_21_1217,59.9935538077,FEMA4ImagesEEG,001,201141,
AFNE01.JPG,AFNE01.JPG,AFNE01.JPG,AFNE01.JPG,AFNE01.JPG,AFNE01.JPG,,,,,,,,,1,5,15,4,,,,,,,,,,,,,,,AFNE20.jpg,AFNE02.jpg,AFSA18.jpg,AFSA17.jpg,AFSA17.jpg,FS,4,num_4,16,num_4,0.983465547557,,,2017_Aug_21_1217,59.9935538077,FEMA4ImagesEEG,001,201141,
AFNE01.JPG,AFNE01.JPG,AFNE01.JPG,AFNE01.JPG,AFNE01.JPG,AFNE01.JPG,,,,,,,,,1,6,16,5,,,,,,,,,,,,,,,AFNE06.jpg,AFSA02.jpg,AFSA19.jpg,AFNE19.jpg,AFSA02.jpg,FS,4,num_6,32,num_2,1.40008621477,,,2017_Aug_21_1217,59.9935538077,FEMA4ImagesEEG,001,201141,
AFNE01.JPG,AFNE01.JPG,AFNE01.JPG,AFNE01.JPG,AFNE01.JPG,AFNE01.JPG,,,,,,,,,1,7,17,3,,,,,,,,,,,,,,,AFNE02.jpg,AFSA01.jpg,AFSA19.jpg,AFNE07.jpg,AFNE02.jpg,FN,3,num_8,32,num_6,0.950104128104,,,2017_Aug_21_1217,59.9935538077,FEMA4ImagesEEG,001,201141,
AFNE01.JPG,AFNE01.JPG,AFNE01.JPG,AFNE01.JPG,AFNE01.JPG,AFNE01.JPG,,,,,,,,,1,8,18,8,,,,,,,,,,,,,,,AFSA12.jpg,AFNE15.jpg,AFSA15.jpg,AFNE05.jpg,AFSA15.jpg,FS,4,num_2,32,num_6,1.40009519551,,,2017_Aug_21_1217,59.9935538077,FEMA4ImagesEEG,001,201141,
AFNE01.JPG,AFNE01.JPG,AFNE01.JPG,AFNE01.JPG,AFNE01.JPG,AFNE01.JPG,,,,,,,,,1,9,19,0,,,,,,,,,,,,,,,AFNE15.jpg,AFSA03.jpg,AFSA10.jpg,AFNE08.jpg,AFNE15.jpg,FN,3,num_8,32,num_2,1.00022900815,,,2017_Aug_21_1217,59.9935538077,FEMA4ImagesEEG,001,201141,
AFNE01.JPG,AFNE01.JPG,AFNE01.JPG,AFNE01.JPG,AFNE01.JPG,AFNE01.JPG,,,,,,,,,2,0,20,9,,,,,,,,,,,,,,,AFSA07.jpg,AFNE12.jpg,AFSA17.jpg,AFNE14.jpg,AFNE14.jpg,FN,3,num_4,16,num_4,0.833438589354,,,2017_Aug_21_1217,59.9935538077,FEMA4ImagesEEG,001,201141,
AFNE01.JPG,AFNE01.JPG,AFNE01.JPG,AFNE01.JPG,AFNE01.JPG,AFNE01.JPG,,,,,,,,,2,1,21,3,,,,,,,,,,,,,,,AFSA17.jpg,AFSA01.jpg,AFNE20.jpg,AFNE15.jpg,AFSA17.jpg,FS,4,num_8,16,num_8,0.900089903269,,,2017_Aug_21_1217,59.9935538077,FEMA4ImagesEEG,001,201141,
AFNE01.JPG,AFNE01.JPG,AFNE01.JPG,AFNE01.JPG,AFNE01.JPG,AFNE01.JPG,,,,,,,,,2,2,22,8,,,,,,,,,,,,,,,AFNE08.jpg,AFNE07.jpg,AFSA04.jpg,AFSA13.jpg,AFNE07.jpg,FN,3,num_6,32,num_8,1.03373123228,,,2017_Aug_21_1217,59.9935538077,FEMA4ImagesEEG,001,201141,
AFNE01.JPG,AFNE01.JPG,AFNE01.JPG,AFNE01.JPG,AFNE01.JPG,AFNE01.JPG,,,,,,,,,2,3,23,1,,,,,,,,,,,,,,,AFSA08.jpg,AFNE09.jpg,AFSA03.jpg,AFNE15.jpg,AFSA08.jpg,FS,4,num_8,32,num_2,1.86667203379,,,2017_Aug_21_1217,59.9935538077,FEMA4ImagesEEG,001,201141,
AFNE01.JPG,AFNE01.JPG,AFNE01.JPG,AFNE01.JPG,AFNE01.JPG,AFNE01.JPG,,,,,,,,,2,4,24,4,,,,,,,,,,,,,,,AFNE12.jpg,AFSA11.jpg,AFNE14.jpg,AFSA20.jpg,AFSA11.jpg,FS,4,num_6,32,num_4,0.650142264087,,,2017_Aug_21_1217,59.9935538077,FEMA4ImagesEEG,001,201141,
AFNE01.JPG,AFNE01.JPG,AFNE01.JPG,AFNE01.JPG,AFNE01.JPG,AFNE01.JPG,,,,,,,,,2,5,25,7,,,,,,,,,,,,,,,AFSA07.jpg,AFNE09.jpg,AFSA18.jpg,AFNE05.jpg,AFSA18.jpg,FS,4,num_2,32,num_4,1.50005019584,,,2017_Aug_21_1217,59.9935538077,FEMA4ImagesEEG,001,201141,
AFNE01.JPG,AFNE01.JPG,AFNE01.JPG,AFNE01.JPG,AFNE01.JPG,AFNE01.JPG,,,,,,,,,2,6,26,2,,,,,,,,,,,,,,,AFSA16.jpg,AFSA12.jpg,AFNE15.jpg,AFNE04.jpg,AFSA16.jpg,FS,4,num_8,32,num_6,1.15006897505,,,2017_Aug_21_1217,59.9935538077,FEMA4ImagesEEG,001,201141,
AFNE01.JPG,AFNE01.JPG,AFNE01.JPG,AFNE01.JPG,AFNE01.JPG,AFNE01.JPG,,,,,,,,,2,7,27,6,,,,,,,,,,,,,,,AFNE13.jpg,AFSA05.jpg,AFSA13.jpg,AFNE19.jpg,AFNE13.jpg,FN,3,num_8,32,num_4,0.733515983913,,,2017_Aug_21_1217,59.9935538077,FEMA4ImagesEEG,001,201141,
AFNE01.JPG,AFNE01.JPG,AFNE01.JPG,AFNE01.JPG,AFNE01.JPG,AFNE01.JPG,,,,,,,,,2,8,28,0,,,,,,,,,,,,,,,AFNE06.jpg,AFSA13.jpg,AFNE12.jpg,AFSA19.jpg,AFSA13.jpg,FS,4,num_6,16,num_6,0.866734898649,,,2017_Aug_21_1217,59.9935538077,FEMA4ImagesEEG,001,201141,
AFNE01.JPG,AFNE01.JPG,AFNE01.JPG,AFNE01.JPG,AFNE01.JPG,AFNE01.JPG,,,,,,,,,2,9,29,5,,,,,,,,,,,,,,,AFSA13.jpg,AFNE13.jpg,AFNE08.jpg,AFSA18.jpg,AFSA18.jpg,FS,4,num_4,32,num_2,1.66672675195,,,2017_Aug_21_1217,59.9935538077,FEMA4ImagesEEG,001,201141,
AFNE01.JPG,AFNE01.JPG,AFNE01.JPG,AFNE01.JPG,AFNE01.JPG,AFNE01.JPG,,,,,,,,,3,0,30,3,,,,,,,,,,,,,,,AFSA18.jpg,AFSA11.jpg,AFNE20.jpg,AFNE09.jpg,AFNE09.jpg,FN,3,num_4,32,num_2,1.93330442405,,,2017_Aug_21_1217,59.9935538077,FEMA4ImagesEEG,001,201141,
AFNE01.JPG,AFNE01.JPG,AFNE01.JPG,AFNE01.JPG,AFNE01.JPG,AFNE01.JPG,,,,,,,,,3,1,31,7,,,,,,,,,,,,,,,AFNE12.jpg,AFNE11.jpg,AFSA02.jpg,AFSA18.jpg,AFSA18.jpg,FS,4,num_4,16,num_4,0.583471705788,,,2017_Aug_21_1217,59.9935538077,FEMA4ImagesEEG,001,201141,
AFNE01.JPG,AFNE01.JPG,AFNE01.JPG,AFNE01.JPG,AFNE01.JPG,AFNE01.JPG,,,,,,,,,3,2,32,4,,,,,,,,,,,,,,,AFSA14.jpg,AFNE03.jpg,AFSA17.jpg,AFNE15.jpg,AFSA17.jpg,FS,4,num_2,32,num_8,0.66677807027,,,2017_Aug_21_1217,59.9935538077,FEMA4ImagesEEG,001,201141,
AFNE01.JPG,AFNE01.JPG,AFNE01.JPG,AFNE01.JPG,AFNE01.JPG,AFNE01.JPG,,,,,,,,,3,3,33,0,,,,,,,,,,,,,,,AFNE14.jpg,AFSA07.jpg,AFSA01.jpg,AFNE11.jpg,AFNE11.jpg,FN,3,num_4,32,num_2,1.30008887697,,,2017_Aug_21_1217,59.9935538077,FEMA4ImagesEEG,001,201141,
AFNE01.JPG,AFNE01.JPG,AFNE01.JPG,AFNE01.JPG,AFNE01.JPG,AFNE01.JPG,,,,,,,,,3,4,34,9,,,,,,,,,,,,,,,AFSA09.jpg,AFNE06.jpg,AFNE14.jpg,AFSA14.jpg,AFSA14.jpg,FS,4,num_4,16,num_4,0.633469252149,,,2017_Aug_21_1217,59.9935538077,FEMA4ImagesEEG,001,201141,
AFNE01.JPG,AFNE01.JPG,AFNE01.JPG,AFNE01.JPG,AFNE01.JPG,AFNE01.JPG,,,,,,,,,3,5,35,5,,,,,,,,,,,,,,,AFNE06.jpg,AFSA18.jpg,AFNE15.jpg,AFSA09.jpg,AFNE06.jpg,FN,3,num_8,32,num_2,1.43343929504,,,2017_Aug_21_1217,59.9935538077,FEMA4ImagesEEG,001,201141,
AFNE01.JPG,AFNE01.JPG,AFNE01.JPG,AFNE01.JPG,AFNE01.JPG,AFNE01.JPG,,,,,,,,,3,6,36,1,,,,,,,,,,,,,,,AFSA16.jpg,AFNE08.jpg,AFNE16.jpg,AFSA15.jpg,AFSA16.jpg,FS,4,num_8,16,num_8,0.91675650049,,,2017_Aug_21_1217,59.9935538077,FEMA4ImagesEEG,001,201141,
AFNE01.JPG,AFNE01.JPG,AFNE01.JPG,AFNE01.JPG,AFNE01.JPG,AFNE01.JPG,,,,,,,,,3,7,37,2,,,,,,,,,,,,,,,AFNE14.jpg,AFSA16.jpg,AFSA15.jpg,AFNE03.jpg,AFNE03.jpg,FN,3,num_4,16,num_4,1.53338467306,,,2017_Aug_21_1217,59.9935538077,FEMA4ImagesEEG,001,201141,
AFNE01.JPG,AFNE01.JPG,AFNE01.JPG,AFNE01.JPG,AFNE01.JPG,AFNE01.JPG,,,,,,,,,3,8,38,8,,,,,,,,,,,,,,,AFNE03.jpg,AFSA20.jpg,AFSA14.jpg,AFNE13.jpg,AFNE03.jpg,FN,3,num_8,32,num_2,1.18346343073,,,2017_Aug_21_1217,59.9935538077,FEMA4ImagesEEG,001,201141,
AFNE01.JPG,AFNE01.JPG,AFNE01.JPG,AFNE01.JPG,AFNE01.JPG,AFNE01.JPG,,,,,,,,,3,9,39,6,,,,,,,,,,,,,,,AFNE19.jpg,AFSA02.jpg,AFSA16.jpg,AFNE03.jpg,AFNE19.jpg,FN,3,num_8,32,num_4,0.883431645459,,,2017_Aug_21_1217,59.9935538077,FEMA4ImagesEEG,001,201141,
AFNE01.JPG,AFNE01.JPG,AFNE01.JPG,AFNE01.JPG,AFNE01.JPG,AFNE01.JPG,,,,,,,,,4,0,40,3,,,,,,,,,,,,,,,AFNE15.jpg,AFSA11.jpg,AFNE08.jpg,AFSA06.jpg,AFSA11.jpg,FS,4,num_6,16,num_6,1.05013386067,,,2017_Aug_21_1217,59.9935538077,FEMA4ImagesEEG,001,201141,
AFNE01.JPG,AFNE01.JPG,AFNE01.JPG,AFNE01.JPG,AFNE01.JPG,AFNE01.JPG,,,,,,,,,4,1,41,1,,,,,,,,,,,,,,,AFSA07.jpg,AFNE12.jpg,AFNE01.jpg,AFSA20.jpg,AFSA07.jpg,FS,4,num_8,32,num_2,1.81668378878,,,2017_Aug_21_1217,59.9935538077,FEMA4ImagesEEG,001,201141,
AFNE01.JPG,AFNE01.JPG,AFNE01.JPG,AFNE01.JPG,AFNE01.JPG,AFNE01.JPG,,,,,,,,,4,2,42,5,,,,,,,,,,,,,,,AFSA12.jpg,AFSA19.jpg,AFNE06.jpg,AFNE09.jpg,AFNE09.jpg,FN,3,num_4,32,num_2,1.5000739306,,,2017_Aug_21_1217,59.9935538077,FEMA4ImagesEEG,001,201141,
AFNE01.JPG,AFNE01.JPG,AFNE01.JPG,AFNE01.JPG,AFNE01.JPG,AFNE01.JPG,,,,,,,,,4,3,43,0,,,,,,,,,,,,,,,AFSA10.jpg,AFSA13.jpg,AFNE04.jpg,AFNE07.jpg,AFNE04.jpg,FN,3,num_2,32,num_4,0.950093864463,,,2017_Aug_21_1217,59.9935538077,FEMA4ImagesEEG,001,201141,
AFNE01.JPG,AFNE01.JPG,AFNE01.JPG,AFNE01.JPG,AFNE01.JPG,AFNE01.JPG,,,,,,,,,4,4,44,7,,,,,,,,,,,,,,,AFSA12.jpg,AFNE17.jpg,AFSA08.jpg,AFNE19.jpg,AFNE19.jpg,FN,3,num_4,32,num_2,3.06658973184,,,2017_Aug_21_1217,59.9935538077,FEMA4ImagesEEG,001,201141,
AFNE01.JPG,AFNE01.JPG,AFNE01.JPG,AFNE01.JPG,AFNE01.JPG,AFNE01.JPG,,,,,,,,,4,5,45,6,,,,,,,,,,,,,,,AFSA13.jpg,AFNE07.jpg,AFNE03.jpg,AFSA17.jpg,AFNE07.jpg,FN,3,num_6,32,num_4,1.03342460515,,,2017_Aug_21_1217,59.9935538077,FEMA4ImagesEEG,001,201141,
AFNE01.JPG,AFNE01.JPG,AFNE01.JPG,AFNE01.JPG,AFNE01.JPG,AFNE01.JPG,,,,,,,,,4,6,46,8,,,,,,,,,,,,,,,AFNE01.jpg,AFSA11.jpg,AFSA14.jpg,AFNE13.jpg,AFSA11.jpg,FS,4,num_6,16,num_6,0.733453760389,,,2017_Aug_21_1217,59.9935538077,FEMA4ImagesEEG,001,201141,
AFNE01.JPG,AFNE01.JPG,AFNE01.JPG,AFNE01.JPG,AFNE01.JPG,AFNE01.JPG,,,,,,,,,4,7,47,4,,,,,,,,,,,,,,,AFSA03.jpg,AFNE15.jpg,AFNE09.jpg,AFSA05.jpg,AFSA03.jpg,FS,4,num_8,32,num_2,1.33339705365,,,2017_Aug_21_1217,59.9935538077,FEMA4ImagesEEG,001,201141,
AFNE01.JPG,AFNE01.JPG,AFNE01.JPG,AFNE01.JPG,AFNE01.JPG,AFNE01.JPG,,,,,,,,,4,8,48,9,,,,,,,,,,,,,,,AFNE09.jpg,AFSA14.jpg,AFNE14.jpg,AFSA03.jpg,AFSA03.jpg,FS,4,num_4,16,num_4,0.550144284731,,,2017_Aug_21_1217,59.9935538077,FEMA4ImagesEEG,001,201141,
AFNE01.JPG,AFNE01.JPG,AFNE01.JPG,AFNE01.JPG,AFNE01.JPG,AFNE01.JPG,,,,,,,,,4,9,49,2,,,,,,,,,,,,,,,AFNE09.jpg,AFNE11.jpg,AFSA16.jpg,AFSA13.jpg,AFNE09.jpg,FN,3,num_8,32,num_2,1.30045965197,,,2017_Aug_21_1217,59.9935538077,FEMA4ImagesEEG,001,201141,
AFNE01.JPG,AFNE01.JPG,AFNE01.JPG,AFNE01.JPG,AFNE01.JPG,AFNE01.JPG,,,,,,,,,5,0,50,5,,,,,,,,,,,,,,,AFSA19.jpg,AFNE12.jpg,AFNE02.jpg,AFSA16.jpg,AFSA16.jpg,FS,4,num_4,16,num_4,1.16638789035,,,2017_Aug_21_1217,59.9935538077,FEMA4ImagesEEG,001,201141,
AFNE01.JPG,AFNE01.JPG,AFNE01.JPG,AFNE01.JPG,AFNE01.JPG,AFNE01.JPG,,,,,,,,,5,1,51,8,,,,,,,,,,,,,,,AFNE02.jpg,AFNE08.jpg,AFSA11.jpg,AFSA06.jpg,AFNE08.jpg,FN,3,num_6,32,num_8,0.783428855008,,,2017_Aug_21_1217,59.9935538077,FEMA4ImagesEEG,001,201141,
AFNE01.JPG,AFNE01.JPG,AFNE01.JPG,AFNE01.JPG,AFNE01.JPG,AFNE01.JPG,,,,,,,,,5,2,52,2,,,,,,,,,,,,,,,AFNE01.jpg,AFNE13.jpg,AFSA16.jpg,AFSA01.jpg,AFNE13.jpg,FN,3,num_6,32,num_2,2.16667527321,,,2017_Aug_21_1217,59.9935538077,FEMA4ImagesEEG,001,201141,
AFNE01.JPG,AFNE01.JPG,AFNE01.JPG,AFNE01.JPG,AFNE01.JPG,AFNE01.JPG,,,,,,,,,5,3,53,1,,,,,,,,,,,,,,,AFNE06.jpg,AFSA09.jpg,AFNE02.jpg,AFSA10.jpg,AFNE02.jpg,FN,3,num_2,32,num_8,1.98369968752,,,2017_Aug_21_1217,59.9935538077,FEMA4ImagesEEG,001,201141,
AFNE01.JPG,AFNE01.JPG,AFNE01.JPG,AFNE01.JPG,AFNE01.JPG,AFNE01.JPG,,,,,,,,,5,4,54,0,,,,,,,,,,,,,,,AFSA05.jpg,AFSA04.jpg,AFNE19.jpg,AFNE07.jpg,AFNE19.jpg,FN,3,num_2,16,num_2,1.23346033564,,,2017_Aug_21_1217,59.9935538077,FEMA4ImagesEEG,001,201141,
AFNE01.JPG,AFNE01.JPG,AFNE01.JPG,AFNE01.JPG,AFNE01.JPG,AFNE01.JPG,,,,,,,,,5,5,55,9,,,,,,,,,,,,,,,AFNE18.jpg,AFSA04.jpg,AFSA12.jpg,AFNE17.jpg,AFNE17.jpg,FN,3,num_4,32,num_8,2.38334360241,,,2017_Aug_21_1217,59.9935538077,FEMA4ImagesEEG,001,201141,
AFNE01.JPG,AFNE01.JPG,AFNE01.JPG,AFNE01.JPG,AFNE01.JPG,AFNE01.JPG,,,,,,,,,5,6,56,6,,,,,,,,,,,,,,,AFNE02.jpg,AFNE03.jpg,AFSA13.jpg,AFSA07.jpg,AFNE03.jpg,FN,3,num_6,32,num_2,3.16665346292,,,2017_Aug_21_1217,59.9935538077,FEMA4ImagesEEG,001,201141,
AFNE01.JPG,AFNE01.JPG,AFNE01.JPG,AFNE01.JPG,AFNE01.JPG,AFNE01.JPG,,,,,,,,,5,7,57,3,,,,,,,,,,,,,,,AFNE20.jpg,AFNE10.jpg,AFSA06.jpg,AFSA19.jpg,AFSA19.jpg,FS,4,num_4,32,num_8,1.98132845887,,,2017_Aug_21_1217,59.9935538077,FEMA4ImagesEEG,001,201141,
AFNE01.JPG,AFNE01.JPG,AFNE01.JPG,AFNE01.JPG,AFNE01.JPG,AFNE01.JPG,,,,,,,,,5,8,58,4,,,,,,,,,,,,,,,AFSA20.jpg,AFNE02.jpg,AFNE18.jpg,AFSA11.jpg,AFNE18.jpg,FN,3,num_2,32,num_6,0.883446720196,,,2017_Aug_21_1217,59.9935538077,FEMA4ImagesEEG,001,201141,
AFNE01.JPG,AFNE01.JPG,AFNE01.JPG,AFNE01.JPG,AFNE01.JPG,AFNE01.JPG,,,,,,,,,5,9,59,7,,,,,,,,,,,,,,,AFNE18.jpg,AFSA15.jpg,AFNE08.jpg,AFSA12.jpg,AFSA15.jpg,FS,4,num_6,32,num_8,0.866731691291,,,2017_Aug_21_1217,59.9935538077,FEMA4ImagesEEG,001,201141,
,,,,,,,,,,,,,,,,,,,,,,,,,,,,,,,,,,,,,,,,,,,space,9.74909655645,2017_Aug_21_1217,59.9935538077,FEMA4ImagesEEG,001,201141,
AFNE01.JPG,AFNE01.JPG,AFNE01.JPG,AFNE01.JPG,AFNE01.JPG,AFNE01.JPG,,,,,,,,,,,,,0,0,0,5,,,,,,,,,,,AMNE08.jpg,AMSA13.jpg,AMNE11.jpg,AMSA08.jpg,AMSA08.jpg,MS,2,num_4,32,num_2,1.05008093873,,,2017_Aug_21_1217,59.9935538077,FEMA4ImagesEEG,001,201141,
AFNE01.JPG,AFNE01.JPG,AFNE01.JPG,AFNE01.JPG,AFNE01.JPG,AFNE01.JPG,,,,,,,,,,,,,0,1,1,9,,,,,,,,,,,AMNE16.jpg,AMSA20.jpg,AMSA12.jpg,AMNE05.jpg,AMSA20.jpg,MS,2,num_6,16,num_6,0.56683557888,,,2017_Aug_21_1217,59.9935538077,FEMA4ImagesEEG,001,201141,
AFNE01.JPG,AFNE01.JPG,AFNE01.JPG,AFNE01.JPG,AFNE01.JPG,AFNE01.JPG,,,,,,,,,,,,,0,2,2,0,,,,,,,,,,,AMNE12.jpg,AMSA15.jpg,AMNE02.jpg,AMSA20.jpg,AMNE12.jpg,MN,1,num_8,16,num_8,0.850101016928,,,2017_Aug_21_1217,59.9935538077,FEMA4ImagesEEG,001,201141,
AFNE01.JPG,AFNE01.JPG,AFNE01.JPG,AFNE01.JPG,AFNE01.JPG,AFNE01.JPG,,,,,,,,,,,,,0,3,3,2,,,,,,,,,,,AMSA11.jpg,AMNE17.jpg,AMSA12.jpg,AMNE13.jpg,AMNE17.jpg,MN,1,num_6,32,num_2,1.21674530674,,,2017_Aug_21_1217,59.9935538077,FEMA4ImagesEEG,001,201141,
AFNE01.JPG,AFNE01.JPG,AFNE01.JPG,AFNE01.JPG,AFNE01.JPG,AFNE01.JPG,,,,,,,,,,,,,0,4,4,8,,,,,,,,,,,AMSA01.jpg,AMNE18.jpg,AMSA11.jpg,AMNE15.jpg,AMSA11.jpg,MS,2,num_2,32,num_8,0.733491607709,,,2017_Aug_21_1217,59.9935538077,FEMA4ImagesEEG,001,201141,
AFNE01.JPG,AFNE01.JPG,AFNE01.JPG,AFNE01.JPG,AFNE01.JPG,AFNE01.JPG,,,,,,,,,,,,,0,5,5,6,,,,,,,,,,,AMNE12.jpg,AMSA11.jpg,AMSA17.jpg,AMNE03.jpg,AMNE03.jpg,MN,1,num_4,32,num_8,0.750197976595,,,2017_Aug_21_1217,59.9935538077,FEMA4ImagesEEG,001,201141,
AFNE01.JPG,AFNE01.JPG,AFNE01.JPG,AFNE01.JPG,AFNE01.JPG,AFNE01.JPG,,,,,,,,,,,,,0,6,6,4,,,,,,,,,,,AMNE09.jpg,AMSA12.jpg,AMNE06.jpg,AMSA19.jpg,AMNE06.jpg,MN,1,num_2,16,num_2,1.45009466633,,,2017_Aug_21_1217,59.9935538077,FEMA4ImagesEEG,001,201141,
AFNE01.JPG,AFNE01.JPG,AFNE01.JPG,AFNE01.JPG,AFNE01.JPG,AFNE01.JPG,,,,,,,,,,,,,0,7,7,7,,,,,,,,,,,AMNE13.jpg,AMSA05.jpg,AMNE06.jpg,AMSA16.jpg,AMNE13.jpg,MN,1,num_8,32,num_2,2.28332445421,,,2017_Aug_21_1217,59.9935538077,FEMA4ImagesEEG,001,201141,
AFNE01.JPG,AFNE01.JPG,AFNE01.JPG,AFNE01.JPG,AFNE01.JPG,AFNE01.JPG,,,,,,,,,,,,,0,8,8,1,,,,,,,,,,,AMNE16.jpg,AMSA06.jpg,AMNE09.jpg,AMSA12.jpg,AMSA06.jpg,MS,2,num_6,16,num_6,0.633479195065,,,2017_Aug_21_1217,59.9935538077,FEMA4ImagesEEG,001,201141,
AFNE01.JPG,AFNE01.JPG,AFNE01.JPG,AFNE01.JPG,AFNE01.JPG,AFNE01.JPG,,,,,,,,,,,,,0,9,9,3,,,,,,,,,,,AMSA16.jpg,AMNE05.jpg,AMNE14.jpg,AMSA02.jpg,AMSA02.jpg,MS,2,num_4,16,num_4,0.833153451793,,,2017_Aug_21_1217,59.9935538077,FEMA4ImagesEEG,001,201141,
AFNE01.JPG,AFNE01.JPG,AFNE01.JPG,AFNE01.JPG,AFNE01.JPG,AFNE01.JPG,,,,,,,,,,,,,1,0,10,9,,,,,,,,,,,AMNE11.jpg,AMSA01.jpg,AMNE02.jpg,AMSA09.jpg,AMSA09.jpg,MS,2,num_4,16,num_4,0.583511477453,,,2017_Aug_21_1217,59.9935538077,FEMA4ImagesEEG,001,201141,
AFNE01.JPG,AFNE01.JPG,AFNE01.JPG,AFNE01.JPG,AFNE01.JPG,AFNE01.JPG,,,,,,,,,,,,,1,1,11,7,,,,,,,,,,,AMNE06.jpg,AMSA01.jpg,AMSA09.jpg,AMNE09.jpg,AMSA01.jpg,MS,2,num_6,16,num_6,0.750119716045,,,2017_Aug_21_1217,59.9935538077,FEMA4ImagesEEG,001,201141,
AFNE01.JPG,AFNE01.JPG,AFNE01.JPG,AFNE01.JPG,AFNE01.JPG,AFNE01.JPG,,,,,,,,,,,,,1,2,12,4,,,,,,,,,,,AMNE11.jpg,AMSA06.jpg,AMNE08.jpg,AMSA02.jpg,AMSA06.jpg,MS,2,num_6,16,num_6,0.833445645636,,,2017_Aug_21_1217,59.9935538077,FEMA4ImagesEEG,001,201141,
AFNE01.JPG,AFNE01.JPG,AFNE01.JPG,AFNE01.JPG,AFNE01.JPG,AFNE01.JPG,,,,,,,,,,,,,1,3,13,0,,,,,,,,,,,AMSA19.jpg,AMNE13.jpg,AMSA06.jpg,AMNE12.jpg,AMNE13.jpg,MN,1,num_6,32,num_8,0.900459716213,,,2017_Aug_21_1217,59.9935538077,FEMA4ImagesEEG,001,201141,
AFNE01.JPG,AFNE01.JPG,AFNE01.JPG,AFNE01.JPG,AFNE01.JPG,AFNE01.JPG,,,,,,,,,,,,,1,4,14,5,,,,,,,,,,,AMNE08.jpg,AMSA18.jpg,AMNE15.jpg,AMSA17.jpg,AMNE08.jpg,MN,1,num_8,32,num_2,1.25057821348,,,2017_Aug_21_1217,59.9935538077,FEMA4ImagesEEG,001,201141,
AFNE01.JPG,AFNE01.JPG,AFNE01.JPG,AFNE01.JPG,AFNE01.JPG,AFNE01.JPG,,,,,,,,,,,,,1,5,15,6,,,,,,,,,,,AMSA09.jpg,AMSA13.jpg,AMNE19.jpg,AMNE07.jpg,AMSA13.jpg,MS,2,num_6,16,num_6,1.80006947217,,,2017_Aug_21_1217,59.9935538077,FEMA4ImagesEEG,001,201141,
AFNE01.JPG,AFNE01.JPG,AFNE01.JPG,AFNE01.JPG,AFNE01.JPG,AFNE01.JPG,,,,,,,,,,,,,1,6,16,3,,,,,,,,,,,AMSA18.jpg,AMNE08.jpg,AMSA11.jpg,AMNE10.jpg,AMSA11.jpg,MS,2,num_2,32,num_8,0.633527947473,,,2017_Aug_21_1217,59.9935538077,FEMA4ImagesEEG,001,201141,
AFNE01.JPG,AFNE01.JPG,AFNE01.JPG,AFNE01.JPG,AFNE01.JPG,AFNE01.JPG,,,,,,,,,,,,,1,7,17,8,,,,,,,,,,,AMSA11.jpg,AMSA12.jpg,AMNE09.jpg,AMNE13.jpg,AMSA11.jpg,MS,2,num_8,16,num_8,0.616790466825,,,2017_Aug_21_1217,59.9935538077,FEMA4ImagesEEG,001,201141,
AFNE01.JPG,AFNE01.JPG,AFNE01.JPG,AFNE01.JPG,AFNE01.JPG,AFNE01.JPG,,,,,,,,,,,,,1,8,18,1,,,,,,,,,,,AMSA01.jpg,AMNE16.jpg,AMNE10.jpg,AMSA16.jpg,AMNE16.jpg,MN,1,num_6,32,num_2,1.23339554621,,,2017_Aug_21_1217,59.9935538077,FEMA4ImagesEEG,001,201141,
AFNE01.JPG,AFNE01.JPG,AFNE01.JPG,AFNE01.JPG,AFNE01.JPG,AFNE01.JPG,,,,,,,,,,,,,1,9,19,2,,,,,,,,,,,AMNE20.jpg,AMSA02.jpg,AMNE10.jpg,AMSA06.jpg,AMSA02.jpg,MS,2,num_6,16,num_6,0.533447217313,,,2017_Aug_21_1217,59.9935538077,FEMA4ImagesEEG,001,201141,
AFNE01.JPG,AFNE01.JPG,AFNE01.JPG,AFNE01.JPG,AFNE01.JPG,AFNE01.JPG,,,,,,,,,,,,,2,0,20,2,,,,,,,,,,,AMSA11.jpg,AMNE04.jpg,AMNE10.jpg,AMSA06.jpg,AMNE04.jpg,MN,1,num_6,32,num_2,1.31673334318,,,2017_Aug_21_1217,59.9935538077,FEMA4ImagesEEG,001,201141,
AFNE01.JPG,AFNE01.JPG,AFNE01.JPG,AFNE01.JPG,AFNE01.JPG,AFNE01.JPG,,,,,,,,,,,,,2,1,21,4,,,,,,,,,,,AMSA18.jpg,AMNE20.jpg,AMSA19.jpg,AMNE16.jpg,AMSA19.jpg,MS,2,num_2,16,num_2,1.05013770959,,,2017_Aug_21_1217,59.9935538077,FEMA4ImagesEEG,001,201141,
AFNE01.JPG,AFNE01.JPG,AFNE01.JPG,AFNE01.JPG,AFNE01.JPG,AFNE01.JPG,,,,,,,,,,,,,2,2,22,5,,,,,,,,,,,AMSA09.jpg,AMSA05.jpg,AMNE07.jpg,AMNE08.jpg,AMSA09.jpg,MS,2,num_8,32,num_2,1.85004905716,,,2017_Aug_21_1217,59.9935538077,FEMA4ImagesEEG,001,201141,
AFNE01.JPG,AFNE01.JPG,AFNE01.JPG,AFNE01.JPG,AFNE01.JPG,AFNE01.JPG,,,,,,,,,,,,,2,3,23,3,,,,,,,,,,,AMSA20.jpg,AMNE12.jpg,AMSA16.jpg,AMNE06.jpg,AMSA16.jpg,MS,2,num_2,32,num_8,0.833427042817,,,2017_Aug_21_1217,59.9935538077,FEMA4ImagesEEG,001,201141,
AFNE01.JPG,AFNE01.JPG,AFNE01.JPG,AFNE01.JPG,AFNE01.JPG,AFNE01.JPG,,,,,,,,,,,,,2,4,24,7,,,,,,,,,,,AMSA11.jpg,AMSA05.jpg,AMNE09.jpg,AMNE03.jpg,AMNE03.jpg,MN,1,num_4,16,num_4,1.00010520266,,,2017_Aug_21_1217,59.9935538077,FEMA4ImagesEEG,001,201141,
AFNE01.JPG,AFNE01.JPG,AFNE01.JPG,AFNE01.JPG,AFNE01.JPG,AFNE01.JPG,,,,,,,,,,,,,2,5,25,9,,,,,,,,,,,AMSA18.jpg,AMNE15.jpg,AMNE02.jpg,AMSA02.jpg,AMNE15.jpg,MN,1,num_6,16,num_6,0.933449077536,,,2017_Aug_21_1217,59.9935538077,FEMA4ImagesEEG,001,201141,
AFNE01.JPG,AFNE01.JPG,AFNE01.JPG,AFNE01.JPG,AFNE01.JPG,AFNE01.JPG,,,,,,,,,,,,,2,6,26,6,,,,,,,,,,,AMNE19.jpg,AMNE04.jpg,AMSA15.jpg,AMSA16.jpg,AMNE04.jpg,MN,1,num_6,16,num_6,0.833450777573,,,2017_Aug_21_1217,59.9935538077,FEMA4ImagesEEG,001,201141,
AFNE01.JPG,AFNE01.JPG,AFNE01.JPG,AFNE01.JPG,AFNE01.JPG,AFNE01.JPG,,,,,,,,,,,,,2,7,27,1,,,,,,,,,,,AMNE19.jpg,AMNE10.jpg,AMSA16.jpg,AMSA06.jpg,AMSA06.jpg,MS,2,num_4,16,num_4,0.450114552164,,,2017_Aug_21_1217,59.9935538077,FEMA4ImagesEEG,001,201141,
AFNE01.JPG,AFNE01.JPG,AFNE01.JPG,AFNE01.JPG,AFNE01.JPG,AFNE01.JPG,,,,,,,,,,,,,2,8,28,8,,,,,,,,,,,AMNE04.jpg,AMSA15.jpg,AMSA16.jpg,AMNE03.jpg,AMNE03.jpg,MN,1,num_4,16,num_4,1.0500915231,,,2017_Aug_21_1217,59.9935538077,FEMA4ImagesEEG,001,201141,
AFNE01.JPG,AFNE01.JPG,AFNE01.JPG,AFNE01.JPG,AFNE01.JPG,AFNE01.JPG,,,,,,,,,,,,,2,9,29,0,,,,,,,,,,,AMNE05.jpg,AMNE14.jpg,AMSA12.jpg,AMSA08.jpg,AMSA12.jpg,MS,2,num_2,32,num_4,0.850109997671,,,2017_Aug_21_1217,59.9935538077,FEMA4ImagesEEG,001,201141,
AFNE01.JPG,AFNE01.JPG,AFNE01.JPG,AFNE01.JPG,AFNE01.JPG,AFNE01.JPG,,,,,,,,,,,,,3,0,30,3,,,,,,,,,,,AMNE19.jpg,AMSA15.jpg,AMSA14.jpg,AMNE08.jpg,AMNE08.jpg,MN,1,num_4,32,num_8,1.6833596715,,,2017_Aug_21_1217,59.9935538077,FEMA4ImagesEEG,001,201141,
AFNE01.JPG,AFNE01.JPG,AFNE01.JPG,AFNE01.JPG,AFNE01.JPG,AFNE01.JPG,,,,,,,,,,,,,3,1,31,2,,,,,,,,,,,AMNE01.jpg,AMSA17.jpg,AMSA03.jpg,AMNE09.jpg,AMNE01.jpg,MN,1,num_8,16,num_8,0.550160963205,,,2017_Aug_21_1217,59.9935538077,FEMA4ImagesEEG,001,201141,
AFNE01.JPG,AFNE01.JPG,AFNE01.JPG,AFNE01.JPG,AFNE01.JPG,AFNE01.JPG,,,,,,,,,,,,,3,2,32,1,,,,,,,,,,,AMSA10.jpg,AMNE07.jpg,AMSA08.jpg,AMNE11.jpg,AMSA10.jpg,MS,2,num_8,16,num_8,0.666773900623,,,2017_Aug_21_1217,59.9935538077,FEMA4ImagesEEG,001,201141,
AFNE01.JPG,AFNE01.JPG,AFNE01.JPG,AFNE01.JPG,AFNE01.JPG,AFNE01.JPG,,,,,,,,,,,,,3,3,33,9,,,,,,,,,,,AMNE01.jpg,AMSA16.jpg,AMNE11.jpg,AMSA04.jpg,AMNE11.jpg,MN,1,num_2,16,num_2,1.2002012321,,,2017_Aug_21_1217,59.9935538077,FEMA4ImagesEEG,001,201141,
AFNE01.JPG,AFNE01.JPG,AFNE01.JPG,AFNE01.JPG,AFNE01.JPG,AFNE01.JPG,,,,,,,,,,,,,3,4,34,6,,,,,,,,,,,AMNE18.jpg,AMSA05.jpg,AMNE01.jpg,AMSA16.jpg,AMNE01.jpg,MN,1,num_2,32,num_8,1.33342431649,,,2017_Aug_21_1217,59.9935538077,FEMA4ImagesEEG,001,201141,
AFNE01.JPG,AFNE01.JPG,AFNE01.JPG,AFNE01.JPG,AFNE01.JPG,AFNE01.JPG,,,,,,,,,,,,,3,5,35,4,,,,,,,,,,,AMNE08.jpg,AMSA02.jpg,AMNE06.jpg,AMSA04.jpg,AMSA04.jpg,MS,2,num_4,32,num_6,1.70005962544,,,2017_Aug_21_1217,59.9935538077,FEMA4ImagesEEG,001,201141,
AFNE01.JPG,AFNE01.JPG,AFNE01.JPG,AFNE01.JPG,AFNE01.JPG,AFNE01.JPG,,,,,,,,,,,,,3,6,36,0,,,,,,,,,,,AMNE20.jpg,AMSA04.jpg,AMSA18.jpg,AMNE12.jpg,AMNE12.jpg,MN,1,num_4,16,num_4,0.966747952858,,,2017_Aug_21_1217,59.9935538077,FEMA4ImagesEEG,001,201141,
AFNE01.JPG,AFNE01.JPG,AFNE01.JPG,AFNE01.JPG,AFNE01.JPG,AFNE01.JPG,,,,,,,,,,,,,3,7,37,8,,,,,,,,,,,AMNE07.jpg,AMNE11.jpg,AMSA15.jpg,AMSA10.jpg,AMSA15.jpg,MS,2,num_2,16,num_2,1.18358851923,,,2017_Aug_21_1217,59.9935538077,FEMA4ImagesEEG,001,201141,
AFNE01.JPG,AFNE01.JPG,AFNE01.JPG,AFNE01.JPG,AFNE01.JPG,AFNE01.JPG,,,,,,,,,,,,,3,8,38,5,,,,,,,,,,,AMNE19.jpg,AMSA19.jpg,AMSA11.jpg,AMNE10.jpg,AMNE19.jpg,MN,1,num_8,16,num_8,1.73338223551,,,2017_Aug_21_1217,59.9935538077,FEMA4ImagesEEG,001,201141,
AFNE01.JPG,AFNE01.JPG,AFNE01.JPG,AFNE01.JPG,AFNE01.JPG,AFNE01.JPG,,,,,,,,,,,,,3,9,39,7,,,,,,,,,,,AMSA10.jpg,AMNE20.jpg,AMNE19.jpg,AMSA13.jpg,AMSA10.jpg,MS,2,num_8,32,num_4,0.883866247721,,,2017_Aug_21_1217,59.9935538077,FEMA4ImagesEEG,001,201141,
AFNE01.JPG,AFNE01.JPG,AFNE01.JPG,AFNE01.JPG,AFNE01.JPG,AFNE01.JPG,,,,,,,,,,,,,4,0,40,8,,,,,,,,,,,AMNE04.jpg,AMSA20.jpg,AMNE09.jpg,AMSA01.jpg,AMSA01.jpg,MS,2,num_4,16,num_4,0.733513738727,,,2017_Aug_21_1217,59.9935538077,FEMA4ImagesEEG,001,201141,
AFNE01.JPG,AFNE01.JPG,AFNE01.JPG,AFNE01.JPG,AFNE01.JPG,AFNE01.JPG,,,,,,,,,,,,,4,1,41,4,,,,,,,,,,,AMNE16.jpg,AMSA01.jpg,AMSA12.jpg,AMNE10.jpg,AMSA01.jpg,MS,2,num_6,16,num_6,0.666768448078,,,2017_Aug_21_1217,59.9935538077,FEMA4ImagesEEG,001,201141,
AFNE01.JPG,AFNE01.JPG,AFNE01.JPG,AFNE01.JPG,AFNE01.JPG,AFNE01.JPG,,,,,,,,,,,,,4,2,42,2,,,,,,,,,,,AMNE10.jpg,AMSA13.jpg,AMSA20.jpg,AMNE09.jpg,AMSA13.jpg,MS,2,num_6,16,num_6,1.09975902818,,,2017_Aug_21_1217,59.9935538077,FEMA4ImagesEEG,001,201141,
AFNE01.JPG,AFNE01.JPG,AFNE01.JPG,AFNE01.JPG,AFNE01.JPG,AFNE01.JPG,,,,,,,,,,,,,4,3,43,6,,,,,,,,,,,AMSA19.jpg,AMNE18.jpg,AMSA13.jpg,AMNE13.jpg,AMSA13.jpg,MS,2,num_2,16,num_2,1.08352158091,,,2017_Aug_21_1217,59.9935538077,FEMA4ImagesEEG,001,201141,
AFNE01.JPG,AFNE01.JPG,AFNE01.JPG,AFNE01.JPG,AFNE01.JPG,AFNE01.JPG,,,,,,,,,,,,,4,4,44,9,,,,,,,,,,,AMNE15.jpg,AMNE05.jpg,AMSA04.jpg,AMSA06.jpg,AMNE15.jpg,MN,1,num_8,16,num_8,0.866791669629,,,2017_Aug_21_1217,59.9935538077,FEMA4ImagesEEG,001,201141,
AFNE01.JPG,AFNE01.JPG,AFNE01.JPG,AFNE01.JPG,AFNE01.JPG,AFNE01.JPG,,,,,,,,,,,,,4,5,45,7,,,,,,,,,,,AMSA20.jpg,AMNE16.jpg,AMSA14.jpg,AMNE04.jpg,AMSA20.jpg,MS,2,num_8,16,num_8,1.05011365411,,,2017_Aug_21_1217,59.9935538077,FEMA4ImagesEEG,001,201141,
AFNE01.JPG,AFNE01.JPG,AFNE01.JPG,AFNE01.JPG,AFNE01.JPG,AFNE01.JPG,,,,,,,,,,,,,4,6,46,3,,,,,,,,,,,AMNE05.jpg,AMNE18.jpg,AMSA20.jpg,AMSA19.jpg,AMNE18.jpg,MN,1,num_6,16,num_6,1.11673289398,,,2017_Aug_21_1217,59.9935538077,FEMA4ImagesEEG,001,201141,
AFNE01.JPG,AFNE01.JPG,AFNE01.JPG,AFNE01.JPG,AFNE01.JPG,AFNE01.JPG,,,,,,,,,,,,,4,7,47,0,,,,,,,,,,,AMNE19.jpg,AMSA17.jpg,AMSA18.jpg,AMNE03.jpg,AMNE19.jpg,MN,1,num_8,16,num_8,0.733464665595,,,2017_Aug_21_1217,59.9935538077,FEMA4ImagesEEG,001,201141,
AFNE01.JPG,AFNE01.JPG,AFNE01.JPG,AFNE01.JPG,AFNE01.JPG,AFNE01.JPG,,,,,,,,,,,,,4,8,48,5,,,,,,,,,,,AMNE09.jpg,AMNE08.jpg,AMSA10.jpg,AMSA17.jpg,AMNE08.jpg,MN,1,num_6,16,num_6,2.25002140936,,,2017_Aug_21_1217,59.9935538077,FEMA4ImagesEEG,001,201141,
AFNE01.JPG,AFNE01.JPG,AFNE01.JPG,AFNE01.JPG,AFNE01.JPG,AFNE01.JPG,,,,,,,,,,,,,4,9,49,1,,,,,,,,,,,AMSA17.jpg,AMNE13.jpg,AMNE15.jpg,AMSA16.jpg,AMSA16.jpg,MS,2,num_4,32,num_6,0.866761840764,,,2017_Aug_21_1217,59.9935538077,FEMA4ImagesEEG,001,201141,
AFNE01.JPG,AFNE01.JPG,AFNE01.JPG,AFNE01.JPG,AFNE01.JPG,AFNE01.JPG,,,,,,,,,,,,,5,0,50,3,,,,,,,,,,,AMSA18.jpg,AMNE09.jpg,AMNE05.jpg,AMSA09.jpg,AMNE05.jpg,MN,1,num_2,32,num_4,1.00009076938,,,2017_Aug_21_1217,59.9935538077,FEMA4ImagesEEG,001,201141,
AFNE01.JPG,AFNE01.JPG,AFNE01.JPG,AFNE01.JPG,AFNE01.JPG,AFNE01.JPG,,,,,,,,,,,,,5,1,51,4,,,,,,,,,,,AMNE03.jpg,AMNE14.jpg,AMSA15.jpg,AMSA20.jpg,AMSA20.jpg,MS,2,num_4,32,num_6,0.850200125482,,,2017_Aug_21_1217,59.9935538077,FEMA4ImagesEEG,001,201141,
AFNE01.JPG,AFNE01.JPG,AFNE01.JPG,AFNE01.JPG,AFNE01.JPG,AFNE01.JPG,,,,,,,,,,,,,5,2,52,6,,,,,,,,,,,AMNE02.jpg,AMSA14.jpg,AMNE06.jpg,AMSA15.jpg,AMNE02.jpg,MN,1,num_8,32,num_2,2.20003316447,,,2017_Aug_21_1217,59.9935538077,FEMA4ImagesEEG,001,201141,
AFNE01.JPG,AFNE01.JPG,AFNE01.JPG,AFNE01.JPG,AFNE01.JPG,AFNE01.JPG,,,,,,,,,,,,,5,3,53,5,,,,,,,,,,,AMNE17.jpg,AMNE07.jpg,AMSA03.jpg,AMSA02.jpg,AMSA02.jpg,MS,2,num_4,16,num_4,0.766779577709,,,2017_Aug_21_1217,59.9935538077,FEMA4ImagesEEG,001,201141,
AFNE01.JPG,AFNE01.JPG,AFNE01.JPG,AFNE01.JPG,AFNE01.JPG,AFNE01.JPG,,,,,,,,,,,,,5,4,54,1,,,,,,,,,,,AMNE19.jpg,AMSA08.jpg,AMNE05.jpg,AMSA12.jpg,AMNE05.jpg,MN,1,num_2,32,num_8,0.750147941173,,,2017_Aug_21_1217,59.9935538077,FEMA4ImagesEEG,001,201141,
AFNE01.JPG,AFNE01.JPG,AFNE01.JPG,AFNE01.JPG,AFNE01.JPG,AFNE01.JPG,,,,,,,,,,,,,5,5,55,7,,,,,,,,,,,AMSA11.jpg,AMSA09.jpg,AMNE17.jpg,AMNE15.jpg,AMSA11.jpg,MS,2,num_8,16,num_8,0.500152191031,,,2017_Aug_21_1217,59.9935538077,FEMA4ImagesEEG,001,201141,
AFNE01.JPG,AFNE01.JPG,AFNE01.JPG,AFNE01.JPG,AFNE01.JPG,AFNE01.JPG,,,,,,,,,,,,,5,6,56,9,,,,,,,,,,,AMSA14.jpg,AMNE09.jpg,AMNE18.jpg,AMSA01.jpg,AMSA14.jpg,MS,2,num_8,16,num_8,0.433449879522,,,2017_Aug_21_1217,59.9935538077,FEMA4ImagesEEG,001,201141,
AFNE01.JPG,AFNE01.JPG,AFNE01.JPG,AFNE01.JPG,AFNE01.JPG,AFNE01.JPG,,,,,,,,,,,,,5,7,57,8,,,,,,,,,,,AMSA15.jpg,AMNE13.jpg,AMSA09.jpg,AMNE09.jpg,AMSA15.jpg,MS,2,num_8,16,num_8,0.500151549582,,,2017_Aug_21_1217,59.9935538077,FEMA4ImagesEEG,001,201141,
AFNE01.JPG,AFNE01.JPG,AFNE01.JPG,AFNE01.JPG,AFNE01.JPG,AFNE01.JPG,,,,,,,,,,,,,5,8,58,2,,,,,,,,,,,AMNE16.jpg,AMSA05.jpg,AMNE11.jpg,AMSA12.jpg,AMSA12.jpg,MS,2,num_4,16,num_4,0.366667703725,,,2017_Aug_21_1217,59.9935538077,FEMA4ImagesEEG,001,201141,
AFNE01.JPG,AFNE01.JPG,AFNE01.JPG,AFNE01.JPG,AFNE01.JPG,AFNE01.JPG,,,,,,,,,,,,,5,9,59,0,,,,,,,,,,,AMNE20.jpg,AMSA07.jpg,AMSA09.jpg,AMNE01.jpg,AMSA07.jpg,MS,2,num_6,16,num_6,0.516770035727,,,2017_Aug_21_1217,59.9935538077,FEMA4ImagesEEG,001,201141,
,,,,,,,,,,,,,,,,,,,,,,,,,,,,,,,,,,,,,,,,,,,space,10.8493158461,2017_Aug_21_1217,59.9935538077,FEMA4ImagesEEG,001,201141,
AFNE01.JPG,AFNE01.JPG,AFNE01.JPG,AFNE01.JPG,AFNE01.JPG,AFNE01.JPG,,,,,,,,,,,,,,,,,0,0,0,4,,,,,,,AFNE17.jpg,AFSA11.jpg,AFNE19.jpg,AFSA12.jpg,AFNE17.jpg,FN,3,num_8,32,num_2,1.00016486016,,,2017_Aug_21_1217,59.9935538077,FEMA4ImagesEEG,001,201141,
AFNE01.JPG,AFNE01.JPG,AFNE01.JPG,AFNE01.JPG,AFNE01.JPG,AFNE01.JPG,,,,,,,,,,,,,,,,,0,1,1,8,,,,,,,AFSA06.jpg,AFSA01.jpg,AFNE08.jpg,AFNE20.jpg,AFSA06.jpg,FS,4,num_8,32,num_6,0.716847141623,,,2017_Aug_21_1217,59.9935538077,FEMA4ImagesEEG,001,201141,
AFNE01.JPG,AFNE01.JPG,AFNE01.JPG,AFNE01.JPG,AFNE01.JPG,AFNE01.JPG,,,,,,,,,,,,,,,,,0,2,2,5,,,,,,,AFNE08.jpg,AFSA01.jpg,AFNE10.jpg,AFSA08.jpg,AFNE10.jpg,FN,3,num_2,32,num_8,0.832966139889,,,2017_Aug_21_1217,59.9935538077,FEMA4ImagesEEG,001,201141,
AFNE01.JPG,AFNE01.JPG,AFNE01.JPG,AFNE01.JPG,AFNE01.JPG,AFNE01.JPG,,,,,,,,,,,,,,,,,0,3,3,6,,,,,,,AFSA07.jpg,AFSA04.jpg,AFNE18.jpg,AFNE15.jpg,AFNE18.jpg,FN,3,num_2,32,num_8,1.03344801918,,,2017_Aug_21_1217,59.9935538077,FEMA4ImagesEEG,001,201141,
AFNE01.JPG,AFNE01.JPG,AFNE01.JPG,AFNE01.JPG,AFNE01.JPG,AFNE01.JPG,,,,,,,,,,,,,,,,,0,4,4,1,,,,,,,AFSA16.jpg,AFNE14.jpg,AFNE10.jpg,AFSA05.jpg,AFSA16.jpg,FS,4,num_8,32,num_2,1.0002126504,,,2017_Aug_21_1217,59.9935538077,FEMA4ImagesEEG,001,201141,
AFNE01.JPG,AFNE01.JPG,AFNE01.JPG,AFNE01.JPG,AFNE01.JPG,AFNE01.JPG,,,,,,,,,,,,,,,,,0,5,5,2,,,,,,,AFSA02.jpg,AFNE02.jpg,AFSA05.jpg,AFNE15.jpg,AFNE02.jpg,FN,3,num_6,32,num_8,0.800101546221,,,2017_Aug_21_1217,59.9935538077,FEMA4ImagesEEG,001,201141,
AFNE01.JPG,AFNE01.JPG,AFNE01.JPG,AFNE01.JPG,AFNE01.JPG,AFNE01.JPG,,,,,,,,,,,,,,,,,0,6,6,9,,,,,,,AFNE15.jpg,AFNE16.jpg,AFSA16.jpg,AFSA10.jpg,AFNE16.jpg,FN,3,num_6,32,num_2,1.86668229743,,,2017_Aug_21_1217,59.9935538077,FEMA4ImagesEEG,001,201141,
AFNE01.JPG,AFNE01.JPG,AFNE01.JPG,AFNE01.JPG,AFNE01.JPG,AFNE01.JPG,,,,,,,,,,,,,,,,,0,7,7,3,,,,,,,AFSA04.jpg,AFNE12.jpg,AFNE13.jpg,AFSA19.jpg,AFNE13.jpg,FN,3,num_2,32,num_8,2.48338359862,,,2017_Aug_21_1217,59.9935538077,FEMA4ImagesEEG,001,201141,
AFNE01.JPG,AFNE01.JPG,AFNE01.JPG,AFNE01.JPG,AFNE01.JPG,AFNE01.JPG,,,,,,,,,,,,,,,,,0,8,8,7,,,,,,,AFSA08.jpg,AFNE03.jpg,AFSA13.jpg,AFNE11.jpg,AFNE03.jpg,FN,3,num_6,32,num_2,1.53344048175,,,2017_Aug_21_1217,59.9935538077,FEMA4ImagesEEG,001,201141,
AFNE01.JPG,AFNE01.JPG,AFNE01.JPG,AFNE01.JPG,AFNE01.JPG,AFNE01.JPG,,,,,,,,,,,,,,,,,0,9,9,0,,,,,,,AFNE01.jpg,AFSA09.jpg,AFSA19.jpg,AFNE15.jpg,AFNE15.jpg,FN,3,num_4,16,num_4,0.700138848159,,,2017_Aug_21_1217,59.9935538077,FEMA4ImagesEEG,001,201141,
AFNE01.JPG,AFNE01.JPG,AFNE01.JPG,AFNE01.JPG,AFNE01.JPG,AFNE01.JPG,,,,,,,,,,,,,,,,,1,0,10,8,,,,,,,AFNE03.jpg,AFSA07.jpg,AFSA15.jpg,AFNE13.jpg,AFSA07.jpg,FS,4,num_6,16,num_6,0.766890232917,,,2017_Aug_21_1217,59.9935538077,FEMA4ImagesEEG,001,201141,
AFNE01.JPG,AFNE01.JPG,AFNE01.JPG,AFNE01.JPG,AFNE01.JPG,AFNE01.JPG,,,,,,,,,,,,,,,,,1,1,11,6,,,,,,,AFNE15.jpg,AFSA02.jpg,AFSA13.jpg,AFNE03.jpg,AFSA02.jpg,FS,4,num_6,32,num_8,0.900127750705,,,2017_Aug_21_1217,59.9935538077,FEMA4ImagesEEG,001,201141,
AFNE01.JPG,AFNE01.JPG,AFNE01.JPG,AFNE01.JPG,AFNE01.JPG,AFNE01.JPG,,,,,,,,,,,,,,,,,1,2,12,0,,,,,,,AFNE05.jpg,AFSA20.jpg,AFNE17.jpg,AFSA16.jpg,AFSA20.jpg,FS,4,num_6,32,num_2,0.800179165206,,,2017_Aug_21_1217,59.9935538077,FEMA4ImagesEEG,001,201141,
AFNE01.JPG,AFNE01.JPG,AFNE01.JPG,AFNE01.JPG,AFNE01.JPG,AFNE01.JPG,,,,,,,,,,,,,,,,,1,3,13,9,,,,,,,AFSA13.jpg,AFNE06.jpg,AFSA01.jpg,AFNE13.jpg,AFSA01.jpg,FS,4,num_2,32,num_8,1.06673630991,,,2017_Aug_21_1217,59.9935538077,FEMA4ImagesEEG,001,201141,
AFNE01.JPG,AFNE01.JPG,AFNE01.JPG,AFNE01.JPG,AFNE01.JPG,AFNE01.JPG,,,,,,,,,,,,,,,,,1,4,14,5,,,,,,,AFNE17.jpg,AFSA06.jpg,AFSA02.jpg,AFNE10.jpg,AFSA02.jpg,FS,4,num_2,16,num_2,1.18337234063,,,2017_Aug_21_1217,59.9935538077,FEMA4ImagesEEG,001,201141,
AFNE01.JPG,AFNE01.JPG,AFNE01.JPG,AFNE01.JPG,AFNE01.JPG,AFNE01.JPG,,,,,,,,,,,,,,,,,1,5,15,3,,,,,,,AFSA05.jpg,AFNE06.jpg,AFSA18.jpg,AFNE03.jpg,AFSA05.jpg,FS,4,num_8,16,num_8,1.16710698884,,,2017_Aug_21_1217,59.9935538077,FEMA4ImagesEEG,001,201141,
AFNE01.JPG,AFNE01.JPG,AFNE01.JPG,AFNE01.JPG,AFNE01.JPG,AFNE01.JPG,,,,,,,,,,,,,,,,,1,6,16,1,,,,,,,AFSA13.jpg,AFSA15.jpg,AFNE05.jpg,AFNE14.jpg,AFSA13.jpg,FS,4,num_8,32,num_4,1.43344218179,,,2017_Aug_21_1217,59.9935538077,FEMA4ImagesEEG,001,201141,
AFNE01.JPG,AFNE01.JPG,AFNE01.JPG,AFNE01.JPG,AFNE01.JPG,AFNE01.JPG,,,,,,,,,,,,,,,,,1,7,17,7,,,,,,,AFNE01.jpg,AFSA09.jpg,AFSA16.jpg,AFNE19.jpg,AFSA16.jpg,FS,4,num_2,32,num_6,0.650126868626,,,2017_Aug_21_1217,59.9935538077,FEMA4ImagesEEG,001,201141,
AFNE01.JPG,AFNE01.JPG,AFNE01.JPG,AFNE01.JPG,AFNE01.JPG,AFNE01.JPG,,,,,,,,,,,,,,,,,1,8,18,2,,,,,,,AFSA10.jpg,AFNE13.jpg,AFNE19.jpg,AFSA19.jpg,AFSA10.jpg,FS,4,num_8,16,num_8,0.933416041429,,,2017_Aug_21_1217,59.9935538077,FEMA4ImagesEEG,001,201141,
AFNE01.JPG,AFNE01.JPG,AFNE01.JPG,AFNE01.JPG,AFNE01.JPG,AFNE01.JPG,,,,,,,,,,,,,,,,,1,9,19,4,,,,,,,AFSA02.jpg,AFSA15.jpg,AFNE02.jpg,AFNE19.jpg,AFSA15.jpg,FS,4,num_6,16,num_6,0.450145022478,,,2017_Aug_21_1217,59.9935538077,FEMA4ImagesEEG,001,201141,
AFNE01.JPG,AFNE01.JPG,AFNE01.JPG,AFNE01.JPG,AFNE01.JPG,AFNE01.JPG,,,,,,,,,,,,,,,,,2,0,20,5,,,,,,,AFSA20.jpg,AFSA01.jpg,AFNE03.jpg,AFNE08.jpg,AFSA20.jpg,FS,4,num_8,32,num_6,1.36671421095,,,2017_Aug_21_1217,59.9935538077,FEMA4ImagesEEG,001,201141,
AFNE01.JPG,AFNE01.JPG,AFNE01.JPG,AFNE01.JPG,AFNE01.JPG,AFNE01.JPG,,,,,,,,,,,,,,,,,2,1,21,7,,,,,,,AFNE09.jpg,AFSA07.jpg,AFNE15.jpg,AFSA11.jpg,AFNE15.jpg,FN,3,num_2,32,num_8,1.41671432322,,,2017_Aug_21_1217,59.9935538077,FEMA4ImagesEEG,001,201141,
AFNE01.JPG,AFNE01.JPG,AFNE01.JPG,AFNE01.JPG,AFNE01.JPG,AFNE01.JPG,,,,,,,,,,,,,,,,,2,2,22,3,,,,,,,AFSA06.jpg,AFSA18.jpg,AFNE06.jpg,AFNE10.jpg,AFSA18.jpg,FS,4,num_6,16,num_6,0.700131150545,,,2017_Aug_21_1217,59.9935538077,FEMA4ImagesEEG,001,201141,
AFNE01.JPG,AFNE01.JPG,AFNE01.JPG,AFNE01.JPG,AFNE01.JPG,AFNE01.JPG,,,,,,,,,,,,,,,,,2,3,23,1,,,,,,,AFNE11.jpg,AFSA02.jpg,AFSA09.jpg,AFNE02.jpg,AFSA02.jpg,FS,4,num_6,16,num_6,0.533457801677,,,2017_Aug_21_1217,59.9935538077,FEMA4ImagesEEG,001,201141,
AFNE01.JPG,AFNE01.JPG,AFNE01.JPG,AFNE01.JPG,AFNE01.JPG,AFNE01.JPG,,,,,,,,,,,,,,,,,2,4,24,6,,,,,,,AFNE10.jpg,AFSA06.jpg,AFNE06.jpg,AFSA20.jpg,AFNE10.jpg,FN,3,num_8,16,num_8,1.80004092644,,,2017_Aug_21_1217,59.9935538077,FEMA4ImagesEEG,001,201141,
AFNE01.JPG,AFNE01.JPG,AFNE01.JPG,AFNE01.JPG,AFNE01.JPG,AFNE01.JPG,,,,,,,,,,,,,,,,,2,5,25,4,,,,,,,AFNE09.jpg,AFNE08.jpg,AFSA14.jpg,AFSA03.jpg,AFNE09.jpg,FN,3,num_8,32,num_6,0.900105940294,,,2017_Aug_21_1217,59.9935538077,FEMA4ImagesEEG,001,201141,
AFNE01.JPG,AFNE01.JPG,AFNE01.JPG,AFNE01.JPG,AFNE01.JPG,AFNE01.JPG,,,,,,,,,,,,,,,,,2,6,26,9,,,,,,,AFNE20.jpg,AFSA09.jpg,AFSA16.jpg,AFNE16.jpg,AFNE20.jpg,FN,3,num_8,16,num_8,1.0667738365,,,2017_Aug_21_1217,59.9935538077,FEMA4ImagesEEG,001,201141,
AFNE01.JPG,AFNE01.JPG,AFNE01.JPG,AFNE01.JPG,AFNE01.JPG,AFNE01.JPG,,,,,,,,,,,,,,,,,2,7,27,0,,,,,,,AFSA18.jpg,AFNE01.jpg,AFNE02.jpg,AFSA19.jpg,AFSA19.jpg,FS,4,num_4,16,num_4,2.79997196735,,,2017_Aug_21_1217,59.9935538077,FEMA4ImagesEEG,001,201141,
AFNE01.JPG,AFNE01.JPG,AFNE01.JPG,AFNE01.JPG,AFNE01.JPG,AFNE01.JPG,,,,,,,,,,,,,,,,,2,8,28,2,,,,,,,AFNE10.jpg,AFSA17.jpg,AFSA10.jpg,AFNE19.jpg,AFNE19.jpg,FN,3,num_4,16,num_4,1.21672189271,,,2017_Aug_21_1217,59.9935538077,FEMA4ImagesEEG,001,201141,
AFNE01.JPG,AFNE01.JPG,AFNE01.JPG,AFNE01.JPG,AFNE01.JPG,AFNE01.JPG,,,,,,,,,,,,,,,,,2,9,29,8,,,,,,,AFSA11.jpg,AFNE03.jpg,AFNE05.jpg,AFSA13.jpg,AFNE05.jpg,FN,3,num_2,16,num_2,1.80004253017,,,2017_Aug_21_1217,59.9935538077,FEMA4ImagesEEG,001,201141,
AFNE01.JPG,AFNE01.JPG,AFNE01.JPG,AFNE01.JPG,AFNE01.JPG,AFNE01.JPG,,,,,,,,,,,,,,,,,3,0,30,6,,,,,,,AFSA19.jpg,AFNE11.jpg,AFNE03.jpg,AFSA09.jpg,AFNE11.jpg,FN,3,num_6,16,num_6,0.700166431838,,,2017_Aug_21_1217,59.9935538077,FEMA4ImagesEEG,001,201141,
AFNE01.JPG,AFNE01.JPG,AFNE01.JPG,AFNE01.JPG,AFNE01.JPG,AFNE01.JPG,,,,,,,,,,,,,,,,,3,1,31,9,,,,,,,AFSA06.jpg,AFNE20.jpg,AFNE08.jpg,AFSA09.jpg,AFSA09.jpg,FS,4,num_4,16,num_4,0.650162150036,,,2017_Aug_21_1217,59.9935538077,FEMA4ImagesEEG,001,201141,
AFNE01.JPG,AFNE01.JPG,AFNE01.JPG,AFNE01.JPG,AFNE01.JPG,AFNE01.JPG,,,,,,,,,,,,,,,,,3,2,32,1,,,,,,,AFSA06.jpg,AFNE14.jpg,AFSA01.jpg,AFNE13.jpg,AFSA06.jpg,FS,4,num_8,32,num_6,0.883431003895,,,2017_Aug_21_1217,59.9935538077,FEMA4ImagesEEG,001,201141,
AFNE01.JPG,AFNE01.JPG,AFNE01.JPG,AFNE01.JPG,AFNE01.JPG,AFNE01.JPG,,,,,,,,,,,,,,,,,3,3,33,3,,,,,,,AFNE10.jpg,AFSA14.jpg,AFSA06.jpg,AFNE15.jpg,AFSA06.jpg,FS,4,num_2,16,num_2,0.733417516807,,,2017_Aug_21_1217,59.9935538077,FEMA4ImagesEEG,001,201141,
AFNE01.JPG,AFNE01.JPG,AFNE01.JPG,AFNE01.JPG,AFNE01.JPG,AFNE01.JPG,,,,,,,,,,,,,,,,,3,4,34,8,,,,,,,AFSA08.jpg,AFNE19.jpg,AFSA12.jpg,AFNE08.jpg,AFSA12.jpg,FS,4,num_2,16,num_2,0.916761311586,,,2017_Aug_21_1217,59.9935538077,FEMA4ImagesEEG,001,201141,
AFNE01.JPG,AFNE01.JPG,AFNE01.JPG,AFNE01.JPG,AFNE01.JPG,AFNE01.JPG,,,,,,,,,,,,,,,,,3,5,35,7,,,,,,,AFNE07.jpg,AFSA03.jpg,AFNE05.jpg,AFSA05.jpg,AFSA03.jpg,FS,4,num_6,32,num_2,1.56669509492,,,2017_Aug_21_1217,59.9935538077,FEMA4ImagesEEG,001,201141,
AFNE01.JPG,AFNE01.JPG,AFNE01.JPG,AFNE01.JPG,AFNE01.JPG,AFNE01.JPG,,,,,,,,,,,,,,,,,3,6,36,5,,,,,,,AFNE01.jpg,AFNE16.jpg,AFSA13.jpg,AFSA09.jpg,AFNE01.jpg,FN,3,num_8,32,num_4,1.01677661086,,,2017_Aug_21_1217,59.9935538077,FEMA4ImagesEEG,001,201141,
AFNE01.JPG,AFNE01.JPG,AFNE01.JPG,AFNE01.JPG,AFNE01.JPG,AFNE01.JPG,,,,,,,,,,,,,,,,,3,7,37,0,,,,,,,AFSA17.jpg,AFNE01.jpg,AFNE11.jpg,AFSA14.jpg,AFSA17.jpg,FS,4,num_8,32,num_6,0.633471497335,,,2017_Aug_21_1217,59.9935538077,FEMA4ImagesEEG,001,201141,
AFNE01.JPG,AFNE01.JPG,AFNE01.JPG,AFNE01.JPG,AFNE01.JPG,AFNE01.JPG,,,,,,,,,,,,,,,,,3,8,38,2,,,,,,,AFNE17.jpg,AFNE05.jpg,AFSA02.jpg,AFSA01.jpg,AFSA01.jpg,FS,4,num_4,16,num_4,0.266829452827,,,2017_Aug_21_1217,59.9935538077,FEMA4ImagesEEG,001,201141,
AFNE01.JPG,AFNE01.JPG,AFNE01.JPG,AFNE01.JPG,AFNE01.JPG,AFNE01.JPG,,,,,,,,,,,,,,,,,3,9,39,4,,,,,,,AFNE12.jpg,AFSA17.jpg,AFNE17.jpg,AFSA14.jpg,AFSA17.jpg,FS,4,num_6,32,num_8,0.283607025864,,,2017_Aug_21_1217,59.9935538077,FEMA4ImagesEEG,001,201141,
AFNE01.JPG,AFNE01.JPG,AFNE01.JPG,AFNE01.JPG,AFNE01.JPG,AFNE01.JPG,,,,,,,,,,,,,,,,,4,0,40,4,,,,,,,AFNE15.jpg,AFSA17.jpg,AFNE10.jpg,AFSA03.jpg,AFSA17.jpg,FS,4,num_6,32,num_2,1.03344673617,,,2017_Aug_21_1217,59.9935538077,FEMA4ImagesEEG,001,201141,
AFNE01.JPG,AFNE01.JPG,AFNE01.JPG,AFNE01.JPG,AFNE01.JPG,AFNE01.JPG,,,,,,,,,,,,,,,,,4,1,41,5,,,,,,,AFSA13.jpg,AFNE12.jpg,AFSA12.jpg,AFNE02.jpg,AFSA13.jpg,FS,4,num_8,16,num_8,0.966759820236,,,2017_Aug_21_1217,59.9935538077,FEMA4ImagesEEG,001,201141,
AFNE01.JPG,AFNE01.JPG,AFNE01.JPG,AFNE01.JPG,AFNE01.JPG,AFNE01.JPG,,,,,,,,,,,,,,,,,4,2,42,8,,,,,,,AFSA02.jpg,AFNE03.jpg,AFNE13.jpg,AFSA18.jpg,AFNE03.jpg,FN,3,num_6,32,num_2,1.06676742167,,,2017_Aug_21_1217,59.9935538077,FEMA4ImagesEEG,001,201141,
AFNE01.JPG,AFNE01.JPG,AFNE01.JPG,AFNE01.JPG,AFNE01.JPG,AFNE01.JPG,,,,,,,,,,,,,,,,,4,3,43,3,,,,,,,AFNE03.jpg,AFSA01.jpg,AFSA10.jpg,AFNE10.jpg,AFSA01.jpg,FS,4,num_6,16,num_6,0.40019687009,,,2017_Aug_21_1217,59.9935538077,FEMA4ImagesEEG,001,201141,
AFNE01.JPG,AFNE01.JPG,AFNE01.JPG,AFNE01.JPG,AFNE01.JPG,AFNE01.JPG,,,,,,,,,,,,,,,,,4,4,44,9,,,,,,,AFSA20.jpg,AFNE15.jpg,AFSA11.jpg,AFNE05.jpg,AFNE15.jpg,FN,3,num_6,32,num_8,1.46674747171,,,2017_Aug_21_1217,59.9935538077,FEMA4ImagesEEG,001,201141,
AFNE01.JPG,AFNE01.JPG,AFNE01.JPG,AFNE01.JPG,AFNE01.JPG,AFNE01.JPG,,,,,,,,,,,,,,,,,4,5,45,0,,,,,,,AFSA08.jpg,AFNE09.jpg,AFSA16.jpg,AFNE18.jpg,AFNE09.jpg,FN,3,num_6,32,num_2,1.81667288369,,,2017_Aug_21_1217,59.9935538077,FEMA4ImagesEEG,001,201141,
AFNE01.JPG,AFNE01.JPG,AFNE01.JPG,AFNE01.JPG,AFNE01.JPG,AFNE01.JPG,,,,,,,,,,,,,,,,,4,6,46,7,,,,,,,AFNE12.jpg,AFSA11.jpg,AFSA20.jpg,AFNE19.jpg,AFSA11.jpg,FS,4,num_6,16,num_6,0.416826261324,,,2017_Aug_21_1217,59.9935538077,FEMA4ImagesEEG,001,201141,
AFNE01.JPG,AFNE01.JPG,AFNE01.JPG,AFNE01.JPG,AFNE01.JPG,AFNE01.JPG,,,,,,,,,,,,,,,,,4,7,47,2,,,,,,,AFNE06.jpg,AFSA20.jpg,AFSA03.jpg,AFNE08.jpg,AFNE08.jpg,FN,3,num_4,16,num_4,0.866769538494,,,2017_Aug_21_1217,59.9935538077,FEMA4ImagesEEG,001,201141,
AFNE01.JPG,AFNE01.JPG,AFNE01.JPG,AFNE01.JPG,AFNE01.JPG,AFNE01.JPG,,,,,,,,,,,,,,,,,4,8,48,1,,,,,,,AFSA10.jpg,AFSA06.jpg,AFNE11.jpg,AFNE05.jpg,AFSA10.jpg,FS,4,num_8,16,num_8,0.400045160088,,,2017_Aug_21_1217,59.9935538077,FEMA4ImagesEEG,001,201141,
AFNE01.JPG,AFNE01.JPG,AFNE01.JPG,AFNE01.JPG,AFNE01.JPG,AFNE01.JPG,,,,,,,,,,,,,,,,,4,9,49,6,,,,,,,AFSA10.jpg,AFNE05.jpg,AFSA12.jpg,AFNE15.jpg,AFNE05.jpg,FN,3,num_6,16,num_6,0.850109356223,,,2017_Aug_21_1217,59.9935538077,FEMA4ImagesEEG,001,201141,
AFNE01.JPG,AFNE01.JPG,AFNE01.JPG,AFNE01.JPG,AFNE01.JPG,AFNE01.JPG,,,,,,,,,,,,,,,,,5,0,50,9,,,,,,,AFNE17.jpg,AFSA18.jpg,AFSA13.jpg,AFNE08.jpg,AFNE08.jpg,FN,3,num_4,16,num_4,1.05010403192,,,2017_Aug_21_1217,59.9935538077,FEMA4ImagesEEG,001,201141,
AFNE01.JPG,AFNE01.JPG,AFNE01.JPG,AFNE01.JPG,AFNE01.JPG,AFNE01.JPG,,,,,,,,,,,,,,,,,5,1,51,2,,,,,,,AFSA18.jpg,AFNE16.jpg,AFSA14.jpg,AFNE03.jpg,AFNE16.jpg,FN,3,num_6,32,num_2,1.50011819252,,,2017_Aug_21_1217,59.9935538077,FEMA4ImagesEEG,001,201141,
AFNE01.JPG,AFNE01.JPG,AFNE01.JPG,AFNE01.JPG,AFNE01.JPG,AFNE01.JPG,,,,,,,,,,,,,,,,,5,2,52,1,,,,,,,AFSA02.jpg,AFNE14.jpg,AFSA15.jpg,AFNE11.jpg,AFSA15.jpg,FS,4,num_2,16,num_2,1.20020379801,,,2017_Aug_21_1217,59.9935538077,FEMA4ImagesEEG,001,201141,
AFNE01.JPG,AFNE01.JPG,AFNE01.JPG,AFNE01.JPG,AFNE01.JPG,AFNE01.JPG,,,,,,,,,,,,,,,,,5,3,53,0,,,,,,,AFNE01.jpg,AFNE18.jpg,AFSA03.jpg,AFSA06.jpg,AFSA06.jpg,FS,4,num_4,32,num_2,1.41673196387,,,2017_Aug_21_1217,59.9935538077,FEMA4ImagesEEG,001,201141,
AFNE01.JPG,AFNE01.JPG,AFNE01.JPG,AFNE01.JPG,AFNE01.JPG,AFNE01.JPG,,,,,,,,,,,,,,,,,5,4,54,7,,,,,,,AFSA03.jpg,AFSA15.jpg,AFNE13.jpg,AFNE02.jpg,AFSA03.jpg,FS,4,num_8,16,num_8,0.833313500974,,,2017_Aug_21_1217,59.9935538077,FEMA4ImagesEEG,001,201141,
AFNE01.JPG,AFNE01.JPG,AFNE01.JPG,AFNE01.JPG,AFNE01.JPG,AFNE01.JPG,,,,,,,,,,,,,,,,,5,5,55,6,,,,,,,AFSA19.jpg,AFSA17.jpg,AFNE03.jpg,AFNE05.jpg,AFSA17.jpg,FS,4,num_6,16,num_6,0.75009886804,,,2017_Aug_21_1217,59.9935538077,FEMA4ImagesEEG,001,201141,
AFNE01.JPG,AFNE01.JPG,AFNE01.JPG,AFNE01.JPG,AFNE01.JPG,AFNE01.JPG,,,,,,,,,,,,,,,,,5,6,56,8,,,,,,,AFSA03.jpg,AFSA04.jpg,AFNE05.jpg,AFNE09.jpg,AFNE05.jpg,FN,3,num_2,32,num_4,0.733502512798,,,2017_Aug_21_1217,59.9935538077,FEMA4ImagesEEG,001,201141,
AFNE01.JPG,AFNE01.JPG,AFNE01.JPG,AFNE01.JPG,AFNE01.JPG,AFNE01.JPG,,,,,,,,,,,,,,,,,5,7,57,5,,,,,,,AFSA01.jpg,AFNE09.jpg,AFSA10.jpg,AFNE06.jpg,AFNE09.jpg,FN,3,num_6,32,num_4,0.633496514987,,,2017_Aug_21_1217,59.9935538077,FEMA4ImagesEEG,001,201141,
AFNE01.JPG,AFNE01.JPG,AFNE01.JPG,AFNE01.JPG,AFNE01.JPG,AFNE01.JPG,,,,,,,,,,,,,,,,,5,8,58,3,,,,,,,AFNE06.jpg,AFNE13.jpg,AFSA06.jpg,AFSA18.jpg,AFSA06.jpg,FS,4,num_2,32,num_4,0.38348985964,,,2017_Aug_21_1217,59.9935538077,FEMA4ImagesEEG,001,201141,
AFNE01.JPG,AFNE01.JPG,AFNE01.JPG,AFNE01.JPG,AFNE01.JPG,AFNE01.JPG,,,,,,,,,,,,,,,,,5,9,59,4,,,,,,,AFSA20.jpg,AFNE09.jpg,AFSA07.jpg,AFNE01.jpg,AFNE01.jpg,FN,3,num_4,32,num_8,0.750108490232,,,2017_Aug_21_1217,59.9935538077,FEMA4ImagesEEG,001,201141,
,,,,,,,,,,,,,,,,,,,,,,,,,,,,,,,,,,,,,,,,,,,space,2.13336805871,2017_Aug_21_1217,59.9935538077,FEMA4ImagesEEG,001,201141,
AFNE01.JPG,AFNE01.JPG,AFNE01.JPG,AFNE01.JPG,AFNE01.JPG,AFNE01.JPG,,,,,,,,,,,,,,,,,,,,,0,0,0,2,,,AMNE10.jpg,AMSA02.jpg,AMNE20.jpg,AMSA03.jpg,AMSA02.jpg,MS,2,num_6,16,num_6,0.650180111406,,,2017_Aug_21_1217,59.9935538077,FEMA4ImagesEEG,001,201141,
AFNE01.JPG,AFNE01.JPG,AFNE01.JPG,AFNE01.JPG,AFNE01.JPG,AFNE01.JPG,,,,,,,,,,,,,,,,,,,,,0,1,1,3,,,AMSA09.jpg,AMNE09.jpg,AMSA10.jpg,AMNE15.jpg,AMSA10.jpg,MS,2,num_2,32,num_8,0.583522382658,,,2017_Aug_21_1217,59.9935538077,FEMA4ImagesEEG,001,201141,
AFNE01.JPG,AFNE01.JPG,AFNE01.JPG,AFNE01.JPG,AFNE01.JPG,AFNE01.JPG,,,,,,,,,,,,,,,,,,,,,0,2,2,1,,,AMNE03.jpg,AMNE20.jpg,AMSA09.jpg,AMSA08.jpg,AMSA08.jpg,MS,2,num_4,16,num_4,0.700206845067,,,2017_Aug_21_1217,59.9935538077,FEMA4ImagesEEG,001,201141,
AFNE01.JPG,AFNE01.JPG,AFNE01.JPG,AFNE01.JPG,AFNE01.JPG,AFNE01.JPG,,,,,,,,,,,,,,,,,,,,,0,3,3,6,,,AMNE17.jpg,AMSA18.jpg,AMNE14.jpg,AMSA10.jpg,AMNE14.jpg,MN,1,num_2,16,num_2,1.63338457677,,,2017_Aug_21_1217,59.9935538077,FEMA4ImagesEEG,001,201141,
AFNE01.JPG,AFNE01.JPG,AFNE01.JPG,AFNE01.JPG,AFNE01.JPG,AFNE01.JPG,,,,,,,,,,,,,,,,,,,,,0,4,4,7,,,AMSA03.jpg,AMNE18.jpg,AMNE02.jpg,AMSA06.jpg,AMSA03.jpg,MS,2,num_8,16,num_8,0.633441027021,,,2017_Aug_21_1217,59.9935538077,FEMA4ImagesEEG,001,201141,
AFNE01.JPG,AFNE01.JPG,AFNE01.JPG,AFNE01.JPG,AFNE01.JPG,AFNE01.JPG,,,,,,,,,,,,,,,,,,,,,0,5,5,8,,,AMNE02.jpg,AMSA02.jpg,AMSA13.jpg,AMNE05.jpg,AMSA02.jpg,MS,2,num_6,16,num_6,0.800159920822,,,2017_Aug_21_1217,59.9935538077,FEMA4ImagesEEG,001,201141,
AFNE01.JPG,AFNE01.JPG,AFNE01.JPG,AFNE01.JPG,AFNE01.JPG,AFNE01.JPG,,,,,,,,,,,,,,,,,,,,,0,6,6,4,,,AMSA08.jpg,AMNE07.jpg,AMSA09.jpg,AMNE19.jpg,AMSA08.jpg,MS,2,num_8,32,num_4,1.63337174733,,,2017_Aug_21_1217,59.9935538077,FEMA4ImagesEEG,001,201141,
AFNE01.JPG,AFNE01.JPG,AFNE01.JPG,AFNE01.JPG,AFNE01.JPG,AFNE01.JPG,,,,,,,,,,,,,,,,,,,,,0,7,7,5,,,AMSA01.jpg,AMNE17.jpg,AMSA11.jpg,AMNE16.jpg,AMNE17.jpg,MN,1,num_6,16,num_6,0.900109147769,,,2017_Aug_21_1217,59.9935538077,FEMA4ImagesEEG,001,201141,
AFNE01.JPG,AFNE01.JPG,AFNE01.JPG,AFNE01.JPG,AFNE01.JPG,AFNE01.JPG,,,,,,,,,,,,,,,,,,,,,0,8,8,0,,,AMNE18.jpg,AMSA06.jpg,AMSA14.jpg,AMNE16.jpg,AMNE18.jpg,MN,1,num_8,32,num_4,0.73347172176,,,2017_Aug_21_1217,59.9935538077,FEMA4ImagesEEG,001,201141,
AFNE01.JPG,AFNE01.JPG,AFNE01.JPG,AFNE01.JPG,AFNE01.JPG,AFNE01.JPG,,,,,,,,,,,,,,,,,,,,,0,9,9,9,,,AMNE07.jpg,AMSA08.jpg,AMNE20.jpg,AMSA15.jpg,AMNE07.jpg,MN,1,num_8,32,num_2,1.36673698353,,,2017_Aug_21_1217,59.9935538077,FEMA4ImagesEEG,001,201141,
AFNE01.JPG,AFNE01.JPG,AFNE01.JPG,AFNE01.JPG,AFNE01.JPG,AFNE01.JPG,,,,,,,,,,,,,,,,,,,,,1,0,10,2,,,AMNE06.jpg,AMSA12.jpg,AMNE07.jpg,AMSA17.jpg,AMSA17.jpg,MS,2,num_4,16,num_4,0.88377098809,,,2017_Aug_21_1217,59.9935538077,FEMA4ImagesEEG,001,201141,
AFNE01.JPG,AFNE01.JPG,AFNE01.JPG,AFNE01.JPG,AFNE01.JPG,AFNE01.JPG,,,,,,,,,,,,,,,,,,,,,1,1,11,4,,,AMSA15.jpg,AMSA19.jpg,AMNE16.jpg,AMNE04.jpg,AMNE16.jpg,MN,1,num_2,16,num_2,1.41671753058,,,2017_Aug_21_1217,59.9935538077,FEMA4ImagesEEG,001,201141,
AFNE01.JPG,AFNE01.JPG,AFNE01.JPG,AFNE01.JPG,AFNE01.JPG,AFNE01.JPG,,,,,,,,,,,,,,,,,,,,,1,2,12,5,,,AMSA18.jpg,AMNE08.jpg,AMNE20.jpg,AMSA09.jpg,AMNE08.jpg,MN,1,num_6,32,num_2,1.55003587471,,,2017_Aug_21_1217,59.9935538077,FEMA4ImagesEEG,001,201141,
AFNE01.JPG,AFNE01.JPG,AFNE01.JPG,AFNE01.JPG,AFNE01.JPG,AFNE01.JPG,,,,,,,,,,,,,,,,,,,,,1,3,13,1,,,AMNE18.jpg,AMNE06.jpg,AMSA16.jpg,AMSA03.jpg,AMSA03.jpg,MS,2,num_4,16,num_4,0.500145776197,,,2017_Aug_21_1217,59.9935538077,FEMA4ImagesEEG,001,201141,
AFNE01.JPG,AFNE01.JPG,AFNE01.JPG,AFNE01.JPG,AFNE01.JPG,AFNE01.JPG,,,,,,,,,,,,,,,,,,,,,1,4,14,0,,,AMSA08.jpg,AMSA15.jpg,AMNE03.jpg,AMNE14.jpg,AMSA08.jpg,MS,2,num_8,32,num_2,1.03343294433,,,2017_Aug_21_1217,59.9935538077,FEMA4ImagesEEG,001,201141,
AFNE01.JPG,AFNE01.JPG,AFNE01.JPG,AFNE01.JPG,AFNE01.JPG,AFNE01.JPG,,,,,,,,,,,,,,,,,,,,,1,5,15,7,,,AMNE13.jpg,AMSA05.jpg,AMSA11.jpg,AMNE06.jpg,AMNE13.jpg,MN,1,num_8,32,num_4,1.1499868657,,,2017_Aug_21_1217,59.9935538077,FEMA4ImagesEEG,001,201141,
AFNE01.JPG,AFNE01.JPG,AFNE01.JPG,AFNE01.JPG,AFNE01.JPG,AFNE01.JPG,,,,,,,,,,,,,,,,,,,,,1,6,16,9,,,AMSA18.jpg,AMNE15.jpg,AMNE06.jpg,AMSA13.jpg,AMSA18.jpg,MS,2,num_8,16,num_8,0.483340940322,,,2017_Aug_21_1217,59.9935538077,FEMA4ImagesEEG,001,201141,
AFNE01.JPG,AFNE01.JPG,AFNE01.JPG,AFNE01.JPG,AFNE01.JPG,AFNE01.JPG,,,,,,,,,,,,,,,,,,,,,1,7,17,6,,,AMNE10.jpg,AMNE06.jpg,AMSA12.jpg,AMSA06.jpg,AMNE10.jpg,MN,1,num_8,32,num_2,1.25006438838,,,2017_Aug_21_1217,59.9935538077,FEMA4ImagesEEG,001,201141,
AFNE01.JPG,AFNE01.JPG,AFNE01.JPG,AFNE01.JPG,AFNE01.JPG,AFNE01.JPG,,,,,,,,,,,,,,,,,,,,,1,8,18,8,,,AMSA17.jpg,AMNE14.jpg,AMSA02.jpg,AMNE02.jpg,AMSA02.jpg,MS,2,num_2,32,num_4,0.69998874201,,,2017_Aug_21_1217,59.9935538077,FEMA4ImagesEEG,001,201141,
AFNE01.JPG,AFNE01.JPG,AFNE01.JPG,AFNE01.JPG,AFNE01.JPG,AFNE01.JPG,,,,,,,,,,,,,,,,,,,,,1,9,19,3,,,AMNE03.jpg,AMSA07.jpg,AMNE01.jpg,AMSA01.jpg,AMNE01.jpg,MN,1,num_2,32,num_4,0.66677293845,,,2017_Aug_21_1217,59.9935538077,FEMA4ImagesEEG,001,201141,
AFNE01.JPG,AFNE01.JPG,AFNE01.JPG,AFNE01.JPG,AFNE01.JPG,AFNE01.JPG,,,,,,,,,,,,,,,,,,,,,2,0,20,8,,,AMNE18.jpg,AMSA10.jpg,AMSA01.jpg,AMNE02.jpg,AMNE18.jpg,MN,1,num_8,16,num_8,1.06673823437,,,2017_Aug_21_1217,59.9935538077,FEMA4ImagesEEG,001,201141,
AFNE01.JPG,AFNE01.JPG,AFNE01.JPG,AFNE01.JPG,AFNE01.JPG,AFNE01.JPG,,,,,,,,,,,,,,,,,,,,,2,1,21,4,,,AMSA17.jpg,AMSA10.jpg,AMNE01.jpg,AMNE10.jpg,AMNE10.jpg,MN,1,num_4,16,num_4,0.833441476105,,,2017_Aug_21_1217,59.9935538077,FEMA4ImagesEEG,001,201141,
AFNE01.JPG,AFNE01.JPG,AFNE01.JPG,AFNE01.JPG,AFNE01.JPG,AFNE01.JPG,,,,,,,,,,,,,,,,,,,,,2,2,22,5,,,AMSA07.jpg,AMNE15.jpg,AMNE20.jpg,AMSA20.jpg,AMSA07.jpg,MS,2,num_8,32,num_6,0.683491495438,,,2017_Aug_21_1217,59.9935538077,FEMA4ImagesEEG,001,201141,
AFNE01.JPG,AFNE01.JPG,AFNE01.JPG,AFNE01.JPG,AFNE01.JPG,AFNE01.JPG,,,,,,,,,,,,,,,,,,,,,2,3,23,0,,,AMSA04.jpg,AMNE09.jpg,AMSA17.jpg,AMNE11.jpg,AMNE11.jpg,MN,1,num_4,16,num_4,0.683437290369,,,2017_Aug_21_1217,59.9935538077,FEMA4ImagesEEG,001,201141,
AFNE01.JPG,AFNE01.JPG,AFNE01.JPG,AFNE01.JPG,AFNE01.JPG,AFNE01.JPG,,,,,,,,,,,,,,,,,,,,,2,4,24,3,,,AMSA10.jpg,AMNE04.jpg,AMNE14.jpg,AMSA17.jpg,AMNE14.jpg,MN,1,num_2,32,num_4,0.516832900699,,,2017_Aug_21_1217,59.9935538077,FEMA4ImagesEEG,001,201141,
AFNE01.JPG,AFNE01.JPG,AFNE01.JPG,AFNE01.JPG,AFNE01.JPG,AFNE01.JPG,,,,,,,,,,,,,,,,,,,,,2,5,25,1,,,AMNE15.jpg,AMNE08.jpg,AMSA13.jpg,AMSA02.jpg,AMNE15.jpg,MN,1,num_8,16,num_8,0.800114375772,,,2017_Aug_21_1217,59.9935538077,FEMA4ImagesEEG,001,201141,
AFNE01.JPG,AFNE01.JPG,AFNE01.JPG,AFNE01.JPG,AFNE01.JPG,AFNE01.JPG,,,,,,,,,,,,,,,,,,,,,2,6,26,6,,,AMNE07.jpg,AMSA01.jpg,AMNE17.jpg,AMSA03.jpg,AMNE17.jpg,MN,1,num_2,16,num_2,1.26677653077,,,2017_Aug_21_1217,59.9935538077,FEMA4ImagesEEG,001,201141,
AFNE01.JPG,AFNE01.JPG,AFNE01.JPG,AFNE01.JPG,AFNE01.JPG,AFNE01.JPG,,,,,,,,,,,,,,,,,,,,,2,7,27,7,,,AMNE16.jpg,AMNE07.jpg,AMSA13.jpg,AMSA20.jpg,AMSA20.jpg,MS,2,num_4,16,num_4,0.633443592931,,,2017_Aug_21_1217,59.9935538077,FEMA4ImagesEEG,001,201141,
AFNE01.JPG,AFNE01.JPG,AFNE01.JPG,AFNE01.JPG,AFNE01.JPG,AFNE01.JPG,,,,,,,,,,,,,,,,,,,,,2,8,28,9,,,AMSA01.jpg,AMSA14.jpg,AMNE19.jpg,AMNE20.jpg,AMSA01.jpg,MS,2,num_8,16,num_8,1.20009859535,,,2017_Aug_21_1217,59.9935538077,FEMA4ImagesEEG,001,201141,
AFNE01.JPG,AFNE01.JPG,AFNE01.JPG,AFNE01.JPG,AFNE01.JPG,AFNE01.JPG,,,,,,,,,,,,,,,,,,,,,2,9,29,2,,,AMSA13.jpg,AMNE08.jpg,AMNE05.jpg,AMSA04.jpg,AMNE05.jpg,MN,1,num_2,16,num_2,1.2167764185,,,2017_Aug_21_1217,59.9935538077,FEMA4ImagesEEG,001,201141,
AFNE01.JPG,AFNE01.JPG,AFNE01.JPG,AFNE01.JPG,AFNE01.JPG,AFNE01.JPG,,,,,,,,,,,,,,,,,,,,,3,0,30,6,,,AMSA19.jpg,AMSA11.jpg,AMNE01.jpg,AMNE11.jpg,AMNE01.jpg,MN,1,num_2,32,num_8,0.949993472896,,,2017_Aug_21_1217,59.9935538077,FEMA4ImagesEEG,001,201141,
AFNE01.JPG,AFNE01.JPG,AFNE01.JPG,AFNE01.JPG,AFNE01.JPG,AFNE01.JPG,,,,,,,,,,,,,,,,,,,,,3,1,31,7,,,AMSA05.jpg,AMSA08.jpg,AMNE01.jpg,AMNE04.jpg,AMNE04.jpg,MN,1,num_4,32,num_2,1.35016724968,,,2017_Aug_21_1217,59.9935538077,FEMA4ImagesEEG,001,201141,
AFNE01.JPG,AFNE01.JPG,AFNE01.JPG,AFNE01.JPG,AFNE01.JPG,AFNE01.JPG,,,,,,,,,,,,,,,,,,,,,3,2,32,4,,,AMNE14.jpg,AMSA03.jpg,AMSA12.jpg,AMNE17.jpg,AMSA03.jpg,MS,2,num_6,32,num_2,0.900339118089,,,2017_Aug_21_1217,59.9935538077,FEMA4ImagesEEG,001,201141,
AFNE01.JPG,AFNE01.JPG,AFNE01.JPG,AFNE01.JPG,AFNE01.JPG,AFNE01.JPG,,,,,,,,,,,,,,,,,,,,,3,3,33,2,,,AMNE07.jpg,AMSA06.jpg,AMNE16.jpg,AMSA16.jpg,AMSA16.jpg,MS,2,num_4,16,num_4,0.616864557727,,,2017_Aug_21_1217,59.9935538077,FEMA4ImagesEEG,001,201141,
AFNE01.JPG,AFNE01.JPG,AFNE01.JPG,AFNE01.JPG,AFNE01.JPG,AFNE01.JPG,,,,,,,,,,,,,,,,,,,,,3,4,34,9,,,AMSA18.jpg,AMNE03.jpg,AMNE01.jpg,AMSA04.jpg,AMNE03.jpg,MN,1,num_6,32,num_2,1.48337558017,,,2017_Aug_21_1217,59.9935538077,FEMA4ImagesEEG,001,201141,
AFNE01.JPG,AFNE01.JPG,AFNE01.JPG,AFNE01.JPG,AFNE01.JPG,AFNE01.JPG,,,,,,,,,,,,,,,,,,,,,3,5,35,5,,,AMSA05.jpg,AMNE06.jpg,AMSA18.jpg,AMNE10.jpg,AMSA05.jpg,MS,2,num_8,32,num_4,0.650119812344,,,2017_Aug_21_1217,59.9935538077,FEMA4ImagesEEG,001,201141,
AFNE01.JPG,AFNE01.JPG,AFNE01.JPG,AFNE01.JPG,AFNE01.JPG,AFNE01.JPG,,,,,,,,,,,,,,,,,,,,,3,6,36,0,,,AMNE19.jpg,AMNE04.jpg,AMSA12.jpg,AMSA15.jpg,AMNE04.jpg,MN,1,num_6,16,num_6,1.00014016323,,,2017_Aug_21_1217,59.9935538077,FEMA4ImagesEEG,001,201141,
AFNE01.JPG,AFNE01.JPG,AFNE01.JPG,AFNE01.JPG,AFNE01.JPG,AFNE01.JPG,,,,,,,,,,,,,,,,,,,,,3,7,37,8,,,AMNE09.jpg,AMNE03.jpg,AMSA20.jpg,AMSA15.jpg,AMNE09.jpg,MN,1,num_8,16,num_8,0.716898780665,,,2017_Aug_21_1217,59.9935538077,FEMA4ImagesEEG,001,201141,
AFNE01.JPG,AFNE01.JPG,AFNE01.JPG,AFNE01.JPG,AFNE01.JPG,AFNE01.JPG,,,,,,,,,,,,,,,,,,,,,3,8,38,1,,,AMSA10.jpg,AMSA03.jpg,AMNE11.jpg,AMNE02.jpg,AMSA03.jpg,MS,2,num_6,16,num_6,0.583542909939,,,2017_Aug_21_1217,59.9935538077,FEMA4ImagesEEG,001,201141,
