IPosition2,IPosition3,IPosition1,IPosition6,IPosition4,IPosition5,TrialsM1.thisRepN,TrialsM1.thisTrialN,TrialsM1.thisN,TrialsM1.thisIndex,TrialsF1.thisRepN,TrialsF1.thisTrialN,TrialsF1.thisN,TrialsF1.thisIndex,TrialsM2.thisRepN,TrialsM2.thisTrialN,TrialsM2.thisN,TrialsM2.thisIndex,TrialsF2.thisRepN,TrialsF2.thisTrialN,TrialsF2.thisN,TrialsF2.thisIndex,TrialsM3.thisRepN,TrialsM3.thisTrialN,TrialsM3.thisN,TrialsM3.thisIndex,TrialsF3.thisRepN,TrialsF3.thisTrialN,TrialsF3.thisN,TrialsF3.thisIndex,InstrKey_resp.keys,InstrKey_resp.rt,Image0 _Position,Image1 _Position,Image2 _Position,Image3 _Position,Center_image,condition,code,correct_answer,accuracy,Key_Resp.keys,Key_Resp.rt,BreakKey_resp.keys,BreakKey_resp.rt,date,frameRate,expName,session,participant,
,,,,,,,,,,,,,,,,,,,,,,,,,,,,,,space,23.5320809074,,,,,,,,,,,,,,2017_Aug_09_1130,60.0053696483,MAFE4ImagesEEG,001,201124,
AMSA21.JPG,AMNE22.JPG,AMNE21.JPG,AMSA23.JPG,AMSA22.JPG,AMNE23.JPG,0,0,0,1,,,,,,,,,,,,,,,,,,,,,,,AMSA16.jpg,AMSA01.jpg,AMNE06.jpg,AMNE15.jpg,AMSA01.jpg,MS,2,num_6,32,num_4,1.3834393539,,,2017_Aug_09_1130,60.0053696483,MAFE4ImagesEEG,001,201124,
AFSA25.JPG,AFNE24.JPG,AFSA24.JPG,AFNE21.JPG,AFSA21.JPG,AFNE25.JPG,0,1,1,2,,,,,,,,,,,,,,,,,,,,,,,AMNE11.jpg,AMSA03.jpg,AMSA05.jpg,AMNE17.jpg,AMNE17.jpg,MN,1,num_4,16,num_4,0.733457267517,,,2017_Aug_09_1130,60.0053696483,MAFE4ImagesEEG,001,201124,
AFNE22.JPG,AFSA24.JPG,AFSA22.JPG,AFNE25.JPG,AFNE24.JPG,AFSA25.JPG,0,2,2,6,,,,,,,,,,,,,,,,,,,,,,,AMSA19.jpg,AMNE03.jpg,AMNE10.jpg,AMSA07.jpg,AMNE10.jpg,MN,1,num_2,32,num_6,0.750161091797,,,2017_Aug_09_1130,60.0053696483,MAFE4ImagesEEG,001,201124,
AFNE23.JPG,AFNE24.JPG,AFNE22.JPG,AFSA24.JPG,AFSA22.JPG,AFSA23.JPG,0,3,3,8,,,,,,,,,,,,,,,,,,,,,,,AMNE14.jpg,AMSA15.jpg,AMNE05.jpg,AMSA10.jpg,AMSA10.jpg,MS,2,num_4,32,num_6,0.566800062545,,,2017_Aug_09_1130,60.0053696483,MAFE4ImagesEEG,001,201124,
AFSA21.JPG,AFNE22.JPG,AFNE21.JPG,AFSA23.JPG,AFSA22.JPG,AFNE23.JPG,0,4,4,0,,,,,,,,,,,,,,,,,,,,,,,AMNE06.jpg,AMSA18.jpg,AMNE16.jpg,AMSA13.jpg,AMSA18.jpg,MS,2,num_6,16,num_6,1.00013695611,,,2017_Aug_09_1130,60.0053696483,MAFE4ImagesEEG,001,201124,
AFSA21.JPG,AFNE23.JPG,AFNE21.JPG,AFSA25.JPG,AFNE25.JPG,AFSA23.JPG,0,5,5,4,,,,,,,,,,,,,,,,,,,,,,,AMSA11.jpg,AMSA08.jpg,AMNE01.jpg,AMNE19.jpg,AMNE19.jpg,MN,1,num_4,16,num_4,0.800171852577,,,2017_Aug_09_1130,60.0053696483,MAFE4ImagesEEG,001,201124,
AMSA25.JPG,AMNE24.JPG,AMSA24.JPG,AMNE26.JPG,AMSA21.JPG,AMNE25.JPG,0,6,6,3,,,,,,,,,,,,,,,,,,,,,,,AMNE07.jpg,AMSA20.jpg,AMSA15.jpg,AMNE09.jpg,AMSA20.jpg,MS,2,num_6,16,num_6,1.26673838403,,,2017_Aug_09_1130,60.0053696483,MAFE4ImagesEEG,001,201124,
AMSA21.JPG,AMNE23.JPG,AMNE21.JPG,AMSA25.JPG,AMNE25.JPG,AMSA23.JPG,0,7,7,5,,,,,,,,,,,,,,,,,,,,,,,AMSA15.jpg,AMNE06.jpg,AMNE09.jpg,AMSA17.jpg,AMSA17.jpg,MS,2,num_4,16,num_4,3.85016561416,,,2017_Aug_09_1130,60.0053696483,MAFE4ImagesEEG,001,201124,
AMNE22.JPG,AMSA24.JPG,AMSA22.JPG,AMNE25.JPG,AMNE24.JPG,AMSA25.JPG,0,8,8,7,,,,,,,,,,,,,,,,,,,,,,,AMSA02.jpg,AMNE10.jpg,AMNE18.jpg,AMSA09.jpg,AMSA09.jpg,MS,2,num_4,32,num_2,1.76667118911,,,2017_Aug_09_1130,60.0053696483,MAFE4ImagesEEG,001,201124,
AMNE23.JPG,AMNE24.JPG,AMNE22.JPG,AMSA24.JPG,AMSA22.JPG,AMSA23.JPG,0,9,9,9,,,,,,,,,,,,,,,,,,,,,,,AMNE02.jpg,AMNE16.jpg,AMSA04.jpg,AMSA01.jpg,AMNE16.jpg,MN,1,num_6,32,num_4,2.15000245371,,,2017_Aug_09_1130,60.0053696483,MAFE4ImagesEEG,001,201124,
AMSA25.JPG,AMNE24.JPG,AMSA24.JPG,AMNE26.JPG,AMSA21.JPG,AMNE25.JPG,,,,,0,0,0,3,,,,,,,,,,,,,,,,,,,AFNE10.jpg,AFSA11.jpg,AFNE11.jpg,AFSA16.jpg,AFNE11.jpg,FN,3,num_2,32,num_6,1.3667871689,,,2017_Aug_09_1130,60.0053696483,MAFE4ImagesEEG,001,201124,
AFSA21.JPG,AFNE23.JPG,AFNE21.JPG,AFSA25.JPG,AFNE25.JPG,AFSA23.JPG,,,,,0,1,1,4,,,,,,,,,,,,,,,,,,,AFSA09.jpg,AFNE15.jpg,AFSA13.jpg,AFNE12.jpg,AFNE15.jpg,FN,3,num_6,48,None,,,,2017_Aug_09_1130,60.0053696483,MAFE4ImagesEEG,001,201124,
AMNE22.JPG,AMSA24.JPG,AMSA22.JPG,AMNE25.JPG,AMNE24.JPG,AMSA25.JPG,,,,,0,2,2,7,,,,,,,,,,,,,,,,,,,AFNE19.jpg,AFSA02.jpg,AFSA09.jpg,AFNE13.jpg,AFSA02.jpg,FS,4,num_6,48,None,,,,2017_Aug_09_1130,60.0053696483,MAFE4ImagesEEG,001,201124,
AFSA21.JPG,AFNE22.JPG,AFNE21.JPG,AFSA23.JPG,AFSA22.JPG,AFNE23.JPG,,,,,0,3,3,0,,,,,,,,,,,,,,,,,,,AFNE06.jpg,AFSA01.jpg,AFSA13.jpg,AFNE19.jpg,AFNE19.jpg,FN,3,num_4,48,None,,,,2017_Aug_09_1130,60.0053696483,MAFE4ImagesEEG,001,201124,
AMSA21.JPG,AMNE22.JPG,AMNE21.JPG,AMSA23.JPG,AMSA22.JPG,AMNE23.JPG,,,,,0,4,4,1,,,,,,,,,,,,,,,,,,,AFSA10.jpg,AFNE10.jpg,AFNE07.jpg,AFSA15.jpg,AFNE10.jpg,FN,3,num_6,16,num_6,3.15029432718,,,2017_Aug_09_1130,60.0053696483,MAFE4ImagesEEG,001,201124,
AMSA21.JPG,AMNE23.JPG,AMNE21.JPG,AMSA25.JPG,AMNE25.JPG,AMSA23.JPG,,,,,0,5,5,5,,,,,,,,,,,,,,,,,,,AFNE14.jpg,AFSA04.jpg,AFNE13.jpg,AFSA09.jpg,AFNE14.jpg,FN,3,num_8,16,num_8,1.16674188036,,,2017_Aug_09_1130,60.0053696483,MAFE4ImagesEEG,001,201124,
AFSA25.JPG,AFNE24.JPG,AFSA24.JPG,AFNE21.JPG,AFSA21.JPG,AFNE25.JPG,,,,,0,6,6,2,,,,,,,,,,,,,,,,,,,AFSA12.jpg,AFNE15.jpg,AFNE07.jpg,AFSA19.jpg,AFNE07.jpg,FN,3,num_2,16,num_2,1.45018120226,,,2017_Aug_09_1130,60.0053696483,MAFE4ImagesEEG,001,201124,
AFNE23.JPG,AFNE24.JPG,AFNE22.JPG,AFSA24.JPG,AFSA22.JPG,AFSA23.JPG,,,,,0,7,7,8,,,,,,,,,,,,,,,,,,,AFSA17.jpg,AFSA15.jpg,AFNE17.jpg,AFNE06.jpg,AFSA17.jpg,FS,4,num_8,16,num_8,1.56672757515,,,2017_Aug_09_1130,60.0053696483,MAFE4ImagesEEG,001,201124,
AMNE23.JPG,AMNE24.JPG,AMNE22.JPG,AMSA24.JPG,AMSA22.JPG,AMSA23.JPG,,,,,0,8,8,9,,,,,,,,,,,,,,,,,,,AFNE11.jpg,AFNE13.jpg,AFSA12.jpg,AFSA09.jpg,AFSA12.jpg,FS,4,num_2,32,num_6,1.866679881,,,2017_Aug_09_1130,60.0053696483,MAFE4ImagesEEG,001,201124,
AFNE22.JPG,AFSA24.JPG,AFSA22.JPG,AFNE25.JPG,AFNE24.JPG,AFSA25.JPG,,,,,0,9,9,6,,,,,,,,,,,,,,,,,,,AFSA16.jpg,AFSA20.jpg,AFNE06.jpg,AFNE16.jpg,AFNE16.jpg,FN,3,num_4,32,num_2,3.83326132735,,,2017_Aug_09_1130,60.0053696483,MAFE4ImagesEEG,001,201124,
AMSA25.JPG,AMNE24.JPG,AMSA24.JPG,AMNE26.JPG,AMSA21.JPG,AMNE25.JPG,,,,,,,,,0,0,0,3,,,,,,,,,,,,,,,AMNE12.jpg,AMSA10.jpg,AMNE04.jpg,AMSA16.jpg,AMSA10.jpg,MS,2,num_6,32,num_4,1.18340561213,,,2017_Aug_09_1130,60.0053696483,MAFE4ImagesEEG,001,201124,
AFSA21.JPG,AFNE22.JPG,AFNE21.JPG,AFSA23.JPG,AFSA22.JPG,AFNE23.JPG,,,,,,,,,0,1,1,0,,,,,,,,,,,,,,,AMNE17.jpg,AMNE10.jpg,AMSA05.jpg,AMSA02.jpg,AMNE17.jpg,MN,1,num_8,16,num_8,1.26645452925,,,2017_Aug_09_1130,60.0053696483,MAFE4ImagesEEG,001,201124,
AFSA25.JPG,AFNE24.JPG,AFSA24.JPG,AFNE21.JPG,AFSA21.JPG,AFNE25.JPG,,,,,,,,,0,2,2,2,,,,,,,,,,,,,,,AMSA06.jpg,AMSA02.jpg,AMNE19.jpg,AMNE01.jpg,AMSA02.jpg,MS,2,num_6,32,num_4,2.78332209121,,,2017_Aug_09_1130,60.0053696483,MAFE4ImagesEEG,001,201124,
AMNE23.JPG,AMNE24.JPG,AMNE22.JPG,AMSA24.JPG,AMSA22.JPG,AMSA23.JPG,,,,,,,,,0,3,3,9,,,,,,,,,,,,,,,AMSA09.jpg,AMNE04.jpg,AMSA02.jpg,AMNE12.jpg,AMSA02.jpg,MS,2,num_2,16,num_2,2.06674601766,,,2017_Aug_09_1130,60.0053696483,MAFE4ImagesEEG,001,201124,
AMSA21.JPG,AMNE23.JPG,AMNE21.JPG,AMSA25.JPG,AMNE25.JPG,AMSA23.JPG,,,,,,,,,0,4,4,5,,,,,,,,,,,,,,,AMSA02.jpg,AMNE05.jpg,AMSA07.jpg,AMNE12.jpg,AMNE05.jpg,MN,1,num_6,48,None,,,,2017_Aug_09_1130,60.0053696483,MAFE4ImagesEEG,001,201124,
AFNE22.JPG,AFSA24.JPG,AFSA22.JPG,AFNE25.JPG,AFNE24.JPG,AFSA25.JPG,,,,,,,,,0,5,5,6,,,,,,,,,,,,,,,AMSA01.jpg,AMSA16.jpg,AMNE03.jpg,AMNE14.jpg,AMNE14.jpg,MN,1,num_4,16,num_4,1.78334358102,,,2017_Aug_09_1130,60.0053696483,MAFE4ImagesEEG,001,201124,
AFSA21.JPG,AFNE23.JPG,AFNE21.JPG,AFSA25.JPG,AFNE25.JPG,AFSA23.JPG,,,,,,,,,0,6,6,4,,,,,,,,,,,,,,,AMNE06.jpg,AMSA06.jpg,AMSA13.jpg,AMNE18.jpg,AMNE18.jpg,MN,1,num_4,48,None,,,,2017_Aug_09_1130,60.0053696483,MAFE4ImagesEEG,001,201124,
AMNE22.JPG,AMSA24.JPG,AMSA22.JPG,AMNE25.JPG,AMNE24.JPG,AMSA25.JPG,,,,,,,,,0,7,7,7,,,,,,,,,,,,,,,AMNE01.jpg,AMSA18.jpg,AMNE11.jpg,AMSA14.jpg,AMNE11.jpg,MN,1,num_2,16,num_2,2.00013439008,,,2017_Aug_09_1130,60.0053696483,MAFE4ImagesEEG,001,201124,
AMSA21.JPG,AMNE22.JPG,AMNE21.JPG,AMSA23.JPG,AMSA22.JPG,AMNE23.JPG,,,,,,,,,0,8,8,1,,,,,,,,,,,,,,,AMNE09.jpg,AMSA14.jpg,AMSA13.jpg,AMNE13.jpg,AMNE13.jpg,MN,1,num_4,32,num_8,2.90000189235,,,2017_Aug_09_1130,60.0053696483,MAFE4ImagesEEG,001,201124,
AFNE23.JPG,AFNE24.JPG,AFNE22.JPG,AFSA24.JPG,AFSA22.JPG,AFSA23.JPG,,,,,,,,,0,9,9,8,,,,,,,,,,,,,,,AMNE06.jpg,AMSA09.jpg,AMNE17.jpg,AMSA06.jpg,AMSA06.jpg,MS,2,num_4,16,num_4,1.63344729226,,,2017_Aug_09_1130,60.0053696483,MAFE4ImagesEEG,001,201124,
AMSA21.JPG,AMNE23.JPG,AMNE21.JPG,AMSA25.JPG,AMNE25.JPG,AMSA23.JPG,,,,,,,,,,,,,0,0,0,5,,,,,,,,,,,AFNE03.jpg,AFSA04.jpg,AFNE10.jpg,AFSA16.jpg,AFNE03.jpg,FN,3,num_8,32,num_6,1.30009246944,,,2017_Aug_09_1130,60.0053696483,MAFE4ImagesEEG,001,201124,
AFNE22.JPG,AFSA24.JPG,AFSA22.JPG,AFNE25.JPG,AFNE24.JPG,AFSA25.JPG,,,,,,,,,,,,,0,1,1,6,,,,,,,,,,,AFNE09.jpg,AFSA19.jpg,AFNE03.jpg,AFSA15.jpg,AFNE03.jpg,FN,3,num_2,16,num_2,1.83371132566,,,2017_Aug_09_1130,60.0053696483,MAFE4ImagesEEG,001,201124,
AFNE23.JPG,AFNE24.JPG,AFNE22.JPG,AFSA24.JPG,AFSA22.JPG,AFSA23.JPG,,,,,,,,,,,,,0,2,2,8,,,,,,,,,,,AFNE13.jpg,AFNE18.jpg,AFSA09.jpg,AFSA18.jpg,AFNE18.jpg,FN,3,num_6,16,num_6,1.66671124962,,,2017_Aug_09_1130,60.0053696483,MAFE4ImagesEEG,001,201124,
AMSA21.JPG,AMNE22.JPG,AMNE21.JPG,AMSA23.JPG,AMSA22.JPG,AMNE23.JPG,,,,,,,,,,,,,0,3,3,1,,,,,,,,,,,AFSA03.jpg,AFNE10.jpg,AFNE15.jpg,AFSA09.jpg,AFSA03.jpg,FS,4,num_8,32,num_4,0.983449489344,,,2017_Aug_09_1130,60.0053696483,MAFE4ImagesEEG,001,201124,
AFSA21.JPG,AFNE23.JPG,AFNE21.JPG,AFSA25.JPG,AFNE25.JPG,AFSA23.JPG,,,,,,,,,,,,,0,4,4,4,,,,,,,,,,,AFNE20.jpg,AFSA06.jpg,AFSA16.jpg,AFNE12.jpg,AFNE20.jpg,FN,3,num_8,48,None,,,,2017_Aug_09_1130,60.0053696483,MAFE4ImagesEEG,001,201124,
AMNE22.JPG,AMSA24.JPG,AMSA22.JPG,AMNE25.JPG,AMNE24.JPG,AMSA25.JPG,,,,,,,,,,,,,0,5,5,7,,,,,,,,,,,AFNE12.jpg,AFNE14.jpg,AFSA18.jpg,AFSA20.jpg,AFNE14.jpg,FN,3,num_6,48,None,,,,2017_Aug_09_1130,60.0053696483,MAFE4ImagesEEG,001,201124,
AFSA21.JPG,AFNE22.JPG,AFNE21.JPG,AFSA23.JPG,AFSA22.JPG,AFNE23.JPG,,,,,,,,,,,,,0,6,6,0,,,,,,,,,,,AFSA01.jpg,AFNE03.jpg,AFSA09.jpg,AFNE20.jpg,AFNE03.jpg,FN,3,num_6,48,None,,,,2017_Aug_09_1130,60.0053696483,MAFE4ImagesEEG,001,201124,
AFSA25.JPG,AFNE24.JPG,AFSA24.JPG,AFNE21.JPG,AFSA21.JPG,AFNE25.JPG,,,,,,,,,,,,,0,7,7,2,,,,,,,,,,,AFSA01.jpg,AFNE06.jpg,AFSA18.jpg,AFNE12.jpg,AFSA01.jpg,FS,4,num_8,32,num_4,1.7167402925,,,2017_Aug_09_1130,60.0053696483,MAFE4ImagesEEG,001,201124,
AMSA25.JPG,AMNE24.JPG,AMSA24.JPG,AMNE26.JPG,AMSA21.JPG,AMNE25.JPG,,,,,,,,,,,,,0,8,8,3,,,,,,,,,,,AFSA15.jpg,AFNE12.jpg,AFSA08.jpg,AFNE15.jpg,AFNE12.jpg,FN,3,num_6,32,num_8,1.15008488391,,,2017_Aug_09_1130,60.0053696483,MAFE4ImagesEEG,001,201124,
AMNE23.JPG,AMNE24.JPG,AMNE22.JPG,AMSA24.JPG,AMSA22.JPG,AMSA23.JPG,,,,,,,,,,,,,0,9,9,9,,,,,,,,,,,AFNE09.jpg,AFNE07.jpg,AFSA02.jpg,AFSA13.jpg,AFNE09.jpg,FN,3,num_8,16,num_8,0.80019173841,,,2017_Aug_09_1130,60.0053696483,MAFE4ImagesEEG,001,201124,
AMSA21.JPG,AMNE23.JPG,AMNE21.JPG,AMSA25.JPG,AMNE25.JPG,AMSA23.JPG,,,,,,,,,,,,,,,,,0,0,0,5,,,,,,,AMSA17.jpg,AMSA09.jpg,AMNE04.jpg,AMNE06.jpg,AMSA09.jpg,MS,2,num_6,32,num_2,1.15013459837,,,2017_Aug_09_1130,60.0053696483,MAFE4ImagesEEG,001,201124,
AMSA25.JPG,AMNE24.JPG,AMSA24.JPG,AMNE26.JPG,AMSA21.JPG,AMNE25.JPG,,,,,,,,,,,,,,,,,0,1,1,3,,,,,,,AMNE12.jpg,AMNE03.jpg,AMSA06.jpg,AMSA18.jpg,AMSA18.jpg,MS,2,num_4,16,num_4,0.483435857808,,,2017_Aug_09_1130,60.0053696483,MAFE4ImagesEEG,001,201124,
AFSA21.JPG,AFNE23.JPG,AFNE21.JPG,AFSA25.JPG,AFNE25.JPG,AFSA23.JPG,,,,,,,,,,,,,,,,,0,2,2,4,,,,,,,AMSA06.jpg,AMNE02.jpg,AMSA02.jpg,AMNE17.jpg,AMNE17.jpg,MN,1,num_4,16,num_4,1.36673007696,,,2017_Aug_09_1130,60.0053696483,MAFE4ImagesEEG,001,201124,
AFNE22.JPG,AFSA24.JPG,AFSA22.JPG,AFNE25.JPG,AFNE24.JPG,AFSA25.JPG,,,,,,,,,,,,,,,,,0,3,3,6,,,,,,,AMSA05.jpg,AMSA19.jpg,AMNE07.jpg,AMNE10.jpg,AMSA05.jpg,MS,2,num_8,32,num_2,1.15011503338,,,2017_Aug_09_1130,60.0053696483,MAFE4ImagesEEG,001,201124,
AFSA21.JPG,AFNE22.JPG,AFNE21.JPG,AFSA23.JPG,AFSA22.JPG,AFNE23.JPG,,,,,,,,,,,,,,,,,0,4,4,0,,,,,,,AMNE12.jpg,AMSA12.jpg,AMSA05.jpg,AMNE18.jpg,AMNE12.jpg,MN,1,num_8,16,num_8,1.08343508816,,,2017_Aug_09_1130,60.0053696483,MAFE4ImagesEEG,001,201124,
AFSA25.JPG,AFNE24.JPG,AFSA24.JPG,AFNE21.JPG,AFSA21.JPG,AFNE25.JPG,,,,,,,,,,,,,,,,,0,5,5,2,,,,,,,AMNE16.jpg,AMNE19.jpg,AMSA05.jpg,AMSA09.jpg,AMSA09.jpg,MS,2,num_4,16,num_4,1.01682281913,,,2017_Aug_09_1130,60.0053696483,MAFE4ImagesEEG,001,201124,
AMNE23.JPG,AMNE24.JPG,AMNE22.JPG,AMSA24.JPG,AMSA22.JPG,AMSA23.JPG,,,,,,,,,,,,,,,,,0,6,6,9,,,,,,,AMSA01.jpg,AMNE04.jpg,AMSA15.jpg,AMNE16.jpg,AMNE04.jpg,MN,1,num_6,32,num_2,1.66670675902,,,2017_Aug_09_1130,60.0053696483,MAFE4ImagesEEG,001,201124,
AMNE22.JPG,AMSA24.JPG,AMSA22.JPG,AMNE25.JPG,AMNE24.JPG,AMSA25.JPG,,,,,,,,,,,,,,,,,0,7,7,7,,,,,,,AMNE18.jpg,AMNE04.jpg,AMSA09.jpg,AMSA11.jpg,AMSA09.jpg,MS,2,num_2,32,num_4,1.05008485168,,,2017_Aug_09_1130,60.0053696483,MAFE4ImagesEEG,001,201124,
AMSA21.JPG,AMNE22.JPG,AMNE21.JPG,AMSA23.JPG,AMSA22.JPG,AMNE23.JPG,,,,,,,,,,,,,,,,,0,8,8,1,,,,,,,AMNE10.jpg,AMNE17.jpg,AMSA18.jpg,AMSA13.jpg,AMNE17.jpg,MN,1,num_6,32,num_8,1.18343544099,,,2017_Aug_09_1130,60.0053696483,MAFE4ImagesEEG,001,201124,
AFNE23.JPG,AFNE24.JPG,AFNE22.JPG,AFSA24.JPG,AFSA22.JPG,AFSA23.JPG,,,,,,,,,,,,,,,,,0,9,9,8,,,,,,,AMSA03.jpg,AMSA07.jpg,AMNE02.jpg,AMNE09.jpg,AMNE09.jpg,MN,1,num_4,32,num_2,4.53323749616,,,2017_Aug_09_1130,60.0053696483,MAFE4ImagesEEG,001,201124,
AMNE23.JPG,AMNE24.JPG,AMNE22.JPG,AMSA24.JPG,AMSA22.JPG,AMSA23.JPG,,,,,,,,,,,,,,,,,,,,,0,0,0,9,,,AFNE09.jpg,AFSA11.jpg,AFSA15.jpg,AFNE05.jpg,AFNE09.jpg,FN,3,num_8,32,num_2,1.33325571427,,,2017_Aug_09_1130,60.0053696483,MAFE4ImagesEEG,001,201124,
AMSA21.JPG,AMNE22.JPG,AMNE21.JPG,AMSA23.JPG,AMSA22.JPG,AMNE23.JPG,,,,,,,,,,,,,,,,,,,,,0,1,1,1,,,AFNE12.jpg,AFNE07.jpg,AFSA05.jpg,AFSA03.jpg,AFSA03.jpg,FS,4,num_4,16,num_4,1.93342557829,,,2017_Aug_09_1130,60.0053696483,MAFE4ImagesEEG,001,201124,
AFNE23.JPG,AFNE24.JPG,AFNE22.JPG,AFSA24.JPG,AFSA22.JPG,AFSA23.JPG,,,,,,,,,,,,,,,,,,,,,0,2,2,8,,,AFSA10.jpg,AFNE10.jpg,AFNE07.jpg,AFSA06.jpg,AFNE10.jpg,FN,3,num_6,32,num_8,1.08347325632,,,2017_Aug_09_1130,60.0053696483,MAFE4ImagesEEG,001,201124,
AFSA21.JPG,AFNE22.JPG,AFNE21.JPG,AFSA23.JPG,AFSA22.JPG,AFNE23.JPG,,,,,,,,,,,,,,,,,,,,,0,3,3,0,,,AFNE09.jpg,AFNE10.jpg,AFSA03.jpg,AFSA18.jpg,AFSA03.jpg,FS,4,num_2,32,num_4,1.40014253696,,,2017_Aug_09_1130,60.0053696483,MAFE4ImagesEEG,001,201124,
AFSA25.JPG,AFNE24.JPG,AFSA24.JPG,AFNE21.JPG,AFSA21.JPG,AFNE25.JPG,,,,,,,,,,,,,,,,,,,,,0,4,4,2,,,AFNE08.jpg,AFSA05.jpg,AFNE17.jpg,AFSA11.jpg,AFSA05.jpg,FS,4,num_6,16,num_6,1.08343893709,,,2017_Aug_09_1130,60.0053696483,MAFE4ImagesEEG,001,201124,
AFSA21.JPG,AFNE23.JPG,AFNE21.JPG,AFSA25.JPG,AFNE25.JPG,AFSA23.JPG,,,,,,,,,,,,,,,,,,,,,0,5,5,4,,,AFNE07.jpg,AFSA14.jpg,AFNE11.jpg,AFSA10.jpg,AFSA14.jpg,FS,4,num_6,16,num_6,1.15009867586,,,2017_Aug_09_1130,60.0053696483,MAFE4ImagesEEG,001,201124,
AFNE22.JPG,AFSA24.JPG,AFSA22.JPG,AFNE25.JPG,AFNE24.JPG,AFSA25.JPG,,,,,,,,,,,,,,,,,,,,,0,6,6,6,,,AFSA18.jpg,AFNE04.jpg,AFSA09.jpg,AFNE03.jpg,AFSA09.jpg,FS,4,num_2,16,num_2,2.79985271604,,,2017_Aug_09_1130,60.0053696483,MAFE4ImagesEEG,001,201124,
AMSA21.JPG,AMNE23.JPG,AMNE21.JPG,AMSA25.JPG,AMNE25.JPG,AMSA23.JPG,,,,,,,,,,,,,,,,,,,,,0,7,7,5,,,AFSA06.jpg,AFSA07.jpg,AFNE04.jpg,AFNE18.jpg,AFNE18.jpg,FN,3,num_4,32,num_6,4.36652704864,,,2017_Aug_09_1130,60.0053696483,MAFE4ImagesEEG,001,201124,
AMSA25.JPG,AMNE24.JPG,AMSA24.JPG,AMNE26.JPG,AMSA21.JPG,AMNE25.JPG,,,,,,,,,,,,,,,,,,,,,0,8,8,3,,,AFNE19.jpg,AFSA17.jpg,AFNE08.jpg,AFSA12.jpg,AFNE08.jpg,FN,3,num_2,16,num_2,1.86669174861,,,2017_Aug_09_1130,60.0053696483,MAFE4ImagesEEG,001,201124,
AMNE22.JPG,AMSA24.JPG,AMSA22.JPG,AMNE25.JPG,AMNE24.JPG,AMSA25.JPG,,,,,,,,,,,,,,,,,,,,,0,9,9,7,,,AFNE08.jpg,AFNE20.jpg,AFSA12.jpg,AFSA18.jpg,AFSA12.jpg,FS,4,num_2,16,num_2,1.21690948284,,,2017_Aug_09_1130,60.0053696483,MAFE4ImagesEEG,001,201124,
,,,,,,,,,,,,,,,,,,,,,,,,,,,,,,,,,,,,,,,,,,,space,26.7647938973,2017_Aug_09_1130,60.0053696483,MAFE4ImagesEEG,001,201124,
AFNE01.JPG,AFNE01.JPG,AFNE01.JPG,AFNE01.JPG,AFNE01.JPG,AFNE01.JPG,0,0,0,0,,,,,,,,,,,,,,,,,,,,,,,AMSA11.jpg,AMNE11.jpg,AMSA15.jpg,AMNE16.jpg,AMNE11.jpg,MN,1,num_6,16,num_6,1.50008579786,,,2017_Aug_09_1130,60.0053696483,MAFE4ImagesEEG,001,201124,
AFNE01.JPG,AFNE01.JPG,AFNE01.JPG,AFNE01.JPG,AFNE01.JPG,AFNE01.JPG,0,1,1,8,,,,,,,,,,,,,,,,,,,,,,,AMSA04.jpg,AMNE07.jpg,AMSA01.jpg,AMNE11.jpg,AMSA01.jpg,MS,2,num_2,32,num_4,0.90012698085,,,2017_Aug_09_1130,60.0053696483,MAFE4ImagesEEG,001,201124,
AFNE01.JPG,AFNE01.JPG,AFNE01.JPG,AFNE01.JPG,AFNE01.JPG,AFNE01.JPG,0,2,2,6,,,,,,,,,,,,,,,,,,,,,,,AMNE10.jpg,AMSA15.jpg,AMNE15.jpg,AMSA08.jpg,AMSA08.jpg,MS,2,num_4,32,num_2,1.01676187851,,,2017_Aug_09_1130,60.0053696483,MAFE4ImagesEEG,001,201124,
AFNE01.JPG,AFNE01.JPG,AFNE01.JPG,AFNE01.JPG,AFNE01.JPG,AFNE01.JPG,0,3,3,1,,,,,,,,,,,,,,,,,,,,,,,AMNE20.jpg,AMSA07.jpg,AMNE18.jpg,AMSA20.jpg,AMSA20.jpg,MS,2,num_4,32,num_8,1.466762183,,,2017_Aug_09_1130,60.0053696483,MAFE4ImagesEEG,001,201124,
AFNE01.JPG,AFNE01.JPG,AFNE01.JPG,AFNE01.JPG,AFNE01.JPG,AFNE01.JPG,0,4,4,3,,,,,,,,,,,,,,,,,,,,,,,AMSA09.jpg,AMNE13.jpg,AMSA18.jpg,AMNE20.jpg,AMSA09.jpg,MS,2,num_8,32,num_2,0.983457187191,,,2017_Aug_09_1130,60.0053696483,MAFE4ImagesEEG,001,201124,
AFNE01.JPG,AFNE01.JPG,AFNE01.JPG,AFNE01.JPG,AFNE01.JPG,AFNE01.JPG,0,5,5,2,,,,,,,,,,,,,,,,,,,,,,,AMNE01.jpg,AMSA15.jpg,AMSA05.jpg,AMNE10.jpg,AMSA05.jpg,MS,2,num_2,32,num_4,1.36671564379,,,2017_Aug_09_1130,60.0053696483,MAFE4ImagesEEG,001,201124,
AFNE01.JPG,AFNE01.JPG,AFNE01.JPG,AFNE01.JPG,AFNE01.JPG,AFNE01.JPG,0,6,6,5,,,,,,,,,,,,,,,,,,,,,,,AMNE16.jpg,AMSA14.jpg,AMNE18.jpg,AMSA05.jpg,AMSA14.jpg,MS,2,num_6,16,num_6,1.11681098351,,,2017_Aug_09_1130,60.0053696483,MAFE4ImagesEEG,001,201124,
AFNE01.JPG,AFNE01.JPG,AFNE01.JPG,AFNE01.JPG,AFNE01.JPG,AFNE01.JPG,0,7,7,4,,,,,,,,,,,,,,,,,,,,,,,AMNE18.jpg,AMSA05.jpg,AMNE13.jpg,AMSA03.jpg,AMSA03.jpg,MS,2,num_4,16,num_4,0.766790183727,,,2017_Aug_09_1130,60.0053696483,MAFE4ImagesEEG,001,201124,
AFNE01.JPG,AFNE01.JPG,AFNE01.JPG,AFNE01.JPG,AFNE01.JPG,AFNE01.JPG,0,8,8,7,,,,,,,,,,,,,,,,,,,,,,,AMNE07.jpg,AMSA11.jpg,AMNE14.jpg,AMSA08.jpg,AMSA08.jpg,MS,2,num_4,32,num_8,1.00011354196,,,2017_Aug_09_1130,60.0053696483,MAFE4ImagesEEG,001,201124,
AFNE01.JPG,AFNE01.JPG,AFNE01.JPG,AFNE01.JPG,AFNE01.JPG,AFNE01.JPG,0,9,9,9,,,,,,,,,,,,,,,,,,,,,,,AMSA01.jpg,AMSA16.jpg,AMNE01.jpg,AMNE09.jpg,AMSA16.jpg,MS,2,num_6,32,num_4,0.933433917351,,,2017_Aug_09_1130,60.0053696483,MAFE4ImagesEEG,001,201124,
AFNE01.JPG,AFNE01.JPG,AFNE01.JPG,AFNE01.JPG,AFNE01.JPG,AFNE01.JPG,1,0,10,0,,,,,,,,,,,,,,,,,,,,,,,AMNE13.jpg,AMSA17.jpg,AMSA11.jpg,AMNE05.jpg,AMSA11.jpg,MS,2,num_2,16,num_2,1.30014378787,,,2017_Aug_09_1130,60.0053696483,MAFE4ImagesEEG,001,201124,
AFNE01.JPG,AFNE01.JPG,AFNE01.JPG,AFNE01.JPG,AFNE01.JPG,AFNE01.JPG,1,1,11,3,,,,,,,,,,,,,,,,,,,,,,,AMSA12.jpg,AMNE15.jpg,AMSA06.jpg,AMNE09.jpg,AMSA12.jpg,MS,2,num_8,32,num_2,4.03292653873,,,2017_Aug_09_1130,60.0053696483,MAFE4ImagesEEG,001,201124,
AFNE01.JPG,AFNE01.JPG,AFNE01.JPG,AFNE01.JPG,AFNE01.JPG,AFNE01.JPG,1,2,12,8,,,,,,,,,,,,,,,,,,,,,,,AMNE16.jpg,AMNE19.jpg,AMSA08.jpg,AMSA19.jpg,AMNE19.jpg,MN,1,num_6,32,num_2,1.81672364613,,,2017_Aug_09_1130,60.0053696483,MAFE4ImagesEEG,001,201124,
AFNE01.JPG,AFNE01.JPG,AFNE01.JPG,AFNE01.JPG,AFNE01.JPG,AFNE01.JPG,1,3,13,5,,,,,,,,,,,,,,,,,,,,,,,AMNE18.jpg,AMSA17.jpg,AMSA12.jpg,AMNE12.jpg,AMSA17.jpg,MS,2,num_6,16,num_6,1.45006413199,,,2017_Aug_09_1130,60.0053696483,MAFE4ImagesEEG,001,201124,
AFNE01.JPG,AFNE01.JPG,AFNE01.JPG,AFNE01.JPG,AFNE01.JPG,AFNE01.JPG,1,4,14,7,,,,,,,,,,,,,,,,,,,,,,,AMNE02.jpg,AMSA19.jpg,AMSA17.jpg,AMNE20.jpg,AMSA19.jpg,MS,2,num_6,16,num_6,1.56672212249,,,2017_Aug_09_1130,60.0053696483,MAFE4ImagesEEG,001,201124,
AFNE01.JPG,AFNE01.JPG,AFNE01.JPG,AFNE01.JPG,AFNE01.JPG,AFNE01.JPG,1,5,15,1,,,,,,,,,,,,,,,,,,,,,,,AMSA18.jpg,AMNE15.jpg,AMNE05.jpg,AMSA15.jpg,AMNE05.jpg,MN,1,num_2,16,num_2,0.93341852189,,,2017_Aug_09_1130,60.0053696483,MAFE4ImagesEEG,001,201124,
AFNE01.JPG,AFNE01.JPG,AFNE01.JPG,AFNE01.JPG,AFNE01.JPG,AFNE01.JPG,1,6,16,4,,,,,,,,,,,,,,,,,,,,,,,AMSA10.jpg,AMSA17.jpg,AMNE05.jpg,AMNE15.jpg,AMSA10.jpg,MS,2,num_8,16,num_8,1.08348833094,,,2017_Aug_09_1130,60.0053696483,MAFE4ImagesEEG,001,201124,
AFNE01.JPG,AFNE01.JPG,AFNE01.JPG,AFNE01.JPG,AFNE01.JPG,AFNE01.JPG,1,7,17,2,,,,,,,,,,,,,,,,,,,,,,,AMNE09.jpg,AMSA14.jpg,AMNE07.jpg,AMSA19.jpg,AMNE09.jpg,MN,1,num_8,32,num_2,2.10005038837,,,2017_Aug_09_1130,60.0053696483,MAFE4ImagesEEG,001,201124,
AFNE01.JPG,AFNE01.JPG,AFNE01.JPG,AFNE01.JPG,AFNE01.JPG,AFNE01.JPG,1,8,18,9,,,,,,,,,,,,,,,,,,,,,,,AMNE13.jpg,AMSA06.jpg,AMNE15.jpg,AMSA14.jpg,AMNE13.jpg,MN,1,num_8,48,None,,,,2017_Aug_09_1130,60.0053696483,MAFE4ImagesEEG,001,201124,
AFNE01.JPG,AFNE01.JPG,AFNE01.JPG,AFNE01.JPG,AFNE01.JPG,AFNE01.JPG,1,9,19,6,,,,,,,,,,,,,,,,,,,,,,,AMSA04.jpg,AMSA12.jpg,AMNE15.jpg,AMNE10.jpg,AMNE10.jpg,MN,1,num_4,48,None,,,,2017_Aug_09_1130,60.0053696483,MAFE4ImagesEEG,001,201124,
AFNE01.JPG,AFNE01.JPG,AFNE01.JPG,AFNE01.JPG,AFNE01.JPG,AFNE01.JPG,2,0,20,8,,,,,,,,,,,,,,,,,,,,,,,AMNE15.jpg,AMNE16.jpg,AMSA02.jpg,AMSA08.jpg,AMSA02.jpg,MS,2,num_2,16,num_2,2.60005696351,,,2017_Aug_09_1130,60.0053696483,MAFE4ImagesEEG,001,201124,
AFNE01.JPG,AFNE01.JPG,AFNE01.JPG,AFNE01.JPG,AFNE01.JPG,AFNE01.JPG,2,1,21,7,,,,,,,,,,,,,,,,,,,,,,,AMNE07.jpg,AMSA03.jpg,AMSA20.jpg,AMNE18.jpg,AMSA03.jpg,MS,2,num_6,32,num_2,1.7167146334,,,2017_Aug_09_1130,60.0053696483,MAFE4ImagesEEG,001,201124,
AFNE01.JPG,AFNE01.JPG,AFNE01.JPG,AFNE01.JPG,AFNE01.JPG,AFNE01.JPG,2,2,22,0,,,,,,,,,,,,,,,,,,,,,,,AMSA03.jpg,AMNE07.jpg,AMNE11.jpg,AMSA11.jpg,AMSA03.jpg,MS,2,num_8,48,None,,,,2017_Aug_09_1130,60.0053696483,MAFE4ImagesEEG,001,201124,
AFNE01.JPG,AFNE01.JPG,AFNE01.JPG,AFNE01.JPG,AFNE01.JPG,AFNE01.JPG,2,3,23,2,,,,,,,,,,,,,,,,,,,,,,,AMSA13.jpg,AMNE06.jpg,AMSA09.jpg,AMNE07.jpg,AMNE07.jpg,MN,1,num_4,48,None,,,,2017_Aug_09_1130,60.0053696483,MAFE4ImagesEEG,001,201124,
AFNE01.JPG,AFNE01.JPG,AFNE01.JPG,AFNE01.JPG,AFNE01.JPG,AFNE01.JPG,2,4,24,4,,,,,,,,,,,,,,,,,,,,,,,AMNE07.jpg,AMSA11.jpg,AMNE17.jpg,AMSA06.jpg,AMSA06.jpg,MS,2,num_4,48,None,,,,2017_Aug_09_1130,60.0053696483,MAFE4ImagesEEG,001,201124,
AFNE01.JPG,AFNE01.JPG,AFNE01.JPG,AFNE01.JPG,AFNE01.JPG,AFNE01.JPG,2,5,25,1,,,,,,,,,,,,,,,,,,,,,,,AMNE19.jpg,AMSA05.jpg,AMNE17.jpg,AMSA15.jpg,AMNE17.jpg,MN,1,num_2,32,num_4,3.21661664732,,,2017_Aug_09_1130,60.0053696483,MAFE4ImagesEEG,001,201124,
AFNE01.JPG,AFNE01.JPG,AFNE01.JPG,AFNE01.JPG,AFNE01.JPG,AFNE01.JPG,2,6,26,5,,,,,,,,,,,,,,,,,,,,,,,AMSA07.jpg,AMNE18.jpg,AMSA02.jpg,AMNE04.jpg,AMSA02.jpg,MS,2,num_2,16,num_2,0.600170505233,,,2017_Aug_09_1130,60.0053696483,MAFE4ImagesEEG,001,201124,
AFNE01.JPG,AFNE01.JPG,AFNE01.JPG,AFNE01.JPG,AFNE01.JPG,AFNE01.JPG,2,7,27,6,,,,,,,,,,,,,,,,,,,,,,,AMNE14.jpg,AMSA09.jpg,AMSA13.jpg,AMNE12.jpg,AMSA13.jpg,MS,2,num_2,16,num_2,0.366819884162,,,2017_Aug_09_1130,60.0053696483,MAFE4ImagesEEG,001,201124,
AFNE01.JPG,AFNE01.JPG,AFNE01.JPG,AFNE01.JPG,AFNE01.JPG,AFNE01.JPG,2,8,28,9,,,,,,,,,,,,,,,,,,,,,,,AMNE04.jpg,AMSA16.jpg,AMNE09.jpg,AMSA07.jpg,AMSA16.jpg,MS,2,num_6,32,num_2,0.55016134819,,,2017_Aug_09_1130,60.0053696483,MAFE4ImagesEEG,001,201124,
AFNE01.JPG,AFNE01.JPG,AFNE01.JPG,AFNE01.JPG,AFNE01.JPG,AFNE01.JPG,2,9,29,3,,,,,,,,,,,,,,,,,,,,,,,AMSA06.jpg,AMNE06.jpg,AMSA09.jpg,AMNE01.jpg,AMNE01.jpg,MN,1,num_4,32,num_2,0.550155574922,,,2017_Aug_09_1130,60.0053696483,MAFE4ImagesEEG,001,201124,
AFNE01.JPG,AFNE01.JPG,AFNE01.JPG,AFNE01.JPG,AFNE01.JPG,AFNE01.JPG,3,0,30,8,,,,,,,,,,,,,,,,,,,,,,,AMNE12.jpg,AMNE02.jpg,AMSA06.jpg,AMSA03.jpg,AMSA03.jpg,MS,2,num_4,32,num_8,2.10037882626,,,2017_Aug_09_1130,60.0053696483,MAFE4ImagesEEG,001,201124,
AFNE01.JPG,AFNE01.JPG,AFNE01.JPG,AFNE01.JPG,AFNE01.JPG,AFNE01.JPG,3,1,31,3,,,,,,,,,,,,,,,,,,,,,,,AMSA19.jpg,AMNE09.jpg,AMNE02.jpg,AMSA11.jpg,AMSA19.jpg,MS,2,num_8,32,num_6,1.56668908638,,,2017_Aug_09_1130,60.0053696483,MAFE4ImagesEEG,001,201124,
AFNE01.JPG,AFNE01.JPG,AFNE01.JPG,AFNE01.JPG,AFNE01.JPG,AFNE01.JPG,3,2,32,4,,,,,,,,,,,,,,,,,,,,,,,AMNE14.jpg,AMSA11.jpg,AMSA07.jpg,AMNE02.jpg,AMSA11.jpg,MS,2,num_6,16,num_6,1.28343803901,,,2017_Aug_09_1130,60.0053696483,MAFE4ImagesEEG,001,201124,
AFNE01.JPG,AFNE01.JPG,AFNE01.JPG,AFNE01.JPG,AFNE01.JPG,AFNE01.JPG,3,3,33,6,,,,,,,,,,,,,,,,,,,,,,,AMSA05.jpg,AMSA08.jpg,AMNE02.jpg,AMNE12.jpg,AMSA08.jpg,MS,2,num_6,16,num_6,0.666670515435,,,2017_Aug_09_1130,60.0053696483,MAFE4ImagesEEG,001,201124,
AFNE01.JPG,AFNE01.JPG,AFNE01.JPG,AFNE01.JPG,AFNE01.JPG,AFNE01.JPG,3,4,34,0,,,,,,,,,,,,,,,,,,,,,,,AMNE09.jpg,AMSA17.jpg,AMSA10.jpg,AMNE01.jpg,AMSA10.jpg,MS,2,num_2,48,None,,,,2017_Aug_09_1130,60.0053696483,MAFE4ImagesEEG,001,201124,
AFNE01.JPG,AFNE01.JPG,AFNE01.JPG,AFNE01.JPG,AFNE01.JPG,AFNE01.JPG,3,5,35,1,,,,,,,,,,,,,,,,,,,,,,,AMNE14.jpg,AMSA08.jpg,AMSA16.jpg,AMNE06.jpg,AMSA08.jpg,MS,2,num_6,16,num_6,0.65017870022,,,2017_Aug_09_1130,60.0053696483,MAFE4ImagesEEG,001,201124,
AFNE01.JPG,AFNE01.JPG,AFNE01.JPG,AFNE01.JPG,AFNE01.JPG,AFNE01.JPG,3,6,36,7,,,,,,,,,,,,,,,,,,,,,,,AMNE10.jpg,AMSA03.jpg,AMSA13.jpg,AMNE01.jpg,AMNE10.jpg,MN,1,num_8,32,num_2,1.08346972824,,,2017_Aug_09_1130,60.0053696483,MAFE4ImagesEEG,001,201124,
AFNE01.JPG,AFNE01.JPG,AFNE01.JPG,AFNE01.JPG,AFNE01.JPG,AFNE01.JPG,3,7,37,2,,,,,,,,,,,,,,,,,,,,,,,AMSA18.jpg,AMSA11.jpg,AMNE16.jpg,AMNE04.jpg,AMSA11.jpg,MS,2,num_6,32,num_2,0.86678861198,,,2017_Aug_09_1130,60.0053696483,MAFE4ImagesEEG,001,201124,
AFNE01.JPG,AFNE01.JPG,AFNE01.JPG,AFNE01.JPG,AFNE01.JPG,AFNE01.JPG,3,8,38,9,,,,,,,,,,,,,,,,,,,,,,,AMNE11.jpg,AMNE13.jpg,AMSA17.jpg,AMSA05.jpg,AMNE11.jpg,MN,1,num_8,32,num_4,2.21670485078,,,2017_Aug_09_1130,60.0053696483,MAFE4ImagesEEG,001,201124,
AFNE01.JPG,AFNE01.JPG,AFNE01.JPG,AFNE01.JPG,AFNE01.JPG,AFNE01.JPG,3,9,39,5,,,,,,,,,,,,,,,,,,,,,,,AMSA10.jpg,AMNE11.jpg,AMNE02.jpg,AMSA01.jpg,AMNE11.jpg,MN,1,num_6,16,num_6,1.00011803233,,,2017_Aug_09_1130,60.0053696483,MAFE4ImagesEEG,001,201124,
AFNE01.JPG,AFNE01.JPG,AFNE01.JPG,AFNE01.JPG,AFNE01.JPG,AFNE01.JPG,4,0,40,0,,,,,,,,,,,,,,,,,,,,,,,AMSA18.jpg,AMNE14.jpg,AMNE09.jpg,AMSA01.jpg,AMSA18.jpg,MS,2,num_8,48,None,,,,2017_Aug_09_1130,60.0053696483,MAFE4ImagesEEG,001,201124,
AFNE01.JPG,AFNE01.JPG,AFNE01.JPG,AFNE01.JPG,AFNE01.JPG,AFNE01.JPG,4,1,41,3,,,,,,,,,,,,,,,,,,,,,,,AMNE20.jpg,AMSA13.jpg,AMSA11.jpg,AMNE04.jpg,AMNE04.jpg,MN,1,num_4,48,None,,,,2017_Aug_09_1130,60.0053696483,MAFE4ImagesEEG,001,201124,
AFNE01.JPG,AFNE01.JPG,AFNE01.JPG,AFNE01.JPG,AFNE01.JPG,AFNE01.JPG,4,2,42,2,,,,,,,,,,,,,,,,,,,,,,,AMSA04.jpg,AMNE20.jpg,AMNE04.jpg,AMSA02.jpg,AMNE20.jpg,MN,1,num_6,48,None,,,,2017_Aug_09_1130,60.0053696483,MAFE4ImagesEEG,001,201124,
AFNE01.JPG,AFNE01.JPG,AFNE01.JPG,AFNE01.JPG,AFNE01.JPG,AFNE01.JPG,4,3,43,6,,,,,,,,,,,,,,,,,,,,,,,AMSA10.jpg,AMNE19.jpg,AMSA08.jpg,AMNE01.jpg,AMNE01.jpg,MN,1,num_4,48,None,,,,2017_Aug_09_1130,60.0053696483,MAFE4ImagesEEG,001,201124,
AFNE01.JPG,AFNE01.JPG,AFNE01.JPG,AFNE01.JPG,AFNE01.JPG,AFNE01.JPG,4,4,44,9,,,,,,,,,,,,,,,,,,,,,,,AMNE19.jpg,AMSA08.jpg,AMSA19.jpg,AMNE12.jpg,AMNE19.jpg,MN,1,num_8,16,num_8,2.26669251826,,,2017_Aug_09_1130,60.0053696483,MAFE4ImagesEEG,001,201124,
AFNE01.JPG,AFNE01.JPG,AFNE01.JPG,AFNE01.JPG,AFNE01.JPG,AFNE01.JPG,4,5,45,8,,,,,,,,,,,,,,,,,,,,,,,AMSA01.jpg,AMSA19.jpg,AMNE09.jpg,AMNE06.jpg,AMSA19.jpg,MS,2,num_6,48,None,,,,2017_Aug_09_1130,60.0053696483,MAFE4ImagesEEG,001,201124,
AFNE01.JPG,AFNE01.JPG,AFNE01.JPG,AFNE01.JPG,AFNE01.JPG,AFNE01.JPG,4,6,46,5,,,,,,,,,,,,,,,,,,,,,,,AMNE02.jpg,AMNE09.jpg,AMSA09.jpg,AMSA06.jpg,AMSA06.jpg,MS,2,num_4,16,num_4,1.10010748007,,,2017_Aug_09_1130,60.0053696483,MAFE4ImagesEEG,001,201124,
AFNE01.JPG,AFNE01.JPG,AFNE01.JPG,AFNE01.JPG,AFNE01.JPG,AFNE01.JPG,4,7,47,4,,,,,,,,,,,,,,,,,,,,,,,AMNE18.jpg,AMSA16.jpg,AMSA12.jpg,AMNE04.jpg,AMSA16.jpg,MS,2,num_6,32,num_8,1.21674205665,,,2017_Aug_09_1130,60.0053696483,MAFE4ImagesEEG,001,201124,
AFNE01.JPG,AFNE01.JPG,AFNE01.JPG,AFNE01.JPG,AFNE01.JPG,AFNE01.JPG,4,8,48,1,,,,,,,,,,,,,,,,,,,,,,,AMNE15.jpg,AMSA11.jpg,AMNE11.jpg,AMSA02.jpg,AMNE15.jpg,MN,1,num_8,32,num_4,2.98330194899,,,2017_Aug_09_1130,60.0053696483,MAFE4ImagesEEG,001,201124,
AFNE01.JPG,AFNE01.JPG,AFNE01.JPG,AFNE01.JPG,AFNE01.JPG,AFNE01.JPG,4,9,49,7,,,,,,,,,,,,,,,,,,,,,,,AMSA03.jpg,AMNE14.jpg,AMNE19.jpg,AMSA12.jpg,AMSA12.jpg,MS,2,num_4,16,num_4,1.21675360319,,,2017_Aug_09_1130,60.0053696483,MAFE4ImagesEEG,001,201124,
AFNE01.JPG,AFNE01.JPG,AFNE01.JPG,AFNE01.JPG,AFNE01.JPG,AFNE01.JPG,5,0,50,9,,,,,,,,,,,,,,,,,,,,,,,AMSA07.jpg,AMSA08.jpg,AMNE08.jpg,AMNE18.jpg,AMSA08.jpg,MS,2,num_6,16,num_6,1.60006369883,,,2017_Aug_09_1130,60.0053696483,MAFE4ImagesEEG,001,201124,
AFNE01.JPG,AFNE01.JPG,AFNE01.JPG,AFNE01.JPG,AFNE01.JPG,AFNE01.JPG,5,1,51,1,,,,,,,,,,,,,,,,,,,,,,,AMNE09.jpg,AMSA09.jpg,AMSA19.jpg,AMNE15.jpg,AMNE15.jpg,MN,1,num_4,32,num_2,2.56665637111,,,2017_Aug_09_1130,60.0053696483,MAFE4ImagesEEG,001,201124,
AFNE01.JPG,AFNE01.JPG,AFNE01.JPG,AFNE01.JPG,AFNE01.JPG,AFNE01.JPG,5,2,52,2,,,,,,,,,,,,,,,,,,,,,,,AMSA14.jpg,AMNE06.jpg,AMSA03.jpg,AMNE13.jpg,AMNE13.jpg,MN,1,num_4,48,None,,,,2017_Aug_09_1130,60.0053696483,MAFE4ImagesEEG,001,201124,
AFNE01.JPG,AFNE01.JPG,AFNE01.JPG,AFNE01.JPG,AFNE01.JPG,AFNE01.JPG,5,3,53,8,,,,,,,,,,,,,,,,,,,,,,,AMSA13.jpg,AMNE05.jpg,AMSA05.jpg,AMNE07.jpg,AMNE05.jpg,MN,1,num_6,16,num_6,3.09997533518,,,2017_Aug_09_1130,60.0053696483,MAFE4ImagesEEG,001,201124,
AFNE01.JPG,AFNE01.JPG,AFNE01.JPG,AFNE01.JPG,AFNE01.JPG,AFNE01.JPG,5,4,54,6,,,,,,,,,,,,,,,,,,,,,,,AMNE11.jpg,AMSA20.jpg,AMNE16.jpg,AMSA01.jpg,AMSA01.jpg,MS,2,num_4,32,num_8,3.3833469809,,,2017_Aug_09_1130,60.0053696483,MAFE4ImagesEEG,001,201124,
AFNE01.JPG,AFNE01.JPG,AFNE01.JPG,AFNE01.JPG,AFNE01.JPG,AFNE01.JPG,5,5,55,0,,,,,,,,,,,,,,,,,,,,,,,AMSA04.jpg,AMSA13.jpg,AMNE17.jpg,AMNE19.jpg,AMNE19.jpg,MN,1,num_4,32,num_2,1.61673961882,,,2017_Aug_09_1130,60.0053696483,MAFE4ImagesEEG,001,201124,
AFNE01.JPG,AFNE01.JPG,AFNE01.JPG,AFNE01.JPG,AFNE01.JPG,AFNE01.JPG,5,6,56,3,,,,,,,,,,,,,,,,,,,,,,,AMSA17.jpg,AMNE16.jpg,AMNE06.jpg,AMSA11.jpg,AMSA11.jpg,MS,2,num_4,32,num_6,3.49996648263,,,2017_Aug_09_1130,60.0053696483,MAFE4ImagesEEG,001,201124,
AFNE01.JPG,AFNE01.JPG,AFNE01.JPG,AFNE01.JPG,AFNE01.JPG,AFNE01.JPG,5,7,57,5,,,,,,,,,,,,,,,,,,,,,,,AMNE16.jpg,AMNE11.jpg,AMSA07.jpg,AMSA05.jpg,AMSA07.jpg,MS,2,num_2,16,num_2,2.58333293255,,,2017_Aug_09_1130,60.0053696483,MAFE4ImagesEEG,001,201124,
AFNE01.JPG,AFNE01.JPG,AFNE01.JPG,AFNE01.JPG,AFNE01.JPG,AFNE01.JPG,5,8,58,4,,,,,,,,,,,,,,,,,,,,,,,AMNE01.jpg,AMNE08.jpg,AMSA07.jpg,AMSA04.jpg,AMSA07.jpg,MS,2,num_2,32,num_4,1.03345287312,,,2017_Aug_09_1130,60.0053696483,MAFE4ImagesEEG,001,201124,
AFNE01.JPG,AFNE01.JPG,AFNE01.JPG,AFNE01.JPG,AFNE01.JPG,AFNE01.JPG,5,9,59,7,,,,,,,,,,,,,,,,,,,,,,,AMSA07.jpg,AMNE11.jpg,AMNE02.jpg,AMSA11.jpg,AMSA11.jpg,MS,2,num_4,16,num_4,0.550195988268,,,2017_Aug_09_1130,60.0053696483,MAFE4ImagesEEG,001,201124,
,,,,,,,,,,,,,,,,,,,,,,,,,,,,,,,,,,,,,,,,,,,space,15.7986762414,2017_Aug_09_1130,60.0053696483,MAFE4ImagesEEG,001,201124,
AFNE01.JPG,AFNE01.JPG,AFNE01.JPG,AFNE01.JPG,AFNE01.JPG,AFNE01.JPG,,,,,0,0,0,4,,,,,,,,,,,,,,,,,,,AFNE05.jpg,AFSA06.jpg,AFNE14.jpg,AFSA11.jpg,AFNE14.jpg,FN,3,num_2,32,num_8,2.60000756942,,,2017_Aug_09_1130,60.0053696483,MAFE4ImagesEEG,001,201124,
AFNE01.JPG,AFNE01.JPG,AFNE01.JPG,AFNE01.JPG,AFNE01.JPG,AFNE01.JPG,,,,,0,1,1,2,,,,,,,,,,,,,,,,,,,AFSA11.jpg,AFNE12.jpg,AFSA02.jpg,AFNE16.jpg,AFSA11.jpg,FS,4,num_8,16,num_8,0.483467290411,,,2017_Aug_09_1130,60.0053696483,MAFE4ImagesEEG,001,201124,
AFNE01.JPG,AFNE01.JPG,AFNE01.JPG,AFNE01.JPG,AFNE01.JPG,AFNE01.JPG,,,,,0,2,2,0,,,,,,,,,,,,,,,,,,,AFNE04.jpg,AFSA15.jpg,AFNE18.jpg,AFSA11.jpg,AFNE04.jpg,FN,3,num_8,32,num_6,1.21670934116,,,2017_Aug_09_1130,60.0053696483,MAFE4ImagesEEG,001,201124,
AFNE01.JPG,AFNE01.JPG,AFNE01.JPG,AFNE01.JPG,AFNE01.JPG,AFNE01.JPG,,,,,0,3,3,7,,,,,,,,,,,,,,,,,,,AFNE15.jpg,AFSA08.jpg,AFSA13.jpg,AFNE07.jpg,AFNE07.jpg,FN,3,num_4,16,num_4,0.700140387984,,,2017_Aug_09_1130,60.0053696483,MAFE4ImagesEEG,001,201124,
AFNE01.JPG,AFNE01.JPG,AFNE01.JPG,AFNE01.JPG,AFNE01.JPG,AFNE01.JPG,,,,,0,4,4,9,,,,,,,,,,,,,,,,,,,AFNE14.jpg,AFSA17.jpg,AFNE16.jpg,AFSA10.jpg,AFNE14.jpg,FN,3,num_8,32,num_6,0.866765518906,,,2017_Aug_09_1130,60.0053696483,MAFE4ImagesEEG,001,201124,
AFNE01.JPG,AFNE01.JPG,AFNE01.JPG,AFNE01.JPG,AFNE01.JPG,AFNE01.JPG,,,,,0,5,5,5,,,,,,,,,,,,,,,,,,,AFNE03.jpg,AFNE15.jpg,AFSA01.jpg,AFSA06.jpg,AFSA06.jpg,FS,4,num_4,32,num_2,1.71671976522,,,2017_Aug_09_1130,60.0053696483,MAFE4ImagesEEG,001,201124,
AFNE01.JPG,AFNE01.JPG,AFNE01.JPG,AFNE01.JPG,AFNE01.JPG,AFNE01.JPG,,,,,0,6,6,1,,,,,,,,,,,,,,,,,,,AFSA20.jpg,AFNE13.jpg,AFSA16.jpg,AFNE05.jpg,AFSA20.jpg,FS,4,num_8,32,num_6,0.800219963538,,,2017_Aug_09_1130,60.0053696483,MAFE4ImagesEEG,001,201124,
AFNE01.JPG,AFNE01.JPG,AFNE01.JPG,AFNE01.JPG,AFNE01.JPG,AFNE01.JPG,,,,,0,7,7,3,,,,,,,,,,,,,,,,,,,AFNE18.jpg,AFSA17.jpg,AFNE07.jpg,AFSA06.jpg,AFSA06.jpg,FS,4,num_4,16,num_4,0.583479190012,,,2017_Aug_09_1130,60.0053696483,MAFE4ImagesEEG,001,201124,
AFNE01.JPG,AFNE01.JPG,AFNE01.JPG,AFNE01.JPG,AFNE01.JPG,AFNE01.JPG,,,,,0,8,8,6,,,,,,,,,,,,,,,,,,,AFSA04.jpg,AFSA03.jpg,AFNE17.jpg,AFNE11.jpg,AFNE11.jpg,FN,3,num_4,32,num_8,1.20021880907,,,2017_Aug_09_1130,60.0053696483,MAFE4ImagesEEG,001,201124,
AFNE01.JPG,AFNE01.JPG,AFNE01.JPG,AFNE01.JPG,AFNE01.JPG,AFNE01.JPG,,,,,0,9,9,8,,,,,,,,,,,,,,,,,,,AFSA18.jpg,AFNE06.jpg,AFSA10.jpg,AFNE13.jpg,AFNE06.jpg,FN,3,num_6,32,num_2,0.833190123085,,,2017_Aug_09_1130,60.0053696483,MAFE4ImagesEEG,001,201124,
AFNE01.JPG,AFNE01.JPG,AFNE01.JPG,AFNE01.JPG,AFNE01.JPG,AFNE01.JPG,,,,,1,0,10,7,,,,,,,,,,,,,,,,,,,AFSA07.jpg,AFNE11.jpg,AFNE13.jpg,AFSA04.jpg,AFNE13.jpg,FN,3,num_2,32,num_6,0.450139826629,,,2017_Aug_09_1130,60.0053696483,MAFE4ImagesEEG,001,201124,
AFNE01.JPG,AFNE01.JPG,AFNE01.JPG,AFNE01.JPG,AFNE01.JPG,AFNE01.JPG,,,,,1,1,11,4,,,,,,,,,,,,,,,,,,,AFNE09.jpg,AFSA04.jpg,AFSA12.jpg,AFNE20.jpg,AFSA12.jpg,FS,4,num_2,16,num_2,0.733463361394,,,2017_Aug_09_1130,60.0053696483,MAFE4ImagesEEG,001,201124,
AFNE01.JPG,AFNE01.JPG,AFNE01.JPG,AFNE01.JPG,AFNE01.JPG,AFNE01.JPG,,,,,1,2,12,6,,,,,,,,,,,,,,,,,,,AFNE17.jpg,AFSA06.jpg,AFSA10.jpg,AFNE09.jpg,AFNE17.jpg,FN,3,num_8,16,num_8,0.6501536828,,,2017_Aug_09_1130,60.0053696483,MAFE4ImagesEEG,001,201124,
AFNE01.JPG,AFNE01.JPG,AFNE01.JPG,AFNE01.JPG,AFNE01.JPG,AFNE01.JPG,,,,,1,3,13,5,,,,,,,,,,,,,,,,,,,AFNE10.jpg,AFNE15.jpg,AFSA06.jpg,AFSA15.jpg,AFNE10.jpg,FN,3,num_8,32,num_4,0.900119283237,,,2017_Aug_09_1130,60.0053696483,MAFE4ImagesEEG,001,201124,
AFNE01.JPG,AFNE01.JPG,AFNE01.JPG,AFNE01.JPG,AFNE01.JPG,AFNE01.JPG,,,,,1,4,14,0,,,,,,,,,,,,,,,,,,,AFNE20.jpg,AFNE08.jpg,AFSA07.jpg,AFSA06.jpg,AFSA07.jpg,FS,4,num_2,16,num_2,0.700521106599,,,2017_Aug_09_1130,60.0053696483,MAFE4ImagesEEG,001,201124,
AFNE01.JPG,AFNE01.JPG,AFNE01.JPG,AFNE01.JPG,AFNE01.JPG,AFNE01.JPG,,,,,1,5,15,1,,,,,,,,,,,,,,,,,,,AFSA19.jpg,AFSA08.jpg,AFNE12.jpg,AFNE19.jpg,AFNE19.jpg,FN,3,num_4,48,None,,,,2017_Aug_09_1130,60.0053696483,MAFE4ImagesEEG,001,201124,
AFNE01.JPG,AFNE01.JPG,AFNE01.JPG,AFNE01.JPG,AFNE01.JPG,AFNE01.JPG,,,,,1,6,16,3,,,,,,,,,,,,,,,,,,,AFSA07.jpg,AFNE04.jpg,AFNE15.jpg,AFSA09.jpg,AFSA09.jpg,FS,4,num_4,32,num_6,2.20017967862,,,2017_Aug_09_1130,60.0053696483,MAFE4ImagesEEG,001,201124,
AFNE01.JPG,AFNE01.JPG,AFNE01.JPG,AFNE01.JPG,AFNE01.JPG,AFNE01.JPG,,,,,1,7,17,2,,,,,,,,,,,,,,,,,,,AFSA07.jpg,AFSA11.jpg,AFNE04.jpg,AFNE03.jpg,AFNE03.jpg,FN,3,num_4,32,num_2,0.400191289373,,,2017_Aug_09_1130,60.0053696483,MAFE4ImagesEEG,001,201124,
AFNE01.JPG,AFNE01.JPG,AFNE01.JPG,AFNE01.JPG,AFNE01.JPG,AFNE01.JPG,,,,,1,8,18,9,,,,,,,,,,,,,,,,,,,AFNE17.jpg,AFNE07.jpg,AFSA13.jpg,AFSA03.jpg,AFNE07.jpg,FN,3,num_6,32,num_8,0.450161316199,,,2017_Aug_09_1130,60.0053696483,MAFE4ImagesEEG,001,201124,
AFNE01.JPG,AFNE01.JPG,AFNE01.JPG,AFNE01.JPG,AFNE01.JPG,AFNE01.JPG,,,,,1,9,19,8,,,,,,,,,,,,,,,,,,,AFSA11.jpg,AFNE05.jpg,AFNE11.jpg,AFSA19.jpg,AFSA11.jpg,FS,4,num_8,32,num_4,0.36677850876,,,2017_Aug_09_1130,60.0053696483,MAFE4ImagesEEG,001,201124,
AFNE01.JPG,AFNE01.JPG,AFNE01.JPG,AFNE01.JPG,AFNE01.JPG,AFNE01.JPG,,,,,2,0,20,5,,,,,,,,,,,,,,,,,,,AFSA04.jpg,AFNE02.jpg,AFNE01.jpg,AFSA11.jpg,AFSA04.jpg,FS,4,num_8,48,None,,,,2017_Aug_09_1130,60.0053696483,MAFE4ImagesEEG,001,201124,
AFNE01.JPG,AFNE01.JPG,AFNE01.JPG,AFNE01.JPG,AFNE01.JPG,AFNE01.JPG,,,,,2,1,21,7,,,,,,,,,,,,,,,,,,,AFSA01.jpg,AFSA15.jpg,AFNE16.jpg,AFNE15.jpg,AFSA01.jpg,FS,4,num_8,48,None,,,,2017_Aug_09_1130,60.0053696483,MAFE4ImagesEEG,001,201124,
AFNE01.JPG,AFNE01.JPG,AFNE01.JPG,AFNE01.JPG,AFNE01.JPG,AFNE01.JPG,,,,,2,2,22,2,,,,,,,,,,,,,,,,,,,AFNE15.jpg,AFNE07.jpg,AFSA17.jpg,AFSA10.jpg,AFNE07.jpg,FN,3,num_6,48,None,,,,2017_Aug_09_1130,60.0053696483,MAFE4ImagesEEG,001,201124,
AFNE01.JPG,AFNE01.JPG,AFNE01.JPG,AFNE01.JPG,AFNE01.JPG,AFNE01.JPG,,,,,2,3,23,6,,,,,,,,,,,,,,,,,,,AFNE11.jpg,AFSA19.jpg,AFSA03.jpg,AFNE07.jpg,AFNE11.jpg,FN,3,num_8,48,None,,,,2017_Aug_09_1130,60.0053696483,MAFE4ImagesEEG,001,201124,
AFNE01.JPG,AFNE01.JPG,AFNE01.JPG,AFNE01.JPG,AFNE01.JPG,AFNE01.JPG,,,,,2,4,24,1,,,,,,,,,,,,,,,,,,,AFSA01.jpg,AFNE10.jpg,AFNE16.jpg,AFSA02.jpg,AFNE16.jpg,FN,3,num_2,48,None,,,,2017_Aug_09_1130,60.0053696483,MAFE4ImagesEEG,001,201124,
AFNE01.JPG,AFNE01.JPG,AFNE01.JPG,AFNE01.JPG,AFNE01.JPG,AFNE01.JPG,,,,,2,5,25,8,,,,,,,,,,,,,,,,,,,AFSA13.jpg,AFNE07.jpg,AFNE08.jpg,AFSA12.jpg,AFSA12.jpg,FS,4,num_4,32,num_2,2.11671444075,,,2017_Aug_09_1130,60.0053696483,MAFE4ImagesEEG,001,201124,
AFNE01.JPG,AFNE01.JPG,AFNE01.JPG,AFNE01.JPG,AFNE01.JPG,AFNE01.JPG,,,,,2,6,26,0,,,,,,,,,,,,,,,,,,,AFNE16.jpg,AFNE17.jpg,AFSA20.jpg,AFSA14.jpg,AFSA14.jpg,FS,4,num_4,16,num_4,0.799828340067,,,2017_Aug_09_1130,60.0053696483,MAFE4ImagesEEG,001,201124,
AFNE01.JPG,AFNE01.JPG,AFNE01.JPG,AFNE01.JPG,AFNE01.JPG,AFNE01.JPG,,,,,2,7,27,4,,,,,,,,,,,,,,,,,,,AFSA09.jpg,AFNE12.jpg,AFSA20.jpg,AFNE04.jpg,AFNE12.jpg,FN,3,num_6,32,num_8,1.35008719331,,,2017_Aug_09_1130,60.0053696483,MAFE4ImagesEEG,001,201124,
AFNE01.JPG,AFNE01.JPG,AFNE01.JPG,AFNE01.JPG,AFNE01.JPG,AFNE01.JPG,,,,,2,8,28,3,,,,,,,,,,,,,,,,,,,AFSA18.jpg,AFNE12.jpg,AFSA17.jpg,AFNE18.jpg,AFSA18.jpg,FS,4,num_8,48,None,,,,2017_Aug_09_1130,60.0053696483,MAFE4ImagesEEG,001,201124,
AFNE01.JPG,AFNE01.JPG,AFNE01.JPG,AFNE01.JPG,AFNE01.JPG,AFNE01.JPG,,,,,2,9,29,9,,,,,,,,,,,,,,,,,,,AFNE06.jpg,AFNE14.jpg,AFSA06.jpg,AFSA18.jpg,AFSA18.jpg,FS,4,num_4,48,None,,,,2017_Aug_09_1130,60.0053696483,MAFE4ImagesEEG,001,201124,
AFNE01.JPG,AFNE01.JPG,AFNE01.JPG,AFNE01.JPG,AFNE01.JPG,AFNE01.JPG,,,,,3,0,30,2,,,,,,,,,,,,,,,,,,,AFSA13.jpg,AFNE04.jpg,AFNE02.jpg,AFSA11.jpg,AFSA11.jpg,FS,4,num_4,32,num_2,1.35011990857,,,2017_Aug_09_1130,60.0053696483,MAFE4ImagesEEG,001,201124,
AFNE01.JPG,AFNE01.JPG,AFNE01.JPG,AFNE01.JPG,AFNE01.JPG,AFNE01.JPG,,,,,3,1,31,1,,,,,,,,,,,,,,,,,,,AFSA14.jpg,AFNE15.jpg,AFSA17.jpg,AFNE17.jpg,AFNE15.jpg,FN,3,num_6,32,num_8,1.00013567298,,,2017_Aug_09_1130,60.0053696483,MAFE4ImagesEEG,001,201124,
AFNE01.JPG,AFNE01.JPG,AFNE01.JPG,AFNE01.JPG,AFNE01.JPG,AFNE01.JPG,,,,,3,2,32,7,,,,,,,,,,,,,,,,,,,AFNE09.jpg,AFSA01.jpg,AFNE03.jpg,AFSA14.jpg,AFNE09.jpg,FN,3,num_8,32,num_6,2.20003310032,,,2017_Aug_09_1130,60.0053696483,MAFE4ImagesEEG,001,201124,
AFNE01.JPG,AFNE01.JPG,AFNE01.JPG,AFNE01.JPG,AFNE01.JPG,AFNE01.JPG,,,,,3,3,33,9,,,,,,,,,,,,,,,,,,,AFSA08.jpg,AFNE17.jpg,AFSA16.jpg,AFNE15.jpg,AFSA08.jpg,FS,4,num_8,32,num_6,0.783574834699,,,2017_Aug_09_1130,60.0053696483,MAFE4ImagesEEG,001,201124,
AFNE01.JPG,AFNE01.JPG,AFNE01.JPG,AFNE01.JPG,AFNE01.JPG,AFNE01.JPG,,,,,3,4,34,5,,,,,,,,,,,,,,,,,,,AFSA16.jpg,AFNE06.jpg,AFSA12.jpg,AFNE07.jpg,AFNE07.jpg,FN,3,num_4,32,num_8,0.366670098389,,,2017_Aug_09_1130,60.0053696483,MAFE4ImagesEEG,001,201124,
AFNE01.JPG,AFNE01.JPG,AFNE01.JPG,AFNE01.JPG,AFNE01.JPG,AFNE01.JPG,,,,,3,5,35,8,,,,,,,,,,,,,,,,,,,AFSA20.jpg,AFNE01.jpg,AFNE17.jpg,AFSA12.jpg,AFSA12.jpg,FS,4,num_4,48,None,,,,2017_Aug_09_1130,60.0053696483,MAFE4ImagesEEG,001,201124,
AFNE01.JPG,AFNE01.JPG,AFNE01.JPG,AFNE01.JPG,AFNE01.JPG,AFNE01.JPG,,,,,3,6,36,6,,,,,,,,,,,,,,,,,,,AFNE07.jpg,AFSA17.jpg,AFSA10.jpg,AFNE16.jpg,AFNE16.jpg,FN,3,num_4,16,num_4,0.983360002749,,,2017_Aug_09_1130,60.0053696483,MAFE4ImagesEEG,001,201124,
AFNE01.JPG,AFNE01.JPG,AFNE01.JPG,AFNE01.JPG,AFNE01.JPG,AFNE01.JPG,,,,,3,7,37,3,,,,,,,,,,,,,,,,,,,AFSA11.jpg,AFNE11.jpg,AFNE13.jpg,AFSA12.jpg,AFNE13.jpg,FN,3,num_2,32,num_6,2.23341220338,,,2017_Aug_09_1130,60.0053696483,MAFE4ImagesEEG,001,201124,
AFNE01.JPG,AFNE01.JPG,AFNE01.JPG,AFNE01.JPG,AFNE01.JPG,AFNE01.JPG,,,,,3,8,38,4,,,,,,,,,,,,,,,,,,,AFNE13.jpg,AFSA18.jpg,AFNE04.jpg,AFSA06.jpg,AFNE13.jpg,FN,3,num_8,16,num_8,1.83333188994,,,2017_Aug_09_1130,60.0053696483,MAFE4ImagesEEG,001,201124,
AFNE01.JPG,AFNE01.JPG,AFNE01.JPG,AFNE01.JPG,AFNE01.JPG,AFNE01.JPG,,,,,3,9,39,0,,,,,,,,,,,,,,,,,,,AFSA19.jpg,AFNE13.jpg,AFNE15.jpg,AFSA03.jpg,AFNE13.jpg,FN,3,num_6,48,None,,,,2017_Aug_09_1130,60.0053696483,MAFE4ImagesEEG,001,201124,
AFNE01.JPG,AFNE01.JPG,AFNE01.JPG,AFNE01.JPG,AFNE01.JPG,AFNE01.JPG,,,,,4,0,40,1,,,,,,,,,,,,,,,,,,,AFSA12.jpg,AFNE17.jpg,AFNE03.jpg,AFSA09.jpg,AFNE03.jpg,FN,3,num_2,32,num_8,3.31662662234,,,2017_Aug_09_1130,60.0053696483,MAFE4ImagesEEG,001,201124,
AFNE01.JPG,AFNE01.JPG,AFNE01.JPG,AFNE01.JPG,AFNE01.JPG,AFNE01.JPG,,,,,4,1,41,9,,,,,,,,,,,,,,,,,,,AFNE11.jpg,AFSA19.jpg,AFNE13.jpg,AFSA02.jpg,AFNE11.jpg,FN,3,num_8,16,num_8,0.883437589975,,,2017_Aug_09_1130,60.0053696483,MAFE4ImagesEEG,001,201124,
AFNE01.JPG,AFNE01.JPG,AFNE01.JPG,AFNE01.JPG,AFNE01.JPG,AFNE01.JPG,,,,,4,2,42,0,,,,,,,,,,,,,,,,,,,AFSA01.jpg,AFNE09.jpg,AFNE01.jpg,AFSA19.jpg,AFSA19.jpg,FS,4,num_4,16,num_4,1.70000375272,,,2017_Aug_09_1130,60.0053696483,MAFE4ImagesEEG,001,201124,
AFNE01.JPG,AFNE01.JPG,AFNE01.JPG,AFNE01.JPG,AFNE01.JPG,AFNE01.JPG,,,,,4,3,43,5,,,,,,,,,,,,,,,,,,,AFSA18.jpg,AFSA09.jpg,AFNE07.jpg,AFNE11.jpg,AFNE07.jpg,FN,3,num_2,32,num_8,1.2001190586,,,2017_Aug_09_1130,60.0053696483,MAFE4ImagesEEG,001,201124,
AFNE01.JPG,AFNE01.JPG,AFNE01.JPG,AFNE01.JPG,AFNE01.JPG,AFNE01.JPG,,,,,4,4,44,7,,,,,,,,,,,,,,,,,,,AFSA17.jpg,AFNE15.jpg,AFNE10.jpg,AFSA02.jpg,AFNE10.jpg,FN,3,num_2,48,None,,,,2017_Aug_09_1130,60.0053696483,MAFE4ImagesEEG,001,201124,
AFNE01.JPG,AFNE01.JPG,AFNE01.JPG,AFNE01.JPG,AFNE01.JPG,AFNE01.JPG,,,,,4,5,45,3,,,,,,,,,,,,,,,,,,,AFNE17.jpg,AFNE03.jpg,AFSA20.jpg,AFSA18.jpg,AFSA20.jpg,FS,4,num_2,48,None,,,,2017_Aug_09_1130,60.0053696483,MAFE4ImagesEEG,001,201124,
AFNE01.JPG,AFNE01.JPG,AFNE01.JPG,AFNE01.JPG,AFNE01.JPG,AFNE01.JPG,,,,,4,6,46,8,,,,,,,,,,,,,,,,,,,AFSA10.jpg,AFSA11.jpg,AFNE02.jpg,AFNE01.jpg,AFSA11.jpg,FS,4,num_6,48,None,,,,2017_Aug_09_1130,60.0053696483,MAFE4ImagesEEG,001,201124,
AFNE01.JPG,AFNE01.JPG,AFNE01.JPG,AFNE01.JPG,AFNE01.JPG,AFNE01.JPG,,,,,4,7,47,4,,,,,,,,,,,,,,,,,,,AFNE18.jpg,AFSA16.jpg,AFNE04.jpg,AFSA12.jpg,AFNE04.jpg,FN,3,num_2,48,None,,,,2017_Aug_09_1130,60.0053696483,MAFE4ImagesEEG,001,201124,
AFNE01.JPG,AFNE01.JPG,AFNE01.JPG,AFNE01.JPG,AFNE01.JPG,AFNE01.JPG,,,,,4,8,48,6,,,,,,,,,,,,,,,,,,,AFNE08.jpg,AFNE03.jpg,AFSA08.jpg,AFSA14.jpg,AFSA08.jpg,FS,4,num_2,48,None,,,,2017_Aug_09_1130,60.0053696483,MAFE4ImagesEEG,001,201124,
AFNE01.JPG,AFNE01.JPG,AFNE01.JPG,AFNE01.JPG,AFNE01.JPG,AFNE01.JPG,,,,,4,9,49,2,,,,,,,,,,,,,,,,,,,AFSA04.jpg,AFSA05.jpg,AFNE07.jpg,AFNE03.jpg,AFSA04.jpg,FS,4,num_8,32,num_4,3.1833145218,,,2017_Aug_09_1130,60.0053696483,MAFE4ImagesEEG,001,201124,
AFNE01.JPG,AFNE01.JPG,AFNE01.JPG,AFNE01.JPG,AFNE01.JPG,AFNE01.JPG,,,,,5,0,50,1,,,,,,,,,,,,,,,,,,,AFNE03.jpg,AFSA11.jpg,AFSA04.jpg,AFNE15.jpg,AFNE15.jpg,FN,3,num_4,32,num_2,1.43346390664,,,2017_Aug_09_1130,60.0053696483,MAFE4ImagesEEG,001,201124,
AFNE01.JPG,AFNE01.JPG,AFNE01.JPG,AFNE01.JPG,AFNE01.JPG,AFNE01.JPG,,,,,5,1,51,7,,,,,,,,,,,,,,,,,,,AFNE08.jpg,AFNE05.jpg,AFSA12.jpg,AFSA10.jpg,AFSA10.jpg,FS,4,num_4,32,num_2,0.933467274299,,,2017_Aug_09_1130,60.0053696483,MAFE4ImagesEEG,001,201124,
AFNE01.JPG,AFNE01.JPG,AFNE01.JPG,AFNE01.JPG,AFNE01.JPG,AFNE01.JPG,,,,,5,2,52,5,,,,,,,,,,,,,,,,,,,AFNE10.jpg,AFSA11.jpg,AFNE02.jpg,AFSA16.jpg,AFSA11.jpg,FS,4,num_6,16,num_6,0.55013600993,,,2017_Aug_09_1130,60.0053696483,MAFE4ImagesEEG,001,201124,
AFNE01.JPG,AFNE01.JPG,AFNE01.JPG,AFNE01.JPG,AFNE01.JPG,AFNE01.JPG,,,,,5,3,53,8,,,,,,,,,,,,,,,,,,,AFSA15.jpg,AFNE02.jpg,AFSA06.jpg,AFNE05.jpg,AFNE02.jpg,FN,3,num_6,16,num_6,0.700099974871,,,2017_Aug_09_1130,60.0053696483,MAFE4ImagesEEG,001,201124,
AFNE01.JPG,AFNE01.JPG,AFNE01.JPG,AFNE01.JPG,AFNE01.JPG,AFNE01.JPG,,,,,5,4,54,3,,,,,,,,,,,,,,,,,,,AFNE17.jpg,AFSA06.jpg,AFSA04.jpg,AFNE12.jpg,AFNE12.jpg,FN,3,num_4,16,num_4,0.733486775309,,,2017_Aug_09_1130,60.0053696483,MAFE4ImagesEEG,001,201124,
AFNE01.JPG,AFNE01.JPG,AFNE01.JPG,AFNE01.JPG,AFNE01.JPG,AFNE01.JPG,,,,,5,5,55,4,,,,,,,,,,,,,,,,,,,AFSA04.jpg,AFSA01.jpg,AFNE15.jpg,AFNE09.jpg,AFSA01.jpg,FS,4,num_6,48,None,,,,2017_Aug_09_1130,60.0053696483,MAFE4ImagesEEG,001,201124,
AFNE01.JPG,AFNE01.JPG,AFNE01.JPG,AFNE01.JPG,AFNE01.JPG,AFNE01.JPG,,,,,5,6,56,0,,,,,,,,,,,,,,,,,,,AFSA09.jpg,AFNE01.jpg,AFNE14.jpg,AFSA06.jpg,AFSA09.jpg,FS,4,num_8,48,None,,,,2017_Aug_09_1130,60.0053696483,MAFE4ImagesEEG,001,201124,
AFNE01.JPG,AFNE01.JPG,AFNE01.JPG,AFNE01.JPG,AFNE01.JPG,AFNE01.JPG,,,,,5,7,57,2,,,,,,,,,,,,,,,,,,,AFSA13.jpg,AFNE17.jpg,AFSA15.jpg,AFNE10.jpg,AFNE10.jpg,FN,3,num_4,48,None,,,,2017_Aug_09_1130,60.0053696483,MAFE4ImagesEEG,001,201124,
AFNE01.JPG,AFNE01.JPG,AFNE01.JPG,AFNE01.JPG,AFNE01.JPG,AFNE01.JPG,,,,,5,8,58,6,,,,,,,,,,,,,,,,,,,AFSA07.jpg,AFNE07.jpg,AFNE02.jpg,AFSA09.jpg,AFNE07.jpg,FN,3,num_6,48,None,,,,2017_Aug_09_1130,60.0053696483,MAFE4ImagesEEG,001,201124,
AFNE01.JPG,AFNE01.JPG,AFNE01.JPG,AFNE01.JPG,AFNE01.JPG,AFNE01.JPG,,,,,5,9,59,9,,,,,,,,,,,,,,,,,,,AFNE07.jpg,AFSA17.jpg,AFNE06.jpg,AFSA07.jpg,AFSA07.jpg,FS,4,num_4,48,None,,,,2017_Aug_09_1130,60.0053696483,MAFE4ImagesEEG,001,201124,
,,,,,,,,,,,,,,,,,,,,,,,,,,,,,,,,,,,,,,,,,,,space,80.694394008,2017_Aug_09_1130,60.0053696483,MAFE4ImagesEEG,001,201124,
AFNE01.JPG,AFNE01.JPG,AFNE01.JPG,AFNE01.JPG,AFNE01.JPG,AFNE01.JPG,,,,,,,,,0,0,0,7,,,,,,,,,,,,,,,AMSA13.jpg,AMSA02.jpg,AMNE03.jpg,AMNE16.jpg,AMSA02.jpg,MS,2,num_6,32,num_2,1.21674590558,,,2017_Aug_09_1130,60.0053696483,MAFE4ImagesEEG,001,201124,
AFNE01.JPG,AFNE01.JPG,AFNE01.JPG,AFNE01.JPG,AFNE01.JPG,AFNE01.JPG,,,,,,,,,0,1,1,4,,,,,,,,,,,,,,,AMSA06.jpg,AMNE09.jpg,AMSA08.jpg,AMNE15.jpg,AMNE09.jpg,MN,1,num_6,16,num_6,0.783473801333,,,2017_Aug_09_1130,60.0053696483,MAFE4ImagesEEG,001,201124,
AFNE01.JPG,AFNE01.JPG,AFNE01.JPG,AFNE01.JPG,AFNE01.JPG,AFNE01.JPG,,,,,,,,,0,2,2,2,,,,,,,,,,,,,,,AMNE04.jpg,AMSA16.jpg,AMSA03.jpg,AMNE19.jpg,AMSA03.jpg,MS,2,num_2,16,num_2,0.71680347831,,,2017_Aug_09_1130,60.0053696483,MAFE4ImagesEEG,001,201124,
AFNE01.JPG,AFNE01.JPG,AFNE01.JPG,AFNE01.JPG,AFNE01.JPG,AFNE01.JPG,,,,,,,,,0,3,3,5,,,,,,,,,,,,,,,AMNE01.jpg,AMNE05.jpg,AMSA15.jpg,AMSA04.jpg,AMNE05.jpg,MN,1,num_6,16,num_6,0.550248910207,,,2017_Aug_09_1130,60.0053696483,MAFE4ImagesEEG,001,201124,
AFNE01.JPG,AFNE01.JPG,AFNE01.JPG,AFNE01.JPG,AFNE01.JPG,AFNE01.JPG,,,,,,,,,0,4,4,8,,,,,,,,,,,,,,,AMSA04.jpg,AMNE16.jpg,AMSA15.jpg,AMNE17.jpg,AMNE16.jpg,MN,1,num_6,16,num_6,0.650131872389,,,2017_Aug_09_1130,60.0053696483,MAFE4ImagesEEG,001,201124,
AFNE01.JPG,AFNE01.JPG,AFNE01.JPG,AFNE01.JPG,AFNE01.JPG,AFNE01.JPG,,,,,,,,,0,5,5,0,,,,,,,,,,,,,,,AMNE11.jpg,AMSA07.jpg,AMNE10.jpg,AMSA11.jpg,AMNE11.jpg,MN,1,num_8,32,num_4,1.01673782291,,,2017_Aug_09_1130,60.0053696483,MAFE4ImagesEEG,001,201124,
AFNE01.JPG,AFNE01.JPG,AFNE01.JPG,AFNE01.JPG,AFNE01.JPG,AFNE01.JPG,,,,,,,,,0,6,6,9,,,,,,,,,,,,,,,AMNE04.jpg,AMSA04.jpg,AMNE14.jpg,AMSA11.jpg,AMSA11.jpg,MS,2,num_4,16,num_4,1.383430694,,,2017_Aug_09_1130,60.0053696483,MAFE4ImagesEEG,001,201124,
AFNE01.JPG,AFNE01.JPG,AFNE01.JPG,AFNE01.JPG,AFNE01.JPG,AFNE01.JPG,,,,,,,,,0,7,7,3,,,,,,,,,,,,,,,AMSA09.jpg,AMNE01.jpg,AMSA01.jpg,AMNE19.jpg,AMSA09.jpg,MS,2,num_8,32,num_2,1.90006604046,,,2017_Aug_09_1130,60.0053696483,MAFE4ImagesEEG,001,201124,
AFNE01.JPG,AFNE01.JPG,AFNE01.JPG,AFNE01.JPG,AFNE01.JPG,AFNE01.JPG,,,,,,,,,0,8,8,6,,,,,,,,,,,,,,,AMSA08.jpg,AMNE06.jpg,AMNE15.jpg,AMSA20.jpg,AMNE06.jpg,MN,1,num_6,16,num_6,1.3500727599,,,2017_Aug_09_1130,60.0053696483,MAFE4ImagesEEG,001,201124,
AFNE01.JPG,AFNE01.JPG,AFNE01.JPG,AFNE01.JPG,AFNE01.JPG,AFNE01.JPG,,,,,,,,,0,9,9,1,,,,,,,,,,,,,,,AMNE09.jpg,AMNE15.jpg,AMSA16.jpg,AMSA12.jpg,AMNE09.jpg,MN,1,num_8,16,num_8,1.16713606985,,,2017_Aug_09_1130,60.0053696483,MAFE4ImagesEEG,001,201124,
AFNE01.JPG,AFNE01.JPG,AFNE01.JPG,AFNE01.JPG,AFNE01.JPG,AFNE01.JPG,,,,,,,,,1,0,10,1,,,,,,,,,,,,,,,AMSA08.jpg,AMNE15.jpg,AMNE01.jpg,AMSA14.jpg,AMNE15.jpg,MN,1,num_6,32,num_8,1.31671867473,,,2017_Aug_09_1130,60.0053696483,MAFE4ImagesEEG,001,201124,
AFNE01.JPG,AFNE01.JPG,AFNE01.JPG,AFNE01.JPG,AFNE01.JPG,AFNE01.JPG,,,,,,,,,1,1,11,0,,,,,,,,,,,,,,,AMSA12.jpg,AMNE12.jpg,AMNE11.jpg,AMSA01.jpg,AMNE11.jpg,MN,1,num_2,32,num_4,1.56646456826,,,2017_Aug_09_1130,60.0053696483,MAFE4ImagesEEG,001,201124,
AFNE01.JPG,AFNE01.JPG,AFNE01.JPG,AFNE01.JPG,AFNE01.JPG,AFNE01.JPG,,,,,,,,,1,2,12,8,,,,,,,,,,,,,,,AMSA19.jpg,AMNE13.jpg,AMSA12.jpg,AMNE03.jpg,AMNE13.jpg,MN,1,num_6,32,num_8,1.15009963792,,,2017_Aug_09_1130,60.0053696483,MAFE4ImagesEEG,001,201124,
AFNE01.JPG,AFNE01.JPG,AFNE01.JPG,AFNE01.JPG,AFNE01.JPG,AFNE01.JPG,,,,,,,,,1,3,13,5,,,,,,,,,,,,,,,AMSA19.jpg,AMNE07.jpg,AMSA08.jpg,AMNE19.jpg,AMNE19.jpg,MN,1,num_4,32,num_8,0.58349073655,,,2017_Aug_09_1130,60.0053696483,MAFE4ImagesEEG,001,201124,
AFNE01.JPG,AFNE01.JPG,AFNE01.JPG,AFNE01.JPG,AFNE01.JPG,AFNE01.JPG,,,,,,,,,1,4,14,7,,,,,,,,,,,,,,,AMSA19.jpg,AMNE12.jpg,AMSA07.jpg,AMNE19.jpg,AMSA19.jpg,MS,2,num_8,32,num_6,1.01673910581,,,2017_Aug_09_1130,60.0053696483,MAFE4ImagesEEG,001,201124,
AFNE01.JPG,AFNE01.JPG,AFNE01.JPG,AFNE01.JPG,AFNE01.JPG,AFNE01.JPG,,,,,,,,,1,5,15,6,,,,,,,,,,,,,,,AMNE01.jpg,AMSA07.jpg,AMSA13.jpg,AMNE16.jpg,AMSA13.jpg,MS,2,num_2,16,num_2,2.78330028104,,,2017_Aug_09_1130,60.0053696483,MAFE4ImagesEEG,001,201124,
AFNE01.JPG,AFNE01.JPG,AFNE01.JPG,AFNE01.JPG,AFNE01.JPG,AFNE01.JPG,,,,,,,,,1,6,16,3,,,,,,,,,,,,,,,AMSA05.jpg,AMNE10.jpg,AMSA04.jpg,AMNE14.jpg,AMNE10.jpg,MN,1,num_6,16,num_6,1.06674922537,,,2017_Aug_09_1130,60.0053696483,MAFE4ImagesEEG,001,201124,
AFNE01.JPG,AFNE01.JPG,AFNE01.JPG,AFNE01.JPG,AFNE01.JPG,AFNE01.JPG,,,,,,,,,1,7,17,2,,,,,,,,,,,,,,,AMSA19.jpg,AMNE02.jpg,AMNE17.jpg,AMSA05.jpg,AMNE17.jpg,MN,1,num_2,32,num_4,1.23348693573,,,2017_Aug_09_1130,60.0053696483,MAFE4ImagesEEG,001,201124,
AFNE01.JPG,AFNE01.JPG,AFNE01.JPG,AFNE01.JPG,AFNE01.JPG,AFNE01.JPG,,,,,,,,,1,8,18,9,,,,,,,,,,,,,,,AMSA02.jpg,AMNE07.jpg,AMNE16.jpg,AMSA09.jpg,AMNE07.jpg,MN,1,num_6,32,num_2,0.50016245502,,,2017_Aug_09_1130,60.0053696483,MAFE4ImagesEEG,001,201124,
AFNE01.JPG,AFNE01.JPG,AFNE01.JPG,AFNE01.JPG,AFNE01.JPG,AFNE01.JPG,,,,,,,,,1,9,19,4,,,,,,,,,,,,,,,AMSA08.jpg,AMNE19.jpg,AMNE15.jpg,AMSA14.jpg,AMSA08.jpg,MS,2,num_8,32,num_4,1.31673246669,,,2017_Aug_09_1130,60.0053696483,MAFE4ImagesEEG,001,201124,
AFNE01.JPG,AFNE01.JPG,AFNE01.JPG,AFNE01.JPG,AFNE01.JPG,AFNE01.JPG,,,,,,,,,2,0,20,3,,,,,,,,,,,,,,,AMSA20.jpg,AMNE18.jpg,AMNE09.jpg,AMSA11.jpg,AMSA20.jpg,MS,2,num_8,16,num_8,0.950141269946,,,2017_Aug_09_1130,60.0053696483,MAFE4ImagesEEG,001,201124,
AFNE01.JPG,AFNE01.JPG,AFNE01.JPG,AFNE01.JPG,AFNE01.JPG,AFNE01.JPG,,,,,,,,,2,1,21,1,,,,,,,,,,,,,,,AMSA05.jpg,AMSA04.jpg,AMNE20.jpg,AMNE12.jpg,AMNE20.jpg,MN,1,num_2,32,num_4,0.800153249642,,,2017_Aug_09_1130,60.0053696483,MAFE4ImagesEEG,001,201124,
AFNE01.JPG,AFNE01.JPG,AFNE01.JPG,AFNE01.JPG,AFNE01.JPG,AFNE01.JPG,,,,,,,,,2,2,22,5,,,,,,,,,,,,,,,AMSA03.jpg,AMNE06.jpg,AMSA01.jpg,AMNE15.jpg,AMNE15.jpg,MN,1,num_4,16,num_4,0.666827036766,,,2017_Aug_09_1130,60.0053696483,MAFE4ImagesEEG,001,201124,
AFNE01.JPG,AFNE01.JPG,AFNE01.JPG,AFNE01.JPG,AFNE01.JPG,AFNE01.JPG,,,,,,,,,2,3,23,4,,,,,,,,,,,,,,,AMNE16.jpg,AMSA15.jpg,AMSA07.jpg,AMNE01.jpg,AMSA07.jpg,MS,2,num_2,32,num_4,1.33340902789,,,2017_Aug_09_1130,60.0053696483,MAFE4ImagesEEG,001,201124,
AFNE01.JPG,AFNE01.JPG,AFNE01.JPG,AFNE01.JPG,AFNE01.JPG,AFNE01.JPG,,,,,,,,,2,4,24,8,,,,,,,,,,,,,,,AMNE17.jpg,AMNE19.jpg,AMSA15.jpg,AMSA19.jpg,AMSA15.jpg,MS,2,num_2,16,num_2,3.49996423768,,,2017_Aug_09_1130,60.0053696483,MAFE4ImagesEEG,001,201124,
AFNE01.JPG,AFNE01.JPG,AFNE01.JPG,AFNE01.JPG,AFNE01.JPG,AFNE01.JPG,,,,,,,,,2,5,25,7,,,,,,,,,,,,,,,AMSA15.jpg,AMNE18.jpg,AMNE05.jpg,AMSA11.jpg,AMNE05.jpg,MN,1,num_2,32,num_6,1.66673979536,,,2017_Aug_09_1130,60.0053696483,MAFE4ImagesEEG,001,201124,
AFNE01.JPG,AFNE01.JPG,AFNE01.JPG,AFNE01.JPG,AFNE01.JPG,AFNE01.JPG,,,,,,,,,2,6,26,6,,,,,,,,,,,,,,,AMSA11.jpg,AMNE10.jpg,AMSA15.jpg,AMNE14.jpg,AMSA11.jpg,MS,2,num_8,48,None,,,,2017_Aug_09_1130,60.0053696483,MAFE4ImagesEEG,001,201124,
AFNE01.JPG,AFNE01.JPG,AFNE01.JPG,AFNE01.JPG,AFNE01.JPG,AFNE01.JPG,,,,,,,,,2,7,27,9,,,,,,,,,,,,,,,AMNE18.jpg,AMSA18.jpg,AMSA11.jpg,AMNE06.jpg,AMNE06.jpg,MN,1,num_4,48,None,,,,2017_Aug_09_1130,60.0053696483,MAFE4ImagesEEG,001,201124,
AFNE01.JPG,AFNE01.JPG,AFNE01.JPG,AFNE01.JPG,AFNE01.JPG,AFNE01.JPG,,,,,,,,,2,8,28,2,,,,,,,,,,,,,,,AMSA11.jpg,AMNE13.jpg,AMNE16.jpg,AMSA08.jpg,AMSA08.jpg,MS,2,num_4,16,num_4,0.850109163905,,,2017_Aug_09_1130,60.0053696483,MAFE4ImagesEEG,001,201124,
AFNE01.JPG,AFNE01.JPG,AFNE01.JPG,AFNE01.JPG,AFNE01.JPG,AFNE01.JPG,,,,,,,,,2,9,29,0,,,,,,,,,,,,,,,AMSA19.jpg,AMNE05.jpg,AMSA16.jpg,AMNE20.jpg,AMNE20.jpg,MN,1,num_4,16,num_4,0.666844677646,,,2017_Aug_09_1130,60.0053696483,MAFE4ImagesEEG,001,201124,
AFNE01.JPG,AFNE01.JPG,AFNE01.JPG,AFNE01.JPG,AFNE01.JPG,AFNE01.JPG,,,,,,,,,3,0,30,1,,,,,,,,,,,,,,,AMSA04.jpg,AMNE15.jpg,AMSA12.jpg,AMNE16.jpg,AMNE16.jpg,MN,1,num_4,16,num_4,1.38339124294,,,2017_Aug_09_1130,60.0053696483,MAFE4ImagesEEG,001,201124,
AFNE01.JPG,AFNE01.JPG,AFNE01.JPG,AFNE01.JPG,AFNE01.JPG,AFNE01.JPG,,,,,,,,,3,1,31,8,,,,,,,,,,,,,,,AMSA09.jpg,AMNE03.jpg,AMSA07.jpg,AMNE10.jpg,AMNE03.jpg,MN,1,num_6,16,num_6,1.51655419916,,,2017_Aug_09_1130,60.0053696483,MAFE4ImagesEEG,001,201124,
AFNE01.JPG,AFNE01.JPG,AFNE01.JPG,AFNE01.JPG,AFNE01.JPG,AFNE01.JPG,,,,,,,,,3,2,32,6,,,,,,,,,,,,,,,AMNE07.jpg,AMSA14.jpg,AMSA03.jpg,AMNE08.jpg,AMSA03.jpg,MS,2,num_2,32,num_6,1.71680508205,,,2017_Aug_09_1130,60.0053696483,MAFE4ImagesEEG,001,201124,
AFNE01.JPG,AFNE01.JPG,AFNE01.JPG,AFNE01.JPG,AFNE01.JPG,AFNE01.JPG,,,,,,,,,3,3,33,0,,,,,,,,,,,,,,,AMSA07.jpg,AMNE14.jpg,AMSA10.jpg,AMNE04.jpg,AMSA07.jpg,MS,2,num_8,32,num_2,4.26677142037,,,2017_Aug_09_1130,60.0053696483,MAFE4ImagesEEG,001,201124,
AFNE01.JPG,AFNE01.JPG,AFNE01.JPG,AFNE01.JPG,AFNE01.JPG,AFNE01.JPG,,,,,,,,,3,4,34,3,,,,,,,,,,,,,,,AMNE20.jpg,AMNE03.jpg,AMSA13.jpg,AMSA09.jpg,AMNE03.jpg,MN,1,num_6,32,num_8,1.8167024774,,,2017_Aug_09_1130,60.0053696483,MAFE4ImagesEEG,001,201124,
AFNE01.JPG,AFNE01.JPG,AFNE01.JPG,AFNE01.JPG,AFNE01.JPG,AFNE01.JPG,,,,,,,,,3,5,35,5,,,,,,,,,,,,,,,AMNE13.jpg,AMNE04.jpg,AMSA15.jpg,AMSA05.jpg,AMSA15.jpg,MS,2,num_2,48,None,,,,2017_Aug_09_1130,60.0053696483,MAFE4ImagesEEG,001,201124,
AFNE01.JPG,AFNE01.JPG,AFNE01.JPG,AFNE01.JPG,AFNE01.JPG,AFNE01.JPG,,,,,,,,,3,6,36,4,,,,,,,,,,,,,,,AMNE15.jpg,AMNE12.jpg,AMSA01.jpg,AMSA15.jpg,AMSA01.jpg,MS,2,num_2,16,num_2,2.71077677165,,,2017_Aug_09_1130,60.0053696483,MAFE4ImagesEEG,001,201124,
AFNE01.JPG,AFNE01.JPG,AFNE01.JPG,AFNE01.JPG,AFNE01.JPG,AFNE01.JPG,,,,,,,,,3,7,37,7,,,,,,,,,,,,,,,AMSA04.jpg,AMSA09.jpg,AMNE05.jpg,AMNE03.jpg,AMNE03.jpg,MN,1,num_4,32,num_2,2.83334087068,,,2017_Aug_09_1130,60.0053696483,MAFE4ImagesEEG,001,201124,
AFNE01.JPG,AFNE01.JPG,AFNE01.JPG,AFNE01.JPG,AFNE01.JPG,AFNE01.JPG,,,,,,,,,3,8,38,9,,,,,,,,,,,,,,,AMNE17.jpg,AMNE07.jpg,AMSA04.jpg,AMSA10.jpg,AMSA04.jpg,MS,2,num_2,16,num_2,0.950192267541,,,2017_Aug_09_1130,60.0053696483,MAFE4ImagesEEG,001,201124,
AFNE01.JPG,AFNE01.JPG,AFNE01.JPG,AFNE01.JPG,AFNE01.JPG,AFNE01.JPG,,,,,,,,,3,9,39,2,,,,,,,,,,,,,,,AMNE04.jpg,AMNE08.jpg,AMSA08.jpg,AMSA13.jpg,AMNE08.jpg,MN,1,num_6,32,num_2,2.46665409347,,,2017_Aug_09_1130,60.0053696483,MAFE4ImagesEEG,001,201124,
AFNE01.JPG,AFNE01.JPG,AFNE01.JPG,AFNE01.JPG,AFNE01.JPG,AFNE01.JPG,,,,,,,,,4,0,40,7,,,,,,,,,,,,,,,AMSA11.jpg,AMSA20.jpg,AMNE07.jpg,AMNE12.jpg,AMSA11.jpg,MS,2,num_8,32,num_4,0.766561175231,,,2017_Aug_09_1130,60.0053696483,MAFE4ImagesEEG,001,201124,
AFNE01.JPG,AFNE01.JPG,AFNE01.JPG,AFNE01.JPG,AFNE01.JPG,AFNE01.JPG,,,,,,,,,4,1,41,9,,,,,,,,,,,,,,,AMSA13.jpg,AMSA08.jpg,AMNE17.jpg,AMNE13.jpg,AMNE17.jpg,MN,1,num_2,16,num_2,2.28351758257,,,2017_Aug_09_1130,60.0053696483,MAFE4ImagesEEG,001,201124,
AFNE01.JPG,AFNE01.JPG,AFNE01.JPG,AFNE01.JPG,AFNE01.JPG,AFNE01.JPG,,,,,,,,,4,2,42,4,,,,,,,,,,,,,,,AMNE09.jpg,AMNE19.jpg,AMSA14.jpg,AMSA20.jpg,AMSA20.jpg,MS,2,num_4,32,num_8,0.750165902777,,,2017_Aug_09_1130,60.0053696483,MAFE4ImagesEEG,001,201124,
AFNE01.JPG,AFNE01.JPG,AFNE01.JPG,AFNE01.JPG,AFNE01.JPG,AFNE01.JPG,,,,,,,,,4,3,43,1,,,,,,,,,,,,,,,AMSA04.jpg,AMNE04.jpg,AMSA01.jpg,AMNE18.jpg,AMNE04.jpg,MN,1,num_6,32,num_8,2.43340585264,,,2017_Aug_09_1130,60.0053696483,MAFE4ImagesEEG,001,201124,
AFNE01.JPG,AFNE01.JPG,AFNE01.JPG,AFNE01.JPG,AFNE01.JPG,AFNE01.JPG,,,,,,,,,4,4,44,6,,,,,,,,,,,,,,,AMSA10.jpg,AMSA17.jpg,AMNE19.jpg,AMNE03.jpg,AMNE03.jpg,MN,1,num_4,32,num_6,1.28347716923,,,2017_Aug_09_1130,60.0053696483,MAFE4ImagesEEG,001,201124,
AFNE01.JPG,AFNE01.JPG,AFNE01.JPG,AFNE01.JPG,AFNE01.JPG,AFNE01.JPG,,,,,,,,,4,5,45,3,,,,,,,,,,,,,,,AMNE12.jpg,AMSA15.jpg,AMNE02.jpg,AMSA20.jpg,AMSA15.jpg,MS,2,num_6,32,num_8,1.33349851449,,,2017_Aug_09_1130,60.0053696483,MAFE4ImagesEEG,001,201124,
AFNE01.JPG,AFNE01.JPG,AFNE01.JPG,AFNE01.JPG,AFNE01.JPG,AFNE01.JPG,,,,,,,,,4,6,46,5,,,,,,,,,,,,,,,AMNE12.jpg,AMSA16.jpg,AMNE08.jpg,AMSA03.jpg,AMSA16.jpg,MS,2,num_6,32,num_2,2.25003712578,,,2017_Aug_09_1130,60.0053696483,MAFE4ImagesEEG,001,201124,
AFNE01.JPG,AFNE01.JPG,AFNE01.JPG,AFNE01.JPG,AFNE01.JPG,AFNE01.JPG,,,,,,,,,4,7,47,8,,,,,,,,,,,,,,,AMSA03.jpg,AMNE18.jpg,AMNE17.jpg,AMSA11.jpg,AMSA03.jpg,MS,2,num_8,16,num_8,1.06673126388,,,2017_Aug_09_1130,60.0053696483,MAFE4ImagesEEG,001,201124,
AFNE01.JPG,AFNE01.JPG,AFNE01.JPG,AFNE01.JPG,AFNE01.JPG,AFNE01.JPG,,,,,,,,,4,8,48,0,,,,,,,,,,,,,,,AMSA03.jpg,AMNE16.jpg,AMSA19.jpg,AMNE15.jpg,AMNE15.jpg,MN,1,num_4,32,num_6,2.5830814722,,,2017_Aug_09_1130,60.0053696483,MAFE4ImagesEEG,001,201124,
AFNE01.JPG,AFNE01.JPG,AFNE01.JPG,AFNE01.JPG,AFNE01.JPG,AFNE01.JPG,,,,,,,,,4,9,49,2,,,,,,,,,,,,,,,AMSA14.jpg,AMSA15.jpg,AMNE05.jpg,AMNE02.jpg,AMNE05.jpg,MN,1,num_2,16,num_2,1.76675939281,,,2017_Aug_09_1130,60.0053696483,MAFE4ImagesEEG,001,201124,
AFNE01.JPG,AFNE01.JPG,AFNE01.JPG,AFNE01.JPG,AFNE01.JPG,AFNE01.JPG,,,,,,,,,5,0,50,6,,,,,,,,,,,,,,,AMSA05.jpg,AMNE15.jpg,AMNE09.jpg,AMSA11.jpg,AMNE15.jpg,MN,1,num_6,16,num_6,0.733462719945,,,2017_Aug_09_1130,60.0053696483,MAFE4ImagesEEG,001,201124,
AFNE01.JPG,AFNE01.JPG,AFNE01.JPG,AFNE01.JPG,AFNE01.JPG,AFNE01.JPG,,,,,,,,,5,1,51,8,,,,,,,,,,,,,,,AMSA14.jpg,AMSA08.jpg,AMNE04.jpg,AMNE09.jpg,AMSA08.jpg,MS,2,num_6,32,num_8,0.86676680157,,,2017_Aug_09_1130,60.0053696483,MAFE4ImagesEEG,001,201124,
AFNE01.JPG,AFNE01.JPG,AFNE01.JPG,AFNE01.JPG,AFNE01.JPG,AFNE01.JPG,,,,,,,,,5,2,52,5,,,,,,,,,,,,,,,AMSA08.jpg,AMSA02.jpg,AMNE08.jpg,AMNE17.jpg,AMSA08.jpg,MS,2,num_8,32,num_2,0.816787152551,,,2017_Aug_09_1130,60.0053696483,MAFE4ImagesEEG,001,201124,
AFNE01.JPG,AFNE01.JPG,AFNE01.JPG,AFNE01.JPG,AFNE01.JPG,AFNE01.JPG,,,,,,,,,5,3,53,9,,,,,,,,,,,,,,,AMSA15.jpg,AMNE17.jpg,AMNE07.jpg,AMSA19.jpg,AMSA19.jpg,MS,2,num_4,16,num_4,2.46664158464,,,2017_Aug_09_1130,60.0053696483,MAFE4ImagesEEG,001,201124,
AFNE01.JPG,AFNE01.JPG,AFNE01.JPG,AFNE01.JPG,AFNE01.JPG,AFNE01.JPG,,,,,,,,,5,4,54,7,,,,,,,,,,,,,,,AMSA01.jpg,AMNE04.jpg,AMNE13.jpg,AMSA05.jpg,AMSA01.jpg,MS,2,num_8,32,num_2,0.90019786451,,,2017_Aug_09_1130,60.0053696483,MAFE4ImagesEEG,001,201124,
AFNE01.JPG,AFNE01.JPG,AFNE01.JPG,AFNE01.JPG,AFNE01.JPG,AFNE01.JPG,,,,,,,,,5,5,55,3,,,,,,,,,,,,,,,AMSA03.jpg,AMNE07.jpg,AMSA02.jpg,AMNE08.jpg,AMSA02.jpg,MS,2,num_2,16,num_2,3.41656090273,,,2017_Aug_09_1130,60.0053696483,MAFE4ImagesEEG,001,201124,
AFNE01.JPG,AFNE01.JPG,AFNE01.JPG,AFNE01.JPG,AFNE01.JPG,AFNE01.JPG,,,,,,,,,5,6,56,2,,,,,,,,,,,,,,,AMSA18.jpg,AMNE07.jpg,AMNE18.jpg,AMSA16.jpg,AMNE18.jpg,MN,1,num_2,48,None,,,,2017_Aug_09_1130,60.0053696483,MAFE4ImagesEEG,001,201124,
AFNE01.JPG,AFNE01.JPG,AFNE01.JPG,AFNE01.JPG,AFNE01.JPG,AFNE01.JPG,,,,,,,,,5,7,57,4,,,,,,,,,,,,,,,AMSA16.jpg,AMNE07.jpg,AMSA17.jpg,AMNE18.jpg,AMSA17.jpg,MS,2,num_2,48,None,,,,2017_Aug_09_1130,60.0053696483,MAFE4ImagesEEG,001,201124,
AFNE01.JPG,AFNE01.JPG,AFNE01.JPG,AFNE01.JPG,AFNE01.JPG,AFNE01.JPG,,,,,,,,,5,8,58,1,,,,,,,,,,,,,,,AMSA07.jpg,AMSA16.jpg,AMNE12.jpg,AMNE01.jpg,AMNE12.jpg,MN,1,num_2,48,None,,,,2017_Aug_09_1130,60.0053696483,MAFE4ImagesEEG,001,201124,
AFNE01.JPG,AFNE01.JPG,AFNE01.JPG,AFNE01.JPG,AFNE01.JPG,AFNE01.JPG,,,,,,,,,5,9,59,0,,,,,,,,,,,,,,,AMSA01.jpg,AMNE08.jpg,AMSA04.jpg,AMNE20.jpg,AMSA04.jpg,MS,2,num_2,48,None,,,,2017_Aug_09_1130,60.0053696483,MAFE4ImagesEEG,001,201124,
,,,,,,,,,,,,,,,,,,,,,,,,,,,,,,,,,,,,,,,,,,,space,101.609006896,2017_Aug_09_1130,60.0053696483,MAFE4ImagesEEG,001,201124,
AFNE01.JPG,AFNE01.JPG,AFNE01.JPG,AFNE01.JPG,AFNE01.JPG,AFNE01.JPG,,,,,,,,,,,,,0,0,0,0,,,,,,,,,,,AFNE18.jpg,AFNE08.jpg,AFSA08.jpg,AFSA16.jpg,AFNE18.jpg,FN,3,num_8,48,None,,,,2017_Aug_09_1130,60.0053696483,MAFE4ImagesEEG,001,201124,
AFNE01.JPG,AFNE01.JPG,AFNE01.JPG,AFNE01.JPG,AFNE01.JPG,AFNE01.JPG,,,,,,,,,,,,,0,1,1,6,,,,,,,,,,,AFSA07.jpg,AFSA18.jpg,AFNE20.jpg,AFNE08.jpg,AFSA07.jpg,FS,4,num_8,32,num_4,1.09996892023,,,2017_Aug_09_1130,60.0053696483,MAFE4ImagesEEG,001,201124,
AFNE01.JPG,AFNE01.JPG,AFNE01.JPG,AFNE01.JPG,AFNE01.JPG,AFNE01.JPG,,,,,,,,,,,,,0,2,2,5,,,,,,,,,,,AFSA07.jpg,AFNE04.jpg,AFSA03.jpg,AFNE14.jpg,AFNE04.jpg,FN,3,num_6,32,num_8,1.23347378545,,,2017_Aug_09_1130,60.0053696483,MAFE4ImagesEEG,001,201124,
AFNE01.JPG,AFNE01.JPG,AFNE01.JPG,AFNE01.JPG,AFNE01.JPG,AFNE01.JPG,,,,,,,,,,,,,0,3,3,8,,,,,,,,,,,AFSA11.jpg,AFSA13.jpg,AFNE15.jpg,AFNE16.jpg,AFSA11.jpg,FS,4,num_8,48,None,,,,2017_Aug_09_1130,60.0053696483,MAFE4ImagesEEG,001,201124,
AFNE01.JPG,AFNE01.JPG,AFNE01.JPG,AFNE01.JPG,AFNE01.JPG,AFNE01.JPG,,,,,,,,,,,,,0,4,4,3,,,,,,,,,,,AFSA01.jpg,AFNE02.jpg,AFSA20.jpg,AFNE10.jpg,AFSA20.jpg,FS,4,num_2,32,num_6,1.43344466225,,,2017_Aug_09_1130,60.0053696483,MAFE4ImagesEEG,001,201124,
AFNE01.JPG,AFNE01.JPG,AFNE01.JPG,AFNE01.JPG,AFNE01.JPG,AFNE01.JPG,,,,,,,,,,,,,0,5,5,4,,,,,,,,,,,AFSA08.jpg,AFNE07.jpg,AFSA13.jpg,AFNE18.jpg,AFNE07.jpg,FN,3,num_6,16,num_6,0.700153538259,,,2017_Aug_09_1130,60.0053696483,MAFE4ImagesEEG,001,201124,
AFNE01.JPG,AFNE01.JPG,AFNE01.JPG,AFNE01.JPG,AFNE01.JPG,AFNE01.JPG,,,,,,,,,,,,,0,6,6,1,,,,,,,,,,,AFSA19.jpg,AFSA07.jpg,AFNE13.jpg,AFNE03.jpg,AFNE13.jpg,FN,3,num_2,32,num_4,0.900109661045,,,2017_Aug_09_1130,60.0053696483,MAFE4ImagesEEG,001,201124,
AFNE01.JPG,AFNE01.JPG,AFNE01.JPG,AFNE01.JPG,AFNE01.JPG,AFNE01.JPG,,,,,,,,,,,,,0,7,7,2,,,,,,,,,,,AFSA08.jpg,AFSA18.jpg,AFNE05.jpg,AFNE18.jpg,AFSA18.jpg,FS,4,num_6,32,num_2,1.36679390422,,,2017_Aug_09_1130,60.0053696483,MAFE4ImagesEEG,001,201124,
AFNE01.JPG,AFNE01.JPG,AFNE01.JPG,AFNE01.JPG,AFNE01.JPG,AFNE01.JPG,,,,,,,,,,,,,0,8,8,9,,,,,,,,,,,AFNE10.jpg,AFNE01.jpg,AFSA10.jpg,AFSA15.jpg,AFNE01.jpg,FN,3,num_6,32,num_4,1.01677406649,,,2017_Aug_09_1130,60.0053696483,MAFE4ImagesEEG,001,201124,
AFNE01.JPG,AFNE01.JPG,AFNE01.JPG,AFNE01.JPG,AFNE01.JPG,AFNE01.JPG,,,,,,,,,,,,,0,9,9,7,,,,,,,,,,,AFNE05.jpg,AFSA09.jpg,AFNE08.jpg,AFSA12.jpg,AFSA12.jpg,FS,4,num_4,16,num_4,2.88331442582,,,2017_Aug_09_1130,60.0053696483,MAFE4ImagesEEG,001,201124,
AFNE01.JPG,AFNE01.JPG,AFNE01.JPG,AFNE01.JPG,AFNE01.JPG,AFNE01.JPG,,,,,,,,,,,,,1,0,10,8,,,,,,,,,,,AFSA06.jpg,AFNE10.jpg,AFNE19.jpg,AFSA01.jpg,AFNE19.jpg,FN,3,num_2,16,num_2,1.68334932229,,,2017_Aug_09_1130,60.0053696483,MAFE4ImagesEEG,001,201124,
AFNE01.JPG,AFNE01.JPG,AFNE01.JPG,AFNE01.JPG,AFNE01.JPG,AFNE01.JPG,,,,,,,,,,,,,1,1,11,0,,,,,,,,,,,AFSA17.jpg,AFNE04.jpg,AFSA04.jpg,AFNE10.jpg,AFSA17.jpg,FS,4,num_8,32,num_4,2.70007944712,,,2017_Aug_09_1130,60.0053696483,MAFE4ImagesEEG,001,201124,
AFNE01.JPG,AFNE01.JPG,AFNE01.JPG,AFNE01.JPG,AFNE01.JPG,AFNE01.JPG,,,,,,,,,,,,,1,2,12,6,,,,,,,,,,,AFSA10.jpg,AFNE14.jpg,AFNE13.jpg,AFSA17.jpg,AFNE14.jpg,FN,3,num_6,32,num_2,1.4001114252,,,2017_Aug_09_1130,60.0053696483,MAFE4ImagesEEG,001,201124,
AFNE01.JPG,AFNE01.JPG,AFNE01.JPG,AFNE01.JPG,AFNE01.JPG,AFNE01.JPG,,,,,,,,,,,,,1,3,13,5,,,,,,,,,,,AFSA13.jpg,AFNE02.jpg,AFNE01.jpg,AFSA07.jpg,AFNE01.jpg,FN,3,num_2,32,num_6,1.46676057926,,,2017_Aug_09_1130,60.0053696483,MAFE4ImagesEEG,001,201124,
AFNE01.JPG,AFNE01.JPG,AFNE01.JPG,AFNE01.JPG,AFNE01.JPG,AFNE01.JPG,,,,,,,,,,,,,1,4,14,7,,,,,,,,,,,AFSA10.jpg,AFNE06.jpg,AFSA04.jpg,AFNE04.jpg,AFNE06.jpg,FN,3,num_6,32,num_8,1.28345471737,,,2017_Aug_09_1130,60.0053696483,MAFE4ImagesEEG,001,201124,
AFNE01.JPG,AFNE01.JPG,AFNE01.JPG,AFNE01.JPG,AFNE01.JPG,AFNE01.JPG,,,,,,,,,,,,,1,5,15,2,,,,,,,,,,,AFSA03.jpg,AFNE11.jpg,AFSA18.jpg,AFNE13.jpg,AFSA03.jpg,FS,4,num_8,16,num_8,1.81653088122,,,2017_Aug_09_1130,60.0053696483,MAFE4ImagesEEG,001,201124,
AFNE01.JPG,AFNE01.JPG,AFNE01.JPG,AFNE01.JPG,AFNE01.JPG,AFNE01.JPG,,,,,,,,,,,,,1,6,16,3,,,,,,,,,,,AFNE02.jpg,AFNE13.jpg,AFSA16.jpg,AFSA03.jpg,AFSA16.jpg,FS,4,num_2,16,num_2,1.55005293805,,,2017_Aug_09_1130,60.0053696483,MAFE4ImagesEEG,001,201124,
AFNE01.JPG,AFNE01.JPG,AFNE01.JPG,AFNE01.JPG,AFNE01.JPG,AFNE01.JPG,,,,,,,,,,,,,1,7,17,9,,,,,,,,,,,AFSA06.jpg,AFSA13.jpg,AFNE19.jpg,AFNE02.jpg,AFSA06.jpg,FS,4,num_8,32,num_6,0.750155639136,,,2017_Aug_09_1130,60.0053696483,MAFE4ImagesEEG,001,201124,
AFNE01.JPG,AFNE01.JPG,AFNE01.JPG,AFNE01.JPG,AFNE01.JPG,AFNE01.JPG,,,,,,,,,,,,,1,8,18,4,,,,,,,,,,,AFSA01.jpg,AFNE19.jpg,AFSA20.jpg,AFNE20.jpg,AFSA01.jpg,FS,4,num_8,16,num_8,1.20045198686,,,2017_Aug_09_1130,60.0053696483,MAFE4ImagesEEG,001,201124,
AFNE01.JPG,AFNE01.JPG,AFNE01.JPG,AFNE01.JPG,AFNE01.JPG,AFNE01.JPG,,,,,,,,,,,,,1,9,19,1,,,,,,,,,,,AFSA14.jpg,AFSA08.jpg,AFNE07.jpg,AFNE16.jpg,AFSA08.jpg,FS,4,num_6,16,num_6,1.50003447966,,,2017_Aug_09_1130,60.0053696483,MAFE4ImagesEEG,001,201124,
AFNE01.JPG,AFNE01.JPG,AFNE01.JPG,AFNE01.JPG,AFNE01.JPG,AFNE01.JPG,,,,,,,,,,,,,2,0,20,7,,,,,,,,,,,AFNE11.jpg,AFSA02.jpg,AFNE20.jpg,AFSA14.jpg,AFSA14.jpg,FS,4,num_4,16,num_4,0.700177593622,,,2017_Aug_09_1130,60.0053696483,MAFE4ImagesEEG,001,201124,
AFNE01.JPG,AFNE01.JPG,AFNE01.JPG,AFNE01.JPG,AFNE01.JPG,AFNE01.JPG,,,,,,,,,,,,,2,1,21,5,,,,,,,,,,,AFNE09.jpg,AFNE12.jpg,AFSA17.jpg,AFSA02.jpg,AFSA02.jpg,FS,4,num_4,16,num_4,1.65007862938,,,2017_Aug_09_1130,60.0053696483,MAFE4ImagesEEG,001,201124,
AFNE01.JPG,AFNE01.JPG,AFNE01.JPG,AFNE01.JPG,AFNE01.JPG,AFNE01.JPG,,,,,,,,,,,,,2,2,22,8,,,,,,,,,,,AFSA06.jpg,AFNE08.jpg,AFSA02.jpg,AFNE18.jpg,AFSA06.jpg,FS,4,num_8,16,num_8,0.966820076574,,,2017_Aug_09_1130,60.0053696483,MAFE4ImagesEEG,001,201124,
AFNE01.JPG,AFNE01.JPG,AFNE01.JPG,AFNE01.JPG,AFNE01.JPG,AFNE01.JPG,,,,,,,,,,,,,2,3,23,2,,,,,,,,,,,AFSA06.jpg,AFNE04.jpg,AFNE12.jpg,AFSA07.jpg,AFNE12.jpg,FN,3,num_2,32,num_6,1.23341990099,,,2017_Aug_09_1130,60.0053696483,MAFE4ImagesEEG,001,201124,
AFNE01.JPG,AFNE01.JPG,AFNE01.JPG,AFNE01.JPG,AFNE01.JPG,AFNE01.JPG,,,,,,,,,,,,,2,4,24,0,,,,,,,,,,,AFNE03.jpg,AFNE14.jpg,AFSA16.jpg,AFSA05.jpg,AFSA16.jpg,FS,4,num_2,16,num_2,1.90007822844,,,2017_Aug_09_1130,60.0053696483,MAFE4ImagesEEG,001,201124,
AFNE01.JPG,AFNE01.JPG,AFNE01.JPG,AFNE01.JPG,AFNE01.JPG,AFNE01.JPG,,,,,,,,,,,,,2,5,25,3,,,,,,,,,,,AFNE17.jpg,AFNE09.jpg,AFSA16.jpg,AFSA06.jpg,AFSA16.jpg,FS,4,num_2,32,num_4,0.816846489441,,,2017_Aug_09_1130,60.0053696483,MAFE4ImagesEEG,001,201124,
AFNE01.JPG,AFNE01.JPG,AFNE01.JPG,AFNE01.JPG,AFNE01.JPG,AFNE01.JPG,,,,,,,,,,,,,2,6,26,9,,,,,,,,,,,AFNE19.jpg,AFNE17.jpg,AFSA19.jpg,AFSA16.jpg,AFNE17.jpg,FN,3,num_6,32,num_8,1.48339512409,,,2017_Aug_09_1130,60.0053696483,MAFE4ImagesEEG,001,201124,
AFNE01.JPG,AFNE01.JPG,AFNE01.JPG,AFNE01.JPG,AFNE01.JPG,AFNE01.JPG,,,,,,,,,,,,,2,7,27,6,,,,,,,,,,,AFNE13.jpg,AFNE14.jpg,AFSA12.jpg,AFSA09.jpg,AFSA12.jpg,FS,4,num_2,16,num_2,2.28336811741,,,2017_Aug_09_1130,60.0053696483,MAFE4ImagesEEG,001,201124,
AFNE01.JPG,AFNE01.JPG,AFNE01.JPG,AFNE01.JPG,AFNE01.JPG,AFNE01.JPG,,,,,,,,,,,,,2,8,28,4,,,,,,,,,,,AFSA19.jpg,AFNE13.jpg,AFSA04.jpg,AFNE19.jpg,AFNE13.jpg,FN,3,num_6,16,num_6,0.683493655175,,,2017_Aug_09_1130,60.0053696483,MAFE4ImagesEEG,001,201124,
AFNE01.JPG,AFNE01.JPG,AFNE01.JPG,AFNE01.JPG,AFNE01.JPG,AFNE01.JPG,,,,,,,,,,,,,2,9,29,1,,,,,,,,,,,AFSA10.jpg,AFNE08.jpg,AFSA17.jpg,AFNE12.jpg,AFNE08.jpg,FN,3,num_6,32,num_4,1.00012316415,,,2017_Aug_09_1130,60.0053696483,MAFE4ImagesEEG,001,201124,
AFNE01.JPG,AFNE01.JPG,AFNE01.JPG,AFNE01.JPG,AFNE01.JPG,AFNE01.JPG,,,,,,,,,,,,,3,0,30,9,,,,,,,,,,,AFNE11.jpg,AFSA02.jpg,AFSA15.jpg,AFNE15.jpg,AFNE11.jpg,FN,3,num_8,32,num_6,0.916757035302,,,2017_Aug_09_1130,60.0053696483,MAFE4ImagesEEG,001,201124,
AFNE01.JPG,AFNE01.JPG,AFNE01.JPG,AFNE01.JPG,AFNE01.JPG,AFNE01.JPG,,,,,,,,,,,,,3,1,31,7,,,,,,,,,,,AFSA15.jpg,AFSA11.jpg,AFNE01.jpg,AFNE02.jpg,AFSA11.jpg,FS,4,num_6,16,num_6,1.08350789617,,,2017_Aug_09_1130,60.0053696483,MAFE4ImagesEEG,001,201124,
AFNE01.JPG,AFNE01.JPG,AFNE01.JPG,AFNE01.JPG,AFNE01.JPG,AFNE01.JPG,,,,,,,,,,,,,3,2,32,6,,,,,,,,,,,AFNE06.jpg,AFNE01.jpg,AFSA16.jpg,AFSA11.jpg,AFNE01.jpg,FN,3,num_6,16,num_6,0.85013289866,,,2017_Aug_09_1130,60.0053696483,MAFE4ImagesEEG,001,201124,
AFNE01.JPG,AFNE01.JPG,AFNE01.JPG,AFNE01.JPG,AFNE01.JPG,AFNE01.JPG,,,,,,,,,,,,,3,3,33,5,,,,,,,,,,,AFSA18.jpg,AFSA11.jpg,AFNE03.jpg,AFNE14.jpg,AFNE03.jpg,FN,3,num_2,32,num_6,1.35009360802,,,2017_Aug_09_1130,60.0053696483,MAFE4ImagesEEG,001,201124,
AFNE01.JPG,AFNE01.JPG,AFNE01.JPG,AFNE01.JPG,AFNE01.JPG,AFNE01.JPG,,,,,,,,,,,,,3,4,34,4,,,,,,,,,,,AFSA11.jpg,AFNE03.jpg,AFNE16.jpg,AFSA17.jpg,AFNE16.jpg,FN,3,num_2,32,num_4,0.650217189221,,,2017_Aug_09_1130,60.0053696483,MAFE4ImagesEEG,001,201124,
AFNE01.JPG,AFNE01.JPG,AFNE01.JPG,AFNE01.JPG,AFNE01.JPG,AFNE01.JPG,,,,,,,,,,,,,3,5,35,3,,,,,,,,,,,AFNE13.jpg,AFSA02.jpg,AFNE18.jpg,AFSA14.jpg,AFNE13.jpg,FN,3,num_8,32,num_4,2.0000811473,,,2017_Aug_09_1130,60.0053696483,MAFE4ImagesEEG,001,201124,
AFNE01.JPG,AFNE01.JPG,AFNE01.JPG,AFNE01.JPG,AFNE01.JPG,AFNE01.JPG,,,,,,,,,,,,,3,6,36,8,,,,,,,,,,,AFSA20.jpg,AFSA06.jpg,AFNE15.jpg,AFNE10.jpg,AFNE10.jpg,FN,3,num_4,32,num_2,1.36678941385,,,2017_Aug_09_1130,60.0053696483,MAFE4ImagesEEG,001,201124,
AFNE01.JPG,AFNE01.JPG,AFNE01.JPG,AFNE01.JPG,AFNE01.JPG,AFNE01.JPG,,,,,,,,,,,,,3,7,37,1,,,,,,,,,,,AFSA06.jpg,AFSA08.jpg,AFNE04.jpg,AFNE02.jpg,AFNE04.jpg,FN,3,num_2,16,num_2,0.633502459619,,,2017_Aug_09_1130,60.0053696483,MAFE4ImagesEEG,001,201124,
AFNE01.JPG,AFNE01.JPG,AFNE01.JPG,AFNE01.JPG,AFNE01.JPG,AFNE01.JPG,,,,,,,,,,,,,3,8,38,2,,,,,,,,,,,AFSA10.jpg,AFSA17.jpg,AFNE16.jpg,AFNE11.jpg,AFSA17.jpg,FS,4,num_6,32,num_2,0.966662272578,,,2017_Aug_09_1130,60.0053696483,MAFE4ImagesEEG,001,201124,
AFNE01.JPG,AFNE01.JPG,AFNE01.JPG,AFNE01.JPG,AFNE01.JPG,AFNE01.JPG,,,,,,,,,,,,,3,9,39,0,,,,,,,,,,,AFSA17.jpg,AFNE16.jpg,AFNE04.jpg,AFSA09.jpg,AFSA09.jpg,FS,4,num_4,32,num_2,1.15014871117,,,2017_Aug_09_1130,60.0053696483,MAFE4ImagesEEG,001,201124,
AFNE01.JPG,AFNE01.JPG,AFNE01.JPG,AFNE01.JPG,AFNE01.JPG,AFNE01.JPG,,,,,,,,,,,,,4,0,40,0,,,,,,,,,,,AFNE06.jpg,AFNE02.jpg,AFSA13.jpg,AFSA10.jpg,AFSA10.jpg,FS,4,num_4,16,num_4,1.16676401114,,,2017_Aug_09_1130,60.0053696483,MAFE4ImagesEEG,001,201124,
AFNE01.JPG,AFNE01.JPG,AFNE01.JPG,AFNE01.JPG,AFNE01.JPG,AFNE01.JPG,,,,,,,,,,,,,4,1,41,2,,,,,,,,,,,AFSA10.jpg,AFNE04.jpg,AFNE08.jpg,AFSA05.jpg,AFSA10.jpg,FS,4,num_8,32,num_2,1.08348384057,,,2017_Aug_09_1130,60.0053696483,MAFE4ImagesEEG,001,201124,
AFNE01.JPG,AFNE01.JPG,AFNE01.JPG,AFNE01.JPG,AFNE01.JPG,AFNE01.JPG,,,,,,,,,,,,,4,2,42,3,,,,,,,,,,,AFNE04.jpg,AFNE10.jpg,AFSA07.jpg,AFSA11.jpg,AFNE04.jpg,FN,3,num_8,16,num_8,0.66678630258,,,2017_Aug_09_1130,60.0053696483,MAFE4ImagesEEG,001,201124,
AFNE01.JPG,AFNE01.JPG,AFNE01.JPG,AFNE01.JPG,AFNE01.JPG,AFNE01.JPG,,,,,,,,,,,,,4,3,43,4,,,,,,,,,,,AFNE05.jpg,AFNE19.jpg,AFSA16.jpg,AFSA18.jpg,AFNE19.jpg,FN,3,num_6,32,num_2,0.883504624479,,,2017_Aug_09_1130,60.0053696483,MAFE4ImagesEEG,001,201124,
AFNE01.JPG,AFNE01.JPG,AFNE01.JPG,AFNE01.JPG,AFNE01.JPG,AFNE01.JPG,,,,,,,,,,,,,4,4,44,6,,,,,,,,,,,AFSA10.jpg,AFSA11.jpg,AFNE20.jpg,AFNE05.jpg,AFSA10.jpg,FS,4,num_8,32,num_6,0.866738576675,,,2017_Aug_09_1130,60.0053696483,MAFE4ImagesEEG,001,201124,
AFNE01.JPG,AFNE01.JPG,AFNE01.JPG,AFNE01.JPG,AFNE01.JPG,AFNE01.JPG,,,,,,,,,,,,,4,5,45,5,,,,,,,,,,,AFNE20.jpg,AFSA03.jpg,AFNE10.jpg,AFSA09.jpg,AFNE10.jpg,FN,3,num_2,32,num_6,1.48345381953,,,2017_Aug_09_1130,60.0053696483,MAFE4ImagesEEG,001,201124,
AFNE01.JPG,AFNE01.JPG,AFNE01.JPG,AFNE01.JPG,AFNE01.JPG,AFNE01.JPG,,,,,,,,,,,,,4,6,46,1,,,,,,,,,,,AFNE09.jpg,AFSA07.jpg,AFSA16.jpg,AFNE11.jpg,AFNE11.jpg,FN,3,num_4,32,num_2,0.850136106135,,,2017_Aug_09_1130,60.0053696483,MAFE4ImagesEEG,001,201124,
AFNE01.JPG,AFNE01.JPG,AFNE01.JPG,AFNE01.JPG,AFNE01.JPG,AFNE01.JPG,,,,,,,,,,,,,4,7,47,7,,,,,,,,,,,AFNE01.jpg,AFNE05.jpg,AFSA03.jpg,AFSA06.jpg,AFSA06.jpg,FS,4,num_4,32,num_6,1.7000656554,,,2017_Aug_09_1130,60.0053696483,MAFE4ImagesEEG,001,201124,
AFNE01.JPG,AFNE01.JPG,AFNE01.JPG,AFNE01.JPG,AFNE01.JPG,AFNE01.JPG,,,,,,,,,,,,,4,8,48,8,,,,,,,,,,,AFSA10.jpg,AFSA06.jpg,AFNE15.jpg,AFNE09.jpg,AFNE09.jpg,FN,3,num_4,32,num_2,0.816795171238,,,2017_Aug_09_1130,60.0053696483,MAFE4ImagesEEG,001,201124,
AFNE01.JPG,AFNE01.JPG,AFNE01.JPG,AFNE01.JPG,AFNE01.JPG,AFNE01.JPG,,,,,,,,,,,,,4,9,49,9,,,,,,,,,,,AFNE11.jpg,AFSA06.jpg,AFSA08.jpg,AFNE18.jpg,AFNE18.jpg,FN,3,num_4,16,num_4,0.550179951126,,,2017_Aug_09_1130,60.0053696483,MAFE4ImagesEEG,001,201124,
AFNE01.JPG,AFNE01.JPG,AFNE01.JPG,AFNE01.JPG,AFNE01.JPG,AFNE01.JPG,,,,,,,,,,,,,5,0,50,0,,,,,,,,,,,AFSA15.jpg,AFNE05.jpg,AFSA01.jpg,AFNE06.jpg,AFNE05.jpg,FN,3,num_6,32,num_2,1.03348270198,,,2017_Aug_09_1130,60.0053696483,MAFE4ImagesEEG,001,201124,
AFNE01.JPG,AFNE01.JPG,AFNE01.JPG,AFNE01.JPG,AFNE01.JPG,AFNE01.JPG,,,,,,,,,,,,,5,1,51,2,,,,,,,,,,,AFNE11.jpg,AFSA04.jpg,AFSA18.jpg,AFNE09.jpg,AFNE11.jpg,FN,3,num_8,16,num_8,0.216797865462,,,2017_Aug_09_1130,60.0053696483,MAFE4ImagesEEG,001,201124,
AFNE01.JPG,AFNE01.JPG,AFNE01.JPG,AFNE01.JPG,AFNE01.JPG,AFNE01.JPG,,,,,,,,,,,,,5,2,52,8,,,,,,,,,,,AFSA19.jpg,AFNE11.jpg,AFSA17.jpg,AFNE18.jpg,AFSA17.jpg,FS,4,num_2,32,num_8,0.800145231187,,,2017_Aug_09_1130,60.0053696483,MAFE4ImagesEEG,001,201124,
AFNE01.JPG,AFNE01.JPG,AFNE01.JPG,AFNE01.JPG,AFNE01.JPG,AFNE01.JPG,,,,,,,,,,,,,5,3,53,4,,,,,,,,,,,AFNE02.jpg,AFSA13.jpg,AFSA12.jpg,AFNE14.jpg,AFSA12.jpg,FS,4,num_2,16,num_2,0.866784763057,,,2017_Aug_09_1130,60.0053696483,MAFE4ImagesEEG,001,201124,
AFNE01.JPG,AFNE01.JPG,AFNE01.JPG,AFNE01.JPG,AFNE01.JPG,AFNE01.JPG,,,,,,,,,,,,,5,4,54,5,,,,,,,,,,,AFSA17.jpg,AFNE17.jpg,AFNE05.jpg,AFSA03.jpg,AFNE05.jpg,FN,3,num_2,32,num_4,0.666785661131,,,2017_Aug_09_1130,60.0053696483,MAFE4ImagesEEG,001,201124,
AFNE01.JPG,AFNE01.JPG,AFNE01.JPG,AFNE01.JPG,AFNE01.JPG,AFNE01.JPG,,,,,,,,,,,,,5,5,55,7,,,,,,,,,,,AFNE15.jpg,AFSA02.jpg,AFNE05.jpg,AFSA12.jpg,AFNE15.jpg,FN,3,num_8,32,num_6,0.533537388081,,,2017_Aug_09_1130,60.0053696483,MAFE4ImagesEEG,001,201124,
AFNE01.JPG,AFNE01.JPG,AFNE01.JPG,AFNE01.JPG,AFNE01.JPG,AFNE01.JPG,,,,,,,,,,,,,5,6,56,6,,,,,,,,,,,AFNE10.jpg,AFSA09.jpg,AFSA03.jpg,AFNE09.jpg,AFSA09.jpg,FS,4,num_6,32,num_8,0.400146065047,,,2017_Aug_09_1130,60.0053696483,MAFE4ImagesEEG,001,201124,
AFNE01.JPG,AFNE01.JPG,AFNE01.JPG,AFNE01.JPG,AFNE01.JPG,AFNE01.JPG,,,,,,,,,,,,,5,7,57,9,,,,,,,,,,,AFSA09.jpg,AFSA06.jpg,AFNE07.jpg,AFNE11.jpg,AFSA09.jpg,FS,4,num_8,16,num_8,0.350221262546,,,2017_Aug_09_1130,60.0053696483,MAFE4ImagesEEG,001,201124,
AFNE01.JPG,AFNE01.JPG,AFNE01.JPG,AFNE01.JPG,AFNE01.JPG,AFNE01.JPG,,,,,,,,,,,,,5,8,58,3,,,,,,,,,,,AFNE08.jpg,AFSA06.jpg,AFNE05.jpg,AFSA17.jpg,AFSA17.jpg,FS,4,num_4,32,num_2,1.03333387873,,,2017_Aug_09_1130,60.0053696483,MAFE4ImagesEEG,001,201124,
AFNE01.JPG,AFNE01.JPG,AFNE01.JPG,AFNE01.JPG,AFNE01.JPG,AFNE01.JPG,,,,,,,,,,,,,5,9,59,1,,,,,,,,,,,AFSA06.jpg,AFNE04.jpg,AFNE14.jpg,AFSA13.jpg,AFNE04.jpg,FN,3,num_6,32,num_4,1.15011471277,,,2017_Aug_09_1130,60.0053696483,MAFE4ImagesEEG,001,201124,
,,,,,,,,,,,,,,,,,,,,,,,,,,,,,,,,,,,,,,,,,,,space,57.2794400135,2017_Aug_09_1130,60.0053696483,MAFE4ImagesEEG,001,201124,
AFNE01.JPG,AFNE01.JPG,AFNE01.JPG,AFNE01.JPG,AFNE01.JPG,AFNE01.JPG,,,,,,,,,,,,,,,,,0,0,0,8,,,,,,,AMSA15.jpg,AMNE03.jpg,AMNE09.jpg,AMSA09.jpg,AMSA09.jpg,MS,2,num_4,16,num_4,1.01678946195,,,2017_Aug_09_1130,60.0053696483,MAFE4ImagesEEG,001,201124,
AFNE01.JPG,AFNE01.JPG,AFNE01.JPG,AFNE01.JPG,AFNE01.JPG,AFNE01.JPG,,,,,,,,,,,,,,,,,0,1,1,5,,,,,,,AMNE17.jpg,AMNE11.jpg,AMSA07.jpg,AMSA09.jpg,AMNE11.jpg,MN,1,num_6,32,num_8,0.400155366398,,,2017_Aug_09_1130,60.0053696483,MAFE4ImagesEEG,001,201124,
AFNE01.JPG,AFNE01.JPG,AFNE01.JPG,AFNE01.JPG,AFNE01.JPG,AFNE01.JPG,,,,,,,,,,,,,,,,,0,2,2,2,,,,,,,AMNE01.jpg,AMSA02.jpg,AMNE11.jpg,AMSA09.jpg,AMNE01.jpg,MN,1,num_8,16,num_8,0.450190183008,,,2017_Aug_09_1130,60.0053696483,MAFE4ImagesEEG,001,201124,
AFNE01.JPG,AFNE01.JPG,AFNE01.JPG,AFNE01.JPG,AFNE01.JPG,AFNE01.JPG,,,,,,,,,,,,,,,,,0,3,3,3,,,,,,,AMNE05.jpg,AMSA17.jpg,AMSA12.jpg,AMNE02.jpg,AMSA12.jpg,MS,2,num_2,32,num_8,0.533462976338,,,2017_Aug_09_1130,60.0053696483,MAFE4ImagesEEG,001,201124,
AFNE01.JPG,AFNE01.JPG,AFNE01.JPG,AFNE01.JPG,AFNE01.JPG,AFNE01.JPG,,,,,,,,,,,,,,,,,0,4,4,9,,,,,,,AMSA12.jpg,AMNE08.jpg,AMNE19.jpg,AMSA06.jpg,AMSA06.jpg,MS,2,num_4,16,num_4,0.366819242714,,,2017_Aug_09_1130,60.0053696483,MAFE4ImagesEEG,001,201124,
AFNE01.JPG,AFNE01.JPG,AFNE01.JPG,AFNE01.JPG,AFNE01.JPG,AFNE01.JPG,,,,,,,,,,,,,,,,,0,5,5,0,,,,,,,AMNE02.jpg,AMSA16.jpg,AMSA15.jpg,AMNE15.jpg,AMNE02.jpg,MN,1,num_8,32,num_2,0.916766016046,,,2017_Aug_09_1130,60.0053696483,MAFE4ImagesEEG,001,201124,
AFNE01.JPG,AFNE01.JPG,AFNE01.JPG,AFNE01.JPG,AFNE01.JPG,AFNE01.JPG,,,,,,,,,,,,,,,,,0,6,6,4,,,,,,,AMNE03.jpg,AMSA10.jpg,AMSA04.jpg,AMNE16.jpg,AMNE03.jpg,MN,1,num_8,16,num_8,1.100118706,,,2017_Aug_09_1130,60.0053696483,MAFE4ImagesEEG,001,201124,
AFNE01.JPG,AFNE01.JPG,AFNE01.JPG,AFNE01.JPG,AFNE01.JPG,AFNE01.JPG,,,,,,,,,,,,,,,,,0,7,7,6,,,,,,,AMSA18.jpg,AMNE03.jpg,AMNE05.jpg,AMSA07.jpg,AMNE05.jpg,MN,1,num_2,16,num_2,1.34993612464,,,2017_Aug_09_1130,60.0053696483,MAFE4ImagesEEG,001,201124,
AFNE01.JPG,AFNE01.JPG,AFNE01.JPG,AFNE01.JPG,AFNE01.JPG,AFNE01.JPG,,,,,,,,,,,,,,,,,0,8,8,7,,,,,,,AMNE08.jpg,AMNE16.jpg,AMSA14.jpg,AMSA01.jpg,AMSA01.jpg,MS,2,num_4,16,num_4,0.950140307657,,,2017_Aug_09_1130,60.0053696483,MAFE4ImagesEEG,001,201124,
AFNE01.JPG,AFNE01.JPG,AFNE01.JPG,AFNE01.JPG,AFNE01.JPG,AFNE01.JPG,,,,,,,,,,,,,,,,,0,9,9,1,,,,,,,AMSA14.jpg,AMNE12.jpg,AMSA11.jpg,AMNE20.jpg,AMNE12.jpg,MN,1,num_6,16,num_6,1.08343508816,,,2017_Aug_09_1130,60.0053696483,MAFE4ImagesEEG,001,201124,
AFNE01.JPG,AFNE01.JPG,AFNE01.JPG,AFNE01.JPG,AFNE01.JPG,AFNE01.JPG,,,,,,,,,,,,,,,,,1,0,10,7,,,,,,,AMSA03.jpg,AMNE11.jpg,AMNE02.jpg,AMSA01.jpg,AMSA01.jpg,MS,2,num_4,16,num_4,1.78339522029,,,2017_Aug_09_1130,60.0053696483,MAFE4ImagesEEG,001,201124,
AFNE01.JPG,AFNE01.JPG,AFNE01.JPG,AFNE01.JPG,AFNE01.JPG,AFNE01.JPG,,,,,,,,,,,,,,,,,1,1,11,2,,,,,,,AMSA14.jpg,AMSA03.jpg,AMNE14.jpg,AMNE05.jpg,AMSA03.jpg,MS,2,num_6,16,num_6,1.43341964437,,,2017_Aug_09_1130,60.0053696483,MAFE4ImagesEEG,001,201124,
AFNE01.JPG,AFNE01.JPG,AFNE01.JPG,AFNE01.JPG,AFNE01.JPG,AFNE01.JPG,,,,,,,,,,,,,,,,,1,2,12,8,,,,,,,AMNE01.jpg,AMNE20.jpg,AMSA16.jpg,AMSA09.jpg,AMSA09.jpg,MS,2,num_4,32,num_2,1.91656651557,,,2017_Aug_09_1130,60.0053696483,MAFE4ImagesEEG,001,201124,
AFNE01.JPG,AFNE01.JPG,AFNE01.JPG,AFNE01.JPG,AFNE01.JPG,AFNE01.JPG,,,,,,,,,,,,,,,,,1,3,13,4,,,,,,,AMNE15.jpg,AMSA06.jpg,AMNE20.jpg,AMSA03.jpg,AMNE15.jpg,MN,1,num_8,16,num_8,1.40009346348,,,2017_Aug_09_1130,60.0053696483,MAFE4ImagesEEG,001,201124,
AFNE01.JPG,AFNE01.JPG,AFNE01.JPG,AFNE01.JPG,AFNE01.JPG,AFNE01.JPG,,,,,,,,,,,,,,,,,1,4,14,0,,,,,,,AMNE10.jpg,AMSA17.jpg,AMNE03.jpg,AMSA06.jpg,AMNE10.jpg,MN,1,num_8,32,num_2,0.550140179461,,,2017_Aug_09_1130,60.0053696483,MAFE4ImagesEEG,001,201124,
AFNE01.JPG,AFNE01.JPG,AFNE01.JPG,AFNE01.JPG,AFNE01.JPG,AFNE01.JPG,,,,,,,,,,,,,,,,,1,5,15,5,,,,,,,AMSA10.jpg,AMNE05.jpg,AMSA01.jpg,AMNE06.jpg,AMSA01.jpg,MS,2,num_2,32,num_4,1.18342068698,,,2017_Aug_09_1130,60.0053696483,MAFE4ImagesEEG,001,201124,
AFNE01.JPG,AFNE01.JPG,AFNE01.JPG,AFNE01.JPG,AFNE01.JPG,AFNE01.JPG,,,,,,,,,,,,,,,,,1,6,16,9,,,,,,,AMSA20.jpg,AMNE13.jpg,AMSA11.jpg,AMNE06.jpg,AMSA11.jpg,MS,2,num_2,16,num_2,1.96676843753,,,2017_Aug_09_1130,60.0053696483,MAFE4ImagesEEG,001,201124,
AFNE01.JPG,AFNE01.JPG,AFNE01.JPG,AFNE01.JPG,AFNE01.JPG,AFNE01.JPG,,,,,,,,,,,,,,,,,1,7,17,1,,,,,,,AMNE14.jpg,AMNE04.jpg,AMSA20.jpg,AMSA02.jpg,AMNE14.jpg,MN,1,num_8,16,num_8,2.29976563528,,,2017_Aug_09_1130,60.0053696483,MAFE4ImagesEEG,001,201124,
AFNE01.JPG,AFNE01.JPG,AFNE01.JPG,AFNE01.JPG,AFNE01.JPG,AFNE01.JPG,,,,,,,,,,,,,,,,,1,8,18,3,,,,,,,AMSA12.jpg,AMNE08.jpg,AMNE04.jpg,AMSA18.jpg,AMSA12.jpg,MS,2,num_8,16,num_8,1.26674223295,,,2017_Aug_09_1130,60.0053696483,MAFE4ImagesEEG,001,201124,
AFNE01.JPG,AFNE01.JPG,AFNE01.JPG,AFNE01.JPG,AFNE01.JPG,AFNE01.JPG,,,,,,,,,,,,,,,,,1,9,19,6,,,,,,,AMSA08.jpg,AMSA16.jpg,AMNE14.jpg,AMNE20.jpg,AMSA16.jpg,MS,2,num_6,32,num_4,1.43340906012,,,2017_Aug_09_1130,60.0053696483,MAFE4ImagesEEG,001,201124,
AFNE01.JPG,AFNE01.JPG,AFNE01.JPG,AFNE01.JPG,AFNE01.JPG,AFNE01.JPG,,,,,,,,,,,,,,,,,2,0,20,4,,,,,,,AMNE11.jpg,AMSA04.jpg,AMSA06.jpg,AMNE20.jpg,AMSA04.jpg,MS,2,num_6,32,num_2,1.16669312771,,,2017_Aug_09_1130,60.0053696483,MAFE4ImagesEEG,001,201124,
AFNE01.JPG,AFNE01.JPG,AFNE01.JPG,AFNE01.JPG,AFNE01.JPG,AFNE01.JPG,,,,,,,,,,,,,,,,,2,1,21,2,,,,,,,AMNE04.jpg,AMNE12.jpg,AMSA15.jpg,AMSA11.jpg,AMNE12.jpg,MN,1,num_6,32,num_4,1.06675467757,,,2017_Aug_09_1130,60.0053696483,MAFE4ImagesEEG,001,201124,
AFNE01.JPG,AFNE01.JPG,AFNE01.JPG,AFNE01.JPG,AFNE01.JPG,AFNE01.JPG,,,,,,,,,,,,,,,,,2,2,22,0,,,,,,,AMSA19.jpg,AMNE10.jpg,AMSA10.jpg,AMNE02.jpg,AMNE02.jpg,MN,1,num_4,32,num_6,0.783608191647,,,2017_Aug_09_1130,60.0053696483,MAFE4ImagesEEG,001,201124,
AFNE01.JPG,AFNE01.JPG,AFNE01.JPG,AFNE01.JPG,AFNE01.JPG,AFNE01.JPG,,,,,,,,,,,,,,,,,2,3,23,7,,,,,,,AMNE05.jpg,AMSA04.jpg,AMNE12.jpg,AMSA15.jpg,AMSA15.jpg,MS,2,num_4,32,num_8,0.650134759024,,,2017_Aug_09_1130,60.0053696483,MAFE4ImagesEEG,001,201124,
AFNE01.JPG,AFNE01.JPG,AFNE01.JPG,AFNE01.JPG,AFNE01.JPG,AFNE01.JPG,,,,,,,,,,,,,,,,,2,4,24,9,,,,,,,AMNE10.jpg,AMSA16.jpg,AMSA10.jpg,AMNE13.jpg,AMSA10.jpg,MS,2,num_2,32,num_8,0.866728954483,,,2017_Aug_09_1130,60.0053696483,MAFE4ImagesEEG,001,201124,
AFNE01.JPG,AFNE01.JPG,AFNE01.JPG,AFNE01.JPG,AFNE01.JPG,AFNE01.JPG,,,,,,,,,,,,,,,,,2,5,25,6,,,,,,,AMSA05.jpg,AMNE16.jpg,AMNE19.jpg,AMSA17.jpg,AMSA05.jpg,MS,2,num_8,16,num_8,0.650224566227,,,2017_Aug_09_1130,60.0053696483,MAFE4ImagesEEG,001,201124,
AFNE01.JPG,AFNE01.JPG,AFNE01.JPG,AFNE01.JPG,AFNE01.JPG,AFNE01.JPG,,,,,,,,,,,,,,,,,2,6,26,8,,,,,,,AMNE08.jpg,AMSA18.jpg,AMSA12.jpg,AMNE17.jpg,AMSA12.jpg,MS,2,num_2,16,num_2,1.13347888528,,,2017_Aug_09_1130,60.0053696483,MAFE4ImagesEEG,001,201124,
AFNE01.JPG,AFNE01.JPG,AFNE01.JPG,AFNE01.JPG,AFNE01.JPG,AFNE01.JPG,,,,,,,,,,,,,,,,,2,7,27,3,,,,,,,AMNE09.jpg,AMSA08.jpg,AMSA03.jpg,AMNE15.jpg,AMNE09.jpg,MN,1,num_8,32,num_6,1.91668711393,,,2017_Aug_09_1130,60.0053696483,MAFE4ImagesEEG,001,201124,
AFNE01.JPG,AFNE01.JPG,AFNE01.JPG,AFNE01.JPG,AFNE01.JPG,AFNE01.JPG,,,,,,,,,,,,,,,,,2,8,28,5,,,,,,,AMSA12.jpg,AMNE05.jpg,AMSA02.jpg,AMNE18.jpg,AMSA12.jpg,MS,2,num_8,32,num_6,0.8835155298,,,2017_Aug_09_1130,60.0053696483,MAFE4ImagesEEG,001,201124,
AFNE01.JPG,AFNE01.JPG,AFNE01.JPG,AFNE01.JPG,AFNE01.JPG,AFNE01.JPG,,,,,,,,,,,,,,,,,2,9,29,1,,,,,,,AMNE05.jpg,AMSA03.jpg,AMNE15.jpg,AMSA18.jpg,AMSA18.jpg,MS,2,num_4,16,num_4,1.51673734165,,,2017_Aug_09_1130,60.0053696483,MAFE4ImagesEEG,001,201124,
AFNE01.JPG,AFNE01.JPG,AFNE01.JPG,AFNE01.JPG,AFNE01.JPG,AFNE01.JPG,,,,,,,,,,,,,,,,,3,0,30,9,,,,,,,AMSA17.jpg,AMNE12.jpg,AMSA02.jpg,AMNE11.jpg,AMSA02.jpg,MS,2,num_2,16,num_2,1.0504257984,,,2017_Aug_09_1130,60.0053696483,MAFE4ImagesEEG,001,201124,
AFNE01.JPG,AFNE01.JPG,AFNE01.JPG,AFNE01.JPG,AFNE01.JPG,AFNE01.JPG,,,,,,,,,,,,,,,,,3,1,31,8,,,,,,,AMSA17.jpg,AMNE20.jpg,AMNE14.jpg,AMSA01.jpg,AMSA01.jpg,MS,2,num_4,32,num_2,0.683483391767,,,2017_Aug_09_1130,60.0053696483,MAFE4ImagesEEG,001,201124,
AFNE01.JPG,AFNE01.JPG,AFNE01.JPG,AFNE01.JPG,AFNE01.JPG,AFNE01.JPG,,,,,,,,,,,,,,,,,3,2,32,0,,,,,,,AMNE19.jpg,AMSA02.jpg,AMSA15.jpg,AMNE15.jpg,AMNE19.jpg,MN,1,num_8,16,num_8,1.3002034456,,,2017_Aug_09_1130,60.0053696483,MAFE4ImagesEEG,001,201124,
AFNE01.JPG,AFNE01.JPG,AFNE01.JPG,AFNE01.JPG,AFNE01.JPG,AFNE01.JPG,,,,,,,,,,,,,,,,,3,3,33,3,,,,,,,AMNE10.jpg,AMSA17.jpg,AMNE09.jpg,AMSA13.jpg,AMNE10.jpg,MN,1,num_8,16,num_8,1.21669907751,,,2017_Aug_09_1130,60.0053696483,MAFE4ImagesEEG,001,201124,
AFNE01.JPG,AFNE01.JPG,AFNE01.JPG,AFNE01.JPG,AFNE01.JPG,AFNE01.JPG,,,,,,,,,,,,,,,,,3,4,34,1,,,,,,,AMSA09.jpg,AMSA06.jpg,AMNE08.jpg,AMNE09.jpg,AMSA09.jpg,MS,2,num_8,32,num_2,1.31695987121,,,2017_Aug_09_1130,60.0053696483,MAFE4ImagesEEG,001,201124,
AFNE01.JPG,AFNE01.JPG,AFNE01.JPG,AFNE01.JPG,AFNE01.JPG,AFNE01.JPG,,,,,,,,,,,,,,,,,3,5,35,2,,,,,,,AMSA03.jpg,AMNE09.jpg,AMNE12.jpg,AMSA15.jpg,AMNE12.jpg,MN,1,num_2,32,num_6,1.1834383274,,,2017_Aug_09_1130,60.0053696483,MAFE4ImagesEEG,001,201124,
AFNE01.JPG,AFNE01.JPG,AFNE01.JPG,AFNE01.JPG,AFNE01.JPG,AFNE01.JPG,,,,,,,,,,,,,,,,,3,6,36,4,,,,,,,AMSA15.jpg,AMNE05.jpg,AMSA06.jpg,AMNE14.jpg,AMSA15.jpg,MS,2,num_8,16,num_8,0.98344179173,,,2017_Aug_09_1130,60.0053696483,MAFE4ImagesEEG,001,201124,
AFNE01.JPG,AFNE01.JPG,AFNE01.JPG,AFNE01.JPG,AFNE01.JPG,AFNE01.JPG,,,,,,,,,,,,,,,,,3,7,37,7,,,,,,,AMNE10.jpg,AMSA18.jpg,AMSA04.jpg,AMNE14.jpg,AMSA04.jpg,MS,2,num_2,32,num_8,0.866762952879,,,2017_Aug_09_1130,60.0053696483,MAFE4ImagesEEG,001,201124,
AFNE01.JPG,AFNE01.JPG,AFNE01.JPG,AFNE01.JPG,AFNE01.JPG,AFNE01.JPG,,,,,,,,,,,,,,,,,3,8,38,6,,,,,,,AMSA16.jpg,AMNE11.jpg,AMSA01.jpg,AMNE12.jpg,AMSA16.jpg,MS,2,num_8,16,num_8,0.51687109028,,,2017_Aug_09_1130,60.0053696483,MAFE4ImagesEEG,001,201124,
AFNE01.JPG,AFNE01.JPG,AFNE01.JPG,AFNE01.JPG,AFNE01.JPG,AFNE01.JPG,,,,,,,,,,,,,,,,,3,9,39,5,,,,,,,AMSA02.jpg,AMSA20.jpg,AMNE03.jpg,AMNE04.jpg,AMSA20.jpg,MS,2,num_6,16,num_6,2.43333657272,,,2017_Aug_09_1130,60.0053696483,MAFE4ImagesEEG,001,201124,
AFNE01.JPG,AFNE01.JPG,AFNE01.JPG,AFNE01.JPG,AFNE01.JPG,AFNE01.JPG,,,,,,,,,,,,,,,,,4,0,40,4,,,,,,,AMNE03.jpg,AMSA13.jpg,AMNE05.jpg,AMSA07.jpg,AMSA13.jpg,MS,2,num_6,32,num_8,1.40009827469,,,2017_Aug_09_1130,60.0053696483,MAFE4ImagesEEG,001,201124,
AFNE01.JPG,AFNE01.JPG,AFNE01.JPG,AFNE01.JPG,AFNE01.JPG,AFNE01.JPG,,,,,,,,,,,,,,,,,4,1,41,5,,,,,,,AMNE06.jpg,AMSA02.jpg,AMNE03.jpg,AMSA01.jpg,AMNE06.jpg,MN,1,num_8,16,num_8,2.63360958686,,,2017_Aug_09_1130,60.0053696483,MAFE4ImagesEEG,001,201124,
AFNE01.JPG,AFNE01.JPG,AFNE01.JPG,AFNE01.JPG,AFNE01.JPG,AFNE01.JPG,,,,,,,,,,,,,,,,,4,2,42,8,,,,,,,AMNE15.jpg,AMSA19.jpg,AMNE12.jpg,AMSA03.jpg,AMNE15.jpg,MN,1,num_8,32,num_6,4.03323156247,,,2017_Aug_09_1130,60.0053696483,MAFE4ImagesEEG,001,201124,
AFNE01.JPG,AFNE01.JPG,AFNE01.JPG,AFNE01.JPG,AFNE01.JPG,AFNE01.JPG,,,,,,,,,,,,,,,,,4,3,43,3,,,,,,,AMSA06.jpg,AMSA05.jpg,AMNE15.jpg,AMNE04.jpg,AMSA06.jpg,MS,2,num_8,16,num_8,0.866776103154,,,2017_Aug_09_1130,60.0053696483,MAFE4ImagesEEG,001,201124,
AFNE01.JPG,AFNE01.JPG,AFNE01.JPG,AFNE01.JPG,AFNE01.JPG,AFNE01.JPG,,,,,,,,,,,,,,,,,4,4,44,7,,,,,,,AMSA13.jpg,AMNE04.jpg,AMNE01.jpg,AMSA02.jpg,AMSA13.jpg,MS,2,num_8,32,num_2,1.03342785547,,,2017_Aug_09_1130,60.0053696483,MAFE4ImagesEEG,001,201124,
AFNE01.JPG,AFNE01.JPG,AFNE01.JPG,AFNE01.JPG,AFNE01.JPG,AFNE01.JPG,,,,,,,,,,,,,,,,,4,5,45,6,,,,,,,AMNE19.jpg,AMNE07.jpg,AMSA02.jpg,AMSA08.jpg,AMNE19.jpg,MN,1,num_8,32,num_6,0.88350013434,,,2017_Aug_09_1130,60.0053696483,MAFE4ImagesEEG,001,201124,
AFNE01.JPG,AFNE01.JPG,AFNE01.JPG,AFNE01.JPG,AFNE01.JPG,AFNE01.JPG,,,,,,,,,,,,,,,,,4,6,46,2,,,,,,,AMNE05.jpg,AMNE19.jpg,AMSA14.jpg,AMSA01.jpg,AMSA01.jpg,MS,2,num_4,32,num_6,0.433346836362,,,2017_Aug_09_1130,60.0053696483,MAFE4ImagesEEG,001,201124,
AFNE01.JPG,AFNE01.JPG,AFNE01.JPG,AFNE01.JPG,AFNE01.JPG,AFNE01.JPG,,,,,,,,,,,,,,,,,4,7,47,1,,,,,,,AMNE03.jpg,AMSA01.jpg,AMNE02.jpg,AMSA02.jpg,AMSA02.jpg,MS,2,num_4,32,num_6,0.883446891326,,,2017_Aug_09_1130,60.0053696483,MAFE4ImagesEEG,001,201124,
AFNE01.JPG,AFNE01.JPG,AFNE01.JPG,AFNE01.JPG,AFNE01.JPG,AFNE01.JPG,,,,,,,,,,,,,,,,,4,8,48,0,,,,,,,AMSA19.jpg,AMNE04.jpg,AMSA11.jpg,AMNE13.jpg,AMSA11.jpg,MS,2,num_2,32,num_6,0.316831895849,,,2017_Aug_09_1130,60.0053696483,MAFE4ImagesEEG,001,201124,
AFNE01.JPG,AFNE01.JPG,AFNE01.JPG,AFNE01.JPG,AFNE01.JPG,AFNE01.JPG,,,,,,,,,,,,,,,,,4,9,49,9,,,,,,,AMSA14.jpg,AMSA06.jpg,AMNE13.jpg,AMNE06.jpg,AMNE06.jpg,MN,1,num_4,32,num_6,0.566792364698,,,2017_Aug_09_1130,60.0053696483,MAFE4ImagesEEG,001,201124,
AFNE01.JPG,AFNE01.JPG,AFNE01.JPG,AFNE01.JPG,AFNE01.JPG,AFNE01.JPG,,,,,,,,,,,,,,,,,5,0,50,0,,,,,,,AMNE17.jpg,AMSA18.jpg,AMNE16.jpg,AMSA12.jpg,AMSA12.jpg,MS,2,num_4,16,num_4,1.00008884491,,,2017_Aug_09_1130,60.0053696483,MAFE4ImagesEEG,001,201124,
AFNE01.JPG,AFNE01.JPG,AFNE01.JPG,AFNE01.JPG,AFNE01.JPG,AFNE01.JPG,,,,,,,,,,,,,,,,,5,1,51,4,,,,,,,AMSA19.jpg,AMNE18.jpg,AMNE06.jpg,AMSA07.jpg,AMNE06.jpg,MN,1,num_2,16,num_2,0.71676691412,,,2017_Aug_09_1130,60.0053696483,MAFE4ImagesEEG,001,201124,
AFNE01.JPG,AFNE01.JPG,AFNE01.JPG,AFNE01.JPG,AFNE01.JPG,AFNE01.JPG,,,,,,,,,,,,,,,,,5,2,52,2,,,,,,,AMSA01.jpg,AMNE14.jpg,AMSA18.jpg,AMNE20.jpg,AMSA01.jpg,MS,2,num_8,16,num_8,1.95007359376,,,2017_Aug_09_1130,60.0053696483,MAFE4ImagesEEG,001,201124,
AFNE01.JPG,AFNE01.JPG,AFNE01.JPG,AFNE01.JPG,AFNE01.JPG,AFNE01.JPG,,,,,,,,,,,,,,,,,5,3,53,1,,,,,,,AMSA02.jpg,AMNE04.jpg,AMNE20.jpg,AMSA01.jpg,AMSA01.jpg,MS,2,num_4,16,num_4,2.8500094139,,,2017_Aug_09_1130,60.0053696483,MAFE4ImagesEEG,001,201124,
AFNE01.JPG,AFNE01.JPG,AFNE01.JPG,AFNE01.JPG,AFNE01.JPG,AFNE01.JPG,,,,,,,,,,,,,,,,,5,4,54,9,,,,,,,AMNE11.jpg,AMSA13.jpg,AMSA16.jpg,AMNE20.jpg,AMSA16.jpg,MS,2,num_2,32,num_6,1.15010124142,,,2017_Aug_09_1130,60.0053696483,MAFE4ImagesEEG,001,201124,
AFNE01.JPG,AFNE01.JPG,AFNE01.JPG,AFNE01.JPG,AFNE01.JPG,AFNE01.JPG,,,,,,,,,,,,,,,,,5,5,55,6,,,,,,,AMNE07.jpg,AMSA16.jpg,AMSA19.jpg,AMNE05.jpg,AMNE05.jpg,MN,1,num_4,32,num_2,1.11671604472,,,2017_Aug_09_1130,60.0053696483,MAFE4ImagesEEG,001,201124,
AFNE01.JPG,AFNE01.JPG,AFNE01.JPG,AFNE01.JPG,AFNE01.JPG,AFNE01.JPG,,,,,,,,,,,,,,,,,5,6,56,8,,,,,,,AMSA08.jpg,AMNE19.jpg,AMSA04.jpg,AMNE01.jpg,AMSA08.jpg,MS,2,num_8,16,num_8,3.46659186995,,,2017_Aug_09_1130,60.0053696483,MAFE4ImagesEEG,001,201124,
AFNE01.JPG,AFNE01.JPG,AFNE01.JPG,AFNE01.JPG,AFNE01.JPG,AFNE01.JPG,,,,,,,,,,,,,,,,,5,7,57,7,,,,,,,AMSA02.jpg,AMNE01.jpg,AMNE18.jpg,AMSA14.jpg,AMNE01.jpg,MN,1,num_6,32,num_4,1.63327345112,,,2017_Aug_09_1130,60.0053696483,MAFE4ImagesEEG,001,201124,
AFNE01.JPG,AFNE01.JPG,AFNE01.JPG,AFNE01.JPG,AFNE01.JPG,AFNE01.JPG,,,,,,,,,,,,,,,,,5,8,58,3,,,,,,,AMNE16.jpg,AMSA04.jpg,AMSA15.jpg,AMNE11.jpg,AMNE11.jpg,MN,1,num_4,16,num_4,1.43343151198,,,2017_Aug_09_1130,60.0053696483,MAFE4ImagesEEG,001,201124,
AFNE01.JPG,AFNE01.JPG,AFNE01.JPG,AFNE01.JPG,AFNE01.JPG,AFNE01.JPG,,,,,,,,,,,,,,,,,5,9,59,5,,,,,,,AMNE07.jpg,AMSA09.jpg,AMSA13.jpg,AMNE13.jpg,AMNE07.jpg,MN,1,num_8,16,num_8,3.8832137133,,,2017_Aug_09_1130,60.0053696483,MAFE4ImagesEEG,001,201124,
,,,,,,,,,,,,,,,,,,,,,,,,,,,,,,,,,,,,,,,,,,,space,32.5480451051,2017_Aug_09_1130,60.0053696483,MAFE4ImagesEEG,001,201124,
AFNE01.JPG,AFNE01.JPG,AFNE01.JPG,AFNE01.JPG,AFNE01.JPG,AFNE01.JPG,,,,,,,,,,,,,,,,,,,,,0,0,0,6,,,AFNE01.jpg,AFNE20.jpg,AFSA16.jpg,AFSA14.jpg,AFNE01.jpg,FN,3,num_8,48,None,,,,2017_Aug_09_1130,60.0053696483,MAFE4ImagesEEG,001,201124,
AFNE01.JPG,AFNE01.JPG,AFNE01.JPG,AFNE01.JPG,AFNE01.JPG,AFNE01.JPG,,,,,,,,,,,,,,,,,,,,,0,1,1,8,,,AFSA18.jpg,AFNE02.jpg,AFNE08.jpg,AFSA02.jpg,AFSA18.jpg,FS,4,num_8,48,None,,,,2017_Aug_09_1130,60.0053696483,MAFE4ImagesEEG,001,201124,
AFNE01.JPG,AFNE01.JPG,AFNE01.JPG,AFNE01.JPG,AFNE01.JPG,AFNE01.JPG,,,,,,,,,,,,,,,,,,,,,0,2,2,7,,,AFSA10.jpg,AFSA12.jpg,AFNE16.jpg,AFNE18.jpg,AFNE18.jpg,FN,3,num_4,48,None,,,,2017_Aug_09_1130,60.0053696483,MAFE4ImagesEEG,001,201124,
AFNE01.JPG,AFNE01.JPG,AFNE01.JPG,AFNE01.JPG,AFNE01.JPG,AFNE01.JPG,,,,,,,,,,,,,,,,,,,,,0,3,3,5,,,AFNE11.jpg,AFSA08.jpg,AFSA11.jpg,AFNE01.jpg,AFSA11.jpg,FS,4,num_2,48,None,,,,2017_Aug_09_1130,60.0053696483,MAFE4ImagesEEG,001,201124,
AFNE01.JPG,AFNE01.JPG,AFNE01.JPG,AFNE01.JPG,AFNE01.JPG,AFNE01.JPG,,,,,,,,,,,,,,,,,,,,,0,4,4,9,,,AFSA07.jpg,AFSA02.jpg,AFNE07.jpg,AFNE17.jpg,AFSA02.jpg,FS,4,num_6,48,None,,,,2017_Aug_09_1130,60.0053696483,MAFE4ImagesEEG,001,201124,
AFNE01.JPG,AFNE01.JPG,AFNE01.JPG,AFNE01.JPG,AFNE01.JPG,AFNE01.JPG,,,,,,,,,,,,,,,,,,,,,0,5,5,4,,,AFNE09.jpg,AFNE16.jpg,AFSA15.jpg,AFSA06.jpg,AFSA15.jpg,FS,4,num_2,32,num_8,1.38345090044,,,2017_Aug_09_1130,60.0053696483,MAFE4ImagesEEG,001,201124,
AFNE01.JPG,AFNE01.JPG,AFNE01.JPG,AFNE01.JPG,AFNE01.JPG,AFNE01.JPG,,,,,,,,,,,,,,,,,,,,,0,6,6,3,,,AFSA07.jpg,AFSA13.jpg,AFNE05.jpg,AFNE18.jpg,AFSA07.jpg,FS,4,num_8,32,num_6,0.866914662998,,,2017_Aug_09_1130,60.0053696483,MAFE4ImagesEEG,001,201124,
AFNE01.JPG,AFNE01.JPG,AFNE01.JPG,AFNE01.JPG,AFNE01.JPG,AFNE01.JPG,,,,,,,,,,,,,,,,,,,,,0,7,7,0,,,AFSA13.jpg,AFNE18.jpg,AFNE06.jpg,AFSA19.jpg,AFSA19.jpg,FS,4,num_4,32,num_2,0.833468846045,,,2017_Aug_09_1130,60.0053696483,MAFE4ImagesEEG,001,201124,
AFNE01.JPG,AFNE01.JPG,AFNE01.JPG,AFNE01.JPG,AFNE01.JPG,AFNE01.JPG,,,,,,,,,,,,,,,,,,,,,0,8,8,2,,,AFNE18.jpg,AFSA01.jpg,AFSA02.jpg,AFNE09.jpg,AFSA02.jpg,FS,4,num_2,16,num_2,0.583170317113,,,2017_Aug_09_1130,60.0053696483,MAFE4ImagesEEG,001,201124,
AFNE01.JPG,AFNE01.JPG,AFNE01.JPG,AFNE01.JPG,AFNE01.JPG,AFNE01.JPG,,,,,,,,,,,,,,,,,,,,,0,9,9,1,,,AFNE08.jpg,AFNE11.jpg,AFSA04.jpg,AFSA01.jpg,AFNE08.jpg,FN,3,num_8,48,None,,,,2017_Aug_09_1130,60.0053696483,MAFE4ImagesEEG,001,201124,
AFNE01.JPG,AFNE01.JPG,AFNE01.JPG,AFNE01.JPG,AFNE01.JPG,AFNE01.JPG,,,,,,,,,,,,,,,,,,,,,1,0,10,0,,,AFNE18.jpg,AFNE07.jpg,AFSA01.jpg,AFSA09.jpg,AFSA09.jpg,FS,4,num_4,48,None,,,,2017_Aug_09_1130,60.0053696483,MAFE4ImagesEEG,001,201124,
AFNE01.JPG,AFNE01.JPG,AFNE01.JPG,AFNE01.JPG,AFNE01.JPG,AFNE01.JPG,,,,,,,,,,,,,,,,,,,,,1,1,11,3,,,AFNE10.jpg,AFNE16.jpg,AFSA12.jpg,AFSA18.jpg,AFSA12.jpg,FS,4,num_2,48,None,,,,2017_Aug_09_1130,60.0053696483,MAFE4ImagesEEG,001,201124,
AFNE01.JPG,AFNE01.JPG,AFNE01.JPG,AFNE01.JPG,AFNE01.JPG,AFNE01.JPG,,,,,,,,,,,,,,,,,,,,,1,2,12,7,,,AFNE11.jpg,AFSA02.jpg,AFSA13.jpg,AFNE03.jpg,AFNE11.jpg,FN,3,num_8,48,None,,,,2017_Aug_09_1130,60.0053696483,MAFE4ImagesEEG,001,201124,
AFNE01.JPG,AFNE01.JPG,AFNE01.JPG,AFNE01.JPG,AFNE01.JPG,AFNE01.JPG,,,,,,,,,,,,,,,,,,,,,1,3,13,2,,,AFNE14.jpg,AFSA14.jpg,AFNE08.jpg,AFSA01.jpg,AFSA14.jpg,FS,4,num_6,48,None,,,,2017_Aug_09_1130,60.0053696483,MAFE4ImagesEEG,001,201124,
AFNE01.JPG,AFNE01.JPG,AFNE01.JPG,AFNE01.JPG,AFNE01.JPG,AFNE01.JPG,,,,,,,,,,,,,,,,,,,,,1,4,14,6,,,AFSA15.jpg,AFNE09.jpg,AFSA04.jpg,AFNE18.jpg,AFSA04.jpg,FS,4,num_2,48,None,,,,2017_Aug_09_1130,60.0053696483,MAFE4ImagesEEG,001,201124,
AFNE01.JPG,AFNE01.JPG,AFNE01.JPG,AFNE01.JPG,AFNE01.JPG,AFNE01.JPG,,,,,,,,,,,,,,,,,,,,,1,5,15,4,,,AFSA13.jpg,AFNE11.jpg,AFNE16.jpg,AFSA04.jpg,AFSA04.jpg,FS,4,num_4,48,None,,,,2017_Aug_09_1130,60.0053696483,MAFE4ImagesEEG,001,201124,
AFNE01.JPG,AFNE01.JPG,AFNE01.JPG,AFNE01.JPG,AFNE01.JPG,AFNE01.JPG,,,,,,,,,,,,,,,,,,,,,1,6,16,1,,,AFNE08.jpg,AFSA15.jpg,AFSA03.jpg,AFNE12.jpg,AFSA15.jpg,FS,4,num_6,48,None,,,,2017_Aug_09_1130,60.0053696483,MAFE4ImagesEEG,001,201124,
AFNE01.JPG,AFNE01.JPG,AFNE01.JPG,AFNE01.JPG,AFNE01.JPG,AFNE01.JPG,,,,,,,,,,,,,,,,,,,,,1,7,17,8,,,AFNE14.jpg,AFSA05.jpg,AFSA15.jpg,AFNE12.jpg,AFSA15.jpg,FS,4,num_2,16,num_2,1.99992751284,,,2017_Aug_09_1130,60.0053696483,MAFE4ImagesEEG,001,201124,
AFNE01.JPG,AFNE01.JPG,AFNE01.JPG,AFNE01.JPG,AFNE01.JPG,AFNE01.JPG,,,,,,,,,,,,,,,,,,,,,1,8,18,5,,,AFNE12.jpg,AFNE05.jpg,AFSA13.jpg,AFSA20.jpg,AFNE05.jpg,FN,3,num_6,32,num_4,1.41675334657,,,2017_Aug_09_1130,60.0053696483,MAFE4ImagesEEG,001,201124,
AFNE01.JPG,AFNE01.JPG,AFNE01.JPG,AFNE01.JPG,AFNE01.JPG,AFNE01.JPG,,,,,,,,,,,,,,,,,,,,,1,9,19,9,,,AFSA14.jpg,AFNE12.jpg,AFSA07.jpg,AFNE20.jpg,AFNE20.jpg,FN,3,num_4,32,num_2,1.35010932432,,,2017_Aug_09_1130,60.0053696483,MAFE4ImagesEEG,001,201124,
AFNE01.JPG,AFNE01.JPG,AFNE01.JPG,AFNE01.JPG,AFNE01.JPG,AFNE01.JPG,,,,,,,,,,,,,,,,,,,,,2,0,20,5,,,AFNE20.jpg,AFSA11.jpg,AFSA01.jpg,AFNE10.jpg,AFNE20.jpg,FN,3,num_8,32,num_4,1.46672369423,,,2017_Aug_09_1130,60.0053696483,MAFE4ImagesEEG,001,201124,
AFNE01.JPG,AFNE01.JPG,AFNE01.JPG,AFNE01.JPG,AFNE01.JPG,AFNE01.JPG,,,,,,,,,,,,,,,,,,,,,2,1,21,1,,,AFNE19.jpg,AFSA16.jpg,AFNE11.jpg,AFSA05.jpg,AFSA16.jpg,FS,4,num_6,32,num_4,2.01665090234,,,2017_Aug_09_1130,60.0053696483,MAFE4ImagesEEG,001,201124,
AFNE01.JPG,AFNE01.JPG,AFNE01.JPG,AFNE01.JPG,AFNE01.JPG,AFNE01.JPG,,,,,,,,,,,,,,,,,,,,,2,2,22,7,,,AFNE13.jpg,AFSA09.jpg,AFSA11.jpg,AFNE10.jpg,AFSA09.jpg,FS,4,num_6,48,None,,,,2017_Aug_09_1130,60.0053696483,MAFE4ImagesEEG,001,201124,
AFNE01.JPG,AFNE01.JPG,AFNE01.JPG,AFNE01.JPG,AFNE01.JPG,AFNE01.JPG,,,,,,,,,,,,,,,,,,,,,2,3,23,2,,,AFSA19.jpg,AFNE08.jpg,AFNE14.jpg,AFSA16.jpg,AFNE14.jpg,FN,3,num_2,48,None,,,,2017_Aug_09_1130,60.0053696483,MAFE4ImagesEEG,001,201124,
AFNE01.JPG,AFNE01.JPG,AFNE01.JPG,AFNE01.JPG,AFNE01.JPG,AFNE01.JPG,,,,,,,,,,,,,,,,,,,,,2,4,24,9,,,AFSA02.jpg,AFNE18.jpg,AFNE06.jpg,AFSA08.jpg,AFNE06.jpg,FN,3,num_2,32,num_6,1.40009731264,,,2017_Aug_09_1130,60.0053696483,MAFE4ImagesEEG,001,201124,
AFNE01.JPG,AFNE01.JPG,AFNE01.JPG,AFNE01.JPG,AFNE01.JPG,AFNE01.JPG,,,,,,,,,,,,,,,,,,,,,2,5,25,4,,,AFNE04.jpg,AFSA05.jpg,AFNE14.jpg,AFSA07.jpg,AFSA07.jpg,FS,4,num_4,32,num_2,0.533481900115,,,2017_Aug_09_1130,60.0053696483,MAFE4ImagesEEG,001,201124,
AFNE01.JPG,AFNE01.JPG,AFNE01.JPG,AFNE01.JPG,AFNE01.JPG,AFNE01.JPG,,,,,,,,,,,,,,,,,,,,,2,6,26,3,,,AFSA13.jpg,AFNE02.jpg,AFNE11.jpg,AFSA14.jpg,AFNE11.jpg,FN,3,num_2,16,num_2,0.450202370994,,,2017_Aug_09_1130,60.0053696483,MAFE4ImagesEEG,001,201124,
AFNE01.JPG,AFNE01.JPG,AFNE01.JPG,AFNE01.JPG,AFNE01.JPG,AFNE01.JPG,,,,,,,,,,,,,,,,,,,,,2,7,27,6,,,AFSA01.jpg,AFNE02.jpg,AFNE09.jpg,AFSA05.jpg,AFNE09.jpg,FN,3,num_2,32,num_8,2.50002710242,,,2017_Aug_09_1130,60.0053696483,MAFE4ImagesEEG,001,201124,
AFNE01.JPG,AFNE01.JPG,AFNE01.JPG,AFNE01.JPG,AFNE01.JPG,AFNE01.JPG,,,,,,,,,,,,,,,,,,,,,2,8,28,8,,,AFSA20.jpg,AFSA14.jpg,AFNE03.jpg,AFNE16.jpg,AFNE16.jpg,FN,3,num_4,32,num_2,0.933480104199,,,2017_Aug_09_1130,60.0053696483,MAFE4ImagesEEG,001,201124,
AFNE01.JPG,AFNE01.JPG,AFNE01.JPG,AFNE01.JPG,AFNE01.JPG,AFNE01.JPG,,,,,,,,,,,,,,,,,,,,,2,9,29,0,,,AFNE10.jpg,AFSA10.jpg,AFSA02.jpg,AFNE14.jpg,AFSA02.jpg,FS,4,num_2,32,num_4,0.683506164234,,,2017_Aug_09_1130,60.0053696483,MAFE4ImagesEEG,001,201124,
AFNE01.JPG,AFNE01.JPG,AFNE01.JPG,AFNE01.JPG,AFNE01.JPG,AFNE01.JPG,,,,,,,,,,,,,,,,,,,,,3,0,30,8,,,AFNE15.jpg,AFSA13.jpg,AFSA17.jpg,AFNE11.jpg,AFSA13.jpg,FS,4,num_6,16,num_6,1.03343587392,,,2017_Aug_09_1130,60.0053696483,MAFE4ImagesEEG,001,201124,
AFNE01.JPG,AFNE01.JPG,AFNE01.JPG,AFNE01.JPG,AFNE01.JPG,AFNE01.JPG,,,,,,,,,,,,,,,,,,,,,3,1,31,4,,,AFSA18.jpg,AFNE15.jpg,AFSA15.jpg,AFNE13.jpg,AFSA18.jpg,FS,4,num_8,32,num_6,4.53291515214,,,2017_Aug_09_1130,60.0053696483,MAFE4ImagesEEG,001,201124,
AFNE01.JPG,AFNE01.JPG,AFNE01.JPG,AFNE01.JPG,AFNE01.JPG,AFNE01.JPG,,,,,,,,,,,,,,,,,,,,,3,2,32,0,,,AFSA09.jpg,AFNE14.jpg,AFSA06.jpg,AFNE03.jpg,AFSA09.jpg,FS,4,num_8,16,num_8,4.21653966955,,,2017_Aug_09_1130,60.0053696483,MAFE4ImagesEEG,001,201124,
AFNE01.JPG,AFNE01.JPG,AFNE01.JPG,AFNE01.JPG,AFNE01.JPG,AFNE01.JPG,,,,,,,,,,,,,,,,,,,,,3,3,33,9,,,AFSA07.jpg,AFNE07.jpg,AFNE14.jpg,AFSA01.jpg,AFNE07.jpg,FN,3,num_6,16,num_6,2.88357037632,,,2017_Aug_09_1130,60.0053696483,MAFE4ImagesEEG,001,201124,
AFNE01.JPG,AFNE01.JPG,AFNE01.JPG,AFNE01.JPG,AFNE01.JPG,AFNE01.JPG,,,,,,,,,,,,,,,,,,,,,3,4,34,6,,,AFNE14.jpg,AFNE20.jpg,AFSA16.jpg,AFSA15.jpg,AFSA16.jpg,FS,4,num_2,16,num_2,1.61669952655,,,2017_Aug_09_1130,60.0053696483,MAFE4ImagesEEG,001,201124,
AFNE01.JPG,AFNE01.JPG,AFNE01.JPG,AFNE01.JPG,AFNE01.JPG,AFNE01.JPG,,,,,,,,,,,,,,,,,,,,,3,5,35,2,,,AFNE02.jpg,AFSA12.jpg,AFNE08.jpg,AFSA09.jpg,AFNE08.jpg,FN,3,num_2,32,num_4,1.43339558877,,,2017_Aug_09_1130,60.0053696483,MAFE4ImagesEEG,001,201124,
AFNE01.JPG,AFNE01.JPG,AFNE01.JPG,AFNE01.JPG,AFNE01.JPG,AFNE01.JPG,,,,,,,,,,,,,,,,,,,,,3,6,36,3,,,AFSA04.jpg,AFNE20.jpg,AFSA12.jpg,AFNE09.jpg,AFNE20.jpg,FN,3,num_6,32,num_2,2.11666408461,,,2017_Aug_09_1130,60.0053696483,MAFE4ImagesEEG,001,201124,
AFNE01.JPG,AFNE01.JPG,AFNE01.JPG,AFNE01.JPG,AFNE01.JPG,AFNE01.JPG,,,,,,,,,,,,,,,,,,,,,3,7,37,1,,,AFSA19.jpg,AFNE19.jpg,AFSA02.jpg,AFNE03.jpg,AFSA19.jpg,FS,4,num_8,32,num_2,1.33344142279,,,2017_Aug_09_1130,60.0053696483,MAFE4ImagesEEG,001,201124,
AFNE01.JPG,AFNE01.JPG,AFNE01.JPG,AFNE01.JPG,AFNE01.JPG,AFNE01.JPG,,,,,,,,,,,,,,,,,,,,,3,8,38,7,,,AFNE15.jpg,AFSA08.jpg,AFSA02.jpg,AFNE16.jpg,AFSA02.jpg,FS,4,num_2,16,num_2,0.700195555342,,,2017_Aug_09_1130,60.0053696483,MAFE4ImagesEEG,001,201124,
AFNE01.JPG,AFNE01.JPG,AFNE01.JPG,AFNE01.JPG,AFNE01.JPG,AFNE01.JPG,,,,,,,,,,,,,,,,,,,,,3,9,39,5,,,AFSA06.jpg,AFNE06.jpg,AFSA16.jpg,AFNE07.jpg,AFNE06.jpg,FN,3,num_6,32,num_8,0.566855550511,,,2017_Aug_09_1130,60.0053696483,MAFE4ImagesEEG,001,201124,
AFNE01.JPG,AFNE01.JPG,AFNE01.JPG,AFNE01.JPG,AFNE01.JPG,AFNE01.JPG,,,,,,,,,,,,,,,,,,,,,4,0,40,7,,,AFNE02.jpg,AFNE18.jpg,AFSA10.jpg,AFSA06.jpg,AFNE02.jpg,FN,3,num_8,32,num_4,1.48340025567,,,2017_Aug_09_1130,60.0053696483,MAFE4ImagesEEG,001,201124,
AFNE01.JPG,AFNE01.JPG,AFNE01.JPG,AFNE01.JPG,AFNE01.JPG,AFNE01.JPG,,,,,,,,,,,,,,,,,,,,,4,1,41,8,,,AFSA05.jpg,AFNE09.jpg,AFSA09.jpg,AFNE07.jpg,AFSA09.jpg,FS,4,num_2,48,None,,,,2017_Aug_09_1130,60.0053696483,MAFE4ImagesEEG,001,201124,
AFNE01.JPG,AFNE01.JPG,AFNE01.JPG,AFNE01.JPG,AFNE01.JPG,AFNE01.JPG,,,,,,,,,,,,,,,,,,,,,4,2,42,5,,,AFSA01.jpg,AFNE11.jpg,AFSA07.jpg,AFNE03.jpg,AFNE03.jpg,FN,3,num_4,32,num_6,4.10021556937,,,2017_Aug_09_1130,60.0053696483,MAFE4ImagesEEG,001,201124,
