IPosition2,IPosition3,IPosition1,IPosition6,IPosition4,IPosition5,TrialsF1.thisRepN,TrialsF1.thisTrialN,TrialsF1.thisN,TrialsF1.thisIndex,TrialsM1.thisRepN,TrialsM1.thisTrialN,TrialsM1.thisN,TrialsM1.thisIndex,TrialsF2.thisRepN,TrialsF2.thisTrialN,TrialsF2.thisN,TrialsF2.thisIndex,TrialsM2.thisRepN,TrialsM2.thisTrialN,TrialsM2.thisN,TrialsM2.thisIndex,TrialsF3.thisRepN,TrialsF3.thisTrialN,TrialsF3.thisN,TrialsF3.thisIndex,TrialsM3.thisRepN,TrialsM3.thisTrialN,TrialsM3.thisN,TrialsM3.thisIndex,InstrKey_resp.keys,InstrKey_resp.rt,Image0 _Position,Image1 _Position,Image2 _Position,Image3 _Position,Center_image,condition,code,correct_answer,accuracy,Key_Resp.keys,Key_Resp.rt,BreakKey_resp.keys,BreakKey_resp.rt,date,frameRate,expName,session,participant,
,,,,,,,,,,,,,,,,,,,,,,,,,,,,,,space,8.51627834176,,,,,,,,,,,,,,2017_Aug_24_1414,60.0116836023,FEMA4ImagesEEG,001,201267,
AMSA21.JPG,AMNE23.JPG,AMNE21.JPG,AMSA25.JPG,AMNE25.JPG,AMSA23.JPG,0,0,0,5,,,,,,,,,,,,,,,,,,,,,,,AFSA03.jpg,AFNE14.jpg,AFSA10.jpg,AFNE01.jpg,AFSA03.jpg,FS,4,num_8,16,num_8,1.03343518963,,,2017_Aug_24_1414,60.0116836023,FEMA4ImagesEEG,001,201267,
AFSA21.JPG,AFNE23.JPG,AFNE21.JPG,AFSA25.JPG,AFNE25.JPG,AFSA23.JPG,0,1,1,4,,,,,,,,,,,,,,,,,,,,,,,AFSA08.jpg,AFNE08.jpg,AFNE13.jpg,AFSA16.jpg,AFNE08.jpg,FN,3,num_6,32,num_4,0.466752282693,,,2017_Aug_24_1414,60.0116836023,FEMA4ImagesEEG,001,201267,
AFSA25.JPG,AFNE24.JPG,AFSA24.JPG,AFNE21.JPG,AFSA21.JPG,AFNE25.JPG,0,2,2,2,,,,,,,,,,,,,,,,,,,,,,,AFSA01.jpg,AFNE05.jpg,AFSA18.jpg,AFNE03.jpg,AFNE03.jpg,FN,3,num_4,32,num_8,0.950126579963,,,2017_Aug_24_1414,60.0116836023,FEMA4ImagesEEG,001,201267,
AMNE23.JPG,AMNE24.JPG,AMNE22.JPG,AMSA24.JPG,AMSA22.JPG,AMSA23.JPG,0,3,3,9,,,,,,,,,,,,,,,,,,,,,,,AFSA19.jpg,AFSA13.jpg,AFNE08.jpg,AFNE06.jpg,AFNE06.jpg,FN,3,num_4,16,num_4,1.01682728785,,,2017_Aug_24_1414,60.0116836023,FEMA4ImagesEEG,001,201267,
AMNE22.JPG,AMSA24.JPG,AMSA22.JPG,AMNE25.JPG,AMNE24.JPG,AMSA25.JPG,0,4,4,7,,,,,,,,,,,,,,,,,,,,,,,AFSA14.jpg,AFNE02.jpg,AFNE09.jpg,AFSA18.jpg,AFNE09.jpg,FN,3,num_2,32,num_8,1.01677532797,,,2017_Aug_24_1414,60.0116836023,FEMA4ImagesEEG,001,201267,
AFNE22.JPG,AFSA24.JPG,AFSA22.JPG,AFNE25.JPG,AFNE24.JPG,AFSA25.JPG,0,5,5,6,,,,,,,,,,,,,,,,,,,,,,,AFSA13.jpg,AFNE16.jpg,AFSA10.jpg,AFNE18.jpg,AFNE18.jpg,FN,3,num_4,32,num_6,1.24992647034,,,2017_Aug_24_1414,60.0116836023,FEMA4ImagesEEG,001,201267,
AFNE23.JPG,AFNE24.JPG,AFNE22.JPG,AFSA24.JPG,AFSA22.JPG,AFSA23.JPG,0,6,6,8,,,,,,,,,,,,,,,,,,,,,,,AFNE17.jpg,AFSA11.jpg,AFSA02.jpg,AFNE09.jpg,AFNE17.jpg,FN,3,num_8,16,num_8,0.750102396123,,,2017_Aug_24_1414,60.0116836023,FEMA4ImagesEEG,001,201267,
AMSA21.JPG,AMNE22.JPG,AMNE21.JPG,AMSA23.JPG,AMSA22.JPG,AMNE23.JPG,0,7,7,1,,,,,,,,,,,,,,,,,,,,,,,AFNE11.jpg,AFNE09.jpg,AFSA11.jpg,AFSA09.jpg,AFNE11.jpg,FN,3,num_8,16,num_8,0.71678908763,,,2017_Aug_24_1414,60.0116836023,FEMA4ImagesEEG,001,201267,
AMSA25.JPG,AMNE24.JPG,AMSA24.JPG,AMNE26.JPG,AMSA21.JPG,AMNE25.JPG,0,8,8,3,,,,,,,,,,,,,,,,,,,,,,,AFNE10.jpg,AFSA08.jpg,AFSA02.jpg,AFNE04.jpg,AFSA08.jpg,FS,4,num_6,32,num_8,0.733437081915,,,2017_Aug_24_1414,60.0116836023,FEMA4ImagesEEG,001,201267,
AFSA21.JPG,AFNE22.JPG,AFNE21.JPG,AFSA23.JPG,AFSA22.JPG,AFNE23.JPG,0,9,9,0,,,,,,,,,,,,,,,,,,,,,,,AFNE17.jpg,AFNE08.jpg,AFSA15.jpg,AFSA04.jpg,AFSA04.jpg,FS,4,num_4,48,None,,,,2017_Aug_24_1414,60.0116836023,FEMA4ImagesEEG,001,201267,
AFSA21.JPG,AFNE23.JPG,AFNE21.JPG,AFSA25.JPG,AFNE25.JPG,AFSA23.JPG,,,,,0,0,0,4,,,,,,,,,,,,,,,,,,,AMNE20.jpg,AMSA18.jpg,AMNE11.jpg,AMSA19.jpg,AMSA19.jpg,MS,2,num_4,16,num_4,0.983734327485,,,2017_Aug_24_1414,60.0116836023,FEMA4ImagesEEG,001,201267,
AMSA21.JPG,AMNE22.JPG,AMNE21.JPG,AMSA23.JPG,AMSA22.JPG,AMNE23.JPG,,,,,0,1,1,1,,,,,,,,,,,,,,,,,,,AMSA15.jpg,AMNE06.jpg,AMNE15.jpg,AMSA05.jpg,AMSA15.jpg,MS,2,num_8,32,num_6,1.08357706876,,,2017_Aug_24_1414,60.0116836023,FEMA4ImagesEEG,001,201267,
AMNE22.JPG,AMSA24.JPG,AMSA22.JPG,AMNE25.JPG,AMNE24.JPG,AMSA25.JPG,,,,,0,2,2,7,,,,,,,,,,,,,,,,,,,AMNE03.jpg,AMNE19.jpg,AMSA17.jpg,AMSA11.jpg,AMNE19.jpg,MN,1,num_6,32,num_4,0.433461426059,,,2017_Aug_24_1414,60.0116836023,FEMA4ImagesEEG,001,201267,
AFNE23.JPG,AFNE24.JPG,AFNE22.JPG,AFSA24.JPG,AFSA22.JPG,AFSA23.JPG,,,,,0,3,3,8,,,,,,,,,,,,,,,,,,,AMNE16.jpg,AMNE12.jpg,AMSA04.jpg,AMSA20.jpg,AMSA04.jpg,MS,2,num_2,32,num_6,0.850106790313,,,2017_Aug_24_1414,60.0116836023,FEMA4ImagesEEG,001,201267,
AFNE22.JPG,AFSA24.JPG,AFSA22.JPG,AFNE25.JPG,AFNE24.JPG,AFSA25.JPG,,,,,0,4,4,6,,,,,,,,,,,,,,,,,,,AMNE07.jpg,AMSA07.jpg,AMNE06.jpg,AMSA08.jpg,AMSA07.jpg,MS,2,num_6,32,num_8,1.05007388233,,,2017_Aug_24_1414,60.0116836023,FEMA4ImagesEEG,001,201267,
AMSA21.JPG,AMNE23.JPG,AMNE21.JPG,AMSA25.JPG,AMNE25.JPG,AMSA23.JPG,,,,,0,5,5,5,,,,,,,,,,,,,,,,,,,AMSA13.jpg,AMNE14.jpg,AMSA01.jpg,AMNE04.jpg,AMSA13.jpg,MS,2,num_8,32,num_4,1.28342035529,,,2017_Aug_24_1414,60.0116836023,FEMA4ImagesEEG,001,201267,
AFSA21.JPG,AFNE22.JPG,AFNE21.JPG,AFSA23.JPG,AFSA22.JPG,AFNE23.JPG,,,,,0,6,6,0,,,,,,,,,,,,,,,,,,,AMSA12.jpg,AMNE09.jpg,AMSA01.jpg,AMNE18.jpg,AMNE09.jpg,MN,1,num_6,32,num_8,0.683448516298,,,2017_Aug_24_1414,60.0116836023,FEMA4ImagesEEG,001,201267,
AMSA25.JPG,AMNE24.JPG,AMSA24.JPG,AMNE26.JPG,AMSA21.JPG,AMNE25.JPG,,,,,0,7,7,3,,,,,,,,,,,,,,,,,,,AMSA17.jpg,AMNE18.jpg,AMSA05.jpg,AMNE04.jpg,AMSA17.jpg,MS,2,num_8,16,num_8,0.766648715944,,,2017_Aug_24_1414,60.0116836023,FEMA4ImagesEEG,001,201267,
AFSA25.JPG,AFNE24.JPG,AFSA24.JPG,AFNE21.JPG,AFSA21.JPG,AFNE25.JPG,,,,,0,8,8,2,,,,,,,,,,,,,,,,,,,AMSA09.jpg,AMNE18.jpg,AMSA01.jpg,AMNE03.jpg,AMSA09.jpg,MS,2,num_8,32,num_4,0.750131904148,,,2017_Aug_24_1414,60.0116836023,FEMA4ImagesEEG,001,201267,
AMNE23.JPG,AMNE24.JPG,AMNE22.JPG,AMSA24.JPG,AMSA22.JPG,AMSA23.JPG,,,,,0,9,9,9,,,,,,,,,,,,,,,,,,,AMNE06.jpg,AMSA08.jpg,AMSA20.jpg,AMNE10.jpg,AMSA08.jpg,MS,2,num_6,16,num_6,0.933640879928,,,2017_Aug_24_1414,60.0116836023,FEMA4ImagesEEG,001,201267,
AFSA21.JPG,AFNE22.JPG,AFNE21.JPG,AFSA23.JPG,AFSA22.JPG,AFNE23.JPG,,,,,,,,,0,0,0,0,,,,,,,,,,,,,,,AFSA20.jpg,AFNE12.jpg,AFNE15.jpg,AFSA04.jpg,AFSA20.jpg,FS,4,num_8,16,num_8,1.21676166437,,,2017_Aug_24_1414,60.0116836023,FEMA4ImagesEEG,001,201267,
AMNE23.JPG,AMNE24.JPG,AMNE22.JPG,AMSA24.JPG,AMSA22.JPG,AMSA23.JPG,,,,,,,,,0,1,1,9,,,,,,,,,,,,,,,AFSA05.jpg,AFNE13.jpg,AFSA02.jpg,AFNE02.jpg,AFNE13.jpg,FN,3,num_6,32,num_4,0.283472315175,,,2017_Aug_24_1414,60.0116836023,FEMA4ImagesEEG,001,201267,
AMSA21.JPG,AMNE22.JPG,AMNE21.JPG,AMSA23.JPG,AMSA22.JPG,AMNE23.JPG,,,,,,,,,0,2,2,1,,,,,,,,,,,,,,,AFNE17.jpg,AFSA14.jpg,AFSA17.jpg,AFNE04.jpg,AFSA14.jpg,FS,4,num_6,32,num_2,1.75003055041,,,2017_Aug_24_1414,60.0116836023,FEMA4ImagesEEG,001,201267,
AFSA21.JPG,AFNE23.JPG,AFNE21.JPG,AFSA25.JPG,AFNE25.JPG,AFSA23.JPG,,,,,,,,,0,3,3,4,,,,,,,,,,,,,,,AFSA03.jpg,AFNE16.jpg,AFNE18.jpg,AFSA02.jpg,AFNE16.jpg,FN,3,num_6,16,num_6,0.783445854206,,,2017_Aug_24_1414,60.0116836023,FEMA4ImagesEEG,001,201267,
AFNE23.JPG,AFNE24.JPG,AFNE22.JPG,AFSA24.JPG,AFSA22.JPG,AFSA23.JPG,,,,,,,,,0,4,4,8,,,,,,,,,,,,,,,AFSA15.jpg,AFSA06.jpg,AFNE19.jpg,AFNE07.jpg,AFSA15.jpg,FS,4,num_8,16,num_8,0.583494157647,,,2017_Aug_24_1414,60.0116836023,FEMA4ImagesEEG,001,201267,
AFNE22.JPG,AFSA24.JPG,AFSA22.JPG,AFNE25.JPG,AFNE24.JPG,AFSA25.JPG,,,,,,,,,0,5,5,6,,,,,,,,,,,,,,,AFNE17.jpg,AFSA11.jpg,AFNE02.jpg,AFSA18.jpg,AFNE02.jpg,FN,3,num_2,32,num_6,1.56677239318,,,2017_Aug_24_1414,60.0116836023,FEMA4ImagesEEG,001,201267,
AMNE22.JPG,AMSA24.JPG,AMSA22.JPG,AMNE25.JPG,AMNE24.JPG,AMSA25.JPG,,,,,,,,,0,6,6,7,,,,,,,,,,,,,,,AFSA17.jpg,AFNE02.jpg,AFSA09.jpg,AFNE15.jpg,AFNE15.jpg,FN,3,num_4,32,num_6,0.98348832014,,,2017_Aug_24_1414,60.0116836023,FEMA4ImagesEEG,001,201267,
AMSA25.JPG,AMNE24.JPG,AMSA24.JPG,AMNE26.JPG,AMSA21.JPG,AMNE25.JPG,,,,,,,,,0,7,7,3,,,,,,,,,,,,,,,AFSA03.jpg,AFNE09.jpg,AFSA10.jpg,AFNE05.jpg,AFSA03.jpg,FS,4,num_8,16,num_8,0.666771334712,,,2017_Aug_24_1414,60.0116836023,FEMA4ImagesEEG,001,201267,
AFSA25.JPG,AFNE24.JPG,AFSA24.JPG,AFNE21.JPG,AFSA21.JPG,AFNE25.JPG,,,,,,,,,0,8,8,2,,,,,,,,,,,,,,,AFSA05.jpg,AFSA14.jpg,AFNE11.jpg,AFNE15.jpg,AFNE15.jpg,FN,3,num_4,32,num_6,0.716779144714,,,2017_Aug_24_1414,60.0116836023,FEMA4ImagesEEG,001,201267,
AMSA21.JPG,AMNE23.JPG,AMNE21.JPG,AMSA25.JPG,AMNE25.JPG,AMSA23.JPG,,,,,,,,,0,9,9,5,,,,,,,,,,,,,,,AFSA01.jpg,AFNE01.jpg,AFNE06.jpg,AFSA16.jpg,AFSA16.jpg,FS,4,num_4,16,num_4,1.56668322755,,,2017_Aug_24_1414,60.0116836023,FEMA4ImagesEEG,001,201267,
AFNE22.JPG,AFSA24.JPG,AFSA22.JPG,AFNE25.JPG,AFNE24.JPG,AFSA25.JPG,,,,,,,,,,,,,0,0,0,6,,,,,,,,,,,AMSA15.jpg,AMNE17.jpg,AMNE12.jpg,AMSA03.jpg,AMSA15.jpg,MS,2,num_8,16,num_8,1.71673327894,,,2017_Aug_24_1414,60.0116836023,FEMA4ImagesEEG,001,201267,
AMNE22.JPG,AMSA24.JPG,AMSA22.JPG,AMNE25.JPG,AMNE24.JPG,AMSA25.JPG,,,,,,,,,,,,,0,1,1,7,,,,,,,,,,,AMNE08.jpg,AMSA07.jpg,AMNE11.jpg,AMSA09.jpg,AMNE08.jpg,MN,1,num_8,32,num_2,0.93340738141,,,2017_Aug_24_1414,60.0116836023,FEMA4ImagesEEG,001,201267,
AFSA25.JPG,AFNE24.JPG,AFSA24.JPG,AFNE21.JPG,AFSA21.JPG,AFNE25.JPG,,,,,,,,,,,,,0,2,2,2,,,,,,,,,,,AMSA06.jpg,AMSA02.jpg,AMNE09.jpg,AMNE19.jpg,AMSA06.jpg,MS,2,num_8,16,num_8,0.86677819863,,,2017_Aug_24_1414,60.0116836023,FEMA4ImagesEEG,001,201267,
AMSA21.JPG,AMNE23.JPG,AMNE21.JPG,AMSA25.JPG,AMNE25.JPG,AMSA23.JPG,,,,,,,,,,,,,0,3,3,5,,,,,,,,,,,AMSA20.jpg,AMNE17.jpg,AMNE13.jpg,AMSA06.jpg,AMNE17.jpg,MN,1,num_6,32,num_2,2.24998227914,,,2017_Aug_24_1414,60.0116836023,FEMA4ImagesEEG,001,201267,
AFNE23.JPG,AFNE24.JPG,AFNE22.JPG,AFSA24.JPG,AFSA22.JPG,AFSA23.JPG,,,,,,,,,,,,,0,4,4,8,,,,,,,,,,,AMSA09.jpg,AMNE19.jpg,AMNE06.jpg,AMSA08.jpg,AMNE06.jpg,MN,1,num_2,16,num_2,1.08345454617,,,2017_Aug_24_1414,60.0116836023,FEMA4ImagesEEG,001,201267,
AFSA21.JPG,AFNE23.JPG,AFNE21.JPG,AFSA25.JPG,AFNE25.JPG,AFSA23.JPG,,,,,,,,,,,,,0,5,5,4,,,,,,,,,,,AMSA06.jpg,AMNE01.jpg,AMNE20.jpg,AMSA10.jpg,AMNE01.jpg,MN,1,num_6,16,num_6,1.56669990602,,,2017_Aug_24_1414,60.0116836023,FEMA4ImagesEEG,001,201267,
AMNE23.JPG,AMNE24.JPG,AMNE22.JPG,AMSA24.JPG,AMSA22.JPG,AMSA23.JPG,,,,,,,,,,,,,0,6,6,9,,,,,,,,,,,AMNE15.jpg,AMSA16.jpg,AMNE07.jpg,AMSA02.jpg,AMNE15.jpg,MN,1,num_8,16,num_8,0.683473213227,,,2017_Aug_24_1414,60.0116836023,FEMA4ImagesEEG,001,201267,
AMSA21.JPG,AMNE22.JPG,AMNE21.JPG,AMSA23.JPG,AMSA22.JPG,AMNE23.JPG,,,,,,,,,,,,,0,7,7,1,,,,,,,,,,,AMSA13.jpg,AMNE10.jpg,AMNE18.jpg,AMSA15.jpg,AMSA13.jpg,MS,2,num_8,16,num_8,2.39998710621,,,2017_Aug_24_1414,60.0116836023,FEMA4ImagesEEG,001,201267,
AFSA21.JPG,AFNE22.JPG,AFNE21.JPG,AFSA23.JPG,AFSA22.JPG,AFNE23.JPG,,,,,,,,,,,,,0,8,8,0,,,,,,,,,,,AMNE20.jpg,AMSA16.jpg,AMNE05.jpg,AMSA03.jpg,AMSA03.jpg,MS,2,num_4,32,num_8,0.516960234381,,,2017_Aug_24_1414,60.0116836023,FEMA4ImagesEEG,001,201267,
AMSA25.JPG,AMNE24.JPG,AMSA24.JPG,AMNE26.JPG,AMSA21.JPG,AMNE25.JPG,,,,,,,,,,,,,0,9,9,3,,,,,,,,,,,AMNE16.jpg,AMSA05.jpg,AMNE11.jpg,AMSA11.jpg,AMSA11.jpg,MS,2,num_4,16,num_4,0.766803633189,,,2017_Aug_24_1414,60.0116836023,FEMA4ImagesEEG,001,201267,
AFNE22.JPG,AFSA24.JPG,AFSA22.JPG,AFNE25.JPG,AFNE24.JPG,AFSA25.JPG,,,,,,,,,,,,,,,,,0,0,0,6,,,,,,,AFSA15.jpg,AFNE09.jpg,AFNE04.jpg,AFSA05.jpg,AFSA05.jpg,FS,4,num_4,16,num_4,0.583573700977,,,2017_Aug_24_1414,60.0116836023,FEMA4ImagesEEG,001,201267,
AFNE23.JPG,AFNE24.JPG,AFNE22.JPG,AFSA24.JPG,AFSA22.JPG,AFSA23.JPG,,,,,,,,,,,,,,,,,0,1,1,8,,,,,,,AFNE18.jpg,AFSA17.jpg,AFSA02.jpg,AFNE04.jpg,AFNE18.jpg,FN,3,num_8,32,num_4,1.1834230175,,,2017_Aug_24_1414,60.0116836023,FEMA4ImagesEEG,001,201267,
AMSA25.JPG,AMNE24.JPG,AMSA24.JPG,AMNE26.JPG,AMSA21.JPG,AMNE25.JPG,,,,,,,,,,,,,,,,,0,2,2,3,,,,,,,AFNE12.jpg,AFSA14.jpg,AFNE01.jpg,AFSA12.jpg,AFNE01.jpg,FN,3,num_2,16,num_2,1.00011065521,,,2017_Aug_24_1414,60.0116836023,FEMA4ImagesEEG,001,201267,
AMSA21.JPG,AMNE23.JPG,AMNE21.JPG,AMSA25.JPG,AMNE25.JPG,AMSA23.JPG,,,,,,,,,,,,,,,,,0,3,3,5,,,,,,,AFSA04.jpg,AFSA19.jpg,AFNE05.jpg,AFNE04.jpg,AFNE04.jpg,FN,3,num_4,32,num_8,2.53334875021,,,2017_Aug_24_1414,60.0116836023,FEMA4ImagesEEG,001,201267,
AFSA21.JPG,AFNE22.JPG,AFNE21.JPG,AFSA23.JPG,AFSA22.JPG,AFNE23.JPG,,,,,,,,,,,,,,,,,0,4,4,0,,,,,,,AFSA18.jpg,AFNE18.jpg,AFSA08.jpg,AFNE20.jpg,AFNE18.jpg,FN,3,num_6,16,num_6,2.69996083772,,,2017_Aug_24_1414,60.0116836023,FEMA4ImagesEEG,001,201267,
AFSA25.JPG,AFNE24.JPG,AFSA24.JPG,AFNE21.JPG,AFSA21.JPG,AFNE25.JPG,,,,,,,,,,,,,,,,,0,5,5,2,,,,,,,AFNE06.jpg,AFSA09.jpg,AFNE16.jpg,AFSA16.jpg,AFNE06.jpg,FN,3,num_8,16,num_8,1.03341498296,,,2017_Aug_24_1414,60.0116836023,FEMA4ImagesEEG,001,201267,
AMNE23.JPG,AMNE24.JPG,AMNE22.JPG,AMSA24.JPG,AMSA22.JPG,AMSA23.JPG,,,,,,,,,,,,,,,,,0,6,6,9,,,,,,,AFSA08.jpg,AFNE03.jpg,AFSA05.jpg,AFNE12.jpg,AFSA08.jpg,FS,4,num_8,32,num_4,0.883455380099,,,2017_Aug_24_1414,60.0116836023,FEMA4ImagesEEG,001,201267,
AMSA21.JPG,AMNE22.JPG,AMNE21.JPG,AMSA23.JPG,AMSA22.JPG,AMNE23.JPG,,,,,,,,,,,,,,,,,0,7,7,1,,,,,,,AFNE08.jpg,AFNE02.jpg,AFSA14.jpg,AFSA09.jpg,AFNE08.jpg,FN,3,num_8,16,num_8,0.70013307489,,,2017_Aug_24_1414,60.0116836023,FEMA4ImagesEEG,001,201267,
AMNE22.JPG,AMSA24.JPG,AMSA22.JPG,AMNE25.JPG,AMNE24.JPG,AMSA25.JPG,,,,,,,,,,,,,,,,,0,8,8,7,,,,,,,AFSA16.jpg,AFNE16.jpg,AFSA12.jpg,AFNE05.jpg,AFNE05.jpg,FN,3,num_4,32,num_6,0.300165212946,,,2017_Aug_24_1414,60.0116836023,FEMA4ImagesEEG,001,201267,
AFSA21.JPG,AFNE23.JPG,AFNE21.JPG,AFSA25.JPG,AFNE25.JPG,AFSA23.JPG,,,,,,,,,,,,,,,,,0,9,9,4,,,,,,,AFNE03.jpg,AFNE02.jpg,AFSA15.jpg,AFSA01.jpg,AFNE02.jpg,FN,3,num_6,32,num_8,0.750056530349,,,2017_Aug_24_1414,60.0116836023,FEMA4ImagesEEG,001,201267,
AMSA21.JPG,AMNE22.JPG,AMNE21.JPG,AMSA23.JPG,AMSA22.JPG,AMNE23.JPG,,,,,,,,,,,,,,,,,,,,,0,0,0,1,,,AMNE17.jpg,AMSA17.jpg,AMNE12.jpg,AMSA16.jpg,AMNE17.jpg,MN,1,num_8,16,num_8,0.983119148761,,,2017_Aug_24_1414,60.0116836023,FEMA4ImagesEEG,001,201267,
AFSA21.JPG,AFNE23.JPG,AFNE21.JPG,AFSA25.JPG,AFNE25.JPG,AFSA23.JPG,,,,,,,,,,,,,,,,,,,,,0,1,1,4,,,AMNE20.jpg,AMSA18.jpg,AMNE13.jpg,AMSA01.jpg,AMNE20.jpg,MN,1,num_8,32,num_2,1.03348105529,,,2017_Aug_24_1414,60.0116836023,FEMA4ImagesEEG,001,201267,
AMNE23.JPG,AMNE24.JPG,AMNE22.JPG,AMSA24.JPG,AMSA22.JPG,AMSA23.JPG,,,,,,,,,,,,,,,,,,,,,0,2,2,9,,,AMSA12.jpg,AMNE19.jpg,AMNE17.jpg,AMSA06.jpg,AMNE17.jpg,MN,1,num_2,32,num_8,0.816823952133,,,2017_Aug_24_1414,60.0116836023,FEMA4ImagesEEG,001,201267,
AFNE23.JPG,AFNE24.JPG,AFNE22.JPG,AFSA24.JPG,AFSA22.JPG,AFSA23.JPG,,,,,,,,,,,,,,,,,,,,,0,3,3,8,,,AMNE12.jpg,AMNE05.jpg,AMSA20.jpg,AMSA19.jpg,AMSA19.jpg,MS,2,num_4,32,num_2,1.18345605372,,,2017_Aug_24_1414,60.0116836023,FEMA4ImagesEEG,001,201267,
AMSA25.JPG,AMNE24.JPG,AMSA24.JPG,AMNE26.JPG,AMSA21.JPG,AMNE25.JPG,,,,,,,,,,,,,,,,,,,,,0,4,4,3,,,AMNE15.jpg,AMSA08.jpg,AMNE19.jpg,AMSA02.jpg,AMNE15.jpg,MN,1,num_8,16,num_8,0.566810881835,,,2017_Aug_24_1414,60.0116836023,FEMA4ImagesEEG,001,201267,
AFSA25.JPG,AFNE24.JPG,AFSA24.JPG,AFNE21.JPG,AFSA21.JPG,AFNE25.JPG,,,,,,,,,,,,,,,,,,,,,0,5,5,2,,,AMSA15.jpg,AMNE05.jpg,AMSA09.jpg,AMNE04.jpg,AMSA15.jpg,MS,2,num_8,16,num_8,0.900088299648,,,2017_Aug_24_1414,60.0116836023,FEMA4ImagesEEG,001,201267,
AMNE22.JPG,AMSA24.JPG,AMSA22.JPG,AMNE25.JPG,AMNE24.JPG,AMSA25.JPG,,,,,,,,,,,,,,,,,,,,,0,6,6,7,,,AMNE19.jpg,AMSA10.jpg,AMSA01.jpg,AMNE12.jpg,AMNE19.jpg,MN,1,num_8,32,num_6,1.03341754887,,,2017_Aug_24_1414,60.0116836023,FEMA4ImagesEEG,001,201267,
AFSA21.JPG,AFNE22.JPG,AFNE21.JPG,AFSA23.JPG,AFSA22.JPG,AFNE23.JPG,,,,,,,,,,,,,,,,,,,,,0,7,7,0,,,AMSA12.jpg,AMNE04.jpg,AMSA20.jpg,AMNE07.jpg,AMSA12.jpg,MS,2,num_8,16,num_8,0.86682502646,,,2017_Aug_24_1414,60.0116836023,FEMA4ImagesEEG,001,201267,
AFNE22.JPG,AFSA24.JPG,AFSA22.JPG,AFNE25.JPG,AFNE24.JPG,AFSA25.JPG,,,,,,,,,,,,,,,,,,,,,0,8,8,6,,,AMNE18.jpg,AMSA10.jpg,AMNE17.jpg,AMSA08.jpg,AMSA10.jpg,MS,2,num_6,16,num_6,0.816720032482,,,2017_Aug_24_1414,60.0116836023,FEMA4ImagesEEG,001,201267,
AMSA21.JPG,AMNE23.JPG,AMNE21.JPG,AMSA25.JPG,AMNE25.JPG,AMSA23.JPG,,,,,,,,,,,,,,,,,,,,,0,9,9,5,,,AMNE09.jpg,AMSA09.jpg,AMNE11.jpg,AMSA05.jpg,AMNE11.jpg,MN,1,num_2,16,num_2,1.10006437253,,,2017_Aug_24_1414,60.0116836023,FEMA4ImagesEEG,001,201267,
,,,,,,,,,,,,,,,,,,,,,,,,,,,,,,,,,,,,,,,,,,,space,7.24964325724,2017_Aug_24_1414,60.0116836023,FEMA4ImagesEEG,001,201267,
AFNE01.JPG,AFNE01.JPG,AFNE01.JPG,AFNE01.JPG,AFNE01.JPG,AFNE01.JPG,0,0,0,5,,,,,,,,,,,,,,,,,,,,,,,AFNE06.jpg,AFNE13.jpg,AFSA16.jpg,AFSA05.jpg,AFSA16.jpg,FS,4,num_2,16,num_2,2.10003582668,,,2017_Aug_24_1414,60.0116836023,FEMA4ImagesEEG,001,201267,
AFNE01.JPG,AFNE01.JPG,AFNE01.JPG,AFNE01.JPG,AFNE01.JPG,AFNE01.JPG,0,1,1,4,,,,,,,,,,,,,,,,,,,,,,,AFSA03.jpg,AFSA13.jpg,AFNE05.jpg,AFNE17.jpg,AFSA13.jpg,FS,4,num_6,16,num_6,0.43350632966,,,2017_Aug_24_1414,60.0116836023,FEMA4ImagesEEG,001,201267,
AFNE01.JPG,AFNE01.JPG,AFNE01.JPG,AFNE01.JPG,AFNE01.JPG,AFNE01.JPG,0,2,2,8,,,,,,,,,,,,,,,,,,,,,,,AFNE05.jpg,AFNE07.jpg,AFSA16.jpg,AFSA18.jpg,AFSA16.jpg,FS,4,num_2,32,num_8,1.63367612916,,,2017_Aug_24_1414,60.0116836023,FEMA4ImagesEEG,001,201267,
AFNE01.JPG,AFNE01.JPG,AFNE01.JPG,AFNE01.JPG,AFNE01.JPG,AFNE01.JPG,0,3,3,3,,,,,,,,,,,,,,,,,,,,,,,AFNE06.jpg,AFSA10.jpg,AFNE16.jpg,AFSA04.jpg,AFNE16.jpg,FN,3,num_2,16,num_2,0.98349601787,,,2017_Aug_24_1414,60.0116836023,FEMA4ImagesEEG,001,201267,
AFNE01.JPG,AFNE01.JPG,AFNE01.JPG,AFNE01.JPG,AFNE01.JPG,AFNE01.JPG,0,4,4,2,,,,,,,,,,,,,,,,,,,,,,,AFNE15.jpg,AFSA13.jpg,AFNE09.jpg,AFSA07.jpg,AFSA07.jpg,FS,4,num_4,32,num_6,1.36672351242,,,2017_Aug_24_1414,60.0116836023,FEMA4ImagesEEG,001,201267,
AFNE01.JPG,AFNE01.JPG,AFNE01.JPG,AFNE01.JPG,AFNE01.JPG,AFNE01.JPG,0,5,5,6,,,,,,,,,,,,,,,,,,,,,,,AFNE18.jpg,AFSA08.jpg,AFSA06.jpg,AFNE20.jpg,AFSA06.jpg,FS,4,num_2,32,num_8,1.30008053768,,,2017_Aug_24_1414,60.0116836023,FEMA4ImagesEEG,001,201267,
AFNE01.JPG,AFNE01.JPG,AFNE01.JPG,AFNE01.JPG,AFNE01.JPG,AFNE01.JPG,0,6,6,9,,,,,,,,,,,,,,,,,,,,,,,AFSA13.jpg,AFSA12.jpg,AFNE02.jpg,AFNE06.jpg,AFNE02.jpg,FN,3,num_2,16,num_2,1.71672622266,,,2017_Aug_24_1414,60.0116836023,FEMA4ImagesEEG,001,201267,
AFNE01.JPG,AFNE01.JPG,AFNE01.JPG,AFNE01.JPG,AFNE01.JPG,AFNE01.JPG,0,7,7,0,,,,,,,,,,,,,,,,,,,,,,,AFNE13.jpg,AFNE03.jpg,AFSA13.jpg,AFSA17.jpg,AFNE13.jpg,FN,3,num_8,32,num_4,0.5834572725,,,2017_Aug_24_1414,60.0116836023,FEMA4ImagesEEG,001,201267,
AFNE01.JPG,AFNE01.JPG,AFNE01.JPG,AFNE01.JPG,AFNE01.JPG,AFNE01.JPG,0,8,8,1,,,,,,,,,,,,,,,,,,,,,,,AFSA18.jpg,AFSA20.jpg,AFNE14.jpg,AFNE16.jpg,AFSA20.jpg,FS,4,num_6,32,num_2,1.10009516345,,,2017_Aug_24_1414,60.0116836023,FEMA4ImagesEEG,001,201267,
AFNE01.JPG,AFNE01.JPG,AFNE01.JPG,AFNE01.JPG,AFNE01.JPG,AFNE01.JPG,0,9,9,7,,,,,,,,,,,,,,,,,,,,,,,AFNE20.jpg,AFNE08.jpg,AFSA17.jpg,AFSA04.jpg,AFSA17.jpg,FS,4,num_2,32,num_4,1.21675877774,,,2017_Aug_24_1414,60.0116836023,FEMA4ImagesEEG,001,201267,
AFNE01.JPG,AFNE01.JPG,AFNE01.JPG,AFNE01.JPG,AFNE01.JPG,AFNE01.JPG,1,0,10,3,,,,,,,,,,,,,,,,,,,,,,,AFNE12.jpg,AFSA01.jpg,AFSA14.jpg,AFNE01.jpg,AFNE01.jpg,FN,3,num_4,32,num_6,0.933463510941,,,2017_Aug_24_1414,60.0116836023,FEMA4ImagesEEG,001,201267,
AFNE01.JPG,AFNE01.JPG,AFNE01.JPG,AFNE01.JPG,AFNE01.JPG,AFNE01.JPG,1,1,11,8,,,,,,,,,,,,,,,,,,,,,,,AFSA08.jpg,AFNE11.jpg,AFSA11.jpg,AFNE19.jpg,AFSA08.jpg,FS,4,num_8,32,num_2,0.899984379997,,,2017_Aug_24_1414,60.0116836023,FEMA4ImagesEEG,001,201267,
AFNE01.JPG,AFNE01.JPG,AFNE01.JPG,AFNE01.JPG,AFNE01.JPG,AFNE01.JPG,1,2,12,0,,,,,,,,,,,,,,,,,,,,,,,AFNE06.jpg,AFSA12.jpg,AFNE18.jpg,AFSA10.jpg,AFSA10.jpg,FS,4,num_4,32,num_6,1.250097104,,,2017_Aug_24_1414,60.0116836023,FEMA4ImagesEEG,001,201267,
AFNE01.JPG,AFNE01.JPG,AFNE01.JPG,AFNE01.JPG,AFNE01.JPG,AFNE01.JPG,1,3,13,6,,,,,,,,,,,,,,,,,,,,,,,AFSA16.jpg,AFNE08.jpg,AFNE05.jpg,AFSA18.jpg,AFNE05.jpg,FN,3,num_2,32,num_8,1.08348982758,,,2017_Aug_24_1414,60.0116836023,FEMA4ImagesEEG,001,201267,
AFNE01.JPG,AFNE01.JPG,AFNE01.JPG,AFNE01.JPG,AFNE01.JPG,AFNE01.JPG,1,4,14,7,,,,,,,,,,,,,,,,,,,,,,,AFNE10.jpg,AFSA09.jpg,AFSA18.jpg,AFNE11.jpg,AFSA09.jpg,FS,4,num_6,32,num_2,0.80009448994,,,2017_Aug_24_1414,60.0116836023,FEMA4ImagesEEG,001,201267,
AFNE01.JPG,AFNE01.JPG,AFNE01.JPG,AFNE01.JPG,AFNE01.JPG,AFNE01.JPG,1,5,15,9,,,,,,,,,,,,,,,,,,,,,,,AFNE19.jpg,AFNE20.jpg,AFSA05.jpg,AFSA20.jpg,AFNE20.jpg,FN,3,num_6,16,num_6,1.13341328304,,,2017_Aug_24_1414,60.0116836023,FEMA4ImagesEEG,001,201267,
AFNE01.JPG,AFNE01.JPG,AFNE01.JPG,AFNE01.JPG,AFNE01.JPG,AFNE01.JPG,1,6,16,1,,,,,,,,,,,,,,,,,,,,,,,AFNE10.jpg,AFSA08.jpg,AFNE04.jpg,AFSA16.jpg,AFSA16.jpg,FS,4,num_4,16,num_4,1.46673784952,,,2017_Aug_24_1414,60.0116836023,FEMA4ImagesEEG,001,201267,
AFNE01.JPG,AFNE01.JPG,AFNE01.JPG,AFNE01.JPG,AFNE01.JPG,AFNE01.JPG,1,7,17,4,,,,,,,,,,,,,,,,,,,,,,,AFSA09.jpg,AFNE04.jpg,AFNE17.jpg,AFSA05.jpg,AFNE17.jpg,FN,3,num_2,16,num_2,1.00011867366,,,2017_Aug_24_1414,60.0116836023,FEMA4ImagesEEG,001,201267,
AFNE01.JPG,AFNE01.JPG,AFNE01.JPG,AFNE01.JPG,AFNE01.JPG,AFNE01.JPG,1,8,18,2,,,,,,,,,,,,,,,,,,,,,,,AFNE12.jpg,AFNE03.jpg,AFSA17.jpg,AFSA03.jpg,AFSA03.jpg,FS,4,num_4,32,num_6,1.48356417508,,,2017_Aug_24_1414,60.0116836023,FEMA4ImagesEEG,001,201267,
AFNE01.JPG,AFNE01.JPG,AFNE01.JPG,AFNE01.JPG,AFNE01.JPG,AFNE01.JPG,1,9,19,5,,,,,,,,,,,,,,,,,,,,,,,AFSA19.jpg,AFNE20.jpg,AFSA09.jpg,AFNE17.jpg,AFSA19.jpg,FS,4,num_8,32,num_2,2.21683511382,,,2017_Aug_24_1414,60.0116836023,FEMA4ImagesEEG,001,201267,
AFNE01.JPG,AFNE01.JPG,AFNE01.JPG,AFNE01.JPG,AFNE01.JPG,AFNE01.JPG,2,0,20,0,,,,,,,,,,,,,,,,,,,,,,,AFSA12.jpg,AFSA08.jpg,AFNE19.jpg,AFNE05.jpg,AFSA12.jpg,FS,4,num_8,16,num_8,1.13344279106,,,2017_Aug_24_1414,60.0116836023,FEMA4ImagesEEG,001,201267,
AFNE01.JPG,AFNE01.JPG,AFNE01.JPG,AFNE01.JPG,AFNE01.JPG,AFNE01.JPG,2,1,21,7,,,,,,,,,,,,,,,,,,,,,,,AFSA02.jpg,AFNE12.jpg,AFSA01.jpg,AFNE05.jpg,AFNE12.jpg,FN,3,num_6,16,num_6,0.966833590297,,,2017_Aug_24_1414,60.0116836023,FEMA4ImagesEEG,001,201267,
AFNE01.JPG,AFNE01.JPG,AFNE01.JPG,AFNE01.JPG,AFNE01.JPG,AFNE01.JPG,2,2,22,5,,,,,,,,,,,,,,,,,,,,,,,AFSA19.jpg,AFSA14.jpg,AFNE14.jpg,AFNE08.jpg,AFSA19.jpg,FS,4,num_8,32,num_2,1.28343510942,,,2017_Aug_24_1414,60.0116836023,FEMA4ImagesEEG,001,201267,
AFNE01.JPG,AFNE01.JPG,AFNE01.JPG,AFNE01.JPG,AFNE01.JPG,AFNE01.JPG,2,3,23,9,,,,,,,,,,,,,,,,,,,,,,,AFNE15.jpg,AFSA20.jpg,AFNE16.jpg,AFSA16.jpg,AFNE15.jpg,FN,3,num_8,16,num_8,0.916750406497,,,2017_Aug_24_1414,60.0116836023,FEMA4ImagesEEG,001,201267,
AFNE01.JPG,AFNE01.JPG,AFNE01.JPG,AFNE01.JPG,AFNE01.JPG,AFNE01.JPG,2,4,24,3,,,,,,,,,,,,,,,,,,,,,,,AFSA11.jpg,AFNE01.jpg,AFSA12.jpg,AFNE06.jpg,AFSA12.jpg,FS,4,num_2,16,num_2,1.4667291895,,,2017_Aug_24_1414,60.0116836023,FEMA4ImagesEEG,001,201267,
AFNE01.JPG,AFNE01.JPG,AFNE01.JPG,AFNE01.JPG,AFNE01.JPG,AFNE01.JPG,2,5,25,8,,,,,,,,,,,,,,,,,,,,,,,AFNE09.jpg,AFNE10.jpg,AFSA17.jpg,AFSA16.jpg,AFSA17.jpg,FS,4,num_2,32,num_8,1.61673594115,,,2017_Aug_24_1414,60.0116836023,FEMA4ImagesEEG,001,201267,
AFNE01.JPG,AFNE01.JPG,AFNE01.JPG,AFNE01.JPG,AFNE01.JPG,AFNE01.JPG,2,6,26,6,,,,,,,,,,,,,,,,,,,,,,,AFSA12.jpg,AFSA13.jpg,AFNE12.jpg,AFNE19.jpg,AFSA12.jpg,FS,4,num_8,32,num_6,1.25016638369,,,2017_Aug_24_1414,60.0116836023,FEMA4ImagesEEG,001,201267,
AFNE01.JPG,AFNE01.JPG,AFNE01.JPG,AFNE01.JPG,AFNE01.JPG,AFNE01.JPG,2,7,27,2,,,,,,,,,,,,,,,,,,,,,,,AFNE14.jpg,AFSA10.jpg,AFNE01.jpg,AFSA13.jpg,AFSA13.jpg,FS,4,num_4,32,num_2,1.21673728817,,,2017_Aug_24_1414,60.0116836023,FEMA4ImagesEEG,001,201267,
AFNE01.JPG,AFNE01.JPG,AFNE01.JPG,AFNE01.JPG,AFNE01.JPG,AFNE01.JPG,2,8,28,4,,,,,,,,,,,,,,,,,,,,,,,AFNE12.jpg,AFNE16.jpg,AFSA20.jpg,AFSA13.jpg,AFSA13.jpg,FS,4,num_4,48,None,,,,2017_Aug_24_1414,60.0116836023,FEMA4ImagesEEG,001,201267,
AFNE01.JPG,AFNE01.JPG,AFNE01.JPG,AFNE01.JPG,AFNE01.JPG,AFNE01.JPG,2,9,29,1,,,,,,,,,,,,,,,,,,,,,,,AFSA02.jpg,AFNE16.jpg,AFNE11.jpg,AFSA12.jpg,AFNE11.jpg,FN,3,num_2,32,num_8,2.23333717149,,,2017_Aug_24_1414,60.0116836023,FEMA4ImagesEEG,001,201267,
AFNE01.JPG,AFNE01.JPG,AFNE01.JPG,AFNE01.JPG,AFNE01.JPG,AFNE01.JPG,3,0,30,2,,,,,,,,,,,,,,,,,,,,,,,AFNE12.jpg,AFSA14.jpg,AFNE09.jpg,AFSA18.jpg,AFSA18.jpg,FS,4,num_4,16,num_4,0.366788943298,,,2017_Aug_24_1414,60.0116836023,FEMA4ImagesEEG,001,201267,
AFNE01.JPG,AFNE01.JPG,AFNE01.JPG,AFNE01.JPG,AFNE01.JPG,AFNE01.JPG,3,1,31,6,,,,,,,,,,,,,,,,,,,,,,,AFSA19.jpg,AFSA11.jpg,AFNE16.jpg,AFNE12.jpg,AFNE16.jpg,FN,3,num_2,32,num_6,0.333537858329,,,2017_Aug_24_1414,60.0116836023,FEMA4ImagesEEG,001,201267,
AFNE01.JPG,AFNE01.JPG,AFNE01.JPG,AFNE01.JPG,AFNE01.JPG,AFNE01.JPG,3,2,32,1,,,,,,,,,,,,,,,,,,,,,,,AFNE16.jpg,AFSA08.jpg,AFSA01.jpg,AFNE13.jpg,AFSA08.jpg,FS,4,num_6,32,num_4,1.26679032249,,,2017_Aug_24_1414,60.0116836023,FEMA4ImagesEEG,001,201267,
AFNE01.JPG,AFNE01.JPG,AFNE01.JPG,AFNE01.JPG,AFNE01.JPG,AFNE01.JPG,3,3,33,3,,,,,,,,,,,,,,,,,,,,,,,AFNE05.jpg,AFSA13.jpg,AFSA19.jpg,AFNE02.jpg,AFNE02.jpg,FN,3,num_4,16,num_4,1.03351024259,,,2017_Aug_24_1414,60.0116836023,FEMA4ImagesEEG,001,201267,
AFNE01.JPG,AFNE01.JPG,AFNE01.JPG,AFNE01.JPG,AFNE01.JPG,AFNE01.JPG,3,4,34,0,,,,,,,,,,,,,,,,,,,,,,,AFSA14.jpg,AFSA02.jpg,AFNE06.jpg,AFNE13.jpg,AFSA02.jpg,FS,4,num_6,16,num_6,0.883444154286,,,2017_Aug_24_1414,60.0116836023,FEMA4ImagesEEG,001,201267,
AFNE01.JPG,AFNE01.JPG,AFNE01.JPG,AFNE01.JPG,AFNE01.JPG,AFNE01.JPG,3,5,35,9,,,,,,,,,,,,,,,,,,,,,,,AFNE06.jpg,AFSA17.jpg,AFNE12.jpg,AFSA13.jpg,AFSA17.jpg,FS,4,num_6,16,num_6,0.483461859054,,,2017_Aug_24_1414,60.0116836023,FEMA4ImagesEEG,001,201267,
AFNE01.JPG,AFNE01.JPG,AFNE01.JPG,AFNE01.JPG,AFNE01.JPG,AFNE01.JPG,3,6,36,8,,,,,,,,,,,,,,,,,,,,,,,AFSA08.jpg,AFNE04.jpg,AFSA11.jpg,AFNE03.jpg,AFSA11.jpg,FS,4,num_2,16,num_2,0.916793385521,,,2017_Aug_24_1414,60.0116836023,FEMA4ImagesEEG,001,201267,
AFNE01.JPG,AFNE01.JPG,AFNE01.JPG,AFNE01.JPG,AFNE01.JPG,AFNE01.JPG,3,7,37,5,,,,,,,,,,,,,,,,,,,,,,,AFNE07.jpg,AFSA13.jpg,AFNE06.jpg,AFSA02.jpg,AFSA02.jpg,FS,4,num_4,32,num_8,1.53339076717,,,2017_Aug_24_1414,60.0116836023,FEMA4ImagesEEG,001,201267,
AFNE01.JPG,AFNE01.JPG,AFNE01.JPG,AFNE01.JPG,AFNE01.JPG,AFNE01.JPG,3,8,38,7,,,,,,,,,,,,,,,,,,,,,,,AFNE05.jpg,AFNE15.jpg,AFSA04.jpg,AFSA17.jpg,AFSA04.jpg,FS,4,num_2,16,num_2,0.916792744189,,,2017_Aug_24_1414,60.0116836023,FEMA4ImagesEEG,001,201267,
AFNE01.JPG,AFNE01.JPG,AFNE01.JPG,AFNE01.JPG,AFNE01.JPG,AFNE01.JPG,3,9,39,4,,,,,,,,,,,,,,,,,,,,,,,AFSA06.jpg,AFSA05.jpg,AFNE05.jpg,AFNE04.jpg,AFSA05.jpg,FS,4,num_6,16,num_6,2.16665217991,,,2017_Aug_24_1414,60.0116836023,FEMA4ImagesEEG,001,201267,
AFNE01.JPG,AFNE01.JPG,AFNE01.JPG,AFNE01.JPG,AFNE01.JPG,AFNE01.JPG,4,0,40,5,,,,,,,,,,,,,,,,,,,,,,,AFNE09.jpg,AFSA09.jpg,AFSA18.jpg,AFNE12.jpg,AFNE12.jpg,FN,3,num_4,32,num_2,0.450135400286,,,2017_Aug_24_1414,60.0116836023,FEMA4ImagesEEG,001,201267,
AFNE01.JPG,AFNE01.JPG,AFNE01.JPG,AFNE01.JPG,AFNE01.JPG,AFNE01.JPG,4,1,41,2,,,,,,,,,,,,,,,,,,,,,,,AFNE10.jpg,AFSA14.jpg,AFSA16.jpg,AFNE11.jpg,AFNE10.jpg,FN,3,num_8,16,num_8,1.01677981834,,,2017_Aug_24_1414,60.0116836023,FEMA4ImagesEEG,001,201267,
AFNE01.JPG,AFNE01.JPG,AFNE01.JPG,AFNE01.JPG,AFNE01.JPG,AFNE01.JPG,4,2,42,1,,,,,,,,,,,,,,,,,,,,,,,AFNE02.jpg,AFNE18.jpg,AFSA09.jpg,AFSA11.jpg,AFNE02.jpg,FN,3,num_8,32,num_6,1.30008406588,,,2017_Aug_24_1414,60.0116836023,FEMA4ImagesEEG,001,201267,
AFNE01.JPG,AFNE01.JPG,AFNE01.JPG,AFNE01.JPG,AFNE01.JPG,AFNE01.JPG,4,3,43,9,,,,,,,,,,,,,,,,,,,,,,,AFSA13.jpg,AFSA04.jpg,AFNE05.jpg,AFNE04.jpg,AFNE04.jpg,FN,3,num_4,16,num_4,0.383524499484,,,2017_Aug_24_1414,60.0116836023,FEMA4ImagesEEG,001,201267,
AFNE01.JPG,AFNE01.JPG,AFNE01.JPG,AFNE01.JPG,AFNE01.JPG,AFNE01.JPG,4,4,44,4,,,,,,,,,,,,,,,,,,,,,,,AFNE10.jpg,AFSA09.jpg,AFSA01.jpg,AFNE07.jpg,AFNE07.jpg,FN,3,num_4,32,num_8,0.733457930037,,,2017_Aug_24_1414,60.0116836023,FEMA4ImagesEEG,001,201267,
AFNE01.JPG,AFNE01.JPG,AFNE01.JPG,AFNE01.JPG,AFNE01.JPG,AFNE01.JPG,4,5,45,8,,,,,,,,,,,,,,,,,,,,,,,AFNE15.jpg,AFSA20.jpg,AFNE20.jpg,AFSA19.jpg,AFSA20.jpg,FS,4,num_6,32,num_2,0.350160834962,,,2017_Aug_24_1414,60.0116836023,FEMA4ImagesEEG,001,201267,
AFNE01.JPG,AFNE01.JPG,AFNE01.JPG,AFNE01.JPG,AFNE01.JPG,AFNE01.JPG,4,6,46,0,,,,,,,,,,,,,,,,,,,,,,,AFNE16.jpg,AFSA07.jpg,AFSA17.jpg,AFNE12.jpg,AFSA07.jpg,FS,4,num_6,16,num_6,0.433450200129,,,2017_Aug_24_1414,60.0116836023,FEMA4ImagesEEG,001,201267,
AFNE01.JPG,AFNE01.JPG,AFNE01.JPG,AFNE01.JPG,AFNE01.JPG,AFNE01.JPG,4,7,47,3,,,,,,,,,,,,,,,,,,,,,,,AFSA16.jpg,AFSA14.jpg,AFNE02.jpg,AFNE12.jpg,AFSA14.jpg,FS,4,num_6,32,num_4,0.266794171301,,,2017_Aug_24_1414,60.0116836023,FEMA4ImagesEEG,001,201267,
AFNE01.JPG,AFNE01.JPG,AFNE01.JPG,AFNE01.JPG,AFNE01.JPG,AFNE01.JPG,4,8,48,7,,,,,,,,,,,,,,,,,,,,,,,AFNE14.jpg,AFSA14.jpg,AFNE02.jpg,AFSA15.jpg,AFNE02.jpg,FN,3,num_2,32,num_8,0.31677215267,,,2017_Aug_24_1414,60.0116836023,FEMA4ImagesEEG,001,201267,
AFNE01.JPG,AFNE01.JPG,AFNE01.JPG,AFNE01.JPG,AFNE01.JPG,AFNE01.JPG,4,9,49,6,,,,,,,,,,,,,,,,,,,,,,,AFNE03.jpg,AFSA08.jpg,AFNE20.jpg,AFSA17.jpg,AFNE20.jpg,FN,3,num_2,16,num_2,0.266828490538,,,2017_Aug_24_1414,60.0116836023,FEMA4ImagesEEG,001,201267,
AFNE01.JPG,AFNE01.JPG,AFNE01.JPG,AFNE01.JPG,AFNE01.JPG,AFNE01.JPG,5,0,50,4,,,,,,,,,,,,,,,,,,,,,,,AFNE20.jpg,AFNE15.jpg,AFSA16.jpg,AFSA20.jpg,AFNE20.jpg,FN,3,num_8,32,num_6,0.433396315901,,,2017_Aug_24_1414,60.0116836023,FEMA4ImagesEEG,001,201267,
AFNE01.JPG,AFNE01.JPG,AFNE01.JPG,AFNE01.JPG,AFNE01.JPG,AFNE01.JPG,5,1,51,6,,,,,,,,,,,,,,,,,,,,,,,AFSA07.jpg,AFNE16.jpg,AFNE05.jpg,AFSA17.jpg,AFNE16.jpg,FN,3,num_6,32,num_2,0.750318574603,,,2017_Aug_24_1414,60.0116836023,FEMA4ImagesEEG,001,201267,
AFNE01.JPG,AFNE01.JPG,AFNE01.JPG,AFNE01.JPG,AFNE01.JPG,AFNE01.JPG,5,2,52,0,,,,,,,,,,,,,,,,,,,,,,,AFSA01.jpg,AFNE09.jpg,AFSA06.jpg,AFNE17.jpg,AFNE17.jpg,FN,3,num_4,32,num_8,0.333542348701,,,2017_Aug_24_1414,60.0116836023,FEMA4ImagesEEG,001,201267,
AFNE01.JPG,AFNE01.JPG,AFNE01.JPG,AFNE01.JPG,AFNE01.JPG,AFNE01.JPG,5,3,53,2,,,,,,,,,,,,,,,,,,,,,,,AFNE18.jpg,AFSA11.jpg,AFSA03.jpg,AFNE13.jpg,AFNE18.jpg,FN,3,num_8,32,num_4,0.283605742967,,,2017_Aug_24_1414,60.0116836023,FEMA4ImagesEEG,001,201267,
AFNE01.JPG,AFNE01.JPG,AFNE01.JPG,AFNE01.JPG,AFNE01.JPG,AFNE01.JPG,5,4,54,1,,,,,,,,,,,,,,,,,,,,,,,AFSA07.jpg,AFSA12.jpg,AFNE09.jpg,AFNE11.jpg,AFSA12.jpg,FS,4,num_6,16,num_6,0.333234117832,,,2017_Aug_24_1414,60.0116836023,FEMA4ImagesEEG,001,201267,
AFNE01.JPG,AFNE01.JPG,AFNE01.JPG,AFNE01.JPG,AFNE01.JPG,AFNE01.JPG,5,5,55,3,,,,,,,,,,,,,,,,,,,,,,,AFNE14.jpg,AFSA13.jpg,AFSA12.jpg,AFNE09.jpg,AFNE09.jpg,FN,3,num_4,32,num_8,0.216879055253,,,2017_Aug_24_1414,60.0116836023,FEMA4ImagesEEG,001,201267,
AFNE01.JPG,AFNE01.JPG,AFNE01.JPG,AFNE01.JPG,AFNE01.JPG,AFNE01.JPG,5,6,56,7,,,,,,,,,,,,,,,,,,,,,,,AFNE12.jpg,AFNE03.jpg,AFSA03.jpg,AFSA17.jpg,AFNE12.jpg,FN,3,num_8,32,num_4,0.400135929463,,,2017_Aug_24_1414,60.0116836023,FEMA4ImagesEEG,001,201267,
AFNE01.JPG,AFNE01.JPG,AFNE01.JPG,AFNE01.JPG,AFNE01.JPG,AFNE01.JPG,5,7,57,9,,,,,,,,,,,,,,,,,,,,,,,AFNE15.jpg,AFNE14.jpg,AFSA09.jpg,AFSA11.jpg,AFNE15.jpg,FN,3,num_8,16,num_8,0.700172525831,,,2017_Aug_24_1414,60.0116836023,FEMA4ImagesEEG,001,201267,
AFNE01.JPG,AFNE01.JPG,AFNE01.JPG,AFNE01.JPG,AFNE01.JPG,AFNE01.JPG,5,8,58,5,,,,,,,,,,,,,,,,,,,,,,,AFNE08.jpg,AFSA07.jpg,AFNE13.jpg,AFSA15.jpg,AFSA07.jpg,FS,4,num_6,16,num_6,0.450163946138,,,2017_Aug_24_1414,60.0116836023,FEMA4ImagesEEG,001,201267,
AFNE01.JPG,AFNE01.JPG,AFNE01.JPG,AFNE01.JPG,AFNE01.JPG,AFNE01.JPG,5,9,59,8,,,,,,,,,,,,,,,,,,,,,,,AFSA14.jpg,AFSA02.jpg,AFNE06.jpg,AFNE04.jpg,AFNE04.jpg,FN,3,num_4,16,num_4,0.366812036606,,,2017_Aug_24_1414,60.0116836023,FEMA4ImagesEEG,001,201267,
,,,,,,,,,,,,,,,,,,,,,,,,,,,,,,,,,,,,,,,,,,,space,2.48328064114,2017_Aug_24_1414,60.0116836023,FEMA4ImagesEEG,001,201267,
AFNE01.JPG,AFNE01.JPG,AFNE01.JPG,AFNE01.JPG,AFNE01.JPG,AFNE01.JPG,,,,,0,0,0,5,,,,,,,,,,,,,,,,,,,AMSA09.jpg,AMNE16.jpg,AMSA01.jpg,AMNE13.jpg,AMSA01.jpg,MS,2,num_2,16,num_2,1.65003128815,,,2017_Aug_24_1414,60.0116836023,FEMA4ImagesEEG,001,201267,
AFNE01.JPG,AFNE01.JPG,AFNE01.JPG,AFNE01.JPG,AFNE01.JPG,AFNE01.JPG,,,,,0,1,1,0,,,,,,,,,,,,,,,,,,,AMSA09.jpg,AMNE05.jpg,AMSA14.jpg,AMNE02.jpg,AMNE02.jpg,MN,1,num_4,16,num_4,1.01673074509,,,2017_Aug_24_1414,60.0116836023,FEMA4ImagesEEG,001,201267,
AFNE01.JPG,AFNE01.JPG,AFNE01.JPG,AFNE01.JPG,AFNE01.JPG,AFNE01.JPG,,,,,0,2,2,7,,,,,,,,,,,,,,,,,,,AMSA01.jpg,AMNE13.jpg,AMNE03.jpg,AMSA20.jpg,AMNE13.jpg,MN,1,num_6,16,num_6,0.750257954933,,,2017_Aug_24_1414,60.0116836023,FEMA4ImagesEEG,001,201267,
AFNE01.JPG,AFNE01.JPG,AFNE01.JPG,AFNE01.JPG,AFNE01.JPG,AFNE01.JPG,,,,,0,3,3,9,,,,,,,,,,,,,,,,,,,AMSA04.jpg,AMSA10.jpg,AMNE13.jpg,AMNE19.jpg,AMSA10.jpg,MS,2,num_6,32,num_2,0.683465515496,,,2017_Aug_24_1414,60.0116836023,FEMA4ImagesEEG,001,201267,
AFNE01.JPG,AFNE01.JPG,AFNE01.JPG,AFNE01.JPG,AFNE01.JPG,AFNE01.JPG,,,,,0,4,4,8,,,,,,,,,,,,,,,,,,,AMNE05.jpg,AMSA02.jpg,AMNE13.jpg,AMSA09.jpg,AMNE13.jpg,MN,1,num_2,16,num_2,0.500138719915,,,2017_Aug_24_1414,60.0116836023,FEMA4ImagesEEG,001,201267,
AFNE01.JPG,AFNE01.JPG,AFNE01.JPG,AFNE01.JPG,AFNE01.JPG,AFNE01.JPG,,,,,0,5,5,4,,,,,,,,,,,,,,,,,,,AMSA14.jpg,AMNE01.jpg,AMNE05.jpg,AMSA09.jpg,AMNE05.jpg,MN,1,num_2,16,num_2,1.03345122654,,,2017_Aug_24_1414,60.0116836023,FEMA4ImagesEEG,001,201267,
AFNE01.JPG,AFNE01.JPG,AFNE01.JPG,AFNE01.JPG,AFNE01.JPG,AFNE01.JPG,,,,,0,6,6,6,,,,,,,,,,,,,,,,,,,AMSA02.jpg,AMSA10.jpg,AMNE06.jpg,AMNE17.jpg,AMNE17.jpg,MN,1,num_4,32,num_8,2.18334058742,,,2017_Aug_24_1414,60.0116836023,FEMA4ImagesEEG,001,201267,
AFNE01.JPG,AFNE01.JPG,AFNE01.JPG,AFNE01.JPG,AFNE01.JPG,AFNE01.JPG,,,,,0,7,7,2,,,,,,,,,,,,,,,,,,,AMSA05.jpg,AMNE10.jpg,AMSA07.jpg,AMNE08.jpg,AMSA07.jpg,MS,2,num_2,32,num_6,0.350170457154,,,2017_Aug_24_1414,60.0116836023,FEMA4ImagesEEG,001,201267,
AFNE01.JPG,AFNE01.JPG,AFNE01.JPG,AFNE01.JPG,AFNE01.JPG,AFNE01.JPG,,,,,0,8,8,3,,,,,,,,,,,,,,,,,,,AMSA19.jpg,AMNE16.jpg,AMNE09.jpg,AMSA04.jpg,AMSA19.jpg,MS,2,num_8,32,num_4,0.999982359237,,,2017_Aug_24_1414,60.0116836023,FEMA4ImagesEEG,001,201267,
AFNE01.JPG,AFNE01.JPG,AFNE01.JPG,AFNE01.JPG,AFNE01.JPG,AFNE01.JPG,,,,,0,9,9,1,,,,,,,,,,,,,,,,,,,AMNE13.jpg,AMSA13.jpg,AMNE05.jpg,AMSA02.jpg,AMNE13.jpg,MN,1,num_8,16,num_8,1.03344545327,,,2017_Aug_24_1414,60.0116836023,FEMA4ImagesEEG,001,201267,
AFNE01.JPG,AFNE01.JPG,AFNE01.JPG,AFNE01.JPG,AFNE01.JPG,AFNE01.JPG,,,,,1,0,10,2,,,,,,,,,,,,,,,,,,,AMNE09.jpg,AMSA02.jpg,AMNE02.jpg,AMSA11.jpg,AMSA02.jpg,MS,2,num_6,16,num_6,0.400155494688,,,2017_Aug_24_1414,60.0116836023,FEMA4ImagesEEG,001,201267,
AFNE01.JPG,AFNE01.JPG,AFNE01.JPG,AFNE01.JPG,AFNE01.JPG,AFNE01.JPG,,,,,1,1,11,0,,,,,,,,,,,,,,,,,,,AMNE08.jpg,AMSA15.jpg,AMSA11.jpg,AMNE12.jpg,AMSA11.jpg,MS,2,num_2,16,num_2,0.550169623224,,,2017_Aug_24_1414,60.0116836023,FEMA4ImagesEEG,001,201267,
AFNE01.JPG,AFNE01.JPG,AFNE01.JPG,AFNE01.JPG,AFNE01.JPG,AFNE01.JPG,,,,,1,2,12,9,,,,,,,,,,,,,,,,,,,AMSA10.jpg,AMNE05.jpg,AMSA05.jpg,AMNE11.jpg,AMSA10.jpg,MS,2,num_8,16,num_8,0.500181698939,,,2017_Aug_24_1414,60.0116836023,FEMA4ImagesEEG,001,201267,
AFNE01.JPG,AFNE01.JPG,AFNE01.JPG,AFNE01.JPG,AFNE01.JPG,AFNE01.JPG,,,,,1,3,13,1,,,,,,,,,,,,,,,,,,,AMSA20.jpg,AMNE16.jpg,AMNE20.jpg,AMSA18.jpg,AMSA20.jpg,MS,2,num_8,16,num_8,1.33351765177,,,2017_Aug_24_1414,60.0116836023,FEMA4ImagesEEG,001,201267,
AFNE01.JPG,AFNE01.JPG,AFNE01.JPG,AFNE01.JPG,AFNE01.JPG,AFNE01.JPG,,,,,1,4,14,3,,,,,,,,,,,,,,,,,,,AMNE17.jpg,AMNE01.jpg,AMSA12.jpg,AMSA09.jpg,AMSA09.jpg,MS,2,num_4,32,num_6,1.00015010615,,,2017_Aug_24_1414,60.0116836023,FEMA4ImagesEEG,001,201267,
AFNE01.JPG,AFNE01.JPG,AFNE01.JPG,AFNE01.JPG,AFNE01.JPG,AFNE01.JPG,,,,,1,5,15,6,,,,,,,,,,,,,,,,,,,AMNE09.jpg,AMSA15.jpg,AMSA09.jpg,AMNE11.jpg,AMNE11.jpg,MN,1,num_4,16,num_4,1.29993877071,,,2017_Aug_24_1414,60.0116836023,FEMA4ImagesEEG,001,201267,
AFNE01.JPG,AFNE01.JPG,AFNE01.JPG,AFNE01.JPG,AFNE01.JPG,AFNE01.JPG,,,,,1,6,16,7,,,,,,,,,,,,,,,,,,,AMNE08.jpg,AMNE05.jpg,AMSA01.jpg,AMSA14.jpg,AMNE08.jpg,MN,1,num_8,32,num_2,0.516793128918,,,2017_Aug_24_1414,60.0116836023,FEMA4ImagesEEG,001,201267,
AFNE01.JPG,AFNE01.JPG,AFNE01.JPG,AFNE01.JPG,AFNE01.JPG,AFNE01.JPG,,,,,1,7,17,8,,,,,,,,,,,,,,,,,,,AMSA04.jpg,AMNE13.jpg,AMSA11.jpg,AMNE18.jpg,AMNE18.jpg,MN,1,num_4,32,num_8,0.333497124491,,,2017_Aug_24_1414,60.0116836023,FEMA4ImagesEEG,001,201267,
AFNE01.JPG,AFNE01.JPG,AFNE01.JPG,AFNE01.JPG,AFNE01.JPG,AFNE01.JPG,,,,,1,8,18,4,,,,,,,,,,,,,,,,,,,AMSA08.jpg,AMNE15.jpg,AMNE14.jpg,AMSA14.jpg,AMNE14.jpg,MN,1,num_2,32,num_4,0.683519720449,,,2017_Aug_24_1414,60.0116836023,FEMA4ImagesEEG,001,201267,
AFNE01.JPG,AFNE01.JPG,AFNE01.JPG,AFNE01.JPG,AFNE01.JPG,AFNE01.JPG,,,,,1,9,19,5,,,,,,,,,,,,,,,,,,,AMNE16.jpg,AMNE07.jpg,AMSA14.jpg,AMSA18.jpg,AMNE16.jpg,MN,1,num_8,16,num_8,0.450091138249,,,2017_Aug_24_1414,60.0116836023,FEMA4ImagesEEG,001,201267,
AFNE01.JPG,AFNE01.JPG,AFNE01.JPG,AFNE01.JPG,AFNE01.JPG,AFNE01.JPG,,,,,2,0,20,5,,,,,,,,,,,,,,,,,,,AMSA09.jpg,AMSA17.jpg,AMNE04.jpg,AMNE12.jpg,AMSA17.jpg,MS,2,num_6,32,num_2,0.733471721876,,,2017_Aug_24_1414,60.0116836023,FEMA4ImagesEEG,001,201267,
AFNE01.JPG,AFNE01.JPG,AFNE01.JPG,AFNE01.JPG,AFNE01.JPG,AFNE01.JPG,,,,,2,1,21,6,,,,,,,,,,,,,,,,,,,AMSA17.jpg,AMSA10.jpg,AMNE20.jpg,AMNE18.jpg,AMNE20.jpg,MN,1,num_2,32,num_4,1.4167165684,,,2017_Aug_24_1414,60.0116836023,FEMA4ImagesEEG,001,201267,
AFNE01.JPG,AFNE01.JPG,AFNE01.JPG,AFNE01.JPG,AFNE01.JPG,AFNE01.JPG,,,,,2,2,22,9,,,,,,,,,,,,,,,,,,,AMSA16.jpg,AMNE06.jpg,AMNE07.jpg,AMSA01.jpg,AMSA16.jpg,MS,2,num_8,32,num_6,1.76707401685,,,2017_Aug_24_1414,60.0116836023,FEMA4ImagesEEG,001,201267,
AFNE01.JPG,AFNE01.JPG,AFNE01.JPG,AFNE01.JPG,AFNE01.JPG,AFNE01.JPG,,,,,2,3,23,7,,,,,,,,,,,,,,,,,,,AMNE13.jpg,AMSA08.jpg,AMSA14.jpg,AMNE15.jpg,AMNE13.jpg,MN,1,num_8,16,num_8,0.683490853989,,,2017_Aug_24_1414,60.0116836023,FEMA4ImagesEEG,001,201267,
AFNE01.JPG,AFNE01.JPG,AFNE01.JPG,AFNE01.JPG,AFNE01.JPG,AFNE01.JPG,,,,,2,4,24,0,,,,,,,,,,,,,,,,,,,AMNE17.jpg,AMSA20.jpg,AMNE13.jpg,AMSA13.jpg,AMSA13.jpg,MS,2,num_4,32,num_2,0.666750807315,,,2017_Aug_24_1414,60.0116836023,FEMA4ImagesEEG,001,201267,
AFNE01.JPG,AFNE01.JPG,AFNE01.JPG,AFNE01.JPG,AFNE01.JPG,AFNE01.JPG,,,,,2,5,25,8,,,,,,,,,,,,,,,,,,,AMNE01.jpg,AMSA18.jpg,AMNE14.jpg,AMSA19.jpg,AMNE14.jpg,MN,1,num_2,48,None,,,,2017_Aug_24_1414,60.0116836023,FEMA4ImagesEEG,001,201267,
AFNE01.JPG,AFNE01.JPG,AFNE01.JPG,AFNE01.JPG,AFNE01.JPG,AFNE01.JPG,,,,,2,6,26,1,,,,,,,,,,,,,,,,,,,AMNE10.jpg,AMSA06.jpg,AMNE05.jpg,AMSA15.jpg,AMNE10.jpg,MN,1,num_8,16,num_8,1.55008141976,,,2017_Aug_24_1414,60.0116836023,FEMA4ImagesEEG,001,201267,
AFNE01.JPG,AFNE01.JPG,AFNE01.JPG,AFNE01.JPG,AFNE01.JPG,AFNE01.JPG,,,,,2,7,27,3,,,,,,,,,,,,,,,,,,,AMSA15.jpg,AMNE18.jpg,AMNE05.jpg,AMSA01.jpg,AMNE05.jpg,MN,1,num_2,32,num_6,2.16671279969,,,2017_Aug_24_1414,60.0116836023,FEMA4ImagesEEG,001,201267,
AFNE01.JPG,AFNE01.JPG,AFNE01.JPG,AFNE01.JPG,AFNE01.JPG,AFNE01.JPG,,,,,2,8,28,4,,,,,,,,,,,,,,,,,,,AMNE01.jpg,AMSA04.jpg,AMSA01.jpg,AMNE11.jpg,AMNE11.jpg,MN,1,num_4,16,num_4,0.900114600314,,,2017_Aug_24_1414,60.0116836023,FEMA4ImagesEEG,001,201267,
AFNE01.JPG,AFNE01.JPG,AFNE01.JPG,AFNE01.JPG,AFNE01.JPG,AFNE01.JPG,,,,,2,9,29,2,,,,,,,,,,,,,,,,,,,AMSA03.jpg,AMNE13.jpg,AMNE20.jpg,AMSA02.jpg,AMSA03.jpg,MS,2,num_8,16,num_8,0.933442341979,,,2017_Aug_24_1414,60.0116836023,FEMA4ImagesEEG,001,201267,
AFNE01.JPG,AFNE01.JPG,AFNE01.JPG,AFNE01.JPG,AFNE01.JPG,AFNE01.JPG,,,,,3,0,30,8,,,,,,,,,,,,,,,,,,,AMSA16.jpg,AMSA20.jpg,AMNE16.jpg,AMNE13.jpg,AMSA16.jpg,MS,2,num_8,32,num_2,0.950131391059,,,2017_Aug_24_1414,60.0116836023,FEMA4ImagesEEG,001,201267,
AFNE01.JPG,AFNE01.JPG,AFNE01.JPG,AFNE01.JPG,AFNE01.JPG,AFNE01.JPG,,,,,3,1,31,2,,,,,,,,,,,,,,,,,,,AMSA04.jpg,AMNE20.jpg,AMSA17.jpg,AMNE09.jpg,AMSA17.jpg,MS,2,num_2,32,num_6,1.35007551813,,,2017_Aug_24_1414,60.0116836023,FEMA4ImagesEEG,001,201267,
AFNE01.JPG,AFNE01.JPG,AFNE01.JPG,AFNE01.JPG,AFNE01.JPG,AFNE01.JPG,,,,,3,2,32,4,,,,,,,,,,,,,,,,,,,AMSA03.jpg,AMSA08.jpg,AMNE10.jpg,AMNE18.jpg,AMNE18.jpg,MN,1,num_4,16,num_4,1.10010157828,,,2017_Aug_24_1414,60.0116836023,FEMA4ImagesEEG,001,201267,
AFNE01.JPG,AFNE01.JPG,AFNE01.JPG,AFNE01.JPG,AFNE01.JPG,AFNE01.JPG,,,,,3,3,33,1,,,,,,,,,,,,,,,,,,,AMNE02.jpg,AMSA02.jpg,AMNE15.jpg,AMSA17.jpg,AMSA02.jpg,MS,2,num_6,16,num_6,0.95030908077,,,2017_Aug_24_1414,60.0116836023,FEMA4ImagesEEG,001,201267,
AFNE01.JPG,AFNE01.JPG,AFNE01.JPG,AFNE01.JPG,AFNE01.JPG,AFNE01.JPG,,,,,3,4,34,7,,,,,,,,,,,,,,,,,,,AMNE11.jpg,AMSA19.jpg,AMNE02.jpg,AMSA02.jpg,AMSA02.jpg,MS,2,num_4,32,num_8,1.09998643282,,,2017_Aug_24_1414,60.0116836023,FEMA4ImagesEEG,001,201267,
AFNE01.JPG,AFNE01.JPG,AFNE01.JPG,AFNE01.JPG,AFNE01.JPG,AFNE01.JPG,,,,,3,5,35,0,,,,,,,,,,,,,,,,,,,AMNE06.jpg,AMSA20.jpg,AMSA16.jpg,AMNE18.jpg,AMSA16.jpg,MS,2,num_2,16,num_2,0.38346869091,,,2017_Aug_24_1414,60.0116836023,FEMA4ImagesEEG,001,201267,
AFNE01.JPG,AFNE01.JPG,AFNE01.JPG,AFNE01.JPG,AFNE01.JPG,AFNE01.JPG,,,,,3,6,36,6,,,,,,,,,,,,,,,,,,,AMNE17.jpg,AMSA14.jpg,AMSA12.jpg,AMNE05.jpg,AMSA12.jpg,MS,2,num_2,32,num_6,0.866795518436,,,2017_Aug_24_1414,60.0116836023,FEMA4ImagesEEG,001,201267,
AFNE01.JPG,AFNE01.JPG,AFNE01.JPG,AFNE01.JPG,AFNE01.JPG,AFNE01.JPG,,,,,3,7,37,9,,,,,,,,,,,,,,,,,,,AMSA04.jpg,AMNE10.jpg,AMSA09.jpg,AMNE11.jpg,AMNE11.jpg,MN,1,num_4,16,num_4,1.63340093463,,,2017_Aug_24_1414,60.0116836023,FEMA4ImagesEEG,001,201267,
AFNE01.JPG,AFNE01.JPG,AFNE01.JPG,AFNE01.JPG,AFNE01.JPG,AFNE01.JPG,,,,,3,8,38,5,,,,,,,,,,,,,,,,,,,AMSA11.jpg,AMNE03.jpg,AMNE07.jpg,AMSA07.jpg,AMNE03.jpg,MN,1,num_6,16,num_6,1.00009141082,,,2017_Aug_24_1414,60.0116836023,FEMA4ImagesEEG,001,201267,
AFNE01.JPG,AFNE01.JPG,AFNE01.JPG,AFNE01.JPG,AFNE01.JPG,AFNE01.JPG,,,,,3,9,39,3,,,,,,,,,,,,,,,,,,,AMSA15.jpg,AMSA19.jpg,AMNE15.jpg,AMNE14.jpg,AMSA19.jpg,MS,2,num_6,32,num_8,1.08345390472,,,2017_Aug_24_1414,60.0116836023,FEMA4ImagesEEG,001,201267,
AFNE01.JPG,AFNE01.JPG,AFNE01.JPG,AFNE01.JPG,AFNE01.JPG,AFNE01.JPG,,,,,4,0,40,2,,,,,,,,,,,,,,,,,,,AMSA01.jpg,AMNE16.jpg,AMSA05.jpg,AMNE05.jpg,AMSA05.jpg,MS,2,num_2,16,num_2,0.583738881978,,,2017_Aug_24_1414,60.0116836023,FEMA4ImagesEEG,001,201267,
AFNE01.JPG,AFNE01.JPG,AFNE01.JPG,AFNE01.JPG,AFNE01.JPG,AFNE01.JPG,,,,,4,1,41,6,,,,,,,,,,,,,,,,,,,AMNE09.jpg,AMSA18.jpg,AMSA17.jpg,AMNE19.jpg,AMSA18.jpg,MS,2,num_6,16,num_6,0.383511990658,,,2017_Aug_24_1414,60.0116836023,FEMA4ImagesEEG,001,201267,
AFNE01.JPG,AFNE01.JPG,AFNE01.JPG,AFNE01.JPG,AFNE01.JPG,AFNE01.JPG,,,,,4,2,42,5,,,,,,,,,,,,,,,,,,,AMSA02.jpg,AMNE05.jpg,AMNE14.jpg,AMSA11.jpg,AMNE05.jpg,MN,1,num_6,32,num_2,0.916778310784,,,2017_Aug_24_1414,60.0116836023,FEMA4ImagesEEG,001,201267,
AFNE01.JPG,AFNE01.JPG,AFNE01.JPG,AFNE01.JPG,AFNE01.JPG,AFNE01.JPG,,,,,4,3,43,1,,,,,,,,,,,,,,,,,,,AMNE06.jpg,AMSA02.jpg,AMSA19.jpg,AMNE18.jpg,AMNE06.jpg,MN,1,num_8,16,num_8,1.25013302674,,,2017_Aug_24_1414,60.0116836023,FEMA4ImagesEEG,001,201267,
AFNE01.JPG,AFNE01.JPG,AFNE01.JPG,AFNE01.JPG,AFNE01.JPG,AFNE01.JPG,,,,,4,4,44,8,,,,,,,,,,,,,,,,,,,AMNE08.jpg,AMSA13.jpg,AMNE02.jpg,AMSA09.jpg,AMNE02.jpg,MN,1,num_2,16,num_2,0.916781197418,,,2017_Aug_24_1414,60.0116836023,FEMA4ImagesEEG,001,201267,
AFNE01.JPG,AFNE01.JPG,AFNE01.JPG,AFNE01.JPG,AFNE01.JPG,AFNE01.JPG,,,,,4,5,45,7,,,,,,,,,,,,,,,,,,,AMSA06.jpg,AMNE07.jpg,AMNE12.jpg,AMSA14.jpg,AMNE07.jpg,MN,1,num_6,16,num_6,0.616768977256,,,2017_Aug_24_1414,60.0116836023,FEMA4ImagesEEG,001,201267,
AFNE01.JPG,AFNE01.JPG,AFNE01.JPG,AFNE01.JPG,AFNE01.JPG,AFNE01.JPG,,,,,4,6,46,9,,,,,,,,,,,,,,,,,,,AMSA17.jpg,AMNE09.jpg,AMSA13.jpg,AMNE10.jpg,AMSA17.jpg,MS,2,num_8,16,num_8,2.94995241822,,,2017_Aug_24_1414,60.0116836023,FEMA4ImagesEEG,001,201267,
AFNE01.JPG,AFNE01.JPG,AFNE01.JPG,AFNE01.JPG,AFNE01.JPG,AFNE01.JPG,,,,,4,7,47,3,,,,,,,,,,,,,,,,,,,AMNE05.jpg,AMSA02.jpg,AMSA16.jpg,AMNE14.jpg,AMSA02.jpg,MS,2,num_6,16,num_6,1.11693014903,,,2017_Aug_24_1414,60.0116836023,FEMA4ImagesEEG,001,201267,
AFNE01.JPG,AFNE01.JPG,AFNE01.JPG,AFNE01.JPG,AFNE01.JPG,AFNE01.JPG,,,,,4,8,48,0,,,,,,,,,,,,,,,,,,,AMNE15.jpg,AMSA06.jpg,AMSA02.jpg,AMNE11.jpg,AMSA06.jpg,MS,2,num_6,32,num_8,1.06676645938,,,2017_Aug_24_1414,60.0116836023,FEMA4ImagesEEG,001,201267,
AFNE01.JPG,AFNE01.JPG,AFNE01.JPG,AFNE01.JPG,AFNE01.JPG,AFNE01.JPG,,,,,4,9,49,4,,,,,,,,,,,,,,,,,,,AMSA15.jpg,AMNE15.jpg,AMNE10.jpg,AMSA04.jpg,AMNE15.jpg,MN,1,num_6,16,num_6,0.433470727527,,,2017_Aug_24_1414,60.0116836023,FEMA4ImagesEEG,001,201267,
AFNE01.JPG,AFNE01.JPG,AFNE01.JPG,AFNE01.JPG,AFNE01.JPG,AFNE01.JPG,,,,,5,0,50,8,,,,,,,,,,,,,,,,,,,AMSA01.jpg,AMNE02.jpg,AMNE01.jpg,AMSA13.jpg,AMSA01.jpg,MS,2,num_8,16,num_8,0.550105154514,,,2017_Aug_24_1414,60.0116836023,FEMA4ImagesEEG,001,201267,
AFNE01.JPG,AFNE01.JPG,AFNE01.JPG,AFNE01.JPG,AFNE01.JPG,AFNE01.JPG,,,,,5,1,51,3,,,,,,,,,,,,,,,,,,,AMNE05.jpg,AMSA06.jpg,AMSA14.jpg,AMNE08.jpg,AMNE08.jpg,MN,1,num_4,16,num_4,0.966806648183,,,2017_Aug_24_1414,60.0116836023,FEMA4ImagesEEG,001,201267,
AFNE01.JPG,AFNE01.JPG,AFNE01.JPG,AFNE01.JPG,AFNE01.JPG,AFNE01.JPG,,,,,5,2,52,6,,,,,,,,,,,,,,,,,,,AMNE20.jpg,AMSA10.jpg,AMSA05.jpg,AMNE04.jpg,AMSA10.jpg,MS,2,num_6,16,num_6,1.01675800793,,,2017_Aug_24_1414,60.0116836023,FEMA4ImagesEEG,001,201267,
AFNE01.JPG,AFNE01.JPG,AFNE01.JPG,AFNE01.JPG,AFNE01.JPG,AFNE01.JPG,,,,,5,3,53,2,,,,,,,,,,,,,,,,,,,AMSA17.jpg,AMSA18.jpg,AMNE09.jpg,AMNE12.jpg,AMSA18.jpg,MS,2,num_6,32,num_8,0.816736390116,,,2017_Aug_24_1414,60.0116836023,FEMA4ImagesEEG,001,201267,
AFNE01.JPG,AFNE01.JPG,AFNE01.JPG,AFNE01.JPG,AFNE01.JPG,AFNE01.JPG,,,,,5,4,54,0,,,,,,,,,,,,,,,,,,,AMSA20.jpg,AMNE06.jpg,AMNE05.jpg,AMSA06.jpg,AMSA06.jpg,MS,2,num_4,16,num_4,1.01676346059,,,2017_Aug_24_1414,60.0116836023,FEMA4ImagesEEG,001,201267,
AFNE01.JPG,AFNE01.JPG,AFNE01.JPG,AFNE01.JPG,AFNE01.JPG,AFNE01.JPG,,,,,5,5,55,5,,,,,,,,,,,,,,,,,,,AMSA01.jpg,AMNE07.jpg,AMNE06.jpg,AMSA09.jpg,AMNE07.jpg,MN,1,num_6,16,num_6,1.1999484892,,,2017_Aug_24_1414,60.0116836023,FEMA4ImagesEEG,001,201267,
AFNE01.JPG,AFNE01.JPG,AFNE01.JPG,AFNE01.JPG,AFNE01.JPG,AFNE01.JPG,,,,,5,6,56,9,,,,,,,,,,,,,,,,,,,AMSA15.jpg,AMNE07.jpg,AMNE18.jpg,AMSA03.jpg,AMSA15.jpg,MS,2,num_8,16,num_8,3.10000503564,,,2017_Aug_24_1414,60.0116836023,FEMA4ImagesEEG,001,201267,
AFNE01.JPG,AFNE01.JPG,AFNE01.JPG,AFNE01.JPG,AFNE01.JPG,AFNE01.JPG,,,,,5,7,57,4,,,,,,,,,,,,,,,,,,,AMSA20.jpg,AMNE12.jpg,AMSA04.jpg,AMNE11.jpg,AMSA20.jpg,MS,2,num_8,32,num_6,1.25005701149,,,2017_Aug_24_1414,60.0116836023,FEMA4ImagesEEG,001,201267,
AFNE01.JPG,AFNE01.JPG,AFNE01.JPG,AFNE01.JPG,AFNE01.JPG,AFNE01.JPG,,,,,5,8,58,7,,,,,,,,,,,,,,,,,,,AMSA02.jpg,AMSA06.jpg,AMNE19.jpg,AMNE18.jpg,AMSA06.jpg,MS,2,num_6,32,num_4,0.466831826256,,,2017_Aug_24_1414,60.0116836023,FEMA4ImagesEEG,001,201267,
AFNE01.JPG,AFNE01.JPG,AFNE01.JPG,AFNE01.JPG,AFNE01.JPG,AFNE01.JPG,,,,,5,9,59,1,,,,,,,,,,,,,,,,,,,AMSA05.jpg,AMNE07.jpg,AMSA11.jpg,AMNE05.jpg,AMNE07.jpg,MN,1,num_6,16,num_6,1.05010980519,,,2017_Aug_24_1414,60.0116836023,FEMA4ImagesEEG,001,201267,
,,,,,,,,,,,,,,,,,,,,,,,,,,,,,,,,,,,,,,,,,,,space,3.64956974366,2017_Aug_24_1414,60.0116836023,FEMA4ImagesEEG,001,201267,
AFNE01.JPG,AFNE01.JPG,AFNE01.JPG,AFNE01.JPG,AFNE01.JPG,AFNE01.JPG,,,,,,,,,0,0,0,9,,,,,,,,,,,,,,,AFSA14.jpg,AFNE19.jpg,AFSA20.jpg,AFNE07.jpg,AFNE07.jpg,FN,3,num_4,32,num_6,0.566781373927,,,2017_Aug_24_1414,60.0116836023,FEMA4ImagesEEG,001,201267,
AFNE01.JPG,AFNE01.JPG,AFNE01.JPG,AFNE01.JPG,AFNE01.JPG,AFNE01.JPG,,,,,,,,,0,1,1,8,,,,,,,,,,,,,,,AFSA19.jpg,AFNE16.jpg,AFSA20.jpg,AFNE12.jpg,AFNE12.jpg,FN,3,num_4,32,num_8,0.766950531979,,,2017_Aug_24_1414,60.0116836023,FEMA4ImagesEEG,001,201267,
AFNE01.JPG,AFNE01.JPG,AFNE01.JPG,AFNE01.JPG,AFNE01.JPG,AFNE01.JPG,,,,,,,,,0,2,2,0,,,,,,,,,,,,,,,AFNE14.jpg,AFNE06.jpg,AFSA13.jpg,AFSA07.jpg,AFSA13.jpg,FS,4,num_2,32,num_6,0.883445437183,,,2017_Aug_24_1414,60.0116836023,FEMA4ImagesEEG,001,201267,
AFNE01.JPG,AFNE01.JPG,AFNE01.JPG,AFNE01.JPG,AFNE01.JPG,AFNE01.JPG,,,,,,,,,0,3,3,4,,,,,,,,,,,,,,,AFNE16.jpg,AFSA01.jpg,AFNE01.jpg,AFSA06.jpg,AFNE16.jpg,FN,3,num_8,32,num_2,1.70006379508,,,2017_Aug_24_1414,60.0116836023,FEMA4ImagesEEG,001,201267,
AFNE01.JPG,AFNE01.JPG,AFNE01.JPG,AFNE01.JPG,AFNE01.JPG,AFNE01.JPG,,,,,,,,,0,4,4,3,,,,,,,,,,,,,,,AFSA15.jpg,AFNE18.jpg,AFNE16.jpg,AFSA20.jpg,AFSA15.jpg,FS,4,num_8,16,num_8,0.700165148824,,,2017_Aug_24_1414,60.0116836023,FEMA4ImagesEEG,001,201267,
AFNE01.JPG,AFNE01.JPG,AFNE01.JPG,AFNE01.JPG,AFNE01.JPG,AFNE01.JPG,,,,,,,,,0,5,5,2,,,,,,,,,,,,,,,AFSA01.jpg,AFNE10.jpg,AFNE06.jpg,AFSA15.jpg,AFSA01.jpg,FS,4,num_8,32,num_2,1.11673417699,,,2017_Aug_24_1414,60.0116836023,FEMA4ImagesEEG,001,201267,
AFNE01.JPG,AFNE01.JPG,AFNE01.JPG,AFNE01.JPG,AFNE01.JPG,AFNE01.JPG,,,,,,,,,0,6,6,1,,,,,,,,,,,,,,,AFSA04.jpg,AFSA08.jpg,AFNE02.jpg,AFNE15.jpg,AFNE15.jpg,FN,3,num_4,16,num_4,0.816793481819,,,2017_Aug_24_1414,60.0116836023,FEMA4ImagesEEG,001,201267,
AFNE01.JPG,AFNE01.JPG,AFNE01.JPG,AFNE01.JPG,AFNE01.JPG,AFNE01.JPG,,,,,,,,,0,7,7,5,,,,,,,,,,,,,,,AFSA11.jpg,AFNE10.jpg,AFSA10.jpg,AFNE11.jpg,AFSA11.jpg,FS,4,num_8,16,num_8,0.866763123777,,,2017_Aug_24_1414,60.0116836023,FEMA4ImagesEEG,001,201267,
AFNE01.JPG,AFNE01.JPG,AFNE01.JPG,AFNE01.JPG,AFNE01.JPG,AFNE01.JPG,,,,,,,,,0,8,8,7,,,,,,,,,,,,,,,AFSA16.jpg,AFNE20.jpg,AFNE13.jpg,AFSA06.jpg,AFSA06.jpg,FS,4,num_4,32,num_8,0.70018888358,,,2017_Aug_24_1414,60.0116836023,FEMA4ImagesEEG,001,201267,
AFNE01.JPG,AFNE01.JPG,AFNE01.JPG,AFNE01.JPG,AFNE01.JPG,AFNE01.JPG,,,,,,,,,0,9,9,6,,,,,,,,,,,,,,,AFSA08.jpg,AFNE11.jpg,AFNE07.jpg,AFSA20.jpg,AFSA20.jpg,FS,4,num_4,32,num_8,0.666764599155,,,2017_Aug_24_1414,60.0116836023,FEMA4ImagesEEG,001,201267,
AFNE01.JPG,AFNE01.JPG,AFNE01.JPG,AFNE01.JPG,AFNE01.JPG,AFNE01.JPG,,,,,,,,,1,0,10,2,,,,,,,,,,,,,,,AFNE06.jpg,AFSA03.jpg,AFSA18.jpg,AFNE03.jpg,AFNE06.jpg,FN,3,num_8,32,num_6,0.333531443612,,,2017_Aug_24_1414,60.0116836023,FEMA4ImagesEEG,001,201267,
AFNE01.JPG,AFNE01.JPG,AFNE01.JPG,AFNE01.JPG,AFNE01.JPG,AFNE01.JPG,,,,,,,,,1,1,11,1,,,,,,,,,,,,,,,AFSA12.jpg,AFNE12.jpg,AFSA20.jpg,AFNE15.jpg,AFNE15.jpg,FN,3,num_4,32,num_6,0.600283918786,,,2017_Aug_24_1414,60.0116836023,FEMA4ImagesEEG,001,201267,
AFNE01.JPG,AFNE01.JPG,AFNE01.JPG,AFNE01.JPG,AFNE01.JPG,AFNE01.JPG,,,,,,,,,1,2,12,3,,,,,,,,,,,,,,,AFSA19.jpg,AFNE15.jpg,AFSA17.jpg,AFNE03.jpg,AFSA17.jpg,FS,4,num_2,16,num_2,0.833447570098,,,2017_Aug_24_1414,60.0116836023,FEMA4ImagesEEG,001,201267,
AFNE01.JPG,AFNE01.JPG,AFNE01.JPG,AFNE01.JPG,AFNE01.JPG,AFNE01.JPG,,,,,,,,,1,3,13,4,,,,,,,,,,,,,,,AFNE02.jpg,AFSA19.jpg,AFSA06.jpg,AFNE04.jpg,AFNE02.jpg,FN,3,num_8,16,num_8,0.66720561625,,,2017_Aug_24_1414,60.0116836023,FEMA4ImagesEEG,001,201267,
AFNE01.JPG,AFNE01.JPG,AFNE01.JPG,AFNE01.JPG,AFNE01.JPG,AFNE01.JPG,,,,,,,,,1,4,14,5,,,,,,,,,,,,,,,AFNE14.jpg,AFSA06.jpg,AFSA13.jpg,AFNE01.jpg,AFSA13.jpg,FS,4,num_2,16,num_2,0.899971229606,,,2017_Aug_24_1414,60.0116836023,FEMA4ImagesEEG,001,201267,
AFNE01.JPG,AFNE01.JPG,AFNE01.JPG,AFNE01.JPG,AFNE01.JPG,AFNE01.JPG,,,,,,,,,1,5,15,6,,,,,,,,,,,,,,,AFNE18.jpg,AFSA17.jpg,AFSA01.jpg,AFNE07.jpg,AFSA17.jpg,FS,4,num_6,16,num_6,0.816874308162,,,2017_Aug_24_1414,60.0116836023,FEMA4ImagesEEG,001,201267,
AFNE01.JPG,AFNE01.JPG,AFNE01.JPG,AFNE01.JPG,AFNE01.JPG,AFNE01.JPG,,,,,,,,,1,6,16,0,,,,,,,,,,,,,,,AFNE11.jpg,AFSA18.jpg,AFSA09.jpg,AFNE08.jpg,AFSA09.jpg,FS,4,num_2,16,num_2,0.85009428137,,,2017_Aug_24_1414,60.0116836023,FEMA4ImagesEEG,001,201267,
AFNE01.JPG,AFNE01.JPG,AFNE01.JPG,AFNE01.JPG,AFNE01.JPG,AFNE01.JPG,,,,,,,,,1,7,17,8,,,,,,,,,,,,,,,AFNE03.jpg,AFSA20.jpg,AFNE13.jpg,AFSA15.jpg,AFSA15.jpg,FS,4,num_4,16,num_4,0.866794556379,,,2017_Aug_24_1414,60.0116836023,FEMA4ImagesEEG,001,201267,
AFNE01.JPG,AFNE01.JPG,AFNE01.JPG,AFNE01.JPG,AFNE01.JPG,AFNE01.JPG,,,,,,,,,1,8,18,7,,,,,,,,,,,,,,,AFSA03.jpg,AFNE15.jpg,AFSA08.jpg,AFNE09.jpg,AFSA03.jpg,FS,4,num_8,16,num_8,1.05007548607,,,2017_Aug_24_1414,60.0116836023,FEMA4ImagesEEG,001,201267,
AFNE01.JPG,AFNE01.JPG,AFNE01.JPG,AFNE01.JPG,AFNE01.JPG,AFNE01.JPG,,,,,,,,,1,9,19,9,,,,,,,,,,,,,,,AFSA16.jpg,AFNE01.jpg,AFSA12.jpg,AFNE14.jpg,AFNE01.jpg,FN,3,num_6,16,num_6,0.800124960253,,,2017_Aug_24_1414,60.0116836023,FEMA4ImagesEEG,001,201267,
AFNE01.JPG,AFNE01.JPG,AFNE01.JPG,AFNE01.JPG,AFNE01.JPG,AFNE01.JPG,,,,,,,,,2,0,20,0,,,,,,,,,,,,,,,AFSA09.jpg,AFSA03.jpg,AFNE07.jpg,AFNE11.jpg,AFNE11.jpg,FN,3,num_4,16,num_4,0.816722919117,,,2017_Aug_24_1414,60.0116836023,FEMA4ImagesEEG,001,201267,
AFNE01.JPG,AFNE01.JPG,AFNE01.JPG,AFNE01.JPG,AFNE01.JPG,AFNE01.JPG,,,,,,,,,2,1,21,1,,,,,,,,,,,,,,,AFSA02.jpg,AFSA06.jpg,AFNE11.jpg,AFNE09.jpg,AFSA06.jpg,FS,4,num_6,32,num_2,1.23349080584,,,2017_Aug_24_1414,60.0116836023,FEMA4ImagesEEG,001,201267,
AFNE01.JPG,AFNE01.JPG,AFNE01.JPG,AFNE01.JPG,AFNE01.JPG,AFNE01.JPG,,,,,,,,,2,2,22,9,,,,,,,,,,,,,,,AFNE18.jpg,AFNE17.jpg,AFSA12.jpg,AFSA03.jpg,AFSA12.jpg,FS,4,num_2,32,num_8,0.6168263898,,,2017_Aug_24_1414,60.0116836023,FEMA4ImagesEEG,001,201267,
AFNE01.JPG,AFNE01.JPG,AFNE01.JPG,AFNE01.JPG,AFNE01.JPG,AFNE01.JPG,,,,,,,,,2,3,23,8,,,,,,,,,,,,,,,AFSA04.jpg,AFNE04.jpg,AFSA08.jpg,AFNE19.jpg,AFSA04.jpg,FS,4,num_8,32,num_4,1.60011970007,,,2017_Aug_24_1414,60.0116836023,FEMA4ImagesEEG,001,201267,
AFNE01.JPG,AFNE01.JPG,AFNE01.JPG,AFNE01.JPG,AFNE01.JPG,AFNE01.JPG,,,,,,,,,2,4,24,4,,,,,,,,,,,,,,,AFNE16.jpg,AFSA16.jpg,AFNE06.jpg,AFSA10.jpg,AFSA10.jpg,FS,4,num_4,16,num_4,0.566789071658,,,2017_Aug_24_1414,60.0116836023,FEMA4ImagesEEG,001,201267,
AFNE01.JPG,AFNE01.JPG,AFNE01.JPG,AFNE01.JPG,AFNE01.JPG,AFNE01.JPG,,,,,,,,,2,5,25,3,,,,,,,,,,,,,,,AFNE16.jpg,AFSA05.jpg,AFNE07.jpg,AFSA03.jpg,AFNE07.jpg,FN,3,num_2,32,num_8,1.11678966496,,,2017_Aug_24_1414,60.0116836023,FEMA4ImagesEEG,001,201267,
AFNE01.JPG,AFNE01.JPG,AFNE01.JPG,AFNE01.JPG,AFNE01.JPG,AFNE01.JPG,,,,,,,,,2,6,26,5,,,,,,,,,,,,,,,AFNE14.jpg,AFSA07.jpg,AFSA01.jpg,AFNE06.jpg,AFNE14.jpg,FN,3,num_8,32,num_6,2.84994417522,,,2017_Aug_24_1414,60.0116836023,FEMA4ImagesEEG,001,201267,
AFNE01.JPG,AFNE01.JPG,AFNE01.JPG,AFNE01.JPG,AFNE01.JPG,AFNE01.JPG,,,,,,,,,2,7,27,2,,,,,,,,,,,,,,,AFSA15.jpg,AFSA07.jpg,AFNE12.jpg,AFNE01.jpg,AFSA07.jpg,FS,4,num_6,32,num_2,0.900104015949,,,2017_Aug_24_1414,60.0116836023,FEMA4ImagesEEG,001,201267,
AFNE01.JPG,AFNE01.JPG,AFNE01.JPG,AFNE01.JPG,AFNE01.JPG,AFNE01.JPG,,,,,,,,,2,8,28,6,,,,,,,,,,,,,,,AFSA10.jpg,AFNE05.jpg,AFSA12.jpg,AFNE09.jpg,AFSA10.jpg,FS,4,num_8,32,num_6,1.21672060969,,,2017_Aug_24_1414,60.0116836023,FEMA4ImagesEEG,001,201267,
AFNE01.JPG,AFNE01.JPG,AFNE01.JPG,AFNE01.JPG,AFNE01.JPG,AFNE01.JPG,,,,,,,,,2,9,29,7,,,,,,,,,,,,,,,AFSA14.jpg,AFSA11.jpg,AFNE02.jpg,AFNE07.jpg,AFNE07.jpg,FN,3,num_4,32,num_8,0.616663453868,,,2017_Aug_24_1414,60.0116836023,FEMA4ImagesEEG,001,201267,
AFNE01.JPG,AFNE01.JPG,AFNE01.JPG,AFNE01.JPG,AFNE01.JPG,AFNE01.JPG,,,,,,,,,3,0,30,6,,,,,,,,,,,,,,,AFSA06.jpg,AFSA16.jpg,AFNE01.jpg,AFNE19.jpg,AFNE01.jpg,FN,3,num_2,16,num_2,0.316726607503,,,2017_Aug_24_1414,60.0116836023,FEMA4ImagesEEG,001,201267,
AFNE01.JPG,AFNE01.JPG,AFNE01.JPG,AFNE01.JPG,AFNE01.JPG,AFNE01.JPG,,,,,,,,,3,1,31,7,,,,,,,,,,,,,,,AFSA18.jpg,AFNE03.jpg,AFSA02.jpg,AFNE01.jpg,AFSA02.jpg,FS,4,num_2,32,num_4,0.300173872965,,,2017_Aug_24_1414,60.0116836023,FEMA4ImagesEEG,001,201267,
AFNE01.JPG,AFNE01.JPG,AFNE01.JPG,AFNE01.JPG,AFNE01.JPG,AFNE01.JPG,,,,,,,,,3,2,32,8,,,,,,,,,,,,,,,AFNE05.jpg,AFSA10.jpg,AFNE03.jpg,AFSA04.jpg,AFSA04.jpg,FS,4,num_4,32,num_6,0.0335140916286,,,2017_Aug_24_1414,60.0116836023,FEMA4ImagesEEG,001,201267,
AFNE01.JPG,AFNE01.JPG,AFNE01.JPG,AFNE01.JPG,AFNE01.JPG,AFNE01.JPG,,,,,,,,,3,3,33,9,,,,,,,,,,,,,,,AFSA07.jpg,AFNE08.jpg,AFSA14.jpg,AFNE02.jpg,AFNE08.jpg,FN,3,num_6,32,num_8,0.366789264139,,,2017_Aug_24_1414,60.0116836023,FEMA4ImagesEEG,001,201267,
AFNE01.JPG,AFNE01.JPG,AFNE01.JPG,AFNE01.JPG,AFNE01.JPG,AFNE01.JPG,,,,,,,,,3,4,34,1,,,,,,,,,,,,,,,AFSA09.jpg,AFNE03.jpg,AFNE14.jpg,AFSA07.jpg,AFNE03.jpg,FN,3,num_6,32,num_2,0.583476837608,,,2017_Aug_24_1414,60.0116836023,FEMA4ImagesEEG,001,201267,
AFNE01.JPG,AFNE01.JPG,AFNE01.JPG,AFNE01.JPG,AFNE01.JPG,AFNE01.JPG,,,,,,,,,3,5,35,0,,,,,,,,,,,,,,,AFSA11.jpg,AFNE03.jpg,AFSA04.jpg,AFNE14.jpg,AFNE03.jpg,FN,3,num_6,16,num_6,1.10004480742,,,2017_Aug_24_1414,60.0116836023,FEMA4ImagesEEG,001,201267,
AFNE01.JPG,AFNE01.JPG,AFNE01.JPG,AFNE01.JPG,AFNE01.JPG,AFNE01.JPG,,,,,,,,,3,6,36,2,,,,,,,,,,,,,,,AFSA15.jpg,AFSA19.jpg,AFNE06.jpg,AFNE17.jpg,AFSA15.jpg,FS,4,num_8,32,num_6,0.500110494788,,,2017_Aug_24_1414,60.0116836023,FEMA4ImagesEEG,001,201267,
AFNE01.JPG,AFNE01.JPG,AFNE01.JPG,AFNE01.JPG,AFNE01.JPG,AFNE01.JPG,,,,,,,,,3,7,37,4,,,,,,,,,,,,,,,AFNE18.jpg,AFNE07.jpg,AFSA01.jpg,AFSA15.jpg,AFNE18.jpg,FN,3,num_8,32,num_2,0.283512728405,,,2017_Aug_24_1414,60.0116836023,FEMA4ImagesEEG,001,201267,
AFNE01.JPG,AFNE01.JPG,AFNE01.JPG,AFNE01.JPG,AFNE01.JPG,AFNE01.JPG,,,,,,,,,3,8,38,5,,,,,,,,,,,,,,,AFNE20.jpg,AFSA03.jpg,AFNE08.jpg,AFSA01.jpg,AFNE20.jpg,FN,3,num_8,16,num_8,0.450143098016,,,2017_Aug_24_1414,60.0116836023,FEMA4ImagesEEG,001,201267,
AFNE01.JPG,AFNE01.JPG,AFNE01.JPG,AFNE01.JPG,AFNE01.JPG,AFNE01.JPG,,,,,,,,,3,9,39,3,,,,,,,,,,,,,,,AFSA12.jpg,AFNE05.jpg,AFNE03.jpg,AFSA15.jpg,AFSA15.jpg,FS,4,num_4,32,num_8,2.68335197365,,,2017_Aug_24_1414,60.0116836023,FEMA4ImagesEEG,001,201267,
AFNE01.JPG,AFNE01.JPG,AFNE01.JPG,AFNE01.JPG,AFNE01.JPG,AFNE01.JPG,,,,,,,,,4,0,40,3,,,,,,,,,,,,,,,AFSA13.jpg,AFNE18.jpg,AFNE14.jpg,AFSA07.jpg,AFNE18.jpg,FN,3,num_6,32,num_4,0.450112627703,,,2017_Aug_24_1414,60.0116836023,FEMA4ImagesEEG,001,201267,
AFNE01.JPG,AFNE01.JPG,AFNE01.JPG,AFNE01.JPG,AFNE01.JPG,AFNE01.JPG,,,,,,,,,4,1,41,6,,,,,,,,,,,,,,,AFSA04.jpg,AFNE09.jpg,AFSA09.jpg,AFNE18.jpg,AFNE18.jpg,FN,3,num_4,32,num_2,0.483484952361,,,2017_Aug_24_1414,60.0116836023,FEMA4ImagesEEG,001,201267,
AFNE01.JPG,AFNE01.JPG,AFNE01.JPG,AFNE01.JPG,AFNE01.JPG,AFNE01.JPG,,,,,,,,,4,2,42,9,,,,,,,,,,,,,,,AFNE03.jpg,AFSA11.jpg,AFNE01.jpg,AFSA08.jpg,AFNE03.jpg,FN,3,num_8,16,num_8,0.783432703931,,,2017_Aug_24_1414,60.0116836023,FEMA4ImagesEEG,001,201267,
AFNE01.JPG,AFNE01.JPG,AFNE01.JPG,AFNE01.JPG,AFNE01.JPG,AFNE01.JPG,,,,,,,,,4,3,43,7,,,,,,,,,,,,,,,AFNE11.jpg,AFSA13.jpg,AFSA03.jpg,AFNE03.jpg,AFNE03.jpg,FN,3,num_4,16,num_4,0.63344680029,,,2017_Aug_24_1414,60.0116836023,FEMA4ImagesEEG,001,201267,
AFNE01.JPG,AFNE01.JPG,AFNE01.JPG,AFNE01.JPG,AFNE01.JPG,AFNE01.JPG,,,,,,,,,4,4,44,5,,,,,,,,,,,,,,,AFNE10.jpg,AFSA01.jpg,AFNE04.jpg,AFSA03.jpg,AFNE04.jpg,FN,3,num_2,16,num_2,1.1497620272,,,2017_Aug_24_1414,60.0116836023,FEMA4ImagesEEG,001,201267,
AFNE01.JPG,AFNE01.JPG,AFNE01.JPG,AFNE01.JPG,AFNE01.JPG,AFNE01.JPG,,,,,,,,,4,5,45,0,,,,,,,,,,,,,,,AFNE05.jpg,AFSA05.jpg,AFSA06.jpg,AFNE04.jpg,AFSA05.jpg,FS,4,num_6,16,num_6,0.400149400579,,,2017_Aug_24_1414,60.0116836023,FEMA4ImagesEEG,001,201267,
AFNE01.JPG,AFNE01.JPG,AFNE01.JPG,AFNE01.JPG,AFNE01.JPG,AFNE01.JPG,,,,,,,,,4,6,46,8,,,,,,,,,,,,,,,AFNE01.jpg,AFSA01.jpg,AFSA10.jpg,AFNE02.jpg,AFSA10.jpg,FS,4,num_2,16,num_2,1.43343031441,,,2017_Aug_24_1414,60.0116836023,FEMA4ImagesEEG,001,201267,
AFNE01.JPG,AFNE01.JPG,AFNE01.JPG,AFNE01.JPG,AFNE01.JPG,AFNE01.JPG,,,,,,,,,4,7,47,4,,,,,,,,,,,,,,,AFNE05.jpg,AFSA19.jpg,AFSA12.jpg,AFNE04.jpg,AFSA12.jpg,FS,4,num_2,16,num_2,0.733478457318,,,2017_Aug_24_1414,60.0116836023,FEMA4ImagesEEG,001,201267,
AFNE01.JPG,AFNE01.JPG,AFNE01.JPG,AFNE01.JPG,AFNE01.JPG,AFNE01.JPG,,,,,,,,,4,8,48,1,,,,,,,,,,,,,,,AFNE14.jpg,AFSA07.jpg,AFSA14.jpg,AFNE19.jpg,AFNE14.jpg,FN,3,num_8,16,num_8,0.583460479858,,,2017_Aug_24_1414,60.0116836023,FEMA4ImagesEEG,001,201267,
AFNE01.JPG,AFNE01.JPG,AFNE01.JPG,AFNE01.JPG,AFNE01.JPG,AFNE01.JPG,,,,,,,,,4,9,49,2,,,,,,,,,,,,,,,AFSA10.jpg,AFNE08.jpg,AFNE10.jpg,AFSA12.jpg,AFNE08.jpg,FN,3,num_6,32,num_4,1.7666483951,,,2017_Aug_24_1414,60.0116836023,FEMA4ImagesEEG,001,201267,
AFNE01.JPG,AFNE01.JPG,AFNE01.JPG,AFNE01.JPG,AFNE01.JPG,AFNE01.JPG,,,,,,,,,5,0,50,6,,,,,,,,,,,,,,,AFNE06.jpg,AFNE12.jpg,AFSA02.jpg,AFSA12.jpg,AFNE12.jpg,FN,3,num_6,16,num_6,0.750126451603,,,2017_Aug_24_1414,60.0116836023,FEMA4ImagesEEG,001,201267,
AFNE01.JPG,AFNE01.JPG,AFNE01.JPG,AFNE01.JPG,AFNE01.JPG,AFNE01.JPG,,,,,,,,,5,1,51,3,,,,,,,,,,,,,,,AFSA20.jpg,AFSA01.jpg,AFNE04.jpg,AFNE08.jpg,AFSA20.jpg,FS,4,num_8,16,num_8,1.15011131263,,,2017_Aug_24_1414,60.0116836023,FEMA4ImagesEEG,001,201267,
AFNE01.JPG,AFNE01.JPG,AFNE01.JPG,AFNE01.JPG,AFNE01.JPG,AFNE01.JPG,,,,,,,,,5,2,52,5,,,,,,,,,,,,,,,AFSA03.jpg,AFNE13.jpg,AFSA09.jpg,AFNE08.jpg,AFSA09.jpg,FS,4,num_2,16,num_2,0.500219867099,,,2017_Aug_24_1414,60.0116836023,FEMA4ImagesEEG,001,201267,
AFNE01.JPG,AFNE01.JPG,AFNE01.JPG,AFNE01.JPG,AFNE01.JPG,AFNE01.JPG,,,,,,,,,5,3,53,9,,,,,,,,,,,,,,,AFSA01.jpg,AFNE06.jpg,AFNE20.jpg,AFSA02.jpg,AFSA02.jpg,FS,4,num_4,16,num_4,0.766750711133,,,2017_Aug_24_1414,60.0116836023,FEMA4ImagesEEG,001,201267,
AFNE01.JPG,AFNE01.JPG,AFNE01.JPG,AFNE01.JPG,AFNE01.JPG,AFNE01.JPG,,,,,,,,,5,4,54,4,,,,,,,,,,,,,,,AFSA13.jpg,AFSA10.jpg,AFNE05.jpg,AFNE13.jpg,AFNE13.jpg,FN,3,num_4,32,num_6,1.25013046083,,,2017_Aug_24_1414,60.0116836023,FEMA4ImagesEEG,001,201267,
AFNE01.JPG,AFNE01.JPG,AFNE01.JPG,AFNE01.JPG,AFNE01.JPG,AFNE01.JPG,,,,,,,,,5,5,55,8,,,,,,,,,,,,,,,AFNE08.jpg,AFSA13.jpg,AFNE07.jpg,AFSA04.jpg,AFNE08.jpg,FN,3,num_8,16,num_8,0.716783635085,,,2017_Aug_24_1414,60.0116836023,FEMA4ImagesEEG,001,201267,
AFNE01.JPG,AFNE01.JPG,AFNE01.JPG,AFNE01.JPG,AFNE01.JPG,AFNE01.JPG,,,,,,,,,5,6,56,0,,,,,,,,,,,,,,,AFSA17.jpg,AFSA04.jpg,AFNE13.jpg,AFNE20.jpg,AFSA17.jpg,FS,4,num_8,32,num_4,0.900118128397,,,2017_Aug_24_1414,60.0116836023,FEMA4ImagesEEG,001,201267,
AFNE01.JPG,AFNE01.JPG,AFNE01.JPG,AFNE01.JPG,AFNE01.JPG,AFNE01.JPG,,,,,,,,,5,7,57,1,,,,,,,,,,,,,,,AFNE19.jpg,AFNE20.jpg,AFSA18.jpg,AFSA04.jpg,AFNE20.jpg,FN,3,num_6,16,num_6,1.11675021402,,,2017_Aug_24_1414,60.0116836023,FEMA4ImagesEEG,001,201267,
AFNE01.JPG,AFNE01.JPG,AFNE01.JPG,AFNE01.JPG,AFNE01.JPG,AFNE01.JPG,,,,,,,,,5,8,58,2,,,,,,,,,,,,,,,AFNE15.jpg,AFNE18.jpg,AFSA07.jpg,AFSA12.jpg,AFSA12.jpg,FS,4,num_4,32,num_2,0.88340149587,,,2017_Aug_24_1414,60.0116836023,FEMA4ImagesEEG,001,201267,
AFNE01.JPG,AFNE01.JPG,AFNE01.JPG,AFNE01.JPG,AFNE01.JPG,AFNE01.JPG,,,,,,,,,5,9,59,7,,,,,,,,,,,,,,,AFNE19.jpg,AFSA20.jpg,AFSA05.jpg,AFNE16.jpg,AFNE16.jpg,FN,3,num_4,16,num_4,2.58330684563,,,2017_Aug_24_1414,60.0116836023,FEMA4ImagesEEG,001,201267,
,,,,,,,,,,,,,,,,,,,,,,,,,,,,,,,,,,,,,,,,,,,space,2.06666831311,2017_Aug_24_1414,60.0116836023,FEMA4ImagesEEG,001,201267,
AFNE01.JPG,AFNE01.JPG,AFNE01.JPG,AFNE01.JPG,AFNE01.JPG,AFNE01.JPG,,,,,,,,,,,,,0,0,0,1,,,,,,,,,,,AMNE06.jpg,AMNE01.jpg,AMSA14.jpg,AMSA17.jpg,AMSA14.jpg,MS,2,num_2,32,num_8,0.283491880284,,,2017_Aug_24_1414,60.0116836023,FEMA4ImagesEEG,001,201267,
AFNE01.JPG,AFNE01.JPG,AFNE01.JPG,AFNE01.JPG,AFNE01.JPG,AFNE01.JPG,,,,,,,,,,,,,0,1,1,8,,,,,,,,,,,AMSA08.jpg,AMNE02.jpg,AMSA12.jpg,AMNE03.jpg,AMNE02.jpg,MN,1,num_6,16,num_6,0.866766010527,,,2017_Aug_24_1414,60.0116836023,FEMA4ImagesEEG,001,201267,
AFNE01.JPG,AFNE01.JPG,AFNE01.JPG,AFNE01.JPG,AFNE01.JPG,AFNE01.JPG,,,,,,,,,,,,,0,2,2,4,,,,,,,,,,,AMNE16.jpg,AMSA18.jpg,AMNE04.jpg,AMSA16.jpg,AMNE16.jpg,MN,1,num_8,16,num_8,0.633459629957,,,2017_Aug_24_1414,60.0116836023,FEMA4ImagesEEG,001,201267,
AFNE01.JPG,AFNE01.JPG,AFNE01.JPG,AFNE01.JPG,AFNE01.JPG,AFNE01.JPG,,,,,,,,,,,,,0,3,3,7,,,,,,,,,,,AMSA13.jpg,AMSA05.jpg,AMNE04.jpg,AMNE05.jpg,AMSA13.jpg,MS,2,num_8,32,num_2,0.750102396123,,,2017_Aug_24_1414,60.0116836023,FEMA4ImagesEEG,001,201267,
AFNE01.JPG,AFNE01.JPG,AFNE01.JPG,AFNE01.JPG,AFNE01.JPG,AFNE01.JPG,,,,,,,,,,,,,0,4,4,6,,,,,,,,,,,AMNE05.jpg,AMSA08.jpg,AMNE04.jpg,AMSA18.jpg,AMSA08.jpg,MS,2,num_6,16,num_6,0.45016490831,,,2017_Aug_24_1414,60.0116836023,FEMA4ImagesEEG,001,201267,
AFNE01.JPG,AFNE01.JPG,AFNE01.JPG,AFNE01.JPG,AFNE01.JPG,AFNE01.JPG,,,,,,,,,,,,,0,5,5,2,,,,,,,,,,,AMNE03.jpg,AMNE10.jpg,AMSA14.jpg,AMSA17.jpg,AMNE03.jpg,MN,1,num_8,16,num_8,0.600172301405,,,2017_Aug_24_1414,60.0116836023,FEMA4ImagesEEG,001,201267,
AFNE01.JPG,AFNE01.JPG,AFNE01.JPG,AFNE01.JPG,AFNE01.JPG,AFNE01.JPG,,,,,,,,,,,,,0,6,6,3,,,,,,,,,,,AMNE18.jpg,AMSA13.jpg,AMSA08.jpg,AMNE03.jpg,AMSA13.jpg,MS,2,num_6,16,num_6,0.450130268349,,,2017_Aug_24_1414,60.0116836023,FEMA4ImagesEEG,001,201267,
AFNE01.JPG,AFNE01.JPG,AFNE01.JPG,AFNE01.JPG,AFNE01.JPG,AFNE01.JPG,,,,,,,,,,,,,0,7,7,0,,,,,,,,,,,AMSA08.jpg,AMNE02.jpg,AMSA04.jpg,AMNE13.jpg,AMSA08.jpg,MS,2,num_8,16,num_8,1.15009527572,,,2017_Aug_24_1414,60.0116836023,FEMA4ImagesEEG,001,201267,
AFNE01.JPG,AFNE01.JPG,AFNE01.JPG,AFNE01.JPG,AFNE01.JPG,AFNE01.JPG,,,,,,,,,,,,,0,8,8,5,,,,,,,,,,,AMNE18.jpg,AMSA11.jpg,AMSA05.jpg,AMNE03.jpg,AMNE03.jpg,MN,1,num_4,32,num_8,0.750115867238,,,2017_Aug_24_1414,60.0116836023,FEMA4ImagesEEG,001,201267,
AFNE01.JPG,AFNE01.JPG,AFNE01.JPG,AFNE01.JPG,AFNE01.JPG,AFNE01.JPG,,,,,,,,,,,,,0,9,9,9,,,,,,,,,,,AMSA16.jpg,AMNE16.jpg,AMNE02.jpg,AMSA18.jpg,AMSA18.jpg,MS,2,num_4,16,num_4,1.1834265457,,,2017_Aug_24_1414,60.0116836023,FEMA4ImagesEEG,001,201267,
AFNE01.JPG,AFNE01.JPG,AFNE01.JPG,AFNE01.JPG,AFNE01.JPG,AFNE01.JPG,,,,,,,,,,,,,1,0,10,0,,,,,,,,,,,AMSA12.jpg,AMSA10.jpg,AMNE07.jpg,AMNE11.jpg,AMSA12.jpg,MS,2,num_8,16,num_8,1.23343275196,,,2017_Aug_24_1414,60.0116836023,FEMA4ImagesEEG,001,201267,
AFNE01.JPG,AFNE01.JPG,AFNE01.JPG,AFNE01.JPG,AFNE01.JPG,AFNE01.JPG,,,,,,,,,,,,,1,1,11,7,,,,,,,,,,,AMNE04.jpg,AMSA12.jpg,AMNE08.jpg,AMSA02.jpg,AMNE04.jpg,MN,1,num_8,16,num_8,0.916720257024,,,2017_Aug_24_1414,60.0116836023,FEMA4ImagesEEG,001,201267,
AFNE01.JPG,AFNE01.JPG,AFNE01.JPG,AFNE01.JPG,AFNE01.JPG,AFNE01.JPG,,,,,,,,,,,,,1,2,12,4,,,,,,,,,,,AMSA16.jpg,AMNE19.jpg,AMSA07.jpg,AMNE08.jpg,AMNE08.jpg,MN,1,num_4,16,num_4,1.00010071229,,,2017_Aug_24_1414,60.0116836023,FEMA4ImagesEEG,001,201267,
AFNE01.JPG,AFNE01.JPG,AFNE01.JPG,AFNE01.JPG,AFNE01.JPG,AFNE01.JPG,,,,,,,,,,,,,1,3,13,1,,,,,,,,,,,AMSA11.jpg,AMSA01.jpg,AMNE03.jpg,AMNE11.jpg,AMSA01.jpg,MS,2,num_6,16,num_6,0.566769185825,,,2017_Aug_24_1414,60.0116836023,FEMA4ImagesEEG,001,201267,
AFNE01.JPG,AFNE01.JPG,AFNE01.JPG,AFNE01.JPG,AFNE01.JPG,AFNE01.JPG,,,,,,,,,,,,,1,4,14,6,,,,,,,,,,,AMSA19.jpg,AMNE07.jpg,AMSA03.jpg,AMNE11.jpg,AMNE11.jpg,MN,1,num_4,16,num_4,1.05013193632,,,2017_Aug_24_1414,60.0116836023,FEMA4ImagesEEG,001,201267,
AFNE01.JPG,AFNE01.JPG,AFNE01.JPG,AFNE01.JPG,AFNE01.JPG,AFNE01.JPG,,,,,,,,,,,,,1,5,15,3,,,,,,,,,,,AMNE01.jpg,AMSA17.jpg,AMSA12.jpg,AMNE11.jpg,AMNE11.jpg,MN,1,num_4,16,num_4,0.900268555386,,,2017_Aug_24_1414,60.0116836023,FEMA4ImagesEEG,001,201267,
AFNE01.JPG,AFNE01.JPG,AFNE01.JPG,AFNE01.JPG,AFNE01.JPG,AFNE01.JPG,,,,,,,,,,,,,1,6,16,8,,,,,,,,,,,AMSA17.jpg,AMNE04.jpg,AMNE09.jpg,AMSA12.jpg,AMNE09.jpg,MN,1,num_2,32,num_8,1.11678677832,,,2017_Aug_24_1414,60.0116836023,FEMA4ImagesEEG,001,201267,
AFNE01.JPG,AFNE01.JPG,AFNE01.JPG,AFNE01.JPG,AFNE01.JPG,AFNE01.JPG,,,,,,,,,,,,,1,7,17,5,,,,,,,,,,,AMNE09.jpg,AMSA05.jpg,AMSA14.jpg,AMNE13.jpg,AMSA14.jpg,MS,2,num_2,16,num_2,0.550129530719,,,2017_Aug_24_1414,60.0116836023,FEMA4ImagesEEG,001,201267,
AFNE01.JPG,AFNE01.JPG,AFNE01.JPG,AFNE01.JPG,AFNE01.JPG,AFNE01.JPG,,,,,,,,,,,,,1,8,18,9,,,,,,,,,,,AMSA08.jpg,AMNE15.jpg,AMNE09.jpg,AMSA16.jpg,AMNE15.jpg,MN,1,num_6,16,num_6,1.01683691004,,,2017_Aug_24_1414,60.0116836023,FEMA4ImagesEEG,001,201267,
AFNE01.JPG,AFNE01.JPG,AFNE01.JPG,AFNE01.JPG,AFNE01.JPG,AFNE01.JPG,,,,,,,,,,,,,1,9,19,2,,,,,,,,,,,AMSA17.jpg,AMNE07.jpg,AMNE03.jpg,AMSA01.jpg,AMSA01.jpg,MS,2,num_4,16,num_4,0.700142376358,,,2017_Aug_24_1414,60.0116836023,FEMA4ImagesEEG,001,201267,
AFNE01.JPG,AFNE01.JPG,AFNE01.JPG,AFNE01.JPG,AFNE01.JPG,AFNE01.JPG,,,,,,,,,,,,,2,0,20,5,,,,,,,,,,,AMNE02.jpg,AMNE07.jpg,AMSA06.jpg,AMSA05.jpg,AMSA05.jpg,MS,2,num_4,32,num_6,0.800093527767,,,2017_Aug_24_1414,60.0116836023,FEMA4ImagesEEG,001,201267,
AFNE01.JPG,AFNE01.JPG,AFNE01.JPG,AFNE01.JPG,AFNE01.JPG,AFNE01.JPG,,,,,,,,,,,,,2,1,21,3,,,,,,,,,,,AMNE17.jpg,AMNE10.jpg,AMSA13.jpg,AMSA06.jpg,AMNE17.jpg,MN,1,num_8,16,num_8,0.633461233578,,,2017_Aug_24_1414,60.0116836023,FEMA4ImagesEEG,001,201267,
AFNE01.JPG,AFNE01.JPG,AFNE01.JPG,AFNE01.JPG,AFNE01.JPG,AFNE01.JPG,,,,,,,,,,,,,2,2,22,4,,,,,,,,,,,AMSA13.jpg,AMNE07.jpg,AMSA04.jpg,AMNE11.jpg,AMSA04.jpg,MS,2,num_2,16,num_2,0.950102845207,,,2017_Aug_24_1414,60.0116836023,FEMA4ImagesEEG,001,201267,
AFNE01.JPG,AFNE01.JPG,AFNE01.JPG,AFNE01.JPG,AFNE01.JPG,AFNE01.JPG,,,,,,,,,,,,,2,3,23,6,,,,,,,,,,,AMNE08.jpg,AMSA18.jpg,AMSA09.jpg,AMNE19.jpg,AMSA09.jpg,MS,2,num_2,16,num_2,1.03348201758,,,2017_Aug_24_1414,60.0116836023,FEMA4ImagesEEG,001,201267,
AFNE01.JPG,AFNE01.JPG,AFNE01.JPG,AFNE01.JPG,AFNE01.JPG,AFNE01.JPG,,,,,,,,,,,,,2,4,24,1,,,,,,,,,,,AMNE11.jpg,AMSA07.jpg,AMNE17.jpg,AMSA18.jpg,AMSA07.jpg,MS,2,num_6,16,num_6,0.650190054323,,,2017_Aug_24_1414,60.0116836023,FEMA4ImagesEEG,001,201267,
AFNE01.JPG,AFNE01.JPG,AFNE01.JPG,AFNE01.JPG,AFNE01.JPG,AFNE01.JPG,,,,,,,,,,,,,2,5,25,9,,,,,,,,,,,AMSA20.jpg,AMSA11.jpg,AMNE17.jpg,AMNE02.jpg,AMSA11.jpg,MS,2,num_6,32,num_8,1.25012372527,,,2017_Aug_24_1414,60.0116836023,FEMA4ImagesEEG,001,201267,
AFNE01.JPG,AFNE01.JPG,AFNE01.JPG,AFNE01.JPG,AFNE01.JPG,AFNE01.JPG,,,,,,,,,,,,,2,6,26,7,,,,,,,,,,,AMSA20.jpg,AMSA15.jpg,AMNE18.jpg,AMNE03.jpg,AMSA15.jpg,MS,2,num_6,16,num_6,0.733447345672,,,2017_Aug_24_1414,60.0116836023,FEMA4ImagesEEG,001,201267,
AFNE01.JPG,AFNE01.JPG,AFNE01.JPG,AFNE01.JPG,AFNE01.JPG,AFNE01.JPG,,,,,,,,,,,,,2,7,27,0,,,,,,,,,,,AMNE08.jpg,AMSA03.jpg,AMNE16.jpg,AMSA15.jpg,AMSA03.jpg,MS,2,num_6,32,num_4,0.766813896829,,,2017_Aug_24_1414,60.0116836023,FEMA4ImagesEEG,001,201267,
AFNE01.JPG,AFNE01.JPG,AFNE01.JPG,AFNE01.JPG,AFNE01.JPG,AFNE01.JPG,,,,,,,,,,,,,2,8,28,8,,,,,,,,,,,AMSA14.jpg,AMNE14.jpg,AMNE19.jpg,AMSA05.jpg,AMNE19.jpg,MN,1,num_2,32,num_4,1.20013740484,,,2017_Aug_24_1414,60.0116836023,FEMA4ImagesEEG,001,201267,
AFNE01.JPG,AFNE01.JPG,AFNE01.JPG,AFNE01.JPG,AFNE01.JPG,AFNE01.JPG,,,,,,,,,,,,,2,9,29,2,,,,,,,,,,,AMSA10.jpg,AMNE13.jpg,AMSA01.jpg,AMNE08.jpg,AMSA01.jpg,MS,2,num_2,16,num_2,0.950234669261,,,2017_Aug_24_1414,60.0116836023,FEMA4ImagesEEG,001,201267,
AFNE01.JPG,AFNE01.JPG,AFNE01.JPG,AFNE01.JPG,AFNE01.JPG,AFNE01.JPG,,,,,,,,,,,,,3,0,30,5,,,,,,,,,,,AMNE08.jpg,AMSA16.jpg,AMNE12.jpg,AMSA07.jpg,AMSA07.jpg,MS,2,num_4,32,num_6,2.23332113458,,,2017_Aug_24_1414,60.0116836023,FEMA4ImagesEEG,001,201267,
AFNE01.JPG,AFNE01.JPG,AFNE01.JPG,AFNE01.JPG,AFNE01.JPG,AFNE01.JPG,,,,,,,,,,,,,3,1,31,6,,,,,,,,,,,AMSA04.jpg,AMSA12.jpg,AMNE20.jpg,AMNE03.jpg,AMSA12.jpg,MS,2,num_6,32,num_4,0.500111457077,,,2017_Aug_24_1414,60.0116836023,FEMA4ImagesEEG,001,201267,
AFNE01.JPG,AFNE01.JPG,AFNE01.JPG,AFNE01.JPG,AFNE01.JPG,AFNE01.JPG,,,,,,,,,,,,,3,2,32,2,,,,,,,,,,,AMNE04.jpg,AMSA09.jpg,AMSA19.jpg,AMNE14.jpg,AMNE14.jpg,MN,1,num_4,16,num_4,0.500150908018,,,2017_Aug_24_1414,60.0116836023,FEMA4ImagesEEG,001,201267,
AFNE01.JPG,AFNE01.JPG,AFNE01.JPG,AFNE01.JPG,AFNE01.JPG,AFNE01.JPG,,,,,,,,,,,,,3,3,33,0,,,,,,,,,,,AMNE18.jpg,AMNE08.jpg,AMSA19.jpg,AMSA01.jpg,AMNE18.jpg,MN,1,num_8,32,num_6,0.966720369179,,,2017_Aug_24_1414,60.0116836023,FEMA4ImagesEEG,001,201267,
AFNE01.JPG,AFNE01.JPG,AFNE01.JPG,AFNE01.JPG,AFNE01.JPG,AFNE01.JPG,,,,,,,,,,,,,3,4,34,7,,,,,,,,,,,AMNE11.jpg,AMNE06.jpg,AMSA02.jpg,AMSA10.jpg,AMNE11.jpg,MN,1,num_8,32,num_4,2.83327020099,,,2017_Aug_24_1414,60.0116836023,FEMA4ImagesEEG,001,201267,
AFNE01.JPG,AFNE01.JPG,AFNE01.JPG,AFNE01.JPG,AFNE01.JPG,AFNE01.JPG,,,,,,,,,,,,,3,5,35,9,,,,,,,,,,,AMSA17.jpg,AMSA14.jpg,AMNE20.jpg,AMNE08.jpg,AMNE20.jpg,MN,1,num_2,16,num_2,0.450098515139,,,2017_Aug_24_1414,60.0116836023,FEMA4ImagesEEG,001,201267,
AFNE01.JPG,AFNE01.JPG,AFNE01.JPG,AFNE01.JPG,AFNE01.JPG,AFNE01.JPG,,,,,,,,,,,,,3,6,36,8,,,,,,,,,,,AMNE01.jpg,AMSA18.jpg,AMNE18.jpg,AMSA15.jpg,AMSA15.jpg,MS,2,num_4,16,num_4,0.550121832988,,,2017_Aug_24_1414,60.0116836023,FEMA4ImagesEEG,001,201267,
AFNE01.JPG,AFNE01.JPG,AFNE01.JPG,AFNE01.JPG,AFNE01.JPG,AFNE01.JPG,,,,,,,,,,,,,3,7,37,3,,,,,,,,,,,AMSA04.jpg,AMNE10.jpg,AMNE07.jpg,AMSA19.jpg,AMSA19.jpg,MS,2,num_4,16,num_4,0.80021123914,,,2017_Aug_24_1414,60.0116836023,FEMA4ImagesEEG,001,201267,
AFNE01.JPG,AFNE01.JPG,AFNE01.JPG,AFNE01.JPG,AFNE01.JPG,AFNE01.JPG,,,,,,,,,,,,,3,8,38,1,,,,,,,,,,,AMNE18.jpg,AMSA10.jpg,AMNE20.jpg,AMSA04.jpg,AMSA04.jpg,MS,2,num_4,16,num_4,0.416756660794,,,2017_Aug_24_1414,60.0116836023,FEMA4ImagesEEG,001,201267,
AFNE01.JPG,AFNE01.JPG,AFNE01.JPG,AFNE01.JPG,AFNE01.JPG,AFNE01.JPG,,,,,,,,,,,,,3,9,39,4,,,,,,,,,,,AMSA09.jpg,AMNE01.jpg,AMSA14.jpg,AMNE12.jpg,AMSA14.jpg,MS,2,num_2,16,num_2,0.550111890072,,,2017_Aug_24_1414,60.0116836023,FEMA4ImagesEEG,001,201267,
AFNE01.JPG,AFNE01.JPG,AFNE01.JPG,AFNE01.JPG,AFNE01.JPG,AFNE01.JPG,,,,,,,,,,,,,4,0,40,2,,,,,,,,,,,AMNE06.jpg,AMNE01.jpg,AMSA14.jpg,AMSA13.jpg,AMNE01.jpg,MN,1,num_6,16,num_6,0.716774012893,,,2017_Aug_24_1414,60.0116836023,FEMA4ImagesEEG,001,201267,
AFNE01.JPG,AFNE01.JPG,AFNE01.JPG,AFNE01.JPG,AFNE01.JPG,AFNE01.JPG,,,,,,,,,,,,,4,1,41,0,,,,,,,,,,,AMNE09.jpg,AMNE18.jpg,AMSA14.jpg,AMSA12.jpg,AMSA12.jpg,MS,2,num_4,16,num_4,1.01675832877,,,2017_Aug_24_1414,60.0116836023,FEMA4ImagesEEG,001,201267,
AFNE01.JPG,AFNE01.JPG,AFNE01.JPG,AFNE01.JPG,AFNE01.JPG,AFNE01.JPG,,,,,,,,,,,,,4,2,42,6,,,,,,,,,,,AMNE05.jpg,AMNE01.jpg,AMSA16.jpg,AMSA20.jpg,AMNE05.jpg,MN,1,num_8,32,num_2,0.450139249093,,,2017_Aug_24_1414,60.0116836023,FEMA4ImagesEEG,001,201267,
AFNE01.JPG,AFNE01.JPG,AFNE01.JPG,AFNE01.JPG,AFNE01.JPG,AFNE01.JPG,,,,,,,,,,,,,4,3,43,7,,,,,,,,,,,AMSA08.jpg,AMNE05.jpg,AMSA11.jpg,AMNE16.jpg,AMSA08.jpg,MS,2,num_8,16,num_8,0.417081249412,,,2017_Aug_24_1414,60.0116836023,FEMA4ImagesEEG,001,201267,
AFNE01.JPG,AFNE01.JPG,AFNE01.JPG,AFNE01.JPG,AFNE01.JPG,AFNE01.JPG,,,,,,,,,,,,,4,4,44,1,,,,,,,,,,,AMNE10.jpg,AMSA03.jpg,AMSA12.jpg,AMNE01.jpg,AMNE01.jpg,MN,1,num_4,16,num_4,0.866781085264,,,2017_Aug_24_1414,60.0116836023,FEMA4ImagesEEG,001,201267,
AFNE01.JPG,AFNE01.JPG,AFNE01.JPG,AFNE01.JPG,AFNE01.JPG,AFNE01.JPG,,,,,,,,,,,,,4,5,45,8,,,,,,,,,,,AMNE14.jpg,AMSA18.jpg,AMNE02.jpg,AMSA07.jpg,AMSA18.jpg,MS,2,num_6,16,num_6,0.671809193213,,,2017_Aug_24_1414,60.0116836023,FEMA4ImagesEEG,001,201267,
AFNE01.JPG,AFNE01.JPG,AFNE01.JPG,AFNE01.JPG,AFNE01.JPG,AFNE01.JPG,,,,,,,,,,,,,4,6,46,9,,,,,,,,,,,AMNE12.jpg,AMNE04.jpg,AMSA16.jpg,AMSA13.jpg,AMNE12.jpg,MN,1,num_8,32,num_2,0.90010561957,,,2017_Aug_24_1414,60.0116836023,FEMA4ImagesEEG,001,201267,
AFNE01.JPG,AFNE01.JPG,AFNE01.JPG,AFNE01.JPG,AFNE01.JPG,AFNE01.JPG,,,,,,,,,,,,,4,7,47,5,,,,,,,,,,,AMSA14.jpg,AMNE14.jpg,AMNE02.jpg,AMSA17.jpg,AMSA17.jpg,MS,2,num_4,32,num_6,1.08342632116,,,2017_Aug_24_1414,60.0116836023,FEMA4ImagesEEG,001,201267,
AFNE01.JPG,AFNE01.JPG,AFNE01.JPG,AFNE01.JPG,AFNE01.JPG,AFNE01.JPG,,,,,,,,,,,,,4,8,48,3,,,,,,,,,,,AMNE13.jpg,AMNE10.jpg,AMSA07.jpg,AMSA20.jpg,AMSA07.jpg,MS,2,num_2,32,num_4,0.833468097495,,,2017_Aug_24_1414,60.0116836023,FEMA4ImagesEEG,001,201267,
AFNE01.JPG,AFNE01.JPG,AFNE01.JPG,AFNE01.JPG,AFNE01.JPG,AFNE01.JPG,,,,,,,,,,,,,4,9,49,4,,,,,,,,,,,AMSA01.jpg,AMSA14.jpg,AMNE16.jpg,AMNE01.jpg,AMNE01.jpg,MN,1,num_4,32,num_8,0.833482530783,,,2017_Aug_24_1414,60.0116836023,FEMA4ImagesEEG,001,201267,
AFNE01.JPG,AFNE01.JPG,AFNE01.JPG,AFNE01.JPG,AFNE01.JPG,AFNE01.JPG,,,,,,,,,,,,,5,0,50,7,,,,,,,,,,,AMNE15.jpg,AMSA14.jpg,AMSA15.jpg,AMNE14.jpg,AMNE15.jpg,MN,1,num_8,16,num_8,1.0167284999,,,2017_Aug_24_1414,60.0116836023,FEMA4ImagesEEG,001,201267,
AFNE01.JPG,AFNE01.JPG,AFNE01.JPG,AFNE01.JPG,AFNE01.JPG,AFNE01.JPG,,,,,,,,,,,,,5,1,51,0,,,,,,,,,,,AMSA07.jpg,AMNE08.jpg,AMNE07.jpg,AMSA18.jpg,AMSA07.jpg,MS,2,num_8,16,num_8,0.400158381322,,,2017_Aug_24_1414,60.0116836023,FEMA4ImagesEEG,001,201267,
AFNE01.JPG,AFNE01.JPG,AFNE01.JPG,AFNE01.JPG,AFNE01.JPG,AFNE01.JPG,,,,,,,,,,,,,5,2,52,4,,,,,,,,,,,AMNE04.jpg,AMSA08.jpg,AMSA19.jpg,AMNE19.jpg,AMNE04.jpg,MN,1,num_8,16,num_8,0.966749235755,,,2017_Aug_24_1414,60.0116836023,FEMA4ImagesEEG,001,201267,
AFNE01.JPG,AFNE01.JPG,AFNE01.JPG,AFNE01.JPG,AFNE01.JPG,AFNE01.JPG,,,,,,,,,,,,,5,3,53,9,,,,,,,,,,,AMSA02.jpg,AMNE04.jpg,AMSA10.jpg,AMNE15.jpg,AMSA02.jpg,MS,2,num_8,32,num_4,1.71674161823,,,2017_Aug_24_1414,60.0116836023,FEMA4ImagesEEG,001,201267,
AFNE01.JPG,AFNE01.JPG,AFNE01.JPG,AFNE01.JPG,AFNE01.JPG,AFNE01.JPG,,,,,,,,,,,,,5,4,54,6,,,,,,,,,,,AMNE17.jpg,AMSA14.jpg,AMSA08.jpg,AMNE15.jpg,AMNE17.jpg,MN,1,num_8,16,num_8,1.20007806795,,,2017_Aug_24_1414,60.0116836023,FEMA4ImagesEEG,001,201267,
AFNE01.JPG,AFNE01.JPG,AFNE01.JPG,AFNE01.JPG,AFNE01.JPG,AFNE01.JPG,,,,,,,,,,,,,5,5,55,2,,,,,,,,,,,AMSA10.jpg,AMNE17.jpg,AMSA03.jpg,AMNE09.jpg,AMSA03.jpg,MS,2,num_2,16,num_2,0.633525060839,,,2017_Aug_24_1414,60.0116836023,FEMA4ImagesEEG,001,201267,
AFNE01.JPG,AFNE01.JPG,AFNE01.JPG,AFNE01.JPG,AFNE01.JPG,AFNE01.JPG,,,,,,,,,,,,,5,6,56,3,,,,,,,,,,,AMNE14.jpg,AMSA12.jpg,AMNE18.jpg,AMSA19.jpg,AMSA12.jpg,MS,2,num_6,16,num_6,0.383481841185,,,2017_Aug_24_1414,60.0116836023,FEMA4ImagesEEG,001,201267,
AFNE01.JPG,AFNE01.JPG,AFNE01.JPG,AFNE01.JPG,AFNE01.JPG,AFNE01.JPG,,,,,,,,,,,,,5,7,57,8,,,,,,,,,,,AMSA14.jpg,AMSA01.jpg,AMNE05.jpg,AMNE07.jpg,AMSA14.jpg,MS,2,num_8,16,num_8,0.983433152898,,,2017_Aug_24_1414,60.0116836023,FEMA4ImagesEEG,001,201267,
AFNE01.JPG,AFNE01.JPG,AFNE01.JPG,AFNE01.JPG,AFNE01.JPG,AFNE01.JPG,,,,,,,,,,,,,5,8,58,5,,,,,,,,,,,AMNE09.jpg,AMNE15.jpg,AMSA02.jpg,AMSA07.jpg,AMNE15.jpg,MN,1,num_6,32,num_8,0.950120165129,,,2017_Aug_24_1414,60.0116836023,FEMA4ImagesEEG,001,201267,
AFNE01.JPG,AFNE01.JPG,AFNE01.JPG,AFNE01.JPG,AFNE01.JPG,AFNE01.JPG,,,,,,,,,,,,,5,9,59,1,,,,,,,,,,,AMNE20.jpg,AMSA15.jpg,AMSA11.jpg,AMNE03.jpg,AMNE20.jpg,MN,1,num_8,16,num_8,0.966693747789,,,2017_Aug_24_1414,60.0116836023,FEMA4ImagesEEG,001,201267,
,,,,,,,,,,,,,,,,,,,,,,,,,,,,,,,,,,,,,,,,,,,space,2.69996340352,2017_Aug_24_1414,60.0116836023,FEMA4ImagesEEG,001,201267,
AFNE01.JPG,AFNE01.JPG,AFNE01.JPG,AFNE01.JPG,AFNE01.JPG,AFNE01.JPG,,,,,,,,,,,,,,,,,0,0,0,9,,,,,,,AFSA18.jpg,AFNE06.jpg,AFNE10.jpg,AFSA08.jpg,AFSA18.jpg,FS,4,num_8,16,num_8,2.24981100415,,,2017_Aug_24_1414,60.0116836023,FEMA4ImagesEEG,001,201267,
AFNE01.JPG,AFNE01.JPG,AFNE01.JPG,AFNE01.JPG,AFNE01.JPG,AFNE01.JPG,,,,,,,,,,,,,,,,,0,1,1,6,,,,,,,AFSA09.jpg,AFSA15.jpg,AFNE03.jpg,AFNE18.jpg,AFSA15.jpg,FS,4,num_6,16,num_6,0.866730729118,,,2017_Aug_24_1414,60.0116836023,FEMA4ImagesEEG,001,201267,
AFNE01.JPG,AFNE01.JPG,AFNE01.JPG,AFNE01.JPG,AFNE01.JPG,AFNE01.JPG,,,,,,,,,,,,,,,,,0,2,2,3,,,,,,,AFNE06.jpg,AFSA19.jpg,AFSA11.jpg,AFNE20.jpg,AFNE20.jpg,FN,3,num_4,16,num_4,2.23333428486,,,2017_Aug_24_1414,60.0116836023,FEMA4ImagesEEG,001,201267,
AFNE01.JPG,AFNE01.JPG,AFNE01.JPG,AFNE01.JPG,AFNE01.JPG,AFNE01.JPG,,,,,,,,,,,,,,,,,0,3,3,8,,,,,,,AFSA18.jpg,AFNE17.jpg,AFSA01.jpg,AFNE13.jpg,AFSA18.jpg,FS,4,num_8,32,num_2,1.43342806923,,,2017_Aug_24_1414,60.0116836023,FEMA4ImagesEEG,001,201267,
AFNE01.JPG,AFNE01.JPG,AFNE01.JPG,AFNE01.JPG,AFNE01.JPG,AFNE01.JPG,,,,,,,,,,,,,,,,,0,4,4,5,,,,,,,AFSA11.jpg,AFNE20.jpg,AFSA05.jpg,AFNE13.jpg,AFSA05.jpg,FS,4,num_2,32,num_4,0.866790386615,,,2017_Aug_24_1414,60.0116836023,FEMA4ImagesEEG,001,201267,
AFNE01.JPG,AFNE01.JPG,AFNE01.JPG,AFNE01.JPG,AFNE01.JPG,AFNE01.JPG,,,,,,,,,,,,,,,,,0,5,5,0,,,,,,,AFNE18.jpg,AFSA18.jpg,AFNE06.jpg,AFSA16.jpg,AFSA18.jpg,FS,4,num_6,16,num_6,0.433491896372,,,2017_Aug_24_1414,60.0116836023,FEMA4ImagesEEG,001,201267,
AFNE01.JPG,AFNE01.JPG,AFNE01.JPG,AFNE01.JPG,AFNE01.JPG,AFNE01.JPG,,,,,,,,,,,,,,,,,0,6,6,1,,,,,,,AFNE01.jpg,AFSA09.jpg,AFNE03.jpg,AFSA06.jpg,AFSA09.jpg,FS,4,num_6,32,num_2,0.350135175744,,,2017_Aug_24_1414,60.0116836023,FEMA4ImagesEEG,001,201267,
AFNE01.JPG,AFNE01.JPG,AFNE01.JPG,AFNE01.JPG,AFNE01.JPG,AFNE01.JPG,,,,,,,,,,,,,,,,,0,7,7,4,,,,,,,AFNE06.jpg,AFNE12.jpg,AFSA18.jpg,AFSA14.jpg,AFNE06.jpg,FN,3,num_8,16,num_8,0.41679450823,,,2017_Aug_24_1414,60.0116836023,FEMA4ImagesEEG,001,201267,
AFNE01.JPG,AFNE01.JPG,AFNE01.JPG,AFNE01.JPG,AFNE01.JPG,AFNE01.JPG,,,,,,,,,,,,,,,,,0,8,8,2,,,,,,,AFNE16.jpg,AFNE15.jpg,AFSA01.jpg,AFSA02.jpg,AFSA01.jpg,FS,4,num_2,32,num_4,0.366794716567,,,2017_Aug_24_1414,60.0116836023,FEMA4ImagesEEG,001,201267,
AFNE01.JPG,AFNE01.JPG,AFNE01.JPG,AFNE01.JPG,AFNE01.JPG,AFNE01.JPG,,,,,,,,,,,,,,,,,0,9,9,7,,,,,,,AFSA03.jpg,AFNE14.jpg,AFNE08.jpg,AFSA15.jpg,AFNE08.jpg,FN,3,num_2,16,num_2,0.850102620665,,,2017_Aug_24_1414,60.0116836023,FEMA4ImagesEEG,001,201267,
AFNE01.JPG,AFNE01.JPG,AFNE01.JPG,AFNE01.JPG,AFNE01.JPG,AFNE01.JPG,,,,,,,,,,,,,,,,,1,0,10,2,,,,,,,AFSA20.jpg,AFNE08.jpg,AFNE09.jpg,AFSA11.jpg,AFNE09.jpg,FN,3,num_2,32,num_8,1.15010810539,,,2017_Aug_24_1414,60.0116836023,FEMA4ImagesEEG,001,201267,
AFNE01.JPG,AFNE01.JPG,AFNE01.JPG,AFNE01.JPG,AFNE01.JPG,AFNE01.JPG,,,,,,,,,,,,,,,,,1,1,11,3,,,,,,,AFSA19.jpg,AFSA15.jpg,AFNE05.jpg,AFNE14.jpg,AFSA19.jpg,FS,4,num_8,32,num_6,0.316786906682,,,2017_Aug_24_1414,60.0116836023,FEMA4ImagesEEG,001,201267,
AFNE01.JPG,AFNE01.JPG,AFNE01.JPG,AFNE01.JPG,AFNE01.JPG,AFNE01.JPG,,,,,,,,,,,,,,,,,1,2,12,0,,,,,,,AFNE07.jpg,AFNE01.jpg,AFSA09.jpg,AFSA19.jpg,AFNE07.jpg,FN,3,num_8,32,num_6,0.766763861524,,,2017_Aug_24_1414,60.0116836023,FEMA4ImagesEEG,001,201267,
AFNE01.JPG,AFNE01.JPG,AFNE01.JPG,AFNE01.JPG,AFNE01.JPG,AFNE01.JPG,,,,,,,,,,,,,,,,,1,3,13,5,,,,,,,AFNE14.jpg,AFNE10.jpg,AFSA07.jpg,AFSA05.jpg,AFNE14.jpg,FN,3,num_8,32,num_6,1.14963854232,,,2017_Aug_24_1414,60.0116836023,FEMA4ImagesEEG,001,201267,
AFNE01.JPG,AFNE01.JPG,AFNE01.JPG,AFNE01.JPG,AFNE01.JPG,AFNE01.JPG,,,,,,,,,,,,,,,,,1,4,14,6,,,,,,,AFSA10.jpg,AFSA08.jpg,AFNE05.jpg,AFNE15.jpg,AFSA08.jpg,FS,4,num_6,32,num_8,0.916773820412,,,2017_Aug_24_1414,60.0116836023,FEMA4ImagesEEG,001,201267,
AFNE01.JPG,AFNE01.JPG,AFNE01.JPG,AFNE01.JPG,AFNE01.JPG,AFNE01.JPG,,,,,,,,,,,,,,,,,1,5,15,9,,,,,,,AFSA01.jpg,AFSA17.jpg,AFNE01.jpg,AFNE20.jpg,AFNE20.jpg,FN,3,num_4,32,num_6,1.06674913946,,,2017_Aug_24_1414,60.0116836023,FEMA4ImagesEEG,001,201267,
AFNE01.JPG,AFNE01.JPG,AFNE01.JPG,AFNE01.JPG,AFNE01.JPG,AFNE01.JPG,,,,,,,,,,,,,,,,,1,6,16,1,,,,,,,AFSA17.jpg,AFNE03.jpg,AFSA14.jpg,AFNE18.jpg,AFNE18.jpg,FN,3,num_4,32,num_2,0.500136154005,,,2017_Aug_24_1414,60.0116836023,FEMA4ImagesEEG,001,201267,
AFNE01.JPG,AFNE01.JPG,AFNE01.JPG,AFNE01.JPG,AFNE01.JPG,AFNE01.JPG,,,,,,,,,,,,,,,,,1,7,17,4,,,,,,,AFSA16.jpg,AFSA02.jpg,AFNE06.jpg,AFNE13.jpg,AFSA16.jpg,FS,4,num_8,32,num_6,0.366820375901,,,2017_Aug_24_1414,60.0116836023,FEMA4ImagesEEG,001,201267,
AFNE01.JPG,AFNE01.JPG,AFNE01.JPG,AFNE01.JPG,AFNE01.JPG,AFNE01.JPG,,,,,,,,,,,,,,,,,1,8,18,8,,,,,,,AFNE10.jpg,AFSA04.jpg,AFSA16.jpg,AFNE08.jpg,AFSA04.jpg,FS,4,num_6,16,num_6,0.500148342107,,,2017_Aug_24_1414,60.0116836023,FEMA4ImagesEEG,001,201267,
AFNE01.JPG,AFNE01.JPG,AFNE01.JPG,AFNE01.JPG,AFNE01.JPG,AFNE01.JPG,,,,,,,,,,,,,,,,,1,9,19,7,,,,,,,AFSA16.jpg,AFSA01.jpg,AFNE13.jpg,AFNE17.jpg,AFSA16.jpg,FS,4,num_8,16,num_8,0.433485802263,,,2017_Aug_24_1414,60.0116836023,FEMA4ImagesEEG,001,201267,
AFNE01.JPG,AFNE01.JPG,AFNE01.JPG,AFNE01.JPG,AFNE01.JPG,AFNE01.JPG,,,,,,,,,,,,,,,,,2,0,20,2,,,,,,,AFSA06.jpg,AFSA18.jpg,AFNE08.jpg,AFNE09.jpg,AFNE09.jpg,FN,3,num_4,32,num_6,0.450126419542,,,2017_Aug_24_1414,60.0116836023,FEMA4ImagesEEG,001,201267,
AFNE01.JPG,AFNE01.JPG,AFNE01.JPG,AFNE01.JPG,AFNE01.JPG,AFNE01.JPG,,,,,,,,,,,,,,,,,2,1,21,3,,,,,,,AFNE20.jpg,AFNE07.jpg,AFSA09.jpg,AFSA07.jpg,AFNE20.jpg,FN,3,num_8,32,num_2,1.14995799924,,,2017_Aug_24_1414,60.0116836023,FEMA4ImagesEEG,001,201267,
AFNE01.JPG,AFNE01.JPG,AFNE01.JPG,AFNE01.JPG,AFNE01.JPG,AFNE01.JPG,,,,,,,,,,,,,,,,,2,2,22,1,,,,,,,AFNE15.jpg,AFSA10.jpg,AFNE02.jpg,AFSA15.jpg,AFNE02.jpg,FN,3,num_2,32,num_4,0.416783923749,,,2017_Aug_24_1414,60.0116836023,FEMA4ImagesEEG,001,201267,
AFNE01.JPG,AFNE01.JPG,AFNE01.JPG,AFNE01.JPG,AFNE01.JPG,AFNE01.JPG,,,,,,,,,,,,,,,,,2,3,23,6,,,,,,,AFSA19.jpg,AFNE14.jpg,AFNE17.jpg,AFSA13.jpg,AFSA19.jpg,FS,4,num_8,16,num_8,0.966745066224,,,2017_Aug_24_1414,60.0116836023,FEMA4ImagesEEG,001,201267,
AFNE01.JPG,AFNE01.JPG,AFNE01.JPG,AFNE01.JPG,AFNE01.JPG,AFNE01.JPG,,,,,,,,,,,,,,,,,2,4,24,4,,,,,,,AFNE18.jpg,AFSA08.jpg,AFNE09.jpg,AFSA07.jpg,AFSA08.jpg,FS,4,num_6,16,num_6,0.833424156182,,,2017_Aug_24_1414,60.0116836023,FEMA4ImagesEEG,001,201267,
AFNE01.JPG,AFNE01.JPG,AFNE01.JPG,AFNE01.JPG,AFNE01.JPG,AFNE01.JPG,,,,,,,,,,,,,,,,,2,5,25,0,,,,,,,AFNE04.jpg,AFNE07.jpg,AFSA08.jpg,AFSA04.jpg,AFSA04.jpg,FS,4,num_4,16,num_4,0.950075902976,,,2017_Aug_24_1414,60.0116836023,FEMA4ImagesEEG,001,201267,
AFNE01.JPG,AFNE01.JPG,AFNE01.JPG,AFNE01.JPG,AFNE01.JPG,AFNE01.JPG,,,,,,,,,,,,,,,,,2,6,26,8,,,,,,,AFNE19.jpg,AFSA12.jpg,AFNE07.jpg,AFSA05.jpg,AFNE19.jpg,FN,3,num_8,32,num_4,0.799984155456,,,2017_Aug_24_1414,60.0116836023,FEMA4ImagesEEG,001,201267,
AFNE01.JPG,AFNE01.JPG,AFNE01.JPG,AFNE01.JPG,AFNE01.JPG,AFNE01.JPG,,,,,,,,,,,,,,,,,2,7,27,5,,,,,,,AFSA05.jpg,AFNE02.jpg,AFNE11.jpg,AFSA16.jpg,AFNE02.jpg,FN,3,num_6,16,num_6,1.13347005402,,,2017_Aug_24_1414,60.0116836023,FEMA4ImagesEEG,001,201267,
AFNE01.JPG,AFNE01.JPG,AFNE01.JPG,AFNE01.JPG,AFNE01.JPG,AFNE01.JPG,,,,,,,,,,,,,,,,,2,8,28,9,,,,,,,AFNE18.jpg,AFSA04.jpg,AFNE15.jpg,AFSA12.jpg,AFNE15.jpg,FN,3,num_2,16,num_2,0.366767774569,,,2017_Aug_24_1414,60.0116836023,FEMA4ImagesEEG,001,201267,
AFNE01.JPG,AFNE01.JPG,AFNE01.JPG,AFNE01.JPG,AFNE01.JPG,AFNE01.JPG,,,,,,,,,,,,,,,,,2,9,29,7,,,,,,,AFNE08.jpg,AFNE12.jpg,AFSA10.jpg,AFSA11.jpg,AFSA10.jpg,FS,4,num_2,32,num_6,1.61666377459,,,2017_Aug_24_1414,60.0116836023,FEMA4ImagesEEG,001,201267,
AFNE01.JPG,AFNE01.JPG,AFNE01.JPG,AFNE01.JPG,AFNE01.JPG,AFNE01.JPG,,,,,,,,,,,,,,,,,3,0,30,0,,,,,,,AFNE17.jpg,AFSA05.jpg,AFSA12.jpg,AFNE14.jpg,AFSA12.jpg,FS,4,num_2,32,num_6,0.933419890236,,,2017_Aug_24_1414,60.0116836023,FEMA4ImagesEEG,001,201267,
AFNE01.JPG,AFNE01.JPG,AFNE01.JPG,AFNE01.JPG,AFNE01.JPG,AFNE01.JPG,,,,,,,,,,,,,,,,,3,1,31,1,,,,,,,AFNE16.jpg,AFSA16.jpg,AFSA11.jpg,AFNE19.jpg,AFNE16.jpg,FN,3,num_8,16,num_8,0.61680105119,,,2017_Aug_24_1414,60.0116836023,FEMA4ImagesEEG,001,201267,
AFNE01.JPG,AFNE01.JPG,AFNE01.JPG,AFNE01.JPG,AFNE01.JPG,AFNE01.JPG,,,,,,,,,,,,,,,,,3,2,32,8,,,,,,,AFSA06.jpg,AFSA20.jpg,AFNE20.jpg,AFNE14.jpg,AFNE20.jpg,FN,3,num_2,32,num_4,0.816831008415,,,2017_Aug_24_1414,60.0116836023,FEMA4ImagesEEG,001,201267,
AFNE01.JPG,AFNE01.JPG,AFNE01.JPG,AFNE01.JPG,AFNE01.JPG,AFNE01.JPG,,,,,,,,,,,,,,,,,3,3,33,5,,,,,,,AFSA09.jpg,AFNE03.jpg,AFNE04.jpg,AFSA12.jpg,AFNE04.jpg,FN,3,num_2,32,num_8,1.1000993331,,,2017_Aug_24_1414,60.0116836023,FEMA4ImagesEEG,001,201267,
AFNE01.JPG,AFNE01.JPG,AFNE01.JPG,AFNE01.JPG,AFNE01.JPG,AFNE01.JPG,,,,,,,,,,,,,,,,,3,4,34,6,,,,,,,AFSA15.jpg,AFSA12.jpg,AFNE12.jpg,AFNE04.jpg,AFSA15.jpg,FS,4,num_8,32,num_6,1.95004767796,,,2017_Aug_24_1414,60.0116836023,FEMA4ImagesEEG,001,201267,
AFNE01.JPG,AFNE01.JPG,AFNE01.JPG,AFNE01.JPG,AFNE01.JPG,AFNE01.JPG,,,,,,,,,,,,,,,,,3,5,35,2,,,,,,,AFSA07.jpg,AFNE12.jpg,AFNE18.jpg,AFSA18.jpg,AFNE12.jpg,FN,3,num_6,32,num_2,0.983494093409,,,2017_Aug_24_1414,60.0116836023,FEMA4ImagesEEG,001,201267,
AFNE01.JPG,AFNE01.JPG,AFNE01.JPG,AFNE01.JPG,AFNE01.JPG,AFNE01.JPG,,,,,,,,,,,,,,,,,3,6,36,3,,,,,,,AFNE15.jpg,AFNE18.jpg,AFSA14.jpg,AFSA06.jpg,AFNE18.jpg,FN,3,num_6,16,num_6,0.700132112717,,,2017_Aug_24_1414,60.0116836023,FEMA4ImagesEEG,001,201267,
AFNE01.JPG,AFNE01.JPG,AFNE01.JPG,AFNE01.JPG,AFNE01.JPG,AFNE01.JPG,,,,,,,,,,,,,,,,,3,7,37,4,,,,,,,AFSA06.jpg,AFNE07.jpg,AFSA07.jpg,AFNE06.jpg,AFNE07.jpg,FN,3,num_6,16,num_6,0.666783843539,,,2017_Aug_24_1414,60.0116836023,FEMA4ImagesEEG,001,201267,
AFNE01.JPG,AFNE01.JPG,AFNE01.JPG,AFNE01.JPG,AFNE01.JPG,AFNE01.JPG,,,,,,,,,,,,,,,,,3,8,38,7,,,,,,,AFNE11.jpg,AFSA07.jpg,AFNE19.jpg,AFSA16.jpg,AFNE11.jpg,FN,3,num_8,16,num_8,0.500149625121,,,2017_Aug_24_1414,60.0116836023,FEMA4ImagesEEG,001,201267,
AFNE01.JPG,AFNE01.JPG,AFNE01.JPG,AFNE01.JPG,AFNE01.JPG,AFNE01.JPG,,,,,,,,,,,,,,,,,3,9,39,9,,,,,,,AFSA09.jpg,AFSA05.jpg,AFNE07.jpg,AFNE14.jpg,AFSA09.jpg,FS,4,num_8,32,num_6,1.01706655952,,,2017_Aug_24_1414,60.0116836023,FEMA4ImagesEEG,001,201267,
AFNE01.JPG,AFNE01.JPG,AFNE01.JPG,AFNE01.JPG,AFNE01.JPG,AFNE01.JPG,,,,,,,,,,,,,,,,,4,0,40,7,,,,,,,AFNE13.jpg,AFSA14.jpg,AFSA19.jpg,AFNE18.jpg,AFSA19.jpg,FS,4,num_2,32,num_8,0.83345494722,,,2017_Aug_24_1414,60.0116836023,FEMA4ImagesEEG,001,201267,
AFNE01.JPG,AFNE01.JPG,AFNE01.JPG,AFNE01.JPG,AFNE01.JPG,AFNE01.JPG,,,,,,,,,,,,,,,,,4,1,41,6,,,,,,,AFNE15.jpg,AFSA08.jpg,AFSA05.jpg,AFNE16.jpg,AFNE15.jpg,FN,3,num_8,32,num_2,1.10012435075,,,2017_Aug_24_1414,60.0116836023,FEMA4ImagesEEG,001,201267,
AFNE01.JPG,AFNE01.JPG,AFNE01.JPG,AFNE01.JPG,AFNE01.JPG,AFNE01.JPG,,,,,,,,,,,,,,,,,4,2,42,3,,,,,,,AFSA15.jpg,AFNE20.jpg,AFNE15.jpg,AFSA01.jpg,AFSA01.jpg,FS,4,num_4,16,num_4,0.816902854131,,,2017_Aug_24_1414,60.0116836023,FEMA4ImagesEEG,001,201267,
AFNE01.JPG,AFNE01.JPG,AFNE01.JPG,AFNE01.JPG,AFNE01.JPG,AFNE01.JPG,,,,,,,,,,,,,,,,,4,3,43,5,,,,,,,AFSA08.jpg,AFNE17.jpg,AFNE04.jpg,AFSA17.jpg,AFSA08.jpg,FS,4,num_8,16,num_8,0.683489570976,,,2017_Aug_24_1414,60.0116836023,FEMA4ImagesEEG,001,201267,
AFNE01.JPG,AFNE01.JPG,AFNE01.JPG,AFNE01.JPG,AFNE01.JPG,AFNE01.JPG,,,,,,,,,,,,,,,,,4,4,44,4,,,,,,,AFSA08.jpg,AFSA09.jpg,AFNE14.jpg,AFNE11.jpg,AFSA08.jpg,FS,4,num_8,32,num_6,0.933429191704,,,2017_Aug_24_1414,60.0116836023,FEMA4ImagesEEG,001,201267,
AFNE01.JPG,AFNE01.JPG,AFNE01.JPG,AFNE01.JPG,AFNE01.JPG,AFNE01.JPG,,,,,,,,,,,,,,,,,4,5,45,0,,,,,,,AFNE20.jpg,AFSA13.jpg,AFNE10.jpg,AFSA07.jpg,AFNE10.jpg,FN,3,num_2,16,num_2,0.450044951634,,,2017_Aug_24_1414,60.0116836023,FEMA4ImagesEEG,001,201267,
AFNE01.JPG,AFNE01.JPG,AFNE01.JPG,AFNE01.JPG,AFNE01.JPG,AFNE01.JPG,,,,,,,,,,,,,,,,,4,6,46,8,,,,,,,AFNE08.jpg,AFNE06.jpg,AFSA11.jpg,AFSA05.jpg,AFNE06.jpg,FN,3,num_6,32,num_8,1.08342343452,,,2017_Aug_24_1414,60.0116836023,FEMA4ImagesEEG,001,201267,
AFNE01.JPG,AFNE01.JPG,AFNE01.JPG,AFNE01.JPG,AFNE01.JPG,AFNE01.JPG,,,,,,,,,,,,,,,,,4,7,47,1,,,,,,,AFNE11.jpg,AFSA04.jpg,AFNE06.jpg,AFSA08.jpg,AFSA08.jpg,FS,4,num_4,16,num_4,1.25008684036,,,2017_Aug_24_1414,60.0116836023,FEMA4ImagesEEG,001,201267,
AFNE01.JPG,AFNE01.JPG,AFNE01.JPG,AFNE01.JPG,AFNE01.JPG,AFNE01.JPG,,,,,,,,,,,,,,,,,4,8,48,9,,,,,,,AFSA04.jpg,AFSA09.jpg,AFNE01.jpg,AFNE18.jpg,AFSA09.jpg,FS,4,num_6,16,num_6,0.400150042144,,,2017_Aug_24_1414,60.0116836023,FEMA4ImagesEEG,001,201267,
AFNE01.JPG,AFNE01.JPG,AFNE01.JPG,AFNE01.JPG,AFNE01.JPG,AFNE01.JPG,,,,,,,,,,,,,,,,,4,9,49,2,,,,,,,AFSA19.jpg,AFNE09.jpg,AFNE11.jpg,AFSA04.jpg,AFSA19.jpg,FS,4,num_8,32,num_2,0.283487390028,,,2017_Aug_24_1414,60.0116836023,FEMA4ImagesEEG,001,201267,
AFNE01.JPG,AFNE01.JPG,AFNE01.JPG,AFNE01.JPG,AFNE01.JPG,AFNE01.JPG,,,,,,,,,,,,,,,,,5,0,50,7,,,,,,,AFSA12.jpg,AFNE10.jpg,AFSA14.jpg,AFNE09.jpg,AFNE10.jpg,FN,3,num_6,16,num_6,0.933874057722,,,2017_Aug_24_1414,60.0116836023,FEMA4ImagesEEG,001,201267,
AFNE01.JPG,AFNE01.JPG,AFNE01.JPG,AFNE01.JPG,AFNE01.JPG,AFNE01.JPG,,,,,,,,,,,,,,,,,5,1,51,0,,,,,,,AFSA02.jpg,AFNE14.jpg,AFNE13.jpg,AFSA18.jpg,AFSA18.jpg,FS,4,num_4,32,num_2,1.08342503814,,,2017_Aug_24_1414,60.0116836023,FEMA4ImagesEEG,001,201267,
AFNE01.JPG,AFNE01.JPG,AFNE01.JPG,AFNE01.JPG,AFNE01.JPG,AFNE01.JPG,,,,,,,,,,,,,,,,,5,2,52,2,,,,,,,AFSA03.jpg,AFNE10.jpg,AFSA04.jpg,AFNE02.jpg,AFNE02.jpg,FN,3,num_4,16,num_4,1.06677993061,,,2017_Aug_24_1414,60.0116836023,FEMA4ImagesEEG,001,201267,
AFNE01.JPG,AFNE01.JPG,AFNE01.JPG,AFNE01.JPG,AFNE01.JPG,AFNE01.JPG,,,,,,,,,,,,,,,,,5,3,53,8,,,,,,,AFSA12.jpg,AFNE07.jpg,AFSA13.jpg,AFNE11.jpg,AFNE11.jpg,FN,3,num_4,16,num_4,0.483453840599,,,2017_Aug_24_1414,60.0116836023,FEMA4ImagesEEG,001,201267,
AFNE01.JPG,AFNE01.JPG,AFNE01.JPG,AFNE01.JPG,AFNE01.JPG,AFNE01.JPG,,,,,,,,,,,,,,,,,5,4,54,3,,,,,,,AFSA05.jpg,AFNE03.jpg,AFNE04.jpg,AFSA10.jpg,AFNE04.jpg,FN,3,num_2,16,num_2,1.033453151,,,2017_Aug_24_1414,60.0116836023,FEMA4ImagesEEG,001,201267,
AFNE01.JPG,AFNE01.JPG,AFNE01.JPG,AFNE01.JPG,AFNE01.JPG,AFNE01.JPG,,,,,,,,,,,,,,,,,5,5,55,4,,,,,,,AFNE06.jpg,AFSA11.jpg,AFNE09.jpg,AFSA15.jpg,AFNE09.jpg,FN,3,num_2,32,num_4,0.949941833853,,,2017_Aug_24_1414,60.0116836023,FEMA4ImagesEEG,001,201267,
AFNE01.JPG,AFNE01.JPG,AFNE01.JPG,AFNE01.JPG,AFNE01.JPG,AFNE01.JPG,,,,,,,,,,,,,,,,,5,6,56,1,,,,,,,AFNE12.jpg,AFSA20.jpg,AFSA08.jpg,AFNE18.jpg,AFSA20.jpg,FS,4,num_6,16,num_6,0.950102524483,,,2017_Aug_24_1414,60.0116836023,FEMA4ImagesEEG,001,201267,
AFNE01.JPG,AFNE01.JPG,AFNE01.JPG,AFNE01.JPG,AFNE01.JPG,AFNE01.JPG,,,,,,,,,,,,,,,,,5,7,57,5,,,,,,,AFNE11.jpg,AFNE19.jpg,AFSA10.jpg,AFSA04.jpg,AFSA04.jpg,FS,4,num_4,16,num_4,0.550253015594,,,2017_Aug_24_1414,60.0116836023,FEMA4ImagesEEG,001,201267,
AFNE01.JPG,AFNE01.JPG,AFNE01.JPG,AFNE01.JPG,AFNE01.JPG,AFNE01.JPG,,,,,,,,,,,,,,,,,5,8,58,6,,,,,,,AFNE01.jpg,AFSA03.jpg,AFSA05.jpg,AFNE13.jpg,AFSA05.jpg,FS,4,num_2,16,num_2,0.516638532397,,,2017_Aug_24_1414,60.0116836023,FEMA4ImagesEEG,001,201267,
AFNE01.JPG,AFNE01.JPG,AFNE01.JPG,AFNE01.JPG,AFNE01.JPG,AFNE01.JPG,,,,,,,,,,,,,,,,,5,9,59,9,,,,,,,AFNE19.jpg,AFSA01.jpg,AFSA15.jpg,AFNE01.jpg,AFNE19.jpg,FN,3,num_8,16,num_8,0.483726790058,,,2017_Aug_24_1414,60.0116836023,FEMA4ImagesEEG,001,201267,
,,,,,,,,,,,,,,,,,,,,,,,,,,,,,,,,,,,,,,,,,,,space,2.18332070147,2017_Aug_24_1414,60.0116836023,FEMA4ImagesEEG,001,201267,
AFNE01.JPG,AFNE01.JPG,AFNE01.JPG,AFNE01.JPG,AFNE01.JPG,AFNE01.JPG,,,,,,,,,,,,,,,,,,,,,0,0,0,6,,,AMNE02.jpg,AMSA03.jpg,AMSA17.jpg,AMNE19.jpg,AMSA03.jpg,MS,2,num_6,16,num_6,0.533429576666,,,2017_Aug_24_1414,60.0116836023,FEMA4ImagesEEG,001,201267,
AFNE01.JPG,AFNE01.JPG,AFNE01.JPG,AFNE01.JPG,AFNE01.JPG,AFNE01.JPG,,,,,,,,,,,,,,,,,,,,,0,1,1,7,,,AMNE17.jpg,AMSA17.jpg,AMSA09.jpg,AMNE15.jpg,AMSA09.jpg,MS,2,num_2,32,num_4,0.800140355714,,,2017_Aug_24_1414,60.0116836023,FEMA4ImagesEEG,001,201267,
AFNE01.JPG,AFNE01.JPG,AFNE01.JPG,AFNE01.JPG,AFNE01.JPG,AFNE01.JPG,,,,,,,,,,,,,,,,,,,,,0,2,2,5,,,AMSA04.jpg,AMSA06.jpg,AMNE09.jpg,AMNE10.jpg,AMSA06.jpg,MS,2,num_6,32,num_2,0.300180608523,,,2017_Aug_24_1414,60.0116836023,FEMA4ImagesEEG,001,201267,
AFNE01.JPG,AFNE01.JPG,AFNE01.JPG,AFNE01.JPG,AFNE01.JPG,AFNE01.JPG,,,,,,,,,,,,,,,,,,,,,0,3,3,2,,,AMNE02.jpg,AMNE07.jpg,AMSA16.jpg,AMSA07.jpg,AMNE07.jpg,MN,1,num_6,32,num_8,0.650121415965,,,2017_Aug_24_1414,60.0116836023,FEMA4ImagesEEG,001,201267,
AFNE01.JPG,AFNE01.JPG,AFNE01.JPG,AFNE01.JPG,AFNE01.JPG,AFNE01.JPG,,,,,,,,,,,,,,,,,,,,,0,4,4,1,,,AMSA04.jpg,AMNE02.jpg,AMNE12.jpg,AMSA03.jpg,AMSA04.jpg,MS,2,num_8,32,num_6,0.283498936566,,,2017_Aug_24_1414,60.0116836023,FEMA4ImagesEEG,001,201267,
AFNE01.JPG,AFNE01.JPG,AFNE01.JPG,AFNE01.JPG,AFNE01.JPG,AFNE01.JPG,,,,,,,,,,,,,,,,,,,,,0,5,5,9,,,AMNE01.jpg,AMNE20.jpg,AMSA14.jpg,AMSA07.jpg,AMNE01.jpg,MN,1,num_8,32,num_2,0.350174305961,,,2017_Aug_24_1414,60.0116836023,FEMA4ImagesEEG,001,201267,
AFNE01.JPG,AFNE01.JPG,AFNE01.JPG,AFNE01.JPG,AFNE01.JPG,AFNE01.JPG,,,,,,,,,,,,,,,,,,,,,0,6,6,3,,,AMNE20.jpg,AMSA10.jpg,AMNE18.jpg,AMSA20.jpg,AMNE20.jpg,MN,1,num_8,32,num_4,0.316825074609,,,2017_Aug_24_1414,60.0116836023,FEMA4ImagesEEG,001,201267,
AFNE01.JPG,AFNE01.JPG,AFNE01.JPG,AFNE01.JPG,AFNE01.JPG,AFNE01.JPG,,,,,,,,,,,,,,,,,,,,,0,7,7,8,,,AMSA06.jpg,AMNE03.jpg,AMNE08.jpg,AMSA11.jpg,AMSA11.jpg,MS,2,num_4,32,num_6,0.550277391681,,,2017_Aug_24_1414,60.0116836023,FEMA4ImagesEEG,001,201267,
AFNE01.JPG,AFNE01.JPG,AFNE01.JPG,AFNE01.JPG,AFNE01.JPG,AFNE01.JPG,,,,,,,,,,,,,,,,,,,,,0,8,8,0,,,AMSA15.jpg,AMNE13.jpg,AMSA18.jpg,AMNE07.jpg,AMSA15.jpg,MS,2,num_8,16,num_8,0.633481119527,,,2017_Aug_24_1414,60.0116836023,FEMA4ImagesEEG,001,201267,
AFNE01.JPG,AFNE01.JPG,AFNE01.JPG,AFNE01.JPG,AFNE01.JPG,AFNE01.JPG,,,,,,,,,,,,,,,,,,,,,0,9,9,4,,,AMSA20.jpg,AMNE01.jpg,AMSA06.jpg,AMNE09.jpg,AMSA20.jpg,MS,2,num_8,32,num_4,1.01680451527,,,2017_Aug_24_1414,60.0116836023,FEMA4ImagesEEG,001,201267,
AFNE01.JPG,AFNE01.JPG,AFNE01.JPG,AFNE01.JPG,AFNE01.JPG,AFNE01.JPG,,,,,,,,,,,,,,,,,,,,,1,0,10,6,,,AMNE16.jpg,AMSA12.jpg,AMSA04.jpg,AMNE05.jpg,AMSA04.jpg,MS,2,num_2,32,num_6,0.300189268542,,,2017_Aug_24_1414,60.0116836023,FEMA4ImagesEEG,001,201267,
AFNE01.JPG,AFNE01.JPG,AFNE01.JPG,AFNE01.JPG,AFNE01.JPG,AFNE01.JPG,,,,,,,,,,,,,,,,,,,,,1,1,11,7,,,AMSA14.jpg,AMNE04.jpg,AMSA11.jpg,AMNE13.jpg,AMNE13.jpg,MN,1,num_4,32,num_6,1.88340630697,,,2017_Aug_24_1414,60.0116836023,FEMA4ImagesEEG,001,201267,
AFNE01.JPG,AFNE01.JPG,AFNE01.JPG,AFNE01.JPG,AFNE01.JPG,AFNE01.JPG,,,,,,,,,,,,,,,,,,,,,1,2,12,4,,,AMSA06.jpg,AMSA19.jpg,AMNE05.jpg,AMNE09.jpg,AMNE05.jpg,MN,1,num_2,32,num_8,0.383519367781,,,2017_Aug_24_1414,60.0116836023,FEMA4ImagesEEG,001,201267,
AFNE01.JPG,AFNE01.JPG,AFNE01.JPG,AFNE01.JPG,AFNE01.JPG,AFNE01.JPG,,,,,,,,,,,,,,,,,,,,,1,3,13,5,,,AMSA02.jpg,AMSA04.jpg,AMNE16.jpg,AMNE11.jpg,AMSA02.jpg,MS,2,num_8,32,num_4,0.450203397078,,,2017_Aug_24_1414,60.0116836023,FEMA4ImagesEEG,001,201267,
AFNE01.JPG,AFNE01.JPG,AFNE01.JPG,AFNE01.JPG,AFNE01.JPG,AFNE01.JPG,,,,,,,,,,,,,,,,,,,,,1,4,14,1,,,AMNE09.jpg,AMSA12.jpg,AMSA17.jpg,AMNE06.jpg,AMNE09.jpg,MN,1,num_8,32,num_6,0.33348654001,,,2017_Aug_24_1414,60.0116836023,FEMA4ImagesEEG,001,201267,
AFNE01.JPG,AFNE01.JPG,AFNE01.JPG,AFNE01.JPG,AFNE01.JPG,AFNE01.JPG,,,,,,,,,,,,,,,,,,,,,1,5,15,2,,,AMNE16.jpg,AMSA05.jpg,AMSA06.jpg,AMNE05.jpg,AMNE05.jpg,MN,1,num_4,32,num_6,0.433497348917,,,2017_Aug_24_1414,60.0116836023,FEMA4ImagesEEG,001,201267,
AFNE01.JPG,AFNE01.JPG,AFNE01.JPG,AFNE01.JPG,AFNE01.JPG,AFNE01.JPG,,,,,,,,,,,,,,,,,,,,,1,6,16,0,,,AMSA14.jpg,AMNE18.jpg,AMNE01.jpg,AMSA17.jpg,AMNE18.jpg,MN,1,num_6,32,num_4,0.733441251563,,,2017_Aug_24_1414,60.0116836023,FEMA4ImagesEEG,001,201267,
AFNE01.JPG,AFNE01.JPG,AFNE01.JPG,AFNE01.JPG,AFNE01.JPG,AFNE01.JPG,,,,,,,,,,,,,,,,,,,,,1,7,17,9,,,AMSA19.jpg,AMSA15.jpg,AMNE07.jpg,AMNE06.jpg,AMSA19.jpg,MS,2,num_8,16,num_8,0.900123260217,,,2017_Aug_24_1414,60.0116836023,FEMA4ImagesEEG,001,201267,
AFNE01.JPG,AFNE01.JPG,AFNE01.JPG,AFNE01.JPG,AFNE01.JPG,AFNE01.JPG,,,,,,,,,,,,,,,,,,,,,1,8,18,3,,,AMSA02.jpg,AMNE03.jpg,AMNE12.jpg,AMSA12.jpg,AMSA12.jpg,MS,2,num_4,16,num_4,0.483491367078,,,2017_Aug_24_1414,60.0116836023,FEMA4ImagesEEG,001,201267,
AFNE01.JPG,AFNE01.JPG,AFNE01.JPG,AFNE01.JPG,AFNE01.JPG,AFNE01.JPG,,,,,,,,,,,,,,,,,,,,,1,9,19,8,,,AMNE11.jpg,AMSA20.jpg,AMSA04.jpg,AMNE20.jpg,AMNE11.jpg,MN,1,num_8,32,num_2,3.36669432512,,,2017_Aug_24_1414,60.0116836023,FEMA4ImagesEEG,001,201267,
AFNE01.JPG,AFNE01.JPG,AFNE01.JPG,AFNE01.JPG,AFNE01.JPG,AFNE01.JPG,,,,,,,,,,,,,,,,,,,,,2,0,20,6,,,AMNE08.jpg,AMSA02.jpg,AMNE03.jpg,AMSA11.jpg,AMNE08.jpg,MN,1,num_8,32,num_6,1.06674625282,,,2017_Aug_24_1414,60.0116836023,FEMA4ImagesEEG,001,201267,
AFNE01.JPG,AFNE01.JPG,AFNE01.JPG,AFNE01.JPG,AFNE01.JPG,AFNE01.JPG,,,,,,,,,,,,,,,,,,,,,2,1,21,4,,,AMNE07.jpg,AMSA04.jpg,AMNE19.jpg,AMSA08.jpg,AMNE07.jpg,MN,1,num_8,32,num_2,0.45016490831,,,2017_Aug_24_1414,60.0116836023,FEMA4ImagesEEG,001,201267,
AFNE01.JPG,AFNE01.JPG,AFNE01.JPG,AFNE01.JPG,AFNE01.JPG,AFNE01.JPG,,,,,,,,,,,,,,,,,,,,,2,2,22,2,,,AMSA08.jpg,AMNE06.jpg,AMSA05.jpg,AMNE01.jpg,AMSA08.jpg,MS,2,num_8,16,num_8,0.883444795618,,,2017_Aug_24_1414,60.0116836023,FEMA4ImagesEEG,001,201267,
AFNE01.JPG,AFNE01.JPG,AFNE01.JPG,AFNE01.JPG,AFNE01.JPG,AFNE01.JPG,,,,,,,,,,,,,,,,,,,,,2,3,23,1,,,AMNE13.jpg,AMNE12.jpg,AMSA07.jpg,AMSA18.jpg,AMNE13.jpg,MN,1,num_8,16,num_8,0.950101562194,,,2017_Aug_24_1414,60.0116836023,FEMA4ImagesEEG,001,201267,
AFNE01.JPG,AFNE01.JPG,AFNE01.JPG,AFNE01.JPG,AFNE01.JPG,AFNE01.JPG,,,,,,,,,,,,,,,,,,,,,2,4,24,8,,,AMSA17.jpg,AMNE15.jpg,AMSA04.jpg,AMNE13.jpg,AMNE13.jpg,MN,1,num_4,16,num_4,0.600135416375,,,2017_Aug_24_1414,60.0116836023,FEMA4ImagesEEG,001,201267,
AFNE01.JPG,AFNE01.JPG,AFNE01.JPG,AFNE01.JPG,AFNE01.JPG,AFNE01.JPG,,,,,,,,,,,,,,,,,,,,,2,5,25,0,,,AMNE11.jpg,AMNE18.jpg,AMSA04.jpg,AMSA15.jpg,AMSA04.jpg,MS,2,num_2,16,num_2,1.2336919097,,,2017_Aug_24_1414,60.0116836023,FEMA4ImagesEEG,001,201267,
AFNE01.JPG,AFNE01.JPG,AFNE01.JPG,AFNE01.JPG,AFNE01.JPG,AFNE01.JPG,,,,,,,,,,,,,,,,,,,,,2,6,26,7,,,AMSA06.jpg,AMSA02.jpg,AMNE16.jpg,AMNE19.jpg,AMSA02.jpg,MS,2,num_6,16,num_6,0.900098242564,,,2017_Aug_24_1414,60.0116836023,FEMA4ImagesEEG,001,201267,
AFNE01.JPG,AFNE01.JPG,AFNE01.JPG,AFNE01.JPG,AFNE01.JPG,AFNE01.JPG,,,,,,,,,,,,,,,,,,,,,2,7,27,3,,,AMNE05.jpg,AMSA15.jpg,AMSA03.jpg,AMNE11.jpg,AMNE11.jpg,MN,1,num_4,16,num_4,0.983428021078,,,2017_Aug_24_1414,60.0116836023,FEMA4ImagesEEG,001,201267,
AFNE01.JPG,AFNE01.JPG,AFNE01.JPG,AFNE01.JPG,AFNE01.JPG,AFNE01.JPG,,,,,,,,,,,,,,,,,,,,,2,8,28,9,,,AMSA18.jpg,AMSA09.jpg,AMNE20.jpg,AMNE19.jpg,AMNE20.jpg,MN,1,num_2,32,num_6,0.416820808896,,,2017_Aug_24_1414,60.0116836023,FEMA4ImagesEEG,001,201267,
AFNE01.JPG,AFNE01.JPG,AFNE01.JPG,AFNE01.JPG,AFNE01.JPG,AFNE01.JPG,,,,,,,,,,,,,,,,,,,,,2,9,29,5,,,AMNE07.jpg,AMSA12.jpg,AMSA18.jpg,AMNE16.jpg,AMNE07.jpg,MN,1,num_8,16,num_8,1.0167381221,,,2017_Aug_24_1414,60.0116836023,FEMA4ImagesEEG,001,201267,
AFNE01.JPG,AFNE01.JPG,AFNE01.JPG,AFNE01.JPG,AFNE01.JPG,AFNE01.JPG,,,,,,,,,,,,,,,,,,,,,3,0,30,2,,,AMNE17.jpg,AMNE08.jpg,AMSA13.jpg,AMSA04.jpg,AMNE08.jpg,MN,1,num_6,32,num_2,0.883399250684,,,2017_Aug_24_1414,60.0116836023,FEMA4ImagesEEG,001,201267,
AFNE01.JPG,AFNE01.JPG,AFNE01.JPG,AFNE01.JPG,AFNE01.JPG,AFNE01.JPG,,,,,,,,,,,,,,,,,,,,,3,1,31,4,,,AMNE12.jpg,AMSA15.jpg,AMSA01.jpg,AMNE14.jpg,AMSA01.jpg,MS,2,num_2,32,num_4,0.983434115071,,,2017_Aug_24_1414,60.0116836023,FEMA4ImagesEEG,001,201267,
AFNE01.JPG,AFNE01.JPG,AFNE01.JPG,AFNE01.JPG,AFNE01.JPG,AFNE01.JPG,,,,,,,,,,,,,,,,,,,,,3,2,32,1,,,AMNE15.jpg,AMNE19.jpg,AMSA07.jpg,AMSA06.jpg,AMSA07.jpg,MS,2,num_2,32,num_6,2.91660414916,,,2017_Aug_24_1414,60.0116836023,FEMA4ImagesEEG,001,201267,
AFNE01.JPG,AFNE01.JPG,AFNE01.JPG,AFNE01.JPG,AFNE01.JPG,AFNE01.JPG,,,,,,,,,,,,,,,,,,,,,3,3,33,7,,,AMSA04.jpg,AMSA12.jpg,AMNE03.jpg,AMNE16.jpg,AMNE03.jpg,MN,1,num_2,32,num_6,1.08340419002,,,2017_Aug_24_1414,60.0116836023,FEMA4ImagesEEG,001,201267,
AFNE01.JPG,AFNE01.JPG,AFNE01.JPG,AFNE01.JPG,AFNE01.JPG,AFNE01.JPG,,,,,,,,,,,,,,,,,,,,,3,4,34,6,,,AMSA01.jpg,AMNE04.jpg,AMNE16.jpg,AMSA16.jpg,AMSA16.jpg,MS,2,num_4,16,num_4,0.683436969761,,,2017_Aug_24_1414,60.0116836023,FEMA4ImagesEEG,001,201267,
AFNE01.JPG,AFNE01.JPG,AFNE01.JPG,AFNE01.JPG,AFNE01.JPG,AFNE01.JPG,,,,,,,,,,,,,,,,,,,,,3,5,35,5,,,AMNE11.jpg,AMSA02.jpg,AMNE13.jpg,AMSA03.jpg,AMSA03.jpg,MS,2,num_4,16,num_4,0.850124110235,,,2017_Aug_24_1414,60.0116836023,FEMA4ImagesEEG,001,201267,
AFNE01.JPG,AFNE01.JPG,AFNE01.JPG,AFNE01.JPG,AFNE01.JPG,AFNE01.JPG,,,,,,,,,,,,,,,,,,,,,3,6,36,0,,,AMNE06.jpg,AMNE01.jpg,AMSA14.jpg,AMSA08.jpg,AMNE06.jpg,MN,1,num_8,32,num_6,1.23344750598,,,2017_Aug_24_1414,60.0116836023,FEMA4ImagesEEG,001,201267,
AFNE01.JPG,AFNE01.JPG,AFNE01.JPG,AFNE01.JPG,AFNE01.JPG,AFNE01.JPG,,,,,,,,,,,,,,,,,,,,,3,7,37,9,,,AMNE12.jpg,AMSA14.jpg,AMNE10.jpg,AMSA07.jpg,AMNE10.jpg,MN,1,num_2,32,num_8,0.500114022987,,,2017_Aug_24_1414,60.0116836023,FEMA4ImagesEEG,001,201267,
AFNE01.JPG,AFNE01.JPG,AFNE01.JPG,AFNE01.JPG,AFNE01.JPG,AFNE01.JPG,,,,,,,,,,,,,,,,,,,,,3,8,38,3,,,AMSA06.jpg,AMSA01.jpg,AMNE11.jpg,AMNE16.jpg,AMNE16.jpg,MN,1,num_4,32,num_6,1.11689550907,,,2017_Aug_24_1414,60.0116836023,FEMA4ImagesEEG,001,201267,
