IPosition2,IPosition3,IPosition1,IPosition6,IPosition4,IPosition5,TrialsF1.thisRepN,TrialsF1.thisTrialN,TrialsF1.thisN,TrialsF1.thisIndex,TrialsM1.thisRepN,TrialsM1.thisTrialN,TrialsM1.thisN,TrialsM1.thisIndex,TrialsF2.thisRepN,TrialsF2.thisTrialN,TrialsF2.thisN,TrialsF2.thisIndex,TrialsM2.thisRepN,TrialsM2.thisTrialN,TrialsM2.thisN,TrialsM2.thisIndex,TrialsF3.thisRepN,TrialsF3.thisTrialN,TrialsF3.thisN,TrialsF3.thisIndex,TrialsM3.thisRepN,TrialsM3.thisTrialN,TrialsM3.thisN,TrialsM3.thisIndex,InstrKey_resp.keys,InstrKey_resp.rt,Image0 _Position,Image1 _Position,Image2 _Position,Image3 _Position,Center_image,condition,code,correct_answer,accuracy,Key_Resp.keys,Key_Resp.rt,BreakKey_resp.keys,BreakKey_resp.rt,date,frameRate,expName,session,participant,
,,,,,,,,,,,,,,,,,,,,,,,,,,,,,,space,18.4157758388,,,,,,,,,,,,,,2017_Aug_17_1416,59.9997883088,FEMA4ImagesEEG,001,201245,
AFSA21.JPG,AFNE22.JPG,AFNE21.JPG,AFSA23.JPG,AFSA22.JPG,AFNE23.JPG,0,0,0,0,,,,,,,,,,,,,,,,,,,,,,,AFNE15.jpg,AFSA03.jpg,AFSA18.jpg,AFNE07.jpg,AFSA18.jpg,FS,4,num_2,16,num_2,0.700140131172,,,2017_Aug_17_1416,59.9997883088,FEMA4ImagesEEG,001,201245,
AMNE23.JPG,AMNE24.JPG,AMNE22.JPG,AMSA24.JPG,AMSA22.JPG,AMSA23.JPG,0,1,1,9,,,,,,,,,,,,,,,,,,,,,,,AFNE07.jpg,AFSA04.jpg,AFSA17.jpg,AFNE05.jpg,AFNE07.jpg,FN,3,num_8,32,num_4,1.01680227008,,,2017_Aug_17_1416,59.9997883088,FEMA4ImagesEEG,001,201245,
AMSA21.JPG,AMNE23.JPG,AMNE21.JPG,AMSA25.JPG,AMNE25.JPG,AMSA23.JPG,0,2,2,5,,,,,,,,,,,,,,,,,,,,,,,AFNE07.jpg,AFSA15.jpg,AFSA13.jpg,AFNE15.jpg,AFSA15.jpg,FS,4,num_6,32,num_4,0.866859024914,,,2017_Aug_17_1416,59.9997883088,FEMA4ImagesEEG,001,201245,
AFSA21.JPG,AFNE23.JPG,AFNE21.JPG,AFSA25.JPG,AFNE25.JPG,AFSA23.JPG,0,3,3,4,,,,,,,,,,,,,,,,,,,,,,,AFSA07.jpg,AFSA02.jpg,AFNE01.jpg,AFNE08.jpg,AFNE01.jpg,FN,3,num_2,32,num_8,1.05010178674,,,2017_Aug_17_1416,59.9997883088,FEMA4ImagesEEG,001,201245,
AFNE22.JPG,AFSA24.JPG,AFSA22.JPG,AFNE25.JPG,AFNE24.JPG,AFSA25.JPG,0,4,4,6,,,,,,,,,,,,,,,,,,,,,,,AFSA13.jpg,AFSA03.jpg,AFNE04.jpg,AFNE05.jpg,AFSA13.jpg,FS,4,num_8,32,num_6,1.08353665558,,,2017_Aug_17_1416,59.9997883088,FEMA4ImagesEEG,001,201245,
AFSA25.JPG,AFNE24.JPG,AFSA24.JPG,AFNE21.JPG,AFSA21.JPG,AFNE25.JPG,0,5,5,2,,,,,,,,,,,,,,,,,,,,,,,AFSA05.jpg,AFNE13.jpg,AFSA11.jpg,AFNE10.jpg,AFNE10.jpg,FN,3,num_4,16,num_4,0.716766315163,,,2017_Aug_17_1416,59.9997883088,FEMA4ImagesEEG,001,201245,
AMSA21.JPG,AMNE22.JPG,AMNE21.JPG,AMSA23.JPG,AMSA22.JPG,AMNE23.JPG,0,6,6,1,,,,,,,,,,,,,,,,,,,,,,,AFNE14.jpg,AFSA19.jpg,AFSA02.jpg,AFNE16.jpg,AFSA19.jpg,FS,4,num_6,32,num_8,1.25005829445,,,2017_Aug_17_1416,59.9997883088,FEMA4ImagesEEG,001,201245,
AMSA25.JPG,AMNE24.JPG,AMSA24.JPG,AMNE26.JPG,AMSA21.JPG,AMNE25.JPG,0,7,7,3,,,,,,,,,,,,,,,,,,,,,,,AFNE04.jpg,AFSA15.jpg,AFNE20.jpg,AFSA16.jpg,AFNE04.jpg,FN,3,num_8,16,num_8,1.20010821754,,,2017_Aug_17_1416,59.9997883088,FEMA4ImagesEEG,001,201245,
AMNE22.JPG,AMSA24.JPG,AMSA22.JPG,AMNE25.JPG,AMNE24.JPG,AMSA25.JPG,0,8,8,7,,,,,,,,,,,,,,,,,,,,,,,AFNE09.jpg,AFNE02.jpg,AFSA15.jpg,AFSA11.jpg,AFSA15.jpg,FS,4,num_2,32,num_4,1.21673953335,,,2017_Aug_17_1416,59.9997883088,FEMA4ImagesEEG,001,201245,
AFNE23.JPG,AFNE24.JPG,AFNE22.JPG,AFSA24.JPG,AFSA22.JPG,AFSA23.JPG,0,9,9,8,,,,,,,,,,,,,,,,,,,,,,,AFSA07.jpg,AFNE14.jpg,AFSA15.jpg,AFNE20.jpg,AFSA07.jpg,FS,4,num_8,32,num_2,1.46654861304,,,2017_Aug_17_1416,59.9997883088,FEMA4ImagesEEG,001,201245,
AFSA21.JPG,AFNE23.JPG,AFNE21.JPG,AFSA25.JPG,AFNE25.JPG,AFSA23.JPG,,,,,0,0,0,4,,,,,,,,,,,,,,,,,,,AMNE06.jpg,AMNE04.jpg,AMSA16.jpg,AMSA10.jpg,AMSA10.jpg,MS,2,num_4,16,num_4,0.78350454953,,,2017_Aug_17_1416,59.9997883088,FEMA4ImagesEEG,001,201245,
AFSA25.JPG,AFNE24.JPG,AFSA24.JPG,AFNE21.JPG,AFSA21.JPG,AFNE25.JPG,,,,,0,1,1,2,,,,,,,,,,,,,,,,,,,AMNE08.jpg,AMNE04.jpg,AMSA07.jpg,AMSA02.jpg,AMNE04.jpg,MN,1,num_6,16,num_6,0.966904153,,,2017_Aug_17_1416,59.9997883088,FEMA4ImagesEEG,001,201245,
AMSA25.JPG,AMNE24.JPG,AMSA24.JPG,AMNE26.JPG,AMSA21.JPG,AMNE25.JPG,,,,,0,2,2,3,,,,,,,,,,,,,,,,,,,AMNE17.jpg,AMSA02.jpg,AMNE01.jpg,AMSA04.jpg,AMSA02.jpg,MS,2,num_6,48,None,,,,2017_Aug_17_1416,59.9997883088,FEMA4ImagesEEG,001,201245,
AMNE22.JPG,AMSA24.JPG,AMSA22.JPG,AMNE25.JPG,AMNE24.JPG,AMSA25.JPG,,,,,0,3,3,7,,,,,,,,,,,,,,,,,,,AMSA05.jpg,AMNE09.jpg,AMNE08.jpg,AMSA03.jpg,AMNE08.jpg,MN,1,num_2,32,num_8,0.766771559254,,,2017_Aug_17_1416,59.9997883088,FEMA4ImagesEEG,001,201245,
AMNE23.JPG,AMNE24.JPG,AMNE22.JPG,AMSA24.JPG,AMSA22.JPG,AMSA23.JPG,,,,,0,4,4,9,,,,,,,,,,,,,,,,,,,AMNE14.jpg,AMSA13.jpg,AMNE15.jpg,AMSA09.jpg,AMSA13.jpg,MS,2,num_6,16,num_6,0.900253801316,,,2017_Aug_17_1416,59.9997883088,FEMA4ImagesEEG,001,201245,
AMSA21.JPG,AMNE23.JPG,AMNE21.JPG,AMSA25.JPG,AMNE25.JPG,AMSA23.JPG,,,,,0,5,5,5,,,,,,,,,,,,,,,,,,,AMSA15.jpg,AMNE12.jpg,AMSA10.jpg,AMNE13.jpg,AMSA10.jpg,MS,2,num_2,16,num_2,1.26660718018,,,2017_Aug_17_1416,59.9997883088,FEMA4ImagesEEG,001,201245,
AFNE23.JPG,AFNE24.JPG,AFNE22.JPG,AFSA24.JPG,AFSA22.JPG,AFSA23.JPG,,,,,0,6,6,8,,,,,,,,,,,,,,,,,,,AMSA04.jpg,AMNE20.jpg,AMSA14.jpg,AMNE01.jpg,AMSA04.jpg,MS,2,num_8,32,num_4,0.750130621251,,,2017_Aug_17_1416,59.9997883088,FEMA4ImagesEEG,001,201245,
AMSA21.JPG,AMNE22.JPG,AMNE21.JPG,AMSA23.JPG,AMSA22.JPG,AMNE23.JPG,,,,,0,7,7,1,,,,,,,,,,,,,,,,,,,AMNE12.jpg,AMNE04.jpg,AMSA15.jpg,AMSA16.jpg,AMSA15.jpg,MS,2,num_2,16,num_2,0.900227179925,,,2017_Aug_17_1416,59.9997883088,FEMA4ImagesEEG,001,201245,
AFSA21.JPG,AFNE22.JPG,AFNE21.JPG,AFSA23.JPG,AFSA22.JPG,AFNE23.JPG,,,,,0,8,8,0,,,,,,,,,,,,,,,,,,,AMSA14.jpg,AMNE02.jpg,AMSA08.jpg,AMNE18.jpg,AMSA08.jpg,MS,2,num_2,32,num_4,0.750167506281,,,2017_Aug_17_1416,59.9997883088,FEMA4ImagesEEG,001,201245,
AFNE22.JPG,AFSA24.JPG,AFSA22.JPG,AFNE25.JPG,AFNE24.JPG,AFSA25.JPG,,,,,0,9,9,6,,,,,,,,,,,,,,,,,,,AMSA19.jpg,AMNE05.jpg,AMSA01.jpg,AMNE13.jpg,AMSA19.jpg,MS,2,num_8,16,num_8,0.716770805477,,,2017_Aug_17_1416,59.9997883088,FEMA4ImagesEEG,001,201245,
AMSA21.JPG,AMNE23.JPG,AMNE21.JPG,AMSA25.JPG,AMNE25.JPG,AMSA23.JPG,,,,,,,,,0,0,0,5,,,,,,,,,,,,,,,AFSA03.jpg,AFNE06.jpg,AFNE14.jpg,AFSA10.jpg,AFNE14.jpg,FN,3,num_2,32,num_6,1.0835777102,,,2017_Aug_17_1416,59.9997883088,FEMA4ImagesEEG,001,201245,
AFNE23.JPG,AFNE24.JPG,AFNE22.JPG,AFSA24.JPG,AFSA22.JPG,AFSA23.JPG,,,,,,,,,0,1,1,8,,,,,,,,,,,,,,,AFNE17.jpg,AFNE10.jpg,AFSA08.jpg,AFSA02.jpg,AFNE17.jpg,FN,3,num_8,32,num_4,0.850156504952,,,2017_Aug_17_1416,59.9997883088,FEMA4ImagesEEG,001,201245,
AMNE22.JPG,AMSA24.JPG,AMSA22.JPG,AMNE25.JPG,AMNE24.JPG,AMSA25.JPG,,,,,,,,,0,2,2,7,,,,,,,,,,,,,,,AFSA18.jpg,AFNE10.jpg,AFNE12.jpg,AFSA08.jpg,AFSA18.jpg,FS,4,num_8,16,num_8,0.933448436146,,,2017_Aug_17_1416,59.9997883088,FEMA4ImagesEEG,001,201245,
AMSA21.JPG,AMNE22.JPG,AMNE21.JPG,AMSA23.JPG,AMSA22.JPG,AMNE23.JPG,,,,,,,,,0,3,3,1,,,,,,,,,,,,,,,AFSA15.jpg,AFNE18.jpg,AFSA16.jpg,AFNE15.jpg,AFNE18.jpg,FN,3,num_6,32,num_2,1.16687637696,,,2017_Aug_17_1416,59.9997883088,FEMA4ImagesEEG,001,201245,
AFNE22.JPG,AFSA24.JPG,AFSA22.JPG,AFNE25.JPG,AFNE24.JPG,AFSA25.JPG,,,,,,,,,0,4,4,6,,,,,,,,,,,,,,,AFNE15.jpg,AFSA03.jpg,AFSA13.jpg,AFNE20.jpg,AFSA03.jpg,FS,4,num_6,32,num_4,1.00006126129,,,2017_Aug_17_1416,59.9997883088,FEMA4ImagesEEG,001,201245,
AFSA21.JPG,AFNE22.JPG,AFNE21.JPG,AFSA23.JPG,AFSA22.JPG,AFNE23.JPG,,,,,,,,,0,5,5,0,,,,,,,,,,,,,,,AFSA20.jpg,AFNE16.jpg,AFSA03.jpg,AFNE14.jpg,AFSA20.jpg,FS,4,num_8,32,num_4,0.716776578862,,,2017_Aug_17_1416,59.9997883088,FEMA4ImagesEEG,001,201245,
AFSA25.JPG,AFNE24.JPG,AFSA24.JPG,AFNE21.JPG,AFSA21.JPG,AFNE25.JPG,,,,,,,,,0,6,6,2,,,,,,,,,,,,,,,AFNE08.jpg,AFSA17.jpg,AFSA09.jpg,AFNE16.jpg,AFSA17.jpg,FS,4,num_6,32,num_4,0.983428662526,,,2017_Aug_17_1416,59.9997883088,FEMA4ImagesEEG,001,201245,
AMNE23.JPG,AMNE24.JPG,AMNE22.JPG,AMSA24.JPG,AMSA22.JPG,AMSA23.JPG,,,,,,,,,0,7,7,9,,,,,,,,,,,,,,,AFSA07.jpg,AFNE01.jpg,AFNE06.jpg,AFSA01.jpg,AFSA07.jpg,FS,4,num_8,16,num_8,0.650093832402,,,2017_Aug_17_1416,59.9997883088,FEMA4ImagesEEG,001,201245,
AMSA25.JPG,AMNE24.JPG,AMSA24.JPG,AMNE26.JPG,AMSA21.JPG,AMNE25.JPG,,,,,,,,,0,8,8,3,,,,,,,,,,,,,,,AFNE01.jpg,AFSA14.jpg,AFNE14.jpg,AFSA16.jpg,AFSA14.jpg,FS,4,num_6,16,num_6,0.983417436655,,,2017_Aug_17_1416,59.9997883088,FEMA4ImagesEEG,001,201245,
AFSA21.JPG,AFNE23.JPG,AFNE21.JPG,AFSA25.JPG,AFNE25.JPG,AFSA23.JPG,,,,,,,,,0,9,9,4,,,,,,,,,,,,,,,AFSA11.jpg,AFNE11.jpg,AFSA05.jpg,AFNE06.jpg,AFSA11.jpg,FS,4,num_8,16,num_8,0.850138864247,,,2017_Aug_17_1416,59.9997883088,FEMA4ImagesEEG,001,201245,
AFNE23.JPG,AFNE24.JPG,AFNE22.JPG,AFSA24.JPG,AFSA22.JPG,AFSA23.JPG,,,,,,,,,,,,,0,0,0,8,,,,,,,,,,,AMSA06.jpg,AMNE14.jpg,AMSA13.jpg,AMNE13.jpg,AMSA13.jpg,MS,2,num_2,16,num_2,1.26674766414,,,2017_Aug_17_1416,59.9997883088,FEMA4ImagesEEG,001,201245,
AMSA21.JPG,AMNE23.JPG,AMNE21.JPG,AMSA25.JPG,AMNE25.JPG,AMSA23.JPG,,,,,,,,,,,,,0,1,1,5,,,,,,,,,,,AMNE17.jpg,AMNE06.jpg,AMSA12.jpg,AMSA14.jpg,AMNE17.jpg,MN,1,num_8,16,num_8,0.866738747573,,,2017_Aug_17_1416,59.9997883088,FEMA4ImagesEEG,001,201245,
AMSA21.JPG,AMNE22.JPG,AMNE21.JPG,AMSA23.JPG,AMSA22.JPG,AMNE23.JPG,,,,,,,,,,,,,0,2,2,1,,,,,,,,,,,AMNE05.jpg,AMSA14.jpg,AMSA19.jpg,AMNE10.jpg,AMNE05.jpg,MN,1,num_8,16,num_8,0.68346936442,,,2017_Aug_17_1416,59.9997883088,FEMA4ImagesEEG,001,201245,
AFSA25.JPG,AFNE24.JPG,AFSA24.JPG,AFNE21.JPG,AFSA21.JPG,AFNE25.JPG,,,,,,,,,,,,,0,3,3,2,,,,,,,,,,,AMNE19.jpg,AMSA11.jpg,AMNE09.jpg,AMSA13.jpg,AMNE09.jpg,MN,1,num_2,16,num_2,1.3999207131,,,2017_Aug_17_1416,59.9997883088,FEMA4ImagesEEG,001,201245,
AFNE22.JPG,AFSA24.JPG,AFSA22.JPG,AFNE25.JPG,AFNE24.JPG,AFSA25.JPG,,,,,,,,,,,,,0,4,4,6,,,,,,,,,,,AMNE18.jpg,AMSA03.jpg,AMNE03.jpg,AMSA02.jpg,AMSA03.jpg,MS,2,num_6,16,num_6,0.850246632763,,,2017_Aug_17_1416,59.9997883088,FEMA4ImagesEEG,001,201245,
AFSA21.JPG,AFNE22.JPG,AFNE21.JPG,AFSA23.JPG,AFSA22.JPG,AFNE23.JPG,,,,,,,,,,,,,0,5,5,0,,,,,,,,,,,AMSA01.jpg,AMNE09.jpg,AMSA13.jpg,AMNE04.jpg,AMSA13.jpg,MS,2,num_2,16,num_2,0.716824689764,,,2017_Aug_17_1416,59.9997883088,FEMA4ImagesEEG,001,201245,
AMNE22.JPG,AMSA24.JPG,AMSA22.JPG,AMNE25.JPG,AMNE24.JPG,AMSA25.JPG,,,,,,,,,,,,,0,6,6,7,,,,,,,,,,,AMSA13.jpg,AMSA20.jpg,AMNE07.jpg,AMNE11.jpg,AMNE11.jpg,MN,1,num_4,32,num_8,0.78348049405,,,2017_Aug_17_1416,59.9997883088,FEMA4ImagesEEG,001,201245,
AFSA21.JPG,AFNE23.JPG,AFNE21.JPG,AFSA25.JPG,AFNE25.JPG,AFSA23.JPG,,,,,,,,,,,,,0,7,7,4,,,,,,,,,,,AMNE06.jpg,AMSA08.jpg,AMNE08.jpg,AMSA12.jpg,AMSA08.jpg,MS,2,num_6,32,num_2,1.05010403192,,,2017_Aug_17_1416,59.9997883088,FEMA4ImagesEEG,001,201245,
AMNE23.JPG,AMNE24.JPG,AMNE22.JPG,AMSA24.JPG,AMSA22.JPG,AMSA23.JPG,,,,,,,,,,,,,0,8,8,9,,,,,,,,,,,AMNE04.jpg,AMSA06.jpg,AMNE07.jpg,AMSA05.jpg,AMSA06.jpg,MS,2,num_6,32,num_2,1.06644507829,,,2017_Aug_17_1416,59.9997883088,FEMA4ImagesEEG,001,201245,
AMSA25.JPG,AMNE24.JPG,AMSA24.JPG,AMNE26.JPG,AMSA21.JPG,AMNE25.JPG,,,,,,,,,,,,,0,9,9,3,,,,,,,,,,,AMSA02.jpg,AMNE16.jpg,AMSA16.jpg,AMNE01.jpg,AMSA16.jpg,MS,2,num_2,16,num_2,1.00022259337,,,2017_Aug_17_1416,59.9997883088,FEMA4ImagesEEG,001,201245,
AMSA21.JPG,AMNE23.JPG,AMNE21.JPG,AMSA25.JPG,AMNE25.JPG,AMSA23.JPG,,,,,,,,,,,,,,,,,0,0,0,5,,,,,,,AFNE01.jpg,AFSA19.jpg,AFSA07.jpg,AFNE15.jpg,AFNE01.jpg,FN,3,num_8,32,num_2,1.15004748548,,,2017_Aug_17_1416,59.9997883088,FEMA4ImagesEEG,001,201245,
AFSA21.JPG,AFNE23.JPG,AFNE21.JPG,AFSA25.JPG,AFNE25.JPG,AFSA23.JPG,,,,,,,,,,,,,,,,,0,1,1,4,,,,,,,AFSA04.jpg,AFNE12.jpg,AFSA16.jpg,AFNE07.jpg,AFSA16.jpg,FS,4,num_2,32,num_8,0.733749803156,,,2017_Aug_17_1416,59.9997883088,FEMA4ImagesEEG,001,201245,
AFSA25.JPG,AFNE24.JPG,AFSA24.JPG,AFNE21.JPG,AFSA21.JPG,AFNE25.JPG,,,,,,,,,,,,,,,,,0,2,2,2,,,,,,,AFSA08.jpg,AFNE16.jpg,AFSA10.jpg,AFNE03.jpg,AFNE03.jpg,FN,3,num_4,32,num_6,0.883455700881,,,2017_Aug_17_1416,59.9997883088,FEMA4ImagesEEG,001,201245,
AFSA21.JPG,AFNE22.JPG,AFNE21.JPG,AFSA23.JPG,AFSA22.JPG,AFNE23.JPG,,,,,,,,,,,,,,,,,0,3,3,0,,,,,,,AFNE05.jpg,AFNE06.jpg,AFSA03.jpg,AFSA10.jpg,AFSA10.jpg,FS,4,num_4,32,num_6,0.916632374225,,,2017_Aug_17_1416,59.9997883088,FEMA4ImagesEEG,001,201245,
AMNE23.JPG,AMNE24.JPG,AMNE22.JPG,AMSA24.JPG,AMSA22.JPG,AMSA23.JPG,,,,,,,,,,,,,,,,,0,4,4,9,,,,,,,AFNE05.jpg,AFNE03.jpg,AFSA11.jpg,AFSA15.jpg,AFNE05.jpg,FN,3,num_8,32,num_4,1.01673780137,,,2017_Aug_17_1416,59.9997883088,FEMA4ImagesEEG,001,201245,
AMSA25.JPG,AMNE24.JPG,AMSA24.JPG,AMNE26.JPG,AMSA21.JPG,AMNE25.JPG,,,,,,,,,,,,,,,,,0,5,5,3,,,,,,,AFSA20.jpg,AFSA08.jpg,AFNE17.jpg,AFNE20.jpg,AFSA20.jpg,FS,4,num_8,16,num_8,1.03346309392,,,2017_Aug_17_1416,59.9997883088,FEMA4ImagesEEG,001,201245,
AFNE23.JPG,AFNE24.JPG,AFNE22.JPG,AFSA24.JPG,AFSA22.JPG,AFSA23.JPG,,,,,,,,,,,,,,,,,0,6,6,8,,,,,,,AFSA07.jpg,AFNE06.jpg,AFSA16.jpg,AFNE02.jpg,AFNE06.jpg,FN,3,num_6,16,num_6,0.750097264303,,,2017_Aug_17_1416,59.9997883088,FEMA4ImagesEEG,001,201245,
AMNE22.JPG,AMSA24.JPG,AMSA22.JPG,AMNE25.JPG,AMNE24.JPG,AMSA25.JPG,,,,,,,,,,,,,,,,,0,7,7,7,,,,,,,AFNE17.jpg,AFSA19.jpg,AFSA13.jpg,AFNE11.jpg,AFSA19.jpg,FS,4,num_6,32,num_2,1.08346962102,,,2017_Aug_17_1416,59.9997883088,FEMA4ImagesEEG,001,201245,
AMSA21.JPG,AMNE22.JPG,AMNE21.JPG,AMSA23.JPG,AMSA22.JPG,AMNE23.JPG,,,,,,,,,,,,,,,,,0,8,8,1,,,,,,,AFSA17.jpg,AFNE02.jpg,AFSA02.jpg,AFNE10.jpg,AFNE02.jpg,FN,3,num_6,32,num_4,1.11670242378,,,2017_Aug_17_1416,59.9997883088,FEMA4ImagesEEG,001,201245,
AFNE22.JPG,AFSA24.JPG,AFSA22.JPG,AFNE25.JPG,AFNE24.JPG,AFSA25.JPG,,,,,,,,,,,,,,,,,0,9,9,6,,,,,,,AFNE10.jpg,AFNE07.jpg,AFSA06.jpg,AFSA11.jpg,AFSA06.jpg,FS,4,num_2,32,num_4,0.899827859015,,,2017_Aug_17_1416,59.9997883088,FEMA4ImagesEEG,001,201245,
AFSA21.JPG,AFNE23.JPG,AFNE21.JPG,AFSA25.JPG,AFNE25.JPG,AFSA23.JPG,,,,,,,,,,,,,,,,,,,,,0,0,0,4,,,AMSA15.jpg,AMNE06.jpg,AMNE10.jpg,AMSA02.jpg,AMNE06.jpg,MN,1,num_6,16,num_6,0.550158718019,,,2017_Aug_17_1416,59.9997883088,FEMA4ImagesEEG,001,201245,
AFNE22.JPG,AFSA24.JPG,AFSA22.JPG,AFNE25.JPG,AFNE24.JPG,AFSA25.JPG,,,,,,,,,,,,,,,,,,,,,0,1,1,6,,,AMSA20.jpg,AMSA12.jpg,AMNE10.jpg,AMNE09.jpg,AMSA12.jpg,MS,2,num_6,16,num_6,0.866806423641,,,2017_Aug_17_1416,59.9997883088,FEMA4ImagesEEG,001,201245,
AMSA21.JPG,AMNE23.JPG,AMNE21.JPG,AMSA25.JPG,AMNE25.JPG,AMSA23.JPG,,,,,,,,,,,,,,,,,,,,,0,2,2,5,,,AMSA19.jpg,AMSA01.jpg,AMNE02.jpg,AMNE05.jpg,AMSA19.jpg,MS,2,num_8,32,num_6,1.5333705605,,,2017_Aug_17_1416,59.9997883088,FEMA4ImagesEEG,001,201245,
AMNE22.JPG,AMSA24.JPG,AMSA22.JPG,AMNE25.JPG,AMNE24.JPG,AMSA25.JPG,,,,,,,,,,,,,,,,,,,,,0,3,3,7,,,AMNE15.jpg,AMNE07.jpg,AMSA18.jpg,AMSA10.jpg,AMNE07.jpg,MN,1,num_6,32,num_8,1.00012123963,,,2017_Aug_17_1416,59.9997883088,FEMA4ImagesEEG,001,201245,
AMSA21.JPG,AMNE22.JPG,AMNE21.JPG,AMSA23.JPG,AMSA22.JPG,AMNE23.JPG,,,,,,,,,,,,,,,,,,,,,0,4,4,1,,,AMNE12.jpg,AMSA19.jpg,AMSA07.jpg,AMNE01.jpg,AMSA07.jpg,MS,2,num_2,32,num_6,1.56660689146,,,2017_Aug_17_1416,59.9997883088,FEMA4ImagesEEG,001,201245,
AMSA25.JPG,AMNE24.JPG,AMSA24.JPG,AMNE26.JPG,AMSA21.JPG,AMNE25.JPG,,,,,,,,,,,,,,,,,,,,,0,5,5,3,,,AMSA20.jpg,AMNE14.jpg,AMSA07.jpg,AMNE18.jpg,AMSA20.jpg,MS,2,num_8,16,num_8,0.650111152325,,,2017_Aug_17_1416,59.9997883088,FEMA4ImagesEEG,001,201245,
AFNE23.JPG,AFNE24.JPG,AFNE22.JPG,AFSA24.JPG,AFSA22.JPG,AFSA23.JPG,,,,,,,,,,,,,,,,,,,,,0,6,6,8,,,AMSA15.jpg,AMNE17.jpg,AMSA02.jpg,AMNE09.jpg,AMNE09.jpg,MN,1,num_4,16,num_4,0.750147941231,,,2017_Aug_17_1416,59.9997883088,FEMA4ImagesEEG,001,201245,
AFSA21.JPG,AFNE22.JPG,AFNE21.JPG,AFSA23.JPG,AFSA22.JPG,AFNE23.JPG,,,,,,,,,,,,,,,,,,,,,0,7,7,0,,,AMSA02.jpg,AMNE08.jpg,AMSA19.jpg,AMNE11.jpg,AMSA19.jpg,MS,2,num_2,16,num_2,1.91666765563,,,2017_Aug_17_1416,59.9997883088,FEMA4ImagesEEG,001,201245,
AFSA25.JPG,AFNE24.JPG,AFSA24.JPG,AFNE21.JPG,AFSA21.JPG,AFNE25.JPG,,,,,,,,,,,,,,,,,,,,,0,8,8,2,,,AMNE20.jpg,AMSA03.jpg,AMNE19.jpg,AMSA06.jpg,AMNE19.jpg,MN,1,num_2,32,num_4,0.933473133075,,,2017_Aug_17_1416,59.9997883088,FEMA4ImagesEEG,001,201245,
AMNE23.JPG,AMNE24.JPG,AMNE22.JPG,AMSA24.JPG,AMSA22.JPG,AMSA23.JPG,,,,,,,,,,,,,,,,,,,,,0,9,9,9,,,AMNE12.jpg,AMNE10.jpg,AMSA15.jpg,AMSA01.jpg,AMSA01.jpg,MS,2,num_4,32,num_2,1.28342131758,,,2017_Aug_17_1416,59.9997883088,FEMA4ImagesEEG,001,201245,
,,,,,,,,,,,,,,,,,,,,,,,,,,,,,,,,,,,,,,,,,,,space,13.9987536055,2017_Aug_17_1416,59.9997883088,FEMA4ImagesEEG,001,201245,
AFNE01.JPG,AFNE01.JPG,AFNE01.JPG,AFNE01.JPG,AFNE01.JPG,AFNE01.JPG,0,0,0,0,,,,,,,,,,,,,,,,,,,,,,,AFNE13.jpg,AFNE19.jpg,AFSA05.jpg,AFSA08.jpg,AFNE13.jpg,FN,3,num_8,32,num_4,0.533496611228,,,2017_Aug_17_1416,59.9997883088,FEMA4ImagesEEG,001,201245,
AFNE01.JPG,AFNE01.JPG,AFNE01.JPG,AFNE01.JPG,AFNE01.JPG,AFNE01.JPG,0,1,1,2,,,,,,,,,,,,,,,,,,,,,,,AFNE11.jpg,AFSA11.jpg,AFSA07.jpg,AFNE14.jpg,AFNE11.jpg,FN,3,num_8,16,num_8,0.766810368747,,,2017_Aug_17_1416,59.9997883088,FEMA4ImagesEEG,001,201245,
AFNE01.JPG,AFNE01.JPG,AFNE01.JPG,AFNE01.JPG,AFNE01.JPG,AFNE01.JPG,0,2,2,1,,,,,,,,,,,,,,,,,,,,,,,AFNE05.jpg,AFSA16.jpg,AFSA18.jpg,AFNE09.jpg,AFSA16.jpg,FS,4,num_6,16,num_6,0.86675735045,,,2017_Aug_17_1416,59.9997883088,FEMA4ImagesEEG,001,201245,
AFNE01.JPG,AFNE01.JPG,AFNE01.JPG,AFNE01.JPG,AFNE01.JPG,AFNE01.JPG,0,3,3,4,,,,,,,,,,,,,,,,,,,,,,,AFNE14.jpg,AFSA04.jpg,AFNE18.jpg,AFSA12.jpg,AFSA12.jpg,FS,4,num_4,16,num_4,0.683500155399,,,2017_Aug_17_1416,59.9997883088,FEMA4ImagesEEG,001,201245,
AFNE01.JPG,AFNE01.JPG,AFNE01.JPG,AFNE01.JPG,AFNE01.JPG,AFNE01.JPG,0,4,4,3,,,,,,,,,,,,,,,,,,,,,,,AFSA02.jpg,AFSA14.jpg,AFNE16.jpg,AFNE15.jpg,AFSA14.jpg,FS,4,num_6,16,num_6,0.866765689687,,,2017_Aug_17_1416,59.9997883088,FEMA4ImagesEEG,001,201245,
AFNE01.JPG,AFNE01.JPG,AFNE01.JPG,AFNE01.JPG,AFNE01.JPG,AFNE01.JPG,0,5,5,9,,,,,,,,,,,,,,,,,,,,,,,AFNE08.jpg,AFNE16.jpg,AFSA11.jpg,AFSA08.jpg,AFNE08.jpg,FN,3,num_8,16,num_8,0.966782592644,,,2017_Aug_17_1416,59.9997883088,FEMA4ImagesEEG,001,201245,
AFNE01.JPG,AFNE01.JPG,AFNE01.JPG,AFNE01.JPG,AFNE01.JPG,AFNE01.JPG,0,6,6,7,,,,,,,,,,,,,,,,,,,,,,,AFSA05.jpg,AFNE19.jpg,AFNE11.jpg,AFSA12.jpg,AFNE19.jpg,FN,3,num_6,16,num_6,0.900036019098,,,2017_Aug_17_1416,59.9997883088,FEMA4ImagesEEG,001,201245,
AFNE01.JPG,AFNE01.JPG,AFNE01.JPG,AFNE01.JPG,AFNE01.JPG,AFNE01.JPG,0,7,7,5,,,,,,,,,,,,,,,,,,,,,,,AFSA19.jpg,AFNE11.jpg,AFNE04.jpg,AFSA11.jpg,AFSA19.jpg,FS,4,num_8,16,num_8,0.616767373635,,,2017_Aug_17_1416,59.9997883088,FEMA4ImagesEEG,001,201245,
AFNE01.JPG,AFNE01.JPG,AFNE01.JPG,AFNE01.JPG,AFNE01.JPG,AFNE01.JPG,0,8,8,8,,,,,,,,,,,,,,,,,,,,,,,AFSA18.jpg,AFNE16.jpg,AFSA03.jpg,AFNE09.jpg,AFNE16.jpg,FN,3,num_6,32,num_8,0.650130717491,,,2017_Aug_17_1416,59.9997883088,FEMA4ImagesEEG,001,201245,
AFNE01.JPG,AFNE01.JPG,AFNE01.JPG,AFNE01.JPG,AFNE01.JPG,AFNE01.JPG,0,9,9,6,,,,,,,,,,,,,,,,,,,,,,,AFSA02.jpg,AFSA07.jpg,AFNE11.jpg,AFNE03.jpg,AFNE03.jpg,FN,3,num_4,32,num_2,1.283424525,,,2017_Aug_17_1416,59.9997883088,FEMA4ImagesEEG,001,201245,
AFNE01.JPG,AFNE01.JPG,AFNE01.JPG,AFNE01.JPG,AFNE01.JPG,AFNE01.JPG,1,0,10,6,,,,,,,,,,,,,,,,,,,,,,,AFSA15.jpg,AFNE08.jpg,AFNE05.jpg,AFSA18.jpg,AFNE05.jpg,FN,3,num_2,32,num_8,1.1834073012,,,2017_Aug_17_1416,59.9997883088,FEMA4ImagesEEG,001,201245,
AFNE01.JPG,AFNE01.JPG,AFNE01.JPG,AFNE01.JPG,AFNE01.JPG,AFNE01.JPG,1,1,11,2,,,,,,,,,,,,,,,,,,,,,,,AFNE01.jpg,AFSA07.jpg,AFSA03.jpg,AFNE16.jpg,AFSA03.jpg,FS,4,num_2,16,num_2,0.916810063994,,,2017_Aug_17_1416,59.9997883088,FEMA4ImagesEEG,001,201245,
AFNE01.JPG,AFNE01.JPG,AFNE01.JPG,AFNE01.JPG,AFNE01.JPG,AFNE01.JPG,1,2,12,7,,,,,,,,,,,,,,,,,,,,,,,AFSA13.jpg,AFNE20.jpg,AFSA06.jpg,AFNE16.jpg,AFSA13.jpg,FS,4,num_8,16,num_8,0.850141750881,,,2017_Aug_17_1416,59.9997883088,FEMA4ImagesEEG,001,201245,
AFNE01.JPG,AFNE01.JPG,AFNE01.JPG,AFNE01.JPG,AFNE01.JPG,AFNE01.JPG,1,3,13,4,,,,,,,,,,,,,,,,,,,,,,,AFSA07.jpg,AFNE05.jpg,AFNE02.jpg,AFSA12.jpg,AFSA07.jpg,FS,4,num_8,32,num_4,0.800123997964,,,2017_Aug_17_1416,59.9997883088,FEMA4ImagesEEG,001,201245,
AFNE01.JPG,AFNE01.JPG,AFNE01.JPG,AFNE01.JPG,AFNE01.JPG,AFNE01.JPG,1,4,14,9,,,,,,,,,,,,,,,,,,,,,,,AFSA12.jpg,AFSA20.jpg,AFNE07.jpg,AFNE08.jpg,AFSA12.jpg,FS,4,num_8,16,num_8,0.500140644377,,,2017_Aug_17_1416,59.9997883088,FEMA4ImagesEEG,001,201245,
AFNE01.JPG,AFNE01.JPG,AFNE01.JPG,AFNE01.JPG,AFNE01.JPG,AFNE01.JPG,1,5,15,1,,,,,,,,,,,,,,,,,,,,,,,AFNE07.jpg,AFNE03.jpg,AFSA02.jpg,AFSA14.jpg,AFSA14.jpg,FS,4,num_4,32,num_2,1.41690323892,,,2017_Aug_17_1416,59.9997883088,FEMA4ImagesEEG,001,201245,
AFNE01.JPG,AFNE01.JPG,AFNE01.JPG,AFNE01.JPG,AFNE01.JPG,AFNE01.JPG,1,6,16,0,,,,,,,,,,,,,,,,,,,,,,,AFNE15.jpg,AFSA12.jpg,AFNE03.jpg,AFSA20.jpg,AFSA20.jpg,FS,4,num_4,32,num_6,0.766785671818,,,2017_Aug_17_1416,59.9997883088,FEMA4ImagesEEG,001,201245,
AFNE01.JPG,AFNE01.JPG,AFNE01.JPG,AFNE01.JPG,AFNE01.JPG,AFNE01.JPG,1,7,17,3,,,,,,,,,,,,,,,,,,,,,,,AFNE16.jpg,AFNE06.jpg,AFSA09.jpg,AFSA07.jpg,AFNE06.jpg,FN,3,num_6,32,num_4,0.816736710898,,,2017_Aug_17_1416,59.9997883088,FEMA4ImagesEEG,001,201245,
AFNE01.JPG,AFNE01.JPG,AFNE01.JPG,AFNE01.JPG,AFNE01.JPG,AFNE01.JPG,1,8,18,8,,,,,,,,,,,,,,,,,,,,,,,AFNE11.jpg,AFNE20.jpg,AFSA19.jpg,AFSA13.jpg,AFSA13.jpg,FS,4,num_4,32,num_2,0.650160225516,,,2017_Aug_17_1416,59.9997883088,FEMA4ImagesEEG,001,201245,
AFNE01.JPG,AFNE01.JPG,AFNE01.JPG,AFNE01.JPG,AFNE01.JPG,AFNE01.JPG,1,9,19,5,,,,,,,,,,,,,,,,,,,,,,,AFNE06.jpg,AFNE02.jpg,AFSA08.jpg,AFSA06.jpg,AFNE02.jpg,FN,3,num_6,16,num_6,0.583458234731,,,2017_Aug_17_1416,59.9997883088,FEMA4ImagesEEG,001,201245,
AFNE01.JPG,AFNE01.JPG,AFNE01.JPG,AFNE01.JPG,AFNE01.JPG,AFNE01.JPG,2,0,20,2,,,,,,,,,,,,,,,,,,,,,,,AFSA13.jpg,AFNE12.jpg,AFNE17.jpg,AFSA08.jpg,AFSA13.jpg,FS,4,num_8,32,num_4,0.883525301411,,,2017_Aug_17_1416,59.9997883088,FEMA4ImagesEEG,001,201245,
AFNE01.JPG,AFNE01.JPG,AFNE01.JPG,AFNE01.JPG,AFNE01.JPG,AFNE01.JPG,2,1,21,4,,,,,,,,,,,,,,,,,,,,,,,AFSA03.jpg,AFNE15.jpg,AFSA19.jpg,AFNE07.jpg,AFNE15.jpg,FN,3,num_6,16,num_6,0.583488384204,,,2017_Aug_17_1416,59.9997883088,FEMA4ImagesEEG,001,201245,
AFNE01.JPG,AFNE01.JPG,AFNE01.JPG,AFNE01.JPG,AFNE01.JPG,AFNE01.JPG,2,2,22,5,,,,,,,,,,,,,,,,,,,,,,,AFSA02.jpg,AFSA08.jpg,AFNE15.jpg,AFNE02.jpg,AFNE02.jpg,FN,3,num_4,32,num_6,1.05012391781,,,2017_Aug_17_1416,59.9997883088,FEMA4ImagesEEG,001,201245,
AFNE01.JPG,AFNE01.JPG,AFNE01.JPG,AFNE01.JPG,AFNE01.JPG,AFNE01.JPG,2,3,23,7,,,,,,,,,,,,,,,,,,,,,,,AFSA09.jpg,AFNE06.jpg,AFNE02.jpg,AFSA12.jpg,AFSA09.jpg,FS,4,num_8,16,num_8,0.583490950172,,,2017_Aug_17_1416,59.9997883088,FEMA4ImagesEEG,001,201245,
AFNE01.JPG,AFNE01.JPG,AFNE01.JPG,AFNE01.JPG,AFNE01.JPG,AFNE01.JPG,2,4,24,0,,,,,,,,,,,,,,,,,,,,,,,AFNE19.jpg,AFNE03.jpg,AFSA10.jpg,AFSA13.jpg,AFNE03.jpg,FN,3,num_6,32,num_8,0.716811218706,,,2017_Aug_17_1416,59.9997883088,FEMA4ImagesEEG,001,201245,
AFNE01.JPG,AFNE01.JPG,AFNE01.JPG,AFNE01.JPG,AFNE01.JPG,AFNE01.JPG,2,5,25,6,,,,,,,,,,,,,,,,,,,,,,,AFSA09.jpg,AFNE06.jpg,AFSA01.jpg,AFNE09.jpg,AFSA01.jpg,FS,4,num_2,16,num_2,1.91666412749,,,2017_Aug_17_1416,59.9997883088,FEMA4ImagesEEG,001,201245,
AFNE01.JPG,AFNE01.JPG,AFNE01.JPG,AFNE01.JPG,AFNE01.JPG,AFNE01.JPG,2,6,26,3,,,,,,,,,,,,,,,,,,,,,,,AFSA07.jpg,AFNE20.jpg,AFNE18.jpg,AFSA03.jpg,AFSA03.jpg,FS,4,num_4,32,num_6,0.933266897453,,,2017_Aug_17_1416,59.9997883088,FEMA4ImagesEEG,001,201245,
AFNE01.JPG,AFNE01.JPG,AFNE01.JPG,AFNE01.JPG,AFNE01.JPG,AFNE01.JPG,2,7,27,9,,,,,,,,,,,,,,,,,,,,,,,AFSA12.jpg,AFNE16.jpg,AFNE10.jpg,AFSA16.jpg,AFSA16.jpg,FS,4,num_4,32,num_8,0.916750406439,,,2017_Aug_17_1416,59.9997883088,FEMA4ImagesEEG,001,201245,
AFNE01.JPG,AFNE01.JPG,AFNE01.JPG,AFNE01.JPG,AFNE01.JPG,AFNE01.JPG,2,8,28,8,,,,,,,,,,,,,,,,,,,,,,,AFSA17.jpg,AFNE20.jpg,AFNE09.jpg,AFSA15.jpg,AFNE20.jpg,FN,3,num_6,16,num_6,0.750127413892,,,2017_Aug_17_1416,59.9997883088,FEMA4ImagesEEG,001,201245,
AFNE01.JPG,AFNE01.JPG,AFNE01.JPG,AFNE01.JPG,AFNE01.JPG,AFNE01.JPG,2,9,29,1,,,,,,,,,,,,,,,,,,,,,,,AFSA10.jpg,AFNE09.jpg,AFNE03.jpg,AFSA03.jpg,AFNE03.jpg,FN,3,num_2,32,num_8,0.683457817766,,,2017_Aug_17_1416,59.9997883088,FEMA4ImagesEEG,001,201245,
AFNE01.JPG,AFNE01.JPG,AFNE01.JPG,AFNE01.JPG,AFNE01.JPG,AFNE01.JPG,3,0,30,6,,,,,,,,,,,,,,,,,,,,,,,AFSA17.jpg,AFNE12.jpg,AFNE03.jpg,AFSA18.jpg,AFSA18.jpg,FS,4,num_4,32,num_6,0.650114359742,,,2017_Aug_17_1416,59.9997883088,FEMA4ImagesEEG,001,201245,
AFNE01.JPG,AFNE01.JPG,AFNE01.JPG,AFNE01.JPG,AFNE01.JPG,AFNE01.JPG,3,1,31,9,,,,,,,,,,,,,,,,,,,,,,,AFSA02.jpg,AFNE03.jpg,AFNE04.jpg,AFSA05.jpg,AFNE04.jpg,FN,3,num_2,32,num_8,0.650120453793,,,2017_Aug_17_1416,59.9997883088,FEMA4ImagesEEG,001,201245,
AFNE01.JPG,AFNE01.JPG,AFNE01.JPG,AFNE01.JPG,AFNE01.JPG,AFNE01.JPG,3,2,32,0,,,,,,,,,,,,,,,,,,,,,,,AFSA19.jpg,AFNE07.jpg,AFNE04.jpg,AFSA16.jpg,AFNE04.jpg,FN,3,num_2,32,num_6,0.900092789961,,,2017_Aug_17_1416,59.9997883088,FEMA4ImagesEEG,001,201245,
AFNE01.JPG,AFNE01.JPG,AFNE01.JPG,AFNE01.JPG,AFNE01.JPG,AFNE01.JPG,3,3,33,7,,,,,,,,,,,,,,,,,,,,,,,AFSA08.jpg,AFSA14.jpg,AFNE08.jpg,AFNE09.jpg,AFSA14.jpg,FS,4,num_6,16,num_6,0.783323652344,,,2017_Aug_17_1416,59.9997883088,FEMA4ImagesEEG,001,201245,
AFNE01.JPG,AFNE01.JPG,AFNE01.JPG,AFNE01.JPG,AFNE01.JPG,AFNE01.JPG,3,4,34,2,,,,,,,,,,,,,,,,,,,,,,,AFSA06.jpg,AFNE11.jpg,AFNE20.jpg,AFSA13.jpg,AFNE11.jpg,FN,3,num_6,16,num_6,0.783473437768,,,2017_Aug_17_1416,59.9997883088,FEMA4ImagesEEG,001,201245,
AFNE01.JPG,AFNE01.JPG,AFNE01.JPG,AFNE01.JPG,AFNE01.JPG,AFNE01.JPG,3,5,35,8,,,,,,,,,,,,,,,,,,,,,,,AFNE16.jpg,AFSA19.jpg,AFSA15.jpg,AFNE18.jpg,AFSA15.jpg,FS,4,num_2,32,num_8,0.766771238472,,,2017_Aug_17_1416,59.9997883088,FEMA4ImagesEEG,001,201245,
AFNE01.JPG,AFNE01.JPG,AFNE01.JPG,AFNE01.JPG,AFNE01.JPG,AFNE01.JPG,3,6,36,3,,,,,,,,,,,,,,,,,,,,,,,AFSA06.jpg,AFSA10.jpg,AFNE16.jpg,AFNE04.jpg,AFNE04.jpg,FN,3,num_4,32,num_6,0.916731803562,,,2017_Aug_17_1416,59.9997883088,FEMA4ImagesEEG,001,201245,
AFNE01.JPG,AFNE01.JPG,AFNE01.JPG,AFNE01.JPG,AFNE01.JPG,AFNE01.JPG,3,7,37,1,,,,,,,,,,,,,,,,,,,,,,,AFSA03.jpg,AFSA08.jpg,AFNE20.jpg,AFNE17.jpg,AFNE20.jpg,FN,3,num_2,32,num_8,0.900098242564,,,2017_Aug_17_1416,59.9997883088,FEMA4ImagesEEG,001,201245,
AFNE01.JPG,AFNE01.JPG,AFNE01.JPG,AFNE01.JPG,AFNE01.JPG,AFNE01.JPG,3,8,38,4,,,,,,,,,,,,,,,,,,,,,,,AFSA11.jpg,AFNE11.jpg,AFSA13.jpg,AFNE04.jpg,AFNE11.jpg,FN,3,num_6,32,num_8,0.883451852016,,,2017_Aug_17_1416,59.9997883088,FEMA4ImagesEEG,001,201245,
AFNE01.JPG,AFNE01.JPG,AFNE01.JPG,AFNE01.JPG,AFNE01.JPG,AFNE01.JPG,3,9,39,5,,,,,,,,,,,,,,,,,,,,,,,AFSA06.jpg,AFSA14.jpg,AFNE16.jpg,AFNE17.jpg,AFNE16.jpg,FN,3,num_2,16,num_2,1.26673579676,,,2017_Aug_17_1416,59.9997883088,FEMA4ImagesEEG,001,201245,
AFNE01.JPG,AFNE01.JPG,AFNE01.JPG,AFNE01.JPG,AFNE01.JPG,AFNE01.JPG,4,0,40,7,,,,,,,,,,,,,,,,,,,,,,,AFSA11.jpg,AFSA07.jpg,AFNE16.jpg,AFNE07.jpg,AFSA07.jpg,FS,4,num_6,32,num_8,1.03350190341,,,2017_Aug_17_1416,59.9997883088,FEMA4ImagesEEG,001,201245,
AFNE01.JPG,AFNE01.JPG,AFNE01.JPG,AFNE01.JPG,AFNE01.JPG,AFNE01.JPG,4,1,41,5,,,,,,,,,,,,,,,,,,,,,,,AFNE02.jpg,AFSA18.jpg,AFSA06.jpg,AFNE13.jpg,AFSA06.jpg,FS,4,num_2,32,num_6,1.03330432781,,,2017_Aug_17_1416,59.9997883088,FEMA4ImagesEEG,001,201245,
AFNE01.JPG,AFNE01.JPG,AFNE01.JPG,AFNE01.JPG,AFNE01.JPG,AFNE01.JPG,4,2,42,8,,,,,,,,,,,,,,,,,,,,,,,AFNE18.jpg,AFSA08.jpg,AFNE04.jpg,AFSA02.jpg,AFNE18.jpg,FN,3,num_8,32,num_6,1.18319593376,,,2017_Aug_17_1416,59.9997883088,FEMA4ImagesEEG,001,201245,
AFNE01.JPG,AFNE01.JPG,AFNE01.JPG,AFNE01.JPG,AFNE01.JPG,AFNE01.JPG,4,3,43,9,,,,,,,,,,,,,,,,,,,,,,,AFSA20.jpg,AFSA12.jpg,AFNE18.jpg,AFNE15.jpg,AFSA12.jpg,FS,4,num_6,16,num_6,0.93347185012,,,2017_Aug_17_1416,59.9997883088,FEMA4ImagesEEG,001,201245,
AFNE01.JPG,AFNE01.JPG,AFNE01.JPG,AFNE01.JPG,AFNE01.JPG,AFNE01.JPG,4,4,44,3,,,,,,,,,,,,,,,,,,,,,,,AFSA18.jpg,AFNE06.jpg,AFNE14.jpg,AFSA07.jpg,AFNE06.jpg,FN,3,num_6,16,num_6,0.7668286509,,,2017_Aug_17_1416,59.9997883088,FEMA4ImagesEEG,001,201245,
AFNE01.JPG,AFNE01.JPG,AFNE01.JPG,AFNE01.JPG,AFNE01.JPG,AFNE01.JPG,4,5,45,1,,,,,,,,,,,,,,,,,,,,,,,AFSA12.jpg,AFSA07.jpg,AFNE08.jpg,AFNE03.jpg,AFSA12.jpg,FS,4,num_8,16,num_8,0.566815372324,,,2017_Aug_17_1416,59.9997883088,FEMA4ImagesEEG,001,201245,
AFNE01.JPG,AFNE01.JPG,AFNE01.JPG,AFNE01.JPG,AFNE01.JPG,AFNE01.JPG,4,6,46,2,,,,,,,,,,,,,,,,,,,,,,,AFSA05.jpg,AFSA13.jpg,AFNE18.jpg,AFNE14.jpg,AFNE14.jpg,FN,3,num_4,16,num_4,0.700125697884,,,2017_Aug_17_1416,59.9997883088,FEMA4ImagesEEG,001,201245,
AFNE01.JPG,AFNE01.JPG,AFNE01.JPG,AFNE01.JPG,AFNE01.JPG,AFNE01.JPG,4,7,47,6,,,,,,,,,,,,,,,,,,,,,,,AFNE19.jpg,AFSA16.jpg,AFNE05.jpg,AFSA07.jpg,AFNE19.jpg,FN,3,num_8,32,num_4,1.1167300074,,,2017_Aug_17_1416,59.9997883088,FEMA4ImagesEEG,001,201245,
AFNE01.JPG,AFNE01.JPG,AFNE01.JPG,AFNE01.JPG,AFNE01.JPG,AFNE01.JPG,4,8,48,0,,,,,,,,,,,,,,,,,,,,,,,AFNE10.jpg,AFSA03.jpg,AFNE07.jpg,AFSA05.jpg,AFNE10.jpg,FN,3,num_8,16,num_8,0.850011851289,,,2017_Aug_17_1416,59.9997883088,FEMA4ImagesEEG,001,201245,
AFNE01.JPG,AFNE01.JPG,AFNE01.JPG,AFNE01.JPG,AFNE01.JPG,AFNE01.JPG,4,9,49,4,,,,,,,,,,,,,,,,,,,,,,,AFNE17.jpg,AFSA09.jpg,AFSA06.jpg,AFNE16.jpg,AFSA06.jpg,FS,4,num_2,32,num_6,0.700240843405,,,2017_Aug_17_1416,59.9997883088,FEMA4ImagesEEG,001,201245,
AFNE01.JPG,AFNE01.JPG,AFNE01.JPG,AFNE01.JPG,AFNE01.JPG,AFNE01.JPG,5,0,50,0,,,,,,,,,,,,,,,,,,,,,,,AFNE20.jpg,AFSA05.jpg,AFNE18.jpg,AFSA12.jpg,AFNE18.jpg,FN,3,num_2,32,num_8,0.766805878375,,,2017_Aug_17_1416,59.9997883088,FEMA4ImagesEEG,001,201245,
AFNE01.JPG,AFNE01.JPG,AFNE01.JPG,AFNE01.JPG,AFNE01.JPG,AFNE01.JPG,5,1,51,7,,,,,,,,,,,,,,,,,,,,,,,AFSA20.jpg,AFSA14.jpg,AFNE01.jpg,AFNE20.jpg,AFSA20.jpg,FS,4,num_8,32,num_4,0.9834812638,,,2017_Aug_17_1416,59.9997883088,FEMA4ImagesEEG,001,201245,
AFNE01.JPG,AFNE01.JPG,AFNE01.JPG,AFNE01.JPG,AFNE01.JPG,AFNE01.JPG,5,2,52,5,,,,,,,,,,,,,,,,,,,,,,,AFSA20.jpg,AFNE15.jpg,AFSA17.jpg,AFNE07.jpg,AFNE07.jpg,FN,3,num_4,32,num_8,0.900134806929,,,2017_Aug_17_1416,59.9997883088,FEMA4ImagesEEG,001,201245,
AFNE01.JPG,AFNE01.JPG,AFNE01.JPG,AFNE01.JPG,AFNE01.JPG,AFNE01.JPG,5,3,53,8,,,,,,,,,,,,,,,,,,,,,,,AFNE04.jpg,AFNE07.jpg,AFSA03.jpg,AFSA12.jpg,AFNE04.jpg,FN,3,num_8,16,num_8,0.50012717332,,,2017_Aug_17_1416,59.9997883088,FEMA4ImagesEEG,001,201245,
AFNE01.JPG,AFNE01.JPG,AFNE01.JPG,AFNE01.JPG,AFNE01.JPG,AFNE01.JPG,5,4,54,9,,,,,,,,,,,,,,,,,,,,,,,AFSA05.jpg,AFSA06.jpg,AFNE19.jpg,AFNE11.jpg,AFNE11.jpg,FN,3,num_4,32,num_6,1.06675427139,,,2017_Aug_17_1416,59.9997883088,FEMA4ImagesEEG,001,201245,
AFNE01.JPG,AFNE01.JPG,AFNE01.JPG,AFNE01.JPG,AFNE01.JPG,AFNE01.JPG,5,5,55,2,,,,,,,,,,,,,,,,,,,,,,,AFSA04.jpg,AFNE03.jpg,AFSA11.jpg,AFNE04.jpg,AFSA11.jpg,FS,4,num_2,32,num_8,0.750104641367,,,2017_Aug_17_1416,59.9997883088,FEMA4ImagesEEG,001,201245,
AFNE01.JPG,AFNE01.JPG,AFNE01.JPG,AFNE01.JPG,AFNE01.JPG,AFNE01.JPG,5,6,56,1,,,,,,,,,,,,,,,,,,,,,,,AFNE20.jpg,AFSA07.jpg,AFSA01.jpg,AFNE07.jpg,AFNE20.jpg,FN,3,num_8,16,num_8,0.883438060235,,,2017_Aug_17_1416,59.9997883088,FEMA4ImagesEEG,001,201245,
AFNE01.JPG,AFNE01.JPG,AFNE01.JPG,AFNE01.JPG,AFNE01.JPG,AFNE01.JPG,5,7,57,3,,,,,,,,,,,,,,,,,,,,,,,AFSA19.jpg,AFNE19.jpg,AFSA06.jpg,AFNE12.jpg,AFNE19.jpg,FN,3,num_6,32,num_8,0.666913101682,,,2017_Aug_17_1416,59.9997883088,FEMA4ImagesEEG,001,201245,
AFNE01.JPG,AFNE01.JPG,AFNE01.JPG,AFNE01.JPG,AFNE01.JPG,AFNE01.JPG,5,8,58,4,,,,,,,,,,,,,,,,,,,,,,,AFNE20.jpg,AFSA19.jpg,AFNE09.jpg,AFSA09.jpg,AFNE20.jpg,FN,3,num_8,32,num_2,1.5334080871,,,2017_Aug_17_1416,59.9997883088,FEMA4ImagesEEG,001,201245,
AFNE01.JPG,AFNE01.JPG,AFNE01.JPG,AFNE01.JPG,AFNE01.JPG,AFNE01.JPG,5,9,59,6,,,,,,,,,,,,,,,,,,,,,,,AFSA19.jpg,AFSA14.jpg,AFNE05.jpg,AFNE17.jpg,AFSA14.jpg,FS,4,num_6,16,num_6,1.15012863267,,,2017_Aug_17_1416,59.9997883088,FEMA4ImagesEEG,001,201245,
,,,,,,,,,,,,,,,,,,,,,,,,,,,,,,,,,,,,,,,,,,,space,22.4317704863,2017_Aug_17_1416,59.9997883088,FEMA4ImagesEEG,001,201245,
AFNE01.JPG,AFNE01.JPG,AFNE01.JPG,AFNE01.JPG,AFNE01.JPG,AFNE01.JPG,,,,,0,0,0,4,,,,,,,,,,,,,,,,,,,AMSA03.jpg,AMNE17.jpg,AMNE12.jpg,AMSA13.jpg,AMSA03.jpg,MS,2,num_8,32,num_2,0.800085509196,,,2017_Aug_17_1416,59.9997883088,FEMA4ImagesEEG,001,201245,
AFNE01.JPG,AFNE01.JPG,AFNE01.JPG,AFNE01.JPG,AFNE01.JPG,AFNE01.JPG,,,,,0,1,1,1,,,,,,,,,,,,,,,,,,,AMSA02.jpg,AMNE09.jpg,AMNE03.jpg,AMSA03.jpg,AMNE09.jpg,MN,1,num_6,16,num_6,0.533475121658,,,2017_Aug_17_1416,59.9997883088,FEMA4ImagesEEG,001,201245,
AFNE01.JPG,AFNE01.JPG,AFNE01.JPG,AFNE01.JPG,AFNE01.JPG,AFNE01.JPG,,,,,0,2,2,8,,,,,,,,,,,,,,,,,,,AMSA18.jpg,AMNE11.jpg,AMNE13.jpg,AMSA16.jpg,AMSA16.jpg,MS,2,num_4,16,num_4,0.783474720723,,,2017_Aug_17_1416,59.9997883088,FEMA4ImagesEEG,001,201245,
AFNE01.JPG,AFNE01.JPG,AFNE01.JPG,AFNE01.JPG,AFNE01.JPG,AFNE01.JPG,,,,,0,3,3,2,,,,,,,,,,,,,,,,,,,AMSA15.jpg,AMNE16.jpg,AMSA09.jpg,AMNE05.jpg,AMNE16.jpg,MN,1,num_6,16,num_6,0.783517699863,,,2017_Aug_17_1416,59.9997883088,FEMA4ImagesEEG,001,201245,
AFNE01.JPG,AFNE01.JPG,AFNE01.JPG,AFNE01.JPG,AFNE01.JPG,AFNE01.JPG,,,,,0,4,4,6,,,,,,,,,,,,,,,,,,,AMSA15.jpg,AMSA17.jpg,AMNE20.jpg,AMNE13.jpg,AMSA15.jpg,MS,2,num_8,16,num_8,0.800096093619,,,2017_Aug_17_1416,59.9997883088,FEMA4ImagesEEG,001,201245,
AFNE01.JPG,AFNE01.JPG,AFNE01.JPG,AFNE01.JPG,AFNE01.JPG,AFNE01.JPG,,,,,0,5,5,0,,,,,,,,,,,,,,,,,,,AMSA05.jpg,AMNE04.jpg,AMNE05.jpg,AMSA10.jpg,AMSA10.jpg,MS,2,num_4,32,num_8,0.633450007706,,,2017_Aug_17_1416,59.9997883088,FEMA4ImagesEEG,001,201245,
AFNE01.JPG,AFNE01.JPG,AFNE01.JPG,AFNE01.JPG,AFNE01.JPG,AFNE01.JPG,,,,,0,6,6,3,,,,,,,,,,,,,,,,,,,AMSA20.jpg,AMSA02.jpg,AMNE06.jpg,AMNE15.jpg,AMNE06.jpg,MN,1,num_2,32,num_4,0.866818932525,,,2017_Aug_17_1416,59.9997883088,FEMA4ImagesEEG,001,201245,
AFNE01.JPG,AFNE01.JPG,AFNE01.JPG,AFNE01.JPG,AFNE01.JPG,AFNE01.JPG,,,,,0,7,7,7,,,,,,,,,,,,,,,,,,,AMNE10.jpg,AMNE01.jpg,AMSA07.jpg,AMSA10.jpg,AMNE01.jpg,MN,1,num_6,16,num_6,0.666767485847,,,2017_Aug_17_1416,59.9997883088,FEMA4ImagesEEG,001,201245,
AFNE01.JPG,AFNE01.JPG,AFNE01.JPG,AFNE01.JPG,AFNE01.JPG,AFNE01.JPG,,,,,0,8,8,9,,,,,,,,,,,,,,,,,,,AMSA17.jpg,AMSA04.jpg,AMNE18.jpg,AMNE19.jpg,AMNE18.jpg,MN,1,num_2,32,num_4,0.966764310491,,,2017_Aug_17_1416,59.9997883088,FEMA4ImagesEEG,001,201245,
AFNE01.JPG,AFNE01.JPG,AFNE01.JPG,AFNE01.JPG,AFNE01.JPG,AFNE01.JPG,,,,,0,9,9,5,,,,,,,,,,,,,,,,,,,AMSA15.jpg,AMNE15.jpg,AMNE12.jpg,AMSA11.jpg,AMSA11.jpg,MS,2,num_4,32,num_6,1.2000809547,,,2017_Aug_17_1416,59.9997883088,FEMA4ImagesEEG,001,201245,
AFNE01.JPG,AFNE01.JPG,AFNE01.JPG,AFNE01.JPG,AFNE01.JPG,AFNE01.JPG,,,,,1,0,10,0,,,,,,,,,,,,,,,,,,,AMNE03.jpg,AMSA02.jpg,AMSA17.jpg,AMNE17.jpg,AMNE03.jpg,MN,1,num_8,32,num_4,0.800141317886,,,2017_Aug_17_1416,59.9997883088,FEMA4ImagesEEG,001,201245,
AFNE01.JPG,AFNE01.JPG,AFNE01.JPG,AFNE01.JPG,AFNE01.JPG,AFNE01.JPG,,,,,1,1,11,8,,,,,,,,,,,,,,,,,,,AMSA02.jpg,AMNE10.jpg,AMSA10.jpg,AMNE09.jpg,AMSA02.jpg,MS,2,num_8,16,num_8,0.666816879762,,,2017_Aug_17_1416,59.9997883088,FEMA4ImagesEEG,001,201245,
AFNE01.JPG,AFNE01.JPG,AFNE01.JPG,AFNE01.JPG,AFNE01.JPG,AFNE01.JPG,,,,,1,2,12,7,,,,,,,,,,,,,,,,,,,AMSA15.jpg,AMNE12.jpg,AMNE14.jpg,AMSA18.jpg,AMNE14.jpg,MN,1,num_2,16,num_2,0.816826838767,,,2017_Aug_17_1416,59.9997883088,FEMA4ImagesEEG,001,201245,
AFNE01.JPG,AFNE01.JPG,AFNE01.JPG,AFNE01.JPG,AFNE01.JPG,AFNE01.JPG,,,,,1,3,13,5,,,,,,,,,,,,,,,,,,,AMNE17.jpg,AMSA02.jpg,AMNE11.jpg,AMSA08.jpg,AMSA02.jpg,MS,2,num_6,16,num_6,0.833538018749,,,2017_Aug_17_1416,59.9997883088,FEMA4ImagesEEG,001,201245,
AFNE01.JPG,AFNE01.JPG,AFNE01.JPG,AFNE01.JPG,AFNE01.JPG,AFNE01.JPG,,,,,1,4,14,1,,,,,,,,,,,,,,,,,,,AMNE10.jpg,AMSA16.jpg,AMNE01.jpg,AMSA15.jpg,AMSA15.jpg,MS,2,num_4,32,num_2,1.0834657721,,,2017_Aug_17_1416,59.9997883088,FEMA4ImagesEEG,001,201245,
AFNE01.JPG,AFNE01.JPG,AFNE01.JPG,AFNE01.JPG,AFNE01.JPG,AFNE01.JPG,,,,,1,5,15,3,,,,,,,,,,,,,,,,,,,AMSA06.jpg,AMSA16.jpg,AMNE12.jpg,AMNE17.jpg,AMNE12.jpg,MN,1,num_2,16,num_2,1.09999060235,,,2017_Aug_17_1416,59.9997883088,FEMA4ImagesEEG,001,201245,
AFNE01.JPG,AFNE01.JPG,AFNE01.JPG,AFNE01.JPG,AFNE01.JPG,AFNE01.JPG,,,,,1,6,16,4,,,,,,,,,,,,,,,,,,,AMSA17.jpg,AMNE09.jpg,AMNE07.jpg,AMSA10.jpg,AMNE07.jpg,MN,1,num_2,32,num_6,0.750143450859,,,2017_Aug_17_1416,59.9997883088,FEMA4ImagesEEG,001,201245,
AFNE01.JPG,AFNE01.JPG,AFNE01.JPG,AFNE01.JPG,AFNE01.JPG,AFNE01.JPG,,,,,1,7,17,2,,,,,,,,,,,,,,,,,,,AMNE15.jpg,AMSA15.jpg,AMNE08.jpg,AMSA16.jpg,AMNE15.jpg,MN,1,num_8,16,num_8,0.933442342095,,,2017_Aug_17_1416,59.9997883088,FEMA4ImagesEEG,001,201245,
AFNE01.JPG,AFNE01.JPG,AFNE01.JPG,AFNE01.JPG,AFNE01.JPG,AFNE01.JPG,,,,,1,8,18,6,,,,,,,,,,,,,,,,,,,AMNE07.jpg,AMSA15.jpg,AMNE14.jpg,AMSA02.jpg,AMSA02.jpg,MS,2,num_4,32,num_6,1.06677544018,,,2017_Aug_17_1416,59.9997883088,FEMA4ImagesEEG,001,201245,
AFNE01.JPG,AFNE01.JPG,AFNE01.JPG,AFNE01.JPG,AFNE01.JPG,AFNE01.JPG,,,,,1,9,19,9,,,,,,,,,,,,,,,,,,,AMNE16.jpg,AMSA17.jpg,AMNE05.jpg,AMSA19.jpg,AMSA19.jpg,MS,2,num_4,16,num_4,0.950094185187,,,2017_Aug_17_1416,59.9997883088,FEMA4ImagesEEG,001,201245,
AFNE01.JPG,AFNE01.JPG,AFNE01.JPG,AFNE01.JPG,AFNE01.JPG,AFNE01.JPG,,,,,2,0,20,2,,,,,,,,,,,,,,,,,,,AMNE14.jpg,AMSA07.jpg,AMSA10.jpg,AMNE20.jpg,AMSA10.jpg,MS,2,num_2,32,num_8,1.03343871766,,,2017_Aug_17_1416,59.9997883088,FEMA4ImagesEEG,001,201245,
AFNE01.JPG,AFNE01.JPG,AFNE01.JPG,AFNE01.JPG,AFNE01.JPG,AFNE01.JPG,,,,,2,1,21,7,,,,,,,,,,,,,,,,,,,AMNE05.jpg,AMSA02.jpg,AMSA01.jpg,AMNE18.jpg,AMSA01.jpg,MS,2,num_2,32,num_8,1.26672360866,,,2017_Aug_17_1416,59.9997883088,FEMA4ImagesEEG,001,201245,
AFNE01.JPG,AFNE01.JPG,AFNE01.JPG,AFNE01.JPG,AFNE01.JPG,AFNE01.JPG,,,,,2,2,22,3,,,,,,,,,,,,,,,,,,,AMSA14.jpg,AMNE09.jpg,AMNE18.jpg,AMSA06.jpg,AMNE18.jpg,MN,1,num_2,32,num_4,1.25009774539,,,2017_Aug_17_1416,59.9997883088,FEMA4ImagesEEG,001,201245,
AFNE01.JPG,AFNE01.JPG,AFNE01.JPG,AFNE01.JPG,AFNE01.JPG,AFNE01.JPG,,,,,2,3,23,5,,,,,,,,,,,,,,,,,,,AMSA10.jpg,AMNE09.jpg,AMSA16.jpg,AMNE16.jpg,AMNE09.jpg,MN,1,num_6,16,num_6,0.783476324461,,,2017_Aug_17_1416,59.9997883088,FEMA4ImagesEEG,001,201245,
AFNE01.JPG,AFNE01.JPG,AFNE01.JPG,AFNE01.JPG,AFNE01.JPG,AFNE01.JPG,,,,,2,4,24,8,,,,,,,,,,,,,,,,,,,AMNE05.jpg,AMNE18.jpg,AMSA13.jpg,AMSA06.jpg,AMSA06.jpg,MS,2,num_4,32,num_8,0.81679861364,,,2017_Aug_17_1416,59.9997883088,FEMA4ImagesEEG,001,201245,
AFNE01.JPG,AFNE01.JPG,AFNE01.JPG,AFNE01.JPG,AFNE01.JPG,AFNE01.JPG,,,,,2,5,25,1,,,,,,,,,,,,,,,,,,,AMSA07.jpg,AMSA01.jpg,AMNE15.jpg,AMNE11.jpg,AMNE15.jpg,MN,1,num_2,32,num_4,0.867084504978,,,2017_Aug_17_1416,59.9997883088,FEMA4ImagesEEG,001,201245,
AFNE01.JPG,AFNE01.JPG,AFNE01.JPG,AFNE01.JPG,AFNE01.JPG,AFNE01.JPG,,,,,2,6,26,9,,,,,,,,,,,,,,,,,,,AMNE18.jpg,AMSA14.jpg,AMNE01.jpg,AMSA20.jpg,AMNE18.jpg,MN,1,num_8,16,num_8,0.616715092969,,,2017_Aug_17_1416,59.9997883088,FEMA4ImagesEEG,001,201245,
AFNE01.JPG,AFNE01.JPG,AFNE01.JPG,AFNE01.JPG,AFNE01.JPG,AFNE01.JPG,,,,,2,7,27,0,,,,,,,,,,,,,,,,,,,AMNE02.jpg,AMNE04.jpg,AMSA06.jpg,AMSA13.jpg,AMSA06.jpg,MS,2,num_2,32,num_4,1.48345063318,,,2017_Aug_17_1416,59.9997883088,FEMA4ImagesEEG,001,201245,
AFNE01.JPG,AFNE01.JPG,AFNE01.JPG,AFNE01.JPG,AFNE01.JPG,AFNE01.JPG,,,,,2,8,28,6,,,,,,,,,,,,,,,,,,,AMSA01.jpg,AMNE15.jpg,AMNE04.jpg,AMSA13.jpg,AMSA01.jpg,MS,2,num_8,16,num_8,0.966729991371,,,2017_Aug_17_1416,59.9997883088,FEMA4ImagesEEG,001,201245,
AFNE01.JPG,AFNE01.JPG,AFNE01.JPG,AFNE01.JPG,AFNE01.JPG,AFNE01.JPG,,,,,2,9,29,4,,,,,,,,,,,,,,,,,,,AMSA13.jpg,AMNE12.jpg,AMSA05.jpg,AMNE15.jpg,AMNE12.jpg,MN,1,num_6,32,num_4,0.833394006593,,,2017_Aug_17_1416,59.9997883088,FEMA4ImagesEEG,001,201245,
AFNE01.JPG,AFNE01.JPG,AFNE01.JPG,AFNE01.JPG,AFNE01.JPG,AFNE01.JPG,,,,,3,0,30,4,,,,,,,,,,,,,,,,,,,AMNE20.jpg,AMSA20.jpg,AMNE05.jpg,AMSA10.jpg,AMNE20.jpg,MN,1,num_8,16,num_8,0.650193903188,,,2017_Aug_17_1416,59.9997883088,FEMA4ImagesEEG,001,201245,
AFNE01.JPG,AFNE01.JPG,AFNE01.JPG,AFNE01.JPG,AFNE01.JPG,AFNE01.JPG,,,,,3,1,31,8,,,,,,,,,,,,,,,,,,,AMSA13.jpg,AMNE09.jpg,AMSA01.jpg,AMNE03.jpg,AMSA13.jpg,MS,2,num_8,16,num_8,0.933456133876,,,2017_Aug_17_1416,59.9997883088,FEMA4ImagesEEG,001,201245,
AFNE01.JPG,AFNE01.JPG,AFNE01.JPG,AFNE01.JPG,AFNE01.JPG,AFNE01.JPG,,,,,3,2,32,2,,,,,,,,,,,,,,,,,,,AMSA01.jpg,AMSA18.jpg,AMNE03.jpg,AMNE04.jpg,AMNE03.jpg,MN,1,num_2,16,num_2,1.05010948447,,,2017_Aug_17_1416,59.9997883088,FEMA4ImagesEEG,001,201245,
AFNE01.JPG,AFNE01.JPG,AFNE01.JPG,AFNE01.JPG,AFNE01.JPG,AFNE01.JPG,,,,,3,3,33,0,,,,,,,,,,,,,,,,,,,AMNE08.jpg,AMNE09.jpg,AMSA07.jpg,AMSA06.jpg,AMNE09.jpg,MN,1,num_6,16,num_6,0.550215809722,,,2017_Aug_17_1416,59.9997883088,FEMA4ImagesEEG,001,201245,
AFNE01.JPG,AFNE01.JPG,AFNE01.JPG,AFNE01.JPG,AFNE01.JPG,AFNE01.JPG,,,,,3,4,34,6,,,,,,,,,,,,,,,,,,,AMSA08.jpg,AMSA20.jpg,AMNE19.jpg,AMNE09.jpg,AMSA08.jpg,MS,2,num_8,16,num_8,0.766792407318,,,2017_Aug_17_1416,59.9997883088,FEMA4ImagesEEG,001,201245,
AFNE01.JPG,AFNE01.JPG,AFNE01.JPG,AFNE01.JPG,AFNE01.JPG,AFNE01.JPG,,,,,3,5,35,9,,,,,,,,,,,,,,,,,,,AMSA11.jpg,AMNE07.jpg,AMNE20.jpg,AMSA01.jpg,AMNE07.jpg,MN,1,num_6,16,num_6,0.583276375313,,,2017_Aug_17_1416,59.9997883088,FEMA4ImagesEEG,001,201245,
AFNE01.JPG,AFNE01.JPG,AFNE01.JPG,AFNE01.JPG,AFNE01.JPG,AFNE01.JPG,,,,,3,6,36,3,,,,,,,,,,,,,,,,,,,AMSA18.jpg,AMNE04.jpg,AMNE05.jpg,AMSA12.jpg,AMSA18.jpg,MS,2,num_8,32,num_2,0.933492056734,,,2017_Aug_17_1416,59.9997883088,FEMA4ImagesEEG,001,201245,
AFNE01.JPG,AFNE01.JPG,AFNE01.JPG,AFNE01.JPG,AFNE01.JPG,AFNE01.JPG,,,,,3,7,37,1,,,,,,,,,,,,,,,,,,,AMNE01.jpg,AMSA18.jpg,AMSA14.jpg,AMNE13.jpg,AMNE01.jpg,MN,1,num_8,32,num_4,0.766905307712,,,2017_Aug_17_1416,59.9997883088,FEMA4ImagesEEG,001,201245,
AFNE01.JPG,AFNE01.JPG,AFNE01.JPG,AFNE01.JPG,AFNE01.JPG,AFNE01.JPG,,,,,3,8,38,7,,,,,,,,,,,,,,,,,,,AMSA15.jpg,AMSA11.jpg,AMNE11.jpg,AMNE04.jpg,AMNE11.jpg,MN,1,num_2,32,num_6,0.733447987062,,,2017_Aug_17_1416,59.9997883088,FEMA4ImagesEEG,001,201245,
AFNE01.JPG,AFNE01.JPG,AFNE01.JPG,AFNE01.JPG,AFNE01.JPG,AFNE01.JPG,,,,,3,9,39,5,,,,,,,,,,,,,,,,,,,AMNE19.jpg,AMSA19.jpg,AMSA02.jpg,AMNE14.jpg,AMSA02.jpg,MS,2,num_2,16,num_2,0.683520362014,,,2017_Aug_17_1416,59.9997883088,FEMA4ImagesEEG,001,201245,
AFNE01.JPG,AFNE01.JPG,AFNE01.JPG,AFNE01.JPG,AFNE01.JPG,AFNE01.JPG,,,,,4,0,40,7,,,,,,,,,,,,,,,,,,,AMSA12.jpg,AMSA19.jpg,AMNE04.jpg,AMNE09.jpg,AMSA19.jpg,MS,2,num_6,32,num_2,1.03347560274,,,2017_Aug_17_1416,59.9997883088,FEMA4ImagesEEG,001,201245,
AFNE01.JPG,AFNE01.JPG,AFNE01.JPG,AFNE01.JPG,AFNE01.JPG,AFNE01.JPG,,,,,4,1,41,0,,,,,,,,,,,,,,,,,,,AMNE10.jpg,AMSA12.jpg,AMNE20.jpg,AMSA03.jpg,AMSA03.jpg,MS,2,num_4,16,num_4,0.700282218866,,,2017_Aug_17_1416,59.9997883088,FEMA4ImagesEEG,001,201245,
AFNE01.JPG,AFNE01.JPG,AFNE01.JPG,AFNE01.JPG,AFNE01.JPG,AFNE01.JPG,,,,,4,2,42,1,,,,,,,,,,,,,,,,,,,AMSA06.jpg,AMNE17.jpg,AMSA08.jpg,AMNE09.jpg,AMSA08.jpg,MS,2,num_2,16,num_2,1.05023425224,,,2017_Aug_17_1416,59.9997883088,FEMA4ImagesEEG,001,201245,
AFNE01.JPG,AFNE01.JPG,AFNE01.JPG,AFNE01.JPG,AFNE01.JPG,AFNE01.JPG,,,,,4,3,43,9,,,,,,,,,,,,,,,,,,,AMNE04.jpg,AMNE10.jpg,AMSA06.jpg,AMSA14.jpg,AMNE10.jpg,MN,1,num_6,16,num_6,0.783538547927,,,2017_Aug_17_1416,59.9997883088,FEMA4ImagesEEG,001,201245,
AFNE01.JPG,AFNE01.JPG,AFNE01.JPG,AFNE01.JPG,AFNE01.JPG,AFNE01.JPG,,,,,4,4,44,3,,,,,,,,,,,,,,,,,,,AMNE14.jpg,AMSA08.jpg,AMSA10.jpg,AMNE05.jpg,AMNE05.jpg,MN,1,num_4,32,num_8,0.800073000311,,,2017_Aug_17_1416,59.9997883088,FEMA4ImagesEEG,001,201245,
AFNE01.JPG,AFNE01.JPG,AFNE01.JPG,AFNE01.JPG,AFNE01.JPG,AFNE01.JPG,,,,,4,5,45,2,,,,,,,,,,,,,,,,,,,AMSA16.jpg,AMNE20.jpg,AMSA11.jpg,AMNE10.jpg,AMNE10.jpg,MN,1,num_4,16,num_4,0.86674291722,,,2017_Aug_17_1416,59.9997883088,FEMA4ImagesEEG,001,201245,
AFNE01.JPG,AFNE01.JPG,AFNE01.JPG,AFNE01.JPG,AFNE01.JPG,AFNE01.JPG,,,,,4,6,46,4,,,,,,,,,,,,,,,,,,,AMNE16.jpg,AMSA05.jpg,AMNE06.jpg,AMSA18.jpg,AMSA05.jpg,MS,2,num_6,32,num_4,1.13342130155,,,2017_Aug_17_1416,59.9997883088,FEMA4ImagesEEG,001,201245,
AFNE01.JPG,AFNE01.JPG,AFNE01.JPG,AFNE01.JPG,AFNE01.JPG,AFNE01.JPG,,,,,4,7,47,5,,,,,,,,,,,,,,,,,,,AMSA20.jpg,AMNE07.jpg,AMNE12.jpg,AMSA03.jpg,AMSA20.jpg,MS,2,num_8,32,num_2,1.18345958181,,,2017_Aug_17_1416,59.9997883088,FEMA4ImagesEEG,001,201245,
AFNE01.JPG,AFNE01.JPG,AFNE01.JPG,AFNE01.JPG,AFNE01.JPG,AFNE01.JPG,,,,,4,8,48,6,,,,,,,,,,,,,,,,,,,AMSA19.jpg,AMNE19.jpg,AMNE04.jpg,AMSA04.jpg,AMNE04.jpg,MN,1,num_2,32,num_4,0.766748465947,,,2017_Aug_17_1416,59.9997883088,FEMA4ImagesEEG,001,201245,
AFNE01.JPG,AFNE01.JPG,AFNE01.JPG,AFNE01.JPG,AFNE01.JPG,AFNE01.JPG,,,,,4,9,49,8,,,,,,,,,,,,,,,,,,,AMNE07.jpg,AMSA03.jpg,AMNE01.jpg,AMSA17.jpg,AMNE01.jpg,MN,1,num_2,32,num_6,0.783471834089,,,2017_Aug_17_1416,59.9997883088,FEMA4ImagesEEG,001,201245,
AFNE01.JPG,AFNE01.JPG,AFNE01.JPG,AFNE01.JPG,AFNE01.JPG,AFNE01.JPG,,,,,5,0,50,2,,,,,,,,,,,,,,,,,,,AMNE10.jpg,AMNE05.jpg,AMSA05.jpg,AMSA14.jpg,AMNE05.jpg,MN,1,num_6,16,num_6,1.1334030194,,,2017_Aug_17_1416,59.9997883088,FEMA4ImagesEEG,001,201245,
AFNE01.JPG,AFNE01.JPG,AFNE01.JPG,AFNE01.JPG,AFNE01.JPG,AFNE01.JPG,,,,,5,1,51,5,,,,,,,,,,,,,,,,,,,AMNE01.jpg,AMSA16.jpg,AMNE20.jpg,AMSA01.jpg,AMNE20.jpg,MN,1,num_2,16,num_2,0.933417965833,,,2017_Aug_17_1416,59.9997883088,FEMA4ImagesEEG,001,201245,
AFNE01.JPG,AFNE01.JPG,AFNE01.JPG,AFNE01.JPG,AFNE01.JPG,AFNE01.JPG,,,,,5,2,52,9,,,,,,,,,,,,,,,,,,,AMNE18.jpg,AMSA15.jpg,AMNE02.jpg,AMSA08.jpg,AMSA15.jpg,MS,2,num_6,16,num_6,0.783487229608,,,2017_Aug_17_1416,59.9997883088,FEMA4ImagesEEG,001,201245,
AFNE01.JPG,AFNE01.JPG,AFNE01.JPG,AFNE01.JPG,AFNE01.JPG,AFNE01.JPG,,,,,5,3,53,4,,,,,,,,,,,,,,,,,,,AMNE19.jpg,AMNE13.jpg,AMSA03.jpg,AMSA05.jpg,AMSA03.jpg,MS,2,num_2,16,num_2,1.86668422178,,,2017_Aug_17_1416,59.9997883088,FEMA4ImagesEEG,001,201245,
AFNE01.JPG,AFNE01.JPG,AFNE01.JPG,AFNE01.JPG,AFNE01.JPG,AFNE01.JPG,,,,,5,4,54,3,,,,,,,,,,,,,,,,,,,AMNE18.jpg,AMSA12.jpg,AMSA15.jpg,AMNE08.jpg,AMNE18.jpg,MN,1,num_8,16,num_8,0.583473950974,,,2017_Aug_17_1416,59.9997883088,FEMA4ImagesEEG,001,201245,
AFNE01.JPG,AFNE01.JPG,AFNE01.JPG,AFNE01.JPG,AFNE01.JPG,AFNE01.JPG,,,,,5,5,55,6,,,,,,,,,,,,,,,,,,,AMSA20.jpg,AMNE12.jpg,AMSA11.jpg,AMNE19.jpg,AMSA20.jpg,MS,2,num_8,16,num_8,0.800180127437,,,2017_Aug_17_1416,59.9997883088,FEMA4ImagesEEG,001,201245,
AFNE01.JPG,AFNE01.JPG,AFNE01.JPG,AFNE01.JPG,AFNE01.JPG,AFNE01.JPG,,,,,5,6,56,7,,,,,,,,,,,,,,,,,,,AMSA19.jpg,AMNE10.jpg,AMNE14.jpg,AMSA02.jpg,AMNE14.jpg,MN,1,num_2,16,num_2,0.950117919943,,,2017_Aug_17_1416,59.9997883088,FEMA4ImagesEEG,001,201245,
AFNE01.JPG,AFNE01.JPG,AFNE01.JPG,AFNE01.JPG,AFNE01.JPG,AFNE01.JPG,,,,,5,7,57,1,,,,,,,,,,,,,,,,,,,AMSA12.jpg,AMSA20.jpg,AMNE09.jpg,AMNE01.jpg,AMNE01.jpg,MN,1,num_4,16,num_4,0.800123997964,,,2017_Aug_17_1416,59.9997883088,FEMA4ImagesEEG,001,201245,
AFNE01.JPG,AFNE01.JPG,AFNE01.JPG,AFNE01.JPG,AFNE01.JPG,AFNE01.JPG,,,,,5,8,58,8,,,,,,,,,,,,,,,,,,,AMNE20.jpg,AMNE11.jpg,AMSA16.jpg,AMSA10.jpg,AMNE11.jpg,MN,1,num_6,32,num_4,0.933467680472,,,2017_Aug_17_1416,59.9997883088,FEMA4ImagesEEG,001,201245,
AFNE01.JPG,AFNE01.JPG,AFNE01.JPG,AFNE01.JPG,AFNE01.JPG,AFNE01.JPG,,,,,5,9,59,0,,,,,,,,,,,,,,,,,,,AMSA02.jpg,AMNE09.jpg,AMNE14.jpg,AMSA12.jpg,AMSA02.jpg,MS,2,num_8,16,num_8,0.783493965107,,,2017_Aug_17_1416,59.9997883088,FEMA4ImagesEEG,001,201245,
,,,,,,,,,,,,,,,,,,,,,,,,,,,,,,,,,,,,,,,,,,,space,37.7471599301,2017_Aug_17_1416,59.9997883088,FEMA4ImagesEEG,001,201245,
AFNE01.JPG,AFNE01.JPG,AFNE01.JPG,AFNE01.JPG,AFNE01.JPG,AFNE01.JPG,,,,,,,,,0,0,0,6,,,,,,,,,,,,,,,AFSA16.jpg,AFSA06.jpg,AFNE20.jpg,AFNE02.jpg,AFNE02.jpg,FN,3,num_4,16,num_4,0.816770067788,,,2017_Aug_17_1416,59.9997883088,FEMA4ImagesEEG,001,201245,
AFNE01.JPG,AFNE01.JPG,AFNE01.JPG,AFNE01.JPG,AFNE01.JPG,AFNE01.JPG,,,,,,,,,0,1,1,5,,,,,,,,,,,,,,,AFSA03.jpg,AFSA06.jpg,AFNE20.jpg,AFNE17.jpg,AFSA03.jpg,FS,4,num_8,16,num_8,0.466836637352,,,2017_Aug_17_1416,59.9997883088,FEMA4ImagesEEG,001,201245,
AFNE01.JPG,AFNE01.JPG,AFNE01.JPG,AFNE01.JPG,AFNE01.JPG,AFNE01.JPG,,,,,,,,,0,2,2,9,,,,,,,,,,,,,,,AFNE13.jpg,AFSA11.jpg,AFNE03.jpg,AFSA18.jpg,AFNE13.jpg,FN,3,num_8,16,num_8,0.983436360315,,,2017_Aug_17_1416,59.9997883088,FEMA4ImagesEEG,001,201245,
AFNE01.JPG,AFNE01.JPG,AFNE01.JPG,AFNE01.JPG,AFNE01.JPG,AFNE01.JPG,,,,,,,,,0,3,3,8,,,,,,,,,,,,,,,AFNE19.jpg,AFNE09.jpg,AFSA02.jpg,AFSA17.jpg,AFSA17.jpg,FS,4,num_4,32,num_2,0.983487999358,,,2017_Aug_17_1416,59.9997883088,FEMA4ImagesEEG,001,201245,
AFNE01.JPG,AFNE01.JPG,AFNE01.JPG,AFNE01.JPG,AFNE01.JPG,AFNE01.JPG,,,,,,,,,0,4,4,4,,,,,,,,,,,,,,,AFNE05.jpg,AFSA04.jpg,AFNE11.jpg,AFSA09.jpg,AFNE11.jpg,FN,3,num_2,32,num_4,0.916774461919,,,2017_Aug_17_1416,59.9997883088,FEMA4ImagesEEG,001,201245,
AFNE01.JPG,AFNE01.JPG,AFNE01.JPG,AFNE01.JPG,AFNE01.JPG,AFNE01.JPG,,,,,,,,,0,5,5,7,,,,,,,,,,,,,,,AFNE05.jpg,AFNE06.jpg,AFSA09.jpg,AFSA05.jpg,AFSA09.jpg,FS,4,num_2,16,num_2,0.833519415813,,,2017_Aug_17_1416,59.9997883088,FEMA4ImagesEEG,001,201245,
AFNE01.JPG,AFNE01.JPG,AFNE01.JPG,AFNE01.JPG,AFNE01.JPG,AFNE01.JPG,,,,,,,,,0,6,6,3,,,,,,,,,,,,,,,AFNE15.jpg,AFSA11.jpg,AFSA10.jpg,AFNE05.jpg,AFSA10.jpg,FS,4,num_2,32,num_4,0.83352679282,,,2017_Aug_17_1416,59.9997883088,FEMA4ImagesEEG,001,201245,
AFNE01.JPG,AFNE01.JPG,AFNE01.JPG,AFNE01.JPG,AFNE01.JPG,AFNE01.JPG,,,,,,,,,0,7,7,2,,,,,,,,,,,,,,,AFNE15.jpg,AFNE20.jpg,AFSA02.jpg,AFSA17.jpg,AFSA17.jpg,FS,4,num_4,32,num_2,0.933416041429,,,2017_Aug_17_1416,59.9997883088,FEMA4ImagesEEG,001,201245,
AFNE01.JPG,AFNE01.JPG,AFNE01.JPG,AFNE01.JPG,AFNE01.JPG,AFNE01.JPG,,,,,,,,,0,8,8,0,,,,,,,,,,,,,,,AFNE10.jpg,AFSA12.jpg,AFSA11.jpg,AFNE14.jpg,AFSA11.jpg,FS,4,num_2,32,num_8,0.900149881665,,,2017_Aug_17_1416,59.9997883088,FEMA4ImagesEEG,001,201245,
AFNE01.JPG,AFNE01.JPG,AFNE01.JPG,AFNE01.JPG,AFNE01.JPG,AFNE01.JPG,,,,,,,,,0,9,9,1,,,,,,,,,,,,,,,AFNE16.jpg,AFSA08.jpg,AFNE08.jpg,AFSA16.jpg,AFNE08.jpg,FN,3,num_2,32,num_6,0.633556172601,,,2017_Aug_17_1416,59.9997883088,FEMA4ImagesEEG,001,201245,
AFNE01.JPG,AFNE01.JPG,AFNE01.JPG,AFNE01.JPG,AFNE01.JPG,AFNE01.JPG,,,,,,,,,1,0,10,2,,,,,,,,,,,,,,,AFSA12.jpg,AFNE04.jpg,AFSA01.jpg,AFNE17.jpg,AFNE17.jpg,FN,3,num_4,16,num_4,0.800025210134,,,2017_Aug_17_1416,59.9997883088,FEMA4ImagesEEG,001,201245,
AFNE01.JPG,AFNE01.JPG,AFNE01.JPG,AFNE01.JPG,AFNE01.JPG,AFNE01.JPG,,,,,,,,,1,1,11,1,,,,,,,,,,,,,,,AFSA03.jpg,AFNE01.jpg,AFNE04.jpg,AFSA06.jpg,AFSA06.jpg,FS,4,num_4,32,num_6,0.766884138866,,,2017_Aug_17_1416,59.9997883088,FEMA4ImagesEEG,001,201245,
AFNE01.JPG,AFNE01.JPG,AFNE01.JPG,AFNE01.JPG,AFNE01.JPG,AFNE01.JPG,,,,,,,,,1,2,12,5,,,,,,,,,,,,,,,AFSA17.jpg,AFNE01.jpg,AFNE10.jpg,AFSA04.jpg,AFSA04.jpg,FS,4,num_4,32,num_2,0.933412834012,,,2017_Aug_17_1416,59.9997883088,FEMA4ImagesEEG,001,201245,
AFNE01.JPG,AFNE01.JPG,AFNE01.JPG,AFNE01.JPG,AFNE01.JPG,AFNE01.JPG,,,,,,,,,1,3,13,9,,,,,,,,,,,,,,,AFNE07.jpg,AFSA03.jpg,AFSA04.jpg,AFNE11.jpg,AFNE07.jpg,FN,3,num_8,32,num_6,0.750120678276,,,2017_Aug_17_1416,59.9997883088,FEMA4ImagesEEG,001,201245,
AFNE01.JPG,AFNE01.JPG,AFNE01.JPG,AFNE01.JPG,AFNE01.JPG,AFNE01.JPG,,,,,,,,,1,4,14,0,,,,,,,,,,,,,,,AFNE01.jpg,AFSA13.jpg,AFNE09.jpg,AFSA12.jpg,AFNE01.jpg,FN,3,num_8,16,num_8,0.6001905835,,,2017_Aug_17_1416,59.9997883088,FEMA4ImagesEEG,001,201245,
AFNE01.JPG,AFNE01.JPG,AFNE01.JPG,AFNE01.JPG,AFNE01.JPG,AFNE01.JPG,,,,,,,,,1,5,15,4,,,,,,,,,,,,,,,AFNE19.jpg,AFSA17.jpg,AFSA09.jpg,AFNE12.jpg,AFNE19.jpg,FN,3,num_8,16,num_8,0.566786185023,,,2017_Aug_17_1416,59.9997883088,FEMA4ImagesEEG,001,201245,
AFNE01.JPG,AFNE01.JPG,AFNE01.JPG,AFNE01.JPG,AFNE01.JPG,AFNE01.JPG,,,,,,,,,1,6,16,8,,,,,,,,,,,,,,,AFNE20.jpg,AFNE09.jpg,AFSA09.jpg,AFSA10.jpg,AFNE09.jpg,FN,3,num_6,32,num_4,1.13344150811,,,2017_Aug_17_1416,59.9997883088,FEMA4ImagesEEG,001,201245,
AFNE01.JPG,AFNE01.JPG,AFNE01.JPG,AFNE01.JPG,AFNE01.JPG,AFNE01.JPG,,,,,,,,,1,7,17,3,,,,,,,,,,,,,,,AFNE16.jpg,AFNE07.jpg,AFSA16.jpg,AFSA02.jpg,AFSA16.jpg,FS,4,num_2,32,num_8,1.05011493707,,,2017_Aug_17_1416,59.9997883088,FEMA4ImagesEEG,001,201245,
AFNE01.JPG,AFNE01.JPG,AFNE01.JPG,AFNE01.JPG,AFNE01.JPG,AFNE01.JPG,,,,,,,,,1,8,18,7,,,,,,,,,,,,,,,AFNE07.jpg,AFSA20.jpg,AFSA13.jpg,AFNE05.jpg,AFNE07.jpg,FN,3,num_8,32,num_6,0.866871854523,,,2017_Aug_17_1416,59.9997883088,FEMA4ImagesEEG,001,201245,
AFNE01.JPG,AFNE01.JPG,AFNE01.JPG,AFNE01.JPG,AFNE01.JPG,AFNE01.JPG,,,,,,,,,1,9,19,6,,,,,,,,,,,,,,,AFNE02.jpg,AFNE14.jpg,AFSA09.jpg,AFSA14.jpg,AFSA14.jpg,FS,4,num_4,32,num_2,1.03345026431,,,2017_Aug_17_1416,59.9997883088,FEMA4ImagesEEG,001,201245,
AFNE01.JPG,AFNE01.JPG,AFNE01.JPG,AFNE01.JPG,AFNE01.JPG,AFNE01.JPG,,,,,,,,,2,0,20,4,,,,,,,,,,,,,,,AFNE08.jpg,AFNE11.jpg,AFSA20.jpg,AFSA03.jpg,AFNE08.jpg,FN,3,num_8,16,num_8,0.850134053151,,,2017_Aug_17_1416,59.9997883088,FEMA4ImagesEEG,001,201245,
AFNE01.JPG,AFNE01.JPG,AFNE01.JPG,AFNE01.JPG,AFNE01.JPG,AFNE01.JPG,,,,,,,,,2,1,21,5,,,,,,,,,,,,,,,AFSA05.jpg,AFNE17.jpg,AFSA15.jpg,AFNE01.jpg,AFNE01.jpg,FN,3,num_4,16,num_4,0.916768688592,,,2017_Aug_17_1416,59.9997883088,FEMA4ImagesEEG,001,201245,
AFNE01.JPG,AFNE01.JPG,AFNE01.JPG,AFNE01.JPG,AFNE01.JPG,AFNE01.JPG,,,,,,,,,2,2,22,8,,,,,,,,,,,,,,,AFNE03.jpg,AFNE16.jpg,AFSA13.jpg,AFSA20.jpg,AFSA20.jpg,FS,4,num_4,32,num_6,0.716805124655,,,2017_Aug_17_1416,59.9997883088,FEMA4ImagesEEG,001,201245,
AFNE01.JPG,AFNE01.JPG,AFNE01.JPG,AFNE01.JPG,AFNE01.JPG,AFNE01.JPG,,,,,,,,,2,3,23,9,,,,,,,,,,,,,,,AFNE05.jpg,AFNE02.jpg,AFSA14.jpg,AFSA04.jpg,AFNE02.jpg,FN,3,num_6,32,num_2,1.61672952631,,,2017_Aug_17_1416,59.9997883088,FEMA4ImagesEEG,001,201245,
AFNE01.JPG,AFNE01.JPG,AFNE01.JPG,AFNE01.JPG,AFNE01.JPG,AFNE01.JPG,,,,,,,,,2,4,24,2,,,,,,,,,,,,,,,AFSA17.jpg,AFSA08.jpg,AFNE13.jpg,AFNE08.jpg,AFSA17.jpg,FS,4,num_8,16,num_8,0.683464553324,,,2017_Aug_17_1416,59.9997883088,FEMA4ImagesEEG,001,201245,
AFNE01.JPG,AFNE01.JPG,AFNE01.JPG,AFNE01.JPG,AFNE01.JPG,AFNE01.JPG,,,,,,,,,2,5,25,6,,,,,,,,,,,,,,,AFNE14.jpg,AFNE06.jpg,AFSA03.jpg,AFSA05.jpg,AFSA03.jpg,FS,4,num_2,16,num_2,0.966763669043,,,2017_Aug_17_1416,59.9997883088,FEMA4ImagesEEG,001,201245,
AFNE01.JPG,AFNE01.JPG,AFNE01.JPG,AFNE01.JPG,AFNE01.JPG,AFNE01.JPG,,,,,,,,,2,6,26,1,,,,,,,,,,,,,,,AFSA12.jpg,AFNE17.jpg,AFSA11.jpg,AFNE13.jpg,AFSA12.jpg,FS,4,num_8,16,num_8,0.616823823773,,,2017_Aug_17_1416,59.9997883088,FEMA4ImagesEEG,001,201245,
AFNE01.JPG,AFNE01.JPG,AFNE01.JPG,AFNE01.JPG,AFNE01.JPG,AFNE01.JPG,,,,,,,,,2,7,27,0,,,,,,,,,,,,,,,AFNE15.jpg,AFSA07.jpg,AFNE06.jpg,AFSA03.jpg,AFSA03.jpg,FS,4,num_4,32,num_2,1.30007797183,,,2017_Aug_17_1416,59.9997883088,FEMA4ImagesEEG,001,201245,
AFNE01.JPG,AFNE01.JPG,AFNE01.JPG,AFNE01.JPG,AFNE01.JPG,AFNE01.JPG,,,,,,,,,2,8,28,3,,,,,,,,,,,,,,,AFSA16.jpg,AFSA10.jpg,AFNE19.jpg,AFNE02.jpg,AFNE02.jpg,FN,3,num_4,32,num_6,2.13334881433,,,2017_Aug_17_1416,59.9997883088,FEMA4ImagesEEG,001,201245,
AFNE01.JPG,AFNE01.JPG,AFNE01.JPG,AFNE01.JPG,AFNE01.JPG,AFNE01.JPG,,,,,,,,,2,9,29,7,,,,,,,,,,,,,,,AFNE19.jpg,AFSA05.jpg,AFNE17.jpg,AFSA20.jpg,AFNE19.jpg,FN,3,num_8,16,num_8,0.816791236633,,,2017_Aug_17_1416,59.9997883088,FEMA4ImagesEEG,001,201245,
AFNE01.JPG,AFNE01.JPG,AFNE01.JPG,AFNE01.JPG,AFNE01.JPG,AFNE01.JPG,,,,,,,,,3,0,30,3,,,,,,,,,,,,,,,AFNE05.jpg,AFSA12.jpg,AFSA15.jpg,AFNE13.jpg,AFSA12.jpg,FS,4,num_6,32,num_4,0.800106036535,,,2017_Aug_17_1416,59.9997883088,FEMA4ImagesEEG,001,201245,
AFNE01.JPG,AFNE01.JPG,AFNE01.JPG,AFNE01.JPG,AFNE01.JPG,AFNE01.JPG,,,,,,,,,3,1,31,4,,,,,,,,,,,,,,,AFNE16.jpg,AFNE07.jpg,AFSA16.jpg,AFSA14.jpg,AFNE07.jpg,FN,3,num_6,32,num_4,0.850280631217,,,2017_Aug_17_1416,59.9997883088,FEMA4ImagesEEG,001,201245,
AFNE01.JPG,AFNE01.JPG,AFNE01.JPG,AFNE01.JPG,AFNE01.JPG,AFNE01.JPG,,,,,,,,,3,2,32,8,,,,,,,,,,,,,,,AFSA01.jpg,AFNE18.jpg,AFNE16.jpg,AFSA11.jpg,AFSA01.jpg,FS,4,num_8,16,num_8,0.883301745809,,,2017_Aug_17_1416,59.9997883088,FEMA4ImagesEEG,001,201245,
AFNE01.JPG,AFNE01.JPG,AFNE01.JPG,AFNE01.JPG,AFNE01.JPG,AFNE01.JPG,,,,,,,,,3,3,33,6,,,,,,,,,,,,,,,AFSA18.jpg,AFNE01.jpg,AFSA12.jpg,AFNE20.jpg,AFSA12.jpg,FS,4,num_2,16,num_2,0.933441379864,,,2017_Aug_17_1416,59.9997883088,FEMA4ImagesEEG,001,201245,
AFNE01.JPG,AFNE01.JPG,AFNE01.JPG,AFNE01.JPG,AFNE01.JPG,AFNE01.JPG,,,,,,,,,3,4,34,1,,,,,,,,,,,,,,,AFNE03.jpg,AFSA18.jpg,AFSA02.jpg,AFNE12.jpg,AFNE03.jpg,FN,3,num_8,32,num_6,0.850199484034,,,2017_Aug_17_1416,59.9997883088,FEMA4ImagesEEG,001,201245,
AFNE01.JPG,AFNE01.JPG,AFNE01.JPG,AFNE01.JPG,AFNE01.JPG,AFNE01.JPG,,,,,,,,,3,5,35,2,,,,,,,,,,,,,,,AFNE09.jpg,AFNE11.jpg,AFSA09.jpg,AFSA05.jpg,AFSA05.jpg,FS,4,num_4,16,num_4,1.06679404306,,,2017_Aug_17_1416,59.9997883088,FEMA4ImagesEEG,001,201245,
AFNE01.JPG,AFNE01.JPG,AFNE01.JPG,AFNE01.JPG,AFNE01.JPG,AFNE01.JPG,,,,,,,,,3,6,36,9,,,,,,,,,,,,,,,AFSA05.jpg,AFSA03.jpg,AFNE09.jpg,AFNE01.jpg,AFNE09.jpg,FN,3,num_2,16,num_2,1.06703620154,,,2017_Aug_17_1416,59.9997883088,FEMA4ImagesEEG,001,201245,
AFNE01.JPG,AFNE01.JPG,AFNE01.JPG,AFNE01.JPG,AFNE01.JPG,AFNE01.JPG,,,,,,,,,3,7,37,0,,,,,,,,,,,,,,,AFSA13.jpg,AFNE10.jpg,AFSA05.jpg,AFNE05.jpg,AFNE10.jpg,FN,3,num_6,32,num_4,0.816720673873,,,2017_Aug_17_1416,59.9997883088,FEMA4ImagesEEG,001,201245,
AFNE01.JPG,AFNE01.JPG,AFNE01.JPG,AFNE01.JPG,AFNE01.JPG,AFNE01.JPG,,,,,,,,,3,8,38,7,,,,,,,,,,,,,,,AFSA05.jpg,AFNE04.jpg,AFNE05.jpg,AFSA20.jpg,AFNE05.jpg,FN,3,num_2,16,num_2,2.08339617157,,,2017_Aug_17_1416,59.9997883088,FEMA4ImagesEEG,001,201245,
AFNE01.JPG,AFNE01.JPG,AFNE01.JPG,AFNE01.JPG,AFNE01.JPG,AFNE01.JPG,,,,,,,,,3,9,39,5,,,,,,,,,,,,,,,AFNE15.jpg,AFSA07.jpg,AFNE16.jpg,AFSA20.jpg,AFSA20.jpg,FS,4,num_4,16,num_4,0.950111825892,,,2017_Aug_17_1416,59.9997883088,FEMA4ImagesEEG,001,201245,
AFNE01.JPG,AFNE01.JPG,AFNE01.JPG,AFNE01.JPG,AFNE01.JPG,AFNE01.JPG,,,,,,,,,4,0,40,1,,,,,,,,,,,,,,,AFSA11.jpg,AFNE10.jpg,AFNE02.jpg,AFSA02.jpg,AFSA02.jpg,FS,4,num_4,32,num_2,0.933437530999,,,2017_Aug_17_1416,59.9997883088,FEMA4ImagesEEG,001,201245,
AFNE01.JPG,AFNE01.JPG,AFNE01.JPG,AFNE01.JPG,AFNE01.JPG,AFNE01.JPG,,,,,,,,,4,1,41,9,,,,,,,,,,,,,,,AFNE15.jpg,AFNE09.jpg,AFSA15.jpg,AFSA06.jpg,AFSA06.jpg,FS,4,num_4,16,num_4,0.666790579096,,,2017_Aug_17_1416,59.9997883088,FEMA4ImagesEEG,001,201245,
AFNE01.JPG,AFNE01.JPG,AFNE01.JPG,AFNE01.JPG,AFNE01.JPG,AFNE01.JPG,,,,,,,,,4,2,42,4,,,,,,,,,,,,,,,AFSA05.jpg,AFNE11.jpg,AFNE10.jpg,AFSA08.jpg,AFNE11.jpg,FN,3,num_6,32,num_8,0.900141863211,,,2017_Aug_17_1416,59.9997883088,FEMA4ImagesEEG,001,201245,
AFNE01.JPG,AFNE01.JPG,AFNE01.JPG,AFNE01.JPG,AFNE01.JPG,AFNE01.JPG,,,,,,,,,4,3,43,0,,,,,,,,,,,,,,,AFSA03.jpg,AFSA17.jpg,AFNE11.jpg,AFNE03.jpg,AFSA17.jpg,FS,4,num_6,16,num_6,0.700183110312,,,2017_Aug_17_1416,59.9997883088,FEMA4ImagesEEG,001,201245,
AFNE01.JPG,AFNE01.JPG,AFNE01.JPG,AFNE01.JPG,AFNE01.JPG,AFNE01.JPG,,,,,,,,,4,4,44,2,,,,,,,,,,,,,,,AFSA12.jpg,AFSA08.jpg,AFNE11.jpg,AFNE09.jpg,AFSA08.jpg,FS,4,num_6,16,num_6,0.666782560584,,,2017_Aug_17_1416,59.9997883088,FEMA4ImagesEEG,001,201245,
AFNE01.JPG,AFNE01.JPG,AFNE01.JPG,AFNE01.JPG,AFNE01.JPG,AFNE01.JPG,,,,,,,,,4,5,45,5,,,,,,,,,,,,,,,AFNE16.jpg,AFSA04.jpg,AFSA09.jpg,AFNE20.jpg,AFNE16.jpg,FN,3,num_8,16,num_8,0.850159070862,,,2017_Aug_17_1416,59.9997883088,FEMA4ImagesEEG,001,201245,
AFNE01.JPG,AFNE01.JPG,AFNE01.JPG,AFNE01.JPG,AFNE01.JPG,AFNE01.JPG,,,,,,,,,4,6,46,6,,,,,,,,,,,,,,,AFSA04.jpg,AFSA10.jpg,AFNE05.jpg,AFNE18.jpg,AFSA10.jpg,FS,4,num_6,32,num_2,0.866774028982,,,2017_Aug_17_1416,59.9997883088,FEMA4ImagesEEG,001,201245,
AFNE01.JPG,AFNE01.JPG,AFNE01.JPG,AFNE01.JPG,AFNE01.JPG,AFNE01.JPG,,,,,,,,,4,7,47,3,,,,,,,,,,,,,,,AFSA01.jpg,AFNE20.jpg,AFNE03.jpg,AFSA02.jpg,AFNE20.jpg,FN,3,num_6,16,num_6,0.633511269058,,,2017_Aug_17_1416,59.9997883088,FEMA4ImagesEEG,001,201245,
AFNE01.JPG,AFNE01.JPG,AFNE01.JPG,AFNE01.JPG,AFNE01.JPG,AFNE01.JPG,,,,,,,,,4,8,48,7,,,,,,,,,,,,,,,AFSA18.jpg,AFNE01.jpg,AFNE04.jpg,AFSA09.jpg,AFSA18.jpg,FS,4,num_8,16,num_8,0.666792503558,,,2017_Aug_17_1416,59.9997883088,FEMA4ImagesEEG,001,201245,
AFNE01.JPG,AFNE01.JPG,AFNE01.JPG,AFNE01.JPG,AFNE01.JPG,AFNE01.JPG,,,,,,,,,4,9,49,8,,,,,,,,,,,,,,,AFSA19.jpg,AFNE14.jpg,AFSA08.jpg,AFNE04.jpg,AFSA08.jpg,FS,4,num_2,32,num_6,0.833541867556,,,2017_Aug_17_1416,59.9997883088,FEMA4ImagesEEG,001,201245,
AFNE01.JPG,AFNE01.JPG,AFNE01.JPG,AFNE01.JPG,AFNE01.JPG,AFNE01.JPG,,,,,,,,,5,0,50,3,,,,,,,,,,,,,,,AFSA09.jpg,AFSA07.jpg,AFNE09.jpg,AFNE19.jpg,AFNE09.jpg,FN,3,num_2,16,num_2,1.51675175357,,,2017_Aug_17_1416,59.9997883088,FEMA4ImagesEEG,001,201245,
AFNE01.JPG,AFNE01.JPG,AFNE01.JPG,AFNE01.JPG,AFNE01.JPG,AFNE01.JPG,,,,,,,,,5,1,51,4,,,,,,,,,,,,,,,AFNE10.jpg,AFNE06.jpg,AFSA08.jpg,AFSA20.jpg,AFSA20.jpg,FS,4,num_4,16,num_4,0.866740671976,,,2017_Aug_17_1416,59.9997883088,FEMA4ImagesEEG,001,201245,
AFNE01.JPG,AFNE01.JPG,AFNE01.JPG,AFNE01.JPG,AFNE01.JPG,AFNE01.JPG,,,,,,,,,5,2,52,0,,,,,,,,,,,,,,,AFNE07.jpg,AFSA08.jpg,AFSA10.jpg,AFNE06.jpg,AFSA10.jpg,FS,4,num_2,32,num_8,0.766840197495,,,2017_Aug_17_1416,59.9997883088,FEMA4ImagesEEG,001,201245,
AFNE01.JPG,AFNE01.JPG,AFNE01.JPG,AFNE01.JPG,AFNE01.JPG,AFNE01.JPG,,,,,,,,,5,3,53,9,,,,,,,,,,,,,,,AFNE12.jpg,AFSA20.jpg,AFSA15.jpg,AFNE06.jpg,AFNE06.jpg,FN,3,num_4,32,num_6,1.13341841486,,,2017_Aug_17_1416,59.9997883088,FEMA4ImagesEEG,001,201245,
AFNE01.JPG,AFNE01.JPG,AFNE01.JPG,AFNE01.JPG,AFNE01.JPG,AFNE01.JPG,,,,,,,,,5,4,54,6,,,,,,,,,,,,,,,AFSA20.jpg,AFSA02.jpg,AFNE02.jpg,AFNE19.jpg,AFNE02.jpg,FN,3,num_2,32,num_4,0.649794261495,,,2017_Aug_17_1416,59.9997883088,FEMA4ImagesEEG,001,201245,
AFNE01.JPG,AFNE01.JPG,AFNE01.JPG,AFNE01.JPG,AFNE01.JPG,AFNE01.JPG,,,,,,,,,5,5,55,8,,,,,,,,,,,,,,,AFSA06.jpg,AFNE02.jpg,AFSA02.jpg,AFNE08.jpg,AFSA02.jpg,FS,4,num_2,16,num_2,0.866746124579,,,2017_Aug_17_1416,59.9997883088,FEMA4ImagesEEG,001,201245,
AFNE01.JPG,AFNE01.JPG,AFNE01.JPG,AFNE01.JPG,AFNE01.JPG,AFNE01.JPG,,,,,,,,,5,6,56,2,,,,,,,,,,,,,,,AFNE01.jpg,AFSA12.jpg,AFNE20.jpg,AFSA08.jpg,AFNE20.jpg,FN,3,num_2,32,num_6,0.716771446983,,,2017_Aug_17_1416,59.9997883088,FEMA4ImagesEEG,001,201245,
AFNE01.JPG,AFNE01.JPG,AFNE01.JPG,AFNE01.JPG,AFNE01.JPG,AFNE01.JPG,,,,,,,,,5,7,57,7,,,,,,,,,,,,,,,AFSA16.jpg,AFSA18.jpg,AFNE05.jpg,AFNE19.jpg,AFNE19.jpg,FN,3,num_4,32,num_2,1.050100183,,,2017_Aug_17_1416,59.9997883088,FEMA4ImagesEEG,001,201245,
AFNE01.JPG,AFNE01.JPG,AFNE01.JPG,AFNE01.JPG,AFNE01.JPG,AFNE01.JPG,,,,,,,,,5,8,58,5,,,,,,,,,,,,,,,AFSA18.jpg,AFNE06.jpg,AFNE04.jpg,AFSA06.jpg,AFNE06.jpg,FN,3,num_6,32,num_2,0.766887667007,,,2017_Aug_17_1416,59.9997883088,FEMA4ImagesEEG,001,201245,
AFNE01.JPG,AFNE01.JPG,AFNE01.JPG,AFNE01.JPG,AFNE01.JPG,AFNE01.JPG,,,,,,,,,5,9,59,1,,,,,,,,,,,,,,,AFNE10.jpg,AFSA17.jpg,AFNE08.jpg,AFSA13.jpg,AFSA17.jpg,FS,4,num_6,32,num_8,0.683540889353,,,2017_Aug_17_1416,59.9997883088,FEMA4ImagesEEG,001,201245,
,,,,,,,,,,,,,,,,,,,,,,,,,,,,,,,,,,,,,,,,,,,space,23.4484043681,2017_Aug_17_1416,59.9997883088,FEMA4ImagesEEG,001,201245,
AFNE01.JPG,AFNE01.JPG,AFNE01.JPG,AFNE01.JPG,AFNE01.JPG,AFNE01.JPG,,,,,,,,,,,,,0,0,0,7,,,,,,,,,,,AMNE02.jpg,AMSA12.jpg,AMSA20.jpg,AMNE19.jpg,AMNE19.jpg,MN,1,num_4,16,num_4,0.733470759587,,,2017_Aug_17_1416,59.9997883088,FEMA4ImagesEEG,001,201245,
AFNE01.JPG,AFNE01.JPG,AFNE01.JPG,AFNE01.JPG,AFNE01.JPG,AFNE01.JPG,,,,,,,,,,,,,0,1,1,9,,,,,,,,,,,AMNE12.jpg,AMSA16.jpg,AMSA14.jpg,AMNE02.jpg,AMNE02.jpg,MN,1,num_4,16,num_4,0.800312272157,,,2017_Aug_17_1416,59.9997883088,FEMA4ImagesEEG,001,201245,
AFNE01.JPG,AFNE01.JPG,AFNE01.JPG,AFNE01.JPG,AFNE01.JPG,AFNE01.JPG,,,,,,,,,,,,,0,2,2,6,,,,,,,,,,,AMSA02.jpg,AMNE03.jpg,AMSA12.jpg,AMNE17.jpg,AMNE17.jpg,MN,1,num_4,32,num_2,0.950184313057,,,2017_Aug_17_1416,59.9997883088,FEMA4ImagesEEG,001,201245,
AFNE01.JPG,AFNE01.JPG,AFNE01.JPG,AFNE01.JPG,AFNE01.JPG,AFNE01.JPG,,,,,,,,,,,,,0,3,3,2,,,,,,,,,,,AMNE15.jpg,AMSA07.jpg,AMNE11.jpg,AMSA05.jpg,AMSA07.jpg,MS,2,num_6,16,num_6,0.633514797199,,,2017_Aug_17_1416,59.9997883088,FEMA4ImagesEEG,001,201245,
AFNE01.JPG,AFNE01.JPG,AFNE01.JPG,AFNE01.JPG,AFNE01.JPG,AFNE01.JPG,,,,,,,,,,,,,0,4,4,3,,,,,,,,,,,AMSA01.jpg,AMNE06.jpg,AMSA04.jpg,AMNE11.jpg,AMSA01.jpg,MS,2,num_8,32,num_4,0.716809294303,,,2017_Aug_17_1416,59.9997883088,FEMA4ImagesEEG,001,201245,
AFNE01.JPG,AFNE01.JPG,AFNE01.JPG,AFNE01.JPG,AFNE01.JPG,AFNE01.JPG,,,,,,,,,,,,,0,5,5,5,,,,,,,,,,,AMNE13.jpg,AMSA15.jpg,AMSA20.jpg,AMNE17.jpg,AMNE17.jpg,MN,1,num_4,32,num_8,0.900101770705,,,2017_Aug_17_1416,59.9997883088,FEMA4ImagesEEG,001,201245,
AFNE01.JPG,AFNE01.JPG,AFNE01.JPG,AFNE01.JPG,AFNE01.JPG,AFNE01.JPG,,,,,,,,,,,,,0,6,6,0,,,,,,,,,,,AMSA14.jpg,AMNE02.jpg,AMSA18.jpg,AMNE15.jpg,AMNE15.jpg,MN,1,num_4,32,num_6,1.71671948716,,,2017_Aug_17_1416,59.9997883088,FEMA4ImagesEEG,001,201245,
AFNE01.JPG,AFNE01.JPG,AFNE01.JPG,AFNE01.JPG,AFNE01.JPG,AFNE01.JPG,,,,,,,,,,,,,0,7,7,4,,,,,,,,,,,AMSA15.jpg,AMNE05.jpg,AMSA19.jpg,AMNE04.jpg,AMSA15.jpg,MS,2,num_8,16,num_8,0.983497942274,,,2017_Aug_17_1416,59.9997883088,FEMA4ImagesEEG,001,201245,
AFNE01.JPG,AFNE01.JPG,AFNE01.JPG,AFNE01.JPG,AFNE01.JPG,AFNE01.JPG,,,,,,,,,,,,,0,8,8,8,,,,,,,,,,,AMNE06.jpg,AMNE11.jpg,AMSA12.jpg,AMSA20.jpg,AMSA20.jpg,MS,2,num_4,16,num_4,0.833475153719,,,2017_Aug_17_1416,59.9997883088,FEMA4ImagesEEG,001,201245,
AFNE01.JPG,AFNE01.JPG,AFNE01.JPG,AFNE01.JPG,AFNE01.JPG,AFNE01.JPG,,,,,,,,,,,,,0,9,9,1,,,,,,,,,,,AMSA17.jpg,AMSA14.jpg,AMNE08.jpg,AMNE07.jpg,AMNE08.jpg,MN,1,num_2,16,num_2,1.06685081404,,,2017_Aug_17_1416,59.9997883088,FEMA4ImagesEEG,001,201245,
AFNE01.JPG,AFNE01.JPG,AFNE01.JPG,AFNE01.JPG,AFNE01.JPG,AFNE01.JPG,,,,,,,,,,,,,1,0,10,9,,,,,,,,,,,AMSA20.jpg,AMSA18.jpg,AMNE18.jpg,AMNE13.jpg,AMSA20.jpg,MS,2,num_8,16,num_8,0.883434532036,,,2017_Aug_17_1416,59.9997883088,FEMA4ImagesEEG,001,201245,
AFNE01.JPG,AFNE01.JPG,AFNE01.JPG,AFNE01.JPG,AFNE01.JPG,AFNE01.JPG,,,,,,,,,,,,,1,1,11,6,,,,,,,,,,,AMNE04.jpg,AMSA18.jpg,AMSA06.jpg,AMNE17.jpg,AMNE04.jpg,MN,1,num_8,16,num_8,0.866860307928,,,2017_Aug_17_1416,59.9997883088,FEMA4ImagesEEG,001,201245,
AFNE01.JPG,AFNE01.JPG,AFNE01.JPG,AFNE01.JPG,AFNE01.JPG,AFNE01.JPG,,,,,,,,,,,,,1,2,12,4,,,,,,,,,,,AMSA15.jpg,AMNE05.jpg,AMNE13.jpg,AMSA03.jpg,AMNE13.jpg,MN,1,num_2,16,num_2,1.2001046894,,,2017_Aug_17_1416,59.9997883088,FEMA4ImagesEEG,001,201245,
AFNE01.JPG,AFNE01.JPG,AFNE01.JPG,AFNE01.JPG,AFNE01.JPG,AFNE01.JPG,,,,,,,,,,,,,1,3,13,1,,,,,,,,,,,AMSA12.jpg,AMNE06.jpg,AMNE07.jpg,AMSA14.jpg,AMSA12.jpg,MS,2,num_8,16,num_8,0.916836043936,,,2017_Aug_17_1416,59.9997883088,FEMA4ImagesEEG,001,201245,
AFNE01.JPG,AFNE01.JPG,AFNE01.JPG,AFNE01.JPG,AFNE01.JPG,AFNE01.JPG,,,,,,,,,,,,,1,4,14,2,,,,,,,,,,,AMNE04.jpg,AMSA06.jpg,AMNE06.jpg,AMSA14.jpg,AMSA06.jpg,MS,2,num_6,16,num_6,0.950056979433,,,2017_Aug_17_1416,59.9997883088,FEMA4ImagesEEG,001,201245,
AFNE01.JPG,AFNE01.JPG,AFNE01.JPG,AFNE01.JPG,AFNE01.JPG,AFNE01.JPG,,,,,,,,,,,,,1,5,15,0,,,,,,,,,,,AMNE08.jpg,AMNE07.jpg,AMSA01.jpg,AMSA12.jpg,AMSA01.jpg,MS,2,num_2,16,num_2,1.93341764511,,,2017_Aug_17_1416,59.9997883088,FEMA4ImagesEEG,001,201245,
AFNE01.JPG,AFNE01.JPG,AFNE01.JPG,AFNE01.JPG,AFNE01.JPG,AFNE01.JPG,,,,,,,,,,,,,1,6,16,8,,,,,,,,,,,AMNE08.jpg,AMSA06.jpg,AMSA16.jpg,AMNE16.jpg,AMSA16.jpg,MS,2,num_2,16,num_2,1.40012117545,,,2017_Aug_17_1416,59.9997883088,FEMA4ImagesEEG,001,201245,
AFNE01.JPG,AFNE01.JPG,AFNE01.JPG,AFNE01.JPG,AFNE01.JPG,AFNE01.JPG,,,,,,,,,,,,,1,7,17,7,,,,,,,,,,,AMNE12.jpg,AMNE06.jpg,AMSA18.jpg,AMSA09.jpg,AMNE06.jpg,MN,1,num_6,16,num_6,0.900207935541,,,2017_Aug_17_1416,59.9997883088,FEMA4ImagesEEG,001,201245,
AFNE01.JPG,AFNE01.JPG,AFNE01.JPG,AFNE01.JPG,AFNE01.JPG,AFNE01.JPG,,,,,,,,,,,,,1,8,18,5,,,,,,,,,,,AMNE18.jpg,AMSA19.jpg,AMNE19.jpg,AMSA17.jpg,AMNE18.jpg,MN,1,num_8,32,num_6,1.15012350079,,,2017_Aug_17_1416,59.9997883088,FEMA4ImagesEEG,001,201245,
AFNE01.JPG,AFNE01.JPG,AFNE01.JPG,AFNE01.JPG,AFNE01.JPG,AFNE01.JPG,,,,,,,,,,,,,1,9,19,3,,,,,,,,,,,AMSA12.jpg,AMSA02.jpg,AMNE13.jpg,AMNE14.jpg,AMSA12.jpg,MS,2,num_8,32,num_4,1.04996515164,,,2017_Aug_17_1416,59.9997883088,FEMA4ImagesEEG,001,201245,
AFNE01.JPG,AFNE01.JPG,AFNE01.JPG,AFNE01.JPG,AFNE01.JPG,AFNE01.JPG,,,,,,,,,,,,,2,0,20,9,,,,,,,,,,,AMNE17.jpg,AMSA20.jpg,AMSA15.jpg,AMNE08.jpg,AMNE17.jpg,MN,1,num_8,16,num_8,0.550147171423,,,2017_Aug_17_1416,59.9997883088,FEMA4ImagesEEG,001,201245,
AFNE01.JPG,AFNE01.JPG,AFNE01.JPG,AFNE01.JPG,AFNE01.JPG,AFNE01.JPG,,,,,,,,,,,,,2,1,21,8,,,,,,,,,,,AMSA18.jpg,AMNE20.jpg,AMSA01.jpg,AMNE04.jpg,AMNE04.jpg,MN,1,num_4,16,num_4,1.03343101993,,,2017_Aug_17_1416,59.9997883088,FEMA4ImagesEEG,001,201245,
AFNE01.JPG,AFNE01.JPG,AFNE01.JPG,AFNE01.JPG,AFNE01.JPG,AFNE01.JPG,,,,,,,,,,,,,2,2,22,1,,,,,,,,,,,AMSA15.jpg,AMSA09.jpg,AMNE07.jpg,AMNE02.jpg,AMSA15.jpg,MS,2,num_8,32,num_4,0.8334238354,,,2017_Aug_17_1416,59.9997883088,FEMA4ImagesEEG,001,201245,
AFNE01.JPG,AFNE01.JPG,AFNE01.JPG,AFNE01.JPG,AFNE01.JPG,AFNE01.JPG,,,,,,,,,,,,,2,3,23,6,,,,,,,,,,,AMSA03.jpg,AMSA10.jpg,AMNE15.jpg,AMNE13.jpg,AMSA03.jpg,MS,2,num_8,16,num_8,0.700134999352,,,2017_Aug_17_1416,59.9997883088,FEMA4ImagesEEG,001,201245,
AFNE01.JPG,AFNE01.JPG,AFNE01.JPG,AFNE01.JPG,AFNE01.JPG,AFNE01.JPG,,,,,,,,,,,,,2,4,24,0,,,,,,,,,,,AMNE11.jpg,AMSA08.jpg,AMNE12.jpg,AMSA06.jpg,AMSA06.jpg,MS,2,num_4,16,num_4,0.883455059433,,,2017_Aug_17_1416,59.9997883088,FEMA4ImagesEEG,001,201245,
AFNE01.JPG,AFNE01.JPG,AFNE01.JPG,AFNE01.JPG,AFNE01.JPG,AFNE01.JPG,,,,,,,,,,,,,2,5,25,3,,,,,,,,,,,AMSA01.jpg,AMSA03.jpg,AMNE13.jpg,AMNE04.jpg,AMNE13.jpg,MN,1,num_2,32,num_6,0.733462099626,,,2017_Aug_17_1416,59.9997883088,FEMA4ImagesEEG,001,201245,
AFNE01.JPG,AFNE01.JPG,AFNE01.JPG,AFNE01.JPG,AFNE01.JPG,AFNE01.JPG,,,,,,,,,,,,,2,6,26,7,,,,,,,,,,,AMNE02.jpg,AMSA18.jpg,AMNE14.jpg,AMSA19.jpg,AMSA19.jpg,MS,2,num_4,16,num_4,0.900134486146,,,2017_Aug_17_1416,59.9997883088,FEMA4ImagesEEG,001,201245,
AFNE01.JPG,AFNE01.JPG,AFNE01.JPG,AFNE01.JPG,AFNE01.JPG,AFNE01.JPG,,,,,,,,,,,,,2,7,27,4,,,,,,,,,,,AMNE04.jpg,AMNE06.jpg,AMSA20.jpg,AMSA03.jpg,AMSA03.jpg,MS,2,num_4,16,num_4,0.783445212641,,,2017_Aug_17_1416,59.9997883088,FEMA4ImagesEEG,001,201245,
AFNE01.JPG,AFNE01.JPG,AFNE01.JPG,AFNE01.JPG,AFNE01.JPG,AFNE01.JPG,,,,,,,,,,,,,2,8,28,5,,,,,,,,,,,AMSA03.jpg,AMNE15.jpg,AMSA18.jpg,AMNE06.jpg,AMNE15.jpg,MN,1,num_6,16,num_6,0.733485513658,,,2017_Aug_17_1416,59.9997883088,FEMA4ImagesEEG,001,201245,
AFNE01.JPG,AFNE01.JPG,AFNE01.JPG,AFNE01.JPG,AFNE01.JPG,AFNE01.JPG,,,,,,,,,,,,,2,9,29,2,,,,,,,,,,,AMSA03.jpg,AMNE16.jpg,AMNE04.jpg,AMSA14.jpg,AMSA14.jpg,MS,2,num_4,16,num_4,0.533480894985,,,2017_Aug_17_1416,59.9997883088,FEMA4ImagesEEG,001,201245,
AFNE01.JPG,AFNE01.JPG,AFNE01.JPG,AFNE01.JPG,AFNE01.JPG,AFNE01.JPG,,,,,,,,,,,,,3,0,30,2,,,,,,,,,,,AMNE16.jpg,AMSA05.jpg,AMNE05.jpg,AMSA11.jpg,AMNE16.jpg,MN,1,num_8,16,num_8,0.850117374677,,,2017_Aug_17_1416,59.9997883088,FEMA4ImagesEEG,001,201245,
AFNE01.JPG,AFNE01.JPG,AFNE01.JPG,AFNE01.JPG,AFNE01.JPG,AFNE01.JPG,,,,,,,,,,,,,3,1,31,1,,,,,,,,,,,AMSA17.jpg,AMSA16.jpg,AMNE17.jpg,AMNE19.jpg,AMNE19.jpg,MN,1,num_4,16,num_4,0.783474079217,,,2017_Aug_17_1416,59.9997883088,FEMA4ImagesEEG,001,201245,
AFNE01.JPG,AFNE01.JPG,AFNE01.JPG,AFNE01.JPG,AFNE01.JPG,AFNE01.JPG,,,,,,,,,,,,,3,2,32,4,,,,,,,,,,,AMNE06.jpg,AMSA09.jpg,AMSA02.jpg,AMNE02.jpg,AMNE02.jpg,MN,1,num_4,16,num_4,2.28315574507,,,2017_Aug_17_1416,59.9997883088,FEMA4ImagesEEG,001,201245,
AFNE01.JPG,AFNE01.JPG,AFNE01.JPG,AFNE01.JPG,AFNE01.JPG,AFNE01.JPG,,,,,,,,,,,,,3,3,33,5,,,,,,,,,,,AMNE07.jpg,AMSA12.jpg,AMNE01.jpg,AMSA03.jpg,AMSA03.jpg,MS,2,num_4,32,num_2,2.43328501924,,,2017_Aug_17_1416,59.9997883088,FEMA4ImagesEEG,001,201245,
AFNE01.JPG,AFNE01.JPG,AFNE01.JPG,AFNE01.JPG,AFNE01.JPG,AFNE01.JPG,,,,,,,,,,,,,3,4,34,0,,,,,,,,,,,AMNE13.jpg,AMNE06.jpg,AMSA03.jpg,AMSA18.jpg,AMSA18.jpg,MS,2,num_4,16,num_4,0.95010637329,,,2017_Aug_17_1416,59.9997883088,FEMA4ImagesEEG,001,201245,
AFNE01.JPG,AFNE01.JPG,AFNE01.JPG,AFNE01.JPG,AFNE01.JPG,AFNE01.JPG,,,,,,,,,,,,,3,5,35,6,,,,,,,,,,,AMSA09.jpg,AMNE09.jpg,AMSA16.jpg,AMNE19.jpg,AMNE19.jpg,MN,1,num_4,32,num_2,1.01672368881,,,2017_Aug_17_1416,59.9997883088,FEMA4ImagesEEG,001,201245,
AFNE01.JPG,AFNE01.JPG,AFNE01.JPG,AFNE01.JPG,AFNE01.JPG,AFNE01.JPG,,,,,,,,,,,,,3,6,36,8,,,,,,,,,,,AMNE14.jpg,AMNE20.jpg,AMSA05.jpg,AMSA04.jpg,AMSA04.jpg,MS,2,num_4,16,num_4,0.716744184145,,,2017_Aug_17_1416,59.9997883088,FEMA4ImagesEEG,001,201245,
AFNE01.JPG,AFNE01.JPG,AFNE01.JPG,AFNE01.JPG,AFNE01.JPG,AFNE01.JPG,,,,,,,,,,,,,3,7,37,7,,,,,,,,,,,AMNE20.jpg,AMSA12.jpg,AMNE02.jpg,AMSA07.jpg,AMSA07.jpg,MS,2,num_4,16,num_4,0.90017008828,,,2017_Aug_17_1416,59.9997883088,FEMA4ImagesEEG,001,201245,
AFNE01.JPG,AFNE01.JPG,AFNE01.JPG,AFNE01.JPG,AFNE01.JPG,AFNE01.JPG,,,,,,,,,,,,,3,8,38,3,,,,,,,,,,,AMSA14.jpg,AMNE12.jpg,AMNE17.jpg,AMSA08.jpg,AMSA08.jpg,MS,2,num_4,32,num_6,1.58339825639,,,2017_Aug_17_1416,59.9997883088,FEMA4ImagesEEG,001,201245,
AFNE01.JPG,AFNE01.JPG,AFNE01.JPG,AFNE01.JPG,AFNE01.JPG,AFNE01.JPG,,,,,,,,,,,,,3,9,39,9,,,,,,,,,,,AMNE16.jpg,AMNE09.jpg,AMSA17.jpg,AMSA16.jpg,AMNE16.jpg,MN,1,num_8,32,num_4,0.866737143893,,,2017_Aug_17_1416,59.9997883088,FEMA4ImagesEEG,001,201245,
AFNE01.JPG,AFNE01.JPG,AFNE01.JPG,AFNE01.JPG,AFNE01.JPG,AFNE01.JPG,,,,,,,,,,,,,4,0,40,0,,,,,,,,,,,AMNE07.jpg,AMSA15.jpg,AMNE06.jpg,AMSA12.jpg,AMSA15.jpg,MS,2,num_6,16,num_6,0.733426497492,,,2017_Aug_17_1416,59.9997883088,FEMA4ImagesEEG,001,201245,
AFNE01.JPG,AFNE01.JPG,AFNE01.JPG,AFNE01.JPG,AFNE01.JPG,AFNE01.JPG,,,,,,,,,,,,,4,1,41,3,,,,,,,,,,,AMNE05.jpg,AMSA19.jpg,AMNE20.jpg,AMSA10.jpg,AMNE05.jpg,MN,1,num_8,16,num_8,0.700130188256,,,2017_Aug_17_1416,59.9997883088,FEMA4ImagesEEG,001,201245,
AFNE01.JPG,AFNE01.JPG,AFNE01.JPG,AFNE01.JPG,AFNE01.JPG,AFNE01.JPG,,,,,,,,,,,,,4,2,42,6,,,,,,,,,,,AMSA02.jpg,AMNE20.jpg,AMSA03.jpg,AMNE13.jpg,AMNE13.jpg,MN,1,num_4,32,num_6,2.49998508563,,,2017_Aug_17_1416,59.9997883088,FEMA4ImagesEEG,001,201245,
AFNE01.JPG,AFNE01.JPG,AFNE01.JPG,AFNE01.JPG,AFNE01.JPG,AFNE01.JPG,,,,,,,,,,,,,4,3,43,9,,,,,,,,,,,AMSA20.jpg,AMSA14.jpg,AMNE05.jpg,AMNE11.jpg,AMNE05.jpg,MN,1,num_2,16,num_2,1.01663388172,,,2017_Aug_17_1416,59.9997883088,FEMA4ImagesEEG,001,201245,
AFNE01.JPG,AFNE01.JPG,AFNE01.JPG,AFNE01.JPG,AFNE01.JPG,AFNE01.JPG,,,,,,,,,,,,,4,4,44,1,,,,,,,,,,,AMNE11.jpg,AMSA02.jpg,AMNE20.jpg,AMSA17.jpg,AMNE20.jpg,MN,1,num_2,16,num_2,0.883447040862,,,2017_Aug_17_1416,59.9997883088,FEMA4ImagesEEG,001,201245,
AFNE01.JPG,AFNE01.JPG,AFNE01.JPG,AFNE01.JPG,AFNE01.JPG,AFNE01.JPG,,,,,,,,,,,,,4,5,45,2,,,,,,,,,,,AMNE02.jpg,AMNE01.jpg,AMSA02.jpg,AMSA13.jpg,AMNE02.jpg,MN,1,num_8,32,num_2,1.94973623968,,,2017_Aug_17_1416,59.9997883088,FEMA4ImagesEEG,001,201245,
AFNE01.JPG,AFNE01.JPG,AFNE01.JPG,AFNE01.JPG,AFNE01.JPG,AFNE01.JPG,,,,,,,,,,,,,4,6,46,7,,,,,,,,,,,AMSA04.jpg,AMNE15.jpg,AMNE05.jpg,AMSA13.jpg,AMSA13.jpg,MS,2,num_4,16,num_4,1.28352138837,,,2017_Aug_17_1416,59.9997883088,FEMA4ImagesEEG,001,201245,
AFNE01.JPG,AFNE01.JPG,AFNE01.JPG,AFNE01.JPG,AFNE01.JPG,AFNE01.JPG,,,,,,,,,,,,,4,7,47,4,,,,,,,,,,,AMNE18.jpg,AMSA13.jpg,AMSA11.jpg,AMNE14.jpg,AMNE14.jpg,MN,1,num_4,32,num_8,0.883438380901,,,2017_Aug_17_1416,59.9997883088,FEMA4ImagesEEG,001,201245,
AFNE01.JPG,AFNE01.JPG,AFNE01.JPG,AFNE01.JPG,AFNE01.JPG,AFNE01.JPG,,,,,,,,,,,,,4,8,48,5,,,,,,,,,,,AMSA06.jpg,AMNE18.jpg,AMSA16.jpg,AMNE14.jpg,AMNE14.jpg,MN,1,num_4,32,num_6,1.05013129482,,,2017_Aug_17_1416,59.9997883088,FEMA4ImagesEEG,001,201245,
AFNE01.JPG,AFNE01.JPG,AFNE01.JPG,AFNE01.JPG,AFNE01.JPG,AFNE01.JPG,,,,,,,,,,,,,4,9,49,8,,,,,,,,,,,AMNE17.jpg,AMNE07.jpg,AMSA02.jpg,AMSA19.jpg,AMSA02.jpg,MS,2,num_2,32,num_8,0.866706994362,,,2017_Aug_17_1416,59.9997883088,FEMA4ImagesEEG,001,201245,
AFNE01.JPG,AFNE01.JPG,AFNE01.JPG,AFNE01.JPG,AFNE01.JPG,AFNE01.JPG,,,,,,,,,,,,,5,0,50,2,,,,,,,,,,,AMNE12.jpg,AMSA08.jpg,AMNE20.jpg,AMSA02.jpg,AMNE12.jpg,MN,1,num_8,16,num_8,1.01675255538,,,2017_Aug_17_1416,59.9997883088,FEMA4ImagesEEG,001,201245,
AFNE01.JPG,AFNE01.JPG,AFNE01.JPG,AFNE01.JPG,AFNE01.JPG,AFNE01.JPG,,,,,,,,,,,,,5,1,51,7,,,,,,,,,,,AMNE06.jpg,AMNE18.jpg,AMSA15.jpg,AMSA05.jpg,AMSA15.jpg,MS,2,num_2,16,num_2,0.583506024966,,,2017_Aug_17_1416,59.9997883088,FEMA4ImagesEEG,001,201245,
AFNE01.JPG,AFNE01.JPG,AFNE01.JPG,AFNE01.JPG,AFNE01.JPG,AFNE01.JPG,,,,,,,,,,,,,5,2,52,6,,,,,,,,,,,AMSA10.jpg,AMNE08.jpg,AMNE01.jpg,AMSA19.jpg,AMSA10.jpg,MS,2,num_8,32,num_6,0.749986929877,,,2017_Aug_17_1416,59.9997883088,FEMA4ImagesEEG,001,201245,
AFNE01.JPG,AFNE01.JPG,AFNE01.JPG,AFNE01.JPG,AFNE01.JPG,AFNE01.JPG,,,,,,,,,,,,,5,3,53,4,,,,,,,,,,,AMNE19.jpg,AMNE04.jpg,AMSA08.jpg,AMSA09.jpg,AMNE19.jpg,MN,1,num_8,32,num_6,1.31671185355,,,2017_Aug_17_1416,59.9997883088,FEMA4ImagesEEG,001,201245,
AFNE01.JPG,AFNE01.JPG,AFNE01.JPG,AFNE01.JPG,AFNE01.JPG,AFNE01.JPG,,,,,,,,,,,,,5,4,54,3,,,,,,,,,,,AMSA04.jpg,AMNE20.jpg,AMNE17.jpg,AMSA15.jpg,AMSA15.jpg,MS,2,num_4,16,num_4,0.583476837608,,,2017_Aug_17_1416,59.9997883088,FEMA4ImagesEEG,001,201245,
AFNE01.JPG,AFNE01.JPG,AFNE01.JPG,AFNE01.JPG,AFNE01.JPG,AFNE01.JPG,,,,,,,,,,,,,5,5,55,9,,,,,,,,,,,AMSA11.jpg,AMSA20.jpg,AMNE06.jpg,AMNE17.jpg,AMSA11.jpg,MS,2,num_8,32,num_4,0.650200638687,,,2017_Aug_17_1416,59.9997883088,FEMA4ImagesEEG,001,201245,
AFNE01.JPG,AFNE01.JPG,AFNE01.JPG,AFNE01.JPG,AFNE01.JPG,AFNE01.JPG,,,,,,,,,,,,,5,6,56,8,,,,,,,,,,,AMSA07.jpg,AMNE13.jpg,AMSA02.jpg,AMNE12.jpg,AMSA07.jpg,MS,2,num_8,32,num_6,3.33295218769,,,2017_Aug_17_1416,59.9997883088,FEMA4ImagesEEG,001,201245,
AFNE01.JPG,AFNE01.JPG,AFNE01.JPG,AFNE01.JPG,AFNE01.JPG,AFNE01.JPG,,,,,,,,,,,,,5,7,57,5,,,,,,,,,,,AMNE18.jpg,AMSA01.jpg,AMNE07.jpg,AMSA10.jpg,AMSA01.jpg,MS,2,num_6,16,num_6,1.000092373,,,2017_Aug_17_1416,59.9997883088,FEMA4ImagesEEG,001,201245,
AFNE01.JPG,AFNE01.JPG,AFNE01.JPG,AFNE01.JPG,AFNE01.JPG,AFNE01.JPG,,,,,,,,,,,,,5,8,58,0,,,,,,,,,,,AMSA02.jpg,AMSA17.jpg,AMNE08.jpg,AMNE16.jpg,AMSA02.jpg,MS,2,num_8,32,num_6,0.783553301939,,,2017_Aug_17_1416,59.9997883088,FEMA4ImagesEEG,001,201245,
AFNE01.JPG,AFNE01.JPG,AFNE01.JPG,AFNE01.JPG,AFNE01.JPG,AFNE01.JPG,,,,,,,,,,,,,5,9,59,1,,,,,,,,,,,AMSA08.jpg,AMNE15.jpg,AMNE02.jpg,AMSA15.jpg,AMSA15.jpg,MS,2,num_4,32,num_2,1.30003499269,,,2017_Aug_17_1416,59.9997883088,FEMA4ImagesEEG,001,201245,
,,,,,,,,,,,,,,,,,,,,,,,,,,,,,,,,,,,,,,,,,,,space,13.6490665032,2017_Aug_17_1416,59.9997883088,FEMA4ImagesEEG,001,201245,
AFNE01.JPG,AFNE01.JPG,AFNE01.JPG,AFNE01.JPG,AFNE01.JPG,AFNE01.JPG,,,,,,,,,,,,,,,,,0,0,0,7,,,,,,,AFSA03.jpg,AFNE07.jpg,AFSA12.jpg,AFNE10.jpg,AFNE10.jpg,FN,3,num_4,32,num_6,0.650228863815,,,2017_Aug_17_1416,59.9997883088,FEMA4ImagesEEG,001,201245,
AFNE01.JPG,AFNE01.JPG,AFNE01.JPG,AFNE01.JPG,AFNE01.JPG,AFNE01.JPG,,,,,,,,,,,,,,,,,0,1,1,4,,,,,,,AFSA02.jpg,AFNE11.jpg,AFSA16.jpg,AFNE03.jpg,AFNE03.jpg,FN,3,num_4,32,num_6,0.716768881073,,,2017_Aug_17_1416,59.9997883088,FEMA4ImagesEEG,001,201245,
AFNE01.JPG,AFNE01.JPG,AFNE01.JPG,AFNE01.JPG,AFNE01.JPG,AFNE01.JPG,,,,,,,,,,,,,,,,,0,2,2,2,,,,,,,AFSA11.jpg,AFNE18.jpg,AFSA09.jpg,AFNE04.jpg,AFSA09.jpg,FS,4,num_2,16,num_2,0.750161733013,,,2017_Aug_17_1416,59.9997883088,FEMA4ImagesEEG,001,201245,
AFNE01.JPG,AFNE01.JPG,AFNE01.JPG,AFNE01.JPG,AFNE01.JPG,AFNE01.JPG,,,,,,,,,,,,,,,,,0,3,3,0,,,,,,,AFNE12.jpg,AFSA18.jpg,AFNE02.jpg,AFSA20.jpg,AFNE02.jpg,FN,3,num_2,32,num_8,0.6834607044,,,2017_Aug_17_1416,59.9997883088,FEMA4ImagesEEG,001,201245,
AFNE01.JPG,AFNE01.JPG,AFNE01.JPG,AFNE01.JPG,AFNE01.JPG,AFNE01.JPG,,,,,,,,,,,,,,,,,0,4,4,3,,,,,,,AFSA14.jpg,AFNE08.jpg,AFSA06.jpg,AFNE17.jpg,AFNE08.jpg,FN,3,num_6,32,num_2,1.43310700869,,,2017_Aug_17_1416,59.9997883088,FEMA4ImagesEEG,001,201245,
AFNE01.JPG,AFNE01.JPG,AFNE01.JPG,AFNE01.JPG,AFNE01.JPG,AFNE01.JPG,,,,,,,,,,,,,,,,,0,5,5,5,,,,,,,AFNE12.jpg,AFSA14.jpg,AFSA10.jpg,AFNE13.jpg,AFNE13.jpg,FN,3,num_4,32,num_6,1.76671639201,,,2017_Aug_17_1416,59.9997883088,FEMA4ImagesEEG,001,201245,
AFNE01.JPG,AFNE01.JPG,AFNE01.JPG,AFNE01.JPG,AFNE01.JPG,AFNE01.JPG,,,,,,,,,,,,,,,,,0,6,6,6,,,,,,,AFNE11.jpg,AFSA13.jpg,AFSA04.jpg,AFNE10.jpg,AFSA13.jpg,FS,4,num_6,16,num_6,0.750035040779,,,2017_Aug_17_1416,59.9997883088,FEMA4ImagesEEG,001,201245,
AFNE01.JPG,AFNE01.JPG,AFNE01.JPG,AFNE01.JPG,AFNE01.JPG,AFNE01.JPG,,,,,,,,,,,,,,,,,0,7,7,8,,,,,,,AFNE18.jpg,AFSA04.jpg,AFSA02.jpg,AFNE12.jpg,AFSA04.jpg,FS,4,num_6,16,num_6,0.633715901,,,2017_Aug_17_1416,59.9997883088,FEMA4ImagesEEG,001,201245,
AFNE01.JPG,AFNE01.JPG,AFNE01.JPG,AFNE01.JPG,AFNE01.JPG,AFNE01.JPG,,,,,,,,,,,,,,,,,0,8,8,1,,,,,,,AFSA01.jpg,AFNE19.jpg,AFNE14.jpg,AFSA04.jpg,AFNE14.jpg,FN,3,num_2,16,num_2,0.733445741876,,,2017_Aug_17_1416,59.9997883088,FEMA4ImagesEEG,001,201245,
AFNE01.JPG,AFNE01.JPG,AFNE01.JPG,AFNE01.JPG,AFNE01.JPG,AFNE01.JPG,,,,,,,,,,,,,,,,,0,9,9,9,,,,,,,AFSA18.jpg,AFNE13.jpg,AFSA09.jpg,AFNE07.jpg,AFSA18.jpg,FS,4,num_8,16,num_8,0.766775728844,,,2017_Aug_17_1416,59.9997883088,FEMA4ImagesEEG,001,201245,
AFNE01.JPG,AFNE01.JPG,AFNE01.JPG,AFNE01.JPG,AFNE01.JPG,AFNE01.JPG,,,,,,,,,,,,,,,,,1,0,10,2,,,,,,,AFNE12.jpg,AFSA01.jpg,AFSA12.jpg,AFNE03.jpg,AFNE03.jpg,FN,3,num_4,32,num_8,0.600147283694,,,2017_Aug_17_1416,59.9997883088,FEMA4ImagesEEG,001,201245,
AFNE01.JPG,AFNE01.JPG,AFNE01.JPG,AFNE01.JPG,AFNE01.JPG,AFNE01.JPG,,,,,,,,,,,,,,,,,1,1,11,6,,,,,,,AFSA02.jpg,AFNE01.jpg,AFNE17.jpg,AFSA15.jpg,AFNE17.jpg,FN,3,num_2,32,num_6,0.716772409214,,,2017_Aug_17_1416,59.9997883088,FEMA4ImagesEEG,001,201245,
AFNE01.JPG,AFNE01.JPG,AFNE01.JPG,AFNE01.JPG,AFNE01.JPG,AFNE01.JPG,,,,,,,,,,,,,,,,,1,2,12,1,,,,,,,AFNE19.jpg,AFSA17.jpg,AFSA01.jpg,AFNE14.jpg,AFNE19.jpg,FN,3,num_8,32,num_4,0.766762578511,,,2017_Aug_17_1416,59.9997883088,FEMA4ImagesEEG,001,201245,
AFNE01.JPG,AFNE01.JPG,AFNE01.JPG,AFNE01.JPG,AFNE01.JPG,AFNE01.JPG,,,,,,,,,,,,,,,,,1,3,13,9,,,,,,,AFSA14.jpg,AFNE02.jpg,AFNE20.jpg,AFSA06.jpg,AFSA06.jpg,FS,4,num_4,32,num_6,0.733510210586,,,2017_Aug_17_1416,59.9997883088,FEMA4ImagesEEG,001,201245,
AFNE01.JPG,AFNE01.JPG,AFNE01.JPG,AFNE01.JPG,AFNE01.JPG,AFNE01.JPG,,,,,,,,,,,,,,,,,1,4,14,7,,,,,,,AFNE09.jpg,AFSA01.jpg,AFNE13.jpg,AFSA08.jpg,AFNE13.jpg,FN,3,num_2,32,num_8,0.900142504659,,,2017_Aug_17_1416,59.9997883088,FEMA4ImagesEEG,001,201245,
AFNE01.JPG,AFNE01.JPG,AFNE01.JPG,AFNE01.JPG,AFNE01.JPG,AFNE01.JPG,,,,,,,,,,,,,,,,,1,5,15,0,,,,,,,AFNE12.jpg,AFNE07.jpg,AFSA10.jpg,AFSA17.jpg,AFNE07.jpg,FN,3,num_6,16,num_6,0.566793241247,,,2017_Aug_17_1416,59.9997883088,FEMA4ImagesEEG,001,201245,
AFNE01.JPG,AFNE01.JPG,AFNE01.JPG,AFNE01.JPG,AFNE01.JPG,AFNE01.JPG,,,,,,,,,,,,,,,,,1,6,16,3,,,,,,,AFNE08.jpg,AFNE19.jpg,AFSA11.jpg,AFSA09.jpg,AFNE19.jpg,FN,3,num_6,32,num_4,0.900107543974,,,2017_Aug_17_1416,59.9997883088,FEMA4ImagesEEG,001,201245,
AFNE01.JPG,AFNE01.JPG,AFNE01.JPG,AFNE01.JPG,AFNE01.JPG,AFNE01.JPG,,,,,,,,,,,,,,,,,1,7,17,5,,,,,,,AFNE09.jpg,AFSA10.jpg,AFNE10.jpg,AFSA16.jpg,AFNE10.jpg,FN,3,num_2,32,num_6,0.750137356808,,,2017_Aug_17_1416,59.9997883088,FEMA4ImagesEEG,001,201245,
AFNE01.JPG,AFNE01.JPG,AFNE01.JPG,AFNE01.JPG,AFNE01.JPG,AFNE01.JPG,,,,,,,,,,,,,,,,,1,8,18,8,,,,,,,AFNE17.jpg,AFSA07.jpg,AFSA12.jpg,AFNE08.jpg,AFNE08.jpg,FN,3,num_4,32,num_8,0.867123955977,,,2017_Aug_17_1416,59.9997883088,FEMA4ImagesEEG,001,201245,
AFNE01.JPG,AFNE01.JPG,AFNE01.JPG,AFNE01.JPG,AFNE01.JPG,AFNE01.JPG,,,,,,,,,,,,,,,,,1,9,19,4,,,,,,,AFNE06.jpg,AFNE09.jpg,AFSA07.jpg,AFSA18.jpg,AFSA07.jpg,FS,4,num_2,32,num_4,0.583497685671,,,2017_Aug_17_1416,59.9997883088,FEMA4ImagesEEG,001,201245,
AFNE01.JPG,AFNE01.JPG,AFNE01.JPG,AFNE01.JPG,AFNE01.JPG,AFNE01.JPG,,,,,,,,,,,,,,,,,2,0,20,5,,,,,,,AFSA15.jpg,AFSA18.jpg,AFNE09.jpg,AFNE07.jpg,AFSA18.jpg,FS,4,num_6,16,num_6,0.849970796669,,,2017_Aug_17_1416,59.9997883088,FEMA4ImagesEEG,001,201245,
AFNE01.JPG,AFNE01.JPG,AFNE01.JPG,AFNE01.JPG,AFNE01.JPG,AFNE01.JPG,,,,,,,,,,,,,,,,,2,1,21,1,,,,,,,AFSA03.jpg,AFNE17.jpg,AFNE15.jpg,AFSA11.jpg,AFSA03.jpg,FS,4,num_8,32,num_6,0.783416025399,,,2017_Aug_17_1416,59.9997883088,FEMA4ImagesEEG,001,201245,
AFNE01.JPG,AFNE01.JPG,AFNE01.JPG,AFNE01.JPG,AFNE01.JPG,AFNE01.JPG,,,,,,,,,,,,,,,,,2,2,22,2,,,,,,,AFNE14.jpg,AFSA18.jpg,AFNE02.jpg,AFSA08.jpg,AFNE14.jpg,FN,3,num_8,16,num_8,0.850141109433,,,2017_Aug_17_1416,59.9997883088,FEMA4ImagesEEG,001,201245,
AFNE01.JPG,AFNE01.JPG,AFNE01.JPG,AFNE01.JPG,AFNE01.JPG,AFNE01.JPG,,,,,,,,,,,,,,,,,2,3,23,4,,,,,,,AFNE09.jpg,AFNE12.jpg,AFSA14.jpg,AFSA08.jpg,AFNE09.jpg,FN,3,num_8,32,num_2,1.06677127053,,,2017_Aug_17_1416,59.9997883088,FEMA4ImagesEEG,001,201245,
AFNE01.JPG,AFNE01.JPG,AFNE01.JPG,AFNE01.JPG,AFNE01.JPG,AFNE01.JPG,,,,,,,,,,,,,,,,,2,4,24,8,,,,,,,AFSA19.jpg,AFNE11.jpg,AFSA10.jpg,AFNE12.jpg,AFNE11.jpg,FN,3,num_6,16,num_6,0.666821370134,,,2017_Aug_17_1416,59.9997883088,FEMA4ImagesEEG,001,201245,
AFNE01.JPG,AFNE01.JPG,AFNE01.JPG,AFNE01.JPG,AFNE01.JPG,AFNE01.JPG,,,,,,,,,,,,,,,,,2,5,25,3,,,,,,,AFSA07.jpg,AFNE09.jpg,AFSA08.jpg,AFNE15.jpg,AFNE09.jpg,FN,3,num_6,32,num_8,0.750131262757,,,2017_Aug_17_1416,59.9997883088,FEMA4ImagesEEG,001,201245,
AFNE01.JPG,AFNE01.JPG,AFNE01.JPG,AFNE01.JPG,AFNE01.JPG,AFNE01.JPG,,,,,,,,,,,,,,,,,2,6,26,9,,,,,,,AFNE04.jpg,AFNE03.jpg,AFSA17.jpg,AFSA01.jpg,AFNE04.jpg,FN,3,num_8,16,num_8,0.850132128689,,,2017_Aug_17_1416,59.9997883088,FEMA4ImagesEEG,001,201245,
AFNE01.JPG,AFNE01.JPG,AFNE01.JPG,AFNE01.JPG,AFNE01.JPG,AFNE01.JPG,,,,,,,,,,,,,,,,,2,7,27,7,,,,,,,AFSA19.jpg,AFSA20.jpg,AFNE02.jpg,AFNE17.jpg,AFSA20.jpg,FS,4,num_6,16,num_6,0.850131166517,,,2017_Aug_17_1416,59.9997883088,FEMA4ImagesEEG,001,201245,
AFNE01.JPG,AFNE01.JPG,AFNE01.JPG,AFNE01.JPG,AFNE01.JPG,AFNE01.JPG,,,,,,,,,,,,,,,,,2,8,28,6,,,,,,,AFNE13.jpg,AFNE19.jpg,AFSA17.jpg,AFSA16.jpg,AFNE13.jpg,FN,3,num_8,16,num_8,0.700129226025,,,2017_Aug_17_1416,59.9997883088,FEMA4ImagesEEG,001,201245,
AFNE01.JPG,AFNE01.JPG,AFNE01.JPG,AFNE01.JPG,AFNE01.JPG,AFNE01.JPG,,,,,,,,,,,,,,,,,2,9,29,0,,,,,,,AFSA13.jpg,AFNE16.jpg,AFSA04.jpg,AFNE03.jpg,AFNE16.jpg,FN,3,num_6,16,num_6,1.18346984545,,,2017_Aug_17_1416,59.9997883088,FEMA4ImagesEEG,001,201245,
AFNE01.JPG,AFNE01.JPG,AFNE01.JPG,AFNE01.JPG,AFNE01.JPG,AFNE01.JPG,,,,,,,,,,,,,,,,,3,0,30,6,,,,,,,AFSA07.jpg,AFSA20.jpg,AFNE02.jpg,AFNE05.jpg,AFSA20.jpg,FS,4,num_6,16,num_6,0.78397507465,,,2017_Aug_17_1416,59.9997883088,FEMA4ImagesEEG,001,201245,
AFNE01.JPG,AFNE01.JPG,AFNE01.JPG,AFNE01.JPG,AFNE01.JPG,AFNE01.JPG,,,,,,,,,,,,,,,,,3,1,31,7,,,,,,,AFSA16.jpg,AFSA14.jpg,AFNE14.jpg,AFNE07.jpg,AFNE07.jpg,FN,3,num_4,32,num_2,2.84997207962,,,2017_Aug_17_1416,59.9997883088,FEMA4ImagesEEG,001,201245,
AFNE01.JPG,AFNE01.JPG,AFNE01.JPG,AFNE01.JPG,AFNE01.JPG,AFNE01.JPG,,,,,,,,,,,,,,,,,3,2,32,5,,,,,,,AFSA07.jpg,AFNE19.jpg,AFNE17.jpg,AFSA09.jpg,AFSA09.jpg,FS,4,num_4,16,num_4,0.566799335298,,,2017_Aug_17_1416,59.9997883088,FEMA4ImagesEEG,001,201245,
AFNE01.JPG,AFNE01.JPG,AFNE01.JPG,AFNE01.JPG,AFNE01.JPG,AFNE01.JPG,,,,,,,,,,,,,,,,,3,3,33,4,,,,,,,AFSA16.jpg,AFSA15.jpg,AFNE14.jpg,AFNE05.jpg,AFSA15.jpg,FS,4,num_6,16,num_6,0.716770484752,,,2017_Aug_17_1416,59.9997883088,FEMA4ImagesEEG,001,201245,
AFNE01.JPG,AFNE01.JPG,AFNE01.JPG,AFNE01.JPG,AFNE01.JPG,AFNE01.JPG,,,,,,,,,,,,,,,,,3,4,34,3,,,,,,,AFSA16.jpg,AFNE19.jpg,AFNE20.jpg,AFSA19.jpg,AFSA16.jpg,FS,4,num_8,16,num_8,0.616652869561,,,2017_Aug_17_1416,59.9997883088,FEMA4ImagesEEG,001,201245,
AFNE01.JPG,AFNE01.JPG,AFNE01.JPG,AFNE01.JPG,AFNE01.JPG,AFNE01.JPG,,,,,,,,,,,,,,,,,3,5,35,1,,,,,,,AFSA15.jpg,AFSA12.jpg,AFNE09.jpg,AFNE16.jpg,AFNE16.jpg,FN,3,num_4,32,num_8,1.23345039261,,,2017_Aug_17_1416,59.9997883088,FEMA4ImagesEEG,001,201245,
AFNE01.JPG,AFNE01.JPG,AFNE01.JPG,AFNE01.JPG,AFNE01.JPG,AFNE01.JPG,,,,,,,,,,,,,,,,,3,6,36,2,,,,,,,AFSA07.jpg,AFNE03.jpg,AFSA01.jpg,AFNE09.jpg,AFNE03.jpg,FN,3,num_6,32,num_8,0.650149961875,,,2017_Aug_17_1416,59.9997883088,FEMA4ImagesEEG,001,201245,
AFNE01.JPG,AFNE01.JPG,AFNE01.JPG,AFNE01.JPG,AFNE01.JPG,AFNE01.JPG,,,,,,,,,,,,,,,,,3,7,37,8,,,,,,,AFNE08.jpg,AFNE16.jpg,AFSA11.jpg,AFSA17.jpg,AFNE08.jpg,FN,3,num_8,32,num_6,0.750146337494,,,2017_Aug_17_1416,59.9997883088,FEMA4ImagesEEG,001,201245,
AFNE01.JPG,AFNE01.JPG,AFNE01.JPG,AFNE01.JPG,AFNE01.JPG,AFNE01.JPG,,,,,,,,,,,,,,,,,3,8,38,0,,,,,,,AFNE18.jpg,AFNE07.jpg,AFSA08.jpg,AFSA02.jpg,AFNE18.jpg,FN,3,num_8,16,num_8,0.95010476961,,,2017_Aug_17_1416,59.9997883088,FEMA4ImagesEEG,001,201245,
AFNE01.JPG,AFNE01.JPG,AFNE01.JPG,AFNE01.JPG,AFNE01.JPG,AFNE01.JPG,,,,,,,,,,,,,,,,,3,9,39,9,,,,,,,AFNE14.jpg,AFSA18.jpg,AFNE19.jpg,AFSA03.jpg,AFNE19.jpg,FN,3,num_2,32,num_6,0.666763636924,,,2017_Aug_17_1416,59.9997883088,FEMA4ImagesEEG,001,201245,
AFNE01.JPG,AFNE01.JPG,AFNE01.JPG,AFNE01.JPG,AFNE01.JPG,AFNE01.JPG,,,,,,,,,,,,,,,,,4,0,40,3,,,,,,,AFNE03.jpg,AFNE20.jpg,AFSA19.jpg,AFSA18.jpg,AFSA18.jpg,FS,4,num_4,32,num_2,0.950129145815,,,2017_Aug_17_1416,59.9997883088,FEMA4ImagesEEG,001,201245,
AFNE01.JPG,AFNE01.JPG,AFNE01.JPG,AFNE01.JPG,AFNE01.JPG,AFNE01.JPG,,,,,,,,,,,,,,,,,4,1,41,7,,,,,,,AFNE16.jpg,AFSA15.jpg,AFNE10.jpg,AFSA20.jpg,AFNE10.jpg,FN,3,num_2,32,num_4,0.916756500548,,,2017_Aug_17_1416,59.9997883088,FEMA4ImagesEEG,001,201245,
AFNE01.JPG,AFNE01.JPG,AFNE01.JPG,AFNE01.JPG,AFNE01.JPG,AFNE01.JPG,,,,,,,,,,,,,,,,,4,2,42,8,,,,,,,AFNE08.jpg,AFSA18.jpg,AFSA02.jpg,AFNE12.jpg,AFSA02.jpg,FS,4,num_2,16,num_2,0.883433890587,,,2017_Aug_17_1416,59.9997883088,FEMA4ImagesEEG,001,201245,
AFNE01.JPG,AFNE01.JPG,AFNE01.JPG,AFNE01.JPG,AFNE01.JPG,AFNE01.JPG,,,,,,,,,,,,,,,,,4,3,43,9,,,,,,,AFSA14.jpg,AFSA19.jpg,AFNE15.jpg,AFNE17.jpg,AFNE17.jpg,FN,3,num_4,32,num_6,0.766781181446,,,2017_Aug_17_1416,59.9997883088,FEMA4ImagesEEG,001,201245,
AFNE01.JPG,AFNE01.JPG,AFNE01.JPG,AFNE01.JPG,AFNE01.JPG,AFNE01.JPG,,,,,,,,,,,,,,,,,4,4,44,0,,,,,,,AFSA19.jpg,AFSA09.jpg,AFNE05.jpg,AFNE11.jpg,AFNE11.jpg,FN,3,num_4,16,num_4,1.00011674926,,,2017_Aug_17_1416,59.9997883088,FEMA4ImagesEEG,001,201245,
AFNE01.JPG,AFNE01.JPG,AFNE01.JPG,AFNE01.JPG,AFNE01.JPG,AFNE01.JPG,,,,,,,,,,,,,,,,,4,5,45,4,,,,,,,AFSA07.jpg,AFNE10.jpg,AFSA06.jpg,AFNE16.jpg,AFNE10.jpg,FN,3,num_6,16,num_6,0.866753501643,,,2017_Aug_17_1416,59.9997883088,FEMA4ImagesEEG,001,201245,
AFNE01.JPG,AFNE01.JPG,AFNE01.JPG,AFNE01.JPG,AFNE01.JPG,AFNE01.JPG,,,,,,,,,,,,,,,,,4,6,46,1,,,,,,,AFSA18.jpg,AFNE13.jpg,AFSA04.jpg,AFNE20.jpg,AFSA18.jpg,FS,4,num_8,16,num_8,0.916827704699,,,2017_Aug_17_1416,59.9997883088,FEMA4ImagesEEG,001,201245,
AFNE01.JPG,AFNE01.JPG,AFNE01.JPG,AFNE01.JPG,AFNE01.JPG,AFNE01.JPG,,,,,,,,,,,,,,,,,4,7,47,5,,,,,,,AFSA09.jpg,AFSA14.jpg,AFNE10.jpg,AFNE06.jpg,AFSA14.jpg,FS,4,num_6,16,num_6,0.650145471503,,,2017_Aug_17_1416,59.9997883088,FEMA4ImagesEEG,001,201245,
AFNE01.JPG,AFNE01.JPG,AFNE01.JPG,AFNE01.JPG,AFNE01.JPG,AFNE01.JPG,,,,,,,,,,,,,,,,,4,8,48,2,,,,,,,AFSA16.jpg,AFNE08.jpg,AFSA03.jpg,AFNE06.jpg,AFSA03.jpg,FS,4,num_2,16,num_2,1.33342559944,,,2017_Aug_17_1416,59.9997883088,FEMA4ImagesEEG,001,201245,
AFNE01.JPG,AFNE01.JPG,AFNE01.JPG,AFNE01.JPG,AFNE01.JPG,AFNE01.JPG,,,,,,,,,,,,,,,,,4,9,49,6,,,,,,,AFNE07.jpg,AFSA12.jpg,AFSA07.jpg,AFNE15.jpg,AFSA12.jpg,FS,4,num_6,32,num_8,0.783493323659,,,2017_Aug_17_1416,59.9997883088,FEMA4ImagesEEG,001,201245,
AFNE01.JPG,AFNE01.JPG,AFNE01.JPG,AFNE01.JPG,AFNE01.JPG,AFNE01.JPG,,,,,,,,,,,,,,,,,5,0,50,5,,,,,,,AFSA11.jpg,AFNE01.jpg,AFNE20.jpg,AFSA13.jpg,AFNE20.jpg,FN,3,num_2,32,num_6,0.783450985968,,,2017_Aug_17_1416,59.9997883088,FEMA4ImagesEEG,001,201245,
AFNE01.JPG,AFNE01.JPG,AFNE01.JPG,AFNE01.JPG,AFNE01.JPG,AFNE01.JPG,,,,,,,,,,,,,,,,,5,1,51,3,,,,,,,AFSA05.jpg,AFNE01.jpg,AFSA08.jpg,AFNE10.jpg,AFSA08.jpg,FS,4,num_2,32,num_8,0.916809101822,,,2017_Aug_17_1416,59.9997883088,FEMA4ImagesEEG,001,201245,
AFNE01.JPG,AFNE01.JPG,AFNE01.JPG,AFNE01.JPG,AFNE01.JPG,AFNE01.JPG,,,,,,,,,,,,,,,,,5,2,52,4,,,,,,,AFNE12.jpg,AFNE02.jpg,AFSA20.jpg,AFSA16.jpg,AFNE12.jpg,FN,3,num_8,32,num_6,1.71673873154,,,2017_Aug_17_1416,59.9997883088,FEMA4ImagesEEG,001,201245,
AFNE01.JPG,AFNE01.JPG,AFNE01.JPG,AFNE01.JPG,AFNE01.JPG,AFNE01.JPG,,,,,,,,,,,,,,,,,5,3,53,0,,,,,,,AFNE13.jpg,AFSA01.jpg,AFNE03.jpg,AFSA04.jpg,AFSA01.jpg,FS,4,num_6,32,num_4,0.616801371973,,,2017_Aug_17_1416,59.9997883088,FEMA4ImagesEEG,001,201245,
AFNE01.JPG,AFNE01.JPG,AFNE01.JPG,AFNE01.JPG,AFNE01.JPG,AFNE01.JPG,,,,,,,,,,,,,,,,,5,4,54,6,,,,,,,AFSA10.jpg,AFNE08.jpg,AFNE05.jpg,AFSA15.jpg,AFNE05.jpg,FN,3,num_2,32,num_8,0.733428421954,,,2017_Aug_17_1416,59.9997883088,FEMA4ImagesEEG,001,201245,
AFNE01.JPG,AFNE01.JPG,AFNE01.JPG,AFNE01.JPG,AFNE01.JPG,AFNE01.JPG,,,,,,,,,,,,,,,,,5,5,55,1,,,,,,,AFNE16.jpg,AFSA06.jpg,AFSA09.jpg,AFNE13.jpg,AFNE16.jpg,FN,3,num_8,32,num_6,0.683508173912,,,2017_Aug_17_1416,59.9997883088,FEMA4ImagesEEG,001,201245,
AFNE01.JPG,AFNE01.JPG,AFNE01.JPG,AFNE01.JPG,AFNE01.JPG,AFNE01.JPG,,,,,,,,,,,,,,,,,5,6,56,2,,,,,,,AFSA17.jpg,AFNE06.jpg,AFSA02.jpg,AFNE09.jpg,AFSA02.jpg,FS,4,num_2,16,num_2,0.633462195809,,,2017_Aug_17_1416,59.9997883088,FEMA4ImagesEEG,001,201245,
AFNE01.JPG,AFNE01.JPG,AFNE01.JPG,AFNE01.JPG,AFNE01.JPG,AFNE01.JPG,,,,,,,,,,,,,,,,,5,7,57,7,,,,,,,AFNE11.jpg,AFSA17.jpg,AFNE02.jpg,AFSA03.jpg,AFSA03.jpg,FS,4,num_4,32,num_6,0.550166415749,,,2017_Aug_17_1416,59.9997883088,FEMA4ImagesEEG,001,201245,
AFNE01.JPG,AFNE01.JPG,AFNE01.JPG,AFNE01.JPG,AFNE01.JPG,AFNE01.JPG,,,,,,,,,,,,,,,,,5,8,58,8,,,,,,,AFNE16.jpg,AFNE05.jpg,AFSA01.jpg,AFSA06.jpg,AFNE16.jpg,FN,3,num_8,32,num_4,1.08346545137,,,2017_Aug_17_1416,59.9997883088,FEMA4ImagesEEG,001,201245,
AFNE01.JPG,AFNE01.JPG,AFNE01.JPG,AFNE01.JPG,AFNE01.JPG,AFNE01.JPG,,,,,,,,,,,,,,,,,5,9,59,9,,,,,,,AFNE07.jpg,AFSA13.jpg,AFSA09.jpg,AFNE06.jpg,AFNE07.jpg,FN,3,num_8,16,num_8,0.583474271698,,,2017_Aug_17_1416,59.9997883088,FEMA4ImagesEEG,001,201245,
,,,,,,,,,,,,,,,,,,,,,,,,,,,,,,,,,,,,,,,,,,,space,13.1821676423,2017_Aug_17_1416,59.9997883088,FEMA4ImagesEEG,001,201245,
AFNE01.JPG,AFNE01.JPG,AFNE01.JPG,AFNE01.JPG,AFNE01.JPG,AFNE01.JPG,,,,,,,,,,,,,,,,,,,,,0,0,0,6,,,AMSA07.jpg,AMSA18.jpg,AMNE03.jpg,AMNE07.jpg,AMSA07.jpg,MS,2,num_8,16,num_8,0.683504966495,,,2017_Aug_17_1416,59.9997883088,FEMA4ImagesEEG,001,201245,
AFNE01.JPG,AFNE01.JPG,AFNE01.JPG,AFNE01.JPG,AFNE01.JPG,AFNE01.JPG,,,,,,,,,,,,,,,,,,,,,0,1,1,5,,,AMSA20.jpg,AMSA02.jpg,AMNE04.jpg,AMNE11.jpg,AMSA02.jpg,MS,2,num_6,16,num_6,0.549976537877,,,2017_Aug_17_1416,59.9997883088,FEMA4ImagesEEG,001,201245,
AFNE01.JPG,AFNE01.JPG,AFNE01.JPG,AFNE01.JPG,AFNE01.JPG,AFNE01.JPG,,,,,,,,,,,,,,,,,,,,,0,2,2,1,,,AMNE03.jpg,AMNE11.jpg,AMSA13.jpg,AMSA12.jpg,AMSA12.jpg,MS,2,num_4,16,num_4,1.10012274713,,,2017_Aug_17_1416,59.9997883088,FEMA4ImagesEEG,001,201245,
AFNE01.JPG,AFNE01.JPG,AFNE01.JPG,AFNE01.JPG,AFNE01.JPG,AFNE01.JPG,,,,,,,,,,,,,,,,,,,,,0,3,3,9,,,AMSA17.jpg,AMNE04.jpg,AMNE07.jpg,AMSA07.jpg,AMNE07.jpg,MN,1,num_2,32,num_8,0.816768784833,,,2017_Aug_17_1416,59.9997883088,FEMA4ImagesEEG,001,201245,
AFNE01.JPG,AFNE01.JPG,AFNE01.JPG,AFNE01.JPG,AFNE01.JPG,AFNE01.JPG,,,,,,,,,,,,,,,,,,,,,0,4,4,7,,,AMNE08.jpg,AMSA18.jpg,AMNE07.jpg,AMSA08.jpg,AMNE08.jpg,MN,1,num_8,32,num_4,0.71678652172,,,2017_Aug_17_1416,59.9997883088,FEMA4ImagesEEG,001,201245,
AFNE01.JPG,AFNE01.JPG,AFNE01.JPG,AFNE01.JPG,AFNE01.JPG,AFNE01.JPG,,,,,,,,,,,,,,,,,,,,,0,5,5,0,,,AMNE08.jpg,AMSA05.jpg,AMSA02.jpg,AMNE20.jpg,AMNE20.jpg,MN,1,num_4,16,num_4,0.81675403082,,,2017_Aug_17_1416,59.9997883088,FEMA4ImagesEEG,001,201245,
AFNE01.JPG,AFNE01.JPG,AFNE01.JPG,AFNE01.JPG,AFNE01.JPG,AFNE01.JPG,,,,,,,,,,,,,,,,,,,,,0,6,6,2,,,AMSA11.jpg,AMSA01.jpg,AMNE15.jpg,AMNE19.jpg,AMSA11.jpg,MS,2,num_8,32,num_6,0.700099718,,,2017_Aug_17_1416,59.9997883088,FEMA4ImagesEEG,001,201245,
AFNE01.JPG,AFNE01.JPG,AFNE01.JPG,AFNE01.JPG,AFNE01.JPG,AFNE01.JPG,,,,,,,,,,,,,,,,,,,,,0,7,7,8,,,AMSA18.jpg,AMNE08.jpg,AMNE18.jpg,AMSA02.jpg,AMSA02.jpg,MS,2,num_4,16,num_4,0.633647904091,,,2017_Aug_17_1416,59.9997883088,FEMA4ImagesEEG,001,201245,
AFNE01.JPG,AFNE01.JPG,AFNE01.JPG,AFNE01.JPG,AFNE01.JPG,AFNE01.JPG,,,,,,,,,,,,,,,,,,,,,0,8,8,4,,,AMNE20.jpg,AMSA17.jpg,AMSA10.jpg,AMNE07.jpg,AMNE07.jpg,MN,1,num_4,16,num_4,0.700137244479,,,2017_Aug_17_1416,59.9997883088,FEMA4ImagesEEG,001,201245,
AFNE01.JPG,AFNE01.JPG,AFNE01.JPG,AFNE01.JPG,AFNE01.JPG,AFNE01.JPG,,,,,,,,,,,,,,,,,,,,,0,9,9,3,,,AMSA19.jpg,AMNE06.jpg,AMNE05.jpg,AMSA15.jpg,AMNE05.jpg,MN,1,num_2,32,num_6,0.833481889276,,,2017_Aug_17_1416,59.9997883088,FEMA4ImagesEEG,001,201245,
AFNE01.JPG,AFNE01.JPG,AFNE01.JPG,AFNE01.JPG,AFNE01.JPG,AFNE01.JPG,,,,,,,,,,,,,,,,,,,,,1,0,10,3,,,AMSA07.jpg,AMNE09.jpg,AMSA05.jpg,AMNE17.jpg,AMNE09.jpg,MN,1,num_6,16,num_6,0.783474079275,,,2017_Aug_17_1416,59.9997883088,FEMA4ImagesEEG,001,201245,
AFNE01.JPG,AFNE01.JPG,AFNE01.JPG,AFNE01.JPG,AFNE01.JPG,AFNE01.JPG,,,,,,,,,,,,,,,,,,,,,1,1,11,2,,,AMNE12.jpg,AMNE05.jpg,AMSA05.jpg,AMSA12.jpg,AMSA05.jpg,MS,2,num_2,32,num_8,0.63347374252,,,2017_Aug_17_1416,59.9997883088,FEMA4ImagesEEG,001,201245,
AFNE01.JPG,AFNE01.JPG,AFNE01.JPG,AFNE01.JPG,AFNE01.JPG,AFNE01.JPG,,,,,,,,,,,,,,,,,,,,,1,2,12,1,,,AMSA10.jpg,AMNE07.jpg,AMSA16.jpg,AMNE15.jpg,AMNE07.jpg,MN,1,num_6,16,num_6,0.500052761636,,,2017_Aug_17_1416,59.9997883088,FEMA4ImagesEEG,001,201245,
AFNE01.JPG,AFNE01.JPG,AFNE01.JPG,AFNE01.JPG,AFNE01.JPG,AFNE01.JPG,,,,,,,,,,,,,,,,,,,,,1,3,13,4,,,AMNE05.jpg,AMSA10.jpg,AMSA11.jpg,AMNE03.jpg,AMSA11.jpg,MS,2,num_2,16,num_2,1.46677794197,,,2017_Aug_17_1416,59.9997883088,FEMA4ImagesEEG,001,201245,
AFNE01.JPG,AFNE01.JPG,AFNE01.JPG,AFNE01.JPG,AFNE01.JPG,AFNE01.JPG,,,,,,,,,,,,,,,,,,,,,1,4,14,9,,,AMNE11.jpg,AMNE18.jpg,AMSA05.jpg,AMSA01.jpg,AMNE11.jpg,MN,1,num_8,32,num_6,0.716764390701,,,2017_Aug_17_1416,59.9997883088,FEMA4ImagesEEG,001,201245,
AFNE01.JPG,AFNE01.JPG,AFNE01.JPG,AFNE01.JPG,AFNE01.JPG,AFNE01.JPG,,,,,,,,,,,,,,,,,,,,,1,5,15,8,,,AMNE19.jpg,AMSA10.jpg,AMNE13.jpg,AMSA15.jpg,AMSA15.jpg,MS,2,num_4,16,num_4,0.616756789212,,,2017_Aug_17_1416,59.9997883088,FEMA4ImagesEEG,001,201245,
AFNE01.JPG,AFNE01.JPG,AFNE01.JPG,AFNE01.JPG,AFNE01.JPG,AFNE01.JPG,,,,,,,,,,,,,,,,,,,,,1,6,16,7,,,AMNE08.jpg,AMSA07.jpg,AMNE14.jpg,AMSA13.jpg,AMSA07.jpg,MS,2,num_6,16,num_6,0.750121640507,,,2017_Aug_17_1416,59.9997883088,FEMA4ImagesEEG,001,201245,
AFNE01.JPG,AFNE01.JPG,AFNE01.JPG,AFNE01.JPG,AFNE01.JPG,AFNE01.JPG,,,,,,,,,,,,,,,,,,,,,1,7,17,5,,,AMSA06.jpg,AMNE12.jpg,AMNE14.jpg,AMSA19.jpg,AMSA19.jpg,MS,2,num_4,16,num_4,1.28345114639,,,2017_Aug_17_1416,59.9997883088,FEMA4ImagesEEG,001,201245,
AFNE01.JPG,AFNE01.JPG,AFNE01.JPG,AFNE01.JPG,AFNE01.JPG,AFNE01.JPG,,,,,,,,,,,,,,,,,,,,,1,8,18,6,,,AMNE06.jpg,AMSA14.jpg,AMSA04.jpg,AMNE02.jpg,AMSA04.jpg,MS,2,num_2,16,num_2,0.816807594325,,,2017_Aug_17_1416,59.9997883088,FEMA4ImagesEEG,001,201245,
AFNE01.JPG,AFNE01.JPG,AFNE01.JPG,AFNE01.JPG,AFNE01.JPG,AFNE01.JPG,,,,,,,,,,,,,,,,,,,,,1,9,19,0,,,AMNE17.jpg,AMSA06.jpg,AMNE13.jpg,AMSA07.jpg,AMSA07.jpg,MS,2,num_4,32,num_6,1.15015076369,,,2017_Aug_17_1416,59.9997883088,FEMA4ImagesEEG,001,201245,
AFNE01.JPG,AFNE01.JPG,AFNE01.JPG,AFNE01.JPG,AFNE01.JPG,AFNE01.JPG,,,,,,,,,,,,,,,,,,,,,2,0,20,4,,,AMNE11.jpg,AMNE16.jpg,AMSA19.jpg,AMSA16.jpg,AMSA16.jpg,MS,2,num_4,32,num_2,1.5834761961,,,2017_Aug_17_1416,59.9997883088,FEMA4ImagesEEG,001,201245,
AFNE01.JPG,AFNE01.JPG,AFNE01.JPG,AFNE01.JPG,AFNE01.JPG,AFNE01.JPG,,,,,,,,,,,,,,,,,,,,,2,1,21,5,,,AMNE12.jpg,AMNE02.jpg,AMSA11.jpg,AMSA19.jpg,AMNE12.jpg,MN,1,num_8,32,num_4,0.983694876486,,,2017_Aug_17_1416,59.9997883088,FEMA4ImagesEEG,001,201245,
AFNE01.JPG,AFNE01.JPG,AFNE01.JPG,AFNE01.JPG,AFNE01.JPG,AFNE01.JPG,,,,,,,,,,,,,,,,,,,,,2,2,22,6,,,AMNE06.jpg,AMNE16.jpg,AMSA14.jpg,AMSA01.jpg,AMSA01.jpg,MS,2,num_4,16,num_4,1.50010343856,,,2017_Aug_17_1416,59.9997883088,FEMA4ImagesEEG,001,201245,
AFNE01.JPG,AFNE01.JPG,AFNE01.JPG,AFNE01.JPG,AFNE01.JPG,AFNE01.JPG,,,,,,,,,,,,,,,,,,,,,2,3,23,9,,,AMSA15.jpg,AMNE03.jpg,AMNE02.jpg,AMSA07.jpg,AMSA15.jpg,MS,2,num_8,32,num_6,0.6671241484,,,2017_Aug_17_1416,59.9997883088,FEMA4ImagesEEG,001,201245,
AFNE01.JPG,AFNE01.JPG,AFNE01.JPG,AFNE01.JPG,AFNE01.JPG,AFNE01.JPG,,,,,,,,,,,,,,,,,,,,,2,4,24,2,,,AMSA02.jpg,AMNE17.jpg,AMSA15.jpg,AMNE07.jpg,AMNE07.jpg,MN,1,num_4,32,num_6,0.983435718808,,,2017_Aug_17_1416,59.9997883088,FEMA4ImagesEEG,001,201245,
AFNE01.JPG,AFNE01.JPG,AFNE01.JPG,AFNE01.JPG,AFNE01.JPG,AFNE01.JPG,,,,,,,,,,,,,,,,,,,,,2,5,25,8,,,AMSA19.jpg,AMSA10.jpg,AMNE18.jpg,AMNE15.jpg,AMSA10.jpg,MS,2,num_6,32,num_8,0.783456759294,,,2017_Aug_17_1416,59.9997883088,FEMA4ImagesEEG,001,201245,
AFNE01.JPG,AFNE01.JPG,AFNE01.JPG,AFNE01.JPG,AFNE01.JPG,AFNE01.JPG,,,,,,,,,,,,,,,,,,,,,2,6,26,3,,,AMSA19.jpg,AMNE04.jpg,AMNE17.jpg,AMSA20.jpg,AMNE04.jpg,MN,1,num_6,16,num_6,0.683434724517,,,2017_Aug_17_1416,59.9997883088,FEMA4ImagesEEG,001,201245,
AFNE01.JPG,AFNE01.JPG,AFNE01.JPG,AFNE01.JPG,AFNE01.JPG,AFNE01.JPG,,,,,,,,,,,,,,,,,,,,,2,7,27,7,,,AMSA09.jpg,AMSA06.jpg,AMNE15.jpg,AMNE14.jpg,AMSA06.jpg,MS,2,num_6,16,num_6,0.850136939844,,,2017_Aug_17_1416,59.9997883088,FEMA4ImagesEEG,001,201245,
AFNE01.JPG,AFNE01.JPG,AFNE01.JPG,AFNE01.JPG,AFNE01.JPG,AFNE01.JPG,,,,,,,,,,,,,,,,,,,,,2,8,28,0,,,AMSA13.jpg,AMNE06.jpg,AMSA11.jpg,AMNE20.jpg,AMSA11.jpg,MS,2,num_2,32,num_6,0.833423514618,,,2017_Aug_17_1416,59.9997883088,FEMA4ImagesEEG,001,201245,
AFNE01.JPG,AFNE01.JPG,AFNE01.JPG,AFNE01.JPG,AFNE01.JPG,AFNE01.JPG,,,,,,,,,,,,,,,,,,,,,2,9,29,1,,,AMNE12.jpg,AMSA16.jpg,AMNE01.jpg,AMSA12.jpg,AMSA12.jpg,MS,2,num_4,32,num_6,0.833447570098,,,2017_Aug_17_1416,59.9997883088,FEMA4ImagesEEG,001,201245,
AFNE01.JPG,AFNE01.JPG,AFNE01.JPG,AFNE01.JPG,AFNE01.JPG,AFNE01.JPG,,,,,,,,,,,,,,,,,,,,,3,0,30,8,,,AMSA18.jpg,AMSA13.jpg,AMNE18.jpg,AMNE19.jpg,AMSA18.jpg,MS,2,num_8,32,num_2,0.833450777514,,,2017_Aug_17_1416,59.9997883088,FEMA4ImagesEEG,001,201245,
AFNE01.JPG,AFNE01.JPG,AFNE01.JPG,AFNE01.JPG,AFNE01.JPG,AFNE01.JPG,,,,,,,,,,,,,,,,,,,,,3,1,31,0,,,AMNE06.jpg,AMNE05.jpg,AMSA14.jpg,AMSA16.jpg,AMNE06.jpg,MN,1,num_8,32,num_4,0.766814859118,,,2017_Aug_17_1416,59.9997883088,FEMA4ImagesEEG,001,201245,
AFNE01.JPG,AFNE01.JPG,AFNE01.JPG,AFNE01.JPG,AFNE01.JPG,AFNE01.JPG,,,,,,,,,,,,,,,,,,,,,3,2,32,9,,,AMSA12.jpg,AMNE11.jpg,AMSA14.jpg,AMNE16.jpg,AMNE16.jpg,MN,1,num_4,16,num_4,0.716773692169,,,2017_Aug_17_1416,59.9997883088,FEMA4ImagesEEG,001,201245,
AFNE01.JPG,AFNE01.JPG,AFNE01.JPG,AFNE01.JPG,AFNE01.JPG,AFNE01.JPG,,,,,,,,,,,,,,,,,,,,,3,3,33,2,,,AMNE16.jpg,AMSA09.jpg,AMNE03.jpg,AMSA07.jpg,AMSA09.jpg,MS,2,num_6,32,num_8,1.05011172971,,,2017_Aug_17_1416,59.9997883088,FEMA4ImagesEEG,001,201245,
AFNE01.JPG,AFNE01.JPG,AFNE01.JPG,AFNE01.JPG,AFNE01.JPG,AFNE01.JPG,,,,,,,,,,,,,,,,,,,,,3,4,34,6,,,AMSA05.jpg,AMNE14.jpg,AMNE03.jpg,AMSA16.jpg,AMNE03.jpg,MN,1,num_2,16,num_2,1.56673967768,,,2017_Aug_17_1416,59.9997883088,FEMA4ImagesEEG,001,201245,
AFNE01.JPG,AFNE01.JPG,AFNE01.JPG,AFNE01.JPG,AFNE01.JPG,AFNE01.JPG,,,,,,,,,,,,,,,,,,,,,3,5,35,7,,,AMSA12.jpg,AMNE11.jpg,AMNE01.jpg,AMSA20.jpg,AMNE01.jpg,MN,1,num_2,32,num_6,0.883435173542,,,2017_Aug_17_1416,59.9997883088,FEMA4ImagesEEG,001,201245,
AFNE01.JPG,AFNE01.JPG,AFNE01.JPG,AFNE01.JPG,AFNE01.JPG,AFNE01.JPG,,,,,,,,,,,,,,,,,,,,,3,6,36,5,,,AMNE07.jpg,AMNE18.jpg,AMSA14.jpg,AMSA12.jpg,AMNE18.jpg,MN,1,num_6,16,num_6,0.600148245867,,,2017_Aug_17_1416,59.9997883088,FEMA4ImagesEEG,001,201245,
AFNE01.JPG,AFNE01.JPG,AFNE01.JPG,AFNE01.JPG,AFNE01.JPG,AFNE01.JPG,,,,,,,,,,,,,,,,,,,,,3,7,37,4,,,AMNE09.jpg,AMSA08.jpg,AMNE06.jpg,AMSA20.jpg,AMSA08.jpg,MS,2,num_6,16,num_6,1.0834263211,,,2017_Aug_17_1416,59.9997883088,FEMA4ImagesEEG,001,201245,
AFNE01.JPG,AFNE01.JPG,AFNE01.JPG,AFNE01.JPG,AFNE01.JPG,AFNE01.JPG,,,,,,,,,,,,,,,,,,,,,3,8,38,1,,,AMNE13.jpg,AMNE02.jpg,AMSA14.jpg,AMSA08.jpg,AMSA14.jpg,MS,2,num_2,16,num_2,1.4500645168,,,2017_Aug_17_1416,59.9997883088,FEMA4ImagesEEG,001,201245,
